onset	duration	trial_type	sample	stim_file	subject	experiment	session	trial	item_name	item_num	list	answer	test_x	test_y	test_z
234.164	n/a	SESS_START	117082	n/a	LTP324	ltpFR2	6	n/a	n/a	n/a	n/a	n/a	0	0	0
249.978	n/a	START	124989	n/a	LTP324	ltpFR2	6	n/a	n/a	n/a	-1	n/a	n/a	n/a	n/a
249.994	n/a	PROB	124997	n/a	LTP324	ltpFR2	6	n/a	n/a	n/a	-1	7	5	1	1
250.942	n/a	PROB	125471	n/a	LTP324	ltpFR2	6	n/a	n/a	n/a	-1	10	2	2	6
251.758	n/a	PROB	125879	n/a	LTP324	ltpFR2	6	n/a	n/a	n/a	-1	11	7	3	1
252.494	n/a	PROB	126247	n/a	LTP324	ltpFR2	6	n/a	n/a	n/a	-1	112	8	1	3
253.894	n/a	PROB	126947	n/a	LTP324	ltpFR2	6	n/a	n/a	n/a	-1	16	9	6	1
254.762	n/a	PROB	127381	n/a	LTP324	ltpFR2	6	n/a	n/a	n/a	-1	11	7	1	3
255.548	n/a	PROB	127774	n/a	LTP324	ltpFR2	6	n/a	n/a	n/a	-1	18	6	9	3
256.546	n/a	PROB	128273	n/a	LTP324	ltpFR2	6	n/a	n/a	n/a	-1	10	2	6	2
257.816	n/a	PROB	128908	n/a	LTP324	ltpFR2	6	n/a	n/a	n/a	-1	19	8	5	6
259.216	n/a	PROB	129608	n/a	LTP324	ltpFR2	6	n/a	n/a	n/a	-1	11	7	3	1
260.016	n/a	PROB	130008	n/a	LTP324	ltpFR2	6	n/a	n/a	n/a	-1	13	8	4	1
261.014	n/a	STOP	130507	n/a	LTP324	ltpFR2	6	n/a	n/a	n/a	-1	n/a	n/a	n/a	n/a
302.856	n/a	DISTRACTOR	151428	n/a	LTP324	ltpFR2	6	1	n/a	n/a	n/a	n/a	0	0	0
302.856	n/a	START	151428	n/a	LTP324	ltpFR2	6	n/a	n/a	n/a	1	n/a	n/a	n/a	n/a
302.87	n/a	PROB	151435	n/a	LTP324	ltpFR2	6	n/a	n/a	n/a	1	4	1	1	2
303.636	n/a	PROB	151818	n/a	LTP324	ltpFR2	6	n/a	n/a	n/a	1	11	6	3	2
304.858	n/a	PROB	152429	n/a	LTP324	ltpFR2	6	n/a	n/a	n/a	1	1	1	5	5
305.74	n/a	PROB	152870	n/a	LTP324	ltpFR2	6	n/a	n/a	n/a	1	12	1	4	7
306.656	n/a	PROB	153328	n/a	LTP324	ltpFR2	6	n/a	n/a	n/a	1	26	8	9	9
308.042	n/a	PROB	154021	n/a	LTP324	ltpFR2	6	n/a	n/a	n/a	1	20	5	6	9
309.444	n/a	PROB	154722	n/a	LTP324	ltpFR2	6	n/a	n/a	n/a	1	16	4	7	5
311.48	n/a	PROB	155740	n/a	LTP324	ltpFR2	6	n/a	n/a	n/a	1	17	5	9	3
313.066	n/a	PROB	156533	n/a	LTP324	ltpFR2	6	n/a	n/a	n/a	1	22	5	9	8
314.934	n/a	PROB	157467	n/a	LTP324	ltpFR2	6	n/a	n/a	n/a	1	8	3	3	2
316.85	n/a	PROB	158425	n/a	LTP324	ltpFR2	6	n/a	n/a	n/a	1	24	6	9	9
318.602	n/a	PROB	159301	n/a	LTP324	ltpFR2	6	n/a	n/a	n/a	1	19	6	4	9
320.134	n/a	PROB	160067	n/a	LTP324	ltpFR2	6	n/a	n/a	n/a	1	12	2	1	1
320.97	n/a	PROB	160485	n/a	LTP324	ltpFR2	6	n/a	n/a	n/a	1	14	4	6	4
322.568	n/a	PROB	161284	n/a	LTP324	ltpFR2	6	n/a	n/a	n/a	1	16	7	8	1
323.538	n/a	PROB	161769	n/a	LTP324	ltpFR2	6	n/a	n/a	n/a	1	13	6	2	5
325.038	n/a	PROB	162519	n/a	LTP324	ltpFR2	6	n/a	n/a	n/a	1	232	9	5	9
326.784	n/a	STOP	163392	n/a	LTP324	ltpFR2	6	n/a	n/a	n/a	1	n/a	n/a	n/a	n/a
327.744	n/a	WORD	163872	wordpools/wasnorm_wordpool_576.txt	LTP324	ltpFR2	6	1	ORANGE	980	n/a	n/a	0	0	0
330.36	n/a	WORD	165180	wordpools/wasnorm_wordpool_576.txt	LTP324	ltpFR2	6	1	OZONE	996	n/a	n/a	0	0	0
332.816	n/a	WORD	166408	wordpools/wasnorm_wordpool_576.txt	LTP324	ltpFR2	6	1	TABLET	1427	n/a	n/a	0	0	0
335.348	n/a	WORD	167674	wordpools/wasnorm_wordpool_576.txt	LTP324	ltpFR2	6	1	WORKER	1621	n/a	n/a	0	0	0
338.084	n/a	WORD	169042	wordpools/wasnorm_wordpool_576.txt	LTP324	ltpFR2	6	1	DRIVER	499	n/a	n/a	0	0	0
340.604	n/a	WORD	170302	wordpools/wasnorm_wordpool_576.txt	LTP324	ltpFR2	6	1	DASHBOARD	441	n/a	n/a	0	0	0
343.208	n/a	WORD	171604	wordpools/wasnorm_wordpool_576.txt	LTP324	ltpFR2	6	1	PLASTER	1085	n/a	n/a	0	0	0
345.844	n/a	WORD	172922	wordpools/wasnorm_wordpool_576.txt	LTP324	ltpFR2	6	1	BANK	83	n/a	n/a	0	0	0
348.676	n/a	WORD	174338	wordpools/wasnorm_wordpool_576.txt	LTP324	ltpFR2	6	1	DANCER	437	n/a	n/a	0	0	0
351.182	n/a	WORD	175591	wordpools/wasnorm_wordpool_576.txt	LTP324	ltpFR2	6	1	KNAPSACK	783	n/a	n/a	0	0	0
353.766	n/a	WORD	176883	wordpools/wasnorm_wordpool_576.txt	LTP324	ltpFR2	6	1	SWORD	1423	n/a	n/a	0	0	0
356.582	n/a	WORD	178291	wordpools/wasnorm_wordpool_576.txt	LTP324	ltpFR2	6	1	RAZOR	1171	n/a	n/a	0	0	0
359.034	n/a	WORD	179517	wordpools/wasnorm_wordpool_576.txt	LTP324	ltpFR2	6	1	SCULPTURE	1258	n/a	n/a	0	0	0
361.618	n/a	WORD	180809	wordpools/wasnorm_wordpool_576.txt	LTP324	ltpFR2	6	1	FOX	598	n/a	n/a	0	0	0
364.22	n/a	WORD	182110	wordpools/wasnorm_wordpool_576.txt	LTP324	ltpFR2	6	1	WITNESS	1618	n/a	n/a	0	0	0
366.79	n/a	WORD	183395	wordpools/wasnorm_wordpool_576.txt	LTP324	ltpFR2	6	1	VICTIM	1562	n/a	n/a	0	0	0
369.59	n/a	WORD	184795	wordpools/wasnorm_wordpool_576.txt	LTP324	ltpFR2	6	1	WASP	1593	n/a	n/a	0	0	0
372.242	n/a	WORD	186121	wordpools/wasnorm_wordpool_576.txt	LTP324	ltpFR2	6	1	BALLOON	75	n/a	n/a	0	0	0
374.914	n/a	WORD	187457	wordpools/wasnorm_wordpool_576.txt	LTP324	ltpFR2	6	1	SUPPER	1411	n/a	n/a	0	0	0
377.722	n/a	WORD	188861	wordpools/wasnorm_wordpool_576.txt	LTP324	ltpFR2	6	1	WAGON	1578	n/a	n/a	0	0	0
380.224	n/a	WORD	190112	wordpools/wasnorm_wordpool_576.txt	LTP324	ltpFR2	6	1	TUTU	1524	n/a	n/a	0	0	0
382.786	n/a	WORD	191393	wordpools/wasnorm_wordpool_576.txt	LTP324	ltpFR2	6	1	SEAGULL	1261	n/a	n/a	0	0	0
385.554	n/a	WORD	192777	wordpools/wasnorm_wordpool_576.txt	LTP324	ltpFR2	6	1	LAKE	796	n/a	n/a	0	0	0
388.29	n/a	WORD	194145	wordpools/wasnorm_wordpool_576.txt	LTP324	ltpFR2	6	1	JUNGLE	764	n/a	n/a	0	0	0
389.898	n/a	START	194949	n/a	LTP324	ltpFR2	6	n/a	n/a	n/a	2	n/a	n/a	n/a	n/a
390.972	n/a	DISTRACTOR	195486	n/a	LTP324	ltpFR2	6	1	n/a	n/a	n/a	n/a	0	0	0
390.982	n/a	PROB	195491	n/a	LTP324	ltpFR2	6	n/a	n/a	n/a	2	22	9	9	4
392.114	n/a	PROB	196057	n/a	LTP324	ltpFR2	6	n/a	n/a	n/a	2	11	1	3	7
392.982	n/a	PROB	196491	n/a	LTP324	ltpFR2	6	n/a	n/a	n/a	2	18	7	7	4
394.016	n/a	PROB	197008	n/a	LTP324	ltpFR2	6	n/a	n/a	n/a	2	19	3	7	9
395.75	n/a	PROB	197875	n/a	LTP324	ltpFR2	6	n/a	n/a	n/a	2	10	4	2	4
396.7	n/a	PROB	198350	n/a	LTP324	ltpFR2	6	n/a	n/a	n/a	2	16	6	1	9
397.568	n/a	PROB	198784	n/a	LTP324	ltpFR2	6	n/a	n/a	n/a	2	10	2	4	4
398.418	n/a	PROB	199209	n/a	LTP324	ltpFR2	6	n/a	n/a	n/a	2	12	1	5	6
399.388	n/a	PROB	199694	n/a	LTP324	ltpFR2	6	n/a	n/a	n/a	2	12	8	2	2
400.454	n/a	PROB	200227	n/a	LTP324	ltpFR2	6	n/a	n/a	n/a	2	10	5	1	4
401.956	n/a	PROB	200978	n/a	LTP324	ltpFR2	6	n/a	n/a	n/a	2	15	2	4	9
403.006	n/a	PROB	201503	n/a	LTP324	ltpFR2	6	n/a	n/a	n/a	2	17	2	9	6
404.142	n/a	PROB	202071	n/a	LTP324	ltpFR2	6	n/a	n/a	n/a	2	8	2	3	3
405.374	n/a	PROB	202687	n/a	LTP324	ltpFR2	6	n/a	n/a	n/a	2	24	9	9	6
406.994	n/a	PROB	203497	n/a	LTP324	ltpFR2	6	n/a	n/a	n/a	2	20	7	6	7
408.626	n/a	PROB	204313	n/a	LTP324	ltpFR2	6	n/a	n/a	n/a	2	11	5	1	5
409.362	n/a	PROB	204681	n/a	LTP324	ltpFR2	6	n/a	n/a	n/a	2	21	6	6	3
410.566	n/a	PROB	205283	n/a	LTP324	ltpFR2	6	n/a	n/a	n/a	2	9	2	3	4
411.73	n/a	PROB	205865	n/a	LTP324	ltpFR2	6	n/a	n/a	n/a	2	13	6	4	3
413.066	n/a	STOP	206533	n/a	LTP324	ltpFR2	6	n/a	n/a	n/a	2	n/a	n/a	n/a	n/a
415.652	n/a	REC_START	207826	n/a	LTP324	ltpFR2	6	1	n/a	n/a	n/a	n/a	0	0	0
417.046	n/a	REC_WORD	208523	wordpools/wasnorm_wordpool_576.txt	LTP324	ltpFR2	6	1	SEAGULL	1261	n/a	n/a	0	0	0
417.982	n/a	REC_WORD	208991	wordpools/wasnorm_wordpool_576.txt	LTP324	ltpFR2	6	1	TUTU	1524	n/a	n/a	0	0	0
418.84	n/a	REC_WORD	209420	wordpools/wasnorm_wordpool_576.txt	LTP324	ltpFR2	6	1	DINNER	468	n/a	n/a	0	0	0
422.724	n/a	REC_WORD	211362	wordpools/wasnorm_wordpool_576.txt	LTP324	ltpFR2	6	1	LAKE	796	n/a	n/a	0	0	0
423.668	n/a	REC_WORD	211834	wordpools/wasnorm_wordpool_576.txt	LTP324	ltpFR2	6	1	JUNGLE	764	n/a	n/a	0	0	0
433.054	n/a	REC_WORD	216527	wordpools/wasnorm_wordpool_576.txt	LTP324	ltpFR2	6	1	DRIVER	499	n/a	n/a	0	0	0
434.348	n/a	REC_WORD	217174	wordpools/wasnorm_wordpool_576.txt	LTP324	ltpFR2	6	1	WORKER	1621	n/a	n/a	0	0	0
435.438	n/a	REC_WORD	217719	wordpools/wasnorm_wordpool_576.txt	LTP324	ltpFR2	6	1	WAGON	1578	n/a	n/a	0	0	0
437.242	n/a	REC_WORD	218621	wordpools/wasnorm_wordpool_576.txt	LTP324	ltpFR2	6	1	VICTIM	1562	n/a	n/a	0	0	0
438.576	n/a	REC_WORD	219288	wordpools/wasnorm_wordpool_576.txt	LTP324	ltpFR2	6	1	WITNESS	1618	n/a	n/a	0	0	0
439.768	n/a	REC_WORD	219884	wordpools/wasnorm_wordpool_576.txt	LTP324	ltpFR2	6	1	WASP	1593	n/a	n/a	0	0	0
441.024	n/a	REC_WORD	220512	wordpools/wasnorm_wordpool_576.txt	LTP324	ltpFR2	6	1	BALLOON	75	n/a	n/a	0	0	0
442.548	n/a	REC_WORD	221274	wordpools/wasnorm_wordpool_576.txt	LTP324	ltpFR2	6	1	SWORD	1423	n/a	n/a	0	0	0
443.534	n/a	REC_WORD	221767	wordpools/wasnorm_wordpool_576.txt	LTP324	ltpFR2	6	1	RAZOR	1171	n/a	n/a	0	0	0
444.368	n/a	REC_WORD	222184	wordpools/wasnorm_wordpool_576.txt	LTP324	ltpFR2	6	1	SCULPTURE	1258	n/a	n/a	0	0	0
445.19	n/a	REC_WORD	222595	wordpools/wasnorm_wordpool_576.txt	LTP324	ltpFR2	6	1	FOX	598	n/a	n/a	0	0	0
447.706	n/a	REC_WORD	223853	wordpools/wasnorm_wordpool_576.txt	LTP324	ltpFR2	6	1	PLASTER	1085	n/a	n/a	0	0	0
450.684	n/a	REC_WORD	225342	wordpools/wasnorm_wordpool_576.txt	LTP324	ltpFR2	6	1	DASHBOARD	441	n/a	n/a	0	0	0
452.58	n/a	REC_WORD	226290	wordpools/wasnorm_wordpool_576.txt	LTP324	ltpFR2	6	1	DANCER	437	n/a	n/a	0	0	0
455.16	n/a	REC_WORD	227580	wordpools/wasnorm_wordpool_576.txt	LTP324	ltpFR2	6	1	BANK	83	n/a	n/a	0	0	0
471.402	n/a	REC_WORD	235701	wordpools/wasnorm_wordpool_576.txt	LTP324	ltpFR2	6	1	OZONE	996	n/a	n/a	0	0	0
473.416	n/a	REC_WORD	236708	wordpools/wasnorm_wordpool_576.txt	LTP324	ltpFR2	6	1	ORANGE	980	n/a	n/a	0	0	0
474.218	n/a	REC_WORD	237109	wordpools/wasnorm_wordpool_576.txt	LTP324	ltpFR2	6	1	TABLET	1427	n/a	n/a	0	0	0
544.896	n/a	WORD	272448	wordpools/wasnorm_wordpool_576.txt	LTP324	ltpFR2	6	2	LADY	794	n/a	n/a	0	0	0
547.466	n/a	WORD	273733	wordpools/wasnorm_wordpool_576.txt	LTP324	ltpFR2	6	2	CLOUD	328	n/a	n/a	0	0	0
550.186	n/a	WORD	275093	wordpools/wasnorm_wordpool_576.txt	LTP324	ltpFR2	6	2	SMOG	1330	n/a	n/a	0	0	0
552.904	n/a	WORD	276452	wordpools/wasnorm_wordpool_576.txt	LTP324	ltpFR2	6	2	ACTRESS	6	n/a	n/a	0	0	0
555.338	n/a	WORD	277669	wordpools/wasnorm_wordpool_576.txt	LTP324	ltpFR2	6	2	COD	340	n/a	n/a	0	0	0
557.79	n/a	WORD	278895	wordpools/wasnorm_wordpool_576.txt	LTP324	ltpFR2	6	2	CRAB	397	n/a	n/a	0	0	0
560.26	n/a	WORD	280130	wordpools/wasnorm_wordpool_576.txt	LTP324	ltpFR2	6	2	WAITRESS	1581	n/a	n/a	0	0	0
563.028	n/a	WORD	281514	wordpools/wasnorm_wordpool_576.txt	LTP324	ltpFR2	6	2	BROOK	177	n/a	n/a	0	0	0
565.496	n/a	WORD	282748	wordpools/wasnorm_wordpool_576.txt	LTP324	ltpFR2	6	2	DIVER	476	n/a	n/a	0	0	0
568.082	n/a	WORD	284041	wordpools/wasnorm_wordpool_576.txt	LTP324	ltpFR2	6	2	BOX	159	n/a	n/a	0	0	0
570.834	n/a	WORD	285417	wordpools/wasnorm_wordpool_576.txt	LTP324	ltpFR2	6	2	SCARF	1246	n/a	n/a	0	0	0
573.32	n/a	WORD	286660	wordpools/wasnorm_wordpool_576.txt	LTP324	ltpFR2	6	2	TURNIP	1521	n/a	n/a	0	0	0
575.988	n/a	WORD	287994	wordpools/wasnorm_wordpool_576.txt	LTP324	ltpFR2	6	2	BACON	67	n/a	n/a	0	0	0
578.724	n/a	WORD	289362	wordpools/wasnorm_wordpool_576.txt	LTP324	ltpFR2	6	2	CREATURE	403	n/a	n/a	0	0	0
581.214	n/a	WORD	290607	wordpools/wasnorm_wordpool_576.txt	LTP324	ltpFR2	6	2	DRAGON	492	n/a	n/a	0	0	0
583.712	n/a	WORD	291856	wordpools/wasnorm_wordpool_576.txt	LTP324	ltpFR2	6	2	FLOWER	584	n/a	n/a	0	0	0
586.264	n/a	WORD	293132	wordpools/wasnorm_wordpool_576.txt	LTP324	ltpFR2	6	2	COOKBOOK	373	n/a	n/a	0	0	0
588.982	n/a	WORD	294491	wordpools/wasnorm_wordpool_576.txt	LTP324	ltpFR2	6	2	PORK	1108	n/a	n/a	0	0	0
591.434	n/a	WORD	295717	wordpools/wasnorm_wordpool_576.txt	LTP324	ltpFR2	6	2	PEACH	1031	n/a	n/a	0	0	0
594.086	n/a	WORD	297043	wordpools/wasnorm_wordpool_576.txt	LTP324	ltpFR2	6	2	GHETTO	633	n/a	n/a	0	0	0
596.592	n/a	WORD	298296	wordpools/wasnorm_wordpool_576.txt	LTP324	ltpFR2	6	2	BRICK	172	n/a	n/a	0	0	0
599.356	n/a	WORD	299678	wordpools/wasnorm_wordpool_576.txt	LTP324	ltpFR2	6	2	HARP	689	n/a	n/a	0	0	0
602.076	n/a	WORD	301038	wordpools/wasnorm_wordpool_576.txt	LTP324	ltpFR2	6	2	WHISTLE	1606	n/a	n/a	0	0	0
604.76	n/a	WORD	302380	wordpools/wasnorm_wordpool_576.txt	LTP324	ltpFR2	6	2	SHARK	1275	n/a	n/a	0	0	0
606.368	n/a	START	303184	n/a	LTP324	ltpFR2	6	n/a	n/a	n/a	3	n/a	n/a	n/a	n/a
607.362	n/a	DISTRACTOR	303681	n/a	LTP324	ltpFR2	6	2	n/a	n/a	n/a	n/a	0	0	0
607.37	n/a	PROB	303685	n/a	LTP324	ltpFR2	6	n/a	n/a	n/a	3	8	1	3	4
608.248	n/a	PROB	304124	n/a	LTP324	ltpFR2	6	n/a	n/a	n/a	3	13	5	7	1
609.002	n/a	PROB	304501	n/a	LTP324	ltpFR2	6	n/a	n/a	n/a	3	18	6	9	3
610.268	n/a	PROB	305134	n/a	LTP324	ltpFR2	6	n/a	n/a	n/a	3	20	4	9	7
611.554	n/a	PROB	305777	n/a	LTP324	ltpFR2	6	n/a	n/a	n/a	3	21	6	9	6
613.186	n/a	PROB	306593	n/a	LTP324	ltpFR2	6	n/a	n/a	n/a	3	6	2	1	3
614.3	n/a	PROB	307150	n/a	LTP324	ltpFR2	6	n/a	n/a	n/a	3	12	6	2	4
615.79	n/a	PROB	307895	n/a	LTP324	ltpFR2	6	n/a	n/a	n/a	3	12	2	6	4
616.49	n/a	PROB	308245	n/a	LTP324	ltpFR2	6	n/a	n/a	n/a	3	15	8	5	2
618.11	n/a	PROB	309055	n/a	LTP324	ltpFR2	6	n/a	n/a	n/a	3	14	3	8	3
619.944	n/a	PROB	309972	n/a	LTP324	ltpFR2	6	n/a	n/a	n/a	3	12	2	6	4
621.226	n/a	PROB	310613	n/a	LTP324	ltpFR2	6	n/a	n/a	n/a	3	11	8	1	2
622.796	n/a	PROB	311398	n/a	LTP324	ltpFR2	6	n/a	n/a	n/a	3	12	1	7	4
623.848	n/a	PROB	311924	n/a	LTP324	ltpFR2	6	n/a	n/a	n/a	3	11	1	8	3
624.93	n/a	PROB	312465	n/a	LTP324	ltpFR2	6	n/a	n/a	n/a	3	16	2	7	7
626.364	n/a	PROB	313182	n/a	LTP324	ltpFR2	6	n/a	n/a	n/a	3	19	5	9	5
627.3	n/a	PROB	313650	n/a	LTP324	ltpFR2	6	n/a	n/a	n/a	3	12	5	2	5
628.2	n/a	PROB	314100	n/a	LTP324	ltpFR2	6	n/a	n/a	n/a	3	19	5	9	5
629.408	n/a	STOP	314704	n/a	LTP324	ltpFR2	6	n/a	n/a	n/a	3	n/a	n/a	n/a	n/a
632.272	n/a	REC_START	316136	n/a	LTP324	ltpFR2	6	2	n/a	n/a	n/a	n/a	0	0	0
636.41	n/a	REC_WORD	318205	wordpools/wasnorm_wordpool_576.txt	LTP324	ltpFR2	6	2	ACTRESS	6	n/a	n/a	0	0	0
637.206	n/a	REC_WORD	318603	wordpools/wasnorm_wordpool_576.txt	LTP324	ltpFR2	6	2	CLOUD	328	n/a	n/a	0	0	0
638.088	n/a	REC_WORD	319044	wordpools/wasnorm_wordpool_576.txt	LTP324	ltpFR2	6	2	SMOG	1330	n/a	n/a	0	0	0
639.09	n/a	REC_WORD	319545	wordpools/wasnorm_wordpool_576.txt	LTP324	ltpFR2	6	2	LADY	794	n/a	n/a	0	0	0
641.152	n/a	REC_WORD	320576	wordpools/wasnorm_wordpool_576.txt	LTP324	ltpFR2	6	2	COD	340	n/a	n/a	0	0	0
642.14	n/a	REC_WORD	321070	wordpools/wasnorm_wordpool_576.txt	LTP324	ltpFR2	6	2	CRAB	397	n/a	n/a	0	0	0
642.856	n/a	REC_WORD	321428	wordpools/wasnorm_wordpool_576.txt	LTP324	ltpFR2	6	2	WAITRESS	1581	n/a	n/a	0	0	0
643.856	n/a	REC_WORD_VV	321928	wordpools/wasnorm_wordpool_576.txt	LTP324	ltpFR2	6	2	<>	-1	n/a	n/a	0	0	0
646.728	n/a	REC_WORD	323364	wordpools/wasnorm_wordpool_576.txt	LTP324	ltpFR2	6	2	DIVER	476	n/a	n/a	0	0	0
648.024	n/a	REC_WORD	324012	wordpools/wasnorm_wordpool_576.txt	LTP324	ltpFR2	6	2	BOX	159	n/a	n/a	0	0	0
648.484	n/a	REC_WORD	324242	wordpools/wasnorm_wordpool_576.txt	LTP324	ltpFR2	6	2	SCARF	1246	n/a	n/a	0	0	0
650.254	n/a	REC_WORD	325127	wordpools/wasnorm_wordpool_576.txt	LTP324	ltpFR2	6	2	TURNIP	1521	n/a	n/a	0	0	0
651.31	n/a	REC_WORD	325655	wordpools/wasnorm_wordpool_576.txt	LTP324	ltpFR2	6	2	BACON	67	n/a	n/a	0	0	0
654.158	n/a	REC_WORD	327079	wordpools/wasnorm_wordpool_576.txt	LTP324	ltpFR2	6	2	DRAGON	492	n/a	n/a	0	0	0
654.652	n/a	REC_WORD	327326	wordpools/wasnorm_wordpool_576.txt	LTP324	ltpFR2	6	2	CREATURE	403	n/a	n/a	0	0	0
655.348	n/a	REC_WORD	327674	wordpools/wasnorm_wordpool_576.txt	LTP324	ltpFR2	6	2	COOKBOOK	373	n/a	n/a	0	0	0
668.896	n/a	REC_WORD	334448	wordpools/wasnorm_wordpool_576.txt	LTP324	ltpFR2	6	2	PEACH	1031	n/a	n/a	0	0	0
764.55	n/a	WORD	382275	wordpools/wasnorm_wordpool_576.txt	LTP324	ltpFR2	6	3	YARN	1631	n/a	n/a	0	0	0
766.99	n/a	WORD	383495	wordpools/wasnorm_wordpool_576.txt	LTP324	ltpFR2	6	3	LAPEL	800	n/a	n/a	0	0	0
769.592	n/a	WORD	384796	wordpools/wasnorm_wordpool_576.txt	LTP324	ltpFR2	6	3	FLASHLIGHT	575	n/a	n/a	0	0	0
772.344	n/a	WORD	386172	wordpools/wasnorm_wordpool_576.txt	LTP324	ltpFR2	6	3	LAVA	804	n/a	n/a	0	0	0
774.946	n/a	WORD	387473	wordpools/wasnorm_wordpool_576.txt	LTP324	ltpFR2	6	3	PENGUIN	1044	n/a	n/a	0	0	0
777.416	n/a	WORD	388708	wordpools/wasnorm_wordpool_576.txt	LTP324	ltpFR2	6	3	SHRUB	1299	n/a	n/a	0	0	0
780.118	n/a	WORD	390059	wordpools/wasnorm_wordpool_576.txt	LTP324	ltpFR2	6	3	MAPLE	866	n/a	n/a	0	0	0
782.836	n/a	WORD	391418	wordpools/wasnorm_wordpool_576.txt	LTP324	ltpFR2	6	3	SHORTS	1293	n/a	n/a	0	0	0
785.506	n/a	WORD	392753	wordpools/wasnorm_wordpool_576.txt	LTP324	ltpFR2	6	3	FLASK	576	n/a	n/a	0	0	0
788.19	n/a	WORD	394095	wordpools/wasnorm_wordpool_576.txt	LTP324	ltpFR2	6	3	TWISTER	1530	n/a	n/a	0	0	0
790.758	n/a	WORD	395379	wordpools/wasnorm_wordpool_576.txt	LTP324	ltpFR2	6	3	HEADBAND	696	n/a	n/a	0	0	0
793.444	n/a	WORD	396722	wordpools/wasnorm_wordpool_576.txt	LTP324	ltpFR2	6	3	DENTIST	447	n/a	n/a	0	0	0
796.014	n/a	WORD	398007	wordpools/wasnorm_wordpool_576.txt	LTP324	ltpFR2	6	3	SHOVEL	1295	n/a	n/a	0	0	0
798.664	n/a	WORD	399332	wordpools/wasnorm_wordpool_576.txt	LTP324	ltpFR2	6	3	BOUQUET	157	n/a	n/a	0	0	0
801.15	n/a	WORD	400575	wordpools/wasnorm_wordpool_576.txt	LTP324	ltpFR2	6	3	FOREHEAD	592	n/a	n/a	0	0	0
803.702	n/a	WORD	401851	wordpools/wasnorm_wordpool_576.txt	LTP324	ltpFR2	6	3	FRECKLE	602	n/a	n/a	0	0	0
806.236	n/a	WORD	403118	wordpools/wasnorm_wordpool_576.txt	LTP324	ltpFR2	6	3	CYCLONE	431	n/a	n/a	0	0	0
808.876	n/a	WORD	404438	wordpools/wasnorm_wordpool_576.txt	LTP324	ltpFR2	6	3	PARROT	1015	n/a	n/a	0	0	0
811.592	n/a	WORD	405796	wordpools/wasnorm_wordpool_576.txt	LTP324	ltpFR2	6	3	OMELET	976	n/a	n/a	0	0	0
814.128	n/a	WORD	407064	wordpools/wasnorm_wordpool_576.txt	LTP324	ltpFR2	6	3	OFFICE	972	n/a	n/a	0	0	0
816.712	n/a	WORD	408356	wordpools/wasnorm_wordpool_576.txt	LTP324	ltpFR2	6	3	TUNNEL	1519	n/a	n/a	0	0	0
819.466	n/a	WORD	409733	wordpools/wasnorm_wordpool_576.txt	LTP324	ltpFR2	6	3	CHIPMUNK	304	n/a	n/a	0	0	0
822.2	n/a	WORD	411100	wordpools/wasnorm_wordpool_576.txt	LTP324	ltpFR2	6	3	LABEL	790	n/a	n/a	0	0	0
824.87	n/a	WORD	412435	wordpools/wasnorm_wordpool_576.txt	LTP324	ltpFR2	6	3	CHEMIST	292	n/a	n/a	0	0	0
826.488	n/a	START	413244	n/a	LTP324	ltpFR2	6	n/a	n/a	n/a	4	n/a	n/a	n/a	n/a
827.348	n/a	DISTRACTOR	413674	n/a	LTP324	ltpFR2	6	3	n/a	n/a	n/a	n/a	0	0	0
827.358	n/a	PROB	413679	n/a	LTP324	ltpFR2	6	n/a	n/a	n/a	4	11	7	3	1
828.252	n/a	PROB	414126	n/a	LTP324	ltpFR2	6	n/a	n/a	n/a	4	8	1	4	3
829.102	n/a	PROB	414551	n/a	LTP324	ltpFR2	6	n/a	n/a	n/a	4	13	5	6	2
830.192	n/a	PROB	415096	n/a	LTP324	ltpFR2	6	n/a	n/a	n/a	4	20	8	4	8
832.142	n/a	PROB	416071	n/a	LTP324	ltpFR2	6	n/a	n/a	n/a	4	5	1	2	2
833.042	n/a	PROB	416521	n/a	LTP324	ltpFR2	6	n/a	n/a	n/a	4	20	8	7	7
834.84	n/a	PROB	417420	n/a	LTP324	ltpFR2	6	n/a	n/a	n/a	4	9	1	2	6
836.296	n/a	PROB	418148	n/a	LTP324	ltpFR2	6	n/a	n/a	n/a	4	1	7	3	7
837.476	n/a	PROB	418738	n/a	LTP324	ltpFR2	6	n/a	n/a	n/a	4	7	2	3	2
839.798	n/a	PROB	419899	n/a	LTP324	ltpFR2	6	n/a	n/a	n/a	4	19	3	8	8
841.332	n/a	PROB	420666	n/a	LTP324	ltpFR2	6	n/a	n/a	n/a	4	8	4	2	2
842.214	n/a	PROB	421107	n/a	LTP324	ltpFR2	6	n/a	n/a	n/a	4	18	6	5	7
843.688	n/a	PROB	421844	n/a	LTP324	ltpFR2	6	n/a	n/a	n/a	4	6	1	4	1
844.384	n/a	PROB	422192	n/a	LTP324	ltpFR2	6	n/a	n/a	n/a	4	18	8	7	3
846.14	n/a	PROB	423070	n/a	LTP324	ltpFR2	6	n/a	n/a	n/a	4	6	1	2	3
846.868	n/a	PROB	423434	n/a	LTP324	ltpFR2	6	n/a	n/a	n/a	4	18	3	6	9
847.938	n/a	PROB	423969	n/a	LTP324	ltpFR2	6	n/a	n/a	n/a	4	13	9	3	1
849.904	n/a	STOP	424952	n/a	LTP324	ltpFR2	6	n/a	n/a	n/a	4	n/a	n/a	n/a	n/a
852.362	n/a	REC_START	426181	n/a	LTP324	ltpFR2	6	3	n/a	n/a	n/a	n/a	0	0	0
852.724	n/a	REC_WORD	426362	wordpools/wasnorm_wordpool_576.txt	LTP324	ltpFR2	6	3	LAPEL	800	n/a	n/a	0	0	0
854.266	n/a	REC_WORD	427133	wordpools/wasnorm_wordpool_576.txt	LTP324	ltpFR2	6	3	PENGUIN	1044	n/a	n/a	0	0	0
855.276	n/a	REC_WORD	427638	wordpools/wasnorm_wordpool_576.txt	LTP324	ltpFR2	6	3	YARN	1631	n/a	n/a	0	0	0
856.418	n/a	REC_WORD	428209	wordpools/wasnorm_wordpool_576.txt	LTP324	ltpFR2	6	3	LAVA	804	n/a	n/a	0	0	0
857.4	n/a	REC_WORD	428700	wordpools/wasnorm_wordpool_576.txt	LTP324	ltpFR2	6	3	FLASHLIGHT	575	n/a	n/a	0	0	0
861.384	n/a	REC_WORD	430692	wordpools/wasnorm_wordpool_576.txt	LTP324	ltpFR2	6	3	SHORTS	1293	n/a	n/a	0	0	0
863.294	n/a	REC_WORD_VV	431647	wordpools/wasnorm_wordpool_576.txt	LTP324	ltpFR2	6	3	<>	-1	n/a	n/a	0	0	0
863.582	n/a	REC_WORD	431791	wordpools/wasnorm_wordpool_576.txt	LTP324	ltpFR2	6	3	SHRUB	1299	n/a	n/a	0	0	0
866.142	n/a	REC_WORD	433071	wordpools/wasnorm_wordpool_576.txt	LTP324	ltpFR2	6	3	MAPLE	866	n/a	n/a	0	0	0
867.734	n/a	REC_WORD	433867	wordpools/wasnorm_wordpool_576.txt	LTP324	ltpFR2	6	3	TUNNEL	1519	n/a	n/a	0	0	0
868.324	n/a	REC_WORD	434162	wordpools/wasnorm_wordpool_576.txt	LTP324	ltpFR2	6	3	OFFICE	972	n/a	n/a	0	0	0
868.9	n/a	REC_WORD	434450	wordpools/wasnorm_wordpool_576.txt	LTP324	ltpFR2	6	3	CHIPMUNK	304	n/a	n/a	0	0	0
878.876	n/a	REC_WORD	439438	wordpools/wasnorm_wordpool_576.txt	LTP324	ltpFR2	6	3	CYCLONE	431	n/a	n/a	0	0	0
879.678	n/a	REC_WORD	439839	wordpools/wasnorm_wordpool_576.txt	LTP324	ltpFR2	6	3	TWISTER	1530	n/a	n/a	0	0	0
885.858	n/a	REC_WORD	442929	wordpools/wasnorm_wordpool_576.txt	LTP324	ltpFR2	6	3	LABEL	790	n/a	n/a	0	0	0
886.45	n/a	REC_WORD	443225	wordpools/wasnorm_wordpool_576.txt	LTP324	ltpFR2	6	3	CHEMIST	292	n/a	n/a	0	0	0
960.92	n/a	WORD	480460	wordpools/wasnorm_wordpool_576.txt	LTP324	ltpFR2	6	4	NAPKIN	937	n/a	n/a	0	0	0
963.424	n/a	WORD	481712	wordpools/wasnorm_wordpool_576.txt	LTP324	ltpFR2	6	4	TEACHER	1440	n/a	n/a	0	0	0
965.978	n/a	WORD	482989	wordpools/wasnorm_wordpool_576.txt	LTP324	ltpFR2	6	4	DUST	508	n/a	n/a	0	0	0
968.48	n/a	WORD	484240	wordpools/wasnorm_wordpool_576.txt	LTP324	ltpFR2	6	4	CARROT	249	n/a	n/a	0	0	0
971.098	n/a	WORD	485549	wordpools/wasnorm_wordpool_576.txt	LTP324	ltpFR2	6	4	PANTHER	1009	n/a	n/a	0	0	0
973.584	n/a	WORD	486792	wordpools/wasnorm_wordpool_576.txt	LTP324	ltpFR2	6	4	GLOVE	642	n/a	n/a	0	0	0
976.154	n/a	WORD	488077	wordpools/wasnorm_wordpool_576.txt	LTP324	ltpFR2	6	4	HERO	706	n/a	n/a	0	0	0
978.956	n/a	WORD	489478	wordpools/wasnorm_wordpool_576.txt	LTP324	ltpFR2	6	4	IDOL	733	n/a	n/a	0	0	0
981.442	n/a	WORD	490721	wordpools/wasnorm_wordpool_576.txt	LTP324	ltpFR2	6	4	ORCHID	982	n/a	n/a	0	0	0
984.126	n/a	WORD	492063	wordpools/wasnorm_wordpool_576.txt	LTP324	ltpFR2	6	4	JUGGLER	763	n/a	n/a	0	0	0
986.848	n/a	WORD	493424	wordpools/wasnorm_wordpool_576.txt	LTP324	ltpFR2	6	4	DUSTPAN	509	n/a	n/a	0	0	0
989.482	n/a	WORD	494741	wordpools/wasnorm_wordpool_576.txt	LTP324	ltpFR2	6	4	PUDDING	1139	n/a	n/a	0	0	0
991.982	n/a	WORD	495991	wordpools/wasnorm_wordpool_576.txt	LTP324	ltpFR2	6	4	STUDENT	1395	n/a	n/a	0	0	0
994.586	n/a	WORD	497293	wordpools/wasnorm_wordpool_576.txt	LTP324	ltpFR2	6	4	CHAMPAGNE	278	n/a	n/a	0	0	0
997.156	n/a	WORD	498578	wordpools/wasnorm_wordpool_576.txt	LTP324	ltpFR2	6	4	BRANDY	169	n/a	n/a	0	0	0
999.922	n/a	WORD	499961	wordpools/wasnorm_wordpool_576.txt	LTP324	ltpFR2	6	4	COLLEGE	346	n/a	n/a	0	0	0
1002.608	n/a	WORD	501304	wordpools/wasnorm_wordpool_576.txt	LTP324	ltpFR2	6	4	BUNNY	198	n/a	n/a	0	0	0
1005.11	n/a	WORD	502555	wordpools/wasnorm_wordpool_576.txt	LTP324	ltpFR2	6	4	WOMAN	1620	n/a	n/a	0	0	0
1007.628	n/a	WORD	503814	wordpools/wasnorm_wordpool_576.txt	LTP324	ltpFR2	6	4	SEAL	1262	n/a	n/a	0	0	0
1010.25	n/a	WORD	505125	wordpools/wasnorm_wordpool_576.txt	LTP324	ltpFR2	6	4	DONKEY	484	n/a	n/a	0	0	0
1012.986	n/a	WORD	506493	wordpools/wasnorm_wordpool_576.txt	LTP324	ltpFR2	6	4	CATCHER	258	n/a	n/a	0	0	0
1015.77	n/a	WORD	507885	wordpools/wasnorm_wordpool_576.txt	LTP324	ltpFR2	6	4	ZEBRA	1635	n/a	n/a	0	0	0
1018.34	n/a	WORD	509170	wordpools/wasnorm_wordpool_576.txt	LTP324	ltpFR2	6	4	BRIEFCASE	175	n/a	n/a	0	0	0
1021.14	n/a	WORD	510570	wordpools/wasnorm_wordpool_576.txt	LTP324	ltpFR2	6	4	KEEPER	769	n/a	n/a	0	0	0
1022.76	n/a	START	511380	n/a	LTP324	ltpFR2	6	n/a	n/a	n/a	5	n/a	n/a	n/a	n/a
1023.594	n/a	DISTRACTOR	511797	n/a	LTP324	ltpFR2	6	4	n/a	n/a	n/a	n/a	0	0	0
1023.61	n/a	PROB	511805	n/a	LTP324	ltpFR2	6	n/a	n/a	n/a	5	14	5	7	2
1024.658	n/a	PROB	512329	n/a	LTP324	ltpFR2	6	n/a	n/a	n/a	5	7	1	3	3
1025.46	n/a	PROB	512730	n/a	LTP324	ltpFR2	6	n/a	n/a	n/a	5	18	2	7	9
1026.544	n/a	PROB	513272	n/a	LTP324	ltpFR2	6	n/a	n/a	n/a	5	10	4	5	1
1027.694	n/a	PROB	513847	n/a	LTP324	ltpFR2	6	n/a	n/a	n/a	5	17	2	8	7
1028.698	n/a	PROB	514349	n/a	LTP324	ltpFR2	6	n/a	n/a	n/a	5	8	1	2	5
1029.898	n/a	PROB	514949	n/a	LTP324	ltpFR2	6	n/a	n/a	n/a	5	21	9	3	9
1030.984	n/a	PROB	515492	n/a	LTP324	ltpFR2	6	n/a	n/a	n/a	5	11	1	8	2
1032.384	n/a	PROB	516192	n/a	LTP324	ltpFR2	6	n/a	n/a	n/a	5	17	2	7	8
1033.598	n/a	PROB	516799	n/a	LTP324	ltpFR2	6	n/a	n/a	n/a	5	18	4	8	6
1035.17	n/a	PROB	517585	n/a	LTP324	ltpFR2	6	n/a	n/a	n/a	5	14	1	5	8
1037.056	n/a	PROB	518528	n/a	LTP324	ltpFR2	6	n/a	n/a	n/a	5	11	1	7	3
1038.238	n/a	PROB	519119	n/a	LTP324	ltpFR2	6	n/a	n/a	n/a	5	23	8	6	9
1039.774	n/a	PROB	519887	n/a	LTP324	ltpFR2	6	n/a	n/a	n/a	5	17	7	2	8
1040.922	n/a	PROB	520461	n/a	LTP324	ltpFR2	6	n/a	n/a	n/a	5	19	2	9	8
1042.19	n/a	PROB	521095	n/a	LTP324	ltpFR2	6	n/a	n/a	n/a	5	17	9	4	4
1043.522	n/a	PROB	521761	n/a	LTP324	ltpFR2	6	n/a	n/a	n/a	5	14	5	1	8
1044.574	n/a	PROB	522287	n/a	LTP324	ltpFR2	6	n/a	n/a	n/a	5	11	5	4	2
1046.182	n/a	STOP	523091	n/a	LTP324	ltpFR2	6	n/a	n/a	n/a	5	n/a	n/a	n/a	n/a
1048.666	n/a	REC_START	524333	n/a	LTP324	ltpFR2	6	4	n/a	n/a	n/a	n/a	0	0	0
1049.64	n/a	REC_WORD	524820	wordpools/wasnorm_wordpool_576.txt	LTP324	ltpFR2	6	4	ZEBRA	1635	n/a	n/a	0	0	0
1050.36	n/a	REC_WORD	525180	wordpools/wasnorm_wordpool_576.txt	LTP324	ltpFR2	6	4	CATCHER	258	n/a	n/a	0	0	0
1050.946	n/a	REC_WORD	525473	wordpools/wasnorm_wordpool_576.txt	LTP324	ltpFR2	6	4	KEEPER	769	n/a	n/a	0	0	0
1051.482	n/a	REC_WORD	525741	wordpools/wasnorm_wordpool_576.txt	LTP324	ltpFR2	6	4	SUITCASE	1403	n/a	n/a	0	0	0
1059.436	n/a	REC_WORD	529718	wordpools/wasnorm_wordpool_576.txt	LTP324	ltpFR2	6	4	DONKEY	484	n/a	n/a	0	0	0
1061.452	n/a	REC_WORD	530726	wordpools/wasnorm_wordpool_576.txt	LTP324	ltpFR2	6	4	BUNNY	198	n/a	n/a	0	0	0
1061.828	n/a	REC_WORD	530914	wordpools/wasnorm_wordpool_576.txt	LTP324	ltpFR2	6	4	WOMAN	1620	n/a	n/a	0	0	0
1073.86	n/a	REC_WORD	536930	wordpools/wasnorm_wordpool_576.txt	LTP324	ltpFR2	6	4	TEACHER	1440	n/a	n/a	0	0	0
1074.416	n/a	REC_WORD	537208	wordpools/wasnorm_wordpool_576.txt	LTP324	ltpFR2	6	4	NAPKIN	937	n/a	n/a	0	0	0
1075.068	n/a	REC_WORD	537534	wordpools/wasnorm_wordpool_576.txt	LTP324	ltpFR2	6	4	DUST	508	n/a	n/a	0	0	0
1076.266	n/a	REC_WORD	538133	wordpools/wasnorm_wordpool_576.txt	LTP324	ltpFR2	6	4	GLOVE	642	n/a	n/a	0	0	0
1081.376	n/a	REC_WORD	540688	wordpools/wasnorm_wordpool_576.txt	LTP324	ltpFR2	6	4	RABBIT	1152	n/a	n/a	0	0	0
1081.95	n/a	REC_WORD	540975	wordpools/wasnorm_wordpool_576.txt	LTP324	ltpFR2	6	4	PANTHER	1009	n/a	n/a	0	0	0
1087.368	n/a	REC_WORD	543684	wordpools/wasnorm_wordpool_576.txt	LTP324	ltpFR2	6	4	ORCHID	982	n/a	n/a	0	0	0
1087.952	n/a	REC_WORD	543976	wordpools/wasnorm_wordpool_576.txt	LTP324	ltpFR2	6	4	HERO	706	n/a	n/a	0	0	0
1088.644	n/a	REC_WORD	544322	wordpools/wasnorm_wordpool_576.txt	LTP324	ltpFR2	6	4	IDOL	733	n/a	n/a	0	0	0
1090.62	n/a	REC_WORD	545310	wordpools/wasnorm_wordpool_576.txt	LTP324	ltpFR2	6	4	COLLEGE	346	n/a	n/a	0	0	0
1091.406	n/a	REC_WORD	545703	wordpools/wasnorm_wordpool_576.txt	LTP324	ltpFR2	6	4	CHAMPAGNE	278	n/a	n/a	0	0	0
1092.278	n/a	REC_WORD	546139	wordpools/wasnorm_wordpool_576.txt	LTP324	ltpFR2	6	4	BRANDY	169	n/a	n/a	0	0	0
1092.9	n/a	REC_WORD	546450	wordpools/wasnorm_wordpool_576.txt	LTP324	ltpFR2	6	4	PUDDING	1139	n/a	n/a	0	0	0
1093.354	n/a	REC_WORD	546677	wordpools/wasnorm_wordpool_576.txt	LTP324	ltpFR2	6	4	STUDENT	1395	n/a	n/a	0	0	0
1160.068	n/a	DISTRACTOR	580034	n/a	LTP324	ltpFR2	6	5	n/a	n/a	n/a	n/a	0	0	0
1160.07	n/a	START	580035	n/a	LTP324	ltpFR2	6	n/a	n/a	n/a	6	n/a	n/a	n/a	n/a
1160.082	n/a	PROB	580041	n/a	LTP324	ltpFR2	6	n/a	n/a	n/a	6	18	8	1	9
1161.16	n/a	PROB	580580	n/a	LTP324	ltpFR2	6	n/a	n/a	n/a	6	15	6	6	3
1162.778	n/a	PROB	581389	n/a	LTP324	ltpFR2	6	n/a	n/a	n/a	6	11	5	1	5
1163.544	n/a	PROB	581772	n/a	LTP324	ltpFR2	6	n/a	n/a	n/a	6	19	5	1	9
1164.962	n/a	PROB	582481	n/a	LTP324	ltpFR2	6	n/a	n/a	n/a	6	13	6	6	1
1167.666	n/a	PROB	583833	n/a	LTP324	ltpFR2	6	n/a	n/a	n/a	6	17	8	7	2
1168.598	n/a	PROB	584299	n/a	LTP324	ltpFR2	6	n/a	n/a	n/a	6	19	9	8	2
1169.75	n/a	PROB	584875	n/a	LTP324	ltpFR2	6	n/a	n/a	n/a	6	20	9	3	8
1171.518	n/a	PROB	585759	n/a	LTP324	ltpFR2	6	n/a	n/a	n/a	6	15	3	7	5
1173.204	n/a	PROB	586602	n/a	LTP324	ltpFR2	6	n/a	n/a	n/a	6	17	9	1	7
1175.156	n/a	PROB	587578	n/a	LTP324	ltpFR2	6	n/a	n/a	n/a	6	16	5	2	9
1177.208	n/a	PROB	588604	n/a	LTP324	ltpFR2	6	n/a	n/a	n/a	6	4	2	1	1
1178.656	n/a	PROB	589328	n/a	LTP324	ltpFR2	6	n/a	n/a	n/a	6	14	1	5	8
1179.826	n/a	PROB	589913	n/a	LTP324	ltpFR2	6	n/a	n/a	n/a	6	19	9	2	8
1181.278	n/a	PROB	590639	n/a	LTP324	ltpFR2	6	n/a	n/a	n/a	6	12	2	2	8
1182.312	n/a	PROB	591156	n/a	LTP324	ltpFR2	6	n/a	n/a	n/a	6	12	5	6	1
1183.49	n/a	STOP	591745	n/a	LTP324	ltpFR2	6	n/a	n/a	n/a	6	n/a	n/a	n/a	n/a
1184.984	n/a	WORD	592492	wordpools/wasnorm_wordpool_576.txt	LTP324	ltpFR2	6	5	STAMP	1370	n/a	n/a	0	0	0
1187.518	n/a	WORD	593759	wordpools/wasnorm_wordpool_576.txt	LTP324	ltpFR2	6	5	FRAME	600	n/a	n/a	0	0	0
1190.236	n/a	WORD	595118	wordpools/wasnorm_wordpool_576.txt	LTP324	ltpFR2	6	5	HOUND	724	n/a	n/a	0	0	0
1193.04	n/a	WORD	596520	wordpools/wasnorm_wordpool_576.txt	LTP324	ltpFR2	6	5	GRIZZLY	662	n/a	n/a	0	0	0
1195.826	n/a	WORD	597913	wordpools/wasnorm_wordpool_576.txt	LTP324	ltpFR2	6	5	LION	827	n/a	n/a	0	0	0
1198.294	n/a	WORD	599147	wordpools/wasnorm_wordpool_576.txt	LTP324	ltpFR2	6	5	COCKTAIL	338	n/a	n/a	0	0	0
1200.864	n/a	WORD	600432	wordpools/wasnorm_wordpool_576.txt	LTP324	ltpFR2	6	5	COSTUME	383	n/a	n/a	0	0	0
1203.382	n/a	WORD	601691	wordpools/wasnorm_wordpool_576.txt	LTP324	ltpFR2	6	5	ROCKET	1202	n/a	n/a	0	0	0
1206.134	n/a	WORD	603067	wordpools/wasnorm_wordpool_576.txt	LTP324	ltpFR2	6	5	AIRPORT	13	n/a	n/a	0	0	0
1208.82	n/a	WORD	604410	wordpools/wasnorm_wordpool_576.txt	LTP324	ltpFR2	6	5	BINDER	127	n/a	n/a	0	0	0
1211.392	n/a	WORD	605696	wordpools/wasnorm_wordpool_576.txt	LTP324	ltpFR2	6	5	CAPTIVE	240	n/a	n/a	0	0	0
1214.108	n/a	WORD	607054	wordpools/wasnorm_wordpool_576.txt	LTP324	ltpFR2	6	5	SUSPECT	1415	n/a	n/a	0	0	0
1216.68	n/a	WORD	608340	wordpools/wasnorm_wordpool_576.txt	LTP324	ltpFR2	6	5	REBEL	1172	n/a	n/a	0	0	0
1219.13	n/a	WORD	609565	wordpools/wasnorm_wordpool_576.txt	LTP324	ltpFR2	6	5	PISTON	1076	n/a	n/a	0	0	0
1221.598	n/a	WORD	610799	wordpools/wasnorm_wordpool_576.txt	LTP324	ltpFR2	6	5	CHAUFFEUR	283	n/a	n/a	0	0	0
1224.4	n/a	WORD	612200	wordpools/wasnorm_wordpool_576.txt	LTP324	ltpFR2	6	5	EUROPE	541	n/a	n/a	0	0	0
1226.886	n/a	WORD	613443	wordpools/wasnorm_wordpool_576.txt	LTP324	ltpFR2	6	5	TRENCH	1503	n/a	n/a	0	0	0
1229.504	n/a	WORD	614752	wordpools/wasnorm_wordpool_576.txt	LTP324	ltpFR2	6	5	HAMPER	682	n/a	n/a	0	0	0
1232.006	n/a	WORD	616003	wordpools/wasnorm_wordpool_576.txt	LTP324	ltpFR2	6	5	PUPPY	1144	n/a	n/a	0	0	0
1234.476	n/a	WORD	617238	wordpools/wasnorm_wordpool_576.txt	LTP324	ltpFR2	6	5	PERMIT	1051	n/a	n/a	0	0	0
1237.128	n/a	WORD	618564	wordpools/wasnorm_wordpool_576.txt	LTP324	ltpFR2	6	5	QUEEN	1149	n/a	n/a	0	0	0
1239.746	n/a	WORD	619873	wordpools/wasnorm_wordpool_576.txt	LTP324	ltpFR2	6	5	STAPLE	1371	n/a	n/a	0	0	0
1242.5	n/a	WORD	621250	wordpools/wasnorm_wordpool_576.txt	LTP324	ltpFR2	6	5	STICKER	1382	n/a	n/a	0	0	0
1245.236	n/a	WORD	622618	wordpools/wasnorm_wordpool_576.txt	LTP324	ltpFR2	6	5	COMET	353	n/a	n/a	0	0	0
1246.854	n/a	START	623427	n/a	LTP324	ltpFR2	6	n/a	n/a	n/a	7	n/a	n/a	n/a	n/a
1247.852	n/a	DISTRACTOR	623926	n/a	LTP324	ltpFR2	6	5	n/a	n/a	n/a	n/a	0	0	0
1247.87	n/a	PROB	623935	n/a	LTP324	ltpFR2	6	n/a	n/a	n/a	7	16	9	5	2
1249.168	n/a	PROB	624584	n/a	LTP324	ltpFR2	6	n/a	n/a	n/a	7	15	6	7	2
1250.574	n/a	PROB	625287	n/a	LTP324	ltpFR2	6	n/a	n/a	n/a	7	12	3	6	3
1251.854	n/a	PROB	625927	n/a	LTP324	ltpFR2	6	n/a	n/a	n/a	7	16	6	5	5
1252.904	n/a	PROB	626452	n/a	LTP324	ltpFR2	6	n/a	n/a	n/a	7	4	2	1	1
1253.672	n/a	PROB	626836	n/a	LTP324	ltpFR2	6	n/a	n/a	n/a	7	19	2	9	8
1254.706	n/a	PROB	627353	n/a	LTP324	ltpFR2	6	n/a	n/a	n/a	7	3	8	4	1
1255.574	n/a	PROB	627787	n/a	LTP324	ltpFR2	6	n/a	n/a	n/a	7	15	4	2	9
1256.826	n/a	PROB	628413	n/a	LTP324	ltpFR2	6	n/a	n/a	n/a	7	10	5	1	4
1257.708	n/a	PROB	628854	n/a	LTP324	ltpFR2	6	n/a	n/a	n/a	7	24	7	9	8
1259.194	n/a	PROB	629597	n/a	LTP324	ltpFR2	6	n/a	n/a	n/a	7	18	9	8	1
1260.762	n/a	PROB	630381	n/a	LTP324	ltpFR2	6	n/a	n/a	n/a	7	22	8	7	7
1262.35	n/a	PROB	631175	n/a	LTP324	ltpFR2	6	n/a	n/a	n/a	7	19	4	6	9
1263.55	n/a	PROB	631775	n/a	LTP324	ltpFR2	6	n/a	n/a	n/a	7	1	1	5	6
1264.384	n/a	PROB	632192	n/a	LTP324	ltpFR2	6	n/a	n/a	n/a	7	23	9	5	9
1266.266	n/a	PROB	633133	n/a	LTP324	ltpFR2	6	n/a	n/a	n/a	7	14	5	2	7
1267.72	n/a	PROB	633860	n/a	LTP324	ltpFR2	6	n/a	n/a	n/a	7	11	1	4	6
1268.522	n/a	PROB	634261	n/a	LTP324	ltpFR2	6	n/a	n/a	n/a	7	26	9	7	9
1269.74	n/a	STOP	634870	n/a	LTP324	ltpFR2	6	n/a	n/a	n/a	7	n/a	n/a	n/a	n/a
1272.742	n/a	REC_START	636371	n/a	LTP324	ltpFR2	6	5	n/a	n/a	n/a	n/a	0	0	0
1276.472	n/a	REC_WORD	638236	wordpools/wasnorm_wordpool_576.txt	LTP324	ltpFR2	6	5	FRAME	600	n/a	n/a	0	0	0
1277.582	n/a	REC_WORD	638791	wordpools/wasnorm_wordpool_576.txt	LTP324	ltpFR2	6	5	STAMP	1370	n/a	n/a	0	0	0
1281.604	n/a	REC_WORD	640802	wordpools/wasnorm_wordpool_576.txt	LTP324	ltpFR2	6	5	DOG	480	n/a	n/a	0	0	0
1282.976	n/a	REC_WORD	641488	wordpools/wasnorm_wordpool_576.txt	LTP324	ltpFR2	6	5	GRIZZLY	662	n/a	n/a	0	0	0
1284.22	n/a	REC_WORD	642110	wordpools/wasnorm_wordpool_576.txt	LTP324	ltpFR2	6	5	LION	827	n/a	n/a	0	0	0
1286.62	n/a	REC_WORD	643310	wordpools/wasnorm_wordpool_576.txt	LTP324	ltpFR2	6	5	COCKTAIL	338	n/a	n/a	0	0	0
1287.38	n/a	REC_WORD	643690	wordpools/wasnorm_wordpool_576.txt	LTP324	ltpFR2	6	5	COSTUME	383	n/a	n/a	0	0	0
1288.5	n/a	REC_WORD	644250	wordpools/wasnorm_wordpool_576.txt	LTP324	ltpFR2	6	5	ROCKET	1202	n/a	n/a	0	0	0
1289.724	n/a	REC_WORD	644862	wordpools/wasnorm_wordpool_576.txt	LTP324	ltpFR2	6	5	AIRPORT	13	n/a	n/a	0	0	0
1291.856	n/a	REC_WORD	645928	wordpools/wasnorm_wordpool_576.txt	LTP324	ltpFR2	6	5	HAMPER	682	n/a	n/a	0	0	0
1292.57	n/a	REC_WORD	646285	wordpools/wasnorm_wordpool_576.txt	LTP324	ltpFR2	6	5	PUPPY	1144	n/a	n/a	0	0	0
1293.2	n/a	REC_WORD	646600	wordpools/wasnorm_wordpool_576.txt	LTP324	ltpFR2	6	5	PERMIT	1051	n/a	n/a	0	0	0
1293.752	n/a	REC_WORD	646876	wordpools/wasnorm_wordpool_576.txt	LTP324	ltpFR2	6	5	QUEEN	1149	n/a	n/a	0	0	0
1294.258	n/a	REC_WORD	647129	wordpools/wasnorm_wordpool_576.txt	LTP324	ltpFR2	6	5	STAPLE	1371	n/a	n/a	0	0	0
1298.738	n/a	REC_WORD	649369	wordpools/wasnorm_wordpool_576.txt	LTP324	ltpFR2	6	5	BINDER	127	n/a	n/a	0	0	0
1301.07	n/a	REC_WORD	650535	wordpools/wasnorm_wordpool_576.txt	LTP324	ltpFR2	6	5	VICTIM	1562	n/a	n/a	0	0	0
1306.006	n/a	REC_WORD	653003	wordpools/wasnorm_wordpool_576.txt	LTP324	ltpFR2	6	5	SUSPECT	1415	n/a	n/a	0	0	0
1306.75	n/a	REC_WORD	653375	wordpools/wasnorm_wordpool_576.txt	LTP324	ltpFR2	6	5	REBEL	1172	n/a	n/a	0	0	0
1310.148	n/a	REC_WORD	655074	wordpools/wasnorm_wordpool_576.txt	LTP324	ltpFR2	6	5	CAPTIVE	240	n/a	n/a	0	0	0
1311.57	n/a	REC_WORD	655785	wordpools/wasnorm_wordpool_576.txt	LTP324	ltpFR2	6	5	CHAUFFEUR	283	n/a	n/a	0	0	0
1318.072	n/a	REC_WORD	659036	wordpools/wasnorm_wordpool_576.txt	LTP324	ltpFR2	6	5	TRENCH	1503	n/a	n/a	0	0	0
1318.652	n/a	REC_WORD	659326	wordpools/wasnorm_wordpool_576.txt	LTP324	ltpFR2	6	5	EUROPE	541	n/a	n/a	0	0	0
1387.474	n/a	DISTRACTOR	693737	n/a	LTP324	ltpFR2	6	6	n/a	n/a	n/a	n/a	0	0	0
1387.476	n/a	START	693738	n/a	LTP324	ltpFR2	6	n/a	n/a	n/a	8	n/a	n/a	n/a	n/a
1387.488	n/a	PROB	693744	n/a	LTP324	ltpFR2	6	n/a	n/a	n/a	8	24	8	7	9
1388.754	n/a	PROB	694377	n/a	LTP324	ltpFR2	6	n/a	n/a	n/a	8	14	5	3	6
1390.04	n/a	PROB	695020	n/a	LTP324	ltpFR2	6	n/a	n/a	n/a	8	9	2	5	2
1390.974	n/a	PROB	695487	n/a	LTP324	ltpFR2	6	n/a	n/a	n/a	8	25	9	8	8
1392.342	n/a	PROB	696171	n/a	LTP324	ltpFR2	6	n/a	n/a	n/a	8	20	8	5	7
1394.964	n/a	PROB	697482	n/a	LTP324	ltpFR2	6	n/a	n/a	n/a	8	2	9	7	6
1397.348	n/a	PROB	698674	n/a	LTP324	ltpFR2	6	n/a	n/a	n/a	8	12	7	3	2
1398.514	n/a	PROB	699257	n/a	LTP324	ltpFR2	6	n/a	n/a	n/a	8	19	9	2	8
1400.08	n/a	PROB	700040	n/a	LTP324	ltpFR2	6	n/a	n/a	n/a	8	20	5	9	6
1401.882	n/a	PROB	700941	n/a	LTP324	ltpFR2	6	n/a	n/a	n/a	8	20	3	9	8
1403.134	n/a	PROB	701567	n/a	LTP324	ltpFR2	6	n/a	n/a	n/a	8	21	9	3	9
1404.818	n/a	PROB	702409	n/a	LTP324	ltpFR2	6	n/a	n/a	n/a	8	15	5	2	8
1406.604	n/a	PROB	703302	n/a	LTP324	ltpFR2	6	n/a	n/a	n/a	8	11	2	3	6
1408.038	n/a	PROB	704019	n/a	LTP324	ltpFR2	6	n/a	n/a	n/a	8	17	7	9	1
1409.64	n/a	PROB	704820	n/a	LTP324	ltpFR2	6	n/a	n/a	n/a	8	19	4	9	6
1410.92	n/a	STOP	705460	n/a	LTP324	ltpFR2	6	n/a	n/a	n/a	8	n/a	n/a	n/a	n/a
1412.428	n/a	WORD	706214	wordpools/wasnorm_wordpool_576.txt	LTP324	ltpFR2	6	6	CRITIC	410	n/a	n/a	0	0	0
1414.964	n/a	WORD	707482	wordpools/wasnorm_wordpool_576.txt	LTP324	ltpFR2	6	6	SIDEWALK	1303	n/a	n/a	0	0	0
1417.622	n/a	WORD	708811	wordpools/wasnorm_wordpool_576.txt	LTP324	ltpFR2	6	6	PUDDLE	1140	n/a	n/a	0	0	0
1420.092	n/a	WORD	710046	wordpools/wasnorm_wordpool_576.txt	LTP324	ltpFR2	6	6	PAPER	1011	n/a	n/a	0	0	0
1422.736	n/a	WORD	711368	wordpools/wasnorm_wordpool_576.txt	LTP324	ltpFR2	6	6	LONDON	843	n/a	n/a	0	0	0
1425.34	n/a	WORD	712670	wordpools/wasnorm_wordpool_576.txt	LTP324	ltpFR2	6	6	FRANCE	601	n/a	n/a	0	0	0
1428.008	n/a	WORD	714004	wordpools/wasnorm_wordpool_576.txt	LTP324	ltpFR2	6	6	SERVER	1272	n/a	n/a	0	0	0
1430.578	n/a	WORD	715289	wordpools/wasnorm_wordpool_576.txt	LTP324	ltpFR2	6	6	PATROL	1027	n/a	n/a	0	0	0
1433.3	n/a	WORD	716650	wordpools/wasnorm_wordpool_576.txt	LTP324	ltpFR2	6	6	RATTLE	1170	n/a	n/a	0	0	0
1435.882	n/a	WORD	717941	wordpools/wasnorm_wordpool_576.txt	LTP324	ltpFR2	6	6	TRANSPLANT	1496	n/a	n/a	0	0	0
1438.55	n/a	WORD	719275	wordpools/wasnorm_wordpool_576.txt	LTP324	ltpFR2	6	6	STAKE	1368	n/a	n/a	0	0	0
1441.108	n/a	WORD	720554	wordpools/wasnorm_wordpool_576.txt	LTP324	ltpFR2	6	6	RIFLE	1192	n/a	n/a	0	0	0
1443.624	n/a	WORD	721812	wordpools/wasnorm_wordpool_576.txt	LTP324	ltpFR2	6	6	PERFUME	1049	n/a	n/a	0	0	0
1446.442	n/a	WORD	723221	wordpools/wasnorm_wordpool_576.txt	LTP324	ltpFR2	6	6	ROD	1203	n/a	n/a	0	0	0
1449.214	n/a	WORD	724607	wordpools/wasnorm_wordpool_576.txt	LTP324	ltpFR2	6	6	PICNIC	1060	n/a	n/a	0	0	0
1451.762	n/a	WORD	725881	wordpools/wasnorm_wordpool_576.txt	LTP324	ltpFR2	6	6	CANYON	235	n/a	n/a	0	0	0
1454.25	n/a	WORD	727125	wordpools/wasnorm_wordpool_576.txt	LTP324	ltpFR2	6	6	FIREPLACE	570	n/a	n/a	0	0	0
1456.934	n/a	WORD	728467	wordpools/wasnorm_wordpool_576.txt	LTP324	ltpFR2	6	6	MESSAGE	888	n/a	n/a	0	0	0
1459.704	n/a	WORD	729852	wordpools/wasnorm_wordpool_576.txt	LTP324	ltpFR2	6	6	MAILBOX	857	n/a	n/a	0	0	0
1462.456	n/a	WORD	731228	wordpools/wasnorm_wordpool_576.txt	LTP324	ltpFR2	6	6	CASHEW	253	n/a	n/a	0	0	0
1464.974	n/a	WORD	732487	wordpools/wasnorm_wordpool_576.txt	LTP324	ltpFR2	6	6	REPORT	1184	n/a	n/a	0	0	0
1467.51	n/a	WORD	733755	wordpools/wasnorm_wordpool_576.txt	LTP324	ltpFR2	6	6	ASIA	46	n/a	n/a	0	0	0
1470.262	n/a	WORD	735131	wordpools/wasnorm_wordpool_576.txt	LTP324	ltpFR2	6	6	GLOBE	641	n/a	n/a	0	0	0
1472.848	n/a	WORD	736424	wordpools/wasnorm_wordpool_576.txt	LTP324	ltpFR2	6	6	COUNTY	389	n/a	n/a	0	0	0
1474.466	n/a	START	737233	n/a	LTP324	ltpFR2	6	n/a	n/a	n/a	9	n/a	n/a	n/a	n/a
1475.61	n/a	DISTRACTOR	737805	n/a	LTP324	ltpFR2	6	6	n/a	n/a	n/a	n/a	0	0	0
1475.616	n/a	PROB	737808	n/a	LTP324	ltpFR2	6	n/a	n/a	n/a	9	15	8	1	6
1476.516	n/a	PROB	738258	n/a	LTP324	ltpFR2	6	n/a	n/a	n/a	9	20	6	8	6
1477.634	n/a	PROB	738817	n/a	LTP324	ltpFR2	6	n/a	n/a	n/a	9	20	6	5	9
1479.918	n/a	PROB	739959	n/a	LTP324	ltpFR2	6	n/a	n/a	n/a	9	11	5	2	4
1481.386	n/a	PROB	740693	n/a	LTP324	ltpFR2	6	n/a	n/a	n/a	9	23	9	8	6
1484.02	n/a	PROB	742010	n/a	LTP324	ltpFR2	6	n/a	n/a	n/a	9	15	7	5	3
1485.392	n/a	PROB	742696	n/a	LTP324	ltpFR2	6	n/a	n/a	n/a	9	19	9	9	1
1486.974	n/a	PROB	743487	n/a	LTP324	ltpFR2	6	n/a	n/a	n/a	9	15	6	8	1
1488.174	n/a	PROB	744087	n/a	LTP324	ltpFR2	6	n/a	n/a	n/a	9	17	4	4	9
1489.392	n/a	PROB	744696	n/a	LTP324	ltpFR2	6	n/a	n/a	n/a	9	6	4	1	1
1490.526	n/a	PROB	745263	n/a	LTP324	ltpFR2	6	n/a	n/a	n/a	9	18	8	8	2
1491.53	n/a	PROB	745765	n/a	LTP324	ltpFR2	6	n/a	n/a	n/a	9	16	7	8	1
1492.828	n/a	PROB	746414	n/a	LTP324	ltpFR2	6	n/a	n/a	n/a	9	15	5	3	7
1494.416	n/a	PROB	747208	n/a	LTP324	ltpFR2	6	n/a	n/a	n/a	9	13	9	1	3
1495.696	n/a	PROB	747848	n/a	LTP324	ltpFR2	6	n/a	n/a	n/a	9	23	6	8	9
1497.178	n/a	STOP	748589	n/a	LTP324	ltpFR2	6	n/a	n/a	n/a	9	n/a	n/a	n/a	n/a
1500.384	n/a	REC_START	750192	n/a	LTP324	ltpFR2	6	6	n/a	n/a	n/a	n/a	0	0	0
1503.11	n/a	REC_WORD	751555	wordpools/wasnorm_wordpool_576.txt	LTP324	ltpFR2	6	6	COUNTY	389	n/a	n/a	0	0	0
1504.056	n/a	REC_WORD	752028	wordpools/wasnorm_wordpool_576.txt	LTP324	ltpFR2	6	6	MESSAGE	888	n/a	n/a	0	0	0
1504.79	n/a	REC_WORD	752395	wordpools/wasnorm_wordpool_576.txt	LTP324	ltpFR2	6	6	REPORT	1184	n/a	n/a	0	0	0
1506.204	n/a	REC_WORD	753102	wordpools/wasnorm_wordpool_576.txt	LTP324	ltpFR2	6	6	MAILBOX	857	n/a	n/a	0	0	0
1507.158	n/a	REC_WORD	753579	wordpools/wasnorm_wordpool_576.txt	LTP324	ltpFR2	6	6	CASHEW	253	n/a	n/a	0	0	0
1508.002	n/a	REC_WORD	754001	wordpools/wasnorm_wordpool_576.txt	LTP324	ltpFR2	6	6	ASIA	46	n/a	n/a	0	0	0
1508.844	n/a	REC_WORD	754422	wordpools/wasnorm_wordpool_576.txt	LTP324	ltpFR2	6	6	GLOBE	641	n/a	n/a	0	0	0
1513.438	n/a	REC_WORD	756719	wordpools/wasnorm_wordpool_576.txt	LTP324	ltpFR2	6	6	CANYON	235	n/a	n/a	0	0	0
1514.144	n/a	REC_WORD	757072	wordpools/wasnorm_wordpool_576.txt	LTP324	ltpFR2	6	6	FIREPLACE	570	n/a	n/a	0	0	0
1515.144	n/a	REC_WORD_VV	757572	wordpools/wasnorm_wordpool_576.txt	LTP324	ltpFR2	6	6	<>	-1	n/a	n/a	0	0	0
1518.94	n/a	REC_WORD	759470	wordpools/wasnorm_wordpool_576.txt	LTP324	ltpFR2	6	6	PICNIC	1060	n/a	n/a	0	0	0
1521.072	n/a	REC_WORD	760536	wordpools/wasnorm_wordpool_576.txt	LTP324	ltpFR2	6	6	WAITER	1580	n/a	n/a	0	0	0
1524.762	n/a	REC_WORD	762381	wordpools/wasnorm_wordpool_576.txt	LTP324	ltpFR2	6	6	PATROL	1027	n/a	n/a	0	0	0
1526.248	n/a	REC_WORD	763124	wordpools/wasnorm_wordpool_576.txt	LTP324	ltpFR2	6	6	STAKE	1368	n/a	n/a	0	0	0
1527.112	n/a	REC_WORD	763556	wordpools/wasnorm_wordpool_576.txt	LTP324	ltpFR2	6	6	ROD	1203	n/a	n/a	0	0	0
1528.614	n/a	REC_WORD	764307	wordpools/wasnorm_wordpool_576.txt	LTP324	ltpFR2	6	6	PERFUME	1049	n/a	n/a	0	0	0
1529.364	n/a	REC_WORD	764682	wordpools/wasnorm_wordpool_576.txt	LTP324	ltpFR2	6	6	RIFLE	1192	n/a	n/a	0	0	0
1532.844	n/a	REC_WORD	766422	wordpools/wasnorm_wordpool_576.txt	LTP324	ltpFR2	6	6	CRITIC	410	n/a	n/a	0	0	0
1533.966	n/a	REC_WORD	766983	wordpools/wasnorm_wordpool_576.txt	LTP324	ltpFR2	6	6	PAPER	1011	n/a	n/a	0	0	0
1535.052	n/a	REC_WORD	767526	wordpools/wasnorm_wordpool_576.txt	LTP324	ltpFR2	6	6	PUDDLE	1140	n/a	n/a	0	0	0
1536.376	n/a	REC_WORD	768188	wordpools/wasnorm_wordpool_576.txt	LTP324	ltpFR2	6	6	SIDEWALK	1303	n/a	n/a	0	0	0
1537.81	n/a	REC_WORD	768905	wordpools/wasnorm_wordpool_576.txt	LTP324	ltpFR2	6	6	LONDON	843	n/a	n/a	0	0	0
1538.438	n/a	REC_WORD	769219	wordpools/wasnorm_wordpool_576.txt	LTP324	ltpFR2	6	6	FRANCE	601	n/a	n/a	0	0	0
1541.702	n/a	REC_WORD	770851	wordpools/wasnorm_wordpool_576.txt	LTP324	ltpFR2	6	6	RATTLE	1170	n/a	n/a	0	0	0
1542.568	n/a	REC_WORD	771284	wordpools/wasnorm_wordpool_576.txt	LTP324	ltpFR2	6	6	TRANSPLANT	1496	n/a	n/a	0	0	0
1620.166	n/a	DISTRACTOR	810083	n/a	LTP324	ltpFR2	6	7	n/a	n/a	n/a	n/a	0	0	0
1620.168	n/a	START	810084	n/a	LTP324	ltpFR2	6	n/a	n/a	n/a	10	n/a	n/a	n/a	n/a
1620.18	n/a	PROB	810090	n/a	LTP324	ltpFR2	6	n/a	n/a	n/a	10	16	2	7	7
1622.342	n/a	PROB	811171	n/a	LTP324	ltpFR2	6	n/a	n/a	n/a	10	19	5	5	9
1623.208	n/a	PROB	811604	n/a	LTP324	ltpFR2	6	n/a	n/a	n/a	10	8	4	2	2
1624.092	n/a	PROB	812046	n/a	LTP324	ltpFR2	6	n/a	n/a	n/a	10	13	9	3	1
1625.242	n/a	PROB	812621	n/a	LTP324	ltpFR2	6	n/a	n/a	n/a	10	16	4	5	7
1626.544	n/a	PROB	813272	n/a	LTP324	ltpFR2	6	n/a	n/a	n/a	10	223	9	8	6
1628.062	n/a	PROB	814031	n/a	LTP324	ltpFR2	6	n/a	n/a	n/a	10	13	1	6	6
1629.43	n/a	PROB	814715	n/a	LTP324	ltpFR2	6	n/a	n/a	n/a	10	25	9	8	8
1632.384	n/a	PROB	816192	n/a	LTP324	ltpFR2	6	n/a	n/a	n/a	10	19	7	8	4
1634.032	n/a	PROB	817016	n/a	LTP324	ltpFR2	6	n/a	n/a	n/a	10	12	3	8	1
1635.068	n/a	PROB	817534	n/a	LTP324	ltpFR2	6	n/a	n/a	n/a	10	1	8	9	2
1636.386	n/a	PROB	818193	n/a	LTP324	ltpFR2	6	n/a	n/a	n/a	10	12	2	5	5
1637.538	n/a	PROB	818769	n/a	LTP324	ltpFR2	6	n/a	n/a	n/a	10	14	1	7	6
1638.572	n/a	PROB	819286	n/a	LTP324	ltpFR2	6	n/a	n/a	n/a	10	13	7	5	1
1640.088	n/a	PROB	820044	n/a	LTP324	ltpFR2	6	n/a	n/a	n/a	10	19	7	9	3
1641.958	n/a	PROB	820979	n/a	LTP324	ltpFR2	6	n/a	n/a	n/a	10	16	3	8	5
1643.16	n/a	STOP	821580	n/a	LTP324	ltpFR2	6	n/a	n/a	n/a	10	n/a	n/a	n/a	n/a
1645.012	n/a	WORD	822506	wordpools/wasnorm_wordpool_576.txt	LTP324	ltpFR2	6	7	POWDER	1117	n/a	n/a	0	0	0
1647.646	n/a	WORD	823823	wordpools/wasnorm_wordpool_576.txt	LTP324	ltpFR2	6	7	INMATE	738	n/a	n/a	0	0	0
1650.324	n/a	WORD	825162	wordpools/wasnorm_wordpool_576.txt	LTP324	ltpFR2	6	7	OUTLAW	989	n/a	n/a	0	0	0
1652.842	n/a	WORD	826421	wordpools/wasnorm_wordpool_576.txt	LTP324	ltpFR2	6	7	RECEIPT	1173	n/a	n/a	0	0	0
1655.522	n/a	WORD	827761	wordpools/wasnorm_wordpool_576.txt	LTP324	ltpFR2	6	7	LIVER	833	n/a	n/a	0	0	0
1658.024	n/a	WORD	829012	wordpools/wasnorm_wordpool_576.txt	LTP324	ltpFR2	6	7	LADDER	793	n/a	n/a	0	0	0
1660.514	n/a	WORD	830257	wordpools/wasnorm_wordpool_576.txt	LTP324	ltpFR2	6	7	FLUTE	585	n/a	n/a	0	0	0
1663.2	n/a	WORD	831600	wordpools/wasnorm_wordpool_576.txt	LTP324	ltpFR2	6	7	UNCLE	1536	n/a	n/a	0	0	0
1665.814	n/a	WORD	832907	wordpools/wasnorm_wordpool_576.txt	LTP324	ltpFR2	6	7	GALLON	618	n/a	n/a	0	0	0
1668.432	n/a	WORD	834216	wordpools/wasnorm_wordpool_576.txt	LTP324	ltpFR2	6	7	BABY	64	n/a	n/a	0	0	0
1670.906	n/a	WORD	835453	wordpools/wasnorm_wordpool_576.txt	LTP324	ltpFR2	6	7	GAZELLE	628	n/a	n/a	0	0	0
1673.64	n/a	WORD	836820	wordpools/wasnorm_wordpool_576.txt	LTP324	ltpFR2	6	7	TURTLE	1522	n/a	n/a	0	0	0
1676.156	n/a	WORD	838078	wordpools/wasnorm_wordpool_576.txt	LTP324	ltpFR2	6	7	CRIB	407	n/a	n/a	0	0	0
1678.826	n/a	WORD	839413	wordpools/wasnorm_wordpool_576.txt	LTP324	ltpFR2	6	7	CRATER	400	n/a	n/a	0	0	0
1681.628	n/a	WORD	840814	wordpools/wasnorm_wordpool_576.txt	LTP324	ltpFR2	6	7	CLAM	315	n/a	n/a	0	0	0
1684.234	n/a	WORD	842117	wordpools/wasnorm_wordpool_576.txt	LTP324	ltpFR2	6	7	PARTNER	1017	n/a	n/a	0	0	0
1686.682	n/a	WORD	843341	wordpools/wasnorm_wordpool_576.txt	LTP324	ltpFR2	6	7	LOVER	846	n/a	n/a	0	0	0
1689.35	n/a	WORD	844675	wordpools/wasnorm_wordpool_576.txt	LTP324	ltpFR2	6	7	COCOON	339	n/a	n/a	0	0	0
1691.92	n/a	WORD	845960	wordpools/wasnorm_wordpool_576.txt	LTP324	ltpFR2	6	7	ZIPPER	1636	n/a	n/a	0	0	0
1694.388	n/a	WORD	847194	wordpools/wasnorm_wordpool_576.txt	LTP324	ltpFR2	6	7	CORAL	378	n/a	n/a	0	0	0
1697.142	n/a	WORD	848571	wordpools/wasnorm_wordpool_576.txt	LTP324	ltpFR2	6	7	DIME	466	n/a	n/a	0	0	0
1699.762	n/a	WORD	849881	wordpools/wasnorm_wordpool_576.txt	LTP324	ltpFR2	6	7	LOFT	840	n/a	n/a	0	0	0
1702.228	n/a	WORD	851114	wordpools/wasnorm_wordpool_576.txt	LTP324	ltpFR2	6	7	TAXI	1438	n/a	n/a	0	0	0
1704.98	n/a	WORD	852490	wordpools/wasnorm_wordpool_576.txt	LTP324	ltpFR2	6	7	BIKE	125	n/a	n/a	0	0	0
1706.6	n/a	START	853300	n/a	LTP324	ltpFR2	6	n/a	n/a	n/a	11	n/a	n/a	n/a	n/a
1707.62	n/a	DISTRACTOR	853810	n/a	LTP324	ltpFR2	6	7	n/a	n/a	n/a	n/a	0	0	0
1707.632	n/a	PROB	853816	n/a	LTP324	ltpFR2	6	n/a	n/a	n/a	11	7	4	1	2
1708.998	n/a	PROB	854499	n/a	LTP324	ltpFR2	6	n/a	n/a	n/a	11	14	6	3	5
1710.15	n/a	PROB	855075	n/a	LTP324	ltpFR2	6	n/a	n/a	n/a	11	15	4	5	6
1711.12	n/a	PROB	855560	n/a	LTP324	ltpFR2	6	n/a	n/a	n/a	11	16	7	7	2
1712.034	n/a	PROB	856017	n/a	LTP324	ltpFR2	6	n/a	n/a	n/a	11	16	1	8	7
1712.918	n/a	PROB	856459	n/a	LTP324	ltpFR2	6	n/a	n/a	n/a	11	12	5	4	3
1713.968	n/a	PROB	856984	n/a	LTP324	ltpFR2	6	n/a	n/a	n/a	11	10	2	4	4
1715.354	n/a	PROB	857677	n/a	LTP324	ltpFR2	6	n/a	n/a	n/a	11	15	6	7	2
1716.288	n/a	PROB	858144	n/a	LTP324	ltpFR2	6	n/a	n/a	n/a	11	8	3	4	1
1717.572	n/a	PROB	858786	n/a	LTP324	ltpFR2	6	n/a	n/a	n/a	11	13	1	7	5
1718.41	n/a	PROB	859205	n/a	LTP324	ltpFR2	6	n/a	n/a	n/a	11	7	1	3	3
1719.34	n/a	PROB	859670	n/a	LTP324	ltpFR2	6	n/a	n/a	n/a	11	14	6	1	7
1720.358	n/a	PROB	860179	n/a	LTP324	ltpFR2	6	n/a	n/a	n/a	11	9	1	6	2
1721.61	n/a	PROB	860805	n/a	LTP324	ltpFR2	6	n/a	n/a	n/a	11	20	4	8	4
1722.726	n/a	PROB	861363	n/a	LTP324	ltpFR2	6	n/a	n/a	n/a	11	12	5	1	6
1723.912	n/a	PROB	861956	n/a	LTP324	ltpFR2	6	n/a	n/a	n/a	11	11	5	5	1
1725.146	n/a	PROB	862573	n/a	LTP324	ltpFR2	6	n/a	n/a	n/a	11	15	7	7	1
1726.096	n/a	PROB	863048	n/a	LTP324	ltpFR2	6	n/a	n/a	n/a	11	15	4	5	6
1727.098	n/a	PROB	863549	n/a	LTP324	ltpFR2	6	n/a	n/a	n/a	11	12	3	1	8
1728.064	n/a	PROB	864032	n/a	LTP324	ltpFR2	6	n/a	n/a	n/a	11	14	9	1	4
1729.29	n/a	STOP	864645	n/a	LTP324	ltpFR2	6	n/a	n/a	n/a	11	n/a	n/a	n/a	n/a
1732.404	n/a	REC_START	866202	n/a	LTP324	ltpFR2	6	7	n/a	n/a	n/a	n/a	0	0	0
1733.568	n/a	REC_WORD	866784	wordpools/wasnorm_wordpool_576.txt	LTP324	ltpFR2	6	7	CORAL	378	n/a	n/a	0	0	0
1734.528	n/a	REC_WORD	867264	wordpools/wasnorm_wordpool_576.txt	LTP324	ltpFR2	6	7	LOFT	840	n/a	n/a	0	0	0
1736.338	n/a	REC_WORD	868169	wordpools/wasnorm_wordpool_576.txt	LTP324	ltpFR2	6	7	DIME	466	n/a	n/a	0	0	0
1737.3	n/a	REC_WORD	868650	wordpools/wasnorm_wordpool_576.txt	LTP324	ltpFR2	6	7	TAXI	1438	n/a	n/a	0	0	0
1738.65	n/a	REC_WORD	869325	wordpools/wasnorm_wordpool_576.txt	LTP324	ltpFR2	6	7	BIKE	125	n/a	n/a	0	0	0
1744.004	n/a	REC_WORD	872002	wordpools/wasnorm_wordpool_576.txt	LTP324	ltpFR2	6	7	TURTLE	1522	n/a	n/a	0	0	0
1744.606	n/a	REC_WORD	872303	wordpools/wasnorm_wordpool_576.txt	LTP324	ltpFR2	6	7	GAZELLE	628	n/a	n/a	0	0	0
1746.902	n/a	REC_WORD	873451	wordpools/wasnorm_wordpool_576.txt	LTP324	ltpFR2	6	7	GALLON	618	n/a	n/a	0	0	0
1747.602	n/a	REC_WORD	873801	wordpools/wasnorm_wordpool_576.txt	LTP324	ltpFR2	6	7	CRIB	407	n/a	n/a	0	0	0
1748.422	n/a	REC_WORD	874211	wordpools/wasnorm_wordpool_576.txt	LTP324	ltpFR2	6	7	BABY	64	n/a	n/a	0	0	0
1749.498	n/a	REC_WORD	874749	wordpools/wasnorm_wordpool_576.txt	LTP324	ltpFR2	6	7	COCOON	339	n/a	n/a	0	0	0
1750.166	n/a	REC_WORD	875083	wordpools/wasnorm_wordpool_576.txt	LTP324	ltpFR2	6	7	PARTNER	1017	n/a	n/a	0	0	0
1750.75	n/a	REC_WORD	875375	wordpools/wasnorm_wordpool_576.txt	LTP324	ltpFR2	6	7	LOVER	846	n/a	n/a	0	0	0
1759.79	n/a	REC_WORD	879895	wordpools/wasnorm_wordpool_576.txt	LTP324	ltpFR2	6	7	COIN	343	n/a	n/a	0	0	0
1767.966	n/a	REC_WORD	883983	wordpools/wasnorm_wordpool_576.txt	LTP324	ltpFR2	6	7	ZIPPER	1636	n/a	n/a	0	0	0
1776.85	n/a	REC_WORD	888425	wordpools/wasnorm_wordpool_576.txt	LTP324	ltpFR2	6	7	POWDER	1117	n/a	n/a	0	0	0
1778.622	n/a	REC_WORD	889311	wordpools/wasnorm_wordpool_576.txt	LTP324	ltpFR2	6	7	INMATE	738	n/a	n/a	0	0	0
1782.43	n/a	REC_WORD	891215	wordpools/wasnorm_wordpool_576.txt	LTP324	ltpFR2	6	7	CONVICT	371	n/a	n/a	0	0	0
1786.772	n/a	REC_WORD	893386	wordpools/wasnorm_wordpool_576.txt	LTP324	ltpFR2	6	7	RECEIPT	1173	n/a	n/a	0	0	0
1788.074	n/a	REC_WORD	894037	wordpools/wasnorm_wordpool_576.txt	LTP324	ltpFR2	6	7	LIVER	833	n/a	n/a	0	0	0
1789.004	n/a	REC_WORD	894502	wordpools/wasnorm_wordpool_576.txt	LTP324	ltpFR2	6	7	LADDER	793	n/a	n/a	0	0	0
1789.84	n/a	REC_WORD	894920	wordpools/wasnorm_wordpool_576.txt	LTP324	ltpFR2	6	7	FLUTE	585	n/a	n/a	0	0	0
1791.128	n/a	REC_WORD	895564	wordpools/wasnorm_wordpool_576.txt	LTP324	ltpFR2	6	7	UNCLE	1536	n/a	n/a	0	0	0
1858.292	n/a	WORD	929146	wordpools/wasnorm_wordpool_576.txt	LTP324	ltpFR2	6	8	CRAYON	401	n/a	n/a	0	0	0
1861.09	n/a	WORD	930545	wordpools/wasnorm_wordpool_576.txt	LTP324	ltpFR2	6	8	POSSUM	1112	n/a	n/a	0	0	0
1863.9	n/a	WORD	931950	wordpools/wasnorm_wordpool_576.txt	LTP324	ltpFR2	6	8	BEAVER	109	n/a	n/a	0	0	0
1866.668	n/a	WORD	933334	wordpools/wasnorm_wordpool_576.txt	LTP324	ltpFR2	6	8	RAFT	1159	n/a	n/a	0	0	0
1869.138	n/a	WORD	934569	wordpools/wasnorm_wordpool_576.txt	LTP324	ltpFR2	6	8	SPONGE	1355	n/a	n/a	0	0	0
1871.732	n/a	WORD	935866	wordpools/wasnorm_wordpool_576.txt	LTP324	ltpFR2	6	8	GIRL	637	n/a	n/a	0	0	0
1874.46	n/a	WORD	937230	wordpools/wasnorm_wordpool_576.txt	LTP324	ltpFR2	6	8	COOK	372	n/a	n/a	0	0	0
1877.154	n/a	WORD	938577	wordpools/wasnorm_wordpool_576.txt	LTP324	ltpFR2	6	8	DOUGHNUT	490	n/a	n/a	0	0	0
1879.822	n/a	WORD	939911	wordpools/wasnorm_wordpool_576.txt	LTP324	ltpFR2	6	8	MAMMAL	861	n/a	n/a	0	0	0
1882.268	n/a	WORD	941134	wordpools/wasnorm_wordpool_576.txt	LTP324	ltpFR2	6	8	ROOSTER	1209	n/a	n/a	0	0	0
1884.702	n/a	WORD	942351	wordpools/wasnorm_wordpool_576.txt	LTP324	ltpFR2	6	8	FLIPPER	580	n/a	n/a	0	0	0
1887.494	n/a	WORD	943747	wordpools/wasnorm_wordpool_576.txt	LTP324	ltpFR2	6	8	PRINCESS	1125	n/a	n/a	0	0	0
1890.274	n/a	WORD	945137	wordpools/wasnorm_wordpool_576.txt	LTP324	ltpFR2	6	8	ANKLE	24	n/a	n/a	0	0	0
1892.776	n/a	WORD	946388	wordpools/wasnorm_wordpool_576.txt	LTP324	ltpFR2	6	8	BUTCHER	203	n/a	n/a	0	0	0
1895.45	n/a	WORD	947725	wordpools/wasnorm_wordpool_576.txt	LTP324	ltpFR2	6	8	CROWN	415	n/a	n/a	0	0	0
1898.114	n/a	WORD	949057	wordpools/wasnorm_wordpool_576.txt	LTP324	ltpFR2	6	8	THRONE	1461	n/a	n/a	0	0	0
1900.688	n/a	WORD	950344	wordpools/wasnorm_wordpool_576.txt	LTP324	ltpFR2	6	8	SLIME	1327	n/a	n/a	0	0	0
1903.374	n/a	WORD	951687	wordpools/wasnorm_wordpool_576.txt	LTP324	ltpFR2	6	8	GOBLIN	645	n/a	n/a	0	0	0
1906.02	n/a	WORD	953010	wordpools/wasnorm_wordpool_576.txt	LTP324	ltpFR2	6	8	EXPERT	543	n/a	n/a	0	0	0
1908.528	n/a	WORD	954264	wordpools/wasnorm_wordpool_576.txt	LTP324	ltpFR2	6	8	BARREL	91	n/a	n/a	0	0	0
1911.03	n/a	WORD	955515	wordpools/wasnorm_wordpool_576.txt	LTP324	ltpFR2	6	8	GRAPE	654	n/a	n/a	0	0	0
1913.66	n/a	WORD	956830	wordpools/wasnorm_wordpool_576.txt	LTP324	ltpFR2	6	8	SCISSORS	1250	n/a	n/a	0	0	0
1916.452	n/a	WORD	958226	wordpools/wasnorm_wordpool_576.txt	LTP324	ltpFR2	6	8	CABIN	211	n/a	n/a	0	0	0
1918.936	n/a	WORD	959468	wordpools/wasnorm_wordpool_576.txt	LTP324	ltpFR2	6	8	MARKER	870	n/a	n/a	0	0	0
1920.552	n/a	START	960276	n/a	LTP324	ltpFR2	6	n/a	n/a	n/a	12	n/a	n/a	n/a	n/a
1921.712	n/a	DISTRACTOR	960856	n/a	LTP324	ltpFR2	6	8	n/a	n/a	n/a	n/a	0	0	0
1921.722	n/a	PROB	960861	n/a	LTP324	ltpFR2	6	n/a	n/a	n/a	12	6	2	3	1
1922.598	n/a	PROB	961299	n/a	LTP324	ltpFR2	6	n/a	n/a	n/a	12	16	8	6	2
1923.482	n/a	PROB	961741	n/a	LTP324	ltpFR2	6	n/a	n/a	n/a	12	13	4	4	5
1924.666	n/a	PROB	962333	n/a	LTP324	ltpFR2	6	n/a	n/a	n/a	12	19	1	9	9
1925.834	n/a	PROB	962917	n/a	LTP324	ltpFR2	6	n/a	n/a	n/a	12	1	5	1	6
1926.634	n/a	PROB	963317	n/a	LTP324	ltpFR2	6	n/a	n/a	n/a	12	27	9	9	9
1927.636	n/a	PROB	963818	n/a	LTP324	ltpFR2	6	n/a	n/a	n/a	12	21	9	3	9
1929.288	n/a	PROB	964644	n/a	LTP324	ltpFR2	6	n/a	n/a	n/a	12	8	6	1	1
1930.138	n/a	PROB	965069	n/a	LTP324	ltpFR2	6	n/a	n/a	n/a	12	7	1	4	2
1931.272	n/a	PROB	965636	n/a	LTP324	ltpFR2	6	n/a	n/a	n/a	12	21	9	4	8
1933.958	n/a	PROB	966979	n/a	LTP324	ltpFR2	6	n/a	n/a	n/a	12	23	7	8	8
1935.542	n/a	PROB	967771	n/a	LTP324	ltpFR2	6	n/a	n/a	n/a	12	11	7	2	2
1936.778	n/a	PROB	968389	n/a	LTP324	ltpFR2	6	n/a	n/a	n/a	12	8	3	4	1
1937.744	n/a	PROB	968872	n/a	LTP324	ltpFR2	6	n/a	n/a	n/a	12	17	9	5	3
1939.378	n/a	PROB	969689	n/a	LTP324	ltpFR2	6	n/a	n/a	n/a	12	14	7	5	2
1940.98	n/a	PROB	970490	n/a	LTP324	ltpFR2	6	n/a	n/a	n/a	12	5	1	3	1
1942.014	n/a	PROB	971007	n/a	LTP324	ltpFR2	6	n/a	n/a	n/a	12	14	9	3	3
1943.288	n/a	STOP	971644	n/a	LTP324	ltpFR2	6	n/a	n/a	n/a	12	n/a	n/a	n/a	n/a
1946.336	n/a	REC_START	973168	n/a	LTP324	ltpFR2	6	8	n/a	n/a	n/a	n/a	0	0	0
1947.784	n/a	REC_WORD	973892	wordpools/wasnorm_wordpool_576.txt	LTP324	ltpFR2	6	8	BARREL	91	n/a	n/a	0	0	0
1950.228	n/a	REC_WORD	975114	wordpools/wasnorm_wordpool_576.txt	LTP324	ltpFR2	6	8	GOBLIN	645	n/a	n/a	0	0	0
1950.876	n/a	REC_WORD	975438	wordpools/wasnorm_wordpool_576.txt	LTP324	ltpFR2	6	8	EXPERT	543	n/a	n/a	0	0	0
1951.876	n/a	REC_WORD_VV	975938	wordpools/wasnorm_wordpool_576.txt	LTP324	ltpFR2	6	8	<>	-1	n/a	n/a	0	0	0
1952.574	n/a	REC_WORD	976287	wordpools/wasnorm_wordpool_576.txt	LTP324	ltpFR2	6	8	PRINCESS	1125	n/a	n/a	0	0	0
1953.564	n/a	REC_WORD	976782	wordpools/wasnorm_wordpool_576.txt	LTP324	ltpFR2	6	8	CROWN	415	n/a	n/a	0	0	0
1954.274	n/a	REC_WORD	977137	wordpools/wasnorm_wordpool_576.txt	LTP324	ltpFR2	6	8	THRONE	1461	n/a	n/a	0	0	0
1954.932	n/a	REC_WORD	977466	wordpools/wasnorm_wordpool_576.txt	LTP324	ltpFR2	6	8	BUTCHER	203	n/a	n/a	0	0	0
1956.98	n/a	REC_WORD	978490	wordpools/wasnorm_wordpool_576.txt	LTP324	ltpFR2	6	8	ROOSTER	1209	n/a	n/a	0	0	0
1957.98	n/a	REC_WORD_VV	978990	wordpools/wasnorm_wordpool_576.txt	LTP324	ltpFR2	6	8	<>	-1	n/a	n/a	0	0	0
1958.502	n/a	REC_WORD	979251	wordpools/wasnorm_wordpool_576.txt	LTP324	ltpFR2	6	8	FLIPPER	580	n/a	n/a	0	0	0
1959.978	n/a	REC_WORD	979989	wordpools/wasnorm_wordpool_576.txt	LTP324	ltpFR2	6	8	DOUGHNUT	490	n/a	n/a	0	0	0
1960.654	n/a	REC_WORD	980327	wordpools/wasnorm_wordpool_576.txt	LTP324	ltpFR2	6	8	MAMMAL	861	n/a	n/a	0	0	0
1962.688	n/a	REC_WORD	981344	wordpools/wasnorm_wordpool_576.txt	LTP324	ltpFR2	6	8	COOK	372	n/a	n/a	0	0	0
1969.792	n/a	REC_WORD	984896	wordpools/wasnorm_wordpool_576.txt	LTP324	ltpFR2	6	8	RAFT	1159	n/a	n/a	0	0	0
1976.65	n/a	REC_WORD	988325	wordpools/wasnorm_wordpool_576.txt	LTP324	ltpFR2	6	8	ANKLE	24	n/a	n/a	0	0	0
2022.884	n/a	REST_REWET	1011442	n/a	LTP324	ltpFR2	6	8	n/a	n/a	n/a	n/a	0	0	0
2320.836	n/a	WORD	1160418	wordpools/wasnorm_wordpool_576.txt	LTP324	ltpFR2	6	9	TRUCK	1512	n/a	n/a	0	0	0
2323.524	n/a	WORD	1161762	wordpools/wasnorm_wordpool_576.txt	LTP324	ltpFR2	6	9	BRAKE	166	n/a	n/a	0	0	0
2326.1	n/a	WORD	1163050	wordpools/wasnorm_wordpool_576.txt	LTP324	ltpFR2	6	9	LETTUCE	814	n/a	n/a	0	0	0
2328.576	n/a	WORD	1164288	wordpools/wasnorm_wordpool_576.txt	LTP324	ltpFR2	6	9	BREAST	171	n/a	n/a	0	0	0
2331.13	n/a	WORD	1165565	wordpools/wasnorm_wordpool_576.txt	LTP324	ltpFR2	6	9	COUNTRY	388	n/a	n/a	0	0	0
2333.856	n/a	WORD	1166928	wordpools/wasnorm_wordpool_576.txt	LTP324	ltpFR2	6	9	LIPSTICK	829	n/a	n/a	0	0	0
2336.408	n/a	WORD	1168204	wordpools/wasnorm_wordpool_576.txt	LTP324	ltpFR2	6	9	SEAFOOD	1260	n/a	n/a	0	0	0
2338.994	n/a	WORD	1169497	wordpools/wasnorm_wordpool_576.txt	LTP324	ltpFR2	6	9	CATTLE	261	n/a	n/a	0	0	0
2341.444	n/a	WORD	1170722	wordpools/wasnorm_wordpool_576.txt	LTP324	ltpFR2	6	9	JAPAN	749	n/a	n/a	0	0	0
2344.19	n/a	WORD	1172095	wordpools/wasnorm_wordpool_576.txt	LTP324	ltpFR2	6	9	KIDNEY	776	n/a	n/a	0	0	0
2346.692	n/a	WORD	1173346	wordpools/wasnorm_wordpool_576.txt	LTP324	ltpFR2	6	9	SALMON	1227	n/a	n/a	0	0	0
2349.394	n/a	WORD	1174697	wordpools/wasnorm_wordpool_576.txt	LTP324	ltpFR2	6	9	BELLY	119	n/a	n/a	0	0	0
2351.914	n/a	WORD	1175957	wordpools/wasnorm_wordpool_576.txt	LTP324	ltpFR2	6	9	CHAPEL	280	n/a	n/a	0	0	0
2354.458	n/a	WORD	1177229	wordpools/wasnorm_wordpool_576.txt	LTP324	ltpFR2	6	9	GANGSTER	620	n/a	n/a	0	0	0
2357.108	n/a	WORD	1178554	wordpools/wasnorm_wordpool_576.txt	LTP324	ltpFR2	6	9	RUST	1219	n/a	n/a	0	0	0
2359.828	n/a	WORD	1179914	wordpools/wasnorm_wordpool_576.txt	LTP324	ltpFR2	6	9	STREAM	1392	n/a	n/a	0	0	0
2362.304	n/a	WORD	1181152	wordpools/wasnorm_wordpool_576.txt	LTP324	ltpFR2	6	9	PLAYGROUND	1087	n/a	n/a	0	0	0
2365.082	n/a	WORD	1182541	wordpools/wasnorm_wordpool_576.txt	LTP324	ltpFR2	6	9	ACTOR	5	n/a	n/a	0	0	0
2367.886	n/a	WORD	1183943	wordpools/wasnorm_wordpool_576.txt	LTP324	ltpFR2	6	9	LODGE	839	n/a	n/a	0	0	0
2370.61	n/a	WORD	1185305	wordpools/wasnorm_wordpool_576.txt	LTP324	ltpFR2	6	9	ULCER	1533	n/a	n/a	0	0	0
2373.274	n/a	WORD	1186637	wordpools/wasnorm_wordpool_576.txt	LTP324	ltpFR2	6	9	PIGMENT	1066	n/a	n/a	0	0	0
2375.792	n/a	WORD	1187896	wordpools/wasnorm_wordpool_576.txt	LTP324	ltpFR2	6	9	POET	1095	n/a	n/a	0	0	0
2378.494	n/a	WORD	1189247	wordpools/wasnorm_wordpool_576.txt	LTP324	ltpFR2	6	9	PEBBLE	1035	n/a	n/a	0	0	0
2381.302	n/a	WORD	1190651	wordpools/wasnorm_wordpool_576.txt	LTP324	ltpFR2	6	9	STONE	1385	n/a	n/a	0	0	0
2382.916	n/a	START	1191458	n/a	LTP324	ltpFR2	6	n/a	n/a	n/a	13	n/a	n/a	n/a	n/a
2383.89	n/a	DISTRACTOR	1191945	n/a	LTP324	ltpFR2	6	9	n/a	n/a	n/a	n/a	0	0	0
2383.9	n/a	PROB	1191950	n/a	LTP324	ltpFR2	6	n/a	n/a	n/a	13	19	7	3	9
2385.014	n/a	PROB	1192507	n/a	LTP324	ltpFR2	6	n/a	n/a	n/a	13	13	1	9	3
2385.864	n/a	PROB	1192932	n/a	LTP324	ltpFR2	6	n/a	n/a	n/a	13	22	7	6	9
2387.368	n/a	PROB	1193684	n/a	LTP324	ltpFR2	6	n/a	n/a	n/a	13	13	2	5	6
2388.834	n/a	PROB	1194417	n/a	LTP324	ltpFR2	6	n/a	n/a	n/a	13	20	3	8	9
2390.618	n/a	PROB	1195309	n/a	LTP324	ltpFR2	6	n/a	n/a	n/a	13	1	7	1	6
2391.606	n/a	PROB	1195803	n/a	LTP324	ltpFR2	6	n/a	n/a	n/a	13	15	6	4	5
2393.47	n/a	PROB	1196735	n/a	LTP324	ltpFR2	6	n/a	n/a	n/a	13	11	3	6	2
2395.206	n/a	PROB	1197603	n/a	LTP324	ltpFR2	6	n/a	n/a	n/a	13	18	9	8	1
2396.84	n/a	PROB	1198420	n/a	LTP324	ltpFR2	6	n/a	n/a	n/a	13	22	9	4	9
2397.96	n/a	PROB	1198980	n/a	LTP324	ltpFR2	6	n/a	n/a	n/a	13	16	9	6	1
2399.21	n/a	PROB	1199605	n/a	LTP324	ltpFR2	6	n/a	n/a	n/a	13	10	2	5	3
2400.644	n/a	PROB	1200322	n/a	LTP324	ltpFR2	6	n/a	n/a	n/a	13	8	1	3	4
2402.028	n/a	PROB	1201014	n/a	LTP324	ltpFR2	6	n/a	n/a	n/a	13	16	3	4	9
2403.696	n/a	PROB	1201848	n/a	LTP324	ltpFR2	6	n/a	n/a	n/a	13	12	2	4	6
2404.98	n/a	PROB	1202490	n/a	LTP324	ltpFR2	6	n/a	n/a	n/a	13	10	6	2	2
2405.79	n/a	STOP	1202895	n/a	LTP324	ltpFR2	6	n/a	n/a	n/a	13	n/a	n/a	n/a	n/a
2408.834	n/a	REC_START	1204417	n/a	LTP324	ltpFR2	6	9	n/a	n/a	n/a	n/a	0	0	0
2410.816	n/a	REC_WORD	1205408	wordpools/wasnorm_wordpool_576.txt	LTP324	ltpFR2	6	9	PEBBLE	1035	n/a	n/a	0	0	0
2411.194	n/a	REC_WORD	1205597	wordpools/wasnorm_wordpool_576.txt	LTP324	ltpFR2	6	9	STONE	1385	n/a	n/a	0	0	0
2411.718	n/a	REC_WORD	1205859	wordpools/wasnorm_wordpool_576.txt	LTP324	ltpFR2	6	9	POET	1095	n/a	n/a	0	0	0
2412.2	n/a	REC_WORD	1206100	wordpools/wasnorm_wordpool_576.txt	LTP324	ltpFR2	6	9	LODGE	839	n/a	n/a	0	0	0
2412.648	n/a	REC_WORD	1206324	wordpools/wasnorm_wordpool_576.txt	LTP324	ltpFR2	6	9	ACTOR	5	n/a	n/a	0	0	0
2414.224	n/a	REC_WORD	1207112	wordpools/wasnorm_wordpool_576.txt	LTP324	ltpFR2	6	9	CHAPEL	280	n/a	n/a	0	0	0
2414.93	n/a	REC_WORD	1207465	wordpools/wasnorm_wordpool_576.txt	LTP324	ltpFR2	6	9	GANGSTER	620	n/a	n/a	0	0	0
2421.068	n/a	REC_WORD	1210534	wordpools/wasnorm_wordpool_576.txt	LTP324	ltpFR2	6	9	STREAM	1392	n/a	n/a	0	0	0
2421.648	n/a	REC_WORD	1210824	wordpools/wasnorm_wordpool_576.txt	LTP324	ltpFR2	6	9	PLAYGROUND	1087	n/a	n/a	0	0	0
2425.778	n/a	REC_WORD	1212889	wordpools/wasnorm_wordpool_576.txt	LTP324	ltpFR2	6	9	TRUCK	1512	n/a	n/a	0	0	0
2426.256	n/a	REC_WORD	1213128	wordpools/wasnorm_wordpool_576.txt	LTP324	ltpFR2	6	9	BRAKE	166	n/a	n/a	0	0	0
2426.678	n/a	REC_WORD	1213339	wordpools/wasnorm_wordpool_576.txt	LTP324	ltpFR2	6	9	LETTUCE	814	n/a	n/a	0	0	0
2427.298	n/a	REC_WORD	1213649	wordpools/wasnorm_wordpool_576.txt	LTP324	ltpFR2	6	9	BREAST	171	n/a	n/a	0	0	0
2429.934	n/a	REC_WORD	1214967	wordpools/wasnorm_wordpool_576.txt	LTP324	ltpFR2	6	9	CATTLE	261	n/a	n/a	0	0	0
2430.43	n/a	REC_WORD	1215215	wordpools/wasnorm_wordpool_576.txt	LTP324	ltpFR2	6	9	SEAFOOD	1260	n/a	n/a	0	0	0
2432.91	n/a	REC_WORD	1216455	wordpools/wasnorm_wordpool_576.txt	LTP324	ltpFR2	6	9	JAPAN	749	n/a	n/a	0	0	0
2433.52	n/a	REC_WORD	1216760	wordpools/wasnorm_wordpool_576.txt	LTP324	ltpFR2	6	9	SALMON	1227	n/a	n/a	0	0	0
2435.54	n/a	REC_WORD	1217770	wordpools/wasnorm_wordpool_576.txt	LTP324	ltpFR2	6	9	ULCER	1533	n/a	n/a	0	0	0
2436.172	n/a	REC_WORD	1218086	wordpools/wasnorm_wordpool_576.txt	LTP324	ltpFR2	6	9	PIGMENT	1066	n/a	n/a	0	0	0
2437.482	n/a	REC_WORD	1218741	wordpools/wasnorm_wordpool_576.txt	LTP324	ltpFR2	6	9	LIVER	833	n/a	n/a	0	0	0
2439.76	n/a	REC_WORD	1219880	wordpools/wasnorm_wordpool_576.txt	LTP324	ltpFR2	6	9	STOMACH	1384	n/a	n/a	0	0	0
2443.634	n/a	REC_WORD	1221817	wordpools/wasnorm_wordpool_576.txt	LTP324	ltpFR2	6	9	LODGE	839	n/a	n/a	0	0	0
2447.146	n/a	REC_WORD	1223573	wordpools/wasnorm_wordpool_576.txt	LTP324	ltpFR2	6	9	COUNTRY	388	n/a	n/a	0	0	0
2526.998	n/a	WORD	1263499	wordpools/wasnorm_wordpool_576.txt	LTP324	ltpFR2	6	10	HIKER	708	n/a	n/a	0	0	0
2529.704	n/a	WORD	1264852	wordpools/wasnorm_wordpool_576.txt	LTP324	ltpFR2	6	10	MARROW	872	n/a	n/a	0	0	0
2532.526	n/a	WORD	1266263	wordpools/wasnorm_wordpool_576.txt	LTP324	ltpFR2	6	10	SHOULDER	1294	n/a	n/a	0	0	0
2534.99	n/a	WORD	1267495	wordpools/wasnorm_wordpool_576.txt	LTP324	ltpFR2	6	10	TORTOISE	1486	n/a	n/a	0	0	0
2537.792	n/a	WORD	1268896	wordpools/wasnorm_wordpool_576.txt	LTP324	ltpFR2	6	10	MARS	873	n/a	n/a	0	0	0
2540.578	n/a	WORD	1270289	wordpools/wasnorm_wordpool_576.txt	LTP324	ltpFR2	6	10	HUSBAND	728	n/a	n/a	0	0	0
2543.348	n/a	WORD	1271674	wordpools/wasnorm_wordpool_576.txt	LTP324	ltpFR2	6	10	SPOUSE	1358	n/a	n/a	0	0	0
2546.1	n/a	WORD	1273050	wordpools/wasnorm_wordpool_576.txt	LTP324	ltpFR2	6	10	QUARTER	1148	n/a	n/a	0	0	0
2548.802	n/a	WORD	1274401	wordpools/wasnorm_wordpool_576.txt	LTP324	ltpFR2	6	10	DRINK	498	n/a	n/a	0	0	0
2551.288	n/a	WORD	1275644	wordpools/wasnorm_wordpool_576.txt	LTP324	ltpFR2	6	10	TART	1436	n/a	n/a	0	0	0
2553.822	n/a	WORD	1276911	wordpools/wasnorm_wordpool_576.txt	LTP324	ltpFR2	6	10	ICING	732	n/a	n/a	0	0	0
2556.308	n/a	WORD	1278154	wordpools/wasnorm_wordpool_576.txt	LTP324	ltpFR2	6	10	SODA	1341	n/a	n/a	0	0	0
2559.116	n/a	WORD	1279558	wordpools/wasnorm_wordpool_576.txt	LTP324	ltpFR2	6	10	SALT	1229	n/a	n/a	0	0	0
2561.702	n/a	WORD	1280851	wordpools/wasnorm_wordpool_576.txt	LTP324	ltpFR2	6	10	SNAIL	1332	n/a	n/a	0	0	0
2564.28	n/a	WORD	1282140	wordpools/wasnorm_wordpool_576.txt	LTP324	ltpFR2	6	10	TREAT	1501	n/a	n/a	0	0	0
2566.79	n/a	WORD	1283395	wordpools/wasnorm_wordpool_576.txt	LTP324	ltpFR2	6	10	CONTRACT	368	n/a	n/a	0	0	0
2569.226	n/a	WORD	1284613	wordpools/wasnorm_wordpool_576.txt	LTP324	ltpFR2	6	10	TUBA	1515	n/a	n/a	0	0	0
2572.036	n/a	WORD	1286018	wordpools/wasnorm_wordpool_576.txt	LTP324	ltpFR2	6	10	FLAG	573	n/a	n/a	0	0	0
2574.694	n/a	WORD	1287347	wordpools/wasnorm_wordpool_576.txt	LTP324	ltpFR2	6	10	BLOUSE	139	n/a	n/a	0	0	0
2577.424	n/a	WORD	1288712	wordpools/wasnorm_wordpool_576.txt	LTP324	ltpFR2	6	10	DOLPHIN	483	n/a	n/a	0	0	0
2580.044	n/a	WORD	1290022	wordpools/wasnorm_wordpool_576.txt	LTP324	ltpFR2	6	10	VALLEY	1545	n/a	n/a	0	0	0
2582.578	n/a	WORD	1291289	wordpools/wasnorm_wordpool_576.txt	LTP324	ltpFR2	6	10	SUMMIT	1405	n/a	n/a	0	0	0
2585.188	n/a	WORD	1292594	wordpools/wasnorm_wordpool_576.txt	LTP324	ltpFR2	6	10	DONOR	485	n/a	n/a	0	0	0
2587.792	n/a	WORD	1293896	wordpools/wasnorm_wordpool_576.txt	LTP324	ltpFR2	6	10	NIGHTGOWN	953	n/a	n/a	0	0	0
2589.402	n/a	START	1294701	n/a	LTP324	ltpFR2	6	n/a	n/a	n/a	14	n/a	n/a	n/a	n/a
2590.398	n/a	DISTRACTOR	1295199	n/a	LTP324	ltpFR2	6	10	n/a	n/a	n/a	n/a	0	0	0
2590.41	n/a	PROB	1295205	n/a	LTP324	ltpFR2	6	n/a	n/a	n/a	14	20	4	8	8
2592.142	n/a	PROB	1296071	n/a	LTP324	ltpFR2	6	n/a	n/a	n/a	14	13	4	1	8
2593.326	n/a	PROB	1296663	n/a	LTP324	ltpFR2	6	n/a	n/a	n/a	14	11	8	1	2
2596.33	n/a	PROB	1298165	n/a	LTP324	ltpFR2	6	n/a	n/a	n/a	14	17	7	8	2
2597.446	n/a	PROB	1298723	n/a	LTP324	ltpFR2	6	n/a	n/a	n/a	14	18	8	9	1
2598.584	n/a	PROB	1299292	n/a	LTP324	ltpFR2	6	n/a	n/a	n/a	14	15	7	7	1
2599.866	n/a	PROB	1299933	n/a	LTP324	ltpFR2	6	n/a	n/a	n/a	14	14	5	6	3
2602.852	n/a	PROB	1301426	n/a	LTP324	ltpFR2	6	n/a	n/a	n/a	14	11	8	1	2
2604.222	n/a	PROB	1302111	n/a	LTP324	ltpFR2	6	n/a	n/a	n/a	14	16	6	6	4
2606.086	n/a	PROB	1303043	n/a	LTP324	ltpFR2	6	n/a	n/a	n/a	14	16	7	5	4
2607.156	n/a	PROB	1303578	n/a	LTP324	ltpFR2	6	n/a	n/a	n/a	14	12	2	5	5
2608.256	n/a	PROB	1304128	n/a	LTP324	ltpFR2	6	n/a	n/a	n/a	14	21	7	8	6
2609.44	n/a	PROB	1304720	n/a	LTP324	ltpFR2	6	n/a	n/a	n/a	14	17	4	4	9
2610.608	n/a	PROB	1305304	n/a	LTP324	ltpFR2	6	n/a	n/a	n/a	14	18	8	5	5
2612.1	n/a	STOP	1306050	n/a	LTP324	ltpFR2	6	n/a	n/a	n/a	14	n/a	n/a	n/a	n/a
2615.214	n/a	REC_START	1307607	n/a	LTP324	ltpFR2	6	10	n/a	n/a	n/a	n/a	0	0	0
2615.974	n/a	REC_WORD	1307987	wordpools/wasnorm_wordpool_576.txt	LTP324	ltpFR2	6	10	BLOUSE	139	n/a	n/a	0	0	0
2616.506	n/a	REC_WORD	1308253	wordpools/wasnorm_wordpool_576.txt	LTP324	ltpFR2	6	10	DOLPHIN	483	n/a	n/a	0	0	0
2617.1	n/a	REC_WORD	1308550	wordpools/wasnorm_wordpool_576.txt	LTP324	ltpFR2	6	10	DONOR	485	n/a	n/a	0	0	0
2617.502	n/a	REC_WORD	1308751	wordpools/wasnorm_wordpool_576.txt	LTP324	ltpFR2	6	10	SUMMIT	1405	n/a	n/a	0	0	0
2618.09	n/a	REC_WORD	1309045	wordpools/wasnorm_wordpool_576.txt	LTP324	ltpFR2	6	10	VALLEY	1545	n/a	n/a	0	0	0
2620.172	n/a	REC_WORD	1310086	wordpools/wasnorm_wordpool_576.txt	LTP324	ltpFR2	6	10	CONTRACT	368	n/a	n/a	0	0	0
2620.946	n/a	REC_WORD	1310473	wordpools/wasnorm_wordpool_576.txt	LTP324	ltpFR2	6	10	FLAG	573	n/a	n/a	0	0	0
2621.498	n/a	REC_WORD	1310749	wordpools/wasnorm_wordpool_576.txt	LTP324	ltpFR2	6	10	TUBA	1515	n/a	n/a	0	0	0
2621.948	n/a	REC_WORD	1310974	wordpools/wasnorm_wordpool_576.txt	LTP324	ltpFR2	6	10	SNAIL	1332	n/a	n/a	0	0	0
2622.588	n/a	REC_WORD	1311294	wordpools/wasnorm_wordpool_576.txt	LTP324	ltpFR2	6	10	TREAT	1501	n/a	n/a	0	0	0
2624.074	n/a	REC_WORD	1312037	wordpools/wasnorm_wordpool_576.txt	LTP324	ltpFR2	6	10	SALT	1229	n/a	n/a	0	0	0
2624.622	n/a	REC_WORD	1312311	wordpools/wasnorm_wordpool_576.txt	LTP324	ltpFR2	6	10	SODA	1341	n/a	n/a	0	0	0
2625.45	n/a	REC_WORD	1312725	wordpools/wasnorm_wordpool_576.txt	LTP324	ltpFR2	6	10	ICING	732	n/a	n/a	0	0	0
2626.078	n/a	REC_WORD	1313039	wordpools/wasnorm_wordpool_576.txt	LTP324	ltpFR2	6	10	TART	1436	n/a	n/a	0	0	0
2628.704	n/a	REC_WORD	1314352	wordpools/wasnorm_wordpool_576.txt	LTP324	ltpFR2	6	10	DRINK	498	n/a	n/a	0	0	0
2629.134	n/a	REC_WORD	1314567	wordpools/wasnorm_wordpool_576.txt	LTP324	ltpFR2	6	10	QUARTER	1148	n/a	n/a	0	0	0
2629.68	n/a	REC_WORD	1314840	wordpools/wasnorm_wordpool_576.txt	LTP324	ltpFR2	6	10	SPOUSE	1358	n/a	n/a	0	0	0
2630.206	n/a	REC_WORD	1315103	wordpools/wasnorm_wordpool_576.txt	LTP324	ltpFR2	6	10	HUSBAND	728	n/a	n/a	0	0	0
2635.29	n/a	REC_WORD	1317645	wordpools/wasnorm_wordpool_576.txt	LTP324	ltpFR2	6	10	HIKER	708	n/a	n/a	0	0	0
2635.884	n/a	REC_WORD	1317942	wordpools/wasnorm_wordpool_576.txt	LTP324	ltpFR2	6	10	SHOULDER	1294	n/a	n/a	0	0	0
2637.682	n/a	REC_WORD	1318841	wordpools/wasnorm_wordpool_576.txt	LTP324	ltpFR2	6	10	MARROW	872	n/a	n/a	0	0	0
2638.582	n/a	REC_WORD	1319291	wordpools/wasnorm_wordpool_576.txt	LTP324	ltpFR2	6	10	TORTOISE	1486	n/a	n/a	0	0	0
2639.868	n/a	REC_WORD	1319934	wordpools/wasnorm_wordpool_576.txt	LTP324	ltpFR2	6	10	MARS	873	n/a	n/a	0	0	0
2729.962	n/a	DISTRACTOR	1364981	n/a	LTP324	ltpFR2	6	11	n/a	n/a	n/a	n/a	0	0	0
2729.962	n/a	START	1364981	n/a	LTP324	ltpFR2	6	n/a	n/a	n/a	15	n/a	n/a	n/a	n/a
2729.98	n/a	PROB	1364990	n/a	LTP324	ltpFR2	6	n/a	n/a	n/a	15	17	4	4	9
2731.298	n/a	PROB	1365649	n/a	LTP324	ltpFR2	6	n/a	n/a	n/a	15	16	4	4	8
2732.364	n/a	PROB	1366182	n/a	LTP324	ltpFR2	6	n/a	n/a	n/a	15	6	2	2	2
2733.316	n/a	PROB	1366658	n/a	LTP324	ltpFR2	6	n/a	n/a	n/a	15	21	4	8	9
2734.63	n/a	PROB	1367315	n/a	LTP324	ltpFR2	6	n/a	n/a	n/a	15	12	6	4	2
2735.73	n/a	PROB	1367865	n/a	LTP324	ltpFR2	6	n/a	n/a	n/a	15	8	5	1	2
2737.268	n/a	PROB	1368634	n/a	LTP324	ltpFR2	6	n/a	n/a	n/a	15	15	4	3	8
2738.416	n/a	PROB	1369208	n/a	LTP324	ltpFR2	6	n/a	n/a	n/a	15	17	3	5	9
2741.718	n/a	PROB	1370859	n/a	LTP324	ltpFR2	6	n/a	n/a	n/a	15	5	3	1	1
2742.936	n/a	PROB	1371468	n/a	LTP324	ltpFR2	6	n/a	n/a	n/a	15	13	3	4	6
2744.504	n/a	PROB	1372252	n/a	LTP324	ltpFR2	6	n/a	n/a	n/a	15	12	6	4	2
2745.842	n/a	PROB	1372921	n/a	LTP324	ltpFR2	6	n/a	n/a	n/a	15	13	6	1	6
2747.006	n/a	PROB	1373503	n/a	LTP324	ltpFR2	6	n/a	n/a	n/a	15	22	8	7	7
2748.412	n/a	PROB	1374206	n/a	LTP324	ltpFR2	6	n/a	n/a	n/a	15	20	8	7	5
2749.942	n/a	PROB	1374971	n/a	LTP324	ltpFR2	6	n/a	n/a	n/a	15	8	1	4	3
2750.826	n/a	PROB	1375413	n/a	LTP324	ltpFR2	6	n/a	n/a	n/a	15	15	9	5	1
2752.042	n/a	PROB	1376021	n/a	LTP324	ltpFR2	6	n/a	n/a	n/a	15	16	8	3	5
2753.296	n/a	STOP	1376648	n/a	LTP324	ltpFR2	6	n/a	n/a	n/a	15	n/a	n/a	n/a	n/a
2755.15	n/a	WORD	1377575	wordpools/wasnorm_wordpool_576.txt	LTP324	ltpFR2	6	11	LEOPARD	812	n/a	n/a	0	0	0
2757.952	n/a	WORD	1378976	wordpools/wasnorm_wordpool_576.txt	LTP324	ltpFR2	6	11	BEAST	108	n/a	n/a	0	0	0
2760.736	n/a	WORD	1380368	wordpools/wasnorm_wordpool_576.txt	LTP324	ltpFR2	6	11	DAUGHTER	442	n/a	n/a	0	0	0
2763.376	n/a	WORD	1381688	wordpools/wasnorm_wordpool_576.txt	LTP324	ltpFR2	6	11	SERVANT	1271	n/a	n/a	0	0	0
2765.808	n/a	WORD	1382904	wordpools/wasnorm_wordpool_576.txt	LTP324	ltpFR2	6	11	BLACKBOARD	133	n/a	n/a	0	0	0
2768.526	n/a	WORD	1384263	wordpools/wasnorm_wordpool_576.txt	LTP324	ltpFR2	6	11	MISTER	901	n/a	n/a	0	0	0
2771.244	n/a	WORD	1385622	wordpools/wasnorm_wordpool_576.txt	LTP324	ltpFR2	6	11	PLAZA	1088	n/a	n/a	0	0	0
2773.734	n/a	WORD	1386867	wordpools/wasnorm_wordpool_576.txt	LTP324	ltpFR2	6	11	MARKET	871	n/a	n/a	0	0	0
2776.436	n/a	WORD	1388218	wordpools/wasnorm_wordpool_576.txt	LTP324	ltpFR2	6	11	COBRA	336	n/a	n/a	0	0	0
2778.968	n/a	WORD	1389484	wordpools/wasnorm_wordpool_576.txt	LTP324	ltpFR2	6	11	SLIDE	1326	n/a	n/a	0	0	0
2781.754	n/a	WORD	1390877	wordpools/wasnorm_wordpool_576.txt	LTP324	ltpFR2	6	11	SHELTER	1282	n/a	n/a	0	0	0
2784.472	n/a	WORD	1392236	wordpools/wasnorm_wordpool_576.txt	LTP324	ltpFR2	6	11	NOMAD	955	n/a	n/a	0	0	0
2787.274	n/a	WORD	1393637	wordpools/wasnorm_wordpool_576.txt	LTP324	ltpFR2	6	11	GAVEL	627	n/a	n/a	0	0	0
2790.092	n/a	WORD	1395046	wordpools/wasnorm_wordpool_576.txt	LTP324	ltpFR2	6	11	SNACK	1331	n/a	n/a	0	0	0
2792.646	n/a	WORD	1396323	wordpools/wasnorm_wordpool_576.txt	LTP324	ltpFR2	6	11	MILDEW	893	n/a	n/a	0	0	0
2795.08	n/a	WORD	1397540	wordpools/wasnorm_wordpool_576.txt	LTP324	ltpFR2	6	11	PIMPLE	1071	n/a	n/a	0	0	0
2797.85	n/a	WORD	1398925	wordpools/wasnorm_wordpool_576.txt	LTP324	ltpFR2	6	11	PARSLEY	1016	n/a	n/a	0	0	0
2800.334	n/a	WORD	1400167	wordpools/wasnorm_wordpool_576.txt	LTP324	ltpFR2	6	11	SPHINX	1349	n/a	n/a	0	0	0
2802.77	n/a	WORD	1401385	wordpools/wasnorm_wordpool_576.txt	LTP324	ltpFR2	6	11	CELLAR	267	n/a	n/a	0	0	0
2805.346	n/a	WORD	1402673	wordpools/wasnorm_wordpool_576.txt	LTP324	ltpFR2	6	11	VAGRANT	1544	n/a	n/a	0	0	0
2807.898	n/a	WORD	1403949	wordpools/wasnorm_wordpool_576.txt	LTP324	ltpFR2	6	11	TABLE	1426	n/a	n/a	0	0	0
2810.426	n/a	WORD	1405213	wordpools/wasnorm_wordpool_576.txt	LTP324	ltpFR2	6	11	GYMNAST	675	n/a	n/a	0	0	0
2812.986	n/a	WORD	1406493	wordpools/wasnorm_wordpool_576.txt	LTP324	ltpFR2	6	11	BOARD	143	n/a	n/a	0	0	0
2815.704	n/a	WORD	1407852	wordpools/wasnorm_wordpool_576.txt	LTP324	ltpFR2	6	11	XEROX	1628	n/a	n/a	0	0	0
2817.316	n/a	START	1408658	n/a	LTP324	ltpFR2	6	n/a	n/a	n/a	16	n/a	n/a	n/a	n/a
2818.316	n/a	DISTRACTOR	1409158	n/a	LTP324	ltpFR2	6	11	n/a	n/a	n/a	n/a	0	0	0
2818.322	n/a	PROB	1409161	n/a	LTP324	ltpFR2	6	n/a	n/a	n/a	16	22	5	8	9
2820.272	n/a	PROB	1410136	n/a	LTP324	ltpFR2	6	n/a	n/a	n/a	16	12	1	2	9
2821.274	n/a	PROB	1410637	n/a	LTP324	ltpFR2	6	n/a	n/a	n/a	16	16	7	6	3
2823.158	n/a	PROB	1411579	n/a	LTP324	ltpFR2	6	n/a	n/a	n/a	16	18	8	1	9
2824.476	n/a	PROB	1412238	n/a	LTP324	ltpFR2	6	n/a	n/a	n/a	16	13	3	7	3
2826.662	n/a	PROB	1413331	n/a	LTP324	ltpFR2	6	n/a	n/a	n/a	16	1	4	7	8
2828.564	n/a	PROB	1414282	n/a	LTP324	ltpFR2	6	n/a	n/a	n/a	16	12	7	2	3
2830.148	n/a	PROB	1415074	n/a	LTP324	ltpFR2	6	n/a	n/a	n/a	16	8	5	1	2
2830.964	n/a	PROB	1415482	n/a	LTP324	ltpFR2	6	n/a	n/a	n/a	16	11	5	2	5
2831.932	n/a	PROB	1415966	n/a	LTP324	ltpFR2	6	n/a	n/a	n/a	16	16	9	1	6
2833.25	n/a	PROB	1416625	n/a	LTP324	ltpFR2	6	n/a	n/a	n/a	16	20	8	3	9
2834.52	n/a	PROB	1417260	n/a	LTP324	ltpFR2	6	n/a	n/a	n/a	16	11	5	2	4
2835.818	n/a	PROB	1417909	n/a	LTP324	ltpFR2	6	n/a	n/a	n/a	16	18	7	4	7
2837.152	n/a	PROB	1418576	n/a	LTP324	ltpFR2	6	n/a	n/a	n/a	16	20	4	7	9
2839.304	n/a	PROB	1419652	n/a	LTP324	ltpFR2	6	n/a	n/a	n/a	16	18	4	8	6
2840.666	n/a	STOP	1420333	n/a	LTP324	ltpFR2	6	n/a	n/a	n/a	16	n/a	n/a	n/a	n/a
2843.142	n/a	REC_START	1421571	n/a	LTP324	ltpFR2	6	11	n/a	n/a	n/a	n/a	0	0	0
2843.776	n/a	REC_WORD	1421888	wordpools/wasnorm_wordpool_576.txt	LTP324	ltpFR2	6	11	VAGRANT	1544	n/a	n/a	0	0	0
2844.446	n/a	REC_WORD	1422223	wordpools/wasnorm_wordpool_576.txt	LTP324	ltpFR2	6	11	TABLE	1426	n/a	n/a	0	0	0
2845.092	n/a	REC_WORD	1422546	wordpools/wasnorm_wordpool_576.txt	LTP324	ltpFR2	6	11	BOARD	143	n/a	n/a	0	0	0
2845.58	n/a	REC_WORD	1422790	wordpools/wasnorm_wordpool_576.txt	LTP324	ltpFR2	6	11	SPHINX	1349	n/a	n/a	0	0	0
2846.58	n/a	REC_WORD_VV	1423290	wordpools/wasnorm_wordpool_576.txt	LTP324	ltpFR2	6	11	<>	-1	n/a	n/a	0	0	0
2852.78	n/a	REC_WORD	1426390	wordpools/wasnorm_wordpool_576.txt	LTP324	ltpFR2	6	11	NOMAD	955	n/a	n/a	0	0	0
2853.632	n/a	REC_WORD	1426816	wordpools/wasnorm_wordpool_576.txt	LTP324	ltpFR2	6	11	GAVEL	627	n/a	n/a	0	0	0
2855.826	n/a	REC_WORD	1427913	wordpools/wasnorm_wordpool_576.txt	LTP324	ltpFR2	6	11	SHELTER	1282	n/a	n/a	0	0	0
2861.774	n/a	REC_WORD	1430887	wordpools/wasnorm_wordpool_576.txt	LTP324	ltpFR2	6	11	BOARD	143	n/a	n/a	0	0	0
2862.09	n/a	REC_WORD	1431045	wordpools/wasnorm_wordpool_576.txt	LTP324	ltpFR2	6	11	XEROX	1628	n/a	n/a	0	0	0
2989.618	n/a	DISTRACTOR	1494809	n/a	LTP324	ltpFR2	6	12	n/a	n/a	n/a	n/a	0	0	0
2989.618	n/a	START	1494809	n/a	LTP324	ltpFR2	6	n/a	n/a	n/a	17	n/a	n/a	n/a	n/a
2989.638	n/a	PROB	1494819	n/a	LTP324	ltpFR2	6	n/a	n/a	n/a	17	19	7	6	6
2991.356	n/a	PROB	1495678	n/a	LTP324	ltpFR2	6	n/a	n/a	n/a	17	17	5	4	8
2994.052	n/a	PROB	1497026	n/a	LTP324	ltpFR2	6	n/a	n/a	n/a	17	13	4	1	8
2995.802	n/a	PROB	1497901	n/a	LTP324	ltpFR2	6	n/a	n/a	n/a	17	18	2	9	7
2997.004	n/a	PROB	1498502	n/a	LTP324	ltpFR2	6	n/a	n/a	n/a	17	19	8	5	6
2998.422	n/a	PROB	1499211	n/a	LTP324	ltpFR2	6	n/a	n/a	n/a	17	16	3	8	5
3000.106	n/a	PROB	1500053	n/a	LTP324	ltpFR2	6	n/a	n/a	n/a	17	14	3	3	8
3001.758	n/a	PROB	1500879	n/a	LTP324	ltpFR2	6	n/a	n/a	n/a	17	19	5	9	5
3002.842	n/a	PROB	1501421	n/a	LTP324	ltpFR2	6	n/a	n/a	n/a	17	6	1	2	3
3004.112	n/a	PROB	1502056	n/a	LTP324	ltpFR2	6	n/a	n/a	n/a	17	11	4	6	1
3004.914	n/a	PROB	1502457	n/a	LTP324	ltpFR2	6	n/a	n/a	n/a	17	15	6	3	6
3006.428	n/a	PROB	1503214	n/a	LTP324	ltpFR2	6	n/a	n/a	n/a	17	11	2	8	1
3007.65	n/a	PROB	1503825	n/a	LTP324	ltpFR2	6	n/a	n/a	n/a	17	10	3	4	3
3009.38	n/a	PROB	1504690	n/a	LTP324	ltpFR2	6	n/a	n/a	n/a	17	14	8	4	2
3010.752	n/a	PROB	1505376	n/a	LTP324	ltpFR2	6	n/a	n/a	n/a	17	16	5	3	8
3012.272	n/a	STOP	1506136	n/a	LTP324	ltpFR2	6	n/a	n/a	n/a	17	n/a	n/a	n/a	n/a
3014.61	n/a	WORD	1507305	wordpools/wasnorm_wordpool_576.txt	LTP324	ltpFR2	6	12	PLUTO	1092	n/a	n/a	0	0	0
3017.428	n/a	WORD	1508714	wordpools/wasnorm_wordpool_576.txt	LTP324	ltpFR2	6	12	VENUS	1557	n/a	n/a	0	0	0
3019.892	n/a	WORD	1509946	wordpools/wasnorm_wordpool_576.txt	LTP324	ltpFR2	6	12	SPIDER	1351	n/a	n/a	0	0	0
3022.366	n/a	WORD	1511183	wordpools/wasnorm_wordpool_576.txt	LTP324	ltpFR2	6	12	FINGER	567	n/a	n/a	0	0	0
3025.102	n/a	WORD	1512551	wordpools/wasnorm_wordpool_576.txt	LTP324	ltpFR2	6	12	CARRIAGE	248	n/a	n/a	0	0	0
3027.786	n/a	WORD	1513893	wordpools/wasnorm_wordpool_576.txt	LTP324	ltpFR2	6	12	BACKBONE	66	n/a	n/a	0	0	0
3030.606	n/a	WORD	1515303	wordpools/wasnorm_wordpool_576.txt	LTP324	ltpFR2	6	12	SUBWAY	1400	n/a	n/a	0	0	0
3033.202	n/a	WORD	1516601	wordpools/wasnorm_wordpool_576.txt	LTP324	ltpFR2	6	12	SHIRT	1287	n/a	n/a	0	0	0
3035.62	n/a	WORD	1517810	wordpools/wasnorm_wordpool_576.txt	LTP324	ltpFR2	6	12	PICTURE	1061	n/a	n/a	0	0	0
3038.122	n/a	WORD	1519061	wordpools/wasnorm_wordpool_576.txt	LTP324	ltpFR2	6	12	GIFT	635	n/a	n/a	0	0	0
3040.63	n/a	WORD	1520315	wordpools/wasnorm_wordpool_576.txt	LTP324	ltpFR2	6	12	POSTAGE	1113	n/a	n/a	0	0	0
3043.444	n/a	WORD	1521722	wordpools/wasnorm_wordpool_576.txt	LTP324	ltpFR2	6	12	KLEENEX	782	n/a	n/a	0	0	0
3046.08	n/a	WORD	1523040	wordpools/wasnorm_wordpool_576.txt	LTP324	ltpFR2	6	12	TOASTER	1472	n/a	n/a	0	0	0
3048.882	n/a	WORD	1524441	wordpools/wasnorm_wordpool_576.txt	LTP324	ltpFR2	6	12	MOP	916	n/a	n/a	0	0	0
3051.458	n/a	WORD	1525729	wordpools/wasnorm_wordpool_576.txt	LTP324	ltpFR2	6	12	FEMALE	559	n/a	n/a	0	0	0
3054.218	n/a	WORD	1527109	wordpools/wasnorm_wordpool_576.txt	LTP324	ltpFR2	6	12	PAIL	1002	n/a	n/a	0	0	0
3056.846	n/a	WORD	1528423	wordpools/wasnorm_wordpool_576.txt	LTP324	ltpFR2	6	12	OX	994	n/a	n/a	0	0	0
3059.514	n/a	WORD	1529757	wordpools/wasnorm_wordpool_576.txt	LTP324	ltpFR2	6	12	JELLY	755	n/a	n/a	0	0	0
3062.192	n/a	WORD	1531096	wordpools/wasnorm_wordpool_576.txt	LTP324	ltpFR2	6	12	DANDRUFF	439	n/a	n/a	0	0	0
3064.678	n/a	WORD	1532339	wordpools/wasnorm_wordpool_576.txt	LTP324	ltpFR2	6	12	CHEST	295	n/a	n/a	0	0	0
3067.362	n/a	WORD	1533681	wordpools/wasnorm_wordpool_576.txt	LTP324	ltpFR2	6	12	SADDLE	1221	n/a	n/a	0	0	0
3070.032	n/a	WORD	1535016	wordpools/wasnorm_wordpool_576.txt	LTP324	ltpFR2	6	12	FREEZER	604	n/a	n/a	0	0	0
3072.834	n/a	WORD	1536417	wordpools/wasnorm_wordpool_576.txt	LTP324	ltpFR2	6	12	SPACE	1345	n/a	n/a	0	0	0
3075.328	n/a	WORD	1537664	wordpools/wasnorm_wordpool_576.txt	LTP324	ltpFR2	6	12	SKETCH	1315	n/a	n/a	0	0	0
3076.938	n/a	START	1538469	n/a	LTP324	ltpFR2	6	n/a	n/a	n/a	18	n/a	n/a	n/a	n/a
3078.082	n/a	DISTRACTOR	1539041	n/a	LTP324	ltpFR2	6	12	n/a	n/a	n/a	n/a	0	0	0
3078.096	n/a	PROB	1539048	n/a	LTP324	ltpFR2	6	n/a	n/a	n/a	18	15	1	6	8
3079.01	n/a	PROB	1539505	n/a	LTP324	ltpFR2	6	n/a	n/a	n/a	18	16	4	8	4
3080.212	n/a	PROB	1540106	n/a	LTP324	ltpFR2	6	n/a	n/a	n/a	18	19	4	9	6
3081.582	n/a	PROB	1540791	n/a	LTP324	ltpFR2	6	n/a	n/a	n/a	18	5	2	2	1
3082.28	n/a	PROB	1541140	n/a	LTP324	ltpFR2	6	n/a	n/a	n/a	18	14	8	4	2
3083.386	n/a	PROB	1541693	n/a	LTP324	ltpFR2	6	n/a	n/a	n/a	18	21	9	3	9
3084.616	n/a	PROB	1542308	n/a	LTP324	ltpFR2	6	n/a	n/a	n/a	18	9	3	4	2
3086.236	n/a	PROB	1543118	n/a	LTP324	ltpFR2	6	n/a	n/a	n/a	18	12	2	7	3
3087.386	n/a	PROB	1543693	n/a	LTP324	ltpFR2	6	n/a	n/a	n/a	18	14	3	8	3
3088.754	n/a	PROB	1544377	n/a	LTP324	ltpFR2	6	n/a	n/a	n/a	18	9	3	4	2
3089.82	n/a	PROB	1544910	n/a	LTP324	ltpFR2	6	n/a	n/a	n/a	18	8	5	1	2
3091.226	n/a	PROB	1545613	n/a	LTP324	ltpFR2	6	n/a	n/a	n/a	18	21	6	8	7
3092.508	n/a	PROB	1546254	n/a	LTP324	ltpFR2	6	n/a	n/a	n/a	18	13	8	4	1
3093.724	n/a	PROB	1546862	n/a	LTP324	ltpFR2	6	n/a	n/a	n/a	18	1	2	8	7
3095.092	n/a	PROB	1547546	n/a	LTP324	ltpFR2	6	n/a	n/a	n/a	18	17	4	6	7
3097.56	n/a	PROB	1548780	n/a	LTP324	ltpFR2	6	n/a	n/a	n/a	18	21	9	4	8
3099.666	n/a	STOP	1549833	n/a	LTP324	ltpFR2	6	n/a	n/a	n/a	18	n/a	n/a	n/a	n/a
3102.816	n/a	REC_START	1551408	n/a	LTP324	ltpFR2	6	12	n/a	n/a	n/a	n/a	0	0	0
3104.014	n/a	REC_WORD	1552007	wordpools/wasnorm_wordpool_576.txt	LTP324	ltpFR2	6	12	PAIL	1002	n/a	n/a	0	0	0
3104.86	n/a	REC_WORD	1552430	wordpools/wasnorm_wordpool_576.txt	LTP324	ltpFR2	6	12	OX	994	n/a	n/a	0	0	0
3105.86	n/a	REC_WORD_VV	1552930	wordpools/wasnorm_wordpool_576.txt	LTP324	ltpFR2	6	12	<>	-1	n/a	n/a	0	0	0
3107.24	n/a	REC_WORD	1553620	wordpools/wasnorm_wordpool_576.txt	LTP324	ltpFR2	6	12	JELLY	755	n/a	n/a	0	0	0
3107.996	n/a	REC_WORD	1553998	wordpools/wasnorm_wordpool_576.txt	LTP324	ltpFR2	6	12	SADDLE	1221	n/a	n/a	0	0	0
3108.942	n/a	REC_WORD	1554471	wordpools/wasnorm_wordpool_576.txt	LTP324	ltpFR2	6	12	CARRIAGE	248	n/a	n/a	0	0	0
3109.676	n/a	REC_WORD	1554838	wordpools/wasnorm_wordpool_576.txt	LTP324	ltpFR2	6	12	SUBWAY	1400	n/a	n/a	0	0	0
3224.656	n/a	WORD	1612328	wordpools/wasnorm_wordpool_576.txt	LTP324	ltpFR2	6	13	SWAMP	1416	n/a	n/a	0	0	0
3227.11	n/a	WORD	1613555	wordpools/wasnorm_wordpool_576.txt	LTP324	ltpFR2	6	13	TROMBONE	1508	n/a	n/a	0	0	0
3229.794	n/a	WORD	1614897	wordpools/wasnorm_wordpool_576.txt	LTP324	ltpFR2	6	13	MUMMY	932	n/a	n/a	0	0	0
3232.578	n/a	WORD	1616289	wordpools/wasnorm_wordpool_576.txt	LTP324	ltpFR2	6	13	MARSH	874	n/a	n/a	0	0	0
3235.228	n/a	WORD	1617614	wordpools/wasnorm_wordpool_576.txt	LTP324	ltpFR2	6	13	FRUIT	610	n/a	n/a	0	0	0
3237.914	n/a	WORD	1618957	wordpools/wasnorm_wordpool_576.txt	LTP324	ltpFR2	6	13	CITRUS	313	n/a	n/a	0	0	0
3240.702	n/a	WORD	1620351	wordpools/wasnorm_wordpool_576.txt	LTP324	ltpFR2	6	13	OYSTER	995	n/a	n/a	0	0	0
3243.168	n/a	WORD	1621584	wordpools/wasnorm_wordpool_576.txt	LTP324	ltpFR2	6	13	HUMAN	726	n/a	n/a	0	0	0
3245.658	n/a	WORD	1622829	wordpools/wasnorm_wordpool_576.txt	LTP324	ltpFR2	6	13	CASKET	255	n/a	n/a	0	0	0
3248.44	n/a	WORD	1624220	wordpools/wasnorm_wordpool_576.txt	LTP324	ltpFR2	6	13	WIDOW	1608	n/a	n/a	0	0	0
3250.976	n/a	WORD	1625488	wordpools/wasnorm_wordpool_576.txt	LTP324	ltpFR2	6	13	GLASS	639	n/a	n/a	0	0	0
3253.428	n/a	WORD	1626714	wordpools/wasnorm_wordpool_576.txt	LTP324	ltpFR2	6	13	BEAKER	104	n/a	n/a	0	0	0
3256.112	n/a	WORD	1628056	wordpools/wasnorm_wordpool_576.txt	LTP324	ltpFR2	6	13	POCKET	1093	n/a	n/a	0	0	0
3258.548	n/a	WORD	1629274	wordpools/wasnorm_wordpool_576.txt	LTP324	ltpFR2	6	13	PISTOL	1075	n/a	n/a	0	0	0
3261.188	n/a	WORD	1630594	wordpools/wasnorm_wordpool_576.txt	LTP324	ltpFR2	6	13	PECAN	1036	n/a	n/a	0	0	0
3263.64	n/a	WORD	1631820	wordpools/wasnorm_wordpool_576.txt	LTP324	ltpFR2	6	13	SHORTCAKE	1292	n/a	n/a	0	0	0
3266.342	n/a	WORD	1633171	wordpools/wasnorm_wordpool_576.txt	LTP324	ltpFR2	6	13	LIGHTNING	820	n/a	n/a	0	0	0
3268.772	n/a	WORD	1634386	wordpools/wasnorm_wordpool_576.txt	LTP324	ltpFR2	6	13	COUSIN	392	n/a	n/a	0	0	0
3271.29	n/a	WORD	1635645	wordpools/wasnorm_wordpool_576.txt	LTP324	ltpFR2	6	13	COWBOY	395	n/a	n/a	0	0	0
3273.866	n/a	WORD	1636933	wordpools/wasnorm_wordpool_576.txt	LTP324	ltpFR2	6	13	STOMACH	1384	n/a	n/a	0	0	0
3276.684	n/a	WORD	1638342	wordpools/wasnorm_wordpool_576.txt	LTP324	ltpFR2	6	13	ONION	977	n/a	n/a	0	0	0
3279.396	n/a	WORD	1639698	wordpools/wasnorm_wordpool_576.txt	LTP324	ltpFR2	6	13	JELLO	754	n/a	n/a	0	0	0
3282.166	n/a	WORD	1641083	wordpools/wasnorm_wordpool_576.txt	LTP324	ltpFR2	6	13	BODY	145	n/a	n/a	0	0	0
3284.852	n/a	WORD	1642426	wordpools/wasnorm_wordpool_576.txt	LTP324	ltpFR2	6	13	NEUTRON	947	n/a	n/a	0	0	0
3286.46	n/a	START	1643230	n/a	LTP324	ltpFR2	6	n/a	n/a	n/a	19	n/a	n/a	n/a	n/a
3287.426	n/a	DISTRACTOR	1643713	n/a	LTP324	ltpFR2	6	13	n/a	n/a	n/a	n/a	0	0	0
3287.438	n/a	PROB	1643719	n/a	LTP324	ltpFR2	6	n/a	n/a	n/a	19	15	5	4	6
3288.66	n/a	PROB	1644330	n/a	LTP324	ltpFR2	6	n/a	n/a	n/a	19	19	1	9	9
3289.544	n/a	PROB	1644772	n/a	LTP324	ltpFR2	6	n/a	n/a	n/a	19	8	1	2	5
3290.344	n/a	PROB	1645172	n/a	LTP324	ltpFR2	6	n/a	n/a	n/a	19	15	4	7	4
3292.078	n/a	PROB	1646039	n/a	LTP324	ltpFR2	6	n/a	n/a	n/a	19	121	5	4	3
3293.248	n/a	PROB	1646624	n/a	LTP324	ltpFR2	6	n/a	n/a	n/a	19	21	5	8	8
3296.032	n/a	PROB	1648016	n/a	LTP324	ltpFR2	6	n/a	n/a	n/a	19	10	3	5	2
3297.452	n/a	PROB	1648726	n/a	LTP324	ltpFR2	6	n/a	n/a	n/a	19	13	3	6	4
3298.618	n/a	PROB	1649309	n/a	LTP324	ltpFR2	6	n/a	n/a	n/a	19	12	2	7	3
3300.086	n/a	PROB	1650043	n/a	LTP324	ltpFR2	6	n/a	n/a	n/a	19	12	6	4	2
3301.154	n/a	PROB	1650577	n/a	LTP324	ltpFR2	6	n/a	n/a	n/a	19	13	2	4	7
3303.604	n/a	PROB	1651802	n/a	LTP324	ltpFR2	6	n/a	n/a	n/a	19	19	6	6	7
3305.19	n/a	PROB	1652595	n/a	LTP324	ltpFR2	6	n/a	n/a	n/a	19	16	4	7	5
3307.342	n/a	PROB	1653671	n/a	LTP324	ltpFR2	6	n/a	n/a	n/a	19	16	6	4	6
3309.008	n/a	STOP	1654504	n/a	LTP324	ltpFR2	6	n/a	n/a	n/a	19	n/a	n/a	n/a	n/a
3312.296	n/a	REC_START	1656148	n/a	LTP324	ltpFR2	6	13	n/a	n/a	n/a	n/a	0	0	0
3313.914	n/a	REC_WORD	1656957	wordpools/wasnorm_wordpool_576.txt	LTP324	ltpFR2	6	13	LIGHTNING	820	n/a	n/a	0	0	0
3314.494	n/a	REC_WORD	1657247	wordpools/wasnorm_wordpool_576.txt	LTP324	ltpFR2	6	13	STOMACH	1384	n/a	n/a	0	0	0
3315.95	n/a	REC_WORD	1657975	wordpools/wasnorm_wordpool_576.txt	LTP324	ltpFR2	6	13	BODY	145	n/a	n/a	0	0	0
3316.552	n/a	REC_WORD	1658276	wordpools/wasnorm_wordpool_576.txt	LTP324	ltpFR2	6	13	ONION	977	n/a	n/a	0	0	0
3317.43	n/a	REC_WORD	1658715	wordpools/wasnorm_wordpool_576.txt	LTP324	ltpFR2	6	13	NEUTRON	947	n/a	n/a	0	0	0
3320.816	n/a	REC_WORD	1660408	wordpools/wasnorm_wordpool_576.txt	LTP324	ltpFR2	6	13	HUMAN	726	n/a	n/a	0	0	0
3321.33	n/a	REC_WORD	1660665	wordpools/wasnorm_wordpool_576.txt	LTP324	ltpFR2	6	13	OYSTER	995	n/a	n/a	0	0	0
3321.922	n/a	REC_WORD	1660961	wordpools/wasnorm_wordpool_576.txt	LTP324	ltpFR2	6	13	CASKET	255	n/a	n/a	0	0	0
3432.518	n/a	DISTRACTOR	1716259	n/a	LTP324	ltpFR2	6	14	n/a	n/a	n/a	n/a	0	0	0
3432.518	n/a	START	1716259	n/a	LTP324	ltpFR2	6	n/a	n/a	n/a	20	n/a	n/a	n/a	n/a
3432.532	n/a	PROB	1716266	n/a	LTP324	ltpFR2	6	n/a	n/a	n/a	20	13	2	8	3
3433.568	n/a	PROB	1716784	n/a	LTP324	ltpFR2	6	n/a	n/a	n/a	20	6	1	1	4
3434.402	n/a	PROB	1717201	n/a	LTP324	ltpFR2	6	n/a	n/a	n/a	20	23	7	7	9
3435.772	n/a	PROB	1717886	n/a	LTP324	ltpFR2	6	n/a	n/a	n/a	20	14	8	6	2
3437.256	n/a	PROB	1718628	n/a	LTP324	ltpFR2	6	n/a	n/a	n/a	20	7	1	1	5
3438.72	n/a	PROB	1719360	n/a	LTP324	ltpFR2	6	n/a	n/a	n/a	20	11	4	2	5
3442.024	n/a	PROB	1721012	n/a	LTP324	ltpFR2	6	n/a	n/a	n/a	20	18	7	4	7
3443.578	n/a	PROB	1721789	n/a	LTP324	ltpFR2	6	n/a	n/a	n/a	20	21	8	5	8
3444.91	n/a	PROB	1722455	n/a	LTP324	ltpFR2	6	n/a	n/a	n/a	20	19	9	7	3
3446.394	n/a	PROB	1723197	n/a	LTP324	ltpFR2	6	n/a	n/a	n/a	20	20	7	6	7
3448.932	n/a	PROB	1724466	n/a	LTP324	ltpFR2	6	n/a	n/a	n/a	20	14	4	4	6
3450.234	n/a	PROB	1725117	n/a	LTP324	ltpFR2	6	n/a	n/a	n/a	20	20	6	5	9
3452.104	n/a	PROB	1726052	n/a	LTP324	ltpFR2	6	n/a	n/a	n/a	20	24	9	8	7
3453.266	n/a	PROB	1726633	n/a	LTP324	ltpFR2	6	n/a	n/a	n/a	20	13	5	5	3
3454.638	n/a	PROB	1727319	n/a	LTP324	ltpFR2	6	n/a	n/a	n/a	20	17	6	9	2
3455.958	n/a	STOP	1727979	n/a	LTP324	ltpFR2	6	n/a	n/a	n/a	20	n/a	n/a	n/a	n/a
3457.422	n/a	WORD	1728711	wordpools/wasnorm_wordpool_576.txt	LTP324	ltpFR2	6	14	PORTRAIT	1111	n/a	n/a	0	0	0
3460.174	n/a	WORD	1730087	wordpools/wasnorm_wordpool_576.txt	LTP324	ltpFR2	6	14	CAMEL	223	n/a	n/a	0	0	0
3462.81	n/a	WORD	1731405	wordpools/wasnorm_wordpool_576.txt	LTP324	ltpFR2	6	14	CRICKET	408	n/a	n/a	0	0	0
3465.394	n/a	WORD	1732697	wordpools/wasnorm_wordpool_576.txt	LTP324	ltpFR2	6	14	BATHTUB	100	n/a	n/a	0	0	0
3468.062	n/a	WORD	1734031	wordpools/wasnorm_wordpool_576.txt	LTP324	ltpFR2	6	14	GRILL	661	n/a	n/a	0	0	0
3470.766	n/a	WORD	1735383	wordpools/wasnorm_wordpool_576.txt	LTP324	ltpFR2	6	14	PROTON	1132	n/a	n/a	0	0	0
3473.234	n/a	WORD	1736617	wordpools/wasnorm_wordpool_576.txt	LTP324	ltpFR2	6	14	ATOM	55	n/a	n/a	0	0	0
3475.702	n/a	WORD	1737851	wordpools/wasnorm_wordpool_576.txt	LTP324	ltpFR2	6	14	PRIMATE	1123	n/a	n/a	0	0	0
3478.472	n/a	WORD	1739236	wordpools/wasnorm_wordpool_576.txt	LTP324	ltpFR2	6	14	CHURCH	307	n/a	n/a	0	0	0
3480.958	n/a	WORD	1740479	wordpools/wasnorm_wordpool_576.txt	LTP324	ltpFR2	6	14	BASEMENT	94	n/a	n/a	0	0	0
3483.694	n/a	WORD	1741847	wordpools/wasnorm_wordpool_576.txt	LTP324	ltpFR2	6	14	MILK	895	n/a	n/a	0	0	0
3486.512	n/a	WORD	1743256	wordpools/wasnorm_wordpool_576.txt	LTP324	ltpFR2	6	14	BARLEY	88	n/a	n/a	0	0	0
3489.264	n/a	WORD	1744632	wordpools/wasnorm_wordpool_576.txt	LTP324	ltpFR2	6	14	OINTMENT	974	n/a	n/a	0	0	0
3491.882	n/a	WORD	1745941	wordpools/wasnorm_wordpool_576.txt	LTP324	ltpFR2	6	14	LASER	801	n/a	n/a	0	0	0
3494.484	n/a	WORD	1747242	wordpools/wasnorm_wordpool_576.txt	LTP324	ltpFR2	6	14	LUMBER	848	n/a	n/a	0	0	0
3496.974	n/a	WORD	1748487	wordpools/wasnorm_wordpool_576.txt	LTP324	ltpFR2	6	14	CANAL	226	n/a	n/a	0	0	0
3499.46	n/a	WORD	1749730	wordpools/wasnorm_wordpool_576.txt	LTP324	ltpFR2	6	14	PASSAGE	1019	n/a	n/a	0	0	0
3502.124	n/a	WORD	1751062	wordpools/wasnorm_wordpool_576.txt	LTP324	ltpFR2	6	14	TERMITE	1451	n/a	n/a	0	0	0
3504.742	n/a	WORD	1752371	wordpools/wasnorm_wordpool_576.txt	LTP324	ltpFR2	6	14	SCRIBBLE	1256	n/a	n/a	0	0	0
3507.434	n/a	WORD	1753717	wordpools/wasnorm_wordpool_576.txt	LTP324	ltpFR2	6	14	BLADE	134	n/a	n/a	0	0	0
3510.236	n/a	WORD	1755118	wordpools/wasnorm_wordpool_576.txt	LTP324	ltpFR2	6	14	HATCHET	691	n/a	n/a	0	0	0
3512.714	n/a	WORD	1756357	wordpools/wasnorm_wordpool_576.txt	LTP324	ltpFR2	6	14	MAILMAN	858	n/a	n/a	0	0	0
3515.518	n/a	WORD	1757759	wordpools/wasnorm_wordpool_576.txt	LTP324	ltpFR2	6	14	THREAD	1460	n/a	n/a	0	0	0
3518.254	n/a	WORD	1759127	wordpools/wasnorm_wordpool_576.txt	LTP324	ltpFR2	6	14	COUCH	386	n/a	n/a	0	0	0
3519.862	n/a	START	1759931	n/a	LTP324	ltpFR2	6	n/a	n/a	n/a	21	n/a	n/a	n/a	n/a
3521.058	n/a	DISTRACTOR	1760529	n/a	LTP324	ltpFR2	6	14	n/a	n/a	n/a	n/a	0	0	0
3521.072	n/a	PROB	1760536	n/a	LTP324	ltpFR2	6	n/a	n/a	n/a	21	14	3	5	6
3522.278	n/a	PROB	1761139	n/a	LTP324	ltpFR2	6	n/a	n/a	n/a	21	6	3	2	1
3523.414	n/a	PROB	1761707	n/a	LTP324	ltpFR2	6	n/a	n/a	n/a	21	18	9	1	8
3524.446	n/a	PROB	1762223	n/a	LTP324	ltpFR2	6	n/a	n/a	n/a	21	14	4	2	6
3525.832	n/a	PROB	1762916	n/a	LTP324	ltpFR2	6	n/a	n/a	n/a	21	15	3	6	6
3527.816	n/a	PROB	1763908	n/a	LTP324	ltpFR2	6	n/a	n/a	n/a	21	12	2	5	5
3528.65	n/a	PROB	1764325	n/a	LTP324	ltpFR2	6	n/a	n/a	n/a	21	19	5	7	7
3529.784	n/a	PROB	1764892	n/a	LTP324	ltpFR2	6	n/a	n/a	n/a	21	21	6	8	7
3531.62	n/a	PROB	1765810	n/a	LTP324	ltpFR2	6	n/a	n/a	n/a	21	16	3	7	6
3533.104	n/a	PROB	1766552	n/a	LTP324	ltpFR2	6	n/a	n/a	n/a	21	20	9	8	3
3534.354	n/a	PROB	1767177	n/a	LTP324	ltpFR2	6	n/a	n/a	n/a	21	12	2	1	9
3535.57	n/a	PROB	1767785	n/a	LTP324	ltpFR2	6	n/a	n/a	n/a	21	12	7	3	2
3537.122	n/a	PROB	1768561	n/a	LTP324	ltpFR2	6	n/a	n/a	n/a	21	12	1	3	8
3538.442	n/a	PROB	1769221	n/a	LTP324	ltpFR2	6	n/a	n/a	n/a	21	11	4	3	4
3540.408	n/a	PROB	1770204	n/a	LTP324	ltpFR2	6	n/a	n/a	n/a	21	21	8	8	5
3541.644	n/a	PROB	1770822	n/a	LTP324	ltpFR2	6	n/a	n/a	n/a	21	21	9	8	4
3543.304	n/a	STOP	1771652	n/a	LTP324	ltpFR2	6	n/a	n/a	n/a	21	n/a	n/a	n/a	n/a
3545.78	n/a	REC_START	1772890	n/a	LTP324	ltpFR2	6	14	n/a	n/a	n/a	n/a	0	0	0
3546.504	n/a	REC_WORD	1773252	wordpools/wasnorm_wordpool_576.txt	LTP324	ltpFR2	6	14	TERMITE	1451	n/a	n/a	0	0	0
3547.714	n/a	REC_WORD	1773857	wordpools/wasnorm_wordpool_576.txt	LTP324	ltpFR2	6	14	HATCHET	691	n/a	n/a	0	0	0
3553.934	n/a	REC_WORD	1776967	wordpools/wasnorm_wordpool_576.txt	LTP324	ltpFR2	6	14	CAMEL	223	n/a	n/a	0	0	0
3653.76	n/a	DISTRACTOR	1826880	n/a	LTP324	ltpFR2	6	15	n/a	n/a	n/a	n/a	0	0	0
3653.76	n/a	START	1826880	n/a	LTP324	ltpFR2	6	n/a	n/a	n/a	22	n/a	n/a	n/a	n/a
3653.774	n/a	PROB	1826887	n/a	LTP324	ltpFR2	6	n/a	n/a	n/a	22	9	1	1	7
3654.658	n/a	PROB	1827329	n/a	LTP324	ltpFR2	6	n/a	n/a	n/a	22	19	9	2	8
3655.958	n/a	PROB	1827979	n/a	LTP324	ltpFR2	6	n/a	n/a	n/a	22	21	8	4	9
3657.362	n/a	PROB	1828681	n/a	LTP324	ltpFR2	6	n/a	n/a	n/a	22	12	7	2	3
3658.694	n/a	PROB	1829347	n/a	LTP324	ltpFR2	6	n/a	n/a	n/a	22	18	8	8	2
3659.896	n/a	PROB	1829948	n/a	LTP324	ltpFR2	6	n/a	n/a	n/a	22	12	1	7	4
3661.23	n/a	PROB	1830615	n/a	LTP324	ltpFR2	6	n/a	n/a	n/a	22	12	5	2	5
3662.048	n/a	PROB	1831024	n/a	LTP324	ltpFR2	6	n/a	n/a	n/a	22	27	9	8	7
3663.148	n/a	PROB	1831574	n/a	LTP324	ltpFR2	6	n/a	n/a	n/a	22	19	5	6	8
3664.714	n/a	PROB	1832357	n/a	LTP324	ltpFR2	6	n/a	n/a	n/a	22	14	6	2	4
3665.866	n/a	PROB	1832933	n/a	LTP324	ltpFR2	6	n/a	n/a	n/a	22	14	9	4	1
3668.438	n/a	PROB	1834219	n/a	LTP324	ltpFR2	6	n/a	n/a	n/a	22	9	4	4	1
3669.988	n/a	PROB	1834994	n/a	LTP324	ltpFR2	6	n/a	n/a	n/a	22	16	6	6	4
3671.238	n/a	PROB	1835619	n/a	LTP324	ltpFR2	6	n/a	n/a	n/a	22	23	6	8	9
3673.126	n/a	PROB	1836563	n/a	LTP324	ltpFR2	6	n/a	n/a	n/a	22	9	2	4	3
3674.66	n/a	PROB	1837330	n/a	LTP324	ltpFR2	6	n/a	n/a	n/a	22	17	4	8	5
3675.774	n/a	PROB	1837887	n/a	LTP324	ltpFR2	6	n/a	n/a	n/a	22	10	1	2	7
3677.084	n/a	STOP	1838542	n/a	LTP324	ltpFR2	6	n/a	n/a	n/a	22	n/a	n/a	n/a	n/a
3678.73	n/a	WORD	1839365	wordpools/wasnorm_wordpool_576.txt	LTP324	ltpFR2	6	15	BUREAU	199	n/a	n/a	0	0	0
3681.234	n/a	WORD	1840617	wordpools/wasnorm_wordpool_576.txt	LTP324	ltpFR2	6	15	PLAID	1080	n/a	n/a	0	0	0
3683.886	n/a	WORD	1841943	wordpools/wasnorm_wordpool_576.txt	LTP324	ltpFR2	6	15	BLENDER	136	n/a	n/a	0	0	0
3686.536	n/a	WORD	1843268	wordpools/wasnorm_wordpool_576.txt	LTP324	ltpFR2	6	15	WARDROBE	1587	n/a	n/a	0	0	0
3689.056	n/a	WORD	1844528	wordpools/wasnorm_wordpool_576.txt	LTP324	ltpFR2	6	15	SUNSET	1408	n/a	n/a	0	0	0
3691.774	n/a	WORD	1845887	wordpools/wasnorm_wordpool_576.txt	LTP324	ltpFR2	6	15	FRAGRANCE	599	n/a	n/a	0	0	0
3694.394	n/a	WORD	1847197	wordpools/wasnorm_wordpool_576.txt	LTP324	ltpFR2	6	15	FARMER	553	n/a	n/a	0	0	0
3697.012	n/a	WORD	1848506	wordpools/wasnorm_wordpool_576.txt	LTP324	ltpFR2	6	15	GARDEN	623	n/a	n/a	0	0	0
3699.748	n/a	WORD	1849874	wordpools/wasnorm_wordpool_576.txt	LTP324	ltpFR2	6	15	MATTRESS	879	n/a	n/a	0	0	0
3702.216	n/a	WORD	1851108	wordpools/wasnorm_wordpool_576.txt	LTP324	ltpFR2	6	15	CIGAR	308	n/a	n/a	0	0	0
3704.968	n/a	WORD	1852484	wordpools/wasnorm_wordpool_576.txt	LTP324	ltpFR2	6	15	STAR	1373	n/a	n/a	0	0	0
3707.672	n/a	WORD	1853836	wordpools/wasnorm_wordpool_576.txt	LTP324	ltpFR2	6	15	LILY	821	n/a	n/a	0	0	0
3710.388	n/a	WORD	1855194	wordpools/wasnorm_wordpool_576.txt	LTP324	ltpFR2	6	15	NURSE	963	n/a	n/a	0	0	0
3712.924	n/a	WORD	1856462	wordpools/wasnorm_wordpool_576.txt	LTP324	ltpFR2	6	15	BUGGY	188	n/a	n/a	0	0	0
3715.644	n/a	WORD	1857822	wordpools/wasnorm_wordpool_576.txt	LTP324	ltpFR2	6	15	WORLD	1622	n/a	n/a	0	0	0
3718.13	n/a	WORD	1859065	wordpools/wasnorm_wordpool_576.txt	LTP324	ltpFR2	6	15	ATLAS	53	n/a	n/a	0	0	0
3720.946	n/a	WORD	1860473	wordpools/wasnorm_wordpool_576.txt	LTP324	ltpFR2	6	15	ISLAND	745	n/a	n/a	0	0	0
3723.7	n/a	WORD	1861850	wordpools/wasnorm_wordpool_576.txt	LTP324	ltpFR2	6	15	GRAVEL	659	n/a	n/a	0	0	0
3726.134	n/a	WORD	1863067	wordpools/wasnorm_wordpool_576.txt	LTP324	ltpFR2	6	15	PIGEON	1065	n/a	n/a	0	0	0
3728.954	n/a	WORD	1864477	wordpools/wasnorm_wordpool_576.txt	LTP324	ltpFR2	6	15	FOOT	590	n/a	n/a	0	0	0
3731.556	n/a	WORD	1865778	wordpools/wasnorm_wordpool_576.txt	LTP324	ltpFR2	6	15	WHISKERS	1605	n/a	n/a	0	0	0
3734.108	n/a	WORD	1867054	wordpools/wasnorm_wordpool_576.txt	LTP324	ltpFR2	6	15	PASTRY	1022	n/a	n/a	0	0	0
3736.826	n/a	WORD	1868413	wordpools/wasnorm_wordpool_576.txt	LTP324	ltpFR2	6	15	MOTEL	919	n/a	n/a	0	0	0
3739.396	n/a	WORD	1869698	wordpools/wasnorm_wordpool_576.txt	LTP324	ltpFR2	6	15	DORM	488	n/a	n/a	0	0	0
3741.014	n/a	START	1870507	n/a	LTP324	ltpFR2	6	n/a	n/a	n/a	23	n/a	n/a	n/a	n/a
3742.002	n/a	DISTRACTOR	1871001	n/a	LTP324	ltpFR2	6	15	n/a	n/a	n/a	n/a	0	0	0
3742.014	n/a	PROB	1871007	n/a	LTP324	ltpFR2	6	n/a	n/a	n/a	23	10	5	4	1
3743.128	n/a	PROB	1871564	n/a	LTP324	ltpFR2	6	n/a	n/a	n/a	23	14	4	7	3
3744.886	n/a	PROB	1872443	n/a	LTP324	ltpFR2	6	n/a	n/a	n/a	23	16	4	6	6
3746.814	n/a	PROB	1873407	n/a	LTP324	ltpFR2	6	n/a	n/a	n/a	23	1	9	3	1
3747.986	n/a	PROB	1873993	n/a	LTP324	ltpFR2	6	n/a	n/a	n/a	23	15	8	3	4
3750.184	n/a	PROB	1875092	n/a	LTP324	ltpFR2	6	n/a	n/a	n/a	23	19	2	9	8
3751.59	n/a	PROB	1875795	n/a	LTP324	ltpFR2	6	n/a	n/a	n/a	23	9	4	3	2
3753.326	n/a	PROB	1876663	n/a	LTP324	ltpFR2	6	n/a	n/a	n/a	23	11	3	3	5
3754.344	n/a	PROB	1877172	n/a	LTP324	ltpFR2	6	n/a	n/a	n/a	23	15	3	5	7
3755.678	n/a	PROB	1877839	n/a	LTP324	ltpFR2	6	n/a	n/a	n/a	23	14	7	3	4
3757.246	n/a	PROB	1878623	n/a	LTP324	ltpFR2	6	n/a	n/a	n/a	23	15	3	4	8
3758.93	n/a	PROB	1879465	n/a	LTP324	ltpFR2	6	n/a	n/a	n/a	23	19	6	5	8
3760.35	n/a	PROB	1880175	n/a	LTP324	ltpFR2	6	n/a	n/a	n/a	23	14	8	2	4
3761.616	n/a	PROB	1880808	n/a	LTP324	ltpFR2	6	n/a	n/a	n/a	23	10	6	1	3
3762.868	n/a	PROB	1881434	n/a	LTP324	ltpFR2	6	n/a	n/a	n/a	23	18	7	3	8
3764.238	n/a	STOP	1882119	n/a	LTP324	ltpFR2	6	n/a	n/a	n/a	23	n/a	n/a	n/a	n/a
3766.804	n/a	REC_START	1883402	n/a	LTP324	ltpFR2	6	15	n/a	n/a	n/a	n/a	0	0	0
3769.856	n/a	REC_WORD	1884928	wordpools/wasnorm_wordpool_576.txt	LTP324	ltpFR2	6	15	GRAVEL	659	n/a	n/a	0	0	0
3770.46	n/a	REC_WORD	1885230	wordpools/wasnorm_wordpool_576.txt	LTP324	ltpFR2	6	15	ISLAND	745	n/a	n/a	0	0	0
3770.96	n/a	REC_WORD	1885480	wordpools/wasnorm_wordpool_576.txt	LTP324	ltpFR2	6	15	WORLD	1622	n/a	n/a	0	0	0
3771.388	n/a	REC_WORD	1885694	wordpools/wasnorm_wordpool_576.txt	LTP324	ltpFR2	6	15	ATLAS	53	n/a	n/a	0	0	0
3777.118	n/a	REC_WORD	1888559	wordpools/wasnorm_wordpool_576.txt	LTP324	ltpFR2	6	15	STAR	1373	n/a	n/a	0	0	0
3778.148	n/a	REC_WORD	1889074	wordpools/wasnorm_wordpool_576.txt	LTP324	ltpFR2	6	15	LILY	821	n/a	n/a	0	0	0
3779.018	n/a	REC_WORD	1889509	wordpools/wasnorm_wordpool_576.txt	LTP324	ltpFR2	6	15	NURSE	963	n/a	n/a	0	0	0
3794.134	n/a	REC_WORD	1897067	wordpools/wasnorm_wordpool_576.txt	LTP324	ltpFR2	6	15	SUNSET	1408	n/a	n/a	0	0	0
3795.134	n/a	REC_WORD_VV	1897567	wordpools/wasnorm_wordpool_576.txt	LTP324	ltpFR2	6	15	<>	-1	n/a	n/a	0	0	0
3797.958	n/a	REC_WORD	1898979	wordpools/wasnorm_wordpool_576.txt	LTP324	ltpFR2	6	15	FARMER	553	n/a	n/a	0	0	0
3798.832	n/a	REC_WORD	1899416	wordpools/wasnorm_wordpool_576.txt	LTP324	ltpFR2	6	15	GARDEN	623	n/a	n/a	0	0	0
3799.346	n/a	REC_WORD	1899673	wordpools/wasnorm_wordpool_576.txt	LTP324	ltpFR2	6	15	MATTRESS	879	n/a	n/a	0	0	0
3799.884	n/a	REC_WORD	1899942	wordpools/wasnorm_wordpool_576.txt	LTP324	ltpFR2	6	15	CIGAR	308	n/a	n/a	0	0	0
3877.366	n/a	WORD	1938683	wordpools/wasnorm_wordpool_576.txt	LTP324	ltpFR2	6	16	HAWK	692	n/a	n/a	0	0	0
3879.854	n/a	WORD	1939927	wordpools/wasnorm_wordpool_576.txt	LTP324	ltpFR2	6	16	QUAIL	1147	n/a	n/a	0	0	0
3882.626	n/a	WORD	1941313	wordpools/wasnorm_wordpool_576.txt	LTP324	ltpFR2	6	16	DRUG	501	n/a	n/a	0	0	0
3885.36	n/a	WORD	1942680	wordpools/wasnorm_wordpool_576.txt	LTP324	ltpFR2	6	16	MISSILE	900	n/a	n/a	0	0	0
3888.096	n/a	WORD	1944048	wordpools/wasnorm_wordpool_576.txt	LTP324	ltpFR2	6	16	SHERIFF	1284	n/a	n/a	0	0	0
3890.916	n/a	WORD	1945458	wordpools/wasnorm_wordpool_576.txt	LTP324	ltpFR2	6	16	CABBAGE	210	n/a	n/a	0	0	0
3893.432	n/a	WORD	1946716	wordpools/wasnorm_wordpool_576.txt	LTP324	ltpFR2	6	16	HONEY	713	n/a	n/a	0	0	0
3895.936	n/a	WORD	1947968	wordpools/wasnorm_wordpool_576.txt	LTP324	ltpFR2	6	16	MATCH	878	n/a	n/a	0	0	0
3898.62	n/a	WORD	1949310	wordpools/wasnorm_wordpool_576.txt	LTP324	ltpFR2	6	16	FIREMAN	569	n/a	n/a	0	0	0
3901.34	n/a	WORD	1950670	wordpools/wasnorm_wordpool_576.txt	LTP324	ltpFR2	6	16	APRON	35	n/a	n/a	0	0	0
3904.042	n/a	WORD	1952021	wordpools/wasnorm_wordpool_576.txt	LTP324	ltpFR2	6	16	ROBIN	1199	n/a	n/a	0	0	0
3906.726	n/a	WORD	1953363	wordpools/wasnorm_wordpool_576.txt	LTP324	ltpFR2	6	16	CONVICT	371	n/a	n/a	0	0	0
3909.43	n/a	WORD	1954715	wordpools/wasnorm_wordpool_576.txt	LTP324	ltpFR2	6	16	GREASE	660	n/a	n/a	0	0	0
3912.132	n/a	WORD	1956066	wordpools/wasnorm_wordpool_576.txt	LTP324	ltpFR2	6	16	GROUND	666	n/a	n/a	0	0	0
3914.668	n/a	WORD	1957334	wordpools/wasnorm_wordpool_576.txt	LTP324	ltpFR2	6	16	CEILING	265	n/a	n/a	0	0	0
3917.236	n/a	WORD	1958618	wordpools/wasnorm_wordpool_576.txt	LTP324	ltpFR2	6	16	ICEBERG	731	n/a	n/a	0	0	0
3919.688	n/a	WORD	1959844	wordpools/wasnorm_wordpool_576.txt	LTP324	ltpFR2	6	16	CREVICE	405	n/a	n/a	0	0	0
3922.408	n/a	WORD	1961204	wordpools/wasnorm_wordpool_576.txt	LTP324	ltpFR2	6	16	TYPIST	1532	n/a	n/a	0	0	0
3924.994	n/a	WORD	1962497	wordpools/wasnorm_wordpool_576.txt	LTP324	ltpFR2	6	16	SCALLOP	1242	n/a	n/a	0	0	0
3927.726	n/a	WORD	1963863	wordpools/wasnorm_wordpool_576.txt	LTP324	ltpFR2	6	16	MUSTARD	935	n/a	n/a	0	0	0
3930.264	n/a	WORD	1965132	wordpools/wasnorm_wordpool_576.txt	LTP324	ltpFR2	6	16	NOVEL	960	n/a	n/a	0	0	0
3932.832	n/a	WORD	1966416	wordpools/wasnorm_wordpool_576.txt	LTP324	ltpFR2	6	16	PILOT	1070	n/a	n/a	0	0	0
3935.6	n/a	WORD	1967800	wordpools/wasnorm_wordpool_576.txt	LTP324	ltpFR2	6	16	YOLK	1633	n/a	n/a	0	0	0
3938.07	n/a	WORD	1969035	wordpools/wasnorm_wordpool_576.txt	LTP324	ltpFR2	6	16	BOYFRIEND	162	n/a	n/a	0	0	0
