onset	duration	trial_type	sample	stim_file	subject	experiment	session	trial	item_name	item_num	list	answer	test_x	test_y	test_z
204.06	n/a	SESS_START	102030	n/a	LTP304	ltpFR2	15	n/a	n/a	n/a	n/a	n/a	0	0	0
217.33	n/a	START	108665	n/a	LTP304	ltpFR2	15	n/a	n/a	n/a	-1	n/a	n/a	n/a	n/a
217.354	n/a	PROB	108677	n/a	LTP304	ltpFR2	15	n/a	n/a	n/a	-1	12	6	4	2
219.264	n/a	PROB	109632	n/a	LTP304	ltpFR2	15	n/a	n/a	n/a	-1	9	6	2	1
220.446	n/a	PROB	110223	n/a	LTP304	ltpFR2	15	n/a	n/a	n/a	-1	16	5	2	9
222.098	n/a	PROB	111049	n/a	LTP304	ltpFR2	15	n/a	n/a	n/a	-1	18	5	5	8
223.548	n/a	PROB	111774	n/a	LTP304	ltpFR2	15	n/a	n/a	n/a	-1	24	7	8	9
225.366	n/a	PROB	112683	n/a	LTP304	ltpFR2	15	n/a	n/a	n/a	-1	13	4	8	1
227.152	n/a	PROB	113576	n/a	LTP304	ltpFR2	15	n/a	n/a	n/a	-1	11	5	4	2
228.514	n/a	STOP	114257	n/a	LTP304	ltpFR2	15	n/a	n/a	n/a	-1	n/a	n/a	n/a	n/a
251.234	n/a	DISTRACTOR	125617	n/a	LTP304	ltpFR2	15	1	n/a	n/a	n/a	n/a	0	0	0
251.234	n/a	START	125617	n/a	LTP304	ltpFR2	15	n/a	n/a	n/a	1	n/a	n/a	n/a	n/a
251.25	n/a	PROB	125625	n/a	LTP304	ltpFR2	15	n/a	n/a	n/a	1	15	8	2	5
253.122	n/a	PROB	126561	n/a	LTP304	ltpFR2	15	n/a	n/a	n/a	1	20	6	5	9
256.26	n/a	PROB	128130	n/a	LTP304	ltpFR2	15	n/a	n/a	n/a	1	11	1	1	9
257.392	n/a	PROB	128696	n/a	LTP304	ltpFR2	15	n/a	n/a	n/a	1	17	5	9	3
259.378	n/a	PROB	129689	n/a	LTP304	ltpFR2	15	n/a	n/a	n/a	1	14	4	3	7
260.742	n/a	PROB	130371	n/a	LTP304	ltpFR2	15	n/a	n/a	n/a	1	16	4	6	6
262.43	n/a	PROB	131215	n/a	LTP304	ltpFR2	15	n/a	n/a	n/a	1	9	1	2	6
263.764	n/a	PROB	131882	n/a	LTP304	ltpFR2	15	n/a	n/a	n/a	1	14	2	3	9
265.244	n/a	PROB	132622	n/a	LTP304	ltpFR2	15	n/a	n/a	n/a	1	13	3	5	5
266.28	n/a	PROB	133140	n/a	LTP304	ltpFR2	15	n/a	n/a	n/a	1	19	5	7	7
267.782	n/a	PROB	133891	n/a	LTP304	ltpFR2	15	n/a	n/a	n/a	1	16	5	2	9
269.284	n/a	PROB	134642	n/a	LTP304	ltpFR2	15	n/a	n/a	n/a	1	14	5	2	7
271.684	n/a	PROB	135842	n/a	LTP304	ltpFR2	15	n/a	n/a	n/a	1	18	3	6	9
272.972	n/a	PROB	136486	n/a	LTP304	ltpFR2	15	n/a	n/a	n/a	1	12	4	2	6
274.668	n/a	STOP	137334	n/a	LTP304	ltpFR2	15	n/a	n/a	n/a	1	n/a	n/a	n/a	n/a
276.372	n/a	WORD	138186	wordpools/wasnorm_wordpool_576.txt	LTP304	ltpFR2	15	1	PANTHER	1009	n/a	n/a	0	0	0
278.794	n/a	WORD	139397	wordpools/wasnorm_wordpool_576.txt	LTP304	ltpFR2	15	1	PISTOL	1075	n/a	n/a	0	0	0
281.36	n/a	WORD	140680	wordpools/wasnorm_wordpool_576.txt	LTP304	ltpFR2	15	1	PASTA	1021	n/a	n/a	0	0	0
283.814	n/a	WORD	141907	wordpools/wasnorm_wordpool_576.txt	LTP304	ltpFR2	15	1	BACKBONE	66	n/a	n/a	0	0	0
286.514	n/a	WORD	143257	wordpools/wasnorm_wordpool_576.txt	LTP304	ltpFR2	15	1	LILY	821	n/a	n/a	0	0	0
288.948	n/a	WORD	144474	wordpools/wasnorm_wordpool_576.txt	LTP304	ltpFR2	15	1	SPIDER	1351	n/a	n/a	0	0	0
291.6	n/a	WORD	145800	wordpools/wasnorm_wordpool_576.txt	LTP304	ltpFR2	15	1	OUTFIT	988	n/a	n/a	0	0	0
294.186	n/a	WORD	147093	wordpools/wasnorm_wordpool_576.txt	LTP304	ltpFR2	15	1	BRIEFCASE	175	n/a	n/a	0	0	0
296.772	n/a	WORD	148386	wordpools/wasnorm_wordpool_576.txt	LTP304	ltpFR2	15	1	CHILD	299	n/a	n/a	0	0	0
299.424	n/a	WORD	149712	wordpools/wasnorm_wordpool_576.txt	LTP304	ltpFR2	15	1	CHAUFFEUR	283	n/a	n/a	0	0	0
302.01	n/a	WORD	151005	wordpools/wasnorm_wordpool_576.txt	LTP304	ltpFR2	15	1	POCKET	1093	n/a	n/a	0	0	0
304.662	n/a	WORD	152331	wordpools/wasnorm_wordpool_576.txt	LTP304	ltpFR2	15	1	COUCH	386	n/a	n/a	0	0	0
307.348	n/a	WORD	153674	wordpools/wasnorm_wordpool_576.txt	LTP304	ltpFR2	15	1	TABLE	1426	n/a	n/a	0	0	0
309.918	n/a	WORD	154959	wordpools/wasnorm_wordpool_576.txt	LTP304	ltpFR2	15	1	PIGMENT	1066	n/a	n/a	0	0	0
312.352	n/a	WORD	156176	wordpools/wasnorm_wordpool_576.txt	LTP304	ltpFR2	15	1	DENIM	446	n/a	n/a	0	0	0
314.888	n/a	WORD	157444	wordpools/wasnorm_wordpool_576.txt	LTP304	ltpFR2	15	1	PIANO	1057	n/a	n/a	0	0	0
317.474	n/a	WORD	158737	wordpools/wasnorm_wordpool_576.txt	LTP304	ltpFR2	15	1	WHISTLE	1606	n/a	n/a	0	0	0
320.092	n/a	WORD	160046	wordpools/wasnorm_wordpool_576.txt	LTP304	ltpFR2	15	1	GLASS	639	n/a	n/a	0	0	0
322.56	n/a	WORD	161280	wordpools/wasnorm_wordpool_576.txt	LTP304	ltpFR2	15	1	SKIRT	1319	n/a	n/a	0	0	0
325.012	n/a	WORD	162506	wordpools/wasnorm_wordpool_576.txt	LTP304	ltpFR2	15	1	EUROPE	541	n/a	n/a	0	0	0
327.498	n/a	WORD	163749	wordpools/wasnorm_wordpool_576.txt	LTP304	ltpFR2	15	1	JAPAN	749	n/a	n/a	0	0	0
329.95	n/a	WORD	164975	wordpools/wasnorm_wordpool_576.txt	LTP304	ltpFR2	15	1	CRAYON	401	n/a	n/a	0	0	0
332.584	n/a	WORD	166292	wordpools/wasnorm_wordpool_576.txt	LTP304	ltpFR2	15	1	PICNIC	1060	n/a	n/a	0	0	0
335.17	n/a	WORD	167585	wordpools/wasnorm_wordpool_576.txt	LTP304	ltpFR2	15	1	KITCHEN	778	n/a	n/a	0	0	0
336.788	n/a	START	168394	n/a	LTP304	ltpFR2	15	n/a	n/a	n/a	2	n/a	n/a	n/a	n/a
337.742	n/a	DISTRACTOR	168871	n/a	LTP304	ltpFR2	15	1	n/a	n/a	n/a	n/a	0	0	0
337.756	n/a	PROB	168878	n/a	LTP304	ltpFR2	15	n/a	n/a	n/a	2	15	5	8	2
339.138	n/a	PROB	169569	n/a	LTP304	ltpFR2	15	n/a	n/a	n/a	2	20	4	9	7
341.092	n/a	PROB	170546	n/a	LTP304	ltpFR2	15	n/a	n/a	n/a	2	10	2	6	2
342.524	n/a	PROB	171262	n/a	LTP304	ltpFR2	15	n/a	n/a	n/a	2	17	6	2	9
344.844	n/a	PROB	172422	n/a	LTP304	ltpFR2	15	n/a	n/a	n/a	2	9	6	3	1
345.914	n/a	PROB	172957	n/a	LTP304	ltpFR2	15	n/a	n/a	n/a	2	15	4	9	2
347.662	n/a	PROB	173831	n/a	LTP304	ltpFR2	15	n/a	n/a	n/a	2	14	3	5	6
349.882	n/a	PROB	174941	n/a	LTP304	ltpFR2	15	n/a	n/a	n/a	2	22	6	8	8
351.732	n/a	PROB	175866	n/a	LTP304	ltpFR2	15	n/a	n/a	n/a	2	18	6	5	7
354.0	n/a	PROB	177000	n/a	LTP304	ltpFR2	15	n/a	n/a	n/a	2	20	7	4	9
356.452	n/a	PROB	178226	n/a	LTP304	ltpFR2	15	n/a	n/a	n/a	2	20	8	6	6
357.906	n/a	PROB	178953	n/a	LTP304	ltpFR2	15	n/a	n/a	n/a	2	18	8	9	1
359.436	n/a	STOP	179718	n/a	LTP304	ltpFR2	15	n/a	n/a	n/a	2	n/a	n/a	n/a	n/a
362.576	n/a	REC_START	181288	n/a	LTP304	ltpFR2	15	1	n/a	n/a	n/a	n/a	0	0	0
363.66	n/a	REC_WORD	181830	wordpools/wasnorm_wordpool_576.txt	LTP304	ltpFR2	15	1	PANTHER	1009	n/a	n/a	0	0	0
364.404	n/a	REC_WORD	182202	wordpools/wasnorm_wordpool_576.txt	LTP304	ltpFR2	15	1	PISTOL	1075	n/a	n/a	0	0	0
365.16	n/a	REC_WORD	182580	wordpools/wasnorm_wordpool_576.txt	LTP304	ltpFR2	15	1	PASTA	1021	n/a	n/a	0	0	0
366.53	n/a	REC_WORD	183265	wordpools/wasnorm_wordpool_576.txt	LTP304	ltpFR2	15	1	PICNIC	1060	n/a	n/a	0	0	0
367.172	n/a	REC_WORD	183586	wordpools/wasnorm_wordpool_576.txt	LTP304	ltpFR2	15	1	CRAYON	401	n/a	n/a	0	0	0
367.778	n/a	REC_WORD	183889	wordpools/wasnorm_wordpool_576.txt	LTP304	ltpFR2	15	1	GLASS	639	n/a	n/a	0	0	0
368.196	n/a	REC_WORD	184098	wordpools/wasnorm_wordpool_576.txt	LTP304	ltpFR2	15	1	SKIRT	1319	n/a	n/a	0	0	0
368.874	n/a	REC_WORD	184437	wordpools/wasnorm_wordpool_576.txt	LTP304	ltpFR2	15	1	EUROPE	541	n/a	n/a	0	0	0
369.416	n/a	REC_WORD	184708	wordpools/wasnorm_wordpool_576.txt	LTP304	ltpFR2	15	1	JAPAN	749	n/a	n/a	0	0	0
370.522	n/a	REC_WORD	185261	wordpools/wasnorm_wordpool_576.txt	LTP304	ltpFR2	15	1	COUCH	386	n/a	n/a	0	0	0
371.048	n/a	REC_WORD	185524	wordpools/wasnorm_wordpool_576.txt	LTP304	ltpFR2	15	1	TABLE	1426	n/a	n/a	0	0	0
377.004	n/a	REC_WORD	188502	wordpools/wasnorm_wordpool_576.txt	LTP304	ltpFR2	15	1	LILY	821	n/a	n/a	0	0	0
378.162	n/a	REC_WORD	189081	wordpools/wasnorm_wordpool_576.txt	LTP304	ltpFR2	15	1	BACKBONE	66	n/a	n/a	0	0	0
380.82	n/a	REC_WORD	190410	wordpools/wasnorm_wordpool_576.txt	LTP304	ltpFR2	15	1	SPIDER	1351	n/a	n/a	0	0	0
452.996	n/a	DISTRACTOR	226498	n/a	LTP304	ltpFR2	15	2	n/a	n/a	n/a	n/a	0	0	0
452.996	n/a	START	226498	n/a	LTP304	ltpFR2	15	n/a	n/a	n/a	3	n/a	n/a	n/a	n/a
453.01	n/a	PROB	226505	n/a	LTP304	ltpFR2	15	n/a	n/a	n/a	3	11	4	1	6
454.362	n/a	PROB	227181	n/a	LTP304	ltpFR2	15	n/a	n/a	n/a	3	17	6	8	3
456.916	n/a	PROB	228458	n/a	LTP304	ltpFR2	15	n/a	n/a	n/a	3	16	7	4	5
459.1	n/a	PROB	229550	n/a	LTP304	ltpFR2	15	n/a	n/a	n/a	3	14	3	6	5
460.868	n/a	PROB	230434	n/a	LTP304	ltpFR2	15	n/a	n/a	n/a	3	12	3	2	7
463.618	n/a	PROB	231809	n/a	LTP304	ltpFR2	15	n/a	n/a	n/a	3	10	1	1	8
464.652	n/a	PROB	232326	n/a	LTP304	ltpFR2	15	n/a	n/a	n/a	3	10	2	1	7
466.404	n/a	PROB	233202	n/a	LTP304	ltpFR2	15	n/a	n/a	n/a	3	20	9	7	4
468.974	n/a	PROB	234487	n/a	LTP304	ltpFR2	15	n/a	n/a	n/a	3	20	9	9	2
470.558	n/a	PROB	235279	n/a	LTP304	ltpFR2	15	n/a	n/a	n/a	3	17	6	7	4
472.926	n/a	PROB	236463	n/a	LTP304	ltpFR2	15	n/a	n/a	n/a	3	18	8	8	2
474.244	n/a	PROB	237122	n/a	LTP304	ltpFR2	15	n/a	n/a	n/a	3	11	5	1	5
476.996	n/a	STOP	238498	n/a	LTP304	ltpFR2	15	n/a	n/a	n/a	3	n/a	n/a	n/a	n/a
477.842	n/a	WORD	238921	wordpools/wasnorm_wordpool_576.txt	LTP304	ltpFR2	15	2	AIRPLANE	12	n/a	n/a	0	0	0
480.344	n/a	WORD	240172	wordpools/wasnorm_wordpool_576.txt	LTP304	ltpFR2	15	2	BELLY	119	n/a	n/a	0	0	0
482.882	n/a	WORD	241441	wordpools/wasnorm_wordpool_576.txt	LTP304	ltpFR2	15	2	BOYFRIEND	162	n/a	n/a	0	0	0
485.604	n/a	WORD	242802	wordpools/wasnorm_wordpool_576.txt	LTP304	ltpFR2	15	2	CITRUS	313	n/a	n/a	0	0	0
488.402	n/a	WORD	244201	wordpools/wasnorm_wordpool_576.txt	LTP304	ltpFR2	15	2	CARROT	249	n/a	n/a	0	0	0
490.892	n/a	WORD	245446	wordpools/wasnorm_wordpool_576.txt	LTP304	ltpFR2	15	2	STAMP	1370	n/a	n/a	0	0	0
493.39	n/a	WORD	246695	wordpools/wasnorm_wordpool_576.txt	LTP304	ltpFR2	15	2	TRUCK	1512	n/a	n/a	0	0	0
496.192	n/a	WORD	248096	wordpools/wasnorm_wordpool_576.txt	LTP304	ltpFR2	15	2	PARENT	1013	n/a	n/a	0	0	0
498.96	n/a	WORD	249480	wordpools/wasnorm_wordpool_576.txt	LTP304	ltpFR2	15	2	SHIRT	1287	n/a	n/a	0	0	0
501.562	n/a	WORD	250781	wordpools/wasnorm_wordpool_576.txt	LTP304	ltpFR2	15	2	DAUGHTER	442	n/a	n/a	0	0	0
504.098	n/a	WORD	252049	wordpools/wasnorm_wordpool_576.txt	LTP304	ltpFR2	15	2	YACHT	1629	n/a	n/a	0	0	0
506.634	n/a	WORD	253317	wordpools/wasnorm_wordpool_576.txt	LTP304	ltpFR2	15	2	WHISKERS	1605	n/a	n/a	0	0	0
509.086	n/a	WORD	254543	wordpools/wasnorm_wordpool_576.txt	LTP304	ltpFR2	15	2	TORTOISE	1486	n/a	n/a	0	0	0
511.554	n/a	WORD	255777	wordpools/wasnorm_wordpool_576.txt	LTP304	ltpFR2	15	2	THREAD	1460	n/a	n/a	0	0	0
514.292	n/a	WORD	257146	wordpools/wasnorm_wordpool_576.txt	LTP304	ltpFR2	15	2	FIREMAN	569	n/a	n/a	0	0	0
517.042	n/a	WORD	258521	wordpools/wasnorm_wordpool_576.txt	LTP304	ltpFR2	15	2	WIDOW	1608	n/a	n/a	0	0	0
519.628	n/a	WORD	259814	wordpools/wasnorm_wordpool_576.txt	LTP304	ltpFR2	15	2	WIFE	1609	n/a	n/a	0	0	0
522.066	n/a	WORD	261033	wordpools/wasnorm_wordpool_576.txt	LTP304	ltpFR2	15	2	PARSLEY	1016	n/a	n/a	0	0	0
524.682	n/a	WORD	262341	wordpools/wasnorm_wordpool_576.txt	LTP304	ltpFR2	15	2	PILOT	1070	n/a	n/a	0	0	0
527.484	n/a	WORD	263742	wordpools/wasnorm_wordpool_576.txt	LTP304	ltpFR2	15	2	UNCLE	1536	n/a	n/a	0	0	0
530.154	n/a	WORD	265077	wordpools/wasnorm_wordpool_576.txt	LTP304	ltpFR2	15	2	COUSIN	392	n/a	n/a	0	0	0
532.84	n/a	WORD	266420	wordpools/wasnorm_wordpool_576.txt	LTP304	ltpFR2	15	2	RABBIT	1152	n/a	n/a	0	0	0
535.392	n/a	WORD	267696	wordpools/wasnorm_wordpool_576.txt	LTP304	ltpFR2	15	2	SANDWICH	1232	n/a	n/a	0	0	0
538.194	n/a	WORD	269097	wordpools/wasnorm_wordpool_576.txt	LTP304	ltpFR2	15	2	MATCH	878	n/a	n/a	0	0	0
539.814	n/a	START	269907	n/a	LTP304	ltpFR2	15	n/a	n/a	n/a	4	n/a	n/a	n/a	n/a
540.842	n/a	DISTRACTOR	270421	n/a	LTP304	ltpFR2	15	2	n/a	n/a	n/a	n/a	0	0	0
540.848	n/a	PROB	270424	n/a	LTP304	ltpFR2	15	n/a	n/a	n/a	4	23	7	7	9
542.632	n/a	PROB	271316	n/a	LTP304	ltpFR2	15	n/a	n/a	n/a	4	20	7	7	6
544.6	n/a	PROB	272300	n/a	LTP304	ltpFR2	15	n/a	n/a	n/a	4	13	3	8	2
545.836	n/a	PROB	272918	n/a	LTP304	ltpFR2	15	n/a	n/a	n/a	4	21	6	8	7
548.872	n/a	PROB	274436	n/a	LTP304	ltpFR2	15	n/a	n/a	n/a	4	15	9	2	4
550.338	n/a	PROB	275169	n/a	LTP304	ltpFR2	15	n/a	n/a	n/a	4	13	6	5	2
553.49	n/a	PROB	276745	n/a	LTP304	ltpFR2	15	n/a	n/a	n/a	4	16	7	8	1
554.99	n/a	PROB	277495	n/a	LTP304	ltpFR2	15	n/a	n/a	n/a	4	13	3	1	9
556.708	n/a	PROB	278354	n/a	LTP304	ltpFR2	15	n/a	n/a	n/a	4	16	7	3	6
557.842	n/a	PROB	278921	n/a	LTP304	ltpFR2	15	n/a	n/a	n/a	4	18	3	7	8
559.042	n/a	PROB	279521	n/a	LTP304	ltpFR2	15	n/a	n/a	n/a	4	12	8	2	2
560.194	n/a	PROB	280097	n/a	LTP304	ltpFR2	15	n/a	n/a	n/a	4	12	7	4	1
563.814	n/a	STOP	281907	n/a	LTP304	ltpFR2	15	n/a	n/a	n/a	4	n/a	n/a	n/a	n/a
565.734	n/a	REC_START	282867	n/a	LTP304	ltpFR2	15	2	n/a	n/a	n/a	n/a	0	0	0
566.992	n/a	REC_WORD	283496	wordpools/wasnorm_wordpool_576.txt	LTP304	ltpFR2	15	2	AIRPLANE	12	n/a	n/a	0	0	0
568.184	n/a	REC_WORD	284092	wordpools/wasnorm_wordpool_576.txt	LTP304	ltpFR2	15	2	BELLY	119	n/a	n/a	0	0	0
568.858	n/a	REC_WORD	284429	wordpools/wasnorm_wordpool_576.txt	LTP304	ltpFR2	15	2	BOYFRIEND	162	n/a	n/a	0	0	0
569.564	n/a	REC_WORD	284782	wordpools/wasnorm_wordpool_576.txt	LTP304	ltpFR2	15	2	CITRUS	313	n/a	n/a	0	0	0
570.308	n/a	REC_WORD	285154	wordpools/wasnorm_wordpool_576.txt	LTP304	ltpFR2	15	2	CARROT	249	n/a	n/a	0	0	0
572.03	n/a	REC_WORD	286015	wordpools/wasnorm_wordpool_576.txt	LTP304	ltpFR2	15	2	YACHT	1629	n/a	n/a	0	0	0
572.818	n/a	REC_WORD	286409	wordpools/wasnorm_wordpool_576.txt	LTP304	ltpFR2	15	2	DAUGHTER	442	n/a	n/a	0	0	0
573.354	n/a	REC_WORD	286677	wordpools/wasnorm_wordpool_576.txt	LTP304	ltpFR2	15	2	PARENT	1013	n/a	n/a	0	0	0
573.814	n/a	REC_WORD	286907	wordpools/wasnorm_wordpool_576.txt	LTP304	ltpFR2	15	2	SHIRT	1287	n/a	n/a	0	0	0
574.354	n/a	REC_WORD	287177	wordpools/wasnorm_wordpool_576.txt	LTP304	ltpFR2	15	2	STAMP	1370	n/a	n/a	0	0	0
575.456	n/a	REC_WORD	287728	wordpools/wasnorm_wordpool_576.txt	LTP304	ltpFR2	15	2	TRUCK	1512	n/a	n/a	0	0	0
579.118	n/a	REC_WORD	289559	wordpools/wasnorm_wordpool_576.txt	LTP304	ltpFR2	15	2	UNCLE	1536	n/a	n/a	0	0	0
579.608	n/a	REC_WORD	289804	wordpools/wasnorm_wordpool_576.txt	LTP304	ltpFR2	15	2	COUSIN	392	n/a	n/a	0	0	0
580.178	n/a	REC_WORD	290089	wordpools/wasnorm_wordpool_576.txt	LTP304	ltpFR2	15	2	PILOT	1070	n/a	n/a	0	0	0
582.41	n/a	REC_WORD	291205	wordpools/wasnorm_wordpool_576.txt	LTP304	ltpFR2	15	2	WHISKERS	1605	n/a	n/a	0	0	0
583.154	n/a	REC_WORD	291577	wordpools/wasnorm_wordpool_576.txt	LTP304	ltpFR2	15	2	TORTOISE	1486	n/a	n/a	0	0	0
583.942	n/a	REC_WORD	291971	wordpools/wasnorm_wordpool_576.txt	LTP304	ltpFR2	15	2	RABBIT	1152	n/a	n/a	0	0	0
584.378	n/a	REC_WORD	292189	wordpools/wasnorm_wordpool_576.txt	LTP304	ltpFR2	15	2	SANDWICH	1232	n/a	n/a	0	0	0
656.17	n/a	WORD	328085	wordpools/wasnorm_wordpool_576.txt	LTP304	ltpFR2	15	3	MARS	873	n/a	n/a	0	0	0
658.74	n/a	WORD	329370	wordpools/wasnorm_wordpool_576.txt	LTP304	ltpFR2	15	3	COMET	353	n/a	n/a	0	0	0
661.308	n/a	WORD	330654	wordpools/wasnorm_wordpool_576.txt	LTP304	ltpFR2	15	3	ACTRESS	6	n/a	n/a	0	0	0
664.1	n/a	WORD	332050	wordpools/wasnorm_wordpool_576.txt	LTP304	ltpFR2	15	3	OX	994	n/a	n/a	0	0	0
666.904	n/a	WORD	333452	wordpools/wasnorm_wordpool_576.txt	LTP304	ltpFR2	15	3	SALAD	1224	n/a	n/a	0	0	0
669.622	n/a	WORD	334811	wordpools/wasnorm_wordpool_576.txt	LTP304	ltpFR2	15	3	MASK	876	n/a	n/a	0	0	0
672.308	n/a	WORD	336154	wordpools/wasnorm_wordpool_576.txt	LTP304	ltpFR2	15	3	MARKET	871	n/a	n/a	0	0	0
674.928	n/a	WORD	337464	wordpools/wasnorm_wordpool_576.txt	LTP304	ltpFR2	15	3	VIKING	1565	n/a	n/a	0	0	0
677.672	n/a	WORD	338836	wordpools/wasnorm_wordpool_576.txt	LTP304	ltpFR2	15	3	WAITER	1580	n/a	n/a	0	0	0
680.432	n/a	WORD	340216	wordpools/wasnorm_wordpool_576.txt	LTP304	ltpFR2	15	3	TWEEZERS	1526	n/a	n/a	0	0	0
682.892	n/a	WORD	341446	wordpools/wasnorm_wordpool_576.txt	LTP304	ltpFR2	15	3	PAPER	1011	n/a	n/a	0	0	0
685.702	n/a	WORD	342851	wordpools/wasnorm_wordpool_576.txt	LTP304	ltpFR2	15	3	JOURNAL	760	n/a	n/a	0	0	0
688.196	n/a	WORD	344098	wordpools/wasnorm_wordpool_576.txt	LTP304	ltpFR2	15	3	HEDGE	699	n/a	n/a	0	0	0
690.99	n/a	WORD	345495	wordpools/wasnorm_wordpool_576.txt	LTP304	ltpFR2	15	3	SPOOL	1356	n/a	n/a	0	0	0
693.7	n/a	WORD	346850	wordpools/wasnorm_wordpool_576.txt	LTP304	ltpFR2	15	3	MARROW	872	n/a	n/a	0	0	0
696.478	n/a	WORD	348239	wordpools/wasnorm_wordpool_576.txt	LTP304	ltpFR2	15	3	CROWN	415	n/a	n/a	0	0	0
699.238	n/a	WORD	349619	wordpools/wasnorm_wordpool_576.txt	LTP304	ltpFR2	15	3	RAZOR	1171	n/a	n/a	0	0	0
701.972	n/a	WORD	350986	wordpools/wasnorm_wordpool_576.txt	LTP304	ltpFR2	15	3	SNACK	1331	n/a	n/a	0	0	0
704.652	n/a	WORD	352326	wordpools/wasnorm_wordpool_576.txt	LTP304	ltpFR2	15	3	WRENCH	1625	n/a	n/a	0	0	0
707.21	n/a	WORD	353605	wordpools/wasnorm_wordpool_576.txt	LTP304	ltpFR2	15	3	PLIERS	1089	n/a	n/a	0	0	0
709.99	n/a	WORD	354995	wordpools/wasnorm_wordpool_576.txt	LTP304	ltpFR2	15	3	LUNCH	849	n/a	n/a	0	0	0
712.424	n/a	WORD	356212	wordpools/wasnorm_wordpool_576.txt	LTP304	ltpFR2	15	3	CATTLE	261	n/a	n/a	0	0	0
714.994	n/a	WORD	357497	wordpools/wasnorm_wordpool_576.txt	LTP304	ltpFR2	15	3	BULLET	194	n/a	n/a	0	0	0
717.53	n/a	WORD	358765	wordpools/wasnorm_wordpool_576.txt	LTP304	ltpFR2	15	3	VIRUS	1572	n/a	n/a	0	0	0
719.136	n/a	START	359568	n/a	LTP304	ltpFR2	15	n/a	n/a	n/a	5	n/a	n/a	n/a	n/a
720.2	n/a	DISTRACTOR	360100	n/a	LTP304	ltpFR2	15	3	n/a	n/a	n/a	n/a	0	0	0
720.216	n/a	PROB	360108	n/a	LTP304	ltpFR2	15	n/a	n/a	n/a	5	15	5	9	1
721.79	n/a	PROB	360895	n/a	LTP304	ltpFR2	15	n/a	n/a	n/a	5	17	5	8	4
724.006	n/a	PROB	362003	n/a	LTP304	ltpFR2	15	n/a	n/a	n/a	5	15	7	4	4
725.508	n/a	PROB	362754	n/a	LTP304	ltpFR2	15	n/a	n/a	n/a	5	21	9	4	8
727.426	n/a	PROB	363713	n/a	LTP304	ltpFR2	15	n/a	n/a	n/a	5	13	8	1	4
729.96	n/a	PROB	364980	n/a	LTP304	ltpFR2	15	n/a	n/a	n/a	5	13	2	2	9
731.898	n/a	PROB	365949	n/a	LTP304	ltpFR2	15	n/a	n/a	n/a	5	10	3	6	1
733.346	n/a	PROB	366673	n/a	LTP304	ltpFR2	15	n/a	n/a	n/a	5	21	8	7	6
735.632	n/a	PROB	367816	n/a	LTP304	ltpFR2	15	n/a	n/a	n/a	5	20	6	6	8
736.966	n/a	PROB	368483	n/a	LTP304	ltpFR2	15	n/a	n/a	n/a	5	18	7	7	4
738.55	n/a	PROB	369275	n/a	LTP304	ltpFR2	15	n/a	n/a	n/a	5	22	4	9	9
740.268	n/a	PROB	370134	n/a	LTP304	ltpFR2	15	n/a	n/a	n/a	5	11	3	2	6
742.05	n/a	STOP	371025	n/a	LTP304	ltpFR2	15	n/a	n/a	n/a	5	n/a	n/a	n/a	n/a
745.088	n/a	REC_START	372544	n/a	LTP304	ltpFR2	15	3	n/a	n/a	n/a	n/a	0	0	0
746.168	n/a	REC_WORD	373084	wordpools/wasnorm_wordpool_576.txt	LTP304	ltpFR2	15	3	MARS	873	n/a	n/a	0	0	0
746.884	n/a	REC_WORD	373442	wordpools/wasnorm_wordpool_576.txt	LTP304	ltpFR2	15	3	COMET	353	n/a	n/a	0	0	0
748.2	n/a	REC_WORD	374100	wordpools/wasnorm_wordpool_576.txt	LTP304	ltpFR2	15	3	OX	994	n/a	n/a	0	0	0
749.23	n/a	REC_WORD_VV	374615	wordpools/wasnorm_wordpool_576.txt	LTP304	ltpFR2	15	3	<>	-1	n/a	n/a	0	0	0
750.118	n/a	REC_WORD	375059	wordpools/wasnorm_wordpool_576.txt	LTP304	ltpFR2	15	3	WAITER	1580	n/a	n/a	0	0	0
751.832	n/a	REC_WORD	375916	wordpools/wasnorm_wordpool_576.txt	LTP304	ltpFR2	15	3	TWEEZERS	1526	n/a	n/a	0	0	0
753.96	n/a	REC_WORD_VV	376980	wordpools/wasnorm_wordpool_576.txt	LTP304	ltpFR2	15	3	<>	-1	n/a	n/a	0	0	0
768.428	n/a	REC_WORD	384214	wordpools/wasnorm_wordpool_576.txt	LTP304	ltpFR2	15	3	MOLD	-1	n/a	n/a	0	0	0
792.478	n/a	REC_WORD	396239	wordpools/wasnorm_wordpool_576.txt	LTP304	ltpFR2	15	3	PLIERS	1089	n/a	n/a	0	0	0
837.528	n/a	WORD	418764	wordpools/wasnorm_wordpool_576.txt	LTP304	ltpFR2	15	4	OZONE	996	n/a	n/a	0	0	0
839.966	n/a	WORD	419983	wordpools/wasnorm_wordpool_576.txt	LTP304	ltpFR2	15	4	JUGGLER	763	n/a	n/a	0	0	0
842.768	n/a	WORD	421384	wordpools/wasnorm_wordpool_576.txt	LTP304	ltpFR2	15	4	MUMMY	932	n/a	n/a	0	0	0
845.218	n/a	WORD	422609	wordpools/wasnorm_wordpool_576.txt	LTP304	ltpFR2	15	4	CAFE	216	n/a	n/a	0	0	0
847.858	n/a	WORD	423929	wordpools/wasnorm_wordpool_576.txt	LTP304	ltpFR2	15	4	LOVER	846	n/a	n/a	0	0	0
850.506	n/a	WORD	425253	wordpools/wasnorm_wordpool_576.txt	LTP304	ltpFR2	15	4	SEAGULL	1261	n/a	n/a	0	0	0
852.974	n/a	WORD	426487	wordpools/wasnorm_wordpool_576.txt	LTP304	ltpFR2	15	4	APPLE	33	n/a	n/a	0	0	0
855.644	n/a	WORD	427822	wordpools/wasnorm_wordpool_576.txt	LTP304	ltpFR2	15	4	SUNSET	1408	n/a	n/a	0	0	0
858.162	n/a	WORD	429081	wordpools/wasnorm_wordpool_576.txt	LTP304	ltpFR2	15	4	SUNRISE	1407	n/a	n/a	0	0	0
860.696	n/a	WORD	430348	wordpools/wasnorm_wordpool_576.txt	LTP304	ltpFR2	15	4	BLENDER	136	n/a	n/a	0	0	0
863.23	n/a	WORD	431615	wordpools/wasnorm_wordpool_576.txt	LTP304	ltpFR2	15	4	ACTOR	5	n/a	n/a	0	0	0
866.018	n/a	WORD	433009	wordpools/wasnorm_wordpool_576.txt	LTP304	ltpFR2	15	4	DAISY	435	n/a	n/a	0	0	0
868.792	n/a	WORD	434396	wordpools/wasnorm_wordpool_576.txt	LTP304	ltpFR2	15	4	HEADBAND	696	n/a	n/a	0	0	0
871.488	n/a	WORD	435744	wordpools/wasnorm_wordpool_576.txt	LTP304	ltpFR2	15	4	CORAL	378	n/a	n/a	0	0	0
874.106	n/a	WORD	437053	wordpools/wasnorm_wordpool_576.txt	LTP304	ltpFR2	15	4	HOSTESS	723	n/a	n/a	0	0	0
876.844	n/a	WORD	438422	wordpools/wasnorm_wordpool_576.txt	LTP304	ltpFR2	15	4	FILM	565	n/a	n/a	0	0	0
879.3	n/a	WORD	439650	wordpools/wasnorm_wordpool_576.txt	LTP304	ltpFR2	15	4	COWBOY	395	n/a	n/a	0	0	0
882.002	n/a	WORD	441001	wordpools/wasnorm_wordpool_576.txt	LTP304	ltpFR2	15	4	DANDRUFF	439	n/a	n/a	0	0	0
884.432	n/a	WORD	442216	wordpools/wasnorm_wordpool_576.txt	LTP304	ltpFR2	15	4	BUCKET	184	n/a	n/a	0	0	0
886.99	n/a	WORD	443495	wordpools/wasnorm_wordpool_576.txt	LTP304	ltpFR2	15	4	BATHTUB	100	n/a	n/a	0	0	0
889.81	n/a	WORD	444905	wordpools/wasnorm_wordpool_576.txt	LTP304	ltpFR2	15	4	TREAT	1501	n/a	n/a	0	0	0
892.362	n/a	WORD	446181	wordpools/wasnorm_wordpool_576.txt	LTP304	ltpFR2	15	4	SERVER	1272	n/a	n/a	0	0	0
894.98	n/a	WORD	447490	wordpools/wasnorm_wordpool_576.txt	LTP304	ltpFR2	15	4	CLOCK	325	n/a	n/a	0	0	0
897.734	n/a	WORD	448867	wordpools/wasnorm_wordpool_576.txt	LTP304	ltpFR2	15	4	PLAYGROUND	1087	n/a	n/a	0	0	0
899.344	n/a	START	449672	n/a	LTP304	ltpFR2	15	n/a	n/a	n/a	6	n/a	n/a	n/a	n/a
900.264	n/a	DISTRACTOR	450132	n/a	LTP304	ltpFR2	15	4	n/a	n/a	n/a	n/a	0	0	0
900.268	n/a	PROB	450134	n/a	LTP304	ltpFR2	15	n/a	n/a	n/a	6	13	4	6	3
902.396	n/a	PROB	451198	n/a	LTP304	ltpFR2	15	n/a	n/a	n/a	6	17	7	9	1
903.614	n/a	PROB	451807	n/a	LTP304	ltpFR2	15	n/a	n/a	n/a	6	4	1	2	1
904.746	n/a	PROB	452373	n/a	LTP304	ltpFR2	15	n/a	n/a	n/a	6	7	2	4	1
906.246	n/a	PROB	453123	n/a	LTP304	ltpFR2	15	n/a	n/a	n/a	6	12	1	7	4
907.632	n/a	PROB	453816	n/a	LTP304	ltpFR2	15	n/a	n/a	n/a	6	15	1	7	7
908.932	n/a	PROB	454466	n/a	LTP304	ltpFR2	15	n/a	n/a	n/a	6	12	1	6	5
910.416	n/a	PROB	455208	n/a	LTP304	ltpFR2	15	n/a	n/a	n/a	6	17	3	5	9
912.302	n/a	PROB	456151	n/a	LTP304	ltpFR2	15	n/a	n/a	n/a	6	14	5	6	3
914.304	n/a	PROB	457152	n/a	LTP304	ltpFR2	15	n/a	n/a	n/a	6	22	9	3	9
916.572	n/a	PROB	458286	n/a	LTP304	ltpFR2	15	n/a	n/a	n/a	6	6	1	1	4
917.656	n/a	PROB	458828	n/a	LTP304	ltpFR2	15	n/a	n/a	n/a	6	20	9	7	4
919.592	n/a	PROB	459796	n/a	LTP304	ltpFR2	15	n/a	n/a	n/a	6	13	5	5	3
920.66	n/a	PROB	460330	n/a	LTP304	ltpFR2	15	n/a	n/a	n/a	6	14	3	9	2
922.414	n/a	STOP	461207	n/a	LTP304	ltpFR2	15	n/a	n/a	n/a	6	n/a	n/a	n/a	n/a
925.28	n/a	REC_START	462640	n/a	LTP304	ltpFR2	15	4	n/a	n/a	n/a	n/a	0	0	0
928.592	n/a	REC_WORD	464296	wordpools/wasnorm_wordpool_576.txt	LTP304	ltpFR2	15	4	ACTOR	5	n/a	n/a	0	0	0
929.548	n/a	REC_WORD	464774	wordpools/wasnorm_wordpool_576.txt	LTP304	ltpFR2	15	4	DAISY	435	n/a	n/a	0	0	0
930.036	n/a	REC_WORD	465018	wordpools/wasnorm_wordpool_576.txt	LTP304	ltpFR2	15	4	HEADBAND	696	n/a	n/a	0	0	0
931.06	n/a	REC_WORD	465530	wordpools/wasnorm_wordpool_576.txt	LTP304	ltpFR2	15	4	CORAL	378	n/a	n/a	0	0	0
931.784	n/a	REC_WORD	465892	wordpools/wasnorm_wordpool_576.txt	LTP304	ltpFR2	15	4	WAITRESS	1581	n/a	n/a	0	0	0
932.784	n/a	REC_WORD_VV	466392	wordpools/wasnorm_wordpool_576.txt	LTP304	ltpFR2	15	4	<>	-1	n/a	n/a	0	0	0
933.972	n/a	REC_WORD	466986	wordpools/wasnorm_wordpool_576.txt	LTP304	ltpFR2	15	4	FILM	565	n/a	n/a	0	0	0
935.708	n/a	REC_WORD	467854	wordpools/wasnorm_wordpool_576.txt	LTP304	ltpFR2	15	4	DANDRUFF	439	n/a	n/a	0	0	0
936.622	n/a	REC_WORD	468311	wordpools/wasnorm_wordpool_576.txt	LTP304	ltpFR2	15	4	BUCKET	184	n/a	n/a	0	0	0
937.206	n/a	REC_WORD	468603	wordpools/wasnorm_wordpool_576.txt	LTP304	ltpFR2	15	4	BATHTUB	100	n/a	n/a	0	0	0
937.896	n/a	REC_WORD	468948	wordpools/wasnorm_wordpool_576.txt	LTP304	ltpFR2	15	4	TREAT	1501	n/a	n/a	0	0	0
948.948	n/a	REC_WORD	474474	wordpools/wasnorm_wordpool_576.txt	LTP304	ltpFR2	15	4	JUGGLER	763	n/a	n/a	0	0	0
954.214	n/a	REC_WORD	477107	wordpools/wasnorm_wordpool_576.txt	LTP304	ltpFR2	15	4	MUMMY	932	n/a	n/a	0	0	0
954.926	n/a	REC_WORD	477463	wordpools/wasnorm_wordpool_576.txt	LTP304	ltpFR2	15	4	CAFE	216	n/a	n/a	0	0	0
956.49	n/a	REC_WORD	478245	wordpools/wasnorm_wordpool_576.txt	LTP304	ltpFR2	15	4	LOVER	846	n/a	n/a	0	0	0
958.378	n/a	REC_WORD	479189	wordpools/wasnorm_wordpool_576.txt	LTP304	ltpFR2	15	4	SEAGULL	1261	n/a	n/a	0	0	0
968.526	n/a	REC_WORD	484263	wordpools/wasnorm_wordpool_576.txt	LTP304	ltpFR2	15	4	OZONE	996	n/a	n/a	0	0	0
1015.752	n/a	WORD	507876	wordpools/wasnorm_wordpool_576.txt	LTP304	ltpFR2	15	5	PRINCESS	1125	n/a	n/a	0	0	0
1018.468	n/a	WORD	509234	wordpools/wasnorm_wordpool_576.txt	LTP304	ltpFR2	15	5	PALACE	1006	n/a	n/a	0	0	0
1021.004	n/a	WORD	510502	wordpools/wasnorm_wordpool_576.txt	LTP304	ltpFR2	15	5	SAUSAGE	1238	n/a	n/a	0	0	0
1023.506	n/a	WORD	511753	wordpools/wasnorm_wordpool_576.txt	LTP304	ltpFR2	15	5	CUSTARD	429	n/a	n/a	0	0	0
1026.176	n/a	WORD	513088	wordpools/wasnorm_wordpool_576.txt	LTP304	ltpFR2	15	5	SPOON	1357	n/a	n/a	0	0	0
1028.676	n/a	WORD	514338	wordpools/wasnorm_wordpool_576.txt	LTP304	ltpFR2	15	5	REBEL	1172	n/a	n/a	0	0	0
1031.446	n/a	WORD	515723	wordpools/wasnorm_wordpool_576.txt	LTP304	ltpFR2	15	5	BODY	145	n/a	n/a	0	0	0
1034.232	n/a	WORD	517116	wordpools/wasnorm_wordpool_576.txt	LTP304	ltpFR2	15	5	CIGAR	308	n/a	n/a	0	0	0
1036.734	n/a	WORD	518367	wordpools/wasnorm_wordpool_576.txt	LTP304	ltpFR2	15	5	BARLEY	88	n/a	n/a	0	0	0
1039.534	n/a	WORD	519767	wordpools/wasnorm_wordpool_576.txt	LTP304	ltpFR2	15	5	QUARTER	1148	n/a	n/a	0	0	0
1042.104	n/a	WORD	521052	wordpools/wasnorm_wordpool_576.txt	LTP304	ltpFR2	15	5	SPOUSE	1358	n/a	n/a	0	0	0
1044.908	n/a	WORD	522454	wordpools/wasnorm_wordpool_576.txt	LTP304	ltpFR2	15	5	PISTON	1076	n/a	n/a	0	0	0
1047.542	n/a	WORD	523771	wordpools/wasnorm_wordpool_576.txt	LTP304	ltpFR2	15	5	LODGE	839	n/a	n/a	0	0	0
1050.078	n/a	WORD	525039	wordpools/wasnorm_wordpool_576.txt	LTP304	ltpFR2	15	5	DRILL	497	n/a	n/a	0	0	0
1052.53	n/a	WORD	526265	wordpools/wasnorm_wordpool_576.txt	LTP304	ltpFR2	15	5	SERVANT	1271	n/a	n/a	0	0	0
1055.064	n/a	WORD	527532	wordpools/wasnorm_wordpool_576.txt	LTP304	ltpFR2	15	5	BROOK	177	n/a	n/a	0	0	0
1057.9	n/a	WORD	528950	wordpools/wasnorm_wordpool_576.txt	LTP304	ltpFR2	15	5	FLASK	576	n/a	n/a	0	0	0
1060.418	n/a	WORD	530209	wordpools/wasnorm_wordpool_576.txt	LTP304	ltpFR2	15	5	LACE	792	n/a	n/a	0	0	0
1063.024	n/a	WORD	531512	wordpools/wasnorm_wordpool_576.txt	LTP304	ltpFR2	15	5	DRESS	495	n/a	n/a	0	0	0
1065.84	n/a	WORD	532920	wordpools/wasnorm_wordpool_576.txt	LTP304	ltpFR2	15	5	MAPLE	866	n/a	n/a	0	0	0
1068.308	n/a	WORD	534154	wordpools/wasnorm_wordpool_576.txt	LTP304	ltpFR2	15	5	CAMEL	223	n/a	n/a	0	0	0
1070.746	n/a	WORD	535373	wordpools/wasnorm_wordpool_576.txt	LTP304	ltpFR2	15	5	ROBOT	1200	n/a	n/a	0	0	0
1073.398	n/a	WORD	536699	wordpools/wasnorm_wordpool_576.txt	LTP304	ltpFR2	15	5	MEAT	883	n/a	n/a	0	0	0
1075.916	n/a	WORD	537958	wordpools/wasnorm_wordpool_576.txt	LTP304	ltpFR2	15	5	MARINE	869	n/a	n/a	0	0	0
1077.534	n/a	START	538767	n/a	LTP304	ltpFR2	15	n/a	n/a	n/a	7	n/a	n/a	n/a	n/a
1078.572	n/a	DISTRACTOR	539286	n/a	LTP304	ltpFR2	15	5	n/a	n/a	n/a	n/a	0	0	0
1078.582	n/a	PROB	539291	n/a	LTP304	ltpFR2	15	n/a	n/a	n/a	7	23	6	9	8
1082.166	n/a	PROB	541083	n/a	LTP304	ltpFR2	15	n/a	n/a	n/a	7	12	1	7	4
1084.286	n/a	PROB	542143	n/a	LTP304	ltpFR2	15	n/a	n/a	n/a	7	12	5	3	4
1085.97	n/a	PROB	542985	n/a	LTP304	ltpFR2	15	n/a	n/a	n/a	7	6	1	4	1
1087.07	n/a	PROB	543535	n/a	LTP304	ltpFR2	15	n/a	n/a	n/a	7	11	1	4	6
1088.256	n/a	PROB	544128	n/a	LTP304	ltpFR2	15	n/a	n/a	n/a	7	13	2	7	4
1090.908	n/a	PROB	545454	n/a	LTP304	ltpFR2	15	n/a	n/a	n/a	7	11	2	3	6
1092.626	n/a	PROB	546313	n/a	LTP304	ltpFR2	15	n/a	n/a	n/a	7	21	6	6	9
1094.094	n/a	PROB	547047	n/a	LTP304	ltpFR2	15	n/a	n/a	n/a	7	20	6	6	8
1096.796	n/a	PROB	548398	n/a	LTP304	ltpFR2	15	n/a	n/a	n/a	7	15	6	4	5
1097.864	n/a	PROB	548932	n/a	LTP304	ltpFR2	15	n/a	n/a	n/a	7	16	6	9	1
1098.998	n/a	PROB	549499	n/a	LTP304	ltpFR2	15	n/a	n/a	n/a	7	12	7	3	2
1100.016	n/a	PROB	550008	n/a	LTP304	ltpFR2	15	n/a	n/a	n/a	7	17	7	7	3
1101.184	n/a	STOP	550592	n/a	LTP304	ltpFR2	15	n/a	n/a	n/a	7	n/a	n/a	n/a	n/a
1103.334	n/a	REC_START	551667	n/a	LTP304	ltpFR2	15	5	n/a	n/a	n/a	n/a	0	0	0
1104.94	n/a	REC_WORD	552470	wordpools/wasnorm_wordpool_576.txt	LTP304	ltpFR2	15	5	PRINCESS	1125	n/a	n/a	0	0	0
1105.722	n/a	REC_WORD	552861	wordpools/wasnorm_wordpool_576.txt	LTP304	ltpFR2	15	5	PALACE	1006	n/a	n/a	0	0	0
1115.716	n/a	REC_WORD	557858	wordpools/wasnorm_wordpool_576.txt	LTP304	ltpFR2	15	5	MEAT	883	n/a	n/a	0	0	0
1127.432	n/a	REC_WORD_VV	563716	wordpools/wasnorm_wordpool_576.txt	LTP304	ltpFR2	15	5	<>	-1	n/a	n/a	0	0	0
1193.774	n/a	WORD	596887	wordpools/wasnorm_wordpool_576.txt	LTP304	ltpFR2	15	6	BUNNY	198	n/a	n/a	0	0	0
1196.386	n/a	WORD	598193	wordpools/wasnorm_wordpool_576.txt	LTP304	ltpFR2	15	6	GARLIC	624	n/a	n/a	0	0	0
1198.954	n/a	WORD	599477	wordpools/wasnorm_wordpool_576.txt	LTP304	ltpFR2	15	6	STAPLE	1371	n/a	n/a	0	0	0
1201.758	n/a	WORD	600879	wordpools/wasnorm_wordpool_576.txt	LTP304	ltpFR2	15	6	HARP	689	n/a	n/a	0	0	0
1204.542	n/a	WORD	602271	wordpools/wasnorm_wordpool_576.txt	LTP304	ltpFR2	15	6	DANCER	437	n/a	n/a	0	0	0
1207.096	n/a	WORD	603548	wordpools/wasnorm_wordpool_576.txt	LTP304	ltpFR2	15	6	DRUG	501	n/a	n/a	0	0	0
1209.602	n/a	WORD	604801	wordpools/wasnorm_wordpool_576.txt	LTP304	ltpFR2	15	6	TUBA	1515	n/a	n/a	0	0	0
1212.05	n/a	WORD	606025	wordpools/wasnorm_wordpool_576.txt	LTP304	ltpFR2	15	6	TURNIP	1521	n/a	n/a	0	0	0
1214.768	n/a	WORD	607384	wordpools/wasnorm_wordpool_576.txt	LTP304	ltpFR2	15	6	BEAST	108	n/a	n/a	0	0	0
1217.524	n/a	WORD	608762	wordpools/wasnorm_wordpool_576.txt	LTP304	ltpFR2	15	6	CHIPMUNK	304	n/a	n/a	0	0	0
1219.956	n/a	WORD	609978	wordpools/wasnorm_wordpool_576.txt	LTP304	ltpFR2	15	6	RUG	1215	n/a	n/a	0	0	0
1222.558	n/a	WORD	611279	wordpools/wasnorm_wordpool_576.txt	LTP304	ltpFR2	15	6	TART	1436	n/a	n/a	0	0	0
1224.976	n/a	WORD	612488	wordpools/wasnorm_wordpool_576.txt	LTP304	ltpFR2	15	6	SALT	1229	n/a	n/a	0	0	0
1227.428	n/a	WORD	613714	wordpools/wasnorm_wordpool_576.txt	LTP304	ltpFR2	15	6	JURY	766	n/a	n/a	0	0	0
1230.03	n/a	WORD	615015	wordpools/wasnorm_wordpool_576.txt	LTP304	ltpFR2	15	6	RACKET	1155	n/a	n/a	0	0	0
1232.466	n/a	WORD	616233	wordpools/wasnorm_wordpool_576.txt	LTP304	ltpFR2	15	6	LOFT	840	n/a	n/a	0	0	0
1235.052	n/a	WORD	617526	wordpools/wasnorm_wordpool_576.txt	LTP304	ltpFR2	15	6	TABLET	1427	n/a	n/a	0	0	0
1237.558	n/a	WORD	618779	wordpools/wasnorm_wordpool_576.txt	LTP304	ltpFR2	15	6	SCARECROW	1245	n/a	n/a	0	0	0
1240.256	n/a	WORD	620128	wordpools/wasnorm_wordpool_576.txt	LTP304	ltpFR2	15	6	FARMER	553	n/a	n/a	0	0	0
1242.958	n/a	WORD	621479	wordpools/wasnorm_wordpool_576.txt	LTP304	ltpFR2	15	6	YARN	1631	n/a	n/a	0	0	0
1245.598	n/a	WORD	622799	wordpools/wasnorm_wordpool_576.txt	LTP304	ltpFR2	15	6	SMOG	1330	n/a	n/a	0	0	0
1248.23	n/a	WORD	624115	wordpools/wasnorm_wordpool_576.txt	LTP304	ltpFR2	15	6	AIRPORT	13	n/a	n/a	0	0	0
1250.95	n/a	WORD	625475	wordpools/wasnorm_wordpool_576.txt	LTP304	ltpFR2	15	6	FEMALE	559	n/a	n/a	0	0	0
1253.568	n/a	WORD	626784	wordpools/wasnorm_wordpool_576.txt	LTP304	ltpFR2	15	6	NIGHTGOWN	953	n/a	n/a	0	0	0
1255.186	n/a	START	627593	n/a	LTP304	ltpFR2	15	n/a	n/a	n/a	8	n/a	n/a	n/a	n/a
1256.37	n/a	DISTRACTOR	628185	n/a	LTP304	ltpFR2	15	6	n/a	n/a	n/a	n/a	0	0	0
1256.386	n/a	PROB	628193	n/a	LTP304	ltpFR2	15	n/a	n/a	n/a	8	10	5	4	1
1257.906	n/a	PROB	628953	n/a	LTP304	ltpFR2	15	n/a	n/a	n/a	8	16	6	9	1
1259.206	n/a	PROB	629603	n/a	LTP304	ltpFR2	15	n/a	n/a	n/a	8	17	4	7	6
1261.124	n/a	PROB	630562	n/a	LTP304	ltpFR2	15	n/a	n/a	n/a	8	3	1	1	1
1262.158	n/a	PROB	631079	n/a	LTP304	ltpFR2	15	n/a	n/a	n/a	8	14	4	8	2
1263.342	n/a	PROB	631671	n/a	LTP304	ltpFR2	15	n/a	n/a	n/a	8	12	4	7	1
1265.478	n/a	PROB	632739	n/a	LTP304	ltpFR2	15	n/a	n/a	n/a	8	9	7	1	1
1266.712	n/a	PROB	633356	n/a	LTP304	ltpFR2	15	n/a	n/a	n/a	8	13	7	2	4
1268.53	n/a	PROB	634265	n/a	LTP304	ltpFR2	15	n/a	n/a	n/a	8	14	5	7	2
1270.948	n/a	PROB	635474	n/a	LTP304	ltpFR2	15	n/a	n/a	n/a	8	18	9	2	7
1272.902	n/a	PROB	636451	n/a	LTP304	ltpFR2	15	n/a	n/a	n/a	8	15	7	3	5
1274.686	n/a	PROB	637343	n/a	LTP304	ltpFR2	15	n/a	n/a	n/a	8	15	6	3	6
1279.186	n/a	STOP	639593	n/a	LTP304	ltpFR2	15	n/a	n/a	n/a	8	n/a	n/a	n/a	n/a
1281.024	n/a	REC_START	640512	n/a	LTP304	ltpFR2	15	6	n/a	n/a	n/a	n/a	0	0	0
1282.476	n/a	REC_WORD	641238	wordpools/wasnorm_wordpool_576.txt	LTP304	ltpFR2	15	6	NIGHTGOWN	953	n/a	n/a	0	0	0
1286.602	n/a	REC_WORD	643301	wordpools/wasnorm_wordpool_576.txt	LTP304	ltpFR2	15	6	STAPLE	1371	n/a	n/a	0	0	0
1347.144	n/a	REC_WORD	673572	wordpools/wasnorm_wordpool_576.txt	LTP304	ltpFR2	15	6	CIGAR	308	n/a	n/a	0	0	0
1352.754	n/a	REC_WORD	676377	wordpools/wasnorm_wordpool_576.txt	LTP304	ltpFR2	15	6	SAUSAGE	1238	n/a	n/a	0	0	0
1371.46	n/a	WORD	685730	wordpools/wasnorm_wordpool_576.txt	LTP304	ltpFR2	15	7	BALLOON	75	n/a	n/a	0	0	0
1373.986	n/a	WORD	686993	wordpools/wasnorm_wordpool_576.txt	LTP304	ltpFR2	15	7	GUITAR	670	n/a	n/a	0	0	0
1376.8	n/a	WORD	688400	wordpools/wasnorm_wordpool_576.txt	LTP304	ltpFR2	15	7	DASHBOARD	441	n/a	n/a	0	0	0
1379.602	n/a	WORD	689801	wordpools/wasnorm_wordpool_576.txt	LTP304	ltpFR2	15	7	MOTOR	922	n/a	n/a	0	0	0
1382.42	n/a	WORD	691210	wordpools/wasnorm_wordpool_576.txt	LTP304	ltpFR2	15	7	WRIST	1626	n/a	n/a	0	0	0
1385.03	n/a	WORD	692515	wordpools/wasnorm_wordpool_576.txt	LTP304	ltpFR2	15	7	TAXI	1438	n/a	n/a	0	0	0
1387.826	n/a	WORD	693913	wordpools/wasnorm_wordpool_576.txt	LTP304	ltpFR2	15	7	HOOD	714	n/a	n/a	0	0	0
1390.61	n/a	WORD	695305	wordpools/wasnorm_wordpool_576.txt	LTP304	ltpFR2	15	7	MACHINE	852	n/a	n/a	0	0	0
1393.286	n/a	WORD	696643	wordpools/wasnorm_wordpool_576.txt	LTP304	ltpFR2	15	7	PADDING	999	n/a	n/a	0	0	0
1395.882	n/a	WORD	697941	wordpools/wasnorm_wordpool_576.txt	LTP304	ltpFR2	15	7	MATTRESS	879	n/a	n/a	0	0	0
1398.558	n/a	WORD	699279	wordpools/wasnorm_wordpool_576.txt	LTP304	ltpFR2	15	7	FINGER	567	n/a	n/a	0	0	0
1401.102	n/a	WORD	700551	wordpools/wasnorm_wordpool_576.txt	LTP304	ltpFR2	15	7	REPORT	1184	n/a	n/a	0	0	0
1403.536	n/a	WORD	701768	wordpools/wasnorm_wordpool_576.txt	LTP304	ltpFR2	15	7	SHOVEL	1295	n/a	n/a	0	0	0
1406.154	n/a	WORD	703077	wordpools/wasnorm_wordpool_576.txt	LTP304	ltpFR2	15	7	CREVICE	405	n/a	n/a	0	0	0
1408.6	n/a	WORD	704300	wordpools/wasnorm_wordpool_576.txt	LTP304	ltpFR2	15	7	SWORD	1423	n/a	n/a	0	0	0
1411.034	n/a	WORD	705517	wordpools/wasnorm_wordpool_576.txt	LTP304	ltpFR2	15	7	INFANT	737	n/a	n/a	0	0	0
1413.56	n/a	WORD	706780	wordpools/wasnorm_wordpool_576.txt	LTP304	ltpFR2	15	7	TWISTER	1530	n/a	n/a	0	0	0
1416.13	n/a	WORD	708065	wordpools/wasnorm_wordpool_576.txt	LTP304	ltpFR2	15	7	VALLEY	1545	n/a	n/a	0	0	0
1418.832	n/a	WORD	709416	wordpools/wasnorm_wordpool_576.txt	LTP304	ltpFR2	15	7	TEMPLE	1448	n/a	n/a	0	0	0
1421.26	n/a	WORD	710630	wordpools/wasnorm_wordpool_576.txt	LTP304	ltpFR2	15	7	PREACHER	1119	n/a	n/a	0	0	0
1423.946	n/a	WORD	711973	wordpools/wasnorm_wordpool_576.txt	LTP304	ltpFR2	15	7	PEACH	1031	n/a	n/a	0	0	0
1426.38	n/a	WORD	713190	wordpools/wasnorm_wordpool_576.txt	LTP304	ltpFR2	15	7	COOK	372	n/a	n/a	0	0	0
1428.818	n/a	WORD	714409	wordpools/wasnorm_wordpool_576.txt	LTP304	ltpFR2	15	7	FRUIT	610	n/a	n/a	0	0	0
1431.336	n/a	WORD	715668	wordpools/wasnorm_wordpool_576.txt	LTP304	ltpFR2	15	7	SNAIL	1332	n/a	n/a	0	0	0
1432.944	n/a	START	716472	n/a	LTP304	ltpFR2	15	n/a	n/a	n/a	9	n/a	n/a	n/a	n/a
1433.926	n/a	DISTRACTOR	716963	n/a	LTP304	ltpFR2	15	7	n/a	n/a	n/a	n/a	0	0	0
1433.938	n/a	PROB	716969	n/a	LTP304	ltpFR2	15	n/a	n/a	n/a	9	16	6	5	5
1435.376	n/a	PROB	717688	n/a	LTP304	ltpFR2	15	n/a	n/a	n/a	9	18	1	9	8
1436.594	n/a	PROB	718297	n/a	LTP304	ltpFR2	15	n/a	n/a	n/a	9	11	5	1	5
1437.696	n/a	PROB	718848	n/a	LTP304	ltpFR2	15	n/a	n/a	n/a	9	12	7	1	4
1439.232	n/a	PROB	719616	n/a	LTP304	ltpFR2	15	n/a	n/a	n/a	9	18	8	8	2
1440.564	n/a	PROB	720282	n/a	LTP304	ltpFR2	15	n/a	n/a	n/a	9	13	1	8	4
1442.032	n/a	PROB	721016	n/a	LTP304	ltpFR2	15	n/a	n/a	n/a	9	18	7	7	4
1443.4	n/a	PROB	721700	n/a	LTP304	ltpFR2	15	n/a	n/a	n/a	9	19	7	4	8
1445.284	n/a	PROB	722642	n/a	LTP304	ltpFR2	15	n/a	n/a	n/a	9	10	2	5	3
1447.202	n/a	PROB	723601	n/a	LTP304	ltpFR2	15	n/a	n/a	n/a	9	17	5	4	8
1450.022	n/a	PROB	725011	n/a	LTP304	ltpFR2	15	n/a	n/a	n/a	9	16	4	5	7
1451.974	n/a	PROB	725987	n/a	LTP304	ltpFR2	15	n/a	n/a	n/a	9	14	8	3	3
1453.658	n/a	PROB	726829	n/a	LTP304	ltpFR2	15	n/a	n/a	n/a	9	14	7	1	6
1455.11	n/a	PROB	727555	n/a	LTP304	ltpFR2	15	n/a	n/a	n/a	9	19	9	6	4
1456.374	n/a	STOP	728187	n/a	LTP304	ltpFR2	15	n/a	n/a	n/a	9	n/a	n/a	n/a	n/a
1458.832	n/a	REC_START	729416	n/a	LTP304	ltpFR2	15	7	n/a	n/a	n/a	n/a	0	0	0
1459.608	n/a	REC_WORD	729804	wordpools/wasnorm_wordpool_576.txt	LTP304	ltpFR2	15	7	GUITAR	670	n/a	n/a	0	0	0
1460.162	n/a	REC_WORD	730081	wordpools/wasnorm_wordpool_576.txt	LTP304	ltpFR2	15	7	BALLOON	75	n/a	n/a	0	0	0
1461.096	n/a	REC_WORD	730548	wordpools/wasnorm_wordpool_576.txt	LTP304	ltpFR2	15	7	DASHBOARD	441	n/a	n/a	0	0	0
1462.164	n/a	REC_WORD	731082	wordpools/wasnorm_wordpool_576.txt	LTP304	ltpFR2	15	7	MOTOR	922	n/a	n/a	0	0	0
1463.072	n/a	REC_WORD	731536	wordpools/wasnorm_wordpool_576.txt	LTP304	ltpFR2	15	7	HOOD	714	n/a	n/a	0	0	0
1464.482	n/a	REC_WORD	732241	wordpools/wasnorm_wordpool_576.txt	LTP304	ltpFR2	15	7	TAXI	1438	n/a	n/a	0	0	0
1465.218	n/a	REC_WORD	732609	wordpools/wasnorm_wordpool_576.txt	LTP304	ltpFR2	15	7	PADDING	999	n/a	n/a	0	0	0
1465.816	n/a	REC_WORD	732908	wordpools/wasnorm_wordpool_576.txt	LTP304	ltpFR2	15	7	FINGER	567	n/a	n/a	0	0	0
1467.46	n/a	REC_WORD	733730	wordpools/wasnorm_wordpool_576.txt	LTP304	ltpFR2	15	7	MACHINE	852	n/a	n/a	0	0	0
1469.288	n/a	REC_WORD	734644	wordpools/wasnorm_wordpool_576.txt	LTP304	ltpFR2	15	7	INFANT	737	n/a	n/a	0	0	0
1470.17	n/a	REC_WORD	735085	wordpools/wasnorm_wordpool_576.txt	LTP304	ltpFR2	15	7	MATTRESS	879	n/a	n/a	0	0	0
1471.578	n/a	REC_WORD	735789	wordpools/wasnorm_wordpool_576.txt	LTP304	ltpFR2	15	7	CREVICE	405	n/a	n/a	0	0	0
1472.158	n/a	REC_WORD	736079	wordpools/wasnorm_wordpool_576.txt	LTP304	ltpFR2	15	7	SWORD	1423	n/a	n/a	0	0	0
1473.038	n/a	REC_WORD	736519	wordpools/wasnorm_wordpool_576.txt	LTP304	ltpFR2	15	7	SHOVEL	1295	n/a	n/a	0	0	0
1473.794	n/a	REC_WORD	736897	wordpools/wasnorm_wordpool_576.txt	LTP304	ltpFR2	15	7	REPORT	1184	n/a	n/a	0	0	0
1476.18	n/a	REC_WORD	738090	wordpools/wasnorm_wordpool_576.txt	LTP304	ltpFR2	15	7	TWISTER	1530	n/a	n/a	0	0	0
1476.852	n/a	REC_WORD	738426	wordpools/wasnorm_wordpool_576.txt	LTP304	ltpFR2	15	7	VALLEY	1545	n/a	n/a	0	0	0
1479.778	n/a	REC_WORD	739889	wordpools/wasnorm_wordpool_576.txt	LTP304	ltpFR2	15	7	TEMPLE	1448	n/a	n/a	0	0	0
1480.45	n/a	REC_WORD	740225	wordpools/wasnorm_wordpool_576.txt	LTP304	ltpFR2	15	7	PREACHER	1119	n/a	n/a	0	0	0
1480.982	n/a	REC_WORD	740491	wordpools/wasnorm_wordpool_576.txt	LTP304	ltpFR2	15	7	PEACH	1031	n/a	n/a	0	0	0
1481.508	n/a	REC_WORD	740754	wordpools/wasnorm_wordpool_576.txt	LTP304	ltpFR2	15	7	COOK	372	n/a	n/a	0	0	0
1482.982	n/a	REC_WORD	741491	wordpools/wasnorm_wordpool_576.txt	LTP304	ltpFR2	15	7	FRUIT	610	n/a	n/a	0	0	0
1484.672	n/a	REC_WORD	742336	wordpools/wasnorm_wordpool_576.txt	LTP304	ltpFR2	15	7	SNAIL	1332	n/a	n/a	0	0	0
1502.116	n/a	REC_WORD	751058	wordpools/wasnorm_wordpool_576.txt	LTP304	ltpFR2	15	7	WRIST	1626	n/a	n/a	0	0	0
1549.284	n/a	DISTRACTOR	774642	n/a	LTP304	ltpFR2	15	8	n/a	n/a	n/a	n/a	0	0	0
1549.284	n/a	START	774642	n/a	LTP304	ltpFR2	15	n/a	n/a	n/a	10	n/a	n/a	n/a	n/a
1549.3	n/a	PROB	774650	n/a	LTP304	ltpFR2	15	n/a	n/a	n/a	10	17	6	7	4
1551.72	n/a	PROB	775860	n/a	LTP304	ltpFR2	15	n/a	n/a	n/a	10	14	2	5	7
1555.57	n/a	PROB	777785	n/a	LTP304	ltpFR2	15	n/a	n/a	n/a	10	18	9	7	2
1557.004	n/a	PROB	778502	n/a	LTP304	ltpFR2	15	n/a	n/a	n/a	10	14	5	7	2
1558.924	n/a	PROB	779462	n/a	LTP304	ltpFR2	15	n/a	n/a	n/a	10	18	7	4	7
1561.124	n/a	PROB	780562	n/a	LTP304	ltpFR2	15	n/a	n/a	n/a	10	9	4	1	4
1562.426	n/a	PROB	781213	n/a	LTP304	ltpFR2	15	n/a	n/a	n/a	10	16	7	3	6
1564.446	n/a	PROB	782223	n/a	LTP304	ltpFR2	15	n/a	n/a	n/a	10	12	4	4	4
1565.912	n/a	PROB	782956	n/a	LTP304	ltpFR2	15	n/a	n/a	n/a	10	21	9	2	9
1568.08	n/a	PROB	784040	n/a	LTP304	ltpFR2	15	n/a	n/a	n/a	10	16	8	1	7
1569.948	n/a	PROB	784974	n/a	LTP304	ltpFR2	15	n/a	n/a	n/a	10	17	3	8	6
1571.968	n/a	STOP	785984	n/a	LTP304	ltpFR2	15	n/a	n/a	n/a	10	n/a	n/a	n/a	n/a
1574.402	n/a	WORD	787201	wordpools/wasnorm_wordpool_576.txt	LTP304	ltpFR2	15	8	RUST	1219	n/a	n/a	0	0	0
1577.192	n/a	WORD	788596	wordpools/wasnorm_wordpool_576.txt	LTP304	ltpFR2	15	8	KEEPER	769	n/a	n/a	0	0	0
1579.758	n/a	WORD	789879	wordpools/wasnorm_wordpool_576.txt	LTP304	ltpFR2	15	8	SNAKE	1333	n/a	n/a	0	0	0
1582.258	n/a	WORD	791129	wordpools/wasnorm_wordpool_576.txt	LTP304	ltpFR2	15	8	PASTRY	1022	n/a	n/a	0	0	0
1584.682	n/a	WORD	792341	wordpools/wasnorm_wordpool_576.txt	LTP304	ltpFR2	15	8	LETTUCE	814	n/a	n/a	0	0	0
1587.13	n/a	WORD	793565	wordpools/wasnorm_wordpool_576.txt	LTP304	ltpFR2	15	8	SCALLOP	1242	n/a	n/a	0	0	0
1589.748	n/a	WORD	794874	wordpools/wasnorm_wordpool_576.txt	LTP304	ltpFR2	15	8	GARBAGE	622	n/a	n/a	0	0	0
1592.422	n/a	WORD	796211	wordpools/wasnorm_wordpool_576.txt	LTP304	ltpFR2	15	8	PUDDING	1139	n/a	n/a	0	0	0
1594.952	n/a	WORD	797476	wordpools/wasnorm_wordpool_576.txt	LTP304	ltpFR2	15	8	COMPASS	358	n/a	n/a	0	0	0
1597.676	n/a	WORD	798838	wordpools/wasnorm_wordpool_576.txt	LTP304	ltpFR2	15	8	NOTEBOOK	959	n/a	n/a	0	0	0
1600.44	n/a	WORD	800220	wordpools/wasnorm_wordpool_576.txt	LTP304	ltpFR2	15	8	ARM	38	n/a	n/a	0	0	0
1603.148	n/a	WORD	801574	wordpools/wasnorm_wordpool_576.txt	LTP304	ltpFR2	15	8	QUAIL	1147	n/a	n/a	0	0	0
1605.752	n/a	WORD	802876	wordpools/wasnorm_wordpool_576.txt	LTP304	ltpFR2	15	8	BUGGY	188	n/a	n/a	0	0	0
1608.212	n/a	WORD	804106	wordpools/wasnorm_wordpool_576.txt	LTP304	ltpFR2	15	8	BANJO	82	n/a	n/a	0	0	0
1610.938	n/a	WORD	805469	wordpools/wasnorm_wordpool_576.txt	LTP304	ltpFR2	15	8	ATOM	55	n/a	n/a	0	0	0
1613.5	n/a	WORD	806750	wordpools/wasnorm_wordpool_576.txt	LTP304	ltpFR2	15	8	GUARD	667	n/a	n/a	0	0	0
1616.186	n/a	WORD	808093	wordpools/wasnorm_wordpool_576.txt	LTP304	ltpFR2	15	8	BLADE	134	n/a	n/a	0	0	0
1618.704	n/a	WORD	809352	wordpools/wasnorm_wordpool_576.txt	LTP304	ltpFR2	15	8	JELLO	754	n/a	n/a	0	0	0
1621.506	n/a	WORD	810753	wordpools/wasnorm_wordpool_576.txt	LTP304	ltpFR2	15	8	SHORTCAKE	1292	n/a	n/a	0	0	0
1623.948	n/a	WORD	811974	wordpools/wasnorm_wordpool_576.txt	LTP304	ltpFR2	15	8	PLAID	1080	n/a	n/a	0	0	0
1626.728	n/a	WORD	813364	wordpools/wasnorm_wordpool_576.txt	LTP304	ltpFR2	15	8	ZIPPER	1636	n/a	n/a	0	0	0
1629.186	n/a	WORD	814593	wordpools/wasnorm_wordpool_576.txt	LTP304	ltpFR2	15	8	JUNGLE	764	n/a	n/a	0	0	0
1631.922	n/a	WORD	815961	wordpools/wasnorm_wordpool_576.txt	LTP304	ltpFR2	15	8	PRIMATE	1123	n/a	n/a	0	0	0
1634.692	n/a	WORD	817346	wordpools/wasnorm_wordpool_576.txt	LTP304	ltpFR2	15	8	NEUTRON	947	n/a	n/a	0	0	0
1636.302	n/a	START	818151	n/a	LTP304	ltpFR2	15	n/a	n/a	n/a	11	n/a	n/a	n/a	n/a
1637.316	n/a	DISTRACTOR	818658	n/a	LTP304	ltpFR2	15	8	n/a	n/a	n/a	n/a	0	0	0
1637.326	n/a	PROB	818663	n/a	LTP304	ltpFR2	15	n/a	n/a	n/a	11	14	9	3	2
1639.336	n/a	PROB	819668	n/a	LTP304	ltpFR2	15	n/a	n/a	n/a	11	23	9	7	7
1640.97	n/a	PROB	820485	n/a	LTP304	ltpFR2	15	n/a	n/a	n/a	11	9	2	4	3
1643.406	n/a	PROB	821703	n/a	LTP304	ltpFR2	15	n/a	n/a	n/a	11	17	9	2	6
1645.14	n/a	PROB	822570	n/a	LTP304	ltpFR2	15	n/a	n/a	n/a	11	16	7	1	8
1646.576	n/a	PROB	823288	n/a	LTP304	ltpFR2	15	n/a	n/a	n/a	11	22	9	6	7
1648.628	n/a	PROB	824314	n/a	LTP304	ltpFR2	15	n/a	n/a	n/a	11	12	1	2	9
1650.878	n/a	PROB	825439	n/a	LTP304	ltpFR2	15	n/a	n/a	n/a	11	12	2	3	7
1651.962	n/a	PROB	825981	n/a	LTP304	ltpFR2	15	n/a	n/a	n/a	11	22	7	6	9
1653.766	n/a	PROB	826883	n/a	LTP304	ltpFR2	15	n/a	n/a	n/a	11	15	9	3	3
1655.314	n/a	PROB	827657	n/a	LTP304	ltpFR2	15	n/a	n/a	n/a	11	19	8	8	3
1657.248	n/a	PROB	828624	n/a	LTP304	ltpFR2	15	n/a	n/a	n/a	11	9	1	6	2
1658.978	n/a	STOP	829489	n/a	LTP304	ltpFR2	15	n/a	n/a	n/a	11	n/a	n/a	n/a	n/a
1662.238	n/a	REC_START	831119	n/a	LTP304	ltpFR2	15	8	n/a	n/a	n/a	n/a	0	0	0
1727.938	n/a	REC_WORD_VV	863969	wordpools/wasnorm_wordpool_576.txt	LTP304	ltpFR2	15	8	<>	-1	n/a	n/a	0	0	0
1738.78	n/a	REST_REWET	869390	n/a	LTP304	ltpFR2	15	8	n/a	n/a	n/a	n/a	0	0	0
2029.524	n/a	DISTRACTOR	1014762	n/a	LTP304	ltpFR2	15	9	n/a	n/a	n/a	n/a	0	0	0
2029.524	n/a	START	1014762	n/a	LTP304	ltpFR2	15	n/a	n/a	n/a	12	n/a	n/a	n/a	n/a
2029.54	n/a	PROB	1014770	n/a	LTP304	ltpFR2	15	n/a	n/a	n/a	12	22	7	8	7
2032.176	n/a	PROB	1016088	n/a	LTP304	ltpFR2	15	n/a	n/a	n/a	12	13	3	7	3
2033.41	n/a	PROB	1016705	n/a	LTP304	ltpFR2	15	n/a	n/a	n/a	12	14	3	9	2
2035.144	n/a	PROB	1017572	n/a	LTP304	ltpFR2	15	n/a	n/a	n/a	12	17	7	5	5
2036.296	n/a	PROB	1018148	n/a	LTP304	ltpFR2	15	n/a	n/a	n/a	12	13	5	4	4
2039.366	n/a	PROB	1019683	n/a	LTP304	ltpFR2	15	n/a	n/a	n/a	12	12	4	4	4
2040.564	n/a	PROB	1020282	n/a	LTP304	ltpFR2	15	n/a	n/a	n/a	12	10	3	2	5
2044.634	n/a	PROB	1022317	n/a	LTP304	ltpFR2	15	n/a	n/a	n/a	12	15	7	4	4
2047.52	n/a	PROB	1023760	n/a	LTP304	ltpFR2	15	n/a	n/a	n/a	12	22	6	7	8
2049.406	n/a	PROB	1024703	n/a	LTP304	ltpFR2	15	n/a	n/a	n/a	12	18	1	9	8
2050.99	n/a	PROB	1025495	n/a	LTP304	ltpFR2	15	n/a	n/a	n/a	12	14	7	4	3
2052.778	n/a	STOP	1026389	n/a	LTP304	ltpFR2	15	n/a	n/a	n/a	12	n/a	n/a	n/a	n/a
2054.614	n/a	WORD	1027307	wordpools/wasnorm_wordpool_576.txt	LTP304	ltpFR2	15	9	TILE	1468	n/a	n/a	0	0	0
2057.18	n/a	WORD	1028590	wordpools/wasnorm_wordpool_576.txt	LTP304	ltpFR2	15	9	BEAVER	109	n/a	n/a	0	0	0
2059.682	n/a	WORD	1029841	wordpools/wasnorm_wordpool_576.txt	LTP304	ltpFR2	15	9	CREATURE	403	n/a	n/a	0	0	0
2062.282	n/a	WORD	1031141	wordpools/wasnorm_wordpool_576.txt	LTP304	ltpFR2	15	9	MOTEL	919	n/a	n/a	0	0	0
2064.786	n/a	WORD	1032393	wordpools/wasnorm_wordpool_576.txt	LTP304	ltpFR2	15	9	ITEM	746	n/a	n/a	0	0	0
2067.37	n/a	WORD	1033685	wordpools/wasnorm_wordpool_576.txt	LTP304	ltpFR2	15	9	GRIZZLY	662	n/a	n/a	0	0	0
2070.022	n/a	WORD	1035011	wordpools/wasnorm_wordpool_576.txt	LTP304	ltpFR2	15	9	STONE	1385	n/a	n/a	0	0	0
2072.574	n/a	WORD	1036287	wordpools/wasnorm_wordpool_576.txt	LTP304	ltpFR2	15	9	LIGHTNING	820	n/a	n/a	0	0	0
2075.06	n/a	WORD	1037530	wordpools/wasnorm_wordpool_576.txt	LTP304	ltpFR2	15	9	STICKER	1382	n/a	n/a	0	0	0
2077.528	n/a	WORD	1038764	wordpools/wasnorm_wordpool_576.txt	LTP304	ltpFR2	15	9	LAMP	798	n/a	n/a	0	0	0
2080.32	n/a	WORD	1040160	wordpools/wasnorm_wordpool_576.txt	LTP304	ltpFR2	15	9	KIDNEY	776	n/a	n/a	0	0	0
2082.784	n/a	WORD	1041392	wordpools/wasnorm_wordpool_576.txt	LTP304	ltpFR2	15	9	MOP	916	n/a	n/a	0	0	0
2085.452	n/a	WORD	1042726	wordpools/wasnorm_wordpool_576.txt	LTP304	ltpFR2	15	9	GALLON	618	n/a	n/a	0	0	0
2088.16	n/a	WORD	1044080	wordpools/wasnorm_wordpool_576.txt	LTP304	ltpFR2	15	9	STAKE	1368	n/a	n/a	0	0	0
2090.656	n/a	WORD	1045328	wordpools/wasnorm_wordpool_576.txt	LTP304	ltpFR2	15	9	ROD	1203	n/a	n/a	0	0	0
2093.274	n/a	WORD	1046637	wordpools/wasnorm_wordpool_576.txt	LTP304	ltpFR2	15	9	SWITCH	1422	n/a	n/a	0	0	0
2095.716	n/a	WORD	1047858	wordpools/wasnorm_wordpool_576.txt	LTP304	ltpFR2	15	9	POPCORN	1104	n/a	n/a	0	0	0
2098.21	n/a	WORD	1049105	wordpools/wasnorm_wordpool_576.txt	LTP304	ltpFR2	15	9	HATCHET	691	n/a	n/a	0	0	0
2100.704	n/a	WORD	1050352	wordpools/wasnorm_wordpool_576.txt	LTP304	ltpFR2	15	9	UMPIRE	1535	n/a	n/a	0	0	0
2103.414	n/a	WORD	1051707	wordpools/wasnorm_wordpool_576.txt	LTP304	ltpFR2	15	9	MILK	895	n/a	n/a	0	0	0
2106.074	n/a	WORD	1053037	wordpools/wasnorm_wordpool_576.txt	LTP304	ltpFR2	15	9	SLOPE	1328	n/a	n/a	0	0	0
2108.586	n/a	WORD	1054293	wordpools/wasnorm_wordpool_576.txt	LTP304	ltpFR2	15	9	SUMMIT	1405	n/a	n/a	0	0	0
2111.212	n/a	WORD	1055606	wordpools/wasnorm_wordpool_576.txt	LTP304	ltpFR2	15	9	LUGGAGE	847	n/a	n/a	0	0	0
2113.774	n/a	WORD	1056887	wordpools/wasnorm_wordpool_576.txt	LTP304	ltpFR2	15	9	HAMPER	682	n/a	n/a	0	0	0
2115.384	n/a	START	1057692	n/a	LTP304	ltpFR2	15	n/a	n/a	n/a	13	n/a	n/a	n/a	n/a
2116.556	n/a	DISTRACTOR	1058278	n/a	LTP304	ltpFR2	15	9	n/a	n/a	n/a	n/a	0	0	0
2116.566	n/a	PROB	1058283	n/a	LTP304	ltpFR2	15	n/a	n/a	n/a	13	15	3	9	3
2118.274	n/a	PROB	1059137	n/a	LTP304	ltpFR2	15	n/a	n/a	n/a	13	12	2	7	3
2119.644	n/a	PROB	1059822	n/a	LTP304	ltpFR2	15	n/a	n/a	n/a	13	14	6	2	6
2121.328	n/a	PROB	1060664	n/a	LTP304	ltpFR2	15	n/a	n/a	n/a	13	16	4	9	3
2123.33	n/a	PROB	1061665	n/a	LTP304	ltpFR2	15	n/a	n/a	n/a	13	18	8	6	4
2124.85	n/a	PROB	1062425	n/a	LTP304	ltpFR2	15	n/a	n/a	n/a	13	17	7	5	5
2125.998	n/a	PROB	1062999	n/a	LTP304	ltpFR2	15	n/a	n/a	n/a	13	10	5	4	1
2127.334	n/a	PROB	1063667	n/a	LTP304	ltpFR2	15	n/a	n/a	n/a	13	15	6	5	4
2128.87	n/a	PROB	1064435	n/a	LTP304	ltpFR2	15	n/a	n/a	n/a	13	9	3	2	4
2130.586	n/a	PROB	1065293	n/a	LTP304	ltpFR2	15	n/a	n/a	n/a	13	23	7	9	7
2132.204	n/a	PROB	1066102	n/a	LTP304	ltpFR2	15	n/a	n/a	n/a	13	14	1	7	6
2133.688	n/a	PROB	1066844	n/a	LTP304	ltpFR2	15	n/a	n/a	n/a	13	12	8	3	1
2135.14	n/a	PROB	1067570	n/a	LTP304	ltpFR2	15	n/a	n/a	n/a	13	16	8	3	5
2136.558	n/a	PROB	1068279	n/a	LTP304	ltpFR2	15	n/a	n/a	n/a	13	10	1	6	3
2137.916	n/a	STOP	1068958	n/a	LTP304	ltpFR2	15	n/a	n/a	n/a	13	n/a	n/a	n/a	n/a
2141.244	n/a	REC_START	1070622	n/a	LTP304	ltpFR2	15	9	n/a	n/a	n/a	n/a	0	0	0
2142.318	n/a	REC_WORD	1071159	wordpools/wasnorm_wordpool_576.txt	LTP304	ltpFR2	15	9	MOTEL	919	n/a	n/a	0	0	0
2143.274	n/a	REC_WORD	1071637	wordpools/wasnorm_wordpool_576.txt	LTP304	ltpFR2	15	9	BEAVER	109	n/a	n/a	0	0	0
2143.754	n/a	REC_WORD	1071877	wordpools/wasnorm_wordpool_576.txt	LTP304	ltpFR2	15	9	TILE	1468	n/a	n/a	0	0	0
2145.292	n/a	REC_WORD	1072646	wordpools/wasnorm_wordpool_576.txt	LTP304	ltpFR2	15	9	GRIZZLY	662	n/a	n/a	0	0	0
2145.998	n/a	REC_WORD	1072999	wordpools/wasnorm_wordpool_576.txt	LTP304	ltpFR2	15	9	STICKER	1382	n/a	n/a	0	0	0
2146.542	n/a	REC_WORD	1073271	wordpools/wasnorm_wordpool_576.txt	LTP304	ltpFR2	15	9	LAMP	798	n/a	n/a	0	0	0
2147.422	n/a	REC_WORD	1073711	wordpools/wasnorm_wordpool_576.txt	LTP304	ltpFR2	15	9	SWITCH	1422	n/a	n/a	0	0	0
2148.084	n/a	REC_WORD	1074042	wordpools/wasnorm_wordpool_576.txt	LTP304	ltpFR2	15	9	POPCORN	1104	n/a	n/a	0	0	0
2154.414	n/a	REC_WORD	1077207	wordpools/wasnorm_wordpool_576.txt	LTP304	ltpFR2	15	9	LIGHTNING	820	n/a	n/a	0	0	0
2157.954	n/a	REC_WORD	1078977	wordpools/wasnorm_wordpool_576.txt	LTP304	ltpFR2	15	9	MOP	916	n/a	n/a	0	0	0
2158.602	n/a	REC_WORD	1079301	wordpools/wasnorm_wordpool_576.txt	LTP304	ltpFR2	15	9	KIDNEY	776	n/a	n/a	0	0	0
2159.338	n/a	REC_WORD	1079669	wordpools/wasnorm_wordpool_576.txt	LTP304	ltpFR2	15	9	GALLON	618	n/a	n/a	0	0	0
2159.996	n/a	REC_WORD	1079998	wordpools/wasnorm_wordpool_576.txt	LTP304	ltpFR2	15	9	STAKE	1368	n/a	n/a	0	0	0
2181.014	n/a	REC_WORD	1090507	wordpools/wasnorm_wordpool_576.txt	LTP304	ltpFR2	15	9	FLOOR	581	n/a	n/a	0	0	0
2184.096	n/a	REC_WORD_VV	1092048	wordpools/wasnorm_wordpool_576.txt	LTP304	ltpFR2	15	9	<>	-1	n/a	n/a	0	0	0
2184.692	n/a	REC_WORD	1092346	wordpools/wasnorm_wordpool_576.txt	LTP304	ltpFR2	15	9	CEILING	265	n/a	n/a	0	0	0
2196.962	n/a	REC_WORD_VV	1098481	wordpools/wasnorm_wordpool_576.txt	LTP304	ltpFR2	15	9	<>	-1	n/a	n/a	0	0	0
2200.656	n/a	REC_WORD_VV	1100328	wordpools/wasnorm_wordpool_576.txt	LTP304	ltpFR2	15	9	<>	-1	n/a	n/a	0	0	0
2201.656	n/a	REC_WORD_VV	1100828	wordpools/wasnorm_wordpool_576.txt	LTP304	ltpFR2	15	9	<>	-1	n/a	n/a	0	0	0
2231.7	n/a	DISTRACTOR	1115850	n/a	LTP304	ltpFR2	15	10	n/a	n/a	n/a	n/a	0	0	0
2231.7	n/a	START	1115850	n/a	LTP304	ltpFR2	15	n/a	n/a	n/a	14	n/a	n/a	n/a	n/a
2231.714	n/a	PROB	1115857	n/a	LTP304	ltpFR2	15	n/a	n/a	n/a	14	11	5	3	3
2233.648	n/a	PROB	1116824	n/a	LTP304	ltpFR2	15	n/a	n/a	n/a	14	13	5	3	5
2236.102	n/a	PROB	1118051	n/a	LTP304	ltpFR2	15	n/a	n/a	n/a	14	12	6	3	3
2237.838	n/a	PROB	1118919	n/a	LTP304	ltpFR2	15	n/a	n/a	n/a	14	18	7	2	9
2239.654	n/a	PROB	1119827	n/a	LTP304	ltpFR2	15	n/a	n/a	n/a	14	15	7	7	1
2241.154	n/a	PROB	1120577	n/a	LTP304	ltpFR2	15	n/a	n/a	n/a	14	15	1	6	8
2242.658	n/a	PROB	1121329	n/a	LTP304	ltpFR2	15	n/a	n/a	n/a	14	14	2	7	5
2244.876	n/a	PROB	1122438	n/a	LTP304	ltpFR2	15	n/a	n/a	n/a	14	14	4	8	2
2246.476	n/a	PROB	1123238	n/a	LTP304	ltpFR2	15	n/a	n/a	n/a	14	13	3	8	2
2248.426	n/a	PROB	1124213	n/a	LTP304	ltpFR2	15	n/a	n/a	n/a	14	14	2	5	7
2251.48	n/a	PROB	1125740	n/a	LTP304	ltpFR2	15	n/a	n/a	n/a	14	23	6	8	9
2253.246	n/a	PROB	1126623	n/a	LTP304	ltpFR2	15	n/a	n/a	n/a	14	16	1	8	7
2254.766	n/a	STOP	1127383	n/a	LTP304	ltpFR2	15	n/a	n/a	n/a	14	n/a	n/a	n/a	n/a
2256.902	n/a	WORD	1128451	wordpools/wasnorm_wordpool_576.txt	LTP304	ltpFR2	15	10	MARSH	874	n/a	n/a	0	0	0
2259.354	n/a	WORD	1129677	wordpools/wasnorm_wordpool_576.txt	LTP304	ltpFR2	15	10	POSSUM	1112	n/a	n/a	0	0	0
2261.874	n/a	WORD	1130937	wordpools/wasnorm_wordpool_576.txt	LTP304	ltpFR2	15	10	TURTLE	1522	n/a	n/a	0	0	0
2264.358	n/a	WORD	1132179	wordpools/wasnorm_wordpool_576.txt	LTP304	ltpFR2	15	10	SKETCH	1315	n/a	n/a	0	0	0
2267.01	n/a	WORD	1133505	wordpools/wasnorm_wordpool_576.txt	LTP304	ltpFR2	15	10	BRICK	172	n/a	n/a	0	0	0
2269.63	n/a	WORD	1134815	wordpools/wasnorm_wordpool_576.txt	LTP304	ltpFR2	15	10	AGENT	10	n/a	n/a	0	0	0
2272.314	n/a	WORD	1136157	wordpools/wasnorm_wordpool_576.txt	LTP304	ltpFR2	15	10	MONEY	908	n/a	n/a	0	0	0
2274.982	n/a	WORD	1137491	wordpools/wasnorm_wordpool_576.txt	LTP304	ltpFR2	15	10	QUEEN	1149	n/a	n/a	0	0	0
2277.634	n/a	WORD	1138817	wordpools/wasnorm_wordpool_576.txt	LTP304	ltpFR2	15	10	BLUEPRINT	142	n/a	n/a	0	0	0
2280.136	n/a	WORD	1140068	wordpools/wasnorm_wordpool_576.txt	LTP304	ltpFR2	15	10	SHELTER	1282	n/a	n/a	0	0	0
2282.756	n/a	WORD	1141378	wordpools/wasnorm_wordpool_576.txt	LTP304	ltpFR2	15	10	SKILLET	1317	n/a	n/a	0	0	0
2285.206	n/a	WORD	1142603	wordpools/wasnorm_wordpool_576.txt	LTP304	ltpFR2	15	10	FIREPLACE	570	n/a	n/a	0	0	0
2287.926	n/a	WORD	1143963	wordpools/wasnorm_wordpool_576.txt	LTP304	ltpFR2	15	10	TURKEY	1520	n/a	n/a	0	0	0
2290.396	n/a	WORD	1145198	wordpools/wasnorm_wordpool_576.txt	LTP304	ltpFR2	15	10	EAGLE	512	n/a	n/a	0	0	0
2292.864	n/a	WORD	1146432	wordpools/wasnorm_wordpool_576.txt	LTP304	ltpFR2	15	10	PIGEON	1065	n/a	n/a	0	0	0
2295.566	n/a	WORD	1147783	wordpools/wasnorm_wordpool_576.txt	LTP304	ltpFR2	15	10	FLASHLIGHT	575	n/a	n/a	0	0	0
2298.318	n/a	WORD	1149159	wordpools/wasnorm_wordpool_576.txt	LTP304	ltpFR2	15	10	MESSAGE	888	n/a	n/a	0	0	0
2300.82	n/a	WORD	1150410	wordpools/wasnorm_wordpool_576.txt	LTP304	ltpFR2	15	10	BREAST	171	n/a	n/a	0	0	0
2303.572	n/a	WORD	1151786	wordpools/wasnorm_wordpool_576.txt	LTP304	ltpFR2	15	10	MAILMAN	858	n/a	n/a	0	0	0
2306.178	n/a	WORD	1153089	wordpools/wasnorm_wordpool_576.txt	LTP304	ltpFR2	15	10	ROCKET	1202	n/a	n/a	0	0	0
2308.948	n/a	WORD	1154474	wordpools/wasnorm_wordpool_576.txt	LTP304	ltpFR2	15	10	OUTDOORS	987	n/a	n/a	0	0	0
2311.45	n/a	WORD	1155725	wordpools/wasnorm_wordpool_576.txt	LTP304	ltpFR2	15	10	YOLK	1633	n/a	n/a	0	0	0
2314.018	n/a	WORD	1157009	wordpools/wasnorm_wordpool_576.txt	LTP304	ltpFR2	15	10	BISON	131	n/a	n/a	0	0	0
2316.564	n/a	WORD	1158282	wordpools/wasnorm_wordpool_576.txt	LTP304	ltpFR2	15	10	CHURCH	307	n/a	n/a	0	0	0
2318.172	n/a	START	1159086	n/a	LTP304	ltpFR2	15	n/a	n/a	n/a	15	n/a	n/a	n/a	n/a
2319.214	n/a	DISTRACTOR	1159607	n/a	LTP304	ltpFR2	15	10	n/a	n/a	n/a	n/a	0	0	0
2319.222	n/a	PROB	1159611	n/a	LTP304	ltpFR2	15	n/a	n/a	n/a	15	13	4	1	8
2321.216	n/a	PROB	1160608	n/a	LTP304	ltpFR2	15	n/a	n/a	n/a	15	24	9	9	5
2323.886	n/a	PROB	1161943	n/a	LTP304	ltpFR2	15	n/a	n/a	n/a	15	14	7	2	5
2325.388	n/a	PROB	1162694	n/a	LTP304	ltpFR2	15	n/a	n/a	n/a	15	22	9	8	5
2329.758	n/a	PROB	1164879	n/a	LTP304	ltpFR2	15	n/a	n/a	n/a	15	12	3	8	1
2331.508	n/a	PROB	1165754	n/a	LTP304	ltpFR2	15	n/a	n/a	n/a	15	17	7	9	1
2332.694	n/a	PROB	1166347	n/a	LTP304	ltpFR2	15	n/a	n/a	n/a	15	15	3	8	4
2334.444	n/a	PROB	1167222	n/a	LTP304	ltpFR2	15	n/a	n/a	n/a	15	17	2	7	8
2336.682	n/a	PROB	1168341	n/a	LTP304	ltpFR2	15	n/a	n/a	n/a	15	14	5	7	2
2338.48	n/a	PROB	1169240	n/a	LTP304	ltpFR2	15	n/a	n/a	n/a	15	10	1	3	6
2339.866	n/a	PROB	1169933	n/a	LTP304	ltpFR2	15	n/a	n/a	n/a	15	18	5	9	4
2341.744	n/a	STOP	1170872	n/a	LTP304	ltpFR2	15	n/a	n/a	n/a	15	n/a	n/a	n/a	n/a
2343.936	n/a	REC_START	1171968	n/a	LTP304	ltpFR2	15	10	n/a	n/a	n/a	n/a	0	0	0
2344.48	n/a	REC_WORD	1172240	wordpools/wasnorm_wordpool_576.txt	LTP304	ltpFR2	15	10	MARSH	874	n/a	n/a	0	0	0
2345.338	n/a	REC_WORD	1172669	wordpools/wasnorm_wordpool_576.txt	LTP304	ltpFR2	15	10	PRINCESS	1125	n/a	n/a	0	0	0
2347.786	n/a	REC_WORD_VV	1173893	wordpools/wasnorm_wordpool_576.txt	LTP304	ltpFR2	15	10	<>	-1	n/a	n/a	0	0	0
2348.048	n/a	REC_WORD	1174024	wordpools/wasnorm_wordpool_576.txt	LTP304	ltpFR2	15	10	MARSH	874	n/a	n/a	0	0	0
2348.468	n/a	REC_WORD	1174234	wordpools/wasnorm_wordpool_576.txt	LTP304	ltpFR2	15	10	QUEEN	1149	n/a	n/a	0	0	0
2349.652	n/a	REC_WORD	1174826	wordpools/wasnorm_wordpool_576.txt	LTP304	ltpFR2	15	10	BLUEPRINT	142	n/a	n/a	0	0	0
2350.234	n/a	REC_WORD	1175117	wordpools/wasnorm_wordpool_576.txt	LTP304	ltpFR2	15	10	SHELTER	1282	n/a	n/a	0	0	0
2356.782	n/a	REC_WORD	1178391	wordpools/wasnorm_wordpool_576.txt	LTP304	ltpFR2	15	10	CHURCH	307	n/a	n/a	0	0	0
2434.402	n/a	WORD	1217201	wordpools/wasnorm_wordpool_576.txt	LTP304	ltpFR2	15	11	MISSILE	900	n/a	n/a	0	0	0
2436.922	n/a	WORD	1218461	wordpools/wasnorm_wordpool_576.txt	LTP304	ltpFR2	15	11	WARDROBE	1587	n/a	n/a	0	0	0
2439.558	n/a	WORD	1219779	wordpools/wasnorm_wordpool_576.txt	LTP304	ltpFR2	15	11	DRESSER	496	n/a	n/a	0	0	0
2442.326	n/a	WORD	1221163	wordpools/wasnorm_wordpool_576.txt	LTP304	ltpFR2	15	11	SIBLING	1301	n/a	n/a	0	0	0
2444.946	n/a	WORD	1222473	wordpools/wasnorm_wordpool_576.txt	LTP304	ltpFR2	15	11	SHARK	1275	n/a	n/a	0	0	0
2447.716	n/a	WORD	1223858	wordpools/wasnorm_wordpool_576.txt	LTP304	ltpFR2	15	11	CURTAIN	427	n/a	n/a	0	0	0
2450.35	n/a	WORD	1225175	wordpools/wasnorm_wordpool_576.txt	LTP304	ltpFR2	15	11	LIPSTICK	829	n/a	n/a	0	0	0
2452.852	n/a	WORD	1226426	wordpools/wasnorm_wordpool_576.txt	LTP304	ltpFR2	15	11	GIRL	637	n/a	n/a	0	0	0
2455.588	n/a	WORD	1227794	wordpools/wasnorm_wordpool_576.txt	LTP304	ltpFR2	15	11	VELVET	1555	n/a	n/a	0	0	0
2458.106	n/a	WORD	1229053	wordpools/wasnorm_wordpool_576.txt	LTP304	ltpFR2	15	11	DUSTPAN	509	n/a	n/a	0	0	0
2460.842	n/a	WORD	1230421	wordpools/wasnorm_wordpool_576.txt	LTP304	ltpFR2	15	11	GHETTO	633	n/a	n/a	0	0	0
2463.31	n/a	WORD	1231655	wordpools/wasnorm_wordpool_576.txt	LTP304	ltpFR2	15	11	LAPEL	800	n/a	n/a	0	0	0
2466.146	n/a	WORD	1233073	wordpools/wasnorm_wordpool_576.txt	LTP304	ltpFR2	15	11	CROSS	413	n/a	n/a	0	0	0
2468.918	n/a	WORD	1234459	wordpools/wasnorm_wordpool_576.txt	LTP304	ltpFR2	15	11	HAWK	692	n/a	n/a	0	0	0
2471.686	n/a	WORD	1235843	wordpools/wasnorm_wordpool_576.txt	LTP304	ltpFR2	15	11	RIVER	1194	n/a	n/a	0	0	0
2474.386	n/a	WORD	1237193	wordpools/wasnorm_wordpool_576.txt	LTP304	ltpFR2	15	11	DUST	508	n/a	n/a	0	0	0
2477.022	n/a	WORD	1238511	wordpools/wasnorm_wordpool_576.txt	LTP304	ltpFR2	15	11	LIZARD	834	n/a	n/a	0	0	0
2479.742	n/a	WORD	1239871	wordpools/wasnorm_wordpool_576.txt	LTP304	ltpFR2	15	11	CYCLONE	431	n/a	n/a	0	0	0
2482.428	n/a	WORD	1241214	wordpools/wasnorm_wordpool_576.txt	LTP304	ltpFR2	15	11	COBRA	336	n/a	n/a	0	0	0
2485.162	n/a	WORD	1242581	wordpools/wasnorm_wordpool_576.txt	LTP304	ltpFR2	15	11	FREEZER	604	n/a	n/a	0	0	0
2487.834	n/a	WORD	1243917	wordpools/wasnorm_wordpool_576.txt	LTP304	ltpFR2	15	11	SCARF	1246	n/a	n/a	0	0	0
2490.568	n/a	WORD	1245284	wordpools/wasnorm_wordpool_576.txt	LTP304	ltpFR2	15	11	SHRUB	1299	n/a	n/a	0	0	0
2493.254	n/a	WORD	1246627	wordpools/wasnorm_wordpool_576.txt	LTP304	ltpFR2	15	11	FOOT	590	n/a	n/a	0	0	0
2495.854	n/a	WORD	1247927	wordpools/wasnorm_wordpool_576.txt	LTP304	ltpFR2	15	11	BROTHER	179	n/a	n/a	0	0	0
2497.472	n/a	START	1248736	n/a	LTP304	ltpFR2	15	n/a	n/a	n/a	16	n/a	n/a	n/a	n/a
2498.364	n/a	DISTRACTOR	1249182	n/a	LTP304	ltpFR2	15	11	n/a	n/a	n/a	n/a	0	0	0
2498.372	n/a	PROB	1249186	n/a	LTP304	ltpFR2	15	n/a	n/a	n/a	16	12	7	4	1
2499.89	n/a	PROB	1249945	n/a	LTP304	ltpFR2	15	n/a	n/a	n/a	16	16	7	7	2
2501.374	n/a	PROB	1250687	n/a	LTP304	ltpFR2	15	n/a	n/a	n/a	16	14	6	2	6
2503.894	n/a	PROB	1251947	n/a	LTP304	ltpFR2	15	n/a	n/a	n/a	16	18	3	8	6
2508.614	n/a	PROB	1254307	n/a	LTP304	ltpFR2	15	n/a	n/a	n/a	16	12	1	3	8
2510.082	n/a	PROB	1255041	n/a	LTP304	ltpFR2	15	n/a	n/a	n/a	16	12	5	3	4
2511.932	n/a	PROB	1255966	n/a	LTP304	ltpFR2	15	n/a	n/a	n/a	16	10	2	6	2
2513.216	n/a	PROB	1256608	n/a	LTP304	ltpFR2	15	n/a	n/a	n/a	16	22	8	6	8
2516.804	n/a	PROB	1258402	n/a	LTP304	ltpFR2	15	n/a	n/a	n/a	16	25	7	8	8
2518.74	n/a	PROB	1259370	n/a	LTP304	ltpFR2	15	n/a	n/a	n/a	16	12	3	6	3
2520.322	n/a	STOP	1260161	n/a	LTP304	ltpFR2	15	n/a	n/a	n/a	16	n/a	n/a	n/a	n/a
2523.242	n/a	REC_START	1261621	n/a	LTP304	ltpFR2	15	11	n/a	n/a	n/a	n/a	0	0	0
2527.464	n/a	REC_WORD	1263732	wordpools/wasnorm_wordpool_576.txt	LTP304	ltpFR2	15	11	MISSILE	900	n/a	n/a	0	0	0
2538.07	n/a	REC_WORD	1269035	wordpools/wasnorm_wordpool_576.txt	LTP304	ltpFR2	15	11	SNAKE	1333	n/a	n/a	0	0	0
2538.79	n/a	REC_WORD_VV	1269395	wordpools/wasnorm_wordpool_576.txt	LTP304	ltpFR2	15	11	<>	-1	n/a	n/a	0	0	0
2539.03	n/a	REC_WORD	1269515	wordpools/wasnorm_wordpool_576.txt	LTP304	ltpFR2	15	11	COBRA	336	n/a	n/a	0	0	0
2541.988	n/a	REC_WORD	1270994	wordpools/wasnorm_wordpool_576.txt	LTP304	ltpFR2	15	11	FREEZER	604	n/a	n/a	0	0	0
2543.518	n/a	REC_WORD	1271759	wordpools/wasnorm_wordpool_576.txt	LTP304	ltpFR2	15	11	FOOT	590	n/a	n/a	0	0	0
2547.932	n/a	REC_WORD	1273966	wordpools/wasnorm_wordpool_576.txt	LTP304	ltpFR2	15	11	LIZARD	834	n/a	n/a	0	0	0
2549.244	n/a	REC_WORD	1274622	wordpools/wasnorm_wordpool_576.txt	LTP304	ltpFR2	15	11	POWDER	1117	n/a	n/a	0	0	0
2549.922	n/a	REC_WORD_VV	1274961	wordpools/wasnorm_wordpool_576.txt	LTP304	ltpFR2	15	11	<>	-1	n/a	n/a	0	0	0
2550.18	n/a	REC_WORD	1275090	wordpools/wasnorm_wordpool_576.txt	LTP304	ltpFR2	15	11	DUST	508	n/a	n/a	0	0	0
2556.518	n/a	REC_WORD	1278259	wordpools/wasnorm_wordpool_576.txt	LTP304	ltpFR2	15	11	PAN	1008	n/a	n/a	0	0	0
2613.68	n/a	WORD	1306840	wordpools/wasnorm_wordpool_576.txt	LTP304	ltpFR2	15	12	DENTIST	447	n/a	n/a	0	0	0
2616.158	n/a	WORD	1308079	wordpools/wasnorm_wordpool_576.txt	LTP304	ltpFR2	15	12	GRAVE	658	n/a	n/a	0	0	0
2618.684	n/a	WORD	1309342	wordpools/wasnorm_wordpool_576.txt	LTP304	ltpFR2	15	12	POISON	1096	n/a	n/a	0	0	0
2621.47	n/a	WORD	1310735	wordpools/wasnorm_wordpool_576.txt	LTP304	ltpFR2	15	12	AUTHOR	61	n/a	n/a	0	0	0
2623.982	n/a	WORD	1311991	wordpools/wasnorm_wordpool_576.txt	LTP304	ltpFR2	15	12	BOUQUET	157	n/a	n/a	0	0	0
2626.732	n/a	WORD	1313366	wordpools/wasnorm_wordpool_576.txt	LTP304	ltpFR2	15	12	JELLY	755	n/a	n/a	0	0	0
2629.5	n/a	WORD	1314750	wordpools/wasnorm_wordpool_576.txt	LTP304	ltpFR2	15	12	CABIN	211	n/a	n/a	0	0	0
2632.094	n/a	WORD	1316047	wordpools/wasnorm_wordpool_576.txt	LTP304	ltpFR2	15	12	PASSAGE	1019	n/a	n/a	0	0	0
2634.622	n/a	WORD	1317311	wordpools/wasnorm_wordpool_576.txt	LTP304	ltpFR2	15	12	SILK	1307	n/a	n/a	0	0	0
2637.248	n/a	WORD	1318624	wordpools/wasnorm_wordpool_576.txt	LTP304	ltpFR2	15	12	BLOUSE	139	n/a	n/a	0	0	0
2639.8	n/a	WORD	1319900	wordpools/wasnorm_wordpool_576.txt	LTP304	ltpFR2	15	12	PAIL	1002	n/a	n/a	0	0	0
2642.446	n/a	WORD	1321223	wordpools/wasnorm_wordpool_576.txt	LTP304	ltpFR2	15	12	DRINK	498	n/a	n/a	0	0	0
2644.97	n/a	WORD	1322485	wordpools/wasnorm_wordpool_576.txt	LTP304	ltpFR2	15	12	CANAL	226	n/a	n/a	0	0	0
2647.702	n/a	WORD	1323851	wordpools/wasnorm_wordpool_576.txt	LTP304	ltpFR2	15	12	POLICE	1098	n/a	n/a	0	0	0
2650.12	n/a	WORD	1325060	wordpools/wasnorm_wordpool_576.txt	LTP304	ltpFR2	15	12	CLAM	315	n/a	n/a	0	0	0
2652.904	n/a	WORD	1326452	wordpools/wasnorm_wordpool_576.txt	LTP304	ltpFR2	15	12	BOX	159	n/a	n/a	0	0	0
2655.408	n/a	WORD	1327704	wordpools/wasnorm_wordpool_576.txt	LTP304	ltpFR2	15	12	GROUND	666	n/a	n/a	0	0	0
2658.06	n/a	WORD	1329030	wordpools/wasnorm_wordpool_576.txt	LTP304	ltpFR2	15	12	EYELASH	546	n/a	n/a	0	0	0
2660.864	n/a	WORD	1330432	wordpools/wasnorm_wordpool_576.txt	LTP304	ltpFR2	15	12	ATLAS	53	n/a	n/a	0	0	0
2663.514	n/a	WORD	1331757	wordpools/wasnorm_wordpool_576.txt	LTP304	ltpFR2	15	12	GLOBE	641	n/a	n/a	0	0	0
2666.038	n/a	WORD	1333019	wordpools/wasnorm_wordpool_576.txt	LTP304	ltpFR2	15	12	IGLOO	734	n/a	n/a	0	0	0
2668.552	n/a	WORD	1334276	wordpools/wasnorm_wordpool_576.txt	LTP304	ltpFR2	15	12	TROMBONE	1508	n/a	n/a	0	0	0
2671.186	n/a	WORD	1335593	wordpools/wasnorm_wordpool_576.txt	LTP304	ltpFR2	15	12	ORANGE	980	n/a	n/a	0	0	0
2673.992	n/a	WORD	1336996	wordpools/wasnorm_wordpool_576.txt	LTP304	ltpFR2	15	12	BRACES	164	n/a	n/a	0	0	0
2675.608	n/a	START	1337804	n/a	LTP304	ltpFR2	15	n/a	n/a	n/a	17	n/a	n/a	n/a	n/a
2676.542	n/a	DISTRACTOR	1338271	n/a	LTP304	ltpFR2	15	12	n/a	n/a	n/a	n/a	0	0	0
2676.558	n/a	PROB	1338279	n/a	LTP304	ltpFR2	15	n/a	n/a	n/a	17	17	5	9	3
2678.646	n/a	PROB	1339323	n/a	LTP304	ltpFR2	15	n/a	n/a	n/a	17	11	8	2	1
2680.294	n/a	PROB	1340147	n/a	LTP304	ltpFR2	15	n/a	n/a	n/a	17	15	8	3	4
2681.982	n/a	PROB	1340991	n/a	LTP304	ltpFR2	15	n/a	n/a	n/a	17	16	6	8	2
2683.332	n/a	PROB	1341666	n/a	LTP304	ltpFR2	15	n/a	n/a	n/a	17	16	6	5	5
2684.498	n/a	PROB	1342249	n/a	LTP304	ltpFR2	15	n/a	n/a	n/a	17	18	7	5	6
2686.366	n/a	PROB	1343183	n/a	LTP304	ltpFR2	15	n/a	n/a	n/a	17	16	4	7	5
2688.318	n/a	PROB	1344159	n/a	LTP304	ltpFR2	15	n/a	n/a	n/a	17	22	4	9	9
2689.822	n/a	PROB	1344911	n/a	LTP304	ltpFR2	15	n/a	n/a	n/a	17	16	8	2	6
2691.07	n/a	PROB	1345535	n/a	LTP304	ltpFR2	15	n/a	n/a	n/a	17	13	6	2	5
2693.69	n/a	PROB	1346845	n/a	LTP304	ltpFR2	15	n/a	n/a	n/a	17	15	3	4	8
2695.374	n/a	PROB	1347687	n/a	LTP304	ltpFR2	15	n/a	n/a	n/a	17	16	5	3	8
2696.776	n/a	PROB	1348388	n/a	LTP304	ltpFR2	15	n/a	n/a	n/a	17	23	9	8	6
2698.34	n/a	STOP	1349170	n/a	LTP304	ltpFR2	15	n/a	n/a	n/a	17	n/a	n/a	n/a	n/a
2701.516	n/a	REC_START	1350758	n/a	LTP304	ltpFR2	15	12	n/a	n/a	n/a	n/a	0	0	0
2702.384	n/a	REC_WORD	1351192	wordpools/wasnorm_wordpool_576.txt	LTP304	ltpFR2	15	12	TROMBONE	1508	n/a	n/a	0	0	0
2705.49	n/a	REC_WORD	1352745	wordpools/wasnorm_wordpool_576.txt	LTP304	ltpFR2	15	12	CABIN	211	n/a	n/a	0	0	0
2706.118	n/a	REC_WORD	1353059	wordpools/wasnorm_wordpool_576.txt	LTP304	ltpFR2	15	12	GRAVE	658	n/a	n/a	0	0	0
2706.656	n/a	REC_WORD	1353328	wordpools/wasnorm_wordpool_576.txt	LTP304	ltpFR2	15	12	DENTIST	447	n/a	n/a	0	0	0
2707.5	n/a	REC_WORD	1353750	wordpools/wasnorm_wordpool_576.txt	LTP304	ltpFR2	15	12	JELLY	755	n/a	n/a	0	0	0
2707.99	n/a	REC_WORD	1353995	wordpools/wasnorm_wordpool_576.txt	LTP304	ltpFR2	15	12	BOUQUET	157	n/a	n/a	0	0	0
2709.422	n/a	REC_WORD	1354711	wordpools/wasnorm_wordpool_576.txt	LTP304	ltpFR2	15	12	POISON	1096	n/a	n/a	0	0	0
2710.026	n/a	REC_WORD	1355013	wordpools/wasnorm_wordpool_576.txt	LTP304	ltpFR2	15	12	AUTHOR	61	n/a	n/a	0	0	0
2710.662	n/a	REC_WORD	1355331	wordpools/wasnorm_wordpool_576.txt	LTP304	ltpFR2	15	12	PASSAGE	1019	n/a	n/a	0	0	0
2711.312	n/a	REC_WORD	1355656	wordpools/wasnorm_wordpool_576.txt	LTP304	ltpFR2	15	12	CABIN	211	n/a	n/a	0	0	0
2713.056	n/a	REC_WORD	1356528	wordpools/wasnorm_wordpool_576.txt	LTP304	ltpFR2	15	12	SILK	1307	n/a	n/a	0	0	0
2716.554	n/a	REC_WORD	1358277	wordpools/wasnorm_wordpool_576.txt	LTP304	ltpFR2	15	12	PAIL	1002	n/a	n/a	0	0	0
2791.952	n/a	DISTRACTOR	1395976	n/a	LTP304	ltpFR2	15	13	n/a	n/a	n/a	n/a	0	0	0
2791.952	n/a	START	1395976	n/a	LTP304	ltpFR2	15	n/a	n/a	n/a	18	n/a	n/a	n/a	n/a
2791.968	n/a	PROB	1395984	n/a	LTP304	ltpFR2	15	n/a	n/a	n/a	18	24	8	8	8
2794.186	n/a	PROB	1397093	n/a	LTP304	ltpFR2	15	n/a	n/a	n/a	18	5	1	1	3
2795.354	n/a	PROB	1397677	n/a	LTP304	ltpFR2	15	n/a	n/a	n/a	18	21	8	4	9
2797.056	n/a	PROB	1398528	n/a	LTP304	ltpFR2	15	n/a	n/a	n/a	18	11	2	3	6
2798.924	n/a	PROB	1399462	n/a	LTP304	ltpFR2	15	n/a	n/a	n/a	18	12	8	1	3
2800.776	n/a	PROB	1400388	n/a	LTP304	ltpFR2	15	n/a	n/a	n/a	18	17	9	5	3
2802.444	n/a	PROB	1401222	n/a	LTP304	ltpFR2	15	n/a	n/a	n/a	18	14	2	4	8
2803.794	n/a	PROB	1401897	n/a	LTP304	ltpFR2	15	n/a	n/a	n/a	18	16	6	4	6
2804.976	n/a	PROB	1402488	n/a	LTP304	ltpFR2	15	n/a	n/a	n/a	18	16	1	7	8
2806.864	n/a	PROB	1403432	n/a	LTP304	ltpFR2	15	n/a	n/a	n/a	18	12	7	2	3
2808.916	n/a	PROB	1404458	n/a	LTP304	ltpFR2	15	n/a	n/a	n/a	18	26	9	9	8
2810.466	n/a	PROB	1405233	n/a	LTP304	ltpFR2	15	n/a	n/a	n/a	18	17	3	9	5
2812.5	n/a	PROB	1406250	n/a	LTP304	ltpFR2	15	n/a	n/a	n/a	18	21	9	6	7
2814.574	n/a	STOP	1407287	n/a	LTP304	ltpFR2	15	n/a	n/a	n/a	18	n/a	n/a	n/a	n/a
2816.894	n/a	WORD	1408447	wordpools/wasnorm_wordpool_576.txt	LTP304	ltpFR2	15	13	TYPIST	1532	n/a	n/a	0	0	0
2819.64	n/a	WORD	1409820	wordpools/wasnorm_wordpool_576.txt	LTP304	ltpFR2	15	13	OFFICE	972	n/a	n/a	0	0	0
2822.392	n/a	WORD	1411196	wordpools/wasnorm_wordpool_576.txt	LTP304	ltpFR2	15	13	SCISSORS	1250	n/a	n/a	0	0	0
2824.986	n/a	WORD	1412493	wordpools/wasnorm_wordpool_576.txt	LTP304	ltpFR2	15	13	FRAGRANCE	599	n/a	n/a	0	0	0
2827.682	n/a	WORD	1413841	wordpools/wasnorm_wordpool_576.txt	LTP304	ltpFR2	15	13	PEDAL	1037	n/a	n/a	0	0	0
2830.382	n/a	WORD	1415191	wordpools/wasnorm_wordpool_576.txt	LTP304	ltpFR2	15	13	FOREST	593	n/a	n/a	0	0	0
2833.118	n/a	WORD	1416559	wordpools/wasnorm_wordpool_576.txt	LTP304	ltpFR2	15	13	PADDLE	1000	n/a	n/a	0	0	0
2835.628	n/a	WORD	1417814	wordpools/wasnorm_wordpool_576.txt	LTP304	ltpFR2	15	13	NURSE	963	n/a	n/a	0	0	0
2838.404	n/a	WORD	1419202	wordpools/wasnorm_wordpool_576.txt	LTP304	ltpFR2	15	13	ICEBERG	731	n/a	n/a	0	0	0
2841.074	n/a	WORD	1420537	wordpools/wasnorm_wordpool_576.txt	LTP304	ltpFR2	15	13	DINER	467	n/a	n/a	0	0	0
2843.878	n/a	WORD	1421939	wordpools/wasnorm_wordpool_576.txt	LTP304	ltpFR2	15	13	PATIENT	1024	n/a	n/a	0	0	0
2846.644	n/a	WORD	1423322	wordpools/wasnorm_wordpool_576.txt	LTP304	ltpFR2	15	13	BEAKER	104	n/a	n/a	0	0	0
2849.388	n/a	WORD	1424694	wordpools/wasnorm_wordpool_576.txt	LTP304	ltpFR2	15	13	SEAFOOD	1260	n/a	n/a	0	0	0
2852.008	n/a	WORD	1426004	wordpools/wasnorm_wordpool_576.txt	LTP304	ltpFR2	15	13	GYMNAST	675	n/a	n/a	0	0	0
2854.6	n/a	WORD	1427300	wordpools/wasnorm_wordpool_576.txt	LTP304	ltpFR2	15	13	CRAB	397	n/a	n/a	0	0	0
2857.262	n/a	WORD	1428631	wordpools/wasnorm_wordpool_576.txt	LTP304	ltpFR2	15	13	SWAMP	1416	n/a	n/a	0	0	0
2859.914	n/a	WORD	1429957	wordpools/wasnorm_wordpool_576.txt	LTP304	ltpFR2	15	13	FUNGUS	614	n/a	n/a	0	0	0
2862.684	n/a	WORD	1431342	wordpools/wasnorm_wordpool_576.txt	LTP304	ltpFR2	15	13	ORCHID	982	n/a	n/a	0	0	0
2865.308	n/a	WORD	1432654	wordpools/wasnorm_wordpool_576.txt	LTP304	ltpFR2	15	13	COOKBOOK	373	n/a	n/a	0	0	0
2867.806	n/a	WORD	1433903	wordpools/wasnorm_wordpool_576.txt	LTP304	ltpFR2	15	13	CUPBOARD	425	n/a	n/a	0	0	0
2870.43	n/a	WORD	1435215	wordpools/wasnorm_wordpool_576.txt	LTP304	ltpFR2	15	13	SCOTCH	1251	n/a	n/a	0	0	0
2873.126	n/a	WORD	1436563	wordpools/wasnorm_wordpool_576.txt	LTP304	ltpFR2	15	13	NAPKIN	937	n/a	n/a	0	0	0
2875.762	n/a	WORD	1437881	wordpools/wasnorm_wordpool_576.txt	LTP304	ltpFR2	15	13	OYSTER	995	n/a	n/a	0	0	0
2878.48	n/a	WORD	1439240	wordpools/wasnorm_wordpool_576.txt	LTP304	ltpFR2	15	13	THRONE	1461	n/a	n/a	0	0	0
2880.088	n/a	START	1440044	n/a	LTP304	ltpFR2	15	n/a	n/a	n/a	19	n/a	n/a	n/a	n/a
2881.222	n/a	DISTRACTOR	1440611	n/a	LTP304	ltpFR2	15	13	n/a	n/a	n/a	n/a	0	0	0
2881.232	n/a	PROB	1440616	n/a	LTP304	ltpFR2	15	n/a	n/a	n/a	19	6	1	1	4
2882.438	n/a	PROB	1441219	n/a	LTP304	ltpFR2	15	n/a	n/a	n/a	19	15	9	5	1
2884.172	n/a	PROB	1442086	n/a	LTP304	ltpFR2	15	n/a	n/a	n/a	19	25	8	8	9
2886.208	n/a	PROB	1443104	n/a	LTP304	ltpFR2	15	n/a	n/a	n/a	19	9	4	3	2
2889.228	n/a	PROB	1444614	n/a	LTP304	ltpFR2	15	n/a	n/a	n/a	19	22	8	8	6
2890.88	n/a	PROB	1445440	n/a	LTP304	ltpFR2	15	n/a	n/a	n/a	19	20	5	6	9
2893.264	n/a	PROB	1446632	n/a	LTP304	ltpFR2	15	n/a	n/a	n/a	19	22	5	9	8
2895.364	n/a	PROB	1447682	n/a	LTP304	ltpFR2	15	n/a	n/a	n/a	19	14	2	5	7
2896.582	n/a	PROB	1448291	n/a	LTP304	ltpFR2	15	n/a	n/a	n/a	19	19	6	6	7
2898.552	n/a	PROB	1449276	n/a	LTP304	ltpFR2	15	n/a	n/a	n/a	19	10	4	4	2
2900.068	n/a	PROB	1450034	n/a	LTP304	ltpFR2	15	n/a	n/a	n/a	19	18	2	7	9
2901.588	n/a	PROB	1450794	n/a	LTP304	ltpFR2	15	n/a	n/a	n/a	19	13	2	4	7
2902.864	n/a	STOP	1451432	n/a	LTP304	ltpFR2	15	n/a	n/a	n/a	19	n/a	n/a	n/a	n/a
2905.924	n/a	REC_START	1452962	n/a	LTP304	ltpFR2	15	13	n/a	n/a	n/a	n/a	0	0	0
2910.644	n/a	REC_WORD	1455322	wordpools/wasnorm_wordpool_576.txt	LTP304	ltpFR2	15	13	TYPIST	1532	n/a	n/a	0	0	0
2920.84	n/a	REC_WORD	1460420	wordpools/wasnorm_wordpool_576.txt	LTP304	ltpFR2	15	13	BEAKER	104	n/a	n/a	0	0	0
2921.452	n/a	REC_WORD	1460726	wordpools/wasnorm_wordpool_576.txt	LTP304	ltpFR2	15	13	SEAFOOD	1260	n/a	n/a	0	0	0
2925.856	n/a	REC_WORD	1462928	wordpools/wasnorm_wordpool_576.txt	LTP304	ltpFR2	15	13	CLAM	315	n/a	n/a	0	0	0
2926.474	n/a	REC_WORD	1463237	wordpools/wasnorm_wordpool_576.txt	LTP304	ltpFR2	15	13	BOX	159	n/a	n/a	0	0	0
2959.962	n/a	REC_WORD	1479981	wordpools/wasnorm_wordpool_576.txt	LTP304	ltpFR2	15	13	DINNER	468	n/a	n/a	0	0	0
2965.41	n/a	REC_WORD	1482705	wordpools/wasnorm_wordpool_576.txt	LTP304	ltpFR2	15	13	OFFICE	972	n/a	n/a	0	0	0
2965.888	n/a	REC_WORD	1482944	wordpools/wasnorm_wordpool_576.txt	LTP304	ltpFR2	15	13	TYPIST	1532	n/a	n/a	0	0	0
2996.378	n/a	DISTRACTOR	1498189	n/a	LTP304	ltpFR2	15	14	n/a	n/a	n/a	n/a	0	0	0
2996.378	n/a	START	1498189	n/a	LTP304	ltpFR2	15	n/a	n/a	n/a	20	n/a	n/a	n/a	n/a
2996.394	n/a	PROB	1498197	n/a	LTP304	ltpFR2	15	n/a	n/a	n/a	20	11	8	1	1
2997.462	n/a	PROB	1498731	n/a	LTP304	ltpFR2	15	n/a	n/a	n/a	20	19	3	7	9
2999.246	n/a	PROB	1499623	n/a	LTP304	ltpFR2	15	n/a	n/a	n/a	20	18	7	5	6
3001.948	n/a	PROB	1500974	n/a	LTP304	ltpFR2	15	n/a	n/a	n/a	20	19	7	9	3
3003.498	n/a	PROB	1501749	n/a	LTP304	ltpFR2	15	n/a	n/a	n/a	20	17	7	2	8
3005.166	n/a	PROB	1502583	n/a	LTP304	ltpFR2	15	n/a	n/a	n/a	20	18	1	9	8
3006.268	n/a	PROB	1503134	n/a	LTP304	ltpFR2	15	n/a	n/a	n/a	20	4	2	1	1
3007.47	n/a	PROB	1503735	n/a	LTP304	ltpFR2	15	n/a	n/a	n/a	20	24	8	7	9
3009.386	n/a	PROB	1504693	n/a	LTP304	ltpFR2	15	n/a	n/a	n/a	20	10	7	1	2
3010.872	n/a	PROB	1505436	n/a	LTP304	ltpFR2	15	n/a	n/a	n/a	20	14	1	5	8
3012.272	n/a	PROB	1506136	n/a	LTP304	ltpFR2	15	n/a	n/a	n/a	20	11	1	4	6
3013.358	n/a	PROB	1506679	n/a	LTP304	ltpFR2	15	n/a	n/a	n/a	20	10	2	3	5
3015.36	n/a	PROB	1507680	n/a	LTP304	ltpFR2	15	n/a	n/a	n/a	20	18	3	7	8
3016.51	n/a	PROB	1508255	n/a	LTP304	ltpFR2	15	n/a	n/a	n/a	20	20	6	6	8
3017.996	n/a	PROB	1508998	n/a	LTP304	ltpFR2	15	n/a	n/a	n/a	20	17	9	4	4
3020.082	n/a	STOP	1510041	n/a	LTP304	ltpFR2	15	n/a	n/a	n/a	20	n/a	n/a	n/a	n/a
3021.414	n/a	WORD	1510707	wordpools/wasnorm_wordpool_576.txt	LTP304	ltpFR2	15	14	POET	1095	n/a	n/a	0	0	0
3024.216	n/a	WORD	1512108	wordpools/wasnorm_wordpool_576.txt	LTP304	ltpFR2	15	14	NOMAD	955	n/a	n/a	0	0	0
3027.018	n/a	WORD	1513509	wordpools/wasnorm_wordpool_576.txt	LTP304	ltpFR2	15	14	BADGE	68	n/a	n/a	0	0	0
3029.754	n/a	WORD	1514877	wordpools/wasnorm_wordpool_576.txt	LTP304	ltpFR2	15	14	FOX	598	n/a	n/a	0	0	0
3032.522	n/a	WORD	1516261	wordpools/wasnorm_wordpool_576.txt	LTP304	ltpFR2	15	14	CATCHER	258	n/a	n/a	0	0	0
3034.94	n/a	WORD	1517470	wordpools/wasnorm_wordpool_576.txt	LTP304	ltpFR2	15	14	SLIDE	1326	n/a	n/a	0	0	0
3037.544	n/a	WORD	1518772	wordpools/wasnorm_wordpool_576.txt	LTP304	ltpFR2	15	14	SPONGE	1355	n/a	n/a	0	0	0
3040.032	n/a	WORD	1520016	wordpools/wasnorm_wordpool_576.txt	LTP304	ltpFR2	15	14	PIMPLE	1071	n/a	n/a	0	0	0
3042.57	n/a	WORD	1521285	wordpools/wasnorm_wordpool_576.txt	LTP304	ltpFR2	15	14	THIEF	1456	n/a	n/a	0	0	0
3045.088	n/a	WORD	1522544	wordpools/wasnorm_wordpool_576.txt	LTP304	ltpFR2	15	14	LAGOON	795	n/a	n/a	0	0	0
3047.89	n/a	WORD	1523945	wordpools/wasnorm_wordpool_576.txt	LTP304	ltpFR2	15	14	NOVEL	960	n/a	n/a	0	0	0
3050.704	n/a	WORD	1525352	wordpools/wasnorm_wordpool_576.txt	LTP304	ltpFR2	15	14	PLAZA	1088	n/a	n/a	0	0	0
3053.49	n/a	WORD	1526745	wordpools/wasnorm_wordpool_576.txt	LTP304	ltpFR2	15	14	SUSPECT	1415	n/a	n/a	0	0	0
3055.924	n/a	WORD	1527962	wordpools/wasnorm_wordpool_576.txt	LTP304	ltpFR2	15	14	BUBBLE	183	n/a	n/a	0	0	0
3058.376	n/a	WORD	1529188	wordpools/wasnorm_wordpool_576.txt	LTP304	ltpFR2	15	14	BOARD	143	n/a	n/a	0	0	0
3061.178	n/a	WORD	1530589	wordpools/wasnorm_wordpool_576.txt	LTP304	ltpFR2	15	14	BIKE	125	n/a	n/a	0	0	0
3063.632	n/a	WORD	1531816	wordpools/wasnorm_wordpool_576.txt	LTP304	ltpFR2	15	14	BARREL	91	n/a	n/a	0	0	0
3066.182	n/a	WORD	1533091	wordpools/wasnorm_wordpool_576.txt	LTP304	ltpFR2	15	14	ULCER	1533	n/a	n/a	0	0	0
3068.992	n/a	WORD	1534496	wordpools/wasnorm_wordpool_576.txt	LTP304	ltpFR2	15	14	FRIEND	606	n/a	n/a	0	0	0
3071.61	n/a	WORD	1535805	wordpools/wasnorm_wordpool_576.txt	LTP304	ltpFR2	15	14	PARTNER	1017	n/a	n/a	0	0	0
3074.046	n/a	WORD	1537023	wordpools/wasnorm_wordpool_576.txt	LTP304	ltpFR2	15	14	VALVE	1546	n/a	n/a	0	0	0
3076.666	n/a	WORD	1538333	wordpools/wasnorm_wordpool_576.txt	LTP304	ltpFR2	15	14	DORM	488	n/a	n/a	0	0	0
3079.226	n/a	WORD	1539613	wordpools/wasnorm_wordpool_576.txt	LTP304	ltpFR2	15	14	COTTAGE	384	n/a	n/a	0	0	0
3081.82	n/a	WORD	1540910	wordpools/wasnorm_wordpool_576.txt	LTP304	ltpFR2	15	14	OMELET	976	n/a	n/a	0	0	0
3083.43	n/a	START	1541715	n/a	LTP304	ltpFR2	15	n/a	n/a	n/a	21	n/a	n/a	n/a	n/a
3084.462	n/a	DISTRACTOR	1542231	n/a	LTP304	ltpFR2	15	14	n/a	n/a	n/a	n/a	0	0	0
3084.47	n/a	PROB	1542235	n/a	LTP304	ltpFR2	15	n/a	n/a	n/a	21	20	8	7	5
3086.396	n/a	PROB	1543198	n/a	LTP304	ltpFR2	15	n/a	n/a	n/a	21	19	8	5	6
3088.248	n/a	PROB	1544124	n/a	LTP304	ltpFR2	15	n/a	n/a	n/a	21	10	2	2	6
3089.766	n/a	PROB	1544883	n/a	LTP304	ltpFR2	15	n/a	n/a	n/a	21	18	5	4	9
3091.234	n/a	PROB	1545617	n/a	LTP304	ltpFR2	15	n/a	n/a	n/a	21	17	6	7	4
3093.352	n/a	PROB	1546676	n/a	LTP304	ltpFR2	15	n/a	n/a	n/a	21	18	5	9	4
3095.388	n/a	PROB	1547694	n/a	LTP304	ltpFR2	15	n/a	n/a	n/a	21	16	5	3	8
3097.606	n/a	PROB	1548803	n/a	LTP304	ltpFR2	15	n/a	n/a	n/a	21	17	9	3	5
3099.056	n/a	PROB	1549528	n/a	LTP304	ltpFR2	15	n/a	n/a	n/a	21	9	3	4	2
3100.442	n/a	PROB	1550221	n/a	LTP304	ltpFR2	15	n/a	n/a	n/a	21	14	9	2	3
3102.31	n/a	PROB	1551155	n/a	LTP304	ltpFR2	15	n/a	n/a	n/a	21	12	1	6	5
3104.012	n/a	PROB	1552006	n/a	LTP304	ltpFR2	15	n/a	n/a	n/a	21	9	1	2	6
3105.244	n/a	PROB	1552622	n/a	LTP304	ltpFR2	15	n/a	n/a	n/a	21	18	4	6	8
3106.332	n/a	STOP	1553166	n/a	LTP304	ltpFR2	15	n/a	n/a	n/a	21	n/a	n/a	n/a	n/a
3109.334	n/a	REC_START	1554667	n/a	LTP304	ltpFR2	15	14	n/a	n/a	n/a	n/a	0	0	0
3110.912	n/a	REC_WORD	1555456	wordpools/wasnorm_wordpool_576.txt	LTP304	ltpFR2	15	14	BUBBLE	183	n/a	n/a	0	0	0
3111.328	n/a	REC_WORD	1555664	wordpools/wasnorm_wordpool_576.txt	LTP304	ltpFR2	15	14	BOARD	143	n/a	n/a	0	0	0
3111.73	n/a	REC_WORD	1555865	wordpools/wasnorm_wordpool_576.txt	LTP304	ltpFR2	15	14	SUSPECT	1415	n/a	n/a	0	0	0
3112.662	n/a	REC_WORD	1556331	wordpools/wasnorm_wordpool_576.txt	LTP304	ltpFR2	15	14	POET	1095	n/a	n/a	0	0	0
3113.212	n/a	REC_WORD	1556606	wordpools/wasnorm_wordpool_576.txt	LTP304	ltpFR2	15	14	NOMAD	955	n/a	n/a	0	0	0
3114.436	n/a	REC_WORD	1557218	wordpools/wasnorm_wordpool_576.txt	LTP304	ltpFR2	15	14	BADGE	68	n/a	n/a	0	0	0
3114.876	n/a	REC_WORD	1557438	wordpools/wasnorm_wordpool_576.txt	LTP304	ltpFR2	15	14	FOX	598	n/a	n/a	0	0	0
3115.436	n/a	REC_WORD	1557718	wordpools/wasnorm_wordpool_576.txt	LTP304	ltpFR2	15	14	CATCHER	258	n/a	n/a	0	0	0
3199.788	n/a	DISTRACTOR	1599894	n/a	LTP304	ltpFR2	15	15	n/a	n/a	n/a	n/a	0	0	0
3199.788	n/a	START	1599894	n/a	LTP304	ltpFR2	15	n/a	n/a	n/a	22	n/a	n/a	n/a	n/a
3199.802	n/a	PROB	1599901	n/a	LTP304	ltpFR2	15	n/a	n/a	n/a	22	12	3	4	4
3201.922	n/a	PROB	1600961	n/a	LTP304	ltpFR2	15	n/a	n/a	n/a	22	18	7	7	4
3203.472	n/a	PROB	1601736	n/a	LTP304	ltpFR2	15	n/a	n/a	n/a	22	13	1	8	4
3205.088	n/a	PROB	1602544	n/a	LTP304	ltpFR2	15	n/a	n/a	n/a	22	16	9	2	5
3206.924	n/a	PROB	1603462	n/a	LTP304	ltpFR2	15	n/a	n/a	n/a	22	11	3	2	6
3208.324	n/a	PROB	1604162	n/a	LTP304	ltpFR2	15	n/a	n/a	n/a	22	14	4	3	7
3209.61	n/a	PROB	1604805	n/a	LTP304	ltpFR2	15	n/a	n/a	n/a	22	25	9	8	8
3211.296	n/a	PROB	1605648	n/a	LTP304	ltpFR2	15	n/a	n/a	n/a	22	19	2	9	8
3213.114	n/a	PROB	1606557	n/a	LTP304	ltpFR2	15	n/a	n/a	n/a	22	8	1	2	5
3214.296	n/a	PROB	1607148	n/a	LTP304	ltpFR2	15	n/a	n/a	n/a	22	10	2	3	5
3215.564	n/a	PROB	1607782	n/a	LTP304	ltpFR2	15	n/a	n/a	n/a	22	10	1	5	3
3217.182	n/a	PROB	1608591	n/a	LTP304	ltpFR2	15	n/a	n/a	n/a	22	22	9	9	3
3219.016	n/a	PROB	1609508	n/a	LTP304	ltpFR2	15	n/a	n/a	n/a	22	14	2	8	4
3220.152	n/a	PROB	1610076	n/a	LTP304	ltpFR2	15	n/a	n/a	n/a	22	13	2	7	2
3221.902	n/a	PROB	1610951	n/a	LTP304	ltpFR2	15	n/a	n/a	n/a	22	10	1	8	1
3222.934	n/a	STOP	1611467	n/a	LTP304	ltpFR2	15	n/a	n/a	n/a	22	n/a	n/a	n/a	n/a
3224.99	n/a	WORD	1612495	wordpools/wasnorm_wordpool_576.txt	LTP304	ltpFR2	15	15	TWIG	1527	n/a	n/a	0	0	0
3227.492	n/a	WORD	1613746	wordpools/wasnorm_wordpool_576.txt	LTP304	ltpFR2	15	15	COLONEL	348	n/a	n/a	0	0	0
3229.978	n/a	WORD	1614989	wordpools/wasnorm_wordpool_576.txt	LTP304	ltpFR2	15	15	SUBWAY	1400	n/a	n/a	0	0	0
3232.562	n/a	WORD	1616281	wordpools/wasnorm_wordpool_576.txt	LTP304	ltpFR2	15	15	WAGON	1578	n/a	n/a	0	0	0
3235.098	n/a	WORD	1617549	wordpools/wasnorm_wordpool_576.txt	LTP304	ltpFR2	15	15	BANKER	84	n/a	n/a	0	0	0
3237.584	n/a	WORD	1618792	wordpools/wasnorm_wordpool_576.txt	LTP304	ltpFR2	15	15	GRILL	661	n/a	n/a	0	0	0
3240.036	n/a	WORD	1620018	wordpools/wasnorm_wordpool_576.txt	LTP304	ltpFR2	15	15	OINTMENT	974	n/a	n/a	0	0	0
3242.47	n/a	WORD	1621235	wordpools/wasnorm_wordpool_576.txt	LTP304	ltpFR2	15	15	BUG	187	n/a	n/a	0	0	0
3245.104	n/a	WORD	1622552	wordpools/wasnorm_wordpool_576.txt	LTP304	ltpFR2	15	15	SLUG	1329	n/a	n/a	0	0	0
3247.758	n/a	WORD	1623879	wordpools/wasnorm_wordpool_576.txt	LTP304	ltpFR2	15	15	STUDENT	1395	n/a	n/a	0	0	0
3250.226	n/a	WORD	1625113	wordpools/wasnorm_wordpool_576.txt	LTP304	ltpFR2	15	15	FIDDLE	561	n/a	n/a	0	0	0
3253.028	n/a	WORD	1626514	wordpools/wasnorm_wordpool_576.txt	LTP304	ltpFR2	15	15	WITNESS	1618	n/a	n/a	0	0	0
3255.83	n/a	WORD	1627915	wordpools/wasnorm_wordpool_576.txt	LTP304	ltpFR2	15	15	RELISH	1183	n/a	n/a	0	0	0
3258.298	n/a	WORD	1629149	wordpools/wasnorm_wordpool_576.txt	LTP304	ltpFR2	15	15	ARMY	39	n/a	n/a	0	0	0
3261.034	n/a	WORD	1630517	wordpools/wasnorm_wordpool_576.txt	LTP304	ltpFR2	15	15	BLACKBOARD	133	n/a	n/a	0	0	0
3263.838	n/a	WORD	1631919	wordpools/wasnorm_wordpool_576.txt	LTP304	ltpFR2	15	15	FRANCE	601	n/a	n/a	0	0	0
3266.306	n/a	WORD	1633153	wordpools/wasnorm_wordpool_576.txt	LTP304	ltpFR2	15	15	DONOR	485	n/a	n/a	0	0	0
3268.958	n/a	WORD	1634479	wordpools/wasnorm_wordpool_576.txt	LTP304	ltpFR2	15	15	CLOTHES	327	n/a	n/a	0	0	0
3271.61	n/a	WORD	1635805	wordpools/wasnorm_wordpool_576.txt	LTP304	ltpFR2	15	15	RECORD	1176	n/a	n/a	0	0	0
3274.366	n/a	WORD	1637183	wordpools/wasnorm_wordpool_576.txt	LTP304	ltpFR2	15	15	CABBAGE	210	n/a	n/a	0	0	0
3276.802	n/a	WORD	1638401	wordpools/wasnorm_wordpool_576.txt	LTP304	ltpFR2	15	15	SHOULDER	1294	n/a	n/a	0	0	0
3279.416	n/a	WORD	1639708	wordpools/wasnorm_wordpool_576.txt	LTP304	ltpFR2	15	15	ELBOW	520	n/a	n/a	0	0	0
3281.884	n/a	WORD	1640942	wordpools/wasnorm_wordpool_576.txt	LTP304	ltpFR2	15	15	SIDEWALK	1303	n/a	n/a	0	0	0
3284.47	n/a	WORD	1642235	wordpools/wasnorm_wordpool_576.txt	LTP304	ltpFR2	15	15	BANK	83	n/a	n/a	0	0	0
3286.078	n/a	START	1643039	n/a	LTP304	ltpFR2	15	n/a	n/a	n/a	23	n/a	n/a	n/a	n/a
3286.936	n/a	DISTRACTOR	1643468	n/a	LTP304	ltpFR2	15	15	n/a	n/a	n/a	n/a	0	0	0
3286.944	n/a	PROB	1643472	n/a	LTP304	ltpFR2	15	n/a	n/a	n/a	23	23	9	6	8
3288.888	n/a	PROB	1644444	n/a	LTP304	ltpFR2	15	n/a	n/a	n/a	23	18	8	1	9
3290.224	n/a	PROB	1645112	n/a	LTP304	ltpFR2	15	n/a	n/a	n/a	23	12	7	2	3
3291.474	n/a	PROB	1645737	n/a	LTP304	ltpFR2	15	n/a	n/a	n/a	23	17	4	5	8
3292.976	n/a	PROB	1646488	n/a	LTP304	ltpFR2	15	n/a	n/a	n/a	23	19	3	8	8
3294.56	n/a	PROB	1647280	n/a	LTP304	ltpFR2	15	n/a	n/a	n/a	23	19	2	8	9
3295.746	n/a	PROB	1647873	n/a	LTP304	ltpFR2	15	n/a	n/a	n/a	23	17	8	1	8
3297.26	n/a	PROB	1648630	n/a	LTP304	ltpFR2	15	n/a	n/a	n/a	23	11	1	1	9
3298.346	n/a	PROB	1649173	n/a	LTP304	ltpFR2	15	n/a	n/a	n/a	23	8	5	1	2
3300.13	n/a	PROB	1650065	n/a	LTP304	ltpFR2	15	n/a	n/a	n/a	23	7	2	1	4
3302.75	n/a	PROB	1651375	n/a	LTP304	ltpFR2	15	n/a	n/a	n/a	23	15	7	1	7
3304.2	n/a	PROB	1652100	n/a	LTP304	ltpFR2	15	n/a	n/a	n/a	23	19	6	5	8
3305.72	n/a	PROB	1652860	n/a	LTP304	ltpFR2	15	n/a	n/a	n/a	23	13	6	4	3
3306.986	n/a	PROB	1653493	n/a	LTP304	ltpFR2	15	n/a	n/a	n/a	23	11	1	6	4
3308.138	n/a	PROB	1654069	n/a	LTP304	ltpFR2	15	n/a	n/a	n/a	23	22	8	7	7
3309.808	n/a	STOP	1654904	n/a	LTP304	ltpFR2	15	n/a	n/a	n/a	23	n/a	n/a	n/a	n/a
3311.974	n/a	REC_START	1655987	n/a	LTP304	ltpFR2	15	15	n/a	n/a	n/a	n/a	0	0	0
3314.02	n/a	REC_WORD	1657010	wordpools/wasnorm_wordpool_576.txt	LTP304	ltpFR2	15	15	BLACKBOARD	133	n/a	n/a	0	0	0
3315.146	n/a	REC_WORD	1657573	wordpools/wasnorm_wordpool_576.txt	LTP304	ltpFR2	15	15	DONOR	485	n/a	n/a	0	0	0
3315.872	n/a	REC_WORD	1657936	wordpools/wasnorm_wordpool_576.txt	LTP304	ltpFR2	15	15	ELBOW	520	n/a	n/a	0	0	0
3317.034	n/a	REC_WORD	1658517	wordpools/wasnorm_wordpool_576.txt	LTP304	ltpFR2	15	15	CLOTHES	327	n/a	n/a	0	0	0
3367.33	n/a	REC_WORD	1683665	wordpools/wasnorm_wordpool_576.txt	LTP304	ltpFR2	15	15	TWIG	1527	n/a	n/a	0	0	0
3402.41	n/a	WORD	1701205	wordpools/wasnorm_wordpool_576.txt	LTP304	ltpFR2	15	16	HOOK	715	n/a	n/a	0	0	0
3405.178	n/a	WORD	1702589	wordpools/wasnorm_wordpool_576.txt	LTP304	ltpFR2	15	16	CRUTCH	417	n/a	n/a	0	0	0
3407.912	n/a	WORD	1703956	wordpools/wasnorm_wordpool_576.txt	LTP304	ltpFR2	15	16	CANDY	230	n/a	n/a	0	0	0
3410.682	n/a	WORD	1705341	wordpools/wasnorm_wordpool_576.txt	LTP304	ltpFR2	15	16	RADISH	1158	n/a	n/a	0	0	0
3413.352	n/a	WORD	1706676	wordpools/wasnorm_wordpool_576.txt	LTP304	ltpFR2	15	16	APRON	35	n/a	n/a	0	0	0
3415.904	n/a	WORD	1707952	wordpools/wasnorm_wordpool_576.txt	LTP304	ltpFR2	15	16	VAGRANT	1544	n/a	n/a	0	0	0
3418.472	n/a	WORD	1709236	wordpools/wasnorm_wordpool_576.txt	LTP304	ltpFR2	15	16	COD	340	n/a	n/a	0	0	0
3421.056	n/a	WORD	1710528	wordpools/wasnorm_wordpool_576.txt	LTP304	ltpFR2	15	16	MAMMAL	861	n/a	n/a	0	0	0
3423.592	n/a	WORD	1711796	wordpools/wasnorm_wordpool_576.txt	LTP304	ltpFR2	15	16	WAITRESS	1581	n/a	n/a	0	0	0
3426.16	n/a	WORD	1713080	wordpools/wasnorm_wordpool_576.txt	LTP304	ltpFR2	15	16	SUPPER	1411	n/a	n/a	0	0	0
3428.732	n/a	WORD	1714366	wordpools/wasnorm_wordpool_576.txt	LTP304	ltpFR2	15	16	DRIVER	499	n/a	n/a	0	0	0
3431.232	n/a	WORD	1715616	wordpools/wasnorm_wordpool_576.txt	LTP304	ltpFR2	15	16	RAFT	1159	n/a	n/a	0	0	0
3433.786	n/a	WORD	1716893	wordpools/wasnorm_wordpool_576.txt	LTP304	ltpFR2	15	16	LEOPARD	812	n/a	n/a	0	0	0
3436.504	n/a	WORD	1718252	wordpools/wasnorm_wordpool_576.txt	LTP304	ltpFR2	15	16	POSTAGE	1113	n/a	n/a	0	0	0
3439.222	n/a	WORD	1719611	wordpools/wasnorm_wordpool_576.txt	LTP304	ltpFR2	15	16	WINDOW	1611	n/a	n/a	0	0	0
3441.742	n/a	WORD	1720871	wordpools/wasnorm_wordpool_576.txt	LTP304	ltpFR2	15	16	PECAN	1036	n/a	n/a	0	0	0
3444.51	n/a	WORD	1722255	wordpools/wasnorm_wordpool_576.txt	LTP304	ltpFR2	15	16	FRIAR	605	n/a	n/a	0	0	0
3447.314	n/a	WORD	1723657	wordpools/wasnorm_wordpool_576.txt	LTP304	ltpFR2	15	16	WORKER	1621	n/a	n/a	0	0	0
3449.932	n/a	WORD	1724966	wordpools/wasnorm_wordpool_576.txt	LTP304	ltpFR2	15	16	FLEET	578	n/a	n/a	0	0	0
3452.434	n/a	WORD	1726217	wordpools/wasnorm_wordpool_576.txt	LTP304	ltpFR2	15	16	ANKLE	24	n/a	n/a	0	0	0
3455.236	n/a	WORD	1727618	wordpools/wasnorm_wordpool_576.txt	LTP304	ltpFR2	15	16	SEAL	1262	n/a	n/a	0	0	0
3457.904	n/a	WORD	1728952	wordpools/wasnorm_wordpool_576.txt	LTP304	ltpFR2	15	16	BLOCKADE	137	n/a	n/a	0	0	0
3460.658	n/a	WORD	1730329	wordpools/wasnorm_wordpool_576.txt	LTP304	ltpFR2	15	16	BRAKE	166	n/a	n/a	0	0	0
3463.26	n/a	WORD	1731630	wordpools/wasnorm_wordpool_576.txt	LTP304	ltpFR2	15	16	STOVE	1388	n/a	n/a	0	0	0
3464.876	n/a	START	1732438	n/a	LTP304	ltpFR2	15	n/a	n/a	n/a	24	n/a	n/a	n/a	n/a
3466.034	n/a	DISTRACTOR	1733017	n/a	LTP304	ltpFR2	15	16	n/a	n/a	n/a	n/a	0	0	0
3466.044	n/a	PROB	1733022	n/a	LTP304	ltpFR2	15	n/a	n/a	n/a	24	6	1	1	4
3467.326	n/a	PROB	1733663	n/a	LTP304	ltpFR2	15	n/a	n/a	n/a	24	14	5	8	1
3468.748	n/a	PROB	1734374	n/a	LTP304	ltpFR2	15	n/a	n/a	n/a	24	13	3	6	4
3470.714	n/a	PROB	1735357	n/a	LTP304	ltpFR2	15	n/a	n/a	n/a	24	18	2	9	7
3472.548	n/a	PROB	1736274	n/a	LTP304	ltpFR2	15	n/a	n/a	n/a	24	17	9	5	3
3474.098	n/a	PROB	1737049	n/a	LTP304	ltpFR2	15	n/a	n/a	n/a	24	17	3	9	5
3475.9	n/a	PROB	1737950	n/a	LTP304	ltpFR2	15	n/a	n/a	n/a	24	8	1	4	3
3477.736	n/a	PROB	1738868	n/a	LTP304	ltpFR2	15	n/a	n/a	n/a	24	20	7	9	4
3479.37	n/a	PROB	1739685	n/a	LTP304	ltpFR2	15	n/a	n/a	n/a	24	9	1	2	6
3480.622	n/a	PROB	1740311	n/a	LTP304	ltpFR2	15	n/a	n/a	n/a	24	8	5	1	2
3482.172	n/a	PROB	1741086	n/a	LTP304	ltpFR2	15	n/a	n/a	n/a	24	19	7	5	7
3484.258	n/a	PROB	1742129	n/a	LTP304	ltpFR2	15	n/a	n/a	n/a	24	24	8	7	9
3486.176	n/a	PROB	1743088	n/a	LTP304	ltpFR2	15	n/a	n/a	n/a	24	12	5	3	4
3487.562	n/a	STOP	1743781	n/a	LTP304	ltpFR2	15	n/a	n/a	n/a	24	n/a	n/a	n/a	n/a
3490.832	n/a	REC_START	1745416	n/a	LTP304	ltpFR2	15	16	n/a	n/a	n/a	n/a	0	0	0
3492.782	n/a	REC_WORD	1746391	wordpools/wasnorm_wordpool_576.txt	LTP304	ltpFR2	15	16	LEOPARD	812	n/a	n/a	0	0	0
3493.494	n/a	REC_WORD	1746747	wordpools/wasnorm_wordpool_576.txt	LTP304	ltpFR2	15	16	WINDOW	1611	n/a	n/a	0	0	0
3494.19	n/a	REC_WORD	1747095	wordpools/wasnorm_wordpool_576.txt	LTP304	ltpFR2	15	16	PECAN	1036	n/a	n/a	0	0	0
3494.788	n/a	REC_WORD	1747394	wordpools/wasnorm_wordpool_576.txt	LTP304	ltpFR2	15	16	FRIAR	605	n/a	n/a	0	0	0
3497.924	n/a	REC_WORD	1748962	wordpools/wasnorm_wordpool_576.txt	LTP304	ltpFR2	15	16	VAGRANT	1544	n/a	n/a	0	0	0
3499.248	n/a	REC_WORD	1749624	wordpools/wasnorm_wordpool_576.txt	LTP304	ltpFR2	15	16	APRON	35	n/a	n/a	0	0	0
3502.056	n/a	REC_WORD	1751028	wordpools/wasnorm_wordpool_576.txt	LTP304	ltpFR2	15	16	CANDY	230	n/a	n/a	0	0	0
3502.68	n/a	REC_WORD	1751340	wordpools/wasnorm_wordpool_576.txt	LTP304	ltpFR2	15	16	RADISH	1158	n/a	n/a	0	0	0
3505.432	n/a	REC_WORD	1752716	wordpools/wasnorm_wordpool_576.txt	LTP304	ltpFR2	15	16	CRUTCH	417	n/a	n/a	0	0	0
3512.254	n/a	REC_WORD	1756127	wordpools/wasnorm_wordpool_576.txt	LTP304	ltpFR2	15	16	WORKER	1621	n/a	n/a	0	0	0
3513.548	n/a	REC_WORD	1756774	wordpools/wasnorm_wordpool_576.txt	LTP304	ltpFR2	15	16	FRIAR	605	n/a	n/a	0	0	0
3519.752	n/a	REC_WORD	1759876	wordpools/wasnorm_wordpool_576.txt	LTP304	ltpFR2	15	16	ANKLE	24	n/a	n/a	0	0	0
3520.644	n/a	REC_WORD	1760322	wordpools/wasnorm_wordpool_576.txt	LTP304	ltpFR2	15	16	SEAL	1262	n/a	n/a	0	0	0
3521.504	n/a	REC_WORD	1760752	wordpools/wasnorm_wordpool_576.txt	LTP304	ltpFR2	15	16	BLOCKADE	137	n/a	n/a	0	0	0
3524.084	n/a	REC_WORD	1762042	wordpools/wasnorm_wordpool_576.txt	LTP304	ltpFR2	15	16	BRAKE	166	n/a	n/a	0	0	0
3543.862	n/a	REC_WORD	1771931	wordpools/wasnorm_wordpool_576.txt	LTP304	ltpFR2	15	16	HOOK	715	n/a	n/a	0	0	0
3567.356	n/a	REST_REWET	1783678	n/a	LTP304	ltpFR2	15	16	n/a	n/a	n/a	n/a	0	0	0
3864.35	n/a	DISTRACTOR	1932175	n/a	LTP304	ltpFR2	15	17	n/a	n/a	n/a	n/a	0	0	0
3864.35	n/a	START	1932175	n/a	LTP304	ltpFR2	15	n/a	n/a	n/a	25	n/a	n/a	n/a	n/a
3864.366	n/a	PROB	1932183	n/a	LTP304	ltpFR2	15	n/a	n/a	n/a	25	26	9	9	8
3866.726	n/a	PROB	1933363	n/a	LTP304	ltpFR2	15	n/a	n/a	n/a	25	15	8	3	4
3868.556	n/a	PROB	1934278	n/a	LTP304	ltpFR2	15	n/a	n/a	n/a	25	13	4	8	1
3870.242	n/a	PROB	1935121	n/a	LTP304	ltpFR2	15	n/a	n/a	n/a	25	10	2	1	7
3871.444	n/a	PROB	1935722	n/a	LTP304	ltpFR2	15	n/a	n/a	n/a	25	20	6	7	7
3872.944	n/a	PROB	1936472	n/a	LTP304	ltpFR2	15	n/a	n/a	n/a	25	18	3	9	6
3874.962	n/a	PROB	1937481	n/a	LTP304	ltpFR2	15	n/a	n/a	n/a	25	17	6	2	9
3876.726	n/a	PROB	1938363	n/a	LTP304	ltpFR2	15	n/a	n/a	n/a	25	11	3	7	1
3877.898	n/a	PROB	1938949	n/a	LTP304	ltpFR2	15	n/a	n/a	n/a	25	16	6	5	5
3879.0	n/a	PROB	1939500	n/a	LTP304	ltpFR2	15	n/a	n/a	n/a	25	12	7	4	1
3880.296	n/a	PROB	1940148	n/a	LTP304	ltpFR2	15	n/a	n/a	n/a	25	14	1	6	7
3881.468	n/a	PROB	1940734	n/a	LTP304	ltpFR2	15	n/a	n/a	n/a	25	22	9	4	9
3883.632	n/a	PROB	1941816	n/a	LTP304	ltpFR2	15	n/a	n/a	n/a	25	13	5	7	1
3885.282	n/a	PROB	1942641	n/a	LTP304	ltpFR2	15	n/a	n/a	n/a	25	15	4	6	5
3886.352	n/a	PROB	1943176	n/a	LTP304	ltpFR2	15	n/a	n/a	n/a	25	18	6	4	8
3887.416	n/a	STOP	1943708	n/a	LTP304	ltpFR2	15	n/a	n/a	n/a	25	n/a	n/a	n/a	n/a
3889.456	n/a	WORD	1944728	wordpools/wasnorm_wordpool_576.txt	LTP304	ltpFR2	15	17	SCULPTURE	1258	n/a	n/a	0	0	0
3891.924	n/a	WORD	1945962	wordpools/wasnorm_wordpool_576.txt	LTP304	ltpFR2	15	17	STOMACH	1384	n/a	n/a	0	0	0
3894.526	n/a	WORD	1947263	wordpools/wasnorm_wordpool_576.txt	LTP304	ltpFR2	15	17	HUMAN	726	n/a	n/a	0	0	0
3897.246	n/a	WORD	1948623	wordpools/wasnorm_wordpool_576.txt	LTP304	ltpFR2	15	17	SISTER	1312	n/a	n/a	0	0	0
3899.782	n/a	WORD	1949891	wordpools/wasnorm_wordpool_576.txt	LTP304	ltpFR2	15	17	KNAPSACK	783	n/a	n/a	0	0	0
3902.316	n/a	WORD	1951158	wordpools/wasnorm_wordpool_576.txt	LTP304	ltpFR2	15	17	BEEF	113	n/a	n/a	0	0	0
3904.918	n/a	WORD	1952459	wordpools/wasnorm_wordpool_576.txt	LTP304	ltpFR2	15	17	LAVA	804	n/a	n/a	0	0	0
3907.502	n/a	WORD	1953751	wordpools/wasnorm_wordpool_576.txt	LTP304	ltpFR2	15	17	FLIPPER	580	n/a	n/a	0	0	0
3910.004	n/a	WORD	1955002	wordpools/wasnorm_wordpool_576.txt	LTP304	ltpFR2	15	17	VICTIM	1562	n/a	n/a	0	0	0
3912.608	n/a	WORD	1956304	wordpools/wasnorm_wordpool_576.txt	LTP304	ltpFR2	15	17	CONVICT	371	n/a	n/a	0	0	0
3915.16	n/a	WORD	1957580	wordpools/wasnorm_wordpool_576.txt	LTP304	ltpFR2	15	17	BRANDY	169	n/a	n/a	0	0	0
3917.962	n/a	WORD	1958981	wordpools/wasnorm_wordpool_576.txt	LTP304	ltpFR2	15	17	COCKTAIL	338	n/a	n/a	0	0	0
3920.564	n/a	WORD	1960282	wordpools/wasnorm_wordpool_576.txt	LTP304	ltpFR2	15	17	PICTURE	1061	n/a	n/a	0	0	0
3923.2	n/a	WORD	1961600	wordpools/wasnorm_wordpool_576.txt	LTP304	ltpFR2	15	17	ROOSTER	1209	n/a	n/a	0	0	0
3925.636	n/a	WORD	1962818	wordpools/wasnorm_wordpool_576.txt	LTP304	ltpFR2	15	17	CRATER	400	n/a	n/a	0	0	0
3928.454	n/a	WORD	1964227	wordpools/wasnorm_wordpool_576.txt	LTP304	ltpFR2	15	17	CONCERT	360	n/a	n/a	0	0	0
3930.956	n/a	WORD	1965478	wordpools/wasnorm_wordpool_576.txt	LTP304	ltpFR2	15	17	PEBBLE	1035	n/a	n/a	0	0	0
3933.66	n/a	WORD	1966830	wordpools/wasnorm_wordpool_576.txt	LTP304	ltpFR2	15	17	CHEMIST	292	n/a	n/a	0	0	0
3936.11	n/a	WORD	1968055	wordpools/wasnorm_wordpool_576.txt	LTP304	ltpFR2	15	17	GARDEN	623	n/a	n/a	0	0	0
3938.68	n/a	WORD	1969340	wordpools/wasnorm_wordpool_576.txt	LTP304	ltpFR2	15	17	BUTCHER	203	n/a	n/a	0	0	0
3941.398	n/a	WORD	1970699	wordpools/wasnorm_wordpool_576.txt	LTP304	ltpFR2	15	17	CRITIC	410	n/a	n/a	0	0	0
3944.168	n/a	WORD	1972084	wordpools/wasnorm_wordpool_576.txt	LTP304	ltpFR2	15	17	TUTU	1524	n/a	n/a	0	0	0
3946.936	n/a	WORD	1973468	wordpools/wasnorm_wordpool_576.txt	LTP304	ltpFR2	15	17	SUITCASE	1403	n/a	n/a	0	0	0
3949.454	n/a	WORD	1974727	wordpools/wasnorm_wordpool_576.txt	LTP304	ltpFR2	15	17	DRAWING	494	n/a	n/a	0	0	0
3951.072	n/a	START	1975536	n/a	LTP304	ltpFR2	15	n/a	n/a	n/a	26	n/a	n/a	n/a	n/a
3952.064	n/a	DISTRACTOR	1976032	n/a	LTP304	ltpFR2	15	17	n/a	n/a	n/a	n/a	0	0	0
3952.072	n/a	PROB	1976036	n/a	LTP304	ltpFR2	15	n/a	n/a	n/a	26	14	1	6	7
3953.808	n/a	PROB	1976904	n/a	LTP304	ltpFR2	15	n/a	n/a	n/a	26	12	2	5	5
3955.124	n/a	PROB	1977562	n/a	LTP304	ltpFR2	15	n/a	n/a	n/a	26	16	9	9	7
3957.226	n/a	PROB	1978613	n/a	LTP304	ltpFR2	15	n/a	n/a	n/a	26	16	5	3	8
3959.83	n/a	PROB	1979915	n/a	LTP304	ltpFR2	15	n/a	n/a	n/a	26	22	8	6	8
3964.464	n/a	PROB	1982232	n/a	LTP304	ltpFR2	15	n/a	n/a	n/a	26	10	1	3	6
3965.882	n/a	PROB	1982941	n/a	LTP304	ltpFR2	15	n/a	n/a	n/a	26	12	8	2	2
3967.0	n/a	PROB	1983500	n/a	LTP304	ltpFR2	15	n/a	n/a	n/a	26	10	5	1	4
3968.52	n/a	PROB	1984260	n/a	LTP304	ltpFR2	15	n/a	n/a	n/a	26	12	3	7	2
3969.584	n/a	PROB	1984792	n/a	LTP304	ltpFR2	15	n/a	n/a	n/a	26	19	5	9	5
3971.038	n/a	PROB	1985519	n/a	LTP304	ltpFR2	15	n/a	n/a	n/a	26	17	3	5	9
3972.588	n/a	PROB	1986294	n/a	LTP304	ltpFR2	15	n/a	n/a	n/a	26	15	2	9	4
3974.378	n/a	STOP	1987189	n/a	LTP304	ltpFR2	15	n/a	n/a	n/a	26	n/a	n/a	n/a	n/a
3976.892	n/a	REC_START	1988446	n/a	LTP304	ltpFR2	15	17	n/a	n/a	n/a	n/a	0	0	0
3978.406	n/a	REC_WORD	1989203	wordpools/wasnorm_wordpool_576.txt	LTP304	ltpFR2	15	17	TUTU	1524	n/a	n/a	0	0	0
3981.31	n/a	REC_WORD	1990655	wordpools/wasnorm_wordpool_576.txt	LTP304	ltpFR2	15	17	SUITCASE	1403	n/a	n/a	0	0	0
3982.31	n/a	REC_WORD_VV	1991155	wordpools/wasnorm_wordpool_576.txt	LTP304	ltpFR2	15	17	<>	-1	n/a	n/a	0	0	0
3983.614	n/a	REC_WORD	1991807	wordpools/wasnorm_wordpool_576.txt	LTP304	ltpFR2	15	17	DRAWING	494	n/a	n/a	0	0	0
4040.804	n/a	REC_WORD	2020402	wordpools/wasnorm_wordpool_576.txt	LTP304	ltpFR2	15	17	TURTLE	1522	n/a	n/a	0	0	0
4067.328	n/a	WORD	2033664	wordpools/wasnorm_wordpool_576.txt	LTP304	ltpFR2	15	18	LABEL	790	n/a	n/a	0	0	0
4070.008	n/a	WORD	2035004	wordpools/wasnorm_wordpool_576.txt	LTP304	ltpFR2	15	18	PRINCE	1124	n/a	n/a	0	0	0
4072.518	n/a	WORD	2036259	wordpools/wasnorm_wordpool_576.txt	LTP304	ltpFR2	15	18	LADY	794	n/a	n/a	0	0	0
4075.096	n/a	WORD	2037548	wordpools/wasnorm_wordpool_576.txt	LTP304	ltpFR2	15	18	HEART	697	n/a	n/a	0	0	0
4077.788	n/a	WORD	2038894	wordpools/wasnorm_wordpool_576.txt	LTP304	ltpFR2	15	18	EMPIRE	530	n/a	n/a	0	0	0
4080.4	n/a	WORD	2040200	wordpools/wasnorm_wordpool_576.txt	LTP304	ltpFR2	15	18	GIFT	635	n/a	n/a	0	0	0
4083.192	n/a	WORD	2041596	wordpools/wasnorm_wordpool_576.txt	LTP304	ltpFR2	15	18	PACKAGE	997	n/a	n/a	0	0	0
4085.838	n/a	WORD	2042919	wordpools/wasnorm_wordpool_576.txt	LTP304	ltpFR2	15	18	RECEIPT	1173	n/a	n/a	0	0	0
4088.356	n/a	WORD	2044178	wordpools/wasnorm_wordpool_576.txt	LTP304	ltpFR2	15	18	LUMBER	848	n/a	n/a	0	0	0
4090.958	n/a	WORD	2045479	wordpools/wasnorm_wordpool_576.txt	LTP304	ltpFR2	15	18	LONDON	843	n/a	n/a	0	0	0
4093.7	n/a	WORD	2046850	wordpools/wasnorm_wordpool_576.txt	LTP304	ltpFR2	15	18	FLUTE	585	n/a	n/a	0	0	0
4096.396	n/a	WORD	2048198	wordpools/wasnorm_wordpool_576.txt	LTP304	ltpFR2	15	18	MISTER	901	n/a	n/a	0	0	0
4099.116	n/a	WORD	2049558	wordpools/wasnorm_wordpool_576.txt	LTP304	ltpFR2	15	18	MONSTER	912	n/a	n/a	0	0	0
4101.702	n/a	WORD	2050851	wordpools/wasnorm_wordpool_576.txt	LTP304	ltpFR2	15	18	ZEBRA	1635	n/a	n/a	0	0	0
4104.124	n/a	WORD	2052062	wordpools/wasnorm_wordpool_576.txt	LTP304	ltpFR2	15	18	WASHER	1592	n/a	n/a	0	0	0
4106.556	n/a	WORD	2053278	wordpools/wasnorm_wordpool_576.txt	LTP304	ltpFR2	15	18	FOREHEAD	592	n/a	n/a	0	0	0
4109.224	n/a	WORD	2054612	wordpools/wasnorm_wordpool_576.txt	LTP304	ltpFR2	15	18	CHEST	295	n/a	n/a	0	0	0
4111.976	n/a	WORD	2055988	wordpools/wasnorm_wordpool_576.txt	LTP304	ltpFR2	15	18	FLESH	579	n/a	n/a	0	0	0
4114.73	n/a	WORD	2057365	wordpools/wasnorm_wordpool_576.txt	LTP304	ltpFR2	15	18	BURGLAR	200	n/a	n/a	0	0	0
4117.332	n/a	WORD	2058666	wordpools/wasnorm_wordpool_576.txt	LTP304	ltpFR2	15	18	COIN	343	n/a	n/a	0	0	0
4119.802	n/a	WORD	2059901	wordpools/wasnorm_wordpool_576.txt	LTP304	ltpFR2	15	18	CRIB	407	n/a	n/a	0	0	0
4122.62	n/a	WORD	2061310	wordpools/wasnorm_wordpool_576.txt	LTP304	ltpFR2	15	18	WORLD	1622	n/a	n/a	0	0	0
4125.072	n/a	WORD	2062536	wordpools/wasnorm_wordpool_576.txt	LTP304	ltpFR2	15	18	PUPPY	1144	n/a	n/a	0	0	0
4127.606	n/a	WORD	2063803	wordpools/wasnorm_wordpool_576.txt	LTP304	ltpFR2	15	18	ASIA	46	n/a	n/a	0	0	0
4129.212	n/a	START	2064606	n/a	LTP304	ltpFR2	15	n/a	n/a	n/a	27	n/a	n/a	n/a	n/a
4130.406	n/a	DISTRACTOR	2065203	n/a	LTP304	ltpFR2	15	18	n/a	n/a	n/a	n/a	0	0	0
4130.412	n/a	PROB	2065206	n/a	LTP304	ltpFR2	15	n/a	n/a	n/a	27	16	9	1	6
4133.226	n/a	PROB	2066613	n/a	LTP304	ltpFR2	15	n/a	n/a	n/a	27	21	8	5	8
4136.848	n/a	PROB	2068424	n/a	LTP304	ltpFR2	15	n/a	n/a	n/a	27	20	2	9	9
4139.148	n/a	PROB	2069574	n/a	LTP304	ltpFR2	15	n/a	n/a	n/a	27	14	5	7	5
4140.652	n/a	PROB	2070326	n/a	LTP304	ltpFR2	15	n/a	n/a	n/a	27	19	2	8	9
4141.918	n/a	PROB	2070959	n/a	LTP304	ltpFR2	15	n/a	n/a	n/a	27	19	5	8	6
4145.086	n/a	PROB	2072543	n/a	LTP304	ltpFR2	15	n/a	n/a	n/a	27	9	3	5	1
4147.208	n/a	PROB	2073604	n/a	LTP304	ltpFR2	15	n/a	n/a	n/a	27	11	2	4	5
4149.828	n/a	PROB	2074914	n/a	LTP304	ltpFR2	15	n/a	n/a	n/a	27	4	2	1	1
4150.944	n/a	PROB	2075472	n/a	LTP304	ltpFR2	15	n/a	n/a	n/a	27	13	2	9	2
4152.39	n/a	STOP	2076195	n/a	LTP304	ltpFR2	15	n/a	n/a	n/a	27	n/a	n/a	n/a	n/a
4154.982	n/a	REC_START	2077491	n/a	LTP304	ltpFR2	15	18	n/a	n/a	n/a	n/a	0	0	0
4156.48	n/a	REC_WORD	2078240	wordpools/wasnorm_wordpool_576.txt	LTP304	ltpFR2	15	18	BURGLAR	200	n/a	n/a	0	0	0
4157.44	n/a	REC_WORD	2078720	wordpools/wasnorm_wordpool_576.txt	LTP304	ltpFR2	15	18	LABEL	790	n/a	n/a	0	0	0
4158.29	n/a	REC_WORD	2079145	wordpools/wasnorm_wordpool_576.txt	LTP304	ltpFR2	15	18	PRINCE	1124	n/a	n/a	0	0	0
4159.088	n/a	REC_WORD	2079544	wordpools/wasnorm_wordpool_576.txt	LTP304	ltpFR2	15	18	LADY	794	n/a	n/a	0	0	0
4160.574	n/a	REC_WORD	2080287	wordpools/wasnorm_wordpool_576.txt	LTP304	ltpFR2	15	18	EMPIRE	530	n/a	n/a	0	0	0
4161.992	n/a	REC_WORD	2080996	wordpools/wasnorm_wordpool_576.txt	LTP304	ltpFR2	15	18	HEART	697	n/a	n/a	0	0	0
4165.142	n/a	REC_WORD	2082571	wordpools/wasnorm_wordpool_576.txt	LTP304	ltpFR2	15	18	PUPPY	1144	n/a	n/a	0	0	0
4168.212	n/a	REC_WORD	2084106	wordpools/wasnorm_wordpool_576.txt	LTP304	ltpFR2	15	18	STOMACH	1384	n/a	n/a	0	0	0
4170.444	n/a	REC_WORD	2085222	wordpools/wasnorm_wordpool_576.txt	LTP304	ltpFR2	15	18	FOREHEAD	592	n/a	n/a	0	0	0
4171.058	n/a	REC_WORD	2085529	wordpools/wasnorm_wordpool_576.txt	LTP304	ltpFR2	15	18	CHEST	295	n/a	n/a	0	0	0
4179.528	n/a	REC_WORD	2089764	wordpools/wasnorm_wordpool_576.txt	LTP304	ltpFR2	15	18	BURGLAR	200	n/a	n/a	0	0	0
4192.078	n/a	REC_WORD	2096039	wordpools/wasnorm_wordpool_576.txt	LTP304	ltpFR2	15	18	PACKAGE	997	n/a	n/a	0	0	0
4193.26	n/a	REC_WORD	2096630	wordpools/wasnorm_wordpool_576.txt	LTP304	ltpFR2	15	18	GIFT	635	n/a	n/a	0	0	0
4194.246	n/a	REC_WORD	2097123	wordpools/wasnorm_wordpool_576.txt	LTP304	ltpFR2	15	18	RECEIPT	1173	n/a	n/a	0	0	0
4245.434	n/a	WORD	2122717	wordpools/wasnorm_wordpool_576.txt	LTP304	ltpFR2	15	19	RIFLE	1192	n/a	n/a	0	0	0
4248.238	n/a	WORD	2124119	wordpools/wasnorm_wordpool_576.txt	LTP304	ltpFR2	15	19	INMATE	738	n/a	n/a	0	0	0
4250.906	n/a	WORD	2125453	wordpools/wasnorm_wordpool_576.txt	LTP304	ltpFR2	15	19	PERFUME	1049	n/a	n/a	0	0	0
4253.598	n/a	WORD	2126799	wordpools/wasnorm_wordpool_576.txt	LTP304	ltpFR2	15	19	ONION	977	n/a	n/a	0	0	0
4256.082	n/a	WORD	2128041	wordpools/wasnorm_wordpool_576.txt	LTP304	ltpFR2	15	19	CELLAR	267	n/a	n/a	0	0	0
4258.696	n/a	WORD	2129348	wordpools/wasnorm_wordpool_576.txt	LTP304	ltpFR2	15	19	GREASE	660	n/a	n/a	0	0	0
4261.298	n/a	WORD	2130649	wordpools/wasnorm_wordpool_576.txt	LTP304	ltpFR2	15	19	PROTON	1132	n/a	n/a	0	0	0
4263.766	n/a	WORD	2131883	wordpools/wasnorm_wordpool_576.txt	LTP304	ltpFR2	15	19	MILDEW	893	n/a	n/a	0	0	0
