onset	duration	trial_type	sample	stim_file	subject	experiment	session	trial	task	item_name	item_num	recog_conf	resp	color_b	color_g	color_r	case	font
245.194	n/a	SESS_START	122597	n/a	LTP117	ltpFR	5	n/a	n/a	n/a	n/a	4	n/a	n/a	n/a	n/a	n/a	n/a
280.348	n/a	WORD	140174	wordpools/wasnorm_wordpool.txt	LTP117	ltpFR	5	1	1	BEGGAR	117	n/a	0	0	0.5869140625	0.422607421875	lower	../fonts/amplitud.ttf
284.328	n/a	WORD	142164	wordpools/wasnorm_wordpool.txt	LTP117	ltpFR	5	1	1	ARTERY	41	n/a	0	0	0.5869140625	0.422607421875	lower	../fonts/amplitud.ttf
288.406	n/a	WORD	144203	wordpools/wasnorm_wordpool.txt	LTP117	ltpFR	5	1	0	GAUZE	626	n/a	0	1	0.412841796875	0.57763671875	upper	../fonts/zerothre.ttf
292.528	n/a	WORD	146264	wordpools/wasnorm_wordpool.txt	LTP117	ltpFR	5	1	0	SHOWER	1296	n/a	1	1	0.412841796875	0.57763671875	upper	../fonts/zerothre.ttf
296.432	n/a	WORD	148216	wordpools/wasnorm_wordpool.txt	LTP117	ltpFR	5	1	0	SLEEVE	1324	n/a	0	1	0.412841796875	0.57763671875	upper	../fonts/zerothre.ttf
300.408	n/a	WORD	150204	wordpools/wasnorm_wordpool.txt	LTP117	ltpFR	5	1	0	APPENDAGE	32	n/a	0	1	0.412841796875	0.57763671875	upper	../fonts/zerothre.ttf
304.362	n/a	WORD	152181	wordpools/wasnorm_wordpool.txt	LTP117	ltpFR	5	1	0	BULLETIN	195	n/a	0	1	0.412841796875	0.57763671875	upper	../fonts/zerothre.ttf
308.2	n/a	WORD	154100	wordpools/wasnorm_wordpool.txt	LTP117	ltpFR	5	1	0	DEODORANT	448	n/a	0	1	0.412841796875	0.57763671875	upper	../fonts/zerothre.ttf
312.07	n/a	WORD	156035	wordpools/wasnorm_wordpool.txt	LTP117	ltpFR	5	1	1	EARTH	515	n/a	0	0	0.5869140625	0.422607421875	lower	../fonts/amplitud.ttf
315.982	n/a	WORD	157991	wordpools/wasnorm_wordpool.txt	LTP117	ltpFR	5	1	1	RAM	1165	n/a	1	0	0.5869140625	0.422607421875	lower	../fonts/amplitud.ttf
320.028	n/a	WORD	160014	wordpools/wasnorm_wordpool.txt	LTP117	ltpFR	5	1	1	GULL	671	n/a	1	0	0.5869140625	0.422607421875	lower	../fonts/amplitud.ttf
324.222	n/a	WORD	162111	wordpools/wasnorm_wordpool.txt	LTP117	ltpFR	5	1	0	CANAL	226	n/a	1	1	0.412841796875	0.57763671875	upper	../fonts/zerothre.ttf
328.294	n/a	WORD	164147	wordpools/wasnorm_wordpool.txt	LTP117	ltpFR	5	1	0	SENATOR	1268	n/a	1	1	0.412841796875	0.57763671875	upper	../fonts/zerothre.ttf
332.432	n/a	WORD	166216	wordpools/wasnorm_wordpool.txt	LTP117	ltpFR	5	1	1	SENATE	1267	n/a	0	0	0.5869140625	0.422607421875	lower	../fonts/amplitud.ttf
336.568	n/a	WORD	168284	wordpools/wasnorm_wordpool.txt	LTP117	ltpFR	5	1	1	MONGOOSE	909	n/a	1	0	0.5869140625	0.422607421875	lower	../fonts/amplitud.ttf
340.754	n/a	WORD	170377	wordpools/wasnorm_wordpool.txt	LTP117	ltpFR	5	1	1	BLACKBOARD	133	n/a	1	0	0.5869140625	0.422607421875	lower	../fonts/amplitud.ttf
346.432	n/a	REC_START	173216	n/a	LTP117	ltpFR	5	1	n/a	n/a	n/a	n/a	n/a	n/a	n/a	n/a	n/a	n/a
347.286	n/a	REC_WORD	173643	wordpools/wasnorm_wordpool.txt	LTP117	ltpFR	5	1	0	CANAL	226	n/a	1	n/a	n/a	n/a	n/a	n/a
347.888	n/a	REC_WORD	173944	wordpools/wasnorm_wordpool.txt	LTP117	ltpFR	5	1	0	SENATOR	1268	n/a	1	n/a	n/a	n/a	n/a	n/a
348.792	n/a	REC_WORD	174396	wordpools/wasnorm_wordpool.txt	LTP117	ltpFR	5	1	1	SENATE	1267	n/a	0	n/a	n/a	n/a	n/a	n/a
349.74	n/a	REC_WORD	174870	wordpools/wasnorm_wordpool.txt	LTP117	ltpFR	5	1	1	BLACKBOARD	133	n/a	1	n/a	n/a	n/a	n/a	n/a
350.828	n/a	REC_WORD	175414	wordpools/wasnorm_wordpool.txt	LTP117	ltpFR	5	1	1	EARTH	515	n/a	0	n/a	n/a	n/a	n/a	n/a
351.56	n/a	REC_WORD	175780	wordpools/wasnorm_wordpool.txt	LTP117	ltpFR	5	1	1	RAM	1165	n/a	1	n/a	n/a	n/a	n/a	n/a
352.458	n/a	REC_WORD	176229	wordpools/wasnorm_wordpool.txt	LTP117	ltpFR	5	1	1	GULL	671	n/a	1	n/a	n/a	n/a	n/a	n/a
353.71	n/a	REC_WORD	176855	wordpools/wasnorm_wordpool.txt	LTP117	ltpFR	5	1	0	GAUZE	626	n/a	0	n/a	n/a	n/a	n/a	n/a
354.822	n/a	REC_WORD	177411	wordpools/wasnorm_wordpool.txt	LTP117	ltpFR	5	1	0	APPENDAGE	32	n/a	0	n/a	n/a	n/a	n/a	n/a
355.886	n/a	REC_WORD	177943	wordpools/wasnorm_wordpool.txt	LTP117	ltpFR	5	1	1	ARTERY	41	n/a	0	n/a	n/a	n/a	n/a	n/a
357.172	n/a	REC_WORD	178586	wordpools/wasnorm_wordpool.txt	LTP117	ltpFR	5	1	1	BEGGAR	117	n/a	0	n/a	n/a	n/a	n/a	n/a
360.694	n/a	REC_WORD	180347	wordpools/wasnorm_wordpool.txt	LTP117	ltpFR	5	1	0	SHOWER	1296	n/a	1	n/a	n/a	n/a	n/a	n/a
369.146	n/a	REC_WORD	184573	wordpools/wasnorm_wordpool.txt	LTP117	ltpFR	5	1	0	BULLETIN	195	n/a	0	n/a	n/a	n/a	n/a	n/a
389.59	n/a	REC_WORD	194795	wordpools/wasnorm_wordpool.txt	LTP117	ltpFR	5	1	0	SLEEVE	1324	n/a	0	n/a	n/a	n/a	n/a	n/a
391.924	n/a	REC_WORD	195962	wordpools/wasnorm_wordpool.txt	LTP117	ltpFR	5	1	n/a	HANDKERCHIEF	686	n/a	n/a	n/a	n/a	n/a	n/a	n/a
424.374	n/a	WORD	212187	wordpools/wasnorm_wordpool.txt	LTP117	ltpFR	5	2	0	FELLOW	558	n/a	1	1	0.412841796875	0.57763671875	upper	../fonts/zerothre.ttf
428.354	n/a	WORD	214177	wordpools/wasnorm_wordpool.txt	LTP117	ltpFR	5	2	0	DUST	508	n/a	0	1	0.412841796875	0.57763671875	upper	../fonts/zerothre.ttf
432.5	n/a	WORD	216250	wordpools/wasnorm_wordpool.txt	LTP117	ltpFR	5	2	0	BROOM	178	n/a	1	1	0.412841796875	0.57763671875	upper	../fonts/zerothre.ttf
436.678	n/a	WORD	218339	wordpools/wasnorm_wordpool.txt	LTP117	ltpFR	5	2	0	CORPORATION	382	n/a	1	1	0.412841796875	0.57763671875	upper	../fonts/zerothre.ttf
440.606	n/a	WORD	220303	wordpools/wasnorm_wordpool.txt	LTP117	ltpFR	5	2	0	ANT	25	n/a	0	1	0.412841796875	0.57763671875	upper	../fonts/zerothre.ttf
444.668	n/a	WORD	222334	wordpools/wasnorm_wordpool.txt	LTP117	ltpFR	5	2	1	INSECT	740	n/a	1	0	0.5869140625	0.422607421875	lower	../fonts/amplitud.ttf
448.54	n/a	WORD	224270	wordpools/wasnorm_wordpool.txt	LTP117	ltpFR	5	2	1	HOOK	715	n/a	0	0	0.5869140625	0.422607421875	lower	../fonts/amplitud.ttf
452.65	n/a	WORD	226325	wordpools/wasnorm_wordpool.txt	LTP117	ltpFR	5	2	1	SPONGE	1355	n/a	0	0	0.5869140625	0.422607421875	lower	../fonts/amplitud.ttf
456.762	n/a	WORD	228381	wordpools/wasnorm_wordpool.txt	LTP117	ltpFR	5	2	1	HANDCUFFS	685	n/a	0	0	0.5869140625	0.422607421875	lower	../fonts/amplitud.ttf
460.816	n/a	WORD	230408	wordpools/wasnorm_wordpool.txt	LTP117	ltpFR	5	2	0	MAJOR	859	n/a	1	1	0.412841796875	0.57763671875	upper	../fonts/zerothre.ttf
464.744	n/a	WORD	232372	wordpools/wasnorm_wordpool.txt	LTP117	ltpFR	5	2	0	CANE	231	n/a	1	1	0.412841796875	0.57763671875	upper	../fonts/zerothre.ttf
468.906	n/a	WORD	234453	wordpools/wasnorm_wordpool.txt	LTP117	ltpFR	5	2	0	COACH	331	n/a	1	1	0.412841796875	0.57763671875	upper	../fonts/zerothre.ttf
472.968	n/a	WORD	236484	wordpools/wasnorm_wordpool.txt	LTP117	ltpFR	5	2	1	PUPIL	1143	n/a	0	0	0.5869140625	0.422607421875	lower	../fonts/amplitud.ttf
476.79	n/a	WORD	238395	wordpools/wasnorm_wordpool.txt	LTP117	ltpFR	5	2	1	DESIGNER	451	n/a	1	0	0.5869140625	0.422607421875	lower	../fonts/amplitud.ttf
480.902	n/a	WORD	240451	wordpools/wasnorm_wordpool.txt	LTP117	ltpFR	5	2	1	SPRINKLE	1359	n/a	0	0	0.5869140625	0.422607421875	lower	../fonts/amplitud.ttf
485.064	n/a	WORD	242532	wordpools/wasnorm_wordpool.txt	LTP117	ltpFR	5	2	1	SHRIMP	1297	n/a	1	0	0.5869140625	0.422607421875	lower	../fonts/amplitud.ttf
490.874	n/a	REC_START	245437	n/a	LTP117	ltpFR	5	2	n/a	n/a	n/a	n/a	n/a	n/a	n/a	n/a	n/a	n/a
491.342	n/a	REC_WORD	245671	wordpools/wasnorm_wordpool.txt	LTP117	ltpFR	5	2	0	MAJOR	859	n/a	1	n/a	n/a	n/a	n/a	n/a
492.15	n/a	REC_WORD	246075	wordpools/wasnorm_wordpool.txt	LTP117	ltpFR	5	2	0	CANE	231	n/a	1	n/a	n/a	n/a	n/a	n/a
492.818	n/a	REC_WORD	246409	wordpools/wasnorm_wordpool.txt	LTP117	ltpFR	5	2	0	COACH	331	n/a	1	n/a	n/a	n/a	n/a	n/a
493.598	n/a	REC_WORD	246799	wordpools/wasnorm_wordpool.txt	LTP117	ltpFR	5	2	1	PUPIL	1143	n/a	0	n/a	n/a	n/a	n/a	n/a
494.32	n/a	REC_WORD	247160	wordpools/wasnorm_wordpool.txt	LTP117	ltpFR	5	2	1	SPRINKLE	1359	n/a	0	n/a	n/a	n/a	n/a	n/a
500.92	n/a	REC_WORD	250460	wordpools/wasnorm_wordpool.txt	LTP117	ltpFR	5	2	0	DUST	508	n/a	0	n/a	n/a	n/a	n/a	n/a
501.628	n/a	REC_WORD	250814	wordpools/wasnorm_wordpool.txt	LTP117	ltpFR	5	2	0	CORPORATION	382	n/a	1	n/a	n/a	n/a	n/a	n/a
504.402	n/a	REC_WORD	252201	wordpools/wasnorm_wordpool.txt	LTP117	ltpFR	5	2	0	BROOM	178	n/a	1	n/a	n/a	n/a	n/a	n/a
512.534	n/a	REC_WORD	256267	wordpools/wasnorm_wordpool.txt	LTP117	ltpFR	5	2	1	MONGOOSE	909	n/a	1	n/a	n/a	n/a	n/a	n/a
521.414	n/a	REC_WORD_VV	260707	wordpools/wasnorm_wordpool.txt	LTP117	ltpFR	5	2	n/a	<>	-1	n/a	n/a	n/a	n/a	n/a	n/a	n/a
568.974	n/a	WORD	284487	wordpools/wasnorm_wordpool.txt	LTP117	ltpFR	5	3	1	MAYONNAISE	880	n/a	0	0	0.5869140625	0.422607421875	lower	../fonts/amplitud.ttf
572.946	n/a	WORD	286473	wordpools/wasnorm_wordpool.txt	LTP117	ltpFR	5	3	1	CAMERA	224	n/a	0	0	0.5869140625	0.422607421875	lower	../fonts/amplitud.ttf
576.808	n/a	WORD	288404	wordpools/wasnorm_wordpool.txt	LTP117	ltpFR	5	3	1	PORTRAIT	1111	n/a	0	0	0.5869140625	0.422607421875	lower	../fonts/amplitud.ttf
580.97	n/a	WORD	290485	wordpools/wasnorm_wordpool.txt	LTP117	ltpFR	5	3	1	VICTIM	1562	n/a	0	0	0.5869140625	0.422607421875	lower	../fonts/amplitud.ttf
584.816	n/a	WORD	292408	wordpools/wasnorm_wordpool.txt	LTP117	ltpFR	5	3	1	BAIT	70	n/a	0	0	0.5869140625	0.422607421875	lower	../fonts/amplitud.ttf
589.01	n/a	WORD	294505	wordpools/wasnorm_wordpool.txt	LTP117	ltpFR	5	3	1	CROCODILE	411	n/a	0	0	0.5869140625	0.422607421875	lower	../fonts/amplitud.ttf
593.138	n/a	WORD	296569	wordpools/wasnorm_wordpool.txt	LTP117	ltpFR	5	3	1	BEAST	108	n/a	0	0	0.5869140625	0.422607421875	lower	../fonts/amplitud.ttf
596.968	n/a	WORD	298484	wordpools/wasnorm_wordpool.txt	LTP117	ltpFR	5	3	1	PAW	1029	n/a	0	0	0.5869140625	0.422607421875	lower	../fonts/amplitud.ttf
601.022	n/a	WORD	300511	wordpools/wasnorm_wordpool.txt	LTP117	ltpFR	5	3	1	GRAVE	658	n/a	0	0	0.5869140625	0.422607421875	lower	../fonts/amplitud.ttf
605.134	n/a	WORD	302567	wordpools/wasnorm_wordpool.txt	LTP117	ltpFR	5	3	1	CURTAIN	427	n/a	1	0	0.5869140625	0.422607421875	lower	../fonts/amplitud.ttf
609.328	n/a	WORD	304664	wordpools/wasnorm_wordpool.txt	LTP117	ltpFR	5	3	1	TONGUE	1479	n/a	0	0	0.5869140625	0.422607421875	lower	../fonts/amplitud.ttf
613.442	n/a	WORD	306721	wordpools/wasnorm_wordpool.txt	LTP117	ltpFR	5	3	1	MUSTARD	935	n/a	0	0	0.5869140625	0.422607421875	lower	../fonts/amplitud.ttf
617.586	n/a	WORD	308793	wordpools/wasnorm_wordpool.txt	LTP117	ltpFR	5	3	1	CREATURE	403	n/a	0	0	0.5869140625	0.422607421875	lower	../fonts/amplitud.ttf
621.474	n/a	WORD	310737	wordpools/wasnorm_wordpool.txt	LTP117	ltpFR	5	3	1	WEED	1599	n/a	0	0	0.5869140625	0.422607421875	lower	../fonts/amplitud.ttf
625.318	n/a	WORD	312659	wordpools/wasnorm_wordpool.txt	LTP117	ltpFR	5	3	1	SEED	1266	n/a	0	0	0.5869140625	0.422607421875	lower	../fonts/amplitud.ttf
629.414	n/a	WORD	314707	wordpools/wasnorm_wordpool.txt	LTP117	ltpFR	5	3	1	PRODUCER	1129	n/a	1	0	0.5869140625	0.422607421875	lower	../fonts/amplitud.ttf
635.1	n/a	REC_START	317550	n/a	LTP117	ltpFR	5	3	n/a	n/a	n/a	n/a	n/a	n/a	n/a	n/a	n/a	n/a
635.742	n/a	REC_WORD	317871	wordpools/wasnorm_wordpool.txt	LTP117	ltpFR	5	3	1	TONGUE	1479	n/a	0	n/a	n/a	n/a	n/a	n/a
636.316	n/a	REC_WORD	318158	wordpools/wasnorm_wordpool.txt	LTP117	ltpFR	5	3	1	MUSTARD	935	n/a	0	n/a	n/a	n/a	n/a	n/a
637.23	n/a	REC_WORD	318615	wordpools/wasnorm_wordpool.txt	LTP117	ltpFR	5	3	1	CREATURE	403	n/a	0	n/a	n/a	n/a	n/a	n/a
637.982	n/a	REC_WORD	318991	wordpools/wasnorm_wordpool.txt	LTP117	ltpFR	5	3	1	BEAST	108	n/a	0	n/a	n/a	n/a	n/a	n/a
638.586	n/a	REC_WORD	319293	wordpools/wasnorm_wordpool.txt	LTP117	ltpFR	5	3	1	SEED	1266	n/a	0	n/a	n/a	n/a	n/a	n/a
639.43	n/a	REC_WORD	319715	wordpools/wasnorm_wordpool.txt	LTP117	ltpFR	5	3	1	WEED	1599	n/a	0	n/a	n/a	n/a	n/a	n/a
640.072	n/a	REC_WORD	320036	wordpools/wasnorm_wordpool.txt	LTP117	ltpFR	5	3	1	PRODUCER	1129	n/a	1	n/a	n/a	n/a	n/a	n/a
641.086	n/a	REC_WORD	320543	wordpools/wasnorm_wordpool.txt	LTP117	ltpFR	5	3	1	CROCODILE	411	n/a	0	n/a	n/a	n/a	n/a	n/a
642.128	n/a	REC_WORD	321064	wordpools/wasnorm_wordpool.txt	LTP117	ltpFR	5	3	1	VICTIM	1562	n/a	0	n/a	n/a	n/a	n/a	n/a
643.22	n/a	REC_WORD	321610	wordpools/wasnorm_wordpool.txt	LTP117	ltpFR	5	3	1	CURTAIN	427	n/a	1	n/a	n/a	n/a	n/a	n/a
644.248	n/a	REC_WORD	322124	wordpools/wasnorm_wordpool.txt	LTP117	ltpFR	5	3	1	MAYONNAISE	880	n/a	0	n/a	n/a	n/a	n/a	n/a
663.74	n/a	REC_WORD	331870	wordpools/wasnorm_wordpool.txt	LTP117	ltpFR	5	3	1	GRAVE	658	n/a	0	n/a	n/a	n/a	n/a	n/a
712.594	n/a	WORD	356297	wordpools/wasnorm_wordpool.txt	LTP117	ltpFR	5	4	1	GRAVEL	659	n/a	0	0	0.5869140625	0.422607421875	lower	../fonts/amplitud.ttf
716.564	n/a	WORD	358282	wordpools/wasnorm_wordpool.txt	LTP117	ltpFR	5	4	1	CLAM	315	n/a	1	0	0.5869140625	0.422607421875	lower	../fonts/amplitud.ttf
720.708	n/a	WORD	360354	wordpools/wasnorm_wordpool.txt	LTP117	ltpFR	5	4	1	DOVE	491	n/a	0	0	0.5869140625	0.422607421875	lower	../fonts/amplitud.ttf
724.804	n/a	WORD	362402	wordpools/wasnorm_wordpool.txt	LTP117	ltpFR	5	4	1	MEDICINE	886	n/a	0	0	0.5869140625	0.422607421875	lower	../fonts/amplitud.ttf
728.79	n/a	WORD	364395	wordpools/wasnorm_wordpool.txt	LTP117	ltpFR	5	4	1	SCALLOP	1242	n/a	1	0	0.5869140625	0.422607421875	lower	../fonts/amplitud.ttf
732.638	n/a	WORD	366319	wordpools/wasnorm_wordpool.txt	LTP117	ltpFR	5	4	1	THIMBLE	1458	n/a	0	0	0.5869140625	0.422607421875	lower	../fonts/amplitud.ttf
736.706	n/a	WORD	368353	wordpools/wasnorm_wordpool.txt	LTP117	ltpFR	5	4	1	OTTER	986	n/a	1	0	0.5869140625	0.422607421875	lower	../fonts/amplitud.ttf
740.544	n/a	WORD	370272	wordpools/wasnorm_wordpool.txt	LTP117	ltpFR	5	4	1	MARSH	874	n/a	1	0	0.5869140625	0.422607421875	lower	../fonts/amplitud.ttf
744.648	n/a	WORD	372324	wordpools/wasnorm_wordpool.txt	LTP117	ltpFR	5	4	1	LIGHTNING	820	n/a	0	0	0.5869140625	0.422607421875	lower	../fonts/amplitud.ttf
748.85	n/a	WORD	374425	wordpools/wasnorm_wordpool.txt	LTP117	ltpFR	5	4	1	CHIPMUNK	304	n/a	1	0	0.5869140625	0.422607421875	lower	../fonts/amplitud.ttf
752.988	n/a	WORD	376494	wordpools/wasnorm_wordpool.txt	LTP117	ltpFR	5	4	1	OFFICER	973	n/a	0	0	0.5869140625	0.422607421875	lower	../fonts/amplitud.ttf
757.124	n/a	WORD	378562	wordpools/wasnorm_wordpool.txt	LTP117	ltpFR	5	4	1	GUARD	667	n/a	1	0	0.5869140625	0.422607421875	lower	../fonts/amplitud.ttf
761.162	n/a	WORD	380581	wordpools/wasnorm_wordpool.txt	LTP117	ltpFR	5	4	1	PASTRY	1022	n/a	0	0	0.5869140625	0.422607421875	lower	../fonts/amplitud.ttf
765.19	n/a	WORD	382595	wordpools/wasnorm_wordpool.txt	LTP117	ltpFR	5	4	1	TREAT	1501	n/a	0	0	0.5869140625	0.422607421875	lower	../fonts/amplitud.ttf
769.244	n/a	WORD	384622	wordpools/wasnorm_wordpool.txt	LTP117	ltpFR	5	4	1	TAIL	1430	n/a	0	0	0.5869140625	0.422607421875	lower	../fonts/amplitud.ttf
773.374	n/a	WORD	386687	wordpools/wasnorm_wordpool.txt	LTP117	ltpFR	5	4	1	FLEA	577	n/a	1	0	0.5869140625	0.422607421875	lower	../fonts/amplitud.ttf
779.1	n/a	REC_START	389550	n/a	LTP117	ltpFR	5	4	n/a	n/a	n/a	n/a	n/a	n/a	n/a	n/a	n/a	n/a
779.62	n/a	REC_WORD	389810	wordpools/wasnorm_wordpool.txt	LTP117	ltpFR	5	4	1	CHIPMUNK	304	n/a	1	n/a	n/a	n/a	n/a	n/a
780.408	n/a	REC_WORD	390204	wordpools/wasnorm_wordpool.txt	LTP117	ltpFR	5	4	1	OFFICER	973	n/a	0	n/a	n/a	n/a	n/a	n/a
782.632	n/a	REC_WORD	391316	wordpools/wasnorm_wordpool.txt	LTP117	ltpFR	5	4	1	TREAT	1501	n/a	0	n/a	n/a	n/a	n/a	n/a
784.738	n/a	REC_WORD	392369	wordpools/wasnorm_wordpool.txt	LTP117	ltpFR	5	4	1	FLEA	577	n/a	1	n/a	n/a	n/a	n/a	n/a
785.81	n/a	REC_WORD	392905	wordpools/wasnorm_wordpool.txt	LTP117	ltpFR	5	4	1	THIMBLE	1458	n/a	0	n/a	n/a	n/a	n/a	n/a
786.702	n/a	REC_WORD	393351	wordpools/wasnorm_wordpool.txt	LTP117	ltpFR	5	4	1	LIGHTNING	820	n/a	0	n/a	n/a	n/a	n/a	n/a
788.016	n/a	REC_WORD	394008	wordpools/wasnorm_wordpool.txt	LTP117	ltpFR	5	4	1	GUARD	667	n/a	1	n/a	n/a	n/a	n/a	n/a
805.824	n/a	REC_WORD	402912	wordpools/wasnorm_wordpool.txt	LTP117	ltpFR	5	4	1	GRAVEL	659	n/a	0	n/a	n/a	n/a	n/a	n/a
806.672	n/a	REC_WORD	403336	wordpools/wasnorm_wordpool.txt	LTP117	ltpFR	5	4	1	CLAM	315	n/a	1	n/a	n/a	n/a	n/a	n/a
807.486	n/a	REC_WORD	403743	wordpools/wasnorm_wordpool.txt	LTP117	ltpFR	5	4	1	SCALLOP	1242	n/a	1	n/a	n/a	n/a	n/a	n/a
817.084	n/a	REC_WORD	408542	wordpools/wasnorm_wordpool.txt	LTP117	ltpFR	5	4	1	MARSH	874	n/a	1	n/a	n/a	n/a	n/a	n/a
824.886	n/a	REC_WORD	412443	wordpools/wasnorm_wordpool.txt	LTP117	ltpFR	5	4	1	OTTER	986	n/a	1	n/a	n/a	n/a	n/a	n/a
833.896	n/a	REC_WORD	416948	wordpools/wasnorm_wordpool.txt	LTP117	ltpFR	5	4	1	THIMBLE	1458	n/a	0	n/a	n/a	n/a	n/a	n/a
857.768	n/a	WORD	428884	wordpools/wasnorm_wordpool.txt	LTP117	ltpFR	5	5	1	MARINE	869	n/a	0	0	0.5869140625	0.422607421875	lower	../fonts/amplitud.ttf
861.87	n/a	WORD	430935	wordpools/wasnorm_wordpool.txt	LTP117	ltpFR	5	5	1	PRISON	1127	n/a	0	0	0.5869140625	0.422607421875	lower	../fonts/amplitud.ttf
865.876	n/a	WORD	432938	wordpools/wasnorm_wordpool.txt	LTP117	ltpFR	5	5	0	PIZZA	1079	n/a	1	1	0.412841796875	0.57763671875	upper	../fonts/zerothre.ttf
869.854	n/a	WORD	434927	wordpools/wasnorm_wordpool.txt	LTP117	ltpFR	5	5	0	UTENSIL	1542	n/a	1	1	0.412841796875	0.57763671875	upper	../fonts/zerothre.ttf
873.66	n/a	WORD	436830	wordpools/wasnorm_wordpool.txt	LTP117	ltpFR	5	5	0	ROPE	1211	n/a	0	1	0.412841796875	0.57763671875	upper	../fonts/zerothre.ttf
877.654	n/a	WORD	438827	wordpools/wasnorm_wordpool.txt	LTP117	ltpFR	5	5	0	STRING	1394	n/a	0	1	0.412841796875	0.57763671875	upper	../fonts/zerothre.ttf
881.542	n/a	WORD	440771	wordpools/wasnorm_wordpool.txt	LTP117	ltpFR	5	5	0	SCARECROW	1245	n/a	0	1	0.412841796875	0.57763671875	upper	../fonts/zerothre.ttf
885.62	n/a	WORD	442810	wordpools/wasnorm_wordpool.txt	LTP117	ltpFR	5	5	1	OUTLAW	989	n/a	0	0	0.5869140625	0.422607421875	lower	../fonts/amplitud.ttf
889.822	n/a	WORD	444911	wordpools/wasnorm_wordpool.txt	LTP117	ltpFR	5	5	1	YARN	1631	n/a	1	0	0.5869140625	0.422607421875	lower	../fonts/amplitud.ttf
893.802	n/a	WORD	446901	wordpools/wasnorm_wordpool.txt	LTP117	ltpFR	5	5	1	COOKBOOK	373	n/a	0	0	0.5869140625	0.422607421875	lower	../fonts/amplitud.ttf
897.964	n/a	WORD	448982	wordpools/wasnorm_wordpool.txt	LTP117	ltpFR	5	5	0	POOL	1103	n/a	1	1	0.412841796875	0.57763671875	upper	../fonts/zerothre.ttf
901.958	n/a	WORD	450979	wordpools/wasnorm_wordpool.txt	LTP117	ltpFR	5	5	0	CAPTIVE	240	n/a	1	1	0.412841796875	0.57763671875	upper	../fonts/zerothre.ttf
905.93	n/a	WORD	452965	wordpools/wasnorm_wordpool.txt	LTP117	ltpFR	5	5	0	VEST	1559	n/a	1	1	0.412841796875	0.57763671875	upper	../fonts/zerothre.ttf
910.032	n/a	WORD	455016	wordpools/wasnorm_wordpool.txt	LTP117	ltpFR	5	5	1	DETERGENT	455	n/a	0	0	0.5869140625	0.422607421875	lower	../fonts/amplitud.ttf
914.062	n/a	WORD	457031	wordpools/wasnorm_wordpool.txt	LTP117	ltpFR	5	5	1	TIGER	1467	n/a	1	0	0.5869140625	0.422607421875	lower	../fonts/amplitud.ttf
918.132	n/a	WORD	459066	wordpools/wasnorm_wordpool.txt	LTP117	ltpFR	5	5	1	KITTEN	780	n/a	1	0	0.5869140625	0.422607421875	lower	../fonts/amplitud.ttf
923.992	n/a	REC_START	461996	n/a	LTP117	ltpFR	5	5	n/a	n/a	n/a	n/a	n/a	n/a	n/a	n/a	n/a	n/a
924.58	n/a	REC_WORD	462290	wordpools/wasnorm_wordpool.txt	LTP117	ltpFR	5	5	1	TIGER	1467	n/a	1	n/a	n/a	n/a	n/a	n/a
925.298	n/a	REC_WORD	462649	wordpools/wasnorm_wordpool.txt	LTP117	ltpFR	5	5	1	KITTEN	780	n/a	1	n/a	n/a	n/a	n/a	n/a
926.016	n/a	REC_WORD	463008	wordpools/wasnorm_wordpool.txt	LTP117	ltpFR	5	5	0	VEST	1559	n/a	1	n/a	n/a	n/a	n/a	n/a
927.044	n/a	REC_WORD	463522	wordpools/wasnorm_wordpool.txt	LTP117	ltpFR	5	5	1	YARN	1631	n/a	1	n/a	n/a	n/a	n/a	n/a
927.592	n/a	REC_WORD	463796	wordpools/wasnorm_wordpool.txt	LTP117	ltpFR	5	5	0	STRING	1394	n/a	0	n/a	n/a	n/a	n/a	n/a
928.56	n/a	REC_WORD	464280	wordpools/wasnorm_wordpool.txt	LTP117	ltpFR	5	5	0	ROPE	1211	n/a	0	n/a	n/a	n/a	n/a	n/a
929.21	n/a	REC_WORD	464605	wordpools/wasnorm_wordpool.txt	LTP117	ltpFR	5	5	0	UTENSIL	1542	n/a	1	n/a	n/a	n/a	n/a	n/a
930.152	n/a	REC_WORD	465076	wordpools/wasnorm_wordpool.txt	LTP117	ltpFR	5	5	0	PIZZA	1079	n/a	1	n/a	n/a	n/a	n/a	n/a
932.576	n/a	REC_WORD	466288	wordpools/wasnorm_wordpool.txt	LTP117	ltpFR	5	5	n/a	FUGITIVE	612	n/a	n/a	n/a	n/a	n/a	n/a	n/a
934.756	n/a	REC_WORD	467378	wordpools/wasnorm_wordpool.txt	LTP117	ltpFR	5	5	0	CAPTIVE	240	n/a	1	n/a	n/a	n/a	n/a	n/a
937.92	n/a	REC_WORD	468960	wordpools/wasnorm_wordpool.txt	LTP117	ltpFR	5	5	0	POOL	1103	n/a	1	n/a	n/a	n/a	n/a	n/a
970.492	n/a	REC_WORD	485246	wordpools/wasnorm_wordpool.txt	LTP117	ltpFR	5	5	1	COOKBOOK	373	n/a	0	n/a	n/a	n/a	n/a	n/a
1013.314	n/a	WORD	506657	wordpools/wasnorm_wordpool.txt	LTP117	ltpFR	5	6	-1	COCKTAIL	338	n/a	-1	1	1.0	1.0	upper	../fonts/Verdana.ttf
1017.452	n/a	WORD	508726	wordpools/wasnorm_wordpool.txt	LTP117	ltpFR	5	6	-1	SCOTCH	1251	n/a	-1	1	1.0	1.0	upper	../fonts/Verdana.ttf
1021.596	n/a	WORD	510798	wordpools/wasnorm_wordpool.txt	LTP117	ltpFR	5	6	-1	PIE	1062	n/a	-1	1	1.0	1.0	upper	../fonts/Verdana.ttf
1025.634	n/a	WORD	512817	wordpools/wasnorm_wordpool.txt	LTP117	ltpFR	5	6	-1	BIRD	129	n/a	-1	1	1.0	1.0	upper	../fonts/Verdana.ttf
1029.52	n/a	WORD	514760	wordpools/wasnorm_wordpool.txt	LTP117	ltpFR	5	6	-1	PAWN	1030	n/a	-1	1	1.0	1.0	upper	../fonts/Verdana.ttf
1033.508	n/a	WORD	516754	wordpools/wasnorm_wordpool.txt	LTP117	ltpFR	5	6	-1	UNICORN	1538	n/a	-1	1	1.0	1.0	upper	../fonts/Verdana.ttf
1037.604	n/a	WORD	518802	wordpools/wasnorm_wordpool.txt	LTP117	ltpFR	5	6	-1	BRACES	164	n/a	-1	1	1.0	1.0	upper	../fonts/Verdana.ttf
1041.648	n/a	WORD	520824	wordpools/wasnorm_wordpool.txt	LTP117	ltpFR	5	6	-1	KEEPER	769	n/a	-1	1	1.0	1.0	upper	../fonts/Verdana.ttf
1045.644	n/a	WORD	522822	wordpools/wasnorm_wordpool.txt	LTP117	ltpFR	5	6	-1	SKI	1316	n/a	-1	1	1.0	1.0	upper	../fonts/Verdana.ttf
1049.846	n/a	WORD	524923	wordpools/wasnorm_wordpool.txt	LTP117	ltpFR	5	6	-1	WATERFALL	1595	n/a	-1	1	1.0	1.0	upper	../fonts/Verdana.ttf
1053.668	n/a	WORD	526834	wordpools/wasnorm_wordpool.txt	LTP117	ltpFR	5	6	-1	COD	340	n/a	-1	1	1.0	1.0	upper	../fonts/Verdana.ttf
1057.622	n/a	WORD	528811	wordpools/wasnorm_wordpool.txt	LTP117	ltpFR	5	6	-1	WALL	1582	n/a	-1	1	1.0	1.0	upper	../fonts/Verdana.ttf
1061.468	n/a	WORD	530734	wordpools/wasnorm_wordpool.txt	LTP117	ltpFR	5	6	-1	BALCONY	72	n/a	-1	1	1.0	1.0	upper	../fonts/Verdana.ttf
1065.538	n/a	WORD	532769	wordpools/wasnorm_wordpool.txt	LTP117	ltpFR	5	6	-1	COLT	349	n/a	-1	1	1.0	1.0	upper	../fonts/Verdana.ttf
1069.526	n/a	WORD	534763	wordpools/wasnorm_wordpool.txt	LTP117	ltpFR	5	6	-1	GROCERY	664	n/a	-1	1	1.0	1.0	upper	../fonts/Verdana.ttf
1073.37	n/a	WORD	536685	wordpools/wasnorm_wordpool.txt	LTP117	ltpFR	5	6	-1	YOUTH	1634	n/a	-1	1	1.0	1.0	upper	../fonts/Verdana.ttf
1079.206	n/a	REC_START	539603	n/a	LTP117	ltpFR	5	6	n/a	n/a	n/a	n/a	n/a	n/a	n/a	n/a	n/a	n/a
1079.704	n/a	REC_WORD	539852	wordpools/wasnorm_wordpool.txt	LTP117	ltpFR	5	6	-1	BALCONY	72	n/a	-1	n/a	n/a	n/a	n/a	n/a
1080.538	n/a	REC_WORD	540269	wordpools/wasnorm_wordpool.txt	LTP117	ltpFR	5	6	-1	COLT	349	n/a	-1	n/a	n/a	n/a	n/a	n/a
1081.624	n/a	REC_WORD	540812	wordpools/wasnorm_wordpool.txt	LTP117	ltpFR	5	6	-1	WALL	1582	n/a	-1	n/a	n/a	n/a	n/a	n/a
1083.002	n/a	REC_WORD	541501	wordpools/wasnorm_wordpool.txt	LTP117	ltpFR	5	6	-1	YOUTH	1634	n/a	-1	n/a	n/a	n/a	n/a	n/a
1083.73	n/a	REC_WORD	541865	wordpools/wasnorm_wordpool.txt	LTP117	ltpFR	5	6	-1	WATERFALL	1595	n/a	-1	n/a	n/a	n/a	n/a	n/a
1084.452	n/a	REC_WORD	542226	wordpools/wasnorm_wordpool.txt	LTP117	ltpFR	5	6	-1	SKI	1316	n/a	-1	n/a	n/a	n/a	n/a	n/a
1085.396	n/a	REC_WORD	542698	wordpools/wasnorm_wordpool.txt	LTP117	ltpFR	5	6	-1	COD	340	n/a	-1	n/a	n/a	n/a	n/a	n/a
1090.216	n/a	REC_WORD	545108	wordpools/wasnorm_wordpool.txt	LTP117	ltpFR	5	6	-1	BRACES	164	n/a	-1	n/a	n/a	n/a	n/a	n/a
1091.468	n/a	REC_WORD	545734	wordpools/wasnorm_wordpool.txt	LTP117	ltpFR	5	6	-1	KEEPER	769	n/a	-1	n/a	n/a	n/a	n/a	n/a
1094.616	n/a	REC_WORD	547308	wordpools/wasnorm_wordpool.txt	LTP117	ltpFR	5	6	-1	UNICORN	1538	n/a	-1	n/a	n/a	n/a	n/a	n/a
1095.604	n/a	REC_WORD	547802	wordpools/wasnorm_wordpool.txt	LTP117	ltpFR	5	6	-1	PAWN	1030	n/a	-1	n/a	n/a	n/a	n/a	n/a
1099.54	n/a	REC_WORD	549770	wordpools/wasnorm_wordpool.txt	LTP117	ltpFR	5	6	-1	BRACES	164	n/a	-1	n/a	n/a	n/a	n/a	n/a
1157.156	n/a	WORD	578578	wordpools/wasnorm_wordpool.txt	LTP117	ltpFR	5	7	1	TROPHY	1509	n/a	0	0	0.5869140625	0.422607421875	lower	../fonts/amplitud.ttf
1160.994	n/a	WORD	580497	wordpools/wasnorm_wordpool.txt	LTP117	ltpFR	5	7	1	CLOTHES	327	n/a	0	0	0.5869140625	0.422607421875	lower	../fonts/amplitud.ttf
1164.982	n/a	WORD	582491	wordpools/wasnorm_wordpool.txt	LTP117	ltpFR	5	7	1	LAKE	796	n/a	0	0	0.5869140625	0.422607421875	lower	../fonts/amplitud.ttf
1169.152	n/a	WORD	584576	wordpools/wasnorm_wordpool.txt	LTP117	ltpFR	5	7	1	ATTORNEY	58	n/a	1	0	0.5869140625	0.422607421875	lower	../fonts/amplitud.ttf
1173.196	n/a	WORD	586598	wordpools/wasnorm_wordpool.txt	LTP117	ltpFR	5	7	1	CHART	282	n/a	1	0	0.5869140625	0.422607421875	lower	../fonts/amplitud.ttf
1177.226	n/a	WORD	588613	wordpools/wasnorm_wordpool.txt	LTP117	ltpFR	5	7	1	SPIDER	1351	n/a	0	0	0.5869140625	0.422607421875	lower	../fonts/amplitud.ttf
1181.154	n/a	WORD	590577	wordpools/wasnorm_wordpool.txt	LTP117	ltpFR	5	7	1	COLONEL	348	n/a	1	0	0.5869140625	0.422607421875	lower	../fonts/amplitud.ttf
1185.116	n/a	WORD	592558	wordpools/wasnorm_wordpool.txt	LTP117	ltpFR	5	7	1	SOLDIER	1344	n/a	1	0	0.5869140625	0.422607421875	lower	../fonts/amplitud.ttf
1189.036	n/a	WORD	594518	wordpools/wasnorm_wordpool.txt	LTP117	ltpFR	5	7	1	CRICKET	408	n/a	1	0	0.5869140625	0.422607421875	lower	../fonts/amplitud.ttf
1193.066	n/a	WORD	596533	wordpools/wasnorm_wordpool.txt	LTP117	ltpFR	5	7	1	NOVEL	960	n/a	0	0	0.5869140625	0.422607421875	lower	../fonts/amplitud.ttf
1197.136	n/a	WORD	598568	wordpools/wasnorm_wordpool.txt	LTP117	ltpFR	5	7	1	DIARY	460	n/a	0	0	0.5869140625	0.422607421875	lower	../fonts/amplitud.ttf
1201.132	n/a	WORD	600566	wordpools/wasnorm_wordpool.txt	LTP117	ltpFR	5	7	1	OCTOPUS	971	n/a	0	0	0.5869140625	0.422607421875	lower	../fonts/amplitud.ttf
1205.094	n/a	WORD	602547	wordpools/wasnorm_wordpool.txt	LTP117	ltpFR	5	7	1	WASHER	1592	n/a	0	0	0.5869140625	0.422607421875	lower	../fonts/amplitud.ttf
1209.188	n/a	WORD	604594	wordpools/wasnorm_wordpool.txt	LTP117	ltpFR	5	7	1	STEAM	1375	n/a	0	0	0.5869140625	0.422607421875	lower	../fonts/amplitud.ttf
1213.134	n/a	WORD	606567	wordpools/wasnorm_wordpool.txt	LTP117	ltpFR	5	7	1	PHOTO	1055	n/a	0	0	0.5869140625	0.422607421875	lower	../fonts/amplitud.ttf
1217.338	n/a	WORD	608669	wordpools/wasnorm_wordpool.txt	LTP117	ltpFR	5	7	1	VIOLA	1570	n/a	0	0	0.5869140625	0.422607421875	lower	../fonts/amplitud.ttf
1223.098	n/a	REC_START	611549	n/a	LTP117	ltpFR	5	7	n/a	n/a	n/a	n/a	n/a	n/a	n/a	n/a	n/a	n/a
1223.746	n/a	REC_WORD	611873	wordpools/wasnorm_wordpool.txt	LTP117	ltpFR	5	7	1	DIARY	460	n/a	0	n/a	n/a	n/a	n/a	n/a
1224.44	n/a	REC_WORD	612220	wordpools/wasnorm_wordpool.txt	LTP117	ltpFR	5	7	1	OCTOPUS	971	n/a	0	n/a	n/a	n/a	n/a	n/a
1225.058	n/a	REC_WORD	612529	wordpools/wasnorm_wordpool.txt	LTP117	ltpFR	5	7	1	STEAM	1375	n/a	0	n/a	n/a	n/a	n/a	n/a
1226.126	n/a	REC_WORD	613063	wordpools/wasnorm_wordpool.txt	LTP117	ltpFR	5	7	1	VIOLA	1570	n/a	0	n/a	n/a	n/a	n/a	n/a
1228.03	n/a	REC_WORD	614015	wordpools/wasnorm_wordpool.txt	LTP117	ltpFR	5	7	1	ATTORNEY	58	n/a	1	n/a	n/a	n/a	n/a	n/a
1229.214	n/a	REC_WORD	614607	wordpools/wasnorm_wordpool.txt	LTP117	ltpFR	5	7	1	SOLDIER	1344	n/a	1	n/a	n/a	n/a	n/a	n/a
1230.156	n/a	REC_WORD	615078	wordpools/wasnorm_wordpool.txt	LTP117	ltpFR	5	7	1	COLONEL	348	n/a	1	n/a	n/a	n/a	n/a	n/a
1244.444	n/a	REC_WORD	622222	wordpools/wasnorm_wordpool.txt	LTP117	ltpFR	5	7	1	SPIDER	1351	n/a	0	n/a	n/a	n/a	n/a	n/a
1254.332	n/a	REC_WORD	627166	wordpools/wasnorm_wordpool.txt	LTP117	ltpFR	5	7	1	CHART	282	n/a	1	n/a	n/a	n/a	n/a	n/a
1257.066	n/a	REC_WORD	628533	wordpools/wasnorm_wordpool.txt	LTP117	ltpFR	5	7	1	NOVEL	960	n/a	0	n/a	n/a	n/a	n/a	n/a
1301.534	n/a	WORD	650767	wordpools/wasnorm_wordpool.txt	LTP117	ltpFR	5	8	0	WORKER	1621	n/a	1	1	0.412841796875	0.57763671875	upper	../fonts/zerothre.ttf
1305.428	n/a	WORD	652714	wordpools/wasnorm_wordpool.txt	LTP117	ltpFR	5	8	0	MONEY	908	n/a	0	1	0.412841796875	0.57763671875	upper	../fonts/zerothre.ttf
1309.432	n/a	WORD	654716	wordpools/wasnorm_wordpool.txt	LTP117	ltpFR	5	8	0	GARAGE	621	n/a	1	1	0.412841796875	0.57763671875	upper	../fonts/zerothre.ttf
1313.47	n/a	WORD	656735	wordpools/wasnorm_wordpool.txt	LTP117	ltpFR	5	8	0	RIB	1188	n/a	0	1	0.412841796875	0.57763671875	upper	../fonts/zerothre.ttf
1317.506	n/a	WORD	658753	wordpools/wasnorm_wordpool.txt	LTP117	ltpFR	5	8	0	MINK	897	n/a	0	1	0.412841796875	0.57763671875	upper	../fonts/zerothre.ttf
1321.518	n/a	WORD	660759	wordpools/wasnorm_wordpool.txt	LTP117	ltpFR	5	8	0	LACE	792	n/a	0	1	0.412841796875	0.57763671875	upper	../fonts/zerothre.ttf
1325.48	n/a	WORD	662740	wordpools/wasnorm_wordpool.txt	LTP117	ltpFR	5	8	0	BANJO	82	n/a	1	1	0.412841796875	0.57763671875	upper	../fonts/zerothre.ttf
1329.324	n/a	WORD	664662	wordpools/wasnorm_wordpool.txt	LTP117	ltpFR	5	8	0	SHINGLE	1285	n/a	0	1	0.412841796875	0.57763671875	upper	../fonts/zerothre.ttf
1333.336	n/a	WORD	666668	wordpools/wasnorm_wordpool.txt	LTP117	ltpFR	5	8	0	DRIVEWAY	500	n/a	0	1	0.412841796875	0.57763671875	upper	../fonts/zerothre.ttf
1337.5	n/a	WORD	668750	wordpools/wasnorm_wordpool.txt	LTP117	ltpFR	5	8	0	FRANCE	601	n/a	1	1	0.412841796875	0.57763671875	upper	../fonts/zerothre.ttf
1341.628	n/a	WORD	670814	wordpools/wasnorm_wordpool.txt	LTP117	ltpFR	5	8	0	MESSAGE	888	n/a	1	1	0.412841796875	0.57763671875	upper	../fonts/zerothre.ttf
1345.648	n/a	WORD	672824	wordpools/wasnorm_wordpool.txt	LTP117	ltpFR	5	8	0	BOOTH	151	n/a	1	1	0.412841796875	0.57763671875	upper	../fonts/zerothre.ttf
1349.668	n/a	WORD	674834	wordpools/wasnorm_wordpool.txt	LTP117	ltpFR	5	8	0	MANSION	864	n/a	1	1	0.412841796875	0.57763671875	upper	../fonts/zerothre.ttf
1353.754	n/a	WORD	676877	wordpools/wasnorm_wordpool.txt	LTP117	ltpFR	5	8	0	KNOT	788	n/a	0	1	0.412841796875	0.57763671875	upper	../fonts/zerothre.ttf
1357.67	n/a	WORD	678835	wordpools/wasnorm_wordpool.txt	LTP117	ltpFR	5	8	0	APPLE	33	n/a	0	1	0.412841796875	0.57763671875	upper	../fonts/zerothre.ttf
1361.69	n/a	WORD	680845	wordpools/wasnorm_wordpool.txt	LTP117	ltpFR	5	8	0	STRAWBERRY	1391	n/a	0	1	0.412841796875	0.57763671875	upper	../fonts/zerothre.ttf
1367.45	n/a	REC_START	683725	n/a	LTP117	ltpFR	5	8	n/a	n/a	n/a	n/a	n/a	n/a	n/a	n/a	n/a	n/a
1368.062	n/a	REC_WORD	684031	wordpools/wasnorm_wordpool.txt	LTP117	ltpFR	5	8	0	STRAWBERRY	1391	n/a	0	n/a	n/a	n/a	n/a	n/a
1368.976	n/a	REC_WORD	684488	wordpools/wasnorm_wordpool.txt	LTP117	ltpFR	5	8	0	APPLE	33	n/a	0	n/a	n/a	n/a	n/a	n/a
1369.55	n/a	REC_WORD	684775	wordpools/wasnorm_wordpool.txt	LTP117	ltpFR	5	8	0	MESSAGE	888	n/a	1	n/a	n/a	n/a	n/a	n/a
1371.25	n/a	REC_WORD	685625	wordpools/wasnorm_wordpool.txt	LTP117	ltpFR	5	8	0	KNOT	788	n/a	0	n/a	n/a	n/a	n/a	n/a
1373.136	n/a	REC_WORD	686568	wordpools/wasnorm_wordpool.txt	LTP117	ltpFR	5	8	0	WORKER	1621	n/a	1	n/a	n/a	n/a	n/a	n/a
1373.984	n/a	REC_WORD	686992	wordpools/wasnorm_wordpool.txt	LTP117	ltpFR	5	8	0	MONEY	908	n/a	0	n/a	n/a	n/a	n/a	n/a
1375.66	n/a	REC_WORD	687830	wordpools/wasnorm_wordpool.txt	LTP117	ltpFR	5	8	n/a	ROOF	1205	n/a	n/a	n/a	n/a	n/a	n/a	n/a
1376.584	n/a	REC_WORD	688292	wordpools/wasnorm_wordpool.txt	LTP117	ltpFR	5	8	0	SHINGLE	1285	n/a	0	n/a	n/a	n/a	n/a	n/a
1378.01	n/a	REC_WORD	689005	wordpools/wasnorm_wordpool.txt	LTP117	ltpFR	5	8	0	MANSION	864	n/a	1	n/a	n/a	n/a	n/a	n/a
1384.172	n/a	REC_WORD	692086	wordpools/wasnorm_wordpool.txt	LTP117	ltpFR	5	8	0	FRANCE	601	n/a	1	n/a	n/a	n/a	n/a	n/a
1445.358	n/a	WORD	722679	wordpools/wasnorm_wordpool.txt	LTP117	ltpFR	5	9	0	FOLDER	588	n/a	1	1	0.412841796875	0.57763671875	upper	../fonts/zerothre.ttf
1449.328	n/a	WORD	724664	wordpools/wasnorm_wordpool.txt	LTP117	ltpFR	5	9	0	CHIEF	298	n/a	1	1	0.412841796875	0.57763671875	upper	../fonts/zerothre.ttf
1453.342	n/a	WORD	726671	wordpools/wasnorm_wordpool.txt	LTP117	ltpFR	5	9	0	SNORKEL	1336	n/a	0	1	0.412841796875	0.57763671875	upper	../fonts/zerothre.ttf
1457.296	n/a	WORD	728648	wordpools/wasnorm_wordpool.txt	LTP117	ltpFR	5	9	0	ARCHITECT	36	n/a	1	1	0.412841796875	0.57763671875	upper	../fonts/zerothre.ttf
1461.316	n/a	WORD	730658	wordpools/wasnorm_wordpool.txt	LTP117	ltpFR	5	9	1	BUILDER	190	n/a	1	0	0.5869140625	0.422607421875	lower	../fonts/amplitud.ttf
1465.378	n/a	WORD	732689	wordpools/wasnorm_wordpool.txt	LTP117	ltpFR	5	9	1	SPATULA	1348	n/a	0	0	0.5869140625	0.422607421875	lower	../fonts/amplitud.ttf
1469.524	n/a	WORD	734762	wordpools/wasnorm_wordpool.txt	LTP117	ltpFR	5	9	1	PLATE	1086	n/a	0	0	0.5869140625	0.422607421875	lower	../fonts/amplitud.ttf
1473.452	n/a	WORD	736726	wordpools/wasnorm_wordpool.txt	LTP117	ltpFR	5	9	1	COMMANDER	354	n/a	0	0	0.5869140625	0.422607421875	lower	../fonts/amplitud.ttf
1477.48	n/a	WORD	738740	wordpools/wasnorm_wordpool.txt	LTP117	ltpFR	5	9	1	ATTIRE	57	n/a	0	0	0.5869140625	0.422607421875	lower	../fonts/amplitud.ttf
1481.308	n/a	WORD	740654	wordpools/wasnorm_wordpool.txt	LTP117	ltpFR	5	9	0	LINT	826	n/a	0	1	0.412841796875	0.57763671875	upper	../fonts/zerothre.ttf
1485.246	n/a	WORD	742623	wordpools/wasnorm_wordpool.txt	LTP117	ltpFR	5	9	0	SHEEP	1278	n/a	1	1	0.412841796875	0.57763671875	upper	../fonts/zerothre.ttf
1489.216	n/a	WORD	744608	wordpools/wasnorm_wordpool.txt	LTP117	ltpFR	5	9	0	SPIT	1354	n/a	0	1	0.412841796875	0.57763671875	upper	../fonts/zerothre.ttf
1493.178	n/a	WORD	746589	wordpools/wasnorm_wordpool.txt	LTP117	ltpFR	5	9	0	CROW	414	n/a	0	1	0.412841796875	0.57763671875	upper	../fonts/zerothre.ttf
1497.158	n/a	WORD	748579	wordpools/wasnorm_wordpool.txt	LTP117	ltpFR	5	9	1	HOOP	716	n/a	0	0	0.5869140625	0.422607421875	lower	../fonts/amplitud.ttf
1500.986	n/a	WORD	750493	wordpools/wasnorm_wordpool.txt	LTP117	ltpFR	5	9	1	CREEK	404	n/a	0	0	0.5869140625	0.422607421875	lower	../fonts/amplitud.ttf
1504.848	n/a	WORD	752424	wordpools/wasnorm_wordpool.txt	LTP117	ltpFR	5	9	1	BLUEPRINT	142	n/a	1	0	0.5869140625	0.422607421875	lower	../fonts/amplitud.ttf
1510.584	n/a	REC_START	755292	n/a	LTP117	ltpFR	5	9	n/a	n/a	n/a	n/a	n/a	n/a	n/a	n/a	n/a	n/a
1511.438	n/a	REC_WORD	755719	wordpools/wasnorm_wordpool.txt	LTP117	ltpFR	5	9	1	COMMANDER	354	n/a	0	n/a	n/a	n/a	n/a	n/a
1512.126	n/a	REC_WORD	756063	wordpools/wasnorm_wordpool.txt	LTP117	ltpFR	5	9	0	SPIT	1354	n/a	0	n/a	n/a	n/a	n/a	n/a
1513.138	n/a	REC_WORD	756569	wordpools/wasnorm_wordpool.txt	LTP117	ltpFR	5	9	1	HOOP	716	n/a	0	n/a	n/a	n/a	n/a	n/a
1513.986	n/a	REC_WORD	756993	wordpools/wasnorm_wordpool.txt	LTP117	ltpFR	5	9	1	BLUEPRINT	142	n/a	1	n/a	n/a	n/a	n/a	n/a
1515.364	n/a	REC_WORD	757682	wordpools/wasnorm_wordpool.txt	LTP117	ltpFR	5	9	1	BUILDER	190	n/a	1	n/a	n/a	n/a	n/a	n/a
1516.122	n/a	REC_WORD	758061	wordpools/wasnorm_wordpool.txt	LTP117	ltpFR	5	9	0	ARCHITECT	36	n/a	1	n/a	n/a	n/a	n/a	n/a
1519.978	n/a	REC_WORD	759989	wordpools/wasnorm_wordpool.txt	LTP117	ltpFR	5	9	0	LINT	826	n/a	0	n/a	n/a	n/a	n/a	n/a
1555.768	n/a	REC_WORD	777884	wordpools/wasnorm_wordpool.txt	LTP117	ltpFR	5	9	0	CHIEF	298	n/a	1	n/a	n/a	n/a	n/a	n/a
1565.286	n/a	REC_WORD	782643	wordpools/wasnorm_wordpool.txt	LTP117	ltpFR	5	9	1	COMMANDER	354	n/a	0	n/a	n/a	n/a	n/a	n/a
1588.67	n/a	WORD	794335	wordpools/wasnorm_wordpool.txt	LTP117	ltpFR	5	10	-1	BRAIN	165	n/a	-1	1	1.0	1.0	upper	../fonts/Verdana.ttf
1592.632	n/a	WORD	796316	wordpools/wasnorm_wordpool.txt	LTP117	ltpFR	5	10	-1	CONE	363	n/a	-1	1	1.0	1.0	upper	../fonts/Verdana.ttf
1596.528	n/a	WORD	798264	wordpools/wasnorm_wordpool.txt	LTP117	ltpFR	5	10	-1	FOREHEAD	592	n/a	-1	1	1.0	1.0	upper	../fonts/Verdana.ttf
1600.464	n/a	WORD	800232	wordpools/wasnorm_wordpool.txt	LTP117	ltpFR	5	10	-1	EARRING	514	n/a	-1	1	1.0	1.0	upper	../fonts/Verdana.ttf
1604.358	n/a	WORD	802179	wordpools/wasnorm_wordpool.txt	LTP117	ltpFR	5	10	-1	SISTER	1312	n/a	-1	1	1.0	1.0	upper	../fonts/Verdana.ttf
1608.17	n/a	WORD	804085	wordpools/wasnorm_wordpool.txt	LTP117	ltpFR	5	10	-1	BATHTUB	100	n/a	-1	1	1.0	1.0	upper	../fonts/Verdana.ttf
1612.282	n/a	WORD	806141	wordpools/wasnorm_wordpool.txt	LTP117	ltpFR	5	10	-1	COYOTE	396	n/a	-1	1	1.0	1.0	upper	../fonts/Verdana.ttf
1616.27	n/a	WORD	808135	wordpools/wasnorm_wordpool.txt	LTP117	ltpFR	5	10	-1	PIN	1072	n/a	-1	1	1.0	1.0	upper	../fonts/Verdana.ttf
1620.266	n/a	WORD	810133	wordpools/wasnorm_wordpool.txt	LTP117	ltpFR	5	10	-1	PELICAN	1039	n/a	-1	1	1.0	1.0	upper	../fonts/Verdana.ttf
1624.228	n/a	WORD	812114	wordpools/wasnorm_wordpool.txt	LTP117	ltpFR	5	10	-1	EAGLE	512	n/a	-1	1	1.0	1.0	upper	../fonts/Verdana.ttf
1628.222	n/a	WORD	814111	wordpools/wasnorm_wordpool.txt	LTP117	ltpFR	5	10	-1	BILL	126	n/a	-1	1	1.0	1.0	upper	../fonts/Verdana.ttf
1632.392	n/a	WORD	816196	wordpools/wasnorm_wordpool.txt	LTP117	ltpFR	5	10	-1	WAVE	1596	n/a	-1	1	1.0	1.0	upper	../fonts/Verdana.ttf
1636.238	n/a	WORD	818119	wordpools/wasnorm_wordpool.txt	LTP117	ltpFR	5	10	-1	RAFT	1159	n/a	-1	1	1.0	1.0	upper	../fonts/Verdana.ttf
1640.058	n/a	WORD	820029	wordpools/wasnorm_wordpool.txt	LTP117	ltpFR	5	10	-1	SWIMMER	1420	n/a	-1	1	1.0	1.0	upper	../fonts/Verdana.ttf
1644.146	n/a	WORD	822073	wordpools/wasnorm_wordpool.txt	LTP117	ltpFR	5	10	-1	SIBLING	1301	n/a	-1	1	1.0	1.0	upper	../fonts/Verdana.ttf
1648.108	n/a	WORD	824054	wordpools/wasnorm_wordpool.txt	LTP117	ltpFR	5	10	-1	POSSUM	1112	n/a	-1	1	1.0	1.0	upper	../fonts/Verdana.ttf
1653.696	n/a	REC_START	826848	n/a	LTP117	ltpFR	5	10	n/a	n/a	n/a	n/a	n/a	n/a	n/a	n/a	n/a	n/a
1654.234	n/a	REC_WORD	827117	wordpools/wasnorm_wordpool.txt	LTP117	ltpFR	5	10	-1	WAVE	1596	n/a	-1	n/a	n/a	n/a	n/a	n/a
1654.998	n/a	REC_WORD	827499	wordpools/wasnorm_wordpool.txt	LTP117	ltpFR	5	10	-1	RAFT	1159	n/a	-1	n/a	n/a	n/a	n/a	n/a
1655.676	n/a	REC_WORD	827838	wordpools/wasnorm_wordpool.txt	LTP117	ltpFR	5	10	-1	SWIMMER	1420	n/a	-1	n/a	n/a	n/a	n/a	n/a
1656.388	n/a	REC_WORD	828194	wordpools/wasnorm_wordpool.txt	LTP117	ltpFR	5	10	-1	SWIMMER	1420	n/a	-1	n/a	n/a	n/a	n/a	n/a
1657.318	n/a	REC_WORD	828659	wordpools/wasnorm_wordpool.txt	LTP117	ltpFR	5	10	-1	POSSUM	1112	n/a	-1	n/a	n/a	n/a	n/a	n/a
1658.15	n/a	REC_WORD	829075	wordpools/wasnorm_wordpool.txt	LTP117	ltpFR	5	10	-1	COYOTE	396	n/a	-1	n/a	n/a	n/a	n/a	n/a
1659.822	n/a	REC_WORD	829911	wordpools/wasnorm_wordpool.txt	LTP117	ltpFR	5	10	1	GULL	671	n/a	1	n/a	n/a	n/a	n/a	n/a
1661.682	n/a	REC_WORD	830841	wordpools/wasnorm_wordpool.txt	LTP117	ltpFR	5	10	-1	EAGLE	512	n/a	-1	n/a	n/a	n/a	n/a	n/a
1662.51	n/a	REC_WORD	831255	wordpools/wasnorm_wordpool.txt	LTP117	ltpFR	5	10	-1	PELICAN	1039	n/a	-1	n/a	n/a	n/a	n/a	n/a
1664.362	n/a	REC_WORD	832181	wordpools/wasnorm_wordpool.txt	LTP117	ltpFR	5	10	-1	BILL	126	n/a	-1	n/a	n/a	n/a	n/a	n/a
1665.618	n/a	REC_WORD	832809	wordpools/wasnorm_wordpool.txt	LTP117	ltpFR	5	10	-1	SISTER	1312	n/a	-1	n/a	n/a	n/a	n/a	n/a
1666.566	n/a	REC_WORD	833283	wordpools/wasnorm_wordpool.txt	LTP117	ltpFR	5	10	-1	FOREHEAD	592	n/a	-1	n/a	n/a	n/a	n/a	n/a
1667.952	n/a	REC_WORD	833976	wordpools/wasnorm_wordpool.txt	LTP117	ltpFR	5	10	-1	EARRING	514	n/a	-1	n/a	n/a	n/a	n/a	n/a
1668.732	n/a	REC_WORD	834366	wordpools/wasnorm_wordpool.txt	LTP117	ltpFR	5	10	-1	CONE	363	n/a	-1	n/a	n/a	n/a	n/a	n/a
1670.068	n/a	REC_WORD	835034	wordpools/wasnorm_wordpool.txt	LTP117	ltpFR	5	10	-1	BRAIN	165	n/a	-1	n/a	n/a	n/a	n/a	n/a
1677.186	n/a	REC_WORD	838593	wordpools/wasnorm_wordpool.txt	LTP117	ltpFR	5	10	-1	PIN	1072	n/a	-1	n/a	n/a	n/a	n/a	n/a
1709.948	n/a	REC_WORD	854974	wordpools/wasnorm_wordpool.txt	LTP117	ltpFR	5	10	n/a	TUB	1514	n/a	n/a	n/a	n/a	n/a	n/a	n/a
1711.17	n/a	REC_WORD	855585	wordpools/wasnorm_wordpool.txt	LTP117	ltpFR	5	10	-1	BATHTUB	100	n/a	-1	n/a	n/a	n/a	n/a	n/a
1717.96	n/a	REC_WORD	858980	wordpools/wasnorm_wordpool.txt	LTP117	ltpFR	5	10	-1	RAFT	1159	n/a	-1	n/a	n/a	n/a	n/a	n/a
1719.126	n/a	REC_WORD	859563	wordpools/wasnorm_wordpool.txt	LTP117	ltpFR	5	10	-1	SWIMMER	1420	n/a	-1	n/a	n/a	n/a	n/a	n/a
1879.392	n/a	WORD	939696	wordpools/wasnorm_wordpool.txt	LTP117	ltpFR	5	11	1	CARTON	251	n/a	0	0	0.5869140625	0.422607421875	lower	../fonts/amplitud.ttf
1883.514	n/a	WORD	941757	wordpools/wasnorm_wordpool.txt	LTP117	ltpFR	5	11	1	CIGAR	308	n/a	0	0	0.5869140625	0.422607421875	lower	../fonts/amplitud.ttf
1887.45	n/a	WORD	943725	wordpools/wasnorm_wordpool.txt	LTP117	ltpFR	5	11	1	LADY	794	n/a	0	0	0.5869140625	0.422607421875	lower	../fonts/amplitud.ttf
1891.296	n/a	WORD	945648	wordpools/wasnorm_wordpool.txt	LTP117	ltpFR	5	11	1	ATOM	55	n/a	0	0	0.5869140625	0.422607421875	lower	../fonts/amplitud.ttf
1895.45	n/a	WORD	947725	wordpools/wasnorm_wordpool.txt	LTP117	ltpFR	5	11	1	ORCHESTRA	981	n/a	1	0	0.5869140625	0.422607421875	lower	../fonts/amplitud.ttf
1899.554	n/a	WORD	949777	wordpools/wasnorm_wordpool.txt	LTP117	ltpFR	5	11	0	GUITAR	670	n/a	1	1	0.412841796875	0.57763671875	upper	../fonts/zerothre.ttf
1903.44	n/a	WORD	951720	wordpools/wasnorm_wordpool.txt	LTP117	ltpFR	5	11	0	THORN	1459	n/a	0	1	0.412841796875	0.57763671875	upper	../fonts/zerothre.ttf
1907.528	n/a	WORD	953764	wordpools/wasnorm_wordpool.txt	LTP117	ltpFR	5	11	0	GUARDIAN	668	n/a	0	1	0.412841796875	0.57763671875	upper	../fonts/zerothre.ttf
1911.406	n/a	WORD	955703	wordpools/wasnorm_wordpool.txt	LTP117	ltpFR	5	11	1	ADULT	8	n/a	0	0	0.5869140625	0.422607421875	lower	../fonts/amplitud.ttf
1915.61	n/a	WORD	957805	wordpools/wasnorm_wordpool.txt	LTP117	ltpFR	5	11	1	WOMAN	1620	n/a	0	0	0.5869140625	0.422607421875	lower	../fonts/amplitud.ttf
1919.754	n/a	WORD	959877	wordpools/wasnorm_wordpool.txt	LTP117	ltpFR	5	11	1	EXPLOSION	544	n/a	1	0	0.5869140625	0.422607421875	lower	../fonts/amplitud.ttf
1923.858	n/a	WORD	961929	wordpools/wasnorm_wordpool.txt	LTP117	ltpFR	5	11	0	RAKE	1164	n/a	1	1	0.412841796875	0.57763671875	upper	../fonts/zerothre.ttf
1928.036	n/a	WORD	964018	wordpools/wasnorm_wordpool.txt	LTP117	ltpFR	5	11	0	TAPIOCA	1434	n/a	0	1	0.412841796875	0.57763671875	upper	../fonts/zerothre.ttf
1932.04	n/a	WORD	966020	wordpools/wasnorm_wordpool.txt	LTP117	ltpFR	5	11	0	LOLLIPOP	842	n/a	0	1	0.412841796875	0.57763671875	upper	../fonts/zerothre.ttf
1936.21	n/a	WORD	968105	wordpools/wasnorm_wordpool.txt	LTP117	ltpFR	5	11	0	WITNESS	1618	n/a	1	1	0.412841796875	0.57763671875	upper	../fonts/zerothre.ttf
1940.03	n/a	WORD	970015	wordpools/wasnorm_wordpool.txt	LTP117	ltpFR	5	11	0	ROBOT	1200	n/a	1	1	0.412841796875	0.57763671875	upper	../fonts/zerothre.ttf
1945.966	n/a	REC_START	972983	n/a	LTP117	ltpFR	5	11	n/a	n/a	n/a	n/a	n/a	n/a	n/a	n/a	n/a	n/a
1946.5	n/a	REC_WORD	973250	wordpools/wasnorm_wordpool.txt	LTP117	ltpFR	5	11	0	GUITAR	670	n/a	1	n/a	n/a	n/a	n/a	n/a
1947.254	n/a	REC_WORD	973627	wordpools/wasnorm_wordpool.txt	LTP117	ltpFR	5	11	0	THORN	1459	n/a	0	n/a	n/a	n/a	n/a	n/a
1948.126	n/a	REC_WORD	974063	wordpools/wasnorm_wordpool.txt	LTP117	ltpFR	5	11	1	LADY	794	n/a	0	n/a	n/a	n/a	n/a	n/a
1949.05	n/a	REC_WORD	974525	wordpools/wasnorm_wordpool.txt	LTP117	ltpFR	5	11	0	ROBOT	1200	n/a	1	n/a	n/a	n/a	n/a	n/a
1949.992	n/a	REC_WORD	974996	wordpools/wasnorm_wordpool.txt	LTP117	ltpFR	5	11	0	WITNESS	1618	n/a	1	n/a	n/a	n/a	n/a	n/a
1954.462	n/a	REC_WORD	977231	wordpools/wasnorm_wordpool.txt	LTP117	ltpFR	5	11	1	CARTON	251	n/a	0	n/a	n/a	n/a	n/a	n/a
1955.2	n/a	REC_WORD	977600	wordpools/wasnorm_wordpool.txt	LTP117	ltpFR	5	11	1	CIGAR	308	n/a	0	n/a	n/a	n/a	n/a	n/a
1957.022	n/a	REC_WORD	978511	wordpools/wasnorm_wordpool.txt	LTP117	ltpFR	5	11	1	ATOM	55	n/a	0	n/a	n/a	n/a	n/a	n/a
1975.864	n/a	REC_WORD	987932	wordpools/wasnorm_wordpool.txt	LTP117	ltpFR	5	11	0	THORN	1459	n/a	0	n/a	n/a	n/a	n/a	n/a
2024.392	n/a	WORD	1012196	wordpools/wasnorm_wordpool.txt	LTP117	ltpFR	5	12	0	IRON	744	n/a	1	1	0.412841796875	0.57763671875	upper	../fonts/zerothre.ttf
2028.296	n/a	WORD	1014148	wordpools/wasnorm_wordpool.txt	LTP117	ltpFR	5	12	0	STEW	1380	n/a	1	1	0.412841796875	0.57763671875	upper	../fonts/zerothre.ttf
2032.416	n/a	WORD	1016208	wordpools/wasnorm_wordpool.txt	LTP117	ltpFR	5	12	0	FLASK	576	n/a	0	1	0.412841796875	0.57763671875	upper	../fonts/zerothre.ttf
2036.27	n/a	WORD	1018135	wordpools/wasnorm_wordpool.txt	LTP117	ltpFR	5	12	0	MOTH	920	n/a	0	1	0.412841796875	0.57763671875	upper	../fonts/zerothre.ttf
2040.292	n/a	WORD	1020146	wordpools/wasnorm_wordpool.txt	LTP117	ltpFR	5	12	0	APE	31	n/a	1	1	0.412841796875	0.57763671875	upper	../fonts/zerothre.ttf
2044.412	n/a	WORD	1022206	wordpools/wasnorm_wordpool.txt	LTP117	ltpFR	5	12	0	CARROT	249	n/a	0	1	0.412841796875	0.57763671875	upper	../fonts/zerothre.ttf
2048.274	n/a	WORD	1024137	wordpools/wasnorm_wordpool.txt	LTP117	ltpFR	5	12	0	TERMITE	1451	n/a	0	1	0.412841796875	0.57763671875	upper	../fonts/zerothre.ttf
2052.318	n/a	WORD	1026159	wordpools/wasnorm_wordpool.txt	LTP117	ltpFR	5	12	0	CAFE	216	n/a	0	1	0.412841796875	0.57763671875	upper	../fonts/zerothre.ttf
2056.222	n/a	WORD	1028111	wordpools/wasnorm_wordpool.txt	LTP117	ltpFR	5	12	0	BANQUET	86	n/a	1	1	0.412841796875	0.57763671875	upper	../fonts/zerothre.ttf
2060.276	n/a	WORD	1030138	wordpools/wasnorm_wordpool.txt	LTP117	ltpFR	5	12	0	SCOUT	1252	n/a	1	1	0.412841796875	0.57763671875	upper	../fonts/zerothre.ttf
2064.28	n/a	WORD	1032140	wordpools/wasnorm_wordpool.txt	LTP117	ltpFR	5	12	0	FATHER	554	n/a	1	1	0.412841796875	0.57763671875	upper	../fonts/zerothre.ttf
2068.226	n/a	WORD	1034113	wordpools/wasnorm_wordpool.txt	LTP117	ltpFR	5	12	0	MAMMAL	861	n/a	1	1	0.412841796875	0.57763671875	upper	../fonts/zerothre.ttf
2072.412	n/a	WORD	1036206	wordpools/wasnorm_wordpool.txt	LTP117	ltpFR	5	12	0	CLOUD	328	n/a	0	1	0.412841796875	0.57763671875	upper	../fonts/zerothre.ttf
2076.25	n/a	WORD	1038125	wordpools/wasnorm_wordpool.txt	LTP117	ltpFR	5	12	0	SMOG	1330	n/a	1	1	0.412841796875	0.57763671875	upper	../fonts/zerothre.ttf
2080.312	n/a	WORD	1040156	wordpools/wasnorm_wordpool.txt	LTP117	ltpFR	5	12	0	PERSONNEL	1053	n/a	1	1	0.412841796875	0.57763671875	upper	../fonts/zerothre.ttf
2084.374	n/a	WORD	1042187	wordpools/wasnorm_wordpool.txt	LTP117	ltpFR	5	12	0	FRUIT	610	n/a	1	1	0.412841796875	0.57763671875	upper	../fonts/zerothre.ttf
2090.2	n/a	REC_START	1045100	n/a	LTP117	ltpFR	5	12	n/a	n/a	n/a	n/a	n/a	n/a	n/a	n/a	n/a	n/a
2092.624	n/a	REC_WORD	1046312	wordpools/wasnorm_wordpool.txt	LTP117	ltpFR	5	12	0	FATHER	554	n/a	1	n/a	n/a	n/a	n/a	n/a
2094.566	n/a	REC_WORD	1047283	wordpools/wasnorm_wordpool.txt	LTP117	ltpFR	5	12	0	APE	31	n/a	1	n/a	n/a	n/a	n/a	n/a
2095.324	n/a	REC_WORD	1047662	wordpools/wasnorm_wordpool.txt	LTP117	ltpFR	5	12	0	PERSONNEL	1053	n/a	1	n/a	n/a	n/a	n/a	n/a
2097.08	n/a	REC_WORD	1048540	wordpools/wasnorm_wordpool.txt	LTP117	ltpFR	5	12	0	MOTH	920	n/a	0	n/a	n/a	n/a	n/a	n/a
2110.116	n/a	REC_WORD	1055058	wordpools/wasnorm_wordpool.txt	LTP117	ltpFR	5	12	0	IRON	744	n/a	1	n/a	n/a	n/a	n/a	n/a
2115.742	n/a	REC_WORD	1057871	wordpools/wasnorm_wordpool.txt	LTP117	ltpFR	5	12	0	MAMMAL	861	n/a	1	n/a	n/a	n/a	n/a	n/a
2152.056	n/a	REC_WORD	1076028	wordpools/wasnorm_wordpool.txt	LTP117	ltpFR	5	12	0	SCOUT	1252	n/a	1	n/a	n/a	n/a	n/a	n/a
2154.724	n/a	REC_WORD	1077362	wordpools/wasnorm_wordpool.txt	LTP117	ltpFR	5	12	0	FATHER	554	n/a	1	n/a	n/a	n/a	n/a	n/a
2165.78	n/a	REST_REWET	1082890	n/a	LTP117	ltpFR	5	12	n/a	n/a	n/a	n/a	n/a	n/a	n/a	n/a	n/a	n/a
3147.06	n/a	WORD	1573530	wordpools/wasnorm_wordpool.txt	LTP117	ltpFR	5	13	-1	BARLEY	88	n/a	-1	1	1.0	1.0	upper	../fonts/Verdana.ttf
3150.93	n/a	WORD	1575465	wordpools/wasnorm_wordpool.txt	LTP117	ltpFR	5	13	-1	COTTON	385	n/a	-1	1	1.0	1.0	upper	../fonts/Verdana.ttf
3155.074	n/a	WORD	1577537	wordpools/wasnorm_wordpool.txt	LTP117	ltpFR	5	13	-1	CONCERT	360	n/a	-1	1	1.0	1.0	upper	../fonts/Verdana.ttf
3158.896	n/a	WORD	1579448	wordpools/wasnorm_wordpool.txt	LTP117	ltpFR	5	13	-1	ALBUM	14	n/a	-1	1	1.0	1.0	upper	../fonts/Verdana.ttf
3162.708	n/a	WORD	1581354	wordpools/wasnorm_wordpool.txt	LTP117	ltpFR	5	13	-1	CENT	270	n/a	-1	1	1.0	1.0	upper	../fonts/Verdana.ttf
3166.62	n/a	WORD	1583310	wordpools/wasnorm_wordpool.txt	LTP117	ltpFR	5	13	-1	VAULT	1550	n/a	-1	1	1.0	1.0	upper	../fonts/Verdana.ttf
3170.608	n/a	WORD	1585304	wordpools/wasnorm_wordpool.txt	LTP117	ltpFR	5	13	-1	EAR	513	n/a	-1	1	1.0	1.0	upper	../fonts/Verdana.ttf
3174.654	n/a	WORD	1587327	wordpools/wasnorm_wordpool.txt	LTP117	ltpFR	5	13	-1	RAG	1160	n/a	-1	1	1.0	1.0	upper	../fonts/Verdana.ttf
3178.64	n/a	WORD	1589320	wordpools/wasnorm_wordpool.txt	LTP117	ltpFR	5	13	-1	SAW	1239	n/a	-1	1	1.0	1.0	upper	../fonts/Verdana.ttf
3182.618	n/a	WORD	1591309	wordpools/wasnorm_wordpool.txt	LTP117	ltpFR	5	13	-1	LIMB	822	n/a	-1	1	1.0	1.0	upper	../fonts/Verdana.ttf
3186.614	n/a	WORD	1593307	wordpools/wasnorm_wordpool.txt	LTP117	ltpFR	5	13	-1	ALMOND	18	n/a	-1	1	1.0	1.0	upper	../fonts/Verdana.ttf
3190.51	n/a	WORD	1595255	wordpools/wasnorm_wordpool.txt	LTP117	ltpFR	5	13	-1	VEGETABLE	1552	n/a	-1	1	1.0	1.0	upper	../fonts/Verdana.ttf
3194.488	n/a	WORD	1597244	wordpools/wasnorm_wordpool.txt	LTP117	ltpFR	5	13	-1	CARPENTER	246	n/a	-1	1	1.0	1.0	upper	../fonts/Verdana.ttf
3198.568	n/a	WORD	1599284	wordpools/wasnorm_wordpool.txt	LTP117	ltpFR	5	13	-1	MAT	877	n/a	-1	1	1.0	1.0	upper	../fonts/Verdana.ttf
3202.546	n/a	WORD	1601273	wordpools/wasnorm_wordpool.txt	LTP117	ltpFR	5	13	-1	PECAN	1036	n/a	-1	1	1.0	1.0	upper	../fonts/Verdana.ttf
3206.482	n/a	WORD	1603241	wordpools/wasnorm_wordpool.txt	LTP117	ltpFR	5	13	-1	DOCUMENT	479	n/a	-1	1	1.0	1.0	upper	../fonts/Verdana.ttf
3212.192	n/a	REC_START	1606096	n/a	LTP117	ltpFR	5	13	n/a	n/a	n/a	n/a	n/a	n/a	n/a	n/a	n/a	n/a
3212.81	n/a	REC_WORD	1606405	wordpools/wasnorm_wordpool.txt	LTP117	ltpFR	5	13	-1	PECAN	1036	n/a	-1	n/a	n/a	n/a	n/a	n/a
3213.534	n/a	REC_WORD	1606767	wordpools/wasnorm_wordpool.txt	LTP117	ltpFR	5	13	-1	MAT	877	n/a	-1	n/a	n/a	n/a	n/a	n/a
3214.124	n/a	REC_WORD	1607062	wordpools/wasnorm_wordpool.txt	LTP117	ltpFR	5	13	-1	DOCUMENT	479	n/a	-1	n/a	n/a	n/a	n/a	n/a
3217.82	n/a	REC_WORD	1608910	wordpools/wasnorm_wordpool.txt	LTP117	ltpFR	5	13	-1	ALMOND	18	n/a	-1	n/a	n/a	n/a	n/a	n/a
3218.448	n/a	REC_WORD	1609224	wordpools/wasnorm_wordpool.txt	LTP117	ltpFR	5	13	-1	VEGETABLE	1552	n/a	-1	n/a	n/a	n/a	n/a	n/a
3219.92	n/a	REC_WORD	1609960	wordpools/wasnorm_wordpool.txt	LTP117	ltpFR	5	13	-1	VEGETABLE	1552	n/a	-1	n/a	n/a	n/a	n/a	n/a
3221.128	n/a	REC_WORD	1610564	wordpools/wasnorm_wordpool.txt	LTP117	ltpFR	5	13	n/a	CLOTH	-1	n/a	n/a	n/a	n/a	n/a	n/a	n/a
3221.962	n/a	REC_WORD	1610981	wordpools/wasnorm_wordpool.txt	LTP117	ltpFR	5	13	-1	EAR	513	n/a	-1	n/a	n/a	n/a	n/a	n/a
3222.534	n/a	REC_WORD	1611267	wordpools/wasnorm_wordpool.txt	LTP117	ltpFR	5	13	-1	SAW	1239	n/a	-1	n/a	n/a	n/a	n/a	n/a
3223.552	n/a	REC_WORD	1611776	wordpools/wasnorm_wordpool.txt	LTP117	ltpFR	5	13	-1	LIMB	822	n/a	-1	n/a	n/a	n/a	n/a	n/a
3225.982	n/a	REC_WORD	1612991	wordpools/wasnorm_wordpool.txt	LTP117	ltpFR	5	13	-1	BARLEY	88	n/a	-1	n/a	n/a	n/a	n/a	n/a
3226.994	n/a	REC_WORD	1613497	wordpools/wasnorm_wordpool.txt	LTP117	ltpFR	5	13	-1	CONCERT	360	n/a	-1	n/a	n/a	n/a	n/a	n/a
3227.948	n/a	REC_WORD	1613974	wordpools/wasnorm_wordpool.txt	LTP117	ltpFR	5	13	-1	ALBUM	14	n/a	-1	n/a	n/a	n/a	n/a	n/a
3232.596	n/a	REC_WORD	1616298	wordpools/wasnorm_wordpool.txt	LTP117	ltpFR	5	13	-1	COTTON	385	n/a	-1	n/a	n/a	n/a	n/a	n/a
3235.052	n/a	REC_WORD	1617526	wordpools/wasnorm_wordpool.txt	LTP117	ltpFR	5	13	n/a	SCENT	-1	n/a	n/a	n/a	n/a	n/a	n/a	n/a
3261.128	n/a	REC_WORD	1630564	wordpools/wasnorm_wordpool.txt	LTP117	ltpFR	5	13	-1	PECAN	1036	n/a	-1	n/a	n/a	n/a	n/a	n/a
3290.512	n/a	WORD	1645256	wordpools/wasnorm_wordpool.txt	LTP117	ltpFR	5	14	0	MOUTH	926	n/a	1	1	0.412841796875	0.57763671875	upper	../fonts/zerothre.ttf
3294.364	n/a	WORD	1647182	wordpools/wasnorm_wordpool.txt	LTP117	ltpFR	5	14	0	PADDING	999	n/a	0	1	0.412841796875	0.57763671875	upper	../fonts/zerothre.ttf
3298.568	n/a	WORD	1649284	wordpools/wasnorm_wordpool.txt	LTP117	ltpFR	5	14	0	FISH	571	n/a	1	1	0.412841796875	0.57763671875	upper	../fonts/zerothre.ttf
3302.548	n/a	WORD	1651274	wordpools/wasnorm_wordpool.txt	LTP117	ltpFR	5	14	1	AUTOMOBILE	62	n/a	0	0	0.5869140625	0.422607421875	lower	../fonts/amplitud.ttf
3306.56	n/a	WORD	1653280	wordpools/wasnorm_wordpool.txt	LTP117	ltpFR	5	14	1	VEHICLE	1553	n/a	0	0	0.5869140625	0.422607421875	lower	../fonts/amplitud.ttf
3310.696	n/a	WORD	1655348	wordpools/wasnorm_wordpool.txt	LTP117	ltpFR	5	14	1	EWE	542	n/a	1	0	0.5869140625	0.422607421875	lower	../fonts/amplitud.ttf
3314.534	n/a	WORD	1657267	wordpools/wasnorm_wordpool.txt	LTP117	ltpFR	5	14	1	BISON	131	n/a	1	0	0.5869140625	0.422607421875	lower	../fonts/amplitud.ttf
3318.38	n/a	WORD	1659190	wordpools/wasnorm_wordpool.txt	LTP117	ltpFR	5	14	0	CAVE	263	n/a	1	1	0.412841796875	0.57763671875	upper	../fonts/zerothre.ttf
3322.576	n/a	WORD	1661288	wordpools/wasnorm_wordpool.txt	LTP117	ltpFR	5	14	0	SQUID	1361	n/a	1	1	0.412841796875	0.57763671875	upper	../fonts/zerothre.ttf
3326.604	n/a	WORD	1663302	wordpools/wasnorm_wordpool.txt	LTP117	ltpFR	5	14	1	CAVITY	264	n/a	0	0	0.5869140625	0.422607421875	lower	../fonts/amplitud.ttf
3330.74	n/a	WORD	1665370	wordpools/wasnorm_wordpool.txt	LTP117	ltpFR	5	14	1	NOTE	958	n/a	0	0	0.5869140625	0.422607421875	lower	../fonts/amplitud.ttf
3334.586	n/a	WORD	1667293	wordpools/wasnorm_wordpool.txt	LTP117	ltpFR	5	14	1	JOURNAL	760	n/a	0	0	0.5869140625	0.422607421875	lower	../fonts/amplitud.ttf
3338.632	n/a	WORD	1669316	wordpools/wasnorm_wordpool.txt	LTP117	ltpFR	5	14	1	OYSTER	995	n/a	0	0	0.5869140625	0.422607421875	lower	../fonts/amplitud.ttf
3342.618	n/a	WORD	1671309	wordpools/wasnorm_wordpool.txt	LTP117	ltpFR	5	14	0	SLACKS	1323	n/a	1	1	0.412841796875	0.57763671875	upper	../fonts/zerothre.ttf
3346.564	n/a	WORD	1673282	wordpools/wasnorm_wordpool.txt	LTP117	ltpFR	5	14	0	LASH	802	n/a	0	1	0.412841796875	0.57763671875	upper	../fonts/zerothre.ttf
3350.376	n/a	WORD	1675188	wordpools/wasnorm_wordpool.txt	LTP117	ltpFR	5	14	0	BENCH	121	n/a	1	1	0.412841796875	0.57763671875	upper	../fonts/zerothre.ttf
3356.228	n/a	REC_START	1678114	n/a	LTP117	ltpFR	5	14	n/a	n/a	n/a	n/a	n/a	n/a	n/a	n/a	n/a	n/a
3356.936	n/a	REC_WORD	1678468	wordpools/wasnorm_wordpool.txt	LTP117	ltpFR	5	14	0	BENCH	121	n/a	1	n/a	n/a	n/a	n/a	n/a
3357.58	n/a	REC_WORD	1678790	wordpools/wasnorm_wordpool.txt	LTP117	ltpFR	5	14	1	AUTOMOBILE	62	n/a	0	n/a	n/a	n/a	n/a	n/a
3358.692	n/a	REC_WORD	1679346	wordpools/wasnorm_wordpool.txt	LTP117	ltpFR	5	14	1	VEHICLE	1553	n/a	0	n/a	n/a	n/a	n/a	n/a
3359.65	n/a	REC_WORD	1679825	wordpools/wasnorm_wordpool.txt	LTP117	ltpFR	5	14	1	EWE	542	n/a	1	n/a	n/a	n/a	n/a	n/a
3365.156	n/a	REC_WORD	1682578	wordpools/wasnorm_wordpool.txt	LTP117	ltpFR	5	14	n/a	MOP	916	n/a	n/a	n/a	n/a	n/a	n/a	n/a
3376.206	n/a	REC_WORD	1688103	wordpools/wasnorm_wordpool.txt	LTP117	ltpFR	5	14	-1	DOCUMENT	479	n/a	-1	n/a	n/a	n/a	n/a	n/a
3378.436	n/a	REC_WORD	1689218	wordpools/wasnorm_wordpool.txt	LTP117	ltpFR	5	14	1	NOTE	958	n/a	0	n/a	n/a	n/a	n/a	n/a
3392.09	n/a	REC_WORD	1696045	wordpools/wasnorm_wordpool.txt	LTP117	ltpFR	5	14	0	SLACKS	1323	n/a	1	n/a	n/a	n/a	n/a	n/a
3415.29	n/a	REC_WORD	1707645	wordpools/wasnorm_wordpool.txt	LTP117	ltpFR	5	14	1	CAVITY	264	n/a	0	n/a	n/a	n/a	n/a	n/a
3434.088	n/a	WORD	1717044	wordpools/wasnorm_wordpool.txt	LTP117	ltpFR	5	15	-1	SCIENTIST	1249	n/a	-1	1	1.0	1.0	upper	../fonts/Verdana.ttf
3438.108	n/a	WORD	1719054	wordpools/wasnorm_wordpool.txt	LTP117	ltpFR	5	15	-1	SUPERMARKET	1409	n/a	-1	1	1.0	1.0	upper	../fonts/Verdana.ttf
3442.252	n/a	WORD	1721126	wordpools/wasnorm_wordpool.txt	LTP117	ltpFR	5	15	-1	BEAD	103	n/a	-1	1	1.0	1.0	upper	../fonts/Verdana.ttf
3446.264	n/a	WORD	1723132	wordpools/wasnorm_wordpool.txt	LTP117	ltpFR	5	15	-1	BRACELET	163	n/a	-1	1	1.0	1.0	upper	../fonts/Verdana.ttf
3450.086	n/a	WORD	1725043	wordpools/wasnorm_wordpool.txt	LTP117	ltpFR	5	15	-1	SAILOR	1223	n/a	-1	1	1.0	1.0	upper	../fonts/Verdana.ttf
3453.972	n/a	WORD	1726986	wordpools/wasnorm_wordpool.txt	LTP117	ltpFR	5	15	-1	BEVERAGE	123	n/a	-1	1	1.0	1.0	upper	../fonts/Verdana.ttf
3457.902	n/a	WORD	1728951	wordpools/wasnorm_wordpool.txt	LTP117	ltpFR	5	15	-1	CUP	424	n/a	-1	1	1.0	1.0	upper	../fonts/Verdana.ttf
3461.806	n/a	WORD	1730903	wordpools/wasnorm_wordpool.txt	LTP117	ltpFR	5	15	-1	SWAMP	1416	n/a	-1	1	1.0	1.0	upper	../fonts/Verdana.ttf
3465.85	n/a	WORD	1732925	wordpools/wasnorm_wordpool.txt	LTP117	ltpFR	5	15	-1	COTTAGE	384	n/a	-1	1	1.0	1.0	upper	../fonts/Verdana.ttf
3469.854	n/a	WORD	1734927	wordpools/wasnorm_wordpool.txt	LTP117	ltpFR	5	15	-1	BANKER	84	n/a	-1	1	1.0	1.0	upper	../fonts/Verdana.ttf
3474.032	n/a	WORD	1737016	wordpools/wasnorm_wordpool.txt	LTP117	ltpFR	5	15	-1	KEYBOARD	774	n/a	-1	1	1.0	1.0	upper	../fonts/Verdana.ttf
3477.844	n/a	WORD	1738922	wordpools/wasnorm_wordpool.txt	LTP117	ltpFR	5	15	-1	PROTON	1132	n/a	-1	1	1.0	1.0	upper	../fonts/Verdana.ttf
3481.666	n/a	WORD	1740833	wordpools/wasnorm_wordpool.txt	LTP117	ltpFR	5	15	-1	MICROWAVE	892	n/a	-1	1	1.0	1.0	upper	../fonts/Verdana.ttf
3485.504	n/a	WORD	1742752	wordpools/wasnorm_wordpool.txt	LTP117	ltpFR	5	15	-1	PIRATE	1074	n/a	-1	1	1.0	1.0	upper	../fonts/Verdana.ttf
3489.39	n/a	WORD	1744695	wordpools/wasnorm_wordpool.txt	LTP117	ltpFR	5	15	-1	BEETLE	116	n/a	-1	1	1.0	1.0	upper	../fonts/Verdana.ttf
3493.586	n/a	WORD	1746793	wordpools/wasnorm_wordpool.txt	LTP117	ltpFR	5	15	-1	FLY	586	n/a	-1	1	1.0	1.0	upper	../fonts/Verdana.ttf
3499.42	n/a	REC_START	1749710	n/a	LTP117	ltpFR	5	15	n/a	n/a	n/a	n/a	n/a	n/a	n/a	n/a	n/a	n/a
3500.338	n/a	REC_WORD	1750169	wordpools/wasnorm_wordpool.txt	LTP117	ltpFR	5	15	-1	KEYBOARD	774	n/a	-1	n/a	n/a	n/a	n/a	n/a
3501.33	n/a	REC_WORD	1750665	wordpools/wasnorm_wordpool.txt	LTP117	ltpFR	5	15	-1	PROTON	1132	n/a	-1	n/a	n/a	n/a	n/a	n/a
3502.208	n/a	REC_WORD	1751104	wordpools/wasnorm_wordpool.txt	LTP117	ltpFR	5	15	-1	MICROWAVE	892	n/a	-1	n/a	n/a	n/a	n/a	n/a
3503.42	n/a	REC_WORD	1751710	wordpools/wasnorm_wordpool.txt	LTP117	ltpFR	5	15	-1	FLY	586	n/a	-1	n/a	n/a	n/a	n/a	n/a
3505.062	n/a	REC_WORD	1752531	wordpools/wasnorm_wordpool.txt	LTP117	ltpFR	5	15	-1	SCIENTIST	1249	n/a	-1	n/a	n/a	n/a	n/a	n/a
3506.31	n/a	REC_WORD	1753155	wordpools/wasnorm_wordpool.txt	LTP117	ltpFR	5	15	-1	SWAMP	1416	n/a	-1	n/a	n/a	n/a	n/a	n/a
3508.016	n/a	REC_WORD	1754008	wordpools/wasnorm_wordpool.txt	LTP117	ltpFR	5	15	-1	COTTAGE	384	n/a	-1	n/a	n/a	n/a	n/a	n/a
3509.812	n/a	REC_WORD	1754906	wordpools/wasnorm_wordpool.txt	LTP117	ltpFR	5	15	-1	BEVERAGE	123	n/a	-1	n/a	n/a	n/a	n/a	n/a
3514.338	n/a	REC_WORD	1757169	wordpools/wasnorm_wordpool.txt	LTP117	ltpFR	5	15	-1	BEAD	103	n/a	-1	n/a	n/a	n/a	n/a	n/a
3515.81	n/a	REC_WORD_VV	1757905	wordpools/wasnorm_wordpool.txt	LTP117	ltpFR	5	15	n/a	<>	-1	n/a	n/a	n/a	n/a	n/a	n/a	n/a
3516.254	n/a	REC_WORD	1758127	wordpools/wasnorm_wordpool.txt	LTP117	ltpFR	5	15	-1	BEAD	103	n/a	-1	n/a	n/a	n/a	n/a	n/a
3517.276	n/a	REC_WORD	1758638	wordpools/wasnorm_wordpool.txt	LTP117	ltpFR	5	15	-1	BRACELET	163	n/a	-1	n/a	n/a	n/a	n/a	n/a
3577.448	n/a	WORD	1788724	wordpools/wasnorm_wordpool.txt	LTP117	ltpFR	5	16	0	GERM	632	n/a	0	1	0.412841796875	0.57763671875	upper	../fonts/zerothre.ttf
3581.526	n/a	WORD	1790763	wordpools/wasnorm_wordpool.txt	LTP117	ltpFR	5	16	0	FREEWAY	603	n/a	1	1	0.412841796875	0.57763671875	upper	../fonts/zerothre.ttf
3585.68	n/a	WORD	1792840	wordpools/wasnorm_wordpool.txt	LTP117	ltpFR	5	16	0	CHECKERS	285	n/a	0	1	0.412841796875	0.57763671875	upper	../fonts/zerothre.ttf
3589.626	n/a	WORD	1794813	wordpools/wasnorm_wordpool.txt	LTP117	ltpFR	5	16	0	SEAFOOD	1260	n/a	1	1	0.412841796875	0.57763671875	upper	../fonts/zerothre.ttf
3593.712	n/a	WORD	1796856	wordpools/wasnorm_wordpool.txt	LTP117	ltpFR	5	16	0	SALMON	1227	n/a	1	1	0.412841796875	0.57763671875	upper	../fonts/zerothre.ttf
3597.89	n/a	WORD	1798945	wordpools/wasnorm_wordpool.txt	LTP117	ltpFR	5	16	0	CAFETERIA	217	n/a	0	1	0.412841796875	0.57763671875	upper	../fonts/zerothre.ttf
3602.06	n/a	WORD	1801030	wordpools/wasnorm_wordpool.txt	LTP117	ltpFR	5	16	0	APRON	35	n/a	1	1	0.412841796875	0.57763671875	upper	../fonts/zerothre.ttf
3605.906	n/a	WORD	1802953	wordpools/wasnorm_wordpool.txt	LTP117	ltpFR	5	16	0	EGG	518	n/a	1	1	0.412841796875	0.57763671875	upper	../fonts/zerothre.ttf
3609.76	n/a	WORD	1804880	wordpools/wasnorm_wordpool.txt	LTP117	ltpFR	5	16	0	DRAGON	492	n/a	0	1	0.412841796875	0.57763671875	upper	../fonts/zerothre.ttf
3613.624	n/a	WORD	1806812	wordpools/wasnorm_wordpool.txt	LTP117	ltpFR	5	16	0	DRILL	497	n/a	0	1	0.412841796875	0.57763671875	upper	../fonts/zerothre.ttf
3617.702	n/a	WORD	1808851	wordpools/wasnorm_wordpool.txt	LTP117	ltpFR	5	16	0	MOTOR	922	n/a	1	1	0.412841796875	0.57763671875	upper	../fonts/zerothre.ttf
3621.83	n/a	WORD	1810915	wordpools/wasnorm_wordpool.txt	LTP117	ltpFR	5	16	0	FROST	609	n/a	1	1	0.412841796875	0.57763671875	upper	../fonts/zerothre.ttf
3625.916	n/a	WORD	1812958	wordpools/wasnorm_wordpool.txt	LTP117	ltpFR	5	16	0	BASEBALL	93	n/a	0	1	0.412841796875	0.57763671875	upper	../fonts/zerothre.ttf
3630.046	n/a	WORD	1815023	wordpools/wasnorm_wordpool.txt	LTP117	ltpFR	5	16	0	SWITCH	1422	n/a	0	1	0.412841796875	0.57763671875	upper	../fonts/zerothre.ttf
3633.94	n/a	WORD	1816970	wordpools/wasnorm_wordpool.txt	LTP117	ltpFR	5	16	0	BACON	67	n/a	1	1	0.412841796875	0.57763671875	upper	../fonts/zerothre.ttf
3638.07	n/a	WORD	1819035	wordpools/wasnorm_wordpool.txt	LTP117	ltpFR	5	16	0	PUBLISHER	1137	n/a	1	1	0.412841796875	0.57763671875	upper	../fonts/zerothre.ttf
3643.73	n/a	REC_START	1821865	n/a	LTP117	ltpFR	5	16	n/a	n/a	n/a	n/a	n/a	n/a	n/a	n/a	n/a	n/a
3644.148	n/a	REC_WORD	1822074	wordpools/wasnorm_wordpool.txt	LTP117	ltpFR	5	16	0	DRILL	497	n/a	0	n/a	n/a	n/a	n/a	n/a
3644.702	n/a	REC_WORD	1822351	wordpools/wasnorm_wordpool.txt	LTP117	ltpFR	5	16	0	DRAGON	492	n/a	0	n/a	n/a	n/a	n/a	n/a
3645.25	n/a	REC_WORD	1822625	wordpools/wasnorm_wordpool.txt	LTP117	ltpFR	5	16	0	FROST	609	n/a	1	n/a	n/a	n/a	n/a	n/a
3645.94	n/a	REC_WORD	1822970	wordpools/wasnorm_wordpool.txt	LTP117	ltpFR	5	16	0	PUBLISHER	1137	n/a	1	n/a	n/a	n/a	n/a	n/a
3647.48	n/a	REC_WORD	1823740	wordpools/wasnorm_wordpool.txt	LTP117	ltpFR	5	16	0	EGG	518	n/a	1	n/a	n/a	n/a	n/a	n/a
3648.294	n/a	REC_WORD	1824147	wordpools/wasnorm_wordpool.txt	LTP117	ltpFR	5	16	0	BACON	67	n/a	1	n/a	n/a	n/a	n/a	n/a
3649.596	n/a	REC_WORD	1824798	wordpools/wasnorm_wordpool.txt	LTP117	ltpFR	5	16	0	APRON	35	n/a	1	n/a	n/a	n/a	n/a	n/a
3650.912	n/a	REC_WORD	1825456	wordpools/wasnorm_wordpool.txt	LTP117	ltpFR	5	16	0	GERM	632	n/a	0	n/a	n/a	n/a	n/a	n/a
3651.606	n/a	REC_WORD	1825803	wordpools/wasnorm_wordpool.txt	LTP117	ltpFR	5	16	0	FREEWAY	603	n/a	1	n/a	n/a	n/a	n/a	n/a
3652.828	n/a	REC_WORD	1826414	wordpools/wasnorm_wordpool.txt	LTP117	ltpFR	5	16	0	SALMON	1227	n/a	1	n/a	n/a	n/a	n/a	n/a
3653.562	n/a	REC_WORD	1826781	wordpools/wasnorm_wordpool.txt	LTP117	ltpFR	5	16	0	SEAFOOD	1260	n/a	1	n/a	n/a	n/a	n/a	n/a
3654.584	n/a	REC_WORD	1827292	wordpools/wasnorm_wordpool.txt	LTP117	ltpFR	5	16	0	CHECKERS	285	n/a	0	n/a	n/a	n/a	n/a	n/a
3737.24	n/a	REC_START	1868620	n/a	LTP117	ltpFR	5	1	n/a	n/a	n/a	n/a	n/a	n/a	n/a	n/a	n/a	n/a
3737.272	n/a	RECOG_LURE	1868636	n/a	LTP117	ltpFR	5	1	n/a	MOUSE	925	4	n/a	n/a	n/a	n/a	n/a	n/a
3738.31	n/a	RECOG_RESP	1869155	n/a	LTP117	ltpFR	5	1	n/a	MOUSE	925	n/a	n/a	n/a	n/a	n/a	n/a	n/a
3739.09	n/a	RECOG_CONF	1869545	n/a	LTP117	ltpFR	5	1	n/a	MOUSE	925	4	n/a	n/a	n/a	n/a	n/a	n/a
3740.668	n/a	RECOG_TARGET	1870334	n/a	LTP117	ltpFR	5	1	1	CHART	282	5	1	n/a	n/a	n/a	n/a	n/a
3741.296	n/a	RECOG_RESP	1870648	n/a	LTP117	ltpFR	5	1	1	CHART	282	n/a	1	n/a	n/a	n/a	n/a	n/a
3741.964	n/a	RECOG_CONF	1870982	n/a	LTP117	ltpFR	5	1	1	CHART	282	5	1	n/a	n/a	n/a	n/a	n/a
3743.406	n/a	RECOG_LURE	1871703	n/a	LTP117	ltpFR	5	1	n/a	SPINACH	1352	5	n/a	n/a	n/a	n/a	n/a	n/a
3744.014	n/a	RECOG_RESP	1872007	n/a	LTP117	ltpFR	5	1	n/a	SPINACH	1352	n/a	n/a	n/a	n/a	n/a	n/a	n/a
3744.688	n/a	RECOG_CONF	1872344	n/a	LTP117	ltpFR	5	1	n/a	SPINACH	1352	5	n/a	n/a	n/a	n/a	n/a	n/a
3746.228	n/a	RECOG_TARGET	1873114	n/a	LTP117	ltpFR	5	1	1	TREAT	1501	5	0	n/a	n/a	n/a	n/a	n/a
3746.662	n/a	RECOG_RESP	1873331	n/a	LTP117	ltpFR	5	1	1	TREAT	1501	n/a	0	n/a	n/a	n/a	n/a	n/a
3747.362	n/a	RECOG_CONF	1873681	n/a	LTP117	ltpFR	5	1	1	TREAT	1501	5	0	n/a	n/a	n/a	n/a	n/a
3748.842	n/a	RECOG_TARGET	1874421	n/a	LTP117	ltpFR	5	1	0	SMOG	1330	5	1	n/a	n/a	n/a	n/a	n/a
3749.446	n/a	RECOG_RESP	1874723	n/a	LTP117	ltpFR	5	1	0	SMOG	1330	n/a	1	n/a	n/a	n/a	n/a	n/a
3750.126	n/a	RECOG_CONF	1875063	n/a	LTP117	ltpFR	5	1	0	SMOG	1330	5	1	n/a	n/a	n/a	n/a	n/a
3751.572	n/a	RECOG_LURE	1875786	n/a	LTP117	ltpFR	5	1	n/a	CHISEL	305	4	n/a	n/a	n/a	n/a	n/a	n/a
3752.18	n/a	RECOG_RESP	1876090	n/a	LTP117	ltpFR	5	1	n/a	CHISEL	305	n/a	n/a	n/a	n/a	n/a	n/a	n/a
3752.808	n/a	RECOG_CONF	1876404	n/a	LTP117	ltpFR	5	1	n/a	CHISEL	305	4	n/a	n/a	n/a	n/a	n/a	n/a
3754.31	n/a	RECOG_LURE	1877155	n/a	LTP117	ltpFR	5	1	n/a	FUGITIVE	612	4	n/a	n/a	n/a	n/a	n/a	n/a
3754.884	n/a	RECOG_RESP	1877442	n/a	LTP117	ltpFR	5	1	n/a	FUGITIVE	612	n/a	n/a	n/a	n/a	n/a	n/a	n/a
3755.542	n/a	RECOG_CONF	1877771	n/a	LTP117	ltpFR	5	1	n/a	FUGITIVE	612	4	n/a	n/a	n/a	n/a	n/a	n/a
3757.048	n/a	RECOG_TARGET	1878524	n/a	LTP117	ltpFR	5	1	-1	SAILOR	1223	5	-1	n/a	n/a	n/a	n/a	n/a
3757.588	n/a	RECOG_RESP	1878794	n/a	LTP117	ltpFR	5	1	-1	SAILOR	1223	n/a	-1	n/a	n/a	n/a	n/a	n/a
3758.336	n/a	RECOG_CONF	1879168	n/a	LTP117	ltpFR	5	1	-1	SAILOR	1223	5	-1	n/a	n/a	n/a	n/a	n/a
3759.738	n/a	RECOG_LURE	1879869	n/a	LTP117	ltpFR	5	1	n/a	PLUTO	1092	5	n/a	n/a	n/a	n/a	n/a	n/a
3760.282	n/a	RECOG_RESP	1880141	n/a	LTP117	ltpFR	5	1	n/a	PLUTO	1092	n/a	n/a	n/a	n/a	n/a	n/a	n/a
3760.97	n/a	RECOG_CONF	1880485	n/a	LTP117	ltpFR	5	1	n/a	PLUTO	1092	5	n/a	n/a	n/a	n/a	n/a	n/a
3762.45	n/a	RECOG_TARGET	1881225	n/a	LTP117	ltpFR	5	1	0	UTENSIL	1542	5	1	n/a	n/a	n/a	n/a	n/a
3762.896	n/a	RECOG_RESP	1881448	n/a	LTP117	ltpFR	5	1	0	UTENSIL	1542	n/a	1	n/a	n/a	n/a	n/a	n/a
3763.554	n/a	RECOG_CONF	1881777	n/a	LTP117	ltpFR	5	1	0	UTENSIL	1542	5	1	n/a	n/a	n/a	n/a	n/a
3765.014	n/a	RECOG_LURE	1882507	n/a	LTP117	ltpFR	5	1	n/a	BASKET	95	2	n/a	n/a	n/a	n/a	n/a	n/a
3765.564	n/a	RECOG_RESP	1882782	n/a	LTP117	ltpFR	5	1	n/a	BASKET	95	n/a	n/a	n/a	n/a	n/a	n/a	n/a
3766.208	n/a	RECOG_CONF	1883104	n/a	LTP117	ltpFR	5	1	n/a	BASKET	95	2	n/a	n/a	n/a	n/a	n/a	n/a
3767.696	n/a	RECOG_LURE	1883848	n/a	LTP117	ltpFR	5	1	n/a	COMMUNITY	356	4	n/a	n/a	n/a	n/a	n/a	n/a
3768.328	n/a	RECOG_RESP	1884164	n/a	LTP117	ltpFR	5	1	n/a	COMMUNITY	356	n/a	n/a	n/a	n/a	n/a	n/a	n/a
3769.082	n/a	RECOG_CONF	1884541	n/a	LTP117	ltpFR	5	1	n/a	COMMUNITY	356	4	n/a	n/a	n/a	n/a	n/a	n/a
3770.51	n/a	RECOG_TARGET	1885255	n/a	LTP117	ltpFR	5	1	-1	SAW	1239	5	-1	n/a	n/a	n/a	n/a	n/a
3771.082	n/a	RECOG_RESP	1885541	n/a	LTP117	ltpFR	5	1	-1	SAW	1239	n/a	-1	n/a	n/a	n/a	n/a	n/a
3771.766	n/a	RECOG_CONF	1885883	n/a	LTP117	ltpFR	5	1	-1	SAW	1239	5	-1	n/a	n/a	n/a	n/a	n/a
3773.222	n/a	RECOG_TARGET	1886611	n/a	LTP117	ltpFR	5	1	1	MARINE	869	2	0	n/a	n/a	n/a	n/a	n/a
3773.882	n/a	RECOG_RESP	1886941	n/a	LTP117	ltpFR	5	1	1	MARINE	869	n/a	0	n/a	n/a	n/a	n/a	n/a
3774.54	n/a	RECOG_CONF	1887270	n/a	LTP117	ltpFR	5	1	1	MARINE	869	2	0	n/a	n/a	n/a	n/a	n/a
3776.094	n/a	RECOG_LURE	1888047	n/a	LTP117	ltpFR	5	1	n/a	JAM	748	4	n/a	n/a	n/a	n/a	n/a	n/a
3776.574	n/a	RECOG_RESP	1888287	n/a	LTP117	ltpFR	5	1	n/a	JAM	748	n/a	n/a	n/a	n/a	n/a	n/a	n/a
3777.972	n/a	RECOG_CONF	1888986	n/a	LTP117	ltpFR	5	1	n/a	JAM	748	4	n/a	n/a	n/a	n/a	n/a	n/a
3779.524	n/a	RECOG_LURE	1889762	n/a	LTP117	ltpFR	5	1	n/a	MUSHROOM	934	5	n/a	n/a	n/a	n/a	n/a	n/a
3780.51	n/a	RECOG_RESP	1890255	n/a	LTP117	ltpFR	5	1	n/a	MUSHROOM	934	n/a	n/a	n/a	n/a	n/a	n/a	n/a
3781.234	n/a	RECOG_CONF	1890617	n/a	LTP117	ltpFR	5	1	n/a	MUSHROOM	934	5	n/a	n/a	n/a	n/a	n/a	n/a
3782.736	n/a	RECOG_LURE	1891368	n/a	LTP117	ltpFR	5	1	n/a	MILITARY	894	5	n/a	n/a	n/a	n/a	n/a	n/a
3784.142	n/a	RECOG_RESP	1892071	n/a	LTP117	ltpFR	5	1	n/a	MILITARY	894	n/a	n/a	n/a	n/a	n/a	n/a	n/a
3784.976	n/a	RECOG_CONF	1892488	n/a	LTP117	ltpFR	5	1	n/a	MILITARY	894	5	n/a	n/a	n/a	n/a	n/a	n/a
3786.55	n/a	RECOG_LURE	1893275	n/a	LTP117	ltpFR	5	1	n/a	TUNA	1518	4	n/a	n/a	n/a	n/a	n/a	n/a
3787.2	n/a	RECOG_RESP	1893600	n/a	LTP117	ltpFR	5	1	n/a	TUNA	1518	n/a	n/a	n/a	n/a	n/a	n/a	n/a
3787.79	n/a	RECOG_CONF	1893895	n/a	LTP117	ltpFR	5	1	n/a	TUNA	1518	4	n/a	n/a	n/a	n/a	n/a	n/a
3789.32	n/a	RECOG_TARGET	1894660	n/a	LTP117	ltpFR	5	1	0	SHINGLE	1285	5	0	n/a	n/a	n/a	n/a	n/a
3789.924	n/a	RECOG_RESP	1894962	n/a	LTP117	ltpFR	5	1	0	SHINGLE	1285	n/a	0	n/a	n/a	n/a	n/a	n/a
3790.534	n/a	RECOG_CONF	1895267	n/a	LTP117	ltpFR	5	1	0	SHINGLE	1285	5	0	n/a	n/a	n/a	n/a	n/a
3791.966	n/a	RECOG_LURE	1895983	n/a	LTP117	ltpFR	5	1	n/a	HIGHWAY	707	1	n/a	n/a	n/a	n/a	n/a	n/a
3792.394	n/a	RECOG_RESP	1896197	n/a	LTP117	ltpFR	5	1	n/a	HIGHWAY	707	n/a	n/a	n/a	n/a	n/a	n/a	n/a
3793.108	n/a	RECOG_CONF	1896554	n/a	LTP117	ltpFR	5	1	n/a	HIGHWAY	707	1	n/a	n/a	n/a	n/a	n/a	n/a
3796.08	n/a	REC_START	1898040	n/a	LTP117	ltpFR	5	2	n/a	n/a	n/a	n/a	n/a	n/a	n/a	n/a	n/a	n/a
3796.112	n/a	RECOG_LURE	1898056	n/a	LTP117	ltpFR	5	2	n/a	APPLICATION	34	4	n/a	n/a	n/a	n/a	n/a	n/a
3796.922	n/a	RECOG_RESP	1898461	n/a	LTP117	ltpFR	5	2	n/a	APPLICATION	34	n/a	n/a	n/a	n/a	n/a	n/a	n/a
3797.482	n/a	RECOG_CONF	1898741	n/a	LTP117	ltpFR	5	2	n/a	APPLICATION	34	4	n/a	n/a	n/a	n/a	n/a	n/a
3799.016	n/a	RECOG_TARGET	1899508	n/a	LTP117	ltpFR	5	2	-1	DOCUMENT	479	5	-1	n/a	n/a	n/a	n/a	n/a
3799.506	n/a	RECOG_RESP	1899753	n/a	LTP117	ltpFR	5	2	-1	DOCUMENT	479	n/a	-1	n/a	n/a	n/a	n/a	n/a
3800.126	n/a	RECOG_CONF	1900063	n/a	LTP117	ltpFR	5	2	-1	DOCUMENT	479	5	-1	n/a	n/a	n/a	n/a	n/a
3801.55	n/a	RECOG_TARGET	1900775	n/a	LTP117	ltpFR	5	2	0	BANQUET	86	5	1	n/a	n/a	n/a	n/a	n/a
3802.38	n/a	RECOG_RESP	1901190	n/a	LTP117	ltpFR	5	2	0	BANQUET	86	n/a	1	n/a	n/a	n/a	n/a	n/a
3803.03	n/a	RECOG_CONF	1901515	n/a	LTP117	ltpFR	5	2	0	BANQUET	86	5	1	n/a	n/a	n/a	n/a	n/a
3804.512	n/a	RECOG_LURE	1902256	n/a	LTP117	ltpFR	5	2	n/a	MOTORCYCLE	923	2	n/a	n/a	n/a	n/a	n/a	n/a
3804.996	n/a	RECOG_RESP	1902498	n/a	LTP117	ltpFR	5	2	n/a	MOTORCYCLE	923	n/a	n/a	n/a	n/a	n/a	n/a	n/a
3805.644	n/a	RECOG_CONF	1902822	n/a	LTP117	ltpFR	5	2	n/a	MOTORCYCLE	923	2	n/a	n/a	n/a	n/a	n/a	n/a
3807.134	n/a	RECOG_LURE	1903567	n/a	LTP117	ltpFR	5	2	n/a	TICK	1463	4	n/a	n/a	n/a	n/a	n/a	n/a
3808.392	n/a	RECOG_RESP	1904196	n/a	LTP117	ltpFR	5	2	n/a	TICK	1463	n/a	n/a	n/a	n/a	n/a	n/a	n/a
3809.056	n/a	RECOG_CONF	1904528	n/a	LTP117	ltpFR	5	2	n/a	TICK	1463	4	n/a	n/a	n/a	n/a	n/a	n/a
3810.564	n/a	RECOG_TARGET	1905282	n/a	LTP117	ltpFR	5	2	0	BANJO	82	5	1	n/a	n/a	n/a	n/a	n/a
3811.17	n/a	RECOG_RESP	1905585	n/a	LTP117	ltpFR	5	2	0	BANJO	82	n/a	1	n/a	n/a	n/a	n/a	n/a
3811.83	n/a	RECOG_CONF	1905915	n/a	LTP117	ltpFR	5	2	0	BANJO	82	5	1	n/a	n/a	n/a	n/a	n/a
3813.26	n/a	RECOG_TARGET	1906630	n/a	LTP117	ltpFR	5	2	1	EWE	542	5	1	n/a	n/a	n/a	n/a	n/a
3813.676	n/a	RECOG_RESP	1906838	n/a	LTP117	ltpFR	5	2	1	EWE	542	n/a	1	n/a	n/a	n/a	n/a	n/a
3814.314	n/a	RECOG_CONF	1907157	n/a	LTP117	ltpFR	5	2	1	EWE	542	5	1	n/a	n/a	n/a	n/a	n/a
3815.692	n/a	RECOG_LURE	1907846	n/a	LTP117	ltpFR	5	2	n/a	HORNET	718	4	n/a	n/a	n/a	n/a	n/a	n/a
3816.3	n/a	RECOG_RESP	1908150	n/a	LTP117	ltpFR	5	2	n/a	HORNET	718	n/a	n/a	n/a	n/a	n/a	n/a	n/a
3816.958	n/a	RECOG_CONF	1908479	n/a	LTP117	ltpFR	5	2	n/a	HORNET	718	4	n/a	n/a	n/a	n/a	n/a	n/a
3818.428	n/a	RECOG_LURE	1909214	n/a	LTP117	ltpFR	5	2	n/a	BALLOT	76	4	n/a	n/a	n/a	n/a	n/a	n/a
3819.092	n/a	RECOG_RESP	1909546	n/a	LTP117	ltpFR	5	2	n/a	BALLOT	76	n/a	n/a	n/a	n/a	n/a	n/a	n/a
3819.772	n/a	RECOG_CONF	1909886	n/a	LTP117	ltpFR	5	2	n/a	BALLOT	76	4	n/a	n/a	n/a	n/a	n/a	n/a
3821.158	n/a	RECOG_TARGET	1910579	n/a	LTP117	ltpFR	5	2	1	VEHICLE	1553	5	0	n/a	n/a	n/a	n/a	n/a
3821.752	n/a	RECOG_RESP	1910876	n/a	LTP117	ltpFR	5	2	1	VEHICLE	1553	n/a	0	n/a	n/a	n/a	n/a	n/a
3822.416	n/a	RECOG_CONF	1911208	n/a	LTP117	ltpFR	5	2	1	VEHICLE	1553	5	0	n/a	n/a	n/a	n/a	n/a
3823.83	n/a	RECOG_LURE	1911915	n/a	LTP117	ltpFR	5	2	n/a	RABBIT	1152	5	n/a	n/a	n/a	n/a	n/a	n/a
3824.396	n/a	RECOG_RESP	1912198	n/a	LTP117	ltpFR	5	2	n/a	RABBIT	1152	n/a	n/a	n/a	n/a	n/a	n/a	n/a
3825.04	n/a	RECOG_CONF	1912520	n/a	LTP117	ltpFR	5	2	n/a	RABBIT	1152	5	n/a	n/a	n/a	n/a	n/a	n/a
3826.41	n/a	RECOG_TARGET	1913205	n/a	LTP117	ltpFR	5	2	1	AUTOMOBILE	62	5	0	n/a	n/a	n/a	n/a	n/a
3826.896	n/a	RECOG_RESP	1913448	n/a	LTP117	ltpFR	5	2	1	AUTOMOBILE	62	n/a	0	n/a	n/a	n/a	n/a	n/a
3827.584	n/a	RECOG_CONF	1913792	n/a	LTP117	ltpFR	5	2	1	AUTOMOBILE	62	5	0	n/a	n/a	n/a	n/a	n/a
3828.984	n/a	RECOG_TARGET	1914492	n/a	LTP117	ltpFR	5	2	-1	SISTER	1312	5	-1	n/a	n/a	n/a	n/a	n/a
3829.52	n/a	RECOG_RESP	1914760	n/a	LTP117	ltpFR	5	2	-1	SISTER	1312	n/a	-1	n/a	n/a	n/a	n/a	n/a
3830.178	n/a	RECOG_CONF	1915089	n/a	LTP117	ltpFR	5	2	-1	SISTER	1312	5	-1	n/a	n/a	n/a	n/a	n/a
3831.664	n/a	RECOG_LURE	1915832	n/a	LTP117	ltpFR	5	2	n/a	METEOR	889	4	n/a	n/a	n/a	n/a	n/a	n/a
3832.258	n/a	RECOG_RESP	1916129	n/a	LTP117	ltpFR	5	2	n/a	METEOR	889	n/a	n/a	n/a	n/a	n/a	n/a	n/a
3832.892	n/a	RECOG_CONF	1916446	n/a	LTP117	ltpFR	5	2	n/a	METEOR	889	4	n/a	n/a	n/a	n/a	n/a	n/a
3834.368	n/a	RECOG_LURE	1917184	n/a	LTP117	ltpFR	5	2	n/a	STAR	1373	5	n/a	n/a	n/a	n/a	n/a	n/a
3834.908	n/a	RECOG_RESP	1917454	n/a	LTP117	ltpFR	5	2	n/a	STAR	1373	n/a	n/a	n/a	n/a	n/a	n/a	n/a
3835.546	n/a	RECOG_CONF	1917773	n/a	LTP117	ltpFR	5	2	n/a	STAR	1373	5	n/a	n/a	n/a	n/a	n/a	n/a
3837.04	n/a	RECOG_LURE	1918520	n/a	LTP117	ltpFR	5	2	n/a	PACKAGE	997	1	n/a	n/a	n/a	n/a	n/a	n/a
3837.492	n/a	RECOG_RESP	1918746	n/a	LTP117	ltpFR	5	2	n/a	PACKAGE	997	n/a	n/a	n/a	n/a	n/a	n/a	n/a
3838.15	n/a	RECOG_CONF	1919075	n/a	LTP117	ltpFR	5	2	n/a	PACKAGE	997	1	n/a	n/a	n/a	n/a	n/a	n/a
3839.63	n/a	RECOG_LURE	1919815	n/a	LTP117	ltpFR	5	2	n/a	WAITRESS	1581	4	n/a	n/a	n/a	n/a	n/a	n/a
3840.29	n/a	RECOG_RESP	1920145	n/a	LTP117	ltpFR	5	2	n/a	WAITRESS	1581	n/a	n/a	n/a	n/a	n/a	n/a	n/a
3840.954	n/a	RECOG_CONF	1920477	n/a	LTP117	ltpFR	5	2	n/a	WAITRESS	1581	4	n/a	n/a	n/a	n/a	n/a	n/a
3842.334	n/a	RECOG_LURE	1921167	n/a	LTP117	ltpFR	5	2	n/a	CHAIN	273	5	n/a	n/a	n/a	n/a	n/a	n/a
3842.878	n/a	RECOG_RESP	1921439	n/a	LTP117	ltpFR	5	2	n/a	CHAIN	273	n/a	n/a	n/a	n/a	n/a	n/a	n/a
3843.528	n/a	RECOG_CONF	1921764	n/a	LTP117	ltpFR	5	2	n/a	CHAIN	273	5	n/a	n/a	n/a	n/a	n/a	n/a
3844.964	n/a	RECOG_TARGET	1922482	n/a	LTP117	ltpFR	5	2	0	GAUZE	626	5	0	n/a	n/a	n/a	n/a	n/a
3845.562	n/a	RECOG_RESP	1922781	n/a	LTP117	ltpFR	5	2	0	GAUZE	626	n/a	0	n/a	n/a	n/a	n/a	n/a
3846.202	n/a	RECOG_CONF	1923101	n/a	LTP117	ltpFR	5	2	0	GAUZE	626	5	0	n/a	n/a	n/a	n/a	n/a
3847.62	n/a	RECOG_LURE	1923810	n/a	LTP117	ltpFR	5	2	n/a	VICTOR	1563	4	n/a	n/a	n/a	n/a	n/a	n/a
3848.322	n/a	RECOG_RESP	1924161	n/a	LTP117	ltpFR	5	2	n/a	VICTOR	1563	n/a	n/a	n/a	n/a	n/a	n/a	n/a
3848.936	n/a	RECOG_CONF	1924468	n/a	LTP117	ltpFR	5	2	n/a	VICTOR	1563	4	n/a	n/a	n/a	n/a	n/a	n/a
3851.988	n/a	REC_START	1925994	n/a	LTP117	ltpFR	5	3	n/a	n/a	n/a	n/a	n/a	n/a	n/a	n/a	n/a	n/a
3852.014	n/a	RECOG_LURE	1926007	n/a	LTP117	ltpFR	5	3	n/a	TURNIP	1521	4	n/a	n/a	n/a	n/a	n/a	n/a
3852.752	n/a	RECOG_RESP	1926376	n/a	LTP117	ltpFR	5	3	n/a	TURNIP	1521	n/a	n/a	n/a	n/a	n/a	n/a	n/a
3853.27	n/a	RECOG_CONF	1926635	n/a	LTP117	ltpFR	5	3	n/a	TURNIP	1521	4	n/a	n/a	n/a	n/a	n/a	n/a
3854.68	n/a	RECOG_TARGET	1927340	n/a	LTP117	ltpFR	5	3	0	SNORKEL	1336	5	0	n/a	n/a	n/a	n/a	n/a
3855.196	n/a	RECOG_RESP_VV	1927598	n/a	LTP117	ltpFR	5	3	0	SNORKEL	1336	n/a	0	n/a	n/a	n/a	n/a	n/a
3855.704	n/a	RECOG_RESP	1927852	n/a	LTP117	ltpFR	5	3	0	SNORKEL	1336	n/a	0	n/a	n/a	n/a	n/a	n/a
3856.414	n/a	RECOG_CONF	1928207	n/a	LTP117	ltpFR	5	3	0	SNORKEL	1336	5	0	n/a	n/a	n/a	n/a	n/a
3857.9	n/a	RECOG_TARGET	1928950	n/a	LTP117	ltpFR	5	3	-1	CONCERT	360	5	-1	n/a	n/a	n/a	n/a	n/a
3858.444	n/a	RECOG_RESP	1929222	n/a	LTP117	ltpFR	5	3	-1	CONCERT	360	n/a	-1	n/a	n/a	n/a	n/a	n/a
3859.048	n/a	RECOG_CONF	1929524	n/a	LTP117	ltpFR	5	3	-1	CONCERT	360	5	-1	n/a	n/a	n/a	n/a	n/a
3860.438	n/a	RECOG_TARGET	1930219	n/a	LTP117	ltpFR	5	3	1	SEED	1266	5	0	n/a	n/a	n/a	n/a	n/a
3860.928	n/a	RECOG_RESP	1930464	n/a	LTP117	ltpFR	5	3	1	SEED	1266	n/a	0	n/a	n/a	n/a	n/a	n/a
3861.542	n/a	RECOG_CONF	1930771	n/a	LTP117	ltpFR	5	3	1	SEED	1266	5	0	n/a	n/a	n/a	n/a	n/a
3862.968	n/a	RECOG_LURE	1931484	n/a	LTP117	ltpFR	5	3	n/a	SKIN	1318	4	n/a	n/a	n/a	n/a	n/a	n/a
3863.762	n/a	RECOG_RESP	1931881	n/a	LTP117	ltpFR	5	3	n/a	SKIN	1318	n/a	n/a	n/a	n/a	n/a	n/a	n/a
3864.326	n/a	RECOG_CONF	1932163	n/a	LTP117	ltpFR	5	3	n/a	SKIN	1318	4	n/a	n/a	n/a	n/a	n/a	n/a
3865.798	n/a	RECOG_LURE	1932899	n/a	LTP117	ltpFR	5	3	n/a	MOVIE	927	5	n/a	n/a	n/a	n/a	n/a	n/a
3866.46	n/a	RECOG_RESP	1933230	n/a	LTP117	ltpFR	5	3	n/a	MOVIE	927	n/a	n/a	n/a	n/a	n/a	n/a	n/a
3867.07	n/a	RECOG_CONF	1933535	n/a	LTP117	ltpFR	5	3	n/a	MOVIE	927	5	n/a	n/a	n/a	n/a	n/a	n/a
3868.438	n/a	RECOG_LURE	1934219	n/a	LTP117	ltpFR	5	3	n/a	LOBBY	836	5	n/a	n/a	n/a	n/a	n/a	n/a
3869.01	n/a	RECOG_RESP	1934505	n/a	LTP117	ltpFR	5	3	n/a	LOBBY	836	n/a	n/a	n/a	n/a	n/a	n/a	n/a
3869.644	n/a	RECOG_CONF	1934822	n/a	LTP117	ltpFR	5	3	n/a	LOBBY	836	5	n/a	n/a	n/a	n/a	n/a	n/a
3871.1	n/a	RECOG_TARGET	1935550	n/a	LTP117	ltpFR	5	3	0	CAVE	263	5	1	n/a	n/a	n/a	n/a	n/a
3872.152	n/a	RECOG_RESP	1936076	n/a	LTP117	ltpFR	5	3	0	CAVE	263	n/a	1	n/a	n/a	n/a	n/a	n/a
3872.826	n/a	RECOG_CONF	1936413	n/a	LTP117	ltpFR	5	3	0	CAVE	263	5	1	n/a	n/a	n/a	n/a	n/a
3874.298	n/a	RECOG_TARGET	1937149	n/a	LTP117	ltpFR	5	3	0	PIZZA	1079	5	1	n/a	n/a	n/a	n/a	n/a
3874.806	n/a	RECOG_RESP	1937403	n/a	LTP117	ltpFR	5	3	0	PIZZA	1079	n/a	1	n/a	n/a	n/a	n/a	n/a
3875.43	n/a	RECOG_CONF	1937715	n/a	LTP117	ltpFR	5	3	0	PIZZA	1079	5	1	n/a	n/a	n/a	n/a	n/a
3876.802	n/a	RECOG_TARGET	1938401	n/a	LTP117	ltpFR	5	3	1	BLUEPRINT	142	5	1	n/a	n/a	n/a	n/a	n/a
3877.33	n/a	RECOG_RESP_VV	1938665	n/a	LTP117	ltpFR	5	3	1	BLUEPRINT	142	n/a	1	n/a	n/a	n/a	n/a	n/a
3878.08	n/a	RECOG_RESP	1939040	n/a	LTP117	ltpFR	5	3	1	BLUEPRINT	142	n/a	1	n/a	n/a	n/a	n/a	n/a
3878.742	n/a	RECOG_CONF	1939371	n/a	LTP117	ltpFR	5	3	1	BLUEPRINT	142	5	1	n/a	n/a	n/a	n/a	n/a
3880.282	n/a	RECOG_TARGET	1940141	n/a	LTP117	ltpFR	5	3	1	TAIL	1430	5	0	n/a	n/a	n/a	n/a	n/a
3880.882	n/a	RECOG_RESP	1940441	n/a	LTP117	ltpFR	5	3	1	TAIL	1430	n/a	0	n/a	n/a	n/a	n/a	n/a
3881.466	n/a	RECOG_CONF	1940733	n/a	LTP117	ltpFR	5	3	1	TAIL	1430	5	0	n/a	n/a	n/a	n/a	n/a
3882.978	n/a	RECOG_LURE	1941489	n/a	LTP117	ltpFR	5	3	n/a	ELEPHANT	523	4	n/a	n/a	n/a	n/a	n/a	n/a
3883.91	n/a	RECOG_RESP	1941955	n/a	LTP117	ltpFR	5	3	n/a	ELEPHANT	523	n/a	n/a	n/a	n/a	n/a	n/a	n/a
3884.56	n/a	RECOG_CONF	1942280	n/a	LTP117	ltpFR	5	3	n/a	ELEPHANT	523	4	n/a	n/a	n/a	n/a	n/a	n/a
3886.0	n/a	RECOG_TARGET	1943000	n/a	LTP117	ltpFR	5	3	1	EXPLOSION	544	5	1	n/a	n/a	n/a	n/a	n/a
3886.934	n/a	RECOG_RESP	1943467	n/a	LTP117	ltpFR	5	3	1	EXPLOSION	544	n/a	1	n/a	n/a	n/a	n/a	n/a
3887.582	n/a	RECOG_CONF	1943791	n/a	LTP117	ltpFR	5	3	1	EXPLOSION	544	5	1	n/a	n/a	n/a	n/a	n/a
3889.006	n/a	RECOG_TARGET	1944503	n/a	LTP117	ltpFR	5	3	1	OCTOPUS	971	5	0	n/a	n/a	n/a	n/a	n/a
3889.588	n/a	RECOG_RESP	1944794	n/a	LTP117	ltpFR	5	3	1	OCTOPUS	971	n/a	0	n/a	n/a	n/a	n/a	n/a
3890.216	n/a	RECOG_CONF	1945108	n/a	LTP117	ltpFR	5	3	1	OCTOPUS	971	5	0	n/a	n/a	n/a	n/a	n/a
3891.578	n/a	RECOG_TARGET	1945789	n/a	LTP117	ltpFR	5	3	1	COLONEL	348	5	1	n/a	n/a	n/a	n/a	n/a
3892.128	n/a	RECOG_RESP	1946064	n/a	LTP117	ltpFR	5	3	1	COLONEL	348	n/a	1	n/a	n/a	n/a	n/a	n/a
3892.77	n/a	RECOG_CONF	1946385	n/a	LTP117	ltpFR	5	3	1	COLONEL	348	5	1	n/a	n/a	n/a	n/a	n/a
3894.19	n/a	RECOG_LURE	1947095	n/a	LTP117	ltpFR	5	3	n/a	PREDATOR	1120	4	n/a	n/a	n/a	n/a	n/a	n/a
3894.92	n/a	RECOG_RESP	1947460	n/a	LTP117	ltpFR	5	3	n/a	PREDATOR	1120	n/a	n/a	n/a	n/a	n/a	n/a	n/a
3895.624	n/a	RECOG_CONF	1947812	n/a	LTP117	ltpFR	5	3	n/a	PREDATOR	1120	4	n/a	n/a	n/a	n/a	n/a	n/a
3897.02	n/a	RECOG_LURE	1948510	n/a	LTP117	ltpFR	5	3	n/a	KING	777	5	n/a	n/a	n/a	n/a	n/a	n/a
3897.714	n/a	RECOG_RESP	1948857	n/a	LTP117	ltpFR	5	3	n/a	KING	777	n/a	n/a	n/a	n/a	n/a	n/a	n/a
3898.338	n/a	RECOG_CONF	1949169	n/a	LTP117	ltpFR	5	3	n/a	KING	777	5	n/a	n/a	n/a	n/a	n/a	n/a
3899.786	n/a	RECOG_TARGET	1949893	n/a	LTP117	ltpFR	5	3	0	ANT	25	5	0	n/a	n/a	n/a	n/a	n/a
3900.404	n/a	RECOG_RESP	1950202	n/a	LTP117	ltpFR	5	3	0	ANT	25	n/a	0	n/a	n/a	n/a	n/a	n/a
3901.052	n/a	RECOG_CONF	1950526	n/a	LTP117	ltpFR	5	3	0	ANT	25	5	0	n/a	n/a	n/a	n/a	n/a
3902.508	n/a	RECOG_TARGET	1951254	n/a	LTP117	ltpFR	5	3	-1	PIN	1072	5	-1	n/a	n/a	n/a	n/a	n/a
3902.994	n/a	RECOG_RESP	1951497	n/a	LTP117	ltpFR	5	3	-1	PIN	1072	n/a	-1	n/a	n/a	n/a	n/a	n/a
3903.608	n/a	RECOG_CONF	1951804	n/a	LTP117	ltpFR	5	3	-1	PIN	1072	5	-1	n/a	n/a	n/a	n/a	n/a
3905.08	n/a	RECOG_TARGET	1952540	n/a	LTP117	ltpFR	5	3	-1	COYOTE	396	5	-1	n/a	n/a	n/a	n/a	n/a
3905.612	n/a	RECOG_RESP	1952806	n/a	LTP117	ltpFR	5	3	-1	COYOTE	396	n/a	-1	n/a	n/a	n/a	n/a	n/a
3906.26	n/a	RECOG_CONF	1953130	n/a	LTP117	ltpFR	5	3	-1	COYOTE	396	5	-1	n/a	n/a	n/a	n/a	n/a
3909.646	n/a	REC_START	1954823	n/a	LTP117	ltpFR	5	4	n/a	n/a	n/a	n/a	n/a	n/a	n/a	n/a	n/a	n/a
3909.674	n/a	RECOG_TARGET	1954837	n/a	LTP117	ltpFR	5	4	-1	WAVE	1596	5	-1	n/a	n/a	n/a	n/a	n/a
3910.22	n/a	RECOG_RESP	1955110	n/a	LTP117	ltpFR	5	4	-1	WAVE	1596	n/a	-1	n/a	n/a	n/a	n/a	n/a
3910.858	n/a	RECOG_CONF	1955429	n/a	LTP117	ltpFR	5	4	-1	WAVE	1596	5	-1	n/a	n/a	n/a	n/a	n/a
3912.254	n/a	RECOG_TARGET	1956127	n/a	LTP117	ltpFR	5	4	1	TROPHY	1509	5	0	n/a	n/a	n/a	n/a	n/a
3912.904	n/a	RECOG_RESP	1956452	n/a	LTP117	ltpFR	5	4	1	TROPHY	1509	n/a	0	n/a	n/a	n/a	n/a	n/a
3913.512	n/a	RECOG_CONF	1956756	n/a	LTP117	ltpFR	5	4	1	TROPHY	1509	5	0	n/a	n/a	n/a	n/a	n/a
3914.976	n/a	RECOG_TARGET	1957488	n/a	LTP117	ltpFR	5	4	0	CHIEF	298	5	1	n/a	n/a	n/a	n/a	n/a
3915.414	n/a	RECOG_RESP	1957707	n/a	LTP117	ltpFR	5	4	0	CHIEF	298	n/a	1	n/a	n/a	n/a	n/a	n/a
3916.056	n/a	RECOG_CONF	1958028	n/a	LTP117	ltpFR	5	4	0	CHIEF	298	5	1	n/a	n/a	n/a	n/a	n/a
3917.448	n/a	RECOG_TARGET	1958724	n/a	LTP117	ltpFR	5	4	1	PASTRY	1022	4	0	n/a	n/a	n/a	n/a	n/a
3917.988	n/a	RECOG_RESP	1958994	n/a	LTP117	ltpFR	5	4	1	PASTRY	1022	n/a	0	n/a	n/a	n/a	n/a	n/a
3918.65	n/a	RECOG_CONF	1959325	n/a	LTP117	ltpFR	5	4	1	PASTRY	1022	4	0	n/a	n/a	n/a	n/a	n/a
3920.046	n/a	RECOG_LURE	1960023	n/a	LTP117	ltpFR	5	4	n/a	BULB	192	5	n/a	n/a	n/a	n/a	n/a	n/a
3920.676	n/a	RECOG_RESP	1960338	n/a	LTP117	ltpFR	5	4	n/a	BULB	192	n/a	n/a	n/a	n/a	n/a	n/a	n/a
3921.284	n/a	RECOG_CONF	1960642	n/a	LTP117	ltpFR	5	4	n/a	BULB	192	5	n/a	n/a	n/a	n/a	n/a	n/a
3922.718	n/a	RECOG_TARGET	1961359	n/a	LTP117	ltpFR	5	4	0	ROPE	1211	5	0	n/a	n/a	n/a	n/a	n/a
3923.376	n/a	RECOG_RESP	1961688	n/a	LTP117	ltpFR	5	4	0	ROPE	1211	n/a	0	n/a	n/a	n/a	n/a	n/a
3924.018	n/a	RECOG_CONF	1962009	n/a	LTP117	ltpFR	5	4	0	ROPE	1211	5	0	n/a	n/a	n/a	n/a	n/a
3925.474	n/a	RECOG_TARGET	1962737	n/a	LTP117	ltpFR	5	4	0	POOL	1103	4	1	n/a	n/a	n/a	n/a	n/a
3925.91	n/a	RECOG_RESP	1962955	n/a	LTP117	ltpFR	5	4	0	POOL	1103	n/a	1	n/a	n/a	n/a	n/a	n/a
3926.532	n/a	RECOG_CONF	1963266	n/a	LTP117	ltpFR	5	4	0	POOL	1103	4	1	n/a	n/a	n/a	n/a	n/a
3928.07	n/a	RECOG_LURE	1964035	n/a	LTP117	ltpFR	5	4	n/a	ROUGE	1213	5	n/a	n/a	n/a	n/a	n/a	n/a
3928.738	n/a	RECOG_RESP	1964369	n/a	LTP117	ltpFR	5	4	n/a	ROUGE	1213	n/a	n/a	n/a	n/a	n/a	n/a	n/a
3929.406	n/a	RECOG_CONF	1964703	n/a	LTP117	ltpFR	5	4	n/a	ROUGE	1213	5	n/a	n/a	n/a	n/a	n/a	n/a
3930.874	n/a	RECOG_TARGET	1965437	n/a	LTP117	ltpFR	5	4	1	SENATE	1267	5	0	n/a	n/a	n/a	n/a	n/a
3931.472	n/a	RECOG_RESP	1965736	n/a	LTP117	ltpFR	5	4	1	SENATE	1267	n/a	0	n/a	n/a	n/a	n/a	n/a
3932.15	n/a	RECOG_CONF	1966075	n/a	LTP117	ltpFR	5	4	1	SENATE	1267	5	0	n/a	n/a	n/a	n/a	n/a
3933.538	n/a	RECOG_TARGET	1966769	n/a	LTP117	ltpFR	5	4	0	PUBLISHER	1137	5	1	n/a	n/a	n/a	n/a	n/a
3934.026	n/a	RECOG_RESP	1967013	n/a	LTP117	ltpFR	5	4	0	PUBLISHER	1137	n/a	1	n/a	n/a	n/a	n/a	n/a
3934.694	n/a	RECOG_CONF	1967347	n/a	LTP117	ltpFR	5	4	0	PUBLISHER	1137	5	1	n/a	n/a	n/a	n/a	n/a
3936.118	n/a	RECOG_LURE	1968059	n/a	LTP117	ltpFR	5	4	n/a	LETTUCE	814	4	n/a	n/a	n/a	n/a	n/a	n/a
3936.78	n/a	RECOG_RESP	1968390	n/a	LTP117	ltpFR	5	4	n/a	LETTUCE	814	n/a	n/a	n/a	n/a	n/a	n/a	n/a
3937.408	n/a	RECOG_CONF	1968704	n/a	LTP117	ltpFR	5	4	n/a	LETTUCE	814	4	n/a	n/a	n/a	n/a	n/a	n/a
3938.848	n/a	RECOG_LURE	1969424	n/a	LTP117	ltpFR	5	4	n/a	DRAWER	493	4	n/a	n/a	n/a	n/a	n/a	n/a
3939.708	n/a	RECOG_RESP	1969854	n/a	LTP117	ltpFR	5	4	n/a	DRAWER	493	n/a	n/a	n/a	n/a	n/a	n/a	n/a
3940.382	n/a	RECOG_CONF	1970191	n/a	LTP117	ltpFR	5	4	n/a	DRAWER	493	4	n/a	n/a	n/a	n/a	n/a	n/a
3941.812	n/a	RECOG_LURE	1970906	n/a	LTP117	ltpFR	5	4	n/a	GHOST	634	5	n/a	n/a	n/a	n/a	n/a	n/a
3942.472	n/a	RECOG_RESP	1971236	n/a	LTP117	ltpFR	5	4	n/a	GHOST	634	n/a	n/a	n/a	n/a	n/a	n/a	n/a
3943.146	n/a	RECOG_CONF	1971573	n/a	LTP117	ltpFR	5	4	n/a	GHOST	634	5	n/a	n/a	n/a	n/a	n/a	n/a
3944.5	n/a	RECOG_TARGET	1972250	n/a	LTP117	ltpFR	5	4	0	GERM	632	5	0	n/a	n/a	n/a	n/a	n/a
3945.09	n/a	RECOG_RESP	1972545	n/a	LTP117	ltpFR	5	4	0	GERM	632	n/a	0	n/a	n/a	n/a	n/a	n/a
3945.75	n/a	RECOG_CONF	1972875	n/a	LTP117	ltpFR	5	4	0	GERM	632	5	0	n/a	n/a	n/a	n/a	n/a
3947.206	n/a	RECOG_LURE	1973603	n/a	LTP117	ltpFR	5	4	n/a	HAT	690	4	n/a	n/a	n/a	n/a	n/a	n/a
3947.89	n/a	RECOG_RESP	1973945	n/a	LTP117	ltpFR	5	4	n/a	HAT	690	n/a	n/a	n/a	n/a	n/a	n/a	n/a
3948.512	n/a	RECOG_CONF	1974256	n/a	LTP117	ltpFR	5	4	n/a	HAT	690	4	n/a	n/a	n/a	n/a	n/a	n/a
3950.002	n/a	RECOG_TARGET	1975001	n/a	LTP117	ltpFR	5	4	1	LAKE	796	3	0	n/a	n/a	n/a	n/a	n/a
3951.002	n/a	RECOG_RESP	1975501	n/a	LTP117	ltpFR	5	4	1	LAKE	796	n/a	0	n/a	n/a	n/a	n/a	n/a
3951.726	n/a	RECOG_CONF	1975863	n/a	LTP117	ltpFR	5	4	1	LAKE	796	3	0	n/a	n/a	n/a	n/a	n/a
3953.282	n/a	RECOG_LURE	1976641	n/a	LTP117	ltpFR	5	4	n/a	ACTRESS	6	4	n/a	n/a	n/a	n/a	n/a	n/a
3953.91	n/a	RECOG_RESP	1976955	n/a	LTP117	ltpFR	5	4	n/a	ACTRESS	6	n/a	n/a	n/a	n/a	n/a	n/a	n/a
3954.63	n/a	RECOG_CONF	1977315	n/a	LTP117	ltpFR	5	4	n/a	ACTRESS	6	4	n/a	n/a	n/a	n/a	n/a	n/a
3956.044	n/a	RECOG_LURE	1978022	n/a	LTP117	ltpFR	5	4	n/a	CRAYON	401	4	n/a	n/a	n/a	n/a	n/a	n/a
3956.794	n/a	RECOG_RESP	1978397	n/a	LTP117	ltpFR	5	4	n/a	CRAYON	401	n/a	n/a	n/a	n/a	n/a	n/a	n/a
3957.474	n/a	RECOG_CONF	1978737	n/a	LTP117	ltpFR	5	4	n/a	CRAYON	401	4	n/a	n/a	n/a	n/a	n/a	n/a
3958.8	n/a	RECOG_LURE	1979400	n/a	LTP117	ltpFR	5	4	n/a	MONKEY	911	4	n/a	n/a	n/a	n/a	n/a	n/a
3959.174	n/a	RECOG_RESP	1979587	n/a	LTP117	ltpFR	5	4	n/a	MONKEY	911	n/a	n/a	n/a	n/a	n/a	n/a	n/a
3959.768	n/a	RECOG_CONF	1979884	n/a	LTP117	ltpFR	5	4	n/a	MONKEY	911	4	n/a	n/a	n/a	n/a	n/a	n/a
3961.214	n/a	RECOG_LURE	1980607	n/a	LTP117	ltpFR	5	4	n/a	RAZOR	1171	4	n/a	n/a	n/a	n/a	n/a	n/a
3961.568	n/a	RECOG_RESP	1980784	n/a	LTP117	ltpFR	5	4	n/a	RAZOR	1171	n/a	n/a	n/a	n/a	n/a	n/a	n/a
3962.172	n/a	RECOG_CONF	1981086	n/a	LTP117	ltpFR	5	4	n/a	RAZOR	1171	4	n/a	n/a	n/a	n/a	n/a	n/a
3964.854	n/a	REC_START	1982427	n/a	LTP117	ltpFR	5	5	n/a	n/a	n/a	n/a	n/a	n/a	n/a	n/a	n/a	n/a
3964.884	n/a	RECOG_TARGET	1982442	n/a	LTP117	ltpFR	5	5	1	PORTRAIT	1111	4	0	n/a	n/a	n/a	n/a	n/a
3965.682	n/a	RECOG_RESP	1982841	n/a	LTP117	ltpFR	5	5	1	PORTRAIT	1111	n/a	0	n/a	n/a	n/a	n/a	n/a
3966.276	n/a	RECOG_CONF	1983138	n/a	LTP117	ltpFR	5	5	1	PORTRAIT	1111	4	0	n/a	n/a	n/a	n/a	n/a
3967.624	n/a	RECOG_LURE	1983812	n/a	LTP117	ltpFR	5	5	n/a	WHISTLE	1606	1	n/a	n/a	n/a	n/a	n/a	n/a
3968.08	n/a	RECOG_RESP	1984040	n/a	LTP117	ltpFR	5	5	n/a	WHISTLE	1606	n/a	n/a	n/a	n/a	n/a	n/a	n/a
3968.69	n/a	RECOG_CONF	1984345	n/a	LTP117	ltpFR	5	5	n/a	WHISTLE	1606	1	n/a	n/a	n/a	n/a	n/a	n/a
3970.054	n/a	RECOG_LURE	1985027	n/a	LTP117	ltpFR	5	5	n/a	ANTELOPE	27	4	n/a	n/a	n/a	n/a	n/a	n/a
3970.476	n/a	RECOG_RESP	1985238	n/a	LTP117	ltpFR	5	5	n/a	ANTELOPE	27	n/a	n/a	n/a	n/a	n/a	n/a	n/a
3971.034	n/a	RECOG_CONF	1985517	n/a	LTP117	ltpFR	5	5	n/a	ANTELOPE	27	4	n/a	n/a	n/a	n/a	n/a	n/a
3972.442	n/a	RECOG_TARGET	1986221	n/a	LTP117	ltpFR	5	5	-1	BEAD	103	1	-1	n/a	n/a	n/a	n/a	n/a
3972.806	n/a	RECOG_RESP	1986403	n/a	LTP117	ltpFR	5	5	-1	BEAD	103	n/a	-1	n/a	n/a	n/a	n/a	n/a
3974.098	n/a	RECOG_CONF	1987049	n/a	LTP117	ltpFR	5	5	-1	BEAD	103	1	-1	n/a	n/a	n/a	n/a	n/a
3975.582	n/a	RECOG_LURE	1987791	n/a	LTP117	ltpFR	5	5	n/a	RASH	1167	5	n/a	n/a	n/a	n/a	n/a	n/a
3976.228	n/a	RECOG_RESP	1988114	n/a	LTP117	ltpFR	5	5	n/a	RASH	1167	n/a	n/a	n/a	n/a	n/a	n/a	n/a
3976.772	n/a	RECOG_CONF	1988386	n/a	LTP117	ltpFR	5	5	n/a	RASH	1167	5	n/a	n/a	n/a	n/a	n/a	n/a
3978.202	n/a	RECOG_LURE	1989101	n/a	LTP117	ltpFR	5	5	n/a	HEN	703	5	n/a	n/a	n/a	n/a	n/a	n/a
3978.652	n/a	RECOG_RESP	1989326	n/a	LTP117	ltpFR	5	5	n/a	HEN	703	n/a	n/a	n/a	n/a	n/a	n/a	n/a
3979.226	n/a	RECOG_CONF	1989613	n/a	LTP117	ltpFR	5	5	n/a	HEN	703	5	n/a	n/a	n/a	n/a	n/a	n/a
3980.61	n/a	RECOG_LURE	1990305	n/a	LTP117	ltpFR	5	5	n/a	MILDEW	893	5	n/a	n/a	n/a	n/a	n/a	n/a
3980.972	n/a	RECOG_RESP	1990486	n/a	LTP117	ltpFR	5	5	n/a	MILDEW	893	n/a	n/a	n/a	n/a	n/a	n/a	n/a
3981.54	n/a	RECOG_CONF	1990770	n/a	LTP117	ltpFR	5	5	n/a	MILDEW	893	5	n/a	n/a	n/a	n/a	n/a	n/a
3982.98	n/a	RECOG_LURE	1991490	n/a	LTP117	ltpFR	5	5	n/a	CLAY	320	5	n/a	n/a	n/a	n/a	n/a	n/a
3983.49	n/a	RECOG_RESP	1991745	n/a	LTP117	ltpFR	5	5	n/a	CLAY	320	n/a	n/a	n/a	n/a	n/a	n/a	n/a
3984.044	n/a	RECOG_CONF	1992022	n/a	LTP117	ltpFR	5	5	n/a	CLAY	320	5	n/a	n/a	n/a	n/a	n/a	n/a
3985.436	n/a	RECOG_LURE	1992718	n/a	LTP117	ltpFR	5	5	n/a	SUSPECT	1415	4	n/a	n/a	n/a	n/a	n/a	n/a
3986.38	n/a	RECOG_RESP	1993190	n/a	LTP117	ltpFR	5	5	n/a	SUSPECT	1415	n/a	n/a	n/a	n/a	n/a	n/a	n/a
3986.988	n/a	RECOG_CONF	1993494	n/a	LTP117	ltpFR	5	5	n/a	SUSPECT	1415	4	n/a	n/a	n/a	n/a	n/a	n/a
3988.458	n/a	RECOG_TARGET	1994229	n/a	LTP117	ltpFR	5	5	0	FOLDER	588	4	1	n/a	n/a	n/a	n/a	n/a
3989.972	n/a	RECOG_RESP	1994986	n/a	LTP117	ltpFR	5	5	0	FOLDER	588	n/a	1	n/a	n/a	n/a	n/a	n/a
3990.5	n/a	RECOG_CONF	1995250	n/a	LTP117	ltpFR	5	5	0	FOLDER	588	4	1	n/a	n/a	n/a	n/a	n/a
3991.912	n/a	RECOG_TARGET	1995956	n/a	LTP117	ltpFR	5	5	0	IRON	744	5	1	n/a	n/a	n/a	n/a	n/a
3992.47	n/a	RECOG_RESP	1996235	n/a	LTP117	ltpFR	5	5	0	IRON	744	n/a	1	n/a	n/a	n/a	n/a	n/a
3993.054	n/a	RECOG_CONF	1996527	n/a	LTP117	ltpFR	5	5	0	IRON	744	5	1	n/a	n/a	n/a	n/a	n/a
3994.442	n/a	RECOG_LURE	1997221	n/a	LTP117	ltpFR	5	5	n/a	SKIRT	1319	1	n/a	n/a	n/a	n/a	n/a	n/a
3994.766	n/a	RECOG_RESP	1997383	n/a	LTP117	ltpFR	5	5	n/a	SKIRT	1319	n/a	n/a	n/a	n/a	n/a	n/a	n/a
3995.398	n/a	RECOG_CONF	1997699	n/a	LTP117	ltpFR	5	5	n/a	SKIRT	1319	1	n/a	n/a	n/a	n/a	n/a	n/a
3996.79	n/a	RECOG_LURE	1998395	n/a	LTP117	ltpFR	5	5	n/a	WALNUT	1584	4	n/a	n/a	n/a	n/a	n/a	n/a
3997.55	n/a	RECOG_RESP	1998775	n/a	LTP117	ltpFR	5	5	n/a	WALNUT	1584	n/a	n/a	n/a	n/a	n/a	n/a	n/a
3998.134	n/a	RECOG_CONF	1999067	n/a	LTP117	ltpFR	5	5	n/a	WALNUT	1584	4	n/a	n/a	n/a	n/a	n/a	n/a
3999.53	n/a	RECOG_LURE	1999765	n/a	LTP117	ltpFR	5	5	n/a	SLUG	1329	4	n/a	n/a	n/a	n/a	n/a	n/a
4000.0	n/a	RECOG_RESP	2000000	n/a	LTP117	ltpFR	5	5	n/a	SLUG	1329	n/a	n/a	n/a	n/a	n/a	n/a	n/a
4000.628	n/a	RECOG_CONF	2000314	n/a	LTP117	ltpFR	5	5	n/a	SLUG	1329	4	n/a	n/a	n/a	n/a	n/a	n/a
4002.034	n/a	RECOG_TARGET	2001017	n/a	LTP117	ltpFR	5	5	1	VIOLA	1570	5	0	n/a	n/a	n/a	n/a	n/a
4002.604	n/a	RECOG_RESP	2001302	n/a	LTP117	ltpFR	5	5	1	VIOLA	1570	n/a	0	n/a	n/a	n/a	n/a	n/a
4003.152	n/a	RECOG_CONF	2001576	n/a	LTP117	ltpFR	5	5	1	VIOLA	1570	5	0	n/a	n/a	n/a	n/a	n/a
4004.566	n/a	RECOG_TARGET	2002283	n/a	LTP117	ltpFR	5	5	1	TIGER	1467	1	1	n/a	n/a	n/a	n/a	n/a
4005.168	n/a	RECOG_RESP	2002584	n/a	LTP117	ltpFR	5	5	1	TIGER	1467	n/a	1	n/a	n/a	n/a	n/a	n/a
4005.776	n/a	RECOG_CONF	2002888	n/a	LTP117	ltpFR	5	5	1	TIGER	1467	1	1	n/a	n/a	n/a	n/a	n/a
4007.186	n/a	RECOG_LURE	2003593	n/a	LTP117	ltpFR	5	5	n/a	MATCH	878	1	n/a	n/a	n/a	n/a	n/a	n/a
4007.588	n/a	RECOG_RESP	2003794	n/a	LTP117	ltpFR	5	5	n/a	MATCH	878	n/a	n/a	n/a	n/a	n/a	n/a	n/a
4008.2	n/a	RECOG_CONF	2004100	n/a	LTP117	ltpFR	5	5	n/a	MATCH	878	1	n/a	n/a	n/a	n/a	n/a	n/a
4009.61	n/a	RECOG_LURE	2004805	n/a	LTP117	ltpFR	5	5	n/a	BOSS	152	4	n/a	n/a	n/a	n/a	n/a	n/a
4010.336	n/a	RECOG_RESP	2005168	n/a	LTP117	ltpFR	5	5	n/a	BOSS	152	n/a	n/a	n/a	n/a	n/a	n/a	n/a
4010.934	n/a	RECOG_CONF	2005467	n/a	LTP117	ltpFR	5	5	n/a	BOSS	152	4	n/a	n/a	n/a	n/a	n/a	n/a
4012.338	n/a	RECOG_LURE	2006169	n/a	LTP117	ltpFR	5	5	n/a	GENERAL	630	4	n/a	n/a	n/a	n/a	n/a	n/a
4013.12	n/a	RECOG_RESP	2006560	n/a	LTP117	ltpFR	5	5	n/a	GENERAL	630	n/a	n/a	n/a	n/a	n/a	n/a	n/a
4013.778	n/a	RECOG_CONF	2006889	n/a	LTP117	ltpFR	5	5	n/a	GENERAL	630	4	n/a	n/a	n/a	n/a	n/a	n/a
4015.178	n/a	RECOG_TARGET	2007589	n/a	LTP117	ltpFR	5	5	-1	YOUTH	1634	1	-1	n/a	n/a	n/a	n/a	n/a
4015.574	n/a	RECOG_RESP	2007787	n/a	LTP117	ltpFR	5	5	-1	YOUTH	1634	n/a	-1	n/a	n/a	n/a	n/a	n/a
4016.182	n/a	RECOG_CONF	2008091	n/a	LTP117	ltpFR	5	5	-1	YOUTH	1634	1	-1	n/a	n/a	n/a	n/a	n/a
4019.124	n/a	REC_START	2009562	n/a	LTP117	ltpFR	5	6	n/a	n/a	n/a	n/a	n/a	n/a	n/a	n/a	n/a	n/a
4019.156	n/a	RECOG_TARGET	2009578	n/a	LTP117	ltpFR	5	6	1	STEAM	1375	5	0	n/a	n/a	n/a	n/a	n/a
4019.748	n/a	RECOG_RESP	2009874	n/a	LTP117	ltpFR	5	6	1	STEAM	1375	n/a	0	n/a	n/a	n/a	n/a	n/a
4020.306	n/a	RECOG_CONF	2010153	n/a	LTP117	ltpFR	5	6	1	STEAM	1375	5	0	n/a	n/a	n/a	n/a	n/a
4021.704	n/a	RECOG_TARGET	2010852	n/a	LTP117	ltpFR	5	6	-1	KEEPER	769	5	-1	n/a	n/a	n/a	n/a	n/a
4022.122	n/a	RECOG_RESP	2011061	n/a	LTP117	ltpFR	5	6	-1	KEEPER	769	n/a	-1	n/a	n/a	n/a	n/a	n/a
4022.682	n/a	RECOG_CONF	2011341	n/a	LTP117	ltpFR	5	6	-1	KEEPER	769	5	-1	n/a	n/a	n/a	n/a	n/a
4024.158	n/a	RECOG_TARGET	2012079	n/a	LTP117	ltpFR	5	6	-1	COTTON	385	5	-1	n/a	n/a	n/a	n/a	n/a
4024.572	n/a	RECOG_RESP	2012286	n/a	LTP117	ltpFR	5	6	-1	COTTON	385	n/a	-1	n/a	n/a	n/a	n/a	n/a
4025.176	n/a	RECOG_CONF	2012588	n/a	LTP117	ltpFR	5	6	-1	COTTON	385	5	-1	n/a	n/a	n/a	n/a	n/a
4026.614	n/a	RECOG_LURE	2013307	n/a	LTP117	ltpFR	5	6	n/a	VACUUM	1543	4	n/a	n/a	n/a	n/a	n/a	n/a
4027.45	n/a	RECOG_RESP	2013725	n/a	LTP117	ltpFR	5	6	n/a	VACUUM	1543	n/a	n/a	n/a	n/a	n/a	n/a	n/a
4028.098	n/a	RECOG_CONF	2014049	n/a	LTP117	ltpFR	5	6	n/a	VACUUM	1543	4	n/a	n/a	n/a	n/a	n/a	n/a
4029.536	n/a	RECOG_LURE	2014768	n/a	LTP117	ltpFR	5	6	n/a	STOMACH	1384	4	n/a	n/a	n/a	n/a	n/a	n/a
4030.338	n/a	RECOG_RESP	2015169	n/a	LTP117	ltpFR	5	6	n/a	STOMACH	1384	n/a	n/a	n/a	n/a	n/a	n/a	n/a
4030.972	n/a	RECOG_CONF	2015486	n/a	LTP117	ltpFR	5	6	n/a	STOMACH	1384	4	n/a	n/a	n/a	n/a	n/a	n/a
4032.408	n/a	RECOG_LURE	2016204	n/a	LTP117	ltpFR	5	6	n/a	TOWN	1491	5	n/a	n/a	n/a	n/a	n/a	n/a
4032.894	n/a	RECOG_RESP	2016447	n/a	LTP117	ltpFR	5	6	n/a	TOWN	1491	n/a	n/a	n/a	n/a	n/a	n/a	n/a
4033.476	n/a	RECOG_CONF	2016738	n/a	LTP117	ltpFR	5	6	n/a	TOWN	1491	5	n/a	n/a	n/a	n/a	n/a	n/a
4034.862	n/a	RECOG_LURE	2017431	n/a	LTP117	ltpFR	5	6	n/a	DEER	444	5	n/a	n/a	n/a	n/a	n/a	n/a
4035.388	n/a	RECOG_RESP	2017694	n/a	LTP117	ltpFR	5	6	n/a	DEER	444	n/a	n/a	n/a	n/a	n/a	n/a	n/a
4035.982	n/a	RECOG_CONF	2017991	n/a	LTP117	ltpFR	5	6	n/a	DEER	444	5	n/a	n/a	n/a	n/a	n/a	n/a
4037.418	n/a	RECOG_TARGET	2018709	n/a	LTP117	ltpFR	5	6	1	RAM	1165	5	1	n/a	n/a	n/a	n/a	n/a
4038.086	n/a	RECOG_RESP	2019043	n/a	LTP117	ltpFR	5	6	1	RAM	1165	n/a	1	n/a	n/a	n/a	n/a	n/a
4038.674	n/a	RECOG_CONF	2019337	n/a	LTP117	ltpFR	5	6	1	RAM	1165	5	1	n/a	n/a	n/a	n/a	n/a
4040.106	n/a	RECOG_TARGET	2020053	n/a	LTP117	ltpFR	5	6	0	MANSION	864	5	1	n/a	n/a	n/a	n/a	n/a
4040.66	n/a	RECOG_RESP	2020330	n/a	LTP117	ltpFR	5	6	0	MANSION	864	n/a	1	n/a	n/a	n/a	n/a	n/a
4041.26	n/a	RECOG_CONF	2020630	n/a	LTP117	ltpFR	5	6	0	MANSION	864	5	1	n/a	n/a	n/a	n/a	n/a
4042.664	n/a	RECOG_LURE	2021332	n/a	LTP117	ltpFR	5	6	n/a	CONVENT	370	5	n/a	n/a	n/a	n/a	n/a	n/a
4043.28	n/a	RECOG_RESP	2021640	n/a	LTP117	ltpFR	5	6	n/a	CONVENT	370	n/a	n/a	n/a	n/a	n/a	n/a	n/a
4043.884	n/a	RECOG_CONF	2021942	n/a	LTP117	ltpFR	5	6	n/a	CONVENT	370	5	n/a	n/a	n/a	n/a	n/a	n/a
4045.226	n/a	RECOG_TARGET	2022613	n/a	LTP117	ltpFR	5	6	0	ROBOT	1200	5	1	n/a	n/a	n/a	n/a	n/a
4045.748	n/a	RECOG_RESP_VV	2022874	n/a	LTP117	ltpFR	5	6	0	ROBOT	1200	n/a	1	n/a	n/a	n/a	n/a	n/a
4046.272	n/a	RECOG_RESP	2023136	n/a	LTP117	ltpFR	5	6	0	ROBOT	1200	n/a	1	n/a	n/a	n/a	n/a	n/a
4046.916	n/a	RECOG_CONF	2023458	n/a	LTP117	ltpFR	5	6	0	ROBOT	1200	5	1	n/a	n/a	n/a	n/a	n/a
4048.43	n/a	RECOG_TARGET	2024215	n/a	LTP117	ltpFR	5	6	-1	ALBUM	14	5	-1	n/a	n/a	n/a	n/a	n/a
4049.026	n/a	RECOG_RESP	2024513	n/a	LTP117	ltpFR	5	6	-1	ALBUM	14	n/a	-1	n/a	n/a	n/a	n/a	n/a
4049.64	n/a	RECOG_CONF	2024820	n/a	LTP117	ltpFR	5	6	-1	ALBUM	14	5	-1	n/a	n/a	n/a	n/a	n/a
4050.994	n/a	RECOG_TARGET	2025497	n/a	LTP117	ltpFR	5	6	-1	BARLEY	88	5	-1	n/a	n/a	n/a	n/a	n/a
4051.5	n/a	RECOG_RESP	2025750	n/a	LTP117	ltpFR	5	6	-1	BARLEY	88	n/a	-1	n/a	n/a	n/a	n/a	n/a
4052.094	n/a	RECOG_CONF	2026047	n/a	LTP117	ltpFR	5	6	-1	BARLEY	88	5	-1	n/a	n/a	n/a	n/a	n/a
4053.526	n/a	RECOG_TARGET	2026763	n/a	LTP117	ltpFR	5	6	0	MOTOR	922	5	1	n/a	n/a	n/a	n/a	n/a
4054.02	n/a	RECOG_RESP	2027010	n/a	LTP117	ltpFR	5	6	0	MOTOR	922	n/a	1	n/a	n/a	n/a	n/a	n/a
4054.638	n/a	RECOG_CONF	2027319	n/a	LTP117	ltpFR	5	6	0	MOTOR	922	5	1	n/a	n/a	n/a	n/a	n/a
4056.022	n/a	RECOG_LURE	2028011	n/a	LTP117	ltpFR	5	6	n/a	BUILDING	191	4	n/a	n/a	n/a	n/a	n/a	n/a
4056.744	n/a	RECOG_RESP	2028372	n/a	LTP117	ltpFR	5	6	n/a	BUILDING	191	n/a	n/a	n/a	n/a	n/a	n/a	n/a
4057.372	n/a	RECOG_CONF	2028686	n/a	LTP117	ltpFR	5	6	n/a	BUILDING	191	4	n/a	n/a	n/a	n/a	n/a	n/a
4058.786	n/a	RECOG_LURE	2029393	n/a	LTP117	ltpFR	5	6	n/a	GOVERNOR	651	5	n/a	n/a	n/a	n/a	n/a	n/a
4059.602	n/a	RECOG_RESP	2029801	n/a	LTP117	ltpFR	5	6	n/a	GOVERNOR	651	n/a	n/a	n/a	n/a	n/a	n/a	n/a
4060.226	n/a	RECOG_CONF	2030113	n/a	LTP117	ltpFR	5	6	n/a	GOVERNOR	651	5	n/a	n/a	n/a	n/a	n/a	n/a
4061.632	n/a	RECOG_TARGET	2030816	n/a	LTP117	ltpFR	5	6	-1	PIRATE	1074	5	-1	n/a	n/a	n/a	n/a	n/a
4062.142	n/a	RECOG_RESP	2031071	n/a	LTP117	ltpFR	5	6	-1	PIRATE	1074	n/a	-1	n/a	n/a	n/a	n/a	n/a
4062.8	n/a	RECOG_CONF	2031400	n/a	LTP117	ltpFR	5	6	-1	PIRATE	1074	5	-1	n/a	n/a	n/a	n/a	n/a
4064.128	n/a	RECOG_TARGET	2032064	n/a	LTP117	ltpFR	5	6	-1	GROCERY	664	5	-1	n/a	n/a	n/a	n/a	n/a
4064.68	n/a	RECOG_RESP	2032340	n/a	LTP117	ltpFR	5	6	-1	GROCERY	664	n/a	-1	n/a	n/a	n/a	n/a	n/a
4065.314	n/a	RECOG_CONF	2032657	n/a	LTP117	ltpFR	5	6	-1	GROCERY	664	5	-1	n/a	n/a	n/a	n/a	n/a
4066.694	n/a	RECOG_TARGET	2033347	n/a	LTP117	ltpFR	5	6	0	EGG	518	5	1	n/a	n/a	n/a	n/a	n/a
4067.186	n/a	RECOG_RESP	2033593	n/a	LTP117	ltpFR	5	6	0	EGG	518	n/a	1	n/a	n/a	n/a	n/a	n/a
4067.818	n/a	RECOG_CONF	2033909	n/a	LTP117	ltpFR	5	6	0	EGG	518	5	1	n/a	n/a	n/a	n/a	n/a
4069.248	n/a	RECOG_LURE	2034624	n/a	LTP117	ltpFR	5	6	n/a	SPOUSE	1358	5	n/a	n/a	n/a	n/a	n/a	n/a
4069.868	n/a	RECOG_RESP	2034934	n/a	LTP117	ltpFR	5	6	n/a	SPOUSE	1358	n/a	n/a	n/a	n/a	n/a	n/a	n/a
4070.502	n/a	RECOG_CONF	2035251	n/a	LTP117	ltpFR	5	6	n/a	SPOUSE	1358	5	n/a	n/a	n/a	n/a	n/a	n/a
4073.762	n/a	REC_START	2036881	n/a	LTP117	ltpFR	5	7	n/a	n/a	n/a	n/a	n/a	n/a	n/a	n/a	n/a	n/a
4073.792	n/a	RECOG_TARGET	2036896	n/a	LTP117	ltpFR	5	7	-1	MAT	877	5	-1	n/a	n/a	n/a	n/a	n/a
4074.74	n/a	RECOG_RESP	2037370	n/a	LTP117	ltpFR	5	7	-1	MAT	877	n/a	-1	n/a	n/a	n/a	n/a	n/a
4075.314	n/a	RECOG_CONF	2037657	n/a	LTP117	ltpFR	5	7	-1	MAT	877	5	-1	n/a	n/a	n/a	n/a	n/a
4076.706	n/a	RECOG_TARGET	2038353	n/a	LTP117	ltpFR	5	7	-1	EAR	513	5	-1	n/a	n/a	n/a	n/a	n/a
4077.034	n/a	RECOG_RESP	2038517	n/a	LTP117	ltpFR	5	7	-1	EAR	513	n/a	-1	n/a	n/a	n/a	n/a	n/a
4077.608	n/a	RECOG_CONF	2038804	n/a	LTP117	ltpFR	5	7	-1	EAR	513	5	-1	n/a	n/a	n/a	n/a	n/a
4079.004	n/a	RECOG_LURE	2039502	n/a	LTP117	ltpFR	5	7	n/a	COLUMN	350	1	n/a	n/a	n/a	n/a	n/a	n/a
4079.344	n/a	RECOG_RESP	2039672	n/a	LTP117	ltpFR	5	7	n/a	COLUMN	350	n/a	n/a	n/a	n/a	n/a	n/a	n/a
4079.954	n/a	RECOG_CONF	2039977	n/a	LTP117	ltpFR	5	7	n/a	COLUMN	350	1	n/a	n/a	n/a	n/a	n/a	n/a
4081.392	n/a	RECOG_TARGET	2040696	n/a	LTP117	ltpFR	5	7	0	CORPORATION	382	5	1	n/a	n/a	n/a	n/a	n/a
4081.714	n/a	RECOG_RESP	2040857	n/a	LTP117	ltpFR	5	7	0	CORPORATION	382	n/a	1	n/a	n/a	n/a	n/a	n/a
4082.318	n/a	RECOG_CONF	2041159	n/a	LTP117	ltpFR	5	7	0	CORPORATION	382	5	1	n/a	n/a	n/a	n/a	n/a
4083.666	n/a	RECOG_TARGET	2041833	n/a	LTP117	ltpFR	5	7	-1	VEGETABLE	1552	5	-1	n/a	n/a	n/a	n/a	n/a
4084.078	n/a	RECOG_RESP	2042039	n/a	LTP117	ltpFR	5	7	-1	VEGETABLE	1552	n/a	-1	n/a	n/a	n/a	n/a	n/a
4084.672	n/a	RECOG_CONF	2042336	n/a	LTP117	ltpFR	5	7	-1	VEGETABLE	1552	5	-1	n/a	n/a	n/a	n/a	n/a
4086.094	n/a	RECOG_LURE	2043047	n/a	LTP117	ltpFR	5	7	n/a	KANGAROO	768	1	n/a	n/a	n/a	n/a	n/a	n/a
4086.424	n/a	RECOG_RESP	2043212	n/a	LTP117	ltpFR	5	7	n/a	KANGAROO	768	n/a	n/a	n/a	n/a	n/a	n/a	n/a
4087.018	n/a	RECOG_CONF	2043509	n/a	LTP117	ltpFR	5	7	n/a	KANGAROO	768	1	n/a	n/a	n/a	n/a	n/a	n/a
4088.384	n/a	RECOG_LURE	2044192	n/a	LTP117	ltpFR	5	7	n/a	MACHINE	852	1	n/a	n/a	n/a	n/a	n/a	n/a
4088.788	n/a	RECOG_RESP	2044394	n/a	LTP117	ltpFR	5	7	n/a	MACHINE	852	n/a	n/a	n/a	n/a	n/a	n/a	n/a
4089.372	n/a	RECOG_CONF	2044686	n/a	LTP117	ltpFR	5	7	n/a	MACHINE	852	1	n/a	n/a	n/a	n/a	n/a	n/a
4090.724	n/a	RECOG_LURE	2045362	n/a	LTP117	ltpFR	5	7	n/a	COFFEE	341	5	n/a	n/a	n/a	n/a	n/a	n/a
4091.198	n/a	RECOG_RESP	2045599	n/a	LTP117	ltpFR	5	7	n/a	COFFEE	341	n/a	n/a	n/a	n/a	n/a	n/a	n/a
4091.786	n/a	RECOG_CONF	2045893	n/a	LTP117	ltpFR	5	7	n/a	COFFEE	341	5	n/a	n/a	n/a	n/a	n/a	n/a
4093.136	n/a	RECOG_LURE	2046568	n/a	LTP117	ltpFR	5	7	n/a	POLICE	1098	1	n/a	n/a	n/a	n/a	n/a	n/a
4093.622	n/a	RECOG_RESP	2046811	n/a	LTP117	ltpFR	5	7	n/a	POLICE	1098	n/a	n/a	n/a	n/a	n/a	n/a	n/a
4094.19	n/a	RECOG_CONF	2047095	n/a	LTP117	ltpFR	5	7	n/a	POLICE	1098	1	n/a	n/a	n/a	n/a	n/a	n/a
4095.652	n/a	RECOG_TARGET	2047826	n/a	LTP117	ltpFR	5	7	-1	PECAN	1036	5	-1	n/a	n/a	n/a	n/a	n/a
4096.328	n/a	RECOG_RESP	2048164	n/a	LTP117	ltpFR	5	7	-1	PECAN	1036	n/a	-1	n/a	n/a	n/a	n/a	n/a
4096.906	n/a	RECOG_CONF	2048453	n/a	LTP117	ltpFR	5	7	-1	PECAN	1036	5	-1	n/a	n/a	n/a	n/a	n/a
4098.348	n/a	RECOG_LURE	2049174	n/a	LTP117	ltpFR	5	7	n/a	BABY	64	1	n/a	n/a	n/a	n/a	n/a	n/a
4098.666	n/a	RECOG_RESP	2049333	n/a	LTP117	ltpFR	5	7	n/a	BABY	64	n/a	n/a	n/a	n/a	n/a	n/a	n/a
4099.24	n/a	RECOG_CONF	2049620	n/a	LTP117	ltpFR	5	7	n/a	BABY	64	1	n/a	n/a	n/a	n/a	n/a	n/a
4100.656	n/a	RECOG_TARGET	2050328	n/a	LTP117	ltpFR	5	7	1	BEAST	108	5	0	n/a	n/a	n/a	n/a	n/a
4101.2	n/a	RECOG_RESP	2050600	n/a	LTP117	ltpFR	5	7	1	BEAST	108	n/a	0	n/a	n/a	n/a	n/a	n/a
4101.784	n/a	RECOG_CONF	2050892	n/a	LTP117	ltpFR	5	7	1	BEAST	108	5	0	n/a	n/a	n/a	n/a	n/a
4103.226	n/a	RECOG_TARGET	2051613	n/a	LTP117	ltpFR	5	7	1	VICTIM	1562	5	0	n/a	n/a	n/a	n/a	n/a
4103.78	n/a	RECOG_RESP	2051890	n/a	LTP117	ltpFR	5	7	1	VICTIM	1562	n/a	0	n/a	n/a	n/a	n/a	n/a
4104.368	n/a	RECOG_CONF	2052184	n/a	LTP117	ltpFR	5	7	1	VICTIM	1562	5	0	n/a	n/a	n/a	n/a	n/a
4105.708	n/a	RECOG_TARGET	2052854	n/a	LTP117	ltpFR	5	7	-1	BANKER	84	4	-1	n/a	n/a	n/a	n/a	n/a
4106.15	n/a	RECOG_RESP	2053075	n/a	LTP117	ltpFR	5	7	-1	BANKER	84	n/a	-1	n/a	n/a	n/a	n/a	n/a
4106.844	n/a	RECOG_CONF	2053422	n/a	LTP117	ltpFR	5	7	-1	BANKER	84	4	-1	n/a	n/a	n/a	n/a	n/a
4108.204	n/a	RECOG_TARGET	2054102	n/a	LTP117	ltpFR	5	7	-1	EAGLE	512	5	-1	n/a	n/a	n/a	n/a	n/a
4108.544	n/a	RECOG_RESP	2054272	n/a	LTP117	ltpFR	5	7	-1	EAGLE	512	n/a	-1	n/a	n/a	n/a	n/a	n/a
4109.128	n/a	RECOG_CONF	2054564	n/a	LTP117	ltpFR	5	7	-1	EAGLE	512	5	-1	n/a	n/a	n/a	n/a	n/a
