onset	duration	trial_type	sample	stim_file	subject	experiment	session	trial	item_name	item_num	list	answer	test_x	test_y	test_z
249.57	n/a	SESS_START	124785	n/a	LTP287	ltpFR2	16	n/a	n/a	n/a	n/a	n/a	0	0	0
266.136	n/a	START	133068	n/a	LTP287	ltpFR2	16	n/a	n/a	n/a	-1	n/a	n/a	n/a	n/a
266.186	n/a	PROB	133093	n/a	LTP287	ltpFR2	16	n/a	n/a	n/a	-1	15	3	3	9
267.706	n/a	PROB	133853	n/a	LTP287	ltpFR2	16	n/a	n/a	n/a	-1	26	8	9	9
269.53	n/a	PROB	134765	n/a	LTP287	ltpFR2	16	n/a	n/a	n/a	-1	11	5	3	3
271.722	n/a	PROB	135861	n/a	LTP287	ltpFR2	16	n/a	n/a	n/a	-1	12	3	7	2
272.96	n/a	PROB	136480	n/a	LTP287	ltpFR2	16	n/a	n/a	n/a	-1	14	3	2	9
274.3	n/a	PROB	137150	n/a	LTP287	ltpFR2	16	n/a	n/a	n/a	-1	16	8	5	3
276.588	n/a	STOP	138294	n/a	LTP287	ltpFR2	16	n/a	n/a	n/a	-1	n/a	n/a	n/a	n/a
313.5	n/a	WORD	156750	wordpools/wasnorm_wordpool_576.txt	LTP287	ltpFR2	16	1	SKILLET	1317	n/a	n/a	0	0	0
315.926	n/a	WORD	157963	wordpools/wasnorm_wordpool_576.txt	LTP287	ltpFR2	16	1	DRAGON	492	n/a	n/a	0	0	0
318.346	n/a	WORD	159173	wordpools/wasnorm_wordpool_576.txt	LTP287	ltpFR2	16	1	BRANDY	169	n/a	n/a	0	0	0
320.894	n/a	WORD	160447	wordpools/wasnorm_wordpool_576.txt	LTP287	ltpFR2	16	1	ORCHID	982	n/a	n/a	0	0	0
323.42	n/a	WORD	161710	wordpools/wasnorm_wordpool_576.txt	LTP287	ltpFR2	16	1	COUCH	386	n/a	n/a	0	0	0
326.01	n/a	WORD	163005	wordpools/wasnorm_wordpool_576.txt	LTP287	ltpFR2	16	1	CREATURE	403	n/a	n/a	0	0	0
328.434	n/a	WORD	164217	wordpools/wasnorm_wordpool_576.txt	LTP287	ltpFR2	16	1	EUROPE	541	n/a	n/a	0	0	0
330.984	n/a	WORD	165492	wordpools/wasnorm_wordpool_576.txt	LTP287	ltpFR2	16	1	COUNTY	389	n/a	n/a	0	0	0
333.71	n/a	WORD	166855	wordpools/wasnorm_wordpool_576.txt	LTP287	ltpFR2	16	1	PADDING	999	n/a	n/a	0	0	0
336.298	n/a	WORD	168149	wordpools/wasnorm_wordpool_576.txt	LTP287	ltpFR2	16	1	FLIPPER	580	n/a	n/a	0	0	0
338.778	n/a	WORD	169389	wordpools/wasnorm_wordpool_576.txt	LTP287	ltpFR2	16	1	DOLPHIN	483	n/a	n/a	0	0	0
341.272	n/a	WORD	170636	wordpools/wasnorm_wordpool_576.txt	LTP287	ltpFR2	16	1	CAMEL	223	n/a	n/a	0	0	0
343.764	n/a	WORD	171882	wordpools/wasnorm_wordpool_576.txt	LTP287	ltpFR2	16	1	CHILD	299	n/a	n/a	0	0	0
346.358	n/a	WORD	173179	wordpools/wasnorm_wordpool_576.txt	LTP287	ltpFR2	16	1	CRIB	407	n/a	n/a	0	0	0
349.07	n/a	WORD	174535	wordpools/wasnorm_wordpool_576.txt	LTP287	ltpFR2	16	1	SUSPECT	1415	n/a	n/a	0	0	0
351.624	n/a	WORD	175812	wordpools/wasnorm_wordpool_576.txt	LTP287	ltpFR2	16	1	WITNESS	1618	n/a	n/a	0	0	0
354.084	n/a	WORD	177042	wordpools/wasnorm_wordpool_576.txt	LTP287	ltpFR2	16	1	LIVER	833	n/a	n/a	0	0	0
356.698	n/a	WORD	178349	wordpools/wasnorm_wordpool_576.txt	LTP287	ltpFR2	16	1	PIMPLE	1071	n/a	n/a	0	0	0
359.358	n/a	WORD	179679	wordpools/wasnorm_wordpool_576.txt	LTP287	ltpFR2	16	1	SCRIBBLE	1256	n/a	n/a	0	0	0
361.846	n/a	WORD	180923	wordpools/wasnorm_wordpool_576.txt	LTP287	ltpFR2	16	1	CEILING	265	n/a	n/a	0	0	0
364.576	n/a	WORD	182288	wordpools/wasnorm_wordpool_576.txt	LTP287	ltpFR2	16	1	VENUS	1557	n/a	n/a	0	0	0
367.318	n/a	WORD	183659	wordpools/wasnorm_wordpool_576.txt	LTP287	ltpFR2	16	1	HELMET	702	n/a	n/a	0	0	0
370.116	n/a	WORD	185058	wordpools/wasnorm_wordpool_576.txt	LTP287	ltpFR2	16	1	PLAZA	1088	n/a	n/a	0	0	0
372.926	n/a	WORD	186463	wordpools/wasnorm_wordpool_576.txt	LTP287	ltpFR2	16	1	RUG	1215	n/a	n/a	0	0	0
374.532	n/a	START	187266	n/a	LTP287	ltpFR2	16	n/a	n/a	n/a	1	n/a	n/a	n/a	n/a
375.648	n/a	DISTRACTOR	187824	n/a	LTP287	ltpFR2	16	1	n/a	n/a	n/a	n/a	0	0	0
375.664	n/a	PROB	187832	n/a	LTP287	ltpFR2	16	n/a	n/a	n/a	1	16	7	7	2
377.206	n/a	PROB	188603	n/a	LTP287	ltpFR2	16	n/a	n/a	n/a	1	23	7	8	8
380.02	n/a	PROB	190010	n/a	LTP287	ltpFR2	16	n/a	n/a	n/a	1	16	8	3	5
381.526	n/a	PROB	190763	n/a	LTP287	ltpFR2	16	n/a	n/a	n/a	1	15	3	8	4
383.434	n/a	PROB	191717	n/a	LTP287	ltpFR2	16	n/a	n/a	n/a	1	16	6	6	4
385.438	n/a	PROB	192719	n/a	LTP287	ltpFR2	16	n/a	n/a	n/a	1	14	2	9	3
387.834	n/a	PROB	193917	n/a	LTP287	ltpFR2	16	n/a	n/a	n/a	1	24	7	9	8
389.668	n/a	PROB	194834	n/a	LTP287	ltpFR2	16	n/a	n/a	n/a	1	10	1	5	4
391.13	n/a	PROB	195565	n/a	LTP287	ltpFR2	16	n/a	n/a	n/a	1	22	6	7	9
394.288	n/a	PROB	197144	n/a	LTP287	ltpFR2	16	n/a	n/a	n/a	1	22	8	7	7
396.262	n/a	PROB	198131	n/a	LTP287	ltpFR2	16	n/a	n/a	n/a	1	13	1	3	9
397.964	n/a	STOP	198982	n/a	LTP287	ltpFR2	16	n/a	n/a	n/a	1	n/a	n/a	n/a	n/a
400.44	n/a	REC_START	200220	n/a	LTP287	ltpFR2	16	1	n/a	n/a	n/a	n/a	0	0	0
400.966	n/a	REC_WORD	200483	wordpools/wasnorm_wordpool_576.txt	LTP287	ltpFR2	16	1	SKILLET	1317	n/a	n/a	0	0	0
402.72	n/a	REC_WORD	201360	wordpools/wasnorm_wordpool_576.txt	LTP287	ltpFR2	16	1	BRANDY	169	n/a	n/a	0	0	0
403.682	n/a	REC_WORD	201841	wordpools/wasnorm_wordpool_576.txt	LTP287	ltpFR2	16	1	CHILD	299	n/a	n/a	0	0	0
404.458	n/a	REC_WORD	202229	wordpools/wasnorm_wordpool_576.txt	LTP287	ltpFR2	16	1	CRIB	407	n/a	n/a	0	0	0
405.964	n/a	REC_WORD	202982	wordpools/wasnorm_wordpool_576.txt	LTP287	ltpFR2	16	1	CEILING	265	n/a	n/a	0	0	0
412.024	n/a	REC_WORD	206012	wordpools/wasnorm_wordpool_576.txt	LTP287	ltpFR2	16	1	DRAGON	492	n/a	n/a	0	0	0
429.298	n/a	REC_WORD_VV	214649	wordpools/wasnorm_wordpool_576.txt	LTP287	ltpFR2	16	1	<>	-1	n/a	n/a	0	0	0
432.22	n/a	REC_WORD_VV	216110	wordpools/wasnorm_wordpool_576.txt	LTP287	ltpFR2	16	1	<>	-1	n/a	n/a	0	0	0
437.044	n/a	REC_WORD_VV	218522	wordpools/wasnorm_wordpool_576.txt	LTP287	ltpFR2	16	1	<>	-1	n/a	n/a	0	0	0
440.062	n/a	REC_WORD_VV	220031	wordpools/wasnorm_wordpool_576.txt	LTP287	ltpFR2	16	1	<>	-1	n/a	n/a	0	0	0
445.58	n/a	REC_WORD	222790	wordpools/wasnorm_wordpool_576.txt	LTP287	ltpFR2	16	1	CAMEL	223	n/a	n/a	0	0	0
446.61	n/a	REC_WORD	223305	wordpools/wasnorm_wordpool_576.txt	LTP287	ltpFR2	16	1	DOLPHIN	483	n/a	n/a	0	0	0
491.646	n/a	DISTRACTOR	245823	n/a	LTP287	ltpFR2	16	2	n/a	n/a	n/a	n/a	0	0	0
491.646	n/a	START	245823	n/a	LTP287	ltpFR2	16	n/a	n/a	n/a	2	n/a	n/a	n/a	n/a
491.696	n/a	PROB	245848	n/a	LTP287	ltpFR2	16	n/a	n/a	n/a	2	14	8	3	3
493.148	n/a	PROB	246574	n/a	LTP287	ltpFR2	16	n/a	n/a	n/a	2	23	7	7	9
494.836	n/a	PROB	247418	n/a	LTP287	ltpFR2	16	n/a	n/a	n/a	2	12	2	9	1
496.16	n/a	PROB	248080	n/a	LTP287	ltpFR2	16	n/a	n/a	n/a	2	13	9	1	3
497.168	n/a	PROB	248584	n/a	LTP287	ltpFR2	16	n/a	n/a	n/a	2	15	8	1	6
498.824	n/a	PROB	249412	n/a	LTP287	ltpFR2	16	n/a	n/a	n/a	2	11	4	4	3
500.364	n/a	PROB	250182	n/a	LTP287	ltpFR2	16	n/a	n/a	n/a	2	9	2	1	6
501.714	n/a	PROB	250857	n/a	LTP287	ltpFR2	16	n/a	n/a	n/a	2	16	5	5	6
502.756	n/a	PROB	251378	n/a	LTP287	ltpFR2	16	n/a	n/a	n/a	2	13	1	6	6
503.99	n/a	PROB	251995	n/a	LTP287	ltpFR2	16	n/a	n/a	n/a	2	10	1	1	8
505.066	n/a	PROB	252533	n/a	LTP287	ltpFR2	16	n/a	n/a	n/a	2	19	9	9	1
506.354	n/a	PROB	253177	n/a	LTP287	ltpFR2	16	n/a	n/a	n/a	2	16	8	2	6
507.57	n/a	PROB	253785	n/a	LTP287	ltpFR2	16	n/a	n/a	n/a	2	17	5	4	8
509.778	n/a	PROB	254889	n/a	LTP287	ltpFR2	16	n/a	n/a	n/a	2	10	6	1	3
511.402	n/a	PROB	255701	n/a	LTP287	ltpFR2	16	n/a	n/a	n/a	2	12	6	3	3
512.738	n/a	PROB	256369	n/a	LTP287	ltpFR2	16	n/a	n/a	n/a	2	23	8	8	7
514.68	n/a	STOP	257340	n/a	LTP287	ltpFR2	16	n/a	n/a	n/a	2	n/a	n/a	n/a	n/a
516.804	n/a	WORD	258402	wordpools/wasnorm_wordpool_576.txt	LTP287	ltpFR2	16	2	HUMAN	726	n/a	n/a	0	0	0
519.366	n/a	WORD	259683	wordpools/wasnorm_wordpool_576.txt	LTP287	ltpFR2	16	2	POSSUM	1112	n/a	n/a	0	0	0
522.03	n/a	WORD	261015	wordpools/wasnorm_wordpool_576.txt	LTP287	ltpFR2	16	2	TORTOISE	1486	n/a	n/a	0	0	0
524.822	n/a	WORD	262411	wordpools/wasnorm_wordpool_576.txt	LTP287	ltpFR2	16	2	BUREAU	199	n/a	n/a	0	0	0
527.55	n/a	WORD	263775	wordpools/wasnorm_wordpool_576.txt	LTP287	ltpFR2	16	2	BEEF	113	n/a	n/a	0	0	0
530.16	n/a	WORD	265080	wordpools/wasnorm_wordpool_576.txt	LTP287	ltpFR2	16	2	PIGEON	1065	n/a	n/a	0	0	0
532.648	n/a	WORD	266324	wordpools/wasnorm_wordpool_576.txt	LTP287	ltpFR2	16	2	YOLK	1633	n/a	n/a	0	0	0
535.364	n/a	WORD	267682	wordpools/wasnorm_wordpool_576.txt	LTP287	ltpFR2	16	2	VIKING	1565	n/a	n/a	0	0	0
537.974	n/a	WORD	268987	wordpools/wasnorm_wordpool_576.txt	LTP287	ltpFR2	16	2	AUTHOR	61	n/a	n/a	0	0	0
540.584	n/a	WORD	270292	wordpools/wasnorm_wordpool_576.txt	LTP287	ltpFR2	16	2	BOX	159	n/a	n/a	0	0	0
543.01	n/a	WORD	271505	wordpools/wasnorm_wordpool_576.txt	LTP287	ltpFR2	16	2	DIME	466	n/a	n/a	0	0	0
545.702	n/a	WORD	272851	wordpools/wasnorm_wordpool_576.txt	LTP287	ltpFR2	16	2	RECEIPT	1173	n/a	n/a	0	0	0
548.464	n/a	WORD	274232	wordpools/wasnorm_wordpool_576.txt	LTP287	ltpFR2	16	2	AIRPLANE	12	n/a	n/a	0	0	0
551.152	n/a	WORD	275576	wordpools/wasnorm_wordpool_576.txt	LTP287	ltpFR2	16	2	CRAYON	401	n/a	n/a	0	0	0
553.65	n/a	WORD	276825	wordpools/wasnorm_wordpool_576.txt	LTP287	ltpFR2	16	2	GUITAR	670	n/a	n/a	0	0	0
556.24	n/a	WORD	278120	wordpools/wasnorm_wordpool_576.txt	LTP287	ltpFR2	16	2	TURTLE	1522	n/a	n/a	0	0	0
558.804	n/a	WORD	279402	wordpools/wasnorm_wordpool_576.txt	LTP287	ltpFR2	16	2	ARMY	39	n/a	n/a	0	0	0
561.364	n/a	WORD	280682	wordpools/wasnorm_wordpool_576.txt	LTP287	ltpFR2	16	2	POCKET	1093	n/a	n/a	0	0	0
563.788	n/a	WORD	281894	wordpools/wasnorm_wordpool_576.txt	LTP287	ltpFR2	16	2	LIZARD	834	n/a	n/a	0	0	0
566.512	n/a	WORD	283256	wordpools/wasnorm_wordpool_576.txt	LTP287	ltpFR2	16	2	POISON	1096	n/a	n/a	0	0	0
569.042	n/a	WORD	284521	wordpools/wasnorm_wordpool_576.txt	LTP287	ltpFR2	16	2	CHEST	295	n/a	n/a	0	0	0
571.798	n/a	WORD	285899	wordpools/wasnorm_wordpool_576.txt	LTP287	ltpFR2	16	2	OYSTER	995	n/a	n/a	0	0	0
574.614	n/a	WORD	287307	wordpools/wasnorm_wordpool_576.txt	LTP287	ltpFR2	16	2	CONCERT	360	n/a	n/a	0	0	0
577.404	n/a	WORD	288702	wordpools/wasnorm_wordpool_576.txt	LTP287	ltpFR2	16	2	ANKLE	24	n/a	n/a	0	0	0
579.014	n/a	START	289507	n/a	LTP287	ltpFR2	16	n/a	n/a	n/a	3	n/a	n/a	n/a	n/a
580.196	n/a	DISTRACTOR	290098	n/a	LTP287	ltpFR2	16	2	n/a	n/a	n/a	n/a	0	0	0
580.202	n/a	PROB	290101	n/a	LTP287	ltpFR2	16	n/a	n/a	n/a	3	21	8	8	5
583.126	n/a	PROB	291563	n/a	LTP287	ltpFR2	16	n/a	n/a	n/a	3	22	8	9	5
585.668	n/a	PROB	292834	n/a	LTP287	ltpFR2	16	n/a	n/a	n/a	3	16	3	5	8
588.578	n/a	PROB	294289	n/a	LTP287	ltpFR2	16	n/a	n/a	n/a	3	10	1	2	7
589.636	n/a	PROB	294818	n/a	LTP287	ltpFR2	16	n/a	n/a	n/a	3	20	4	9	7
591.542	n/a	PROB	295771	n/a	LTP287	ltpFR2	16	n/a	n/a	n/a	3	17	3	7	7
593.048	n/a	PROB	296524	n/a	LTP287	ltpFR2	16	n/a	n/a	n/a	3	17	8	3	6
595.544	n/a	PROB	297772	n/a	LTP287	ltpFR2	16	n/a	n/a	n/a	3	10	7	2	1
597.43	n/a	PROB	298715	n/a	LTP287	ltpFR2	16	n/a	n/a	n/a	3	20	8	9	3
599.37	n/a	PROB	299685	n/a	LTP287	ltpFR2	16	n/a	n/a	n/a	3	12	1	2	9
600.994	n/a	PROB	300497	n/a	LTP287	ltpFR2	16	n/a	n/a	n/a	3	15	2	4	9
602.422	n/a	STOP	301211	n/a	LTP287	ltpFR2	16	n/a	n/a	n/a	3	n/a	n/a	n/a	n/a
604.914	n/a	REC_START	302457	n/a	LTP287	ltpFR2	16	2	n/a	n/a	n/a	n/a	0	0	0
606.346	n/a	REC_WORD	303173	wordpools/wasnorm_wordpool_576.txt	LTP287	ltpFR2	16	2	CHEST	295	n/a	n/a	0	0	0
609.242	n/a	REC_WORD	304621	wordpools/wasnorm_wordpool_576.txt	LTP287	ltpFR2	16	2	HUMAN	726	n/a	n/a	0	0	0
610.262	n/a	REC_WORD	305131	wordpools/wasnorm_wordpool_576.txt	LTP287	ltpFR2	16	2	POSSUM	1112	n/a	n/a	0	0	0
611.064	n/a	REC_WORD	305532	wordpools/wasnorm_wordpool_576.txt	LTP287	ltpFR2	16	2	PIGEON	1065	n/a	n/a	0	0	0
611.864	n/a	REC_WORD	305932	wordpools/wasnorm_wordpool_576.txt	LTP287	ltpFR2	16	2	BEEF	113	n/a	n/a	0	0	0
612.594	n/a	REC_WORD	306297	wordpools/wasnorm_wordpool_576.txt	LTP287	ltpFR2	16	2	BUREAU	199	n/a	n/a	0	0	0
615.638	n/a	REC_WORD	307819	wordpools/wasnorm_wordpool_576.txt	LTP287	ltpFR2	16	2	TURTLE	1522	n/a	n/a	0	0	0
616.298	n/a	REC_WORD	308149	wordpools/wasnorm_wordpool_576.txt	LTP287	ltpFR2	16	2	TORTOISE	1486	n/a	n/a	0	0	0
617.774	n/a	REC_WORD	308887	wordpools/wasnorm_wordpool_576.txt	LTP287	ltpFR2	16	2	ARMY	39	n/a	n/a	0	0	0
695.962	n/a	DISTRACTOR	347981	n/a	LTP287	ltpFR2	16	3	n/a	n/a	n/a	n/a	0	0	0
695.962	n/a	START	347981	n/a	LTP287	ltpFR2	16	n/a	n/a	n/a	4	n/a	n/a	n/a	n/a
696.024	n/a	PROB	348012	n/a	LTP287	ltpFR2	16	n/a	n/a	n/a	4	9	3	2	4
697.7	n/a	PROB	348850	n/a	LTP287	ltpFR2	16	n/a	n/a	n/a	4	7	3	1	3
699.168	n/a	PROB	349584	n/a	LTP287	ltpFR2	16	n/a	n/a	n/a	4	17	7	7	3
700.74	n/a	PROB	350370	n/a	LTP287	ltpFR2	16	n/a	n/a	n/a	4	14	1	6	7
702.654	n/a	PROB	351327	n/a	LTP287	ltpFR2	16	n/a	n/a	n/a	4	9	2	3	4
704.092	n/a	PROB	352046	n/a	LTP287	ltpFR2	16	n/a	n/a	n/a	4	20	5	7	8
705.996	n/a	PROB	352998	n/a	LTP287	ltpFR2	16	n/a	n/a	n/a	4	19	3	9	7
708.12	n/a	PROB	354060	n/a	LTP287	ltpFR2	16	n/a	n/a	n/a	4	20	4	9	7
709.542	n/a	PROB	354771	n/a	LTP287	ltpFR2	16	n/a	n/a	n/a	4	8	5	2	1
710.796	n/a	PROB	355398	n/a	LTP287	ltpFR2	16	n/a	n/a	n/a	4	18	5	9	4
712.552	n/a	PROB	356276	n/a	LTP287	ltpFR2	16	n/a	n/a	n/a	4	15	9	4	2
714.126	n/a	PROB	357063	n/a	LTP287	ltpFR2	16	n/a	n/a	n/a	4	18	6	4	8
715.414	n/a	PROB	357707	n/a	LTP287	ltpFR2	16	n/a	n/a	n/a	4	17	6	6	5
716.836	n/a	PROB	358418	n/a	LTP287	ltpFR2	16	n/a	n/a	n/a	4	19	8	5	6
719.572	n/a	STOP	359786	n/a	LTP287	ltpFR2	16	n/a	n/a	n/a	4	n/a	n/a	n/a	n/a
720.856	n/a	WORD	360428	wordpools/wasnorm_wordpool_576.txt	LTP287	ltpFR2	16	3	TROUT	1511	n/a	n/a	0	0	0
723.6	n/a	WORD	361800	wordpools/wasnorm_wordpool_576.txt	LTP287	ltpFR2	16	3	CONVICT	371	n/a	n/a	0	0	0
726.106	n/a	WORD	363053	wordpools/wasnorm_wordpool_576.txt	LTP287	ltpFR2	16	3	GRAVE	658	n/a	n/a	0	0	0
728.904	n/a	WORD	364452	wordpools/wasnorm_wordpool_576.txt	LTP287	ltpFR2	16	3	CASKET	255	n/a	n/a	0	0	0
731.676	n/a	WORD	365838	wordpools/wasnorm_wordpool_576.txt	LTP287	ltpFR2	16	3	SHRUB	1299	n/a	n/a	0	0	0
734.474	n/a	WORD	367237	wordpools/wasnorm_wordpool_576.txt	LTP287	ltpFR2	16	3	SUITCASE	1403	n/a	n/a	0	0	0
737.118	n/a	WORD	368559	wordpools/wasnorm_wordpool_576.txt	LTP287	ltpFR2	16	3	PACKAGE	997	n/a	n/a	0	0	0
739.846	n/a	WORD	369923	wordpools/wasnorm_wordpool_576.txt	LTP287	ltpFR2	16	3	HONEY	713	n/a	n/a	0	0	0
742.272	n/a	WORD	371136	wordpools/wasnorm_wordpool_576.txt	LTP287	ltpFR2	16	3	MUSTARD	935	n/a	n/a	0	0	0
744.948	n/a	WORD	372474	wordpools/wasnorm_wordpool_576.txt	LTP287	ltpFR2	16	3	MASK	876	n/a	n/a	0	0	0
747.508	n/a	WORD	373754	wordpools/wasnorm_wordpool_576.txt	LTP287	ltpFR2	16	3	BUGGY	188	n/a	n/a	0	0	0
750.068	n/a	WORD	375034	wordpools/wasnorm_wordpool_576.txt	LTP287	ltpFR2	16	3	SADDLE	1221	n/a	n/a	0	0	0
752.576	n/a	WORD	376288	wordpools/wasnorm_wordpool_576.txt	LTP287	ltpFR2	16	3	TYPIST	1532	n/a	n/a	0	0	0
755.154	n/a	WORD	377577	wordpools/wasnorm_wordpool_576.txt	LTP287	ltpFR2	16	3	GRAPE	654	n/a	n/a	0	0	0
757.864	n/a	WORD	378932	wordpools/wasnorm_wordpool_576.txt	LTP287	ltpFR2	16	3	MAPLE	866	n/a	n/a	0	0	0
760.526	n/a	WORD	380263	wordpools/wasnorm_wordpool_576.txt	LTP287	ltpFR2	16	3	MARS	873	n/a	n/a	0	0	0
763.052	n/a	WORD	381526	wordpools/wasnorm_wordpool_576.txt	LTP287	ltpFR2	16	3	HATCHET	691	n/a	n/a	0	0	0
765.79	n/a	WORD	382895	wordpools/wasnorm_wordpool_576.txt	LTP287	ltpFR2	16	3	PECAN	1036	n/a	n/a	0	0	0
768.572	n/a	WORD	384286	wordpools/wasnorm_wordpool_576.txt	LTP287	ltpFR2	16	3	FRUIT	610	n/a	n/a	0	0	0
771.248	n/a	WORD	385624	wordpools/wasnorm_wordpool_576.txt	LTP287	ltpFR2	16	3	VICTIM	1562	n/a	n/a	0	0	0
773.992	n/a	WORD	386996	wordpools/wasnorm_wordpool_576.txt	LTP287	ltpFR2	16	3	PICNIC	1060	n/a	n/a	0	0	0
776.736	n/a	WORD	388368	wordpools/wasnorm_wordpool_576.txt	LTP287	ltpFR2	16	3	CHAUFFEUR	283	n/a	n/a	0	0	0
779.426	n/a	WORD	389713	wordpools/wasnorm_wordpool_576.txt	LTP287	ltpFR2	16	3	MAILBOX	857	n/a	n/a	0	0	0
782.02	n/a	WORD	391010	wordpools/wasnorm_wordpool_576.txt	LTP287	ltpFR2	16	3	LUGGAGE	847	n/a	n/a	0	0	0
783.63	n/a	START	391815	n/a	LTP287	ltpFR2	16	n/a	n/a	n/a	5	n/a	n/a	n/a	n/a
784.512	n/a	DISTRACTOR	392256	n/a	LTP287	ltpFR2	16	3	n/a	n/a	n/a	n/a	0	0	0
784.528	n/a	PROB	392264	n/a	LTP287	ltpFR2	16	n/a	n/a	n/a	5	14	5	6	3
786.618	n/a	PROB	393309	n/a	LTP287	ltpFR2	16	n/a	n/a	n/a	5	19	1	9	9
787.996	n/a	PROB	393998	n/a	LTP287	ltpFR2	16	n/a	n/a	n/a	5	9	2	5	2
789.18	n/a	PROB	394590	n/a	LTP287	ltpFR2	16	n/a	n/a	n/a	5	11	4	4	3
790.6	n/a	PROB	395300	n/a	LTP287	ltpFR2	16	n/a	n/a	n/a	5	20	5	9	6
792.842	n/a	PROB	396421	n/a	LTP287	ltpFR2	16	n/a	n/a	n/a	5	8	2	1	5
794.014	n/a	PROB	397007	n/a	LTP287	ltpFR2	16	n/a	n/a	n/a	5	15	4	4	7
795.338	n/a	PROB	397669	n/a	LTP287	ltpFR2	16	n/a	n/a	n/a	5	18	8	8	2
797.228	n/a	PROB	398614	n/a	LTP287	ltpFR2	16	n/a	n/a	n/a	5	15	9	3	3
799.452	n/a	PROB	399726	n/a	LTP287	ltpFR2	16	n/a	n/a	n/a	5	20	6	7	7
801.76	n/a	PROB	400880	n/a	LTP287	ltpFR2	16	n/a	n/a	n/a	5	18	8	2	8
803.284	n/a	PROB	401642	n/a	LTP287	ltpFR2	16	n/a	n/a	n/a	5	14	3	6	5
805.708	n/a	PROB	402854	n/a	LTP287	ltpFR2	16	n/a	n/a	n/a	5	23	9	7	7
807.498	n/a	STOP	403749	n/a	LTP287	ltpFR2	16	n/a	n/a	n/a	5	n/a	n/a	n/a	n/a
809.458	n/a	REC_START	404729	n/a	LTP287	ltpFR2	16	3	n/a	n/a	n/a	n/a	0	0	0
810.804	n/a	REC_WORD	405402	wordpools/wasnorm_wordpool_576.txt	LTP287	ltpFR2	16	3	MAPLE	866	n/a	n/a	0	0	0
811.438	n/a	REC_WORD	405719	wordpools/wasnorm_wordpool_576.txt	LTP287	ltpFR2	16	3	HONEY	713	n/a	n/a	0	0	0
812.116	n/a	REC_WORD	406058	wordpools/wasnorm_wordpool_576.txt	LTP287	ltpFR2	16	3	MUSTARD	935	n/a	n/a	0	0	0
812.928	n/a	REC_WORD	406464	wordpools/wasnorm_wordpool_576.txt	LTP287	ltpFR2	16	3	MASK	876	n/a	n/a	0	0	0
813.556	n/a	REC_WORD	406778	wordpools/wasnorm_wordpool_576.txt	LTP287	ltpFR2	16	3	FRUIT	610	n/a	n/a	0	0	0
818.886	n/a	REC_WORD	409443	wordpools/wasnorm_wordpool_576.txt	LTP287	ltpFR2	16	3	GRAVE	658	n/a	n/a	0	0	0
820.304	n/a	REC_WORD	410152	wordpools/wasnorm_wordpool_576.txt	LTP287	ltpFR2	16	3	VICTIM	1562	n/a	n/a	0	0	0
823.524	n/a	REC_WORD	411762	wordpools/wasnorm_wordpool_576.txt	LTP287	ltpFR2	16	3	CONVICT	371	n/a	n/a	0	0	0
825.83	n/a	REC_WORD	412915	wordpools/wasnorm_wordpool_576.txt	LTP287	ltpFR2	16	3	CASKET	255	n/a	n/a	0	0	0
827.3	n/a	REC_WORD	413650	wordpools/wasnorm_wordpool_576.txt	LTP287	ltpFR2	16	3	PACKAGE	997	n/a	n/a	0	0	0
827.992	n/a	REC_WORD	413996	wordpools/wasnorm_wordpool_576.txt	LTP287	ltpFR2	16	3	MAPLE	866	n/a	n/a	0	0	0
842.24	n/a	REC_WORD	421120	wordpools/wasnorm_wordpool_576.txt	LTP287	ltpFR2	16	3	TROUT	1511	n/a	n/a	0	0	0
900.492	n/a	DISTRACTOR	450246	n/a	LTP287	ltpFR2	16	4	n/a	n/a	n/a	n/a	0	0	0
900.494	n/a	START	450247	n/a	LTP287	ltpFR2	16	n/a	n/a	n/a	6	n/a	n/a	n/a	n/a
900.544	n/a	PROB	450272	n/a	LTP287	ltpFR2	16	n/a	n/a	n/a	6	5	2	1	2
901.608	n/a	PROB	450804	n/a	LTP287	ltpFR2	16	n/a	n/a	n/a	6	12	3	7	2
902.7	n/a	PROB	451350	n/a	LTP287	ltpFR2	16	n/a	n/a	n/a	6	25	8	8	7
904.67	n/a	PROB	452335	n/a	LTP287	ltpFR2	16	n/a	n/a	n/a	6	21	9	5	7
910.176	n/a	PROB	455088	n/a	LTP287	ltpFR2	16	n/a	n/a	n/a	6	16	5	9	2
912.4	n/a	PROB	456200	n/a	LTP287	ltpFR2	16	n/a	n/a	n/a	6	10	5	3	2
914.096	n/a	PROB	457048	n/a	LTP287	ltpFR2	16	n/a	n/a	n/a	6	4	2	1	1
915.232	n/a	PROB	457616	n/a	LTP287	ltpFR2	16	n/a	n/a	n/a	6	23	4	9	8
918.674	n/a	PROB	459337	n/a	LTP287	ltpFR2	16	n/a	n/a	n/a	6	19	4	9	6
921.874	n/a	PROB	460937	n/a	LTP287	ltpFR2	16	n/a	n/a	n/a	6	18	7	5	6
923.598	n/a	STOP	461799	n/a	LTP287	ltpFR2	16	n/a	n/a	n/a	6	n/a	n/a	n/a	n/a
925.522	n/a	WORD	462761	wordpools/wasnorm_wordpool_576.txt	LTP287	ltpFR2	16	4	HANDBAG	684	n/a	n/a	0	0	0
928.116	n/a	WORD	464058	wordpools/wasnorm_wordpool_576.txt	LTP287	ltpFR2	16	4	BEAST	108	n/a	n/a	0	0	0
930.774	n/a	WORD	465387	wordpools/wasnorm_wordpool_576.txt	LTP287	ltpFR2	16	4	COMET	353	n/a	n/a	0	0	0
933.52	n/a	WORD	466760	wordpools/wasnorm_wordpool_576.txt	LTP287	ltpFR2	16	4	GANGSTER	620	n/a	n/a	0	0	0
936.264	n/a	WORD	468132	wordpools/wasnorm_wordpool_576.txt	LTP287	ltpFR2	16	4	BANK	83	n/a	n/a	0	0	0
938.838	n/a	WORD	469419	wordpools/wasnorm_wordpool_576.txt	LTP287	ltpFR2	16	4	PARENT	1013	n/a	n/a	0	0	0
941.534	n/a	WORD	470767	wordpools/wasnorm_wordpool_576.txt	LTP287	ltpFR2	16	4	BROTHER	179	n/a	n/a	0	0	0
944.344	n/a	WORD	472172	wordpools/wasnorm_wordpool_576.txt	LTP287	ltpFR2	16	4	BOARD	143	n/a	n/a	0	0	0
946.802	n/a	WORD	473401	wordpools/wasnorm_wordpool_576.txt	LTP287	ltpFR2	16	4	RIFLE	1192	n/a	n/a	0	0	0
949.448	n/a	WORD	474724	wordpools/wasnorm_wordpool_576.txt	LTP287	ltpFR2	16	4	RAFT	1159	n/a	n/a	0	0	0
952.19	n/a	WORD	476095	wordpools/wasnorm_wordpool_576.txt	LTP287	ltpFR2	16	4	JELLO	754	n/a	n/a	0	0	0
954.716	n/a	WORD	477358	wordpools/wasnorm_wordpool_576.txt	LTP287	ltpFR2	16	4	CUSTARD	429	n/a	n/a	0	0	0
957.444	n/a	WORD	478722	wordpools/wasnorm_wordpool_576.txt	LTP287	ltpFR2	16	4	SEAGULL	1261	n/a	n/a	0	0	0
960.088	n/a	WORD	480044	wordpools/wasnorm_wordpool_576.txt	LTP287	ltpFR2	16	4	LOVER	846	n/a	n/a	0	0	0
962.848	n/a	WORD	481424	wordpools/wasnorm_wordpool_576.txt	LTP287	ltpFR2	16	4	NECKLACE	940	n/a	n/a	0	0	0
965.636	n/a	WORD	482818	wordpools/wasnorm_wordpool_576.txt	LTP287	ltpFR2	16	4	PARROT	1015	n/a	n/a	0	0	0
968.264	n/a	WORD	484132	wordpools/wasnorm_wordpool_576.txt	LTP287	ltpFR2	16	4	TWISTER	1530	n/a	n/a	0	0	0
970.706	n/a	WORD	485353	wordpools/wasnorm_wordpool_576.txt	LTP287	ltpFR2	16	4	BACON	67	n/a	n/a	0	0	0
973.216	n/a	WORD	486608	wordpools/wasnorm_wordpool_576.txt	LTP287	ltpFR2	16	4	SAUSAGE	1238	n/a	n/a	0	0	0
975.914	n/a	WORD	487957	wordpools/wasnorm_wordpool_576.txt	LTP287	ltpFR2	16	4	PRIMATE	1123	n/a	n/a	0	0	0
978.458	n/a	WORD	489229	wordpools/wasnorm_wordpool_576.txt	LTP287	ltpFR2	16	4	TABLE	1426	n/a	n/a	0	0	0
981.248	n/a	WORD	490624	wordpools/wasnorm_wordpool_576.txt	LTP287	ltpFR2	16	4	DORM	488	n/a	n/a	0	0	0
983.93	n/a	WORD	491965	wordpools/wasnorm_wordpool_576.txt	LTP287	ltpFR2	16	4	STAR	1373	n/a	n/a	0	0	0
986.65	n/a	WORD	493325	wordpools/wasnorm_wordpool_576.txt	LTP287	ltpFR2	16	4	GOBLIN	645	n/a	n/a	0	0	0
988.262	n/a	START	494131	n/a	LTP287	ltpFR2	16	n/a	n/a	n/a	7	n/a	n/a	n/a	n/a
989.318	n/a	DISTRACTOR	494659	n/a	LTP287	ltpFR2	16	4	n/a	n/a	n/a	n/a	0	0	0
989.332	n/a	PROB	494666	n/a	LTP287	ltpFR2	16	n/a	n/a	n/a	7	11	3	2	6
991.386	n/a	PROB	495693	n/a	LTP287	ltpFR2	16	n/a	n/a	n/a	7	14	5	1	8
992.942	n/a	PROB	496471	n/a	LTP287	ltpFR2	16	n/a	n/a	n/a	7	17	5	4	8
994.764	n/a	PROB	497382	n/a	LTP287	ltpFR2	16	n/a	n/a	n/a	7	23	9	6	8
998.01	n/a	PROB	499005	n/a	LTP287	ltpFR2	16	n/a	n/a	n/a	7	14	4	9	1
1000.186	n/a	PROB	500093	n/a	LTP287	ltpFR2	16	n/a	n/a	n/a	7	18	8	1	9
1001.446	n/a	PROB	500723	n/a	LTP287	ltpFR2	16	n/a	n/a	n/a	7	13	1	4	8
1003.598	n/a	PROB	501799	n/a	LTP287	ltpFR2	16	n/a	n/a	n/a	7	15	2	8	5
1005.49	n/a	PROB	502745	n/a	LTP287	ltpFR2	16	n/a	n/a	n/a	7	13	2	5	6
1007.598	n/a	PROB	503799	n/a	LTP287	ltpFR2	16	n/a	n/a	n/a	7	18	3	6	9
1009.204	n/a	PROB	504602	n/a	LTP287	ltpFR2	16	n/a	n/a	n/a	7	19	1	9	9
1012.262	n/a	STOP	506131	n/a	LTP287	ltpFR2	16	n/a	n/a	n/a	7	n/a	n/a	n/a	n/a
1014.078	n/a	REC_START	507039	n/a	LTP287	ltpFR2	16	4	n/a	n/a	n/a	n/a	0	0	0
1014.83	n/a	REC_WORD	507415	wordpools/wasnorm_wordpool_576.txt	LTP287	ltpFR2	16	4	DORM	488	n/a	n/a	0	0	0
1016.966	n/a	REC_WORD	508483	wordpools/wasnorm_wordpool_576.txt	LTP287	ltpFR2	16	4	BACON	67	n/a	n/a	0	0	0
1018.598	n/a	REC_WORD	509299	wordpools/wasnorm_wordpool_576.txt	LTP287	ltpFR2	16	4	RIFLE	1192	n/a	n/a	0	0	0
1019.272	n/a	REC_WORD	509636	wordpools/wasnorm_wordpool_576.txt	LTP287	ltpFR2	16	4	BROTHER	179	n/a	n/a	0	0	0
1019.882	n/a	REC_WORD	509941	wordpools/wasnorm_wordpool_576.txt	LTP287	ltpFR2	16	4	BOARD	143	n/a	n/a	0	0	0
1020.526	n/a	REC_WORD	510263	wordpools/wasnorm_wordpool_576.txt	LTP287	ltpFR2	16	4	RAFT	1159	n/a	n/a	0	0	0
1022.702	n/a	REC_WORD	511351	wordpools/wasnorm_wordpool_576.txt	LTP287	ltpFR2	16	4	LOVER	846	n/a	n/a	0	0	0
1105.176	n/a	WORD	552588	wordpools/wasnorm_wordpool_576.txt	LTP287	ltpFR2	16	5	STAMP	1370	n/a	n/a	0	0	0
1107.896	n/a	WORD	553948	wordpools/wasnorm_wordpool_576.txt	LTP287	ltpFR2	16	5	GAVEL	627	n/a	n/a	0	0	0
1110.712	n/a	WORD	555356	wordpools/wasnorm_wordpool_576.txt	LTP287	ltpFR2	16	5	SPIDER	1351	n/a	n/a	0	0	0
1113.504	n/a	WORD	556752	wordpools/wasnorm_wordpool_576.txt	LTP287	ltpFR2	16	5	THREAD	1460	n/a	n/a	0	0	0
1116.05	n/a	WORD	558025	wordpools/wasnorm_wordpool_576.txt	LTP287	ltpFR2	16	5	EGYPT	519	n/a	n/a	0	0	0
1118.56	n/a	WORD	559280	wordpools/wasnorm_wordpool_576.txt	LTP287	ltpFR2	16	5	BADGE	68	n/a	n/a	0	0	0
1121.3	n/a	WORD	560650	wordpools/wasnorm_wordpool_576.txt	LTP287	ltpFR2	16	5	HERO	706	n/a	n/a	0	0	0
1124.048	n/a	WORD	562024	wordpools/wasnorm_wordpool_576.txt	LTP287	ltpFR2	16	5	MOTOR	922	n/a	n/a	0	0	0
1126.69	n/a	WORD	563345	wordpools/wasnorm_wordpool_576.txt	LTP287	ltpFR2	16	5	GLOVE	642	n/a	n/a	0	0	0
1129.418	n/a	WORD	564709	wordpools/wasnorm_wordpool_576.txt	LTP287	ltpFR2	16	5	HAND	683	n/a	n/a	0	0	0
1131.894	n/a	WORD	565947	wordpools/wasnorm_wordpool_576.txt	LTP287	ltpFR2	16	5	BLADE	134	n/a	n/a	0	0	0
1134.534	n/a	WORD	567267	wordpools/wasnorm_wordpool_576.txt	LTP287	ltpFR2	16	5	STREAM	1392	n/a	n/a	0	0	0
1137.348	n/a	WORD	568674	wordpools/wasnorm_wordpool_576.txt	LTP287	ltpFR2	16	5	PIGMENT	1066	n/a	n/a	0	0	0
1139.87	n/a	WORD	569935	wordpools/wasnorm_wordpool_576.txt	LTP287	ltpFR2	16	5	SPONGE	1355	n/a	n/a	0	0	0
1142.552	n/a	WORD	571276	wordpools/wasnorm_wordpool_576.txt	LTP287	ltpFR2	16	5	MARSH	874	n/a	n/a	0	0	0
1145.162	n/a	WORD	572581	wordpools/wasnorm_wordpool_576.txt	LTP287	ltpFR2	16	5	COCOON	339	n/a	n/a	0	0	0
1147.988	n/a	WORD	573994	wordpools/wasnorm_wordpool_576.txt	LTP287	ltpFR2	16	5	TART	1436	n/a	n/a	0	0	0
1150.448	n/a	WORD	575224	wordpools/wasnorm_wordpool_576.txt	LTP287	ltpFR2	16	5	SLIDE	1326	n/a	n/a	0	0	0
1153.204	n/a	WORD	576602	wordpools/wasnorm_wordpool_576.txt	LTP287	ltpFR2	16	5	DAISY	435	n/a	n/a	0	0	0
1155.734	n/a	WORD	577867	wordpools/wasnorm_wordpool_576.txt	LTP287	ltpFR2	16	5	HAMPER	682	n/a	n/a	0	0	0
1158.512	n/a	WORD	579256	wordpools/wasnorm_wordpool_576.txt	LTP287	ltpFR2	16	5	BOUQUET	157	n/a	n/a	0	0	0
1161.29	n/a	WORD	580645	wordpools/wasnorm_wordpool_576.txt	LTP287	ltpFR2	16	5	WASP	1593	n/a	n/a	0	0	0
1163.848	n/a	WORD	581924	wordpools/wasnorm_wordpool_576.txt	LTP287	ltpFR2	16	5	CLOTHES	327	n/a	n/a	0	0	0
1166.454	n/a	WORD	583227	wordpools/wasnorm_wordpool_576.txt	LTP287	ltpFR2	16	5	DRAWING	494	n/a	n/a	0	0	0
1168.066	n/a	START	584033	n/a	LTP287	ltpFR2	16	n/a	n/a	n/a	8	n/a	n/a	n/a	n/a
1169.064	n/a	DISTRACTOR	584532	n/a	LTP287	ltpFR2	16	5	n/a	n/a	n/a	n/a	0	0	0
1169.07	n/a	PROB	584535	n/a	LTP287	ltpFR2	16	n/a	n/a	n/a	8	13	5	7	1
1171.408	n/a	PROB	585704	n/a	LTP287	ltpFR2	16	n/a	n/a	n/a	8	15	8	2	5
1172.694	n/a	PROB	586347	n/a	LTP287	ltpFR2	16	n/a	n/a	n/a	8	12	9	1	2
1174.486	n/a	PROB	587243	n/a	LTP287	ltpFR2	16	n/a	n/a	n/a	8	10	3	1	6
1176.394	n/a	PROB	588197	n/a	LTP287	ltpFR2	16	n/a	n/a	n/a	8	9	4	1	4
1177.78	n/a	PROB	588890	n/a	LTP287	ltpFR2	16	n/a	n/a	n/a	8	17	8	4	5
1181.016	n/a	PROB	590508	n/a	LTP287	ltpFR2	16	n/a	n/a	n/a	8	9	3	5	1
1184.11	n/a	PROB	592055	n/a	LTP287	ltpFR2	16	n/a	n/a	n/a	8	13	4	8	1
1186.454	n/a	PROB	593227	n/a	LTP287	ltpFR2	16	n/a	n/a	n/a	8	16	7	8	1
1187.904	n/a	PROB	593952	n/a	LTP287	ltpFR2	16	n/a	n/a	n/a	8	18	8	5	5
1189.046	n/a	PROB	594523	n/a	LTP287	ltpFR2	16	n/a	n/a	n/a	8	3	1	1	1
1189.95	n/a	PROB	594975	n/a	LTP287	ltpFR2	16	n/a	n/a	n/a	8	18	8	1	9
1191.318	n/a	STOP	595659	n/a	LTP287	ltpFR2	16	n/a	n/a	n/a	8	n/a	n/a	n/a	n/a
1193.982	n/a	REC_START	596991	n/a	LTP287	ltpFR2	16	5	n/a	n/a	n/a	n/a	0	0	0
1195.048	n/a	REC_WORD	597524	wordpools/wasnorm_wordpool_576.txt	LTP287	ltpFR2	16	5	HAND	683	n/a	n/a	0	0	0
1195.892	n/a	REC_WORD	597946	wordpools/wasnorm_wordpool_576.txt	LTP287	ltpFR2	16	5	BLADE	134	n/a	n/a	0	0	0
1196.466	n/a	REC_WORD	598233	wordpools/wasnorm_wordpool_576.txt	LTP287	ltpFR2	16	5	HAMMER	680	n/a	n/a	0	0	0
1216.25	n/a	REC_WORD	608125	wordpools/wasnorm_wordpool_576.txt	LTP287	ltpFR2	16	5	GAVEL	627	n/a	n/a	0	0	0
1216.976	n/a	REC_WORD	608488	wordpools/wasnorm_wordpool_576.txt	LTP287	ltpFR2	16	5	STAMP	1370	n/a	n/a	0	0	0
1285.014	n/a	DISTRACTOR	642507	n/a	LTP287	ltpFR2	16	6	n/a	n/a	n/a	n/a	0	0	0
1285.014	n/a	START	642507	n/a	LTP287	ltpFR2	16	n/a	n/a	n/a	9	n/a	n/a	n/a	n/a
1285.08	n/a	PROB	642540	n/a	LTP287	ltpFR2	16	n/a	n/a	n/a	9	8	5	2	1
1286.564	n/a	PROB	643282	n/a	LTP287	ltpFR2	16	n/a	n/a	n/a	9	21	9	6	6
1288.326	n/a	PROB	644163	n/a	LTP287	ltpFR2	16	n/a	n/a	n/a	9	17	5	8	4
1290.3	n/a	PROB	645150	n/a	LTP287	ltpFR2	16	n/a	n/a	n/a	9	13	4	3	6
1292.486	n/a	PROB	646243	n/a	LTP287	ltpFR2	16	n/a	n/a	n/a	9	13	1	3	9
1294.628	n/a	PROB	647314	n/a	LTP287	ltpFR2	16	n/a	n/a	n/a	9	17	1	9	7
1295.736	n/a	PROB	647868	n/a	LTP287	ltpFR2	16	n/a	n/a	n/a	9	12	3	8	1
1297.44	n/a	PROB	648720	n/a	LTP287	ltpFR2	16	n/a	n/a	n/a	9	14	7	1	6
1299.552	n/a	PROB	649776	n/a	LTP287	ltpFR2	16	n/a	n/a	n/a	9	7	4	1	2
1301.974	n/a	PROB	650987	n/a	LTP287	ltpFR2	16	n/a	n/a	n/a	9	4	2	1	1
1303.078	n/a	PROB	651539	n/a	LTP287	ltpFR2	16	n/a	n/a	n/a	9	13	1	8	4
1305.454	n/a	PROB	652727	n/a	LTP287	ltpFR2	16	n/a	n/a	n/a	9	6	3	2	1
1309.012	n/a	STOP	654506	n/a	LTP287	ltpFR2	16	n/a	n/a	n/a	9	n/a	n/a	n/a	n/a
1310.008	n/a	WORD	655004	wordpools/wasnorm_wordpool_576.txt	LTP287	ltpFR2	16	6	GROUND	666	n/a	n/a	0	0	0
1312.83	n/a	WORD	656415	wordpools/wasnorm_wordpool_576.txt	LTP287	ltpFR2	16	6	ANTLER	29	n/a	n/a	0	0	0
1315.58	n/a	WORD	657790	wordpools/wasnorm_wordpool_576.txt	LTP287	ltpFR2	16	6	FRANCE	601	n/a	n/a	0	0	0
1318.168	n/a	WORD	659084	wordpools/wasnorm_wordpool_576.txt	LTP287	ltpFR2	16	6	SCARECROW	1245	n/a	n/a	0	0	0
1320.598	n/a	WORD	660299	wordpools/wasnorm_wordpool_576.txt	LTP287	ltpFR2	16	6	PIANO	1057	n/a	n/a	0	0	0
1323.226	n/a	WORD	661613	wordpools/wasnorm_wordpool_576.txt	LTP287	ltpFR2	16	6	TROMBONE	1508	n/a	n/a	0	0	0
1325.68	n/a	WORD	662840	wordpools/wasnorm_wordpool_576.txt	LTP287	ltpFR2	16	6	TRIBE	1505	n/a	n/a	0	0	0
1328.306	n/a	WORD	664153	wordpools/wasnorm_wordpool_576.txt	LTP287	ltpFR2	16	6	NOMAD	955	n/a	n/a	0	0	0
1330.938	n/a	WORD	665469	wordpools/wasnorm_wordpool_576.txt	LTP287	ltpFR2	16	6	BALLOON	75	n/a	n/a	0	0	0
1333.464	n/a	WORD	666732	wordpools/wasnorm_wordpool_576.txt	LTP287	ltpFR2	16	6	CRICKET	408	n/a	n/a	0	0	0
1336.204	n/a	WORD	668102	wordpools/wasnorm_wordpool_576.txt	LTP287	ltpFR2	16	6	OUTDOORS	987	n/a	n/a	0	0	0
1338.964	n/a	WORD	669482	wordpools/wasnorm_wordpool_576.txt	LTP287	ltpFR2	16	6	DUST	508	n/a	n/a	0	0	0
1341.596	n/a	WORD	670798	wordpools/wasnorm_wordpool_576.txt	LTP287	ltpFR2	16	6	FLESH	579	n/a	n/a	0	0	0
1344.072	n/a	WORD	672036	wordpools/wasnorm_wordpool_576.txt	LTP287	ltpFR2	16	6	CHIPMUNK	304	n/a	n/a	0	0	0
1346.498	n/a	WORD	673249	wordpools/wasnorm_wordpool_576.txt	LTP287	ltpFR2	16	6	REBEL	1172	n/a	n/a	0	0	0
1349.274	n/a	WORD	674637	wordpools/wasnorm_wordpool_576.txt	LTP287	ltpFR2	16	6	GLOBE	641	n/a	n/a	0	0	0
1352.002	n/a	WORD	676001	wordpools/wasnorm_wordpool_576.txt	LTP287	ltpFR2	16	6	TERMITE	1451	n/a	n/a	0	0	0
1354.53	n/a	WORD	677265	wordpools/wasnorm_wordpool_576.txt	LTP287	ltpFR2	16	6	PARTNER	1017	n/a	n/a	0	0	0
1357.29	n/a	WORD	678645	wordpools/wasnorm_wordpool_576.txt	LTP287	ltpFR2	16	6	SKETCH	1315	n/a	n/a	0	0	0
1359.744	n/a	WORD	679872	wordpools/wasnorm_wordpool_576.txt	LTP287	ltpFR2	16	6	STAPLE	1371	n/a	n/a	0	0	0
1362.376	n/a	WORD	681188	wordpools/wasnorm_wordpool_576.txt	LTP287	ltpFR2	16	6	PUPIL	1143	n/a	n/a	0	0	0
1364.866	n/a	WORD	682433	wordpools/wasnorm_wordpool_576.txt	LTP287	ltpFR2	16	6	CROSS	413	n/a	n/a	0	0	0
1367.524	n/a	WORD	683762	wordpools/wasnorm_wordpool_576.txt	LTP287	ltpFR2	16	6	JURY	766	n/a	n/a	0	0	0
1370.0	n/a	WORD	685000	wordpools/wasnorm_wordpool_576.txt	LTP287	ltpFR2	16	6	POET	1095	n/a	n/a	0	0	0
1371.61	n/a	START	685805	n/a	LTP287	ltpFR2	16	n/a	n/a	n/a	10	n/a	n/a	n/a	n/a
1372.654	n/a	DISTRACTOR	686327	n/a	LTP287	ltpFR2	16	6	n/a	n/a	n/a	n/a	0	0	0
1372.664	n/a	PROB	686332	n/a	LTP287	ltpFR2	16	n/a	n/a	n/a	10	15	7	1	7
1374.7	n/a	PROB	687350	n/a	LTP287	ltpFR2	16	n/a	n/a	n/a	10	21	8	8	5
1379.19	n/a	PROB	689595	n/a	LTP287	ltpFR2	16	n/a	n/a	n/a	10	24	8	9	7
1382.48	n/a	PROB	691240	n/a	LTP287	ltpFR2	16	n/a	n/a	n/a	10	20	9	7	4
1384.556	n/a	PROB	692278	n/a	LTP287	ltpFR2	16	n/a	n/a	n/a	10	20	8	5	7
1386.712	n/a	PROB	693356	n/a	LTP287	ltpFR2	16	n/a	n/a	n/a	10	18	3	7	8
1388.34	n/a	PROB	694170	n/a	LTP287	ltpFR2	16	n/a	n/a	n/a	10	14	2	3	9
1389.708	n/a	PROB	694854	n/a	LTP287	ltpFR2	16	n/a	n/a	n/a	10	13	1	9	3
1390.778	n/a	PROB	695389	n/a	LTP287	ltpFR2	16	n/a	n/a	n/a	10	10	6	3	1
1392.052	n/a	PROB	696026	n/a	LTP287	ltpFR2	16	n/a	n/a	n/a	10	13	7	3	3
1393.272	n/a	PROB	696636	n/a	LTP287	ltpFR2	16	n/a	n/a	n/a	10	18	6	9	3
1394.728	n/a	STOP	697364	n/a	LTP287	ltpFR2	16	n/a	n/a	n/a	10	n/a	n/a	n/a	n/a
1397.406	n/a	REC_START	698703	n/a	LTP287	ltpFR2	16	6	n/a	n/a	n/a	n/a	0	0	0
1398.482	n/a	REC_WORD	699241	wordpools/wasnorm_wordpool_576.txt	LTP287	ltpFR2	16	6	GLOBE	641	n/a	n/a	0	0	0
1399.26	n/a	REC_WORD	699630	wordpools/wasnorm_wordpool_576.txt	LTP287	ltpFR2	16	6	TERMITE	1451	n/a	n/a	0	0	0
1399.95	n/a	REC_WORD	699975	wordpools/wasnorm_wordpool_576.txt	LTP287	ltpFR2	16	6	PARTNER	1017	n/a	n/a	0	0	0
1413.442	n/a	REC_WORD	706721	wordpools/wasnorm_wordpool_576.txt	LTP287	ltpFR2	16	6	GROUND	666	n/a	n/a	0	0	0
1414.058	n/a	REC_WORD	707029	wordpools/wasnorm_wordpool_576.txt	LTP287	ltpFR2	16	6	ANTLER	29	n/a	n/a	0	0	0
1414.472	n/a	REC_WORD	707236	wordpools/wasnorm_wordpool_576.txt	LTP287	ltpFR2	16	6	FRANCE	601	n/a	n/a	0	0	0
1488.44	n/a	DISTRACTOR	744220	n/a	LTP287	ltpFR2	16	7	n/a	n/a	n/a	n/a	0	0	0
1488.44	n/a	START	744220	n/a	LTP287	ltpFR2	16	n/a	n/a	n/a	11	n/a	n/a	n/a	n/a
1488.49	n/a	PROB	744245	n/a	LTP287	ltpFR2	16	n/a	n/a	n/a	11	9	3	4	2
1491.03	n/a	PROB	745515	n/a	LTP287	ltpFR2	16	n/a	n/a	n/a	11	17	8	1	8
1493.008	n/a	PROB	746504	n/a	LTP287	ltpFR2	16	n/a	n/a	n/a	11	20	4	7	9
1495.066	n/a	PROB	747533	n/a	LTP287	ltpFR2	16	n/a	n/a	n/a	11	13	5	4	4
1496.488	n/a	PROB	748244	n/a	LTP287	ltpFR2	16	n/a	n/a	n/a	11	17	4	8	5
1499.042	n/a	PROB	749521	n/a	LTP287	ltpFR2	16	n/a	n/a	n/a	11	23	5	8	8
1500.848	n/a	PROB	750424	n/a	LTP287	ltpFR2	16	n/a	n/a	n/a	11	13	7	5	1
1503.778	n/a	PROB	751889	n/a	LTP287	ltpFR2	16	n/a	n/a	n/a	11	17	3	5	9
1505.768	n/a	PROB	752884	n/a	LTP287	ltpFR2	16	n/a	n/a	n/a	11	18	6	8	4
1507.108	n/a	PROB	753554	n/a	LTP287	ltpFR2	16	n/a	n/a	n/a	11	14	4	4	6
1508.6	n/a	PROB	754300	n/a	LTP287	ltpFR2	16	n/a	n/a	n/a	11	18	6	8	4
1510.118	n/a	PROB	755059	n/a	LTP287	ltpFR2	16	n/a	n/a	n/a	11	5	1	3	1
1511.08	n/a	STOP	755540	n/a	LTP287	ltpFR2	16	n/a	n/a	n/a	11	n/a	n/a	n/a	n/a
1513.586	n/a	WORD	756793	wordpools/wasnorm_wordpool_576.txt	LTP287	ltpFR2	16	7	TAXI	1438	n/a	n/a	0	0	0
1516.346	n/a	WORD	758173	wordpools/wasnorm_wordpool_576.txt	LTP287	ltpFR2	16	7	PERMIT	1051	n/a	n/a	0	0	0
1519.14	n/a	WORD	759570	wordpools/wasnorm_wordpool_576.txt	LTP287	ltpFR2	16	7	CLOUD	328	n/a	n/a	0	0	0
1521.864	n/a	WORD	760932	wordpools/wasnorm_wordpool_576.txt	LTP287	ltpFR2	16	7	OZONE	996	n/a	n/a	0	0	0
1524.478	n/a	WORD	762239	wordpools/wasnorm_wordpool_576.txt	LTP287	ltpFR2	16	7	DRUG	501	n/a	n/a	0	0	0
1527.122	n/a	WORD	763561	wordpools/wasnorm_wordpool_576.txt	LTP287	ltpFR2	16	7	STAKE	1368	n/a	n/a	0	0	0
1529.864	n/a	WORD	764932	wordpools/wasnorm_wordpool_576.txt	LTP287	ltpFR2	16	7	SURVEY	1414	n/a	n/a	0	0	0
1532.454	n/a	WORD	766227	wordpools/wasnorm_wordpool_576.txt	LTP287	ltpFR2	16	7	SUBWAY	1400	n/a	n/a	0	0	0
1535.236	n/a	WORD	767618	wordpools/wasnorm_wordpool_576.txt	LTP287	ltpFR2	16	7	COUSIN	392	n/a	n/a	0	0	0
1537.98	n/a	WORD	768990	wordpools/wasnorm_wordpool_576.txt	LTP287	ltpFR2	16	7	FRAGRANCE	599	n/a	n/a	0	0	0
1540.406	n/a	WORD	770203	wordpools/wasnorm_wordpool_576.txt	LTP287	ltpFR2	16	7	PRINCE	1124	n/a	n/a	0	0	0
1542.95	n/a	WORD	771475	wordpools/wasnorm_wordpool_576.txt	LTP287	ltpFR2	16	7	DASHBOARD	441	n/a	n/a	0	0	0
1545.77	n/a	WORD	772885	wordpools/wasnorm_wordpool_576.txt	LTP287	ltpFR2	16	7	CREVICE	405	n/a	n/a	0	0	0
1548.436	n/a	WORD	774218	wordpools/wasnorm_wordpool_576.txt	LTP287	ltpFR2	16	7	SHERIFF	1284	n/a	n/a	0	0	0
1551.008	n/a	WORD	775504	wordpools/wasnorm_wordpool_576.txt	LTP287	ltpFR2	16	7	VALVE	1546	n/a	n/a	0	0	0
1553.706	n/a	WORD	776853	wordpools/wasnorm_wordpool_576.txt	LTP287	ltpFR2	16	7	MARKER	870	n/a	n/a	0	0	0
1556.148	n/a	WORD	778074	wordpools/wasnorm_wordpool_576.txt	LTP287	ltpFR2	16	7	SKIRT	1319	n/a	n/a	0	0	0
1558.576	n/a	WORD	779288	wordpools/wasnorm_wordpool_576.txt	LTP287	ltpFR2	16	7	BROOK	177	n/a	n/a	0	0	0
1561.232	n/a	WORD	780616	wordpools/wasnorm_wordpool_576.txt	LTP287	ltpFR2	16	7	ISLAND	745	n/a	n/a	0	0	0
1563.878	n/a	WORD	781939	wordpools/wasnorm_wordpool_576.txt	LTP287	ltpFR2	16	7	KEEPER	769	n/a	n/a	0	0	0
1566.388	n/a	WORD	783194	wordpools/wasnorm_wordpool_576.txt	LTP287	ltpFR2	16	7	LUMBER	848	n/a	n/a	0	0	0
1568.944	n/a	WORD	784472	wordpools/wasnorm_wordpool_576.txt	LTP287	ltpFR2	16	7	LILY	821	n/a	n/a	0	0	0
1571.658	n/a	WORD	785829	wordpools/wasnorm_wordpool_576.txt	LTP287	ltpFR2	16	7	ATLAS	53	n/a	n/a	0	0	0
1574.336	n/a	WORD	787168	wordpools/wasnorm_wordpool_576.txt	LTP287	ltpFR2	16	7	WORLD	1622	n/a	n/a	0	0	0
1575.954	n/a	START	787977	n/a	LTP287	ltpFR2	16	n/a	n/a	n/a	12	n/a	n/a	n/a	n/a
1576.81	n/a	DISTRACTOR	788405	n/a	LTP287	ltpFR2	16	7	n/a	n/a	n/a	n/a	0	0	0
1576.828	n/a	PROB	788414	n/a	LTP287	ltpFR2	16	n/a	n/a	n/a	12	11	2	2	7
1581.96	n/a	PROB	790980	n/a	LTP287	ltpFR2	16	n/a	n/a	n/a	12	12	2	9	1
1583.336	n/a	PROB	791668	n/a	LTP287	ltpFR2	16	n/a	n/a	n/a	12	6	4	1	1
1584.536	n/a	PROB	792268	n/a	LTP287	ltpFR2	16	n/a	n/a	n/a	12	12	6	3	3
1585.992	n/a	PROB	792996	n/a	LTP287	ltpFR2	16	n/a	n/a	n/a	12	11	3	2	6
1587.498	n/a	PROB	793749	n/a	LTP287	ltpFR2	16	n/a	n/a	n/a	12	20	9	2	9
1589.922	n/a	PROB	794961	n/a	LTP287	ltpFR2	16	n/a	n/a	n/a	12	22	9	7	6
1595.178	n/a	PROB	797589	n/a	LTP287	ltpFR2	16	n/a	n/a	n/a	12	17	8	4	5
1597.47	n/a	PROB	798735	n/a	LTP287	ltpFR2	16	n/a	n/a	n/a	12	8	2	4	2
1598.964	n/a	STOP	799482	n/a	LTP287	ltpFR2	16	n/a	n/a	n/a	12	n/a	n/a	n/a	n/a
1601.836	n/a	REC_START	800918	n/a	LTP287	ltpFR2	16	7	n/a	n/a	n/a	n/a	0	0	0
1602.48	n/a	REC_WORD	801240	wordpools/wasnorm_wordpool_576.txt	LTP287	ltpFR2	16	7	BROOK	177	n/a	n/a	0	0	0
1621.654	n/a	REC_WORD	810827	wordpools/wasnorm_wordpool_576.txt	LTP287	ltpFR2	16	7	ISLAND	745	n/a	n/a	0	0	0
1692.956	n/a	WORD	846478	wordpools/wasnorm_wordpool_576.txt	LTP287	ltpFR2	16	8	PATROL	1027	n/a	n/a	0	0	0
1695.748	n/a	WORD	847874	wordpools/wasnorm_wordpool_576.txt	LTP287	ltpFR2	16	8	LEG	809	n/a	n/a	0	0	0
1698.36	n/a	WORD	849180	wordpools/wasnorm_wordpool_576.txt	LTP287	ltpFR2	16	8	PLAID	1080	n/a	n/a	0	0	0
1701.116	n/a	WORD	850558	wordpools/wasnorm_wordpool_576.txt	LTP287	ltpFR2	16	8	DRESS	495	n/a	n/a	0	0	0
1703.562	n/a	WORD	851781	wordpools/wasnorm_wordpool_576.txt	LTP287	ltpFR2	16	8	SCULPTURE	1258	n/a	n/a	0	0	0
1706.29	n/a	WORD	853145	wordpools/wasnorm_wordpool_576.txt	LTP287	ltpFR2	16	8	GARBAGE	622	n/a	n/a	0	0	0
1709.08	n/a	WORD	854540	wordpools/wasnorm_wordpool_576.txt	LTP287	ltpFR2	16	8	LAVA	804	n/a	n/a	0	0	0
1711.76	n/a	WORD	855880	wordpools/wasnorm_wordpool_576.txt	LTP287	ltpFR2	16	8	POLICE	1098	n/a	n/a	0	0	0
1714.516	n/a	WORD	857258	wordpools/wasnorm_wordpool_576.txt	LTP287	ltpFR2	16	8	SNAIL	1332	n/a	n/a	0	0	0
1717.31	n/a	WORD	858655	wordpools/wasnorm_wordpool_576.txt	LTP287	ltpFR2	16	8	HOOK	715	n/a	n/a	0	0	0
1720.008	n/a	WORD	860004	wordpools/wasnorm_wordpool_576.txt	LTP287	ltpFR2	16	8	MATCH	878	n/a	n/a	0	0	0
1722.734	n/a	WORD	861367	wordpools/wasnorm_wordpool_576.txt	LTP287	ltpFR2	16	8	SWORD	1423	n/a	n/a	0	0	0
1725.274	n/a	WORD	862637	wordpools/wasnorm_wordpool_576.txt	LTP287	ltpFR2	16	8	STICKER	1382	n/a	n/a	0	0	0
1728.002	n/a	WORD	864001	wordpools/wasnorm_wordpool_576.txt	LTP287	ltpFR2	16	8	PUDDLE	1140	n/a	n/a	0	0	0
1730.812	n/a	WORD	865406	wordpools/wasnorm_wordpool_576.txt	LTP287	ltpFR2	16	8	GARDEN	623	n/a	n/a	0	0	0
1733.56	n/a	WORD	866780	wordpools/wasnorm_wordpool_576.txt	LTP287	ltpFR2	16	8	BLOCKADE	137	n/a	n/a	0	0	0
1736.266	n/a	WORD	868133	wordpools/wasnorm_wordpool_576.txt	LTP287	ltpFR2	16	8	TURNIP	1521	n/a	n/a	0	0	0
1739.032	n/a	WORD	869516	wordpools/wasnorm_wordpool_576.txt	LTP287	ltpFR2	16	8	SLIME	1327	n/a	n/a	0	0	0
1741.508	n/a	WORD	870754	wordpools/wasnorm_wordpool_576.txt	LTP287	ltpFR2	16	8	SHORTS	1293	n/a	n/a	0	0	0
1744.118	n/a	WORD	872059	wordpools/wasnorm_wordpool_576.txt	LTP287	ltpFR2	16	8	COSTUME	383	n/a	n/a	0	0	0
1746.828	n/a	WORD	873414	wordpools/wasnorm_wordpool_576.txt	LTP287	ltpFR2	16	8	CABIN	211	n/a	n/a	0	0	0
1749.468	n/a	WORD	874734	wordpools/wasnorm_wordpool_576.txt	LTP287	ltpFR2	16	8	PEDAL	1037	n/a	n/a	0	0	0
1752.232	n/a	WORD	876116	wordpools/wasnorm_wordpool_576.txt	LTP287	ltpFR2	16	8	RAZOR	1171	n/a	n/a	0	0	0
1755.042	n/a	WORD	877521	wordpools/wasnorm_wordpool_576.txt	LTP287	ltpFR2	16	8	SWITCH	1422	n/a	n/a	0	0	0
1756.648	n/a	START	878324	n/a	LTP287	ltpFR2	16	n/a	n/a	n/a	13	n/a	n/a	n/a	n/a
1757.57	n/a	DISTRACTOR	878785	n/a	LTP287	ltpFR2	16	8	n/a	n/a	n/a	n/a	0	0	0
1757.586	n/a	PROB	878793	n/a	LTP287	ltpFR2	16	n/a	n/a	n/a	13	8	2	5	1
1759.376	n/a	PROB	879688	n/a	LTP287	ltpFR2	16	n/a	n/a	n/a	13	17	7	5	5
1760.708	n/a	PROB	880354	n/a	LTP287	ltpFR2	16	n/a	n/a	n/a	13	11	9	1	1
1761.884	n/a	PROB	880942	n/a	LTP287	ltpFR2	16	n/a	n/a	n/a	13	11	4	5	2
1767.336	n/a	PROB	883668	n/a	LTP287	ltpFR2	16	n/a	n/a	n/a	13	10	2	2	6
1768.44	n/a	PROB	884220	n/a	LTP287	ltpFR2	16	n/a	n/a	n/a	13	14	8	5	1
1770.096	n/a	PROB	885048	n/a	LTP287	ltpFR2	16	n/a	n/a	n/a	13	12	2	7	3
1773.826	n/a	PROB	886913	n/a	LTP287	ltpFR2	16	n/a	n/a	n/a	13	9	3	1	5
1775.616	n/a	PROB	887808	n/a	LTP287	ltpFR2	16	n/a	n/a	n/a	13	20	9	3	8
1777.656	n/a	PROB	888828	n/a	LTP287	ltpFR2	16	n/a	n/a	n/a	13	7	4	2	1
1779.606	n/a	STOP	889803	n/a	LTP287	ltpFR2	16	n/a	n/a	n/a	13	n/a	n/a	n/a	n/a
1782.544	n/a	REC_START	891272	n/a	LTP287	ltpFR2	16	8	n/a	n/a	n/a	n/a	0	0	0
1783.366	n/a	REC_WORD	891683	wordpools/wasnorm_wordpool_576.txt	LTP287	ltpFR2	16	8	LEG	809	n/a	n/a	0	0	0
1806.926	n/a	REC_WORD	903463	wordpools/wasnorm_wordpool_576.txt	LTP287	ltpFR2	16	8	PLAID	1080	n/a	n/a	0	0	0
1809.266	n/a	REC_WORD	904633	wordpools/wasnorm_wordpool_576.txt	LTP287	ltpFR2	16	8	DRESS	495	n/a	n/a	0	0	0
1812.12	n/a	REC_WORD	906060	wordpools/wasnorm_wordpool_576.txt	LTP287	ltpFR2	16	8	SHORTS	1293	n/a	n/a	0	0	0
1859.338	n/a	REST_REWET	929669	n/a	LTP287	ltpFR2	16	8	n/a	n/a	n/a	n/a	0	0	0
2153.968	n/a	WORD	1076984	wordpools/wasnorm_wordpool_576.txt	LTP287	ltpFR2	16	9	CHURCH	307	n/a	n/a	0	0	0
2156.762	n/a	WORD	1078381	wordpools/wasnorm_wordpool_576.txt	LTP287	ltpFR2	16	9	TEMPLE	1448	n/a	n/a	0	0	0
2159.238	n/a	WORD	1079619	wordpools/wasnorm_wordpool_576.txt	LTP287	ltpFR2	16	9	CANAL	226	n/a	n/a	0	0	0
2162.032	n/a	WORD	1081016	wordpools/wasnorm_wordpool_576.txt	LTP287	ltpFR2	16	9	SEAL	1262	n/a	n/a	0	0	0
2164.774	n/a	WORD	1082387	wordpools/wasnorm_wordpool_576.txt	LTP287	ltpFR2	16	9	BUCKET	184	n/a	n/a	0	0	0
2167.436	n/a	WORD	1083718	wordpools/wasnorm_wordpool_576.txt	LTP287	ltpFR2	16	9	YACHT	1629	n/a	n/a	0	0	0
2170.108	n/a	WORD	1085054	wordpools/wasnorm_wordpool_576.txt	LTP287	ltpFR2	16	9	SPOOL	1356	n/a	n/a	0	0	0
2172.922	n/a	WORD	1086461	wordpools/wasnorm_wordpool_576.txt	LTP287	ltpFR2	16	9	MISTER	901	n/a	n/a	0	0	0
2175.584	n/a	WORD	1087792	wordpools/wasnorm_wordpool_576.txt	LTP287	ltpFR2	16	9	ASIA	46	n/a	n/a	0	0	0
2178.094	n/a	WORD	1089047	wordpools/wasnorm_wordpool_576.txt	LTP287	ltpFR2	16	9	LONDON	843	n/a	n/a	0	0	0
2180.752	n/a	WORD	1090376	wordpools/wasnorm_wordpool_576.txt	LTP287	ltpFR2	16	9	SOFTBALL	1343	n/a	n/a	0	0	0
2183.246	n/a	WORD	1091623	wordpools/wasnorm_wordpool_576.txt	LTP287	ltpFR2	16	9	ROBBER	1197	n/a	n/a	0	0	0
2185.722	n/a	WORD	1092861	wordpools/wasnorm_wordpool_576.txt	LTP287	ltpFR2	16	9	SERVANT	1271	n/a	n/a	0	0	0
2188.45	n/a	WORD	1094225	wordpools/wasnorm_wordpool_576.txt	LTP287	ltpFR2	16	9	FLASK	576	n/a	n/a	0	0	0
2190.908	n/a	WORD	1095454	wordpools/wasnorm_wordpool_576.txt	LTP287	ltpFR2	16	9	FRECKLE	602	n/a	n/a	0	0	0
2193.47	n/a	WORD	1096735	wordpools/wasnorm_wordpool_576.txt	LTP287	ltpFR2	16	9	UMPIRE	1535	n/a	n/a	0	0	0
2196.108	n/a	WORD	1098054	wordpools/wasnorm_wordpool_576.txt	LTP287	ltpFR2	16	9	DENIM	446	n/a	n/a	0	0	0
2198.65	n/a	WORD	1099325	wordpools/wasnorm_wordpool_576.txt	LTP287	ltpFR2	16	9	SERVER	1272	n/a	n/a	0	0	0
2201.416	n/a	WORD	1100708	wordpools/wasnorm_wordpool_576.txt	LTP287	ltpFR2	16	9	HOUND	724	n/a	n/a	0	0	0
2203.924	n/a	WORD	1101962	wordpools/wasnorm_wordpool_576.txt	LTP287	ltpFR2	16	9	BARREL	91	n/a	n/a	0	0	0
2206.364	n/a	WORD	1103182	wordpools/wasnorm_wordpool_576.txt	LTP287	ltpFR2	16	9	LAKE	796	n/a	n/a	0	0	0
2208.826	n/a	WORD	1104413	wordpools/wasnorm_wordpool_576.txt	LTP287	ltpFR2	16	9	FOREHEAD	592	n/a	n/a	0	0	0
2211.554	n/a	WORD	1105777	wordpools/wasnorm_wordpool_576.txt	LTP287	ltpFR2	16	9	RIVER	1194	n/a	n/a	0	0	0
2214.114	n/a	WORD	1107057	wordpools/wasnorm_wordpool_576.txt	LTP287	ltpFR2	16	9	DRINK	498	n/a	n/a	0	0	0
2215.732	n/a	START	1107866	n/a	LTP287	ltpFR2	16	n/a	n/a	n/a	14	n/a	n/a	n/a	n/a
2216.542	n/a	DISTRACTOR	1108271	n/a	LTP287	ltpFR2	16	9	n/a	n/a	n/a	n/a	0	0	0
2216.558	n/a	PROB	1108279	n/a	LTP287	ltpFR2	16	n/a	n/a	n/a	14	17	3	5	9
2218.832	n/a	PROB	1109416	n/a	LTP287	ltpFR2	16	n/a	n/a	n/a	14	25	7	9	9
2221.154	n/a	PROB	1110577	n/a	LTP287	ltpFR2	16	n/a	n/a	n/a	14	20	3	8	9
2223.21	n/a	PROB	1111605	n/a	LTP287	ltpFR2	16	n/a	n/a	n/a	14	12	6	5	1
2224.716	n/a	PROB	1112358	n/a	LTP287	ltpFR2	16	n/a	n/a	n/a	14	17	8	2	7
2225.904	n/a	PROB	1112952	n/a	LTP287	ltpFR2	16	n/a	n/a	n/a	14	18	3	8	7
2227.464	n/a	PROB	1113732	n/a	LTP287	ltpFR2	16	n/a	n/a	n/a	14	12	1	7	4
2229.368	n/a	PROB	1114684	n/a	LTP287	ltpFR2	16	n/a	n/a	n/a	14	19	5	7	7
2230.992	n/a	PROB	1115496	n/a	LTP287	ltpFR2	16	n/a	n/a	n/a	14	19	7	7	5
2233.25	n/a	PROB	1116625	n/a	LTP287	ltpFR2	16	n/a	n/a	n/a	14	16	7	5	4
2235.508	n/a	PROB	1117754	n/a	LTP287	ltpFR2	16	n/a	n/a	n/a	14	15	5	3	7
2237.588	n/a	PROB	1118794	n/a	LTP287	ltpFR2	16	n/a	n/a	n/a	14	8	1	3	4
2239.31	n/a	STOP	1119655	n/a	LTP287	ltpFR2	16	n/a	n/a	n/a	14	n/a	n/a	n/a	n/a
2241.52	n/a	REC_START	1120760	n/a	LTP287	ltpFR2	16	9	n/a	n/a	n/a	n/a	0	0	0
2243.204	n/a	REC_WORD	1121602	wordpools/wasnorm_wordpool_576.txt	LTP287	ltpFR2	16	9	CHURCH	307	n/a	n/a	0	0	0
2244.428	n/a	REC_WORD	1122214	wordpools/wasnorm_wordpool_576.txt	LTP287	ltpFR2	16	9	TEMPLE	1448	n/a	n/a	0	0	0
2256.704	n/a	REC_WORD_VV	1128352	wordpools/wasnorm_wordpool_576.txt	LTP287	ltpFR2	16	9	<>	-1	n/a	n/a	0	0	0
2258.194	n/a	REC_WORD	1129097	wordpools/wasnorm_wordpool_576.txt	LTP287	ltpFR2	16	9	FLASK	576	n/a	n/a	0	0	0
2258.924	n/a	REC_WORD	1129462	wordpools/wasnorm_wordpool_576.txt	LTP287	ltpFR2	16	9	FRECKLE	602	n/a	n/a	0	0	0
2332.566	n/a	WORD	1166283	wordpools/wasnorm_wordpool_576.txt	LTP287	ltpFR2	16	10	GAZELLE	628	n/a	n/a	0	0	0
2335.176	n/a	WORD	1167588	wordpools/wasnorm_wordpool_576.txt	LTP287	ltpFR2	16	10	SCOTCH	1251	n/a	n/a	0	0	0
2337.614	n/a	WORD	1168807	wordpools/wasnorm_wordpool_576.txt	LTP287	ltpFR2	16	10	ICING	732	n/a	n/a	0	0	0
2340.114	n/a	WORD	1170057	wordpools/wasnorm_wordpool_576.txt	LTP287	ltpFR2	16	10	KLEENEX	782	n/a	n/a	0	0	0
2342.756	n/a	WORD	1171378	wordpools/wasnorm_wordpool_576.txt	LTP287	ltpFR2	16	10	LIPSTICK	829	n/a	n/a	0	0	0
2345.562	n/a	WORD	1172781	wordpools/wasnorm_wordpool_576.txt	LTP287	ltpFR2	16	10	BUBBLE	183	n/a	n/a	0	0	0
2348.344	n/a	WORD	1174172	wordpools/wasnorm_wordpool_576.txt	LTP287	ltpFR2	16	10	SWIMMER	1420	n/a	n/a	0	0	0
2351.054	n/a	WORD	1175527	wordpools/wasnorm_wordpool_576.txt	LTP287	ltpFR2	16	10	MARKET	871	n/a	n/a	0	0	0
2353.864	n/a	WORD	1176932	wordpools/wasnorm_wordpool_576.txt	LTP287	ltpFR2	16	10	CRATER	400	n/a	n/a	0	0	0
2356.642	n/a	WORD	1178321	wordpools/wasnorm_wordpool_576.txt	LTP287	ltpFR2	16	10	JEANS	752	n/a	n/a	0	0	0
2359.236	n/a	WORD	1179618	wordpools/wasnorm_wordpool_576.txt	LTP287	ltpFR2	16	10	NAPKIN	937	n/a	n/a	0	0	0
2361.896	n/a	WORD	1180948	wordpools/wasnorm_wordpool_576.txt	LTP287	ltpFR2	16	10	KETCHUP	771	n/a	n/a	0	0	0
2364.706	n/a	WORD	1182353	wordpools/wasnorm_wordpool_576.txt	LTP287	ltpFR2	16	10	BLOUSE	139	n/a	n/a	0	0	0
2367.216	n/a	WORD	1183608	wordpools/wasnorm_wordpool_576.txt	LTP287	ltpFR2	16	10	EYELASH	546	n/a	n/a	0	0	0
2369.908	n/a	WORD	1184954	wordpools/wasnorm_wordpool_576.txt	LTP287	ltpFR2	16	10	LADY	794	n/a	n/a	0	0	0
2372.664	n/a	WORD	1186332	wordpools/wasnorm_wordpool_576.txt	LTP287	ltpFR2	16	10	PENGUIN	1044	n/a	n/a	0	0	0
2375.096	n/a	WORD	1187548	wordpools/wasnorm_wordpool_576.txt	LTP287	ltpFR2	16	10	HAWK	692	n/a	n/a	0	0	0
2377.906	n/a	WORD	1188953	wordpools/wasnorm_wordpool_576.txt	LTP287	ltpFR2	16	10	COCKTAIL	338	n/a	n/a	0	0	0
2380.614	n/a	WORD	1190307	wordpools/wasnorm_wordpool_576.txt	LTP287	ltpFR2	16	10	BANJO	82	n/a	n/a	0	0	0
2383.21	n/a	WORD	1191605	wordpools/wasnorm_wordpool_576.txt	LTP287	ltpFR2	16	10	RECORD	1176	n/a	n/a	0	0	0
2385.87	n/a	WORD	1192935	wordpools/wasnorm_wordpool_576.txt	LTP287	ltpFR2	16	10	PRINCESS	1125	n/a	n/a	0	0	0
2388.614	n/a	WORD	1194307	wordpools/wasnorm_wordpool_576.txt	LTP287	ltpFR2	16	10	UNCLE	1536	n/a	n/a	0	0	0
2391.324	n/a	WORD	1195662	wordpools/wasnorm_wordpool_576.txt	LTP287	ltpFR2	16	10	TUTU	1524	n/a	n/a	0	0	0
2394.114	n/a	WORD	1197057	wordpools/wasnorm_wordpool_576.txt	LTP287	ltpFR2	16	10	COUNTRY	388	n/a	n/a	0	0	0
2395.724	n/a	START	1197862	n/a	LTP287	ltpFR2	16	n/a	n/a	n/a	15	n/a	n/a	n/a	n/a
2396.902	n/a	DISTRACTOR	1198451	n/a	LTP287	ltpFR2	16	10	n/a	n/a	n/a	n/a	0	0	0
2396.912	n/a	PROB	1198456	n/a	LTP287	ltpFR2	16	n/a	n/a	n/a	15	18	6	3	9
2398.984	n/a	PROB	1199492	n/a	LTP287	ltpFR2	16	n/a	n/a	n/a	15	16	5	2	9
2402.05	n/a	PROB	1201025	n/a	LTP287	ltpFR2	16	n/a	n/a	n/a	15	12	3	8	1
2403.6	n/a	PROB	1201800	n/a	LTP287	ltpFR2	16	n/a	n/a	n/a	15	20	9	4	7
2405.508	n/a	PROB	1202754	n/a	LTP287	ltpFR2	16	n/a	n/a	n/a	15	23	7	9	7
2407.364	n/a	PROB	1203682	n/a	LTP287	ltpFR2	16	n/a	n/a	n/a	15	10	5	1	4
2408.636	n/a	PROB	1204318	n/a	LTP287	ltpFR2	16	n/a	n/a	n/a	15	13	2	8	3
2409.996	n/a	PROB	1204998	n/a	LTP287	ltpFR2	16	n/a	n/a	n/a	15	13	2	9	2
2411.73	n/a	PROB	1205865	n/a	LTP287	ltpFR2	16	n/a	n/a	n/a	15	14	9	6	9
2413.606	n/a	PROB	1206803	n/a	LTP287	ltpFR2	16	n/a	n/a	n/a	15	24	9	9	6
2416.556	n/a	PROB	1208278	n/a	LTP287	ltpFR2	16	n/a	n/a	n/a	15	9	1	1	7
2419.726	n/a	STOP	1209863	n/a	LTP287	ltpFR2	16	n/a	n/a	n/a	15	n/a	n/a	n/a	n/a
2421.57	n/a	REC_START	1210785	n/a	LTP287	ltpFR2	16	10	n/a	n/a	n/a	n/a	0	0	0
2440.62	n/a	REC_WORD	1220310	wordpools/wasnorm_wordpool_576.txt	LTP287	ltpFR2	16	10	PENGUIN	1044	n/a	n/a	0	0	0
2441.54	n/a	REC_WORD	1220770	wordpools/wasnorm_wordpool_576.txt	LTP287	ltpFR2	16	10	EYELASH	546	n/a	n/a	0	0	0
2444.408	n/a	REC_WORD	1222204	wordpools/wasnorm_wordpool_576.txt	LTP287	ltpFR2	16	10	KETCHUP	771	n/a	n/a	0	0	0
2445.266	n/a	REC_WORD	1222633	wordpools/wasnorm_wordpool_576.txt	LTP287	ltpFR2	16	10	NAPKIN	937	n/a	n/a	0	0	0
2451.998	n/a	REC_WORD_VV	1225999	wordpools/wasnorm_wordpool_576.txt	LTP287	ltpFR2	16	10	<>	-1	n/a	n/a	0	0	0
2454.394	n/a	REC_WORD_VV	1227197	wordpools/wasnorm_wordpool_576.txt	LTP287	ltpFR2	16	10	<>	-1	n/a	n/a	0	0	0
2462.922	n/a	REC_WORD_VV	1231461	wordpools/wasnorm_wordpool_576.txt	LTP287	ltpFR2	16	10	<>	-1	n/a	n/a	0	0	0
2642.468	n/a	WORD	1321234	wordpools/wasnorm_wordpool_576.txt	LTP287	ltpFR2	16	11	SISTER	1312	n/a	n/a	0	0	0
2644.96	n/a	WORD	1322480	wordpools/wasnorm_wordpool_576.txt	LTP287	ltpFR2	16	11	WAITER	1580	n/a	n/a	0	0	0
2647.67	n/a	WORD	1323835	wordpools/wasnorm_wordpool_576.txt	LTP287	ltpFR2	16	11	BUTCHER	203	n/a	n/a	0	0	0
2650.398	n/a	WORD	1325199	wordpools/wasnorm_wordpool_576.txt	LTP287	ltpFR2	16	11	MESSAGE	888	n/a	n/a	0	0	0
2653.008	n/a	WORD	1326504	wordpools/wasnorm_wordpool_576.txt	LTP287	ltpFR2	16	11	CANYON	235	n/a	n/a	0	0	0
2655.734	n/a	WORD	1327867	wordpools/wasnorm_wordpool_576.txt	LTP287	ltpFR2	16	11	SLOPE	1328	n/a	n/a	0	0	0
2658.308	n/a	WORD	1329154	wordpools/wasnorm_wordpool_576.txt	LTP287	ltpFR2	16	11	TURKEY	1520	n/a	n/a	0	0	0
2660.854	n/a	WORD	1330427	wordpools/wasnorm_wordpool_576.txt	LTP287	ltpFR2	16	11	LODGE	839	n/a	n/a	0	0	0
2663.326	n/a	WORD	1331663	wordpools/wasnorm_wordpool_576.txt	LTP287	ltpFR2	16	11	FIREPLACE	570	n/a	n/a	0	0	0
2666.12	n/a	WORD	1333060	wordpools/wasnorm_wordpool_576.txt	LTP287	ltpFR2	16	11	FLAG	573	n/a	n/a	0	0	0
2668.7	n/a	WORD	1334350	wordpools/wasnorm_wordpool_576.txt	LTP287	ltpFR2	16	11	SNACK	1331	n/a	n/a	0	0	0
2671.428	n/a	WORD	1335714	wordpools/wasnorm_wordpool_576.txt	LTP287	ltpFR2	16	11	VAGRANT	1544	n/a	n/a	0	0	0
2674.006	n/a	WORD	1337003	wordpools/wasnorm_wordpool_576.txt	LTP287	ltpFR2	16	11	DRESSER	496	n/a	n/a	0	0	0
2676.748	n/a	WORD	1338374	wordpools/wasnorm_wordpool_576.txt	LTP287	ltpFR2	16	11	FUNGUS	614	n/a	n/a	0	0	0
2679.272	n/a	WORD	1339636	wordpools/wasnorm_wordpool_576.txt	LTP287	ltpFR2	16	11	BUG	187	n/a	n/a	0	0	0
2681.868	n/a	WORD	1340934	wordpools/wasnorm_wordpool_576.txt	LTP287	ltpFR2	16	11	BRAKE	166	n/a	n/a	0	0	0
2684.344	n/a	WORD	1342172	wordpools/wasnorm_wordpool_576.txt	LTP287	ltpFR2	16	11	SUNSET	1408	n/a	n/a	0	0	0
2687.122	n/a	WORD	1343561	wordpools/wasnorm_wordpool_576.txt	LTP287	ltpFR2	16	11	JAPAN	749	n/a	n/a	0	0	0
2689.832	n/a	WORD	1344916	wordpools/wasnorm_wordpool_576.txt	LTP287	ltpFR2	16	11	OUTLAW	989	n/a	n/a	0	0	0
2692.56	n/a	WORD	1346280	wordpools/wasnorm_wordpool_576.txt	LTP287	ltpFR2	16	11	OUTFIT	988	n/a	n/a	0	0	0
2695.002	n/a	WORD	1347501	wordpools/wasnorm_wordpool_576.txt	LTP287	ltpFR2	16	11	TOMBSTONE	1478	n/a	n/a	0	0	0
2697.612	n/a	WORD	1348806	wordpools/wasnorm_wordpool_576.txt	LTP287	ltpFR2	16	11	WIDOW	1608	n/a	n/a	0	0	0
2700.118	n/a	WORD	1350059	wordpools/wasnorm_wordpool_576.txt	LTP287	ltpFR2	16	11	CUPBOARD	425	n/a	n/a	0	0	0
2702.798	n/a	WORD	1351399	wordpools/wasnorm_wordpool_576.txt	LTP287	ltpFR2	16	11	BURGLAR	200	n/a	n/a	0	0	0
2704.406	n/a	START	1352203	n/a	LTP287	ltpFR2	16	n/a	n/a	n/a	16	n/a	n/a	n/a	n/a
2705.464	n/a	DISTRACTOR	1352732	n/a	LTP287	ltpFR2	16	11	n/a	n/a	n/a	n/a	0	0	0
2705.476	n/a	PROB	1352738	n/a	LTP287	ltpFR2	16	n/a	n/a	n/a	16	12	7	1	4
2707.596	n/a	PROB	1353798	n/a	LTP287	ltpFR2	16	n/a	n/a	n/a	16	20	6	8	6
2709.47	n/a	PROB	1354735	n/a	LTP287	ltpFR2	16	n/a	n/a	n/a	16	12	4	5	3
2710.978	n/a	PROB	1355489	n/a	LTP287	ltpFR2	16	n/a	n/a	n/a	16	9	2	5	2
2712.246	n/a	PROB	1356123	n/a	LTP287	ltpFR2	16	n/a	n/a	n/a	16	12	8	3	1
2713.736	n/a	PROB	1356868	n/a	LTP287	ltpFR2	16	n/a	n/a	n/a	16	11	7	1	3
2715.024	n/a	PROB	1357512	n/a	LTP287	ltpFR2	16	n/a	n/a	n/a	16	13	4	3	6
2716.618	n/a	PROB	1358309	n/a	LTP287	ltpFR2	16	n/a	n/a	n/a	16	23	8	6	9
2719.964	n/a	PROB	1359982	n/a	LTP287	ltpFR2	16	n/a	n/a	n/a	16	15	4	8	3
2721.75	n/a	PROB	1360875	n/a	LTP287	ltpFR2	16	n/a	n/a	n/a	16	11	5	4	2
2724.644	n/a	PROB	1362322	n/a	LTP287	ltpFR2	16	n/a	n/a	n/a	16	18	4	8	6
2728.406	n/a	STOP	1364203	n/a	LTP287	ltpFR2	16	n/a	n/a	n/a	16	n/a	n/a	n/a	n/a
2730.282	n/a	REC_START	1365141	n/a	LTP287	ltpFR2	16	11	n/a	n/a	n/a	n/a	0	0	0
2805.328	n/a	REC_WORD_VV	1402664	wordpools/wasnorm_wordpool_576.txt	LTP287	ltpFR2	16	11	<>	-1	n/a	n/a	0	0	0
2821.368	n/a	DISTRACTOR	1410684	n/a	LTP287	ltpFR2	16	12	n/a	n/a	n/a	n/a	0	0	0
2821.368	n/a	START	1410684	n/a	LTP287	ltpFR2	16	n/a	n/a	n/a	17	n/a	n/a	n/a	n/a
2821.448	n/a	PROB	1410724	n/a	LTP287	ltpFR2	16	n/a	n/a	n/a	17	20	7	4	9
2823.272	n/a	PROB	1411636	n/a	LTP287	ltpFR2	16	n/a	n/a	n/a	17	16	5	5	6
2824.376	n/a	PROB	1412188	n/a	LTP287	ltpFR2	16	n/a	n/a	n/a	17	16	9	1	6
2825.48	n/a	PROB	1412740	n/a	LTP287	ltpFR2	16	n/a	n/a	n/a	17	16	3	4	9
2826.902	n/a	PROB	1413451	n/a	LTP287	ltpFR2	16	n/a	n/a	n/a	17	9	1	5	3
2829.294	n/a	PROB	1414647	n/a	LTP287	ltpFR2	16	n/a	n/a	n/a	17	17	7	9	1
2830.554	n/a	PROB	1415277	n/a	LTP287	ltpFR2	16	n/a	n/a	n/a	17	7	5	1	1
2833.042	n/a	PROB	1416521	n/a	LTP287	ltpFR2	16	n/a	n/a	n/a	17	11	6	4	1
2834.68	n/a	PROB	1417340	n/a	LTP287	ltpFR2	16	n/a	n/a	n/a	17	17	8	2	7
2837.408	n/a	PROB	1418704	n/a	LTP287	ltpFR2	16	n/a	n/a	n/a	17	17	8	7	2
2838.696	n/a	PROB	1419348	n/a	LTP287	ltpFR2	16	n/a	n/a	n/a	17	23	9	8	5
2841.474	n/a	PROB	1420737	n/a	LTP287	ltpFR2	16	n/a	n/a	n/a	17	17	3	8	6
2843.7	n/a	PROB	1421850	n/a	LTP287	ltpFR2	16	n/a	n/a	n/a	17	16	9	1	6
2844.838	n/a	STOP	1422419	n/a	LTP287	ltpFR2	16	n/a	n/a	n/a	17	n/a	n/a	n/a	n/a
2846.566	n/a	WORD	1423283	wordpools/wasnorm_wordpool_576.txt	LTP287	ltpFR2	16	12	COD	340	n/a	n/a	0	0	0
2849.108	n/a	WORD	1424554	wordpools/wasnorm_wordpool_576.txt	LTP287	ltpFR2	16	12	ICEBERG	731	n/a	n/a	0	0	0
2851.93	n/a	WORD	1425965	wordpools/wasnorm_wordpool_576.txt	LTP287	ltpFR2	16	12	PORTRAIT	1111	n/a	n/a	0	0	0
2854.356	n/a	WORD	1427178	wordpools/wasnorm_wordpool_576.txt	LTP287	ltpFR2	16	12	SUNRISE	1407	n/a	n/a	0	0	0
2856.97	n/a	WORD	1428485	wordpools/wasnorm_wordpool_576.txt	LTP287	ltpFR2	16	12	LUNCH	849	n/a	n/a	0	0	0
2859.68	n/a	WORD	1429840	wordpools/wasnorm_wordpool_576.txt	LTP287	ltpFR2	16	12	SCISSORS	1250	n/a	n/a	0	0	0
2862.342	n/a	WORD	1431171	wordpools/wasnorm_wordpool_576.txt	LTP287	ltpFR2	16	12	SCALPEL	1243	n/a	n/a	0	0	0
2865.102	n/a	WORD	1432551	wordpools/wasnorm_wordpool_576.txt	LTP287	ltpFR2	16	12	ROBIN	1199	n/a	n/a	0	0	0
2867.674	n/a	WORD	1433837	wordpools/wasnorm_wordpool_576.txt	LTP287	ltpFR2	16	12	TOURIST	1488	n/a	n/a	0	0	0
2870.252	n/a	WORD	1435126	wordpools/wasnorm_wordpool_576.txt	LTP287	ltpFR2	16	12	CAPTIVE	240	n/a	n/a	0	0	0
2872.71	n/a	WORD	1436355	wordpools/wasnorm_wordpool_576.txt	LTP287	ltpFR2	16	12	GRAVEL	659	n/a	n/a	0	0	0
2875.242	n/a	WORD	1437621	wordpools/wasnorm_wordpool_576.txt	LTP287	ltpFR2	16	12	COURSE	390	n/a	n/a	0	0	0
2877.75	n/a	WORD	1438875	wordpools/wasnorm_wordpool_576.txt	LTP287	ltpFR2	16	12	LASER	801	n/a	n/a	0	0	0
2880.294	n/a	WORD	1440147	wordpools/wasnorm_wordpool_576.txt	LTP287	ltpFR2	16	12	IGLOO	734	n/a	n/a	0	0	0
2883.05	n/a	WORD	1441525	wordpools/wasnorm_wordpool_576.txt	LTP287	ltpFR2	16	12	BELLY	119	n/a	n/a	0	0	0
2885.514	n/a	WORD	1442757	wordpools/wasnorm_wordpool_576.txt	LTP287	ltpFR2	16	12	BULLET	194	n/a	n/a	0	0	0
2888.292	n/a	WORD	1444146	wordpools/wasnorm_wordpool_576.txt	LTP287	ltpFR2	16	12	POPCORN	1104	n/a	n/a	0	0	0
2891.0	n/a	WORD	1445500	wordpools/wasnorm_wordpool_576.txt	LTP287	ltpFR2	16	12	HORSE	719	n/a	n/a	0	0	0
2893.71	n/a	WORD	1446855	wordpools/wasnorm_wordpool_576.txt	LTP287	ltpFR2	16	12	MILK	895	n/a	n/a	0	0	0
2896.272	n/a	WORD	1448136	wordpools/wasnorm_wordpool_576.txt	LTP287	ltpFR2	16	12	COOKBOOK	373	n/a	n/a	0	0	0
2898.994	n/a	WORD	1449497	wordpools/wasnorm_wordpool_576.txt	LTP287	ltpFR2	16	12	DINER	467	n/a	n/a	0	0	0
2901.66	n/a	WORD	1450830	wordpools/wasnorm_wordpool_576.txt	LTP287	ltpFR2	16	12	PLATE	1086	n/a	n/a	0	0	0
2904.416	n/a	WORD	1452208	wordpools/wasnorm_wordpool_576.txt	LTP287	ltpFR2	16	12	FILM	565	n/a	n/a	0	0	0
2906.978	n/a	WORD	1453489	wordpools/wasnorm_wordpool_576.txt	LTP287	ltpFR2	16	12	WARDROBE	1587	n/a	n/a	0	0	0
2908.586	n/a	START	1454293	n/a	LTP287	ltpFR2	16	n/a	n/a	n/a	18	n/a	n/a	n/a	n/a
2909.494	n/a	DISTRACTOR	1454747	n/a	LTP287	ltpFR2	16	12	n/a	n/a	n/a	n/a	0	0	0
2909.506	n/a	PROB	1454753	n/a	LTP287	ltpFR2	16	n/a	n/a	n/a	18	9	2	5	2
2911.764	n/a	PROB	1455882	n/a	LTP287	ltpFR2	16	n/a	n/a	n/a	18	15	2	7	6
2913.482	n/a	PROB	1456741	n/a	LTP287	ltpFR2	16	n/a	n/a	n/a	18	18	3	9	6
2915.974	n/a	PROB	1457987	n/a	LTP287	ltpFR2	16	n/a	n/a	n/a	18	14	3	8	3
2917.582	n/a	PROB	1458791	n/a	LTP287	ltpFR2	16	n/a	n/a	n/a	18	11	2	3	6
2919.172	n/a	PROB	1459586	n/a	LTP287	ltpFR2	16	n/a	n/a	n/a	18	15	4	2	9
2920.694	n/a	PROB	1460347	n/a	LTP287	ltpFR2	16	n/a	n/a	n/a	18	12	2	9	1
2922.2	n/a	PROB	1461100	n/a	LTP287	ltpFR2	16	n/a	n/a	n/a	18	16	3	8	5
2923.988	n/a	PROB	1461994	n/a	LTP287	ltpFR2	16	n/a	n/a	n/a	18	22	6	8	8
2926.148	n/a	PROB	1463074	n/a	LTP287	ltpFR2	16	n/a	n/a	n/a	18	15	3	7	5
2927.37	n/a	PROB	1463685	n/a	LTP287	ltpFR2	16	n/a	n/a	n/a	18	11	1	7	3
2928.524	n/a	PROB	1464262	n/a	LTP287	ltpFR2	16	n/a	n/a	n/a	18	13	2	3	8
2931.036	n/a	STOP	1465518	n/a	LTP287	ltpFR2	16	n/a	n/a	n/a	18	n/a	n/a	n/a	n/a
2934.534	n/a	REC_START	1467267	n/a	LTP287	ltpFR2	16	12	n/a	n/a	n/a	n/a	0	0	0
3009.574	n/a	REC_WORD_VV	1504787	wordpools/wasnorm_wordpool_576.txt	LTP287	ltpFR2	16	12	<>	-1	n/a	n/a	0	0	0
3025.666	n/a	WORD	1512833	wordpools/wasnorm_wordpool_576.txt	LTP287	ltpFR2	16	13	TUBA	1515	n/a	n/a	0	0	0
3028.188	n/a	WORD	1514094	wordpools/wasnorm_wordpool_576.txt	LTP287	ltpFR2	16	13	CARRIAGE	248	n/a	n/a	0	0	0
3030.618	n/a	WORD	1515309	wordpools/wasnorm_wordpool_576.txt	LTP287	ltpFR2	16	13	PLUTO	1092	n/a	n/a	0	0	0
3033.38	n/a	WORD	1516690	wordpools/wasnorm_wordpool_576.txt	LTP287	ltpFR2	16	13	TRACTOR	1493	n/a	n/a	0	0	0
3036.14	n/a	WORD	1518070	wordpools/wasnorm_wordpool_576.txt	LTP287	ltpFR2	16	13	SHIRT	1287	n/a	n/a	0	0	0
3038.9	n/a	WORD	1519450	wordpools/wasnorm_wordpool_576.txt	LTP287	ltpFR2	16	13	COIN	343	n/a	n/a	0	0	0
3041.61	n/a	WORD	1520805	wordpools/wasnorm_wordpool_576.txt	LTP287	ltpFR2	16	13	HARP	689	n/a	n/a	0	0	0
3044.404	n/a	WORD	1522202	wordpools/wasnorm_wordpool_576.txt	LTP287	ltpFR2	16	13	POWDER	1117	n/a	n/a	0	0	0
3046.974	n/a	WORD	1523487	wordpools/wasnorm_wordpool_576.txt	LTP287	ltpFR2	16	13	PERFUME	1049	n/a	n/a	0	0	0
3049.792	n/a	WORD	1524896	wordpools/wasnorm_wordpool_576.txt	LTP287	ltpFR2	16	13	PAIL	1002	n/a	n/a	0	0	0
3052.268	n/a	WORD	1526134	wordpools/wasnorm_wordpool_576.txt	LTP287	ltpFR2	16	13	BATHTUB	100	n/a	n/a	0	0	0
3054.86	n/a	WORD	1527430	wordpools/wasnorm_wordpool_576.txt	LTP287	ltpFR2	16	13	PEACH	1031	n/a	n/a	0	0	0
3057.55	n/a	WORD	1528775	wordpools/wasnorm_wordpool_576.txt	LTP287	ltpFR2	16	13	HOSTESS	723	n/a	n/a	0	0	0
3060.06	n/a	WORD	1530030	wordpools/wasnorm_wordpool_576.txt	LTP287	ltpFR2	16	13	WAITRESS	1581	n/a	n/a	0	0	0
3062.558	n/a	WORD	1531279	wordpools/wasnorm_wordpool_576.txt	LTP287	ltpFR2	16	13	CLAMP	316	n/a	n/a	0	0	0
3065.184	n/a	WORD	1532592	wordpools/wasnorm_wordpool_576.txt	LTP287	ltpFR2	16	13	SIBLING	1301	n/a	n/a	0	0	0
3067.826	n/a	WORD	1533913	wordpools/wasnorm_wordpool_576.txt	LTP287	ltpFR2	16	13	HOOD	714	n/a	n/a	0	0	0
3070.354	n/a	WORD	1535177	wordpools/wasnorm_wordpool_576.txt	LTP287	ltpFR2	16	13	DRIVER	499	n/a	n/a	0	0	0
3073.014	n/a	WORD	1536507	wordpools/wasnorm_wordpool_576.txt	LTP287	ltpFR2	16	13	GIFT	635	n/a	n/a	0	0	0
3075.718	n/a	WORD	1537859	wordpools/wasnorm_wordpool_576.txt	LTP287	ltpFR2	16	13	DONKEY	484	n/a	n/a	0	0	0
3078.216	n/a	WORD	1539108	wordpools/wasnorm_wordpool_576.txt	LTP287	ltpFR2	16	13	CIGAR	308	n/a	n/a	0	0	0
3080.892	n/a	WORD	1540446	wordpools/wasnorm_wordpool_576.txt	LTP287	ltpFR2	16	13	FIREMAN	569	n/a	n/a	0	0	0
3083.686	n/a	WORD	1541843	wordpools/wasnorm_wordpool_576.txt	LTP287	ltpFR2	16	13	MUMMY	932	n/a	n/a	0	0	0
3086.416	n/a	WORD	1543208	wordpools/wasnorm_wordpool_576.txt	LTP287	ltpFR2	16	13	MARROW	872	n/a	n/a	0	0	0
3088.034	n/a	START	1544017	n/a	LTP287	ltpFR2	16	n/a	n/a	n/a	19	n/a	n/a	n/a	n/a
3089.034	n/a	DISTRACTOR	1544517	n/a	LTP287	ltpFR2	16	13	n/a	n/a	n/a	n/a	0	0	0
3089.042	n/a	PROB	1544521	n/a	LTP287	ltpFR2	16	n/a	n/a	n/a	19	16	1	8	7
3092.366	n/a	PROB	1546183	n/a	LTP287	ltpFR2	16	n/a	n/a	n/a	19	14	8	3	3
3093.772	n/a	PROB	1546886	n/a	LTP287	ltpFR2	16	n/a	n/a	n/a	19	7	4	1	2
3095.696	n/a	PROB	1547848	n/a	LTP287	ltpFR2	16	n/a	n/a	n/a	19	20	7	5	8
3098.256	n/a	PROB	1549128	n/a	LTP287	ltpFR2	16	n/a	n/a	n/a	19	10	5	3	2
3101.234	n/a	PROB	1550617	n/a	LTP287	ltpFR2	16	n/a	n/a	n/a	19	7	3	1	3
3102.906	n/a	PROB	1551453	n/a	LTP287	ltpFR2	16	n/a	n/a	n/a	19	14	5	6	3
3104.83	n/a	PROB	1552415	n/a	LTP287	ltpFR2	16	n/a	n/a	n/a	19	17	3	8	6
3106.988	n/a	PROB	1553494	n/a	LTP287	ltpFR2	16	n/a	n/a	n/a	19	15	9	1	5
3108.048	n/a	PROB	1554024	n/a	LTP287	ltpFR2	16	n/a	n/a	n/a	19	12	6	4	2
3109.17	n/a	PROB	1554585	n/a	LTP287	ltpFR2	16	n/a	n/a	n/a	19	8	2	2	4
3112.036	n/a	STOP	1556018	n/a	LTP287	ltpFR2	16	n/a	n/a	n/a	19	n/a	n/a	n/a	n/a
3113.802	n/a	REC_START	1556901	n/a	LTP287	ltpFR2	16	13	n/a	n/a	n/a	n/a	0	0	0
3204.95	n/a	WORD	1602475	wordpools/wasnorm_wordpool_576.txt	LTP287	ltpFR2	16	14	SCALLOP	1242	n/a	n/a	0	0	0
3207.494	n/a	WORD	1603747	wordpools/wasnorm_wordpool_576.txt	LTP287	ltpFR2	16	14	QUEEN	1149	n/a	n/a	0	0	0
3210.07	n/a	WORD	1605035	wordpools/wasnorm_wordpool_576.txt	LTP287	ltpFR2	16	14	PUPPY	1144	n/a	n/a	0	0	0
3212.642	n/a	WORD	1606321	wordpools/wasnorm_wordpool_576.txt	LTP287	ltpFR2	16	14	KNAPSACK	783	n/a	n/a	0	0	0
3215.408	n/a	WORD	1607704	wordpools/wasnorm_wordpool_576.txt	LTP287	ltpFR2	16	14	SLUG	1329	n/a	n/a	0	0	0
3217.946	n/a	WORD	1608973	wordpools/wasnorm_wordpool_576.txt	LTP287	ltpFR2	16	14	CROWN	415	n/a	n/a	0	0	0
3220.474	n/a	WORD	1610237	wordpools/wasnorm_wordpool_576.txt	LTP287	ltpFR2	16	14	THRONE	1461	n/a	n/a	0	0	0
3223.054	n/a	WORD	1611527	wordpools/wasnorm_wordpool_576.txt	LTP287	ltpFR2	16	14	TWIG	1527	n/a	n/a	0	0	0
3225.63	n/a	WORD	1612815	wordpools/wasnorm_wordpool_576.txt	LTP287	ltpFR2	16	14	PISTON	1076	n/a	n/a	0	0	0
3228.124	n/a	WORD	1614062	wordpools/wasnorm_wordpool_576.txt	LTP287	ltpFR2	16	14	FOX	598	n/a	n/a	0	0	0
3230.566	n/a	WORD	1615283	wordpools/wasnorm_wordpool_576.txt	LTP287	ltpFR2	16	14	CRUTCH	417	n/a	n/a	0	0	0
3233.222	n/a	WORD	1616611	wordpools/wasnorm_wordpool_576.txt	LTP287	ltpFR2	16	14	PIZZA	1079	n/a	n/a	0	0	0
3235.848	n/a	WORD	1617924	wordpools/wasnorm_wordpool_576.txt	LTP287	ltpFR2	16	14	PUDDING	1139	n/a	n/a	0	0	0
3238.33	n/a	WORD	1619165	wordpools/wasnorm_wordpool_576.txt	LTP287	ltpFR2	16	14	HIGHWAY	707	n/a	n/a	0	0	0
3241.106	n/a	WORD	1620553	wordpools/wasnorm_wordpool_576.txt	LTP287	ltpFR2	16	14	CITRUS	313	n/a	n/a	0	0	0
3243.9	n/a	WORD	1621950	wordpools/wasnorm_wordpool_576.txt	LTP287	ltpFR2	16	14	CHEMIST	292	n/a	n/a	0	0	0
3246.628	n/a	WORD	1623314	wordpools/wasnorm_wordpool_576.txt	LTP287	ltpFR2	16	14	PEBBLE	1035	n/a	n/a	0	0	0
3249.288	n/a	WORD	1624644	wordpools/wasnorm_wordpool_576.txt	LTP287	ltpFR2	16	14	KIDNEY	776	n/a	n/a	0	0	0
3251.762	n/a	WORD	1625881	wordpools/wasnorm_wordpool_576.txt	LTP287	ltpFR2	16	14	PERCH	1048	n/a	n/a	0	0	0
3254.524	n/a	WORD	1627262	wordpools/wasnorm_wordpool_576.txt	LTP287	ltpFR2	16	14	SMOG	1330	n/a	n/a	0	0	0
3257.134	n/a	WORD	1628567	wordpools/wasnorm_wordpool_576.txt	LTP287	ltpFR2	16	14	FOOT	590	n/a	n/a	0	0	0
3259.59	n/a	WORD	1629795	wordpools/wasnorm_wordpool_576.txt	LTP287	ltpFR2	16	14	PALACE	1006	n/a	n/a	0	0	0
3262.37	n/a	WORD	1631185	wordpools/wasnorm_wordpool_576.txt	LTP287	ltpFR2	16	14	MACHINE	852	n/a	n/a	0	0	0
3264.93	n/a	WORD	1632465	wordpools/wasnorm_wordpool_576.txt	LTP287	ltpFR2	16	14	BLUEPRINT	142	n/a	n/a	0	0	0
3266.538	n/a	START	1633269	n/a	LTP287	ltpFR2	16	n/a	n/a	n/a	20	n/a	n/a	n/a	n/a
3267.558	n/a	DISTRACTOR	1633779	n/a	LTP287	ltpFR2	16	14	n/a	n/a	n/a	n/a	0	0	0
3267.574	n/a	PROB	1633787	n/a	LTP287	ltpFR2	16	n/a	n/a	n/a	20	14	7	2	5
3269.96	n/a	PROB	1634980	n/a	LTP287	ltpFR2	16	n/a	n/a	n/a	20	16	4	4	8
3271.368	n/a	PROB	1635684	n/a	LTP287	ltpFR2	16	n/a	n/a	n/a	20	17	8	6	3
3273.028	n/a	PROB	1636514	n/a	LTP287	ltpFR2	16	n/a	n/a	n/a	20	12	8	1	3
3274.602	n/a	PROB	1637301	n/a	LTP287	ltpFR2	16	n/a	n/a	n/a	20	1	3	1	6
3276.12	n/a	PROB	1638060	n/a	LTP287	ltpFR2	16	n/a	n/a	n/a	20	7	1	5	1
3277.708	n/a	PROB	1638854	n/a	LTP287	ltpFR2	16	n/a	n/a	n/a	20	19	6	4	9
3278.984	n/a	PROB	1639492	n/a	LTP287	ltpFR2	16	n/a	n/a	n/a	20	9	4	4	1
3280.234	n/a	PROB	1640117	n/a	LTP287	ltpFR2	16	n/a	n/a	n/a	20	13	5	5	3
3281.244	n/a	PROB	1640622	n/a	LTP287	ltpFR2	16	n/a	n/a	n/a	20	13	4	5	4
3284.25	n/a	PROB	1642125	n/a	LTP287	ltpFR2	16	n/a	n/a	n/a	20	23	9	9	5
3286.362	n/a	PROB	1643181	n/a	LTP287	ltpFR2	16	n/a	n/a	n/a	20	14	9	2	3
3290.16	n/a	STOP	1645080	n/a	LTP287	ltpFR2	16	n/a	n/a	n/a	20	n/a	n/a	n/a	n/a
3292.404	n/a	REC_START	1646202	n/a	LTP287	ltpFR2	16	14	n/a	n/a	n/a	n/a	0	0	0
3367.402	n/a	REC_WORD_VV	1683701	wordpools/wasnorm_wordpool_576.txt	LTP287	ltpFR2	16	14	<>	-1	n/a	n/a	0	0	0
3383.518	n/a	DISTRACTOR	1691759	n/a	LTP287	ltpFR2	16	15	n/a	n/a	n/a	n/a	0	0	0
3383.518	n/a	START	1691759	n/a	LTP287	ltpFR2	16	n/a	n/a	n/a	21	n/a	n/a	n/a	n/a
3383.568	n/a	PROB	1691784	n/a	LTP287	ltpFR2	16	n/a	n/a	n/a	21	12	2	7	3
3384.984	n/a	PROB	1692492	n/a	LTP287	ltpFR2	16	n/a	n/a	n/a	21	8	2	5	1
3387.884	n/a	PROB	1693942	n/a	LTP287	ltpFR2	16	n/a	n/a	n/a	21	13	5	3	5
3389.168	n/a	PROB	1694584	n/a	LTP287	ltpFR2	16	n/a	n/a	n/a	21	19	9	6	4
3390.574	n/a	PROB	1695287	n/a	LTP287	ltpFR2	16	n/a	n/a	n/a	21	18	5	9	4
3392.696	n/a	PROB	1696348	n/a	LTP287	ltpFR2	16	n/a	n/a	n/a	21	15	6	8	1
3394.504	n/a	PROB	1697252	n/a	LTP287	ltpFR2	16	n/a	n/a	n/a	21	21	9	6	6
3396.082	n/a	PROB	1698041	n/a	LTP287	ltpFR2	16	n/a	n/a	n/a	21	17	9	7	1
3398.0	n/a	PROB	1699000	n/a	LTP287	ltpFR2	16	n/a	n/a	n/a	21	18	4	8	7
3401.616	n/a	PROB	1700808	n/a	LTP287	ltpFR2	16	n/a	n/a	n/a	21	17	6	7	4
3403.478	n/a	PROB	1701739	n/a	LTP287	ltpFR2	16	n/a	n/a	n/a	21	21	5	7	9
3406.02	n/a	STOP	1703010	n/a	LTP287	ltpFR2	16	n/a	n/a	n/a	21	n/a	n/a	n/a	n/a
3408.746	n/a	WORD	1704373	wordpools/wasnorm_wordpool_576.txt	LTP287	ltpFR2	16	15	LEADER	807	n/a	n/a	0	0	0
3411.458	n/a	WORD	1705729	wordpools/wasnorm_wordpool_576.txt	LTP287	ltpFR2	16	15	FINGER	567	n/a	n/a	0	0	0
3414.05	n/a	WORD	1707025	wordpools/wasnorm_wordpool_576.txt	LTP287	ltpFR2	16	15	SHOULDER	1294	n/a	n/a	0	0	0
3416.756	n/a	WORD	1708378	wordpools/wasnorm_wordpool_576.txt	LTP287	ltpFR2	16	15	EMPIRE	530	n/a	n/a	0	0	0
3419.454	n/a	WORD	1709727	wordpools/wasnorm_wordpool_576.txt	LTP287	ltpFR2	16	15	ROD	1203	n/a	n/a	0	0	0
3422.262	n/a	WORD	1711131	wordpools/wasnorm_wordpool_576.txt	LTP287	ltpFR2	16	15	SHARK	1275	n/a	n/a	0	0	0
3424.758	n/a	WORD	1712379	wordpools/wasnorm_wordpool_576.txt	LTP287	ltpFR2	16	15	SEAFOOD	1260	n/a	n/a	0	0	0
3427.486	n/a	WORD	1713743	wordpools/wasnorm_wordpool_576.txt	LTP287	ltpFR2	16	15	SWAMP	1416	n/a	n/a	0	0	0
3430.196	n/a	WORD	1715098	wordpools/wasnorm_wordpool_576.txt	LTP287	ltpFR2	16	15	LETTUCE	814	n/a	n/a	0	0	0
3432.988	n/a	WORD	1716494	wordpools/wasnorm_wordpool_576.txt	LTP287	ltpFR2	16	15	REPORT	1184	n/a	n/a	0	0	0
3435.678	n/a	WORD	1717839	wordpools/wasnorm_wordpool_576.txt	LTP287	ltpFR2	16	15	MUFFIN	929	n/a	n/a	0	0	0
3438.16	n/a	WORD	1719080	wordpools/wasnorm_wordpool_576.txt	LTP287	ltpFR2	16	15	TOASTER	1472	n/a	n/a	0	0	0
3440.932	n/a	WORD	1720466	wordpools/wasnorm_wordpool_576.txt	LTP287	ltpFR2	16	15	TREAT	1501	n/a	n/a	0	0	0
3443.746	n/a	WORD	1721873	wordpools/wasnorm_wordpool_576.txt	LTP287	ltpFR2	16	15	BRIEFCASE	175	n/a	n/a	0	0	0
3446.558	n/a	WORD	1723279	wordpools/wasnorm_wordpool_576.txt	LTP287	ltpFR2	16	15	AGENT	10	n/a	n/a	0	0	0
3449.198	n/a	WORD	1724599	wordpools/wasnorm_wordpool_576.txt	LTP287	ltpFR2	16	15	WAGON	1578	n/a	n/a	0	0	0
3451.656	n/a	WORD	1725828	wordpools/wasnorm_wordpool_576.txt	LTP287	ltpFR2	16	15	PORK	1108	n/a	n/a	0	0	0
3454.372	n/a	WORD	1727186	wordpools/wasnorm_wordpool_576.txt	LTP287	ltpFR2	16	15	CANDY	230	n/a	n/a	0	0	0
3457.008	n/a	WORD	1728504	wordpools/wasnorm_wordpool_576.txt	LTP287	ltpFR2	16	15	PLASTER	1085	n/a	n/a	0	0	0
3459.758	n/a	WORD	1729879	wordpools/wasnorm_wordpool_576.txt	LTP287	ltpFR2	16	15	BEAVER	109	n/a	n/a	0	0	0
3462.486	n/a	WORD	1731243	wordpools/wasnorm_wordpool_576.txt	LTP287	ltpFR2	16	15	ELBOW	520	n/a	n/a	0	0	0
3464.94	n/a	WORD	1732470	wordpools/wasnorm_wordpool_576.txt	LTP287	ltpFR2	16	15	STUDENT	1395	n/a	n/a	0	0	0
3467.488	n/a	WORD	1733744	wordpools/wasnorm_wordpool_576.txt	LTP287	ltpFR2	16	15	VIRUS	1572	n/a	n/a	0	0	0
3470.248	n/a	WORD	1735124	wordpools/wasnorm_wordpool_576.txt	LTP287	ltpFR2	16	15	LOFT	840	n/a	n/a	0	0	0
3471.854	n/a	START	1735927	n/a	LTP287	ltpFR2	16	n/a	n/a	n/a	22	n/a	n/a	n/a	n/a
3472.896	n/a	DISTRACTOR	1736448	n/a	LTP287	ltpFR2	16	15	n/a	n/a	n/a	n/a	0	0	0
3472.908	n/a	PROB	1736454	n/a	LTP287	ltpFR2	16	n/a	n/a	n/a	22	17	1	8	8
3474.928	n/a	PROB	1737464	n/a	LTP287	ltpFR2	16	n/a	n/a	n/a	22	16	3	6	7
3477.054	n/a	PROB	1738527	n/a	LTP287	ltpFR2	16	n/a	n/a	n/a	22	11	7	1	3
3478.644	n/a	PROB	1739322	n/a	LTP287	ltpFR2	16	n/a	n/a	n/a	22	13	3	8	2
3480.182	n/a	PROB	1740091	n/a	LTP287	ltpFR2	16	n/a	n/a	n/a	22	15	7	3	5
3482.328	n/a	PROB	1741164	n/a	LTP287	ltpFR2	16	n/a	n/a	n/a	22	16	5	3	8
3484.47	n/a	PROB	1742235	n/a	LTP287	ltpFR2	16	n/a	n/a	n/a	22	8	2	1	5
3486.328	n/a	PROB	1743164	n/a	LTP287	ltpFR2	16	n/a	n/a	n/a	22	13	9	3	1
3488.028	n/a	PROB	1744014	n/a	LTP287	ltpFR2	16	n/a	n/a	n/a	22	17	6	8	3
3491.09	n/a	PROB	1745545	n/a	LTP287	ltpFR2	16	n/a	n/a	n/a	22	18	7	5	6
3494.206	n/a	PROB	1747103	n/a	LTP287	ltpFR2	16	n/a	n/a	n/a	22	11	1	1	9
3495.45	n/a	STOP	1747725	n/a	LTP287	ltpFR2	16	n/a	n/a	n/a	22	n/a	n/a	n/a	n/a
3497.782	n/a	REC_START	1748891	n/a	LTP287	ltpFR2	16	15	n/a	n/a	n/a	n/a	0	0	0
3572.822	n/a	REC_WORD_VV	1786411	wordpools/wasnorm_wordpool_576.txt	LTP287	ltpFR2	16	15	<>	-1	n/a	n/a	0	0	0
3588.918	n/a	WORD	1794459	wordpools/wasnorm_wordpool_576.txt	LTP287	ltpFR2	16	16	COLONEL	348	n/a	n/a	0	0	0
3591.614	n/a	WORD	1795807	wordpools/wasnorm_wordpool_576.txt	LTP287	ltpFR2	16	16	MARINE	869	n/a	n/a	0	0	0
3594.038	n/a	WORD	1797019	wordpools/wasnorm_wordpool_576.txt	LTP287	ltpFR2	16	16	HUSBAND	728	n/a	n/a	0	0	0
3596.598	n/a	WORD	1798299	wordpools/wasnorm_wordpool_576.txt	LTP287	ltpFR2	16	16	CRAB	397	n/a	n/a	0	0	0
3599.376	n/a	WORD	1799688	wordpools/wasnorm_wordpool_576.txt	LTP287	ltpFR2	16	16	CLOCK	325	n/a	n/a	0	0	0
3602.12	n/a	WORD	1801060	wordpools/wasnorm_wordpool_576.txt	LTP287	ltpFR2	16	16	PANTHER	1009	n/a	n/a	0	0	0
3604.874	n/a	WORD	1802437	wordpools/wasnorm_wordpool_576.txt	LTP287	ltpFR2	16	16	LEOPARD	812	n/a	n/a	0	0	0
3607.624	n/a	WORD	1803812	wordpools/wasnorm_wordpool_576.txt	LTP287	ltpFR2	16	16	BLACKBOARD	133	n/a	n/a	0	0	0
3610.062	n/a	WORD	1805031	wordpools/wasnorm_wordpool_576.txt	LTP287	ltpFR2	16	16	CATCHER	258	n/a	n/a	0	0	0
3612.722	n/a	WORD	1806361	wordpools/wasnorm_wordpool_576.txt	LTP287	ltpFR2	16	16	MATTRESS	879	n/a	n/a	0	0	0
3615.286	n/a	WORD	1807643	wordpools/wasnorm_wordpool_576.txt	LTP287	ltpFR2	16	16	TUNNEL	1519	n/a	n/a	0	0	0
3617.728	n/a	WORD	1808864	wordpools/wasnorm_wordpool_576.txt	LTP287	ltpFR2	16	16	PEANUT	1032	n/a	n/a	0	0	0
3620.222	n/a	WORD	1810111	wordpools/wasnorm_wordpool_576.txt	LTP287	ltpFR2	16	16	FOOTBALL	591	n/a	n/a	0	0	0
3622.742	n/a	WORD	1811371	wordpools/wasnorm_wordpool_576.txt	LTP287	ltpFR2	16	16	STOVE	1388	n/a	n/a	0	0	0
3625.504	n/a	WORD	1812752	wordpools/wasnorm_wordpool_576.txt	LTP287	ltpFR2	16	16	BLENDER	136	n/a	n/a	0	0	0
3628.17	n/a	WORD	1814085	wordpools/wasnorm_wordpool_576.txt	LTP287	ltpFR2	16	16	SPOUSE	1358	n/a	n/a	0	0	0
3630.958	n/a	WORD	1815479	wordpools/wasnorm_wordpool_576.txt	LTP287	ltpFR2	16	16	BINDER	127	n/a	n/a	0	0	0
3633.406	n/a	WORD	1816703	wordpools/wasnorm_wordpool_576.txt	LTP287	ltpFR2	16	16	FLUTE	585	n/a	n/a	0	0	0
3636.116	n/a	WORD	1818058	wordpools/wasnorm_wordpool_576.txt	LTP287	ltpFR2	16	16	COBRA	336	n/a	n/a	0	0	0
3638.692	n/a	WORD	1819346	wordpools/wasnorm_wordpool_576.txt	LTP287	ltpFR2	16	16	SHORTCAKE	1292	n/a	n/a	0	0	0
3641.336	n/a	WORD	1820668	wordpools/wasnorm_wordpool_576.txt	LTP287	ltpFR2	16	16	CONTRACT	368	n/a	n/a	0	0	0
3644.13	n/a	WORD	1822065	wordpools/wasnorm_wordpool_576.txt	LTP287	ltpFR2	16	16	LACE	792	n/a	n/a	0	0	0
3646.556	n/a	WORD	1823278	wordpools/wasnorm_wordpool_576.txt	LTP287	ltpFR2	16	16	SCARF	1246	n/a	n/a	0	0	0
3649.334	n/a	WORD	1824667	wordpools/wasnorm_wordpool_576.txt	LTP287	ltpFR2	16	16	JOURNAL	760	n/a	n/a	0	0	0
3650.94	n/a	START	1825470	n/a	LTP287	ltpFR2	16	n/a	n/a	n/a	23	n/a	n/a	n/a	n/a
3652.026	n/a	DISTRACTOR	1826013	n/a	LTP287	ltpFR2	16	16	n/a	n/a	n/a	n/a	0	0	0
3652.042	n/a	PROB	1826021	n/a	LTP287	ltpFR2	16	n/a	n/a	n/a	23	16	6	2	8
3653.846	n/a	PROB	1826923	n/a	LTP287	ltpFR2	16	n/a	n/a	n/a	23	25	7	9	9
3656.088	n/a	PROB	1828044	n/a	LTP287	ltpFR2	16	n/a	n/a	n/a	23	12	7	3	2
3657.494	n/a	PROB	1828747	n/a	LTP287	ltpFR2	16	n/a	n/a	n/a	23	12	4	7	1
3659.082	n/a	PROB	1829541	n/a	LTP287	ltpFR2	16	n/a	n/a	n/a	23	12	3	6	3
3661.022	n/a	PROB	1830511	n/a	LTP287	ltpFR2	16	n/a	n/a	n/a	23	15	7	2	6
3663.32	n/a	PROB	1831660	n/a	LTP287	ltpFR2	16	n/a	n/a	n/a	23	13	2	5	6
3665.812	n/a	PROB	1832906	n/a	LTP287	ltpFR2	16	n/a	n/a	n/a	23	19	8	8	3
3667.554	n/a	PROB	1833777	n/a	LTP287	ltpFR2	16	n/a	n/a	n/a	23	18	6	9	3
3669.744	n/a	PROB	1834872	n/a	LTP287	ltpFR2	16	n/a	n/a	n/a	23	7	5	1	1
3671.044	n/a	PROB	1835522	n/a	LTP287	ltpFR2	16	n/a	n/a	n/a	23	11	4	1	6
3674.252	n/a	STOP	1837126	n/a	LTP287	ltpFR2	16	n/a	n/a	n/a	23	n/a	n/a	n/a	n/a
3676.822	n/a	REC_START	1838411	n/a	LTP287	ltpFR2	16	16	n/a	n/a	n/a	n/a	0	0	0
3751.826	n/a	REC_WORD_VV	1875913	wordpools/wasnorm_wordpool_576.txt	LTP287	ltpFR2	16	16	<>	-1	n/a	n/a	0	0	0
3753.632	n/a	REST_REWET	1876816	n/a	LTP287	ltpFR2	16	16	n/a	n/a	n/a	n/a	0	0	0
4044.912	n/a	DISTRACTOR	2022456	n/a	LTP287	ltpFR2	16	17	n/a	n/a	n/a	n/a	0	0	0
4044.912	n/a	START	2022456	n/a	LTP287	ltpFR2	16	n/a	n/a	n/a	24	n/a	n/a	n/a	n/a
4044.962	n/a	PROB	2022481	n/a	LTP287	ltpFR2	16	n/a	n/a	n/a	24	17	2	8	7
4046.446	n/a	PROB	2023223	n/a	LTP287	ltpFR2	16	n/a	n/a	n/a	24	18	6	7	5
4049.038	n/a	PROB	2024519	n/a	LTP287	ltpFR2	16	n/a	n/a	n/a	24	9	5	3	1
4050.534	n/a	PROB	2025267	n/a	LTP287	ltpFR2	16	n/a	n/a	n/a	24	15	5	1	9
4052.152	n/a	PROB	2026076	n/a	LTP287	ltpFR2	16	n/a	n/a	n/a	24	9	1	3	5
4054.612	n/a	PROB	2027306	n/a	LTP287	ltpFR2	16	n/a	n/a	n/a	24	15	7	6	2
4056.802	n/a	PROB	2028401	n/a	LTP287	ltpFR2	16	n/a	n/a	n/a	24	16	8	2	6
4058.376	n/a	PROB	2029188	n/a	LTP287	ltpFR2	16	n/a	n/a	n/a	24	20	6	6	8
4059.702	n/a	PROB	2029851	n/a	LTP287	ltpFR2	16	n/a	n/a	n/a	24	18	9	7	2
4061.438	n/a	PROB	2030719	n/a	LTP287	ltpFR2	16	n/a	n/a	n/a	24	17	8	7	2
4063.21	n/a	PROB	2031605	n/a	LTP287	ltpFR2	16	n/a	n/a	n/a	24	20	6	8	6
4064.55	n/a	PROB	2032275	n/a	LTP287	ltpFR2	16	n/a	n/a	n/a	24	20	8	9	3
4068.912	n/a	STOP	2034456	n/a	LTP287	ltpFR2	16	n/a	n/a	n/a	24	n/a	n/a	n/a	n/a
4069.94	n/a	WORD	2034970	wordpools/wasnorm_wordpool_576.txt	LTP287	ltpFR2	16	17	SPOON	1357	n/a	n/a	0	0	0
4072.452	n/a	WORD	2036226	wordpools/wasnorm_wordpool_576.txt	LTP287	ltpFR2	16	17	JUNGLE	764	n/a	n/a	0	0	0
4074.91	n/a	WORD	2037455	wordpools/wasnorm_wordpool_576.txt	LTP287	ltpFR2	16	17	PADDLE	1000	n/a	n/a	0	0	0
4077.404	n/a	WORD	2038702	wordpools/wasnorm_wordpool_576.txt	LTP287	ltpFR2	16	17	RELISH	1183	n/a	n/a	0	0	0
4080.08	n/a	WORD	2040040	wordpools/wasnorm_wordpool_576.txt	LTP287	ltpFR2	16	17	SANDWICH	1232	n/a	n/a	0	0	0
4082.822	n/a	WORD	2041411	wordpools/wasnorm_wordpool_576.txt	LTP287	ltpFR2	16	17	CARROT	249	n/a	n/a	0	0	0
4085.534	n/a	WORD	2042767	wordpools/wasnorm_wordpool_576.txt	LTP287	ltpFR2	16	17	MOP	916	n/a	n/a	0	0	0
4087.992	n/a	WORD	2043996	wordpools/wasnorm_wordpool_576.txt	LTP287	ltpFR2	16	17	MONEY	908	n/a	n/a	0	0	0
4090.67	n/a	WORD	2045335	wordpools/wasnorm_wordpool_576.txt	LTP287	ltpFR2	16	17	MILDEW	893	n/a	n/a	0	0	0
4093.348	n/a	WORD	2046674	wordpools/wasnorm_wordpool_576.txt	LTP287	ltpFR2	16	17	DUSTPAN	509	n/a	n/a	0	0	0
4096.108	n/a	WORD	2048054	wordpools/wasnorm_wordpool_576.txt	LTP287	ltpFR2	16	17	FLEET	578	n/a	n/a	0	0	0
4098.596	n/a	WORD	2049298	wordpools/wasnorm_wordpool_576.txt	LTP287	ltpFR2	16	17	SUPPER	1411	n/a	n/a	0	0	0
4101.16	n/a	WORD	2050580	wordpools/wasnorm_wordpool_576.txt	LTP287	ltpFR2	16	17	LAGOON	795	n/a	n/a	0	0	0
4103.916	n/a	WORD	2051958	wordpools/wasnorm_wordpool_576.txt	LTP287	ltpFR2	16	17	SNAKE	1333	n/a	n/a	0	0	0
4106.396	n/a	WORD	2053198	wordpools/wasnorm_wordpool_576.txt	LTP287	ltpFR2	16	17	GRIZZLY	662	n/a	n/a	0	0	0
4109.006	n/a	WORD	2054503	wordpools/wasnorm_wordpool_576.txt	LTP287	ltpFR2	16	17	FOREST	593	n/a	n/a	0	0	0
4111.596	n/a	WORD	2055798	wordpools/wasnorm_wordpool_576.txt	LTP287	ltpFR2	16	17	GREASE	660	n/a	n/a	0	0	0
4114.178	n/a	WORD	2057089	wordpools/wasnorm_wordpool_576.txt	LTP287	ltpFR2	16	17	MAMMAL	861	n/a	n/a	0	0	0
4116.798	n/a	WORD	2058399	wordpools/wasnorm_wordpool_576.txt	LTP287	ltpFR2	16	17	BANKER	84	n/a	n/a	0	0	0
4119.408	n/a	WORD	2059704	wordpools/wasnorm_wordpool_576.txt	LTP287	ltpFR2	16	17	QUARTER	1148	n/a	n/a	0	0	0
4121.884	n/a	WORD	2060942	wordpools/wasnorm_wordpool_576.txt	LTP287	ltpFR2	16	17	RUST	1219	n/a	n/a	0	0	0
4124.532	n/a	WORD	2062266	wordpools/wasnorm_wordpool_576.txt	LTP287	ltpFR2	16	17	ACTOR	5	n/a	n/a	0	0	0
4127.042	n/a	WORD	2063521	wordpools/wasnorm_wordpool_576.txt	LTP287	ltpFR2	16	17	APPLE	33	n/a	n/a	0	0	0
4129.852	n/a	WORD	2064926	wordpools/wasnorm_wordpool_576.txt	LTP287	ltpFR2	16	17	BISON	131	n/a	n/a	0	0	0
4131.478	n/a	START	2065739	n/a	LTP287	ltpFR2	16	n/a	n/a	n/a	25	n/a	n/a	n/a	n/a
4132.584	n/a	DISTRACTOR	2066292	n/a	LTP287	ltpFR2	16	17	n/a	n/a	n/a	n/a	0	0	0
4132.598	n/a	PROB	2066299	n/a	LTP287	ltpFR2	16	n/a	n/a	n/a	25	12	3	4	5
4136.29	n/a	PROB	2068145	n/a	LTP287	ltpFR2	16	n/a	n/a	n/a	25	15	3	7	5
4137.428	n/a	PROB	2068714	n/a	LTP287	ltpFR2	16	n/a	n/a	n/a	25	12	3	3	6
4139.252	n/a	PROB	2069626	n/a	LTP287	ltpFR2	16	n/a	n/a	n/a	25	11	4	1	6
4140.528	n/a	PROB	2070264	n/a	LTP287	ltpFR2	16	n/a	n/a	n/a	25	15	5	2	8
4143.55	n/a	PROB	2071775	n/a	LTP287	ltpFR2	16	n/a	n/a	n/a	25	9	2	6	1
4145.312	n/a	PROB	2072656	n/a	LTP287	ltpFR2	16	n/a	n/a	n/a	25	20	4	8	8
4146.784	n/a	PROB	2073392	n/a	LTP287	ltpFR2	16	n/a	n/a	n/a	25	7	1	3	3
4148.392	n/a	PROB	2074196	n/a	LTP287	ltpFR2	16	n/a	n/a	n/a	25	9	1	3	5
4150.582	n/a	PROB	2075291	n/a	LTP287	ltpFR2	16	n/a	n/a	n/a	25	10	4	5	1
4152.05	n/a	PROB	2076025	n/a	LTP287	ltpFR2	16	n/a	n/a	n/a	25	11	4	6	1
4153.338	n/a	PROB	2076669	n/a	LTP287	ltpFR2	16	n/a	n/a	n/a	25	11	1	2	8
4154.828	n/a	STOP	2077414	n/a	LTP287	ltpFR2	16	n/a	n/a	n/a	25	n/a	n/a	n/a	n/a
4157.376	n/a	REC_START	2078688	n/a	LTP287	ltpFR2	16	17	n/a	n/a	n/a	n/a	0	0	0
4232.38	n/a	REC_WORD_VV	2116190	wordpools/wasnorm_wordpool_576.txt	LTP287	ltpFR2	16	17	<>	-1	n/a	n/a	0	0	0
4248.474	n/a	DISTRACTOR	2124237	n/a	LTP287	ltpFR2	16	18	n/a	n/a	n/a	n/a	0	0	0
4248.474	n/a	START	2124237	n/a	LTP287	ltpFR2	16	n/a	n/a	n/a	26	n/a	n/a	n/a	n/a
4248.552	n/a	PROB	2124276	n/a	LTP287	ltpFR2	16	n/a	n/a	n/a	26	16	4	9	3
4250.342	n/a	PROB	2125171	n/a	LTP287	ltpFR2	16	n/a	n/a	n/a	26	9	1	4	4
4251.664	n/a	PROB	2125832	n/a	LTP287	ltpFR2	16	n/a	n/a	n/a	26	11	5	5	1
4252.736	n/a	PROB	2126368	n/a	LTP287	ltpFR2	16	n/a	n/a	n/a	26	16	6	1	9
4254.98	n/a	PROB	2127490	n/a	LTP287	ltpFR2	16	n/a	n/a	n/a	26	15	4	3	8
4256.584	n/a	PROB	2128292	n/a	LTP287	ltpFR2	16	n/a	n/a	n/a	26	13	3	4	6
4258.14	n/a	PROB	2129070	n/a	LTP287	ltpFR2	16	n/a	n/a	n/a	26	16	8	3	5
4260.566	n/a	PROB	2130283	n/a	LTP287	ltpFR2	16	n/a	n/a	n/a	26	13	6	5	2
4262.712	n/a	PROB	2131356	n/a	LTP287	ltpFR2	16	n/a	n/a	n/a	26	18	3	7	8
4264.01	n/a	PROB	2132005	n/a	LTP287	ltpFR2	16	n/a	n/a	n/a	26	9	1	5	3
4266.024	n/a	PROB	2133012	n/a	LTP287	ltpFR2	16	n/a	n/a	n/a	26	6	1	4	1
4267.246	n/a	PROB	2133623	n/a	LTP287	ltpFR2	16	n/a	n/a	n/a	26	8	1	5	2
4269.934	n/a	PROB	2134967	n/a	LTP287	ltpFR2	16	n/a	n/a	n/a	26	17	9	4	4
4271.636	n/a	STOP	2135818	n/a	LTP287	ltpFR2	16	n/a	n/a	n/a	26	n/a	n/a	n/a	n/a
4273.368	n/a	WORD	2136684	wordpools/wasnorm_wordpool_576.txt	LTP287	ltpFR2	16	18	CABBAGE	210	n/a	n/a	0	0	0
4276.158	n/a	WORD	2138079	wordpools/wasnorm_wordpool_576.txt	LTP287	ltpFR2	16	18	SALAD	1224	n/a	n/a	0	0	0
4278.706	n/a	WORD	2139353	wordpools/wasnorm_wordpool_576.txt	LTP287	ltpFR2	16	18	BREAST	171	n/a	n/a	0	0	0
4281.244	n/a	WORD	2140622	wordpools/wasnorm_wordpool_576.txt	LTP287	ltpFR2	16	18	FREEZER	604	n/a	n/a	0	0	0
4283.874	n/a	WORD	2141937	wordpools/wasnorm_wordpool_576.txt	LTP287	ltpFR2	16	18	WIFE	1609	n/a	n/a	0	0	0
4286.67	n/a	WORD	2143335	wordpools/wasnorm_wordpool_576.txt	LTP287	ltpFR2	16	18	JUGGLER	763	n/a	n/a	0	0	0
4289.312	n/a	WORD	2144656	wordpools/wasnorm_wordpool_576.txt	LTP287	ltpFR2	16	18	AWARD	63	n/a	n/a	0	0	0
4291.922	n/a	WORD	2145961	wordpools/wasnorm_wordpool_576.txt	LTP287	ltpFR2	16	18	AIRPORT	13	n/a	n/a	0	0	0
4294.734	n/a	WORD	2147367	wordpools/wasnorm_wordpool_576.txt	LTP287	ltpFR2	16	18	STALLION	1369	n/a	n/a	0	0	0
4297.41	n/a	WORD	2148705	wordpools/wasnorm_wordpool_576.txt	LTP287	ltpFR2	16	18	RADISH	1158	n/a	n/a	0	0	0
4299.87	n/a	WORD	2149935	wordpools/wasnorm_wordpool_576.txt	LTP287	ltpFR2	16	18	WORKER	1621	n/a	n/a	0	0	0
4302.376	n/a	WORD	2151188	wordpools/wasnorm_wordpool_576.txt	LTP287	ltpFR2	16	18	OFFICE	972	n/a	n/a	0	0	0
4304.904	n/a	WORD	2152452	wordpools/wasnorm_wordpool_576.txt	LTP287	ltpFR2	16	18	HEADBAND	696	n/a	n/a	0	0	0
4307.632	n/a	WORD	2153816	wordpools/wasnorm_wordpool_576.txt	LTP287	ltpFR2	16	18	SODA	1341	n/a	n/a	0	0	0
4310.444	n/a	WORD	2155222	wordpools/wasnorm_wordpool_576.txt	LTP287	ltpFR2	16	18	BABY	64	n/a	n/a	0	0	0
4313.15	n/a	WORD	2156575	wordpools/wasnorm_wordpool_576.txt	LTP287	ltpFR2	16	18	COOK	372	n/a	n/a	0	0	0
4315.964	n/a	WORD	2157982	wordpools/wasnorm_wordpool_576.txt	LTP287	ltpFR2	16	18	SHOVEL	1295	n/a	n/a	0	0	0
4318.47	n/a	WORD	2159235	wordpools/wasnorm_wordpool_576.txt	LTP287	ltpFR2	16	18	PROTON	1132	n/a	n/a	0	0	0
4321.286	n/a	WORD	2160643	wordpools/wasnorm_wordpool_576.txt	LTP287	ltpFR2	16	18	PARSLEY	1016	n/a	n/a	0	0	0
4323.878	n/a	WORD	2161939	wordpools/wasnorm_wordpool_576.txt	LTP287	ltpFR2	16	18	KNIFE	785	n/a	n/a	0	0	0
4326.522	n/a	WORD	2163261	wordpools/wasnorm_wordpool_576.txt	LTP287	ltpFR2	16	18	RATTLE	1170	n/a	n/a	0	0	0
4329.132	n/a	WORD	2164566	wordpools/wasnorm_wordpool_576.txt	LTP287	ltpFR2	16	18	BRICK	172	n/a	n/a	0	0	0
4331.574	n/a	WORD	2165787	wordpools/wasnorm_wordpool_576.txt	LTP287	ltpFR2	16	18	PASTA	1021	n/a	n/a	0	0	0
4334.236	n/a	WORD	2167118	wordpools/wasnorm_wordpool_576.txt	LTP287	ltpFR2	16	18	ROOSTER	1209	n/a	n/a	0	0	0
4335.852	n/a	START	2167926	n/a	LTP287	ltpFR2	16	n/a	n/a	n/a	27	n/a	n/a	n/a	n/a
4336.698	n/a	DISTRACTOR	2168349	n/a	LTP287	ltpFR2	16	18	n/a	n/a	n/a	n/a	0	0	0
4336.712	n/a	PROB	2168356	n/a	LTP287	ltpFR2	16	n/a	n/a	n/a	27	12	8	1	3
4338.78	n/a	PROB	2169390	n/a	LTP287	ltpFR2	16	n/a	n/a	n/a	27	18	5	7	6
4340.642	n/a	PROB	2170321	n/a	LTP287	ltpFR2	16	n/a	n/a	n/a	27	20	9	2	9
4341.946	n/a	PROB	2170973	n/a	LTP287	ltpFR2	16	n/a	n/a	n/a	27	19	9	8	2
4343.748	n/a	PROB	2171874	n/a	LTP287	ltpFR2	16	n/a	n/a	n/a	27	3	1	1	1
4344.752	n/a	PROB	2172376	n/a	LTP287	ltpFR2	16	n/a	n/a	n/a	27	18	8	9	1
4345.974	n/a	PROB	2172987	n/a	LTP287	ltpFR2	16	n/a	n/a	n/a	27	3	1	1	1
4346.844	n/a	PROB	2173422	n/a	LTP287	ltpFR2	16	n/a	n/a	n/a	27	12	6	5	1
4348.138	n/a	PROB	2174069	n/a	LTP287	ltpFR2	16	n/a	n/a	n/a	27	12	7	1	4
4350.626	n/a	PROB	2175313	n/a	LTP287	ltpFR2	16	n/a	n/a	n/a	27	16	9	2	5
4352.834	n/a	PROB	2176417	n/a	LTP287	ltpFR2	16	n/a	n/a	n/a	27	17	5	6	6
4354.992	n/a	PROB	2177496	n/a	LTP287	ltpFR2	16	n/a	n/a	n/a	27	14	7	5	2
4359.176	n/a	STOP	2179588	n/a	LTP287	ltpFR2	16	n/a	n/a	n/a	27	n/a	n/a	n/a	n/a
4361.708	n/a	REC_START	2180854	n/a	LTP287	ltpFR2	16	18	n/a	n/a	n/a	n/a	0	0	0
4436.712	n/a	REC_WORD_VV	2218356	wordpools/wasnorm_wordpool_576.txt	LTP287	ltpFR2	16	18	<>	-1	n/a	n/a	0	0	0
4452.786	n/a	WORD	2226393	wordpools/wasnorm_wordpool_576.txt	LTP287	ltpFR2	16	19	WHISTLE	1606	n/a	n/a	0	0	0
4455.498	n/a	WORD	2227749	wordpools/wasnorm_wordpool_576.txt	LTP287	ltpFR2	16	19	CLIMBER	323	n/a	n/a	0	0	0
4458.288	n/a	WORD	2229144	wordpools/wasnorm_wordpool_576.txt	LTP287	ltpFR2	16	19	QUAIL	1147	n/a	n/a	0	0	0
4460.718	n/a	WORD	2230359	wordpools/wasnorm_wordpool_576.txt	LTP287	ltpFR2	16	19	ZEBRA	1635	n/a	n/a	0	0	0
4463.312	n/a	WORD	2231656	wordpools/wasnorm_wordpool_576.txt	LTP287	ltpFR2	16	19	COWBOY	395	n/a	n/a	0	0	0
4465.938	n/a	WORD	2232969	wordpools/wasnorm_wordpool_576.txt	LTP287	ltpFR2	16	19	WRENCH	1625	n/a	n/a	0	0	0
4468.732	n/a	WORD	2234366	wordpools/wasnorm_wordpool_576.txt	LTP287	ltpFR2	16	19	XEROX	1628	n/a	n/a	0	0	0
4471.492	n/a	WORD	2235746	wordpools/wasnorm_wordpool_576.txt	LTP287	ltpFR2	16	19	WASHER	1592	n/a	n/a	0	0	0
4474.22	n/a	WORD	2237110	wordpools/wasnorm_wordpool_576.txt	LTP287	ltpFR2	16	19	PASSAGE	1019	n/a	n/a	0	0	0
4476.992	n/a	WORD	2238496	wordpools/wasnorm_wordpool_576.txt	LTP287	ltpFR2	16	19	ARM	38	n/a	n/a	0	0	0
4479.522	n/a	WORD	2239761	wordpools/wasnorm_wordpool_576.txt	LTP287	ltpFR2	16	19	WRIST	1626	n/a	n/a	0	0	0
4482.168	n/a	WORD	2241084	wordpools/wasnorm_wordpool_576.txt	LTP287	ltpFR2	16	19	ITEM	746	n/a	n/a	0	0	0
4484.838	n/a	WORD	2242419	wordpools/wasnorm_wordpool_576.txt	LTP287	ltpFR2	16	19	NOTEBOOK	959	n/a	n/a	0	0	0
4487.382	n/a	WORD	2243691	wordpools/wasnorm_wordpool_576.txt	LTP287	ltpFR2	16	19	OMELET	976	n/a	n/a	0	0	0
4489.958	n/a	WORD	2244979	wordpools/wasnorm_wordpool_576.txt	LTP287	ltpFR2	16	19	HEDGE	699	n/a	n/a	0	0	0
4492.536	n/a	WORD	2246268	wordpools/wasnorm_wordpool_576.txt	LTP287	ltpFR2	16	19	APRON	35	n/a	n/a	0	0	0
4495.184	n/a	WORD	2247592	wordpools/wasnorm_wordpool_576.txt	LTP287	ltpFR2	16	19	OINTMENT	974	n/a	n/a	0	0	0
4497.638	n/a	WORD	2248819	wordpools/wasnorm_wordpool_576.txt	LTP287	ltpFR2	16	19	FLASHLIGHT	575	n/a	n/a	0	0	0
4500.354	n/a	WORD	2250177	wordpools/wasnorm_wordpool_576.txt	LTP287	ltpFR2	16	19	LABEL	790	n/a	n/a	0	0	0
4503.126	n/a	WORD	2251563	wordpools/wasnorm_wordpool_576.txt	LTP287	ltpFR2	16	19	TABLET	1427	n/a	n/a	0	0	0
4505.756	n/a	WORD	2252878	wordpools/wasnorm_wordpool_576.txt	LTP287	ltpFR2	16	19	KITCHEN	778	n/a	n/a	0	0	0
4508.45	n/a	WORD	2254225	wordpools/wasnorm_wordpool_576.txt	LTP287	ltpFR2	16	19	GHETTO	633	n/a	n/a	0	0	0
4511.128	n/a	WORD	2255564	wordpools/wasnorm_wordpool_576.txt	LTP287	ltpFR2	16	19	ORANGE	980	n/a	n/a	0	0	0
4513.616	n/a	WORD	2256808	wordpools/wasnorm_wordpool_576.txt	LTP287	ltpFR2	16	19	RACKET	1155	n/a	n/a	0	0	0
4515.226	n/a	START	2257613	n/a	LTP287	ltpFR2	16	n/a	n/a	n/a	28	n/a	n/a	n/a	n/a
4516.352	n/a	DISTRACTOR	2258176	n/a	LTP287	ltpFR2	16	19	n/a	n/a	n/a	n/a	0	0	0
4516.364	n/a	PROB	2258182	n/a	LTP287	ltpFR2	16	n/a	n/a	n/a	28	7	2	3	2
4520.124	n/a	PROB	2260062	n/a	LTP287	ltpFR2	16	n/a	n/a	n/a	28	15	5	4	6
4521.93	n/a	PROB	2260965	n/a	LTP287	ltpFR2	16	n/a	n/a	n/a	28	6	1	2	3
4523.106	n/a	PROB	2261553	n/a	LTP287	ltpFR2	16	n/a	n/a	n/a	28	21	3	9	9
4524.692	n/a	PROB	2262346	n/a	LTP287	ltpFR2	16	n/a	n/a	n/a	28	21	6	6	9
4526.95	n/a	PROB	2263475	n/a	LTP287	ltpFR2	16	n/a	n/a	n/a	28	5	2	2	1
4528.138	n/a	PROB	2264069	n/a	LTP287	ltpFR2	16	n/a	n/a	n/a	28	17	5	4	8
4530.764	n/a	PROB	2265382	n/a	LTP287	ltpFR2	16	n/a	n/a	n/a	28	17	6	8	3
4533.174	n/a	PROB	2266587	n/a	LTP287	ltpFR2	16	n/a	n/a	n/a	28	11	5	4	2
4535.114	n/a	PROB	2267557	n/a	LTP287	ltpFR2	16	n/a	n/a	n/a	28	19	9	1	9
4536.604	n/a	PROB	2268302	n/a	LTP287	ltpFR2	16	n/a	n/a	n/a	28	13	1	6	6
4537.994	n/a	STOP	2268997	n/a	LTP287	ltpFR2	16	n/a	n/a	n/a	28	n/a	n/a	n/a	n/a
4541.172	n/a	REC_START	2270586	n/a	LTP287	ltpFR2	16	19	n/a	n/a	n/a	n/a	0	0	0
4616.182	n/a	REC_WORD_VV	2308091	wordpools/wasnorm_wordpool_576.txt	LTP287	ltpFR2	16	19	<>	-1	n/a	n/a	0	0	0
4632.308	n/a	WORD	2316154	wordpools/wasnorm_wordpool_576.txt	LTP287	ltpFR2	16	20	IDOL	733	n/a	n/a	0	0	0
4635.018	n/a	WORD	2317509	wordpools/wasnorm_wordpool_576.txt	LTP287	ltpFR2	16	20	GUARD	667	n/a	n/a	0	0	0
4637.612	n/a	WORD	2318806	wordpools/wasnorm_wordpool_576.txt	LTP287	ltpFR2	16	20	ROBOT	1200	n/a	n/a	0	0	0
4640.304	n/a	WORD	2320152	wordpools/wasnorm_wordpool_576.txt	LTP287	ltpFR2	16	20	SPARROW	1347	n/a	n/a	0	0	0
4642.858	n/a	WORD	2321429	wordpools/wasnorm_wordpool_576.txt	LTP287	ltpFR2	16	20	BOYFRIEND	162	n/a	n/a	0	0	0
4645.336	n/a	WORD	2322668	wordpools/wasnorm_wordpool_576.txt	LTP287	ltpFR2	16	20	PLAYGROUND	1087	n/a	n/a	0	0	0
4647.81	n/a	WORD	2323905	wordpools/wasnorm_wordpool_576.txt	LTP287	ltpFR2	16	20	GRILL	661	n/a	n/a	0	0	0
4650.444	n/a	WORD	2325222	wordpools/wasnorm_wordpool_576.txt	LTP287	ltpFR2	16	20	ULCER	1533	n/a	n/a	0	0	0
4653.102	n/a	WORD	2326551	wordpools/wasnorm_wordpool_576.txt	LTP287	ltpFR2	16	20	STOMACH	1384	n/a	n/a	0	0	0
4655.546	n/a	WORD	2327773	wordpools/wasnorm_wordpool_576.txt	LTP287	ltpFR2	16	20	CHAPEL	280	n/a	n/a	0	0	0
4657.988	n/a	WORD	2328994	wordpools/wasnorm_wordpool_576.txt	LTP287	ltpFR2	16	20	BRACES	164	n/a	n/a	0	0	0
4660.566	n/a	WORD	2330283	wordpools/wasnorm_wordpool_576.txt	LTP287	ltpFR2	16	20	MISSILE	900	n/a	n/a	0	0	0
4663.338	n/a	WORD	2331669	wordpools/wasnorm_wordpool_576.txt	LTP287	ltpFR2	16	20	EAGLE	512	n/a	n/a	0	0	0
4665.834	n/a	WORD	2332917	wordpools/wasnorm_wordpool_576.txt	LTP287	ltpFR2	16	20	WOMAN	1620	n/a	n/a	0	0	0
4668.396	n/a	WORD	2334198	wordpools/wasnorm_wordpool_576.txt	LTP287	ltpFR2	16	20	PISTOL	1075	n/a	n/a	0	0	0
4670.87	n/a	WORD	2335435	wordpools/wasnorm_wordpool_576.txt	LTP287	ltpFR2	16	20	LAMP	798	n/a	n/a	0	0	0
4673.61	n/a	WORD	2336805	wordpools/wasnorm_wordpool_576.txt	LTP287	ltpFR2	16	20	SPHINX	1349	n/a	n/a	0	0	0
4676.376	n/a	WORD	2338188	wordpools/wasnorm_wordpool_576.txt	LTP287	ltpFR2	16	20	BACKBONE	66	n/a	n/a	0	0	0
4678.884	n/a	WORD	2339442	wordpools/wasnorm_wordpool_576.txt	LTP287	ltpFR2	16	20	BODY	145	n/a	n/a	0	0	0
4681.512	n/a	WORD	2340756	wordpools/wasnorm_wordpool_576.txt	LTP287	ltpFR2	16	20	DANDRUFF	439	n/a	n/a	0	0	0
4684.238	n/a	WORD	2342119	wordpools/wasnorm_wordpool_576.txt	LTP287	ltpFR2	16	20	MEAT	883	n/a	n/a	0	0	0
4686.694	n/a	WORD	2343347	wordpools/wasnorm_wordpool_576.txt	LTP287	ltpFR2	16	20	DENTIST	447	n/a	n/a	0	0	0
4689.226	n/a	WORD	2344613	wordpools/wasnorm_wordpool_576.txt	LTP287	ltpFR2	16	20	POSTAGE	1113	n/a	n/a	0	0	0
4691.668	n/a	WORD	2345834	wordpools/wasnorm_wordpool_576.txt	LTP287	ltpFR2	16	20	MAILMAN	858	n/a	n/a	0	0	0
4693.274	n/a	START	2346637	n/a	LTP287	ltpFR2	16	n/a	n/a	n/a	29	n/a	n/a	n/a	n/a
4694.394	n/a	DISTRACTOR	2347197	n/a	LTP287	ltpFR2	16	20	n/a	n/a	n/a	n/a	0	0	0
4694.412	n/a	PROB	2347206	n/a	LTP287	ltpFR2	16	n/a	n/a	n/a	29	14	3	2	9
4696.798	n/a	PROB	2348399	n/a	LTP287	ltpFR2	16	n/a	n/a	n/a	29	21	7	9	5
4703.324	n/a	PROB	2351662	n/a	LTP287	ltpFR2	16	n/a	n/a	n/a	29	12	3	5	4
4704.934	n/a	PROB	2352467	n/a	LTP287	ltpFR2	16	n/a	n/a	n/a	29	10	3	5	2
4706.992	n/a	PROB	2353496	n/a	LTP287	ltpFR2	16	n/a	n/a	n/a	29	21	9	6	6
4708.528	n/a	PROB	2354264	n/a	LTP287	ltpFR2	16	n/a	n/a	n/a	29	20	9	4	7
4710.368	n/a	PROB	2355184	n/a	LTP287	ltpFR2	16	n/a	n/a	n/a	29	12	8	2	2
4711.706	n/a	PROB	2355853	n/a	LTP287	ltpFR2	16	n/a	n/a	n/a	29	21	6	6	9
4713.43	n/a	PROB	2356715	n/a	LTP287	ltpFR2	16	n/a	n/a	n/a	29	12	3	4	5
4717.274	n/a	STOP	2358637	n/a	LTP287	ltpFR2	16	n/a	n/a	n/a	29	n/a	n/a	n/a	n/a
4719.168	n/a	REC_START	2359584	n/a	LTP287	ltpFR2	16	20	n/a	n/a	n/a	n/a	0	0	0
4794.172	n/a	REC_WORD_VV	2397086	wordpools/wasnorm_wordpool_576.txt	LTP287	ltpFR2	16	20	<>	-1	n/a	n/a	0	0	0
4810.238	n/a	DISTRACTOR	2405119	n/a	LTP287	ltpFR2	16	21	n/a	n/a	n/a	n/a	0	0	0
4810.238	n/a	START	2405119	n/a	LTP287	ltpFR2	16	n/a	n/a	n/a	30	n/a	n/a	n/a	n/a
4810.288	n/a	PROB	2405144	n/a	LTP287	ltpFR2	16	n/a	n/a	n/a	30	8	3	3	2
4811.722	n/a	PROB	2405861	n/a	LTP287	ltpFR2	16	n/a	n/a	n/a	30	19	9	7	3
4813.332	n/a	PROB	2406666	n/a	LTP287	ltpFR2	16	n/a	n/a	n/a	30	23	8	6	9
4817.528	n/a	PROB	2408764	n/a	LTP287	ltpFR2	16	n/a	n/a	n/a	30	15	3	3	9
4818.882	n/a	PROB	2409441	n/a	LTP287	ltpFR2	16	n/a	n/a	n/a	30	15	6	5	4
4820.674	n/a	PROB	2410337	n/a	LTP287	ltpFR2	16	n/a	n/a	n/a	30	16	6	5	5
4821.926	n/a	PROB	2410963	n/a	LTP287	ltpFR2	16	n/a	n/a	n/a	30	16	5	9	2
4823.868	n/a	PROB	2411934	n/a	LTP287	ltpFR2	16	n/a	n/a	n/a	30	17	9	2	6
4826.178	n/a	PROB	2413089	n/a	LTP287	ltpFR2	16	n/a	n/a	n/a	30	16	5	9	2
4828.234	n/a	PROB	2414117	n/a	LTP287	ltpFR2	16	n/a	n/a	n/a	30	14	4	9	1
4829.606	n/a	PROB	2414803	n/a	LTP287	ltpFR2	16	n/a	n/a	n/a	30	12	4	4	3
4831.146	n/a	PROB	2415573	n/a	LTP287	ltpFR2	16	n/a	n/a	n/a	30	19	5	6	8
4833.33	n/a	STOP	2416665	n/a	LTP287	ltpFR2	16	n/a	n/a	n/a	30	n/a	n/a	n/a	n/a
4835.162	n/a	WORD	2417581	wordpools/wasnorm_wordpool_576.txt	LTP287	ltpFR2	16	21	PLIERS	1089	n/a	n/a	0	0	0
4837.76	n/a	WORD	2418880	wordpools/wasnorm_wordpool_576.txt	LTP287	ltpFR2	16	21	NEUTRON	947	n/a	n/a	0	0	0
4840.236	n/a	WORD	2420118	wordpools/wasnorm_wordpool_576.txt	LTP287	ltpFR2	16	21	ACTRESS	6	n/a	n/a	0	0	0
4843.028	n/a	WORD	2421514	wordpools/wasnorm_wordpool_576.txt	LTP287	ltpFR2	16	21	DANCER	437	n/a	n/a	0	0	0
4845.568	n/a	WORD	2422784	wordpools/wasnorm_wordpool_576.txt	LTP287	ltpFR2	16	21	CHAMPAGNE	278	n/a	n/a	0	0	0
4848.35	n/a	WORD	2424175	wordpools/wasnorm_wordpool_576.txt	LTP287	ltpFR2	16	21	PASTRY	1022	n/a	n/a	0	0	0
4851.076	n/a	WORD	2425538	wordpools/wasnorm_wordpool_576.txt	LTP287	ltpFR2	16	21	CELLAR	267	n/a	n/a	0	0	0
4853.498	n/a	WORD	2426749	wordpools/wasnorm_wordpool_576.txt	LTP287	ltpFR2	16	21	BASEMENT	94	n/a	n/a	0	0	0
4856.146	n/a	WORD	2428073	wordpools/wasnorm_wordpool_576.txt	LTP287	ltpFR2	16	21	CRITIC	410	n/a	n/a	0	0	0
4858.59	n/a	WORD	2429295	wordpools/wasnorm_wordpool_576.txt	LTP287	ltpFR2	16	21	NURSE	963	n/a	n/a	0	0	0
4861.2	n/a	WORD	2430600	wordpools/wasnorm_wordpool_576.txt	LTP287	ltpFR2	16	21	INMATE	738	n/a	n/a	0	0	0
4863.658	n/a	WORD	2431829	wordpools/wasnorm_wordpool_576.txt	LTP287	ltpFR2	16	21	JELLY	755	n/a	n/a	0	0	0
4866.146	n/a	WORD	2433073	wordpools/wasnorm_wordpool_576.txt	LTP287	ltpFR2	16	21	VALLEY	1545	n/a	n/a	0	0	0
4868.838	n/a	WORD	2434419	wordpools/wasnorm_wordpool_576.txt	LTP287	ltpFR2	16	21	HIKER	708	n/a	n/a	0	0	0
4871.504	n/a	WORD	2435752	wordpools/wasnorm_wordpool_576.txt	LTP287	ltpFR2	16	21	HORNET	718	n/a	n/a	0	0	0
4874.294	n/a	WORD	2437147	wordpools/wasnorm_wordpool_576.txt	LTP287	ltpFR2	16	21	EXPERT	543	n/a	n/a	0	0	0
4876.908	n/a	WORD	2438454	wordpools/wasnorm_wordpool_576.txt	LTP287	ltpFR2	16	21	BARLEY	88	n/a	n/a	0	0	0
4879.386	n/a	WORD	2439693	wordpools/wasnorm_wordpool_576.txt	LTP287	ltpFR2	16	21	PREACHER	1119	n/a	n/a	0	0	0
4881.86	n/a	WORD	2440930	wordpools/wasnorm_wordpool_576.txt	LTP287	ltpFR2	16	21	LADDER	793	n/a	n/a	0	0	0
4884.416	n/a	WORD	2442208	wordpools/wasnorm_wordpool_576.txt	LTP287	ltpFR2	16	21	DONOR	485	n/a	n/a	0	0	0
4887.058	n/a	WORD	2443529	wordpools/wasnorm_wordpool_576.txt	LTP287	ltpFR2	16	21	MONSTER	912	n/a	n/a	0	0	0
4889.786	n/a	WORD	2444893	wordpools/wasnorm_wordpool_576.txt	LTP287	ltpFR2	16	21	FIDDLE	561	n/a	n/a	0	0	0
4892.586	n/a	WORD	2446293	wordpools/wasnorm_wordpool_576.txt	LTP287	ltpFR2	16	21	BANQUET	86	n/a	n/a	0	0	0
4895.022	n/a	WORD	2447511	wordpools/wasnorm_wordpool_576.txt	LTP287	ltpFR2	16	21	PATIENT	1024	n/a	n/a	0	0	0
4896.634	n/a	START	2448317	n/a	LTP287	ltpFR2	16	n/a	n/a	n/a	31	n/a	n/a	n/a	n/a
4897.648	n/a	DISTRACTOR	2448824	n/a	LTP287	ltpFR2	16	21	n/a	n/a	n/a	n/a	0	0	0
4897.656	n/a	PROB	2448828	n/a	LTP287	ltpFR2	16	n/a	n/a	n/a	31	10	1	2	7
4899.674	n/a	PROB	2449837	n/a	LTP287	ltpFR2	16	n/a	n/a	n/a	31	11	1	9	1
4901.186	n/a	PROB	2450593	n/a	LTP287	ltpFR2	16	n/a	n/a	n/a	31	15	4	8	3
4903.042	n/a	PROB	2451521	n/a	LTP287	ltpFR2	16	n/a	n/a	n/a	31	11	7	3	1
4904.276	n/a	PROB	2452138	n/a	LTP287	ltpFR2	16	n/a	n/a	n/a	31	7	4	2	1
4906.522	n/a	PROB	2453261	n/a	LTP287	ltpFR2	16	n/a	n/a	n/a	31	16	8	3	5
4908.224	n/a	PROB	2454112	n/a	LTP287	ltpFR2	16	n/a	n/a	n/a	31	22	5	8	9
4910.366	n/a	PROB	2455183	n/a	LTP287	ltpFR2	16	n/a	n/a	n/a	31	11	5	2	4
4912.172	n/a	PROB	2456086	n/a	LTP287	ltpFR2	16	n/a	n/a	n/a	31	13	5	4	4
4913.666	n/a	PROB	2456833	n/a	LTP287	ltpFR2	16	n/a	n/a	n/a	31	18	6	5	7
4915.306	n/a	PROB	2457653	n/a	LTP287	ltpFR2	16	n/a	n/a	n/a	31	11	3	7	1
4916.578	n/a	PROB	2458289	n/a	LTP287	ltpFR2	16	n/a	n/a	n/a	31	12	8	2	2
4917.926	n/a	PROB	2458963	n/a	LTP287	ltpFR2	16	n/a	n/a	n/a	31	12	6	3	3
4919.414	n/a	STOP	2459707	n/a	LTP287	ltpFR2	16	n/a	n/a	n/a	31	n/a	n/a	n/a	n/a
4922.48	n/a	REC_START	2461240	n/a	LTP287	ltpFR2	16	21	n/a	n/a	n/a	n/a	0	0	0
4997.478	n/a	REC_WORD_VV	2498739	wordpools/wasnorm_wordpool_576.txt	LTP287	ltpFR2	16	21	<>	-1	n/a	n/a	0	0	0
5013.582	n/a	WORD	2506791	wordpools/wasnorm_wordpool_576.txt	LTP287	ltpFR2	16	22	DAUGHTER	442	n/a	n/a	0	0	0
5016.308	n/a	WORD	2508154	wordpools/wasnorm_wordpool_576.txt	LTP287	ltpFR2	16	22	FLOWER	584	n/a	n/a	0	0	0
5019.118	n/a	WORD	2509559	wordpools/wasnorm_wordpool_576.txt	LTP287	ltpFR2	16	22	TRUCK	1512	n/a	n/a	0	0	0
5021.558	n/a	WORD	2510779	wordpools/wasnorm_wordpool_576.txt	LTP287	ltpFR2	16	22	COTTAGE	384	n/a	n/a	0	0	0
5024.1	n/a	WORD	2512050	wordpools/wasnorm_wordpool_576.txt	LTP287	ltpFR2	16	22	SHELTER	1282	n/a	n/a	0	0	0
5026.644	n/a	WORD	2513322	wordpools/wasnorm_wordpool_576.txt	LTP287	ltpFR2	16	22	MOTEL	919	n/a	n/a	0	0	0
5029.274	n/a	WORD	2514637	wordpools/wasnorm_wordpool_576.txt	LTP287	ltpFR2	16	22	MEDAL	885	n/a	n/a	0	0	0
5031.884	n/a	WORD	2515942	wordpools/wasnorm_wordpool_576.txt	LTP287	ltpFR2	16	22	VELVET	1555	n/a	n/a	0	0	0
5034.478	n/a	WORD	2517239	wordpools/wasnorm_wordpool_576.txt	LTP287	ltpFR2	16	22	STATUE	1374	n/a	n/a	0	0	0
5036.952	n/a	WORD	2518476	wordpools/wasnorm_wordpool_576.txt	LTP287	ltpFR2	16	22	STONE	1385	n/a	n/a	0	0	0
5039.63	n/a	WORD	2519815	wordpools/wasnorm_wordpool_576.txt	LTP287	ltpFR2	16	22	NIGHTGOWN	953	n/a	n/a	0	0	0
5042.358	n/a	WORD	2521179	wordpools/wasnorm_wordpool_576.txt	LTP287	ltpFR2	16	22	COFFEE	341	n/a	n/a	0	0	0
5044.828	n/a	WORD	2522414	wordpools/wasnorm_wordpool_576.txt	LTP287	ltpFR2	16	22	CAFE	216	n/a	n/a	0	0	0
5047.378	n/a	WORD	2523689	wordpools/wasnorm_wordpool_576.txt	LTP287	ltpFR2	16	22	LIGHTNING	820	n/a	n/a	0	0	0
5050.086	n/a	WORD	2525043	wordpools/wasnorm_wordpool_576.txt	LTP287	ltpFR2	16	22	WHISKERS	1605	n/a	n/a	0	0	0
5052.748	n/a	WORD	2526374	wordpools/wasnorm_wordpool_576.txt	LTP287	ltpFR2	16	22	NOVEL	960	n/a	n/a	0	0	0
5055.324	n/a	WORD	2527662	wordpools/wasnorm_wordpool_576.txt	LTP287	ltpFR2	16	22	TILE	1468	n/a	n/a	0	0	0
5057.912	n/a	WORD	2528956	wordpools/wasnorm_wordpool_576.txt	LTP287	ltpFR2	16	22	WINDOW	1611	n/a	n/a	0	0	0
5060.344	n/a	WORD	2530172	wordpools/wasnorm_wordpool_576.txt	LTP287	ltpFR2	16	22	TWEEZERS	1526	n/a	n/a	0	0	0
5063.154	n/a	WORD	2531577	wordpools/wasnorm_wordpool_576.txt	LTP287	ltpFR2	16	22	LION	827	n/a	n/a	0	0	0
5065.764	n/a	WORD	2532882	wordpools/wasnorm_wordpool_576.txt	LTP287	ltpFR2	16	22	SILK	1307	n/a	n/a	0	0	0
5068.34	n/a	WORD	2534170	wordpools/wasnorm_wordpool_576.txt	LTP287	ltpFR2	16	22	JUDGE	761	n/a	n/a	0	0	0
5070.816	n/a	WORD	2535408	wordpools/wasnorm_wordpool_576.txt	LTP287	ltpFR2	16	22	SHELF	1280	n/a	n/a	0	0	0
5073.26	n/a	WORD	2536630	wordpools/wasnorm_wordpool_576.txt	LTP287	ltpFR2	16	22	SPACE	1345	n/a	n/a	0	0	0
5074.876	n/a	START	2537438	n/a	LTP287	ltpFR2	16	n/a	n/a	n/a	32	n/a	n/a	n/a	n/a
5075.924	n/a	DISTRACTOR	2537962	n/a	LTP287	ltpFR2	16	22	n/a	n/a	n/a	n/a	0	0	0
5075.936	n/a	PROB	2537968	n/a	LTP287	ltpFR2	16	n/a	n/a	n/a	32	16	8	4	4
5077.944	n/a	PROB	2538972	n/a	LTP287	ltpFR2	16	n/a	n/a	n/a	32	6	4	1	1
5080.098	n/a	PROB	2540049	n/a	LTP287	ltpFR2	16	n/a	n/a	n/a	32	10	4	3	3
5081.524	n/a	PROB	2540762	n/a	LTP287	ltpFR2	16	n/a	n/a	n/a	32	13	8	3	2
5083.244	n/a	PROB	2541622	n/a	LTP287	ltpFR2	16	n/a	n/a	n/a	32	16	8	7	1
5084.97	n/a	PROB	2542485	n/a	LTP287	ltpFR2	16	n/a	n/a	n/a	32	11	3	2	6
5086.426	n/a	PROB	2543213	n/a	LTP287	ltpFR2	16	n/a	n/a	n/a	32	14	5	3	6
5088.06	n/a	PROB	2544030	n/a	LTP287	ltpFR2	16	n/a	n/a	n/a	32	15	4	9	2
5090.608	n/a	PROB	2545304	n/a	LTP287	ltpFR2	16	n/a	n/a	n/a	32	21	8	8	5
5092.31	n/a	PROB	2546155	n/a	LTP287	ltpFR2	16	n/a	n/a	n/a	32	12	2	3	7
5094.754	n/a	PROB	2547377	n/a	LTP287	ltpFR2	16	n/a	n/a	n/a	32	17	6	4	7
5098.878	n/a	STOP	2549439	n/a	LTP287	ltpFR2	16	n/a	n/a	n/a	32	n/a	n/a	n/a	n/a
5100.81	n/a	REC_START	2550405	n/a	LTP287	ltpFR2	16	22	n/a	n/a	n/a	n/a	0	0	0
5175.814	n/a	REC_WORD_VV	2587907	wordpools/wasnorm_wordpool_576.txt	LTP287	ltpFR2	16	22	<>	-1	n/a	n/a	0	0	0
