onset	duration	trial_type	sample	stim_file	subject	experiment	session	trial	task	item_name	item_num	recog_resp	recog_conf	resp	color_r	color_g	color_b	case	font
291.102	n/a	SESS_START	145551	n/a	LTP117	ltpFR	16	n/a	n/a	n/a	n/a	1	4	n/a	n/a	n/a	n/a	n/a	n/a
340.128	n/a	WORD	170064	wordpools/wasnorm_wordpool.txt	LTP117	ltpFR	16	1	0	DRAGON	492	0	n/a	1	0.57763671875	0.412841796875	1	upper	zerothre.ttf
344.32	n/a	WORD	172160	wordpools/wasnorm_wordpool.txt	LTP117	ltpFR	16	1	0	CAMEL	223	n/a	n/a	1	0.57763671875	0.412841796875	1	upper	zerothre.ttf
348.176	n/a	WORD	174088	wordpools/wasnorm_wordpool.txt	LTP117	ltpFR	16	1	0	LIZARD	834	n/a	n/a	1	0.57763671875	0.412841796875	1	upper	zerothre.ttf
352.058	n/a	WORD	176029	wordpools/wasnorm_wordpool.txt	LTP117	ltpFR	16	1	0	BROTHER	179	n/a	n/a	1	0.57763671875	0.412841796875	1	upper	zerothre.ttf
355.924	n/a	WORD	177962	wordpools/wasnorm_wordpool.txt	LTP117	ltpFR	16	1	1	AUTOMOBILE	62	n/a	n/a	1	0.422607421875	0.5869140625	0	lower	amplitud.ttf
360.03	n/a	WORD	180015	wordpools/wasnorm_wordpool.txt	LTP117	ltpFR	16	1	1	LOLLIPOP	842	n/a	n/a	1	0.422607421875	0.5869140625	0	lower	amplitud.ttf
364.104	n/a	WORD	182052	wordpools/wasnorm_wordpool.txt	LTP117	ltpFR	16	1	1	MOTHER	921	n/a	n/a	1	0.422607421875	0.5869140625	0	lower	amplitud.ttf
368.312	n/a	WORD	184156	wordpools/wasnorm_wordpool.txt	LTP117	ltpFR	16	1	1	OATS	968	n/a	n/a	1	0.422607421875	0.5869140625	0	lower	amplitud.ttf
372.344	n/a	WORD	186172	wordpools/wasnorm_wordpool.txt	LTP117	ltpFR	16	1	0	CEREAL	272	n/a	n/a	1	0.57763671875	0.412841796875	1	upper	zerothre.ttf
376.536	n/a	WORD	188268	wordpools/wasnorm_wordpool.txt	LTP117	ltpFR	16	1	0	BUS	201	n/a	n/a	0	0.57763671875	0.412841796875	1	upper	zerothre.ttf
380.566	n/a	WORD	190283	wordpools/wasnorm_wordpool.txt	LTP117	ltpFR	16	1	0	DOUGH	489	n/a	n/a	1	0.57763671875	0.412841796875	1	upper	zerothre.ttf
384.49	n/a	WORD	192245	wordpools/wasnorm_wordpool.txt	LTP117	ltpFR	16	1	0	FLOUR	583	n/a	n/a	1	0.57763671875	0.412841796875	1	upper	zerothre.ttf
388.506	n/a	WORD	194253	wordpools/wasnorm_wordpool.txt	LTP117	ltpFR	16	1	1	RIDER	1191	n/a	n/a	1	0.422607421875	0.5869140625	0	lower	amplitud.ttf
392.372	n/a	WORD	196186	wordpools/wasnorm_wordpool.txt	LTP117	ltpFR	16	1	1	GUM	672	n/a	n/a	1	0.422607421875	0.5869140625	0	lower	amplitud.ttf
396.37	n/a	WORD	198185	wordpools/wasnorm_wordpool.txt	LTP117	ltpFR	16	1	1	SPOOL	1356	n/a	n/a	1	0.422607421875	0.5869140625	0	lower	amplitud.ttf
400.236	n/a	WORD	200118	wordpools/wasnorm_wordpool.txt	LTP117	ltpFR	16	1	1	EARRING	514	n/a	n/a	1	0.422607421875	0.5869140625	0	lower	amplitud.ttf
405.908	n/a	REC_START	202954	n/a	LTP117	ltpFR	16	1	n/a	n/a	n/a	n/a	n/a	n/a	n/a	n/a	n/a	n/a	n/a
406.278	n/a	REC_WORD	203139	wordpools/wasnorm_wordpool.txt	LTP117	ltpFR	16	1	1	SPOOL	1356	n/a	n/a	1	n/a	n/a	n/a	n/a	n/a
407.246	n/a	REC_WORD	203623	wordpools/wasnorm_wordpool.txt	LTP117	ltpFR	16	1	1	EARRING	514	n/a	n/a	1	n/a	n/a	n/a	n/a	n/a
409.092	n/a	REC_WORD	204546	wordpools/wasnorm_wordpool.txt	LTP117	ltpFR	16	1	0	DOUGH	489	n/a	n/a	1	n/a	n/a	n/a	n/a	n/a
409.734	n/a	REC_WORD	204867	wordpools/wasnorm_wordpool.txt	LTP117	ltpFR	16	1	0	FLOUR	583	n/a	n/a	1	n/a	n/a	n/a	n/a	n/a
411.048	n/a	REC_WORD	205524	wordpools/wasnorm_wordpool.txt	LTP117	ltpFR	16	1	0	DRAGON	492	n/a	n/a	1	n/a	n/a	n/a	n/a	n/a
411.786	n/a	REC_WORD	205893	wordpools/wasnorm_wordpool.txt	LTP117	ltpFR	16	1	0	CAMEL	223	n/a	n/a	1	n/a	n/a	n/a	n/a	n/a
412.49	n/a	REC_WORD	206245	wordpools/wasnorm_wordpool.txt	LTP117	ltpFR	16	1	0	LIZARD	834	n/a	n/a	1	n/a	n/a	n/a	n/a	n/a
413.192	n/a	REC_WORD	206596	wordpools/wasnorm_wordpool.txt	LTP117	ltpFR	16	1	0	BROTHER	179	n/a	n/a	1	n/a	n/a	n/a	n/a	n/a
414.266	n/a	REC_WORD	207133	wordpools/wasnorm_wordpool.txt	LTP117	ltpFR	16	1	1	RIDER	1191	n/a	n/a	1	n/a	n/a	n/a	n/a	n/a
415.254	n/a	REC_WORD	207627	wordpools/wasnorm_wordpool.txt	LTP117	ltpFR	16	1	1	OATS	968	n/a	n/a	1	n/a	n/a	n/a	n/a	n/a
421.15	n/a	REC_WORD	210575	wordpools/wasnorm_wordpool.txt	LTP117	ltpFR	16	1	0	BROTHER	179	n/a	n/a	1	n/a	n/a	n/a	n/a	n/a
422.452	n/a	REC_WORD	211226	wordpools/wasnorm_wordpool.txt	LTP117	ltpFR	16	1	1	MOTHER	921	n/a	n/a	1	n/a	n/a	n/a	n/a	n/a
425.968	n/a	REC_WORD	212984	wordpools/wasnorm_wordpool.txt	LTP117	ltpFR	16	1	0	BUS	201	n/a	n/a	0	n/a	n/a	n/a	n/a	n/a
431.028	n/a	REC_WORD	215514	wordpools/wasnorm_wordpool.txt	LTP117	ltpFR	16	1	n/a	SCHOOL	1248	n/a	n/a	n/a	n/a	n/a	n/a	n/a	n/a
431.478	n/a	REC_WORD	215739	wordpools/wasnorm_wordpool.txt	LTP117	ltpFR	16	1	0	BUS	201	n/a	n/a	0	n/a	n/a	n/a	n/a	n/a
432.51	n/a	REC_WORD	216255	wordpools/wasnorm_wordpool.txt	LTP117	ltpFR	16	1	0	BUS	201	n/a	n/a	0	n/a	n/a	n/a	n/a	n/a
453.818	n/a	REC_WORD	226909	wordpools/wasnorm_wordpool.txt	LTP117	ltpFR	16	1	n/a	ANIMAL	23	n/a	n/a	n/a	n/a	n/a	n/a	n/a	n/a
485.942	n/a	WORD	242971	wordpools/wasnorm_wordpool.txt	LTP117	ltpFR	16	2	1	CHEST	295	n/a	n/a	1	0.422607421875	0.5869140625	0	lower	amplitud.ttf
489.884	n/a	WORD	244942	wordpools/wasnorm_wordpool.txt	LTP117	ltpFR	16	2	1	HEAD	695	n/a	n/a	1	0.422607421875	0.5869140625	0	lower	amplitud.ttf
493.766	n/a	WORD	246883	wordpools/wasnorm_wordpool.txt	LTP117	ltpFR	16	2	1	EYE	545	n/a	n/a	1	0.422607421875	0.5869140625	0	lower	amplitud.ttf
497.814	n/a	WORD	248907	wordpools/wasnorm_wordpool.txt	LTP117	ltpFR	16	2	1	STABLE	1363	n/a	n/a	1	0.422607421875	0.5869140625	0	lower	amplitud.ttf
501.638	n/a	WORD	250819	wordpools/wasnorm_wordpool.txt	LTP117	ltpFR	16	2	1	QUAIL	1147	n/a	n/a	1	0.422607421875	0.5869140625	0	lower	amplitud.ttf
505.612	n/a	WORD	252806	wordpools/wasnorm_wordpool.txt	LTP117	ltpFR	16	2	0	SUPERVISOR	1410	n/a	n/a	1	0.57763671875	0.412841796875	1	upper	zerothre.ttf
509.478	n/a	WORD	254739	wordpools/wasnorm_wordpool.txt	LTP117	ltpFR	16	2	0	FEAST	556	n/a	n/a	1	0.57763671875	0.412841796875	1	upper	zerothre.ttf
513.294	n/a	WORD	256647	wordpools/wasnorm_wordpool.txt	LTP117	ltpFR	16	2	0	LENS	811	n/a	n/a	0	0.57763671875	0.412841796875	1	upper	zerothre.ttf
517.258	n/a	WORD	258629	wordpools/wasnorm_wordpool.txt	LTP117	ltpFR	16	2	0	GUITAR	670	n/a	n/a	0	0.57763671875	0.412841796875	1	upper	zerothre.ttf
521.35	n/a	WORD	260675	wordpools/wasnorm_wordpool.txt	LTP117	ltpFR	16	2	0	BAND	78	n/a	n/a	0	0.57763671875	0.412841796875	1	upper	zerothre.ttf
525.524	n/a	WORD	262762	wordpools/wasnorm_wordpool.txt	LTP117	ltpFR	16	2	1	DINOSAUR	469	n/a	n/a	2	0.422607421875	0.5869140625	0	lower	amplitud.ttf
526.256	n/a	KEY_MSG	263128	n/a	LTP117	ltpFR	16	2	n/a	n/a	n/a	n/a	n/a	n/a	n/a	n/a	n/a	n/a	n/a
529.648	n/a	WORD	264824	wordpools/wasnorm_wordpool.txt	LTP117	ltpFR	16	2	1	MICROSCOPE	891	n/a	n/a	1	0.422607421875	0.5869140625	0	lower	amplitud.ttf
533.794	n/a	WORD	266897	wordpools/wasnorm_wordpool.txt	LTP117	ltpFR	16	2	1	PRAIRIE	1118	n/a	n/a	1	0.422607421875	0.5869140625	0	lower	amplitud.ttf
537.81	n/a	WORD	268905	wordpools/wasnorm_wordpool.txt	LTP117	ltpFR	16	2	0	HORSE	719	n/a	n/a	1	0.57763671875	0.412841796875	1	upper	zerothre.ttf
541.826	n/a	WORD	270913	wordpools/wasnorm_wordpool.txt	LTP117	ltpFR	16	2	0	BLACKBERRY	132	n/a	n/a	1	0.57763671875	0.412841796875	1	upper	zerothre.ttf
545.8	n/a	WORD	272900	wordpools/wasnorm_wordpool.txt	LTP117	ltpFR	16	2	0	ATOM	55	n/a	n/a	1	0.57763671875	0.412841796875	1	upper	zerothre.ttf
551.682	n/a	REC_START	275841	n/a	LTP117	ltpFR	16	2	n/a	n/a	n/a	n/a	n/a	n/a	n/a	n/a	n/a	n/a	n/a
552.236	n/a	REC_WORD	276118	wordpools/wasnorm_wordpool.txt	LTP117	ltpFR	16	2	0	HORSE	719	n/a	n/a	1	n/a	n/a	n/a	n/a	n/a
552.96	n/a	REC_WORD	276480	wordpools/wasnorm_wordpool.txt	LTP117	ltpFR	16	2	0	BLACKBERRY	132	n/a	n/a	1	n/a	n/a	n/a	n/a	n/a
553.928	n/a	REC_WORD	276964	wordpools/wasnorm_wordpool.txt	LTP117	ltpFR	16	2	0	ATOM	55	n/a	n/a	1	n/a	n/a	n/a	n/a	n/a
556.566	n/a	REC_WORD	278283	wordpools/wasnorm_wordpool.txt	LTP117	ltpFR	16	2	0	GUITAR	670	n/a	n/a	0	n/a	n/a	n/a	n/a	n/a
557.474	n/a	REC_WORD	278737	wordpools/wasnorm_wordpool.txt	LTP117	ltpFR	16	2	0	BAND	78	n/a	n/a	0	n/a	n/a	n/a	n/a	n/a
560.278	n/a	REC_WORD	280139	wordpools/wasnorm_wordpool.txt	LTP117	ltpFR	16	2	0	SUPERVISOR	1410	n/a	n/a	1	n/a	n/a	n/a	n/a	n/a
561.178	n/a	REC_WORD	280589	wordpools/wasnorm_wordpool.txt	LTP117	ltpFR	16	2	0	FEAST	556	n/a	n/a	1	n/a	n/a	n/a	n/a	n/a
566.988	n/a	REC_WORD	283494	wordpools/wasnorm_wordpool.txt	LTP117	ltpFR	16	2	1	CHEST	295	n/a	n/a	1	n/a	n/a	n/a	n/a	n/a
568.56	n/a	REC_WORD	284280	wordpools/wasnorm_wordpool.txt	LTP117	ltpFR	16	2	1	HEAD	695	n/a	n/a	1	n/a	n/a	n/a	n/a	n/a
569.982	n/a	REC_WORD	284991	wordpools/wasnorm_wordpool.txt	LTP117	ltpFR	16	2	1	EYE	545	n/a	n/a	1	n/a	n/a	n/a	n/a	n/a
571.424	n/a	REC_WORD	285712	wordpools/wasnorm_wordpool.txt	LTP117	ltpFR	16	2	1	STABLE	1363	n/a	n/a	1	n/a	n/a	n/a	n/a	n/a
572.806	n/a	REC_WORD	286403	wordpools/wasnorm_wordpool.txt	LTP117	ltpFR	16	2	1	QUAIL	1147	n/a	n/a	1	n/a	n/a	n/a	n/a	n/a
584.814	n/a	REC_WORD	292407	wordpools/wasnorm_wordpool.txt	LTP117	ltpFR	16	2	1	AUTOMOBILE	62	n/a	n/a	1	n/a	n/a	n/a	n/a	n/a
635.64	n/a	WORD	317820	wordpools/wasnorm_wordpool.txt	LTP117	ltpFR	16	3	0	KNOT	788	n/a	n/a	0	0.57763671875	0.412841796875	1	upper	zerothre.ttf
639.456	n/a	WORD	319728	wordpools/wasnorm_wordpool.txt	LTP117	ltpFR	16	3	0	WELL	1600	n/a	n/a	1	0.57763671875	0.412841796875	1	upper	zerothre.ttf
643.654	n/a	WORD	321827	wordpools/wasnorm_wordpool.txt	LTP117	ltpFR	16	3	0	MUSEUM	933	n/a	n/a	1	0.57763671875	0.412841796875	1	upper	zerothre.ttf
647.502	n/a	WORD	323751	wordpools/wasnorm_wordpool.txt	LTP117	ltpFR	16	3	0	SCULPTURE	1258	n/a	n/a	1	0.57763671875	0.412841796875	1	upper	zerothre.ttf
651.494	n/a	WORD	325747	wordpools/wasnorm_wordpool.txt	LTP117	ltpFR	16	3	0	CREAM	402	n/a	n/a	1	0.57763671875	0.412841796875	1	upper	zerothre.ttf
655.608	n/a	WORD	327804	wordpools/wasnorm_wordpool.txt	LTP117	ltpFR	16	3	0	MARSH	874	n/a	n/a	3	0.57763671875	0.412841796875	1	upper	zerothre.ttf
656.6	n/a	KEY_MSG	328300	n/a	LTP117	ltpFR	16	3	n/a	n/a	n/a	n/a	n/a	n/a	n/a	n/a	n/a	n/a	n/a
659.516	n/a	WORD	329758	wordpools/wasnorm_wordpool.txt	LTP117	ltpFR	16	3	0	BILL	126	n/a	n/a	1	0.57763671875	0.412841796875	1	upper	zerothre.ttf
663.632	n/a	WORD	331816	wordpools/wasnorm_wordpool.txt	LTP117	ltpFR	16	3	0	TILE	1468	n/a	n/a	0	0.57763671875	0.412841796875	1	upper	zerothre.ttf
667.53	n/a	WORD	333765	wordpools/wasnorm_wordpool.txt	LTP117	ltpFR	16	3	0	SHINGLE	1285	n/a	n/a	0	0.57763671875	0.412841796875	1	upper	zerothre.ttf
671.62	n/a	WORD	335810	wordpools/wasnorm_wordpool.txt	LTP117	ltpFR	16	3	0	KANGAROO	768	n/a	n/a	0	0.57763671875	0.412841796875	1	upper	zerothre.ttf
675.47	n/a	WORD	337735	wordpools/wasnorm_wordpool.txt	LTP117	ltpFR	16	3	0	GRASSHOPPER	656	n/a	n/a	0	0.57763671875	0.412841796875	1	upper	zerothre.ttf
679.476	n/a	WORD	339738	wordpools/wasnorm_wordpool.txt	LTP117	ltpFR	16	3	0	NOOSE	956	n/a	n/a	1	0.57763671875	0.412841796875	1	upper	zerothre.ttf
683.558	n/a	WORD	341779	wordpools/wasnorm_wordpool.txt	LTP117	ltpFR	16	3	0	SEA	1259	n/a	n/a	1	0.57763671875	0.412841796875	1	upper	zerothre.ttf
687.69	n/a	WORD	343845	wordpools/wasnorm_wordpool.txt	LTP117	ltpFR	16	3	0	FORT	595	n/a	n/a	1	0.57763671875	0.412841796875	1	upper	zerothre.ttf
691.63	n/a	WORD	345815	wordpools/wasnorm_wordpool.txt	LTP117	ltpFR	16	3	0	BEAKER	104	n/a	n/a	1	0.57763671875	0.412841796875	1	upper	zerothre.ttf
695.662	n/a	WORD	347831	wordpools/wasnorm_wordpool.txt	LTP117	ltpFR	16	3	0	TEA	1439	n/a	n/a	1	0.57763671875	0.412841796875	1	upper	zerothre.ttf
701.462	n/a	REC_START	350731	n/a	LTP117	ltpFR	16	3	n/a	n/a	n/a	n/a	n/a	n/a	n/a	n/a	n/a	n/a	n/a
701.996	n/a	REC_WORD	350998	wordpools/wasnorm_wordpool.txt	LTP117	ltpFR	16	3	0	NOOSE	956	n/a	n/a	1	n/a	n/a	n/a	n/a	n/a
702.65	n/a	REC_WORD	351325	wordpools/wasnorm_wordpool.txt	LTP117	ltpFR	16	3	0	SEA	1259	n/a	n/a	1	n/a	n/a	n/a	n/a	n/a
703.418	n/a	REC_WORD	351709	wordpools/wasnorm_wordpool.txt	LTP117	ltpFR	16	3	0	FORT	595	n/a	n/a	1	n/a	n/a	n/a	n/a	n/a
704.29	n/a	REC_WORD	352145	wordpools/wasnorm_wordpool.txt	LTP117	ltpFR	16	3	0	BEAKER	104	n/a	n/a	1	n/a	n/a	n/a	n/a	n/a
705.074	n/a	REC_WORD	352537	wordpools/wasnorm_wordpool.txt	LTP117	ltpFR	16	3	0	TEA	1439	n/a	n/a	1	n/a	n/a	n/a	n/a	n/a
707.524	n/a	REC_WORD	353762	wordpools/wasnorm_wordpool.txt	LTP117	ltpFR	16	3	0	KNOT	788	n/a	n/a	0	n/a	n/a	n/a	n/a	n/a
708.336	n/a	REC_WORD	354168	wordpools/wasnorm_wordpool.txt	LTP117	ltpFR	16	3	0	WELL	1600	n/a	n/a	1	n/a	n/a	n/a	n/a	n/a
709.194	n/a	REC_WORD	354597	wordpools/wasnorm_wordpool.txt	LTP117	ltpFR	16	3	0	MUSEUM	933	n/a	n/a	1	n/a	n/a	n/a	n/a	n/a
710.916	n/a	REC_WORD	355458	wordpools/wasnorm_wordpool.txt	LTP117	ltpFR	16	3	0	SCULPTURE	1258	n/a	n/a	1	n/a	n/a	n/a	n/a	n/a
716.124	n/a	REC_WORD	358062	wordpools/wasnorm_wordpool.txt	LTP117	ltpFR	16	3	0	BILL	126	n/a	n/a	1	n/a	n/a	n/a	n/a	n/a
719.078	n/a	REC_WORD	359539	wordpools/wasnorm_wordpool.txt	LTP117	ltpFR	16	3	0	TILE	1468	n/a	n/a	0	n/a	n/a	n/a	n/a	n/a
720.23	n/a	REC_WORD	360115	wordpools/wasnorm_wordpool.txt	LTP117	ltpFR	16	3	0	SHINGLE	1285	n/a	n/a	0	n/a	n/a	n/a	n/a	n/a
778.854	n/a	WORD	389427	wordpools/wasnorm_wordpool.txt	LTP117	ltpFR	16	4	-1	CRICKET	408	n/a	n/a	-1	1.0	1.0	1	upper	Verdana.ttf
782.77	n/a	WORD	391385	wordpools/wasnorm_wordpool.txt	LTP117	ltpFR	16	4	-1	SALOON	1228	n/a	n/a	-1	1.0	1.0	1	upper	Verdana.ttf
786.86	n/a	WORD	393430	wordpools/wasnorm_wordpool.txt	LTP117	ltpFR	16	4	-1	STREET	1393	n/a	n/a	-1	1.0	1.0	1	upper	Verdana.ttf
790.91	n/a	WORD	395455	wordpools/wasnorm_wordpool.txt	LTP117	ltpFR	16	4	-1	CHIP	303	n/a	n/a	-1	1.0	1.0	1	upper	Verdana.ttf
795.0	n/a	WORD	397500	wordpools/wasnorm_wordpool.txt	LTP117	ltpFR	16	4	-1	ROACH	1195	n/a	n/a	-1	1.0	1.0	1	upper	Verdana.ttf
799.156	n/a	WORD	399578	wordpools/wasnorm_wordpool.txt	LTP117	ltpFR	16	4	-1	SAILOR	1223	n/a	n/a	-1	1.0	1.0	1	upper	Verdana.ttf
802.98	n/a	WORD	401490	wordpools/wasnorm_wordpool.txt	LTP117	ltpFR	16	4	-1	RUM	1217	n/a	n/a	-1	1.0	1.0	1	upper	Verdana.ttf
806.97	n/a	WORD	403485	wordpools/wasnorm_wordpool.txt	LTP117	ltpFR	16	4	-1	OINTMENT	974	n/a	n/a	-1	1.0	1.0	1	upper	Verdana.ttf
810.92	n/a	WORD	405460	wordpools/wasnorm_wordpool.txt	LTP117	ltpFR	16	4	-1	BLADE	134	n/a	n/a	-1	1.0	1.0	1	upper	Verdana.ttf
814.86	n/a	WORD	407430	wordpools/wasnorm_wordpool.txt	LTP117	ltpFR	16	4	-1	CARD	243	n/a	n/a	-1	1.0	1.0	1	upper	Verdana.ttf
818.742	n/a	WORD	409371	wordpools/wasnorm_wordpool.txt	LTP117	ltpFR	16	4	-1	SOFTBALL	1343	n/a	n/a	-1	1.0	1.0	1	upper	Verdana.ttf
822.7	n/a	WORD	411350	wordpools/wasnorm_wordpool.txt	LTP117	ltpFR	16	4	-1	PARCEL	1012	n/a	n/a	-1	1.0	1.0	1	upper	Verdana.ttf
826.656	n/a	WORD	413328	wordpools/wasnorm_wordpool.txt	LTP117	ltpFR	16	4	-1	GIFT	635	n/a	n/a	-1	1.0	1.0	1	upper	Verdana.ttf
830.648	n/a	WORD	415324	wordpools/wasnorm_wordpool.txt	LTP117	ltpFR	16	4	-1	SCALLOP	1242	n/a	n/a	-1	1.0	1.0	1	upper	Verdana.ttf
834.53	n/a	WORD	417265	wordpools/wasnorm_wordpool.txt	LTP117	ltpFR	16	4	-1	CONCERT	360	n/a	n/a	-1	1.0	1.0	1	upper	Verdana.ttf
838.646	n/a	WORD	419323	wordpools/wasnorm_wordpool.txt	LTP117	ltpFR	16	4	-1	TURTLE	1522	n/a	n/a	-1	1.0	1.0	1	upper	Verdana.ttf
844.218	n/a	REC_START	422109	n/a	LTP117	ltpFR	16	4	n/a	n/a	n/a	n/a	n/a	n/a	n/a	n/a	n/a	n/a	n/a
844.552	n/a	REC_WORD	422276	wordpools/wasnorm_wordpool.txt	LTP117	ltpFR	16	4	-1	CONCERT	360	n/a	n/a	-1	n/a	n/a	n/a	n/a	n/a
845.336	n/a	REC_WORD	422668	wordpools/wasnorm_wordpool.txt	LTP117	ltpFR	16	4	-1	TURTLE	1522	n/a	n/a	-1	n/a	n/a	n/a	n/a	n/a
846.064	n/a	REC_WORD	423032	wordpools/wasnorm_wordpool.txt	LTP117	ltpFR	16	4	-1	SOFTBALL	1343	n/a	n/a	-1	n/a	n/a	n/a	n/a	n/a
854.79	n/a	REC_WORD	427395	wordpools/wasnorm_wordpool.txt	LTP117	ltpFR	16	4	-1	SALOON	1228	n/a	n/a	-1	n/a	n/a	n/a	n/a	n/a
855.972	n/a	REC_WORD	427986	wordpools/wasnorm_wordpool.txt	LTP117	ltpFR	16	4	-1	ROACH	1195	n/a	n/a	-1	n/a	n/a	n/a	n/a	n/a
857.38	n/a	REC_WORD	428690	wordpools/wasnorm_wordpool.txt	LTP117	ltpFR	16	4	-1	SCALLOP	1242	n/a	n/a	-1	n/a	n/a	n/a	n/a	n/a
859.09	n/a	REC_WORD	429545	wordpools/wasnorm_wordpool.txt	LTP117	ltpFR	16	4	-1	CARD	243	n/a	n/a	-1	n/a	n/a	n/a	n/a	n/a
859.884	n/a	REC_WORD	429942	wordpools/wasnorm_wordpool.txt	LTP117	ltpFR	16	4	-1	OINTMENT	974	n/a	n/a	-1	n/a	n/a	n/a	n/a	n/a
860.568	n/a	REC_WORD	430284	wordpools/wasnorm_wordpool.txt	LTP117	ltpFR	16	4	-1	BLADE	134	n/a	n/a	-1	n/a	n/a	n/a	n/a	n/a
861.574	n/a	REC_WORD	430787	wordpools/wasnorm_wordpool.txt	LTP117	ltpFR	16	4	-1	SAILOR	1223	n/a	n/a	-1	n/a	n/a	n/a	n/a	n/a
862.422	n/a	REC_WORD	431211	wordpools/wasnorm_wordpool.txt	LTP117	ltpFR	16	4	-1	CHIP	303	n/a	n/a	-1	n/a	n/a	n/a	n/a	n/a
866.734	n/a	REC_WORD	433367	wordpools/wasnorm_wordpool.txt	LTP117	ltpFR	16	4	0	GRASSHOPPER	656	n/a	n/a	0	n/a	n/a	n/a	n/a	n/a
867.672	n/a	REC_WORD	433836	wordpools/wasnorm_wordpool.txt	LTP117	ltpFR	16	4	0	KANGAROO	768	n/a	n/a	0	n/a	n/a	n/a	n/a	n/a
879.486	n/a	REC_WORD	439743	wordpools/wasnorm_wordpool.txt	LTP117	ltpFR	16	4	-1	STREET	1393	n/a	n/a	-1	n/a	n/a	n/a	n/a	n/a
890.72	n/a	REC_WORD	445360	wordpools/wasnorm_wordpool.txt	LTP117	ltpFR	16	4	-1	SAILOR	1223	n/a	n/a	-1	n/a	n/a	n/a	n/a	n/a
898.818	n/a	REC_WORD	449409	wordpools/wasnorm_wordpool.txt	LTP117	ltpFR	16	4	-1	RUM	1217	n/a	n/a	-1	n/a	n/a	n/a	n/a	n/a
931.042	n/a	WORD	465521	wordpools/wasnorm_wordpool.txt	LTP117	ltpFR	16	5	1	POSSUM	1112	n/a	n/a	1	0.422607421875	0.5869140625	0	lower	amplitud.ttf
935.208	n/a	WORD	467604	wordpools/wasnorm_wordpool.txt	LTP117	ltpFR	16	5	1	VET	1560	n/a	n/a	1	0.422607421875	0.5869140625	0	lower	amplitud.ttf
939.114	n/a	WORD	469557	wordpools/wasnorm_wordpool.txt	LTP117	ltpFR	16	5	1	BATTERY	101	n/a	n/a	1	0.422607421875	0.5869140625	0	lower	amplitud.ttf
943.23	n/a	WORD	471615	wordpools/wasnorm_wordpool.txt	LTP117	ltpFR	16	5	1	DRIVER	499	n/a	n/a	1	0.422607421875	0.5869140625	0	lower	amplitud.ttf
947.07	n/a	WORD	473535	wordpools/wasnorm_wordpool.txt	LTP117	ltpFR	16	5	1	MOSQUITO	917	n/a	n/a	1	0.422607421875	0.5869140625	0	lower	amplitud.ttf
951.228	n/a	WORD	475614	wordpools/wasnorm_wordpool.txt	LTP117	ltpFR	16	5	1	PROTON	1132	n/a	n/a	1	0.422607421875	0.5869140625	0	lower	amplitud.ttf
955.118	n/a	WORD	477559	wordpools/wasnorm_wordpool.txt	LTP117	ltpFR	16	5	1	PROFESSOR	1131	n/a	n/a	1	0.422607421875	0.5869140625	0	lower	amplitud.ttf
959.074	n/a	WORD	479537	wordpools/wasnorm_wordpool.txt	LTP117	ltpFR	16	5	1	CONDUCTOR	362	n/a	n/a	1	0.422607421875	0.5869140625	0	lower	amplitud.ttf
962.998	n/a	WORD	481499	wordpools/wasnorm_wordpool.txt	LTP117	ltpFR	16	5	1	HUT	729	n/a	n/a	1	0.422607421875	0.5869140625	0	lower	amplitud.ttf
966.93	n/a	WORD	483465	wordpools/wasnorm_wordpool.txt	LTP117	ltpFR	16	5	1	CHART	282	n/a	n/a	1	0.422607421875	0.5869140625	0	lower	amplitud.ttf
970.954	n/a	WORD	485477	wordpools/wasnorm_wordpool.txt	LTP117	ltpFR	16	5	1	COURSE	390	n/a	n/a	1	0.422607421875	0.5869140625	0	lower	amplitud.ttf
974.802	n/a	WORD	487401	wordpools/wasnorm_wordpool.txt	LTP117	ltpFR	16	5	1	MOAT	903	n/a	n/a	1	0.422607421875	0.5869140625	0	lower	amplitud.ttf
978.62	n/a	WORD	489310	wordpools/wasnorm_wordpool.txt	LTP117	ltpFR	16	5	1	SCHOOL	1248	n/a	n/a	1	0.422607421875	0.5869140625	0	lower	amplitud.ttf
982.744	n/a	WORD	491372	wordpools/wasnorm_wordpool.txt	LTP117	ltpFR	16	5	1	DRAWING	494	n/a	n/a	1	0.422607421875	0.5869140625	0	lower	amplitud.ttf
986.718	n/a	WORD	493359	wordpools/wasnorm_wordpool.txt	LTP117	ltpFR	16	5	1	DEPARTMENT	449	n/a	n/a	1	0.422607421875	0.5869140625	0	lower	amplitud.ttf
990.658	n/a	WORD	495329	wordpools/wasnorm_wordpool.txt	LTP117	ltpFR	16	5	1	GRADUATE	653	n/a	n/a	1	0.422607421875	0.5869140625	0	lower	amplitud.ttf
996.498	n/a	REC_START	498249	n/a	LTP117	ltpFR	16	5	n/a	n/a	n/a	n/a	n/a	n/a	n/a	n/a	n/a	n/a	n/a
996.766	n/a	REC_WORD	498383	wordpools/wasnorm_wordpool.txt	LTP117	ltpFR	16	5	1	DRAWING	494	n/a	n/a	1	n/a	n/a	n/a	n/a	n/a
997.444	n/a	REC_WORD	498722	wordpools/wasnorm_wordpool.txt	LTP117	ltpFR	16	5	1	DEPARTMENT	449	n/a	n/a	1	n/a	n/a	n/a	n/a	n/a
999.29	n/a	REC_WORD	499645	wordpools/wasnorm_wordpool.txt	LTP117	ltpFR	16	5	1	GRADUATE	653	n/a	n/a	1	n/a	n/a	n/a	n/a	n/a
1001.348	n/a	REC_WORD	500674	wordpools/wasnorm_wordpool.txt	LTP117	ltpFR	16	5	1	SCHOOL	1248	n/a	n/a	1	n/a	n/a	n/a	n/a	n/a
1002.118	n/a	REC_WORD	501059	wordpools/wasnorm_wordpool.txt	LTP117	ltpFR	16	5	1	HUT	729	n/a	n/a	1	n/a	n/a	n/a	n/a	n/a
1006.76	n/a	REC_WORD	503380	wordpools/wasnorm_wordpool.txt	LTP117	ltpFR	16	5	1	POSSUM	1112	n/a	n/a	1	n/a	n/a	n/a	n/a	n/a
1010.048	n/a	REC_WORD	505024	wordpools/wasnorm_wordpool.txt	LTP117	ltpFR	16	5	1	VET	1560	n/a	n/a	1	n/a	n/a	n/a	n/a	n/a
1011.44	n/a	REC_WORD	505720	wordpools/wasnorm_wordpool.txt	LTP117	ltpFR	16	5	1	BATTERY	101	n/a	n/a	1	n/a	n/a	n/a	n/a	n/a
1013.04	n/a	REC_WORD	506520	wordpools/wasnorm_wordpool.txt	LTP117	ltpFR	16	5	1	DRIVER	499	n/a	n/a	1	n/a	n/a	n/a	n/a	n/a
1014.682	n/a	REC_WORD	507341	wordpools/wasnorm_wordpool.txt	LTP117	ltpFR	16	5	1	MOSQUITO	917	n/a	n/a	1	n/a	n/a	n/a	n/a	n/a
1017.686	n/a	REC_WORD	508843	wordpools/wasnorm_wordpool.txt	LTP117	ltpFR	16	5	1	PROTON	1132	n/a	n/a	1	n/a	n/a	n/a	n/a	n/a
1019.068	n/a	REC_WORD	509534	wordpools/wasnorm_wordpool.txt	LTP117	ltpFR	16	5	1	PROFESSOR	1131	n/a	n/a	1	n/a	n/a	n/a	n/a	n/a
1022.112	n/a	REC_WORD	511056	wordpools/wasnorm_wordpool.txt	LTP117	ltpFR	16	5	1	CONDUCTOR	362	n/a	n/a	1	n/a	n/a	n/a	n/a	n/a
1073.848	n/a	WORD	536924	wordpools/wasnorm_wordpool.txt	LTP117	ltpFR	16	6	0	MARKET	871	n/a	n/a	1	0.57763671875	0.412841796875	1	upper	zerothre.ttf
1078.048	n/a	WORD	539024	wordpools/wasnorm_wordpool.txt	LTP117	ltpFR	16	6	0	BEEF	113	n/a	n/a	0	0.57763671875	0.412841796875	1	upper	zerothre.ttf
1081.962	n/a	WORD	540981	wordpools/wasnorm_wordpool.txt	LTP117	ltpFR	16	6	0	APE	31	n/a	n/a	1	0.57763671875	0.412841796875	1	upper	zerothre.ttf
1086.12	n/a	WORD	543060	wordpools/wasnorm_wordpool.txt	LTP117	ltpFR	16	6	0	MARINE	869	n/a	n/a	1	0.57763671875	0.412841796875	1	upper	zerothre.ttf
1090.252	n/a	WORD	545126	wordpools/wasnorm_wordpool.txt	LTP117	ltpFR	16	6	0	REEF	1177	n/a	n/a	1	0.57763671875	0.412841796875	1	upper	zerothre.ttf
1094.41	n/a	WORD	547205	wordpools/wasnorm_wordpool.txt	LTP117	ltpFR	16	6	0	PIKE	1067	n/a	n/a	1	0.57763671875	0.412841796875	1	upper	zerothre.ttf
1098.416	n/a	WORD	549208	wordpools/wasnorm_wordpool.txt	LTP117	ltpFR	16	6	0	STAMP	1370	n/a	n/a	1	0.57763671875	0.412841796875	1	upper	zerothre.ttf
1102.29	n/a	WORD	551145	wordpools/wasnorm_wordpool.txt	LTP117	ltpFR	16	6	0	LETTER	813	n/a	n/a	1	0.57763671875	0.412841796875	1	upper	zerothre.ttf
1106.372	n/a	WORD	553186	wordpools/wasnorm_wordpool.txt	LTP117	ltpFR	16	6	0	DIVER	476	n/a	n/a	1	0.57763671875	0.412841796875	1	upper	zerothre.ttf
1110.296	n/a	WORD	555148	wordpools/wasnorm_wordpool.txt	LTP117	ltpFR	16	6	0	SCOTCH	1251	n/a	n/a	1	0.57763671875	0.412841796875	1	upper	zerothre.ttf
1114.196	n/a	WORD	557098	wordpools/wasnorm_wordpool.txt	LTP117	ltpFR	16	6	0	DOLPHIN	483	n/a	n/a	1	0.57763671875	0.412841796875	1	upper	zerothre.ttf
1118.144	n/a	WORD	559072	wordpools/wasnorm_wordpool.txt	LTP117	ltpFR	16	6	0	MEAT	883	n/a	n/a	1	0.57763671875	0.412841796875	1	upper	zerothre.ttf
1122.276	n/a	WORD	561138	wordpools/wasnorm_wordpool.txt	LTP117	ltpFR	16	6	0	MISTER	901	n/a	n/a	1	0.57763671875	0.412841796875	1	upper	zerothre.ttf
1126.148	n/a	WORD	563074	wordpools/wasnorm_wordpool.txt	LTP117	ltpFR	16	6	0	PARTNER	1017	n/a	n/a	1	0.57763671875	0.412841796875	1	upper	zerothre.ttf
1130.266	n/a	WORD	565133	wordpools/wasnorm_wordpool.txt	LTP117	ltpFR	16	6	0	TURNIP	1521	n/a	n/a	0	0.57763671875	0.412841796875	1	upper	zerothre.ttf
1134.348	n/a	WORD	567174	wordpools/wasnorm_wordpool.txt	LTP117	ltpFR	16	6	0	SUPPER	1411	n/a	n/a	0	0.57763671875	0.412841796875	1	upper	zerothre.ttf
1139.996	n/a	REC_START	569998	n/a	LTP117	ltpFR	16	6	n/a	n/a	n/a	n/a	n/a	n/a	n/a	n/a	n/a	n/a	n/a
1140.568	n/a	REC_WORD	570284	wordpools/wasnorm_wordpool.txt	LTP117	ltpFR	16	6	0	MISTER	901	n/a	n/a	1	n/a	n/a	n/a	n/a	n/a
1141.408	n/a	REC_WORD	570704	wordpools/wasnorm_wordpool.txt	LTP117	ltpFR	16	6	0	PARTNER	1017	n/a	n/a	1	n/a	n/a	n/a	n/a	n/a
1142.25	n/a	REC_WORD	571125	wordpools/wasnorm_wordpool.txt	LTP117	ltpFR	16	6	0	TURNIP	1521	n/a	n/a	0	n/a	n/a	n/a	n/a	n/a
1143.118	n/a	REC_WORD	571559	wordpools/wasnorm_wordpool.txt	LTP117	ltpFR	16	6	0	SUPPER	1411	n/a	n/a	0	n/a	n/a	n/a	n/a	n/a
1146.78	n/a	REC_WORD	573390	wordpools/wasnorm_wordpool.txt	LTP117	ltpFR	16	6	0	MARKET	871	n/a	n/a	1	n/a	n/a	n/a	n/a	n/a
1148.77	n/a	REC_WORD	574385	wordpools/wasnorm_wordpool.txt	LTP117	ltpFR	16	6	0	BEEF	113	n/a	n/a	0	n/a	n/a	n/a	n/a	n/a
1149.524	n/a	REC_WORD	574762	wordpools/wasnorm_wordpool.txt	LTP117	ltpFR	16	6	0	MEAT	883	n/a	n/a	1	n/a	n/a	n/a	n/a	n/a
1150.462	n/a	REC_WORD	575231	wordpools/wasnorm_wordpool.txt	LTP117	ltpFR	16	6	0	APE	31	n/a	n/a	1	n/a	n/a	n/a	n/a	n/a
1151.174	n/a	REC_WORD	575587	wordpools/wasnorm_wordpool.txt	LTP117	ltpFR	16	6	0	MARINE	869	n/a	n/a	1	n/a	n/a	n/a	n/a	n/a
1153.44	n/a	REC_WORD	576720	wordpools/wasnorm_wordpool.txt	LTP117	ltpFR	16	6	0	SCOTCH	1251	n/a	n/a	1	n/a	n/a	n/a	n/a	n/a
1154.728	n/a	REC_WORD	577364	wordpools/wasnorm_wordpool.txt	LTP117	ltpFR	16	6	0	PIKE	1067	n/a	n/a	1	n/a	n/a	n/a	n/a	n/a
1160.63	n/a	REC_WORD	580315	wordpools/wasnorm_wordpool.txt	LTP117	ltpFR	16	6	0	STAMP	1370	n/a	n/a	1	n/a	n/a	n/a	n/a	n/a
1161.608	n/a	REC_WORD	580804	wordpools/wasnorm_wordpool.txt	LTP117	ltpFR	16	6	0	LETTER	813	n/a	n/a	1	n/a	n/a	n/a	n/a	n/a
1162.984	n/a	REC_WORD	581492	wordpools/wasnorm_wordpool.txt	LTP117	ltpFR	16	6	0	DIVER	476	n/a	n/a	1	n/a	n/a	n/a	n/a	n/a
1201.674	n/a	REC_WORD	600837	wordpools/wasnorm_wordpool.txt	LTP117	ltpFR	16	6	0	REEF	1177	n/a	n/a	1	n/a	n/a	n/a	n/a	n/a
1206.732	n/a	REC_WORD	603366	wordpools/wasnorm_wordpool.txt	LTP117	ltpFR	16	6	0	PIKE	1067	n/a	n/a	1	n/a	n/a	n/a	n/a	n/a
1217.372	n/a	WORD	608686	wordpools/wasnorm_wordpool.txt	LTP117	ltpFR	16	7	0	COMB	351	n/a	n/a	0	0.57763671875	0.412841796875	1	upper	zerothre.ttf
1221.404	n/a	WORD	610702	wordpools/wasnorm_wordpool.txt	LTP117	ltpFR	16	7	0	HEDGE	699	n/a	n/a	0	0.57763671875	0.412841796875	1	upper	zerothre.ttf
1225.362	n/a	WORD	612681	wordpools/wasnorm_wordpool.txt	LTP117	ltpFR	16	7	1	BUTCHER	203	n/a	n/a	1	0.422607421875	0.5869140625	0	lower	amplitud.ttf
1229.41	n/a	WORD	614705	wordpools/wasnorm_wordpool.txt	LTP117	ltpFR	16	7	1	GREASE	660	n/a	n/a	1	0.422607421875	0.5869140625	0	lower	amplitud.ttf
1233.26	n/a	WORD	616630	wordpools/wasnorm_wordpool.txt	LTP117	ltpFR	16	7	1	WATERFALL	1595	n/a	n/a	1	0.422607421875	0.5869140625	0	lower	amplitud.ttf
1237.342	n/a	WORD	618671	wordpools/wasnorm_wordpool.txt	LTP117	ltpFR	16	7	1	ASTRONAUT	51	n/a	n/a	1	0.422607421875	0.5869140625	0	lower	amplitud.ttf
1241.39	n/a	WORD	620695	wordpools/wasnorm_wordpool.txt	LTP117	ltpFR	16	7	1	MOON	914	n/a	n/a	1	0.422607421875	0.5869140625	0	lower	amplitud.ttf
1245.596	n/a	WORD	622798	wordpools/wasnorm_wordpool.txt	LTP117	ltpFR	16	7	1	HAM	678	n/a	n/a	1	0.422607421875	0.5869140625	0	lower	amplitud.ttf
1249.672	n/a	WORD	624836	wordpools/wasnorm_wordpool.txt	LTP117	ltpFR	16	7	0	CAR	241	n/a	n/a	1	0.57763671875	0.412841796875	1	upper	zerothre.ttf
1253.528	n/a	WORD	626764	wordpools/wasnorm_wordpool.txt	LTP117	ltpFR	16	7	0	SCALPEL	1243	n/a	n/a	1	0.57763671875	0.412841796875	1	upper	zerothre.ttf
1257.394	n/a	WORD	628697	wordpools/wasnorm_wordpool.txt	LTP117	ltpFR	16	7	0	SPIT	1354	n/a	n/a	1	0.57763671875	0.412841796875	1	upper	zerothre.ttf
1261.292	n/a	WORD	630646	wordpools/wasnorm_wordpool.txt	LTP117	ltpFR	16	7	1	BANQUET	86	n/a	n/a	3	0.422607421875	0.5869140625	0	lower	amplitud.ttf
1261.658	n/a	KEY_MSG	630829	n/a	LTP117	ltpFR	16	7	n/a	n/a	n/a	n/a	n/a	n/a	n/a	n/a	n/a	n/a	n/a
1265.124	n/a	WORD	632562	wordpools/wasnorm_wordpool.txt	LTP117	ltpFR	16	7	1	BROOK	177	n/a	n/a	1	0.422607421875	0.5869140625	0	lower	amplitud.ttf
1268.998	n/a	WORD	634499	wordpools/wasnorm_wordpool.txt	LTP117	ltpFR	16	7	0	BUGGY	188	n/a	n/a	1	0.57763671875	0.412841796875	1	upper	zerothre.ttf
1273.004	n/a	WORD	636502	wordpools/wasnorm_wordpool.txt	LTP117	ltpFR	16	7	0	COACH	331	n/a	n/a	1	0.57763671875	0.412841796875	1	upper	zerothre.ttf
1276.862	n/a	WORD	638431	wordpools/wasnorm_wordpool.txt	LTP117	ltpFR	16	7	0	REFEREE	1178	n/a	n/a	1	0.57763671875	0.412841796875	1	upper	zerothre.ttf
1282.528	n/a	REC_START	641264	n/a	LTP117	ltpFR	16	7	n/a	n/a	n/a	n/a	n/a	n/a	n/a	n/a	n/a	n/a	n/a
1283.048	n/a	REC_WORD	641524	wordpools/wasnorm_wordpool.txt	LTP117	ltpFR	16	7	0	CAR	241	n/a	n/a	1	n/a	n/a	n/a	n/a	n/a
1283.73	n/a	REC_WORD	641865	wordpools/wasnorm_wordpool.txt	LTP117	ltpFR	16	7	0	SCALPEL	1243	n/a	n/a	1	n/a	n/a	n/a	n/a	n/a
1284.278	n/a	REC_WORD	642139	wordpools/wasnorm_wordpool.txt	LTP117	ltpFR	16	7	0	SPIT	1354	n/a	n/a	1	n/a	n/a	n/a	n/a	n/a
1285.218	n/a	REC_WORD	642609	wordpools/wasnorm_wordpool.txt	LTP117	ltpFR	16	7	n/a	BOOK	149	n/a	n/a	n/a	n/a	n/a	n/a	n/a	n/a
1285.972	n/a	REC_WORD	642986	wordpools/wasnorm_wordpool.txt	LTP117	ltpFR	16	7	0	BUGGY	188	n/a	n/a	1	n/a	n/a	n/a	n/a	n/a
1286.694	n/a	REC_WORD	643347	wordpools/wasnorm_wordpool.txt	LTP117	ltpFR	16	7	0	COACH	331	n/a	n/a	1	n/a	n/a	n/a	n/a	n/a
1287.464	n/a	REC_WORD	643732	wordpools/wasnorm_wordpool.txt	LTP117	ltpFR	16	7	0	REFEREE	1178	n/a	n/a	1	n/a	n/a	n/a	n/a	n/a
1288.36	n/a	REC_WORD	644180	wordpools/wasnorm_wordpool.txt	LTP117	ltpFR	16	7	1	ASTRONAUT	51	n/a	n/a	1	n/a	n/a	n/a	n/a	n/a
1289.084	n/a	REC_WORD	644542	wordpools/wasnorm_wordpool.txt	LTP117	ltpFR	16	7	1	WATERFALL	1595	n/a	n/a	1	n/a	n/a	n/a	n/a	n/a
1290.296	n/a	REC_WORD	645148	wordpools/wasnorm_wordpool.txt	LTP117	ltpFR	16	7	1	MOON	914	n/a	n/a	1	n/a	n/a	n/a	n/a	n/a
1291.884	n/a	REC_WORD	645942	wordpools/wasnorm_wordpool.txt	LTP117	ltpFR	16	7	1	HAM	678	n/a	n/a	1	n/a	n/a	n/a	n/a	n/a
1301.176	n/a	REC_WORD	650588	wordpools/wasnorm_wordpool.txt	LTP117	ltpFR	16	7	0	COMB	351	n/a	n/a	0	n/a	n/a	n/a	n/a	n/a
1302.204	n/a	REC_WORD	651102	wordpools/wasnorm_wordpool.txt	LTP117	ltpFR	16	7	0	HEDGE	699	n/a	n/a	0	n/a	n/a	n/a	n/a	n/a
1303.158	n/a	REC_WORD	651579	wordpools/wasnorm_wordpool.txt	LTP117	ltpFR	16	7	1	BUTCHER	203	n/a	n/a	1	n/a	n/a	n/a	n/a	n/a
1303.916	n/a	REC_WORD	651958	wordpools/wasnorm_wordpool.txt	LTP117	ltpFR	16	7	1	GREASE	660	n/a	n/a	1	n/a	n/a	n/a	n/a	n/a
1360.086	n/a	WORD	680043	wordpools/wasnorm_wordpool.txt	LTP117	ltpFR	16	8	0	COCOON	339	n/a	n/a	1	0.57763671875	0.412841796875	1	upper	zerothre.ttf
1363.978	n/a	WORD	681989	wordpools/wasnorm_wordpool.txt	LTP117	ltpFR	16	8	0	BOXER	160	n/a	n/a	1	0.57763671875	0.412841796875	1	upper	zerothre.ttf
1368.184	n/a	WORD	684092	wordpools/wasnorm_wordpool.txt	LTP117	ltpFR	16	8	0	HAYSTACK	694	n/a	n/a	1	0.57763671875	0.412841796875	1	upper	zerothre.ttf
1372.108	n/a	WORD	686054	wordpools/wasnorm_wordpool.txt	LTP117	ltpFR	16	8	0	DEPUTY	450	n/a	n/a	1	0.57763671875	0.412841796875	1	upper	zerothre.ttf
1376.124	n/a	WORD	688062	wordpools/wasnorm_wordpool.txt	LTP117	ltpFR	16	8	0	SPIDER	1351	n/a	n/a	1	0.57763671875	0.412841796875	1	upper	zerothre.ttf
1380.266	n/a	WORD	690133	wordpools/wasnorm_wordpool.txt	LTP117	ltpFR	16	8	0	CREATURE	403	n/a	n/a	1	0.57763671875	0.412841796875	1	upper	zerothre.ttf
1384.214	n/a	WORD	692107	wordpools/wasnorm_wordpool.txt	LTP117	ltpFR	16	8	0	GARAGE	621	n/a	n/a	1	0.57763671875	0.412841796875	1	upper	zerothre.ttf
1388.154	n/a	WORD	694077	wordpools/wasnorm_wordpool.txt	LTP117	ltpFR	16	8	0	ICEBERG	731	n/a	n/a	1	0.57763671875	0.412841796875	1	upper	zerothre.ttf
1391.976	n/a	WORD	695988	wordpools/wasnorm_wordpool.txt	LTP117	ltpFR	16	8	0	QUILT	1151	n/a	n/a	1	0.57763671875	0.412841796875	1	upper	zerothre.ttf
1396.158	n/a	WORD	698079	wordpools/wasnorm_wordpool.txt	LTP117	ltpFR	16	8	0	CARPENTER	246	n/a	n/a	1	0.57763671875	0.412841796875	1	upper	zerothre.ttf
1400.234	n/a	WORD	700117	wordpools/wasnorm_wordpool.txt	LTP117	ltpFR	16	8	0	SCREWDRIVER	1255	n/a	n/a	1	0.57763671875	0.412841796875	1	upper	zerothre.ttf
1404.282	n/a	WORD	702141	wordpools/wasnorm_wordpool.txt	LTP117	ltpFR	16	8	0	POLICE	1098	n/a	n/a	1	0.57763671875	0.412841796875	1	upper	zerothre.ttf
1408.198	n/a	WORD	704099	wordpools/wasnorm_wordpool.txt	LTP117	ltpFR	16	8	0	WAX	1597	n/a	n/a	1	0.57763671875	0.412841796875	1	upper	zerothre.ttf
1412.17	n/a	WORD	706085	wordpools/wasnorm_wordpool.txt	LTP117	ltpFR	16	8	0	PLANET	1082	n/a	n/a	1	0.57763671875	0.412841796875	1	upper	zerothre.ttf
1416.254	n/a	WORD	708127	wordpools/wasnorm_wordpool.txt	LTP117	ltpFR	16	8	0	SATURN	1236	n/a	n/a	1	0.57763671875	0.412841796875	1	upper	zerothre.ttf
1420.286	n/a	WORD	710143	wordpools/wasnorm_wordpool.txt	LTP117	ltpFR	16	8	0	ROBIN	1199	n/a	n/a	1	0.57763671875	0.412841796875	1	upper	zerothre.ttf
1426.302	n/a	REC_START	713151	n/a	LTP117	ltpFR	16	8	n/a	n/a	n/a	n/a	n/a	n/a	n/a	n/a	n/a	n/a	n/a
1426.68	n/a	REC_WORD	713340	wordpools/wasnorm_wordpool.txt	LTP117	ltpFR	16	8	0	PLANET	1082	n/a	n/a	1	n/a	n/a	n/a	n/a	n/a
1427.224	n/a	REC_WORD	713612	wordpools/wasnorm_wordpool.txt	LTP117	ltpFR	16	8	0	SATURN	1236	n/a	n/a	1	n/a	n/a	n/a	n/a	n/a
1428.196	n/a	REC_WORD	714098	wordpools/wasnorm_wordpool.txt	LTP117	ltpFR	16	8	0	ROBIN	1199	n/a	n/a	1	n/a	n/a	n/a	n/a	n/a
1430.088	n/a	REC_WORD	715044	wordpools/wasnorm_wordpool.txt	LTP117	ltpFR	16	8	0	BOXER	160	n/a	n/a	1	n/a	n/a	n/a	n/a	n/a
1430.746	n/a	REC_WORD	715373	wordpools/wasnorm_wordpool.txt	LTP117	ltpFR	16	8	0	COCOON	339	n/a	n/a	1	n/a	n/a	n/a	n/a	n/a
1432.282	n/a	REC_WORD	716141	wordpools/wasnorm_wordpool.txt	LTP117	ltpFR	16	8	0	HAYSTACK	694	n/a	n/a	1	n/a	n/a	n/a	n/a	n/a
1433.59	n/a	REC_WORD	716795	wordpools/wasnorm_wordpool.txt	LTP117	ltpFR	16	8	0	SPIDER	1351	n/a	n/a	1	n/a	n/a	n/a	n/a	n/a
1435.226	n/a	REC_WORD	717613	wordpools/wasnorm_wordpool.txt	LTP117	ltpFR	16	8	0	CREATURE	403	n/a	n/a	1	n/a	n/a	n/a	n/a	n/a
1437.776	n/a	REC_WORD	718888	wordpools/wasnorm_wordpool.txt	LTP117	ltpFR	16	8	0	GARAGE	621	n/a	n/a	1	n/a	n/a	n/a	n/a	n/a
1439.706	n/a	REC_WORD	719853	wordpools/wasnorm_wordpool.txt	LTP117	ltpFR	16	8	0	ICEBERG	731	n/a	n/a	1	n/a	n/a	n/a	n/a	n/a
1440.74	n/a	REC_WORD	720370	wordpools/wasnorm_wordpool.txt	LTP117	ltpFR	16	8	0	QUILT	1151	n/a	n/a	1	n/a	n/a	n/a	n/a	n/a
1446.122	n/a	REC_WORD_VV	723061	wordpools/wasnorm_wordpool.txt	LTP117	ltpFR	16	8	n/a	<>	-1	n/a	n/a	n/a	n/a	n/a	n/a	n/a	n/a
1447.29	n/a	REC_WORD	723645	wordpools/wasnorm_wordpool.txt	LTP117	ltpFR	16	8	0	CARPENTER	246	n/a	n/a	1	n/a	n/a	n/a	n/a	n/a
1448.338	n/a	REC_WORD	724169	wordpools/wasnorm_wordpool.txt	LTP117	ltpFR	16	8	0	SCREWDRIVER	1255	n/a	n/a	1	n/a	n/a	n/a	n/a	n/a
1451.316	n/a	REC_WORD	725658	wordpools/wasnorm_wordpool.txt	LTP117	ltpFR	16	8	n/a	COP	376	n/a	n/a	n/a	n/a	n/a	n/a	n/a	n/a
1452.502	n/a	REC_WORD	726251	wordpools/wasnorm_wordpool.txt	LTP117	ltpFR	16	8	0	POLICE	1098	n/a	n/a	1	n/a	n/a	n/a	n/a	n/a
1463.948	n/a	REC_WORD	731974	wordpools/wasnorm_wordpool.txt	LTP117	ltpFR	16	8	n/a	RANK	-1	n/a	n/a	n/a	n/a	n/a	n/a	n/a	n/a
1503.77	n/a	WORD	751885	wordpools/wasnorm_wordpool.txt	LTP117	ltpFR	16	9	1	WHEEL	1603	n/a	n/a	0	0.422607421875	0.5869140625	0	lower	amplitud.ttf
1507.876	n/a	WORD	753938	wordpools/wasnorm_wordpool.txt	LTP117	ltpFR	16	9	1	PISTOL	1075	n/a	n/a	0	0.422607421875	0.5869140625	0	lower	amplitud.ttf
1511.848	n/a	WORD	755924	wordpools/wasnorm_wordpool.txt	LTP117	ltpFR	16	9	1	JELLO	754	n/a	n/a	0	0.422607421875	0.5869140625	0	lower	amplitud.ttf
1515.724	n/a	WORD	757862	wordpools/wasnorm_wordpool.txt	LTP117	ltpFR	16	9	1	SHERIFF	1284	n/a	n/a	1	0.422607421875	0.5869140625	0	lower	amplitud.ttf
1519.938	n/a	WORD	759969	wordpools/wasnorm_wordpool.txt	LTP117	ltpFR	16	9	1	BLENDER	136	n/a	n/a	0	0.422607421875	0.5869140625	0	lower	amplitud.ttf
1523.78	n/a	WORD	761890	wordpools/wasnorm_wordpool.txt	LTP117	ltpFR	16	9	1	VEHICLE	1553	n/a	n/a	1	0.422607421875	0.5869140625	0	lower	amplitud.ttf
1527.778	n/a	WORD	763889	wordpools/wasnorm_wordpool.txt	LTP117	ltpFR	16	9	1	CHAUFFEUR	283	n/a	n/a	1	0.422607421875	0.5869140625	0	lower	amplitud.ttf
1531.918	n/a	WORD	765959	wordpools/wasnorm_wordpool.txt	LTP117	ltpFR	16	9	1	MOTORCYCLE	923	n/a	n/a	1	0.422607421875	0.5869140625	0	lower	amplitud.ttf
1535.794	n/a	WORD	767897	wordpools/wasnorm_wordpool.txt	LTP117	ltpFR	16	9	1	WATER	1594	n/a	n/a	1	0.422607421875	0.5869140625	0	lower	amplitud.ttf
1539.94	n/a	WORD	769970	wordpools/wasnorm_wordpool.txt	LTP117	ltpFR	16	9	1	SALIVA	1226	n/a	n/a	1	0.422607421875	0.5869140625	0	lower	amplitud.ttf
1543.956	n/a	WORD	771978	wordpools/wasnorm_wordpool.txt	LTP117	ltpFR	16	9	1	KEY	773	n/a	n/a	1	0.422607421875	0.5869140625	0	lower	amplitud.ttf
1548.03	n/a	WORD	774015	wordpools/wasnorm_wordpool.txt	LTP117	ltpFR	16	9	1	COP	376	n/a	n/a	1	0.422607421875	0.5869140625	0	lower	amplitud.ttf
1552.128	n/a	WORD	776064	wordpools/wasnorm_wordpool.txt	LTP117	ltpFR	16	9	1	ZOO	1637	n/a	n/a	1	0.422607421875	0.5869140625	0	lower	amplitud.ttf
1555.97	n/a	WORD	777985	wordpools/wasnorm_wordpool.txt	LTP117	ltpFR	16	9	1	ALLIGATOR	16	n/a	n/a	1	0.422607421875	0.5869140625	0	lower	amplitud.ttf
1559.984	n/a	WORD	779992	wordpools/wasnorm_wordpool.txt	LTP117	ltpFR	16	9	1	RADISH	1158	n/a	n/a	1	0.422607421875	0.5869140625	0	lower	amplitud.ttf
1564.074	n/a	WORD	782037	wordpools/wasnorm_wordpool.txt	LTP117	ltpFR	16	9	1	RACK	1154	n/a	n/a	1	0.422607421875	0.5869140625	0	lower	amplitud.ttf
1570.04	n/a	REC_START	785020	n/a	LTP117	ltpFR	16	9	n/a	n/a	n/a	n/a	n/a	n/a	n/a	n/a	n/a	n/a	n/a
1570.596	n/a	REC_WORD	785298	wordpools/wasnorm_wordpool.txt	LTP117	ltpFR	16	9	1	COP	376	n/a	n/a	1	n/a	n/a	n/a	n/a	n/a
1571.218	n/a	REC_WORD	785609	wordpools/wasnorm_wordpool.txt	LTP117	ltpFR	16	9	1	ZOO	1637	n/a	n/a	1	n/a	n/a	n/a	n/a	n/a
1571.962	n/a	REC_WORD	785981	wordpools/wasnorm_wordpool.txt	LTP117	ltpFR	16	9	1	ALLIGATOR	16	n/a	n/a	1	n/a	n/a	n/a	n/a	n/a
1573.288	n/a	REC_WORD	786644	wordpools/wasnorm_wordpool.txt	LTP117	ltpFR	16	9	1	RADISH	1158	n/a	n/a	1	n/a	n/a	n/a	n/a	n/a
1574.112	n/a	REC_WORD	787056	wordpools/wasnorm_wordpool.txt	LTP117	ltpFR	16	9	1	RACK	1154	n/a	n/a	1	n/a	n/a	n/a	n/a	n/a
1580.892	n/a	REC_WORD	790446	wordpools/wasnorm_wordpool.txt	LTP117	ltpFR	16	9	1	SHERIFF	1284	n/a	n/a	1	n/a	n/a	n/a	n/a	n/a
1583.022	n/a	REC_WORD	791511	wordpools/wasnorm_wordpool.txt	LTP117	ltpFR	16	9	1	BLENDER	136	n/a	n/a	0	n/a	n/a	n/a	n/a	n/a
1585.102	n/a	REC_WORD	792551	wordpools/wasnorm_wordpool.txt	LTP117	ltpFR	16	9	1	WATER	1594	n/a	n/a	1	n/a	n/a	n/a	n/a	n/a
1586.294	n/a	REC_WORD	793147	wordpools/wasnorm_wordpool.txt	LTP117	ltpFR	16	9	1	SALIVA	1226	n/a	n/a	1	n/a	n/a	n/a	n/a	n/a
1587.232	n/a	REC_WORD	793616	wordpools/wasnorm_wordpool.txt	LTP117	ltpFR	16	9	1	KEY	773	n/a	n/a	1	n/a	n/a	n/a	n/a	n/a
1589.966	n/a	REC_WORD	794983	wordpools/wasnorm_wordpool.txt	LTP117	ltpFR	16	9	1	VEHICLE	1553	n/a	n/a	1	n/a	n/a	n/a	n/a	n/a
1590.654	n/a	REC_WORD	795327	wordpools/wasnorm_wordpool.txt	LTP117	ltpFR	16	9	1	CHAUFFEUR	283	n/a	n/a	1	n/a	n/a	n/a	n/a	n/a
1592.376	n/a	REC_WORD	796188	wordpools/wasnorm_wordpool.txt	LTP117	ltpFR	16	9	1	MOTORCYCLE	923	n/a	n/a	1	n/a	n/a	n/a	n/a	n/a
1597.8	n/a	REC_WORD	798900	wordpools/wasnorm_wordpool.txt	LTP117	ltpFR	16	9	1	PISTOL	1075	n/a	n/a	0	n/a	n/a	n/a	n/a	n/a
1598.736	n/a	REC_WORD	799368	wordpools/wasnorm_wordpool.txt	LTP117	ltpFR	16	9	1	WHEEL	1603	n/a	n/a	0	n/a	n/a	n/a	n/a	n/a
1603.452	n/a	REC_WORD	801726	wordpools/wasnorm_wordpool.txt	LTP117	ltpFR	16	9	1	BLENDER	136	n/a	n/a	0	n/a	n/a	n/a	n/a	n/a
1604.804	n/a	REC_WORD	802402	wordpools/wasnorm_wordpool.txt	LTP117	ltpFR	16	9	1	WATER	1594	n/a	n/a	1	n/a	n/a	n/a	n/a	n/a
1630.272	n/a	REC_WORD	815136	wordpools/wasnorm_wordpool.txt	LTP117	ltpFR	16	9	1	SALIVA	1226	n/a	n/a	1	n/a	n/a	n/a	n/a	n/a
1631.69	n/a	REC_WORD	815845	wordpools/wasnorm_wordpool.txt	LTP117	ltpFR	16	9	1	KEY	773	n/a	n/a	1	n/a	n/a	n/a	n/a	n/a
1647.652	n/a	WORD	823826	wordpools/wasnorm_wordpool.txt	LTP117	ltpFR	16	10	1	GOVERNOR	651	n/a	n/a	0	0.422607421875	0.5869140625	0	lower	amplitud.ttf
1651.484	n/a	WORD	825742	wordpools/wasnorm_wordpool.txt	LTP117	ltpFR	16	10	1	CANDIDATE	228	n/a	n/a	1	0.422607421875	0.5869140625	0	lower	amplitud.ttf
1655.54	n/a	WORD	827770	wordpools/wasnorm_wordpool.txt	LTP117	ltpFR	16	10	1	JACKET	747	n/a	n/a	1	0.422607421875	0.5869140625	0	lower	amplitud.ttf
1659.538	n/a	WORD	829769	wordpools/wasnorm_wordpool.txt	LTP117	ltpFR	16	10	1	STOCKING	1383	n/a	n/a	1	0.422607421875	0.5869140625	0	lower	amplitud.ttf
1663.42	n/a	WORD	831710	wordpools/wasnorm_wordpool.txt	LTP117	ltpFR	16	10	1	CINNAMON	310	n/a	n/a	1	0.422607421875	0.5869140625	0	lower	amplitud.ttf
1667.586	n/a	WORD	833793	wordpools/wasnorm_wordpool.txt	LTP117	ltpFR	16	10	1	OREGANO	983	n/a	n/a	1	0.422607421875	0.5869140625	0	lower	amplitud.ttf
1671.436	n/a	WORD	835718	wordpools/wasnorm_wordpool.txt	LTP117	ltpFR	16	10	1	PREDATOR	1120	n/a	n/a	1	0.422607421875	0.5869140625	0	lower	amplitud.ttf
1675.55	n/a	WORD	837775	wordpools/wasnorm_wordpool.txt	LTP117	ltpFR	16	10	1	MOVIE	927	n/a	n/a	1	0.422607421875	0.5869140625	0	lower	amplitud.ttf
1679.65	n/a	WORD	839825	wordpools/wasnorm_wordpool.txt	LTP117	ltpFR	16	10	1	VAMPIRE	1547	n/a	n/a	1	0.422607421875	0.5869140625	0	lower	amplitud.ttf
1683.772	n/a	WORD	841886	wordpools/wasnorm_wordpool.txt	LTP117	ltpFR	16	10	1	COLLAR	345	n/a	n/a	1	0.422607421875	0.5869140625	0	lower	amplitud.ttf
1687.862	n/a	WORD	843931	wordpools/wasnorm_wordpool.txt	LTP117	ltpFR	16	10	1	PLUM	1090	n/a	n/a	1	0.422607421875	0.5869140625	0	lower	amplitud.ttf
1691.886	n/a	WORD	845943	wordpools/wasnorm_wordpool.txt	LTP117	ltpFR	16	10	1	PILOT	1070	n/a	n/a	1	0.422607421875	0.5869140625	0	lower	amplitud.ttf
1696.002	n/a	WORD	848001	wordpools/wasnorm_wordpool.txt	LTP117	ltpFR	16	10	1	COMMITTEE	355	n/a	n/a	1	0.422607421875	0.5869140625	0	lower	amplitud.ttf
1699.934	n/a	WORD	849967	wordpools/wasnorm_wordpool.txt	LTP117	ltpFR	16	10	1	BRIDE	173	n/a	n/a	1	0.422607421875	0.5869140625	0	lower	amplitud.ttf
1704.092	n/a	WORD	852046	wordpools/wasnorm_wordpool.txt	LTP117	ltpFR	16	10	1	FRUIT	610	n/a	n/a	1	0.422607421875	0.5869140625	0	lower	amplitud.ttf
1708.224	n/a	WORD	854112	wordpools/wasnorm_wordpool.txt	LTP117	ltpFR	16	10	1	CRAB	397	n/a	n/a	1	0.422607421875	0.5869140625	0	lower	amplitud.ttf
1714.08	n/a	REC_START	857040	n/a	LTP117	ltpFR	16	10	n/a	n/a	n/a	n/a	n/a	n/a	n/a	n/a	n/a	n/a	n/a
1714.56	n/a	REC_WORD	857280	wordpools/wasnorm_wordpool.txt	LTP117	ltpFR	16	10	1	BRIDE	173	n/a	n/a	1	n/a	n/a	n/a	n/a	n/a
1715.138	n/a	REC_WORD	857569	wordpools/wasnorm_wordpool.txt	LTP117	ltpFR	16	10	1	FRUIT	610	n/a	n/a	1	n/a	n/a	n/a	n/a	n/a
1715.942	n/a	REC_WORD	857971	wordpools/wasnorm_wordpool.txt	LTP117	ltpFR	16	10	1	CRAB	397	n/a	n/a	1	n/a	n/a	n/a	n/a	n/a
1717.718	n/a	REC_WORD	858859	wordpools/wasnorm_wordpool.txt	LTP117	ltpFR	16	10	1	PILOT	1070	n/a	n/a	1	n/a	n/a	n/a	n/a	n/a
1718.456	n/a	REC_WORD	859228	wordpools/wasnorm_wordpool.txt	LTP117	ltpFR	16	10	1	COMMITTEE	355	n/a	n/a	1	n/a	n/a	n/a	n/a	n/a
1720.526	n/a	REC_WORD	860263	wordpools/wasnorm_wordpool.txt	LTP117	ltpFR	16	10	1	CANDIDATE	228	n/a	n/a	1	n/a	n/a	n/a	n/a	n/a
1722.048	n/a	REC_WORD	861024	wordpools/wasnorm_wordpool.txt	LTP117	ltpFR	16	10	1	GOVERNOR	651	n/a	n/a	0	n/a	n/a	n/a	n/a	n/a
1724.378	n/a	REC_WORD	862189	wordpools/wasnorm_wordpool.txt	LTP117	ltpFR	16	10	1	CINNAMON	310	n/a	n/a	1	n/a	n/a	n/a	n/a	n/a
1725.28	n/a	REC_WORD	862640	wordpools/wasnorm_wordpool.txt	LTP117	ltpFR	16	10	1	OREGANO	983	n/a	n/a	1	n/a	n/a	n/a	n/a	n/a
1728.13	n/a	REC_WORD	864065	wordpools/wasnorm_wordpool.txt	LTP117	ltpFR	16	10	1	VAMPIRE	1547	n/a	n/a	1	n/a	n/a	n/a	n/a	n/a
1729.128	n/a	REC_WORD	864564	wordpools/wasnorm_wordpool.txt	LTP117	ltpFR	16	10	1	COLLAR	345	n/a	n/a	1	n/a	n/a	n/a	n/a	n/a
1730.23	n/a	REC_WORD	865115	wordpools/wasnorm_wordpool.txt	LTP117	ltpFR	16	10	1	MOVIE	927	n/a	n/a	1	n/a	n/a	n/a	n/a	n/a
1733.008	n/a	REC_WORD	866504	wordpools/wasnorm_wordpool.txt	LTP117	ltpFR	16	10	1	PREDATOR	1120	n/a	n/a	1	n/a	n/a	n/a	n/a	n/a
1754.516	n/a	REC_WORD	877258	wordpools/wasnorm_wordpool.txt	LTP117	ltpFR	16	10	1	PLUM	1090	n/a	n/a	1	n/a	n/a	n/a	n/a	n/a
1791.906	n/a	WORD	895953	wordpools/wasnorm_wordpool.txt	LTP117	ltpFR	16	11	-1	PREACHER	1119	n/a	n/a	-1	1.0	1.0	1	upper	Verdana.ttf
1796.062	n/a	WORD	898031	wordpools/wasnorm_wordpool.txt	LTP117	ltpFR	16	11	-1	HAWK	692	n/a	n/a	-1	1.0	1.0	1	upper	Verdana.ttf
1799.88	n/a	WORD	899940	wordpools/wasnorm_wordpool.txt	LTP117	ltpFR	16	11	-1	SWATTER	1418	n/a	n/a	-1	1.0	1.0	1	upper	Verdana.ttf
1803.844	n/a	WORD	901922	wordpools/wasnorm_wordpool.txt	LTP117	ltpFR	16	11	-1	CAFETERIA	217	n/a	n/a	-1	1.0	1.0	1	upper	Verdana.ttf
1807.752	n/a	WORD	903876	wordpools/wasnorm_wordpool.txt	LTP117	ltpFR	16	11	-1	RIB	1188	n/a	n/a	-1	1.0	1.0	1	upper	Verdana.ttf
1811.676	n/a	WORD	905838	wordpools/wasnorm_wordpool.txt	LTP117	ltpFR	16	11	-1	ROOSTER	1209	n/a	n/a	-1	1.0	1.0	1	upper	Verdana.ttf
1815.666	n/a	WORD	907833	wordpools/wasnorm_wordpool.txt	LTP117	ltpFR	16	11	-1	OUTFIT	988	n/a	n/a	-1	1.0	1.0	1	upper	Verdana.ttf
1819.824	n/a	WORD	909912	wordpools/wasnorm_wordpool.txt	LTP117	ltpFR	16	11	-1	DRESSER	496	n/a	n/a	-1	1.0	1.0	1	upper	Verdana.ttf
1823.68	n/a	WORD	911840	wordpools/wasnorm_wordpool.txt	LTP117	ltpFR	16	11	-1	BUREAU	199	n/a	n/a	-1	1.0	1.0	1	upper	Verdana.ttf
1827.562	n/a	WORD	913781	wordpools/wasnorm_wordpool.txt	LTP117	ltpFR	16	11	-1	WAIST	1579	n/a	n/a	-1	1.0	1.0	1	upper	Verdana.ttf
1831.554	n/a	WORD	915777	wordpools/wasnorm_wordpool.txt	LTP117	ltpFR	16	11	-1	MOLECULE	905	n/a	n/a	-1	1.0	1.0	1	upper	Verdana.ttf
1835.502	n/a	WORD	917751	wordpools/wasnorm_wordpool.txt	LTP117	ltpFR	16	11	-1	BULL	193	n/a	n/a	-1	1.0	1.0	1	upper	Verdana.ttf
1839.326	n/a	WORD	919663	wordpools/wasnorm_wordpool.txt	LTP117	ltpFR	16	11	-1	CATHEDRAL	260	n/a	n/a	-1	1.0	1.0	1	upper	Verdana.ttf
1843.284	n/a	WORD	921642	wordpools/wasnorm_wordpool.txt	LTP117	ltpFR	16	11	-1	DRESS	495	n/a	n/a	-1	1.0	1.0	1	upper	Verdana.ttf
1847.416	n/a	WORD	923708	wordpools/wasnorm_wordpool.txt	LTP117	ltpFR	16	11	-1	GIRAFFE	636	n/a	n/a	-1	1.0	1.0	1	upper	Verdana.ttf
1851.564	n/a	WORD	925782	wordpools/wasnorm_wordpool.txt	LTP117	ltpFR	16	11	-1	CLAW	319	n/a	n/a	-1	1.0	1.0	1	upper	Verdana.ttf
1857.522	n/a	REC_START	928761	n/a	LTP117	ltpFR	16	11	n/a	n/a	n/a	n/a	n/a	n/a	n/a	n/a	n/a	n/a	n/a
1858.036	n/a	REC_WORD	929018	wordpools/wasnorm_wordpool.txt	LTP117	ltpFR	16	11	-1	BULL	193	n/a	n/a	-1	n/a	n/a	n/a	n/a	n/a
1858.53	n/a	REC_WORD	929265	wordpools/wasnorm_wordpool.txt	LTP117	ltpFR	16	11	-1	CATHEDRAL	260	n/a	n/a	-1	n/a	n/a	n/a	n/a	n/a
1859.566	n/a	REC_WORD	929783	wordpools/wasnorm_wordpool.txt	LTP117	ltpFR	16	11	-1	DRESS	495	n/a	n/a	-1	n/a	n/a	n/a	n/a	n/a
1860.554	n/a	REC_WORD	930277	wordpools/wasnorm_wordpool.txt	LTP117	ltpFR	16	11	-1	GIRAFFE	636	n/a	n/a	-1	n/a	n/a	n/a	n/a	n/a
1861.602	n/a	REC_WORD	930801	wordpools/wasnorm_wordpool.txt	LTP117	ltpFR	16	11	-1	CLAW	319	n/a	n/a	-1	n/a	n/a	n/a	n/a	n/a
1862.91	n/a	REC_WORD	931455	wordpools/wasnorm_wordpool.txt	LTP117	ltpFR	16	11	-1	PREACHER	1119	n/a	n/a	-1	n/a	n/a	n/a	n/a	n/a
1863.548	n/a	REC_WORD	931774	wordpools/wasnorm_wordpool.txt	LTP117	ltpFR	16	11	-1	HAWK	692	n/a	n/a	-1	n/a	n/a	n/a	n/a	n/a
1864.4	n/a	REC_WORD	932200	wordpools/wasnorm_wordpool.txt	LTP117	ltpFR	16	11	-1	SWATTER	1418	n/a	n/a	-1	n/a	n/a	n/a	n/a	n/a
1865.598	n/a	REC_WORD	932799	wordpools/wasnorm_wordpool.txt	LTP117	ltpFR	16	11	-1	CAFETERIA	217	n/a	n/a	-1	n/a	n/a	n/a	n/a	n/a
1868.426	n/a	REC_WORD	934213	wordpools/wasnorm_wordpool.txt	LTP117	ltpFR	16	11	-1	OUTFIT	988	n/a	n/a	-1	n/a	n/a	n/a	n/a	n/a
1869.22	n/a	REC_WORD	934610	wordpools/wasnorm_wordpool.txt	LTP117	ltpFR	16	11	-1	BUREAU	199	n/a	n/a	-1	n/a	n/a	n/a	n/a	n/a
1870.476	n/a	REC_WORD	935238	wordpools/wasnorm_wordpool.txt	LTP117	ltpFR	16	11	-1	DRESSER	496	n/a	n/a	-1	n/a	n/a	n/a	n/a	n/a
1883.568	n/a	REC_WORD	941784	wordpools/wasnorm_wordpool.txt	LTP117	ltpFR	16	11	-1	PREACHER	1119	n/a	n/a	-1	n/a	n/a	n/a	n/a	n/a
1922.178	n/a	REC_WORD	961089	wordpools/wasnorm_wordpool.txt	LTP117	ltpFR	16	11	-1	MOLECULE	905	n/a	n/a	-1	n/a	n/a	n/a	n/a	n/a
1943.32	n/a	WORD	971660	wordpools/wasnorm_wordpool.txt	LTP117	ltpFR	16	12	1	DANDELION	438	n/a	n/a	1	0.422607421875	0.5869140625	0	lower	amplitud.ttf
1947.226	n/a	WORD	973613	wordpools/wasnorm_wordpool.txt	LTP117	ltpFR	16	12	1	CHIMPANZEE	302	n/a	n/a	1	0.422607421875	0.5869140625	0	lower	amplitud.ttf
1951.302	n/a	WORD	975651	wordpools/wasnorm_wordpool.txt	LTP117	ltpFR	16	12	0	BARREL	91	n/a	n/a	1	0.57763671875	0.412841796875	1	upper	zerothre.ttf
1955.166	n/a	WORD	977583	wordpools/wasnorm_wordpool.txt	LTP117	ltpFR	16	12	0	FLY	586	n/a	n/a	1	0.57763671875	0.412841796875	1	upper	zerothre.ttf
1959.164	n/a	WORD	979582	wordpools/wasnorm_wordpool.txt	LTP117	ltpFR	16	12	0	COOKBOOK	373	n/a	n/a	1	0.57763671875	0.412841796875	1	upper	zerothre.ttf
1962.98	n/a	WORD	981490	wordpools/wasnorm_wordpool.txt	LTP117	ltpFR	16	12	0	SKIRT	1319	n/a	n/a	1	0.57763671875	0.412841796875	1	upper	zerothre.ttf
1966.97	n/a	WORD	983485	wordpools/wasnorm_wordpool.txt	LTP117	ltpFR	16	12	1	FLANNEL	574	n/a	n/a	0	0.422607421875	0.5869140625	0	lower	amplitud.ttf
1970.978	n/a	WORD	985489	wordpools/wasnorm_wordpool.txt	LTP117	ltpFR	16	12	1	HAND	683	n/a	n/a	0	0.422607421875	0.5869140625	0	lower	amplitud.ttf
1974.918	n/a	WORD	987459	wordpools/wasnorm_wordpool.txt	LTP117	ltpFR	16	12	1	GULL	671	n/a	n/a	0	0.422607421875	0.5869140625	0	lower	amplitud.ttf
1979.024	n/a	WORD	989512	wordpools/wasnorm_wordpool.txt	LTP117	ltpFR	16	12	1	TRAY	1498	n/a	n/a	0	0.422607421875	0.5869140625	0	lower	amplitud.ttf
1982.974	n/a	WORD	991487	wordpools/wasnorm_wordpool.txt	LTP117	ltpFR	16	12	0	TOENAIL	1474	n/a	n/a	1	0.57763671875	0.412841796875	1	upper	zerothre.ttf
1986.846	n/a	WORD	993423	wordpools/wasnorm_wordpool.txt	LTP117	ltpFR	16	12	0	PIGMENT	1066	n/a	n/a	1	0.57763671875	0.412841796875	1	upper	zerothre.ttf
1990.748	n/a	WORD	995374	wordpools/wasnorm_wordpool.txt	LTP117	ltpFR	16	12	0	CRIMINAL	409	n/a	n/a	1	0.57763671875	0.412841796875	1	upper	zerothre.ttf
1994.944	n/a	WORD	997472	wordpools/wasnorm_wordpool.txt	LTP117	ltpFR	16	12	0	SUSPECT	1415	n/a	n/a	1	0.57763671875	0.412841796875	1	upper	zerothre.ttf
1998.91	n/a	WORD	999455	wordpools/wasnorm_wordpool.txt	LTP117	ltpFR	16	12	1	MARBLE	867	n/a	n/a	0	0.422607421875	0.5869140625	0	lower	amplitud.ttf
2002.76	n/a	WORD	1001380	wordpools/wasnorm_wordpool.txt	LTP117	ltpFR	16	12	1	ASSISTANT	48	n/a	n/a	0	0.422607421875	0.5869140625	0	lower	amplitud.ttf
2008.51	n/a	REC_START	1004255	n/a	LTP117	ltpFR	16	12	n/a	n/a	n/a	n/a	n/a	n/a	n/a	n/a	n/a	n/a	n/a
2009.004	n/a	REC_WORD	1004502	wordpools/wasnorm_wordpool.txt	LTP117	ltpFR	16	12	0	PIGMENT	1066	n/a	n/a	1	n/a	n/a	n/a	n/a	n/a
2009.652	n/a	REC_WORD	1004826	wordpools/wasnorm_wordpool.txt	LTP117	ltpFR	16	12	0	CRIMINAL	409	n/a	n/a	1	n/a	n/a	n/a	n/a	n/a
2010.49	n/a	REC_WORD	1005245	wordpools/wasnorm_wordpool.txt	LTP117	ltpFR	16	12	1	MARBLE	867	n/a	n/a	0	n/a	n/a	n/a	n/a	n/a
2011.238	n/a	REC_WORD	1005619	wordpools/wasnorm_wordpool.txt	LTP117	ltpFR	16	12	1	ASSISTANT	48	n/a	n/a	0	n/a	n/a	n/a	n/a	n/a
2012.006	n/a	REC_WORD	1006003	wordpools/wasnorm_wordpool.txt	LTP117	ltpFR	16	12	0	SUSPECT	1415	n/a	n/a	1	n/a	n/a	n/a	n/a	n/a
2012.984	n/a	REC_WORD	1006492	wordpools/wasnorm_wordpool.txt	LTP117	ltpFR	16	12	1	GULL	671	n/a	n/a	0	n/a	n/a	n/a	n/a	n/a
2013.898	n/a	REC_WORD	1006949	wordpools/wasnorm_wordpool.txt	LTP117	ltpFR	16	12	n/a	PERCH	1048	n/a	n/a	n/a	n/a	n/a	n/a	n/a	n/a
2015.638	n/a	REC_WORD	1007819	wordpools/wasnorm_wordpool.txt	LTP117	ltpFR	16	12	0	TOENAIL	1474	n/a	n/a	1	n/a	n/a	n/a	n/a	n/a
2016.6	n/a	REC_WORD	1008300	wordpools/wasnorm_wordpool.txt	LTP117	ltpFR	16	12	1	TRAY	1498	n/a	n/a	0	n/a	n/a	n/a	n/a	n/a
2022.638	n/a	REC_WORD	1011319	wordpools/wasnorm_wordpool.txt	LTP117	ltpFR	16	12	n/a	MONKEY	911	n/a	n/a	n/a	n/a	n/a	n/a	n/a	n/a
2024.502	n/a	REC_WORD	1012251	wordpools/wasnorm_wordpool.txt	LTP117	ltpFR	16	12	1	CHIMPANZEE	302	n/a	n/a	1	n/a	n/a	n/a	n/a	n/a
2029.024	n/a	REC_WORD	1014512	wordpools/wasnorm_wordpool.txt	LTP117	ltpFR	16	12	1	DANDELION	438	n/a	n/a	1	n/a	n/a	n/a	n/a	n/a
2030.016	n/a	REC_WORD	1015008	wordpools/wasnorm_wordpool.txt	LTP117	ltpFR	16	12	0	BARREL	91	n/a	n/a	1	n/a	n/a	n/a	n/a	n/a
2031.02	n/a	REC_WORD	1015510	wordpools/wasnorm_wordpool.txt	LTP117	ltpFR	16	12	0	COOKBOOK	373	n/a	n/a	1	n/a	n/a	n/a	n/a	n/a
2031.878	n/a	REC_WORD	1015939	wordpools/wasnorm_wordpool.txt	LTP117	ltpFR	16	12	0	SKIRT	1319	n/a	n/a	1	n/a	n/a	n/a	n/a	n/a
2036.84	n/a	REC_WORD	1018420	wordpools/wasnorm_wordpool.txt	LTP117	ltpFR	16	12	1	GULL	671	n/a	n/a	0	n/a	n/a	n/a	n/a	n/a
2052.66	n/a	REC_WORD	1026330	wordpools/wasnorm_wordpool.txt	LTP117	ltpFR	16	12	1	CHIMPANZEE	302	n/a	n/a	1	n/a	n/a	n/a	n/a	n/a
2058.528	n/a	REC_WORD	1029264	wordpools/wasnorm_wordpool.txt	LTP117	ltpFR	16	12	1	FLANNEL	574	n/a	n/a	0	n/a	n/a	n/a	n/a	n/a
2075.46	n/a	REC_WORD	1037730	wordpools/wasnorm_wordpool.txt	LTP117	ltpFR	16	12	1	MARBLE	867	n/a	n/a	0	n/a	n/a	n/a	n/a	n/a
2076.284	n/a	REC_WORD	1038142	wordpools/wasnorm_wordpool.txt	LTP117	ltpFR	16	12	1	ASSISTANT	48	n/a	n/a	0	n/a	n/a	n/a	n/a	n/a
2084.102	n/a	REST_REWET	1042051	n/a	LTP117	ltpFR	16	12	n/a	n/a	n/a	n/a	n/a	n/a	n/a	n/a	n/a	n/a	n/a
2448.016	n/a	WORD	1224008	wordpools/wasnorm_wordpool.txt	LTP117	ltpFR	16	13	1	BANDAGE	79	n/a	n/a	1	0.422607421875	0.5869140625	0	lower	amplitud.ttf
2451.842	n/a	WORD	1225921	wordpools/wasnorm_wordpool.txt	LTP117	ltpFR	16	13	1	ENEMY	534	n/a	n/a	1	0.422607421875	0.5869140625	0	lower	amplitud.ttf
2455.714	n/a	WORD	1227857	wordpools/wasnorm_wordpool.txt	LTP117	ltpFR	16	13	1	BEAD	103	n/a	n/a	1	0.422607421875	0.5869140625	0	lower	amplitud.ttf
2459.772	n/a	WORD	1229886	wordpools/wasnorm_wordpool.txt	LTP117	ltpFR	16	13	1	PENNY	1045	n/a	n/a	1	0.422607421875	0.5869140625	0	lower	amplitud.ttf
2463.638	n/a	WORD	1231819	wordpools/wasnorm_wordpool.txt	LTP117	ltpFR	16	13	0	JUG	762	n/a	n/a	1	0.57763671875	0.412841796875	1	upper	zerothre.ttf
2467.612	n/a	WORD	1233806	wordpools/wasnorm_wordpool.txt	LTP117	ltpFR	16	13	0	KEG	770	n/a	n/a	1	0.57763671875	0.412841796875	1	upper	zerothre.ttf
2471.71	n/a	WORD	1235855	wordpools/wasnorm_wordpool.txt	LTP117	ltpFR	16	13	0	STUMP	1396	n/a	n/a	1	0.57763671875	0.412841796875	1	upper	zerothre.ttf
2475.7	n/a	WORD	1237850	wordpools/wasnorm_wordpool.txt	LTP117	ltpFR	16	13	0	BRANCH	168	n/a	n/a	1	0.57763671875	0.412841796875	1	upper	zerothre.ttf
2479.64	n/a	WORD	1239820	wordpools/wasnorm_wordpool.txt	LTP117	ltpFR	16	13	1	VILLAGE	1566	n/a	n/a	0	0.422607421875	0.5869140625	0	lower	amplitud.ttf
2483.698	n/a	WORD	1241849	wordpools/wasnorm_wordpool.txt	LTP117	ltpFR	16	13	1	CUP	424	n/a	n/a	0	0.422607421875	0.5869140625	0	lower	amplitud.ttf
2487.788	n/a	WORD	1243894	wordpools/wasnorm_wordpool.txt	LTP117	ltpFR	16	13	1	CENT	270	n/a	n/a	0	0.422607421875	0.5869140625	0	lower	amplitud.ttf
2491.936	n/a	WORD	1245968	wordpools/wasnorm_wordpool.txt	LTP117	ltpFR	16	13	1	SWIMMER	1420	n/a	n/a	0	0.422607421875	0.5869140625	0	lower	amplitud.ttf
2495.868	n/a	WORD	1247934	wordpools/wasnorm_wordpool.txt	LTP117	ltpFR	16	13	0	PEOPLE	1046	n/a	n/a	1	0.57763671875	0.412841796875	1	upper	zerothre.ttf
2499.908	n/a	WORD	1249954	wordpools/wasnorm_wordpool.txt	LTP117	ltpFR	16	13	0	FAIRY	549	n/a	n/a	1	0.57763671875	0.412841796875	1	upper	zerothre.ttf
2503.834	n/a	WORD	1251917	wordpools/wasnorm_wordpool.txt	LTP117	ltpFR	16	13	0	OTTER	986	n/a	n/a	1	0.57763671875	0.412841796875	1	upper	zerothre.ttf
2507.94	n/a	WORD	1253970	wordpools/wasnorm_wordpool.txt	LTP117	ltpFR	16	13	0	DOLLAR	482	n/a	n/a	1	0.57763671875	0.412841796875	1	upper	zerothre.ttf
2513.964	n/a	REC_START	1256982	n/a	LTP117	ltpFR	16	13	n/a	n/a	n/a	n/a	n/a	n/a	n/a	n/a	n/a	n/a	n/a
2514.412	n/a	REC_WORD	1257206	wordpools/wasnorm_wordpool.txt	LTP117	ltpFR	16	13	0	PEOPLE	1046	n/a	n/a	1	n/a	n/a	n/a	n/a	n/a
2515.18	n/a	REC_WORD	1257590	wordpools/wasnorm_wordpool.txt	LTP117	ltpFR	16	13	0	OTTER	986	n/a	n/a	1	n/a	n/a	n/a	n/a	n/a
2515.788	n/a	REC_WORD	1257894	wordpools/wasnorm_wordpool.txt	LTP117	ltpFR	16	13	1	SWIMMER	1420	n/a	n/a	0	n/a	n/a	n/a	n/a	n/a
2521.014	n/a	REC_WORD	1260507	wordpools/wasnorm_wordpool.txt	LTP117	ltpFR	16	13	1	BANDAGE	79	n/a	n/a	1	n/a	n/a	n/a	n/a	n/a
2522.854	n/a	REC_WORD	1261427	wordpools/wasnorm_wordpool.txt	LTP117	ltpFR	16	13	0	STUMP	1396	n/a	n/a	1	n/a	n/a	n/a	n/a	n/a
2528.956	n/a	REC_WORD	1264478	wordpools/wasnorm_wordpool.txt	LTP117	ltpFR	16	13	1	ENEMY	534	n/a	n/a	1	n/a	n/a	n/a	n/a	n/a
2531.29	n/a	REC_WORD	1265645	wordpools/wasnorm_wordpool.txt	LTP117	ltpFR	16	13	1	BEAD	103	n/a	n/a	1	n/a	n/a	n/a	n/a	n/a
2534.708	n/a	REC_WORD	1267354	wordpools/wasnorm_wordpool.txt	LTP117	ltpFR	16	13	1	VILLAGE	1566	n/a	n/a	0	n/a	n/a	n/a	n/a	n/a
2535.51	n/a	REC_WORD	1267755	wordpools/wasnorm_wordpool.txt	LTP117	ltpFR	16	13	0	JUG	762	n/a	n/a	1	n/a	n/a	n/a	n/a	n/a
2536.164	n/a	REC_WORD	1268082	wordpools/wasnorm_wordpool.txt	LTP117	ltpFR	16	13	1	PENNY	1045	n/a	n/a	1	n/a	n/a	n/a	n/a	n/a
2536.938	n/a	REC_WORD	1268469	wordpools/wasnorm_wordpool.txt	LTP117	ltpFR	16	13	1	CENT	270	n/a	n/a	0	n/a	n/a	n/a	n/a	n/a
2539.396	n/a	REC_WORD	1269698	wordpools/wasnorm_wordpool.txt	LTP117	ltpFR	16	13	1	CUP	424	n/a	n/a	0	n/a	n/a	n/a	n/a	n/a
2540.3	n/a	REC_WORD	1270150	wordpools/wasnorm_wordpool.txt	LTP117	ltpFR	16	13	0	KEG	770	n/a	n/a	1	n/a	n/a	n/a	n/a	n/a
2564.048	n/a	REC_WORD	1282024	wordpools/wasnorm_wordpool.txt	LTP117	ltpFR	16	13	1	HAND	683	n/a	n/a	0	n/a	n/a	n/a	n/a	n/a
2587.18	n/a	REC_WORD	1293590	wordpools/wasnorm_wordpool.txt	LTP117	ltpFR	16	13	1	VILLAGE	1566	n/a	n/a	0	n/a	n/a	n/a	n/a	n/a
2591.616	n/a	WORD	1295808	wordpools/wasnorm_wordpool.txt	LTP117	ltpFR	16	14	-1	DIGGER	464	n/a	n/a	-1	1.0	1.0	1	upper	Verdana.ttf
2595.656	n/a	WORD	1297828	wordpools/wasnorm_wordpool.txt	LTP117	ltpFR	16	14	-1	BATHROOM	99	n/a	n/a	-1	1.0	1.0	1	upper	Verdana.ttf
2599.672	n/a	WORD	1299836	wordpools/wasnorm_wordpool.txt	LTP117	ltpFR	16	14	-1	PAINT	1003	n/a	n/a	-1	1.0	1.0	1	upper	Verdana.ttf
2603.662	n/a	WORD	1301831	wordpools/wasnorm_wordpool.txt	LTP117	ltpFR	16	14	-1	SQUID	1361	n/a	n/a	-1	1.0	1.0	1	upper	Verdana.ttf
2607.86	n/a	WORD	1303930	wordpools/wasnorm_wordpool.txt	LTP117	ltpFR	16	14	-1	FUNGUS	614	n/a	n/a	-1	1.0	1.0	1	upper	Verdana.ttf
2612.008	n/a	WORD	1306004	wordpools/wasnorm_wordpool.txt	LTP117	ltpFR	16	14	-1	MOSS	918	n/a	n/a	-1	1.0	1.0	1	upper	Verdana.ttf
2616.19	n/a	WORD	1308095	wordpools/wasnorm_wordpool.txt	LTP117	ltpFR	16	14	-1	SACK	1220	n/a	n/a	-1	1.0	1.0	1	upper	Verdana.ttf
2620.148	n/a	WORD	1310074	wordpools/wasnorm_wordpool.txt	LTP117	ltpFR	16	14	-1	COMMANDER	354	n/a	n/a	-1	1.0	1.0	1	upper	Verdana.ttf
2624.314	n/a	WORD	1312157	wordpools/wasnorm_wordpool.txt	LTP117	ltpFR	16	14	-1	ARMY	39	n/a	n/a	-1	1.0	1.0	1	upper	Verdana.ttf
2628.362	n/a	WORD	1314181	wordpools/wasnorm_wordpool.txt	LTP117	ltpFR	16	14	-1	INN	739	n/a	n/a	-1	1.0	1.0	1	upper	Verdana.ttf
2632.444	n/a	WORD	1316222	wordpools/wasnorm_wordpool.txt	LTP117	ltpFR	16	14	-1	LUGGAGE	847	n/a	n/a	-1	1.0	1.0	1	upper	Verdana.ttf
2636.468	n/a	WORD	1318234	wordpools/wasnorm_wordpool.txt	LTP117	ltpFR	16	14	-1	FIN	566	n/a	n/a	-1	1.0	1.0	1	upper	Verdana.ttf
2640.318	n/a	WORD	1320159	wordpools/wasnorm_wordpool.txt	LTP117	ltpFR	16	14	-1	DUST	508	n/a	n/a	-1	1.0	1.0	1	upper	Verdana.ttf
2644.474	n/a	WORD	1322237	wordpools/wasnorm_wordpool.txt	LTP117	ltpFR	16	14	-1	ALBUM	14	n/a	n/a	-1	1.0	1.0	1	upper	Verdana.ttf
2648.648	n/a	WORD	1324324	wordpools/wasnorm_wordpool.txt	LTP117	ltpFR	16	14	-1	INSTRUCTOR	741	n/a	n/a	-1	1.0	1.0	1	upper	Verdana.ttf
2652.488	n/a	WORD	1326244	wordpools/wasnorm_wordpool.txt	LTP117	ltpFR	16	14	-1	STAFF	1365	n/a	n/a	-1	1.0	1.0	1	upper	Verdana.ttf
2658.104	n/a	REC_START	1329052	n/a	LTP117	ltpFR	16	14	n/a	n/a	n/a	n/a	n/a	n/a	n/a	n/a	n/a	n/a	n/a
2658.558	n/a	REC_WORD	1329279	wordpools/wasnorm_wordpool.txt	LTP117	ltpFR	16	14	-1	DUST	508	n/a	n/a	-1	n/a	n/a	n/a	n/a	n/a
2659.196	n/a	REC_WORD	1329598	wordpools/wasnorm_wordpool.txt	LTP117	ltpFR	16	14	-1	ALBUM	14	n/a	n/a	-1	n/a	n/a	n/a	n/a	n/a
2659.784	n/a	REC_WORD	1329892	wordpools/wasnorm_wordpool.txt	LTP117	ltpFR	16	14	-1	INSTRUCTOR	741	n/a	n/a	-1	n/a	n/a	n/a	n/a	n/a
2660.692	n/a	REC_WORD	1330346	wordpools/wasnorm_wordpool.txt	LTP117	ltpFR	16	14	-1	STAFF	1365	n/a	n/a	-1	n/a	n/a	n/a	n/a	n/a
2661.67	n/a	REC_WORD	1330835	wordpools/wasnorm_wordpool.txt	LTP117	ltpFR	16	14	-1	LUGGAGE	847	n/a	n/a	-1	n/a	n/a	n/a	n/a	n/a
2662.438	n/a	REC_WORD	1331219	wordpools/wasnorm_wordpool.txt	LTP117	ltpFR	16	14	-1	COMMANDER	354	n/a	n/a	-1	n/a	n/a	n/a	n/a	n/a
2663.266	n/a	REC_WORD	1331633	wordpools/wasnorm_wordpool.txt	LTP117	ltpFR	16	14	-1	ARMY	39	n/a	n/a	-1	n/a	n/a	n/a	n/a	n/a
2664.194	n/a	REC_WORD	1332097	wordpools/wasnorm_wordpool.txt	LTP117	ltpFR	16	14	-1	INN	739	n/a	n/a	-1	n/a	n/a	n/a	n/a	n/a
2665.058	n/a	REC_WORD	1332529	wordpools/wasnorm_wordpool.txt	LTP117	ltpFR	16	14	-1	DIGGER	464	n/a	n/a	-1	n/a	n/a	n/a	n/a	n/a
2666.1	n/a	REC_WORD	1333050	wordpools/wasnorm_wordpool.txt	LTP117	ltpFR	16	14	-1	PAINT	1003	n/a	n/a	-1	n/a	n/a	n/a	n/a	n/a
2668.5	n/a	REC_WORD	1334250	wordpools/wasnorm_wordpool.txt	LTP117	ltpFR	16	14	-1	BATHROOM	99	n/a	n/a	-1	n/a	n/a	n/a	n/a	n/a
2671.602	n/a	REC_WORD	1335801	wordpools/wasnorm_wordpool.txt	LTP117	ltpFR	16	14	-1	SQUID	1361	n/a	n/a	-1	n/a	n/a	n/a	n/a	n/a
2672.926	n/a	REC_WORD	1336463	wordpools/wasnorm_wordpool.txt	LTP117	ltpFR	16	14	-1	FUNGUS	614	n/a	n/a	-1	n/a	n/a	n/a	n/a	n/a
2674.038	n/a	REC_WORD	1337019	wordpools/wasnorm_wordpool.txt	LTP117	ltpFR	16	14	-1	MOSS	918	n/a	n/a	-1	n/a	n/a	n/a	n/a	n/a
2675.15	n/a	REC_WORD	1337575	wordpools/wasnorm_wordpool.txt	LTP117	ltpFR	16	14	-1	SACK	1220	n/a	n/a	-1	n/a	n/a	n/a	n/a	n/a
2680.812	n/a	REC_WORD	1340406	wordpools/wasnorm_wordpool.txt	LTP117	ltpFR	16	14	n/a	TOILET	1475	n/a	n/a	n/a	n/a	n/a	n/a	n/a	n/a
2700.734	n/a	REC_WORD	1350367	wordpools/wasnorm_wordpool.txt	LTP117	ltpFR	16	14	-1	COMMANDER	354	n/a	n/a	-1	n/a	n/a	n/a	n/a	n/a
2701.99	n/a	REC_WORD	1350995	wordpools/wasnorm_wordpool.txt	LTP117	ltpFR	16	14	-1	ARMY	39	n/a	n/a	-1	n/a	n/a	n/a	n/a	n/a
2703.232	n/a	REC_WORD	1351616	wordpools/wasnorm_wordpool.txt	LTP117	ltpFR	16	14	-1	INN	739	n/a	n/a	-1	n/a	n/a	n/a	n/a	n/a
2705.922	n/a	REC_WORD	1352961	wordpools/wasnorm_wordpool.txt	LTP117	ltpFR	16	14	-1	LUGGAGE	847	n/a	n/a	-1	n/a	n/a	n/a	n/a	n/a
2708.076	n/a	REC_WORD	1354038	wordpools/wasnorm_wordpool.txt	LTP117	ltpFR	16	14	-1	DUST	508	n/a	n/a	-1	n/a	n/a	n/a	n/a	n/a
2712.158	n/a	REC_WORD	1356079	wordpools/wasnorm_wordpool.txt	LTP117	ltpFR	16	14	-1	ALBUM	14	n/a	n/a	-1	n/a	n/a	n/a	n/a	n/a
2736.012	n/a	WORD	1368006	wordpools/wasnorm_wordpool.txt	LTP117	ltpFR	16	15	-1	CANAL	226	n/a	n/a	-1	1.0	1.0	1	upper	Verdana.ttf
2740.052	n/a	WORD	1370026	wordpools/wasnorm_wordpool.txt	LTP117	ltpFR	16	15	-1	COBWEB	337	n/a	n/a	-1	1.0	1.0	1	upper	Verdana.ttf
2744.142	n/a	WORD	1372071	wordpools/wasnorm_wordpool.txt	LTP117	ltpFR	16	15	-1	SHEEP	1278	n/a	n/a	-1	1.0	1.0	1	upper	Verdana.ttf
2748.276	n/a	WORD	1374138	wordpools/wasnorm_wordpool.txt	LTP117	ltpFR	16	15	-1	FUR	615	n/a	n/a	-1	1.0	1.0	1	upper	Verdana.ttf
2752.124	n/a	WORD	1376062	wordpools/wasnorm_wordpool.txt	LTP117	ltpFR	16	15	-1	PLASTER	1085	n/a	n/a	-1	1.0	1.0	1	upper	Verdana.ttf
2756.19	n/a	WORD	1378095	wordpools/wasnorm_wordpool.txt	LTP117	ltpFR	16	15	-1	SCAPEGOAT	1244	n/a	n/a	-1	1.0	1.0	1	upper	Verdana.ttf
2760.222	n/a	WORD	1380111	wordpools/wasnorm_wordpool.txt	LTP117	ltpFR	16	15	-1	MOTH	920	n/a	n/a	-1	1.0	1.0	1	upper	Verdana.ttf
2764.086	n/a	WORD	1382043	wordpools/wasnorm_wordpool.txt	LTP117	ltpFR	16	15	-1	MUSTARD	935	n/a	n/a	-1	1.0	1.0	1	upper	Verdana.ttf
2768.296	n/a	WORD	1384148	wordpools/wasnorm_wordpool.txt	LTP117	ltpFR	16	15	-1	LAKE	796	n/a	n/a	-1	1.0	1.0	1	upper	Verdana.ttf
2772.402	n/a	WORD	1386201	wordpools/wasnorm_wordpool.txt	LTP117	ltpFR	16	15	-1	FRANCE	601	n/a	n/a	-1	1.0	1.0	1	upper	Verdana.ttf
2776.468	n/a	WORD	1388234	wordpools/wasnorm_wordpool.txt	LTP117	ltpFR	16	15	-1	FREEWAY	603	n/a	n/a	-1	1.0	1.0	1	upper	Verdana.ttf
2780.374	n/a	WORD	1390187	wordpools/wasnorm_wordpool.txt	LTP117	ltpFR	16	15	-1	VAN	1548	n/a	n/a	-1	1.0	1.0	1	upper	Verdana.ttf
2784.548	n/a	WORD	1392274	wordpools/wasnorm_wordpool.txt	LTP117	ltpFR	16	15	-1	BUG	187	n/a	n/a	-1	1.0	1.0	1	upper	Verdana.ttf
2788.69	n/a	WORD	1394345	wordpools/wasnorm_wordpool.txt	LTP117	ltpFR	16	15	-1	HORNET	718	n/a	n/a	-1	1.0	1.0	1	upper	Verdana.ttf
2792.872	n/a	WORD	1396436	wordpools/wasnorm_wordpool.txt	LTP117	ltpFR	16	15	-1	STAR	1373	n/a	n/a	-1	1.0	1.0	1	upper	Verdana.ttf
2796.754	n/a	WORD	1398377	wordpools/wasnorm_wordpool.txt	LTP117	ltpFR	16	15	-1	IDOL	733	n/a	n/a	-1	1.0	1.0	1	upper	Verdana.ttf
2802.61	n/a	REC_START	1401305	n/a	LTP117	ltpFR	16	15	n/a	n/a	n/a	n/a	n/a	n/a	n/a	n/a	n/a	n/a	n/a
2802.99	n/a	REC_WORD	1401495	wordpools/wasnorm_wordpool.txt	LTP117	ltpFR	16	15	-1	HORNET	718	n/a	n/a	-1	n/a	n/a	n/a	n/a	n/a
2803.562	n/a	REC_WORD	1401781	wordpools/wasnorm_wordpool.txt	LTP117	ltpFR	16	15	-1	STAR	1373	n/a	n/a	-1	n/a	n/a	n/a	n/a	n/a
2804.546	n/a	REC_WORD	1402273	wordpools/wasnorm_wordpool.txt	LTP117	ltpFR	16	15	-1	IDOL	733	n/a	n/a	-1	n/a	n/a	n/a	n/a	n/a
2805.618	n/a	REC_WORD	1402809	wordpools/wasnorm_wordpool.txt	LTP117	ltpFR	16	15	-1	FRANCE	601	n/a	n/a	-1	n/a	n/a	n/a	n/a	n/a
2806.532	n/a	REC_WORD	1403266	wordpools/wasnorm_wordpool.txt	LTP117	ltpFR	16	15	-1	LAKE	796	n/a	n/a	-1	n/a	n/a	n/a	n/a	n/a
2807.18	n/a	REC_WORD	1403590	wordpools/wasnorm_wordpool.txt	LTP117	ltpFR	16	15	-1	FREEWAY	603	n/a	n/a	-1	n/a	n/a	n/a	n/a	n/a
2809.196	n/a	REC_WORD	1404598	wordpools/wasnorm_wordpool.txt	LTP117	ltpFR	16	15	-1	BUG	187	n/a	n/a	-1	n/a	n/a	n/a	n/a	n/a
2811.526	n/a	REC_WORD	1405763	wordpools/wasnorm_wordpool.txt	LTP117	ltpFR	16	15	-1	CANAL	226	n/a	n/a	-1	n/a	n/a	n/a	n/a	n/a
2812.714	n/a	REC_WORD	1406357	wordpools/wasnorm_wordpool.txt	LTP117	ltpFR	16	15	-1	COBWEB	337	n/a	n/a	-1	n/a	n/a	n/a	n/a	n/a
2821.942	n/a	REC_WORD	1410971	wordpools/wasnorm_wordpool.txt	LTP117	ltpFR	16	15	-1	SHEEP	1278	n/a	n/a	-1	n/a	n/a	n/a	n/a	n/a
2822.7	n/a	REC_WORD	1411350	wordpools/wasnorm_wordpool.txt	LTP117	ltpFR	16	15	-1	FUR	615	n/a	n/a	-1	n/a	n/a	n/a	n/a	n/a
2823.588	n/a	REC_WORD	1411794	wordpools/wasnorm_wordpool.txt	LTP117	ltpFR	16	15	-1	PLASTER	1085	n/a	n/a	-1	n/a	n/a	n/a	n/a	n/a
2824.702	n/a	REC_WORD	1412351	wordpools/wasnorm_wordpool.txt	LTP117	ltpFR	16	15	-1	SCAPEGOAT	1244	n/a	n/a	-1	n/a	n/a	n/a	n/a	n/a
2825.66	n/a	REC_WORD	1412830	wordpools/wasnorm_wordpool.txt	LTP117	ltpFR	16	15	-1	MUSTARD	935	n/a	n/a	-1	n/a	n/a	n/a	n/a	n/a
2827.39	n/a	REC_WORD	1413695	wordpools/wasnorm_wordpool.txt	LTP117	ltpFR	16	15	-1	MOTH	920	n/a	n/a	-1	n/a	n/a	n/a	n/a	n/a
2835.622	n/a	REC_WORD	1417811	wordpools/wasnorm_wordpool.txt	LTP117	ltpFR	16	15	-1	BUG	187	n/a	n/a	-1	n/a	n/a	n/a	n/a	n/a
2851.956	n/a	REC_WORD	1425978	wordpools/wasnorm_wordpool.txt	LTP117	ltpFR	16	15	-1	CANAL	226	n/a	n/a	-1	n/a	n/a	n/a	n/a	n/a
2859.47	n/a	REC_WORD	1429735	wordpools/wasnorm_wordpool.txt	LTP117	ltpFR	16	15	-1	SHEEP	1278	n/a	n/a	-1	n/a	n/a	n/a	n/a	n/a
2861.46	n/a	REC_WORD	1430730	wordpools/wasnorm_wordpool.txt	LTP117	ltpFR	16	15	-1	FUR	615	n/a	n/a	-1	n/a	n/a	n/a	n/a	n/a
2862.902	n/a	REC_WORD	1431451	wordpools/wasnorm_wordpool.txt	LTP117	ltpFR	16	15	-1	SCAPEGOAT	1244	n/a	n/a	-1	n/a	n/a	n/a	n/a	n/a
2873.822	n/a	REC_WORD	1436911	wordpools/wasnorm_wordpool.txt	LTP117	ltpFR	16	15	0	CAR	241	n/a	n/a	1	n/a	n/a	n/a	n/a	n/a
2875.02	n/a	REC_WORD	1437510	wordpools/wasnorm_wordpool.txt	LTP117	ltpFR	16	15	-1	BUG	187	n/a	n/a	-1	n/a	n/a	n/a	n/a	n/a
2880.494	n/a	WORD	1440247	wordpools/wasnorm_wordpool.txt	LTP117	ltpFR	16	16	0	HORIZON	717	n/a	n/a	1	0.57763671875	0.412841796875	1	upper	zerothre.ttf
2884.518	n/a	WORD	1442259	wordpools/wasnorm_wordpool.txt	LTP117	ltpFR	16	16	0	NEPTUNE	943	n/a	n/a	1	0.57763671875	0.412841796875	1	upper	zerothre.ttf
2888.434	n/a	WORD	1444217	wordpools/wasnorm_wordpool.txt	LTP117	ltpFR	16	16	0	HOE	711	n/a	n/a	1	0.57763671875	0.412841796875	1	upper	zerothre.ttf
2892.324	n/a	WORD	1446162	wordpools/wasnorm_wordpool.txt	LTP117	ltpFR	16	16	0	PLANT	1083	n/a	n/a	1	0.57763671875	0.412841796875	1	upper	zerothre.ttf
2896.464	n/a	WORD	1448232	wordpools/wasnorm_wordpool.txt	LTP117	ltpFR	16	16	0	MANSION	864	n/a	n/a	1	0.57763671875	0.412841796875	1	upper	zerothre.ttf
2900.38	n/a	WORD	1450190	wordpools/wasnorm_wordpool.txt	LTP117	ltpFR	16	16	0	NITROGEN	954	n/a	n/a	1	0.57763671875	0.412841796875	1	upper	zerothre.ttf
2904.304	n/a	WORD	1452152	wordpools/wasnorm_wordpool.txt	LTP117	ltpFR	16	16	1	PANTS	1010	n/a	n/a	1	0.422607421875	0.5869140625	0	lower	amplitud.ttf
2908.344	n/a	WORD	1454172	wordpools/wasnorm_wordpool.txt	LTP117	ltpFR	16	16	1	MAJOR	859	n/a	n/a	1	0.422607421875	0.5869140625	0	lower	amplitud.ttf
2912.518	n/a	WORD	1456259	wordpools/wasnorm_wordpool.txt	LTP117	ltpFR	16	16	1	YOUTH	1634	n/a	n/a	1	0.422607421875	0.5869140625	0	lower	amplitud.ttf
2916.484	n/a	WORD	1458242	wordpools/wasnorm_wordpool.txt	LTP117	ltpFR	16	16	1	MAID	856	n/a	n/a	1	0.422607421875	0.5869140625	0	lower	amplitud.ttf
2920.558	n/a	WORD	1460279	wordpools/wasnorm_wordpool.txt	LTP117	ltpFR	16	16	0	LAPEL	800	n/a	n/a	1	0.57763671875	0.412841796875	1	upper	zerothre.ttf
2924.664	n/a	WORD	1462332	wordpools/wasnorm_wordpool.txt	LTP117	ltpFR	16	16	0	MITTEN	902	n/a	n/a	1	0.57763671875	0.412841796875	1	upper	zerothre.ttf
2928.872	n/a	WORD	1464436	wordpools/wasnorm_wordpool.txt	LTP117	ltpFR	16	16	1	SIDING	1304	n/a	n/a	1	0.422607421875	0.5869140625	0	lower	amplitud.ttf
2932.736	n/a	WORD	1466368	wordpools/wasnorm_wordpool.txt	LTP117	ltpFR	16	16	1	SERVANT	1271	n/a	n/a	1	0.422607421875	0.5869140625	0	lower	amplitud.ttf
2936.768	n/a	WORD	1468384	wordpools/wasnorm_wordpool.txt	LTP117	ltpFR	16	16	1	LEAF	808	n/a	n/a	1	0.422607421875	0.5869140625	0	lower	amplitud.ttf
2940.618	n/a	WORD	1470309	wordpools/wasnorm_wordpool.txt	LTP117	ltpFR	16	16	1	SAP	1233	n/a	n/a	1	0.422607421875	0.5869140625	0	lower	amplitud.ttf
2946.334	n/a	REC_START	1473167	n/a	LTP117	ltpFR	16	16	n/a	n/a	n/a	n/a	n/a	n/a	n/a	n/a	n/a	n/a	n/a
2946.538	n/a	REC_WORD	1473269	wordpools/wasnorm_wordpool.txt	LTP117	ltpFR	16	16	1	SIDING	1304	n/a	n/a	1	n/a	n/a	n/a	n/a	n/a
2947.206	n/a	REC_WORD	1473603	wordpools/wasnorm_wordpool.txt	LTP117	ltpFR	16	16	1	SERVANT	1271	n/a	n/a	1	n/a	n/a	n/a	n/a	n/a
2948.084	n/a	REC_WORD	1474042	wordpools/wasnorm_wordpool.txt	LTP117	ltpFR	16	16	1	LEAF	808	n/a	n/a	1	n/a	n/a	n/a	n/a	n/a
2948.722	n/a	REC_WORD	1474361	wordpools/wasnorm_wordpool.txt	LTP117	ltpFR	16	16	1	SAP	1233	n/a	n/a	1	n/a	n/a	n/a	n/a	n/a
2951.172	n/a	REC_WORD	1475586	wordpools/wasnorm_wordpool.txt	LTP117	ltpFR	16	16	0	NEPTUNE	943	n/a	n/a	1	n/a	n/a	n/a	n/a	n/a
2951.87	n/a	REC_WORD	1475935	wordpools/wasnorm_wordpool.txt	LTP117	ltpFR	16	16	0	NITROGEN	954	n/a	n/a	1	n/a	n/a	n/a	n/a	n/a
2952.562	n/a	REC_WORD	1476281	wordpools/wasnorm_wordpool.txt	LTP117	ltpFR	16	16	0	HORIZON	717	n/a	n/a	1	n/a	n/a	n/a	n/a	n/a
2953.772	n/a	REC_WORD	1476886	wordpools/wasnorm_wordpool.txt	LTP117	ltpFR	16	16	0	PLANT	1083	n/a	n/a	1	n/a	n/a	n/a	n/a	n/a
2954.544	n/a	REC_WORD	1477272	wordpools/wasnorm_wordpool.txt	LTP117	ltpFR	16	16	0	HOE	711	n/a	n/a	1	n/a	n/a	n/a	n/a	n/a
2957.094	n/a	REC_WORD	1478547	wordpools/wasnorm_wordpool.txt	LTP117	ltpFR	16	16	1	YOUTH	1634	n/a	n/a	1	n/a	n/a	n/a	n/a	n/a
2958.492	n/a	REC_WORD	1479246	wordpools/wasnorm_wordpool.txt	LTP117	ltpFR	16	16	1	PANTS	1010	n/a	n/a	1	n/a	n/a	n/a	n/a	n/a
2959.728	n/a	REC_WORD	1479864	wordpools/wasnorm_wordpool.txt	LTP117	ltpFR	16	16	1	MAJOR	859	n/a	n/a	1	n/a	n/a	n/a	n/a	n/a
2961.714	n/a	REC_WORD	1480857	wordpools/wasnorm_wordpool.txt	LTP117	ltpFR	16	16	n/a	TATTERED	-1	n/a	n/a	n/a	n/a	n/a	n/a	n/a	n/a
2966.812	n/a	REC_WORD	1483406	wordpools/wasnorm_wordpool.txt	LTP117	ltpFR	16	16	1	YOUTH	1634	n/a	n/a	1	n/a	n/a	n/a	n/a	n/a
2967.776	n/a	REC_WORD	1483888	wordpools/wasnorm_wordpool.txt	LTP117	ltpFR	16	16	1	MAID	856	n/a	n/a	1	n/a	n/a	n/a	n/a	n/a
2969.756	n/a	REC_WORD	1484878	wordpools/wasnorm_wordpool.txt	LTP117	ltpFR	16	16	1	SERVANT	1271	n/a	n/a	1	n/a	n/a	n/a	n/a	n/a
2973.134	n/a	REC_WORD	1486567	wordpools/wasnorm_wordpool.txt	LTP117	ltpFR	16	16	0	MANSION	864	n/a	n/a	1	n/a	n/a	n/a	n/a	n/a
2976.036	n/a	REC_WORD	1488018	wordpools/wasnorm_wordpool.txt	LTP117	ltpFR	16	16	0	NITROGEN	954	n/a	n/a	1	n/a	n/a	n/a	n/a	n/a
2977.758	n/a	REC_WORD	1488879	wordpools/wasnorm_wordpool.txt	LTP117	ltpFR	16	16	0	NEPTUNE	943	n/a	n/a	1	n/a	n/a	n/a	n/a	n/a
2999.046	n/a	REC_WORD	1499523	wordpools/wasnorm_wordpool.txt	LTP117	ltpFR	16	16	0	LAPEL	800	n/a	n/a	1	n/a	n/a	n/a	n/a	n/a
2999.79	n/a	REC_WORD	1499895	wordpools/wasnorm_wordpool.txt	LTP117	ltpFR	16	16	0	MITTEN	902	n/a	n/a	1	n/a	n/a	n/a	n/a	n/a
3031.424	n/a	REC_START	1515712	n/a	LTP117	ltpFR	16	n/a	n/a	n/a	n/a	n/a	n/a	n/a	n/a	n/a	n/a	n/a	n/a
3031.748	n/a	FFR_REC_WORD	1515874	wordpools/wasnorm_wordpool.txt	LTP117	ltpFR	16	n/a	0	HORIZON	717	n/a	n/a	1	n/a	n/a	n/a	n/a	n/a
3032.668	n/a	FFR_REC_WORD	1516334	wordpools/wasnorm_wordpool.txt	LTP117	ltpFR	16	n/a	0	HOE	711	n/a	n/a	1	n/a	n/a	n/a	n/a	n/a
3033.494	n/a	FFR_REC_WORD	1516747	wordpools/wasnorm_wordpool.txt	LTP117	ltpFR	16	n/a	0	PLANT	1083	n/a	n/a	1	n/a	n/a	n/a	n/a	n/a
3038.05	n/a	FFR_REC_WORD	1519025	wordpools/wasnorm_wordpool.txt	LTP117	ltpFR	16	n/a	0	NEPTUNE	943	n/a	n/a	1	n/a	n/a	n/a	n/a	n/a
3038.828	n/a	FFR_REC_WORD	1519414	wordpools/wasnorm_wordpool.txt	LTP117	ltpFR	16	n/a	0	NITROGEN	954	n/a	n/a	1	n/a	n/a	n/a	n/a	n/a
3039.696	n/a	FFR_REC_WORD	1519848	wordpools/wasnorm_wordpool.txt	LTP117	ltpFR	16	n/a	1	LEAF	808	n/a	n/a	1	n/a	n/a	n/a	n/a	n/a
3043.698	n/a	FFR_REC_WORD	1521849	wordpools/wasnorm_wordpool.txt	LTP117	ltpFR	16	n/a	1	MAID	856	n/a	n/a	1	n/a	n/a	n/a	n/a	n/a
3044.258	n/a	FFR_REC_WORD	1522129	wordpools/wasnorm_wordpool.txt	LTP117	ltpFR	16	n/a	1	SERVANT	1271	n/a	n/a	1	n/a	n/a	n/a	n/a	n/a
3047.658	n/a	FFR_REC_WORD	1523829	wordpools/wasnorm_wordpool.txt	LTP117	ltpFR	16	n/a	n/a	SWAMP	1416	n/a	n/a	n/a	n/a	n/a	n/a	n/a	n/a
3051.016	n/a	FFR_REC_WORD	1525508	wordpools/wasnorm_wordpool.txt	LTP117	ltpFR	16	n/a	0	MANSION	864	n/a	n/a	1	n/a	n/a	n/a	n/a	n/a
3052.572	n/a	FFR_REC_WORD	1526286	wordpools/wasnorm_wordpool.txt	LTP117	ltpFR	16	n/a	0	HOE	711	n/a	n/a	1	n/a	n/a	n/a	n/a	n/a
3053.112	n/a	FFR_REC_WORD	1526556	wordpools/wasnorm_wordpool.txt	LTP117	ltpFR	16	n/a	0	PLANT	1083	n/a	n/a	1	n/a	n/a	n/a	n/a	n/a
3054.34	n/a	FFR_REC_WORD	1527170	wordpools/wasnorm_wordpool.txt	LTP117	ltpFR	16	n/a	-1	BUG	187	n/a	n/a	-1	n/a	n/a	n/a	n/a	n/a
3054.848	n/a	FFR_REC_WORD	1527424	wordpools/wasnorm_wordpool.txt	LTP117	ltpFR	16	n/a	0	BUGGY	188	n/a	n/a	1	n/a	n/a	n/a	n/a	n/a
3055.322	n/a	FFR_REC_WORD	1527661	wordpools/wasnorm_wordpool.txt	LTP117	ltpFR	16	n/a	-1	MOTH	920	n/a	n/a	-1	n/a	n/a	n/a	n/a	n/a
3056.364	n/a	FFR_REC_WORD	1528182	wordpools/wasnorm_wordpool.txt	LTP117	ltpFR	16	n/a	-1	COBWEB	337	n/a	n/a	-1	n/a	n/a	n/a	n/a	n/a
3057.162	n/a	FFR_REC_WORD	1528581	wordpools/wasnorm_wordpool.txt	LTP117	ltpFR	16	n/a	-1	CANAL	226	n/a	n/a	-1	n/a	n/a	n/a	n/a	n/a
3058.246	n/a	FFR_REC_WORD	1529123	wordpools/wasnorm_wordpool.txt	LTP117	ltpFR	16	n/a	1	OATS	968	n/a	n/a	1	n/a	n/a	n/a	n/a	n/a
3061.598	n/a	FFR_REC_WORD	1530799	wordpools/wasnorm_wordpool.txt	LTP117	ltpFR	16	n/a	0	MEAT	883	n/a	n/a	1	n/a	n/a	n/a	n/a	n/a
3062.272	n/a	FFR_REC_WORD	1531136	wordpools/wasnorm_wordpool.txt	LTP117	ltpFR	16	n/a	0	BEEF	113	n/a	n/a	0	n/a	n/a	n/a	n/a	n/a
3066.696	n/a	FFR_REC_WORD	1533348	wordpools/wasnorm_wordpool.txt	LTP117	ltpFR	16	n/a	0	STAMP	1370	n/a	n/a	1	n/a	n/a	n/a	n/a	n/a
3067.48	n/a	FFR_REC_WORD	1533740	wordpools/wasnorm_wordpool.txt	LTP117	ltpFR	16	n/a	0	LETTER	813	n/a	n/a	1	n/a	n/a	n/a	n/a	n/a
3069.206	n/a	FFR_REC_WORD	1534603	wordpools/wasnorm_wordpool.txt	LTP117	ltpFR	16	n/a	0	APE	31	n/a	n/a	1	n/a	n/a	n/a	n/a	n/a
3070.234	n/a	FFR_REC_WORD	1535117	wordpools/wasnorm_wordpool.txt	LTP117	ltpFR	16	n/a	0	MARINE	869	n/a	n/a	1	n/a	n/a	n/a	n/a	n/a
3072.17	n/a	FFR_REC_WORD	1536085	wordpools/wasnorm_wordpool.txt	LTP117	ltpFR	16	n/a	n/a	MONKEY	911	n/a	n/a	n/a	n/a	n/a	n/a	n/a	n/a
3091.94	n/a	FFR_REC_WORD	1545970	wordpools/wasnorm_wordpool.txt	LTP117	ltpFR	16	n/a	0	HAYSTACK	694	n/a	n/a	1	n/a	n/a	n/a	n/a	n/a
3092.674	n/a	FFR_REC_WORD	1546337	wordpools/wasnorm_wordpool.txt	LTP117	ltpFR	16	n/a	0	BOXER	160	n/a	n/a	1	n/a	n/a	n/a	n/a	n/a
3093.262	n/a	FFR_REC_WORD	1546631	wordpools/wasnorm_wordpool.txt	LTP117	ltpFR	16	n/a	0	COCOON	339	n/a	n/a	1	n/a	n/a	n/a	n/a	n/a
3095.038	n/a	FFR_REC_WORD	1547519	wordpools/wasnorm_wordpool.txt	LTP117	ltpFR	16	n/a	1	HEAD	695	n/a	n/a	1	n/a	n/a	n/a	n/a	n/a
3095.882	n/a	FFR_REC_WORD	1547941	wordpools/wasnorm_wordpool.txt	LTP117	ltpFR	16	n/a	1	CHEST	295	n/a	n/a	1	n/a	n/a	n/a	n/a	n/a
3098.964	n/a	FFR_REC_WORD	1549482	wordpools/wasnorm_wordpool.txt	LTP117	ltpFR	16	n/a	1	EYE	545	n/a	n/a	1	n/a	n/a	n/a	n/a	n/a
3099.868	n/a	FFR_REC_WORD	1549934	wordpools/wasnorm_wordpool.txt	LTP117	ltpFR	16	n/a	1	HAND	683	n/a	n/a	0	n/a	n/a	n/a	n/a	n/a
3103.874	n/a	FFR_REC_WORD	1551937	wordpools/wasnorm_wordpool.txt	LTP117	ltpFR	16	n/a	1	VEHICLE	1553	n/a	n/a	1	n/a	n/a	n/a	n/a	n/a
3104.568	n/a	FFR_REC_WORD	1552284	wordpools/wasnorm_wordpool.txt	LTP117	ltpFR	16	n/a	1	AUTOMOBILE	62	n/a	n/a	1	n/a	n/a	n/a	n/a	n/a
3105.42	n/a	FFR_REC_WORD	1552710	wordpools/wasnorm_wordpool.txt	LTP117	ltpFR	16	n/a	0	GARAGE	621	n/a	n/a	1	n/a	n/a	n/a	n/a	n/a
3106.548	n/a	FFR_REC_WORD	1553274	wordpools/wasnorm_wordpool.txt	LTP117	ltpFR	16	n/a	0	CREATURE	403	n/a	n/a	1	n/a	n/a	n/a	n/a	n/a
3107.24	n/a	FFR_REC_WORD	1553620	wordpools/wasnorm_wordpool.txt	LTP117	ltpFR	16	n/a	0	SPIDER	1351	n/a	n/a	1	n/a	n/a	n/a	n/a	n/a
3135.798	n/a	FFR_REC_WORD	1567899	wordpools/wasnorm_wordpool.txt	LTP117	ltpFR	16	n/a	1	OATS	968	n/a	n/a	1	n/a	n/a	n/a	n/a	n/a
3140.392	n/a	FFR_REC_WORD	1570196	wordpools/wasnorm_wordpool.txt	LTP117	ltpFR	16	n/a	n/a	LOAF	835	n/a	n/a	n/a	n/a	n/a	n/a	n/a	n/a
3141.086	n/a	FFR_REC_WORD	1570543	wordpools/wasnorm_wordpool.txt	LTP117	ltpFR	16	n/a	n/a	BREAD	170	n/a	n/a	n/a	n/a	n/a	n/a	n/a	n/a
3166.698	n/a	FFR_REC_WORD	1583349	wordpools/wasnorm_wordpool.txt	LTP117	ltpFR	16	n/a	-1	HAWK	692	n/a	n/a	-1	n/a	n/a	n/a	n/a	n/a
3167.428	n/a	FFR_REC_WORD	1583714	wordpools/wasnorm_wordpool.txt	LTP117	ltpFR	16	n/a	-1	PREACHER	1119	n/a	n/a	-1	n/a	n/a	n/a	n/a	n/a
3169.14	n/a	FFR_REC_WORD	1584570	wordpools/wasnorm_wordpool.txt	LTP117	ltpFR	16	n/a	-1	OUTFIT	988	n/a	n/a	-1	n/a	n/a	n/a	n/a	n/a
3171.134	n/a	FFR_REC_WORD	1585567	wordpools/wasnorm_wordpool.txt	LTP117	ltpFR	16	n/a	-1	BUREAU	199	n/a	n/a	-1	n/a	n/a	n/a	n/a	n/a
3171.824	n/a	FFR_REC_WORD	1585912	wordpools/wasnorm_wordpool.txt	LTP117	ltpFR	16	n/a	-1	DRESSER	496	n/a	n/a	-1	n/a	n/a	n/a	n/a	n/a
3173.254	n/a	FFR_REC_WORD	1586627	wordpools/wasnorm_wordpool.txt	LTP117	ltpFR	16	n/a	-1	MOLECULE	905	n/a	n/a	-1	n/a	n/a	n/a	n/a	n/a
3175.908	n/a	FFR_REC_WORD	1587954	wordpools/wasnorm_wordpool.txt	LTP117	ltpFR	16	n/a	1	CONDUCTOR	362	n/a	n/a	1	n/a	n/a	n/a	n/a	n/a
3177.68	n/a	FFR_REC_WORD	1588840	wordpools/wasnorm_wordpool.txt	LTP117	ltpFR	16	n/a	1	PROFESSOR	1131	n/a	n/a	1	n/a	n/a	n/a	n/a	n/a
3178.828	n/a	FFR_REC_WORD_VV	1589414	wordpools/wasnorm_wordpool.txt	LTP117	ltpFR	16	n/a	n/a	<>	-1	n/a	n/a	n/a	n/a	n/a	n/a	n/a	n/a
3181.206	n/a	FFR_REC_WORD	1590603	wordpools/wasnorm_wordpool.txt	LTP117	ltpFR	16	n/a	1	PROTON	1132	n/a	n/a	1	n/a	n/a	n/a	n/a	n/a
3186.58	n/a	FFR_REC_WORD	1593290	wordpools/wasnorm_wordpool.txt	LTP117	ltpFR	16	n/a	-1	FRANCE	601	n/a	n/a	-1	n/a	n/a	n/a	n/a	n/a
3187.398	n/a	FFR_REC_WORD	1593699	wordpools/wasnorm_wordpool.txt	LTP117	ltpFR	16	n/a	-1	LAKE	796	n/a	n/a	-1	n/a	n/a	n/a	n/a	n/a
3188.002	n/a	FFR_REC_WORD	1594001	wordpools/wasnorm_wordpool.txt	LTP117	ltpFR	16	n/a	-1	MUSTARD	935	n/a	n/a	-1	n/a	n/a	n/a	n/a	n/a
3188.736	n/a	FFR_REC_WORD	1594368	wordpools/wasnorm_wordpool.txt	LTP117	ltpFR	16	n/a	-1	PLASTER	1085	n/a	n/a	-1	n/a	n/a	n/a	n/a	n/a
3203.532	n/a	FFR_REC_WORD	1601766	wordpools/wasnorm_wordpool.txt	LTP117	ltpFR	16	n/a	-1	SCAPEGOAT	1244	n/a	n/a	-1	n/a	n/a	n/a	n/a	n/a
3204.336	n/a	FFR_REC_WORD	1602168	wordpools/wasnorm_wordpool.txt	LTP117	ltpFR	16	n/a	-1	SHEEP	1278	n/a	n/a	-1	n/a	n/a	n/a	n/a	n/a
3205.114	n/a	FFR_REC_WORD	1602557	wordpools/wasnorm_wordpool.txt	LTP117	ltpFR	16	n/a	-1	FUR	615	n/a	n/a	-1	n/a	n/a	n/a	n/a	n/a
3213.212	n/a	FFR_REC_WORD	1606606	wordpools/wasnorm_wordpool.txt	LTP117	ltpFR	16	n/a	-1	GIRAFFE	636	n/a	n/a	-1	n/a	n/a	n/a	n/a	n/a
3219.656	n/a	FFR_REC_WORD	1609828	wordpools/wasnorm_wordpool.txt	LTP117	ltpFR	16	n/a	1	SHERIFF	1284	n/a	n/a	1	n/a	n/a	n/a	n/a	n/a
3224.94	n/a	FFR_REC_WORD	1612470	wordpools/wasnorm_wordpool.txt	LTP117	ltpFR	16	n/a	1	CUP	424	n/a	n/a	0	n/a	n/a	n/a	n/a	n/a
3225.674	n/a	FFR_REC_WORD	1612837	wordpools/wasnorm_wordpool.txt	LTP117	ltpFR	16	n/a	1	BLENDER	136	n/a	n/a	0	n/a	n/a	n/a	n/a	n/a
3226.378	n/a	FFR_REC_WORD	1613189	wordpools/wasnorm_wordpool.txt	LTP117	ltpFR	16	n/a	1	WHEEL	1603	n/a	n/a	0	n/a	n/a	n/a	n/a	n/a
3227.11	n/a	FFR_REC_WORD	1613555	wordpools/wasnorm_wordpool.txt	LTP117	ltpFR	16	n/a	1	PISTOL	1075	n/a	n/a	0	n/a	n/a	n/a	n/a	n/a
3229.57	n/a	FFR_REC_WORD	1614785	wordpools/wasnorm_wordpool.txt	LTP117	ltpFR	16	n/a	1	BLENDER	136	n/a	n/a	0	n/a	n/a	n/a	n/a	n/a
3230.258	n/a	FFR_REC_WORD	1615129	wordpools/wasnorm_wordpool.txt	LTP117	ltpFR	16	n/a	1	WATER	1594	n/a	n/a	1	n/a	n/a	n/a	n/a	n/a
3230.812	n/a	FFR_REC_WORD	1615406	wordpools/wasnorm_wordpool.txt	LTP117	ltpFR	16	n/a	1	SALIVA	1226	n/a	n/a	1	n/a	n/a	n/a	n/a	n/a
3232.154	n/a	FFR_REC_WORD	1616077	wordpools/wasnorm_wordpool.txt	LTP117	ltpFR	16	n/a	1	KEY	773	n/a	n/a	1	n/a	n/a	n/a	n/a	n/a
3253.268	n/a	FFR_REC_WORD	1626634	wordpools/wasnorm_wordpool.txt	LTP117	ltpFR	16	n/a	0	MEAT	883	n/a	n/a	1	n/a	n/a	n/a	n/a	n/a
3257.064	n/a	FFR_REC_WORD	1628532	wordpools/wasnorm_wordpool.txt	LTP117	ltpFR	16	n/a	-1	CANAL	226	n/a	n/a	-1	n/a	n/a	n/a	n/a	n/a
3257.742	n/a	FFR_REC_WORD	1628871	wordpools/wasnorm_wordpool.txt	LTP117	ltpFR	16	n/a	-1	COBWEB	337	n/a	n/a	-1	n/a	n/a	n/a	n/a	n/a
3272.824	n/a	FFR_REC_WORD	1636412	wordpools/wasnorm_wordpool.txt	LTP117	ltpFR	16	n/a	0	PLANET	1082	n/a	n/a	1	n/a	n/a	n/a	n/a	n/a
3274.83	n/a	FFR_REC_WORD	1637415	wordpools/wasnorm_wordpool.txt	LTP117	ltpFR	16	n/a	n/a	EARTH	515	n/a	n/a	n/a	n/a	n/a	n/a	n/a	n/a
3289.208	n/a	FFR_REC_WORD	1644604	wordpools/wasnorm_wordpool.txt	LTP117	ltpFR	16	n/a	1	BUTCHER	203	n/a	n/a	1	n/a	n/a	n/a	n/a	n/a
3289.886	n/a	FFR_REC_WORD	1644943	wordpools/wasnorm_wordpool.txt	LTP117	ltpFR	16	n/a	1	GREASE	660	n/a	n/a	1	n/a	n/a	n/a	n/a	n/a
3290.654	n/a	FFR_REC_WORD	1645327	wordpools/wasnorm_wordpool.txt	LTP117	ltpFR	16	n/a	0	COMB	351	n/a	n/a	0	n/a	n/a	n/a	n/a	n/a
3291.568	n/a	FFR_REC_WORD	1645784	wordpools/wasnorm_wordpool.txt	LTP117	ltpFR	16	n/a	0	HEDGE	699	n/a	n/a	0	n/a	n/a	n/a	n/a	n/a
3309.962	n/a	FFR_REC_WORD	1654981	wordpools/wasnorm_wordpool.txt	LTP117	ltpFR	16	n/a	0	JUG	762	n/a	n/a	1	n/a	n/a	n/a	n/a	n/a
3310.72	n/a	FFR_REC_WORD	1655360	wordpools/wasnorm_wordpool.txt	LTP117	ltpFR	16	n/a	1	PENNY	1045	n/a	n/a	1	n/a	n/a	n/a	n/a	n/a
3311.398	n/a	FFR_REC_WORD	1655699	wordpools/wasnorm_wordpool.txt	LTP117	ltpFR	16	n/a	0	KEG	770	n/a	n/a	1	n/a	n/a	n/a	n/a	n/a
3313.544	n/a	FFR_REC_WORD	1656772	wordpools/wasnorm_wordpool.txt	LTP117	ltpFR	16	n/a	0	STUMP	1396	n/a	n/a	1	n/a	n/a	n/a	n/a	n/a
3314.83	n/a	FFR_REC_WORD	1657415	wordpools/wasnorm_wordpool.txt	LTP117	ltpFR	16	n/a	1	BANDAGE	79	n/a	n/a	1	n/a	n/a	n/a	n/a	n/a
3316.586	n/a	FFR_REC_WORD	1658293	wordpools/wasnorm_wordpool.txt	LTP117	ltpFR	16	n/a	1	ENEMY	534	n/a	n/a	1	n/a	n/a	n/a	n/a	n/a
3321.156	n/a	FFR_REC_WORD	1660578	wordpools/wasnorm_wordpool.txt	LTP117	ltpFR	16	n/a	1	VILLAGE	1566	n/a	n/a	0	n/a	n/a	n/a	n/a	n/a
3347.562	n/a	REC_START	1673781	n/a	LTP117	ltpFR	16	1	n/a	n/a	n/a	n/a	n/a	n/a	n/a	n/a	n/a	n/a	n/a
3347.596	n/a	RECOG_TARGET	1673798	n/a	LTP117	ltpFR	16	1	0	FLY	586	1	5	1	n/a	n/a	n/a	n/a	n/a
3348.356	n/a	RECOG_RESP	1674178	n/a	LTP117	ltpFR	16	1	0	FLY	586	1	n/a	1	n/a	n/a	n/a	n/a	n/a
3348.904	n/a	RECOG_CONF	1674452	n/a	LTP117	ltpFR	16	1	0	FLY	586	n/a	5	1	n/a	n/a	n/a	n/a	n/a
3350.252	n/a	RECOG_TARGET	1675126	n/a	LTP117	ltpFR	16	1	1	RADISH	1158	1	5	1	n/a	n/a	n/a	n/a	n/a
3350.546	n/a	RECOG_RESP	1675273	n/a	LTP117	ltpFR	16	1	1	RADISH	1158	1	n/a	1	n/a	n/a	n/a	n/a	n/a
3351.01	n/a	RECOG_CONF	1675505	n/a	LTP117	ltpFR	16	1	1	RADISH	1158	n/a	5	1	n/a	n/a	n/a	n/a	n/a
3352.31	n/a	RECOG_TARGET	1676155	n/a	LTP117	ltpFR	16	1	-1	GIFT	635	1	4	-1	n/a	n/a	n/a	n/a	n/a
3352.496	n/a	RECOG_RESP	1676248	n/a	LTP117	ltpFR	16	1	-1	GIFT	635	1	n/a	-1	n/a	n/a	n/a	n/a	n/a
3353.494	n/a	RECOG_CONF	1676747	n/a	LTP117	ltpFR	16	1	-1	GIFT	635	n/a	4	-1	n/a	n/a	n/a	n/a	n/a
3354.876	n/a	RECOG_LURE	1677438	n/a	LTP117	ltpFR	16	1	n/a	CORAL	378	1	1	n/a	n/a	n/a	n/a	n/a	n/a
3355.184	n/a	RECOG_RESP	1677592	n/a	LTP117	ltpFR	16	1	n/a	CORAL	378	1	n/a	n/a	n/a	n/a	n/a	n/a	n/a
3355.908	n/a	RECOG_CONF	1677954	n/a	LTP117	ltpFR	16	1	n/a	CORAL	378	n/a	1	n/a	n/a	n/a	n/a	n/a	n/a
3357.234	n/a	RECOG_TARGET	1678617	n/a	LTP117	ltpFR	16	1	0	BEAKER	104	1	5	1	n/a	n/a	n/a	n/a	n/a
3357.65	n/a	RECOG_RESP	1678825	n/a	LTP117	ltpFR	16	1	0	BEAKER	104	1	n/a	1	n/a	n/a	n/a	n/a	n/a
3358.114	n/a	RECOG_CONF	1679057	n/a	LTP117	ltpFR	16	1	0	BEAKER	104	n/a	5	1	n/a	n/a	n/a	n/a	n/a
3359.376	n/a	RECOG_TARGET	1679688	n/a	LTP117	ltpFR	16	1	1	STABLE	1363	1	5	1	n/a	n/a	n/a	n/a	n/a
3359.586	n/a	RECOG_RESP	1679793	n/a	LTP117	ltpFR	16	1	1	STABLE	1363	1	n/a	1	n/a	n/a	n/a	n/a	n/a
3360.05	n/a	RECOG_CONF	1680025	n/a	LTP117	ltpFR	16	1	1	STABLE	1363	n/a	5	1	n/a	n/a	n/a	n/a	n/a
3361.342	n/a	RECOG_TARGET	1680671	n/a	LTP117	ltpFR	16	1	-1	CARD	243	1	5	-1	n/a	n/a	n/a	n/a	n/a
3361.432	n/a	RECOG_RESP	1680716	n/a	LTP117	ltpFR	16	1	-1	CARD	243	1	n/a	-1	n/a	n/a	n/a	n/a	n/a
3361.866	n/a	RECOG_CONF	1680933	n/a	LTP117	ltpFR	16	1	-1	CARD	243	n/a	5	-1	n/a	n/a	n/a	n/a	n/a
3363.164	n/a	RECOG_TARGET	1681582	n/a	LTP117	ltpFR	16	1	1	CINNAMON	310	1	5	1	n/a	n/a	n/a	n/a	n/a
3363.282	n/a	RECOG_RESP	1681641	n/a	LTP117	ltpFR	16	1	1	CINNAMON	310	1	n/a	1	n/a	n/a	n/a	n/a	n/a
3363.772	n/a	RECOG_CONF	1681886	n/a	LTP117	ltpFR	16	1	1	CINNAMON	310	n/a	5	1	n/a	n/a	n/a	n/a	n/a
3364.964	n/a	RECOG_TARGET	1682482	n/a	LTP117	ltpFR	16	1	0	REFEREE	1178	1	5	1	n/a	n/a	n/a	n/a	n/a
3365.098	n/a	RECOG_RESP	1682549	n/a	LTP117	ltpFR	16	1	0	REFEREE	1178	1	n/a	1	n/a	n/a	n/a	n/a	n/a
3365.558	n/a	RECOG_CONF	1682779	n/a	LTP117	ltpFR	16	1	0	REFEREE	1178	n/a	5	1	n/a	n/a	n/a	n/a	n/a
3366.88	n/a	RECOG_TARGET	1683440	n/a	LTP117	ltpFR	16	1	-1	FUR	615	1	5	-1	n/a	n/a	n/a	n/a	n/a
3366.89	n/a	RECOG_RESP	1683445	n/a	LTP117	ltpFR	16	1	-1	FUR	615	1	n/a	-1	n/a	n/a	n/a	n/a	n/a
3367.334	n/a	RECOG_CONF	1683667	n/a	LTP117	ltpFR	16	1	-1	FUR	615	n/a	5	-1	n/a	n/a	n/a	n/a	n/a
3368.564	n/a	RECOG_TARGET	1684282	n/a	LTP117	ltpFR	16	1	1	OATS	968	1	5	1	n/a	n/a	n/a	n/a	n/a
3368.696	n/a	RECOG_RESP	1684348	n/a	LTP117	ltpFR	16	1	1	OATS	968	1	n/a	1	n/a	n/a	n/a	n/a	n/a
3369.15	n/a	RECOG_CONF	1684575	n/a	LTP117	ltpFR	16	1	1	OATS	968	n/a	5	1	n/a	n/a	n/a	n/a	n/a
3370.404	n/a	RECOG_TARGET	1685202	n/a	LTP117	ltpFR	16	1	1	JACKET	747	1	5	1	n/a	n/a	n/a	n/a	n/a
3370.456	n/a	RECOG_RESP	1685228	n/a	LTP117	ltpFR	16	1	1	JACKET	747	1	n/a	1	n/a	n/a	n/a	n/a	n/a
3370.896	n/a	RECOG_CONF	1685448	n/a	LTP117	ltpFR	16	1	1	JACKET	747	n/a	5	1	n/a	n/a	n/a	n/a	n/a
3372.178	n/a	RECOG_TARGET	1686089	n/a	LTP117	ltpFR	16	1	0	LETTER	813	1	5	1	n/a	n/a	n/a	n/a	n/a
3372.322	n/a	RECOG_RESP	1686161	n/a	LTP117	ltpFR	16	1	0	LETTER	813	1	n/a	1	n/a	n/a	n/a	n/a	n/a
3372.772	n/a	RECOG_CONF	1686386	n/a	LTP117	ltpFR	16	1	0	LETTER	813	n/a	5	1	n/a	n/a	n/a	n/a	n/a
3374.078	n/a	RECOG_TARGET	1687039	n/a	LTP117	ltpFR	16	1	0	STUMP	1396	1	5	1	n/a	n/a	n/a	n/a	n/a
3374.192	n/a	RECOG_RESP	1687096	n/a	LTP117	ltpFR	16	1	0	STUMP	1396	1	n/a	1	n/a	n/a	n/a	n/a	n/a
3374.636	n/a	RECOG_CONF	1687318	n/a	LTP117	ltpFR	16	1	0	STUMP	1396	n/a	5	1	n/a	n/a	n/a	n/a	n/a
3375.878	n/a	RECOG_TARGET	1687939	n/a	LTP117	ltpFR	16	1	0	ROBIN	1199	1	5	1	n/a	n/a	n/a	n/a	n/a
3376.054	n/a	RECOG_RESP	1688027	n/a	LTP117	ltpFR	16	1	0	ROBIN	1199	1	n/a	1	n/a	n/a	n/a	n/a	n/a
3376.484	n/a	RECOG_CONF	1688242	n/a	LTP117	ltpFR	16	1	0	ROBIN	1199	n/a	5	1	n/a	n/a	n/a	n/a	n/a
3377.754	n/a	RECOG_TARGET	1688877	n/a	LTP117	ltpFR	16	1	0	SCREWDRIVER	1255	1	5	1	n/a	n/a	n/a	n/a	n/a
3377.85	n/a	RECOG_RESP	1688925	n/a	LTP117	ltpFR	16	1	0	SCREWDRIVER	1255	1	n/a	1	n/a	n/a	n/a	n/a	n/a
3378.578	n/a	RECOG_CONF	1689289	n/a	LTP117	ltpFR	16	1	0	SCREWDRIVER	1255	n/a	5	1	n/a	n/a	n/a	n/a	n/a
3379.942	n/a	RECOG_TARGET	1689971	n/a	LTP117	ltpFR	16	1	1	BROOK	177	1	4	1	n/a	n/a	n/a	n/a	n/a
3380.076	n/a	RECOG_RESP	1690038	n/a	LTP117	ltpFR	16	1	1	BROOK	177	1	n/a	1	n/a	n/a	n/a	n/a	n/a
3380.544	n/a	RECOG_CONF	1690272	n/a	LTP117	ltpFR	16	1	1	BROOK	177	n/a	4	1	n/a	n/a	n/a	n/a	n/a
3381.81	n/a	RECOG_TARGET	1690905	n/a	LTP117	ltpFR	16	1	0	TILE	1468	1	5	0	n/a	n/a	n/a	n/a	n/a
3381.962	n/a	RECOG_RESP	1690981	n/a	LTP117	ltpFR	16	1	0	TILE	1468	1	n/a	0	n/a	n/a	n/a	n/a	n/a
3382.43	n/a	RECOG_CONF	1691215	n/a	LTP117	ltpFR	16	1	0	TILE	1468	n/a	5	0	n/a	n/a	n/a	n/a	n/a
3383.642	n/a	RECOG_TARGET	1691821	n/a	LTP117	ltpFR	16	1	0	BARREL	91	1	5	1	n/a	n/a	n/a	n/a	n/a
3383.822	n/a	RECOG_RESP	1691911	n/a	LTP117	ltpFR	16	1	0	BARREL	91	1	n/a	1	n/a	n/a	n/a	n/a	n/a
3384.276	n/a	RECOG_CONF	1692138	n/a	LTP117	ltpFR	16	1	0	BARREL	91	n/a	5	1	n/a	n/a	n/a	n/a	n/a
3385.534	n/a	RECOG_TARGET	1692767	n/a	LTP117	ltpFR	16	1	-1	COMMANDER	354	1	4	-1	n/a	n/a	n/a	n/a	n/a
3385.762	n/a	RECOG_RESP	1692881	n/a	LTP117	ltpFR	16	1	-1	COMMANDER	354	1	n/a	-1	n/a	n/a	n/a	n/a	n/a
3386.262	n/a	RECOG_CONF	1693131	n/a	LTP117	ltpFR	16	1	-1	COMMANDER	354	n/a	4	-1	n/a	n/a	n/a	n/a	n/a
3388.976	n/a	REC_START	1694488	n/a	LTP117	ltpFR	16	2	n/a	n/a	n/a	n/a	n/a	n/a	n/a	n/a	n/a	n/a	n/a
3389.006	n/a	RECOG_TARGET	1694503	n/a	LTP117	ltpFR	16	2	1	SPOOL	1356	1	5	1	n/a	n/a	n/a	n/a	n/a
3389.294	n/a	RECOG_RESP	1694647	n/a	LTP117	ltpFR	16	2	1	SPOOL	1356	1	n/a	1	n/a	n/a	n/a	n/a	n/a
3389.738	n/a	RECOG_CONF	1694869	n/a	LTP117	ltpFR	16	2	1	SPOOL	1356	n/a	5	1	n/a	n/a	n/a	n/a	n/a
3390.998	n/a	RECOG_TARGET	1695499	n/a	LTP117	ltpFR	16	2	1	MICROSCOPE	891	1	5	1	n/a	n/a	n/a	n/a	n/a
3391.08	n/a	RECOG_RESP	1695540	n/a	LTP117	ltpFR	16	2	1	MICROSCOPE	891	1	n/a	1	n/a	n/a	n/a	n/a	n/a
3391.514	n/a	RECOG_CONF	1695757	n/a	LTP117	ltpFR	16	2	1	MICROSCOPE	891	n/a	5	1	n/a	n/a	n/a	n/a	n/a
3392.806	n/a	RECOG_TARGET	1696403	n/a	LTP117	ltpFR	16	2	-1	CLAW	319	1	5	-1	n/a	n/a	n/a	n/a	n/a
3392.932	n/a	RECOG_RESP	1696466	n/a	LTP117	ltpFR	16	2	-1	CLAW	319	1	n/a	-1	n/a	n/a	n/a	n/a	n/a
3393.38	n/a	RECOG_CONF	1696690	n/a	LTP117	ltpFR	16	2	-1	CLAW	319	n/a	5	-1	n/a	n/a	n/a	n/a	n/a
3394.63	n/a	RECOG_LURE	1697315	n/a	LTP117	ltpFR	16	2	n/a	STAGE	1366	1	5	n/a	n/a	n/a	n/a	n/a	n/a
3394.742	n/a	RECOG_RESP	1697371	n/a	LTP117	ltpFR	16	2	n/a	STAGE	1366	1	n/a	n/a	n/a	n/a	n/a	n/a	n/a
3395.218	n/a	RECOG_CONF	1697609	n/a	LTP117	ltpFR	16	2	n/a	STAGE	1366	n/a	5	n/a	n/a	n/a	n/a	n/a	n/a
3396.464	n/a	RECOG_TARGET	1698232	n/a	LTP117	ltpFR	16	2	-1	SCALLOP	1242	1	5	-1	n/a	n/a	n/a	n/a	n/a
3396.56	n/a	RECOG_RESP	1698280	n/a	LTP117	ltpFR	16	2	-1	SCALLOP	1242	1	n/a	-1	n/a	n/a	n/a	n/a	n/a
3397.082	n/a	RECOG_CONF	1698541	n/a	LTP117	ltpFR	16	2	-1	SCALLOP	1242	n/a	5	-1	n/a	n/a	n/a	n/a	n/a
3398.414	n/a	RECOG_TARGET	1699207	n/a	LTP117	ltpFR	16	2	1	CUP	424	1	5	0	n/a	n/a	n/a	n/a	n/a
3398.594	n/a	RECOG_RESP	1699297	n/a	LTP117	ltpFR	16	2	1	CUP	424	1	n/a	0	n/a	n/a	n/a	n/a	n/a
3399.028	n/a	RECOG_CONF	1699514	n/a	LTP117	ltpFR	16	2	1	CUP	424	n/a	5	0	n/a	n/a	n/a	n/a	n/a
3400.322	n/a	RECOG_LURE	1700161	n/a	LTP117	ltpFR	16	2	n/a	ESCALATOR	539	1	1	n/a	n/a	n/a	n/a	n/a	n/a
3400.376	n/a	RECOG_RESP	1700188	n/a	LTP117	ltpFR	16	2	n/a	ESCALATOR	539	1	n/a	n/a	n/a	n/a	n/a	n/a	n/a
3401.344	n/a	RECOG_CONF	1700672	n/a	LTP117	ltpFR	16	2	n/a	ESCALATOR	539	n/a	1	n/a	n/a	n/a	n/a	n/a	n/a
3402.72	n/a	RECOG_TARGET	1701360	n/a	LTP117	ltpFR	16	2	0	DOLPHIN	483	1	5	1	n/a	n/a	n/a	n/a	n/a
3403.09	n/a	RECOG_RESP	1701545	n/a	LTP117	ltpFR	16	2	0	DOLPHIN	483	1	n/a	1	n/a	n/a	n/a	n/a	n/a
3403.698	n/a	RECOG_CONF	1701849	n/a	LTP117	ltpFR	16	2	0	DOLPHIN	483	n/a	5	1	n/a	n/a	n/a	n/a	n/a
3405.076	n/a	RECOG_TARGET	1702538	n/a	LTP117	ltpFR	16	2	0	SATURN	1236	1	5	1	n/a	n/a	n/a	n/a	n/a
3405.22	n/a	RECOG_RESP	1702610	n/a	LTP117	ltpFR	16	2	0	SATURN	1236	1	n/a	1	n/a	n/a	n/a	n/a	n/a
3405.664	n/a	RECOG_CONF	1702832	n/a	LTP117	ltpFR	16	2	0	SATURN	1236	n/a	5	1	n/a	n/a	n/a	n/a	n/a
3406.984	n/a	RECOG_TARGET	1703492	n/a	LTP117	ltpFR	16	2	1	AUTOMOBILE	62	1	5	1	n/a	n/a	n/a	n/a	n/a
3407.08	n/a	RECOG_RESP	1703540	n/a	LTP117	ltpFR	16	2	1	AUTOMOBILE	62	1	n/a	1	n/a	n/a	n/a	n/a	n/a
3407.968	n/a	RECOG_CONF	1703984	n/a	LTP117	ltpFR	16	2	1	AUTOMOBILE	62	n/a	5	1	n/a	n/a	n/a	n/a	n/a
3409.326	n/a	RECOG_LURE	1704663	n/a	LTP117	ltpFR	16	2	n/a	CONSOLE	364	1	1	n/a	n/a	n/a	n/a	n/a	n/a
3409.55	n/a	RECOG_RESP	1704775	n/a	LTP117	ltpFR	16	2	n/a	CONSOLE	364	1	n/a	n/a	n/a	n/a	n/a	n/a	n/a
3410.706	n/a	RECOG_CONF	1705353	n/a	LTP117	ltpFR	16	2	n/a	CONSOLE	364	n/a	1	n/a	n/a	n/a	n/a	n/a	n/a
3412.232	n/a	RECOG_TARGET	1706116	n/a	LTP117	ltpFR	16	2	1	YOUTH	1634	1	5	1	n/a	n/a	n/a	n/a	n/a
3412.872	n/a	RECOG_RESP	1706436	n/a	LTP117	ltpFR	16	2	1	YOUTH	1634	1	n/a	1	n/a	n/a	n/a	n/a	n/a
3413.296	n/a	RECOG_CONF	1706648	n/a	LTP117	ltpFR	16	2	1	YOUTH	1634	n/a	5	1	n/a	n/a	n/a	n/a	n/a
3414.634	n/a	RECOG_LURE	1707317	n/a	LTP117	ltpFR	16	2	n/a	BULLETIN	195	0	4	n/a	n/a	n/a	n/a	n/a	n/a
3414.748	n/a	RECOG_RESP_VV	1707374	n/a	LTP117	ltpFR	16	2	n/a	BULLETIN	195	1	n/a	n/a	n/a	n/a	n/a	n/a	n/a
3415.428	n/a	RECOG_RESP	1707714	n/a	LTP117	ltpFR	16	2	n/a	BULLETIN	195	0	n/a	n/a	n/a	n/a	n/a	n/a	n/a
3415.942	n/a	RECOG_CONF	1707971	n/a	LTP117	ltpFR	16	2	n/a	BULLETIN	195	n/a	4	n/a	n/a	n/a	n/a	n/a	n/a
3417.282	n/a	RECOG_TARGET	1708641	n/a	LTP117	ltpFR	16	2	0	TEA	1439	0	5	1	n/a	n/a	n/a	n/a	n/a
3417.926	n/a	RECOG_RESP	1708963	n/a	LTP117	ltpFR	16	2	0	TEA	1439	0	n/a	1	n/a	n/a	n/a	n/a	n/a
3418.386	n/a	RECOG_CONF	1709193	n/a	LTP117	ltpFR	16	2	0	TEA	1439	n/a	5	1	n/a	n/a	n/a	n/a	n/a
3419.69	n/a	RECOG_TARGET	1709845	n/a	LTP117	ltpFR	16	2	1	DANDELION	438	1	5	1	n/a	n/a	n/a	n/a	n/a
3420.172	n/a	RECOG_RESP	1710086	n/a	LTP117	ltpFR	16	2	1	DANDELION	438	1	n/a	1	n/a	n/a	n/a	n/a	n/a
3420.57	n/a	RECOG_CONF	1710285	n/a	LTP117	ltpFR	16	2	1	DANDELION	438	n/a	5	1	n/a	n/a	n/a	n/a	n/a
3421.856	n/a	RECOG_TARGET	1710928	n/a	LTP117	ltpFR	16	2	-1	ARMY	39	1	5	-1	n/a	n/a	n/a	n/a	n/a
3422.082	n/a	RECOG_RESP	1711041	n/a	LTP117	ltpFR	16	2	-1	ARMY	39	1	n/a	-1	n/a	n/a	n/a	n/a	n/a
3422.576	n/a	RECOG_CONF	1711288	n/a	LTP117	ltpFR	16	2	-1	ARMY	39	n/a	5	-1	n/a	n/a	n/a	n/a	n/a
3423.872	n/a	RECOG_TARGET	1711936	n/a	LTP117	ltpFR	16	2	1	PREDATOR	1120	1	5	1	n/a	n/a	n/a	n/a	n/a
3423.982	n/a	RECOG_RESP	1711991	n/a	LTP117	ltpFR	16	2	1	PREDATOR	1120	1	n/a	1	n/a	n/a	n/a	n/a	n/a
3424.452	n/a	RECOG_CONF	1712226	n/a	LTP117	ltpFR	16	2	1	PREDATOR	1120	n/a	5	1	n/a	n/a	n/a	n/a	n/a
3425.804	n/a	RECOG_LURE	1712902	n/a	LTP117	ltpFR	16	2	n/a	SISTER	1312	1	4	n/a	n/a	n/a	n/a	n/a	n/a
3425.908	n/a	RECOG_RESP	1712954	n/a	LTP117	ltpFR	16	2	n/a	SISTER	1312	1	n/a	n/a	n/a	n/a	n/a	n/a	n/a
3426.418	n/a	RECOG_CONF	1713209	n/a	LTP117	ltpFR	16	2	n/a	SISTER	1312	n/a	4	n/a	n/a	n/a	n/a	n/a	n/a
3427.72	n/a	RECOG_LURE	1713860	n/a	LTP117	ltpFR	16	2	n/a	MULE	931	1	5	n/a	n/a	n/a	n/a	n/a	n/a
3427.884	n/a	RECOG_RESP	1713942	n/a	LTP117	ltpFR	16	2	n/a	MULE	931	1	n/a	n/a	n/a	n/a	n/a	n/a	n/a
3428.332	n/a	RECOG_CONF	1714166	n/a	LTP117	ltpFR	16	2	n/a	MULE	931	n/a	5	n/a	n/a	n/a	n/a	n/a	n/a
3429.712	n/a	RECOG_LURE	1714856	n/a	LTP117	ltpFR	16	2	n/a	COUNTRY	388	1	5	n/a	n/a	n/a	n/a	n/a	n/a
3429.88	n/a	RECOG_RESP	1714940	n/a	LTP117	ltpFR	16	2	n/a	COUNTRY	388	1	n/a	n/a	n/a	n/a	n/a	n/a	n/a
3430.298	n/a	RECOG_CONF	1715149	n/a	LTP117	ltpFR	16	2	n/a	COUNTRY	388	n/a	5	n/a	n/a	n/a	n/a	n/a	n/a
3432.996	n/a	REC_START	1716498	n/a	LTP117	ltpFR	16	3	n/a	n/a	n/a	n/a	n/a	n/a	n/a	n/a	n/a	n/a	n/a
3433.036	n/a	RECOG_TARGET	1716518	n/a	LTP117	ltpFR	16	3	-1	PREACHER	1119	1	5	-1	n/a	n/a	n/a	n/a	n/a
3433.394	n/a	RECOG_RESP	1716697	n/a	LTP117	ltpFR	16	3	-1	PREACHER	1119	1	n/a	-1	n/a	n/a	n/a	n/a	n/a
3433.758	n/a	RECOG_CONF	1716879	n/a	LTP117	ltpFR	16	3	-1	PREACHER	1119	n/a	5	-1	n/a	n/a	n/a	n/a	n/a
3435.418	n/a	RECOG_LURE	1717709	n/a	LTP117	ltpFR	16	3	n/a	VICTOR	1563	1	5	n/a	n/a	n/a	n/a	n/a	n/a
3435.444	n/a	RECOG_RESP	1717722	n/a	LTP117	ltpFR	16	3	n/a	VICTOR	1563	1	n/a	n/a	n/a	n/a	n/a	n/a	n/a
3435.834	n/a	RECOG_CONF	1717917	n/a	LTP117	ltpFR	16	3	n/a	VICTOR	1563	n/a	5	n/a	n/a	n/a	n/a	n/a	n/a
3437.184	n/a	RECOG_TARGET	1718592	n/a	LTP117	ltpFR	16	3	-1	LAKE	796	n/a	4	-1	n/a	n/a	n/a	n/a	n/a
3437.62	n/a	RECOG_CONF	1718810	n/a	LTP117	ltpFR	16	3	-1	LAKE	796	n/a	4	-1	n/a	n/a	n/a	n/a	n/a
3438.826	n/a	RECOG_LURE	1719413	n/a	LTP117	ltpFR	16	3	n/a	CROSS	413	1	5	n/a	n/a	n/a	n/a	n/a	n/a
3438.856	n/a	RECOG_RESP	1719428	n/a	LTP117	ltpFR	16	3	n/a	CROSS	413	1	n/a	n/a	n/a	n/a	n/a	n/a	n/a
3439.276	n/a	RECOG_CONF	1719638	n/a	LTP117	ltpFR	16	3	n/a	CROSS	413	n/a	5	n/a	n/a	n/a	n/a	n/a	n/a
3440.518	n/a	RECOG_TARGET	1720259	n/a	LTP117	ltpFR	16	3	-1	BUG	187	1	1	-1	n/a	n/a	n/a	n/a	n/a
3440.544	n/a	RECOG_RESP	1720272	n/a	LTP117	ltpFR	16	3	-1	BUG	187	1	n/a	-1	n/a	n/a	n/a	n/a	n/a
3441.022	n/a	RECOG_CONF	1720511	n/a	LTP117	ltpFR	16	3	-1	BUG	187	n/a	1	-1	n/a	n/a	n/a	n/a	n/a
3442.274	n/a	RECOG_TARGET	1721137	n/a	LTP117	ltpFR	16	3	0	NITROGEN	954	n/a	5	1	n/a	n/a	n/a	n/a	n/a
3442.678	n/a	RECOG_CONF	1721339	n/a	LTP117	ltpFR	16	3	0	NITROGEN	954	n/a	5	1	n/a	n/a	n/a	n/a	n/a
3443.932	n/a	RECOG_TARGET	1721966	n/a	LTP117	ltpFR	16	3	1	VEHICLE	1553	n/a	5	1	n/a	n/a	n/a	n/a	n/a
3444.264	n/a	RECOG_CONF	1722132	n/a	LTP117	ltpFR	16	3	1	VEHICLE	1553	n/a	5	1	n/a	n/a	n/a	n/a	n/a
3445.516	n/a	RECOG_TARGET	1722758	n/a	LTP117	ltpFR	16	3	0	STAMP	1370	1	5	1	n/a	n/a	n/a	n/a	n/a
3445.536	n/a	RECOG_RESP	1722768	n/a	LTP117	ltpFR	16	3	0	STAMP	1370	1	n/a	1	n/a	n/a	n/a	n/a	n/a
3445.94	n/a	RECOG_CONF	1722970	n/a	LTP117	ltpFR	16	3	0	STAMP	1370	n/a	5	1	n/a	n/a	n/a	n/a	n/a
3447.188	n/a	RECOG_TARGET	1723594	n/a	LTP117	ltpFR	16	3	0	MARSH	874	n/a	5	3	n/a	n/a	n/a	n/a	n/a
3447.568	n/a	RECOG_CONF	1723784	n/a	LTP117	ltpFR	16	3	0	MARSH	874	n/a	5	3	n/a	n/a	n/a	n/a	n/a
3448.856	n/a	RECOG_TARGET	1724428	n/a	LTP117	ltpFR	16	3	1	MAJOR	859	n/a	5	1	n/a	n/a	n/a	n/a	n/a
3449.124	n/a	RECOG_CONF	1724562	n/a	LTP117	ltpFR	16	3	1	MAJOR	859	n/a	5	1	n/a	n/a	n/a	n/a	n/a
3450.388	n/a	RECOG_TARGET	1725194	n/a	LTP117	ltpFR	16	3	0	SCULPTURE	1258	n/a	5	1	n/a	n/a	n/a	n/a	n/a
3450.68	n/a	RECOG_CONF	1725340	n/a	LTP117	ltpFR	16	3	0	SCULPTURE	1258	n/a	5	1	n/a	n/a	n/a	n/a	n/a
3451.92	n/a	RECOG_TARGET	1725960	n/a	LTP117	ltpFR	16	3	1	MOON	914	n/a	5	1	n/a	n/a	n/a	n/a	n/a
3452.188	n/a	RECOG_CONF	1726094	n/a	LTP117	ltpFR	16	3	1	MOON	914	n/a	5	1	n/a	n/a	n/a	n/a	n/a
3453.472	n/a	RECOG_TARGET	1726736	n/a	LTP117	ltpFR	16	3	0	KEG	770	n/a	5	1	n/a	n/a	n/a	n/a	n/a
3453.674	n/a	RECOG_CONF	1726837	n/a	LTP117	ltpFR	16	3	0	KEG	770	n/a	5	1	n/a	n/a	n/a	n/a	n/a
3454.962	n/a	RECOG_TARGET	1727481	n/a	LTP117	ltpFR	16	3	1	CANDIDATE	228	n/a	5	1	n/a	n/a	n/a	n/a	n/a
3455.21	n/a	RECOG_CONF	1727605	n/a	LTP117	ltpFR	16	3	1	CANDIDATE	228	n/a	5	1	n/a	n/a	n/a	n/a	n/a
3456.504	n/a	RECOG_TARGET	1728252	n/a	LTP117	ltpFR	16	3	1	MOSQUITO	917	n/a	5	1	n/a	n/a	n/a	n/a	n/a
3456.748	n/a	RECOG_CONF	1728374	n/a	LTP117	ltpFR	16	3	1	MOSQUITO	917	n/a	5	1	n/a	n/a	n/a	n/a	n/a
3458.128	n/a	RECOG_TARGET	1729064	n/a	LTP117	ltpFR	16	3	1	LEAF	808	n/a	5	1	n/a	n/a	n/a	n/a	n/a
3458.324	n/a	RECOG_CONF	1729162	n/a	LTP117	ltpFR	16	3	1	LEAF	808	n/a	5	1	n/a	n/a	n/a	n/a	n/a
3460.276	n/a	RECOG_TARGET	1730138	n/a	LTP117	ltpFR	16	3	1	ENEMY	534	1	5	1	n/a	n/a	n/a	n/a	n/a
3460.538	n/a	RECOG_RESP	1730269	n/a	LTP117	ltpFR	16	3	1	ENEMY	534	1	n/a	1	n/a	n/a	n/a	n/a	n/a
3460.988	n/a	RECOG_CONF	1730494	n/a	LTP117	ltpFR	16	3	1	ENEMY	534	n/a	5	1	n/a	n/a	n/a	n/a	n/a
3462.276	n/a	RECOG_LURE	1731138	n/a	LTP117	ltpFR	16	3	n/a	COBRA	336	1	4	n/a	n/a	n/a	n/a	n/a	n/a
3462.364	n/a	RECOG_RESP	1731182	n/a	LTP117	ltpFR	16	3	n/a	COBRA	336	1	n/a	n/a	n/a	n/a	n/a	n/a	n/a
3462.834	n/a	RECOG_CONF	1731417	n/a	LTP117	ltpFR	16	3	n/a	COBRA	336	n/a	4	n/a	n/a	n/a	n/a	n/a	n/a
3464.092	n/a	RECOG_TARGET	1732046	n/a	LTP117	ltpFR	16	3	1	SERVANT	1271	1	5	1	n/a	n/a	n/a	n/a	n/a
3464.44	n/a	RECOG_RESP	1732220	n/a	LTP117	ltpFR	16	3	1	SERVANT	1271	1	n/a	1	n/a	n/a	n/a	n/a	n/a
3464.868	n/a	RECOG_CONF	1732434	n/a	LTP117	ltpFR	16	3	1	SERVANT	1271	n/a	5	1	n/a	n/a	n/a	n/a	n/a
3466.234	n/a	RECOG_TARGET	1733117	n/a	LTP117	ltpFR	16	3	1	BLENDER	136	1	5	0	n/a	n/a	n/a	n/a	n/a
3466.604	n/a	RECOG_RESP	1733302	n/a	LTP117	ltpFR	16	3	1	BLENDER	136	1	n/a	0	n/a	n/a	n/a	n/a	n/a
3467.004	n/a	RECOG_CONF	1733502	n/a	LTP117	ltpFR	16	3	1	BLENDER	136	n/a	5	0	n/a	n/a	n/a	n/a	n/a
3469.816	n/a	REC_START	1734908	n/a	LTP117	ltpFR	16	4	n/a	n/a	n/a	n/a	n/a	n/a	n/a	n/a	n/a	n/a	n/a
3469.85	n/a	RECOG_TARGET	1734925	n/a	LTP117	ltpFR	16	4	0	HEDGE	699	1	5	0	n/a	n/a	n/a	n/a	n/a
3470.19	n/a	RECOG_RESP	1735095	n/a	LTP117	ltpFR	16	4	0	HEDGE	699	1	n/a	0	n/a	n/a	n/a	n/a	n/a
3470.598	n/a	RECOG_CONF	1735299	n/a	LTP117	ltpFR	16	4	0	HEDGE	699	n/a	5	0	n/a	n/a	n/a	n/a	n/a
3471.858	n/a	RECOG_LURE	1735929	n/a	LTP117	ltpFR	16	4	n/a	PRISON	1127	1	5	n/a	n/a	n/a	n/a	n/a	n/a
3471.916	n/a	RECOG_RESP	1735958	n/a	LTP117	ltpFR	16	4	n/a	PRISON	1127	1	n/a	n/a	n/a	n/a	n/a	n/a	n/a
3472.366	n/a	RECOG_CONF	1736183	n/a	LTP117	ltpFR	16	4	n/a	PRISON	1127	n/a	5	n/a	n/a	n/a	n/a	n/a	n/a
3473.6	n/a	RECOG_TARGET	1736800	n/a	LTP117	ltpFR	16	4	1	POSSUM	1112	1	5	1	n/a	n/a	n/a	n/a	n/a
3473.688	n/a	RECOG_RESP	1736844	n/a	LTP117	ltpFR	16	4	1	POSSUM	1112	1	n/a	1	n/a	n/a	n/a	n/a	n/a
3474.132	n/a	RECOG_CONF	1737066	n/a	LTP117	ltpFR	16	4	1	POSSUM	1112	n/a	5	1	n/a	n/a	n/a	n/a	n/a
3475.424	n/a	RECOG_TARGET	1737712	n/a	LTP117	ltpFR	16	4	1	EYE	545	1	4	1	n/a	n/a	n/a	n/a	n/a
3475.478	n/a	RECOG_RESP	1737739	n/a	LTP117	ltpFR	16	4	1	EYE	545	1	n/a	1	n/a	n/a	n/a	n/a	n/a
3476.008	n/a	RECOG_CONF	1738004	n/a	LTP117	ltpFR	16	4	1	EYE	545	n/a	4	1	n/a	n/a	n/a	n/a	n/a
3477.23	n/a	RECOG_TARGET	1738615	n/a	LTP117	ltpFR	16	4	0	HAYSTACK	694	1	5	1	n/a	n/a	n/a	n/a	n/a
3477.344	n/a	RECOG_RESP	1738672	n/a	LTP117	ltpFR	16	4	0	HAYSTACK	694	1	n/a	1	n/a	n/a	n/a	n/a	n/a
3477.784	n/a	RECOG_CONF	1738892	n/a	LTP117	ltpFR	16	4	0	HAYSTACK	694	n/a	5	1	n/a	n/a	n/a	n/a	n/a
3479.072	n/a	RECOG_TARGET	1739536	n/a	LTP117	ltpFR	16	4	0	BAND	78	n/a	5	0	n/a	n/a	n/a	n/a	n/a
