mstime	trial_type	stim_file	subject	experiment	session	trial	task	item_name	item_num	recog_resp	recog_conf	resp	color_r	color_g	color_b	case	font
0	SESS_START	n/a	LTP286	ltpFR	6	n/a	n/a	n/a	n/a	1	n/a	n/a	n/a	n/a	n/a	n/a	n/a
47161	WORD	wordpools/wasnorm_wordpool_less_exclusions.txt	LTP286	ltpFR	6	1	0	HANDBAG	684	n/a	n/a	0	0.57763671875	0.412841796875	1	upper	zerothre.ttf
51005	WORD	wordpools/wasnorm_wordpool_less_exclusions.txt	LTP286	ltpFR	6	1	0	QUARTER	1148	n/a	n/a	0	0.57763671875	0.412841796875	1	upper	zerothre.ttf
55066	WORD	wordpools/wasnorm_wordpool_less_exclusions.txt	LTP286	ltpFR	6	1	1	FUDGE	611	n/a	n/a	0	0.422607421875	0.5869140625	0	lower	amplitud.ttf
59110	WORD	wordpools/wasnorm_wordpool_less_exclusions.txt	LTP286	ltpFR	6	1	1	OX	994	n/a	n/a	1	0.422607421875	0.5869140625	0	lower	amplitud.ttf
63054	WORD	wordpools/wasnorm_wordpool_less_exclusions.txt	LTP286	ltpFR	6	1	0	SIGNATURE	1306	n/a	n/a	0	0.57763671875	0.412841796875	1	upper	zerothre.ttf
66882	WORD	wordpools/wasnorm_wordpool_less_exclusions.txt	LTP286	ltpFR	6	1	0	BUNNY	198	n/a	n/a	0	0.57763671875	0.412841796875	1	upper	zerothre.ttf
70842	WORD	wordpools/wasnorm_wordpool_less_exclusions.txt	LTP286	ltpFR	6	1	0	BAKER	71	n/a	n/a	0	0.57763671875	0.412841796875	1	upper	zerothre.ttf
74753	WORD	wordpools/wasnorm_wordpool_less_exclusions.txt	LTP286	ltpFR	6	1	0	RAM	1165	n/a	n/a	1	0.57763671875	0.412841796875	1	upper	zerothre.ttf
78964	WORD	wordpools/wasnorm_wordpool_less_exclusions.txt	LTP286	ltpFR	6	1	1	COLT	349	n/a	n/a	1	0.422607421875	0.5869140625	0	lower	amplitud.ttf
83091	WORD	wordpools/wasnorm_wordpool_less_exclusions.txt	LTP286	ltpFR	6	1	1	CONTAINER	366	n/a	n/a	0	0.422607421875	0.5869140625	0	lower	amplitud.ttf
87002	WORD	wordpools/wasnorm_wordpool_less_exclusions.txt	LTP286	ltpFR	6	1	1	TEAPOT	1442	n/a	n/a	0	0.422607421875	0.5869140625	0	lower	amplitud.ttf
90912	WORD	wordpools/wasnorm_wordpool_less_exclusions.txt	LTP286	ltpFR	6	1	1	SILVERWARE	1308	n/a	n/a	0	0.422607421875	0.5869140625	0	lower	amplitud.ttf
94807	WORD	wordpools/wasnorm_wordpool_less_exclusions.txt	LTP286	ltpFR	6	1	1	ATTORNEY	58	n/a	n/a	1	0.422607421875	0.5869140625	0	lower	amplitud.ttf
98851	WORD	wordpools/wasnorm_wordpool_less_exclusions.txt	LTP286	ltpFR	6	1	1	PLAID	1080	n/a	n/a	0	0.422607421875	0.5869140625	0	lower	amplitud.ttf
102845	WORD	wordpools/wasnorm_wordpool_less_exclusions.txt	LTP286	ltpFR	6	1	0	BUTTON	207	n/a	n/a	0	0.57763671875	0.412841796875	1	upper	zerothre.ttf
106805	WORD	wordpools/wasnorm_wordpool_less_exclusions.txt	LTP286	ltpFR	6	1	0	RABBIT	1152	n/a	n/a	0	0.57763671875	0.412841796875	1	upper	zerothre.ttf
112847	REC_START	n/a	LTP286	ltpFR	6	1	n/a	n/a	n/a	n/a	n/a	n/a	n/a	n/a	n/a	n/a	n/a
114560	REC_WORD	wordpools/wasnorm_wordpool_less_exclusions.txt	LTP286	ltpFR	6	1	0	RABBIT	1152	n/a	n/a	0	n/a	n/a	n/a	n/a	n/a
115867	REC_WORD	wordpools/wasnorm_wordpool_less_exclusions.txt	LTP286	ltpFR	6	1	0	BUNNY	198	n/a	n/a	0	n/a	n/a	n/a	n/a	n/a
117025	REC_WORD	wordpools/wasnorm_wordpool_less_exclusions.txt	LTP286	ltpFR	6	1	0	HANDBAG	684	n/a	n/a	0	n/a	n/a	n/a	n/a	n/a
118307	REC_WORD	wordpools/wasnorm_wordpool_less_exclusions.txt	LTP286	ltpFR	6	1	1	FUDGE	611	n/a	n/a	0	n/a	n/a	n/a	n/a	n/a
120939	REC_WORD	wordpools/wasnorm_wordpool_less_exclusions.txt	LTP286	ltpFR	6	1	0	SIGNATURE	1306	n/a	n/a	0	n/a	n/a	n/a	n/a	n/a
125235	REC_WORD	wordpools/wasnorm_wordpool_less_exclusions.txt	LTP286	ltpFR	6	1	1	ATTORNEY	58	n/a	n/a	1	n/a	n/a	n/a	n/a	n/a
126993	REC_WORD	wordpools/wasnorm_wordpool_less_exclusions.txt	LTP286	ltpFR	6	1	0	BAKER	71	n/a	n/a	0	n/a	n/a	n/a	n/a	n/a
132814	REC_WORD	wordpools/wasnorm_wordpool_less_exclusions.txt	LTP286	ltpFR	6	1	1	OX	994	n/a	n/a	1	n/a	n/a	n/a	n/a	n/a
134448	REC_WORD	wordpools/wasnorm_wordpool_less_exclusions.txt	LTP286	ltpFR	6	1	n/a	CALF	222	n/a	n/a	n/a	n/a	n/a	n/a	n/a	n/a
141233	REC_WORD	wordpools/wasnorm_wordpool_less_exclusions.txt	LTP286	ltpFR	6	1	1	CONTAINER	366	n/a	n/a	0	n/a	n/a	n/a	n/a	n/a
142832	REC_WORD	wordpools/wasnorm_wordpool_less_exclusions.txt	LTP286	ltpFR	6	1	1	TEAPOT	1442	n/a	n/a	0	n/a	n/a	n/a	n/a	n/a
145184	REC_WORD	wordpools/wasnorm_wordpool_less_exclusions.txt	LTP286	ltpFR	6	1	1	SILVERWARE	1308	n/a	n/a	0	n/a	n/a	n/a	n/a	n/a
174457	REC_WORD	wordpools/wasnorm_wordpool_less_exclusions.txt	LTP286	ltpFR	6	1	1	PLAID	1080	n/a	n/a	0	n/a	n/a	n/a	n/a	n/a
192894	WORD	wordpools/wasnorm_wordpool_less_exclusions.txt	LTP286	ltpFR	6	2	1	BELLY	119	n/a	n/a	1	0.422607421875	0.5869140625	0	lower	amplitud.ttf
196937	WORD	wordpools/wasnorm_wordpool_less_exclusions.txt	LTP286	ltpFR	6	2	1	FELLOW	558	n/a	n/a	1	0.422607421875	0.5869140625	0	lower	amplitud.ttf
200865	WORD	wordpools/wasnorm_wordpool_less_exclusions.txt	LTP286	ltpFR	6	2	1	KNIGHT	786	n/a	n/a	1	0.422607421875	0.5869140625	0	lower	amplitud.ttf
204975	WORD	wordpools/wasnorm_wordpool_less_exclusions.txt	LTP286	ltpFR	6	2	0	BRIDE	173	n/a	n/a	1	0.57763671875	0.412841796875	1	upper	zerothre.ttf
208953	WORD	wordpools/wasnorm_wordpool_less_exclusions.txt	LTP286	ltpFR	6	2	0	WATERFALL	1595	n/a	n/a	0	0.57763671875	0.412841796875	1	upper	zerothre.ttf
212914	WORD	wordpools/wasnorm_wordpool_less_exclusions.txt	LTP286	ltpFR	6	2	1	WAVE	1596	n/a	n/a	0	0.422607421875	0.5869140625	0	lower	amplitud.ttf
217124	WORD	wordpools/wasnorm_wordpool_less_exclusions.txt	LTP286	ltpFR	6	2	1	COMB	351	n/a	n/a	0	0.422607421875	0.5869140625	0	lower	amplitud.ttf
221334	WORD	wordpools/wasnorm_wordpool_less_exclusions.txt	LTP286	ltpFR	6	2	1	SLEEVE	1324	n/a	n/a	0	0.422607421875	0.5869140625	0	lower	amplitud.ttf
225396	WORD	wordpools/wasnorm_wordpool_less_exclusions.txt	LTP286	ltpFR	6	2	0	WHALE	1601	n/a	n/a	1	0.57763671875	0.412841796875	1	upper	zerothre.ttf
229423	WORD	wordpools/wasnorm_wordpool_less_exclusions.txt	LTP286	ltpFR	6	2	0	TONGUE	1479	n/a	n/a	0	0.57763671875	0.412841796875	1	upper	zerothre.ttf
233316	WORD	wordpools/wasnorm_wordpool_less_exclusions.txt	LTP286	ltpFR	6	2	0	WALL	1582	n/a	n/a	1	0.57763671875	0.412841796875	1	upper	zerothre.ttf
237194	WORD	wordpools/wasnorm_wordpool_less_exclusions.txt	LTP286	ltpFR	6	2	0	CAMERA	224	n/a	n/a	0	0.57763671875	0.412841796875	1	upper	zerothre.ttf
241121	WORD	wordpools/wasnorm_wordpool_less_exclusions.txt	LTP286	ltpFR	6	2	0	VEST	1559	n/a	n/a	0	0.57763671875	0.412841796875	1	upper	zerothre.ttf
245265	WORD	wordpools/wasnorm_wordpool_less_exclusions.txt	LTP286	ltpFR	6	2	0	BANANA	77	n/a	n/a	0	0.57763671875	0.412841796875	1	upper	zerothre.ttf
249110	WORD	wordpools/wasnorm_wordpool_less_exclusions.txt	LTP286	ltpFR	6	2	1	KIWI	781	n/a	n/a	1	0.422607421875	0.5869140625	0	lower	amplitud.ttf
253054	WORD	wordpools/wasnorm_wordpool_less_exclusions.txt	LTP286	ltpFR	6	2	1	OCTOPUS	971	n/a	n/a	1	0.422607421875	0.5869140625	0	lower	amplitud.ttf
258629	REC_START	n/a	LTP286	ltpFR	6	2	n/a	n/a	n/a	n/a	n/a	n/a	n/a	n/a	n/a	n/a	n/a
260592	REC_WORD	wordpools/wasnorm_wordpool_less_exclusions.txt	LTP286	ltpFR	6	2	1	OCTOPUS	971	n/a	n/a	1	n/a	n/a	n/a	n/a	n/a
261592	REC_WORD_VV	wordpools/wasnorm_wordpool_less_exclusions.txt	LTP286	ltpFR	6	2	n/a	<>	-1	n/a	n/a	n/a	n/a	n/a	n/a	n/a	n/a
262307	REC_WORD	wordpools/wasnorm_wordpool_less_exclusions.txt	LTP286	ltpFR	6	2	0	WHALE	1601	n/a	n/a	1	n/a	n/a	n/a	n/a	n/a
265138	REC_WORD	wordpools/wasnorm_wordpool_less_exclusions.txt	LTP286	ltpFR	6	2	0	WATERFALL	1595	n/a	n/a	0	n/a	n/a	n/a	n/a	n/a
266899	REC_WORD	wordpools/wasnorm_wordpool_less_exclusions.txt	LTP286	ltpFR	6	2	0	WALL	1582	n/a	n/a	1	n/a	n/a	n/a	n/a	n/a
269732	REC_WORD	wordpools/wasnorm_wordpool_less_exclusions.txt	LTP286	ltpFR	6	2	0	CAMERA	224	n/a	n/a	0	n/a	n/a	n/a	n/a	n/a
313701	REC_WORD	wordpools/wasnorm_wordpool_less_exclusions.txt	LTP286	ltpFR	6	2	1	KIWI	781	n/a	n/a	1	n/a	n/a	n/a	n/a	n/a
315167	REC_WORD	wordpools/wasnorm_wordpool_less_exclusions.txt	LTP286	ltpFR	6	2	0	BANANA	77	n/a	n/a	0	n/a	n/a	n/a	n/a	n/a
330838	REC_WORD	wordpools/wasnorm_wordpool_less_exclusions.txt	LTP286	ltpFR	6	2	1	BELLY	119	n/a	n/a	1	n/a	n/a	n/a	n/a	n/a
340856	WORD	wordpools/wasnorm_wordpool_less_exclusions.txt	LTP286	ltpFR	6	3	-1	ORCHID	982	n/a	n/a	-1	1.0	1.0	1	upper	Verdana.ttf
344883	WORD	wordpools/wasnorm_wordpool_less_exclusions.txt	LTP286	ltpFR	6	3	-1	PORTRAIT	1111	n/a	n/a	-1	1.0	1.0	1	upper	Verdana.ttf
348711	WORD	wordpools/wasnorm_wordpool_less_exclusions.txt	LTP286	ltpFR	6	3	-1	YACHT	1629	n/a	n/a	-1	1.0	1.0	1	upper	Verdana.ttf
352888	WORD	wordpools/wasnorm_wordpool_less_exclusions.txt	LTP286	ltpFR	6	3	-1	HANGER	687	n/a	n/a	-1	1.0	1.0	1	upper	Verdana.ttf
356865	WORD	wordpools/wasnorm_wordpool_less_exclusions.txt	LTP286	ltpFR	6	3	-1	ROBOT	1200	n/a	n/a	-1	1.0	1.0	1	upper	Verdana.ttf
360793	WORD	wordpools/wasnorm_wordpool_less_exclusions.txt	LTP286	ltpFR	6	3	-1	FOLDER	588	n/a	n/a	-1	1.0	1.0	1	upper	Verdana.ttf
364654	WORD	wordpools/wasnorm_wordpool_less_exclusions.txt	LTP286	ltpFR	6	3	-1	LUGGAGE	847	n/a	n/a	-1	1.0	1.0	1	upper	Verdana.ttf
368581	WORD	wordpools/wasnorm_wordpool_less_exclusions.txt	LTP286	ltpFR	6	3	-1	HOOD	714	n/a	n/a	-1	1.0	1.0	1	upper	Verdana.ttf
372559	WORD	wordpools/wasnorm_wordpool_less_exclusions.txt	LTP286	ltpFR	6	3	-1	DOCK	477	n/a	n/a	-1	1.0	1.0	1	upper	Verdana.ttf
376437	WORD	wordpools/wasnorm_wordpool_less_exclusions.txt	LTP286	ltpFR	6	3	-1	SCENERY	1247	n/a	n/a	-1	1.0	1.0	1	upper	Verdana.ttf
380365	WORD	wordpools/wasnorm_wordpool_less_exclusions.txt	LTP286	ltpFR	6	3	-1	DUCK	504	n/a	n/a	-1	1.0	1.0	1	upper	Verdana.ttf
384208	WORD	wordpools/wasnorm_wordpool_less_exclusions.txt	LTP286	ltpFR	6	3	-1	PUZZLE	1146	n/a	n/a	-1	1.0	1.0	1	upper	Verdana.ttf
388353	WORD	wordpools/wasnorm_wordpool_less_exclusions.txt	LTP286	ltpFR	6	3	-1	BAY	102	n/a	n/a	-1	1.0	1.0	1	upper	Verdana.ttf
392229	WORD	wordpools/wasnorm_wordpool_less_exclusions.txt	LTP286	ltpFR	6	3	-1	FAUCET	555	n/a	n/a	-1	1.0	1.0	1	upper	Verdana.ttf
396391	WORD	wordpools/wasnorm_wordpool_less_exclusions.txt	LTP286	ltpFR	6	3	-1	BISCUIT	130	n/a	n/a	-1	1.0	1.0	1	upper	Verdana.ttf
400567	WORD	wordpools/wasnorm_wordpool_less_exclusions.txt	LTP286	ltpFR	6	3	-1	PEANUT	1032	n/a	n/a	-1	1.0	1.0	1	upper	Verdana.ttf
406642	REC_START	n/a	LTP286	ltpFR	6	3	n/a	n/a	n/a	n/a	n/a	n/a	n/a	n/a	n/a	n/a	n/a
408011	REC_WORD	wordpools/wasnorm_wordpool_less_exclusions.txt	LTP286	ltpFR	6	3	-1	PEANUT	1032	n/a	n/a	-1	n/a	n/a	n/a	n/a	n/a
409344	REC_WORD	wordpools/wasnorm_wordpool_less_exclusions.txt	LTP286	ltpFR	6	3	-1	BISCUIT	130	n/a	n/a	-1	n/a	n/a	n/a	n/a	n/a
410543	REC_WORD	wordpools/wasnorm_wordpool_less_exclusions.txt	LTP286	ltpFR	6	3	-1	FAUCET	555	n/a	n/a	-1	n/a	n/a	n/a	n/a	n/a
412087	REC_WORD	wordpools/wasnorm_wordpool_less_exclusions.txt	LTP286	ltpFR	6	3	-1	YACHT	1629	n/a	n/a	-1	n/a	n/a	n/a	n/a	n/a
413470	REC_WORD	wordpools/wasnorm_wordpool_less_exclusions.txt	LTP286	ltpFR	6	3	-1	DUCK	504	n/a	n/a	-1	n/a	n/a	n/a	n/a	n/a
414669	REC_WORD	wordpools/wasnorm_wordpool_less_exclusions.txt	LTP286	ltpFR	6	3	-1	DOCK	477	n/a	n/a	-1	n/a	n/a	n/a	n/a	n/a
416022	REC_WORD	wordpools/wasnorm_wordpool_less_exclusions.txt	LTP286	ltpFR	6	3	-1	BAY	102	n/a	n/a	-1	n/a	n/a	n/a	n/a	n/a
417530	REC_WORD	wordpools/wasnorm_wordpool_less_exclusions.txt	LTP286	ltpFR	6	3	-1	PORTRAIT	1111	n/a	n/a	-1	n/a	n/a	n/a	n/a	n/a
419059	REC_WORD	wordpools/wasnorm_wordpool_less_exclusions.txt	LTP286	ltpFR	6	3	-1	ORCHID	982	n/a	n/a	-1	n/a	n/a	n/a	n/a	n/a
427011	REC_WORD	wordpools/wasnorm_wordpool_less_exclusions.txt	LTP286	ltpFR	6	3	-1	FOLDER	588	n/a	n/a	-1	n/a	n/a	n/a	n/a	n/a
437036	REC_WORD	wordpools/wasnorm_wordpool_less_exclusions.txt	LTP286	ltpFR	6	3	-1	PUZZLE	1146	n/a	n/a	-1	n/a	n/a	n/a	n/a	n/a
488036	WORD	wordpools/wasnorm_wordpool_less_exclusions.txt	LTP286	ltpFR	6	4	0	CELERY	266	n/a	n/a	0	0.57763671875	0.412841796875	1	upper	zerothre.ttf
491997	WORD	wordpools/wasnorm_wordpool_less_exclusions.txt	LTP286	ltpFR	6	4	0	PRODUCER	1129	n/a	n/a	1	0.57763671875	0.412841796875	1	upper	zerothre.ttf
496224	WORD	wordpools/wasnorm_wordpool_less_exclusions.txt	LTP286	ltpFR	6	4	0	LIMB	822	n/a	n/a	0	0.57763671875	0.412841796875	1	upper	zerothre.ttf
500068	WORD	wordpools/wasnorm_wordpool_less_exclusions.txt	LTP286	ltpFR	6	4	0	CARPET	247	n/a	n/a	1	0.57763671875	0.412841796875	1	upper	zerothre.ttf
504112	WORD	wordpools/wasnorm_wordpool_less_exclusions.txt	LTP286	ltpFR	6	4	0	BALCONY	72	n/a	n/a	1	0.57763671875	0.412841796875	1	upper	zerothre.ttf
508040	WORD	wordpools/wasnorm_wordpool_less_exclusions.txt	LTP286	ltpFR	6	4	0	SAP	1233	n/a	n/a	0	0.57763671875	0.412841796875	1	upper	zerothre.ttf
511934	WORD	wordpools/wasnorm_wordpool_less_exclusions.txt	LTP286	ltpFR	6	4	0	BLUEBERRY	140	n/a	n/a	0	0.57763671875	0.412841796875	1	upper	zerothre.ttf
516111	WORD	wordpools/wasnorm_wordpool_less_exclusions.txt	LTP286	ltpFR	6	4	0	OCEAN	970	n/a	n/a	1	0.57763671875	0.412841796875	1	upper	zerothre.ttf
520022	WORD	wordpools/wasnorm_wordpool_less_exclusions.txt	LTP286	ltpFR	6	4	0	BATHTUB	100	n/a	n/a	1	0.57763671875	0.412841796875	1	upper	zerothre.ttf
524016	WORD	wordpools/wasnorm_wordpool_less_exclusions.txt	LTP286	ltpFR	6	4	0	ELEPHANT	523	n/a	n/a	1	0.57763671875	0.412841796875	1	upper	zerothre.ttf
527843	WORD	wordpools/wasnorm_wordpool_less_exclusions.txt	LTP286	ltpFR	6	4	0	DAUGHTER	442	n/a	n/a	1	0.57763671875	0.412841796875	1	upper	zerothre.ttf
531971	WORD	wordpools/wasnorm_wordpool_less_exclusions.txt	LTP286	ltpFR	6	4	0	MOTHER	921	n/a	n/a	1	0.57763671875	0.412841796875	1	upper	zerothre.ttf
536031	WORD	wordpools/wasnorm_wordpool_less_exclusions.txt	LTP286	ltpFR	6	4	0	CRITIC	410	n/a	n/a	1	0.57763671875	0.412841796875	1	upper	zerothre.ttf
540058	WORD	wordpools/wasnorm_wordpool_less_exclusions.txt	LTP286	ltpFR	6	4	0	CHEF	290	n/a	n/a	1	0.57763671875	0.412841796875	1	upper	zerothre.ttf
544219	WORD	wordpools/wasnorm_wordpool_less_exclusions.txt	LTP286	ltpFR	6	4	0	PIE	1062	n/a	n/a	0	0.57763671875	0.412841796875	1	upper	zerothre.ttf
548430	WORD	wordpools/wasnorm_wordpool_less_exclusions.txt	LTP286	ltpFR	6	4	0	BUBBLE	183	n/a	n/a	0	0.57763671875	0.412841796875	1	upper	zerothre.ttf
554221	REC_START	n/a	LTP286	ltpFR	6	4	n/a	n/a	n/a	n/a	n/a	n/a	n/a	n/a	n/a	n/a	n/a
555717	REC_WORD	wordpools/wasnorm_wordpool_less_exclusions.txt	LTP286	ltpFR	6	4	0	BUBBLE	183	n/a	n/a	0	n/a	n/a	n/a	n/a	n/a
556760	REC_WORD	wordpools/wasnorm_wordpool_less_exclusions.txt	LTP286	ltpFR	6	4	0	PIE	1062	n/a	n/a	0	n/a	n/a	n/a	n/a	n/a
557836	REC_WORD	wordpools/wasnorm_wordpool_less_exclusions.txt	LTP286	ltpFR	6	4	0	CHEF	290	n/a	n/a	1	n/a	n/a	n/a	n/a	n/a
559153	REC_WORD	wordpools/wasnorm_wordpool_less_exclusions.txt	LTP286	ltpFR	6	4	0	CRITIC	410	n/a	n/a	1	n/a	n/a	n/a	n/a	n/a
560644	REC_WORD	wordpools/wasnorm_wordpool_less_exclusions.txt	LTP286	ltpFR	6	4	0	MOTHER	921	n/a	n/a	1	n/a	n/a	n/a	n/a	n/a
561968	REC_WORD	wordpools/wasnorm_wordpool_less_exclusions.txt	LTP286	ltpFR	6	4	0	DAUGHTER	442	n/a	n/a	1	n/a	n/a	n/a	n/a	n/a
573181	REC_WORD	wordpools/wasnorm_wordpool_less_exclusions.txt	LTP286	ltpFR	6	4	0	CELERY	266	n/a	n/a	0	n/a	n/a	n/a	n/a	n/a
577357	REC_WORD	wordpools/wasnorm_wordpool_less_exclusions.txt	LTP286	ltpFR	6	4	0	BLUEBERRY	140	n/a	n/a	0	n/a	n/a	n/a	n/a	n/a
608017	REC_WORD	wordpools/wasnorm_wordpool_less_exclusions.txt	LTP286	ltpFR	6	4	0	LIMB	822	n/a	n/a	0	n/a	n/a	n/a	n/a	n/a
609362	REC_WORD	wordpools/wasnorm_wordpool_less_exclusions.txt	LTP286	ltpFR	6	4	0	BATHTUB	100	n/a	n/a	1	n/a	n/a	n/a	n/a	n/a
634584	WORD	wordpools/wasnorm_wordpool_less_exclusions.txt	LTP286	ltpFR	6	5	1	BOSS	152	n/a	n/a	1	0.422607421875	0.5869140625	0	lower	amplitud.ttf
638794	WORD	wordpools/wasnorm_wordpool_less_exclusions.txt	LTP286	ltpFR	6	5	1	MOWER	928	n/a	n/a	0	0.422607421875	0.5869140625	0	lower	amplitud.ttf
642905	WORD	wordpools/wasnorm_wordpool_less_exclusions.txt	LTP286	ltpFR	6	5	1	COMPASS	358	n/a	n/a	0	0.422607421875	0.5869140625	0	lower	amplitud.ttf
646999	WORD	wordpools/wasnorm_wordpool_less_exclusions.txt	LTP286	ltpFR	6	5	1	VESSEL	1558	n/a	n/a	0	0.422607421875	0.5869140625	0	lower	amplitud.ttf
651109	WORD	wordpools/wasnorm_wordpool_less_exclusions.txt	LTP286	ltpFR	6	5	1	DONOR	485	n/a	n/a	1	0.422607421875	0.5869140625	0	lower	amplitud.ttf
655153	WORD	wordpools/wasnorm_wordpool_less_exclusions.txt	LTP286	ltpFR	6	5	1	GUARD	667	n/a	n/a	1	0.422607421875	0.5869140625	0	lower	amplitud.ttf
659230	WORD	wordpools/wasnorm_wordpool_less_exclusions.txt	LTP286	ltpFR	6	5	1	BADGE	68	n/a	n/a	0	0.422607421875	0.5869140625	0	lower	amplitud.ttf
663258	WORD	wordpools/wasnorm_wordpool_less_exclusions.txt	LTP286	ltpFR	6	5	1	MEADOW	881	n/a	n/a	0	0.422607421875	0.5869140625	0	lower	amplitud.ttf
667085	WORD	wordpools/wasnorm_wordpool_less_exclusions.txt	LTP286	ltpFR	6	5	1	APPLICATION	34	n/a	n/a	0	0.422607421875	0.5869140625	0	lower	amplitud.ttf
671046	WORD	wordpools/wasnorm_wordpool_less_exclusions.txt	LTP286	ltpFR	6	5	1	STATUE	1374	n/a	n/a	0	0.422607421875	0.5869140625	0	lower	amplitud.ttf
675257	WORD	wordpools/wasnorm_wordpool_less_exclusions.txt	LTP286	ltpFR	6	5	1	LEMON	810	n/a	n/a	1	0.422607421875	0.5869140625	0	lower	amplitud.ttf
679301	WORD	wordpools/wasnorm_wordpool_less_exclusions.txt	LTP286	ltpFR	6	5	1	PISTON	1076	n/a	n/a	0	0.422607421875	0.5869140625	0	lower	amplitud.ttf
683178	WORD	wordpools/wasnorm_wordpool_less_exclusions.txt	LTP286	ltpFR	6	5	1	CHAUFFEUR	283	n/a	n/a	1	0.422607421875	0.5869140625	0	lower	amplitud.ttf
687156	WORD	wordpools/wasnorm_wordpool_less_exclusions.txt	LTP286	ltpFR	6	5	1	TANGERINE	1431	n/a	n/a	1	0.422607421875	0.5869140625	0	lower	amplitud.ttf
691233	WORD	wordpools/wasnorm_wordpool_less_exclusions.txt	LTP286	ltpFR	6	5	1	GOVERNOR	651	n/a	n/a	1	0.422607421875	0.5869140625	0	lower	amplitud.ttf
695411	WORD	wordpools/wasnorm_wordpool_less_exclusions.txt	LTP286	ltpFR	6	5	1	FROST	609	n/a	n/a	0	0.422607421875	0.5869140625	0	lower	amplitud.ttf
701436	REC_START	n/a	LTP286	ltpFR	6	5	n/a	n/a	n/a	n/a	n/a	n/a	n/a	n/a	n/a	n/a	n/a
702446	REC_WORD	wordpools/wasnorm_wordpool_less_exclusions.txt	LTP286	ltpFR	6	5	1	FROST	609	n/a	n/a	0	n/a	n/a	n/a	n/a	n/a
703446	REC_WORD_VV	wordpools/wasnorm_wordpool_less_exclusions.txt	LTP286	ltpFR	6	5	n/a	<>	-1	n/a	n/a	n/a	n/a	n/a	n/a	n/a	n/a
704076	REC_WORD	wordpools/wasnorm_wordpool_less_exclusions.txt	LTP286	ltpFR	6	5	1	GOVERNOR	651	n/a	n/a	1	n/a	n/a	n/a	n/a	n/a
711584	REC_WORD	wordpools/wasnorm_wordpool_less_exclusions.txt	LTP286	ltpFR	6	5	1	MEADOW	881	n/a	n/a	0	n/a	n/a	n/a	n/a	n/a
722413	REC_WORD	wordpools/wasnorm_wordpool_less_exclusions.txt	LTP286	ltpFR	6	5	1	CHAUFFEUR	283	n/a	n/a	1	n/a	n/a	n/a	n/a	n/a
731488	REC_WORD	wordpools/wasnorm_wordpool_less_exclusions.txt	LTP286	ltpFR	6	5	1	GUARD	667	n/a	n/a	1	n/a	n/a	n/a	n/a	n/a
748738	REC_WORD	wordpools/wasnorm_wordpool_less_exclusions.txt	LTP286	ltpFR	6	5	1	COMPASS	358	n/a	n/a	0	n/a	n/a	n/a	n/a	n/a
780882	WORD	wordpools/wasnorm_wordpool_less_exclusions.txt	LTP286	ltpFR	6	6	1	DISC	473	n/a	n/a	0	0.422607421875	0.5869140625	0	lower	amplitud.ttf
784943	WORD	wordpools/wasnorm_wordpool_less_exclusions.txt	LTP286	ltpFR	6	6	1	CUSTOMER	430	n/a	n/a	1	0.422607421875	0.5869140625	0	lower	amplitud.ttf
788854	WORD	wordpools/wasnorm_wordpool_less_exclusions.txt	LTP286	ltpFR	6	6	1	HOOK	715	n/a	n/a	0	0.422607421875	0.5869140625	0	lower	amplitud.ttf
793031	WORD	wordpools/wasnorm_wordpool_less_exclusions.txt	LTP286	ltpFR	6	6	1	KEYBOARD	774	n/a	n/a	0	0.422607421875	0.5869140625	0	lower	amplitud.ttf
797058	WORD	wordpools/wasnorm_wordpool_less_exclusions.txt	LTP286	ltpFR	6	6	1	BURGLAR	200	n/a	n/a	1	0.422607421875	0.5869140625	0	lower	amplitud.ttf
801085	WORD	wordpools/wasnorm_wordpool_less_exclusions.txt	LTP286	ltpFR	6	6	1	KANGAROO	768	n/a	n/a	1	0.422607421875	0.5869140625	0	lower	amplitud.ttf
804963	WORD	wordpools/wasnorm_wordpool_less_exclusions.txt	LTP286	ltpFR	6	6	1	MAILMAN	858	n/a	n/a	1	0.422607421875	0.5869140625	0	lower	amplitud.ttf
809040	WORD	wordpools/wasnorm_wordpool_less_exclusions.txt	LTP286	ltpFR	6	6	1	BALL	73	n/a	n/a	0	0.422607421875	0.5869140625	0	lower	amplitud.ttf
813067	WORD	wordpools/wasnorm_wordpool_less_exclusions.txt	LTP286	ltpFR	6	6	1	POLYESTER	1100	n/a	n/a	0	0.422607421875	0.5869140625	0	lower	amplitud.ttf
817128	WORD	wordpools/wasnorm_wordpool_less_exclusions.txt	LTP286	ltpFR	6	6	1	CRICKET	408	n/a	n/a	1	0.422607421875	0.5869140625	0	lower	amplitud.ttf
821272	WORD	wordpools/wasnorm_wordpool_less_exclusions.txt	LTP286	ltpFR	6	6	1	SEAGULL	1261	n/a	n/a	1	0.422607421875	0.5869140625	0	lower	amplitud.ttf
825199	WORD	wordpools/wasnorm_wordpool_less_exclusions.txt	LTP286	ltpFR	6	6	1	NEST	945	n/a	n/a	0	0.422607421875	0.5869140625	0	lower	amplitud.ttf
829411	WORD	wordpools/wasnorm_wordpool_less_exclusions.txt	LTP286	ltpFR	6	6	1	MARINE	869	n/a	n/a	1	0.422607421875	0.5869140625	0	lower	amplitud.ttf
833372	WORD	wordpools/wasnorm_wordpool_less_exclusions.txt	LTP286	ltpFR	6	6	1	BOAT	144	n/a	n/a	0	0.422607421875	0.5869140625	0	lower	amplitud.ttf
837415	WORD	wordpools/wasnorm_wordpool_less_exclusions.txt	LTP286	ltpFR	6	6	1	STREAM	1392	n/a	n/a	0	0.422607421875	0.5869140625	0	lower	amplitud.ttf
841360	WORD	wordpools/wasnorm_wordpool_less_exclusions.txt	LTP286	ltpFR	6	6	1	KITE	779	n/a	n/a	0	0.422607421875	0.5869140625	0	lower	amplitud.ttf
847284	REC_START	n/a	LTP286	ltpFR	6	6	n/a	n/a	n/a	n/a	n/a	n/a	n/a	n/a	n/a	n/a	n/a
848288	REC_WORD	wordpools/wasnorm_wordpool_less_exclusions.txt	LTP286	ltpFR	6	6	1	KITE	779	n/a	n/a	0	n/a	n/a	n/a	n/a	n/a
849448	REC_WORD	wordpools/wasnorm_wordpool_less_exclusions.txt	LTP286	ltpFR	6	6	1	BOAT	144	n/a	n/a	0	n/a	n/a	n/a	n/a	n/a
850290	REC_WORD	wordpools/wasnorm_wordpool_less_exclusions.txt	LTP286	ltpFR	6	6	1	STREAM	1392	n/a	n/a	0	n/a	n/a	n/a	n/a	n/a
866674	REC_WORD	wordpools/wasnorm_wordpool_less_exclusions.txt	LTP286	ltpFR	6	6	1	NEST	945	n/a	n/a	0	n/a	n/a	n/a	n/a	n/a
867885	REC_WORD	wordpools/wasnorm_wordpool_less_exclusions.txt	LTP286	ltpFR	6	6	1	SEAGULL	1261	n/a	n/a	1	n/a	n/a	n/a	n/a	n/a
870725	REC_WORD	wordpools/wasnorm_wordpool_less_exclusions.txt	LTP286	ltpFR	6	6	1	DISC	473	n/a	n/a	0	n/a	n/a	n/a	n/a	n/a
871675	REC_WORD	wordpools/wasnorm_wordpool_less_exclusions.txt	LTP286	ltpFR	6	6	1	CUSTOMER	430	n/a	n/a	1	n/a	n/a	n/a	n/a	n/a
873153	REC_WORD	wordpools/wasnorm_wordpool_less_exclusions.txt	LTP286	ltpFR	6	6	1	POLYESTER	1100	n/a	n/a	0	n/a	n/a	n/a	n/a	n/a
874153	REC_WORD_VV	wordpools/wasnorm_wordpool_less_exclusions.txt	LTP286	ltpFR	6	6	n/a	<>	-1	n/a	n/a	n/a	n/a	n/a	n/a	n/a	n/a
874685	REC_WORD	wordpools/wasnorm_wordpool_less_exclusions.txt	LTP286	ltpFR	6	6	1	MARINE	869	n/a	n/a	1	n/a	n/a	n/a	n/a	n/a
878091	REC_WORD	wordpools/wasnorm_wordpool_less_exclusions.txt	LTP286	ltpFR	6	6	1	MAILMAN	858	n/a	n/a	1	n/a	n/a	n/a	n/a	n/a
911948	REC_WORD	wordpools/wasnorm_wordpool_less_exclusions.txt	LTP286	ltpFR	6	6	1	KEYBOARD	774	n/a	n/a	0	n/a	n/a	n/a	n/a	n/a
926947	WORD	wordpools/wasnorm_wordpool_less_exclusions.txt	LTP286	ltpFR	6	7	1	CLAM	315	n/a	n/a	1	0.422607421875	0.5869140625	0	lower	amplitud.ttf
931041	WORD	wordpools/wasnorm_wordpool_less_exclusions.txt	LTP286	ltpFR	6	7	1	CHART	282	n/a	n/a	0	0.422607421875	0.5869140625	0	lower	amplitud.ttf
935002	WORD	wordpools/wasnorm_wordpool_less_exclusions.txt	LTP286	ltpFR	6	7	1	FUGITIVE	612	n/a	n/a	1	0.422607421875	0.5869140625	0	lower	amplitud.ttf
939113	WORD	wordpools/wasnorm_wordpool_less_exclusions.txt	LTP286	ltpFR	6	7	0	SACK	1220	n/a	n/a	0	0.57763671875	0.412841796875	1	upper	zerothre.ttf
943173	WORD	wordpools/wasnorm_wordpool_less_exclusions.txt	LTP286	ltpFR	6	7	0	SURF	1412	n/a	n/a	1	0.57763671875	0.412841796875	1	upper	zerothre.ttf
947101	WORD	wordpools/wasnorm_wordpool_less_exclusions.txt	LTP286	ltpFR	6	7	0	TECHNICIAN	1443	n/a	n/a	1	0.57763671875	0.412841796875	1	upper	zerothre.ttf
951311	WORD	wordpools/wasnorm_wordpool_less_exclusions.txt	LTP286	ltpFR	6	7	1	BOWL	158	n/a	n/a	0	0.422607421875	0.5869140625	0	lower	amplitud.ttf
955406	WORD	wordpools/wasnorm_wordpool_less_exclusions.txt	LTP286	ltpFR	6	7	1	SPINACH	1352	n/a	n/a	1	0.422607421875	0.5869140625	0	lower	amplitud.ttf
959599	WORD	wordpools/wasnorm_wordpool_less_exclusions.txt	LTP286	ltpFR	6	7	0	COLESLAW	344	n/a	n/a	0	0.57763671875	0.412841796875	1	upper	zerothre.ttf
963609	WORD	wordpools/wasnorm_wordpool_less_exclusions.txt	LTP286	ltpFR	6	7	0	BIKE	125	n/a	n/a	1	0.57763671875	0.412841796875	1	upper	zerothre.ttf
967587	WORD	wordpools/wasnorm_wordpool_less_exclusions.txt	LTP286	ltpFR	6	7	0	BUGGY	188	n/a	n/a	1	0.57763671875	0.412841796875	1	upper	zerothre.ttf
971731	WORD	wordpools/wasnorm_wordpool_less_exclusions.txt	LTP286	ltpFR	6	7	0	CASHIER	254	n/a	n/a	1	0.57763671875	0.412841796875	1	upper	zerothre.ttf
975575	WORD	wordpools/wasnorm_wordpool_less_exclusions.txt	LTP286	ltpFR	6	7	0	NICKEL	950	n/a	n/a	0	0.57763671875	0.412841796875	1	upper	zerothre.ttf
979420	WORD	wordpools/wasnorm_wordpool_less_exclusions.txt	LTP286	ltpFR	6	7	1	BANDIT	81	n/a	n/a	0	0.422607421875	0.5869140625	0	lower	amplitud.ttf
983280	WORD	wordpools/wasnorm_wordpool_less_exclusions.txt	LTP286	ltpFR	6	7	1	KNAPSACK	783	n/a	n/a	0	0.422607421875	0.5869140625	0	lower	amplitud.ttf
987307	WORD	wordpools/wasnorm_wordpool_less_exclusions.txt	LTP286	ltpFR	6	7	1	LAMB	797	n/a	n/a	1	0.422607421875	0.5869140625	0	lower	amplitud.ttf
993049	REC_START	n/a	LTP286	ltpFR	6	7	n/a	n/a	n/a	n/a	n/a	n/a	n/a	n/a	n/a	n/a	n/a
994160	REC_WORD	wordpools/wasnorm_wordpool_less_exclusions.txt	LTP286	ltpFR	6	7	1	LAMB	797	n/a	n/a	1	n/a	n/a	n/a	n/a	n/a
995590	REC_WORD	wordpools/wasnorm_wordpool_less_exclusions.txt	LTP286	ltpFR	6	7	1	BANDIT	81	n/a	n/a	0	n/a	n/a	n/a	n/a	n/a
996886	REC_WORD	wordpools/wasnorm_wordpool_less_exclusions.txt	LTP286	ltpFR	6	7	1	FUGITIVE	612	n/a	n/a	1	n/a	n/a	n/a	n/a	n/a
997886	REC_WORD_VV	wordpools/wasnorm_wordpool_less_exclusions.txt	LTP286	ltpFR	6	7	n/a	<>	-1	n/a	n/a	n/a	n/a	n/a	n/a	n/a	n/a
1003473	REC_WORD	wordpools/wasnorm_wordpool_less_exclusions.txt	LTP286	ltpFR	6	7	0	CASHIER	254	n/a	n/a	1	n/a	n/a	n/a	n/a	n/a
1004900	REC_WORD	wordpools/wasnorm_wordpool_less_exclusions.txt	LTP286	ltpFR	6	7	0	SURF	1412	n/a	n/a	1	n/a	n/a	n/a	n/a	n/a
1020779	REC_WORD	wordpools/wasnorm_wordpool_less_exclusions.txt	LTP286	ltpFR	6	7	0	BUGGY	188	n/a	n/a	1	n/a	n/a	n/a	n/a	n/a
1021921	REC_WORD	wordpools/wasnorm_wordpool_less_exclusions.txt	LTP286	ltpFR	6	7	0	BIKE	125	n/a	n/a	1	n/a	n/a	n/a	n/a	n/a
1072846	WORD	wordpools/wasnorm_wordpool_less_exclusions.txt	LTP286	ltpFR	6	8	-1	GARAGE	621	n/a	n/a	-1	1.0	1.0	1	upper	Verdana.ttf
1076957	WORD	wordpools/wasnorm_wordpool_less_exclusions.txt	LTP286	ltpFR	6	8	-1	COSTUME	383	n/a	n/a	-1	1.0	1.0	1	upper	Verdana.ttf
1081017	WORD	wordpools/wasnorm_wordpool_less_exclusions.txt	LTP286	ltpFR	6	8	-1	MERMAID	887	n/a	n/a	-1	1.0	1.0	1	upper	Verdana.ttf
1084961	WORD	wordpools/wasnorm_wordpool_less_exclusions.txt	LTP286	ltpFR	6	8	-1	PORPOISE	1109	n/a	n/a	-1	1.0	1.0	1	upper	Verdana.ttf
1088956	WORD	wordpools/wasnorm_wordpool_less_exclusions.txt	LTP286	ltpFR	6	8	-1	DRIVER	499	n/a	n/a	-1	1.0	1.0	1	upper	Verdana.ttf
1093000	WORD	wordpools/wasnorm_wordpool_less_exclusions.txt	LTP286	ltpFR	6	8	-1	MASK	876	n/a	n/a	-1	1.0	1.0	1	upper	Verdana.ttf
1096910	WORD	wordpools/wasnorm_wordpool_less_exclusions.txt	LTP286	ltpFR	6	8	-1	TREAD	1499	n/a	n/a	-1	1.0	1.0	1	upper	Verdana.ttf
1100854	WORD	wordpools/wasnorm_wordpool_less_exclusions.txt	LTP286	ltpFR	6	8	-1	PIT	1077	n/a	n/a	-1	1.0	1.0	1	upper	Verdana.ttf
1104682	WORD	wordpools/wasnorm_wordpool_less_exclusions.txt	LTP286	ltpFR	6	8	-1	CLIFF	322	n/a	n/a	-1	1.0	1.0	1	upper	Verdana.ttf
1108743	WORD	wordpools/wasnorm_wordpool_less_exclusions.txt	LTP286	ltpFR	6	8	-1	STOCKING	1383	n/a	n/a	-1	1.0	1.0	1	upper	Verdana.ttf
1112853	WORD	wordpools/wasnorm_wordpool_less_exclusions.txt	LTP286	ltpFR	6	8	-1	BEET	115	n/a	n/a	-1	1.0	1.0	1	upper	Verdana.ttf
1116764	WORD	wordpools/wasnorm_wordpool_less_exclusions.txt	LTP286	ltpFR	6	8	-1	OVEN	991	n/a	n/a	-1	1.0	1.0	1	upper	Verdana.ttf
1120741	WORD	wordpools/wasnorm_wordpool_less_exclusions.txt	LTP286	ltpFR	6	8	-1	MISTER	901	n/a	n/a	-1	1.0	1.0	1	upper	Verdana.ttf
1124885	WORD	wordpools/wasnorm_wordpool_less_exclusions.txt	LTP286	ltpFR	6	8	-1	WOMAN	1620	n/a	n/a	-1	1.0	1.0	1	upper	Verdana.ttf
1128713	WORD	wordpools/wasnorm_wordpool_less_exclusions.txt	LTP286	ltpFR	6	8	-1	SOFTBALL	1343	n/a	n/a	-1	1.0	1.0	1	upper	Verdana.ttf
1132857	WORD	wordpools/wasnorm_wordpool_less_exclusions.txt	LTP286	ltpFR	6	8	-1	ARENA	37	n/a	n/a	-1	1.0	1.0	1	upper	Verdana.ttf
1138882	REC_START	n/a	LTP286	ltpFR	6	8	n/a	n/a	n/a	n/a	n/a	n/a	n/a	n/a	n/a	n/a	n/a
1139410	REC_WORD	wordpools/wasnorm_wordpool_less_exclusions.txt	LTP286	ltpFR	6	8	-1	SOFTBALL	1343	n/a	n/a	-1	n/a	n/a	n/a	n/a	n/a
1140835	REC_WORD	wordpools/wasnorm_wordpool_less_exclusions.txt	LTP286	ltpFR	6	8	-1	ARENA	37	n/a	n/a	-1	n/a	n/a	n/a	n/a	n/a
1159045	REC_WORD	wordpools/wasnorm_wordpool_less_exclusions.txt	LTP286	ltpFR	6	8	-1	GARAGE	621	n/a	n/a	-1	n/a	n/a	n/a	n/a	n/a
1160743	REC_WORD	wordpools/wasnorm_wordpool_less_exclusions.txt	LTP286	ltpFR	6	8	-1	TREAD	1499	n/a	n/a	-1	n/a	n/a	n/a	n/a	n/a
1162018	REC_WORD	wordpools/wasnorm_wordpool_less_exclusions.txt	LTP286	ltpFR	6	8	-1	COSTUME	383	n/a	n/a	-1	n/a	n/a	n/a	n/a	n/a
1163374	REC_WORD	wordpools/wasnorm_wordpool_less_exclusions.txt	LTP286	ltpFR	6	8	-1	MASK	876	n/a	n/a	-1	n/a	n/a	n/a	n/a	n/a
1164574	REC_WORD	wordpools/wasnorm_wordpool_less_exclusions.txt	LTP286	ltpFR	6	8	-1	STOCKING	1383	n/a	n/a	-1	n/a	n/a	n/a	n/a	n/a
1165991	REC_WORD	wordpools/wasnorm_wordpool_less_exclusions.txt	LTP286	ltpFR	6	8	-1	DRIVER	499	n/a	n/a	-1	n/a	n/a	n/a	n/a	n/a
1167275	REC_WORD	wordpools/wasnorm_wordpool_less_exclusions.txt	LTP286	ltpFR	6	8	-1	MERMAID	887	n/a	n/a	-1	n/a	n/a	n/a	n/a	n/a
1171063	REC_WORD	wordpools/wasnorm_wordpool_less_exclusions.txt	LTP286	ltpFR	6	8	-1	CLIFF	322	n/a	n/a	-1	n/a	n/a	n/a	n/a	n/a
1172295	REC_WORD	wordpools/wasnorm_wordpool_less_exclusions.txt	LTP286	ltpFR	6	8	-1	PIT	1077	n/a	n/a	-1	n/a	n/a	n/a	n/a	n/a
1214486	REST_REWET	n/a	LTP286	ltpFR	6	8	n/a	n/a	n/a	n/a	n/a	n/a	n/a	n/a	n/a	n/a	n/a
1704536	WORD	wordpools/wasnorm_wordpool_less_exclusions.txt	LTP286	ltpFR	6	9	-1	GORILLA	650	n/a	n/a	-1	1.0	1.0	1	upper	Verdana.ttf
1708647	WORD	wordpools/wasnorm_wordpool_less_exclusions.txt	LTP286	ltpFR	6	9	-1	APE	31	n/a	n/a	-1	1.0	1.0	1	upper	Verdana.ttf
1712608	WORD	wordpools/wasnorm_wordpool_less_exclusions.txt	LTP286	ltpFR	6	9	-1	HIKER	708	n/a	n/a	-1	1.0	1.0	1	upper	Verdana.ttf
1716518	WORD	wordpools/wasnorm_wordpool_less_exclusions.txt	LTP286	ltpFR	6	9	-1	GOOSE	649	n/a	n/a	-1	1.0	1.0	1	upper	Verdana.ttf
1720729	WORD	wordpools/wasnorm_wordpool_less_exclusions.txt	LTP286	ltpFR	6	9	-1	BRANDY	169	n/a	n/a	-1	1.0	1.0	1	upper	Verdana.ttf
1724773	WORD	wordpools/wasnorm_wordpool_less_exclusions.txt	LTP286	ltpFR	6	9	-1	CARAVAN	242	n/a	n/a	-1	1.0	1.0	1	upper	Verdana.ttf
1728883	WORD	wordpools/wasnorm_wordpool_less_exclusions.txt	LTP286	ltpFR	6	9	-1	SERPENT	1270	n/a	n/a	-1	1.0	1.0	1	upper	Verdana.ttf
1732861	WORD	wordpools/wasnorm_wordpool_less_exclusions.txt	LTP286	ltpFR	6	9	-1	IGLOO	734	n/a	n/a	-1	1.0	1.0	1	upper	Verdana.ttf
1736772	WORD	wordpools/wasnorm_wordpool_less_exclusions.txt	LTP286	ltpFR	6	9	-1	KLEENEX	782	n/a	n/a	-1	1.0	1.0	1	upper	Verdana.ttf
1740666	WORD	wordpools/wasnorm_wordpool_less_exclusions.txt	LTP286	ltpFR	6	9	-1	LINT	826	n/a	n/a	-1	1.0	1.0	1	upper	Verdana.ttf
1744660	WORD	wordpools/wasnorm_wordpool_less_exclusions.txt	LTP286	ltpFR	6	9	-1	WASHCLOTH	1591	n/a	n/a	-1	1.0	1.0	1	upper	Verdana.ttf
1748787	WORD	wordpools/wasnorm_wordpool_less_exclusions.txt	LTP286	ltpFR	6	9	-1	SEA	1259	n/a	n/a	-1	1.0	1.0	1	upper	Verdana.ttf
1752798	WORD	wordpools/wasnorm_wordpool_less_exclusions.txt	LTP286	ltpFR	6	9	-1	CHIME	300	n/a	n/a	-1	1.0	1.0	1	upper	Verdana.ttf
1757025	WORD	wordpools/wasnorm_wordpool_less_exclusions.txt	LTP286	ltpFR	6	9	-1	AUTOMOBILE	62	n/a	n/a	-1	1.0	1.0	1	upper	Verdana.ttf
1761002	WORD	wordpools/wasnorm_wordpool_less_exclusions.txt	LTP286	ltpFR	6	9	-1	ISLAND	745	n/a	n/a	-1	1.0	1.0	1	upper	Verdana.ttf
1764863	WORD	wordpools/wasnorm_wordpool_less_exclusions.txt	LTP286	ltpFR	6	9	-1	MESSAGE	888	n/a	n/a	-1	1.0	1.0	1	upper	Verdana.ttf
1770605	REC_START	n/a	LTP286	ltpFR	6	9	n/a	n/a	n/a	n/a	n/a	n/a	n/a	n/a	n/a	n/a	n/a
1771590	REC_WORD	wordpools/wasnorm_wordpool_less_exclusions.txt	LTP286	ltpFR	6	9	-1	ISLAND	745	n/a	n/a	-1	n/a	n/a	n/a	n/a	n/a
1772684	REC_WORD	wordpools/wasnorm_wordpool_less_exclusions.txt	LTP286	ltpFR	6	9	-1	SEA	1259	n/a	n/a	-1	n/a	n/a	n/a	n/a	n/a
1774007	REC_WORD	wordpools/wasnorm_wordpool_less_exclusions.txt	LTP286	ltpFR	6	9	-1	MESSAGE	888	n/a	n/a	-1	n/a	n/a	n/a	n/a	n/a
1775007	REC_WORD_VV	wordpools/wasnorm_wordpool_less_exclusions.txt	LTP286	ltpFR	6	9	n/a	<>	-1	n/a	n/a	n/a	n/a	n/a	n/a	n/a	n/a
1775336	REC_WORD	wordpools/wasnorm_wordpool_less_exclusions.txt	LTP286	ltpFR	6	9	-1	CARAVAN	242	n/a	n/a	-1	n/a	n/a	n/a	n/a	n/a
1776544	REC_WORD	wordpools/wasnorm_wordpool_less_exclusions.txt	LTP286	ltpFR	6	9	-1	AUTOMOBILE	62	n/a	n/a	-1	n/a	n/a	n/a	n/a	n/a
1778479	REC_WORD	wordpools/wasnorm_wordpool_less_exclusions.txt	LTP286	ltpFR	6	9	-1	IGLOO	734	n/a	n/a	-1	n/a	n/a	n/a	n/a	n/a
1779663	REC_WORD	wordpools/wasnorm_wordpool_less_exclusions.txt	LTP286	ltpFR	6	9	-1	HIKER	708	n/a	n/a	-1	n/a	n/a	n/a	n/a	n/a
1780905	REC_WORD	wordpools/wasnorm_wordpool_less_exclusions.txt	LTP286	ltpFR	6	9	-1	KLEENEX	782	n/a	n/a	-1	n/a	n/a	n/a	n/a	n/a
1784441	REC_WORD	wordpools/wasnorm_wordpool_less_exclusions.txt	LTP286	ltpFR	6	9	-1	BRANDY	169	n/a	n/a	-1	n/a	n/a	n/a	n/a	n/a
1785597	REC_WORD	wordpools/wasnorm_wordpool_less_exclusions.txt	LTP286	ltpFR	6	9	-1	LINT	826	n/a	n/a	-1	n/a	n/a	n/a	n/a	n/a
1790818	REC_WORD	wordpools/wasnorm_wordpool_less_exclusions.txt	LTP286	ltpFR	6	9	-1	GORILLA	650	n/a	n/a	-1	n/a	n/a	n/a	n/a	n/a
1791986	REC_WORD	wordpools/wasnorm_wordpool_less_exclusions.txt	LTP286	ltpFR	6	9	-1	APE	31	n/a	n/a	-1	n/a	n/a	n/a	n/a	n/a
1793257	REC_WORD	wordpools/wasnorm_wordpool_less_exclusions.txt	LTP286	ltpFR	6	9	-1	GOOSE	649	n/a	n/a	-1	n/a	n/a	n/a	n/a	n/a
1794650	REC_WORD	wordpools/wasnorm_wordpool_less_exclusions.txt	LTP286	ltpFR	6	9	-1	SERPENT	1270	n/a	n/a	-1	n/a	n/a	n/a	n/a	n/a
1795650	REC_WORD_VV	wordpools/wasnorm_wordpool_less_exclusions.txt	LTP286	ltpFR	6	9	n/a	<>	-1	n/a	n/a	n/a	n/a	n/a	n/a	n/a	n/a
1850269	WORD	wordpools/wasnorm_wordpool_less_exclusions.txt	LTP286	ltpFR	6	10	0	BOOTH	151	n/a	n/a	1	0.57763671875	0.412841796875	1	upper	zerothre.ttf
1854229	WORD	wordpools/wasnorm_wordpool_less_exclusions.txt	LTP286	ltpFR	6	10	0	MARSH	874	n/a	n/a	1	0.57763671875	0.412841796875	1	upper	zerothre.ttf
1858290	WORD	wordpools/wasnorm_wordpool_less_exclusions.txt	LTP286	ltpFR	6	10	0	FIELD	562	n/a	n/a	1	0.57763671875	0.412841796875	1	upper	zerothre.ttf
1862118	WORD	wordpools/wasnorm_wordpool_less_exclusions.txt	LTP286	ltpFR	6	10	0	REGISTER	1180	n/a	n/a	1	0.57763671875	0.412841796875	1	upper	zerothre.ttf
1866262	WORD	wordpools/wasnorm_wordpool_less_exclusions.txt	LTP286	ltpFR	6	10	0	GARLIC	624	n/a	n/a	0	0.57763671875	0.412841796875	1	upper	zerothre.ttf
1870406	WORD	wordpools/wasnorm_wordpool_less_exclusions.txt	LTP286	ltpFR	6	10	0	STUDENT	1395	n/a	n/a	1	0.57763671875	0.412841796875	1	upper	zerothre.ttf
1874417	WORD	wordpools/wasnorm_wordpool_less_exclusions.txt	LTP286	ltpFR	6	10	0	GRADUATE	653	n/a	n/a	1	0.57763671875	0.412841796875	1	upper	zerothre.ttf
1878543	WORD	wordpools/wasnorm_wordpool_less_exclusions.txt	LTP286	ltpFR	6	10	0	SKUNK	1321	n/a	n/a	0	0.57763671875	0.412841796875	1	upper	zerothre.ttf
1882670	WORD	wordpools/wasnorm_wordpool_less_exclusions.txt	LTP286	ltpFR	6	10	0	REPTILE	1185	n/a	n/a	0	0.57763671875	0.412841796875	1	upper	zerothre.ttf
1886831	WORD	wordpools/wasnorm_wordpool_less_exclusions.txt	LTP286	ltpFR	6	10	0	PAD	998	n/a	n/a	0	0.57763671875	0.412841796875	1	upper	zerothre.ttf
1891025	WORD	wordpools/wasnorm_wordpool_less_exclusions.txt	LTP286	ltpFR	6	10	0	ALBUM	14	n/a	n/a	0	0.57763671875	0.412841796875	1	upper	zerothre.ttf
1894952	WORD	wordpools/wasnorm_wordpool_less_exclusions.txt	LTP286	ltpFR	6	10	0	DRAWING	494	n/a	n/a	0	0.57763671875	0.412841796875	1	upper	zerothre.ttf
1899162	WORD	wordpools/wasnorm_wordpool_less_exclusions.txt	LTP286	ltpFR	6	10	0	POPE	1105	n/a	n/a	1	0.57763671875	0.412841796875	1	upper	zerothre.ttf
1903023	WORD	wordpools/wasnorm_wordpool_less_exclusions.txt	LTP286	ltpFR	6	10	0	SCULPTURE	1258	n/a	n/a	1	0.57763671875	0.412841796875	1	upper	zerothre.ttf
1907051	WORD	wordpools/wasnorm_wordpool_less_exclusions.txt	LTP286	ltpFR	6	10	0	NEWSSTAND	949	n/a	n/a	1	0.57763671875	0.412841796875	1	upper	zerothre.ttf
1911111	WORD	wordpools/wasnorm_wordpool_less_exclusions.txt	LTP286	ltpFR	6	10	0	TREASURE	1500	n/a	n/a	1	0.57763671875	0.412841796875	1	upper	zerothre.ttf
1917020	REC_START	n/a	LTP286	ltpFR	6	10	n/a	n/a	n/a	n/a	n/a	n/a	n/a	n/a	n/a	n/a	n/a
1917736	REC_WORD	wordpools/wasnorm_wordpool_less_exclusions.txt	LTP286	ltpFR	6	10	0	TREASURE	1500	n/a	n/a	1	n/a	n/a	n/a	n/a	n/a
1918875	REC_WORD	wordpools/wasnorm_wordpool_less_exclusions.txt	LTP286	ltpFR	6	10	0	NEWSSTAND	949	n/a	n/a	1	n/a	n/a	n/a	n/a	n/a
1919875	REC_WORD_VV	wordpools/wasnorm_wordpool_less_exclusions.txt	LTP286	ltpFR	6	10	n/a	<>	-1	n/a	n/a	n/a	n/a	n/a	n/a	n/a	n/a
1920280	REC_WORD	wordpools/wasnorm_wordpool_less_exclusions.txt	LTP286	ltpFR	6	10	0	REGISTER	1180	n/a	n/a	1	n/a	n/a	n/a	n/a	n/a
1921828	REC_WORD	wordpools/wasnorm_wordpool_less_exclusions.txt	LTP286	ltpFR	6	10	0	PAD	998	n/a	n/a	0	n/a	n/a	n/a	n/a	n/a
1922900	REC_WORD	wordpools/wasnorm_wordpool_less_exclusions.txt	LTP286	ltpFR	6	10	0	STUDENT	1395	n/a	n/a	1	n/a	n/a	n/a	n/a	n/a
1924274	REC_WORD	wordpools/wasnorm_wordpool_less_exclusions.txt	LTP286	ltpFR	6	10	0	GRADUATE	653	n/a	n/a	1	n/a	n/a	n/a	n/a	n/a
1925588	REC_WORD	wordpools/wasnorm_wordpool_less_exclusions.txt	LTP286	ltpFR	6	10	n/a	HOPE	-1	n/a	n/a	n/a	n/a	n/a	n/a	n/a	n/a
1927155	REC_WORD	wordpools/wasnorm_wordpool_less_exclusions.txt	LTP286	ltpFR	6	10	0	POPE	1105	n/a	n/a	1	n/a	n/a	n/a	n/a	n/a
1938061	REC_WORD	wordpools/wasnorm_wordpool_less_exclusions.txt	LTP286	ltpFR	6	10	0	FIELD	562	n/a	n/a	1	n/a	n/a	n/a	n/a	n/a
1939435	REC_WORD	wordpools/wasnorm_wordpool_less_exclusions.txt	LTP286	ltpFR	6	10	0	MARSH	874	n/a	n/a	1	n/a	n/a	n/a	n/a	n/a
1941100	REC_WORD	wordpools/wasnorm_wordpool_less_exclusions.txt	LTP286	ltpFR	6	10	0	BOOTH	151	n/a	n/a	1	n/a	n/a	n/a	n/a	n/a
1942739	REC_WORD	wordpools/wasnorm_wordpool_less_exclusions.txt	LTP286	ltpFR	6	10	0	DRAWING	494	n/a	n/a	0	n/a	n/a	n/a	n/a	n/a
1944016	REC_WORD	wordpools/wasnorm_wordpool_less_exclusions.txt	LTP286	ltpFR	6	10	0	ALBUM	14	n/a	n/a	0	n/a	n/a	n/a	n/a	n/a
1963307	REC_WORD	wordpools/wasnorm_wordpool_less_exclusions.txt	LTP286	ltpFR	6	10	0	SKUNK	1321	n/a	n/a	0	n/a	n/a	n/a	n/a	n/a
1996418	WORD	wordpools/wasnorm_wordpool_less_exclusions.txt	LTP286	ltpFR	6	11	1	QUILL	1150	n/a	n/a	0	0.422607421875	0.5869140625	0	lower	amplitud.ttf
2000628	WORD	wordpools/wasnorm_wordpool_less_exclusions.txt	LTP286	ltpFR	6	11	1	PEACH	1031	n/a	n/a	1	0.422607421875	0.5869140625	0	lower	amplitud.ttf
2004488	WORD	wordpools/wasnorm_wordpool_less_exclusions.txt	LTP286	ltpFR	6	11	1	COBBLER	335	n/a	n/a	0	0.422607421875	0.5869140625	0	lower	amplitud.ttf
2008384	WORD	wordpools/wasnorm_wordpool_less_exclusions.txt	LTP286	ltpFR	6	11	1	LAUNDRY	803	n/a	n/a	0	0.422607421875	0.5869140625	0	lower	amplitud.ttf
2012277	WORD	wordpools/wasnorm_wordpool_less_exclusions.txt	LTP286	ltpFR	6	11	1	TROUT	1511	n/a	n/a	1	0.422607421875	0.5869140625	0	lower	amplitud.ttf
2016487	WORD	wordpools/wasnorm_wordpool_less_exclusions.txt	LTP286	ltpFR	6	11	1	UNICORN	1538	n/a	n/a	1	0.422607421875	0.5869140625	0	lower	amplitud.ttf
2020432	WORD	wordpools/wasnorm_wordpool_less_exclusions.txt	LTP286	ltpFR	6	11	1	MOOSE	915	n/a	n/a	1	0.422607421875	0.5869140625	0	lower	amplitud.ttf
2024342	WORD	wordpools/wasnorm_wordpool_less_exclusions.txt	LTP286	ltpFR	6	11	1	GOAT	644	n/a	n/a	1	0.422607421875	0.5869140625	0	lower	amplitud.ttf
2028253	WORD	wordpools/wasnorm_wordpool_less_exclusions.txt	LTP286	ltpFR	6	11	1	KIDNEY	776	n/a	n/a	1	0.422607421875	0.5869140625	0	lower	amplitud.ttf
2032398	WORD	wordpools/wasnorm_wordpool_less_exclusions.txt	LTP286	ltpFR	6	11	1	IRON	744	n/a	n/a	0	0.422607421875	0.5869140625	0	lower	amplitud.ttf
2036241	WORD	wordpools/wasnorm_wordpool_less_exclusions.txt	LTP286	ltpFR	6	11	1	PASSAGE	1019	n/a	n/a	0	0.422607421875	0.5869140625	0	lower	amplitud.ttf
2040202	WORD	wordpools/wasnorm_wordpool_less_exclusions.txt	LTP286	ltpFR	6	11	1	JURY	766	n/a	n/a	1	0.422607421875	0.5869140625	0	lower	amplitud.ttf
2044347	WORD	wordpools/wasnorm_wordpool_less_exclusions.txt	LTP286	ltpFR	6	11	1	CARRIAGE	248	n/a	n/a	0	0.422607421875	0.5869140625	0	lower	amplitud.ttf
2048391	WORD	wordpools/wasnorm_wordpool_less_exclusions.txt	LTP286	ltpFR	6	11	1	ARTERY	41	n/a	n/a	1	0.422607421875	0.5869140625	0	lower	amplitud.ttf
2052550	WORD	wordpools/wasnorm_wordpool_less_exclusions.txt	LTP286	ltpFR	6	11	1	BUN	197	n/a	n/a	0	0.422607421875	0.5869140625	0	lower	amplitud.ttf
2056727	WORD	wordpools/wasnorm_wordpool_less_exclusions.txt	LTP286	ltpFR	6	11	1	TOAST	1471	n/a	n/a	0	0.422607421875	0.5869140625	0	lower	amplitud.ttf
2062619	REC_START	n/a	LTP286	ltpFR	6	11	n/a	n/a	n/a	n/a	n/a	n/a	n/a	n/a	n/a	n/a	n/a
2063454	REC_WORD	wordpools/wasnorm_wordpool_less_exclusions.txt	LTP286	ltpFR	6	11	1	TOAST	1471	n/a	n/a	0	n/a	n/a	n/a	n/a	n/a
2064776	REC_WORD	wordpools/wasnorm_wordpool_less_exclusions.txt	LTP286	ltpFR	6	11	1	BUN	197	n/a	n/a	0	n/a	n/a	n/a	n/a	n/a
2065858	REC_WORD	wordpools/wasnorm_wordpool_less_exclusions.txt	LTP286	ltpFR	6	11	1	ARTERY	41	n/a	n/a	1	n/a	n/a	n/a	n/a	n/a
2067130	REC_WORD	wordpools/wasnorm_wordpool_less_exclusions.txt	LTP286	ltpFR	6	11	1	KIDNEY	776	n/a	n/a	1	n/a	n/a	n/a	n/a	n/a
2070766	REC_WORD	wordpools/wasnorm_wordpool_less_exclusions.txt	LTP286	ltpFR	6	11	1	MOOSE	915	n/a	n/a	1	n/a	n/a	n/a	n/a	n/a
2071908	REC_WORD	wordpools/wasnorm_wordpool_less_exclusions.txt	LTP286	ltpFR	6	11	1	UNICORN	1538	n/a	n/a	1	n/a	n/a	n/a	n/a	n/a
2073333	REC_WORD	wordpools/wasnorm_wordpool_less_exclusions.txt	LTP286	ltpFR	6	11	1	GOAT	644	n/a	n/a	1	n/a	n/a	n/a	n/a	n/a
2077731	REC_WORD	wordpools/wasnorm_wordpool_less_exclusions.txt	LTP286	ltpFR	6	11	1	COBBLER	335	n/a	n/a	0	n/a	n/a	n/a	n/a	n/a
2078977	REC_WORD	wordpools/wasnorm_wordpool_less_exclusions.txt	LTP286	ltpFR	6	11	1	PEACH	1031	n/a	n/a	1	n/a	n/a	n/a	n/a	n/a
2080752	REC_WORD	wordpools/wasnorm_wordpool_less_exclusions.txt	LTP286	ltpFR	6	11	1	TROUT	1511	n/a	n/a	1	n/a	n/a	n/a	n/a	n/a
2123633	REC_WORD	wordpools/wasnorm_wordpool_less_exclusions.txt	LTP286	ltpFR	6	11	1	PASSAGE	1019	n/a	n/a	0	n/a	n/a	n/a	n/a	n/a
2141650	WORD	wordpools/wasnorm_wordpool_less_exclusions.txt	LTP286	ltpFR	6	12	0	REFRIGERATOR	1179	n/a	n/a	1	0.57763671875	0.412841796875	1	upper	zerothre.ttf
2145794	WORD	wordpools/wasnorm_wordpool_less_exclusions.txt	LTP286	ltpFR	6	12	0	CELLO	268	n/a	n/a	1	0.57763671875	0.412841796875	1	upper	zerothre.ttf
2149755	WORD	wordpools/wasnorm_wordpool_less_exclusions.txt	LTP286	ltpFR	6	12	0	NOTEBOOK	959	n/a	n/a	0	0.57763671875	0.412841796875	1	upper	zerothre.ttf
2153882	WORD	wordpools/wasnorm_wordpool_less_exclusions.txt	LTP286	ltpFR	6	12	0	VIKING	1565	n/a	n/a	1	0.57763671875	0.412841796875	1	upper	zerothre.ttf
2157710	WORD	wordpools/wasnorm_wordpool_less_exclusions.txt	LTP286	ltpFR	6	12	1	RAFT	1159	n/a	n/a	0	0.422607421875	0.5869140625	0	lower	amplitud.ttf
2161920	WORD	wordpools/wasnorm_wordpool_less_exclusions.txt	LTP286	ltpFR	6	12	1	TWIN	1528	n/a	n/a	1	0.422607421875	0.5869140625	0	lower	amplitud.ttf
2165914	WORD	wordpools/wasnorm_wordpool_less_exclusions.txt	LTP286	ltpFR	6	12	1	SEAL	1262	n/a	n/a	1	0.422607421875	0.5869140625	0	lower	amplitud.ttf
2169975	WORD	wordpools/wasnorm_wordpool_less_exclusions.txt	LTP286	ltpFR	6	12	1	FLY	586	n/a	n/a	1	0.422607421875	0.5869140625	0	lower	amplitud.ttf
2174002	WORD	wordpools/wasnorm_wordpool_less_exclusions.txt	LTP286	ltpFR	6	12	1	RAILROAD	1162	n/a	n/a	1	0.422607421875	0.5869140625	0	lower	amplitud.ttf
2177979	WORD	wordpools/wasnorm_wordpool_less_exclusions.txt	LTP286	ltpFR	6	12	1	PAW	1029	n/a	n/a	0	0.422607421875	0.5869140625	0	lower	amplitud.ttf
2182090	WORD	wordpools/wasnorm_wordpool_less_exclusions.txt	LTP286	ltpFR	6	12	0	JOURNAL	760	n/a	n/a	0	0.57763671875	0.412841796875	1	upper	zerothre.ttf
2186151	WORD	wordpools/wasnorm_wordpool_less_exclusions.txt	LTP286	ltpFR	6	12	0	RECIPE	1175	n/a	n/a	0	0.57763671875	0.412841796875	1	upper	zerothre.ttf
2190078	WORD	wordpools/wasnorm_wordpool_less_exclusions.txt	LTP286	ltpFR	6	12	0	BARN	89	n/a	n/a	1	0.57763671875	0.412841796875	1	upper	zerothre.ttf
2194139	WORD	wordpools/wasnorm_wordpool_less_exclusions.txt	LTP286	ltpFR	6	12	0	SCARECROW	1245	n/a	n/a	1	0.57763671875	0.412841796875	1	upper	zerothre.ttf
2198000	WORD	wordpools/wasnorm_wordpool_less_exclusions.txt	LTP286	ltpFR	6	12	1	RIVER	1194	n/a	n/a	0	0.422607421875	0.5869140625	0	lower	amplitud.ttf
2202077	WORD	wordpools/wasnorm_wordpool_less_exclusions.txt	LTP286	ltpFR	6	12	1	SWIMMER	1420	n/a	n/a	1	0.422607421875	0.5869140625	0	lower	amplitud.ttf
2207736	REC_START	n/a	LTP286	ltpFR	6	12	n/a	n/a	n/a	n/a	n/a	n/a	n/a	n/a	n/a	n/a	n/a
2208590	REC_WORD	wordpools/wasnorm_wordpool_less_exclusions.txt	LTP286	ltpFR	6	12	1	RIVER	1194	n/a	n/a	0	n/a	n/a	n/a	n/a	n/a
2209737	REC_WORD	wordpools/wasnorm_wordpool_less_exclusions.txt	LTP286	ltpFR	6	12	1	SWIMMER	1420	n/a	n/a	1	n/a	n/a	n/a	n/a	n/a
2211339	REC_WORD	wordpools/wasnorm_wordpool_less_exclusions.txt	LTP286	ltpFR	6	12	0	NOTEBOOK	959	n/a	n/a	0	n/a	n/a	n/a	n/a	n/a
2212827	REC_WORD	wordpools/wasnorm_wordpool_less_exclusions.txt	LTP286	ltpFR	6	12	0	RECIPE	1175	n/a	n/a	0	n/a	n/a	n/a	n/a	n/a
2214405	REC_WORD	wordpools/wasnorm_wordpool_less_exclusions.txt	LTP286	ltpFR	6	12	0	JOURNAL	760	n/a	n/a	0	n/a	n/a	n/a	n/a	n/a
2216256	REC_WORD	wordpools/wasnorm_wordpool_less_exclusions.txt	LTP286	ltpFR	6	12	0	CELLO	268	n/a	n/a	1	n/a	n/a	n/a	n/a	n/a
2217486	REC_WORD	wordpools/wasnorm_wordpool_less_exclusions.txt	LTP286	ltpFR	6	12	0	REFRIGERATOR	1179	n/a	n/a	1	n/a	n/a	n/a	n/a	n/a
2219087	REC_WORD	wordpools/wasnorm_wordpool_less_exclusions.txt	LTP286	ltpFR	6	12	0	BARN	89	n/a	n/a	1	n/a	n/a	n/a	n/a	n/a
2220216	REC_WORD	wordpools/wasnorm_wordpool_less_exclusions.txt	LTP286	ltpFR	6	12	0	SCARECROW	1245	n/a	n/a	1	n/a	n/a	n/a	n/a	n/a
2221216	REC_WORD_VV	wordpools/wasnorm_wordpool_less_exclusions.txt	LTP286	ltpFR	6	12	n/a	<>	-1	n/a	n/a	n/a	n/a	n/a	n/a	n/a	n/a
2240739	REC_WORD	wordpools/wasnorm_wordpool_less_exclusions.txt	LTP286	ltpFR	6	12	1	SEAL	1262	n/a	n/a	1	n/a	n/a	n/a	n/a	n/a
2287233	WORD	wordpools/wasnorm_wordpool_less_exclusions.txt	LTP286	ltpFR	6	13	0	CAKE	219	n/a	n/a	1	0.57763671875	0.412841796875	1	upper	zerothre.ttf
2291144	WORD	wordpools/wasnorm_wordpool_less_exclusions.txt	LTP286	ltpFR	6	13	0	FIDDLE	561	n/a	n/a	0	0.57763671875	0.412841796875	1	upper	zerothre.ttf
2295154	WORD	wordpools/wasnorm_wordpool_less_exclusions.txt	LTP286	ltpFR	6	13	0	PIPE	1073	n/a	n/a	0	0.57763671875	0.412841796875	1	upper	zerothre.ttf
2299315	WORD	wordpools/wasnorm_wordpool_less_exclusions.txt	LTP286	ltpFR	6	13	0	SIDEWALK	1303	n/a	n/a	1	0.57763671875	0.412841796875	1	upper	zerothre.ttf
2303342	WORD	wordpools/wasnorm_wordpool_less_exclusions.txt	LTP286	ltpFR	6	13	0	PATH	1023	n/a	n/a	1	0.57763671875	0.412841796875	1	upper	zerothre.ttf
2307270	WORD	wordpools/wasnorm_wordpool_less_exclusions.txt	LTP286	ltpFR	6	13	0	TRIBE	1505	n/a	n/a	1	0.57763671875	0.412841796875	1	upper	zerothre.ttf
2311297	WORD	wordpools/wasnorm_wordpool_less_exclusions.txt	LTP286	ltpFR	6	13	0	SCALE	1241	n/a	n/a	0	0.57763671875	0.412841796875	1	upper	zerothre.ttf
2315324	WORD	wordpools/wasnorm_wordpool_less_exclusions.txt	LTP286	ltpFR	6	13	0	ORCHESTRA	981	n/a	n/a	1	0.57763671875	0.412841796875	1	upper	zerothre.ttf
2319335	WORD	wordpools/wasnorm_wordpool_less_exclusions.txt	LTP286	ltpFR	6	13	0	CASH	252	n/a	n/a	0	0.57763671875	0.412841796875	1	upper	zerothre.ttf
2323329	WORD	wordpools/wasnorm_wordpool_less_exclusions.txt	LTP286	ltpFR	6	13	0	UNCLE	1536	n/a	n/a	1	0.57763671875	0.412841796875	1	upper	zerothre.ttf
2327290	WORD	wordpools/wasnorm_wordpool_less_exclusions.txt	LTP286	ltpFR	6	13	0	FAMILY	550	n/a	n/a	1	0.57763671875	0.412841796875	1	upper	zerothre.ttf
2331317	WORD	wordpools/wasnorm_wordpool_less_exclusions.txt	LTP286	ltpFR	6	13	0	PENGUIN	1044	n/a	n/a	0	0.57763671875	0.412841796875	1	upper	zerothre.ttf
2335211	WORD	wordpools/wasnorm_wordpool_less_exclusions.txt	LTP286	ltpFR	6	13	0	CHIP	303	n/a	n/a	0	0.57763671875	0.412841796875	1	upper	zerothre.ttf
2339172	WORD	wordpools/wasnorm_wordpool_less_exclusions.txt	LTP286	ltpFR	6	13	0	LAGOON	795	n/a	n/a	1	0.57763671875	0.412841796875	1	upper	zerothre.ttf
2343299	WORD	wordpools/wasnorm_wordpool_less_exclusions.txt	LTP286	ltpFR	6	13	0	PAN	1008	n/a	n/a	0	0.57763671875	0.412841796875	1	upper	zerothre.ttf
2347127	WORD	wordpools/wasnorm_wordpool_less_exclusions.txt	LTP286	ltpFR	6	13	0	SPOON	1357	n/a	n/a	0	0.57763671875	0.412841796875	1	upper	zerothre.ttf
2352969	REC_START	n/a	LTP286	ltpFR	6	13	n/a	n/a	n/a	n/a	n/a	n/a	n/a	n/a	n/a	n/a	n/a
2353674	REC_WORD	wordpools/wasnorm_wordpool_less_exclusions.txt	LTP286	ltpFR	6	13	0	PAN	1008	n/a	n/a	0	n/a	n/a	n/a	n/a	n/a
2354628	REC_WORD	wordpools/wasnorm_wordpool_less_exclusions.txt	LTP286	ltpFR	6	13	0	SPOON	1357	n/a	n/a	0	n/a	n/a	n/a	n/a	n/a
2355991	REC_WORD	wordpools/wasnorm_wordpool_less_exclusions.txt	LTP286	ltpFR	6	13	0	LAGOON	795	n/a	n/a	1	n/a	n/a	n/a	n/a	n/a
2357776	REC_WORD	wordpools/wasnorm_wordpool_less_exclusions.txt	LTP286	ltpFR	6	13	0	FAMILY	550	n/a	n/a	1	n/a	n/a	n/a	n/a	n/a
2358984	REC_WORD	wordpools/wasnorm_wordpool_less_exclusions.txt	LTP286	ltpFR	6	13	0	TRIBE	1505	n/a	n/a	1	n/a	n/a	n/a	n/a	n/a
2360303	REC_WORD	wordpools/wasnorm_wordpool_less_exclusions.txt	LTP286	ltpFR	6	13	0	UNCLE	1536	n/a	n/a	1	n/a	n/a	n/a	n/a	n/a
2361509	REC_WORD	wordpools/wasnorm_wordpool_less_exclusions.txt	LTP286	ltpFR	6	13	0	ORCHESTRA	981	n/a	n/a	1	n/a	n/a	n/a	n/a	n/a
2362853	REC_WORD	wordpools/wasnorm_wordpool_less_exclusions.txt	LTP286	ltpFR	6	13	0	FIDDLE	561	n/a	n/a	0	n/a	n/a	n/a	n/a	n/a
2364151	REC_WORD	wordpools/wasnorm_wordpool_less_exclusions.txt	LTP286	ltpFR	6	13	0	SIDEWALK	1303	n/a	n/a	1	n/a	n/a	n/a	n/a	n/a
2365151	REC_WORD_VV	wordpools/wasnorm_wordpool_less_exclusions.txt	LTP286	ltpFR	6	13	n/a	<>	-1	n/a	n/a	n/a	n/a	n/a	n/a	n/a	n/a
2365567	REC_WORD	wordpools/wasnorm_wordpool_less_exclusions.txt	LTP286	ltpFR	6	13	0	PATH	1023	n/a	n/a	1	n/a	n/a	n/a	n/a	n/a
2393420	REC_WORD	wordpools/wasnorm_wordpool_less_exclusions.txt	LTP286	ltpFR	6	13	0	PENGUIN	1044	n/a	n/a	0	n/a	n/a	n/a	n/a	n/a
2413629	REC_WORD	wordpools/wasnorm_wordpool_less_exclusions.txt	LTP286	ltpFR	6	13	0	CAKE	219	n/a	n/a	1	n/a	n/a	n/a	n/a	n/a
2414492	REC_WORD	wordpools/wasnorm_wordpool_less_exclusions.txt	LTP286	ltpFR	6	13	0	SCALE	1241	n/a	n/a	0	n/a	n/a	n/a	n/a	n/a
2437360	WORD	wordpools/wasnorm_wordpool_less_exclusions.txt	LTP286	ltpFR	6	14	0	TART	1436	n/a	n/a	0	0.57763671875	0.412841796875	1	upper	zerothre.ttf
2441370	WORD	wordpools/wasnorm_wordpool_less_exclusions.txt	LTP286	ltpFR	6	14	0	SUGAR	1401	n/a	n/a	0	0.57763671875	0.412841796875	1	upper	zerothre.ttf
2445247	WORD	wordpools/wasnorm_wordpool_less_exclusions.txt	LTP286	ltpFR	6	14	0	ATOM	55	n/a	n/a	0	0.57763671875	0.412841796875	1	upper	zerothre.ttf
2449125	WORD	wordpools/wasnorm_wordpool_less_exclusions.txt	LTP286	ltpFR	6	14	1	JUDGE	761	n/a	n/a	1	0.422607421875	0.5869140625	0	lower	amplitud.ttf
2453102	WORD	wordpools/wasnorm_wordpool_less_exclusions.txt	LTP286	ltpFR	6	14	1	SCRIBBLE	1256	n/a	n/a	0	0.422607421875	0.5869140625	0	lower	amplitud.ttf
2457046	WORD	wordpools/wasnorm_wordpool_less_exclusions.txt	LTP286	ltpFR	6	14	1	TEMPLE	1448	n/a	n/a	0	0.422607421875	0.5869140625	0	lower	amplitud.ttf
2461023	WORD	wordpools/wasnorm_wordpool_less_exclusions.txt	LTP286	ltpFR	6	14	1	GODDESS	646	n/a	n/a	1	0.422607421875	0.5869140625	0	lower	amplitud.ttf
2465167	WORD	wordpools/wasnorm_wordpool_less_exclusions.txt	LTP286	ltpFR	6	14	0	MOSS	918	n/a	n/a	0	0.57763671875	0.412841796875	1	upper	zerothre.ttf
2469028	WORD	wordpools/wasnorm_wordpool_less_exclusions.txt	LTP286	ltpFR	6	14	0	UMPIRE	1535	n/a	n/a	1	0.57763671875	0.412841796875	1	upper	zerothre.ttf
2472956	WORD	wordpools/wasnorm_wordpool_less_exclusions.txt	LTP286	ltpFR	6	14	1	CARTON	251	n/a	n/a	0	0.422607421875	0.5869140625	0	lower	amplitud.ttf
2477000	WORD	wordpools/wasnorm_wordpool_less_exclusions.txt	LTP286	ltpFR	6	14	1	RECEIPT	1173	n/a	n/a	0	0.422607421875	0.5869140625	0	lower	amplitud.ttf
2481110	WORD	wordpools/wasnorm_wordpool_less_exclusions.txt	LTP286	ltpFR	6	14	1	CENT	270	n/a	n/a	0	0.422607421875	0.5869140625	0	lower	amplitud.ttf
2485304	WORD	wordpools/wasnorm_wordpool_less_exclusions.txt	LTP286	ltpFR	6	14	1	TWIG	1527	n/a	n/a	0	0.422607421875	0.5869140625	0	lower	amplitud.ttf
2489231	WORD	wordpools/wasnorm_wordpool_less_exclusions.txt	LTP286	ltpFR	6	14	0	VAGRANT	1544	n/a	n/a	1	0.57763671875	0.412841796875	1	upper	zerothre.ttf
2493242	WORD	wordpools/wasnorm_wordpool_less_exclusions.txt	LTP286	ltpFR	6	14	0	CEREAL	272	n/a	n/a	0	0.57763671875	0.412841796875	1	upper	zerothre.ttf
2497103	WORD	wordpools/wasnorm_wordpool_less_exclusions.txt	LTP286	ltpFR	6	14	0	WRITER	1627	n/a	n/a	1	0.57763671875	0.412841796875	1	upper	zerothre.ttf
2502978	REC_START	n/a	LTP286	ltpFR	6	14	n/a	n/a	n/a	n/a	n/a	n/a	n/a	n/a	n/a	n/a	n/a
2503771	REC_WORD_VV	wordpools/wasnorm_wordpool_less_exclusions.txt	LTP286	ltpFR	6	14	n/a	<>	-1	n/a	n/a	n/a	n/a	n/a	n/a	n/a	n/a
2505223	REC_WORD	wordpools/wasnorm_wordpool_less_exclusions.txt	LTP286	ltpFR	6	14	n/a	WAITER	1580	n/a	n/a	n/a	n/a	n/a	n/a	n/a	n/a
2506714	REC_WORD	wordpools/wasnorm_wordpool_less_exclusions.txt	LTP286	ltpFR	6	14	0	VAGRANT	1544	n/a	n/a	1	n/a	n/a	n/a	n/a	n/a
2542880	REC_WORD	wordpools/wasnorm_wordpool_less_exclusions.txt	LTP286	ltpFR	6	14	1	GODDESS	646	n/a	n/a	1	n/a	n/a	n/a	n/a	n/a
2545852	REC_WORD	wordpools/wasnorm_wordpool_less_exclusions.txt	LTP286	ltpFR	6	14	1	TEMPLE	1448	n/a	n/a	0	n/a	n/a	n/a	n/a	n/a
2546925	REC_WORD	wordpools/wasnorm_wordpool_less_exclusions.txt	LTP286	ltpFR	6	14	1	SCRIBBLE	1256	n/a	n/a	0	n/a	n/a	n/a	n/a	n/a
2586636	WORD	wordpools/wasnorm_wordpool_less_exclusions.txt	LTP286	ltpFR	6	15	-1	BLUEPRINT	142	n/a	n/a	-1	1.0	1.0	1	upper	Verdana.ttf
2590796	WORD	wordpools/wasnorm_wordpool_less_exclusions.txt	LTP286	ltpFR	6	15	-1	PANTHER	1009	n/a	n/a	-1	1.0	1.0	1	upper	Verdana.ttf
2594624	WORD	wordpools/wasnorm_wordpool_less_exclusions.txt	LTP286	ltpFR	6	15	-1	BISON	131	n/a	n/a	-1	1.0	1.0	1	upper	Verdana.ttf
2598568	WORD	wordpools/wasnorm_wordpool_less_exclusions.txt	LTP286	ltpFR	6	15	-1	PUDDLE	1140	n/a	n/a	-1	1.0	1.0	1	upper	Verdana.ttf
2602679	WORD	wordpools/wasnorm_wordpool_less_exclusions.txt	LTP286	ltpFR	6	15	-1	LAKE	796	n/a	n/a	-1	1.0	1.0	1	upper	Verdana.ttf
2606540	WORD	wordpools/wasnorm_wordpool_less_exclusions.txt	LTP286	ltpFR	6	15	-1	GIRAFFE	636	n/a	n/a	-1	1.0	1.0	1	upper	Verdana.ttf
2610468	WORD	wordpools/wasnorm_wordpool_less_exclusions.txt	LTP286	ltpFR	6	15	-1	ROOST	1208	n/a	n/a	-1	1.0	1.0	1	upper	Verdana.ttf
2614661	WORD	wordpools/wasnorm_wordpool_less_exclusions.txt	LTP286	ltpFR	6	15	-1	PUMPKIN	1142	n/a	n/a	-1	1.0	1.0	1	upper	Verdana.ttf
2618721	WORD	wordpools/wasnorm_wordpool_less_exclusions.txt	LTP286	ltpFR	6	15	-1	HOUSE	725	n/a	n/a	-1	1.0	1.0	1	upper	Verdana.ttf
2622715	WORD	wordpools/wasnorm_wordpool_less_exclusions.txt	LTP286	ltpFR	6	15	-1	FLIPPER	580	n/a	n/a	-1	1.0	1.0	1	upper	Verdana.ttf
2626893	WORD	wordpools/wasnorm_wordpool_less_exclusions.txt	LTP286	ltpFR	6	15	-1	PRIEST	1122	n/a	n/a	-1	1.0	1.0	1	upper	Verdana.ttf
2630920	WORD	wordpools/wasnorm_wordpool_less_exclusions.txt	LTP286	ltpFR	6	15	-1	MAP	865	n/a	n/a	-1	1.0	1.0	1	upper	Verdana.ttf
2634864	WORD	wordpools/wasnorm_wordpool_less_exclusions.txt	LTP286	ltpFR	6	15	-1	ORANGE	980	n/a	n/a	-1	1.0	1.0	1	upper	Verdana.ttf
2638791	WORD	wordpools/wasnorm_wordpool_less_exclusions.txt	LTP286	ltpFR	6	15	-1	ERASER	538	n/a	n/a	-1	1.0	1.0	1	upper	Verdana.ttf
2642885	WORD	wordpools/wasnorm_wordpool_less_exclusions.txt	LTP286	ltpFR	6	15	-1	BEAVER	109	n/a	n/a	-1	1.0	1.0	1	upper	Verdana.ttf
2646979	WORD	wordpools/wasnorm_wordpool_less_exclusions.txt	LTP286	ltpFR	6	15	-1	MAMMAL	861	n/a	n/a	-1	1.0	1.0	1	upper	Verdana.ttf
2652638	REC_START	n/a	LTP286	ltpFR	6	15	n/a	n/a	n/a	n/a	n/a	n/a	n/a	n/a	n/a	n/a	n/a
2653839	REC_WORD	wordpools/wasnorm_wordpool_less_exclusions.txt	LTP286	ltpFR	6	15	-1	BEAVER	109	n/a	n/a	-1	n/a	n/a	n/a	n/a	n/a
2655057	REC_WORD	wordpools/wasnorm_wordpool_less_exclusions.txt	LTP286	ltpFR	6	15	-1	MAMMAL	861	n/a	n/a	-1	n/a	n/a	n/a	n/a	n/a
2656391	REC_WORD	wordpools/wasnorm_wordpool_less_exclusions.txt	LTP286	ltpFR	6	15	-1	ROOST	1208	n/a	n/a	-1	n/a	n/a	n/a	n/a	n/a
2658765	REC_WORD	wordpools/wasnorm_wordpool_less_exclusions.txt	LTP286	ltpFR	6	15	-1	HOUSE	725	n/a	n/a	-1	n/a	n/a	n/a	n/a	n/a
2661642	REC_WORD	wordpools/wasnorm_wordpool_less_exclusions.txt	LTP286	ltpFR	6	15	-1	BISON	131	n/a	n/a	-1	n/a	n/a	n/a	n/a	n/a
2670934	REC_WORD	wordpools/wasnorm_wordpool_less_exclusions.txt	LTP286	ltpFR	6	15	-1	PRIEST	1122	n/a	n/a	-1	n/a	n/a	n/a	n/a	n/a
2693000	REC_WORD	wordpools/wasnorm_wordpool_less_exclusions.txt	LTP286	ltpFR	6	15	-1	BLUEPRINT	142	n/a	n/a	-1	n/a	n/a	n/a	n/a	n/a
2694493	REC_WORD	wordpools/wasnorm_wordpool_less_exclusions.txt	LTP286	ltpFR	6	15	n/a	JAGUAR	-1	n/a	n/a	n/a	n/a	n/a	n/a	n/a	n/a
2698078	REC_WORD	wordpools/wasnorm_wordpool_less_exclusions.txt	LTP286	ltpFR	6	15	-1	PANTHER	1009	n/a	n/a	-1	n/a	n/a	n/a	n/a	n/a
2734149	WORD	wordpools/wasnorm_wordpool_less_exclusions.txt	LTP286	ltpFR	6	16	1	LID	817	n/a	n/a	0	0.422607421875	0.5869140625	0	lower	amplitud.ttf
2738243	WORD	wordpools/wasnorm_wordpool_less_exclusions.txt	LTP286	ltpFR	6	16	1	CAT	257	n/a	n/a	1	0.422607421875	0.5869140625	0	lower	amplitud.ttf
2742404	WORD	wordpools/wasnorm_wordpool_less_exclusions.txt	LTP286	ltpFR	6	16	0	AUTHOR	61	n/a	n/a	1	0.57763671875	0.412841796875	1	upper	zerothre.ttf
2746465	WORD	wordpools/wasnorm_wordpool_less_exclusions.txt	LTP286	ltpFR	6	16	0	DESIGNER	451	n/a	n/a	1	0.57763671875	0.412841796875	1	upper	zerothre.ttf
2750508	WORD	wordpools/wasnorm_wordpool_less_exclusions.txt	LTP286	ltpFR	6	16	0	CLOSET	326	n/a	n/a	1	0.57763671875	0.412841796875	1	upper	zerothre.ttf
2754403	WORD	wordpools/wasnorm_wordpool_less_exclusions.txt	LTP286	ltpFR	6	16	0	BANKER	84	n/a	n/a	1	0.57763671875	0.412841796875	1	upper	zerothre.ttf
2758230	WORD	wordpools/wasnorm_wordpool_less_exclusions.txt	LTP286	ltpFR	6	16	1	SKI	1316	n/a	n/a	0	0.422607421875	0.5869140625	0	lower	amplitud.ttf
2762358	WORD	wordpools/wasnorm_wordpool_less_exclusions.txt	LTP286	ltpFR	6	16	1	KEY	773	n/a	n/a	0	0.422607421875	0.5869140625	0	lower	amplitud.ttf
2766385	WORD	wordpools/wasnorm_wordpool_less_exclusions.txt	LTP286	ltpFR	6	16	1	CHAIN	273	n/a	n/a	0	0.422607421875	0.5869140625	0	lower	amplitud.ttf
2770295	WORD	wordpools/wasnorm_wordpool_less_exclusions.txt	LTP286	ltpFR	6	16	1	FIG	563	n/a	n/a	0	0.422607421875	0.5869140625	0	lower	amplitud.ttf
2774139	WORD	wordpools/wasnorm_wordpool_less_exclusions.txt	LTP286	ltpFR	6	16	1	DIVER	476	n/a	n/a	1	0.422607421875	0.5869140625	0	lower	amplitud.ttf
2778217	WORD	wordpools/wasnorm_wordpool_less_exclusions.txt	LTP286	ltpFR	6	16	1	SLOPE	1328	n/a	n/a	0	0.422607421875	0.5869140625	0	lower	amplitud.ttf
2782310	WORD	wordpools/wasnorm_wordpool_less_exclusions.txt	LTP286	ltpFR	6	16	0	PUBLICATION	1136	n/a	n/a	1	0.57763671875	0.412841796875	1	upper	zerothre.ttf
2786521	WORD	wordpools/wasnorm_wordpool_less_exclusions.txt	LTP286	ltpFR	6	16	0	RAZOR	1171	n/a	n/a	0	0.57763671875	0.412841796875	1	upper	zerothre.ttf
2790581	WORD	wordpools/wasnorm_wordpool_less_exclusions.txt	LTP286	ltpFR	6	16	0	UTENSIL	1542	n/a	n/a	0	0.57763671875	0.412841796875	1	upper	zerothre.ttf
2794509	WORD	wordpools/wasnorm_wordpool_less_exclusions.txt	LTP286	ltpFR	6	16	0	BEAKER	104	n/a	n/a	1	0.57763671875	0.412841796875	1	upper	zerothre.ttf
2800267	REC_START	n/a	LTP286	ltpFR	6	16	n/a	n/a	n/a	n/a	n/a	n/a	n/a	n/a	n/a	n/a	n/a
2801104	REC_WORD	wordpools/wasnorm_wordpool_less_exclusions.txt	LTP286	ltpFR	6	16	0	UTENSIL	1542	n/a	n/a	0	n/a	n/a	n/a	n/a	n/a
2802104	REC_WORD_VV	wordpools/wasnorm_wordpool_less_exclusions.txt	LTP286	ltpFR	6	16	n/a	<>	-1	n/a	n/a	n/a	n/a	n/a	n/a	n/a	n/a
2802458	REC_WORD	wordpools/wasnorm_wordpool_less_exclusions.txt	LTP286	ltpFR	6	16	0	RAZOR	1171	n/a	n/a	0	n/a	n/a	n/a	n/a	n/a
2803991	REC_WORD	wordpools/wasnorm_wordpool_less_exclusions.txt	LTP286	ltpFR	6	16	0	BEAKER	104	n/a	n/a	1	n/a	n/a	n/a	n/a	n/a
2807994	REC_WORD	wordpools/wasnorm_wordpool_less_exclusions.txt	LTP286	ltpFR	6	16	1	LID	817	n/a	n/a	0	n/a	n/a	n/a	n/a	n/a
2816464	REC_WORD	wordpools/wasnorm_wordpool_less_exclusions.txt	LTP286	ltpFR	6	16	0	CLOSET	326	n/a	n/a	1	n/a	n/a	n/a	n/a	n/a
2838996	REC_WORD	wordpools/wasnorm_wordpool_less_exclusions.txt	LTP286	ltpFR	6	16	0	AUTHOR	61	n/a	n/a	1	n/a	n/a	n/a	n/a	n/a
2893828	REC_START	n/a	LTP286	ltpFR	6	n/a	n/a	n/a	n/a	n/a	n/a	n/a	n/a	n/a	n/a	n/a	n/a
2894446	FFR_REC_WORD	wordpools/wasnorm_wordpool_less_exclusions.txt	LTP286	ltpFR	6	n/a	-1	SOFTBALL	1343	n/a	n/a	-1	n/a	n/a	n/a	n/a	n/a
2895893	FFR_REC_WORD	wordpools/wasnorm_wordpool_less_exclusions.txt	LTP286	ltpFR	6	n/a	n/a	BASEBALL	93	n/a	n/a	n/a	n/a	n/a	n/a	n/a	n/a
2897080	FFR_REC_WORD	wordpools/wasnorm_wordpool_less_exclusions.txt	LTP286	ltpFR	6	n/a	-1	ARENA	37	n/a	n/a	-1	n/a	n/a	n/a	n/a	n/a
2899051	FFR_REC_WORD	wordpools/wasnorm_wordpool_less_exclusions.txt	LTP286	ltpFR	6	n/a	0	WATERFALL	1595	n/a	n/a	0	n/a	n/a	n/a	n/a	n/a
2900223	FFR_REC_WORD	wordpools/wasnorm_wordpool_less_exclusions.txt	LTP286	ltpFR	6	n/a	0	LAGOON	795	n/a	n/a	1	n/a	n/a	n/a	n/a	n/a
2901570	FFR_REC_WORD	wordpools/wasnorm_wordpool_less_exclusions.txt	LTP286	ltpFR	6	n/a	-1	BAY	102	n/a	n/a	-1	n/a	n/a	n/a	n/a	n/a
2902653	FFR_REC_WORD	wordpools/wasnorm_wordpool_less_exclusions.txt	LTP286	ltpFR	6	n/a	0	OCEAN	970	n/a	n/a	1	n/a	n/a	n/a	n/a	n/a
2903935	FFR_REC_WORD	wordpools/wasnorm_wordpool_less_exclusions.txt	LTP286	ltpFR	6	n/a	-1	YACHT	1629	n/a	n/a	-1	n/a	n/a	n/a	n/a	n/a
2905177	FFR_REC_WORD	wordpools/wasnorm_wordpool_less_exclusions.txt	LTP286	ltpFR	6	n/a	1	BOAT	144	n/a	n/a	0	n/a	n/a	n/a	n/a	n/a
2906459	FFR_REC_WORD	wordpools/wasnorm_wordpool_less_exclusions.txt	LTP286	ltpFR	6	n/a	-1	PORTRAIT	1111	n/a	n/a	-1	n/a	n/a	n/a	n/a	n/a
2907571	FFR_REC_WORD	wordpools/wasnorm_wordpool_less_exclusions.txt	LTP286	ltpFR	6	n/a	-1	ORCHID	982	n/a	n/a	-1	n/a	n/a	n/a	n/a	n/a
2908564	FFR_REC_WORD	wordpools/wasnorm_wordpool_less_exclusions.txt	LTP286	ltpFR	6	n/a	-1	FAUCET	555	n/a	n/a	-1	n/a	n/a	n/a	n/a	n/a
2914067	FFR_REC_WORD	wordpools/wasnorm_wordpool_less_exclusions.txt	LTP286	ltpFR	6	n/a	-1	DOCK	477	n/a	n/a	-1	n/a	n/a	n/a	n/a	n/a
2915324	FFR_REC_WORD	wordpools/wasnorm_wordpool_less_exclusions.txt	LTP286	ltpFR	6	n/a	-1	DUCK	504	n/a	n/a	-1	n/a	n/a	n/a	n/a	n/a
2918038	FFR_REC_WORD	wordpools/wasnorm_wordpool_less_exclusions.txt	LTP286	ltpFR	6	n/a	-1	GOOSE	649	n/a	n/a	-1	n/a	n/a	n/a	n/a	n/a
2919784	FFR_REC_WORD	wordpools/wasnorm_wordpool_less_exclusions.txt	LTP286	ltpFR	6	n/a	1	MOOSE	915	n/a	n/a	1	n/a	n/a	n/a	n/a	n/a
2921779	FFR_REC_WORD	wordpools/wasnorm_wordpool_less_exclusions.txt	LTP286	ltpFR	6	n/a	-1	BISON	131	n/a	n/a	-1	n/a	n/a	n/a	n/a	n/a
2924628	FFR_REC_WORD	wordpools/wasnorm_wordpool_less_exclusions.txt	LTP286	ltpFR	6	n/a	1	FLY	586	n/a	n/a	1	n/a	n/a	n/a	n/a	n/a
2928614	FFR_REC_WORD	wordpools/wasnorm_wordpool_less_exclusions.txt	LTP286	ltpFR	6	n/a	-1	HIKER	708	n/a	n/a	-1	n/a	n/a	n/a	n/a	n/a
2931467	FFR_REC_WORD	wordpools/wasnorm_wordpool_less_exclusions.txt	LTP286	ltpFR	6	n/a	1	GOVERNOR	651	n/a	n/a	1	n/a	n/a	n/a	n/a	n/a
2932994	FFR_REC_WORD	wordpools/wasnorm_wordpool_less_exclusions.txt	LTP286	ltpFR	6	n/a	0	BAKER	71	n/a	n/a	0	n/a	n/a	n/a	n/a	n/a
2934176	FFR_REC_WORD	wordpools/wasnorm_wordpool_less_exclusions.txt	LTP286	ltpFR	6	n/a	0	CASHIER	254	n/a	n/a	1	n/a	n/a	n/a	n/a	n/a
2935573	FFR_REC_WORD	wordpools/wasnorm_wordpool_less_exclusions.txt	LTP286	ltpFR	6	n/a	0	REGISTER	1180	n/a	n/a	1	n/a	n/a	n/a	n/a	n/a
2937060	FFR_REC_WORD	wordpools/wasnorm_wordpool_less_exclusions.txt	LTP286	ltpFR	6	n/a	0	MOTHER	921	n/a	n/a	1	n/a	n/a	n/a	n/a	n/a
2938062	FFR_REC_WORD	wordpools/wasnorm_wordpool_less_exclusions.txt	LTP286	ltpFR	6	n/a	0	DAUGHTER	442	n/a	n/a	1	n/a	n/a	n/a	n/a	n/a
2939170	FFR_REC_WORD	wordpools/wasnorm_wordpool_less_exclusions.txt	LTP286	ltpFR	6	n/a	0	CRITIC	410	n/a	n/a	1	n/a	n/a	n/a	n/a	n/a
2943615	FFR_REC_WORD	wordpools/wasnorm_wordpool_less_exclusions.txt	LTP286	ltpFR	6	n/a	-1	KLEENEX	782	n/a	n/a	-1	n/a	n/a	n/a	n/a	n/a
2944857	FFR_REC_WORD	wordpools/wasnorm_wordpool_less_exclusions.txt	LTP286	ltpFR	6	n/a	-1	BRANDY	169	n/a	n/a	-1	n/a	n/a	n/a	n/a	n/a
2946772	FFR_REC_WORD	wordpools/wasnorm_wordpool_less_exclusions.txt	LTP286	ltpFR	6	n/a	1	TEAPOT	1442	n/a	n/a	0	n/a	n/a	n/a	n/a	n/a
2951202	FFR_REC_WORD	wordpools/wasnorm_wordpool_less_exclusions.txt	LTP286	ltpFR	6	n/a	1	LID	817	n/a	n/a	0	n/a	n/a	n/a	n/a	n/a
2952150	FFR_REC_WORD	wordpools/wasnorm_wordpool_less_exclusions.txt	LTP286	ltpFR	6	n/a	1	CONTAINER	366	n/a	n/a	0	n/a	n/a	n/a	n/a	n/a
2960012	FFR_REC_WORD	wordpools/wasnorm_wordpool_less_exclusions.txt	LTP286	ltpFR	6	n/a	0	WALL	1582	n/a	n/a	1	n/a	n/a	n/a	n/a	n/a
2966368	FFR_REC_WORD	wordpools/wasnorm_wordpool_less_exclusions.txt	LTP286	ltpFR	6	n/a	1	PLAID	1080	n/a	n/a	0	n/a	n/a	n/a	n/a	n/a
2967440	FFR_REC_WORD	wordpools/wasnorm_wordpool_less_exclusions.txt	LTP286	ltpFR	6	n/a	1	POLYESTER	1100	n/a	n/a	0	n/a	n/a	n/a	n/a	n/a
2968440	FFR_REC_WORD_VV	wordpools/wasnorm_wordpool_less_exclusions.txt	LTP286	ltpFR	6	n/a	n/a	<>	-1	n/a	n/a	n/a	n/a	n/a	n/a	n/a	n/a
2968952	FFR_REC_WORD	wordpools/wasnorm_wordpool_less_exclusions.txt	LTP286	ltpFR	6	n/a	1	MARINE	869	n/a	n/a	1	n/a	n/a	n/a	n/a	n/a
2970823	FFR_REC_WORD	wordpools/wasnorm_wordpool_less_exclusions.txt	LTP286	ltpFR	6	n/a	1	CUSTOMER	430	n/a	n/a	1	n/a	n/a	n/a	n/a	n/a
2972823	FFR_REC_WORD	wordpools/wasnorm_wordpool_less_exclusions.txt	LTP286	ltpFR	6	n/a	1	DISC	473	n/a	n/a	0	n/a	n/a	n/a	n/a	n/a
2976021	FFR_REC_WORD	wordpools/wasnorm_wordpool_less_exclusions.txt	LTP286	ltpFR	6	n/a	1	UNICORN	1538	n/a	n/a	1	n/a	n/a	n/a	n/a	n/a
2980506	FFR_REC_WORD	wordpools/wasnorm_wordpool_less_exclusions.txt	LTP286	ltpFR	6	n/a	-1	PRIEST	1122	n/a	n/a	-1	n/a	n/a	n/a	n/a	n/a
2982875	FFR_REC_WORD	wordpools/wasnorm_wordpool_less_exclusions.txt	LTP286	ltpFR	6	n/a	0	POPE	1105	n/a	n/a	1	n/a	n/a	n/a	n/a	n/a
2989825	FFR_REC_WORD	wordpools/wasnorm_wordpool_less_exclusions.txt	LTP286	ltpFR	6	n/a	-1	CARAVAN	242	n/a	n/a	-1	n/a	n/a	n/a	n/a	n/a
2991067	FFR_REC_WORD	wordpools/wasnorm_wordpool_less_exclusions.txt	LTP286	ltpFR	6	n/a	-1	AUTOMOBILE	62	n/a	n/a	-1	n/a	n/a	n/a	n/a	n/a
2995337	FFR_REC_WORD	wordpools/wasnorm_wordpool_less_exclusions.txt	LTP286	ltpFR	6	n/a	1	KEYBOARD	774	n/a	n/a	0	n/a	n/a	n/a	n/a	n/a
2998385	FFR_REC_WORD	wordpools/wasnorm_wordpool_less_exclusions.txt	LTP286	ltpFR	6	n/a	-1	WASHCLOTH	1591	n/a	n/a	-1	n/a	n/a	n/a	n/a	n/a
2999627	FFR_REC_WORD	wordpools/wasnorm_wordpool_less_exclusions.txt	LTP286	ltpFR	6	n/a	0	BATHTUB	100	n/a	n/a	1	n/a	n/a	n/a	n/a	n/a
3000830	FFR_REC_WORD	wordpools/wasnorm_wordpool_less_exclusions.txt	LTP286	ltpFR	6	n/a	0	PENGUIN	1044	n/a	n/a	0	n/a	n/a	n/a	n/a	n/a
3011725	FFR_REC_WORD	wordpools/wasnorm_wordpool_less_exclusions.txt	LTP286	ltpFR	6	n/a	1	FIG	563	n/a	n/a	0	n/a	n/a	n/a	n/a	n/a
3013371	FFR_REC_WORD	wordpools/wasnorm_wordpool_less_exclusions.txt	LTP286	ltpFR	6	n/a	1	BELLY	119	n/a	n/a	1	n/a	n/a	n/a	n/a	n/a
3015057	FFR_REC_WORD	wordpools/wasnorm_wordpool_less_exclusions.txt	LTP286	ltpFR	6	n/a	1	ARTERY	41	n/a	n/a	1	n/a	n/a	n/a	n/a	n/a
3019323	FFR_REC_WORD	wordpools/wasnorm_wordpool_less_exclusions.txt	LTP286	ltpFR	6	n/a	1	KIDNEY	776	n/a	n/a	1	n/a	n/a	n/a	n/a	n/a
3023009	FFR_REC_WORD	wordpools/wasnorm_wordpool_less_exclusions.txt	LTP286	ltpFR	6	n/a	0	CELERY	266	n/a	n/a	0	n/a	n/a	n/a	n/a	n/a
3026122	FFR_REC_WORD	wordpools/wasnorm_wordpool_less_exclusions.txt	LTP286	ltpFR	6	n/a	-1	BISCUIT	130	n/a	n/a	-1	n/a	n/a	n/a	n/a	n/a
3028377	FFR_REC_WORD	wordpools/wasnorm_wordpool_less_exclusions.txt	LTP286	ltpFR	6	n/a	-1	PEANUT	1032	n/a	n/a	-1	n/a	n/a	n/a	n/a	n/a
3033924	FFR_REC_WORD	wordpools/wasnorm_wordpool_less_exclusions.txt	LTP286	ltpFR	6	n/a	0	PIE	1062	n/a	n/a	0	n/a	n/a	n/a	n/a	n/a
3040809	FFR_REC_WORD	wordpools/wasnorm_wordpool_less_exclusions.txt	LTP286	ltpFR	6	n/a	1	LAMB	797	n/a	n/a	1	n/a	n/a	n/a	n/a	n/a
3041796	FFR_REC_WORD	wordpools/wasnorm_wordpool_less_exclusions.txt	LTP286	ltpFR	6	n/a	1	FUGITIVE	612	n/a	n/a	1	n/a	n/a	n/a	n/a	n/a
3042796	FFR_REC_WORD_VV	wordpools/wasnorm_wordpool_less_exclusions.txt	LTP286	ltpFR	6	n/a	n/a	<>	-1	n/a	n/a	n/a	n/a	n/a	n/a	n/a	n/a
3044056	FFR_REC_WORD	wordpools/wasnorm_wordpool_less_exclusions.txt	LTP286	ltpFR	6	n/a	0	VAGRANT	1544	n/a	n/a	1	n/a	n/a	n/a	n/a	n/a
3054832	FFR_REC_WORD	wordpools/wasnorm_wordpool_less_exclusions.txt	LTP286	ltpFR	6	n/a	1	SKI	1316	n/a	n/a	0	n/a	n/a	n/a	n/a	n/a
3056244	FFR_REC_WORD	wordpools/wasnorm_wordpool_less_exclusions.txt	LTP286	ltpFR	6	n/a	1	KEY	773	n/a	n/a	0	n/a	n/a	n/a	n/a	n/a
3062295	FFR_REC_WORD	wordpools/wasnorm_wordpool_less_exclusions.txt	LTP286	ltpFR	6	n/a	-1	ORANGE	980	n/a	n/a	-1	n/a	n/a	n/a	n/a	n/a
3063367	FFR_REC_WORD	wordpools/wasnorm_wordpool_less_exclusions.txt	LTP286	ltpFR	6	n/a	-1	MAP	865	n/a	n/a	-1	n/a	n/a	n/a	n/a	n/a
3084390	FFR_REC_WORD	wordpools/wasnorm_wordpool_less_exclusions.txt	LTP286	ltpFR	6	n/a	0	UNCLE	1536	n/a	n/a	1	n/a	n/a	n/a	n/a	n/a
3085417	FFR_REC_WORD	wordpools/wasnorm_wordpool_less_exclusions.txt	LTP286	ltpFR	6	n/a	0	FAMILY	550	n/a	n/a	1	n/a	n/a	n/a	n/a	n/a
3086635	FFR_REC_WORD	wordpools/wasnorm_wordpool_less_exclusions.txt	LTP286	ltpFR	6	n/a	0	TRIBE	1505	n/a	n/a	1	n/a	n/a	n/a	n/a	n/a
3100593	FFR_REC_WORD	wordpools/wasnorm_wordpool_less_exclusions.txt	LTP286	ltpFR	6	n/a	1	COMPASS	358	n/a	n/a	0	n/a	n/a	n/a	n/a	n/a
3104529	FFR_REC_WORD	wordpools/wasnorm_wordpool_less_exclusions.txt	LTP286	ltpFR	6	n/a	0	ORCHESTRA	981	n/a	n/a	1	n/a	n/a	n/a	n/a	n/a
3105612	FFR_REC_WORD	wordpools/wasnorm_wordpool_less_exclusions.txt	LTP286	ltpFR	6	n/a	0	CELLO	268	n/a	n/a	1	n/a	n/a	n/a	n/a	n/a
3106397	FFR_REC_WORD	wordpools/wasnorm_wordpool_less_exclusions.txt	LTP286	ltpFR	6	n/a	0	FIDDLE	561	n/a	n/a	0	n/a	n/a	n/a	n/a	n/a
3107792	FFR_REC_WORD	wordpools/wasnorm_wordpool_less_exclusions.txt	LTP286	ltpFR	6	n/a	0	REFRIGERATOR	1179	n/a	n/a	1	n/a	n/a	n/a	n/a	n/a
3108792	FFR_REC_WORD_VV	wordpools/wasnorm_wordpool_less_exclusions.txt	LTP286	ltpFR	6	n/a	n/a	<>	-1	n/a	n/a	n/a	n/a	n/a	n/a	n/a	n/a
3121296	FFR_REC_WORD	wordpools/wasnorm_wordpool_less_exclusions.txt	LTP286	ltpFR	6	n/a	0	LIMB	822	n/a	n/a	0	n/a	n/a	n/a	n/a	n/a
3123541	FFR_REC_WORD	wordpools/wasnorm_wordpool_less_exclusions.txt	LTP286	ltpFR	6	n/a	1	TWIG	1527	n/a	n/a	0	n/a	n/a	n/a	n/a	n/a
3151767	FFR_REC_WORD	wordpools/wasnorm_wordpool_less_exclusions.txt	LTP286	ltpFR	6	n/a	0	NOTEBOOK	959	n/a	n/a	0	n/a	n/a	n/a	n/a	n/a
3152896	FFR_REC_WORD	wordpools/wasnorm_wordpool_less_exclusions.txt	LTP286	ltpFR	6	n/a	0	JOURNAL	760	n/a	n/a	0	n/a	n/a	n/a	n/a	n/a
3153892	FFR_REC_WORD	wordpools/wasnorm_wordpool_less_exclusions.txt	LTP286	ltpFR	6	n/a	0	RECIPE	1175	n/a	n/a	0	n/a	n/a	n/a	n/a	n/a
3154979	FFR_REC_WORD	wordpools/wasnorm_wordpool_less_exclusions.txt	LTP286	ltpFR	6	n/a	0	STUDENT	1395	n/a	n/a	1	n/a	n/a	n/a	n/a	n/a
3156396	FFR_REC_WORD	wordpools/wasnorm_wordpool_less_exclusions.txt	LTP286	ltpFR	6	n/a	0	GRADUATE	653	n/a	n/a	1	n/a	n/a	n/a	n/a	n/a
3163345	FFR_REC_WORD	wordpools/wasnorm_wordpool_less_exclusions.txt	LTP286	ltpFR	6	n/a	0	ALBUM	14	n/a	n/a	0	n/a	n/a	n/a	n/a	n/a
3164398	FFR_REC_WORD	wordpools/wasnorm_wordpool_less_exclusions.txt	LTP286	ltpFR	6	n/a	0	DRAWING	494	n/a	n/a	0	n/a	n/a	n/a	n/a	n/a
3191087	FFR_REC_WORD	wordpools/wasnorm_wordpool_less_exclusions.txt	LTP286	ltpFR	6	n/a	1	KIWI	781	n/a	n/a	1	n/a	n/a	n/a	n/a	n/a
3701855	REC_START	n/a	LTP286	ltpFR	6	1	n/a	n/a	n/a	n/a	n/a	n/a	n/a	n/a	n/a	n/a	n/a
3701887	RECOG_TARGET	n/a	LTP286	ltpFR	6	1	1	CUSTOMER	430	1	4	1	n/a	n/a	n/a	n/a	n/a
3703310	RECOG_RESP	n/a	LTP286	ltpFR	6	1	1	CUSTOMER	430	1	n/a	1	n/a	n/a	n/a	n/a	n/a
3704661	RECOG_CONF	n/a	LTP286	ltpFR	6	1	1	CUSTOMER	430	n/a	4	1	n/a	n/a	n/a	n/a	n/a
3706697	RECOG_TARGET	n/a	LTP286	ltpFR	6	1	0	ORCHESTRA	981	1	4	1	n/a	n/a	n/a	n/a	n/a
3707300	RECOG_RESP	n/a	LTP286	ltpFR	6	1	0	ORCHESTRA	981	1	n/a	1	n/a	n/a	n/a	n/a	n/a
3708279	RECOG_CONF	n/a	LTP286	ltpFR	6	1	0	ORCHESTRA	981	n/a	4	1	n/a	n/a	n/a	n/a	n/a
3710125	RECOG_TARGET	n/a	LTP286	ltpFR	6	1	-1	GARAGE	621	1	4	-1	n/a	n/a	n/a	n/a	n/a
3710775	RECOG_RESP	n/a	LTP286	ltpFR	6	1	-1	GARAGE	621	1	n/a	-1	n/a	n/a	n/a	n/a	n/a
3711655	RECOG_CONF	n/a	LTP286	ltpFR	6	1	-1	GARAGE	621	n/a	4	-1	n/a	n/a	n/a	n/a	n/a
3713471	RECOG_TARGET	n/a	LTP286	ltpFR	6	1	0	LAGOON	795	1	4	1	n/a	n/a	n/a	n/a	n/a
3714115	RECOG_RESP	n/a	LTP286	ltpFR	6	1	0	LAGOON	795	1	n/a	1	n/a	n/a	n/a	n/a	n/a
3714915	RECOG_CONF	n/a	LTP286	ltpFR	6	1	0	LAGOON	795	n/a	4	1	n/a	n/a	n/a	n/a	n/a
3716815	RECOG_LURE	n/a	LTP286	ltpFR	6	1	n/a	SKIRT	1319	0	2	n/a	n/a	n/a	n/a	n/a	n/a
3717675	RECOG_RESP	n/a	LTP286	ltpFR	6	1	n/a	SKIRT	1319	0	n/a	n/a	n/a	n/a	n/a	n/a	n/a
3718635	RECOG_CONF	n/a	LTP286	ltpFR	6	1	n/a	SKIRT	1319	n/a	2	n/a	n/a	n/a	n/a	n/a	n/a
3720444	RECOG_TARGET	n/a	LTP286	ltpFR	6	1	-1	GOOSE	649	1	3	-1	n/a	n/a	n/a	n/a	n/a
3721100	RECOG_RESP	n/a	LTP286	ltpFR	6	1	-1	GOOSE	649	1	n/a	-1	n/a	n/a	n/a	n/a	n/a
3721955	RECOG_CONF	n/a	LTP286	ltpFR	6	1	-1	GOOSE	649	n/a	3	-1	n/a	n/a	n/a	n/a	n/a
3723755	RECOG_TARGET	n/a	LTP286	ltpFR	6	1	0	BOOTH	151	1	4	1	n/a	n/a	n/a	n/a	n/a
3724400	RECOG_RESP	n/a	LTP286	ltpFR	6	1	0	BOOTH	151	1	n/a	1	n/a	n/a	n/a	n/a	n/a
3725165	RECOG_CONF	n/a	LTP286	ltpFR	6	1	0	BOOTH	151	n/a	4	1	n/a	n/a	n/a	n/a	n/a
3727033	RECOG_LURE	n/a	LTP286	ltpFR	6	1	n/a	LETTER	813	0	3	n/a	n/a	n/a	n/a	n/a	n/a
3727755	RECOG_RESP	n/a	LTP286	ltpFR	6	1	n/a	LETTER	813	0	n/a	n/a	n/a	n/a	n/a	n/a	n/a
3728605	RECOG_CONF	n/a	LTP286	ltpFR	6	1	n/a	LETTER	813	n/a	3	n/a	n/a	n/a	n/a	n/a	n/a
3730379	RECOG_TARGET	n/a	LTP286	ltpFR	6	1	-1	MERMAID	887	1	4	-1	n/a	n/a	n/a	n/a	n/a
3731105	RECOG_RESP	n/a	LTP286	ltpFR	6	1	-1	MERMAID	887	1	n/a	-1	n/a	n/a	n/a	n/a	n/a
3731695	RECOG_CONF	n/a	LTP286	ltpFR	6	1	-1	MERMAID	887	n/a	4	-1	n/a	n/a	n/a	n/a	n/a
3733441	RECOG_TARGET	n/a	LTP286	ltpFR	6	1	0	ELEPHANT	523	1	4	1	n/a	n/a	n/a	n/a	n/a
3734210	RECOG_RESP	n/a	LTP286	ltpFR	6	1	0	ELEPHANT	523	1	n/a	1	n/a	n/a	n/a	n/a	n/a
3734923	RECOG_CONF	n/a	LTP286	ltpFR	6	1	0	ELEPHANT	523	n/a	4	1	n/a	n/a	n/a	n/a	n/a
3736502	RECOG_LURE	n/a	LTP286	ltpFR	6	1	n/a	TACK	1428	0	4	n/a	n/a	n/a	n/a	n/a	n/a
3737230	RECOG_RESP	n/a	LTP286	ltpFR	6	1	n/a	TACK	1428	0	n/a	n/a	n/a	n/a	n/a	n/a	n/a
3737835	RECOG_CONF	n/a	LTP286	ltpFR	6	1	n/a	TACK	1428	n/a	4	n/a	n/a	n/a	n/a	n/a	n/a
3739564	RECOG_TARGET	n/a	LTP286	ltpFR	6	1	-1	OVEN	991	0	1	-1	n/a	n/a	n/a	n/a	n/a
3741170	RECOG_RESP	n/a	LTP286	ltpFR	6	1	-1	OVEN	991	0	n/a	-1	n/a	n/a	n/a	n/a	n/a
3742005	RECOG_CONF	n/a	LTP286	ltpFR	6	1	-1	OVEN	991	n/a	1	-1	n/a	n/a	n/a	n/a	n/a
3743775	RECOG_TARGET	n/a	LTP286	ltpFR	6	1	0	BALCONY	72	1	3	1	n/a	n/a	n/a	n/a	n/a
3744510	RECOG_RESP	n/a	LTP286	ltpFR	6	1	0	BALCONY	72	1	n/a	1	n/a	n/a	n/a	n/a	n/a
3745345	RECOG_CONF	n/a	LTP286	ltpFR	6	1	0	BALCONY	72	n/a	3	1	n/a	n/a	n/a	n/a	n/a
3747053	RECOG_TARGET	n/a	LTP286	ltpFR	6	1	1	MEADOW	881	1	3	0	n/a	n/a	n/a	n/a	n/a
3747705	RECOG_RESP	n/a	LTP286	ltpFR	6	1	1	MEADOW	881	1	n/a	0	n/a	n/a	n/a	n/a	n/a
3748475	RECOG_CONF	n/a	LTP286	ltpFR	6	1	1	MEADOW	881	n/a	3	0	n/a	n/a	n/a	n/a	n/a
3750199	RECOG_TARGET	n/a	LTP286	ltpFR	6	1	1	UNICORN	1538	1	5	1	n/a	n/a	n/a	n/a	n/a
3750780	RECOG_RESP	n/a	LTP286	ltpFR	6	1	1	UNICORN	1538	1	n/a	1	n/a	n/a	n/a	n/a	n/a
3751395	RECOG_CONF	n/a	LTP286	ltpFR	6	1	1	UNICORN	1538	n/a	5	1	n/a	n/a	n/a	n/a	n/a
3753227	RECOG_LURE	n/a	LTP286	ltpFR	6	1	n/a	MOUSE	925	0	3	n/a	n/a	n/a	n/a	n/a	n/a
3753970	RECOG_RESP	n/a	LTP286	ltpFR	6	1	n/a	MOUSE	925	0	n/a	n/a	n/a	n/a	n/a	n/a	n/a
3754875	RECOG_CONF	n/a	LTP286	ltpFR	6	1	n/a	MOUSE	925	n/a	3	n/a	n/a	n/a	n/a	n/a	n/a
3756572	RECOG_TARGET	n/a	LTP286	ltpFR	6	1	1	APPLICATION	34	1	2	0	n/a	n/a	n/a	n/a	n/a
3757630	RECOG_RESP	n/a	LTP286	ltpFR	6	1	1	APPLICATION	34	1	n/a	0	n/a	n/a	n/a	n/a	n/a
3758515	RECOG_CONF	n/a	LTP286	ltpFR	6	1	1	APPLICATION	34	n/a	2	0	n/a	n/a	n/a	n/a	n/a
3760217	RECOG_TARGET	n/a	LTP286	ltpFR	6	1	1	CRICKET	408	0	4	1	n/a	n/a	n/a	n/a	n/a
3760970	RECOG_RESP	n/a	LTP286	ltpFR	6	1	1	CRICKET	408	0	n/a	1	n/a	n/a	n/a	n/a	n/a
3761645	RECOG_CONF	n/a	LTP286	ltpFR	6	1	1	CRICKET	408	n/a	4	1	n/a	n/a	n/a	n/a	n/a
3763312	RECOG_TARGET	n/a	LTP286	ltpFR	6	1	0	CRITIC	410	1	5	1	n/a	n/a	n/a	n/a	n/a
3764310	RECOG_RESP	n/a	LTP286	ltpFR	6	1	0	CRITIC	410	1	n/a	1	n/a	n/a	n/a	n/a	n/a
3764975	RECOG_CONF	n/a	LTP286	ltpFR	6	1	0	CRITIC	410	n/a	5	1	n/a	n/a	n/a	n/a	n/a
3766840	RECOG_TARGET	n/a	LTP286	ltpFR	6	1	0	RAZOR	1171	1	4	0	n/a	n/a	n/a	n/a	n/a
3767465	RECOG_RESP	n/a	LTP286	ltpFR	6	1	0	RAZOR	1171	1	n/a	0	n/a	n/a	n/a	n/a	n/a
3768075	RECOG_CONF	n/a	LTP286	ltpFR	6	1	0	RAZOR	1171	n/a	4	0	n/a	n/a	n/a	n/a	n/a
3775921	REC_START	n/a	LTP286	ltpFR	6	2	n/a	n/a	n/a	n/a	n/a	n/a	n/a	n/a	n/a	n/a	n/a
3775960	RECOG_TARGET	n/a	LTP286	ltpFR	6	2	0	BUNNY	198	1	4	0	n/a	n/a	n/a	n/a	n/a
3776681	RECOG_RESP	n/a	LTP286	ltpFR	6	2	0	BUNNY	198	1	n/a	0	n/a	n/a	n/a	n/a	n/a
3777231	RECOG_CONF	n/a	LTP286	ltpFR	6	2	0	BUNNY	198	n/a	4	0	n/a	n/a	n/a	n/a	n/a
3778939	RECOG_LURE	n/a	LTP286	ltpFR	6	2	n/a	DETERGENT	455	0	4	n/a	n/a	n/a	n/a	n/a	n/a
3779836	RECOG_RESP	n/a	LTP286	ltpFR	6	2	n/a	DETERGENT	455	0	n/a	n/a	n/a	n/a	n/a	n/a	n/a
3780381	RECOG_CONF	n/a	LTP286	ltpFR	6	2	n/a	DETERGENT	455	n/a	4	n/a	n/a	n/a	n/a	n/a	n/a
3782352	RECOG_TARGET	n/a	LTP286	ltpFR	6	2	-1	PORTRAIT	1111	1	4	-1	n/a	n/a	n/a	n/a	n/a
3783031	RECOG_RESP	n/a	LTP286	ltpFR	6	2	-1	PORTRAIT	1111	1	n/a	-1	n/a	n/a	n/a	n/a	n/a
3783661	RECOG_CONF	n/a	LTP286	ltpFR	6	2	-1	PORTRAIT	1111	n/a	4	-1	n/a	n/a	n/a	n/a	n/a
3785447	RECOG_TARGET	n/a	LTP286	ltpFR	6	2	0	PRODUCER	1129	1	2	1	n/a	n/a	n/a	n/a	n/a
3786451	RECOG_RESP	n/a	LTP286	ltpFR	6	2	0	PRODUCER	1129	1	n/a	1	n/a	n/a	n/a	n/a	n/a
3787241	RECOG_CONF	n/a	LTP286	ltpFR	6	2	0	PRODUCER	1129	n/a	2	1	n/a	n/a	n/a	n/a	n/a
3788874	RECOG_TARGET	n/a	LTP286	ltpFR	6	2	0	CHEF	290	1	4	1	n/a	n/a	n/a	n/a	n/a
3789556	RECOG_RESP	n/a	LTP286	ltpFR	6	2	0	CHEF	290	1	n/a	1	n/a	n/a	n/a	n/a	n/a
3790171	RECOG_CONF	n/a	LTP286	ltpFR	6	2	0	CHEF	290	n/a	4	1	n/a	n/a	n/a	n/a	n/a
3792036	RECOG_LURE	n/a	LTP286	ltpFR	6	2	n/a	STAMP	1370	0	3	n/a	n/a	n/a	n/a	n/a	n/a
3792846	RECOG_RESP	n/a	LTP286	ltpFR	6	2	n/a	STAMP	1370	0	n/a	n/a	n/a	n/a	n/a	n/a	n/a
3793491	RECOG_CONF	n/a	LTP286	ltpFR	6	2	n/a	STAMP	1370	n/a	3	n/a	n/a	n/a	n/a	n/a	n/a
3795248	RECOG_TARGET	n/a	LTP286	ltpFR	6	2	-1	DUCK	504	1	4	-1	n/a	n/a	n/a	n/a	n/a
3795841	RECOG_RESP	n/a	LTP286	ltpFR	6	2	-1	DUCK	504	1	n/a	-1	n/a	n/a	n/a	n/a	n/a
3796391	RECOG_CONF	n/a	LTP286	ltpFR	6	2	-1	DUCK	504	n/a	4	-1	n/a	n/a	n/a	n/a	n/a
3798160	RECOG_TARGET	n/a	LTP286	ltpFR	6	2	1	COLT	349	1	2	1	n/a	n/a	n/a	n/a	n/a
3798891	RECOG_RESP	n/a	LTP286	ltpFR	6	2	1	COLT	349	1	n/a	1	n/a	n/a	n/a	n/a	n/a
3799621	RECOG_CONF	n/a	LTP286	ltpFR	6	2	1	COLT	349	n/a	2	1	n/a	n/a	n/a	n/a	n/a
3801256	RECOG_LURE	n/a	LTP286	ltpFR	6	2	n/a	THESAURUS	1454	0	3	n/a	n/a	n/a	n/a	n/a	n/a
3802126	RECOG_RESP	n/a	LTP286	ltpFR	6	2	n/a	THESAURUS	1454	0	n/a	n/a	n/a	n/a	n/a	n/a	n/a
3802601	RECOG_CONF	n/a	LTP286	ltpFR	6	2	n/a	THESAURUS	1454	n/a	3	n/a	n/a	n/a	n/a	n/a	n/a
3804469	RECOG_LURE	n/a	LTP286	ltpFR	6	2	n/a	BELT	120	0	4	n/a	n/a	n/a	n/a	n/a	n/a
3805191	RECOG_RESP	n/a	LTP286	ltpFR	6	2	n/a	BELT	120	0	n/a	n/a	n/a	n/a	n/a	n/a	n/a
3805681	RECOG_CONF	n/a	LTP286	ltpFR	6	2	n/a	BELT	120	n/a	4	n/a	n/a	n/a	n/a	n/a	n/a
3807630	RECOG_LURE	n/a	LTP286	ltpFR	6	2	n/a	BRACES	164	0	5	n/a	n/a	n/a	n/a	n/a	n/a
3808336	RECOG_RESP	n/a	LTP286	ltpFR	6	2	n/a	BRACES	164	0	n/a	n/a	n/a	n/a	n/a	n/a	n/a
3808781	RECOG_CONF	n/a	LTP286	ltpFR	6	2	n/a	BRACES	164	n/a	5	n/a	n/a	n/a	n/a	n/a	n/a
3810658	RECOG_TARGET	n/a	LTP286	ltpFR	6	2	-1	CHIME	300	1	3	-1	n/a	n/a	n/a	n/a	n/a
3811621	RECOG_RESP	n/a	LTP286	ltpFR	6	2	-1	CHIME	300	1	n/a	-1	n/a	n/a	n/a	n/a	n/a
3812391	RECOG_CONF	n/a	LTP286	ltpFR	6	2	-1	CHIME	300	n/a	3	-1	n/a	n/a	n/a	n/a	n/a
3814137	RECOG_LURE	n/a	LTP286	ltpFR	6	2	n/a	STEAM	1375	0	2	n/a	n/a	n/a	n/a	n/a	n/a
3815496	RECOG_RESP	n/a	LTP286	ltpFR	6	2	n/a	STEAM	1375	0	n/a	n/a	n/a	n/a	n/a	n/a	n/a
3816241	RECOG_CONF	n/a	LTP286	ltpFR	6	2	n/a	STEAM	1375	n/a	2	n/a	n/a	n/a	n/a	n/a	n/a
3817914	RECOG_TARGET	n/a	LTP286	ltpFR	6	2	1	SKI	1316	1	4	0	n/a	n/a	n/a	n/a	n/a
3818631	RECOG_RESP	n/a	LTP286	ltpFR	6	2	1	SKI	1316	1	n/a	0	n/a	n/a	n/a	n/a	n/a
3819213	RECOG_CONF	n/a	LTP286	ltpFR	6	2	1	SKI	1316	n/a	4	0	n/a	n/a	n/a	n/a	n/a
3821026	RECOG_TARGET	n/a	LTP286	ltpFR	6	2	1	CAT	257	1	1	1	n/a	n/a	n/a	n/a	n/a
3821756	RECOG_RESP	n/a	LTP286	ltpFR	6	2	1	CAT	257	1	n/a	1	n/a	n/a	n/a	n/a	n/a
3822291	RECOG_CONF	n/a	LTP286	ltpFR	6	2	1	CAT	257	n/a	1	1	n/a	n/a	n/a	n/a	n/a
3824172	RECOG_TARGET	n/a	LTP286	ltpFR	6	2	0	CAMERA	224	1	3	0	n/a	n/a	n/a	n/a	n/a
3824836	RECOG_RESP	n/a	LTP286	ltpFR	6	2	0	CAMERA	224	1	n/a	0	n/a	n/a	n/a	n/a	n/a
3825461	RECOG_CONF	n/a	LTP286	ltpFR	6	2	0	CAMERA	224	n/a	3	0	n/a	n/a	n/a	n/a	n/a
3827101	RECOG_TARGET	n/a	LTP286	ltpFR	6	2	0	BANKER	84	1	1	1	n/a	n/a	n/a	n/a	n/a
3828076	RECOG_RESP	n/a	LTP286	ltpFR	6	2	0	BANKER	84	1	n/a	1	n/a	n/a	n/a	n/a	n/a
3828791	RECOG_CONF	n/a	LTP286	ltpFR	6	2	0	BANKER	84	n/a	1	1	n/a	n/a	n/a	n/a	n/a
3830529	RECOG_TARGET	n/a	LTP286	ltpFR	6	2	1	JURY	766	1	3	1	n/a	n/a	n/a	n/a	n/a
3831216	RECOG_RESP	n/a	LTP286	ltpFR	6	2	1	JURY	766	1	n/a	1	n/a	n/a	n/a	n/a	n/a
3832191	RECOG_CONF	n/a	LTP286	ltpFR	6	2	1	JURY	766	n/a	3	1	n/a	n/a	n/a	n/a	n/a
3834306	RECOG_LURE	n/a	LTP286	ltpFR	6	2	n/a	PLAQUE	1084	0	4	n/a	n/a	n/a	n/a	n/a	n/a
3835061	RECOG_RESP	n/a	LTP286	ltpFR	6	2	n/a	PLAQUE	1084	0	n/a	n/a	n/a	n/a	n/a	n/a	n/a
3835611	RECOG_CONF	n/a	LTP286	ltpFR	6	2	n/a	PLAQUE	1084	n/a	4	n/a	n/a	n/a	n/a	n/a	n/a
3837552	RECOG_TARGET	n/a	LTP286	ltpFR	6	2	0	NICKEL	950	1	3	0	n/a	n/a	n/a	n/a	n/a
3838246	RECOG_RESP	n/a	LTP286	ltpFR	6	2	0	NICKEL	950	1	n/a	0	n/a	n/a	n/a	n/a	n/a
3839001	RECOG_CONF	n/a	LTP286	ltpFR	6	2	0	NICKEL	950	n/a	3	0	n/a	n/a	n/a	n/a	n/a
3845707	REC_START	n/a	LTP286	ltpFR	6	3	n/a	n/a	n/a	n/a	n/a	n/a	n/a	n/a	n/a	n/a	n/a
3845739	RECOG_TARGET	n/a	LTP286	ltpFR	6	3	0	GRADUATE	653	1	5	1	n/a	n/a	n/a	n/a	n/a
3846427	RECOG_RESP	n/a	LTP286	ltpFR	6	3	0	GRADUATE	653	1	n/a	1	n/a	n/a	n/a	n/a	n/a
3846937	RECOG_CONF	n/a	LTP286	ltpFR	6	3	0	GRADUATE	653	n/a	5	1	n/a	n/a	n/a	n/a	n/a
3848835	RECOG_TARGET	n/a	LTP286	ltpFR	6	3	0	WALL	1582	1	4	1	n/a	n/a	n/a	n/a	n/a
3849422	RECOG_RESP	n/a	LTP286	ltpFR	6	3	0	WALL	1582	1	n/a	1	n/a	n/a	n/a	n/a	n/a
3849967	RECOG_CONF	n/a	LTP286	ltpFR	6	3	0	WALL	1582	n/a	4	1	n/a	n/a	n/a	n/a	n/a
3851780	RECOG_TARGET	n/a	LTP286	ltpFR	6	3	1	JUDGE	761	1	1	1	n/a	n/a	n/a	n/a	n/a
3853362	RECOG_RESP	n/a	LTP286	ltpFR	6	3	1	JUDGE	761	1	n/a	1	n/a	n/a	n/a	n/a	n/a
3853947	RECOG_CONF	n/a	LTP286	ltpFR	6	3	1	JUDGE	761	n/a	1	1	n/a	n/a	n/a	n/a	n/a
3855774	RECOG_TARGET	n/a	LTP286	ltpFR	6	3	1	OCTOPUS	971	1	3	1	n/a	n/a	n/a	n/a	n/a
3856382	RECOG_RESP	n/a	LTP286	ltpFR	6	3	1	OCTOPUS	971	1	n/a	1	n/a	n/a	n/a	n/a	n/a
3857127	RECOG_CONF	n/a	LTP286	ltpFR	6	3	1	OCTOPUS	971	n/a	3	1	n/a	n/a	n/a	n/a	n/a
3858786	RECOG_TARGET	n/a	LTP286	ltpFR	6	3	1	TEAPOT	1442	1	4	0	n/a	n/a	n/a	n/a	n/a
3859477	RECOG_RESP	n/a	LTP286	ltpFR	6	3	1	TEAPOT	1442	1	n/a	0	n/a	n/a	n/a	n/a	n/a
3860167	RECOG_CONF	n/a	LTP286	ltpFR	6	3	1	TEAPOT	1442	n/a	4	0	n/a	n/a	n/a	n/a	n/a
3862032	RECOG_TARGET	n/a	LTP286	ltpFR	6	3	0	CASHIER	254	1	5	1	n/a	n/a	n/a	n/a	n/a
3862602	RECOG_RESP	n/a	LTP286	ltpFR	6	3	0	CASHIER	254	1	n/a	1	n/a	n/a	n/a	n/a	n/a
3863297	RECOG_CONF	n/a	LTP286	ltpFR	6	3	0	CASHIER	254	n/a	5	1	n/a	n/a	n/a	n/a	n/a
3865060	RECOG_TARGET	n/a	LTP286	ltpFR	6	3	-1	BEET	115	0	1	-1	n/a	n/a	n/a	n/a	n/a
3865932	RECOG_RESP	n/a	LTP286	ltpFR	6	3	-1	BEET	115	0	n/a	-1	n/a	n/a	n/a	n/a	n/a
3866667	RECOG_CONF	n/a	LTP286	ltpFR	6	3	-1	BEET	115	n/a	1	-1	n/a	n/a	n/a	n/a	n/a
3868522	RECOG_TARGET	n/a	LTP286	ltpFR	6	3	-1	DOCK	477	1	4	-1	n/a	n/a	n/a	n/a	n/a
3869232	RECOG_RESP	n/a	LTP286	ltpFR	6	3	-1	DOCK	477	1	n/a	-1	n/a	n/a	n/a	n/a	n/a
3869877	RECOG_CONF	n/a	LTP286	ltpFR	6	3	-1	DOCK	477	n/a	4	-1	n/a	n/a	n/a	n/a	n/a
3871534	RECOG_LURE	n/a	LTP286	ltpFR	6	3	n/a	CASKET	255	0	4	n/a	n/a	n/a	n/a	n/a	n/a
3872322	RECOG_RESP	n/a	LTP286	ltpFR	6	3	n/a	CASKET	255	0	n/a	n/a	n/a	n/a	n/a	n/a	n/a
3872937	RECOG_CONF	n/a	LTP286	ltpFR	6	3	n/a	CASKET	255	n/a	4	n/a	n/a	n/a	n/a	n/a	n/a
3874746	RECOG_TARGET	n/a	LTP286	ltpFR	6	3	1	SLOPE	1328	1	3	0	n/a	n/a	n/a	n/a	n/a
3875392	RECOG_RESP	n/a	LTP286	ltpFR	6	3	1	SLOPE	1328	1	n/a	0	n/a	n/a	n/a	n/a	n/a
3876127	RECOG_CONF	n/a	LTP286	ltpFR	6	3	1	SLOPE	1328	n/a	3	0	n/a	n/a	n/a	n/a	n/a
3877708	RECOG_TARGET	n/a	LTP286	ltpFR	6	3	0	DESIGNER	451	1	2	1	n/a	n/a	n/a	n/a	n/a
3878537	RECOG_RESP	n/a	LTP286	ltpFR	6	3	0	DESIGNER	451	1	n/a	1	n/a	n/a	n/a	n/a	n/a
3879197	RECOG_CONF	n/a	LTP286	ltpFR	6	3	0	DESIGNER	451	n/a	2	1	n/a	n/a	n/a	n/a	n/a
3880837	RECOG_TARGET	n/a	LTP286	ltpFR	6	3	0	CARPET	247	1	3	1	n/a	n/a	n/a	n/a	n/a
3881477	RECOG_RESP	n/a	LTP286	ltpFR	6	3	0	CARPET	247	1	n/a	1	n/a	n/a	n/a	n/a	n/a
3882287	RECOG_CONF	n/a	LTP286	ltpFR	6	3	0	CARPET	247	n/a	3	1	n/a	n/a	n/a	n/a	n/a
3884032	RECOG_TARGET	n/a	LTP286	ltpFR	6	3	0	COLESLAW	344	1	3	0	n/a	n/a	n/a	n/a	n/a
3884707	RECOG_RESP	n/a	LTP286	ltpFR	6	3	0	COLESLAW	344	1	n/a	0	n/a	n/a	n/a	n/a	n/a
3885417	RECOG_CONF	n/a	LTP286	ltpFR	6	3	0	COLESLAW	344	n/a	3	0	n/a	n/a	n/a	n/a	n/a
3887078	RECOG_TARGET	n/a	LTP286	ltpFR	6	3	0	SCALE	1241	1	4	0	n/a	n/a	n/a	n/a	n/a
3887692	RECOG_RESP	n/a	LTP286	ltpFR	6	3	0	SCALE	1241	1	n/a	0	n/a	n/a	n/a	n/a	n/a
3888207	RECOG_CONF	n/a	LTP286	ltpFR	6	3	0	SCALE	1241	n/a	4	0	n/a	n/a	n/a	n/a	n/a
3889973	RECOG_TARGET	n/a	LTP286	ltpFR	6	3	1	IRON	744	1	3	0	n/a	n/a	n/a	n/a	n/a
3890627	RECOG_RESP	n/a	LTP286	ltpFR	6	3	1	IRON	744	1	n/a	0	n/a	n/a	n/a	n/a	n/a
3891307	RECOG_CONF	n/a	LTP286	ltpFR	6	3	1	IRON	744	n/a	3	0	n/a	n/a	n/a	n/a	n/a
3893102	RECOG_TARGET	n/a	LTP286	ltpFR	6	3	1	WAVE	1596	1	3	0	n/a	n/a	n/a	n/a	n/a
3893742	RECOG_RESP	n/a	LTP286	ltpFR	6	3	1	WAVE	1596	1	n/a	0	n/a	n/a	n/a	n/a	n/a
3894437	RECOG_CONF	n/a	LTP286	ltpFR	6	3	1	WAVE	1596	n/a	3	0	n/a	n/a	n/a	n/a	n/a
3896164	RECOG_TARGET	n/a	LTP286	ltpFR	6	3	1	SEAL	1262	1	4	1	n/a	n/a	n/a	n/a	n/a
3896802	RECOG_RESP	n/a	LTP286	ltpFR	6	3	1	SEAL	1262	1	n/a	1	n/a	n/a	n/a	n/a	n/a
3897477	RECOG_CONF	n/a	LTP286	ltpFR	6	3	1	SEAL	1262	n/a	4	1	n/a	n/a	n/a	n/a	n/a
3899243	RECOG_LURE	n/a	LTP286	ltpFR	6	3	n/a	PARIS	1014	0	5	n/a	n/a	n/a	n/a	n/a	n/a
3899967	RECOG_RESP	n/a	LTP286	ltpFR	6	3	n/a	PARIS	1014	0	n/a	n/a	n/a	n/a	n/a	n/a	n/a
3900557	RECOG_CONF	n/a	LTP286	ltpFR	6	3	n/a	PARIS	1014	n/a	5	n/a	n/a	n/a	n/a	n/a	n/a
3902389	RECOG_TARGET	n/a	LTP286	ltpFR	6	3	1	HOOK	715	1	3	0	n/a	n/a	n/a	n/a	n/a
3903427	RECOG_RESP	n/a	LTP286	ltpFR	6	3	1	HOOK	715	1	n/a	0	n/a	n/a	n/a	n/a	n/a
3904317	RECOG_CONF	n/a	LTP286	ltpFR	6	3	1	HOOK	715	n/a	3	0	n/a	n/a	n/a	n/a	n/a
3905933	RECOG_TARGET	n/a	LTP286	ltpFR	6	3	1	FUGITIVE	612	1	5	1	n/a	n/a	n/a	n/a	n/a
3906602	RECOG_RESP	n/a	LTP286	ltpFR	6	3	1	FUGITIVE	612	1	n/a	1	n/a	n/a	n/a	n/a	n/a
3907282	RECOG_CONF	n/a	LTP286	ltpFR	6	3	1	FUGITIVE	612	n/a	5	1	n/a	n/a	n/a	n/a	n/a
3913346	REC_START	n/a	LTP286	ltpFR	6	4	n/a	n/a	n/a	n/a	n/a	n/a	n/a	n/a	n/a	n/a	n/a
3913373	RECOG_TARGET	n/a	LTP286	ltpFR	6	4	0	CASH	252	1	3	0	n/a	n/a	n/a	n/a	n/a
3914186	RECOG_RESP	n/a	LTP286	ltpFR	6	4	0	CASH	252	1	n/a	0	n/a	n/a	n/a	n/a	n/a
3914946	RECOG_CONF	n/a	LTP286	ltpFR	6	4	0	CASH	252	n/a	3	0	n/a	n/a	n/a	n/a	n/a
3916567	RECOG_TARGET	n/a	LTP286	ltpFR	6	4	0	CAKE	219	1	5	1	n/a	n/a	n/a	n/a	n/a
3917136	RECOG_RESP	n/a	LTP286	ltpFR	6	4	0	CAKE	219	1	n/a	1	n/a	n/a	n/a	n/a	n/a
3917756	RECOG_CONF	n/a	LTP286	ltpFR	6	4	0	CAKE	219	n/a	5	1	n/a	n/a	n/a	n/a	n/a
3919430	RECOG_TARGET	n/a	LTP286	ltpFR	6	4	-1	HIKER	708	1	5	-1	n/a	n/a	n/a	n/a	n/a
3919976	RECOG_RESP	n/a	LTP286	ltpFR	6	4	-1	HIKER	708	1	n/a	-1	n/a	n/a	n/a	n/a	n/a
3920636	RECOG_CONF	n/a	LTP286	ltpFR	6	4	-1	HIKER	708	n/a	5	-1	n/a	n/a	n/a	n/a	n/a
3922308	RECOG_TARGET	n/a	LTP286	ltpFR	6	4	1	MAILMAN	858	1	4	1	n/a	n/a	n/a	n/a	n/a
3922906	RECOG_RESP	n/a	LTP286	ltpFR	6	4	1	MAILMAN	858	1	n/a	1	n/a	n/a	n/a	n/a	n/a
3923396	RECOG_CONF	n/a	LTP286	ltpFR	6	4	1	MAILMAN	858	n/a	4	1	n/a	n/a	n/a	n/a	n/a
3925187	RECOG_TARGET	n/a	LTP286	ltpFR	6	4	1	FLY	586	1	4	1	n/a	n/a	n/a	n/a	n/a
3925771	RECOG_RESP	n/a	LTP286	ltpFR	6	4	1	FLY	586	1	n/a	1	n/a	n/a	n/a	n/a	n/a
3926356	RECOG_CONF	n/a	LTP286	ltpFR	6	4	1	FLY	586	n/a	4	1	n/a	n/a	n/a	n/a	n/a
3928116	RECOG_TARGET	n/a	LTP286	ltpFR	6	4	1	SWIMMER	1420	1	3	1	n/a	n/a	n/a	n/a	n/a
3928701	RECOG_RESP	n/a	LTP286	ltpFR	6	4	1	SWIMMER	1420	1	n/a	1	n/a	n/a	n/a	n/a	n/a
3929416	RECOG_CONF	n/a	LTP286	ltpFR	6	4	1	SWIMMER	1420	n/a	3	1	n/a	n/a	n/a	n/a	n/a
3931195	RECOG_TARGET	n/a	LTP286	ltpFR	6	4	0	PUBLICATION	1136	1	3	1	n/a	n/a	n/a	n/a	n/a
3931876	RECOG_RESP	n/a	LTP286	ltpFR	6	4	0	PUBLICATION	1136	1	n/a	1	n/a	n/a	n/a	n/a	n/a
3932606	RECOG_CONF	n/a	LTP286	ltpFR	6	4	0	PUBLICATION	1136	n/a	3	1	n/a	n/a	n/a	n/a	n/a
3934358	RECOG_LURE	n/a	LTP286	ltpFR	6	4	n/a	CHICKEN	297	0	1	n/a	n/a	n/a	n/a	n/a	n/a
3935921	RECOG_RESP	n/a	LTP286	ltpFR	6	4	n/a	CHICKEN	297	0	n/a	n/a	n/a	n/a	n/a	n/a	n/a
3936606	RECOG_CONF	n/a	LTP286	ltpFR	6	4	n/a	CHICKEN	297	n/a	1	n/a	n/a	n/a	n/a	n/a	n/a
3938284	RECOG_TARGET	n/a	LTP286	ltpFR	6	4	-1	SEA	1259	1	3	-1	n/a	n/a	n/a	n/a	n/a
3939041	RECOG_RESP	n/a	LTP286	ltpFR	6	4	-1	SEA	1259	1	n/a	-1	n/a	n/a	n/a	n/a	n/a
3939726	RECOG_CONF	n/a	LTP286	ltpFR	6	4	-1	SEA	1259	n/a	3	-1	n/a	n/a	n/a	n/a	n/a
3941464	RECOG_TARGET	n/a	LTP286	ltpFR	6	4	1	COMPASS	358	1	4	0	n/a	n/a	n/a	n/a	n/a
3942121	RECOG_RESP	n/a	LTP286	ltpFR	6	4	1	COMPASS	358	1	n/a	0	n/a	n/a	n/a	n/a	n/a
3942706	RECOG_CONF	n/a	LTP286	ltpFR	6	4	1	COMPASS	358	n/a	4	0	n/a	n/a	n/a	n/a	n/a
3944476	RECOG_TARGET	n/a	LTP286	ltpFR	6	4	-1	DRIVER	499	1	4	-1	n/a	n/a	n/a	n/a	n/a
3945671	RECOG_RESP	n/a	LTP286	ltpFR	6	4	-1	DRIVER	499	1	n/a	-1	n/a	n/a	n/a	n/a	n/a
3946256	RECOG_CONF	n/a	LTP286	ltpFR	6	4	-1	DRIVER	499	n/a	4	-1	n/a	n/a	n/a	n/a	n/a
3948286	RECOG_TARGET	n/a	LTP286	ltpFR	6	4	-1	LAKE	796	0	1	-1	n/a	n/a	n/a	n/a	n/a
3949256	RECOG_RESP	n/a	LTP286	ltpFR	6	4	-1	LAKE	796	0	n/a	-1	n/a	n/a	n/a	n/a	n/a
3950116	RECOG_CONF	n/a	LTP286	ltpFR	6	4	-1	LAKE	796	n/a	1	-1	n/a	n/a	n/a	n/a	n/a
3951781	RECOG_TARGET	n/a	LTP286	ltpFR	6	4	1	TEMPLE	1448	1	4	0	n/a	n/a	n/a	n/a	n/a
3952646	RECOG_RESP	n/a	LTP286	ltpFR	6	4	1	TEMPLE	1448	1	n/a	0	n/a	n/a	n/a	n/a	n/a
3953196	RECOG_CONF	n/a	LTP286	ltpFR	6	4	1	TEMPLE	1448	n/a	4	0	n/a	n/a	n/a	n/a	n/a
3954976	RECOG_LURE	n/a	LTP286	ltpFR	6	4	n/a	BUGLE	189	0	3	n/a	n/a	n/a	n/a	n/a	n/a
3956046	RECOG_RESP	n/a	LTP286	ltpFR	6	4	n/a	BUGLE	189	0	n/a	n/a	n/a	n/a	n/a	n/a	n/a
3956876	RECOG_CONF	n/a	LTP286	ltpFR	6	4	n/a	BUGLE	189	n/a	3	n/a	n/a	n/a	n/a	n/a	n/a
3958571	RECOG_LURE	n/a	LTP286	ltpFR	6	4	n/a	GLOVE	642	0	1	n/a	n/a	n/a	n/a	n/a	n/a
3959631	RECOG_RESP	n/a	LTP286	ltpFR	6	4	n/a	GLOVE	642	0	n/a	n/a	n/a	n/a	n/a	n/a	n/a
3960386	RECOG_CONF	n/a	LTP286	ltpFR	6	4	n/a	GLOVE	642	n/a	1	n/a	n/a	n/a	n/a	n/a	n/a
3962149	RECOG_TARGET	n/a	LTP286	ltpFR	6	4	1	LEMON	810	1	2	1	n/a	n/a	n/a	n/a	n/a
3962991	RECOG_RESP	n/a	LTP286	ltpFR	6	4	1	LEMON	810	1	n/a	1	n/a	n/a	n/a	n/a	n/a
3963716	RECOG_CONF	n/a	LTP286	ltpFR	6	4	1	LEMON	810	n/a	2	1	n/a	n/a	n/a	n/a	n/a
3965544	RECOG_LURE	n/a	LTP286	ltpFR	6	4	n/a	MINER	896	0	4	n/a	n/a	n/a	n/a	n/a	n/a
3966401	RECOG_RESP	n/a	LTP286	ltpFR	6	4	n/a	MINER	896	0	n/a	n/a	n/a	n/a	n/a	n/a	n/a
3966996	RECOG_CONF	n/a	LTP286	ltpFR	6	4	n/a	MINER	896	n/a	4	n/a	n/a	n/a	n/a	n/a	n/a
3968806	RECOG_LURE	n/a	LTP286	ltpFR	6	4	n/a	RAIL	1161	0	1	n/a	n/a	n/a	n/a	n/a	n/a
3970776	RECOG_RESP	n/a	LTP286	ltpFR	6	4	n/a	RAIL	1161	0	n/a	n/a	n/a	n/a	n/a	n/a	n/a
3971476	RECOG_CONF	n/a	LTP286	ltpFR	6	4	n/a	RAIL	1161	n/a	1	n/a	n/a	n/a	n/a	n/a	n/a
3973232	RECOG_LURE	n/a	LTP286	ltpFR	6	4	n/a	POT	1114	0	2	n/a	n/a	n/a	n/a	n/a	n/a
3974596	RECOG_RESP	n/a	LTP286	ltpFR	6	4	n/a	POT	1114	0	n/a	n/a	n/a	n/a	n/a	n/a	n/a
3975316	RECOG_CONF	n/a	LTP286	ltpFR	6	4	n/a	POT	1114	n/a	2	n/a	n/a	n/a	n/a	n/a	n/a
3977126	RECOG_TARGET	n/a	LTP286	ltpFR	6	4	-1	PANTHER	1009	1	1	-1	n/a	n/a	n/a	n/a	n/a
3978231	RECOG_RESP	n/a	LTP286	ltpFR	6	4	-1	PANTHER	1009	1	n/a	-1	n/a	n/a	n/a	n/a	n/a
3978826	RECOG_CONF	n/a	LTP286	ltpFR	6	4	-1	PANTHER	1009	n/a	1	-1	n/a	n/a	n/a	n/a	n/a
3983100	REC_START	n/a	LTP286	ltpFR	6	5	n/a	n/a	n/a	n/a	n/a	n/a	n/a	n/a	n/a	n/a	n/a
3983134	RECOG_TARGET	n/a	LTP286	ltpFR	6	5	-1	MAMMAL	861	1	3	-1	n/a	n/a	n/a	n/a	n/a
3983740	RECOG_RESP	n/a	LTP286	ltpFR	6	5	-1	MAMMAL	861	1	n/a	-1	n/a	n/a	n/a	n/a	n/a
3984320	RECOG_CONF	n/a	LTP286	ltpFR	6	5	-1	MAMMAL	861	n/a	3	-1	n/a	n/a	n/a	n/a	n/a
3986096	RECOG_TARGET	n/a	LTP286	ltpFR	6	5	0	FIDDLE	561	1	4	0	n/a	n/a	n/a	n/a	n/a
3986830	RECOG_RESP	n/a	LTP286	ltpFR	6	5	0	FIDDLE	561	1	n/a	0	n/a	n/a	n/a	n/a	n/a
3987410	RECOG_CONF	n/a	LTP286	ltpFR	6	5	0	FIDDLE	561	n/a	4	0	n/a	n/a	n/a	n/a	n/a
3989258	RECOG_LURE	n/a	LTP286	ltpFR	6	5	n/a	HUT	729	1	1	n/a	n/a	n/a	n/a	n/a	n/a
3990875	RECOG_RESP	n/a	LTP286	ltpFR	6	5	n/a	HUT	729	1	n/a	n/a	n/a	n/a	n/a	n/a	n/a
3991610	RECOG_CONF	n/a	LTP286	ltpFR	6	5	n/a	HUT	729	n/a	1	n/a	n/a	n/a	n/a	n/a	n/a
3993353	RECOG_TARGET	n/a	LTP286	ltpFR	6	5	0	CEREAL	272	0	1	0	n/a	n/a	n/a	n/a	n/a
3994735	RECOG_RESP	n/a	LTP286	ltpFR	6	5	0	CEREAL	272	0	n/a	0	n/a	n/a	n/a	n/a	n/a
3995270	RECOG_CONF	n/a	LTP286	ltpFR	6	5	0	CEREAL	272	n/a	1	0	n/a	n/a	n/a	n/a	n/a
3997030	RECOG_TARGET	n/a	LTP286	ltpFR	6	5	0	ATOM	55	1	3	0	n/a	n/a	n/a	n/a	n/a
3997895	RECOG_RESP	n/a	LTP286	ltpFR	6	5	0	ATOM	55	1	n/a	0	n/a	n/a	n/a	n/a	n/a
3998630	RECOG_CONF	n/a	LTP286	ltpFR	6	5	0	ATOM	55	n/a	3	0	n/a	n/a	n/a	n/a	n/a
4000175	RECOG_LURE	n/a	LTP286	ltpFR	6	5	n/a	HAIL	676	0	3	n/a	n/a	n/a	n/a	n/a	n/a
4001080	RECOG_RESP	n/a	LTP286	ltpFR	6	5	n/a	HAIL	676	0	n/a	n/a	n/a	n/a	n/a	n/a	n/a
4001660	RECOG_CONF	n/a	LTP286	ltpFR	6	5	n/a	HAIL	676	n/a	3	n/a	n/a	n/a	n/a	n/a	n/a
4003504	RECOG_TARGET	n/a	LTP286	ltpFR	6	5	0	PIPE	1073	1	4	0	n/a	n/a	n/a	n/a	n/a
4004275	RECOG_RESP	n/a	LTP286	ltpFR	6	5	0	PIPE	1073	1	n/a	0	n/a	n/a	n/a	n/a	n/a
4004830	RECOG_CONF	n/a	LTP286	ltpFR	6	5	0	PIPE	1073	n/a	4	0	n/a	n/a	n/a	n/a	n/a
4006499	RECOG_LURE	n/a	LTP286	ltpFR	6	5	n/a	PRISONER	1128	0	2	n/a	n/a	n/a	n/a	n/a	n/a
4007735	RECOG_RESP	n/a	LTP286	ltpFR	6	5	n/a	PRISONER	1128	0	n/a	n/a	n/a	n/a	n/a	n/a	n/a
4008700	RECOG_CONF	n/a	LTP286	ltpFR	6	5	n/a	PRISONER	1128	n/a	2	n/a	n/a	n/a	n/a	n/a	n/a
4010428	RECOG_TARGET	n/a	LTP286	ltpFR	6	5	1	VESSEL	1558	0	3	0	n/a	n/a	n/a	n/a	n/a
4011320	RECOG_RESP	n/a	LTP286	ltpFR	6	5	1	VESSEL	1558	0	n/a	0	n/a	n/a	n/a	n/a	n/a
4012010	RECOG_CONF	n/a	LTP286	ltpFR	6	5	1	VESSEL	1558	n/a	3	0	n/a	n/a	n/a	n/a	n/a
4013772	RECOG_TARGET	n/a	LTP286	ltpFR	6	5	0	STUDENT	1395	1	4	1	n/a	n/a	n/a	n/a	n/a
4014435	RECOG_RESP	n/a	LTP286	ltpFR	6	5	0	STUDENT	1395	1	n/a	1	n/a	n/a	n/a	n/a	n/a
4014992	RECOG_CONF	n/a	LTP286	ltpFR	6	5	0	STUDENT	1395	n/a	4	1	n/a	n/a	n/a	n/a	n/a
4016834	RECOG_TARGET	n/a	LTP286	ltpFR	6	5	-1	PUMPKIN	1142	1	3	-1	n/a	n/a	n/a	n/a	n/a
4017485	RECOG_RESP	n/a	LTP286	ltpFR	6	5	-1	PUMPKIN	1142	1	n/a	-1	n/a	n/a	n/a	n/a	n/a
4018190	RECOG_CONF	n/a	LTP286	ltpFR	6	5	-1	PUMPKIN	1142	n/a	3	-1	n/a	n/a	n/a	n/a	n/a
4019829	RECOG_TARGET	n/a	LTP286	ltpFR	6	5	1	LAUNDRY	803	1	3	0	n/a	n/a	n/a	n/a	n/a
4020525	RECOG_RESP	n/a	LTP286	ltpFR	6	5	1	LAUNDRY	803	1	n/a	0	n/a	n/a	n/a	n/a	n/a
4021060	RECOG_CONF	n/a	LTP286	ltpFR	6	5	1	LAUNDRY	803	n/a	3	0	n/a	n/a	n/a	n/a	n/a
4022858	RECOG_TARGET	n/a	LTP286	ltpFR	6	5	0	SCULPTURE	1258	1	3	1	n/a	n/a	n/a	n/a	n/a
4023490	RECOG_RESP	n/a	LTP286	ltpFR	6	5	0	SCULPTURE	1258	1	n/a	1	n/a	n/a	n/a	n/a	n/a
4024210	RECOG_CONF	n/a	LTP286	ltpFR	6	5	0	SCULPTURE	1258	n/a	3	1	n/a	n/a	n/a	n/a	n/a
4025887	RECOG_TARGET	n/a	LTP286	ltpFR	6	5	1	TROUT	1511	1	4	1	n/a	n/a	n/a	n/a	n/a
4026530	RECOG_RESP	n/a	LTP286	ltpFR	6	5	1	TROUT	1511	1	n/a	1	n/a	n/a	n/a	n/a	n/a
4027060	RECOG_CONF	n/a	LTP286	ltpFR	6	5	1	TROUT	1511	n/a	4	1	n/a	n/a	n/a	n/a	n/a
4029099	RECOG_LURE	n/a	LTP286	ltpFR	6	5	n/a	CINNAMON	310	0	4	n/a	n/a	n/a	n/a	n/a	n/a
4029900	RECOG_RESP	n/a	LTP286	ltpFR	6	5	n/a	CINNAMON	310	0	n/a	n/a	n/a	n/a	n/a	n/a	n/a
4030660	RECOG_CONF	n/a	LTP286	ltpFR	6	5	n/a	CINNAMON	310	n/a	4	n/a	n/a	n/a	n/a	n/a	n/a
4032327	RECOG_TARGET	n/a	LTP286	ltpFR	6	5	1	DISC	473	1	5	0	n/a	n/a	n/a	n/a	n/a
4032930	RECOG_RESP	n/a	LTP286	ltpFR	6	5	1	DISC	473	1	n/a	0	n/a	n/a	n/a	n/a	n/a
4033540	RECOG_CONF	n/a	LTP286	ltpFR	6	5	1	DISC	473	n/a	5	0	n/a	n/a	n/a	n/a	n/a
4035340	RECOG_LURE	n/a	LTP286	ltpFR	6	5	n/a	GROCERIES	663	0	4	n/a	n/a	n/a	n/a	n/a	n/a
4036100	RECOG_RESP	n/a	LTP286	ltpFR	6	5	n/a	GROCERIES	663	0	n/a	n/a	n/a	n/a	n/a	n/a	n/a
4036720	RECOG_CONF	n/a	LTP286	ltpFR	6	5	n/a	GROCERIES	663	n/a	4	n/a	n/a	n/a	n/a	n/a	n/a
4038568	RECOG_TARGET	n/a	LTP286	ltpFR	6	5	1	BOWL	158	1	3	0	n/a	n/a	n/a	n/a	n/a
4039315	RECOG_RESP	n/a	LTP286	ltpFR	6	5	1	BOWL	158	1	n/a	0	n/a	n/a	n/a	n/a	n/a
4040050	RECOG_CONF	n/a	LTP286	ltpFR	6	5	1	BOWL	158	n/a	3	0	n/a	n/a	n/a	n/a	n/a
4041747	RECOG_TARGET	n/a	LTP286	ltpFR	6	5	1	TWIN	1528	1	2	1	n/a	n/a	n/a	n/a	n/a
4042580	RECOG_RESP	n/a	LTP286	ltpFR	6	5	1	TWIN	1528	1	n/a	1	n/a	n/a	n/a	n/a	n/a
4043250	RECOG_CONF	n/a	LTP286	ltpFR	6	5	1	TWIN	1528	n/a	2	1	n/a	n/a	n/a	n/a	n/a
4044975	RECOG_TARGET	n/a	LTP286	ltpFR	6	5	1	CLAM	315	1	2	1	n/a	n/a	n/a	n/a	n/a
4045660	RECOG_RESP	n/a	LTP286	ltpFR	6	5	1	CLAM	315	1	n/a	1	n/a	n/a	n/a	n/a	n/a
4046370	RECOG_CONF	n/a	LTP286	ltpFR	6	5	1	CLAM	315	n/a	2	1	n/a	n/a	n/a	n/a	n/a
4050327	REC_START	n/a	LTP286	ltpFR	6	6	n/a	n/a	n/a	n/a	n/a	n/a	n/a	n/a	n/a	n/a	n/a
4050351	RECOG_TARGET	n/a	LTP286	ltpFR	6	6	0	BARN	89	1	4	1	n/a	n/a	n/a	n/a	n/a
4050942	RECOG_RESP	n/a	LTP286	ltpFR	6	6	0	BARN	89	1	n/a	1	n/a	n/a	n/a	n/a	n/a
4051477	RECOG_CONF	n/a	LTP286	ltpFR	6	6	0	BARN	89	n/a	4	1	n/a	n/a	n/a	n/a	n/a
4053313	RECOG_TARGET	n/a	LTP286	ltpFR	6	6	0	UNCLE	1536	1	5	1	n/a	n/a	n/a	n/a	n/a
4053867	RECOG_RESP	n/a	LTP286	ltpFR	6	6	0	UNCLE	1536	1	n/a	1	n/a	n/a	n/a	n/a	n/a
4054477	RECOG_CONF	n/a	LTP286	ltpFR	6	6	0	UNCLE	1536	n/a	5	1	n/a	n/a	n/a	n/a	n/a
4056341	RECOG_TARGET	n/a	LTP286	ltpFR	6	6	1	PISTON	1076	1	4	0	n/a	n/a	n/a	n/a	n/a
4056967	RECOG_RESP	n/a	LTP286	ltpFR	6	6	1	PISTON	1076	1	n/a	0	n/a	n/a	n/a	n/a	n/a
4057467	RECOG_CONF	n/a	LTP286	ltpFR	6	6	1	PISTON	1076	n/a	4	0	n/a	n/a	n/a	n/a	n/a
4059221	RECOG_LURE	n/a	LTP286	ltpFR	6	6	n/a	DYNAMITE	511	0	1	n/a	n/a	n/a	n/a	n/a	n/a
4060147	RECOG_RESP	n/a	LTP286	ltpFR	6	6	n/a	DYNAMITE	511	0	n/a	n/a	n/a	n/a	n/a	n/a	n/a
4060817	RECOG_CONF	n/a	LTP286	ltpFR	6	6	n/a	DYNAMITE	511	n/a	1	n/a	n/a	n/a	n/a	n/a	n/a
4062532	RECOG_LURE	n/a	LTP286	ltpFR	6	6	n/a	MEDAL	885	0	1	n/a	n/a	n/a	n/a	n/a	n/a
4063527	RECOG_RESP	n/a	LTP286	ltpFR	6	6	n/a	MEDAL	885	0	n/a	n/a	n/a	n/a	n/a	n/a	n/a
4064427	RECOG_CONF	n/a	LTP286	ltpFR	6	6	n/a	MEDAL	885	n/a	1	n/a	n/a	n/a	n/a	n/a	n/a
4066327	RECOG_TARGET	n/a	LTP286	ltpFR	6	6	0	SURF	1412	1	4	1	n/a	n/a	n/a	n/a	n/a
4066967	RECOG_RESP	n/a	LTP286	ltpFR	6	6	0	SURF	1412	1	n/a	1	n/a	n/a	n/a	n/a	n/a
4067657	RECOG_CONF	n/a	LTP286	ltpFR	6	6	0	SURF	1412	n/a	4	1	n/a	n/a	n/a	n/a	n/a
4069373	RECOG_TARGET	n/a	LTP286	ltpFR	6	6	1	CONTAINER	366	1	3	0	n/a	n/a	n/a	n/a	n/a
4069997	RECOG_RESP	n/a	LTP286	ltpFR	6	6	1	CONTAINER	366	1	n/a	0	n/a	n/a	n/a	n/a	n/a
4070647	RECOG_CONF	n/a	LTP286	ltpFR	6	6	1	CONTAINER	366	n/a	3	0	n/a	n/a	n/a	n/a	n/a
4072268	RECOG_TARGET	n/a	LTP286	ltpFR	6	6	1	TOAST	1471	1	3	0	n/a	n/a	n/a	n/a	n/a
4072862	RECOG_RESP	n/a	LTP286	ltpFR	6	6	1	TOAST	1471	1	n/a	0	n/a	n/a	n/a	n/a	n/a
4073527	RECOG_CONF	n/a	LTP286	ltpFR	6	6	1	TOAST	1471	n/a	3	0	n/a	n/a	n/a	n/a	n/a
4075263	RECOG_TARGET	n/a	LTP286	ltpFR	6	6	0	VEST	1559	1	3	0	n/a	n/a	n/a	n/a	n/a
4075882	RECOG_RESP	n/a	LTP286	ltpFR	6	6	0	VEST	1559	1	n/a	0	n/a	n/a	n/a	n/a	n/a
4076607	RECOG_CONF	n/a	LTP286	ltpFR	6	6	0	VEST	1559	n/a	3	0	n/a	n/a	n/a	n/a	n/a
4078142	RECOG_TARGET	n/a	LTP286	ltpFR	6	6	0	PIE	1062	1	4	0	n/a	n/a	n/a	n/a	n/a
4078837	RECOG_RESP	n/a	LTP286	ltpFR	6	6	0	PIE	1062	1	n/a	0	n/a	n/a	n/a	n/a	n/a
4079547	RECOG_CONF	n/a	LTP286	ltpFR	6	6	0	PIE	1062	n/a	4	0	n/a	n/a	n/a	n/a	n/a
4081288	RECOG_TARGET	n/a	LTP286	ltpFR	6	6	-1	SOFTBALL	1343	1	5	-1	n/a	n/a	n/a	n/a	n/a
4081877	RECOG_RESP	n/a	LTP286	ltpFR	6	6	-1	SOFTBALL	1343	1	n/a	-1	n/a	n/a	n/a	n/a	n/a
4082347	RECOG_CONF	n/a	LTP286	ltpFR	6	6	-1	SOFTBALL	1343	n/a	5	-1	n/a	n/a	n/a	n/a	n/a
4084300	RECOG_TARGET	n/a	LTP286	ltpFR	6	6	1	PEACH	1031	1	4	1	n/a	n/a	n/a	n/a	n/a
4084892	RECOG_RESP	n/a	LTP286	ltpFR	6	6	1	PEACH	1031	1	n/a	1	n/a	n/a	n/a	n/a	n/a
4085387	RECOG_CONF	n/a	LTP286	ltpFR	6	6	1	PEACH	1031	n/a	4	1	n/a	n/a	n/a	n/a	n/a
4087212	RECOG_TARGET	n/a	LTP286	ltpFR	6	6	-1	ERASER	538	1	2	-1	n/a	n/a	n/a	n/a	n/a
4087967	RECOG_RESP	n/a	LTP286	ltpFR	6	6	-1	ERASER	538	1	n/a	-1	n/a	n/a	n/a	n/a	n/a
4088647	RECOG_CONF	n/a	LTP286	ltpFR	6	6	-1	ERASER	538	n/a	2	-1	n/a	n/a	n/a	n/a	n/a
4090291	RECOG_LURE	n/a	LTP286	ltpFR	6	6	n/a	CHIPMUNK	304	0	4	n/a	n/a	n/a	n/a	n/a	n/a
4091157	RECOG_RESP	n/a	LTP286	ltpFR	6	6	n/a	CHIPMUNK	304	0	n/a	n/a	n/a	n/a	n/a	n/a	n/a
4091727	RECOG_CONF	n/a	LTP286	ltpFR	6	6	n/a	CHIPMUNK	304	n/a	4	n/a	n/a	n/a	n/a	n/a	n/a
4093470	RECOG_LURE	n/a	LTP286	ltpFR	6	6	n/a	RODENT	1204	0	3	n/a	n/a	n/a	n/a	n/a	n/a
4094252	RECOG_RESP	n/a	LTP286	ltpFR	6	6	n/a	RODENT	1204	0	n/a	n/a	n/a	n/a	n/a	n/a	n/a
4094817	RECOG_CONF	n/a	LTP286	ltpFR	6	6	n/a	RODENT	1204	n/a	3	n/a	n/a	n/a	n/a	n/a	n/a
4096615	RECOG_TARGET	n/a	LTP286	ltpFR	6	6	0	PAD	998	1	4	0	n/a	n/a	n/a	n/a	n/a
4097317	RECOG_RESP	n/a	LTP286	ltpFR	6	6	0	PAD	998	1	n/a	0	n/a	n/a	n/a	n/a	n/a
4097977	RECOG_CONF	n/a	LTP286	ltpFR	6	6	0	PAD	998	n/a	4	0	n/a	n/a	n/a	n/a	n/a
4099793	RECOG_LURE	n/a	LTP286	ltpFR	6	6	n/a	CREAM	402	0	2	n/a	n/a	n/a	n/a	n/a	n/a
4100632	RECOG_RESP	n/a	LTP286	ltpFR	6	6	n/a	CREAM	402	0	n/a	n/a	n/a	n/a	n/a	n/a	n/a
