mstime	trial_type	stim_file	subject	experiment	session	trial	task	item_name	item_num	recog_resp	recog_conf	resp	answer	test_x	test_y	test_z	color_r	color_g	color_b	case	font
0	SESS_START	n/a	LTP066	ltpFR	9	n/a	n/a	n/a	n/a	1	5	n/a	n/a	0	0	0	n/a	n/a	n/a	n/a	n/a
38150	START	n/a	LTP066	ltpFR	9	n/a	n/a	n/a	n/a	n/a	n/a	n/a	n/a	n/a	n/a	n/a	n/a	n/a	n/a	n/a	n/a
38174	PROB	n/a	LTP066	ltpFR	9	n/a	n/a	n/a	n/a	n/a	n/a	n/a	19	9	2	8	n/a	n/a	n/a	n/a	n/a
40757	PROB	n/a	LTP066	ltpFR	9	n/a	n/a	n/a	n/a	n/a	n/a	n/a	5	2	2	1	n/a	n/a	n/a	n/a	n/a
41799	PROB	n/a	LTP066	ltpFR	9	n/a	n/a	n/a	n/a	n/a	n/a	n/a	9	2	1	6	n/a	n/a	n/a	n/a	n/a
42799	PROB	n/a	LTP066	ltpFR	9	n/a	n/a	n/a	n/a	n/a	n/a	n/a	21	8	8	5	n/a	n/a	n/a	n/a	n/a
44074	PROB	n/a	LTP066	ltpFR	9	n/a	n/a	n/a	n/a	n/a	n/a	n/a	19	7	3	9	n/a	n/a	n/a	n/a	n/a
46107	PROB	n/a	LTP066	ltpFR	9	n/a	n/a	n/a	n/a	n/a	n/a	n/a	11	7	2	2	n/a	n/a	n/a	n/a	n/a
47382	PROB	n/a	LTP066	ltpFR	9	n/a	n/a	n/a	n/a	n/a	n/a	n/a	13	5	7	1	n/a	n/a	n/a	n/a	n/a
48440	PROB	n/a	LTP066	ltpFR	9	n/a	n/a	n/a	n/a	n/a	n/a	n/a	19	6	6	7	n/a	n/a	n/a	n/a	n/a
49915	PROB	n/a	LTP066	ltpFR	9	n/a	n/a	n/a	n/a	n/a	n/a	n/a	13	5	6	2	n/a	n/a	n/a	n/a	n/a
53823	PROB	n/a	LTP066	ltpFR	9	n/a	n/a	n/a	n/a	n/a	n/a	n/a	15	5	5	5	n/a	n/a	n/a	n/a	n/a
55273	PROB	n/a	LTP066	ltpFR	9	n/a	n/a	n/a	n/a	n/a	n/a	n/a	21	3	9	9	n/a	n/a	n/a	n/a	n/a
56641	STOP	n/a	LTP066	ltpFR	9	n/a	n/a	n/a	n/a	n/a	n/a	n/a	n/a	n/a	n/a	n/a	n/a	n/a	n/a	n/a	n/a
110778	WORD	wordpools/wasnorm_wordpool.txt	LTP066	ltpFR	9	1	1	CACTUS	215	0	n/a	1	n/a	0	0	0	0.57763671875	0.412841796875	1	upper	amplitud.ttf
114919	WORD	wordpools/wasnorm_wordpool.txt	LTP066	ltpFR	9	1	1	OUTDOORS	987	n/a	n/a	0	n/a	0	0	0	0.57763671875	0.412841796875	1	upper	amplitud.ttf
118786	WORD	wordpools/wasnorm_wordpool.txt	LTP066	ltpFR	9	1	0	MONUMENT	913	n/a	n/a	1	n/a	0	0	0	0.422607421875	0.5869140625	0	lower	zerothre.ttf
122851	WORD	wordpools/wasnorm_wordpool.txt	LTP066	ltpFR	9	1	0	MARSH	874	n/a	n/a	1	n/a	0	0	0	0.422607421875	0.5869140625	0	lower	zerothre.ttf
126868	WORD	wordpools/wasnorm_wordpool.txt	LTP066	ltpFR	9	1	0	PAIL	1002	n/a	n/a	1	n/a	0	0	0	0.422607421875	0.5869140625	0	lower	zerothre.ttf
130817	WORD	wordpools/wasnorm_wordpool.txt	LTP066	ltpFR	9	1	0	PREACHER	1119	n/a	n/a	1	n/a	0	0	0	0.422607421875	0.5869140625	0	lower	zerothre.ttf
134984	WORD	wordpools/wasnorm_wordpool.txt	LTP066	ltpFR	9	1	0	ICING	732	n/a	n/a	0	n/a	0	0	0	0.422607421875	0.5869140625	0	lower	zerothre.ttf
138808	WORD	wordpools/wasnorm_wordpool.txt	LTP066	ltpFR	9	1	0	FLOUR	583	n/a	n/a	0	n/a	0	0	0	0.422607421875	0.5869140625	0	lower	zerothre.ttf
142625	WORD	wordpools/wasnorm_wordpool.txt	LTP066	ltpFR	9	1	1	MOAT	903	n/a	n/a	0	n/a	0	0	0	0.57763671875	0.412841796875	1	upper	amplitud.ttf
146533	WORD	wordpools/wasnorm_wordpool.txt	LTP066	ltpFR	9	1	1	PEOPLE	1046	n/a	n/a	0	n/a	0	0	0	0.57763671875	0.412841796875	1	upper	amplitud.ttf
150358	WORD	wordpools/wasnorm_wordpool.txt	LTP066	ltpFR	9	1	1	FRIAR	605	n/a	n/a	1	n/a	0	0	0	0.57763671875	0.412841796875	1	upper	amplitud.ttf
154374	WORD	wordpools/wasnorm_wordpool.txt	LTP066	ltpFR	9	1	1	BROCCOLI	176	n/a	n/a	1	n/a	0	0	0	0.57763671875	0.412841796875	1	upper	amplitud.ttf
158190	WORD	wordpools/wasnorm_wordpool.txt	LTP066	ltpFR	9	1	0	CAKE	219	n/a	n/a	0	n/a	0	0	0	0.422607421875	0.5869140625	0	lower	zerothre.ttf
162307	WORD	wordpools/wasnorm_wordpool.txt	LTP066	ltpFR	9	1	0	COMMUNITY	356	n/a	n/a	1	n/a	0	0	0	0.422607421875	0.5869140625	0	lower	zerothre.ttf
166256	WORD	wordpools/wasnorm_wordpool.txt	LTP066	ltpFR	9	1	1	CLAW	319	n/a	n/a	0	n/a	0	0	0	0.57763671875	0.412841796875	1	upper	amplitud.ttf
170081	WORD	wordpools/wasnorm_wordpool.txt	LTP066	ltpFR	9	1	1	BISON	131	n/a	n/a	1	n/a	0	0	0	0.57763671875	0.412841796875	1	upper	amplitud.ttf
173090	START	n/a	LTP066	ltpFR	9	n/a	n/a	n/a	n/a	n/a	n/a	n/a	n/a	n/a	n/a	n/a	n/a	n/a	n/a	n/a	n/a
174056	PROB	n/a	LTP066	ltpFR	9	n/a	n/a	n/a	n/a	n/a	n/a	n/a	12	9	1	2	n/a	n/a	n/a	n/a	n/a
177406	PROB	n/a	LTP066	ltpFR	9	n/a	n/a	n/a	n/a	n/a	n/a	n/a	14	4	8	2	n/a	n/a	n/a	n/a	n/a
178739	PROB	n/a	LTP066	ltpFR	9	n/a	n/a	n/a	n/a	n/a	n/a	n/a	9	4	2	3	n/a	n/a	n/a	n/a	n/a
180385	STOP	n/a	LTP066	ltpFR	9	n/a	n/a	n/a	n/a	n/a	n/a	n/a	n/a	n/a	n/a	n/a	n/a	n/a	n/a	n/a	n/a
182939	REC_START	n/a	LTP066	ltpFR	9	1	n/a	n/a	n/a	n/a	n/a	n/a	n/a	0	0	0	n/a	n/a	n/a	n/a	n/a
184994	REC_WORD	wordpools/wasnorm_wordpool.txt	LTP066	ltpFR	9	1	1	CACTUS	215	n/a	n/a	1	n/a	0	0	0	n/a	n/a	n/a	n/a	n/a
187020	REC_WORD	wordpools/wasnorm_wordpool.txt	LTP066	ltpFR	9	1	1	OUTDOORS	987	n/a	n/a	0	n/a	0	0	0	n/a	n/a	n/a	n/a	n/a
191559	REC_WORD	wordpools/wasnorm_wordpool.txt	LTP066	ltpFR	9	1	0	MONUMENT	913	n/a	n/a	1	n/a	0	0	0	n/a	n/a	n/a	n/a	n/a
193510	REC_WORD	wordpools/wasnorm_wordpool.txt	LTP066	ltpFR	9	1	0	PAIL	1002	n/a	n/a	1	n/a	0	0	0	n/a	n/a	n/a	n/a	n/a
194917	REC_WORD	wordpools/wasnorm_wordpool.txt	LTP066	ltpFR	9	1	0	PREACHER	1119	n/a	n/a	1	n/a	0	0	0	n/a	n/a	n/a	n/a	n/a
196638	REC_WORD	wordpools/wasnorm_wordpool.txt	LTP066	ltpFR	9	1	0	ICING	732	n/a	n/a	0	n/a	0	0	0	n/a	n/a	n/a	n/a	n/a
200808	REC_WORD	wordpools/wasnorm_wordpool.txt	LTP066	ltpFR	9	1	1	PEOPLE	1046	n/a	n/a	0	n/a	0	0	0	n/a	n/a	n/a	n/a	n/a
202205	REC_WORD	wordpools/wasnorm_wordpool.txt	LTP066	ltpFR	9	1	0	COMMUNITY	356	n/a	n/a	1	n/a	0	0	0	n/a	n/a	n/a	n/a	n/a
208745	REC_WORD	wordpools/wasnorm_wordpool.txt	LTP066	ltpFR	9	1	1	BISON	131	n/a	n/a	1	n/a	0	0	0	n/a	n/a	n/a	n/a	n/a
211349	REC_WORD	wordpools/wasnorm_wordpool.txt	LTP066	ltpFR	9	1	1	BROCCOLI	176	n/a	n/a	1	n/a	0	0	0	n/a	n/a	n/a	n/a	n/a
213509	REC_WORD	wordpools/wasnorm_wordpool.txt	LTP066	ltpFR	9	1	1	CLAW	319	n/a	n/a	0	n/a	0	0	0	n/a	n/a	n/a	n/a	n/a
247018	REC_WORD	wordpools/wasnorm_wordpool.txt	LTP066	ltpFR	9	1	1	FRIAR	605	n/a	n/a	1	n/a	0	0	0	n/a	n/a	n/a	n/a	n/a
259742	START	n/a	LTP066	ltpFR	9	n/a	n/a	n/a	n/a	n/a	n/a	n/a	n/a	n/a	n/a	n/a	n/a	n/a	n/a	n/a	n/a
261249	PROB	n/a	LTP066	ltpFR	9	n/a	n/a	n/a	n/a	n/a	n/a	n/a	11	3	4	4	n/a	n/a	n/a	n/a	n/a
262899	PROB	n/a	LTP066	ltpFR	9	n/a	n/a	n/a	n/a	n/a	n/a	n/a	15	7	4	4	n/a	n/a	n/a	n/a	n/a
264841	PROB	n/a	LTP066	ltpFR	9	n/a	n/a	n/a	n/a	n/a	n/a	n/a	15	2	5	8	n/a	n/a	n/a	n/a	n/a
266401	STOP	n/a	LTP066	ltpFR	9	n/a	n/a	n/a	n/a	n/a	n/a	n/a	n/a	n/a	n/a	n/a	n/a	n/a	n/a	n/a	n/a
268783	WORD	wordpools/wasnorm_wordpool.txt	LTP066	ltpFR	9	2	0	BLUEJAY	141	n/a	n/a	1	n/a	0	0	0	0.422607421875	0.5869140625	0	lower	zerothre.ttf
271791	START	n/a	LTP066	ltpFR	9	n/a	n/a	n/a	n/a	n/a	n/a	n/a	n/a	n/a	n/a	n/a	n/a	n/a	n/a	n/a	n/a
272791	PROB	n/a	LTP066	ltpFR	9	n/a	n/a	n/a	n/a	n/a	n/a	n/a	6	2	3	1	n/a	n/a	n/a	n/a	n/a
274323	PROB	n/a	LTP066	ltpFR	9	n/a	n/a	n/a	n/a	n/a	n/a	n/a	15	7	2	6	n/a	n/a	n/a	n/a	n/a
275507	PROB	n/a	LTP066	ltpFR	9	n/a	n/a	n/a	n/a	n/a	n/a	n/a	18	8	8	2	n/a	n/a	n/a	n/a	n/a
276640	PROB	n/a	LTP066	ltpFR	9	n/a	n/a	n/a	n/a	n/a	n/a	n/a	10	4	3	3	n/a	n/a	n/a	n/a	n/a
279217	STOP	n/a	LTP066	ltpFR	9	n/a	n/a	n/a	n/a	n/a	n/a	n/a	n/a	n/a	n/a	n/a	n/a	n/a	n/a	n/a	n/a
280774	WORD	wordpools/wasnorm_wordpool.txt	LTP066	ltpFR	9	2	0	GARDEN	623	n/a	n/a	1	n/a	0	0	0	0.422607421875	0.5869140625	0	lower	zerothre.ttf
283783	START	n/a	LTP066	ltpFR	9	n/a	n/a	n/a	n/a	n/a	n/a	n/a	n/a	n/a	n/a	n/a	n/a	n/a	n/a	n/a	n/a
284873	PROB	n/a	LTP066	ltpFR	9	n/a	n/a	n/a	n/a	n/a	n/a	n/a	10	1	8	1	n/a	n/a	n/a	n/a	n/a
286997	PROB	n/a	LTP066	ltpFR	9	n/a	n/a	n/a	n/a	n/a	n/a	n/a	12	7	2	3	n/a	n/a	n/a	n/a	n/a
288139	PROB	n/a	LTP066	ltpFR	9	n/a	n/a	n/a	n/a	n/a	n/a	n/a	18	5	6	7	n/a	n/a	n/a	n/a	n/a
289539	PROB	n/a	LTP066	ltpFR	9	n/a	n/a	n/a	n/a	n/a	n/a	n/a	19	9	7	3	n/a	n/a	n/a	n/a	n/a
291473	STOP	n/a	LTP066	ltpFR	9	n/a	n/a	n/a	n/a	n/a	n/a	n/a	n/a	n/a	n/a	n/a	n/a	n/a	n/a	n/a	n/a
292689	WORD	wordpools/wasnorm_wordpool.txt	LTP066	ltpFR	9	2	0	LOG	841	n/a	n/a	1	n/a	0	0	0	0.422607421875	0.5869140625	0	lower	zerothre.ttf
295697	START	n/a	LTP066	ltpFR	9	n/a	n/a	n/a	n/a	n/a	n/a	n/a	n/a	n/a	n/a	n/a	n/a	n/a	n/a	n/a	n/a
296680	PROB	n/a	LTP066	ltpFR	9	n/a	n/a	n/a	n/a	n/a	n/a	n/a	7	1	2	4	n/a	n/a	n/a	n/a	n/a
298388	PROB	n/a	LTP066	ltpFR	9	n/a	n/a	n/a	n/a	n/a	n/a	n/a	11	4	1	6	n/a	n/a	n/a	n/a	n/a
299480	PROB	n/a	LTP066	ltpFR	9	n/a	n/a	n/a	n/a	n/a	n/a	n/a	22	7	8	7	n/a	n/a	n/a	n/a	n/a
301488	PROB	n/a	LTP066	ltpFR	9	n/a	n/a	n/a	n/a	n/a	n/a	n/a	10	2	5	3	n/a	n/a	n/a	n/a	n/a
302713	STOP	n/a	LTP066	ltpFR	9	n/a	n/a	n/a	n/a	n/a	n/a	n/a	n/a	n/a	n/a	n/a	n/a	n/a	n/a	n/a	n/a
304789	WORD	wordpools/wasnorm_wordpool.txt	LTP066	ltpFR	9	2	0	FURNITURE	616	n/a	n/a	1	n/a	0	0	0	0.422607421875	0.5869140625	0	lower	zerothre.ttf
307796	START	n/a	LTP066	ltpFR	9	n/a	n/a	n/a	n/a	n/a	n/a	n/a	n/a	n/a	n/a	n/a	n/a	n/a	n/a	n/a	n/a
308704	PROB	n/a	LTP066	ltpFR	9	n/a	n/a	n/a	n/a	n/a	n/a	n/a	17	8	2	7	n/a	n/a	n/a	n/a	n/a
310537	PROB	n/a	LTP066	ltpFR	9	n/a	n/a	n/a	n/a	n/a	n/a	n/a	15	5	2	8	n/a	n/a	n/a	n/a	n/a
312929	PROB	n/a	LTP066	ltpFR	9	n/a	n/a	n/a	n/a	n/a	n/a	n/a	13	3	7	3	n/a	n/a	n/a	n/a	n/a
315786	STOP	n/a	LTP066	ltpFR	9	n/a	n/a	n/a	n/a	n/a	n/a	n/a	n/a	n/a	n/a	n/a	n/a	n/a	n/a	n/a	n/a
316670	WORD	wordpools/wasnorm_wordpool.txt	LTP066	ltpFR	9	2	1	VALVE	1546	n/a	n/a	0	n/a	0	0	0	0.57763671875	0.412841796875	1	upper	amplitud.ttf
319679	START	n/a	LTP066	ltpFR	9	n/a	n/a	n/a	n/a	n/a	n/a	n/a	n/a	n/a	n/a	n/a	n/a	n/a	n/a	n/a	n/a
320753	PROB	n/a	LTP066	ltpFR	9	n/a	n/a	n/a	n/a	n/a	n/a	n/a	12	9	1	2	n/a	n/a	n/a	n/a	n/a
322370	PROB	n/a	LTP066	ltpFR	9	n/a	n/a	n/a	n/a	n/a	n/a	n/a	18	6	5	7	n/a	n/a	n/a	n/a	n/a
323720	PROB	n/a	LTP066	ltpFR	9	n/a	n/a	n/a	n/a	n/a	n/a	n/a	12	7	3	2	n/a	n/a	n/a	n/a	n/a
324845	PROB	n/a	LTP066	ltpFR	9	n/a	n/a	n/a	n/a	n/a	n/a	n/a	7	2	4	1	n/a	n/a	n/a	n/a	n/a
326028	PROB	n/a	LTP066	ltpFR	9	n/a	n/a	n/a	n/a	n/a	n/a	n/a	11	4	1	6	n/a	n/a	n/a	n/a	n/a
327001	STOP	n/a	LTP066	ltpFR	9	n/a	n/a	n/a	n/a	n/a	n/a	n/a	n/a	n/a	n/a	n/a	n/a	n/a	n/a	n/a	n/a
328619	WORD	wordpools/wasnorm_wordpool.txt	LTP066	ltpFR	9	2	1	CRIMINAL	409	n/a	n/a	1	n/a	0	0	0	0.57763671875	0.412841796875	1	upper	amplitud.ttf
331628	START	n/a	LTP066	ltpFR	9	n/a	n/a	n/a	n/a	n/a	n/a	n/a	n/a	n/a	n/a	n/a	n/a	n/a	n/a	n/a	n/a
332744	PROB	n/a	LTP066	ltpFR	9	n/a	n/a	n/a	n/a	n/a	n/a	n/a	7	1	1	5	n/a	n/a	n/a	n/a	n/a
334711	PROB	n/a	LTP066	ltpFR	9	n/a	n/a	n/a	n/a	n/a	n/a	n/a	11	1	6	4	n/a	n/a	n/a	n/a	n/a
335686	PROB	n/a	LTP066	ltpFR	9	n/a	n/a	n/a	n/a	n/a	n/a	n/a	15	3	3	9	n/a	n/a	n/a	n/a	n/a
336694	PROB	n/a	LTP066	ltpFR	9	n/a	n/a	n/a	n/a	n/a	n/a	n/a	5	1	2	2	n/a	n/a	n/a	n/a	n/a
337702	PROB	n/a	LTP066	ltpFR	9	n/a	n/a	n/a	n/a	n/a	n/a	n/a	12	1	6	5	n/a	n/a	n/a	n/a	n/a
338729	STOP	n/a	LTP066	ltpFR	9	n/a	n/a	n/a	n/a	n/a	n/a	n/a	n/a	n/a	n/a	n/a	n/a	n/a	n/a	n/a	n/a
340635	WORD	wordpools/wasnorm_wordpool.txt	LTP066	ltpFR	9	2	1	HOSTAGE	722	n/a	n/a	1	n/a	0	0	0	0.57763671875	0.412841796875	1	upper	amplitud.ttf
343644	START	n/a	LTP066	ltpFR	9	n/a	n/a	n/a	n/a	n/a	n/a	n/a	n/a	n/a	n/a	n/a	n/a	n/a	n/a	n/a	n/a
344502	PROB	n/a	LTP066	ltpFR	9	n/a	n/a	n/a	n/a	n/a	n/a	n/a	8	5	2	1	n/a	n/a	n/a	n/a	n/a
345868	PROB	n/a	LTP066	ltpFR	9	n/a	n/a	n/a	n/a	n/a	n/a	n/a	11	6	4	1	n/a	n/a	n/a	n/a	n/a
346876	PROB	n/a	LTP066	ltpFR	9	n/a	n/a	n/a	n/a	n/a	n/a	n/a	22	3	8	7	n/a	n/a	n/a	n/a	n/a
348485	PROB	n/a	LTP066	ltpFR	9	n/a	n/a	n/a	n/a	n/a	n/a	n/a	10	4	5	1	n/a	n/a	n/a	n/a	n/a
350085	PROB	n/a	LTP066	ltpFR	9	n/a	n/a	n/a	n/a	n/a	n/a	n/a	14	7	1	6	n/a	n/a	n/a	n/a	n/a
351193	STOP	n/a	LTP066	ltpFR	9	n/a	n/a	n/a	n/a	n/a	n/a	n/a	n/a	n/a	n/a	n/a	n/a	n/a	n/a	n/a	n/a
352843	WORD	wordpools/wasnorm_wordpool.txt	LTP066	ltpFR	9	2	1	DEODORANT	448	n/a	n/a	0	n/a	0	0	0	0.57763671875	0.412841796875	1	upper	amplitud.ttf
355851	START	n/a	LTP066	ltpFR	9	n/a	n/a	n/a	n/a	n/a	n/a	n/a	n/a	n/a	n/a	n/a	n/a	n/a	n/a	n/a	n/a
356777	PROB	n/a	LTP066	ltpFR	9	n/a	n/a	n/a	n/a	n/a	n/a	n/a	7	1	1	5	n/a	n/a	n/a	n/a	n/a
357976	PROB	n/a	LTP066	ltpFR	9	n/a	n/a	n/a	n/a	n/a	n/a	n/a	18	5	6	9	n/a	n/a	n/a	n/a	n/a
360459	PROB	n/a	LTP066	ltpFR	9	n/a	n/a	n/a	n/a	n/a	n/a	n/a	13	6	1	6	n/a	n/a	n/a	n/a	n/a
361684	PROB	n/a	LTP066	ltpFR	9	n/a	n/a	n/a	n/a	n/a	n/a	n/a	23	9	5	9	n/a	n/a	n/a	n/a	n/a
363817	STOP	n/a	LTP066	ltpFR	9	n/a	n/a	n/a	n/a	n/a	n/a	n/a	n/a	n/a	n/a	n/a	n/a	n/a	n/a	n/a	n/a
364942	WORD	wordpools/wasnorm_wordpool.txt	LTP066	ltpFR	9	2	1	RUST	1219	n/a	n/a	0	n/a	0	0	0	0.57763671875	0.412841796875	1	upper	amplitud.ttf
367950	START	n/a	LTP066	ltpFR	9	n/a	n/a	n/a	n/a	n/a	n/a	n/a	n/a	n/a	n/a	n/a	n/a	n/a	n/a	n/a	n/a
368942	PROB	n/a	LTP066	ltpFR	9	n/a	n/a	n/a	n/a	n/a	n/a	n/a	12	3	8	1	n/a	n/a	n/a	n/a	n/a
370175	PROB	n/a	LTP066	ltpFR	9	n/a	n/a	n/a	n/a	n/a	n/a	n/a	13	3	2	8	n/a	n/a	n/a	n/a	n/a
371225	PROB	n/a	LTP066	ltpFR	9	n/a	n/a	n/a	n/a	n/a	n/a	n/a	13	1	7	5	n/a	n/a	n/a	n/a	n/a
372166	PROB	n/a	LTP066	ltpFR	9	n/a	n/a	n/a	n/a	n/a	n/a	n/a	8	1	6	1	n/a	n/a	n/a	n/a	n/a
373158	PROB	n/a	LTP066	ltpFR	9	n/a	n/a	n/a	n/a	n/a	n/a	n/a	11	3	5	3	n/a	n/a	n/a	n/a	n/a
374529	STOP	n/a	LTP066	ltpFR	9	n/a	n/a	n/a	n/a	n/a	n/a	n/a	n/a	n/a	n/a	n/a	n/a	n/a	n/a	n/a	n/a
377116	WORD	wordpools/wasnorm_wordpool.txt	LTP066	ltpFR	9	2	1	DAISY	435	n/a	n/a	1	n/a	0	0	0	0.57763671875	0.412841796875	1	upper	amplitud.ttf
380124	START	n/a	LTP066	ltpFR	9	n/a	n/a	n/a	n/a	n/a	n/a	n/a	n/a	n/a	n/a	n/a	n/a	n/a	n/a	n/a	n/a
381266	PROB	n/a	LTP066	ltpFR	9	n/a	n/a	n/a	n/a	n/a	n/a	n/a	6	2	1	3	n/a	n/a	n/a	n/a	n/a
383240	PROB	n/a	LTP066	ltpFR	9	n/a	n/a	n/a	n/a	n/a	n/a	n/a	24	9	9	7	n/a	n/a	n/a	n/a	n/a
386157	PROB	n/a	LTP066	ltpFR	9	n/a	n/a	n/a	n/a	n/a	n/a	n/a	20	4	7	9	n/a	n/a	n/a	n/a	n/a
387825	STOP	n/a	LTP066	ltpFR	9	n/a	n/a	n/a	n/a	n/a	n/a	n/a	n/a	n/a	n/a	n/a	n/a	n/a	n/a	n/a	n/a
389090	WORD	wordpools/wasnorm_wordpool.txt	LTP066	ltpFR	9	2	0	ROSE	1212	n/a	n/a	0	n/a	0	0	0	0.422607421875	0.5869140625	0	lower	zerothre.ttf
392099	START	n/a	LTP066	ltpFR	9	n/a	n/a	n/a	n/a	n/a	n/a	n/a	n/a	n/a	n/a	n/a	n/a	n/a	n/a	n/a	n/a
393206	PROB	n/a	LTP066	ltpFR	9	n/a	n/a	n/a	n/a	n/a	n/a	n/a	10	7	1	2	n/a	n/a	n/a	n/a	n/a
394648	PROB	n/a	LTP066	ltpFR	9	n/a	n/a	n/a	n/a	n/a	n/a	n/a	15	5	8	2	n/a	n/a	n/a	n/a	n/a
396040	PROB	n/a	LTP066	ltpFR	9	n/a	n/a	n/a	n/a	n/a	n/a	n/a	19	4	8	7	n/a	n/a	n/a	n/a	n/a
400099	STOP	n/a	LTP066	ltpFR	9	n/a	n/a	n/a	n/a	n/a	n/a	n/a	n/a	n/a	n/a	n/a	n/a	n/a	n/a	n/a	n/a
401297	WORD	wordpools/wasnorm_wordpool.txt	LTP066	ltpFR	9	2	0	CHILD	299	n/a	n/a	1	n/a	0	0	0	0.422607421875	0.5869140625	0	lower	zerothre.ttf
404306	START	n/a	LTP066	ltpFR	9	n/a	n/a	n/a	n/a	n/a	n/a	n/a	n/a	n/a	n/a	n/a	n/a	n/a	n/a	n/a	n/a
405255	PROB	n/a	LTP066	ltpFR	9	n/a	n/a	n/a	n/a	n/a	n/a	n/a	19	9	4	6	n/a	n/a	n/a	n/a	n/a
406647	PROB	n/a	LTP066	ltpFR	9	n/a	n/a	n/a	n/a	n/a	n/a	n/a	17	1	7	9	n/a	n/a	n/a	n/a	n/a
408289	PROB	n/a	LTP066	ltpFR	9	n/a	n/a	n/a	n/a	n/a	n/a	n/a	11	1	6	4	n/a	n/a	n/a	n/a	n/a
409364	PROB	n/a	LTP066	ltpFR	9	n/a	n/a	n/a	n/a	n/a	n/a	n/a	15	1	7	7	n/a	n/a	n/a	n/a	n/a
410805	PROB	n/a	LTP066	ltpFR	9	n/a	n/a	n/a	n/a	n/a	n/a	n/a	9	3	2	4	n/a	n/a	n/a	n/a	n/a
411833	STOP	n/a	LTP066	ltpFR	9	n/a	n/a	n/a	n/a	n/a	n/a	n/a	n/a	n/a	n/a	n/a	n/a	n/a	n/a	n/a	n/a
413513	WORD	wordpools/wasnorm_wordpool.txt	LTP066	ltpFR	9	2	0	SKYSCRAPER	1322	n/a	n/a	1	n/a	0	0	0	0.422607421875	0.5869140625	0	lower	zerothre.ttf
416522	START	n/a	LTP066	ltpFR	9	n/a	n/a	n/a	n/a	n/a	n/a	n/a	n/a	n/a	n/a	n/a	n/a	n/a	n/a	n/a	n/a
417471	PROB	n/a	LTP066	ltpFR	9	n/a	n/a	n/a	n/a	n/a	n/a	n/a	18	6	6	6	n/a	n/a	n/a	n/a	n/a
418746	PROB	n/a	LTP066	ltpFR	9	n/a	n/a	n/a	n/a	n/a	n/a	n/a	15	5	5	5	n/a	n/a	n/a	n/a	n/a
419679	PROB	n/a	LTP066	ltpFR	9	n/a	n/a	n/a	n/a	n/a	n/a	n/a	24	9	6	9	n/a	n/a	n/a	n/a	n/a
422696	PROB	n/a	LTP066	ltpFR	9	n/a	n/a	n/a	n/a	n/a	n/a	n/a	15	2	9	4	n/a	n/a	n/a	n/a	n/a
423921	STOP	n/a	LTP066	ltpFR	9	n/a	n/a	n/a	n/a	n/a	n/a	n/a	n/a	n/a	n/a	n/a	n/a	n/a	n/a	n/a	n/a
425637	WORD	wordpools/wasnorm_wordpool.txt	LTP066	ltpFR	9	2	0	YARD	1630	n/a	n/a	1	n/a	0	0	0	0.422607421875	0.5869140625	0	lower	zerothre.ttf
428638	START	n/a	LTP066	ltpFR	9	n/a	n/a	n/a	n/a	n/a	n/a	n/a	n/a	n/a	n/a	n/a	n/a	n/a	n/a	n/a	n/a
429754	PROB	n/a	LTP066	ltpFR	9	n/a	n/a	n/a	n/a	n/a	n/a	n/a	20	4	7	9	n/a	n/a	n/a	n/a	n/a
431204	PROB	n/a	LTP066	ltpFR	9	n/a	n/a	n/a	n/a	n/a	n/a	n/a	13	2	6	5	n/a	n/a	n/a	n/a	n/a
432562	PROB	n/a	LTP066	ltpFR	9	n/a	n/a	n/a	n/a	n/a	n/a	n/a	12	1	8	3	n/a	n/a	n/a	n/a	n/a
433612	PROB	n/a	LTP066	ltpFR	9	n/a	n/a	n/a	n/a	n/a	n/a	n/a	18	5	5	8	n/a	n/a	n/a	n/a	n/a
434853	PROB	n/a	LTP066	ltpFR	9	n/a	n/a	n/a	n/a	n/a	n/a	n/a	9	1	4	4	n/a	n/a	n/a	n/a	n/a
436441	STOP	n/a	LTP066	ltpFR	9	n/a	n/a	n/a	n/a	n/a	n/a	n/a	n/a	n/a	n/a	n/a	n/a	n/a	n/a	n/a	n/a
437603	WORD	wordpools/wasnorm_wordpool.txt	LTP066	ltpFR	9	2	1	PERFUME	1049	n/a	n/a	0	n/a	0	0	0	0.57763671875	0.412841796875	1	upper	amplitud.ttf
440612	START	n/a	LTP066	ltpFR	9	n/a	n/a	n/a	n/a	n/a	n/a	n/a	n/a	n/a	n/a	n/a	n/a	n/a	n/a	n/a	n/a
441779	PROB	n/a	LTP066	ltpFR	9	n/a	n/a	n/a	n/a	n/a	n/a	n/a	11	4	2	7	n/a	n/a	n/a	n/a	n/a
442928	PROB	n/a	LTP066	ltpFR	9	n/a	n/a	n/a	n/a	n/a	n/a	n/a	19	7	9	3	n/a	n/a	n/a	n/a	n/a
445478	PROB	n/a	LTP066	ltpFR	9	n/a	n/a	n/a	n/a	n/a	n/a	n/a	21	8	9	4	n/a	n/a	n/a	n/a	n/a
447537	STOP	n/a	LTP066	ltpFR	9	n/a	n/a	n/a	n/a	n/a	n/a	n/a	n/a	n/a	n/a	n/a	n/a	n/a	n/a	n/a	n/a
449444	WORD	wordpools/wasnorm_wordpool.txt	LTP066	ltpFR	9	2	1	PAD	998	n/a	n/a	0	n/a	0	0	0	0.57763671875	0.412841796875	1	upper	amplitud.ttf
452452	START	n/a	LTP066	ltpFR	9	n/a	n/a	n/a	n/a	n/a	n/a	n/a	n/a	n/a	n/a	n/a	n/a	n/a	n/a	n/a	n/a
453652	PROB	n/a	LTP066	ltpFR	9	n/a	n/a	n/a	n/a	n/a	n/a	n/a	11	1	6	4	n/a	n/a	n/a	n/a	n/a
454770	PROB	n/a	LTP066	ltpFR	9	n/a	n/a	n/a	n/a	n/a	n/a	n/a	19	5	8	6	n/a	n/a	n/a	n/a	n/a
456152	PROB	n/a	LTP066	ltpFR	9	n/a	n/a	n/a	n/a	n/a	n/a	n/a	22	7	8	7	n/a	n/a	n/a	n/a	n/a
457527	PROB	n/a	LTP066	ltpFR	9	n/a	n/a	n/a	n/a	n/a	n/a	n/a	7	2	1	4	n/a	n/a	n/a	n/a	n/a
458618	PROB	n/a	LTP066	ltpFR	9	n/a	n/a	n/a	n/a	n/a	n/a	n/a	13	3	4	6	n/a	n/a	n/a	n/a	n/a
459713	STOP	n/a	LTP066	ltpFR	9	n/a	n/a	n/a	n/a	n/a	n/a	n/a	n/a	n/a	n/a	n/a	n/a	n/a	n/a	n/a	n/a
462302	REC_START	n/a	LTP066	ltpFR	9	2	n/a	n/a	n/a	n/a	n/a	n/a	n/a	0	0	0	n/a	n/a	n/a	n/a	n/a
465015	REC_WORD	wordpools/wasnorm_wordpool.txt	LTP066	ltpFR	9	2	0	FURNITURE	616	n/a	n/a	1	n/a	0	0	0	n/a	n/a	n/a	n/a	n/a
472000	REC_WORD	wordpools/wasnorm_wordpool.txt	LTP066	ltpFR	9	2	1	DAISY	435	n/a	n/a	1	n/a	0	0	0	n/a	n/a	n/a	n/a	n/a
475103	REC_WORD	wordpools/wasnorm_wordpool.txt	LTP066	ltpFR	9	2	0	ROSE	1212	n/a	n/a	0	n/a	0	0	0	n/a	n/a	n/a	n/a	n/a
476529	REC_WORD	wordpools/wasnorm_wordpool.txt	LTP066	ltpFR	9	2	0	CHILD	299	n/a	n/a	1	n/a	0	0	0	n/a	n/a	n/a	n/a	n/a
479173	REC_WORD	wordpools/wasnorm_wordpool.txt	LTP066	ltpFR	9	2	0	SKYSCRAPER	1322	n/a	n/a	1	n/a	0	0	0	n/a	n/a	n/a	n/a	n/a
484641	REC_WORD	wordpools/wasnorm_wordpool.txt	LTP066	ltpFR	9	2	1	PAD	998	n/a	n/a	0	n/a	0	0	0	n/a	n/a	n/a	n/a	n/a
492663	REC_WORD	wordpools/wasnorm_wordpool.txt	LTP066	ltpFR	9	2	0	FURNITURE	616	n/a	n/a	1	n/a	0	0	0	n/a	n/a	n/a	n/a	n/a
496404	REC_WORD	wordpools/wasnorm_wordpool.txt	LTP066	ltpFR	9	2	1	VALVE	1546	n/a	n/a	0	n/a	0	0	0	n/a	n/a	n/a	n/a	n/a
498135	REC_WORD	wordpools/wasnorm_wordpool.txt	LTP066	ltpFR	9	2	1	CRIMINAL	409	n/a	n/a	1	n/a	0	0	0	n/a	n/a	n/a	n/a	n/a
500156	REC_WORD	wordpools/wasnorm_wordpool.txt	LTP066	ltpFR	9	2	1	HOSTAGE	722	n/a	n/a	1	n/a	0	0	0	n/a	n/a	n/a	n/a	n/a
501662	REC_WORD	wordpools/wasnorm_wordpool.txt	LTP066	ltpFR	9	2	1	DEODORANT	448	n/a	n/a	0	n/a	0	0	0	n/a	n/a	n/a	n/a	n/a
507773	REC_WORD	wordpools/wasnorm_wordpool.txt	LTP066	ltpFR	9	2	0	BLUEJAY	141	n/a	n/a	1	n/a	0	0	0	n/a	n/a	n/a	n/a	n/a
510747	REC_WORD	wordpools/wasnorm_wordpool.txt	LTP066	ltpFR	9	2	0	LOG	841	n/a	n/a	1	n/a	0	0	0	n/a	n/a	n/a	n/a	n/a
512952	REC_WORD	wordpools/wasnorm_wordpool.txt	LTP066	ltpFR	9	2	0	GARDEN	623	n/a	n/a	1	n/a	0	0	0	n/a	n/a	n/a	n/a	n/a
540737	WORD	wordpools/wasnorm_wordpool.txt	LTP066	ltpFR	9	3	1	STALLION	1369	n/a	n/a	1	n/a	0	0	0	0.57763671875	0.412841796875	1	upper	amplitud.ttf
544820	WORD	wordpools/wasnorm_wordpool.txt	LTP066	ltpFR	9	3	1	DONKEY	484	n/a	n/a	1	n/a	0	0	0	0.57763671875	0.412841796875	1	upper	amplitud.ttf
548745	WORD	wordpools/wasnorm_wordpool.txt	LTP066	ltpFR	9	3	1	WAX	1597	n/a	n/a	0	n/a	0	0	0	0.57763671875	0.412841796875	1	upper	amplitud.ttf
552861	WORD	wordpools/wasnorm_wordpool.txt	LTP066	ltpFR	9	3	1	LACE	792	n/a	n/a	0	n/a	0	0	0	0.57763671875	0.412841796875	1	upper	amplitud.ttf
556861	WORD	wordpools/wasnorm_wordpool.txt	LTP066	ltpFR	9	3	1	BACKBONE	66	n/a	n/a	1	n/a	0	0	0	0.57763671875	0.412841796875	1	upper	amplitud.ttf
560911	WORD	wordpools/wasnorm_wordpool.txt	LTP066	ltpFR	9	3	1	INDIAN	736	n/a	n/a	1	n/a	0	0	0	0.57763671875	0.412841796875	1	upper	amplitud.ttf
564910	WORD	wordpools/wasnorm_wordpool.txt	LTP066	ltpFR	9	3	1	BAY	102	n/a	n/a	0	n/a	0	0	0	0.57763671875	0.412841796875	1	upper	amplitud.ttf
568968	WORD	wordpools/wasnorm_wordpool.txt	LTP066	ltpFR	9	3	1	TEAPOT	1442	n/a	n/a	0	n/a	0	0	0	0.57763671875	0.412841796875	1	upper	amplitud.ttf
573160	WORD	wordpools/wasnorm_wordpool.txt	LTP066	ltpFR	9	3	1	SEAFOOD	1260	n/a	n/a	1	n/a	0	0	0	0.57763671875	0.412841796875	1	upper	amplitud.ttf
577068	WORD	wordpools/wasnorm_wordpool.txt	LTP066	ltpFR	9	3	1	LINT	826	n/a	n/a	0	n/a	0	0	0	0.57763671875	0.412841796875	1	upper	amplitud.ttf
581193	WORD	wordpools/wasnorm_wordpool.txt	LTP066	ltpFR	9	3	1	JEEP	753	n/a	n/a	0	n/a	0	0	0	0.57763671875	0.412841796875	1	upper	amplitud.ttf
585226	WORD	wordpools/wasnorm_wordpool.txt	LTP066	ltpFR	9	3	1	SHRIMP	1297	n/a	n/a	1	n/a	0	0	0	0.57763671875	0.412841796875	1	upper	amplitud.ttf
589267	WORD	wordpools/wasnorm_wordpool.txt	LTP066	ltpFR	9	3	1	SHOE	1288	n/a	n/a	0	n/a	0	0	0	0.57763671875	0.412841796875	1	upper	amplitud.ttf
593433	WORD	wordpools/wasnorm_wordpool.txt	LTP066	ltpFR	9	3	1	SCULPTURE	1258	n/a	n/a	0	n/a	0	0	0	0.57763671875	0.412841796875	1	upper	amplitud.ttf
597525	WORD	wordpools/wasnorm_wordpool.txt	LTP066	ltpFR	9	3	1	CROWN	415	n/a	n/a	0	n/a	0	0	0	0.57763671875	0.412841796875	1	upper	amplitud.ttf
601724	WORD	wordpools/wasnorm_wordpool.txt	LTP066	ltpFR	9	3	1	KING	777	n/a	n/a	1	n/a	0	0	0	0.57763671875	0.412841796875	1	upper	amplitud.ttf
604733	START	n/a	LTP066	ltpFR	9	n/a	n/a	n/a	n/a	n/a	n/a	n/a	n/a	n/a	n/a	n/a	n/a	n/a	n/a	n/a	n/a
605899	PROB	n/a	LTP066	ltpFR	9	n/a	n/a	n/a	n/a	n/a	n/a	n/a	19	4	5	7	n/a	n/a	n/a	n/a	n/a
607624	PROB	n/a	LTP066	ltpFR	9	n/a	n/a	n/a	n/a	n/a	n/a	n/a	9	4	4	1	n/a	n/a	n/a	n/a	n/a
608891	PROB	n/a	LTP066	ltpFR	9	n/a	n/a	n/a	n/a	n/a	n/a	n/a	13	9	3	1	n/a	n/a	n/a	n/a	n/a
609999	PROB	n/a	LTP066	ltpFR	9	n/a	n/a	n/a	n/a	n/a	n/a	n/a	18	9	5	4	n/a	n/a	n/a	n/a	n/a
611561	STOP	n/a	LTP066	ltpFR	9	n/a	n/a	n/a	n/a	n/a	n/a	n/a	n/a	n/a	n/a	n/a	n/a	n/a	n/a	n/a	n/a
614599	REC_START	n/a	LTP066	ltpFR	9	3	n/a	n/a	n/a	n/a	n/a	n/a	n/a	0	0	0	n/a	n/a	n/a	n/a	n/a
616269	REC_WORD	wordpools/wasnorm_wordpool.txt	LTP066	ltpFR	9	3	1	STALLION	1369	n/a	n/a	1	n/a	0	0	0	n/a	n/a	n/a	n/a	n/a
617682	REC_WORD	wordpools/wasnorm_wordpool.txt	LTP066	ltpFR	9	3	1	DONKEY	484	n/a	n/a	1	n/a	0	0	0	n/a	n/a	n/a	n/a	n/a
618969	REC_WORD	wordpools/wasnorm_wordpool.txt	LTP066	ltpFR	9	3	1	WAX	1597	n/a	n/a	0	n/a	0	0	0	n/a	n/a	n/a	n/a	n/a
620256	REC_WORD	wordpools/wasnorm_wordpool.txt	LTP066	ltpFR	9	3	1	LACE	792	n/a	n/a	0	n/a	0	0	0	n/a	n/a	n/a	n/a	n/a
624092	REC_WORD	wordpools/wasnorm_wordpool.txt	LTP066	ltpFR	9	3	1	BACKBONE	66	n/a	n/a	1	n/a	0	0	0	n/a	n/a	n/a	n/a	n/a
627245	REC_WORD	wordpools/wasnorm_wordpool.txt	LTP066	ltpFR	9	3	1	BAY	102	n/a	n/a	0	n/a	0	0	0	n/a	n/a	n/a	n/a	n/a
632807	REC_WORD	wordpools/wasnorm_wordpool.txt	LTP066	ltpFR	9	3	1	INDIAN	736	n/a	n/a	1	n/a	0	0	0	n/a	n/a	n/a	n/a	n/a
634963	REC_WORD	wordpools/wasnorm_wordpool.txt	LTP066	ltpFR	9	3	1	TEAPOT	1442	n/a	n/a	0	n/a	0	0	0	n/a	n/a	n/a	n/a	n/a
642301	REC_WORD	wordpools/wasnorm_wordpool.txt	LTP066	ltpFR	9	3	1	LINT	826	n/a	n/a	0	n/a	0	0	0	n/a	n/a	n/a	n/a	n/a
644755	REC_WORD	wordpools/wasnorm_wordpool.txt	LTP066	ltpFR	9	3	1	SHOE	1288	n/a	n/a	0	n/a	0	0	0	n/a	n/a	n/a	n/a	n/a
647923	REC_WORD	wordpools/wasnorm_wordpool.txt	LTP066	ltpFR	9	3	1	CROWN	415	n/a	n/a	0	n/a	0	0	0	n/a	n/a	n/a	n/a	n/a
652348	REC_WORD	wordpools/wasnorm_wordpool.txt	LTP066	ltpFR	9	3	n/a	STATUE	1374	n/a	n/a	n/a	n/a	0	0	0	n/a	n/a	n/a	n/a	n/a
656743	REC_WORD	wordpools/wasnorm_wordpool.txt	LTP066	ltpFR	9	3	1	JEEP	753	n/a	n/a	0	n/a	0	0	0	n/a	n/a	n/a	n/a	n/a
691868	START	n/a	LTP066	ltpFR	9	n/a	n/a	n/a	n/a	n/a	n/a	n/a	n/a	n/a	n/a	n/a	n/a	n/a	n/a	n/a	n/a
693376	PROB	n/a	LTP066	ltpFR	9	n/a	n/a	n/a	n/a	n/a	n/a	n/a	18	8	5	5	n/a	n/a	n/a	n/a	n/a
695168	PROB	n/a	LTP066	ltpFR	9	n/a	n/a	n/a	n/a	n/a	n/a	n/a	18	3	6	9	n/a	n/a	n/a	n/a	n/a
696642	PROB	n/a	LTP066	ltpFR	9	n/a	n/a	n/a	n/a	n/a	n/a	n/a	7	2	4	1	n/a	n/a	n/a	n/a	n/a
697992	PROB	n/a	LTP066	ltpFR	9	n/a	n/a	n/a	n/a	n/a	n/a	n/a	6	2	2	2	n/a	n/a	n/a	n/a	n/a
698985	STOP	n/a	LTP066	ltpFR	9	n/a	n/a	n/a	n/a	n/a	n/a	n/a	n/a	n/a	n/a	n/a	n/a	n/a	n/a	n/a	n/a
700859	WORD	wordpools/wasnorm_wordpool.txt	LTP066	ltpFR	9	4	1	TOILET	1475	n/a	n/a	0	n/a	0	0	0	0.57763671875	0.412841796875	1	upper	amplitud.ttf
703867	START	n/a	LTP066	ltpFR	9	n/a	n/a	n/a	n/a	n/a	n/a	n/a	n/a	n/a	n/a	n/a	n/a	n/a	n/a	n/a	n/a
704992	PROB	n/a	LTP066	ltpFR	9	n/a	n/a	n/a	n/a	n/a	n/a	n/a	13	4	5	4	n/a	n/a	n/a	n/a	n/a
708158	PROB	n/a	LTP066	ltpFR	9	n/a	n/a	n/a	n/a	n/a	n/a	n/a	19	3	9	7	n/a	n/a	n/a	n/a	n/a
709316	PROB	n/a	LTP066	ltpFR	9	n/a	n/a	n/a	n/a	n/a	n/a	n/a	9	1	6	2	n/a	n/a	n/a	n/a	n/a
710191	PROB	n/a	LTP066	ltpFR	9	n/a	n/a	n/a	n/a	n/a	n/a	n/a	18	8	6	4	n/a	n/a	n/a	n/a	n/a
711305	STOP	n/a	LTP066	ltpFR	9	n/a	n/a	n/a	n/a	n/a	n/a	n/a	n/a	n/a	n/a	n/a	n/a	n/a	n/a	n/a	n/a
712767	WORD	wordpools/wasnorm_wordpool.txt	LTP066	ltpFR	9	4	1	GUEST	669	n/a	n/a	1	n/a	0	0	0	0.57763671875	0.412841796875	1	upper	amplitud.ttf
715776	START	n/a	LTP066	ltpFR	9	n/a	n/a	n/a	n/a	n/a	n/a	n/a	n/a	n/a	n/a	n/a	n/a	n/a	n/a	n/a	n/a
716899	PROB	n/a	LTP066	ltpFR	9	n/a	n/a	n/a	n/a	n/a	n/a	n/a	15	6	4	5	n/a	n/a	n/a	n/a	n/a
718099	PROB	n/a	LTP066	ltpFR	9	n/a	n/a	n/a	n/a	n/a	n/a	n/a	12	3	5	4	n/a	n/a	n/a	n/a	n/a
719416	PROB	n/a	LTP066	ltpFR	9	n/a	n/a	n/a	n/a	n/a	n/a	n/a	24	6	9	9	n/a	n/a	n/a	n/a	n/a
721174	PROB	n/a	LTP066	ltpFR	9	n/a	n/a	n/a	n/a	n/a	n/a	n/a	13	3	4	6	n/a	n/a	n/a	n/a	n/a
723177	STOP	n/a	LTP066	ltpFR	9	n/a	n/a	n/a	n/a	n/a	n/a	n/a	n/a	n/a	n/a	n/a	n/a	n/a	n/a	n/a	n/a
724974	WORD	wordpools/wasnorm_wordpool.txt	LTP066	ltpFR	9	4	1	PERSON	1052	n/a	n/a	1	n/a	0	0	0	0.57763671875	0.412841796875	1	upper	amplitud.ttf
727982	START	n/a	LTP066	ltpFR	9	n/a	n/a	n/a	n/a	n/a	n/a	n/a	n/a	n/a	n/a	n/a	n/a	n/a	n/a	n/a	n/a
729007	PROB	n/a	LTP066	ltpFR	9	n/a	n/a	n/a	n/a	n/a	n/a	n/a	22	8	8	7	n/a	n/a	n/a	n/a	n/a
730707	PROB	n/a	LTP066	ltpFR	9	n/a	n/a	n/a	n/a	n/a	n/a	n/a	14	8	3	3	n/a	n/a	n/a	n/a	n/a
732290	PROB	n/a	LTP066	ltpFR	9	n/a	n/a	n/a	n/a	n/a	n/a	n/a	22	6	8	8	n/a	n/a	n/a	n/a	n/a
735982	STOP	n/a	LTP066	ltpFR	9	n/a	n/a	n/a	n/a	n/a	n/a	n/a	n/a	n/a	n/a	n/a	n/a	n/a	n/a	n/a	n/a
737064	WORD	wordpools/wasnorm_wordpool.txt	LTP066	ltpFR	9	4	1	APARTMENT	30	n/a	n/a	0	n/a	0	0	0	0.57763671875	0.412841796875	1	upper	amplitud.ttf
740073	START	n/a	LTP066	ltpFR	9	n/a	n/a	n/a	n/a	n/a	n/a	n/a	n/a	n/a	n/a	n/a	n/a	n/a	n/a	n/a	n/a
741247	PROB	n/a	LTP066	ltpFR	9	n/a	n/a	n/a	n/a	n/a	n/a	n/a	20	8	3	9	n/a	n/a	n/a	n/a	n/a
742981	PROB	n/a	LTP066	ltpFR	9	n/a	n/a	n/a	n/a	n/a	n/a	n/a	8	6	1	1	n/a	n/a	n/a	n/a	n/a
743981	PROB	n/a	LTP066	ltpFR	9	n/a	n/a	n/a	n/a	n/a	n/a	n/a	9	2	6	1	n/a	n/a	n/a	n/a	n/a
745014	PROB	n/a	LTP066	ltpFR	9	n/a	n/a	n/a	n/a	n/a	n/a	n/a	16	7	5	4	n/a	n/a	n/a	n/a	n/a
747817	STOP	n/a	LTP066	ltpFR	9	n/a	n/a	n/a	n/a	n/a	n/a	n/a	n/a	n/a	n/a	n/a	n/a	n/a	n/a	n/a	n/a
749263	WORD	wordpools/wasnorm_wordpool.txt	LTP066	ltpFR	9	4	1	ATTIC	56	n/a	n/a	0	n/a	0	0	0	0.57763671875	0.412841796875	1	upper	amplitud.ttf
752264	START	n/a	LTP066	ltpFR	9	n/a	n/a	n/a	n/a	n/a	n/a	n/a	n/a	n/a	n/a	n/a	n/a	n/a	n/a	n/a	n/a
753313	PROB	n/a	LTP066	ltpFR	9	n/a	n/a	n/a	n/a	n/a	n/a	n/a	17	5	9	3	n/a	n/a	n/a	n/a	n/a
754789	PROB	n/a	LTP066	ltpFR	9	n/a	n/a	n/a	n/a	n/a	n/a	n/a	18	7	5	6	n/a	n/a	n/a	n/a	n/a
756463	PROB	n/a	LTP066	ltpFR	9	n/a	n/a	n/a	n/a	n/a	n/a	n/a	11	8	1	2	n/a	n/a	n/a	n/a	n/a
757480	PROB	n/a	LTP066	ltpFR	9	n/a	n/a	n/a	n/a	n/a	n/a	n/a	11	4	1	6	n/a	n/a	n/a	n/a	n/a
758471	PROB	n/a	LTP066	ltpFR	9	n/a	n/a	n/a	n/a	n/a	n/a	n/a	8	2	2	3	n/a	n/a	n/a	n/a	n/a
760241	STOP	n/a	LTP066	ltpFR	9	n/a	n/a	n/a	n/a	n/a	n/a	n/a	n/a	n/a	n/a	n/a	n/a	n/a	n/a	n/a	n/a
761471	WORD	wordpools/wasnorm_wordpool.txt	LTP066	ltpFR	9	4	1	ANIMAL	23	n/a	n/a	1	n/a	0	0	0	0.57763671875	0.412841796875	1	upper	amplitud.ttf
764479	START	n/a	LTP066	ltpFR	9	n/a	n/a	n/a	n/a	n/a	n/a	n/a	n/a	n/a	n/a	n/a	n/a	n/a	n/a	n/a	n/a
765587	PROB	n/a	LTP066	ltpFR	9	n/a	n/a	n/a	n/a	n/a	n/a	n/a	18	7	3	8	n/a	n/a	n/a	n/a	n/a
766962	PROB	n/a	LTP066	ltpFR	9	n/a	n/a	n/a	n/a	n/a	n/a	n/a	17	6	4	7	n/a	n/a	n/a	n/a	n/a
768020	PROB	n/a	LTP066	ltpFR	9	n/a	n/a	n/a	n/a	n/a	n/a	n/a	16	7	3	6	n/a	n/a	n/a	n/a	n/a
769129	PROB	n/a	LTP066	ltpFR	9	n/a	n/a	n/a	n/a	n/a	n/a	n/a	4	1	1	2	n/a	n/a	n/a	n/a	n/a
770162	PROB	n/a	LTP066	ltpFR	9	n/a	n/a	n/a	n/a	n/a	n/a	n/a	11	4	3	2	n/a	n/a	n/a	n/a	n/a
771657	STOP	n/a	LTP066	ltpFR	9	n/a	n/a	n/a	n/a	n/a	n/a	n/a	n/a	n/a	n/a	n/a	n/a	n/a	n/a	n/a	n/a
773628	WORD	wordpools/wasnorm_wordpool.txt	LTP066	ltpFR	9	4	1	SHOWER	1296	n/a	n/a	0	n/a	0	0	0	0.57763671875	0.412841796875	1	upper	amplitud.ttf
776629	START	n/a	LTP066	ltpFR	9	n/a	n/a	n/a	n/a	n/a	n/a	n/a	n/a	n/a	n/a	n/a	n/a	n/a	n/a	n/a	n/a
777611	PROB	n/a	LTP066	ltpFR	9	n/a	n/a	n/a	n/a	n/a	n/a	n/a	12	7	4	1	n/a	n/a	n/a	n/a	n/a
778828	PROB	n/a	LTP066	ltpFR	9	n/a	n/a	n/a	n/a	n/a	n/a	n/a	12	4	3	5	n/a	n/a	n/a	n/a	n/a
782628	PROB	n/a	LTP066	ltpFR	9	n/a	n/a	n/a	n/a	n/a	n/a	n/a	11	3	7	1	n/a	n/a	n/a	n/a	n/a
783593	STOP	n/a	LTP066	ltpFR	9	n/a	n/a	n/a	n/a	n/a	n/a	n/a	n/a	n/a	n/a	n/a	n/a	n/a	n/a	n/a	n/a
785778	WORD	wordpools/wasnorm_wordpool.txt	LTP066	ltpFR	9	4	1	TWEEZERS	1526	n/a	n/a	0	n/a	0	0	0	0.57763671875	0.412841796875	1	upper	amplitud.ttf
788779	START	n/a	LTP066	ltpFR	9	n/a	n/a	n/a	n/a	n/a	n/a	n/a	n/a	n/a	n/a	n/a	n/a	n/a	n/a	n/a	n/a
789787	PROB	n/a	LTP066	ltpFR	9	n/a	n/a	n/a	n/a	n/a	n/a	n/a	6	3	1	2	n/a	n/a	n/a	n/a	n/a
790885	PROB	n/a	LTP066	ltpFR	9	n/a	n/a	n/a	n/a	n/a	n/a	n/a	16	6	2	8	n/a	n/a	n/a	n/a	n/a
792027	PROB	n/a	LTP066	ltpFR	9	n/a	n/a	n/a	n/a	n/a	n/a	n/a	22	4	9	9	n/a	n/a	n/a	n/a	n/a
793435	PROB	n/a	LTP066	ltpFR	9	n/a	n/a	n/a	n/a	n/a	n/a	n/a	22	7	9	6	n/a	n/a	n/a	n/a	n/a
795043	PROB	n/a	LTP066	ltpFR	9	n/a	n/a	n/a	n/a	n/a	n/a	n/a	21	7	7	7	n/a	n/a	n/a	n/a	n/a
796097	STOP	n/a	LTP066	ltpFR	9	n/a	n/a	n/a	n/a	n/a	n/a	n/a	n/a	n/a	n/a	n/a	n/a	n/a	n/a	n/a	n/a
797802	WORD	wordpools/wasnorm_wordpool.txt	LTP066	ltpFR	9	4	1	SKIN	1318	n/a	n/a	1	n/a	0	0	0	0.57763671875	0.412841796875	1	upper	amplitud.ttf
800810	START	n/a	LTP066	ltpFR	9	n/a	n/a	n/a	n/a	n/a	n/a	n/a	n/a	n/a	n/a	n/a	n/a	n/a	n/a	n/a	n/a
801943	PROB	n/a	LTP066	ltpFR	9	n/a	n/a	n/a	n/a	n/a	n/a	n/a	13	3	7	3	n/a	n/a	n/a	n/a	n/a
803593	PROB	n/a	LTP066	ltpFR	9	n/a	n/a	n/a	n/a	n/a	n/a	n/a	18	4	5	9	n/a	n/a	n/a	n/a	n/a
805659	PROB	n/a	LTP066	ltpFR	9	n/a	n/a	n/a	n/a	n/a	n/a	n/a	17	1	9	7	n/a	n/a	n/a	n/a	n/a
807151	PROB	n/a	LTP066	ltpFR	9	n/a	n/a	n/a	n/a	n/a	n/a	n/a	13	7	2	4	n/a	n/a	n/a	n/a	n/a
808361	STOP	n/a	LTP066	ltpFR	9	n/a	n/a	n/a	n/a	n/a	n/a	n/a	n/a	n/a	n/a	n/a	n/a	n/a	n/a	n/a	n/a
809842	WORD	wordpools/wasnorm_wordpool.txt	LTP066	ltpFR	9	4	1	CLASS	318	n/a	n/a	1	n/a	0	0	0	0.57763671875	0.412841796875	1	upper	amplitud.ttf
812842	START	n/a	LTP066	ltpFR	9	n/a	n/a	n/a	n/a	n/a	n/a	n/a	n/a	n/a	n/a	n/a	n/a	n/a	n/a	n/a	n/a
814034	PROB	n/a	LTP066	ltpFR	9	n/a	n/a	n/a	n/a	n/a	n/a	n/a	19	6	6	7	n/a	n/a	n/a	n/a	n/a
816100	PROB	n/a	LTP066	ltpFR	9	n/a	n/a	n/a	n/a	n/a	n/a	n/a	9	7	1	1	n/a	n/a	n/a	n/a	n/a
817534	PROB	n/a	LTP066	ltpFR	9	n/a	n/a	n/a	n/a	n/a	n/a	n/a	11	2	6	3	n/a	n/a	n/a	n/a	n/a
818692	PROB	n/a	LTP066	ltpFR	9	n/a	n/a	n/a	n/a	n/a	n/a	n/a	12	4	4	4	n/a	n/a	n/a	n/a	n/a
819778	STOP	n/a	LTP066	ltpFR	9	n/a	n/a	n/a	n/a	n/a	n/a	n/a	n/a	n/a	n/a	n/a	n/a	n/a	n/a	n/a	n/a
821842	WORD	wordpools/wasnorm_wordpool.txt	LTP066	ltpFR	9	4	1	KNUCKLE	789	n/a	n/a	0	n/a	0	0	0	0.57763671875	0.412841796875	1	upper	amplitud.ttf
824850	START	n/a	LTP066	ltpFR	9	n/a	n/a	n/a	n/a	n/a	n/a	n/a	n/a	n/a	n/a	n/a	n/a	n/a	n/a	n/a	n/a
825958	PROB	n/a	LTP066	ltpFR	9	n/a	n/a	n/a	n/a	n/a	n/a	n/a	13	3	3	7	n/a	n/a	n/a	n/a	n/a
828008	PROB	n/a	LTP066	ltpFR	9	n/a	n/a	n/a	n/a	n/a	n/a	n/a	16	9	3	5	n/a	n/a	n/a	n/a	n/a
829633	PROB	n/a	LTP066	ltpFR	9	n/a	n/a	n/a	n/a	n/a	n/a	n/a	16	6	1	9	n/a	n/a	n/a	n/a	n/a
831041	PROB	n/a	LTP066	ltpFR	9	n/a	n/a	n/a	n/a	n/a	n/a	n/a	18	5	5	8	n/a	n/a	n/a	n/a	n/a
832121	STOP	n/a	LTP066	ltpFR	9	n/a	n/a	n/a	n/a	n/a	n/a	n/a	n/a	n/a	n/a	n/a	n/a	n/a	n/a	n/a	n/a
833791	WORD	wordpools/wasnorm_wordpool.txt	LTP066	ltpFR	9	4	1	FIST	572	n/a	n/a	0	n/a	0	0	0	0.57763671875	0.412841796875	1	upper	amplitud.ttf
836791	START	n/a	LTP066	ltpFR	9	n/a	n/a	n/a	n/a	n/a	n/a	n/a	n/a	n/a	n/a	n/a	n/a	n/a	n/a	n/a	n/a
837965	PROB	n/a	LTP066	ltpFR	9	n/a	n/a	n/a	n/a	n/a	n/a	n/a	9	4	2	3	n/a	n/a	n/a	n/a	n/a
839949	PROB	n/a	LTP066	ltpFR	9	n/a	n/a	n/a	n/a	n/a	n/a	n/a	20	7	7	6	n/a	n/a	n/a	n/a	n/a
842182	PROB	n/a	LTP066	ltpFR	9	n/a	n/a	n/a	n/a	n/a	n/a	n/a	21	8	9	5	n/a	n/a	n/a	n/a	n/a
843633	STOP	n/a	LTP066	ltpFR	9	n/a	n/a	n/a	n/a	n/a	n/a	n/a	n/a	n/a	n/a	n/a	n/a	n/a	n/a	n/a	n/a
845806	WORD	wordpools/wasnorm_wordpool.txt	LTP066	ltpFR	9	4	1	SHELF	1280	n/a	n/a	0	n/a	0	0	0	0.57763671875	0.412841796875	1	upper	amplitud.ttf
848807	START	n/a	LTP066	ltpFR	9	n/a	n/a	n/a	n/a	n/a	n/a	n/a	n/a	n/a	n/a	n/a	n/a	n/a	n/a	n/a	n/a
849948	PROB	n/a	LTP066	ltpFR	9	n/a	n/a	n/a	n/a	n/a	n/a	n/a	14	4	1	9	n/a	n/a	n/a	n/a	n/a
851748	PROB	n/a	LTP066	ltpFR	9	n/a	n/a	n/a	n/a	n/a	n/a	n/a	10	3	1	6	n/a	n/a	n/a	n/a	n/a
853006	PROB	n/a	LTP066	ltpFR	9	n/a	n/a	n/a	n/a	n/a	n/a	n/a	14	4	6	4	n/a	n/a	n/a	n/a	n/a
854406	PROB	n/a	LTP066	ltpFR	9	n/a	n/a	n/a	n/a	n/a	n/a	n/a	10	7	1	2	n/a	n/a	n/a	n/a	n/a
856609	STOP	n/a	LTP066	ltpFR	9	n/a	n/a	n/a	n/a	n/a	n/a	n/a	n/a	n/a	n/a	n/a	n/a	n/a	n/a	n/a	n/a
857847	WORD	wordpools/wasnorm_wordpool.txt	LTP066	ltpFR	9	4	1	HINGE	709	n/a	n/a	0	n/a	0	0	0	0.57763671875	0.412841796875	1	upper	amplitud.ttf
860856	START	n/a	LTP066	ltpFR	9	n/a	n/a	n/a	n/a	n/a	n/a	n/a	n/a	n/a	n/a	n/a	n/a	n/a	n/a	n/a	n/a
861722	PROB	n/a	LTP066	ltpFR	9	n/a	n/a	n/a	n/a	n/a	n/a	n/a	16	8	2	6	n/a	n/a	n/a	n/a	n/a
863563	PROB	n/a	LTP066	ltpFR	9	n/a	n/a	n/a	n/a	n/a	n/a	n/a	10	1	1	8	n/a	n/a	n/a	n/a	n/a
864572	PROB	n/a	LTP066	ltpFR	9	n/a	n/a	n/a	n/a	n/a	n/a	n/a	19	5	8	6	n/a	n/a	n/a	n/a	n/a
866255	PROB	n/a	LTP066	ltpFR	9	n/a	n/a	n/a	n/a	n/a	n/a	n/a	6	1	2	3	n/a	n/a	n/a	n/a	n/a
867330	PROB	n/a	LTP066	ltpFR	9	n/a	n/a	n/a	n/a	n/a	n/a	n/a	12	8	3	1	n/a	n/a	n/a	n/a	n/a
868369	STOP	n/a	LTP066	ltpFR	9	n/a	n/a	n/a	n/a	n/a	n/a	n/a	n/a	n/a	n/a	n/a	n/a	n/a	n/a	n/a	n/a
870013	WORD	wordpools/wasnorm_wordpool.txt	LTP066	ltpFR	9	4	1	MONARCH	906	n/a	n/a	1	n/a	0	0	0	0.57763671875	0.412841796875	1	upper	amplitud.ttf
873022	START	n/a	LTP066	ltpFR	9	n/a	n/a	n/a	n/a	n/a	n/a	n/a	n/a	n/a	n/a	n/a	n/a	n/a	n/a	n/a	n/a
873913	PROB	n/a	LTP066	ltpFR	9	n/a	n/a	n/a	n/a	n/a	n/a	n/a	16	5	4	7	n/a	n/a	n/a	n/a	n/a
875763	PROB	n/a	LTP066	ltpFR	9	n/a	n/a	n/a	n/a	n/a	n/a	n/a	2	5	8	9	n/a	n/a	n/a	n/a	n/a
881020	STOP	n/a	LTP066	ltpFR	9	n/a	n/a	n/a	n/a	n/a	n/a	n/a	n/a	n/a	n/a	n/a	n/a	n/a	n/a	n/a	n/a
882095	WORD	wordpools/wasnorm_wordpool.txt	LTP066	ltpFR	9	4	1	UNIVERSITY	1541	n/a	n/a	0	n/a	0	0	0	0.57763671875	0.412841796875	1	upper	amplitud.ttf
885104	START	n/a	LTP066	ltpFR	9	n/a	n/a	n/a	n/a	n/a	n/a	n/a	n/a	n/a	n/a	n/a	n/a	n/a	n/a	n/a	n/a
886145	PROB	n/a	LTP066	ltpFR	9	n/a	n/a	n/a	n/a	n/a	n/a	n/a	21	9	8	4	n/a	n/a	n/a	n/a	n/a
888487	PROB	n/a	LTP066	ltpFR	9	n/a	n/a	n/a	n/a	n/a	n/a	n/a	18	8	3	7	n/a	n/a	n/a	n/a	n/a
890011	PROB	n/a	LTP066	ltpFR	9	n/a	n/a	n/a	n/a	n/a	n/a	n/a	27	9	9	9	n/a	n/a	n/a	n/a	n/a
891778	STOP	n/a	LTP066	ltpFR	9	n/a	n/a	n/a	n/a	n/a	n/a	n/a	n/a	n/a	n/a	n/a	n/a	n/a	n/a	n/a	n/a
894862	REC_START	n/a	LTP066	ltpFR	9	4	n/a	n/a	n/a	n/a	n/a	n/a	n/a	0	0	0	n/a	n/a	n/a	n/a	n/a
896743	REC_WORD	wordpools/wasnorm_wordpool.txt	LTP066	ltpFR	9	4	1	UNIVERSITY	1541	n/a	n/a	0	n/a	0	0	0	n/a	n/a	n/a	n/a	n/a
897715	REC_WORD	wordpools/wasnorm_wordpool.txt	LTP066	ltpFR	9	4	1	MONARCH	906	n/a	n/a	1	n/a	0	0	0	n/a	n/a	n/a	n/a	n/a
899242	REC_WORD	wordpools/wasnorm_wordpool.txt	LTP066	ltpFR	9	4	1	TOILET	1475	n/a	n/a	0	n/a	0	0	0	n/a	n/a	n/a	n/a	n/a
900499	REC_WORD	wordpools/wasnorm_wordpool.txt	LTP066	ltpFR	9	4	1	APARTMENT	30	n/a	n/a	0	n/a	0	0	0	n/a	n/a	n/a	n/a	n/a
901756	REC_WORD	wordpools/wasnorm_wordpool.txt	LTP066	ltpFR	9	4	1	PERSON	1052	n/a	n/a	1	n/a	0	0	0	n/a	n/a	n/a	n/a	n/a
903377	REC_WORD	wordpools/wasnorm_wordpool.txt	LTP066	ltpFR	9	4	1	ATTIC	56	n/a	n/a	0	n/a	0	0	0	n/a	n/a	n/a	n/a	n/a
906311	REC_WORD	wordpools/wasnorm_wordpool.txt	LTP066	ltpFR	9	4	1	ANIMAL	23	n/a	n/a	1	n/a	0	0	0	n/a	n/a	n/a	n/a	n/a
908616	REC_WORD	wordpools/wasnorm_wordpool.txt	LTP066	ltpFR	9	4	1	SHOWER	1296	n/a	n/a	0	n/a	0	0	0	n/a	n/a	n/a	n/a	n/a
910262	REC_WORD	wordpools/wasnorm_wordpool.txt	LTP066	ltpFR	9	4	1	TWEEZERS	1526	n/a	n/a	0	n/a	0	0	0	n/a	n/a	n/a	n/a	n/a
913569	REC_WORD	wordpools/wasnorm_wordpool.txt	LTP066	ltpFR	9	4	1	SKIN	1318	n/a	n/a	1	n/a	0	0	0	n/a	n/a	n/a	n/a	n/a
919002	REC_WORD	wordpools/wasnorm_wordpool.txt	LTP066	ltpFR	9	4	1	KNUCKLE	789	n/a	n/a	0	n/a	0	0	0	n/a	n/a	n/a	n/a	n/a
920054	REC_WORD	wordpools/wasnorm_wordpool.txt	LTP066	ltpFR	9	4	1	FIST	572	n/a	n/a	0	n/a	0	0	0	n/a	n/a	n/a	n/a	n/a
923182	REC_WORD	wordpools/wasnorm_wordpool.txt	LTP066	ltpFR	9	4	1	SHELF	1280	n/a	n/a	0	n/a	0	0	0	n/a	n/a	n/a	n/a	n/a
925153	REC_WORD	wordpools/wasnorm_wordpool.txt	LTP066	ltpFR	9	4	1	HINGE	709	n/a	n/a	0	n/a	0	0	0	n/a	n/a	n/a	n/a	n/a
972364	START	n/a	LTP066	ltpFR	9	n/a	n/a	n/a	n/a	n/a	n/a	n/a	n/a	n/a	n/a	n/a	n/a	n/a	n/a	n/a	n/a
973872	PROB	n/a	LTP066	ltpFR	9	n/a	n/a	n/a	n/a	n/a	n/a	n/a	18	9	2	7	n/a	n/a	n/a	n/a	n/a
976055	PROB	n/a	LTP066	ltpFR	9	n/a	n/a	n/a	n/a	n/a	n/a	n/a	14	4	7	3	n/a	n/a	n/a	n/a	n/a
978380	PROB	n/a	LTP066	ltpFR	9	n/a	n/a	n/a	n/a	n/a	n/a	n/a	16	2	7	9	n/a	n/a	n/a	n/a	n/a
980380	PROB	n/a	LTP066	ltpFR	9	n/a	n/a	n/a	n/a	n/a	n/a	n/a	14	4	6	4	n/a	n/a	n/a	n/a	n/a
981380	PROB	n/a	LTP066	ltpFR	9	n/a	n/a	n/a	n/a	n/a	n/a	n/a	12	3	7	2	n/a	n/a	n/a	n/a	n/a
982721	PROB	n/a	LTP066	ltpFR	9	n/a	n/a	n/a	n/a	n/a	n/a	n/a	13	4	6	3	n/a	n/a	n/a	n/a	n/a
984038	PROB	n/a	LTP066	ltpFR	9	n/a	n/a	n/a	n/a	n/a	n/a	n/a	15	9	2	3	n/a	n/a	n/a	n/a	n/a
985196	PROB	n/a	LTP066	ltpFR	9	n/a	n/a	n/a	n/a	n/a	n/a	n/a	13	2	8	3	n/a	n/a	n/a	n/a	n/a
988364	STOP	n/a	LTP066	ltpFR	9	n/a	n/a	n/a	n/a	n/a	n/a	n/a	n/a	n/a	n/a	n/a	n/a	n/a	n/a	n/a	n/a
989462	WORD	wordpools/wasnorm_wordpool.txt	LTP066	ltpFR	9	5	0	KITCHEN	778	n/a	n/a	1	n/a	0	0	0	0.422607421875	0.5869140625	0	lower	zerothre.ttf
992463	START	n/a	LTP066	ltpFR	9	n/a	n/a	n/a	n/a	n/a	n/a	n/a	n/a	n/a	n/a	n/a	n/a	n/a	n/a	n/a	n/a
993312	PROB	n/a	LTP066	ltpFR	9	n/a	n/a	n/a	n/a	n/a	n/a	n/a	19	5	5	9	n/a	n/a	n/a	n/a	n/a
994462	PROB	n/a	LTP066	ltpFR	9	n/a	n/a	n/a	n/a	n/a	n/a	n/a	7	4	2	1	n/a	n/a	n/a	n/a	n/a
995771	PROB	n/a	LTP066	ltpFR	9	n/a	n/a	n/a	n/a	n/a	n/a	n/a	20	9	3	8	n/a	n/a	n/a	n/a	n/a
997120	PROB	n/a	LTP066	ltpFR	9	n/a	n/a	n/a	n/a	n/a	n/a	n/a	10	5	2	3	n/a	n/a	n/a	n/a	n/a
998504	PROB	n/a	LTP066	ltpFR	9	n/a	n/a	n/a	n/a	n/a	n/a	n/a	1	6	8	2	n/a	n/a	n/a	n/a	n/a
999570	PROB	n/a	LTP066	ltpFR	9	n/a	n/a	n/a	n/a	n/a	n/a	n/a	18	4	6	8	n/a	n/a	n/a	n/a	n/a
1001228	PROB	n/a	LTP066	ltpFR	9	n/a	n/a	n/a	n/a	n/a	n/a	n/a	19	4	7	8	n/a	n/a	n/a	n/a	n/a
1002478	PROB	n/a	LTP066	ltpFR	9	n/a	n/a	n/a	n/a	n/a	n/a	n/a	11	7	1	4	n/a	n/a	n/a	n/a	n/a
1003528	PROB	n/a	LTP066	ltpFR	9	n/a	n/a	n/a	n/a	n/a	n/a	n/a	16	8	2	6	n/a	n/a	n/a	n/a	n/a
1005779	PROB	n/a	LTP066	ltpFR	9	n/a	n/a	n/a	n/a	n/a	n/a	n/a	14	2	8	4	n/a	n/a	n/a	n/a	n/a
1007065	STOP	n/a	LTP066	ltpFR	9	n/a	n/a	n/a	n/a	n/a	n/a	n/a	n/a	n/a	n/a	n/a	n/a	n/a	n/a	n/a	n/a
1009528	WORD	wordpools/wasnorm_wordpool.txt	LTP066	ltpFR	9	5	0	CONDUCTOR	362	n/a	n/a	1	n/a	0	0	0	0.422607421875	0.5869140625	0	lower	zerothre.ttf
1012536	START	n/a	LTP066	ltpFR	9	n/a	n/a	n/a	n/a	n/a	n/a	n/a	n/a	n/a	n/a	n/a	n/a	n/a	n/a	n/a	n/a
1013577	PROB	n/a	LTP066	ltpFR	9	n/a	n/a	n/a	n/a	n/a	n/a	n/a	20	3	9	8	n/a	n/a	n/a	n/a	n/a
1015377	PROB	n/a	LTP066	ltpFR	9	n/a	n/a	n/a	n/a	n/a	n/a	n/a	14	6	6	2	n/a	n/a	n/a	n/a	n/a
1017569	PROB	n/a	LTP066	ltpFR	9	n/a	n/a	n/a	n/a	n/a	n/a	n/a	18	6	3	9	n/a	n/a	n/a	n/a	n/a
1018677	PROB	n/a	LTP066	ltpFR	9	n/a	n/a	n/a	n/a	n/a	n/a	n/a	23	7	8	8	n/a	n/a	n/a	n/a	n/a
1020844	PROB	n/a	LTP066	ltpFR	9	n/a	n/a	n/a	n/a	n/a	n/a	n/a	22	6	8	8	n/a	n/a	n/a	n/a	n/a
1022385	PROB	n/a	LTP066	ltpFR	9	n/a	n/a	n/a	n/a	n/a	n/a	n/a	11	1	8	2	n/a	n/a	n/a	n/a	n/a
1023502	PROB	n/a	LTP066	ltpFR	9	n/a	n/a	n/a	n/a	n/a	n/a	n/a	22	9	5	8	n/a	n/a	n/a	n/a	n/a
1025810	PROB	n/a	LTP066	ltpFR	9	n/a	n/a	n/a	n/a	n/a	n/a	n/a	13	3	9	1	n/a	n/a	n/a	n/a	n/a
1027065	STOP	n/a	LTP066	ltpFR	9	n/a	n/a	n/a	n/a	n/a	n/a	n/a	n/a	n/a	n/a	n/a	n/a	n/a	n/a	n/a	n/a
1029418	WORD	wordpools/wasnorm_wordpool.txt	LTP066	ltpFR	9	5	1	UNIVERSE	1540	n/a	n/a	0	n/a	0	0	0	0.57763671875	0.412841796875	1	upper	amplitud.ttf
1032426	START	n/a	LTP066	ltpFR	9	n/a	n/a	n/a	n/a	n/a	n/a	n/a	n/a	n/a	n/a	n/a	n/a	n/a	n/a	n/a	n/a
1033493	PROB	n/a	LTP066	ltpFR	9	n/a	n/a	n/a	n/a	n/a	n/a	n/a	14	4	2	8	n/a	n/a	n/a	n/a	n/a
1035342	PROB	n/a	LTP066	ltpFR	9	n/a	n/a	n/a	n/a	n/a	n/a	n/a	16	8	3	5	n/a	n/a	n/a	n/a	n/a
1037076	PROB	n/a	LTP066	ltpFR	9	n/a	n/a	n/a	n/a	n/a	n/a	n/a	16	5	4	4	n/a	n/a	n/a	n/a	n/a
1040217	PROB	n/a	LTP066	ltpFR	9	n/a	n/a	n/a	n/a	n/a	n/a	n/a	12	8	1	3	n/a	n/a	n/a	n/a	n/a
1041467	PROB	n/a	LTP066	ltpFR	9	n/a	n/a	n/a	n/a	n/a	n/a	n/a	15	4	2	8	n/a	n/a	n/a	n/a	n/a
1044183	PROB	n/a	LTP066	ltpFR	9	n/a	n/a	n/a	n/a	n/a	n/a	n/a	15	4	6	5	n/a	n/a	n/a	n/a	n/a
1045867	PROB	n/a	LTP066	ltpFR	9	n/a	n/a	n/a	n/a	n/a	n/a	n/a	15	1	7	7	n/a	n/a	n/a	n/a	n/a
1047065	STOP	n/a	LTP066	ltpFR	9	n/a	n/a	n/a	n/a	n/a	n/a	n/a	n/a	n/a	n/a	n/a	n/a	n/a	n/a	n/a	n/a
1049575	WORD	wordpools/wasnorm_wordpool.txt	LTP066	ltpFR	9	5	1	WRITER	1627	n/a	n/a	1	n/a	0	0	0	0.57763671875	0.412841796875	1	upper	amplitud.ttf
1052583	START	n/a	LTP066	ltpFR	9	n/a	n/a	n/a	n/a	n/a	n/a	n/a	n/a	n/a	n/a	n/a	n/a	n/a	n/a	n/a	n/a
1053749	PROB	n/a	LTP066	ltpFR	9	n/a	n/a	n/a	n/a	n/a	n/a	n/a	11	2	5	4	n/a	n/a	n/a	n/a	n/a
1055483	PROB	n/a	LTP066	ltpFR	9	n/a	n/a	n/a	n/a	n/a	n/a	n/a	10	2	5	3	n/a	n/a	n/a	n/a	n/a
1056983	PROB	n/a	LTP066	ltpFR	9	n/a	n/a	n/a	n/a	n/a	n/a	n/a	16	6	4	4	n/a	n/a	n/a	n/a	n/a
1058532	PROB	n/a	LTP066	ltpFR	9	n/a	n/a	n/a	n/a	n/a	n/a	n/a	26	9	9	8	n/a	n/a	n/a	n/a	n/a
1060932	PROB	n/a	LTP066	ltpFR	9	n/a	n/a	n/a	n/a	n/a	n/a	n/a	14	3	7	7	n/a	n/a	n/a	n/a	n/a
1063107	PROB	n/a	LTP066	ltpFR	9	n/a	n/a	n/a	n/a	n/a	n/a	n/a	22	9	7	6	n/a	n/a	n/a	n/a	n/a
1065157	PROB	n/a	LTP066	ltpFR	9	n/a	n/a	n/a	n/a	n/a	n/a	n/a	15	8	5	2	n/a	n/a	n/a	n/a	n/a
1067073	STOP	n/a	LTP066	ltpFR	9	n/a	n/a	n/a	n/a	n/a	n/a	n/a	n/a	n/a	n/a	n/a	n/a	n/a	n/a	n/a	n/a
1069757	WORD	wordpools/wasnorm_wordpool.txt	LTP066	ltpFR	9	5	0	DANDELION	438	n/a	n/a	0	n/a	0	0	0	0.422607421875	0.5869140625	0	lower	zerothre.ttf
1072766	START	n/a	LTP066	ltpFR	9	n/a	n/a	n/a	n/a	n/a	n/a	n/a	n/a	n/a	n/a	n/a	n/a	n/a	n/a	n/a	n/a
1073615	PROB	n/a	LTP066	ltpFR	9	n/a	n/a	n/a	n/a	n/a	n/a	n/a	18	8	9	1	n/a	n/a	n/a	n/a	n/a
1075131	PROB	n/a	LTP066	ltpFR	9	n/a	n/a	n/a	n/a	n/a	n/a	n/a	15	9	1	5	n/a	n/a	n/a	n/a	n/a
1076664	PROB	n/a	LTP066	ltpFR	9	n/a	n/a	n/a	n/a	n/a	n/a	n/a	17	1	8	8	n/a	n/a	n/a	n/a	n/a
1077889	PROB	n/a	LTP066	ltpFR	9	n/a	n/a	n/a	n/a	n/a	n/a	n/a	22	7	7	8	n/a	n/a	n/a	n/a	n/a
1080089	PROB	n/a	LTP066	ltpFR	9	n/a	n/a	n/a	n/a	n/a	n/a	n/a	15	4	9	2	n/a	n/a	n/a	n/a	n/a
1081606	PROB	n/a	LTP066	ltpFR	9	n/a	n/a	n/a	n/a	n/a	n/a	n/a	16	4	3	9	n/a	n/a	n/a	n/a	n/a
1083239	PROB	n/a	LTP066	ltpFR	9	n/a	n/a	n/a	n/a	n/a	n/a	n/a	13	8	4	1	n/a	n/a	n/a	n/a	n/a
1084406	PROB	n/a	LTP066	ltpFR	9	n/a	n/a	n/a	n/a	n/a	n/a	n/a	10	2	6	2	n/a	n/a	n/a	n/a	n/a
1086580	PROB	n/a	LTP066	ltpFR	9	n/a	n/a	n/a	n/a	n/a	n/a	n/a	15	4	4	7	n/a	n/a	n/a	n/a	n/a
1088185	STOP	n/a	LTP066	ltpFR	9	n/a	n/a	n/a	n/a	n/a	n/a	n/a	n/a	n/a	n/a	n/a	n/a	n/a	n/a	n/a	n/a
1089930	WORD	wordpools/wasnorm_wordpool.txt	LTP066	ltpFR	9	5	0	MINK	897	n/a	n/a	1	n/a	0	0	0	0.422607421875	0.5869140625	0	lower	zerothre.ttf
1092939	START	n/a	LTP066	ltpFR	9	n/a	n/a	n/a	n/a	n/a	n/a	n/a	n/a	n/a	n/a	n/a	n/a	n/a	n/a	n/a	n/a
1093789	PROB	n/a	LTP066	ltpFR	9	n/a	n/a	n/a	n/a	n/a	n/a	n/a	14	8	3	3	n/a	n/a	n/a	n/a	n/a
1095863	PROB	n/a	LTP066	ltpFR	9	n/a	n/a	n/a	n/a	n/a	n/a	n/a	19	8	5	6	n/a	n/a	n/a	n/a	n/a
1097280	PROB	n/a	LTP066	ltpFR	9	n/a	n/a	n/a	n/a	n/a	n/a	n/a	17	9	3	5	n/a	n/a	n/a	n/a	n/a
1098804	PROB	n/a	LTP066	ltpFR	9	n/a	n/a	n/a	n/a	n/a	n/a	n/a	10	6	3	1	n/a	n/a	n/a	n/a	n/a
1099979	PROB	n/a	LTP066	ltpFR	9	n/a	n/a	n/a	n/a	n/a	n/a	n/a	21	4	9	8	n/a	n/a	n/a	n/a	n/a
1102213	PROB	n/a	LTP066	ltpFR	9	n/a	n/a	n/a	n/a	n/a	n/a	n/a	22	7	6	9	n/a	n/a	n/a	n/a	n/a
1103921	PROB	n/a	LTP066	ltpFR	9	n/a	n/a	n/a	n/a	n/a	n/a	n/a	14	4	5	5	n/a	n/a	n/a	n/a	n/a
1105379	PROB	n/a	LTP066	ltpFR	9	n/a	n/a	n/a	n/a	n/a	n/a	n/a	12	1	5	6	n/a	n/a	n/a	n/a	n/a
1106670	PROB	n/a	LTP066	ltpFR	9	n/a	n/a	n/a	n/a	n/a	n/a	n/a	16	6	4	6	n/a	n/a	n/a	n/a	n/a
1107657	STOP	n/a	LTP066	ltpFR	9	n/a	n/a	n/a	n/a	n/a	n/a	n/a	n/a	n/a	n/a	n/a	n/a	n/a	n/a	n/a	n/a
1110087	WORD	wordpools/wasnorm_wordpool.txt	LTP066	ltpFR	9	5	0	LAMB	797	n/a	n/a	1	n/a	0	0	0	0.422607421875	0.5869140625	0	lower	zerothre.ttf
1113096	START	n/a	LTP066	ltpFR	9	n/a	n/a	n/a	n/a	n/a	n/a	n/a	n/a	n/a	n/a	n/a	n/a	n/a	n/a	n/a	n/a
1114095	PROB	n/a	LTP066	ltpFR	9	n/a	n/a	n/a	n/a	n/a	n/a	n/a	10	3	4	3	n/a	n/a	n/a	n/a	n/a
1116086	PROB	n/a	LTP066	ltpFR	9	n/a	n/a	n/a	n/a	n/a	n/a	n/a	21	7	8	6	n/a	n/a	n/a	n/a	n/a
1118878	PROB	n/a	LTP066	ltpFR	9	n/a	n/a	n/a	n/a	n/a	n/a	n/a	16	6	4	6	n/a	n/a	n/a	n/a	n/a
1120703	PROB	n/a	LTP066	ltpFR	9	n/a	n/a	n/a	n/a	n/a	n/a	n/a	8	3	4	1	n/a	n/a	n/a	n/a	n/a
1121669	PROB	n/a	LTP066	ltpFR	9	n/a	n/a	n/a	n/a	n/a	n/a	n/a	16	8	5	3	n/a	n/a	n/a	n/a	n/a
1123419	PROB	n/a	LTP066	ltpFR	9	n/a	n/a	n/a	n/a	n/a	n/a	n/a	15	4	9	2	n/a	n/a	n/a	n/a	n/a
1124594	PROB	n/a	LTP066	ltpFR	9	n/a	n/a	n/a	n/a	n/a	n/a	n/a	19	4	7	8	n/a	n/a	n/a	n/a	n/a
1126044	PROB	n/a	LTP066	ltpFR	9	n/a	n/a	n/a	n/a	n/a	n/a	n/a	14	4	3	7	n/a	n/a	n/a	n/a	n/a
1128217	STOP	n/a	LTP066	ltpFR	9	n/a	n/a	n/a	n/a	n/a	n/a	n/a	n/a	n/a	n/a	n/a	n/a	n/a	n/a	n/a	n/a
1130235	WORD	wordpools/wasnorm_wordpool.txt	LTP066	ltpFR	9	5	1	GYMNAST	675	n/a	n/a	1	n/a	0	0	0	0.57763671875	0.412841796875	1	upper	amplitud.ttf
1133236	START	n/a	LTP066	ltpFR	9	n/a	n/a	n/a	n/a	n/a	n/a	n/a	n/a	n/a	n/a	n/a	n/a	n/a	n/a	n/a	n/a
1134118	PROB	n/a	LTP066	ltpFR	9	n/a	n/a	n/a	n/a	n/a	n/a	n/a	12	8	2	2	n/a	n/a	n/a	n/a	n/a
1135910	PROB	n/a	LTP066	ltpFR	9	n/a	n/a	n/a	n/a	n/a	n/a	n/a	13	1	8	4	n/a	n/a	n/a	n/a	n/a
1137502	PROB	n/a	LTP066	ltpFR	9	n/a	n/a	n/a	n/a	n/a	n/a	n/a	14	3	5	6	n/a	n/a	n/a	n/a	n/a
1138901	PROB	n/a	LTP066	ltpFR	9	n/a	n/a	n/a	n/a	n/a	n/a	n/a	12	7	1	4	n/a	n/a	n/a	n/a	n/a
1139901	PROB	n/a	LTP066	ltpFR	9	n/a	n/a	n/a	n/a	n/a	n/a	n/a	2	8	1	3	n/a	n/a	n/a	n/a	n/a
1140968	PROB	n/a	LTP066	ltpFR	9	n/a	n/a	n/a	n/a	n/a	n/a	n/a	19	1	9	9	n/a	n/a	n/a	n/a	n/a
1142626	PROB	n/a	LTP066	ltpFR	9	n/a	n/a	n/a	n/a	n/a	n/a	n/a	14	6	5	3	n/a	n/a	n/a	n/a	n/a
1144777	PROB	n/a	LTP066	ltpFR	9	n/a	n/a	n/a	n/a	n/a	n/a	n/a	16	8	2	6	n/a	n/a	n/a	n/a	n/a
1146559	PROB	n/a	LTP066	ltpFR	9	n/a	n/a	n/a	n/a	n/a	n/a	n/a	10	1	2	7	n/a	n/a	n/a	n/a	n/a
1149236	STOP	n/a	LTP066	ltpFR	9	n/a	n/a	n/a	n/a	n/a	n/a	n/a	n/a	n/a	n/a	n/a	n/a	n/a	n/a	n/a	n/a
1150409	WORD	wordpools/wasnorm_wordpool.txt	LTP066	ltpFR	9	5	1	MARS	873	n/a	n/a	0	n/a	0	0	0	0.57763671875	0.412841796875	1	upper	amplitud.ttf
1153418	START	n/a	LTP066	ltpFR	9	n/a	n/a	n/a	n/a	n/a	n/a	n/a	n/a	n/a	n/a	n/a	n/a	n/a	n/a	n/a	n/a
1154617	PROB	n/a	LTP066	ltpFR	9	n/a	n/a	n/a	n/a	n/a	n/a	n/a	12	9	1	2	n/a	n/a	n/a	n/a	n/a
1156084	PROB	n/a	LTP066	ltpFR	9	n/a	n/a	n/a	n/a	n/a	n/a	n/a	16	6	3	7	n/a	n/a	n/a	n/a	n/a
1157200	PROB	n/a	LTP066	ltpFR	9	n/a	n/a	n/a	n/a	n/a	n/a	n/a	15	2	6	7	n/a	n/a	n/a	n/a	n/a
1158408	PROB	n/a	LTP066	ltpFR	9	n/a	n/a	n/a	n/a	n/a	n/a	n/a	17	7	3	7	n/a	n/a	n/a	n/a	n/a
1160317	PROB	n/a	LTP066	ltpFR	9	n/a	n/a	n/a	n/a	n/a	n/a	n/a	10	2	3	5	n/a	n/a	n/a	n/a	n/a
1161784	PROB	n/a	LTP066	ltpFR	9	n/a	n/a	n/a	n/a	n/a	n/a	n/a	12	3	3	6	n/a	n/a	n/a	n/a	n/a
1163566	PROB	n/a	LTP066	ltpFR	9	n/a	n/a	n/a	n/a	n/a	n/a	n/a	17	2	7	8	n/a	n/a	n/a	n/a	n/a
1164841	PROB	n/a	LTP066	ltpFR	9	n/a	n/a	n/a	n/a	n/a	n/a	n/a	20	7	4	9	n/a	n/a	n/a	n/a	n/a
1166274	PROB	n/a	LTP066	ltpFR	9	n/a	n/a	n/a	n/a	n/a	n/a	n/a	12	1	3	8	n/a	n/a	n/a	n/a	n/a
1167283	PROB	n/a	LTP066	ltpFR	9	n/a	n/a	n/a	n/a	n/a	n/a	n/a	20	6	5	9	n/a	n/a	n/a	n/a	n/a
1169201	STOP	n/a	LTP066	ltpFR	9	n/a	n/a	n/a	n/a	n/a	n/a	n/a	n/a	n/a	n/a	n/a	n/a	n/a	n/a	n/a	n/a
1170349	WORD	wordpools/wasnorm_wordpool.txt	LTP066	ltpFR	9	5	1	SAXOPHONE	1240	n/a	n/a	0	n/a	0	0	0	0.57763671875	0.412841796875	1	upper	amplitud.ttf
1173358	START	n/a	LTP066	ltpFR	9	n/a	n/a	n/a	n/a	n/a	n/a	n/a	n/a	n/a	n/a	n/a	n/a	n/a	n/a	n/a	n/a
1174207	PROB	n/a	LTP066	ltpFR	9	n/a	n/a	n/a	n/a	n/a	n/a	n/a	11	1	8	2	n/a	n/a	n/a	n/a	n/a
1175665	PROB	n/a	LTP066	ltpFR	9	n/a	n/a	n/a	n/a	n/a	n/a	n/a	4	2	1	1	n/a	n/a	n/a	n/a	n/a
1176707	PROB	n/a	LTP066	ltpFR	9	n/a	n/a	n/a	n/a	n/a	n/a	n/a	14	4	3	7	n/a	n/a	n/a	n/a	n/a
1177915	PROB	n/a	LTP066	ltpFR	9	n/a	n/a	n/a	n/a	n/a	n/a	n/a	1	8	4	1	n/a	n/a	n/a	n/a	n/a
1181232	PROB	n/a	LTP066	ltpFR	9	n/a	n/a	n/a	n/a	n/a	n/a	n/a	19	8	9	2	n/a	n/a	n/a	n/a	n/a
1182823	PROB	n/a	LTP066	ltpFR	9	n/a	n/a	n/a	n/a	n/a	n/a	n/a	21	9	4	8	n/a	n/a	n/a	n/a	n/a
1184215	PROB	n/a	LTP066	ltpFR	9	n/a	n/a	n/a	n/a	n/a	n/a	n/a	24	9	8	7	n/a	n/a	n/a	n/a	n/a
1186615	PROB	n/a	LTP066	ltpFR	9	n/a	n/a	n/a	n/a	n/a	n/a	n/a	11	6	1	4	n/a	n/a	n/a	n/a	n/a
1189357	STOP	n/a	LTP066	ltpFR	9	n/a	n/a	n/a	n/a	n/a	n/a	n/a	n/a	n/a	n/a	n/a	n/a	n/a	n/a	n/a	n/a
1190273	WORD	wordpools/wasnorm_wordpool.txt	LTP066	ltpFR	9	5	1	FRIEND	606	n/a	n/a	1	n/a	0	0	0	0.57763671875	0.412841796875	1	upper	amplitud.ttf
1193281	START	n/a	LTP066	ltpFR	9	n/a	n/a	n/a	n/a	n/a	n/a	n/a	n/a	n/a	n/a	n/a	n/a	n/a	n/a	n/a	n/a
1194464	PROB	n/a	LTP066	ltpFR	9	n/a	n/a	n/a	n/a	n/a	n/a	n/a	14	3	9	2	n/a	n/a	n/a	n/a	n/a
1196406	PROB	n/a	LTP066	ltpFR	9	n/a	n/a	n/a	n/a	n/a	n/a	n/a	20	9	5	6	n/a	n/a	n/a	n/a	n/a
1197747	PROB	n/a	LTP066	ltpFR	9	n/a	n/a	n/a	n/a	n/a	n/a	n/a	21	4	9	8	n/a	n/a	n/a	n/a	n/a
1200822	PROB	n/a	LTP066	ltpFR	9	n/a	n/a	n/a	n/a	n/a	n/a	n/a	21	9	9	3	n/a	n/a	n/a	n/a	n/a
1202138	PROB	n/a	LTP066	ltpFR	9	n/a	n/a	n/a	n/a	n/a	n/a	n/a	19	4	8	7	n/a	n/a	n/a	n/a	n/a
1203647	PROB	n/a	LTP066	ltpFR	9	n/a	n/a	n/a	n/a	n/a	n/a	n/a	14	7	1	6	n/a	n/a	n/a	n/a	n/a
1204738	PROB	n/a	LTP066	ltpFR	9	n/a	n/a	n/a	n/a	n/a	n/a	n/a	20	8	5	7	n/a	n/a	n/a	n/a	n/a
1206297	PROB	n/a	LTP066	ltpFR	9	n/a	n/a	n/a	n/a	n/a	n/a	n/a	17	7	1	9	n/a	n/a	n/a	n/a	n/a
1207505	PROB	n/a	LTP066	ltpFR	9	n/a	n/a	n/a	n/a	n/a	n/a	n/a	20	9	2	9	n/a	n/a	n/a	n/a	n/a
1209201	STOP	n/a	LTP066	ltpFR	9	n/a	n/a	n/a	n/a	n/a	n/a	n/a	n/a	n/a	n/a	n/a	n/a	n/a	n/a	n/a	n/a
1210330	WORD	wordpools/wasnorm_wordpool.txt	LTP066	ltpFR	9	5	1	LOVER	846	n/a	n/a	1	n/a	0	0	0	0.57763671875	0.412841796875	1	upper	amplitud.ttf
1213338	START	n/a	LTP066	ltpFR	9	n/a	n/a	n/a	n/a	n/a	n/a	n/a	n/a	n/a	n/a	n/a	n/a	n/a	n/a	n/a	n/a
1214421	PROB	n/a	LTP066	ltpFR	9	n/a	n/a	n/a	n/a	n/a	n/a	n/a	18	5	7	6	n/a	n/a	n/a	n/a	n/a
1216254	PROB	n/a	LTP066	ltpFR	9	n/a	n/a	n/a	n/a	n/a	n/a	n/a	104	6	2	6	n/a	n/a	n/a	n/a	n/a
1217837	PROB	n/a	LTP066	ltpFR	9	n/a	n/a	n/a	n/a	n/a	n/a	n/a	19	9	1	9	n/a	n/a	n/a	n/a	n/a
1219937	PROB	n/a	LTP066	ltpFR	9	n/a	n/a	n/a	n/a	n/a	n/a	n/a	4	1	1	2	n/a	n/a	n/a	n/a	n/a
1220837	PROB	n/a	LTP066	ltpFR	9	n/a	n/a	n/a	n/a	n/a	n/a	n/a	14	7	6	1	n/a	n/a	n/a	n/a	n/a
1221845	PROB	n/a	LTP066	ltpFR	9	n/a	n/a	n/a	n/a	n/a	n/a	n/a	15	4	7	4	n/a	n/a	n/a	n/a	n/a
1223587	PROB	n/a	LTP066	ltpFR	9	n/a	n/a	n/a	n/a	n/a	n/a	n/a	1	5	7	1	n/a	n/a	n/a	n/a	n/a
1226820	PROB	n/a	LTP066	ltpFR	9	n/a	n/a	n/a	n/a	n/a	n/a	n/a	21	9	3	9	n/a	n/a	n/a	n/a	n/a
1228577	STOP	n/a	LTP066	ltpFR	9	n/a	n/a	n/a	n/a	n/a	n/a	n/a	n/a	n/a	n/a	n/a	n/a	n/a	n/a	n/a	n/a
1230236	WORD	wordpools/wasnorm_wordpool.txt	LTP066	ltpFR	9	5	1	FLOWER	584	n/a	n/a	1	n/a	0	0	0	0.57763671875	0.412841796875	1	upper	amplitud.ttf
1233237	START	n/a	LTP066	ltpFR	9	n/a	n/a	n/a	n/a	n/a	n/a	n/a	n/a	n/a	n/a	n/a	n/a	n/a	n/a	n/a	n/a
1234278	PROB	n/a	LTP066	ltpFR	9	n/a	n/a	n/a	n/a	n/a	n/a	n/a	10	3	5	2	n/a	n/a	n/a	n/a	n/a
1236069	PROB	n/a	LTP066	ltpFR	9	n/a	n/a	n/a	n/a	n/a	n/a	n/a	19	7	6	6	n/a	n/a	n/a	n/a	n/a
1238078	PROB	n/a	LTP066	ltpFR	9	n/a	n/a	n/a	n/a	n/a	n/a	n/a	21	7	9	5	n/a	n/a	n/a	n/a	n/a
1240011	PROB	n/a	LTP066	ltpFR	9	n/a	n/a	n/a	n/a	n/a	n/a	n/a	24	7	9	8	n/a	n/a	n/a	n/a	n/a
1241594	PROB	n/a	LTP066	ltpFR	9	n/a	n/a	n/a	n/a	n/a	n/a	n/a	13	1	5	7	n/a	n/a	n/a	n/a	n/a
1242911	PROB	n/a	LTP066	ltpFR	9	n/a	n/a	n/a	n/a	n/a	n/a	n/a	20	5	6	9	n/a	n/a	n/a	n/a	n/a
1244552	PROB	n/a	LTP066	ltpFR	9	n/a	n/a	n/a	n/a	n/a	n/a	n/a	14	4	8	2	n/a	n/a	n/a	n/a	n/a
1245669	PROB	n/a	LTP066	ltpFR	9	n/a	n/a	n/a	n/a	n/a	n/a	n/a	10	2	3	5	n/a	n/a	n/a	n/a	n/a
1247235	PROB	n/a	LTP066	ltpFR	9	n/a	n/a	n/a	n/a	n/a	n/a	n/a	20	7	8	5	n/a	n/a	n/a	n/a	n/a
1248953	STOP	n/a	LTP066	ltpFR	9	n/a	n/a	n/a	n/a	n/a	n/a	n/a	n/a	n/a	n/a	n/a	n/a	n/a	n/a	n/a	n/a
1250218	WORD	wordpools/wasnorm_wordpool.txt	LTP066	ltpFR	9	5	0	GROUND	666	n/a	n/a	1	n/a	0	0	0	0.422607421875	0.5869140625	0	lower	zerothre.ttf
1253219	START	n/a	LTP066	ltpFR	9	n/a	n/a	n/a	n/a	n/a	n/a	n/a	n/a	n/a	n/a	n/a	n/a	n/a	n/a	n/a	n/a
1254093	PROB	n/a	LTP066	ltpFR	9	n/a	n/a	n/a	n/a	n/a	n/a	n/a	18	9	7	2	n/a	n/a	n/a	n/a	n/a
1255668	PROB	n/a	LTP066	ltpFR	9	n/a	n/a	n/a	n/a	n/a	n/a	n/a	9	1	6	2	n/a	n/a	n/a	n/a	n/a
1256676	PROB	n/a	LTP066	ltpFR	9	n/a	n/a	n/a	n/a	n/a	n/a	n/a	11	1	5	5	n/a	n/a	n/a	n/a	n/a
1257726	PROB	n/a	LTP066	ltpFR	9	n/a	n/a	n/a	n/a	n/a	n/a	n/a	12	4	1	7	n/a	n/a	n/a	n/a	n/a
1258809	PROB	n/a	LTP066	ltpFR	9	n/a	n/a	n/a	n/a	n/a	n/a	n/a	15	2	5	8	n/a	n/a	n/a	n/a	n/a
1260076	PROB	n/a	LTP066	ltpFR	9	n/a	n/a	n/a	n/a	n/a	n/a	n/a	13	4	1	8	n/a	n/a	n/a	n/a	n/a
1263501	PROB	n/a	LTP066	ltpFR	9	n/a	n/a	n/a	n/a	n/a	n/a	n/a	17	7	3	7	n/a	n/a	n/a	n/a	n/a
1264501	PROB	n/a	LTP066	ltpFR	9	n/a	n/a	n/a	n/a	n/a	n/a	n/a	13	8	3	2	n/a	n/a	n/a	n/a	n/a
1265684	PROB	n/a	LTP066	ltpFR	9	n/a	n/a	n/a	n/a	n/a	n/a	n/a	19	9	5	5	n/a	n/a	n/a	n/a	n/a
1266875	PROB	n/a	LTP066	ltpFR	9	n/a	n/a	n/a	n/a	n/a	n/a	n/a	16	7	6	3	n/a	n/a	n/a	n/a	n/a
1268289	STOP	n/a	LTP066	ltpFR	9	n/a	n/a	n/a	n/a	n/a	n/a	n/a	n/a	n/a	n/a	n/a	n/a	n/a	n/a	n/a	n/a
1270208	WORD	wordpools/wasnorm_wordpool.txt	LTP066	ltpFR	9	5	0	MARROW	872	n/a	n/a	0	n/a	0	0	0	0.422607421875	0.5869140625	0	lower	zerothre.ttf
1273209	START	n/a	LTP066	ltpFR	9	n/a	n/a	n/a	n/a	n/a	n/a	n/a	n/a	n/a	n/a	n/a	n/a	n/a	n/a	n/a	n/a
1274142	PROB	n/a	LTP066	ltpFR	9	n/a	n/a	n/a	n/a	n/a	n/a	n/a	16	9	4	3	n/a	n/a	n/a	n/a	n/a
1276233	PROB	n/a	LTP066	ltpFR	9	n/a	n/a	n/a	n/a	n/a	n/a	n/a	24	8	7	9	n/a	n/a	n/a	n/a	n/a
1278200	PROB	n/a	LTP066	ltpFR	9	n/a	n/a	n/a	n/a	n/a	n/a	n/a	14	9	3	2	n/a	n/a	n/a	n/a	n/a
1279708	PROB	n/a	LTP066	ltpFR	9	n/a	n/a	n/a	n/a	n/a	n/a	n/a	20	9	2	9	n/a	n/a	n/a	n/a	n/a
1281391	PROB	n/a	LTP066	ltpFR	9	n/a	n/a	n/a	n/a	n/a	n/a	n/a	13	1	8	4	n/a	n/a	n/a	n/a	n/a
1283257	PROB	n/a	LTP066	ltpFR	9	n/a	n/a	n/a	n/a	n/a	n/a	n/a	13	8	4	1	n/a	n/a	n/a	n/a	n/a
1284449	PROB	n/a	LTP066	ltpFR	9	n/a	n/a	n/a	n/a	n/a	n/a	n/a	14	1	8	5	n/a	n/a	n/a	n/a	n/a
1285591	PROB	n/a	LTP066	ltpFR	9	n/a	n/a	n/a	n/a	n/a	n/a	n/a	11	3	2	6	n/a	n/a	n/a	n/a	n/a
1286866	PROB	n/a	LTP066	ltpFR	9	n/a	n/a	n/a	n/a	n/a	n/a	n/a	11	3	2	6	n/a	n/a	n/a	n/a	n/a
1287801	STOP	n/a	LTP066	ltpFR	9	n/a	n/a	n/a	n/a	n/a	n/a	n/a	n/a	n/a	n/a	n/a	n/a	n/a	n/a	n/a	n/a
1290374	WORD	wordpools/wasnorm_wordpool.txt	LTP066	ltpFR	9	5	0	CHEEK	287	n/a	n/a	0	n/a	0	0	0	0.422607421875	0.5869140625	0	lower	zerothre.ttf
1293382	START	n/a	LTP066	ltpFR	9	n/a	n/a	n/a	n/a	n/a	n/a	n/a	n/a	n/a	n/a	n/a	n/a	n/a	n/a	n/a	n/a
1294348	PROB	n/a	LTP066	ltpFR	9	n/a	n/a	n/a	n/a	n/a	n/a	n/a	8	3	1	4	n/a	n/a	n/a	n/a	n/a
1295523	PROB	n/a	LTP066	ltpFR	9	n/a	n/a	n/a	n/a	n/a	n/a	n/a	13	4	6	3	n/a	n/a	n/a	n/a	n/a
1296932	PROB	n/a	LTP066	ltpFR	9	n/a	n/a	n/a	n/a	n/a	n/a	n/a	18	3	6	9	n/a	n/a	n/a	n/a	n/a
1298265	PROB	n/a	LTP066	ltpFR	9	n/a	n/a	n/a	n/a	n/a	n/a	n/a	12	4	7	1	n/a	n/a	n/a	n/a	n/a
1299323	PROB	n/a	LTP066	ltpFR	9	n/a	n/a	n/a	n/a	n/a	n/a	n/a	14	2	5	7	n/a	n/a	n/a	n/a	n/a
1300923	PROB	n/a	LTP066	ltpFR	9	n/a	n/a	n/a	n/a	n/a	n/a	n/a	12	5	5	2	n/a	n/a	n/a	n/a	n/a
1302189	PROB	n/a	LTP066	ltpFR	9	n/a	n/a	n/a	n/a	n/a	n/a	n/a	12	2	5	5	n/a	n/a	n/a	n/a	n/a
1303264	PROB	n/a	LTP066	ltpFR	9	n/a	n/a	n/a	n/a	n/a	n/a	n/a	19	1	9	9	n/a	n/a	n/a	n/a	n/a
1304298	PROB	n/a	LTP066	ltpFR	9	n/a	n/a	n/a	n/a	n/a	n/a	n/a	12	8	1	3	n/a	n/a	n/a	n/a	n/a
1305339	PROB	n/a	LTP066	ltpFR	9	n/a	n/a	n/a	n/a	n/a	n/a	n/a	11	2	8	1	n/a	n/a	n/a	n/a	n/a
1306856	PROB	n/a	LTP066	ltpFR	9	n/a	n/a	n/a	n/a	n/a	n/a	n/a	16	5	3	8	n/a	n/a	n/a	n/a	n/a
1308953	STOP	n/a	LTP066	ltpFR	9	n/a	n/a	n/a	n/a	n/a	n/a	n/a	n/a	n/a	n/a	n/a	n/a	n/a	n/a	n/a	n/a
1311148	REC_START	n/a	LTP066	ltpFR	9	5	n/a	n/a	n/a	n/a	n/a	n/a	n/a	0	0	0	n/a	n/a	n/a	n/a	n/a
1312335	REC_WORD	wordpools/wasnorm_wordpool.txt	LTP066	ltpFR	9	5	0	MARROW	872	n/a	n/a	0	n/a	0	0	0	n/a	n/a	n/a	n/a	n/a
1313113	REC_WORD	wordpools/wasnorm_wordpool.txt	LTP066	ltpFR	9	5	0	CHEEK	287	n/a	n/a	0	n/a	0	0	0	n/a	n/a	n/a	n/a	n/a
1313991	REC_WORD	wordpools/wasnorm_wordpool.txt	LTP066	ltpFR	9	5	1	MARS	873	n/a	n/a	0	n/a	0	0	0	n/a	n/a	n/a	n/a	n/a
1315528	REC_WORD	wordpools/wasnorm_wordpool.txt	LTP066	ltpFR	9	5	1	SAXOPHONE	1240	n/a	n/a	0	n/a	0	0	0	n/a	n/a	n/a	n/a	n/a
1316979	REC_WORD	wordpools/wasnorm_wordpool.txt	LTP066	ltpFR	9	5	1	LOVER	846	n/a	n/a	1	n/a	0	0	0	n/a	n/a	n/a	n/a	n/a
1321090	REC_WORD	wordpools/wasnorm_wordpool.txt	LTP066	ltpFR	9	5	0	DANDELION	438	n/a	n/a	0	n/a	0	0	0	n/a	n/a	n/a	n/a	n/a
1322407	REC_WORD	wordpools/wasnorm_wordpool.txt	LTP066	ltpFR	9	5	0	LAMB	797	n/a	n/a	1	n/a	0	0	0	n/a	n/a	n/a	n/a	n/a
1326677	REC_WORD	wordpools/wasnorm_wordpool.txt	LTP066	ltpFR	9	5	0	KITCHEN	778	n/a	n/a	1	n/a	0	0	0	n/a	n/a	n/a	n/a	n/a
1329077	REC_WORD	wordpools/wasnorm_wordpool.txt	LTP066	ltpFR	9	5	0	CONDUCTOR	362	n/a	n/a	1	n/a	0	0	0	n/a	n/a	n/a	n/a	n/a
1332574	REC_WORD	wordpools/wasnorm_wordpool.txt	LTP066	ltpFR	9	5	1	GYMNAST	675	n/a	n/a	1	n/a	0	0	0	n/a	n/a	n/a	n/a	n/a
1338860	REC_WORD	wordpools/wasnorm_wordpool.txt	LTP066	ltpFR	9	5	1	UNIVERSE	1540	n/a	n/a	0	n/a	0	0	0	n/a	n/a	n/a	n/a	n/a
1339838	REC_WORD	wordpools/wasnorm_wordpool.txt	LTP066	ltpFR	9	5	1	WRITER	1627	n/a	n/a	1	n/a	0	0	0	n/a	n/a	n/a	n/a	n/a
1368697	REC_WORD	wordpools/wasnorm_wordpool.txt	LTP066	ltpFR	9	5	0	ROSE	1212	n/a	n/a	0	n/a	0	0	0	n/a	n/a	n/a	n/a	n/a
1389625	WORD	wordpools/wasnorm_wordpool.txt	LTP066	ltpFR	9	6	1	PAN	1008	n/a	n/a	0	n/a	0	0	0	0.57763671875	0.412841796875	1	upper	amplitud.ttf
1393608	WORD	wordpools/wasnorm_wordpool.txt	LTP066	ltpFR	9	6	1	CUP	424	n/a	n/a	0	n/a	0	0	0	0.57763671875	0.412841796875	1	upper	amplitud.ttf
1397674	WORD	wordpools/wasnorm_wordpool.txt	LTP066	ltpFR	9	6	1	BANDIT	81	n/a	n/a	1	n/a	0	0	0	0.57763671875	0.412841796875	1	upper	amplitud.ttf
1401640	WORD	wordpools/wasnorm_wordpool.txt	LTP066	ltpFR	9	6	1	CURB	426	n/a	n/a	0	n/a	0	0	0	0.57763671875	0.412841796875	1	upper	amplitud.ttf
1405690	WORD	wordpools/wasnorm_wordpool.txt	LTP066	ltpFR	9	6	1	WARRIOR	1589	n/a	n/a	1	n/a	0	0	0	0.57763671875	0.412841796875	1	upper	amplitud.ttf
1409774	WORD	wordpools/wasnorm_wordpool.txt	LTP066	ltpFR	9	6	0	PANTHER	1009	n/a	n/a	1	n/a	0	0	0	0.422607421875	0.5869140625	0	lower	zerothre.ttf
1413631	WORD	wordpools/wasnorm_wordpool.txt	LTP066	ltpFR	9	6	0	PREDATOR	1120	n/a	n/a	1	n/a	0	0	0	0.422607421875	0.5869140625	0	lower	zerothre.ttf
1417664	WORD	wordpools/wasnorm_wordpool.txt	LTP066	ltpFR	9	6	0	FINGER	567	n/a	n/a	0	n/a	0	0	0	0.422607421875	0.5869140625	0	lower	zerothre.ttf
1421531	WORD	wordpools/wasnorm_wordpool.txt	LTP066	ltpFR	9	6	1	PALM	1007	n/a	n/a	1	n/a	0	0	0	0.57763671875	0.412841796875	1	upper	amplitud.ttf
1425389	WORD	wordpools/wasnorm_wordpool.txt	LTP066	ltpFR	9	6	1	APPENDAGE	32	n/a	n/a	0	n/a	0	0	0	0.57763671875	0.412841796875	1	upper	amplitud.ttf
1429363	WORD	wordpools/wasnorm_wordpool.txt	LTP066	ltpFR	9	6	1	SALMON	1227	n/a	n/a	1	n/a	0	0	0	0.57763671875	0.412841796875	1	upper	amplitud.ttf
1433430	WORD	wordpools/wasnorm_wordpool.txt	LTP066	ltpFR	9	6	0	POTATO	1115	n/a	n/a	1	n/a	0	0	0	0.422607421875	0.5869140625	0	lower	zerothre.ttf
1437354	WORD	wordpools/wasnorm_wordpool.txt	LTP066	ltpFR	9	6	0	SARDINE	1235	n/a	n/a	0	n/a	0	0	0	0.422607421875	0.5869140625	0	lower	zerothre.ttf
1441312	WORD	wordpools/wasnorm_wordpool.txt	LTP066	ltpFR	9	6	0	VOLLEYBALL	1576	n/a	n/a	1	n/a	0	0	0	0.422607421875	0.5869140625	0	lower	zerothre.ttf
1445146	WORD	wordpools/wasnorm_wordpool.txt	LTP066	ltpFR	9	6	0	SCALLOP	1242	n/a	n/a	0	n/a	0	0	0	0.422607421875	0.5869140625	0	lower	zerothre.ttf
1448995	WORD	wordpools/wasnorm_wordpool.txt	LTP066	ltpFR	9	6	0	WRIST	1626	n/a	n/a	0	n/a	0	0	0	0.422607421875	0.5869140625	0	lower	zerothre.ttf
1452004	START	n/a	LTP066	ltpFR	9	n/a	n/a	n/a	n/a	n/a	n/a	n/a	n/a	n/a	n/a	n/a	n/a	n/a	n/a	n/a	n/a
1452987	PROB	n/a	LTP066	ltpFR	9	n/a	n/a	n/a	n/a	n/a	n/a	n/a	11	1	5	5	n/a	n/a	n/a	n/a	n/a
1454445	PROB	n/a	LTP066	ltpFR	9	n/a	n/a	n/a	n/a	n/a	n/a	n/a	51	3	8	4	n/a	n/a	n/a	n/a	n/a
1456795	PROB	n/a	LTP066	ltpFR	9	n/a	n/a	n/a	n/a	n/a	n/a	n/a	4	1	1	2	n/a	n/a	n/a	n/a	n/a
1457787	PROB	n/a	LTP066	ltpFR	9	n/a	n/a	n/a	n/a	n/a	n/a	n/a	9	5	1	3	n/a	n/a	n/a	n/a	n/a
1458803	PROB	n/a	LTP066	ltpFR	9	n/a	n/a	n/a	n/a	n/a	n/a	n/a	17	1	8	8	n/a	n/a	n/a	n/a	n/a
1459895	PROB	n/a	LTP066	ltpFR	9	n/a	n/a	n/a	n/a	n/a	n/a	n/a	14	5	2	7	n/a	n/a	n/a	n/a	n/a
1461336	PROB	n/a	LTP066	ltpFR	9	n/a	n/a	n/a	n/a	n/a	n/a	n/a	7	1	5	1	n/a	n/a	n/a	n/a	n/a
1462261	PROB	n/a	LTP066	ltpFR	9	n/a	n/a	n/a	n/a	n/a	n/a	n/a	9	3	2	4	n/a	n/a	n/a	n/a	n/a
1463286	PROB	n/a	LTP066	ltpFR	9	n/a	n/a	n/a	n/a	n/a	n/a	n/a	14	7	5	2	n/a	n/a	n/a	n/a	n/a
1464402	PROB	n/a	LTP066	ltpFR	9	n/a	n/a	n/a	n/a	n/a	n/a	n/a	14	3	8	3	n/a	n/a	n/a	n/a	n/a
1465886	PROB	n/a	LTP066	ltpFR	9	n/a	n/a	n/a	n/a	n/a	n/a	n/a	15	2	8	5	n/a	n/a	n/a	n/a	n/a
1467073	STOP	n/a	LTP066	ltpFR	9	n/a	n/a	n/a	n/a	n/a	n/a	n/a	n/a	n/a	n/a	n/a	n/a	n/a	n/a	n/a	n/a
1469828	REC_START	n/a	LTP066	ltpFR	9	6	n/a	n/a	n/a	n/a	n/a	n/a	n/a	0	0	0	n/a	n/a	n/a	n/a	n/a
1472791	REC_WORD	wordpools/wasnorm_wordpool.txt	LTP066	ltpFR	9	6	1	PAN	1008	n/a	n/a	0	n/a	0	0	0	n/a	n/a	n/a	n/a	n/a
1474013	REC_WORD	wordpools/wasnorm_wordpool.txt	LTP066	ltpFR	9	6	n/a	MUG	930	n/a	n/a	n/a	n/a	0	0	0	n/a	n/a	n/a	n/a	n/a
1478563	REC_WORD	wordpools/wasnorm_wordpool.txt	LTP066	ltpFR	9	6	1	WARRIOR	1589	n/a	n/a	1	n/a	0	0	0	n/a	n/a	n/a	n/a	n/a
1480918	REC_WORD	wordpools/wasnorm_wordpool.txt	LTP066	ltpFR	9	6	1	CURB	426	n/a	n/a	0	n/a	0	0	0	n/a	n/a	n/a	n/a	n/a
1490097	REC_WORD	wordpools/wasnorm_wordpool.txt	LTP066	ltpFR	9	6	0	PREDATOR	1120	n/a	n/a	1	n/a	0	0	0	n/a	n/a	n/a	n/a	n/a
1494412	REC_WORD	wordpools/wasnorm_wordpool.txt	LTP066	ltpFR	9	6	0	PANTHER	1009	n/a	n/a	1	n/a	0	0	0	n/a	n/a	n/a	n/a	n/a
1497709	REC_WORD	wordpools/wasnorm_wordpool.txt	LTP066	ltpFR	9	6	0	FINGER	567	n/a	n/a	0	n/a	0	0	0	n/a	n/a	n/a	n/a	n/a
1499056	REC_WORD	wordpools/wasnorm_wordpool.txt	LTP066	ltpFR	9	6	1	PALM	1007	n/a	n/a	1	n/a	0	0	0	n/a	n/a	n/a	n/a	n/a
1500692	REC_WORD	wordpools/wasnorm_wordpool.txt	LTP066	ltpFR	9	6	1	APPENDAGE	32	n/a	n/a	0	n/a	0	0	0	n/a	n/a	n/a	n/a	n/a
1506370	REC_WORD	wordpools/wasnorm_wordpool.txt	LTP066	ltpFR	9	6	0	WRIST	1626	n/a	n/a	0	n/a	0	0	0	n/a	n/a	n/a	n/a	n/a
1510630	REC_WORD	wordpools/wasnorm_wordpool.txt	LTP066	ltpFR	9	6	0	SARDINE	1235	n/a	n/a	0	n/a	0	0	0	n/a	n/a	n/a	n/a	n/a
1512176	REC_WORD	wordpools/wasnorm_wordpool.txt	LTP066	ltpFR	9	6	0	POTATO	1115	n/a	n/a	1	n/a	0	0	0	n/a	n/a	n/a	n/a	n/a
1513738	REC_WORD	wordpools/wasnorm_wordpool.txt	LTP066	ltpFR	9	6	0	VOLLEYBALL	1576	n/a	n/a	1	n/a	0	0	0	n/a	n/a	n/a	n/a	n/a
1517060	REC_WORD	wordpools/wasnorm_wordpool.txt	LTP066	ltpFR	9	6	0	SCALLOP	1242	n/a	n/a	0	n/a	0	0	0	n/a	n/a	n/a	n/a	n/a
1548338	WORD	wordpools/wasnorm_wordpool.txt	LTP066	ltpFR	9	7	0	BRAKE	166	n/a	n/a	1	n/a	0	0	0	0.422607421875	0.5869140625	0	lower	zerothre.ttf
1552221	WORD	wordpools/wasnorm_wordpool.txt	LTP066	ltpFR	9	7	0	RADIATOR	1156	n/a	n/a	1	n/a	0	0	0	0.422607421875	0.5869140625	0	lower	zerothre.ttf
1556129	WORD	wordpools/wasnorm_wordpool.txt	LTP066	ltpFR	9	7	0	CREVICE	405	n/a	n/a	1	n/a	0	0	0	0.422607421875	0.5869140625	0	lower	zerothre.ttf
1560029	WORD	wordpools/wasnorm_wordpool.txt	LTP066	ltpFR	9	7	0	OZONE	996	n/a	n/a	1	n/a	0	0	0	0.422607421875	0.5869140625	0	lower	zerothre.ttf
1563853	WORD	wordpools/wasnorm_wordpool.txt	LTP066	ltpFR	9	7	0	CHART	282	n/a	n/a	0	n/a	0	0	0	0.422607421875	0.5869140625	0	lower	zerothre.ttf
1567845	WORD	wordpools/wasnorm_wordpool.txt	LTP066	ltpFR	9	7	0	PLIERS	1089	n/a	n/a	0	n/a	0	0	0	0.422607421875	0.5869140625	0	lower	zerothre.ttf
1571761	WORD	wordpools/wasnorm_wordpool.txt	LTP066	ltpFR	9	7	0	BRACELET	163	n/a	n/a	0	n/a	0	0	0	0.422607421875	0.5869140625	0	lower	zerothre.ttf
1575919	WORD	wordpools/wasnorm_wordpool.txt	LTP066	ltpFR	9	7	0	BANK	83	n/a	n/a	1	n/a	0	0	0	0.422607421875	0.5869140625	0	lower	zerothre.ttf
1579811	WORD	wordpools/wasnorm_wordpool.txt	LTP066	ltpFR	9	7	0	MAN	862	n/a	n/a	1	n/a	0	0	0	0.422607421875	0.5869140625	0	lower	zerothre.ttf
1583994	WORD	wordpools/wasnorm_wordpool.txt	LTP066	ltpFR	9	7	0	COACH	331	n/a	n/a	1	n/a	0	0	0	0.422607421875	0.5869140625	0	lower	zerothre.ttf
1588002	WORD	wordpools/wasnorm_wordpool.txt	LTP066	ltpFR	9	7	0	COLLAR	345	n/a	n/a	0	n/a	0	0	0	0.422607421875	0.5869140625	0	lower	zerothre.ttf
1592160	WORD	wordpools/wasnorm_wordpool.txt	LTP066	ltpFR	9	7	0	LAPEL	800	n/a	n/a	0	n/a	0	0	0	0.422607421875	0.5869140625	0	lower	zerothre.ttf
1596201	WORD	wordpools/wasnorm_wordpool.txt	LTP066	ltpFR	9	7	0	GOWN	652	n/a	n/a	0	n/a	0	0	0	0.422607421875	0.5869140625	0	lower	zerothre.ttf
1600076	WORD	wordpools/wasnorm_wordpool.txt	LTP066	ltpFR	9	7	0	TREASURE	1500	n/a	n/a	1	n/a	0	0	0	0.422607421875	0.5869140625	0	lower	zerothre.ttf
1604234	WORD	wordpools/wasnorm_wordpool.txt	LTP066	ltpFR	9	7	0	WORKER	1621	n/a	n/a	1	n/a	0	0	0	0.422607421875	0.5869140625	0	lower	zerothre.ttf
1608059	WORD	wordpools/wasnorm_wordpool.txt	LTP066	ltpFR	9	7	0	CHAIN	273	n/a	n/a	0	n/a	0	0	0	0.422607421875	0.5869140625	0	lower	zerothre.ttf
1613884	REC_START	n/a	LTP066	ltpFR	9	7	n/a	n/a	n/a	n/a	n/a	n/a	n/a	0	0	0	n/a	n/a	n/a	n/a	n/a
1618723	REC_WORD	wordpools/wasnorm_wordpool.txt	LTP066	ltpFR	9	7	0	GOWN	652	n/a	n/a	0	n/a	0	0	0	n/a	n/a	n/a	n/a	n/a
1619785	REC_WORD	wordpools/wasnorm_wordpool.txt	LTP066	ltpFR	9	7	0	TREASURE	1500	n/a	n/a	1	n/a	0	0	0	n/a	n/a	n/a	n/a	n/a
1623552	REC_WORD	wordpools/wasnorm_wordpool.txt	LTP066	ltpFR	9	7	0	LAPEL	800	n/a	n/a	0	n/a	0	0	0	n/a	n/a	n/a	n/a	n/a
1624999	REC_WORD	wordpools/wasnorm_wordpool.txt	LTP066	ltpFR	9	7	0	COLLAR	345	n/a	n/a	0	n/a	0	0	0	n/a	n/a	n/a	n/a	n/a
1626510	REC_WORD	wordpools/wasnorm_wordpool.txt	LTP066	ltpFR	9	7	0	BANK	83	n/a	n/a	1	n/a	0	0	0	n/a	n/a	n/a	n/a	n/a
1629289	REC_WORD	wordpools/wasnorm_wordpool.txt	LTP066	ltpFR	9	7	0	OZONE	996	n/a	n/a	1	n/a	0	0	0	n/a	n/a	n/a	n/a	n/a
1632901	REC_WORD	wordpools/wasnorm_wordpool.txt	LTP066	ltpFR	9	7	0	BRACELET	163	n/a	n/a	0	n/a	0	0	0	n/a	n/a	n/a	n/a	n/a
1679539	REC_WORD	wordpools/wasnorm_wordpool.txt	LTP066	ltpFR	9	7	0	PLIERS	1089	n/a	n/a	0	n/a	0	0	0	n/a	n/a	n/a	n/a	n/a
1681166	REC_WORD	wordpools/wasnorm_wordpool.txt	LTP066	ltpFR	9	7	0	CHART	282	n/a	n/a	0	n/a	0	0	0	n/a	n/a	n/a	n/a	n/a
1692361	WORD	wordpools/wasnorm_wordpool.txt	LTP066	ltpFR	9	8	0	MOP	916	n/a	n/a	1	n/a	0	0	0	0.422607421875	0.5869140625	0	lower	zerothre.ttf
1696485	WORD	wordpools/wasnorm_wordpool.txt	LTP066	ltpFR	9	8	0	NET	946	n/a	n/a	1	n/a	0	0	0	0.422607421875	0.5869140625	0	lower	zerothre.ttf
1700493	WORD	wordpools/wasnorm_wordpool.txt	LTP066	ltpFR	9	8	0	VEGETABLE	1552	n/a	n/a	1	n/a	0	0	0	0.422607421875	0.5869140625	0	lower	zerothre.ttf
1704368	WORD	wordpools/wasnorm_wordpool.txt	LTP066	ltpFR	9	8	1	PIGMENT	1066	n/a	n/a	0	n/a	0	0	0	0.57763671875	0.412841796875	1	upper	amplitud.ttf
1708451	WORD	wordpools/wasnorm_wordpool.txt	LTP066	ltpFR	9	8	1	SEA	1259	n/a	n/a	0	n/a	0	0	0	0.57763671875	0.412841796875	1	upper	amplitud.ttf
1712668	WORD	wordpools/wasnorm_wordpool.txt	LTP066	ltpFR	9	8	1	SPINACH	1352	n/a	n/a	1	n/a	0	0	0	0.57763671875	0.412841796875	1	upper	amplitud.ttf
1716717	WORD	wordpools/wasnorm_wordpool.txt	LTP066	ltpFR	9	8	1	PAINT	1003	n/a	n/a	0	n/a	0	0	0	0.57763671875	0.412841796875	1	upper	amplitud.ttf
1720717	WORD	wordpools/wasnorm_wordpool.txt	LTP066	ltpFR	9	8	0	POLICE	1098	n/a	n/a	1	n/a	0	0	0	0.422607421875	0.5869140625	0	lower	zerothre.ttf
1724650	WORD	wordpools/wasnorm_wordpool.txt	LTP066	ltpFR	9	8	0	HANDCUFFS	685	n/a	n/a	0	n/a	0	0	0	0.422607421875	0.5869140625	0	lower	zerothre.ttf
1728683	WORD	wordpools/wasnorm_wordpool.txt	LTP066	ltpFR	9	8	0	TOWER	1490	n/a	n/a	1	n/a	0	0	0	0.422607421875	0.5869140625	0	lower	zerothre.ttf
1732899	WORD	wordpools/wasnorm_wordpool.txt	LTP066	ltpFR	9	8	1	CRUMB	416	n/a	n/a	0	n/a	0	0	0	0.57763671875	0.412841796875	1	upper	amplitud.ttf
1736941	WORD	wordpools/wasnorm_wordpool.txt	LTP066	ltpFR	9	8	1	DAD	433	n/a	n/a	1	n/a	0	0	0	0.57763671875	0.412841796875	1	upper	amplitud.ttf
1740949	WORD	wordpools/wasnorm_wordpool.txt	LTP066	ltpFR	9	8	1	HOUND	724	n/a	n/a	1	n/a	0	0	0	0.57763671875	0.412841796875	1	upper	amplitud.ttf
1744865	WORD	wordpools/wasnorm_wordpool.txt	LTP066	ltpFR	9	8	1	BOXER	160	n/a	n/a	1	n/a	0	0	0	0.57763671875	0.412841796875	1	upper	amplitud.ttf
1748965	WORD	wordpools/wasnorm_wordpool.txt	LTP066	ltpFR	9	8	0	ANTELOPE	27	n/a	n/a	1	n/a	0	0	0	0.422607421875	0.5869140625	0	lower	zerothre.ttf
1753131	WORD	wordpools/wasnorm_wordpool.txt	LTP066	ltpFR	9	8	0	FOREST	593	n/a	n/a	1	n/a	0	0	0	0.422607421875	0.5869140625	0	lower	zerothre.ttf
1756139	START	n/a	LTP066	ltpFR	9	n/a	n/a	n/a	n/a	n/a	n/a	n/a	n/a	n/a	n/a	n/a	n/a	n/a	n/a	n/a	n/a
1756964	PROB	n/a	LTP066	ltpFR	9	n/a	n/a	n/a	n/a	n/a	n/a	n/a	145	5	1	8	n/a	n/a	n/a	n/a	n/a
1758839	PROB	n/a	LTP066	ltpFR	9	n/a	n/a	n/a	n/a	n/a	n/a	n/a	14	4	5	5	n/a	n/a	n/a	n/a	n/a
1760314	PROB	n/a	LTP066	ltpFR	9	n/a	n/a	n/a	n/a	n/a	n/a	n/a	19	8	2	9	n/a	n/a	n/a	n/a	n/a
1764139	STOP	n/a	LTP066	ltpFR	9	n/a	n/a	n/a	n/a	n/a	n/a	n/a	n/a	n/a	n/a	n/a	n/a	n/a	n/a	n/a	n/a
1765973	REC_START	n/a	LTP066	ltpFR	9	8	n/a	n/a	n/a	n/a	n/a	n/a	n/a	0	0	0	n/a	n/a	n/a	n/a	n/a
1773166	REC_WORD	wordpools/wasnorm_wordpool.txt	LTP066	ltpFR	9	8	0	FOREST	593	n/a	n/a	1	n/a	0	0	0	n/a	n/a	n/a	n/a	n/a
1775661	REC_WORD	wordpools/wasnorm_wordpool.txt	LTP066	ltpFR	9	8	1	SEA	1259	n/a	n/a	0	n/a	0	0	0	n/a	n/a	n/a	n/a	n/a
1777427	REC_WORD	wordpools/wasnorm_wordpool.txt	LTP066	ltpFR	9	8	0	MOP	916	n/a	n/a	1	n/a	0	0	0	n/a	n/a	n/a	n/a	n/a
1778749	REC_WORD	wordpools/wasnorm_wordpool.txt	LTP066	ltpFR	9	8	0	NET	946	n/a	n/a	1	n/a	0	0	0	n/a	n/a	n/a	n/a	n/a
1782775	REC_WORD	wordpools/wasnorm_wordpool.txt	LTP066	ltpFR	9	8	1	PAINT	1003	n/a	n/a	0	n/a	0	0	0	n/a	n/a	n/a	n/a	n/a
1789554	REC_WORD	wordpools/wasnorm_wordpool.txt	LTP066	ltpFR	9	8	n/a	COP	376	n/a	n/a	n/a	n/a	0	0	0	n/a	n/a	n/a	n/a	n/a
1790667	REC_WORD	wordpools/wasnorm_wordpool.txt	LTP066	ltpFR	9	8	0	HANDCUFFS	685	n/a	n/a	0	n/a	0	0	0	n/a	n/a	n/a	n/a	n/a
1843300	START	n/a	LTP066	ltpFR	9	n/a	n/a	n/a	n/a	n/a	n/a	n/a	n/a	n/a	n/a	n/a	n/a	n/a	n/a	n/a	n/a
1844808	PROB	n/a	LTP066	ltpFR	9	n/a	n/a	n/a	n/a	n/a	n/a	n/a	15	5	8	2	n/a	n/a	n/a	n/a	n/a
1846374	PROB	n/a	LTP066	ltpFR	9	n/a	n/a	n/a	n/a	n/a	n/a	n/a	18	3	7	8	n/a	n/a	n/a	n/a	n/a
1847775	PROB	n/a	LTP066	ltpFR	9	n/a	n/a	n/a	n/a	n/a	n/a	n/a	13	5	5	3	n/a	n/a	n/a	n/a	n/a
1848866	PROB	n/a	LTP066	ltpFR	9	n/a	n/a	n/a	n/a	n/a	n/a	n/a	10	7	1	2	n/a	n/a	n/a	n/a	n/a
1850082	PROB	n/a	LTP066	ltpFR	9	n/a	n/a	n/a	n/a	n/a	n/a	n/a	20	6	6	8	n/a	n/a	n/a	n/a	n/a
1851907	PROB	n/a	LTP066	ltpFR	9	n/a	n/a	n/a	n/a	n/a	n/a	n/a	15	7	4	4	n/a	n/a	n/a	n/a	n/a
1853149	PROB	n/a	LTP066	ltpFR	9	n/a	n/a	n/a	n/a	n/a	n/a	n/a	21	9	8	4	n/a	n/a	n/a	n/a	n/a
1854965	PROB	n/a	LTP066	ltpFR	9	n/a	n/a	n/a	n/a	n/a	n/a	n/a	16	6	4	6	n/a	n/a	n/a	n/a	n/a
1856757	PROB	n/a	LTP066	ltpFR	9	n/a	n/a	n/a	n/a	n/a	n/a	n/a	21	8	6	7	n/a	n/a	n/a	n/a	n/a
1858049	STOP	n/a	LTP066	ltpFR	9	n/a	n/a	n/a	n/a	n/a	n/a	n/a	n/a	n/a	n/a	n/a	n/a	n/a	n/a	n/a	n/a
1860207	WORD	wordpools/wasnorm_wordpool.txt	LTP066	ltpFR	9	9	1	PORCUPINE	1107	n/a	n/a	1	n/a	0	0	0	0.57763671875	0.412841796875	1	upper	amplitud.ttf
1863215	START	n/a	LTP066	ltpFR	9	n/a	n/a	n/a	n/a	n/a	n/a	n/a	n/a	n/a	n/a	n/a	n/a	n/a	n/a	n/a	n/a
1864215	PROB	n/a	LTP066	ltpFR	9	n/a	n/a	n/a	n/a	n/a	n/a	n/a	21	7	8	8	n/a	n/a	n/a	n/a	n/a
1866689	PROB	n/a	LTP066	ltpFR	9	n/a	n/a	n/a	n/a	n/a	n/a	n/a	16	4	8	4	n/a	n/a	n/a	n/a	n/a
1868039	PROB	n/a	LTP066	ltpFR	9	n/a	n/a	n/a	n/a	n/a	n/a	n/a	20	5	6	9	n/a	n/a	n/a	n/a	n/a
1870523	PROB	n/a	LTP066	ltpFR	9	n/a	n/a	n/a	n/a	n/a	n/a	n/a	12	2	9	1	n/a	n/a	n/a	n/a	n/a
1871689	PROB	n/a	LTP066	ltpFR	9	n/a	n/a	n/a	n/a	n/a	n/a	n/a	16	3	4	9	n/a	n/a	n/a	n/a	n/a
1874539	PROB	n/a	LTP066	ltpFR	9	n/a	n/a	n/a	n/a	n/a	n/a	n/a	21	9	4	7	n/a	n/a	n/a	n/a	n/a
1876939	PROB	n/a	LTP066	ltpFR	9	n/a	n/a	n/a	n/a	n/a	n/a	n/a	13	4	1	8	n/a	n/a	n/a	n/a	n/a
1878633	STOP	n/a	LTP066	ltpFR	9	n/a	n/a	n/a	n/a	n/a	n/a	n/a	n/a	n/a	n/a	n/a	n/a	n/a	n/a	n/a	n/a
1880372	WORD	wordpools/wasnorm_wordpool.txt	LTP066	ltpFR	9	9	1	POSSUM	1112	n/a	n/a	1	n/a	0	0	0	0.57763671875	0.412841796875	1	upper	amplitud.ttf
1883380	START	n/a	LTP066	ltpFR	9	n/a	n/a	n/a	n/a	n/a	n/a	n/a	n/a	n/a	n/a	n/a	n/a	n/a	n/a	n/a	n/a
1884463	PROB	n/a	LTP066	ltpFR	9	n/a	n/a	n/a	n/a	n/a	n/a	n/a	14	7	1	6	n/a	n/a	n/a	n/a	n/a
1885671	PROB	n/a	LTP066	ltpFR	9	n/a	n/a	n/a	n/a	n/a	n/a	n/a	18	9	2	7	n/a	n/a	n/a	n/a	n/a
1887221	PROB	n/a	LTP066	ltpFR	9	n/a	n/a	n/a	n/a	n/a	n/a	n/a	13	5	2	6	n/a	n/a	n/a	n/a	n/a
1888755	PROB	n/a	LTP066	ltpFR	9	n/a	n/a	n/a	n/a	n/a	n/a	n/a	13	3	6	4	n/a	n/a	n/a	n/a	n/a
1890138	PROB	n/a	LTP066	ltpFR	9	n/a	n/a	n/a	n/a	n/a	n/a	n/a	17	2	8	7	n/a	n/a	n/a	n/a	n/a
1891404	PROB	n/a	LTP066	ltpFR	9	n/a	n/a	n/a	n/a	n/a	n/a	n/a	15	2	8	3	n/a	n/a	n/a	n/a	n/a
1892529	PROB	n/a	LTP066	ltpFR	9	n/a	n/a	n/a	n/a	n/a	n/a	n/a	14	4	9	1	n/a	n/a	n/a	n/a	n/a
1894138	PROB	n/a	LTP066	ltpFR	9	n/a	n/a	n/a	n/a	n/a	n/a	n/a	14	5	3	6	n/a	n/a	n/a	n/a	n/a
1895812	PROB	n/a	LTP066	ltpFR	9	n/a	n/a	n/a	n/a	n/a	n/a	n/a	16	8	4	4	n/a	n/a	n/a	n/a	n/a
1897179	PROB	n/a	LTP066	ltpFR	9	n/a	n/a	n/a	n/a	n/a	n/a	n/a	18	6	7	5	n/a	n/a	n/a	n/a	n/a
1898577	STOP	n/a	LTP066	ltpFR	9	n/a	n/a	n/a	n/a	n/a	n/a	n/a	n/a	n/a	n/a	n/a	n/a	n/a	n/a	n/a	n/a
1900320	WORD	wordpools/wasnorm_wordpool.txt	LTP066	ltpFR	9	9	1	SNOB	1335	n/a	n/a	1	n/a	0	0	0	0.57763671875	0.412841796875	1	upper	amplitud.ttf
1903321	START	n/a	LTP066	ltpFR	9	n/a	n/a	n/a	n/a	n/a	n/a	n/a	n/a	n/a	n/a	n/a	n/a	n/a	n/a	n/a	n/a
1904187	PROB	n/a	LTP066	ltpFR	9	n/a	n/a	n/a	n/a	n/a	n/a	n/a	21	7	6	8	n/a	n/a	n/a	n/a	n/a
1906020	PROB	n/a	LTP066	ltpFR	9	n/a	n/a	n/a	n/a	n/a	n/a	n/a	10	4	1	5	n/a	n/a	n/a	n/a	n/a
1907186	PROB	n/a	LTP066	ltpFR	9	n/a	n/a	n/a	n/a	n/a	n/a	n/a	9	6	1	2	n/a	n/a	n/a	n/a	n/a
1908253	PROB	n/a	LTP066	ltpFR	9	n/a	n/a	n/a	n/a	n/a	n/a	n/a	17	6	3	8	n/a	n/a	n/a	n/a	n/a
1909945	PROB	n/a	LTP066	ltpFR	9	n/a	n/a	n/a	n/a	n/a	n/a	n/a	15	1	6	8	n/a	n/a	n/a	n/a	n/a
1911086	PROB	n/a	LTP066	ltpFR	9	n/a	n/a	n/a	n/a	n/a	n/a	n/a	17	3	9	5	n/a	n/a	n/a	n/a	n/a
1913244	PROB	n/a	LTP066	ltpFR	9	n/a	n/a	n/a	n/a	n/a	n/a	n/a	15	5	7	3	n/a	n/a	n/a	n/a	n/a
1914403	PROB	n/a	LTP066	ltpFR	9	n/a	n/a	n/a	n/a	n/a	n/a	n/a	5	3	1	1	n/a	n/a	n/a	n/a	n/a
1915578	PROB	n/a	LTP066	ltpFR	9	n/a	n/a	n/a	n/a	n/a	n/a	n/a	17	9	3	5	n/a	n/a	n/a	n/a	n/a
1917411	PROB	n/a	LTP066	ltpFR	9	n/a	n/a	n/a	n/a	n/a	n/a	n/a	16	6	5	5	n/a	n/a	n/a	n/a	n/a
1918513	STOP	n/a	LTP066	ltpFR	9	n/a	n/a	n/a	n/a	n/a	n/a	n/a	n/a	n/a	n/a	n/a	n/a	n/a	n/a	n/a	n/a
1920244	WORD	wordpools/wasnorm_wordpool.txt	LTP066	ltpFR	9	9	1	EAGLE	512	n/a	n/a	1	n/a	0	0	0	0.57763671875	0.412841796875	1	upper	amplitud.ttf
1923253	START	n/a	LTP066	ltpFR	9	n/a	n/a	n/a	n/a	n/a	n/a	n/a	n/a	n/a	n/a	n/a	n/a	n/a	n/a	n/a	n/a
1924335	PROB	n/a	LTP066	ltpFR	9	n/a	n/a	n/a	n/a	n/a	n/a	n/a	12	2	2	8	n/a	n/a	n/a	n/a	n/a
1925860	PROB	n/a	LTP066	ltpFR	9	n/a	n/a	n/a	n/a	n/a	n/a	n/a	12	3	4	5	n/a	n/a	n/a	n/a	n/a
1927068	PROB	n/a	LTP066	ltpFR	9	n/a	n/a	n/a	n/a	n/a	n/a	n/a	9	4	2	3	n/a	n/a	n/a	n/a	n/a
1929685	PROB	n/a	LTP066	ltpFR	9	n/a	n/a	n/a	n/a	n/a	n/a	n/a	19	8	8	3	n/a	n/a	n/a	n/a	n/a
1930968	PROB	n/a	LTP066	ltpFR	9	n/a	n/a	n/a	n/a	n/a	n/a	n/a	5	2	1	2	n/a	n/a	n/a	n/a	n/a
1931885	PROB	n/a	LTP066	ltpFR	9	n/a	n/a	n/a	n/a	n/a	n/a	n/a	18	9	7	4	n/a	n/a	n/a	n/a	n/a
1933051	PROB	n/a	LTP066	ltpFR	9	n/a	n/a	n/a	n/a	n/a	n/a	n/a	10	2	6	2	n/a	n/a	n/a	n/a	n/a
1939253	STOP	n/a	LTP066	ltpFR	9	n/a	n/a	n/a	n/a	n/a	n/a	n/a	n/a	n/a	n/a	n/a	n/a	n/a	n/a	n/a	n/a
1940201	WORD	wordpools/wasnorm_wordpool.txt	LTP066	ltpFR	9	9	1	BEAKER	104	n/a	n/a	0	n/a	0	0	0	0.57763671875	0.412841796875	1	upper	amplitud.ttf
1943209	START	n/a	LTP066	ltpFR	9	n/a	n/a	n/a	n/a	n/a	n/a	n/a	n/a	n/a	n/a	n/a	n/a	n/a	n/a	n/a	n/a
1944184	PROB	n/a	LTP066	ltpFR	9	n/a	n/a	n/a	n/a	n/a	n/a	n/a	21	7	9	5	n/a	n/a	n/a	n/a	n/a
1946075	PROB	n/a	LTP066	ltpFR	9	n/a	n/a	n/a	n/a	n/a	n/a	n/a	12	5	1	6	n/a	n/a	n/a	n/a	n/a
1947150	PROB	n/a	LTP066	ltpFR	9	n/a	n/a	n/a	n/a	n/a	n/a	n/a	15	5	3	2	n/a	n/a	n/a	n/a	n/a
1948317	PROB	n/a	LTP066	ltpFR	9	n/a	n/a	n/a	n/a	n/a	n/a	n/a	15	5	1	9	n/a	n/a	n/a	n/a	n/a
1949958	PROB	n/a	LTP066	ltpFR	9	n/a	n/a	n/a	n/a	n/a	n/a	n/a	3	8	3	2	n/a	n/a	n/a	n/a	n/a
1951333	PROB	n/a	LTP066	ltpFR	9	n/a	n/a	n/a	n/a	n/a	n/a	n/a	18	6	6	8	n/a	n/a	n/a	n/a	n/a
1953391	PROB	n/a	LTP066	ltpFR	9	n/a	n/a	n/a	n/a	n/a	n/a	n/a	11	6	2	3	n/a	n/a	n/a	n/a	n/a
1954741	PROB	n/a	LTP066	ltpFR	9	n/a	n/a	n/a	n/a	n/a	n/a	n/a	22	7	6	9	n/a	n/a	n/a	n/a	n/a
1956758	PROB	n/a	LTP066	ltpFR	9	n/a	n/a	n/a	n/a	n/a	n/a	n/a	15	5	4	6	n/a	n/a	n/a	n/a	n/a
1958985	STOP	n/a	LTP066	ltpFR	9	n/a	n/a	n/a	n/a	n/a	n/a	n/a	n/a	n/a	n/a	n/a	n/a	n/a	n/a	n/a	n/a
1960024	WORD	wordpools/wasnorm_wordpool.txt	LTP066	ltpFR	9	9	1	SICKLE	1302	n/a	n/a	0	n/a	0	0	0	0.57763671875	0.412841796875	1	upper	amplitud.ttf
1963033	START	n/a	LTP066	ltpFR	9	n/a	n/a	n/a	n/a	n/a	n/a	n/a	n/a	n/a	n/a	n/a	n/a	n/a	n/a	n/a	n/a
1964082	PROB	n/a	LTP066	ltpFR	9	n/a	n/a	n/a	n/a	n/a	n/a	n/a	12	2	5	5	n/a	n/a	n/a	n/a	n/a
1965316	PROB	n/a	LTP066	ltpFR	9	n/a	n/a	n/a	n/a	n/a	n/a	n/a	14	7	3	4	n/a	n/a	n/a	n/a	n/a
1967265	PROB	n/a	LTP066	ltpFR	9	n/a	n/a	n/a	n/a	n/a	n/a	n/a	15	7	4	4	n/a	n/a	n/a	n/a	n/a
1968424	PROB	n/a	LTP066	ltpFR	9	n/a	n/a	n/a	n/a	n/a	n/a	n/a	13	1	9	3	n/a	n/a	n/a	n/a	n/a
1969574	PROB	n/a	LTP066	ltpFR	9	n/a	n/a	n/a	n/a	n/a	n/a	n/a	9	3	2	4	n/a	n/a	n/a	n/a	n/a
1970657	PROB	n/a	LTP066	ltpFR	9	n/a	n/a	n/a	n/a	n/a	n/a	n/a	15	5	1	9	n/a	n/a	n/a	n/a	n/a
1971865	PROB	n/a	LTP066	ltpFR	9	n/a	n/a	n/a	n/a	n/a	n/a	n/a	23	6	9	8	n/a	n/a	n/a	n/a	n/a
1973573	PROB	n/a	LTP066	ltpFR	9	n/a	n/a	n/a	n/a	n/a	n/a	n/a	116	2	6	8	n/a	n/a	n/a	n/a	n/a
1975331	PROB	n/a	LTP066	ltpFR	9	n/a	n/a	n/a	n/a	n/a	n/a	n/a	6	2	2	2	n/a	n/a	n/a	n/a	n/a
1976398	PROB	n/a	LTP066	ltpFR	9	n/a	n/a	n/a	n/a	n/a	n/a	n/a	10	1	1	8	n/a	n/a	n/a	n/a	n/a
1977440	PROB	n/a	LTP066	ltpFR	9	n/a	n/a	n/a	n/a	n/a	n/a	n/a	27	9	9	9	n/a	n/a	n/a	n/a	n/a
1978697	STOP	n/a	LTP066	ltpFR	9	n/a	n/a	n/a	n/a	n/a	n/a	n/a	n/a	n/a	n/a	n/a	n/a	n/a	n/a	n/a	n/a
1979881	WORD	wordpools/wasnorm_wordpool.txt	LTP066	ltpFR	9	9	1	BASKETBALL	96	n/a	n/a	0	n/a	0	0	0	0.57763671875	0.412841796875	1	upper	amplitud.ttf
1982890	START	n/a	LTP066	ltpFR	9	n/a	n/a	n/a	n/a	n/a	n/a	n/a	n/a	n/a	n/a	n/a	n/a	n/a	n/a	n/a	n/a
1983922	PROB	n/a	LTP066	ltpFR	9	n/a	n/a	n/a	n/a	n/a	n/a	n/a	14	2	6	6	n/a	n/a	n/a	n/a	n/a
1985197	PROB	n/a	LTP066	ltpFR	9	n/a	n/a	n/a	n/a	n/a	n/a	n/a	18	9	1	8	n/a	n/a	n/a	n/a	n/a
1986372	PROB	n/a	LTP066	ltpFR	9	n/a	n/a	n/a	n/a	n/a	n/a	n/a	14	2	8	4	n/a	n/a	n/a	n/a	n/a
1987731	PROB	n/a	LTP066	ltpFR	9	n/a	n/a	n/a	n/a	n/a	n/a	n/a	21	6	6	9	n/a	n/a	n/a	n/a	n/a
1989547	PROB	n/a	LTP066	ltpFR	9	n/a	n/a	n/a	n/a	n/a	n/a	n/a	9	4	4	1	n/a	n/a	n/a	n/a	n/a
1990614	PROB	n/a	LTP066	ltpFR	9	n/a	n/a	n/a	n/a	n/a	n/a	n/a	12	1	3	8	n/a	n/a	n/a	n/a	n/a
1991980	PROB	n/a	LTP066	ltpFR	9	n/a	n/a	n/a	n/a	n/a	n/a	n/a	20	9	8	3	n/a	n/a	n/a	n/a	n/a
1993638	PROB	n/a	LTP066	ltpFR	9	n/a	n/a	n/a	n/a	n/a	n/a	n/a	13	6	1	6	n/a	n/a	n/a	n/a	n/a
1994697	PROB	n/a	LTP066	ltpFR	9	n/a	n/a	n/a	n/a	n/a	n/a	n/a	20	8	4	8	n/a	n/a	n/a	n/a	n/a
1996163	PROB	n/a	LTP066	ltpFR	9	n/a	n/a	n/a	n/a	n/a	n/a	n/a	15	5	6	4	n/a	n/a	n/a	n/a	n/a
1997361	STOP	n/a	LTP066	ltpFR	9	n/a	n/a	n/a	n/a	n/a	n/a	n/a	n/a	n/a	n/a	n/a	n/a	n/a	n/a	n/a	n/a
2000021	WORD	wordpools/wasnorm_wordpool.txt	LTP066	ltpFR	9	9	1	BASEBALL	93	n/a	n/a	2	n/a	0	0	0	0.57763671875	0.412841796875	1	upper	amplitud.ttf
2000821	KEY_MSG	n/a	LTP066	ltpFR	9	9	n/a	n/a	n/a	n/a	n/a	n/a	n/a	0	0	0	n/a	n/a	n/a	n/a	n/a
2003022	START	n/a	LTP066	ltpFR	9	n/a	n/a	n/a	n/a	n/a	n/a	n/a	n/a	n/a	n/a	n/a	n/a	n/a	n/a	n/a	n/a
2004154	PROB	n/a	LTP066	ltpFR	9	n/a	n/a	n/a	n/a	n/a	n/a	n/a	198	9	1	9	n/a	n/a	n/a	n/a	n/a
2005479	PROB	n/a	LTP066	ltpFR	9	n/a	n/a	n/a	n/a	n/a	n/a	n/a	12	3	1	8	n/a	n/a	n/a	n/a	n/a
2006938	PROB	n/a	LTP066	ltpFR	9	n/a	n/a	n/a	n/a	n/a	n/a	n/a	23	8	9	6	n/a	n/a	n/a	n/a	n/a
2009179	PROB	n/a	LTP066	ltpFR	9	n/a	n/a	n/a	n/a	n/a	n/a	n/a	19	7	9	3	n/a	n/a	n/a	n/a	n/a
2010929	PROB	n/a	LTP066	ltpFR	9	n/a	n/a	n/a	n/a	n/a	n/a	n/a	13	3	4	6	n/a	n/a	n/a	n/a	n/a
2012104	PROB	n/a	LTP066	ltpFR	9	n/a	n/a	n/a	n/a	n/a	n/a	n/a	13	6	1	3	n/a	n/a	n/a	n/a	n/a
2013462	PROB	n/a	LTP066	ltpFR	9	n/a	n/a	n/a	n/a	n/a	n/a	n/a	9	2	5	2	n/a	n/a	n/a	n/a	n/a
2015420	PROB	n/a	LTP066	ltpFR	9	n/a	n/a	n/a	n/a	n/a	n/a	n/a	16	9	3	4	n/a	n/a	n/a	n/a	n/a
2016862	PROB	n/a	LTP066	ltpFR	9	n/a	n/a	n/a	n/a	n/a	n/a	n/a	14	1	5	8	n/a	n/a	n/a	n/a	n/a
2018073	STOP	n/a	LTP066	ltpFR	9	n/a	n/a	n/a	n/a	n/a	n/a	n/a	n/a	n/a	n/a	n/a	n/a	n/a	n/a	n/a	n/a
2020037	WORD	wordpools/wasnorm_wordpool.txt	LTP066	ltpFR	9	9	1	HIGHWAY	707	n/a	n/a	0	n/a	0	0	0	0.57763671875	0.412841796875	1	upper	amplitud.ttf
2023045	START	n/a	LTP066	ltpFR	9	n/a	n/a	n/a	n/a	n/a	n/a	n/a	n/a	n/a	n/a	n/a	n/a	n/a	n/a	n/a	n/a
2024178	PROB	n/a	LTP066	ltpFR	9	n/a	n/a	n/a	n/a	n/a	n/a	n/a	16	6	8	2	n/a	n/a	n/a	n/a	n/a
2026036	PROB	n/a	LTP066	ltpFR	9	n/a	n/a	n/a	n/a	n/a	n/a	n/a	9	1	2	6	n/a	n/a	n/a	n/a	n/a
2027228	PROB	n/a	LTP066	ltpFR	9	n/a	n/a	n/a	n/a	n/a	n/a	n/a	11	8	1	2	n/a	n/a	n/a	n/a	n/a
2028886	PROB	n/a	LTP066	ltpFR	9	n/a	n/a	n/a	n/a	n/a	n/a	n/a	5	1	1	3	n/a	n/a	n/a	n/a	n/a
2029994	PROB	n/a	LTP066	ltpFR	9	n/a	n/a	n/a	n/a	n/a	n/a	n/a	8	4	2	2	n/a	n/a	n/a	n/a	n/a
2031877	PROB	n/a	LTP066	ltpFR	9	n/a	n/a	n/a	n/a	n/a	n/a	n/a	13	2	2	9	n/a	n/a	n/a	n/a	n/a
2033419	PROB	n/a	LTP066	ltpFR	9	n/a	n/a	n/a	n/a	n/a	n/a	n/a	18	8	1	9	n/a	n/a	n/a	n/a	n/a
2034652	PROB	n/a	LTP066	ltpFR	9	n/a	n/a	n/a	n/a	n/a	n/a	n/a	16	9	2	7	n/a	n/a	n/a	n/a	n/a
2036527	PROB	n/a	LTP066	ltpFR	9	n/a	n/a	n/a	n/a	n/a	n/a	n/a	14	5	8	1	n/a	n/a	n/a	n/a	n/a
2038057	STOP	n/a	LTP066	ltpFR	9	n/a	n/a	n/a	n/a	n/a	n/a	n/a	n/a	n/a	n/a	n/a	n/a	n/a	n/a	n/a	n/a
2040193	WORD	wordpools/wasnorm_wordpool.txt	LTP066	ltpFR	9	9	1	REBEL	1172	n/a	n/a	1	n/a	0	0	0	0.57763671875	0.412841796875	1	upper	amplitud.ttf
2043194	START	n/a	LTP066	ltpFR	9	n/a	n/a	n/a	n/a	n/a	n/a	n/a	n/a	n/a	n/a	n/a	n/a	n/a	n/a	n/a	n/a
2044301	PROB	n/a	LTP066	ltpFR	9	n/a	n/a	n/a	n/a	n/a	n/a	n/a	9	5	1	3	n/a	n/a	n/a	n/a	n/a
2045401	PROB	n/a	LTP066	ltpFR	9	n/a	n/a	n/a	n/a	n/a	n/a	n/a	18	6	5	7	n/a	n/a	n/a	n/a	n/a
2046743	PROB	n/a	LTP066	ltpFR	9	n/a	n/a	n/a	n/a	n/a	n/a	n/a	9	3	3	3	n/a	n/a	n/a	n/a	n/a
2047876	PROB	n/a	LTP066	ltpFR	9	n/a	n/a	n/a	n/a	n/a	n/a	n/a	21	7	8	6	n/a	n/a	n/a	n/a	n/a
2049834	PROB	n/a	LTP066	ltpFR	9	n/a	n/a	n/a	n/a	n/a	n/a	n/a	18	8	7	3	n/a	n/a	n/a	n/a	n/a
2050868	PROB	n/a	LTP066	ltpFR	9	n/a	n/a	n/a	n/a	n/a	n/a	n/a	11	2	2	7	n/a	n/a	n/a	n/a	n/a
2052276	PROB	n/a	LTP066	ltpFR	9	n/a	n/a	n/a	n/a	n/a	n/a	n/a	11	7	3	1	n/a	n/a	n/a	n/a	n/a
2053292	PROB	n/a	LTP066	ltpFR	9	n/a	n/a	n/a	n/a	n/a	n/a	n/a	14	8	1	5	n/a	n/a	n/a	n/a	n/a
2054359	PROB	n/a	LTP066	ltpFR	9	n/a	n/a	n/a	n/a	n/a	n/a	n/a	12	1	6	5	n/a	n/a	n/a	n/a	n/a
2055451	PROB	n/a	LTP066	ltpFR	9	n/a	n/a	n/a	n/a	n/a	n/a	n/a	16	3	9	4	n/a	n/a	n/a	n/a	n/a
2059194	STOP	n/a	LTP066	ltpFR	9	n/a	n/a	n/a	n/a	n/a	n/a	n/a	n/a	n/a	n/a	n/a	n/a	n/a	n/a	n/a	n/a
2060375	WORD	wordpools/wasnorm_wordpool.txt	LTP066	ltpFR	9	9	1	SKELETON	1314	n/a	n/a	0	n/a	0	0	0	0.57763671875	0.412841796875	1	upper	amplitud.ttf
2063384	START	n/a	LTP066	ltpFR	9	n/a	n/a	n/a	n/a	n/a	n/a	n/a	n/a	n/a	n/a	n/a	n/a	n/a	n/a	n/a	n/a
2064525	PROB	n/a	LTP066	ltpFR	9	n/a	n/a	n/a	n/a	n/a	n/a	n/a	19	5	9	5	n/a	n/a	n/a	n/a	n/a
2065833	PROB	n/a	LTP066	ltpFR	9	n/a	n/a	n/a	n/a	n/a	n/a	n/a	13	1	8	4	n/a	n/a	n/a	n/a	n/a
2067425	PROB	n/a	LTP066	ltpFR	9	n/a	n/a	n/a	n/a	n/a	n/a	n/a	10	1	7	2	n/a	n/a	n/a	n/a	n/a
2069108	PROB	n/a	LTP066	ltpFR	9	n/a	n/a	n/a	n/a	n/a	n/a	n/a	11	1	7	3	n/a	n/a	n/a	n/a	n/a
2070091	PROB	n/a	LTP066	ltpFR	9	n/a	n/a	n/a	n/a	n/a	n/a	n/a	13	4	2	8	n/a	n/a	n/a	n/a	n/a
2071458	PROB	n/a	LTP066	ltpFR	9	n/a	n/a	n/a	n/a	n/a	n/a	n/a	19	9	6	4	n/a	n/a	n/a	n/a	n/a
2072941	PROB	n/a	LTP066	ltpFR	9	n/a	n/a	n/a	n/a	n/a	n/a	n/a	15	1	7	7	n/a	n/a	n/a	n/a	n/a
2074074	PROB	n/a	LTP066	ltpFR	9	n/a	n/a	n/a	n/a	n/a	n/a	n/a	19	6	5	8	n/a	n/a	n/a	n/a	n/a
2076407	PROB	n/a	LTP066	ltpFR	9	n/a	n/a	n/a	n/a	n/a	n/a	n/a	19	1	9	9	n/a	n/a	n/a	n/a	n/a
2077391	PROB	n/a	LTP066	ltpFR	9	n/a	n/a	n/a	n/a	n/a	n/a	n/a	5	9	3	3	n/a	n/a	n/a	n/a	n/a
2079129	STOP	n/a	LTP066	ltpFR	9	n/a	n/a	n/a	n/a	n/a	n/a	n/a	n/a	n/a	n/a	n/a	n/a	n/a	n/a	n/a	n/a
2080390	WORD	wordpools/wasnorm_wordpool.txt	LTP066	ltpFR	9	9	1	FEATHER	557	n/a	n/a	0	n/a	0	0	0	0.57763671875	0.412841796875	1	upper	amplitud.ttf
2083399	START	n/a	LTP066	ltpFR	9	n/a	n/a	n/a	n/a	n/a	n/a	n/a	n/a	n/a	n/a	n/a	n/a	n/a	n/a	n/a	n/a
2084373	PROB	n/a	LTP066	ltpFR	9	n/a	n/a	n/a	n/a	n/a	n/a	n/a	14	7	5	2	n/a	n/a	n/a	n/a	n/a
2086282	PROB	n/a	LTP066	ltpFR	9	n/a	n/a	n/a	n/a	n/a	n/a	n/a	12	2	5	5	n/a	n/a	n/a	n/a	n/a
2087507	PROB	n/a	LTP066	ltpFR	9	n/a	n/a	n/a	n/a	n/a	n/a	n/a	17	8	2	7	n/a	n/a	n/a	n/a	n/a
2089648	PROB	n/a	LTP066	ltpFR	9	n/a	n/a	n/a	n/a	n/a	n/a	n/a	15	2	8	5	n/a	n/a	n/a	n/a	n/a
2090940	PROB	n/a	LTP066	ltpFR	9	n/a	n/a	n/a	n/a	n/a	n/a	n/a	21	8	9	4	n/a	n/a	n/a	n/a	n/a
2092656	PROB	n/a	LTP066	ltpFR	9	n/a	n/a	n/a	n/a	n/a	n/a	n/a	62	9	8	9	n/a	n/a	n/a	n/a	n/a
2095114	PROB	n/a	LTP066	ltpFR	9	n/a	n/a	n/a	n/a	n/a	n/a	n/a	14	3	8	8	n/a	n/a	n/a	n/a	n/a
2099399	STOP	n/a	LTP066	ltpFR	9	n/a	n/a	n/a	n/a	n/a	n/a	n/a	n/a	n/a	n/a	n/a	n/a	n/a	n/a	n/a	n/a
2100547	WORD	wordpools/wasnorm_wordpool.txt	LTP066	ltpFR	9	9	1	TAXI	1438	n/a	n/a	0	n/a	0	0	0	0.57763671875	0.412841796875	1	upper	amplitud.ttf
2103556	START	n/a	LTP066	ltpFR	9	n/a	n/a	n/a	n/a	n/a	n/a	n/a	n/a	n/a	n/a	n/a	n/a	n/a	n/a	n/a	n/a
2104589	PROB	n/a	LTP066	ltpFR	9	n/a	n/a	n/a	n/a	n/a	n/a	n/a	17	7	1	9	n/a	n/a	n/a	n/a	n/a
2106155	PROB	n/a	LTP066	ltpFR	9	n/a	n/a	n/a	n/a	n/a	n/a	n/a	19	3	7	9	n/a	n/a	n/a	n/a	n/a
2107663	PROB	n/a	LTP066	ltpFR	9	n/a	n/a	n/a	n/a	n/a	n/a	n/a	15	8	6	1	n/a	n/a	n/a	n/a	n/a
2109147	PROB	n/a	LTP066	ltpFR	9	n/a	n/a	n/a	n/a	n/a	n/a	n/a	16	8	4	4	n/a	n/a	n/a	n/a	n/a
2110446	PROB	n/a	LTP066	ltpFR	9	n/a	n/a	n/a	n/a	n/a	n/a	n/a	17	8	8	1	n/a	n/a	n/a	n/a	n/a
2111813	PROB	n/a	LTP066	ltpFR	9	n/a	n/a	n/a	n/a	n/a	n/a	n/a	21	9	6	6	n/a	n/a	n/a	n/a	n/a
2113180	PROB	n/a	LTP066	ltpFR	9	n/a	n/a	n/a	n/a	n/a	n/a	n/a	16	4	7	5	n/a	n/a	n/a	n/a	n/a
2114896	PROB	n/a	LTP066	ltpFR	9	n/a	n/a	n/a	n/a	n/a	n/a	n/a	4	2	1	1	n/a	n/a	n/a	n/a	n/a
2116104	PROB	n/a	LTP066	ltpFR	9	n/a	n/a	n/a	n/a	n/a	n/a	n/a	15	8	3	4	n/a	n/a	n/a	n/a	n/a
2119556	STOP	n/a	LTP066	ltpFR	9	n/a	n/a	n/a	n/a	n/a	n/a	n/a	n/a	n/a	n/a	n/a	n/a	n/a	n/a	n/a	n/a
2120587	WORD	wordpools/wasnorm_wordpool.txt	LTP066	ltpFR	9	9	1	MICROPHONE	890	n/a	n/a	0	n/a	0	0	0	0.57763671875	0.412841796875	1	upper	amplitud.ttf
2123596	START	n/a	LTP066	ltpFR	9	n/a	n/a	n/a	n/a	n/a	n/a	n/a	n/a	n/a	n/a	n/a	n/a	n/a	n/a	n/a	n/a
2124579	PROB	n/a	LTP066	ltpFR	9	n/a	n/a	n/a	n/a	n/a	n/a	n/a	15	8	1	6	n/a	n/a	n/a	n/a	n/a
2125895	PROB	n/a	LTP066	ltpFR	9	n/a	n/a	n/a	n/a	n/a	n/a	n/a	17	7	3	7	n/a	n/a	n/a	n/a	n/a
2127245	PROB	n/a	LTP066	ltpFR	9	n/a	n/a	n/a	n/a	n/a	n/a	n/a	24	6	9	9	n/a	n/a	n/a	n/a	n/a
2129320	PROB	n/a	LTP066	ltpFR	9	n/a	n/a	n/a	n/a	n/a	n/a	n/a	16	3	7	6	n/a	n/a	n/a	n/a	n/a
2130428	PROB	n/a	LTP066	ltpFR	9	n/a	n/a	n/a	n/a	n/a	n/a	n/a	11	2	4	5	n/a	n/a	n/a	n/a	n/a
2132212	PROB	n/a	LTP066	ltpFR	9	n/a	n/a	n/a	n/a	n/a	n/a	n/a	15	3	9	3	n/a	n/a	n/a	n/a	n/a
2133511	PROB	n/a	LTP066	ltpFR	9	n/a	n/a	n/a	n/a	n/a	n/a	n/a	17	6	5	6	n/a	n/a	n/a	n/a	n/a
2134771	PROB	n/a	LTP066	ltpFR	9	n/a	n/a	n/a	n/a	n/a	n/a	n/a	25	9	7	9	n/a	n/a	n/a	n/a	n/a
2138665	STOP	n/a	LTP066	ltpFR	9	n/a	n/a	n/a	n/a	n/a	n/a	n/a	n/a	n/a	n/a	n/a	n/a	n/a	n/a	n/a	n/a
2140711	WORD	wordpools/wasnorm_wordpool.txt	LTP066	ltpFR	9	9	1	SPINE	1353	n/a	n/a	0	n/a	0	0	0	0.57763671875	0.412841796875	1	upper	amplitud.ttf
2143720	START	n/a	LTP066	ltpFR	9	n/a	n/a	n/a	n/a	n/a	n/a	n/a	n/a	n/a	n/a	n/a	n/a	n/a	n/a	n/a	n/a
2144677	PROB	n/a	LTP066	ltpFR	9	n/a	n/a	n/a	n/a	n/a	n/a	n/a	10	5	2	3	n/a	n/a	n/a	n/a	n/a
2145994	PROB	n/a	LTP066	ltpFR	9	n/a	n/a	n/a	n/a	n/a	n/a	n/a	18	8	5	5	n/a	n/a	n/a	n/a	n/a
2147402	PROB	n/a	LTP066	ltpFR	9	n/a	n/a	n/a	n/a	n/a	n/a	n/a	12	5	3	4	n/a	n/a	n/a	n/a	n/a
2148810	PROB	n/a	LTP066	ltpFR	9	n/a	n/a	n/a	n/a	n/a	n/a	n/a	14	2	3	9	n/a	n/a	n/a	n/a	n/a
2149927	PROB	n/a	LTP066	ltpFR	9	n/a	n/a	n/a	n/a	n/a	n/a	n/a	17	7	4	6	n/a	n/a	n/a	n/a	n/a
2151169	PROB	n/a	LTP066	ltpFR	9	n/a	n/a	n/a	n/a	n/a	n/a	n/a	15	5	1	9	n/a	n/a	n/a	n/a	n/a
2152260	PROB	n/a	LTP066	ltpFR	9	n/a	n/a	n/a	n/a	n/a	n/a	n/a	18	6	8	4	n/a	n/a	n/a	n/a	n/a
2153468	PROB	n/a	LTP066	ltpFR	9	n/a	n/a	n/a	n/a	n/a	n/a	n/a	141	1	6	7	n/a	n/a	n/a	n/a	n/a
2154685	PROB	n/a	LTP066	ltpFR	9	n/a	n/a	n/a	n/a	n/a	n/a	n/a	20	9	7	4	n/a	n/a	n/a	n/a	n/a
2156410	PROB	n/a	LTP066	ltpFR	9	n/a	n/a	n/a	n/a	n/a	n/a	n/a	14	6	5	3	n/a	n/a	n/a	n/a	n/a
2158425	STOP	n/a	LTP066	ltpFR	9	n/a	n/a	n/a	n/a	n/a	n/a	n/a	n/a	n/a	n/a	n/a	n/a	n/a	n/a	n/a	n/a
2160926	WORD	wordpools/wasnorm_wordpool.txt	LTP066	ltpFR	9	9	1	PASSENGER	1020	n/a	n/a	1	n/a	0	0	0	0.57763671875	0.412841796875	1	upper	amplitud.ttf
2163934	START	n/a	LTP066	ltpFR	9	n/a	n/a	n/a	n/a	n/a	n/a	n/a	n/a	n/a	n/a	n/a	n/a	n/a	n/a	n/a	n/a
2164859	PROB	n/a	LTP066	ltpFR	9	n/a	n/a	n/a	n/a	n/a	n/a	n/a	21	6	8	7	n/a	n/a	n/a	n/a	n/a
2166717	PROB	n/a	LTP066	ltpFR	9	n/a	n/a	n/a	n/a	n/a	n/a	n/a	21	7	6	8	n/a	n/a	n/a	n/a	n/a
2169334	PROB	n/a	LTP066	ltpFR	9	n/a	n/a	n/a	n/a	n/a	n/a	n/a	12	5	3	4	n/a	n/a	n/a	n/a	n/a
2170592	PROB	n/a	LTP066	ltpFR	9	n/a	n/a	n/a	n/a	n/a	n/a	n/a	13	1	5	7	n/a	n/a	n/a	n/a	n/a
2171834	PROB	n/a	LTP066	ltpFR	9	n/a	n/a	n/a	n/a	n/a	n/a	n/a	8	2	1	5	n/a	n/a	n/a	n/a	n/a
2172825	PROB	n/a	LTP066	ltpFR	9	n/a	n/a	n/a	n/a	n/a	n/a	n/a	6	1	4	1	n/a	n/a	n/a	n/a	n/a
2173959	PROB	n/a	LTP066	ltpFR	9	n/a	n/a	n/a	n/a	n/a	n/a	n/a	20	8	8	4	n/a	n/a	n/a	n/a	n/a
2176350	PROB	n/a	LTP066	ltpFR	9	n/a	n/a	n/a	n/a	n/a	n/a	n/a	17	3	7	7	n/a	n/a	n/a	n/a	n/a
2178058	PROB	n/a	LTP066	ltpFR	9	n/a	n/a	n/a	n/a	n/a	n/a	n/a	11	5	5	1	n/a	n/a	n/a	n/a	n/a
2179345	STOP	n/a	LTP066	ltpFR	9	n/a	n/a	n/a	n/a	n/a	n/a	n/a	n/a	n/a	n/a	n/a	n/a	n/a	n/a	n/a	n/a
2181667	REC_START	n/a	LTP066	ltpFR	9	9	n/a	n/a	n/a	n/a	n/a	n/a	n/a	0	0	0	n/a	n/a	n/a	n/a	n/a
2183054	REC_WORD	wordpools/wasnorm_wordpool.txt	LTP066	ltpFR	9	9	1	PORCUPINE	1107	n/a	n/a	1	n/a	0	0	0	n/a	n/a	n/a	n/a	n/a
2183927	REC_WORD	wordpools/wasnorm_wordpool.txt	LTP066	ltpFR	9	9	1	POSSUM	1112	n/a	n/a	1	n/a	0	0	0	n/a	n/a	n/a	n/a	n/a
2192193	REC_WORD	wordpools/wasnorm_wordpool.txt	LTP066	ltpFR	9	9	1	BASKETBALL	96	n/a	n/a	0	n/a	0	0	0	n/a	n/a	n/a	n/a	n/a
2195196	REC_WORD	wordpools/wasnorm_wordpool.txt	LTP066	ltpFR	9	9	1	REBEL	1172	n/a	n/a	1	n/a	0	0	0	n/a	n/a	n/a	n/a	n/a
2197645	REC_WORD	wordpools/wasnorm_wordpool.txt	LTP066	ltpFR	9	9	1	SKELETON	1314	n/a	n/a	0	n/a	0	0	0	n/a	n/a	n/a	n/a	n/a
2198933	REC_WORD	wordpools/wasnorm_wordpool.txt	LTP066	ltpFR	9	9	1	BACKBONE	66	n/a	n/a	1	n/a	0	0	0	n/a	n/a	n/a	n/a	n/a
2200973	REC_WORD	wordpools/wasnorm_wordpool.txt	LTP066	ltpFR	9	9	n/a	CAB	209	n/a	n/a	n/a	n/a	0	0	0	n/a	n/a	n/a	n/a	n/a
2202435	REC_WORD	wordpools/wasnorm_wordpool.txt	LTP066	ltpFR	9	9	1	PASSENGER	1020	n/a	n/a	1	n/a	0	0	0	n/a	n/a	n/a	n/a	n/a
2203188	REC_WORD	wordpools/wasnorm_wordpool.txt	LTP066	ltpFR	9	9	1	FEATHER	557	n/a	n/a	0	n/a	0	0	0	n/a	n/a	n/a	n/a	n/a
2260786	WORD	wordpools/wasnorm_wordpool.txt	LTP066	ltpFR	9	10	0	GAZELLE	628	n/a	n/a	1	n/a	0	0	0	0.422607421875	0.5869140625	0	lower	zerothre.ttf
2264602	WORD	wordpools/wasnorm_wordpool.txt	LTP066	ltpFR	9	10	0	PAVEMENT	1028	n/a	n/a	1	n/a	0	0	0	0.422607421875	0.5869140625	0	lower	zerothre.ttf
2268810	WORD	wordpools/wasnorm_wordpool.txt	LTP066	ltpFR	9	10	0	CORN	381	n/a	n/a	0	n/a	0	0	0	0.422607421875	0.5869140625	0	lower	zerothre.ttf
2272918	WORD	wordpools/wasnorm_wordpool.txt	LTP066	ltpFR	9	10	0	TOAST	1471	n/a	n/a	0	n/a	0	0	0	0.422607421875	0.5869140625	0	lower	zerothre.ttf
2276884	WORD	wordpools/wasnorm_wordpool.txt	LTP066	ltpFR	9	10	0	DRAWER	493	n/a	n/a	1	n/a	0	0	0	0.422607421875	0.5869140625	0	lower	zerothre.ttf
2280901	WORD	wordpools/wasnorm_wordpool.txt	LTP066	ltpFR	9	10	0	CLOSET	326	n/a	n/a	1	n/a	0	0	0	0.422607421875	0.5869140625	0	lower	zerothre.ttf
2284842	WORD	wordpools/wasnorm_wordpool.txt	LTP066	ltpFR	9	10	0	CAFE	216	n/a	n/a	1	n/a	0	0	0	0.422607421875	0.5869140625	0	lower	zerothre.ttf
2288850	WORD	wordpools/wasnorm_wordpool.txt	LTP066	ltpFR	9	10	0	PAW	1029	n/a	n/a	0	n/a	0	0	0	0.422607421875	0.5869140625	0	lower	zerothre.ttf
2292916	WORD	wordpools/wasnorm_wordpool.txt	LTP066	ltpFR	9	10	0	LUNCH	849	n/a	n/a	1	n/a	0	0	0	0.422607421875	0.5869140625	0	lower	zerothre.ttf
2296866	WORD	wordpools/wasnorm_wordpool.txt	LTP066	ltpFR	9	10	0	PATROL	1027	n/a	n/a	1	n/a	0	0	0	0.422607421875	0.5869140625	0	lower	zerothre.ttf
2300849	WORD	wordpools/wasnorm_wordpool.txt	LTP066	ltpFR	9	10	0	SHIRT	1287	n/a	n/a	0	n/a	0	0	0	0.422607421875	0.5869140625	0	lower	zerothre.ttf
2304666	WORD	wordpools/wasnorm_wordpool.txt	LTP066	ltpFR	9	10	0	KNIGHT	786	n/a	n/a	1	n/a	0	0	0	0.422607421875	0.5869140625	0	lower	zerothre.ttf
2308674	WORD	wordpools/wasnorm_wordpool.txt	LTP066	ltpFR	9	10	0	SUPERMARKET	1409	n/a	n/a	1	n/a	0	0	0	0.422607421875	0.5869140625	0	lower	zerothre.ttf
2312857	WORD	wordpools/wasnorm_wordpool.txt	LTP066	ltpFR	9	10	0	BASEMENT	94	n/a	n/a	1	n/a	0	0	0	0.422607421875	0.5869140625	0	lower	zerothre.ttf
2316948	WORD	wordpools/wasnorm_wordpool.txt	LTP066	ltpFR	9	10	0	CELLAR	267	n/a	n/a	n/a	n/a	0	0	0	0.422607421875	0.5869140625	0	lower	zerothre.ttf
2319973	SLOW_MSG	n/a	LTP066	ltpFR	9	10	n/a	n/a	n/a	n/a	n/a	n/a	n/a	0	0	0	n/a	n/a	n/a	n/a	n/a
2322406	WORD	wordpools/wasnorm_wordpool.txt	LTP066	ltpFR	9	10	0	PICNIC	1060	n/a	n/a	1	n/a	0	0	0	0.422607421875	0.5869140625	0	lower	zerothre.ttf
2328106	REC_START	n/a	LTP066	ltpFR	9	10	n/a	n/a	n/a	n/a	n/a	n/a	n/a	0	0	0	n/a	n/a	n/a	n/a	n/a
2329857	REC_WORD	wordpools/wasnorm_wordpool.txt	LTP066	ltpFR	9	10	0	GAZELLE	628	n/a	n/a	1	n/a	0	0	0	n/a	n/a	n/a	n/a	n/a
2331314	REC_WORD	wordpools/wasnorm_wordpool.txt	LTP066	ltpFR	9	10	0	PAVEMENT	1028	n/a	n/a	1	n/a	0	0	0	n/a	n/a	n/a	n/a	n/a
2332351	REC_WORD	wordpools/wasnorm_wordpool.txt	LTP066	ltpFR	9	10	0	CORN	381	n/a	n/a	0	n/a	0	0	0	n/a	n/a	n/a	n/a	n/a
2333538	REC_WORD	wordpools/wasnorm_wordpool.txt	LTP066	ltpFR	9	10	0	TOAST	1471	n/a	n/a	0	n/a	0	0	0	n/a	n/a	n/a	n/a	n/a
2336177	REC_WORD	wordpools/wasnorm_wordpool.txt	LTP066	ltpFR	9	10	0	CLOSET	326	n/a	n/a	1	n/a	0	0	0	n/a	n/a	n/a	n/a	n/a
2336976	REC_WORD	wordpools/wasnorm_wordpool.txt	LTP066	ltpFR	9	10	0	DRAWER	493	n/a	n/a	1	n/a	0	0	0	n/a	n/a	n/a	n/a	n/a
2338821	REC_WORD	wordpools/wasnorm_wordpool.txt	LTP066	ltpFR	9	10	0	CAFE	216	n/a	n/a	1	n/a	0	0	0	n/a	n/a	n/a	n/a	n/a
2342194	REC_WORD	wordpools/wasnorm_wordpool.txt	LTP066	ltpFR	9	10	0	PAW	1029	n/a	n/a	0	n/a	0	0	0	n/a	n/a	n/a	n/a	n/a
2345766	REC_WORD	wordpools/wasnorm_wordpool.txt	LTP066	ltpFR	9	10	0	PATROL	1027	n/a	n/a	1	n/a	0	0	0	n/a	n/a	n/a	n/a	n/a
2348070	REC_WORD	wordpools/wasnorm_wordpool.txt	LTP066	ltpFR	9	10	0	SHIRT	1287	n/a	n/a	0	n/a	0	0	0	n/a	n/a	n/a	n/a	n/a
2355538	REC_WORD	wordpools/wasnorm_wordpool.txt	LTP066	ltpFR	9	10	0	PICNIC	1060	n/a	n/a	1	n/a	0	0	0	n/a	n/a	n/a	n/a	n/a
2356975	REC_WORD	wordpools/wasnorm_wordpool.txt	LTP066	ltpFR	9	10	0	LUNCH	849	n/a	n/a	1	n/a	0	0	0	n/a	n/a	n/a	n/a	n/a
2405367	START	n/a	LTP066	ltpFR	9	n/a	n/a	n/a	n/a	n/a	n/a	n/a	n/a	n/a	n/a	n/a	n/a	n/a	n/a	n/a	n/a
2406875	PROB	n/a	LTP066	ltpFR	9	n/a	n/a	n/a	n/a	n/a	n/a	n/a	9	2	3	4	n/a	n/a	n/a	n/a	n/a
2408450	PROB	n/a	LTP066	ltpFR	9	n/a	n/a	n/a	n/a	n/a	n/a	n/a	13	4	3	6	n/a	n/a	n/a	n/a	n/a
2410008	PROB	n/a	LTP066	ltpFR	9	n/a	n/a	n/a	n/a	n/a	n/a	n/a	18	3	7	8	n/a	n/a	n/a	n/a	n/a
2411274	PROB	n/a	LTP066	ltpFR	9	n/a	n/a	n/a	n/a	n/a	n/a	n/a	19	2	9	8	n/a	n/a	n/a	n/a	n/a
2412569	STOP	n/a	LTP066	ltpFR	9	n/a	n/a	n/a	n/a	n/a	n/a	n/a	n/a	n/a	n/a	n/a	n/a	n/a	n/a	n/a	n/a
2414257	WORD	wordpools/wasnorm_wordpool.txt	LTP066	ltpFR	9	11	1	COFFEE	341	n/a	n/a	0	n/a	0	0	0	0.57763671875	0.412841796875	1	upper	amplitud.ttf
2417258	START	n/a	LTP066	ltpFR	9	n/a	n/a	n/a	n/a	n/a	n/a	n/a	n/a	n/a	n/a	n/a	n/a	n/a	n/a	n/a	n/a
2418340	PROB	n/a	LTP066	ltpFR	9	n/a	n/a	n/a	n/a	n/a	n/a	n/a	17	4	9	4	n/a	n/a	n/a	n/a	n/a
2420157	PROB	n/a	LTP066	ltpFR	9	n/a	n/a	n/a	n/a	n/a	n/a	n/a	8	5	2	1	n/a	n/a	n/a	n/a	n/a
2421865	PROB	n/a	LTP066	ltpFR	9	n/a	n/a	n/a	n/a	n/a	n/a	n/a	9	1	5	3	n/a	n/a	n/a	n/a	n/a
2422857	PROB	n/a	LTP066	ltpFR	9	n/a	n/a	n/a	n/a	n/a	n/a	n/a	11	3	5	3	n/a	n/a	n/a	n/a	n/a
2424193	STOP	n/a	LTP066	ltpFR	9	n/a	n/a	n/a	n/a	n/a	n/a	n/a	n/a	n/a	n/a	n/a	n/a	n/a	n/a	n/a	n/a
2426282	WORD	wordpools/wasnorm_wordpool.txt	LTP066	ltpFR	9	11	1	WINE	1613	n/a	n/a	0	n/a	0	0	0	0.57763671875	0.412841796875	1	upper	amplitud.ttf
2429290	START	n/a	LTP066	ltpFR	9	n/a	n/a	n/a	n/a	n/a	n/a	n/a	n/a	n/a	n/a	n/a	n/a	n/a	n/a	n/a	n/a
2430181	PROB	n/a	LTP066	ltpFR	9	n/a	n/a	n/a	n/a	n/a	n/a	n/a	18	7	7	4	n/a	n/a	n/a	n/a	n/a
2431540	PROB	n/a	LTP066	ltpFR	9	n/a	n/a	n/a	n/a	n/a	n/a	n/a	16	3	7	6	n/a	n/a	n/a	n/a	n/a
2432723	PROB	n/a	LTP066	ltpFR	9	n/a	n/a	n/a	n/a	n/a	n/a	n/a	12	1	9	2	n/a	n/a	n/a	n/a	n/a
2434264	PROB	n/a	LTP066	ltpFR	9	n/a	n/a	n/a	n/a	n/a	n/a	n/a	14	2	4	8	n/a	n/a	n/a	n/a	n/a
2435889	STOP	n/a	LTP066	ltpFR	9	n/a	n/a	n/a	n/a	n/a	n/a	n/a	n/a	n/a	n/a	n/a	n/a	n/a	n/a	n/a	n/a
2438214	WORD	wordpools/wasnorm_wordpool.txt	LTP066	ltpFR	9	11	1	HOOD	714	n/a	n/a	0	n/a	0	0	0	0.57763671875	0.412841796875	1	upper	amplitud.ttf
2441223	START	n/a	LTP066	ltpFR	9	n/a	n/a	n/a	n/a	n/a	n/a	n/a	n/a	n/a	n/a	n/a	n/a	n/a	n/a	n/a	n/a
2442072	PROB	n/a	LTP066	ltpFR	9	n/a	n/a	n/a	n/a	n/a	n/a	n/a	17	4	4	9	n/a	n/a	n/a	n/a	n/a
2443339	PROB	n/a	LTP066	ltpFR	9	n/a	n/a	n/a	n/a	n/a	n/a	n/a	16	5	2	9	n/a	n/a	n/a	n/a	n/a
2444847	PROB	n/a	LTP066	ltpFR	9	n/a	n/a	n/a	n/a	n/a	n/a	n/a	17	1	7	9	n/a	n/a	n/a	n/a	n/a
2445988	PROB	n/a	LTP066	ltpFR	9	n/a	n/a	n/a	n/a	n/a	n/a	n/a	21	6	6	9	n/a	n/a	n/a	n/a	n/a
2447138	PROB	n/a	LTP066	ltpFR	9	n/a	n/a	n/a	n/a	n/a	n/a	n/a	15	7	1	7	n/a	n/a	n/a	n/a	n/a
2448121	STOP	n/a	LTP066	ltpFR	9	n/a	n/a	n/a	n/a	n/a	n/a	n/a	n/a	n/a	n/a	n/a	n/a	n/a	n/a	n/a	n/a
2450213	WORD	wordpools/wasnorm_wordpool.txt	LTP066	ltpFR	9	11	1	BULL	193	n/a	n/a	1	n/a	0	0	0	0.57763671875	0.412841796875	1	upper	amplitud.ttf
2453222	START	n/a	LTP066	ltpFR	9	n/a	n/a	n/a	n/a	n/a	n/a	n/a	n/a	n/a	n/a	n/a	n/a	n/a	n/a	n/a	n/a
2454379	PROB	n/a	LTP066	ltpFR	9	n/a	n/a	n/a	n/a	n/a	n/a	n/a	13	5	3	5	n/a	n/a	n/a	n/a	n/a
2456213	PROB	n/a	LTP066	ltpFR	9	n/a	n/a	n/a	n/a	n/a	n/a	n/a	15	9	3	3	n/a	n/a	n/a	n/a	n/a
2458038	PROB	n/a	LTP066	ltpFR	9	n/a	n/a	n/a	n/a	n/a	n/a	n/a	14	7	6	1	n/a	n/a	n/a	n/a	n/a
2459112	PROB	n/a	LTP066	ltpFR	9	n/a	n/a	n/a	n/a	n/a	n/a	n/a	4	2	1	1	n/a	n/a	n/a	n/a	n/a
2460161	STOP	n/a	LTP066	ltpFR	9	n/a	n/a	n/a	n/a	n/a	n/a	n/a	n/a	n/a	n/a	n/a	n/a	n/a	n/a	n/a	n/a
2462204	WORD	wordpools/wasnorm_wordpool.txt	LTP066	ltpFR	9	11	0	CATTLE	261	n/a	n/a	1	n/a	0	0	0	0.422607421875	0.5869140625	0	lower	zerothre.ttf
2465212	START	n/a	LTP066	ltpFR	9	n/a	n/a	n/a	n/a	n/a	n/a	n/a	n/a	n/a	n/a	n/a	n/a	n/a	n/a	n/a	n/a
2466154	PROB	n/a	LTP066	ltpFR	9	n/a	n/a	n/a	n/a	n/a	n/a	n/a	15	6	7	2	n/a	n/a	n/a	n/a	n/a
2468153	PROB	n/a	LTP066	ltpFR	9	n/a	n/a	n/a	n/a	n/a	n/a	n/a	15	4	3	8	n/a	n/a	n/a	n/a	n/a
2470203	PROB	n/a	LTP066	ltpFR	9	n/a	n/a	n/a	n/a	n/a	n/a	n/a	15	7	3	5	n/a	n/a	n/a	n/a	n/a
2471312	PROB	n/a	LTP066	ltpFR	9	n/a	n/a	n/a	n/a	n/a	n/a	n/a	9	1	5	3	n/a	n/a	n/a	n/a	n/a
2472305	STOP	n/a	LTP066	ltpFR	9	n/a	n/a	n/a	n/a	n/a	n/a	n/a	n/a	n/a	n/a	n/a	n/a	n/a	n/a	n/a	n/a
2474228	WORD	wordpools/wasnorm_wordpool.txt	LTP066	ltpFR	9	11	0	BLOSSOM	138	n/a	n/a	0	n/a	0	0	0	0.422607421875	0.5869140625	0	lower	zerothre.ttf
2477237	START	n/a	LTP066	ltpFR	9	n/a	n/a	n/a	n/a	n/a	n/a	n/a	n/a	n/a	n/a	n/a	n/a	n/a	n/a	n/a	n/a
2478286	PROB	n/a	LTP066	ltpFR	9	n/a	n/a	n/a	n/a	n/a	n/a	n/a	15	7	3	5	n/a	n/a	n/a	n/a	n/a
2480394	PROB	n/a	LTP066	ltpFR	9	n/a	n/a	n/a	n/a	n/a	n/a	n/a	17	7	8	2	n/a	n/a	n/a	n/a	n/a
2481661	PROB	n/a	LTP066	ltpFR	9	n/a	n/a	n/a	n/a	n/a	n/a	n/a	14	6	4	4	n/a	n/a	n/a	n/a	n/a
2485236	STOP	n/a	LTP066	ltpFR	9	n/a	n/a	n/a	n/a	n/a	n/a	n/a	n/a	n/a	n/a	n/a	n/a	n/a	n/a	n/a	n/a
2486144	WORD	wordpools/wasnorm_wordpool.txt	LTP066	ltpFR	9	11	0	TART	1436	n/a	n/a	0	n/a	0	0	0	0.422607421875	0.5869140625	0	lower	zerothre.ttf
2489152	START	n/a	LTP066	ltpFR	9	n/a	n/a	n/a	n/a	n/a	n/a	n/a	n/a	n/a	n/a	n/a	n/a	n/a	n/a	n/a	n/a
2490294	PROB	n/a	LTP066	ltpFR	9	n/a	n/a	n/a	n/a	n/a	n/a	n/a	10	5	4	1	n/a	n/a	n/a	n/a	n/a
2492793	PROB	n/a	LTP066	ltpFR	9	n/a	n/a	n/a	n/a	n/a	n/a	n/a	17	6	9	2	n/a	n/a	n/a	n/a	n/a
2494402	PROB	n/a	LTP066	ltpFR	9	n/a	n/a	n/a	n/a	n/a	n/a	n/a	8	5	2	1	n/a	n/a	n/a	n/a	n/a
2495451	PROB	n/a	LTP066	ltpFR	9	n/a	n/a	n/a	n/a	n/a	n/a	n/a	9	6	2	1	n/a	n/a	n/a	n/a	n/a
2496377	STOP	n/a	LTP066	ltpFR	9	n/a	n/a	n/a	n/a	n/a	n/a	n/a	n/a	n/a	n/a	n/a	n/a	n/a	n/a	n/a	n/a
2498368	WORD	wordpools/wasnorm_wordpool.txt	LTP066	ltpFR	9	11	0	DRIVER	499	n/a	n/a	1	n/a	0	0	0	0.422607421875	0.5869140625	0	lower	zerothre.ttf
2501377	START	n/a	LTP066	ltpFR	9	n/a	n/a	n/a	n/a	n/a	n/a	n/a	n/a	n/a	n/a	n/a	n/a	n/a	n/a	n/a	n/a
2502451	PROB	n/a	LTP066	ltpFR	9	n/a	n/a	n/a	n/a	n/a	n/a	n/a	13	1	6	6	n/a	n/a	n/a	n/a	n/a
2503959	PROB	n/a	LTP066	ltpFR	9	n/a	n/a	n/a	n/a	n/a	n/a	n/a	15	9	3	3	n/a	n/a	n/a	n/a	n/a
2505659	PROB	n/a	LTP066	ltpFR	9	n/a	n/a	n/a	n/a	n/a	n/a	n/a	17	6	4	7	n/a	n/a	n/a	n/a	n/a
2506884	PROB	n/a	LTP066	ltpFR	9	n/a	n/a	n/a	n/a	n/a	n/a	n/a	13	3	9	1	n/a	n/a	n/a	n/a	n/a
2507897	STOP	n/a	LTP066	ltpFR	9	n/a	n/a	n/a	n/a	n/a	n/a	n/a	n/a	n/a	n/a	n/a	n/a	n/a	n/a	n/a	n/a
