onset	duration	trial_type	sample	stim_file	subject	experiment	session	trial	item_name	item_num	list	answer	test_x	test_y	test_z
263.8154296875	n/a	SESS_START	540294	n/a	LTP378	ltpFR2	18	n/a	n/a	n/a	n/a	n/a	0	0	0
278.6240234375	n/a	START	570622	n/a	LTP378	ltpFR2	18	n/a	n/a	n/a	-1	n/a	n/a	n/a	n/a
278.64599609375	n/a	PROB	570667	n/a	LTP378	ltpFR2	18	n/a	n/a	n/a	-1	14	2	9	3
282.4228515625	n/a	PROB	578402	n/a	LTP378	ltpFR2	18	n/a	n/a	n/a	-1	23	7	7	9
289.44873046875	n/a	STOP	592791	n/a	LTP378	ltpFR2	18	n/a	n/a	n/a	-1	n/a	n/a	n/a	n/a
321.369140625	n/a	DISTRACTOR	658164	n/a	LTP378	ltpFR2	18	1	n/a	n/a	n/a	n/a	0	0	0
321.369140625	n/a	START	658164	n/a	LTP378	ltpFR2	18	n/a	n/a	n/a	1	n/a	n/a	n/a	n/a
321.384765625	n/a	PROB	658196	n/a	LTP378	ltpFR2	18	n/a	n/a	n/a	1	15	2	7	6
324.61865234375	n/a	PROB	664819	n/a	LTP378	ltpFR2	18	n/a	n/a	n/a	1	18	3	7	8
326.08203125	n/a	PROB	667816	n/a	LTP378	ltpFR2	18	n/a	n/a	n/a	1	16	3	8	5
329.966796875	n/a	PROB	675772	n/a	LTP378	ltpFR2	18	n/a	n/a	n/a	1	14	2	3	9
332.69873046875	n/a	PROB	681367	n/a	LTP378	ltpFR2	18	n/a	n/a	n/a	1	19	9	3	7
334.6953125	n/a	PROB	685456	n/a	LTP378	ltpFR2	18	n/a	n/a	n/a	1	16	9	2	5
338.7392578125	n/a	PROB	693738	n/a	LTP378	ltpFR2	18	n/a	n/a	n/a	1	18	6	8	4
341.24658203125	n/a	PROB	698873	n/a	LTP378	ltpFR2	18	n/a	n/a	n/a	1	17	8	4	5
345.361328125	n/a	STOP	707300	n/a	LTP378	ltpFR2	18	n/a	n/a	n/a	1	n/a	n/a	n/a	n/a
346.318359375	n/a	WORD	709260	wordpools/wasnorm_wordpool_576.txt	LTP378	ltpFR2	18	1	JUNGLE	764	n/a	n/a	0	0	0
348.97509765625	n/a	WORD	714701	wordpools/wasnorm_wordpool_576.txt	LTP378	ltpFR2	18	1	CARRIAGE	248	n/a	n/a	0	0	0
351.57421875	n/a	WORD	720024	wordpools/wasnorm_wordpool_576.txt	LTP378	ltpFR2	18	1	COD	340	n/a	n/a	0	0	0
354.0390625	n/a	WORD	725072	wordpools/wasnorm_wordpool_576.txt	LTP378	ltpFR2	18	1	SCALLOP	1242	n/a	n/a	0	0	0
356.5537109375	n/a	WORD	730222	wordpools/wasnorm_wordpool_576.txt	LTP378	ltpFR2	18	1	SHERIFF	1284	n/a	n/a	0	0	0
359.1787109375	n/a	WORD	735598	wordpools/wasnorm_wordpool_576.txt	LTP378	ltpFR2	18	1	CABIN	211	n/a	n/a	0	0	0
361.86767578125	n/a	WORD	741105	wordpools/wasnorm_wordpool_576.txt	LTP378	ltpFR2	18	1	FLOWER	584	n/a	n/a	0	0	0
364.31689453125	n/a	WORD	746121	wordpools/wasnorm_wordpool_576.txt	LTP378	ltpFR2	18	1	LEOPARD	812	n/a	n/a	0	0	0
367.048828125	n/a	WORD	751716	wordpools/wasnorm_wordpool_576.txt	LTP378	ltpFR2	18	1	SHELTER	1282	n/a	n/a	0	0	0
369.6884765625	n/a	WORD	757122	wordpools/wasnorm_wordpool_576.txt	LTP378	ltpFR2	18	1	COTTAGE	384	n/a	n/a	0	0	0
372.3876953125	n/a	WORD	762650	wordpools/wasnorm_wordpool_576.txt	LTP378	ltpFR2	18	1	TOMBSTONE	1478	n/a	n/a	0	0	0
374.978515625	n/a	WORD	767956	wordpools/wasnorm_wordpool_576.txt	LTP378	ltpFR2	18	1	CONVICT	371	n/a	n/a	0	0	0
377.55126953125	n/a	WORD	773225	wordpools/wasnorm_wordpool_576.txt	LTP378	ltpFR2	18	1	KNAPSACK	783	n/a	n/a	0	0	0
380.21728515625	n/a	WORD	778685	wordpools/wasnorm_wordpool_576.txt	LTP378	ltpFR2	18	1	POISON	1096	n/a	n/a	0	0	0
382.96630859375	n/a	WORD	784315	wordpools/wasnorm_wordpool_576.txt	LTP378	ltpFR2	18	1	CLAM	315	n/a	n/a	0	0	0
385.4140625	n/a	WORD	789328	wordpools/wasnorm_wordpool_576.txt	LTP378	ltpFR2	18	1	CUPBOARD	425	n/a	n/a	0	0	0
388.212890625	n/a	WORD	795060	wordpools/wasnorm_wordpool_576.txt	LTP378	ltpFR2	18	1	SUNRISE	1407	n/a	n/a	0	0	0
390.85400390625	n/a	WORD	800469	wordpools/wasnorm_wordpool_576.txt	LTP378	ltpFR2	18	1	BRICK	172	n/a	n/a	0	0	0
393.59375	n/a	WORD	806080	wordpools/wasnorm_wordpool_576.txt	LTP378	ltpFR2	18	1	PACKAGE	997	n/a	n/a	0	0	0
396.2099609375	n/a	WORD	811438	wordpools/wasnorm_wordpool_576.txt	LTP378	ltpFR2	18	1	CANDY	230	n/a	n/a	0	0	0
398.78271484375	n/a	WORD	816707	wordpools/wasnorm_wordpool_576.txt	LTP378	ltpFR2	18	1	BARREL	91	n/a	n/a	0	0	0
401.3486328125	n/a	WORD	821962	wordpools/wasnorm_wordpool_576.txt	LTP378	ltpFR2	18	1	BUREAU	199	n/a	n/a	0	0	0
403.7626953125	n/a	WORD	826906	wordpools/wasnorm_wordpool_576.txt	LTP378	ltpFR2	18	1	SCULPTURE	1258	n/a	n/a	0	0	0
406.26171875	n/a	WORD	832024	wordpools/wasnorm_wordpool_576.txt	LTP378	ltpFR2	18	1	PORTRAIT	1111	n/a	n/a	0	0	0
407.86572265625	n/a	START	835309	n/a	LTP378	ltpFR2	18	n/a	n/a	n/a	2	n/a	n/a	n/a	n/a
408.80126953125	n/a	DISTRACTOR	837225	n/a	LTP378	ltpFR2	18	1	n/a	n/a	n/a	n/a	0	0	0
408.8095703125	n/a	PROB	837242	n/a	LTP378	ltpFR2	18	n/a	n/a	n/a	2	17	4	7	6
412.05126953125	n/a	PROB	843881	n/a	LTP378	ltpFR2	18	n/a	n/a	n/a	2	12	1	4	7
414.20751953125	n/a	PROB	848297	n/a	LTP378	ltpFR2	18	n/a	n/a	n/a	2	17	6	8	3
416.43017578125	n/a	PROB	852849	n/a	LTP378	ltpFR2	18	n/a	n/a	n/a	2	12	6	5	1
418.37744140625	n/a	PROB	856837	n/a	LTP378	ltpFR2	18	n/a	n/a	n/a	2	11	4	1	6
431.86376953125	n/a	STOP	884457	n/a	LTP378	ltpFR2	18	n/a	n/a	n/a	2	n/a	n/a	n/a	n/a
433.60986328125	n/a	REC_START	888033	n/a	LTP378	ltpFR2	18	1	n/a	n/a	n/a	n/a	0	0	0
435.1787109375	n/a	REC_WORD	891246	wordpools/wasnorm_wordpool_576.txt	LTP378	ltpFR2	18	1	JUNGLE	764	n/a	n/a	0	0	0
436.86474609375	n/a	REC_WORD	894699	wordpools/wasnorm_wordpool_576.txt	LTP378	ltpFR2	18	1	CANDY	230	n/a	n/a	0	0	0
437.60546875	n/a	REC_WORD	896216	wordpools/wasnorm_wordpool_576.txt	LTP378	ltpFR2	18	1	BUREAU	199	n/a	n/a	0	0	0
441.80859375	n/a	REC_WORD_VV	904824	wordpools/wasnorm_wordpool_576.txt	LTP378	ltpFR2	18	1	<>	-1	n/a	n/a	0	0	0
446.9736328125	n/a	REC_WORD	915402	wordpools/wasnorm_wordpool_576.txt	LTP378	ltpFR2	18	1	SHELTER	1282	n/a	n/a	0	0	0
449.53857421875	n/a	REC_WORD	920655	wordpools/wasnorm_wordpool_576.txt	LTP378	ltpFR2	18	1	KNAPSACK	783	n/a	n/a	0	0	0
453.4931640625	n/a	REC_WORD	928754	wordpools/wasnorm_wordpool_576.txt	LTP378	ltpFR2	18	1	BARREL	91	n/a	n/a	0	0	0
456.47314453125	n/a	REC_WORD	934857	wordpools/wasnorm_wordpool_576.txt	LTP378	ltpFR2	18	1	POISON	1096	n/a	n/a	0	0	0
457.42919921875	n/a	REC_WORD	936815	wordpools/wasnorm_wordpool_576.txt	LTP378	ltpFR2	18	1	SCULPTURE	1258	n/a	n/a	0	0	0
459.76416015625	n/a	REC_WORD	941597	wordpools/wasnorm_wordpool_576.txt	LTP378	ltpFR2	18	1	PORTRAIT	1111	n/a	n/a	0	0	0
461.07421875	n/a	REC_WORD	944280	wordpools/wasnorm_wordpool_576.txt	LTP378	ltpFR2	18	1	COD	340	n/a	n/a	0	0	0
462.3330078125	n/a	REC_WORD	946858	wordpools/wasnorm_wordpool_576.txt	LTP378	ltpFR2	18	1	SCALLOP	1242	n/a	n/a	0	0	0
465.1357421875	n/a	REC_WORD	952598	wordpools/wasnorm_wordpool_576.txt	LTP378	ltpFR2	18	1	SHERIFF	1284	n/a	n/a	0	0	0
465.8798828125	n/a	REC_WORD	954122	wordpools/wasnorm_wordpool_576.txt	LTP378	ltpFR2	18	1	CARRIAGE	248	n/a	n/a	0	0	0
565.6611328125	n/a	WORD	1158474	wordpools/wasnorm_wordpool_576.txt	LTP378	ltpFR2	18	2	PLATE	1086	n/a	n/a	0	0	0
568.44384765625	n/a	WORD	1164173	wordpools/wasnorm_wordpool_576.txt	LTP378	ltpFR2	18	2	ARMY	39	n/a	n/a	0	0	0
571.02587890625	n/a	WORD	1169461	wordpools/wasnorm_wordpool_576.txt	LTP378	ltpFR2	18	2	FLEET	578	n/a	n/a	0	0	0
573.72509765625	n/a	WORD	1174989	wordpools/wasnorm_wordpool_576.txt	LTP378	ltpFR2	18	2	SLOPE	1328	n/a	n/a	0	0	0
576.46484375	n/a	WORD	1180600	wordpools/wasnorm_wordpool_576.txt	LTP378	ltpFR2	18	2	PISTON	1076	n/a	n/a	0	0	0
578.921875	n/a	WORD	1185632	wordpools/wasnorm_wordpool_576.txt	LTP378	ltpFR2	18	2	ZEBRA	1635	n/a	n/a	0	0	0
581.69580078125	n/a	WORD	1191313	wordpools/wasnorm_wordpool_576.txt	LTP378	ltpFR2	18	2	TRANSPLANT	1496	n/a	n/a	0	0	0
584.20263671875	n/a	WORD	1196447	wordpools/wasnorm_wordpool_576.txt	LTP378	ltpFR2	18	2	OMELET	976	n/a	n/a	0	0	0
586.96875	n/a	WORD	1202112	wordpools/wasnorm_wordpool_576.txt	LTP378	ltpFR2	18	2	BACKBONE	66	n/a	n/a	0	0	0
589.65869140625	n/a	WORD	1207621	wordpools/wasnorm_wordpool_576.txt	LTP378	ltpFR2	18	2	PARSLEY	1016	n/a	n/a	0	0	0
592.357421875	n/a	WORD	1213148	wordpools/wasnorm_wordpool_576.txt	LTP378	ltpFR2	18	2	CHAPEL	280	n/a	n/a	0	0	0
595.1494140625	n/a	WORD	1218866	wordpools/wasnorm_wordpool_576.txt	LTP378	ltpFR2	18	2	HERO	706	n/a	n/a	0	0	0
597.5712890625	n/a	WORD	1223826	wordpools/wasnorm_wordpool_576.txt	LTP378	ltpFR2	18	2	KETCHUP	771	n/a	n/a	0	0	0
600.203125	n/a	WORD	1229216	wordpools/wasnorm_wordpool_576.txt	LTP378	ltpFR2	18	2	PIZZA	1079	n/a	n/a	0	0	0
602.80224609375	n/a	WORD	1234539	wordpools/wasnorm_wordpool_576.txt	LTP378	ltpFR2	18	2	PICNIC	1060	n/a	n/a	0	0	0
605.26708984375	n/a	WORD	1239587	wordpools/wasnorm_wordpool_576.txt	LTP378	ltpFR2	18	2	MOTEL	919	n/a	n/a	0	0	0
607.83203125	n/a	WORD	1244840	wordpools/wasnorm_wordpool_576.txt	LTP378	ltpFR2	18	2	SPIDER	1351	n/a	n/a	0	0	0
610.53076171875	n/a	WORD	1250367	wordpools/wasnorm_wordpool_576.txt	LTP378	ltpFR2	18	2	COCOON	339	n/a	n/a	0	0	0
613.0126953125	n/a	WORD	1255450	wordpools/wasnorm_wordpool_576.txt	LTP378	ltpFR2	18	2	SPACE	1345	n/a	n/a	0	0	0
615.78662109375	n/a	WORD	1261131	wordpools/wasnorm_wordpool_576.txt	LTP378	ltpFR2	18	2	OINTMENT	974	n/a	n/a	0	0	0
618.4267578125	n/a	WORD	1266538	wordpools/wasnorm_wordpool_576.txt	LTP378	ltpFR2	18	2	MARINE	869	n/a	n/a	0	0	0
621.08544921875	n/a	WORD	1271983	wordpools/wasnorm_wordpool_576.txt	LTP378	ltpFR2	18	2	SLIDE	1326	n/a	n/a	0	0	0
623.607421875	n/a	WORD	1277148	wordpools/wasnorm_wordpool_576.txt	LTP378	ltpFR2	18	2	CRUTCH	417	n/a	n/a	0	0	0
626.20654296875	n/a	WORD	1282471	wordpools/wasnorm_wordpool_576.txt	LTP378	ltpFR2	18	2	STALLION	1369	n/a	n/a	0	0	0
627.810546875	n/a	START	1285756	n/a	LTP378	ltpFR2	18	n/a	n/a	n/a	3	n/a	n/a	n/a	n/a
628.95361328125	n/a	DISTRACTOR	1288097	n/a	LTP378	ltpFR2	18	2	n/a	n/a	n/a	n/a	0	0	0
628.95556640625	n/a	PROB	1288101	n/a	LTP378	ltpFR2	18	n/a	n/a	n/a	3	15	3	3	9
640.06884765625	n/a	PROB	1310861	n/a	LTP378	ltpFR2	18	n/a	n/a	n/a	3	20	9	6	7
642.55810546875	n/a	PROB	1315959	n/a	LTP378	ltpFR2	18	n/a	n/a	n/a	3	17	1	8	8
647.796875	n/a	PROB	1326688	n/a	LTP378	ltpFR2	18	n/a	n/a	n/a	3	16	6	8	2
649.7109375	n/a	PROB	1330608	n/a	LTP378	ltpFR2	18	n/a	n/a	n/a	3	15	5	6	4
651.72265625	n/a	STOP	1334728	n/a	LTP378	ltpFR2	18	n/a	n/a	n/a	3	n/a	n/a	n/a	n/a
653.6796875	n/a	REC_START	1338736	n/a	LTP378	ltpFR2	18	2	n/a	n/a	n/a	n/a	0	0	0
654.74755859375	n/a	REC_WORD	1340923	wordpools/wasnorm_wordpool_576.txt	LTP378	ltpFR2	18	2	CRUTCH	417	n/a	n/a	0	0	0
656.15380859375	n/a	REC_WORD	1343803	wordpools/wasnorm_wordpool_576.txt	LTP378	ltpFR2	18	2	CHAPEL	280	n/a	n/a	0	0	0
656.71875	n/a	REC_WORD	1344960	wordpools/wasnorm_wordpool_576.txt	LTP378	ltpFR2	18	2	HERO	706	n/a	n/a	0	0	0
657.3046875	n/a	REC_WORD	1346160	wordpools/wasnorm_wordpool_576.txt	LTP378	ltpFR2	18	2	PARSLEY	1016	n/a	n/a	0	0	0
657.900390625	n/a	REC_WORD	1347380	wordpools/wasnorm_wordpool_576.txt	LTP378	ltpFR2	18	2	PIZZA	1079	n/a	n/a	0	0	0
663.392578125	n/a	REC_WORD	1358628	wordpools/wasnorm_wordpool_576.txt	LTP378	ltpFR2	18	2	PLATE	1086	n/a	n/a	0	0	0
664.5322265625	n/a	REC_WORD	1360962	wordpools/wasnorm_wordpool_576.txt	LTP378	ltpFR2	18	2	TRANSPLANT	1496	n/a	n/a	0	0	0
744.11328125	n/a	WORD	1523944	wordpools/wasnorm_wordpool_576.txt	LTP378	ltpFR2	18	3	SANDWICH	1232	n/a	n/a	0	0	0
746.6689453125	n/a	WORD	1529178	wordpools/wasnorm_wordpool_576.txt	LTP378	ltpFR2	18	3	SHORTCAKE	1292	n/a	n/a	0	0	0
749.10107421875	n/a	WORD	1534159	wordpools/wasnorm_wordpool_576.txt	LTP378	ltpFR2	18	3	HOSTESS	723	n/a	n/a	0	0	0
751.548828125	n/a	WORD	1539172	wordpools/wasnorm_wordpool_576.txt	LTP378	ltpFR2	18	3	ICING	732	n/a	n/a	0	0	0
754.0390625	n/a	WORD	1544272	wordpools/wasnorm_wordpool_576.txt	LTP378	ltpFR2	18	3	GARLIC	624	n/a	n/a	0	0	0
756.52001953125	n/a	WORD	1549353	wordpools/wasnorm_wordpool_576.txt	LTP378	ltpFR2	18	3	PECAN	1036	n/a	n/a	0	0	0
759.21875	n/a	WORD	1554880	wordpools/wasnorm_wordpool_576.txt	LTP378	ltpFR2	18	3	ATOM	55	n/a	n/a	0	0	0
761.7255859375	n/a	WORD	1560014	wordpools/wasnorm_wordpool_576.txt	LTP378	ltpFR2	18	3	MISTER	901	n/a	n/a	0	0	0
764.37451171875	n/a	WORD	1565439	wordpools/wasnorm_wordpool_576.txt	LTP378	ltpFR2	18	3	WASP	1593	n/a	n/a	0	0	0
766.82275390625	n/a	WORD	1570453	wordpools/wasnorm_wordpool_576.txt	LTP378	ltpFR2	18	3	HONEY	713	n/a	n/a	0	0	0
769.42138671875	n/a	WORD	1575775	wordpools/wasnorm_wordpool_576.txt	LTP378	ltpFR2	18	3	NOMAD	955	n/a	n/a	0	0	0
772.17822265625	n/a	WORD	1581421	wordpools/wasnorm_wordpool_576.txt	LTP378	ltpFR2	18	3	LODGE	839	n/a	n/a	0	0	0
774.8193359375	n/a	WORD	1586830	wordpools/wasnorm_wordpool_576.txt	LTP378	ltpFR2	18	3	PIGMENT	1066	n/a	n/a	0	0	0
777.34228515625	n/a	WORD	1591997	wordpools/wasnorm_wordpool_576.txt	LTP378	ltpFR2	18	3	COUSIN	392	n/a	n/a	0	0	0
779.94921875	n/a	WORD	1597336	wordpools/wasnorm_wordpool_576.txt	LTP378	ltpFR2	18	3	LADDER	793	n/a	n/a	0	0	0
782.4140625	n/a	WORD	1602384	wordpools/wasnorm_wordpool_576.txt	LTP378	ltpFR2	18	3	FILM	565	n/a	n/a	0	0	0
784.9541015625	n/a	WORD	1607586	wordpools/wasnorm_wordpool_576.txt	LTP378	ltpFR2	18	3	MISSILE	900	n/a	n/a	0	0	0
787.38623046875	n/a	WORD	1612567	wordpools/wasnorm_wordpool_576.txt	LTP378	ltpFR2	18	3	TOASTER	1472	n/a	n/a	0	0	0
789.93505859375	n/a	WORD	1617787	wordpools/wasnorm_wordpool_576.txt	LTP378	ltpFR2	18	3	FLIPPER	580	n/a	n/a	0	0	0
792.40771484375	n/a	WORD	1622851	wordpools/wasnorm_wordpool_576.txt	LTP378	ltpFR2	18	3	SERVER	1272	n/a	n/a	0	0	0
795.19873046875	n/a	WORD	1628567	wordpools/wasnorm_wordpool_576.txt	LTP378	ltpFR2	18	3	LUNCH	849	n/a	n/a	0	0	0
797.74658203125	n/a	WORD	1633785	wordpools/wasnorm_wordpool_576.txt	LTP378	ltpFR2	18	3	COBRA	336	n/a	n/a	0	0	0
800.3037109375	n/a	WORD	1639022	wordpools/wasnorm_wordpool_576.txt	LTP378	ltpFR2	18	3	TUNNEL	1519	n/a	n/a	0	0	0
802.74365234375	n/a	WORD	1644019	wordpools/wasnorm_wordpool_576.txt	LTP378	ltpFR2	18	3	BOYFRIEND	162	n/a	n/a	0	0	0
804.3486328125	n/a	START	1647306	n/a	LTP378	ltpFR2	18	n/a	n/a	n/a	4	n/a	n/a	n/a	n/a
805.4296875	n/a	DISTRACTOR	1649520	n/a	LTP378	ltpFR2	18	3	n/a	n/a	n/a	n/a	0	0	0
805.4345703125	n/a	PROB	1649530	n/a	LTP378	ltpFR2	18	n/a	n/a	n/a	4	10	1	2	7
807.6982421875	n/a	PROB	1654166	n/a	LTP378	ltpFR2	18	n/a	n/a	n/a	4	21	6	9	6
813.322265625	n/a	PROB	1665684	n/a	LTP378	ltpFR2	18	n/a	n/a	n/a	4	9	4	4	1
816.33837890625	n/a	PROB	1671861	n/a	LTP378	ltpFR2	18	n/a	n/a	n/a	4	22	7	7	8
828.3466796875	n/a	STOP	1696454	n/a	LTP378	ltpFR2	18	n/a	n/a	n/a	4	n/a	n/a	n/a	n/a
830.17578125	n/a	REC_START	1700200	n/a	LTP378	ltpFR2	18	3	n/a	n/a	n/a	n/a	0	0	0
840.2216796875	n/a	REC_WORD	1720774	wordpools/wasnorm_wordpool_576.txt	LTP378	ltpFR2	18	3	SERVER	1272	n/a	n/a	0	0	0
841.00048828125	n/a	REC_WORD	1722369	wordpools/wasnorm_wordpool_576.txt	LTP378	ltpFR2	18	3	LUNCH	849	n/a	n/a	0	0	0
841.93359375	n/a	REC_WORD	1724280	wordpools/wasnorm_wordpool_576.txt	LTP378	ltpFR2	18	3	CLUTCH	-1	n/a	n/a	0	0	0
986.9345703125	n/a	DISTRACTOR	2021242	n/a	LTP378	ltpFR2	18	4	n/a	n/a	n/a	n/a	0	0	0
986.9345703125	n/a	START	2021242	n/a	LTP378	ltpFR2	18	n/a	n/a	n/a	5	n/a	n/a	n/a	n/a
986.95166015625	n/a	PROB	2021277	n/a	LTP378	ltpFR2	18	n/a	n/a	n/a	5	16	1	8	7
989.68359375	n/a	PROB	2026872	n/a	LTP378	ltpFR2	18	n/a	n/a	n/a	5	17	4	7	6
992.18212890625	n/a	PROB	2031989	n/a	LTP378	ltpFR2	18	n/a	n/a	n/a	5	9	6	2	1
996.54296875	n/a	PROB	2040920	n/a	LTP378	ltpFR2	18	n/a	n/a	n/a	5	12	8	3	1
998.2060546875	n/a	PROB	2044326	n/a	LTP378	ltpFR2	18	n/a	n/a	n/a	5	18	6	4	8
1000.279296875	n/a	PROB	2048572	n/a	LTP378	ltpFR2	18	n/a	n/a	n/a	5	12	5	3	4
1002.46826171875	n/a	PROB	2053055	n/a	LTP378	ltpFR2	18	n/a	n/a	n/a	5	15	4	9	2
1005.72705078125	n/a	PROB	2059729	n/a	LTP378	ltpFR2	18	n/a	n/a	n/a	5	15	1	8	6
1010.93359375	n/a	STOP	2070392	n/a	LTP378	ltpFR2	18	n/a	n/a	n/a	5	n/a	n/a	n/a	n/a
1012.02685546875	n/a	WORD	2072631	wordpools/wasnorm_wordpool_576.txt	LTP378	ltpFR2	18	4	BUCKET	184	n/a	n/a	0	0	0
1014.70849609375	n/a	WORD	2078123	wordpools/wasnorm_wordpool_576.txt	LTP378	ltpFR2	18	4	HANDBAG	684	n/a	n/a	0	0	0
1017.173828125	n/a	WORD	2083172	wordpools/wasnorm_wordpool_576.txt	LTP378	ltpFR2	18	4	CARROT	249	n/a	n/a	0	0	0
1019.939453125	n/a	WORD	2088836	wordpools/wasnorm_wordpool_576.txt	LTP378	ltpFR2	18	4	TEMPLE	1448	n/a	n/a	0	0	0
1022.5712890625	n/a	WORD	2094226	wordpools/wasnorm_wordpool_576.txt	LTP378	ltpFR2	18	4	FOOTBALL	591	n/a	n/a	0	0	0
1025.37060546875	n/a	WORD	2099959	wordpools/wasnorm_wordpool_576.txt	LTP378	ltpFR2	18	4	CRAYON	401	n/a	n/a	0	0	0
1028.00244140625	n/a	WORD	2105349	wordpools/wasnorm_wordpool_576.txt	LTP378	ltpFR2	18	4	CUSTARD	429	n/a	n/a	0	0	0
1030.78515625	n/a	WORD	2111048	wordpools/wasnorm_wordpool_576.txt	LTP378	ltpFR2	18	4	LAGOON	795	n/a	n/a	0	0	0
1033.375	n/a	WORD	2116352	wordpools/wasnorm_wordpool_576.txt	LTP378	ltpFR2	18	4	MARSH	874	n/a	n/a	0	0	0
1035.94921875	n/a	WORD	2121624	wordpools/wasnorm_wordpool_576.txt	LTP378	ltpFR2	18	4	JAPAN	749	n/a	n/a	0	0	0
1038.38916015625	n/a	WORD	2126621	wordpools/wasnorm_wordpool_576.txt	LTP378	ltpFR2	18	4	COUNTRY	388	n/a	n/a	0	0	0
1041.037109375	n/a	WORD	2132044	wordpools/wasnorm_wordpool_576.txt	LTP378	ltpFR2	18	4	GAVEL	627	n/a	n/a	0	0	0
1043.81201171875	n/a	WORD	2137727	wordpools/wasnorm_wordpool_576.txt	LTP378	ltpFR2	18	4	TYPIST	1532	n/a	n/a	0	0	0
1046.29296875	n/a	WORD	2142808	wordpools/wasnorm_wordpool_576.txt	LTP378	ltpFR2	18	4	SALAD	1224	n/a	n/a	0	0	0
1048.90869140625	n/a	WORD	2148165	wordpools/wasnorm_wordpool_576.txt	LTP378	ltpFR2	18	4	PERMIT	1051	n/a	n/a	0	0	0
1051.673828125	n/a	WORD	2153828	wordpools/wasnorm_wordpool_576.txt	LTP378	ltpFR2	18	4	PATROL	1027	n/a	n/a	0	0	0
1054.15673828125	n/a	WORD	2158913	wordpools/wasnorm_wordpool_576.txt	LTP378	ltpFR2	18	4	QUARTER	1148	n/a	n/a	0	0	0
1056.6796875	n/a	WORD	2164080	wordpools/wasnorm_wordpool_576.txt	LTP378	ltpFR2	18	4	STATUE	1374	n/a	n/a	0	0	0
1059.26953125	n/a	WORD	2169384	wordpools/wasnorm_wordpool_576.txt	LTP378	ltpFR2	18	4	SAUSAGE	1238	n/a	n/a	0	0	0
1062.01025390625	n/a	WORD	2174997	wordpools/wasnorm_wordpool_576.txt	LTP378	ltpFR2	18	4	DIME	466	n/a	n/a	0	0	0
1064.47509765625	n/a	WORD	2180045	wordpools/wasnorm_wordpool_576.txt	LTP378	ltpFR2	18	4	HOOD	714	n/a	n/a	0	0	0
1067.1083984375	n/a	WORD	2185438	wordpools/wasnorm_wordpool_576.txt	LTP378	ltpFR2	18	4	CHURCH	307	n/a	n/a	0	0	0
1069.80517578125	n/a	WORD	2190961	wordpools/wasnorm_wordpool_576.txt	LTP378	ltpFR2	18	4	PRIMATE	1123	n/a	n/a	0	0	0
1072.462890625	n/a	WORD	2196404	wordpools/wasnorm_wordpool_576.txt	LTP378	ltpFR2	18	4	MONSTER	912	n/a	n/a	0	0	0
1074.06787109375	n/a	START	2199691	n/a	LTP378	ltpFR2	18	n/a	n/a	n/a	6	n/a	n/a	n/a	n/a
1075.162109375	n/a	DISTRACTOR	2201932	n/a	LTP378	ltpFR2	18	4	n/a	n/a	n/a	n/a	0	0	0
1075.169921875	n/a	PROB	2201948	n/a	LTP378	ltpFR2	18	n/a	n/a	n/a	6	13	5	7	1
1077.3837890625	n/a	PROB	2206482	n/a	LTP378	ltpFR2	18	n/a	n/a	n/a	6	7	1	3	3
1080.48388671875	n/a	PROB	2212831	n/a	LTP378	ltpFR2	18	n/a	n/a	n/a	6	16	4	9	3
1083.49169921875	n/a	PROB	2218991	n/a	LTP378	ltpFR2	18	n/a	n/a	n/a	6	19	7	3	9
1085.130859375	n/a	PROB	2222348	n/a	LTP378	ltpFR2	18	n/a	n/a	n/a	6	12	2	4	6
1086.8427734375	n/a	PROB	2225854	n/a	LTP378	ltpFR2	18	n/a	n/a	n/a	6	7	4	2	1
1088.70556640625	n/a	PROB	2229669	n/a	LTP378	ltpFR2	18	n/a	n/a	n/a	6	12	1	4	7
1090.1767578125	n/a	PROB	2232682	n/a	LTP378	ltpFR2	18	n/a	n/a	n/a	6	10	3	1	6
1092.28271484375	n/a	PROB	2236995	n/a	LTP378	ltpFR2	18	n/a	n/a	n/a	6	24	6	9	9
1097.82861328125	n/a	STOP	2248353	n/a	LTP378	ltpFR2	18	n/a	n/a	n/a	6	n/a	n/a	n/a	n/a
1099.89453125	n/a	REC_START	2252584	n/a	LTP378	ltpFR2	18	4	n/a	n/a	n/a	n/a	0	0	0
1108.7939453125	n/a	REC_WORD	2270810	wordpools/wasnorm_wordpool_576.txt	LTP378	ltpFR2	18	4	BUCKET	184	n/a	n/a	0	0	0
1171.83837890625	n/a	REC_WORD	2399925	wordpools/wasnorm_wordpool_576.txt	LTP378	ltpFR2	18	4	COBRA	336	n/a	n/a	0	0	0
1217.240234375	n/a	WORD	2492908	wordpools/wasnorm_wordpool_576.txt	LTP378	ltpFR2	18	5	JELLY	755	n/a	n/a	0	0	0
1220.005859375	n/a	WORD	2498572	wordpools/wasnorm_wordpool_576.txt	LTP378	ltpFR2	18	5	STREAM	1392	n/a	n/a	0	0	0
1222.705078125	n/a	WORD	2504100	wordpools/wasnorm_wordpool_576.txt	LTP378	ltpFR2	18	5	BOARD	143	n/a	n/a	0	0	0
1225.294921875	n/a	WORD	2509404	wordpools/wasnorm_wordpool_576.txt	LTP378	ltpFR2	18	5	LAKE	796	n/a	n/a	0	0	0
1228.095703125	n/a	WORD	2515140	wordpools/wasnorm_wordpool_576.txt	LTP378	ltpFR2	18	5	CORAL	378	n/a	n/a	0	0	0
1230.8095703125	n/a	WORD	2520698	wordpools/wasnorm_wordpool_576.txt	LTP378	ltpFR2	18	5	BLUEPRINT	142	n/a	n/a	0	0	0
1233.55859375	n/a	WORD	2526328	wordpools/wasnorm_wordpool_576.txt	LTP378	ltpFR2	18	5	WIDOW	1608	n/a	n/a	0	0	0
1236.11669921875	n/a	WORD	2531567	wordpools/wasnorm_wordpool_576.txt	LTP378	ltpFR2	18	5	TURNIP	1521	n/a	n/a	0	0	0
1238.72265625	n/a	WORD	2536904	wordpools/wasnorm_wordpool_576.txt	LTP378	ltpFR2	18	5	SCRIBBLE	1256	n/a	n/a	0	0	0
1241.3544921875	n/a	WORD	2542294	wordpools/wasnorm_wordpool_576.txt	LTP378	ltpFR2	18	5	VIRUS	1572	n/a	n/a	0	0	0
1243.8193359375	n/a	WORD	2547342	wordpools/wasnorm_wordpool_576.txt	LTP378	ltpFR2	18	5	WRIST	1626	n/a	n/a	0	0	0
1246.30126953125	n/a	WORD	2552425	wordpools/wasnorm_wordpool_576.txt	LTP378	ltpFR2	18	5	STUDENT	1395	n/a	n/a	0	0	0
1248.75830078125	n/a	WORD	2557457	wordpools/wasnorm_wordpool_576.txt	LTP378	ltpFR2	18	5	SURVEY	1414	n/a	n/a	0	0	0
1251.5322265625	n/a	WORD	2563138	wordpools/wasnorm_wordpool_576.txt	LTP378	ltpFR2	18	5	TREAT	1501	n/a	n/a	0	0	0
1254.2890625	n/a	WORD	2568784	wordpools/wasnorm_wordpool_576.txt	LTP378	ltpFR2	18	5	SNACK	1331	n/a	n/a	0	0	0
1256.72119140625	n/a	WORD	2573765	wordpools/wasnorm_wordpool_576.txt	LTP378	ltpFR2	18	5	CURTAIN	427	n/a	n/a	0	0	0
1259.2529296875	n/a	WORD	2578950	wordpools/wasnorm_wordpool_576.txt	LTP378	ltpFR2	18	5	GLASS	639	n/a	n/a	0	0	0
1261.86767578125	n/a	WORD	2584305	wordpools/wasnorm_wordpool_576.txt	LTP378	ltpFR2	18	5	SHOULDER	1294	n/a	n/a	0	0	0
1264.3408203125	n/a	WORD	2589370	wordpools/wasnorm_wordpool_576.txt	LTP378	ltpFR2	18	5	SLIME	1327	n/a	n/a	0	0	0
1267.099609375	n/a	WORD	2595020	wordpools/wasnorm_wordpool_576.txt	LTP378	ltpFR2	18	5	LEADER	807	n/a	n/a	0	0	0
1269.521484375	n/a	WORD	2599980	wordpools/wasnorm_wordpool_576.txt	LTP378	ltpFR2	18	5	PEBBLE	1035	n/a	n/a	0	0	0
1272.1787109375	n/a	WORD	2605422	wordpools/wasnorm_wordpool_576.txt	LTP378	ltpFR2	18	5	TRIBE	1505	n/a	n/a	0	0	0
1274.61865234375	n/a	WORD	2610419	wordpools/wasnorm_wordpool_576.txt	LTP378	ltpFR2	18	5	DRESS	495	n/a	n/a	0	0	0
1277.25048828125	n/a	WORD	2615809	wordpools/wasnorm_wordpool_576.txt	LTP378	ltpFR2	18	5	SKIRT	1319	n/a	n/a	0	0	0
1278.85546875	n/a	START	2619096	n/a	LTP378	ltpFR2	18	n/a	n/a	n/a	7	n/a	n/a	n/a	n/a
1279.9912109375	n/a	DISTRACTOR	2621422	n/a	LTP378	ltpFR2	18	5	n/a	n/a	n/a	n/a	0	0	0
1279.99951171875	n/a	PROB	2621439	n/a	LTP378	ltpFR2	18	n/a	n/a	n/a	7	20	9	9	2
1286.7841796875	n/a	PROB	2635334	n/a	LTP378	ltpFR2	18	n/a	n/a	n/a	7	12	4	7	1
1288.330078125	n/a	PROB	2638500	n/a	LTP378	ltpFR2	18	n/a	n/a	n/a	7	18	7	9	2
1290.48583984375	n/a	PROB	2642915	n/a	LTP378	ltpFR2	18	n/a	n/a	n/a	7	7	1	3	3
1292.7919921875	n/a	PROB	2647638	n/a	LTP378	ltpFR2	18	n/a	n/a	n/a	7	17	3	9	5
1295.32373046875	n/a	PROB	2652823	n/a	LTP378	ltpFR2	18	n/a	n/a	n/a	7	13	7	3	3
1297.470703125	n/a	PROB	2657220	n/a	LTP378	ltpFR2	18	n/a	n/a	n/a	7	9	3	3	3
1298.75	n/a	PROB	2659840	n/a	LTP378	ltpFR2	18	n/a	n/a	n/a	7	16	3	8	5
1301.6298828125	n/a	STOP	2665738	n/a	LTP378	ltpFR2	18	n/a	n/a	n/a	7	n/a	n/a	n/a	n/a
1304.66552734375	n/a	REC_START	2671955	n/a	LTP378	ltpFR2	18	5	n/a	n/a	n/a	n/a	0	0	0
1309.45263671875	n/a	REC_WORD	2681759	wordpools/wasnorm_wordpool_576.txt	LTP378	ltpFR2	18	5	TREAT	1501	n/a	n/a	0	0	0
1310.20849609375	n/a	REC_WORD	2683307	wordpools/wasnorm_wordpool_576.txt	LTP378	ltpFR2	18	5	SNACK	1331	n/a	n/a	0	0	0
1311.3896484375	n/a	REC_WORD	2685726	wordpools/wasnorm_wordpool_576.txt	LTP378	ltpFR2	18	5	CURTAIN	427	n/a	n/a	0	0	0
1312.33056640625	n/a	REC_WORD	2687653	wordpools/wasnorm_wordpool_576.txt	LTP378	ltpFR2	18	5	SLIME	1327	n/a	n/a	0	0	0
1313.447265625	n/a	REC_WORD	2689940	wordpools/wasnorm_wordpool_576.txt	LTP378	ltpFR2	18	5	PEBBLE	1035	n/a	n/a	0	0	0
1314.5732421875	n/a	REC_WORD	2692246	wordpools/wasnorm_wordpool_576.txt	LTP378	ltpFR2	18	5	TRIBE	1505	n/a	n/a	0	0	0
1336.82470703125	n/a	REC_WORD	2737817	wordpools/wasnorm_wordpool_576.txt	LTP378	ltpFR2	18	5	WRIST	1626	n/a	n/a	0	0	0
1411.6005859375	n/a	WORD	2890958	wordpools/wasnorm_wordpool_576.txt	LTP378	ltpFR2	18	6	BUBBLE	183	n/a	n/a	0	0	0
1414.04052734375	n/a	WORD	2895955	wordpools/wasnorm_wordpool_576.txt	LTP378	ltpFR2	18	6	PIANO	1057	n/a	n/a	0	0	0
1416.6884765625	n/a	WORD	2901378	wordpools/wasnorm_wordpool_576.txt	LTP378	ltpFR2	18	6	HUMAN	726	n/a	n/a	0	0	0
1419.12158203125	n/a	WORD	2906361	wordpools/wasnorm_wordpool_576.txt	LTP378	ltpFR2	18	6	CRICKET	408	n/a	n/a	0	0	0
1421.79443359375	n/a	WORD	2911835	wordpools/wasnorm_wordpool_576.txt	LTP378	ltpFR2	18	6	MATTRESS	879	n/a	n/a	0	0	0
1424.359375	n/a	WORD	2917088	wordpools/wasnorm_wordpool_576.txt	LTP378	ltpFR2	18	6	OYSTER	995	n/a	n/a	0	0	0
1426.93212890625	n/a	WORD	2922357	wordpools/wasnorm_wordpool_576.txt	LTP378	ltpFR2	18	6	PARTNER	1017	n/a	n/a	0	0	0
1429.64013671875	n/a	WORD	2927903	wordpools/wasnorm_wordpool_576.txt	LTP378	ltpFR2	18	6	DOUGHNUT	490	n/a	n/a	0	0	0
1432.197265625	n/a	WORD	2933140	wordpools/wasnorm_wordpool_576.txt	LTP378	ltpFR2	18	6	PIMPLE	1071	n/a	n/a	0	0	0
1434.65283203125	n/a	WORD	2938169	wordpools/wasnorm_wordpool_576.txt	LTP378	ltpFR2	18	6	FRECKLE	602	n/a	n/a	0	0	0
1437.31884765625	n/a	WORD	2943629	wordpools/wasnorm_wordpool_576.txt	LTP378	ltpFR2	18	6	BATHTUB	100	n/a	n/a	0	0	0
1440.09375	n/a	WORD	2949312	wordpools/wasnorm_wordpool_576.txt	LTP378	ltpFR2	18	6	PERFUME	1049	n/a	n/a	0	0	0
1442.75	n/a	WORD	2954752	wordpools/wasnorm_wordpool_576.txt	LTP378	ltpFR2	18	6	DONKEY	484	n/a	n/a	0	0	0
1445.2568359375	n/a	WORD	2959886	wordpools/wasnorm_wordpool_576.txt	LTP378	ltpFR2	18	6	WIFE	1609	n/a	n/a	0	0	0
1447.880859375	n/a	WORD	2965260	wordpools/wasnorm_wordpool_576.txt	LTP378	ltpFR2	18	6	SILK	1307	n/a	n/a	0	0	0
1450.3955078125	n/a	WORD	2970410	wordpools/wasnorm_wordpool_576.txt	LTP378	ltpFR2	18	6	FRAGRANCE	599	n/a	n/a	0	0	0
1452.810546875	n/a	WORD	2975356	wordpools/wasnorm_wordpool_576.txt	LTP378	ltpFR2	18	6	MAILMAN	858	n/a	n/a	0	0	0
1455.40869140625	n/a	WORD	2980677	wordpools/wasnorm_wordpool_576.txt	LTP378	ltpFR2	18	6	MAILBOX	857	n/a	n/a	0	0	0
1457.9482421875	n/a	WORD	2985878	wordpools/wasnorm_wordpool_576.txt	LTP378	ltpFR2	18	6	CANYON	235	n/a	n/a	0	0	0
1460.41357421875	n/a	WORD	2990927	wordpools/wasnorm_wordpool_576.txt	LTP378	ltpFR2	18	6	ASIA	46	n/a	n/a	0	0	0
1462.9453125	n/a	WORD	2996112	wordpools/wasnorm_wordpool_576.txt	LTP378	ltpFR2	18	6	COOKBOOK	373	n/a	n/a	0	0	0
1465.3681640625	n/a	WORD	3001074	wordpools/wasnorm_wordpool_576.txt	LTP378	ltpFR2	18	6	BELLY	119	n/a	n/a	0	0	0
1467.8251953125	n/a	WORD	3006106	wordpools/wasnorm_wordpool_576.txt	LTP378	ltpFR2	18	6	NOVEL	960	n/a	n/a	0	0	0
1470.51611328125	n/a	WORD	3011617	wordpools/wasnorm_wordpool_576.txt	LTP378	ltpFR2	18	6	LUGGAGE	847	n/a	n/a	0	0	0
1472.12109375	n/a	START	3014904	n/a	LTP378	ltpFR2	18	n/a	n/a	n/a	8	n/a	n/a	n/a	n/a
1473.1220703125	n/a	DISTRACTOR	3016954	n/a	LTP378	ltpFR2	18	6	n/a	n/a	n/a	n/a	0	0	0
1473.1240234375	n/a	PROB	3016958	n/a	LTP378	ltpFR2	18	n/a	n/a	n/a	8	19	7	9	3
1475.73779296875	n/a	PROB	3022311	n/a	LTP378	ltpFR2	18	n/a	n/a	n/a	8	22	9	7	6
1481.603515625	n/a	PROB	3034324	n/a	LTP378	ltpFR2	18	n/a	n/a	n/a	8	12	8	2	2
1485.7646484375	n/a	PROB	3042846	n/a	LTP378	ltpFR2	18	n/a	n/a	n/a	8	17	6	8	3
1487.71142578125	n/a	PROB	3046833	n/a	LTP378	ltpFR2	18	n/a	n/a	n/a	8	14	4	7	3
1489.56640625	n/a	PROB	3050632	n/a	LTP378	ltpFR2	18	n/a	n/a	n/a	8	11	4	2	5
1493.1513671875	n/a	PROB	3057974	n/a	LTP378	ltpFR2	18	n/a	n/a	n/a	8	15	1	9	5
1494.95849609375	n/a	STOP	3061675	n/a	LTP378	ltpFR2	18	n/a	n/a	n/a	8	n/a	n/a	n/a	n/a
1497.96435546875	n/a	REC_START	3067831	n/a	LTP378	ltpFR2	18	6	n/a	n/a	n/a	n/a	0	0	0
1499.451171875	n/a	REC_WORD	3070876	wordpools/wasnorm_wordpool_576.txt	LTP378	ltpFR2	18	6	COOKBOOK	373	n/a	n/a	0	0	0
1500.18408203125	n/a	REC_WORD	3072377	wordpools/wasnorm_wordpool_576.txt	LTP378	ltpFR2	18	6	ASIA	46	n/a	n/a	0	0	0
1500.818359375	n/a	REC_WORD	3073676	wordpools/wasnorm_wordpool_576.txt	LTP378	ltpFR2	18	6	BELLY	119	n/a	n/a	0	0	0
1501.63037109375	n/a	REC_WORD	3075339	wordpools/wasnorm_wordpool_576.txt	LTP378	ltpFR2	18	6	NOVEL	960	n/a	n/a	0	0	0
1502.251953125	n/a	REC_WORD	3076612	wordpools/wasnorm_wordpool_576.txt	LTP378	ltpFR2	18	6	LUGGAGE	847	n/a	n/a	0	0	0
1508.8369140625	n/a	REC_WORD	3090098	wordpools/wasnorm_wordpool_576.txt	LTP378	ltpFR2	18	6	FIREPLACE	570	n/a	n/a	0	0	0
1514.31396484375	n/a	REC_WORD	3101315	wordpools/wasnorm_wordpool_576.txt	LTP378	ltpFR2	18	6	MAILMAN	858	n/a	n/a	0	0	0
1515.470703125	n/a	REC_WORD	3103684	wordpools/wasnorm_wordpool_576.txt	LTP378	ltpFR2	18	6	MAILBOX	857	n/a	n/a	0	0	0
1605.09228515625	n/a	DISTRACTOR	3287229	n/a	LTP378	ltpFR2	18	7	n/a	n/a	n/a	n/a	0	0	0
1605.09228515625	n/a	START	3287229	n/a	LTP378	ltpFR2	18	n/a	n/a	n/a	9	n/a	n/a	n/a	n/a
1605.109375	n/a	PROB	3287264	n/a	LTP378	ltpFR2	18	n/a	n/a	n/a	9	11	5	1	5
1607.33837890625	n/a	PROB	3291829	n/a	LTP378	ltpFR2	18	n/a	n/a	n/a	9	12	3	6	3
1610.08935546875	n/a	PROB	3297463	n/a	LTP378	ltpFR2	18	n/a	n/a	n/a	9	20	7	9	4
1613.1708984375	n/a	PROB	3303774	n/a	LTP378	ltpFR2	18	n/a	n/a	n/a	9	13	5	5	3
1616.26318359375	n/a	PROB	3310107	n/a	LTP378	ltpFR2	18	n/a	n/a	n/a	9	14	4	9	1
1624.751953125	n/a	PROB	3327492	n/a	LTP378	ltpFR2	18	n/a	n/a	n/a	9	18	3	7	8
1629.091796875	n/a	STOP	3336380	n/a	LTP378	ltpFR2	18	n/a	n/a	n/a	9	n/a	n/a	n/a	n/a
1630.24169921875	n/a	WORD	3338735	wordpools/wasnorm_wordpool_576.txt	LTP378	ltpFR2	18	7	DORM	488	n/a	n/a	0	0	0
1632.71435546875	n/a	WORD	3343799	wordpools/wasnorm_wordpool_576.txt	LTP378	ltpFR2	18	7	VICTIM	1562	n/a	n/a	0	0	0
1635.138671875	n/a	WORD	3348764	wordpools/wasnorm_wordpool_576.txt	LTP378	ltpFR2	18	7	GIRL	637	n/a	n/a	0	0	0
1637.8203125	n/a	WORD	3354256	wordpools/wasnorm_wordpool_576.txt	LTP378	ltpFR2	18	7	DANCER	437	n/a	n/a	0	0	0
1640.2763671875	n/a	WORD	3359286	wordpools/wasnorm_wordpool_576.txt	LTP378	ltpFR2	18	7	SMOG	1330	n/a	n/a	0	0	0
1643.06005859375	n/a	WORD	3364987	wordpools/wasnorm_wordpool_576.txt	LTP378	ltpFR2	18	7	COURSE	390	n/a	n/a	0	0	0
1645.79931640625	n/a	WORD	3370597	wordpools/wasnorm_wordpool_576.txt	LTP378	ltpFR2	18	7	DAUGHTER	442	n/a	n/a	0	0	0
1648.365234375	n/a	WORD	3375852	wordpools/wasnorm_wordpool_576.txt	LTP378	ltpFR2	18	7	SISTER	1312	n/a	n/a	0	0	0
1650.89599609375	n/a	WORD	3381035	wordpools/wasnorm_wordpool_576.txt	LTP378	ltpFR2	18	7	GANGSTER	620	n/a	n/a	0	0	0
1653.328125	n/a	WORD	3386016	wordpools/wasnorm_wordpool_576.txt	LTP378	ltpFR2	18	7	PADDLE	1000	n/a	n/a	0	0	0
1656.06201171875	n/a	WORD	3391615	wordpools/wasnorm_wordpool_576.txt	LTP378	ltpFR2	18	7	CHEMIST	292	n/a	n/a	0	0	0
1658.57568359375	n/a	WORD	3396763	wordpools/wasnorm_wordpool_576.txt	LTP378	ltpFR2	18	7	SHIRT	1287	n/a	n/a	0	0	0
1661.3330078125	n/a	WORD	3402410	wordpools/wasnorm_wordpool_576.txt	LTP378	ltpFR2	18	7	TILE	1468	n/a	n/a	0	0	0
1663.9228515625	n/a	WORD	3407714	wordpools/wasnorm_wordpool_576.txt	LTP378	ltpFR2	18	7	CEILING	265	n/a	n/a	0	0	0
1666.62158203125	n/a	WORD	3413241	wordpools/wasnorm_wordpool_576.txt	LTP378	ltpFR2	18	7	COUNTY	389	n/a	n/a	0	0	0
1669.3544921875	n/a	WORD	3418838	wordpools/wasnorm_wordpool_576.txt	LTP378	ltpFR2	18	7	LUMBER	848	n/a	n/a	0	0	0
1672.08740234375	n/a	WORD	3424435	wordpools/wasnorm_wordpool_576.txt	LTP378	ltpFR2	18	7	BLOUSE	139	n/a	n/a	0	0	0
1674.4921875	n/a	WORD	3429360	wordpools/wasnorm_wordpool_576.txt	LTP378	ltpFR2	18	7	MARS	873	n/a	n/a	0	0	0
1677.150390625	n/a	WORD	3434804	wordpools/wasnorm_wordpool_576.txt	LTP378	ltpFR2	18	7	JUGGLER	763	n/a	n/a	0	0	0
1679.71533203125	n/a	WORD	3440057	wordpools/wasnorm_wordpool_576.txt	LTP378	ltpFR2	18	7	HORSE	719	n/a	n/a	0	0	0
1682.447265625	n/a	WORD	3445652	wordpools/wasnorm_wordpool_576.txt	LTP378	ltpFR2	18	7	WAGON	1578	n/a	n/a	0	0	0
1684.89501953125	n/a	WORD	3450665	wordpools/wasnorm_wordpool_576.txt	LTP378	ltpFR2	18	7	COLLEGE	346	n/a	n/a	0	0	0
1687.4521484375	n/a	WORD	3455902	wordpools/wasnorm_wordpool_576.txt	LTP378	ltpFR2	18	7	PLAZA	1088	n/a	n/a	0	0	0
1690.16015625	n/a	WORD	3461448	wordpools/wasnorm_wordpool_576.txt	LTP378	ltpFR2	18	7	STAKE	1368	n/a	n/a	0	0	0
1691.76416015625	n/a	START	3464733	n/a	LTP378	ltpFR2	18	n/a	n/a	n/a	10	n/a	n/a	n/a	n/a
1692.9638671875	n/a	DISTRACTOR	3467190	n/a	LTP378	ltpFR2	18	7	n/a	n/a	n/a	n/a	0	0	0
1692.966796875	n/a	PROB	3467196	n/a	LTP378	ltpFR2	18	n/a	n/a	n/a	10	13	1	9	3
1695.23388671875	n/a	PROB	3471839	n/a	LTP378	ltpFR2	18	n/a	n/a	n/a	10	18	1	9	8
1697.7216796875	n/a	PROB	3476934	n/a	LTP378	ltpFR2	18	n/a	n/a	n/a	10	21	9	4	8
1709.64453125	n/a	PROB	3501352	n/a	LTP378	ltpFR2	18	n/a	n/a	n/a	10	15	1	6	8
1712.3271484375	n/a	PROB	3506846	n/a	LTP378	ltpFR2	18	n/a	n/a	n/a	10	17	3	7	7
1714.5751953125	n/a	STOP	3511450	n/a	LTP378	ltpFR2	18	n/a	n/a	n/a	10	n/a	n/a	n/a	n/a
1717.658203125	n/a	REC_START	3517764	n/a	LTP378	ltpFR2	18	7	n/a	n/a	n/a	n/a	0	0	0
1720.9560546875	n/a	REC_WORD	3524518	wordpools/wasnorm_wordpool_576.txt	LTP378	ltpFR2	18	7	TILE	1468	n/a	n/a	0	0	0
1722.93896484375	n/a	REC_WORD	3528579	wordpools/wasnorm_wordpool_576.txt	LTP378	ltpFR2	18	7	SHIRT	1287	n/a	n/a	0	0	0
1725.1748046875	n/a	REC_WORD	3533158	wordpools/wasnorm_wordpool_576.txt	LTP378	ltpFR2	18	7	COUNTY	389	n/a	n/a	0	0	0
1726.1748046875	n/a	REC_WORD_VV	3535206	wordpools/wasnorm_wordpool_576.txt	LTP378	ltpFR2	18	7	<>	-1	n/a	n/a	0	0	0
1727.1748046875	n/a	REC_WORD_VV	3537254	wordpools/wasnorm_wordpool_576.txt	LTP378	ltpFR2	18	7	<>	-1	n/a	n/a	0	0	0
1735.5126953125	n/a	REC_WORD	3554330	wordpools/wasnorm_wordpool_576.txt	LTP378	ltpFR2	18	7	VICTIM	1562	n/a	n/a	0	0	0
1737.1455078125	n/a	REC_WORD	3557674	wordpools/wasnorm_wordpool_576.txt	LTP378	ltpFR2	18	7	GIRL	637	n/a	n/a	0	0	0
1740.75537109375	n/a	REC_WORD	3565067	wordpools/wasnorm_wordpool_576.txt	LTP378	ltpFR2	18	7	DORM	488	n/a	n/a	0	0	0
1876.3310546875	n/a	WORD	3842726	wordpools/wasnorm_wordpool_576.txt	LTP378	ltpFR2	18	8	CHILD	299	n/a	n/a	0	0	0
1878.8798828125	n/a	WORD	3847946	wordpools/wasnorm_wordpool_576.txt	LTP378	ltpFR2	18	8	PLAYGROUND	1087	n/a	n/a	0	0	0
1881.50244140625	n/a	WORD	3853317	wordpools/wasnorm_wordpool_576.txt	LTP378	ltpFR2	18	8	BISON	131	n/a	n/a	0	0	0
1884.2685546875	n/a	WORD	3858982	wordpools/wasnorm_wordpool_576.txt	LTP378	ltpFR2	18	8	MAMMAL	861	n/a	n/a	0	0	0
1887.052734375	n/a	WORD	3864684	wordpools/wasnorm_wordpool_576.txt	LTP378	ltpFR2	18	8	TWIG	1527	n/a	n/a	0	0	0
1889.6494140625	n/a	WORD	3870002	wordpools/wasnorm_wordpool_576.txt	LTP378	ltpFR2	18	8	LETTUCE	814	n/a	n/a	0	0	0
1892.26513671875	n/a	WORD	3875359	wordpools/wasnorm_wordpool_576.txt	LTP378	ltpFR2	18	8	DUSTPAN	509	n/a	n/a	0	0	0
1894.93017578125	n/a	WORD	3880817	wordpools/wasnorm_wordpool_576.txt	LTP378	ltpFR2	18	8	SEAL	1262	n/a	n/a	0	0	0
1897.7041015625	n/a	WORD	3886498	wordpools/wasnorm_wordpool_576.txt	LTP378	ltpFR2	18	8	SALMON	1227	n/a	n/a	0	0	0
1900.31103515625	n/a	WORD	3891837	wordpools/wasnorm_wordpool_576.txt	LTP378	ltpFR2	18	8	SHORTS	1293	n/a	n/a	0	0	0
1903.09521484375	n/a	WORD	3897539	wordpools/wasnorm_wordpool_576.txt	LTP378	ltpFR2	18	8	SEAFOOD	1260	n/a	n/a	0	0	0
1905.701171875	n/a	WORD	3902876	wordpools/wasnorm_wordpool_576.txt	LTP378	ltpFR2	18	8	ULCER	1533	n/a	n/a	0	0	0
1908.2080078125	n/a	WORD	3908010	wordpools/wasnorm_wordpool_576.txt	LTP378	ltpFR2	18	8	SPOOL	1356	n/a	n/a	0	0	0
1910.69775390625	n/a	WORD	3913109	wordpools/wasnorm_wordpool_576.txt	LTP378	ltpFR2	18	8	THREAD	1460	n/a	n/a	0	0	0
1913.3046875	n/a	WORD	3918448	wordpools/wasnorm_wordpool_576.txt	LTP378	ltpFR2	18	8	STOVE	1388	n/a	n/a	0	0	0
1915.7607421875	n/a	WORD	3923478	wordpools/wasnorm_wordpool_576.txt	LTP378	ltpFR2	18	8	HARP	689	n/a	n/a	0	0	0
1918.2255859375	n/a	WORD	3928526	wordpools/wasnorm_wordpool_576.txt	LTP378	ltpFR2	18	8	DANDRUFF	439	n/a	n/a	0	0	0
1920.8994140625	n/a	WORD	3934002	wordpools/wasnorm_wordpool_576.txt	LTP378	ltpFR2	18	8	PARENT	1013	n/a	n/a	0	0	0
1923.61572265625	n/a	WORD	3939565	wordpools/wasnorm_wordpool_576.txt	LTP378	ltpFR2	18	8	DUST	508	n/a	n/a	0	0	0
1926.08154296875	n/a	WORD	3944615	wordpools/wasnorm_wordpool_576.txt	LTP378	ltpFR2	18	8	BEAVER	109	n/a	n/a	0	0	0
1928.67919921875	n/a	WORD	3949935	wordpools/wasnorm_wordpool_576.txt	LTP378	ltpFR2	18	8	BOX	159	n/a	n/a	0	0	0
1931.26953125	n/a	WORD	3955240	wordpools/wasnorm_wordpool_576.txt	LTP378	ltpFR2	18	8	CRAB	397	n/a	n/a	0	0	0
1934.00927734375	n/a	WORD	3960851	wordpools/wasnorm_wordpool_576.txt	LTP378	ltpFR2	18	8	POET	1095	n/a	n/a	0	0	0
1936.71728515625	n/a	WORD	3966397	wordpools/wasnorm_wordpool_576.txt	LTP378	ltpFR2	18	8	COIN	343	n/a	n/a	0	0	0
1938.3212890625	n/a	START	3969682	n/a	LTP378	ltpFR2	18	n/a	n/a	n/a	11	n/a	n/a	n/a	n/a
1939.5009765625	n/a	DISTRACTOR	3972098	n/a	LTP378	ltpFR2	18	8	n/a	n/a	n/a	n/a	0	0	0
1939.50830078125	n/a	PROB	3972113	n/a	LTP378	ltpFR2	18	n/a	n/a	n/a	11	10	5	1	4
1944.3037109375	n/a	PROB	3981934	n/a	LTP378	ltpFR2	18	n/a	n/a	n/a	11	20	9	5	6
1947.2119140625	n/a	PROB	3987890	n/a	LTP378	ltpFR2	18	n/a	n/a	n/a	11	9	6	1	2
1952.29150390625	n/a	PROB	3998293	n/a	LTP378	ltpFR2	18	n/a	n/a	n/a	11	16	8	4	4
1954.673828125	n/a	PROB	4003172	n/a	LTP378	ltpFR2	18	n/a	n/a	n/a	11	17	3	7	7
1962.3203125	n/a	STOP	4018832	n/a	LTP378	ltpFR2	18	n/a	n/a	n/a	11	n/a	n/a	n/a	n/a
1964.1826171875	n/a	REC_START	4022646	n/a	LTP378	ltpFR2	18	8	n/a	n/a	n/a	n/a	0	0	0
1968.72021484375	n/a	REC_WORD	4031939	wordpools/wasnorm_wordpool_576.txt	LTP378	ltpFR2	18	8	CHILD	299	n/a	n/a	0	0	0
1969.654296875	n/a	REC_WORD	4033852	wordpools/wasnorm_wordpool_576.txt	LTP378	ltpFR2	18	8	PLAYGROUND	1087	n/a	n/a	0	0	0
1970.60400390625	n/a	REC_WORD	4035797	wordpools/wasnorm_wordpool_576.txt	LTP378	ltpFR2	18	8	BISON	131	n/a	n/a	0	0	0
1971.21728515625	n/a	REC_WORD	4037053	wordpools/wasnorm_wordpool_576.txt	LTP378	ltpFR2	18	8	MAMMAL	861	n/a	n/a	0	0	0
1976.23486328125	n/a	REC_WORD	4047329	wordpools/wasnorm_wordpool_576.txt	LTP378	ltpFR2	18	8	TWIG	1527	n/a	n/a	0	0	0
1977.0419921875	n/a	REC_WORD	4048982	wordpools/wasnorm_wordpool_576.txt	LTP378	ltpFR2	18	8	LETTUCE	814	n/a	n/a	0	0	0
1978.9931640625	n/a	REC_WORD	4052978	wordpools/wasnorm_wordpool_576.txt	LTP378	ltpFR2	18	8	DUSTPAN	509	n/a	n/a	0	0	0
1985.94580078125	n/a	REC_WORD	4067217	wordpools/wasnorm_wordpool_576.txt	LTP378	ltpFR2	18	8	STOVE	1388	n/a	n/a	0	0	0
1986.681640625	n/a	REC_WORD	4068724	wordpools/wasnorm_wordpool_576.txt	LTP378	ltpFR2	18	8	SPOOL	1356	n/a	n/a	0	0	0
1987.74560546875	n/a	REC_WORD	4070903	wordpools/wasnorm_wordpool_576.txt	LTP378	ltpFR2	18	8	THREAD	1460	n/a	n/a	0	0	0
2008.43505859375	n/a	REC_WORD	4113275	wordpools/wasnorm_wordpool_576.txt	LTP378	ltpFR2	18	8	DUST	508	n/a	n/a	0	0	0
2011.31494140625	n/a	REC_WORD	4119173	wordpools/wasnorm_wordpool_576.txt	LTP378	ltpFR2	18	8	BEAVER	109	n/a	n/a	0	0	0
2011.81298828125	n/a	REC_WORD	4120193	wordpools/wasnorm_wordpool_576.txt	LTP378	ltpFR2	18	8	BOX	159	n/a	n/a	0	0	0
2017.27783203125	n/a	REC_WORD	4131385	wordpools/wasnorm_wordpool_576.txt	LTP378	ltpFR2	18	8	PANTRY	-1	n/a	n/a	0	0	0
2020.98876953125	n/a	REC_WORD	4138985	wordpools/wasnorm_wordpool_576.txt	LTP378	ltpFR2	18	8	HARP	689	n/a	n/a	0	0	0
2040.7021484375	n/a	REST_REWET	4179358	n/a	LTP378	ltpFR2	18	8	n/a	n/a	n/a	n/a	0	0	0
2210.2294921875	n/a	DISTRACTOR	4526550	n/a	LTP378	ltpFR2	18	9	n/a	n/a	n/a	n/a	0	0	0
2210.2294921875	n/a	START	4526550	n/a	LTP378	ltpFR2	18	n/a	n/a	n/a	12	n/a	n/a	n/a	n/a
2210.24658203125	n/a	PROB	4526585	n/a	LTP378	ltpFR2	18	n/a	n/a	n/a	12	16	6	8	2
2213.20458984375	n/a	PROB	4532643	n/a	LTP378	ltpFR2	18	n/a	n/a	n/a	12	20	9	5	7
2216.03759765625	n/a	PROB	4538445	n/a	LTP378	ltpFR2	18	n/a	n/a	n/a	12	17	3	5	9
2222.76318359375	n/a	PROB	4552219	n/a	LTP378	ltpFR2	18	n/a	n/a	n/a	12	12	1	2	9
2234.22900390625	n/a	STOP	4575701	n/a	LTP378	ltpFR2	18	n/a	n/a	n/a	12	n/a	n/a	n/a	n/a
2235.205078125	n/a	WORD	4577700	wordpools/wasnorm_wordpool_576.txt	LTP378	ltpFR2	18	9	SCISSORS	1250	n/a	n/a	0	0	0
2237.68603515625	n/a	WORD	4582781	wordpools/wasnorm_wordpool_576.txt	LTP378	ltpFR2	18	9	SCALPEL	1243	n/a	n/a	0	0	0
2240.45166015625	n/a	WORD	4588445	wordpools/wasnorm_wordpool_576.txt	LTP378	ltpFR2	18	9	CREVICE	405	n/a	n/a	0	0	0
2242.8916015625	n/a	WORD	4593442	wordpools/wasnorm_wordpool_576.txt	LTP378	ltpFR2	18	9	OX	994	n/a	n/a	0	0	0
2245.58154296875	n/a	WORD	4598951	wordpools/wasnorm_wordpool_576.txt	LTP378	ltpFR2	18	9	SADDLE	1221	n/a	n/a	0	0	0
2248.1884765625	n/a	WORD	4604290	wordpools/wasnorm_wordpool_576.txt	LTP378	ltpFR2	18	9	FRIAR	605	n/a	n/a	0	0	0
2250.603515625	n/a	WORD	4609236	wordpools/wasnorm_wordpool_576.txt	LTP378	ltpFR2	18	9	GRAVE	658	n/a	n/a	0	0	0
2253.0283203125	n/a	WORD	4614202	wordpools/wasnorm_wordpool_576.txt	LTP378	ltpFR2	18	9	TRUCK	1512	n/a	n/a	0	0	0
2255.55029296875	n/a	WORD	4619367	wordpools/wasnorm_wordpool_576.txt	LTP378	ltpFR2	18	9	DIVER	476	n/a	n/a	0	0	0
2258.13232421875	n/a	WORD	4624655	wordpools/wasnorm_wordpool_576.txt	LTP378	ltpFR2	18	9	KIDNEY	776	n/a	n/a	0	0	0
2260.93115234375	n/a	WORD	4630387	wordpools/wasnorm_wordpool_576.txt	LTP378	ltpFR2	18	9	SIDEWALK	1303	n/a	n/a	0	0	0
2263.4208984375	n/a	WORD	4635486	wordpools/wasnorm_wordpool_576.txt	LTP378	ltpFR2	18	9	ORCHID	982	n/a	n/a	0	0	0
2265.90283203125	n/a	WORD	4640569	wordpools/wasnorm_wordpool_576.txt	LTP378	ltpFR2	18	9	CHIPMUNK	304	n/a	n/a	0	0	0
2268.4677734375	n/a	WORD	4645822	wordpools/wasnorm_wordpool_576.txt	LTP378	ltpFR2	18	9	LACE	792	n/a	n/a	0	0	0
2271.23388671875	n/a	WORD	4651487	wordpools/wasnorm_wordpool_576.txt	LTP378	ltpFR2	18	9	VELVET	1555	n/a	n/a	0	0	0
2273.83203125	n/a	WORD	4656808	wordpools/wasnorm_wordpool_576.txt	LTP378	ltpFR2	18	9	PALACE	1006	n/a	n/a	0	0	0
2276.4228515625	n/a	WORD	4662114	wordpools/wasnorm_wordpool_576.txt	LTP378	ltpFR2	18	9	FLASK	576	n/a	n/a	0	0	0
2278.87060546875	n/a	WORD	4667127	wordpools/wasnorm_wordpool_576.txt	LTP378	ltpFR2	18	9	CHAMPAGNE	278	n/a	n/a	0	0	0
2281.5947265625	n/a	WORD	4672706	wordpools/wasnorm_wordpool_576.txt	LTP378	ltpFR2	18	9	HIGHWAY	707	n/a	n/a	0	0	0
2284.1025390625	n/a	WORD	4677842	wordpools/wasnorm_wordpool_576.txt	LTP378	ltpFR2	18	9	GYMNAST	675	n/a	n/a	0	0	0
2286.62451171875	n/a	WORD	4683007	wordpools/wasnorm_wordpool_576.txt	LTP378	ltpFR2	18	9	CHAUFFEUR	283	n/a	n/a	0	0	0
2289.42333984375	n/a	WORD	4688739	wordpools/wasnorm_wordpool_576.txt	LTP378	ltpFR2	18	9	CASHIER	254	n/a	n/a	0	0	0
2292.08251953125	n/a	WORD	4694185	wordpools/wasnorm_wordpool_576.txt	LTP378	ltpFR2	18	9	HEADBAND	696	n/a	n/a	0	0	0
2294.83837890625	n/a	WORD	4699829	wordpools/wasnorm_wordpool_576.txt	LTP378	ltpFR2	18	9	GARBAGE	622	n/a	n/a	0	0	0
2296.443359375	n/a	START	4703116	n/a	LTP378	ltpFR2	18	n/a	n/a	n/a	13	n/a	n/a	n/a	n/a
2297.3603515625	n/a	DISTRACTOR	4704994	n/a	LTP378	ltpFR2	18	9	n/a	n/a	n/a	n/a	0	0	0
2297.3701171875	n/a	PROB	4705014	n/a	LTP378	ltpFR2	18	n/a	n/a	n/a	13	14	5	3	6
2301.3388671875	n/a	PROB	4713142	n/a	LTP378	ltpFR2	18	n/a	n/a	n/a	13	17	4	9	4
2303.73681640625	n/a	PROB	4718053	n/a	LTP378	ltpFR2	18	n/a	n/a	n/a	13	17	5	8	4
2306.60302734375	n/a	PROB	4723923	n/a	LTP378	ltpFR2	18	n/a	n/a	n/a	13	17	5	7	5
2308.5166015625	n/a	PROB	4727842	n/a	LTP378	ltpFR2	18	n/a	n/a	n/a	13	23	7	8	8
2320.4423828125	n/a	STOP	4752266	n/a	LTP378	ltpFR2	18	n/a	n/a	n/a	13	n/a	n/a	n/a	n/a
2322.228515625	n/a	REC_START	4755924	n/a	LTP378	ltpFR2	18	9	n/a	n/a	n/a	n/a	0	0	0
2323.8525390625	n/a	REC_WORD	4759250	wordpools/wasnorm_wordpool_576.txt	LTP378	ltpFR2	18	9	HIGHWAY	707	n/a	n/a	0	0	0
2324.5673828125	n/a	REC_WORD	4760714	wordpools/wasnorm_wordpool_576.txt	LTP378	ltpFR2	18	9	CHAMPAGNE	278	n/a	n/a	0	0	0
2325.9931640625	n/a	REC_WORD	4763634	wordpools/wasnorm_wordpool_576.txt	LTP378	ltpFR2	18	9	CASHIER	254	n/a	n/a	0	0	0
2326.67431640625	n/a	REC_WORD	4765029	wordpools/wasnorm_wordpool_576.txt	LTP378	ltpFR2	18	9	HEADBAND	696	n/a	n/a	0	0	0
2330.79931640625	n/a	REC_WORD	4773477	wordpools/wasnorm_wordpool_576.txt	LTP378	ltpFR2	18	9	CHAUFFEUR	283	n/a	n/a	0	0	0
2334.34033203125	n/a	REC_WORD	4780729	wordpools/wasnorm_wordpool_576.txt	LTP378	ltpFR2	18	9	GYMNAST	675	n/a	n/a	0	0	0
2338.15625	n/a	REC_WORD	4788544	wordpools/wasnorm_wordpool_576.txt	LTP378	ltpFR2	18	9	SCALPEL	1243	n/a	n/a	0	0	0
2338.93115234375	n/a	REC_WORD	4790131	wordpools/wasnorm_wordpool_576.txt	LTP378	ltpFR2	18	9	SCISSORS	1250	n/a	n/a	0	0	0
2340.14013671875	n/a	REC_WORD	4792607	wordpools/wasnorm_wordpool_576.txt	LTP378	ltpFR2	18	9	CREVICE	405	n/a	n/a	0	0	0
2341.76806640625	n/a	REC_WORD	4795941	wordpools/wasnorm_wordpool_576.txt	LTP378	ltpFR2	18	9	OX	994	n/a	n/a	0	0	0
2412.65185546875	n/a	DISTRACTOR	4941111	n/a	LTP378	ltpFR2	18	10	n/a	n/a	n/a	n/a	0	0	0
2412.65283203125	n/a	START	4941113	n/a	LTP378	ltpFR2	18	n/a	n/a	n/a	14	n/a	n/a	n/a	n/a
2412.6689453125	n/a	PROB	4941146	n/a	LTP378	ltpFR2	18	n/a	n/a	n/a	14	10	8	1	1
2421.82666015625	n/a	PROB	4959901	n/a	LTP378	ltpFR2	18	n/a	n/a	n/a	14	23	7	7	9
2425.04443359375	n/a	PROB	4966491	n/a	LTP378	ltpFR2	18	n/a	n/a	n/a	14	9	3	4	2
2427.25732421875	n/a	PROB	4971023	n/a	LTP378	ltpFR2	18	n/a	n/a	n/a	14	13	9	1	3
2432.34619140625	n/a	PROB	4981445	n/a	LTP378	ltpFR2	18	n/a	n/a	n/a	14	16	8	7	1
2434.05224609375	n/a	PROB	4984939	n/a	LTP378	ltpFR2	18	n/a	n/a	n/a	14	11	1	7	3
2435.21142578125	n/a	STOP	4987313	n/a	LTP378	ltpFR2	18	n/a	n/a	n/a	14	n/a	n/a	n/a	n/a
2437.84423828125	n/a	WORD	4992705	wordpools/wasnorm_wordpool_576.txt	LTP378	ltpFR2	18	10	DRAWING	494	n/a	n/a	0	0	0
2440.41796875	n/a	WORD	4997976	wordpools/wasnorm_wordpool_576.txt	LTP378	ltpFR2	18	10	BUGGY	188	n/a	n/a	0	0	0
2443.05908203125	n/a	WORD	5003385	wordpools/wasnorm_wordpool_576.txt	LTP378	ltpFR2	18	10	RELISH	1183	n/a	n/a	0	0	0
2445.47314453125	n/a	WORD	5008329	wordpools/wasnorm_wordpool_576.txt	LTP378	ltpFR2	18	10	GRILL	661	n/a	n/a	0	0	0
2448.01416015625	n/a	WORD	5013533	wordpools/wasnorm_wordpool_576.txt	LTP378	ltpFR2	18	10	MASK	876	n/a	n/a	0	0	0
2450.73681640625	n/a	WORD	5019109	wordpools/wasnorm_wordpool_576.txt	LTP378	ltpFR2	18	10	HAND	683	n/a	n/a	0	0	0
2453.2109375	n/a	WORD	5024176	wordpools/wasnorm_wordpool_576.txt	LTP378	ltpFR2	18	10	CONTRACT	368	n/a	n/a	0	0	0
2455.67578125	n/a	WORD	5029224	wordpools/wasnorm_wordpool_576.txt	LTP378	ltpFR2	18	10	MAPLE	866	n/a	n/a	0	0	0
2458.14892578125	n/a	WORD	5034289	wordpools/wasnorm_wordpool_576.txt	LTP378	ltpFR2	18	10	BROTHER	179	n/a	n/a	0	0	0
2460.939453125	n/a	WORD	5040004	wordpools/wasnorm_wordpool_576.txt	LTP378	ltpFR2	18	10	SUPPER	1411	n/a	n/a	0	0	0
2463.66357421875	n/a	WORD	5045583	wordpools/wasnorm_wordpool_576.txt	LTP378	ltpFR2	18	10	FARMER	553	n/a	n/a	0	0	0
2466.37841796875	n/a	WORD	5051143	wordpools/wasnorm_wordpool_576.txt	LTP378	ltpFR2	18	10	ROOSTER	1209	n/a	n/a	0	0	0
2468.9443359375	n/a	WORD	5056398	wordpools/wasnorm_wordpool_576.txt	LTP378	ltpFR2	18	10	PUPPY	1144	n/a	n/a	0	0	0
2471.609375	n/a	WORD	5061856	wordpools/wasnorm_wordpool_576.txt	LTP378	ltpFR2	18	10	RIFLE	1192	n/a	n/a	0	0	0
2474.400390625	n/a	WORD	5067572	wordpools/wasnorm_wordpool_576.txt	LTP378	ltpFR2	18	10	PISTOL	1075	n/a	n/a	0	0	0
2477.1171875	n/a	WORD	5073136	wordpools/wasnorm_wordpool_576.txt	LTP378	ltpFR2	18	10	QUAIL	1147	n/a	n/a	0	0	0
2479.7900390625	n/a	WORD	5078610	wordpools/wasnorm_wordpool_576.txt	LTP378	ltpFR2	18	10	STOMACH	1384	n/a	n/a	0	0	0
2482.36279296875	n/a	WORD	5083879	wordpools/wasnorm_wordpool_576.txt	LTP378	ltpFR2	18	10	COWBOY	395	n/a	n/a	0	0	0
2485.12890625	n/a	WORD	5089544	wordpools/wasnorm_wordpool_576.txt	LTP378	ltpFR2	18	10	JEANS	752	n/a	n/a	0	0	0
2487.81103515625	n/a	WORD	5095037	wordpools/wasnorm_wordpool_576.txt	LTP378	ltpFR2	18	10	POCKET	1093	n/a	n/a	0	0	0
2490.517578125	n/a	WORD	5100580	wordpools/wasnorm_wordpool_576.txt	LTP378	ltpFR2	18	10	PIGEON	1065	n/a	n/a	0	0	0
2493.1337890625	n/a	WORD	5105938	wordpools/wasnorm_wordpool_576.txt	LTP378	ltpFR2	18	10	RECEIPT	1173	n/a	n/a	0	0	0
2495.8994140625	n/a	WORD	5111602	wordpools/wasnorm_wordpool_576.txt	LTP378	ltpFR2	18	10	HAMPER	682	n/a	n/a	0	0	0
2498.69873046875	n/a	WORD	5117335	wordpools/wasnorm_wordpool_576.txt	LTP378	ltpFR2	18	10	PICTURE	1061	n/a	n/a	0	0	0
2500.302734375	n/a	START	5120620	n/a	LTP378	ltpFR2	18	n/a	n/a	n/a	15	n/a	n/a	n/a	n/a
2501.484375	n/a	DISTRACTOR	5123040	n/a	LTP378	ltpFR2	18	10	n/a	n/a	n/a	n/a	0	0	0
2501.4892578125	n/a	PROB	5123050	n/a	LTP378	ltpFR2	18	n/a	n/a	n/a	15	22	5	8	9
2508.658203125	n/a	PROB	5137732	n/a	LTP378	ltpFR2	18	n/a	n/a	n/a	15	15	3	7	5
2510.55517578125	n/a	PROB	5141617	n/a	LTP378	ltpFR2	18	n/a	n/a	n/a	15	24	9	6	9
2518.5849609375	n/a	PROB	5158062	n/a	LTP378	ltpFR2	18	n/a	n/a	n/a	15	10	7	2	1
2524.3017578125	n/a	STOP	5169770	n/a	LTP378	ltpFR2	18	n/a	n/a	n/a	15	n/a	n/a	n/a	n/a
2526.18896484375	n/a	REC_START	5173635	n/a	LTP378	ltpFR2	18	10	n/a	n/a	n/a	n/a	0	0	0
2566.54248046875	n/a	REC_WORD	5256279	wordpools/wasnorm_wordpool_576.txt	LTP378	ltpFR2	18	10	SUPPER	1411	n/a	n/a	0	0	0
2567.8046875	n/a	REC_WORD	5258864	wordpools/wasnorm_wordpool_576.txt	LTP378	ltpFR2	18	10	BROTHER	179	n/a	n/a	0	0	0
2586.27001953125	n/a	REC_WORD	5296681	wordpools/wasnorm_wordpool_576.txt	LTP378	ltpFR2	18	10	FARMER	553	n/a	n/a	0	0	0
2662.3759765625	n/a	DISTRACTOR	5452546	n/a	LTP378	ltpFR2	18	11	n/a	n/a	n/a	n/a	0	0	0
2662.376953125	n/a	START	5452548	n/a	LTP378	ltpFR2	18	n/a	n/a	n/a	16	n/a	n/a	n/a	n/a
2662.39306640625	n/a	PROB	5452581	n/a	LTP378	ltpFR2	18	n/a	n/a	n/a	16	16	5	4	7
2665.76904296875	n/a	PROB	5459495	n/a	LTP378	ltpFR2	18	n/a	n/a	n/a	16	14	4	2	8
2668.30078125	n/a	PROB	5464680	n/a	LTP378	ltpFR2	18	n/a	n/a	n/a	16	20	8	4	8
2679.66455078125	n/a	PROB	5487953	n/a	LTP378	ltpFR2	18	n/a	n/a	n/a	16	9	5	1	3
2681.5693359375	n/a	PROB	5491854	n/a	LTP378	ltpFR2	18	n/a	n/a	n/a	16	15	8	4	3
2685.0693359375	n/a	STOP	5499022	n/a	LTP378	ltpFR2	18	n/a	n/a	n/a	16	n/a	n/a	n/a	n/a
2687.2421875	n/a	WORD	5503472	wordpools/wasnorm_wordpool_576.txt	LTP378	ltpFR2	18	11	GUITAR	670	n/a	n/a	0	0	0
2689.9501953125	n/a	WORD	5509018	wordpools/wasnorm_wordpool_576.txt	LTP378	ltpFR2	18	11	EYELASH	546	n/a	n/a	0	0	0
2692.54833984375	n/a	WORD	5514339	wordpools/wasnorm_wordpool_576.txt	LTP378	ltpFR2	18	11	BEEF	113	n/a	n/a	0	0	0
2695.0810546875	n/a	WORD	5519526	wordpools/wasnorm_wordpool_576.txt	LTP378	ltpFR2	18	11	MEAT	883	n/a	n/a	0	0	0
2697.7119140625	n/a	WORD	5524914	wordpools/wasnorm_wordpool_576.txt	LTP378	ltpFR2	18	11	CAPTIVE	240	n/a	n/a	0	0	0
2700.27685546875	n/a	WORD	5530167	wordpools/wasnorm_wordpool_576.txt	LTP378	ltpFR2	18	11	BEAST	108	n/a	n/a	0	0	0
2702.99267578125	n/a	WORD	5535729	wordpools/wasnorm_wordpool_576.txt	LTP378	ltpFR2	18	11	FOX	598	n/a	n/a	0	0	0
2705.65869140625	n/a	WORD	5541189	wordpools/wasnorm_wordpool_576.txt	LTP378	ltpFR2	18	11	DONOR	485	n/a	n/a	0	0	0
2708.31591796875	n/a	WORD	5546631	wordpools/wasnorm_wordpool_576.txt	LTP378	ltpFR2	18	11	SPOUSE	1358	n/a	n/a	0	0	0
2711.04052734375	n/a	WORD	5552211	wordpools/wasnorm_wordpool_576.txt	LTP378	ltpFR2	18	11	GOBLIN	645	n/a	n/a	0	0	0
2713.8466796875	n/a	WORD	5557958	wordpools/wasnorm_wordpool_576.txt	LTP378	ltpFR2	18	11	CHEST	295	n/a	n/a	0	0	0
2716.470703125	n/a	WORD	5563332	wordpools/wasnorm_wordpool_576.txt	LTP378	ltpFR2	18	11	CLIMBER	323	n/a	n/a	0	0	0
2718.96044921875	n/a	WORD	5568431	wordpools/wasnorm_wordpool_576.txt	LTP378	ltpFR2	18	11	SWIMMER	1420	n/a	n/a	0	0	0
2721.7431640625	n/a	WORD	5574130	wordpools/wasnorm_wordpool_576.txt	LTP378	ltpFR2	18	11	RECORD	1176	n/a	n/a	0	0	0
2724.37548828125	n/a	WORD	5579521	wordpools/wasnorm_wordpool_576.txt	LTP378	ltpFR2	18	11	DASHBOARD	441	n/a	n/a	0	0	0
2727.1650390625	n/a	WORD	5585234	wordpools/wasnorm_wordpool_576.txt	LTP378	ltpFR2	18	11	BANK	83	n/a	n/a	0	0	0
2729.81396484375	n/a	WORD	5590659	wordpools/wasnorm_wordpool_576.txt	LTP378	ltpFR2	18	11	GIFT	635	n/a	n/a	0	0	0
2732.6142578125	n/a	WORD	5596394	wordpools/wasnorm_wordpool_576.txt	LTP378	ltpFR2	18	11	ORANGE	980	n/a	n/a	0	0	0
2735.26220703125	n/a	WORD	5601817	wordpools/wasnorm_wordpool_576.txt	LTP378	ltpFR2	18	11	SUNSET	1408	n/a	n/a	0	0	0
2737.9697265625	n/a	WORD	5607362	wordpools/wasnorm_wordpool_576.txt	LTP378	ltpFR2	18	11	HUSBAND	728	n/a	n/a	0	0	0
2740.6689453125	n/a	WORD	5612890	wordpools/wasnorm_wordpool_576.txt	LTP378	ltpFR2	18	11	BLACKBOARD	133	n/a	n/a	0	0	0
2743.216796875	n/a	WORD	5618108	wordpools/wasnorm_wordpool_576.txt	LTP378	ltpFR2	18	11	BACON	67	n/a	n/a	0	0	0
2746.0087890625	n/a	WORD	5623826	wordpools/wasnorm_wordpool_576.txt	LTP378	ltpFR2	18	11	POLICE	1098	n/a	n/a	0	0	0
2748.681640625	n/a	WORD	5629300	wordpools/wasnorm_wordpool_576.txt	LTP378	ltpFR2	18	11	WAITRESS	1581	n/a	n/a	0	0	0
2750.28564453125	n/a	START	5632585	n/a	LTP378	ltpFR2	18	n/a	n/a	n/a	17	n/a	n/a	n/a	n/a
2751.44140625	n/a	DISTRACTOR	5634952	n/a	LTP378	ltpFR2	18	11	n/a	n/a	n/a	n/a	0	0	0
2751.44775390625	n/a	PROB	5634965	n/a	LTP378	ltpFR2	18	n/a	n/a	n/a	17	14	2	5	7
2754.59765625	n/a	PROB	5641416	n/a	LTP378	ltpFR2	18	n/a	n/a	n/a	17	7	1	3	2
2756.736328125	n/a	PROB	5645796	n/a	LTP378	ltpFR2	18	n/a	n/a	n/a	17	14	2	7	5
2761.09912109375	n/a	PROB	5654731	n/a	LTP378	ltpFR2	18	n/a	n/a	n/a	17	11	3	5	3
2763.38720703125	n/a	PROB	5659417	n/a	LTP378	ltpFR2	18	n/a	n/a	n/a	17	11	2	6	3
2765.05126953125	n/a	PROB	5662825	n/a	LTP378	ltpFR2	18	n/a	n/a	n/a	17	20	8	5	7
2768.0419921875	n/a	PROB	5668950	n/a	LTP378	ltpFR2	18	n/a	n/a	n/a	17	20	9	3	8
2770.94921875	n/a	PROB	5674904	n/a	LTP378	ltpFR2	18	n/a	n/a	n/a	17	18	4	5	9
2773.205078125	n/a	STOP	5679524	n/a	LTP378	ltpFR2	18	n/a	n/a	n/a	17	n/a	n/a	n/a	n/a
2776.15478515625	n/a	REC_START	5685565	n/a	LTP378	ltpFR2	18	11	n/a	n/a	n/a	n/a	0	0	0
2779.86767578125	n/a	REC_WORD	5693169	wordpools/wasnorm_wordpool_576.txt	LTP378	ltpFR2	18	11	HUSBAND	728	n/a	n/a	0	0	0
2780.64453125	n/a	REC_WORD	5694760	wordpools/wasnorm_wordpool_576.txt	LTP378	ltpFR2	18	11	WAITRESS	1581	n/a	n/a	0	0	0
2781.310546875	n/a	REC_WORD	5696124	wordpools/wasnorm_wordpool_576.txt	LTP378	ltpFR2	18	11	SUNSET	1408	n/a	n/a	0	0	0
2781.95947265625	n/a	REC_WORD	5697453	wordpools/wasnorm_wordpool_576.txt	LTP378	ltpFR2	18	11	POLICE	1098	n/a	n/a	0	0	0
2937.4013671875	n/a	WORD	6015798	wordpools/wasnorm_wordpool_576.txt	LTP378	ltpFR2	18	12	BLADE	134	n/a	n/a	0	0	0
2940.109375	n/a	WORD	6021344	wordpools/wasnorm_wordpool_576.txt	LTP378	ltpFR2	18	12	UNCLE	1536	n/a	n/a	0	0	0
2942.6572265625	n/a	WORD	6026562	wordpools/wasnorm_wordpool_576.txt	LTP378	ltpFR2	18	12	TUBA	1515	n/a	n/a	0	0	0
2945.10595703125	n/a	WORD	6031577	wordpools/wasnorm_wordpool_576.txt	LTP378	ltpFR2	18	12	MUMMY	932	n/a	n/a	0	0	0
2947.77001953125	n/a	WORD	6037033	wordpools/wasnorm_wordpool_576.txt	LTP378	ltpFR2	18	12	EUROPE	541	n/a	n/a	0	0	0
2950.27685546875	n/a	WORD	6042167	wordpools/wasnorm_wordpool_576.txt	LTP378	ltpFR2	18	12	SNAKE	1333	n/a	n/a	0	0	0
2952.80908203125	n/a	WORD	6047353	wordpools/wasnorm_wordpool_576.txt	LTP378	ltpFR2	18	12	COSTUME	383	n/a	n/a	0	0	0
2955.5498046875	n/a	WORD	6052966	wordpools/wasnorm_wordpool_576.txt	LTP378	ltpFR2	18	12	TRACTOR	1493	n/a	n/a	0	0	0
2958.0830078125	n/a	WORD	6058154	wordpools/wasnorm_wordpool_576.txt	LTP378	ltpFR2	18	12	BRANDY	169	n/a	n/a	0	0	0
2960.77978515625	n/a	WORD	6063677	wordpools/wasnorm_wordpool_576.txt	LTP378	ltpFR2	18	12	SCOTCH	1251	n/a	n/a	0	0	0
2963.26171875	n/a	WORD	6068760	wordpools/wasnorm_wordpool_576.txt	LTP378	ltpFR2	18	12	OUTLAW	989	n/a	n/a	0	0	0
2965.91064453125	n/a	WORD	6074185	wordpools/wasnorm_wordpool_576.txt	LTP378	ltpFR2	18	12	FLASHLIGHT	575	n/a	n/a	0	0	0
2968.57666015625	n/a	WORD	6079645	wordpools/wasnorm_wordpool_576.txt	LTP378	ltpFR2	18	12	FIDDLE	561	n/a	n/a	0	0	0
2971.04150390625	n/a	WORD	6084693	wordpools/wasnorm_wordpool_576.txt	LTP378	ltpFR2	18	12	BROOK	177	n/a	n/a	0	0	0
2973.80615234375	n/a	WORD	6090355	wordpools/wasnorm_wordpool_576.txt	LTP378	ltpFR2	18	12	BABY	64	n/a	n/a	0	0	0
2976.3974609375	n/a	WORD	6095662	wordpools/wasnorm_wordpool_576.txt	LTP378	ltpFR2	18	12	FRANCE	601	n/a	n/a	0	0	0
2978.89501953125	n/a	WORD	6100777	wordpools/wasnorm_wordpool_576.txt	LTP378	ltpFR2	18	12	ITEM	746	n/a	n/a	0	0	0
2981.31005859375	n/a	WORD	6105723	wordpools/wasnorm_wordpool_576.txt	LTP378	ltpFR2	18	12	SERVANT	1271	n/a	n/a	0	0	0
2983.81689453125	n/a	WORD	6110857	wordpools/wasnorm_wordpool_576.txt	LTP378	ltpFR2	18	12	BINDER	127	n/a	n/a	0	0	0
2986.33203125	n/a	WORD	6116008	wordpools/wasnorm_wordpool_576.txt	LTP378	ltpFR2	18	12	REPORT	1184	n/a	n/a	0	0	0
2988.80517578125	n/a	WORD	6121073	wordpools/wasnorm_wordpool_576.txt	LTP378	ltpFR2	18	12	YARN	1631	n/a	n/a	0	0	0
2991.62890625	n/a	WORD	6126856	wordpools/wasnorm_wordpool_576.txt	LTP378	ltpFR2	18	12	RACKET	1155	n/a	n/a	0	0	0
2994.2109375	n/a	WORD	6132144	wordpools/wasnorm_wordpool_576.txt	LTP378	ltpFR2	18	12	SCARECROW	1245	n/a	n/a	0	0	0
2996.9345703125	n/a	WORD	6137722	wordpools/wasnorm_wordpool_576.txt	LTP378	ltpFR2	18	12	INMATE	738	n/a	n/a	0	0	0
2998.53955078125	n/a	START	6141009	n/a	LTP378	ltpFR2	18	n/a	n/a	n/a	18	n/a	n/a	n/a	n/a
2999.49169921875	n/a	DISTRACTOR	6142959	n/a	LTP378	ltpFR2	18	12	n/a	n/a	n/a	n/a	0	0	0
2999.49951171875	n/a	PROB	6142975	n/a	LTP378	ltpFR2	18	n/a	n/a	n/a	18	10	1	1	8
3001.91455078125	n/a	PROB	6147921	n/a	LTP378	ltpFR2	18	n/a	n/a	n/a	18	11	2	8	1
3004.08837890625	n/a	PROB	6152373	n/a	LTP378	ltpFR2	18	n/a	n/a	n/a	18	10	2	2	6
3005.92529296875	n/a	PROB	6156135	n/a	LTP378	ltpFR2	18	n/a	n/a	n/a	18	19	3	9	7
3022.5380859375	n/a	STOP	6190158	n/a	LTP378	ltpFR2	18	n/a	n/a	n/a	18	n/a	n/a	n/a	n/a
3024.35009765625	n/a	REC_START	6193869	n/a	LTP378	ltpFR2	18	12	n/a	n/a	n/a	n/a	0	0	0
3038.45458984375	n/a	REC_WORD	6222755	wordpools/wasnorm_wordpool_576.txt	LTP378	ltpFR2	18	12	DOUGHNUT	490	n/a	n/a	0	0	0
3042.67626953125	n/a	REC_WORD_VV	6231401	wordpools/wasnorm_wordpool_576.txt	LTP378	ltpFR2	18	12	<>	-1	n/a	n/a	0	0	0
3093.48828125	n/a	REC_WORD	6335464	wordpools/wasnorm_wordpool_576.txt	LTP378	ltpFR2	18	12	TUBA	1515	n/a	n/a	0	0	0
3095.1279296875	n/a	REC_WORD	6338822	wordpools/wasnorm_wordpool_576.txt	LTP378	ltpFR2	18	12	UNCLE	1536	n/a	n/a	0	0	0
3162.09326171875	n/a	WORD	6475967	wordpools/wasnorm_wordpool_576.txt	LTP378	ltpFR2	18	13	TOURIST	1488	n/a	n/a	0	0	0
3164.6650390625	n/a	WORD	6481234	wordpools/wasnorm_wordpool_576.txt	LTP378	ltpFR2	18	13	ZIPPER	1636	n/a	n/a	0	0	0
3167.47314453125	n/a	WORD	6486985	wordpools/wasnorm_wordpool_576.txt	LTP378	ltpFR2	18	13	GRAPE	654	n/a	n/a	0	0	0
3170.07177734375	n/a	WORD	6492307	wordpools/wasnorm_wordpool_576.txt	LTP378	ltpFR2	18	13	LOVER	846	n/a	n/a	0	0	0
3172.48583984375	n/a	WORD	6497251	wordpools/wasnorm_wordpool_576.txt	LTP378	ltpFR2	18	13	MILDEW	893	n/a	n/a	0	0	0
3175.251953125	n/a	WORD	6502916	wordpools/wasnorm_wordpool_576.txt	LTP378	ltpFR2	18	13	FLUTE	585	n/a	n/a	0	0	0
3178.001953125	n/a	WORD	6508548	wordpools/wasnorm_wordpool_576.txt	LTP378	ltpFR2	18	13	PANTHER	1009	n/a	n/a	0	0	0
3180.6748046875	n/a	WORD	6514022	wordpools/wasnorm_wordpool_576.txt	LTP378	ltpFR2	18	13	MARROW	872	n/a	n/a	0	0	0
3183.482421875	n/a	WORD	6519772	wordpools/wasnorm_wordpool_576.txt	LTP378	ltpFR2	18	13	FRUIT	610	n/a	n/a	0	0	0
3185.98046875	n/a	WORD	6524888	wordpools/wasnorm_wordpool_576.txt	LTP378	ltpFR2	18	13	CLOUD	328	n/a	n/a	0	0	0
3188.54541015625	n/a	WORD	6530141	wordpools/wasnorm_wordpool_576.txt	LTP378	ltpFR2	18	13	LIGHTNING	820	n/a	n/a	0	0	0
3191.328125	n/a	WORD	6535840	wordpools/wasnorm_wordpool_576.txt	LTP378	ltpFR2	18	13	DRESSER	496	n/a	n/a	0	0	0
3193.96044921875	n/a	WORD	6541231	wordpools/wasnorm_wordpool_576.txt	LTP378	ltpFR2	18	13	GROUND	666	n/a	n/a	0	0	0
3196.7421875	n/a	WORD	6546928	wordpools/wasnorm_wordpool_576.txt	LTP378	ltpFR2	18	13	PROTON	1132	n/a	n/a	0	0	0
3199.44091796875	n/a	WORD	6552455	wordpools/wasnorm_wordpool_576.txt	LTP378	ltpFR2	18	13	MOTOR	922	n/a	n/a	0	0	0
3202.01611328125	n/a	WORD	6557729	wordpools/wasnorm_wordpool_576.txt	LTP378	ltpFR2	18	13	TABLET	1427	n/a	n/a	0	0	0
3204.69677734375	n/a	WORD	6563219	wordpools/wasnorm_wordpool_576.txt	LTP378	ltpFR2	18	13	BRANCH	168	n/a	n/a	0	0	0
3207.15380859375	n/a	WORD	6568251	wordpools/wasnorm_wordpool_576.txt	LTP378	ltpFR2	18	13	TERMITE	1451	n/a	n/a	0	0	0
3209.70166015625	n/a	WORD	6573469	wordpools/wasnorm_wordpool_576.txt	LTP378	ltpFR2	18	13	FRIEND	606	n/a	n/a	0	0	0
3212.17578125	n/a	WORD	6578536	wordpools/wasnorm_wordpool_576.txt	LTP378	ltpFR2	18	13	JUDGE	761	n/a	n/a	0	0	0
3214.9658203125	n/a	WORD	6584250	wordpools/wasnorm_wordpool_576.txt	LTP378	ltpFR2	18	13	WITNESS	1618	n/a	n/a	0	0	0
3217.47265625	n/a	WORD	6589384	wordpools/wasnorm_wordpool_576.txt	LTP378	ltpFR2	18	13	TWISTER	1530	n/a	n/a	0	0	0
3220.28076171875	n/a	WORD	6595135	wordpools/wasnorm_wordpool_576.txt	LTP378	ltpFR2	18	13	POPCORN	1104	n/a	n/a	0	0	0
3222.6865234375	n/a	WORD	6600062	wordpools/wasnorm_wordpool_576.txt	LTP378	ltpFR2	18	13	FOREST	593	n/a	n/a	0	0	0
3224.29150390625	n/a	START	6603349	n/a	LTP378	ltpFR2	18	n/a	n/a	n/a	19	n/a	n/a	n/a	n/a
3225.1494140625	n/a	DISTRACTOR	6605106	n/a	LTP378	ltpFR2	18	13	n/a	n/a	n/a	n/a	0	0	0
3225.1513671875	n/a	PROB	6605110	n/a	LTP378	ltpFR2	18	n/a	n/a	n/a	19	7	3	2	2
3227.9091796875	n/a	PROB	6610758	n/a	LTP378	ltpFR2	18	n/a	n/a	n/a	19	15	7	1	7
3230.68310546875	n/a	PROB	6616439	n/a	LTP378	ltpFR2	18	n/a	n/a	n/a	19	20	6	7	6
3233.89111328125	n/a	PROB	6623009	n/a	LTP378	ltpFR2	18	n/a	n/a	n/a	19	15	7	7	1
3236.791015625	n/a	PROB	6628948	n/a	LTP378	ltpFR2	18	n/a	n/a	n/a	19	12	1	5	6
3239.6318359375	n/a	PROB	6634766	n/a	LTP378	ltpFR2	18	n/a	n/a	n/a	19	12	3	4	5
3242.171875	n/a	PROB	6639968	n/a	LTP378	ltpFR2	18	n/a	n/a	n/a	19	16	8	2	6
3248.28955078125	n/a	STOP	6652497	n/a	LTP378	ltpFR2	18	n/a	n/a	n/a	19	n/a	n/a	n/a	n/a
3250.1689453125	n/a	REC_START	6656346	n/a	LTP378	ltpFR2	18	13	n/a	n/a	n/a	n/a	0	0	0
3286.12890625	n/a	REC_WORD	6729992	wordpools/wasnorm_wordpool_576.txt	LTP378	ltpFR2	18	13	LIGHTNING	820	n/a	n/a	0	0	0
3291.0986328125	n/a	REC_WORD	6740170	wordpools/wasnorm_wordpool_576.txt	LTP378	ltpFR2	18	13	GROUND	666	n/a	n/a	0	0	0
3292.0927734375	n/a	REC_WORD	6742206	wordpools/wasnorm_wordpool_576.txt	LTP378	ltpFR2	18	13	TERMITE	1451	n/a	n/a	0	0	0
3295.80029296875	n/a	REC_WORD	6749799	wordpools/wasnorm_wordpool_576.txt	LTP378	ltpFR2	18	13	WITNESS	1618	n/a	n/a	0	0	0
3296.54736328125	n/a	REC_WORD	6751329	wordpools/wasnorm_wordpool_576.txt	LTP378	ltpFR2	18	13	JUDGE	761	n/a	n/a	0	0	0
3300.96435546875	n/a	REC_WORD	6760375	wordpools/wasnorm_wordpool_576.txt	LTP378	ltpFR2	18	13	PROTON	1132	n/a	n/a	0	0	0
3305.93310546875	n/a	REC_WORD	6770551	wordpools/wasnorm_wordpool_576.txt	LTP378	ltpFR2	18	13	DRESSER	496	n/a	n/a	0	0	0
3377.13134765625	n/a	WORD	6916365	wordpools/wasnorm_wordpool_576.txt	LTP378	ltpFR2	18	14	YACHT	1629	n/a	n/a	0	0	0
3379.8642578125	n/a	WORD	6921962	wordpools/wasnorm_wordpool_576.txt	LTP378	ltpFR2	18	14	APRON	35	n/a	n/a	0	0	0
3382.404296875	n/a	WORD	6927164	wordpools/wasnorm_wordpool_576.txt	LTP378	ltpFR2	18	14	KITCHEN	778	n/a	n/a	0	0	0
3385.1201171875	n/a	WORD	6932726	wordpools/wasnorm_wordpool_576.txt	LTP378	ltpFR2	18	14	CLOCK	325	n/a	n/a	0	0	0
3387.60986328125	n/a	WORD	6937825	wordpools/wasnorm_wordpool_576.txt	LTP378	ltpFR2	18	14	GUARD	667	n/a	n/a	0	0	0
3390.07568359375	n/a	WORD	6942875	wordpools/wasnorm_wordpool_576.txt	LTP378	ltpFR2	18	14	HELMET	702	n/a	n/a	0	0	0
3392.78173828125	n/a	WORD	6948417	wordpools/wasnorm_wordpool_576.txt	LTP378	ltpFR2	18	14	SIBLING	1301	n/a	n/a	0	0	0
3395.41357421875	n/a	WORD	6953807	wordpools/wasnorm_wordpool_576.txt	LTP378	ltpFR2	18	14	BOUQUET	157	n/a	n/a	0	0	0
3398.146484375	n/a	WORD	6959404	wordpools/wasnorm_wordpool_576.txt	LTP378	ltpFR2	18	14	NOTEBOOK	959	n/a	n/a	0	0	0
3400.91162109375	n/a	WORD	6965067	wordpools/wasnorm_wordpool_576.txt	LTP378	ltpFR2	18	14	PLUTO	1092	n/a	n/a	0	0	0
3403.4853515625	n/a	WORD	6970338	wordpools/wasnorm_wordpool_576.txt	LTP378	ltpFR2	18	14	BUNNY	198	n/a	n/a	0	0	0
3406.08544921875	n/a	WORD	6975663	wordpools/wasnorm_wordpool_576.txt	LTP378	ltpFR2	18	14	FIREPLACE	570	n/a	n/a	0	0	0
3408.69140625	n/a	WORD	6981000	wordpools/wasnorm_wordpool_576.txt	LTP378	ltpFR2	18	14	SALT	1229	n/a	n/a	0	0	0
3411.10546875	n/a	WORD	6985944	wordpools/wasnorm_wordpool_576.txt	LTP378	ltpFR2	18	14	HOUND	724	n/a	n/a	0	0	0
3413.54541015625	n/a	WORD	6990941	wordpools/wasnorm_wordpool_576.txt	LTP378	ltpFR2	18	14	PASSAGE	1019	n/a	n/a	0	0	0
3415.9599609375	n/a	WORD	6995886	wordpools/wasnorm_wordpool_576.txt	LTP378	ltpFR2	18	14	THIEF	1456	n/a	n/a	0	0	0
3418.6259765625	n/a	WORD	7001346	wordpools/wasnorm_wordpool_576.txt	LTP378	ltpFR2	18	14	PILOT	1070	n/a	n/a	0	0	0
3421.2412109375	n/a	WORD	7006702	wordpools/wasnorm_wordpool_576.txt	LTP378	ltpFR2	18	14	EMPIRE	530	n/a	n/a	0	0	0
3423.755859375	n/a	WORD	7011852	wordpools/wasnorm_wordpool_576.txt	LTP378	ltpFR2	18	14	SUSPECT	1415	n/a	n/a	0	0	0
3426.220703125	n/a	WORD	7016900	wordpools/wasnorm_wordpool_576.txt	LTP378	ltpFR2	18	14	PEPPER	1047	n/a	n/a	0	0	0
3428.6435546875	n/a	WORD	7021862	wordpools/wasnorm_wordpool_576.txt	LTP378	ltpFR2	18	14	SLUG	1329	n/a	n/a	0	0	0
3431.36767578125	n/a	WORD	7027441	wordpools/wasnorm_wordpool_576.txt	LTP378	ltpFR2	18	14	ROCKET	1202	n/a	n/a	0	0	0
3433.83251953125	n/a	WORD	7032489	wordpools/wasnorm_wordpool_576.txt	LTP378	ltpFR2	18	14	COMET	353	n/a	n/a	0	0	0
3436.53173828125	n/a	WORD	7038017	wordpools/wasnorm_wordpool_576.txt	LTP378	ltpFR2	18	14	ROBOT	1200	n/a	n/a	0	0	0
3438.1376953125	n/a	START	7041306	n/a	LTP378	ltpFR2	18	n/a	n/a	n/a	20	n/a	n/a	n/a	n/a
3438.96826171875	n/a	DISTRACTOR	7043007	n/a	LTP378	ltpFR2	18	14	n/a	n/a	n/a	n/a	0	0	0
3438.9716796875	n/a	PROB	7043014	n/a	LTP378	ltpFR2	18	n/a	n/a	n/a	20	8	1	2	5
3442.9326171875	n/a	PROB	7051126	n/a	LTP378	ltpFR2	18	n/a	n/a	n/a	20	21	8	5	8
3445.865234375	n/a	PROB	7057132	n/a	LTP378	ltpFR2	18	n/a	n/a	n/a	20	14	5	2	7
3447.72802734375	n/a	PROB	7060947	n/a	LTP378	ltpFR2	18	n/a	n/a	n/a	20	13	5	7	1
3449.42431640625	n/a	PROB	7064421	n/a	LTP378	ltpFR2	18	n/a	n/a	n/a	20	13	3	9	1
3451.7890625	n/a	PROB	7069264	n/a	LTP378	ltpFR2	18	n/a	n/a	n/a	20	9	5	2	2
3453.41796875	n/a	PROB	7072600	n/a	LTP378	ltpFR2	18	n/a	n/a	n/a	20	8	6	1	1
3458.34814453125	n/a	PROB	7082697	n/a	LTP378	ltpFR2	18	n/a	n/a	n/a	20	18	9	6	3
3462.13671875	n/a	STOP	7090456	n/a	LTP378	ltpFR2	18	n/a	n/a	n/a	20	n/a	n/a	n/a	n/a
3463.9716796875	n/a	REC_START	7094214	n/a	LTP378	ltpFR2	18	14	n/a	n/a	n/a	n/a	0	0	0
3538.9697265625	n/a	REC_WORD_VV	7247810	wordpools/wasnorm_wordpool_576.txt	LTP378	ltpFR2	18	14	<>	-1	n/a	n/a	0	0	0
3623.74755859375	n/a	WORD	7421435	wordpools/wasnorm_wordpool_576.txt	LTP378	ltpFR2	18	15	CIGAR	308	n/a	n/a	0	0	0
3626.29638671875	n/a	WORD	7426655	wordpools/wasnorm_wordpool_576.txt	LTP378	ltpFR2	18	15	PREACHER	1119	n/a	n/a	0	0	0
3628.93603515625	n/a	WORD	7432061	wordpools/wasnorm_wordpool_576.txt	LTP378	ltpFR2	18	15	LASER	801	n/a	n/a	0	0	0
3631.3759765625	n/a	WORD	7437058	wordpools/wasnorm_wordpool_576.txt	LTP378	ltpFR2	18	15	PERCH	1048	n/a	n/a	0	0	0
3634.02587890625	n/a	WORD	7442485	wordpools/wasnorm_wordpool_576.txt	LTP378	ltpFR2	18	15	EAGLE	512	n/a	n/a	0	0	0
3636.64892578125	n/a	WORD	7447857	wordpools/wasnorm_wordpool_576.txt	LTP378	ltpFR2	18	15	IDOL	733	n/a	n/a	0	0	0
3639.14697265625	n/a	WORD	7452973	wordpools/wasnorm_wordpool_576.txt	LTP378	ltpFR2	18	15	CAMEL	223	n/a	n/a	0	0	0
3641.82080078125	n/a	WORD	7458449	wordpools/wasnorm_wordpool_576.txt	LTP378	ltpFR2	18	15	STONE	1385	n/a	n/a	0	0	0
3644.41064453125	n/a	WORD	7463753	wordpools/wasnorm_wordpool_576.txt	LTP378	ltpFR2	18	15	LEG	809	n/a	n/a	0	0	0
3647.0859375	n/a	WORD	7469232	wordpools/wasnorm_wordpool_576.txt	LTP378	ltpFR2	18	15	HATCHET	691	n/a	n/a	0	0	0
3649.87548828125	n/a	WORD	7474945	wordpools/wasnorm_wordpool_576.txt	LTP378	ltpFR2	18	15	PENGUIN	1044	n/a	n/a	0	0	0
3652.6826171875	n/a	WORD	7480694	wordpools/wasnorm_wordpool_576.txt	LTP378	ltpFR2	18	15	FREEZER	604	n/a	n/a	0	0	0
3655.09765625	n/a	WORD	7485640	wordpools/wasnorm_wordpool_576.txt	LTP378	ltpFR2	18	15	SCARF	1246	n/a	n/a	0	0	0
3657.72119140625	n/a	WORD	7491013	wordpools/wasnorm_wordpool_576.txt	LTP378	ltpFR2	18	15	VALLEY	1545	n/a	n/a	0	0	0
3660.47021484375	n/a	WORD	7496643	wordpools/wasnorm_wordpool_576.txt	LTP378	ltpFR2	18	15	POSSUM	1112	n/a	n/a	0	0	0
3663.1611328125	n/a	WORD	7502154	wordpools/wasnorm_wordpool_576.txt	LTP378	ltpFR2	18	15	LION	827	n/a	n/a	0	0	0
3665.92626953125	n/a	WORD	7507817	wordpools/wasnorm_wordpool_576.txt	LTP378	ltpFR2	18	15	PARROT	1015	n/a	n/a	0	0	0
3668.6591796875	n/a	WORD	7513414	wordpools/wasnorm_wordpool_576.txt	LTP378	ltpFR2	18	15	RATTLE	1170	n/a	n/a	0	0	0
3671.10693359375	n/a	WORD	7518427	wordpools/wasnorm_wordpool_576.txt	LTP378	ltpFR2	18	15	MATCH	878	n/a	n/a	0	0	0
3673.68896484375	n/a	WORD	7523715	wordpools/wasnorm_wordpool_576.txt	LTP378	ltpFR2	18	15	ACTOR	5	n/a	n/a	0	0	0
3676.2626953125	n/a	WORD	7528986	wordpools/wasnorm_wordpool_576.txt	LTP378	ltpFR2	18	15	SNAIL	1332	n/a	n/a	0	0	0
3678.91064453125	n/a	WORD	7534409	wordpools/wasnorm_wordpool_576.txt	LTP378	ltpFR2	18	15	TROMBONE	1508	n/a	n/a	0	0	0
3681.6015625	n/a	WORD	7539920	wordpools/wasnorm_wordpool_576.txt	LTP378	ltpFR2	18	15	ACTRESS	6	n/a	n/a	0	0	0
3684.07568359375	n/a	WORD	7544987	wordpools/wasnorm_wordpool_576.txt	LTP378	ltpFR2	18	15	RUG	1215	n/a	n/a	0	0	0
3685.6796875	n/a	START	7548272	n/a	LTP378	ltpFR2	18	n/a	n/a	n/a	21	n/a	n/a	n/a	n/a
3686.591796875	n/a	DISTRACTOR	7550140	n/a	LTP378	ltpFR2	18	15	n/a	n/a	n/a	n/a	0	0	0
3686.61572265625	n/a	PROB	7550189	n/a	LTP378	ltpFR2	18	n/a	n/a	n/a	21	15	6	3	6
3691.6455078125	n/a	PROB	7560490	n/a	LTP378	ltpFR2	18	n/a	n/a	n/a	21	20	7	9	4
3695.76416015625	n/a	PROB	7568925	n/a	LTP378	ltpFR2	18	n/a	n/a	n/a	21	11	5	1	5
3697.67822265625	n/a	PROB	7572845	n/a	LTP378	ltpFR2	18	n/a	n/a	n/a	21	17	3	8	6
3700.16845703125	n/a	PROB	7577945	n/a	LTP378	ltpFR2	18	n/a	n/a	n/a	21	12	3	7	2
3702.09033203125	n/a	PROB	7581881	n/a	LTP378	ltpFR2	18	n/a	n/a	n/a	21	13	3	1	9
3709.67919921875	n/a	STOP	7597423	n/a	LTP378	ltpFR2	18	n/a	n/a	n/a	21	n/a	n/a	n/a	n/a
3711.58203125	n/a	REC_START	7601320	n/a	LTP378	ltpFR2	18	15	n/a	n/a	n/a	n/a	0	0	0
3712.40869140625	n/a	REC_WORD	7603013	wordpools/wasnorm_wordpool_576.txt	LTP378	ltpFR2	18	15	HATCHET	691	n/a	n/a	0	0	0
3713.259765625	n/a	REC_WORD	7604756	wordpools/wasnorm_wordpool_576.txt	LTP378	ltpFR2	18	15	RUG	1215	n/a	n/a	0	0	0
3714.8388671875	n/a	REC_WORD	7607990	wordpools/wasnorm_wordpool_576.txt	LTP378	ltpFR2	18	15	SNAIL	1332	n/a	n/a	0	0	0
3715.64990234375	n/a	REC_WORD	7609651	wordpools/wasnorm_wordpool_576.txt	LTP378	ltpFR2	18	15	ACTOR	5	n/a	n/a	0	0	0
3716.10595703125	n/a	REC_WORD	7610585	wordpools/wasnorm_wordpool_576.txt	LTP378	ltpFR2	18	15	ACTRESS	6	n/a	n/a	0	0	0
3720.57666015625	n/a	REC_WORD	7619741	wordpools/wasnorm_wordpool_576.txt	LTP378	ltpFR2	18	15	PARROT	1015	n/a	n/a	0	0	0
3724.23046875	n/a	REC_WORD	7627224	wordpools/wasnorm_wordpool_576.txt	LTP378	ltpFR2	18	15	LEG	809	n/a	n/a	0	0	0
3726.92431640625	n/a	REC_WORD	7632741	wordpools/wasnorm_wordpool_576.txt	LTP378	ltpFR2	18	15	SQUIRREL	1362	n/a	n/a	0	0	0
3727.92431640625	n/a	REC_WORD_VV	7634789	wordpools/wasnorm_wordpool_576.txt	LTP378	ltpFR2	18	15	<>	-1	n/a	n/a	0	0	0
3734.89453125	n/a	REC_WORD	7649064	wordpools/wasnorm_wordpool_576.txt	LTP378	ltpFR2	18	15	SCARF	1246	n/a	n/a	0	0	0
3740.5693359375	n/a	REC_WORD	7660686	wordpools/wasnorm_wordpool_576.txt	LTP378	ltpFR2	18	15	LION	827	n/a	n/a	0	0	0
3760.69580078125	n/a	REC_WORD	7701905	wordpools/wasnorm_wordpool_576.txt	LTP378	ltpFR2	18	15	LASER	801	n/a	n/a	0	0	0
3827.298828125	n/a	DISTRACTOR	7838308	n/a	LTP378	ltpFR2	18	16	n/a	n/a	n/a	n/a	0	0	0
3827.298828125	n/a	START	7838308	n/a	LTP378	ltpFR2	18	n/a	n/a	n/a	22	n/a	n/a	n/a	n/a
3827.31591796875	n/a	PROB	7838343	n/a	LTP378	ltpFR2	18	n/a	n/a	n/a	22	13	8	1	4
3833.056640625	n/a	PROB	7850100	n/a	LTP378	ltpFR2	18	n/a	n/a	n/a	22	7	1	5	1
3846.09814453125	n/a	PROB	7876809	n/a	LTP378	ltpFR2	18	n/a	n/a	n/a	22	16	1	8	7
3849.07421875	n/a	PROB	7882904	n/a	LTP378	ltpFR2	18	n/a	n/a	n/a	22	11	5	1	5
3850.2978515625	n/a	STOP	7885410	n/a	LTP378	ltpFR2	18	n/a	n/a	n/a	22	n/a	n/a	n/a	n/a
3852.39013671875	n/a	WORD	7889695	wordpools/wasnorm_wordpool_576.txt	LTP378	ltpFR2	18	16	SKETCH	1315	n/a	n/a	0	0	0
3854.86376953125	n/a	WORD	7894761	wordpools/wasnorm_wordpool_576.txt	LTP378	ltpFR2	18	16	MONEY	908	n/a	n/a	0	0	0
3857.587890625	n/a	WORD	7900340	wordpools/wasnorm_wordpool_576.txt	LTP378	ltpFR2	18	16	HIKER	708	n/a	n/a	0	0	0
3860.31201171875	n/a	WORD	7905919	wordpools/wasnorm_wordpool_576.txt	LTP378	ltpFR2	18	16	BADGE	68	n/a	n/a	0	0	0
3863.07763671875	n/a	WORD	7911583	wordpools/wasnorm_wordpool_576.txt	LTP378	ltpFR2	18	16	PLASTER	1085	n/a	n/a	0	0	0
3865.82666015625	n/a	WORD	7917213	wordpools/wasnorm_wordpool_576.txt	LTP378	ltpFR2	18	16	BANJO	82	n/a	n/a	0	0	0
3868.37451171875	n/a	WORD	7922431	wordpools/wasnorm_wordpool_576.txt	LTP378	ltpFR2	18	16	WHISTLE	1606	n/a	n/a	0	0	0
3870.82275390625	n/a	WORD	7927445	wordpools/wasnorm_wordpool_576.txt	LTP378	ltpFR2	18	16	LONDON	843	n/a	n/a	0	0	0
3873.3466796875	n/a	WORD	7932614	wordpools/wasnorm_wordpool_576.txt	LTP378	ltpFR2	18	16	PORK	1108	n/a	n/a	0	0	0
3876.021484375	n/a	WORD	7938092	wordpools/wasnorm_wordpool_576.txt	LTP378	ltpFR2	18	16	ATLAS	53	n/a	n/a	0	0	0
3878.6103515625	n/a	WORD	7943394	wordpools/wasnorm_wordpool_576.txt	LTP378	ltpFR2	18	16	SUITCASE	1403	n/a	n/a	0	0	0
3881.05126953125	n/a	WORD	7948393	wordpools/wasnorm_wordpool_576.txt	LTP378	ltpFR2	18	16	DRIVER	499	n/a	n/a	0	0	0
3883.6650390625	n/a	WORD	7953746	wordpools/wasnorm_wordpool_576.txt	LTP378	ltpFR2	18	16	LAMP	798	n/a	n/a	0	0	0
3886.1142578125	n/a	WORD	7958762	wordpools/wasnorm_wordpool_576.txt	LTP378	ltpFR2	18	16	FOOT	590	n/a	n/a	0	0	0
3888.669921875	n/a	WORD	7963996	wordpools/wasnorm_wordpool_576.txt	LTP378	ltpFR2	18	16	INFANT	737	n/a	n/a	0	0	0
3891.09375	n/a	WORD	7968960	wordpools/wasnorm_wordpool_576.txt	LTP378	ltpFR2	18	16	WARDROBE	1587	n/a	n/a	0	0	0
3893.625	n/a	WORD	7974144	wordpools/wasnorm_wordpool_576.txt	LTP378	ltpFR2	18	16	BARLEY	88	n/a	n/a	0	0	0
3896.36572265625	n/a	WORD	7979757	wordpools/wasnorm_wordpool_576.txt	LTP378	ltpFR2	18	16	WORKER	1621	n/a	n/a	0	0	0
3899.10693359375	n/a	WORD	7985371	wordpools/wasnorm_wordpool_576.txt	LTP378	ltpFR2	18	16	OFFICE	972	n/a	n/a	0	0	0
3901.8056640625	n/a	WORD	7990898	wordpools/wasnorm_wordpool_576.txt	LTP378	ltpFR2	18	16	JELLO	754	n/a	n/a	0	0	0
3904.58740234375	n/a	WORD	7996595	wordpools/wasnorm_wordpool_576.txt	LTP378	ltpFR2	18	16	PUDDING	1139	n/a	n/a	0	0	0
3907.33642578125	n/a	WORD	8002225	wordpools/wasnorm_wordpool_576.txt	LTP378	ltpFR2	18	16	BANKER	84	n/a	n/a	0	0	0
3909.943359375	n/a	WORD	8007564	wordpools/wasnorm_wordpool_576.txt	LTP378	ltpFR2	18	16	GRIZZLY	662	n/a	n/a	0	0	0
3912.484375	n/a	WORD	8012768	wordpools/wasnorm_wordpool_576.txt	LTP378	ltpFR2	18	16	CLAMP	316	n/a	n/a	0	0	0
3914.08837890625	n/a	START	8016053	n/a	LTP378	ltpFR2	18	n/a	n/a	n/a	23	n/a	n/a	n/a	n/a
3914.97216796875	n/a	DISTRACTOR	8017863	n/a	LTP378	ltpFR2	18	16	n/a	n/a	n/a	n/a	0	0	0
3914.9833984375	n/a	PROB	8017886	n/a	LTP378	ltpFR2	18	n/a	n/a	n/a	23	18	8	2	8
3918.13232421875	n/a	PROB	8024335	n/a	LTP378	ltpFR2	18	n/a	n/a	n/a	23	13	6	4	3
3919.6279296875	n/a	PROB	8027398	n/a	LTP378	ltpFR2	18	n/a	n/a	n/a	23	11	4	3	4
3921.97705078125	n/a	PROB	8032209	n/a	LTP378	ltpFR2	18	n/a	n/a	n/a	23	17	7	4	6
3926.85595703125	n/a	PROB	8042201	n/a	LTP378	ltpFR2	18	n/a	n/a	n/a	23	8	1	1	6
3928.35107421875	n/a	PROB	8045263	n/a	LTP378	ltpFR2	18	n/a	n/a	n/a	23	13	7	2	4
3931.11669921875	n/a	PROB	8050927	n/a	LTP378	ltpFR2	18	n/a	n/a	n/a	23	4	1	2	1
3934.6767578125	n/a	PROB	8058218	n/a	LTP378	ltpFR2	18	n/a	n/a	n/a	23	15	8	3	4
3936.61865234375	n/a	STOP	8062195	n/a	LTP378	ltpFR2	18	n/a	n/a	n/a	23	n/a	n/a	n/a	n/a
3939.9326171875	n/a	REC_START	8068982	n/a	LTP378	ltpFR2	18	16	n/a	n/a	n/a	n/a	0	0	0
3940.79443359375	n/a	REC_WORD	8070747	wordpools/wasnorm_wordpool_576.txt	LTP378	ltpFR2	18	16	WINDOW	1611	n/a	n/a	0	0	0
3941.26953125	n/a	REC_WORD	8071720	wordpools/wasnorm_wordpool_576.txt	LTP378	ltpFR2	18	16	PLASTIC	-1	n/a	n/a	0	0	0
3941.92041015625	n/a	REC_WORD	8073053	wordpools/wasnorm_wordpool_576.txt	LTP378	ltpFR2	18	16	FOOT	590	n/a	n/a	0	0	0
3943.29931640625	n/a	REC_WORD	8075877	wordpools/wasnorm_wordpool_576.txt	LTP378	ltpFR2	18	16	PENGUIN	1044	n/a	n/a	0	0	0
3944.42724609375	n/a	REC_WORD_VV	8078187	wordpools/wasnorm_wordpool_576.txt	LTP378	ltpFR2	18	16	<>	-1	n/a	n/a	0	0	0
3949.1455078125	n/a	REC_WORD	8087850	wordpools/wasnorm_wordpool_576.txt	LTP378	ltpFR2	18	16	WARDROBE	1587	n/a	n/a	0	0	0
3956.37109375	n/a	REC_WORD	8102648	wordpools/wasnorm_wordpool_576.txt	LTP378	ltpFR2	18	16	INFANT	737	n/a	n/a	0	0	0
3967.3349609375	n/a	REC_WORD	8125102	wordpools/wasnorm_wordpool_576.txt	LTP378	ltpFR2	18	16	HIKER	708	n/a	n/a	0	0	0
4016.46142578125	n/a	REST_REWET	8225713	n/a	LTP378	ltpFR2	18	16	n/a	n/a	n/a	n/a	0	0	0
4093.54150390625	n/a	DISTRACTOR	8383573	n/a	LTP378	ltpFR2	18	17	n/a	n/a	n/a	n/a	0	0	0
4093.54248046875	n/a	START	8383575	n/a	LTP378	ltpFR2	18	n/a	n/a	n/a	24	n/a	n/a	n/a	n/a
4093.55810546875	n/a	PROB	8383607	n/a	LTP378	ltpFR2	18	n/a	n/a	n/a	24	11	4	6	1
4095.5224609375	n/a	PROB	8387630	n/a	LTP378	ltpFR2	18	n/a	n/a	n/a	24	16	5	4	7
4098.22119140625	n/a	PROB	8393157	n/a	LTP378	ltpFR2	18	n/a	n/a	n/a	24	14	6	1	7
4100.59423828125	n/a	PROB	8398017	n/a	LTP378	ltpFR2	18	n/a	n/a	n/a	24	26	8	9	9
4105.8408203125	n/a	PROB	8408762	n/a	LTP378	ltpFR2	18	n/a	n/a	n/a	24	21	9	5	7
4109.49267578125	n/a	PROB	8416241	n/a	LTP378	ltpFR2	18	n/a	n/a	n/a	24	12	8	2	2
4111.47265625	n/a	PROB	8420296	n/a	LTP378	ltpFR2	18	n/a	n/a	n/a	24	14	3	8	3
4113.61962890625	n/a	PROB	8424693	n/a	LTP378	ltpFR2	18	n/a	n/a	n/a	24	17	7	2	8
4116.73876953125	n/a	STOP	8431081	n/a	LTP378	ltpFR2	18	n/a	n/a	n/a	24	n/a	n/a	n/a	n/a
4118.474609375	n/a	WORD	8434636	wordpools/wasnorm_wordpool_576.txt	LTP378	ltpFR2	18	17	PAIL	1002	n/a	n/a	0	0	0
4120.974609375	n/a	WORD	8439756	wordpools/wasnorm_wordpool_576.txt	LTP378	ltpFR2	18	17	WINDOW	1611	n/a	n/a	0	0	0
4123.6962890625	n/a	WORD	8445330	wordpools/wasnorm_wordpool_576.txt	LTP378	ltpFR2	18	17	THRONE	1461	n/a	n/a	0	0	0
4126.37939453125	n/a	WORD	8450825	wordpools/wasnorm_wordpool_576.txt	LTP378	ltpFR2	18	17	GREASE	660	n/a	n/a	0	0	0
4128.90234375	n/a	WORD	8455992	wordpools/wasnorm_wordpool_576.txt	LTP378	ltpFR2	18	17	IGLOO	734	n/a	n/a	0	0	0
4131.67626953125	n/a	WORD	8461673	wordpools/wasnorm_wordpool_576.txt	LTP378	ltpFR2	18	17	VENUS	1557	n/a	n/a	0	0	0
4134.125	n/a	WORD	8466688	wordpools/wasnorm_wordpool_576.txt	LTP378	ltpFR2	18	17	SWAMP	1416	n/a	n/a	0	0	0
4136.63134765625	n/a	WORD	8471821	wordpools/wasnorm_wordpool_576.txt	LTP378	ltpFR2	18	17	SPONGE	1355	n/a	n/a	0	0	0
4139.18798828125	n/a	WORD	8477057	wordpools/wasnorm_wordpool_576.txt	LTP378	ltpFR2	18	17	COLONEL	348	n/a	n/a	0	0	0
4141.6279296875	n/a	WORD	8482054	wordpools/wasnorm_wordpool_576.txt	LTP378	ltpFR2	18	17	COOK	372	n/a	n/a	0	0	0
4144.126953125	n/a	WORD	8487172	wordpools/wasnorm_wordpool_576.txt	LTP378	ltpFR2	18	17	LABEL	790	n/a	n/a	0	0	0
4146.90869140625	n/a	WORD	8492869	wordpools/wasnorm_wordpool_576.txt	LTP378	ltpFR2	18	17	KLEENEX	782	n/a	n/a	0	0	0
4149.56591796875	n/a	WORD	8498311	wordpools/wasnorm_wordpool_576.txt	LTP378	ltpFR2	18	17	PLIERS	1089	n/a	n/a	0	0	0
4152.33984375	n/a	WORD	8503992	wordpools/wasnorm_wordpool_576.txt	LTP378	ltpFR2	18	17	SPHINX	1349	n/a	n/a	0	0	0
4155.0146484375	n/a	WORD	8509470	wordpools/wasnorm_wordpool_576.txt	LTP378	ltpFR2	18	17	TUTU	1524	n/a	n/a	0	0	0
4157.70458984375	n/a	WORD	8514979	wordpools/wasnorm_wordpool_576.txt	LTP378	ltpFR2	18	17	WRENCH	1625	n/a	n/a	0	0	0
4160.26171875	n/a	WORD	8520216	wordpools/wasnorm_wordpool_576.txt	LTP378	ltpFR2	18	17	GRAVEL	659	n/a	n/a	0	0	0
4163.0283203125	n/a	WORD	8525882	wordpools/wasnorm_wordpool_576.txt	LTP378	ltpFR2	18	17	APPLE	33	n/a	n/a	0	0	0
4165.62548828125	n/a	WORD	8531201	wordpools/wasnorm_wordpool_576.txt	LTP378	ltpFR2	18	17	CITRUS	313	n/a	n/a	0	0	0
4168.31640625	n/a	WORD	8536712	wordpools/wasnorm_wordpool_576.txt	LTP378	ltpFR2	18	17	CLOTHES	327	n/a	n/a	0	0	0
4170.96435546875	n/a	WORD	8542135	wordpools/wasnorm_wordpool_576.txt	LTP378	ltpFR2	18	17	LAPEL	800	n/a	n/a	0	0	0
4173.43017578125	n/a	WORD	8547185	wordpools/wasnorm_wordpool_576.txt	LTP378	ltpFR2	18	17	PADDING	999	n/a	n/a	0	0	0
4176.02099609375	n/a	WORD	8552491	wordpools/wasnorm_wordpool_576.txt	LTP378	ltpFR2	18	17	PATIENT	1024	n/a	n/a	0	0	0
4178.76904296875	n/a	WORD	8558119	wordpools/wasnorm_wordpool_576.txt	LTP378	ltpFR2	18	17	BASEMENT	94	n/a	n/a	0	0	0
4180.373046875	n/a	START	8561404	n/a	LTP378	ltpFR2	18	n/a	n/a	n/a	25	n/a	n/a	n/a	n/a
4181.18408203125	n/a	DISTRACTOR	8563065	n/a	LTP378	ltpFR2	18	17	n/a	n/a	n/a	n/a	0	0	0
4181.19189453125	n/a	PROB	8563081	n/a	LTP378	ltpFR2	18	n/a	n/a	n/a	25	15	6	4	5
4183.90771484375	n/a	PROB	8568643	n/a	LTP378	ltpFR2	18	n/a	n/a	n/a	25	12	2	2	8
4185.82080078125	n/a	PROB	8572561	n/a	LTP378	ltpFR2	18	n/a	n/a	n/a	25	14	6	2	6
4200.2841796875	n/a	PROB	8602182	n/a	LTP378	ltpFR2	18	n/a	n/a	n/a	25	17	2	7	8
4204.37109375	n/a	STOP	8610552	n/a	LTP378	ltpFR2	18	n/a	n/a	n/a	25	n/a	n/a	n/a	n/a
4206.1923828125	n/a	REC_START	8614282	n/a	LTP378	ltpFR2	18	17	n/a	n/a	n/a	n/a	0	0	0
4208.578125	n/a	REC_WORD	8619168	wordpools/wasnorm_wordpool_576.txt	LTP378	ltpFR2	18	17	LAPEL	800	n/a	n/a	0	0	0
4209.9091796875	n/a	REC_WORD	8621894	wordpools/wasnorm_wordpool_576.txt	LTP378	ltpFR2	18	17	PAIL	1002	n/a	n/a	0	0	0
4210.5009765625	n/a	REC_WORD	8623106	wordpools/wasnorm_wordpool_576.txt	LTP378	ltpFR2	18	17	GREASE	660	n/a	n/a	0	0	0
4211.2861328125	n/a	REC_WORD	8624714	wordpools/wasnorm_wordpool_576.txt	LTP378	ltpFR2	18	17	IGLOO	734	n/a	n/a	0	0	0
4211.81494140625	n/a	REC_WORD	8625797	wordpools/wasnorm_wordpool_576.txt	LTP378	ltpFR2	18	17	VENUS	1557	n/a	n/a	0	0	0
4216.98388671875	n/a	REC_WORD	8636383	wordpools/wasnorm_wordpool_576.txt	LTP378	ltpFR2	18	17	KLEENEX	782	n/a	n/a	0	0	0
4296.6328125	n/a	WORD	8799504	wordpools/wasnorm_wordpool_576.txt	LTP378	ltpFR2	18	18	MILK	895	n/a	n/a	0	0	0
4299.306640625	n/a	WORD	8804980	wordpools/wasnorm_wordpool_576.txt	LTP378	ltpFR2	18	18	ROD	1203	n/a	n/a	0	0	0
4302.04833984375	n/a	WORD	8810595	wordpools/wasnorm_wordpool_576.txt	LTP378	ltpFR2	18	18	CATCHER	258	n/a	n/a	0	0	0
4304.5546875	n/a	WORD	8815728	wordpools/wasnorm_wordpool_576.txt	LTP378	ltpFR2	18	18	ROBBER	1197	n/a	n/a	0	0	0
4307.04541015625	n/a	WORD	8820829	wordpools/wasnorm_wordpool_576.txt	LTP378	ltpFR2	18	18	KEEPER	769	n/a	n/a	0	0	0
4309.5595703125	n/a	WORD	8825978	wordpools/wasnorm_wordpool_576.txt	LTP378	ltpFR2	18	18	NAPKIN	937	n/a	n/a	0	0	0
4312.05029296875	n/a	WORD	8831079	wordpools/wasnorm_wordpool_576.txt	LTP378	ltpFR2	18	18	TART	1436	n/a	n/a	0	0	0
4314.5810546875	n/a	WORD	8836262	wordpools/wasnorm_wordpool_576.txt	LTP378	ltpFR2	18	18	RAZOR	1171	n/a	n/a	0	0	0
4317.12890625	n/a	WORD	8841480	wordpools/wasnorm_wordpool_576.txt	LTP378	ltpFR2	18	18	SWORD	1423	n/a	n/a	0	0	0
4319.77783203125	n/a	WORD	8846905	wordpools/wasnorm_wordpool_576.txt	LTP378	ltpFR2	18	18	RIVER	1194	n/a	n/a	0	0	0
4322.4599609375	n/a	WORD	8852398	wordpools/wasnorm_wordpool_576.txt	LTP378	ltpFR2	18	18	RADISH	1158	n/a	n/a	0	0	0
4325.1337890625	n/a	WORD	8857874	wordpools/wasnorm_wordpool_576.txt	LTP378	ltpFR2	18	18	CONCERT	360	n/a	n/a	0	0	0
4327.8828125	n/a	WORD	8863504	wordpools/wasnorm_wordpool_576.txt	LTP378	ltpFR2	18	18	BALLOON	75	n/a	n/a	0	0	0
4330.548828125	n/a	WORD	8868964	wordpools/wasnorm_wordpool_576.txt	LTP378	ltpFR2	18	18	GALLON	618	n/a	n/a	0	0	0
4333.0966796875	n/a	WORD	8874182	wordpools/wasnorm_wordpool_576.txt	LTP378	ltpFR2	18	18	CRITIC	410	n/a	n/a	0	0	0
4335.7705078125	n/a	WORD	8879658	wordpools/wasnorm_wordpool_576.txt	LTP378	ltpFR2	18	18	CREATURE	403	n/a	n/a	0	0	0
4338.2607421875	n/a	WORD	8884758	wordpools/wasnorm_wordpool_576.txt	LTP378	ltpFR2	18	18	WOMAN	1620	n/a	n/a	0	0	0
4340.88427734375	n/a	WORD	8890131	wordpools/wasnorm_wordpool_576.txt	LTP378	ltpFR2	18	18	LIZARD	834	n/a	n/a	0	0	0
4343.44921875	n/a	WORD	8895384	wordpools/wasnorm_wordpool_576.txt	LTP378	ltpFR2	18	18	GLOVE	642	n/a	n/a	0	0	0
4345.939453125	n/a	WORD	8900484	wordpools/wasnorm_wordpool_576.txt	LTP378	ltpFR2	18	18	SODA	1341	n/a	n/a	0	0	0
4348.529296875	n/a	WORD	8905788	wordpools/wasnorm_wordpool_576.txt	LTP378	ltpFR2	18	18	GLOBE	641	n/a	n/a	0	0	0
4350.953125	n/a	WORD	8910752	wordpools/wasnorm_wordpool_576.txt	LTP378	ltpFR2	18	18	WORLD	1622	n/a	n/a	0	0	0
4353.41796875	n/a	WORD	8915800	wordpools/wasnorm_wordpool_576.txt	LTP378	ltpFR2	18	18	SWITCH	1422	n/a	n/a	0	0	0
4356.09130859375	n/a	WORD	8921275	wordpools/wasnorm_wordpool_576.txt	LTP378	ltpFR2	18	18	VAGRANT	1544	n/a	n/a	0	0	0
4357.69580078125	n/a	START	8924561	n/a	LTP378	ltpFR2	18	n/a	n/a	n/a	26	n/a	n/a	n/a	n/a
4358.69580078125	n/a	DISTRACTOR	8926609	n/a	LTP378	ltpFR2	18	18	n/a	n/a	n/a	n/a	0	0	0
4358.69775390625	n/a	PROB	8926613	n/a	LTP378	ltpFR2	18	n/a	n/a	n/a	26	20	6	8	6
4364.72265625	n/a	PROB	8938952	n/a	LTP378	ltpFR2	18	n/a	n/a	n/a	26	25	8	8	9
4374.6826171875	n/a	PROB	8959350	n/a	LTP378	ltpFR2	18	n/a	n/a	n/a	26	14	1	8	5
4376.470703125	n/a	PROB	8963012	n/a	LTP378	ltpFR2	18	n/a	n/a	n/a	26	16	2	8	6
4378.66845703125	n/a	PROB	8967513	n/a	LTP378	ltpFR2	18	n/a	n/a	n/a	26	12	1	3	8
4381.404296875	n/a	STOP	8973116	n/a	LTP378	ltpFR2	18	n/a	n/a	n/a	26	n/a	n/a	n/a	n/a
4383.59033203125	n/a	REC_START	8977593	n/a	LTP378	ltpFR2	18	18	n/a	n/a	n/a	n/a	0	0	0
4385.17822265625	n/a	REC_WORD	8980845	wordpools/wasnorm_wordpool_576.txt	LTP378	ltpFR2	18	18	VAGRANT	1544	n/a	n/a	0	0	0
4423.93017578125	n/a	REC_WORD	9060209	wordpools/wasnorm_wordpool_576.txt	LTP378	ltpFR2	18	18	MILK	895	n/a	n/a	0	0	0
4495.81396484375	n/a	DISTRACTOR	9207427	n/a	LTP378	ltpFR2	18	19	n/a	n/a	n/a	n/a	0	0	0
4495.81396484375	n/a	START	9207427	n/a	LTP378	ltpFR2	18	n/a	n/a	n/a	27	n/a	n/a	n/a	n/a
4495.830078125	n/a	PROB	9207460	n/a	LTP378	ltpFR2	18	n/a	n/a	n/a	27	12	2	1	9
4502.22314453125	n/a	PROB	9220553	n/a	LTP378	ltpFR2	18	n/a	n/a	n/a	27	15	6	5	4
4505.7568359375	n/a	PROB	9227790	n/a	LTP378	ltpFR2	18	n/a	n/a	n/a	27	16	5	6	5
4507.64501953125	n/a	PROB	9231657	n/a	LTP378	ltpFR2	18	n/a	n/a	n/a	27	14	1	7	6
4509.32470703125	n/a	PROB	9235097	n/a	LTP378	ltpFR2	18	n/a	n/a	n/a	27	17	7	9	1
4511.27197265625	n/a	PROB	9239085	n/a	LTP378	ltpFR2	18	n/a	n/a	n/a	27	14	8	2	4
4513.5947265625	n/a	PROB	9243842	n/a	LTP378	ltpFR2	18	n/a	n/a	n/a	27	15	7	5	3
4515.6748046875	n/a	PROB	9248102	n/a	LTP378	ltpFR2	18	n/a	n/a	n/a	27	16	2	5	9
4517.8056640625	n/a	PROB	9252466	n/a	LTP378	ltpFR2	18	n/a	n/a	n/a	27	14	7	1	6
4519.3564453125	n/a	STOP	9255642	n/a	LTP378	ltpFR2	18	n/a	n/a	n/a	27	n/a	n/a	n/a	n/a
4520.8642578125	n/a	WORD	9258730	wordpools/wasnorm_wordpool_576.txt	LTP378	ltpFR2	18	19	BUTCHER	203	n/a	n/a	0	0	0
4523.46240234375	n/a	WORD	9264051	wordpools/wasnorm_wordpool_576.txt	LTP378	ltpFR2	18	19	ICEBERG	731	n/a	n/a	0	0	0
4526.14453125	n/a	WORD	9269544	wordpools/wasnorm_wordpool_576.txt	LTP378	ltpFR2	18	19	BULLET	194	n/a	n/a	0	0	0
4528.8603515625	n/a	WORD	9275106	wordpools/wasnorm_wordpool_576.txt	LTP378	ltpFR2	18	19	SUMMIT	1405	n/a	n/a	0	0	0
4531.525390625	n/a	WORD	9280564	wordpools/wasnorm_wordpool_576.txt	LTP378	ltpFR2	18	19	POWDER	1117	n/a	n/a	0	0	0
4534.05810546875	n/a	WORD	9285751	wordpools/wasnorm_wordpool_576.txt	LTP378	ltpFR2	18	19	WASHER	1592	n/a	n/a	0	0	0
4536.73095703125	n/a	WORD	9291225	wordpools/wasnorm_wordpool_576.txt	LTP378	ltpFR2	18	19	SPARROW	1347	n/a	n/a	0	0	0
4539.4638671875	n/a	WORD	9296822	wordpools/wasnorm_wordpool_576.txt	LTP378	ltpFR2	18	19	FOREHEAD	592	n/a	n/a	0	0	0
4542.1787109375	n/a	WORD	9302382	wordpools/wasnorm_wordpool_576.txt	LTP378	ltpFR2	18	19	BREAST	171	n/a	n/a	0	0	0
4544.59375	n/a	WORD	9307328	wordpools/wasnorm_wordpool_576.txt	LTP378	ltpFR2	18	19	LIPSTICK	829	n/a	n/a	0	0	0
4547.07568359375	n/a	WORD	9312411	wordpools/wasnorm_wordpool_576.txt	LTP378	ltpFR2	18	19	EGYPT	519	n/a	n/a	0	0	0
4549.673828125	n/a	WORD	9317732	wordpools/wasnorm_wordpool_576.txt	LTP378	ltpFR2	18	19	OUTFIT	988	n/a	n/a	0	0	0
4552.36474609375	n/a	WORD	9323243	wordpools/wasnorm_wordpool_576.txt	LTP378	ltpFR2	18	19	MARKER	870	n/a	n/a	0	0	0
4555.12158203125	n/a	WORD	9328889	wordpools/wasnorm_wordpool_576.txt	LTP378	ltpFR2	18	19	TORTOISE	1486	n/a	n/a	0	0	0
4557.67041015625	n/a	WORD	9334109	wordpools/wasnorm_wordpool_576.txt	LTP378	ltpFR2	18	19	ANTLER	29	n/a	n/a	0	0	0
4560.1103515625	n/a	WORD	9339106	wordpools/wasnorm_wordpool_576.txt	LTP378	ltpFR2	18	19	CROSS	413	n/a	n/a	0	0	0
4562.66748046875	n/a	WORD	9344343	wordpools/wasnorm_wordpool_576.txt	LTP378	ltpFR2	18	19	COFFEE	341	n/a	n/a	0	0	0
4565.44921875	n/a	WORD	9350040	wordpools/wasnorm_wordpool_576.txt	LTP378	ltpFR2	18	19	STAMP	1370	n/a	n/a	0	0	0
4567.93115234375	n/a	WORD	9355123	wordpools/wasnorm_wordpool_576.txt	LTP378	ltpFR2	18	19	AIRPORT	13	n/a	n/a	0	0	0
4570.60498046875	n/a	WORD	9360599	wordpools/wasnorm_wordpool_576.txt	LTP378	ltpFR2	18	19	COUCH	386	n/a	n/a	0	0	0
4573.3369140625	n/a	WORD	9366194	wordpools/wasnorm_wordpool_576.txt	LTP378	ltpFR2	18	19	TABLE	1426	n/a	n/a	0	0	0
4576.0458984375	n/a	WORD	9371742	wordpools/wasnorm_wordpool_576.txt	LTP378	ltpFR2	18	19	SHELF	1280	n/a	n/a	0	0	0
4578.5927734375	n/a	WORD	9376958	wordpools/wasnorm_wordpool_576.txt	LTP378	ltpFR2	18	19	JOURNAL	760	n/a	n/a	0	0	0
4581.2666015625	n/a	WORD	9382434	wordpools/wasnorm_wordpool_576.txt	LTP378	ltpFR2	18	19	CELLAR	267	n/a	n/a	0	0	0
4582.87060546875	n/a	START	9385719	n/a	LTP378	ltpFR2	18	n/a	n/a	n/a	28	n/a	n/a	n/a	n/a
4583.759765625	n/a	DISTRACTOR	9387540	n/a	LTP378	ltpFR2	18	19	n/a	n/a	n/a	n/a	0	0	0
4583.7646484375	n/a	PROB	9387550	n/a	LTP378	ltpFR2	18	n/a	n/a	n/a	28	14	1	6	7
4587.92578125	n/a	PROB	9396072	n/a	LTP378	ltpFR2	18	n/a	n/a	n/a	28	13	1	3	9
4595.17041015625	n/a	PROB	9410909	n/a	LTP378	ltpFR2	18	n/a	n/a	n/a	28	14	7	4	3
4596.66650390625	n/a	PROB	9413973	n/a	LTP378	ltpFR2	18	n/a	n/a	n/a	28	15	5	4	6
4598.79638671875	n/a	PROB	9418335	n/a	LTP378	ltpFR2	18	n/a	n/a	n/a	28	17	2	6	9
4602.197265625	n/a	PROB	9425300	n/a	LTP378	ltpFR2	18	n/a	n/a	n/a	28	16	5	9	2
4604.6962890625	n/a	PROB	9430418	n/a	LTP378	ltpFR2	18	n/a	n/a	n/a	28	14	8	1	4
4606.39697265625	n/a	STOP	9433901	n/a	LTP378	ltpFR2	18	n/a	n/a	n/a	28	n/a	n/a	n/a	n/a
4608.740234375	n/a	REC_START	9438700	n/a	LTP378	ltpFR2	18	19	n/a	n/a	n/a	n/a	0	0	0
4609.7939453125	n/a	REC_WORD	9440858	wordpools/wasnorm_wordpool_576.txt	LTP378	ltpFR2	18	19	EGYPT	519	n/a	n/a	0	0	0
4610.77490234375	n/a	REC_WORD	9442867	wordpools/wasnorm_wordpool_576.txt	LTP378	ltpFR2	18	19	OUTFIT	988	n/a	n/a	0	0	0
4613.32177734375	n/a	REC_WORD	9448083	wordpools/wasnorm_wordpool_576.txt	LTP378	ltpFR2	18	19	MARKER	870	n/a	n/a	0	0	0
4615.64208984375	n/a	REC_WORD	9452835	wordpools/wasnorm_wordpool_576.txt	LTP378	ltpFR2	18	19	ANTLER	29	n/a	n/a	0	0	0
4617.11767578125	n/a	REC_WORD	9455857	wordpools/wasnorm_wordpool_576.txt	LTP378	ltpFR2	18	19	COUCH	386	n/a	n/a	0	0	0
4617.8818359375	n/a	REC_WORD	9457422	wordpools/wasnorm_wordpool_576.txt	LTP378	ltpFR2	18	19	AIRPORT	13	n/a	n/a	0	0	0
4785.41015625	n/a	DISTRACTOR	9800520	n/a	LTP378	ltpFR2	18	20	n/a	n/a	n/a	n/a	0	0	0
4785.41015625	n/a	START	9800520	n/a	LTP378	ltpFR2	18	n/a	n/a	n/a	29	n/a	n/a	n/a	n/a
4785.42724609375	n/a	PROB	9800555	n/a	LTP378	ltpFR2	18	n/a	n/a	n/a	29	20	5	7	8
4788.23388671875	n/a	PROB	9806303	n/a	LTP378	ltpFR2	18	n/a	n/a	n/a	29	19	7	4	8
4789.9140625	n/a	PROB	9809744	n/a	LTP378	ltpFR2	18	n/a	n/a	n/a	29	11	3	6	2
4791.64404296875	n/a	PROB	9813287	n/a	LTP378	ltpFR2	18	n/a	n/a	n/a	29	14	6	2	6
4793.84912109375	n/a	PROB	9817803	n/a	LTP378	ltpFR2	18	n/a	n/a	n/a	29	20	2	9	9
4796.263671875	n/a	PROB	9822748	n/a	LTP378	ltpFR2	18	n/a	n/a	n/a	29	21	8	5	8
4798.63671875	n/a	PROB	9827608	n/a	LTP378	ltpFR2	18	n/a	n/a	n/a	29	18	6	7	5
4801.11083984375	n/a	PROB	9832675	n/a	LTP378	ltpFR2	18	n/a	n/a	n/a	29	13	5	4	4
4803.466796875	n/a	PROB	9837500	n/a	LTP378	ltpFR2	18	n/a	n/a	n/a	29	14	6	5	3
4805.146484375	n/a	PROB	9840940	n/a	LTP378	ltpFR2	18	n/a	n/a	n/a	29	17	3	6	8
4809.40966796875	n/a	STOP	9849671	n/a	LTP378	ltpFR2	18	n/a	n/a	n/a	29	n/a	n/a	n/a	n/a
4810.4853515625	n/a	WORD	9851874	wordpools/wasnorm_wordpool_576.txt	LTP378	ltpFR2	18	20	CROWN	415	n/a	n/a	0	0	0
4813.2841796875	n/a	WORD	9857606	wordpools/wasnorm_wordpool_576.txt	LTP378	ltpFR2	18	20	CATTLE	261	n/a	n/a	0	0	0
4815.84912109375	n/a	WORD	9862859	wordpools/wasnorm_wordpool_576.txt	LTP378	ltpFR2	18	20	HOOK	715	n/a	n/a	0	0	0
4818.5322265625	n/a	WORD	9868354	wordpools/wasnorm_wordpool_576.txt	LTP378	ltpFR2	18	20	SHARK	1275	n/a	n/a	0	0	0
4821.06298828125	n/a	WORD	9873537	wordpools/wasnorm_wordpool_576.txt	LTP378	ltpFR2	18	20	CANAL	226	n/a	n/a	0	0	0
4823.6201171875	n/a	WORD	9878774	wordpools/wasnorm_wordpool_576.txt	LTP378	ltpFR2	18	20	VIKING	1565	n/a	n/a	0	0	0
4826.0849609375	n/a	WORD	9883822	wordpools/wasnorm_wordpool_576.txt	LTP378	ltpFR2	18	20	MUSTARD	935	n/a	n/a	0	0	0
4828.6591796875	n/a	WORD	9889094	wordpools/wasnorm_wordpool_576.txt	LTP378	ltpFR2	18	20	BRIEFCASE	175	n/a	n/a	0	0	0
4831.08203125	n/a	WORD	9894056	wordpools/wasnorm_wordpool_576.txt	LTP378	ltpFR2	18	20	DINER	467	n/a	n/a	0	0	0
4833.630859375	n/a	WORD	9899276	wordpools/wasnorm_wordpool_576.txt	LTP378	ltpFR2	18	20	RABBIT	1152	n/a	n/a	0	0	0
4836.4208984375	n/a	WORD	9904990	wordpools/wasnorm_wordpool_576.txt	LTP378	ltpFR2	18	20	BANQUET	86	n/a	n/a	0	0	0
4839.15380859375	n/a	WORD	9910587	wordpools/wasnorm_wordpool_576.txt	LTP378	ltpFR2	18	20	SEAGULL	1261	n/a	n/a	0	0	0
4841.935546875	n/a	WORD	9916284	wordpools/wasnorm_wordpool_576.txt	LTP378	ltpFR2	18	20	PAPER	1011	n/a	n/a	0	0	0
4844.46728515625	n/a	WORD	9921469	wordpools/wasnorm_wordpool_576.txt	LTP378	ltpFR2	18	20	DRAGON	492	n/a	n/a	0	0	0
4846.9755859375	n/a	WORD	9926606	wordpools/wasnorm_wordpool_576.txt	LTP378	ltpFR2	18	20	PEACH	1031	n/a	n/a	0	0	0
4849.53955078125	n/a	WORD	9931857	wordpools/wasnorm_wordpool_576.txt	LTP378	ltpFR2	18	20	HORNET	718	n/a	n/a	0	0	0
4851.96337890625	n/a	WORD	9936821	wordpools/wasnorm_wordpool_576.txt	LTP378	ltpFR2	18	20	OUTDOORS	987	n/a	n/a	0	0	0
4854.4521484375	n/a	WORD	9941918	wordpools/wasnorm_wordpool_576.txt	LTP378	ltpFR2	18	20	PRINCE	1124	n/a	n/a	0	0	0
4857.16015625	n/a	WORD	9947464	wordpools/wasnorm_wordpool_576.txt	LTP378	ltpFR2	18	20	HAWK	692	n/a	n/a	0	0	0
4859.8251953125	n/a	WORD	9952922	wordpools/wasnorm_wordpool_576.txt	LTP378	ltpFR2	18	20	PUPIL	1143	n/a	n/a	0	0	0
4862.423828125	n/a	WORD	9958244	wordpools/wasnorm_wordpool_576.txt	LTP378	ltpFR2	18	20	FLESH	579	n/a	n/a	0	0	0
4864.98193359375	n/a	WORD	9963483	wordpools/wasnorm_wordpool_576.txt	LTP378	ltpFR2	18	20	HEART	697	n/a	n/a	0	0	0
4867.712890625	n/a	WORD	9969076	wordpools/wasnorm_wordpool_576.txt	LTP378	ltpFR2	18	20	MUFFIN	929	n/a	n/a	0	0	0
4870.19482421875	n/a	WORD	9974159	wordpools/wasnorm_wordpool_576.txt	LTP378	ltpFR2	18	20	TURTLE	1522	n/a	n/a	0	0	0
4871.798828125	n/a	START	9977444	n/a	LTP378	ltpFR2	18	n/a	n/a	n/a	30	n/a	n/a	n/a	n/a
4872.86572265625	n/a	DISTRACTOR	9979629	n/a	LTP378	ltpFR2	18	20	n/a	n/a	n/a	n/a	0	0	0
4872.86865234375	n/a	PROB	9979635	n/a	LTP378	ltpFR2	18	n/a	n/a	n/a	30	21	9	6	6
4881.2734375	n/a	PROB	9996848	n/a	LTP378	ltpFR2	18	n/a	n/a	n/a	30	9	5	1	3
4882.65234375	n/a	PROB	9999672	n/a	LTP378	ltpFR2	18	n/a	n/a	n/a	30	11	7	3	1
4884.45751953125	n/a	PROB	10003369	n/a	LTP378	ltpFR2	18	n/a	n/a	n/a	30	17	3	7	7
4886.34521484375	n/a	PROB	10007235	n/a	LTP378	ltpFR2	18	n/a	n/a	n/a	30	7	2	2	3
4888.9794921875	n/a	PROB	10012630	n/a	LTP378	ltpFR2	18	n/a	n/a	n/a	30	12	5	1	6
4890.6572265625	n/a	PROB	10016066	n/a	LTP378	ltpFR2	18	n/a	n/a	n/a	30	19	7	7	5
4895.79833984375	n/a	STOP	10026595	n/a	LTP378	ltpFR2	18	n/a	n/a	n/a	30	n/a	n/a	n/a	n/a
4897.67626953125	n/a	REC_START	10030441	n/a	LTP378	ltpFR2	18	20	n/a	n/a	n/a	n/a	0	0	0
4898.5361328125	n/a	REC_WORD	10032202	wordpools/wasnorm_wordpool_576.txt	LTP378	ltpFR2	18	20	HOOK	715	n/a	n/a	0	0	0
4899.06689453125	n/a	REC_WORD	10033289	wordpools/wasnorm_wordpool_576.txt	LTP378	ltpFR2	18	20	HAWK	692	n/a	n/a	0	0	0
4899.8017578125	n/a	REC_WORD	10034794	wordpools/wasnorm_wordpool_576.txt	LTP378	ltpFR2	18	20	CATTLE	261	n/a	n/a	0	0	0
4905.6640625	n/a	REC_WORD	10046800	wordpools/wasnorm_wordpool_576.txt	LTP378	ltpFR2	18	20	DINER	467	n/a	n/a	0	0	0
4907.0419921875	n/a	REC_WORD	10049622	wordpools/wasnorm_wordpool_576.txt	LTP378	ltpFR2	18	20	VIKING	1565	n/a	n/a	0	0	0
4912.1298828125	n/a	REC_WORD	10060042	wordpools/wasnorm_wordpool_576.txt	LTP378	ltpFR2	18	20	BRIEFCASE	175	n/a	n/a	0	0	0
4930.615234375	n/a	REC_WORD	10097900	wordpools/wasnorm_wordpool_576.txt	LTP378	ltpFR2	18	20	HEDGE	699	n/a	n/a	0	0	0
5006.048828125	n/a	DISTRACTOR	10252388	n/a	LTP378	ltpFR2	18	21	n/a	n/a	n/a	n/a	0	0	0
5006.048828125	n/a	START	10252388	n/a	LTP378	ltpFR2	18	n/a	n/a	n/a	31	n/a	n/a	n/a	n/a
5006.06494140625	n/a	PROB	10252421	n/a	LTP378	ltpFR2	18	n/a	n/a	n/a	31	20	9	2	9
5009.01513671875	n/a	PROB	10258463	n/a	LTP378	ltpFR2	18	n/a	n/a	n/a	31	18	8	1	9
5011.18701171875	n/a	PROB	10262911	n/a	LTP378	ltpFR2	18	n/a	n/a	n/a	31	9	4	4	1
5013.509765625	n/a	PROB	10267668	n/a	LTP378	ltpFR2	18	n/a	n/a	n/a	31	24	5	9	9
5020.11083984375	n/a	PROB	10281187	n/a	LTP378	ltpFR2	18	n/a	n/a	n/a	31	13	8	4	1
5022.44140625	n/a	PROB	10285960	n/a	LTP378	ltpFR2	18	n/a	n/a	n/a	31	8	1	6	1
5024.2216796875	n/a	PROB	10289606	n/a	LTP378	ltpFR2	18	n/a	n/a	n/a	31	10	2	2	6
5025.9345703125	n/a	PROB	10293114	n/a	LTP378	ltpFR2	18	n/a	n/a	n/a	31	15	3	3	9
5029.5185546875	n/a	STOP	10300454	n/a	LTP378	ltpFR2	18	n/a	n/a	n/a	31	n/a	n/a	n/a	n/a
5030.95751953125	n/a	WORD	10303401	wordpools/wasnorm_wordpool_576.txt	LTP378	ltpFR2	18	21	NECKLACE	940	n/a	n/a	0	0	0
5033.49609375	n/a	WORD	10308600	wordpools/wasnorm_wordpool_576.txt	LTP378	ltpFR2	18	21	MEDAL	885	n/a	n/a	0	0	0
5036.02001953125	n/a	WORD	10313769	wordpools/wasnorm_wordpool_576.txt	LTP378	ltpFR2	18	21	PASTRY	1022	n/a	n/a	0	0	0
5038.5009765625	n/a	WORD	10318850	wordpools/wasnorm_wordpool_576.txt	LTP378	ltpFR2	18	21	CASKET	255	n/a	n/a	0	0	0
5041.2919921875	n/a	WORD	10324566	wordpools/wasnorm_wordpool_576.txt	LTP378	ltpFR2	18	21	BLOCKADE	137	n/a	n/a	0	0	0
5044.02490234375	n/a	WORD	10330163	wordpools/wasnorm_wordpool_576.txt	LTP378	ltpFR2	18	21	TWEEZERS	1526	n/a	n/a	0	0	0
5046.51416015625	n/a	WORD	10335261	wordpools/wasnorm_wordpool_576.txt	LTP378	ltpFR2	18	21	COCKTAIL	338	n/a	n/a	0	0	0
5049.0048828125	n/a	WORD	10340362	wordpools/wasnorm_wordpool_576.txt	LTP378	ltpFR2	18	21	DRINK	498	n/a	n/a	0	0	0
5051.669921875	n/a	WORD	10345820	wordpools/wasnorm_wordpool_576.txt	LTP378	ltpFR2	18	21	EXPERT	543	n/a	n/a	0	0	0
5054.267578125	n/a	WORD	10351140	wordpools/wasnorm_wordpool_576.txt	LTP378	ltpFR2	18	21	AIRPLANE	12	n/a	n/a	0	0	0
5056.74951171875	n/a	WORD	10356223	wordpools/wasnorm_wordpool_576.txt	LTP378	ltpFR2	18	21	FLAG	573	n/a	n/a	0	0	0
5059.189453125	n/a	WORD	10361220	wordpools/wasnorm_wordpool_576.txt	LTP378	ltpFR2	18	21	CYCLONE	431	n/a	n/a	0	0	0
5061.66259765625	n/a	WORD	10366285	wordpools/wasnorm_wordpool_576.txt	LTP378	ltpFR2	18	21	NEUTRON	947	n/a	n/a	0	0	0
5064.41162109375	n/a	WORD	10371915	wordpools/wasnorm_wordpool_576.txt	LTP378	ltpFR2	18	21	KNIFE	785	n/a	n/a	0	0	0
5067.04443359375	n/a	WORD	10377307	wordpools/wasnorm_wordpool_576.txt	LTP378	ltpFR2	18	21	DRUG	501	n/a	n/a	0	0	0
5069.84326171875	n/a	WORD	10383039	wordpools/wasnorm_wordpool_576.txt	LTP378	ltpFR2	18	21	CABBAGE	210	n/a	n/a	0	0	0
5072.4833984375	n/a	WORD	10388446	wordpools/wasnorm_wordpool_576.txt	LTP378	ltpFR2	18	21	WHISKERS	1605	n/a	n/a	0	0	0
5075.18212890625	n/a	WORD	10393973	wordpools/wasnorm_wordpool_576.txt	LTP378	ltpFR2	18	21	BRAKE	166	n/a	n/a	0	0	0
5077.97412109375	n/a	WORD	10399691	wordpools/wasnorm_wordpool_576.txt	LTP378	ltpFR2	18	21	FIREMAN	569	n/a	n/a	0	0	0
5080.7470703125	n/a	WORD	10405370	wordpools/wasnorm_wordpool_576.txt	LTP378	ltpFR2	18	21	ONION	977	n/a	n/a	0	0	0
5083.43798828125	n/a	WORD	10410881	wordpools/wasnorm_wordpool_576.txt	LTP378	ltpFR2	18	21	BUG	187	n/a	n/a	0	0	0
5086.01171875	n/a	WORD	10416152	wordpools/wasnorm_wordpool_576.txt	LTP378	ltpFR2	18	21	POSTAGE	1113	n/a	n/a	0	0	0
5088.65185546875	n/a	WORD	10421559	wordpools/wasnorm_wordpool_576.txt	LTP378	ltpFR2	18	21	STICKER	1382	n/a	n/a	0	0	0
5091.224609375	n/a	WORD	10426828	wordpools/wasnorm_wordpool_576.txt	LTP378	ltpFR2	18	21	BEAKER	104	n/a	n/a	0	0	0
5092.82958984375	n/a	START	10430115	n/a	LTP378	ltpFR2	18	n/a	n/a	n/a	32	n/a	n/a	n/a	n/a
5093.923828125	n/a	DISTRACTOR	10432356	n/a	LTP378	ltpFR2	18	21	n/a	n/a	n/a	n/a	0	0	0
5093.931640625	n/a	PROB	10432372	n/a	LTP378	ltpFR2	18	n/a	n/a	n/a	32	13	8	1	4
5098.82861328125	n/a	PROB	10442401	n/a	LTP378	ltpFR2	18	n/a	n/a	n/a	32	14	9	2	3
5100.54931640625	n/a	PROB	10445925	n/a	LTP378	ltpFR2	18	n/a	n/a	n/a	32	6	2	3	1
5105.51318359375	n/a	PROB	10456091	n/a	LTP378	ltpFR2	18	n/a	n/a	n/a	32	15	6	2	7
5108.2783203125	n/a	PROB	10461754	n/a	LTP378	ltpFR2	18	n/a	n/a	n/a	32	12	8	3	1
5109.72412109375	n/a	PROB	10464715	n/a	LTP378	ltpFR2	18	n/a	n/a	n/a	32	20	4	8	8
5111.9208984375	n/a	PROB	10469214	n/a	LTP378	ltpFR2	18	n/a	n/a	n/a	32	15	1	5	9
5116.828125	n/a	STOP	10479264	n/a	LTP378	ltpFR2	18	n/a	n/a	n/a	32	n/a	n/a	n/a	n/a
5118.58984375	n/a	REC_START	10482872	n/a	LTP378	ltpFR2	18	21	n/a	n/a	n/a	n/a	0	0	0
5119.63671875	n/a	REC_WORD	10485016	wordpools/wasnorm_wordpool_576.txt	LTP378	ltpFR2	18	21	BUG	187	n/a	n/a	0	0	0
5192.81201171875	n/a	REC_WORD	10634879	wordpools/wasnorm_wordpool_576.txt	LTP378	ltpFR2	18	21	CATTLE	261	n/a	n/a	0	0	0
5228.2568359375	n/a	WORD	10707470	wordpools/wasnorm_wordpool_576.txt	LTP378	ltpFR2	18	22	MESSAGE	888	n/a	n/a	0	0	0
5231.02294921875	n/a	WORD	10713135	wordpools/wasnorm_wordpool_576.txt	LTP378	ltpFR2	18	22	CRIB	407	n/a	n/a	0	0	0
5233.65478515625	n/a	WORD	10718525	wordpools/wasnorm_wordpool_576.txt	LTP378	ltpFR2	18	22	ROBIN	1199	n/a	n/a	0	0	0
5236.4287109375	n/a	WORD	10724206	wordpools/wasnorm_wordpool_576.txt	LTP378	ltpFR2	18	22	TURKEY	1520	n/a	n/a	0	0	0
5239.185546875	n/a	WORD	10729852	wordpools/wasnorm_wordpool_576.txt	LTP378	ltpFR2	18	22	TROUT	1511	n/a	n/a	0	0	0
5241.892578125	n/a	WORD	10735396	wordpools/wasnorm_wordpool_576.txt	LTP378	ltpFR2	18	22	BODY	145	n/a	n/a	0	0	0
5244.3076171875	n/a	WORD	10740342	wordpools/wasnorm_wordpool_576.txt	LTP378	ltpFR2	18	22	AWARD	63	n/a	n/a	0	0	0
5246.8642578125	n/a	WORD	10745578	wordpools/wasnorm_wordpool_576.txt	LTP378	ltpFR2	18	22	SOFTBALL	1343	n/a	n/a	0	0	0
5249.29638671875	n/a	WORD	10750559	wordpools/wasnorm_wordpool_576.txt	LTP378	ltpFR2	18	22	ARM	38	n/a	n/a	0	0	0
