mstime	trial_type	stim_file	subject	experiment	session	trial	task	item_name	item_num	recog_resp	recog_conf	resp	color_r	color_g	color_b	case	font
0	SESS_START	n/a	LTP220	ltpFR	1	n/a	n/a	n/a	n/a	1	n/a	n/a	n/a	n/a	n/a	n/a	n/a
235420	WORD	wordpools/wasnorm_wordpool_less_exclusions.txt	LTP220	ltpFR	1	1	0	SEAFOOD	1260	n/a	n/a	n/a	0.57763671875	0.412841796875	1	lower	amplitud.ttf
238465	SLOW_MSG	n/a	LTP220	ltpFR	1	1	n/a	n/a	n/a	n/a	n/a	n/a	n/a	n/a	n/a	n/a	n/a
240891	WORD	wordpools/wasnorm_wordpool_less_exclusions.txt	LTP220	ltpFR	1	1	0	SQUID	1361	n/a	n/a	3	0.57763671875	0.412841796875	1	lower	amplitud.ttf
243625	KEY_MSG	n/a	LTP220	ltpFR	1	1	n/a	n/a	n/a	n/a	n/a	n/a	n/a	n/a	n/a	n/a	n/a
246001	WORD	wordpools/wasnorm_wordpool_less_exclusions.txt	LTP220	ltpFR	1	1	1	SPICE	1350	n/a	n/a	n/a	0.422607421875	0.5869140625	0	upper	zerothre.ttf
249046	SLOW_MSG	n/a	LTP220	ltpFR	1	1	n/a	n/a	n/a	n/a	n/a	n/a	n/a	n/a	n/a	n/a	n/a
251639	WORD	wordpools/wasnorm_wordpool_less_exclusions.txt	LTP220	ltpFR	1	1	1	MEADOW	881	n/a	n/a	3	0.422607421875	0.5869140625	0	upper	zerothre.ttf
252960	KEY_MSG	n/a	LTP220	ltpFR	1	1	n/a	n/a	n/a	n/a	n/a	n/a	n/a	n/a	n/a	n/a	n/a
255788	WORD	wordpools/wasnorm_wordpool_less_exclusions.txt	LTP220	ltpFR	1	1	1	LAMP	798	n/a	n/a	1	0.422607421875	0.5869140625	0	upper	zerothre.ttf
259970	WORD	wordpools/wasnorm_wordpool_less_exclusions.txt	LTP220	ltpFR	1	1	1	COW	393	n/a	n/a	0	0.422607421875	0.5869140625	0	upper	zerothre.ttf
264086	WORD	wordpools/wasnorm_wordpool_less_exclusions.txt	LTP220	ltpFR	1	1	1	DIARY	460	n/a	n/a	1	0.422607421875	0.5869140625	0	upper	zerothre.ttf
268236	WORD	wordpools/wasnorm_wordpool_less_exclusions.txt	LTP220	ltpFR	1	1	0	BEAR	106	n/a	n/a	3	0.57763671875	0.412841796875	1	lower	amplitud.ttf
269373	KEY_MSG	n/a	LTP220	ltpFR	1	1	n/a	n/a	n/a	n/a	n/a	n/a	n/a	n/a	n/a	n/a	n/a
272294	WORD	wordpools/wasnorm_wordpool_less_exclusions.txt	LTP220	ltpFR	1	1	0	RICE	1190	n/a	n/a	3	0.57763671875	0.412841796875	1	lower	amplitud.ttf
273722	KEY_MSG	n/a	LTP220	ltpFR	1	1	n/a	n/a	n/a	n/a	n/a	n/a	n/a	n/a	n/a	n/a	n/a
276482	WORD	wordpools/wasnorm_wordpool_less_exclusions.txt	LTP220	ltpFR	1	1	1	TORCH	1484	n/a	n/a	1	0.422607421875	0.5869140625	0	upper	zerothre.ttf
280440	WORD	wordpools/wasnorm_wordpool_less_exclusions.txt	LTP220	ltpFR	1	1	1	ARCHITECT	36	n/a	n/a	1	0.422607421875	0.5869140625	0	upper	zerothre.ttf
284463	WORD	wordpools/wasnorm_wordpool_less_exclusions.txt	LTP220	ltpFR	1	1	1	SAGE	1222	n/a	n/a	1	0.422607421875	0.5869140625	0	upper	zerothre.ttf
288537	WORD	wordpools/wasnorm_wordpool_less_exclusions.txt	LTP220	ltpFR	1	1	0	TREASURE	1500	n/a	n/a	1	0.57763671875	0.412841796875	1	lower	amplitud.ttf
292369	WORD	wordpools/wasnorm_wordpool_less_exclusions.txt	LTP220	ltpFR	1	1	0	BEAST	108	n/a	n/a	1	0.57763671875	0.412841796875	1	lower	amplitud.ttf
296417	WORD	wordpools/wasnorm_wordpool_less_exclusions.txt	LTP220	ltpFR	1	1	0	BOYFRIEND	162	n/a	n/a	0	0.57763671875	0.412841796875	1	lower	amplitud.ttf
300307	WORD	wordpools/wasnorm_wordpool_less_exclusions.txt	LTP220	ltpFR	1	1	0	COMPANION	357	n/a	n/a	1	0.57763671875	0.412841796875	1	lower	amplitud.ttf
306306	REC_START	n/a	LTP220	ltpFR	1	1	n/a	n/a	n/a	n/a	n/a	n/a	n/a	n/a	n/a	n/a	n/a
307603	REC_WORD	wordpools/wasnorm_wordpool_less_exclusions.txt	LTP220	ltpFR	1	1	0	COMPANION	357	n/a	n/a	1	n/a	n/a	n/a	n/a	n/a
310337	REC_WORD	wordpools/wasnorm_wordpool_less_exclusions.txt	LTP220	ltpFR	1	1	0	BOYFRIEND	162	n/a	n/a	0	n/a	n/a	n/a	n/a	n/a
313105	REC_WORD	wordpools/wasnorm_wordpool_less_exclusions.txt	LTP220	ltpFR	1	1	0	BEAR	106	n/a	n/a	3	n/a	n/a	n/a	n/a	n/a
324883	REC_WORD	wordpools/wasnorm_wordpool_less_exclusions.txt	LTP220	ltpFR	1	1	1	ARCHITECT	36	n/a	n/a	1	n/a	n/a	n/a	n/a	n/a
330735	REC_WORD	wordpools/wasnorm_wordpool_less_exclusions.txt	LTP220	ltpFR	1	1	1	SAGE	1222	n/a	n/a	1	n/a	n/a	n/a	n/a	n/a
341915	REC_WORD	wordpools/wasnorm_wordpool_less_exclusions.txt	LTP220	ltpFR	1	1	0	TREASURE	1500	n/a	n/a	1	n/a	n/a	n/a	n/a	n/a
365910	REC_WORD	wordpools/wasnorm_wordpool_less_exclusions.txt	LTP220	ltpFR	1	1	1	SPICE	1350	n/a	n/a	n/a	n/a	n/a	n/a	n/a	n/a
419146	WORD	wordpools/wasnorm_wordpool_less_exclusions.txt	LTP220	ltpFR	1	2	1	SHIRT	1287	n/a	n/a	2	0.422607421875	0.5869140625	0	upper	zerothre.ttf
420860	KEY_MSG	n/a	LTP220	ltpFR	1	2	n/a	n/a	n/a	n/a	n/a	n/a	n/a	n/a	n/a	n/a	n/a
423412	WORD	wordpools/wasnorm_wordpool_less_exclusions.txt	LTP220	ltpFR	1	2	1	CHART	282	n/a	n/a	3	0.422607421875	0.5869140625	0	upper	zerothre.ttf
424842	KEY_MSG	n/a	LTP220	ltpFR	1	2	n/a	n/a	n/a	n/a	n/a	n/a	n/a	n/a	n/a	n/a	n/a
427578	WORD	wordpools/wasnorm_wordpool_less_exclusions.txt	LTP220	ltpFR	1	2	1	LAGOON	795	n/a	n/a	3	0.422607421875	0.5869140625	0	upper	zerothre.ttf
428639	KEY_MSG	n/a	LTP220	ltpFR	1	2	n/a	n/a	n/a	n/a	n/a	n/a	n/a	n/a	n/a	n/a	n/a
431784	WORD	wordpools/wasnorm_wordpool_less_exclusions.txt	LTP220	ltpFR	1	2	1	GOAT	644	n/a	n/a	3	0.422607421875	0.5869140625	0	upper	zerothre.ttf
432504	KEY_MSG	n/a	LTP220	ltpFR	1	2	n/a	n/a	n/a	n/a	n/a	n/a	n/a	n/a	n/a	n/a	n/a
435993	WORD	wordpools/wasnorm_wordpool_less_exclusions.txt	LTP220	ltpFR	1	2	0	COOK	372	n/a	n/a	3	0.57763671875	0.412841796875	1	lower	amplitud.ttf
437941	KEY_MSG	n/a	LTP220	ltpFR	1	2	n/a	n/a	n/a	n/a	n/a	n/a	n/a	n/a	n/a	n/a	n/a
440668	WORD	wordpools/wasnorm_wordpool_less_exclusions.txt	LTP220	ltpFR	1	2	0	SKILLET	1317	n/a	n/a	0	0.57763671875	0.412841796875	1	lower	amplitud.ttf
444642	WORD	wordpools/wasnorm_wordpool_less_exclusions.txt	LTP220	ltpFR	1	2	0	SHOWER	1296	n/a	n/a	0	0.57763671875	0.412841796875	1	lower	amplitud.ttf
448473	WORD	wordpools/wasnorm_wordpool_less_exclusions.txt	LTP220	ltpFR	1	2	0	SURF	1412	n/a	n/a	1	0.57763671875	0.412841796875	1	lower	amplitud.ttf
452346	WORD	wordpools/wasnorm_wordpool_less_exclusions.txt	LTP220	ltpFR	1	2	1	INTESTINE	742	n/a	n/a	n/a	0.422607421875	0.5869140625	0	upper	zerothre.ttf
455391	SLOW_MSG	n/a	LTP220	ltpFR	1	2	n/a	n/a	n/a	n/a	n/a	n/a	n/a	n/a	n/a	n/a	n/a
458117	WORD	wordpools/wasnorm_wordpool_less_exclusions.txt	LTP220	ltpFR	1	2	1	PLASTER	1085	n/a	n/a	0	0.422607421875	0.5869140625	0	upper	zerothre.ttf
462284	WORD	wordpools/wasnorm_wordpool_less_exclusions.txt	LTP220	ltpFR	1	2	1	MARINE	869	n/a	n/a	1	0.422607421875	0.5869140625	0	upper	zerothre.ttf
466198	WORD	wordpools/wasnorm_wordpool_less_exclusions.txt	LTP220	ltpFR	1	2	1	JUGGLER	763	n/a	n/a	1	0.422607421875	0.5869140625	0	upper	zerothre.ttf
470307	WORD	wordpools/wasnorm_wordpool_less_exclusions.txt	LTP220	ltpFR	1	2	0	CATTLE	261	n/a	n/a	1	0.57763671875	0.412841796875	1	lower	amplitud.ttf
474396	WORD	wordpools/wasnorm_wordpool_less_exclusions.txt	LTP220	ltpFR	1	2	0	MONUMENT	913	n/a	n/a	1	0.57763671875	0.412841796875	1	lower	amplitud.ttf
478604	WORD	wordpools/wasnorm_wordpool_less_exclusions.txt	LTP220	ltpFR	1	2	0	BRACELET	163	n/a	n/a	0	0.57763671875	0.412841796875	1	lower	amplitud.ttf
482609	WORD	wordpools/wasnorm_wordpool_less_exclusions.txt	LTP220	ltpFR	1	2	0	BEAD	103	n/a	n/a	0	0.57763671875	0.412841796875	1	lower	amplitud.ttf
488425	REC_START	n/a	LTP220	ltpFR	1	2	n/a	n/a	n/a	n/a	n/a	n/a	n/a	n/a	n/a	n/a	n/a
489617	REC_WORD	wordpools/wasnorm_wordpool_less_exclusions.txt	LTP220	ltpFR	1	2	0	BEAD	103	n/a	n/a	0	n/a	n/a	n/a	n/a	n/a
490031	REC_WORD	wordpools/wasnorm_wordpool_less_exclusions.txt	LTP220	ltpFR	1	2	0	BRACELET	163	n/a	n/a	0	n/a	n/a	n/a	n/a	n/a
491035	REC_WORD_VV	wordpools/wasnorm_wordpool_less_exclusions.txt	LTP220	ltpFR	1	2	n/a	<>	-1	n/a	n/a	n/a	n/a	n/a	n/a	n/a	n/a
497015	REC_WORD	wordpools/wasnorm_wordpool_less_exclusions.txt	LTP220	ltpFR	1	2	0	SURF	1412	n/a	n/a	1	n/a	n/a	n/a	n/a	n/a
523822	REC_WORD	wordpools/wasnorm_wordpool_less_exclusions.txt	LTP220	ltpFR	1	2	0	MONUMENT	913	n/a	n/a	1	n/a	n/a	n/a	n/a	n/a
530100	REC_WORD	wordpools/wasnorm_wordpool_less_exclusions.txt	LTP220	ltpFR	1	2	1	MARINE	869	n/a	n/a	1	n/a	n/a	n/a	n/a	n/a
537658	REC_WORD	wordpools/wasnorm_wordpool_less_exclusions.txt	LTP220	ltpFR	1	2	1	ARCHITECT	36	n/a	n/a	1	n/a	n/a	n/a	n/a	n/a
578221	WORD	wordpools/wasnorm_wordpool_less_exclusions.txt	LTP220	ltpFR	1	3	-1	FUGITIVE	612	n/a	n/a	-1	1.0	1.0	1	upper	Verdana.ttf
582186	WORD	wordpools/wasnorm_wordpool_less_exclusions.txt	LTP220	ltpFR	1	3	-1	BUFFALO	186	n/a	n/a	-1	1.0	1.0	1	upper	Verdana.ttf
586268	WORD	wordpools/wasnorm_wordpool_less_exclusions.txt	LTP220	ltpFR	1	3	-1	BIBLE	124	n/a	n/a	-1	1.0	1.0	1	upper	Verdana.ttf
590309	WORD	wordpools/wasnorm_wordpool_less_exclusions.txt	LTP220	ltpFR	1	3	-1	CREAM	402	n/a	n/a	-1	1.0	1.0	1	upper	Verdana.ttf
594514	WORD	wordpools/wasnorm_wordpool_less_exclusions.txt	LTP220	ltpFR	1	3	-1	PECAN	1036	n/a	n/a	-1	1.0	1.0	1	upper	Verdana.ttf
598723	WORD	wordpools/wasnorm_wordpool_less_exclusions.txt	LTP220	ltpFR	1	3	-1	WALNUT	1584	n/a	n/a	-1	1.0	1.0	1	upper	Verdana.ttf
602872	WORD	wordpools/wasnorm_wordpool_less_exclusions.txt	LTP220	ltpFR	1	3	-1	GROCERIES	663	n/a	n/a	-1	1.0	1.0	1	upper	Verdana.ttf
606703	WORD	wordpools/wasnorm_wordpool_less_exclusions.txt	LTP220	ltpFR	1	3	-1	COLESLAW	344	n/a	n/a	-1	1.0	1.0	1	upper	Verdana.ttf
610668	WORD	wordpools/wasnorm_wordpool_less_exclusions.txt	LTP220	ltpFR	1	3	-1	BANANA	77	n/a	n/a	-1	1.0	1.0	1	upper	Verdana.ttf
614767	WORD	wordpools/wasnorm_wordpool_less_exclusions.txt	LTP220	ltpFR	1	3	-1	CHAPEL	280	n/a	n/a	-1	1.0	1.0	1	upper	Verdana.ttf
618756	WORD	wordpools/wasnorm_wordpool_less_exclusions.txt	LTP220	ltpFR	1	3	-1	RADISH	1158	n/a	n/a	-1	1.0	1.0	1	upper	Verdana.ttf
622730	WORD	wordpools/wasnorm_wordpool_less_exclusions.txt	LTP220	ltpFR	1	3	-1	PEAR	1033	n/a	n/a	-1	1.0	1.0	1	upper	Verdana.ttf
626569	WORD	wordpools/wasnorm_wordpool_less_exclusions.txt	LTP220	ltpFR	1	3	-1	VITAMIN	1574	n/a	n/a	-1	1.0	1.0	1	upper	Verdana.ttf
630710	WORD	wordpools/wasnorm_wordpool_less_exclusions.txt	LTP220	ltpFR	1	3	-1	CHESS	294	n/a	n/a	-1	1.0	1.0	1	upper	Verdana.ttf
634816	WORD	wordpools/wasnorm_wordpool_less_exclusions.txt	LTP220	ltpFR	1	3	-1	CRICKET	408	n/a	n/a	-1	1.0	1.0	1	upper	Verdana.ttf
638647	WORD	wordpools/wasnorm_wordpool_less_exclusions.txt	LTP220	ltpFR	1	3	-1	TOENAIL	1474	n/a	n/a	-1	1.0	1.0	1	upper	Verdana.ttf
644463	REC_START	n/a	LTP220	ltpFR	1	3	n/a	n/a	n/a	n/a	n/a	n/a	n/a	n/a	n/a	n/a	n/a
646054	REC_WORD	wordpools/wasnorm_wordpool_less_exclusions.txt	LTP220	ltpFR	1	3	-1	TOENAIL	1474	n/a	n/a	-1	n/a	n/a	n/a	n/a	n/a
646947	REC_WORD	wordpools/wasnorm_wordpool_less_exclusions.txt	LTP220	ltpFR	1	3	-1	CRICKET	408	n/a	n/a	-1	n/a	n/a	n/a	n/a	n/a
651781	REC_WORD	wordpools/wasnorm_wordpool_less_exclusions.txt	LTP220	ltpFR	1	3	-1	WALNUT	1584	n/a	n/a	-1	n/a	n/a	n/a	n/a	n/a
653169	REC_WORD	wordpools/wasnorm_wordpool_less_exclusions.txt	LTP220	ltpFR	1	3	-1	PECAN	1036	n/a	n/a	-1	n/a	n/a	n/a	n/a	n/a
656810	REC_WORD	wordpools/wasnorm_wordpool_less_exclusions.txt	LTP220	ltpFR	1	3	-1	GROCERIES	663	n/a	n/a	-1	n/a	n/a	n/a	n/a	n/a
657813	REC_WORD_VV	wordpools/wasnorm_wordpool_less_exclusions.txt	LTP220	ltpFR	1	3	n/a	<>	-1	n/a	n/a	n/a	n/a	n/a	n/a	n/a	n/a
659823	REC_WORD	wordpools/wasnorm_wordpool_less_exclusions.txt	LTP220	ltpFR	1	3	-1	COLESLAW	344	n/a	n/a	-1	n/a	n/a	n/a	n/a	n/a
660827	REC_WORD_VV	wordpools/wasnorm_wordpool_less_exclusions.txt	LTP220	ltpFR	1	3	n/a	<>	-1	n/a	n/a	n/a	n/a	n/a	n/a	n/a	n/a
668917	REC_WORD	wordpools/wasnorm_wordpool_less_exclusions.txt	LTP220	ltpFR	1	3	-1	BANANA	77	n/a	n/a	-1	n/a	n/a	n/a	n/a	n/a
686931	REC_WORD	wordpools/wasnorm_wordpool_less_exclusions.txt	LTP220	ltpFR	1	3	n/a	BREAD	170	n/a	n/a	n/a	n/a	n/a	n/a	n/a	n/a
699503	REC_WORD	wordpools/wasnorm_wordpool_less_exclusions.txt	LTP220	ltpFR	1	3	-1	CHAPEL	280	n/a	n/a	-1	n/a	n/a	n/a	n/a	n/a
700266	REC_WORD	wordpools/wasnorm_wordpool_less_exclusions.txt	LTP220	ltpFR	1	3	n/a	CHURCH	307	n/a	n/a	n/a	n/a	n/a	n/a	n/a	n/a
715666	REC_WORD	wordpools/wasnorm_wordpool_less_exclusions.txt	LTP220	ltpFR	1	3	-1	TOENAIL	1474	n/a	n/a	-1	n/a	n/a	n/a	n/a	n/a
802825	WORD	wordpools/wasnorm_wordpool_less_exclusions.txt	LTP220	ltpFR	1	4	0	GOBLIN	645	n/a	n/a	n/a	0.57763671875	0.412841796875	1	lower	amplitud.ttf
805870	SLOW_MSG	n/a	LTP220	ltpFR	1	4	n/a	n/a	n/a	n/a	n/a	n/a	n/a	n/a	n/a	n/a	n/a
808238	WORD	wordpools/wasnorm_wordpool_less_exclusions.txt	LTP220	ltpFR	1	4	0	CONTINENT	367	n/a	n/a	3	0.57763671875	0.412841796875	1	lower	amplitud.ttf
809859	KEY_MSG	n/a	LTP220	ltpFR	1	4	n/a	n/a	n/a	n/a	n/a	n/a	n/a	n/a	n/a	n/a	n/a
812379	WORD	wordpools/wasnorm_wordpool_less_exclusions.txt	LTP220	ltpFR	1	4	0	BEET	115	n/a	n/a	2	0.57763671875	0.412841796875	1	lower	amplitud.ttf
813506	KEY_MSG	n/a	LTP220	ltpFR	1	4	n/a	n/a	n/a	n/a	n/a	n/a	n/a	n/a	n/a	n/a	n/a
816218	WORD	wordpools/wasnorm_wordpool_less_exclusions.txt	LTP220	ltpFR	1	4	0	BISCUIT	130	n/a	n/a	3	0.57763671875	0.412841796875	1	lower	amplitud.ttf
817622	KEY_MSG	n/a	LTP220	ltpFR	1	4	n/a	n/a	n/a	n/a	n/a	n/a	n/a	n/a	n/a	n/a	n/a
820175	WORD	wordpools/wasnorm_wordpool_less_exclusions.txt	LTP220	ltpFR	1	4	0	BREAD	170	n/a	n/a	3	0.57763671875	0.412841796875	1	lower	amplitud.ttf
820934	KEY_MSG	n/a	LTP220	ltpFR	1	4	n/a	n/a	n/a	n/a	n/a	n/a	n/a	n/a	n/a	n/a	n/a
824139	WORD	wordpools/wasnorm_wordpool_less_exclusions.txt	LTP220	ltpFR	1	4	0	THORN	1459	n/a	n/a	3	0.57763671875	0.412841796875	1	lower	amplitud.ttf
824782	KEY_MSG	n/a	LTP220	ltpFR	1	4	n/a	n/a	n/a	n/a	n/a	n/a	n/a	n/a	n/a	n/a	n/a
828011	WORD	wordpools/wasnorm_wordpool_less_exclusions.txt	LTP220	ltpFR	1	4	0	DORM	488	n/a	n/a	0	0.57763671875	0.412841796875	1	lower	amplitud.ttf
831943	WORD	wordpools/wasnorm_wordpool_less_exclusions.txt	LTP220	ltpFR	1	4	0	ASTRONAUT	51	n/a	n/a	1	0.57763671875	0.412841796875	1	lower	amplitud.ttf
835807	WORD	wordpools/wasnorm_wordpool_less_exclusions.txt	LTP220	ltpFR	1	4	0	TURTLE	1522	n/a	n/a	0	0.57763671875	0.412841796875	1	lower	amplitud.ttf
840006	WORD	wordpools/wasnorm_wordpool_less_exclusions.txt	LTP220	ltpFR	1	4	0	PIPE	1073	n/a	n/a	0	0.57763671875	0.412841796875	1	lower	amplitud.ttf
843904	WORD	wordpools/wasnorm_wordpool_less_exclusions.txt	LTP220	ltpFR	1	4	0	DRAWER	493	n/a	n/a	0	0.57763671875	0.412841796875	1	lower	amplitud.ttf
847735	WORD	wordpools/wasnorm_wordpool_less_exclusions.txt	LTP220	ltpFR	1	4	0	SEAT	1264	n/a	n/a	0	0.57763671875	0.412841796875	1	lower	amplitud.ttf
851851	WORD	wordpools/wasnorm_wordpool_less_exclusions.txt	LTP220	ltpFR	1	4	0	ASIA	46	n/a	n/a	1	0.57763671875	0.412841796875	1	lower	amplitud.ttf
855808	WORD	wordpools/wasnorm_wordpool_less_exclusions.txt	LTP220	ltpFR	1	4	0	BEDROOM	111	n/a	n/a	0	0.57763671875	0.412841796875	1	lower	amplitud.ttf
859706	WORD	wordpools/wasnorm_wordpool_less_exclusions.txt	LTP220	ltpFR	1	4	0	VAMPIRE	1547	n/a	n/a	0	0.57763671875	0.412841796875	1	lower	amplitud.ttf
863588	WORD	wordpools/wasnorm_wordpool_less_exclusions.txt	LTP220	ltpFR	1	4	0	HEART	697	n/a	n/a	0	0.57763671875	0.412841796875	1	lower	amplitud.ttf
869395	REC_START	n/a	LTP220	ltpFR	1	4	n/a	n/a	n/a	n/a	n/a	n/a	n/a	n/a	n/a	n/a	n/a
880036	REC_WORD_VV	wordpools/wasnorm_wordpool_less_exclusions.txt	LTP220	ltpFR	1	4	n/a	<>	-1	n/a	n/a	n/a	n/a	n/a	n/a	n/a	n/a
881038	REC_WORD_VV	wordpools/wasnorm_wordpool_less_exclusions.txt	LTP220	ltpFR	1	4	n/a	<>	-1	n/a	n/a	n/a	n/a	n/a	n/a	n/a	n/a
884774	REC_WORD_VV	wordpools/wasnorm_wordpool_less_exclusions.txt	LTP220	ltpFR	1	4	n/a	<>	-1	n/a	n/a	n/a	n/a	n/a	n/a	n/a	n/a
890417	REC_WORD	wordpools/wasnorm_wordpool_less_exclusions.txt	LTP220	ltpFR	1	4	0	VAMPIRE	1547	n/a	n/a	0	n/a	n/a	n/a	n/a	n/a
894698	REC_WORD	wordpools/wasnorm_wordpool_less_exclusions.txt	LTP220	ltpFR	1	4	0	HEART	697	n/a	n/a	0	n/a	n/a	n/a	n/a	n/a
919601	REC_WORD_VV	wordpools/wasnorm_wordpool_less_exclusions.txt	LTP220	ltpFR	1	4	n/a	<>	-1	n/a	n/a	n/a	n/a	n/a	n/a	n/a	n/a
920615	REC_WORD_VV	wordpools/wasnorm_wordpool_less_exclusions.txt	LTP220	ltpFR	1	4	n/a	<>	-1	n/a	n/a	n/a	n/a	n/a	n/a	n/a	n/a
923464	REC_WORD_VV	wordpools/wasnorm_wordpool_less_exclusions.txt	LTP220	ltpFR	1	4	n/a	<>	-1	n/a	n/a	n/a	n/a	n/a	n/a	n/a	n/a
926080	REC_WORD_VV	wordpools/wasnorm_wordpool_less_exclusions.txt	LTP220	ltpFR	1	4	n/a	<>	-1	n/a	n/a	n/a	n/a	n/a	n/a	n/a	n/a
927079	REC_WORD_VV	wordpools/wasnorm_wordpool_less_exclusions.txt	LTP220	ltpFR	1	4	n/a	<>	-1	n/a	n/a	n/a	n/a	n/a	n/a	n/a	n/a
957834	WORD	wordpools/wasnorm_wordpool_less_exclusions.txt	LTP220	ltpFR	1	5	-1	MOB	904	n/a	n/a	-1	1.0	1.0	1	upper	Verdana.ttf
962042	WORD	wordpools/wasnorm_wordpool_less_exclusions.txt	LTP220	ltpFR	1	5	-1	AUDIENCE	59	n/a	n/a	-1	1.0	1.0	1	upper	Verdana.ttf
966098	WORD	wordpools/wasnorm_wordpool_less_exclusions.txt	LTP220	ltpFR	1	5	-1	FIG	563	n/a	n/a	-1	1.0	1.0	1	upper	Verdana.ttf
970113	WORD	wordpools/wasnorm_wordpool_less_exclusions.txt	LTP220	ltpFR	1	5	-1	CROSS	413	n/a	n/a	-1	1.0	1.0	1	upper	Verdana.ttf
974239	WORD	wordpools/wasnorm_wordpool_less_exclusions.txt	LTP220	ltpFR	1	5	-1	MONASTERY	907	n/a	n/a	-1	1.0	1.0	1	upper	Verdana.ttf
978245	WORD	wordpools/wasnorm_wordpool_less_exclusions.txt	LTP220	ltpFR	1	5	-1	FOREHEAD	592	n/a	n/a	-1	1.0	1.0	1	upper	Verdana.ttf
982327	WORD	wordpools/wasnorm_wordpool_less_exclusions.txt	LTP220	ltpFR	1	5	-1	WEED	1599	n/a	n/a	-1	1.0	1.0	1	upper	Verdana.ttf
986351	WORD	wordpools/wasnorm_wordpool_less_exclusions.txt	LTP220	ltpFR	1	5	-1	VEAL	1551	n/a	n/a	-1	1.0	1.0	1	upper	Verdana.ttf
990507	WORD	wordpools/wasnorm_wordpool_less_exclusions.txt	LTP220	ltpFR	1	5	-1	MEAL	882	n/a	n/a	-1	1.0	1.0	1	upper	Verdana.ttf
994348	WORD	wordpools/wasnorm_wordpool_less_exclusions.txt	LTP220	ltpFR	1	5	-1	GLOBE	641	n/a	n/a	-1	1.0	1.0	1	upper	Verdana.ttf
998463	WORD	wordpools/wasnorm_wordpool_less_exclusions.txt	LTP220	ltpFR	1	5	-1	GUEST	669	n/a	n/a	-1	1.0	1.0	1	upper	Verdana.ttf
1002369	WORD	wordpools/wasnorm_wordpool_less_exclusions.txt	LTP220	ltpFR	1	5	-1	PANTS	1010	n/a	n/a	-1	1.0	1.0	1	upper	Verdana.ttf
1006301	WORD	wordpools/wasnorm_wordpool_less_exclusions.txt	LTP220	ltpFR	1	5	-1	PLAYGROUND	1087	n/a	n/a	-1	1.0	1.0	1	upper	Verdana.ttf
1010165	WORD	wordpools/wasnorm_wordpool_less_exclusions.txt	LTP220	ltpFR	1	5	-1	HAM	678	n/a	n/a	-1	1.0	1.0	1	upper	Verdana.ttf
1014264	WORD	wordpools/wasnorm_wordpool_less_exclusions.txt	LTP220	ltpFR	1	5	-1	SKIRT	1319	n/a	n/a	-1	1.0	1.0	1	upper	Verdana.ttf
1018421	WORD	wordpools/wasnorm_wordpool_less_exclusions.txt	LTP220	ltpFR	1	5	-1	SAP	1233	n/a	n/a	-1	1.0	1.0	1	upper	Verdana.ttf
1024127	REC_START	n/a	LTP220	ltpFR	1	5	n/a	n/a	n/a	n/a	n/a	n/a	n/a	n/a	n/a	n/a	n/a
1025509	REC_WORD	wordpools/wasnorm_wordpool_less_exclusions.txt	LTP220	ltpFR	1	5	-1	SAP	1233	n/a	n/a	-1	n/a	n/a	n/a	n/a	n/a
1026696	REC_WORD	wordpools/wasnorm_wordpool_less_exclusions.txt	LTP220	ltpFR	1	5	-1	PLAYGROUND	1087	n/a	n/a	-1	n/a	n/a	n/a	n/a	n/a
1027714	REC_WORD	wordpools/wasnorm_wordpool_less_exclusions.txt	LTP220	ltpFR	1	5	-1	PANTS	1010	n/a	n/a	-1	n/a	n/a	n/a	n/a	n/a
1031415	REC_WORD	wordpools/wasnorm_wordpool_less_exclusions.txt	LTP220	ltpFR	1	5	-1	SKIRT	1319	n/a	n/a	-1	n/a	n/a	n/a	n/a	n/a
1033571	REC_WORD	wordpools/wasnorm_wordpool_less_exclusions.txt	LTP220	ltpFR	1	5	-1	VEAL	1551	n/a	n/a	-1	n/a	n/a	n/a	n/a	n/a
1034165	REC_WORD	wordpools/wasnorm_wordpool_less_exclusions.txt	LTP220	ltpFR	1	5	-1	MEAL	882	n/a	n/a	-1	n/a	n/a	n/a	n/a	n/a
1042939	REC_WORD	wordpools/wasnorm_wordpool_less_exclusions.txt	LTP220	ltpFR	1	5	-1	CHAPEL	280	n/a	n/a	-1	n/a	n/a	n/a	n/a	n/a
1053717	REC_WORD	wordpools/wasnorm_wordpool_less_exclusions.txt	LTP220	ltpFR	1	5	0	BREAD	170	n/a	n/a	3	n/a	n/a	n/a	n/a	n/a
1061188	REC_WORD	wordpools/wasnorm_wordpool_less_exclusions.txt	LTP220	ltpFR	1	5	-1	MONASTERY	907	n/a	n/a	-1	n/a	n/a	n/a	n/a	n/a
1092521	REC_WORD	wordpools/wasnorm_wordpool_less_exclusions.txt	LTP220	ltpFR	1	5	-1	WEED	1599	n/a	n/a	-1	n/a	n/a	n/a	n/a	n/a
1113948	WORD	wordpools/wasnorm_wordpool_less_exclusions.txt	LTP220	ltpFR	1	6	0	LETTUCE	814	n/a	n/a	3	0.57763671875	0.412841796875	1	lower	amplitud.ttf
1116682	KEY_MSG	n/a	LTP220	ltpFR	1	6	n/a	n/a	n/a	n/a	n/a	n/a	n/a	n/a	n/a	n/a	n/a
1119360	WORD	wordpools/wasnorm_wordpool_less_exclusions.txt	LTP220	ltpFR	1	6	0	KETCHUP	771	n/a	n/a	3	0.57763671875	0.412841796875	1	lower	amplitud.ttf
1120597	KEY_MSG	n/a	LTP220	ltpFR	1	6	n/a	n/a	n/a	n/a	n/a	n/a	n/a	n/a	n/a	n/a	n/a
1123384	WORD	wordpools/wasnorm_wordpool_less_exclusions.txt	LTP220	ltpFR	1	6	0	ACORN	3	n/a	n/a	3	0.57763671875	0.412841796875	1	lower	amplitud.ttf
1123993	KEY_MSG	n/a	LTP220	ltpFR	1	6	n/a	n/a	n/a	n/a	n/a	n/a	n/a	n/a	n/a	n/a	n/a
1127423	WORD	wordpools/wasnorm_wordpool_less_exclusions.txt	LTP220	ltpFR	1	6	0	MOOSE	915	n/a	n/a	n/a	0.57763671875	0.412841796875	1	lower	amplitud.ttf
1130468	SLOW_MSG	n/a	LTP220	ltpFR	1	6	n/a	n/a	n/a	n/a	n/a	n/a	n/a	n/a	n/a	n/a	n/a
1132903	WORD	wordpools/wasnorm_wordpool_less_exclusions.txt	LTP220	ltpFR	1	6	0	DIVER	476	n/a	n/a	2	0.57763671875	0.412841796875	1	lower	amplitud.ttf
1134566	KEY_MSG	n/a	LTP220	ltpFR	1	6	n/a	n/a	n/a	n/a	n/a	n/a	n/a	n/a	n/a	n/a	n/a
1137001	WORD	wordpools/wasnorm_wordpool_less_exclusions.txt	LTP220	ltpFR	1	6	0	CAFE	216	n/a	n/a	1	0.57763671875	0.412841796875	1	lower	amplitud.ttf
1140974	WORD	wordpools/wasnorm_wordpool_less_exclusions.txt	LTP220	ltpFR	1	6	0	CAGE	218	n/a	n/a	0	0.57763671875	0.412841796875	1	lower	amplitud.ttf
1145174	WORD	wordpools/wasnorm_wordpool_less_exclusions.txt	LTP220	ltpFR	1	6	0	BUCKET	184	n/a	n/a	0	0.57763671875	0.412841796875	1	lower	amplitud.ttf
1149290	WORD	wordpools/wasnorm_wordpool_less_exclusions.txt	LTP220	ltpFR	1	6	0	DRIVER	499	n/a	n/a	0	0.57763671875	0.412841796875	1	lower	amplitud.ttf
1153288	WORD	wordpools/wasnorm_wordpool_less_exclusions.txt	LTP220	ltpFR	1	6	0	PISTON	1076	n/a	n/a	0	0.57763671875	0.412841796875	1	lower	amplitud.ttf
1157219	WORD	wordpools/wasnorm_wordpool_less_exclusions.txt	LTP220	ltpFR	1	6	0	DEPARTMENT	449	n/a	n/a	0	0.57763671875	0.412841796875	1	lower	amplitud.ttf
1161261	WORD	wordpools/wasnorm_wordpool_less_exclusions.txt	LTP220	ltpFR	1	6	0	PURSE	1145	n/a	n/a	0	0.57763671875	0.412841796875	1	lower	amplitud.ttf
1165409	WORD	wordpools/wasnorm_wordpool_less_exclusions.txt	LTP220	ltpFR	1	6	0	PIER	1063	n/a	n/a	1	0.57763671875	0.412841796875	1	lower	amplitud.ttf
1169374	WORD	wordpools/wasnorm_wordpool_less_exclusions.txt	LTP220	ltpFR	1	6	0	STREAM	1392	n/a	n/a	1	0.57763671875	0.412841796875	1	lower	amplitud.ttf
1173539	WORD	wordpools/wasnorm_wordpool_less_exclusions.txt	LTP220	ltpFR	1	6	0	TOASTER	1472	n/a	n/a	0	0.57763671875	0.412841796875	1	lower	amplitud.ttf
1177404	WORD	wordpools/wasnorm_wordpool_less_exclusions.txt	LTP220	ltpFR	1	6	0	OVEN	991	n/a	n/a	0	0.57763671875	0.412841796875	1	lower	amplitud.ttf
1183244	REC_START	n/a	LTP220	ltpFR	1	6	n/a	n/a	n/a	n/a	n/a	n/a	n/a	n/a	n/a	n/a	n/a
1186212	REC_WORD	wordpools/wasnorm_wordpool_less_exclusions.txt	LTP220	ltpFR	1	6	0	OVEN	991	n/a	n/a	0	n/a	n/a	n/a	n/a	n/a
1186945	REC_WORD	wordpools/wasnorm_wordpool_less_exclusions.txt	LTP220	ltpFR	1	6	0	TOASTER	1472	n/a	n/a	0	n/a	n/a	n/a	n/a	n/a
1190467	REC_WORD_VV	wordpools/wasnorm_wordpool_less_exclusions.txt	LTP220	ltpFR	1	6	n/a	<>	-1	n/a	n/a	n/a	n/a	n/a	n/a	n/a	n/a
1191520	REC_WORD_VV	wordpools/wasnorm_wordpool_less_exclusions.txt	LTP220	ltpFR	1	6	n/a	<>	-1	n/a	n/a	n/a	n/a	n/a	n/a	n/a	n/a
1379716	WORD	wordpools/wasnorm_wordpool_less_exclusions.txt	LTP220	ltpFR	1	7	-1	KITE	779	n/a	n/a	-1	1.0	1.0	1	upper	Verdana.ttf
1383664	WORD	wordpools/wasnorm_wordpool_less_exclusions.txt	LTP220	ltpFR	1	7	-1	FLY	586	n/a	n/a	-1	1.0	1.0	1	upper	Verdana.ttf
1387536	WORD	wordpools/wasnorm_wordpool_less_exclusions.txt	LTP220	ltpFR	1	7	-1	CUPBOARD	425	n/a	n/a	-1	1.0	1.0	1	upper	Verdana.ttf
1391427	WORD	wordpools/wasnorm_wordpool_less_exclusions.txt	LTP220	ltpFR	1	7	-1	ROOM	1206	n/a	n/a	-1	1.0	1.0	1	upper	Verdana.ttf
1395425	WORD	wordpools/wasnorm_wordpool_less_exclusions.txt	LTP220	ltpFR	1	7	-1	LIMOUSINE	824	n/a	n/a	-1	1.0	1.0	1	upper	Verdana.ttf
1399414	WORD	wordpools/wasnorm_wordpool_less_exclusions.txt	LTP220	ltpFR	1	7	-1	AIRCRAFT	11	n/a	n/a	-1	1.0	1.0	1	upper	Verdana.ttf
1403364	WORD	wordpools/wasnorm_wordpool_less_exclusions.txt	LTP220	ltpFR	1	7	-1	COBBLER	335	n/a	n/a	-1	1.0	1.0	1	upper	Verdana.ttf
1407554	WORD	wordpools/wasnorm_wordpool_less_exclusions.txt	LTP220	ltpFR	1	7	-1	KETTLE	772	n/a	n/a	-1	1.0	1.0	1	upper	Verdana.ttf
1411493	WORD	wordpools/wasnorm_wordpool_less_exclusions.txt	LTP220	ltpFR	1	7	-1	CAVE	263	n/a	n/a	-1	1.0	1.0	1	upper	Verdana.ttf
1415676	WORD	wordpools/wasnorm_wordpool_less_exclusions.txt	LTP220	ltpFR	1	7	-1	ROOST	1208	n/a	n/a	-1	1.0	1.0	1	upper	Verdana.ttf
1419507	WORD	wordpools/wasnorm_wordpool_less_exclusions.txt	LTP220	ltpFR	1	7	-1	HAWK	692	n/a	n/a	-1	1.0	1.0	1	upper	Verdana.ttf
1423706	WORD	wordpools/wasnorm_wordpool_less_exclusions.txt	LTP220	ltpFR	1	7	-1	BINDER	127	n/a	n/a	-1	1.0	1.0	1	upper	Verdana.ttf
1427680	WORD	wordpools/wasnorm_wordpool_less_exclusions.txt	LTP220	ltpFR	1	7	-1	FREEWAY	603	n/a	n/a	-1	1.0	1.0	1	upper	Verdana.ttf
1431545	WORD	wordpools/wasnorm_wordpool_less_exclusions.txt	LTP220	ltpFR	1	7	-1	STOVE	1388	n/a	n/a	-1	1.0	1.0	1	upper	Verdana.ttf
1435493	WORD	wordpools/wasnorm_wordpool_less_exclusions.txt	LTP220	ltpFR	1	7	-1	ANKLE	24	n/a	n/a	-1	1.0	1.0	1	upper	Verdana.ttf
1439432	WORD	wordpools/wasnorm_wordpool_less_exclusions.txt	LTP220	ltpFR	1	7	-1	ELBOW	520	n/a	n/a	-1	1.0	1.0	1	upper	Verdana.ttf
1445071	REC_START	n/a	LTP220	ltpFR	1	7	n/a	n/a	n/a	n/a	n/a	n/a	n/a	n/a	n/a	n/a	n/a
1446198	REC_WORD	wordpools/wasnorm_wordpool_less_exclusions.txt	LTP220	ltpFR	1	7	-1	ANKLE	24	n/a	n/a	-1	n/a	n/a	n/a	n/a	n/a
1446927	REC_WORD	wordpools/wasnorm_wordpool_less_exclusions.txt	LTP220	ltpFR	1	7	-1	ELBOW	520	n/a	n/a	-1	n/a	n/a	n/a	n/a	n/a
1447790	REC_WORD	wordpools/wasnorm_wordpool_less_exclusions.txt	LTP220	ltpFR	1	7	n/a	ROOSTER	1209	n/a	n/a	n/a	n/a	n/a	n/a	n/a	n/a
1448563	REC_WORD	wordpools/wasnorm_wordpool_less_exclusions.txt	LTP220	ltpFR	1	7	-1	CAVE	263	n/a	n/a	-1	n/a	n/a	n/a	n/a	n/a
1449192	REC_WORD	wordpools/wasnorm_wordpool_less_exclusions.txt	LTP220	ltpFR	1	7	-1	HAWK	692	n/a	n/a	-1	n/a	n/a	n/a	n/a	n/a
1458924	REC_WORD	wordpools/wasnorm_wordpool_less_exclusions.txt	LTP220	ltpFR	1	7	n/a	AIRPLANE	12	n/a	n/a	n/a	n/a	n/a	n/a	n/a	n/a
1459867	REC_WORD	wordpools/wasnorm_wordpool_less_exclusions.txt	LTP220	ltpFR	1	7	-1	LIMOUSINE	824	n/a	n/a	-1	n/a	n/a	n/a	n/a	n/a
1466547	REC_WORD	wordpools/wasnorm_wordpool_less_exclusions.txt	LTP220	ltpFR	1	7	-1	ROOM	1206	n/a	n/a	-1	n/a	n/a	n/a	n/a	n/a
1477357	REC_WORD	wordpools/wasnorm_wordpool_less_exclusions.txt	LTP220	ltpFR	1	7	0	OVEN	991	n/a	n/a	0	n/a	n/a	n/a	n/a	n/a
1478440	REC_WORD_VV	wordpools/wasnorm_wordpool_less_exclusions.txt	LTP220	ltpFR	1	7	n/a	<>	-1	n/a	n/a	n/a	n/a	n/a	n/a	n/a	n/a
1478658	REC_WORD	wordpools/wasnorm_wordpool_less_exclusions.txt	LTP220	ltpFR	1	7	-1	STOVE	1388	n/a	n/a	-1	n/a	n/a	n/a	n/a	n/a
1531070	WORD	wordpools/wasnorm_wordpool_less_exclusions.txt	LTP220	ltpFR	1	8	1	TENT	1449	n/a	n/a	3	0.422607421875	0.5869140625	0	upper	zerothre.ttf
1533436	KEY_MSG	n/a	LTP220	ltpFR	1	8	n/a	n/a	n/a	n/a	n/a	n/a	n/a	n/a	n/a	n/a	n/a
1535938	WORD	wordpools/wasnorm_wordpool_less_exclusions.txt	LTP220	ltpFR	1	8	1	PAINTING	1005	n/a	n/a	3	0.422607421875	0.5869140625	0	upper	zerothre.ttf
1537786	KEY_MSG	n/a	LTP220	ltpFR	1	8	n/a	n/a	n/a	n/a	n/a	n/a	n/a	n/a	n/a	n/a	n/a
1540222	WORD	wordpools/wasnorm_wordpool_less_exclusions.txt	LTP220	ltpFR	1	8	1	CATERPILLAR	259	n/a	n/a	2	0.422607421875	0.5869140625	0	upper	zerothre.ttf
1542102	KEY_MSG	n/a	LTP220	ltpFR	1	8	n/a	n/a	n/a	n/a	n/a	n/a	n/a	n/a	n/a	n/a	n/a
1544721	WORD	wordpools/wasnorm_wordpool_less_exclusions.txt	LTP220	ltpFR	1	8	1	OLIVE	975	n/a	n/a	1	0.422607421875	0.5869140625	0	upper	zerothre.ttf
1548627	WORD	wordpools/wasnorm_wordpool_less_exclusions.txt	LTP220	ltpFR	1	8	1	COBRA	336	n/a	n/a	1	0.422607421875	0.5869140625	0	upper	zerothre.ttf
1552675	WORD	wordpools/wasnorm_wordpool_less_exclusions.txt	LTP220	ltpFR	1	8	1	BATH	98	n/a	n/a	0	0.422607421875	0.5869140625	0	upper	zerothre.ttf
1556691	WORD	wordpools/wasnorm_wordpool_less_exclusions.txt	LTP220	ltpFR	1	8	1	BUBBLE	183	n/a	n/a	0	0.422607421875	0.5869140625	0	upper	zerothre.ttf
1560806	WORD	wordpools/wasnorm_wordpool_less_exclusions.txt	LTP220	ltpFR	1	8	1	MOTH	920	n/a	n/a	1	0.422607421875	0.5869140625	0	upper	zerothre.ttf
1564788	WORD	wordpools/wasnorm_wordpool_less_exclusions.txt	LTP220	ltpFR	1	8	1	CONSUMER	365	n/a	n/a	1	0.422607421875	0.5869140625	0	upper	zerothre.ttf
1568753	WORD	wordpools/wasnorm_wordpool_less_exclusions.txt	LTP220	ltpFR	1	8	1	SALIVA	1226	n/a	n/a	n/a	0.422607421875	0.5869140625	0	upper	zerothre.ttf
1571814	SLOW_MSG	n/a	LTP220	ltpFR	1	8	n/a	n/a	n/a	n/a	n/a	n/a	n/a	n/a	n/a	n/a	n/a
1574308	WORD	wordpools/wasnorm_wordpool_less_exclusions.txt	LTP220	ltpFR	1	8	1	RUNNER	1218	n/a	n/a	1	0.422607421875	0.5869140625	0	upper	zerothre.ttf
1578147	WORD	wordpools/wasnorm_wordpool_less_exclusions.txt	LTP220	ltpFR	1	8	1	MUSHROOM	934	n/a	n/a	1	0.422607421875	0.5869140625	0	upper	zerothre.ttf
1582036	WORD	wordpools/wasnorm_wordpool_less_exclusions.txt	LTP220	ltpFR	1	8	1	WAGON	1578	n/a	n/a	1	0.422607421875	0.5869140625	0	upper	zerothre.ttf
1586127	WORD	wordpools/wasnorm_wordpool_less_exclusions.txt	LTP220	ltpFR	1	8	1	STABLE	1363	n/a	n/a	1	0.422607421875	0.5869140625	0	upper	zerothre.ttf
1590235	WORD	wordpools/wasnorm_wordpool_less_exclusions.txt	LTP220	ltpFR	1	8	1	UNICORN	1538	n/a	n/a	0	0.422607421875	0.5869140625	0	upper	zerothre.ttf
1594115	WORD	wordpools/wasnorm_wordpool_less_exclusions.txt	LTP220	ltpFR	1	8	1	TRACTOR	1493	n/a	n/a	0	0.422607421875	0.5869140625	0	upper	zerothre.ttf
1599930	REC_START	n/a	LTP220	ltpFR	1	8	n/a	n/a	n/a	n/a	n/a	n/a	n/a	n/a	n/a	n/a	n/a
1601302	REC_WORD	wordpools/wasnorm_wordpool_less_exclusions.txt	LTP220	ltpFR	1	8	1	TRACTOR	1493	n/a	n/a	0	n/a	n/a	n/a	n/a	n/a
1602248	REC_WORD	wordpools/wasnorm_wordpool_less_exclusions.txt	LTP220	ltpFR	1	8	1	STABLE	1363	n/a	n/a	1	n/a	n/a	n/a	n/a	n/a
1603247	REC_WORD_VV	wordpools/wasnorm_wordpool_less_exclusions.txt	LTP220	ltpFR	1	8	n/a	<>	-1	n/a	n/a	n/a	n/a	n/a	n/a	n/a	n/a
1606485	REC_WORD	wordpools/wasnorm_wordpool_less_exclusions.txt	LTP220	ltpFR	1	8	0	ACORN	3	n/a	n/a	3	n/a	n/a	n/a	n/a	n/a
1695398	WORD	wordpools/wasnorm_wordpool_less_exclusions.txt	LTP220	ltpFR	1	9	0	ENCYCLOPEDIA	533	n/a	n/a	1	0.57763671875	0.412841796875	1	lower	amplitud.ttf
1699572	WORD	wordpools/wasnorm_wordpool_less_exclusions.txt	LTP220	ltpFR	1	9	0	OTTER	986	n/a	n/a	1	0.57763671875	0.412841796875	1	lower	amplitud.ttf
1703511	WORD	wordpools/wasnorm_wordpool_less_exclusions.txt	LTP220	ltpFR	1	9	0	HUMAN	726	n/a	n/a	1	0.57763671875	0.412841796875	1	lower	amplitud.ttf
1707626	WORD	wordpools/wasnorm_wordpool_less_exclusions.txt	LTP220	ltpFR	1	9	0	VINEGAR	1569	n/a	n/a	1	0.57763671875	0.412841796875	1	lower	amplitud.ttf
1711708	WORD	wordpools/wasnorm_wordpool_less_exclusions.txt	LTP220	ltpFR	1	9	0	PUBLISHER	1137	n/a	n/a	1	0.57763671875	0.412841796875	1	lower	amplitud.ttf
1715857	WORD	wordpools/wasnorm_wordpool_less_exclusions.txt	LTP220	ltpFR	1	9	0	TROUT	1511	n/a	n/a	0	0.57763671875	0.412841796875	1	lower	amplitud.ttf
1719772	WORD	wordpools/wasnorm_wordpool_less_exclusions.txt	LTP220	ltpFR	1	9	0	TUNNEL	1519	n/a	n/a	1	0.57763671875	0.412841796875	1	lower	amplitud.ttf
1723687	WORD	wordpools/wasnorm_wordpool_less_exclusions.txt	LTP220	ltpFR	1	9	0	SUBWAY	1400	n/a	n/a	1	0.57763671875	0.412841796875	1	lower	amplitud.ttf
1727811	WORD	wordpools/wasnorm_wordpool_less_exclusions.txt	LTP220	ltpFR	1	9	0	CHECK	284	n/a	n/a	0	0.57763671875	0.412841796875	1	lower	amplitud.ttf
1732035	WORD	wordpools/wasnorm_wordpool_less_exclusions.txt	LTP220	ltpFR	1	9	0	NICKEL	950	n/a	n/a	0	0.57763671875	0.412841796875	1	lower	amplitud.ttf
1736009	WORD	wordpools/wasnorm_wordpool_less_exclusions.txt	LTP220	ltpFR	1	9	0	VAN	1548	n/a	n/a	0	0.57763671875	0.412841796875	1	lower	amplitud.ttf
1740183	WORD	wordpools/wasnorm_wordpool_less_exclusions.txt	LTP220	ltpFR	1	9	0	ONION	977	n/a	n/a	0	0.57763671875	0.412841796875	1	lower	amplitud.ttf
1744013	WORD	wordpools/wasnorm_wordpool_less_exclusions.txt	LTP220	ltpFR	1	9	0	BANDIT	81	n/a	n/a	0	0.57763671875	0.412841796875	1	lower	amplitud.ttf
1747945	WORD	wordpools/wasnorm_wordpool_less_exclusions.txt	LTP220	ltpFR	1	9	0	SHEET	1279	n/a	n/a	0	0.57763671875	0.412841796875	1	lower	amplitud.ttf
1751926	WORD	wordpools/wasnorm_wordpool_less_exclusions.txt	LTP220	ltpFR	1	9	0	REPORT	1184	n/a	n/a	0	0.57763671875	0.412841796875	1	lower	amplitud.ttf
1756125	WORD	wordpools/wasnorm_wordpool_less_exclusions.txt	LTP220	ltpFR	1	9	0	SEA	1259	n/a	n/a	1	0.57763671875	0.412841796875	1	lower	amplitud.ttf
1761958	REC_START	n/a	LTP220	ltpFR	1	9	n/a	n/a	n/a	n/a	n/a	n/a	n/a	n/a	n/a	n/a	n/a
1763878	REC_WORD	wordpools/wasnorm_wordpool_less_exclusions.txt	LTP220	ltpFR	1	9	0	SEA	1259	n/a	n/a	1	n/a	n/a	n/a	n/a	n/a
1764876	REC_WORD_VV	wordpools/wasnorm_wordpool_less_exclusions.txt	LTP220	ltpFR	1	9	n/a	<>	-1	n/a	n/a	n/a	n/a	n/a	n/a	n/a	n/a
1765280	REC_WORD	wordpools/wasnorm_wordpool_less_exclusions.txt	LTP220	ltpFR	1	9	0	TROUT	1511	n/a	n/a	0	n/a	n/a	n/a	n/a	n/a
1781518	REC_WORD	wordpools/wasnorm_wordpool_less_exclusions.txt	LTP220	ltpFR	1	9	0	PUBLISHER	1137	n/a	n/a	1	n/a	n/a	n/a	n/a	n/a
1787290	REC_WORD	wordpools/wasnorm_wordpool_less_exclusions.txt	LTP220	ltpFR	1	9	0	SHEET	1279	n/a	n/a	0	n/a	n/a	n/a	n/a	n/a
1805259	REC_WORD	wordpools/wasnorm_wordpool_less_exclusions.txt	LTP220	ltpFR	1	9	0	SEA	1259	n/a	n/a	1	n/a	n/a	n/a	n/a	n/a
1849453	WORD	wordpools/wasnorm_wordpool_less_exclusions.txt	LTP220	ltpFR	1	10	0	WASHER	1592	n/a	n/a	0	0.57763671875	0.412841796875	1	lower	amplitud.ttf
1853393	WORD	wordpools/wasnorm_wordpool_less_exclusions.txt	LTP220	ltpFR	1	10	0	CLOTHES	327	n/a	n/a	0	0.57763671875	0.412841796875	1	lower	amplitud.ttf
1857500	WORD	wordpools/wasnorm_wordpool_less_exclusions.txt	LTP220	ltpFR	1	10	0	MUSTARD	935	n/a	n/a	0	0.57763671875	0.412841796875	1	lower	amplitud.ttf
1861616	WORD	wordpools/wasnorm_wordpool_less_exclusions.txt	LTP220	ltpFR	1	10	0	HANGER	687	n/a	n/a	0	0.57763671875	0.412841796875	1	lower	amplitud.ttf
1865698	WORD	wordpools/wasnorm_wordpool_less_exclusions.txt	LTP220	ltpFR	1	10	0	CONDUCTOR	362	n/a	n/a	0	0.57763671875	0.412841796875	1	lower	amplitud.ttf
1869670	WORD	wordpools/wasnorm_wordpool_less_exclusions.txt	LTP220	ltpFR	1	10	0	COAT	333	n/a	n/a	0	0.57763671875	0.412841796875	1	lower	amplitud.ttf
1873786	WORD	wordpools/wasnorm_wordpool_less_exclusions.txt	LTP220	ltpFR	1	10	1	SLUG	1329	n/a	n/a	n/a	0.422607421875	0.5869140625	0	upper	zerothre.ttf
1876830	SLOW_MSG	n/a	LTP220	ltpFR	1	10	n/a	n/a	n/a	n/a	n/a	n/a	n/a	n/a	n/a	n/a	n/a
1879490	WORD	wordpools/wasnorm_wordpool_less_exclusions.txt	LTP220	ltpFR	1	10	1	CREEK	404	n/a	n/a	n/a	0.422607421875	0.5869140625	0	upper	zerothre.ttf
1882535	SLOW_MSG	n/a	LTP220	ltpFR	1	10	n/a	n/a	n/a	n/a	n/a	n/a	n/a	n/a	n/a	n/a	n/a
1885280	WORD	wordpools/wasnorm_wordpool_less_exclusions.txt	LTP220	ltpFR	1	10	1	SUBMARINE	1398	n/a	n/a	1	0.422607421875	0.5869140625	0	upper	zerothre.ttf
1889420	WORD	wordpools/wasnorm_wordpool_less_exclusions.txt	LTP220	ltpFR	1	10	0	AGENT	10	n/a	n/a	n/a	0.57763671875	0.412841796875	1	lower	amplitud.ttf
1892465	SLOW_MSG	n/a	LTP220	ltpFR	1	10	n/a	n/a	n/a	n/a	n/a	n/a	n/a	n/a	n/a	n/a	n/a
1894982	WORD	wordpools/wasnorm_wordpool_less_exclusions.txt	LTP220	ltpFR	1	10	0	RUM	1217	n/a	n/a	0	0.57763671875	0.412841796875	1	lower	amplitud.ttf
1898822	WORD	wordpools/wasnorm_wordpool_less_exclusions.txt	LTP220	ltpFR	1	10	1	STEREO	1378	n/a	n/a	n/a	0.422607421875	0.5869140625	0	upper	zerothre.ttf
1901867	SLOW_MSG	n/a	LTP220	ltpFR	1	10	n/a	n/a	n/a	n/a	n/a	n/a	n/a	n/a	n/a	n/a	n/a
1904285	WORD	wordpools/wasnorm_wordpool_less_exclusions.txt	LTP220	ltpFR	1	10	1	ROBOT	1200	n/a	n/a	0	0.422607421875	0.5869140625	0	upper	zerothre.ttf
1908343	WORD	wordpools/wasnorm_wordpool_less_exclusions.txt	LTP220	ltpFR	1	10	1	TYPEWRITER	1531	n/a	n/a	0	0.422607421875	0.5869140625	0	upper	zerothre.ttf
1912341	WORD	wordpools/wasnorm_wordpool_less_exclusions.txt	LTP220	ltpFR	1	10	1	LADY	794	n/a	n/a	1	0.422607421875	0.5869140625	0	upper	zerothre.ttf
1916496	WORD	wordpools/wasnorm_wordpool_less_exclusions.txt	LTP220	ltpFR	1	10	1	PUPPY	1144	n/a	n/a	1	0.422607421875	0.5869140625	0	upper	zerothre.ttf
1922370	REC_START	n/a	LTP220	ltpFR	1	10	n/a	n/a	n/a	n/a	n/a	n/a	n/a	n/a	n/a	n/a	n/a
1923914	REC_WORD	wordpools/wasnorm_wordpool_less_exclusions.txt	LTP220	ltpFR	1	10	1	PUPPY	1144	n/a	n/a	1	n/a	n/a	n/a	n/a	n/a
1924406	REC_WORD	wordpools/wasnorm_wordpool_less_exclusions.txt	LTP220	ltpFR	1	10	1	LADY	794	n/a	n/a	1	n/a	n/a	n/a	n/a	n/a
1924921	REC_WORD	wordpools/wasnorm_wordpool_less_exclusions.txt	LTP220	ltpFR	1	10	1	SUBMARINE	1398	n/a	n/a	1	n/a	n/a	n/a	n/a	n/a
2005950	WORD	wordpools/wasnorm_wordpool_less_exclusions.txt	LTP220	ltpFR	1	11	1	SPARROW	1347	n/a	n/a	3	0.422607421875	0.5869140625	0	upper	zerothre.ttf
2007256	KEY_MSG	n/a	LTP220	ltpFR	1	11	n/a	n/a	n/a	n/a	n/a	n/a	n/a	n/a	n/a	n/a	n/a
2009891	WORD	wordpools/wasnorm_wordpool_less_exclusions.txt	LTP220	ltpFR	1	11	1	DISC	473	n/a	n/a	0	0.422607421875	0.5869140625	0	upper	zerothre.ttf
2013772	WORD	wordpools/wasnorm_wordpool_less_exclusions.txt	LTP220	ltpFR	1	11	1	REBEL	1172	n/a	n/a	1	0.422607421875	0.5869140625	0	upper	zerothre.ttf
2017721	WORD	wordpools/wasnorm_wordpool_less_exclusions.txt	LTP220	ltpFR	1	11	1	HEDGE	699	n/a	n/a	1	0.422607421875	0.5869140625	0	upper	zerothre.ttf
2021602	WORD	wordpools/wasnorm_wordpool_less_exclusions.txt	LTP220	ltpFR	1	11	1	VASE	1549	n/a	n/a	0	0.422607421875	0.5869140625	0	upper	zerothre.ttf
2025792	WORD	wordpools/wasnorm_wordpool_less_exclusions.txt	LTP220	ltpFR	1	11	0	CROW	414	n/a	n/a	0	0.57763671875	0.412841796875	1	lower	amplitud.ttf
2029991	WORD	wordpools/wasnorm_wordpool_less_exclusions.txt	LTP220	ltpFR	1	11	0	BANQUET	86	n/a	n/a	0	0.57763671875	0.412841796875	1	lower	amplitud.ttf
2034191	WORD	wordpools/wasnorm_wordpool_less_exclusions.txt	LTP220	ltpFR	1	11	1	SAUSAGE	1238	n/a	n/a	2	0.422607421875	0.5869140625	0	upper	zerothre.ttf
2036465	KEY_MSG	n/a	LTP220	ltpFR	1	11	n/a	n/a	n/a	n/a	n/a	n/a	n/a	n/a	n/a	n/a	n/a
2039210	WORD	wordpools/wasnorm_wordpool_less_exclusions.txt	LTP220	ltpFR	1	11	1	WARRIOR	1589	n/a	n/a	1	0.422607421875	0.5869140625	0	upper	zerothre.ttf
2043218	WORD	wordpools/wasnorm_wordpool_less_exclusions.txt	LTP220	ltpFR	1	11	1	MARS	873	n/a	n/a	1	0.422607421875	0.5869140625	0	upper	zerothre.ttf
2047081	WORD	wordpools/wasnorm_wordpool_less_exclusions.txt	LTP220	ltpFR	1	11	0	PLANET	1082	n/a	n/a	n/a	0.57763671875	0.412841796875	1	lower	amplitud.ttf
2050126	SLOW_MSG	n/a	LTP220	ltpFR	1	11	n/a	n/a	n/a	n/a	n/a	n/a	n/a	n/a	n/a	n/a	n/a
2052760	WORD	wordpools/wasnorm_wordpool_less_exclusions.txt	LTP220	ltpFR	1	11	0	BASEBALL	93	n/a	n/a	1	0.57763671875	0.412841796875	1	lower	amplitud.ttf
2056584	WORD	wordpools/wasnorm_wordpool_less_exclusions.txt	LTP220	ltpFR	1	11	0	CHEMICAL	291	n/a	n/a	0	0.57763671875	0.412841796875	1	lower	amplitud.ttf
2060565	WORD	wordpools/wasnorm_wordpool_less_exclusions.txt	LTP220	ltpFR	1	11	0	WILDERNESS	1610	n/a	n/a	1	0.57763671875	0.412841796875	1	lower	amplitud.ttf
2064631	WORD	wordpools/wasnorm_wordpool_less_exclusions.txt	LTP220	ltpFR	1	11	0	CELLAR	267	n/a	n/a	0	0.57763671875	0.412841796875	1	lower	amplitud.ttf
2068837	WORD	wordpools/wasnorm_wordpool_less_exclusions.txt	LTP220	ltpFR	1	11	0	HALL	677	n/a	n/a	1	0.57763671875	0.412841796875	1	lower	amplitud.ttf
2074844	REC_START	n/a	LTP220	ltpFR	1	11	n/a	n/a	n/a	n/a	n/a	n/a	n/a	n/a	n/a	n/a	n/a
2076680	REC_WORD	wordpools/wasnorm_wordpool_less_exclusions.txt	LTP220	ltpFR	1	11	0	HALL	677	n/a	n/a	1	n/a	n/a	n/a	n/a	n/a
2077229	REC_WORD	wordpools/wasnorm_wordpool_less_exclusions.txt	LTP220	ltpFR	1	11	0	CELLAR	267	n/a	n/a	0	n/a	n/a	n/a	n/a	n/a
2081079	REC_WORD	wordpools/wasnorm_wordpool_less_exclusions.txt	LTP220	ltpFR	1	11	1	SUBMARINE	1398	n/a	n/a	1	n/a	n/a	n/a	n/a	n/a
2111161	REC_WORD	wordpools/wasnorm_wordpool_less_exclusions.txt	LTP220	ltpFR	1	11	0	BANQUET	86	n/a	n/a	0	n/a	n/a	n/a	n/a	n/a
2120822	REC_WORD	wordpools/wasnorm_wordpool_less_exclusions.txt	LTP220	ltpFR	1	11	0	HALL	677	n/a	n/a	1	n/a	n/a	n/a	n/a	n/a
2125963	REC_WORD	wordpools/wasnorm_wordpool_less_exclusions.txt	LTP220	ltpFR	1	11	1	MARS	873	n/a	n/a	1	n/a	n/a	n/a	n/a	n/a
2166648	WORD	wordpools/wasnorm_wordpool_less_exclusions.txt	LTP220	ltpFR	1	12	1	DICTATOR	462	n/a	n/a	2	0.422607421875	0.5869140625	0	upper	zerothre.ttf
2167994	KEY_MSG	n/a	LTP220	ltpFR	1	12	n/a	n/a	n/a	n/a	n/a	n/a	n/a	n/a	n/a	n/a	n/a
2170654	WORD	wordpools/wasnorm_wordpool_less_exclusions.txt	LTP220	ltpFR	1	12	1	CLOWN	330	n/a	n/a	2	0.422607421875	0.5869140625	0	upper	zerothre.ttf
2172161	KEY_MSG	n/a	LTP220	ltpFR	1	12	n/a	n/a	n/a	n/a	n/a	n/a	n/a	n/a	n/a	n/a	n/a
2174870	WORD	wordpools/wasnorm_wordpool_less_exclusions.txt	LTP220	ltpFR	1	12	1	REFRIGERATOR	1179	n/a	n/a	0	0.422607421875	0.5869140625	0	upper	zerothre.ttf
2178952	WORD	wordpools/wasnorm_wordpool_less_exclusions.txt	LTP220	ltpFR	1	12	1	SOCKET	1340	n/a	n/a	0	0.422607421875	0.5869140625	0	upper	zerothre.ttf
2182817	WORD	wordpools/wasnorm_wordpool_less_exclusions.txt	LTP220	ltpFR	1	12	1	GLASSES	640	n/a	n/a	0	0.422607421875	0.5869140625	0	upper	zerothre.ttf
2186841	WORD	wordpools/wasnorm_wordpool_less_exclusions.txt	LTP220	ltpFR	1	12	1	CHEERLEADER	288	n/a	n/a	1	0.422607421875	0.5869140625	0	upper	zerothre.ttf
2190780	WORD	wordpools/wasnorm_wordpool_less_exclusions.txt	LTP220	ltpFR	1	12	1	ATHLETE	52	n/a	n/a	1	0.422607421875	0.5869140625	0	upper	zerothre.ttf
2194879	WORD	wordpools/wasnorm_wordpool_less_exclusions.txt	LTP220	ltpFR	1	12	1	PRAIRIE	1118	n/a	n/a	1	0.422607421875	0.5869140625	0	upper	zerothre.ttf
2198937	WORD	wordpools/wasnorm_wordpool_less_exclusions.txt	LTP220	ltpFR	1	12	1	EMPEROR	529	n/a	n/a	0	0.422607421875	0.5869140625	0	upper	zerothre.ttf
2202926	WORD	wordpools/wasnorm_wordpool_less_exclusions.txt	LTP220	ltpFR	1	12	1	TAXI	1438	n/a	n/a	0	0.422607421875	0.5869140625	0	upper	zerothre.ttf
2206924	WORD	wordpools/wasnorm_wordpool_less_exclusions.txt	LTP220	ltpFR	1	12	1	TICK	1463	n/a	n/a	1	0.422607421875	0.5869140625	0	upper	zerothre.ttf
2210865	WORD	wordpools/wasnorm_wordpool_less_exclusions.txt	LTP220	ltpFR	1	12	1	TOAST	1471	n/a	n/a	1	0.422607421875	0.5869140625	0	upper	zerothre.ttf
2214955	WORD	wordpools/wasnorm_wordpool_less_exclusions.txt	LTP220	ltpFR	1	12	1	CRUMB	416	n/a	n/a	1	0.422607421875	0.5869140625	0	upper	zerothre.ttf
2219104	WORD	wordpools/wasnorm_wordpool_less_exclusions.txt	LTP220	ltpFR	1	12	1	ASSISTANT	48	n/a	n/a	1	0.422607421875	0.5869140625	0	upper	zerothre.ttf
2223153	WORD	wordpools/wasnorm_wordpool_less_exclusions.txt	LTP220	ltpFR	1	12	1	DILL	465	n/a	n/a	1	0.422607421875	0.5869140625	0	upper	zerothre.ttf
2227117	WORD	wordpools/wasnorm_wordpool_less_exclusions.txt	LTP220	ltpFR	1	12	1	CIRCUS	311	n/a	n/a	1	0.422607421875	0.5869140625	0	upper	zerothre.ttf
2232823	REC_START	n/a	LTP220	ltpFR	1	12	n/a	n/a	n/a	n/a	n/a	n/a	n/a	n/a	n/a	n/a	n/a
2234429	REC_WORD	wordpools/wasnorm_wordpool_less_exclusions.txt	LTP220	ltpFR	1	12	1	CIRCUS	311	n/a	n/a	1	n/a	n/a	n/a	n/a	n/a
2235512	REC_WORD_VV	wordpools/wasnorm_wordpool_less_exclusions.txt	LTP220	ltpFR	1	12	n/a	<>	-1	n/a	n/a	n/a	n/a	n/a	n/a	n/a	n/a
2236789	REC_WORD	wordpools/wasnorm_wordpool_less_exclusions.txt	LTP220	ltpFR	1	12	1	DILL	465	n/a	n/a	1	n/a	n/a	n/a	n/a	n/a
2303303	REC_WORD	wordpools/wasnorm_wordpool_less_exclusions.txt	LTP220	ltpFR	1	12	1	CHEERLEADER	288	n/a	n/a	1	n/a	n/a	n/a	n/a	n/a
2308466	REST_REWET	n/a	LTP220	ltpFR	1	12	n/a	n/a	n/a	n/a	n/a	n/a	n/a	n/a	n/a	n/a	n/a
2714688	WORD	wordpools/wasnorm_wordpool_less_exclusions.txt	LTP220	ltpFR	1	13	1	LEOPARD	812	n/a	n/a	3	0.422607421875	0.5869140625	0	upper	zerothre.ttf
2717599	KEY_MSG	n/a	LTP220	ltpFR	1	13	n/a	n/a	n/a	n/a	n/a	n/a	n/a	n/a	n/a	n/a	n/a
2720134	WORD	wordpools/wasnorm_wordpool_less_exclusions.txt	LTP220	ltpFR	1	13	1	SINK	1309	n/a	n/a	0	0.422607421875	0.5869140625	0	upper	zerothre.ttf
2724158	WORD	wordpools/wasnorm_wordpool_less_exclusions.txt	LTP220	ltpFR	1	13	1	RADIATOR	1156	n/a	n/a	0	0.422607421875	0.5869140625	0	upper	zerothre.ttf
2728316	WORD	wordpools/wasnorm_wordpool_less_exclusions.txt	LTP220	ltpFR	1	13	0	MOSQUITO	917	n/a	n/a	0	0.57763671875	0.412841796875	1	lower	amplitud.ttf
2732447	WORD	wordpools/wasnorm_wordpool_less_exclusions.txt	LTP220	ltpFR	1	13	0	TIGER	1467	n/a	n/a	0	0.57763671875	0.412841796875	1	lower	amplitud.ttf
2736580	WORD	wordpools/wasnorm_wordpool_less_exclusions.txt	LTP220	ltpFR	1	13	0	KEY	773	n/a	n/a	0	0.57763671875	0.412841796875	1	lower	amplitud.ttf
2740770	WORD	wordpools/wasnorm_wordpool_less_exclusions.txt	LTP220	ltpFR	1	13	0	TOILET	1475	n/a	n/a	0	0.57763671875	0.412841796875	1	lower	amplitud.ttf
2744677	WORD	wordpools/wasnorm_wordpool_less_exclusions.txt	LTP220	ltpFR	1	13	0	ASSOCIATE	49	n/a	n/a	0	0.57763671875	0.412841796875	1	lower	amplitud.ttf
2748850	WORD	wordpools/wasnorm_wordpool_less_exclusions.txt	LTP220	ltpFR	1	13	1	POLYESTER	1100	n/a	n/a	0	0.422607421875	0.5869140625	0	upper	zerothre.ttf
2752690	WORD	wordpools/wasnorm_wordpool_less_exclusions.txt	LTP220	ltpFR	1	13	1	COMB	351	n/a	n/a	0	0.422607421875	0.5869140625	0	upper	zerothre.ttf
2756696	WORD	wordpools/wasnorm_wordpool_less_exclusions.txt	LTP220	ltpFR	1	13	0	RIBBON	1189	n/a	n/a	2	0.57763671875	0.412841796875	1	lower	amplitud.ttf
2758101	KEY_MSG	n/a	LTP220	ltpFR	1	13	n/a	n/a	n/a	n/a	n/a	n/a	n/a	n/a	n/a	n/a	n/a
2760620	WORD	wordpools/wasnorm_wordpool_less_exclusions.txt	LTP220	ltpFR	1	13	0	BLUEJAY	141	n/a	n/a	0	0.57763671875	0.412841796875	1	lower	amplitud.ttf
2764693	WORD	wordpools/wasnorm_wordpool_less_exclusions.txt	LTP220	ltpFR	1	13	0	QUAIL	1147	n/a	n/a	0	0.57763671875	0.412841796875	1	lower	amplitud.ttf
2768859	WORD	wordpools/wasnorm_wordpool_less_exclusions.txt	LTP220	ltpFR	1	13	1	SCENERY	1247	n/a	n/a	1	0.422607421875	0.5869140625	0	upper	zerothre.ttf
2772833	WORD	wordpools/wasnorm_wordpool_less_exclusions.txt	LTP220	ltpFR	1	13	1	CANYON	235	n/a	n/a	1	0.422607421875	0.5869140625	0	upper	zerothre.ttf
2776882	WORD	wordpools/wasnorm_wordpool_less_exclusions.txt	LTP220	ltpFR	1	13	1	TEAPOT	1442	n/a	n/a	0	0.422607421875	0.5869140625	0	upper	zerothre.ttf
2782963	REC_START	n/a	LTP220	ltpFR	1	13	n/a	n/a	n/a	n/a	n/a	n/a	n/a	n/a	n/a	n/a	n/a
2785088	REC_WORD	wordpools/wasnorm_wordpool_less_exclusions.txt	LTP220	ltpFR	1	13	1	TEAPOT	1442	n/a	n/a	0	n/a	n/a	n/a	n/a	n/a
2787208	REC_WORD	wordpools/wasnorm_wordpool_less_exclusions.txt	LTP220	ltpFR	1	13	1	CANYON	235	n/a	n/a	1	n/a	n/a	n/a	n/a	n/a
2824703	REC_WORD	wordpools/wasnorm_wordpool_less_exclusions.txt	LTP220	ltpFR	1	13	0	TIGER	1467	n/a	n/a	0	n/a	n/a	n/a	n/a	n/a
2867088	WORD	wordpools/wasnorm_wordpool_less_exclusions.txt	LTP220	ltpFR	1	14	1	PILOT	1070	n/a	n/a	2	0.422607421875	0.5869140625	0	upper	zerothre.ttf
2869588	KEY_MSG	n/a	LTP220	ltpFR	1	14	n/a	n/a	n/a	n/a	n/a	n/a	n/a	n/a	n/a	n/a	n/a
2872182	WORD	wordpools/wasnorm_wordpool_less_exclusions.txt	LTP220	ltpFR	1	14	1	BUREAU	199	n/a	n/a	0	0.422607421875	0.5869140625	0	upper	zerothre.ttf
2876190	WORD	wordpools/wasnorm_wordpool_less_exclusions.txt	LTP220	ltpFR	1	14	1	SWEATER	1419	n/a	n/a	0	0.422607421875	0.5869140625	0	upper	zerothre.ttf
2880263	WORD	wordpools/wasnorm_wordpool_less_exclusions.txt	LTP220	ltpFR	1	14	1	JOINT	758	n/a	n/a	1	0.422607421875	0.5869140625	0	upper	zerothre.ttf
2884354	WORD	wordpools/wasnorm_wordpool_less_exclusions.txt	LTP220	ltpFR	1	14	1	VINE	1568	n/a	n/a	1	0.422607421875	0.5869140625	0	upper	zerothre.ttf
2888469	WORD	wordpools/wasnorm_wordpool_less_exclusions.txt	LTP220	ltpFR	1	14	1	SAW	1239	n/a	n/a	0	0.422607421875	0.5869140625	0	upper	zerothre.ttf
2892450	WORD	wordpools/wasnorm_wordpool_less_exclusions.txt	LTP220	ltpFR	1	14	1	BLADE	134	n/a	n/a	0	0.422607421875	0.5869140625	0	upper	zerothre.ttf
2896473	WORD	wordpools/wasnorm_wordpool_less_exclusions.txt	LTP220	ltpFR	1	14	1	TAIL	1430	n/a	n/a	1	0.422607421875	0.5869140625	0	upper	zerothre.ttf
2900689	WORD	wordpools/wasnorm_wordpool_less_exclusions.txt	LTP220	ltpFR	1	14	1	KLEENEX	782	n/a	n/a	0	0.422607421875	0.5869140625	0	upper	zerothre.ttf
2904897	WORD	wordpools/wasnorm_wordpool_less_exclusions.txt	LTP220	ltpFR	1	14	1	NOSE	957	n/a	n/a	1	0.422607421875	0.5869140625	0	upper	zerothre.ttf
2909004	WORD	wordpools/wasnorm_wordpool_less_exclusions.txt	LTP220	ltpFR	1	14	1	PAW	1029	n/a	n/a	1	0.422607421875	0.5869140625	0	upper	zerothre.ttf
2912928	WORD	wordpools/wasnorm_wordpool_less_exclusions.txt	LTP220	ltpFR	1	14	1	DOG	480	n/a	n/a	1	0.422607421875	0.5869140625	0	upper	zerothre.ttf
2916950	WORD	wordpools/wasnorm_wordpool_less_exclusions.txt	LTP220	ltpFR	1	14	1	CUFF	423	n/a	n/a	0	0.422607421875	0.5869140625	0	upper	zerothre.ttf
2920831	WORD	wordpools/wasnorm_wordpool_less_exclusions.txt	LTP220	ltpFR	1	14	1	PLUM	1090	n/a	n/a	1	0.422607421875	0.5869140625	0	upper	zerothre.ttf
2924980	WORD	wordpools/wasnorm_wordpool_less_exclusions.txt	LTP220	ltpFR	1	14	1	PASSENGER	1020	n/a	n/a	1	0.422607421875	0.5869140625	0	upper	zerothre.ttf
2929079	WORD	wordpools/wasnorm_wordpool_less_exclusions.txt	LTP220	ltpFR	1	14	1	SERVER	1272	n/a	n/a	1	0.422607421875	0.5869140625	0	upper	zerothre.ttf
2934778	REC_START	n/a	LTP220	ltpFR	1	14	n/a	n/a	n/a	n/a	n/a	n/a	n/a	n/a	n/a	n/a	n/a
2936190	REC_WORD	wordpools/wasnorm_wordpool_less_exclusions.txt	LTP220	ltpFR	1	14	1	SERVER	1272	n/a	n/a	1	n/a	n/a	n/a	n/a	n/a
2937117	REC_WORD	wordpools/wasnorm_wordpool_less_exclusions.txt	LTP220	ltpFR	1	14	1	PASSENGER	1020	n/a	n/a	1	n/a	n/a	n/a	n/a	n/a
2938045	REC_WORD	wordpools/wasnorm_wordpool_less_exclusions.txt	LTP220	ltpFR	1	14	1	DOG	480	n/a	n/a	1	n/a	n/a	n/a	n/a	n/a
2938674	REC_WORD	wordpools/wasnorm_wordpool_less_exclusions.txt	LTP220	ltpFR	1	14	1	PAW	1029	n/a	n/a	1	n/a	n/a	n/a	n/a	n/a
2939816	REC_WORD	wordpools/wasnorm_wordpool_less_exclusions.txt	LTP220	ltpFR	1	14	1	TAIL	1430	n/a	n/a	1	n/a	n/a	n/a	n/a	n/a
2941725	REC_WORD	wordpools/wasnorm_wordpool_less_exclusions.txt	LTP220	ltpFR	1	14	1	NOSE	957	n/a	n/a	1	n/a	n/a	n/a	n/a	n/a
2970976	REC_WORD	wordpools/wasnorm_wordpool_less_exclusions.txt	LTP220	ltpFR	1	14	1	CUFF	423	n/a	n/a	0	n/a	n/a	n/a	n/a	n/a
2972677	REC_WORD	wordpools/wasnorm_wordpool_less_exclusions.txt	LTP220	ltpFR	1	14	-1	PANTS	1010	n/a	n/a	-1	n/a	n/a	n/a	n/a	n/a
2974537	REC_WORD	wordpools/wasnorm_wordpool_less_exclusions.txt	LTP220	ltpFR	1	14	1	SWEATER	1419	n/a	n/a	0	n/a	n/a	n/a	n/a	n/a
3017246	WORD	wordpools/wasnorm_wordpool_less_exclusions.txt	LTP220	ltpFR	1	15	-1	MESSAGE	888	n/a	n/a	-1	1.0	1.0	1	upper	Verdana.ttf
3021420	WORD	wordpools/wasnorm_wordpool_less_exclusions.txt	LTP220	ltpFR	1	15	-1	TRUMPET	1513	n/a	n/a	-1	1.0	1.0	1	upper	Verdana.ttf
3025519	WORD	wordpools/wasnorm_wordpool_less_exclusions.txt	LTP220	ltpFR	1	15	-1	NIGHTGOWN	953	n/a	n/a	-1	1.0	1.0	1	upper	Verdana.ttf
3029424	WORD	wordpools/wasnorm_wordpool_less_exclusions.txt	LTP220	ltpFR	1	15	-1	FENCE	560	n/a	n/a	-1	1.0	1.0	1	upper	Verdana.ttf
3033473	WORD	wordpools/wasnorm_wordpool_less_exclusions.txt	LTP220	ltpFR	1	15	-1	RADIO	1157	n/a	n/a	-1	1.0	1.0	1	upper	Verdana.ttf
3037421	WORD	wordpools/wasnorm_wordpool_less_exclusions.txt	LTP220	ltpFR	1	15	-1	CLARINET	317	n/a	n/a	-1	1.0	1.0	1	upper	Verdana.ttf
3041379	WORD	wordpools/wasnorm_wordpool_less_exclusions.txt	LTP220	ltpFR	1	15	-1	AUTHOR	61	n/a	n/a	-1	1.0	1.0	1	upper	Verdana.ttf
3045585	WORD	wordpools/wasnorm_wordpool_less_exclusions.txt	LTP220	ltpFR	1	15	-1	PUBLICATION	1136	n/a	n/a	-1	1.0	1.0	1	upper	Verdana.ttf
3049659	WORD	wordpools/wasnorm_wordpool_less_exclusions.txt	LTP220	ltpFR	1	15	-1	BAND	78	n/a	n/a	-1	1.0	1.0	1	upper	Verdana.ttf
3053842	WORD	wordpools/wasnorm_wordpool_less_exclusions.txt	LTP220	ltpFR	1	15	-1	SENATOR	1268	n/a	n/a	-1	1.0	1.0	1	upper	Verdana.ttf
3057798	WORD	wordpools/wasnorm_wordpool_less_exclusions.txt	LTP220	ltpFR	1	15	-1	CAT	257	n/a	n/a	-1	1.0	1.0	1	upper	Verdana.ttf
3061880	WORD	wordpools/wasnorm_wordpool_less_exclusions.txt	LTP220	ltpFR	1	15	-1	NOTE	958	n/a	n/a	-1	1.0	1.0	1	upper	Verdana.ttf
3066071	WORD	wordpools/wasnorm_wordpool_less_exclusions.txt	LTP220	ltpFR	1	15	-1	BOARD	143	n/a	n/a	-1	1.0	1.0	1	upper	Verdana.ttf
3070255	WORD	wordpools/wasnorm_wordpool_less_exclusions.txt	LTP220	ltpFR	1	15	-1	LABEL	790	n/a	n/a	-1	1.0	1.0	1	upper	Verdana.ttf
3074337	WORD	wordpools/wasnorm_wordpool_less_exclusions.txt	LTP220	ltpFR	1	15	-1	COMMUNITY	356	n/a	n/a	-1	1.0	1.0	1	upper	Verdana.ttf
3078492	WORD	wordpools/wasnorm_wordpool_less_exclusions.txt	LTP220	ltpFR	1	15	-1	CARAVAN	242	n/a	n/a	-1	1.0	1.0	1	upper	Verdana.ttf
3084249	REC_START	n/a	LTP220	ltpFR	1	15	n/a	n/a	n/a	n/a	n/a	n/a	n/a	n/a	n/a	n/a	n/a
3085546	REC_WORD	wordpools/wasnorm_wordpool_less_exclusions.txt	LTP220	ltpFR	1	15	-1	CAT	257	n/a	n/a	-1	n/a	n/a	n/a	n/a	n/a
3086174	REC_WORD	wordpools/wasnorm_wordpool_less_exclusions.txt	LTP220	ltpFR	1	15	-1	CARAVAN	242	n/a	n/a	-1	n/a	n/a	n/a	n/a	n/a
3087127	REC_WORD	wordpools/wasnorm_wordpool_less_exclusions.txt	LTP220	ltpFR	1	15	-1	COMMUNITY	356	n/a	n/a	-1	n/a	n/a	n/a	n/a	n/a
3088132	REC_WORD_VV	wordpools/wasnorm_wordpool_less_exclusions.txt	LTP220	ltpFR	1	15	n/a	<>	-1	n/a	n/a	n/a	n/a	n/a	n/a	n/a	n/a
3089287	REC_WORD	wordpools/wasnorm_wordpool_less_exclusions.txt	LTP220	ltpFR	1	15	-1	BOARD	143	n/a	n/a	-1	n/a	n/a	n/a	n/a	n/a
3090230	REC_WORD	wordpools/wasnorm_wordpool_less_exclusions.txt	LTP220	ltpFR	1	15	-1	NOTE	958	n/a	n/a	-1	n/a	n/a	n/a	n/a	n/a
3091687	REC_WORD	wordpools/wasnorm_wordpool_less_exclusions.txt	LTP220	ltpFR	1	15	-1	AUTHOR	61	n/a	n/a	-1	n/a	n/a	n/a	n/a	n/a
3092335	REC_WORD	wordpools/wasnorm_wordpool_less_exclusions.txt	LTP220	ltpFR	1	15	0	PUBLISHER	1137	n/a	n/a	1	n/a	n/a	n/a	n/a	n/a
3118431	REC_WORD	wordpools/wasnorm_wordpool_less_exclusions.txt	LTP220	ltpFR	1	15	-1	CARAVAN	242	n/a	n/a	-1	n/a	n/a	n/a	n/a	n/a
3168399	WORD	wordpools/wasnorm_wordpool_less_exclusions.txt	LTP220	ltpFR	1	16	0	WINDOW	1611	n/a	n/a	1	0.57763671875	0.412841796875	1	lower	amplitud.ttf
3172597	WORD	wordpools/wasnorm_wordpool_less_exclusions.txt	LTP220	ltpFR	1	16	0	JELLO	754	n/a	n/a	0	0.57763671875	0.412841796875	1	lower	amplitud.ttf
3176645	WORD	wordpools/wasnorm_wordpool_less_exclusions.txt	LTP220	ltpFR	1	16	0	DASHBOARD	441	n/a	n/a	0	0.57763671875	0.412841796875	1	lower	amplitud.ttf
3180653	WORD	wordpools/wasnorm_wordpool_less_exclusions.txt	LTP220	ltpFR	1	16	1	ACTRESS	6	n/a	n/a	1	0.422607421875	0.5869140625	0	upper	zerothre.ttf
3184743	WORD	wordpools/wasnorm_wordpool_less_exclusions.txt	LTP220	ltpFR	1	16	1	EGG	518	n/a	n/a	1	0.422607421875	0.5869140625	0	upper	zerothre.ttf
3188951	WORD	wordpools/wasnorm_wordpool_less_exclusions.txt	LTP220	ltpFR	1	16	0	SHED	1277	n/a	n/a	0	0.57763671875	0.412841796875	1	lower	amplitud.ttf
3192857	WORD	wordpools/wasnorm_wordpool_less_exclusions.txt	LTP220	ltpFR	1	16	0	VET	1560	n/a	n/a	1	0.57763671875	0.412841796875	1	lower	amplitud.ttf
3196714	WORD	wordpools/wasnorm_wordpool_less_exclusions.txt	LTP220	ltpFR	1	16	0	SUPERVISOR	1410	n/a	n/a	1	0.57763671875	0.412841796875	1	lower	amplitud.ttf
3200619	WORD	wordpools/wasnorm_wordpool_less_exclusions.txt	LTP220	ltpFR	1	16	1	EMPLOYEE	531	n/a	n/a	n/a	0.422607421875	0.5869140625	0	upper	zerothre.ttf
3203664	SLOW_MSG	n/a	LTP220	ltpFR	1	16	n/a	n/a	n/a	n/a	n/a	n/a	n/a	n/a	n/a	n/a	n/a
3206032	WORD	wordpools/wasnorm_wordpool_less_exclusions.txt	LTP220	ltpFR	1	16	1	GARAGE	621	n/a	n/a	0	0.422607421875	0.5869140625	0	upper	zerothre.ttf
3209997	WORD	wordpools/wasnorm_wordpool_less_exclusions.txt	LTP220	ltpFR	1	16	1	FOREST	593	n/a	n/a	1	0.422607421875	0.5869140625	0	upper	zerothre.ttf
3214103	WORD	wordpools/wasnorm_wordpool_less_exclusions.txt	LTP220	ltpFR	1	16	1	LITTER	832	n/a	n/a	0	0.422607421875	0.5869140625	0	upper	zerothre.ttf
3218068	WORD	wordpools/wasnorm_wordpool_less_exclusions.txt	LTP220	ltpFR	1	16	1	TOTE	1487	n/a	n/a	0	0.422607421875	0.5869140625	0	upper	zerothre.ttf
3221909	WORD	wordpools/wasnorm_wordpool_less_exclusions.txt	LTP220	ltpFR	1	16	1	ENVELOPE	537	n/a	n/a	0	0.422607421875	0.5869140625	0	upper	zerothre.ttf
3225998	WORD	wordpools/wasnorm_wordpool_less_exclusions.txt	LTP220	ltpFR	1	16	0	COCOON	339	n/a	n/a	3	0.57763671875	0.412841796875	1	lower	amplitud.ttf
3227437	KEY_MSG	n/a	LTP220	ltpFR	1	16	n/a	n/a	n/a	n/a	n/a	n/a	n/a	n/a	n/a	n/a	n/a
3230130	WORD	wordpools/wasnorm_wordpool_less_exclusions.txt	LTP220	ltpFR	1	16	0	ROOSTER	1209	n/a	n/a	0	0.57763671875	0.412841796875	1	lower	amplitud.ttf
3235929	REC_START	n/a	LTP220	ltpFR	1	16	n/a	n/a	n/a	n/a	n/a	n/a	n/a	n/a	n/a	n/a	n/a
3238353	REC_WORD	wordpools/wasnorm_wordpool_less_exclusions.txt	LTP220	ltpFR	1	16	0	ROOSTER	1209	n/a	n/a	0	n/a	n/a	n/a	n/a	n/a
3239650	REC_WORD	wordpools/wasnorm_wordpool_less_exclusions.txt	LTP220	ltpFR	1	16	1	EGG	518	n/a	n/a	1	n/a	n/a	n/a	n/a	n/a
3264357	REC_WORD	wordpools/wasnorm_wordpool_less_exclusions.txt	LTP220	ltpFR	1	16	1	EMPLOYEE	531	n/a	n/a	n/a	n/a	n/a	n/a	n/a	n/a
3265358	REC_WORD_VV	wordpools/wasnorm_wordpool_less_exclusions.txt	LTP220	ltpFR	1	16	n/a	<>	-1	n/a	n/a	n/a	n/a	n/a	n/a	n/a	n/a
3267411	REC_WORD	wordpools/wasnorm_wordpool_less_exclusions.txt	LTP220	ltpFR	1	16	0	SUPERVISOR	1410	n/a	n/a	1	n/a	n/a	n/a	n/a	n/a
3268412	REC_WORD_VV	wordpools/wasnorm_wordpool_less_exclusions.txt	LTP220	ltpFR	1	16	n/a	<>	-1	n/a	n/a	n/a	n/a	n/a	n/a	n/a	n/a
3277235	REC_WORD	wordpools/wasnorm_wordpool_less_exclusions.txt	LTP220	ltpFR	1	16	n/a	MANAGER	863	n/a	n/a	n/a	n/a	n/a	n/a	n/a	n/a
3415640	REC_START	n/a	LTP220	ltpFR	1	1	n/a	n/a	n/a	n/a	n/a	n/a	n/a	n/a	n/a	n/a	n/a
3415689	RECOG_TARGET	n/a	LTP220	ltpFR	1	1	1	OLIVE	975	0	3	1	n/a	n/a	n/a	n/a	n/a
3421337	RECOG_RESP	n/a	LTP220	ltpFR	1	1	1	OLIVE	975	0	n/a	1	n/a	n/a	n/a	n/a	n/a
3426535	RECOG_CONF	n/a	LTP220	ltpFR	1	1	1	OLIVE	975	n/a	3	1	n/a	n/a	n/a	n/a	n/a
3429022	RECOG_LURE	n/a	LTP220	ltpFR	1	1	n/a	PEDAL	1037	1	2	n/a	n/a	n/a	n/a	n/a	n/a
3434098	RECOG_RESP	n/a	LTP220	ltpFR	1	1	n/a	PEDAL	1037	1	n/a	n/a	n/a	n/a	n/a	n/a	n/a
3437225	RECOG_CONF	n/a	LTP220	ltpFR	1	1	n/a	PEDAL	1037	n/a	2	n/a	n/a	n/a	n/a	n/a	n/a
3439387	RECOG_TARGET	n/a	LTP220	ltpFR	1	1	0	ENCYCLOPEDIA	533	1	4	1	n/a	n/a	n/a	n/a	n/a
3443297	RECOG_RESP	n/a	LTP220	ltpFR	1	1	0	ENCYCLOPEDIA	533	1	n/a	1	n/a	n/a	n/a	n/a	n/a
3446124	RECOG_CONF	n/a	LTP220	ltpFR	1	1	0	ENCYCLOPEDIA	533	n/a	4	1	n/a	n/a	n/a	n/a	n/a
3448246	RECOG_TARGET	n/a	LTP220	ltpFR	1	1	0	CHECK	284	1	5	0	n/a	n/a	n/a	n/a	n/a
3449706	RECOG_RESP	n/a	LTP220	ltpFR	1	1	0	CHECK	284	1	n/a	0	n/a	n/a	n/a	n/a	n/a
3452118	RECOG_CONF	n/a	LTP220	ltpFR	1	1	0	CHECK	284	n/a	5	0	n/a	n/a	n/a	n/a	n/a
3454526	RECOG_LURE	n/a	LTP220	ltpFR	1	1	n/a	OATMEAL	967	1	4	n/a	n/a	n/a	n/a	n/a	n/a
3456525	RECOG_RESP	n/a	LTP220	ltpFR	1	1	n/a	OATMEAL	967	1	n/a	n/a	n/a	n/a	n/a	n/a	n/a
3458326	RECOG_CONF	n/a	LTP220	ltpFR	1	1	n/a	OATMEAL	967	n/a	4	n/a	n/a	n/a	n/a	n/a	n/a
3460625	RECOG_TARGET	n/a	LTP220	ltpFR	1	1	1	SAUSAGE	1238	1	5	2	n/a	n/a	n/a	n/a	n/a
3462042	RECOG_RESP	n/a	LTP220	ltpFR	1	1	1	SAUSAGE	1238	1	n/a	2	n/a	n/a	n/a	n/a	n/a
3463732	RECOG_CONF	n/a	LTP220	ltpFR	1	1	1	SAUSAGE	1238	n/a	5	2	n/a	n/a	n/a	n/a	n/a
3465861	RECOG_TARGET	n/a	LTP220	ltpFR	1	1	-1	HAWK	692	1	5	-1	n/a	n/a	n/a	n/a	n/a
3466898	RECOG_RESP	n/a	LTP220	ltpFR	1	1	-1	HAWK	692	1	n/a	-1	n/a	n/a	n/a	n/a	n/a
3468555	RECOG_CONF	n/a	LTP220	ltpFR	1	1	-1	HAWK	692	n/a	5	-1	n/a	n/a	n/a	n/a	n/a
3470696	RECOG_TARGET	n/a	LTP220	ltpFR	1	1	1	GARAGE	621	1	5	0	n/a	n/a	n/a	n/a	n/a
3471656	RECOG_RESP	n/a	LTP220	ltpFR	1	1	1	GARAGE	621	1	n/a	0	n/a	n/a	n/a	n/a	n/a
3473566	RECOG_CONF	n/a	LTP220	ltpFR	1	1	1	GARAGE	621	n/a	5	0	n/a	n/a	n/a	n/a	n/a
3475672	RECOG_TARGET	n/a	LTP220	ltpFR	1	1	1	GLASSES	640	1	5	0	n/a	n/a	n/a	n/a	n/a
3476797	RECOG_RESP	n/a	LTP220	ltpFR	1	1	1	GLASSES	640	1	n/a	0	n/a	n/a	n/a	n/a	n/a
3478509	RECOG_CONF	n/a	LTP220	ltpFR	1	1	1	GLASSES	640	n/a	5	0	n/a	n/a	n/a	n/a	n/a
3480758	RECOG_TARGET	n/a	LTP220	ltpFR	1	1	-1	GLOBE	641	1	5	-1	n/a	n/a	n/a	n/a	n/a
3481740	RECOG_RESP	n/a	LTP220	ltpFR	1	1	-1	GLOBE	641	1	n/a	-1	n/a	n/a	n/a	n/a	n/a
3483540	RECOG_CONF	n/a	LTP220	ltpFR	1	1	-1	GLOBE	641	n/a	5	-1	n/a	n/a	n/a	n/a	n/a
3485593	RECOG_TARGET	n/a	LTP220	ltpFR	1	1	-1	HAM	678	1	5	-1	n/a	n/a	n/a	n/a	n/a
3486593	RECOG_RESP	n/a	LTP220	ltpFR	1	1	-1	HAM	678	1	n/a	-1	n/a	n/a	n/a	n/a	n/a
3488214	RECOG_CONF	n/a	LTP220	ltpFR	1	1	-1	HAM	678	n/a	5	-1	n/a	n/a	n/a	n/a	n/a
3490362	RECOG_TARGET	n/a	LTP220	ltpFR	1	1	1	ATHLETE	52	1	5	1	n/a	n/a	n/a	n/a	n/a
3491447	RECOG_RESP	n/a	LTP220	ltpFR	1	1	1	ATHLETE	52	1	n/a	1	n/a	n/a	n/a	n/a	n/a
3492873	RECOG_CONF	n/a	LTP220	ltpFR	1	1	1	ATHLETE	52	n/a	5	1	n/a	n/a	n/a	n/a	n/a
3495088	RECOG_TARGET	n/a	LTP220	ltpFR	1	1	1	CLOWN	330	1	5	2	n/a	n/a	n/a	n/a	n/a
3496058	RECOG_RESP	n/a	LTP220	ltpFR	1	1	1	CLOWN	330	1	n/a	2	n/a	n/a	n/a	n/a	n/a
3497501	RECOG_CONF	n/a	LTP220	ltpFR	1	1	1	CLOWN	330	n/a	5	2	n/a	n/a	n/a	n/a	n/a
3499763	RECOG_TARGET	n/a	LTP220	ltpFR	1	1	1	MARINE	869	1	4	1	n/a	n/a	n/a	n/a	n/a
3500752	RECOG_RESP	n/a	LTP220	ltpFR	1	1	1	MARINE	869	1	n/a	1	n/a	n/a	n/a	n/a	n/a
3502305	RECOG_CONF	n/a	LTP220	ltpFR	1	1	1	MARINE	869	n/a	4	1	n/a	n/a	n/a	n/a	n/a
3504540	RECOG_TARGET	n/a	LTP220	ltpFR	1	1	0	CATTLE	261	1	4	1	n/a	n/a	n/a	n/a	n/a
3506024	RECOG_RESP	n/a	LTP220	ltpFR	1	1	0	CATTLE	261	1	n/a	1	n/a	n/a	n/a	n/a	n/a
3507509	RECOG_CONF	n/a	LTP220	ltpFR	1	1	0	CATTLE	261	n/a	4	1	n/a	n/a	n/a	n/a	n/a
3509717	RECOG_TARGET	n/a	LTP220	ltpFR	1	1	1	TAIL	1430	1	5	1	n/a	n/a	n/a	n/a	n/a
3510713	RECOG_RESP	n/a	LTP220	ltpFR	1	1	1	TAIL	1430	1	n/a	1	n/a	n/a	n/a	n/a	n/a
3512088	RECOG_CONF	n/a	LTP220	ltpFR	1	1	1	TAIL	1430	n/a	5	1	n/a	n/a	n/a	n/a	n/a
3514110	RECOG_LURE	n/a	LTP220	ltpFR	1	1	n/a	APPLE	33	1	4	n/a	n/a	n/a	n/a	n/a	n/a
3516533	RECOG_RESP	n/a	LTP220	ltpFR	1	1	n/a	APPLE	33	1	n/a	n/a	n/a	n/a	n/a	n/a	n/a
3517952	RECOG_CONF	n/a	LTP220	ltpFR	1	1	n/a	APPLE	33	n/a	4	n/a	n/a	n/a	n/a	n/a	n/a
3519999	RECOG_LURE	n/a	LTP220	ltpFR	1	1	n/a	KNAPSACK	783	1	5	n/a	n/a	n/a	n/a	n/a	n/a
3521484	RECOG_RESP	n/a	LTP220	ltpFR	1	1	n/a	KNAPSACK	783	1	n/a	n/a	n/a	n/a	n/a	n/a	n/a
3522744	RECOG_CONF	n/a	LTP220	ltpFR	1	1	n/a	KNAPSACK	783	n/a	5	n/a	n/a	n/a	n/a	n/a	n/a
3524975	RECOG_LURE	n/a	LTP220	ltpFR	1	1	n/a	GLASS	639	1	3	n/a	n/a	n/a	n/a	n/a	n/a
3530631	RECOG_RESP	n/a	LTP220	ltpFR	1	1	n/a	GLASS	639	1	n/a	n/a	n/a	n/a	n/a	n/a	n/a
3531849	RECOG_CONF	n/a	LTP220	ltpFR	1	1	n/a	GLASS	639	n/a	3	n/a	n/a	n/a	n/a	n/a	n/a
3534035	RECOG_LURE	n/a	LTP220	ltpFR	1	1	n/a	TEMPLE	1448	1	4	n/a	n/a	n/a	n/a	n/a	n/a
3536196	RECOG_RESP	n/a	LTP220	ltpFR	1	1	n/a	TEMPLE	1448	1	n/a	n/a	n/a	n/a	n/a	n/a	n/a
3538391	RECOG_CONF	n/a	LTP220	ltpFR	1	1	n/a	TEMPLE	1448	n/a	4	n/a	n/a	n/a	n/a	n/a	n/a
3549971	REC_START	n/a	LTP220	ltpFR	1	2	n/a	n/a	n/a	n/a	n/a	n/a	n/a	n/a	n/a	n/a	n/a
3550029	RECOG_TARGET	n/a	LTP220	ltpFR	1	2	1	WARRIOR	1589	1	5	1	n/a	n/a	n/a	n/a	n/a
3551538	RECOG_RESP	n/a	LTP220	ltpFR	1	2	1	WARRIOR	1589	1	n/a	1	n/a	n/a	n/a	n/a	n/a
3552939	RECOG_CONF	n/a	LTP220	ltpFR	1	2	1	WARRIOR	1589	n/a	5	1	n/a	n/a	n/a	n/a	n/a
3554947	RECOG_TARGET	n/a	LTP220	ltpFR	1	2	1	FOREST	593	1	5	1	n/a	n/a	n/a	n/a	n/a
3555819	RECOG_RESP	n/a	LTP220	ltpFR	1	2	1	FOREST	593	1	n/a	1	n/a	n/a	n/a	n/a	n/a
3557162	RECOG_CONF	n/a	LTP220	ltpFR	1	2	1	FOREST	593	n/a	5	1	n/a	n/a	n/a	n/a	n/a
3559171	RECOG_LURE	n/a	LTP220	ltpFR	1	2	n/a	FROST	609	0	2	n/a	n/a	n/a	n/a	n/a	n/a
3562202	RECOG_RESP	n/a	LTP220	ltpFR	1	2	n/a	FROST	609	0	n/a	n/a	n/a	n/a	n/a	n/a	n/a
3563681	RECOG_CONF	n/a	LTP220	ltpFR	1	2	n/a	FROST	609	n/a	2	n/a	n/a	n/a	n/a	n/a	n/a
3565738	RECOG_LURE	n/a	LTP220	ltpFR	1	2	n/a	NOMAD	955	1	3	n/a	n/a	n/a	n/a	n/a	n/a
3569418	RECOG_RESP	n/a	LTP220	ltpFR	1	2	n/a	NOMAD	955	1	n/a	n/a	n/a	n/a	n/a	n/a	n/a
3570854	RECOG_CONF	n/a	LTP220	ltpFR	1	2	n/a	NOMAD	955	n/a	3	n/a	n/a	n/a	n/a	n/a	n/a
3572915	RECOG_TARGET	n/a	LTP220	ltpFR	1	2	1	SHIRT	1287	1	5	2	n/a	n/a	n/a	n/a	n/a
3574050	RECOG_RESP	n/a	LTP220	ltpFR	1	2	1	SHIRT	1287	1	n/a	2	n/a	n/a	n/a	n/a	n/a
3575679	RECOG_CONF	n/a	LTP220	ltpFR	1	2	1	SHIRT	1287	n/a	5	2	n/a	n/a	n/a	n/a	n/a
3577690	RECOG_TARGET	n/a	LTP220	ltpFR	1	2	0	DORM	488	1	4	0	n/a	n/a	n/a	n/a	n/a
3579437	RECOG_RESP	n/a	LTP220	ltpFR	1	2	0	DORM	488	1	n/a	0	n/a	n/a	n/a	n/a	n/a
3580786	RECOG_CONF	n/a	LTP220	ltpFR	1	2	0	DORM	488	n/a	4	0	n/a	n/a	n/a	n/a	n/a
3582642	RECOG_LURE	n/a	LTP220	ltpFR	1	2	n/a	POPE	1105	0	2	n/a	n/a	n/a	n/a	n/a	n/a
3584324	RECOG_RESP	n/a	LTP220	ltpFR	1	2	n/a	POPE	1105	0	n/a	n/a	n/a	n/a	n/a	n/a	n/a
3586262	RECOG_CONF	n/a	LTP220	ltpFR	1	2	n/a	POPE	1105	n/a	2	n/a	n/a	n/a	n/a	n/a	n/a
3588248	RECOG_LURE	n/a	LTP220	ltpFR	1	2	n/a	BENCH	121	0	2	n/a	n/a	n/a	n/a	n/a	n/a
3591164	RECOG_RESP	n/a	LTP220	ltpFR	1	2	n/a	BENCH	121	0	n/a	n/a	n/a	n/a	n/a	n/a	n/a
3592811	RECOG_CONF	n/a	LTP220	ltpFR	1	2	n/a	BENCH	121	n/a	2	n/a	n/a	n/a	n/a	n/a	n/a
3594838	RECOG_LURE	n/a	LTP220	ltpFR	1	2	n/a	HEADBAND	696	1	3	n/a	n/a	n/a	n/a	n/a	n/a
3597889	RECOG_RESP	n/a	LTP220	ltpFR	1	2	n/a	HEADBAND	696	1	n/a	n/a	n/a	n/a	n/a	n/a	n/a
3599254	RECOG_CONF	n/a	LTP220	ltpFR	1	2	n/a	HEADBAND	696	n/a	3	n/a	n/a	n/a	n/a	n/a	n/a
3601446	RECOG_TARGET	n/a	LTP220	ltpFR	1	2	-1	MOB	904	1	4	-1	n/a	n/a	n/a	n/a	n/a
3602652	RECOG_RESP	n/a	LTP220	ltpFR	1	2	-1	MOB	904	1	n/a	-1	n/a	n/a	n/a	n/a	n/a
3604312	RECOG_CONF	n/a	LTP220	ltpFR	1	2	-1	MOB	904	n/a	4	-1	n/a	n/a	n/a	n/a	n/a
3606809	RECOG_LURE	n/a	LTP220	ltpFR	1	2	n/a	CRUTCH	417	0	2	n/a	n/a	n/a	n/a	n/a	n/a
3609120	RECOG_RESP	n/a	LTP220	ltpFR	1	2	n/a	CRUTCH	417	0	n/a	n/a	n/a	n/a	n/a	n/a	n/a
3611000	RECOG_CONF	n/a	LTP220	ltpFR	1	2	n/a	CRUTCH	417	n/a	2	n/a	n/a	n/a	n/a	n/a	n/a
3612832	RECOG_TARGET	n/a	LTP220	ltpFR	1	2	1	COMB	351	1	5	0	n/a	n/a	n/a	n/a	n/a
3614252	RECOG_RESP	n/a	LTP220	ltpFR	1	2	1	COMB	351	1	n/a	0	n/a	n/a	n/a	n/a	n/a
3615651	RECOG_CONF	n/a	LTP220	ltpFR	1	2	1	COMB	351	n/a	5	0	n/a	n/a	n/a	n/a	n/a
3617658	RECOG_TARGET	n/a	LTP220	ltpFR	1	2	1	STABLE	1363	1	5	1	n/a	n/a	n/a	n/a	n/a
3618890	RECOG_RESP	n/a	LTP220	ltpFR	1	2	1	STABLE	1363	1	n/a	1	n/a	n/a	n/a	n/a	n/a
3620181	RECOG_CONF	n/a	LTP220	ltpFR	1	2	1	STABLE	1363	n/a	5	1	n/a	n/a	n/a	n/a	n/a
3622376	RECOG_TARGET	n/a	LTP220	ltpFR	1	2	0	PURSE	1145	1	5	0	n/a	n/a	n/a	n/a	n/a
3623550	RECOG_RESP	n/a	LTP220	ltpFR	1	2	0	PURSE	1145	1	n/a	0	n/a	n/a	n/a	n/a	n/a
3624918	RECOG_CONF	n/a	LTP220	ltpFR	1	2	0	PURSE	1145	n/a	5	0	n/a	n/a	n/a	n/a	n/a
3627002	RECOG_TARGET	n/a	LTP220	ltpFR	1	2	-1	COBBLER	335	1	5	-1	n/a	n/a	n/a	n/a	n/a
3628029	RECOG_RESP	n/a	LTP220	ltpFR	1	2	-1	COBBLER	335	1	n/a	-1	n/a	n/a	n/a	n/a	n/a
3629484	RECOG_CONF	n/a	LTP220	ltpFR	1	2	-1	COBBLER	335	n/a	5	-1	n/a	n/a	n/a	n/a	n/a
3632038	RECOG_TARGET	n/a	LTP220	ltpFR	1	2	-1	PECAN	1036	1	5	-1	n/a	n/a	n/a	n/a	n/a
3633024	RECOG_RESP	n/a	LTP220	ltpFR	1	2	-1	PECAN	1036	1	n/a	-1	n/a	n/a	n/a	n/a	n/a
3634511	RECOG_CONF	n/a	LTP220	ltpFR	1	2	-1	PECAN	1036	n/a	5	-1	n/a	n/a	n/a	n/a	n/a
3636454	RECOG_TARGET	n/a	LTP220	ltpFR	1	2	1	PASSENGER	1020	1	5	1	n/a	n/a	n/a	n/a	n/a
3637475	RECOG_RESP	n/a	LTP220	ltpFR	1	2	1	PASSENGER	1020	1	n/a	1	n/a	n/a	n/a	n/a	n/a
3638922	RECOG_CONF	n/a	LTP220	ltpFR	1	2	1	PASSENGER	1020	n/a	5	1	n/a	n/a	n/a	n/a	n/a
3641240	RECOG_LURE	n/a	LTP220	ltpFR	1	2	n/a	ARM	38	1	3	n/a	n/a	n/a	n/a	n/a	n/a
3644432	RECOG_RESP	n/a	LTP220	ltpFR	1	2	n/a	ARM	38	1	n/a	n/a	n/a	n/a	n/a	n/a	n/a
3645786	RECOG_CONF	n/a	LTP220	ltpFR	1	2	n/a	ARM	38	n/a	3	n/a	n/a	n/a	n/a	n/a	n/a
3647905	RECOG_TARGET	n/a	LTP220	ltpFR	1	2	-1	FENCE	560	1	4	-1	n/a	n/a	n/a	n/a	n/a
3650667	RECOG_RESP	n/a	LTP220	ltpFR	1	2	-1	FENCE	560	1	n/a	-1	n/a	n/a	n/a	n/a	n/a
3651924	RECOG_CONF	n/a	LTP220	ltpFR	1	2	-1	FENCE	560	n/a	4	-1	n/a	n/a	n/a	n/a	n/a
3653894	RECOG_LURE	n/a	LTP220	ltpFR	1	2	n/a	PACKAGE	997	1	4	n/a	n/a	n/a	n/a	n/a	n/a
3655083	RECOG_RESP	n/a	LTP220	ltpFR	1	2	n/a	PACKAGE	997	1	n/a	n/a	n/a	n/a	n/a	n/a	n/a
3656504	RECOG_CONF	n/a	LTP220	ltpFR	1	2	n/a	PACKAGE	997	n/a	4	n/a	n/a	n/a	n/a	n/a	n/a
3669577	REC_START	n/a	LTP220	ltpFR	1	3	n/a	n/a	n/a	n/a	n/a	n/a	n/a	n/a	n/a	n/a	n/a
3669629	RECOG_TARGET	n/a	LTP220	ltpFR	1	3	0	TREASURE	1500	1	5	1	n/a	n/a	n/a	n/a	n/a
3670921	RECOG_RESP	n/a	LTP220	ltpFR	1	3	0	TREASURE	1500	1	n/a	1	n/a	n/a	n/a	n/a	n/a
3672154	RECOG_CONF	n/a	LTP220	ltpFR	1	3	0	TREASURE	1500	n/a	5	1	n/a	n/a	n/a	n/a	n/a
3674087	RECOG_TARGET	n/a	LTP220	ltpFR	1	3	-1	FIG	563	1	5	-1	n/a	n/a	n/a	n/a	n/a
3675180	RECOG_RESP	n/a	LTP220	ltpFR	1	3	-1	FIG	563	1	n/a	-1	n/a	n/a	n/a	n/a	n/a
3676456	RECOG_CONF	n/a	LTP220	ltpFR	1	3	-1	FIG	563	n/a	5	-1	n/a	n/a	n/a	n/a	n/a
3678496	RECOG_TARGET	n/a	LTP220	ltpFR	1	3	-1	CRICKET	408	1	5	-1	n/a	n/a	n/a	n/a	n/a
3679613	RECOG_RESP	n/a	LTP220	ltpFR	1	3	-1	CRICKET	408	1	n/a	-1	n/a	n/a	n/a	n/a	n/a
3680971	RECOG_CONF	n/a	LTP220	ltpFR	1	3	-1	CRICKET	408	n/a	5	-1	n/a	n/a	n/a	n/a	n/a
3683113	RECOG_TARGET	n/a	LTP220	ltpFR	1	3	-1	SKIRT	1319	1	5	-1	n/a	n/a	n/a	n/a	n/a
3684072	RECOG_RESP	n/a	LTP220	ltpFR	1	3	-1	SKIRT	1319	1	n/a	-1	n/a	n/a	n/a	n/a	n/a
3685363	RECOG_CONF	n/a	LTP220	ltpFR	1	3	-1	SKIRT	1319	n/a	5	-1	n/a	n/a	n/a	n/a	n/a
3687314	RECOG_LURE	n/a	LTP220	ltpFR	1	3	n/a	FLOWER	584	0	n/a	n/a	n/a	n/a	n/a	n/a	n/a
3692643	RECOG_RESP	n/a	LTP220	ltpFR	1	3	n/a	FLOWER	584	0	n/a	n/a	n/a	n/a	n/a	n/a	n/a
3694480	RECOG_LURE	n/a	LTP220	ltpFR	1	3	n/a	HELMET	702	0	3	n/a	n/a	n/a	n/a	n/a	n/a
3700340	RECOG_RESP	n/a	LTP220	ltpFR	1	3	n/a	HELMET	702	0	n/a	n/a	n/a	n/a	n/a	n/a	n/a
3702419	RECOG_CONF	n/a	LTP220	ltpFR	1	3	n/a	HELMET	702	n/a	3	n/a	n/a	n/a	n/a	n/a	n/a
3704652	RECOG_TARGET	n/a	LTP220	ltpFR	1	3	1	DICTATOR	462	1	5	2	n/a	n/a	n/a	n/a	n/a
3706693	RECOG_RESP	n/a	LTP220	ltpFR	1	3	1	DICTATOR	462	1	n/a	2	n/a	n/a	n/a	n/a	n/a
3708184	RECOG_CONF	n/a	LTP220	ltpFR	1	3	1	DICTATOR	462	n/a	5	2	n/a	n/a	n/a	n/a	n/a
3710267	RECOG_LURE	n/a	LTP220	ltpFR	1	3	n/a	ATLAS	53	1	4	n/a	n/a	n/a	n/a	n/a	n/a
3711521	RECOG_RESP	n/a	LTP220	ltpFR	1	3	n/a	ATLAS	53	1	n/a	n/a	n/a	n/a	n/a	n/a	n/a
3713065	RECOG_CONF	n/a	LTP220	ltpFR	1	3	n/a	ATLAS	53	n/a	4	n/a	n/a	n/a	n/a	n/a	n/a
3715443	RECOG_TARGET	n/a	LTP220	ltpFR	1	3	1	TOTE	1487	1	5	0	n/a	n/a	n/a	n/a	n/a
3716939	RECOG_RESP	n/a	LTP220	ltpFR	1	3	1	TOTE	1487	1	n/a	0	n/a	n/a	n/a	n/a	n/a
3718147	RECOG_CONF	n/a	LTP220	ltpFR	1	3	1	TOTE	1487	n/a	5	0	n/a	n/a	n/a	n/a	n/a
3720345	RECOG_TARGET	n/a	LTP220	ltpFR	1	3	1	STEREO	1378	1	5	n/a	n/a	n/a	n/a	n/a	n/a
3721490	RECOG_RESP	n/a	LTP220	ltpFR	1	3	1	STEREO	1378	1	n/a	n/a	n/a	n/a	n/a	n/a	n/a
3722821	RECOG_CONF	n/a	LTP220	ltpFR	1	3	1	STEREO	1378	n/a	5	n/a	n/a	n/a	n/a	n/a	n/a
3724804	RECOG_TARGET	n/a	LTP220	ltpFR	1	3	1	COBRA	336	1	5	1	n/a	n/a	n/a	n/a	n/a
3726257	RECOG_RESP	n/a	LTP220	ltpFR	1	3	1	COBRA	336	1	n/a	1	n/a	n/a	n/a	n/a	n/a
3727515	RECOG_CONF	n/a	LTP220	ltpFR	1	3	1	COBRA	336	n/a	5	1	n/a	n/a	n/a	n/a	n/a
3729722	RECOG_TARGET	n/a	LTP220	ltpFR	1	3	0	COMPANION	357	1	5	1	n/a	n/a	n/a	n/a	n/a
3730853	RECOG_RESP	n/a	LTP220	ltpFR	1	3	0	COMPANION	357	1	n/a	1	n/a	n/a	n/a	n/a	n/a
3732750	RECOG_CONF	n/a	LTP220	ltpFR	1	3	0	COMPANION	357	n/a	5	1	n/a	n/a	n/a	n/a	n/a
3735050	RECOG_LURE	n/a	LTP220	ltpFR	1	3	n/a	CARNIVAL	245	1	5	n/a	n/a	n/a	n/a	n/a	n/a
3737766	RECOG_RESP	n/a	LTP220	ltpFR	1	3	n/a	CARNIVAL	245	1	n/a	n/a	n/a	n/a	n/a	n/a	n/a
3739283	RECOG_CONF	n/a	LTP220	ltpFR	1	3	n/a	CARNIVAL	245	n/a	5	n/a	n/a	n/a	n/a	n/a	n/a
3741416	RECOG_TARGET	n/a	LTP220	ltpFR	1	3	1	ACTRESS	6	1	5	1	n/a	n/a	n/a	n/a	n/a
3742532	RECOG_RESP	n/a	LTP220	ltpFR	1	3	1	ACTRESS	6	1	n/a	1	n/a	n/a	n/a	n/a	n/a
3744003	RECOG_CONF	n/a	LTP220	ltpFR	1	3	1	ACTRESS	6	n/a	5	1	n/a	n/a	n/a	n/a	n/a
3746176	RECOG_LURE	n/a	LTP220	ltpFR	1	3	n/a	MISSILE	900	1	4	n/a	n/a	n/a	n/a	n/a	n/a
3748041	RECOG_RESP	n/a	LTP220	ltpFR	1	3	n/a	MISSILE	900	1	n/a	n/a	n/a	n/a	n/a	n/a	n/a
3749310	RECOG_CONF	n/a	LTP220	ltpFR	1	3	n/a	MISSILE	900	n/a	4	n/a	n/a	n/a	n/a	n/a	n/a
3751504	RECOG_LURE	n/a	LTP220	ltpFR	1	3	n/a	TWINE	1529	1	3	n/a	n/a	n/a	n/a	n/a	n/a
3756081	RECOG_RESP	n/a	LTP220	ltpFR	1	3	n/a	TWINE	1529	1	n/a	n/a	n/a	n/a	n/a	n/a	n/a
3757352	RECOG_CONF	n/a	LTP220	ltpFR	1	3	n/a	TWINE	1529	n/a	3	n/a	n/a	n/a	n/a	n/a	n/a
3759518	RECOG_TARGET	n/a	LTP220	ltpFR	1	3	1	RUNNER	1218	1	4	1	n/a	n/a	n/a	n/a	n/a
3763109	RECOG_RESP	n/a	LTP220	ltpFR	1	3	1	RUNNER	1218	1	n/a	1	n/a	n/a	n/a	n/a	n/a
3764465	RECOG_CONF	n/a	LTP220	ltpFR	1	3	1	RUNNER	1218	n/a	4	1	n/a	n/a	n/a	n/a	n/a
3766602	RECOG_TARGET	n/a	LTP220	ltpFR	1	3	1	EMPLOYEE	531	1	5	n/a	n/a	n/a	n/a	n/a	n/a
3767446	RECOG_RESP	n/a	LTP220	ltpFR	1	3	1	EMPLOYEE	531	1	n/a	n/a	n/a	n/a	n/a	n/a	n/a
3768915	RECOG_CONF	n/a	LTP220	ltpFR	1	3	1	EMPLOYEE	531	n/a	5	n/a	n/a	n/a	n/a	n/a	n/a
3770961	RECOG_LURE	n/a	LTP220	ltpFR	1	3	n/a	CONVICT	371	0	2	n/a	n/a	n/a	n/a	n/a	n/a
3772913	RECOG_RESP	n/a	LTP220	ltpFR	1	3	n/a	CONVICT	371	0	n/a	n/a	n/a	n/a	n/a	n/a	n/a
3774523	RECOG_CONF	n/a	LTP220	ltpFR	1	3	n/a	CONVICT	371	n/a	2	n/a	n/a	n/a	n/a	n/a	n/a
3776489	RECOG_TARGET	n/a	LTP220	ltpFR	1	3	1	SPARROW	1347	1	4	3	n/a	n/a	n/a	n/a	n/a
3778572	RECOG_RESP	n/a	LTP220	ltpFR	1	3	1	SPARROW	1347	1	n/a	3	n/a	n/a	n/a	n/a	n/a
3780041	RECOG_CONF	n/a	LTP220	ltpFR	1	3	1	SPARROW	1347	n/a	4	3	n/a	n/a	n/a	n/a	n/a
3790166	REC_START	n/a	LTP220	ltpFR	1	4	n/a	n/a	n/a	n/a	n/a	n/a	n/a	n/a	n/a	n/a	n/a
3790218	RECOG_LURE	n/a	LTP220	ltpFR	1	4	n/a	EARTH	515	1	4	n/a	n/a	n/a	n/a	n/a	n/a
3792271	RECOG_RESP	n/a	LTP220	ltpFR	1	4	n/a	EARTH	515	1	n/a	n/a	n/a	n/a	n/a	n/a	n/a
3794226	RECOG_CONF	n/a	LTP220	ltpFR	1	4	n/a	EARTH	515	n/a	4	n/a	n/a	n/a	n/a	n/a	n/a
3796399	RECOG_LURE	n/a	LTP220	ltpFR	1	4	n/a	CHIPMUNK	304	0	2	n/a	n/a	n/a	n/a	n/a	n/a
3798790	RECOG_RESP	n/a	LTP220	ltpFR	1	4	n/a	CHIPMUNK	304	0	n/a	n/a	n/a	n/a	n/a	n/a	n/a
3800087	RECOG_CONF	n/a	LTP220	ltpFR	1	4	n/a	CHIPMUNK	304	n/a	2	n/a	n/a	n/a	n/a	n/a	n/a
3802052	RECOG_LURE	n/a	LTP220	ltpFR	1	4	n/a	KING	777	1	3	n/a	n/a	n/a	n/a	n/a	n/a
3804693	RECOG_RESP	n/a	LTP220	ltpFR	1	4	n/a	KING	777	1	n/a	n/a	n/a	n/a	n/a	n/a	n/a
3806052	RECOG_CONF	n/a	LTP220	ltpFR	1	4	n/a	KING	777	n/a	3	n/a	n/a	n/a	n/a	n/a	n/a
3808236	RECOG_TARGET	n/a	LTP220	ltpFR	1	4	1	LAMP	798	0	2	1	n/a	n/a	n/a	n/a	n/a
3810527	RECOG_RESP	n/a	LTP220	ltpFR	1	4	1	LAMP	798	0	n/a	1	n/a	n/a	n/a	n/a	n/a
3813440	RECOG_CONF	n/a	LTP220	ltpFR	1	4	1	LAMP	798	n/a	2	1	n/a	n/a	n/a	n/a	n/a
3815370	RECOG_LURE	n/a	LTP220	ltpFR	1	4	n/a	JUDGE	761	1	4	n/a	n/a	n/a	n/a	n/a	n/a
3817174	RECOG_RESP	n/a	LTP220	ltpFR	1	4	n/a	JUDGE	761	1	n/a	n/a	n/a	n/a	n/a	n/a	n/a
3818425	RECOG_CONF	n/a	LTP220	ltpFR	1	4	n/a	JUDGE	761	n/a	4	n/a	n/a	n/a	n/a	n/a	n/a
3820639	RECOG_TARGET	n/a	LTP220	ltpFR	1	4	-1	KETTLE	772	1	3	-1	n/a	n/a	n/a	n/a	n/a
3823131	RECOG_RESP	n/a	LTP220	ltpFR	1	4	-1	KETTLE	772	1	n/a	-1	n/a	n/a	n/a	n/a	n/a
3824802	RECOG_CONF	n/a	LTP220	ltpFR	1	4	-1	KETTLE	772	n/a	3	-1	n/a	n/a	n/a	n/a	n/a
3826738	RECOG_LURE	n/a	LTP220	ltpFR	1	4	n/a	DAGGER	434	1	4	n/a	n/a	n/a	n/a	n/a	n/a
3827896	RECOG_RESP	n/a	LTP220	ltpFR	1	4	n/a	DAGGER	434	1	n/a	n/a	n/a	n/a	n/a	n/a	n/a
3829167	RECOG_CONF	n/a	LTP220	ltpFR	1	4	n/a	DAGGER	434	n/a	4	n/a	n/a	n/a	n/a	n/a	n/a
3831323	RECOG_TARGET	n/a	LTP220	ltpFR	1	4	1	TICK	1463	1	5	1	n/a	n/a	n/a	n/a	n/a
3832561	RECOG_RESP	n/a	LTP220	ltpFR	1	4	1	TICK	1463	1	n/a	1	n/a	n/a	n/a	n/a	n/a
3834021	RECOG_CONF	n/a	LTP220	ltpFR	1	4	1	TICK	1463	n/a	5	1	n/a	n/a	n/a	n/a	n/a
3836047	RECOG_TARGET	n/a	LTP220	ltpFR	1	4	-1	GUEST	669	1	4	-1	n/a	n/a	n/a	n/a	n/a
3837376	RECOG_RESP	n/a	LTP220	ltpFR	1	4	-1	GUEST	669	1	n/a	-1	n/a	n/a	n/a	n/a	n/a
3838601	RECOG_CONF	n/a	LTP220	ltpFR	1	4	-1	GUEST	669	n/a	4	-1	n/a	n/a	n/a	n/a	n/a
3840674	RECOG_LURE	n/a	LTP220	ltpFR	1	4	n/a	SKI	1316	0	2	n/a	n/a	n/a	n/a	n/a	n/a
3842888	RECOG_RESP	n/a	LTP220	ltpFR	1	4	n/a	SKI	1316	0	n/a	n/a	n/a	n/a	n/a	n/a	n/a
3844387	RECOG_CONF	n/a	LTP220	ltpFR	1	4	n/a	SKI	1316	n/a	2	n/a	n/a	n/a	n/a	n/a	n/a
3846346	RECOG_LURE	n/a	LTP220	ltpFR	1	4	n/a	NURSE	963	0	2	n/a	n/a	n/a	n/a	n/a	n/a
3849141	RECOG_RESP	n/a	LTP220	ltpFR	1	4	n/a	NURSE	963	0	n/a	n/a	n/a	n/a	n/a	n/a	n/a
3850842	RECOG_CONF	n/a	LTP220	ltpFR	1	4	n/a	NURSE	963	n/a	2	n/a	n/a	n/a	n/a	n/a	n/a
3852970	RECOG_LURE	n/a	LTP220	ltpFR	1	4	n/a	CIGAR	308	0	2	n/a	n/a	n/a	n/a	n/a	n/a
3854806	RECOG_RESP	n/a	LTP220	ltpFR	1	4	n/a	CIGAR	308	0	n/a	n/a	n/a	n/a	n/a	n/a	n/a
3856324	RECOG_CONF	n/a	LTP220	ltpFR	1	4	n/a	CIGAR	308	n/a	2	n/a	n/a	n/a	n/a	n/a	n/a
3858215	RECOG_TARGET	n/a	LTP220	ltpFR	1	4	0	SHEET	1279	1	5	0	n/a	n/a	n/a	n/a	n/a
3860078	RECOG_RESP	n/a	LTP220	ltpFR	1	4	0	SHEET	1279	1	n/a	0	n/a	n/a	n/a	n/a	n/a
3861257	RECOG_CONF	n/a	LTP220	ltpFR	1	4	0	SHEET	1279	n/a	5	0	n/a	n/a	n/a	n/a	n/a
3863394	RECOG_LURE	n/a	LTP220	ltpFR	1	4	n/a	KNEE	784	0	2	n/a	n/a	n/a	n/a	n/a	n/a
3866207	RECOG_RESP	n/a	LTP220	ltpFR	1	4	n/a	KNEE	784	0	n/a	n/a	n/a	n/a	n/a	n/a	n/a
3868099	RECOG_CONF	n/a	LTP220	ltpFR	1	4	n/a	KNEE	784	n/a	2	n/a	n/a	n/a	n/a	n/a	n/a
3870068	RECOG_TARGET	n/a	LTP220	ltpFR	1	4	0	ACORN	3	1	5	3	n/a	n/a	n/a	n/a	n/a
3871469	RECOG_RESP	n/a	LTP220	ltpFR	1	4	0	ACORN	3	1	n/a	3	n/a	n/a	n/a	n/a	n/a
3872618	RECOG_CONF	n/a	LTP220	ltpFR	1	4	0	ACORN	3	n/a	5	3	n/a	n/a	n/a	n/a	n/a
3874685	RECOG_LURE	n/a	LTP220	ltpFR	1	4	n/a	SALAD	1224	0	2	n/a	n/a	n/a	n/a	n/a	n/a
3876227	RECOG_RESP	n/a	LTP220	ltpFR	1	4	n/a	SALAD	1224	0	n/a	n/a	n/a	n/a	n/a	n/a	n/a
3878090	RECOG_CONF	n/a	LTP220	ltpFR	1	4	n/a	SALAD	1224	n/a	2	n/a	n/a	n/a	n/a	n/a	n/a
3880080	RECOG_LURE	n/a	LTP220	ltpFR	1	4	n/a	SHAMPOO	1274	1	3	n/a	n/a	n/a	n/a	n/a	n/a
3882556	RECOG_RESP	n/a	LTP220	ltpFR	1	4	n/a	SHAMPOO	1274	1	n/a	n/a	n/a	n/a	n/a	n/a	n/a
3883983	RECOG_CONF	n/a	LTP220	ltpFR	1	4	n/a	SHAMPOO	1274	n/a	3	n/a	n/a	n/a	n/a	n/a	n/a
3885978	RECOG_LURE	n/a	LTP220	ltpFR	1	4	n/a	TONGUE	1479	0	2	n/a	n/a	n/a	n/a	n/a	n/a
3888104	RECOG_RESP	n/a	LTP220	ltpFR	1	4	n/a	TONGUE	1479	0	n/a	n/a	n/a	n/a	n/a	n/a	n/a
3889701	RECOG_CONF	n/a	LTP220	ltpFR	1	4	n/a	TONGUE	1479	n/a	2	n/a	n/a	n/a	n/a	n/a	n/a
3891506	RECOG_LURE	n/a	LTP220	ltpFR	1	4	n/a	SEASHORE	1263	0	2	n/a	n/a	n/a	n/a	n/a	n/a
3893991	RECOG_RESP	n/a	LTP220	ltpFR	1	4	n/a	SEASHORE	1263	0	n/a	n/a	n/a	n/a	n/a	n/a	n/a
3895247	RECOG_CONF	n/a	LTP220	ltpFR	1	4	n/a	SEASHORE	1263	n/a	2	n/a	n/a	n/a	n/a	n/a	n/a
3897111	RECOG_LURE	n/a	LTP220	ltpFR	1	4	n/a	PROFESSIONAL	1130	1	3	n/a	n/a	n/a	n/a	n/a	n/a
3899549	RECOG_RESP	n/a	LTP220	ltpFR	1	4	n/a	PROFESSIONAL	1130	1	n/a	n/a	n/a	n/a	n/a	n/a	n/a
3900835	RECOG_CONF	n/a	LTP220	ltpFR	1	4	n/a	PROFESSIONAL	1130	n/a	3	n/a	n/a	n/a	n/a	n/a	n/a
3909782	REC_START	n/a	LTP220	ltpFR	1	5	n/a	n/a	n/a	n/a	n/a	n/a	n/a	n/a	n/a	n/a	n/a
3909834	RECOG_TARGET	n/a	LTP220	ltpFR	1	5	0	STREAM	1392	1	5	1	n/a	n/a	n/a	n/a	n/a
3911828	RECOG_RESP	n/a	LTP220	ltpFR	1	5	0	STREAM	1392	1	n/a	1	n/a	n/a	n/a	n/a	n/a
3913298	RECOG_CONF	n/a	LTP220	ltpFR	1	5	0	STREAM	1392	n/a	5	1	n/a	n/a	n/a	n/a	n/a
3915539	RECOG_TARGET	n/a	LTP220	ltpFR	1	5	0	CELLAR	267	1	5	0	n/a	n/a	n/a	n/a	n/a
3916812	RECOG_RESP	n/a	LTP220	ltpFR	1	5	0	CELLAR	267	1	n/a	0	n/a	n/a	n/a	n/a	n/a
3918114	RECOG_CONF	n/a	LTP220	ltpFR	1	5	0	CELLAR	267	n/a	5	0	n/a	n/a	n/a	n/a	n/a
3920358	RECOG_LURE	n/a	LTP220	ltpFR	1	5	n/a	PROFESSOR	1131	1	5	n/a	n/a	n/a	n/a	n/a	n/a
3921330	RECOG_RESP	n/a	LTP220	ltpFR	1	5	n/a	PROFESSOR	1131	1	n/a	n/a	n/a	n/a	n/a	n/a	n/a
3922767	RECOG_CONF	n/a	LTP220	ltpFR	1	5	n/a	PROFESSOR	1131	n/a	5	n/a	n/a	n/a	n/a	n/a	n/a
3925008	RECOG_LURE	n/a	LTP220	ltpFR	1	5	n/a	TABLE	1426	1	4	n/a	n/a	n/a	n/a	n/a	n/a
3926600	RECOG_RESP	n/a	LTP220	ltpFR	1	5	n/a	TABLE	1426	1	n/a	n/a	n/a	n/a	n/a	n/a	n/a
3927835	RECOG_CONF	n/a	LTP220	ltpFR	1	5	n/a	TABLE	1426	n/a	4	n/a	n/a	n/a	n/a	n/a	n/a
3929960	RECOG_TARGET	n/a	LTP220	ltpFR	1	5	0	SHOWER	1296	1	4	0	n/a	n/a	n/a	n/a	n/a
3931303	RECOG_RESP	n/a	LTP220	ltpFR	1	5	0	SHOWER	1296	1	n/a	0	n/a	n/a	n/a	n/a	n/a
3932635	RECOG_CONF	n/a	LTP220	ltpFR	1	5	0	SHOWER	1296	n/a	4	0	n/a	n/a	n/a	n/a	n/a
3934585	RECOG_TARGET	n/a	LTP220	ltpFR	1	5	0	PIER	1063	1	5	1	n/a	n/a	n/a	n/a	n/a
3936187	RECOG_RESP	n/a	LTP220	ltpFR	1	5	0	PIER	1063	1	n/a	1	n/a	n/a	n/a	n/a	n/a
3937444	RECOG_CONF	n/a	LTP220	ltpFR	1	5	0	PIER	1063	n/a	5	1	n/a	n/a	n/a	n/a	n/a
3939480	RECOG_LURE	n/a	LTP220	ltpFR	1	5	n/a	CAMERA	224	0	3	n/a	n/a	n/a	n/a	n/a	n/a
3942446	RECOG_RESP	n/a	LTP220	ltpFR	1	5	n/a	CAMERA	224	0	n/a	n/a	n/a	n/a	n/a	n/a	n/a
3944113	RECOG_CONF	n/a	LTP220	ltpFR	1	5	n/a	CAMERA	224	n/a	3	n/a	n/a	n/a	n/a	n/a	n/a
3946121	RECOG_TARGET	n/a	LTP220	ltpFR	1	5	1	SALIVA	1226	1	5	n/a	n/a	n/a	n/a	n/a	n/a
3948642	RECOG_RESP	n/a	LTP220	ltpFR	1	5	1	SALIVA	1226	1	n/a	n/a	n/a	n/a	n/a	n/a	n/a
3950206	RECOG_CONF	n/a	LTP220	ltpFR	1	5	1	SALIVA	1226	n/a	5	n/a	n/a	n/a	n/a	n/a	n/a
3952754	RECOG_LURE	n/a	LTP220	ltpFR	1	5	n/a	SHELTER	1282	1	4	n/a	n/a	n/a	n/a	n/a	n/a
3955101	RECOG_RESP	n/a	LTP220	ltpFR	1	5	n/a	SHELTER	1282	1	n/a	n/a	n/a	n/a	n/a	n/a	n/a
3956493	RECOG_CONF	n/a	LTP220	ltpFR	1	5	n/a	SHELTER	1282	n/a	4	n/a	n/a	n/a	n/a	n/a	n/a
3958970	RECOG_TARGET	n/a	LTP220	ltpFR	1	5	0	DRIVER	499	1	5	0	n/a	n/a	n/a	n/a	n/a
3961309	RECOG_RESP	n/a	LTP220	ltpFR	1	5	0	DRIVER	499	1	n/a	0	n/a	n/a	n/a	n/a	n/a
3963386	RECOG_CONF	n/a	LTP220	ltpFR	1	5	0	DRIVER	499	n/a	5	0	n/a	n/a	n/a	n/a	n/a
3965418	RECOG_TARGET	n/a	LTP220	ltpFR	1	5	-1	BINDER	127	1	5	-1	n/a	n/a	n/a	n/a	n/a
3967560	RECOG_RESP	n/a	LTP220	ltpFR	1	5	-1	BINDER	127	1	n/a	-1	n/a	n/a	n/a	n/a	n/a
3968629	RECOG_CONF	n/a	LTP220	ltpFR	1	5	-1	BINDER	127	n/a	5	-1	n/a	n/a	n/a	n/a	n/a
3970747	RECOG_TARGET	n/a	LTP220	ltpFR	1	5	1	VASE	1549	1	5	0	n/a	n/a	n/a	n/a	n/a
3971863	RECOG_RESP	n/a	LTP220	ltpFR	1	5	1	VASE	1549	1	n/a	0	n/a	n/a	n/a	n/a	n/a
3973175	RECOG_CONF	n/a	LTP220	ltpFR	1	5	1	VASE	1549	n/a	5	0	n/a	n/a	n/a	n/a	n/a
3975439	RECOG_LURE	n/a	LTP220	ltpFR	1	5	n/a	LAVA	804	0	2	n/a	n/a	n/a	n/a	n/a	n/a
3979092	RECOG_RESP	n/a	LTP220	ltpFR	1	5	n/a	LAVA	804	0	n/a	n/a	n/a	n/a	n/a	n/a	n/a
3980375	RECOG_CONF	n/a	LTP220	ltpFR	1	5	n/a	LAVA	804	n/a	2	n/a	n/a	n/a	n/a	n/a	n/a
3982425	RECOG_TARGET	n/a	LTP220	ltpFR	1	5	1	PUPPY	1144	1	5	1	n/a	n/a	n/a	n/a	n/a
3983673	RECOG_RESP	n/a	LTP220	ltpFR	1	5	1	PUPPY	1144	1	n/a	1	n/a	n/a	n/a	n/a	n/a
3985353	RECOG_CONF	n/a	LTP220	ltpFR	1	5	1	PUPPY	1144	n/a	5	1	n/a	n/a	n/a	n/a	n/a
3987535	RECOG_TARGET	n/a	LTP220	ltpFR	1	5	-1	CARAVAN	242	1	5	-1	n/a	n/a	n/a	n/a	n/a
3988688	RECOG_RESP	n/a	LTP220	ltpFR	1	5	-1	CARAVAN	242	1	n/a	-1	n/a	n/a	n/a	n/a	n/a
3990104	RECOG_CONF	n/a	LTP220	ltpFR	1	5	-1	CARAVAN	242	n/a	5	-1	n/a	n/a	n/a	n/a	n/a
3992044	RECOG_TARGET	n/a	LTP220	ltpFR	1	5	0	THORN	1459	1	5	3	n/a	n/a	n/a	n/a	n/a
3993087	RECOG_RESP	n/a	LTP220	ltpFR	1	5	0	THORN	1459	1	n/a	3	n/a	n/a	n/a	n/a	n/a
3994421	RECOG_CONF	n/a	LTP220	ltpFR	1	5	0	THORN	1459	n/a	5	3	n/a	n/a	n/a	n/a	n/a
3996595	RECOG_TARGET	n/a	LTP220	ltpFR	1	5	-1	FUGITIVE	612	0	2	-1	n/a	n/a	n/a	n/a	n/a
3998863	RECOG_RESP	n/a	LTP220	ltpFR	1	5	-1	FUGITIVE	612	0	n/a	-1	n/a	n/a	n/a	n/a	n/a
4000132	RECOG_CONF	n/a	LTP220	ltpFR	1	5	-1	FUGITIVE	612	n/a	2	-1	n/a	n/a	n/a	n/a	n/a
4002184	RECOG_LURE	n/a	LTP220	ltpFR	1	5	n/a	HEEL	700	1	3	n/a	n/a	n/a	n/a	n/a	n/a
4006220	RECOG_RESP	n/a	LTP220	ltpFR	1	5	n/a	HEEL	700	1	n/a	n/a	n/a	n/a	n/a	n/a	n/a
4007613	RECOG_CONF	n/a	LTP220	ltpFR	1	5	n/a	HEEL	700	n/a	3	n/a	n/a	n/a	n/a	n/a	n/a
4009795	RECOG_TARGET	n/a	LTP220	ltpFR	1	5	1	CUFF	423	1	5	0	n/a	n/a	n/a	n/a	n/a
4011116	RECOG_RESP	n/a	LTP220	ltpFR	1	5	1	CUFF	423	1	n/a	0	n/a	n/a	n/a	n/a	n/a
4012332	RECOG_CONF	n/a	LTP220	ltpFR	1	5	1	CUFF	423	n/a	5	0	n/a	n/a	n/a	n/a	n/a
4014637	RECOG_TARGET	n/a	LTP220	ltpFR	1	5	1	ROBOT	1200	1	5	0	n/a	n/a	n/a	n/a	n/a
4015614	RECOG_RESP	n/a	LTP220	ltpFR	1	5	1	ROBOT	1200	1	n/a	0	n/a	n/a	n/a	n/a	n/a
4016914	RECOG_CONF	n/a	LTP220	ltpFR	1	5	1	ROBOT	1200	n/a	5	0	n/a	n/a	n/a	n/a	n/a
4029438	REC_START	n/a	LTP220	ltpFR	1	6	n/a	n/a	n/a	n/a	n/a	n/a	n/a	n/a	n/a	n/a	n/a
4029502	RECOG_TARGET	n/a	LTP220	ltpFR	1	6	1	BLADE	134	1	4	0	n/a	n/a	n/a	n/a	n/a
4032239	RECOG_RESP	n/a	LTP220	ltpFR	1	6	1	BLADE	134	1	n/a	0	n/a	n/a	n/a	n/a	n/a
4034786	RECOG_CONF	n/a	LTP220	ltpFR	1	6	1	BLADE	134	n/a	4	0	n/a	n/a	n/a	n/a	n/a
4037105	RECOG_TARGET	n/a	LTP220	ltpFR	1	6	-1	CHAPEL	280	1	4	-1	n/a	n/a	n/a	n/a	n/a
4038279	RECOG_RESP	n/a	LTP220	ltpFR	1	6	-1	CHAPEL	280	1	n/a	-1	n/a	n/a	n/a	n/a	n/a
4039805	RECOG_CONF	n/a	LTP220	ltpFR	1	6	-1	CHAPEL	280	n/a	4	-1	n/a	n/a	n/a	n/a	n/a
4042074	RECOG_TARGET	n/a	LTP220	ltpFR	1	6	-1	PLAYGROUND	1087	1	4	-1	n/a	n/a	n/a	n/a	n/a
4043147	RECOG_RESP	n/a	LTP220	ltpFR	1	6	-1	PLAYGROUND	1087	1	n/a	-1	n/a	n/a	n/a	n/a	n/a
4045647	RECOG_CONF	n/a	LTP220	ltpFR	1	6	-1	PLAYGROUND	1087	n/a	4	-1	n/a	n/a	n/a	n/a	n/a
4047661	RECOG_TARGET	n/a	LTP220	ltpFR	1	6	-1	COLESLAW	344	1	5	-1	n/a	n/a	n/a	n/a	n/a
4048924	RECOG_RESP	n/a	LTP220	ltpFR	1	6	-1	COLESLAW	344	1	n/a	-1	n/a	n/a	n/a	n/a	n/a
4050155	RECOG_CONF	n/a	LTP220	ltpFR	1	6	-1	COLESLAW	344	n/a	5	-1	n/a	n/a	n/a	n/a	n/a
4052205	RECOG_LURE	n/a	LTP220	ltpFR	1	6	n/a	ANCESTOR	20	0	2	n/a	n/a	n/a	n/a	n/a	n/a
4054062	RECOG_RESP	n/a	LTP220	ltpFR	1	6	n/a	ANCESTOR	20	0	n/a	n/a	n/a	n/a	n/a	n/a	n/a
4055212	RECOG_CONF	n/a	LTP220	ltpFR	1	6	n/a	ANCESTOR	20	n/a	2	n/a	n/a	n/a	n/a	n/a	n/a
4057114	RECOG_TARGET	n/a	LTP220	ltpFR	1	6	-1	PANTS	1010	1	5	-1	n/a	n/a	n/a	n/a	n/a
4059171	RECOG_RESP	n/a	LTP220	ltpFR	1	6	-1	PANTS	1010	1	n/a	-1	n/a	n/a	n/a	n/a	n/a
4060772	RECOG_CONF	n/a	LTP220	ltpFR	1	6	-1	PANTS	1010	n/a	5	-1	n/a	n/a	n/a	n/a	n/a
4062610	RECOG_TARGET	n/a	LTP220	ltpFR	1	6	-1	GROCERIES	663	1	5	-1	n/a	n/a	n/a	n/a	n/a
4063751	RECOG_RESP	n/a	LTP220	ltpFR	1	6	-1	GROCERIES	663	1	n/a	-1	n/a	n/a	n/a	n/a	n/a
4065139	RECOG_CONF	n/a	LTP220	ltpFR	1	6	-1	GROCERIES	663	n/a	5	-1	n/a	n/a	n/a	n/a	n/a
4067127	RECOG_LURE	n/a	LTP220	ltpFR	1	6	n/a	DUST	508	0	1	n/a	n/a	n/a	n/a	n/a	n/a
4068352	RECOG_RESP	n/a	LTP220	ltpFR	1	6	n/a	DUST	508	0	n/a	n/a	n/a	n/a	n/a	n/a	n/a
4070550	RECOG_CONF	n/a	LTP220	ltpFR	1	6	n/a	DUST	508	n/a	1	n/a	n/a	n/a	n/a	n/a	n/a
4072497	RECOG_LURE	n/a	LTP220	ltpFR	1	6	n/a	RAZOR	1171	1	5	n/a	n/a	n/a	n/a	n/a	n/a
4075526	RECOG_RESP	n/a	LTP220	ltpFR	1	6	n/a	RAZOR	1171	1	n/a	n/a	n/a	n/a	n/a	n/a	n/a
4076977	RECOG_CONF	n/a	LTP220	ltpFR	1	6	n/a	RAZOR	1171	n/a	5	n/a	n/a	n/a	n/a	n/a	n/a
4078996	RECOG_LURE	n/a	LTP220	ltpFR	1	6	n/a	WORLD	1622	0	2	n/a	n/a	n/a	n/a	n/a	n/a
4080825	RECOG_RESP	n/a	LTP220	ltpFR	1	6	n/a	WORLD	1622	0	n/a	n/a	n/a	n/a	n/a	n/a	n/a
4082080	RECOG_CONF	n/a	LTP220	ltpFR	1	6	n/a	WORLD	1622	n/a	2	n/a	n/a	n/a	n/a	n/a	n/a
4083874	RECOG_TARGET	n/a	LTP220	ltpFR	1	6	0	SUBWAY	1400	1	5	1	n/a	n/a	n/a	n/a	n/a
4087234	RECOG_RESP	n/a	LTP220	ltpFR	1	6	0	SUBWAY	1400	1	n/a	1	n/a	n/a	n/a	n/a	n/a
4088958	RECOG_CONF	n/a	LTP220	ltpFR	1	6	0	SUBWAY	1400	n/a	5	1	n/a	n/a	n/a	n/a	n/a
4090975	RECOG_TARGET	n/a	LTP220	ltpFR	1	6	1	CHART	282	1	4	3	n/a	n/a	n/a	n/a	n/a
4092232	RECOG_RESP	n/a	LTP220	ltpFR	1	6	1	CHART	282	1	n/a	3	n/a	n/a	n/a	n/a	n/a
4093473	RECOG_CONF	n/a	LTP220	ltpFR	1	6	1	CHART	282	n/a	4	3	n/a	n/a	n/a	n/a	n/a
4095810	RECOG_LURE	n/a	LTP220	ltpFR	1	6	n/a	PIG	1064	1	3	n/a	n/a	n/a	n/a	n/a	n/a
4098766	RECOG_RESP	n/a	LTP220	ltpFR	1	6	n/a	PIG	1064	1	n/a	n/a	n/a	n/a	n/a	n/a	n/a
4100037	RECOG_CONF	n/a	LTP220	ltpFR	1	6	n/a	PIG	1064	n/a	3	n/a	n/a	n/a	n/a	n/a	n/a
4102344	RECOG_TARGET	n/a	LTP220	ltpFR	1	6	1	TORCH	1484	1	4	1	n/a	n/a	n/a	n/a	n/a
4103971	RECOG_RESP	n/a	LTP220	ltpFR	1	6	1	TORCH	1484	1	n/a	1	n/a	n/a	n/a	n/a	n/a
4105318	RECOG_CONF	n/a	LTP220	ltpFR	1	6	1	TORCH	1484	n/a	4	1	n/a	n/a	n/a	n/a	n/a
4107520	RECOG_TARGET	n/a	LTP220	ltpFR	1	6	0	TUNNEL	1519	1	5	1	n/a	n/a	n/a	n/a	n/a
4108804	RECOG_RESP	n/a	LTP220	ltpFR	1	6	0	TUNNEL	1519	1	n/a	1	n/a	n/a	n/a	n/a	n/a
4110035	RECOG_CONF	n/a	LTP220	ltpFR	1	6	0	TUNNEL	1519	n/a	5	1	n/a	n/a	n/a	n/a	n/a
4112138	RECOG_LURE	n/a	LTP220	ltpFR	1	6	n/a	EWE	542	0	5	n/a	n/a	n/a	n/a	n/a	n/a
4113580	RECOG_RESP	n/a	LTP220	ltpFR	1	6	n/a	EWE	542	0	n/a	n/a	n/a	n/a	n/a	n/a	n/a
4115429	RECOG_CONF	n/a	LTP220	ltpFR	1	6	n/a	EWE	542	n/a	5	n/a	n/a	n/a	n/a	n/a	n/a
4117441	RECOG_TARGET	n/a	LTP220	ltpFR	1	6	1	LADY	794	1	5	1	n/a	n/a	n/a	n/a	n/a
4119362	RECOG_RESP	n/a	LTP220	ltpFR	1	6	1	LADY	794	1	n/a	1	n/a	n/a	n/a	n/a	n/a
4120705	RECOG_CONF	n/a	LTP220	ltpFR	1	6	1	LADY	794	n/a	5	1	n/a	n/a	n/a	n/a	n/a
4122670	RECOG_TARGET	n/a	LTP220	ltpFR	1	6	-1	VEAL	1551	1	5	-1	n/a	n/a	n/a	n/a	n/a
4123667	RECOG_RESP	n/a	LTP220	ltpFR	1	6	-1	VEAL	1551	1	n/a	-1	n/a	n/a	n/a	n/a	n/a
4125075	RECOG_CONF	n/a	LTP220	ltpFR	1	6	-1	VEAL	1551	n/a	5	-1	n/a	n/a	n/a	n/a	n/a
4127120	RECOG_TARGET	n/a	LTP220	ltpFR	1	6	0	AGENT	10	1	4	n/a	n/a	n/a	n/a	n/a	n/a
4128705	RECOG_RESP	n/a	LTP220	ltpFR	1	6	0	AGENT	10	1	n/a	n/a	n/a	n/a	n/a	n/a	n/a
4130029	RECOG_CONF	n/a	LTP220	ltpFR	1	6	0	AGENT	10	n/a	4	n/a	n/a	n/a	n/a	n/a	n/a
4132357	RECOG_LURE	n/a	LTP220	ltpFR	1	6	n/a	SWITCH	1422	0	3	n/a	n/a	n/a	n/a	n/a	n/a
4135278	RECOG_RESP	n/a	LTP220	ltpFR	1	6	n/a	SWITCH	1422	0	n/a	n/a	n/a	n/a	n/a	n/a	n/a
4138135	RECOG_CONF	n/a	LTP220	ltpFR	1	6	n/a	SWITCH	1422	n/a	3	n/a	n/a	n/a	n/a	n/a	n/a
4151847	REC_START	n/a	LTP220	ltpFR	1	7	n/a	n/a	n/a	n/a	n/a	n/a	n/a	n/a	n/a	n/a	n/a
4151897	RECOG_TARGET	n/a	LTP220	ltpFR	1	7	0	RICE	1190	1	4	3	n/a	n/a	n/a	n/a	n/a
4154514	RECOG_RESP	n/a	LTP220	ltpFR	1	7	0	RICE	1190	1	n/a	3	n/a	n/a	n/a	n/a	n/a
4156427	RECOG_CONF	n/a	LTP220	ltpFR	1	7	0	RICE	1190	n/a	4	3	n/a	n/a	n/a	n/a	n/a
4158389	RECOG_LURE	n/a	LTP220	ltpFR	1	7	n/a	FUR	615	0	4	n/a	n/a	n/a	n/a	n/a	n/a
4159808	RECOG_RESP	n/a	LTP220	ltpFR	1	7	n/a	FUR	615	0	n/a	n/a	n/a	n/a	n/a	n/a	n/a
4162081	RECOG_CONF	n/a	LTP220	ltpFR	1	7	n/a	FUR	615	n/a	4	n/a	n/a	n/a	n/a	n/a	n/a
4163992	RECOG_LURE	n/a	LTP220	ltpFR	1	7	n/a	PATROL	1027	0	3	n/a	n/a	n/a	n/a	n/a	n/a
4166676	RECOG_RESP	n/a	LTP220	ltpFR	1	7	n/a	PATROL	1027	0	n/a	n/a	n/a	n/a	n/a	n/a	n/a
4170269	RECOG_CONF	n/a	LTP220	ltpFR	1	7	n/a	PATROL	1027	n/a	3	n/a	n/a	n/a	n/a	n/a	n/a
4172174	RECOG_LURE	n/a	LTP220	ltpFR	1	7	n/a	FRIEND	606	1	4	n/a	n/a	n/a	n/a	n/a	n/a
4175750	RECOG_RESP	n/a	LTP220	ltpFR	1	7	n/a	FRIEND	606	1	n/a	n/a	n/a	n/a	n/a	n/a	n/a
4177859	RECOG_CONF	n/a	LTP220	ltpFR	1	7	n/a	FRIEND	606	n/a	4	n/a	n/a	n/a	n/a	n/a	n/a
4179986	RECOG_TARGET	n/a	LTP220	ltpFR	1	7	-1	RADIO	1157	1	5	-1	n/a	n/a	n/a	n/a	n/a
4181877	RECOG_RESP	n/a	LTP220	ltpFR	1	7	-1	RADIO	1157	1	n/a	-1	n/a	n/a	n/a	n/a	n/a
4183490	RECOG_CONF	n/a	LTP220	ltpFR	1	7	-1	RADIO	1157	n/a	5	-1	n/a	n/a	n/a	n/a	n/a
4185681	RECOG_TARGET	n/a	LTP220	ltpFR	1	7	1	UNICORN	1538	1	5	0	n/a	n/a	n/a	n/a	n/a
4186830	RECOG_RESP	n/a	LTP220	ltpFR	1	7	1	UNICORN	1538	1	n/a	0	n/a	n/a	n/a	n/a	n/a
4188149	RECOG_CONF	n/a	LTP220	ltpFR	1	7	1	UNICORN	1538	n/a	5	0	n/a	n/a	n/a	n/a	n/a
4190259	RECOG_TARGET	n/a	LTP220	ltpFR	1	7	0	BEAD	103	1	5	0	n/a	n/a	n/a	n/a	n/a
4191648	RECOG_RESP	n/a	LTP220	ltpFR	1	7	0	BEAD	103	1	n/a	0	n/a	n/a	n/a	n/a	n/a
4192979	RECOG_CONF	n/a	LTP220	ltpFR	1	7	0	BEAD	103	n/a	5	0	n/a	n/a	n/a	n/a	n/a
4195100	RECOG_TARGET	n/a	LTP220	ltpFR	1	7	-1	WALNUT	1584	1	5	-1	n/a	n/a	n/a	n/a	n/a
4196046	RECOG_RESP	n/a	LTP220	ltpFR	1	7	-1	WALNUT	1584	1	n/a	-1	n/a	n/a	n/a	n/a	n/a
4197518	RECOG_CONF	n/a	LTP220	ltpFR	1	7	-1	WALNUT	1584	n/a	5	-1	n/a	n/a	n/a	n/a	n/a
4199643	RECOG_TARGET	n/a	LTP220	ltpFR	1	7	0	ASTRONAUT	51	1	5	1	n/a	n/a	n/a	n/a	n/a
4201326	RECOG_RESP	n/a	LTP220	ltpFR	1	7	0	ASTRONAUT	51	1	n/a	1	n/a	n/a	n/a	n/a	n/a
4203125	RECOG_CONF	n/a	LTP220	ltpFR	1	7	0	ASTRONAUT	51	n/a	5	1	n/a	n/a	n/a	n/a	n/a
4205290	RECOG_LURE	n/a	LTP220	ltpFR	1	7	n/a	FAMILY	550	0	4	n/a	n/a	n/a	n/a	n/a	n/a
4207783	RECOG_RESP	n/a	LTP220	ltpFR	1	7	n/a	FAMILY	550	0	n/a	n/a	n/a	n/a	n/a	n/a	n/a
4209391	RECOG_CONF	n/a	LTP220	ltpFR	1	7	n/a	FAMILY	550	n/a	4	n/a	n/a	n/a	n/a	n/a	n/a
4211396	RECOG_TARGET	n/a	LTP220	ltpFR	1	7	-1	ROOST	1208	1	4	-1	n/a	n/a	n/a	n/a	n/a
4215594	RECOG_RESP	n/a	LTP220	ltpFR	1	7	-1	ROOST	1208	1	n/a	-1	n/a	n/a	n/a	n/a	n/a
4217901	RECOG_CONF	n/a	LTP220	ltpFR	1	7	-1	ROOST	1208	n/a	4	-1	n/a	n/a	n/a	n/a	n/a
4220145	RECOG_LURE	n/a	LTP220	ltpFR	1	7	n/a	DRAWING	494	1	4	n/a	n/a	n/a	n/a	n/a	n/a
4221636	RECOG_RESP	n/a	LTP220	ltpFR	1	7	n/a	DRAWING	494	1	n/a	n/a	n/a	n/a	n/a	n/a	n/a
4223634	RECOG_CONF	n/a	LTP220	ltpFR	1	7	n/a	DRAWING	494	n/a	4	n/a	n/a	n/a	n/a	n/a	n/a
4225876	RECOG_TARGET	n/a	LTP220	ltpFR	1	7	-1	CLARINET	317	1	5	-1	n/a	n/a	n/a	n/a	n/a
4227813	RECOG_RESP	n/a	LTP220	ltpFR	1	7	-1	CLARINET	317	1	n/a	-1	n/a	n/a	n/a	n/a	n/a
4229426	RECOG_CONF	n/a	LTP220	ltpFR	1	7	-1	CLARINET	317	n/a	5	-1	n/a	n/a	n/a	n/a	n/a
4231554	RECOG_TARGET	n/a	LTP220	ltpFR	1	7	1	TYPEWRITER	1531	1	5	0	n/a	n/a	n/a	n/a	n/a
4234034	RECOG_RESP	n/a	LTP220	ltpFR	1	7	1	TYPEWRITER	1531	1	n/a	0	n/a	n/a	n/a	n/a	n/a
4235260	RECOG_CONF	n/a	LTP220	ltpFR	1	7	1	TYPEWRITER	1531	n/a	5	0	n/a	n/a	n/a	n/a	n/a
4237527	RECOG_TARGET	n/a	LTP220	ltpFR	1	7	-1	FLY	586	0	4	-1	n/a	n/a	n/a	n/a	n/a
4239993	RECOG_RESP	n/a	LTP220	ltpFR	1	7	-1	FLY	586	0	n/a	-1	n/a	n/a	n/a	n/a	n/a
4241244	RECOG_CONF	n/a	LTP220	ltpFR	1	7	-1	FLY	586	n/a	4	-1	n/a	n/a	n/a	n/a	n/a
4243342	RECOG_LURE	n/a	LTP220	ltpFR	1	7	n/a	BARTENDER	92	1	4	n/a	n/a	n/a	n/a	n/a	n/a
4247782	RECOG_RESP	n/a	LTP220	ltpFR	1	7	n/a	BARTENDER	92	1	n/a	n/a	n/a	n/a	n/a	n/a	n/a
4249500	RECOG_CONF	n/a	LTP220	ltpFR	1	7	n/a	BARTENDER	92	n/a	4	n/a	n/a	n/a	n/a	n/a	n/a
4251479	RECOG_TARGET	n/a	LTP220	ltpFR	1	7	-1	CHESS	294	0	3	-1	n/a	n/a	n/a	n/a	n/a
4254553	RECOG_RESP	n/a	LTP220	ltpFR	1	7	-1	CHESS	294	0	n/a	-1	n/a	n/a	n/a	n/a	n/a
4256984	RECOG_CONF	n/a	LTP220	ltpFR	1	7	-1	CHESS	294	n/a	3	-1	n/a	n/a	n/a	n/a	n/a
4258984	RECOG_TARGET	n/a	LTP220	ltpFR	1	7	0	PUBLISHER	1137	1	5	1	n/a	n/a	n/a	n/a	n/a
4260672	RECOG_RESP	n/a	LTP220	ltpFR	1	7	0	PUBLISHER	1137	1	n/a	1	n/a	n/a	n/a	n/a	n/a
4262208	RECOG_CONF	n/a	LTP220	ltpFR	1	7	0	PUBLISHER	1137	n/a	5	1	n/a	n/a	n/a	n/a	n/a
4264271	RECOG_LURE	n/a	LTP220	ltpFR	1	7	n/a	POCKETBOOK	1094	0	4	n/a	n/a	n/a	n/a	n/a	n/a
4266349	RECOG_RESP	n/a	LTP220	ltpFR	1	7	n/a	POCKETBOOK	1094	0	n/a	n/a	n/a	n/a	n/a	n/a	n/a
4268146	RECOG_CONF	n/a	LTP220	ltpFR	1	7	n/a	POCKETBOOK	1094	n/a	4	n/a	n/a	n/a	n/a	n/a	n/a
4270126	RECOG_LURE	n/a	LTP220	ltpFR	1	7	n/a	MOSS	918	0	4	n/a	n/a	n/a	n/a	n/a	n/a
4272757	RECOG_RESP	n/a	LTP220	ltpFR	1	7	n/a	MOSS	918	0	n/a	n/a	n/a	n/a	n/a	n/a	n/a
4274214	RECOG_CONF	n/a	LTP220	ltpFR	1	7	n/a	MOSS	918	n/a	4	n/a	n/a	n/a	n/a	n/a	n/a
4283356	REC_START	n/a	LTP220	ltpFR	1	8	n/a	n/a	n/a	n/a	n/a	n/a	n/a	n/a	n/a	n/a	n/a
4283400	RECOG_LURE	n/a	LTP220	ltpFR	1	8	n/a	POOL	1103	0	3	n/a	n/a	n/a	n/a	n/a	n/a
4285353	RECOG_RESP	n/a	LTP220	ltpFR	1	8	n/a	POOL	1103	0	n/a	n/a	n/a	n/a	n/a	n/a	n/a
4287109	RECOG_CONF	n/a	LTP220	ltpFR	1	8	n/a	POOL	1103	n/a	3	n/a	n/a	n/a	n/a	n/a	n/a
4289147	RECOG_TARGET	n/a	LTP220	ltpFR	1	8	0	CROW	414	1	4	0	n/a	n/a	n/a	n/a	n/a
4292583	RECOG_RESP	n/a	LTP220	ltpFR	1	8	0	CROW	414	1	n/a	0	n/a	n/a	n/a	n/a	n/a
4294166	RECOG_CONF	n/a	LTP220	ltpFR	1	8	0	CROW	414	n/a	4	0	n/a	n/a	n/a	n/a	n/a
4296166	RECOG_LURE	n/a	LTP220	ltpFR	1	8	n/a	TRAY	1498	0	4	n/a	n/a	n/a	n/a	n/a	n/a
4297859	RECOG_RESP	n/a	LTP220	ltpFR	1	8	n/a	TRAY	1498	0	n/a	n/a	n/a	n/a	n/a	n/a	n/a
4299363	RECOG_CONF	n/a	LTP220	ltpFR	1	8	n/a	TRAY	1498	n/a	4	n/a	n/a	n/a	n/a	n/a	n/a
4301335	RECOG_TARGET	n/a	LTP220	ltpFR	1	8	1	TENT	1449	1	3	3	n/a	n/a	n/a	n/a	n/a
4304857	RECOG_RESP	n/a	LTP220	ltpFR	1	8	1	TENT	1449	1	n/a	3	n/a	n/a	n/a	n/a	n/a
4307202	RECOG_CONF	n/a	LTP220	ltpFR	1	8	1	TENT	1449	n/a	3	3	n/a	n/a	n/a	n/a	n/a
4309113	RECOG_LURE	n/a	LTP220	ltpFR	1	8	n/a	PEDESTRIAN	1038	0	3	n/a	n/a	n/a	n/a	n/a	n/a
4313952	RECOG_RESP	n/a	LTP220	ltpFR	1	8	n/a	PEDESTRIAN	1038	0	n/a	n/a	n/a	n/a	n/a	n/a	n/a
4315797	RECOG_CONF	n/a	LTP220	ltpFR	1	8	n/a	PEDESTRIAN	1038	n/a	3	n/a	n/a	n/a	n/a	n/a	n/a
4317930	RECOG_LURE	n/a	LTP220	ltpFR	1	8	n/a	ULCER	1533	0	4	n/a	n/a	n/a	n/a	n/a	n/a
4319683	RECOG_RESP	n/a	LTP220	ltpFR	1	8	n/a	ULCER	1533	0	n/a	n/a	n/a	n/a	n/a	n/a	n/a
4320942	RECOG_CONF	n/a	LTP220	ltpFR	1	8	n/a	ULCER	1533	n/a	4	n/a	n/a	n/a	n/a	n/a	n/a
4322958	RECOG_LURE	n/a	LTP220	ltpFR	1	8	n/a	BALLOON	75	1	4	n/a	n/a	n/a	n/a	n/a	n/a
4324670	RECOG_RESP	n/a	LTP220	ltpFR	1	8	n/a	BALLOON	75	1	n/a	n/a	n/a	n/a	n/a	n/a	n/a
4326408	RECOG_CONF	n/a	LTP220	ltpFR	1	8	n/a	BALLOON	75	n/a	4	n/a	n/a	n/a	n/a	n/a	n/a
4328562	RECOG_LURE	n/a	LTP220	ltpFR	1	8	n/a	MAGNET	855	1	4	n/a	n/a	n/a	n/a	n/a	n/a
4330263	RECOG_RESP	n/a	LTP220	ltpFR	1	8	n/a	MAGNET	855	1	n/a	n/a	n/a	n/a	n/a	n/a	n/a
4331902	RECOG_CONF	n/a	LTP220	ltpFR	1	8	n/a	MAGNET	855	n/a	4	n/a	n/a	n/a	n/a	n/a	n/a
4333923	RECOG_TARGET	n/a	LTP220	ltpFR	1	8	1	CONSUMER	365	1	4	1	n/a	n/a	n/a	n/a	n/a
4337762	RECOG_RESP	n/a	LTP220	ltpFR	1	8	1	CONSUMER	365	1	n/a	1	n/a	n/a	n/a	n/a	n/a
4339230	RECOG_CONF	n/a	LTP220	ltpFR	1	8	1	CONSUMER	365	n/a	4	1	n/a	n/a	n/a	n/a	n/a
4341269	RECOG_TARGET	n/a	LTP220	ltpFR	1	8	1	CATERPILLAR	259	0	4	2	n/a	n/a	n/a	n/a	n/a
4344606	RECOG_RESP	n/a	LTP220	ltpFR	1	8	1	CATERPILLAR	259	0	n/a	2	n/a	n/a	n/a	n/a	n/a
4346281	RECOG_CONF	n/a	LTP220	ltpFR	1	8	1	CATERPILLAR	259	n/a	4	2	n/a	n/a	n/a	n/a	n/a
4348262	RECOG_TARGET	n/a	LTP220	ltpFR	1	8	0	MOSQUITO	917	0	3	0	n/a	n/a	n/a	n/a	n/a
4350413	RECOG_RESP	n/a	LTP220	ltpFR	1	8	0	MOSQUITO	917	0	n/a	0	n/a	n/a	n/a	n/a	n/a
4352164	RECOG_CONF	n/a	LTP220	ltpFR	1	8	0	MOSQUITO	917	n/a	3	0	n/a	n/a	n/a	n/a	n/a
4353932	RECOG_TARGET	n/a	LTP220	ltpFR	1	8	0	BREAD	170	1	4	3	n/a	n/a	n/a	n/a	n/a
4355443	RECOG_RESP	n/a	LTP220	ltpFR	1	8	0	BREAD	170	1	n/a	3	n/a	n/a	n/a	n/a	n/a
4356699	RECOG_CONF	n/a	LTP220	ltpFR	1	8	0	BREAD	170	n/a	4	3	n/a	n/a	n/a	n/a	n/a
4358643	RECOG_TARGET	n/a	LTP220	ltpFR	1	8	1	KLEENEX	782	1	5	0	n/a	n/a	n/a	n/a	n/a
4359692	RECOG_RESP	n/a	LTP220	ltpFR	1	8	1	KLEENEX	782	1	n/a	0	n/a	n/a	n/a	n/a	n/a
4360910	RECOG_CONF	n/a	LTP220	ltpFR	1	8	1	KLEENEX	782	n/a	5	0	n/a	n/a	n/a	n/a	n/a
4362808	RECOG_LURE	n/a	LTP220	ltpFR	1	8	n/a	FINGERNAIL	568	0	4	n/a	n/a	n/a	n/a	n/a	n/a
4364815	RECOG_RESP	n/a	LTP220	ltpFR	1	8	n/a	FINGERNAIL	568	0	n/a	n/a	n/a	n/a	n/a	n/a	n/a
4366123	RECOG_CONF	n/a	LTP220	ltpFR	1	8	n/a	FINGERNAIL	568	n/a	4	n/a	n/a	n/a	n/a	n/a	n/a
4367994	RECOG_TARGET	n/a	LTP220	ltpFR	1	8	0	ONION	977	1	5	0	n/a	n/a	n/a	n/a	n/a
4369603	RECOG_RESP	n/a	LTP220	ltpFR	1	8	0	ONION	977	1	n/a	0	n/a	n/a	n/a	n/a	n/a
4370883	RECOG_CONF	n/a	LTP220	ltpFR	1	8	0	ONION	977	n/a	5	0	n/a	n/a	n/a	n/a	n/a
4373448	RECOG_TARGET	n/a	LTP220	ltpFR	1	8	0	VET	1560	1	5	1	n/a	n/a	n/a	n/a	n/a
4374884	RECOG_RESP	n/a	LTP220	ltpFR	1	8	0	VET	1560	1	n/a	1	n/a	n/a	n/a	n/a	n/a
4376284	RECOG_CONF	n/a	LTP220	ltpFR	1	8	0	VET	1560	n/a	5	1	n/a	n/a	n/a	n/a	n/a
4378484	RECOG_TARGET	n/a	LTP220	ltpFR	1	8	0	WILDERNESS	1610	1	4	1	n/a	n/a	n/a	n/a	n/a
4380266	RECOG_RESP	n/a	LTP220	ltpFR	1	8	0	WILDERNESS	1610	1	n/a	1	n/a	n/a	n/a	n/a	n/a
4382149	RECOG_CONF	n/a	LTP220	ltpFR	1	8	0	WILDERNESS	1610	n/a	4	1	n/a	n/a	n/a	n/a	n/a
4384247	RECOG_TARGET	n/a	LTP220	ltpFR	1	8	1	GOAT	644	0	2	3	n/a	n/a	n/a	n/a	n/a
4387330	RECOG_RESP	n/a	LTP220	ltpFR	1	8	1	GOAT	644	0	n/a	3	n/a	n/a	n/a	n/a	n/a
4388613	RECOG_CONF	n/a	LTP220	ltpFR	1	8	1	GOAT	644	n/a	2	3	n/a	n/a	n/a	n/a	n/a
4390496	RECOG_LURE	n/a	LTP220	ltpFR	1	8	n/a	CEREAL	272	0	3	n/a	n/a	n/a	n/a	n/a	n/a
4392943	RECOG_RESP	n/a	LTP220	ltpFR	1	8	n/a	CEREAL	272	0	n/a	n/a	n/a	n/a	n/a	n/a	n/a
4395675	RECOG_CONF	n/a	LTP220	ltpFR	1	8	n/a	CEREAL	272	n/a	3	n/a	n/a	n/a	n/a	n/a	n/a
4397690	RECOG_TARGET	n/a	LTP220	ltpFR	1	8	0	CAFE	216	1	4	1	n/a	n/a	n/a	n/a	n/a
4399687	RECOG_RESP	n/a	LTP220	ltpFR	1	8	0	CAFE	216	1	n/a	1	n/a	n/a	n/a	n/a	n/a
4400983	RECOG_CONF	n/a	LTP220	ltpFR	1	8	0	CAFE	216	n/a	4	1	n/a	n/a	n/a	n/a	n/a
4429600	REC_START	n/a	LTP220	ltpFR	1	9	n/a	n/a	n/a	n/a	n/a	n/a	n/a	n/a	n/a	n/a	n/a
4429651	RECOG_TARGET	n/a	LTP220	ltpFR	1	9	1	RADIATOR	1156	1	3	0	n/a	n/a	n/a	n/a	n/a
4432908	RECOG_RESP	n/a	LTP220	ltpFR	1	9	1	RADIATOR	1156	1	n/a	0	n/a	n/a	n/a	n/a	n/a
4435132	RECOG_CONF	n/a	LTP220	ltpFR	1	9	1	RADIATOR	1156	n/a	3	0	n/a	n/a	n/a	n/a	n/a
4437231	RECOG_TARGET	n/a	LTP220	ltpFR	1	9	1	JUGGLER	763	1	4	1	n/a	n/a	n/a	n/a	n/a
4438481	RECOG_RESP	n/a	LTP220	ltpFR	1	9	1	JUGGLER	763	1	n/a	1	n/a	n/a	n/a	n/a	n/a
4440097	RECOG_CONF	n/a	LTP220	ltpFR	1	9	1	JUGGLER	763	n/a	4	1	n/a	n/a	n/a	n/a	n/a
4442225	RECOG_TARGET	n/a	LTP220	ltpFR	1	9	0	DEPARTMENT	449	1	5	0	n/a	n/a	n/a	n/a	n/a
4443964	RECOG_RESP	n/a	LTP220	ltpFR	1	9	0	DEPARTMENT	449	1	n/a	0	n/a	n/a	n/a	n/a	n/a
4445954	RECOG_CONF	n/a	LTP220	ltpFR	1	9	0	DEPARTMENT	449	n/a	5	0	n/a	n/a	n/a	n/a	n/a
4447853	RECOG_TARGET	n/a	LTP220	ltpFR	1	9	0	OTTER	986	0	2	1	n/a	n/a	n/a	n/a	n/a
4449646	RECOG_RESP	n/a	LTP220	ltpFR	1	9	0	OTTER	986	0	n/a	1	n/a	n/a	n/a	n/a	n/a
4451213	RECOG_CONF	n/a	LTP220	ltpFR	1	9	0	OTTER	986	n/a	2	1	n/a	n/a	n/a	n/a	n/a
4453106	RECOG_LURE	n/a	LTP220	ltpFR	1	9	n/a	WATER	1594	1	3	n/a	n/a	n/a	n/a	n/a	n/a
4456259	RECOG_RESP	n/a	LTP220	ltpFR	1	9	n/a	WATER	1594	1	n/a	n/a	n/a	n/a	n/a	n/a	n/a
4457781	RECOG_CONF	n/a	LTP220	ltpFR	1	9	n/a	WATER	1594	n/a	3	n/a	n/a	n/a	n/a	n/a	n/a
4459757	RECOG_LURE	n/a	LTP220	ltpFR	1	9	n/a	CUCUMBER	421	0	2	n/a	n/a	n/a	n/a	n/a	n/a
4462351	RECOG_RESP	n/a	LTP220	ltpFR	1	9	n/a	CUCUMBER	421	0	n/a	n/a	n/a	n/a	n/a	n/a	n/a
4464151	RECOG_CONF	n/a	LTP220	ltpFR	1	9	n/a	CUCUMBER	421	n/a	2	n/a	n/a	n/a	n/a	n/a	n/a
4466240	RECOG_LURE	n/a	LTP220	ltpFR	1	9	n/a	TOURIST	1488	1	5	n/a	n/a	n/a	n/a	n/a	n/a
4467772	RECOG_RESP	n/a	LTP220	ltpFR	1	9	n/a	TOURIST	1488	1	n/a	n/a	n/a	n/a	n/a	n/a	n/a
4468911	RECOG_CONF	n/a	LTP220	ltpFR	1	9	n/a	TOURIST	1488	n/a	5	n/a	n/a	n/a	n/a	n/a	n/a
4470906	RECOG_LURE	n/a	LTP220	ltpFR	1	9	n/a	FOLLOWER	589	0	2	n/a	n/a	n/a	n/a	n/a	n/a
4474380	RECOG_RESP	n/a	LTP220	ltpFR	1	9	n/a	FOLLOWER	589	0	n/a	n/a	n/a	n/a	n/a	n/a	n/a
4477962	RECOG_CONF	n/a	LTP220	ltpFR	1	9	n/a	FOLLOWER	589	n/a	2	n/a	n/a	n/a	n/a	n/a	n/a
4480067	RECOG_LURE	n/a	LTP220	ltpFR	1	9	n/a	TERRITORY	1452	0	3	n/a	n/a	n/a	n/a	n/a	n/a
4482039	RECOG_RESP	n/a	LTP220	ltpFR	1	9	n/a	TERRITORY	1452	0	n/a	n/a	n/a	n/a	n/a	n/a	n/a
4483544	RECOG_CONF	n/a	LTP220	ltpFR	1	9	n/a	TERRITORY	1452	n/a	3	n/a	n/a	n/a	n/a	n/a	n/a
4485721	RECOG_TARGET	n/a	LTP220	ltpFR	1	9	1	CREEK	404	1	4	n/a	n/a	n/a	n/a	n/a	n/a
4487742	RECOG_RESP	n/a	LTP220	ltpFR	1	9	1	CREEK	404	1	n/a	n/a	n/a	n/a	n/a	n/a	n/a
4489200	RECOG_CONF	n/a	LTP220	ltpFR	1	9	1	CREEK	404	n/a	4	n/a	n/a	n/a	n/a	n/a	n/a
4491426	RECOG_TARGET	n/a	LTP220	ltpFR	1	9	0	COCOON	339	1	5	3	n/a	n/a	n/a	n/a	n/a
4492670	RECOG_RESP	n/a	LTP220	ltpFR	1	9	0	COCOON	339	1	n/a	3	n/a	n/a	n/a	n/a	n/a
4494298	RECOG_CONF	n/a	LTP220	ltpFR	1	9	0	COCOON	339	n/a	5	3	n/a	n/a	n/a	n/a	n/a
4496253	RECOG_LURE	n/a	LTP220	ltpFR	1	9	n/a	SCARF	1246	1	3	n/a	n/a	n/a	n/a	n/a	n/a
4503191	RECOG_RESP	n/a	LTP220	ltpFR	1	9	n/a	SCARF	1246	1	n/a	n/a	n/a	n/a	n/a	n/a	n/a
4505385	RECOG_CONF	n/a	LTP220	ltpFR	1	9	n/a	SCARF	1246	n/a	3	n/a	n/a	n/a	n/a	n/a	n/a
4507537	RECOG_TARGET	n/a	LTP220	ltpFR	1	9	-1	NIGHTGOWN	953	1	4	-1	n/a	n/a	n/a	n/a	n/a
4510976	RECOG_RESP	n/a	LTP220	ltpFR	1	9	-1	NIGHTGOWN	953	1	n/a	-1	n/a	n/a	n/a	n/a	n/a
