onset	duration	trial_type	sample	stim_file	subject	experiment	session	trial	task	item_name	item_num	recog_resp	recog_conf	resp	answer	test_x	test_y	test_z	color_r	color_g	color_b	case	font
223.782	n/a	SESS_START	111891	n/a	LTP207	ltpFR	12	n/a	n/a	n/a	n/a	1	3	n/a	n/a	0	0	0	n/a	n/a	n/a	n/a	n/a
257.096	n/a	START	128548	n/a	LTP207	ltpFR	12	n/a	n/a	n/a	n/a	n/a	n/a	n/a	n/a	n/a	n/a	n/a	n/a	n/a	n/a	n/a	n/a
257.144	n/a	PROB	128572	n/a	LTP207	ltpFR	12	n/a	n/a	n/a	n/a	n/a	n/a	n/a	18	6	8	4	n/a	n/a	n/a	n/a	n/a
259.53	n/a	PROB	129765	n/a	LTP207	ltpFR	12	n/a	n/a	n/a	n/a	n/a	n/a	n/a	9	4	1	4	n/a	n/a	n/a	n/a	n/a
260.74	n/a	PROB	130370	n/a	LTP207	ltpFR	12	n/a	n/a	n/a	n/a	n/a	n/a	n/a	14	2	6	6	n/a	n/a	n/a	n/a	n/a
262.206	n/a	PROB	131103	n/a	LTP207	ltpFR	12	n/a	n/a	n/a	n/a	n/a	n/a	n/a	24	9	9	6	n/a	n/a	n/a	n/a	n/a
263.946	n/a	PROB	131973	n/a	LTP207	ltpFR	12	n/a	n/a	n/a	n/a	n/a	n/a	n/a	12	3	3	6	n/a	n/a	n/a	n/a	n/a
265.692	n/a	PROB	132846	n/a	LTP207	ltpFR	12	n/a	n/a	n/a	n/a	n/a	n/a	n/a	23	6	9	8	n/a	n/a	n/a	n/a	n/a
268.062	n/a	PROB	134031	n/a	LTP207	ltpFR	12	n/a	n/a	n/a	n/a	n/a	n/a	n/a	22	8	6	8	n/a	n/a	n/a	n/a	n/a
269.768	n/a	PROB	134884	n/a	LTP207	ltpFR	12	n/a	n/a	n/a	n/a	n/a	n/a	n/a	17	2	9	6	n/a	n/a	n/a	n/a	n/a
271.598	n/a	PROB	135799	n/a	LTP207	ltpFR	12	n/a	n/a	n/a	n/a	n/a	n/a	n/a	18	4	8	6	n/a	n/a	n/a	n/a	n/a
273.338	n/a	PROB	136669	n/a	LTP207	ltpFR	12	n/a	n/a	n/a	n/a	n/a	n/a	n/a	14	8	1	5	n/a	n/a	n/a	n/a	n/a
274.988	n/a	PROB	137494	n/a	LTP207	ltpFR	12	n/a	n/a	n/a	n/a	n/a	n/a	n/a	15	9	1	5	n/a	n/a	n/a	n/a	n/a
276.32	n/a	STOP	138160	n/a	LTP207	ltpFR	12	n/a	n/a	n/a	n/a	n/a	n/a	n/a	n/a	n/a	n/a	n/a	n/a	n/a	n/a	n/a	n/a
306.684	n/a	START	153342	n/a	LTP207	ltpFR	12	n/a	n/a	n/a	n/a	n/a	n/a	n/a	n/a	n/a	n/a	n/a	n/a	n/a	n/a	n/a	n/a
308.198	n/a	PROB	154099	n/a	LTP207	ltpFR	12	n/a	n/a	n/a	n/a	n/a	n/a	n/a	13	2	2	9	n/a	n/a	n/a	n/a	n/a
309.838	n/a	PROB	154919	n/a	LTP207	ltpFR	12	n/a	n/a	n/a	n/a	n/a	n/a	n/a	18	5	9	4	n/a	n/a	n/a	n/a	n/a
311.636	n/a	PROB	155818	n/a	LTP207	ltpFR	12	n/a	n/a	n/a	n/a	n/a	n/a	n/a	9	1	1	7	n/a	n/a	n/a	n/a	n/a
312.716	n/a	PROB	156358	n/a	LTP207	ltpFR	12	n/a	n/a	n/a	n/a	n/a	n/a	n/a	15	5	7	3	n/a	n/a	n/a	n/a	n/a
314.186	n/a	STOP	157093	n/a	LTP207	ltpFR	12	n/a	n/a	n/a	n/a	n/a	n/a	n/a	n/a	n/a	n/a	n/a	n/a	n/a	n/a	n/a	n/a
315.884	n/a	WORD	157942	wordpools/wasnorm_wordpool_less_exclusions.txt	LTP207	ltpFR	12	1	1	PROTON	1132	1	2	0	n/a	0	0	0	0.57763671875	0.412841796875	1	upper	zerothre.ttf
318.896	n/a	START	159448	n/a	LTP207	ltpFR	12	n/a	n/a	n/a	n/a	n/a	n/a	n/a	n/a	n/a	n/a	n/a	n/a	n/a	n/a	n/a	n/a
320.044	n/a	PROB	160022	n/a	LTP207	ltpFR	12	n/a	n/a	n/a	n/a	n/a	n/a	n/a	7	2	2	3	n/a	n/a	n/a	n/a	n/a
321.656	n/a	PROB	160828	n/a	LTP207	ltpFR	12	n/a	n/a	n/a	n/a	n/a	n/a	n/a	12	6	1	5	n/a	n/a	n/a	n/a	n/a
323.062	n/a	PROB	161531	n/a	LTP207	ltpFR	12	n/a	n/a	n/a	n/a	n/a	n/a	n/a	18	4	6	8	n/a	n/a	n/a	n/a	n/a
324.266	n/a	PROB	162133	n/a	LTP207	ltpFR	12	n/a	n/a	n/a	n/a	n/a	n/a	n/a	10	3	4	3	n/a	n/a	n/a	n/a	n/a
325.85	n/a	STOP	162925	n/a	LTP207	ltpFR	12	n/a	n/a	n/a	n/a	n/a	n/a	n/a	n/a	n/a	n/a	n/a	n/a	n/a	n/a	n/a	n/a
328.116	n/a	WORD	164058	wordpools/wasnorm_wordpool_less_exclusions.txt	LTP207	ltpFR	12	1	1	BAKER	71	0	n/a	1	n/a	0	0	0	0.57763671875	0.412841796875	1	upper	zerothre.ttf
331.128	n/a	START	165564	n/a	LTP207	ltpFR	12	n/a	n/a	n/a	n/a	n/a	n/a	n/a	n/a	n/a	n/a	n/a	n/a	n/a	n/a	n/a	n/a
332.164	n/a	PROB	166082	n/a	LTP207	ltpFR	12	n/a	n/a	n/a	n/a	n/a	n/a	n/a	22	8	6	8	n/a	n/a	n/a	n/a	n/a
333.68	n/a	PROB	166840	n/a	LTP207	ltpFR	12	n/a	n/a	n/a	n/a	n/a	n/a	n/a	14	7	2	5	n/a	n/a	n/a	n/a	n/a
335.008	n/a	PROB	167504	n/a	LTP207	ltpFR	12	n/a	n/a	n/a	n/a	n/a	n/a	n/a	14	4	2	8	n/a	n/a	n/a	n/a	n/a
336.764	n/a	PROB	168382	n/a	LTP207	ltpFR	12	n/a	n/a	n/a	n/a	n/a	n/a	n/a	17	5	4	8	n/a	n/a	n/a	n/a	n/a
338.474	n/a	STOP	169237	n/a	LTP207	ltpFR	12	n/a	n/a	n/a	n/a	n/a	n/a	n/a	n/a	n/a	n/a	n/a	n/a	n/a	n/a	n/a	n/a
339.97	n/a	WORD	169985	wordpools/wasnorm_wordpool_less_exclusions.txt	LTP207	ltpFR	12	1	1	VOLUNTEER	1577	n/a	n/a	1	n/a	0	0	0	0.57763671875	0.412841796875	1	upper	zerothre.ttf
342.982	n/a	START	171491	n/a	LTP207	ltpFR	12	n/a	n/a	n/a	n/a	n/a	n/a	n/a	n/a	n/a	n/a	n/a	n/a	n/a	n/a	n/a	n/a
343.926	n/a	PROB	171963	n/a	LTP207	ltpFR	12	n/a	n/a	n/a	n/a	n/a	n/a	n/a	12	3	2	7	n/a	n/a	n/a	n/a	n/a
345.758	n/a	PROB	172879	n/a	LTP207	ltpFR	12	n/a	n/a	n/a	n/a	n/a	n/a	n/a	18	5	6	7	n/a	n/a	n/a	n/a	n/a
347.146	n/a	PROB	173573	n/a	LTP207	ltpFR	12	n/a	n/a	n/a	n/a	n/a	n/a	n/a	15	7	2	6	n/a	n/a	n/a	n/a	n/a
348.342	n/a	PROB	174171	n/a	LTP207	ltpFR	12	n/a	n/a	n/a	n/a	n/a	n/a	n/a	16	9	1	6	n/a	n/a	n/a	n/a	n/a
349.484	n/a	STOP	174742	n/a	LTP207	ltpFR	12	n/a	n/a	n/a	n/a	n/a	n/a	n/a	n/a	n/a	n/a	n/a	n/a	n/a	n/a	n/a	n/a
352.032	n/a	WORD	176016	wordpools/wasnorm_wordpool_less_exclusions.txt	LTP207	ltpFR	12	1	1	ROOSTER	1209	n/a	n/a	1	n/a	0	0	0	0.57763671875	0.412841796875	1	upper	zerothre.ttf
355.044	n/a	START	177522	n/a	LTP207	ltpFR	12	n/a	n/a	n/a	n/a	n/a	n/a	n/a	n/a	n/a	n/a	n/a	n/a	n/a	n/a	n/a	n/a
355.972	n/a	PROB	177986	n/a	LTP207	ltpFR	12	n/a	n/a	n/a	n/a	n/a	n/a	n/a	13	7	4	2	n/a	n/a	n/a	n/a	n/a
357.744	n/a	PROB	178872	n/a	LTP207	ltpFR	12	n/a	n/a	n/a	n/a	n/a	n/a	n/a	19	6	6	7	n/a	n/a	n/a	n/a	n/a
359.728	n/a	PROB	179864	n/a	LTP207	ltpFR	12	n/a	n/a	n/a	n/a	n/a	n/a	n/a	15	4	5	6	n/a	n/a	n/a	n/a	n/a
361.066	n/a	PROB	180533	n/a	LTP207	ltpFR	12	n/a	n/a	n/a	n/a	n/a	n/a	n/a	11	1	8	2	n/a	n/a	n/a	n/a	n/a
362.332	n/a	STOP	181166	n/a	LTP207	ltpFR	12	n/a	n/a	n/a	n/a	n/a	n/a	n/a	n/a	n/a	n/a	n/a	n/a	n/a	n/a	n/a	n/a
363.902	n/a	WORD	181951	wordpools/wasnorm_wordpool_less_exclusions.txt	LTP207	ltpFR	12	1	0	LEMON	810	n/a	n/a	0	n/a	0	0	0	0.422607421875	0.5869140625	0	lower	amplitud.ttf
366.914	n/a	START	183457	n/a	LTP207	ltpFR	12	n/a	n/a	n/a	n/a	n/a	n/a	n/a	n/a	n/a	n/a	n/a	n/a	n/a	n/a	n/a	n/a
368.002	n/a	PROB	184001	n/a	LTP207	ltpFR	12	n/a	n/a	n/a	n/a	n/a	n/a	n/a	14	1	5	8	n/a	n/a	n/a	n/a	n/a
369.356	n/a	PROB	184678	n/a	LTP207	ltpFR	12	n/a	n/a	n/a	n/a	n/a	n/a	n/a	25	8	9	8	n/a	n/a	n/a	n/a	n/a
374.708	n/a	STOP	187354	n/a	LTP207	ltpFR	12	n/a	n/a	n/a	n/a	n/a	n/a	n/a	n/a	n/a	n/a	n/a	n/a	n/a	n/a	n/a	n/a
376.092	n/a	WORD	188046	wordpools/wasnorm_wordpool_less_exclusions.txt	LTP207	ltpFR	12	1	0	LIME	823	n/a	n/a	0	n/a	0	0	0	0.422607421875	0.5869140625	0	lower	amplitud.ttf
379.104	n/a	START	189552	n/a	LTP207	ltpFR	12	n/a	n/a	n/a	n/a	n/a	n/a	n/a	n/a	n/a	n/a	n/a	n/a	n/a	n/a	n/a	n/a
380.064	n/a	PROB	190032	n/a	LTP207	ltpFR	12	n/a	n/a	n/a	n/a	n/a	n/a	n/a	15	4	8	3	n/a	n/a	n/a	n/a	n/a
381.628	n/a	PROB	190814	n/a	LTP207	ltpFR	12	n/a	n/a	n/a	n/a	n/a	n/a	n/a	17	5	3	9	n/a	n/a	n/a	n/a	n/a
383.594	n/a	PROB	191797	n/a	LTP207	ltpFR	12	n/a	n/a	n/a	n/a	n/a	n/a	n/a	11	2	8	1	n/a	n/a	n/a	n/a	n/a
385.048	n/a	PROB	192524	n/a	LTP207	ltpFR	12	n/a	n/a	n/a	n/a	n/a	n/a	n/a	16	8	4	4	n/a	n/a	n/a	n/a	n/a
386.542	n/a	STOP	193271	n/a	LTP207	ltpFR	12	n/a	n/a	n/a	n/a	n/a	n/a	n/a	n/a	n/a	n/a	n/a	n/a	n/a	n/a	n/a	n/a
388.054	n/a	WORD	194027	wordpools/wasnorm_wordpool_less_exclusions.txt	LTP207	ltpFR	12	1	1	ELECTRON	522	n/a	n/a	0	n/a	0	0	0	0.57763671875	0.412841796875	1	upper	zerothre.ttf
391.066	n/a	START	195533	n/a	LTP207	ltpFR	12	n/a	n/a	n/a	n/a	n/a	n/a	n/a	n/a	n/a	n/a	n/a	n/a	n/a	n/a	n/a	n/a
392.06	n/a	PROB	196030	n/a	LTP207	ltpFR	12	n/a	n/a	n/a	n/a	n/a	n/a	n/a	8	5	1	2	n/a	n/a	n/a	n/a	n/a
393.306	n/a	PROB	196653	n/a	LTP207	ltpFR	12	n/a	n/a	n/a	n/a	n/a	n/a	n/a	14	7	3	4	n/a	n/a	n/a	n/a	n/a
394.478	n/a	PROB	197239	n/a	LTP207	ltpFR	12	n/a	n/a	n/a	n/a	n/a	n/a	n/a	21	6	8	7	n/a	n/a	n/a	n/a	n/a
396.67	n/a	PROB	198335	n/a	LTP207	ltpFR	12	n/a	n/a	n/a	n/a	n/a	n/a	n/a	18	5	4	9	n/a	n/a	n/a	n/a	n/a
397.766	n/a	STOP	198883	n/a	LTP207	ltpFR	12	n/a	n/a	n/a	n/a	n/a	n/a	n/a	n/a	n/a	n/a	n/a	n/a	n/a	n/a	n/a	n/a
400.274	n/a	WORD	200137	wordpools/wasnorm_wordpool_less_exclusions.txt	LTP207	ltpFR	12	1	1	CARROT	249	n/a	n/a	0	n/a	0	0	0	0.57763671875	0.412841796875	1	upper	zerothre.ttf
403.286	n/a	START	201643	n/a	LTP207	ltpFR	12	n/a	n/a	n/a	n/a	n/a	n/a	n/a	n/a	n/a	n/a	n/a	n/a	n/a	n/a	n/a	n/a
404.164	n/a	PROB	202082	n/a	LTP207	ltpFR	12	n/a	n/a	n/a	n/a	n/a	n/a	n/a	20	7	9	4	n/a	n/a	n/a	n/a	n/a
406.072	n/a	PROB	203036	n/a	LTP207	ltpFR	12	n/a	n/a	n/a	n/a	n/a	n/a	n/a	23	7	9	7	n/a	n/a	n/a	n/a	n/a
408.02	n/a	PROB	204010	n/a	LTP207	ltpFR	12	n/a	n/a	n/a	n/a	n/a	n/a	n/a	22	9	7	6	n/a	n/a	n/a	n/a	n/a
411.286	n/a	STOP	205643	n/a	LTP207	ltpFR	12	n/a	n/a	n/a	n/a	n/a	n/a	n/a	n/a	n/a	n/a	n/a	n/a	n/a	n/a	n/a	n/a
412.212	n/a	WORD	206106	wordpools/wasnorm_wordpool_less_exclusions.txt	LTP207	ltpFR	12	1	0	DETECTIVE	454	n/a	n/a	1	n/a	0	0	0	0.422607421875	0.5869140625	0	lower	amplitud.ttf
415.224	n/a	START	207612	n/a	LTP207	ltpFR	12	n/a	n/a	n/a	n/a	n/a	n/a	n/a	n/a	n/a	n/a	n/a	n/a	n/a	n/a	n/a	n/a
416.328	n/a	PROB	208164	n/a	LTP207	ltpFR	12	n/a	n/a	n/a	n/a	n/a	n/a	n/a	23	7	5	9	n/a	n/a	n/a	n/a	n/a
417.974	n/a	PROB	208987	n/a	LTP207	ltpFR	12	n/a	n/a	n/a	n/a	n/a	n/a	n/a	16	2	7	7	n/a	n/a	n/a	n/a	n/a
419.842	n/a	PROB	209921	n/a	LTP207	ltpFR	12	n/a	n/a	n/a	n/a	n/a	n/a	n/a	16	8	3	5	n/a	n/a	n/a	n/a	n/a
421.454	n/a	PROB	210727	n/a	LTP207	ltpFR	12	n/a	n/a	n/a	n/a	n/a	n/a	n/a	10	7	1	2	n/a	n/a	n/a	n/a	n/a
422.886	n/a	STOP	211443	n/a	LTP207	ltpFR	12	n/a	n/a	n/a	n/a	n/a	n/a	n/a	n/a	n/a	n/a	n/a	n/a	n/a	n/a	n/a	n/a
424.25	n/a	WORD	212125	wordpools/wasnorm_wordpool_less_exclusions.txt	LTP207	ltpFR	12	1	0	RELISH	1183	n/a	n/a	0	n/a	0	0	0	0.422607421875	0.5869140625	0	lower	amplitud.ttf
427.262	n/a	START	213631	n/a	LTP207	ltpFR	12	n/a	n/a	n/a	n/a	n/a	n/a	n/a	n/a	n/a	n/a	n/a	n/a	n/a	n/a	n/a	n/a
428.314	n/a	PROB	214157	n/a	LTP207	ltpFR	12	n/a	n/a	n/a	n/a	n/a	n/a	n/a	20	8	6	6	n/a	n/a	n/a	n/a	n/a
433.628	n/a	PROB	216814	n/a	LTP207	ltpFR	12	n/a	n/a	n/a	n/a	n/a	n/a	n/a	12	8	2	2	n/a	n/a	n/a	n/a	n/a
434.816	n/a	STOP	217408	n/a	LTP207	ltpFR	12	n/a	n/a	n/a	n/a	n/a	n/a	n/a	n/a	n/a	n/a	n/a	n/a	n/a	n/a	n/a	n/a
436.294	n/a	WORD	218147	wordpools/wasnorm_wordpool_less_exclusions.txt	LTP207	ltpFR	12	1	0	PUPIL	1143	n/a	n/a	0	n/a	0	0	0	0.422607421875	0.5869140625	0	lower	amplitud.ttf
439.306	n/a	START	219653	n/a	LTP207	ltpFR	12	n/a	n/a	n/a	n/a	n/a	n/a	n/a	n/a	n/a	n/a	n/a	n/a	n/a	n/a	n/a	n/a
440.478	n/a	PROB	220239	n/a	LTP207	ltpFR	12	n/a	n/a	n/a	n/a	n/a	n/a	n/a	20	5	7	8	n/a	n/a	n/a	n/a	n/a
442.378	n/a	PROB	221189	n/a	LTP207	ltpFR	12	n/a	n/a	n/a	n/a	n/a	n/a	n/a	9	1	2	6	n/a	n/a	n/a	n/a	n/a
443.532	n/a	PROB	221766	n/a	LTP207	ltpFR	12	n/a	n/a	n/a	n/a	n/a	n/a	n/a	17	8	5	4	n/a	n/a	n/a	n/a	n/a
445.18	n/a	PROB	222590	n/a	LTP207	ltpFR	12	n/a	n/a	n/a	n/a	n/a	n/a	n/a	18	3	8	7	n/a	n/a	n/a	n/a	n/a
446.496	n/a	STOP	223248	n/a	LTP207	ltpFR	12	n/a	n/a	n/a	n/a	n/a	n/a	n/a	n/a	n/a	n/a	n/a	n/a	n/a	n/a	n/a	n/a
448.4	n/a	WORD	224200	wordpools/wasnorm_wordpool_less_exclusions.txt	LTP207	ltpFR	12	1	0	STAFF	1365	n/a	n/a	1	n/a	0	0	0	0.422607421875	0.5869140625	0	lower	amplitud.ttf
451.412	n/a	START	225706	n/a	LTP207	ltpFR	12	n/a	n/a	n/a	n/a	n/a	n/a	n/a	n/a	n/a	n/a	n/a	n/a	n/a	n/a	n/a	n/a
452.474	n/a	PROB	226237	n/a	LTP207	ltpFR	12	n/a	n/a	n/a	n/a	n/a	n/a	n/a	20	8	9	3	n/a	n/a	n/a	n/a	n/a
454.106	n/a	PROB	227053	n/a	LTP207	ltpFR	12	n/a	n/a	n/a	n/a	n/a	n/a	n/a	9	1	7	2	n/a	n/a	n/a	n/a	n/a
455.384	n/a	PROB	227692	n/a	LTP207	ltpFR	12	n/a	n/a	n/a	n/a	n/a	n/a	n/a	20	2	9	9	n/a	n/a	n/a	n/a	n/a
457.568	n/a	PROB	228784	n/a	LTP207	ltpFR	12	n/a	n/a	n/a	n/a	n/a	n/a	n/a	14	1	7	5	n/a	n/a	n/a	n/a	n/a
459.224	n/a	STOP	229612	n/a	LTP207	ltpFR	12	n/a	n/a	n/a	n/a	n/a	n/a	n/a	n/a	n/a	n/a	n/a	n/a	n/a	n/a	n/a	n/a
460.396	n/a	WORD	230198	wordpools/wasnorm_wordpool_less_exclusions.txt	LTP207	ltpFR	12	1	0	KEEPER	769	n/a	n/a	1	n/a	0	0	0	0.422607421875	0.5869140625	0	lower	amplitud.ttf
463.408	n/a	START	231704	n/a	LTP207	ltpFR	12	n/a	n/a	n/a	n/a	n/a	n/a	n/a	n/a	n/a	n/a	n/a	n/a	n/a	n/a	n/a	n/a
464.386	n/a	PROB	232193	n/a	LTP207	ltpFR	12	n/a	n/a	n/a	n/a	n/a	n/a	n/a	19	5	9	5	n/a	n/a	n/a	n/a	n/a
465.758	n/a	PROB	232879	n/a	LTP207	ltpFR	12	n/a	n/a	n/a	n/a	n/a	n/a	n/a	25	8	9	8	n/a	n/a	n/a	n/a	n/a
467.48	n/a	PROB	233740	n/a	LTP207	ltpFR	12	n/a	n/a	n/a	n/a	n/a	n/a	n/a	22	7	8	7	n/a	n/a	n/a	n/a	n/a
470.018	n/a	STOP	235009	n/a	LTP207	ltpFR	12	n/a	n/a	n/a	n/a	n/a	n/a	n/a	n/a	n/a	n/a	n/a	n/a	n/a	n/a	n/a	n/a
472.6	n/a	WORD	236300	wordpools/wasnorm_wordpool_less_exclusions.txt	LTP207	ltpFR	12	1	0	HINGE	709	n/a	n/a	0	n/a	0	0	0	0.422607421875	0.5869140625	0	lower	amplitud.ttf
475.612	n/a	START	237806	n/a	LTP207	ltpFR	12	n/a	n/a	n/a	n/a	n/a	n/a	n/a	n/a	n/a	n/a	n/a	n/a	n/a	n/a	n/a	n/a
476.782	n/a	PROB	238391	n/a	LTP207	ltpFR	12	n/a	n/a	n/a	n/a	n/a	n/a	n/a	11	1	2	8	n/a	n/a	n/a	n/a	n/a
478.03	n/a	PROB	239015	n/a	LTP207	ltpFR	12	n/a	n/a	n/a	n/a	n/a	n/a	n/a	12	2	8	2	n/a	n/a	n/a	n/a	n/a
479.77	n/a	PROB	239885	n/a	LTP207	ltpFR	12	n/a	n/a	n/a	n/a	n/a	n/a	n/a	16	6	7	3	n/a	n/a	n/a	n/a	n/a
483.612	n/a	STOP	241806	n/a	LTP207	ltpFR	12	n/a	n/a	n/a	n/a	n/a	n/a	n/a	n/a	n/a	n/a	n/a	n/a	n/a	n/a	n/a	n/a
484.714	n/a	WORD	242357	wordpools/wasnorm_wordpool_less_exclusions.txt	LTP207	ltpFR	12	1	1	CONSOLE	364	n/a	n/a	0	n/a	0	0	0	0.57763671875	0.412841796875	1	upper	zerothre.ttf
487.726	n/a	START	243863	n/a	LTP207	ltpFR	12	n/a	n/a	n/a	n/a	n/a	n/a	n/a	n/a	n/a	n/a	n/a	n/a	n/a	n/a	n/a	n/a
488.872	n/a	PROB	244436	n/a	LTP207	ltpFR	12	n/a	n/a	n/a	n/a	n/a	n/a	n/a	20	7	9	4	n/a	n/a	n/a	n/a	n/a
490.544	n/a	PROB	245272	n/a	LTP207	ltpFR	12	n/a	n/a	n/a	n/a	n/a	n/a	n/a	3	1	1	1	n/a	n/a	n/a	n/a	n/a
491.616	n/a	PROB	245808	n/a	LTP207	ltpFR	12	n/a	n/a	n/a	n/a	n/a	n/a	n/a	11	3	2	6	n/a	n/a	n/a	n/a	n/a
492.87	n/a	PROB	246435	n/a	LTP207	ltpFR	12	n/a	n/a	n/a	n/a	n/a	n/a	n/a	9	4	4	1	n/a	n/a	n/a	n/a	n/a
494.226	n/a	STOP	247113	n/a	LTP207	ltpFR	12	n/a	n/a	n/a	n/a	n/a	n/a	n/a	n/a	n/a	n/a	n/a	n/a	n/a	n/a	n/a	n/a
496.608	n/a	WORD	248304	wordpools/wasnorm_wordpool_less_exclusions.txt	LTP207	ltpFR	12	1	1	BACKBONE	66	n/a	n/a	0	n/a	0	0	0	0.57763671875	0.412841796875	1	upper	zerothre.ttf
499.622	n/a	START	249811	n/a	LTP207	ltpFR	12	n/a	n/a	n/a	n/a	n/a	n/a	n/a	n/a	n/a	n/a	n/a	n/a	n/a	n/a	n/a	n/a
500.54	n/a	PROB	250270	n/a	LTP207	ltpFR	12	n/a	n/a	n/a	n/a	n/a	n/a	n/a	13	2	8	3	n/a	n/a	n/a	n/a	n/a
503.244	n/a	PROB	251622	n/a	LTP207	ltpFR	12	n/a	n/a	n/a	n/a	n/a	n/a	n/a	12	9	2	1	n/a	n/a	n/a	n/a	n/a
504.556	n/a	PROB	252278	n/a	LTP207	ltpFR	12	n/a	n/a	n/a	n/a	n/a	n/a	n/a	12	2	9	1	n/a	n/a	n/a	n/a	n/a
507.62	n/a	STOP	253810	n/a	LTP207	ltpFR	12	n/a	n/a	n/a	n/a	n/a	n/a	n/a	n/a	n/a	n/a	n/a	n/a	n/a	n/a	n/a	n/a
509.568	n/a	REC_START	254784	n/a	LTP207	ltpFR	12	1	n/a	n/a	n/a	n/a	n/a	n/a	n/a	0	0	0	n/a	n/a	n/a	n/a	n/a
511.124	n/a	REC_WORD	255562	wordpools/wasnorm_wordpool_less_exclusions.txt	LTP207	ltpFR	12	1	1	BAKER	71	n/a	n/a	1	n/a	0	0	0	n/a	n/a	n/a	n/a	n/a
512.312	n/a	REC_WORD	256156	wordpools/wasnorm_wordpool_less_exclusions.txt	LTP207	ltpFR	12	1	1	PROTON	1132	n/a	n/a	0	n/a	0	0	0	n/a	n/a	n/a	n/a	n/a
513.788	n/a	REC_WORD	256894	wordpools/wasnorm_wordpool_less_exclusions.txt	LTP207	ltpFR	12	1	1	ELECTRON	522	n/a	n/a	0	n/a	0	0	0	n/a	n/a	n/a	n/a	n/a
518.398	n/a	REC_WORD	259199	wordpools/wasnorm_wordpool_less_exclusions.txt	LTP207	ltpFR	12	1	0	STAFF	1365	n/a	n/a	1	n/a	0	0	0	n/a	n/a	n/a	n/a	n/a
523.392	n/a	REC_WORD	261696	wordpools/wasnorm_wordpool_less_exclusions.txt	LTP207	ltpFR	12	1	0	DETECTIVE	454	n/a	n/a	1	n/a	0	0	0	n/a	n/a	n/a	n/a	n/a
528.656	n/a	REC_WORD	264328	wordpools/wasnorm_wordpool_less_exclusions.txt	LTP207	ltpFR	12	1	1	VOLUNTEER	1577	n/a	n/a	1	n/a	0	0	0	n/a	n/a	n/a	n/a	n/a
589.222	n/a	WORD	294611	wordpools/wasnorm_wordpool_less_exclusions.txt	LTP207	ltpFR	12	2	1	WINE	1613	n/a	n/a	0	n/a	0	0	0	0.57763671875	0.412841796875	1	upper	zerothre.ttf
593.12	n/a	WORD	296560	wordpools/wasnorm_wordpool_less_exclusions.txt	LTP207	ltpFR	12	2	1	ALLEY	15	n/a	n/a	0	n/a	0	0	0	0.57763671875	0.412841796875	1	upper	zerothre.ttf
597.278	n/a	WORD	298639	wordpools/wasnorm_wordpool_less_exclusions.txt	LTP207	ltpFR	12	2	1	CRAB	397	n/a	n/a	1	n/a	0	0	0	0.57763671875	0.412841796875	1	upper	zerothre.ttf
601.352	n/a	WORD	300676	wordpools/wasnorm_wordpool_less_exclusions.txt	LTP207	ltpFR	12	2	1	MONGOOSE	909	n/a	n/a	1	n/a	0	0	0	0.57763671875	0.412841796875	1	upper	zerothre.ttf
605.308	n/a	WORD	302654	wordpools/wasnorm_wordpool_less_exclusions.txt	LTP207	ltpFR	12	2	1	PANTHER	1009	n/a	n/a	1	n/a	0	0	0	0.57763671875	0.412841796875	1	upper	zerothre.ttf
609.332	n/a	WORD	304666	wordpools/wasnorm_wordpool_less_exclusions.txt	LTP207	ltpFR	12	2	1	SWAN	1417	n/a	n/a	1	n/a	0	0	0	0.57763671875	0.412841796875	1	upper	zerothre.ttf
613.238	n/a	WORD	306619	wordpools/wasnorm_wordpool_less_exclusions.txt	LTP207	ltpFR	12	2	1	UTENSIL	1542	n/a	n/a	0	n/a	0	0	0	0.57763671875	0.412841796875	1	upper	zerothre.ttf
617.096	n/a	WORD	308548	wordpools/wasnorm_wordpool_less_exclusions.txt	LTP207	ltpFR	12	2	1	BLADE	134	n/a	n/a	0	n/a	0	0	0	0.57763671875	0.412841796875	1	upper	zerothre.ttf
621.178	n/a	WORD	310589	wordpools/wasnorm_wordpool_less_exclusions.txt	LTP207	ltpFR	12	2	1	CAFE	216	n/a	n/a	0	n/a	0	0	0	0.57763671875	0.412841796875	1	upper	zerothre.ttf
625.36	n/a	WORD	312680	wordpools/wasnorm_wordpool_less_exclusions.txt	LTP207	ltpFR	12	2	1	KITCHEN	778	n/a	n/a	0	n/a	0	0	0	0.57763671875	0.412841796875	1	upper	zerothre.ttf
629.35	n/a	WORD	314675	wordpools/wasnorm_wordpool_less_exclusions.txt	LTP207	ltpFR	12	2	1	STABLE	1363	n/a	n/a	0	n/a	0	0	0	0.57763671875	0.412841796875	1	upper	zerothre.ttf
633.298	n/a	WORD	316649	wordpools/wasnorm_wordpool_less_exclusions.txt	LTP207	ltpFR	12	2	1	BERRY	122	n/a	n/a	0	n/a	0	0	0	0.57763671875	0.412841796875	1	upper	zerothre.ttf
637.49	n/a	WORD	318745	wordpools/wasnorm_wordpool_less_exclusions.txt	LTP207	ltpFR	12	2	1	CHEST	295	n/a	n/a	0	n/a	0	0	0	0.57763671875	0.412841796875	1	upper	zerothre.ttf
641.412	n/a	WORD	320706	wordpools/wasnorm_wordpool_less_exclusions.txt	LTP207	ltpFR	12	2	1	BALLERINA	74	n/a	n/a	1	n/a	0	0	0	0.57763671875	0.412841796875	1	upper	zerothre.ttf
645.326	n/a	WORD	322663	wordpools/wasnorm_wordpool_less_exclusions.txt	LTP207	ltpFR	12	2	1	VINE	1568	n/a	n/a	1	n/a	0	0	0	0.57763671875	0.412841796875	1	upper	zerothre.ttf
649.326	n/a	WORD	324663	wordpools/wasnorm_wordpool_less_exclusions.txt	LTP207	ltpFR	12	2	1	ZEBRA	1635	n/a	n/a	1	n/a	0	0	0	0.57763671875	0.412841796875	1	upper	zerothre.ttf
652.338	n/a	START	326169	n/a	LTP207	ltpFR	12	n/a	n/a	n/a	n/a	n/a	n/a	n/a	n/a	n/a	n/a	n/a	n/a	n/a	n/a	n/a	n/a
653.402	n/a	PROB	326701	n/a	LTP207	ltpFR	12	n/a	n/a	n/a	n/a	n/a	n/a	n/a	20	5	6	9	n/a	n/a	n/a	n/a	n/a
660.338	n/a	STOP	330169	n/a	LTP207	ltpFR	12	n/a	n/a	n/a	n/a	n/a	n/a	n/a	n/a	n/a	n/a	n/a	n/a	n/a	n/a	n/a	n/a
662.126	n/a	REC_START	331063	n/a	LTP207	ltpFR	12	2	n/a	n/a	n/a	n/a	n/a	n/a	n/a	0	0	0	n/a	n/a	n/a	n/a	n/a
669.62	n/a	REC_WORD	334810	wordpools/wasnorm_wordpool_less_exclusions.txt	LTP207	ltpFR	12	2	1	KITCHEN	778	n/a	n/a	0	n/a	0	0	0	n/a	n/a	n/a	n/a	n/a
675.024	n/a	REC_WORD	337512	wordpools/wasnorm_wordpool_less_exclusions.txt	LTP207	ltpFR	12	2	1	STABLE	1363	n/a	n/a	0	n/a	0	0	0	n/a	n/a	n/a	n/a	n/a
680.596	n/a	REC_WORD	340298	wordpools/wasnorm_wordpool_less_exclusions.txt	LTP207	ltpFR	12	2	1	MONGOOSE	909	n/a	n/a	1	n/a	0	0	0	n/a	n/a	n/a	n/a	n/a
698.526	n/a	REC_WORD	349263	wordpools/wasnorm_wordpool_less_exclusions.txt	LTP207	ltpFR	12	2	1	BALLERINA	74	n/a	n/a	1	n/a	0	0	0	n/a	n/a	n/a	n/a	n/a
705.4	n/a	REC_WORD	352700	wordpools/wasnorm_wordpool_less_exclusions.txt	LTP207	ltpFR	12	2	n/a	OWNER	993	n/a	n/a	n/a	n/a	0	0	0	n/a	n/a	n/a	n/a	n/a
749.318	n/a	WORD	374659	wordpools/wasnorm_wordpool_less_exclusions.txt	LTP207	ltpFR	12	3	1	BULB	192	n/a	n/a	0	n/a	0	0	0	0.57763671875	0.412841796875	1	upper	zerothre.ttf
753.45	n/a	WORD	376725	wordpools/wasnorm_wordpool_less_exclusions.txt	LTP207	ltpFR	12	3	1	COTTON	385	n/a	n/a	0	n/a	0	0	0	0.57763671875	0.412841796875	1	upper	zerothre.ttf
757.456	n/a	WORD	378728	wordpools/wasnorm_wordpool_less_exclusions.txt	LTP207	ltpFR	12	3	1	YARN	1631	n/a	n/a	0	n/a	0	0	0	0.57763671875	0.412841796875	1	upper	zerothre.ttf
761.57	n/a	WORD	380785	wordpools/wasnorm_wordpool_less_exclusions.txt	LTP207	ltpFR	12	3	1	FURNITURE	616	n/a	n/a	0	n/a	0	0	0	0.57763671875	0.412841796875	1	upper	zerothre.ttf
765.536	n/a	WORD	382768	wordpools/wasnorm_wordpool_less_exclusions.txt	LTP207	ltpFR	12	3	1	PEOPLE	1046	n/a	n/a	1	n/a	0	0	0	0.57763671875	0.412841796875	1	upper	zerothre.ttf
769.652	n/a	WORD	384826	wordpools/wasnorm_wordpool_less_exclusions.txt	LTP207	ltpFR	12	3	1	PERSONNEL	1053	n/a	n/a	1	n/a	0	0	0	0.57763671875	0.412841796875	1	upper	zerothre.ttf
773.694	n/a	WORD	386847	wordpools/wasnorm_wordpool_less_exclusions.txt	LTP207	ltpFR	12	3	1	LOBSTER	837	n/a	n/a	1	n/a	0	0	0	0.57763671875	0.412841796875	1	upper	zerothre.ttf
777.616	n/a	WORD	388808	wordpools/wasnorm_wordpool_less_exclusions.txt	LTP207	ltpFR	12	3	1	WARDROBE	1587	n/a	n/a	0	n/a	0	0	0	0.57763671875	0.412841796875	1	upper	zerothre.ttf
781.564	n/a	WORD	390782	wordpools/wasnorm_wordpool_less_exclusions.txt	LTP207	ltpFR	12	3	1	ENEMY	534	n/a	n/a	1	n/a	0	0	0	0.57763671875	0.412841796875	1	upper	zerothre.ttf
785.496	n/a	WORD	392748	wordpools/wasnorm_wordpool_less_exclusions.txt	LTP207	ltpFR	12	3	1	FELLOW	558	n/a	n/a	1	n/a	0	0	0	0.57763671875	0.412841796875	1	upper	zerothre.ttf
789.646	n/a	WORD	394823	wordpools/wasnorm_wordpool_less_exclusions.txt	LTP207	ltpFR	12	3	1	DRAWER	493	n/a	n/a	0	n/a	0	0	0	0.57763671875	0.412841796875	1	upper	zerothre.ttf
793.778	n/a	WORD	396889	wordpools/wasnorm_wordpool_less_exclusions.txt	LTP207	ltpFR	12	3	1	PACKAGE	997	n/a	n/a	0	n/a	0	0	0	0.57763671875	0.412841796875	1	upper	zerothre.ttf
797.802	n/a	WORD	398901	wordpools/wasnorm_wordpool_less_exclusions.txt	LTP207	ltpFR	12	3	1	SOCK	1339	n/a	n/a	0	n/a	0	0	0	0.57763671875	0.412841796875	1	upper	zerothre.ttf
801.692	n/a	WORD	400846	wordpools/wasnorm_wordpool_less_exclusions.txt	LTP207	ltpFR	12	3	1	PAINTING	1005	n/a	n/a	0	n/a	0	0	0	0.57763671875	0.412841796875	1	upper	zerothre.ttf
805.566	n/a	WORD	402783	wordpools/wasnorm_wordpool_less_exclusions.txt	LTP207	ltpFR	12	3	1	LOUNGE	845	n/a	n/a	0	n/a	0	0	0	0.57763671875	0.412841796875	1	upper	zerothre.ttf
809.632	n/a	WORD	404816	wordpools/wasnorm_wordpool_less_exclusions.txt	LTP207	ltpFR	12	3	1	LIVER	833	n/a	n/a	0	n/a	0	0	0	0.57763671875	0.412841796875	1	upper	zerothre.ttf
812.642	n/a	START	406321	n/a	LTP207	ltpFR	12	n/a	n/a	n/a	n/a	n/a	n/a	n/a	n/a	n/a	n/a	n/a	n/a	n/a	n/a	n/a	n/a
813.62	n/a	PROB	406810	n/a	LTP207	ltpFR	12	n/a	n/a	n/a	n/a	n/a	n/a	n/a	14	2	8	4	n/a	n/a	n/a	n/a	n/a
815.946	n/a	PROB	407973	n/a	LTP207	ltpFR	12	n/a	n/a	n/a	n/a	n/a	n/a	n/a	9	6	2	1	n/a	n/a	n/a	n/a	n/a
817.484	n/a	PROB	408742	n/a	LTP207	ltpFR	12	n/a	n/a	n/a	n/a	n/a	n/a	n/a	16	3	7	6	n/a	n/a	n/a	n/a	n/a
818.916	n/a	PROB	409458	n/a	LTP207	ltpFR	12	n/a	n/a	n/a	n/a	n/a	n/a	n/a	15	7	1	7	n/a	n/a	n/a	n/a	n/a
820.238	n/a	PROB	410119	n/a	LTP207	ltpFR	12	n/a	n/a	n/a	n/a	n/a	n/a	n/a	13	9	2	2	n/a	n/a	n/a	n/a	n/a
821.476	n/a	PROB	410738	n/a	LTP207	ltpFR	12	n/a	n/a	n/a	n/a	n/a	n/a	n/a	19	9	3	7	n/a	n/a	n/a	n/a	n/a
822.932	n/a	PROB	411466	n/a	LTP207	ltpFR	12	n/a	n/a	n/a	n/a	n/a	n/a	n/a	22	6	7	7	n/a	n/a	n/a	n/a	n/a
824.79	n/a	PROB	412395	n/a	LTP207	ltpFR	12	n/a	n/a	n/a	n/a	n/a	n/a	n/a	13	9	3	1	n/a	n/a	n/a	n/a	n/a
826.312	n/a	PROB	413156	n/a	LTP207	ltpFR	12	n/a	n/a	n/a	n/a	n/a	n/a	n/a	15	5	9	1	n/a	n/a	n/a	n/a	n/a
827.998	n/a	STOP	413999	n/a	LTP207	ltpFR	12	n/a	n/a	n/a	n/a	n/a	n/a	n/a	n/a	n/a	n/a	n/a	n/a	n/a	n/a	n/a	n/a
830.468	n/a	REC_START	415234	n/a	LTP207	ltpFR	12	3	n/a	n/a	n/a	n/a	n/a	n/a	n/a	0	0	0	n/a	n/a	n/a	n/a	n/a
867.532	n/a	REC_WORD	433766	wordpools/wasnorm_wordpool_less_exclusions.txt	LTP207	ltpFR	12	3	1	DRAWER	493	n/a	n/a	0	n/a	0	0	0	n/a	n/a	n/a	n/a	n/a
882.716	n/a	REC_WORD	441358	wordpools/wasnorm_wordpool_less_exclusions.txt	LTP207	ltpFR	12	3	1	LIVER	833	n/a	n/a	0	n/a	0	0	0	n/a	n/a	n/a	n/a	n/a
885.596	n/a	REC_WORD	442798	wordpools/wasnorm_wordpool_less_exclusions.txt	LTP207	ltpFR	12	3	1	BERRY	122	n/a	n/a	0	n/a	0	0	0	n/a	n/a	n/a	n/a	n/a
927.438	n/a	START	463719	n/a	LTP207	ltpFR	12	n/a	n/a	n/a	n/a	n/a	n/a	n/a	n/a	n/a	n/a	n/a	n/a	n/a	n/a	n/a	n/a
928.954	n/a	PROB	464477	n/a	LTP207	ltpFR	12	n/a	n/a	n/a	n/a	n/a	n/a	n/a	25	8	7	7	n/a	n/a	n/a	n/a	n/a
930.844	n/a	PROB	465422	n/a	LTP207	ltpFR	12	n/a	n/a	n/a	n/a	n/a	n/a	n/a	19	8	6	5	n/a	n/a	n/a	n/a	n/a
932.758	n/a	PROB	466379	n/a	LTP207	ltpFR	12	n/a	n/a	n/a	n/a	n/a	n/a	n/a	12	4	3	5	n/a	n/a	n/a	n/a	n/a
934.292	n/a	PROB	467146	n/a	LTP207	ltpFR	12	n/a	n/a	n/a	n/a	n/a	n/a	n/a	16	6	5	5	n/a	n/a	n/a	n/a	n/a
935.998	n/a	PROB	467999	n/a	LTP207	ltpFR	12	n/a	n/a	n/a	n/a	n/a	n/a	n/a	6	1	2	3	n/a	n/a	n/a	n/a	n/a
939.736	n/a	PROB	469868	n/a	LTP207	ltpFR	12	n/a	n/a	n/a	n/a	n/a	n/a	n/a	14	4	7	3	n/a	n/a	n/a	n/a	n/a
940.99	n/a	PROB	470495	n/a	LTP207	ltpFR	12	n/a	n/a	n/a	n/a	n/a	n/a	n/a	17	3	8	6	n/a	n/a	n/a	n/a	n/a
943.188	n/a	STOP	471594	n/a	LTP207	ltpFR	12	n/a	n/a	n/a	n/a	n/a	n/a	n/a	n/a	n/a	n/a	n/a	n/a	n/a	n/a	n/a	n/a
944.454	n/a	WORD	472227	wordpools/wasnorm_wordpool_less_exclusions.txt	LTP207	ltpFR	12	4	1	TURNIP	1521	n/a	n/a	0	n/a	0	0	0	0.57763671875	0.412841796875	1	upper	zerothre.ttf
947.466	n/a	START	473733	n/a	LTP207	ltpFR	12	n/a	n/a	n/a	n/a	n/a	n/a	n/a	n/a	n/a	n/a	n/a	n/a	n/a	n/a	n/a	n/a
948.284	n/a	PROB	474142	n/a	LTP207	ltpFR	12	n/a	n/a	n/a	n/a	n/a	n/a	n/a	7	5	1	1	n/a	n/a	n/a	n/a	n/a
949.724	n/a	PROB	474862	n/a	LTP207	ltpFR	12	n/a	n/a	n/a	n/a	n/a	n/a	n/a	16	6	3	7	n/a	n/a	n/a	n/a	n/a
951.356	n/a	PROB	475678	n/a	LTP207	ltpFR	12	n/a	n/a	n/a	n/a	n/a	n/a	n/a	9	2	4	3	n/a	n/a	n/a	n/a	n/a
953.196	n/a	PROB	476598	n/a	LTP207	ltpFR	12	n/a	n/a	n/a	n/a	n/a	n/a	n/a	16	4	4	8	n/a	n/a	n/a	n/a	n/a
956.092	n/a	PROB	478046	n/a	LTP207	ltpFR	12	n/a	n/a	n/a	n/a	n/a	n/a	n/a	5	1	2	2	n/a	n/a	n/a	n/a	n/a
957.118	n/a	PROB	478559	n/a	LTP207	ltpFR	12	n/a	n/a	n/a	n/a	n/a	n/a	n/a	18	7	7	4	n/a	n/a	n/a	n/a	n/a
958.6	n/a	PROB	479300	n/a	LTP207	ltpFR	12	n/a	n/a	n/a	n/a	n/a	n/a	n/a	9	4	2	3	n/a	n/a	n/a	n/a	n/a
960.08	n/a	PROB	480040	n/a	LTP207	ltpFR	12	n/a	n/a	n/a	n/a	n/a	n/a	n/a	13	4	4	5	n/a	n/a	n/a	n/a	n/a
962.02	n/a	STOP	481010	n/a	LTP207	ltpFR	12	n/a	n/a	n/a	n/a	n/a	n/a	n/a	n/a	n/a	n/a	n/a	n/a	n/a	n/a	n/a	n/a
964.664	n/a	WORD	482332	wordpools/wasnorm_wordpool_less_exclusions.txt	LTP207	ltpFR	12	4	1	DRESSER	496	n/a	n/a	0	n/a	0	0	0	0.57763671875	0.412841796875	1	upper	zerothre.ttf
967.676	n/a	START	483838	n/a	LTP207	ltpFR	12	n/a	n/a	n/a	n/a	n/a	n/a	n/a	n/a	n/a	n/a	n/a	n/a	n/a	n/a	n/a	n/a
968.68	n/a	PROB	484340	n/a	LTP207	ltpFR	12	n/a	n/a	n/a	n/a	n/a	n/a	n/a	5	1	1	3	n/a	n/a	n/a	n/a	n/a
969.918	n/a	PROB	484959	n/a	LTP207	ltpFR	12	n/a	n/a	n/a	n/a	n/a	n/a	n/a	25	8	8	9	n/a	n/a	n/a	n/a	n/a
972.194	n/a	PROB	486097	n/a	LTP207	ltpFR	12	n/a	n/a	n/a	n/a	n/a	n/a	n/a	12	2	2	8	n/a	n/a	n/a	n/a	n/a
973.558	n/a	PROB	486779	n/a	LTP207	ltpFR	12	n/a	n/a	n/a	n/a	n/a	n/a	n/a	11	6	2	3	n/a	n/a	n/a	n/a	n/a
974.886	n/a	PROB	487443	n/a	LTP207	ltpFR	12	n/a	n/a	n/a	n/a	n/a	n/a	n/a	8	4	1	2	n/a	n/a	n/a	n/a	n/a
977.156	n/a	PROB	488578	n/a	LTP207	ltpFR	12	n/a	n/a	n/a	n/a	n/a	n/a	n/a	21	8	7	6	n/a	n/a	n/a	n/a	n/a
981.07	n/a	PROB	490535	n/a	LTP207	ltpFR	12	n/a	n/a	n/a	n/a	n/a	n/a	n/a	13	4	6	3	n/a	n/a	n/a	n/a	n/a
982.382	n/a	STOP	491191	n/a	LTP207	ltpFR	12	n/a	n/a	n/a	n/a	n/a	n/a	n/a	n/a	n/a	n/a	n/a	n/a	n/a	n/a	n/a	n/a
984.69	n/a	WORD	492345	wordpools/wasnorm_wordpool_less_exclusions.txt	LTP207	ltpFR	12	4	1	SHOULDER	1294	n/a	n/a	0	n/a	0	0	0	0.57763671875	0.412841796875	1	upper	zerothre.ttf
987.702	n/a	START	493851	n/a	LTP207	ltpFR	12	n/a	n/a	n/a	n/a	n/a	n/a	n/a	n/a	n/a	n/a	n/a	n/a	n/a	n/a	n/a	n/a
988.856	n/a	PROB	494428	n/a	LTP207	ltpFR	12	n/a	n/a	n/a	n/a	n/a	n/a	n/a	12	4	6	2	n/a	n/a	n/a	n/a	n/a
991.208	n/a	PROB	495604	n/a	LTP207	ltpFR	12	n/a	n/a	n/a	n/a	n/a	n/a	n/a	14	8	5	1	n/a	n/a	n/a	n/a	n/a
992.698	n/a	PROB	496349	n/a	LTP207	ltpFR	12	n/a	n/a	n/a	n/a	n/a	n/a	n/a	11	6	4	1	n/a	n/a	n/a	n/a	n/a
994.288	n/a	PROB	497144	n/a	LTP207	ltpFR	12	n/a	n/a	n/a	n/a	n/a	n/a	n/a	11	4	2	5	n/a	n/a	n/a	n/a	n/a
996.378	n/a	PROB	498189	n/a	LTP207	ltpFR	12	n/a	n/a	n/a	n/a	n/a	n/a	n/a	17	4	7	6	n/a	n/a	n/a	n/a	n/a
999.556	n/a	PROB	499778	n/a	LTP207	ltpFR	12	n/a	n/a	n/a	n/a	n/a	n/a	n/a	10	4	4	2	n/a	n/a	n/a	n/a	n/a
1001.12	n/a	PROB	500560	n/a	LTP207	ltpFR	12	n/a	n/a	n/a	n/a	n/a	n/a	n/a	12	1	8	3	n/a	n/a	n/a	n/a	n/a
1002.47	n/a	STOP	501235	n/a	LTP207	ltpFR	12	n/a	n/a	n/a	n/a	n/a	n/a	n/a	n/a	n/a	n/a	n/a	n/a	n/a	n/a	n/a	n/a
1004.592	n/a	WORD	502296	wordpools/wasnorm_wordpool_less_exclusions.txt	LTP207	ltpFR	12	4	1	BUN	197	n/a	n/a	0	n/a	0	0	0	0.57763671875	0.412841796875	1	upper	zerothre.ttf
1007.604	n/a	START	503802	n/a	LTP207	ltpFR	12	n/a	n/a	n/a	n/a	n/a	n/a	n/a	n/a	n/a	n/a	n/a	n/a	n/a	n/a	n/a	n/a
1008.532	n/a	PROB	504266	n/a	LTP207	ltpFR	12	n/a	n/a	n/a	n/a	n/a	n/a	n/a	25	9	8	8	n/a	n/a	n/a	n/a	n/a
1011.486	n/a	PROB	505743	n/a	LTP207	ltpFR	12	n/a	n/a	n/a	n/a	n/a	n/a	n/a	19	9	4	6	n/a	n/a	n/a	n/a	n/a
1012.916	n/a	PROB	506458	n/a	LTP207	ltpFR	12	n/a	n/a	n/a	n/a	n/a	n/a	n/a	23	5	9	9	n/a	n/a	n/a	n/a	n/a
1016.086	n/a	PROB	508043	n/a	LTP207	ltpFR	12	n/a	n/a	n/a	n/a	n/a	n/a	n/a	13	3	7	3	n/a	n/a	n/a	n/a	n/a
1017.666	n/a	PROB	508833	n/a	LTP207	ltpFR	12	n/a	n/a	n/a	n/a	n/a	n/a	n/a	16	4	4	8	n/a	n/a	n/a	n/a	n/a
1018.922	n/a	PROB	509461	n/a	LTP207	ltpFR	12	n/a	n/a	n/a	n/a	n/a	n/a	n/a	23	7	9	6	n/a	n/a	n/a	n/a	n/a
1023.606	n/a	STOP	511803	n/a	LTP207	ltpFR	12	n/a	n/a	n/a	n/a	n/a	n/a	n/a	n/a	n/a	n/a	n/a	n/a	n/a	n/a	n/a	n/a
1024.436	n/a	WORD	512218	wordpools/wasnorm_wordpool_less_exclusions.txt	LTP207	ltpFR	12	4	1	BUTTER	205	n/a	n/a	0	n/a	0	0	0	0.57763671875	0.412841796875	1	upper	zerothre.ttf
1027.448	n/a	START	513724	n/a	LTP207	ltpFR	12	n/a	n/a	n/a	n/a	n/a	n/a	n/a	n/a	n/a	n/a	n/a	n/a	n/a	n/a	n/a	n/a
1028.408	n/a	PROB	514204	n/a	LTP207	ltpFR	12	n/a	n/a	n/a	n/a	n/a	n/a	n/a	18	8	7	3	n/a	n/a	n/a	n/a	n/a
1030.032	n/a	PROB	515016	n/a	LTP207	ltpFR	12	n/a	n/a	n/a	n/a	n/a	n/a	n/a	13	2	2	9	n/a	n/a	n/a	n/a	n/a
1031.412	n/a	PROB	515706	n/a	LTP207	ltpFR	12	n/a	n/a	n/a	n/a	n/a	n/a	n/a	16	6	8	2	n/a	n/a	n/a	n/a	n/a
1033.41	n/a	PROB	516705	n/a	LTP207	ltpFR	12	n/a	n/a	n/a	n/a	n/a	n/a	n/a	18	7	6	5	n/a	n/a	n/a	n/a	n/a
1035.344	n/a	PROB	517672	n/a	LTP207	ltpFR	12	n/a	n/a	n/a	n/a	n/a	n/a	n/a	9	7	1	1	n/a	n/a	n/a	n/a	n/a
1036.414	n/a	PROB	518207	n/a	LTP207	ltpFR	12	n/a	n/a	n/a	n/a	n/a	n/a	n/a	12	6	4	2	n/a	n/a	n/a	n/a	n/a
1037.694	n/a	PROB	518847	n/a	LTP207	ltpFR	12	n/a	n/a	n/a	n/a	n/a	n/a	n/a	12	2	3	7	n/a	n/a	n/a	n/a	n/a
1038.898	n/a	PROB	519449	n/a	LTP207	ltpFR	12	n/a	n/a	n/a	n/a	n/a	n/a	n/a	11	6	1	4	n/a	n/a	n/a	n/a	n/a
1040.22	n/a	PROB	520110	n/a	LTP207	ltpFR	12	n/a	n/a	n/a	n/a	n/a	n/a	n/a	19	8	5	6	n/a	n/a	n/a	n/a	n/a
1041.88	n/a	STOP	520940	n/a	LTP207	ltpFR	12	n/a	n/a	n/a	n/a	n/a	n/a	n/a	n/a	n/a	n/a	n/a	n/a	n/a	n/a	n/a	n/a
1044.436	n/a	WORD	522218	wordpools/wasnorm_wordpool_less_exclusions.txt	LTP207	ltpFR	12	4	1	CUB	419	n/a	n/a	1	n/a	0	0	0	0.57763671875	0.412841796875	1	upper	zerothre.ttf
1047.448	n/a	START	523724	n/a	LTP207	ltpFR	12	n/a	n/a	n/a	n/a	n/a	n/a	n/a	n/a	n/a	n/a	n/a	n/a	n/a	n/a	n/a	n/a
1048.268	n/a	PROB	524134	n/a	LTP207	ltpFR	12	n/a	n/a	n/a	n/a	n/a	n/a	n/a	21	8	8	5	n/a	n/a	n/a	n/a	n/a
1049.732	n/a	PROB	524866	n/a	LTP207	ltpFR	12	n/a	n/a	n/a	n/a	n/a	n/a	n/a	13	2	4	7	n/a	n/a	n/a	n/a	n/a
1051.338	n/a	PROB	525669	n/a	LTP207	ltpFR	12	n/a	n/a	n/a	n/a	n/a	n/a	n/a	20	9	8	3	n/a	n/a	n/a	n/a	n/a
1053.312	n/a	PROB	526656	n/a	LTP207	ltpFR	12	n/a	n/a	n/a	n/a	n/a	n/a	n/a	21	4	7	9	n/a	n/a	n/a	n/a	n/a
1055.076	n/a	PROB	527538	n/a	LTP207	ltpFR	12	n/a	n/a	n/a	n/a	n/a	n/a	n/a	19	9	7	3	n/a	n/a	n/a	n/a	n/a
1056.7	n/a	PROB	528350	n/a	LTP207	ltpFR	12	n/a	n/a	n/a	n/a	n/a	n/a	n/a	18	5	6	7	n/a	n/a	n/a	n/a	n/a
1058.054	n/a	PROB	529027	n/a	LTP207	ltpFR	12	n/a	n/a	n/a	n/a	n/a	n/a	n/a	18	5	4	9	n/a	n/a	n/a	n/a	n/a
1059.352	n/a	PROB	529676	n/a	LTP207	ltpFR	12	n/a	n/a	n/a	n/a	n/a	n/a	n/a	12	5	3	4	n/a	n/a	n/a	n/a	n/a
1060.782	n/a	PROB	530391	n/a	LTP207	ltpFR	12	n/a	n/a	n/a	n/a	n/a	n/a	n/a	17	4	9	4	n/a	n/a	n/a	n/a	n/a
1062.338	n/a	STOP	531169	n/a	LTP207	ltpFR	12	n/a	n/a	n/a	n/a	n/a	n/a	n/a	n/a	n/a	n/a	n/a	n/a	n/a	n/a	n/a	n/a
1064.328	n/a	WORD	532164	wordpools/wasnorm_wordpool_less_exclusions.txt	LTP207	ltpFR	12	4	1	RACCOON	1153	n/a	n/a	1	n/a	0	0	0	0.57763671875	0.412841796875	1	upper	zerothre.ttf
1067.34	n/a	START	533670	n/a	LTP207	ltpFR	12	n/a	n/a	n/a	n/a	n/a	n/a	n/a	n/a	n/a	n/a	n/a	n/a	n/a	n/a	n/a	n/a
1068.512	n/a	PROB	534256	n/a	LTP207	ltpFR	12	n/a	n/a	n/a	n/a	n/a	n/a	n/a	16	8	6	2	n/a	n/a	n/a	n/a	n/a
1070.578	n/a	PROB	535289	n/a	LTP207	ltpFR	12	n/a	n/a	n/a	n/a	n/a	n/a	n/a	10	3	5	2	n/a	n/a	n/a	n/a	n/a
1072.136	n/a	PROB	536068	n/a	LTP207	ltpFR	12	n/a	n/a	n/a	n/a	n/a	n/a	n/a	15	2	7	6	n/a	n/a	n/a	n/a	n/a
1073.624	n/a	PROB	536812	n/a	LTP207	ltpFR	12	n/a	n/a	n/a	n/a	n/a	n/a	n/a	10	2	5	3	n/a	n/a	n/a	n/a	n/a
1075.42	n/a	PROB	537710	n/a	LTP207	ltpFR	12	n/a	n/a	n/a	n/a	n/a	n/a	n/a	7	5	1	1	n/a	n/a	n/a	n/a	n/a
1076.692	n/a	PROB	538346	n/a	LTP207	ltpFR	12	n/a	n/a	n/a	n/a	n/a	n/a	n/a	14	5	1	8	n/a	n/a	n/a	n/a	n/a
1078.792	n/a	PROB	539396	n/a	LTP207	ltpFR	12	n/a	n/a	n/a	n/a	n/a	n/a	n/a	13	8	4	1	n/a	n/a	n/a	n/a	n/a
1080.59	n/a	PROB	540295	n/a	LTP207	ltpFR	12	n/a	n/a	n/a	n/a	n/a	n/a	n/a	18	9	2	7	n/a	n/a	n/a	n/a	n/a
1082.826	n/a	STOP	541413	n/a	LTP207	ltpFR	12	n/a	n/a	n/a	n/a	n/a	n/a	n/a	n/a	n/a	n/a	n/a	n/a	n/a	n/a	n/a	n/a
1084.472	n/a	WORD	542236	wordpools/wasnorm_wordpool_less_exclusions.txt	LTP207	ltpFR	12	4	1	JUDGE	761	n/a	n/a	1	n/a	0	0	0	0.57763671875	0.412841796875	1	upper	zerothre.ttf
1087.484	n/a	START	543742	n/a	LTP207	ltpFR	12	n/a	n/a	n/a	n/a	n/a	n/a	n/a	n/a	n/a	n/a	n/a	n/a	n/a	n/a	n/a	n/a
1088.63	n/a	PROB	544315	n/a	LTP207	ltpFR	12	n/a	n/a	n/a	n/a	n/a	n/a	n/a	15	7	1	7	n/a	n/a	n/a	n/a	n/a
1090.454	n/a	PROB	545227	n/a	LTP207	ltpFR	12	n/a	n/a	n/a	n/a	n/a	n/a	n/a	17	1	9	7	n/a	n/a	n/a	n/a	n/a
1091.75	n/a	PROB	545875	n/a	LTP207	ltpFR	12	n/a	n/a	n/a	n/a	n/a	n/a	n/a	16	5	6	5	n/a	n/a	n/a	n/a	n/a
1093.29	n/a	PROB	546645	n/a	LTP207	ltpFR	12	n/a	n/a	n/a	n/a	n/a	n/a	n/a	17	9	3	5	n/a	n/a	n/a	n/a	n/a
1095.122	n/a	PROB	547561	n/a	LTP207	ltpFR	12	n/a	n/a	n/a	n/a	n/a	n/a	n/a	9	2	3	4	n/a	n/a	n/a	n/a	n/a
1097.046	n/a	PROB	548523	n/a	LTP207	ltpFR	12	n/a	n/a	n/a	n/a	n/a	n/a	n/a	12	3	7	2	n/a	n/a	n/a	n/a	n/a
1099.162	n/a	PROB	549581	n/a	LTP207	ltpFR	12	n/a	n/a	n/a	n/a	n/a	n/a	n/a	13	4	1	8	n/a	n/a	n/a	n/a	n/a
1100.7	n/a	PROB	550350	n/a	LTP207	ltpFR	12	n/a	n/a	n/a	n/a	n/a	n/a	n/a	22	9	9	4	n/a	n/a	n/a	n/a	n/a
1102.172	n/a	STOP	551086	n/a	LTP207	ltpFR	12	n/a	n/a	n/a	n/a	n/a	n/a	n/a	n/a	n/a	n/a	n/a	n/a	n/a	n/a	n/a	n/a
1104.642	n/a	WORD	552321	wordpools/wasnorm_wordpool_less_exclusions.txt	LTP207	ltpFR	12	4	1	ATTORNEY	58	n/a	n/a	0	n/a	0	0	0	0.57763671875	0.412841796875	1	upper	zerothre.ttf
1107.654	n/a	START	553827	n/a	LTP207	ltpFR	12	n/a	n/a	n/a	n/a	n/a	n/a	n/a	n/a	n/a	n/a	n/a	n/a	n/a	n/a	n/a	n/a
1108.774	n/a	PROB	554387	n/a	LTP207	ltpFR	12	n/a	n/a	n/a	n/a	n/a	n/a	n/a	16	6	5	5	n/a	n/a	n/a	n/a	n/a
1110.13	n/a	PROB	555065	n/a	LTP207	ltpFR	12	n/a	n/a	n/a	n/a	n/a	n/a	n/a	13	3	3	7	n/a	n/a	n/a	n/a	n/a
1111.442	n/a	PROB	555721	n/a	LTP207	ltpFR	12	n/a	n/a	n/a	n/a	n/a	n/a	n/a	24	9	6	9	n/a	n/a	n/a	n/a	n/a
1113.526	n/a	PROB	556763	n/a	LTP207	ltpFR	12	n/a	n/a	n/a	n/a	n/a	n/a	n/a	5	1	3	1	n/a	n/a	n/a	n/a	n/a
1114.864	n/a	PROB	557432	n/a	LTP207	ltpFR	12	n/a	n/a	n/a	n/a	n/a	n/a	n/a	23	8	6	9	n/a	n/a	n/a	n/a	n/a
1117.038	n/a	PROB	558519	n/a	LTP207	ltpFR	12	n/a	n/a	n/a	n/a	n/a	n/a	n/a	5	1	2	2	n/a	n/a	n/a	n/a	n/a
1118.06	n/a	PROB	559030	n/a	LTP207	ltpFR	12	n/a	n/a	n/a	n/a	n/a	n/a	n/a	23	7	9	5	n/a	n/a	n/a	n/a	n/a
1123.656	n/a	STOP	561828	n/a	LTP207	ltpFR	12	n/a	n/a	n/a	n/a	n/a	n/a	n/a	n/a	n/a	n/a	n/a	n/a	n/a	n/a	n/a	n/a
1124.492	n/a	WORD	562246	wordpools/wasnorm_wordpool_less_exclusions.txt	LTP207	ltpFR	12	4	1	CATHEDRAL	260	n/a	n/a	0	n/a	0	0	0	0.57763671875	0.412841796875	1	upper	zerothre.ttf
1127.504	n/a	START	563752	n/a	LTP207	ltpFR	12	n/a	n/a	n/a	n/a	n/a	n/a	n/a	n/a	n/a	n/a	n/a	n/a	n/a	n/a	n/a	n/a
1128.59	n/a	PROB	564295	n/a	LTP207	ltpFR	12	n/a	n/a	n/a	n/a	n/a	n/a	n/a	12	3	8	1	n/a	n/a	n/a	n/a	n/a
1130.24	n/a	PROB	565120	n/a	LTP207	ltpFR	12	n/a	n/a	n/a	n/a	n/a	n/a	n/a	24	9	6	9	n/a	n/a	n/a	n/a	n/a
1132.414	n/a	PROB	566207	n/a	LTP207	ltpFR	12	n/a	n/a	n/a	n/a	n/a	n/a	n/a	7	1	5	1	n/a	n/a	n/a	n/a	n/a
1133.836	n/a	PROB	566918	n/a	LTP207	ltpFR	12	n/a	n/a	n/a	n/a	n/a	n/a	n/a	16	4	7	5	n/a	n/a	n/a	n/a	n/a
1135.828	n/a	PROB	567914	n/a	LTP207	ltpFR	12	n/a	n/a	n/a	n/a	n/a	n/a	n/a	14	4	9	1	n/a	n/a	n/a	n/a	n/a
1137.256	n/a	PROB	568628	n/a	LTP207	ltpFR	12	n/a	n/a	n/a	n/a	n/a	n/a	n/a	16	8	6	2	n/a	n/a	n/a	n/a	n/a
1138.788	n/a	PROB	569394	n/a	LTP207	ltpFR	12	n/a	n/a	n/a	n/a	n/a	n/a	n/a	14	8	2	4	n/a	n/a	n/a	n/a	n/a
1143.504	n/a	STOP	571752	n/a	LTP207	ltpFR	12	n/a	n/a	n/a	n/a	n/a	n/a	n/a	n/a	n/a	n/a	n/a	n/a	n/a	n/a	n/a	n/a
1144.444	n/a	WORD	572222	wordpools/wasnorm_wordpool_less_exclusions.txt	LTP207	ltpFR	12	4	1	GLOVE	642	n/a	n/a	0	n/a	0	0	0	0.57763671875	0.412841796875	1	upper	zerothre.ttf
1147.456	n/a	START	573728	n/a	LTP207	ltpFR	12	n/a	n/a	n/a	n/a	n/a	n/a	n/a	n/a	n/a	n/a	n/a	n/a	n/a	n/a	n/a	n/a
1148.342	n/a	PROB	574171	n/a	LTP207	ltpFR	12	n/a	n/a	n/a	n/a	n/a	n/a	n/a	14	9	4	1	n/a	n/a	n/a	n/a	n/a
1149.856	n/a	PROB	574928	n/a	LTP207	ltpFR	12	n/a	n/a	n/a	n/a	n/a	n/a	n/a	11	3	1	7	n/a	n/a	n/a	n/a	n/a
1151.044	n/a	PROB	575522	n/a	LTP207	ltpFR	12	n/a	n/a	n/a	n/a	n/a	n/a	n/a	14	3	5	6	n/a	n/a	n/a	n/a	n/a
1152.642	n/a	PROB	576321	n/a	LTP207	ltpFR	12	n/a	n/a	n/a	n/a	n/a	n/a	n/a	21	6	6	9	n/a	n/a	n/a	n/a	n/a
1154.166	n/a	PROB	577083	n/a	LTP207	ltpFR	12	n/a	n/a	n/a	n/a	n/a	n/a	n/a	15	3	5	7	n/a	n/a	n/a	n/a	n/a
1156.23	n/a	PROB	578115	n/a	LTP207	ltpFR	12	n/a	n/a	n/a	n/a	n/a	n/a	n/a	18	8	8	2	n/a	n/a	n/a	n/a	n/a
1157.844	n/a	PROB	578922	n/a	LTP207	ltpFR	12	n/a	n/a	n/a	n/a	n/a	n/a	n/a	17	8	6	3	n/a	n/a	n/a	n/a	n/a
1159.736	n/a	PROB	579868	n/a	LTP207	ltpFR	12	n/a	n/a	n/a	n/a	n/a	n/a	n/a	15	6	7	2	n/a	n/a	n/a	n/a	n/a
1161.904	n/a	STOP	580952	n/a	LTP207	ltpFR	12	n/a	n/a	n/a	n/a	n/a	n/a	n/a	n/a	n/a	n/a	n/a	n/a	n/a	n/a	n/a	n/a
1164.304	n/a	WORD	582152	wordpools/wasnorm_wordpool_less_exclusions.txt	LTP207	ltpFR	12	4	1	GIRL	637	n/a	n/a	1	n/a	0	0	0	0.57763671875	0.412841796875	1	upper	zerothre.ttf
1167.316	n/a	START	583658	n/a	LTP207	ltpFR	12	n/a	n/a	n/a	n/a	n/a	n/a	n/a	n/a	n/a	n/a	n/a	n/a	n/a	n/a	n/a	n/a
1168.31	n/a	PROB	584155	n/a	LTP207	ltpFR	12	n/a	n/a	n/a	n/a	n/a	n/a	n/a	23	9	5	9	n/a	n/a	n/a	n/a	n/a
1170.16	n/a	PROB	585080	n/a	LTP207	ltpFR	12	n/a	n/a	n/a	n/a	n/a	n/a	n/a	12	3	7	2	n/a	n/a	n/a	n/a	n/a
1171.498	n/a	PROB	585749	n/a	LTP207	ltpFR	12	n/a	n/a	n/a	n/a	n/a	n/a	n/a	23	9	5	9	n/a	n/a	n/a	n/a	n/a
1173.328	n/a	PROB	586664	n/a	LTP207	ltpFR	12	n/a	n/a	n/a	n/a	n/a	n/a	n/a	16	3	4	9	n/a	n/a	n/a	n/a	n/a
1174.684	n/a	PROB	587342	n/a	LTP207	ltpFR	12	n/a	n/a	n/a	n/a	n/a	n/a	n/a	9	3	2	4	n/a	n/a	n/a	n/a	n/a
1176.122	n/a	PROB	588061	n/a	LTP207	ltpFR	12	n/a	n/a	n/a	n/a	n/a	n/a	n/a	15	5	1	9	n/a	n/a	n/a	n/a	n/a
1177.56	n/a	PROB	588780	n/a	LTP207	ltpFR	12	n/a	n/a	n/a	n/a	n/a	n/a	n/a	25	8	8	9	n/a	n/a	n/a	n/a	n/a
1179.244	n/a	PROB	589622	n/a	LTP207	ltpFR	12	n/a	n/a	n/a	n/a	n/a	n/a	n/a	4	2	1	1	n/a	n/a	n/a	n/a	n/a
1180.632	n/a	PROB	590316	n/a	LTP207	ltpFR	12	n/a	n/a	n/a	n/a	n/a	n/a	n/a	8	2	5	1	n/a	n/a	n/a	n/a	n/a
1181.864	n/a	STOP	590932	n/a	LTP207	ltpFR	12	n/a	n/a	n/a	n/a	n/a	n/a	n/a	n/a	n/a	n/a	n/a	n/a	n/a	n/a	n/a	n/a
1184.164	n/a	WORD	592082	wordpools/wasnorm_wordpool_less_exclusions.txt	LTP207	ltpFR	12	4	1	SNACK	1331	n/a	n/a	0	n/a	0	0	0	0.57763671875	0.412841796875	1	upper	zerothre.ttf
1187.176	n/a	START	593588	n/a	LTP207	ltpFR	12	n/a	n/a	n/a	n/a	n/a	n/a	n/a	n/a	n/a	n/a	n/a	n/a	n/a	n/a	n/a	n/a
1188.11	n/a	PROB	594055	n/a	LTP207	ltpFR	12	n/a	n/a	n/a	n/a	n/a	n/a	n/a	16	5	4	7	n/a	n/a	n/a	n/a	n/a
1189.758	n/a	PROB	594879	n/a	LTP207	ltpFR	12	n/a	n/a	n/a	n/a	n/a	n/a	n/a	17	5	8	4	n/a	n/a	n/a	n/a	n/a
1191.992	n/a	PROB	595996	n/a	LTP207	ltpFR	12	n/a	n/a	n/a	n/a	n/a	n/a	n/a	20	6	6	8	n/a	n/a	n/a	n/a	n/a
1194.318	n/a	PROB	597159	n/a	LTP207	ltpFR	12	n/a	n/a	n/a	n/a	n/a	n/a	n/a	11	5	4	2	n/a	n/a	n/a	n/a	n/a
1195.63	n/a	PROB	597815	n/a	LTP207	ltpFR	12	n/a	n/a	n/a	n/a	n/a	n/a	n/a	11	5	4	2	n/a	n/a	n/a	n/a	n/a
1196.844	n/a	PROB	598422	n/a	LTP207	ltpFR	12	n/a	n/a	n/a	n/a	n/a	n/a	n/a	15	5	9	1	n/a	n/a	n/a	n/a	n/a
1198.634	n/a	PROB	599317	n/a	LTP207	ltpFR	12	n/a	n/a	n/a	n/a	n/a	n/a	n/a	10	5	4	1	n/a	n/a	n/a	n/a	n/a
1200.09	n/a	PROB	600045	n/a	LTP207	ltpFR	12	n/a	n/a	n/a	n/a	n/a	n/a	n/a	13	3	1	9	n/a	n/a	n/a	n/a	n/a
1203.176	n/a	STOP	601588	n/a	LTP207	ltpFR	12	n/a	n/a	n/a	n/a	n/a	n/a	n/a	n/a	n/a	n/a	n/a	n/a	n/a	n/a	n/a	n/a
1204.38	n/a	WORD	602190	wordpools/wasnorm_wordpool_less_exclusions.txt	LTP207	ltpFR	12	4	1	CLOSET	326	n/a	n/a	0	n/a	0	0	0	0.57763671875	0.412841796875	1	upper	zerothre.ttf
1207.392	n/a	START	603696	n/a	LTP207	ltpFR	12	n/a	n/a	n/a	n/a	n/a	n/a	n/a	n/a	n/a	n/a	n/a	n/a	n/a	n/a	n/a	n/a
1208.228	n/a	PROB	604114	n/a	LTP207	ltpFR	12	n/a	n/a	n/a	n/a	n/a	n/a	n/a	18	6	5	7	n/a	n/a	n/a	n/a	n/a
1210.062	n/a	PROB	605031	n/a	LTP207	ltpFR	12	n/a	n/a	n/a	n/a	n/a	n/a	n/a	5	1	3	1	n/a	n/a	n/a	n/a	n/a
1211.088	n/a	PROB	605544	n/a	LTP207	ltpFR	12	n/a	n/a	n/a	n/a	n/a	n/a	n/a	15	1	6	8	n/a	n/a	n/a	n/a	n/a
1213.24	n/a	PROB	606620	n/a	LTP207	ltpFR	12	n/a	n/a	n/a	n/a	n/a	n/a	n/a	19	2	9	8	n/a	n/a	n/a	n/a	n/a
1215.054	n/a	PROB	607527	n/a	LTP207	ltpFR	12	n/a	n/a	n/a	n/a	n/a	n/a	n/a	13	6	4	3	n/a	n/a	n/a	n/a	n/a
1216.326	n/a	PROB	608163	n/a	LTP207	ltpFR	12	n/a	n/a	n/a	n/a	n/a	n/a	n/a	25	9	9	7	n/a	n/a	n/a	n/a	n/a
1217.674	n/a	PROB	608837	n/a	LTP207	ltpFR	12	n/a	n/a	n/a	n/a	n/a	n/a	n/a	16	6	3	7	n/a	n/a	n/a	n/a	n/a
1218.962	n/a	PROB	609481	n/a	LTP207	ltpFR	12	n/a	n/a	n/a	n/a	n/a	n/a	n/a	13	9	2	2	n/a	n/a	n/a	n/a	n/a
1220.134	n/a	PROB	610067	n/a	LTP207	ltpFR	12	n/a	n/a	n/a	n/a	n/a	n/a	n/a	4	2	1	1	n/a	n/a	n/a	n/a	n/a
1221.538	n/a	PROB	610769	n/a	LTP207	ltpFR	12	n/a	n/a	n/a	n/a	n/a	n/a	n/a	14	3	9	2	n/a	n/a	n/a	n/a	n/a
1222.914	n/a	STOP	611457	n/a	LTP207	ltpFR	12	n/a	n/a	n/a	n/a	n/a	n/a	n/a	n/a	n/a	n/a	n/a	n/a	n/a	n/a	n/a	n/a
1224.524	n/a	WORD	612262	wordpools/wasnorm_wordpool_less_exclusions.txt	LTP207	ltpFR	12	4	1	STEP	1377	n/a	n/a	0	n/a	0	0	0	0.57763671875	0.412841796875	1	upper	zerothre.ttf
1227.536	n/a	START	613768	n/a	LTP207	ltpFR	12	n/a	n/a	n/a	n/a	n/a	n/a	n/a	n/a	n/a	n/a	n/a	n/a	n/a	n/a	n/a	n/a
1228.406	n/a	PROB	614203	n/a	LTP207	ltpFR	12	n/a	n/a	n/a	n/a	n/a	n/a	n/a	20	7	9	4	n/a	n/a	n/a	n/a	n/a
1229.92	n/a	PROB	614960	n/a	LTP207	ltpFR	12	n/a	n/a	n/a	n/a	n/a	n/a	n/a	8	1	3	4	n/a	n/a	n/a	n/a	n/a
1231.516	n/a	PROB	615758	n/a	LTP207	ltpFR	12	n/a	n/a	n/a	n/a	n/a	n/a	n/a	11	2	8	1	n/a	n/a	n/a	n/a	n/a
1232.57	n/a	PROB	616285	n/a	LTP207	ltpFR	12	n/a	n/a	n/a	n/a	n/a	n/a	n/a	8	3	4	1	n/a	n/a	n/a	n/a	n/a
1234.562	n/a	PROB	617281	n/a	LTP207	ltpFR	12	n/a	n/a	n/a	n/a	n/a	n/a	n/a	18	6	8	4	n/a	n/a	n/a	n/a	n/a
1236.086	n/a	PROB	618043	n/a	LTP207	ltpFR	12	n/a	n/a	n/a	n/a	n/a	n/a	n/a	22	6	8	8	n/a	n/a	n/a	n/a	n/a
1237.566	n/a	PROB	618783	n/a	LTP207	ltpFR	12	n/a	n/a	n/a	n/a	n/a	n/a	n/a	9	4	3	2	n/a	n/a	n/a	n/a	n/a
1239.408	n/a	PROB	619704	n/a	LTP207	ltpFR	12	n/a	n/a	n/a	n/a	n/a	n/a	n/a	24	7	9	8	n/a	n/a	n/a	n/a	n/a
1241.222	n/a	PROB	620611	n/a	LTP207	ltpFR	12	n/a	n/a	n/a	n/a	n/a	n/a	n/a	12	3	5	4	n/a	n/a	n/a	n/a	n/a
1242.94	n/a	STOP	621470	n/a	LTP207	ltpFR	12	n/a	n/a	n/a	n/a	n/a	n/a	n/a	n/a	n/a	n/a	n/a	n/a	n/a	n/a	n/a	n/a
1244.684	n/a	WORD	622342	wordpools/wasnorm_wordpool_less_exclusions.txt	LTP207	ltpFR	12	4	1	SPINACH	1352	n/a	n/a	0	n/a	0	0	0	0.57763671875	0.412841796875	1	upper	zerothre.ttf
1247.696	n/a	START	623848	n/a	LTP207	ltpFR	12	n/a	n/a	n/a	n/a	n/a	n/a	n/a	n/a	n/a	n/a	n/a	n/a	n/a	n/a	n/a	n/a
1248.708	n/a	PROB	624354	n/a	LTP207	ltpFR	12	n/a	n/a	n/a	n/a	n/a	n/a	n/a	15	5	9	1	n/a	n/a	n/a	n/a	n/a
1250.322	n/a	PROB	625161	n/a	LTP207	ltpFR	12	n/a	n/a	n/a	n/a	n/a	n/a	n/a	22	6	8	8	n/a	n/a	n/a	n/a	n/a
1251.744	n/a	PROB	625872	n/a	LTP207	ltpFR	12	n/a	n/a	n/a	n/a	n/a	n/a	n/a	22	8	9	5	n/a	n/a	n/a	n/a	n/a
1253.418	n/a	PROB	626709	n/a	LTP207	ltpFR	12	n/a	n/a	n/a	n/a	n/a	n/a	n/a	12	2	8	2	n/a	n/a	n/a	n/a	n/a
1255.05	n/a	PROB	627525	n/a	LTP207	ltpFR	12	n/a	n/a	n/a	n/a	n/a	n/a	n/a	21	6	6	9	n/a	n/a	n/a	n/a	n/a
1257.032	n/a	PROB	628516	n/a	LTP207	ltpFR	12	n/a	n/a	n/a	n/a	n/a	n/a	n/a	13	6	2	5	n/a	n/a	n/a	n/a	n/a
1258.772	n/a	PROB	629386	n/a	LTP207	ltpFR	12	n/a	n/a	n/a	n/a	n/a	n/a	n/a	17	6	7	4	n/a	n/a	n/a	n/a	n/a
1260.896	n/a	PROB	630448	n/a	LTP207	ltpFR	12	n/a	n/a	n/a	n/a	n/a	n/a	n/a	15	3	8	2	n/a	n/a	n/a	n/a	n/a
1262.372	n/a	STOP	631186	n/a	LTP207	ltpFR	12	n/a	n/a	n/a	n/a	n/a	n/a	n/a	n/a	n/a	n/a	n/a	n/a	n/a	n/a	n/a	n/a
1265.632	n/a	REC_START	632816	n/a	LTP207	ltpFR	12	4	n/a	n/a	n/a	n/a	n/a	n/a	n/a	0	0	0	n/a	n/a	n/a	n/a	n/a
1267.576	n/a	REC_WORD	633788	wordpools/wasnorm_wordpool_less_exclusions.txt	LTP207	ltpFR	12	4	1	TURNIP	1521	n/a	n/a	0	n/a	0	0	0	n/a	n/a	n/a	n/a	n/a
1268.978	n/a	REC_WORD	634489	wordpools/wasnorm_wordpool_less_exclusions.txt	LTP207	ltpFR	12	4	1	BUN	197	n/a	n/a	0	n/a	0	0	0	n/a	n/a	n/a	n/a	n/a
1271.224	n/a	REC_WORD	635612	wordpools/wasnorm_wordpool_less_exclusions.txt	LTP207	ltpFR	12	4	1	ATTORNEY	58	n/a	n/a	0	n/a	0	0	0	n/a	n/a	n/a	n/a	n/a
1274.252	n/a	REC_WORD	637126	wordpools/wasnorm_wordpool_less_exclusions.txt	LTP207	ltpFR	12	4	1	SPINACH	1352	n/a	n/a	0	n/a	0	0	0	n/a	n/a	n/a	n/a	n/a
1299.096	n/a	REC_WORD	649548	wordpools/wasnorm_wordpool_less_exclusions.txt	LTP207	ltpFR	12	4	1	CATHEDRAL	260	n/a	n/a	0	n/a	0	0	0	n/a	n/a	n/a	n/a	n/a
1364.736	n/a	WORD	682368	wordpools/wasnorm_wordpool_less_exclusions.txt	LTP207	ltpFR	12	5	0	NAPKIN	937	n/a	n/a	0	n/a	0	0	0	0.422607421875	0.5869140625	0	lower	amplitud.ttf
1368.802	n/a	WORD	684401	wordpools/wasnorm_wordpool_less_exclusions.txt	LTP207	ltpFR	12	5	0	ASSISTANT	48	n/a	n/a	1	n/a	0	0	0	0.422607421875	0.5869140625	0	lower	amplitud.ttf
1372.892	n/a	WORD	686446	wordpools/wasnorm_wordpool_less_exclusions.txt	LTP207	ltpFR	12	5	0	GRAPE	654	n/a	n/a	0	n/a	0	0	0	0.422607421875	0.5869140625	0	lower	amplitud.ttf
1376.806	n/a	WORD	688403	wordpools/wasnorm_wordpool_less_exclusions.txt	LTP207	ltpFR	12	5	0	GUEST	669	n/a	n/a	1	n/a	0	0	0	0.422607421875	0.5869140625	0	lower	amplitud.ttf
1380.77	n/a	WORD	690385	wordpools/wasnorm_wordpool_less_exclusions.txt	LTP207	ltpFR	12	5	0	FRIEND	606	n/a	n/a	1	n/a	0	0	0	0.422607421875	0.5869140625	0	lower	amplitud.ttf
1384.92	n/a	WORD	692460	wordpools/wasnorm_wordpool_less_exclusions.txt	LTP207	ltpFR	12	5	0	KING	777	n/a	n/a	1	n/a	0	0	0	0.422607421875	0.5869140625	0	lower	amplitud.ttf
1388.986	n/a	WORD	694493	wordpools/wasnorm_wordpool_less_exclusions.txt	LTP207	ltpFR	12	5	0	CROSS	413	n/a	n/a	0	n/a	0	0	0	0.422607421875	0.5869140625	0	lower	amplitud.ttf
1392.984	n/a	WORD	696492	wordpools/wasnorm_wordpool_less_exclusions.txt	LTP207	ltpFR	12	5	0	NOTE	958	n/a	n/a	0	n/a	0	0	0	0.422607421875	0.5869140625	0	lower	amplitud.ttf
1397.026	n/a	WORD	698513	wordpools/wasnorm_wordpool_less_exclusions.txt	LTP207	ltpFR	12	5	0	BAND	78	n/a	n/a	1	n/a	0	0	0	0.422607421875	0.5869140625	0	lower	amplitud.ttf
1401.198	n/a	WORD	700599	wordpools/wasnorm_wordpool_less_exclusions.txt	LTP207	ltpFR	12	5	0	HAYSTACK	694	n/a	n/a	0	n/a	0	0	0	0.422607421875	0.5869140625	0	lower	amplitud.ttf
1405.024	n/a	WORD	702512	wordpools/wasnorm_wordpool_less_exclusions.txt	LTP207	ltpFR	12	5	0	EMPEROR	529	n/a	n/a	1	n/a	0	0	0	0.422607421875	0.5869140625	0	lower	amplitud.ttf
1409.246	n/a	WORD	704623	wordpools/wasnorm_wordpool_less_exclusions.txt	LTP207	ltpFR	12	5	0	LACE	792	n/a	n/a	0	n/a	0	0	0	0.422607421875	0.5869140625	0	lower	amplitud.ttf
1413.278	n/a	WORD	706639	wordpools/wasnorm_wordpool_less_exclusions.txt	LTP207	ltpFR	12	5	0	TUXEDO	1525	n/a	n/a	1	n/a	0	0	0	0.422607421875	0.5869140625	0	lower	amplitud.ttf
1417.178	n/a	WORD	708589	wordpools/wasnorm_wordpool_less_exclusions.txt	LTP207	ltpFR	12	5	0	TWEEZERS	1526	n/a	n/a	1	n/a	0	0	0	0.422607421875	0.5869140625	0	lower	amplitud.ttf
1421.358	n/a	WORD	710679	wordpools/wasnorm_wordpool_less_exclusions.txt	LTP207	ltpFR	12	5	0	NAIL	936	n/a	n/a	0	n/a	0	0	0	0.422607421875	0.5869140625	0	lower	amplitud.ttf
1425.418	n/a	WORD	712709	wordpools/wasnorm_wordpool_less_exclusions.txt	LTP207	ltpFR	12	5	0	DISC	473	n/a	n/a	0	n/a	0	0	0	0.422607421875	0.5869140625	0	lower	amplitud.ttf
1428.43	n/a	START	714215	n/a	LTP207	ltpFR	12	n/a	n/a	n/a	n/a	n/a	n/a	n/a	n/a	n/a	n/a	n/a	n/a	n/a	n/a	n/a	n/a
1429.6	n/a	PROB	714800	n/a	LTP207	ltpFR	12	n/a	n/a	n/a	n/a	n/a	n/a	n/a	10	3	1	6	n/a	n/a	n/a	n/a	n/a
1431.198	n/a	PROB	715599	n/a	LTP207	ltpFR	12	n/a	n/a	n/a	n/a	n/a	n/a	n/a	16	1	9	6	n/a	n/a	n/a	n/a	n/a
1432.568	n/a	PROB	716284	n/a	LTP207	ltpFR	12	n/a	n/a	n/a	n/a	n/a	n/a	n/a	18	7	3	8	n/a	n/a	n/a	n/a	n/a
1433.84	n/a	PROB	716920	n/a	LTP207	ltpFR	12	n/a	n/a	n/a	n/a	n/a	n/a	n/a	24	9	9	6	n/a	n/a	n/a	n/a	n/a
1435.334	n/a	STOP	717667	n/a	LTP207	ltpFR	12	n/a	n/a	n/a	n/a	n/a	n/a	n/a	n/a	n/a	n/a	n/a	n/a	n/a	n/a	n/a	n/a
1438.242	n/a	REC_START	719121	n/a	LTP207	ltpFR	12	5	n/a	n/a	n/a	n/a	n/a	n/a	n/a	0	0	0	n/a	n/a	n/a	n/a	n/a
1439.852	n/a	REC_WORD	719926	wordpools/wasnorm_wordpool_less_exclusions.txt	LTP207	ltpFR	12	5	0	TWEEZERS	1526	n/a	n/a	1	n/a	0	0	0	n/a	n/a	n/a	n/a	n/a
1441.548	n/a	REC_WORD	720774	wordpools/wasnorm_wordpool_less_exclusions.txt	LTP207	ltpFR	12	5	0	NAIL	936	n/a	n/a	0	n/a	0	0	0	n/a	n/a	n/a	n/a	n/a
1443.436	n/a	REC_WORD	721718	wordpools/wasnorm_wordpool_less_exclusions.txt	LTP207	ltpFR	12	5	0	NOTE	958	n/a	n/a	0	n/a	0	0	0	n/a	n/a	n/a	n/a	n/a
1445.476	n/a	REC_WORD	722738	wordpools/wasnorm_wordpool_less_exclusions.txt	LTP207	ltpFR	12	5	0	NAPKIN	937	n/a	n/a	0	n/a	0	0	0	n/a	n/a	n/a	n/a	n/a
1448.11	n/a	REC_WORD	724055	wordpools/wasnorm_wordpool_less_exclusions.txt	LTP207	ltpFR	12	5	0	ASSISTANT	48	n/a	n/a	1	n/a	0	0	0	n/a	n/a	n/a	n/a	n/a
1456.724	n/a	REC_WORD	728362	wordpools/wasnorm_wordpool_less_exclusions.txt	LTP207	ltpFR	12	5	0	FRIEND	606	n/a	n/a	1	n/a	0	0	0	n/a	n/a	n/a	n/a	n/a
1519.11	n/a	WORD	759555	wordpools/wasnorm_wordpool_less_exclusions.txt	LTP207	ltpFR	12	6	1	ANIMAL	23	n/a	n/a	1	n/a	0	0	0	0.57763671875	0.412841796875	1	upper	zerothre.ttf
1523.258	n/a	WORD	761629	wordpools/wasnorm_wordpool_less_exclusions.txt	LTP207	ltpFR	12	6	1	RING	1193	n/a	n/a	0	n/a	0	0	0	0.57763671875	0.412841796875	1	upper	zerothre.ttf
1527.482	n/a	WORD	763741	wordpools/wasnorm_wordpool_less_exclusions.txt	LTP207	ltpFR	12	6	1	SHERIFF	1284	n/a	n/a	1	n/a	0	0	0	0.57763671875	0.412841796875	1	upper	zerothre.ttf
1531.406	n/a	WORD	765703	wordpools/wasnorm_wordpool_less_exclusions.txt	LTP207	ltpFR	12	6	1	NIECE	952	n/a	n/a	1	n/a	0	0	0	0.57763671875	0.412841796875	1	upper	zerothre.ttf
1535.444	n/a	WORD	767722	wordpools/wasnorm_wordpool_less_exclusions.txt	LTP207	ltpFR	12	6	1	PENGUIN	1044	n/a	n/a	1	n/a	0	0	0	0.57763671875	0.412841796875	1	upper	zerothre.ttf
1539.31	n/a	WORD	769655	wordpools/wasnorm_wordpool_less_exclusions.txt	LTP207	ltpFR	12	6	1	LETTUCE	814	n/a	n/a	0	n/a	0	0	0	0.57763671875	0.412841796875	1	upper	zerothre.ttf
1543.486	n/a	WORD	771743	wordpools/wasnorm_wordpool_less_exclusions.txt	LTP207	ltpFR	12	6	0	BANANA	77	n/a	n/a	0	n/a	0	0	0	0.422607421875	0.5869140625	0	lower	amplitud.ttf
1547.358	n/a	WORD	773679	wordpools/wasnorm_wordpool_less_exclusions.txt	LTP207	ltpFR	12	6	0	VET	1560	n/a	n/a	1	n/a	0	0	0	0.422607421875	0.5869140625	0	lower	amplitud.ttf
1551.39	n/a	WORD	775695	wordpools/wasnorm_wordpool_less_exclusions.txt	LTP207	ltpFR	12	6	0	PAW	1029	n/a	n/a	0	n/a	0	0	0	0.422607421875	0.5869140625	0	lower	amplitud.ttf
1555.482	n/a	WORD	777741	wordpools/wasnorm_wordpool_less_exclusions.txt	LTP207	ltpFR	12	6	0	HAMPER	682	n/a	n/a	1	n/a	0	0	0	0.422607421875	0.5869140625	0	lower	amplitud.ttf
1559.522	n/a	WORD	779761	wordpools/wasnorm_wordpool_less_exclusions.txt	LTP207	ltpFR	12	6	1	RAG	1160	n/a	n/a	0	n/a	0	0	0	0.57763671875	0.412841796875	1	upper	zerothre.ttf
1563.478	n/a	WORD	781739	wordpools/wasnorm_wordpool_less_exclusions.txt	LTP207	ltpFR	12	6	1	BELLY	119	n/a	n/a	0	n/a	0	0	0	0.57763671875	0.412841796875	1	upper	zerothre.ttf
1567.484	n/a	WORD	783742	wordpools/wasnorm_wordpool_less_exclusions.txt	LTP207	ltpFR	12	6	0	PADDING	999	n/a	n/a	0	n/a	0	0	0	0.422607421875	0.5869140625	0	lower	amplitud.ttf
1571.56	n/a	WORD	785780	wordpools/wasnorm_wordpool_less_exclusions.txt	LTP207	ltpFR	12	6	0	TELEVISION	1447	n/a	n/a	0	n/a	0	0	0	0.422607421875	0.5869140625	0	lower	amplitud.ttf
1575.382	n/a	WORD	787691	wordpools/wasnorm_wordpool_less_exclusions.txt	LTP207	ltpFR	12	6	0	COUSIN	392	n/a	n/a	1	n/a	0	0	0	0.422607421875	0.5869140625	0	lower	amplitud.ttf
1579.34	n/a	WORD	789670	wordpools/wasnorm_wordpool_less_exclusions.txt	LTP207	ltpFR	12	6	0	BADGE	68	n/a	n/a	0	n/a	0	0	0	0.422607421875	0.5869140625	0	lower	amplitud.ttf
1585.22	n/a	REC_START	792610	n/a	LTP207	ltpFR	12	6	n/a	n/a	n/a	n/a	n/a	n/a	n/a	0	0	0	n/a	n/a	n/a	n/a	n/a
1588.058	n/a	REC_WORD	794029	wordpools/wasnorm_wordpool_less_exclusions.txt	LTP207	ltpFR	12	6	0	BADGE	68	n/a	n/a	0	n/a	0	0	0	n/a	n/a	n/a	n/a	n/a
1589.384	n/a	REC_WORD	794692	wordpools/wasnorm_wordpool_less_exclusions.txt	LTP207	ltpFR	12	6	0	COUSIN	392	n/a	n/a	1	n/a	0	0	0	n/a	n/a	n/a	n/a	n/a
1599.198	n/a	REC_WORD	799599	wordpools/wasnorm_wordpool_less_exclusions.txt	LTP207	ltpFR	12	6	0	TELEVISION	1447	n/a	n/a	0	n/a	0	0	0	n/a	n/a	n/a	n/a	n/a
1626.188	n/a	REC_WORD	813094	wordpools/wasnorm_wordpool_less_exclusions.txt	LTP207	ltpFR	12	6	1	SHERIFF	1284	n/a	n/a	1	n/a	0	0	0	n/a	n/a	n/a	n/a	n/a
1627.84	n/a	REC_WORD	813920	wordpools/wasnorm_wordpool_less_exclusions.txt	LTP207	ltpFR	12	6	1	NIECE	952	n/a	n/a	1	n/a	0	0	0	n/a	n/a	n/a	n/a	n/a
1698.234	n/a	START	849117	n/a	LTP207	ltpFR	12	n/a	n/a	n/a	n/a	n/a	n/a	n/a	n/a	n/a	n/a	n/a	n/a	n/a	n/a	n/a	n/a
1699.75	n/a	PROB	849875	n/a	LTP207	ltpFR	12	n/a	n/a	n/a	n/a	n/a	n/a	n/a	10	5	3	2	n/a	n/a	n/a	n/a	n/a
1701.94	n/a	PROB	850970	n/a	LTP207	ltpFR	12	n/a	n/a	n/a	n/a	n/a	n/a	n/a	13	6	4	3	n/a	n/a	n/a	n/a	n/a
1704.09	n/a	PROB	852045	n/a	LTP207	ltpFR	12	n/a	n/a	n/a	n/a	n/a	n/a	n/a	16	6	8	2	n/a	n/a	n/a	n/a	n/a
1706.068	n/a	STOP	853034	n/a	LTP207	ltpFR	12	n/a	n/a	n/a	n/a	n/a	n/a	n/a	n/a	n/a	n/a	n/a	n/a	n/a	n/a	n/a	n/a
1707.312	n/a	WORD	853656	wordpools/wasnorm_wordpool_less_exclusions.txt	LTP207	ltpFR	12	7	0	RUBY	1214	n/a	n/a	0	n/a	0	0	0	0.422607421875	0.5869140625	0	lower	amplitud.ttf
1710.324	n/a	START	855162	n/a	LTP207	ltpFR	12	n/a	n/a	n/a	n/a	n/a	n/a	n/a	n/a	n/a	n/a	n/a	n/a	n/a	n/a	n/a	n/a
1711.328	n/a	PROB	855664	n/a	LTP207	ltpFR	12	n/a	n/a	n/a	n/a	n/a	n/a	n/a	11	4	6	1	n/a	n/a	n/a	n/a	n/a
1712.616	n/a	PROB	856308	n/a	LTP207	ltpFR	12	n/a	n/a	n/a	n/a	n/a	n/a	n/a	14	4	9	1	n/a	n/a	n/a	n/a	n/a
1714.272	n/a	PROB	857136	n/a	LTP207	ltpFR	12	n/a	n/a	n/a	n/a	n/a	n/a	n/a	11	1	7	3	n/a	n/a	n/a	n/a	n/a
1715.41	n/a	PROB	857705	n/a	LTP207	ltpFR	12	n/a	n/a	n/a	n/a	n/a	n/a	n/a	16	1	6	9	n/a	n/a	n/a	n/a	n/a
1716.764	n/a	STOP	858382	n/a	LTP207	ltpFR	12	n/a	n/a	n/a	n/a	n/a	n/a	n/a	n/a	n/a	n/a	n/a	n/a	n/a	n/a	n/a	n/a
1719.448	n/a	WORD	859724	wordpools/wasnorm_wordpool_less_exclusions.txt	LTP207	ltpFR	12	7	0	JOURNAL	760	n/a	n/a	0	n/a	0	0	0	0.422607421875	0.5869140625	0	lower	amplitud.ttf
1722.46	n/a	START	861230	n/a	LTP207	ltpFR	12	n/a	n/a	n/a	n/a	n/a	n/a	n/a	n/a	n/a	n/a	n/a	n/a	n/a	n/a	n/a	n/a
1723.406	n/a	PROB	861703	n/a	LTP207	ltpFR	12	n/a	n/a	n/a	n/a	n/a	n/a	n/a	14	2	9	3	n/a	n/a	n/a	n/a	n/a
1724.98	n/a	PROB	862490	n/a	LTP207	ltpFR	12	n/a	n/a	n/a	n/a	n/a	n/a	n/a	20	5	9	6	n/a	n/a	n/a	n/a	n/a
1726.76	n/a	PROB	863380	n/a	LTP207	ltpFR	12	n/a	n/a	n/a	n/a	n/a	n/a	n/a	22	9	9	4	n/a	n/a	n/a	n/a	n/a
1728.192	n/a	PROB	864096	n/a	LTP207	ltpFR	12	n/a	n/a	n/a	n/a	n/a	n/a	n/a	15	6	8	1	n/a	n/a	n/a	n/a	n/a
1729.494	n/a	STOP	864747	n/a	LTP207	ltpFR	12	n/a	n/a	n/a	n/a	n/a	n/a	n/a	n/a	n/a	n/a	n/a	n/a	n/a	n/a	n/a	n/a
1731.47	n/a	WORD	865735	wordpools/wasnorm_wordpool_less_exclusions.txt	LTP207	ltpFR	12	7	0	MONK	910	n/a	n/a	1	n/a	0	0	0	0.422607421875	0.5869140625	0	lower	amplitud.ttf
1734.482	n/a	START	867241	n/a	LTP207	ltpFR	12	n/a	n/a	n/a	n/a	n/a	n/a	n/a	n/a	n/a	n/a	n/a	n/a	n/a	n/a	n/a	n/a
1735.602	n/a	PROB	867801	n/a	LTP207	ltpFR	12	n/a	n/a	n/a	n/a	n/a	n/a	n/a	14	3	8	3	n/a	n/a	n/a	n/a	n/a
1737.016	n/a	PROB	868508	n/a	LTP207	ltpFR	12	n/a	n/a	n/a	n/a	n/a	n/a	n/a	22	7	8	7	n/a	n/a	n/a	n/a	n/a
1738.832	n/a	PROB	869416	n/a	LTP207	ltpFR	12	n/a	n/a	n/a	n/a	n/a	n/a	n/a	13	4	6	3	n/a	n/a	n/a	n/a	n/a
1740.162	n/a	PROB	870081	n/a	LTP207	ltpFR	12	n/a	n/a	n/a	n/a	n/a	n/a	n/a	19	4	7	8	n/a	n/a	n/a	n/a	n/a
1741.566	n/a	STOP	870783	n/a	LTP207	ltpFR	12	n/a	n/a	n/a	n/a	n/a	n/a	n/a	n/a	n/a	n/a	n/a	n/a	n/a	n/a	n/a	n/a
1743.556	n/a	WORD	871778	wordpools/wasnorm_wordpool_less_exclusions.txt	LTP207	ltpFR	12	7	1	BOXER	160	n/a	n/a	1	n/a	0	0	0	0.57763671875	0.412841796875	1	upper	zerothre.ttf
1746.57	n/a	START	873285	n/a	LTP207	ltpFR	12	n/a	n/a	n/a	n/a	n/a	n/a	n/a	n/a	n/a	n/a	n/a	n/a	n/a	n/a	n/a	n/a
1747.44	n/a	PROB	873720	n/a	LTP207	ltpFR	12	n/a	n/a	n/a	n/a	n/a	n/a	n/a	20	4	9	7	n/a	n/a	n/a	n/a	n/a
1749.64	n/a	PROB	874820	n/a	LTP207	ltpFR	12	n/a	n/a	n/a	n/a	n/a	n/a	n/a	23	9	8	6	n/a	n/a	n/a	n/a	n/a
1754.57	n/a	STOP	877285	n/a	LTP207	ltpFR	12	n/a	n/a	n/a	n/a	n/a	n/a	n/a	n/a	n/a	n/a	n/a	n/a	n/a	n/a	n/a	n/a
1755.62	n/a	WORD	877810	wordpools/wasnorm_wordpool_less_exclusions.txt	LTP207	ltpFR	12	7	1	VIOLIN	1571	n/a	n/a	0	n/a	0	0	0	0.57763671875	0.412841796875	1	upper	zerothre.ttf
1758.632	n/a	START	879316	n/a	LTP207	ltpFR	12	n/a	n/a	n/a	n/a	n/a	n/a	n/a	n/a	n/a	n/a	n/a	n/a	n/a	n/a	n/a	n/a
1759.828	n/a	PROB	879914	n/a	LTP207	ltpFR	12	n/a	n/a	n/a	n/a	n/a	n/a	n/a	14	5	3	6	n/a	n/a	n/a	n/a	n/a
1762.228	n/a	PROB	881114	n/a	LTP207	ltpFR	12	n/a	n/a	n/a	n/a	n/a	n/a	n/a	18	6	9	3	n/a	n/a	n/a	n/a	n/a
1764.27	n/a	PROB	882135	n/a	LTP207	ltpFR	12	n/a	n/a	n/a	n/a	n/a	n/a	n/a	4	1	2	1	n/a	n/a	n/a	n/a	n/a
1765.592	n/a	STOP	882796	n/a	LTP207	ltpFR	12	n/a	n/a	n/a	n/a	n/a	n/a	n/a	n/a	n/a	n/a	n/a	n/a	n/a	n/a	n/a	n/a
1767.85	n/a	WORD	883925	wordpools/wasnorm_wordpool_less_exclusions.txt	LTP207	ltpFR	12	7	1	VOLLEYBALL	1576	n/a	n/a	0	n/a	0	0	0	0.57763671875	0.412841796875	1	upper	zerothre.ttf
1770.862	n/a	START	885431	n/a	LTP207	ltpFR	12	n/a	n/a	n/a	n/a	n/a	n/a	n/a	n/a	n/a	n/a	n/a	n/a	n/a	n/a	n/a	n/a
1772.066	n/a	PROB	886033	n/a	LTP207	ltpFR	12	n/a	n/a	n/a	n/a	n/a	n/a	n/a	10	1	3	6	n/a	n/a	n/a	n/a	n/a
1773.582	n/a	PROB	886791	n/a	LTP207	ltpFR	12	n/a	n/a	n/a	n/a	n/a	n/a	n/a	13	3	6	4	n/a	n/a	n/a	n/a	n/a
1774.794	n/a	PROB	887397	n/a	LTP207	ltpFR	12	n/a	n/a	n/a	n/a	n/a	n/a	n/a	5	1	1	3	n/a	n/a	n/a	n/a	n/a
1775.89	n/a	PROB	887945	n/a	LTP207	ltpFR	12	n/a	n/a	n/a	n/a	n/a	n/a	n/a	22	9	4	9	n/a	n/a	n/a	n/a	n/a
1777.346	n/a	PROB	888673	n/a	LTP207	ltpFR	12	n/a	n/a	n/a	n/a	n/a	n/a	n/a	15	7	1	7	n/a	n/a	n/a	n/a	n/a
1778.56	n/a	STOP	889280	n/a	LTP207	ltpFR	12	n/a	n/a	n/a	n/a	n/a	n/a	n/a	n/a	n/a	n/a	n/a	n/a	n/a	n/a	n/a	n/a
1780.03	n/a	WORD	890015	wordpools/wasnorm_wordpool_less_exclusions.txt	LTP207	ltpFR	12	7	1	WHALE	1601	n/a	n/a	1	n/a	0	0	0	0.57763671875	0.412841796875	1	upper	zerothre.ttf
1783.042	n/a	START	891521	n/a	LTP207	ltpFR	12	n/a	n/a	n/a	n/a	n/a	n/a	n/a	n/a	n/a	n/a	n/a	n/a	n/a	n/a	n/a	n/a
1784.18	n/a	PROB	892090	n/a	LTP207	ltpFR	12	n/a	n/a	n/a	n/a	n/a	n/a	n/a	13	1	4	8	n/a	n/a	n/a	n/a	n/a
1786.246	n/a	PROB	893123	n/a	LTP207	ltpFR	12	n/a	n/a	n/a	n/a	n/a	n/a	n/a	19	4	6	9	n/a	n/a	n/a	n/a	n/a
1787.676	n/a	PROB	893838	n/a	LTP207	ltpFR	12	n/a	n/a	n/a	n/a	n/a	n/a	n/a	14	1	6	7	n/a	n/a	n/a	n/a	n/a
1789.2	n/a	PROB	894600	n/a	LTP207	ltpFR	12	n/a	n/a	n/a	n/a	n/a	n/a	n/a	14	4	4	6	n/a	n/a	n/a	n/a	n/a
1790.912	n/a	STOP	895456	n/a	LTP207	ltpFR	12	n/a	n/a	n/a	n/a	n/a	n/a	n/a	n/a	n/a	n/a	n/a	n/a	n/a	n/a	n/a	n/a
1792.252	n/a	WORD	896126	wordpools/wasnorm_wordpool_less_exclusions.txt	LTP207	ltpFR	12	7	1	SUPERVISOR	1410	n/a	n/a	1	n/a	0	0	0	0.57763671875	0.412841796875	1	upper	zerothre.ttf
1795.264	n/a	START	897632	n/a	LTP207	ltpFR	12	n/a	n/a	n/a	n/a	n/a	n/a	n/a	n/a	n/a	n/a	n/a	n/a	n/a	n/a	n/a	n/a
1796.074	n/a	PROB	898037	n/a	LTP207	ltpFR	12	n/a	n/a	n/a	n/a	n/a	n/a	n/a	20	4	7	9	n/a	n/a	n/a	n/a	n/a
1798.074	n/a	PROB	899037	n/a	LTP207	ltpFR	12	n/a	n/a	n/a	n/a	n/a	n/a	n/a	8	3	2	3	n/a	n/a	n/a	n/a	n/a
1800.116	n/a	PROB	900058	n/a	LTP207	ltpFR	12	n/a	n/a	n/a	n/a	n/a	n/a	n/a	12	4	3	5	n/a	n/a	n/a	n/a	n/a
1801.754	n/a	STOP	900877	n/a	LTP207	ltpFR	12	n/a	n/a	n/a	n/a	n/a	n/a	n/a	n/a	n/a	n/a	n/a	n/a	n/a	n/a	n/a	n/a
1804.406	n/a	WORD	902203	wordpools/wasnorm_wordpool_less_exclusions.txt	LTP207	ltpFR	12	7	0	TYPIST	1532	n/a	n/a	1	n/a	0	0	0	0.422607421875	0.5869140625	0	lower	amplitud.ttf
1807.418	n/a	START	903709	n/a	LTP207	ltpFR	12	n/a	n/a	n/a	n/a	n/a	n/a	n/a	n/a	n/a	n/a	n/a	n/a	n/a	n/a	n/a	n/a
1808.248	n/a	PROB	904124	n/a	LTP207	ltpFR	12	n/a	n/a	n/a	n/a	n/a	n/a	n/a	19	7	4	8	n/a	n/a	n/a	n/a	n/a
1810.306	n/a	PROB	905153	n/a	LTP207	ltpFR	12	n/a	n/a	n/a	n/a	n/a	n/a	n/a	16	2	6	8	n/a	n/a	n/a	n/a	n/a
1811.912	n/a	PROB	905956	n/a	LTP207	ltpFR	12	n/a	n/a	n/a	n/a	n/a	n/a	n/a	11	5	2	4	n/a	n/a	n/a	n/a	n/a
1814.674	n/a	STOP	907337	n/a	LTP207	ltpFR	12	n/a	n/a	n/a	n/a	n/a	n/a	n/a	n/a	n/a	n/a	n/a	n/a	n/a	n/a	n/a	n/a
1816.252	n/a	WORD	908126	wordpools/wasnorm_wordpool_less_exclusions.txt	LTP207	ltpFR	12	7	0	ROOT	1210	n/a	n/a	0	n/a	0	0	0	0.422607421875	0.5869140625	0	lower	amplitud.ttf
1819.264	n/a	START	909632	n/a	LTP207	ltpFR	12	n/a	n/a	n/a	n/a	n/a	n/a	n/a	n/a	n/a	n/a	n/a	n/a	n/a	n/a	n/a	n/a
1820.452	n/a	PROB	910226	n/a	LTP207	ltpFR	12	n/a	n/a	n/a	n/a	n/a	n/a	n/a	10	2	2	6	n/a	n/a	n/a	n/a	n/a
1821.766	n/a	PROB	910883	n/a	LTP207	ltpFR	12	n/a	n/a	n/a	n/a	n/a	n/a	n/a	15	7	6	2	n/a	n/a	n/a	n/a	n/a
1823.706	n/a	PROB	911853	n/a	LTP207	ltpFR	12	n/a	n/a	n/a	n/a	n/a	n/a	n/a	12	2	1	9	n/a	n/a	n/a	n/a	n/a
1827.264	n/a	STOP	913632	n/a	LTP207	ltpFR	12	n/a	n/a	n/a	n/a	n/a	n/a	n/a	n/a	n/a	n/a	n/a	n/a	n/a	n/a	n/a	n/a
1828.374	n/a	WORD	914187	wordpools/wasnorm_wordpool_less_exclusions.txt	LTP207	ltpFR	12	7	1	BRANCH	168	n/a	n/a	0	n/a	0	0	0	0.57763671875	0.412841796875	1	upper	zerothre.ttf
1831.386	n/a	START	915693	n/a	LTP207	ltpFR	12	n/a	n/a	n/a	n/a	n/a	n/a	n/a	n/a	n/a	n/a	n/a	n/a	n/a	n/a	n/a	n/a
1832.396	n/a	PROB	916198	n/a	LTP207	ltpFR	12	n/a	n/a	n/a	n/a	n/a	n/a	n/a	17	3	5	9	n/a	n/a	n/a	n/a	n/a
1834.772	n/a	PROB	917386	n/a	LTP207	ltpFR	12	n/a	n/a	n/a	n/a	n/a	n/a	n/a	7	3	3	1	n/a	n/a	n/a	n/a	n/a
1836.688	n/a	PROB	918344	n/a	LTP207	ltpFR	12	n/a	n/a	n/a	n/a	n/a	n/a	n/a	10	3	6	1	n/a	n/a	n/a	n/a	n/a
1838.38	n/a	STOP	919190	n/a	LTP207	ltpFR	12	n/a	n/a	n/a	n/a	n/a	n/a	n/a	n/a	n/a	n/a	n/a	n/a	n/a	n/a	n/a	n/a
1840.42	n/a	WORD	920210	wordpools/wasnorm_wordpool_less_exclusions.txt	LTP207	ltpFR	12	7	1	STAPLE	1371	n/a	n/a	0	n/a	0	0	0	0.57763671875	0.412841796875	1	upper	zerothre.ttf
1843.432	n/a	START	921716	n/a	LTP207	ltpFR	12	n/a	n/a	n/a	n/a	n/a	n/a	n/a	n/a	n/a	n/a	n/a	n/a	n/a	n/a	n/a	n/a
1844.46	n/a	PROB	922230	n/a	LTP207	ltpFR	12	n/a	n/a	n/a	n/a	n/a	n/a	n/a	25	9	7	9	n/a	n/a	n/a	n/a	n/a
1846.25	n/a	PROB	923125	n/a	LTP207	ltpFR	12	n/a	n/a	n/a	n/a	n/a	n/a	n/a	23	9	9	5	n/a	n/a	n/a	n/a	n/a
1850.46	n/a	STOP	925230	n/a	LTP207	ltpFR	12	n/a	n/a	n/a	n/a	n/a	n/a	n/a	n/a	n/a	n/a	n/a	n/a	n/a	n/a	n/a	n/a
1852.532	n/a	WORD	926266	wordpools/wasnorm_wordpool_less_exclusions.txt	LTP207	ltpFR	12	7	1	CHIME	300	n/a	n/a	0	n/a	0	0	0	0.57763671875	0.412841796875	1	upper	zerothre.ttf
1855.544	n/a	START	927772	n/a	LTP207	ltpFR	12	n/a	n/a	n/a	n/a	n/a	n/a	n/a	n/a	n/a	n/a	n/a	n/a	n/a	n/a	n/a	n/a
1856.682	n/a	PROB	928341	n/a	LTP207	ltpFR	12	n/a	n/a	n/a	n/a	n/a	n/a	n/a	14	2	8	4	n/a	n/a	n/a	n/a	n/a
1858.966	n/a	PROB	929483	n/a	LTP207	ltpFR	12	n/a	n/a	n/a	n/a	n/a	n/a	n/a	12	2	4	6	n/a	n/a	n/a	n/a	n/a
1863.546	n/a	STOP	931773	n/a	LTP207	ltpFR	12	n/a	n/a	n/a	n/a	n/a	n/a	n/a	n/a	n/a	n/a	n/a	n/a	n/a	n/a	n/a	n/a
1864.554	n/a	WORD	932277	wordpools/wasnorm_wordpool_less_exclusions.txt	LTP207	ltpFR	12	7	0	FOX	598	n/a	n/a	1	n/a	0	0	0	0.422607421875	0.5869140625	0	lower	amplitud.ttf
1867.566	n/a	START	933783	n/a	LTP207	ltpFR	12	n/a	n/a	n/a	n/a	n/a	n/a	n/a	n/a	n/a	n/a	n/a	n/a	n/a	n/a	n/a	n/a
1868.694	n/a	PROB	934347	n/a	LTP207	ltpFR	12	n/a	n/a	n/a	n/a	n/a	n/a	n/a	9	1	1	7	n/a	n/a	n/a	n/a	n/a
1869.8	n/a	PROB	934900	n/a	LTP207	ltpFR	12	n/a	n/a	n/a	n/a	n/a	n/a	n/a	11	2	7	2	n/a	n/a	n/a	n/a	n/a
1871.446	n/a	PROB	935723	n/a	LTP207	ltpFR	12	n/a	n/a	n/a	n/a	n/a	n/a	n/a	20	9	9	1	n/a	n/a	n/a	n/a	n/a
1872.884	n/a	PROB	936442	n/a	LTP207	ltpFR	12	n/a	n/a	n/a	n/a	n/a	n/a	n/a	18	3	8	7	n/a	n/a	n/a	n/a	n/a
1875.468	n/a	STOP	937734	n/a	LTP207	ltpFR	12	n/a	n/a	n/a	n/a	n/a	n/a	n/a	n/a	n/a	n/a	n/a	n/a	n/a	n/a	n/a	n/a
1876.776	n/a	WORD	938388	wordpools/wasnorm_wordpool_less_exclusions.txt	LTP207	ltpFR	12	7	0	CLARINET	317	n/a	n/a	1	n/a	0	0	0	0.422607421875	0.5869140625	0	lower	amplitud.ttf
1879.788	n/a	START	939894	n/a	LTP207	ltpFR	12	n/a	n/a	n/a	n/a	n/a	n/a	n/a	n/a	n/a	n/a	n/a	n/a	n/a	n/a	n/a	n/a
1880.732	n/a	PROB	940366	n/a	LTP207	ltpFR	12	n/a	n/a	n/a	n/a	n/a	n/a	n/a	13	6	4	3	n/a	n/a	n/a	n/a	n/a
1882.214	n/a	PROB	941107	n/a	LTP207	ltpFR	12	n/a	n/a	n/a	n/a	n/a	n/a	n/a	15	5	4	1	n/a	n/a	n/a	n/a	n/a
1883.86	n/a	PROB	941930	n/a	LTP207	ltpFR	12	n/a	n/a	n/a	n/a	n/a	n/a	n/a	9	3	2	4	n/a	n/a	n/a	n/a	n/a
1886.012	n/a	PROB	943006	n/a	LTP207	ltpFR	12	n/a	n/a	n/a	n/a	n/a	n/a	n/a	17	3	6	8	n/a	n/a	n/a	n/a	n/a
1887.542	n/a	STOP	943771	n/a	LTP207	ltpFR	12	n/a	n/a	n/a	n/a	n/a	n/a	n/a	n/a	n/a	n/a	n/a	n/a	n/a	n/a	n/a	n/a
1888.972	n/a	WORD	944486	wordpools/wasnorm_wordpool_less_exclusions.txt	LTP207	ltpFR	12	7	0	GARAGE	621	n/a	n/a	1	n/a	0	0	0	0.422607421875	0.5869140625	0	lower	amplitud.ttf
1891.984	n/a	START	945992	n/a	LTP207	ltpFR	12	n/a	n/a	n/a	n/a	n/a	n/a	n/a	n/a	n/a	n/a	n/a	n/a	n/a	n/a	n/a	n/a
1892.97	n/a	PROB	946485	n/a	LTP207	ltpFR	12	n/a	n/a	n/a	n/a	n/a	n/a	n/a	20	8	7	5	n/a	n/a	n/a	n/a	n/a
1895.08	n/a	PROB	947540	n/a	LTP207	ltpFR	12	n/a	n/a	n/a	n/a	n/a	n/a	n/a	13	5	1	7	n/a	n/a	n/a	n/a	n/a
1896.852	n/a	PROB	948426	n/a	LTP207	ltpFR	12	n/a	n/a	n/a	n/a	n/a	n/a	n/a	22	9	5	8	n/a	n/a	n/a	n/a	n/a
1899.984	n/a	STOP	949992	n/a	LTP207	ltpFR	12	n/a	n/a	n/a	n/a	n/a	n/a	n/a	n/a	n/a	n/a	n/a	n/a	n/a	n/a	n/a	n/a
1901.78	n/a	REC_START	950890	n/a	LTP207	ltpFR	12	7	n/a	n/a	n/a	n/a	n/a	n/a	n/a	0	0	0	n/a	n/a	n/a	n/a	n/a
1903.73	n/a	REC_WORD	951865	wordpools/wasnorm_wordpool_less_exclusions.txt	LTP207	ltpFR	12	7	0	RUBY	1214	n/a	n/a	0	n/a	0	0	0	n/a	n/a	n/a	n/a	n/a
1914.76	n/a	REC_WORD	957380	wordpools/wasnorm_wordpool_less_exclusions.txt	LTP207	ltpFR	12	7	0	CLARINET	317	n/a	n/a	1	n/a	0	0	0	n/a	n/a	n/a	n/a	n/a
1944.498	n/a	REC_WORD	972249	wordpools/wasnorm_wordpool_less_exclusions.txt	LTP207	ltpFR	12	7	1	VIOLIN	1571	n/a	n/a	0	n/a	0	0	0	n/a	n/a	n/a	n/a	n/a
1971.654	n/a	REC_WORD	985827	wordpools/wasnorm_wordpool_less_exclusions.txt	LTP207	ltpFR	12	7	0	TYPIST	1532	n/a	n/a	1	n/a	0	0	0	n/a	n/a	n/a	n/a	n/a
1981.366	n/a	WORD	990683	wordpools/wasnorm_wordpool_less_exclusions.txt	LTP207	ltpFR	12	8	0	JEEP	753	n/a	n/a	1	n/a	0	0	0	0.422607421875	0.5869140625	0	lower	amplitud.ttf
1985.432	n/a	WORD	992716	wordpools/wasnorm_wordpool_less_exclusions.txt	LTP207	ltpFR	12	8	0	BATTERY	101	n/a	n/a	0	n/a	0	0	0	0.422607421875	0.5869140625	0	lower	amplitud.ttf
1989.44	n/a	WORD	994720	wordpools/wasnorm_wordpool_less_exclusions.txt	LTP207	ltpFR	12	8	0	CAMEL	223	n/a	n/a	1	n/a	0	0	0	0.422607421875	0.5869140625	0	lower	amplitud.ttf
1993.362	n/a	WORD	996681	wordpools/wasnorm_wordpool_less_exclusions.txt	LTP207	ltpFR	12	8	0	GLACIER	638	n/a	n/a	1	n/a	0	0	0	0.422607421875	0.5869140625	0	lower	amplitud.ttf
1997.544	n/a	WORD	998772	wordpools/wasnorm_wordpool_less_exclusions.txt	LTP207	ltpFR	12	8	0	CHIMNEY	301	n/a	n/a	1	n/a	0	0	0	0.422607421875	0.5869140625	0	lower	amplitud.ttf
2001.46	n/a	WORD	1000730	wordpools/wasnorm_wordpool_less_exclusions.txt	LTP207	ltpFR	12	8	1	BRICK	172	n/a	n/a	0	n/a	0	0	0	0.57763671875	0.412841796875	1	upper	zerothre.ttf
2005.592	n/a	WORD	1002796	wordpools/wasnorm_wordpool_less_exclusions.txt	LTP207	ltpFR	12	8	1	STREAM	1392	n/a	n/a	0	n/a	0	0	0	0.57763671875	0.412841796875	1	upper	zerothre.ttf
2009.692	n/a	WORD	1004846	wordpools/wasnorm_wordpool_less_exclusions.txt	LTP207	ltpFR	12	8	1	DOG	480	n/a	n/a	1	n/a	0	0	0	0.57763671875	0.412841796875	1	upper	zerothre.ttf
2013.824	n/a	WORD	1006912	wordpools/wasnorm_wordpool_less_exclusions.txt	LTP207	ltpFR	12	8	0	DISH	474	n/a	n/a	0	n/a	0	0	0	0.422607421875	0.5869140625	0	lower	amplitud.ttf
2017.906	n/a	WORD	1008953	wordpools/wasnorm_wordpool_less_exclusions.txt	LTP207	ltpFR	12	8	0	BREAD	170	n/a	n/a	0	n/a	0	0	0	0.422607421875	0.5869140625	0	lower	amplitud.ttf
2021.938	n/a	WORD	1010969	wordpools/wasnorm_wordpool_less_exclusions.txt	LTP207	ltpFR	12	8	0	COUGAR	387	n/a	n/a	0	n/a	0	0	0	0.422607421875	0.5869140625	0	lower	amplitud.ttf
2025.762	n/a	WORD	1012881	wordpools/wasnorm_wordpool_less_exclusions.txt	LTP207	ltpFR	12	8	1	TECHNICIAN	1443	n/a	n/a	1	n/a	0	0	0	0.57763671875	0.412841796875	1	upper	zerothre.ttf
2029.918	n/a	WORD	1014959	wordpools/wasnorm_wordpool_less_exclusions.txt	LTP207	ltpFR	12	8	1	MERMAID	887	n/a	n/a	1	n/a	0	0	0	0.57763671875	0.412841796875	1	upper	zerothre.ttf
2033.9	n/a	WORD	1016950	wordpools/wasnorm_wordpool_less_exclusions.txt	LTP207	ltpFR	12	8	1	ASH	44	n/a	n/a	0	n/a	0	0	0	0.57763671875	0.412841796875	1	upper	zerothre.ttf
2038.058	n/a	WORD	1019029	wordpools/wasnorm_wordpool_less_exclusions.txt	LTP207	ltpFR	12	8	1	SHELF	1280	n/a	n/a	0	n/a	0	0	0	0.57763671875	0.412841796875	1	upper	zerothre.ttf
2041.956	n/a	WORD	1020978	wordpools/wasnorm_wordpool_less_exclusions.txt	LTP207	ltpFR	12	8	1	PASSAGE	1019	n/a	n/a	0	n/a	0	0	0	0.57763671875	0.412841796875	1	upper	zerothre.ttf
2044.968	n/a	START	1022484	n/a	LTP207	ltpFR	12	n/a	n/a	n/a	n/a	n/a	n/a	n/a	n/a	n/a	n/a	n/a	n/a	n/a	n/a	n/a	n/a
2045.956	n/a	PROB	1022978	n/a	LTP207	ltpFR	12	n/a	n/a	n/a	n/a	n/a	n/a	n/a	20	7	6	7	n/a	n/a	n/a	n/a	n/a
2048.448	n/a	PROB	1024224	n/a	LTP207	ltpFR	12	n/a	n/a	n/a	n/a	n/a	n/a	n/a	15	4	7	4	n/a	n/a	n/a	n/a	n/a
2049.962	n/a	PROB	1024981	n/a	LTP207	ltpFR	12	n/a	n/a	n/a	n/a	n/a	n/a	n/a	17	7	7	3	n/a	n/a	n/a	n/a	n/a
2051.4	n/a	PROB	1025700	n/a	LTP207	ltpFR	12	n/a	n/a	n/a	n/a	n/a	n/a	n/a	15	3	6	6	n/a	n/a	n/a	n/a	n/a
2053.084	n/a	PROB	1026542	n/a	LTP207	ltpFR	12	n/a	n/a	n/a	n/a	n/a	n/a	n/a	22	6	7	9	n/a	n/a	n/a	n/a	n/a
2056.412	n/a	PROB	1028206	n/a	LTP207	ltpFR	12	n/a	n/a	n/a	n/a	n/a	n/a	n/a	11	7	1	3	n/a	n/a	n/a	n/a	n/a
2058.336	n/a	PROB	1029168	n/a	LTP207	ltpFR	12	n/a	n/a	n/a	n/a	n/a	n/a	n/a	17	7	5	5	n/a	n/a	n/a	n/a	n/a
2059.654	n/a	STOP	1029827	n/a	LTP207	ltpFR	12	n/a	n/a	n/a	n/a	n/a	n/a	n/a	n/a	n/a	n/a	n/a	n/a	n/a	n/a	n/a	n/a
2062.81	n/a	REC_START	1031405	n/a	LTP207	ltpFR	12	8	n/a	n/a	n/a	n/a	n/a	n/a	n/a	0	0	0	n/a	n/a	n/a	n/a	n/a
2064.638	n/a	REC_WORD	1032319	wordpools/wasnorm_wordpool_less_exclusions.txt	LTP207	ltpFR	12	8	0	GLACIER	638	n/a	n/a	1	n/a	0	0	0	n/a	n/a	n/a	n/a	n/a
2066.424	n/a	REC_WORD	1033212	wordpools/wasnorm_wordpool_less_exclusions.txt	LTP207	ltpFR	12	8	1	DOG	480	n/a	n/a	1	n/a	0	0	0	n/a	n/a	n/a	n/a	n/a
2068.702	n/a	REC_WORD	1034351	wordpools/wasnorm_wordpool_less_exclusions.txt	LTP207	ltpFR	12	8	0	CAMEL	223	n/a	n/a	1	n/a	0	0	0	n/a	n/a	n/a	n/a	n/a
2071.032	n/a	REC_WORD	1035516	wordpools/wasnorm_wordpool_less_exclusions.txt	LTP207	ltpFR	12	8	0	JEEP	753	n/a	n/a	1	n/a	0	0	0	n/a	n/a	n/a	n/a	n/a
2073.048	n/a	REC_WORD	1036524	wordpools/wasnorm_wordpool_less_exclusions.txt	LTP207	ltpFR	12	8	0	BATTERY	101	n/a	n/a	0	n/a	0	0	0	n/a	n/a	n/a	n/a	n/a
2103.796	n/a	REC_WORD	1051898	wordpools/wasnorm_wordpool_less_exclusions.txt	LTP207	ltpFR	12	8	1	VOLLEYBALL	1576	n/a	n/a	0	n/a	0	0	0	n/a	n/a	n/a	n/a	n/a
2172.104	n/a	START	1086052	n/a	LTP207	ltpFR	12	n/a	n/a	n/a	n/a	n/a	n/a	n/a	n/a	n/a	n/a	n/a	n/a	n/a	n/a	n/a	n/a
2173.618	n/a	PROB	1086809	n/a	LTP207	ltpFR	12	n/a	n/a	n/a	n/a	n/a	n/a	n/a	13	6	5	2	n/a	n/a	n/a	n/a	n/a
2175.25	n/a	PROB	1087625	n/a	LTP207	ltpFR	12	n/a	n/a	n/a	n/a	n/a	n/a	n/a	16	9	4	3	n/a	n/a	n/a	n/a	n/a
2177.226	n/a	PROB	1088613	n/a	LTP207	ltpFR	12	n/a	n/a	n/a	n/a	n/a	n/a	n/a	13	5	5	3	n/a	n/a	n/a	n/a	n/a
2180.106	n/a	STOP	1090053	n/a	LTP207	ltpFR	12	n/a	n/a	n/a	n/a	n/a	n/a	n/a	n/a	n/a	n/a	n/a	n/a	n/a	n/a	n/a	n/a
2181.172	n/a	WORD	1090586	wordpools/wasnorm_wordpool_less_exclusions.txt	LTP207	ltpFR	12	9	0	VEHICLE	1553	n/a	n/a	1	n/a	0	0	0	0.422607421875	0.5869140625	0	lower	amplitud.ttf
2184.186	n/a	START	1092093	n/a	LTP207	ltpFR	12	n/a	n/a	n/a	n/a	n/a	n/a	n/a	n/a	n/a	n/a	n/a	n/a	n/a	n/a	n/a	n/a
2185.296	n/a	PROB	1092648	n/a	LTP207	ltpFR	12	n/a	n/a	n/a	n/a	n/a	n/a	n/a	19	2	8	9	n/a	n/a	n/a	n/a	n/a
2192.184	n/a	STOP	1096092	n/a	LTP207	ltpFR	12	n/a	n/a	n/a	n/a	n/a	n/a	n/a	n/a	n/a	n/a	n/a	n/a	n/a	n/a	n/a	n/a
2193.142	n/a	WORD	1096571	wordpools/wasnorm_wordpool_less_exclusions.txt	LTP207	ltpFR	12	9	0	FUGITIVE	612	n/a	n/a	1	n/a	0	0	0	0.422607421875	0.5869140625	0	lower	amplitud.ttf
2196.154	n/a	START	1098077	n/a	LTP207	ltpFR	12	n/a	n/a	n/a	n/a	n/a	n/a	n/a	n/a	n/a	n/a	n/a	n/a	n/a	n/a	n/a	n/a
2197.124	n/a	PROB	1098562	n/a	LTP207	ltpFR	12	n/a	n/a	n/a	n/a	n/a	n/a	n/a	18	8	6	4	n/a	n/a	n/a	n/a	n/a
2198.488	n/a	PROB	1099244	n/a	LTP207	ltpFR	12	n/a	n/a	n/a	n/a	n/a	n/a	n/a	14	6	1	7	n/a	n/a	n/a	n/a	n/a
2199.962	n/a	PROB	1099981	n/a	LTP207	ltpFR	12	n/a	n/a	n/a	n/a	n/a	n/a	n/a	20	6	5	9	n/a	n/a	n/a	n/a	n/a
2201.558	n/a	PROB	1100779	n/a	LTP207	ltpFR	12	n/a	n/a	n/a	n/a	n/a	n/a	n/a	11	3	6	2	n/a	n/a	n/a	n/a	n/a
2202.99	n/a	STOP	1101495	n/a	LTP207	ltpFR	12	n/a	n/a	n/a	n/a	n/a	n/a	n/a	n/a	n/a	n/a	n/a	n/a	n/a	n/a	n/a	n/a
2205.048	n/a	WORD	1102524	wordpools/wasnorm_wordpool_less_exclusions.txt	LTP207	ltpFR	12	9	0	SUSPECT	1415	n/a	n/a	1	n/a	0	0	0	0.422607421875	0.5869140625	0	lower	amplitud.ttf
2208.058	n/a	START	1104029	n/a	LTP207	ltpFR	12	n/a	n/a	n/a	n/a	n/a	n/a	n/a	n/a	n/a	n/a	n/a	n/a	n/a	n/a	n/a	n/a
2209.062	n/a	PROB	1104531	n/a	LTP207	ltpFR	12	n/a	n/a	n/a	n/a	n/a	n/a	n/a	16	2	7	7	n/a	n/a	n/a	n/a	n/a
2210.692	n/a	PROB	1105346	n/a	LTP207	ltpFR	12	n/a	n/a	n/a	n/a	n/a	n/a	n/a	11	1	6	4	n/a	n/a	n/a	n/a	n/a
2211.806	n/a	PROB	1105903	n/a	LTP207	ltpFR	12	n/a	n/a	n/a	n/a	n/a	n/a	n/a	25	9	8	8	n/a	n/a	n/a	n/a	n/a
2214.022	n/a	PROB	1107011	n/a	LTP207	ltpFR	12	n/a	n/a	n/a	n/a	n/a	n/a	n/a	15	3	7	5	n/a	n/a	n/a	n/a	n/a
2215.48	n/a	STOP	1107740	n/a	LTP207	ltpFR	12	n/a	n/a	n/a	n/a	n/a	n/a	n/a	n/a	n/a	n/a	n/a	n/a	n/a	n/a	n/a	n/a
2217.218	n/a	WORD	1108609	wordpools/wasnorm_wordpool_less_exclusions.txt	LTP207	ltpFR	12	9	0	STRAW	1390	n/a	n/a	0	n/a	0	0	0	0.422607421875	0.5869140625	0	lower	amplitud.ttf
2220.23	n/a	START	1110115	n/a	LTP207	ltpFR	12	n/a	n/a	n/a	n/a	n/a	n/a	n/a	n/a	n/a	n/a	n/a	n/a	n/a	n/a	n/a	n/a
2221.158	n/a	PROB	1110579	n/a	LTP207	ltpFR	12	n/a	n/a	n/a	n/a	n/a	n/a	n/a	20	4	8	8	n/a	n/a	n/a	n/a	n/a
2224.16	n/a	PROB	1112080	n/a	LTP207	ltpFR	12	n/a	n/a	n/a	n/a	n/a	n/a	n/a	18	3	9	6	n/a	n/a	n/a	n/a	n/a
2226.378	n/a	PROB	1113189	n/a	LTP207	ltpFR	12	n/a	n/a	n/a	n/a	n/a	n/a	n/a	20	7	9	4	n/a	n/a	n/a	n/a	n/a
2227.92	n/a	STOP	1113960	n/a	LTP207	ltpFR	12	n/a	n/a	n/a	n/a	n/a	n/a	n/a	n/a	n/a	n/a	n/a	n/a	n/a	n/a	n/a	n/a
2229.28	n/a	WORD	1114640	wordpools/wasnorm_wordpool_less_exclusions.txt	LTP207	ltpFR	12	9	0	TAVERN	1437	n/a	n/a	1	n/a	0	0	0	0.422607421875	0.5869140625	0	lower	amplitud.ttf
2232.292	n/a	START	1116146	n/a	LTP207	ltpFR	12	n/a	n/a	n/a	n/a	n/a	n/a	n/a	n/a	n/a	n/a	n/a	n/a	n/a	n/a	n/a	n/a
2233.422	n/a	PROB	1116711	n/a	LTP207	ltpFR	12	n/a	n/a	n/a	n/a	n/a	n/a	n/a	21	8	9	4	n/a	n/a	n/a	n/a	n/a
2235.254	n/a	PROB	1117627	n/a	LTP207	ltpFR	12	n/a	n/a	n/a	n/a	n/a	n/a	n/a	15	6	3	6	n/a	n/a	n/a	n/a	n/a
2236.836	n/a	PROB	1118418	n/a	LTP207	ltpFR	12	n/a	n/a	n/a	n/a	n/a	n/a	n/a	15	4	3	8	n/a	n/a	n/a	n/a	n/a
2238.242	n/a	PROB	1119121	n/a	LTP207	ltpFR	12	n/a	n/a	n/a	n/a	n/a	n/a	n/a	6	3	1	2	n/a	n/a	n/a	n/a	n/a
2239.928	n/a	STOP	1119964	n/a	LTP207	ltpFR	12	n/a	n/a	n/a	n/a	n/a	n/a	n/a	n/a	n/a	n/a	n/a	n/a	n/a	n/a	n/a	n/a
2241.402	n/a	WORD	1120701	wordpools/wasnorm_wordpool_less_exclusions.txt	LTP207	ltpFR	12	9	0	VELVET	1555	n/a	n/a	0	n/a	0	0	0	0.422607421875	0.5869140625	0	lower	amplitud.ttf
2244.414	n/a	START	1122207	n/a	LTP207	ltpFR	12	n/a	n/a	n/a	n/a	n/a	n/a	n/a	n/a	n/a	n/a	n/a	n/a	n/a	n/a	n/a	n/a
2245.258	n/a	PROB	1122629	n/a	LTP207	ltpFR	12	n/a	n/a	n/a	n/a	n/a	n/a	n/a	16	6	4	6	n/a	n/a	n/a	n/a	n/a
2248.162	n/a	PROB	1124081	n/a	LTP207	ltpFR	12	n/a	n/a	n/a	n/a	n/a	n/a	n/a	21	8	8	5	n/a	n/a	n/a	n/a	n/a
2249.6	n/a	PROB	1124800	n/a	LTP207	ltpFR	12	n/a	n/a	n/a	n/a	n/a	n/a	n/a	21	7	6	8	n/a	n/a	n/a	n/a	n/a
2250.906	n/a	PROB	1125453	n/a	LTP207	ltpFR	12	n/a	n/a	n/a	n/a	n/a	n/a	n/a	9	2	1	6	n/a	n/a	n/a	n/a	n/a
2252.202	n/a	STOP	1126101	n/a	LTP207	ltpFR	12	n/a	n/a	n/a	n/a	n/a	n/a	n/a	n/a	n/a	n/a	n/a	n/a	n/a	n/a	n/a	n/a
2253.606	n/a	WORD	1126803	wordpools/wasnorm_wordpool_less_exclusions.txt	LTP207	ltpFR	12	9	0	LITERATURE	831	n/a	n/a	1	n/a	0	0	0	0.422607421875	0.5869140625	0	lower	amplitud.ttf
2256.618	n/a	START	1128309	n/a	LTP207	ltpFR	12	n/a	n/a	n/a	n/a	n/a	n/a	n/a	n/a	n/a	n/a	n/a	n/a	n/a	n/a	n/a	n/a
2257.556	n/a	PROB	1128778	n/a	LTP207	ltpFR	12	n/a	n/a	n/a	n/a	n/a	n/a	n/a	14	7	5	2	n/a	n/a	n/a	n/a	n/a
2259.898	n/a	PROB	1129949	n/a	LTP207	ltpFR	12	n/a	n/a	n/a	n/a	n/a	n/a	n/a	14	4	5	5	n/a	n/a	n/a	n/a	n/a
2261.23	n/a	PROB	1130615	n/a	LTP207	ltpFR	12	n/a	n/a	n/a	n/a	n/a	n/a	n/a	12	2	1	9	n/a	n/a	n/a	n/a	n/a
2262.6	n/a	PROB	1131300	n/a	LTP207	ltpFR	12	n/a	n/a	n/a	n/a	n/a	n/a	n/a	18	4	8	6	n/a	n/a	n/a	n/a	n/a
2264.29	n/a	STOP	1132145	n/a	LTP207	ltpFR	12	n/a	n/a	n/a	n/a	n/a	n/a	n/a	n/a	n/a	n/a	n/a	n/a	n/a	n/a	n/a	n/a
2265.702	n/a	WORD	1132851	wordpools/wasnorm_wordpool_less_exclusions.txt	LTP207	ltpFR	12	9	0	KETTLE	772	n/a	n/a	0	n/a	0	0	0	0.422607421875	0.5869140625	0	lower	amplitud.ttf
2268.714	n/a	START	1134357	n/a	LTP207	ltpFR	12	n/a	n/a	n/a	n/a	n/a	n/a	n/a	n/a	n/a	n/a	n/a	n/a	n/a	n/a	n/a	n/a
2269.534	n/a	PROB	1134767	n/a	LTP207	ltpFR	12	n/a	n/a	n/a	n/a	n/a	n/a	n/a	19	7	4	8	n/a	n/a	n/a	n/a	n/a
2271.852	n/a	PROB	1135926	n/a	LTP207	ltpFR	12	n/a	n/a	n/a	n/a	n/a	n/a	n/a	15	5	6	4	n/a	n/a	n/a	n/a	n/a
2273.292	n/a	PROB	1136646	n/a	LTP207	ltpFR	12	n/a	n/a	n/a	n/a	n/a	n/a	n/a	21	5	9	7	n/a	n/a	n/a	n/a	n/a
2275.882	n/a	STOP	1137941	n/a	LTP207	ltpFR	12	n/a	n/a	n/a	n/a	n/a	n/a	n/a	n/a	n/a	n/a	n/a	n/a	n/a	n/a	n/a	n/a
2277.648	n/a	WORD	1138824	wordpools/wasnorm_wordpool_less_exclusions.txt	LTP207	ltpFR	12	9	0	CABINET	212	n/a	n/a	1	n/a	0	0	0	0.422607421875	0.5869140625	0	lower	amplitud.ttf
2280.66	n/a	START	1140330	n/a	LTP207	ltpFR	12	n/a	n/a	n/a	n/a	n/a	n/a	n/a	n/a	n/a	n/a	n/a	n/a	n/a	n/a	n/a	n/a
2281.748	n/a	PROB	1140874	n/a	LTP207	ltpFR	12	n/a	n/a	n/a	n/a	n/a	n/a	n/a	11	2	2	7	n/a	n/a	n/a	n/a	n/a
2283.214	n/a	PROB	1141607	n/a	LTP207	ltpFR	12	n/a	n/a	n/a	n/a	n/a	n/a	n/a	8	2	4	2	n/a	n/a	n/a	n/a	n/a
2288.66	n/a	STOP	1144330	n/a	LTP207	ltpFR	12	n/a	n/a	n/a	n/a	n/a	n/a	n/a	n/a	n/a	n/a	n/a	n/a	n/a	n/a	n/a	n/a
2289.854	n/a	WORD	1144927	wordpools/wasnorm_wordpool_less_exclusions.txt	LTP207	ltpFR	12	9	0	HEEL	700	n/a	n/a	0	n/a	0	0	0	0.422607421875	0.5869140625	0	lower	amplitud.ttf
2292.866	n/a	START	1146433	n/a	LTP207	ltpFR	12	n/a	n/a	n/a	n/a	n/a	n/a	n/a	n/a	n/a	n/a	n/a	n/a	n/a	n/a	n/a	n/a
2293.91	n/a	PROB	1146955	n/a	LTP207	ltpFR	12	n/a	n/a	n/a	n/a	n/a	n/a	n/a	19	4	8	7	n/a	n/a	n/a	n/a	n/a
2295.744	n/a	PROB	1147872	n/a	LTP207	ltpFR	12	n/a	n/a	n/a	n/a	n/a	n/a	n/a	14	4	3	7	n/a	n/a	n/a	n/a	n/a
2297.49	n/a	PROB	1148745	n/a	LTP207	ltpFR	12	n/a	n/a	n/a	n/a	n/a	n/a	n/a	12	6	2	4	n/a	n/a	n/a	n/a	n/a
2299.468	n/a	STOP	1149734	n/a	LTP207	ltpFR	12	n/a	n/a	n/a	n/a	n/a	n/a	n/a	n/a	n/a	n/a	n/a	n/a	n/a	n/a	n/a	n/a
2302.018	n/a	WORD	1151009	wordpools/wasnorm_wordpool_less_exclusions.txt	LTP207	ltpFR	12	9	0	ORCHID	982	n/a	n/a	1	n/a	0	0	0	0.422607421875	0.5869140625	0	lower	amplitud.ttf
2305.03	n/a	START	1152515	n/a	LTP207	ltpFR	12	n/a	n/a	n/a	n/a	n/a	n/a	n/a	n/a	n/a	n/a	n/a	n/a	n/a	n/a	n/a	n/a
2306.1	n/a	PROB	1153050	n/a	LTP207	ltpFR	12	n/a	n/a	n/a	n/a	n/a	n/a	n/a	20	8	5	7	n/a	n/a	n/a	n/a	n/a
2310.758	n/a	PROB	1155379	n/a	LTP207	ltpFR	12	n/a	n/a	n/a	n/a	n/a	n/a	n/a	21	8	4	9	n/a	n/a	n/a	n/a	n/a
2312.308	n/a	STOP	1156154	n/a	LTP207	ltpFR	12	n/a	n/a	n/a	n/a	n/a	n/a	n/a	n/a	n/a	n/a	n/a	n/a	n/a	n/a	n/a	n/a
2314.02	n/a	WORD	1157010	wordpools/wasnorm_wordpool_less_exclusions.txt	LTP207	ltpFR	12	9	0	ROOM	1206	n/a	n/a	1	n/a	0	0	0	0.422607421875	0.5869140625	0	lower	amplitud.ttf
2317.032	n/a	START	1158516	n/a	LTP207	ltpFR	12	n/a	n/a	n/a	n/a	n/a	n/a	n/a	n/a	n/a	n/a	n/a	n/a	n/a	n/a	n/a	n/a
2318.086	n/a	PROB	1159043	n/a	LTP207	ltpFR	12	n/a	n/a	n/a	n/a	n/a	n/a	n/a	14	6	4	4	n/a	n/a	n/a	n/a	n/a
2319.576	n/a	PROB	1159788	n/a	LTP207	ltpFR	12	n/a	n/a	n/a	n/a	n/a	n/a	n/a	16	1	7	8	n/a	n/a	n/a	n/a	n/a
2320.88	n/a	PROB	1160440	n/a	LTP207	ltpFR	12	n/a	n/a	n/a	n/a	n/a	n/a	n/a	11	1	1	9	n/a	n/a	n/a	n/a	n/a
2322.704	n/a	PROB	1161352	n/a	LTP207	ltpFR	12	n/a	n/a	n/a	n/a	n/a	n/a	n/a	15	3	6	6	n/a	n/a	n/a	n/a	n/a
2324.692	n/a	STOP	1162346	n/a	LTP207	ltpFR	12	n/a	n/a	n/a	n/a	n/a	n/a	n/a	n/a	n/a	n/a	n/a	n/a	n/a	n/a	n/a	n/a
2326.016	n/a	WORD	1163008	wordpools/wasnorm_wordpool_less_exclusions.txt	LTP207	ltpFR	12	9	0	SANDPAPER	1231	n/a	n/a	0	n/a	0	0	0	0.422607421875	0.5869140625	0	lower	amplitud.ttf
2329.03	n/a	START	1164515	n/a	LTP207	ltpFR	12	n/a	n/a	n/a	n/a	n/a	n/a	n/a	n/a	n/a	n/a	n/a	n/a	n/a	n/a	n/a	n/a
2330.076	n/a	PROB	1165038	n/a	LTP207	ltpFR	12	n/a	n/a	n/a	n/a	n/a	n/a	n/a	11	2	2	7	n/a	n/a	n/a	n/a	n/a
2331.782	n/a	PROB	1165891	n/a	LTP207	ltpFR	12	n/a	n/a	n/a	n/a	n/a	n/a	n/a	12	4	3	5	n/a	n/a	n/a	n/a	n/a
2333.328	n/a	PROB	1166664	n/a	LTP207	ltpFR	12	n/a	n/a	n/a	n/a	n/a	n/a	n/a	23	8	8	7	n/a	n/a	n/a	n/a	n/a
2335.502	n/a	STOP	1167751	n/a	LTP207	ltpFR	12	n/a	n/a	n/a	n/a	n/a	n/a	n/a	n/a	n/a	n/a	n/a	n/a	n/a	n/a	n/a	n/a
2337.988	n/a	WORD	1168994	wordpools/wasnorm_wordpool_less_exclusions.txt	LTP207	ltpFR	12	9	0	PEAR	1033	n/a	n/a	0	n/a	0	0	0	0.422607421875	0.5869140625	0	lower	amplitud.ttf
2341.0	n/a	START	1170500	n/a	LTP207	ltpFR	12	n/a	n/a	n/a	n/a	n/a	n/a	n/a	n/a	n/a	n/a	n/a	n/a	n/a	n/a	n/a	n/a
2342.196	n/a	PROB	1171098	n/a	LTP207	ltpFR	12	n/a	n/a	n/a	n/a	n/a	n/a	n/a	6	1	1	4	n/a	n/a	n/a	n/a	n/a
2343.776	n/a	PROB	1171888	n/a	LTP207	ltpFR	12	n/a	n/a	n/a	n/a	n/a	n/a	n/a	13	2	7	4	n/a	n/a	n/a	n/a	n/a
2345.234	n/a	PROB	1172617	n/a	LTP207	ltpFR	12	n/a	n/a	n/a	n/a	n/a	n/a	n/a	12	8	1	3	n/a	n/a	n/a	n/a	n/a
2346.864	n/a	PROB	1173432	n/a	LTP207	ltpFR	12	n/a	n/a	n/a	n/a	n/a	n/a	n/a	18	4	6	8	n/a	n/a	n/a	n/a	n/a
2348.216	n/a	STOP	1174108	n/a	LTP207	ltpFR	12	n/a	n/a	n/a	n/a	n/a	n/a	n/a	n/a	n/a	n/a	n/a	n/a	n/a	n/a	n/a	n/a
2350.126	n/a	WORD	1175063	wordpools/wasnorm_wordpool_less_exclusions.txt	LTP207	ltpFR	12	9	0	DUNGEON	507	n/a	n/a	1	n/a	0	0	0	0.422607421875	0.5869140625	0	lower	amplitud.ttf
2353.138	n/a	START	1176569	n/a	LTP207	ltpFR	12	n/a	n/a	n/a	n/a	n/a	n/a	n/a	n/a	n/a	n/a	n/a	n/a	n/a	n/a	n/a	n/a
2354.3	n/a	PROB	1177150	n/a	LTP207	ltpFR	12	n/a	n/a	n/a	n/a	n/a	n/a	n/a	14	5	1	8	n/a	n/a	n/a	n/a	n/a
2356.584	n/a	PROB	1178292	n/a	LTP207	ltpFR	12	n/a	n/a	n/a	n/a	n/a	n/a	n/a	14	7	3	4	n/a	n/a	n/a	n/a	n/a
2357.888	n/a	PROB	1178944	n/a	LTP207	ltpFR	12	n/a	n/a	n/a	n/a	n/a	n/a	n/a	18	8	5	5	n/a	n/a	n/a	n/a	n/a
2361.138	n/a	STOP	1180569	n/a	LTP207	ltpFR	12	n/a	n/a	n/a	n/a	n/a	n/a	n/a	n/a	n/a	n/a	n/a	n/a	n/a	n/a	n/a	n/a
2361.986	n/a	WORD	1180993	wordpools/wasnorm_wordpool_less_exclusions.txt	LTP207	ltpFR	12	9	0	DRIVEWAY	500	n/a	n/a	1	n/a	0	0	0	0.422607421875	0.5869140625	0	lower	amplitud.ttf
2364.998	n/a	START	1182499	n/a	LTP207	ltpFR	12	n/a	n/a	n/a	n/a	n/a	n/a	n/a	n/a	n/a	n/a	n/a	n/a	n/a	n/a	n/a	n/a
2365.952	n/a	PROB	1182976	n/a	LTP207	ltpFR	12	n/a	n/a	n/a	n/a	n/a	n/a	n/a	16	4	3	9	n/a	n/a	n/a	n/a	n/a
2370.252	n/a	PROB	1185126	n/a	LTP207	ltpFR	12	n/a	n/a	n/a	n/a	n/a	n/a	n/a	15	1	9	5	n/a	n/a	n/a	n/a	n/a
2372.256	n/a	STOP	1186128	n/a	LTP207	ltpFR	12	n/a	n/a	n/a	n/a	n/a	n/a	n/a	n/a	n/a	n/a	n/a	n/a	n/a	n/a	n/a	n/a
2374.92	n/a	REC_START	1187460	n/a	LTP207	ltpFR	12	9	n/a	n/a	n/a	n/a	n/a	n/a	n/a	0	0	0	n/a	n/a	n/a	n/a	n/a
2383.012	n/a	REC_WORD	1191506	wordpools/wasnorm_wordpool_less_exclusions.txt	LTP207	ltpFR	12	9	0	ROOM	1206	n/a	n/a	1	n/a	0	0	0	n/a	n/a	n/a	n/a	n/a
2385.798	n/a	REC_WORD	1192899	wordpools/wasnorm_wordpool_less_exclusions.txt	LTP207	ltpFR	12	9	0	DUNGEON	507	n/a	n/a	1	n/a	0	0	0	n/a	n/a	n/a	n/a	n/a
2391.364	n/a	REC_WORD	1195682	wordpools/wasnorm_wordpool_less_exclusions.txt	LTP207	ltpFR	12	9	0	KETTLE	772	n/a	n/a	0	n/a	0	0	0	n/a	n/a	n/a	n/a	n/a
2408.936	n/a	REC_WORD	1204468	wordpools/wasnorm_wordpool_less_exclusions.txt	LTP207	ltpFR	12	9	1	DOG	480	n/a	n/a	1	n/a	0	0	0	n/a	n/a	n/a	n/a	n/a
2477.336	n/a	WORD	1238668	wordpools/wasnorm_wordpool_less_exclusions.txt	LTP207	ltpFR	12	10	0	FINGER	567	n/a	n/a	0	n/a	0	0	0	0.422607421875	0.5869140625	0	lower	amplitud.ttf
2481.244	n/a	WORD	1240622	wordpools/wasnorm_wordpool_less_exclusions.txt	LTP207	ltpFR	12	10	0	FIST	572	n/a	n/a	0	n/a	0	0	0	0.422607421875	0.5869140625	0	lower	amplitud.ttf
2485.386	n/a	WORD	1242693	wordpools/wasnorm_wordpool_less_exclusions.txt	LTP207	ltpFR	12	10	0	NECK	939	n/a	n/a	0	n/a	0	0	0	0.422607421875	0.5869140625	0	lower	amplitud.ttf
2489.5	n/a	WORD	1244750	wordpools/wasnorm_wordpool_less_exclusions.txt	LTP207	ltpFR	12	10	1	BUTTON	207	n/a	n/a	0	n/a	0	0	0	0.57763671875	0.412841796875	1	upper	zerothre.ttf
2493.65	n/a	WORD	1246825	wordpools/wasnorm_wordpool_less_exclusions.txt	LTP207	ltpFR	12	10	1	MULE	931	n/a	n/a	1	n/a	0	0	0	0.57763671875	0.412841796875	1	upper	zerothre.ttf
2497.806	n/a	WORD	1248903	wordpools/wasnorm_wordpool_less_exclusions.txt	LTP207	ltpFR	12	10	1	DANDELION	438	n/a	n/a	1	n/a	0	0	0	0.57763671875	0.412841796875	1	upper	zerothre.ttf
2501.798	n/a	WORD	1250899	wordpools/wasnorm_wordpool_less_exclusions.txt	LTP207	ltpFR	12	10	1	CABIN	211	n/a	n/a	0	n/a	0	0	0	0.57763671875	0.412841796875	1	upper	zerothre.ttf
2505.762	n/a	WORD	1252881	wordpools/wasnorm_wordpool_less_exclusions.txt	LTP207	ltpFR	12	10	0	SCOTCH	1251	n/a	n/a	n/a	n/a	0	0	0	0.422607421875	0.5869140625	0	lower	amplitud.ttf
2508.814	n/a	SLOW_MSG	1254407	n/a	LTP207	ltpFR	12	10	n/a	n/a	n/a	n/a	n/a	n/a	n/a	0	0	0	n/a	n/a	n/a	n/a	n/a
2511.184	n/a	WORD	1255592	wordpools/wasnorm_wordpool_less_exclusions.txt	LTP207	ltpFR	12	10	0	CHAMPAGNE	278	n/a	n/a	1	n/a	0	0	0	0.422607421875	0.5869140625	0	lower	amplitud.ttf
2515.106	n/a	WORD	1257553	wordpools/wasnorm_wordpool_less_exclusions.txt	LTP207	ltpFR	12	10	1	STOVE	1388	n/a	n/a	0	n/a	0	0	0	0.57763671875	0.412841796875	1	upper	zerothre.ttf
2519.138	n/a	WORD	1259569	wordpools/wasnorm_wordpool_less_exclusions.txt	LTP207	ltpFR	12	10	1	LILY	821	n/a	n/a	0	n/a	0	0	0	0.57763671875	0.412841796875	1	upper	zerothre.ttf
2523.296	n/a	WORD	1261648	wordpools/wasnorm_wordpool_less_exclusions.txt	LTP207	ltpFR	12	10	1	CREW	406	n/a	n/a	1	n/a	0	0	0	0.57763671875	0.412841796875	1	upper	zerothre.ttf
2527.396	n/a	WORD	1263698	wordpools/wasnorm_wordpool_less_exclusions.txt	LTP207	ltpFR	12	10	1	FISH	571	n/a	n/a	1	n/a	0	0	0	0.57763671875	0.412841796875	1	upper	zerothre.ttf
2531.552	n/a	WORD	1265776	wordpools/wasnorm_wordpool_less_exclusions.txt	LTP207	ltpFR	12	10	0	GARLIC	624	n/a	n/a	2	n/a	0	0	0	0.422607421875	0.5869140625	0	lower	amplitud.ttf
2533.174	n/a	KEY_MSG	1266587	n/a	LTP207	ltpFR	12	10	n/a	n/a	n/a	n/a	n/a	n/a	n/a	0	0	0	n/a	n/a	n/a	n/a	n/a
2535.678	n/a	WORD	1267839	wordpools/wasnorm_wordpool_less_exclusions.txt	LTP207	ltpFR	12	10	0	CHARCOAL	281	n/a	n/a	0	n/a	0	0	0	0.422607421875	0.5869140625	0	lower	amplitud.ttf
2539.75	n/a	WORD	1269875	wordpools/wasnorm_wordpool_less_exclusions.txt	LTP207	ltpFR	12	10	0	CARRIAGE	248	n/a	n/a	1	n/a	0	0	0	0.422607421875	0.5869140625	0	lower	amplitud.ttf
2542.762	n/a	START	1271381	n/a	LTP207	ltpFR	12	n/a	n/a	n/a	n/a	n/a	n/a	n/a	n/a	n/a	n/a	n/a	n/a	n/a	n/a	n/a	n/a
2543.632	n/a	PROB	1271816	n/a	LTP207	ltpFR	12	n/a	n/a	n/a	n/a	n/a	n/a	n/a	11	4	1	6	n/a	n/a	n/a	n/a	n/a
2544.912	n/a	PROB	1272456	n/a	LTP207	ltpFR	12	n/a	n/a	n/a	n/a	n/a	n/a	n/a	5	2	1	2	n/a	n/a	n/a	n/a	n/a
2546.066	n/a	PROB	1273033	n/a	LTP207	ltpFR	12	n/a	n/a	n/a	n/a	n/a	n/a	n/a	12	5	6	1	n/a	n/a	n/a	n/a	n/a
2547.246	n/a	PROB	1273623	n/a	LTP207	ltpFR	12	n/a	n/a	n/a	n/a	n/a	n/a	n/a	18	8	9	1	n/a	n/a	n/a	n/a	n/a
2550.762	n/a	STOP	1275381	n/a	LTP207	ltpFR	12	n/a	n/a	n/a	n/a	n/a	n/a	n/a	n/a	n/a	n/a	n/a	n/a	n/a	n/a	n/a	n/a
2552.616	n/a	REC_START	1276308	n/a	LTP207	ltpFR	12	10	n/a	n/a	n/a	n/a	n/a	n/a	n/a	0	0	0	n/a	n/a	n/a	n/a	n/a
2554.966	n/a	REC_WORD	1277483	wordpools/wasnorm_wordpool_less_exclusions.txt	LTP207	ltpFR	12	10	0	CARRIAGE	248	n/a	n/a	1	n/a	0	0	0	n/a	n/a	n/a	n/a	n/a
2556.33	n/a	REC_WORD_VV	1278165	wordpools/wasnorm_wordpool_less_exclusions.txt	LTP207	ltpFR	12	10	n/a	<>	-1	n/a	n/a	n/a	n/a	0	0	0	n/a	n/a	n/a	n/a	n/a
2558.488	n/a	REC_WORD	1279244	wordpools/wasnorm_wordpool_less_exclusions.txt	LTP207	ltpFR	12	10	1	BUTTON	207	n/a	n/a	0	n/a	0	0	0	n/a	n/a	n/a	n/a	n/a
2559.828	n/a	REC_WORD	1279914	wordpools/wasnorm_wordpool_less_exclusions.txt	LTP207	ltpFR	12	10	0	FINGER	567	n/a	n/a	0	n/a	0	0	0	n/a	n/a	n/a	n/a	n/a
2561.394	n/a	REC_WORD	1280697	wordpools/wasnorm_wordpool_less_exclusions.txt	LTP207	ltpFR	12	10	0	FIST	572	n/a	n/a	0	n/a	0	0	0	n/a	n/a	n/a	n/a	n/a
2563.586	n/a	REC_WORD	1281793	wordpools/wasnorm_wordpool_less_exclusions.txt	LTP207	ltpFR	12	10	0	NECK	939	n/a	n/a	0	n/a	0	0	0	n/a	n/a	n/a	n/a	n/a
2566.444	n/a	REC_WORD	1283222	wordpools/wasnorm_wordpool_less_exclusions.txt	LTP207	ltpFR	12	10	1	MULE	931	n/a	n/a	1	n/a	0	0	0	n/a	n/a	n/a	n/a	n/a
2628.264	n/a	REST_REWET	1314132	n/a	LTP207	ltpFR	12	10	n/a	n/a	n/a	n/a	n/a	n/a	n/a	0	0	0	n/a	n/a	n/a	n/a	n/a
2936.082	n/a	WORD	1468041	wordpools/wasnorm_wordpool_less_exclusions.txt	LTP207	ltpFR	12	11	0	BRUSH	182	n/a	n/a	2	n/a	0	0	0	0.422607421875	0.5869140625	0	lower	amplitud.ttf
2937.018	n/a	KEY_MSG	1468509	n/a	LTP207	ltpFR	12	11	n/a	n/a	n/a	n/a	n/a	n/a	n/a	0	0	0	n/a	n/a	n/a	n/a	n/a
2939.996	n/a	WORD	1469998	wordpools/wasnorm_wordpool_less_exclusions.txt	LTP207	ltpFR	12	11	0	PAINT	1003	n/a	n/a	0	n/a	0	0	0	0.422607421875	0.5869140625	0	lower	amplitud.ttf
2944.162	n/a	WORD	1472081	wordpools/wasnorm_wordpool_less_exclusions.txt	LTP207	ltpFR	12	11	0	WAGON	1578	n/a	n/a	1	n/a	0	0	0	0.422607421875	0.5869140625	0	lower	amplitud.ttf
2948.238	n/a	WORD	1474119	wordpools/wasnorm_wordpool_less_exclusions.txt	LTP207	ltpFR	12	11	0	BUNNY	198	n/a	n/a	0	n/a	0	0	0	0.422607421875	0.5869140625	0	lower	amplitud.ttf
2952.228	n/a	WORD	1476114	wordpools/wasnorm_wordpool_less_exclusions.txt	LTP207	ltpFR	12	11	0	DAM	436	n/a	n/a	1	n/a	0	0	0	0.422607421875	0.5869140625	0	lower	amplitud.ttf
2956.276	n/a	WORD	1478138	wordpools/wasnorm_wordpool_less_exclusions.txt	LTP207	ltpFR	12	11	0	SPATULA	1348	n/a	n/a	0	n/a	0	0	0	0.422607421875	0.5869140625	0	lower	amplitud.ttf
2960.408	n/a	WORD	1480204	wordpools/wasnorm_wordpool_less_exclusions.txt	LTP207	ltpFR	12	11	0	SCENERY	1247	n/a	n/a	1	n/a	0	0	0	0.422607421875	0.5869140625	0	lower	amplitud.ttf
2964.288	n/a	WORD	1482144	wordpools/wasnorm_wordpool_less_exclusions.txt	LTP207	ltpFR	12	11	0	TABLE	1426	n/a	n/a	1	n/a	0	0	0	0.422607421875	0.5869140625	0	lower	amplitud.ttf
2968.438	n/a	WORD	1484219	wordpools/wasnorm_wordpool_less_exclusions.txt	LTP207	ltpFR	12	11	0	STONE	1385	n/a	n/a	1	n/a	0	0	0	0.422607421875	0.5869140625	0	lower	amplitud.ttf
2972.614	n/a	WORD	1486307	wordpools/wasnorm_wordpool_less_exclusions.txt	LTP207	ltpFR	12	11	0	BROOK	177	n/a	n/a	1	n/a	0	0	0	0.422607421875	0.5869140625	0	lower	amplitud.ttf
2976.73	n/a	WORD	1488365	wordpools/wasnorm_wordpool_less_exclusions.txt	LTP207	ltpFR	12	11	0	RUG	1215	n/a	n/a	1	n/a	0	0	0	0.422607421875	0.5869140625	0	lower	amplitud.ttf
2980.946	n/a	WORD	1490473	wordpools/wasnorm_wordpool_less_exclusions.txt	LTP207	ltpFR	12	11	0	FLOOR	581	n/a	n/a	1	n/a	0	0	0	0.422607421875	0.5869140625	0	lower	amplitud.ttf
2984.944	n/a	WORD	1492472	wordpools/wasnorm_wordpool_less_exclusions.txt	LTP207	ltpFR	12	11	0	RAILROAD	1162	n/a	n/a	1	n/a	0	0	0	0.422607421875	0.5869140625	0	lower	amplitud.ttf
2988.9	n/a	WORD	1494450	wordpools/wasnorm_wordpool_less_exclusions.txt	LTP207	ltpFR	12	11	0	LUNCH	849	n/a	n/a	1	n/a	0	0	0	0.422607421875	0.5869140625	0	lower	amplitud.ttf
2992.79	n/a	WORD	1496395	wordpools/wasnorm_wordpool_less_exclusions.txt	LTP207	ltpFR	12	11	0	VALVE	1546	n/a	n/a	0	n/a	0	0	0	0.422607421875	0.5869140625	0	lower	amplitud.ttf
2996.722	n/a	WORD	1498361	wordpools/wasnorm_wordpool_less_exclusions.txt	LTP207	ltpFR	12	11	0	WATERFALL	1595	n/a	n/a	1	n/a	0	0	0	0.422607421875	0.5869140625	0	lower	amplitud.ttf
3002.436	n/a	REC_START	1501218	n/a	LTP207	ltpFR	12	11	n/a	n/a	n/a	n/a	n/a	n/a	n/a	0	0	0	n/a	n/a	n/a	n/a	n/a
3003.802	n/a	REC_WORD	1501901	wordpools/wasnorm_wordpool_less_exclusions.txt	LTP207	ltpFR	12	11	0	WATERFALL	1595	n/a	n/a	1	n/a	0	0	0	n/a	n/a	n/a	n/a	n/a
3005.424	n/a	REC_WORD	1502712	wordpools/wasnorm_wordpool_less_exclusions.txt	LTP207	ltpFR	12	11	0	DAM	436	n/a	n/a	1	n/a	0	0	0	n/a	n/a	n/a	n/a	n/a
3007.68	n/a	REC_WORD	1503840	wordpools/wasnorm_wordpool_less_exclusions.txt	LTP207	ltpFR	12	11	0	BROOK	177	n/a	n/a	1	n/a	0	0	0	n/a	n/a	n/a	n/a	n/a
3010.764	n/a	REC_WORD	1505382	wordpools/wasnorm_wordpool_less_exclusions.txt	LTP207	ltpFR	12	11	0	STONE	1385	n/a	n/a	1	n/a	0	0	0	n/a	n/a	n/a	n/a	n/a
3051.504	n/a	REC_WORD	1525752	wordpools/wasnorm_wordpool_less_exclusions.txt	LTP207	ltpFR	12	11	n/a	CREEK	404	n/a	n/a	n/a	n/a	0	0	0	n/a	n/a	n/a	n/a	n/a
3059.414	n/a	REC_WORD	1529707	wordpools/wasnorm_wordpool_less_exclusions.txt	LTP207	ltpFR	12	11	0	PAINT	1003	n/a	n/a	0	n/a	0	0	0	n/a	n/a	n/a	n/a	n/a
3062.966	n/a	REC_WORD	1531483	wordpools/wasnorm_wordpool_less_exclusions.txt	LTP207	ltpFR	12	11	0	BUNNY	198	n/a	n/a	0	n/a	0	0	0	n/a	n/a	n/a	n/a	n/a
3089.602	n/a	START	1544801	n/a	LTP207	ltpFR	12	n/a	n/a	n/a	n/a	n/a	n/a	n/a	n/a	n/a	n/a	n/a	n/a	n/a	n/a	n/a	n/a
3091.116	n/a	PROB	1545558	n/a	LTP207	ltpFR	12	n/a	n/a	n/a	n/a	n/a	n/a	n/a	18	8	1	9	n/a	n/a	n/a	n/a	n/a
3092.546	n/a	PROB	1546273	n/a	LTP207	ltpFR	12	n/a	n/a	n/a	n/a	n/a	n/a	n/a	21	6	7	8	n/a	n/a	n/a	n/a	n/a
3095.74	n/a	PROB	1547870	n/a	LTP207	ltpFR	12	n/a	n/a	n/a	n/a	n/a	n/a	n/a	13	1	9	3	n/a	n/a	n/a	n/a	n/a
3097.122	n/a	PROB	1548561	n/a	LTP207	ltpFR	12	n/a	n/a	n/a	n/a	n/a	n/a	n/a	17	4	7	6	n/a	n/a	n/a	n/a	n/a
3099.154	n/a	PROB	1549577	n/a	LTP207	ltpFR	12	n/a	n/a	n/a	n/a	n/a	n/a	n/a	18	4	8	6	n/a	n/a	n/a	n/a	n/a
3101.306	n/a	PROB	1550653	n/a	LTP207	ltpFR	12	n/a	n/a	n/a	n/a	n/a	n/a	n/a	9	4	1	4	n/a	n/a	n/a	n/a	n/a
3102.55	n/a	PROB	1551275	n/a	LTP207	ltpFR	12	n/a	n/a	n/a	n/a	n/a	n/a	n/a	21	6	9	6	n/a	n/a	n/a	n/a	n/a
3104.23	n/a	STOP	1552115	n/a	LTP207	ltpFR	12	n/a	n/a	n/a	n/a	n/a	n/a	n/a	n/a	n/a	n/a	n/a	n/a	n/a	n/a	n/a	n/a
3106.716	n/a	WORD	1553358	wordpools/wasnorm_wordpool_less_exclusions.txt	LTP207	ltpFR	12	12	1	LION	827	n/a	n/a	1	n/a	0	0	0	0.57763671875	0.412841796875	1	upper	zerothre.ttf
3109.728	n/a	START	1554864	n/a	LTP207	ltpFR	12	n/a	n/a	n/a	n/a	n/a	n/a	n/a	n/a	n/a	n/a	n/a	n/a	n/a	n/a	n/a	n/a
3110.858	n/a	PROB	1555429	n/a	LTP207	ltpFR	12	n/a	n/a	n/a	n/a	n/a	n/a	n/a	19	7	4	8	n/a	n/a	n/a	n/a	n/a
3112.564	n/a	PROB	1556282	n/a	LTP207	ltpFR	12	n/a	n/a	n/a	n/a	n/a	n/a	n/a	14	5	7	2	n/a	n/a	n/a	n/a	n/a
3114.238	n/a	PROB	1557119	n/a	LTP207	ltpFR	12	n/a	n/a	n/a	n/a	n/a	n/a	n/a	19	7	6	6	n/a	n/a	n/a	n/a	n/a
3115.76	n/a	PROB	1557880	n/a	LTP207	ltpFR	12	n/a	n/a	n/a	n/a	n/a	n/a	n/a	11	1	5	5	n/a	n/a	n/a	n/a	n/a
3116.922	n/a	PROB	1558461	n/a	LTP207	ltpFR	12	n/a	n/a	n/a	n/a	n/a	n/a	n/a	9	2	6	1	n/a	n/a	n/a	n/a	n/a
3118.562	n/a	PROB	1559281	n/a	LTP207	ltpFR	12	n/a	n/a	n/a	n/a	n/a	n/a	n/a	15	3	5	7	n/a	n/a	n/a	n/a	n/a
3120.328	n/a	PROB	1560164	n/a	LTP207	ltpFR	12	n/a	n/a	n/a	n/a	n/a	n/a	n/a	17	8	7	2	n/a	n/a	n/a	n/a	n/a
3122.018	n/a	PROB	1561009	n/a	LTP207	ltpFR	12	n/a	n/a	n/a	n/a	n/a	n/a	n/a	18	7	2	9	n/a	n/a	n/a	n/a	n/a
3123.138	n/a	PROB	1561569	n/a	LTP207	ltpFR	12	n/a	n/a	n/a	n/a	n/a	n/a	n/a	115	6	8	1	n/a	n/a	n/a	n/a	n/a
3124.768	n/a	STOP	1562384	n/a	LTP207	ltpFR	12	n/a	n/a	n/a	n/a	n/a	n/a	n/a	n/a	n/a	n/a	n/a	n/a	n/a	n/a	n/a	n/a
3126.702	n/a	WORD	1563351	wordpools/wasnorm_wordpool_less_exclusions.txt	LTP207	ltpFR	12	12	1	TIGER	1467	n/a	n/a	1	n/a	0	0	0	0.57763671875	0.412841796875	1	upper	zerothre.ttf
3129.714	n/a	START	1564857	n/a	LTP207	ltpFR	12	n/a	n/a	n/a	n/a	n/a	n/a	n/a	n/a	n/a	n/a	n/a	n/a	n/a	n/a	n/a	n/a
3130.742	n/a	PROB	1565371	n/a	LTP207	ltpFR	12	n/a	n/a	n/a	n/a	n/a	n/a	n/a	18	6	4	8	n/a	n/a	n/a	n/a	n/a
3131.972	n/a	PROB	1565986	n/a	LTP207	ltpFR	12	n/a	n/a	n/a	n/a	n/a	n/a	n/a	15	6	5	4	n/a	n/a	n/a	n/a	n/a
3133.544	n/a	PROB	1566772	n/a	LTP207	ltpFR	12	n/a	n/a	n/a	n/a	n/a	n/a	n/a	11	7	3	1	n/a	n/a	n/a	n/a	n/a
3134.724	n/a	PROB	1567362	n/a	LTP207	ltpFR	12	n/a	n/a	n/a	n/a	n/a	n/a	n/a	20	3	9	8	n/a	n/a	n/a	n/a	n/a
3136.63	n/a	PROB	1568315	n/a	LTP207	ltpFR	12	n/a	n/a	n/a	n/a	n/a	n/a	n/a	22	7	6	9	n/a	n/a	n/a	n/a	n/a
3138.438	n/a	PROB	1569219	n/a	LTP207	ltpFR	12	n/a	n/a	n/a	n/a	n/a	n/a	n/a	10	6	3	1	n/a	n/a	n/a	n/a	n/a
3139.886	n/a	PROB	1569943	n/a	LTP207	ltpFR	12	n/a	n/a	n/a	n/a	n/a	n/a	n/a	20	9	7	4	n/a	n/a	n/a	n/a	n/a
3141.542	n/a	PROB	1570771	n/a	LTP207	ltpFR	12	n/a	n/a	n/a	n/a	n/a	n/a	n/a	10	1	1	8	n/a	n/a	n/a	n/a	n/a
3143.006	n/a	PROB	1571503	n/a	LTP207	ltpFR	12	n/a	n/a	n/a	n/a	n/a	n/a	n/a	21	6	8	7	n/a	n/a	n/a	n/a	n/a
3145.176	n/a	STOP	1572588	n/a	LTP207	ltpFR	12	n/a	n/a	n/a	n/a	n/a	n/a	n/a	n/a	n/a	n/a	n/a	n/a	n/a	n/a	n/a	n/a
3146.728	n/a	WORD	1573364	wordpools/wasnorm_wordpool_less_exclusions.txt	LTP207	ltpFR	12	12	1	RESTAURANT	1187	n/a	n/a	0	n/a	0	0	0	0.57763671875	0.412841796875	1	upper	zerothre.ttf
3149.74	n/a	START	1574870	n/a	LTP207	ltpFR	12	n/a	n/a	n/a	n/a	n/a	n/a	n/a	n/a	n/a	n/a	n/a	n/a	n/a	n/a	n/a	n/a
3150.878	n/a	PROB	1575439	n/a	LTP207	ltpFR	12	n/a	n/a	n/a	n/a	n/a	n/a	n/a	14	5	6	3	n/a	n/a	n/a	n/a	n/a
3154.994	n/a	PROB	1577497	n/a	LTP207	ltpFR	12	n/a	n/a	n/a	n/a	n/a	n/a	n/a	4	2	1	1	n/a	n/a	n/a	n/a	n/a
3156.338	n/a	PROB	1578169	n/a	LTP207	ltpFR	12	n/a	n/a	n/a	n/a	n/a	n/a	n/a	16	1	7	8	n/a	n/a	n/a	n/a	n/a
3157.738	n/a	PROB	1578869	n/a	LTP207	ltpFR	12	n/a	n/a	n/a	n/a	n/a	n/a	n/a	20	7	6	7	n/a	n/a	n/a	n/a	n/a
3159.578	n/a	PROB	1579789	n/a	LTP207	ltpFR	12	n/a	n/a	n/a	n/a	n/a	n/a	n/a	11	6	2	3	n/a	n/a	n/a	n/a	n/a
3161.1	n/a	PROB	1580550	n/a	LTP207	ltpFR	12	n/a	n/a	n/a	n/a	n/a	n/a	n/a	11	1	4	6	n/a	n/a	n/a	n/a	n/a
3162.356	n/a	PROB	1581178	n/a	LTP207	ltpFR	12	n/a	n/a	n/a	n/a	n/a	n/a	n/a	16	2	6	8	n/a	n/a	n/a	n/a	n/a
3164.23	n/a	PROB	1582115	n/a	LTP207	ltpFR	12	n/a	n/a	n/a	n/a	n/a	n/a	n/a	14	9	2	3	n/a	n/a	n/a	n/a	n/a
3165.514	n/a	STOP	1582757	n/a	LTP207	ltpFR	12	n/a	n/a	n/a	n/a	n/a	n/a	n/a	n/a	n/a	n/a	n/a	n/a	n/a	n/a	n/a	n/a
3166.672	n/a	WORD	1583336	wordpools/wasnorm_wordpool_less_exclusions.txt	LTP207	ltpFR	12	12	0	HOME	712	n/a	n/a	1	n/a	0	0	0	0.422607421875	0.5869140625	0	lower	amplitud.ttf
3169.684	n/a	START	1584842	n/a	LTP207	ltpFR	12	n/a	n/a	n/a	n/a	n/a	n/a	n/a	n/a	n/a	n/a	n/a	n/a	n/a	n/a	n/a	n/a
3170.66	n/a	PROB	1585330	n/a	LTP207	ltpFR	12	n/a	n/a	n/a	n/a	n/a	n/a	n/a	13	5	6	2	n/a	n/a	n/a	n/a	n/a
3172.762	n/a	PROB	1586381	n/a	LTP207	ltpFR	12	n/a	n/a	n/a	n/a	n/a	n/a	n/a	7	3	3	1	n/a	n/a	n/a	n/a	n/a
3174.184	n/a	PROB	1587092	n/a	LTP207	ltpFR	12	n/a	n/a	n/a	n/a	n/a	n/a	n/a	17	6	7	4	n/a	n/a	n/a	n/a	n/a
3175.864	n/a	PROB	1587932	n/a	LTP207	ltpFR	12	n/a	n/a	n/a	n/a	n/a	n/a	n/a	18	7	9	2	n/a	n/a	n/a	n/a	n/a
3177.622	n/a	PROB	1588811	n/a	LTP207	ltpFR	12	n/a	n/a	n/a	n/a	n/a	n/a	n/a	15	8	1	6	n/a	n/a	n/a	n/a	n/a
3179.01	n/a	PROB	1589505	n/a	LTP207	ltpFR	12	n/a	n/a	n/a	n/a	n/a	n/a	n/a	20	4	9	7	n/a	n/a	n/a	n/a	n/a
3180.7	n/a	PROB	1590350	n/a	LTP207	ltpFR	12	n/a	n/a	n/a	n/a	n/a	n/a	n/a	16	8	4	4	n/a	n/a	n/a	n/a	n/a
3182.422	n/a	PROB	1591211	n/a	LTP207	ltpFR	12	n/a	n/a	n/a	n/a	n/a	n/a	n/a	5	1	1	3	n/a	n/a	n/a	n/a	n/a
3183.52	n/a	PROB	1591760	n/a	LTP207	ltpFR	12	n/a	n/a	n/a	n/a	n/a	n/a	n/a	13	9	2	2	n/a	n/a	n/a	n/a	n/a
3184.65	n/a	STOP	1592325	n/a	LTP207	ltpFR	12	n/a	n/a	n/a	n/a	n/a	n/a	n/a	n/a	n/a	n/a	n/a	n/a	n/a	n/a	n/a	n/a
3186.582	n/a	WORD	1593291	wordpools/wasnorm_wordpool_less_exclusions.txt	LTP207	ltpFR	12	12	0	ESSAY	540	n/a	n/a	1	n/a	0	0	0	0.422607421875	0.5869140625	0	lower	amplitud.ttf
3189.594	n/a	START	1594797	n/a	LTP207	ltpFR	12	n/a	n/a	n/a	n/a	n/a	n/a	n/a	n/a	n/a	n/a	n/a	n/a	n/a	n/a	n/a	n/a
3190.536	n/a	PROB	1595268	n/a	LTP207	ltpFR	12	n/a	n/a	n/a	n/a	n/a	n/a	n/a	14	4	1	9	n/a	n/a	n/a	n/a	n/a
3191.958	n/a	PROB	1595979	n/a	LTP207	ltpFR	12	n/a	n/a	n/a	n/a	n/a	n/a	n/a	17	7	2	8	n/a	n/a	n/a	n/a	n/a
3193.33	n/a	PROB	1596665	n/a	LTP207	ltpFR	12	n/a	n/a	n/a	n/a	n/a	n/a	n/a	16	1	9	6	n/a	n/a	n/a	n/a	n/a
3194.552	n/a	PROB	1597276	n/a	LTP207	ltpFR	12	n/a	n/a	n/a	n/a	n/a	n/a	n/a	18	8	4	6	n/a	n/a	n/a	n/a	n/a
3195.89	n/a	PROB	1597945	n/a	LTP207	ltpFR	12	n/a	n/a	n/a	n/a	n/a	n/a	n/a	20	7	5	8	n/a	n/a	n/a	n/a	n/a
3197.514	n/a	PROB	1598757	n/a	LTP207	ltpFR	12	n/a	n/a	n/a	n/a	n/a	n/a	n/a	20	9	6	5	n/a	n/a	n/a	n/a	n/a
3199.212	n/a	PROB	1599606	n/a	LTP207	ltpFR	12	n/a	n/a	n/a	n/a	n/a	n/a	n/a	27	9	9	9	n/a	n/a	n/a	n/a	n/a
3200.81	n/a	PROB	1600405	n/a	LTP207	ltpFR	12	n/a	n/a	n/a	n/a	n/a	n/a	n/a	8	1	2	5	n/a	n/a	n/a	n/a	n/a
3201.998	n/a	PROB	1600999	n/a	LTP207	ltpFR	12	n/a	n/a	n/a	n/a	n/a	n/a	n/a	17	8	2	7	n/a	n/a	n/a	n/a	n/a
3205.594	n/a	STOP	1602797	n/a	LTP207	ltpFR	12	n/a	n/a	n/a	n/a	n/a	n/a	n/a	n/a	n/a	n/a	n/a	n/a	n/a	n/a	n/a	n/a
3206.54	n/a	WORD	1603270	wordpools/wasnorm_wordpool_less_exclusions.txt	LTP207	ltpFR	12	12	1	WORKER	1621	n/a	n/a	1	n/a	0	0	0	0.57763671875	0.412841796875	1	upper	zerothre.ttf
3209.552	n/a	START	1604776	n/a	LTP207	ltpFR	12	n/a	n/a	n/a	n/a	n/a	n/a	n/a	n/a	n/a	n/a	n/a	n/a	n/a	n/a	n/a	n/a
3210.512	n/a	PROB	1605256	n/a	LTP207	ltpFR	12	n/a	n/a	n/a	n/a	n/a	n/a	n/a	14	8	1	5	n/a	n/a	n/a	n/a	n/a
3212.078	n/a	PROB	1606039	n/a	LTP207	ltpFR	12	n/a	n/a	n/a	n/a	n/a	n/a	n/a	19	7	9	3	n/a	n/a	n/a	n/a	n/a
3213.808	n/a	PROB	1606904	n/a	LTP207	ltpFR	12	n/a	n/a	n/a	n/a	n/a	n/a	n/a	16	2	7	7	n/a	n/a	n/a	n/a	n/a
3215.6	n/a	PROB	1607800	n/a	LTP207	ltpFR	12	n/a	n/a	n/a	n/a	n/a	n/a	n/a	22	7	8	7	n/a	n/a	n/a	n/a	n/a
3217.55	n/a	PROB	1608775	n/a	LTP207	ltpFR	12	n/a	n/a	n/a	n/a	n/a	n/a	n/a	17	2	7	8	n/a	n/a	n/a	n/a	n/a
3219.038	n/a	PROB	1609519	n/a	LTP207	ltpFR	12	n/a	n/a	n/a	n/a	n/a	n/a	n/a	13	6	4	3	n/a	n/a	n/a	n/a	n/a
3220.728	n/a	PROB	1610364	n/a	LTP207	ltpFR	12	n/a	n/a	n/a	n/a	n/a	n/a	n/a	1	4	1	6	n/a	n/a	n/a	n/a	n/a
