onset	duration	trial_type	sample	stim_file	subject	experiment	session	trial	item_name	item_num	list	answer	test_x	test_y	test_z
207.439453125	n/a	SESS_START	424836	n/a	LTP386	ltpFR2	6	n/a	n/a	n/a	n/a	n/a	0	0	0
219.04248046875	n/a	START	448599	n/a	LTP386	ltpFR2	6	n/a	n/a	n/a	-1	n/a	n/a	n/a	n/a
219.0732421875	n/a	PROB	448662	n/a	LTP386	ltpFR2	6	n/a	n/a	n/a	-1	11	4	5	2
221.0224609375	n/a	PROB	452654	n/a	LTP386	ltpFR2	6	n/a	n/a	n/a	-1	15	1	5	9
222.34033203125	n/a	PROB	455353	n/a	LTP386	ltpFR2	6	n/a	n/a	n/a	-1	7	1	2	4
223.63916015625	n/a	PROB	458013	n/a	LTP386	ltpFR2	6	n/a	n/a	n/a	-1	24	7	9	9
226.5888671875	n/a	PROB	464054	n/a	LTP386	ltpFR2	6	n/a	n/a	n/a	-1	14	7	1	6
228.43798828125	n/a	PROB	467841	n/a	LTP386	ltpFR2	6	n/a	n/a	n/a	-1	11	1	2	8
229.9248046875	n/a	STOP	470886	n/a	LTP386	ltpFR2	6	n/a	n/a	n/a	-1	n/a	n/a	n/a	n/a
262.73681640625	n/a	WORD	538085	wordpools/wasnorm_wordpool_576.txt	LTP386	ltpFR2	6	1	FRAGRANCE	599	n/a	n/a	0	0	0
265.18798828125	n/a	WORD	543105	wordpools/wasnorm_wordpool_576.txt	LTP386	ltpFR2	6	1	LACE	792	n/a	n/a	0	0	0
268.00390625	n/a	WORD	548872	wordpools/wasnorm_wordpool_576.txt	LTP386	ltpFR2	6	1	FOREST	593	n/a	n/a	0	0	0
270.6025390625	n/a	WORD	554194	wordpools/wasnorm_wordpool_576.txt	LTP386	ltpFR2	6	1	LUMBER	848	n/a	n/a	0	0	0
273.25341796875	n/a	WORD	559623	wordpools/wasnorm_wordpool_576.txt	LTP386	ltpFR2	6	1	PLAID	1080	n/a	n/a	0	0	0
275.95361328125	n/a	WORD	565153	wordpools/wasnorm_wordpool_576.txt	LTP386	ltpFR2	6	1	OUTLAW	989	n/a	n/a	0	0	0
278.38671875	n/a	WORD	570136	wordpools/wasnorm_wordpool_576.txt	LTP386	ltpFR2	6	1	AWARD	63	n/a	n/a	0	0	0
281.103515625	n/a	WORD	575700	wordpools/wasnorm_wordpool_576.txt	LTP386	ltpFR2	6	1	ACTOR	5	n/a	n/a	0	0	0
283.5693359375	n/a	WORD	580750	wordpools/wasnorm_wordpool_576.txt	LTP386	ltpFR2	6	1	MATCH	878	n/a	n/a	0	0	0
286.2373046875	n/a	WORD	586214	wordpools/wasnorm_wordpool_576.txt	LTP386	ltpFR2	6	1	CONVICT	371	n/a	n/a	0	0	0
289.01904296875	n/a	WORD	591911	wordpools/wasnorm_wordpool_576.txt	LTP386	ltpFR2	6	1	CRATER	400	n/a	n/a	0	0	0
291.65185546875	n/a	WORD	597303	wordpools/wasnorm_wordpool_576.txt	LTP386	ltpFR2	6	1	PREACHER	1119	n/a	n/a	0	0	0
294.22021484375	n/a	WORD	602563	wordpools/wasnorm_wordpool_576.txt	LTP386	ltpFR2	6	1	PRINCESS	1125	n/a	n/a	0	0	0
296.65185546875	n/a	WORD	607543	wordpools/wasnorm_wordpool_576.txt	LTP386	ltpFR2	6	1	BEAVER	109	n/a	n/a	0	0	0
299.40185546875	n/a	WORD	613175	wordpools/wasnorm_wordpool_576.txt	LTP386	ltpFR2	6	1	PERFUME	1049	n/a	n/a	0	0	0
301.86865234375	n/a	WORD	618227	wordpools/wasnorm_wordpool_576.txt	LTP386	ltpFR2	6	1	LADDER	793	n/a	n/a	0	0	0
304.6689453125	n/a	WORD	623962	wordpools/wasnorm_wordpool_576.txt	LTP386	ltpFR2	6	1	BRACES	164	n/a	n/a	0	0	0
307.11962890625	n/a	WORD	628981	wordpools/wasnorm_wordpool_576.txt	LTP386	ltpFR2	6	1	PLAZA	1088	n/a	n/a	0	0	0
309.6015625	n/a	WORD	634064	wordpools/wasnorm_wordpool_576.txt	LTP386	ltpFR2	6	1	MARKET	871	n/a	n/a	0	0	0
312.2353515625	n/a	WORD	639458	wordpools/wasnorm_wordpool_576.txt	LTP386	ltpFR2	6	1	STOVE	1388	n/a	n/a	0	0	0
315.00146484375	n/a	WORD	645123	wordpools/wasnorm_wordpool_576.txt	LTP386	ltpFR2	6	1	SERVER	1272	n/a	n/a	0	0	0
317.6513671875	n/a	WORD	650550	wordpools/wasnorm_wordpool_576.txt	LTP386	ltpFR2	6	1	FRIAR	605	n/a	n/a	0	0	0
320.26806640625	n/a	WORD	655909	wordpools/wasnorm_wordpool_576.txt	LTP386	ltpFR2	6	1	TOASTER	1472	n/a	n/a	0	0	0
322.85107421875	n/a	WORD	661199	wordpools/wasnorm_wordpool_576.txt	LTP386	ltpFR2	6	1	JELLY	755	n/a	n/a	0	0	0
324.46826171875	n/a	START	664511	n/a	LTP386	ltpFR2	6	n/a	n/a	n/a	1	n/a	n/a	n/a	n/a
325.65185546875	n/a	DISTRACTOR	666935	n/a	LTP386	ltpFR2	6	1	n/a	n/a	n/a	n/a	0	0	0
325.6669921875	n/a	PROB	666966	n/a	LTP386	ltpFR2	6	n/a	n/a	n/a	1	12	7	3	2
327.40087890625	n/a	PROB	670517	n/a	LTP386	ltpFR2	6	n/a	n/a	n/a	1	11	2	8	1
328.9169921875	n/a	PROB	673622	n/a	LTP386	ltpFR2	6	n/a	n/a	n/a	1	14	6	4	4
330.3017578125	n/a	PROB	676458	n/a	LTP386	ltpFR2	6	n/a	n/a	n/a	1	16	7	6	3
332.11767578125	n/a	PROB	680177	n/a	LTP386	ltpFR2	6	n/a	n/a	n/a	1	16	7	3	6
333.11767578125	n/a	PROB	682225	n/a	LTP386	ltpFR2	6	n/a	n/a	n/a	1	16	1	7	8
335.716796875	n/a	PROB	687548	n/a	LTP386	ltpFR2	6	n/a	n/a	n/a	1	12	4	3	5
337.36669921875	n/a	PROB	690927	n/a	LTP386	ltpFR2	6	n/a	n/a	n/a	1	18	7	3	8
339.16748046875	n/a	PROB	694615	n/a	LTP386	ltpFR2	6	n/a	n/a	n/a	1	10	4	1	5
340.5498046875	n/a	PROB	697446	n/a	LTP386	ltpFR2	6	n/a	n/a	n/a	1	16	9	2	5
342.03466796875	n/a	PROB	700487	n/a	LTP386	ltpFR2	6	n/a	n/a	n/a	1	9	2	2	5
343.33447265625	n/a	PROB	703149	n/a	LTP386	ltpFR2	6	n/a	n/a	n/a	1	11	5	3	3
344.49951171875	n/a	PROB	705535	n/a	LTP386	ltpFR2	6	n/a	n/a	n/a	1	20	5	8	7
346.08447265625	n/a	PROB	708781	n/a	LTP386	ltpFR2	6	n/a	n/a	n/a	1	14	4	9	1
347.24658203125	n/a	STOP	711161	n/a	LTP386	ltpFR2	6	n/a	n/a	n/a	1	n/a	n/a	n/a	n/a
350.26708984375	n/a	REC_START	717347	n/a	LTP386	ltpFR2	6	1	n/a	n/a	n/a	n/a	0	0	0
351.3984375	n/a	REC_WORD	719664	wordpools/wasnorm_wordpool_576.txt	LTP386	ltpFR2	6	1	LUMBER	848	n/a	n/a	0	0	0
352.68603515625	n/a	REC_WORD	722301	wordpools/wasnorm_wordpool_576.txt	LTP386	ltpFR2	6	1	FOREST	593	n/a	n/a	0	0	0
353.98828125	n/a	REC_WORD	724968	wordpools/wasnorm_wordpool_576.txt	LTP386	ltpFR2	6	1	PLAID	1080	n/a	n/a	0	0	0
355.0732421875	n/a	REC_WORD	727190	wordpools/wasnorm_wordpool_576.txt	LTP386	ltpFR2	6	1	LACE	792	n/a	n/a	0	0	0
356.197265625	n/a	REC_WORD	729492	wordpools/wasnorm_wordpool_576.txt	LTP386	ltpFR2	6	1	FRAGRANCE	599	n/a	n/a	0	0	0
358.44384765625	n/a	REC_WORD	734093	wordpools/wasnorm_wordpool_576.txt	LTP386	ltpFR2	6	1	PLAZA	1088	n/a	n/a	0	0	0
359.59228515625	n/a	REC_WORD	736445	wordpools/wasnorm_wordpool_576.txt	LTP386	ltpFR2	6	1	MARKET	871	n/a	n/a	0	0	0
360.68212890625	n/a	REC_WORD	738677	wordpools/wasnorm_wordpool_576.txt	LTP386	ltpFR2	6	1	STOVE	1388	n/a	n/a	0	0	0
362.033203125	n/a	REC_WORD	741444	wordpools/wasnorm_wordpool_576.txt	LTP386	ltpFR2	6	1	JELLY	755	n/a	n/a	0	0	0
365.02099609375	n/a	REC_WORD	747563	wordpools/wasnorm_wordpool_576.txt	LTP386	ltpFR2	6	1	TOASTER	1472	n/a	n/a	0	0	0
365.9560546875	n/a	REC_WORD	749478	wordpools/wasnorm_wordpool_576.txt	LTP386	ltpFR2	6	1	FRIAR	605	n/a	n/a	0	0	0
367.556640625	n/a	REC_WORD	752756	wordpools/wasnorm_wordpool_576.txt	LTP386	ltpFR2	6	1	PRINCESS	1125	n/a	n/a	0	0	0
368.8115234375	n/a	REC_WORD	755326	wordpools/wasnorm_wordpool_576.txt	LTP386	ltpFR2	6	1	ACTOR	5	n/a	n/a	0	0	0
370.07177734375	n/a	REC_WORD	757907	wordpools/wasnorm_wordpool_576.txt	LTP386	ltpFR2	6	1	CONVICT	371	n/a	n/a	0	0	0
372.57177734375	n/a	REC_WORD	763027	wordpools/wasnorm_wordpool_576.txt	LTP386	ltpFR2	6	1	BEAVER	109	n/a	n/a	0	0	0
380.3486328125	n/a	REC_WORD	778954	wordpools/wasnorm_wordpool_576.txt	LTP386	ltpFR2	6	1	PERFUME	1049	n/a	n/a	0	0	0
385.72802734375	n/a	REC_WORD	789971	wordpools/wasnorm_wordpool_576.txt	LTP386	ltpFR2	6	1	CHAPEL	280	n/a	n/a	0	0	0
393.2568359375	n/a	REC_WORD	805390	wordpools/wasnorm_wordpool_576.txt	LTP386	ltpFR2	6	1	SERVER	1272	n/a	n/a	0	0	0
440.728515625	n/a	WORD	902612	wordpools/wasnorm_wordpool_576.txt	LTP386	ltpFR2	6	2	ARMY	39	n/a	n/a	0	0	0
443.51171875	n/a	WORD	908312	wordpools/wasnorm_wordpool_576.txt	LTP386	ltpFR2	6	2	RACKET	1155	n/a	n/a	0	0	0
446.279296875	n/a	WORD	913980	wordpools/wasnorm_wordpool_576.txt	LTP386	ltpFR2	6	2	OYSTER	995	n/a	n/a	0	0	0
448.7783203125	n/a	WORD	919098	wordpools/wasnorm_wordpool_576.txt	LTP386	ltpFR2	6	2	SWIMMER	1420	n/a	n/a	0	0	0
451.4111328125	n/a	WORD	924490	wordpools/wasnorm_wordpool_576.txt	LTP386	ltpFR2	6	2	RIVER	1194	n/a	n/a	0	0	0
454.029296875	n/a	WORD	929852	wordpools/wasnorm_wordpool_576.txt	LTP386	ltpFR2	6	2	GHETTO	633	n/a	n/a	0	0	0
456.47802734375	n/a	WORD	934867	wordpools/wasnorm_wordpool_576.txt	LTP386	ltpFR2	6	2	PRINCE	1124	n/a	n/a	0	0	0
459.0791015625	n/a	WORD	940194	wordpools/wasnorm_wordpool_576.txt	LTP386	ltpFR2	6	2	PALACE	1006	n/a	n/a	0	0	0
461.8779296875	n/a	WORD	945926	wordpools/wasnorm_wordpool_576.txt	LTP386	ltpFR2	6	2	FLAG	573	n/a	n/a	0	0	0
464.3447265625	n/a	WORD	950978	wordpools/wasnorm_wordpool_576.txt	LTP386	ltpFR2	6	2	BOYFRIEND	162	n/a	n/a	0	0	0
467.14501953125	n/a	WORD	956713	wordpools/wasnorm_wordpool_576.txt	LTP386	ltpFR2	6	2	WITNESS	1618	n/a	n/a	0	0	0
469.7939453125	n/a	WORD	962138	wordpools/wasnorm_wordpool_576.txt	LTP386	ltpFR2	6	2	DANDRUFF	439	n/a	n/a	0	0	0
472.36181640625	n/a	WORD	967397	wordpools/wasnorm_wordpool_576.txt	LTP386	ltpFR2	6	2	CONTRACT	368	n/a	n/a	0	0	0
475.111328125	n/a	WORD	973028	wordpools/wasnorm_wordpool_576.txt	LTP386	ltpFR2	6	2	SEAFOOD	1260	n/a	n/a	0	0	0
477.67626953125	n/a	WORD	978281	wordpools/wasnorm_wordpool_576.txt	LTP386	ltpFR2	6	2	MUMMY	932	n/a	n/a	0	0	0
480.17724609375	n/a	WORD	983403	wordpools/wasnorm_wordpool_576.txt	LTP386	ltpFR2	6	2	POPCORN	1104	n/a	n/a	0	0	0
482.9931640625	n/a	WORD	989170	wordpools/wasnorm_wordpool_576.txt	LTP386	ltpFR2	6	2	EGYPT	519	n/a	n/a	0	0	0
485.54345703125	n/a	WORD	994393	wordpools/wasnorm_wordpool_576.txt	LTP386	ltpFR2	6	2	GAVEL	627	n/a	n/a	0	0	0
488.126953125	n/a	WORD	999684	wordpools/wasnorm_wordpool_576.txt	LTP386	ltpFR2	6	2	STOMACH	1384	n/a	n/a	0	0	0
490.7099609375	n/a	WORD	1004974	wordpools/wasnorm_wordpool_576.txt	LTP386	ltpFR2	6	2	COURSE	390	n/a	n/a	0	0	0
493.42578125	n/a	WORD	1010536	wordpools/wasnorm_wordpool_576.txt	LTP386	ltpFR2	6	2	YARN	1631	n/a	n/a	0	0	0
496.22705078125	n/a	WORD	1016273	wordpools/wasnorm_wordpool_576.txt	LTP386	ltpFR2	6	2	WHISKERS	1605	n/a	n/a	0	0	0
498.79296875	n/a	WORD	1021528	wordpools/wasnorm_wordpool_576.txt	LTP386	ltpFR2	6	2	FLESH	579	n/a	n/a	0	0	0
501.3095703125	n/a	WORD	1026682	wordpools/wasnorm_wordpool_576.txt	LTP386	ltpFR2	6	2	HEADBAND	696	n/a	n/a	0	0	0
502.92578125	n/a	START	1029992	n/a	LTP386	ltpFR2	6	n/a	n/a	n/a	2	n/a	n/a	n/a	n/a
503.87548828125	n/a	DISTRACTOR	1031937	n/a	LTP386	ltpFR2	6	2	n/a	n/a	n/a	n/a	0	0	0
503.892578125	n/a	PROB	1031972	n/a	LTP386	ltpFR2	6	n/a	n/a	n/a	2	5	2	1	2
505.27685546875	n/a	PROB	1034807	n/a	LTP386	ltpFR2	6	n/a	n/a	n/a	2	23	5	9	9
506.79248046875	n/a	PROB	1037911	n/a	LTP386	ltpFR2	6	n/a	n/a	n/a	2	20	8	5	7
508.42578125	n/a	PROB	1041256	n/a	LTP386	ltpFR2	6	n/a	n/a	n/a	2	3	1	1	1
509.37548828125	n/a	PROB	1043201	n/a	LTP386	ltpFR2	6	n/a	n/a	n/a	2	20	7	4	9
510.79150390625	n/a	PROB	1046101	n/a	LTP386	ltpFR2	6	n/a	n/a	n/a	2	13	5	2	6
512.37548828125	n/a	PROB	1049345	n/a	LTP386	ltpFR2	6	n/a	n/a	n/a	2	20	8	7	5
514.2421875	n/a	PROB	1053168	n/a	LTP386	ltpFR2	6	n/a	n/a	n/a	2	15	4	8	3
516.076171875	n/a	PROB	1056924	n/a	LTP386	ltpFR2	6	n/a	n/a	n/a	2	13	2	3	8
517.8583984375	n/a	PROB	1060574	n/a	LTP386	ltpFR2	6	n/a	n/a	n/a	2	14	4	9	1
519.42529296875	n/a	PROB	1063783	n/a	LTP386	ltpFR2	6	n/a	n/a	n/a	2	11	4	5	2
521.7080078125	n/a	PROB	1068458	n/a	LTP386	ltpFR2	6	n/a	n/a	n/a	2	13	8	3	2
524.1259765625	n/a	PROB	1073410	n/a	LTP386	ltpFR2	6	n/a	n/a	n/a	2	15	9	2	4
525.76513671875	n/a	STOP	1076767	n/a	LTP386	ltpFR2	6	n/a	n/a	n/a	2	n/a	n/a	n/a	n/a
528.7578125	n/a	REC_START	1082896	n/a	LTP386	ltpFR2	6	2	n/a	n/a	n/a	n/a	0	0	0
529.49169921875	n/a	REC_WORD	1084399	wordpools/wasnorm_wordpool_576.txt	LTP386	ltpFR2	6	2	RIVER	1194	n/a	n/a	0	0	0
530.51904296875	n/a	REC_WORD	1086503	wordpools/wasnorm_wordpool_576.txt	LTP386	ltpFR2	6	2	COURSE	390	n/a	n/a	0	0	0
531.4990234375	n/a	REC_WORD	1088510	wordpools/wasnorm_wordpool_576.txt	LTP386	ltpFR2	6	2	SWIMMER	1420	n/a	n/a	0	0	0
532.89501953125	n/a	REC_WORD	1091369	wordpools/wasnorm_wordpool_576.txt	LTP386	ltpFR2	6	2	OYSTER	995	n/a	n/a	0	0	0
539.12646484375	n/a	REC_WORD	1104131	wordpools/wasnorm_wordpool_576.txt	LTP386	ltpFR2	6	2	POPCORN	1104	n/a	n/a	0	0	0
540.19970703125	n/a	REC_WORD	1106329	wordpools/wasnorm_wordpool_576.txt	LTP386	ltpFR2	6	2	STOMACH	1384	n/a	n/a	0	0	0
542.0927734375	n/a	REC_WORD	1110206	wordpools/wasnorm_wordpool_576.txt	LTP386	ltpFR2	6	2	BOYFRIEND	162	n/a	n/a	0	0	0
543.1826171875	n/a	REC_WORD	1112438	wordpools/wasnorm_wordpool_576.txt	LTP386	ltpFR2	6	2	DANDRUFF	439	n/a	n/a	0	0	0
545.6455078125	n/a	REC_WORD	1117482	wordpools/wasnorm_wordpool_576.txt	LTP386	ltpFR2	6	2	PRINCE	1124	n/a	n/a	0	0	0
546.53759765625	n/a	REC_WORD	1119309	wordpools/wasnorm_wordpool_576.txt	LTP386	ltpFR2	6	2	PALACE	1006	n/a	n/a	0	0	0
547.9501953125	n/a	REC_WORD	1122202	wordpools/wasnorm_wordpool_576.txt	LTP386	ltpFR2	6	2	EGYPT	519	n/a	n/a	0	0	0
548.728515625	n/a	REC_WORD	1123796	wordpools/wasnorm_wordpool_576.txt	LTP386	ltpFR2	6	2	MUMMY	932	n/a	n/a	0	0	0
555.7802734375	n/a	REC_WORD	1138238	wordpools/wasnorm_wordpool_576.txt	LTP386	ltpFR2	6	2	ARMY	39	n/a	n/a	0	0	0
556.64501953125	n/a	REC_WORD	1140009	wordpools/wasnorm_wordpool_576.txt	LTP386	ltpFR2	6	2	RACKET	1155	n/a	n/a	0	0	0
575.07763671875	n/a	REC_WORD	1177759	wordpools/wasnorm_wordpool_576.txt	LTP386	ltpFR2	6	2	SEAFOOD	1260	n/a	n/a	0	0	0
619.22119140625	n/a	WORD	1268165	wordpools/wasnorm_wordpool_576.txt	LTP386	ltpFR2	6	3	NECKLACE	940	n/a	n/a	0	0	0
621.8369140625	n/a	WORD	1273522	wordpools/wasnorm_wordpool_576.txt	LTP386	ltpFR2	6	3	BULLET	194	n/a	n/a	0	0	0
624.537109375	n/a	WORD	1279052	wordpools/wasnorm_wordpool_576.txt	LTP386	ltpFR2	6	3	COFFEE	341	n/a	n/a	0	0	0
627.02099609375	n/a	WORD	1284139	wordpools/wasnorm_wordpool_576.txt	LTP386	ltpFR2	6	3	PANTHER	1009	n/a	n/a	0	0	0
629.65283203125	n/a	WORD	1289529	wordpools/wasnorm_wordpool_576.txt	LTP386	ltpFR2	6	3	REBEL	1172	n/a	n/a	0	0	0
632.43603515625	n/a	WORD	1295229	wordpools/wasnorm_wordpool_576.txt	LTP386	ltpFR2	6	3	SERVANT	1271	n/a	n/a	0	0	0
635.23681640625	n/a	WORD	1300965	wordpools/wasnorm_wordpool_576.txt	LTP386	ltpFR2	6	3	RUG	1215	n/a	n/a	0	0	0
637.76953125	n/a	WORD	1306152	wordpools/wasnorm_wordpool_576.txt	LTP386	ltpFR2	6	3	COSTUME	383	n/a	n/a	0	0	0
640.36962890625	n/a	WORD	1311477	wordpools/wasnorm_wordpool_576.txt	LTP386	ltpFR2	6	3	OINTMENT	974	n/a	n/a	0	0	0
643.1865234375	n/a	WORD	1317246	wordpools/wasnorm_wordpool_576.txt	LTP386	ltpFR2	6	3	CATCHER	258	n/a	n/a	0	0	0
645.90234375	n/a	WORD	1322808	wordpools/wasnorm_wordpool_576.txt	LTP386	ltpFR2	6	3	SOFTBALL	1343	n/a	n/a	0	0	0
648.53515625	n/a	WORD	1328200	wordpools/wasnorm_wordpool_576.txt	LTP386	ltpFR2	6	3	CANDY	230	n/a	n/a	0	0	0
651.18603515625	n/a	WORD	1333629	wordpools/wasnorm_wordpool_576.txt	LTP386	ltpFR2	6	3	SCALLOP	1242	n/a	n/a	0	0	0
653.9853515625	n/a	WORD	1339362	wordpools/wasnorm_wordpool_576.txt	LTP386	ltpFR2	6	3	COLLEGE	346	n/a	n/a	0	0	0
656.71826171875	n/a	WORD	1344959	wordpools/wasnorm_wordpool_576.txt	LTP386	ltpFR2	6	3	ELBOW	520	n/a	n/a	0	0	0
659.3359375	n/a	WORD	1350320	wordpools/wasnorm_wordpool_576.txt	LTP386	ltpFR2	6	3	CRUTCH	417	n/a	n/a	0	0	0
662.01904296875	n/a	WORD	1355815	wordpools/wasnorm_wordpool_576.txt	LTP386	ltpFR2	6	3	POET	1095	n/a	n/a	0	0	0
664.70166015625	n/a	WORD	1361309	wordpools/wasnorm_wordpool_576.txt	LTP386	ltpFR2	6	3	CATTLE	261	n/a	n/a	0	0	0
667.40185546875	n/a	WORD	1366839	wordpools/wasnorm_wordpool_576.txt	LTP386	ltpFR2	6	3	RABBIT	1152	n/a	n/a	0	0	0
670.1025390625	n/a	WORD	1372370	wordpools/wasnorm_wordpool_576.txt	LTP386	ltpFR2	6	3	CABBAGE	210	n/a	n/a	0	0	0
672.78466796875	n/a	WORD	1377863	wordpools/wasnorm_wordpool_576.txt	LTP386	ltpFR2	6	3	PASTRY	1022	n/a	n/a	0	0	0
675.28564453125	n/a	WORD	1382985	wordpools/wasnorm_wordpool_576.txt	LTP386	ltpFR2	6	3	TART	1436	n/a	n/a	0	0	0
678.068359375	n/a	WORD	1388684	wordpools/wasnorm_wordpool_576.txt	LTP386	ltpFR2	6	3	LION	827	n/a	n/a	0	0	0
680.50048828125	n/a	WORD	1393665	wordpools/wasnorm_wordpool_576.txt	LTP386	ltpFR2	6	3	BLOCKADE	137	n/a	n/a	0	0	0
682.1025390625	n/a	START	1396946	n/a	LTP386	ltpFR2	6	n/a	n/a	n/a	3	n/a	n/a	n/a	n/a
682.9853515625	n/a	DISTRACTOR	1398754	n/a	LTP386	ltpFR2	6	3	n/a	n/a	n/a	n/a	0	0	0
683.00048828125	n/a	PROB	1398785	n/a	LTP386	ltpFR2	6	n/a	n/a	n/a	3	13	6	6	1
684.318359375	n/a	PROB	1401484	n/a	LTP386	ltpFR2	6	n/a	n/a	n/a	3	16	9	4	3
685.75	n/a	PROB	1404416	n/a	LTP386	ltpFR2	6	n/a	n/a	n/a	3	18	7	6	5
687.3349609375	n/a	PROB	1407662	n/a	LTP386	ltpFR2	6	n/a	n/a	n/a	3	17	6	6	5
689.4169921875	n/a	PROB	1411926	n/a	LTP386	ltpFR2	6	n/a	n/a	n/a	3	13	6	1	6
690.73388671875	n/a	PROB	1414623	n/a	LTP386	ltpFR2	6	n/a	n/a	n/a	3	18	4	9	5
692.35107421875	n/a	PROB	1417935	n/a	LTP386	ltpFR2	6	n/a	n/a	n/a	3	19	9	7	3
693.5	n/a	PROB	1420288	n/a	LTP386	ltpFR2	6	n/a	n/a	n/a	3	19	5	8	7
696.56689453125	n/a	PROB	1426569	n/a	LTP386	ltpFR2	6	n/a	n/a	n/a	3	20	3	9	8
698.2177734375	n/a	PROB	1429950	n/a	LTP386	ltpFR2	6	n/a	n/a	n/a	3	18	6	9	3
699.6826171875	n/a	PROB	1432950	n/a	LTP386	ltpFR2	6	n/a	n/a	n/a	3	24	6	6	6
700.94970703125	n/a	PROB	1435545	n/a	LTP386	ltpFR2	6	n/a	n/a	n/a	3	21	8	8	5
703.03369140625	n/a	PROB	1439813	n/a	LTP386	ltpFR2	6	n/a	n/a	n/a	3	14	6	5	3
704.53271484375	n/a	PROB	1442883	n/a	LTP386	ltpFR2	6	n/a	n/a	n/a	3	11	4	6	1
705.517578125	n/a	STOP	1444900	n/a	LTP386	ltpFR2	6	n/a	n/a	n/a	3	n/a	n/a	n/a	n/a
707.91650390625	n/a	REC_START	1449813	n/a	LTP386	ltpFR2	6	3	n/a	n/a	n/a	n/a	0	0	0
708.53857421875	n/a	REC_WORD	1451087	wordpools/wasnorm_wordpool_576.txt	LTP386	ltpFR2	6	3	PASTRY	1022	n/a	n/a	0	0	0
709.49560546875	n/a	REC_WORD	1453047	wordpools/wasnorm_wordpool_576.txt	LTP386	ltpFR2	6	3	TART	1436	n/a	n/a	0	0	0
710.66943359375	n/a	REC_WORD	1455451	wordpools/wasnorm_wordpool_576.txt	LTP386	ltpFR2	6	3	SCALLOP	1242	n/a	n/a	0	0	0
711.7353515625	n/a	REC_WORD	1457634	wordpools/wasnorm_wordpool_576.txt	LTP386	ltpFR2	6	3	CABBAGE	210	n/a	n/a	0	0	0
720.9189453125	n/a	REC_WORD	1476442	wordpools/wasnorm_wordpool_576.txt	LTP386	ltpFR2	6	3	PANTHER	1009	n/a	n/a	0	0	0
721.69287109375	n/a	REC_WORD	1478027	wordpools/wasnorm_wordpool_576.txt	LTP386	ltpFR2	6	3	NECKLACE	940	n/a	n/a	0	0	0
722.61328125	n/a	REC_WORD	1479912	wordpools/wasnorm_wordpool_576.txt	LTP386	ltpFR2	6	3	REBEL	1172	n/a	n/a	0	0	0
724.23779296875	n/a	REC_WORD	1483239	wordpools/wasnorm_wordpool_576.txt	LTP386	ltpFR2	6	3	LION	827	n/a	n/a	0	0	0
732.5478515625	n/a	REC_WORD	1500258	wordpools/wasnorm_wordpool_576.txt	LTP386	ltpFR2	6	3	BLOCKADE	137	n/a	n/a	0	0	0
736.921875	n/a	REC_WORD	1509216	wordpools/wasnorm_wordpool_576.txt	LTP386	ltpFR2	6	3	SERVANT	1271	n/a	n/a	0	0	0
748.65234375	n/a	REC_WORD	1533240	wordpools/wasnorm_wordpool_576.txt	LTP386	ltpFR2	6	3	COFFEE	341	n/a	n/a	0	0	0
749.39013671875	n/a	REC_WORD	1534751	wordpools/wasnorm_wordpool_576.txt	LTP386	ltpFR2	6	3	CANDY	230	n/a	n/a	0	0	0
755.50830078125	n/a	REC_WORD	1547281	wordpools/wasnorm_wordpool_576.txt	LTP386	ltpFR2	6	3	OINTMENT	974	n/a	n/a	0	0	0
757.580078125	n/a	REC_WORD	1551524	wordpools/wasnorm_wordpool_576.txt	LTP386	ltpFR2	6	3	COLLEGE	346	n/a	n/a	0	0	0
758.27001953125	n/a	REC_WORD	1552937	wordpools/wasnorm_wordpool_576.txt	LTP386	ltpFR2	6	3	ELBOW	520	n/a	n/a	0	0	0
798.37890625	n/a	WORD	1635080	wordpools/wasnorm_wordpool_576.txt	LTP386	ltpFR2	6	4	CRIB	407	n/a	n/a	0	0	0
801.02978515625	n/a	WORD	1640509	wordpools/wasnorm_wordpool_576.txt	LTP386	ltpFR2	6	4	CASHEW	253	n/a	n/a	0	0	0
803.6787109375	n/a	WORD	1645934	wordpools/wasnorm_wordpool_576.txt	LTP386	ltpFR2	6	4	COWBOY	395	n/a	n/a	0	0	0
806.49462890625	n/a	WORD	1651701	wordpools/wasnorm_wordpool_576.txt	LTP386	ltpFR2	6	4	ULCER	1533	n/a	n/a	0	0	0
809.29541015625	n/a	WORD	1657437	wordpools/wasnorm_wordpool_576.txt	LTP386	ltpFR2	6	4	FLASK	576	n/a	n/a	0	0	0
811.9443359375	n/a	WORD	1662862	wordpools/wasnorm_wordpool_576.txt	LTP386	ltpFR2	6	4	MAILBOX	857	n/a	n/a	0	0	0
814.611328125	n/a	WORD	1668324	wordpools/wasnorm_wordpool_576.txt	LTP386	ltpFR2	6	4	JOURNAL	760	n/a	n/a	0	0	0
817.09521484375	n/a	WORD	1673411	wordpools/wasnorm_wordpool_576.txt	LTP386	ltpFR2	6	4	BLENDER	136	n/a	n/a	0	0	0
819.67724609375	n/a	WORD	1678699	wordpools/wasnorm_wordpool_576.txt	LTP386	ltpFR2	6	4	CHAMPAGNE	278	n/a	n/a	0	0	0
822.27783203125	n/a	WORD	1684025	wordpools/wasnorm_wordpool_576.txt	LTP386	ltpFR2	6	4	SUITCASE	1403	n/a	n/a	0	0	0
824.7109375	n/a	WORD	1689008	wordpools/wasnorm_wordpool_576.txt	LTP386	ltpFR2	6	4	TOURIST	1488	n/a	n/a	0	0	0
827.22802734375	n/a	WORD	1694163	wordpools/wasnorm_wordpool_576.txt	LTP386	ltpFR2	6	4	BOARD	143	n/a	n/a	0	0	0
829.7109375	n/a	WORD	1699248	wordpools/wasnorm_wordpool_576.txt	LTP386	ltpFR2	6	4	SWAMP	1416	n/a	n/a	0	0	0
832.4765625	n/a	WORD	1704912	wordpools/wasnorm_wordpool_576.txt	LTP386	ltpFR2	6	4	QUARTER	1148	n/a	n/a	0	0	0
835.0615234375	n/a	WORD	1710206	wordpools/wasnorm_wordpool_576.txt	LTP386	ltpFR2	6	4	COUSIN	392	n/a	n/a	0	0	0
837.6767578125	n/a	WORD	1715562	wordpools/wasnorm_wordpool_576.txt	LTP386	ltpFR2	6	4	FRIEND	606	n/a	n/a	0	0	0
840.12744140625	n/a	WORD	1720581	wordpools/wasnorm_wordpool_576.txt	LTP386	ltpFR2	6	4	CHEMIST	292	n/a	n/a	0	0	0
842.84326171875	n/a	WORD	1726143	wordpools/wasnorm_wordpool_576.txt	LTP386	ltpFR2	6	4	BEAKER	104	n/a	n/a	0	0	0
845.576171875	n/a	WORD	1731740	wordpools/wasnorm_wordpool_576.txt	LTP386	ltpFR2	6	4	LIGHTNING	820	n/a	n/a	0	0	0
848.21044921875	n/a	WORD	1737135	wordpools/wasnorm_wordpool_576.txt	LTP386	ltpFR2	6	4	WASP	1593	n/a	n/a	0	0	0
850.89306640625	n/a	WORD	1742629	wordpools/wasnorm_wordpool_576.txt	LTP386	ltpFR2	6	4	JAPAN	749	n/a	n/a	0	0	0
853.708984375	n/a	WORD	1748396	wordpools/wasnorm_wordpool_576.txt	LTP386	ltpFR2	6	4	PASSAGE	1019	n/a	n/a	0	0	0
856.126953125	n/a	WORD	1753348	wordpools/wasnorm_wordpool_576.txt	LTP386	ltpFR2	6	4	DIME	466	n/a	n/a	0	0	0
858.72607421875	n/a	WORD	1758671	wordpools/wasnorm_wordpool_576.txt	LTP386	ltpFR2	6	4	STALLION	1369	n/a	n/a	0	0	0
860.34375	n/a	START	1761984	n/a	LTP386	ltpFR2	6	n/a	n/a	n/a	4	n/a	n/a	n/a	n/a
861.30908203125	n/a	DISTRACTOR	1763961	n/a	LTP386	ltpFR2	6	4	n/a	n/a	n/a	n/a	0	0	0
861.32666015625	n/a	PROB	1763997	n/a	LTP386	ltpFR2	6	n/a	n/a	n/a	4	12	6	1	5
862.841796875	n/a	PROB	1767100	n/a	LTP386	ltpFR2	6	n/a	n/a	n/a	4	5	3	1	1
863.8916015625	n/a	PROB	1769250	n/a	LTP386	ltpFR2	6	n/a	n/a	n/a	4	15	7	7	1
865.49169921875	n/a	PROB	1772527	n/a	LTP386	ltpFR2	6	n/a	n/a	n/a	4	14	1	4	9
866.841796875	n/a	PROB	1775292	n/a	LTP386	ltpFR2	6	n/a	n/a	n/a	4	8	2	3	3
868.2265625	n/a	PROB	1778128	n/a	LTP386	ltpFR2	6	n/a	n/a	n/a	4	19	8	6	5
869.6083984375	n/a	PROB	1780958	n/a	LTP386	ltpFR2	6	n/a	n/a	n/a	4	12	5	4	3
871.775390625	n/a	PROB	1785396	n/a	LTP386	ltpFR2	6	n/a	n/a	n/a	4	17	4	5	8
874.8916015625	n/a	PROB	1791778	n/a	LTP386	ltpFR2	6	n/a	n/a	n/a	4	13	6	1	6
875.9912109375	n/a	PROB	1794030	n/a	LTP386	ltpFR2	6	n/a	n/a	n/a	4	21	5	8	8
878.3583984375	n/a	PROB	1798878	n/a	LTP386	ltpFR2	6	n/a	n/a	n/a	4	22	7	7	8
880.109375	n/a	PROB	1802464	n/a	LTP386	ltpFR2	6	n/a	n/a	n/a	4	17	6	2	9
881.59130859375	n/a	PROB	1805499	n/a	LTP386	ltpFR2	6	n/a	n/a	n/a	4	12	2	7	3
884.34326171875	n/a	STOP	1811135	n/a	LTP386	ltpFR2	6	n/a	n/a	n/a	4	n/a	n/a	n/a	n/a
886.1591796875	n/a	REC_START	1814854	n/a	LTP386	ltpFR2	6	4	n/a	n/a	n/a	n/a	0	0	0
889.10498046875	n/a	REC_WORD	1820887	wordpools/wasnorm_wordpool_576.txt	LTP386	ltpFR2	6	4	DIME	466	n/a	n/a	0	0	0
895.6796875	n/a	REC_WORD	1834352	wordpools/wasnorm_wordpool_576.txt	LTP386	ltpFR2	6	4	COWBOY	395	n/a	n/a	0	0	0
896.5576171875	n/a	REC_WORD	1836150	wordpools/wasnorm_wordpool_576.txt	LTP386	ltpFR2	6	4	CASHEW	253	n/a	n/a	0	0	0
900.4326171875	n/a	REC_WORD	1844086	wordpools/wasnorm_wordpool_576.txt	LTP386	ltpFR2	6	4	BOARD	143	n/a	n/a	0	0	0
905.728515625	n/a	REC_WORD	1854932	wordpools/wasnorm_wordpool_576.txt	LTP386	ltpFR2	6	4	EGYPT	519	n/a	n/a	0	0	0
906.1787109375	n/a	REC_WORD_VV	1855854	wordpools/wasnorm_wordpool_576.txt	LTP386	ltpFR2	6	4	<>	-1	n/a	n/a	0	0	0
907.00537109375	n/a	REC_WORD	1857547	wordpools/wasnorm_wordpool_576.txt	LTP386	ltpFR2	6	4	JAPAN	749	n/a	n/a	0	0	0
910.4365234375	n/a	REC_WORD	1864574	wordpools/wasnorm_wordpool_576.txt	LTP386	ltpFR2	6	4	STALLION	1369	n/a	n/a	0	0	0
954.75390625	n/a	REC_WORD	1955336	wordpools/wasnorm_wordpool_576.txt	LTP386	ltpFR2	6	4	FRIEND	606	n/a	n/a	0	0	0
976.603515625	n/a	DISTRACTOR	2000084	n/a	LTP386	ltpFR2	6	5	n/a	n/a	n/a	n/a	0	0	0
976.603515625	n/a	START	2000084	n/a	LTP386	ltpFR2	6	n/a	n/a	n/a	5	n/a	n/a	n/a	n/a
976.62060546875	n/a	PROB	2000119	n/a	LTP386	ltpFR2	6	n/a	n/a	n/a	5	8	1	2	5
978.97021484375	n/a	PROB	2004931	n/a	LTP386	ltpFR2	6	n/a	n/a	n/a	5	22	8	8	4
980.4365234375	n/a	PROB	2007934	n/a	LTP386	ltpFR2	6	n/a	n/a	n/a	5	15	1	8	6
981.953125	n/a	PROB	2011040	n/a	LTP386	ltpFR2	6	n/a	n/a	n/a	5	19	9	2	8
983.10400390625	n/a	PROB	2013397	n/a	LTP386	ltpFR2	6	n/a	n/a	n/a	5	15	6	1	8
984.669921875	n/a	PROB	2016604	n/a	LTP386	ltpFR2	6	n/a	n/a	n/a	5	16	3	5	8
986.38623046875	n/a	PROB	2020119	n/a	LTP386	ltpFR2	6	n/a	n/a	n/a	5	21	3	9	9
987.98583984375	n/a	PROB	2023395	n/a	LTP386	ltpFR2	6	n/a	n/a	n/a	5	11	5	5	1
988.953125	n/a	PROB	2025376	n/a	LTP386	ltpFR2	6	n/a	n/a	n/a	5	16	5	4	7
990.919921875	n/a	PROB	2029404	n/a	LTP386	ltpFR2	6	n/a	n/a	n/a	5	8	3	2	3
993.0537109375	n/a	PROB	2033774	n/a	LTP386	ltpFR2	6	n/a	n/a	n/a	5	10	3	4	3
994.4697265625	n/a	PROB	2036674	n/a	LTP386	ltpFR2	6	n/a	n/a	n/a	5	12	8	2	3
996.3369140625	n/a	PROB	2040498	n/a	LTP386	ltpFR2	6	n/a	n/a	n/a	5	20	7	7	6
997.802734375	n/a	PROB	2043500	n/a	LTP386	ltpFR2	6	n/a	n/a	n/a	5	18	7	3	8
999.41259765625	n/a	STOP	2046797	n/a	LTP386	ltpFR2	6	n/a	n/a	n/a	5	n/a	n/a	n/a	n/a
1001.78564453125	n/a	WORD	2051657	wordpools/wasnorm_wordpool_576.txt	LTP386	ltpFR2	6	5	SEAL	1262	n/a	n/a	0	0	0
1004.435546875	n/a	WORD	2057084	wordpools/wasnorm_wordpool_576.txt	LTP386	ltpFR2	6	5	COMET	353	n/a	n/a	0	0	0
1006.95263671875	n/a	WORD	2062239	wordpools/wasnorm_wordpool_576.txt	LTP386	ltpFR2	6	5	POSSUM	1112	n/a	n/a	0	0	0
1009.6025390625	n/a	WORD	2067666	wordpools/wasnorm_wordpool_576.txt	LTP386	ltpFR2	6	5	FOOT	590	n/a	n/a	0	0	0
1012.21923828125	n/a	WORD	2073025	wordpools/wasnorm_wordpool_576.txt	LTP386	ltpFR2	6	5	MARROW	872	n/a	n/a	0	0	0
1014.91845703125	n/a	WORD	2078553	wordpools/wasnorm_wordpool_576.txt	LTP386	ltpFR2	6	5	POSTAGE	1113	n/a	n/a	0	0	0
1017.3681640625	n/a	WORD	2083570	wordpools/wasnorm_wordpool_576.txt	LTP386	ltpFR2	6	5	SUMMIT	1405	n/a	n/a	0	0	0
1020.0009765625	n/a	WORD	2088962	wordpools/wasnorm_wordpool_576.txt	LTP386	ltpFR2	6	5	FRANCE	601	n/a	n/a	0	0	0
1022.43505859375	n/a	WORD	2093947	wordpools/wasnorm_wordpool_576.txt	LTP386	ltpFR2	6	5	SPOOL	1356	n/a	n/a	0	0	0
1025.0009765625	n/a	WORD	2099202	wordpools/wasnorm_wordpool_576.txt	LTP386	ltpFR2	6	5	DRESS	495	n/a	n/a	0	0	0
1027.81787109375	n/a	WORD	2104971	wordpools/wasnorm_wordpool_576.txt	LTP386	ltpFR2	6	5	LEG	809	n/a	n/a	0	0	0
1030.48486328125	n/a	WORD	2110433	wordpools/wasnorm_wordpool_576.txt	LTP386	ltpFR2	6	5	LEOPARD	812	n/a	n/a	0	0	0
1033.0185546875	n/a	WORD	2115622	wordpools/wasnorm_wordpool_576.txt	LTP386	ltpFR2	6	5	ROCKET	1202	n/a	n/a	0	0	0
1035.6845703125	n/a	WORD	2121082	wordpools/wasnorm_wordpool_576.txt	LTP386	ltpFR2	6	5	LADY	794	n/a	n/a	0	0	0
1038.1845703125	n/a	WORD	2126202	wordpools/wasnorm_wordpool_576.txt	LTP386	ltpFR2	6	5	AIRPLANE	12	n/a	n/a	0	0	0
1040.66748046875	n/a	WORD	2131287	wordpools/wasnorm_wordpool_576.txt	LTP386	ltpFR2	6	5	CAFE	216	n/a	n/a	0	0	0
1043.16845703125	n/a	WORD	2136409	wordpools/wasnorm_wordpool_576.txt	LTP386	ltpFR2	6	5	GLOBE	641	n/a	n/a	0	0	0
1045.7333984375	n/a	WORD	2141662	wordpools/wasnorm_wordpool_576.txt	LTP386	ltpFR2	6	5	PUDDLE	1140	n/a	n/a	0	0	0
1048.25146484375	n/a	WORD	2146819	wordpools/wasnorm_wordpool_576.txt	LTP386	ltpFR2	6	5	NOTEBOOK	959	n/a	n/a	0	0	0
1051.0	n/a	WORD	2152448	wordpools/wasnorm_wordpool_576.txt	LTP386	ltpFR2	6	5	PAPER	1011	n/a	n/a	0	0	0
1053.63330078125	n/a	WORD	2157841	wordpools/wasnorm_wordpool_576.txt	LTP386	ltpFR2	6	5	ORANGE	980	n/a	n/a	0	0	0
1056.10107421875	n/a	WORD	2162895	wordpools/wasnorm_wordpool_576.txt	LTP386	ltpFR2	6	5	GRAPE	654	n/a	n/a	0	0	0
1058.666015625	n/a	WORD	2168148	wordpools/wasnorm_wordpool_576.txt	LTP386	ltpFR2	6	5	CHAPEL	280	n/a	n/a	0	0	0
1061.26708984375	n/a	WORD	2173475	wordpools/wasnorm_wordpool_576.txt	LTP386	ltpFR2	6	5	MISTER	901	n/a	n/a	0	0	0
1062.8828125	n/a	START	2176784	n/a	LTP386	ltpFR2	6	n/a	n/a	n/a	6	n/a	n/a	n/a	n/a
1063.796875	n/a	DISTRACTOR	2178656	n/a	LTP386	ltpFR2	6	5	n/a	n/a	n/a	n/a	0	0	0
1063.7998046875	n/a	PROB	2178662	n/a	LTP386	ltpFR2	6	n/a	n/a	n/a	6	10	3	2	5
1065.53271484375	n/a	PROB	2182211	n/a	LTP386	ltpFR2	6	n/a	n/a	n/a	6	16	3	8	5
1067.61572265625	n/a	PROB	2186477	n/a	LTP386	ltpFR2	6	n/a	n/a	n/a	6	13	3	7	3
1068.8828125	n/a	PROB	2189072	n/a	LTP386	ltpFR2	6	n/a	n/a	n/a	6	10	1	5	4
1069.99951171875	n/a	PROB	2191359	n/a	LTP386	ltpFR2	6	n/a	n/a	n/a	6	15	8	2	5
1071.349609375	n/a	PROB	2194124	n/a	LTP386	ltpFR2	6	n/a	n/a	n/a	6	19	7	6	6
1073.96533203125	n/a	PROB	2199481	n/a	LTP386	ltpFR2	6	n/a	n/a	n/a	6	18	8	8	2
1075.30029296875	n/a	PROB	2202215	n/a	LTP386	ltpFR2	6	n/a	n/a	n/a	6	24	9	7	9
1077.31640625	n/a	PROB	2206344	n/a	LTP386	ltpFR2	6	n/a	n/a	n/a	6	20	9	7	4
1079.33349609375	n/a	PROB	2210475	n/a	LTP386	ltpFR2	6	n/a	n/a	n/a	6	17	5	9	3
1080.96533203125	n/a	PROB	2213817	n/a	LTP386	ltpFR2	6	n/a	n/a	n/a	6	23	5	9	8
1083.64794921875	n/a	PROB	2219311	n/a	LTP386	ltpFR2	6	n/a	n/a	n/a	6	18	9	7	2
1085.04931640625	n/a	PROB	2222181	n/a	LTP386	ltpFR2	6	n/a	n/a	n/a	6	20	9	4	7
1086.2060546875	n/a	STOP	2224550	n/a	LTP386	ltpFR2	6	n/a	n/a	n/a	6	n/a	n/a	n/a	n/a
1088.73193359375	n/a	REC_START	2229723	n/a	LTP386	ltpFR2	6	5	n/a	n/a	n/a	n/a	0	0	0
1090.3779296875	n/a	REC_WORD	2233094	wordpools/wasnorm_wordpool_576.txt	LTP386	ltpFR2	6	5	CHAPEL	280	n/a	n/a	0	0	0
1091.64013671875	n/a	REC_WORD	2235679	wordpools/wasnorm_wordpool_576.txt	LTP386	ltpFR2	6	5	FOOT	590	n/a	n/a	0	0	0
1092.68408203125	n/a	REC_WORD	2237817	wordpools/wasnorm_wordpool_576.txt	LTP386	ltpFR2	6	5	MARROW	872	n/a	n/a	0	0	0
1093.5986328125	n/a	REC_WORD	2239690	wordpools/wasnorm_wordpool_576.txt	LTP386	ltpFR2	6	5	LEG	809	n/a	n/a	0	0	0
1097.630859375	n/a	REC_WORD	2247948	wordpools/wasnorm_wordpool_576.txt	LTP386	ltpFR2	6	5	ROCKET	1202	n/a	n/a	0	0	0
1106.05029296875	n/a	REC_WORD	2265191	wordpools/wasnorm_wordpool_576.txt	LTP386	ltpFR2	6	5	FRANCE	601	n/a	n/a	0	0	0
1106.8544921875	n/a	REC_WORD	2266838	wordpools/wasnorm_wordpool_576.txt	LTP386	ltpFR2	6	5	SPOOL	1356	n/a	n/a	0	0	0
1110.16650390625	n/a	REC_WORD	2273621	wordpools/wasnorm_wordpool_576.txt	LTP386	ltpFR2	6	5	DRESS	495	n/a	n/a	0	0	0
1111.1142578125	n/a	REC_WORD	2275562	wordpools/wasnorm_wordpool_576.txt	LTP386	ltpFR2	6	5	LADY	794	n/a	n/a	0	0	0
1113.77001953125	n/a	REC_WORD	2281001	wordpools/wasnorm_wordpool_576.txt	LTP386	ltpFR2	6	5	MISTER	901	n/a	n/a	0	0	0
1116.58203125	n/a	REC_WORD	2286760	wordpools/wasnorm_wordpool_576.txt	LTP386	ltpFR2	6	5	CHAPEL	280	n/a	n/a	0	0	0
1119.35107421875	n/a	REC_WORD	2292431	wordpools/wasnorm_wordpool_576.txt	LTP386	ltpFR2	6	5	AIRPLANE	12	n/a	n/a	0	0	0
1120.421875	n/a	REC_WORD	2294624	wordpools/wasnorm_wordpool_576.txt	LTP386	ltpFR2	6	5	GLOBE	641	n/a	n/a	0	0	0
1149.17333984375	n/a	REC_WORD	2353507	wordpools/wasnorm_wordpool_576.txt	LTP386	ltpFR2	6	5	SUMMIT	1405	n/a	n/a	0	0	0
1179.162109375	n/a	DISTRACTOR	2414924	n/a	LTP386	ltpFR2	6	6	n/a	n/a	n/a	n/a	0	0	0
1179.162109375	n/a	START	2414924	n/a	LTP386	ltpFR2	6	n/a	n/a	n/a	7	n/a	n/a	n/a	n/a
1179.17822265625	n/a	PROB	2414957	n/a	LTP386	ltpFR2	6	n/a	n/a	n/a	7	11	7	1	3
1180.51025390625	n/a	PROB	2417685	n/a	LTP386	ltpFR2	6	n/a	n/a	n/a	7	18	7	5	6
1182.2451171875	n/a	PROB	2421238	n/a	LTP386	ltpFR2	6	n/a	n/a	n/a	7	11	4	6	1
1183.41015625	n/a	PROB	2423624	n/a	LTP386	ltpFR2	6	n/a	n/a	n/a	7	20	8	5	7
1184.7939453125	n/a	PROB	2426458	n/a	LTP386	ltpFR2	6	n/a	n/a	n/a	7	14	2	6	6
1185.92724609375	n/a	PROB	2428779	n/a	LTP386	ltpFR2	6	n/a	n/a	n/a	7	11	2	7	2
1187.2451171875	n/a	PROB	2431478	n/a	LTP386	ltpFR2	6	n/a	n/a	n/a	7	12	3	6	3
1188.44384765625	n/a	PROB	2433933	n/a	LTP386	ltpFR2	6	n/a	n/a	n/a	7	7	3	3	1
1190.06103515625	n/a	PROB	2437245	n/a	LTP386	ltpFR2	6	n/a	n/a	n/a	7	19	5	9	5
1191.2607421875	n/a	PROB	2439702	n/a	LTP386	ltpFR2	6	n/a	n/a	n/a	7	14	7	5	2
1193.2607421875	n/a	PROB	2443798	n/a	LTP386	ltpFR2	6	n/a	n/a	n/a	7	11	5	2	4
1194.85986328125	n/a	PROB	2447073	n/a	LTP386	ltpFR2	6	n/a	n/a	n/a	7	14	4	5	5
1195.94287109375	n/a	PROB	2449291	n/a	LTP386	ltpFR2	6	n/a	n/a	n/a	7	11	8	2	1
1196.9599609375	n/a	PROB	2451374	n/a	LTP386	ltpFR2	6	n/a	n/a	n/a	7	12	2	2	8
1198.509765625	n/a	PROB	2454548	n/a	LTP386	ltpFR2	6	n/a	n/a	n/a	7	13	6	5	2
1200.07763671875	n/a	PROB	2457759	n/a	LTP386	ltpFR2	6	n/a	n/a	n/a	7	18	6	6	6
1202.38037109375	n/a	STOP	2462475	n/a	LTP386	ltpFR2	6	n/a	n/a	n/a	7	n/a	n/a	n/a	n/a
1204.09375	n/a	WORD	2465984	wordpools/wasnorm_wordpool_576.txt	LTP386	ltpFR2	6	6	SLIDE	1326	n/a	n/a	0	0	0
1206.642578125	n/a	WORD	2471204	wordpools/wasnorm_wordpool_576.txt	LTP386	ltpFR2	6	6	PAIL	1002	n/a	n/a	0	0	0
1209.4423828125	n/a	WORD	2476938	wordpools/wasnorm_wordpool_576.txt	LTP386	ltpFR2	6	6	KNIFE	785	n/a	n/a	0	0	0
1211.9921875	n/a	WORD	2482160	wordpools/wasnorm_wordpool_576.txt	LTP386	ltpFR2	6	6	HARP	689	n/a	n/a	0	0	0
1214.80908203125	n/a	WORD	2487929	wordpools/wasnorm_wordpool_576.txt	LTP386	ltpFR2	6	6	CASHIER	254	n/a	n/a	0	0	0
1217.4921875	n/a	WORD	2493424	wordpools/wasnorm_wordpool_576.txt	LTP386	ltpFR2	6	6	RECORD	1176	n/a	n/a	0	0	0
1220.01025390625	n/a	WORD	2498581	wordpools/wasnorm_wordpool_576.txt	LTP386	ltpFR2	6	6	NOVEL	960	n/a	n/a	0	0	0
1222.7919921875	n/a	WORD	2504278	wordpools/wasnorm_wordpool_576.txt	LTP386	ltpFR2	6	6	PICTURE	1061	n/a	n/a	0	0	0
1225.57470703125	n/a	WORD	2509977	wordpools/wasnorm_wordpool_576.txt	LTP386	ltpFR2	6	6	SHARK	1275	n/a	n/a	0	0	0
1228.15966796875	n/a	WORD	2515271	wordpools/wasnorm_wordpool_576.txt	LTP386	ltpFR2	6	6	HONEY	713	n/a	n/a	0	0	0
1230.62451171875	n/a	WORD	2520319	wordpools/wasnorm_wordpool_576.txt	LTP386	ltpFR2	6	6	VAGRANT	1544	n/a	n/a	0	0	0
1233.37451171875	n/a	WORD	2525951	wordpools/wasnorm_wordpool_576.txt	LTP386	ltpFR2	6	6	STAPLE	1371	n/a	n/a	0	0	0
1235.8076171875	n/a	WORD	2530934	wordpools/wasnorm_wordpool_576.txt	LTP386	ltpFR2	6	6	EXPERT	543	n/a	n/a	0	0	0
1238.24267578125	n/a	WORD	2535921	wordpools/wasnorm_wordpool_576.txt	LTP386	ltpFR2	6	6	TEACHER	1440	n/a	n/a	0	0	0
1240.82421875	n/a	WORD	2541208	wordpools/wasnorm_wordpool_576.txt	LTP386	ltpFR2	6	6	THIEF	1456	n/a	n/a	0	0	0
1243.6572265625	n/a	WORD	2547010	wordpools/wasnorm_wordpool_576.txt	LTP386	ltpFR2	6	6	STATUE	1374	n/a	n/a	0	0	0
1246.25830078125	n/a	WORD	2552337	wordpools/wasnorm_wordpool_576.txt	LTP386	ltpFR2	6	6	CLAMP	316	n/a	n/a	0	0	0
1248.94140625	n/a	WORD	2557832	wordpools/wasnorm_wordpool_576.txt	LTP386	ltpFR2	6	6	SCARECROW	1245	n/a	n/a	0	0	0
1251.50732421875	n/a	WORD	2563087	wordpools/wasnorm_wordpool_576.txt	LTP386	ltpFR2	6	6	THREAD	1460	n/a	n/a	0	0	0
1254.2578125	n/a	WORD	2568720	wordpools/wasnorm_wordpool_576.txt	LTP386	ltpFR2	6	6	MASK	876	n/a	n/a	0	0	0
1256.89013671875	n/a	WORD	2574111	wordpools/wasnorm_wordpool_576.txt	LTP386	ltpFR2	6	6	PIANO	1057	n/a	n/a	0	0	0
1259.48974609375	n/a	WORD	2579435	wordpools/wasnorm_wordpool_576.txt	LTP386	ltpFR2	6	6	RAZOR	1171	n/a	n/a	0	0	0
1262.27490234375	n/a	WORD	2585139	wordpools/wasnorm_wordpool_576.txt	LTP386	ltpFR2	6	6	PIGEON	1065	n/a	n/a	0	0	0
1264.9736328125	n/a	WORD	2590666	wordpools/wasnorm_wordpool_576.txt	LTP386	ltpFR2	6	6	EAGLE	512	n/a	n/a	0	0	0
1266.5908203125	n/a	START	2593978	n/a	LTP386	ltpFR2	6	n/a	n/a	n/a	8	n/a	n/a	n/a	n/a
1267.54541015625	n/a	DISTRACTOR	2595933	n/a	LTP386	ltpFR2	6	6	n/a	n/a	n/a	n/a	0	0	0
1267.57373046875	n/a	PROB	2595991	n/a	LTP386	ltpFR2	6	n/a	n/a	n/a	8	21	5	8	8
1269.57373046875	n/a	PROB	2600087	n/a	LTP386	ltpFR2	6	n/a	n/a	n/a	8	17	8	1	8
1271.04052734375	n/a	PROB	2603091	n/a	LTP386	ltpFR2	6	n/a	n/a	n/a	8	18	5	7	6
1273.5234375	n/a	PROB	2608176	n/a	LTP386	ltpFR2	6	n/a	n/a	n/a	8	11	5	1	5
1274.53955078125	n/a	PROB	2610257	n/a	LTP386	ltpFR2	6	n/a	n/a	n/a	8	16	4	5	7
1276.38916015625	n/a	PROB	2614045	n/a	LTP386	ltpFR2	6	n/a	n/a	n/a	8	16	4	8	4
1277.97314453125	n/a	PROB	2617289	n/a	LTP386	ltpFR2	6	n/a	n/a	n/a	8	17	7	1	9
1279.92333984375	n/a	PROB	2621283	n/a	LTP386	ltpFR2	6	n/a	n/a	n/a	8	23	9	9	5
1281.7392578125	n/a	PROB	2625002	n/a	LTP386	ltpFR2	6	n/a	n/a	n/a	8	14	7	4	3
1283.85595703125	n/a	PROB	2629337	n/a	LTP386	ltpFR2	6	n/a	n/a	n/a	8	14	8	1	3
1285.93896484375	n/a	PROB	2633603	n/a	LTP386	ltpFR2	6	n/a	n/a	n/a	8	6	3	1	2
1287.8388671875	n/a	PROB	2637494	n/a	LTP386	ltpFR2	6	n/a	n/a	n/a	8	18	8	3	7
1289.43701171875	n/a	STOP	2640767	n/a	LTP386	ltpFR2	6	n/a	n/a	n/a	8	n/a	n/a	n/a	n/a
1292.388671875	n/a	REC_START	2646812	n/a	LTP386	ltpFR2	6	6	n/a	n/a	n/a	n/a	0	0	0
1294.02294921875	n/a	REC_WORD	2650159	wordpools/wasnorm_wordpool_576.txt	LTP386	ltpFR2	6	6	THREAD	1460	n/a	n/a	0	0	0
1301.68359375	n/a	REC_WORD	2665848	wordpools/wasnorm_wordpool_576.txt	LTP386	ltpFR2	6	6	KNIFE	785	n/a	n/a	0	0	0
1304.6474609375	n/a	REC_WORD	2671918	wordpools/wasnorm_wordpool_576.txt	LTP386	ltpFR2	6	6	RAZOR	1171	n/a	n/a	0	0	0
1307.814453125	n/a	REC_WORD	2678404	wordpools/wasnorm_wordpool_576.txt	LTP386	ltpFR2	6	6	VAGRANT	1544	n/a	n/a	0	0	0
1309.08056640625	n/a	REC_WORD	2680997	wordpools/wasnorm_wordpool_576.txt	LTP386	ltpFR2	6	6	THIEF	1456	n/a	n/a	0	0	0
1311.45947265625	n/a	REC_WORD	2685869	wordpools/wasnorm_wordpool_576.txt	LTP386	ltpFR2	6	6	TEACHER	1440	n/a	n/a	0	0	0
1312.54443359375	n/a	REC_WORD	2688091	wordpools/wasnorm_wordpool_576.txt	LTP386	ltpFR2	6	6	EXPERT	543	n/a	n/a	0	0	0
1315.17236328125	n/a	REC_WORD	2693473	wordpools/wasnorm_wordpool_576.txt	LTP386	ltpFR2	6	6	SCARECROW	1245	n/a	n/a	0	0	0
1316.16015625	n/a	REC_WORD	2695496	wordpools/wasnorm_wordpool_576.txt	LTP386	ltpFR2	6	6	PIGEON	1065	n/a	n/a	0	0	0
1317.05712890625	n/a	REC_WORD	2697333	wordpools/wasnorm_wordpool_576.txt	LTP386	ltpFR2	6	6	EAGLE	512	n/a	n/a	0	0	0
1319.30615234375	n/a	REC_WORD	2701939	wordpools/wasnorm_wordpool_576.txt	LTP386	ltpFR2	6	6	MASK	876	n/a	n/a	0	0	0
1382.833984375	n/a	DISTRACTOR	2832044	n/a	LTP386	ltpFR2	6	7	n/a	n/a	n/a	n/a	0	0	0
1382.8349609375	n/a	START	2832046	n/a	LTP386	ltpFR2	6	n/a	n/a	n/a	9	n/a	n/a	n/a	n/a
1382.85107421875	n/a	PROB	2832079	n/a	LTP386	ltpFR2	6	n/a	n/a	n/a	9	16	5	8	3
1385.35107421875	n/a	PROB	2837199	n/a	LTP386	ltpFR2	6	n/a	n/a	n/a	9	18	4	7	7
1386.583984375	n/a	PROB	2839724	n/a	LTP386	ltpFR2	6	n/a	n/a	n/a	9	17	7	3	7
1387.81787109375	n/a	PROB	2842251	n/a	LTP386	ltpFR2	6	n/a	n/a	n/a	9	9	3	3	3
1388.85107421875	n/a	PROB	2844367	n/a	LTP386	ltpFR2	6	n/a	n/a	n/a	9	12	2	7	3
1390.001953125	n/a	PROB	2846724	n/a	LTP386	ltpFR2	6	n/a	n/a	n/a	9	17	5	7	5
1391.53369140625	n/a	PROB	2849861	n/a	LTP386	ltpFR2	6	n/a	n/a	n/a	9	19	6	7	6
1393.134765625	n/a	PROB	2853140	n/a	LTP386	ltpFR2	6	n/a	n/a	n/a	9	16	6	2	8
1394.5009765625	n/a	PROB	2855938	n/a	LTP386	ltpFR2	6	n/a	n/a	n/a	9	20	7	7	6
1396.61767578125	n/a	PROB	2860273	n/a	LTP386	ltpFR2	6	n/a	n/a	n/a	9	13	4	5	4
1398.91650390625	n/a	PROB	2864981	n/a	LTP386	ltpFR2	6	n/a	n/a	n/a	9	4	1	2	1
1400.16748046875	n/a	PROB	2867543	n/a	LTP386	ltpFR2	6	n/a	n/a	n/a	9	7	4	2	1
1401.78369140625	n/a	PROB	2870853	n/a	LTP386	ltpFR2	6	n/a	n/a	n/a	9	14	2	8	4
1403.66650390625	n/a	PROB	2874709	n/a	LTP386	ltpFR2	6	n/a	n/a	n/a	9	16	4	3	9
1404.96630859375	n/a	PROB	2877371	n/a	LTP386	ltpFR2	6	n/a	n/a	n/a	9	11	1	2	8
1406.16552734375	n/a	STOP	2879827	n/a	LTP386	ltpFR2	6	n/a	n/a	n/a	9	n/a	n/a	n/a	n/a
1408.00146484375	n/a	WORD	2883587	wordpools/wasnorm_wordpool_576.txt	LTP386	ltpFR2	6	7	MAMMAL	861	n/a	n/a	0	0	0
1410.75048828125	n/a	WORD	2889217	wordpools/wasnorm_wordpool_576.txt	LTP386	ltpFR2	6	7	VALVE	1546	n/a	n/a	0	0	0
1413.30029296875	n/a	WORD	2894439	wordpools/wasnorm_wordpool_576.txt	LTP386	ltpFR2	6	7	TORTOISE	1486	n/a	n/a	0	0	0
1415.93310546875	n/a	WORD	2899831	wordpools/wasnorm_wordpool_576.txt	LTP386	ltpFR2	6	7	SODA	1341	n/a	n/a	0	0	0
1418.51611328125	n/a	WORD	2905121	wordpools/wasnorm_wordpool_576.txt	LTP386	ltpFR2	6	7	BUREAU	199	n/a	n/a	0	0	0
1420.98291015625	n/a	WORD	2910173	wordpools/wasnorm_wordpool_576.txt	LTP386	ltpFR2	6	7	DASHBOARD	441	n/a	n/a	0	0	0
1423.68310546875	n/a	WORD	2915703	wordpools/wasnorm_wordpool_576.txt	LTP386	ltpFR2	6	7	TRACTOR	1493	n/a	n/a	0	0	0
1426.25	n/a	WORD	2920960	wordpools/wasnorm_wordpool_576.txt	LTP386	ltpFR2	6	7	LEADER	807	n/a	n/a	0	0	0
1428.78271484375	n/a	WORD	2926147	wordpools/wasnorm_wordpool_576.txt	LTP386	ltpFR2	6	7	PEACH	1031	n/a	n/a	0	0	0
1431.53271484375	n/a	WORD	2931779	wordpools/wasnorm_wordpool_576.txt	LTP386	ltpFR2	6	7	PLIERS	1089	n/a	n/a	0	0	0
1434.1494140625	n/a	WORD	2937138	wordpools/wasnorm_wordpool_576.txt	LTP386	ltpFR2	6	7	STAMP	1370	n/a	n/a	0	0	0
1436.58251953125	n/a	WORD	2942121	wordpools/wasnorm_wordpool_576.txt	LTP386	ltpFR2	6	7	STICKER	1382	n/a	n/a	0	0	0
1439.19921875	n/a	WORD	2947480	wordpools/wasnorm_wordpool_576.txt	LTP386	ltpFR2	6	7	CYCLONE	431	n/a	n/a	0	0	0
1441.8154296875	n/a	WORD	2952838	wordpools/wasnorm_wordpool_576.txt	LTP386	ltpFR2	6	7	MOTOR	922	n/a	n/a	0	0	0
1444.6484375	n/a	WORD	2958640	wordpools/wasnorm_wordpool_576.txt	LTP386	ltpFR2	6	7	BRAKE	166	n/a	n/a	0	0	0
1447.08203125	n/a	WORD	2963624	wordpools/wasnorm_wordpool_576.txt	LTP386	ltpFR2	6	7	CHEST	295	n/a	n/a	0	0	0
1449.76513671875	n/a	WORD	2969119	wordpools/wasnorm_wordpool_576.txt	LTP386	ltpFR2	6	7	TWISTER	1530	n/a	n/a	0	0	0
1452.4482421875	n/a	WORD	2974614	wordpools/wasnorm_wordpool_576.txt	LTP386	ltpFR2	6	7	TAXI	1438	n/a	n/a	0	0	0
1455.18212890625	n/a	WORD	2980213	wordpools/wasnorm_wordpool_576.txt	LTP386	ltpFR2	6	7	GROUND	666	n/a	n/a	0	0	0
1457.9306640625	n/a	WORD	2985842	wordpools/wasnorm_wordpool_576.txt	LTP386	ltpFR2	6	7	GRAVEL	659	n/a	n/a	0	0	0
1460.4306640625	n/a	WORD	2990962	wordpools/wasnorm_wordpool_576.txt	LTP386	ltpFR2	6	7	LETTUCE	814	n/a	n/a	0	0	0
1462.98046875	n/a	WORD	2996184	wordpools/wasnorm_wordpool_576.txt	LTP386	ltpFR2	6	7	OMELET	976	n/a	n/a	0	0	0
1465.5478515625	n/a	WORD	3001442	wordpools/wasnorm_wordpool_576.txt	LTP386	ltpFR2	6	7	BACON	67	n/a	n/a	0	0	0
1468.13134765625	n/a	WORD	3006733	wordpools/wasnorm_wordpool_576.txt	LTP386	ltpFR2	6	7	DINER	467	n/a	n/a	0	0	0
1469.74755859375	n/a	START	3010043	n/a	LTP386	ltpFR2	6	n/a	n/a	n/a	10	n/a	n/a	n/a	n/a
1470.91845703125	n/a	DISTRACTOR	3012441	n/a	LTP386	ltpFR2	6	7	n/a	n/a	n/a	n/a	0	0	0
1470.9306640625	n/a	PROB	3012466	n/a	LTP386	ltpFR2	6	n/a	n/a	n/a	10	6	8	5	9
1473.71337890625	n/a	PROB	3018165	n/a	LTP386	ltpFR2	6	n/a	n/a	n/a	10	18	4	7	7
1474.88037109375	n/a	PROB	3020555	n/a	LTP386	ltpFR2	6	n/a	n/a	n/a	10	6	1	1	4
1475.8974609375	n/a	PROB	3022638	n/a	LTP386	ltpFR2	6	n/a	n/a	n/a	10	15	7	1	7
1477.29833984375	n/a	PROB	3025507	n/a	LTP386	ltpFR2	6	n/a	n/a	n/a	10	12	6	5	1
1478.59619140625	n/a	PROB	3028165	n/a	LTP386	ltpFR2	6	n/a	n/a	n/a	10	5	5	9	8
1479.9970703125	n/a	PROB	3031034	n/a	LTP386	ltpFR2	6	n/a	n/a	n/a	10	16	1	9	6
1481.63037109375	n/a	PROB	3034379	n/a	LTP386	ltpFR2	6	n/a	n/a	n/a	10	18	3	9	6
1483.81298828125	n/a	PROB	3038849	n/a	LTP386	ltpFR2	6	n/a	n/a	n/a	10	21	5	7	9
1485.47998046875	n/a	PROB	3042263	n/a	LTP386	ltpFR2	6	n/a	n/a	n/a	10	16	4	6	6
1487.86279296875	n/a	PROB	3047143	n/a	LTP386	ltpFR2	6	n/a	n/a	n/a	10	15	3	4	9
1489.6796875	n/a	PROB	3050864	n/a	LTP386	ltpFR2	6	n/a	n/a	n/a	10	6	1	4	1
1490.81298828125	n/a	PROB	3053185	n/a	LTP386	ltpFR2	6	n/a	n/a	n/a	10	9	2	3	4
1492.32568359375	n/a	STOP	3056283	n/a	LTP386	ltpFR2	6	n/a	n/a	n/a	10	n/a	n/a	n/a	n/a
1495.513671875	n/a	REC_START	3062812	n/a	LTP386	ltpFR2	6	7	n/a	n/a	n/a	n/a	0	0	0
1496.86962890625	n/a	REC_WORD	3065589	wordpools/wasnorm_wordpool_576.txt	LTP386	ltpFR2	6	7	PLIERS	1089	n/a	n/a	0	0	0
1497.86083984375	n/a	REC_WORD	3067619	wordpools/wasnorm_wordpool_576.txt	LTP386	ltpFR2	6	7	STAMP	1370	n/a	n/a	0	0	0
1498.79345703125	n/a	REC_WORD	3069529	wordpools/wasnorm_wordpool_576.txt	LTP386	ltpFR2	6	7	STICKER	1382	n/a	n/a	0	0	0
1501.2724609375	n/a	REC_WORD	3074606	wordpools/wasnorm_wordpool_576.txt	LTP386	ltpFR2	6	7	CHEST	295	n/a	n/a	0	0	0
1502.03076171875	n/a	REC_WORD	3076159	wordpools/wasnorm_wordpool_576.txt	LTP386	ltpFR2	6	7	VALVE	1546	n/a	n/a	0	0	0
1502.771484375	n/a	REC_WORD	3077676	wordpools/wasnorm_wordpool_576.txt	LTP386	ltpFR2	6	7	MAMMAL	861	n/a	n/a	0	0	0
1503.5234375	n/a	REC_WORD	3079216	wordpools/wasnorm_wordpool_576.txt	LTP386	ltpFR2	6	7	TORTOISE	1486	n/a	n/a	0	0	0
1506.55029296875	n/a	REC_WORD	3085415	wordpools/wasnorm_wordpool_576.txt	LTP386	ltpFR2	6	7	CANDY	230	n/a	n/a	0	0	0
1511.4091796875	n/a	REC_WORD	3095366	wordpools/wasnorm_wordpool_576.txt	LTP386	ltpFR2	6	7	OMELET	976	n/a	n/a	0	0	0
1512.92431640625	n/a	REC_WORD	3098469	wordpools/wasnorm_wordpool_576.txt	LTP386	ltpFR2	6	7	BACON	67	n/a	n/a	0	0	0
1513.8701171875	n/a	REC_WORD	3100406	wordpools/wasnorm_wordpool_576.txt	LTP386	ltpFR2	6	7	LETTUCE	814	n/a	n/a	0	0	0
1514.7802734375	n/a	REC_WORD	3102270	wordpools/wasnorm_wordpool_576.txt	LTP386	ltpFR2	6	7	DINER	467	n/a	n/a	0	0	0
1516.7861328125	n/a	REC_WORD	3106378	wordpools/wasnorm_wordpool_576.txt	LTP386	ltpFR2	6	7	TWISTER	1530	n/a	n/a	0	0	0
1517.67919921875	n/a	REC_WORD	3108207	wordpools/wasnorm_wordpool_576.txt	LTP386	ltpFR2	6	7	TAXI	1438	n/a	n/a	0	0	0
1585.94189453125	n/a	DISTRACTOR	3248009	n/a	LTP386	ltpFR2	6	8	n/a	n/a	n/a	n/a	0	0	0
1585.94189453125	n/a	START	3248009	n/a	LTP386	ltpFR2	6	n/a	n/a	n/a	11	n/a	n/a	n/a	n/a
1585.9580078125	n/a	PROB	3248042	n/a	LTP386	ltpFR2	6	n/a	n/a	n/a	11	20	8	6	6
1587.30908203125	n/a	PROB	3250809	n/a	LTP386	ltpFR2	6	n/a	n/a	n/a	11	8	4	3	1
1588.4580078125	n/a	PROB	3253162	n/a	LTP386	ltpFR2	6	n/a	n/a	n/a	11	12	2	6	4
1589.591796875	n/a	PROB	3255484	n/a	LTP386	ltpFR2	6	n/a	n/a	n/a	11	19	5	5	9
1590.77490234375	n/a	PROB	3257907	n/a	LTP386	ltpFR2	6	n/a	n/a	n/a	11	12	9	1	2
1592.02587890625	n/a	PROB	3260469	n/a	LTP386	ltpFR2	6	n/a	n/a	n/a	11	24	9	6	9
1594.49169921875	n/a	PROB	3265519	n/a	LTP386	ltpFR2	6	n/a	n/a	n/a	11	13	6	5	2
1595.85791015625	n/a	PROB	3268317	n/a	LTP386	ltpFR2	6	n/a	n/a	n/a	11	10	1	3	6
1597.05859375	n/a	PROB	3270776	n/a	LTP386	ltpFR2	6	n/a	n/a	n/a	11	20	6	7	7
1598.17578125	n/a	PROB	3273064	n/a	LTP386	ltpFR2	6	n/a	n/a	n/a	11	14	7	6	1
1600.7744140625	n/a	PROB	3278386	n/a	LTP386	ltpFR2	6	n/a	n/a	n/a	11	15	8	5	2
1602.45751953125	n/a	PROB	3281833	n/a	LTP386	ltpFR2	6	n/a	n/a	n/a	11	22	9	7	6
1604.17529296875	n/a	PROB	3285351	n/a	LTP386	ltpFR2	6	n/a	n/a	n/a	11	12	3	3	6
1605.8076171875	n/a	PROB	3288694	n/a	LTP386	ltpFR2	6	n/a	n/a	n/a	11	12	3	2	7
1607.2255859375	n/a	PROB	3291598	n/a	LTP386	ltpFR2	6	n/a	n/a	n/a	11	12	2	2	8
1608.4072265625	n/a	PROB	3294018	n/a	LTP386	ltpFR2	6	n/a	n/a	n/a	11	14	2	8	4
1609.6044921875	n/a	STOP	3296470	n/a	LTP386	ltpFR2	6	n/a	n/a	n/a	11	n/a	n/a	n/a	n/a
1611.041015625	n/a	WORD	3299412	wordpools/wasnorm_wordpool_576.txt	LTP386	ltpFR2	6	8	TUTU	1524	n/a	n/a	0	0	0
1613.57421875	n/a	WORD	3304600	wordpools/wasnorm_wordpool_576.txt	LTP386	ltpFR2	6	8	LAPEL	800	n/a	n/a	0	0	0
1616.30810546875	n/a	WORD	3310199	wordpools/wasnorm_wordpool_576.txt	LTP386	ltpFR2	6	8	TRENCH	1503	n/a	n/a	0	0	0
1619.10791015625	n/a	WORD	3315933	wordpools/wasnorm_wordpool_576.txt	LTP386	ltpFR2	6	8	BREAST	171	n/a	n/a	0	0	0
1621.6728515625	n/a	WORD	3321186	wordpools/wasnorm_wordpool_576.txt	LTP386	ltpFR2	6	8	WOMAN	1620	n/a	n/a	0	0	0
1624.173828125	n/a	WORD	3326308	wordpools/wasnorm_wordpool_576.txt	LTP386	ltpFR2	6	8	BALLOON	75	n/a	n/a	0	0	0
1626.85693359375	n/a	WORD	3331803	wordpools/wasnorm_wordpool_576.txt	LTP386	ltpFR2	6	8	MARS	873	n/a	n/a	0	0	0
1629.29052734375	n/a	WORD	3336787	wordpools/wasnorm_wordpool_576.txt	LTP386	ltpFR2	6	8	DRESSER	496	n/a	n/a	0	0	0
1631.97265625	n/a	WORD	3342280	wordpools/wasnorm_wordpool_576.txt	LTP386	ltpFR2	6	8	DANCER	437	n/a	n/a	0	0	0
1634.58935546875	n/a	WORD	3347639	wordpools/wasnorm_wordpool_576.txt	LTP386	ltpFR2	6	8	CLOTHES	327	n/a	n/a	0	0	0
1637.140625	n/a	WORD	3352864	wordpools/wasnorm_wordpool_576.txt	LTP386	ltpFR2	6	8	BROOK	177	n/a	n/a	0	0	0
1639.9052734375	n/a	WORD	3358526	wordpools/wasnorm_wordpool_576.txt	LTP386	ltpFR2	6	8	DIVER	476	n/a	n/a	0	0	0
1642.33935546875	n/a	WORD	3363511	wordpools/wasnorm_wordpool_576.txt	LTP386	ltpFR2	6	8	HAND	683	n/a	n/a	0	0	0
1644.83935546875	n/a	WORD	3368631	wordpools/wasnorm_wordpool_576.txt	LTP386	ltpFR2	6	8	SPIDER	1351	n/a	n/a	0	0	0
1647.38916015625	n/a	WORD	3373853	wordpools/wasnorm_wordpool_576.txt	LTP386	ltpFR2	6	8	SCOTCH	1251	n/a	n/a	0	0	0
1649.921875	n/a	WORD	3379040	wordpools/wasnorm_wordpool_576.txt	LTP386	ltpFR2	6	8	WAITRESS	1581	n/a	n/a	0	0	0
1652.421875	n/a	WORD	3384160	wordpools/wasnorm_wordpool_576.txt	LTP386	ltpFR2	6	8	WRIST	1626	n/a	n/a	0	0	0
1655.02294921875	n/a	WORD	3389487	wordpools/wasnorm_wordpool_576.txt	LTP386	ltpFR2	6	8	TUBA	1515	n/a	n/a	0	0	0
1657.48876953125	n/a	WORD	3394537	wordpools/wasnorm_wordpool_576.txt	LTP386	ltpFR2	6	8	BLACKBOARD	133	n/a	n/a	0	0	0
1660.15576171875	n/a	WORD	3399999	wordpools/wasnorm_wordpool_576.txt	LTP386	ltpFR2	6	8	EUROPE	541	n/a	n/a	0	0	0
1662.65478515625	n/a	WORD	3405117	wordpools/wasnorm_wordpool_576.txt	LTP386	ltpFR2	6	8	WARDROBE	1587	n/a	n/a	0	0	0
1665.3876953125	n/a	WORD	3410714	wordpools/wasnorm_wordpool_576.txt	LTP386	ltpFR2	6	8	PLASTER	1085	n/a	n/a	0	0	0
1667.9375	n/a	WORD	3415936	wordpools/wasnorm_wordpool_576.txt	LTP386	ltpFR2	6	8	WORKER	1621	n/a	n/a	0	0	0
1670.521484375	n/a	WORD	3421228	wordpools/wasnorm_wordpool_576.txt	LTP386	ltpFR2	6	8	HATCHET	691	n/a	n/a	0	0	0
1672.13818359375	n/a	START	3424539	n/a	LTP386	ltpFR2	6	n/a	n/a	n/a	12	n/a	n/a	n/a	n/a
1673.1845703125	n/a	DISTRACTOR	3426682	n/a	LTP386	ltpFR2	6	8	n/a	n/a	n/a	n/a	0	0	0
1673.1884765625	n/a	PROB	3426690	n/a	LTP386	ltpFR2	6	n/a	n/a	n/a	12	18	6	3	9
1675.072265625	n/a	PROB	3430548	n/a	LTP386	ltpFR2	6	n/a	n/a	n/a	12	20	9	8	3
1676.38720703125	n/a	PROB	3433241	n/a	LTP386	ltpFR2	6	n/a	n/a	n/a	12	20	8	6	6
1677.654296875	n/a	PROB	3435836	n/a	LTP386	ltpFR2	6	n/a	n/a	n/a	12	18	1	8	9
1678.92041015625	n/a	PROB	3438429	n/a	LTP386	ltpFR2	6	n/a	n/a	n/a	12	22	7	7	8
1683.3212890625	n/a	PROB	3447442	n/a	LTP386	ltpFR2	6	n/a	n/a	n/a	12	21	6	7	8
1684.787109375	n/a	PROB	3450444	n/a	LTP386	ltpFR2	6	n/a	n/a	n/a	12	12	5	5	2
1685.8369140625	n/a	PROB	3452594	n/a	LTP386	ltpFR2	6	n/a	n/a	n/a	12	6	1	1	4
1686.85400390625	n/a	PROB	3454677	n/a	LTP386	ltpFR2	6	n/a	n/a	n/a	12	11	6	4	1
1687.77001953125	n/a	PROB	3456553	n/a	LTP386	ltpFR2	6	n/a	n/a	n/a	12	18	4	9	5
1689.2548828125	n/a	PROB	3459594	n/a	LTP386	ltpFR2	6	n/a	n/a	n/a	12	17	7	2	8
1691.8037109375	n/a	PROB	3464814	n/a	LTP386	ltpFR2	6	n/a	n/a	n/a	12	14	3	5	6
1694.0546875	n/a	PROB	3469424	n/a	LTP386	ltpFR2	6	n/a	n/a	n/a	12	16	9	3	4
1695.52490234375	n/a	STOP	3472435	n/a	LTP386	ltpFR2	6	n/a	n/a	n/a	12	n/a	n/a	n/a	n/a
1697.970703125	n/a	REC_START	3477444	n/a	LTP386	ltpFR2	6	8	n/a	n/a	n/a	n/a	0	0	0
1702.3232421875	n/a	REC_WORD	3486358	wordpools/wasnorm_wordpool_576.txt	LTP386	ltpFR2	6	8	DRESSER	496	n/a	n/a	0	0	0
1702.9775390625	n/a	REC_WORD	3487698	wordpools/wasnorm_wordpool_576.txt	LTP386	ltpFR2	6	8	WARDROBE	1587	n/a	n/a	0	0	0
1704.30126953125	n/a	REC_WORD	3490409	wordpools/wasnorm_wordpool_576.txt	LTP386	ltpFR2	6	8	LAPEL	800	n/a	n/a	0	0	0
1706.43359375	n/a	REC_WORD	3494776	wordpools/wasnorm_wordpool_576.txt	LTP386	ltpFR2	6	8	TRENCH	1503	n/a	n/a	0	0	0
1707.77734375	n/a	REC_WORD	3497528	wordpools/wasnorm_wordpool_576.txt	LTP386	ltpFR2	6	8	BREAST	171	n/a	n/a	0	0	0
1709.06640625	n/a	REC_WORD	3500168	wordpools/wasnorm_wordpool_576.txt	LTP386	ltpFR2	6	8	HATCHET	691	n/a	n/a	0	0	0
1715.0458984375	n/a	REC_WORD	3512414	wordpools/wasnorm_wordpool_576.txt	LTP386	ltpFR2	6	8	PLASTER	1085	n/a	n/a	0	0	0
1743.04345703125	n/a	REC_WORD	3569753	wordpools/wasnorm_wordpool_576.txt	LTP386	ltpFR2	6	8	WOMAN	1620	n/a	n/a	0	0	0
1774.51611328125	n/a	REST_REWET	3634209	n/a	LTP386	ltpFR2	6	8	n/a	n/a	n/a	n/a	0	0	0
1960.60791015625	n/a	DISTRACTOR	4015325	n/a	LTP386	ltpFR2	6	9	n/a	n/a	n/a	n/a	0	0	0
1960.60791015625	n/a	START	4015325	n/a	LTP386	ltpFR2	6	n/a	n/a	n/a	13	n/a	n/a	n/a	n/a
1960.62451171875	n/a	PROB	4015359	n/a	LTP386	ltpFR2	6	n/a	n/a	n/a	13	14	7	4	3
1962.17578125	n/a	PROB	4018536	n/a	LTP386	ltpFR2	6	n/a	n/a	n/a	13	19	5	5	9
1963.2587890625	n/a	PROB	4020754	n/a	LTP386	ltpFR2	6	n/a	n/a	n/a	13	23	8	7	8
1966.4736328125	n/a	PROB	4027338	n/a	LTP386	ltpFR2	6	n/a	n/a	n/a	13	14	1	4	9
1967.9404296875	n/a	PROB	4030342	n/a	LTP386	ltpFR2	6	n/a	n/a	n/a	13	18	3	6	9
1969.1416015625	n/a	PROB	4032802	n/a	LTP386	ltpFR2	6	n/a	n/a	n/a	13	9	1	1	7
1970.2412109375	n/a	PROB	4035054	n/a	LTP386	ltpFR2	6	n/a	n/a	n/a	13	10	2	2	6
1971.740234375	n/a	PROB	4038124	n/a	LTP386	ltpFR2	6	n/a	n/a	n/a	13	15	8	2	5
1972.95751953125	n/a	PROB	4040617	n/a	LTP386	ltpFR2	6	n/a	n/a	n/a	13	15	5	4	6
1974.2412109375	n/a	PROB	4043246	n/a	LTP386	ltpFR2	6	n/a	n/a	n/a	13	21	7	5	9
1976.357421875	n/a	PROB	4047580	n/a	LTP386	ltpFR2	6	n/a	n/a	n/a	13	15	7	5	3
1977.77294921875	n/a	PROB	4050479	n/a	LTP386	ltpFR2	6	n/a	n/a	n/a	13	18	4	7	7
1979.10693359375	n/a	PROB	4053211	n/a	LTP386	ltpFR2	6	n/a	n/a	n/a	13	12	4	5	3
1981.291015625	n/a	PROB	4057684	n/a	LTP386	ltpFR2	6	n/a	n/a	n/a	13	11	1	3	7
1982.39013671875	n/a	PROB	4059935	n/a	LTP386	ltpFR2	6	n/a	n/a	n/a	13	8	1	3	4
1984.28515625	n/a	STOP	4063816	n/a	LTP386	ltpFR2	6	n/a	n/a	n/a	13	n/a	n/a	n/a	n/a
1985.55615234375	n/a	WORD	4066419	wordpools/wasnorm_wordpool_576.txt	LTP386	ltpFR2	6	9	PARENT	1013	n/a	n/a	0	0	0
1988.0068359375	n/a	WORD	4071438	wordpools/wasnorm_wordpool_576.txt	LTP386	ltpFR2	6	9	INFANT	737	n/a	n/a	0	0	0
1990.73974609375	n/a	WORD	4077035	wordpools/wasnorm_wordpool_576.txt	LTP386	ltpFR2	6	9	COUNTRY	388	n/a	n/a	0	0	0
1993.37255859375	n/a	WORD	4082427	wordpools/wasnorm_wordpool_576.txt	LTP386	ltpFR2	6	9	CRITIC	410	n/a	n/a	0	0	0
1995.82275390625	n/a	WORD	4087445	wordpools/wasnorm_wordpool_576.txt	LTP386	ltpFR2	6	9	COCOON	339	n/a	n/a	0	0	0
1998.28955078125	n/a	WORD	4092497	wordpools/wasnorm_wordpool_576.txt	LTP386	ltpFR2	6	9	APPLE	33	n/a	n/a	0	0	0
2001.056640625	n/a	WORD	4098164	wordpools/wasnorm_wordpool_576.txt	LTP386	ltpFR2	6	9	PECAN	1036	n/a	n/a	0	0	0
2003.6552734375	n/a	WORD	4103486	wordpools/wasnorm_wordpool_576.txt	LTP386	ltpFR2	6	9	BABY	64	n/a	n/a	0	0	0
2006.42236328125	n/a	WORD	4109153	wordpools/wasnorm_wordpool_576.txt	LTP386	ltpFR2	6	9	CEILING	265	n/a	n/a	0	0	0
2008.97216796875	n/a	WORD	4114375	wordpools/wasnorm_wordpool_576.txt	LTP386	ltpFR2	6	9	HOOD	714	n/a	n/a	0	0	0
2011.47216796875	n/a	WORD	4119495	wordpools/wasnorm_wordpool_576.txt	LTP386	ltpFR2	6	9	TUNNEL	1519	n/a	n/a	0	0	0
2013.955078125	n/a	WORD	4124580	wordpools/wasnorm_wordpool_576.txt	LTP386	ltpFR2	6	9	TWIG	1527	n/a	n/a	0	0	0
2016.455078125	n/a	WORD	4129700	wordpools/wasnorm_wordpool_576.txt	LTP386	ltpFR2	6	9	BEEF	113	n/a	n/a	0	0	0
2019.2060546875	n/a	WORD	4135334	wordpools/wasnorm_wordpool_576.txt	LTP386	ltpFR2	6	9	MEAT	883	n/a	n/a	0	0	0
2021.8046875	n/a	WORD	4140656	wordpools/wasnorm_wordpool_576.txt	LTP386	ltpFR2	6	9	MUSTARD	935	n/a	n/a	0	0	0
2024.40478515625	n/a	WORD	4145981	wordpools/wasnorm_wordpool_576.txt	LTP386	ltpFR2	6	9	COUNTY	389	n/a	n/a	0	0	0
2026.95458984375	n/a	WORD	4151203	wordpools/wasnorm_wordpool_576.txt	LTP386	ltpFR2	6	9	ZEBRA	1635	n/a	n/a	0	0	0
2029.720703125	n/a	WORD	4156868	wordpools/wasnorm_wordpool_576.txt	LTP386	ltpFR2	6	9	HORNET	718	n/a	n/a	0	0	0
2032.4375	n/a	WORD	4162432	wordpools/wasnorm_wordpool_576.txt	LTP386	ltpFR2	6	9	CONCERT	360	n/a	n/a	0	0	0
2035.20556640625	n/a	WORD	4168101	wordpools/wasnorm_wordpool_576.txt	LTP386	ltpFR2	6	9	POLICE	1098	n/a	n/a	0	0	0
2037.72021484375	n/a	WORD	4173251	wordpools/wasnorm_wordpool_576.txt	LTP386	ltpFR2	6	9	CRICKET	408	n/a	n/a	0	0	0
2040.4873046875	n/a	WORD	4178918	wordpools/wasnorm_wordpool_576.txt	LTP386	ltpFR2	6	9	HEART	697	n/a	n/a	0	0	0
2043.30517578125	n/a	WORD	4184689	wordpools/wasnorm_wordpool_576.txt	LTP386	ltpFR2	6	9	BEAST	108	n/a	n/a	0	0	0
2045.77001953125	n/a	WORD	4189737	wordpools/wasnorm_wordpool_576.txt	LTP386	ltpFR2	6	9	TRIBE	1505	n/a	n/a	0	0	0
2047.38720703125	n/a	START	4193049	n/a	LTP386	ltpFR2	6	n/a	n/a	n/a	14	n/a	n/a	n/a	n/a
2048.2001953125	n/a	DISTRACTOR	4194714	n/a	LTP386	ltpFR2	6	9	n/a	n/a	n/a	n/a	0	0	0
2048.2041015625	n/a	PROB	4194722	n/a	LTP386	ltpFR2	6	n/a	n/a	n/a	14	7	1	5	1
2050.669921875	n/a	PROB	4199772	n/a	LTP386	ltpFR2	6	n/a	n/a	n/a	14	24	8	8	9
2052.6201171875	n/a	PROB	4203766	n/a	LTP386	ltpFR2	6	n/a	n/a	n/a	14	20	9	9	2
2054.4697265625	n/a	PROB	4207554	n/a	LTP386	ltpFR2	6	n/a	n/a	n/a	14	10	1	6	3
2055.86962890625	n/a	PROB	4210421	n/a	LTP386	ltpFR2	6	n/a	n/a	n/a	14	18	5	5	8
2056.95263671875	n/a	PROB	4212639	n/a	LTP386	ltpFR2	6	n/a	n/a	n/a	14	15	7	6	2
2059.0537109375	n/a	PROB	4216942	n/a	LTP386	ltpFR2	6	n/a	n/a	n/a	14	13	8	3	2
2060.51953125	n/a	PROB	4219944	n/a	LTP386	ltpFR2	6	n/a	n/a	n/a	14	11	1	7	3
2062.00341796875	n/a	PROB	4222983	n/a	LTP386	ltpFR2	6	n/a	n/a	n/a	14	15	4	2	9
2063.2705078125	n/a	PROB	4225578	n/a	LTP386	ltpFR2	6	n/a	n/a	n/a	14	1	9	5	8
2064.6865234375	n/a	PROB	4228478	n/a	LTP386	ltpFR2	6	n/a	n/a	n/a	14	20	7	6	6
2066.103515625	n/a	PROB	4231380	n/a	LTP386	ltpFR2	6	n/a	n/a	n/a	14	14	7	5	2
2067.91943359375	n/a	PROB	4235099	n/a	LTP386	ltpFR2	6	n/a	n/a	n/a	14	7	1	3	3
2069.0205078125	n/a	PROB	4237354	n/a	LTP386	ltpFR2	6	n/a	n/a	n/a	14	21	9	3	9
2070.5166015625	n/a	STOP	4240418	n/a	LTP386	ltpFR2	6	n/a	n/a	n/a	14	n/a	n/a	n/a	n/a
2073.33642578125	n/a	REC_START	4246193	n/a	LTP386	ltpFR2	6	9	n/a	n/a	n/a	n/a	0	0	0
2073.7412109375	n/a	REC_WORD	4247022	wordpools/wasnorm_wordpool_576.txt	LTP386	ltpFR2	6	9	TRIBE	1505	n/a	n/a	0	0	0
2074.5634765625	n/a	REC_WORD	4248706	wordpools/wasnorm_wordpool_576.txt	LTP386	ltpFR2	6	9	ZEBRA	1635	n/a	n/a	0	0	0
2078.580078125	n/a	REC_WORD	4256932	wordpools/wasnorm_wordpool_576.txt	LTP386	ltpFR2	6	9	APPLE	33	n/a	n/a	0	0	0
2079.17529296875	n/a	REC_WORD	4258151	wordpools/wasnorm_wordpool_576.txt	LTP386	ltpFR2	6	9	PECAN	1036	n/a	n/a	0	0	0
2089.19287109375	n/a	REC_WORD	4278667	wordpools/wasnorm_wordpool_576.txt	LTP386	ltpFR2	6	9	BABY	64	n/a	n/a	0	0	0
2089.73681640625	n/a	REC_WORD	4279781	wordpools/wasnorm_wordpool_576.txt	LTP386	ltpFR2	6	9	PARENT	1013	n/a	n/a	0	0	0
2163.7646484375	n/a	DISTRACTOR	4431390	n/a	LTP386	ltpFR2	6	10	n/a	n/a	n/a	n/a	0	0	0
2163.7646484375	n/a	START	4431390	n/a	LTP386	ltpFR2	6	n/a	n/a	n/a	15	n/a	n/a	n/a	n/a
2163.78173828125	n/a	PROB	4431425	n/a	LTP386	ltpFR2	6	n/a	n/a	n/a	15	8	6	1	1
2165.04931640625	n/a	PROB	4434021	n/a	LTP386	ltpFR2	6	n/a	n/a	n/a	15	8	2	1	5
2166.38134765625	n/a	PROB	4436749	n/a	LTP386	ltpFR2	6	n/a	n/a	n/a	15	24	9	8	7
2167.7314453125	n/a	PROB	4439514	n/a	LTP386	ltpFR2	6	n/a	n/a	n/a	15	11	2	7	2
2168.83154296875	n/a	PROB	4441767	n/a	LTP386	ltpFR2	6	n/a	n/a	n/a	15	14	7	3	4
2169.93115234375	n/a	PROB	4444019	n/a	LTP386	ltpFR2	6	n/a	n/a	n/a	15	11	5	1	5
2170.84716796875	n/a	PROB	4445895	n/a	LTP386	ltpFR2	6	n/a	n/a	n/a	15	14	9	2	3
2172.43115234375	n/a	PROB	4449139	n/a	LTP386	ltpFR2	6	n/a	n/a	n/a	15	19	4	8	7
2174.5810546875	n/a	PROB	4453542	n/a	LTP386	ltpFR2	6	n/a	n/a	n/a	15	20	9	5	6
2175.88134765625	n/a	PROB	4456205	n/a	LTP386	ltpFR2	6	n/a	n/a	n/a	15	15	4	3	8
2177.38134765625	n/a	PROB	4459277	n/a	LTP386	ltpFR2	6	n/a	n/a	n/a	15	13	2	8	3
2178.4970703125	n/a	PROB	4461562	n/a	LTP386	ltpFR2	6	n/a	n/a	n/a	15	16	3	5	8
2179.880859375	n/a	PROB	4464396	n/a	LTP386	ltpFR2	6	n/a	n/a	n/a	15	21	7	8	6
2182.4638671875	n/a	PROB	4469686	n/a	LTP386	ltpFR2	6	n/a	n/a	n/a	15	18	6	6	6
2184.0478515625	n/a	PROB	4472930	n/a	LTP386	ltpFR2	6	n/a	n/a	n/a	15	17	7	5	5
2185.3310546875	n/a	PROB	4475558	n/a	LTP386	ltpFR2	6	n/a	n/a	n/a	15	17	2	9	6
2186.9560546875	n/a	STOP	4478886	n/a	LTP386	ltpFR2	6	n/a	n/a	n/a	15	n/a	n/a	n/a	n/a
2188.66357421875	n/a	WORD	4482383	wordpools/wasnorm_wordpool_576.txt	LTP386	ltpFR2	6	10	UNCLE	1536	n/a	n/a	0	0	0
2191.24755859375	n/a	WORD	4487675	wordpools/wasnorm_wordpool_576.txt	LTP386	ltpFR2	6	10	BINDER	127	n/a	n/a	0	0	0
2193.796875	n/a	WORD	4492896	wordpools/wasnorm_wordpool_576.txt	LTP386	ltpFR2	6	10	NAPKIN	937	n/a	n/a	0	0	0
2196.29736328125	n/a	WORD	4498017	wordpools/wasnorm_wordpool_576.txt	LTP386	ltpFR2	6	10	PISTON	1076	n/a	n/a	0	0	0
2199.064453125	n/a	WORD	4503684	wordpools/wasnorm_wordpool_576.txt	LTP386	ltpFR2	6	10	GANGSTER	620	n/a	n/a	0	0	0
2201.76318359375	n/a	WORD	4509211	wordpools/wasnorm_wordpool_576.txt	LTP386	ltpFR2	6	10	LIZARD	834	n/a	n/a	0	0	0
2204.46337890625	n/a	WORD	4514741	wordpools/wasnorm_wordpool_576.txt	LTP386	ltpFR2	6	10	REPORT	1184	n/a	n/a	0	0	0
2207.2470703125	n/a	WORD	4520442	wordpools/wasnorm_wordpool_576.txt	LTP386	ltpFR2	6	10	BURGLAR	200	n/a	n/a	0	0	0
2209.84619140625	n/a	WORD	4525765	wordpools/wasnorm_wordpool_576.txt	LTP386	ltpFR2	6	10	ROBBER	1197	n/a	n/a	0	0	0
2212.56201171875	n/a	WORD	4531327	wordpools/wasnorm_wordpool_576.txt	LTP386	ltpFR2	6	10	ORCHID	982	n/a	n/a	0	0	0
2215.19677734375	n/a	WORD	4536723	wordpools/wasnorm_wordpool_576.txt	LTP386	ltpFR2	6	10	GARBAGE	622	n/a	n/a	0	0	0
2217.94580078125	n/a	WORD	4542353	wordpools/wasnorm_wordpool_576.txt	LTP386	ltpFR2	6	10	GRIZZLY	662	n/a	n/a	0	0	0
2220.57861328125	n/a	WORD	4547745	wordpools/wasnorm_wordpool_576.txt	LTP386	ltpFR2	6	10	RATTLE	1170	n/a	n/a	0	0	0
2223.24658203125	n/a	WORD	4553209	wordpools/wasnorm_wordpool_576.txt	LTP386	ltpFR2	6	10	LOVER	846	n/a	n/a	0	0	0
2225.9794921875	n/a	WORD	4558806	wordpools/wasnorm_wordpool_576.txt	LTP386	ltpFR2	6	10	GOBLIN	645	n/a	n/a	0	0	0
2228.49462890625	n/a	WORD	4563957	wordpools/wasnorm_wordpool_576.txt	LTP386	ltpFR2	6	10	COBRA	336	n/a	n/a	0	0	0
2231.1953125	n/a	WORD	4569488	wordpools/wasnorm_wordpool_576.txt	LTP386	ltpFR2	6	10	COMPASS	358	n/a	n/a	0	0	0
2234.01220703125	n/a	WORD	4575257	wordpools/wasnorm_wordpool_576.txt	LTP386	ltpFR2	6	10	HUSBAND	728	n/a	n/a	0	0	0
2236.59423828125	n/a	WORD	4580545	wordpools/wasnorm_wordpool_576.txt	LTP386	ltpFR2	6	10	HOSTESS	723	n/a	n/a	0	0	0
2239.12939453125	n/a	WORD	4585737	wordpools/wasnorm_wordpool_576.txt	LTP386	ltpFR2	6	10	HUMAN	726	n/a	n/a	0	0	0
2241.67822265625	n/a	WORD	4590957	wordpools/wasnorm_wordpool_576.txt	LTP386	ltpFR2	6	10	PEBBLE	1035	n/a	n/a	0	0	0
2244.4609375	n/a	WORD	4596656	wordpools/wasnorm_wordpool_576.txt	LTP386	ltpFR2	6	10	IGLOO	734	n/a	n/a	0	0	0
2246.94384765625	n/a	WORD	4601741	wordpools/wasnorm_wordpool_576.txt	LTP386	ltpFR2	6	10	BUBBLE	183	n/a	n/a	0	0	0
2249.69384765625	n/a	WORD	4607373	wordpools/wasnorm_wordpool_576.txt	LTP386	ltpFR2	6	10	BATHTUB	100	n/a	n/a	0	0	0
2251.31103515625	n/a	START	4610685	n/a	LTP386	ltpFR2	6	n/a	n/a	n/a	16	n/a	n/a	n/a	n/a
2252.26171875	n/a	DISTRACTOR	4612632	n/a	LTP386	ltpFR2	6	10	n/a	n/a	n/a	n/a	0	0	0
2252.27783203125	n/a	PROB	4612665	n/a	LTP386	ltpFR2	6	n/a	n/a	n/a	16	22	9	7	6
2254.14501953125	n/a	PROB	4616489	n/a	LTP386	ltpFR2	6	n/a	n/a	n/a	16	17	2	9	6
2255.5439453125	n/a	PROB	4619354	n/a	LTP386	ltpFR2	6	n/a	n/a	n/a	16	14	3	5	6
2257.1279296875	n/a	PROB	4622598	n/a	LTP386	ltpFR2	6	n/a	n/a	n/a	16	12	1	9	2
2258.1279296875	n/a	PROB	4624646	n/a	LTP386	ltpFR2	6	n/a	n/a	n/a	16	14	3	8	3
2259.79345703125	n/a	PROB	4628057	n/a	LTP386	ltpFR2	6	n/a	n/a	n/a	16	13	6	4	3
2261.8935546875	n/a	PROB	4632358	n/a	LTP386	ltpFR2	6	n/a	n/a	n/a	16	23	5	9	9
2263.37646484375	n/a	PROB	4635395	n/a	LTP386	ltpFR2	6	n/a	n/a	n/a	16	14	3	9	2
2264.943359375	n/a	PROB	4638604	n/a	LTP386	ltpFR2	6	n/a	n/a	n/a	16	23	9	5	9
2266.92626953125	n/a	PROB	4642665	n/a	LTP386	ltpFR2	6	n/a	n/a	n/a	16	16	7	2	7
2269.1943359375	n/a	PROB	4647310	n/a	LTP386	ltpFR2	6	n/a	n/a	n/a	16	11	5	2	4
2271.4091796875	n/a	PROB	4651846	n/a	LTP386	ltpFR2	6	n/a	n/a	n/a	16	16	7	7	2
2272.84326171875	n/a	PROB	4654783	n/a	LTP386	ltpFR2	6	n/a	n/a	n/a	16	17	8	8	1
2274.05322265625	n/a	STOP	4657261	n/a	LTP386	ltpFR2	6	n/a	n/a	n/a	16	n/a	n/a	n/a	n/a
2277.126953125	n/a	REC_START	4663556	n/a	LTP386	ltpFR2	6	10	n/a	n/a	n/a	n/a	0	0	0
2281.48876953125	n/a	REC_WORD	4672489	wordpools/wasnorm_wordpool_576.txt	LTP386	ltpFR2	6	10	ROBBER	1197	n/a	n/a	0	0	0
2284.57568359375	n/a	REC_WORD	4678811	wordpools/wasnorm_wordpool_576.txt	LTP386	ltpFR2	6	10	GANGSTER	620	n/a	n/a	0	0	0
2285.2568359375	n/a	REC_WORD	4680206	wordpools/wasnorm_wordpool_576.txt	LTP386	ltpFR2	6	10	PISTON	1076	n/a	n/a	0	0	0
2287.65380859375	n/a	REC_WORD	4685115	wordpools/wasnorm_wordpool_576.txt	LTP386	ltpFR2	6	10	BURGLAR	200	n/a	n/a	0	0	0
2294.513671875	n/a	REC_WORD	4699164	wordpools/wasnorm_wordpool_576.txt	LTP386	ltpFR2	6	10	HUSBAND	728	n/a	n/a	0	0	0
2295.310546875	n/a	REC_WORD	4700796	wordpools/wasnorm_wordpool_576.txt	LTP386	ltpFR2	6	10	RATTLE	1170	n/a	n/a	0	0	0
2307.947265625	n/a	REC_WORD	4726676	wordpools/wasnorm_wordpool_576.txt	LTP386	ltpFR2	6	10	IGLOO	734	n/a	n/a	0	0	0
2367.58837890625	n/a	WORD	4848821	wordpools/wasnorm_wordpool_576.txt	LTP386	ltpFR2	6	11	VICTIM	1562	n/a	n/a	0	0	0
2370.22216796875	n/a	WORD	4854215	wordpools/wasnorm_wordpool_576.txt	LTP386	ltpFR2	6	11	GYMNAST	675	n/a	n/a	0	0	0
2372.9052734375	n/a	WORD	4859710	wordpools/wasnorm_wordpool_576.txt	LTP386	ltpFR2	6	11	JUGGLER	763	n/a	n/a	0	0	0
2375.48828125	n/a	WORD	4865000	wordpools/wasnorm_wordpool_576.txt	LTP386	ltpFR2	6	11	BOUQUET	157	n/a	n/a	0	0	0
2378.05615234375	n/a	WORD	4870259	wordpools/wasnorm_wordpool_576.txt	LTP386	ltpFR2	6	11	ITEM	746	n/a	n/a	0	0	0
2380.7548828125	n/a	WORD	4875786	wordpools/wasnorm_wordpool_576.txt	LTP386	ltpFR2	6	11	GARLIC	624	n/a	n/a	0	0	0
2383.255859375	n/a	WORD	4880908	wordpools/wasnorm_wordpool_576.txt	LTP386	ltpFR2	6	11	POWDER	1117	n/a	n/a	0	0	0
2385.8876953125	n/a	WORD	4886298	wordpools/wasnorm_wordpool_576.txt	LTP386	ltpFR2	6	11	STAKE	1368	n/a	n/a	0	0	0
2388.65478515625	n/a	WORD	4891965	wordpools/wasnorm_wordpool_576.txt	LTP386	ltpFR2	6	11	SUSPECT	1415	n/a	n/a	0	0	0
2391.2216796875	n/a	WORD	4897222	wordpools/wasnorm_wordpool_576.txt	LTP386	ltpFR2	6	11	LAMP	798	n/a	n/a	0	0	0
2393.92041015625	n/a	WORD	4902749	wordpools/wasnorm_wordpool_576.txt	LTP386	ltpFR2	6	11	LAKE	796	n/a	n/a	0	0	0
2396.62060546875	n/a	WORD	4908279	wordpools/wasnorm_wordpool_576.txt	LTP386	ltpFR2	6	11	PIZZA	1079	n/a	n/a	0	0	0
2399.38720703125	n/a	WORD	4913945	wordpools/wasnorm_wordpool_576.txt	LTP386	ltpFR2	6	11	FRUIT	610	n/a	n/a	0	0	0
2401.953125	n/a	WORD	4919200	wordpools/wasnorm_wordpool_576.txt	LTP386	ltpFR2	6	11	WORLD	1622	n/a	n/a	0	0	0
2404.703125	n/a	WORD	4924832	wordpools/wasnorm_wordpool_576.txt	LTP386	ltpFR2	6	11	PILOT	1070	n/a	n/a	0	0	0
2407.3203125	n/a	WORD	4930192	wordpools/wasnorm_wordpool_576.txt	LTP386	ltpFR2	6	11	PERCH	1048	n/a	n/a	0	0	0
2410.0869140625	n/a	WORD	4935858	wordpools/wasnorm_wordpool_576.txt	LTP386	ltpFR2	6	11	CORAL	378	n/a	n/a	0	0	0
2412.68603515625	n/a	WORD	4941181	wordpools/wasnorm_wordpool_576.txt	LTP386	ltpFR2	6	11	NEUTRON	947	n/a	n/a	0	0	0
2415.40283203125	n/a	WORD	4946745	wordpools/wasnorm_wordpool_576.txt	LTP386	ltpFR2	6	11	LONDON	843	n/a	n/a	0	0	0
2417.919921875	n/a	WORD	4951900	wordpools/wasnorm_wordpool_576.txt	LTP386	ltpFR2	6	11	ASIA	46	n/a	n/a	0	0	0
2420.45263671875	n/a	WORD	4957087	wordpools/wasnorm_wordpool_576.txt	LTP386	ltpFR2	6	11	AIRPORT	13	n/a	n/a	0	0	0
2423.103515625	n/a	WORD	4962516	wordpools/wasnorm_wordpool_576.txt	LTP386	ltpFR2	6	11	UMPIRE	1535	n/a	n/a	0	0	0
2425.552734375	n/a	WORD	4967532	wordpools/wasnorm_wordpool_576.txt	LTP386	ltpFR2	6	11	ACTRESS	6	n/a	n/a	0	0	0
2428.103515625	n/a	WORD	4972756	wordpools/wasnorm_wordpool_576.txt	LTP386	ltpFR2	6	11	DENTIST	447	n/a	n/a	0	0	0
2429.7197265625	n/a	START	4976066	n/a	LTP386	ltpFR2	6	n/a	n/a	n/a	17	n/a	n/a	n/a	n/a
2430.75927734375	n/a	DISTRACTOR	4978195	n/a	LTP386	ltpFR2	6	11	n/a	n/a	n/a	n/a	0	0	0
2430.7685546875	n/a	PROB	4978214	n/a	LTP386	ltpFR2	6	n/a	n/a	n/a	17	24	6	8	8
2432.88525390625	n/a	PROB	4982549	n/a	LTP386	ltpFR2	6	n/a	n/a	n/a	17	4	1	2	1
2433.88525390625	n/a	PROB	4984597	n/a	LTP386	ltpFR2	6	n/a	n/a	n/a	17	13	4	4	5
2435.2861328125	n/a	PROB	4987466	n/a	LTP386	ltpFR2	6	n/a	n/a	n/a	17	12	2	9	1
2436.51806640625	n/a	PROB	4989989	n/a	LTP386	ltpFR2	6	n/a	n/a	n/a	17	13	3	3	7
2437.85205078125	n/a	PROB	4992721	n/a	LTP386	ltpFR2	6	n/a	n/a	n/a	17	20	9	5	6
2439.1533203125	n/a	PROB	4995386	n/a	LTP386	ltpFR2	6	n/a	n/a	n/a	17	18	8	3	7
2440.568359375	n/a	PROB	4998284	n/a	LTP386	ltpFR2	6	n/a	n/a	n/a	17	18	8	6	4
2441.7021484375	n/a	PROB	5000606	n/a	LTP386	ltpFR2	6	n/a	n/a	n/a	17	23	7	8	8
2444.76806640625	n/a	PROB	5006885	n/a	LTP386	ltpFR2	6	n/a	n/a	n/a	17	16	5	7	4
2446.41796875	n/a	PROB	5010264	n/a	LTP386	ltpFR2	6	n/a	n/a	n/a	17	15	6	2	7
2448.0029296875	n/a	PROB	5013510	n/a	LTP386	ltpFR2	6	n/a	n/a	n/a	17	13	1	8	4
2449.60107421875	n/a	PROB	5016783	n/a	LTP386	ltpFR2	6	n/a	n/a	n/a	17	24	8	8	9
2453.7158203125	n/a	STOP	5025210	n/a	LTP386	ltpFR2	6	n/a	n/a	n/a	17	n/a	n/a	n/a	n/a
2455.53564453125	n/a	REC_START	5028937	n/a	LTP386	ltpFR2	6	11	n/a	n/a	n/a	n/a	0	0	0
2456.7138671875	n/a	REC_WORD	5031350	wordpools/wasnorm_wordpool_576.txt	LTP386	ltpFR2	6	11	DENTIST	447	n/a	n/a	0	0	0
2457.5048828125	n/a	REC_WORD	5032970	wordpools/wasnorm_wordpool_576.txt	LTP386	ltpFR2	6	11	ACTRESS	6	n/a	n/a	0	0	0
2458.44775390625	n/a	REC_WORD	5034901	wordpools/wasnorm_wordpool_576.txt	LTP386	ltpFR2	6	11	LAMP	798	n/a	n/a	0	0	0
2460.04443359375	n/a	REC_WORD	5038171	wordpools/wasnorm_wordpool_576.txt	LTP386	ltpFR2	6	11	CORAL	378	n/a	n/a	0	0	0
2463.92626953125	n/a	REC_WORD	5046121	wordpools/wasnorm_wordpool_576.txt	LTP386	ltpFR2	6	11	STAKE	1368	n/a	n/a	0	0	0
2464.9404296875	n/a	REC_WORD	5048198	wordpools/wasnorm_wordpool_576.txt	LTP386	ltpFR2	6	11	GARLIC	624	n/a	n/a	0	0	0
2465.818359375	n/a	REC_WORD	5049996	wordpools/wasnorm_wordpool_576.txt	LTP386	ltpFR2	6	11	POWDER	1117	n/a	n/a	0	0	0
2469.79345703125	n/a	REC_WORD	5058137	wordpools/wasnorm_wordpool_576.txt	LTP386	ltpFR2	6	11	VICTIM	1562	n/a	n/a	0	0	0
2470.7705078125	n/a	REC_WORD	5060138	wordpools/wasnorm_wordpool_576.txt	LTP386	ltpFR2	6	11	GYMNAST	675	n/a	n/a	0	0	0
2545.96484375	n/a	DISTRACTOR	5214136	n/a	LTP386	ltpFR2	6	12	n/a	n/a	n/a	n/a	0	0	0
2545.96484375	n/a	START	5214136	n/a	LTP386	ltpFR2	6	n/a	n/a	n/a	18	n/a	n/a	n/a	n/a
2545.98095703125	n/a	PROB	5214169	n/a	LTP386	ltpFR2	6	n/a	n/a	n/a	18	12	2	1	9
2548.330078125	n/a	PROB	5218980	n/a	LTP386	ltpFR2	6	n/a	n/a	n/a	18	15	4	5	6
2549.61376953125	n/a	PROB	5221609	n/a	LTP386	ltpFR2	6	n/a	n/a	n/a	18	22	9	8	5
2551.6796875	n/a	PROB	5225840	n/a	LTP386	ltpFR2	6	n/a	n/a	n/a	18	5	1	3	1
2552.6298828125	n/a	PROB	5227786	n/a	LTP386	ltpFR2	6	n/a	n/a	n/a	18	13	9	2	2
2554.16455078125	n/a	PROB	5230929	n/a	LTP386	ltpFR2	6	n/a	n/a	n/a	18	21	5	7	9
2555.7138671875	n/a	PROB	5234102	n/a	LTP386	ltpFR2	6	n/a	n/a	n/a	18	13	1	8	4
2557.013671875	n/a	PROB	5236764	n/a	LTP386	ltpFR2	6	n/a	n/a	n/a	18	4	1	2	1
2559.04736328125	n/a	PROB	5240929	n/a	LTP386	ltpFR2	6	n/a	n/a	n/a	18	19	8	2	9
2560.69677734375	n/a	PROB	5244307	n/a	LTP386	ltpFR2	6	n/a	n/a	n/a	18	20	5	9	6
2562.13037109375	n/a	PROB	5247243	n/a	LTP386	ltpFR2	6	n/a	n/a	n/a	18	17	4	4	9
2563.54638671875	n/a	PROB	5250143	n/a	LTP386	ltpFR2	6	n/a	n/a	n/a	18	6	2	1	3
2564.779296875	n/a	PROB	5252668	n/a	LTP386	ltpFR2	6	n/a	n/a	n/a	18	7	1	2	4
2565.96337890625	n/a	PROB	5255093	n/a	LTP386	ltpFR2	6	n/a	n/a	n/a	18	14	9	4	1
2567.529296875	n/a	PROB	5258300	n/a	LTP386	ltpFR2	6	n/a	n/a	n/a	18	13	3	7	3
2568.51611328125	n/a	STOP	5260321	n/a	LTP386	ltpFR2	6	n/a	n/a	n/a	18	n/a	n/a	n/a	n/a
2571.1630859375	n/a	WORD	5265742	wordpools/wasnorm_wordpool_576.txt	LTP386	ltpFR2	6	12	LUGGAGE	847	n/a	n/a	0	0	0
2573.7119140625	n/a	WORD	5270962	wordpools/wasnorm_wordpool_576.txt	LTP386	ltpFR2	6	12	TWEEZERS	1526	n/a	n/a	0	0	0
2576.22998046875	n/a	WORD	5276119	wordpools/wasnorm_wordpool_576.txt	LTP386	ltpFR2	6	12	FIDDLE	561	n/a	n/a	0	0	0
2578.89501953125	n/a	WORD	5281577	wordpools/wasnorm_wordpool_576.txt	LTP386	ltpFR2	6	12	WHISTLE	1606	n/a	n/a	0	0	0
2581.6787109375	n/a	WORD	5287278	wordpools/wasnorm_wordpool_576.txt	LTP386	ltpFR2	6	12	CHAUFFEUR	283	n/a	n/a	0	0	0
2584.3447265625	n/a	WORD	5292738	wordpools/wasnorm_wordpool_576.txt	LTP386	ltpFR2	6	12	MARINE	869	n/a	n/a	0	0	0
2587.1796875	n/a	WORD	5298544	wordpools/wasnorm_wordpool_576.txt	LTP386	ltpFR2	6	12	CANAL	226	n/a	n/a	0	0	0
2589.82861328125	n/a	WORD	5303969	wordpools/wasnorm_wordpool_576.txt	LTP386	ltpFR2	6	12	LUNCH	849	n/a	n/a	0	0	0
2592.46142578125	n/a	WORD	5309361	wordpools/wasnorm_wordpool_576.txt	LTP386	ltpFR2	6	12	GLASS	639	n/a	n/a	0	0	0
2595.095703125	n/a	WORD	5314756	wordpools/wasnorm_wordpool_576.txt	LTP386	ltpFR2	6	12	WINDOW	1611	n/a	n/a	0	0	0
2597.82763671875	n/a	WORD	5320351	wordpools/wasnorm_wordpool_576.txt	LTP386	ltpFR2	6	12	OUTDOORS	987	n/a	n/a	0	0	0
2600.54443359375	n/a	WORD	5325915	wordpools/wasnorm_wordpool_576.txt	LTP386	ltpFR2	6	12	SIDEWALK	1303	n/a	n/a	0	0	0
2603.17822265625	n/a	WORD	5331309	wordpools/wasnorm_wordpool_576.txt	LTP386	ltpFR2	6	12	HAWK	692	n/a	n/a	0	0	0
2605.89404296875	n/a	WORD	5336871	wordpools/wasnorm_wordpool_576.txt	LTP386	ltpFR2	6	12	HELMET	702	n/a	n/a	0	0	0
2608.6611328125	n/a	WORD	5342538	wordpools/wasnorm_wordpool_576.txt	LTP386	ltpFR2	6	12	WRENCH	1625	n/a	n/a	0	0	0
2611.36083984375	n/a	WORD	5348067	wordpools/wasnorm_wordpool_576.txt	LTP386	ltpFR2	6	12	STREAM	1392	n/a	n/a	0	0	0
2613.876953125	n/a	WORD	5353220	wordpools/wasnorm_wordpool_576.txt	LTP386	ltpFR2	6	12	MUFFIN	929	n/a	n/a	0	0	0
2616.376953125	n/a	WORD	5358340	wordpools/wasnorm_wordpool_576.txt	LTP386	ltpFR2	6	12	BACKBONE	66	n/a	n/a	0	0	0
2618.9609375	n/a	WORD	5363632	wordpools/wasnorm_wordpool_576.txt	LTP386	ltpFR2	6	12	SILK	1307	n/a	n/a	0	0	0
2621.626953125	n/a	WORD	5369092	wordpools/wasnorm_wordpool_576.txt	LTP386	ltpFR2	6	12	DUST	508	n/a	n/a	0	0	0
2624.07763671875	n/a	WORD	5374111	wordpools/wasnorm_wordpool_576.txt	LTP386	ltpFR2	6	12	VIRUS	1572	n/a	n/a	0	0	0
2626.693359375	n/a	WORD	5379468	wordpools/wasnorm_wordpool_576.txt	LTP386	ltpFR2	6	12	BIKE	125	n/a	n/a	0	0	0
2629.16064453125	n/a	WORD	5384521	wordpools/wasnorm_wordpool_576.txt	LTP386	ltpFR2	6	12	SALAD	1224	n/a	n/a	0	0	0
2631.7431640625	n/a	WORD	5389810	wordpools/wasnorm_wordpool_576.txt	LTP386	ltpFR2	6	12	BANK	83	n/a	n/a	0	0	0
2633.359375	n/a	START	5393120	n/a	LTP386	ltpFR2	6	n/a	n/a	n/a	19	n/a	n/a	n/a	n/a
2634.2822265625	n/a	DISTRACTOR	5395010	n/a	LTP386	ltpFR2	6	12	n/a	n/a	n/a	n/a	0	0	0
2634.29345703125	n/a	PROB	5395033	n/a	LTP386	ltpFR2	6	n/a	n/a	n/a	19	16	7	6	3
2635.6591796875	n/a	PROB	5397830	n/a	LTP386	ltpFR2	6	n/a	n/a	n/a	19	20	3	9	8
2637.6591796875	n/a	PROB	5401926	n/a	LTP386	ltpFR2	6	n/a	n/a	n/a	19	18	9	3	6
2639.14306640625	n/a	PROB	5404965	n/a	LTP386	ltpFR2	6	n/a	n/a	n/a	19	26	9	8	9
2641.85888671875	n/a	PROB	5410527	n/a	LTP386	ltpFR2	6	n/a	n/a	n/a	19	17	1	7	9
2643.27685546875	n/a	PROB	5413431	n/a	LTP386	ltpFR2	6	n/a	n/a	n/a	19	21	5	6	6
2645.126953125	n/a	PROB	5417220	n/a	LTP386	ltpFR2	6	n/a	n/a	n/a	19	12	4	5	3
2648.57568359375	n/a	PROB	5424283	n/a	LTP386	ltpFR2	6	n/a	n/a	n/a	19	14	2	8	4
2650.47607421875	n/a	PROB	5428175	n/a	LTP386	ltpFR2	6	n/a	n/a	n/a	19	12	6	4	2
2651.7587890625	n/a	PROB	5430802	n/a	LTP386	ltpFR2	6	n/a	n/a	n/a	19	15	7	1	7
2653.19287109375	n/a	PROB	5433739	n/a	LTP386	ltpFR2	6	n/a	n/a	n/a	19	13	5	5	3
2654.341796875	n/a	PROB	5436092	n/a	LTP386	ltpFR2	6	n/a	n/a	n/a	19	1	8	1	8
2655.8916015625	n/a	STOP	5439266	n/a	LTP386	ltpFR2	6	n/a	n/a	n/a	19	n/a	n/a	n/a	n/a
2659.259765625	n/a	REC_START	5446164	n/a	LTP386	ltpFR2	6	12	n/a	n/a	n/a	n/a	0	0	0
2660.48876953125	n/a	REC_WORD	5448681	wordpools/wasnorm_wordpool_576.txt	LTP386	ltpFR2	6	12	TWEEZERS	1526	n/a	n/a	0	0	0
2661.32763671875	n/a	REC_WORD	5450399	wordpools/wasnorm_wordpool_576.txt	LTP386	ltpFR2	6	12	LUGGAGE	847	n/a	n/a	0	0	0
2662.75146484375	n/a	REC_WORD	5453315	wordpools/wasnorm_wordpool_576.txt	LTP386	ltpFR2	6	12	DUST	508	n/a	n/a	0	0	0
2749.720703125	n/a	WORD	5631428	wordpools/wasnorm_wordpool_576.txt	LTP386	ltpFR2	6	13	RELISH	1183	n/a	n/a	0	0	0
2752.2216796875	n/a	WORD	5636550	wordpools/wasnorm_wordpool_576.txt	LTP386	ltpFR2	6	13	SPARROW	1347	n/a	n/a	0	0	0
2754.70361328125	n/a	WORD	5641633	wordpools/wasnorm_wordpool_576.txt	LTP386	ltpFR2	6	13	ROBIN	1199	n/a	n/a	0	0	0
2757.271484375	n/a	WORD	5646892	wordpools/wasnorm_wordpool_576.txt	LTP386	ltpFR2	6	13	PROTON	1132	n/a	n/a	0	0	0
2759.8037109375	n/a	WORD	5652078	wordpools/wasnorm_wordpool_576.txt	LTP386	ltpFR2	6	13	HOOK	715	n/a	n/a	0	0	0
2762.53662109375	n/a	WORD	5657675	wordpools/wasnorm_wordpool_576.txt	LTP386	ltpFR2	6	13	TILE	1468	n/a	n/a	0	0	0
2765.154296875	n/a	WORD	5663036	wordpools/wasnorm_wordpool_576.txt	LTP386	ltpFR2	6	13	BANJO	82	n/a	n/a	0	0	0
2767.88623046875	n/a	WORD	5668631	wordpools/wasnorm_wordpool_576.txt	LTP386	ltpFR2	6	13	RADISH	1158	n/a	n/a	0	0	0
2770.5703125	n/a	WORD	5674128	wordpools/wasnorm_wordpool_576.txt	LTP386	ltpFR2	6	13	SALMON	1227	n/a	n/a	0	0	0
2773.18701171875	n/a	WORD	5679487	wordpools/wasnorm_wordpool_576.txt	LTP386	ltpFR2	6	13	KITCHEN	778	n/a	n/a	0	0	0
2775.6689453125	n/a	WORD	5684570	wordpools/wasnorm_wordpool_576.txt	LTP386	ltpFR2	6	13	PARTNER	1017	n/a	n/a	0	0	0
2778.27001953125	n/a	WORD	5689897	wordpools/wasnorm_wordpool_576.txt	LTP386	ltpFR2	6	13	JUDGE	761	n/a	n/a	0	0	0
2780.802734375	n/a	WORD	5695084	wordpools/wasnorm_wordpool_576.txt	LTP386	ltpFR2	6	13	BRIEFCASE	175	n/a	n/a	0	0	0
2783.31884765625	n/a	WORD	5700237	wordpools/wasnorm_wordpool_576.txt	LTP386	ltpFR2	6	13	SNACK	1331	n/a	n/a	0	0	0
2785.935546875	n/a	WORD	5705596	wordpools/wasnorm_wordpool_576.txt	LTP386	ltpFR2	6	13	SHRUB	1299	n/a	n/a	0	0	0
2788.45263671875	n/a	WORD	5710751	wordpools/wasnorm_wordpool_576.txt	LTP386	ltpFR2	6	13	GRILL	661	n/a	n/a	0	0	0
2790.91845703125	n/a	WORD	5715801	wordpools/wasnorm_wordpool_576.txt	LTP386	ltpFR2	6	13	GLOVE	642	n/a	n/a	0	0	0
2793.6357421875	n/a	WORD	5721366	wordpools/wasnorm_wordpool_576.txt	LTP386	ltpFR2	6	13	BRANCH	168	n/a	n/a	0	0	0
2796.11962890625	n/a	WORD	5726453	wordpools/wasnorm_wordpool_576.txt	LTP386	ltpFR2	6	13	PATIENT	1024	n/a	n/a	0	0	0
2798.80224609375	n/a	WORD	5731947	wordpools/wasnorm_wordpool_576.txt	LTP386	ltpFR2	6	13	GALLON	618	n/a	n/a	0	0	0
2801.46826171875	n/a	WORD	5737407	wordpools/wasnorm_wordpool_576.txt	LTP386	ltpFR2	6	13	TRANSPLANT	1496	n/a	n/a	0	0	0
2803.93505859375	n/a	WORD	5742459	wordpools/wasnorm_wordpool_576.txt	LTP386	ltpFR2	6	13	LIVER	833	n/a	n/a	0	0	0
2806.6181640625	n/a	WORD	5747954	wordpools/wasnorm_wordpool_576.txt	LTP386	ltpFR2	6	13	DOUGHNUT	490	n/a	n/a	0	0	0
2809.13623046875	n/a	WORD	5753111	wordpools/wasnorm_wordpool_576.txt	LTP386	ltpFR2	6	13	SHIRT	1287	n/a	n/a	0	0	0
2810.7509765625	n/a	START	5756418	n/a	LTP386	ltpFR2	6	n/a	n/a	n/a	20	n/a	n/a	n/a	n/a
2811.6162109375	n/a	DISTRACTOR	5758190	n/a	LTP386	ltpFR2	6	13	n/a	n/a	n/a	n/a	0	0	0
2811.6181640625	n/a	PROB	5758194	n/a	LTP386	ltpFR2	6	n/a	n/a	n/a	20	16	4	3	9
2813.40087890625	n/a	PROB	5761845	n/a	LTP386	ltpFR2	6	n/a	n/a	n/a	20	18	9	3	6
2814.80078125	n/a	PROB	5764712	n/a	LTP386	ltpFR2	6	n/a	n/a	n/a	20	14	2	8	4
2816.3505859375	n/a	PROB	5767886	n/a	LTP386	ltpFR2	6	n/a	n/a	n/a	20	17	1	9	7
2819.1015625	n/a	PROB	5773520	n/a	LTP386	ltpFR2	6	n/a	n/a	n/a	20	14	2	9	3
2821.134765625	n/a	PROB	5777684	n/a	LTP386	ltpFR2	6	n/a	n/a	n/a	20	18	6	8	4
2823.0517578125	n/a	PROB	5781610	n/a	LTP386	ltpFR2	6	n/a	n/a	n/a	20	15	2	5	8
2824.21875	n/a	PROB	5784000	n/a	LTP386	ltpFR2	6	n/a	n/a	n/a	20	13	7	2	4
2825.75048828125	n/a	PROB	5787137	n/a	LTP386	ltpFR2	6	n/a	n/a	n/a	20	19	9	3	7
2827.78369140625	n/a	PROB	5791301	n/a	LTP386	ltpFR2	6	n/a	n/a	n/a	20	22	9	9	4
2829.1845703125	n/a	PROB	5794170	n/a	LTP386	ltpFR2	6	n/a	n/a	n/a	20	19	4	9	6
2830.767578125	n/a	PROB	5797412	n/a	LTP386	ltpFR2	6	n/a	n/a	n/a	20	15	5	6	4
2832.017578125	n/a	PROB	5799972	n/a	LTP386	ltpFR2	6	n/a	n/a	n/a	20	9	6	1	2
2833.9892578125	n/a	STOP	5804010	n/a	LTP386	ltpFR2	6	n/a	n/a	n/a	20	n/a	n/a	n/a	n/a
2836.63427734375	n/a	REC_START	5809427	n/a	LTP386	ltpFR2	6	13	n/a	n/a	n/a	n/a	0	0	0
2837.22705078125	n/a	REC_WORD	5810641	wordpools/wasnorm_wordpool_576.txt	LTP386	ltpFR2	6	13	DOUGHNUT	490	n/a	n/a	0	0	0
2837.8193359375	n/a	REC_WORD	5811854	wordpools/wasnorm_wordpool_576.txt	LTP386	ltpFR2	6	13	SHIRT	1287	n/a	n/a	0	0	0
2838.9052734375	n/a	REC_WORD	5814078	wordpools/wasnorm_wordpool_576.txt	LTP386	ltpFR2	6	13	RELISH	1183	n/a	n/a	0	0	0
2840.10595703125	n/a	REC_WORD	5816537	wordpools/wasnorm_wordpool_576.txt	LTP386	ltpFR2	6	13	SALMON	1227	n/a	n/a	0	0	0
2849.43505859375	n/a	REC_WORD	5835643	wordpools/wasnorm_wordpool_576.txt	LTP386	ltpFR2	6	13	HOOK	715	n/a	n/a	0	0	0
2862.49658203125	n/a	REC_WORD	5862393	wordpools/wasnorm_wordpool_576.txt	LTP386	ltpFR2	6	13	RADISH	1158	n/a	n/a	0	0	0
2927.0634765625	n/a	WORD	5994626	wordpools/wasnorm_wordpool_576.txt	LTP386	ltpFR2	6	14	BUG	187	n/a	n/a	0	0	0
2929.54541015625	n/a	WORD	5999709	wordpools/wasnorm_wordpool_576.txt	LTP386	ltpFR2	6	14	JUNGLE	764	n/a	n/a	0	0	0
2932.29541015625	n/a	WORD	6005341	wordpools/wasnorm_wordpool_576.txt	LTP386	ltpFR2	6	14	GRAVE	658	n/a	n/a	0	0	0
2935.01318359375	n/a	WORD	6010907	wordpools/wasnorm_wordpool_576.txt	LTP386	ltpFR2	6	14	LOFT	840	n/a	n/a	0	0	0
2937.59521484375	n/a	WORD	6016195	wordpools/wasnorm_wordpool_576.txt	LTP386	ltpFR2	6	14	BUGGY	188	n/a	n/a	0	0	0
2940.34521484375	n/a	WORD	6021827	wordpools/wasnorm_wordpool_576.txt	LTP386	ltpFR2	6	14	CARRIAGE	248	n/a	n/a	0	0	0
2943.11279296875	n/a	WORD	6027495	wordpools/wasnorm_wordpool_576.txt	LTP386	ltpFR2	6	14	NOMAD	955	n/a	n/a	0	0	0
2945.9111328125	n/a	WORD	6033226	wordpools/wasnorm_wordpool_576.txt	LTP386	ltpFR2	6	14	CAMEL	223	n/a	n/a	0	0	0
2948.41162109375	n/a	WORD	6038347	wordpools/wasnorm_wordpool_576.txt	LTP386	ltpFR2	6	14	CROSS	413	n/a	n/a	0	0	0
2950.927734375	n/a	WORD	6043500	wordpools/wasnorm_wordpool_576.txt	LTP386	ltpFR2	6	14	FINGER	567	n/a	n/a	0	0	0
2953.36083984375	n/a	WORD	6048483	wordpools/wasnorm_wordpool_576.txt	LTP386	ltpFR2	6	14	ICING	732	n/a	n/a	0	0	0
2955.96142578125	n/a	WORD	6053809	wordpools/wasnorm_wordpool_576.txt	LTP386	ltpFR2	6	14	SHORTCAKE	1292	n/a	n/a	0	0	0
2958.71044921875	n/a	WORD	6059439	wordpools/wasnorm_wordpool_576.txt	LTP386	ltpFR2	6	14	ANKLE	24	n/a	n/a	0	0	0
2961.228515625	n/a	WORD	6064596	wordpools/wasnorm_wordpool_576.txt	LTP386	ltpFR2	6	14	KETCHUP	771	n/a	n/a	0	0	0
2963.77734375	n/a	WORD	6069816	wordpools/wasnorm_wordpool_576.txt	LTP386	ltpFR2	6	14	CHILD	299	n/a	n/a	0	0	0
2966.42724609375	n/a	WORD	6075243	wordpools/wasnorm_wordpool_576.txt	LTP386	ltpFR2	6	14	BARREL	91	n/a	n/a	0	0	0
2969.09521484375	n/a	WORD	6080707	wordpools/wasnorm_wordpool_576.txt	LTP386	ltpFR2	6	14	LIPSTICK	829	n/a	n/a	0	0	0
2971.876953125	n/a	WORD	6086404	wordpools/wasnorm_wordpool_576.txt	LTP386	ltpFR2	6	14	SEAGULL	1261	n/a	n/a	0	0	0
2974.376953125	n/a	WORD	6091524	wordpools/wasnorm_wordpool_576.txt	LTP386	ltpFR2	6	14	KLEENEX	782	n/a	n/a	0	0	0
2977.09375	n/a	WORD	6097088	wordpools/wasnorm_wordpool_576.txt	LTP386	ltpFR2	6	14	TEMPLE	1448	n/a	n/a	0	0	0
2979.8427734375	n/a	WORD	6102718	wordpools/wasnorm_wordpool_576.txt	LTP386	ltpFR2	6	14	ARM	38	n/a	n/a	0	0	0
2982.3427734375	n/a	WORD	6107838	wordpools/wasnorm_wordpool_576.txt	LTP386	ltpFR2	6	14	MATTRESS	879	n/a	n/a	0	0	0
2985.09375	n/a	WORD	6113472	wordpools/wasnorm_wordpool_576.txt	LTP386	ltpFR2	6	14	SUNSET	1408	n/a	n/a	0	0	0
2987.90966796875	n/a	WORD	6119239	wordpools/wasnorm_wordpool_576.txt	LTP386	ltpFR2	6	14	SURVEY	1414	n/a	n/a	0	0	0
2989.5263671875	n/a	START	6122550	n/a	LTP386	ltpFR2	6	n/a	n/a	n/a	21	n/a	n/a	n/a	n/a
2990.4326171875	n/a	DISTRACTOR	6124406	n/a	LTP386	ltpFR2	6	14	n/a	n/a	n/a	n/a	0	0	0
2990.4423828125	n/a	PROB	6124426	n/a	LTP386	ltpFR2	6	n/a	n/a	n/a	21	8	2	5	1
2992.4423828125	n/a	PROB	6128522	n/a	LTP386	ltpFR2	6	n/a	n/a	n/a	21	17	1	7	9
2993.82568359375	n/a	PROB	6131355	n/a	LTP386	ltpFR2	6	n/a	n/a	n/a	21	18	9	3	6
2995.29248046875	n/a	PROB	6134359	n/a	LTP386	ltpFR2	6	n/a	n/a	n/a	21	11	7	1	3
2996.92529296875	n/a	PROB	6137703	n/a	LTP386	ltpFR2	6	n/a	n/a	n/a	21	10	2	4	4
3000.6591796875	n/a	PROB	6145350	n/a	LTP386	ltpFR2	6	n/a	n/a	n/a	21	14	6	1	7
3002.14306640625	n/a	PROB	6148389	n/a	LTP386	ltpFR2	6	n/a	n/a	n/a	21	21	4	8	9
3004.52490234375	n/a	PROB	6153267	n/a	LTP386	ltpFR2	6	n/a	n/a	n/a	21	17	7	2	8
3006.04296875	n/a	PROB	6156376	n/a	LTP386	ltpFR2	6	n/a	n/a	n/a	21	18	8	1	9
3008.1259765625	n/a	PROB	6160642	n/a	LTP386	ltpFR2	6	n/a	n/a	n/a	21	16	9	5	2
3009.39208984375	n/a	PROB	6163235	n/a	LTP386	ltpFR2	6	n/a	n/a	n/a	21	11	1	1	9
3010.5419921875	n/a	PROB	6165590	n/a	LTP386	ltpFR2	6	n/a	n/a	n/a	21	15	3	6	2
3013.52490234375	n/a	STOP	6171699	n/a	LTP386	ltpFR2	6	n/a	n/a	n/a	21	n/a	n/a	n/a	n/a
3015.3916015625	n/a	REC_START	6175522	n/a	LTP386	ltpFR2	6	14	n/a	n/a	n/a	n/a	0	0	0
3018.171875	n/a	REC_WORD	6181216	wordpools/wasnorm_wordpool_576.txt	LTP386	ltpFR2	6	14	JUNGLE	764	n/a	n/a	0	0	0
3019.28759765625	n/a	REC_WORD	6183501	wordpools/wasnorm_wordpool_576.txt	LTP386	ltpFR2	6	14	BUG	187	n/a	n/a	0	0	0
3026.20556640625	n/a	REC_WORD	6197669	wordpools/wasnorm_wordpool_576.txt	LTP386	ltpFR2	6	14	GRAVE	658	n/a	n/a	0	0	0
3027.63330078125	n/a	REC_WORD	6200593	wordpools/wasnorm_wordpool_576.txt	LTP386	ltpFR2	6	14	CROSS	413	n/a	n/a	0	0	0
3028.935546875	n/a	REC_WORD	6203260	wordpools/wasnorm_wordpool_576.txt	LTP386	ltpFR2	6	14	NOMAD	955	n/a	n/a	0	0	0
3030.29443359375	n/a	REC_WORD	6206043	wordpools/wasnorm_wordpool_576.txt	LTP386	ltpFR2	6	14	CAMEL	223	n/a	n/a	0	0	0
3034.2470703125	n/a	REC_WORD	6214138	wordpools/wasnorm_wordpool_576.txt	LTP386	ltpFR2	6	14	KETCHUP	771	n/a	n/a	0	0	0
3035.6083984375	n/a	REC_WORD	6216926	wordpools/wasnorm_wordpool_576.txt	LTP386	ltpFR2	6	14	ICING	732	n/a	n/a	0	0	0
3037.0263671875	n/a	REC_WORD	6219830	wordpools/wasnorm_wordpool_576.txt	LTP386	ltpFR2	6	14	FINGER	567	n/a	n/a	0	0	0
3039.2919921875	n/a	REC_WORD	6224470	wordpools/wasnorm_wordpool_576.txt	LTP386	ltpFR2	6	14	SHORTCAKE	1292	n/a	n/a	0	0	0
3105.85400390625	n/a	WORD	6360789	wordpools/wasnorm_wordpool_576.txt	LTP386	ltpFR2	6	15	TURKEY	1520	n/a	n/a	0	0	0
3108.43701171875	n/a	WORD	6366079	wordpools/wasnorm_wordpool_576.txt	LTP386	ltpFR2	6	15	CLIMBER	323	n/a	n/a	0	0	0
3111.15478515625	n/a	WORD	6371645	wordpools/wasnorm_wordpool_576.txt	LTP386	ltpFR2	6	15	PUPIL	1143	n/a	n/a	0	0	0
3113.919921875	n/a	WORD	6377308	wordpools/wasnorm_wordpool_576.txt	LTP386	ltpFR2	6	15	SPACE	1345	n/a	n/a	0	0	0
3116.70361328125	n/a	WORD	6383009	wordpools/wasnorm_wordpool_576.txt	LTP386	ltpFR2	6	15	HIGHWAY	707	n/a	n/a	0	0	0
3119.41943359375	n/a	WORD	6388571	wordpools/wasnorm_wordpool_576.txt	LTP386	ltpFR2	6	15	EMPIRE	530	n/a	n/a	0	0	0
3122.0537109375	n/a	WORD	6393966	wordpools/wasnorm_wordpool_576.txt	LTP386	ltpFR2	6	15	STUDENT	1395	n/a	n/a	0	0	0
3124.7197265625	n/a	WORD	6399426	wordpools/wasnorm_wordpool_576.txt	LTP386	ltpFR2	6	15	BARLEY	88	n/a	n/a	0	0	0
3127.17041015625	n/a	WORD	6404445	wordpools/wasnorm_wordpool_576.txt	LTP386	ltpFR2	6	15	FUNGUS	614	n/a	n/a	0	0	0
3129.76953125	n/a	WORD	6409768	wordpools/wasnorm_wordpool_576.txt	LTP386	ltpFR2	6	15	PARSLEY	1016	n/a	n/a	0	0	0
3132.43603515625	n/a	WORD	6415229	wordpools/wasnorm_wordpool_576.txt	LTP386	ltpFR2	6	15	COLONEL	348	n/a	n/a	0	0	0
3134.97021484375	n/a	WORD	6420419	wordpools/wasnorm_wordpool_576.txt	LTP386	ltpFR2	6	15	DUSTPAN	509	n/a	n/a	0	0	0
3137.51904296875	n/a	WORD	6425639	wordpools/wasnorm_wordpool_576.txt	LTP386	ltpFR2	6	15	CLOUD	328	n/a	n/a	0	0	0
3140.27001953125	n/a	WORD	6431273	wordpools/wasnorm_wordpool_576.txt	LTP386	ltpFR2	6	15	BANQUET	86	n/a	n/a	0	0	0
3142.751953125	n/a	WORD	6436356	wordpools/wasnorm_wordpool_576.txt	LTP386	ltpFR2	6	15	DENIM	446	n/a	n/a	0	0	0
3145.3017578125	n/a	WORD	6441578	wordpools/wasnorm_wordpool_576.txt	LTP386	ltpFR2	6	15	MONEY	908	n/a	n/a	0	0	0
3147.98583984375	n/a	WORD	6447075	wordpools/wasnorm_wordpool_576.txt	LTP386	ltpFR2	6	15	CAPTIVE	240	n/a	n/a	0	0	0
3150.78466796875	n/a	WORD	6452807	wordpools/wasnorm_wordpool_576.txt	LTP386	ltpFR2	6	15	ZIPPER	1636	n/a	n/a	0	0	0
3153.5185546875	n/a	WORD	6458406	wordpools/wasnorm_wordpool_576.txt	LTP386	ltpFR2	6	15	CREATURE	403	n/a	n/a	0	0	0
3156.01953125	n/a	WORD	6463528	wordpools/wasnorm_wordpool_576.txt	LTP386	ltpFR2	6	15	PICNIC	1060	n/a	n/a	0	0	0
3158.55126953125	n/a	WORD	6468713	wordpools/wasnorm_wordpool_576.txt	LTP386	ltpFR2	6	15	COOKBOOK	373	n/a	n/a	0	0	0
3161.16845703125	n/a	WORD	6474073	wordpools/wasnorm_wordpool_576.txt	LTP386	ltpFR2	6	15	SADDLE	1221	n/a	n/a	0	0	0
3163.9345703125	n/a	WORD	6479738	wordpools/wasnorm_wordpool_576.txt	LTP386	ltpFR2	6	15	SNAKE	1333	n/a	n/a	0	0	0
3166.58447265625	n/a	WORD	6485165	wordpools/wasnorm_wordpool_576.txt	LTP386	ltpFR2	6	15	BISON	131	n/a	n/a	0	0	0
3168.18505859375	n/a	START	6488443	n/a	LTP386	ltpFR2	6	n/a	n/a	n/a	22	n/a	n/a	n/a	n/a
3169.30029296875	n/a	DISTRACTOR	6490727	n/a	LTP386	ltpFR2	6	15	n/a	n/a	n/a	n/a	0	0	0
3169.3173828125	n/a	PROB	6490762	n/a	LTP386	ltpFR2	6	n/a	n/a	n/a	22	12	4	7	1
3171.18505859375	n/a	PROB	6494587	n/a	LTP386	ltpFR2	6	n/a	n/a	n/a	22	22	9	9	4
3172.56689453125	n/a	PROB	6497417	n/a	LTP386	ltpFR2	6	n/a	n/a	n/a	22	15	4	4	7
3173.81689453125	n/a	PROB	6499977	n/a	LTP386	ltpFR2	6	n/a	n/a	n/a	22	14	7	4	3
3175.0849609375	n/a	PROB	6502574	n/a	LTP386	ltpFR2	6	n/a	n/a	n/a	22	19	5	5	9
3176.134765625	n/a	PROB	6504724	n/a	LTP386	ltpFR2	6	n/a	n/a	n/a	22	18	9	5	4
3177.5009765625	n/a	PROB	6507522	n/a	LTP386	ltpFR2	6	n/a	n/a	n/a	22	17	8	6	3
3180.11767578125	n/a	PROB	6512881	n/a	LTP386	ltpFR2	6	n/a	n/a	n/a	22	17	9	1	7
3181.23486328125	n/a	PROB	6515169	n/a	LTP386	ltpFR2	6	n/a	n/a	n/a	22	14	4	7	3
3182.55078125	n/a	PROB	6517864	n/a	LTP386	ltpFR2	6	n/a	n/a	n/a	22	13	5	2	6
3184.466796875	n/a	PROB	6521788	n/a	LTP386	ltpFR2	6	n/a	n/a	n/a	22	8	5	2	1
3185.66650390625	n/a	PROB	6524245	n/a	LTP386	ltpFR2	6	n/a	n/a	n/a	22	11	3	5	3
3187.3994140625	n/a	PROB	6527794	n/a	LTP386	ltpFR2	6	n/a	n/a	n/a	22	13	8	1	4
3190.1005859375	n/a	PROB	6533326	n/a	LTP386	ltpFR2	6	n/a	n/a	n/a	22	16	3	6	7
3191.37158203125	n/a	STOP	6535929	n/a	LTP386	ltpFR2	6	n/a	n/a	n/a	22	n/a	n/a	n/a	n/a
3194.1171875	n/a	REC_START	6541552	n/a	LTP386	ltpFR2	6	15	n/a	n/a	n/a	n/a	0	0	0
3197.24609375	n/a	REC_WORD	6547960	wordpools/wasnorm_wordpool_576.txt	LTP386	ltpFR2	6	15	PICNIC	1060	n/a	n/a	0	0	0
3198.21826171875	n/a	REC_WORD	6549951	wordpools/wasnorm_wordpool_576.txt	LTP386	ltpFR2	6	15	SADDLE	1221	n/a	n/a	0	0	0
3199.66943359375	n/a	REC_WORD	6552923	wordpools/wasnorm_wordpool_576.txt	LTP386	ltpFR2	6	15	BISON	131	n/a	n/a	0	0	0
3200.55810546875	n/a	REC_WORD	6554743	wordpools/wasnorm_wordpool_576.txt	LTP386	ltpFR2	6	15	SNAKE	1333	n/a	n/a	0	0	0
3203.27197265625	n/a	REC_WORD	6560301	wordpools/wasnorm_wordpool_576.txt	LTP386	ltpFR2	6	15	COOKBOOK	373	n/a	n/a	0	0	0
3210.06298828125	n/a	REC_WORD	6574209	wordpools/wasnorm_wordpool_576.txt	LTP386	ltpFR2	6	15	STUDENT	1395	n/a	n/a	0	0	0
3210.9228515625	n/a	REC_WORD	6575970	wordpools/wasnorm_wordpool_576.txt	LTP386	ltpFR2	6	15	PUPIL	1143	n/a	n/a	0	0	0
3218.35888671875	n/a	REC_WORD	6591199	wordpools/wasnorm_wordpool_576.txt	LTP386	ltpFR2	6	15	SNAKE	1333	n/a	n/a	0	0	0
3230.9833984375	n/a	REC_WORD	6617054	wordpools/wasnorm_wordpool_576.txt	LTP386	ltpFR2	6	15	SADDLE	1221	n/a	n/a	0	0	0
3246.52490234375	n/a	REC_WORD	6648883	wordpools/wasnorm_wordpool_576.txt	LTP386	ltpFR2	6	15	BARREL	91	n/a	n/a	0	0	0
3284.57861328125	n/a	WORD	6726817	wordpools/wasnorm_wordpool_576.txt	LTP386	ltpFR2	6	16	HERO	706	n/a	n/a	0	0	0
3287.16259765625	n/a	WORD	6732109	wordpools/wasnorm_wordpool_576.txt	LTP386	ltpFR2	6	16	DRUG	501	n/a	n/a	0	0	0
3289.611328125	n/a	WORD	6737124	wordpools/wasnorm_wordpool_576.txt	LTP386	ltpFR2	6	16	MILDEW	893	n/a	n/a	0	0	0
3292.1962890625	n/a	WORD	6742418	wordpools/wasnorm_wordpool_576.txt	LTP386	ltpFR2	6	16	CUPBOARD	425	n/a	n/a	0	0	0
3294.8115234375	n/a	WORD	6747774	wordpools/wasnorm_wordpool_576.txt	LTP386	ltpFR2	6	16	DAISY	435	n/a	n/a	0	0	0
3297.3115234375	n/a	WORD	6752894	wordpools/wasnorm_wordpool_576.txt	LTP386	ltpFR2	6	16	MESSAGE	888	n/a	n/a	0	0	0
3300.01220703125	n/a	WORD	6758425	wordpools/wasnorm_wordpool_576.txt	LTP386	ltpFR2	6	16	PEPPER	1047	n/a	n/a	0	0	0
3302.81103515625	n/a	WORD	6764157	wordpools/wasnorm_wordpool_576.txt	LTP386	ltpFR2	6	16	SALT	1229	n/a	n/a	0	0	0
3305.31103515625	n/a	WORD	6769277	wordpools/wasnorm_wordpool_576.txt	LTP386	ltpFR2	6	16	DONKEY	484	n/a	n/a	0	0	0
3308.12890625	n/a	WORD	6775048	wordpools/wasnorm_wordpool_576.txt	LTP386	ltpFR2	6	16	HOUND	724	n/a	n/a	0	0	0
3310.77783203125	n/a	WORD	6780473	wordpools/wasnorm_wordpool_576.txt	LTP386	ltpFR2	6	16	SPOON	1357	n/a	n/a	0	0	0
3313.2119140625	n/a	WORD	6785458	wordpools/wasnorm_wordpool_576.txt	LTP386	ltpFR2	6	16	MARKER	870	n/a	n/a	0	0	0
3315.677734375	n/a	WORD	6790508	wordpools/wasnorm_wordpool_576.txt	LTP386	ltpFR2	6	16	PIGMENT	1066	n/a	n/a	0	0	0
3318.4775390625	n/a	WORD	6796242	wordpools/wasnorm_wordpool_576.txt	LTP386	ltpFR2	6	16	COIN	343	n/a	n/a	0	0	0
3321.21142578125	n/a	WORD	6801841	wordpools/wasnorm_wordpool_576.txt	LTP386	ltpFR2	6	16	WAITER	1580	n/a	n/a	0	0	0
3323.693359375	n/a	WORD	6806924	wordpools/wasnorm_wordpool_576.txt	LTP386	ltpFR2	6	16	ATLAS	53	n/a	n/a	0	0	0
3326.310546875	n/a	WORD	6812284	wordpools/wasnorm_wordpool_576.txt	LTP386	ltpFR2	6	16	SMOG	1330	n/a	n/a	0	0	0
3328.8935546875	n/a	WORD	6817574	wordpools/wasnorm_wordpool_576.txt	LTP386	ltpFR2	6	16	PLATE	1086	n/a	n/a	0	0	0
3331.6103515625	n/a	WORD	6823138	wordpools/wasnorm_wordpool_576.txt	LTP386	ltpFR2	6	16	PUPPY	1144	n/a	n/a	0	0	0
3334.1943359375	n/a	WORD	6828430	wordpools/wasnorm_wordpool_576.txt	LTP386	ltpFR2	6	16	COTTAGE	384	n/a	n/a	0	0	0
3336.7431640625	n/a	WORD	6833650	wordpools/wasnorm_wordpool_576.txt	LTP386	ltpFR2	6	16	LILY	821	n/a	n/a	0	0	0
3339.3759765625	n/a	WORD	6839042	wordpools/wasnorm_wordpool_576.txt	LTP386	ltpFR2	6	16	SUBWAY	1400	n/a	n/a	0	0	0
3341.80908203125	n/a	WORD	6844025	wordpools/wasnorm_wordpool_576.txt	LTP386	ltpFR2	6	16	LABEL	790	n/a	n/a	0	0	0
3344.3759765625	n/a	WORD	6849282	wordpools/wasnorm_wordpool_576.txt	LTP386	ltpFR2	6	16	VELVET	1555	n/a	n/a	0	0	0
3345.97705078125	n/a	START	6852561	n/a	LTP386	ltpFR2	6	n/a	n/a	n/a	23	n/a	n/a	n/a	n/a
3347.126953125	n/a	DISTRACTOR	6854916	n/a	LTP386	ltpFR2	6	16	n/a	n/a	n/a	n/a	0	0	0
3347.1435546875	n/a	PROB	6854950	n/a	LTP386	ltpFR2	6	n/a	n/a	n/a	23	9	4	3	2
3348.80859375	n/a	PROB	6858360	n/a	LTP386	ltpFR2	6	n/a	n/a	n/a	23	16	4	5	7
3350.45849609375	n/a	PROB	6861739	n/a	LTP386	ltpFR2	6	n/a	n/a	n/a	23	2	6	9	8
3352.92578125	n/a	PROB	6866792	n/a	LTP386	ltpFR2	6	n/a	n/a	n/a	23	19	7	5	7
3354.5087890625	n/a	PROB	6870034	n/a	LTP386	ltpFR2	6	n/a	n/a	n/a	23	10	7	2	1
3355.775390625	n/a	PROB	6872628	n/a	LTP386	ltpFR2	6	n/a	n/a	n/a	23	16	7	4	5
3357.25927734375	n/a	PROB	6875667	n/a	LTP386	ltpFR2	6	n/a	n/a	n/a	23	24	9	9	8
3358.6083984375	n/a	PROB	6878430	n/a	LTP386	ltpFR2	6	n/a	n/a	n/a	23	16	9	8	9
3359.87548828125	n/a	PROB	6881025	n/a	LTP386	ltpFR2	6	n/a	n/a	n/a	23	11	1	7	3
3361.9931640625	n/a	PROB	6885362	n/a	LTP386	ltpFR2	6	n/a	n/a	n/a	23	17	8	7	2
3363.37548828125	n/a	PROB	6888193	n/a	LTP386	ltpFR2	6	n/a	n/a	n/a	23	13	4	3	6
3365.25927734375	n/a	PROB	6892051	n/a	LTP386	ltpFR2	6	n/a	n/a	n/a	23	5	1	1	3
3366.22607421875	n/a	PROB	6894031	n/a	LTP386	ltpFR2	6	n/a	n/a	n/a	23	10	6	3	1
3367.50830078125	n/a	PROB	6896657	n/a	LTP386	ltpFR2	6	n/a	n/a	n/a	23	16	8	5	3
3369.9150390625	n/a	STOP	6901586	n/a	LTP386	ltpFR2	6	n/a	n/a	n/a	23	n/a	n/a	n/a	n/a
3371.84228515625	n/a	REC_START	6905533	n/a	LTP386	ltpFR2	6	16	n/a	n/a	n/a	n/a	0	0	0
3376.837890625	n/a	REC_WORD	6915764	wordpools/wasnorm_wordpool_576.txt	LTP386	ltpFR2	6	16	SALT	1229	n/a	n/a	0	0	0
3377.36376953125	n/a	REC_WORD	6916841	wordpools/wasnorm_wordpool_576.txt	LTP386	ltpFR2	6	16	PEPPER	1047	n/a	n/a	0	0	0
3377.8349609375	n/a	REC_WORD	6917806	wordpools/wasnorm_wordpool_576.txt	LTP386	ltpFR2	6	16	COIN	343	n/a	n/a	0	0	0
3378.36474609375	n/a	REC_WORD	6918891	wordpools/wasnorm_wordpool_576.txt	LTP386	ltpFR2	6	16	WAITER	1580	n/a	n/a	0	0	0
3388.58154296875	n/a	REC_WORD	6939815	wordpools/wasnorm_wordpool_576.txt	LTP386	ltpFR2	6	16	DONKEY	484	n/a	n/a	0	0	0
3389.0185546875	n/a	REC_WORD	6940710	wordpools/wasnorm_wordpool_576.txt	LTP386	ltpFR2	6	16	HERO	706	n/a	n/a	0	0	0
3405.02685546875	n/a	REC_WORD	6973495	wordpools/wasnorm_wordpool_576.txt	LTP386	ltpFR2	6	16	HOUND	724	n/a	n/a	0	0	0
3448.3876953125	n/a	REST_REWET	7062298	n/a	LTP386	ltpFR2	6	16	n/a	n/a	n/a	n/a	0	0	0
3623.0302734375	n/a	WORD	7419966	wordpools/wasnorm_wordpool_576.txt	LTP386	ltpFR2	6	17	GIFT	635	n/a	n/a	0	0	0
3625.49658203125	n/a	WORD	7425017	wordpools/wasnorm_wordpool_576.txt	LTP386	ltpFR2	6	17	RUST	1219	n/a	n/a	0	0	0
3628.01318359375	n/a	WORD	7430171	wordpools/wasnorm_wordpool_576.txt	LTP386	ltpFR2	6	17	PUDDING	1139	n/a	n/a	0	0	0
3630.74609375	n/a	WORD	7435768	wordpools/wasnorm_wordpool_576.txt	LTP386	ltpFR2	6	17	CREVICE	405	n/a	n/a	0	0	0
3633.26318359375	n/a	WORD	7440923	wordpools/wasnorm_wordpool_576.txt	LTP386	ltpFR2	6	17	MONSTER	912	n/a	n/a	0	0	0
3635.8623046875	n/a	WORD	7446246	wordpools/wasnorm_wordpool_576.txt	LTP386	ltpFR2	6	17	SLOPE	1328	n/a	n/a	0	0	0
3638.4951171875	n/a	WORD	7451638	wordpools/wasnorm_wordpool_576.txt	LTP386	ltpFR2	6	17	BUTCHER	203	n/a	n/a	0	0	0
3640.912109375	n/a	WORD	7456588	wordpools/wasnorm_wordpool_576.txt	LTP386	ltpFR2	6	17	COOK	372	n/a	n/a	0	0	0
3643.57861328125	n/a	WORD	7462049	wordpools/wasnorm_wordpool_576.txt	LTP386	ltpFR2	6	17	VENUS	1557	n/a	n/a	0	0	0
3646.3115234375	n/a	WORD	7467646	wordpools/wasnorm_wordpool_576.txt	LTP386	ltpFR2	6	17	STAR	1373	n/a	n/a	0	0	0
3648.8447265625	n/a	WORD	7472834	wordpools/wasnorm_wordpool_576.txt	LTP386	ltpFR2	6	17	XEROX	1628	n/a	n/a	0	0	0
3651.61181640625	n/a	WORD	7478501	wordpools/wasnorm_wordpool_576.txt	LTP386	ltpFR2	6	17	HIKER	708	n/a	n/a	0	0	0
3654.095703125	n/a	WORD	7483588	wordpools/wasnorm_wordpool_576.txt	LTP386	ltpFR2	6	17	TOMBSTONE	1478	n/a	n/a	0	0	0
3656.91162109375	n/a	WORD	7489355	wordpools/wasnorm_wordpool_576.txt	LTP386	ltpFR2	6	17	POISON	1096	n/a	n/a	0	0	0
3659.34423828125	n/a	WORD	7494337	wordpools/wasnorm_wordpool_576.txt	LTP386	ltpFR2	6	17	SHOULDER	1294	n/a	n/a	0	0	0
3662.01220703125	n/a	WORD	7499801	wordpools/wasnorm_wordpool_576.txt	LTP386	ltpFR2	6	17	SISTER	1312	n/a	n/a	0	0	0
3664.611328125	n/a	WORD	7505124	wordpools/wasnorm_wordpool_576.txt	LTP386	ltpFR2	6	17	BROTHER	179	n/a	n/a	0	0	0
3667.09521484375	n/a	WORD	7510211	wordpools/wasnorm_wordpool_576.txt	LTP386	ltpFR2	6	17	MACHINE	852	n/a	n/a	0	0	0
3669.76123046875	n/a	WORD	7515671	wordpools/wasnorm_wordpool_576.txt	LTP386	ltpFR2	6	17	TYPIST	1532	n/a	n/a	0	0	0
3672.2939453125	n/a	WORD	7520858	wordpools/wasnorm_wordpool_576.txt	LTP386	ltpFR2	6	17	MAILMAN	858	n/a	n/a	0	0	0
3674.9951171875	n/a	WORD	7526390	wordpools/wasnorm_wordpool_576.txt	LTP386	ltpFR2	6	17	SPHINX	1349	n/a	n/a	0	0	0
3677.8095703125	n/a	WORD	7532154	wordpools/wasnorm_wordpool_576.txt	LTP386	ltpFR2	6	17	PASTA	1021	n/a	n/a	0	0	0
3680.3935546875	n/a	WORD	7537446	wordpools/wasnorm_wordpool_576.txt	LTP386	ltpFR2	6	17	CRAYON	401	n/a	n/a	0	0	0
3683.19482421875	n/a	WORD	7543183	wordpools/wasnorm_wordpool_576.txt	LTP386	ltpFR2	6	17	YACHT	1629	n/a	n/a	0	0	0
3684.810546875	n/a	START	7546492	n/a	LTP386	ltpFR2	6	n/a	n/a	n/a	24	n/a	n/a	n/a	n/a
3685.974609375	n/a	DISTRACTOR	7548876	n/a	LTP386	ltpFR2	6	17	n/a	n/a	n/a	n/a	0	0	0
3685.9775390625	n/a	PROB	7548882	n/a	LTP386	ltpFR2	6	n/a	n/a	n/a	24	15	5	1	9
3687.8095703125	n/a	PROB	7552634	n/a	LTP386	ltpFR2	6	n/a	n/a	n/a	24	16	6	6	3
3689.90966796875	n/a	PROB	7556935	n/a	LTP386	ltpFR2	6	n/a	n/a	n/a	24	25	7	9	9
3692.859375	n/a	PROB	7562976	n/a	LTP386	ltpFR2	6	n/a	n/a	n/a	24	12	1	6	5
3694.42626953125	n/a	PROB	7566185	n/a	LTP386	ltpFR2	6	n/a	n/a	n/a	24	5	3	1	1
3695.42626953125	n/a	PROB	7568233	n/a	LTP386	ltpFR2	6	n/a	n/a	n/a	24	12	4	5	3
3697.326171875	n/a	PROB	7572124	n/a	LTP386	ltpFR2	6	n/a	n/a	n/a	24	20	9	7	4
3698.826171875	n/a	PROB	7575196	n/a	LTP386	ltpFR2	6	n/a	n/a	n/a	24	4	1	1	2
3699.7421875	n/a	PROB	7577072	n/a	LTP386	ltpFR2	6	n/a	n/a	n/a	24	11	3	1	7
3701.0771484375	n/a	PROB	7579806	n/a	LTP386	ltpFR2	6	n/a	n/a	n/a	24	15	4	6	5
3702.42626953125	n/a	PROB	7582569	n/a	LTP386	ltpFR2	6	n/a	n/a	n/a	24	18	7	2	9
3705.2099609375	n/a	PROB	7588270	n/a	LTP386	ltpFR2	6	n/a	n/a	n/a	24	18	7	7	4
3706.64208984375	n/a	PROB	7591203	n/a	LTP386	ltpFR2	6	n/a	n/a	n/a	24	15	1	6	8
3708.3388671875	n/a	STOP	7594678	n/a	LTP386	ltpFR2	6	n/a	n/a	n/a	24	n/a	n/a	n/a	n/a
3710.708984375	n/a	REC_START	7599532	n/a	LTP386	ltpFR2	6	17	n/a	n/a	n/a	n/a	0	0	0
3712.1865234375	n/a	REC_WORD	7602558	wordpools/wasnorm_wordpool_576.txt	LTP386	ltpFR2	6	17	GIFT	635	n/a	n/a	0	0	0
3719.11474609375	n/a	REC_WORD	7616747	wordpools/wasnorm_wordpool_576.txt	LTP386	ltpFR2	6	17	POISON	1096	n/a	n/a	0	0	0
3729.1611328125	n/a	REC_WORD	7637322	wordpools/wasnorm_wordpool_576.txt	LTP386	ltpFR2	6	17	TOMBSTONE	1478	n/a	n/a	0	0	0
3730.21435546875	n/a	REC_WORD	7639479	wordpools/wasnorm_wordpool_576.txt	LTP386	ltpFR2	6	17	HIKER	708	n/a	n/a	0	0	0
3741.0927734375	n/a	REC_WORD	7661758	wordpools/wasnorm_wordpool_576.txt	LTP386	ltpFR2	6	17	XEROX	1628	n/a	n/a	0	0	0
3801.13916015625	n/a	DISTRACTOR	7784733	n/a	LTP386	ltpFR2	6	18	n/a	n/a	n/a	n/a	0	0	0
3801.13916015625	n/a	START	7784733	n/a	LTP386	ltpFR2	6	n/a	n/a	n/a	25	n/a	n/a	n/a	n/a
3801.1552734375	n/a	PROB	7784766	n/a	LTP386	ltpFR2	6	n/a	n/a	n/a	25	14	6	7	1
3806.37109375	n/a	PROB	7795448	n/a	LTP386	ltpFR2	6	n/a	n/a	n/a	25	13	6	4	3
3807.85400390625	n/a	PROB	7798485	n/a	LTP386	ltpFR2	6	n/a	n/a	n/a	25	14	7	5	2
3810.03857421875	n/a	PROB	7802959	n/a	LTP386	ltpFR2	6	n/a	n/a	n/a	25	19	6	8	5
3812.23779296875	n/a	PROB	7807463	n/a	LTP386	ltpFR2	6	n/a	n/a	n/a	25	16	4	9	3
3813.65380859375	n/a	PROB	7810363	n/a	LTP386	ltpFR2	6	n/a	n/a	n/a	25	10	1	3	6
3814.9716796875	n/a	PROB	7813062	n/a	LTP386	ltpFR2	6	n/a	n/a	n/a	25	11	2	6	3
3816.62060546875	n/a	PROB	7816439	n/a	LTP386	ltpFR2	6	n/a	n/a	n/a	25	1	5	9	8
3818.70361328125	n/a	PROB	7820705	n/a	LTP386	ltpFR2	6	n/a	n/a	n/a	25	19	7	8	4
3820.50341796875	n/a	PROB	7824391	n/a	LTP386	ltpFR2	6	n/a	n/a	n/a	25	10	3	5	2
3822.1875	n/a	PROB	7827840	n/a	LTP386	ltpFR2	6	n/a	n/a	n/a	25	13	5	6	2
3824.482421875	n/a	STOP	7832540	n/a	LTP386	ltpFR2	6	n/a	n/a	n/a	25	n/a	n/a	n/a	n/a
3826.08740234375	n/a	WORD	7835827	wordpools/wasnorm_wordpool_576.txt	LTP386	ltpFR2	6	18	BLOUSE	139	n/a	n/a	0	0	0
3828.5693359375	n/a	WORD	7840910	wordpools/wasnorm_wordpool_576.txt	LTP386	ltpFR2	6	18	COCKTAIL	338	n/a	n/a	0	0	0
3830.9873046875	n/a	WORD	7845862	wordpools/wasnorm_wordpool_576.txt	LTP386	ltpFR2	6	18	TABLE	1426	n/a	n/a	0	0	0
3833.6689453125	n/a	WORD	7851354	wordpools/wasnorm_wordpool_576.txt	LTP386	ltpFR2	6	18	CHURCH	307	n/a	n/a	0	0	0
3836.1201171875	n/a	WORD	7856374	wordpools/wasnorm_wordpool_576.txt	LTP386	ltpFR2	6	18	PADDLE	1000	n/a	n/a	0	0	0
