onset	duration	trial_type	sample	stim_file	subject	experiment	session	trial	item_name	item_num	list	answer	test_x	test_y	test_z
271.855	n/a	SESS_START	271855	n/a	LTP298	ltpFR2	1	n/a	n/a	n/a	n/a	n/a	0	0	0
306.722	n/a	START	306722	n/a	LTP298	ltpFR2	1	n/a	n/a	n/a	-1	n/a	n/a	n/a	n/a
306.736	n/a	PROB	306736	n/a	LTP298	ltpFR2	1	n/a	n/a	n/a	-1	22	8	9	5
318.473	n/a	STOP	318473	n/a	LTP298	ltpFR2	1	n/a	n/a	n/a	-1	n/a	n/a	n/a	n/a
372.372	n/a	DISTRACTOR	372372	n/a	LTP298	ltpFR2	1	1	n/a	n/a	n/a	n/a	0	0	0
372.372	n/a	START	372372	n/a	LTP298	ltpFR2	1	n/a	n/a	n/a	1	n/a	n/a	n/a	n/a
372.389	n/a	PROB	372389	n/a	LTP298	ltpFR2	1	n/a	n/a	n/a	1	12	2	8	2
375.14	n/a	PROB	375140	n/a	LTP298	ltpFR2	1	n/a	n/a	n/a	1	12	3	5	4
380.511	n/a	PROB	380511	n/a	LTP298	ltpFR2	1	n/a	n/a	n/a	1	19	4	7	8
386.016	n/a	PROB	386016	n/a	LTP298	ltpFR2	1	n/a	n/a	n/a	1	16	4	4	7
389.618	n/a	PROB	389618	n/a	LTP298	ltpFR2	1	n/a	n/a	n/a	1	18	6	7	5
396.259	n/a	STOP	396259	n/a	LTP298	ltpFR2	1	n/a	n/a	n/a	1	n/a	n/a	n/a	n/a
397.324	n/a	WORD	397324	wordpools/wasnorm_wordpool_576.txt	LTP298	ltpFR2	1	1	TOASTER	1472	n/a	n/a	0	0	0
399.811	n/a	WORD	399811	wordpools/wasnorm_wordpool_576.txt	LTP298	ltpFR2	1	1	COTTAGE	384	n/a	n/a	0	0	0
402.383	n/a	WORD	402383	wordpools/wasnorm_wordpool_576.txt	LTP298	ltpFR2	1	1	BRICK	172	n/a	n/a	0	0	0
405.015	n/a	WORD	405015	wordpools/wasnorm_wordpool_576.txt	LTP298	ltpFR2	1	1	VALLEY	1545	n/a	n/a	0	0	0
407.467	n/a	WORD	407467	wordpools/wasnorm_wordpool_576.txt	LTP298	ltpFR2	1	1	OZONE	996	n/a	n/a	0	0	0
410.139	n/a	WORD	410139	wordpools/wasnorm_wordpool_576.txt	LTP298	ltpFR2	1	1	PLAZA	1088	n/a	n/a	0	0	0
412.905	n/a	WORD	412905	wordpools/wasnorm_wordpool_576.txt	LTP298	ltpFR2	1	1	LOVER	846	n/a	n/a	0	0	0
415.59	n/a	WORD	415590	wordpools/wasnorm_wordpool_576.txt	LTP298	ltpFR2	1	1	MISSILE	900	n/a	n/a	0	0	0
418.008	n/a	WORD	418008	wordpools/wasnorm_wordpool_576.txt	LTP298	ltpFR2	1	1	PORTRAIT	1111	n/a	n/a	0	0	0
420.811	n/a	WORD	420811	wordpools/wasnorm_wordpool_576.txt	LTP298	ltpFR2	1	1	POSSUM	1112	n/a	n/a	0	0	0
423.529	n/a	WORD	423529	wordpools/wasnorm_wordpool_576.txt	LTP298	ltpFR2	1	1	OUTLAW	989	n/a	n/a	0	0	0
426.053	n/a	WORD	426053	wordpools/wasnorm_wordpool_576.txt	LTP298	ltpFR2	1	1	VICTIM	1562	n/a	n/a	0	0	0
428.599	n/a	WORD	428599	wordpools/wasnorm_wordpool_576.txt	LTP298	ltpFR2	1	1	SLIDE	1326	n/a	n/a	0	0	0
431.268	n/a	WORD	431268	wordpools/wasnorm_wordpool_576.txt	LTP298	ltpFR2	1	1	BRIEFCASE	175	n/a	n/a	0	0	0
433.988	n/a	WORD	433988	wordpools/wasnorm_wordpool_576.txt	LTP298	ltpFR2	1	1	GARBAGE	622	n/a	n/a	0	0	0
436.773	n/a	WORD	436773	wordpools/wasnorm_wordpool_576.txt	LTP298	ltpFR2	1	1	FEMALE	559	n/a	n/a	0	0	0
439.259	n/a	WORD	439259	wordpools/wasnorm_wordpool_576.txt	LTP298	ltpFR2	1	1	SHARK	1275	n/a	n/a	0	0	0
441.777	n/a	WORD	441777	wordpools/wasnorm_wordpool_576.txt	LTP298	ltpFR2	1	1	DOLPHIN	483	n/a	n/a	0	0	0
444.269	n/a	WORD	444269	wordpools/wasnorm_wordpool_576.txt	LTP298	ltpFR2	1	1	BANKER	84	n/a	n/a	0	0	0
447.031	n/a	WORD	447031	wordpools/wasnorm_wordpool_576.txt	LTP298	ltpFR2	1	1	STALLION	1369	n/a	n/a	0	0	0
449.767	n/a	WORD	449767	wordpools/wasnorm_wordpool_576.txt	LTP298	ltpFR2	1	1	CURTAIN	427	n/a	n/a	0	0	0
452.519	n/a	WORD	452519	wordpools/wasnorm_wordpool_576.txt	LTP298	ltpFR2	1	1	LADDER	793	n/a	n/a	0	0	0
455.255	n/a	WORD	455255	wordpools/wasnorm_wordpool_576.txt	LTP298	ltpFR2	1	1	SHOVEL	1295	n/a	n/a	0	0	0
457.973	n/a	WORD	457973	wordpools/wasnorm_wordpool_576.txt	LTP298	ltpFR2	1	1	MUFFIN	929	n/a	n/a	0	0	0
459.582	n/a	START	459582	n/a	LTP298	ltpFR2	1	n/a	n/a	n/a	2	n/a	n/a	n/a	n/a
460.541	n/a	DISTRACTOR	460541	n/a	LTP298	ltpFR2	1	1	n/a	n/a	n/a	n/a	0	0	0
460.549	n/a	PROB	460549	n/a	LTP298	ltpFR2	1	n/a	n/a	n/a	2	16	6	6	4
463.493	n/a	PROB	463493	n/a	LTP298	ltpFR2	1	n/a	n/a	n/a	2	22	5	8	9
468.948	n/a	PROB	468948	n/a	LTP298	ltpFR2	1	n/a	n/a	n/a	2	27	9	9	9
473.052	n/a	PROB	473052	n/a	LTP298	ltpFR2	1	n/a	n/a	n/a	2	14	3	5	6
477.639	n/a	PROB	477639	n/a	LTP298	ltpFR2	1	n/a	n/a	n/a	2	10	4	2	4
483.582	n/a	STOP	483582	n/a	LTP298	ltpFR2	1	n/a	n/a	n/a	2	n/a	n/a	n/a	n/a
485.378	n/a	REC_START	485378	n/a	LTP298	ltpFR2	1	1	n/a	n/a	n/a	n/a	0	0	0
487.513	n/a	REC_WORD	487513	wordpools/wasnorm_wordpool_576.txt	LTP298	ltpFR2	1	1	COTTAGE	384	n/a	n/a	0	0	0
488.973	n/a	REC_WORD	488973	wordpools/wasnorm_wordpool_576.txt	LTP298	ltpFR2	1	1	BRICK	172	n/a	n/a	0	0	0
490.482	n/a	REC_WORD	490482	wordpools/wasnorm_wordpool_576.txt	LTP298	ltpFR2	1	1	VALLEY	1545	n/a	n/a	0	0	0
492.354	n/a	REC_WORD	492354	wordpools/wasnorm_wordpool_576.txt	LTP298	ltpFR2	1	1	PLAZA	1088	n/a	n/a	0	0	0
496.118	n/a	REC_WORD	496118	wordpools/wasnorm_wordpool_576.txt	LTP298	ltpFR2	1	1	OZONE	996	n/a	n/a	0	0	0
497.79	n/a	REC_WORD	497790	wordpools/wasnorm_wordpool_576.txt	LTP298	ltpFR2	1	1	TOASTER	1472	n/a	n/a	0	0	0
499.805	n/a	REC_WORD	499805	wordpools/wasnorm_wordpool_576.txt	LTP298	ltpFR2	1	1	OUTLAW	989	n/a	n/a	0	0	0
505.153	n/a	REC_WORD	505153	wordpools/wasnorm_wordpool_576.txt	LTP298	ltpFR2	1	1	VICTIM	1562	n/a	n/a	0	0	0
507.379	n/a	REC_WORD	507379	wordpools/wasnorm_wordpool_576.txt	LTP298	ltpFR2	1	1	POSSUM	1112	n/a	n/a	0	0	0
514.021	n/a	REC_WORD	514021	wordpools/wasnorm_wordpool_576.txt	LTP298	ltpFR2	1	1	DOLPHIN	483	n/a	n/a	0	0	0
515.293	n/a	REC_WORD	515293	wordpools/wasnorm_wordpool_576.txt	LTP298	ltpFR2	1	1	SHARK	1275	n/a	n/a	0	0	0
516.971	n/a	REC_WORD	516971	wordpools/wasnorm_wordpool_576.txt	LTP298	ltpFR2	1	1	BRIEFCASE	175	n/a	n/a	0	0	0
517.971	n/a	REC_WORD_VV	517971	wordpools/wasnorm_wordpool_576.txt	LTP298	ltpFR2	1	1	<>	-1	n/a	n/a	0	0	0
537.321	n/a	REC_WORD	537321	wordpools/wasnorm_wordpool_576.txt	LTP298	ltpFR2	1	1	PORTRAIT	1111	n/a	n/a	0	0	0
575.833	n/a	DISTRACTOR	575833	n/a	LTP298	ltpFR2	1	2	n/a	n/a	n/a	n/a	0	0	0
575.833	n/a	START	575833	n/a	LTP298	ltpFR2	1	n/a	n/a	n/a	3	n/a	n/a	n/a	n/a
575.851	n/a	PROB	575851	n/a	LTP298	ltpFR2	1	n/a	n/a	n/a	3	17	7	6	4
578.601	n/a	PROB	578601	n/a	LTP298	ltpFR2	1	n/a	n/a	n/a	3	14	1	7	6
581.321	n/a	PROB	581321	n/a	LTP298	ltpFR2	1	n/a	n/a	n/a	3	9	6	2	1
583.873	n/a	PROB	583873	n/a	LTP298	ltpFR2	1	n/a	n/a	n/a	3	16	7	1	8
587.008	n/a	PROB	587008	n/a	LTP298	ltpFR2	1	n/a	n/a	n/a	3	16	2	5	9
590.695	n/a	PROB	590695	n/a	LTP298	ltpFR2	1	n/a	n/a	n/a	3	12	1	9	2
592.713	n/a	PROB	592713	n/a	LTP298	ltpFR2	1	n/a	n/a	n/a	3	16	7	6	3
599.833	n/a	STOP	599833	n/a	LTP298	ltpFR2	1	n/a	n/a	n/a	3	n/a	n/a	n/a	n/a
600.753	n/a	WORD	600753	wordpools/wasnorm_wordpool_576.txt	LTP298	ltpFR2	1	2	COMPASS	358	n/a	n/a	0	0	0
603.455	n/a	WORD	603455	wordpools/wasnorm_wordpool_576.txt	LTP298	ltpFR2	1	2	SNACK	1331	n/a	n/a	0	0	0
606.258	n/a	WORD	606258	wordpools/wasnorm_wordpool_576.txt	LTP298	ltpFR2	1	2	CATCHER	258	n/a	n/a	0	0	0
609.009	n/a	WORD	609009	wordpools/wasnorm_wordpool_576.txt	LTP298	ltpFR2	1	2	REPORT	1184	n/a	n/a	0	0	0
611.729	n/a	WORD	611729	wordpools/wasnorm_wordpool_576.txt	LTP298	ltpFR2	1	2	BOYFRIEND	162	n/a	n/a	0	0	0
614.247	n/a	WORD	614247	wordpools/wasnorm_wordpool_576.txt	LTP298	ltpFR2	1	2	MISTER	901	n/a	n/a	0	0	0
616.949	n/a	WORD	616949	wordpools/wasnorm_wordpool_576.txt	LTP298	ltpFR2	1	2	WIDOW	1608	n/a	n/a	0	0	0
619.601	n/a	WORD	619601	wordpools/wasnorm_wordpool_576.txt	LTP298	ltpFR2	1	2	NOTEBOOK	959	n/a	n/a	0	0	0
622.253	n/a	WORD	622253	wordpools/wasnorm_wordpool_576.txt	LTP298	ltpFR2	1	2	ROCKET	1202	n/a	n/a	0	0	0
624.721	n/a	WORD	624721	wordpools/wasnorm_wordpool_576.txt	LTP298	ltpFR2	1	2	ACTOR	5	n/a	n/a	0	0	0
627.29	n/a	WORD	627290	wordpools/wasnorm_wordpool_576.txt	LTP298	ltpFR2	1	2	SURVEY	1414	n/a	n/a	0	0	0
630.026	n/a	WORD	630026	wordpools/wasnorm_wordpool_576.txt	LTP298	ltpFR2	1	2	PARSLEY	1016	n/a	n/a	0	0	0
632.681	n/a	WORD	632681	wordpools/wasnorm_wordpool_576.txt	LTP298	ltpFR2	1	2	REBEL	1172	n/a	n/a	0	0	0
635.313	n/a	WORD	635313	wordpools/wasnorm_wordpool_576.txt	LTP298	ltpFR2	1	2	TRANSPLANT	1496	n/a	n/a	0	0	0
637.918	n/a	WORD	637918	wordpools/wasnorm_wordpool_576.txt	LTP298	ltpFR2	1	2	PLUTO	1092	n/a	n/a	0	0	0
640.718	n/a	WORD	640718	wordpools/wasnorm_wordpool_576.txt	LTP298	ltpFR2	1	2	WINDOW	1611	n/a	n/a	0	0	0
643.187	n/a	WORD	643187	wordpools/wasnorm_wordpool_576.txt	LTP298	ltpFR2	1	2	UNCLE	1536	n/a	n/a	0	0	0
645.622	n/a	WORD	645622	wordpools/wasnorm_wordpool_576.txt	LTP298	ltpFR2	1	2	HOUND	724	n/a	n/a	0	0	0
648.391	n/a	WORD	648391	wordpools/wasnorm_wordpool_576.txt	LTP298	ltpFR2	1	2	CARRIAGE	248	n/a	n/a	0	0	0
651.009	n/a	WORD	651009	wordpools/wasnorm_wordpool_576.txt	LTP298	ltpFR2	1	2	INFANT	737	n/a	n/a	0	0	0
653.599	n/a	WORD	653599	wordpools/wasnorm_wordpool_576.txt	LTP298	ltpFR2	1	2	SHELTER	1282	n/a	n/a	0	0	0
656.364	n/a	WORD	656364	wordpools/wasnorm_wordpool_576.txt	LTP298	ltpFR2	1	2	CABIN	211	n/a	n/a	0	0	0
659.083	n/a	WORD	659083	wordpools/wasnorm_wordpool_576.txt	LTP298	ltpFR2	1	2	JUDGE	761	n/a	n/a	0	0	0
661.868	n/a	WORD	661868	wordpools/wasnorm_wordpool_576.txt	LTP298	ltpFR2	1	2	LIVER	833	n/a	n/a	0	0	0
663.475	n/a	START	663475	n/a	LTP298	ltpFR2	1	n/a	n/a	n/a	4	n/a	n/a	n/a	n/a
664.388	n/a	DISTRACTOR	664388	n/a	LTP298	ltpFR2	1	2	n/a	n/a	n/a	n/a	0	0	0
664.391	n/a	PROB	664391	n/a	LTP298	ltpFR2	1	n/a	n/a	n/a	4	14	9	4	1
666.97	n/a	PROB	666970	n/a	LTP298	ltpFR2	1	n/a	n/a	n/a	4	26	6	9	9
675.128	n/a	PROB	675128	n/a	LTP298	ltpFR2	1	n/a	n/a	n/a	4	19	5	8	8
687.476	n/a	STOP	687476	n/a	LTP298	ltpFR2	1	n/a	n/a	n/a	4	n/a	n/a	n/a	n/a
689.257	n/a	REC_START	689257	n/a	LTP298	ltpFR2	1	2	n/a	n/a	n/a	n/a	0	0	0
691.374	n/a	REC_WORD	691374	wordpools/wasnorm_wordpool_576.txt	LTP298	ltpFR2	1	2	CATCHER	258	n/a	n/a	0	0	0
692.559	n/a	REC_WORD	692559	wordpools/wasnorm_wordpool_576.txt	LTP298	ltpFR2	1	2	BOYFRIEND	162	n/a	n/a	0	0	0
695.642	n/a	REC_WORD_VV	695642	wordpools/wasnorm_wordpool_576.txt	LTP298	ltpFR2	1	2	<>	-1	n/a	n/a	0	0	0
697.772	n/a	REC_WORD	697772	wordpools/wasnorm_wordpool_576.txt	LTP298	ltpFR2	1	2	COMPASS	358	n/a	n/a	0	0	0
698.876	n/a	REC_WORD	698876	wordpools/wasnorm_wordpool_576.txt	LTP298	ltpFR2	1	2	ACTOR	5	n/a	n/a	0	0	0
701.149	n/a	REC_WORD	701149	wordpools/wasnorm_wordpool_576.txt	LTP298	ltpFR2	1	2	PLUTO	1092	n/a	n/a	0	0	0
704.415	n/a	REC_WORD	704415	wordpools/wasnorm_wordpool_576.txt	LTP298	ltpFR2	1	2	CABIN	211	n/a	n/a	0	0	0
705.214	n/a	REC_WORD	705214	wordpools/wasnorm_wordpool_576.txt	LTP298	ltpFR2	1	2	SHELTER	1282	n/a	n/a	0	0	0
735.94	n/a	REC_WORD	735940	wordpools/wasnorm_wordpool_576.txt	LTP298	ltpFR2	1	2	CARRIAGE	248	n/a	n/a	0	0	0
779.69	n/a	WORD	779690	wordpools/wasnorm_wordpool_576.txt	LTP298	ltpFR2	1	3	HUMAN	726	n/a	n/a	0	0	0
782.21	n/a	WORD	782210	wordpools/wasnorm_wordpool_576.txt	LTP298	ltpFR2	1	3	EGYPT	519	n/a	n/a	0	0	0
784.897	n/a	WORD	784897	wordpools/wasnorm_wordpool_576.txt	LTP298	ltpFR2	1	3	PIGEON	1065	n/a	n/a	0	0	0
787.582	n/a	WORD	787582	wordpools/wasnorm_wordpool_576.txt	LTP298	ltpFR2	1	3	DRAGON	492	n/a	n/a	0	0	0
790.252	n/a	WORD	790252	wordpools/wasnorm_wordpool_576.txt	LTP298	ltpFR2	1	3	FRAME	600	n/a	n/a	0	0	0
792.854	n/a	WORD	792854	wordpools/wasnorm_wordpool_576.txt	LTP298	ltpFR2	1	3	BROTHER	179	n/a	n/a	0	0	0
795.538	n/a	WORD	795538	wordpools/wasnorm_wordpool_576.txt	LTP298	ltpFR2	1	3	SISTER	1312	n/a	n/a	0	0	0
798.04	n/a	WORD	798040	wordpools/wasnorm_wordpool_576.txt	LTP298	ltpFR2	1	3	DRUG	501	n/a	n/a	0	0	0
800.759	n/a	WORD	800759	wordpools/wasnorm_wordpool_576.txt	LTP298	ltpFR2	1	3	FIREPLACE	570	n/a	n/a	0	0	0
803.446	n/a	WORD	803446	wordpools/wasnorm_wordpool_576.txt	LTP298	ltpFR2	1	3	FRIAR	605	n/a	n/a	0	0	0
806.031	n/a	WORD	806031	wordpools/wasnorm_wordpool_576.txt	LTP298	ltpFR2	1	3	HORSE	719	n/a	n/a	0	0	0
808.583	n/a	WORD	808583	wordpools/wasnorm_wordpool_576.txt	LTP298	ltpFR2	1	3	TUBA	1515	n/a	n/a	0	0	0
811.035	n/a	WORD	811035	wordpools/wasnorm_wordpool_576.txt	LTP298	ltpFR2	1	3	MATCH	878	n/a	n/a	0	0	0
813.821	n/a	WORD	813821	wordpools/wasnorm_wordpool_576.txt	LTP298	ltpFR2	1	3	SKETCH	1315	n/a	n/a	0	0	0
816.473	n/a	WORD	816473	wordpools/wasnorm_wordpool_576.txt	LTP298	ltpFR2	1	3	SCRIBBLE	1256	n/a	n/a	0	0	0
819.175	n/a	WORD	819175	wordpools/wasnorm_wordpool_576.txt	LTP298	ltpFR2	1	3	PIANO	1057	n/a	n/a	0	0	0
821.711	n/a	WORD	821711	wordpools/wasnorm_wordpool_576.txt	LTP298	ltpFR2	1	3	SALAD	1224	n/a	n/a	0	0	0
824.28	n/a	WORD	824280	wordpools/wasnorm_wordpool_576.txt	LTP298	ltpFR2	1	3	BOX	159	n/a	n/a	0	0	0
826.798	n/a	WORD	826798	wordpools/wasnorm_wordpool_576.txt	LTP298	ltpFR2	1	3	BINDER	127	n/a	n/a	0	0	0
829.6	n/a	WORD	829600	wordpools/wasnorm_wordpool_576.txt	LTP298	ltpFR2	1	3	PASTA	1021	n/a	n/a	0	0	0
832.036	n/a	WORD	832036	wordpools/wasnorm_wordpool_576.txt	LTP298	ltpFR2	1	3	MOTOR	922	n/a	n/a	0	0	0
834.705	n/a	WORD	834705	wordpools/wasnorm_wordpool_576.txt	LTP298	ltpFR2	1	3	CLOTHES	327	n/a	n/a	0	0	0
837.257	n/a	WORD	837257	wordpools/wasnorm_wordpool_576.txt	LTP298	ltpFR2	1	3	FLASHLIGHT	575	n/a	n/a	0	0	0
839.776	n/a	WORD	839776	wordpools/wasnorm_wordpool_576.txt	LTP298	ltpFR2	1	3	FILM	565	n/a	n/a	0	0	0
841.394	n/a	START	841394	n/a	LTP298	ltpFR2	1	n/a	n/a	n/a	5	n/a	n/a	n/a	n/a
842.447	n/a	DISTRACTOR	842447	n/a	LTP298	ltpFR2	1	3	n/a	n/a	n/a	n/a	0	0	0
842.462	n/a	PROB	842462	n/a	LTP298	ltpFR2	1	n/a	n/a	n/a	5	16	2	9	5
845.079	n/a	PROB	845079	n/a	LTP298	ltpFR2	1	n/a	n/a	n/a	5	13	9	1	3
847.264	n/a	PROB	847264	n/a	LTP298	ltpFR2	1	n/a	n/a	n/a	5	19	6	6	7
852.368	n/a	PROB	852368	n/a	LTP298	ltpFR2	1	n/a	n/a	n/a	5	16	6	6	4
856.237	n/a	PROB	856237	n/a	LTP298	ltpFR2	1	n/a	n/a	n/a	5	12	1	4	7
861.425	n/a	PROB	861425	n/a	LTP298	ltpFR2	1	n/a	n/a	n/a	5	17	4	6	7
865.025	n/a	STOP	865025	n/a	LTP298	ltpFR2	1	n/a	n/a	n/a	5	n/a	n/a	n/a	n/a
867.265	n/a	REC_START	867265	n/a	LTP298	ltpFR2	1	3	n/a	n/a	n/a	n/a	0	0	0
869.232	n/a	REC_WORD	869232	wordpools/wasnorm_wordpool_576.txt	LTP298	ltpFR2	1	3	BROTHER	179	n/a	n/a	0	0	0
870.189	n/a	REC_WORD	870189	wordpools/wasnorm_wordpool_576.txt	LTP298	ltpFR2	1	3	SISTER	1312	n/a	n/a	0	0	0
871.497	n/a	REC_WORD	871497	wordpools/wasnorm_wordpool_576.txt	LTP298	ltpFR2	1	3	FRIAR	605	n/a	n/a	0	0	0
873.089	n/a	REC_WORD	873089	wordpools/wasnorm_wordpool_576.txt	LTP298	ltpFR2	1	3	HUMAN	726	n/a	n/a	0	0	0
874.458	n/a	REC_WORD	874458	wordpools/wasnorm_wordpool_576.txt	LTP298	ltpFR2	1	3	DRAGON	492	n/a	n/a	0	0	0
877.194	n/a	REC_WORD	877194	wordpools/wasnorm_wordpool_576.txt	LTP298	ltpFR2	1	3	FIREPLACE	570	n/a	n/a	0	0	0
878.194	n/a	REC_WORD_VV	878194	wordpools/wasnorm_wordpool_576.txt	LTP298	ltpFR2	1	3	<>	-1	n/a	n/a	0	0	0
878.914	n/a	REC_WORD	878914	wordpools/wasnorm_wordpool_576.txt	LTP298	ltpFR2	1	3	MATCH	878	n/a	n/a	0	0	0
881.459	n/a	REC_WORD	881459	wordpools/wasnorm_wordpool_576.txt	LTP298	ltpFR2	1	3	BOX	159	n/a	n/a	0	0	0
889.343	n/a	REC_WORD	889343	wordpools/wasnorm_wordpool_576.txt	LTP298	ltpFR2	1	3	SCRIBBLE	1256	n/a	n/a	0	0	0
890.579	n/a	REC_WORD	890579	wordpools/wasnorm_wordpool_576.txt	LTP298	ltpFR2	1	3	SKETCH	1315	n/a	n/a	0	0	0
894.991	n/a	REC_WORD	894991	wordpools/wasnorm_wordpool_576.txt	LTP298	ltpFR2	1	3	PIANO	1057	n/a	n/a	0	0	0
957.702	n/a	WORD	957702	wordpools/wasnorm_wordpool_576.txt	LTP298	ltpFR2	1	4	BLADE	134	n/a	n/a	0	0	0
960.197	n/a	WORD	960197	wordpools/wasnorm_wordpool_576.txt	LTP298	ltpFR2	1	4	GARLIC	624	n/a	n/a	0	0	0
962.789	n/a	WORD	962789	wordpools/wasnorm_wordpool_576.txt	LTP298	ltpFR2	1	4	ITEM	746	n/a	n/a	0	0	0
965.451	n/a	WORD	965451	wordpools/wasnorm_wordpool_576.txt	LTP298	ltpFR2	1	4	SPOOL	1356	n/a	n/a	0	0	0
968.17	n/a	WORD	968170	wordpools/wasnorm_wordpool_576.txt	LTP298	ltpFR2	1	4	SNAIL	1332	n/a	n/a	0	0	0
970.789	n/a	WORD	970789	wordpools/wasnorm_wordpool_576.txt	LTP298	ltpFR2	1	4	BURGLAR	200	n/a	n/a	0	0	0
973.374	n/a	WORD	973374	wordpools/wasnorm_wordpool_576.txt	LTP298	ltpFR2	1	4	MONEY	908	n/a	n/a	0	0	0
976.093	n/a	WORD	976093	wordpools/wasnorm_wordpool_576.txt	LTP298	ltpFR2	1	4	HANDBAG	684	n/a	n/a	0	0	0
978.563	n/a	WORD	978563	wordpools/wasnorm_wordpool_576.txt	LTP298	ltpFR2	1	4	KIDNEY	776	n/a	n/a	0	0	0
981.332	n/a	WORD	981332	wordpools/wasnorm_wordpool_576.txt	LTP298	ltpFR2	1	4	CRICKET	408	n/a	n/a	0	0	0
983.868	n/a	WORD	983868	wordpools/wasnorm_wordpool_576.txt	LTP298	ltpFR2	1	4	TERMITE	1451	n/a	n/a	0	0	0
986.675	n/a	WORD	986675	wordpools/wasnorm_wordpool_576.txt	LTP298	ltpFR2	1	4	NAPKIN	937	n/a	n/a	0	0	0
989.394	n/a	WORD	989394	wordpools/wasnorm_wordpool_576.txt	LTP298	ltpFR2	1	4	PARENT	1013	n/a	n/a	0	0	0
992.091	n/a	WORD	992091	wordpools/wasnorm_wordpool_576.txt	LTP298	ltpFR2	1	4	MARINE	869	n/a	n/a	0	0	0
994.682	n/a	WORD	994682	wordpools/wasnorm_wordpool_576.txt	LTP298	ltpFR2	1	4	POSTAGE	1113	n/a	n/a	0	0	0
997.434	n/a	WORD	997434	wordpools/wasnorm_wordpool_576.txt	LTP298	ltpFR2	1	4	WARDROBE	1587	n/a	n/a	0	0	0
1000.164	n/a	WORD	1000164	wordpools/wasnorm_wordpool_576.txt	LTP298	ltpFR2	1	4	DONKEY	484	n/a	n/a	0	0	0
1002.905	n/a	WORD	1002905	wordpools/wasnorm_wordpool_576.txt	LTP298	ltpFR2	1	4	MEAT	883	n/a	n/a	0	0	0
1005.336	n/a	WORD	1005336	wordpools/wasnorm_wordpool_576.txt	LTP298	ltpFR2	1	4	CHAUFFEUR	283	n/a	n/a	0	0	0
1007.82	n/a	WORD	1007820	wordpools/wasnorm_wordpool_576.txt	LTP298	ltpFR2	1	4	TORTOISE	1486	n/a	n/a	0	0	0
1010.561	n/a	WORD	1010561	wordpools/wasnorm_wordpool_576.txt	LTP298	ltpFR2	1	4	COD	340	n/a	n/a	0	0	0
1013.025	n/a	WORD	1013025	wordpools/wasnorm_wordpool_576.txt	LTP298	ltpFR2	1	4	ONION	977	n/a	n/a	0	0	0
1015.729	n/a	WORD	1015729	wordpools/wasnorm_wordpool_576.txt	LTP298	ltpFR2	1	4	LAMP	798	n/a	n/a	0	0	0
1018.263	n/a	WORD	1018263	wordpools/wasnorm_wordpool_576.txt	LTP298	ltpFR2	1	4	SWITCH	1422	n/a	n/a	0	0	0
1019.866	n/a	START	1019866	n/a	LTP298	ltpFR2	1	n/a	n/a	n/a	6	n/a	n/a	n/a	n/a
1020.74	n/a	DISTRACTOR	1020740	n/a	LTP298	ltpFR2	1	4	n/a	n/a	n/a	n/a	0	0	0
1020.749	n/a	PROB	1020749	n/a	LTP298	ltpFR2	1	n/a	n/a	n/a	6	18	3	6	9
1025.385	n/a	PROB	1025385	n/a	LTP298	ltpFR2	1	n/a	n/a	n/a	6	18	3	6	9
1028.238	n/a	PROB	1028238	n/a	LTP298	ltpFR2	1	n/a	n/a	n/a	6	5	1	2	2
1030.556	n/a	PROB	1030556	n/a	LTP298	ltpFR2	1	n/a	n/a	n/a	6	17	5	8	4
1036.012	n/a	PROB	1036012	n/a	LTP298	ltpFR2	1	n/a	n/a	n/a	6	17	5	9	3
1043.867	n/a	STOP	1043867	n/a	LTP298	ltpFR2	1	n/a	n/a	n/a	6	n/a	n/a	n/a	n/a
1045.806	n/a	REC_START	1045806	n/a	LTP298	ltpFR2	1	4	n/a	n/a	n/a	n/a	0	0	0
1048.294	n/a	REC_WORD	1048294	wordpools/wasnorm_wordpool_576.txt	LTP298	ltpFR2	1	4	BLADE	134	n/a	n/a	0	0	0
1049.682	n/a	REC_WORD	1049682	wordpools/wasnorm_wordpool_576.txt	LTP298	ltpFR2	1	4	GARLIC	624	n/a	n/a	0	0	0
1054.984	n/a	REC_WORD	1054984	wordpools/wasnorm_wordpool_576.txt	LTP298	ltpFR2	1	4	BURGLAR	200	n/a	n/a	0	0	0
1056.448	n/a	REC_WORD	1056448	wordpools/wasnorm_wordpool_576.txt	LTP298	ltpFR2	1	4	MONEY	908	n/a	n/a	0	0	0
1058.541	n/a	REC_WORD	1058541	wordpools/wasnorm_wordpool_576.txt	LTP298	ltpFR2	1	4	HANDBAG	684	n/a	n/a	0	0	0
1059.541	n/a	REC_WORD_VV	1059541	wordpools/wasnorm_wordpool_576.txt	LTP298	ltpFR2	1	4	<>	-1	n/a	n/a	0	0	0
1065.344	n/a	REC_WORD	1065344	wordpools/wasnorm_wordpool_576.txt	LTP298	ltpFR2	1	4	CHAUFFEUR	283	n/a	n/a	0	0	0
1070.029	n/a	REC_WORD	1070029	wordpools/wasnorm_wordpool_576.txt	LTP298	ltpFR2	1	4	ONION	977	n/a	n/a	0	0	0
1074.393	n/a	REC_WORD	1074393	wordpools/wasnorm_wordpool_576.txt	LTP298	ltpFR2	1	4	COD	340	n/a	n/a	0	0	0
1108.328	n/a	REC_WORD	1108328	wordpools/wasnorm_wordpool_576.txt	LTP298	ltpFR2	1	4	KIDNEY	776	n/a	n/a	0	0	0
1163.565	n/a	WORD	1163565	wordpools/wasnorm_wordpool_576.txt	LTP298	ltpFR2	1	5	VIKING	1565	n/a	n/a	0	0	0
1166.034	n/a	WORD	1166034	wordpools/wasnorm_wordpool_576.txt	LTP298	ltpFR2	1	5	AGENT	10	n/a	n/a	0	0	0
1168.535	n/a	WORD	1168535	wordpools/wasnorm_wordpool_576.txt	LTP298	ltpFR2	1	5	PALACE	1006	n/a	n/a	0	0	0
1170.995	n/a	WORD	1170995	wordpools/wasnorm_wordpool_576.txt	LTP298	ltpFR2	1	5	PICTURE	1061	n/a	n/a	0	0	0
1173.756	n/a	WORD	1173756	wordpools/wasnorm_wordpool_576.txt	LTP298	ltpFR2	1	5	PRINCE	1124	n/a	n/a	0	0	0
1176.292	n/a	WORD	1176292	wordpools/wasnorm_wordpool_576.txt	LTP298	ltpFR2	1	5	HAWK	692	n/a	n/a	0	0	0
1179.095	n/a	WORD	1179095	wordpools/wasnorm_wordpool_576.txt	LTP298	ltpFR2	1	5	BARREL	91	n/a	n/a	0	0	0
1181.63	n/a	WORD	1181630	wordpools/wasnorm_wordpool_576.txt	LTP298	ltpFR2	1	5	CHAMPAGNE	278	n/a	n/a	0	0	0
1184.207	n/a	WORD	1184207	wordpools/wasnorm_wordpool_576.txt	LTP298	ltpFR2	1	5	TWEEZERS	1526	n/a	n/a	0	0	0
1186.793	n/a	WORD	1186793	wordpools/wasnorm_wordpool_576.txt	LTP298	ltpFR2	1	5	WAITER	1580	n/a	n/a	0	0	0
1189.344	n/a	WORD	1189344	wordpools/wasnorm_wordpool_576.txt	LTP298	ltpFR2	1	5	ROOSTER	1209	n/a	n/a	0	0	0
1192.13	n/a	WORD	1192130	wordpools/wasnorm_wordpool_576.txt	LTP298	ltpFR2	1	5	WRENCH	1625	n/a	n/a	0	0	0
1194.615	n/a	WORD	1194615	wordpools/wasnorm_wordpool_576.txt	LTP298	ltpFR2	1	5	PIZZA	1079	n/a	n/a	0	0	0
1197.208	n/a	WORD	1197208	wordpools/wasnorm_wordpool_576.txt	LTP298	ltpFR2	1	5	PASTRY	1022	n/a	n/a	0	0	0
1199.644	n/a	WORD	1199644	wordpools/wasnorm_wordpool_576.txt	LTP298	ltpFR2	1	5	HEADBAND	696	n/a	n/a	0	0	0
1202.129	n/a	WORD	1202129	wordpools/wasnorm_wordpool_576.txt	LTP298	ltpFR2	1	5	INMATE	738	n/a	n/a	0	0	0
1204.681	n/a	WORD	1204681	wordpools/wasnorm_wordpool_576.txt	LTP298	ltpFR2	1	5	OMELET	976	n/a	n/a	0	0	0
1207.283	n/a	WORD	1207283	wordpools/wasnorm_wordpool_576.txt	LTP298	ltpFR2	1	5	JUNGLE	764	n/a	n/a	0	0	0
1209.984	n/a	WORD	1209984	wordpools/wasnorm_wordpool_576.txt	LTP298	ltpFR2	1	5	PRIMATE	1123	n/a	n/a	0	0	0
1212.73	n/a	WORD	1212730	wordpools/wasnorm_wordpool_576.txt	LTP298	ltpFR2	1	5	SKILLET	1317	n/a	n/a	0	0	0
1215.5	n/a	WORD	1215500	wordpools/wasnorm_wordpool_576.txt	LTP298	ltpFR2	1	5	ROD	1203	n/a	n/a	0	0	0
1218.085	n/a	WORD	1218085	wordpools/wasnorm_wordpool_576.txt	LTP298	ltpFR2	1	5	DRAWING	494	n/a	n/a	0	0	0
1220.821	n/a	WORD	1220821	wordpools/wasnorm_wordpool_576.txt	LTP298	ltpFR2	1	5	BANK	83	n/a	n/a	0	0	0
1223.506	n/a	WORD	1223506	wordpools/wasnorm_wordpool_576.txt	LTP298	ltpFR2	1	5	PADDLE	1000	n/a	n/a	0	0	0
1225.114	n/a	START	1225114	n/a	LTP298	ltpFR2	1	n/a	n/a	n/a	7	n/a	n/a	n/a	n/a
1226.089	n/a	DISTRACTOR	1226089	n/a	LTP298	ltpFR2	1	5	n/a	n/a	n/a	n/a	0	0	0
1226.092	n/a	PROB	1226092	n/a	LTP298	ltpFR2	1	n/a	n/a	n/a	7	16	3	9	4
1230.402	n/a	PROB	1230402	n/a	LTP298	ltpFR2	1	n/a	n/a	n/a	7	12	2	7	3
1233.319	n/a	PROB	1233319	n/a	LTP298	ltpFR2	1	n/a	n/a	n/a	7	17	7	6	4
1235.738	n/a	PROB	1235738	n/a	LTP298	ltpFR2	1	n/a	n/a	n/a	7	13	4	6	3
1238.441	n/a	PROB	1238441	n/a	LTP298	ltpFR2	1	n/a	n/a	n/a	7	15	5	3	7
1240.708	n/a	PROB	1240708	n/a	LTP298	ltpFR2	1	n/a	n/a	n/a	7	16	6	1	9
1242.928	n/a	PROB	1242928	n/a	LTP298	ltpFR2	1	n/a	n/a	n/a	7	13	6	4	3
1245.062	n/a	PROB	1245062	n/a	LTP298	ltpFR2	1	n/a	n/a	n/a	7	13	2	9	2
1249.115	n/a	STOP	1249115	n/a	LTP298	ltpFR2	1	n/a	n/a	n/a	7	n/a	n/a	n/a	n/a
1250.918	n/a	REC_START	1250918	n/a	LTP298	ltpFR2	1	5	n/a	n/a	n/a	n/a	0	0	0
1252.771	n/a	REC_WORD	1252771	wordpools/wasnorm_wordpool_576.txt	LTP298	ltpFR2	1	5	VIKING	1565	n/a	n/a	0	0	0
1254.5	n/a	REC_WORD	1254500	wordpools/wasnorm_wordpool_576.txt	LTP298	ltpFR2	1	5	AGENT	10	n/a	n/a	0	0	0
1256.11	n/a	REC_WORD	1256110	wordpools/wasnorm_wordpool_576.txt	LTP298	ltpFR2	1	5	PALACE	1006	n/a	n/a	0	0	0
1258.559	n/a	REC_WORD	1258559	wordpools/wasnorm_wordpool_576.txt	LTP298	ltpFR2	1	5	PICTURE	1061	n/a	n/a	0	0	0
1259.934	n/a	REC_WORD	1259934	wordpools/wasnorm_wordpool_576.txt	LTP298	ltpFR2	1	5	PRINCE	1124	n/a	n/a	0	0	0
1262.051	n/a	REC_WORD	1262051	wordpools/wasnorm_wordpool_576.txt	LTP298	ltpFR2	1	5	CHAMPAGNE	278	n/a	n/a	0	0	0
1264.09	n/a	REC_WORD	1264090	wordpools/wasnorm_wordpool_576.txt	LTP298	ltpFR2	1	5	WAITER	1580	n/a	n/a	0	0	0
1270.698	n/a	REC_WORD	1270698	wordpools/wasnorm_wordpool_576.txt	LTP298	ltpFR2	1	5	OMELET	976	n/a	n/a	0	0	0
1271.772	n/a	REC_WORD	1271772	wordpools/wasnorm_wordpool_576.txt	LTP298	ltpFR2	1	5	SKILLET	1317	n/a	n/a	0	0	0
1274.596	n/a	REC_WORD	1274596	wordpools/wasnorm_wordpool_576.txt	LTP298	ltpFR2	1	5	DRAWING	494	n/a	n/a	0	0	0
1287.355	n/a	REC_WORD	1287355	wordpools/wasnorm_wordpool_576.txt	LTP298	ltpFR2	1	5	PIZZA	1079	n/a	n/a	0	0	0
1341.356	n/a	DISTRACTOR	1341356	n/a	LTP298	ltpFR2	1	6	n/a	n/a	n/a	n/a	0	0	0
1341.356	n/a	START	1341356	n/a	LTP298	ltpFR2	1	n/a	n/a	n/a	8	n/a	n/a	n/a	n/a
1341.372	n/a	PROB	1341372	n/a	LTP298	ltpFR2	1	n/a	n/a	n/a	8	19	9	1	9
1343.174	n/a	PROB	1343174	n/a	LTP298	ltpFR2	1	n/a	n/a	n/a	8	13	2	2	9
1345.225	n/a	PROB	1345225	n/a	LTP298	ltpFR2	1	n/a	n/a	n/a	8	15	4	4	7
1348.427	n/a	PROB	1348427	n/a	LTP298	ltpFR2	1	n/a	n/a	n/a	8	12	3	3	6
1351.164	n/a	PROB	1351164	n/a	LTP298	ltpFR2	1	n/a	n/a	n/a	8	12	7	4	1
1354.149	n/a	PROB	1354149	n/a	LTP298	ltpFR2	1	n/a	n/a	n/a	8	7	2	4	1
1359.469	n/a	PROB	1359469	n/a	LTP298	ltpFR2	1	n/a	n/a	n/a	8	11	1	2	8
1361.738	n/a	PROB	1361738	n/a	LTP298	ltpFR2	1	n/a	n/a	n/a	8	13	4	8	1
1364.816	n/a	STOP	1364816	n/a	LTP298	ltpFR2	1	n/a	n/a	n/a	8	n/a	n/a	n/a	n/a
1366.297	n/a	WORD	1366297	wordpools/wasnorm_wordpool_576.txt	LTP298	ltpFR2	1	6	HONEY	713	n/a	n/a	0	0	0
1368.878	n/a	WORD	1368878	wordpools/wasnorm_wordpool_576.txt	LTP298	ltpFR2	1	6	MAPLE	866	n/a	n/a	0	0	0
1371.33	n/a	WORD	1371330	wordpools/wasnorm_wordpool_576.txt	LTP298	ltpFR2	1	6	LUMBER	848	n/a	n/a	0	0	0
1373.966	n/a	WORD	1373966	wordpools/wasnorm_wordpool_576.txt	LTP298	ltpFR2	1	6	COCKTAIL	338	n/a	n/a	0	0	0
1376.516	n/a	WORD	1376516	wordpools/wasnorm_wordpool_576.txt	LTP298	ltpFR2	1	6	COWBOY	395	n/a	n/a	0	0	0
1378.941	n/a	WORD	1378941	wordpools/wasnorm_wordpool_576.txt	LTP298	ltpFR2	1	6	DRIVER	499	n/a	n/a	0	0	0
1381.604	n/a	WORD	1381604	wordpools/wasnorm_wordpool_576.txt	LTP298	ltpFR2	1	6	SCALLOP	1242	n/a	n/a	0	0	0
1384.241	n/a	WORD	1384241	wordpools/wasnorm_wordpool_576.txt	LTP298	ltpFR2	1	6	COUSIN	392	n/a	n/a	0	0	0
1386.96	n/a	WORD	1386960	wordpools/wasnorm_wordpool_576.txt	LTP298	ltpFR2	1	6	NEUTRON	947	n/a	n/a	0	0	0
1389.394	n/a	WORD	1389394	wordpools/wasnorm_wordpool_576.txt	LTP298	ltpFR2	1	6	POCKET	1093	n/a	n/a	0	0	0
1391.947	n/a	WORD	1391947	wordpools/wasnorm_wordpool_576.txt	LTP298	ltpFR2	1	6	PATIENT	1024	n/a	n/a	0	0	0
1394.649	n/a	WORD	1394649	wordpools/wasnorm_wordpool_576.txt	LTP298	ltpFR2	1	6	KLEENEX	782	n/a	n/a	0	0	0
1397.373	n/a	WORD	1397373	wordpools/wasnorm_wordpool_576.txt	LTP298	ltpFR2	1	6	PAPER	1011	n/a	n/a	0	0	0
1399.835	n/a	WORD	1399835	wordpools/wasnorm_wordpool_576.txt	LTP298	ltpFR2	1	6	LUNCH	849	n/a	n/a	0	0	0
1402.61	n/a	WORD	1402610	wordpools/wasnorm_wordpool_576.txt	LTP298	ltpFR2	1	6	GLOVE	642	n/a	n/a	0	0	0
1405.313	n/a	WORD	1405313	wordpools/wasnorm_wordpool_576.txt	LTP298	ltpFR2	1	6	SHELF	1280	n/a	n/a	0	0	0
1407.792	n/a	WORD	1407792	wordpools/wasnorm_wordpool_576.txt	LTP298	ltpFR2	1	6	AUTHOR	61	n/a	n/a	0	0	0
1410.535	n/a	WORD	1410535	wordpools/wasnorm_wordpool_576.txt	LTP298	ltpFR2	1	6	SEAFOOD	1260	n/a	n/a	0	0	0
1413.17	n/a	WORD	1413170	wordpools/wasnorm_wordpool_576.txt	LTP298	ltpFR2	1	6	BLENDER	136	n/a	n/a	0	0	0
1415.982	n/a	WORD	1415982	wordpools/wasnorm_wordpool_576.txt	LTP298	ltpFR2	1	6	WORKER	1621	n/a	n/a	0	0	0
1418.641	n/a	WORD	1418641	wordpools/wasnorm_wordpool_576.txt	LTP298	ltpFR2	1	6	TRACTOR	1493	n/a	n/a	0	0	0
1421.136	n/a	WORD	1421136	wordpools/wasnorm_wordpool_576.txt	LTP298	ltpFR2	1	6	PAIL	1002	n/a	n/a	0	0	0
1423.688	n/a	WORD	1423688	wordpools/wasnorm_wordpool_576.txt	LTP298	ltpFR2	1	6	GAZELLE	628	n/a	n/a	0	0	0
1426.147	n/a	WORD	1426147	wordpools/wasnorm_wordpool_576.txt	LTP298	ltpFR2	1	6	TYPIST	1532	n/a	n/a	0	0	0
1427.758	n/a	START	1427758	n/a	LTP298	ltpFR2	1	n/a	n/a	n/a	9	n/a	n/a	n/a	n/a
1428.804	n/a	DISTRACTOR	1428804	n/a	LTP298	ltpFR2	1	6	n/a	n/a	n/a	n/a	0	0	0
1428.809	n/a	PROB	1428809	n/a	LTP298	ltpFR2	1	n/a	n/a	n/a	9	16	6	7	3
1432.277	n/a	PROB	1432277	n/a	LTP298	ltpFR2	1	n/a	n/a	n/a	9	18	8	2	8
1435.681	n/a	PROB	1435681	n/a	LTP298	ltpFR2	1	n/a	n/a	n/a	9	16	3	8	5
1439.283	n/a	PROB	1439283	n/a	LTP298	ltpFR2	1	n/a	n/a	n/a	9	21	7	5	9
1451.758	n/a	STOP	1451758	n/a	LTP298	ltpFR2	1	n/a	n/a	n/a	9	n/a	n/a	n/a	n/a
1453.696	n/a	REC_START	1453696	n/a	LTP298	ltpFR2	1	6	n/a	n/a	n/a	n/a	0	0	0
1455.0	n/a	REC_WORD	1455000	wordpools/wasnorm_wordpool_576.txt	LTP298	ltpFR2	1	6	SCALLOP	1242	n/a	n/a	0	0	0
1457.433	n/a	REC_WORD	1457433	wordpools/wasnorm_wordpool_576.txt	LTP298	ltpFR2	1	6	SEAFOOD	1260	n/a	n/a	0	0	0
1483.181	n/a	REC_WORD	1483181	wordpools/wasnorm_wordpool_576.txt	LTP298	ltpFR2	1	6	LUNCH	849	n/a	n/a	0	0	0
1544.167	n/a	WORD	1544167	wordpools/wasnorm_wordpool_576.txt	LTP298	ltpFR2	1	7	NURSE	963	n/a	n/a	0	0	0
1546.718	n/a	WORD	1546718	wordpools/wasnorm_wordpool_576.txt	LTP298	ltpFR2	1	7	SCALPEL	1243	n/a	n/a	0	0	0
1549.37	n/a	WORD	1549370	wordpools/wasnorm_wordpool_576.txt	LTP298	ltpFR2	1	7	DRILL	497	n/a	n/a	0	0	0
1552.138	n/a	WORD	1552138	wordpools/wasnorm_wordpool_576.txt	LTP298	ltpFR2	1	7	FLASK	576	n/a	n/a	0	0	0
1554.609	n/a	WORD	1554609	wordpools/wasnorm_wordpool_576.txt	LTP298	ltpFR2	1	7	COFFEE	341	n/a	n/a	0	0	0
1557.144	n/a	WORD	1557144	wordpools/wasnorm_wordpool_576.txt	LTP298	ltpFR2	1	7	SODA	1341	n/a	n/a	0	0	0
1559.88	n/a	WORD	1559880	wordpools/wasnorm_wordpool_576.txt	LTP298	ltpFR2	1	7	SOFTBALL	1343	n/a	n/a	0	0	0
1562.532	n/a	WORD	1562532	wordpools/wasnorm_wordpool_576.txt	LTP298	ltpFR2	1	7	LEOPARD	812	n/a	n/a	0	0	0
1565.216	n/a	WORD	1565216	wordpools/wasnorm_wordpool_576.txt	LTP298	ltpFR2	1	7	PATROL	1027	n/a	n/a	0	0	0
1567.919	n/a	WORD	1567919	wordpools/wasnorm_wordpool_576.txt	LTP298	ltpFR2	1	7	PUPPY	1144	n/a	n/a	0	0	0
1570.654	n/a	WORD	1570654	wordpools/wasnorm_wordpool_576.txt	LTP298	ltpFR2	1	7	RUST	1219	n/a	n/a	0	0	0
1573.074	n/a	WORD	1573074	wordpools/wasnorm_wordpool_576.txt	LTP298	ltpFR2	1	7	FIDDLE	561	n/a	n/a	0	0	0
1575.558	n/a	WORD	1575558	wordpools/wasnorm_wordpool_576.txt	LTP298	ltpFR2	1	7	PIMPLE	1071	n/a	n/a	0	0	0
1578.26	n/a	WORD	1578260	wordpools/wasnorm_wordpool_576.txt	LTP298	ltpFR2	1	7	KNIFE	785	n/a	n/a	0	0	0
1581.079	n/a	WORD	1581079	wordpools/wasnorm_wordpool_576.txt	LTP298	ltpFR2	1	7	DORM	488	n/a	n/a	0	0	0
1583.597	n/a	WORD	1583597	wordpools/wasnorm_wordpool_576.txt	LTP298	ltpFR2	1	7	BEAKER	104	n/a	n/a	0	0	0
1586.233	n/a	WORD	1586233	wordpools/wasnorm_wordpool_576.txt	LTP298	ltpFR2	1	7	BRANDY	169	n/a	n/a	0	0	0
1588.719	n/a	WORD	1588719	wordpools/wasnorm_wordpool_576.txt	LTP298	ltpFR2	1	7	LADY	794	n/a	n/a	0	0	0
1591.438	n/a	WORD	1591438	wordpools/wasnorm_wordpool_576.txt	LTP298	ltpFR2	1	7	DOUGHNUT	490	n/a	n/a	0	0	0
1594.224	n/a	WORD	1594224	wordpools/wasnorm_wordpool_576.txt	LTP298	ltpFR2	1	7	SPHINX	1349	n/a	n/a	0	0	0
1596.641	n/a	WORD	1596641	wordpools/wasnorm_wordpool_576.txt	LTP298	ltpFR2	1	7	DENTIST	447	n/a	n/a	0	0	0
1599.364	n/a	WORD	1599364	wordpools/wasnorm_wordpool_576.txt	LTP298	ltpFR2	1	7	HAMPER	682	n/a	n/a	0	0	0
1602.179	n/a	WORD	1602179	wordpools/wasnorm_wordpool_576.txt	LTP298	ltpFR2	1	7	ACTRESS	6	n/a	n/a	0	0	0
1604.651	n/a	WORD	1604651	wordpools/wasnorm_wordpool_576.txt	LTP298	ltpFR2	1	7	CRITIC	410	n/a	n/a	0	0	0
1606.266	n/a	START	1606266	n/a	LTP298	ltpFR2	1	n/a	n/a	n/a	10	n/a	n/a	n/a	n/a
1607.399	n/a	DISTRACTOR	1607399	n/a	LTP298	ltpFR2	1	7	n/a	n/a	n/a	n/a	0	0	0
1607.403	n/a	PROB	1607403	n/a	LTP298	ltpFR2	1	n/a	n/a	n/a	10	22	8	4	9
1612.569	n/a	PROB	1612569	n/a	LTP298	ltpFR2	1	n/a	n/a	n/a	10	11	5	3	3
1618.991	n/a	PROB	1618991	n/a	LTP298	ltpFR2	1	n/a	n/a	n/a	10	24	9	9	6
1623.798	n/a	PROB	1623798	n/a	LTP298	ltpFR2	1	n/a	n/a	n/a	10	17	3	5	9
1629.104	n/a	STOP	1629104	n/a	LTP298	ltpFR2	1	n/a	n/a	n/a	10	n/a	n/a	n/a	n/a
1632.137	n/a	REC_START	1632137	n/a	LTP298	ltpFR2	1	7	n/a	n/a	n/a	n/a	0	0	0
1633.858	n/a	REC_WORD	1633858	wordpools/wasnorm_wordpool_576.txt	LTP298	ltpFR2	1	7	NURSE	963	n/a	n/a	0	0	0
1635.168	n/a	REC_WORD	1635168	wordpools/wasnorm_wordpool_576.txt	LTP298	ltpFR2	1	7	SCALPEL	1243	n/a	n/a	0	0	0
1636.853	n/a	REC_WORD	1636853	wordpools/wasnorm_wordpool_576.txt	LTP298	ltpFR2	1	7	DRILL	497	n/a	n/a	0	0	0
1638.605	n/a	REC_WORD	1638605	wordpools/wasnorm_wordpool_576.txt	LTP298	ltpFR2	1	7	FLASK	576	n/a	n/a	0	0	0
1640.406	n/a	REC_WORD	1640406	wordpools/wasnorm_wordpool_576.txt	LTP298	ltpFR2	1	7	COFFEE	341	n/a	n/a	0	0	0
1641.916	n/a	REC_WORD	1641916	wordpools/wasnorm_wordpool_576.txt	LTP298	ltpFR2	1	7	SODA	1341	n/a	n/a	0	0	0
1643.742	n/a	REC_WORD	1643742	wordpools/wasnorm_wordpool_576.txt	LTP298	ltpFR2	1	7	BRANDY	169	n/a	n/a	0	0	0
1645.909	n/a	REC_WORD	1645909	wordpools/wasnorm_wordpool_576.txt	LTP298	ltpFR2	1	7	DENTIST	447	n/a	n/a	0	0	0
1672.633	n/a	REC_WORD	1672633	wordpools/wasnorm_wordpool_576.txt	LTP298	ltpFR2	1	7	DOUGHNUT	490	n/a	n/a	0	0	0
1677.217	n/a	REC_WORD	1677217	wordpools/wasnorm_wordpool_576.txt	LTP298	ltpFR2	1	7	ACTRESS	6	n/a	n/a	0	0	0
1678.554	n/a	REC_WORD	1678554	wordpools/wasnorm_wordpool_576.txt	LTP298	ltpFR2	1	7	CRITIC	410	n/a	n/a	0	0	0
1722.569	n/a	WORD	1722569	wordpools/wasnorm_wordpool_576.txt	LTP298	ltpFR2	1	8	CROWN	415	n/a	n/a	0	0	0
1725.277	n/a	WORD	1725277	wordpools/wasnorm_wordpool_576.txt	LTP298	ltpFR2	1	8	THRONE	1461	n/a	n/a	0	0	0
1728.009	n/a	WORD	1728009	wordpools/wasnorm_wordpool_576.txt	LTP298	ltpFR2	1	8	SPOUSE	1358	n/a	n/a	0	0	0
1730.647	n/a	WORD	1730647	wordpools/wasnorm_wordpool_576.txt	LTP298	ltpFR2	1	8	DASHBOARD	441	n/a	n/a	0	0	0
1733.162	n/a	WORD	1733162	wordpools/wasnorm_wordpool_576.txt	LTP298	ltpFR2	1	8	LETTUCE	814	n/a	n/a	0	0	0
1735.631	n/a	WORD	1735631	wordpools/wasnorm_wordpool_576.txt	LTP298	ltpFR2	1	8	DIVER	476	n/a	n/a	0	0	0
1738.333	n/a	WORD	1738333	wordpools/wasnorm_wordpool_576.txt	LTP298	ltpFR2	1	8	PARTNER	1017	n/a	n/a	0	0	0
1740.852	n/a	WORD	1740852	wordpools/wasnorm_wordpool_576.txt	LTP298	ltpFR2	1	8	JOURNAL	760	n/a	n/a	0	0	0
1743.337	n/a	WORD	1743337	wordpools/wasnorm_wordpool_576.txt	LTP298	ltpFR2	1	8	POET	1095	n/a	n/a	0	0	0
1746.027	n/a	WORD	1746027	wordpools/wasnorm_wordpool_576.txt	LTP298	ltpFR2	1	8	PEDAL	1037	n/a	n/a	0	0	0
1748.809	n/a	WORD	1748809	wordpools/wasnorm_wordpool_576.txt	LTP298	ltpFR2	1	8	CREVICE	405	n/a	n/a	0	0	0
1751.31	n/a	WORD	1751310	wordpools/wasnorm_wordpool_576.txt	LTP298	ltpFR2	1	8	DUSTPAN	509	n/a	n/a	0	0	0
1754.096	n/a	WORD	1754096	wordpools/wasnorm_wordpool_576.txt	LTP298	ltpFR2	1	8	FLIPPER	580	n/a	n/a	0	0	0
1756.717	n/a	WORD	1756717	wordpools/wasnorm_wordpool_576.txt	LTP298	ltpFR2	1	8	DUST	508	n/a	n/a	0	0	0
1759.135	n/a	WORD	1759135	wordpools/wasnorm_wordpool_576.txt	LTP298	ltpFR2	1	8	BATHTUB	100	n/a	n/a	0	0	0
1761.57	n/a	WORD	1761570	wordpools/wasnorm_wordpool_576.txt	LTP298	ltpFR2	1	8	SWAMP	1416	n/a	n/a	0	0	0
1764.156	n/a	WORD	1764156	wordpools/wasnorm_wordpool_576.txt	LTP298	ltpFR2	1	8	SHERIFF	1284	n/a	n/a	0	0	0
1766.658	n/a	WORD	1766658	wordpools/wasnorm_wordpool_576.txt	LTP298	ltpFR2	1	8	MOTEL	919	n/a	n/a	0	0	0
1769.126	n/a	WORD	1769126	wordpools/wasnorm_wordpool_576.txt	LTP298	ltpFR2	1	8	GUARD	667	n/a	n/a	0	0	0
1771.578	n/a	WORD	1771578	wordpools/wasnorm_wordpool_576.txt	LTP298	ltpFR2	1	8	WASP	1593	n/a	n/a	0	0	0
1774.381	n/a	WORD	1774381	wordpools/wasnorm_wordpool_576.txt	LTP298	ltpFR2	1	8	BIKE	125	n/a	n/a	0	0	0
1776.951	n/a	WORD	1776951	wordpools/wasnorm_wordpool_576.txt	LTP298	ltpFR2	1	8	ELBOW	520	n/a	n/a	0	0	0
1779.569	n/a	WORD	1779569	wordpools/wasnorm_wordpool_576.txt	LTP298	ltpFR2	1	8	VELVET	1555	n/a	n/a	0	0	0
1782.154	n/a	WORD	1782154	wordpools/wasnorm_wordpool_576.txt	LTP298	ltpFR2	1	8	ORANGE	980	n/a	n/a	0	0	0
1783.772	n/a	START	1783772	n/a	LTP298	ltpFR2	1	n/a	n/a	n/a	11	n/a	n/a	n/a	n/a
1784.603	n/a	DISTRACTOR	1784603	n/a	LTP298	ltpFR2	1	8	n/a	n/a	n/a	n/a	0	0	0
1784.606	n/a	PROB	1784606	n/a	LTP298	ltpFR2	1	n/a	n/a	n/a	11	18	9	6	3
1788.46	n/a	PROB	1788460	n/a	LTP298	ltpFR2	1	n/a	n/a	n/a	11	10	1	2	7
1791.029	n/a	PROB	1791029	n/a	LTP298	ltpFR2	1	n/a	n/a	n/a	11	10	1	6	3
1793.314	n/a	PROB	1793314	n/a	LTP298	ltpFR2	1	n/a	n/a	n/a	11	12	7	3	2
1796.349	n/a	PROB	1796349	n/a	LTP298	ltpFR2	1	n/a	n/a	n/a	11	6	3	2	1
1799.803	n/a	PROB	1799803	n/a	LTP298	ltpFR2	1	n/a	n/a	n/a	11	15	3	8	4
1807.773	n/a	STOP	1807773	n/a	LTP298	ltpFR2	1	n/a	n/a	n/a	11	n/a	n/a	n/a	n/a
1809.577	n/a	REC_START	1809577	n/a	LTP298	ltpFR2	1	8	n/a	n/a	n/a	n/a	0	0	0
1812.435	n/a	REC_WORD	1812435	wordpools/wasnorm_wordpool_576.txt	LTP298	ltpFR2	1	8	SHERIFF	1284	n/a	n/a	0	0	0
1817.829	n/a	REC_WORD	1817829	wordpools/wasnorm_wordpool_576.txt	LTP298	ltpFR2	1	8	CREVICE	405	n/a	n/a	0	0	0
1840.699	n/a	REC_WORD_VV	1840699	wordpools/wasnorm_wordpool_576.txt	LTP298	ltpFR2	1	8	<>	-1	n/a	n/a	0	0	0
1844.785	n/a	REC_WORD_VV	1844785	wordpools/wasnorm_wordpool_576.txt	LTP298	ltpFR2	1	8	<>	-1	n/a	n/a	0	0	0
1854.692	n/a	REC_WORD	1854692	wordpools/wasnorm_wordpool_576.txt	LTP298	ltpFR2	1	8	THRONE	1461	n/a	n/a	0	0	0
1856.007	n/a	REC_WORD	1856007	wordpools/wasnorm_wordpool_576.txt	LTP298	ltpFR2	1	8	CROWN	415	n/a	n/a	0	0	0
1861.639	n/a	REC_WORD	1861639	wordpools/wasnorm_wordpool_576.txt	LTP298	ltpFR2	1	8	PREACHER	1119	n/a	n/a	0	0	0
1865.831	n/a	REC_WORD	1865831	wordpools/wasnorm_wordpool_576.txt	LTP298	ltpFR2	1	8	GUARD	667	n/a	n/a	0	0	0
1867.212	n/a	REC_WORD	1867212	wordpools/wasnorm_wordpool_576.txt	LTP298	ltpFR2	1	8	WASP	1593	n/a	n/a	0	0	0
1870.926	n/a	REC_WORD	1870926	wordpools/wasnorm_wordpool_576.txt	LTP298	ltpFR2	1	8	DRIVER	499	n/a	n/a	0	0	0
1872.096	n/a	REC_WORD	1872096	wordpools/wasnorm_wordpool_576.txt	LTP298	ltpFR2	1	8	BIKE	125	n/a	n/a	0	0	0
1886.103	n/a	REST_REWET	1886103	n/a	LTP298	ltpFR2	1	8	n/a	n/a	n/a	n/a	0	0	0
2115.202	n/a	DISTRACTOR	2115202	n/a	LTP298	ltpFR2	1	9	n/a	n/a	n/a	n/a	0	0	0
2115.202	n/a	START	2115202	n/a	LTP298	ltpFR2	1	n/a	n/a	n/a	12	n/a	n/a	n/a	n/a
2115.217	n/a	PROB	2115217	n/a	LTP298	ltpFR2	1	n/a	n/a	n/a	12	20	2	9	9
2118.704	n/a	PROB	2118704	n/a	LTP298	ltpFR2	1	n/a	n/a	n/a	12	12	8	2	2
2121.172	n/a	PROB	2121172	n/a	LTP298	ltpFR2	1	n/a	n/a	n/a	12	11	2	7	2
2125.075	n/a	PROB	2125075	n/a	LTP298	ltpFR2	1	n/a	n/a	n/a	12	16	5	9	2
2129.012	n/a	PROB	2129012	n/a	LTP298	ltpFR2	1	n/a	n/a	n/a	12	14	2	7	5
2132.382	n/a	PROB	2132382	n/a	LTP298	ltpFR2	1	n/a	n/a	n/a	12	13	4	2	7
2136.318	n/a	PROB	2136318	n/a	LTP298	ltpFR2	1	n/a	n/a	n/a	12	12	2	5	5
2138.719	n/a	STOP	2138719	n/a	LTP298	ltpFR2	1	n/a	n/a	n/a	12	n/a	n/a	n/a	n/a
2140.089	n/a	WORD	2140089	wordpools/wasnorm_wordpool_576.txt	LTP298	ltpFR2	1	9	PERCH	1048	n/a	n/a	0	0	0
2142.548	n/a	WORD	2142548	wordpools/wasnorm_wordpool_576.txt	LTP298	ltpFR2	1	9	HATCHET	691	n/a	n/a	0	0	0
2145.293	n/a	WORD	2145293	wordpools/wasnorm_wordpool_576.txt	LTP298	ltpFR2	1	9	DINER	467	n/a	n/a	0	0	0
2147.719	n/a	WORD	2147719	wordpools/wasnorm_wordpool_576.txt	LTP298	ltpFR2	1	9	SERVER	1272	n/a	n/a	0	0	0
2150.438	n/a	WORD	2150438	wordpools/wasnorm_wordpool_576.txt	LTP298	ltpFR2	1	9	JUGGLER	763	n/a	n/a	0	0	0
2152.974	n/a	WORD	2152974	wordpools/wasnorm_wordpool_576.txt	LTP298	ltpFR2	1	9	GYMNAST	675	n/a	n/a	0	0	0
2155.642	n/a	WORD	2155642	wordpools/wasnorm_wordpool_576.txt	LTP298	ltpFR2	1	9	TUTU	1524	n/a	n/a	0	0	0
2158.111	n/a	WORD	2158111	wordpools/wasnorm_wordpool_576.txt	LTP298	ltpFR2	1	9	OINTMENT	974	n/a	n/a	0	0	0
2160.663	n/a	WORD	2160663	wordpools/wasnorm_wordpool_576.txt	LTP298	ltpFR2	1	9	PLIERS	1089	n/a	n/a	0	0	0
2163.349	n/a	WORD	2163349	wordpools/wasnorm_wordpool_576.txt	LTP298	ltpFR2	1	9	GLOBE	641	n/a	n/a	0	0	0
2165.927	n/a	WORD	2165927	wordpools/wasnorm_wordpool_576.txt	LTP298	ltpFR2	1	9	STOVE	1388	n/a	n/a	0	0	0
2168.671	n/a	WORD	2168671	wordpools/wasnorm_wordpool_576.txt	LTP298	ltpFR2	1	9	RUG	1215	n/a	n/a	0	0	0
2171.44	n/a	WORD	2171440	wordpools/wasnorm_wordpool_576.txt	LTP298	ltpFR2	1	9	ZEBRA	1635	n/a	n/a	0	0	0
2173.992	n/a	WORD	2173992	wordpools/wasnorm_wordpool_576.txt	LTP298	ltpFR2	1	9	HEART	697	n/a	n/a	0	0	0
2176.46	n/a	WORD	2176460	wordpools/wasnorm_wordpool_576.txt	LTP298	ltpFR2	1	9	CROSS	413	n/a	n/a	0	0	0
2179.203	n/a	WORD	2179203	wordpools/wasnorm_wordpool_576.txt	LTP298	ltpFR2	1	9	PERFUME	1049	n/a	n/a	0	0	0
2181.923	n/a	WORD	2181923	wordpools/wasnorm_wordpool_576.txt	LTP298	ltpFR2	1	9	DANCER	437	n/a	n/a	0	0	0
2184.49	n/a	WORD	2184490	wordpools/wasnorm_wordpool_576.txt	LTP298	ltpFR2	1	9	QUARTER	1148	n/a	n/a	0	0	0
2187.243	n/a	WORD	2187243	wordpools/wasnorm_wordpool_576.txt	LTP298	ltpFR2	1	9	CHEST	295	n/a	n/a	0	0	0
2189.99	n/a	WORD	2189990	wordpools/wasnorm_wordpool_576.txt	LTP298	ltpFR2	1	9	ARM	38	n/a	n/a	0	0	0
2192.474	n/a	WORD	2192474	wordpools/wasnorm_wordpool_576.txt	LTP298	ltpFR2	1	9	SWIMMER	1420	n/a	n/a	0	0	0
2195.215	n/a	WORD	2195215	wordpools/wasnorm_wordpool_576.txt	LTP298	ltpFR2	1	9	FRAGRANCE	599	n/a	n/a	0	0	0
2197.65	n/a	WORD	2197650	wordpools/wasnorm_wordpool_576.txt	LTP298	ltpFR2	1	9	SMOG	1330	n/a	n/a	0	0	0
2200.231	n/a	WORD	2200231	wordpools/wasnorm_wordpool_576.txt	LTP298	ltpFR2	1	9	JELLY	755	n/a	n/a	0	0	0
2201.838	n/a	START	2201838	n/a	LTP298	ltpFR2	1	n/a	n/a	n/a	13	n/a	n/a	n/a	n/a
2202.973	n/a	DISTRACTOR	2202973	n/a	LTP298	ltpFR2	1	9	n/a	n/a	n/a	n/a	0	0	0
2202.985	n/a	PROB	2202985	n/a	LTP298	ltpFR2	1	n/a	n/a	n/a	13	9	6	2	1
2205.673	n/a	PROB	2205673	n/a	LTP298	ltpFR2	1	n/a	n/a	n/a	13	13	3	3	7
2209.911	n/a	PROB	2209911	n/a	LTP298	ltpFR2	1	n/a	n/a	n/a	13	26	9	9	8
2215.933	n/a	PROB	2215933	n/a	LTP298	ltpFR2	1	n/a	n/a	n/a	13	17	8	2	7
2218.617	n/a	PROB	2218617	n/a	LTP298	ltpFR2	1	n/a	n/a	n/a	13	24	9	7	8
2225.838	n/a	STOP	2225838	n/a	LTP298	ltpFR2	1	n/a	n/a	n/a	13	n/a	n/a	n/a	n/a
2227.642	n/a	REC_START	2227642	n/a	LTP298	ltpFR2	1	9	n/a	n/a	n/a	n/a	0	0	0
2228.7	n/a	REC_WORD	2228700	wordpools/wasnorm_wordpool_576.txt	LTP298	ltpFR2	1	9	PERFUME	1049	n/a	n/a	0	0	0
2229.86	n/a	REC_WORD	2229860	wordpools/wasnorm_wordpool_576.txt	LTP298	ltpFR2	1	9	FRAGRANCE	599	n/a	n/a	0	0	0
2230.86	n/a	REC_WORD_VV	2230860	wordpools/wasnorm_wordpool_576.txt	LTP298	ltpFR2	1	9	<>	-1	n/a	n/a	0	0	0
2231.45	n/a	REC_WORD	2231450	wordpools/wasnorm_wordpool_576.txt	LTP298	ltpFR2	1	9	SMOG	1330	n/a	n/a	0	0	0
2238.048	n/a	REC_WORD	2238048	wordpools/wasnorm_wordpool_576.txt	LTP298	ltpFR2	1	9	GYMNAST	675	n/a	n/a	0	0	0
2239.508	n/a	REC_WORD	2239508	wordpools/wasnorm_wordpool_576.txt	LTP298	ltpFR2	1	9	TUTU	1524	n/a	n/a	0	0	0
2240.712	n/a	REC_WORD	2240712	wordpools/wasnorm_wordpool_576.txt	LTP298	ltpFR2	1	9	DANCER	437	n/a	n/a	0	0	0
2242.955	n/a	REC_WORD	2242955	wordpools/wasnorm_wordpool_576.txt	LTP298	ltpFR2	1	9	SWIMMER	1420	n/a	n/a	0	0	0
2278.776	n/a	REC_WORD	2278776	wordpools/wasnorm_wordpool_576.txt	LTP298	ltpFR2	1	9	JUGGLER	763	n/a	n/a	0	0	0
2318.063	n/a	DISTRACTOR	2318063	n/a	LTP298	ltpFR2	1	10	n/a	n/a	n/a	n/a	0	0	0
2318.063	n/a	START	2318063	n/a	LTP298	ltpFR2	1	n/a	n/a	n/a	14	n/a	n/a	n/a	n/a
2318.08	n/a	PROB	2318080	n/a	LTP298	ltpFR2	1	n/a	n/a	n/a	14	12	4	7	1
2322.049	n/a	PROB	2322049	n/a	LTP298	ltpFR2	1	n/a	n/a	n/a	14	15	1	5	9
2324.467	n/a	PROB	2324467	n/a	LTP298	ltpFR2	1	n/a	n/a	n/a	14	18	9	8	1
2328.637	n/a	PROB	2328637	n/a	LTP298	ltpFR2	1	n/a	n/a	n/a	14	17	1	9	7
2330.856	n/a	PROB	2330856	n/a	LTP298	ltpFR2	1	n/a	n/a	n/a	14	18	7	4	7
2335.509	n/a	PROB	2335509	n/a	LTP298	ltpFR2	1	n/a	n/a	n/a	14	12	2	2	8
2337.627	n/a	PROB	2337627	n/a	LTP298	ltpFR2	1	n/a	n/a	n/a	14	21	3	9	9
2340.533	n/a	STOP	2340533	n/a	LTP298	ltpFR2	1	n/a	n/a	n/a	14	n/a	n/a	n/a	n/a
2342.922	n/a	WORD	2342922	wordpools/wasnorm_wordpool_576.txt	LTP298	ltpFR2	1	10	SPACE	1345	n/a	n/a	0	0	0
2345.673	n/a	WORD	2345673	wordpools/wasnorm_wordpool_576.txt	LTP298	ltpFR2	1	10	SERVANT	1271	n/a	n/a	0	0	0
2348.486	n/a	WORD	2348486	wordpools/wasnorm_wordpool_576.txt	LTP298	ltpFR2	1	10	DONOR	485	n/a	n/a	0	0	0
2351.156	n/a	WORD	2351156	wordpools/wasnorm_wordpool_576.txt	LTP298	ltpFR2	1	10	BACON	67	n/a	n/a	0	0	0
2353.68	n/a	WORD	2353680	wordpools/wasnorm_wordpool_576.txt	LTP298	ltpFR2	1	10	GANGSTER	620	n/a	n/a	0	0	0
2356.493	n/a	WORD	2356493	wordpools/wasnorm_wordpool_576.txt	LTP298	ltpFR2	1	10	MILK	895	n/a	n/a	0	0	0
2359.134	n/a	WORD	2359134	wordpools/wasnorm_wordpool_576.txt	LTP298	ltpFR2	1	10	FOREHEAD	592	n/a	n/a	0	0	0
2361.887	n/a	WORD	2361887	wordpools/wasnorm_wordpool_576.txt	LTP298	ltpFR2	1	10	FRECKLE	602	n/a	n/a	0	0	0
2364.672	n/a	WORD	2364672	wordpools/wasnorm_wordpool_576.txt	LTP298	ltpFR2	1	10	PEANUT	1032	n/a	n/a	0	0	0
2367.301	n/a	WORD	2367301	wordpools/wasnorm_wordpool_576.txt	LTP298	ltpFR2	1	10	AIRPLANE	12	n/a	n/a	0	0	0
2369.871	n/a	WORD	2369871	wordpools/wasnorm_wordpool_576.txt	LTP298	ltpFR2	1	10	FOOTBALL	591	n/a	n/a	0	0	0
2372.323	n/a	WORD	2372323	wordpools/wasnorm_wordpool_576.txt	LTP298	ltpFR2	1	10	TABLE	1426	n/a	n/a	0	0	0
2374.825	n/a	WORD	2374825	wordpools/wasnorm_wordpool_576.txt	LTP298	ltpFR2	1	10	BABY	64	n/a	n/a	0	0	0
2377.56	n/a	WORD	2377560	wordpools/wasnorm_wordpool_576.txt	LTP298	ltpFR2	1	10	PANTHER	1009	n/a	n/a	0	0	0
2380.336	n/a	WORD	2380336	wordpools/wasnorm_wordpool_576.txt	LTP298	ltpFR2	1	10	PRINCESS	1125	n/a	n/a	0	0	0
2383.039	n/a	WORD	2383039	wordpools/wasnorm_wordpool_576.txt	LTP298	ltpFR2	1	10	COUCH	386	n/a	n/a	0	0	0
2385.499	n/a	WORD	2385499	wordpools/wasnorm_wordpool_576.txt	LTP298	ltpFR2	1	10	PECAN	1036	n/a	n/a	0	0	0
2388.051	n/a	WORD	2388051	wordpools/wasnorm_wordpool_576.txt	LTP298	ltpFR2	1	10	OX	994	n/a	n/a	0	0	0
2390.862	n/a	WORD	2390862	wordpools/wasnorm_wordpool_576.txt	LTP298	ltpFR2	1	10	BEAST	108	n/a	n/a	0	0	0
2393.523	n/a	WORD	2393523	wordpools/wasnorm_wordpool_576.txt	LTP298	ltpFR2	1	10	PICNIC	1060	n/a	n/a	0	0	0
2396.157	n/a	WORD	2396157	wordpools/wasnorm_wordpool_576.txt	LTP298	ltpFR2	1	10	COCOON	339	n/a	n/a	0	0	0
2398.702	n/a	WORD	2398702	wordpools/wasnorm_wordpool_576.txt	LTP298	ltpFR2	1	10	PADDING	999	n/a	n/a	0	0	0
2401.512	n/a	WORD	2401512	wordpools/wasnorm_wordpool_576.txt	LTP298	ltpFR2	1	10	GRAPE	654	n/a	n/a	0	0	0
2404.241	n/a	WORD	2404241	wordpools/wasnorm_wordpool_576.txt	LTP298	ltpFR2	1	10	CATTLE	261	n/a	n/a	0	0	0
2405.85	n/a	START	2405850	n/a	LTP298	ltpFR2	1	n/a	n/a	n/a	15	n/a	n/a	n/a	n/a
2406.921	n/a	DISTRACTOR	2406921	n/a	LTP298	ltpFR2	1	10	n/a	n/a	n/a	n/a	0	0	0
2406.928	n/a	PROB	2406928	n/a	LTP298	ltpFR2	1	n/a	n/a	n/a	15	16	4	6	6
2410.485	n/a	PROB	2410485	n/a	LTP298	ltpFR2	1	n/a	n/a	n/a	15	16	4	8	4
2414.273	n/a	PROB	2414273	n/a	LTP298	ltpFR2	1	n/a	n/a	n/a	15	17	8	6	3
2417.908	n/a	PROB	2417908	n/a	LTP298	ltpFR2	1	n/a	n/a	n/a	15	13	1	6	6
2421.277	n/a	PROB	2421277	n/a	LTP298	ltpFR2	1	n/a	n/a	n/a	15	20	9	6	5
2424.966	n/a	PROB	2424966	n/a	LTP298	ltpFR2	1	n/a	n/a	n/a	15	17	5	8	4
2429.383	n/a	STOP	2429383	n/a	LTP298	ltpFR2	1	n/a	n/a	n/a	15	n/a	n/a	n/a	n/a
2431.737	n/a	REC_START	2431737	n/a	LTP298	ltpFR2	1	10	n/a	n/a	n/a	n/a	0	0	0
2433.497	n/a	REC_WORD	2433497	wordpools/wasnorm_wordpool_576.txt	LTP298	ltpFR2	1	10	PRINCESS	1125	n/a	n/a	0	0	0
2434.969	n/a	REC_WORD	2434969	wordpools/wasnorm_wordpool_576.txt	LTP298	ltpFR2	1	10	PICNIC	1060	n/a	n/a	0	0	0
2438.301	n/a	REC_WORD	2438301	wordpools/wasnorm_wordpool_576.txt	LTP298	ltpFR2	1	10	OX	994	n/a	n/a	0	0	0
2439.814	n/a	REC_WORD	2439814	wordpools/wasnorm_wordpool_576.txt	LTP298	ltpFR2	1	10	CATTLE	261	n/a	n/a	0	0	0
2442.489	n/a	REC_WORD	2442489	wordpools/wasnorm_wordpool_576.txt	LTP298	ltpFR2	1	10	BEAST	108	n/a	n/a	0	0	0
2443.995	n/a	REC_WORD	2443995	wordpools/wasnorm_wordpool_576.txt	LTP298	ltpFR2	1	10	LEOPARD	812	n/a	n/a	0	0	0
2465.549	n/a	REC_WORD_VV	2465549	wordpools/wasnorm_wordpool_576.txt	LTP298	ltpFR2	1	10	<>	-1	n/a	n/a	0	0	0
2522.206	n/a	WORD	2522206	wordpools/wasnorm_wordpool_576.txt	LTP298	ltpFR2	1	11	SUNSET	1408	n/a	n/a	0	0	0
2524.793	n/a	WORD	2524793	wordpools/wasnorm_wordpool_576.txt	LTP298	ltpFR2	1	11	FLEET	578	n/a	n/a	0	0	0
2527.461	n/a	WORD	2527461	wordpools/wasnorm_wordpool_576.txt	LTP298	ltpFR2	1	11	LAVA	804	n/a	n/a	0	0	0
2530.248	n/a	WORD	2530248	wordpools/wasnorm_wordpool_576.txt	LTP298	ltpFR2	1	11	CAPTIVE	240	n/a	n/a	0	0	0
2533.0	n/a	WORD	2533000	wordpools/wasnorm_wordpool_576.txt	LTP298	ltpFR2	1	11	BARLEY	88	n/a	n/a	0	0	0
2535.518	n/a	WORD	2535518	wordpools/wasnorm_wordpool_576.txt	LTP298	ltpFR2	1	11	COBRA	336	n/a	n/a	0	0	0
2538.104	n/a	WORD	2538104	wordpools/wasnorm_wordpool_576.txt	LTP298	ltpFR2	1	11	LIZARD	834	n/a	n/a	0	0	0
2540.523	n/a	WORD	2540523	wordpools/wasnorm_wordpool_576.txt	LTP298	ltpFR2	1	11	YOLK	1633	n/a	n/a	0	0	0
2543.059	n/a	WORD	2543059	wordpools/wasnorm_wordpool_576.txt	LTP298	ltpFR2	1	11	SCISSORS	1250	n/a	n/a	0	0	0
2545.677	n/a	WORD	2545677	wordpools/wasnorm_wordpool_576.txt	LTP298	ltpFR2	1	11	SCOTCH	1251	n/a	n/a	0	0	0
2548.095	n/a	WORD	2548095	wordpools/wasnorm_wordpool_576.txt	LTP298	ltpFR2	1	11	STOMACH	1384	n/a	n/a	0	0	0
2550.797	n/a	WORD	2550797	wordpools/wasnorm_wordpool_576.txt	LTP298	ltpFR2	1	11	SWORD	1423	n/a	n/a	0	0	0
2553.265	n/a	WORD	2553265	wordpools/wasnorm_wordpool_576.txt	LTP298	ltpFR2	1	11	HOOD	714	n/a	n/a	0	0	0
2555.919	n/a	WORD	2555919	wordpools/wasnorm_wordpool_576.txt	LTP298	ltpFR2	1	11	KEEPER	769	n/a	n/a	0	0	0
2558.372	n/a	WORD	2558372	wordpools/wasnorm_wordpool_576.txt	LTP298	ltpFR2	1	11	DAUGHTER	442	n/a	n/a	0	0	0
2560.923	n/a	WORD	2560923	wordpools/wasnorm_wordpool_576.txt	LTP298	ltpFR2	1	11	UMPIRE	1535	n/a	n/a	0	0	0
2563.574	n/a	WORD	2563574	wordpools/wasnorm_wordpool_576.txt	LTP298	ltpFR2	1	11	SIBLING	1301	n/a	n/a	0	0	0
2566.309	n/a	WORD	2566309	wordpools/wasnorm_wordpool_576.txt	LTP298	ltpFR2	1	11	ANTLER	29	n/a	n/a	0	0	0
2569.111	n/a	WORD	2569111	wordpools/wasnorm_wordpool_576.txt	LTP298	ltpFR2	1	11	TRIBE	1505	n/a	n/a	0	0	0
2571.747	n/a	WORD	2571747	wordpools/wasnorm_wordpool_576.txt	LTP298	ltpFR2	1	11	BUCKET	184	n/a	n/a	0	0	0
2574.199	n/a	WORD	2574199	wordpools/wasnorm_wordpool_576.txt	LTP298	ltpFR2	1	11	HERO	706	n/a	n/a	0	0	0
2576.667	n/a	WORD	2576667	wordpools/wasnorm_wordpool_576.txt	LTP298	ltpFR2	1	11	BALLOON	75	n/a	n/a	0	0	0
2579.437	n/a	WORD	2579437	wordpools/wasnorm_wordpool_576.txt	LTP298	ltpFR2	1	11	ARMY	39	n/a	n/a	0	0	0
2582.239	n/a	WORD	2582239	wordpools/wasnorm_wordpool_576.txt	LTP298	ltpFR2	1	11	NOMAD	955	n/a	n/a	0	0	0
2583.845	n/a	START	2583845	n/a	LTP298	ltpFR2	1	n/a	n/a	n/a	16	n/a	n/a	n/a	n/a
2584.887	n/a	DISTRACTOR	2584887	n/a	LTP298	ltpFR2	1	11	n/a	n/a	n/a	n/a	0	0	0
2584.89	n/a	PROB	2584890	n/a	LTP298	ltpFR2	1	n/a	n/a	n/a	16	20	5	7	8
2591.328	n/a	PROB	2591328	n/a	LTP298	ltpFR2	1	n/a	n/a	n/a	16	12	5	2	5
2593.981	n/a	PROB	2593981	n/a	LTP298	ltpFR2	1	n/a	n/a	n/a	16	12	9	2	1
2595.799	n/a	PROB	2595799	n/a	LTP298	ltpFR2	1	n/a	n/a	n/a	16	19	4	6	9
2606.405	n/a	STOP	2606405	n/a	LTP298	ltpFR2	1	n/a	n/a	n/a	16	n/a	n/a	n/a	n/a
2609.762	n/a	REC_START	2609762	n/a	LTP298	ltpFR2	1	11	n/a	n/a	n/a	n/a	0	0	0
2610.893	n/a	REC_WORD	2610893	wordpools/wasnorm_wordpool_576.txt	LTP298	ltpFR2	1	11	NOMAD	955	n/a	n/a	0	0	0
2613.022	n/a	REC_WORD	2613022	wordpools/wasnorm_wordpool_576.txt	LTP298	ltpFR2	1	11	BUCKET	184	n/a	n/a	0	0	0
2615.129	n/a	REC_WORD	2615129	wordpools/wasnorm_wordpool_576.txt	LTP298	ltpFR2	1	11	DAUGHTER	442	n/a	n/a	0	0	0
2616.461	n/a	REC_WORD	2616461	wordpools/wasnorm_wordpool_576.txt	LTP298	ltpFR2	1	11	SIBLING	1301	n/a	n/a	0	0	0
2620.011	n/a	REC_WORD	2620011	wordpools/wasnorm_wordpool_576.txt	LTP298	ltpFR2	1	11	CAPTIVE	240	n/a	n/a	0	0	0
2622.002	n/a	REC_WORD	2622002	wordpools/wasnorm_wordpool_576.txt	LTP298	ltpFR2	1	11	SWORD	1423	n/a	n/a	0	0	0
2623.514	n/a	REC_WORD	2623514	wordpools/wasnorm_wordpool_576.txt	LTP298	ltpFR2	1	11	FLEET	578	n/a	n/a	0	0	0
2625.281	n/a	REC_WORD	2625281	wordpools/wasnorm_wordpool_576.txt	LTP298	ltpFR2	1	11	SUNSET	1408	n/a	n/a	0	0	0
2627.136	n/a	REC_WORD	2627136	wordpools/wasnorm_wordpool_576.txt	LTP298	ltpFR2	1	11	ANTLER	29	n/a	n/a	0	0	0
2653.342	n/a	REC_WORD	2653342	wordpools/wasnorm_wordpool_576.txt	LTP298	ltpFR2	1	11	BARLEY	88	n/a	n/a	0	0	0
2700.195	n/a	WORD	2700195	wordpools/wasnorm_wordpool_576.txt	LTP298	ltpFR2	1	12	BISON	131	n/a	n/a	0	0	0
2702.817	n/a	WORD	2702817	wordpools/wasnorm_wordpool_576.txt	LTP298	ltpFR2	1	12	MILDEW	893	n/a	n/a	0	0	0
2705.482	n/a	WORD	2705482	wordpools/wasnorm_wordpool_576.txt	LTP298	ltpFR2	1	12	RADISH	1158	n/a	n/a	0	0	0
2707.919	n/a	WORD	2707919	wordpools/wasnorm_wordpool_576.txt	LTP298	ltpFR2	1	12	CREATURE	403	n/a	n/a	0	0	0
2710.37	n/a	WORD	2710370	wordpools/wasnorm_wordpool_576.txt	LTP298	ltpFR2	1	12	NIGHTGOWN	953	n/a	n/a	0	0	0
2713.023	n/a	WORD	2713023	wordpools/wasnorm_wordpool_576.txt	LTP298	ltpFR2	1	12	QUAIL	1147	n/a	n/a	0	0	0
2715.511	n/a	WORD	2715511	wordpools/wasnorm_wordpool_576.txt	LTP298	ltpFR2	1	12	PERMIT	1051	n/a	n/a	0	0	0
2718.21	n/a	WORD	2718210	wordpools/wasnorm_wordpool_576.txt	LTP298	ltpFR2	1	12	CHIPMUNK	304	n/a	n/a	0	0	0
2720.963	n/a	WORD	2720963	wordpools/wasnorm_wordpool_576.txt	LTP298	ltpFR2	1	12	ICEBERG	731	n/a	n/a	0	0	0
2723.683	n/a	WORD	2723683	wordpools/wasnorm_wordpool_576.txt	LTP298	ltpFR2	1	12	PORK	1108	n/a	n/a	0	0	0
2726.218	n/a	WORD	2726218	wordpools/wasnorm_wordpool_576.txt	LTP298	ltpFR2	1	12	SAUSAGE	1238	n/a	n/a	0	0	0
2728.937	n/a	WORD	2728937	wordpools/wasnorm_wordpool_576.txt	LTP298	ltpFR2	1	12	APPLE	33	n/a	n/a	0	0	0
2731.622	n/a	WORD	2731622	wordpools/wasnorm_wordpool_576.txt	LTP298	ltpFR2	1	12	BANQUET	86	n/a	n/a	0	0	0
2734.074	n/a	WORD	2734074	wordpools/wasnorm_wordpool_576.txt	LTP298	ltpFR2	1	12	SUNRISE	1407	n/a	n/a	0	0	0
2736.559	n/a	WORD	2736559	wordpools/wasnorm_wordpool_576.txt	LTP298	ltpFR2	1	12	DENIM	446	n/a	n/a	0	0	0
2739.078	n/a	WORD	2739078	wordpools/wasnorm_wordpool_576.txt	LTP298	ltpFR2	1	12	MASK	876	n/a	n/a	0	0	0
2741.731	n/a	WORD	2741731	wordpools/wasnorm_wordpool_576.txt	LTP298	ltpFR2	1	12	PLASTER	1085	n/a	n/a	0	0	0
2744.317	n/a	WORD	2744317	wordpools/wasnorm_wordpool_576.txt	LTP298	ltpFR2	1	12	CUPBOARD	425	n/a	n/a	0	0	0
2746.786	n/a	WORD	2746786	wordpools/wasnorm_wordpool_576.txt	LTP298	ltpFR2	1	12	CAFE	216	n/a	n/a	0	0	0
2749.221	n/a	WORD	2749221	wordpools/wasnorm_wordpool_576.txt	LTP298	ltpFR2	1	12	POISON	1096	n/a	n/a	0	0	0
2751.789	n/a	WORD	2751789	wordpools/wasnorm_wordpool_576.txt	LTP298	ltpFR2	1	12	ROBBER	1197	n/a	n/a	0	0	0
2754.475	n/a	WORD	2754475	wordpools/wasnorm_wordpool_576.txt	LTP298	ltpFR2	1	12	HIKER	708	n/a	n/a	0	0	0
2757.294	n/a	WORD	2757294	wordpools/wasnorm_wordpool_576.txt	LTP298	ltpFR2	1	12	TOMBSTONE	1478	n/a	n/a	0	0	0
2759.795	n/a	WORD	2759795	wordpools/wasnorm_wordpool_576.txt	LTP298	ltpFR2	1	12	MOP	916	n/a	n/a	0	0	0
2761.414	n/a	START	2761414	n/a	LTP298	ltpFR2	1	n/a	n/a	n/a	17	n/a	n/a	n/a	n/a
2762.579	n/a	DISTRACTOR	2762579	n/a	LTP298	ltpFR2	1	12	n/a	n/a	n/a	n/a	0	0	0
2762.582	n/a	PROB	2762582	n/a	LTP298	ltpFR2	1	n/a	n/a	n/a	17	10	6	2	2
2765.365	n/a	PROB	2765365	n/a	LTP298	ltpFR2	1	n/a	n/a	n/a	17	19	9	9	1
2768.152	n/a	PROB	2768152	n/a	LTP298	ltpFR2	1	n/a	n/a	n/a	17	16	1	7	8
2772.721	n/a	PROB	2772721	n/a	LTP298	ltpFR2	1	n/a	n/a	n/a	17	12	4	3	5
2779.061	n/a	PROB	2779061	n/a	LTP298	ltpFR2	1	n/a	n/a	n/a	17	13	6	2	5
2785.415	n/a	STOP	2785415	n/a	LTP298	ltpFR2	1	n/a	n/a	n/a	17	n/a	n/a	n/a	n/a
2787.252	n/a	REC_START	2787252	n/a	LTP298	ltpFR2	1	12	n/a	n/a	n/a	n/a	0	0	0
2788.791	n/a	REC_WORD	2788791	wordpools/wasnorm_wordpool_576.txt	LTP298	ltpFR2	1	12	ROBBER	1197	n/a	n/a	0	0	0
2790.146	n/a	REC_WORD	2790146	wordpools/wasnorm_wordpool_576.txt	LTP298	ltpFR2	1	12	HIKER	708	n/a	n/a	0	0	0
2791.777	n/a	REC_WORD	2791777	wordpools/wasnorm_wordpool_576.txt	LTP298	ltpFR2	1	12	TOMBSTONE	1478	n/a	n/a	0	0	0
2792.777	n/a	REC_WORD_VV	2792777	wordpools/wasnorm_wordpool_576.txt	LTP298	ltpFR2	1	12	<>	-1	n/a	n/a	0	0	0
2796.232	n/a	REC_WORD_VV	2796232	wordpools/wasnorm_wordpool_576.txt	LTP298	ltpFR2	1	12	<>	-1	n/a	n/a	0	0	0
2800.017	n/a	REC_WORD	2800017	wordpools/wasnorm_wordpool_576.txt	LTP298	ltpFR2	1	12	SUNRISE	1407	n/a	n/a	0	0	0
2801.017	n/a	REC_WORD_VV	2801017	wordpools/wasnorm_wordpool_576.txt	LTP298	ltpFR2	1	12	<>	-1	n/a	n/a	0	0	0
2815.069	n/a	REC_WORD_VV	2815069	wordpools/wasnorm_wordpool_576.txt	LTP298	ltpFR2	1	12	<>	-1	n/a	n/a	0	0	0
2816.069	n/a	REC_WORD_VV	2816069	wordpools/wasnorm_wordpool_576.txt	LTP298	ltpFR2	1	12	<>	-1	n/a	n/a	0	0	0
2817.881	n/a	REC_WORD	2817881	wordpools/wasnorm_wordpool_576.txt	LTP298	ltpFR2	1	12	FEAST	556	n/a	n/a	0	0	0
2822.965	n/a	REC_WORD	2822965	wordpools/wasnorm_wordpool_576.txt	LTP298	ltpFR2	1	12	PORK	1108	n/a	n/a	0	0	0
2825.199	n/a	REC_WORD	2825199	wordpools/wasnorm_wordpool_576.txt	LTP298	ltpFR2	1	12	ICEBERG	731	n/a	n/a	0	0	0
2826.424	n/a	REC_WORD	2826424	wordpools/wasnorm_wordpool_576.txt	LTP298	ltpFR2	1	12	RADISH	1158	n/a	n/a	0	0	0
2829.071	n/a	REC_WORD	2829071	wordpools/wasnorm_wordpool_576.txt	LTP298	ltpFR2	1	12	CREATURE	403	n/a	n/a	0	0	0
2830.201	n/a	REC_WORD	2830201	wordpools/wasnorm_wordpool_576.txt	LTP298	ltpFR2	1	12	BISON	131	n/a	n/a	0	0	0
2932.428	n/a	WORD	2932428	wordpools/wasnorm_wordpool_576.txt	LTP298	ltpFR2	1	13	PISTON	1076	n/a	n/a	0	0	0
2934.947	n/a	WORD	2934947	wordpools/wasnorm_wordpool_576.txt	LTP298	ltpFR2	1	13	OYSTER	995	n/a	n/a	0	0	0
2937.699	n/a	WORD	2937699	wordpools/wasnorm_wordpool_576.txt	LTP298	ltpFR2	1	13	GRAVE	658	n/a	n/a	0	0	0
2940.335	n/a	WORD	2940335	wordpools/wasnorm_wordpool_576.txt	LTP298	ltpFR2	1	13	MARROW	872	n/a	n/a	0	0	0
2943.136	n/a	WORD	2943136	wordpools/wasnorm_wordpool_576.txt	LTP298	ltpFR2	1	13	VALVE	1546	n/a	n/a	0	0	0
2945.823	n/a	WORD	2945823	wordpools/wasnorm_wordpool_576.txt	LTP298	ltpFR2	1	13	FLESH	579	n/a	n/a	0	0	0
2948.443	n/a	WORD	2948443	wordpools/wasnorm_wordpool_576.txt	LTP298	ltpFR2	1	13	CRAYON	401	n/a	n/a	0	0	0
2951.245	n/a	WORD	2951245	wordpools/wasnorm_wordpool_576.txt	LTP298	ltpFR2	1	13	LODGE	839	n/a	n/a	0	0	0
2953.766	n/a	WORD	2953766	wordpools/wasnorm_wordpool_576.txt	LTP298	ltpFR2	1	13	BACKBONE	66	n/a	n/a	0	0	0
2956.251	n/a	WORD	2956251	wordpools/wasnorm_wordpool_576.txt	LTP298	ltpFR2	1	13	BUREAU	199	n/a	n/a	0	0	0
2958.717	n/a	WORD	2958717	wordpools/wasnorm_wordpool_576.txt	LTP298	ltpFR2	1	13	LAGOON	795	n/a	n/a	0	0	0
2961.303	n/a	WORD	2961303	wordpools/wasnorm_wordpool_576.txt	LTP298	ltpFR2	1	13	PENGUIN	1044	n/a	n/a	0	0	0
2963.804	n/a	WORD	2963804	wordpools/wasnorm_wordpool_576.txt	LTP298	ltpFR2	1	13	SHIRT	1287	n/a	n/a	0	0	0
2966.274	n/a	WORD	2966274	wordpools/wasnorm_wordpool_576.txt	LTP298	ltpFR2	1	13	BLOUSE	139	n/a	n/a	0	0	0
2968.759	n/a	WORD	2968759	wordpools/wasnorm_wordpool_576.txt	LTP298	ltpFR2	1	13	STAKE	1368	n/a	n/a	0	0	0
2971.227	n/a	WORD	2971227	wordpools/wasnorm_wordpool_576.txt	LTP298	ltpFR2	1	13	FOX	598	n/a	n/a	0	0	0
2973.797	n/a	WORD	2973797	wordpools/wasnorm_wordpool_576.txt	LTP298	ltpFR2	1	13	CHILD	299	n/a	n/a	0	0	0
2976.332	n/a	WORD	2976332	wordpools/wasnorm_wordpool_576.txt	LTP298	ltpFR2	1	13	CONTRACT	368	n/a	n/a	0	0	0
2978.801	n/a	WORD	2978801	wordpools/wasnorm_wordpool_576.txt	LTP298	ltpFR2	1	13	RIVER	1194	n/a	n/a	0	0	0
2981.438	n/a	WORD	2981438	wordpools/wasnorm_wordpool_576.txt	LTP298	ltpFR2	1	13	WORLD	1622	n/a	n/a	0	0	0
2983.924	n/a	WORD	2983924	wordpools/wasnorm_wordpool_576.txt	LTP298	ltpFR2	1	13	POLICE	1098	n/a	n/a	0	0	0
2986.392	n/a	WORD	2986392	wordpools/wasnorm_wordpool_576.txt	LTP298	ltpFR2	1	13	RABBIT	1152	n/a	n/a	0	0	0
2988.827	n/a	WORD	2988827	wordpools/wasnorm_wordpool_576.txt	LTP298	ltpFR2	1	13	FRANCE	601	n/a	n/a	0	0	0
2991.545	n/a	WORD	2991545	wordpools/wasnorm_wordpool_576.txt	LTP298	ltpFR2	1	13	JAPAN	749	n/a	n/a	0	0	0
2993.164	n/a	START	2993164	n/a	LTP298	ltpFR2	1	n/a	n/a	n/a	18	n/a	n/a	n/a	n/a
2994.126	n/a	DISTRACTOR	2994126	n/a	LTP298	ltpFR2	1	13	n/a	n/a	n/a	n/a	0	0	0
2994.132	n/a	PROB	2994132	n/a	LTP298	ltpFR2	1	n/a	n/a	n/a	18	14	6	4	4
2996.382	n/a	PROB	2996382	n/a	LTP298	ltpFR2	1	n/a	n/a	n/a	18	9	5	1	3
3000.42	n/a	PROB	3000420	n/a	LTP298	ltpFR2	1	n/a	n/a	n/a	18	12	2	3	7
3003.187	n/a	PROB	3003187	n/a	LTP298	ltpFR2	1	n/a	n/a	n/a	18	18	5	8	5
3009.527	n/a	PROB	3009527	n/a	LTP298	ltpFR2	1	n/a	n/a	n/a	18	16	5	5	6
3011.377	n/a	PROB	3011377	n/a	LTP298	ltpFR2	1	n/a	n/a	n/a	18	12	2	7	3
3013.447	n/a	PROB	3013447	n/a	LTP298	ltpFR2	1	n/a	n/a	n/a	18	13	8	1	4
3016.345	n/a	STOP	3016345	n/a	LTP298	ltpFR2	1	n/a	n/a	n/a	18	n/a	n/a	n/a	n/a
3019.036	n/a	REC_START	3019036	n/a	LTP298	ltpFR2	1	13	n/a	n/a	n/a	n/a	0	0	0
3020.793	n/a	REC_WORD	3020793	wordpools/wasnorm_wordpool_576.txt	LTP298	ltpFR2	1	13	RABBIT	1152	n/a	n/a	0	0	0
3022.387	n/a	REC_WORD	3022387	wordpools/wasnorm_wordpool_576.txt	LTP298	ltpFR2	1	13	STAKE	1368	n/a	n/a	0	0	0
3023.945	n/a	REC_WORD	3023945	wordpools/wasnorm_wordpool_576.txt	LTP298	ltpFR2	1	13	FLESH	579	n/a	n/a	0	0	0
3025.726	n/a	REC_WORD	3025726	wordpools/wasnorm_wordpool_576.txt	LTP298	ltpFR2	1	13	MARROW	872	n/a	n/a	0	0	0
3030.342	n/a	REC_WORD	3030342	wordpools/wasnorm_wordpool_576.txt	LTP298	ltpFR2	1	13	FOX	598	n/a	n/a	0	0	0
3034.432	n/a	REC_WORD	3034432	wordpools/wasnorm_wordpool_576.txt	LTP298	ltpFR2	1	13	POLICE	1098	n/a	n/a	0	0	0
3042.553	n/a	REC_WORD	3042553	wordpools/wasnorm_wordpool_576.txt	LTP298	ltpFR2	1	13	FRANCE	601	n/a	n/a	0	0	0
3044.029	n/a	REC_WORD	3044029	wordpools/wasnorm_wordpool_576.txt	LTP298	ltpFR2	1	13	JAPAN	749	n/a	n/a	0	0	0
3054.665	n/a	REC_WORD	3054665	wordpools/wasnorm_wordpool_576.txt	LTP298	ltpFR2	1	13	GRAVE	658	n/a	n/a	0	0	0
3109.471	n/a	WORD	3109471	wordpools/wasnorm_wordpool_576.txt	LTP298	ltpFR2	1	14	MAMMAL	861	n/a	n/a	0	0	0
3112.233	n/a	WORD	3112233	wordpools/wasnorm_wordpool_576.txt	LTP298	ltpFR2	1	14	LION	827	n/a	n/a	0	0	0
3114.852	n/a	WORD	3114852	wordpools/wasnorm_wordpool_576.txt	LTP298	ltpFR2	1	14	TOURIST	1488	n/a	n/a	0	0	0
3117.621	n/a	WORD	3117621	wordpools/wasnorm_wordpool_576.txt	LTP298	ltpFR2	1	14	POPCORN	1104	n/a	n/a	0	0	0
3120.207	n/a	WORD	3120207	wordpools/wasnorm_wordpool_576.txt	LTP298	ltpFR2	1	14	SUMMIT	1405	n/a	n/a	0	0	0
3122.734	n/a	WORD	3122734	wordpools/wasnorm_wordpool_576.txt	LTP298	ltpFR2	1	14	IGLOO	734	n/a	n/a	0	0	0
3125.318	n/a	WORD	3125318	wordpools/wasnorm_wordpool_576.txt	LTP298	ltpFR2	1	14	DIME	466	n/a	n/a	0	0	0
3127.939	n/a	WORD	3127939	wordpools/wasnorm_wordpool_576.txt	LTP298	ltpFR2	1	14	WHISTLE	1606	n/a	n/a	0	0	0
3130.599	n/a	WORD	3130599	wordpools/wasnorm_wordpool_576.txt	LTP298	ltpFR2	1	14	FUNGUS	614	n/a	n/a	0	0	0
3133.034	n/a	WORD	3133034	wordpools/wasnorm_wordpool_576.txt	LTP298	ltpFR2	1	14	MARKER	870	n/a	n/a	0	0	0
3135.52	n/a	WORD	3135520	wordpools/wasnorm_wordpool_576.txt	LTP298	ltpFR2	1	14	CASHIER	254	n/a	n/a	0	0	0
3138.262	n/a	WORD	3138262	wordpools/wasnorm_wordpool_576.txt	LTP298	ltpFR2	1	14	VIRUS	1572	n/a	n/a	0	0	0
3140.925	n/a	WORD	3140925	wordpools/wasnorm_wordpool_576.txt	LTP298	ltpFR2	1	14	HEDGE	699	n/a	n/a	0	0	0
3143.399	n/a	WORD	3143399	wordpools/wasnorm_wordpool_576.txt	LTP298	ltpFR2	1	14	TWIG	1527	n/a	n/a	0	0	0
3146.062	n/a	WORD	3146062	wordpools/wasnorm_wordpool_576.txt	LTP298	ltpFR2	1	14	VENUS	1557	n/a	n/a	0	0	0
3148.613	n/a	WORD	3148613	wordpools/wasnorm_wordpool_576.txt	LTP298	ltpFR2	1	14	PIGMENT	1066	n/a	n/a	0	0	0
3151.19	n/a	WORD	3151190	wordpools/wasnorm_wordpool_576.txt	LTP298	ltpFR2	1	14	BROOK	177	n/a	n/a	0	0	0
3153.608	n/a	WORD	3153608	wordpools/wasnorm_wordpool_576.txt	LTP298	ltpFR2	1	14	WOMAN	1620	n/a	n/a	0	0	0
3156.388	n/a	WORD	3156388	wordpools/wasnorm_wordpool_576.txt	LTP298	ltpFR2	1	14	QUEEN	1149	n/a	n/a	0	0	0
3159.14	n/a	WORD	3159140	wordpools/wasnorm_wordpool_576.txt	LTP298	ltpFR2	1	14	BOARD	143	n/a	n/a	0	0	0
3161.776	n/a	WORD	3161776	wordpools/wasnorm_wordpool_576.txt	LTP298	ltpFR2	1	14	BLACKBOARD	133	n/a	n/a	0	0	0
3164.333	n/a	WORD	3164333	wordpools/wasnorm_wordpool_576.txt	LTP298	ltpFR2	1	14	GALLON	618	n/a	n/a	0	0	0
3167.08	n/a	WORD	3167080	wordpools/wasnorm_wordpool_576.txt	LTP298	ltpFR2	1	14	DRINK	498	n/a	n/a	0	0	0
3169.621	n/a	WORD	3169621	wordpools/wasnorm_wordpool_576.txt	LTP298	ltpFR2	1	14	CASHEW	253	n/a	n/a	0	0	0
3171.233	n/a	START	3171233	n/a	LTP298	ltpFR2	1	n/a	n/a	n/a	19	n/a	n/a	n/a	n/a
3172.432	n/a	DISTRACTOR	3172432	n/a	LTP298	ltpFR2	1	14	n/a	n/a	n/a	n/a	0	0	0
3172.439	n/a	PROB	3172439	n/a	LTP298	ltpFR2	1	n/a	n/a	n/a	19	11	1	2	8
3175.341	n/a	PROB	3175341	n/a	LTP298	ltpFR2	1	n/a	n/a	n/a	19	12	2	9	1
3177.227	n/a	PROB	3177227	n/a	LTP298	ltpFR2	1	n/a	n/a	n/a	19	8	4	1	3
3180.196	n/a	PROB	3180196	n/a	LTP298	ltpFR2	1	n/a	n/a	n/a	19	13	3	6	4
3182.23	n/a	PROB	3182230	n/a	LTP298	ltpFR2	1	n/a	n/a	n/a	19	17	7	2	8
3184.996	n/a	PROB	3184996	n/a	LTP298	ltpFR2	1	n/a	n/a	n/a	19	21	8	8	5
3189.487	n/a	PROB	3189487	n/a	LTP298	ltpFR2	1	n/a	n/a	n/a	19	10	1	1	8
3191.687	n/a	PROB	3191687	n/a	LTP298	ltpFR2	1	n/a	n/a	n/a	19	12	7	4	1
3194.43	n/a	STOP	3194430	n/a	LTP298	ltpFR2	1	n/a	n/a	n/a	19	n/a	n/a	n/a	n/a
3197.143	n/a	REC_START	3197143	n/a	LTP298	ltpFR2	1	14	n/a	n/a	n/a	n/a	0	0	0
3228.344	n/a	REC_WORD	3228344	wordpools/wasnorm_wordpool_576.txt	LTP298	ltpFR2	1	14	VENUS	1557	n/a	n/a	0	0	0
3230.219	n/a	REC_WORD	3230219	wordpools/wasnorm_wordpool_576.txt	LTP298	ltpFR2	1	14	WOMAN	1620	n/a	n/a	0	0	0
3231.97	n/a	REC_WORD	3231970	wordpools/wasnorm_wordpool_576.txt	LTP298	ltpFR2	1	14	QUEEN	1149	n/a	n/a	0	0	0
3257.328	n/a	REC_WORD	3257328	wordpools/wasnorm_wordpool_576.txt	LTP298	ltpFR2	1	14	MARKER	870	n/a	n/a	0	0	0
3287.598	n/a	WORD	3287598	wordpools/wasnorm_wordpool_576.txt	LTP298	ltpFR2	1	15	COMET	353	n/a	n/a	0	0	0
3290.2	n/a	WORD	3290200	wordpools/wasnorm_wordpool_576.txt	LTP298	ltpFR2	1	15	PARROT	1015	n/a	n/a	0	0	0
3292.785	n/a	WORD	3292785	wordpools/wasnorm_wordpool_576.txt	LTP298	ltpFR2	1	15	MARKET	871	n/a	n/a	0	0	0
3295.604	n/a	WORD	3295604	wordpools/wasnorm_wordpool_576.txt	LTP298	ltpFR2	1	15	OUTDOORS	987	n/a	n/a	0	0	0
3298.143	n/a	WORD	3298143	wordpools/wasnorm_wordpool_576.txt	LTP298	ltpFR2	1	15	FARMER	553	n/a	n/a	0	0	0
3300.913	n/a	WORD	3300913	wordpools/wasnorm_wordpool_576.txt	LTP298	ltpFR2	1	15	SCARECROW	1245	n/a	n/a	0	0	0
3303.694	n/a	WORD	3303694	wordpools/wasnorm_wordpool_576.txt	LTP298	ltpFR2	1	15	VAGRANT	1544	n/a	n/a	0	0	0
3306.346	n/a	WORD	3306346	wordpools/wasnorm_wordpool_576.txt	LTP298	ltpFR2	1	15	PUDDLE	1140	n/a	n/a	0	0	0
3308.897	n/a	WORD	3308897	wordpools/wasnorm_wordpool_576.txt	LTP298	ltpFR2	1	15	TROUT	1511	n/a	n/a	0	0	0
3311.666	n/a	WORD	3311666	wordpools/wasnorm_wordpool_576.txt	LTP298	ltpFR2	1	15	HOOK	715	n/a	n/a	0	0	0
3314.39	n/a	WORD	3314390	wordpools/wasnorm_wordpool_576.txt	LTP298	ltpFR2	1	15	XEROX	1628	n/a	n/a	0	0	0
3317.187	n/a	WORD	3317187	wordpools/wasnorm_wordpool_576.txt	LTP298	ltpFR2	1	15	FLUTE	585	n/a	n/a	0	0	0
3319.678	n/a	WORD	3319678	wordpools/wasnorm_wordpool_576.txt	LTP298	ltpFR2	1	15	TURKEY	1520	n/a	n/a	0	0	0
3322.364	n/a	WORD	3322364	wordpools/wasnorm_wordpool_576.txt	LTP298	ltpFR2	1	15	RACKET	1155	n/a	n/a	0	0	0
3325.144	n/a	WORD	3325144	wordpools/wasnorm_wordpool_576.txt	LTP298	ltpFR2	1	15	RAZOR	1171	n/a	n/a	0	0	0
3327.769	n/a	WORD	3327769	wordpools/wasnorm_wordpool_576.txt	LTP298	ltpFR2	1	15	ICING	732	n/a	n/a	0	0	0
3330.488	n/a	WORD	3330488	wordpools/wasnorm_wordpool_576.txt	LTP298	ltpFR2	1	15	FRUIT	610	n/a	n/a	0	0	0
3333.207	n/a	WORD	3333207	wordpools/wasnorm_wordpool_576.txt	LTP298	ltpFR2	1	15	MACHINE	852	n/a	n/a	0	0	0
3336.02	n/a	WORD	3336020	wordpools/wasnorm_wordpool_576.txt	LTP298	ltpFR2	1	15	PROTON	1132	n/a	n/a	0	0	0
3338.754	n/a	WORD	3338754	wordpools/wasnorm_wordpool_576.txt	LTP298	ltpFR2	1	15	CANAL	226	n/a	n/a	0	0	0
3341.197	n/a	WORD	3341197	wordpools/wasnorm_wordpool_576.txt	LTP298	ltpFR2	1	15	STAPLE	1371	n/a	n/a	0	0	0
3343.842	n/a	WORD	3343842	wordpools/wasnorm_wordpool_576.txt	LTP298	ltpFR2	1	15	ULCER	1533	n/a	n/a	0	0	0
3346.585	n/a	WORD	3346585	wordpools/wasnorm_wordpool_576.txt	LTP298	ltpFR2	1	15	EXPERT	543	n/a	n/a	0	0	0
3349.237	n/a	WORD	3349237	wordpools/wasnorm_wordpool_576.txt	LTP298	ltpFR2	1	15	TEACHER	1440	n/a	n/a	0	0	0
3350.847	n/a	START	3350847	n/a	LTP298	ltpFR2	1	n/a	n/a	n/a	20	n/a	n/a	n/a	n/a
3351.883	n/a	DISTRACTOR	3351883	n/a	LTP298	ltpFR2	1	15	n/a	n/a	n/a	n/a	0	0	0
3351.888	n/a	PROB	3351888	n/a	LTP298	ltpFR2	1	n/a	n/a	n/a	20	12	6	2	4
3353.816	n/a	PROB	3353816	n/a	LTP298	ltpFR2	1	n/a	n/a	n/a	20	18	7	5	6
3362.823	n/a	PROB	3362823	n/a	LTP298	ltpFR2	1	n/a	n/a	n/a	20	17	3	7	7
3367.377	n/a	PROB	3367377	n/a	LTP298	ltpFR2	1	n/a	n/a	n/a	20	15	5	5	5
3374.848	n/a	STOP	3374848	n/a	LTP298	ltpFR2	1	n/a	n/a	n/a	20	n/a	n/a	n/a	n/a
3376.584	n/a	REC_START	3376584	n/a	LTP298	ltpFR2	1	15	n/a	n/a	n/a	n/a	0	0	0
3377.737	n/a	REC_WORD	3377737	wordpools/wasnorm_wordpool_576.txt	LTP298	ltpFR2	1	15	COMET	353	n/a	n/a	0	0	0
3379.152	n/a	REC_WORD	3379152	wordpools/wasnorm_wordpool_576.txt	LTP298	ltpFR2	1	15	PARROT	1015	n/a	n/a	0	0	0
3380.043	n/a	REC_WORD	3380043	wordpools/wasnorm_wordpool_576.txt	LTP298	ltpFR2	1	15	MARKET	871	n/a	n/a	0	0	0
3381.246	n/a	REC_WORD	3381246	wordpools/wasnorm_wordpool_576.txt	LTP298	ltpFR2	1	15	OUTDOORS	987	n/a	n/a	0	0	0
3382.246	n/a	REC_WORD_VV	3382246	wordpools/wasnorm_wordpool_576.txt	LTP298	ltpFR2	1	15	<>	-1	n/a	n/a	0	0	0
3383.286	n/a	REC_WORD	3383286	wordpools/wasnorm_wordpool_576.txt	LTP298	ltpFR2	1	15	FARMER	553	n/a	n/a	0	0	0
3384.365	n/a	REC_WORD	3384365	wordpools/wasnorm_wordpool_576.txt	LTP298	ltpFR2	1	15	SCARECROW	1245	n/a	n/a	0	0	0
3385.677	n/a	REC_WORD	3385677	wordpools/wasnorm_wordpool_576.txt	LTP298	ltpFR2	1	15	VAGRANT	1544	n/a	n/a	0	0	0
3394.257	n/a	REC_WORD	3394257	wordpools/wasnorm_wordpool_576.txt	LTP298	ltpFR2	1	15	XEROX	1628	n/a	n/a	0	0	0
3408.678	n/a	REC_WORD	3408678	wordpools/wasnorm_wordpool_576.txt	LTP298	ltpFR2	1	15	CANAL	226	n/a	n/a	0	0	0
3425.209	n/a	REC_WORD_VV	3425209	wordpools/wasnorm_wordpool_576.txt	LTP298	ltpFR2	1	15	<>	-1	n/a	n/a	0	0	0
3428.586	n/a	REC_WORD_VV	3428586	wordpools/wasnorm_wordpool_576.txt	LTP298	ltpFR2	1	15	<>	-1	n/a	n/a	0	0	0
3559.262	n/a	DISTRACTOR	3559262	n/a	LTP298	ltpFR2	1	16	n/a	n/a	n/a	n/a	0	0	0
3559.262	n/a	START	3559262	n/a	LTP298	ltpFR2	1	n/a	n/a	n/a	21	n/a	n/a	n/a	n/a
3559.28	n/a	PROB	3559280	n/a	LTP298	ltpFR2	1	n/a	n/a	n/a	21	5	2	1	2
3561.781	n/a	PROB	3561781	n/a	LTP298	ltpFR2	1	n/a	n/a	n/a	21	14	6	6	2
3564.216	n/a	PROB	3564216	n/a	LTP298	ltpFR2	1	n/a	n/a	n/a	21	20	9	3	8
3568.003	n/a	PROB	3568003	n/a	LTP298	ltpFR2	1	n/a	n/a	n/a	21	18	5	7	6
3572.655	n/a	PROB	3572655	n/a	LTP298	ltpFR2	1	n/a	n/a	n/a	21	6	2	1	3
3575.457	n/a	PROB	3575457	n/a	LTP298	ltpFR2	1	n/a	n/a	n/a	21	15	3	8	4
3578.677	n/a	PROB	3578677	n/a	LTP298	ltpFR2	1	n/a	n/a	n/a	21	22	5	9	9
3582.785	n/a	STOP	3582785	n/a	LTP298	ltpFR2	1	n/a	n/a	n/a	21	n/a	n/a	n/a	n/a
3584.115	n/a	WORD	3584115	wordpools/wasnorm_wordpool_576.txt	LTP298	ltpFR2	1	16	CHURCH	307	n/a	n/a	0	0	0
3586.617	n/a	WORD	3586617	wordpools/wasnorm_wordpool_576.txt	LTP298	ltpFR2	1	16	CLAM	315	n/a	n/a	0	0	0
3589.236	n/a	WORD	3589236	wordpools/wasnorm_wordpool_576.txt	LTP298	ltpFR2	1	16	COUNTY	389	n/a	n/a	0	0	0
3591.997	n/a	WORD	3591997	wordpools/wasnorm_wordpool_576.txt	LTP298	ltpFR2	1	16	OUTFIT	988	n/a	n/a	0	0	0
3594.774	n/a	WORD	3594774	wordpools/wasnorm_wordpool_576.txt	LTP298	ltpFR2	1	16	GIRL	637	n/a	n/a	0	0	0
3597.276	n/a	WORD	3597276	wordpools/wasnorm_wordpool_576.txt	LTP298	ltpFR2	1	16	CEILING	265	n/a	n/a	0	0	0
3599.953	n/a	WORD	3599953	wordpools/wasnorm_wordpool_576.txt	LTP298	ltpFR2	1	16	BOUQUET	157	n/a	n/a	0	0	0
3602.43	n/a	WORD	3602430	wordpools/wasnorm_wordpool_576.txt	LTP298	ltpFR2	1	16	CHEMIST	292	n/a	n/a	0	0	0
3605.057	n/a	WORD	3605057	wordpools/wasnorm_wordpool_576.txt	LTP298	ltpFR2	1	16	GUITAR	670	n/a	n/a	0	0	0
3607.484	n/a	WORD	3607484	wordpools/wasnorm_wordpool_576.txt	LTP298	ltpFR2	1	16	SHORTS	1293	n/a	n/a	0	0	0
3610.286	n/a	WORD	3610286	wordpools/wasnorm_wordpool_576.txt	LTP298	ltpFR2	1	16	STUDENT	1395	n/a	n/a	0	0	0
3612.754	n/a	WORD	3612754	wordpools/wasnorm_wordpool_576.txt	LTP298	ltpFR2	1	16	COLLEGE	346	n/a	n/a	0	0	0
3615.389	n/a	WORD	3615389	wordpools/wasnorm_wordpool_576.txt	LTP298	ltpFR2	1	16	LILY	821	n/a	n/a	0	0	0
3617.993	n/a	WORD	3617993	wordpools/wasnorm_wordpool_576.txt	LTP298	ltpFR2	1	16	THREAD	1460	n/a	n/a	0	0	0
3620.51	n/a	WORD	3620510	wordpools/wasnorm_wordpool_576.txt	LTP298	ltpFR2	1	16	ASIA	46	n/a	n/a	0	0	0
3623.212	n/a	WORD	3623212	wordpools/wasnorm_wordpool_576.txt	LTP298	ltpFR2	1	16	LEG	809	n/a	n/a	0	0	0
3625.96	n/a	WORD	3625960	wordpools/wasnorm_wordpool_576.txt	LTP298	ltpFR2	1	16	FINGER	567	n/a	n/a	0	0	0
3628.711	n/a	WORD	3628711	wordpools/wasnorm_wordpool_576.txt	LTP298	ltpFR2	1	16	RECEIPT	1173	n/a	n/a	0	0	0
3631.464	n/a	WORD	3631464	wordpools/wasnorm_wordpool_576.txt	LTP298	ltpFR2	1	16	COIN	343	n/a	n/a	0	0	0
3634.216	n/a	WORD	3634216	wordpools/wasnorm_wordpool_576.txt	LTP298	ltpFR2	1	16	CANDY	230	n/a	n/a	0	0	0
3636.751	n/a	WORD	3636751	wordpools/wasnorm_wordpool_576.txt	LTP298	ltpFR2	1	16	TROMBONE	1508	n/a	n/a	0	0	0
3639.437	n/a	WORD	3639437	wordpools/wasnorm_wordpool_576.txt	LTP298	ltpFR2	1	16	COUNTRY	388	n/a	n/a	0	0	0
3642.173	n/a	WORD	3642173	wordpools/wasnorm_wordpool_576.txt	LTP298	ltpFR2	1	16	SKIRT	1319	n/a	n/a	0	0	0
3644.976	n/a	WORD	3644976	wordpools/wasnorm_wordpool_576.txt	LTP298	ltpFR2	1	16	SEAGULL	1261	n/a	n/a	0	0	0
3646.582	n/a	START	3646582	n/a	LTP298	ltpFR2	1	n/a	n/a	n/a	22	n/a	n/a	n/a	n/a
3647.578	n/a	DISTRACTOR	3647578	n/a	LTP298	ltpFR2	1	16	n/a	n/a	n/a	n/a	0	0	0
3647.583	n/a	PROB	3647583	n/a	LTP298	ltpFR2	1	n/a	n/a	n/a	22	18	5	9	4
3651.136	n/a	PROB	3651136	n/a	LTP298	ltpFR2	1	n/a	n/a	n/a	22	19	7	7	5
3653.803	n/a	PROB	3653803	n/a	LTP298	ltpFR2	1	n/a	n/a	n/a	22	17	6	3	8
3657.772	n/a	PROB	3657772	n/a	LTP298	ltpFR2	1	n/a	n/a	n/a	22	11	3	6	2
3661.794	n/a	PROB	3661794	n/a	LTP298	ltpFR2	1	n/a	n/a	n/a	22	21	8	4	9
3666.281	n/a	PROB	3666281	n/a	LTP298	ltpFR2	1	n/a	n/a	n/a	22	20	6	7	7
3669.933	n/a	STOP	3669933	n/a	LTP298	ltpFR2	1	n/a	n/a	n/a	22	n/a	n/a	n/a	n/a
3672.336	n/a	REC_START	3672336	n/a	LTP298	ltpFR2	1	16	n/a	n/a	n/a	n/a	0	0	0
3673.933	n/a	REC_WORD	3673933	wordpools/wasnorm_wordpool_576.txt	LTP298	ltpFR2	1	16	GIRL	637	n/a	n/a	0	0	0
3675.042	n/a	REC_WORD	3675042	wordpools/wasnorm_wordpool_576.txt	LTP298	ltpFR2	1	16	OUTFIT	988	n/a	n/a	0	0	0
3677.034	n/a	REC_WORD	3677034	wordpools/wasnorm_wordpool_576.txt	LTP298	ltpFR2	1	16	CHURCH	307	n/a	n/a	0	0	0
3685.826	n/a	REC_WORD	3685826	wordpools/wasnorm_wordpool_576.txt	LTP298	ltpFR2	1	16	SHIRT	1287	n/a	n/a	0	0	0
3686.925	n/a	REC_WORD	3686925	wordpools/wasnorm_wordpool_576.txt	LTP298	ltpFR2	1	16	SKIRT	1319	n/a	n/a	0	0	0
3689.566	n/a	REC_WORD	3689566	wordpools/wasnorm_wordpool_576.txt	LTP298	ltpFR2	1	16	TROMBONE	1508	n/a	n/a	0	0	0
3690.566	n/a	REC_WORD_VV	3690566	wordpools/wasnorm_wordpool_576.txt	LTP298	ltpFR2	1	16	<>	-1	n/a	n/a	0	0	0
3694.47	n/a	REC_WORD	3694470	wordpools/wasnorm_wordpool_576.txt	LTP298	ltpFR2	1	16	ASIA	46	n/a	n/a	0	0	0
3695.47	n/a	REC_WORD	3695470	wordpools/wasnorm_wordpool_576.txt	LTP298	ltpFR2	1	16	LEG	809	n/a	n/a	0	0	0
3697.345	n/a	REC_WORD	3697345	wordpools/wasnorm_wordpool_576.txt	LTP298	ltpFR2	1	16	COUNTRY	388	n/a	n/a	0	0	0
3698.977	n/a	REC_WORD	3698977	wordpools/wasnorm_wordpool_576.txt	LTP298	ltpFR2	1	16	COUNTY	389	n/a	n/a	0	0	0
3713.264	n/a	REC_WORD	3713264	wordpools/wasnorm_wordpool_576.txt	LTP298	ltpFR2	1	16	STUDENT	1395	n/a	n/a	0	0	0
3714.755	n/a	REC_WORD	3714755	wordpools/wasnorm_wordpool_576.txt	LTP298	ltpFR2	1	16	COLLEGE	346	n/a	n/a	0	0	0
3748.879	n/a	REST_REWET	3748879	n/a	LTP298	ltpFR2	1	16	n/a	n/a	n/a	n/a	0	0	0
4090.483	n/a	DISTRACTOR	4090483	n/a	LTP298	ltpFR2	1	17	n/a	n/a	n/a	n/a	0	0	0
4090.483	n/a	START	4090483	n/a	LTP298	ltpFR2	1	n/a	n/a	n/a	23	n/a	n/a	n/a	n/a
4090.5	n/a	PROB	4090500	n/a	LTP298	ltpFR2	1	n/a	n/a	n/a	23	16	8	1	7
4093.868	n/a	PROB	4093868	n/a	LTP298	ltpFR2	1	n/a	n/a	n/a	23	10	5	1	4
4096.154	n/a	PROB	4096154	n/a	LTP298	ltpFR2	1	n/a	n/a	n/a	23	15	3	9	3
4099.522	n/a	PROB	4099522	n/a	LTP298	ltpFR2	1	n/a	n/a	n/a	23	16	5	2	9
4105.946	n/a	PROB	4105946	n/a	LTP298	ltpFR2	1	n/a	n/a	n/a	23	20	9	6	8
4113.321	n/a	STOP	4113321	n/a	LTP298	ltpFR2	1	n/a	n/a	n/a	23	n/a	n/a	n/a	n/a
4115.547	n/a	WORD	4115547	wordpools/wasnorm_wordpool_576.txt	LTP298	ltpFR2	1	17	LABEL	790	n/a	n/a	0	0	0
4118.322	n/a	WORD	4118322	wordpools/wasnorm_wordpool_576.txt	LTP298	ltpFR2	1	17	WHISKERS	1605	n/a	n/a	0	0	0
4121.057	n/a	WORD	4121057	wordpools/wasnorm_wordpool_576.txt	LTP298	ltpFR2	1	17	STAMP	1370	n/a	n/a	0	0	0
4123.503	n/a	WORD	4123503	wordpools/wasnorm_wordpool_576.txt	LTP298	ltpFR2	1	17	OFFICE	972	n/a	n/a	0	0	0
4126.206	n/a	WORD	4126206	wordpools/wasnorm_wordpool_576.txt	LTP298	ltpFR2	1	17	JELLO	754	n/a	n/a	0	0	0
4128.863	n/a	WORD	4128863	wordpools/wasnorm_wordpool_576.txt	LTP298	ltpFR2	1	17	BODY	145	n/a	n/a	0	0	0
4131.56	n/a	WORD	4131560	wordpools/wasnorm_wordpool_576.txt	LTP298	ltpFR2	1	17	GLASS	639	n/a	n/a	0	0	0
4134.03	n/a	WORD	4134030	wordpools/wasnorm_wordpool_576.txt	LTP298	ltpFR2	1	17	COOK	372	n/a	n/a	0	0	0
4136.682	n/a	WORD	4136682	wordpools/wasnorm_wordpool_576.txt	LTP298	ltpFR2	1	17	SPARROW	1347	n/a	n/a	0	0	0
4139.184	n/a	WORD	4139184	wordpools/wasnorm_wordpool_576.txt	LTP298	ltpFR2	1	17	TART	1436	n/a	n/a	0	0	0
4141.624	n/a	WORD	4141624	wordpools/wasnorm_wordpool_576.txt	LTP298	ltpFR2	1	17	HAND	683	n/a	n/a	0	0	0
4144.443	n/a	WORD	4144443	wordpools/wasnorm_wordpool_576.txt	LTP298	ltpFR2	1	17	SANDWICH	1232	n/a	n/a	0	0	0
4146.941	n/a	WORD	4146941	wordpools/wasnorm_wordpool_576.txt	LTP298	ltpFR2	1	17	SCARF	1246	n/a	n/a	0	0	0
4149.576	n/a	WORD	4149576	wordpools/wasnorm_wordpool_576.txt	LTP298	ltpFR2	1	17	FREEZER	604	n/a	n/a	0	0	0
4152.145	n/a	WORD	4152145	wordpools/wasnorm_wordpool_576.txt	LTP298	ltpFR2	1	17	KETCHUP	771	n/a	n/a	0	0	0
4154.747	n/a	WORD	4154747	wordpools/wasnorm_wordpool_576.txt	LTP298	ltpFR2	1	17	MUSTARD	935	n/a	n/a	0	0	0
4157.199	n/a	WORD	4157199	wordpools/wasnorm_wordpool_576.txt	LTP298	ltpFR2	1	17	GARDEN	623	n/a	n/a	0	0	0
4159.62	n/a	WORD	4159620	wordpools/wasnorm_wordpool_576.txt	LTP298	ltpFR2	1	17	TILE	1468	n/a	n/a	0	0	0
4162.321	n/a	WORD	4162321	wordpools/wasnorm_wordpool_576.txt	LTP298	ltpFR2	1	17	BRANCH	168	n/a	n/a	0	0	0
4164.906	n/a	WORD	4164906	wordpools/wasnorm_wordpool_576.txt	LTP298	ltpFR2	1	17	RELISH	1183	n/a	n/a	0	0	0
4167.474	n/a	WORD	4167474	wordpools/wasnorm_wordpool_576.txt	LTP298	ltpFR2	1	17	DANDRUFF	439	n/a	n/a	0	0	0
4170.178	n/a	WORD	4170178	wordpools/wasnorm_wordpool_576.txt	LTP298	ltpFR2	1	17	FOREST	593	n/a	n/a	0	0	0
4172.696	n/a	WORD	4172696	wordpools/wasnorm_wordpool_576.txt	LTP298	ltpFR2	1	17	IDOL	733	n/a	n/a	0	0	0
4175.249	n/a	WORD	4175249	wordpools/wasnorm_wordpool_576.txt	LTP298	ltpFR2	1	17	CANYON	235	n/a	n/a	0	0	0
4176.867	n/a	START	4176867	n/a	LTP298	ltpFR2	1	n/a	n/a	n/a	24	n/a	n/a	n/a	n/a
4177.941	n/a	DISTRACTOR	4177941	n/a	LTP298	ltpFR2	1	17	n/a	n/a	n/a	n/a	0	0	0
4177.952	n/a	PROB	4177952	n/a	LTP298	ltpFR2	1	n/a	n/a	n/a	24	5	2	1	2
4182.287	n/a	PROB	4182287	n/a	LTP298	ltpFR2	1	n/a	n/a	n/a	24	16	6	6	4
4186.01	n/a	PROB	4186010	n/a	LTP298	ltpFR2	1	n/a	n/a	n/a	24	8	3	2	3
4191.048	n/a	PROB	4191048	n/a	LTP298	ltpFR2	1	n/a	n/a	n/a	24	10	2	3	5
4195.832	n/a	PROB	4195832	n/a	LTP298	ltpFR2	1	n/a	n/a	n/a	24	10	3	3	4
4200.867	n/a	STOP	4200867	n/a	LTP298	ltpFR2	1	n/a	n/a	n/a	24	n/a	n/a	n/a	n/a
4202.774	n/a	REC_START	4202774	n/a	LTP298	ltpFR2	1	17	n/a	n/a	n/a	n/a	0	0	0
4203.569	n/a	REC_WORD	4203569	wordpools/wasnorm_wordpool_576.txt	LTP298	ltpFR2	1	17	DANDRUFF	439	n/a	n/a	0	0	0
4204.814	n/a	REC_WORD	4204814	wordpools/wasnorm_wordpool_576.txt	LTP298	ltpFR2	1	17	FOREST	593	n/a	n/a	0	0	0
4206.217	n/a	REC_WORD	4206217	wordpools/wasnorm_wordpool_576.txt	LTP298	ltpFR2	1	17	CANYON	235	n/a	n/a	0	0	0
4207.634	n/a	REC_WORD	4207634	wordpools/wasnorm_wordpool_576.txt	LTP298	ltpFR2	1	17	GARDEN	623	n/a	n/a	0	0	0
4209.088	n/a	REC_WORD	4209088	wordpools/wasnorm_wordpool_576.txt	LTP298	ltpFR2	1	17	TILE	1468	n/a	n/a	0	0	0
4212.001	n/a	REC_WORD	4212001	wordpools/wasnorm_wordpool_576.txt	LTP298	ltpFR2	1	17	KETCHUP	771	n/a	n/a	0	0	0
4213.005	n/a	REC_WORD	4213005	wordpools/wasnorm_wordpool_576.txt	LTP298	ltpFR2	1	17	MUSTARD	935	n/a	n/a	0	0	0
4214.117	n/a	REC_WORD	4214117	wordpools/wasnorm_wordpool_576.txt	LTP298	ltpFR2	1	17	RELISH	1183	n/a	n/a	0	0	0
4221.164	n/a	REC_WORD	4221164	wordpools/wasnorm_wordpool_576.txt	LTP298	ltpFR2	1	17	SANDWICH	1232	n/a	n/a	0	0	0
4222.164	n/a	REC_WORD_VV	4222164	wordpools/wasnorm_wordpool_576.txt	LTP298	ltpFR2	1	17	<>	-1	n/a	n/a	0	0	0
4293.193	n/a	DISTRACTOR	4293193	n/a	LTP298	ltpFR2	1	18	n/a	n/a	n/a	n/a	0	0	0
4293.193	n/a	START	4293193	n/a	LTP298	ltpFR2	1	n/a	n/a	n/a	25	n/a	n/a	n/a	n/a
4293.21	n/a	PROB	4293210	n/a	LTP298	ltpFR2	1	n/a	n/a	n/a	25	11	8	1	2
4295.496	n/a	PROB	4295496	n/a	LTP298	ltpFR2	1	n/a	n/a	n/a	25	10	6	2	2
4298.364	n/a	PROB	4298364	n/a	LTP298	ltpFR2	1	n/a	n/a	n/a	25	10	3	2	5
4301.232	n/a	PROB	4301232	n/a	LTP298	ltpFR2	1	n/a	n/a	n/a	25	13	4	6	3
4303.601	n/a	PROB	4303601	n/a	LTP298	ltpFR2	1	n/a	n/a	n/a	25	13	5	3	5
4306.138	n/a	PROB	4306138	n/a	LTP298	ltpFR2	1	n/a	n/a	n/a	25	20	5	9	6
4311.057	n/a	PROB	4311057	n/a	LTP298	ltpFR2	1	n/a	n/a	n/a	25	15	4	5	6
4317.194	n/a	STOP	4317194	n/a	LTP298	ltpFR2	1	n/a	n/a	n/a	25	n/a	n/a	n/a	n/a
4318.138	n/a	WORD	4318138	wordpools/wasnorm_wordpool_576.txt	LTP298	ltpFR2	1	18	LAPEL	800	n/a	n/a	0	0	0
4320.815	n/a	WORD	4320815	wordpools/wasnorm_wordpool_576.txt	LTP298	ltpFR2	1	18	FIREMAN	569	n/a	n/a	0	0	0
4323.418	n/a	WORD	4323418	wordpools/wasnorm_wordpool_576.txt	LTP298	ltpFR2	1	18	GRILL	661	n/a	n/a	0	0	0
4326.228	n/a	WORD	4326228	wordpools/wasnorm_wordpool_576.txt	LTP298	ltpFR2	1	18	LEADER	807	n/a	n/a	0	0	0
4329.023	n/a	WORD	4329023	wordpools/wasnorm_wordpool_576.txt	LTP298	ltpFR2	1	18	WASHER	1592	n/a	n/a	0	0	0
4331.707	n/a	WORD	4331707	wordpools/wasnorm_wordpool_576.txt	LTP298	ltpFR2	1	18	THIEF	1456	n/a	n/a	0	0	0
4334.368	n/a	WORD	4334368	wordpools/wasnorm_wordpool_576.txt	LTP298	ltpFR2	1	18	SUSPECT	1415	n/a	n/a	0	0	0
4336.804	n/a	WORD	4336804	wordpools/wasnorm_wordpool_576.txt	LTP298	ltpFR2	1	18	SPOON	1357	n/a	n/a	0	0	0
4339.306	n/a	WORD	4339306	wordpools/wasnorm_wordpool_576.txt	LTP298	ltpFR2	1	18	ATOM	55	n/a	n/a	0	0	0
4341.809	n/a	WORD	4341809	wordpools/wasnorm_wordpool_576.txt	LTP298	ltpFR2	1	18	WAITRESS	1581	n/a	n/a	0	0	0
4344.434	n/a	WORD	4344434	wordpools/wasnorm_wordpool_576.txt	LTP298	ltpFR2	1	18	CLOUD	328	n/a	n/a	0	0	0
4346.971	n/a	WORD	4346971	wordpools/wasnorm_wordpool_576.txt	LTP298	ltpFR2	1	18	CIGAR	308	n/a	n/a	0	0	0
4349.789	n/a	WORD	4349789	wordpools/wasnorm_wordpool_576.txt	LTP298	ltpFR2	1	18	ANKLE	24	n/a	n/a	0	0	0
4352.45	n/a	WORD	4352450	wordpools/wasnorm_wordpool_576.txt	LTP298	ltpFR2	1	18	ROBOT	1200	n/a	n/a	0	0	0
4354.936	n/a	WORD	4354936	wordpools/wasnorm_wordpool_576.txt	LTP298	ltpFR2	1	18	CHAPEL	280	n/a	n/a	0	0	0
4357.521	n/a	WORD	4357521	wordpools/wasnorm_wordpool_576.txt	LTP298	ltpFR2	1	18	JURY	766	n/a	n/a	0	0	0
4360.074	n/a	WORD	4360074	wordpools/wasnorm_wordpool_576.txt	LTP298	ltpFR2	1	18	FOOT	590	n/a	n/a	0	0	0
4362.543	n/a	WORD	4362543	wordpools/wasnorm_wordpool_576.txt	LTP298	ltpFR2	1	18	CUSTARD	429	n/a	n/a	0	0	0
4365.145	n/a	WORD	4365145	wordpools/wasnorm_wordpool_576.txt	LTP298	ltpFR2	1	18	CRUTCH	417	n/a	n/a	0	0	0
4367.814	n/a	WORD	4367814	wordpools/wasnorm_wordpool_576.txt	LTP298	ltpFR2	1	18	SHORTCAKE	1292	n/a	n/a	0	0	0
4370.415	n/a	WORD	4370415	wordpools/wasnorm_wordpool_576.txt	LTP298	ltpFR2	1	18	ROBIN	1199	n/a	n/a	0	0	0
4373.174	n/a	WORD	4373174	wordpools/wasnorm_wordpool_576.txt	LTP298	ltpFR2	1	18	EAGLE	512	n/a	n/a	0	0	0
4375.977	n/a	WORD	4375977	wordpools/wasnorm_wordpool_576.txt	LTP298	ltpFR2	1	18	HOSTESS	723	n/a	n/a	0	0	0
4378.49	n/a	WORD	4378490	wordpools/wasnorm_wordpool_576.txt	LTP298	ltpFR2	1	18	SUPPER	1411	n/a	n/a	0	0	0
4380.096	n/a	START	4380096	n/a	LTP298	ltpFR2	1	n/a	n/a	n/a	26	n/a	n/a	n/a	n/a
4380.908	n/a	DISTRACTOR	4380908	n/a	LTP298	ltpFR2	1	18	n/a	n/a	n/a	n/a	0	0	0
4380.914	n/a	PROB	4380914	n/a	LTP298	ltpFR2	1	n/a	n/a	n/a	26	16	6	5	5
4383.547	n/a	PROB	4383547	n/a	LTP298	ltpFR2	1	n/a	n/a	n/a	26	21	8	4	9
4388.819	n/a	PROB	4388819	n/a	LTP298	ltpFR2	1	n/a	n/a	n/a	26	9	6	2	1
4391.322	n/a	PROB	4391322	n/a	LTP298	ltpFR2	1	n/a	n/a	n/a	26	8	2	4	2
4394.005	n/a	PROB	4394005	n/a	LTP298	ltpFR2	1	n/a	n/a	n/a	26	19	2	8	9
4396.288	n/a	PROB	4396288	n/a	LTP298	ltpFR2	1	n/a	n/a	n/a	26	15	8	2	5
4398.344	n/a	PROB	4398344	n/a	LTP298	ltpFR2	1	n/a	n/a	n/a	26	6	1	2	3
4404.096	n/a	STOP	4404096	n/a	LTP298	ltpFR2	1	n/a	n/a	n/a	26	n/a	n/a	n/a	n/a
4406.035	n/a	REC_START	4406035	n/a	LTP298	ltpFR2	1	18	n/a	n/a	n/a	n/a	0	0	0
4406.688	n/a	REC_WORD	4406688	wordpools/wasnorm_wordpool_576.txt	LTP298	ltpFR2	1	18	LAPEL	800	n/a	n/a	0	0	0
4408.947	n/a	REC_WORD	4408947	wordpools/wasnorm_wordpool_576.txt	LTP298	ltpFR2	1	18	CHAPEL	280	n/a	n/a	0	0	0
4411.508	n/a	REC_WORD	4411508	wordpools/wasnorm_wordpool_576.txt	LTP298	ltpFR2	1	18	CUSTARD	429	n/a	n/a	0	0	0
4413.696	n/a	REC_WORD	4413696	wordpools/wasnorm_wordpool_576.txt	LTP298	ltpFR2	1	18	SHORTCAKE	1292	n/a	n/a	0	0	0
4414.696	n/a	REC_WORD_VV	4414696	wordpools/wasnorm_wordpool_576.txt	LTP298	ltpFR2	1	18	<>	-1	n/a	n/a	0	0	0
4521.324	n/a	WORD	4521324	wordpools/wasnorm_wordpool_576.txt	LTP298	ltpFR2	1	19	GAVEL	627	n/a	n/a	0	0	0
4523.782	n/a	WORD	4523782	wordpools/wasnorm_wordpool_576.txt	LTP298	ltpFR2	1	19	CLAMP	316	n/a	n/a	0	0	0
4526.567	n/a	WORD	4526567	wordpools/wasnorm_wordpool_576.txt	LTP298	ltpFR2	1	19	RAFT	1159	n/a	n/a	0	0	0
4529.103	n/a	WORD	4529103	wordpools/wasnorm_wordpool_576.txt	LTP298	ltpFR2	1	19	SLOPE	1328	n/a	n/a	0	0	0
4531.866	n/a	WORD	4531866	wordpools/wasnorm_wordpool_576.txt	LTP298	ltpFR2	1	19	ATLAS	53	n/a	n/a	0	0	0
4534.285	n/a	WORD	4534285	wordpools/wasnorm_wordpool_576.txt	LTP298	ltpFR2	1	19	DRESSER	496	n/a	n/a	0	0	0
4536.977	n/a	WORD	4536977	wordpools/wasnorm_wordpool_576.txt	LTP298	ltpFR2	1	19	TRUCK	1512	n/a	n/a	0	0	0
4539.405	n/a	WORD	4539405	wordpools/wasnorm_wordpool_576.txt	LTP298	ltpFR2	1	19	MATTRESS	879	n/a	n/a	0	0	0
4541.941	n/a	WORD	4541941	wordpools/wasnorm_wordpool_576.txt	LTP298	ltpFR2	1	19	WITNESS	1618	n/a	n/a	0	0	0
4544.494	n/a	WORD	4544494	wordpools/wasnorm_wordpool_576.txt	LTP298	ltpFR2	1	19	MARSH	874	n/a	n/a	0	0	0
4547.046	n/a	WORD	4547046	wordpools/wasnorm_wordpool_576.txt	LTP298	ltpFR2	1	19	CRATER	400	n/a	n/a	0	0	0
4549.83	n/a	WORD	4549830	wordpools/wasnorm_wordpool_576.txt	LTP298	ltpFR2	1	19	PEPPER	1047	n/a	n/a	0	0	0
4552.599	n/a	WORD	4552599	wordpools/wasnorm_wordpool_576.txt	LTP298	ltpFR2	1	19	MAILBOX	857	n/a	n/a	0	0	0
4555.351	n/a	WORD	4555351	wordpools/wasnorm_wordpool_576.txt	LTP298	ltpFR2	1	19	COURSE	390	n/a	n/a	0	0	0
4557.97	n/a	WORD	4557970	wordpools/wasnorm_wordpool_576.txt	LTP298	ltpFR2	1	19	HIGHWAY	707	n/a	n/a	0	0	0
4560.405	n/a	WORD	4560405	wordpools/wasnorm_wordpool_576.txt	LTP298	ltpFR2	1	19	BUGGY	188	n/a	n/a	0	0	0
4562.898	n/a	WORD	4562898	wordpools/wasnorm_wordpool_576.txt	LTP298	ltpFR2	1	19	WRIST	1626	n/a	n/a	0	0	0
4565.584	n/a	WORD	4565584	wordpools/wasnorm_wordpool_576.txt	LTP298	ltpFR2	1	19	SHOULDER	1294	n/a	n/a	0	0	0
4568.045	n/a	WORD	4568045	wordpools/wasnorm_wordpool_576.txt	LTP298	ltpFR2	1	19	EYELASH	546	n/a	n/a	0	0	0
4570.597	n/a	WORD	4570597	wordpools/wasnorm_wordpool_576.txt	LTP298	ltpFR2	1	19	LIPSTICK	829	n/a	n/a	0	0	0
4573.282	n/a	WORD	4573282	wordpools/wasnorm_wordpool_576.txt	LTP298	ltpFR2	1	19	TWISTER	1530	n/a	n/a	0	0	0
4575.927	n/a	WORD	4575927	wordpools/wasnorm_wordpool_576.txt	LTP298	ltpFR2	1	19	TRENCH	1503	n/a	n/a	0	0	0
4578.545	n/a	WORD	4578545	wordpools/wasnorm_wordpool_576.txt	LTP298	ltpFR2	1	19	BEAVER	109	n/a	n/a	0	0	0
4581.071	n/a	WORD	4581071	wordpools/wasnorm_wordpool_576.txt	LTP298	ltpFR2	1	19	CLOCK	325	n/a	n/a	0	0	0
4582.683	n/a	START	4582683	n/a	LTP298	ltpFR2	1	n/a	n/a	n/a	27	n/a	n/a	n/a	n/a
4583.597	n/a	DISTRACTOR	4583597	n/a	LTP298	ltpFR2	1	19	n/a	n/a	n/a	n/a	0	0	0
4583.6	n/a	PROB	4583600	n/a	LTP298	ltpFR2	1	n/a	n/a	n/a	27	16	8	1	7
4587.909	n/a	PROB	4587909	n/a	LTP298	ltpFR2	1	n/a	n/a	n/a	27	16	6	7	3
4591.014	n/a	PROB	4591014	n/a	LTP298	ltpFR2	1	n/a	n/a	n/a	27	14	7	6	1
4593.497	n/a	PROB	4593497	n/a	LTP298	ltpFR2	1	n/a	n/a	n/a	27	18	5	7	6
4606.683	n/a	STOP	4606683	n/a	LTP298	ltpFR2	1	n/a	n/a	n/a	27	n/a	n/a	n/a	n/a
4608.477	n/a	REC_START	4608477	n/a	LTP298	ltpFR2	1	19	n/a	n/a	n/a	n/a	0	0	0
4609.863	n/a	REC_WORD	4609863	wordpools/wasnorm_wordpool_576.txt	LTP298	ltpFR2	1	19	GAVEL	627	n/a	n/a	0	0	0
4611.248	n/a	REC_WORD	4611248	wordpools/wasnorm_wordpool_576.txt	LTP298	ltpFR2	1	19	CLAMP	316	n/a	n/a	0	0	0
4613.01	n/a	REC_WORD	4613010	wordpools/wasnorm_wordpool_576.txt	LTP298	ltpFR2	1	19	CRATER	400	n/a	n/a	0	0	0
4617.711	n/a	REC_WORD	4617711	wordpools/wasnorm_wordpool_576.txt	LTP298	ltpFR2	1	19	PEPPER	1047	n/a	n/a	0	0	0
4619.867	n/a	REC_WORD	4619867	wordpools/wasnorm_wordpool_576.txt	LTP298	ltpFR2	1	19	BEAVER	109	n/a	n/a	0	0	0
4627.734	n/a	REC_WORD	4627734	wordpools/wasnorm_wordpool_576.txt	LTP298	ltpFR2	1	19	WRIST	1626	n/a	n/a	0	0	0
4629.127	n/a	REC_WORD	4629127	wordpools/wasnorm_wordpool_576.txt	LTP298	ltpFR2	1	19	SHOULDER	1294	n/a	n/a	0	0	0
4698.931	n/a	DISTRACTOR	4698931	n/a	LTP298	ltpFR2	1	20	n/a	n/a	n/a	n/a	0	0	0
4698.931	n/a	START	4698931	n/a	LTP298	ltpFR2	1	n/a	n/a	n/a	28	n/a	n/a	n/a	n/a
4698.947	n/a	PROB	4698947	n/a	LTP298	ltpFR2	1	n/a	n/a	n/a	28	13	6	1	6
4701.832	n/a	PROB	4701832	n/a	LTP298	ltpFR2	1	n/a	n/a	n/a	28	20	9	4	7
4705.852	n/a	PROB	4705852	n/a	LTP298	ltpFR2	1	n/a	n/a	n/a	28	10	4	2	4
4709.54	n/a	PROB	4709540	n/a	LTP298	ltpFR2	1	n/a	n/a	n/a	28	15	4	7	4
4717.797	n/a	PROB	4717797	n/a	LTP298	ltpFR2	1	n/a	n/a	n/a	28	20	3	9	8
4722.932	n/a	STOP	4722932	n/a	LTP298	ltpFR2	1	n/a	n/a	n/a	28	n/a	n/a	n/a	n/a
4724.135	n/a	WORD	4724135	wordpools/wasnorm_wordpool_576.txt	LTP298	ltpFR2	1	20	TABLET	1427	n/a	n/a	0	0	0
4726.686	n/a	WORD	4726686	wordpools/wasnorm_wordpool_576.txt	LTP298	ltpFR2	1	20	CAMEL	223	n/a	n/a	0	0	0
4729.389	n/a	WORD	4729389	wordpools/wasnorm_wordpool_576.txt	LTP298	ltpFR2	1	20	PEACH	1031	n/a	n/a	0	0	0
4731.807	n/a	WORD	4731807	wordpools/wasnorm_wordpool_576.txt	LTP298	ltpFR2	1	20	FRIEND	606	n/a	n/a	0	0	0
4734.396	n/a	WORD	4734396	wordpools/wasnorm_wordpool_576.txt	LTP298	ltpFR2	1	20	AWARD	63	n/a	n/a	0	0	0
4736.915	n/a	WORD	4736915	wordpools/wasnorm_wordpool_576.txt	LTP298	ltpFR2	1	20	EUROPE	541	n/a	n/a	0	0	0
4739.38	n/a	WORD	4739380	wordpools/wasnorm_wordpool_576.txt	LTP298	ltpFR2	1	20	LONDON	843	n/a	n/a	0	0	0
4741.815	n/a	WORD	4741815	wordpools/wasnorm_wordpool_576.txt	LTP298	ltpFR2	1	20	WAGON	1578	n/a	n/a	0	0	0
4744.387	n/a	WORD	4744387	wordpools/wasnorm_wordpool_576.txt	LTP298	ltpFR2	1	20	SIDEWALK	1303	n/a	n/a	0	0	0
4746.97	n/a	WORD	4746970	wordpools/wasnorm_wordpool_576.txt	LTP298	ltpFR2	1	20	GREASE	660	n/a	n/a	0	0	0
4749.672	n/a	WORD	4749672	wordpools/wasnorm_wordpool_576.txt	LTP298	ltpFR2	1	20	BREAST	171	n/a	n/a	0	0	0
4752.441	n/a	WORD	4752441	wordpools/wasnorm_wordpool_576.txt	LTP298	ltpFR2	1	20	CONVICT	371	n/a	n/a	0	0	0
4755.226	n/a	WORD	4755226	wordpools/wasnorm_wordpool_576.txt	LTP298	ltpFR2	1	20	PLAID	1080	n/a	n/a	0	0	0
4757.833	n/a	WORD	4757833	wordpools/wasnorm_wordpool_576.txt	LTP298	ltpFR2	1	20	STATUE	1374	n/a	n/a	0	0	0
4760.352	n/a	WORD	4760352	wordpools/wasnorm_wordpool_576.txt	LTP298	ltpFR2	1	20	STAR	1373	n/a	n/a	0	0	0
4762.849	n/a	WORD	4762849	wordpools/wasnorm_wordpool_576.txt	LTP298	ltpFR2	1	20	MAILMAN	858	n/a	n/a	0	0	0
4765.5	n/a	WORD	4765500	wordpools/wasnorm_wordpool_576.txt	LTP298	ltpFR2	1	20	BADGE	68	n/a	n/a	0	0	0
4767.937	n/a	WORD	4767937	wordpools/wasnorm_wordpool_576.txt	LTP298	ltpFR2	1	20	PREACHER	1119	n/a	n/a	0	0	0
4770.46	n/a	WORD	4770460	wordpools/wasnorm_wordpool_576.txt	LTP298	ltpFR2	1	20	BANJO	82	n/a	n/a	0	0	0
4773.024	n/a	WORD	4773024	wordpools/wasnorm_wordpool_576.txt	LTP298	ltpFR2	1	20	RECORD	1176	n/a	n/a	0	0	0
4775.482	n/a	WORD	4775482	wordpools/wasnorm_wordpool_576.txt	LTP298	ltpFR2	1	20	BRACES	164	n/a	n/a	0	0	0
4778.012	n/a	WORD	4778012	wordpools/wasnorm_wordpool_576.txt	LTP298	ltpFR2	1	20	CITRUS	313	n/a	n/a	0	0	0
4780.579	n/a	WORD	4780579	wordpools/wasnorm_wordpool_576.txt	LTP298	ltpFR2	1	20	LIGHTNING	820	n/a	n/a	0	0	0
4783.181	n/a	WORD	4783181	wordpools/wasnorm_wordpool_576.txt	LTP298	ltpFR2	1	20	SCULPTURE	1258	n/a	n/a	0	0	0
4784.79	n/a	START	4784790	n/a	LTP298	ltpFR2	1	n/a	n/a	n/a	29	n/a	n/a	n/a	n/a
4785.898	n/a	DISTRACTOR	4785898	n/a	LTP298	ltpFR2	1	20	n/a	n/a	n/a	n/a	0	0	0
4785.908	n/a	PROB	4785908	n/a	LTP298	ltpFR2	1	n/a	n/a	n/a	29	9	1	5	3
4788.919	n/a	PROB	4788919	n/a	LTP298	ltpFR2	1	n/a	n/a	n/a	29	25	9	9	7
4796.993	n/a	PROB	4796993	n/a	LTP298	ltpFR2	1	n/a	n/a	n/a	29	17	9	6	2
4802.162	n/a	PROB	4802162	n/a	LTP298	ltpFR2	1	n/a	n/a	n/a	29	16	1	9	6
4804.13	n/a	PROB	4804130	n/a	LTP298	ltpFR2	1	n/a	n/a	n/a	29	18	8	8	2
4807.861	n/a	STOP	4807861	n/a	LTP298	ltpFR2	1	n/a	n/a	n/a	29	n/a	n/a	n/a	n/a
4810.686	n/a	REC_START	4810686	n/a	LTP298	ltpFR2	1	20	n/a	n/a	n/a	n/a	0	0	0
4811.961	n/a	REC_WORD	4811961	wordpools/wasnorm_wordpool_576.txt	LTP298	ltpFR2	1	20	PREACHER	1119	n/a	n/a	0	0	0
4813.266	n/a	REC_WORD	4813266	wordpools/wasnorm_wordpool_576.txt	LTP298	ltpFR2	1	20	STATUE	1374	n/a	n/a	0	0	0
4814.914	n/a	REC_WORD	4814914	wordpools/wasnorm_wordpool_576.txt	LTP298	ltpFR2	1	20	SCULPTURE	1258	n/a	n/a	0	0	0
4817.716	n/a	REC_WORD	4817716	wordpools/wasnorm_wordpool_576.txt	LTP298	ltpFR2	1	20	FRIEND	606	n/a	n/a	0	0	0
4819.316	n/a	REC_WORD	4819316	wordpools/wasnorm_wordpool_576.txt	LTP298	ltpFR2	1	20	WAGON	1578	n/a	n/a	0	0	0
4820.923	n/a	REC_WORD	4820923	wordpools/wasnorm_wordpool_576.txt	LTP298	ltpFR2	1	20	SIDEWALK	1303	n/a	n/a	0	0	0
4821.923	n/a	REC_WORD_VV	4821923	wordpools/wasnorm_wordpool_576.txt	LTP298	ltpFR2	1	20	<>	-1	n/a	n/a	0	0	0
4885.577	n/a	REC_WORD_VV	4885577	wordpools/wasnorm_wordpool_576.txt	LTP298	ltpFR2	1	20	<>	-1	n/a	n/a	0	0	0
4901.125	n/a	WORD	4901125	wordpools/wasnorm_wordpool_576.txt	LTP298	ltpFR2	1	21	MUMMY	932	n/a	n/a	0	0	0
4903.859	n/a	WORD	4903859	wordpools/wasnorm_wordpool_576.txt	LTP298	ltpFR2	1	21	TEMPLE	1448	n/a	n/a	0	0	0
4906.361	n/a	WORD	4906361	wordpools/wasnorm_wordpool_576.txt	LTP298	ltpFR2	1	21	HELMET	702	n/a	n/a	0	0	0
4908.981	n/a	WORD	4908981	wordpools/wasnorm_wordpool_576.txt	LTP298	ltpFR2	1	21	TUNNEL	1519	n/a	n/a	0	0	0
4911.799	n/a	WORD	4911799	wordpools/wasnorm_wordpool_576.txt	LTP298	ltpFR2	1	21	BULLET	194	n/a	n/a	0	0	0
4914.484	n/a	WORD	4914484	wordpools/wasnorm_wordpool_576.txt	LTP298	ltpFR2	1	21	BLUEPRINT	142	n/a	n/a	0	0	0
4917.188	n/a	WORD	4917188	wordpools/wasnorm_wordpool_576.txt	LTP298	ltpFR2	1	21	LACE	792	n/a	n/a	0	0	0
4919.957	n/a	WORD	4919957	wordpools/wasnorm_wordpool_576.txt	LTP298	ltpFR2	1	21	LOFT	840	n/a	n/a	0	0	0
4922.491	n/a	WORD	4922491	wordpools/wasnorm_wordpool_576.txt	LTP298	ltpFR2	1	21	CLIMBER	323	n/a	n/a	0	0	0
4925.194	n/a	WORD	4925194	wordpools/wasnorm_wordpool_576.txt	LTP298	ltpFR2	1	21	RATTLE	1170	n/a	n/a	0	0	0
4927.98	n/a	WORD	4927980	wordpools/wasnorm_wordpool_576.txt	LTP298	ltpFR2	1	21	SNAKE	1333	n/a	n/a	0	0	0
4930.464	n/a	WORD	4930464	wordpools/wasnorm_wordpool_576.txt	LTP298	ltpFR2	1	21	LASER	801	n/a	n/a	0	0	0
4933.002	n/a	WORD	4933002	wordpools/wasnorm_wordpool_576.txt	LTP298	ltpFR2	1	21	RIFLE	1192	n/a	n/a	0	0	0
4935.786	n/a	WORD	4935786	wordpools/wasnorm_wordpool_576.txt	LTP298	ltpFR2	1	21	COLONEL	348	n/a	n/a	0	0	0
4938.621	n/a	WORD	4938621	wordpools/wasnorm_wordpool_576.txt	LTP298	ltpFR2	1	21	MARS	873	n/a	n/a	0	0	0
4941.373	n/a	WORD	4941373	wordpools/wasnorm_wordpool_576.txt	LTP298	ltpFR2	1	21	STREAM	1392	n/a	n/a	0	0	0
4943.825	n/a	WORD	4943825	wordpools/wasnorm_wordpool_576.txt	LTP298	ltpFR2	1	21	SUBWAY	1400	n/a	n/a	0	0	0
4946.277	n/a	WORD	4946277	wordpools/wasnorm_wordpool_576.txt	LTP298	ltpFR2	1	21	FLAG	573	n/a	n/a	0	0	0
4948.848	n/a	WORD	4948848	wordpools/wasnorm_wordpool_576.txt	LTP298	ltpFR2	1	21	SLIME	1327	n/a	n/a	0	0	0
4951.515	n/a	WORD	4951515	wordpools/wasnorm_wordpool_576.txt	LTP298	ltpFR2	1	21	GROUND	666	n/a	n/a	0	0	0
4954.268	n/a	WORD	4954268	wordpools/wasnorm_wordpool_576.txt	LTP298	ltpFR2	1	21	PISTOL	1075	n/a	n/a	0	0	0
4957.037	n/a	WORD	4957037	wordpools/wasnorm_wordpool_576.txt	LTP298	ltpFR2	1	21	HORNET	718	n/a	n/a	0	0	0
4959.488	n/a	WORD	4959488	wordpools/wasnorm_wordpool_576.txt	LTP298	ltpFR2	1	21	BELLY	119	n/a	n/a	0	0	0
4962.274	n/a	WORD	4962274	wordpools/wasnorm_wordpool_576.txt	LTP298	ltpFR2	1	21	APRON	35	n/a	n/a	0	0	0
4963.877	n/a	START	4963877	n/a	LTP298	ltpFR2	1	n/a	n/a	n/a	30	n/a	n/a	n/a	n/a
4965.051	n/a	DISTRACTOR	4965051	n/a	LTP298	ltpFR2	1	21	n/a	n/a	n/a	n/a	0	0	0
4965.06	n/a	PROB	4965060	n/a	LTP298	ltpFR2	1	n/a	n/a	n/a	30	17	7	6	4
4967.627	n/a	PROB	4967627	n/a	LTP298	ltpFR2	1	n/a	n/a	n/a	30	13	4	7	2
4971.832	n/a	PROB	4971832	n/a	LTP298	ltpFR2	1	n/a	n/a	n/a	30	16	9	4	3
4976.767	n/a	PROB	4976767	n/a	LTP298	ltpFR2	1	n/a	n/a	n/a	30	18	8	4	6
4979.353	n/a	PROB	4979353	n/a	LTP298	ltpFR2	1	n/a	n/a	n/a	30	18	7	3	8
4981.238	n/a	PROB	4981238	n/a	LTP298	ltpFR2	1	n/a	n/a	n/a	30	12	4	5	3
4987.878	n/a	STOP	4987878	n/a	LTP298	ltpFR2	1	n/a	n/a	n/a	30	n/a	n/a	n/a	n/a
4989.796	n/a	REC_START	4989796	n/a	LTP298	ltpFR2	1	21	n/a	n/a	n/a	n/a	0	0	0
4990.601	n/a	REC_WORD	4990601	wordpools/wasnorm_wordpool_576.txt	LTP298	ltpFR2	1	21	MUMMY	932	n/a	n/a	0	0	0
4992.126	n/a	REC_WORD	4992126	wordpools/wasnorm_wordpool_576.txt	LTP298	ltpFR2	1	21	TEMPLE	1448	n/a	n/a	0	0	0
4994.174	n/a	REC_WORD	4994174	wordpools/wasnorm_wordpool_576.txt	LTP298	ltpFR2	1	21	BLUEPRINT	142	n/a	n/a	0	0	0
5001.285	n/a	REC_WORD	5001285	wordpools/wasnorm_wordpool_576.txt	LTP298	ltpFR2	1	21	BULLET	194	n/a	n/a	0	0	0
5005.993	n/a	REC_WORD	5005993	wordpools/wasnorm_wordpool_576.txt	LTP298	ltpFR2	1	21	RIFLE	1192	n/a	n/a	0	0	0
5007.078	n/a	REC_WORD	5007078	wordpools/wasnorm_wordpool_576.txt	LTP298	ltpFR2	1	21	PISTOL	1075	n/a	n/a	0	0	0
5009.903	n/a	REC_WORD	5009903	wordpools/wasnorm_wordpool_576.txt	LTP298	ltpFR2	1	21	STOMACH	1384	n/a	n/a	0	0	0
5012.696	n/a	REC_WORD	5012696	wordpools/wasnorm_wordpool_576.txt	LTP298	ltpFR2	1	21	APRON	35	n/a	n/a	0	0	0
5014.549	n/a	REC_WORD	5014549	wordpools/wasnorm_wordpool_576.txt	LTP298	ltpFR2	1	21	LACE	792	n/a	n/a	0	0	0
5016.489	n/a	REC_WORD	5016489	wordpools/wasnorm_wordpool_576.txt	LTP298	ltpFR2	1	21	LOFT	840	n/a	n/a	0	0	0
5018.571	n/a	REC_WORD	5018571	wordpools/wasnorm_wordpool_576.txt	LTP298	ltpFR2	1	21	SLIME	1327	n/a	n/a	0	0	0
5020.727	n/a	REC_WORD	5020727	wordpools/wasnorm_wordpool_576.txt	LTP298	ltpFR2	1	21	SNAKE	1333	n/a	n/a	0	0	0
5024.027	n/a	REC_WORD	5024027	wordpools/wasnorm_wordpool_576.txt	LTP298	ltpFR2	1	21	HORNET	718	n/a	n/a	0	0	0
5030.572	n/a	REC_WORD	5030572	wordpools/wasnorm_wordpool_576.txt	LTP298	ltpFR2	1	21	CLIMBER	323	n/a	n/a	0	0	0
5034.641	n/a	REC_WORD	5034641	wordpools/wasnorm_wordpool_576.txt	LTP298	ltpFR2	1	21	TUNNEL	1519	n/a	n/a	0	0	0
5080.21	n/a	DISTRACTOR	5080210	n/a	LTP298	ltpFR2	1	22	n/a	n/a	n/a	n/a	0	0	0
5080.21	n/a	START	5080210	n/a	LTP298	ltpFR2	1	n/a	n/a	n/a	31	n/a	n/a	n/a	n/a
5080.227	n/a	PROB	5080227	n/a	LTP298	ltpFR2	1	n/a	n/a	n/a	31	18	1	8	9
5083.236	n/a	PROB	5083236	n/a	LTP298	ltpFR2	1	n/a	n/a	n/a	31	21	9	8	4
5089.907	n/a	PROB	5089907	n/a	LTP298	ltpFR2	1	n/a	n/a	n/a	31	5	2	1	2
5091.91	n/a	PROB	5091910	n/a	LTP298	ltpFR2	1	n/a	n/a	n/a	31	12	4	5	3
5094.679	n/a	PROB	5094679	n/a	LTP298	ltpFR2	1	n/a	n/a	n/a	31	18	7	2	9
5104.211	n/a	STOP	5104211	n/a	LTP298	ltpFR2	1	n/a	n/a	n/a	31	n/a	n/a	n/a	n/a
5105.183	n/a	WORD	5105183	wordpools/wasnorm_wordpool_576.txt	LTP298	ltpFR2	1	22	GOBLIN	645	n/a	n/a	0	0	0
5107.851	n/a	WORD	5107851	wordpools/wasnorm_wordpool_576.txt	LTP298	ltpFR2	1	22	PUDDING	1139	n/a	n/a	0	0	0
5110.586	n/a	WORD	5110586	wordpools/wasnorm_wordpool_576.txt	LTP298	ltpFR2	1	22	BLOCKADE	137	n/a	n/a	0	0	0
5113.322	n/a	WORD	5113322	wordpools/wasnorm_wordpool_576.txt	LTP298	ltpFR2	1	22	JEANS	752	n/a	n/a	0	0	0
5115.777	n/a	WORD	5115777	wordpools/wasnorm_wordpool_576.txt	LTP298	ltpFR2	1	22	DRESS	495	n/a	n/a	0	0	0
5118.447	n/a	WORD	5118447	wordpools/wasnorm_wordpool_576.txt	LTP298	ltpFR2	1	22	EMPIRE	530	n/a	n/a	0	0	0
5121.247	n/a	WORD	5121247	wordpools/wasnorm_wordpool_576.txt	LTP298	ltpFR2	1	22	AIRPORT	13	n/a	n/a	0	0	0
5123.983	n/a	WORD	5123983	wordpools/wasnorm_wordpool_576.txt	LTP298	ltpFR2	1	22	BUTCHER	203	n/a	n/a	0	0	0
5126.401	n/a	WORD	5126401	wordpools/wasnorm_wordpool_576.txt	LTP298	ltpFR2	1	22	HUSBAND	728	n/a	n/a	0	0	0
5128.87	n/a	WORD	5128870	wordpools/wasnorm_wordpool_576.txt	LTP298	ltpFR2	1	22	WIFE	1609	n/a	n/a	0	0	0
5131.354	n/a	WORD	5131354	wordpools/wasnorm_wordpool_576.txt	LTP298	ltpFR2	1	22	SALMON	1227	n/a	n/a	0	0	0
5133.891	n/a	WORD	5133891	wordpools/wasnorm_wordpool_576.txt	LTP298	ltpFR2	1	22	CRAB	397	n/a	n/a	0	0	0
5136.66	n/a	WORD	5136660	wordpools/wasnorm_wordpool_576.txt	LTP298	ltpFR2	1	22	HARP	689	n/a	n/a	0	0	0
5139.345	n/a	WORD	5139345	wordpools/wasnorm_wordpool_576.txt	LTP298	ltpFR2	1	22	SPIDER	1351	n/a	n/a	0	0	0
5141.998	n/a	WORD	5141998	wordpools/wasnorm_wordpool_576.txt	LTP298	ltpFR2	1	22	GRAVEL	659	n/a	n/a	0	0	0
5144.533	n/a	WORD	5144533	wordpools/wasnorm_wordpool_576.txt	LTP298	ltpFR2	1	22	TAXI	1438	n/a	n/a	0	0	0
5147.353	n/a	WORD	5147353	wordpools/wasnorm_wordpool_576.txt	LTP298	ltpFR2	1	22	BRAKE	166	n/a	n/a	0	0	0
5149.988	n/a	WORD	5149988	wordpools/wasnorm_wordpool_576.txt	LTP298	ltpFR2	1	22	MONSTER	912	n/a	n/a	0	0	0
5152.473	n/a	WORD	5152473	wordpools/wasnorm_wordpool_576.txt	LTP298	ltpFR2	1	22	MESSAGE	888	n/a	n/a	0	0	0
5155.175	n/a	WORD	5155175	wordpools/wasnorm_wordpool_576.txt	LTP298	ltpFR2	1	22	SALT	1229	n/a	n/a	0	0	0
5157.778	n/a	WORD	5157778	wordpools/wasnorm_wordpool_576.txt	LTP298	ltpFR2	1	22	SLUG	1329	n/a	n/a	0	0	0
5160.581	n/a	WORD	5160581	wordpools/wasnorm_wordpool_576.txt	LTP298	ltpFR2	1	22	LUGGAGE	847	n/a	n/a	0	0	0
5163.333	n/a	WORD	5163333	wordpools/wasnorm_wordpool_576.txt	LTP298	ltpFR2	1	22	SUITCASE	1403	n/a	n/a	0	0	0
5165.818	n/a	WORD	5165818	wordpools/wasnorm_wordpool_576.txt	LTP298	ltpFR2	1	22	COSTUME	383	n/a	n/a	0	0	0
5167.436	n/a	START	5167436	n/a	LTP298	ltpFR2	1	n/a	n/a	n/a	32	n/a	n/a	n/a	n/a
5168.602	n/a	DISTRACTOR	5168602	n/a	LTP298	ltpFR2	1	22	n/a	n/a	n/a	n/a	0	0	0
5168.62	n/a	PROB	5168620	n/a	LTP298	ltpFR2	1	n/a	n/a	n/a	32	16	6	8	2
5171.638	n/a	PROB	5171638	n/a	LTP298	ltpFR2	1	n/a	n/a	n/a	32	6	3	2	1
5174.124	n/a	PROB	5174124	n/a	LTP298	ltpFR2	1	n/a	n/a	n/a	32	10	2	2	6
5176.525	n/a	PROB	5176525	n/a	LTP298	ltpFR2	1	n/a	n/a	n/a	32	12	7	2	3
5182.913	n/a	PROB	5182913	n/a	LTP298	ltpFR2	1	n/a	n/a	n/a	32	19	7	5	7
5186.249	n/a	PROB	5186249	n/a	LTP298	ltpFR2	1	n/a	n/a	n/a	32	16	8	5	3
5191.153	n/a	STOP	5191153	n/a	LTP298	ltpFR2	1	n/a	n/a	n/a	32	n/a	n/a	n/a	n/a
5193.273	n/a	REC_START	5193273	n/a	LTP298	ltpFR2	1	22	n/a	n/a	n/a	n/a	0	0	0
5194.129	n/a	REC_WORD	5194129	wordpools/wasnorm_wordpool_576.txt	LTP298	ltpFR2	1	22	GOBLIN	645	n/a	n/a	0	0	0
5195.566	n/a	REC_WORD	5195566	wordpools/wasnorm_wordpool_576.txt	LTP298	ltpFR2	1	22	PUDDING	1139	n/a	n/a	0	0	0
5196.962	n/a	REC_WORD	5196962	wordpools/wasnorm_wordpool_576.txt	LTP298	ltpFR2	1	22	BLOCKADE	137	n/a	n/a	0	0	0
5198.925	n/a	REC_WORD	5198925	wordpools/wasnorm_wordpool_576.txt	LTP298	ltpFR2	1	22	MONSTER	912	n/a	n/a	0	0	0
