mstime	trial_type	stim_file	subject	experiment	session	trial	task	item_name	item_num	recog_resp	recog_conf	resp	answer	test_x	test_y	test_z	color_r	color_g	color_b	case	font
0	SESS_START	n/a	LTP185	ltpFR	7	n/a	n/a	n/a	n/a	0	4	n/a	n/a	0	0	0	n/a	n/a	n/a	n/a	n/a
317086	START	n/a	LTP185	ltpFR	7	n/a	n/a	n/a	n/a	n/a	n/a	n/a	n/a	n/a	n/a	n/a	n/a	n/a	n/a	n/a	n/a
317118	PROB	n/a	LTP185	ltpFR	7	n/a	n/a	n/a	n/a	n/a	n/a	n/a	8	3	1	4	n/a	n/a	n/a	n/a	n/a
321804	PROB	n/a	LTP185	ltpFR	7	n/a	n/a	n/a	n/a	n/a	n/a	n/a	13	6	3	5	n/a	n/a	n/a	n/a	n/a
324028	PROB	n/a	LTP185	ltpFR	7	n/a	n/a	n/a	n/a	n/a	n/a	n/a	15	5	7	3	n/a	n/a	n/a	n/a	n/a
326555	PROB	n/a	LTP185	ltpFR	7	n/a	n/a	n/a	n/a	n/a	n/a	n/a	15	9	4	2	n/a	n/a	n/a	n/a	n/a
329331	PROB	n/a	LTP185	ltpFR	7	n/a	n/a	n/a	n/a	n/a	n/a	n/a	16	6	3	7	n/a	n/a	n/a	n/a	n/a
331490	PROB	n/a	LTP185	ltpFR	7	n/a	n/a	n/a	n/a	n/a	n/a	n/a	13	1	4	8	n/a	n/a	n/a	n/a	n/a
337086	STOP	n/a	LTP185	ltpFR	7	n/a	n/a	n/a	n/a	n/a	n/a	n/a	n/a	n/a	n/a	n/a	n/a	n/a	n/a	n/a	n/a
462786	START	n/a	LTP185	ltpFR	7	n/a	n/a	n/a	n/a	n/a	n/a	n/a	n/a	n/a	n/a	n/a	n/a	n/a	n/a	n/a	n/a
464291	PROB	n/a	LTP185	ltpFR	7	n/a	n/a	n/a	n/a	n/a	n/a	n/a	17	6	5	6	n/a	n/a	n/a	n/a	n/a
467301	PROB	n/a	LTP185	ltpFR	7	n/a	n/a	n/a	n/a	n/a	n/a	n/a	16	4	4	8	n/a	n/a	n/a	n/a	n/a
469868	STOP	n/a	LTP185	ltpFR	7	n/a	n/a	n/a	n/a	n/a	n/a	n/a	n/a	n/a	n/a	n/a	n/a	n/a	n/a	n/a	n/a
471919	WORD	wordpools/wasnorm_wordpool_less_exclusions.txt	LTP185	ltpFR	7	1	0	BATHTUB	100	0	n/a	1	n/a	0	0	0	0.57763671875	0.412841796875	1	upper	amplitud.ttf
474931	START	n/a	LTP185	ltpFR	7	n/a	n/a	n/a	n/a	n/a	n/a	n/a	n/a	n/a	n/a	n/a	n/a	n/a	n/a	n/a	n/a
475803	PROB	n/a	LTP185	ltpFR	7	n/a	n/a	n/a	n/a	n/a	n/a	n/a	17	8	2	7	n/a	n/a	n/a	n/a	n/a
477557	PROB	n/a	LTP185	ltpFR	7	n/a	n/a	n/a	n/a	n/a	n/a	n/a	17	1	8	8	n/a	n/a	n/a	n/a	n/a
480133	PROB	n/a	LTP185	ltpFR	7	n/a	n/a	n/a	n/a	n/a	n/a	n/a	18	3	7	8	n/a	n/a	n/a	n/a	n/a
482068	STOP	n/a	LTP185	ltpFR	7	n/a	n/a	n/a	n/a	n/a	n/a	n/a	n/a	n/a	n/a	n/a	n/a	n/a	n/a	n/a	n/a
483900	WORD	wordpools/wasnorm_wordpool_less_exclusions.txt	LTP185	ltpFR	7	1	0	BAIT	70	n/a	n/a	0	n/a	0	0	0	0.57763671875	0.412841796875	1	upper	amplitud.ttf
486909	START	n/a	LTP185	ltpFR	7	n/a	n/a	n/a	n/a	n/a	n/a	n/a	n/a	n/a	n/a	n/a	n/a	n/a	n/a	n/a	n/a
487846	PROB	n/a	LTP185	ltpFR	7	n/a	n/a	n/a	n/a	n/a	n/a	n/a	18	9	2	9	n/a	n/a	n/a	n/a	n/a
489804	PROB	n/a	LTP185	ltpFR	7	n/a	n/a	n/a	n/a	n/a	n/a	n/a	12	2	5	5	n/a	n/a	n/a	n/a	n/a
492161	PROB	n/a	LTP185	ltpFR	7	n/a	n/a	n/a	n/a	n/a	n/a	n/a	10	5	4	1	n/a	n/a	n/a	n/a	n/a
494373	STOP	n/a	LTP185	ltpFR	7	n/a	n/a	n/a	n/a	n/a	n/a	n/a	n/a	n/a	n/a	n/a	n/a	n/a	n/a	n/a	n/a
495776	WORD	wordpools/wasnorm_wordpool_less_exclusions.txt	LTP185	ltpFR	7	1	0	SPARROW	1347	n/a	n/a	1	n/a	0	0	0	0.57763671875	0.412841796875	1	upper	amplitud.ttf
498788	START	n/a	LTP185	ltpFR	7	n/a	n/a	n/a	n/a	n/a	n/a	n/a	n/a	n/a	n/a	n/a	n/a	n/a	n/a	n/a	n/a
499974	PROB	n/a	LTP185	ltpFR	7	n/a	n/a	n/a	n/a	n/a	n/a	n/a	11	1	5	5	n/a	n/a	n/a	n/a	n/a
501782	PROB	n/a	LTP185	ltpFR	7	n/a	n/a	n/a	n/a	n/a	n/a	n/a	15	8	2	5	n/a	n/a	n/a	n/a	n/a
503270	PROB	n/a	LTP185	ltpFR	7	n/a	n/a	n/a	n/a	n/a	n/a	n/a	21	7	7	7	n/a	n/a	n/a	n/a	n/a
505236	STOP	n/a	LTP185	ltpFR	7	n/a	n/a	n/a	n/a	n/a	n/a	n/a	n/a	n/a	n/a	n/a	n/a	n/a	n/a	n/a	n/a
507756	WORD	wordpools/wasnorm_wordpool_less_exclusions.txt	LTP185	ltpFR	7	1	0	KNOT	788	n/a	n/a	0	n/a	0	0	0	0.57763671875	0.412841796875	1	upper	amplitud.ttf
510767	START	n/a	LTP185	ltpFR	7	n/a	n/a	n/a	n/a	n/a	n/a	n/a	n/a	n/a	n/a	n/a	n/a	n/a	n/a	n/a	n/a
511903	PROB	n/a	LTP185	ltpFR	7	n/a	n/a	n/a	n/a	n/a	n/a	n/a	15	4	2	9	n/a	n/a	n/a	n/a	n/a
514144	PROB	n/a	LTP185	ltpFR	7	n/a	n/a	n/a	n/a	n/a	n/a	n/a	17	8	3	6	n/a	n/a	n/a	n/a	n/a
516688	PROB	n/a	LTP185	ltpFR	7	n/a	n/a	n/a	n/a	n/a	n/a	n/a	12	3	8	1	n/a	n/a	n/a	n/a	n/a
518509	STOP	n/a	LTP185	ltpFR	7	n/a	n/a	n/a	n/a	n/a	n/a	n/a	n/a	n/a	n/a	n/a	n/a	n/a	n/a	n/a	n/a
519800	WORD	wordpools/wasnorm_wordpool_less_exclusions.txt	LTP185	ltpFR	7	1	0	SHOELACE	1289	n/a	n/a	0	n/a	0	0	0	0.57763671875	0.412841796875	1	upper	amplitud.ttf
522812	START	n/a	LTP185	ltpFR	7	n/a	n/a	n/a	n/a	n/a	n/a	n/a	n/a	n/a	n/a	n/a	n/a	n/a	n/a	n/a	n/a
523765	PROB	n/a	LTP185	ltpFR	7	n/a	n/a	n/a	n/a	n/a	n/a	n/a	21	8	7	6	n/a	n/a	n/a	n/a	n/a
528197	PROB	n/a	LTP185	ltpFR	7	n/a	n/a	n/a	n/a	n/a	n/a	n/a	17	5	9	3	n/a	n/a	n/a	n/a	n/a
530701	STOP	n/a	LTP185	ltpFR	7	n/a	n/a	n/a	n/a	n/a	n/a	n/a	n/a	n/a	n/a	n/a	n/a	n/a	n/a	n/a	n/a
531695	WORD	wordpools/wasnorm_wordpool_less_exclusions.txt	LTP185	ltpFR	7	1	0	PLUMBER	1091	n/a	n/a	1	n/a	0	0	0	0.57763671875	0.412841796875	1	upper	amplitud.ttf
534707	START	n/a	LTP185	ltpFR	7	n/a	n/a	n/a	n/a	n/a	n/a	n/a	n/a	n/a	n/a	n/a	n/a	n/a	n/a	n/a	n/a
535710	PROB	n/a	LTP185	ltpFR	7	n/a	n/a	n/a	n/a	n/a	n/a	n/a	21	6	6	9	n/a	n/a	n/a	n/a	n/a
537768	PROB	n/a	LTP185	ltpFR	7	n/a	n/a	n/a	n/a	n/a	n/a	n/a	12	1	5	6	n/a	n/a	n/a	n/a	n/a
540226	PROB	n/a	LTP185	ltpFR	7	n/a	n/a	n/a	n/a	n/a	n/a	n/a	8	1	4	3	n/a	n/a	n/a	n/a	n/a
542453	STOP	n/a	LTP185	ltpFR	7	n/a	n/a	n/a	n/a	n/a	n/a	n/a	n/a	n/a	n/a	n/a	n/a	n/a	n/a	n/a	n/a
543623	WORD	wordpools/wasnorm_wordpool_less_exclusions.txt	LTP185	ltpFR	7	1	0	SKI	1316	n/a	n/a	1	n/a	0	0	0	0.57763671875	0.412841796875	1	upper	amplitud.ttf
546635	START	n/a	LTP185	ltpFR	7	n/a	n/a	n/a	n/a	n/a	n/a	n/a	n/a	n/a	n/a	n/a	n/a	n/a	n/a	n/a	n/a
547806	PROB	n/a	LTP185	ltpFR	7	n/a	n/a	n/a	n/a	n/a	n/a	n/a	23	9	9	5	n/a	n/a	n/a	n/a	n/a
549862	PROB	n/a	LTP185	ltpFR	7	n/a	n/a	n/a	n/a	n/a	n/a	n/a	15	6	2	7	n/a	n/a	n/a	n/a	n/a
554635	STOP	n/a	LTP185	ltpFR	7	n/a	n/a	n/a	n/a	n/a	n/a	n/a	n/a	n/a	n/a	n/a	n/a	n/a	n/a	n/a	n/a
555635	WORD	wordpools/wasnorm_wordpool_less_exclusions.txt	LTP185	ltpFR	7	1	0	SNACK	1331	n/a	n/a	0	n/a	0	0	0	0.57763671875	0.412841796875	1	upper	amplitud.ttf
558647	START	n/a	LTP185	ltpFR	7	n/a	n/a	n/a	n/a	n/a	n/a	n/a	n/a	n/a	n/a	n/a	n/a	n/a	n/a	n/a	n/a
559518	PROB	n/a	LTP185	ltpFR	7	n/a	n/a	n/a	n/a	n/a	n/a	n/a	19	5	6	8	n/a	n/a	n/a	n/a	n/a
561725	PROB	n/a	LTP185	ltpFR	7	n/a	n/a	n/a	n/a	n/a	n/a	n/a	17	9	7	1	n/a	n/a	n/a	n/a	n/a
566646	STOP	n/a	LTP185	ltpFR	7	n/a	n/a	n/a	n/a	n/a	n/a	n/a	n/a	n/a	n/a	n/a	n/a	n/a	n/a	n/a	n/a
567831	WORD	wordpools/wasnorm_wordpool_less_exclusions.txt	LTP185	ltpFR	7	1	0	CHIP	303	n/a	n/a	0	n/a	0	0	0	0.57763671875	0.412841796875	1	upper	amplitud.ttf
570843	START	n/a	LTP185	ltpFR	7	n/a	n/a	n/a	n/a	n/a	n/a	n/a	n/a	n/a	n/a	n/a	n/a	n/a	n/a	n/a	n/a
571895	PROB	n/a	LTP185	ltpFR	7	n/a	n/a	n/a	n/a	n/a	n/a	n/a	19	8	2	9	n/a	n/a	n/a	n/a	n/a
574288	PROB	n/a	LTP185	ltpFR	7	n/a	n/a	n/a	n/a	n/a	n/a	n/a	13	3	5	5	n/a	n/a	n/a	n/a	n/a
578148	STOP	n/a	LTP185	ltpFR	7	n/a	n/a	n/a	n/a	n/a	n/a	n/a	n/a	n/a	n/a	n/a	n/a	n/a	n/a	n/a	n/a
579976	WORD	wordpools/wasnorm_wordpool_less_exclusions.txt	LTP185	ltpFR	7	1	0	ROOM	1206	n/a	n/a	1	n/a	0	0	0	0.57763671875	0.412841796875	1	upper	amplitud.ttf
582988	START	n/a	LTP185	ltpFR	7	n/a	n/a	n/a	n/a	n/a	n/a	n/a	n/a	n/a	n/a	n/a	n/a	n/a	n/a	n/a	n/a
584142	PROB	n/a	LTP185	ltpFR	7	n/a	n/a	n/a	n/a	n/a	n/a	n/a	18	7	4	7	n/a	n/a	n/a	n/a	n/a
586149	PROB	n/a	LTP185	ltpFR	7	n/a	n/a	n/a	n/a	n/a	n/a	n/a	7	2	1	4	n/a	n/a	n/a	n/a	n/a
590988	STOP	n/a	LTP185	ltpFR	7	n/a	n/a	n/a	n/a	n/a	n/a	n/a	n/a	n/a	n/a	n/a	n/a	n/a	n/a	n/a	n/a
591921	WORD	wordpools/wasnorm_wordpool_less_exclusions.txt	LTP185	ltpFR	7	1	0	DRESS	495	n/a	n/a	1	n/a	0	0	0	0.57763671875	0.412841796875	1	upper	amplitud.ttf
594933	START	n/a	LTP185	ltpFR	7	n/a	n/a	n/a	n/a	n/a	n/a	n/a	n/a	n/a	n/a	n/a	n/a	n/a	n/a	n/a	n/a
596087	PROB	n/a	LTP185	ltpFR	7	n/a	n/a	n/a	n/a	n/a	n/a	n/a	12	3	5	4	n/a	n/a	n/a	n/a	n/a
598261	PROB	n/a	LTP185	ltpFR	7	n/a	n/a	n/a	n/a	n/a	n/a	n/a	13	7	3	3	n/a	n/a	n/a	n/a	n/a
600336	PROB	n/a	LTP185	ltpFR	7	n/a	n/a	n/a	n/a	n/a	n/a	n/a	21	4	3	9	n/a	n/a	n/a	n/a	n/a
602908	STOP	n/a	LTP185	ltpFR	7	n/a	n/a	n/a	n/a	n/a	n/a	n/a	n/a	n/a	n/a	n/a	n/a	n/a	n/a	n/a	n/a
604134	WORD	wordpools/wasnorm_wordpool_less_exclusions.txt	LTP185	ltpFR	7	1	0	SIDEWALK	1303	n/a	n/a	1	n/a	0	0	0	0.57763671875	0.412841796875	1	upper	amplitud.ttf
607145	START	n/a	LTP185	ltpFR	7	n/a	n/a	n/a	n/a	n/a	n/a	n/a	n/a	n/a	n/a	n/a	n/a	n/a	n/a	n/a	n/a
608216	PROB	n/a	LTP185	ltpFR	7	n/a	n/a	n/a	n/a	n/a	n/a	n/a	17	5	7	5	n/a	n/a	n/a	n/a	n/a
610257	PROB	n/a	LTP185	ltpFR	7	n/a	n/a	n/a	n/a	n/a	n/a	n/a	11	7	3	1	n/a	n/a	n/a	n/a	n/a
612281	PROB	n/a	LTP185	ltpFR	7	n/a	n/a	n/a	n/a	n/a	n/a	n/a	21	5	8	8	n/a	n/a	n/a	n/a	n/a
614477	STOP	n/a	LTP185	ltpFR	7	n/a	n/a	n/a	n/a	n/a	n/a	n/a	n/a	n/a	n/a	n/a	n/a	n/a	n/a	n/a	n/a
616279	WORD	wordpools/wasnorm_wordpool_less_exclusions.txt	LTP185	ltpFR	7	1	0	SERVANT	1271	n/a	n/a	1	n/a	0	0	0	0.57763671875	0.412841796875	1	upper	amplitud.ttf
619291	START	n/a	LTP185	ltpFR	7	n/a	n/a	n/a	n/a	n/a	n/a	n/a	n/a	n/a	n/a	n/a	n/a	n/a	n/a	n/a	n/a
620144	PROB	n/a	LTP185	ltpFR	7	n/a	n/a	n/a	n/a	n/a	n/a	n/a	22	4	7	9	n/a	n/a	n/a	n/a	n/a
623975	PROB	n/a	LTP185	ltpFR	7	n/a	n/a	n/a	n/a	n/a	n/a	n/a	9	4	1	4	n/a	n/a	n/a	n/a	n/a
626084	STOP	n/a	LTP185	ltpFR	7	n/a	n/a	n/a	n/a	n/a	n/a	n/a	n/a	n/a	n/a	n/a	n/a	n/a	n/a	n/a	n/a
628174	WORD	wordpools/wasnorm_wordpool_less_exclusions.txt	LTP185	ltpFR	7	1	0	CLASS	318	n/a	n/a	1	n/a	0	0	0	0.57763671875	0.412841796875	1	upper	amplitud.ttf
631186	START	n/a	LTP185	ltpFR	7	n/a	n/a	n/a	n/a	n/a	n/a	n/a	n/a	n/a	n/a	n/a	n/a	n/a	n/a	n/a	n/a
632106	PROB	n/a	LTP185	ltpFR	7	n/a	n/a	n/a	n/a	n/a	n/a	n/a	19	8	7	4	n/a	n/a	n/a	n/a	n/a
636121	PROB	n/a	LTP185	ltpFR	7	n/a	n/a	n/a	n/a	n/a	n/a	n/a	12	2	6	4	n/a	n/a	n/a	n/a	n/a
638004	STOP	n/a	LTP185	ltpFR	7	n/a	n/a	n/a	n/a	n/a	n/a	n/a	n/a	n/a	n/a	n/a	n/a	n/a	n/a	n/a	n/a
640069	WORD	wordpools/wasnorm_wordpool_less_exclusions.txt	LTP185	ltpFR	7	1	0	WHALE	1601	n/a	n/a	1	n/a	0	0	0	0.57763671875	0.412841796875	1	upper	amplitud.ttf
643081	START	n/a	LTP185	ltpFR	7	n/a	n/a	n/a	n/a	n/a	n/a	n/a	n/a	n/a	n/a	n/a	n/a	n/a	n/a	n/a	n/a
644235	PROB	n/a	LTP185	ltpFR	7	n/a	n/a	n/a	n/a	n/a	n/a	n/a	21	8	5	8	n/a	n/a	n/a	n/a	n/a
647346	PROB	n/a	LTP185	ltpFR	7	n/a	n/a	n/a	n/a	n/a	n/a	n/a	16	8	2	6	n/a	n/a	n/a	n/a	n/a
649821	STOP	n/a	LTP185	ltpFR	7	n/a	n/a	n/a	n/a	n/a	n/a	n/a	n/a	n/a	n/a	n/a	n/a	n/a	n/a	n/a	n/a
652298	WORD	wordpools/wasnorm_wordpool_less_exclusions.txt	LTP185	ltpFR	7	1	0	TREAD	1499	n/a	n/a	0	n/a	0	0	0	0.57763671875	0.412841796875	1	upper	amplitud.ttf
655310	START	n/a	LTP185	ltpFR	7	n/a	n/a	n/a	n/a	n/a	n/a	n/a	n/a	n/a	n/a	n/a	n/a	n/a	n/a	n/a	n/a
656365	PROB	n/a	LTP185	ltpFR	7	n/a	n/a	n/a	n/a	n/a	n/a	n/a	13	7	4	2	n/a	n/a	n/a	n/a	n/a
658724	PROB	n/a	LTP185	ltpFR	7	n/a	n/a	n/a	n/a	n/a	n/a	n/a	17	8	3	6	n/a	n/a	n/a	n/a	n/a
663310	STOP	n/a	LTP185	ltpFR	7	n/a	n/a	n/a	n/a	n/a	n/a	n/a	n/a	n/a	n/a	n/a	n/a	n/a	n/a	n/a	n/a
665215	REC_START	n/a	LTP185	ltpFR	7	1	n/a	n/a	n/a	n/a	n/a	n/a	n/a	0	0	0	n/a	n/a	n/a	n/a	n/a
666547	REC_WORD	wordpools/wasnorm_wordpool_less_exclusions.txt	LTP185	ltpFR	7	1	0	TREAD	1499	n/a	n/a	0	n/a	0	0	0	n/a	n/a	n/a	n/a	n/a
667175	REC_WORD	wordpools/wasnorm_wordpool_less_exclusions.txt	LTP185	ltpFR	7	1	0	ROOM	1206	n/a	n/a	1	n/a	0	0	0	n/a	n/a	n/a	n/a	n/a
667894	REC_WORD	wordpools/wasnorm_wordpool_less_exclusions.txt	LTP185	ltpFR	7	1	0	DRESS	495	n/a	n/a	1	n/a	0	0	0	n/a	n/a	n/a	n/a	n/a
668502	REC_WORD	wordpools/wasnorm_wordpool_less_exclusions.txt	LTP185	ltpFR	7	1	0	SIDEWALK	1303	n/a	n/a	1	n/a	0	0	0	n/a	n/a	n/a	n/a	n/a
669300	REC_WORD	wordpools/wasnorm_wordpool_less_exclusions.txt	LTP185	ltpFR	7	1	0	WHALE	1601	n/a	n/a	1	n/a	0	0	0	n/a	n/a	n/a	n/a	n/a
670592	REC_WORD	wordpools/wasnorm_wordpool_less_exclusions.txt	LTP185	ltpFR	7	1	0	PLUMBER	1091	n/a	n/a	1	n/a	0	0	0	n/a	n/a	n/a	n/a	n/a
671436	REC_WORD	wordpools/wasnorm_wordpool_less_exclusions.txt	LTP185	ltpFR	7	1	0	SPARROW	1347	n/a	n/a	1	n/a	0	0	0	n/a	n/a	n/a	n/a	n/a
672259	REC_WORD	wordpools/wasnorm_wordpool_less_exclusions.txt	LTP185	ltpFR	7	1	0	KNOT	788	n/a	n/a	0	n/a	0	0	0	n/a	n/a	n/a	n/a	n/a
672723	REC_WORD	wordpools/wasnorm_wordpool_less_exclusions.txt	LTP185	ltpFR	7	1	0	SHOELACE	1289	n/a	n/a	0	n/a	0	0	0	n/a	n/a	n/a	n/a	n/a
673700	REC_WORD	wordpools/wasnorm_wordpool_less_exclusions.txt	LTP185	ltpFR	7	1	0	BAIT	70	n/a	n/a	0	n/a	0	0	0	n/a	n/a	n/a	n/a	n/a
674329	REC_WORD	wordpools/wasnorm_wordpool_less_exclusions.txt	LTP185	ltpFR	7	1	0	BATHTUB	100	n/a	n/a	1	n/a	0	0	0	n/a	n/a	n/a	n/a	n/a
676754	REC_WORD	wordpools/wasnorm_wordpool_less_exclusions.txt	LTP185	ltpFR	7	1	0	ROOM	1206	n/a	n/a	1	n/a	0	0	0	n/a	n/a	n/a	n/a	n/a
800408	START	n/a	LTP185	ltpFR	7	n/a	n/a	n/a	n/a	n/a	n/a	n/a	n/a	n/a	n/a	n/a	n/a	n/a	n/a	n/a	n/a
801917	PROB	n/a	LTP185	ltpFR	7	n/a	n/a	n/a	n/a	n/a	n/a	n/a	19	9	8	2	n/a	n/a	n/a	n/a	n/a
804087	PROB	n/a	LTP185	ltpFR	7	n/a	n/a	n/a	n/a	n/a	n/a	n/a	26	9	8	9	n/a	n/a	n/a	n/a	n/a
807613	STOP	n/a	LTP185	ltpFR	7	n/a	n/a	n/a	n/a	n/a	n/a	n/a	n/a	n/a	n/a	n/a	n/a	n/a	n/a	n/a	n/a
809475	WORD	wordpools/wasnorm_wordpool_less_exclusions.txt	LTP185	ltpFR	7	2	1	STAFF	1365	n/a	n/a	1	n/a	0	0	0	0.422607421875	0.5869140625	0	lower	zerothre.ttf
812487	START	n/a	LTP185	ltpFR	7	n/a	n/a	n/a	n/a	n/a	n/a	n/a	n/a	n/a	n/a	n/a	n/a	n/a	n/a	n/a	n/a
813390	PROB	n/a	LTP185	ltpFR	7	n/a	n/a	n/a	n/a	n/a	n/a	n/a	5	1	1	3	n/a	n/a	n/a	n/a	n/a
815212	PROB	n/a	LTP185	ltpFR	7	n/a	n/a	n/a	n/a	n/a	n/a	n/a	15	2	8	5	n/a	n/a	n/a	n/a	n/a
816753	PROB	n/a	LTP185	ltpFR	7	n/a	n/a	n/a	n/a	n/a	n/a	n/a	16	4	4	8	n/a	n/a	n/a	n/a	n/a
820487	STOP	n/a	LTP185	ltpFR	7	n/a	n/a	n/a	n/a	n/a	n/a	n/a	n/a	n/a	n/a	n/a	n/a	n/a	n/a	n/a	n/a
821520	WORD	wordpools/wasnorm_wordpool_less_exclusions.txt	LTP185	ltpFR	7	2	1	WEB	1598	n/a	n/a	0	n/a	0	0	0	0.422607421875	0.5869140625	0	lower	zerothre.ttf
824532	START	n/a	LTP185	ltpFR	7	n/a	n/a	n/a	n/a	n/a	n/a	n/a	n/a	n/a	n/a	n/a	n/a	n/a	n/a	n/a	n/a
825736	PROB	n/a	LTP185	ltpFR	7	n/a	n/a	n/a	n/a	n/a	n/a	n/a	19	8	2	9	n/a	n/a	n/a	n/a	n/a
827341	PROB	n/a	LTP185	ltpFR	7	n/a	n/a	n/a	n/a	n/a	n/a	n/a	14	9	3	2	n/a	n/a	n/a	n/a	n/a
832532	STOP	n/a	LTP185	ltpFR	7	n/a	n/a	n/a	n/a	n/a	n/a	n/a	n/a	n/a	n/a	n/a	n/a	n/a	n/a	n/a	n/a
833432	WORD	wordpools/wasnorm_wordpool_less_exclusions.txt	LTP185	ltpFR	7	2	1	HIGHWAY	707	n/a	n/a	0	n/a	0	0	0	0.422607421875	0.5869140625	0	lower	zerothre.ttf
836444	START	n/a	LTP185	ltpFR	7	n/a	n/a	n/a	n/a	n/a	n/a	n/a	n/a	n/a	n/a	n/a	n/a	n/a	n/a	n/a	n/a
837447	PROB	n/a	LTP185	ltpFR	7	n/a	n/a	n/a	n/a	n/a	n/a	n/a	12	1	6	5	n/a	n/a	n/a	n/a	n/a
840039	PROB	n/a	LTP185	ltpFR	7	n/a	n/a	n/a	n/a	n/a	n/a	n/a	24	9	9	6	n/a	n/a	n/a	n/a	n/a
844444	STOP	n/a	LTP185	ltpFR	7	n/a	n/a	n/a	n/a	n/a	n/a	n/a	n/a	n/a	n/a	n/a	n/a	n/a	n/a	n/a	n/a
845314	WORD	wordpools/wasnorm_wordpool_less_exclusions.txt	LTP185	ltpFR	7	2	1	PAVEMENT	1028	n/a	n/a	0	n/a	0	0	0	0.422607421875	0.5869140625	0	lower	zerothre.ttf
848321	START	n/a	LTP185	ltpFR	7	n/a	n/a	n/a	n/a	n/a	n/a	n/a	n/a	n/a	n/a	n/a	n/a	n/a	n/a	n/a	n/a
849375	PROB	n/a	LTP185	ltpFR	7	n/a	n/a	n/a	n/a	n/a	n/a	n/a	20	7	8	5	n/a	n/a	n/a	n/a	n/a
852420	PROB	n/a	LTP185	ltpFR	7	n/a	n/a	n/a	n/a	n/a	n/a	n/a	15	6	5	4	n/a	n/a	n/a	n/a	n/a
856321	STOP	n/a	LTP185	ltpFR	7	n/a	n/a	n/a	n/a	n/a	n/a	n/a	n/a	n/a	n/a	n/a	n/a	n/a	n/a	n/a	n/a
857372	WORD	wordpools/wasnorm_wordpool_less_exclusions.txt	LTP185	ltpFR	7	2	1	PEANUT	1032	n/a	n/a	1	n/a	0	0	0	0.422607421875	0.5869140625	0	lower	zerothre.ttf
860384	START	n/a	LTP185	ltpFR	7	n/a	n/a	n/a	n/a	n/a	n/a	n/a	n/a	n/a	n/a	n/a	n/a	n/a	n/a	n/a	n/a
861454	PROB	n/a	LTP185	ltpFR	7	n/a	n/a	n/a	n/a	n/a	n/a	n/a	18	7	4	7	n/a	n/a	n/a	n/a	n/a
863979	PROB	n/a	LTP185	ltpFR	7	n/a	n/a	n/a	n/a	n/a	n/a	n/a	22	8	7	7	n/a	n/a	n/a	n/a	n/a
868384	STOP	n/a	LTP185	ltpFR	7	n/a	n/a	n/a	n/a	n/a	n/a	n/a	n/a	n/a	n/a	n/a	n/a	n/a	n/a	n/a	n/a
869468	WORD	wordpools/wasnorm_wordpool_less_exclusions.txt	LTP185	ltpFR	7	2	1	THREAD	1460	n/a	n/a	0	n/a	0	0	0	0.422607421875	0.5869140625	0	lower	zerothre.ttf
872480	START	n/a	LTP185	ltpFR	7	n/a	n/a	n/a	n/a	n/a	n/a	n/a	n/a	n/a	n/a	n/a	n/a	n/a	n/a	n/a	n/a
873315	PROB	n/a	LTP185	ltpFR	7	n/a	n/a	n/a	n/a	n/a	n/a	n/a	11	7	2	2	n/a	n/a	n/a	n/a	n/a
875289	PROB	n/a	LTP185	ltpFR	7	n/a	n/a	n/a	n/a	n/a	n/a	n/a	13	7	4	2	n/a	n/a	n/a	n/a	n/a
878669	PROB	n/a	LTP185	ltpFR	7	n/a	n/a	n/a	n/a	n/a	n/a	n/a	11	7	1	3	n/a	n/a	n/a	n/a	n/a
880196	STOP	n/a	LTP185	ltpFR	7	n/a	n/a	n/a	n/a	n/a	n/a	n/a	n/a	n/a	n/a	n/a	n/a	n/a	n/a	n/a	n/a
881430	WORD	wordpools/wasnorm_wordpool_less_exclusions.txt	LTP185	ltpFR	7	2	1	FISH	571	n/a	n/a	1	n/a	0	0	0	0.422607421875	0.5869140625	0	lower	zerothre.ttf
884441	START	n/a	LTP185	ltpFR	7	n/a	n/a	n/a	n/a	n/a	n/a	n/a	n/a	n/a	n/a	n/a	n/a	n/a	n/a	n/a	n/a
885327	PROB	n/a	LTP185	ltpFR	7	n/a	n/a	n/a	n/a	n/a	n/a	n/a	20	6	7	7	n/a	n/a	n/a	n/a	n/a
887804	PROB	n/a	LTP185	ltpFR	7	n/a	n/a	n/a	n/a	n/a	n/a	n/a	17	4	4	9	n/a	n/a	n/a	n/a	n/a
892440	STOP	n/a	LTP185	ltpFR	7	n/a	n/a	n/a	n/a	n/a	n/a	n/a	n/a	n/a	n/a	n/a	n/a	n/a	n/a	n/a	n/a
893323	WORD	wordpools/wasnorm_wordpool_less_exclusions.txt	LTP185	ltpFR	7	2	1	ANIMAL	23	n/a	n/a	1	n/a	0	0	0	0.422607421875	0.5869140625	0	lower	zerothre.ttf
896335	START	n/a	LTP185	ltpFR	7	n/a	n/a	n/a	n/a	n/a	n/a	n/a	n/a	n/a	n/a	n/a	n/a	n/a	n/a	n/a	n/a
897238	PROB	n/a	LTP185	ltpFR	7	n/a	n/a	n/a	n/a	n/a	n/a	n/a	20	7	9	4	n/a	n/a	n/a	n/a	n/a
899948	PROB	n/a	LTP185	ltpFR	7	n/a	n/a	n/a	n/a	n/a	n/a	n/a	19	4	8	7	n/a	n/a	n/a	n/a	n/a
903116	STOP	n/a	LTP185	ltpFR	7	n/a	n/a	n/a	n/a	n/a	n/a	n/a	n/a	n/a	n/a	n/a	n/a	n/a	n/a	n/a	n/a
905387	WORD	wordpools/wasnorm_wordpool_less_exclusions.txt	LTP185	ltpFR	7	2	1	MOON	914	n/a	n/a	0	n/a	0	0	0	0.422607421875	0.5869140625	0	lower	zerothre.ttf
908399	START	n/a	LTP185	ltpFR	7	n/a	n/a	n/a	n/a	n/a	n/a	n/a	n/a	n/a	n/a	n/a	n/a	n/a	n/a	n/a	n/a
909250	PROB	n/a	LTP185	ltpFR	7	n/a	n/a	n/a	n/a	n/a	n/a	n/a	18	8	7	3	n/a	n/a	n/a	n/a	n/a
911074	PROB	n/a	LTP185	ltpFR	7	n/a	n/a	n/a	n/a	n/a	n/a	n/a	17	6	5	6	n/a	n/a	n/a	n/a	n/a
916390	STOP	n/a	LTP185	ltpFR	7	n/a	n/a	n/a	n/a	n/a	n/a	n/a	n/a	n/a	n/a	n/a	n/a	n/a	n/a	n/a	n/a
917549	WORD	wordpools/wasnorm_wordpool_less_exclusions.txt	LTP185	ltpFR	7	2	1	ASTRONAUT	51	n/a	n/a	1	n/a	0	0	0	0.422607421875	0.5869140625	0	lower	zerothre.ttf
920561	START	n/a	LTP185	ltpFR	7	n/a	n/a	n/a	n/a	n/a	n/a	n/a	n/a	n/a	n/a	n/a	n/a	n/a	n/a	n/a	n/a
921765	PROB	n/a	LTP185	ltpFR	7	n/a	n/a	n/a	n/a	n/a	n/a	n/a	13	4	4	5	n/a	n/a	n/a	n/a	n/a
923722	PROB	n/a	LTP185	ltpFR	7	n/a	n/a	n/a	n/a	n/a	n/a	n/a	12	1	8	3	n/a	n/a	n/a	n/a	n/a
928561	STOP	n/a	LTP185	ltpFR	7	n/a	n/a	n/a	n/a	n/a	n/a	n/a	n/a	n/a	n/a	n/a	n/a	n/a	n/a	n/a	n/a
929712	WORD	wordpools/wasnorm_wordpool_less_exclusions.txt	LTP185	ltpFR	7	2	1	DAUGHTER	442	n/a	n/a	1	n/a	0	0	0	0.422607421875	0.5869140625	0	lower	zerothre.ttf
932723	START	n/a	LTP185	ltpFR	7	n/a	n/a	n/a	n/a	n/a	n/a	n/a	n/a	n/a	n/a	n/a	n/a	n/a	n/a	n/a	n/a
933710	PROB	n/a	LTP185	ltpFR	7	n/a	n/a	n/a	n/a	n/a	n/a	n/a	24	6	6	6	n/a	n/a	n/a	n/a	n/a
940723	STOP	n/a	LTP185	ltpFR	7	n/a	n/a	n/a	n/a	n/a	n/a	n/a	n/a	n/a	n/a	n/a	n/a	n/a	n/a	n/a	n/a
941857	WORD	wordpools/wasnorm_wordpool_less_exclusions.txt	LTP185	ltpFR	7	2	1	MULE	931	n/a	n/a	1	n/a	0	0	0	0.422607421875	0.5869140625	0	lower	zerothre.ttf
944868	START	n/a	LTP185	ltpFR	7	n/a	n/a	n/a	n/a	n/a	n/a	n/a	n/a	n/a	n/a	n/a	n/a	n/a	n/a	n/a	n/a
946022	PROB	n/a	LTP185	ltpFR	7	n/a	n/a	n/a	n/a	n/a	n/a	n/a	23	7	7	9	n/a	n/a	n/a	n/a	n/a
948214	PROB	n/a	LTP185	ltpFR	7	n/a	n/a	n/a	n/a	n/a	n/a	n/a	6	2	2	2	n/a	n/a	n/a	n/a	n/a
950138	PROB	n/a	LTP185	ltpFR	7	n/a	n/a	n/a	n/a	n/a	n/a	n/a	21	8	9	4	n/a	n/a	n/a	n/a	n/a
952685	STOP	n/a	LTP185	ltpFR	7	n/a	n/a	n/a	n/a	n/a	n/a	n/a	n/a	n/a	n/a	n/a	n/a	n/a	n/a	n/a	n/a
953843	WORD	wordpools/wasnorm_wordpool_less_exclusions.txt	LTP185	ltpFR	7	2	1	SEA	1259	n/a	n/a	0	n/a	0	0	0	0.422607421875	0.5869140625	0	lower	zerothre.ttf
956848	START	n/a	LTP185	ltpFR	7	n/a	n/a	n/a	n/a	n/a	n/a	n/a	n/a	n/a	n/a	n/a	n/a	n/a	n/a	n/a	n/a
957751	PROB	n/a	LTP185	ltpFR	7	n/a	n/a	n/a	n/a	n/a	n/a	n/a	12	4	4	4	n/a	n/a	n/a	n/a	n/a
959808	PROB	n/a	LTP185	ltpFR	7	n/a	n/a	n/a	n/a	n/a	n/a	n/a	19	5	8	6	n/a	n/a	n/a	n/a	n/a
962066	PROB	n/a	LTP185	ltpFR	7	n/a	n/a	n/a	n/a	n/a	n/a	n/a	13	1	9	3	n/a	n/a	n/a	n/a	n/a
963932	STOP	n/a	LTP185	ltpFR	7	n/a	n/a	n/a	n/a	n/a	n/a	n/a	n/a	n/a	n/a	n/a	n/a	n/a	n/a	n/a	n/a
965764	WORD	wordpools/wasnorm_wordpool_less_exclusions.txt	LTP185	ltpFR	7	2	1	INSTRUCTOR	741	n/a	n/a	1	n/a	0	0	0	0.422607421875	0.5869140625	0	lower	zerothre.ttf
968776	START	n/a	LTP185	ltpFR	7	n/a	n/a	n/a	n/a	n/a	n/a	n/a	n/a	n/a	n/a	n/a	n/a	n/a	n/a	n/a	n/a
969699	PROB	n/a	LTP185	ltpFR	7	n/a	n/a	n/a	n/a	n/a	n/a	n/a	18	8	4	6	n/a	n/a	n/a	n/a	n/a
972171	PROB	n/a	LTP185	ltpFR	7	n/a	n/a	n/a	n/a	n/a	n/a	n/a	20	9	5	6	n/a	n/a	n/a	n/a	n/a
974848	PROB	n/a	LTP185	ltpFR	7	n/a	n/a	n/a	n/a	n/a	n/a	n/a	18	8	8	2	n/a	n/a	n/a	n/a	n/a
976525	STOP	n/a	LTP185	ltpFR	7	n/a	n/a	n/a	n/a	n/a	n/a	n/a	n/a	n/a	n/a	n/a	n/a	n/a	n/a	n/a	n/a
977993	WORD	wordpools/wasnorm_wordpool_less_exclusions.txt	LTP185	ltpFR	7	2	1	KNAPSACK	783	n/a	n/a	0	n/a	0	0	0	0.422607421875	0.5869140625	0	lower	zerothre.ttf
981004	START	n/a	LTP185	ltpFR	7	n/a	n/a	n/a	n/a	n/a	n/a	n/a	n/a	n/a	n/a	n/a	n/a	n/a	n/a	n/a	n/a
981941	PROB	n/a	LTP185	ltpFR	7	n/a	n/a	n/a	n/a	n/a	n/a	n/a	19	6	8	5	n/a	n/a	n/a	n/a	n/a
984602	PROB	n/a	LTP185	ltpFR	7	n/a	n/a	n/a	n/a	n/a	n/a	n/a	11	7	1	3	n/a	n/a	n/a	n/a	n/a
989003	STOP	n/a	LTP185	ltpFR	7	n/a	n/a	n/a	n/a	n/a	n/a	n/a	n/a	n/a	n/a	n/a	n/a	n/a	n/a	n/a	n/a
989871	WORD	wordpools/wasnorm_wordpool_less_exclusions.txt	LTP185	ltpFR	7	2	1	NOVEL	960	n/a	n/a	0	n/a	0	0	0	0.422607421875	0.5869140625	0	lower	zerothre.ttf
992882	START	n/a	LTP185	ltpFR	7	n/a	n/a	n/a	n/a	n/a	n/a	n/a	n/a	n/a	n/a	n/a	n/a	n/a	n/a	n/a	n/a
993886	PROB	n/a	LTP185	ltpFR	7	n/a	n/a	n/a	n/a	n/a	n/a	n/a	13	5	5	3	n/a	n/a	n/a	n/a	n/a
995643	PROB	n/a	LTP185	ltpFR	7	n/a	n/a	n/a	n/a	n/a	n/a	n/a	12	1	7	4	n/a	n/a	n/a	n/a	n/a
997349	PROB	n/a	LTP185	ltpFR	7	n/a	n/a	n/a	n/a	n/a	n/a	n/a	15	2	6	7	n/a	n/a	n/a	n/a	n/a
999733	STOP	n/a	LTP185	ltpFR	7	n/a	n/a	n/a	n/a	n/a	n/a	n/a	n/a	n/a	n/a	n/a	n/a	n/a	n/a	n/a	n/a
1002804	REC_START	n/a	LTP185	ltpFR	7	2	n/a	n/a	n/a	n/a	n/a	n/a	n/a	0	0	0	n/a	n/a	n/a	n/a	n/a
1004799	REC_WORD	wordpools/wasnorm_wordpool_less_exclusions.txt	LTP185	ltpFR	7	2	1	INSTRUCTOR	741	n/a	n/a	1	n/a	0	0	0	n/a	n/a	n/a	n/a	n/a
1005666	REC_WORD	wordpools/wasnorm_wordpool_less_exclusions.txt	LTP185	ltpFR	7	2	1	SEA	1259	n/a	n/a	0	n/a	0	0	0	n/a	n/a	n/a	n/a	n/a
1006465	REC_WORD	wordpools/wasnorm_wordpool_less_exclusions.txt	LTP185	ltpFR	7	2	1	KNAPSACK	783	n/a	n/a	0	n/a	0	0	0	n/a	n/a	n/a	n/a	n/a
1007837	REC_WORD	wordpools/wasnorm_wordpool_less_exclusions.txt	LTP185	ltpFR	7	2	1	DAUGHTER	442	n/a	n/a	1	n/a	0	0	0	n/a	n/a	n/a	n/a	n/a
1008616	REC_WORD	wordpools/wasnorm_wordpool_less_exclusions.txt	LTP185	ltpFR	7	2	1	ASTRONAUT	51	n/a	n/a	1	n/a	0	0	0	n/a	n/a	n/a	n/a	n/a
1009301	REC_WORD	wordpools/wasnorm_wordpool_less_exclusions.txt	LTP185	ltpFR	7	2	1	MOON	914	n/a	n/a	0	n/a	0	0	0	n/a	n/a	n/a	n/a	n/a
1011265	REC_WORD	wordpools/wasnorm_wordpool_less_exclusions.txt	LTP185	ltpFR	7	2	1	WEB	1598	n/a	n/a	0	n/a	0	0	0	n/a	n/a	n/a	n/a	n/a
1011854	REC_WORD	wordpools/wasnorm_wordpool_less_exclusions.txt	LTP185	ltpFR	7	2	1	THREAD	1460	n/a	n/a	0	n/a	0	0	0	n/a	n/a	n/a	n/a	n/a
1015420	REC_WORD	wordpools/wasnorm_wordpool_less_exclusions.txt	LTP185	ltpFR	7	2	1	PEANUT	1032	n/a	n/a	1	n/a	0	0	0	n/a	n/a	n/a	n/a	n/a
1015969	REC_WORD	wordpools/wasnorm_wordpool_less_exclusions.txt	LTP185	ltpFR	7	2	1	FISH	571	n/a	n/a	1	n/a	0	0	0	n/a	n/a	n/a	n/a	n/a
1043062	REC_WORD	wordpools/wasnorm_wordpool_less_exclusions.txt	LTP185	ltpFR	7	2	1	ANIMAL	23	n/a	n/a	1	n/a	0	0	0	n/a	n/a	n/a	n/a	n/a
1093964	WORD	wordpools/wasnorm_wordpool_less_exclusions.txt	LTP185	ltpFR	7	3	0	FIELD	562	n/a	n/a	1	n/a	0	0	0	0.57763671875	0.412841796875	1	upper	amplitud.ttf
1097894	WORD	wordpools/wasnorm_wordpool_less_exclusions.txt	LTP185	ltpFR	7	3	0	KITTEN	780	n/a	n/a	0	n/a	0	0	0	0.57763671875	0.412841796875	1	upper	amplitud.ttf
1101781	WORD	wordpools/wasnorm_wordpool_less_exclusions.txt	LTP185	ltpFR	7	3	0	CLAW	319	n/a	n/a	0	n/a	0	0	0	0.57763671875	0.412841796875	1	upper	amplitud.ttf
1105641	WORD	wordpools/wasnorm_wordpool_less_exclusions.txt	LTP185	ltpFR	7	3	0	MATCH	878	n/a	n/a	0	n/a	0	0	0	0.57763671875	0.412841796875	1	upper	amplitud.ttf
1109690	WORD	wordpools/wasnorm_wordpool_less_exclusions.txt	LTP185	ltpFR	7	3	0	CATHEDRAL	260	n/a	n/a	1	n/a	0	0	0	0.57763671875	0.412841796875	1	upper	amplitud.ttf
1113558	WORD	wordpools/wasnorm_wordpool_less_exclusions.txt	LTP185	ltpFR	7	3	0	CHEF	290	n/a	n/a	1	n/a	0	0	0	0.57763671875	0.412841796875	1	upper	amplitud.ttf
1117536	WORD	wordpools/wasnorm_wordpool_less_exclusions.txt	LTP185	ltpFR	7	3	0	MARKET	871	n/a	n/a	1	n/a	0	0	0	0.57763671875	0.412841796875	1	upper	amplitud.ttf
1121601	WORD	wordpools/wasnorm_wordpool_less_exclusions.txt	LTP185	ltpFR	7	3	0	CHEERLEADER	288	n/a	n/a	1	n/a	0	0	0	0.57763671875	0.412841796875	1	upper	amplitud.ttf
1125519	WORD	wordpools/wasnorm_wordpool_less_exclusions.txt	LTP185	ltpFR	7	3	0	MISTER	901	n/a	n/a	1	n/a	0	0	0	0.57763671875	0.412841796875	1	upper	amplitud.ttf
1129615	WORD	wordpools/wasnorm_wordpool_less_exclusions.txt	LTP185	ltpFR	7	3	0	GENTLEMAN	631	n/a	n/a	1	n/a	0	0	0	0.57763671875	0.412841796875	1	upper	amplitud.ttf
1133781	WORD	wordpools/wasnorm_wordpool_less_exclusions.txt	LTP185	ltpFR	7	3	0	STEREO	1378	n/a	n/a	1	n/a	0	0	0	0.57763671875	0.412841796875	1	upper	amplitud.ttf
1137895	WORD	wordpools/wasnorm_wordpool_less_exclusions.txt	LTP185	ltpFR	7	3	0	CHIME	300	n/a	n/a	0	n/a	0	0	0	0.57763671875	0.412841796875	1	upper	amplitud.ttf
1142011	WORD	wordpools/wasnorm_wordpool_less_exclusions.txt	LTP185	ltpFR	7	3	0	LUNCH	849	n/a	n/a	0	n/a	0	0	0	0.57763671875	0.412841796875	1	upper	amplitud.ttf
1145860	WORD	wordpools/wasnorm_wordpool_less_exclusions.txt	LTP185	ltpFR	7	3	0	CHURCH	307	n/a	n/a	1	n/a	0	0	0	0.57763671875	0.412841796875	1	upper	amplitud.ttf
1149907	WORD	wordpools/wasnorm_wordpool_less_exclusions.txt	LTP185	ltpFR	7	3	0	CHAMBER	277	n/a	n/a	1	n/a	0	0	0	0.57763671875	0.412841796875	1	upper	amplitud.ttf
1153906	WORD	wordpools/wasnorm_wordpool_less_exclusions.txt	LTP185	ltpFR	7	3	0	CHESS	294	n/a	n/a	0	n/a	0	0	0	0.57763671875	0.412841796875	1	upper	amplitud.ttf
1156917	START	n/a	LTP185	ltpFR	7	n/a	n/a	n/a	n/a	n/a	n/a	n/a	n/a	n/a	n/a	n/a	n/a	n/a	n/a	n/a	n/a
1158021	PROB	n/a	LTP185	ltpFR	7	n/a	n/a	n/a	n/a	n/a	n/a	n/a	15	9	4	3	n/a	n/a	n/a	n/a	n/a
1161869	PROB	n/a	LTP185	ltpFR	7	n/a	n/a	n/a	n/a	n/a	n/a	n/a	17	7	9	1	n/a	n/a	n/a	n/a	n/a
1163590	STOP	n/a	LTP185	ltpFR	7	n/a	n/a	n/a	n/a	n/a	n/a	n/a	n/a	n/a	n/a	n/a	n/a	n/a	n/a	n/a	n/a
1166722	REC_START	n/a	LTP185	ltpFR	7	3	n/a	n/a	n/a	n/a	n/a	n/a	n/a	0	0	0	n/a	n/a	n/a	n/a	n/a
1168483	REC_WORD	wordpools/wasnorm_wordpool_less_exclusions.txt	LTP185	ltpFR	7	3	0	CHURCH	307	n/a	n/a	1	n/a	0	0	0	n/a	n/a	n/a	n/a	n/a
1169216	REC_WORD	wordpools/wasnorm_wordpool_less_exclusions.txt	LTP185	ltpFR	7	3	0	LUNCH	849	n/a	n/a	0	n/a	0	0	0	n/a	n/a	n/a	n/a	n/a
1170169	REC_WORD	wordpools/wasnorm_wordpool_less_exclusions.txt	LTP185	ltpFR	7	3	0	CHIME	300	n/a	n/a	0	n/a	0	0	0	n/a	n/a	n/a	n/a	n/a
1171152	REC_WORD	wordpools/wasnorm_wordpool_less_exclusions.txt	LTP185	ltpFR	7	3	0	CHAMBER	277	n/a	n/a	1	n/a	0	0	0	n/a	n/a	n/a	n/a	n/a
1172618	REC_WORD	wordpools/wasnorm_wordpool_less_exclusions.txt	LTP185	ltpFR	7	3	0	CHESS	294	n/a	n/a	0	n/a	0	0	0	n/a	n/a	n/a	n/a	n/a
1173701	REC_WORD	wordpools/wasnorm_wordpool_less_exclusions.txt	LTP185	ltpFR	7	3	0	CATHEDRAL	260	n/a	n/a	1	n/a	0	0	0	n/a	n/a	n/a	n/a	n/a
1175008	REC_WORD	wordpools/wasnorm_wordpool_less_exclusions.txt	LTP185	ltpFR	7	3	0	FIELD	562	n/a	n/a	1	n/a	0	0	0	n/a	n/a	n/a	n/a	n/a
1175656	REC_WORD	wordpools/wasnorm_wordpool_less_exclusions.txt	LTP185	ltpFR	7	3	0	KITTEN	780	n/a	n/a	0	n/a	0	0	0	n/a	n/a	n/a	n/a	n/a
1176260	REC_WORD	wordpools/wasnorm_wordpool_less_exclusions.txt	LTP185	ltpFR	7	3	0	CLAW	319	n/a	n/a	0	n/a	0	0	0	n/a	n/a	n/a	n/a	n/a
1177063	REC_WORD	wordpools/wasnorm_wordpool_less_exclusions.txt	LTP185	ltpFR	7	3	0	MATCH	878	n/a	n/a	0	n/a	0	0	0	n/a	n/a	n/a	n/a	n/a
1179767	REC_WORD	wordpools/wasnorm_wordpool_less_exclusions.txt	LTP185	ltpFR	7	3	0	CHEF	290	n/a	n/a	1	n/a	0	0	0	n/a	n/a	n/a	n/a	n/a
1181024	REC_WORD	wordpools/wasnorm_wordpool_less_exclusions.txt	LTP185	ltpFR	7	3	0	MARKET	871	n/a	n/a	1	n/a	0	0	0	n/a	n/a	n/a	n/a	n/a
1182860	REC_WORD	wordpools/wasnorm_wordpool_less_exclusions.txt	LTP185	ltpFR	7	3	0	CHEERLEADER	288	n/a	n/a	1	n/a	0	0	0	n/a	n/a	n/a	n/a	n/a
1183923	REC_WORD	wordpools/wasnorm_wordpool_less_exclusions.txt	LTP185	ltpFR	7	3	0	MISTER	901	n/a	n/a	1	n/a	0	0	0	n/a	n/a	n/a	n/a	n/a
1184686	REC_WORD	wordpools/wasnorm_wordpool_less_exclusions.txt	LTP185	ltpFR	7	3	0	GENTLEMAN	631	n/a	n/a	1	n/a	0	0	0	n/a	n/a	n/a	n/a	n/a
1186117	REC_WORD	wordpools/wasnorm_wordpool_less_exclusions.txt	LTP185	ltpFR	7	3	0	STEREO	1378	n/a	n/a	1	n/a	0	0	0	n/a	n/a	n/a	n/a	n/a
1298569	WORD	wordpools/wasnorm_wordpool_less_exclusions.txt	LTP185	ltpFR	7	4	1	OTTER	986	n/a	n/a	1	n/a	0	0	0	0.422607421875	0.5869140625	0	lower	zerothre.ttf
1302466	WORD	wordpools/wasnorm_wordpool_less_exclusions.txt	LTP185	ltpFR	7	4	1	MONKEY	911	n/a	n/a	1	n/a	0	0	0	0.422607421875	0.5869140625	0	lower	zerothre.ttf
1306431	WORD	wordpools/wasnorm_wordpool_less_exclusions.txt	LTP185	ltpFR	7	4	1	CREATURE	403	n/a	n/a	1	n/a	0	0	0	0.422607421875	0.5869140625	0	lower	zerothre.ttf
1310380	WORD	wordpools/wasnorm_wordpool_less_exclusions.txt	LTP185	ltpFR	7	4	1	DIRECTOR	471	n/a	n/a	1	n/a	0	0	0	0.422607421875	0.5869140625	0	lower	zerothre.ttf
1314562	WORD	wordpools/wasnorm_wordpool_less_exclusions.txt	LTP185	ltpFR	7	4	1	KANGAROO	768	n/a	n/a	1	n/a	0	0	0	0.422607421875	0.5869140625	0	lower	zerothre.ttf
1318443	WORD	wordpools/wasnorm_wordpool_less_exclusions.txt	LTP185	ltpFR	7	4	1	WAVE	1596	n/a	n/a	0	n/a	0	0	0	0.422607421875	0.5869140625	0	lower	zerothre.ttf
1322442	WORD	wordpools/wasnorm_wordpool_less_exclusions.txt	LTP185	ltpFR	7	4	1	TREE	1502	n/a	n/a	1	n/a	0	0	0	0.422607421875	0.5869140625	0	lower	zerothre.ttf
1326658	WORD	wordpools/wasnorm_wordpool_less_exclusions.txt	LTP185	ltpFR	7	4	1	POCKETBOOK	1094	n/a	n/a	0	n/a	0	0	0	0.422607421875	0.5869140625	0	lower	zerothre.ttf
1330673	WORD	wordpools/wasnorm_wordpool_less_exclusions.txt	LTP185	ltpFR	7	4	1	PREACHER	1119	n/a	n/a	1	n/a	0	0	0	0.422607421875	0.5869140625	0	lower	zerothre.ttf
1334521	WORD	wordpools/wasnorm_wordpool_less_exclusions.txt	LTP185	ltpFR	7	4	1	SQUIRREL	1362	n/a	n/a	1	n/a	0	0	0	0.422607421875	0.5869140625	0	lower	zerothre.ttf
1338402	WORD	wordpools/wasnorm_wordpool_less_exclusions.txt	LTP185	ltpFR	7	4	1	PARCEL	1012	n/a	n/a	1	n/a	0	0	0	0.422607421875	0.5869140625	0	lower	zerothre.ttf
1342349	WORD	wordpools/wasnorm_wordpool_less_exclusions.txt	LTP185	ltpFR	7	4	1	GIFT	635	n/a	n/a	1	n/a	0	0	0	0.422607421875	0.5869140625	0	lower	zerothre.ttf
1346466	WORD	wordpools/wasnorm_wordpool_less_exclusions.txt	LTP185	ltpFR	7	4	1	LENS	811	n/a	n/a	0	n/a	0	0	0	0.422607421875	0.5869140625	0	lower	zerothre.ttf
1350347	WORD	wordpools/wasnorm_wordpool_less_exclusions.txt	LTP185	ltpFR	7	4	1	LASH	802	n/a	n/a	0	n/a	0	0	0	0.422607421875	0.5869140625	0	lower	zerothre.ttf
1354361	WORD	wordpools/wasnorm_wordpool_less_exclusions.txt	LTP185	ltpFR	7	4	1	MONK	910	n/a	n/a	1	n/a	0	0	0	0.422607421875	0.5869140625	0	lower	zerothre.ttf
1358561	WORD	wordpools/wasnorm_wordpool_less_exclusions.txt	LTP185	ltpFR	7	4	1	SUIT	1402	n/a	n/a	0	n/a	0	0	0	0.422607421875	0.5869140625	0	lower	zerothre.ttf
1361573	START	n/a	LTP185	ltpFR	7	n/a	n/a	n/a	n/a	n/a	n/a	n/a	n/a	n/a	n/a	n/a	n/a	n/a	n/a	n/a	n/a
1362459	PROB	n/a	LTP185	ltpFR	7	n/a	n/a	n/a	n/a	n/a	n/a	n/a	17	6	9	2	n/a	n/a	n/a	n/a	n/a
1366407	PROB	n/a	LTP185	ltpFR	7	n/a	n/a	n/a	n/a	n/a	n/a	n/a	21	9	6	6	n/a	n/a	n/a	n/a	n/a
1368829	STOP	n/a	LTP185	ltpFR	7	n/a	n/a	n/a	n/a	n/a	n/a	n/a	n/a	n/a	n/a	n/a	n/a	n/a	n/a	n/a	n/a
1371494	REC_START	n/a	LTP185	ltpFR	7	4	n/a	n/a	n/a	n/a	n/a	n/a	n/a	0	0	0	n/a	n/a	n/a	n/a	n/a
1372646	REC_WORD	wordpools/wasnorm_wordpool_less_exclusions.txt	LTP185	ltpFR	7	4	1	MONK	910	n/a	n/a	1	n/a	0	0	0	n/a	n/a	n/a	n/a	n/a
1373359	REC_WORD	wordpools/wasnorm_wordpool_less_exclusions.txt	LTP185	ltpFR	7	4	1	LASH	802	n/a	n/a	0	n/a	0	0	0	n/a	n/a	n/a	n/a	n/a
1373968	REC_WORD	wordpools/wasnorm_wordpool_less_exclusions.txt	LTP185	ltpFR	7	4	1	SUIT	1402	n/a	n/a	0	n/a	0	0	0	n/a	n/a	n/a	n/a	n/a
1375370	REC_WORD	wordpools/wasnorm_wordpool_less_exclusions.txt	LTP185	ltpFR	7	4	1	SQUIRREL	1362	n/a	n/a	1	n/a	0	0	0	n/a	n/a	n/a	n/a	n/a
1376213	REC_WORD	wordpools/wasnorm_wordpool_less_exclusions.txt	LTP185	ltpFR	7	4	1	PARCEL	1012	n/a	n/a	1	n/a	0	0	0	n/a	n/a	n/a	n/a	n/a
1376911	REC_WORD	wordpools/wasnorm_wordpool_less_exclusions.txt	LTP185	ltpFR	7	4	1	GIFT	635	n/a	n/a	1	n/a	0	0	0	n/a	n/a	n/a	n/a	n/a
1377635	REC_WORD	wordpools/wasnorm_wordpool_less_exclusions.txt	LTP185	ltpFR	7	4	1	LENS	811	n/a	n/a	0	n/a	0	0	0	n/a	n/a	n/a	n/a	n/a
1379411	REC_WORD_VV	wordpools/wasnorm_wordpool_less_exclusions.txt	LTP185	ltpFR	7	4	n/a	<>	-1	n/a	n/a	n/a	n/a	0	0	0	n/a	n/a	n/a	n/a	n/a
1382838	REC_WORD	wordpools/wasnorm_wordpool_less_exclusions.txt	LTP185	ltpFR	7	4	1	MONKEY	911	n/a	n/a	1	n/a	0	0	0	n/a	n/a	n/a	n/a	n/a
1383581	REC_WORD	wordpools/wasnorm_wordpool_less_exclusions.txt	LTP185	ltpFR	7	4	1	OTTER	986	n/a	n/a	1	n/a	0	0	0	n/a	n/a	n/a	n/a	n/a
1384140	REC_WORD	wordpools/wasnorm_wordpool_less_exclusions.txt	LTP185	ltpFR	7	4	1	CREATURE	403	n/a	n/a	1	n/a	0	0	0	n/a	n/a	n/a	n/a	n/a
1385322	REC_WORD	wordpools/wasnorm_wordpool_less_exclusions.txt	LTP185	ltpFR	7	4	1	KANGAROO	768	n/a	n/a	1	n/a	0	0	0	n/a	n/a	n/a	n/a	n/a
1386210	REC_WORD	wordpools/wasnorm_wordpool_less_exclusions.txt	LTP185	ltpFR	7	4	1	DIRECTOR	471	n/a	n/a	1	n/a	0	0	0	n/a	n/a	n/a	n/a	n/a
1387203	REC_WORD	wordpools/wasnorm_wordpool_less_exclusions.txt	LTP185	ltpFR	7	4	1	WAVE	1596	n/a	n/a	0	n/a	0	0	0	n/a	n/a	n/a	n/a	n/a
1387981	REC_WORD	wordpools/wasnorm_wordpool_less_exclusions.txt	LTP185	ltpFR	7	4	1	TREE	1502	n/a	n/a	1	n/a	0	0	0	n/a	n/a	n/a	n/a	n/a
1389518	REC_WORD	wordpools/wasnorm_wordpool_less_exclusions.txt	LTP185	ltpFR	7	4	1	SQUIRREL	1362	n/a	n/a	1	n/a	0	0	0	n/a	n/a	n/a	n/a	n/a
1391124	REC_WORD	wordpools/wasnorm_wordpool_less_exclusions.txt	LTP185	ltpFR	7	4	1	PREACHER	1119	n/a	n/a	1	n/a	0	0	0	n/a	n/a	n/a	n/a	n/a
1391778	REC_WORD	wordpools/wasnorm_wordpool_less_exclusions.txt	LTP185	ltpFR	7	4	1	POCKETBOOK	1094	n/a	n/a	0	n/a	0	0	0	n/a	n/a	n/a	n/a	n/a
1496263	START	n/a	LTP185	ltpFR	7	n/a	n/a	n/a	n/a	n/a	n/a	n/a	n/a	n/a	n/a	n/a	n/a	n/a	n/a	n/a	n/a
1497770	PROB	n/a	LTP185	ltpFR	7	n/a	n/a	n/a	n/a	n/a	n/a	n/a	25	8	8	9	n/a	n/a	n/a	n/a	n/a
1500913	PROB	n/a	LTP185	ltpFR	7	n/a	n/a	n/a	n/a	n/a	n/a	n/a	14	9	1	4	n/a	n/a	n/a	n/a	n/a
1503574	STOP	n/a	LTP185	ltpFR	7	n/a	n/a	n/a	n/a	n/a	n/a	n/a	n/a	n/a	n/a	n/a	n/a	n/a	n/a	n/a	n/a
1505268	WORD	wordpools/wasnorm_wordpool_less_exclusions.txt	LTP185	ltpFR	7	5	0	PLAID	1080	n/a	n/a	0	n/a	0	0	0	0.57763671875	0.412841796875	1	upper	amplitud.ttf
1508275	START	n/a	LTP185	ltpFR	7	n/a	n/a	n/a	n/a	n/a	n/a	n/a	n/a	n/a	n/a	n/a	n/a	n/a	n/a	n/a	n/a
1509264	PROB	n/a	LTP185	ltpFR	7	n/a	n/a	n/a	n/a	n/a	n/a	n/a	12	3	7	2	n/a	n/a	n/a	n/a	n/a
1510901	PROB	n/a	LTP185	ltpFR	7	n/a	n/a	n/a	n/a	n/a	n/a	n/a	20	5	7	8	n/a	n/a	n/a	n/a	n/a
1513862	PROB	n/a	LTP185	ltpFR	7	n/a	n/a	n/a	n/a	n/a	n/a	n/a	12	7	1	4	n/a	n/a	n/a	n/a	n/a
1515340	STOP	n/a	LTP185	ltpFR	7	n/a	n/a	n/a	n/a	n/a	n/a	n/a	n/a	n/a	n/a	n/a	n/a	n/a	n/a	n/a	n/a
1517112	WORD	wordpools/wasnorm_wordpool_less_exclusions.txt	LTP185	ltpFR	7	5	0	PAINTING	1005	n/a	n/a	0	n/a	0	0	0	0.57763671875	0.412841796875	1	upper	amplitud.ttf
1520120	START	n/a	LTP185	ltpFR	7	n/a	n/a	n/a	n/a	n/a	n/a	n/a	n/a	n/a	n/a	n/a	n/a	n/a	n/a	n/a	n/a
1521190	PROB	n/a	LTP185	ltpFR	7	n/a	n/a	n/a	n/a	n/a	n/a	n/a	15	3	4	8	n/a	n/a	n/a	n/a	n/a
1524553	PROB	n/a	LTP185	ltpFR	7	n/a	n/a	n/a	n/a	n/a	n/a	n/a	12	1	2	9	n/a	n/a	n/a	n/a	n/a
1526142	PROB	n/a	LTP185	ltpFR	7	n/a	n/a	n/a	n/a	n/a	n/a	n/a	12	7	2	3	n/a	n/a	n/a	n/a	n/a
1527892	STOP	n/a	LTP185	ltpFR	7	n/a	n/a	n/a	n/a	n/a	n/a	n/a	n/a	n/a	n/a	n/a	n/a	n/a	n/a	n/a	n/a
1529103	WORD	wordpools/wasnorm_wordpool_less_exclusions.txt	LTP185	ltpFR	7	5	0	FORT	595	n/a	n/a	1	n/a	0	0	0	0.57763671875	0.412841796875	1	upper	amplitud.ttf
1532115	START	n/a	LTP185	ltpFR	7	n/a	n/a	n/a	n/a	n/a	n/a	n/a	n/a	n/a	n/a	n/a	n/a	n/a	n/a	n/a	n/a
1533302	PROB	n/a	LTP185	ltpFR	7	n/a	n/a	n/a	n/a	n/a	n/a	n/a	7	1	4	2	n/a	n/a	n/a	n/a	n/a
1535310	PROB	n/a	LTP185	ltpFR	7	n/a	n/a	n/a	n/a	n/a	n/a	n/a	10	4	1	5	n/a	n/a	n/a	n/a	n/a
1537853	PROB	n/a	LTP185	ltpFR	7	n/a	n/a	n/a	n/a	n/a	n/a	n/a	16	2	7	7	n/a	n/a	n/a	n/a	n/a
1539948	STOP	n/a	LTP185	ltpFR	7	n/a	n/a	n/a	n/a	n/a	n/a	n/a	n/a	n/a	n/a	n/a	n/a	n/a	n/a	n/a	n/a
1541133	WORD	wordpools/wasnorm_wordpool_less_exclusions.txt	LTP185	ltpFR	7	5	0	PAPER	1011	n/a	n/a	0	n/a	0	0	0	0.57763671875	0.412841796875	1	upper	amplitud.ttf
1544143	START	n/a	LTP185	ltpFR	7	n/a	n/a	n/a	n/a	n/a	n/a	n/a	n/a	n/a	n/a	n/a	n/a	n/a	n/a	n/a	n/a
1545214	PROB	n/a	LTP185	ltpFR	7	n/a	n/a	n/a	n/a	n/a	n/a	n/a	14	2	4	8	n/a	n/a	n/a	n/a	n/a
1548443	PROB	n/a	LTP185	ltpFR	7	n/a	n/a	n/a	n/a	n/a	n/a	n/a	17	6	4	7	n/a	n/a	n/a	n/a	n/a
1551773	STOP	n/a	LTP185	ltpFR	7	n/a	n/a	n/a	n/a	n/a	n/a	n/a	n/a	n/a	n/a	n/a	n/a	n/a	n/a	n/a	n/a
1553261	WORD	wordpools/wasnorm_wordpool_less_exclusions.txt	LTP185	ltpFR	7	5	0	KLEENEX	782	n/a	n/a	0	n/a	0	0	0	0.57763671875	0.412841796875	1	upper	amplitud.ttf
1556272	START	n/a	LTP185	ltpFR	7	n/a	n/a	n/a	n/a	n/a	n/a	n/a	n/a	n/a	n/a	n/a	n/a	n/a	n/a	n/a	n/a
1557377	PROB	n/a	LTP185	ltpFR	7	n/a	n/a	n/a	n/a	n/a	n/a	n/a	17	6	5	6	n/a	n/a	n/a	n/a	n/a
1559669	PROB	n/a	LTP185	ltpFR	7	n/a	n/a	n/a	n/a	n/a	n/a	n/a	12	1	7	4	n/a	n/a	n/a	n/a	n/a
1561274	PROB	n/a	LTP185	ltpFR	7	n/a	n/a	n/a	n/a	n/a	n/a	n/a	19	9	8	2	n/a	n/a	n/a	n/a	n/a
1563941	STOP	n/a	LTP185	ltpFR	7	n/a	n/a	n/a	n/a	n/a	n/a	n/a	n/a	n/a	n/a	n/a	n/a	n/a	n/a	n/a	n/a
1565239	WORD	wordpools/wasnorm_wordpool_less_exclusions.txt	LTP185	ltpFR	7	5	0	DIVER	476	n/a	n/a	1	n/a	0	0	0	0.57763671875	0.412841796875	1	upper	amplitud.ttf
1568251	START	n/a	LTP185	ltpFR	7	n/a	n/a	n/a	n/a	n/a	n/a	n/a	n/a	n/a	n/a	n/a	n/a	n/a	n/a	n/a	n/a
1569288	PROB	n/a	LTP185	ltpFR	7	n/a	n/a	n/a	n/a	n/a	n/a	n/a	17	8	2	7	n/a	n/a	n/a	n/a	n/a
1571145	PROB	n/a	LTP185	ltpFR	7	n/a	n/a	n/a	n/a	n/a	n/a	n/a	24	9	9	6	n/a	n/a	n/a	n/a	n/a
1573605	PROB	n/a	LTP185	ltpFR	7	n/a	n/a	n/a	n/a	n/a	n/a	n/a	15	9	2	4	n/a	n/a	n/a	n/a	n/a
1575669	STOP	n/a	LTP185	ltpFR	7	n/a	n/a	n/a	n/a	n/a	n/a	n/a	n/a	n/a	n/a	n/a	n/a	n/a	n/a	n/a	n/a
1577151	WORD	wordpools/wasnorm_wordpool_less_exclusions.txt	LTP185	ltpFR	7	5	0	SECRETARY	1265	n/a	n/a	1	n/a	0	0	0	0.57763671875	0.412841796875	1	upper	amplitud.ttf
1580163	START	n/a	LTP185	ltpFR	7	n/a	n/a	n/a	n/a	n/a	n/a	n/a	n/a	n/a	n/a	n/a	n/a	n/a	n/a	n/a	n/a
1580982	PROB	n/a	LTP185	ltpFR	7	n/a	n/a	n/a	n/a	n/a	n/a	n/a	13	3	1	9	n/a	n/a	n/a	n/a	n/a
1582672	PROB	n/a	LTP185	ltpFR	7	n/a	n/a	n/a	n/a	n/a	n/a	n/a	16	8	6	2	n/a	n/a	n/a	n/a	n/a
1585466	PROB	n/a	LTP185	ltpFR	7	n/a	n/a	n/a	n/a	n/a	n/a	n/a	12	5	1	6	n/a	n/a	n/a	n/a	n/a
1587398	STOP	n/a	LTP185	ltpFR	7	n/a	n/a	n/a	n/a	n/a	n/a	n/a	n/a	n/a	n/a	n/a	n/a	n/a	n/a	n/a	n/a
1589217	WORD	wordpools/wasnorm_wordpool_less_exclusions.txt	LTP185	ltpFR	7	5	0	TYPIST	1532	n/a	n/a	1	n/a	0	0	0	0.57763671875	0.412841796875	1	upper	amplitud.ttf
1592225	START	n/a	LTP185	ltpFR	7	n/a	n/a	n/a	n/a	n/a	n/a	n/a	n/a	n/a	n/a	n/a	n/a	n/a	n/a	n/a	n/a
1593245	PROB	n/a	LTP185	ltpFR	7	n/a	n/a	n/a	n/a	n/a	n/a	n/a	23	8	9	6	n/a	n/a	n/a	n/a	n/a
1597394	PROB	n/a	LTP185	ltpFR	7	n/a	n/a	n/a	n/a	n/a	n/a	n/a	16	5	3	8	n/a	n/a	n/a	n/a	n/a
1598980	STOP	n/a	LTP185	ltpFR	7	n/a	n/a	n/a	n/a	n/a	n/a	n/a	n/a	n/a	n/a	n/a	n/a	n/a	n/a	n/a	n/a
1601410	WORD	wordpools/wasnorm_wordpool_less_exclusions.txt	LTP185	ltpFR	7	5	0	YARD	1630	n/a	n/a	1	n/a	0	0	0	0.57763671875	0.412841796875	1	upper	amplitud.ttf
1604422	START	n/a	LTP185	ltpFR	7	n/a	n/a	n/a	n/a	n/a	n/a	n/a	n/a	n/a	n/a	n/a	n/a	n/a	n/a	n/a	n/a
1605559	PROB	n/a	LTP185	ltpFR	7	n/a	n/a	n/a	n/a	n/a	n/a	n/a	20	6	8	6	n/a	n/a	n/a	n/a	n/a
1607633	PROB	n/a	LTP185	ltpFR	7	n/a	n/a	n/a	n/a	n/a	n/a	n/a	17	9	7	1	n/a	n/a	n/a	n/a	n/a
1610158	PROB	n/a	LTP185	ltpFR	7	n/a	n/a	n/a	n/a	n/a	n/a	n/a	12	9	1	2	n/a	n/a	n/a	n/a	n/a
1611542	STOP	n/a	LTP185	ltpFR	7	n/a	n/a	n/a	n/a	n/a	n/a	n/a	n/a	n/a	n/a	n/a	n/a	n/a	n/a	n/a	n/a
1613456	WORD	wordpools/wasnorm_wordpool_less_exclusions.txt	LTP185	ltpFR	7	5	0	SCENERY	1247	n/a	n/a	1	n/a	0	0	0	0.57763671875	0.412841796875	1	upper	amplitud.ttf
1616467	START	n/a	LTP185	ltpFR	7	n/a	n/a	n/a	n/a	n/a	n/a	n/a	n/a	n/a	n/a	n/a	n/a	n/a	n/a	n/a	n/a
1617459	PROB	n/a	LTP185	ltpFR	7	n/a	n/a	n/a	n/a	n/a	n/a	n/a	13	1	6	6	n/a	n/a	n/a	n/a	n/a
1619025	PROB	n/a	LTP185	ltpFR	7	n/a	n/a	n/a	n/a	n/a	n/a	n/a	21	8	9	7	n/a	n/a	n/a	n/a	n/a
1624466	STOP	n/a	LTP185	ltpFR	7	n/a	n/a	n/a	n/a	n/a	n/a	n/a	n/a	n/a	n/a	n/a	n/a	n/a	n/a	n/a	n/a
1625567	WORD	wordpools/wasnorm_wordpool_less_exclusions.txt	LTP185	ltpFR	7	5	0	BUS	201	n/a	n/a	1	n/a	0	0	0	0.57763671875	0.412841796875	1	upper	amplitud.ttf
1628579	START	n/a	LTP185	ltpFR	7	n/a	n/a	n/a	n/a	n/a	n/a	n/a	n/a	n/a	n/a	n/a	n/a	n/a	n/a	n/a	n/a
1629616	PROB	n/a	LTP185	ltpFR	7	n/a	n/a	n/a	n/a	n/a	n/a	n/a	22	7	8	7	n/a	n/a	n/a	n/a	n/a
1631724	PROB	n/a	LTP185	ltpFR	7	n/a	n/a	n/a	n/a	n/a	n/a	n/a	18	6	4	8	n/a	n/a	n/a	n/a	n/a
1633915	PROB	n/a	LTP185	ltpFR	7	n/a	n/a	n/a	n/a	n/a	n/a	n/a	10	3	5	2	n/a	n/a	n/a	n/a	n/a
1635789	STOP	n/a	LTP185	ltpFR	7	n/a	n/a	n/a	n/a	n/a	n/a	n/a	n/a	n/a	n/a	n/a	n/a	n/a	n/a	n/a	n/a
1637551	WORD	wordpools/wasnorm_wordpool_less_exclusions.txt	LTP185	ltpFR	7	5	0	TWISTER	1530	n/a	n/a	1	n/a	0	0	0	0.57763671875	0.412841796875	1	upper	amplitud.ttf
1640558	START	n/a	LTP185	ltpFR	7	n/a	n/a	n/a	n/a	n/a	n/a	n/a	n/a	n/a	n/a	n/a	n/a	n/a	n/a	n/a	n/a
1641763	PROB	n/a	LTP185	ltpFR	7	n/a	n/a	n/a	n/a	n/a	n/a	n/a	10	5	3	2	n/a	n/a	n/a	n/a	n/a
1643585	PROB	n/a	LTP185	ltpFR	7	n/a	n/a	n/a	n/a	n/a	n/a	n/a	13	6	3	4	n/a	n/a	n/a	n/a	n/a
1646094	PROB	n/a	LTP185	ltpFR	7	n/a	n/a	n/a	n/a	n/a	n/a	n/a	20	8	8	4	n/a	n/a	n/a	n/a	n/a
1647837	STOP	n/a	LTP185	ltpFR	7	n/a	n/a	n/a	n/a	n/a	n/a	n/a	n/a	n/a	n/a	n/a	n/a	n/a	n/a	n/a	n/a
1649742	WORD	wordpools/wasnorm_wordpool_less_exclusions.txt	LTP185	ltpFR	7	5	0	SPONGE	1355	n/a	n/a	0	n/a	0	0	0	0.57763671875	0.412841796875	1	upper	amplitud.ttf
1652754	START	n/a	LTP185	ltpFR	7	n/a	n/a	n/a	n/a	n/a	n/a	n/a	n/a	n/a	n/a	n/a	n/a	n/a	n/a	n/a	n/a
1653657	PROB	n/a	LTP185	ltpFR	7	n/a	n/a	n/a	n/a	n/a	n/a	n/a	19	7	6	6	n/a	n/a	n/a	n/a	n/a
1655731	PROB	n/a	LTP185	ltpFR	7	n/a	n/a	n/a	n/a	n/a	n/a	n/a	19	7	4	8	n/a	n/a	n/a	n/a	n/a
1659805	STOP	n/a	LTP185	ltpFR	7	n/a	n/a	n/a	n/a	n/a	n/a	n/a	n/a	n/a	n/a	n/a	n/a	n/a	n/a	n/a	n/a
1661620	WORD	wordpools/wasnorm_wordpool_less_exclusions.txt	LTP185	ltpFR	7	5	0	CONTRACTOR	369	n/a	n/a	1	n/a	0	0	0	0.57763671875	0.412841796875	1	upper	amplitud.ttf
1664632	START	n/a	LTP185	ltpFR	7	n/a	n/a	n/a	n/a	n/a	n/a	n/a	n/a	n/a	n/a	n/a	n/a	n/a	n/a	n/a	n/a
1665786	PROB	n/a	LTP185	ltpFR	7	n/a	n/a	n/a	n/a	n/a	n/a	n/a	9	2	1	6	n/a	n/a	n/a	n/a	n/a
1667240	PROB	n/a	LTP185	ltpFR	7	n/a	n/a	n/a	n/a	n/a	n/a	n/a	13	2	6	5	n/a	n/a	n/a	n/a	n/a
1669767	PROB	n/a	LTP185	ltpFR	7	n/a	n/a	n/a	n/a	n/a	n/a	n/a	11	3	7	1	n/a	n/a	n/a	n/a	n/a
1672004	STOP	n/a	LTP185	ltpFR	7	n/a	n/a	n/a	n/a	n/a	n/a	n/a	n/a	n/a	n/a	n/a	n/a	n/a	n/a	n/a	n/a
1673550	WORD	wordpools/wasnorm_wordpool_less_exclusions.txt	LTP185	ltpFR	7	5	0	CHIEF	298	n/a	n/a	1	n/a	0	0	0	0.57763671875	0.412841796875	1	upper	amplitud.ttf
1676560	START	n/a	LTP185	ltpFR	7	n/a	n/a	n/a	n/a	n/a	n/a	n/a	n/a	n/a	n/a	n/a	n/a	n/a	n/a	n/a	n/a
1677664	PROB	n/a	LTP185	ltpFR	7	n/a	n/a	n/a	n/a	n/a	n/a	n/a	11	3	3	2	n/a	n/a	n/a	n/a	n/a
1679219	PROB	n/a	LTP185	ltpFR	7	n/a	n/a	n/a	n/a	n/a	n/a	n/a	26	8	9	9	n/a	n/a	n/a	n/a	n/a
1684557	STOP	n/a	LTP185	ltpFR	7	n/a	n/a	n/a	n/a	n/a	n/a	n/a	n/a	n/a	n/a	n/a	n/a	n/a	n/a	n/a	n/a
1685493	WORD	wordpools/wasnorm_wordpool_less_exclusions.txt	LTP185	ltpFR	7	5	0	POPCORN	1104	n/a	n/a	0	n/a	0	0	0	0.57763671875	0.412841796875	1	upper	amplitud.ttf
1688505	START	n/a	LTP185	ltpFR	7	n/a	n/a	n/a	n/a	n/a	n/a	n/a	n/a	n/a	n/a	n/a	n/a	n/a	n/a	n/a	n/a
1689492	PROB	n/a	LTP185	ltpFR	7	n/a	n/a	n/a	n/a	n/a	n/a	n/a	18	5	8	5	n/a	n/a	n/a	n/a	n/a
1691767	PROB	n/a	LTP185	ltpFR	7	n/a	n/a	n/a	n/a	n/a	n/a	n/a	22	8	5	9	n/a	n/a	n/a	n/a	n/a
1694494	PROB	n/a	LTP185	ltpFR	7	n/a	n/a	n/a	n/a	n/a	n/a	n/a	10	3	1	6	n/a	n/a	n/a	n/a	n/a
1696300	STOP	n/a	LTP185	ltpFR	7	n/a	n/a	n/a	n/a	n/a	n/a	n/a	n/a	n/a	n/a	n/a	n/a	n/a	n/a	n/a	n/a
1698392	REC_START	n/a	LTP185	ltpFR	7	5	n/a	n/a	n/a	n/a	n/a	n/a	n/a	0	0	0	n/a	n/a	n/a	n/a	n/a
1699374	REC_WORD	wordpools/wasnorm_wordpool_less_exclusions.txt	LTP185	ltpFR	7	5	0	CHIEF	298	n/a	n/a	1	n/a	0	0	0	n/a	n/a	n/a	n/a	n/a
1700158	REC_WORD	wordpools/wasnorm_wordpool_less_exclusions.txt	LTP185	ltpFR	7	5	0	TWISTER	1530	n/a	n/a	1	n/a	0	0	0	n/a	n/a	n/a	n/a	n/a
1701909	REC_WORD	wordpools/wasnorm_wordpool_less_exclusions.txt	LTP185	ltpFR	7	5	0	BUS	201	n/a	n/a	1	n/a	0	0	0	n/a	n/a	n/a	n/a	n/a
1703046	REC_WORD	wordpools/wasnorm_wordpool_less_exclusions.txt	LTP185	ltpFR	7	5	0	YARD	1630	n/a	n/a	1	n/a	0	0	0	n/a	n/a	n/a	n/a	n/a
1703567	REC_WORD	wordpools/wasnorm_wordpool_less_exclusions.txt	LTP185	ltpFR	7	5	0	SCENERY	1247	n/a	n/a	1	n/a	0	0	0	n/a	n/a	n/a	n/a	n/a
1705326	REC_WORD	wordpools/wasnorm_wordpool_less_exclusions.txt	LTP185	ltpFR	7	5	0	PAINTING	1005	n/a	n/a	0	n/a	0	0	0	n/a	n/a	n/a	n/a	n/a
1706039	REC_WORD	wordpools/wasnorm_wordpool_less_exclusions.txt	LTP185	ltpFR	7	5	0	PAPER	1011	n/a	n/a	0	n/a	0	0	0	n/a	n/a	n/a	n/a	n/a
1707995	REC_WORD	wordpools/wasnorm_wordpool_less_exclusions.txt	LTP185	ltpFR	7	5	0	PLAID	1080	n/a	n/a	0	n/a	0	0	0	n/a	n/a	n/a	n/a	n/a
1708957	REC_WORD	wordpools/wasnorm_wordpool_less_exclusions.txt	LTP185	ltpFR	7	5	0	KLEENEX	782	n/a	n/a	0	n/a	0	0	0	n/a	n/a	n/a	n/a	n/a
1709970	REC_WORD	wordpools/wasnorm_wordpool_less_exclusions.txt	LTP185	ltpFR	7	5	0	SECRETARY	1265	n/a	n/a	1	n/a	0	0	0	n/a	n/a	n/a	n/a	n/a
1711023	REC_WORD	wordpools/wasnorm_wordpool_less_exclusions.txt	LTP185	ltpFR	7	5	0	TYPIST	1532	n/a	n/a	1	n/a	0	0	0	n/a	n/a	n/a	n/a	n/a
1711786	REC_WORD	wordpools/wasnorm_wordpool_less_exclusions.txt	LTP185	ltpFR	7	5	n/a	DRIVER	499	n/a	n/a	n/a	n/a	0	0	0	n/a	n/a	n/a	n/a	n/a
1713068	REC_WORD_VV	wordpools/wasnorm_wordpool_less_exclusions.txt	LTP185	ltpFR	7	5	n/a	<>	-1	n/a	n/a	n/a	n/a	0	0	0	n/a	n/a	n/a	n/a	n/a
1713223	REC_WORD	wordpools/wasnorm_wordpool_less_exclusions.txt	LTP185	ltpFR	7	5	0	DIVER	476	n/a	n/a	1	n/a	0	0	0	n/a	n/a	n/a	n/a	n/a
1844627	WORD	wordpools/wasnorm_wordpool_less_exclusions.txt	LTP185	ltpFR	7	6	1	CAULIFLOWER	262	n/a	n/a	1	n/a	0	0	0	0.422607421875	0.5869140625	0	lower	zerothre.ttf
1848464	WORD	wordpools/wasnorm_wordpool_less_exclusions.txt	LTP185	ltpFR	7	6	1	CHILD	299	n/a	n/a	1	n/a	0	0	0	0.422607421875	0.5869140625	0	lower	zerothre.ttf
1852523	WORD	wordpools/wasnorm_wordpool_less_exclusions.txt	LTP185	ltpFR	7	6	1	MAJOR	859	n/a	n/a	1	n/a	0	0	0	0.422607421875	0.5869140625	0	lower	zerothre.ttf
1856521	WORD	wordpools/wasnorm_wordpool_less_exclusions.txt	LTP185	ltpFR	7	6	1	GATE	625	n/a	n/a	0	n/a	0	0	0	0.422607421875	0.5869140625	0	lower	zerothre.ttf
1860720	WORD	wordpools/wasnorm_wordpool_less_exclusions.txt	LTP185	ltpFR	7	6	1	PERCH	1048	n/a	n/a	0	n/a	0	0	0	0.422607421875	0.5869140625	0	lower	zerothre.ttf
1864769	WORD	wordpools/wasnorm_wordpool_less_exclusions.txt	LTP185	ltpFR	7	6	1	WORKER	1621	n/a	n/a	1	n/a	0	0	0	0.422607421875	0.5869140625	0	lower	zerothre.ttf
1868650	WORD	wordpools/wasnorm_wordpool_less_exclusions.txt	LTP185	ltpFR	7	6	1	FIST	572	n/a	n/a	1	n/a	0	0	0	0.422607421875	0.5869140625	0	lower	zerothre.ttf
1872749	WORD	wordpools/wasnorm_wordpool_less_exclusions.txt	LTP185	ltpFR	7	6	1	KNUCKLE	789	n/a	n/a	0	n/a	0	0	0	0.422607421875	0.5869140625	0	lower	zerothre.ttf
1876563	WORD	wordpools/wasnorm_wordpool_less_exclusions.txt	LTP185	ltpFR	7	6	1	MOUNTAIN	924	n/a	n/a	0	n/a	0	0	0	0.422607421875	0.5869140625	0	lower	zerothre.ttf
1880645	WORD	wordpools/wasnorm_wordpool_less_exclusions.txt	LTP185	ltpFR	7	6	1	CUSTOMER	430	n/a	n/a	1	n/a	0	0	0	0.422607421875	0.5869140625	0	lower	zerothre.ttf
1884744	WORD	wordpools/wasnorm_wordpool_less_exclusions.txt	LTP185	ltpFR	7	6	1	PIGEON	1065	n/a	n/a	1	n/a	0	0	0	0.422607421875	0.5869140625	0	lower	zerothre.ttf
1888726	WORD	wordpools/wasnorm_wordpool_less_exclusions.txt	LTP185	ltpFR	7	6	1	FOX	598	n/a	n/a	1	n/a	0	0	0	0.422607421875	0.5869140625	0	lower	zerothre.ttf
1892674	WORD	wordpools/wasnorm_wordpool_less_exclusions.txt	LTP185	ltpFR	7	6	1	BUFFALO	186	n/a	n/a	1	n/a	0	0	0	0.422607421875	0.5869140625	0	lower	zerothre.ttf
1896606	WORD	wordpools/wasnorm_wordpool_less_exclusions.txt	LTP185	ltpFR	7	6	1	FEATHER	557	n/a	n/a	1	n/a	0	0	0	0.422607421875	0.5869140625	0	lower	zerothre.ttf
1900570	WORD	wordpools/wasnorm_wordpool_less_exclusions.txt	LTP185	ltpFR	7	6	1	RECEPTIONIST	1174	n/a	n/a	1	n/a	0	0	0	0.422607421875	0.5869140625	0	lower	zerothre.ttf
1904787	WORD	wordpools/wasnorm_wordpool_less_exclusions.txt	LTP185	ltpFR	7	6	1	RABBIT	1152	n/a	n/a	1	n/a	0	0	0	0.422607421875	0.5869140625	0	lower	zerothre.ttf
1910442	REC_START	n/a	LTP185	ltpFR	7	6	n/a	n/a	n/a	n/a	n/a	n/a	n/a	0	0	0	n/a	n/a	n/a	n/a	n/a
1913001	REC_WORD	wordpools/wasnorm_wordpool_less_exclusions.txt	LTP185	ltpFR	7	6	1	RECEPTIONIST	1174	n/a	n/a	1	n/a	0	0	0	n/a	n/a	n/a	n/a	n/a
1913869	REC_WORD	wordpools/wasnorm_wordpool_less_exclusions.txt	LTP185	ltpFR	7	6	1	RABBIT	1152	n/a	n/a	1	n/a	0	0	0	n/a	n/a	n/a	n/a	n/a
1914442	REC_WORD	wordpools/wasnorm_wordpool_less_exclusions.txt	LTP185	ltpFR	7	6	1	BUFFALO	186	n/a	n/a	1	n/a	0	0	0	n/a	n/a	n/a	n/a	n/a
1915125	REC_WORD	wordpools/wasnorm_wordpool_less_exclusions.txt	LTP185	ltpFR	7	6	1	FOX	598	n/a	n/a	1	n/a	0	0	0	n/a	n/a	n/a	n/a	n/a
1915879	REC_WORD	wordpools/wasnorm_wordpool_less_exclusions.txt	LTP185	ltpFR	7	6	1	FEATHER	557	n/a	n/a	1	n/a	0	0	0	n/a	n/a	n/a	n/a	n/a
1916603	REC_WORD	wordpools/wasnorm_wordpool_less_exclusions.txt	LTP185	ltpFR	7	6	1	PIGEON	1065	n/a	n/a	1	n/a	0	0	0	n/a	n/a	n/a	n/a	n/a
1917286	REC_WORD	wordpools/wasnorm_wordpool_less_exclusions.txt	LTP185	ltpFR	7	6	1	PERCH	1048	n/a	n/a	0	n/a	0	0	0	n/a	n/a	n/a	n/a	n/a
1917870	REC_WORD	wordpools/wasnorm_wordpool_less_exclusions.txt	LTP185	ltpFR	7	6	1	GATE	625	n/a	n/a	0	n/a	0	0	0	n/a	n/a	n/a	n/a	n/a
1919102	REC_WORD	wordpools/wasnorm_wordpool_less_exclusions.txt	LTP185	ltpFR	7	6	1	MAJOR	859	n/a	n/a	1	n/a	0	0	0	n/a	n/a	n/a	n/a	n/a
1919840	REC_WORD	wordpools/wasnorm_wordpool_less_exclusions.txt	LTP185	ltpFR	7	6	1	CAULIFLOWER	262	n/a	n/a	1	n/a	0	0	0	n/a	n/a	n/a	n/a	n/a
1920938	REC_WORD	wordpools/wasnorm_wordpool_less_exclusions.txt	LTP185	ltpFR	7	6	1	CHILD	299	n/a	n/a	1	n/a	0	0	0	n/a	n/a	n/a	n/a	n/a
1922185	REC_WORD	wordpools/wasnorm_wordpool_less_exclusions.txt	LTP185	ltpFR	7	6	1	WORKER	1621	n/a	n/a	1	n/a	0	0	0	n/a	n/a	n/a	n/a	n/a
1923143	REC_WORD	wordpools/wasnorm_wordpool_less_exclusions.txt	LTP185	ltpFR	7	6	1	FIST	572	n/a	n/a	1	n/a	0	0	0	n/a	n/a	n/a	n/a	n/a
1924415	REC_WORD	wordpools/wasnorm_wordpool_less_exclusions.txt	LTP185	ltpFR	7	6	1	KNUCKLE	789	n/a	n/a	0	n/a	0	0	0	n/a	n/a	n/a	n/a	n/a
1925552	REC_WORD	wordpools/wasnorm_wordpool_less_exclusions.txt	LTP185	ltpFR	7	6	1	MOUNTAIN	924	n/a	n/a	0	n/a	0	0	0	n/a	n/a	n/a	n/a	n/a
1926495	REC_WORD	wordpools/wasnorm_wordpool_less_exclusions.txt	LTP185	ltpFR	7	6	1	CUSTOMER	430	n/a	n/a	1	n/a	0	0	0	n/a	n/a	n/a	n/a	n/a
2041082	WORD	wordpools/wasnorm_wordpool_less_exclusions.txt	LTP185	ltpFR	7	7	0	RANCH	1166	n/a	n/a	1	n/a	0	0	0	0.57763671875	0.412841796875	1	upper	amplitud.ttf
2045097	WORD	wordpools/wasnorm_wordpool_less_exclusions.txt	LTP185	ltpFR	7	7	0	ROCKET	1202	n/a	n/a	1	n/a	0	0	0	0.57763671875	0.412841796875	1	upper	amplitud.ttf
2049263	WORD	wordpools/wasnorm_wordpool_less_exclusions.txt	LTP185	ltpFR	7	7	0	POWDER	1117	n/a	n/a	0	n/a	0	0	0	0.57763671875	0.412841796875	1	upper	amplitud.ttf
2053282	WORD	wordpools/wasnorm_wordpool_less_exclusions.txt	LTP185	ltpFR	7	7	0	OX	994	n/a	n/a	1	n/a	0	0	0	0.57763671875	0.412841796875	1	upper	amplitud.ttf
2057111	WORD	wordpools/wasnorm_wordpool_less_exclusions.txt	LTP185	ltpFR	7	7	0	STALLION	1369	n/a	n/a	1	n/a	0	0	0	0.57763671875	0.412841796875	1	upper	amplitud.ttf
2061191	WORD	wordpools/wasnorm_wordpool_less_exclusions.txt	LTP185	ltpFR	7	7	0	RATTLE	1170	n/a	n/a	0	n/a	0	0	0	0.57763671875	0.412841796875	1	upper	amplitud.ttf
2065392	WORD	wordpools/wasnorm_wordpool_less_exclusions.txt	LTP185	ltpFR	7	7	0	CHECKERS	285	n/a	n/a	0	n/a	0	0	0	0.57763671875	0.412841796875	1	upper	amplitud.ttf
2069507	WORD	wordpools/wasnorm_wordpool_less_exclusions.txt	LTP185	ltpFR	7	7	0	REFEREE	1178	n/a	n/a	1	n/a	0	0	0	0.57763671875	0.412841796875	1	upper	amplitud.ttf
2073522	WORD	wordpools/wasnorm_wordpool_less_exclusions.txt	LTP185	ltpFR	7	7	0	TROMBONE	1508	n/a	n/a	0	n/a	0	0	0	0.57763671875	0.412841796875	1	upper	amplitud.ttf
2077621	WORD	wordpools/wasnorm_wordpool_less_exclusions.txt	LTP185	ltpFR	7	7	0	FLUTE	585	n/a	n/a	0	n/a	0	0	0	0.57763671875	0.412841796875	1	upper	amplitud.ttf
2081691	WORD	wordpools/wasnorm_wordpool_less_exclusions.txt	LTP185	ltpFR	7	7	0	DEPARTMENT	449	n/a	n/a	1	n/a	0	0	0	0.57763671875	0.412841796875	1	upper	amplitud.ttf
2085835	WORD	wordpools/wasnorm_wordpool_less_exclusions.txt	LTP185	ltpFR	7	7	0	ICE	730	n/a	n/a	0	n/a	0	0	0	0.57763671875	0.412841796875	1	upper	amplitud.ttf
2089850	WORD	wordpools/wasnorm_wordpool_less_exclusions.txt	LTP185	ltpFR	7	7	0	BAND	78	n/a	n/a	1	n/a	0	0	0	0.57763671875	0.412841796875	1	upper	amplitud.ttf
2093849	WORD	wordpools/wasnorm_wordpool_less_exclusions.txt	LTP185	ltpFR	7	7	0	SPACE	1345	n/a	n/a	1	n/a	0	0	0	0.57763671875	0.412841796875	1	upper	amplitud.ttf
2097730	WORD	wordpools/wasnorm_wordpool_less_exclusions.txt	LTP185	ltpFR	7	7	0	SUNRISE	1407	n/a	n/a	1	n/a	0	0	0	0.57763671875	0.412841796875	1	upper	amplitud.ttf
2101678	WORD	wordpools/wasnorm_wordpool_less_exclusions.txt	LTP185	ltpFR	7	7	0	PITCHFORK	1078	n/a	n/a	1	n/a	0	0	0	0.57763671875	0.412841796875	1	upper	amplitud.ttf
2104690	START	n/a	LTP185	ltpFR	7	n/a	n/a	n/a	n/a	n/a	n/a	n/a	n/a	n/a	n/a	n/a	n/a	n/a	n/a	n/a	n/a
2105627	PROB	n/a	LTP185	ltpFR	7	n/a	n/a	n/a	n/a	n/a	n/a	n/a	16	1	7	8	n/a	n/a	n/a	n/a	n/a
2108286	PROB	n/a	LTP185	ltpFR	7	n/a	n/a	n/a	n/a	n/a	n/a	n/a	14	7	6	1	n/a	n/a	n/a	n/a	n/a
2112690	STOP	n/a	LTP185	ltpFR	7	n/a	n/a	n/a	n/a	n/a	n/a	n/a	n/a	n/a	n/a	n/a	n/a	n/a	n/a	n/a	n/a
2114544	REC_START	n/a	LTP185	ltpFR	7	7	n/a	n/a	n/a	n/a	n/a	n/a	n/a	0	0	0	n/a	n/a	n/a	n/a	n/a
2116040	REC_WORD	wordpools/wasnorm_wordpool_less_exclusions.txt	LTP185	ltpFR	7	7	0	BAND	78	n/a	n/a	1	n/a	0	0	0	n/a	n/a	n/a	n/a	n/a
2116679	REC_WORD	wordpools/wasnorm_wordpool_less_exclusions.txt	LTP185	ltpFR	7	7	0	SUNRISE	1407	n/a	n/a	1	n/a	0	0	0	n/a	n/a	n/a	n/a	n/a
2117722	REC_WORD	wordpools/wasnorm_wordpool_less_exclusions.txt	LTP185	ltpFR	7	7	n/a	ROOF	1205	n/a	n/a	n/a	n/a	0	0	0	n/a	n/a	n/a	n/a	n/a
2120750	REC_WORD	wordpools/wasnorm_wordpool_less_exclusions.txt	LTP185	ltpFR	7	7	0	SPACE	1345	n/a	n/a	1	n/a	0	0	0	n/a	n/a	n/a	n/a	n/a
2123079	REC_WORD	wordpools/wasnorm_wordpool_less_exclusions.txt	LTP185	ltpFR	7	7	0	ROCKET	1202	n/a	n/a	1	n/a	0	0	0	n/a	n/a	n/a	n/a	n/a
2123907	REC_WORD	wordpools/wasnorm_wordpool_less_exclusions.txt	LTP185	ltpFR	7	7	0	POWDER	1117	n/a	n/a	0	n/a	0	0	0	n/a	n/a	n/a	n/a	n/a
2126122	REC_WORD	wordpools/wasnorm_wordpool_less_exclusions.txt	LTP185	ltpFR	7	7	0	RANCH	1166	n/a	n/a	1	n/a	0	0	0	n/a	n/a	n/a	n/a	n/a
2127105	REC_WORD	wordpools/wasnorm_wordpool_less_exclusions.txt	LTP185	ltpFR	7	7	0	STALLION	1369	n/a	n/a	1	n/a	0	0	0	n/a	n/a	n/a	n/a	n/a
2128083	REC_WORD	wordpools/wasnorm_wordpool_less_exclusions.txt	LTP185	ltpFR	7	7	0	OX	994	n/a	n/a	1	n/a	0	0	0	n/a	n/a	n/a	n/a	n/a
2128981	REC_WORD	wordpools/wasnorm_wordpool_less_exclusions.txt	LTP185	ltpFR	7	7	0	RATTLE	1170	n/a	n/a	0	n/a	0	0	0	n/a	n/a	n/a	n/a	n/a
2130074	REC_WORD	wordpools/wasnorm_wordpool_less_exclusions.txt	LTP185	ltpFR	7	7	0	CHECKERS	285	n/a	n/a	0	n/a	0	0	0	n/a	n/a	n/a	n/a	n/a
2130752	REC_WORD	wordpools/wasnorm_wordpool_less_exclusions.txt	LTP185	ltpFR	7	7	0	REFEREE	1178	n/a	n/a	1	n/a	0	0	0	n/a	n/a	n/a	n/a	n/a
2138095	REC_WORD	wordpools/wasnorm_wordpool_less_exclusions.txt	LTP185	ltpFR	7	7	0	ICE	730	n/a	n/a	0	n/a	0	0	0	n/a	n/a	n/a	n/a	n/a
2139208	REC_WORD	wordpools/wasnorm_wordpool_less_exclusions.txt	LTP185	ltpFR	7	7	0	TROMBONE	1508	n/a	n/a	0	n/a	0	0	0	n/a	n/a	n/a	n/a	n/a
2140075	REC_WORD	wordpools/wasnorm_wordpool_less_exclusions.txt	LTP185	ltpFR	7	7	0	FLUTE	585	n/a	n/a	0	n/a	0	0	0	n/a	n/a	n/a	n/a	n/a
2141637	REC_WORD	wordpools/wasnorm_wordpool_less_exclusions.txt	LTP185	ltpFR	7	7	0	BAND	78	n/a	n/a	1	n/a	0	0	0	n/a	n/a	n/a	n/a	n/a
2146232	REC_WORD	wordpools/wasnorm_wordpool_less_exclusions.txt	LTP185	ltpFR	7	7	0	DEPARTMENT	449	n/a	n/a	1	n/a	0	0	0	n/a	n/a	n/a	n/a	n/a
2230503	START	n/a	LTP185	ltpFR	7	n/a	n/a	n/a	n/a	n/a	n/a	n/a	n/a	n/a	n/a	n/a	n/a	n/a	n/a	n/a	n/a
2232018	PROB	n/a	LTP185	ltpFR	7	n/a	n/a	n/a	n/a	n/a	n/a	n/a	14	5	8	1	n/a	n/a	n/a	n/a	n/a
2234495	PROB	n/a	LTP185	ltpFR	7	n/a	n/a	n/a	n/a	n/a	n/a	n/a	18	4	5	9	n/a	n/a	n/a	n/a	n/a
2236117	PROB	n/a	LTP185	ltpFR	7	n/a	n/a	n/a	n/a	n/a	n/a	n/a	16	1	7	8	n/a	n/a	n/a	n/a	n/a
2238225	PROB	n/a	LTP185	ltpFR	7	n/a	n/a	n/a	n/a	n/a	n/a	n/a	11	8	1	2	n/a	n/a	n/a	n/a	n/a
2239749	PROB	n/a	LTP185	ltpFR	7	n/a	n/a	n/a	n/a	n/a	n/a	n/a	21	9	6	6	n/a	n/a	n/a	n/a	n/a
2242123	PROB	n/a	LTP185	ltpFR	7	n/a	n/a	n/a	n/a	n/a	n/a	n/a	21	9	2	9	n/a	n/a	n/a	n/a	n/a
2246502	STOP	n/a	LTP185	ltpFR	7	n/a	n/a	n/a	n/a	n/a	n/a	n/a	n/a	n/a	n/a	n/a	n/a	n/a	n/a	n/a	n/a
2247511	WORD	wordpools/wasnorm_wordpool_less_exclusions.txt	LTP185	ltpFR	7	8	0	MILK	895	n/a	n/a	0	n/a	0	0	0	0.57763671875	0.412841796875	1	upper	amplitud.ttf
2250523	START	n/a	LTP185	ltpFR	7	n/a	n/a	n/a	n/a	n/a	n/a	n/a	n/a	n/a	n/a	n/a	n/a	n/a	n/a	n/a	n/a
2251677	PROB	n/a	LTP185	ltpFR	7	n/a	n/a	n/a	n/a	n/a	n/a	n/a	10	4	1	5	n/a	n/a	n/a	n/a	n/a
2253332	PROB	n/a	LTP185	ltpFR	7	n/a	n/a	n/a	n/a	n/a	n/a	n/a	16	8	7	1	n/a	n/a	n/a	n/a	n/a
2255290	PROB	n/a	LTP185	ltpFR	7	n/a	n/a	n/a	n/a	n/a	n/a	n/a	7	1	4	2	n/a	n/a	n/a	n/a	n/a
2256879	PROB	n/a	LTP185	ltpFR	7	n/a	n/a	n/a	n/a	n/a	n/a	n/a	13	3	4	8	n/a	n/a	n/a	n/a	n/a
2259004	PROB	n/a	LTP185	ltpFR	7	n/a	n/a	n/a	n/a	n/a	n/a	n/a	16	1	7	9	n/a	n/a	n/a	n/a	n/a
2260911	PROB	n/a	LTP185	ltpFR	7	n/a	n/a	n/a	n/a	n/a	n/a	n/a	18	5	9	4	n/a	n/a	n/a	n/a	n/a
2264442	PROB	n/a	LTP185	ltpFR	7	n/a	n/a	n/a	n/a	n/a	n/a	n/a	8	4	3	1	n/a	n/a	n/a	n/a	n/a
2265901	STOP	n/a	LTP185	ltpFR	7	n/a	n/a	n/a	n/a	n/a	n/a	n/a	n/a	n/a	n/a	n/a	n/a	n/a	n/a	n/a	n/a
2267708	WORD	wordpools/wasnorm_wordpool_less_exclusions.txt	LTP185	ltpFR	7	8	0	CLIMBER	323	n/a	n/a	1	n/a	0	0	0	0.57763671875	0.412841796875	1	upper	amplitud.ttf
2270716	START	n/a	LTP185	ltpFR	7	n/a	n/a	n/a	n/a	n/a	n/a	n/a	n/a	n/a	n/a	n/a	n/a	n/a	n/a	n/a	n/a
2271869	PROB	n/a	LTP185	ltpFR	7	n/a	n/a	n/a	n/a	n/a	n/a	n/a	16	3	4	9	n/a	n/a	n/a	n/a	n/a
2273526	PROB	n/a	LTP185	ltpFR	7	n/a	n/a	n/a	n/a	n/a	n/a	n/a	21	5	6	9	n/a	n/a	n/a	n/a	n/a
2275684	PROB	n/a	LTP185	ltpFR	7	n/a	n/a	n/a	n/a	n/a	n/a	n/a	13	4	5	2	n/a	n/a	n/a	n/a	n/a
2279280	PROB	n/a	LTP185	ltpFR	7	n/a	n/a	n/a	n/a	n/a	n/a	n/a	20	6	8	6	n/a	n/a	n/a	n/a	n/a
2282543	PROB	n/a	LTP185	ltpFR	7	n/a	n/a	n/a	n/a	n/a	n/a	n/a	7	5	1	1	n/a	n/a	n/a	n/a	n/a
2284065	PROB	n/a	LTP185	ltpFR	7	n/a	n/a	n/a	n/a	n/a	n/a	n/a	20	2	9	9	n/a	n/a	n/a	n/a	n/a
2285877	STOP	n/a	LTP185	ltpFR	7	n/a	n/a	n/a	n/a	n/a	n/a	n/a	n/a	n/a	n/a	n/a	n/a	n/a	n/a	n/a	n/a
2287850	WORD	wordpools/wasnorm_wordpool_less_exclusions.txt	LTP185	ltpFR	7	8	0	SCALPEL	1243	n/a	n/a	0	n/a	0	0	0	0.57763671875	0.412841796875	1	upper	amplitud.ttf
2290859	START	n/a	LTP185	ltpFR	7	n/a	n/a	n/a	n/a	n/a	n/a	n/a	n/a	n/a	n/a	n/a	n/a	n/a	n/a	n/a	n/a
2292045	PROB	n/a	LTP185	ltpFR	7	n/a	n/a	n/a	n/a	n/a	n/a	n/a	13	6	5	7	n/a	n/a	n/a	n/a	n/a
2295173	PROB	n/a	LTP185	ltpFR	7	n/a	n/a	n/a	n/a	n/a	n/a	n/a	10	2	2	6	n/a	n/a	n/a	n/a	n/a
2298118	PROB	n/a	LTP185	ltpFR	7	n/a	n/a	n/a	n/a	n/a	n/a	n/a	12	4	6	2	n/a	n/a	n/a	n/a	n/a
2300058	PROB	n/a	LTP185	ltpFR	7	n/a	n/a	n/a	n/a	n/a	n/a	n/a	16	7	1	8	n/a	n/a	n/a	n/a	n/a
2301715	PROB	n/a	LTP185	ltpFR	7	n/a	n/a	n/a	n/a	n/a	n/a	n/a	16	6	2	8	n/a	n/a	n/a	n/a	n/a
2303939	PROB	n/a	LTP185	ltpFR	7	n/a	n/a	n/a	n/a	n/a	n/a	n/a	13	1	9	3	n/a	n/a	n/a	n/a	n/a
2305830	STOP	n/a	LTP185	ltpFR	7	n/a	n/a	n/a	n/a	n/a	n/a	n/a	n/a	n/a	n/a	n/a	n/a	n/a	n/a	n/a	n/a
2307705	WORD	wordpools/wasnorm_wordpool_less_exclusions.txt	LTP185	ltpFR	7	8	0	FORK	594	n/a	n/a	0	n/a	0	0	0	0.57763671875	0.412841796875	1	upper	amplitud.ttf
2310717	START	n/a	LTP185	ltpFR	7	n/a	n/a	n/a	n/a	n/a	n/a	n/a	n/a	n/a	n/a	n/a	n/a	n/a	n/a	n/a	n/a
2311804	PROB	n/a	LTP185	ltpFR	7	n/a	n/a	n/a	n/a	n/a	n/a	n/a	6	2	1	3	n/a	n/a	n/a	n/a	n/a
2313877	PROB	n/a	LTP185	ltpFR	7	n/a	n/a	n/a	n/a	n/a	n/a	n/a	12	6	2	4	n/a	n/a	n/a	n/a	n/a
2315752	PROB	n/a	LTP185	ltpFR	7	n/a	n/a	n/a	n/a	n/a	n/a	n/a	11	8	1	2	n/a	n/a	n/a	n/a	n/a
2317558	PROB	n/a	LTP185	ltpFR	7	n/a	n/a	n/a	n/a	n/a	n/a	n/a	14	7	4	3	n/a	n/a	n/a	n/a	n/a
2320234	PROB	n/a	LTP185	ltpFR	7	n/a	n/a	n/a	n/a	n/a	n/a	n/a	12	3	4	4	n/a	n/a	n/a	n/a	n/a
2323514	PROB	n/a	LTP185	ltpFR	7	n/a	n/a	n/a	n/a	n/a	n/a	n/a	19	9	3	7	n/a	n/a	n/a	n/a	n/a
2325917	STOP	n/a	LTP185	ltpFR	7	n/a	n/a	n/a	n/a	n/a	n/a	n/a	n/a	n/a	n/a	n/a	n/a	n/a	n/a	n/a	n/a
2327546	WORD	wordpools/wasnorm_wordpool_less_exclusions.txt	LTP185	ltpFR	7	8	0	FUDGE	611	n/a	n/a	0	n/a	0	0	0	0.57763671875	0.412841796875	1	upper	amplitud.ttf
2330558	START	n/a	LTP185	ltpFR	7	n/a	n/a	n/a	n/a	n/a	n/a	n/a	n/a	n/a	n/a	n/a	n/a	n/a	n/a	n/a	n/a
2331481	PROB	n/a	LTP185	ltpFR	7	n/a	n/a	n/a	n/a	n/a	n/a	n/a	17	9	5	3	n/a	n/a	n/a	n/a	n/a
2333820	PROB	n/a	LTP185	ltpFR	7	n/a	n/a	n/a	n/a	n/a	n/a	n/a	19	6	8	7	n/a	n/a	n/a	n/a	n/a
2336630	PROB	n/a	LTP185	ltpFR	7	n/a	n/a	n/a	n/a	n/a	n/a	n/a	10	5	3	2	n/a	n/a	n/a	n/a	n/a
2338621	PROB	n/a	LTP185	ltpFR	7	n/a	n/a	n/a	n/a	n/a	n/a	n/a	23	6	8	9	n/a	n/a	n/a	n/a	n/a
2341933	PROB	n/a	LTP185	ltpFR	7	n/a	n/a	n/a	n/a	n/a	n/a	n/a	17	2	9	5	n/a	n/a	n/a	n/a	n/a
2344175	PROB	n/a	LTP185	ltpFR	7	n/a	n/a	n/a	n/a	n/a	n/a	n/a	10	3	2	5	n/a	n/a	n/a	n/a	n/a
2346141	STOP	n/a	LTP185	ltpFR	7	n/a	n/a	n/a	n/a	n/a	n/a	n/a	n/a	n/a	n/a	n/a	n/a	n/a	n/a	n/a	n/a
2347605	WORD	wordpools/wasnorm_wordpool_less_exclusions.txt	LTP185	ltpFR	7	8	0	ANT	25	n/a	n/a	0	n/a	0	0	0	0.57763671875	0.412841796875	1	upper	amplitud.ttf
2350634	START	n/a	LTP185	ltpFR	7	n/a	n/a	n/a	n/a	n/a	n/a	n/a	n/a	n/a	n/a	n/a	n/a	n/a	n/a	n/a	n/a
2351721	PROB	n/a	LTP185	ltpFR	7	n/a	n/a	n/a	n/a	n/a	n/a	n/a	24	9	6	9	n/a	n/a	n/a	n/a	n/a
2355015	PROB	n/a	LTP185	ltpFR	7	n/a	n/a	n/a	n/a	n/a	n/a	n/a	19	7	3	9	n/a	n/a	n/a	n/a	n/a
2356889	PROB	n/a	LTP185	ltpFR	7	n/a	n/a	n/a	n/a	n/a	n/a	n/a	12	2	8	2	n/a	n/a	n/a	n/a	n/a
2358412	PROB	n/a	LTP185	ltpFR	7	n/a	n/a	n/a	n/a	n/a	n/a	n/a	13	3	4	4	n/a	n/a	n/a	n/a	n/a
2361306	PROB	n/a	LTP185	ltpFR	7	n/a	n/a	n/a	n/a	n/a	n/a	n/a	22	9	7	8	n/a	n/a	n/a	n/a	n/a
2365646	STOP	n/a	LTP185	ltpFR	7	n/a	n/a	n/a	n/a	n/a	n/a	n/a	n/a	n/a	n/a	n/a	n/a	n/a	n/a	n/a	n/a
2367815	WORD	wordpools/wasnorm_wordpool_less_exclusions.txt	LTP185	ltpFR	7	8	0	MACARONI	851	n/a	n/a	0	n/a	0	0	0	0.57763671875	0.412841796875	1	upper	amplitud.ttf
2370827	START	n/a	LTP185	ltpFR	7	n/a	n/a	n/a	n/a	n/a	n/a	n/a	n/a	n/a	n/a	n/a	n/a	n/a	n/a	n/a	n/a
2371716	PROB	n/a	LTP185	ltpFR	7	n/a	n/a	n/a	n/a	n/a	n/a	n/a	18	6	7	5	n/a	n/a	n/a	n/a	n/a
2374473	PROB	n/a	LTP185	ltpFR	7	n/a	n/a	n/a	n/a	n/a	n/a	n/a	24	9	6	9	n/a	n/a	n/a	n/a	n/a
2377501	PROB	n/a	LTP185	ltpFR	7	n/a	n/a	n/a	n/a	n/a	n/a	n/a	6	2	3	1	n/a	n/a	n/a	n/a	n/a
2379810	PROB	n/a	LTP185	ltpFR	7	n/a	n/a	n/a	n/a	n/a	n/a	n/a	16	3	9	4	n/a	n/a	n/a	n/a	n/a
2382721	PROB	n/a	LTP185	ltpFR	7	n/a	n/a	n/a	n/a	n/a	n/a	n/a	23	9	5	9	n/a	n/a	n/a	n/a	n/a
2386827	STOP	n/a	LTP185	ltpFR	7	n/a	n/a	n/a	n/a	n/a	n/a	n/a	n/a	n/a	n/a	n/a	n/a	n/a	n/a	n/a	n/a
2387973	WORD	wordpools/wasnorm_wordpool_less_exclusions.txt	LTP185	ltpFR	7	8	0	EMERALD	528	n/a	n/a	0	n/a	0	0	0	0.57763671875	0.412841796875	1	upper	amplitud.ttf
2390985	START	n/a	LTP185	ltpFR	7	n/a	n/a	n/a	n/a	n/a	n/a	n/a	n/a	n/a	n/a	n/a	n/a	n/a	n/a	n/a	n/a
2392090	PROB	n/a	LTP185	ltpFR	7	n/a	n/a	n/a	n/a	n/a	n/a	n/a	13	5	2	6	n/a	n/a	n/a	n/a	n/a
2393712	PROB	n/a	LTP185	ltpFR	7	n/a	n/a	n/a	n/a	n/a	n/a	n/a	4	1	2	1	n/a	n/a	n/a	n/a	n/a
2395669	PROB	n/a	LTP185	ltpFR	7	n/a	n/a	n/a	n/a	n/a	n/a	n/a	12	6	2	4	n/a	n/a	n/a	n/a	n/a
2398748	PROB	n/a	LTP185	ltpFR	7	n/a	n/a	n/a	n/a	n/a	n/a	n/a	12	5	5	2	n/a	n/a	n/a	n/a	n/a
2400202	PROB	n/a	LTP185	ltpFR	7	n/a	n/a	n/a	n/a	n/a	n/a	n/a	17	1	9	7	n/a	n/a	n/a	n/a	n/a
2402378	PROB	n/a	LTP185	ltpFR	7	n/a	n/a	n/a	n/a	n/a	n/a	n/a	6	1	2	3	n/a	n/a	n/a	n/a	n/a
2404620	PROB	n/a	LTP185	ltpFR	7	n/a	n/a	n/a	n/a	n/a	n/a	n/a	20	6	7	7	n/a	n/a	n/a	n/a	n/a
2406949	STOP	n/a	LTP185	ltpFR	7	n/a	n/a	n/a	n/a	n/a	n/a	n/a	n/a	n/a	n/a	n/a	n/a	n/a	n/a	n/a	n/a
2408166	WORD	wordpools/wasnorm_wordpool_less_exclusions.txt	LTP185	ltpFR	7	8	0	ROUGE	1213	n/a	n/a	0	n/a	0	0	0	0.57763671875	0.412841796875	1	upper	amplitud.ttf
2411178	START	n/a	LTP185	ltpFR	7	n/a	n/a	n/a	n/a	n/a	n/a	n/a	n/a	n/a	n/a	n/a	n/a	n/a	n/a	n/a	n/a
2412047	PROB	n/a	LTP185	ltpFR	7	n/a	n/a	n/a	n/a	n/a	n/a	n/a	7	3	1	3	n/a	n/a	n/a	n/a	n/a
2413503	PROB	n/a	LTP185	ltpFR	7	n/a	n/a	n/a	n/a	n/a	n/a	n/a	8	4	2	2	n/a	n/a	n/a	n/a	n/a
2415326	PROB	n/a	LTP185	ltpFR	7	n/a	n/a	n/a	n/a	n/a	n/a	n/a	10	2	6	2	n/a	n/a	n/a	n/a	n/a
2417552	PROB	n/a	LTP185	ltpFR	7	n/a	n/a	n/a	n/a	n/a	n/a	n/a	14	7	2	5	n/a	n/a	n/a	n/a	n/a
2420530	PROB	n/a	LTP185	ltpFR	7	n/a	n/a	n/a	n/a	n/a	n/a	n/a	21	2	9	9	n/a	n/a	n/a	n/a	n/a
2423273	PROB	n/a	LTP185	ltpFR	7	n/a	n/a	n/a	n/a	n/a	n/a	n/a	19	3	9	7	n/a	n/a	n/a	n/a	n/a
2426630	STOP	n/a	LTP185	ltpFR	7	n/a	n/a	n/a	n/a	n/a	n/a	n/a	n/a	n/a	n/a	n/a	n/a	n/a	n/a	n/a	n/a
2428024	WORD	wordpools/wasnorm_wordpool_less_exclusions.txt	LTP185	ltpFR	7	8	0	LIMB	822	n/a	n/a	1	n/a	0	0	0	0.57763671875	0.412841796875	1	upper	amplitud.ttf
2431036	START	n/a	LTP185	ltpFR	7	n/a	n/a	n/a	n/a	n/a	n/a	n/a	n/a	n/a	n/a	n/a	n/a	n/a	n/a	n/a	n/a
2431922	PROB	n/a	LTP185	ltpFR	7	n/a	n/a	n/a	n/a	n/a	n/a	n/a	9	3	2	4	n/a	n/a	n/a	n/a	n/a
2433763	PROB	n/a	LTP185	ltpFR	7	n/a	n/a	n/a	n/a	n/a	n/a	n/a	9	3	4	2	n/a	n/a	n/a	n/a	n/a
2436708	PROB	n/a	LTP185	ltpFR	7	n/a	n/a	n/a	n/a	n/a	n/a	n/a	18	4	2	9	n/a	n/a	n/a	n/a	n/a
2439435	PROB	n/a	LTP185	ltpFR	7	n/a	n/a	n/a	n/a	n/a	n/a	n/a	17	4	9	4	n/a	n/a	n/a	n/a	n/a
2443768	PROB	n/a	LTP185	ltpFR	7	n/a	n/a	n/a	n/a	n/a	n/a	n/a	6	1	2	3	n/a	n/a	n/a	n/a	n/a
2447036	STOP	n/a	LTP185	ltpFR	7	n/a	n/a	n/a	n/a	n/a	n/a	n/a	n/a	n/a	n/a	n/a	n/a	n/a	n/a	n/a	n/a
2447966	WORD	wordpools/wasnorm_wordpool_less_exclusions.txt	LTP185	ltpFR	7	8	0	BISON	131	n/a	n/a	1	n/a	0	0	0	0.57763671875	0.412841796875	1	upper	amplitud.ttf
2450978	START	n/a	LTP185	ltpFR	7	n/a	n/a	n/a	n/a	n/a	n/a	n/a	n/a	n/a	n/a	n/a	n/a	n/a	n/a	n/a	n/a
2452165	PROB	n/a	LTP185	ltpFR	7	n/a	n/a	n/a	n/a	n/a	n/a	n/a	15	9	5	1	n/a	n/a	n/a	n/a	n/a
2454323	PROB	n/a	LTP185	ltpFR	7	n/a	n/a	n/a	n/a	n/a	n/a	n/a	12	9	1	2	n/a	n/a	n/a	n/a	n/a
2456899	PROB	n/a	LTP185	ltpFR	7	n/a	n/a	n/a	n/a	n/a	n/a	n/a	18	7	7	4	n/a	n/a	n/a	n/a	n/a
2459124	PROB	n/a	LTP185	ltpFR	7	n/a	n/a	n/a	n/a	n/a	n/a	n/a	19	4	9	6	n/a	n/a	n/a	n/a	n/a
2461316	PROB	n/a	LTP185	ltpFR	7	n/a	n/a	n/a	n/a	n/a	n/a	n/a	8	6	1	1	n/a	n/a	n/a	n/a	n/a
2462839	PROB	n/a	LTP185	ltpFR	7	n/a	n/a	n/a	n/a	n/a	n/a	n/a	19	6	5	8	n/a	n/a	n/a	n/a	n/a
2465422	STOP	n/a	LTP185	ltpFR	7	n/a	n/a	n/a	n/a	n/a	n/a	n/a	n/a	n/a	n/a	n/a	n/a	n/a	n/a	n/a	n/a
2468058	WORD	wordpools/wasnorm_wordpool_less_exclusions.txt	LTP185	ltpFR	7	8	0	TRAY	1498	n/a	n/a	1	n/a	0	0	0	0.57763671875	0.412841796875	1	upper	amplitud.ttf
2471070	START	n/a	LTP185	ltpFR	7	n/a	n/a	n/a	n/a	n/a	n/a	n/a	n/a	n/a	n/a	n/a	n/a	n/a	n/a	n/a	n/a
2471944	PROB	n/a	LTP185	ltpFR	7	n/a	n/a	n/a	n/a	n/a	n/a	n/a	25	8	8	9	n/a	n/a	n/a	n/a	n/a
2475688	PROB	n/a	LTP185	ltpFR	7	n/a	n/a	n/a	n/a	n/a	n/a	n/a	16	8	6	2	n/a	n/a	n/a	n/a	n/a
2477695	PROB	n/a	LTP185	ltpFR	7	n/a	n/a	n/a	n/a	n/a	n/a	n/a	9	6	2	1	n/a	n/a	n/a	n/a	n/a
2479653	PROB	n/a	LTP185	ltpFR	7	n/a	n/a	n/a	n/a	n/a	n/a	n/a	23	6	9	8	n/a	n/a	n/a	n/a	n/a
2482564	PROB	n/a	LTP185	ltpFR	7	n/a	n/a	n/a	n/a	n/a	n/a	n/a	19	4	7	8	n/a	n/a	n/a	n/a	n/a
2487061	STOP	n/a	LTP185	ltpFR	7	n/a	n/a	n/a	n/a	n/a	n/a	n/a	n/a	n/a	n/a	n/a	n/a	n/a	n/a	n/a	n/a
2487966	WORD	wordpools/wasnorm_wordpool_less_exclusions.txt	LTP185	ltpFR	7	8	0	CHAIR	274	n/a	n/a	1	n/a	0	0	0	0.57763671875	0.412841796875	1	upper	amplitud.ttf
2490978	START	n/a	LTP185	ltpFR	7	n/a	n/a	n/a	n/a	n/a	n/a	n/a	n/a	n/a	n/a	n/a	n/a	n/a	n/a	n/a	n/a
2491881	PROB	n/a	LTP185	ltpFR	7	n/a	n/a	n/a	n/a	n/a	n/a	n/a	13	4	2	7	n/a	n/a	n/a	n/a	n/a
2494006	PROB	n/a	LTP185	ltpFR	7	n/a	n/a	n/a	n/a	n/a	n/a	n/a	14	2	3	9	n/a	n/a	n/a	n/a	n/a
2496248	PROB	n/a	LTP185	ltpFR	7	n/a	n/a	n/a	n/a	n/a	n/a	n/a	14	5	5	4	n/a	n/a	n/a	n/a	n/a
2497855	PROB	n/a	LTP185	ltpFR	7	n/a	n/a	n/a	n/a	n/a	n/a	n/a	9	5	1	3	n/a	n/a	n/a	n/a	n/a
2500699	PROB	n/a	LTP185	ltpFR	7	n/a	n/a	n/a	n/a	n/a	n/a	n/a	22	9	8	5	n/a	n/a	n/a	n/a	n/a
2503610	PROB	n/a	LTP185	ltpFR	7	n/a	n/a	n/a	n/a	n/a	n/a	n/a	13	3	3	7	n/a	n/a	n/a	n/a	n/a
2505590	STOP	n/a	LTP185	ltpFR	7	n/a	n/a	n/a	n/a	n/a	n/a	n/a	n/a	n/a	n/a	n/a	n/a	n/a	n/a	n/a	n/a
2507975	WORD	wordpools/wasnorm_wordpool_less_exclusions.txt	LTP185	ltpFR	7	8	0	RECIPE	1175	n/a	n/a	0	n/a	0	0	0	0.57763671875	0.412841796875	1	upper	amplitud.ttf
2510987	START	n/a	LTP185	ltpFR	7	n/a	n/a	n/a	n/a	n/a	n/a	n/a	n/a	n/a	n/a	n/a	n/a	n/a	n/a	n/a	n/a
2512141	PROB	n/a	LTP185	ltpFR	7	n/a	n/a	n/a	n/a	n/a	n/a	n/a	7	2	4	1	n/a	n/a	n/a	n/a	n/a
2514098	PROB	n/a	LTP185	ltpFR	7	n/a	n/a	n/a	n/a	n/a	n/a	n/a	16	4	3	9	n/a	n/a	n/a	n/a	n/a
2517395	PROB	n/a	LTP185	ltpFR	7	n/a	n/a	n/a	n/a	n/a	n/a	n/a	12	2	9	1	n/a	n/a	n/a	n/a	n/a
2518883	PROB	n/a	LTP185	ltpFR	7	n/a	n/a	n/a	n/a	n/a	n/a	n/a	13	5	8	5	n/a	n/a	n/a	n/a	n/a
2521460	PROB	n/a	LTP185	ltpFR	7	n/a	n/a	n/a	n/a	n/a	n/a	n/a	16	8	6	2	n/a	n/a	n/a	n/a	n/a
2525438	STOP	n/a	LTP185	ltpFR	7	n/a	n/a	n/a	n/a	n/a	n/a	n/a	n/a	n/a	n/a	n/a	n/a	n/a	n/a	n/a	n/a
2528084	WORD	wordpools/wasnorm_wordpool_less_exclusions.txt	LTP185	ltpFR	7	8	0	PICNIC	1060	n/a	n/a	1	n/a	0	0	0	0.57763671875	0.412841796875	1	upper	amplitud.ttf
2531096	START	n/a	LTP185	ltpFR	7	n/a	n/a	n/a	n/a	n/a	n/a	n/a	n/a	n/a	n/a	n/a	n/a	n/a	n/a	n/a	n/a
2531955	PROB	n/a	LTP185	ltpFR	7	n/a	n/a	n/a	n/a	n/a	n/a	n/a	13	9	3	1	n/a	n/a	n/a	n/a	n/a
2533640	PROB	n/a	LTP185	ltpFR	7	n/a	n/a	n/a	n/a	n/a	n/a	n/a	13	8	6	1	n/a	n/a	n/a	n/a	n/a
2536282	PROB	n/a	LTP185	ltpFR	7	n/a	n/a	n/a	n/a	n/a	n/a	n/a	18	5	8	5	n/a	n/a	n/a	n/a	n/a
2539226	PROB	n/a	LTP185	ltpFR	7	n/a	n/a	n/a	n/a	n/a	n/a	n/a	4	1	2	1	n/a	n/a	n/a	n/a	n/a
2541837	PROB	n/a	LTP185	ltpFR	7	n/a	n/a	n/a	n/a	n/a	n/a	n/a	9	1	2	6	n/a	n/a	n/a	n/a	n/a
2544564	PROB	n/a	LTP185	ltpFR	7	n/a	n/a	n/a	n/a	n/a	n/a	n/a	17	1	7	9	n/a	n/a	n/a	n/a	n/a
2546710	STOP	n/a	LTP185	ltpFR	7	n/a	n/a	n/a	n/a	n/a	n/a	n/a	n/a	n/a	n/a	n/a	n/a	n/a	n/a	n/a	n/a
2548160	WORD	wordpools/wasnorm_wordpool_less_exclusions.txt	LTP185	ltpFR	7	8	0	ARM	38	n/a	n/a	1	n/a	0	0	0	0.57763671875	0.412841796875	1	upper	amplitud.ttf
2551172	START	n/a	LTP185	ltpFR	7	n/a	n/a	n/a	n/a	n/a	n/a	n/a	n/a	n/a	n/a	n/a	n/a	n/a	n/a	n/a	n/a
2552342	PROB	n/a	LTP185	ltpFR	7	n/a	n/a	n/a	n/a	n/a	n/a	n/a	19	5	8	6	n/a	n/a	n/a	n/a	n/a
2555522	PROB	n/a	LTP185	ltpFR	7	n/a	n/a	n/a	n/a	n/a	n/a	n/a	22	4	9	9	n/a	n/a	n/a	n/a	n/a
2559688	PROB	n/a	LTP185	ltpFR	7	n/a	n/a	n/a	n/a	n/a	n/a	n/a	23	5	2	6	n/a	n/a	n/a	n/a	n/a
2562899	PROB	n/a	LTP185	ltpFR	7	n/a	n/a	n/a	n/a	n/a	n/a	n/a	11	3	3	5	n/a	n/a	n/a	n/a	n/a
2566189	STOP	n/a	LTP185	ltpFR	7	n/a	n/a	n/a	n/a	n/a	n/a	n/a	n/a	n/a	n/a	n/a	n/a	n/a	n/a	n/a	n/a
2568922	REC_START	n/a	LTP185	ltpFR	7	8	n/a	n/a	n/a	n/a	n/a	n/a	n/a	0	0	0	n/a	n/a	n/a	n/a	n/a
2570608	REC_WORD	wordpools/wasnorm_wordpool_less_exclusions.txt	LTP185	ltpFR	7	8	0	ROUGE	1213	n/a	n/a	0	n/a	0	0	0	n/a	n/a	n/a	n/a	n/a
2571216	REC_WORD_VV	wordpools/wasnorm_wordpool_less_exclusions.txt	LTP185	ltpFR	7	8	n/a	<>	-1	n/a	n/a	n/a	n/a	0	0	0	n/a	n/a	n/a	n/a	n/a
2572216	REC_WORD_VV	wordpools/wasnorm_wordpool_less_exclusions.txt	LTP185	ltpFR	7	8	n/a	<>	-1	n/a	n/a	n/a	n/a	0	0	0	n/a	n/a	n/a	n/a	n/a
2572818	REC_WORD	wordpools/wasnorm_wordpool_less_exclusions.txt	LTP185	ltpFR	7	8	0	EMERALD	528	n/a	n/a	0	n/a	0	0	0	n/a	n/a	n/a	n/a	n/a
2573526	REC_WORD	wordpools/wasnorm_wordpool_less_exclusions.txt	LTP185	ltpFR	7	8	0	BISON	131	n/a	n/a	1	n/a	0	0	0	n/a	n/a	n/a	n/a	n/a
2575861	REC_WORD	wordpools/wasnorm_wordpool_less_exclusions.txt	LTP185	ltpFR	7	8	0	PICNIC	1060	n/a	n/a	1	n/a	0	0	0	n/a	n/a	n/a	n/a	n/a
2576404	REC_WORD	wordpools/wasnorm_wordpool_less_exclusions.txt	LTP185	ltpFR	7	8	0	RECIPE	1175	n/a	n/a	0	n/a	0	0	0	n/a	n/a	n/a	n/a	n/a
2577467	REC_WORD	wordpools/wasnorm_wordpool_less_exclusions.txt	LTP185	ltpFR	7	8	0	MILK	895	n/a	n/a	0	n/a	0	0	0	n/a	n/a	n/a	n/a	n/a
2578051	REC_WORD	wordpools/wasnorm_wordpool_less_exclusions.txt	LTP185	ltpFR	7	8	0	CLIMBER	323	n/a	n/a	1	n/a	0	0	0	n/a	n/a	n/a	n/a	n/a
2578779	REC_WORD	wordpools/wasnorm_wordpool_less_exclusions.txt	LTP185	ltpFR	7	8	0	FORK	594	n/a	n/a	0	n/a	0	0	0	n/a	n/a	n/a	n/a	n/a
2579363	REC_WORD	wordpools/wasnorm_wordpool_less_exclusions.txt	LTP185	ltpFR	7	8	0	SCALPEL	1243	n/a	n/a	0	n/a	0	0	0	n/a	n/a	n/a	n/a	n/a
2580121	REC_WORD	wordpools/wasnorm_wordpool_less_exclusions.txt	LTP185	ltpFR	7	8	0	FUDGE	611	n/a	n/a	0	n/a	0	0	0	n/a	n/a	n/a	n/a	n/a
2582466	REC_WORD	wordpools/wasnorm_wordpool_less_exclusions.txt	LTP185	ltpFR	7	8	0	LIMB	822	n/a	n/a	1	n/a	0	0	0	n/a	n/a	n/a	n/a	n/a
2583035	REC_WORD	wordpools/wasnorm_wordpool_less_exclusions.txt	LTP185	ltpFR	7	8	0	ARM	38	n/a	n/a	1	n/a	0	0	0	n/a	n/a	n/a	n/a	n/a
2599432	REC_WORD	wordpools/wasnorm_wordpool_less_exclusions.txt	LTP185	ltpFR	7	8	0	BISON	131	n/a	n/a	1	n/a	0	0	0	n/a	n/a	n/a	n/a	n/a
2743161	WORD	wordpools/wasnorm_wordpool_less_exclusions.txt	LTP185	ltpFR	7	9	1	SICKLE	1302	n/a	n/a	0	n/a	0	0	0	0.422607421875	0.5869140625	0	lower	zerothre.ttf
2747043	WORD	wordpools/wasnorm_wordpool_less_exclusions.txt	LTP185	ltpFR	7	9	1	VEHICLE	1553	n/a	n/a	0	n/a	0	0	0	0.422607421875	0.5869140625	0	lower	zerothre.ttf
2751058	WORD	wordpools/wasnorm_wordpool_less_exclusions.txt	LTP185	ltpFR	7	9	1	BADGE	68	n/a	n/a	0	n/a	0	0	0	0.422607421875	0.5869140625	0	lower	zerothre.ttf
2755006	WORD	wordpools/wasnorm_wordpool_less_exclusions.txt	LTP185	ltpFR	7	9	1	SCALLOP	1242	n/a	n/a	0	n/a	0	0	0	0.422607421875	0.5869140625	0	lower	zerothre.ttf
2758921	WORD	wordpools/wasnorm_wordpool_less_exclusions.txt	LTP185	ltpFR	7	9	1	TUNA	1518	n/a	n/a	1	n/a	0	0	0	0.422607421875	0.5869140625	0	lower	zerothre.ttf
2762902	WORD	wordpools/wasnorm_wordpool_less_exclusions.txt	LTP185	ltpFR	7	9	1	GUARD	667	n/a	n/a	1	n/a	0	0	0	0.422607421875	0.5869140625	0	lower	zerothre.ttf
2766768	WORD	wordpools/wasnorm_wordpool_less_exclusions.txt	LTP185	ltpFR	7	9	1	WORLD	1622	n/a	n/a	1	n/a	0	0	0	0.422607421875	0.5869140625	0	lower	zerothre.ttf
2770883	WORD	wordpools/wasnorm_wordpool_less_exclusions.txt	LTP185	ltpFR	7	9	1	VAN	1548	n/a	n/a	0	n/a	0	0	0	0.422607421875	0.5869140625	0	lower	zerothre.ttf
2774998	WORD	wordpools/wasnorm_wordpool_less_exclusions.txt	LTP185	ltpFR	7	9	1	WHEAT	1602	n/a	n/a	0	n/a	0	0	0	0.422607421875	0.5869140625	0	lower	zerothre.ttf
2778830	WORD	wordpools/wasnorm_wordpool_less_exclusions.txt	LTP185	ltpFR	7	9	1	MONASTERY	907	n/a	n/a	0	n/a	0	0	0	0.422607421875	0.5869140625	0	lower	zerothre.ttf
2782961	WORD	wordpools/wasnorm_wordpool_less_exclusions.txt	LTP185	ltpFR	7	9	1	CAGE	218	n/a	n/a	0	n/a	0	0	0	0.422607421875	0.5869140625	0	lower	zerothre.ttf
2786993	WORD	wordpools/wasnorm_wordpool_less_exclusions.txt	LTP185	ltpFR	7	9	1	ROOMMATE	1207	n/a	n/a	1	n/a	0	0	0	0.422607421875	0.5869140625	0	lower	zerothre.ttf
2791209	WORD	wordpools/wasnorm_wordpool_less_exclusions.txt	LTP185	ltpFR	7	9	1	FOE	587	n/a	n/a	1	n/a	0	0	0	0.422607421875	0.5869140625	0	lower	zerothre.ttf
2795325	WORD	wordpools/wasnorm_wordpool_less_exclusions.txt	LTP185	ltpFR	7	9	1	GOBLIN	645	n/a	n/a	1	n/a	0	0	0	0.422607421875	0.5869140625	0	lower	zerothre.ttf
2799391	WORD	wordpools/wasnorm_wordpool_less_exclusions.txt	LTP185	ltpFR	7	9	1	SHEET	1279	n/a	n/a	0	n/a	0	0	0	0.422607421875	0.5869140625	0	lower	zerothre.ttf
2803490	WORD	wordpools/wasnorm_wordpool_less_exclusions.txt	LTP185	ltpFR	7	9	1	GUITAR	670	n/a	n/a	0	n/a	0	0	0	0.422607421875	0.5869140625	0	lower	zerothre.ttf
2806501	START	n/a	LTP185	ltpFR	7	n/a	n/a	n/a	n/a	n/a	n/a	n/a	n/a	n/a	n/a	n/a	n/a	n/a	n/a	n/a	n/a
2807623	PROB	n/a	LTP185	ltpFR	7	n/a	n/a	n/a	n/a	n/a	n/a	n/a	14	6	3	5	n/a	n/a	n/a	n/a	n/a
2809797	PROB	n/a	LTP185	ltpFR	7	n/a	n/a	n/a	n/a	n/a	n/a	n/a	9	3	5	1	n/a	n/a	n/a	n/a	n/a
2811487	PROB	n/a	LTP185	ltpFR	7	n/a	n/a	n/a	n/a	n/a	n/a	n/a	8	5	1	2	n/a	n/a	n/a	n/a	n/a
2813159	PROB	n/a	LTP185	ltpFR	7	n/a	n/a	n/a	n/a	n/a	n/a	n/a	17	6	9	2	n/a	n/a	n/a	n/a	n/a
2815166	PROB	n/a	LTP185	ltpFR	7	n/a	n/a	n/a	n/a	n/a	n/a	n/a	14	8	3	3	n/a	n/a	n/a	n/a	n/a
2817107	PROB	n/a	LTP185	ltpFR	7	n/a	n/a	n/a	n/a	n/a	n/a	n/a	15	7	1	7	n/a	n/a	n/a	n/a	n/a
2822501	STOP	n/a	LTP185	ltpFR	7	n/a	n/a	n/a	n/a	n/a	n/a	n/a	n/a	n/a	n/a	n/a	n/a	n/a	n/a	n/a	n/a
2824352	REC_START	n/a	LTP185	ltpFR	7	9	n/a	n/a	n/a	n/a	n/a	n/a	n/a	0	0	0	n/a	n/a	n/a	n/a	n/a
2825659	REC_WORD	wordpools/wasnorm_wordpool_less_exclusions.txt	LTP185	ltpFR	7	9	1	CAGE	218	n/a	n/a	0	n/a	0	0	0	n/a	n/a	n/a	n/a	n/a
2826367	REC_WORD	wordpools/wasnorm_wordpool_less_exclusions.txt	LTP185	ltpFR	7	9	1	ROOMMATE	1207	n/a	n/a	1	n/a	0	0	0	n/a	n/a	n/a	n/a	n/a
2826976	REC_WORD	wordpools/wasnorm_wordpool_less_exclusions.txt	LTP185	ltpFR	7	9	1	FOE	587	n/a	n/a	1	n/a	0	0	0	n/a	n/a	n/a	n/a	n/a
2827694	REC_WORD	wordpools/wasnorm_wordpool_less_exclusions.txt	LTP185	ltpFR	7	9	1	GOBLIN	645	n/a	n/a	1	n/a	0	0	0	n/a	n/a	n/a	n/a	n/a
2828283	REC_WORD	wordpools/wasnorm_wordpool_less_exclusions.txt	LTP185	ltpFR	7	9	1	SHEET	1279	n/a	n/a	0	n/a	0	0	0	n/a	n/a	n/a	n/a	n/a
2828996	REC_WORD	wordpools/wasnorm_wordpool_less_exclusions.txt	LTP185	ltpFR	7	9	1	GUITAR	670	n/a	n/a	0	n/a	0	0	0	n/a	n/a	n/a	n/a	n/a
2831156	REC_WORD	wordpools/wasnorm_wordpool_less_exclusions.txt	LTP185	ltpFR	7	9	1	MONASTERY	907	n/a	n/a	0	n/a	0	0	0	n/a	n/a	n/a	n/a	n/a
2832049	REC_WORD	wordpools/wasnorm_wordpool_less_exclusions.txt	LTP185	ltpFR	7	9	1	WHEAT	1602	n/a	n/a	0	n/a	0	0	0	n/a	n/a	n/a	n/a	n/a
2833576	REC_WORD	wordpools/wasnorm_wordpool_less_exclusions.txt	LTP185	ltpFR	7	9	1	SICKLE	1302	n/a	n/a	0	n/a	0	0	0	n/a	n/a	n/a	n/a	n/a
2834359	REC_WORD	wordpools/wasnorm_wordpool_less_exclusions.txt	LTP185	ltpFR	7	9	1	BADGE	68	n/a	n/a	0	n/a	0	0	0	n/a	n/a	n/a	n/a	n/a
2835721	REC_WORD	wordpools/wasnorm_wordpool_less_exclusions.txt	LTP185	ltpFR	7	9	1	VEHICLE	1553	n/a	n/a	0	n/a	0	0	0	n/a	n/a	n/a	n/a	n/a
2837706	REC_WORD	wordpools/wasnorm_wordpool_less_exclusions.txt	LTP185	ltpFR	7	9	1	VAN	1548	n/a	n/a	0	n/a	0	0	0	n/a	n/a	n/a	n/a	n/a
2841762	REC_WORD	wordpools/wasnorm_wordpool_less_exclusions.txt	LTP185	ltpFR	7	9	1	TUNA	1518	n/a	n/a	1	n/a	0	0	0	n/a	n/a	n/a	n/a	n/a
2842426	REC_WORD	wordpools/wasnorm_wordpool_less_exclusions.txt	LTP185	ltpFR	7	9	1	SCALLOP	1242	n/a	n/a	0	n/a	0	0	0	n/a	n/a	n/a	n/a	n/a
2844411	REC_WORD	wordpools/wasnorm_wordpool_less_exclusions.txt	LTP185	ltpFR	7	9	1	WORLD	1622	n/a	n/a	1	n/a	0	0	0	n/a	n/a	n/a	n/a	n/a
2846626	REC_WORD	wordpools/wasnorm_wordpool_less_exclusions.txt	LTP185	ltpFR	7	9	1	GUARD	667	n/a	n/a	1	n/a	0	0	0	n/a	n/a	n/a	n/a	n/a
2919862	WORD	wordpools/wasnorm_wordpool_less_exclusions.txt	LTP185	ltpFR	7	10	0	GARDEN	623	n/a	n/a	1	n/a	0	0	0	0.57763671875	0.412841796875	1	upper	amplitud.ttf
2923760	WORD	wordpools/wasnorm_wordpool_less_exclusions.txt	LTP185	ltpFR	7	10	0	PILL	1068	n/a	n/a	0	n/a	0	0	0	0.57763671875	0.412841796875	1	upper	amplitud.ttf
2927825	WORD	wordpools/wasnorm_wordpool_less_exclusions.txt	LTP185	ltpFR	7	10	0	NITROGEN	954	n/a	n/a	0	n/a	0	0	0	0.57763671875	0.412841796875	1	upper	amplitud.ttf
2932023	WORD	wordpools/wasnorm_wordpool_less_exclusions.txt	LTP185	ltpFR	7	10	0	WITCH	1617	n/a	n/a	1	n/a	0	0	0	0.57763671875	0.412841796875	1	upper	amplitud.ttf
2936026	WORD	wordpools/wasnorm_wordpool_less_exclusions.txt	LTP185	ltpFR	7	10	0	PUBLISHER	1137	n/a	n/a	1	n/a	0	0	0	0.57763671875	0.412841796875	1	upper	amplitud.ttf
2939855	WORD	wordpools/wasnorm_wordpool_less_exclusions.txt	LTP185	ltpFR	7	10	0	BEAKER	104	n/a	n/a	0	n/a	0	0	0	0.57763671875	0.412841796875	1	upper	amplitud.ttf
2943735	WORD	wordpools/wasnorm_wordpool_less_exclusions.txt	LTP185	ltpFR	7	10	0	SEAGULL	1261	n/a	n/a	1	n/a	0	0	0	0.57763671875	0.412841796875	1	upper	amplitud.ttf
2947583	WORD	wordpools/wasnorm_wordpool_less_exclusions.txt	LTP185	ltpFR	7	10	0	DAISY	435	n/a	n/a	1	n/a	0	0	0	0.57763671875	0.412841796875	1	upper	amplitud.ttf
2951498	WORD	wordpools/wasnorm_wordpool_less_exclusions.txt	LTP185	ltpFR	7	10	0	LOAF	835	n/a	n/a	0	n/a	0	0	0	0.57763671875	0.412841796875	1	upper	amplitud.ttf
2955647	WORD	wordpools/wasnorm_wordpool_less_exclusions.txt	LTP185	ltpFR	7	10	0	STREET	1393	n/a	n/a	1	n/a	0	0	0	0.57763671875	0.412841796875	1	upper	amplitud.ttf
2959779	WORD	wordpools/wasnorm_wordpool_less_exclusions.txt	LTP185	ltpFR	7	10	0	GRAVEL	659	n/a	n/a	0	n/a	0	0	0	0.57763671875	0.412841796875	1	upper	amplitud.ttf
2963960	WORD	wordpools/wasnorm_wordpool_less_exclusions.txt	LTP185	ltpFR	7	10	0	SUBWAY	1400	n/a	n/a	1	n/a	0	0	0	0.57763671875	0.412841796875	1	upper	amplitud.ttf
2967879	WORD	wordpools/wasnorm_wordpool_less_exclusions.txt	LTP185	ltpFR	7	10	0	LIMOUSINE	824	n/a	n/a	1	n/a	0	0	0	0.57763671875	0.412841796875	1	upper	amplitud.ttf
2971841	WORD	wordpools/wasnorm_wordpool_less_exclusions.txt	LTP185	ltpFR	7	10	0	PIE	1062	n/a	n/a	1	n/a	0	0	0	0.57763671875	0.412841796875	1	upper	amplitud.ttf
2976056	WORD	wordpools/wasnorm_wordpool_less_exclusions.txt	LTP185	ltpFR	7	10	0	VIOLIN	1571	n/a	n/a	1	n/a	0	0	0	0.57763671875	0.412841796875	1	upper	amplitud.ttf
2980021	WORD	wordpools/wasnorm_wordpool_less_exclusions.txt	LTP185	ltpFR	7	10	0	DRUM	502	n/a	n/a	1	n/a	0	0	0	0.57763671875	0.412841796875	1	upper	amplitud.ttf
2983032	START	n/a	LTP185	ltpFR	7	n/a	n/a	n/a	n/a	n/a	n/a	n/a	n/a	n/a	n/a	n/a	n/a	n/a	n/a	n/a	n/a
2984103	PROB	n/a	LTP185	ltpFR	7	n/a	n/a	n/a	n/a	n/a	n/a	n/a	15	5	7	3	n/a	n/a	n/a	n/a	n/a
2986244	PROB	n/a	LTP185	ltpFR	7	n/a	n/a	n/a	n/a	n/a	n/a	n/a	14	3	8	3	n/a	n/a	n/a	n/a	n/a
2988537	PROB	n/a	LTP185	ltpFR	7	n/a	n/a	n/a	n/a	n/a	n/a	n/a	18	4	8	6	n/a	n/a	n/a	n/a	n/a
2990779	PROB	n/a	LTP185	ltpFR	7	n/a	n/a	n/a	n/a	n/a	n/a	n/a	14	4	6	4	n/a	n/a	n/a	n/a	n/a
2992803	PROB	n/a	LTP185	ltpFR	7	n/a	n/a	n/a	n/a	n/a	n/a	n/a	17	5	3	9	n/a	n/a	n/a	n/a	n/a
2995044	PROB	n/a	LTP185	ltpFR	7	n/a	n/a	n/a	n/a	n/a	n/a	n/a	24	8	6	8	n/a	n/a	n/a	n/a	n/a
2997518	STOP	n/a	LTP185	ltpFR	7	n/a	n/a	n/a	n/a	n/a	n/a	n/a	n/a	n/a	n/a	n/a	n/a	n/a	n/a	n/a	n/a
3000834	REC_START	n/a	LTP185	ltpFR	7	10	n/a	n/a	n/a	n/a	n/a	n/a	n/a	0	0	0	n/a	n/a	n/a	n/a	n/a
3002565	REC_WORD	wordpools/wasnorm_wordpool_less_exclusions.txt	LTP185	ltpFR	7	10	0	PIE	1062	n/a	n/a	1	n/a	0	0	0	n/a	n/a	n/a	n/a	n/a
3008841	REC_WORD	wordpools/wasnorm_wordpool_less_exclusions.txt	LTP185	ltpFR	7	10	0	GRAVEL	659	n/a	n/a	0	n/a	0	0	0	n/a	n/a	n/a	n/a	n/a
3011185	REC_WORD	wordpools/wasnorm_wordpool_less_exclusions.txt	LTP185	ltpFR	7	10	0	SIDEWALK	1303	n/a	n/a	1	n/a	0	0	0	n/a	n/a	n/a	n/a	n/a
3012185	REC_WORD_VV	wordpools/wasnorm_wordpool_less_exclusions.txt	LTP185	ltpFR	7	10	n/a	<>	-1	n/a	n/a	n/a	n/a	0	0	0	n/a	n/a	n/a	n/a	n/a
3013146	REC_WORD	wordpools/wasnorm_wordpool_less_exclusions.txt	LTP185	ltpFR	7	10	0	STREET	1393	n/a	n/a	1	n/a	0	0	0	n/a	n/a	n/a	n/a	n/a
3014862	REC_WORD	wordpools/wasnorm_wordpool_less_exclusions.txt	LTP185	ltpFR	7	10	0	SUBWAY	1400	n/a	n/a	1	n/a	0	0	0	n/a	n/a	n/a	n/a	n/a
3016538	REC_WORD	wordpools/wasnorm_wordpool_less_exclusions.txt	LTP185	ltpFR	7	10	0	WITCH	1617	n/a	n/a	1	n/a	0	0	0	n/a	n/a	n/a	n/a	n/a
3017371	REC_WORD	wordpools/wasnorm_wordpool_less_exclusions.txt	LTP185	ltpFR	7	10	0	PILL	1068	n/a	n/a	0	n/a	0	0	0	n/a	n/a	n/a	n/a	n/a
3017990	REC_WORD	wordpools/wasnorm_wordpool_less_exclusions.txt	LTP185	ltpFR	7	10	0	NITROGEN	954	n/a	n/a	0	n/a	0	0	0	n/a	n/a	n/a	n/a	n/a
3018968	REC_WORD	wordpools/wasnorm_wordpool_less_exclusions.txt	LTP185	ltpFR	7	10	0	GARDEN	623	n/a	n/a	1	n/a	0	0	0	n/a	n/a	n/a	n/a	n/a
3020310	REC_WORD	wordpools/wasnorm_wordpool_less_exclusions.txt	LTP185	ltpFR	7	10	0	BEAKER	104	n/a	n/a	0	n/a	0	0	0	n/a	n/a	n/a	n/a	n/a
3021033	REC_WORD	wordpools/wasnorm_wordpool_less_exclusions.txt	LTP185	ltpFR	7	10	0	DAISY	435	n/a	n/a	1	n/a	0	0	0	n/a	n/a	n/a	n/a	n/a
3022145	REC_WORD	wordpools/wasnorm_wordpool_less_exclusions.txt	LTP185	ltpFR	7	10	0	SEAGULL	1261	n/a	n/a	1	n/a	0	0	0	n/a	n/a	n/a	n/a	n/a
3024256	REC_WORD	wordpools/wasnorm_wordpool_less_exclusions.txt	LTP185	ltpFR	7	10	0	PUBLISHER	1137	n/a	n/a	1	n/a	0	0	0	n/a	n/a	n/a	n/a	n/a
3076452	REST_REWET	n/a	LTP185	ltpFR	7	10	n/a	n/a	n/a	n/a	n/a	n/a	n/a	0	0	0	n/a	n/a	n/a	n/a	n/a
3434652	START	n/a	LTP185	ltpFR	7	n/a	n/a	n/a	n/a	n/a	n/a	n/a	n/a	n/a	n/a	n/a	n/a	n/a	n/a	n/a	n/a
3436156	PROB	n/a	LTP185	ltpFR	7	n/a	n/a	n/a	n/a	n/a	n/a	n/a	12	4	7	1	n/a	n/a	n/a	n/a	n/a
3439487	PROB	n/a	LTP185	ltpFR	7	n/a	n/a	n/a	n/a	n/a	n/a	n/a	15	2	8	5	n/a	n/a	n/a	n/a	n/a
3441142	PROB	n/a	LTP185	ltpFR	7	n/a	n/a	n/a	n/a	n/a	n/a	n/a	18	9	2	7	n/a	n/a	n/a	n/a	n/a
3442732	PROB	n/a	LTP185	ltpFR	7	n/a	n/a	n/a	n/a	n/a	n/a	n/a	18	6	6	6	n/a	n/a	n/a	n/a	n/a
3445157	PROB	n/a	LTP185	ltpFR	7	n/a	n/a	n/a	n/a	n/a	n/a	n/a	7	1	5	1	n/a	n/a	n/a	n/a	n/a
3446863	PROB	n/a	LTP185	ltpFR	7	n/a	n/a	n/a	n/a	n/a	n/a	n/a	19	8	9	2	n/a	n/a	n/a	n/a	n/a
3449398	STOP	n/a	LTP185	ltpFR	7	n/a	n/a	n/a	n/a	n/a	n/a	n/a	n/a	n/a	n/a	n/a	n/a	n/a	n/a	n/a	n/a
3451599	WORD	wordpools/wasnorm_wordpool_less_exclusions.txt	LTP185	ltpFR	7	11	1	NIGHTGOWN	953	n/a	n/a	0	n/a	0	0	0	0.422607421875	0.5869140625	0	lower	zerothre.ttf
3454611	START	n/a	LTP185	ltpFR	7	n/a	n/a	n/a	n/a	n/a	n/a	n/a	n/a	n/a	n/a	n/a	n/a	n/a	n/a	n/a	n/a
3455783	PROB	n/a	LTP185	ltpFR	7	n/a	n/a	n/a	n/a	n/a	n/a	n/a	12	1	7	4	n/a	n/a	n/a	n/a	n/a
3457269	PROB	n/a	LTP185	ltpFR	7	n/a	n/a	n/a	n/a	n/a	n/a	n/a	10	1	7	2	n/a	n/a	n/a	n/a	n/a
3460516	PROB	n/a	LTP185	ltpFR	7	n/a	n/a	n/a	n/a	n/a	n/a	n/a	12	4	7	1	n/a	n/a	n/a	n/a	n/a
3462440	PROB	n/a	LTP185	ltpFR	7	n/a	n/a	n/a	n/a	n/a	n/a	n/a	8	2	1	5	n/a	n/a	n/a	n/a	n/a
3464464	PROB	n/a	LTP185	ltpFR	7	n/a	n/a	n/a	n/a	n/a	n/a	n/a	20	7	6	7	n/a	n/a	n/a	n/a	n/a
3466706	PROB	n/a	LTP185	ltpFR	7	n/a	n/a	n/a	n/a	n/a	n/a	n/a	20	7	9	4	n/a	n/a	n/a	n/a	n/a
3470245	STOP	n/a	LTP185	ltpFR	7	n/a	n/a	n/a	n/a	n/a	n/a	n/a	n/a	n/a	n/a	n/a	n/a	n/a	n/a	n/a	n/a
3471742	WORD	wordpools/wasnorm_wordpool_less_exclusions.txt	LTP185	ltpFR	7	11	1	PAD	998	n/a	n/a	0	n/a	0	0	0	0.422607421875	0.5869140625	0	lower	zerothre.ttf
3474754	START	n/a	LTP185	ltpFR	7	n/a	n/a	n/a	n/a	n/a	n/a	n/a	n/a	n/a	n/a	n/a	n/a	n/a	n/a	n/a	n/a
3475589	PROB	n/a	LTP185	ltpFR	7	n/a	n/a	n/a	n/a	n/a	n/a	n/a	12	3	5	4	n/a	n/a	n/a	n/a	n/a
3477563	PROB	n/a	LTP185	ltpFR	7	n/a	n/a	n/a	n/a	n/a	n/a	n/a	17	9	6	2	n/a	n/a	n/a	n/a	n/a
3480289	PROB	n/a	LTP185	ltpFR	7	n/a	n/a	n/a	n/a	n/a	n/a	n/a	12	9	1	2	n/a	n/a	n/a	n/a	n/a
3481679	PROB	n/a	LTP185	ltpFR	7	n/a	n/a	n/a	n/a	n/a	n/a	n/a	19	8	8	3	n/a	n/a	n/a	n/a	n/a
3483620	PROB	n/a	LTP185	ltpFR	7	n/a	n/a	n/a	n/a	n/a	n/a	n/a	10	8	1	1	n/a	n/a	n/a	n/a	n/a
3485677	PROB	n/a	LTP185	ltpFR	7	n/a	n/a	n/a	n/a	n/a	n/a	n/a	14	9	2	3	n/a	n/a	n/a	n/a	n/a
3487769	PROB	n/a	LTP185	ltpFR	7	n/a	n/a	n/a	n/a	n/a	n/a	n/a	10	4	1	5	n/a	n/a	n/a	n/a	n/a
3489654	STOP	n/a	LTP185	ltpFR	7	n/a	n/a	n/a	n/a	n/a	n/a	n/a	n/a	n/a	n/a	n/a	n/a	n/a	n/a	n/a	n/a
3491773	WORD	wordpools/wasnorm_wordpool_less_exclusions.txt	LTP185	ltpFR	7	11	1	JEEP	753	n/a	n/a	0	n/a	0	0	0	0.422607421875	0.5869140625	0	lower	zerothre.ttf
3494779	START	n/a	LTP185	ltpFR	7	n/a	n/a	n/a	n/a	n/a	n/a	n/a	n/a	n/a	n/a	n/a	n/a	n/a	n/a	n/a	n/a
3495732	PROB	n/a	LTP185	ltpFR	7	n/a	n/a	n/a	n/a	n/a	n/a	n/a	20	6	9	5	n/a	n/a	n/a	n/a	n/a
3498224	PROB	n/a	LTP185	ltpFR	7	n/a	n/a	n/a	n/a	n/a	n/a	n/a	16	5	8	3	n/a	n/a	n/a	n/a	n/a
3500967	PROB	n/a	LTP185	ltpFR	7	n/a	n/a	n/a	n/a	n/a	n/a	n/a	19	3	7	9	n/a	n/a	n/a	n/a	n/a
3503645	PROB	n/a	LTP185	ltpFR	7	n/a	n/a	n/a	n/a	n/a	n/a	n/a	14	2	3	9	n/a	n/a	n/a	n/a	n/a
3505300	PROB	n/a	LTP185	ltpFR	7	n/a	n/a	n/a	n/a	n/a	n/a	n/a	12	6	1	5	n/a	n/a	n/a	n/a	n/a
3506990	PROB	n/a	LTP185	ltpFR	7	n/a	n/a	n/a	n/a	n/a	n/a	n/a	13	7	2	4	n/a	n/a	n/a	n/a	n/a
3510779	STOP	n/a	LTP185	ltpFR	7	n/a	n/a	n/a	n/a	n/a	n/a	n/a	n/a	n/a	n/a	n/a	n/a	n/a	n/a	n/a	n/a
3511925	WORD	wordpools/wasnorm_wordpool_less_exclusions.txt	LTP185	ltpFR	7	11	1	SIRLOIN	1311	n/a	n/a	0	n/a	0	0	0	0.422607421875	0.5869140625	0	lower	zerothre.ttf
3514937	START	n/a	LTP185	ltpFR	7	n/a	n/a	n/a	n/a	n/a	n/a	n/a	n/a	n/a	n/a	n/a	n/a	n/a	n/a	n/a	n/a
3516059	PROB	n/a	LTP185	ltpFR	7	n/a	n/a	n/a	n/a	n/a	n/a	n/a	16	7	4	5	n/a	n/a	n/a	n/a	n/a
3519069	PROB	n/a	LTP185	ltpFR	7	n/a	n/a	n/a	n/a	n/a	n/a	n/a	13	2	3	8	n/a	n/a	n/a	n/a	n/a
3522231	PROB	n/a	LTP185	ltpFR	7	n/a	n/a	n/a	n/a	n/a	n/a	n/a	6	1	1	4	n/a	n/a	n/a	n/a	n/a
3523788	PROB	n/a	LTP185	ltpFR	7	n/a	n/a	n/a	n/a	n/a	n/a	n/a	10	1	6	3	n/a	n/a	n/a	n/a	n/a
3525628	PROB	n/a	LTP185	ltpFR	7	n/a	n/a	n/a	n/a	n/a	n/a	n/a	20	9	4	7	n/a	n/a	n/a	n/a	n/a
3527936	PROB	n/a	LTP185	ltpFR	7	n/a	n/a	n/a	n/a	n/a	n/a	n/a	12	4	6	2	n/a	n/a	n/a	n/a	n/a
3530173	STOP	n/a	LTP185	ltpFR	7	n/a	n/a	n/a	n/a	n/a	n/a	n/a	n/a	n/a	n/a	n/a	n/a	n/a	n/a	n/a	n/a
3531917	WORD	wordpools/wasnorm_wordpool_less_exclusions.txt	LTP185	ltpFR	7	11	1	PLAZA	1088	n/a	n/a	0	n/a	0	0	0	0.422607421875	0.5869140625	0	lower	zerothre.ttf
3534929	START	n/a	LTP185	ltpFR	7	n/a	n/a	n/a	n/a	n/a	n/a	n/a	n/a	n/a	n/a	n/a	n/a	n/a	n/a	n/a	n/a
3536135	PROB	n/a	LTP185	ltpFR	7	n/a	n/a	n/a	n/a	n/a	n/a	n/a	7	3	3	1	n/a	n/a	n/a	n/a	n/a
3537590	PROB	n/a	LTP185	ltpFR	7	n/a	n/a	n/a	n/a	n/a	n/a	n/a	7	3	1	3	n/a	n/a	n/a	n/a	n/a
3538844	PROB	n/a	LTP185	ltpFR	7	n/a	n/a	n/a	n/a	n/a	n/a	n/a	19	9	4	6	n/a	n/a	n/a	n/a	n/a
3540835	PROB	n/a	LTP185	ltpFR	7	n/a	n/a	n/a	n/a	n/a	n/a	n/a	14	3	6	5	n/a	n/a	n/a	n/a	n/a
3542992	PROB	n/a	LTP185	ltpFR	7	n/a	n/a	n/a	n/a	n/a	n/a	n/a	14	5	2	6	n/a	n/a	n/a	n/a	n/a
3547024	PROB	n/a	LTP185	ltpFR	7	n/a	n/a	n/a	n/a	n/a	n/a	n/a	21	8	7	6	n/a	n/a	n/a	n/a	n/a
3550854	STOP	n/a	LTP185	ltpFR	7	n/a	n/a	n/a	n/a	n/a	n/a	n/a	n/a	n/a	n/a	n/a	n/a	n/a	n/a	n/a	n/a
3552132	WORD	wordpools/wasnorm_wordpool_less_exclusions.txt	LTP185	ltpFR	7	11	1	BAG	69	n/a	n/a	0	n/a	0	0	0	0.422607421875	0.5869140625	0	lower	zerothre.ttf
3555139	START	n/a	LTP185	ltpFR	7	n/a	n/a	n/a	n/a	n/a	n/a	n/a	n/a	n/a	n/a	n/a	n/a	n/a	n/a	n/a	n/a
3555991	PROB	n/a	LTP185	ltpFR	7	n/a	n/a	n/a	n/a	n/a	n/a	n/a	7	5	1	1	n/a	n/a	n/a	n/a	n/a
3557548	PROB	n/a	LTP185	ltpFR	7	n/a	n/a	n/a	n/a	n/a	n/a	n/a	18	6	3	9	n/a	n/a	n/a	n/a	n/a
3559790	PROB	n/a	LTP185	ltpFR	7	n/a	n/a	n/a	n/a	n/a	n/a	n/a	21	4	9	8	n/a	n/a	n/a	n/a	n/a
3562801	PROB	n/a	LTP185	ltpFR	7	n/a	n/a	n/a	n/a	n/a	n/a	n/a	14	9	3	2	n/a	n/a	n/a	n/a	n/a
3565679	PROB	n/a	LTP185	ltpFR	7	n/a	n/a	n/a	n/a	n/a	n/a	n/a	17	3	8	6	n/a	n/a	n/a	n/a	n/a
3568690	PROB	n/a	LTP185	ltpFR	7	n/a	n/a	n/a	n/a	n/a	n/a	n/a	10	1	3	6	n/a	n/a	n/a	n/a	n/a
3570398	STOP	n/a	LTP185	ltpFR	7	n/a	n/a	n/a	n/a	n/a	n/a	n/a	n/a	n/a	n/a	n/a	n/a	n/a	n/a	n/a	n/a
3572336	WORD	wordpools/wasnorm_wordpool_less_exclusions.txt	LTP185	ltpFR	7	11	1	GRILL	661	n/a	n/a	0	n/a	0	0	0	0.422607421875	0.5869140625	0	lower	zerothre.ttf
3575348	START	n/a	LTP185	ltpFR	7	n/a	n/a	n/a	n/a	n/a	n/a	n/a	n/a	n/a	n/a	n/a	n/a	n/a	n/a	n/a	n/a
3576301	PROB	n/a	LTP185	ltpFR	7	n/a	n/a	n/a	n/a	n/a	n/a	n/a	13	1	7	5	n/a	n/a	n/a	n/a	n/a
3578108	PROB	n/a	LTP185	ltpFR	7	n/a	n/a	n/a	n/a	n/a	n/a	n/a	18	2	9	7	n/a	n/a	n/a	n/a	n/a
3580166	PROB	n/a	LTP185	ltpFR	7	n/a	n/a	n/a	n/a	n/a	n/a	n/a	13	7	4	2	n/a	n/a	n/a	n/a	n/a
3582844	PROB	n/a	LTP185	ltpFR	7	n/a	n/a	n/a	n/a	n/a	n/a	n/a	14	5	7	2	n/a	n/a	n/a	n/a	n/a
3585554	PROB	n/a	LTP185	ltpFR	7	n/a	n/a	n/a	n/a	n/a	n/a	n/a	14	7	4	3	n/a	n/a	n/a	n/a	n/a
3587578	PROB	n/a	LTP185	ltpFR	7	n/a	n/a	n/a	n/a	n/a	n/a	n/a	23	5	9	9	n/a	n/a	n/a	n/a	n/a
3591348	STOP	n/a	LTP185	ltpFR	7	n/a	n/a	n/a	n/a	n/a	n/a	n/a	n/a	n/a	n/a	n/a	n/a	n/a	n/a	n/a	n/a
3592278	WORD	wordpools/wasnorm_wordpool_less_exclusions.txt	LTP185	ltpFR	7	11	1	PEDESTRIAN	1038	n/a	n/a	1	n/a	0	0	0	0.422607421875	0.5869140625	0	lower	zerothre.ttf
3595290	START	n/a	LTP185	ltpFR	7	n/a	n/a	n/a	n/a	n/a	n/a	n/a	n/a	n/a	n/a	n/a	n/a	n/a	n/a	n/a	n/a
3596343	PROB	n/a	LTP185	ltpFR	7	n/a	n/a	n/a	n/a	n/a	n/a	n/a	10	3	5	2	n/a	n/a	n/a	n/a	n/a
3598436	PROB	n/a	LTP185	ltpFR	7	n/a	n/a	n/a	n/a	n/a	n/a	n/a	16	5	3	8	n/a	n/a	n/a	n/a	n/a
3600460	PROB	n/a	LTP185	ltpFR	7	n/a	n/a	n/a	n/a	n/a	n/a	n/a	17	8	4	3	n/a	n/a	n/a	n/a	n/a
3603705	PROB	n/a	LTP185	ltpFR	7	n/a	n/a	n/a	n/a	n/a	n/a	n/a	14	3	6	5	n/a	n/a	n/a	n/a	n/a
3607603	PROB	n/a	LTP185	ltpFR	7	n/a	n/a	n/a	n/a	n/a	n/a	n/a	15	1	7	7	n/a	n/a	n/a	n/a	n/a
3611290	STOP	n/a	LTP185	ltpFR	7	n/a	n/a	n/a	n/a	n/a	n/a	n/a	n/a	n/a	n/a	n/a	n/a	n/a	n/a	n/a	n/a
3612337	WORD	wordpools/wasnorm_wordpool_less_exclusions.txt	LTP185	ltpFR	7	11	1	TAR	1435	n/a	n/a	0	n/a	0	0	0	0.422607421875	0.5869140625	0	lower	zerothre.ttf
3615349	START	n/a	LTP185	ltpFR	7	n/a	n/a	n/a	n/a	n/a	n/a	n/a	n/a	n/a	n/a	n/a	n/a	n/a	n/a	n/a	n/a
3616473	PROB	n/a	LTP185	ltpFR	7	n/a	n/a	n/a	n/a	n/a	n/a	n/a	13	7	2	4	n/a	n/a	n/a	n/a	n/a
3619062	PROB	n/a	LTP185	ltpFR	7	n/a	n/a	n/a	n/a	n/a	n/a	n/a	15	7	3	5	n/a	n/a	n/a	n/a	n/a
3621573	PROB	n/a	LTP185	ltpFR	7	n/a	n/a	n/a	n/a	n/a	n/a	n/a	22	9	7	8	n/a	n/a	n/a	n/a	n/a
3624182	PROB	n/a	LTP185	ltpFR	7	n/a	n/a	n/a	n/a	n/a	n/a	n/a	16	1	9	6	n/a	n/a	n/a	n/a	n/a
3628599	PROB	n/a	LTP185	ltpFR	7	n/a	n/a	n/a	n/a	n/a	n/a	n/a	20	4	8	8	n/a	n/a	n/a	n/a	n/a
3631141	STOP	n/a	LTP185	ltpFR	7	n/a	n/a	n/a	n/a	n/a	n/a	n/a	n/a	n/a	n/a	n/a	n/a	n/a	n/a	n/a	n/a
3632179	WORD	wordpools/wasnorm_wordpool_less_exclusions.txt	LTP185	ltpFR	7	11	1	SCROLL	1257	n/a	n/a	0	n/a	0	0	0	0.422607421875	0.5869140625	0	lower	zerothre.ttf
3635190	START	n/a	LTP185	ltpFR	7	n/a	n/a	n/a	n/a	n/a	n/a	n/a	n/a	n/a	n/a	n/a	n/a	n/a	n/a	n/a	n/a
3636127	PROB	n/a	LTP185	ltpFR	7	n/a	n/a	n/a	n/a	n/a	n/a	n/a	14	6	5	3	n/a	n/a	n/a	n/a	n/a
3638436	PROB	n/a	LTP185	ltpFR	7	n/a	n/a	n/a	n/a	n/a	n/a	n/a	17	8	5	4	n/a	n/a	n/a	n/a	n/a
3641146	PROB	n/a	LTP185	ltpFR	7	n/a	n/a	n/a	n/a	n/a	n/a	n/a	20	2	9	9	n/a	n/a	n/a	n/a	n/a
3643857	PROB	n/a	LTP185	ltpFR	7	n/a	n/a	n/a	n/a	n/a	n/a	n/a	24	9	8	8	n/a	n/a	n/a	n/a	n/a
3651190	STOP	n/a	LTP185	ltpFR	7	n/a	n/a	n/a	n/a	n/a	n/a	n/a	n/a	n/a	n/a	n/a	n/a	n/a	n/a	n/a	n/a
3652170	WORD	wordpools/wasnorm_wordpool_less_exclusions.txt	LTP185	ltpFR	7	11	1	BUTTERFLY	206	n/a	n/a	1	n/a	0	0	0	0.422607421875	0.5869140625	0	lower	zerothre.ttf
3655182	START	n/a	LTP185	ltpFR	7	n/a	n/a	n/a	n/a	n/a	n/a	n/a	n/a	n/a	n/a	n/a	n/a	n/a	n/a	n/a	n/a
3656240	PROB	n/a	LTP185	ltpFR	7	n/a	n/a	n/a	n/a	n/a	n/a	n/a	18	7	4	7	n/a	n/a	n/a	n/a	n/a
3658243	PROB	n/a	LTP185	ltpFR	7	n/a	n/a	n/a	n/a	n/a	n/a	n/a	18	9	6	3	n/a	n/a	n/a	n/a	n/a
3662074	PROB	n/a	LTP185	ltpFR	7	n/a	n/a	n/a	n/a	n/a	n/a	n/a	8	2	3	3	n/a	n/a	n/a	n/a	n/a
3664568	PROB	n/a	LTP185	ltpFR	7	n/a	n/a	n/a	n/a	n/a	n/a	n/a	22	7	7	8	n/a	n/a	n/a	n/a	n/a
3667429	PROB	n/a	LTP185	ltpFR	7	n/a	n/a	n/a	n/a	n/a	n/a	n/a	19	9	6	4	n/a	n/a	n/a	n/a	n/a
3671182	STOP	n/a	LTP185	ltpFR	7	n/a	n/a	n/a	n/a	n/a	n/a	n/a	n/a	n/a	n/a	n/a	n/a	n/a	n/a	n/a	n/a
3672229	WORD	wordpools/wasnorm_wordpool_less_exclusions.txt	LTP185	ltpFR	7	11	1	BUG	187	n/a	n/a	1	n/a	0	0	0	0.422607421875	0.5869140625	0	lower	zerothre.ttf
3675241	START	n/a	LTP185	ltpFR	7	n/a	n/a	n/a	n/a	n/a	n/a	n/a	n/a	n/a	n/a	n/a	n/a	n/a	n/a	n/a	n/a
3676228	PROB	n/a	LTP185	ltpFR	7	n/a	n/a	n/a	n/a	n/a	n/a	n/a	19	2	9	8	n/a	n/a	n/a	n/a	n/a
3678152	PROB	n/a	LTP185	ltpFR	7	n/a	n/a	n/a	n/a	n/a	n/a	n/a	15	1	6	8	n/a	n/a	n/a	n/a	n/a
3680226	PROB	n/a	LTP185	ltpFR	7	n/a	n/a	n/a	n/a	n/a	n/a	n/a	20	6	8	6	n/a	n/a	n/a	n/a	n/a
3683054	PROB	n/a	LTP185	ltpFR	7	n/a	n/a	n/a	n/a	n/a	n/a	n/a	15	2	8	5	n/a	n/a	n/a	n/a	n/a
3684994	PROB	n/a	LTP185	ltpFR	7	n/a	n/a	n/a	n/a	n/a	n/a	n/a	14	8	4	2	n/a	n/a	n/a	n/a	n/a
3687035	PROB	n/a	LTP185	ltpFR	7	n/a	n/a	n/a	n/a	n/a	n/a	n/a	8	4	1	3	n/a	n/a	n/a	n/a	n/a
3688592	PROB	n/a	LTP185	ltpFR	7	n/a	n/a	n/a	n/a	n/a	n/a	n/a	20	9	8	3	n/a	n/a	n/a	n/a	n/a
3690957	STOP	n/a	LTP185	ltpFR	7	n/a	n/a	n/a	n/a	n/a	n/a	n/a	n/a	n/a	n/a	n/a	n/a	n/a	n/a	n/a	n/a
3692238	WORD	wordpools/wasnorm_wordpool_less_exclusions.txt	LTP185	ltpFR	7	11	1	BULL	193	n/a	n/a	1	n/a	0	0	0	0.422607421875	0.5869140625	0	lower	zerothre.ttf
3695250	START	n/a	LTP185	ltpFR	7	n/a	n/a	n/a	n/a	n/a	n/a	n/a	n/a	n/a	n/a	n/a	n/a	n/a	n/a	n/a	n/a
3696237	PROB	n/a	LTP185	ltpFR	7	n/a	n/a	n/a	n/a	n/a	n/a	n/a	19	8	6	5	n/a	n/a	n/a	n/a	n/a
3698663	PROB	n/a	LTP185	ltpFR	7	n/a	n/a	n/a	n/a	n/a	n/a	n/a	23	9	7	7	n/a	n/a	n/a	n/a	n/a
3702176	PROB	n/a	LTP185	ltpFR	7	n/a	n/a	n/a	n/a	n/a	n/a	n/a	11	2	1	8	n/a	n/a	n/a	n/a	n/a
3704116	PROB	n/a	LTP185	ltpFR	7	n/a	n/a	n/a	n/a	n/a	n/a	n/a	15	5	8	2	n/a	n/a	n/a	n/a	n/a
3706660	PROB	n/a	LTP185	ltpFR	7	n/a	n/a	n/a	n/a	n/a	n/a	n/a	13	2	6	5	n/a	n/a	n/a	n/a	n/a
3709118	PROB	n/a	LTP185	ltpFR	7	n/a	n/a	n/a	n/a	n/a	n/a	n/a	13	5	7	1	n/a	n/a	n/a	n/a	n/a
3710838	STOP	n/a	LTP185	ltpFR	7	n/a	n/a	n/a	n/a	n/a	n/a	n/a	n/a	n/a	n/a	n/a	n/a	n/a	n/a	n/a	n/a
3712163	WORD	wordpools/wasnorm_wordpool_less_exclusions.txt	LTP185	ltpFR	7	11	1	FARMER	553	n/a	n/a	1	n/a	0	0	0	0.422607421875	0.5869140625	0	lower	zerothre.ttf
3715175	START	n/a	LTP185	ltpFR	7	n/a	n/a	n/a	n/a	n/a	n/a	n/a	n/a	n/a	n/a	n/a	n/a	n/a	n/a	n/a	n/a
3716279	PROB	n/a	LTP185	ltpFR	7	n/a	n/a	n/a	n/a	n/a	n/a	n/a	23	8	8	7	n/a	n/a	n/a	n/a	n/a
3720110	PROB	n/a	LTP185	ltpFR	7	n/a	n/a	n/a	n/a	n/a	n/a	n/a	20	5	6	9	n/a	n/a	n/a	n/a	n/a
3722838	PROB	n/a	LTP185	ltpFR	7	n/a	n/a	n/a	n/a	n/a	n/a	n/a	8	4	2	2	n/a	n/a	n/a	n/a	n/a
3724845	PROB	n/a	LTP185	ltpFR	7	n/a	n/a	n/a	n/a	n/a	n/a	n/a	14	7	1	6	n/a	n/a	n/a	n/a	n/a
3727505	PROB	n/a	LTP185	ltpFR	7	n/a	n/a	n/a	n/a	n/a	n/a	n/a	16	5	4	7	n/a	n/a	n/a	n/a	n/a
3731175	STOP	n/a	LTP185	ltpFR	7	n/a	n/a	n/a	n/a	n/a	n/a	n/a	n/a	n/a	n/a	n/a	n/a	n/a	n/a	n/a	n/a
3732222	WORD	wordpools/wasnorm_wordpool_less_exclusions.txt	LTP185	ltpFR	7	11	1	TOWER	1490	n/a	n/a	1	n/a	0	0	0	0.422607421875	0.5869140625	0	lower	zerothre.ttf
3735234	START	n/a	LTP185	ltpFR	7	n/a	n/a	n/a	n/a	n/a	n/a	n/a	n/a	n/a	n/a	n/a	n/a	n/a	n/a	n/a	n/a
3736237	PROB	n/a	LTP185	ltpFR	7	n/a	n/a	n/a	n/a	n/a	n/a	n/a	11	6	3	2	n/a	n/a	n/a	n/a	n/a
3738262	PROB	n/a	LTP185	ltpFR	7	n/a	n/a	n/a	n/a	n/a	n/a	n/a	14	7	3	4	n/a	n/a	n/a	n/a	n/a
3740705	PROB	n/a	LTP185	ltpFR	7	n/a	n/a	n/a	n/a	n/a	n/a	n/a	14	3	7	4	n/a	n/a	n/a	n/a	n/a
3743933	PROB	n/a	LTP185	ltpFR	7	n/a	n/a	n/a	n/a	n/a	n/a	n/a	7	4	1	2	n/a	n/a	n/a	n/a	n/a
3746007	PROB	n/a	LTP185	ltpFR	7	n/a	n/a	n/a	n/a	n/a	n/a	n/a	22	8	9	7	n/a	n/a	n/a	n/a	n/a
3751233	STOP	n/a	LTP185	ltpFR	7	n/a	n/a	n/a	n/a	n/a	n/a	n/a	n/a	n/a	n/a	n/a	n/a	n/a	n/a	n/a	n/a
3752066	WORD	wordpools/wasnorm_wordpool_less_exclusions.txt	LTP185	ltpFR	7	11	1	SOFA	1342	n/a	n/a	0	n/a	0	0	0	0.422607421875	0.5869140625	0	lower	zerothre.ttf
3755075	START	n/a	LTP185	ltpFR	7	n/a	n/a	n/a	n/a	n/a	n/a	n/a	n/a	n/a	n/a	n/a	n/a	n/a	n/a	n/a	n/a
3756129	PROB	n/a	LTP185	ltpFR	7	n/a	n/a	n/a	n/a	n/a	n/a	n/a	10	5	4	1	n/a	n/a	n/a	n/a	n/a
3758606	PROB	n/a	LTP185	ltpFR	7	n/a	n/a	n/a	n/a	n/a	n/a	n/a	13	2	6	7	n/a	n/a	n/a	n/a	n/a
3760914	PROB	n/a	LTP185	ltpFR	7	n/a	n/a	n/a	n/a	n/a	n/a	n/a	12	5	2	5	n/a	n/a	n/a	n/a	n/a
3766317	PROB	n/a	LTP185	ltpFR	7	n/a	n/a	n/a	n/a	n/a	n/a	n/a	14	8	2	4	n/a	n/a	n/a	n/a	n/a
3771075	STOP	n/a	LTP185	ltpFR	7	n/a	n/a	n/a	n/a	n/a	n/a	n/a	n/a	n/a	n/a	n/a	n/a	n/a	n/a	n/a	n/a
3773010	REC_START	n/a	LTP185	ltpFR	7	11	n/a	n/a	n/a	n/a	n/a	n/a	n/a	0	0	0	n/a	n/a	n/a	n/a	n/a
3774671	REC_WORD	wordpools/wasnorm_wordpool_less_exclusions.txt	LTP185	ltpFR	7	11	1	TOWER	1490	n/a	n/a	1	n/a	0	0	0	n/a	n/a	n/a	n/a	n/a
3775134	REC_WORD	wordpools/wasnorm_wordpool_less_exclusions.txt	LTP185	ltpFR	7	11	1	SOFA	1342	n/a	n/a	0	n/a	0	0	0	n/a	n/a	n/a	n/a	n/a
3776367	REC_WORD	wordpools/wasnorm_wordpool_less_exclusions.txt	LTP185	ltpFR	7	11	1	BULL	193	n/a	n/a	1	n/a	0	0	0	n/a	n/a	n/a	n/a	n/a
3776852	REC_WORD	wordpools/wasnorm_wordpool_less_exclusions.txt	LTP185	ltpFR	7	11	1	FARMER	553	n/a	n/a	1	n/a	0	0	0	n/a	n/a	n/a	n/a	n/a
3777903	REC_WORD	wordpools/wasnorm_wordpool_less_exclusions.txt	LTP185	ltpFR	7	11	1	BUG	187	n/a	n/a	1	n/a	0	0	0	n/a	n/a	n/a	n/a	n/a
3778567	REC_WORD	wordpools/wasnorm_wordpool_less_exclusions.txt	LTP185	ltpFR	7	11	1	BUTTERFLY	206	n/a	n/a	1	n/a	0	0	0	n/a	n/a	n/a	n/a	n/a
3779205	REC_WORD	wordpools/wasnorm_wordpool_less_exclusions.txt	LTP185	ltpFR	7	11	1	SCROLL	1257	n/a	n/a	0	n/a	0	0	0	n/a	n/a	n/a	n/a	n/a
3780692	REC_WORD	wordpools/wasnorm_wordpool_less_exclusions.txt	LTP185	ltpFR	7	11	1	TAR	1435	n/a	n/a	0	n/a	0	0	0	n/a	n/a	n/a	n/a	n/a
3781191	REC_WORD	wordpools/wasnorm_wordpool_less_exclusions.txt	LTP185	ltpFR	7	11	1	PEDESTRIAN	1038	n/a	n/a	1	n/a	0	0	0	n/a	n/a	n/a	n/a	n/a
3782229	REC_WORD	wordpools/wasnorm_wordpool_less_exclusions.txt	LTP185	ltpFR	7	11	1	JEEP	753	n/a	n/a	0	n/a	0	0	0	n/a	n/a	n/a	n/a	n/a
3782778	REC_WORD	wordpools/wasnorm_wordpool_less_exclusions.txt	LTP185	ltpFR	7	11	1	SIRLOIN	1311	n/a	n/a	0	n/a	0	0	0	n/a	n/a	n/a	n/a	n/a
3784085	REC_WORD	wordpools/wasnorm_wordpool_less_exclusions.txt	LTP185	ltpFR	7	11	1	GRILL	661	n/a	n/a	0	n/a	0	0	0	n/a	n/a	n/a	n/a	n/a
3784803	REC_WORD	wordpools/wasnorm_wordpool_less_exclusions.txt	LTP185	ltpFR	7	11	1	PLAZA	1088	n/a	n/a	0	n/a	0	0	0	n/a	n/a	n/a	n/a	n/a
3786140	REC_WORD	wordpools/wasnorm_wordpool_less_exclusions.txt	LTP185	ltpFR	7	11	1	BAG	69	n/a	n/a	0	n/a	0	0	0	n/a	n/a	n/a	n/a	n/a
3788160	REC_WORD	wordpools/wasnorm_wordpool_less_exclusions.txt	LTP185	ltpFR	7	11	1	NIGHTGOWN	953	n/a	n/a	0	n/a	0	0	0	n/a	n/a	n/a	n/a	n/a
3788790	REC_WORD	wordpools/wasnorm_wordpool_less_exclusions.txt	LTP185	ltpFR	7	11	1	PAD	998	n/a	n/a	0	n/a	0	0	0	n/a	n/a	n/a	n/a	n/a
3983521	WORD	wordpools/wasnorm_wordpool_less_exclusions.txt	LTP185	ltpFR	7	12	1	BEAST	108	n/a	n/a	1	n/a	0	0	0	0.422607421875	0.5869140625	0	lower	zerothre.ttf
3987452	WORD	wordpools/wasnorm_wordpool_less_exclusions.txt	LTP185	ltpFR	7	12	1	COYOTE	396	n/a	n/a	1	n/a	0	0	0	0.422607421875	0.5869140625	0	lower	zerothre.ttf
3991584	WORD	wordpools/wasnorm_wordpool_less_exclusions.txt	LTP185	ltpFR	7	12	1	RUBY	1214	n/a	n/a	0	n/a	0	0	0	0.422607421875	0.5869140625	0	lower	zerothre.ttf
