onset	duration	trial_type	sample	stim_file	subject	experiment	session	trial	item_name	item_num	list	answer	test_x	test_y	test_z
213.212890625	n/a	SESS_START	436660	n/a	LTP387	ltpFR2	1	n/a	n/a	n/a	n/a	n/a	0	0	0
232.83154296875	n/a	START	476839	n/a	LTP387	ltpFR2	1	n/a	n/a	n/a	-1	n/a	n/a	n/a	n/a
232.845703125	n/a	PROB	476868	n/a	LTP387	ltpFR2	1	n/a	n/a	n/a	-1	14	3	2	9
236.3623046875	n/a	PROB	484070	n/a	LTP387	ltpFR2	1	n/a	n/a	n/a	-1	18	8	4	6
239.3125	n/a	PROB	490112	n/a	LTP387	ltpFR2	1	n/a	n/a	n/a	-1	17	3	7	7
241.2451171875	n/a	PROB	494070	n/a	LTP387	ltpFR2	1	n/a	n/a	n/a	-1	20	5	8	7
244.8310546875	n/a	STOP	501414	n/a	LTP387	ltpFR2	1	n/a	n/a	n/a	-1	n/a	n/a	n/a	n/a
293.45947265625	n/a	WORD	601005	wordpools/wasnorm_wordpool_576.txt	LTP387	ltpFR2	1	1	GARLIC	624	n/a	n/a	0	0	0
296.24267578125	n/a	WORD	606705	wordpools/wasnorm_wordpool_576.txt	LTP387	ltpFR2	1	1	CLIMBER	323	n/a	n/a	0	0	0
298.7763671875	n/a	WORD	611894	wordpools/wasnorm_wordpool_576.txt	LTP387	ltpFR2	1	1	SLOPE	1328	n/a	n/a	0	0	0
301.50927734375	n/a	WORD	617491	wordpools/wasnorm_wordpool_576.txt	LTP387	ltpFR2	1	1	LEADER	807	n/a	n/a	0	0	0
304.05908203125	n/a	WORD	622713	wordpools/wasnorm_wordpool_576.txt	LTP387	ltpFR2	1	1	VENUS	1557	n/a	n/a	0	0	0
306.64208984375	n/a	WORD	628003	wordpools/wasnorm_wordpool_576.txt	LTP387	ltpFR2	1	1	SWITCH	1422	n/a	n/a	0	0	0
309.4091796875	n/a	WORD	633670	wordpools/wasnorm_wordpool_576.txt	LTP387	ltpFR2	1	1	LAMP	798	n/a	n/a	0	0	0
311.92431640625	n/a	WORD	638821	wordpools/wasnorm_wordpool_576.txt	LTP387	ltpFR2	1	1	KNIFE	785	n/a	n/a	0	0	0
314.55908203125	n/a	WORD	644217	wordpools/wasnorm_wordpool_576.txt	LTP387	ltpFR2	1	1	LABEL	790	n/a	n/a	0	0	0
317.15869140625	n/a	WORD	649541	wordpools/wasnorm_wordpool_576.txt	LTP387	ltpFR2	1	1	DENIM	446	n/a	n/a	0	0	0
319.875	n/a	WORD	655104	wordpools/wasnorm_wordpool_576.txt	LTP387	ltpFR2	1	1	ROBIN	1199	n/a	n/a	0	0	0
322.49169921875	n/a	WORD	660463	wordpools/wasnorm_wordpool_576.txt	LTP387	ltpFR2	1	1	ROBOT	1200	n/a	n/a	0	0	0
325.02490234375	n/a	WORD	665651	wordpools/wasnorm_wordpool_576.txt	LTP387	ltpFR2	1	1	BADGE	68	n/a	n/a	0	0	0
327.5244140625	n/a	WORD	670770	wordpools/wasnorm_wordpool_576.txt	LTP387	ltpFR2	1	1	BRACES	164	n/a	n/a	0	0	0
330.0576171875	n/a	WORD	675958	wordpools/wasnorm_wordpool_576.txt	LTP387	ltpFR2	1	1	PASTA	1021	n/a	n/a	0	0	0
332.67431640625	n/a	WORD	681317	wordpools/wasnorm_wordpool_576.txt	LTP387	ltpFR2	1	1	RELISH	1183	n/a	n/a	0	0	0
335.32421875	n/a	WORD	686744	wordpools/wasnorm_wordpool_576.txt	LTP387	ltpFR2	1	1	SALAD	1224	n/a	n/a	0	0	0
338.07421875	n/a	WORD	692376	wordpools/wasnorm_wordpool_576.txt	LTP387	ltpFR2	1	1	SHORTS	1293	n/a	n/a	0	0	0
340.59130859375	n/a	WORD	697531	wordpools/wasnorm_wordpool_576.txt	LTP387	ltpFR2	1	1	CROSS	413	n/a	n/a	0	0	0
343.35693359375	n/a	WORD	703195	wordpools/wasnorm_wordpool_576.txt	LTP387	ltpFR2	1	1	SCALPEL	1243	n/a	n/a	0	0	0
345.791015625	n/a	WORD	708180	wordpools/wasnorm_wordpool_576.txt	LTP387	ltpFR2	1	1	TWIG	1527	n/a	n/a	0	0	0
348.47412109375	n/a	WORD	713675	wordpools/wasnorm_wordpool_576.txt	LTP387	ltpFR2	1	1	BLOCKADE	137	n/a	n/a	0	0	0
351.20703125	n/a	WORD	719272	wordpools/wasnorm_wordpool_576.txt	LTP387	ltpFR2	1	1	HORNET	718	n/a	n/a	0	0	0
353.90673828125	n/a	WORD	724801	wordpools/wasnorm_wordpool_576.txt	LTP387	ltpFR2	1	1	ASIA	46	n/a	n/a	0	0	0
355.52392578125	n/a	START	728113	n/a	LTP387	ltpFR2	1	n/a	n/a	n/a	1	n/a	n/a	n/a	n/a
356.70849609375	n/a	DISTRACTOR	730539	n/a	LTP387	ltpFR2	1	1	n/a	n/a	n/a	n/a	0	0	0
356.7236328125	n/a	PROB	730570	n/a	LTP387	ltpFR2	1	n/a	n/a	n/a	1	17	8	1	8
359.08984375	n/a	PROB	735416	n/a	LTP387	ltpFR2	1	n/a	n/a	n/a	1	20	9	2	9
361.056640625	n/a	PROB	739444	n/a	LTP387	ltpFR2	1	n/a	n/a	n/a	1	13	2	5	6
363.50634765625	n/a	PROB	744461	n/a	LTP387	ltpFR2	1	n/a	n/a	n/a	1	17	2	6	9
365.3896484375	n/a	PROB	748318	n/a	LTP387	ltpFR2	1	n/a	n/a	n/a	1	13	4	6	3
367.13916015625	n/a	PROB	751901	n/a	LTP387	ltpFR2	1	n/a	n/a	n/a	1	10	3	5	2
368.8564453125	n/a	PROB	755418	n/a	LTP387	ltpFR2	1	n/a	n/a	n/a	1	15	9	5	1
370.5234375	n/a	PROB	758832	n/a	LTP387	ltpFR2	1	n/a	n/a	n/a	1	19	9	7	3
372.1064453125	n/a	PROB	762074	n/a	LTP387	ltpFR2	1	n/a	n/a	n/a	1	9	5	4	4
375.25634765625	n/a	PROB	768525	n/a	LTP387	ltpFR2	1	n/a	n/a	n/a	1	17	8	1	8
379.52294921875	n/a	STOP	777263	n/a	LTP387	ltpFR2	1	n/a	n/a	n/a	1	n/a	n/a	n/a	n/a
381.30615234375	n/a	REC_START	780915	n/a	LTP387	ltpFR2	1	1	n/a	n/a	n/a	n/a	0	0	0
384.82763671875	n/a	REC_WORD	788127	wordpools/wasnorm_wordpool_576.txt	LTP387	ltpFR2	1	1	CLIMBER	323	n/a	n/a	0	0	0
386.03173828125	n/a	REC_WORD	790593	wordpools/wasnorm_wordpool_576.txt	LTP387	ltpFR2	1	1	LEADER	807	n/a	n/a	0	0	0
387.1337890625	n/a	REC_WORD	792850	wordpools/wasnorm_wordpool_576.txt	LTP387	ltpFR2	1	1	SLOPE	1328	n/a	n/a	0	0	0
391.15087890625	n/a	REC_WORD	801077	wordpools/wasnorm_wordpool_576.txt	LTP387	ltpFR2	1	1	DENIM	446	n/a	n/a	0	0	0
392.37353515625	n/a	REC_WORD	803581	wordpools/wasnorm_wordpool_576.txt	LTP387	ltpFR2	1	1	ROBOT	1200	n/a	n/a	0	0	0
393.6748046875	n/a	REC_WORD	806246	wordpools/wasnorm_wordpool_576.txt	LTP387	ltpFR2	1	1	SCALPEL	1243	n/a	n/a	0	0	0
395.41162109375	n/a	REC_WORD	809803	wordpools/wasnorm_wordpool_576.txt	LTP387	ltpFR2	1	1	GARLIC	624	n/a	n/a	0	0	0
396.66357421875	n/a	REC_WORD	812367	wordpools/wasnorm_wordpool_576.txt	LTP387	ltpFR2	1	1	PASTA	1021	n/a	n/a	0	0	0
398.2724609375	n/a	REC_WORD	815662	wordpools/wasnorm_wordpool_576.txt	LTP387	ltpFR2	1	1	RELISH	1183	n/a	n/a	0	0	0
400.51123046875	n/a	REC_WORD	820247	wordpools/wasnorm_wordpool_576.txt	LTP387	ltpFR2	1	1	SALAD	1224	n/a	n/a	0	0	0
403.43212890625	n/a	REC_WORD	826229	wordpools/wasnorm_wordpool_576.txt	LTP387	ltpFR2	1	1	VENUS	1557	n/a	n/a	0	0	0
409.5703125	n/a	REC_WORD	838800	wordpools/wasnorm_wordpool_576.txt	LTP387	ltpFR2	1	1	BLOCKADE	137	n/a	n/a	0	0	0
410.81396484375	n/a	REC_WORD	841347	wordpools/wasnorm_wordpool_576.txt	LTP387	ltpFR2	1	1	CROSS	413	n/a	n/a	0	0	0
411.8720703125	n/a	REC_WORD	843514	wordpools/wasnorm_wordpool_576.txt	LTP387	ltpFR2	1	1	HORNET	718	n/a	n/a	0	0	0
413.6337890625	n/a	REC_WORD	847122	wordpools/wasnorm_wordpool_576.txt	LTP387	ltpFR2	1	1	BRACES	164	n/a	n/a	0	0	0
415.64306640625	n/a	REC_WORD	851237	wordpools/wasnorm_wordpool_576.txt	LTP387	ltpFR2	1	1	ASIA	46	n/a	n/a	0	0	0
429.71826171875	n/a	REC_WORD	880063	wordpools/wasnorm_wordpool_576.txt	LTP387	ltpFR2	1	1	SHORTS	1293	n/a	n/a	0	0	0
448.23291015625	n/a	REC_WORD	917981	wordpools/wasnorm_wordpool_576.txt	LTP387	ltpFR2	1	1	TWIG	1527	n/a	n/a	0	0	0
471.7353515625	n/a	DISTRACTOR	966114	n/a	LTP387	ltpFR2	1	2	n/a	n/a	n/a	n/a	0	0	0
471.7353515625	n/a	START	966114	n/a	LTP387	ltpFR2	1	n/a	n/a	n/a	2	n/a	n/a	n/a	n/a
471.7509765625	n/a	PROB	966146	n/a	LTP387	ltpFR2	1	n/a	n/a	n/a	2	19	9	4	6
474.05126953125	n/a	PROB	970857	n/a	LTP387	ltpFR2	1	n/a	n/a	n/a	2	5	1	1	3
475.60107421875	n/a	PROB	974031	n/a	LTP387	ltpFR2	1	n/a	n/a	n/a	2	17	9	4	4
477.48388671875	n/a	PROB	977887	n/a	LTP387	ltpFR2	1	n/a	n/a	n/a	2	13	3	2	8
479.333984375	n/a	PROB	981676	n/a	LTP387	ltpFR2	1	n/a	n/a	n/a	2	13	5	3	4
482.4677734375	n/a	PROB	988094	n/a	LTP387	ltpFR2	1	n/a	n/a	n/a	2	7	2	4	1
484.68359375	n/a	PROB	992632	n/a	LTP387	ltpFR2	1	n/a	n/a	n/a	2	19	7	9	3
486.68359375	n/a	PROB	996728	n/a	LTP387	ltpFR2	1	n/a	n/a	n/a	2	13	1	8	4
490.2333984375	n/a	PROB	1003998	n/a	LTP387	ltpFR2	1	n/a	n/a	n/a	2	14	3	9	2
492.25048828125	n/a	PROB	1008129	n/a	LTP387	ltpFR2	1	n/a	n/a	n/a	2	19	9	5	5
493.81640625	n/a	PROB	1011336	n/a	LTP387	ltpFR2	1	n/a	n/a	n/a	2	12	5	2	5
495.443359375	n/a	STOP	1014668	n/a	LTP387	ltpFR2	1	n/a	n/a	n/a	2	n/a	n/a	n/a	n/a
496.88330078125	n/a	WORD	1017617	wordpools/wasnorm_wordpool_576.txt	LTP387	ltpFR2	1	2	TUTU	1524	n/a	n/a	0	0	0
499.58349609375	n/a	WORD	1023147	wordpools/wasnorm_wordpool_576.txt	LTP387	ltpFR2	1	2	BOUQUET	157	n/a	n/a	0	0	0
502.26611328125	n/a	WORD	1028641	wordpools/wasnorm_wordpool_576.txt	LTP387	ltpFR2	1	2	POWDER	1117	n/a	n/a	0	0	0
504.93212890625	n/a	WORD	1034101	wordpools/wasnorm_wordpool_576.txt	LTP387	ltpFR2	1	2	CRIB	407	n/a	n/a	0	0	0
507.43310546875	n/a	WORD	1039223	wordpools/wasnorm_wordpool_576.txt	LTP387	ltpFR2	1	2	CONTRACT	368	n/a	n/a	0	0	0
510.14990234375	n/a	WORD	1044787	wordpools/wasnorm_wordpool_576.txt	LTP387	ltpFR2	1	2	TRACTOR	1493	n/a	n/a	0	0	0
512.666015625	n/a	WORD	1049940	wordpools/wasnorm_wordpool_576.txt	LTP387	ltpFR2	1	2	CEILING	265	n/a	n/a	0	0	0
515.3486328125	n/a	WORD	1055434	wordpools/wasnorm_wordpool_576.txt	LTP387	ltpFR2	1	2	CUSTARD	429	n/a	n/a	0	0	0
517.8330078125	n/a	WORD	1060522	wordpools/wasnorm_wordpool_576.txt	LTP387	ltpFR2	1	2	SUSPECT	1415	n/a	n/a	0	0	0
520.44873046875	n/a	WORD	1065879	wordpools/wasnorm_wordpool_576.txt	LTP387	ltpFR2	1	2	WORKER	1621	n/a	n/a	0	0	0
523.24853515625	n/a	WORD	1071613	wordpools/wasnorm_wordpool_576.txt	LTP387	ltpFR2	1	2	LION	827	n/a	n/a	0	0	0
525.96533203125	n/a	WORD	1077177	wordpools/wasnorm_wordpool_576.txt	LTP387	ltpFR2	1	2	QUAIL	1147	n/a	n/a	0	0	0
528.5986328125	n/a	WORD	1082570	wordpools/wasnorm_wordpool_576.txt	LTP387	ltpFR2	1	2	PARROT	1015	n/a	n/a	0	0	0
531.115234375	n/a	WORD	1087724	wordpools/wasnorm_wordpool_576.txt	LTP387	ltpFR2	1	2	FIREPLACE	570	n/a	n/a	0	0	0
533.93017578125	n/a	WORD	1093489	wordpools/wasnorm_wordpool_576.txt	LTP387	ltpFR2	1	2	EAGLE	512	n/a	n/a	0	0	0
536.498046875	n/a	WORD	1098748	wordpools/wasnorm_wordpool_576.txt	LTP387	ltpFR2	1	2	LIPSTICK	829	n/a	n/a	0	0	0
539.1982421875	n/a	WORD	1104278	wordpools/wasnorm_wordpool_576.txt	LTP387	ltpFR2	1	2	SALMON	1227	n/a	n/a	0	0	0
542.01513671875	n/a	WORD	1110047	wordpools/wasnorm_wordpool_576.txt	LTP387	ltpFR2	1	2	FLIPPER	580	n/a	n/a	0	0	0
544.5478515625	n/a	WORD	1115234	wordpools/wasnorm_wordpool_576.txt	LTP387	ltpFR2	1	2	PADDING	999	n/a	n/a	0	0	0
547.19775390625	n/a	WORD	1120661	wordpools/wasnorm_wordpool_576.txt	LTP387	ltpFR2	1	2	WITNESS	1618	n/a	n/a	0	0	0
549.7978515625	n/a	WORD	1125986	wordpools/wasnorm_wordpool_576.txt	LTP387	ltpFR2	1	2	LEOPARD	812	n/a	n/a	0	0	0
552.53076171875	n/a	WORD	1131583	wordpools/wasnorm_wordpool_576.txt	LTP387	ltpFR2	1	2	HIGHWAY	707	n/a	n/a	0	0	0
555.09765625	n/a	WORD	1136840	wordpools/wasnorm_wordpool_576.txt	LTP387	ltpFR2	1	2	PEPPER	1047	n/a	n/a	0	0	0
557.8134765625	n/a	WORD	1142402	wordpools/wasnorm_wordpool_576.txt	LTP387	ltpFR2	1	2	TOASTER	1472	n/a	n/a	0	0	0
559.4306640625	n/a	START	1145714	n/a	LTP387	ltpFR2	1	n/a	n/a	n/a	3	n/a	n/a	n/a	n/a
560.63037109375	n/a	DISTRACTOR	1148171	n/a	LTP387	ltpFR2	1	2	n/a	n/a	n/a	n/a	0	0	0
560.6474609375	n/a	PROB	1148206	n/a	LTP387	ltpFR2	1	n/a	n/a	n/a	3	17	6	2	9
562.74755859375	n/a	PROB	1152507	n/a	LTP387	ltpFR2	1	n/a	n/a	n/a	3	18	8	5	5
564.24755859375	n/a	PROB	1155579	n/a	LTP387	ltpFR2	1	n/a	n/a	n/a	3	9	1	2	6
565.76318359375	n/a	PROB	1158683	n/a	LTP387	ltpFR2	1	n/a	n/a	n/a	3	17	2	6	9
568.5302734375	n/a	PROB	1164350	n/a	LTP387	ltpFR2	1	n/a	n/a	n/a	3	14	1	4	9
570.1630859375	n/a	PROB	1167694	n/a	LTP387	ltpFR2	1	n/a	n/a	n/a	3	26	9	9	8
574.4130859375	n/a	PROB	1176398	n/a	LTP387	ltpFR2	1	n/a	n/a	n/a	3	9	4	2	3
576.77978515625	n/a	PROB	1181245	n/a	LTP387	ltpFR2	1	n/a	n/a	n/a	3	15	2	4	9
578.39599609375	n/a	PROB	1184555	n/a	LTP387	ltpFR2	1	n/a	n/a	n/a	3	18	7	7	4
579.99609375	n/a	PROB	1187832	n/a	LTP387	ltpFR2	1	n/a	n/a	n/a	3	17	6	3	8
581.95361328125	n/a	STOP	1191841	n/a	LTP387	ltpFR2	1	n/a	n/a	n/a	3	n/a	n/a	n/a	n/a
585.2294921875	n/a	REC_START	1198550	n/a	LTP387	ltpFR2	1	2	n/a	n/a	n/a	n/a	0	0	0
588.36767578125	n/a	REC_WORD	1204977	wordpools/wasnorm_wordpool_576.txt	LTP387	ltpFR2	1	2	BOUQUET	157	n/a	n/a	0	0	0
589.5166015625	n/a	REC_WORD	1207330	wordpools/wasnorm_wordpool_576.txt	LTP387	ltpFR2	1	2	TUTU	1524	n/a	n/a	0	0	0
591.33251953125	n/a	REC_WORD	1211049	wordpools/wasnorm_wordpool_576.txt	LTP387	ltpFR2	1	2	LIPSTICK	829	n/a	n/a	0	0	0
592.99951171875	n/a	REC_WORD	1214463	wordpools/wasnorm_wordpool_576.txt	LTP387	ltpFR2	1	2	CRIB	407	n/a	n/a	0	0	0
594.62646484375	n/a	REC_WORD	1217795	wordpools/wasnorm_wordpool_576.txt	LTP387	ltpFR2	1	2	LION	827	n/a	n/a	0	0	0
596.00830078125	n/a	REC_WORD	1220625	wordpools/wasnorm_wordpool_576.txt	LTP387	ltpFR2	1	2	LEOPARD	812	n/a	n/a	0	0	0
597.42822265625	n/a	REC_WORD	1223533	wordpools/wasnorm_wordpool_576.txt	LTP387	ltpFR2	1	2	PARROT	1015	n/a	n/a	0	0	0
599.197265625	n/a	REC_WORD	1227156	wordpools/wasnorm_wordpool_576.txt	LTP387	ltpFR2	1	2	EAGLE	512	n/a	n/a	0	0	0
602.51123046875	n/a	REC_WORD	1233943	wordpools/wasnorm_wordpool_576.txt	LTP387	ltpFR2	1	2	TRACTOR	1493	n/a	n/a	0	0	0
603.81591796875	n/a	REC_WORD	1236615	wordpools/wasnorm_wordpool_576.txt	LTP387	ltpFR2	1	2	HIGHWAY	707	n/a	n/a	0	0	0
605.455078125	n/a	REC_WORD	1239972	wordpools/wasnorm_wordpool_576.txt	LTP387	ltpFR2	1	2	WORKER	1621	n/a	n/a	0	0	0
608.22509765625	n/a	REC_WORD	1245645	wordpools/wasnorm_wordpool_576.txt	LTP387	ltpFR2	1	2	SUSPECT	1415	n/a	n/a	0	0	0
612.4541015625	n/a	REC_WORD	1254306	wordpools/wasnorm_wordpool_576.txt	LTP387	ltpFR2	1	2	SWITCH	1422	n/a	n/a	0	0	0
640.2490234375	n/a	REC_WORD	1311230	wordpools/wasnorm_wordpool_576.txt	LTP387	ltpFR2	1	2	QUAIL	1147	n/a	n/a	0	0	0
653.50146484375	n/a	REC_WORD	1338371	wordpools/wasnorm_wordpool_576.txt	LTP387	ltpFR2	1	2	CEILING	265	n/a	n/a	0	0	0
675.69189453125	n/a	WORD	1383817	wordpools/wasnorm_wordpool_576.txt	LTP387	ltpFR2	1	3	SWORD	1423	n/a	n/a	0	0	0
678.35791015625	n/a	WORD	1389277	wordpools/wasnorm_wordpool_576.txt	LTP387	ltpFR2	1	3	FLOWER	584	n/a	n/a	0	0	0
680.7919921875	n/a	WORD	1394262	wordpools/wasnorm_wordpool_576.txt	LTP387	ltpFR2	1	3	TURNIP	1521	n/a	n/a	0	0	0
683.4248046875	n/a	WORD	1399654	wordpools/wasnorm_wordpool_576.txt	LTP387	ltpFR2	1	3	BLADE	134	n/a	n/a	0	0	0
685.857421875	n/a	WORD	1404636	wordpools/wasnorm_wordpool_576.txt	LTP387	ltpFR2	1	3	BUTCHER	203	n/a	n/a	0	0	0
688.640625	n/a	WORD	1410336	wordpools/wasnorm_wordpool_576.txt	LTP387	ltpFR2	1	3	PLUTO	1092	n/a	n/a	0	0	0
691.357421875	n/a	WORD	1415900	wordpools/wasnorm_wordpool_576.txt	LTP387	ltpFR2	1	3	VIKING	1565	n/a	n/a	0	0	0
693.857421875	n/a	WORD	1421020	wordpools/wasnorm_wordpool_576.txt	LTP387	ltpFR2	1	3	PASTRY	1022	n/a	n/a	0	0	0
696.357421875	n/a	WORD	1426140	wordpools/wasnorm_wordpool_576.txt	LTP387	ltpFR2	1	3	MARKET	871	n/a	n/a	0	0	0
698.84033203125	n/a	WORD	1431225	wordpools/wasnorm_wordpool_576.txt	LTP387	ltpFR2	1	3	THREAD	1460	n/a	n/a	0	0	0
701.59033203125	n/a	WORD	1436857	wordpools/wasnorm_wordpool_576.txt	LTP387	ltpFR2	1	3	STUDENT	1395	n/a	n/a	0	0	0
704.4072265625	n/a	WORD	1442626	wordpools/wasnorm_wordpool_576.txt	LTP387	ltpFR2	1	3	YACHT	1629	n/a	n/a	0	0	0
706.8740234375	n/a	WORD	1447678	wordpools/wasnorm_wordpool_576.txt	LTP387	ltpFR2	1	3	HOSTESS	723	n/a	n/a	0	0	0
709.45703125	n/a	WORD	1452968	wordpools/wasnorm_wordpool_576.txt	LTP387	ltpFR2	1	3	MAMMAL	861	n/a	n/a	0	0	0
712.15673828125	n/a	WORD	1458497	wordpools/wasnorm_wordpool_576.txt	LTP387	ltpFR2	1	3	CHURCH	307	n/a	n/a	0	0	0
714.77294921875	n/a	WORD	1463855	wordpools/wasnorm_wordpool_576.txt	LTP387	ltpFR2	1	3	THRONE	1461	n/a	n/a	0	0	0
717.45654296875	n/a	WORD	1469351	wordpools/wasnorm_wordpool_576.txt	LTP387	ltpFR2	1	3	CABBAGE	210	n/a	n/a	0	0	0
720.03955078125	n/a	WORD	1474641	wordpools/wasnorm_wordpool_576.txt	LTP387	ltpFR2	1	3	BARLEY	88	n/a	n/a	0	0	0
722.8056640625	n/a	WORD	1480306	wordpools/wasnorm_wordpool_576.txt	LTP387	ltpFR2	1	3	PLAYGROUND	1087	n/a	n/a	0	0	0
725.2724609375	n/a	WORD	1485358	wordpools/wasnorm_wordpool_576.txt	LTP387	ltpFR2	1	3	COOK	372	n/a	n/a	0	0	0
727.70556640625	n/a	WORD	1490341	wordpools/wasnorm_wordpool_576.txt	LTP387	ltpFR2	1	3	PADDLE	1000	n/a	n/a	0	0	0
730.439453125	n/a	WORD	1495940	wordpools/wasnorm_wordpool_576.txt	LTP387	ltpFR2	1	3	CANDY	230	n/a	n/a	0	0	0
732.88916015625	n/a	WORD	1500957	wordpools/wasnorm_wordpool_576.txt	LTP387	ltpFR2	1	3	FLEET	578	n/a	n/a	0	0	0
735.705078125	n/a	WORD	1506724	wordpools/wasnorm_wordpool_576.txt	LTP387	ltpFR2	1	3	COLONEL	348	n/a	n/a	0	0	0
737.322265625	n/a	START	1510036	n/a	LTP387	ltpFR2	1	n/a	n/a	n/a	4	n/a	n/a	n/a	n/a
738.21826171875	n/a	DISTRACTOR	1511871	n/a	LTP387	ltpFR2	1	3	n/a	n/a	n/a	n/a	0	0	0
738.22216796875	n/a	PROB	1511879	n/a	LTP387	ltpFR2	1	n/a	n/a	n/a	4	15	7	4	4
740.32177734375	n/a	PROB	1516179	n/a	LTP387	ltpFR2	1	n/a	n/a	n/a	4	18	7	5	6
742.837890625	n/a	PROB	1521332	n/a	LTP387	ltpFR2	1	n/a	n/a	n/a	4	7	2	4	1
744.8046875	n/a	PROB	1525360	n/a	LTP387	ltpFR2	1	n/a	n/a	n/a	4	4	2	1	1
746.28759765625	n/a	PROB	1528397	n/a	LTP387	ltpFR2	1	n/a	n/a	n/a	4	15	2	8	5
748.0048828125	n/a	PROB	1531914	n/a	LTP387	ltpFR2	1	n/a	n/a	n/a	4	11	4	5	2
750.3046875	n/a	PROB	1536624	n/a	LTP387	ltpFR2	1	n/a	n/a	n/a	4	13	4	1	8
752.40478515625	n/a	PROB	1540925	n/a	LTP387	ltpFR2	1	n/a	n/a	n/a	4	11	1	9	1
753.771484375	n/a	PROB	1543724	n/a	LTP387	ltpFR2	1	n/a	n/a	n/a	4	10	3	6	1
755.904296875	n/a	PROB	1548092	n/a	LTP387	ltpFR2	1	n/a	n/a	n/a	4	10	2	5	3
757.88720703125	n/a	PROB	1552153	n/a	LTP387	ltpFR2	1	n/a	n/a	n/a	4	14	5	4	5
761.3212890625	n/a	STOP	1559186	n/a	LTP387	ltpFR2	1	n/a	n/a	n/a	4	n/a	n/a	n/a	n/a
763.23828125	n/a	REC_START	1563112	n/a	LTP387	ltpFR2	1	3	n/a	n/a	n/a	n/a	0	0	0
766.05322265625	n/a	REC_WORD	1568877	wordpools/wasnorm_wordpool_576.txt	LTP387	ltpFR2	1	3	STUDENT	1395	n/a	n/a	0	0	0
767.29736328125	n/a	REC_WORD	1571425	wordpools/wasnorm_wordpool_576.txt	LTP387	ltpFR2	1	3	HOSTESS	723	n/a	n/a	0	0	0
768.68017578125	n/a	REC_WORD	1574257	wordpools/wasnorm_wordpool_576.txt	LTP387	ltpFR2	1	3	COOK	372	n/a	n/a	0	0	0
769.9990234375	n/a	REC_WORD	1576958	wordpools/wasnorm_wordpool_576.txt	LTP387	ltpFR2	1	3	BUTCHER	203	n/a	n/a	0	0	0
772.0830078125	n/a	REC_WORD	1581226	wordpools/wasnorm_wordpool_576.txt	LTP387	ltpFR2	1	3	VIKING	1565	n/a	n/a	0	0	0
773.20703125	n/a	REC_WORD	1583528	wordpools/wasnorm_wordpool_576.txt	LTP387	ltpFR2	1	3	SWORD	1423	n/a	n/a	0	0	0
774.677734375	n/a	REC_WORD	1586540	wordpools/wasnorm_wordpool_576.txt	LTP387	ltpFR2	1	3	BLADE	134	n/a	n/a	0	0	0
776.001953125	n/a	REC_WORD	1589252	wordpools/wasnorm_wordpool_576.txt	LTP387	ltpFR2	1	3	PLUTO	1092	n/a	n/a	0	0	0
777.5078125	n/a	REC_WORD	1592336	wordpools/wasnorm_wordpool_576.txt	LTP387	ltpFR2	1	3	PADDLE	1000	n/a	n/a	0	0	0
779.01171875	n/a	REC_WORD	1595416	wordpools/wasnorm_wordpool_576.txt	LTP387	ltpFR2	1	3	YACHT	1629	n/a	n/a	0	0	0
781.5947265625	n/a	REC_WORD	1600706	wordpools/wasnorm_wordpool_576.txt	LTP387	ltpFR2	1	3	MARKET	871	n/a	n/a	0	0	0
782.810546875	n/a	REC_WORD	1603196	wordpools/wasnorm_wordpool_576.txt	LTP387	ltpFR2	1	3	THREAD	1460	n/a	n/a	0	0	0
784.37841796875	n/a	REC_WORD	1606407	wordpools/wasnorm_wordpool_576.txt	LTP387	ltpFR2	1	3	CHURCH	307	n/a	n/a	0	0	0
786.1435546875	n/a	REC_WORD	1610022	wordpools/wasnorm_wordpool_576.txt	LTP387	ltpFR2	1	3	PLAYGROUND	1087	n/a	n/a	0	0	0
788.42626953125	n/a	REC_WORD	1614697	wordpools/wasnorm_wordpool_576.txt	LTP387	ltpFR2	1	3	CABBAGE	210	n/a	n/a	0	0	0
790.21630859375	n/a	REC_WORD	1618363	wordpools/wasnorm_wordpool_576.txt	LTP387	ltpFR2	1	3	TURNIP	1521	n/a	n/a	0	0	0
796.63037109375	n/a	REC_WORD	1631499	wordpools/wasnorm_wordpool_576.txt	LTP387	ltpFR2	1	3	FLOWER	584	n/a	n/a	0	0	0
807.54296875	n/a	REC_WORD	1653848	wordpools/wasnorm_wordpool_576.txt	LTP387	ltpFR2	1	3	FLEET	578	n/a	n/a	0	0	0
809.82763671875	n/a	REC_WORD	1658527	wordpools/wasnorm_wordpool_576.txt	LTP387	ltpFR2	1	3	COLONEL	348	n/a	n/a	0	0	0
828.80517578125	n/a	REC_WORD	1697393	wordpools/wasnorm_wordpool_576.txt	LTP387	ltpFR2	1	3	MAMMAL	861	n/a	n/a	0	0	0
853.71630859375	n/a	WORD	1748411	wordpools/wasnorm_wordpool_576.txt	LTP387	ltpFR2	1	4	NEUTRON	947	n/a	n/a	0	0	0
856.2333984375	n/a	WORD	1753566	wordpools/wasnorm_wordpool_576.txt	LTP387	ltpFR2	1	4	MEDAL	885	n/a	n/a	0	0	0
858.8662109375	n/a	WORD	1758958	wordpools/wasnorm_wordpool_576.txt	LTP387	ltpFR2	1	4	MISSILE	900	n/a	n/a	0	0	0
861.44921875	n/a	WORD	1764248	wordpools/wasnorm_wordpool_576.txt	LTP387	ltpFR2	1	4	DRAGON	492	n/a	n/a	0	0	0
864.2490234375	n/a	WORD	1769982	wordpools/wasnorm_wordpool_576.txt	LTP387	ltpFR2	1	4	MASK	876	n/a	n/a	0	0	0
866.93115234375	n/a	WORD	1775475	wordpools/wasnorm_wordpool_576.txt	LTP387	ltpFR2	1	4	UMPIRE	1535	n/a	n/a	0	0	0
869.51611328125	n/a	WORD	1780769	wordpools/wasnorm_wordpool_576.txt	LTP387	ltpFR2	1	4	SPHINX	1349	n/a	n/a	0	0	0
871.9658203125	n/a	WORD	1785786	wordpools/wasnorm_wordpool_576.txt	LTP387	ltpFR2	1	4	TEMPLE	1448	n/a	n/a	0	0	0
874.798828125	n/a	WORD	1791588	wordpools/wasnorm_wordpool_576.txt	LTP387	ltpFR2	1	4	BRIEFCASE	175	n/a	n/a	0	0	0
877.3486328125	n/a	WORD	1796810	wordpools/wasnorm_wordpool_576.txt	LTP387	ltpFR2	1	4	TOURIST	1488	n/a	n/a	0	0	0
880.03173828125	n/a	WORD	1802305	wordpools/wasnorm_wordpool_576.txt	LTP387	ltpFR2	1	4	COSTUME	383	n/a	n/a	0	0	0
882.515625	n/a	WORD	1807392	wordpools/wasnorm_wordpool_576.txt	LTP387	ltpFR2	1	4	BISON	131	n/a	n/a	0	0	0
885.1484375	n/a	WORD	1812784	wordpools/wasnorm_wordpool_576.txt	LTP387	ltpFR2	1	4	DIME	466	n/a	n/a	0	0	0
887.96435546875	n/a	WORD	1818551	wordpools/wasnorm_wordpool_576.txt	LTP387	ltpFR2	1	4	SOFTBALL	1343	n/a	n/a	0	0	0
890.68115234375	n/a	WORD	1824115	wordpools/wasnorm_wordpool_576.txt	LTP387	ltpFR2	1	4	ATLAS	53	n/a	n/a	0	0	0
893.4482421875	n/a	WORD	1829782	wordpools/wasnorm_wordpool_576.txt	LTP387	ltpFR2	1	4	CAPTIVE	240	n/a	n/a	0	0	0
895.9130859375	n/a	WORD	1834830	wordpools/wasnorm_wordpool_576.txt	LTP387	ltpFR2	1	4	CATCHER	258	n/a	n/a	0	0	0
898.6982421875	n/a	WORD	1840534	wordpools/wasnorm_wordpool_576.txt	LTP387	ltpFR2	1	4	FRECKLE	602	n/a	n/a	0	0	0
901.23095703125	n/a	WORD	1845721	wordpools/wasnorm_wordpool_576.txt	LTP387	ltpFR2	1	4	SKILLET	1317	n/a	n/a	0	0	0
904.046875	n/a	WORD	1851488	wordpools/wasnorm_wordpool_576.txt	LTP387	ltpFR2	1	4	WASP	1593	n/a	n/a	0	0	0
906.5810546875	n/a	WORD	1856678	wordpools/wasnorm_wordpool_576.txt	LTP387	ltpFR2	1	4	COCKTAIL	338	n/a	n/a	0	0	0
909.39697265625	n/a	WORD	1862445	wordpools/wasnorm_wordpool_576.txt	LTP387	ltpFR2	1	4	CHAMPAGNE	278	n/a	n/a	0	0	0
912.19677734375	n/a	WORD	1868179	wordpools/wasnorm_wordpool_576.txt	LTP387	ltpFR2	1	4	SCARECROW	1245	n/a	n/a	0	0	0
914.83056640625	n/a	WORD	1873573	wordpools/wasnorm_wordpool_576.txt	LTP387	ltpFR2	1	4	TRIBE	1505	n/a	n/a	0	0	0
916.44775390625	n/a	START	1876885	n/a	LTP387	ltpFR2	1	n/a	n/a	n/a	5	n/a	n/a	n/a	n/a
917.29736328125	n/a	DISTRACTOR	1878625	n/a	LTP387	ltpFR2	1	4	n/a	n/a	n/a	n/a	0	0	0
917.3134765625	n/a	PROB	1878658	n/a	LTP387	ltpFR2	1	n/a	n/a	n/a	5	10	4	2	4
919.3134765625	n/a	PROB	1882754	n/a	LTP387	ltpFR2	1	n/a	n/a	n/a	5	8	1	1	6
920.73046875	n/a	PROB	1885656	n/a	LTP387	ltpFR2	1	n/a	n/a	n/a	5	14	1	9	4
922.1806640625	n/a	PROB	1888626	n/a	LTP387	ltpFR2	1	n/a	n/a	n/a	5	12	3	6	3
924.49658203125	n/a	PROB	1893369	n/a	LTP387	ltpFR2	1	n/a	n/a	n/a	5	17	5	7	5
926.29638671875	n/a	PROB	1897055	n/a	LTP387	ltpFR2	1	n/a	n/a	n/a	5	12	3	1	8
928.37939453125	n/a	PROB	1901321	n/a	LTP387	ltpFR2	1	n/a	n/a	n/a	5	10	6	3	1
929.87939453125	n/a	PROB	1904393	n/a	LTP387	ltpFR2	1	n/a	n/a	n/a	5	17	3	7	7
931.76318359375	n/a	PROB	1908251	n/a	LTP387	ltpFR2	1	n/a	n/a	n/a	5	13	1	3	9
933.2958984375	n/a	PROB	1911390	n/a	LTP387	ltpFR2	1	n/a	n/a	n/a	5	14	6	1	7
935.94482421875	n/a	PROB	1916815	n/a	LTP387	ltpFR2	1	n/a	n/a	n/a	5	13	7	4	2
940.44677734375	n/a	STOP	1926035	n/a	LTP387	ltpFR2	1	n/a	n/a	n/a	5	n/a	n/a	n/a	n/a
942.2958984375	n/a	REC_START	1929822	n/a	LTP387	ltpFR2	1	4	n/a	n/a	n/a	n/a	0	0	0
944.296875	n/a	REC_WORD	1933920	wordpools/wasnorm_wordpool_576.txt	LTP387	ltpFR2	1	4	FRECKLE	602	n/a	n/a	0	0	0
945.927734375	n/a	REC_WORD	1937260	wordpools/wasnorm_wordpool_576.txt	LTP387	ltpFR2	1	4	TOURIST	1488	n/a	n/a	0	0	0
947.40673828125	n/a	REC_WORD	1940289	wordpools/wasnorm_wordpool_576.txt	LTP387	ltpFR2	1	4	ATLAS	53	n/a	n/a	0	0	0
948.8017578125	n/a	REC_WORD	1943146	wordpools/wasnorm_wordpool_576.txt	LTP387	ltpFR2	1	4	SPHINX	1349	n/a	n/a	0	0	0
950.74853515625	n/a	REC_WORD	1947133	wordpools/wasnorm_wordpool_576.txt	LTP387	ltpFR2	1	4	TRIBE	1505	n/a	n/a	0	0	0
952.6435546875	n/a	REC_WORD	1951014	wordpools/wasnorm_wordpool_576.txt	LTP387	ltpFR2	1	4	COSTUME	383	n/a	n/a	0	0	0
955.9443359375	n/a	REC_WORD	1957774	wordpools/wasnorm_wordpool_576.txt	LTP387	ltpFR2	1	4	BRIEFCASE	175	n/a	n/a	0	0	0
958.69921875	n/a	REC_WORD	1963416	wordpools/wasnorm_wordpool_576.txt	LTP387	ltpFR2	1	4	CHAMPAGNE	278	n/a	n/a	0	0	0
960.576171875	n/a	REC_WORD	1967260	wordpools/wasnorm_wordpool_576.txt	LTP387	ltpFR2	1	4	COCKTAIL	338	n/a	n/a	0	0	0
962.3232421875	n/a	REC_WORD	1970838	wordpools/wasnorm_wordpool_576.txt	LTP387	ltpFR2	1	4	NEUTRON	947	n/a	n/a	0	0	0
973.0029296875	n/a	REC_WORD	1992710	wordpools/wasnorm_wordpool_576.txt	LTP387	ltpFR2	1	4	WASP	1593	n/a	n/a	0	0	0
974.72265625	n/a	REC_WORD	1996232	wordpools/wasnorm_wordpool_576.txt	LTP387	ltpFR2	1	4	BISON	131	n/a	n/a	0	0	0
1010.8076171875	n/a	REC_WORD	2070134	wordpools/wasnorm_wordpool_576.txt	LTP387	ltpFR2	1	4	CAPTIVE	240	n/a	n/a	0	0	0
1032.7412109375	n/a	DISTRACTOR	2115054	n/a	LTP387	ltpFR2	1	5	n/a	n/a	n/a	n/a	0	0	0
1032.7421875	n/a	START	2115056	n/a	LTP387	ltpFR2	1	n/a	n/a	n/a	6	n/a	n/a	n/a	n/a
1032.7578125	n/a	PROB	2115088	n/a	LTP387	ltpFR2	1	n/a	n/a	n/a	6	17	4	6	7
1034.791015625	n/a	PROB	2119252	n/a	LTP387	ltpFR2	1	n/a	n/a	n/a	6	14	5	8	1
1036.65771484375	n/a	PROB	2123075	n/a	LTP387	ltpFR2	1	n/a	n/a	n/a	6	11	7	3	1
1038.02587890625	n/a	PROB	2125877	n/a	LTP387	ltpFR2	1	n/a	n/a	n/a	6	21	7	8	6
1040.8076171875	n/a	PROB	2131574	n/a	LTP387	ltpFR2	1	n/a	n/a	n/a	6	11	7	3	1
1042.390625	n/a	PROB	2134816	n/a	LTP387	ltpFR2	1	n/a	n/a	n/a	6	11	1	6	4
1044.939453125	n/a	PROB	2140036	n/a	LTP387	ltpFR2	1	n/a	n/a	n/a	6	18	8	9	1
1046.65771484375	n/a	PROB	2143555	n/a	LTP387	ltpFR2	1	n/a	n/a	n/a	6	4	1	2	1
1047.99072265625	n/a	PROB	2146285	n/a	LTP387	ltpFR2	1	n/a	n/a	n/a	6	18	1	8	9
1049.67333984375	n/a	PROB	2149731	n/a	LTP387	ltpFR2	1	n/a	n/a	n/a	6	15	3	4	8
1051.50732421875	n/a	PROB	2153487	n/a	LTP387	ltpFR2	1	n/a	n/a	n/a	6	16	3	6	7
1053.29052734375	n/a	PROB	2157139	n/a	LTP387	ltpFR2	1	n/a	n/a	n/a	6	11	4	2	5
1055.62646484375	n/a	STOP	2161923	n/a	LTP387	ltpFR2	1	n/a	n/a	n/a	6	n/a	n/a	n/a	n/a
1057.59033203125	n/a	WORD	2165945	wordpools/wasnorm_wordpool_576.txt	LTP387	ltpFR2	1	5	CONCERT	360	n/a	n/a	0	0	0
1060.4072265625	n/a	WORD	2171714	wordpools/wasnorm_wordpool_576.txt	LTP387	ltpFR2	1	5	TROMBONE	1508	n/a	n/a	0	0	0
1062.93896484375	n/a	WORD	2176899	wordpools/wasnorm_wordpool_576.txt	LTP387	ltpFR2	1	5	RABBIT	1152	n/a	n/a	0	0	0
1065.505859375	n/a	WORD	2182156	wordpools/wasnorm_wordpool_576.txt	LTP387	ltpFR2	1	5	APRON	35	n/a	n/a	0	0	0
1068.22314453125	n/a	WORD	2187721	wordpools/wasnorm_wordpool_576.txt	LTP387	ltpFR2	1	5	SHRUB	1299	n/a	n/a	0	0	0
1070.8896484375	n/a	WORD	2193182	wordpools/wasnorm_wordpool_576.txt	LTP387	ltpFR2	1	5	FOOT	590	n/a	n/a	0	0	0
1073.47265625	n/a	WORD	2198472	wordpools/wasnorm_wordpool_576.txt	LTP387	ltpFR2	1	5	RECEIPT	1173	n/a	n/a	0	0	0
1076.255859375	n/a	WORD	2204172	wordpools/wasnorm_wordpool_576.txt	LTP387	ltpFR2	1	5	GARBAGE	622	n/a	n/a	0	0	0
1079.03955078125	n/a	WORD	2209873	wordpools/wasnorm_wordpool_576.txt	LTP387	ltpFR2	1	5	BRANDY	169	n/a	n/a	0	0	0
1081.48974609375	n/a	WORD	2214891	wordpools/wasnorm_wordpool_576.txt	LTP387	ltpFR2	1	5	HOOD	714	n/a	n/a	0	0	0
1084.03955078125	n/a	WORD	2220113	wordpools/wasnorm_wordpool_576.txt	LTP387	ltpFR2	1	5	LODGE	839	n/a	n/a	0	0	0
1086.47216796875	n/a	WORD	2225095	wordpools/wasnorm_wordpool_576.txt	LTP387	ltpFR2	1	5	SNAKE	1333	n/a	n/a	0	0	0
1089.189453125	n/a	WORD	2230660	wordpools/wasnorm_wordpool_576.txt	LTP387	ltpFR2	1	5	FOREHEAD	592	n/a	n/a	0	0	0
1091.7724609375	n/a	WORD	2235950	wordpools/wasnorm_wordpool_576.txt	LTP387	ltpFR2	1	5	TURTLE	1522	n/a	n/a	0	0	0
1094.43798828125	n/a	WORD	2241409	wordpools/wasnorm_wordpool_576.txt	LTP387	ltpFR2	1	5	CARRIAGE	248	n/a	n/a	0	0	0
1097.1552734375	n/a	WORD	2246974	wordpools/wasnorm_wordpool_576.txt	LTP387	ltpFR2	1	5	MOTEL	919	n/a	n/a	0	0	0
1099.6220703125	n/a	WORD	2252026	wordpools/wasnorm_wordpool_576.txt	LTP387	ltpFR2	1	5	TRANSPLANT	1496	n/a	n/a	0	0	0
1102.15478515625	n/a	WORD	2257213	wordpools/wasnorm_wordpool_576.txt	LTP387	ltpFR2	1	5	DANDRUFF	439	n/a	n/a	0	0	0
1104.8720703125	n/a	WORD	2262778	wordpools/wasnorm_wordpool_576.txt	LTP387	ltpFR2	1	5	KITCHEN	778	n/a	n/a	0	0	0
1107.32080078125	n/a	WORD	2267793	wordpools/wasnorm_wordpool_576.txt	LTP387	ltpFR2	1	5	DINER	467	n/a	n/a	0	0	0
1109.7548828125	n/a	WORD	2272778	wordpools/wasnorm_wordpool_576.txt	LTP387	ltpFR2	1	5	SPOON	1357	n/a	n/a	0	0	0
1112.23779296875	n/a	WORD	2277863	wordpools/wasnorm_wordpool_576.txt	LTP387	ltpFR2	1	5	DENTIST	447	n/a	n/a	0	0	0
1114.9365234375	n/a	WORD	2283390	wordpools/wasnorm_wordpool_576.txt	LTP387	ltpFR2	1	5	SUNSET	1408	n/a	n/a	0	0	0
1117.72021484375	n/a	WORD	2289091	wordpools/wasnorm_wordpool_576.txt	LTP387	ltpFR2	1	5	CORAL	378	n/a	n/a	0	0	0
1119.33740234375	n/a	START	2292403	n/a	LTP387	ltpFR2	1	n/a	n/a	n/a	7	n/a	n/a	n/a	n/a
1120.4072265625	n/a	DISTRACTOR	2294594	n/a	LTP387	ltpFR2	1	5	n/a	n/a	n/a	n/a	0	0	0
1120.42041015625	n/a	PROB	2294621	n/a	LTP387	ltpFR2	1	n/a	n/a	n/a	7	14	5	3	6
1123.22021484375	n/a	PROB	2300355	n/a	LTP387	ltpFR2	1	n/a	n/a	n/a	7	18	9	8	1
1124.787109375	n/a	PROB	2303564	n/a	LTP387	ltpFR2	1	n/a	n/a	n/a	7	7	1	2	4
1126.6533203125	n/a	PROB	2307386	n/a	LTP387	ltpFR2	1	n/a	n/a	n/a	7	25	9	7	9
1130.55322265625	n/a	PROB	2315373	n/a	LTP387	ltpFR2	1	n/a	n/a	n/a	7	13	7	3	3
1132.48681640625	n/a	PROB	2319333	n/a	LTP387	ltpFR2	1	n/a	n/a	n/a	7	16	6	7	3
1134.56982421875	n/a	PROB	2323599	n/a	LTP387	ltpFR2	1	n/a	n/a	n/a	7	16	4	5	7
1136.88671875	n/a	PROB	2328344	n/a	LTP387	ltpFR2	1	n/a	n/a	n/a	7	14	3	3	8
1138.419921875	n/a	PROB	2331484	n/a	LTP387	ltpFR2	1	n/a	n/a	n/a	7	12	1	5	6
1143.33642578125	n/a	STOP	2341553	n/a	LTP387	ltpFR2	1	n/a	n/a	n/a	7	n/a	n/a	n/a	n/a
1145.20361328125	n/a	REC_START	2345377	n/a	LTP387	ltpFR2	1	5	n/a	n/a	n/a	n/a	0	0	0
1146.86669921875	n/a	REC_WORD	2348783	wordpools/wasnorm_wordpool_576.txt	LTP387	ltpFR2	1	5	TROMBONE	1508	n/a	n/a	0	0	0
1148.32861328125	n/a	REC_WORD	2351777	wordpools/wasnorm_wordpool_576.txt	LTP387	ltpFR2	1	5	CONCERT	360	n/a	n/a	0	0	0
1149.81640625	n/a	REC_WORD	2354824	wordpools/wasnorm_wordpool_576.txt	LTP387	ltpFR2	1	5	BRANDY	169	n/a	n/a	0	0	0
1151.37646484375	n/a	REC_WORD	2358019	wordpools/wasnorm_wordpool_576.txt	LTP387	ltpFR2	1	5	SUNSET	1408	n/a	n/a	0	0	0
1154.08447265625	n/a	REC_WORD	2363565	wordpools/wasnorm_wordpool_576.txt	LTP387	ltpFR2	1	5	CARRIAGE	248	n/a	n/a	0	0	0
1155.740234375	n/a	REC_WORD	2366956	wordpools/wasnorm_wordpool_576.txt	LTP387	ltpFR2	1	5	MOTEL	919	n/a	n/a	0	0	0
1157.3994140625	n/a	REC_WORD	2370354	wordpools/wasnorm_wordpool_576.txt	LTP387	ltpFR2	1	5	TRANSPLANT	1496	n/a	n/a	0	0	0
1159.0244140625	n/a	REC_WORD	2373682	wordpools/wasnorm_wordpool_576.txt	LTP387	ltpFR2	1	5	FOREHEAD	592	n/a	n/a	0	0	0
1160.2529296875	n/a	REC_WORD	2376198	wordpools/wasnorm_wordpool_576.txt	LTP387	ltpFR2	1	5	HOOD	714	n/a	n/a	0	0	0
1161.93115234375	n/a	REC_WORD	2379635	wordpools/wasnorm_wordpool_576.txt	LTP387	ltpFR2	1	5	DANDRUFF	439	n/a	n/a	0	0	0
1164.10888671875	n/a	REC_WORD	2384095	wordpools/wasnorm_wordpool_576.txt	LTP387	ltpFR2	1	5	RECEIPT	1173	n/a	n/a	0	0	0
1167.94775390625	n/a	REC_WORD	2391957	wordpools/wasnorm_wordpool_576.txt	LTP387	ltpFR2	1	5	KITCHEN	778	n/a	n/a	0	0	0
1169.32177734375	n/a	REC_WORD	2394771	wordpools/wasnorm_wordpool_576.txt	LTP387	ltpFR2	1	5	APRON	35	n/a	n/a	0	0	0
1172.8056640625	n/a	REC_WORD	2401906	wordpools/wasnorm_wordpool_576.txt	LTP387	ltpFR2	1	5	RABBIT	1152	n/a	n/a	0	0	0
1174.134765625	n/a	REC_WORD	2404628	wordpools/wasnorm_wordpool_576.txt	LTP387	ltpFR2	1	5	SNAKE	1333	n/a	n/a	0	0	0
1176.5546875	n/a	REC_WORD	2409584	wordpools/wasnorm_wordpool_576.txt	LTP387	ltpFR2	1	5	GARBAGE	622	n/a	n/a	0	0	0
1177.6826171875	n/a	REC_WORD	2411894	wordpools/wasnorm_wordpool_576.txt	LTP387	ltpFR2	1	5	SHRUB	1299	n/a	n/a	0	0	0
1179.42041015625	n/a	REC_WORD	2415453	wordpools/wasnorm_wordpool_576.txt	LTP387	ltpFR2	1	5	FOOT	590	n/a	n/a	0	0	0
1208.11279296875	n/a	REC_WORD	2474215	wordpools/wasnorm_wordpool_576.txt	LTP387	ltpFR2	1	5	DENTIST	447	n/a	n/a	0	0	0
1235.64892578125	n/a	DISTRACTOR	2530609	n/a	LTP387	ltpFR2	1	6	n/a	n/a	n/a	n/a	0	0	0
1235.64892578125	n/a	START	2530609	n/a	LTP387	ltpFR2	1	n/a	n/a	n/a	8	n/a	n/a	n/a	n/a
1235.666015625	n/a	PROB	2530644	n/a	LTP387	ltpFR2	1	n/a	n/a	n/a	8	20	6	7	7
1237.8486328125	n/a	PROB	2535114	n/a	LTP387	ltpFR2	1	n/a	n/a	n/a	8	18	3	6	9
1240.5986328125	n/a	PROB	2540746	n/a	LTP387	ltpFR2	1	n/a	n/a	n/a	8	11	3	6	2
1242.5146484375	n/a	PROB	2544670	n/a	LTP387	ltpFR2	1	n/a	n/a	n/a	8	11	3	7	1
1244.88134765625	n/a	PROB	2549517	n/a	LTP387	ltpFR2	1	n/a	n/a	n/a	8	13	4	8	1
1246.91357421875	n/a	PROB	2553679	n/a	LTP387	ltpFR2	1	n/a	n/a	n/a	8	11	6	4	1
1248.564453125	n/a	PROB	2557060	n/a	LTP387	ltpFR2	1	n/a	n/a	n/a	8	16	2	5	9
1250.41455078125	n/a	PROB	2560849	n/a	LTP387	ltpFR2	1	n/a	n/a	n/a	8	24	8	7	9
1254.064453125	n/a	PROB	2568324	n/a	LTP387	ltpFR2	1	n/a	n/a	n/a	8	16	3	4	9
1256.6982421875	n/a	PROB	2573718	n/a	LTP387	ltpFR2	1	n/a	n/a	n/a	8	23	7	7	9
1258.9130859375	n/a	STOP	2578254	n/a	LTP387	ltpFR2	1	n/a	n/a	n/a	8	n/a	n/a	n/a	n/a
1260.6142578125	n/a	WORD	2581738	wordpools/wasnorm_wordpool_576.txt	LTP387	ltpFR2	1	6	HORSE	719	n/a	n/a	0	0	0
1263.23095703125	n/a	WORD	2587097	wordpools/wasnorm_wordpool_576.txt	LTP387	ltpFR2	1	6	PROTON	1132	n/a	n/a	0	0	0
1266.046875	n/a	WORD	2592864	wordpools/wasnorm_wordpool_576.txt	LTP387	ltpFR2	1	6	ATOM	55	n/a	n/a	0	0	0
1268.513671875	n/a	WORD	2597916	wordpools/wasnorm_wordpool_576.txt	LTP387	ltpFR2	1	6	CANAL	226	n/a	n/a	0	0	0
1270.99658203125	n/a	WORD	2603001	wordpools/wasnorm_wordpool_576.txt	LTP387	ltpFR2	1	6	ARMY	39	n/a	n/a	0	0	0
1273.49658203125	n/a	WORD	2608121	wordpools/wasnorm_wordpool_576.txt	LTP387	ltpFR2	1	6	BRANCH	168	n/a	n/a	0	0	0
1275.99658203125	n/a	WORD	2613241	wordpools/wasnorm_wordpool_576.txt	LTP387	ltpFR2	1	6	SHERIFF	1284	n/a	n/a	0	0	0
1278.513671875	n/a	WORD	2618396	wordpools/wasnorm_wordpool_576.txt	LTP387	ltpFR2	1	6	GRAVEL	659	n/a	n/a	0	0	0
1280.9794921875	n/a	WORD	2623446	wordpools/wasnorm_wordpool_576.txt	LTP387	ltpFR2	1	6	AIRPORT	13	n/a	n/a	0	0	0
1283.4462890625	n/a	WORD	2628498	wordpools/wasnorm_wordpool_576.txt	LTP387	ltpFR2	1	6	AGENT	10	n/a	n/a	0	0	0
1285.87939453125	n/a	WORD	2633481	wordpools/wasnorm_wordpool_576.txt	LTP387	ltpFR2	1	6	COCOON	339	n/a	n/a	0	0	0
1288.47900390625	n/a	WORD	2638805	wordpools/wasnorm_wordpool_576.txt	LTP387	ltpFR2	1	6	CRAYON	401	n/a	n/a	0	0	0
1291.21337890625	n/a	WORD	2644405	wordpools/wasnorm_wordpool_576.txt	LTP387	ltpFR2	1	6	PATROL	1027	n/a	n/a	0	0	0
1293.8291015625	n/a	WORD	2649762	wordpools/wasnorm_wordpool_576.txt	LTP387	ltpFR2	1	6	GUARD	667	n/a	n/a	0	0	0
1296.61181640625	n/a	WORD	2655461	wordpools/wasnorm_wordpool_576.txt	LTP387	ltpFR2	1	6	LIVER	833	n/a	n/a	0	0	0
1299.31201171875	n/a	WORD	2660991	wordpools/wasnorm_wordpool_576.txt	LTP387	ltpFR2	1	6	VIRUS	1572	n/a	n/a	0	0	0
1301.77880859375	n/a	WORD	2666043	wordpools/wasnorm_wordpool_576.txt	LTP387	ltpFR2	1	6	DANCER	437	n/a	n/a	0	0	0
1304.2958984375	n/a	WORD	2671198	wordpools/wasnorm_wordpool_576.txt	LTP387	ltpFR2	1	6	PEBBLE	1035	n/a	n/a	0	0	0
1307.11181640625	n/a	WORD	2676965	wordpools/wasnorm_wordpool_576.txt	LTP387	ltpFR2	1	6	BROTHER	179	n/a	n/a	0	0	0
1309.6787109375	n/a	WORD	2682222	wordpools/wasnorm_wordpool_576.txt	LTP387	ltpFR2	1	6	BODY	145	n/a	n/a	0	0	0
1312.29541015625	n/a	WORD	2687581	wordpools/wasnorm_wordpool_576.txt	LTP387	ltpFR2	1	6	FLESH	579	n/a	n/a	0	0	0
1314.8115234375	n/a	WORD	2692734	wordpools/wasnorm_wordpool_576.txt	LTP387	ltpFR2	1	6	SIDEWALK	1303	n/a	n/a	0	0	0
1317.29443359375	n/a	WORD	2697819	wordpools/wasnorm_wordpool_576.txt	LTP387	ltpFR2	1	6	BROOK	177	n/a	n/a	0	0	0
1320.111328125	n/a	WORD	2703588	wordpools/wasnorm_wordpool_576.txt	LTP387	ltpFR2	1	6	MEAT	883	n/a	n/a	0	0	0
1321.72802734375	n/a	START	2706899	n/a	LTP387	ltpFR2	1	n/a	n/a	n/a	9	n/a	n/a	n/a	n/a
1322.8251953125	n/a	DISTRACTOR	2709146	n/a	LTP387	ltpFR2	1	6	n/a	n/a	n/a	n/a	0	0	0
1322.828125	n/a	PROB	2709152	n/a	LTP387	ltpFR2	1	n/a	n/a	n/a	9	13	2	2	9
1325.5283203125	n/a	PROB	2714682	n/a	LTP387	ltpFR2	1	n/a	n/a	n/a	9	12	2	3	7
1327.69384765625	n/a	PROB	2719117	n/a	LTP387	ltpFR2	1	n/a	n/a	n/a	9	19	6	9	4
1329.5439453125	n/a	PROB	2722906	n/a	LTP387	ltpFR2	1	n/a	n/a	n/a	9	19	6	7	6
1334.64404296875	n/a	PROB	2733351	n/a	LTP387	ltpFR2	1	n/a	n/a	n/a	9	7	2	3	2
1336.6767578125	n/a	PROB	2737514	n/a	LTP387	ltpFR2	1	n/a	n/a	n/a	9	15	8	5	2
1338.7265625	n/a	PROB	2741712	n/a	LTP387	ltpFR2	1	n/a	n/a	n/a	9	16	1	7	8
1341.07666015625	n/a	PROB	2746525	n/a	LTP387	ltpFR2	1	n/a	n/a	n/a	9	16	3	4	9
1345.7265625	n/a	STOP	2756048	n/a	LTP387	ltpFR2	1	n/a	n/a	n/a	9	n/a	n/a	n/a	n/a
1347.611328125	n/a	REC_START	2759908	n/a	LTP387	ltpFR2	1	6	n/a	n/a	n/a	n/a	0	0	0
1348.9326171875	n/a	REC_WORD	2762614	wordpools/wasnorm_wordpool_576.txt	LTP387	ltpFR2	1	6	HORSE	719	n/a	n/a	0	0	0
1350.357421875	n/a	REC_WORD	2765532	wordpools/wasnorm_wordpool_576.txt	LTP387	ltpFR2	1	6	CANAL	226	n/a	n/a	0	0	0
1352.39404296875	n/a	REC_WORD	2769703	wordpools/wasnorm_wordpool_576.txt	LTP387	ltpFR2	1	6	GRAVEL	659	n/a	n/a	0	0	0
1353.85546875	n/a	REC_WORD	2772696	wordpools/wasnorm_wordpool_576.txt	LTP387	ltpFR2	1	6	PEBBLE	1035	n/a	n/a	0	0	0
1356.48291015625	n/a	REC_WORD	2778077	wordpools/wasnorm_wordpool_576.txt	LTP387	ltpFR2	1	6	SIDEWALK	1303	n/a	n/a	0	0	0
1361.42822265625	n/a	REC_WORD	2788205	wordpools/wasnorm_wordpool_576.txt	LTP387	ltpFR2	1	6	ROAD	1196	n/a	n/a	0	0	0
1363.01708984375	n/a	REC_WORD	2791459	wordpools/wasnorm_wordpool_576.txt	LTP387	ltpFR2	1	6	PATROL	1027	n/a	n/a	0	0	0
1365.2509765625	n/a	REC_WORD	2796034	wordpools/wasnorm_wordpool_576.txt	LTP387	ltpFR2	1	6	GUARD	667	n/a	n/a	0	0	0
1366.44775390625	n/a	REC_WORD	2798485	wordpools/wasnorm_wordpool_576.txt	LTP387	ltpFR2	1	6	SHERIFF	1284	n/a	n/a	0	0	0
1368.36767578125	n/a	REC_WORD	2802417	wordpools/wasnorm_wordpool_576.txt	LTP387	ltpFR2	1	6	AGENT	10	n/a	n/a	0	0	0
1371.02880859375	n/a	REC_WORD	2807867	wordpools/wasnorm_wordpool_576.txt	LTP387	ltpFR2	1	6	PROTON	1132	n/a	n/a	0	0	0
1372.73876953125	n/a	REC_WORD	2811369	wordpools/wasnorm_wordpool_576.txt	LTP387	ltpFR2	1	6	ATOM	55	n/a	n/a	0	0	0
1374.1748046875	n/a	REC_WORD	2814310	wordpools/wasnorm_wordpool_576.txt	LTP387	ltpFR2	1	6	COCOON	339	n/a	n/a	0	0	0
1376.138671875	n/a	REC_WORD	2818332	wordpools/wasnorm_wordpool_576.txt	LTP387	ltpFR2	1	6	CRAYON	401	n/a	n/a	0	0	0
1381.869140625	n/a	REC_WORD	2830068	wordpools/wasnorm_wordpool_576.txt	LTP387	ltpFR2	1	6	BODY	145	n/a	n/a	0	0	0
1383.353515625	n/a	REC_WORD	2833108	wordpools/wasnorm_wordpool_576.txt	LTP387	ltpFR2	1	6	FLESH	579	n/a	n/a	0	0	0
1385.00341796875	n/a	REC_WORD	2836487	wordpools/wasnorm_wordpool_576.txt	LTP387	ltpFR2	1	6	LIVER	833	n/a	n/a	0	0	0
1386.63037109375	n/a	REC_WORD	2839819	wordpools/wasnorm_wordpool_576.txt	LTP387	ltpFR2	1	6	VIRUS	1572	n/a	n/a	0	0	0
1388.98193359375	n/a	REC_WORD	2844635	wordpools/wasnorm_wordpool_576.txt	LTP387	ltpFR2	1	6	DANCER	437	n/a	n/a	0	0	0
1396.17578125	n/a	REC_WORD	2859368	wordpools/wasnorm_wordpool_576.txt	LTP387	ltpFR2	1	6	BROTHER	179	n/a	n/a	0	0	0
1438.07275390625	n/a	WORD	2945173	wordpools/wasnorm_wordpool_576.txt	LTP387	ltpFR2	1	7	CUPBOARD	425	n/a	n/a	0	0	0
1440.67236328125	n/a	WORD	2950497	wordpools/wasnorm_wordpool_576.txt	LTP387	ltpFR2	1	7	STOVE	1388	n/a	n/a	0	0	0
1443.37255859375	n/a	WORD	2956027	wordpools/wasnorm_wordpool_576.txt	LTP387	ltpFR2	1	7	PAPER	1011	n/a	n/a	0	0	0
1445.87255859375	n/a	WORD	2961147	wordpools/wasnorm_wordpool_576.txt	LTP387	ltpFR2	1	7	SCRIBBLE	1256	n/a	n/a	0	0	0
1448.6552734375	n/a	WORD	2966846	wordpools/wasnorm_wordpool_576.txt	LTP387	ltpFR2	1	7	ARM	38	n/a	n/a	0	0	0
1451.1220703125	n/a	WORD	2971898	wordpools/wasnorm_wordpool_576.txt	LTP387	ltpFR2	1	7	TERMITE	1451	n/a	n/a	0	0	0
1453.67236328125	n/a	WORD	2977121	wordpools/wasnorm_wordpool_576.txt	LTP387	ltpFR2	1	7	CRICKET	408	n/a	n/a	0	0	0
1456.2548828125	n/a	WORD	2982410	wordpools/wasnorm_wordpool_576.txt	LTP387	ltpFR2	1	7	CELLAR	267	n/a	n/a	0	0	0
1459.02197265625	n/a	WORD	2988077	wordpools/wasnorm_wordpool_576.txt	LTP387	ltpFR2	1	7	VALLEY	1545	n/a	n/a	0	0	0
1461.6376953125	n/a	WORD	2993434	wordpools/wasnorm_wordpool_576.txt	LTP387	ltpFR2	1	7	FLASK	576	n/a	n/a	0	0	0
1464.10498046875	n/a	WORD	2998487	wordpools/wasnorm_wordpool_576.txt	LTP387	ltpFR2	1	7	PACKAGE	997	n/a	n/a	0	0	0
1466.62060546875	n/a	WORD	3003639	wordpools/wasnorm_wordpool_576.txt	LTP387	ltpFR2	1	7	BASEMENT	94	n/a	n/a	0	0	0
1469.3046875	n/a	WORD	3009136	wordpools/wasnorm_wordpool_576.txt	LTP387	ltpFR2	1	7	FRIEND	606	n/a	n/a	0	0	0
1472.1044921875	n/a	WORD	3014870	wordpools/wasnorm_wordpool_576.txt	LTP387	ltpFR2	1	7	SKIRT	1319	n/a	n/a	0	0	0
1474.83740234375	n/a	WORD	3020467	wordpools/wasnorm_wordpool_576.txt	LTP387	ltpFR2	1	7	HAMPER	682	n/a	n/a	0	0	0
1477.33740234375	n/a	WORD	3025587	wordpools/wasnorm_wordpool_576.txt	LTP387	ltpFR2	1	7	VAGRANT	1544	n/a	n/a	0	0	0
1479.87060546875	n/a	WORD	3030775	wordpools/wasnorm_wordpool_576.txt	LTP387	ltpFR2	1	7	POISON	1096	n/a	n/a	0	0	0
1482.33740234375	n/a	WORD	3035827	wordpools/wasnorm_wordpool_576.txt	LTP387	ltpFR2	1	7	WARDROBE	1587	n/a	n/a	0	0	0
1484.85302734375	n/a	WORD	3040979	wordpools/wasnorm_wordpool_576.txt	LTP387	ltpFR2	1	7	ANTLER	29	n/a	n/a	0	0	0
1487.60302734375	n/a	WORD	3046611	wordpools/wasnorm_wordpool_576.txt	LTP387	ltpFR2	1	7	PORTRAIT	1111	n/a	n/a	0	0	0
1490.23681640625	n/a	WORD	3052005	wordpools/wasnorm_wordpool_576.txt	LTP387	ltpFR2	1	7	BANJO	82	n/a	n/a	0	0	0
1493.052734375	n/a	WORD	3057772	wordpools/wasnorm_wordpool_576.txt	LTP387	ltpFR2	1	7	PLATE	1086	n/a	n/a	0	0	0
1495.669921875	n/a	WORD	3063132	wordpools/wasnorm_wordpool_576.txt	LTP387	ltpFR2	1	7	BURGLAR	200	n/a	n/a	0	0	0
1498.10302734375	n/a	WORD	3068115	wordpools/wasnorm_wordpool_576.txt	LTP387	ltpFR2	1	7	FILM	565	n/a	n/a	0	0	0
1499.7197265625	n/a	START	3071426	n/a	LTP387	ltpFR2	1	n/a	n/a	n/a	10	n/a	n/a	n/a	n/a
1500.6708984375	n/a	DISTRACTOR	3073374	n/a	LTP387	ltpFR2	1	7	n/a	n/a	n/a	n/a	0	0	0
1500.6865234375	n/a	PROB	3073406	n/a	LTP387	ltpFR2	1	n/a	n/a	n/a	10	4	2	1	1
1502.2197265625	n/a	PROB	3076546	n/a	LTP387	ltpFR2	1	n/a	n/a	n/a	10	7	1	4	2
1504.48583984375	n/a	PROB	3081187	n/a	LTP387	ltpFR2	1	n/a	n/a	n/a	10	17	6	4	7
1507.185546875	n/a	PROB	3086716	n/a	LTP387	ltpFR2	1	n/a	n/a	n/a	10	14	6	5	3
1509.2353515625	n/a	PROB	3090914	n/a	LTP387	ltpFR2	1	n/a	n/a	n/a	10	10	8	1	1
1510.58544921875	n/a	PROB	3093679	n/a	LTP387	ltpFR2	1	n/a	n/a	n/a	10	12	2	3	7
1512.33544921875	n/a	PROB	3097263	n/a	LTP387	ltpFR2	1	n/a	n/a	n/a	10	12	2	2	8
1513.9013671875	n/a	PROB	3100470	n/a	LTP387	ltpFR2	1	n/a	n/a	n/a	10	14	4	6	4
1515.5693359375	n/a	PROB	3103886	n/a	LTP387	ltpFR2	1	n/a	n/a	n/a	10	20	9	9	2
1517.50244140625	n/a	PROB	3107845	n/a	LTP387	ltpFR2	1	n/a	n/a	n/a	10	13	1	5	7
1519.4189453125	n/a	PROB	3111770	n/a	LTP387	ltpFR2	1	n/a	n/a	n/a	10	11	1	7	3
1521.3349609375	n/a	PROB	3115694	n/a	LTP387	ltpFR2	1	n/a	n/a	n/a	10	16	4	4	8
1523.1298828125	n/a	STOP	3119370	n/a	LTP387	ltpFR2	1	n/a	n/a	n/a	10	n/a	n/a	n/a	n/a
1525.5859375	n/a	REC_START	3124400	n/a	LTP387	ltpFR2	1	7	n/a	n/a	n/a	n/a	0	0	0
1528.44677734375	n/a	REC_WORD	3130259	wordpools/wasnorm_wordpool_576.txt	LTP387	ltpFR2	1	7	CUPBOARD	425	n/a	n/a	0	0	0
1529.94384765625	n/a	REC_WORD	3133325	wordpools/wasnorm_wordpool_576.txt	LTP387	ltpFR2	1	7	WARDROBE	1587	n/a	n/a	0	0	0
1531.90673828125	n/a	REC_WORD	3137345	wordpools/wasnorm_wordpool_576.txt	LTP387	ltpFR2	1	7	POISON	1096	n/a	n/a	0	0	0
1533.4755859375	n/a	REC_WORD	3140558	wordpools/wasnorm_wordpool_576.txt	LTP387	ltpFR2	1	7	BURGLAR	200	n/a	n/a	0	0	0
1534.7978515625	n/a	REC_WORD	3143266	wordpools/wasnorm_wordpool_576.txt	LTP387	ltpFR2	1	7	VAGRANT	1544	n/a	n/a	0	0	0
1536.36279296875	n/a	REC_WORD	3146471	wordpools/wasnorm_wordpool_576.txt	LTP387	ltpFR2	1	7	FRIEND	606	n/a	n/a	0	0	0
1538.40234375	n/a	REC_WORD	3150648	wordpools/wasnorm_wordpool_576.txt	LTP387	ltpFR2	1	7	BASEMENT	94	n/a	n/a	0	0	0
1540.2177734375	n/a	REC_WORD	3154366	wordpools/wasnorm_wordpool_576.txt	LTP387	ltpFR2	1	7	CELLAR	267	n/a	n/a	0	0	0
1544.16162109375	n/a	REC_WORD	3162443	wordpools/wasnorm_wordpool_576.txt	LTP387	ltpFR2	1	7	TERMITE	1451	n/a	n/a	0	0	0
1545.4521484375	n/a	REC_WORD	3165086	wordpools/wasnorm_wordpool_576.txt	LTP387	ltpFR2	1	7	PAPER	1011	n/a	n/a	0	0	0
1546.7724609375	n/a	REC_WORD	3167790	wordpools/wasnorm_wordpool_576.txt	LTP387	ltpFR2	1	7	SCRIBBLE	1256	n/a	n/a	0	0	0
1548.8271484375	n/a	REC_WORD	3171998	wordpools/wasnorm_wordpool_576.txt	LTP387	ltpFR2	1	7	CRICKET	408	n/a	n/a	0	0	0
1550.76708984375	n/a	REC_WORD	3175971	wordpools/wasnorm_wordpool_576.txt	LTP387	ltpFR2	1	7	VALLEY	1545	n/a	n/a	0	0	0
1552.6962890625	n/a	REC_WORD	3179922	wordpools/wasnorm_wordpool_576.txt	LTP387	ltpFR2	1	7	FLASK	576	n/a	n/a	0	0	0
1558.44580078125	n/a	REC_WORD	3191697	wordpools/wasnorm_wordpool_576.txt	LTP387	ltpFR2	1	7	PACKAGE	997	n/a	n/a	0	0	0
1574.49658203125	n/a	REC_WORD	3224569	wordpools/wasnorm_wordpool_576.txt	LTP387	ltpFR2	1	7	SKIRT	1319	n/a	n/a	0	0	0
1575.9755859375	n/a	REC_WORD	3227598	wordpools/wasnorm_wordpool_576.txt	LTP387	ltpFR2	1	7	HAMPER	682	n/a	n/a	0	0	0
1598.82763671875	n/a	REC_WORD	3274399	wordpools/wasnorm_wordpool_576.txt	LTP387	ltpFR2	1	7	ARM	38	n/a	n/a	0	0	0
1616.01416015625	n/a	DISTRACTOR	3309597	n/a	LTP387	ltpFR2	1	8	n/a	n/a	n/a	n/a	0	0	0
1616.01416015625	n/a	START	3309597	n/a	LTP387	ltpFR2	1	n/a	n/a	n/a	11	n/a	n/a	n/a	n/a
1616.03125	n/a	PROB	3309632	n/a	LTP387	ltpFR2	1	n/a	n/a	n/a	11	17	7	3	7
1617.96435546875	n/a	PROB	3313591	n/a	LTP387	ltpFR2	1	n/a	n/a	n/a	11	20	5	7	8
1620.39697265625	n/a	PROB	3318573	n/a	LTP387	ltpFR2	1	n/a	n/a	n/a	11	17	4	9	4
1622.197265625	n/a	PROB	3322260	n/a	LTP387	ltpFR2	1	n/a	n/a	n/a	11	17	5	4	8
1624.93017578125	n/a	PROB	3327857	n/a	LTP387	ltpFR2	1	n/a	n/a	n/a	11	10	4	1	5
1627.6796875	n/a	PROB	3333488	n/a	LTP387	ltpFR2	1	n/a	n/a	n/a	11	21	9	9	3
1634.07958984375	n/a	PROB	3346595	n/a	LTP387	ltpFR2	1	n/a	n/a	n/a	11	6	3	1	2
1637.46337890625	n/a	PROB	3353525	n/a	LTP387	ltpFR2	1	n/a	n/a	n/a	11	11	2	3	6
1639.5302734375	n/a	STOP	3357758	n/a	LTP387	ltpFR2	1	n/a	n/a	n/a	11	n/a	n/a	n/a	n/a
1641.21337890625	n/a	WORD	3361205	wordpools/wasnorm_wordpool_576.txt	LTP387	ltpFR2	1	8	SERVER	1272	n/a	n/a	0	0	0
1644.029296875	n/a	WORD	3366972	wordpools/wasnorm_wordpool_576.txt	LTP387	ltpFR2	1	8	YOLK	1633	n/a	n/a	0	0	0
1646.5634765625	n/a	WORD	3372162	wordpools/wasnorm_wordpool_576.txt	LTP387	ltpFR2	1	8	RAFT	1159	n/a	n/a	0	0	0
1649.26220703125	n/a	WORD	3377689	wordpools/wasnorm_wordpool_576.txt	LTP387	ltpFR2	1	8	PAIL	1002	n/a	n/a	0	0	0
1651.84619140625	n/a	WORD	3382981	wordpools/wasnorm_wordpool_576.txt	LTP387	ltpFR2	1	8	COTTAGE	384	n/a	n/a	0	0	0
1654.3291015625	n/a	WORD	3388066	wordpools/wasnorm_wordpool_576.txt	LTP387	ltpFR2	1	8	DORM	488	n/a	n/a	0	0	0
1656.76220703125	n/a	WORD	3393049	wordpools/wasnorm_wordpool_576.txt	LTP387	ltpFR2	1	8	CHIPMUNK	304	n/a	n/a	0	0	0
1659.26171875	n/a	WORD	3398168	wordpools/wasnorm_wordpool_576.txt	LTP387	ltpFR2	1	8	WOMAN	1620	n/a	n/a	0	0	0
1661.91064453125	n/a	WORD	3403593	wordpools/wasnorm_wordpool_576.txt	LTP387	ltpFR2	1	8	BACKBONE	66	n/a	n/a	0	0	0
1664.345703125	n/a	WORD	3408580	wordpools/wasnorm_wordpool_576.txt	LTP387	ltpFR2	1	8	CAFE	216	n/a	n/a	0	0	0
1666.94580078125	n/a	WORD	3413905	wordpools/wasnorm_wordpool_576.txt	LTP387	ltpFR2	1	8	GROUND	666	n/a	n/a	0	0	0
1669.51171875	n/a	WORD	3419160	wordpools/wasnorm_wordpool_576.txt	LTP387	ltpFR2	1	8	ACTOR	5	n/a	n/a	0	0	0
1672.29443359375	n/a	WORD	3424859	wordpools/wasnorm_wordpool_576.txt	LTP387	ltpFR2	1	8	OINTMENT	974	n/a	n/a	0	0	0
1674.87841796875	n/a	WORD	3430151	wordpools/wasnorm_wordpool_576.txt	LTP387	ltpFR2	1	8	BUNNY	198	n/a	n/a	0	0	0
1677.54443359375	n/a	WORD	3435611	wordpools/wasnorm_wordpool_576.txt	LTP387	ltpFR2	1	8	EUROPE	541	n/a	n/a	0	0	0
1680.328125	n/a	WORD	3441312	wordpools/wasnorm_wordpool_576.txt	LTP387	ltpFR2	1	8	RIFLE	1192	n/a	n/a	0	0	0
1682.76123046875	n/a	WORD	3446295	wordpools/wasnorm_wordpool_576.txt	LTP387	ltpFR2	1	8	KEEPER	769	n/a	n/a	0	0	0
1685.22802734375	n/a	WORD	3451347	wordpools/wasnorm_wordpool_576.txt	LTP387	ltpFR2	1	8	JELLO	754	n/a	n/a	0	0	0
1687.94384765625	n/a	WORD	3456909	wordpools/wasnorm_wordpool_576.txt	LTP387	ltpFR2	1	8	GLOVE	642	n/a	n/a	0	0	0
1690.376953125	n/a	WORD	3461892	wordpools/wasnorm_wordpool_576.txt	LTP387	ltpFR2	1	8	FRANCE	601	n/a	n/a	0	0	0
1693.09375	n/a	WORD	3467456	wordpools/wasnorm_wordpool_576.txt	LTP387	ltpFR2	1	8	PRINCE	1124	n/a	n/a	0	0	0
1695.77685546875	n/a	WORD	3472951	wordpools/wasnorm_wordpool_576.txt	LTP387	ltpFR2	1	8	QUEEN	1149	n/a	n/a	0	0	0
1698.5107421875	n/a	WORD	3478550	wordpools/wasnorm_wordpool_576.txt	LTP387	ltpFR2	1	8	RADISH	1158	n/a	n/a	0	0	0
1701.09375	n/a	WORD	3483840	wordpools/wasnorm_wordpool_576.txt	LTP387	ltpFR2	1	8	RUG	1215	n/a	n/a	0	0	0
1702.71044921875	n/a	START	3487151	n/a	LTP387	ltpFR2	1	n/a	n/a	n/a	12	n/a	n/a	n/a	n/a
1703.5556640625	n/a	DISTRACTOR	3488882	n/a	LTP387	ltpFR2	1	8	n/a	n/a	n/a	n/a	0	0	0
1703.560546875	n/a	PROB	3488892	n/a	LTP387	ltpFR2	1	n/a	n/a	n/a	12	11	1	7	3
1705.2265625	n/a	PROB	3492304	n/a	LTP387	ltpFR2	1	n/a	n/a	n/a	12	20	4	8	8
1707.9091796875	n/a	PROB	3497798	n/a	LTP387	ltpFR2	1	n/a	n/a	n/a	12	13	3	3	5
1711.076171875	n/a	PROB	3504284	n/a	LTP387	ltpFR2	1	n/a	n/a	n/a	12	22	5	9	8
1715.80908203125	n/a	PROB	3513977	n/a	LTP387	ltpFR2	1	n/a	n/a	n/a	12	16	5	3	8
1717.72607421875	n/a	PROB	3517903	n/a	LTP387	ltpFR2	1	n/a	n/a	n/a	12	17	9	4	4
1719.60888671875	n/a	PROB	3521759	n/a	LTP387	ltpFR2	1	n/a	n/a	n/a	12	24	9	9	6
1722.19287109375	n/a	PROB	3527051	n/a	LTP387	ltpFR2	1	n/a	n/a	n/a	12	14	2	4	8
1724.14306640625	n/a	PROB	3531045	n/a	LTP387	ltpFR2	1	n/a	n/a	n/a	12	19	5	5	9
1725.666015625	n/a	STOP	3534164	n/a	LTP387	ltpFR2	1	n/a	n/a	n/a	12	n/a	n/a	n/a	n/a
1728.60986328125	n/a	REC_START	3540193	n/a	LTP387	ltpFR2	1	8	n/a	n/a	n/a	n/a	0	0	0
1730.3408203125	n/a	REC_WORD	3543738	wordpools/wasnorm_wordpool_576.txt	LTP387	ltpFR2	1	8	BACKBONE	66	n/a	n/a	0	0	0
1731.6357421875	n/a	REC_WORD	3546390	wordpools/wasnorm_wordpool_576.txt	LTP387	ltpFR2	1	8	WOMAN	1620	n/a	n/a	0	0	0
1734.0185546875	n/a	REC_WORD	3551270	wordpools/wasnorm_wordpool_576.txt	LTP387	ltpFR2	1	8	OINTMENT	974	n/a	n/a	0	0	0
1735.48876953125	n/a	REC_WORD	3554281	wordpools/wasnorm_wordpool_576.txt	LTP387	ltpFR2	1	8	SERVER	1272	n/a	n/a	0	0	0
1737.6787109375	n/a	REC_WORD	3558766	wordpools/wasnorm_wordpool_576.txt	LTP387	ltpFR2	1	8	DORM	488	n/a	n/a	0	0	0
1741.84716796875	n/a	REC_WORD	3567303	wordpools/wasnorm_wordpool_576.txt	LTP387	ltpFR2	1	8	BUNNY	198	n/a	n/a	0	0	0
1745.240234375	n/a	REC_WORD	3574252	wordpools/wasnorm_wordpool_576.txt	LTP387	ltpFR2	1	8	EUROPE	541	n/a	n/a	0	0	0
1748.14306640625	n/a	REC_WORD	3580197	wordpools/wasnorm_wordpool_576.txt	LTP387	ltpFR2	1	8	FRANCE	601	n/a	n/a	0	0	0
1749.703125	n/a	REC_WORD	3583392	wordpools/wasnorm_wordpool_576.txt	LTP387	ltpFR2	1	8	GLOVE	642	n/a	n/a	0	0	0
1752.72216796875	n/a	REC_WORD	3589575	wordpools/wasnorm_wordpool_576.txt	LTP387	ltpFR2	1	8	PRINCE	1124	n/a	n/a	0	0	0
1753.966796875	n/a	REC_WORD	3592124	wordpools/wasnorm_wordpool_576.txt	LTP387	ltpFR2	1	8	QUEEN	1149	n/a	n/a	0	0	0
1756.15869140625	n/a	REC_WORD	3596613	wordpools/wasnorm_wordpool_576.txt	LTP387	ltpFR2	1	8	RADISH	1158	n/a	n/a	0	0	0
1763.85546875	n/a	REC_WORD	3612376	wordpools/wasnorm_wordpool_576.txt	LTP387	ltpFR2	1	8	RAFT	1159	n/a	n/a	0	0	0
1765.2978515625	n/a	REC_WORD	3615330	wordpools/wasnorm_wordpool_576.txt	LTP387	ltpFR2	1	8	PAIL	1002	n/a	n/a	0	0	0
1775.740234375	n/a	REC_WORD	3636716	wordpools/wasnorm_wordpool_576.txt	LTP387	ltpFR2	1	8	ACTOR	5	n/a	n/a	0	0	0
1777.1103515625	n/a	REC_WORD	3639522	wordpools/wasnorm_wordpool_576.txt	LTP387	ltpFR2	1	8	KEEPER	769	n/a	n/a	0	0	0
1805.1552734375	n/a	REST_REWET	3696958	n/a	LTP387	ltpFR2	1	8	n/a	n/a	n/a	n/a	0	0	0
1938.33251953125	n/a	WORD	3969705	wordpools/wasnorm_wordpool_576.txt	LTP387	ltpFR2	1	9	HONEY	713	n/a	n/a	0	0	0
1940.93212890625	n/a	WORD	3975029	wordpools/wasnorm_wordpool_576.txt	LTP387	ltpFR2	1	9	MAPLE	866	n/a	n/a	0	0	0
1943.482421875	n/a	WORD	3980252	wordpools/wasnorm_wordpool_576.txt	LTP387	ltpFR2	1	9	SISTER	1312	n/a	n/a	0	0	0
1945.98193359375	n/a	WORD	3985371	wordpools/wasnorm_wordpool_576.txt	LTP387	ltpFR2	1	9	ICEBERG	731	n/a	n/a	0	0	0
1948.615234375	n/a	WORD	3990764	wordpools/wasnorm_wordpool_576.txt	LTP387	ltpFR2	1	9	PISTOL	1075	n/a	n/a	0	0	0
1951.3818359375	n/a	WORD	3996430	wordpools/wasnorm_wordpool_576.txt	LTP387	ltpFR2	1	9	MATTRESS	879	n/a	n/a	0	0	0
1954.06494140625	n/a	WORD	4001925	wordpools/wasnorm_wordpool_576.txt	LTP387	ltpFR2	1	9	COUNTY	389	n/a	n/a	0	0	0
1956.880859375	n/a	WORD	4007692	wordpools/wasnorm_wordpool_576.txt	LTP387	ltpFR2	1	9	LASER	801	n/a	n/a	0	0	0
1959.681640625	n/a	WORD	4013428	wordpools/wasnorm_wordpool_576.txt	LTP387	ltpFR2	1	9	OYSTER	995	n/a	n/a	0	0	0
1962.3818359375	n/a	WORD	4018958	wordpools/wasnorm_wordpool_576.txt	LTP387	ltpFR2	1	9	GALLON	618	n/a	n/a	0	0	0
1964.83154296875	n/a	WORD	4023975	wordpools/wasnorm_wordpool_576.txt	LTP387	ltpFR2	1	9	OUTFIT	988	n/a	n/a	0	0	0
1967.59765625	n/a	WORD	4029640	wordpools/wasnorm_wordpool_576.txt	LTP387	ltpFR2	1	9	BUREAU	199	n/a	n/a	0	0	0
1970.1142578125	n/a	WORD	4034794	wordpools/wasnorm_wordpool_576.txt	LTP387	ltpFR2	1	9	HIKER	708	n/a	n/a	0	0	0
1972.84716796875	n/a	WORD	4040391	wordpools/wasnorm_wordpool_576.txt	LTP387	ltpFR2	1	9	BINDER	127	n/a	n/a	0	0	0
1975.447265625	n/a	WORD	4045716	wordpools/wasnorm_wordpool_576.txt	LTP387	ltpFR2	1	9	NIGHTGOWN	953	n/a	n/a	0	0	0
1978.1142578125	n/a	WORD	4051178	wordpools/wasnorm_wordpool_576.txt	LTP387	ltpFR2	1	9	BEAKER	104	n/a	n/a	0	0	0
1980.580078125	n/a	WORD	4056228	wordpools/wasnorm_wordpool_576.txt	LTP387	ltpFR2	1	9	CHEMIST	292	n/a	n/a	0	0	0
1983.1640625	n/a	WORD	4061520	wordpools/wasnorm_wordpool_576.txt	LTP387	ltpFR2	1	9	GLASS	639	n/a	n/a	0	0	0
1985.9130859375	n/a	WORD	4067150	wordpools/wasnorm_wordpool_576.txt	LTP387	ltpFR2	1	9	WIFE	1609	n/a	n/a	0	0	0
1988.57958984375	n/a	WORD	4072611	wordpools/wasnorm_wordpool_576.txt	LTP387	ltpFR2	1	9	SUMMIT	1405	n/a	n/a	0	0	0
1991.2138671875	n/a	WORD	4078006	wordpools/wasnorm_wordpool_576.txt	LTP387	ltpFR2	1	9	PREACHER	1119	n/a	n/a	0	0	0
1993.9794921875	n/a	WORD	4083670	wordpools/wasnorm_wordpool_576.txt	LTP387	ltpFR2	1	9	SLUG	1329	n/a	n/a	0	0	0
1996.74658203125	n/a	WORD	4089337	wordpools/wasnorm_wordpool_576.txt	LTP387	ltpFR2	1	9	PARENT	1013	n/a	n/a	0	0	0
1999.21337890625	n/a	WORD	4094389	wordpools/wasnorm_wordpool_576.txt	LTP387	ltpFR2	1	9	PRINCESS	1125	n/a	n/a	0	0	0
2000.82958984375	n/a	START	4097699	n/a	LTP387	ltpFR2	1	n/a	n/a	n/a	13	n/a	n/a	n/a	n/a
2001.66845703125	n/a	DISTRACTOR	4099417	n/a	LTP387	ltpFR2	1	9	n/a	n/a	n/a	n/a	0	0	0
2001.67919921875	n/a	PROB	4099439	n/a	LTP387	ltpFR2	1	n/a	n/a	n/a	13	15	4	3	8
2006.0791015625	n/a	PROB	4108450	n/a	LTP387	ltpFR2	1	n/a	n/a	n/a	13	16	3	5	8
2008.162109375	n/a	PROB	4112716	n/a	LTP387	ltpFR2	1	n/a	n/a	n/a	13	7	2	2	3
2009.89501953125	n/a	PROB	4116265	n/a	LTP387	ltpFR2	1	n/a	n/a	n/a	13	14	3	4	7
2011.56201171875	n/a	PROB	4119679	n/a	LTP387	ltpFR2	1	n/a	n/a	n/a	13	17	9	1	7
2013.34619140625	n/a	PROB	4123333	n/a	LTP387	ltpFR2	1	n/a	n/a	n/a	13	17	7	8	2
2014.89501953125	n/a	PROB	4126505	n/a	LTP387	ltpFR2	1	n/a	n/a	n/a	13	21	5	8	8
2018.86181640625	n/a	PROB	4134629	n/a	LTP387	ltpFR2	1	n/a	n/a	n/a	13	12	9	2	1
2020.5947265625	n/a	PROB	4138178	n/a	LTP387	ltpFR2	1	n/a	n/a	n/a	13	20	5	9	6
2023.44189453125	n/a	STOP	4144009	n/a	LTP387	ltpFR2	1	n/a	n/a	n/a	13	n/a	n/a	n/a	n/a
2026.6787109375	n/a	REC_START	4150638	n/a	LTP387	ltpFR2	1	9	n/a	n/a	n/a	n/a	0	0	0
2028.5673828125	n/a	REC_WORD	4154506	wordpools/wasnorm_wordpool_576.txt	LTP387	ltpFR2	1	9	CHEMIST	292	n/a	n/a	0	0	0
2029.927734375	n/a	REC_WORD	4157292	wordpools/wasnorm_wordpool_576.txt	LTP387	ltpFR2	1	9	BEAKER	104	n/a	n/a	0	0	0
2031.37548828125	n/a	REC_WORD	4160257	wordpools/wasnorm_wordpool_576.txt	LTP387	ltpFR2	1	9	GLASS	639	n/a	n/a	0	0	0
2033.61962890625	n/a	REC_WORD	4164853	wordpools/wasnorm_wordpool_576.txt	LTP387	ltpFR2	1	9	BINDER	127	n/a	n/a	0	0	0
2035.12451171875	n/a	REC_WORD	4167935	wordpools/wasnorm_wordpool_576.txt	LTP387	ltpFR2	1	9	BUREAU	199	n/a	n/a	0	0	0
2037.482421875	n/a	REC_WORD	4172764	wordpools/wasnorm_wordpool_576.txt	LTP387	ltpFR2	1	9	PREACHER	1119	n/a	n/a	0	0	0
2038.70947265625	n/a	REC_WORD	4175277	wordpools/wasnorm_wordpool_576.txt	LTP387	ltpFR2	1	9	NIGHTGOWN	953	n/a	n/a	0	0	0
2040.9423828125	n/a	REC_WORD	4179850	wordpools/wasnorm_wordpool_576.txt	LTP387	ltpFR2	1	9	MATTRESS	879	n/a	n/a	0	0	0
2048.43603515625	n/a	REC_WORD	4195197	wordpools/wasnorm_wordpool_576.txt	LTP387	ltpFR2	1	9	SISTER	1312	n/a	n/a	0	0	0
2051.76904296875	n/a	REC_WORD	4202023	wordpools/wasnorm_wordpool_576.txt	LTP387	ltpFR2	1	9	WIFE	1609	n/a	n/a	0	0	0
2053.15478515625	n/a	REC_WORD	4204861	wordpools/wasnorm_wordpool_576.txt	LTP387	ltpFR2	1	9	PARENT	1013	n/a	n/a	0	0	0
2054.8037109375	n/a	REC_WORD	4208238	wordpools/wasnorm_wordpool_576.txt	LTP387	ltpFR2	1	9	PRINCESS	1125	n/a	n/a	0	0	0
2056.9189453125	n/a	REC_WORD	4212570	wordpools/wasnorm_wordpool_576.txt	LTP387	ltpFR2	1	9	ICEBERG	731	n/a	n/a	0	0	0
2058.26171875	n/a	REC_WORD	4215320	wordpools/wasnorm_wordpool_576.txt	LTP387	ltpFR2	1	9	PISTOL	1075	n/a	n/a	0	0	0
2063.29443359375	n/a	REC_WORD	4225627	wordpools/wasnorm_wordpool_576.txt	LTP387	ltpFR2	1	9	COUNTY	389	n/a	n/a	0	0	0
2066.2734375	n/a	REC_WORD	4231728	wordpools/wasnorm_wordpool_576.txt	LTP387	ltpFR2	1	9	SUMMIT	1405	n/a	n/a	0	0	0
2069.361328125	n/a	REC_WORD	4238052	wordpools/wasnorm_wordpool_576.txt	LTP387	ltpFR2	1	9	HIKER	708	n/a	n/a	0	0	0
2079.63818359375	n/a	REC_WORD	4259099	wordpools/wasnorm_wordpool_576.txt	LTP387	ltpFR2	1	9	HONEY	713	n/a	n/a	0	0	0
2093.28662109375	n/a	REC_WORD	4287051	wordpools/wasnorm_wordpool_576.txt	LTP387	ltpFR2	1	9	SLUG	1329	n/a	n/a	0	0	0
2117.14111328125	n/a	WORD	4335905	wordpools/wasnorm_wordpool_576.txt	LTP387	ltpFR2	1	10	CRAB	397	n/a	n/a	0	0	0
2119.69091796875	n/a	WORD	4341127	wordpools/wasnorm_wordpool_576.txt	LTP387	ltpFR2	1	10	ROBBER	1197	n/a	n/a	0	0	0
2122.15771484375	n/a	WORD	4346179	wordpools/wasnorm_wordpool_576.txt	LTP387	ltpFR2	1	10	STONE	1385	n/a	n/a	0	0	0
2124.857421875	n/a	WORD	4351708	wordpools/wasnorm_wordpool_576.txt	LTP387	ltpFR2	1	10	CYCLONE	431	n/a	n/a	0	0	0
2127.4736328125	n/a	WORD	4357066	wordpools/wasnorm_wordpool_576.txt	LTP387	ltpFR2	1	10	CASHIER	254	n/a	n/a	0	0	0
2130.29052734375	n/a	WORD	4362835	wordpools/wasnorm_wordpool_576.txt	LTP387	ltpFR2	1	10	INFANT	737	n/a	n/a	0	0	0
2132.8232421875	n/a	WORD	4368022	wordpools/wasnorm_wordpool_576.txt	LTP387	ltpFR2	1	10	FRUIT	610	n/a	n/a	0	0	0
2135.2734375	n/a	WORD	4373040	wordpools/wasnorm_wordpool_576.txt	LTP387	ltpFR2	1	10	LETTUCE	814	n/a	n/a	0	0	0
2137.9052734375	n/a	WORD	4378430	wordpools/wasnorm_wordpool_576.txt	LTP387	ltpFR2	1	10	TREAT	1501	n/a	n/a	0	0	0
2140.42333984375	n/a	WORD	4383587	wordpools/wasnorm_wordpool_576.txt	LTP387	ltpFR2	1	10	CIGAR	308	n/a	n/a	0	0	0
2142.9892578125	n/a	WORD	4388842	wordpools/wasnorm_wordpool_576.txt	LTP387	ltpFR2	1	10	ISLAND	745	n/a	n/a	0	0	0
2145.4892578125	n/a	WORD	4393962	wordpools/wasnorm_wordpool_576.txt	LTP387	ltpFR2	1	10	PUDDLE	1140	n/a	n/a	0	0	0
2147.93896484375	n/a	WORD	4398979	wordpools/wasnorm_wordpool_576.txt	LTP387	ltpFR2	1	10	TURKEY	1520	n/a	n/a	0	0	0
2150.505859375	n/a	WORD	4404236	wordpools/wasnorm_wordpool_576.txt	LTP387	ltpFR2	1	10	AIRPLANE	12	n/a	n/a	0	0	0
2153.27294921875	n/a	WORD	4409903	wordpools/wasnorm_wordpool_576.txt	LTP387	ltpFR2	1	10	DIVER	476	n/a	n/a	0	0	0
2155.72265625	n/a	WORD	4414920	wordpools/wasnorm_wordpool_576.txt	LTP387	ltpFR2	1	10	PLAZA	1088	n/a	n/a	0	0	0
2158.53857421875	n/a	WORD	4420687	wordpools/wasnorm_wordpool_576.txt	LTP387	ltpFR2	1	10	TART	1436	n/a	n/a	0	0	0
2161.00537109375	n/a	WORD	4425739	wordpools/wasnorm_wordpool_576.txt	LTP387	ltpFR2	1	10	HEADBAND	696	n/a	n/a	0	0	0
2163.67138671875	n/a	WORD	4431199	wordpools/wasnorm_wordpool_576.txt	LTP387	ltpFR2	1	10	LAGOON	795	n/a	n/a	0	0	0
2166.4384765625	n/a	WORD	4436866	wordpools/wasnorm_wordpool_576.txt	LTP387	ltpFR2	1	10	SPONGE	1355	n/a	n/a	0	0	0
2169.12109375	n/a	WORD	4442360	wordpools/wasnorm_wordpool_576.txt	LTP387	ltpFR2	1	10	POLICE	1098	n/a	n/a	0	0	0
2171.55517578125	n/a	WORD	4447345	wordpools/wasnorm_wordpool_576.txt	LTP387	ltpFR2	1	10	PIMPLE	1071	n/a	n/a	0	0	0
2174.33837890625	n/a	WORD	4453045	wordpools/wasnorm_wordpool_576.txt	LTP387	ltpFR2	1	10	OUTDOORS	987	n/a	n/a	0	0	0
2177.0380859375	n/a	WORD	4458574	wordpools/wasnorm_wordpool_576.txt	LTP387	ltpFR2	1	10	MARINE	869	n/a	n/a	0	0	0
2178.65478515625	n/a	START	4461885	n/a	LTP387	ltpFR2	1	n/a	n/a	n/a	14	n/a	n/a	n/a	n/a
2179.4970703125	n/a	DISTRACTOR	4463610	n/a	LTP387	ltpFR2	1	10	n/a	n/a	n/a	n/a	0	0	0
2179.5048828125	n/a	PROB	4463626	n/a	LTP387	ltpFR2	1	n/a	n/a	n/a	14	20	7	4	9
2182.9541015625	n/a	PROB	4470690	n/a	LTP387	ltpFR2	1	n/a	n/a	n/a	14	18	7	2	9
2184.837890625	n/a	PROB	4474548	n/a	LTP387	ltpFR2	1	n/a	n/a	n/a	14	11	9	1	1
2186.720703125	n/a	PROB	4478404	n/a	LTP387	ltpFR2	1	n/a	n/a	n/a	14	26	9	9	8
2190.57080078125	n/a	PROB	4486289	n/a	LTP387	ltpFR2	1	n/a	n/a	n/a	14	9	1	6	2
2192.15380859375	n/a	PROB	4489531	n/a	LTP387	ltpFR2	1	n/a	n/a	n/a	14	10	4	1	5
2193.83740234375	n/a	PROB	4492979	n/a	LTP387	ltpFR2	1	n/a	n/a	n/a	14	9	1	3	5
2196.1875	n/a	PROB	4497792	n/a	LTP387	ltpFR2	1	n/a	n/a	n/a	14	14	6	3	5
2198.38720703125	n/a	PROB	4502297	n/a	LTP387	ltpFR2	1	n/a	n/a	n/a	14	12	7	2	3
2200.75341796875	n/a	PROB	4507143	n/a	LTP387	ltpFR2	1	n/a	n/a	n/a	14	16	2	5	9
2202.5625	n/a	STOP	4510848	n/a	LTP387	ltpFR2	1	n/a	n/a	n/a	14	n/a	n/a	n/a	n/a
2204.50439453125	n/a	REC_START	4514825	n/a	LTP387	ltpFR2	1	10	n/a	n/a	n/a	n/a	0	0	0
2206.97021484375	n/a	REC_WORD	4519875	wordpools/wasnorm_wordpool_576.txt	LTP387	ltpFR2	1	10	DIVER	476	n/a	n/a	0	0	0
2208.26904296875	n/a	REC_WORD	4522535	wordpools/wasnorm_wordpool_576.txt	LTP387	ltpFR2	1	10	HEADBAND	696	n/a	n/a	0	0	0
2210.39208984375	n/a	REC_WORD	4526883	wordpools/wasnorm_wordpool_576.txt	LTP387	ltpFR2	1	10	AIRPLANE	12	n/a	n/a	0	0	0
2214.14208984375	n/a	REC_WORD	4534563	wordpools/wasnorm_wordpool_576.txt	LTP387	ltpFR2	1	10	ISLAND	745	n/a	n/a	0	0	0
2215.720703125	n/a	REC_WORD	4537796	wordpools/wasnorm_wordpool_576.txt	LTP387	ltpFR2	1	10	CYCLONE	431	n/a	n/a	0	0	0
2219.27490234375	n/a	REC_WORD	4545075	wordpools/wasnorm_wordpool_576.txt	LTP387	ltpFR2	1	10	OUTDOORS	987	n/a	n/a	0	0	0
2225.42333984375	n/a	REC_WORD	4557667	wordpools/wasnorm_wordpool_576.txt	LTP387	ltpFR2	1	10	CASHIER	254	n/a	n/a	0	0	0
2227.259765625	n/a	REC_WORD	4561428	wordpools/wasnorm_wordpool_576.txt	LTP387	ltpFR2	1	10	ROBBER	1197	n/a	n/a	0	0	0
2228.9423828125	n/a	REC_WORD	4564874	wordpools/wasnorm_wordpool_576.txt	LTP387	ltpFR2	1	10	FRUIT	610	n/a	n/a	0	0	0
2230.97119140625	n/a	REC_WORD	4569029	wordpools/wasnorm_wordpool_576.txt	LTP387	ltpFR2	1	10	TREAT	1501	n/a	n/a	0	0	0
2255.82763671875	n/a	REC_WORD	4619935	wordpools/wasnorm_wordpool_576.txt	LTP387	ltpFR2	1	10	PUDDLE	1140	n/a	n/a	0	0	0
2275.87109375	n/a	REC_WORD	4660984	wordpools/wasnorm_wordpool_576.txt	LTP387	ltpFR2	1	10	CABBAGE	210	n/a	n/a	0	0	0
2294.94921875	n/a	DISTRACTOR	4700056	n/a	LTP387	ltpFR2	1	11	n/a	n/a	n/a	n/a	0	0	0
2294.94921875	n/a	START	4700056	n/a	LTP387	ltpFR2	1	n/a	n/a	n/a	15	n/a	n/a	n/a	n/a
2294.96533203125	n/a	PROB	4700089	n/a	LTP387	ltpFR2	1	n/a	n/a	n/a	15	11	6	4	1
2296.54931640625	n/a	PROB	4703333	n/a	LTP387	ltpFR2	1	n/a	n/a	n/a	15	13	7	3	3
2298.09912109375	n/a	PROB	4706507	n/a	LTP387	ltpFR2	1	n/a	n/a	n/a	15	16	4	7	5
2301.21533203125	n/a	PROB	4712889	n/a	LTP387	ltpFR2	1	n/a	n/a	n/a	15	12	1	6	5
2303.29931640625	n/a	PROB	4717157	n/a	LTP387	ltpFR2	1	n/a	n/a	n/a	15	10	5	3	2
2305.68212890625	n/a	PROB	4722037	n/a	LTP387	ltpFR2	1	n/a	n/a	n/a	15	14	4	1	9
2307.2490234375	n/a	PROB	4725246	n/a	LTP387	ltpFR2	1	n/a	n/a	n/a	15	16	6	7	3
2308.84912109375	n/a	PROB	4728523	n/a	LTP387	ltpFR2	1	n/a	n/a	n/a	15	16	3	4	9
2311.26513671875	n/a	PROB	4733471	n/a	LTP387	ltpFR2	1	n/a	n/a	n/a	15	10	4	1	5
2312.84814453125	n/a	PROB	4736713	n/a	LTP387	ltpFR2	1	n/a	n/a	n/a	15	15	6	6	3
2315.14794921875	n/a	PROB	4741423	n/a	LTP387	ltpFR2	1	n/a	n/a	n/a	15	9	3	2	4
2317.21484375	n/a	PROB	4745656	n/a	LTP387	ltpFR2	1	n/a	n/a	n/a	15	16	5	3	8
2318.77783203125	n/a	STOP	4748857	n/a	LTP387	ltpFR2	1	n/a	n/a	n/a	15	n/a	n/a	n/a	n/a
2319.98193359375	n/a	WORD	4751323	wordpools/wasnorm_wordpool_576.txt	LTP387	ltpFR2	1	11	UNCLE	1536	n/a	n/a	0	0	0
2322.66455078125	n/a	WORD	4756817	wordpools/wasnorm_wordpool_576.txt	LTP387	ltpFR2	1	11	FUNGUS	614	n/a	n/a	0	0	0
2325.24755859375	n/a	WORD	4762107	wordpools/wasnorm_wordpool_576.txt	LTP387	ltpFR2	1	11	FRAME	600	n/a	n/a	0	0	0
2327.83154296875	n/a	WORD	4767399	wordpools/wasnorm_wordpool_576.txt	LTP387	ltpFR2	1	11	OMELET	976	n/a	n/a	0	0	0
2330.5302734375	n/a	WORD	4772926	wordpools/wasnorm_wordpool_576.txt	LTP387	ltpFR2	1	11	BACON	67	n/a	n/a	0	0	0
2333.26416015625	n/a	WORD	4778525	wordpools/wasnorm_wordpool_576.txt	LTP387	ltpFR2	1	11	COMET	353	n/a	n/a	0	0	0
2335.87939453125	n/a	WORD	4783881	wordpools/wasnorm_wordpool_576.txt	LTP387	ltpFR2	1	11	SNACK	1331	n/a	n/a	0	0	0
2338.3642578125	n/a	WORD	4788970	wordpools/wasnorm_wordpool_576.txt	LTP387	ltpFR2	1	11	MAILMAN	858	n/a	n/a	0	0	0
2340.89599609375	n/a	WORD	4794155	wordpools/wasnorm_wordpool_576.txt	LTP387	ltpFR2	1	11	OUTLAW	989	n/a	n/a	0	0	0
2343.43017578125	n/a	WORD	4799345	wordpools/wasnorm_wordpool_576.txt	LTP387	ltpFR2	1	11	GOBLIN	645	n/a	n/a	0	0	0
2346.046875	n/a	WORD	4804704	wordpools/wasnorm_wordpool_576.txt	LTP387	ltpFR2	1	11	MONSTER	912	n/a	n/a	0	0	0
2348.47998046875	n/a	WORD	4809687	wordpools/wasnorm_wordpool_576.txt	LTP387	ltpFR2	1	11	WORLD	1622	n/a	n/a	0	0	0
2350.99658203125	n/a	WORD	4814841	wordpools/wasnorm_wordpool_576.txt	LTP387	ltpFR2	1	11	ROCKET	1202	n/a	n/a	0	0	0
2353.546875	n/a	WORD	4820064	wordpools/wasnorm_wordpool_576.txt	LTP387	ltpFR2	1	11	PUPPY	1144	n/a	n/a	0	0	0
2356.2294921875	n/a	WORD	4825558	wordpools/wasnorm_wordpool_576.txt	LTP387	ltpFR2	1	11	LUMBER	848	n/a	n/a	0	0	0
2358.66259765625	n/a	WORD	4830541	wordpools/wasnorm_wordpool_576.txt	LTP387	ltpFR2	1	11	BLUEPRINT	142	n/a	n/a	0	0	0
2361.17919921875	n/a	WORD	4835695	wordpools/wasnorm_wordpool_576.txt	LTP387	ltpFR2	1	11	COLLEGE	346	n/a	n/a	0	0	0
2363.87841796875	n/a	WORD	4841223	wordpools/wasnorm_wordpool_576.txt	LTP387	ltpFR2	1	11	THIEF	1456	n/a	n/a	0	0	0
2366.62939453125	n/a	WORD	4846857	wordpools/wasnorm_wordpool_576.txt	LTP387	ltpFR2	1	11	ROOSTER	1209	n/a	n/a	0	0	0
2369.31201171875	n/a	WORD	4852351	wordpools/wasnorm_wordpool_576.txt	LTP387	ltpFR2	1	11	DRINK	498	n/a	n/a	0	0	0
2371.861328125	n/a	WORD	4857572	wordpools/wasnorm_wordpool_576.txt	LTP387	ltpFR2	1	11	KIDNEY	776	n/a	n/a	0	0	0
2374.31201171875	n/a	WORD	4862591	wordpools/wasnorm_wordpool_576.txt	LTP387	ltpFR2	1	11	OX	994	n/a	n/a	0	0	0
2377.044921875	n/a	WORD	4868188	wordpools/wasnorm_wordpool_576.txt	LTP387	ltpFR2	1	11	AWARD	63	n/a	n/a	0	0	0
2379.69482421875	n/a	WORD	4873615	wordpools/wasnorm_wordpool_576.txt	LTP387	ltpFR2	1	11	BREAST	171	n/a	n/a	0	0	0
2381.31201171875	n/a	START	4876927	n/a	LTP387	ltpFR2	1	n/a	n/a	n/a	16	n/a	n/a	n/a	n/a
2382.2158203125	n/a	DISTRACTOR	4878778	n/a	LTP387	ltpFR2	1	11	n/a	n/a	n/a	n/a	0	0	0
2382.22900390625	n/a	PROB	4878805	n/a	LTP387	ltpFR2	1	n/a	n/a	n/a	16	12	8	3	1
2384.51171875	n/a	PROB	4883480	n/a	LTP387	ltpFR2	1	n/a	n/a	n/a	16	12	4	5	3
2386.36181640625	n/a	PROB	4887269	n/a	LTP387	ltpFR2	1	n/a	n/a	n/a	16	17	6	7	4
2388.66162109375	n/a	PROB	4891979	n/a	LTP387	ltpFR2	1	n/a	n/a	n/a	16	17	7	6	4
2390.62841796875	n/a	PROB	4896007	n/a	LTP387	ltpFR2	1	n/a	n/a	n/a	16	10	2	5	3
2392.76123046875	n/a	PROB	4900375	n/a	LTP387	ltpFR2	1	n/a	n/a	n/a	16	12	1	6	5
2395.14453125	n/a	PROB	4905256	n/a	LTP387	ltpFR2	1	n/a	n/a	n/a	16	23	9	9	5
2399.87646484375	n/a	PROB	4914947	n/a	LTP387	ltpFR2	1	n/a	n/a	n/a	16	17	8	4	5
2402.9443359375	n/a	PROB	4921230	n/a	LTP387	ltpFR2	1	n/a	n/a	n/a	16	10	2	3	5
2404.31396484375	n/a	STOP	4924035	n/a	LTP387	ltpFR2	1	n/a	n/a	n/a	16	n/a	n/a	n/a	n/a
2407.09423828125	n/a	REC_START	4929729	n/a	LTP387	ltpFR2	1	11	n/a	n/a	n/a	n/a	0	0	0
2409.7021484375	n/a	REC_WORD	4935070	wordpools/wasnorm_wordpool_576.txt	LTP387	ltpFR2	1	11	UNCLE	1536	n/a	n/a	0	0	0
2411.39111328125	n/a	REC_WORD	4938529	wordpools/wasnorm_wordpool_576.txt	LTP387	ltpFR2	1	11	DRINK	498	n/a	n/a	0	0	0
2413.23583984375	n/a	REC_WORD	4942307	wordpools/wasnorm_wordpool_576.txt	LTP387	ltpFR2	1	11	FUNGUS	614	n/a	n/a	0	0	0
2414.59765625	n/a	REC_WORD	4945096	wordpools/wasnorm_wordpool_576.txt	LTP387	ltpFR2	1	11	OMELET	976	n/a	n/a	0	0	0
2416.77685546875	n/a	REC_WORD	4949559	wordpools/wasnorm_wordpool_576.txt	LTP387	ltpFR2	1	11	SNACK	1331	n/a	n/a	0	0	0
2422.5634765625	n/a	REC_WORD	4961410	wordpools/wasnorm_wordpool_576.txt	LTP387	ltpFR2	1	11	MAILMAN	858	n/a	n/a	0	0	0
2424.62451171875	n/a	REC_WORD	4965631	wordpools/wasnorm_wordpool_576.txt	LTP387	ltpFR2	1	11	AWARD	63	n/a	n/a	0	0	0
2426.86328125	n/a	REC_WORD	4970216	wordpools/wasnorm_wordpool_576.txt	LTP387	ltpFR2	1	11	OX	994	n/a	n/a	0	0	0
2431.13232421875	n/a	REC_WORD	4978959	wordpools/wasnorm_wordpool_576.txt	LTP387	ltpFR2	1	11	OUTLAW	989	n/a	n/a	0	0	0
2432.8671875	n/a	REC_WORD	4982512	wordpools/wasnorm_wordpool_576.txt	LTP387	ltpFR2	1	11	THIEF	1456	n/a	n/a	0	0	0
2436.580078125	n/a	REC_WORD	4990116	wordpools/wasnorm_wordpool_576.txt	LTP387	ltpFR2	1	11	PUPPY	1144	n/a	n/a	0	0	0
2450.306640625	n/a	REC_WORD	5018228	wordpools/wasnorm_wordpool_576.txt	LTP387	ltpFR2	1	11	COMET	353	n/a	n/a	0	0	0
2451.60546875	n/a	REC_WORD	5020888	wordpools/wasnorm_wordpool_576.txt	LTP387	ltpFR2	1	11	WORLD	1622	n/a	n/a	0	0	0
2453.0087890625	n/a	REC_WORD	5023762	wordpools/wasnorm_wordpool_576.txt	LTP387	ltpFR2	1	11	BLUEPRINT	142	n/a	n/a	0	0	0
2454.37841796875	n/a	REC_WORD	5026567	wordpools/wasnorm_wordpool_576.txt	LTP387	ltpFR2	1	11	COLLEGE	346	n/a	n/a	0	0	0
2456.1435546875	n/a	REC_WORD	5030182	wordpools/wasnorm_wordpool_576.txt	LTP387	ltpFR2	1	11	ROCKET	1202	n/a	n/a	0	0	0
2497.5400390625	n/a	DISTRACTOR	5114962	n/a	LTP387	ltpFR2	1	12	n/a	n/a	n/a	n/a	0	0	0
2497.5400390625	n/a	START	5114962	n/a	LTP387	ltpFR2	1	n/a	n/a	n/a	17	n/a	n/a	n/a	n/a
2497.55615234375	n/a	PROB	5114995	n/a	LTP387	ltpFR2	1	n/a	n/a	n/a	17	21	9	9	3
2500.47314453125	n/a	PROB	5120969	n/a	LTP387	ltpFR2	1	n/a	n/a	n/a	17	12	5	1	6
2502.0732421875	n/a	PROB	5124246	n/a	LTP387	ltpFR2	1	n/a	n/a	n/a	17	14	6	5	3
2503.88818359375	n/a	PROB	5127963	n/a	LTP387	ltpFR2	1	n/a	n/a	n/a	17	14	2	9	3
2505.97314453125	n/a	PROB	5132233	n/a	LTP387	ltpFR2	1	n/a	n/a	n/a	17	12	5	2	4
2509.123046875	n/a	PROB	5138684	n/a	LTP387	ltpFR2	1	n/a	n/a	n/a	17	7	2	1	4
2510.98876953125	n/a	PROB	5142505	n/a	LTP387	ltpFR2	1	n/a	n/a	n/a	17	12	8	2	2
2512.638671875	n/a	PROB	5145884	n/a	LTP387	ltpFR2	1	n/a	n/a	n/a	17	11	6	1	4
2514.62158203125	n/a	PROB	5149945	n/a	LTP387	ltpFR2	1	n/a	n/a	n/a	17	11	9	1	1
2516.40576171875	n/a	PROB	5153599	n/a	LTP387	ltpFR2	1	n/a	n/a	n/a	17	18	7	5	6
2520.6015625	n/a	STOP	5162192	n/a	LTP387	ltpFR2	1	n/a	n/a	n/a	17	n/a	n/a	n/a	n/a
2522.48828125	n/a	WORD	5166056	wordpools/wasnorm_wordpool_576.txt	LTP387	ltpFR2	1	12	PECAN	1036	n/a	n/a	0	0	0
2524.95556640625	n/a	WORD	5171109	wordpools/wasnorm_wordpool_576.txt	LTP387	ltpFR2	1	12	PERCH	1048	n/a	n/a	0	0	0
2527.62158203125	n/a	WORD	5176569	wordpools/wasnorm_wordpool_576.txt	LTP387	ltpFR2	1	12	CLOTHES	327	n/a	n/a	0	0	0
2530.42138671875	n/a	WORD	5182303	wordpools/wasnorm_wordpool_576.txt	LTP387	ltpFR2	1	12	EXPERT	543	n/a	n/a	0	0	0
2533.02099609375	n/a	WORD	5187627	wordpools/wasnorm_wordpool_576.txt	LTP387	ltpFR2	1	12	PENGUIN	1044	n/a	n/a	0	0	0
2535.68798828125	n/a	WORD	5193089	wordpools/wasnorm_wordpool_576.txt	LTP387	ltpFR2	1	12	EGYPT	519	n/a	n/a	0	0	0
2538.15380859375	n/a	WORD	5198139	wordpools/wasnorm_wordpool_576.txt	LTP387	ltpFR2	1	12	TABLET	1427	n/a	n/a	0	0	0
2540.970703125	n/a	WORD	5203908	wordpools/wasnorm_wordpool_576.txt	LTP387	ltpFR2	1	12	SILK	1307	n/a	n/a	0	0	0
2543.65380859375	n/a	WORD	5209403	wordpools/wasnorm_wordpool_576.txt	LTP387	ltpFR2	1	12	FEMALE	559	n/a	n/a	0	0	0
2546.18798828125	n/a	WORD	5214593	wordpools/wasnorm_wordpool_576.txt	LTP387	ltpFR2	1	12	MESSAGE	888	n/a	n/a	0	0	0
2548.9208984375	n/a	WORD	5220190	wordpools/wasnorm_wordpool_576.txt	LTP387	ltpFR2	1	12	CASHEW	253	n/a	n/a	0	0	0
2551.67041015625	n/a	WORD	5225821	wordpools/wasnorm_wordpool_576.txt	LTP387	ltpFR2	1	12	FOX	598	n/a	n/a	0	0	0
2554.37060546875	n/a	WORD	5231351	wordpools/wasnorm_wordpool_576.txt	LTP387	ltpFR2	1	12	NOVEL	960	n/a	n/a	0	0	0
2557.17041015625	n/a	WORD	5237085	wordpools/wasnorm_wordpool_576.txt	LTP387	ltpFR2	1	12	HANDBAG	684	n/a	n/a	0	0	0
2559.63623046875	n/a	WORD	5242135	wordpools/wasnorm_wordpool_576.txt	LTP387	ltpFR2	1	12	SHORTCAKE	1292	n/a	n/a	0	0	0
2562.3701171875	n/a	WORD	5247734	wordpools/wasnorm_wordpool_576.txt	LTP387	ltpFR2	1	12	COUNTRY	388	n/a	n/a	0	0	0
2565.18603515625	n/a	WORD	5253501	wordpools/wasnorm_wordpool_576.txt	LTP387	ltpFR2	1	12	JOURNAL	760	n/a	n/a	0	0	0
2567.919921875	n/a	WORD	5259100	wordpools/wasnorm_wordpool_576.txt	LTP387	ltpFR2	1	12	CHAPEL	280	n/a	n/a	0	0	0
2570.43603515625	n/a	WORD	5264253	wordpools/wasnorm_wordpool_576.txt	LTP387	ltpFR2	1	12	ICING	732	n/a	n/a	0	0	0
2573.10302734375	n/a	WORD	5269715	wordpools/wasnorm_wordpool_576.txt	LTP387	ltpFR2	1	12	WINDOW	1611	n/a	n/a	0	0	0
2575.85302734375	n/a	WORD	5275347	wordpools/wasnorm_wordpool_576.txt	LTP387	ltpFR2	1	12	CURTAIN	427	n/a	n/a	0	0	0
2578.6357421875	n/a	WORD	5281046	wordpools/wasnorm_wordpool_576.txt	LTP387	ltpFR2	1	12	BUGGY	188	n/a	n/a	0	0	0
2581.3857421875	n/a	WORD	5286678	wordpools/wasnorm_wordpool_576.txt	LTP387	ltpFR2	1	12	COWBOY	395	n/a	n/a	0	0	0
2584.0185546875	n/a	WORD	5292070	wordpools/wasnorm_wordpool_576.txt	LTP387	ltpFR2	1	12	HAND	683	n/a	n/a	0	0	0
2585.6357421875	n/a	START	5295382	n/a	LTP387	ltpFR2	1	n/a	n/a	n/a	18	n/a	n/a	n/a	n/a
2586.83447265625	n/a	DISTRACTOR	5297837	n/a	LTP387	ltpFR2	1	12	n/a	n/a	n/a	n/a	0	0	0
2586.8525390625	n/a	PROB	5297874	n/a	LTP387	ltpFR2	1	n/a	n/a	n/a	18	16	2	7	7
2590.28564453125	n/a	PROB	5304905	n/a	LTP387	ltpFR2	1	n/a	n/a	n/a	18	17	5	5	7
2591.8525390625	n/a	PROB	5308114	n/a	LTP387	ltpFR2	1	n/a	n/a	n/a	18	19	8	8	3
2593.7353515625	n/a	PROB	5311970	n/a	LTP387	ltpFR2	1	n/a	n/a	n/a	18	13	3	5	5
2595.58544921875	n/a	PROB	5315759	n/a	LTP387	ltpFR2	1	n/a	n/a	n/a	18	12	8	1	3
2597.4853515625	n/a	PROB	5319650	n/a	LTP387	ltpFR2	1	n/a	n/a	n/a	18	12	1	5	6
2599.26806640625	n/a	PROB	5323301	n/a	LTP387	ltpFR2	1	n/a	n/a	n/a	18	8	2	2	4
2601.06787109375	n/a	PROB	5326987	n/a	LTP387	ltpFR2	1	n/a	n/a	n/a	18	17	8	2	7
2603.951171875	n/a	PROB	5332892	n/a	LTP387	ltpFR2	1	n/a	n/a	n/a	18	16	9	6	1
2606.10107421875	n/a	PROB	5337295	n/a	LTP387	ltpFR2	1	n/a	n/a	n/a	18	10	2	1	7
2608.14599609375	n/a	STOP	5341483	n/a	LTP387	ltpFR2	1	n/a	n/a	n/a	18	n/a	n/a	n/a	n/a
2611.56787109375	n/a	REC_START	5348491	n/a	LTP387	ltpFR2	1	12	n/a	n/a	n/a	n/a	0	0	0
2613.66552734375	n/a	REC_WORD	5352787	wordpools/wasnorm_wordpool_576.txt	LTP387	ltpFR2	1	12	EGYPT	519	n/a	n/a	0	0	0
2614.9326171875	n/a	REC_WORD	5355382	wordpools/wasnorm_wordpool_576.txt	LTP387	ltpFR2	1	12	COUNTRY	388	n/a	n/a	0	0	0
2617.18359375	n/a	REC_WORD	5359992	wordpools/wasnorm_wordpool_576.txt	LTP387	ltpFR2	1	12	EXPERT	543	n/a	n/a	0	0	0
2618.6416015625	n/a	REC_WORD	5362978	wordpools/wasnorm_wordpool_576.txt	LTP387	ltpFR2	1	12	CLOTHES	327	n/a	n/a	0	0	0
2620.54248046875	n/a	REC_WORD	5366871	wordpools/wasnorm_wordpool_576.txt	LTP387	ltpFR2	1	12	SILK	1307	n/a	n/a	0	0	0
2622.02734375	n/a	REC_WORD	5369912	wordpools/wasnorm_wordpool_576.txt	LTP387	ltpFR2	1	12	TABLET	1427	n/a	n/a	0	0	0
2623.6484375	n/a	REC_WORD	5373232	wordpools/wasnorm_wordpool_576.txt	LTP387	ltpFR2	1	12	MESSAGE	888	n/a	n/a	0	0	0
2625.59521484375	n/a	REC_WORD	5377219	wordpools/wasnorm_wordpool_576.txt	LTP387	ltpFR2	1	12	JOURNAL	760	n/a	n/a	0	0	0
2641.5029296875	n/a	REC_WORD	5409798	wordpools/wasnorm_wordpool_576.txt	LTP387	ltpFR2	1	12	PECAN	1036	n/a	n/a	0	0	0
2642.85400390625	n/a	REC_WORD	5412565	wordpools/wasnorm_wordpool_576.txt	LTP387	ltpFR2	1	12	CASHEW	253	n/a	n/a	0	0	0
2644.57958984375	n/a	REC_WORD	5416099	wordpools/wasnorm_wordpool_576.txt	LTP387	ltpFR2	1	12	BUGGY	188	n/a	n/a	0	0	0
2646.08154296875	n/a	REC_WORD	5419175	wordpools/wasnorm_wordpool_576.txt	LTP387	ltpFR2	1	12	COWBOY	395	n/a	n/a	0	0	0
2649.67578125	n/a	REC_WORD	5426536	wordpools/wasnorm_wordpool_576.txt	LTP387	ltpFR2	1	12	PERCH	1048	n/a	n/a	0	0	0
2651.29150390625	n/a	REC_WORD	5429845	wordpools/wasnorm_wordpool_576.txt	LTP387	ltpFR2	1	12	PENGUIN	1044	n/a	n/a	0	0	0
2653.181640625	n/a	REC_WORD	5433716	wordpools/wasnorm_wordpool_576.txt	LTP387	ltpFR2	1	12	FOX	598	n/a	n/a	0	0	0
2668.93505859375	n/a	REC_WORD	5465979	wordpools/wasnorm_wordpool_576.txt	LTP387	ltpFR2	1	12	BACKPACK	-1	n/a	n/a	0	0	0
2680.1298828125	n/a	REC_WORD	5488906	wordpools/wasnorm_wordpool_576.txt	LTP387	ltpFR2	1	12	WINDOW	1611	n/a	n/a	0	0	0
2681.3525390625	n/a	REC_WORD	5491410	wordpools/wasnorm_wordpool_576.txt	LTP387	ltpFR2	1	12	CURTAIN	427	n/a	n/a	0	0	0
2702.02978515625	n/a	WORD	5533757	wordpools/wasnorm_wordpool_576.txt	LTP387	ltpFR2	1	13	SCOTCH	1251	n/a	n/a	0	0	0
2704.7470703125	n/a	WORD	5539322	wordpools/wasnorm_wordpool_576.txt	LTP387	ltpFR2	1	13	MONEY	908	n/a	n/a	0	0	0
2707.5126953125	n/a	WORD	5544986	wordpools/wasnorm_wordpool_576.txt	LTP387	ltpFR2	1	13	SALT	1229	n/a	n/a	0	0	0
2710.0966796875	n/a	WORD	5550278	wordpools/wasnorm_wordpool_576.txt	LTP387	ltpFR2	1	13	GIFT	635	n/a	n/a	0	0	0
2712.796875	n/a	WORD	5555808	wordpools/wasnorm_wordpool_576.txt	LTP387	ltpFR2	1	13	MOTOR	922	n/a	n/a	0	0	0
2715.54638671875	n/a	WORD	5561439	wordpools/wasnorm_wordpool_576.txt	LTP387	ltpFR2	1	13	ONION	977	n/a	n/a	0	0	0
2718.0126953125	n/a	WORD	5566490	wordpools/wasnorm_wordpool_576.txt	LTP387	ltpFR2	1	13	BLACKBOARD	133	n/a	n/a	0	0	0
2720.79638671875	n/a	WORD	5572191	wordpools/wasnorm_wordpool_576.txt	LTP387	ltpFR2	1	13	RUST	1219	n/a	n/a	0	0	0
2723.42919921875	n/a	WORD	5577583	wordpools/wasnorm_wordpool_576.txt	LTP387	ltpFR2	1	13	CLOCK	325	n/a	n/a	0	0	0
2726.17919921875	n/a	WORD	5583215	wordpools/wasnorm_wordpool_576.txt	LTP387	ltpFR2	1	13	ITEM	746	n/a	n/a	0	0	0
2728.89501953125	n/a	WORD	5588777	wordpools/wasnorm_wordpool_576.txt	LTP387	ltpFR2	1	13	DUST	508	n/a	n/a	0	0	0
2731.3291015625	n/a	WORD	5593762	wordpools/wasnorm_wordpool_576.txt	LTP387	ltpFR2	1	13	FRAGRANCE	599	n/a	n/a	0	0	0
2734.02880859375	n/a	WORD	5599291	wordpools/wasnorm_wordpool_576.txt	LTP387	ltpFR2	1	13	SEAL	1262	n/a	n/a	0	0	0
2736.544921875	n/a	WORD	5604444	wordpools/wasnorm_wordpool_576.txt	LTP387	ltpFR2	1	13	BUCKET	184	n/a	n/a	0	0	0
2739.01171875	n/a	WORD	5609496	wordpools/wasnorm_wordpool_576.txt	LTP387	ltpFR2	1	13	ACTRESS	6	n/a	n/a	0	0	0
2741.69482421875	n/a	WORD	5614991	wordpools/wasnorm_wordpool_576.txt	LTP387	ltpFR2	1	13	JUGGLER	763	n/a	n/a	0	0	0
2744.1279296875	n/a	WORD	5619974	wordpools/wasnorm_wordpool_576.txt	LTP387	ltpFR2	1	13	LAKE	796	n/a	n/a	0	0	0
2746.76171875	n/a	WORD	5625368	wordpools/wasnorm_wordpool_576.txt	LTP387	ltpFR2	1	13	MARROW	872	n/a	n/a	0	0	0
2749.41162109375	n/a	WORD	5630795	wordpools/wasnorm_wordpool_576.txt	LTP387	ltpFR2	1	13	BANKER	84	n/a	n/a	0	0	0
2751.8603515625	n/a	WORD	5635810	wordpools/wasnorm_wordpool_576.txt	LTP387	ltpFR2	1	13	COIN	343	n/a	n/a	0	0	0
2754.52734375	n/a	WORD	5641272	wordpools/wasnorm_wordpool_576.txt	LTP387	ltpFR2	1	13	PUPIL	1143	n/a	n/a	0	0	0
2757.14453125	n/a	WORD	5646632	wordpools/wasnorm_wordpool_576.txt	LTP387	ltpFR2	1	13	MILDEW	893	n/a	n/a	0	0	0
2759.5771484375	n/a	WORD	5651614	wordpools/wasnorm_wordpool_576.txt	LTP387	ltpFR2	1	13	PARSLEY	1016	n/a	n/a	0	0	0
2762.26123046875	n/a	WORD	5657111	wordpools/wasnorm_wordpool_576.txt	LTP387	ltpFR2	1	13	PLASTER	1085	n/a	n/a	0	0	0
2763.8759765625	n/a	START	5660418	n/a	LTP387	ltpFR2	1	n/a	n/a	n/a	19	n/a	n/a	n/a	n/a
2765.06689453125	n/a	DISTRACTOR	5662857	n/a	LTP387	ltpFR2	1	13	n/a	n/a	n/a	n/a	0	0	0
2765.078125	n/a	PROB	5662880	n/a	LTP387	ltpFR2	1	n/a	n/a	n/a	19	17	2	6	9
2767.34423828125	n/a	PROB	5667521	n/a	LTP387	ltpFR2	1	n/a	n/a	n/a	19	6	4	1	1
2768.97705078125	n/a	PROB	5670865	n/a	LTP387	ltpFR2	1	n/a	n/a	n/a	19	13	3	1	9
2770.626953125	n/a	PROB	5674244	n/a	LTP387	ltpFR2	1	n/a	n/a	n/a	19	20	4	9	7
2773.126953125	n/a	PROB	5679364	n/a	LTP387	ltpFR2	1	n/a	n/a	n/a	19	12	9	1	2
2774.69384765625	n/a	PROB	5682573	n/a	LTP387	ltpFR2	1	n/a	n/a	n/a	19	13	2	4	7
2776.9267578125	n/a	PROB	5687146	n/a	LTP387	ltpFR2	1	n/a	n/a	n/a	19	17	5	3	9
2778.8935546875	n/a	PROB	5691174	n/a	LTP387	ltpFR2	1	n/a	n/a	n/a	19	15	3	6	6
2781.609375	n/a	PROB	5696736	n/a	LTP387	ltpFR2	1	n/a	n/a	n/a	19	8	4	3	1
2783.7763671875	n/a	PROB	5701174	n/a	LTP387	ltpFR2	1	n/a	n/a	n/a	19	14	9	3	2
2787.87548828125	n/a	STOP	5709569	n/a	LTP387	ltpFR2	1	n/a	n/a	n/a	19	n/a	n/a	n/a	n/a
2789.6435546875	n/a	REC_START	5713190	n/a	LTP387	ltpFR2	1	13	n/a	n/a	n/a	n/a	0	0	0
2791.4912109375	n/a	REC_WORD	5716974	wordpools/wasnorm_wordpool_576.txt	LTP387	ltpFR2	1	13	PUPIL	1143	n/a	n/a	0	0	0
2793.4853515625	n/a	REC_WORD	5721058	wordpools/wasnorm_wordpool_576.txt	LTP387	ltpFR2	1	13	BLACKBOARD	133	n/a	n/a	0	0	0
2794.84814453125	n/a	REC_WORD	5723849	wordpools/wasnorm_wordpool_576.txt	LTP387	ltpFR2	1	13	RUST	1219	n/a	n/a	0	0	0
2796.244140625	n/a	REC_WORD	5726708	wordpools/wasnorm_wordpool_576.txt	LTP387	ltpFR2	1	13	MILDEW	893	n/a	n/a	0	0	0
2797.697265625	n/a	REC_WORD	5729684	wordpools/wasnorm_wordpool_576.txt	LTP387	ltpFR2	1	13	PLASTER	1085	n/a	n/a	0	0	0
2799.47607421875	n/a	REC_WORD	5733327	wordpools/wasnorm_wordpool_576.txt	LTP387	ltpFR2	1	13	CLOCK	325	n/a	n/a	0	0	0
2823.92138671875	n/a	REC_WORD	5783391	wordpools/wasnorm_wordpool_576.txt	LTP387	ltpFR2	1	13	SEAL	1262	n/a	n/a	0	0	0
2825.951171875	n/a	REC_WORD	5787548	wordpools/wasnorm_wordpool_576.txt	LTP387	ltpFR2	1	13	LAKE	796	n/a	n/a	0	0	0
2831.81591796875	n/a	REC_WORD	5799559	wordpools/wasnorm_wordpool_576.txt	LTP387	ltpFR2	1	13	BUCKET	184	n/a	n/a	0	0	0
2846.99462890625	n/a	REC_WORD	5830645	wordpools/wasnorm_wordpool_576.txt	LTP387	ltpFR2	1	13	PARSLEY	1016	n/a	n/a	0	0	0
2850.25244140625	n/a	REC_WORD	5837317	wordpools/wasnorm_wordpool_576.txt	LTP387	ltpFR2	1	13	ONION	977	n/a	n/a	0	0	0
2851.1806640625	n/a	REC_WORD	5839218	wordpools/wasnorm_wordpool_576.txt	LTP387	ltpFR2	1	13	SALT	1229	n/a	n/a	0	0	0
2852.68017578125	n/a	REC_WORD	5842289	wordpools/wasnorm_wordpool_576.txt	LTP387	ltpFR2	1	13	GIFT	635	n/a	n/a	0	0	0
2853.74853515625	n/a	REC_WORD	5844477	wordpools/wasnorm_wordpool_576.txt	LTP387	ltpFR2	1	13	MONEY	908	n/a	n/a	0	0	0
2854.72216796875	n/a	REC_WORD	5846471	wordpools/wasnorm_wordpool_576.txt	LTP387	ltpFR2	1	13	FRAGRANCE	599	n/a	n/a	0	0	0
2856.26513671875	n/a	REC_WORD	5849631	wordpools/wasnorm_wordpool_576.txt	LTP387	ltpFR2	1	13	ACTRESS	6	n/a	n/a	0	0	0
2857.705078125	n/a	REC_WORD	5852580	wordpools/wasnorm_wordpool_576.txt	LTP387	ltpFR2	1	13	SCOTCH	1251	n/a	n/a	0	0	0
2880.07177734375	n/a	DISTRACTOR	5898387	n/a	LTP387	ltpFR2	1	14	n/a	n/a	n/a	n/a	0	0	0
2880.07177734375	n/a	START	5898387	n/a	LTP387	ltpFR2	1	n/a	n/a	n/a	20	n/a	n/a	n/a	n/a
2880.08837890625	n/a	PROB	5898421	n/a	LTP387	ltpFR2	1	n/a	n/a	n/a	20	17	6	8	3
2882.48828125	n/a	PROB	5903336	n/a	LTP387	ltpFR2	1	n/a	n/a	n/a	20	17	7	5	5
2884.00537109375	n/a	PROB	5906443	n/a	LTP387	ltpFR2	1	n/a	n/a	n/a	20	26	9	9	8
2887.1884765625	n/a	PROB	5912962	n/a	LTP387	ltpFR2	1	n/a	n/a	n/a	20	12	5	5	2
2888.72119140625	n/a	PROB	5916101	n/a	LTP387	ltpFR2	1	n/a	n/a	n/a	20	21	8	6	7
2894.38818359375	n/a	PROB	5927707	n/a	LTP387	ltpFR2	1	n/a	n/a	n/a	20	19	6	4	9
2896.2041015625	n/a	PROB	5931426	n/a	LTP387	ltpFR2	1	n/a	n/a	n/a	20	17	5	7	5
2897.63818359375	n/a	PROB	5934363	n/a	LTP387	ltpFR2	1	n/a	n/a	n/a	20	14	1	7	6
2899.9541015625	n/a	PROB	5939106	n/a	LTP387	ltpFR2	1	n/a	n/a	n/a	20	26	6	8	8
2903.43408203125	n/a	STOP	5946233	n/a	LTP387	ltpFR2	1	n/a	n/a	n/a	20	n/a	n/a	n/a	n/a
2905.087890625	n/a	WORD	5949620	wordpools/wasnorm_wordpool_576.txt	LTP387	ltpFR2	1	14	GRILL	661	n/a	n/a	0	0	0
2907.6376953125	n/a	WORD	5954842	wordpools/wasnorm_wordpool_576.txt	LTP387	ltpFR2	1	14	ORCHID	982	n/a	n/a	0	0	0
2910.07080078125	n/a	WORD	5959825	wordpools/wasnorm_wordpool_576.txt	LTP387	ltpFR2	1	14	GUITAR	670	n/a	n/a	0	0	0
2912.70361328125	n/a	WORD	5965217	wordpools/wasnorm_wordpool_576.txt	LTP387	ltpFR2	1	14	WHISTLE	1606	n/a	n/a	0	0	0
2915.45361328125	n/a	WORD	5970849	wordpools/wasnorm_wordpool_576.txt	LTP387	ltpFR2	1	14	WRIST	1626	n/a	n/a	0	0	0
2917.986328125	n/a	WORD	5976036	wordpools/wasnorm_wordpool_576.txt	LTP387	ltpFR2	1	14	SEAFOOD	1260	n/a	n/a	0	0	0
2920.5361328125	n/a	WORD	5981258	wordpools/wasnorm_wordpool_576.txt	LTP387	ltpFR2	1	14	STICKER	1382	n/a	n/a	0	0	0
2923.00341796875	n/a	WORD	5986311	wordpools/wasnorm_wordpool_576.txt	LTP387	ltpFR2	1	14	POET	1095	n/a	n/a	0	0	0
2925.47021484375	n/a	WORD	5991363	wordpools/wasnorm_wordpool_576.txt	LTP387	ltpFR2	1	14	PERFUME	1049	n/a	n/a	0	0	0
2928.2861328125	n/a	WORD	5997130	wordpools/wasnorm_wordpool_576.txt	LTP387	ltpFR2	1	14	FLAG	573	n/a	n/a	0	0	0
2931.0029296875	n/a	WORD	6002694	wordpools/wasnorm_wordpool_576.txt	LTP387	ltpFR2	1	14	PICNIC	1060	n/a	n/a	0	0	0
2933.5361328125	n/a	WORD	6007882	wordpools/wasnorm_wordpool_576.txt	LTP387	ltpFR2	1	14	SANDWICH	1232	n/a	n/a	0	0	0
2936.20263671875	n/a	WORD	6013343	wordpools/wasnorm_wordpool_576.txt	LTP387	ltpFR2	1	14	SUBWAY	1400	n/a	n/a	0	0	0
2938.96875	n/a	WORD	6019008	wordpools/wasnorm_wordpool_576.txt	LTP387	ltpFR2	1	14	CROWN	415	n/a	n/a	0	0	0
2941.40283203125	n/a	WORD	6023993	wordpools/wasnorm_wordpool_576.txt	LTP387	ltpFR2	1	14	CLAMP	316	n/a	n/a	0	0	0
2944.03564453125	n/a	WORD	6029385	wordpools/wasnorm_wordpool_576.txt	LTP387	ltpFR2	1	14	SHOULDER	1294	n/a	n/a	0	0	0
2946.66845703125	n/a	WORD	6034777	wordpools/wasnorm_wordpool_576.txt	LTP387	ltpFR2	1	14	CRITIC	410	n/a	n/a	0	0	0
2949.25244140625	n/a	WORD	6040069	wordpools/wasnorm_wordpool_576.txt	LTP387	ltpFR2	1	14	TORTOISE	1486	n/a	n/a	0	0	0
2951.7021484375	n/a	WORD	6045086	wordpools/wasnorm_wordpool_576.txt	LTP387	ltpFR2	1	14	BEAVER	109	n/a	n/a	0	0	0
2954.30224609375	n/a	WORD	6050411	wordpools/wasnorm_wordpool_576.txt	LTP387	ltpFR2	1	14	SHELF	1280	n/a	n/a	0	0	0
2956.96826171875	n/a	WORD	6055871	wordpools/wasnorm_wordpool_576.txt	LTP387	ltpFR2	1	14	PERMIT	1051	n/a	n/a	0	0	0
2959.78515625	n/a	WORD	6061640	wordpools/wasnorm_wordpool_576.txt	LTP387	ltpFR2	1	14	BEEF	113	n/a	n/a	0	0	0
2962.5849609375	n/a	WORD	6067374	wordpools/wasnorm_wordpool_576.txt	LTP387	ltpFR2	1	14	ORANGE	980	n/a	n/a	0	0	0
2965.40087890625	n/a	WORD	6073141	wordpools/wasnorm_wordpool_576.txt	LTP387	ltpFR2	1	14	CITRUS	313	n/a	n/a	0	0	0
2967.01806640625	n/a	START	6076453	n/a	LTP387	ltpFR2	1	n/a	n/a	n/a	21	n/a	n/a	n/a	n/a
2968.03369140625	n/a	DISTRACTOR	6078533	n/a	LTP387	ltpFR2	1	14	n/a	n/a	n/a	n/a	0	0	0
2968.05078125	n/a	PROB	6078568	n/a	LTP387	ltpFR2	1	n/a	n/a	n/a	21	18	8	1	9
2970.20068359375	n/a	PROB	6082971	n/a	LTP387	ltpFR2	1	n/a	n/a	n/a	21	14	8	3	3
2972.017578125	n/a	PROB	6086692	n/a	LTP387	ltpFR2	1	n/a	n/a	n/a	21	21	9	9	3
2974.03466796875	n/a	PROB	6090823	n/a	LTP387	ltpFR2	1	n/a	n/a	n/a	21	15	8	2	5
2975.6005859375	n/a	PROB	6094030	n/a	LTP387	ltpFR2	1	n/a	n/a	n/a	21	14	1	9	4
2977.05078125	n/a	PROB	6097000	n/a	LTP387	ltpFR2	1	n/a	n/a	n/a	21	8	4	1	3
2978.86669921875	n/a	PROB	6100719	n/a	LTP387	ltpFR2	1	n/a	n/a	n/a	21	14	6	4	4
2980.33349609375	n/a	PROB	6103723	n/a	LTP387	ltpFR2	1	n/a	n/a	n/a	21	21	8	5	8
2983.55029296875	n/a	PROB	6110311	n/a	LTP387	ltpFR2	1	n/a	n/a	n/a	21	13	8	2	3
2985.08544921875	n/a	PROB	6113455	n/a	LTP387	ltpFR2	1	n/a	n/a	n/a	21	16	7	6	3
2986.9501953125	n/a	PROB	6117274	n/a	LTP387	ltpFR2	1	n/a	n/a	n/a	21	22	8	8	4
2989.67431640625	n/a	STOP	6122853	n/a	LTP387	ltpFR2	1	n/a	n/a	n/a	21	n/a	n/a	n/a	n/a
2992.9501953125	n/a	REC_START	6129562	n/a	LTP387	ltpFR2	1	14	n/a	n/a	n/a	n/a	0	0	0
2994.408203125	n/a	REC_WORD	6132548	wordpools/wasnorm_wordpool_576.txt	LTP387	ltpFR2	1	14	GRILL	661	n/a	n/a	0	0	0
2996.02783203125	n/a	REC_WORD	6135865	wordpools/wasnorm_wordpool_576.txt	LTP387	ltpFR2	1	14	SEAFOOD	1260	n/a	n/a	0	0	0
2998.27880859375	n/a	REC_WORD	6140475	wordpools/wasnorm_wordpool_576.txt	LTP387	ltpFR2	1	14	GARLIC	624	n/a	n/a	0	0	0
3000.0966796875	n/a	REC_WORD	6144198	wordpools/wasnorm_wordpool_576.txt	LTP387	ltpFR2	1	14	PICNIC	1060	n/a	n/a	0	0	0
3001.4716796875	n/a	REC_WORD	6147014	wordpools/wasnorm_wordpool_576.txt	LTP387	ltpFR2	1	14	SANDWICH	1232	n/a	n/a	0	0	0
3003.28369140625	n/a	REC_WORD	6150725	wordpools/wasnorm_wordpool_576.txt	LTP387	ltpFR2	1	14	BEEF	113	n/a	n/a	0	0	0
3004.7646484375	n/a	REC_WORD	6153758	wordpools/wasnorm_wordpool_576.txt	LTP387	ltpFR2	1	14	CITRUS	313	n/a	n/a	0	0	0
3006.76171875	n/a	REC_WORD	6157848	wordpools/wasnorm_wordpool_576.txt	LTP387	ltpFR2	1	14	ORANGE	980	n/a	n/a	0	0	0
3009.177734375	n/a	REC_WORD	6162796	wordpools/wasnorm_wordpool_576.txt	LTP387	ltpFR2	1	14	TORTOISE	1486	n/a	n/a	0	0	0
3011.7685546875	n/a	REC_WORD	6168102	wordpools/wasnorm_wordpool_576.txt	LTP387	ltpFR2	1	14	BEAVER	109	n/a	n/a	0	0	0
3013.732421875	n/a	REC_WORD	6172124	wordpools/wasnorm_wordpool_576.txt	LTP387	ltpFR2	1	14	WRIST	1626	n/a	n/a	0	0	0
3014.8564453125	n/a	REC_WORD	6174426	wordpools/wasnorm_wordpool_576.txt	LTP387	ltpFR2	1	14	SHOULDER	1294	n/a	n/a	0	0	0
3016.54638671875	n/a	REC_WORD	6177887	wordpools/wasnorm_wordpool_576.txt	LTP387	ltpFR2	1	14	STICKER	1382	n/a	n/a	0	0	0
3019.17333984375	n/a	REC_WORD	6183267	wordpools/wasnorm_wordpool_576.txt	LTP387	ltpFR2	1	14	CRITIC	410	n/a	n/a	0	0	0
3020.88037109375	n/a	REC_WORD	6186763	wordpools/wasnorm_wordpool_576.txt	LTP387	ltpFR2	1	14	POET	1095	n/a	n/a	0	0	0
3022.6103515625	n/a	REC_WORD	6190306	wordpools/wasnorm_wordpool_576.txt	LTP387	ltpFR2	1	14	GUITAR	670	n/a	n/a	0	0	0
3024.9111328125	n/a	REC_WORD	6195018	wordpools/wasnorm_wordpool_576.txt	LTP387	ltpFR2	1	14	WHISTLE	1606	n/a	n/a	0	0	0
3029.02978515625	n/a	REC_WORD	6203453	wordpools/wasnorm_wordpool_576.txt	LTP387	ltpFR2	1	14	PERFUME	1049	n/a	n/a	0	0	0
3083.37939453125	n/a	DISTRACTOR	6314761	n/a	LTP387	ltpFR2	1	15	n/a	n/a	n/a	n/a	0	0	0
3083.37939453125	n/a	START	6314761	n/a	LTP387	ltpFR2	1	n/a	n/a	n/a	22	n/a	n/a	n/a	n/a
3083.3955078125	n/a	PROB	6314794	n/a	LTP387	ltpFR2	1	n/a	n/a	n/a	22	14	6	7	1
3085.412109375	n/a	PROB	6318924	n/a	LTP387	ltpFR2	1	n/a	n/a	n/a	22	17	7	1	9
3086.92919921875	n/a	PROB	6322031	n/a	LTP387	ltpFR2	1	n/a	n/a	n/a	22	14	2	8	4
3088.37939453125	n/a	PROB	6325001	n/a	LTP387	ltpFR2	1	n/a	n/a	n/a	22	9	5	1	3
3090.17919921875	n/a	PROB	6328687	n/a	LTP387	ltpFR2	1	n/a	n/a	n/a	22	18	6	8	4
3092.3291015625	n/a	PROB	6333090	n/a	LTP387	ltpFR2	1	n/a	n/a	n/a	22	16	8	3	5
3094.8779296875	n/a	PROB	6338310	n/a	LTP387	ltpFR2	1	n/a	n/a	n/a	22	10	5	1	4
3096.544921875	n/a	PROB	6341724	n/a	LTP387	ltpFR2	1	n/a	n/a	n/a	22	17	6	7	4
3098.3779296875	n/a	PROB	6345478	n/a	LTP387	ltpFR2	1	n/a	n/a	n/a	22	16	3	5	8
3100.7119140625	n/a	PROB	6350258	n/a	LTP387	ltpFR2	1	n/a	n/a	n/a	22	14	4	4	5
3104.32763671875	n/a	PROB	6357663	n/a	LTP387	ltpFR2	1	n/a	n/a	n/a	22	15	8	6	1
3106.5615234375	n/a	STOP	6362238	n/a	LTP387	ltpFR2	1	n/a	n/a	n/a	22	n/a	n/a	n/a	n/a
3108.2275390625	n/a	WORD	6365650	wordpools/wasnorm_wordpool_576.txt	LTP387	ltpFR2	1	15	BRAKE	166	n/a	n/a	0	0	0
3110.8115234375	n/a	WORD	6370942	wordpools/wasnorm_wordpool_576.txt	LTP387	ltpFR2	1	15	LILY	821	n/a	n/a	0	0	0
3113.32763671875	n/a	WORD	6376095	wordpools/wasnorm_wordpool_576.txt	LTP387	ltpFR2	1	15	HAWK	692	n/a	n/a	0	0	0
3116.0615234375	n/a	WORD	6381694	wordpools/wasnorm_wordpool_576.txt	LTP387	ltpFR2	1	15	INMATE	738	n/a	n/a	0	0	0
3118.76123046875	n/a	WORD	6387223	wordpools/wasnorm_wordpool_576.txt	LTP387	ltpFR2	1	15	HOUND	724	n/a	n/a	0	0	0
3121.56005859375	n/a	WORD	6392955	wordpools/wasnorm_wordpool_576.txt	LTP387	ltpFR2	1	15	COBRA	336	n/a	n/a	0	0	0
3124.26025390625	n/a	WORD	6398485	wordpools/wasnorm_wordpool_576.txt	LTP387	ltpFR2	1	15	SWAMP	1416	n/a	n/a	0	0	0
3126.994140625	n/a	WORD	6404084	wordpools/wasnorm_wordpool_576.txt	LTP387	ltpFR2	1	15	FIREMAN	569	n/a	n/a	0	0	0
3129.626953125	n/a	WORD	6409476	wordpools/wasnorm_wordpool_576.txt	LTP387	ltpFR2	1	15	DRILL	497	n/a	n/a	0	0	0
3132.40966796875	n/a	WORD	6415175	wordpools/wasnorm_wordpool_576.txt	LTP387	ltpFR2	1	15	STATUE	1374	n/a	n/a	0	0	0
3134.8935546875	n/a	WORD	6420262	wordpools/wasnorm_wordpool_576.txt	LTP387	ltpFR2	1	15	GRAVE	658	n/a	n/a	0	0	0
3137.57666015625	n/a	WORD	6425757	wordpools/wasnorm_wordpool_576.txt	LTP387	ltpFR2	1	15	REPORT	1184	n/a	n/a	0	0	0
3140.3935546875	n/a	WORD	6431526	wordpools/wasnorm_wordpool_576.txt	LTP387	ltpFR2	1	15	CONVICT	371	n/a	n/a	0	0	0
3143.12646484375	n/a	WORD	6437123	wordpools/wasnorm_wordpool_576.txt	LTP387	ltpFR2	1	15	STAR	1373	n/a	n/a	0	0	0
3145.70947265625	n/a	WORD	6442413	wordpools/wasnorm_wordpool_576.txt	LTP387	ltpFR2	1	15	IDOL	733	n/a	n/a	0	0	0
3148.37646484375	n/a	WORD	6447875	wordpools/wasnorm_wordpool_576.txt	LTP387	ltpFR2	1	15	HEDGE	699	n/a	n/a	0	0	0
3150.9423828125	n/a	WORD	6453130	wordpools/wasnorm_wordpool_576.txt	LTP387	ltpFR2	1	15	BELLY	119	n/a	n/a	0	0	0
3153.75927734375	n/a	WORD	6458899	wordpools/wasnorm_wordpool_576.txt	LTP387	ltpFR2	1	15	LAPEL	800	n/a	n/a	0	0	0
3156.4921875	n/a	WORD	6464496	wordpools/wasnorm_wordpool_576.txt	LTP387	ltpFR2	1	15	MAILBOX	857	n/a	n/a	0	0	0
3159.1591796875	n/a	WORD	6469958	wordpools/wasnorm_wordpool_576.txt	LTP387	ltpFR2	1	15	BATHTUB	100	n/a	n/a	0	0	0
3161.958984375	n/a	WORD	6475692	wordpools/wasnorm_wordpool_576.txt	LTP387	ltpFR2	1	15	MATCH	878	n/a	n/a	0	0	0
3164.625	n/a	WORD	6481152	wordpools/wasnorm_wordpool_576.txt	LTP387	ltpFR2	1	15	SPOUSE	1358	n/a	n/a	0	0	0
3167.091796875	n/a	WORD	6486204	wordpools/wasnorm_wordpool_576.txt	LTP387	ltpFR2	1	15	HUSBAND	728	n/a	n/a	0	0	0
3169.79150390625	n/a	WORD	6491733	wordpools/wasnorm_wordpool_576.txt	LTP387	ltpFR2	1	15	NECKLACE	940	n/a	n/a	0	0	0
3171.40869140625	n/a	START	6495045	n/a	LTP387	ltpFR2	1	n/a	n/a	n/a	23	n/a	n/a	n/a	n/a
3172.51171875	n/a	DISTRACTOR	6497304	n/a	LTP387	ltpFR2	1	15	n/a	n/a	n/a	n/a	0	0	0
3172.5244140625	n/a	PROB	6497330	n/a	LTP387	ltpFR2	1	n/a	n/a	n/a	23	15	2	7	6
3176.95849609375	n/a	PROB	6506411	n/a	LTP387	ltpFR2	1	n/a	n/a	n/a	23	17	5	9	3
3179.70849609375	n/a	PROB	6512043	n/a	LTP387	ltpFR2	1	n/a	n/a	n/a	23	19	7	5	7
3181.70849609375	n/a	PROB	6516139	n/a	LTP387	ltpFR2	1	n/a	n/a	n/a	23	23	7	8	8
3185.84033203125	n/a	PROB	6524601	n/a	LTP387	ltpFR2	1	n/a	n/a	n/a	23	5	3	3	9
3189.291015625	n/a	PROB	6531668	n/a	LTP387	ltpFR2	1	n/a	n/a	n/a	23	12	2	2	8
3192.3408203125	n/a	PROB	6537914	n/a	LTP387	ltpFR2	1	n/a	n/a	n/a	23	24	6	6	6
3194.498046875	n/a	STOP	6542332	n/a	LTP387	ltpFR2	1	n/a	n/a	n/a	23	n/a	n/a	n/a	n/a
3197.291015625	n/a	REC_START	6548052	n/a	LTP387	ltpFR2	1	15	n/a	n/a	n/a	n/a	0	0	0
3199.7578125	n/a	REC_WORD	6553104	wordpools/wasnorm_wordpool_576.txt	LTP387	ltpFR2	1	15	LILY	821	n/a	n/a	0	0	0
3201.31591796875	n/a	REC_WORD	6556295	wordpools/wasnorm_wordpool_576.txt	LTP387	ltpFR2	1	15	HAWK	692	n/a	n/a	0	0	0
3202.69482421875	n/a	REC_WORD	6559119	wordpools/wasnorm_wordpool_576.txt	LTP387	ltpFR2	1	15	HOUND	724	n/a	n/a	0	0	0
3206.57470703125	n/a	REC_WORD	6567065	wordpools/wasnorm_wordpool_576.txt	LTP387	ltpFR2	1	15	INMATE	738	n/a	n/a	0	0	0
3208.04638671875	n/a	REC_WORD	6570079	wordpools/wasnorm_wordpool_576.txt	LTP387	ltpFR2	1	15	CONVICT	371	n/a	n/a	0	0	0
3210.87451171875	n/a	REC_WORD	6575871	wordpools/wasnorm_wordpool_576.txt	LTP387	ltpFR2	1	15	BRAKE	166	n/a	n/a	0	0	0
3212.365234375	n/a	REC_WORD	6578924	wordpools/wasnorm_wordpool_576.txt	LTP387	ltpFR2	1	15	GRAVE	658	n/a	n/a	0	0	0
3213.83251953125	n/a	REC_WORD	6581929	wordpools/wasnorm_wordpool_576.txt	LTP387	ltpFR2	1	15	SPOUSE	1358	n/a	n/a	0	0	0
3215.88720703125	n/a	REC_WORD	6586137	wordpools/wasnorm_wordpool_576.txt	LTP387	ltpFR2	1	15	HUSBAND	728	n/a	n/a	0	0	0
3218.37744140625	n/a	REC_WORD	6591237	wordpools/wasnorm_wordpool_576.txt	LTP387	ltpFR2	1	15	MATCH	878	n/a	n/a	0	0	0
3224.2001953125	n/a	REC_WORD	6603162	wordpools/wasnorm_wordpool_576.txt	LTP387	ltpFR2	1	15	BATHTUB	100	n/a	n/a	0	0	0
3239.63037109375	n/a	REC_WORD	6634763	wordpools/wasnorm_wordpool_576.txt	LTP387	ltpFR2	1	15	HEDGE	699	n/a	n/a	0	0	0
3287.7529296875	n/a	DISTRACTOR	6733318	n/a	LTP387	ltpFR2	1	16	n/a	n/a	n/a	n/a	0	0	0
3287.7529296875	n/a	START	6733318	n/a	LTP387	ltpFR2	1	n/a	n/a	n/a	24	n/a	n/a	n/a	n/a
3287.76904296875	n/a	PROB	6733351	n/a	LTP387	ltpFR2	1	n/a	n/a	n/a	24	13	4	2	7
3291.0361328125	n/a	PROB	6740042	n/a	LTP387	ltpFR2	1	n/a	n/a	n/a	24	23	9	8	6
3294.40283203125	n/a	PROB	6746937	n/a	LTP387	ltpFR2	1	n/a	n/a	n/a	24	1	1	7	2
3295.98583984375	n/a	PROB	6750179	n/a	LTP387	ltpFR2	1	n/a	n/a	n/a	24	14	8	2	4
3298.3857421875	n/a	PROB	6755094	n/a	LTP387	ltpFR2	1	n/a	n/a	n/a	24	14	6	2	6
3300.185546875	n/a	PROB	6758780	n/a	LTP387	ltpFR2	1	n/a	n/a	n/a	24	13	4	5	4
3303.70263671875	n/a	PROB	6765983	n/a	LTP387	ltpFR2	1	n/a	n/a	n/a	24	14	3	5	6
3306.068359375	n/a	PROB	6770828	n/a	LTP387	ltpFR2	1	n/a	n/a	n/a	24	7	3	1	3
3308.41845703125	n/a	PROB	6775641	n/a	LTP387	ltpFR2	1	n/a	n/a	n/a	24	11	4	2	5
3310.2734375	n/a	STOP	6779440	n/a	LTP387	ltpFR2	1	n/a	n/a	n/a	24	n/a	n/a	n/a	n/a
3312.91845703125	n/a	WORD	6784857	wordpools/wasnorm_wordpool_576.txt	LTP387	ltpFR2	1	16	EYELASH	546	n/a	n/a	0	0	0
3315.6513671875	n/a	WORD	6790454	wordpools/wasnorm_wordpool_576.txt	LTP387	ltpFR2	1	16	XEROX	1628	n/a	n/a	0	0	0
3318.4013671875	n/a	WORD	6796086	wordpools/wasnorm_wordpool_576.txt	LTP387	ltpFR2	1	16	IGLOO	734	n/a	n/a	0	0	0
3321.18505859375	n/a	WORD	6801787	wordpools/wasnorm_wordpool_576.txt	LTP387	ltpFR2	1	16	RATTLE	1170	n/a	n/a	0	0	0
3323.7509765625	n/a	WORD	6807042	wordpools/wasnorm_wordpool_576.txt	LTP387	ltpFR2	1	16	COOKBOOK	373	n/a	n/a	0	0	0
3326.2177734375	n/a	WORD	6812094	wordpools/wasnorm_wordpool_576.txt	LTP387	ltpFR2	1	16	LEG	809	n/a	n/a	0	0	0
3328.80078125	n/a	WORD	6817384	wordpools/wasnorm_wordpool_576.txt	LTP387	ltpFR2	1	16	SNAIL	1332	n/a	n/a	0	0	0
3331.2509765625	n/a	WORD	6822402	wordpools/wasnorm_wordpool_576.txt	LTP387	ltpFR2	1	16	LOVER	846	n/a	n/a	0	0	0
3333.91748046875	n/a	WORD	6827863	wordpools/wasnorm_wordpool_576.txt	LTP387	ltpFR2	1	16	JELLY	755	n/a	n/a	0	0	0
3336.66748046875	n/a	WORD	6833495	wordpools/wasnorm_wordpool_576.txt	LTP387	ltpFR2	1	16	PASSAGE	1019	n/a	n/a	0	0	0
3339.18359375	n/a	WORD	6838648	wordpools/wasnorm_wordpool_576.txt	LTP387	ltpFR2	1	16	CHEST	295	n/a	n/a	0	0	0
3341.95068359375	n/a	WORD	6844315	wordpools/wasnorm_wordpool_576.txt	LTP387	ltpFR2	1	16	DRESSER	496	n/a	n/a	0	0	0
3344.71728515625	n/a	WORD	6849981	wordpools/wasnorm_wordpool_576.txt	LTP387	ltpFR2	1	16	STOMACH	1384	n/a	n/a	0	0	0
3347.21630859375	n/a	WORD	6855099	wordpools/wasnorm_wordpool_576.txt	LTP387	ltpFR2	1	16	BABY	64	n/a	n/a	0	0	0
3349.81640625	n/a	WORD	6860424	wordpools/wasnorm_wordpool_576.txt	LTP387	ltpFR2	1	16	LUGGAGE	847	n/a	n/a	0	0	0
3352.3662109375	n/a	WORD	6865646	wordpools/wasnorm_wordpool_576.txt	LTP387	ltpFR2	1	16	KNAPSACK	783	n/a	n/a	0	0	0
3355.14990234375	n/a	WORD	6871347	wordpools/wasnorm_wordpool_576.txt	LTP387	ltpFR2	1	16	WIDOW	1608	n/a	n/a	0	0	0
3357.666015625	n/a	WORD	6876500	wordpools/wasnorm_wordpool_576.txt	LTP387	ltpFR2	1	16	MUMMY	932	n/a	n/a	0	0	0
3360.2158203125	n/a	WORD	6881722	wordpools/wasnorm_wordpool_576.txt	LTP387	ltpFR2	1	16	PILOT	1070	n/a	n/a	0	0	0
3362.69970703125	n/a	WORD	6886809	wordpools/wasnorm_wordpool_576.txt	LTP387	ltpFR2	1	16	FOOTBALL	591	n/a	n/a	0	0	0
3365.1826171875	n/a	WORD	6891894	wordpools/wasnorm_wordpool_576.txt	LTP387	ltpFR2	1	16	PARTNER	1017	n/a	n/a	0	0	0
3367.66552734375	n/a	WORD	6896979	wordpools/wasnorm_wordpool_576.txt	LTP387	ltpFR2	1	16	EMPIRE	530	n/a	n/a	0	0	0
3370.29833984375	n/a	WORD	6902371	wordpools/wasnorm_wordpool_576.txt	LTP387	ltpFR2	1	16	HEART	697	n/a	n/a	0	0	0
3372.83154296875	n/a	WORD	6907559	wordpools/wasnorm_wordpool_576.txt	LTP387	ltpFR2	1	16	DONOR	485	n/a	n/a	0	0	0
3374.4482421875	n/a	START	6910870	n/a	LTP387	ltpFR2	1	n/a	n/a	n/a	25	n/a	n/a	n/a	n/a
3375.361328125	n/a	DISTRACTOR	6912740	n/a	LTP387	ltpFR2	1	16	n/a	n/a	n/a	n/a	0	0	0
3375.365234375	n/a	PROB	6912748	n/a	LTP387	ltpFR2	1	n/a	n/a	n/a	25	18	8	4	6
3378.115234375	n/a	PROB	6918380	n/a	LTP387	ltpFR2	1	n/a	n/a	n/a	25	11	5	4	2
3380.6484375	n/a	PROB	6923568	n/a	LTP387	ltpFR2	1	n/a	n/a	n/a	25	14	6	4	4
3382.21533203125	n/a	PROB	6926777	n/a	LTP387	ltpFR2	1	n/a	n/a	n/a	25	16	5	7	4
3384.73095703125	n/a	PROB	6931929	n/a	LTP387	ltpFR2	1	n/a	n/a	n/a	25	11	8	2	1
3386.365234375	n/a	PROB	6935276	n/a	LTP387	ltpFR2	1	n/a	n/a	n/a	25	8	5	1	2
3388.115234375	n/a	PROB	6938860	n/a	LTP387	ltpFR2	1	n/a	n/a	n/a	25	18	6	3	9
3390.3310546875	n/a	PROB	6943398	n/a	LTP387	ltpFR2	1	n/a	n/a	n/a	25	16	1	8	7
3392.76513671875	n/a	PROB	6948383	n/a	LTP387	ltpFR2	1	n/a	n/a	n/a	25	13	5	2	6
3396.06494140625	n/a	PROB	6955141	n/a	LTP387	ltpFR2	1	n/a	n/a	n/a	25	18	7	4	7
3397.91357421875	n/a	STOP	6958927	n/a	LTP387	ltpFR2	1	n/a	n/a	n/a	25	n/a	n/a	n/a	n/a
3400.34765625	n/a	REC_START	6963912	n/a	LTP387	ltpFR2	1	16	n/a	n/a	n/a	n/a	0	0	0
3402.1728515625	n/a	REC_WORD	6967650	wordpools/wasnorm_wordpool_576.txt	LTP387	ltpFR2	1	16	EYELASH	546	n/a	n/a	0	0	0
3403.8505859375	n/a	REC_WORD	6971086	wordpools/wasnorm_wordpool_576.txt	LTP387	ltpFR2	1	16	XEROX	1628	n/a	n/a	0	0	0
3407.71923828125	n/a	REC_WORD	6979009	wordpools/wasnorm_wordpool_576.txt	LTP387	ltpFR2	1	16	RATTLE	1170	n/a	n/a	0	0	0
3410.97216796875	n/a	REC_WORD	6985671	wordpools/wasnorm_wordpool_576.txt	LTP387	ltpFR2	1	16	HEART	697	n/a	n/a	0	0	0
3417.623046875	n/a	REC_WORD	6999292	wordpools/wasnorm_wordpool_576.txt	LTP387	ltpFR2	1	16	BABY	64	n/a	n/a	0	0	0
3419.40087890625	n/a	REC_WORD	7002933	wordpools/wasnorm_wordpool_576.txt	LTP387	ltpFR2	1	16	STOMACH	1384	n/a	n/a	0	0	0
3421.2431640625	n/a	REC_WORD	7006706	wordpools/wasnorm_wordpool_576.txt	LTP387	ltpFR2	1	16	LOVER	846	n/a	n/a	0	0	0
3422.9248046875	n/a	REC_WORD	7010150	wordpools/wasnorm_wordpool_576.txt	LTP387	ltpFR2	1	16	PARTNER	1017	n/a	n/a	0	0	0
