onset	duration	trial_type	sample	stim_file	subject	experiment	session	trial	item_name	item_num	list	answer	test_x	test_y	test_z
207.968	n/a	SESS_START	103984	n/a	LTP330	ltpFR2	6	n/a	n/a	n/a	n/a	n/a	0	0	0
220.33	n/a	START	110165	n/a	LTP330	ltpFR2	6	n/a	n/a	n/a	-1	n/a	n/a	n/a	n/a
220.346	n/a	PROB	110173	n/a	LTP330	ltpFR2	6	n/a	n/a	n/a	-1	18	8	6	4
222.682	n/a	PROB	111341	n/a	LTP330	ltpFR2	6	n/a	n/a	n/a	-1	22	9	9	3
224.932	n/a	PROB	112466	n/a	LTP330	ltpFR2	6	n/a	n/a	n/a	-1	15	5	7	3
232.328	n/a	STOP	116164	n/a	LTP330	ltpFR2	6	n/a	n/a	n/a	-1	n/a	n/a	n/a	n/a
263.032	n/a	DISTRACTOR	131516	n/a	LTP330	ltpFR2	6	1	n/a	n/a	n/a	n/a	0	0	0
263.032	n/a	START	131516	n/a	LTP330	ltpFR2	6	n/a	n/a	n/a	1	n/a	n/a	n/a	n/a
263.048	n/a	PROB	131524	n/a	LTP330	ltpFR2	6	n/a	n/a	n/a	1	15	9	4	2
265.484	n/a	PROB	132742	n/a	LTP330	ltpFR2	6	n/a	n/a	n/a	1	8	1	3	4
267.218	n/a	PROB	133609	n/a	LTP330	ltpFR2	6	n/a	n/a	n/a	1	22	7	8	7
270.188	n/a	PROB	135094	n/a	LTP330	ltpFR2	6	n/a	n/a	n/a	1	16	5	6	5
273.124	n/a	PROB	136562	n/a	LTP330	ltpFR2	6	n/a	n/a	n/a	1	13	1	4	8
274.808	n/a	PROB	137404	n/a	LTP330	ltpFR2	6	n/a	n/a	n/a	1	9	1	2	6
276.092	n/a	PROB	138046	n/a	LTP330	ltpFR2	6	n/a	n/a	n/a	1	15	4	4	7
277.844	n/a	PROB	138922	n/a	LTP330	ltpFR2	6	n/a	n/a	n/a	1	13	8	4	1
279.664	n/a	PROB	139832	n/a	LTP330	ltpFR2	6	n/a	n/a	n/a	1	16	3	8	5
283.498	n/a	PROB	141749	n/a	LTP330	ltpFR2	6	n/a	n/a	n/a	1	24	7	9	8
285.916	n/a	STOP	142958	n/a	LTP330	ltpFR2	6	n/a	n/a	n/a	1	n/a	n/a	n/a	n/a
288.002	n/a	WORD	144001	wordpools/wasnorm_wordpool_576.txt	LTP330	ltpFR2	6	1	EGYPT	519	n/a	n/a	0	0	0
290.538	n/a	WORD	145269	wordpools/wasnorm_wordpool_576.txt	LTP330	ltpFR2	6	1	GRAPE	654	n/a	n/a	0	0	0
293.058	n/a	WORD	146529	wordpools/wasnorm_wordpool_576.txt	LTP330	ltpFR2	6	1	SCALLOP	1242	n/a	n/a	0	0	0
295.628	n/a	WORD	147814	wordpools/wasnorm_wordpool_576.txt	LTP330	ltpFR2	6	1	COOK	372	n/a	n/a	0	0	0
298.378	n/a	WORD	149189	wordpools/wasnorm_wordpool_576.txt	LTP330	ltpFR2	6	1	FILM	565	n/a	n/a	0	0	0
301.164	n/a	WORD	150582	wordpools/wasnorm_wordpool_576.txt	LTP330	ltpFR2	6	1	AIRPLANE	12	n/a	n/a	0	0	0
303.766	n/a	WORD	151883	wordpools/wasnorm_wordpool_576.txt	LTP330	ltpFR2	6	1	CYCLONE	431	n/a	n/a	0	0	0
306.552	n/a	WORD	153276	wordpools/wasnorm_wordpool_576.txt	LTP330	ltpFR2	6	1	MUMMY	932	n/a	n/a	0	0	0
309.054	n/a	WORD	154527	wordpools/wasnorm_wordpool_576.txt	LTP330	ltpFR2	6	1	BEAST	108	n/a	n/a	0	0	0
311.674	n/a	WORD	155837	wordpools/wasnorm_wordpool_576.txt	LTP330	ltpFR2	6	1	BISON	131	n/a	n/a	0	0	0
314.292	n/a	WORD	157146	wordpools/wasnorm_wordpool_576.txt	LTP330	ltpFR2	6	1	SCALPEL	1243	n/a	n/a	0	0	0
316.978	n/a	WORD	158489	wordpools/wasnorm_wordpool_576.txt	LTP330	ltpFR2	6	1	SCRIBBLE	1256	n/a	n/a	0	0	0
319.546	n/a	WORD	159773	wordpools/wasnorm_wordpool_576.txt	LTP330	ltpFR2	6	1	NOTEBOOK	959	n/a	n/a	0	0	0
322.198	n/a	WORD	161099	wordpools/wasnorm_wordpool_576.txt	LTP330	ltpFR2	6	1	TOASTER	1472	n/a	n/a	0	0	0
324.752	n/a	WORD	162376	wordpools/wasnorm_wordpool_576.txt	LTP330	ltpFR2	6	1	SPHINX	1349	n/a	n/a	0	0	0
327.186	n/a	WORD	163593	wordpools/wasnorm_wordpool_576.txt	LTP330	ltpFR2	6	1	OX	994	n/a	n/a	0	0	0
329.856	n/a	WORD	164928	wordpools/wasnorm_wordpool_576.txt	LTP330	ltpFR2	6	1	BUTCHER	203	n/a	n/a	0	0	0
332.374	n/a	WORD	166187	wordpools/wasnorm_wordpool_576.txt	LTP330	ltpFR2	6	1	BABY	64	n/a	n/a	0	0	0
334.91	n/a	WORD	167455	wordpools/wasnorm_wordpool_576.txt	LTP330	ltpFR2	6	1	EAGLE	512	n/a	n/a	0	0	0
337.362	n/a	WORD	168681	wordpools/wasnorm_wordpool_576.txt	LTP330	ltpFR2	6	1	TREAT	1501	n/a	n/a	0	0	0
339.848	n/a	WORD	169924	wordpools/wasnorm_wordpool_576.txt	LTP330	ltpFR2	6	1	GLOBE	641	n/a	n/a	0	0	0
342.65	n/a	WORD	171325	wordpools/wasnorm_wordpool_576.txt	LTP330	ltpFR2	6	1	CRITIC	410	n/a	n/a	0	0	0
345.15	n/a	WORD	172575	wordpools/wasnorm_wordpool_576.txt	LTP330	ltpFR2	6	1	GARLIC	624	n/a	n/a	0	0	0
347.854	n/a	WORD	173927	wordpools/wasnorm_wordpool_576.txt	LTP330	ltpFR2	6	1	KNIFE	785	n/a	n/a	0	0	0
349.472	n/a	START	174736	n/a	LTP330	ltpFR2	6	n/a	n/a	n/a	2	n/a	n/a	n/a	n/a
350.598	n/a	DISTRACTOR	175299	n/a	LTP330	ltpFR2	6	1	n/a	n/a	n/a	n/a	0	0	0
350.624	n/a	PROB	175312	n/a	LTP330	ltpFR2	6	n/a	n/a	n/a	2	11	1	7	2
352.99	n/a	PROB	176495	n/a	LTP330	ltpFR2	6	n/a	n/a	n/a	2	17	9	1	7
354.676	n/a	PROB	177338	n/a	LTP330	ltpFR2	6	n/a	n/a	n/a	2	13	3	4	6
356.41	n/a	PROB	178205	n/a	LTP330	ltpFR2	6	n/a	n/a	n/a	2	21	7	5	9
359.162	n/a	PROB	179581	n/a	LTP330	ltpFR2	6	n/a	n/a	n/a	2	13	8	3	2
361.564	n/a	PROB	180782	n/a	LTP330	ltpFR2	6	n/a	n/a	n/a	2	14	4	4	6
363.4	n/a	PROB	181700	n/a	LTP330	ltpFR2	6	n/a	n/a	n/a	2	17	3	6	8
365.802	n/a	PROB	182901	n/a	LTP330	ltpFR2	6	n/a	n/a	n/a	2	10	2	3	5
367.32	n/a	PROB	183660	n/a	LTP330	ltpFR2	6	n/a	n/a	n/a	2	18	3	8	7
369.622	n/a	PROB	184811	n/a	LTP330	ltpFR2	6	n/a	n/a	n/a	2	18	6	8	4
373.472	n/a	STOP	186736	n/a	LTP330	ltpFR2	6	n/a	n/a	n/a	2	n/a	n/a	n/a	n/a
375.26	n/a	REC_START	187630	n/a	LTP330	ltpFR2	6	1	n/a	n/a	n/a	n/a	0	0	0
380.81	n/a	REC_WORD	190405	wordpools/wasnorm_wordpool_576.txt	LTP330	ltpFR2	6	1	GARLIC	624	n/a	n/a	0	0	0
381.76	n/a	REC_WORD	190880	wordpools/wasnorm_wordpool_576.txt	LTP330	ltpFR2	6	1	GRAPE	654	n/a	n/a	0	0	0
382.654	n/a	REC_WORD	191327	wordpools/wasnorm_wordpool_576.txt	LTP330	ltpFR2	6	1	FEAST	556	n/a	n/a	0	0	0
384.738	n/a	REC_WORD	192369	wordpools/wasnorm_wordpool_576.txt	LTP330	ltpFR2	6	1	SCALLOP	1242	n/a	n/a	0	0	0
386.958	n/a	REC_WORD	193479	wordpools/wasnorm_wordpool_576.txt	LTP330	ltpFR2	6	1	EGYPT	519	n/a	n/a	0	0	0
388.986	n/a	REC_WORD	194493	wordpools/wasnorm_wordpool_576.txt	LTP330	ltpFR2	6	1	SPHINX	1349	n/a	n/a	0	0	0
390.182	n/a	REC_WORD	195091	wordpools/wasnorm_wordpool_576.txt	LTP330	ltpFR2	6	1	MUMMY	932	n/a	n/a	0	0	0
392.772	n/a	REC_WORD	196386	wordpools/wasnorm_wordpool_576.txt	LTP330	ltpFR2	6	1	BEAST	108	n/a	n/a	0	0	0
393.958	n/a	REC_WORD	196979	wordpools/wasnorm_wordpool_576.txt	LTP330	ltpFR2	6	1	BISON	131	n/a	n/a	0	0	0
395.162	n/a	REC_WORD	197581	wordpools/wasnorm_wordpool_576.txt	LTP330	ltpFR2	6	1	OX	994	n/a	n/a	0	0	0
396.328	n/a	REC_WORD	198164	wordpools/wasnorm_wordpool_576.txt	LTP330	ltpFR2	6	1	BUTCHER	203	n/a	n/a	0	0	0
398.97	n/a	REC_WORD	199485	wordpools/wasnorm_wordpool_576.txt	LTP330	ltpFR2	6	1	BABY	64	n/a	n/a	0	0	0
400.17	n/a	REC_WORD	200085	wordpools/wasnorm_wordpool_576.txt	LTP330	ltpFR2	6	1	EAGLE	512	n/a	n/a	0	0	0
402.96	n/a	REC_WORD	201480	wordpools/wasnorm_wordpool_576.txt	LTP330	ltpFR2	6	1	NOTEBOOK	959	n/a	n/a	0	0	0
403.9	n/a	REC_WORD	201950	wordpools/wasnorm_wordpool_576.txt	LTP330	ltpFR2	6	1	SCRIBBLE	1256	n/a	n/a	0	0	0
418.5	n/a	REC_WORD	209250	wordpools/wasnorm_wordpool_576.txt	LTP330	ltpFR2	6	1	COOK	372	n/a	n/a	0	0	0
426.22	n/a	REC_WORD	213110	wordpools/wasnorm_wordpool_576.txt	LTP330	ltpFR2	6	1	EGYPT	519	n/a	n/a	0	0	0
426.53	n/a	REC_WORD	213265	wordpools/wasnorm_wordpool_576.txt	LTP330	ltpFR2	6	1	SPHINX	1349	n/a	n/a	0	0	0
427.06	n/a	REC_WORD	213530	wordpools/wasnorm_wordpool_576.txt	LTP330	ltpFR2	6	1	MUMMY	932	n/a	n/a	0	0	0
465.704	n/a	DISTRACTOR	232852	n/a	LTP330	ltpFR2	6	2	n/a	n/a	n/a	n/a	0	0	0
465.704	n/a	START	232852	n/a	LTP330	ltpFR2	6	n/a	n/a	n/a	3	n/a	n/a	n/a	n/a
465.72	n/a	PROB	232860	n/a	LTP330	ltpFR2	6	n/a	n/a	n/a	3	8	1	6	1
467.104	n/a	PROB	233552	n/a	LTP330	ltpFR2	6	n/a	n/a	n/a	3	9	4	4	1
468.656	n/a	PROB	234328	n/a	LTP330	ltpFR2	6	n/a	n/a	n/a	3	20	8	6	6
470.724	n/a	PROB	235362	n/a	LTP330	ltpFR2	6	n/a	n/a	n/a	3	12	8	2	2
472.276	n/a	PROB	236138	n/a	LTP330	ltpFR2	6	n/a	n/a	n/a	3	12	5	1	6
473.51	n/a	PROB	236755	n/a	LTP330	ltpFR2	6	n/a	n/a	n/a	3	13	6	1	6
475.578	n/a	PROB	237789	n/a	LTP330	ltpFR2	6	n/a	n/a	n/a	3	19	5	5	9
477.096	n/a	PROB	238548	n/a	LTP330	ltpFR2	6	n/a	n/a	n/a	3	17	6	7	4
479.532	n/a	PROB	239766	n/a	LTP330	ltpFR2	6	n/a	n/a	n/a	3	19	5	9	5
481.0	n/a	PROB	240500	n/a	LTP330	ltpFR2	6	n/a	n/a	n/a	3	18	7	9	2
482.934	n/a	PROB	241467	n/a	LTP330	ltpFR2	6	n/a	n/a	n/a	3	13	1	5	7
484.452	n/a	PROB	242226	n/a	LTP330	ltpFR2	6	n/a	n/a	n/a	3	11	2	3	6
486.822	n/a	PROB	243411	n/a	LTP330	ltpFR2	6	n/a	n/a	n/a	3	20	8	6	6
488.704	n/a	STOP	244352	n/a	LTP330	ltpFR2	6	n/a	n/a	n/a	3	n/a	n/a	n/a	n/a
490.558	n/a	WORD	245279	wordpools/wasnorm_wordpool_576.txt	LTP330	ltpFR2	6	2	COFFEE	341	n/a	n/a	0	0	0
493.144	n/a	WORD	246572	wordpools/wasnorm_wordpool_576.txt	LTP330	ltpFR2	6	2	PIGMENT	1066	n/a	n/a	0	0	0
495.612	n/a	WORD	247806	wordpools/wasnorm_wordpool_576.txt	LTP330	ltpFR2	6	2	MISSILE	900	n/a	n/a	0	0	0
498.332	n/a	WORD	249166	wordpools/wasnorm_wordpool_576.txt	LTP330	ltpFR2	6	2	PORTRAIT	1111	n/a	n/a	0	0	0
500.768	n/a	WORD	250384	wordpools/wasnorm_wordpool_576.txt	LTP330	ltpFR2	6	2	ZIPPER	1636	n/a	n/a	0	0	0
503.418	n/a	WORD	251709	wordpools/wasnorm_wordpool_576.txt	LTP330	ltpFR2	6	2	TWISTER	1530	n/a	n/a	0	0	0
505.954	n/a	WORD	252977	wordpools/wasnorm_wordpool_576.txt	LTP330	ltpFR2	6	2	BUGGY	188	n/a	n/a	0	0	0
508.506	n/a	WORD	254253	wordpools/wasnorm_wordpool_576.txt	LTP330	ltpFR2	6	2	SWITCH	1422	n/a	n/a	0	0	0
511.308	n/a	WORD	255654	wordpools/wasnorm_wordpool_576.txt	LTP330	ltpFR2	6	2	LADY	794	n/a	n/a	0	0	0
514.06	n/a	WORD	257030	wordpools/wasnorm_wordpool_576.txt	LTP330	ltpFR2	6	2	MISTER	901	n/a	n/a	0	0	0
516.814	n/a	WORD	258407	wordpools/wasnorm_wordpool_576.txt	LTP330	ltpFR2	6	2	HONEY	713	n/a	n/a	0	0	0
519.498	n/a	WORD	259749	wordpools/wasnorm_wordpool_576.txt	LTP330	ltpFR2	6	2	TART	1436	n/a	n/a	0	0	0
522.15	n/a	WORD	261075	wordpools/wasnorm_wordpool_576.txt	LTP330	ltpFR2	6	2	FRIAR	605	n/a	n/a	0	0	0
524.936	n/a	WORD	262468	wordpools/wasnorm_wordpool_576.txt	LTP330	ltpFR2	6	2	OUTLAW	989	n/a	n/a	0	0	0
527.724	n/a	WORD	263862	wordpools/wasnorm_wordpool_576.txt	LTP330	ltpFR2	6	2	CRAYON	401	n/a	n/a	0	0	0
530.258	n/a	WORD	265129	wordpools/wasnorm_wordpool_576.txt	LTP330	ltpFR2	6	2	COSTUME	383	n/a	n/a	0	0	0
532.826	n/a	WORD	266413	wordpools/wasnorm_wordpool_576.txt	LTP330	ltpFR2	6	2	CLOTHES	327	n/a	n/a	0	0	0
535.596	n/a	WORD	267798	wordpools/wasnorm_wordpool_576.txt	LTP330	ltpFR2	6	2	DRAGON	492	n/a	n/a	0	0	0
538.232	n/a	WORD	269116	wordpools/wasnorm_wordpool_576.txt	LTP330	ltpFR2	6	2	SUBWAY	1400	n/a	n/a	0	0	0
540.968	n/a	WORD	270484	wordpools/wasnorm_wordpool_576.txt	LTP330	ltpFR2	6	2	STICKER	1382	n/a	n/a	0	0	0
543.67	n/a	WORD	271835	wordpools/wasnorm_wordpool_576.txt	LTP330	ltpFR2	6	2	WAITRESS	1581	n/a	n/a	0	0	0
546.372	n/a	WORD	273186	wordpools/wasnorm_wordpool_576.txt	LTP330	ltpFR2	6	2	JELLY	755	n/a	n/a	0	0	0
549.124	n/a	WORD	274562	wordpools/wasnorm_wordpool_576.txt	LTP330	ltpFR2	6	2	OFFICE	972	n/a	n/a	0	0	0
551.926	n/a	WORD	275963	wordpools/wasnorm_wordpool_576.txt	LTP330	ltpFR2	6	2	COOKBOOK	373	n/a	n/a	0	0	0
553.544	n/a	START	276772	n/a	LTP330	ltpFR2	6	n/a	n/a	n/a	4	n/a	n/a	n/a	n/a
554.536	n/a	DISTRACTOR	277268	n/a	LTP330	ltpFR2	6	2	n/a	n/a	n/a	n/a	0	0	0
554.562	n/a	PROB	277281	n/a	LTP330	ltpFR2	6	n/a	n/a	n/a	4	13	4	5	2
557.348	n/a	PROB	278674	n/a	LTP330	ltpFR2	6	n/a	n/a	n/a	4	12	1	3	8
558.598	n/a	PROB	279299	n/a	LTP330	ltpFR2	6	n/a	n/a	n/a	4	14	4	1	9
560.05	n/a	PROB	280025	n/a	LTP330	ltpFR2	6	n/a	n/a	n/a	4	13	1	4	8
562.102	n/a	PROB	281051	n/a	LTP330	ltpFR2	6	n/a	n/a	n/a	4	13	4	1	7
564.386	n/a	PROB	282193	n/a	LTP330	ltpFR2	6	n/a	n/a	n/a	4	20	9	9	1
566.64	n/a	PROB	283320	n/a	LTP330	ltpFR2	6	n/a	n/a	n/a	4	13	6	4	3
568.19	n/a	PROB	284095	n/a	LTP330	ltpFR2	6	n/a	n/a	n/a	4	5	2	2	1
569.592	n/a	PROB	284796	n/a	LTP330	ltpFR2	6	n/a	n/a	n/a	4	11	3	5	3
571.326	n/a	PROB	285663	n/a	LTP330	ltpFR2	6	n/a	n/a	n/a	4	15	7	3	5
572.694	n/a	PROB	286347	n/a	LTP330	ltpFR2	6	n/a	n/a	n/a	4	10	1	5	4
574.096	n/a	PROB	287048	n/a	LTP330	ltpFR2	6	n/a	n/a	n/a	4	7	1	3	3
577.544	n/a	STOP	288772	n/a	LTP330	ltpFR2	6	n/a	n/a	n/a	4	n/a	n/a	n/a	n/a
579.434	n/a	REC_START	289717	n/a	LTP330	ltpFR2	6	2	n/a	n/a	n/a	n/a	0	0	0
582.424	n/a	REC_WORD	291212	wordpools/wasnorm_wordpool_576.txt	LTP330	ltpFR2	6	2	COFFEE	341	n/a	n/a	0	0	0
583.048	n/a	REC_WORD	291524	wordpools/wasnorm_wordpool_576.txt	LTP330	ltpFR2	6	2	TART	1436	n/a	n/a	0	0	0
583.968	n/a	REC_WORD	291984	wordpools/wasnorm_wordpool_576.txt	LTP330	ltpFR2	6	2	JELLY	755	n/a	n/a	0	0	0
585.864	n/a	REC_WORD	292932	wordpools/wasnorm_wordpool_576.txt	LTP330	ltpFR2	6	2	LADY	794	n/a	n/a	0	0	0
586.696	n/a	REC_WORD	293348	wordpools/wasnorm_wordpool_576.txt	LTP330	ltpFR2	6	2	MISTER	901	n/a	n/a	0	0	0
590.206	n/a	REC_WORD	295103	wordpools/wasnorm_wordpool_576.txt	LTP330	ltpFR2	6	2	EXPERT	543	n/a	n/a	0	0	0
592.176	n/a	REC_WORD	296088	wordpools/wasnorm_wordpool_576.txt	LTP330	ltpFR2	6	2	CRAYON	401	n/a	n/a	0	0	0
592.946	n/a	REC_WORD	296473	wordpools/wasnorm_wordpool_576.txt	LTP330	ltpFR2	6	2	PIGMENT	1066	n/a	n/a	0	0	0
595.822	n/a	REC_WORD	297911	wordpools/wasnorm_wordpool_576.txt	LTP330	ltpFR2	6	2	PORTRAIT	1111	n/a	n/a	0	0	0
597.688	n/a	REC_WORD	298844	wordpools/wasnorm_wordpool_576.txt	LTP330	ltpFR2	6	2	PAINTING	1005	n/a	n/a	0	0	0
602.16	n/a	REC_WORD	301080	wordpools/wasnorm_wordpool_576.txt	LTP330	ltpFR2	6	2	OFFICE	972	n/a	n/a	0	0	0
613.734	n/a	REC_WORD	306867	wordpools/wasnorm_wordpool_576.txt	LTP330	ltpFR2	6	2	BUGGY	188	n/a	n/a	0	0	0
625.614	n/a	REC_WORD	312807	wordpools/wasnorm_wordpool_576.txt	LTP330	ltpFR2	6	2	COOKBOOK	373	n/a	n/a	0	0	0
642.134	n/a	REC_WORD	321067	wordpools/wasnorm_wordpool_576.txt	LTP330	ltpFR2	6	2	EXPERT	543	n/a	n/a	0	0	0
650.952	n/a	REC_WORD	325476	wordpools/wasnorm_wordpool_576.txt	LTP330	ltpFR2	6	2	MISTER	901	n/a	n/a	0	0	0
670.126	n/a	WORD	335063	wordpools/wasnorm_wordpool_576.txt	LTP330	ltpFR2	6	3	SKILLET	1317	n/a	n/a	0	0	0
672.594	n/a	WORD	336297	wordpools/wasnorm_wordpool_576.txt	LTP330	ltpFR2	6	3	CLOUD	328	n/a	n/a	0	0	0
675.114	n/a	WORD	337557	wordpools/wasnorm_wordpool_576.txt	LTP330	ltpFR2	6	3	PUPPY	1144	n/a	n/a	0	0	0
677.866	n/a	WORD	338933	wordpools/wasnorm_wordpool_576.txt	LTP330	ltpFR2	6	3	MOP	916	n/a	n/a	0	0	0
680.368	n/a	WORD	340184	wordpools/wasnorm_wordpool_576.txt	LTP330	ltpFR2	6	3	BELLY	119	n/a	n/a	0	0	0
683.104	n/a	WORD	341552	wordpools/wasnorm_wordpool_576.txt	LTP330	ltpFR2	6	3	BODY	145	n/a	n/a	0	0	0
685.59	n/a	WORD	342795	wordpools/wasnorm_wordpool_576.txt	LTP330	ltpFR2	6	3	DIME	466	n/a	n/a	0	0	0
688.174	n/a	WORD	344087	wordpools/wasnorm_wordpool_576.txt	LTP330	ltpFR2	6	3	DOLPHIN	483	n/a	n/a	0	0	0
690.644	n/a	WORD	345322	wordpools/wasnorm_wordpool_576.txt	LTP330	ltpFR2	6	3	PERCH	1048	n/a	n/a	0	0	0
693.412	n/a	WORD	346706	wordpools/wasnorm_wordpool_576.txt	LTP330	ltpFR2	6	3	APRON	35	n/a	n/a	0	0	0
696.116	n/a	WORD	348058	wordpools/wasnorm_wordpool_576.txt	LTP330	ltpFR2	6	3	PATROL	1027	n/a	n/a	0	0	0
698.568	n/a	WORD	349284	wordpools/wasnorm_wordpool_576.txt	LTP330	ltpFR2	6	3	POPCORN	1104	n/a	n/a	0	0	0
701.186	n/a	WORD	350593	wordpools/wasnorm_wordpool_576.txt	LTP330	ltpFR2	6	3	RUST	1219	n/a	n/a	0	0	0
703.622	n/a	WORD	351811	wordpools/wasnorm_wordpool_576.txt	LTP330	ltpFR2	6	3	DENIM	446	n/a	n/a	0	0	0
706.074	n/a	WORD	353037	wordpools/wasnorm_wordpool_576.txt	LTP330	ltpFR2	6	3	LACE	792	n/a	n/a	0	0	0
708.71	n/a	WORD	354355	wordpools/wasnorm_wordpool_576.txt	LTP330	ltpFR2	6	3	PROTON	1132	n/a	n/a	0	0	0
711.278	n/a	WORD	355639	wordpools/wasnorm_wordpool_576.txt	LTP330	ltpFR2	6	3	ATOM	55	n/a	n/a	0	0	0
713.846	n/a	WORD	356923	wordpools/wasnorm_wordpool_576.txt	LTP330	ltpFR2	6	3	HOSTESS	723	n/a	n/a	0	0	0
716.448	n/a	WORD	358224	wordpools/wasnorm_wordpool_576.txt	LTP330	ltpFR2	6	3	REBEL	1172	n/a	n/a	0	0	0
718.884	n/a	WORD	359442	wordpools/wasnorm_wordpool_576.txt	LTP330	ltpFR2	6	3	PLAZA	1088	n/a	n/a	0	0	0
721.32	n/a	WORD	360660	wordpools/wasnorm_wordpool_576.txt	LTP330	ltpFR2	6	3	DINER	467	n/a	n/a	0	0	0
723.922	n/a	WORD	361961	wordpools/wasnorm_wordpool_576.txt	LTP330	ltpFR2	6	3	BANKER	84	n/a	n/a	0	0	0
726.558	n/a	WORD	363279	wordpools/wasnorm_wordpool_576.txt	LTP330	ltpFR2	6	3	BEAVER	109	n/a	n/a	0	0	0
729.376	n/a	WORD	364688	wordpools/wasnorm_wordpool_576.txt	LTP330	ltpFR2	6	3	DUSTPAN	509	n/a	n/a	0	0	0
730.994	n/a	START	365497	n/a	LTP330	ltpFR2	6	n/a	n/a	n/a	5	n/a	n/a	n/a	n/a
732.02	n/a	DISTRACTOR	366010	n/a	LTP330	ltpFR2	6	3	n/a	n/a	n/a	n/a	0	0	0
732.028	n/a	PROB	366014	n/a	LTP330	ltpFR2	6	n/a	n/a	n/a	5	21	7	5	9
735.65	n/a	PROB	367825	n/a	LTP330	ltpFR2	6	n/a	n/a	n/a	5	7	1	2	5
737.6	n/a	PROB	368800	n/a	LTP330	ltpFR2	6	n/a	n/a	n/a	5	11	1	7	3
739.552	n/a	PROB	369776	n/a	LTP330	ltpFR2	6	n/a	n/a	n/a	5	5	1	3	1
740.786	n/a	PROB	370393	n/a	LTP330	ltpFR2	6	n/a	n/a	n/a	5	15	5	1	9
742.188	n/a	PROB	371094	n/a	LTP330	ltpFR2	6	n/a	n/a	n/a	5	17	8	2	7
743.806	n/a	PROB	371903	n/a	LTP330	ltpFR2	6	n/a	n/a	n/a	5	18	1	8	9
745.09	n/a	PROB	372545	n/a	LTP330	ltpFR2	6	n/a	n/a	n/a	5	11	4	3	4
747.242	n/a	PROB	373621	n/a	LTP330	ltpFR2	6	n/a	n/a	n/a	5	8	3	3	2
748.676	n/a	PROB	374338	n/a	LTP330	ltpFR2	6	n/a	n/a	n/a	5	23	7	9	6
751.012	n/a	PROB	375506	n/a	LTP330	ltpFR2	6	n/a	n/a	n/a	5	19	2	9	8
754.276	n/a	STOP	377138	n/a	LTP330	ltpFR2	6	n/a	n/a	n/a	5	n/a	n/a	n/a	n/a
756.766	n/a	REC_START	378383	n/a	LTP330	ltpFR2	6	3	n/a	n/a	n/a	n/a	0	0	0
758.832	n/a	REC_WORD	379416	wordpools/wasnorm_wordpool_576.txt	LTP330	ltpFR2	6	3	DUSTPAN	509	n/a	n/a	0	0	0
766.868	n/a	REC_WORD	383434	wordpools/wasnorm_wordpool_576.txt	LTP330	ltpFR2	6	3	DENIM	446	n/a	n/a	0	0	0
770.784	n/a	REC_WORD	385392	wordpools/wasnorm_wordpool_576.txt	LTP330	ltpFR2	6	3	BEAVER	109	n/a	n/a	0	0	0
781.618	n/a	REC_WORD	390809	wordpools/wasnorm_wordpool_576.txt	LTP330	ltpFR2	6	3	PROTON	1132	n/a	n/a	0	0	0
782.138	n/a	REC_WORD	391069	wordpools/wasnorm_wordpool_576.txt	LTP330	ltpFR2	6	3	NEUTRON	947	n/a	n/a	0	0	0
782.704	n/a	REC_WORD	391352	wordpools/wasnorm_wordpool_576.txt	LTP330	ltpFR2	6	3	ATOM	55	n/a	n/a	0	0	0
786.948	n/a	REC_WORD	393474	wordpools/wasnorm_wordpool_576.txt	LTP330	ltpFR2	6	3	SKILLET	1317	n/a	n/a	0	0	0
788.482	n/a	REC_WORD	394241	wordpools/wasnorm_wordpool_576.txt	LTP330	ltpFR2	6	3	BELLY	119	n/a	n/a	0	0	0
796.172	n/a	REC_WORD	398086	wordpools/wasnorm_wordpool_576.txt	LTP330	ltpFR2	6	3	BODY	145	n/a	n/a	0	0	0
847.41	n/a	WORD	423705	wordpools/wasnorm_wordpool_576.txt	LTP330	ltpFR2	6	4	SISTER	1312	n/a	n/a	0	0	0
850.062	n/a	WORD	425031	wordpools/wasnorm_wordpool_576.txt	LTP330	ltpFR2	6	4	PARENT	1013	n/a	n/a	0	0	0
852.682	n/a	WORD	426341	wordpools/wasnorm_wordpool_576.txt	LTP330	ltpFR2	6	4	POCKET	1093	n/a	n/a	0	0	0
855.166	n/a	WORD	427583	wordpools/wasnorm_wordpool_576.txt	LTP330	ltpFR2	6	4	BLOCKADE	137	n/a	n/a	0	0	0
857.868	n/a	WORD	428934	wordpools/wasnorm_wordpool_576.txt	LTP330	ltpFR2	6	4	PARSLEY	1016	n/a	n/a	0	0	0
860.622	n/a	WORD	430311	wordpools/wasnorm_wordpool_576.txt	LTP330	ltpFR2	6	4	IGLOO	734	n/a	n/a	0	0	0
863.458	n/a	WORD	431729	wordpools/wasnorm_wordpool_576.txt	LTP330	ltpFR2	6	4	MONEY	908	n/a	n/a	0	0	0
865.992	n/a	WORD	432996	wordpools/wasnorm_wordpool_576.txt	LTP330	ltpFR2	6	4	TERMITE	1451	n/a	n/a	0	0	0
868.746	n/a	WORD	434373	wordpools/wasnorm_wordpool_576.txt	LTP330	ltpFR2	6	4	BULLET	194	n/a	n/a	0	0	0
871.296	n/a	WORD	435648	wordpools/wasnorm_wordpool_576.txt	LTP330	ltpFR2	6	4	NOVEL	960	n/a	n/a	0	0	0
873.866	n/a	WORD	436933	wordpools/wasnorm_wordpool_576.txt	LTP330	ltpFR2	6	4	DIVER	476	n/a	n/a	0	0	0
876.702	n/a	WORD	438351	wordpools/wasnorm_wordpool_576.txt	LTP330	ltpFR2	6	4	ACTOR	5	n/a	n/a	0	0	0
879.404	n/a	WORD	439702	wordpools/wasnorm_wordpool_576.txt	LTP330	ltpFR2	6	4	ACTRESS	6	n/a	n/a	0	0	0
882.222	n/a	WORD	441111	wordpools/wasnorm_wordpool_576.txt	LTP330	ltpFR2	6	4	MEAT	883	n/a	n/a	0	0	0
885.042	n/a	WORD	442521	wordpools/wasnorm_wordpool_576.txt	LTP330	ltpFR2	6	4	SAUSAGE	1238	n/a	n/a	0	0	0
887.81	n/a	WORD	443905	wordpools/wasnorm_wordpool_576.txt	LTP330	ltpFR2	6	4	GANGSTER	620	n/a	n/a	0	0	0
890.446	n/a	WORD	445223	wordpools/wasnorm_wordpool_576.txt	LTP330	ltpFR2	6	4	BALLOON	75	n/a	n/a	0	0	0
893.166	n/a	WORD	446583	wordpools/wasnorm_wordpool_576.txt	LTP330	ltpFR2	6	4	LETTUCE	814	n/a	n/a	0	0	0
895.884	n/a	WORD	447942	wordpools/wasnorm_wordpool_576.txt	LTP330	ltpFR2	6	4	VELVET	1555	n/a	n/a	0	0	0
898.688	n/a	WORD	449344	wordpools/wasnorm_wordpool_576.txt	LTP330	ltpFR2	6	4	CIGAR	308	n/a	n/a	0	0	0
901.472	n/a	WORD	450736	wordpools/wasnorm_wordpool_576.txt	LTP330	ltpFR2	6	4	PISTOL	1075	n/a	n/a	0	0	0
904.142	n/a	WORD	452071	wordpools/wasnorm_wordpool_576.txt	LTP330	ltpFR2	6	4	SHERIFF	1284	n/a	n/a	0	0	0
906.844	n/a	WORD	453422	wordpools/wasnorm_wordpool_576.txt	LTP330	ltpFR2	6	4	DRINK	498	n/a	n/a	0	0	0
909.63	n/a	WORD	454815	wordpools/wasnorm_wordpool_576.txt	LTP330	ltpFR2	6	4	TORTOISE	1486	n/a	n/a	0	0	0
911.246	n/a	START	455623	n/a	LTP330	ltpFR2	6	n/a	n/a	n/a	6	n/a	n/a	n/a	n/a
912.082	n/a	DISTRACTOR	456041	n/a	LTP330	ltpFR2	6	4	n/a	n/a	n/a	n/a	0	0	0
912.114	n/a	PROB	456057	n/a	LTP330	ltpFR2	6	n/a	n/a	n/a	6	2	9	7	8
915.25	n/a	PROB	457625	n/a	LTP330	ltpFR2	6	n/a	n/a	n/a	6	11	3	5	3
917.72	n/a	PROB	458860	n/a	LTP330	ltpFR2	6	n/a	n/a	n/a	6	15	5	2	8
919.606	n/a	PROB	459803	n/a	LTP330	ltpFR2	6	n/a	n/a	n/a	6	9	3	1	5
920.906	n/a	PROB	460453	n/a	LTP330	ltpFR2	6	n/a	n/a	n/a	6	14	2	8	3
923.942	n/a	PROB	461971	n/a	LTP330	ltpFR2	6	n/a	n/a	n/a	6	10	5	4	1
926.144	n/a	PROB	463072	n/a	LTP330	ltpFR2	6	n/a	n/a	n/a	6	19	3	7	9
927.578	n/a	PROB	463789	n/a	LTP330	ltpFR2	6	n/a	n/a	n/a	6	13	2	7	2
929.762	n/a	PROB	464881	n/a	LTP330	ltpFR2	6	n/a	n/a	n/a	6	16	5	2	9
931.43	n/a	PROB	465715	n/a	LTP330	ltpFR2	6	n/a	n/a	n/a	6	22	3	9	9
935.246	n/a	STOP	467623	n/a	LTP330	ltpFR2	6	n/a	n/a	n/a	6	n/a	n/a	n/a	n/a
937.186	n/a	REC_START	468593	n/a	LTP330	ltpFR2	6	4	n/a	n/a	n/a	n/a	0	0	0
938.756	n/a	REC_WORD	469378	wordpools/wasnorm_wordpool_576.txt	LTP330	ltpFR2	6	4	SISTER	1312	n/a	n/a	0	0	0
940.176	n/a	REC_WORD	470088	wordpools/wasnorm_wordpool_576.txt	LTP330	ltpFR2	6	4	PARENT	1013	n/a	n/a	0	0	0
945.73	n/a	REC_WORD	472865	wordpools/wasnorm_wordpool_576.txt	LTP330	ltpFR2	6	4	SAUSAGE	1238	n/a	n/a	0	0	0
947.044	n/a	REC_WORD	473522	wordpools/wasnorm_wordpool_576.txt	LTP330	ltpFR2	6	4	MEAT	883	n/a	n/a	0	0	0
948.7	n/a	REC_WORD	474350	wordpools/wasnorm_wordpool_576.txt	LTP330	ltpFR2	6	4	POCKET	1093	n/a	n/a	0	0	0
950.104	n/a	REC_WORD	475052	wordpools/wasnorm_wordpool_576.txt	LTP330	ltpFR2	6	4	VELVET	1555	n/a	n/a	0	0	0
979.59	n/a	REC_WORD_VV	489795	wordpools/wasnorm_wordpool_576.txt	LTP330	ltpFR2	6	4	<>	-1	n/a	n/a	0	0	0
979.936	n/a	REC_WORD	489968	wordpools/wasnorm_wordpool_576.txt	LTP330	ltpFR2	6	4	ACTOR	5	n/a	n/a	0	0	0
980.49	n/a	REC_WORD	490245	wordpools/wasnorm_wordpool_576.txt	LTP330	ltpFR2	6	4	ACTRESS	6	n/a	n/a	0	0	0
981.634	n/a	REC_WORD	490817	wordpools/wasnorm_wordpool_576.txt	LTP330	ltpFR2	6	4	WAITER	1580	n/a	n/a	0	0	0
982.1	n/a	REC_WORD	491050	wordpools/wasnorm_wordpool_576.txt	LTP330	ltpFR2	6	4	WAITRESS	1581	n/a	n/a	0	0	0
986.134	n/a	REC_WORD	493067	wordpools/wasnorm_wordpool_576.txt	LTP330	ltpFR2	6	4	PUPPY	1144	n/a	n/a	0	0	0
987.154	n/a	REC_WORD	493577	wordpools/wasnorm_wordpool_576.txt	LTP330	ltpFR2	6	4	MOP	916	n/a	n/a	0	0	0
990.746	n/a	REC_WORD	495373	wordpools/wasnorm_wordpool_576.txt	LTP330	ltpFR2	6	4	RUG	1215	n/a	n/a	0	0	0
1027.648	n/a	DISTRACTOR	513824	n/a	LTP330	ltpFR2	6	5	n/a	n/a	n/a	n/a	0	0	0
1027.648	n/a	START	513824	n/a	LTP330	ltpFR2	6	n/a	n/a	n/a	7	n/a	n/a	n/a	n/a
1027.68	n/a	PROB	513840	n/a	LTP330	ltpFR2	6	n/a	n/a	n/a	7	16	4	6	6
1030.716	n/a	PROB	515358	n/a	LTP330	ltpFR2	6	n/a	n/a	n/a	7	13	2	5	6
1033.652	n/a	PROB	516826	n/a	LTP330	ltpFR2	6	n/a	n/a	n/a	7	11	6	3	2
1035.568	n/a	PROB	517784	n/a	LTP330	ltpFR2	6	n/a	n/a	n/a	7	14	7	6	1
1037.654	n/a	PROB	518827	n/a	LTP330	ltpFR2	6	n/a	n/a	n/a	7	20	6	6	8
1040.658	n/a	PROB	520329	n/a	LTP330	ltpFR2	6	n/a	n/a	n/a	7	14	1	5	8
1042.358	n/a	PROB	521179	n/a	LTP330	ltpFR2	6	n/a	n/a	n/a	7	18	6	4	8
1043.792	n/a	PROB	521896	n/a	LTP330	ltpFR2	6	n/a	n/a	n/a	7	24	7	9	8
1046.444	n/a	PROB	523222	n/a	LTP330	ltpFR2	6	n/a	n/a	n/a	7	22	6	9	6
1050.544	n/a	STOP	525272	n/a	LTP330	ltpFR2	6	n/a	n/a	n/a	7	n/a	n/a	n/a	n/a
1052.784	n/a	WORD	526392	wordpools/wasnorm_wordpool_576.txt	LTP330	ltpFR2	6	5	POET	1095	n/a	n/a	0	0	0
1055.386	n/a	WORD	527693	wordpools/wasnorm_wordpool_576.txt	LTP330	ltpFR2	6	5	SOFTBALL	1343	n/a	n/a	0	0	0
1057.872	n/a	WORD	528936	wordpools/wasnorm_wordpool_576.txt	LTP330	ltpFR2	6	5	DRIVER	499	n/a	n/a	0	0	0
1060.692	n/a	WORD	530346	wordpools/wasnorm_wordpool_576.txt	LTP330	ltpFR2	6	5	CUSTARD	429	n/a	n/a	0	0	0
1063.16	n/a	WORD	531580	wordpools/wasnorm_wordpool_576.txt	LTP330	ltpFR2	6	5	PUDDING	1139	n/a	n/a	0	0	0
1065.962	n/a	WORD	532981	wordpools/wasnorm_wordpool_576.txt	LTP330	ltpFR2	6	5	CLAM	315	n/a	n/a	0	0	0
1068.43	n/a	WORD	534215	wordpools/wasnorm_wordpool_576.txt	LTP330	ltpFR2	6	5	MEDAL	885	n/a	n/a	0	0	0
1071.05	n/a	WORD	535525	wordpools/wasnorm_wordpool_576.txt	LTP330	ltpFR2	6	5	HATCHET	691	n/a	n/a	0	0	0
1073.802	n/a	WORD	536901	wordpools/wasnorm_wordpool_576.txt	LTP330	ltpFR2	6	5	YOLK	1633	n/a	n/a	0	0	0
1076.504	n/a	WORD	538252	wordpools/wasnorm_wordpool_576.txt	LTP330	ltpFR2	6	5	SIBLING	1301	n/a	n/a	0	0	0
1079.156	n/a	WORD	539578	wordpools/wasnorm_wordpool_576.txt	LTP330	ltpFR2	6	5	ROBIN	1199	n/a	n/a	0	0	0
1081.676	n/a	WORD	540838	wordpools/wasnorm_wordpool_576.txt	LTP330	ltpFR2	6	5	NAPKIN	937	n/a	n/a	0	0	0
1084.244	n/a	WORD	542122	wordpools/wasnorm_wordpool_576.txt	LTP330	ltpFR2	6	5	SUNRISE	1407	n/a	n/a	0	0	0
1087.03	n/a	WORD	543515	wordpools/wasnorm_wordpool_576.txt	LTP330	ltpFR2	6	5	GAZELLE	628	n/a	n/a	0	0	0
1089.682	n/a	WORD	544841	wordpools/wasnorm_wordpool_576.txt	LTP330	ltpFR2	6	5	GIFT	635	n/a	n/a	0	0	0
1092.3	n/a	WORD	546150	wordpools/wasnorm_wordpool_576.txt	LTP330	ltpFR2	6	5	POSTAGE	1113	n/a	n/a	0	0	0
1094.886	n/a	WORD	547443	wordpools/wasnorm_wordpool_576.txt	LTP330	ltpFR2	6	5	GLASS	639	n/a	n/a	0	0	0
1097.422	n/a	WORD	548711	wordpools/wasnorm_wordpool_576.txt	LTP330	ltpFR2	6	5	GRIZZLY	662	n/a	n/a	0	0	0
1099.99	n/a	WORD	549995	wordpools/wasnorm_wordpool_576.txt	LTP330	ltpFR2	6	5	SUNSET	1408	n/a	n/a	0	0	0
1102.728	n/a	WORD	551364	wordpools/wasnorm_wordpool_576.txt	LTP330	ltpFR2	6	5	BRAKE	166	n/a	n/a	0	0	0
1105.446	n/a	WORD	552723	wordpools/wasnorm_wordpool_576.txt	LTP330	ltpFR2	6	5	LAMP	798	n/a	n/a	0	0	0
1108.248	n/a	WORD	554124	wordpools/wasnorm_wordpool_576.txt	LTP330	ltpFR2	6	5	MATCH	878	n/a	n/a	0	0	0
1110.75	n/a	WORD	555375	wordpools/wasnorm_wordpool_576.txt	LTP330	ltpFR2	6	5	SWORD	1423	n/a	n/a	0	0	0
1113.434	n/a	WORD	556717	wordpools/wasnorm_wordpool_576.txt	LTP330	ltpFR2	6	5	SALMON	1227	n/a	n/a	0	0	0
1115.052	n/a	START	557526	n/a	LTP330	ltpFR2	6	n/a	n/a	n/a	8	n/a	n/a	n/a	n/a
1116.004	n/a	DISTRACTOR	558002	n/a	LTP330	ltpFR2	6	5	n/a	n/a	n/a	n/a	0	0	0
1116.02	n/a	PROB	558010	n/a	LTP330	ltpFR2	6	n/a	n/a	n/a	8	9	1	4	4
1117.572	n/a	PROB	558786	n/a	LTP330	ltpFR2	6	n/a	n/a	n/a	8	16	8	5	3
1119.59	n/a	PROB	559795	n/a	LTP330	ltpFR2	6	n/a	n/a	n/a	8	16	6	5	5
1121.108	n/a	PROB	560554	n/a	LTP330	ltpFR2	6	n/a	n/a	n/a	8	7	2	4	1
1123.094	n/a	PROB	561547	n/a	LTP330	ltpFR2	6	n/a	n/a	n/a	8	17	1	8	8
1125.294	n/a	PROB	562647	n/a	LTP330	ltpFR2	6	n/a	n/a	n/a	8	13	1	9	3
1126.98	n/a	PROB	563490	n/a	LTP330	ltpFR2	6	n/a	n/a	n/a	8	19	3	7	9
1128.414	n/a	PROB	564207	n/a	LTP330	ltpFR2	6	n/a	n/a	n/a	8	10	4	5	1
1130.166	n/a	PROB	565083	n/a	LTP330	ltpFR2	6	n/a	n/a	n/a	8	12	2	8	2
1131.702	n/a	PROB	565851	n/a	LTP330	ltpFR2	6	n/a	n/a	n/a	8	22	8	8	6
1133.87	n/a	PROB	566935	n/a	LTP330	ltpFR2	6	n/a	n/a	n/a	8	18	7	2	9
1135.788	n/a	PROB	567894	n/a	LTP330	ltpFR2	6	n/a	n/a	n/a	8	19	9	5	4
1138.482	n/a	STOP	569241	n/a	LTP330	ltpFR2	6	n/a	n/a	n/a	8	n/a	n/a	n/a	n/a
1140.86	n/a	REC_START	570430	n/a	LTP330	ltpFR2	6	5	n/a	n/a	n/a	n/a	0	0	0
1141.33	n/a	REC_WORD	570665	wordpools/wasnorm_wordpool_576.txt	LTP330	ltpFR2	6	5	POET	1095	n/a	n/a	0	0	0
1141.854	n/a	REC_WORD	570927	wordpools/wasnorm_wordpool_576.txt	LTP330	ltpFR2	6	5	SIBLING	1301	n/a	n/a	0	0	0
1142.53	n/a	REC_WORD	571265	wordpools/wasnorm_wordpool_576.txt	LTP330	ltpFR2	6	5	GLASS	639	n/a	n/a	0	0	0
1143.124	n/a	REC_WORD	571562	wordpools/wasnorm_wordpool_576.txt	LTP330	ltpFR2	6	5	GRIZZLY	662	n/a	n/a	0	0	0
1143.684	n/a	REC_WORD	571842	wordpools/wasnorm_wordpool_576.txt	LTP330	ltpFR2	6	5	SALMON	1227	n/a	n/a	0	0	0
1153.758	n/a	REC_WORD	576879	wordpools/wasnorm_wordpool_576.txt	LTP330	ltpFR2	6	5	CUSTARD	429	n/a	n/a	0	0	0
1154.404	n/a	REC_WORD	577202	wordpools/wasnorm_wordpool_576.txt	LTP330	ltpFR2	6	5	ICING	732	n/a	n/a	0	0	0
1155.108	n/a	REC_WORD	577554	wordpools/wasnorm_wordpool_576.txt	LTP330	ltpFR2	6	5	PUDDING	1139	n/a	n/a	0	0	0
1156.358	n/a	REC_WORD	578179	wordpools/wasnorm_wordpool_576.txt	LTP330	ltpFR2	6	5	YOKE	1632	n/a	n/a	0	0	0
1165.148	n/a	REC_WORD	582574	wordpools/wasnorm_wordpool_576.txt	LTP330	ltpFR2	6	5	HATCHET	691	n/a	n/a	0	0	0
1176.128	n/a	REC_WORD	588064	wordpools/wasnorm_wordpool_576.txt	LTP330	ltpFR2	6	5	CLAM	315	n/a	n/a	0	0	0
1231.318	n/a	WORD	615659	wordpools/wasnorm_wordpool_576.txt	LTP330	ltpFR2	6	6	POISON	1096	n/a	n/a	0	0	0
1233.972	n/a	WORD	616986	wordpools/wasnorm_wordpool_576.txt	LTP330	ltpFR2	6	6	FIDDLE	561	n/a	n/a	0	0	0
1236.556	n/a	WORD	618278	wordpools/wasnorm_wordpool_576.txt	LTP330	ltpFR2	6	6	FLUTE	585	n/a	n/a	0	0	0
1239.158	n/a	WORD	619579	wordpools/wasnorm_wordpool_576.txt	LTP330	ltpFR2	6	6	ICING	732	n/a	n/a	0	0	0
1241.712	n/a	WORD	620856	wordpools/wasnorm_wordpool_576.txt	LTP330	ltpFR2	6	6	BURGLAR	200	n/a	n/a	0	0	0
1244.53	n/a	WORD	622265	wordpools/wasnorm_wordpool_576.txt	LTP330	ltpFR2	6	6	YACHT	1629	n/a	n/a	0	0	0
1246.982	n/a	WORD	623491	wordpools/wasnorm_wordpool_576.txt	LTP330	ltpFR2	6	6	CABBAGE	210	n/a	n/a	0	0	0
1249.45	n/a	WORD	624725	wordpools/wasnorm_wordpool_576.txt	LTP330	ltpFR2	6	6	CELLAR	267	n/a	n/a	0	0	0
1252.036	n/a	WORD	626018	wordpools/wasnorm_wordpool_576.txt	LTP330	ltpFR2	6	6	PASTRY	1022	n/a	n/a	0	0	0
1254.622	n/a	WORD	627311	wordpools/wasnorm_wordpool_576.txt	LTP330	ltpFR2	6	6	GAVEL	627	n/a	n/a	0	0	0
1257.14	n/a	WORD	628570	wordpools/wasnorm_wordpool_576.txt	LTP330	ltpFR2	6	6	SPACE	1345	n/a	n/a	0	0	0
1259.842	n/a	WORD	629921	wordpools/wasnorm_wordpool_576.txt	LTP330	ltpFR2	6	6	STATUE	1374	n/a	n/a	0	0	0
1262.612	n/a	WORD	631306	wordpools/wasnorm_wordpool_576.txt	LTP330	ltpFR2	6	6	CANDY	230	n/a	n/a	0	0	0
1265.198	n/a	WORD	632599	wordpools/wasnorm_wordpool_576.txt	LTP330	ltpFR2	6	6	WITNESS	1618	n/a	n/a	0	0	0
1267.884	n/a	WORD	633942	wordpools/wasnorm_wordpool_576.txt	LTP330	ltpFR2	6	6	FARMER	553	n/a	n/a	0	0	0
1270.436	n/a	WORD	635218	wordpools/wasnorm_wordpool_576.txt	LTP330	ltpFR2	6	6	STREAM	1392	n/a	n/a	0	0	0
1273.07	n/a	WORD	636535	wordpools/wasnorm_wordpool_576.txt	LTP330	ltpFR2	6	6	THRONE	1461	n/a	n/a	0	0	0
1275.706	n/a	WORD	637853	wordpools/wasnorm_wordpool_576.txt	LTP330	ltpFR2	6	6	CASHEW	253	n/a	n/a	0	0	0
1278.508	n/a	WORD	639254	wordpools/wasnorm_wordpool_576.txt	LTP330	ltpFR2	6	6	QUEEN	1149	n/a	n/a	0	0	0
1281.06	n/a	WORD	640530	wordpools/wasnorm_wordpool_576.txt	LTP330	ltpFR2	6	6	PRINCESS	1125	n/a	n/a	0	0	0
1283.73	n/a	WORD	641865	wordpools/wasnorm_wordpool_576.txt	LTP330	ltpFR2	6	6	LABEL	790	n/a	n/a	0	0	0
1286.314	n/a	WORD	643157	wordpools/wasnorm_wordpool_576.txt	LTP330	ltpFR2	6	6	STONE	1385	n/a	n/a	0	0	0
1288.916	n/a	WORD	644458	wordpools/wasnorm_wordpool_576.txt	LTP330	ltpFR2	6	6	SCULPTURE	1258	n/a	n/a	0	0	0
1291.704	n/a	WORD	645852	wordpools/wasnorm_wordpool_576.txt	LTP330	ltpFR2	6	6	EXPERT	543	n/a	n/a	0	0	0
1293.322	n/a	START	646661	n/a	LTP330	ltpFR2	6	n/a	n/a	n/a	9	n/a	n/a	n/a	n/a
1294.476	n/a	DISTRACTOR	647238	n/a	LTP330	ltpFR2	6	6	n/a	n/a	n/a	n/a	0	0	0
1294.488	n/a	PROB	647244	n/a	LTP330	ltpFR2	6	n/a	n/a	n/a	9	21	8	8	5
1297.592	n/a	PROB	648796	n/a	LTP330	ltpFR2	6	n/a	n/a	n/a	9	12	1	9	2
1299.06	n/a	PROB	649530	n/a	LTP330	ltpFR2	6	n/a	n/a	n/a	9	16	5	3	8
1300.76	n/a	PROB	650380	n/a	LTP330	ltpFR2	6	n/a	n/a	n/a	9	15	8	4	3
1303.796	n/a	PROB	651898	n/a	LTP330	ltpFR2	6	n/a	n/a	n/a	9	11	6	3	2
1306.032	n/a	PROB	653016	n/a	LTP330	ltpFR2	6	n/a	n/a	n/a	9	5	1	1	2
1307.282	n/a	PROB	653641	n/a	LTP330	ltpFR2	6	n/a	n/a	n/a	9	15	8	2	5
1308.9	n/a	PROB	654450	n/a	LTP330	ltpFR2	6	n/a	n/a	n/a	9	19	7	9	3
1311.286	n/a	PROB	655643	n/a	LTP330	ltpFR2	6	n/a	n/a	n/a	9	23	1	8	5
1314.172	n/a	PROB	657086	n/a	LTP330	ltpFR2	6	n/a	n/a	n/a	9	20	2	9	9
1315.764	n/a	STOP	657882	n/a	LTP330	ltpFR2	6	n/a	n/a	n/a	9	n/a	n/a	n/a	n/a
1319.26	n/a	REC_START	659630	n/a	LTP330	ltpFR2	6	6	n/a	n/a	n/a	n/a	0	0	0
1319.98	n/a	REC_WORD	659990	wordpools/wasnorm_wordpool_576.txt	LTP330	ltpFR2	6	6	THRONE	1461	n/a	n/a	0	0	0
1320.632	n/a	REC_WORD	660316	wordpools/wasnorm_wordpool_576.txt	LTP330	ltpFR2	6	6	PRINCESS	1125	n/a	n/a	0	0	0
1321.362	n/a	REC_WORD	660681	wordpools/wasnorm_wordpool_576.txt	LTP330	ltpFR2	6	6	QUEEN	1149	n/a	n/a	0	0	0
1322.12	n/a	REC_WORD	661060	wordpools/wasnorm_wordpool_576.txt	LTP330	ltpFR2	6	6	YACHT	1629	n/a	n/a	0	0	0
1323.966	n/a	REC_WORD	661983	wordpools/wasnorm_wordpool_576.txt	LTP330	ltpFR2	6	6	FARMER	553	n/a	n/a	0	0	0
1324.59	n/a	REC_WORD	662295	wordpools/wasnorm_wordpool_576.txt	LTP330	ltpFR2	6	6	CABBAGE	210	n/a	n/a	0	0	0
1326.582	n/a	REC_WORD	663291	wordpools/wasnorm_wordpool_576.txt	LTP330	ltpFR2	6	6	RIVER	1194	n/a	n/a	0	0	0
1343.998	n/a	REC_WORD	671999	wordpools/wasnorm_wordpool_576.txt	LTP330	ltpFR2	6	6	STATUE	1374	n/a	n/a	0	0	0
1348.34	n/a	REC_WORD	674170	wordpools/wasnorm_wordpool_576.txt	LTP330	ltpFR2	6	6	EXPERT	543	n/a	n/a	0	0	0
1351.546	n/a	REC_WORD	675773	wordpools/wasnorm_wordpool_576.txt	LTP330	ltpFR2	6	6	ICING	732	n/a	n/a	0	0	0
1355.574	n/a	REC_WORD	677787	wordpools/wasnorm_wordpool_576.txt	LTP330	ltpFR2	6	6	SCULPTURE	1258	n/a	n/a	0	0	0
1360.614	n/a	REC_WORD	680307	wordpools/wasnorm_wordpool_576.txt	LTP330	ltpFR2	6	6	THRONE	1461	n/a	n/a	0	0	0
1373.514	n/a	REC_WORD	686757	wordpools/wasnorm_wordpool_576.txt	LTP330	ltpFR2	6	6	GAVEL	627	n/a	n/a	0	0	0
1375.634	n/a	REC_WORD	687817	wordpools/wasnorm_wordpool_576.txt	LTP330	ltpFR2	6	6	SHERIFF	1284	n/a	n/a	0	0	0
1379.45	n/a	REC_WORD	689725	wordpools/wasnorm_wordpool_576.txt	LTP330	ltpFR2	6	6	THIEF	1456	n/a	n/a	0	0	0
1380.606	n/a	REC_WORD	690303	wordpools/wasnorm_wordpool_576.txt	LTP330	ltpFR2	6	6	ROBBER	1197	n/a	n/a	0	0	0
1381.14	n/a	REC_WORD	690570	wordpools/wasnorm_wordpool_576.txt	LTP330	ltpFR2	6	6	GANGSTER	620	n/a	n/a	0	0	0
1409.852	n/a	WORD	704926	wordpools/wasnorm_wordpool_576.txt	LTP330	ltpFR2	6	7	FINGER	567	n/a	n/a	0	0	0
1412.322	n/a	WORD	706161	wordpools/wasnorm_wordpool_576.txt	LTP330	ltpFR2	6	7	THIEF	1456	n/a	n/a	0	0	0
1414.856	n/a	WORD	707428	wordpools/wasnorm_wordpool_576.txt	LTP330	ltpFR2	6	7	FLASK	576	n/a	n/a	0	0	0
1417.56	n/a	WORD	708780	wordpools/wasnorm_wordpool_576.txt	LTP330	ltpFR2	6	7	JEANS	752	n/a	n/a	0	0	0
1420.012	n/a	WORD	710006	wordpools/wasnorm_wordpool_576.txt	LTP330	ltpFR2	6	7	CUPBOARD	425	n/a	n/a	0	0	0
1422.598	n/a	WORD	711299	wordpools/wasnorm_wordpool_576.txt	LTP330	ltpFR2	6	7	SHOULDER	1294	n/a	n/a	0	0	0
1425.032	n/a	WORD	712516	wordpools/wasnorm_wordpool_576.txt	LTP330	ltpFR2	6	7	PAIL	1002	n/a	n/a	0	0	0
1427.534	n/a	WORD	713767	wordpools/wasnorm_wordpool_576.txt	LTP330	ltpFR2	6	7	HERO	706	n/a	n/a	0	0	0
1430.338	n/a	WORD	715169	wordpools/wasnorm_wordpool_576.txt	LTP330	ltpFR2	6	7	BROTHER	179	n/a	n/a	0	0	0
1432.956	n/a	WORD	716478	wordpools/wasnorm_wordpool_576.txt	LTP330	ltpFR2	6	7	FOX	598	n/a	n/a	0	0	0
1435.458	n/a	WORD	717729	wordpools/wasnorm_wordpool_576.txt	LTP330	ltpFR2	6	7	HOUND	724	n/a	n/a	0	0	0
1438.276	n/a	WORD	719138	wordpools/wasnorm_wordpool_576.txt	LTP330	ltpFR2	6	7	ROD	1203	n/a	n/a	0	0	0
1440.996	n/a	WORD	720498	wordpools/wasnorm_wordpool_576.txt	LTP330	ltpFR2	6	7	COUCH	386	n/a	n/a	0	0	0
1443.798	n/a	WORD	721899	wordpools/wasnorm_wordpool_576.txt	LTP330	ltpFR2	6	7	MARINE	869	n/a	n/a	0	0	0
1446.568	n/a	WORD	723284	wordpools/wasnorm_wordpool_576.txt	LTP330	ltpFR2	6	7	HAND	683	n/a	n/a	0	0	0
1449.32	n/a	WORD	724660	wordpools/wasnorm_wordpool_576.txt	LTP330	ltpFR2	6	7	LODGE	839	n/a	n/a	0	0	0
1452.106	n/a	WORD	726053	wordpools/wasnorm_wordpool_576.txt	LTP330	ltpFR2	6	7	HANDBAG	684	n/a	n/a	0	0	0
1454.574	n/a	WORD	727287	wordpools/wasnorm_wordpool_576.txt	LTP330	ltpFR2	6	7	BRIEFCASE	175	n/a	n/a	0	0	0
1457.092	n/a	WORD	728546	wordpools/wasnorm_wordpool_576.txt	LTP330	ltpFR2	6	7	COBRA	336	n/a	n/a	0	0	0
1459.828	n/a	WORD	729914	wordpools/wasnorm_wordpool_576.txt	LTP330	ltpFR2	6	7	SNAKE	1333	n/a	n/a	0	0	0
1462.648	n/a	WORD	731324	wordpools/wasnorm_wordpool_576.txt	LTP330	ltpFR2	6	7	JOURNAL	760	n/a	n/a	0	0	0
1465.45	n/a	WORD	732725	wordpools/wasnorm_wordpool_576.txt	LTP330	ltpFR2	6	7	SPARROW	1347	n/a	n/a	0	0	0
1467.886	n/a	WORD	733943	wordpools/wasnorm_wordpool_576.txt	LTP330	ltpFR2	6	7	BOUQUET	157	n/a	n/a	0	0	0
1470.522	n/a	WORD	735261	wordpools/wasnorm_wordpool_576.txt	LTP330	ltpFR2	6	7	EYELASH	546	n/a	n/a	0	0	0
1472.14	n/a	START	736070	n/a	LTP330	ltpFR2	6	n/a	n/a	n/a	10	n/a	n/a	n/a	n/a
1473.318	n/a	DISTRACTOR	736659	n/a	LTP330	ltpFR2	6	7	n/a	n/a	n/a	n/a	0	0	0
1473.324	n/a	PROB	736662	n/a	LTP330	ltpFR2	6	n/a	n/a	n/a	10	15	7	7	1
1475.542	n/a	PROB	737771	n/a	LTP330	ltpFR2	6	n/a	n/a	n/a	10	21	9	3	9
1478.01	n/a	PROB	739005	n/a	LTP330	ltpFR2	6	n/a	n/a	n/a	10	18	7	4	7
1480.88	n/a	PROB	740440	n/a	LTP330	ltpFR2	6	n/a	n/a	n/a	10	25	9	7	9
1484.132	n/a	PROB	742066	n/a	LTP330	ltpFR2	6	n/a	n/a	n/a	10	18	3	8	7
1486.984	n/a	PROB	743492	n/a	LTP330	ltpFR2	6	n/a	n/a	n/a	10	22	7	9	6
1489.586	n/a	PROB	744793	n/a	LTP330	ltpFR2	6	n/a	n/a	n/a	10	24	9	8	9
1493.14	n/a	PROB	746570	n/a	LTP330	ltpFR2	6	n/a	n/a	n/a	10	11	1	1	9
1494.442	n/a	PROB	747221	n/a	LTP330	ltpFR2	6	n/a	n/a	n/a	10	12	2	9	1
1495.872	n/a	STOP	747936	n/a	LTP330	ltpFR2	6	n/a	n/a	n/a	10	n/a	n/a	n/a	n/a
1497.928	n/a	REC_START	748964	n/a	LTP330	ltpFR2	6	7	n/a	n/a	n/a	n/a	0	0	0
1499.868	n/a	REC_WORD	749934	wordpools/wasnorm_wordpool_576.txt	LTP330	ltpFR2	6	7	MARINE	869	n/a	n/a	0	0	0
1500.854	n/a	REC_WORD	750427	wordpools/wasnorm_wordpool_576.txt	LTP330	ltpFR2	6	7	COUCH	386	n/a	n/a	0	0	0
1502.084	n/a	REC_WORD	751042	wordpools/wasnorm_wordpool_576.txt	LTP330	ltpFR2	6	7	HAND	683	n/a	n/a	0	0	0
1503.454	n/a	REC_WORD	751727	wordpools/wasnorm_wordpool_576.txt	LTP330	ltpFR2	6	7	ROD	1203	n/a	n/a	0	0	0
1505.534	n/a	REC_WORD	752767	wordpools/wasnorm_wordpool_576.txt	LTP330	ltpFR2	6	7	HANDBAG	684	n/a	n/a	0	0	0
1506.344	n/a	REC_WORD	753172	wordpools/wasnorm_wordpool_576.txt	LTP330	ltpFR2	6	7	BRIEFCASE	175	n/a	n/a	0	0	0
1510.228	n/a	REC_WORD	755114	wordpools/wasnorm_wordpool_576.txt	LTP330	ltpFR2	6	7	JEANS	752	n/a	n/a	0	0	0
1512.398	n/a	REC_WORD	756199	wordpools/wasnorm_wordpool_576.txt	LTP330	ltpFR2	6	7	FINGER	567	n/a	n/a	0	0	0
1513.114	n/a	REC_WORD	756557	wordpools/wasnorm_wordpool_576.txt	LTP330	ltpFR2	6	7	SHOULDER	1294	n/a	n/a	0	0	0
1515.788	n/a	REC_WORD	757894	wordpools/wasnorm_wordpool_576.txt	LTP330	ltpFR2	6	7	PAIL	1002	n/a	n/a	0	0	0
1522.702	n/a	REC_WORD	761351	wordpools/wasnorm_wordpool_576.txt	LTP330	ltpFR2	6	7	ARM	38	n/a	n/a	0	0	0
1524.628	n/a	REC_WORD	762314	wordpools/wasnorm_wordpool_576.txt	LTP330	ltpFR2	6	7	LEG	809	n/a	n/a	0	0	0
1525.108	n/a	REC_WORD	762554	wordpools/wasnorm_wordpool_576.txt	LTP330	ltpFR2	6	7	FOOT	590	n/a	n/a	0	0	0
1535.26	n/a	REC_WORD	767630	wordpools/wasnorm_wordpool_576.txt	LTP330	ltpFR2	6	7	BROTHER	179	n/a	n/a	0	0	0
1535.87	n/a	REC_WORD	767935	wordpools/wasnorm_wordpool_576.txt	LTP330	ltpFR2	6	7	HERO	706	n/a	n/a	0	0	0
1536.958	n/a	REC_WORD	768479	wordpools/wasnorm_wordpool_576.txt	LTP330	ltpFR2	6	7	THIEF	1456	n/a	n/a	0	0	0
1545.43	n/a	REC_WORD	772715	wordpools/wasnorm_wordpool_576.txt	LTP330	ltpFR2	6	7	SIBLING	1301	n/a	n/a	0	0	0
1588.554	n/a	DISTRACTOR	794277	n/a	LTP330	ltpFR2	6	8	n/a	n/a	n/a	n/a	0	0	0
1588.554	n/a	START	794277	n/a	LTP330	ltpFR2	6	n/a	n/a	n/a	11	n/a	n/a	n/a	n/a
1588.588	n/a	PROB	794294	n/a	LTP330	ltpFR2	6	n/a	n/a	n/a	11	18	7	7	4
1591.306	n/a	PROB	795653	n/a	LTP330	ltpFR2	6	n/a	n/a	n/a	11	13	1	4	7
1593.108	n/a	PROB	796554	n/a	LTP330	ltpFR2	6	n/a	n/a	n/a	11	16	5	3	8
1594.576	n/a	PROB	797288	n/a	LTP330	ltpFR2	6	n/a	n/a	n/a	11	15	6	4	5
1595.878	n/a	PROB	797939	n/a	LTP330	ltpFR2	6	n/a	n/a	n/a	11	17	9	6	2
1597.696	n/a	PROB	798848	n/a	LTP330	ltpFR2	6	n/a	n/a	n/a	11	14	6	1	7
1599.196	n/a	PROB	799598	n/a	LTP330	ltpFR2	6	n/a	n/a	n/a	11	15	8	3	4
1601.882	n/a	PROB	800941	n/a	LTP330	ltpFR2	6	n/a	n/a	n/a	11	12	4	3	5
1603.916	n/a	PROB	801958	n/a	LTP330	ltpFR2	6	n/a	n/a	n/a	11	19	8	2	9
1605.218	n/a	PROB	802609	n/a	LTP330	ltpFR2	6	n/a	n/a	n/a	11	11	6	2	3
1607.254	n/a	PROB	803627	n/a	LTP330	ltpFR2	6	n/a	n/a	n/a	11	20	6	8	6
1609.656	n/a	PROB	804828	n/a	LTP330	ltpFR2	6	n/a	n/a	n/a	11	15	4	9	2
1612.336	n/a	STOP	806168	n/a	LTP330	ltpFR2	6	n/a	n/a	n/a	11	n/a	n/a	n/a	n/a
1613.71	n/a	WORD	806855	wordpools/wasnorm_wordpool_576.txt	LTP330	ltpFR2	6	8	AIRPORT	13	n/a	n/a	0	0	0
1616.494	n/a	WORD	808247	wordpools/wasnorm_wordpool_576.txt	LTP330	ltpFR2	6	8	PILOT	1070	n/a	n/a	0	0	0
1618.964	n/a	WORD	809482	wordpools/wasnorm_wordpool_576.txt	LTP330	ltpFR2	6	8	PECAN	1036	n/a	n/a	0	0	0
1621.7	n/a	WORD	810850	wordpools/wasnorm_wordpool_576.txt	LTP330	ltpFR2	6	8	GHETTO	633	n/a	n/a	0	0	0
1624.534	n/a	WORD	812267	wordpools/wasnorm_wordpool_576.txt	LTP330	ltpFR2	6	8	MARKET	871	n/a	n/a	0	0	0
1627.004	n/a	WORD	813502	wordpools/wasnorm_wordpool_576.txt	LTP330	ltpFR2	6	8	BANQUET	86	n/a	n/a	0	0	0
1629.59	n/a	WORD	814795	wordpools/wasnorm_wordpool_576.txt	LTP330	ltpFR2	6	8	GROUND	666	n/a	n/a	0	0	0
1632.342	n/a	WORD	816171	wordpools/wasnorm_wordpool_576.txt	LTP330	ltpFR2	6	8	PEANUT	1032	n/a	n/a	0	0	0
1634.844	n/a	WORD	817422	wordpools/wasnorm_wordpool_576.txt	LTP330	ltpFR2	6	8	MAPLE	866	n/a	n/a	0	0	0
1637.614	n/a	WORD	818807	wordpools/wasnorm_wordpool_576.txt	LTP330	ltpFR2	6	8	CURTAIN	427	n/a	n/a	0	0	0
1640.08	n/a	WORD	820040	wordpools/wasnorm_wordpool_576.txt	LTP330	ltpFR2	6	8	COIN	343	n/a	n/a	0	0	0
1642.718	n/a	WORD	821359	wordpools/wasnorm_wordpool_576.txt	LTP330	ltpFR2	6	8	SCARF	1246	n/a	n/a	0	0	0
1645.486	n/a	WORD	822743	wordpools/wasnorm_wordpool_576.txt	LTP330	ltpFR2	6	8	RABBIT	1152	n/a	n/a	0	0	0
1648.222	n/a	WORD	824111	wordpools/wasnorm_wordpool_576.txt	LTP330	ltpFR2	6	8	XEROX	1628	n/a	n/a	0	0	0
1650.708	n/a	WORD	825354	wordpools/wasnorm_wordpool_576.txt	LTP330	ltpFR2	6	8	SCOTCH	1251	n/a	n/a	0	0	0
1653.208	n/a	WORD	826604	wordpools/wasnorm_wordpool_576.txt	LTP330	ltpFR2	6	8	BUNNY	198	n/a	n/a	0	0	0
1655.778	n/a	WORD	827889	wordpools/wasnorm_wordpool_576.txt	LTP330	ltpFR2	6	8	STUDENT	1395	n/a	n/a	0	0	0
1658.264	n/a	WORD	829132	wordpools/wasnorm_wordpool_576.txt	LTP330	ltpFR2	6	8	PEPPER	1047	n/a	n/a	0	0	0
1660.734	n/a	WORD	830367	wordpools/wasnorm_wordpool_576.txt	LTP330	ltpFR2	6	8	RATTLE	1170	n/a	n/a	0	0	0
1663.3	n/a	WORD	831650	wordpools/wasnorm_wordpool_576.txt	LTP330	ltpFR2	6	8	POWDER	1117	n/a	n/a	0	0	0
1665.954	n/a	WORD	832977	wordpools/wasnorm_wordpool_576.txt	LTP330	ltpFR2	6	8	ASIA	46	n/a	n/a	0	0	0
1668.422	n/a	WORD	834211	wordpools/wasnorm_wordpool_576.txt	LTP330	ltpFR2	6	8	SNACK	1331	n/a	n/a	0	0	0
1671.174	n/a	WORD	835587	wordpools/wasnorm_wordpool_576.txt	LTP330	ltpFR2	6	8	ANKLE	24	n/a	n/a	0	0	0
1673.86	n/a	WORD	836930	wordpools/wasnorm_wordpool_576.txt	LTP330	ltpFR2	6	8	LONDON	843	n/a	n/a	0	0	0
1675.478	n/a	START	837739	n/a	LTP330	ltpFR2	6	n/a	n/a	n/a	12	n/a	n/a	n/a	n/a
1676.586	n/a	DISTRACTOR	838293	n/a	LTP330	ltpFR2	6	8	n/a	n/a	n/a	n/a	0	0	0
1676.596	n/a	PROB	838298	n/a	LTP330	ltpFR2	6	n/a	n/a	n/a	12	19	8	6	5
1679.716	n/a	PROB	839858	n/a	LTP330	ltpFR2	6	n/a	n/a	n/a	12	5	1	2	2
1681.316	n/a	PROB	840658	n/a	LTP330	ltpFR2	6	n/a	n/a	n/a	12	14	5	4	5
1683.1	n/a	PROB	841550	n/a	LTP330	ltpFR2	6	n/a	n/a	n/a	12	16	8	3	5
1685.588	n/a	PROB	842794	n/a	LTP330	ltpFR2	6	n/a	n/a	n/a	12	14	8	4	2
1688.138	n/a	PROB	844069	n/a	LTP330	ltpFR2	6	n/a	n/a	n/a	12	20	8	9	3
1691.04	n/a	PROB	845520	n/a	LTP330	ltpFR2	6	n/a	n/a	n/a	12	22	9	8	7
1694.076	n/a	PROB	847038	n/a	LTP330	ltpFR2	6	n/a	n/a	n/a	12	24	9	8	8
1699.476	n/a	STOP	849738	n/a	LTP330	ltpFR2	6	n/a	n/a	n/a	12	n/a	n/a	n/a	n/a
1701.334	n/a	REC_START	850667	n/a	LTP330	ltpFR2	6	8	n/a	n/a	n/a	n/a	0	0	0
1702.184	n/a	REC_WORD	851092	wordpools/wasnorm_wordpool_576.txt	LTP330	ltpFR2	6	8	LONDON	843	n/a	n/a	0	0	0
1702.658	n/a	REC_WORD	851329	wordpools/wasnorm_wordpool_576.txt	LTP330	ltpFR2	6	8	ASIA	46	n/a	n/a	0	0	0
1703.304	n/a	REC_WORD	851652	wordpools/wasnorm_wordpool_576.txt	LTP330	ltpFR2	6	8	AIRPORT	13	n/a	n/a	0	0	0
1703.924	n/a	REC_WORD	851962	wordpools/wasnorm_wordpool_576.txt	LTP330	ltpFR2	6	8	PILOT	1070	n/a	n/a	0	0	0
1705.504	n/a	REC_WORD	852752	wordpools/wasnorm_wordpool_576.txt	LTP330	ltpFR2	6	8	BANQUET	86	n/a	n/a	0	0	0
1706.018	n/a	REC_WORD	853009	wordpools/wasnorm_wordpool_576.txt	LTP330	ltpFR2	6	8	MARKET	871	n/a	n/a	0	0	0
1707.754	n/a	REC_WORD	853877	wordpools/wasnorm_wordpool_576.txt	LTP330	ltpFR2	6	8	PEANUT	1032	n/a	n/a	0	0	0
1711.064	n/a	REC_WORD	855532	wordpools/wasnorm_wordpool_576.txt	LTP330	ltpFR2	6	8	MAPLE	866	n/a	n/a	0	0	0
1712.904	n/a	REC_WORD	856452	wordpools/wasnorm_wordpool_576.txt	LTP330	ltpFR2	6	8	RATTLE	1170	n/a	n/a	0	0	0
1724.628	n/a	REC_WORD	862314	wordpools/wasnorm_wordpool_576.txt	LTP330	ltpFR2	6	8	ANKLE	24	n/a	n/a	0	0	0
1725.938	n/a	REC_WORD	862969	wordpools/wasnorm_wordpool_576.txt	LTP330	ltpFR2	6	8	XEROX	1628	n/a	n/a	0	0	0
1731.266	n/a	REC_WORD	865633	wordpools/wasnorm_wordpool_576.txt	LTP330	ltpFR2	6	8	BUNNY	198	n/a	n/a	0	0	0
1731.672	n/a	REC_WORD	865836	wordpools/wasnorm_wordpool_576.txt	LTP330	ltpFR2	6	8	STUDENT	1395	n/a	n/a	0	0	0
1736.198	n/a	REC_WORD	868099	wordpools/wasnorm_wordpool_576.txt	LTP330	ltpFR2	6	8	PUPIL	1143	n/a	n/a	0	0	0
1777.882	n/a	REST_REWET	888941	n/a	LTP330	ltpFR2	6	8	n/a	n/a	n/a	n/a	0	0	0
2163.158	n/a	DISTRACTOR	1081579	n/a	LTP330	ltpFR2	6	9	n/a	n/a	n/a	n/a	0	0	0
2163.158	n/a	START	1081579	n/a	LTP330	ltpFR2	6	n/a	n/a	n/a	13	n/a	n/a	n/a	n/a
2163.174	n/a	PROB	1081587	n/a	LTP330	ltpFR2	6	n/a	n/a	n/a	13	11	2	5	4
2166.11	n/a	PROB	1083055	n/a	LTP330	ltpFR2	6	n/a	n/a	n/a	13	24	7	7	9
2169.278	n/a	PROB	1084639	n/a	LTP330	ltpFR2	6	n/a	n/a	n/a	13	12	7	2	2
2172.466	n/a	PROB	1086233	n/a	LTP330	ltpFR2	6	n/a	n/a	n/a	13	16	6	3	7
2176.186	n/a	PROB	1088093	n/a	LTP330	ltpFR2	6	n/a	n/a	n/a	13	15	1	7	7
2177.552	n/a	PROB	1088776	n/a	LTP330	ltpFR2	6	n/a	n/a	n/a	13	11	1	6	4
2179.422	n/a	PROB	1089711	n/a	LTP330	ltpFR2	6	n/a	n/a	n/a	13	14	4	3	7
2181.856	n/a	PROB	1090928	n/a	LTP330	ltpFR2	6	n/a	n/a	n/a	13	13	6	4	1
2183.774	n/a	PROB	1091887	n/a	LTP330	ltpFR2	6	n/a	n/a	n/a	13	11	3	6	2
2186.386	n/a	STOP	1093193	n/a	LTP330	ltpFR2	6	n/a	n/a	n/a	13	n/a	n/a	n/a	n/a
2188.162	n/a	WORD	1094081	wordpools/wasnorm_wordpool_576.txt	LTP330	ltpFR2	6	9	REPORT	1184	n/a	n/a	0	0	0
2190.616	n/a	WORD	1095308	wordpools/wasnorm_wordpool_576.txt	LTP330	ltpFR2	6	9	FRECKLE	602	n/a	n/a	0	0	0
2193.384	n/a	WORD	1096692	wordpools/wasnorm_wordpool_576.txt	LTP330	ltpFR2	6	9	FOREHEAD	592	n/a	n/a	0	0	0
2196.186	n/a	WORD	1098093	wordpools/wasnorm_wordpool_576.txt	LTP330	ltpFR2	6	9	MARS	873	n/a	n/a	0	0	0
2198.738	n/a	WORD	1099369	wordpools/wasnorm_wordpool_576.txt	LTP330	ltpFR2	6	9	FRAME	600	n/a	n/a	0	0	0
2201.39	n/a	WORD	1100695	wordpools/wasnorm_wordpool_576.txt	LTP330	ltpFR2	6	9	PACKAGE	997	n/a	n/a	0	0	0
2204.21	n/a	WORD	1102105	wordpools/wasnorm_wordpool_576.txt	LTP330	ltpFR2	6	9	STOMACH	1384	n/a	n/a	0	0	0
2206.878	n/a	WORD	1103439	wordpools/wasnorm_wordpool_576.txt	LTP330	ltpFR2	6	9	SIDEWALK	1303	n/a	n/a	0	0	0
2209.48	n/a	WORD	1104740	wordpools/wasnorm_wordpool_576.txt	LTP330	ltpFR2	6	9	SKETCH	1315	n/a	n/a	0	0	0
2212.132	n/a	WORD	1106066	wordpools/wasnorm_wordpool_576.txt	LTP330	ltpFR2	6	9	UNCLE	1536	n/a	n/a	0	0	0
2214.768	n/a	WORD	1107384	wordpools/wasnorm_wordpool_576.txt	LTP330	ltpFR2	6	9	OZONE	996	n/a	n/a	0	0	0
2217.286	n/a	WORD	1108643	wordpools/wasnorm_wordpool_576.txt	LTP330	ltpFR2	6	9	JUNGLE	764	n/a	n/a	0	0	0
2220.088	n/a	WORD	1110044	wordpools/wasnorm_wordpool_576.txt	LTP330	ltpFR2	6	9	PAPER	1011	n/a	n/a	0	0	0
2222.808	n/a	WORD	1111404	wordpools/wasnorm_wordpool_576.txt	LTP330	ltpFR2	6	9	HORNET	718	n/a	n/a	0	0	0
2225.594	n/a	WORD	1112797	wordpools/wasnorm_wordpool_576.txt	LTP330	ltpFR2	6	9	STAR	1373	n/a	n/a	0	0	0
2228.18	n/a	WORD	1114090	wordpools/wasnorm_wordpool_576.txt	LTP330	ltpFR2	6	9	SURVEY	1414	n/a	n/a	0	0	0
2230.7	n/a	WORD	1115350	wordpools/wasnorm_wordpool_576.txt	LTP330	ltpFR2	6	9	OYSTER	995	n/a	n/a	0	0	0
2233.168	n/a	WORD	1116584	wordpools/wasnorm_wordpool_576.txt	LTP330	ltpFR2	6	9	MATTRESS	879	n/a	n/a	0	0	0
2235.902	n/a	WORD	1117951	wordpools/wasnorm_wordpool_576.txt	LTP330	ltpFR2	6	9	PADDING	999	n/a	n/a	0	0	0
2238.622	n/a	WORD	1119311	wordpools/wasnorm_wordpool_576.txt	LTP330	ltpFR2	6	9	TURTLE	1522	n/a	n/a	0	0	0
2241.14	n/a	WORD	1120570	wordpools/wasnorm_wordpool_576.txt	LTP330	ltpFR2	6	9	MAILBOX	857	n/a	n/a	0	0	0
2243.76	n/a	WORD	1121880	wordpools/wasnorm_wordpool_576.txt	LTP330	ltpFR2	6	9	KIDNEY	776	n/a	n/a	0	0	0
2246.328	n/a	WORD	1123164	wordpools/wasnorm_wordpool_576.txt	LTP330	ltpFR2	6	9	MARROW	872	n/a	n/a	0	0	0
2248.93	n/a	WORD	1124465	wordpools/wasnorm_wordpool_576.txt	LTP330	ltpFR2	6	9	COUNTY	389	n/a	n/a	0	0	0
2250.548	n/a	START	1125274	n/a	LTP330	ltpFR2	6	n/a	n/a	n/a	14	n/a	n/a	n/a	n/a
2251.464	n/a	DISTRACTOR	1125732	n/a	LTP330	ltpFR2	6	9	n/a	n/a	n/a	n/a	0	0	0
2251.482	n/a	PROB	1125741	n/a	LTP330	ltpFR2	6	n/a	n/a	n/a	14	14	8	1	5
2253.584	n/a	PROB	1126792	n/a	LTP330	ltpFR2	6	n/a	n/a	n/a	14	12	4	3	5
2256.72	n/a	PROB	1128360	n/a	LTP330	ltpFR2	6	n/a	n/a	n/a	14	7	1	5	1
2258.438	n/a	PROB	1129219	n/a	LTP330	ltpFR2	6	n/a	n/a	n/a	14	17	4	8	5
2260.724	n/a	PROB	1130362	n/a	LTP330	ltpFR2	6	n/a	n/a	n/a	14	10	2	6	2
2263.026	n/a	PROB	1131513	n/a	LTP330	ltpFR2	6	n/a	n/a	n/a	14	24	8	7	7
2265.578	n/a	PROB	1132789	n/a	LTP330	ltpFR2	6	n/a	n/a	n/a	14	14	7	2	5
2267.814	n/a	PROB	1133907	n/a	LTP330	ltpFR2	6	n/a	n/a	n/a	14	14	5	4	5
2269.28	n/a	PROB	1134640	n/a	LTP330	ltpFR2	6	n/a	n/a	n/a	14	7	1	5	1
2274.548	n/a	STOP	1137274	n/a	LTP330	ltpFR2	6	n/a	n/a	n/a	14	n/a	n/a	n/a	n/a
2276.37	n/a	REC_START	1138185	n/a	LTP330	ltpFR2	6	9	n/a	n/a	n/a	n/a	0	0	0
2277.248	n/a	REC_WORD	1138624	wordpools/wasnorm_wordpool_576.txt	LTP330	ltpFR2	6	9	MARROW	872	n/a	n/a	0	0	0
2277.814	n/a	REC_WORD	1138907	wordpools/wasnorm_wordpool_576.txt	LTP330	ltpFR2	6	9	KIDNEY	776	n/a	n/a	0	0	0
2281.918	n/a	REC_WORD	1140959	wordpools/wasnorm_wordpool_576.txt	LTP330	ltpFR2	6	9	MARS	873	n/a	n/a	0	0	0
2282.664	n/a	REC_WORD	1141332	wordpools/wasnorm_wordpool_576.txt	LTP330	ltpFR2	6	9	STAR	1373	n/a	n/a	0	0	0
2283.618	n/a	REC_WORD	1141809	wordpools/wasnorm_wordpool_576.txt	LTP330	ltpFR2	6	9	FRAME	600	n/a	n/a	0	0	0
2286.524	n/a	REC_WORD	1143262	wordpools/wasnorm_wordpool_576.txt	LTP330	ltpFR2	6	9	POSTAGE	1113	n/a	n/a	0	0	0
2287.532	n/a	REC_WORD	1143766	wordpools/wasnorm_wordpool_576.txt	LTP330	ltpFR2	6	9	PACKAGE	997	n/a	n/a	0	0	0
2301.026	n/a	REC_WORD	1150513	wordpools/wasnorm_wordpool_576.txt	LTP330	ltpFR2	6	9	DRAWING	494	n/a	n/a	0	0	0
2301.482	n/a	REC_WORD	1150741	wordpools/wasnorm_wordpool_576.txt	LTP330	ltpFR2	6	9	SCRIBBLE	1256	n/a	n/a	0	0	0
2311.904	n/a	REC_WORD	1155952	wordpools/wasnorm_wordpool_576.txt	LTP330	ltpFR2	6	9	JUNGLE	764	n/a	n/a	0	0	0
2312.534	n/a	REC_WORD	1156267	wordpools/wasnorm_wordpool_576.txt	LTP330	ltpFR2	6	9	OZONE	996	n/a	n/a	0	0	0
2366.998	n/a	DISTRACTOR	1183499	n/a	LTP330	ltpFR2	6	10	n/a	n/a	n/a	n/a	0	0	0
2366.998	n/a	START	1183499	n/a	LTP330	ltpFR2	6	n/a	n/a	n/a	15	n/a	n/a	n/a	n/a
2367.014	n/a	PROB	1183507	n/a	LTP330	ltpFR2	6	n/a	n/a	n/a	15	21	8	8	5
2369.998	n/a	PROB	1184999	n/a	LTP330	ltpFR2	6	n/a	n/a	n/a	15	14	8	1	5
2373.318	n/a	PROB	1186659	n/a	LTP330	ltpFR2	6	n/a	n/a	n/a	15	15	7	4	4
2375.12	n/a	PROB	1187560	n/a	LTP330	ltpFR2	6	n/a	n/a	n/a	15	15	9	2	4
2376.822	n/a	PROB	1188411	n/a	LTP330	ltpFR2	6	n/a	n/a	n/a	15	22	6	5	8
2381.442	n/a	PROB	1190721	n/a	LTP330	ltpFR2	6	n/a	n/a	n/a	15	20	8	7	5
2383.762	n/a	PROB	1191881	n/a	LTP330	ltpFR2	6	n/a	n/a	n/a	15	14	3	6	5
2386.03	n/a	PROB	1193015	n/a	LTP330	ltpFR2	6	n/a	n/a	n/a	15	24	8	8	9
2388.948	n/a	PROB	1194474	n/a	LTP330	ltpFR2	6	n/a	n/a	n/a	15	16	6	5	5
2390.396	n/a	STOP	1195198	n/a	LTP330	ltpFR2	6	n/a	n/a	n/a	15	n/a	n/a	n/a	n/a
2392.084	n/a	WORD	1196042	wordpools/wasnorm_wordpool_576.txt	LTP330	ltpFR2	6	10	SUPPER	1411	n/a	n/a	0	0	0
2394.554	n/a	WORD	1197277	wordpools/wasnorm_wordpool_576.txt	LTP330	ltpFR2	6	10	BOYFRIEND	162	n/a	n/a	0	0	0
2397.056	n/a	WORD	1198528	wordpools/wasnorm_wordpool_576.txt	LTP330	ltpFR2	6	10	INMATE	738	n/a	n/a	0	0	0
2399.626	n/a	WORD	1199813	wordpools/wasnorm_wordpool_576.txt	LTP330	ltpFR2	6	10	FEMALE	559	n/a	n/a	0	0	0
2402.444	n/a	WORD	1201222	wordpools/wasnorm_wordpool_576.txt	LTP330	ltpFR2	6	10	WASP	1593	n/a	n/a	0	0	0
2404.946	n/a	WORD	1202473	wordpools/wasnorm_wordpool_576.txt	LTP330	ltpFR2	6	10	LIPSTICK	829	n/a	n/a	0	0	0
2407.566	n/a	WORD	1203783	wordpools/wasnorm_wordpool_576.txt	LTP330	ltpFR2	6	10	JELLO	754	n/a	n/a	0	0	0
2410.032	n/a	WORD	1205016	wordpools/wasnorm_wordpool_576.txt	LTP330	ltpFR2	6	10	PALACE	1006	n/a	n/a	0	0	0
2412.536	n/a	WORD	1206268	wordpools/wasnorm_wordpool_576.txt	LTP330	ltpFR2	6	10	PREACHER	1119	n/a	n/a	0	0	0
2415.32	n/a	WORD	1207660	wordpools/wasnorm_wordpool_576.txt	LTP330	ltpFR2	6	10	SPONGE	1355	n/a	n/a	0	0	0
2418.04	n/a	WORD	1209020	wordpools/wasnorm_wordpool_576.txt	LTP330	ltpFR2	6	10	PLAID	1080	n/a	n/a	0	0	0
2420.694	n/a	WORD	1210347	wordpools/wasnorm_wordpool_576.txt	LTP330	ltpFR2	6	10	PICNIC	1060	n/a	n/a	0	0	0
2423.478	n/a	WORD	1211739	wordpools/wasnorm_wordpool_576.txt	LTP330	ltpFR2	6	10	SPIDER	1351	n/a	n/a	0	0	0
2426.164	n/a	WORD	1213082	wordpools/wasnorm_wordpool_576.txt	LTP330	ltpFR2	6	10	CLAMP	316	n/a	n/a	0	0	0
2428.916	n/a	WORD	1214458	wordpools/wasnorm_wordpool_576.txt	LTP330	ltpFR2	6	10	SUMMIT	1405	n/a	n/a	0	0	0
2431.62	n/a	WORD	1215810	wordpools/wasnorm_wordpool_576.txt	LTP330	ltpFR2	6	10	TOMBSTONE	1478	n/a	n/a	0	0	0
2434.154	n/a	WORD	1217077	wordpools/wasnorm_wordpool_576.txt	LTP330	ltpFR2	6	10	PIZZA	1079	n/a	n/a	0	0	0
2436.872	n/a	WORD	1218436	wordpools/wasnorm_wordpool_576.txt	LTP330	ltpFR2	6	10	LION	827	n/a	n/a	0	0	0
2439.61	n/a	WORD	1219805	wordpools/wasnorm_wordpool_576.txt	LTP330	ltpFR2	6	10	LEOPARD	812	n/a	n/a	0	0	0
2442.228	n/a	WORD	1221114	wordpools/wasnorm_wordpool_576.txt	LTP330	ltpFR2	6	10	LOVER	846	n/a	n/a	0	0	0
2444.964	n/a	WORD	1222482	wordpools/wasnorm_wordpool_576.txt	LTP330	ltpFR2	6	10	CREATURE	403	n/a	n/a	0	0	0
2447.448	n/a	WORD	1223724	wordpools/wasnorm_wordpool_576.txt	LTP330	ltpFR2	6	10	SWAMP	1416	n/a	n/a	0	0	0
2450.084	n/a	WORD	1225042	wordpools/wasnorm_wordpool_576.txt	LTP330	ltpFR2	6	10	SHORTS	1293	n/a	n/a	0	0	0
2452.62	n/a	WORD	1226310	wordpools/wasnorm_wordpool_576.txt	LTP330	ltpFR2	6	10	TUTU	1524	n/a	n/a	0	0	0
2454.238	n/a	START	1227119	n/a	LTP330	ltpFR2	6	n/a	n/a	n/a	16	n/a	n/a	n/a	n/a
2455.312	n/a	DISTRACTOR	1227656	n/a	LTP330	ltpFR2	6	10	n/a	n/a	n/a	n/a	0	0	0
2455.322	n/a	PROB	1227661	n/a	LTP330	ltpFR2	6	n/a	n/a	n/a	16	15	2	6	7
2458.09	n/a	PROB	1229045	n/a	LTP330	ltpFR2	6	n/a	n/a	n/a	16	11	2	3	6
2459.792	n/a	PROB	1229896	n/a	LTP330	ltpFR2	6	n/a	n/a	n/a	16	8	1	2	5
2461.578	n/a	PROB	1230789	n/a	LTP330	ltpFR2	6	n/a	n/a	n/a	16	16	7	2	7
2463.562	n/a	PROB	1231781	n/a	LTP330	ltpFR2	6	n/a	n/a	n/a	16	16	6	6	2
2465.682	n/a	PROB	1232841	n/a	LTP330	ltpFR2	6	n/a	n/a	n/a	16	16	4	2	8
2468.7	n/a	PROB	1234350	n/a	LTP330	ltpFR2	6	n/a	n/a	n/a	16	12	2	7	3
2471.436	n/a	PROB	1235718	n/a	LTP330	ltpFR2	6	n/a	n/a	n/a	16	12	3	1	9
2472.67	n/a	PROB	1236335	n/a	LTP330	ltpFR2	6	n/a	n/a	n/a	16	15	7	3	5
2473.97	n/a	PROB	1236985	n/a	LTP330	ltpFR2	6	n/a	n/a	n/a	16	21	8	4	9
2477.696	n/a	STOP	1238848	n/a	LTP330	ltpFR2	6	n/a	n/a	n/a	16	n/a	n/a	n/a	n/a
2480.06	n/a	REC_START	1240030	n/a	LTP330	ltpFR2	6	10	n/a	n/a	n/a	n/a	0	0	0
2481.01	n/a	REC_WORD	1240505	wordpools/wasnorm_wordpool_576.txt	LTP330	ltpFR2	6	10	BOYFRIEND	162	n/a	n/a	0	0	0
2481.706	n/a	REC_WORD	1240853	wordpools/wasnorm_wordpool_576.txt	LTP330	ltpFR2	6	10	LOVER	846	n/a	n/a	0	0	0
2482.39	n/a	REC_WORD	1241195	wordpools/wasnorm_wordpool_576.txt	LTP330	ltpFR2	6	10	INMATE	738	n/a	n/a	0	0	0
2482.906	n/a	REC_WORD	1241453	wordpools/wasnorm_wordpool_576.txt	LTP330	ltpFR2	6	10	FEMALE	559	n/a	n/a	0	0	0
2483.7	n/a	REC_WORD	1241850	wordpools/wasnorm_wordpool_576.txt	LTP330	ltpFR2	6	10	LIPSTICK	829	n/a	n/a	0	0	0
2486.292	n/a	REC_WORD	1243146	wordpools/wasnorm_wordpool_576.txt	LTP330	ltpFR2	6	10	JELLO	754	n/a	n/a	0	0	0
2488.616	n/a	REC_WORD	1244308	wordpools/wasnorm_wordpool_576.txt	LTP330	ltpFR2	6	10	LION	827	n/a	n/a	0	0	0
2491.59	n/a	REC_WORD	1245795	wordpools/wasnorm_wordpool_576.txt	LTP330	ltpFR2	6	10	LEOPARD	812	n/a	n/a	0	0	0
2493.796	n/a	REC_WORD	1246898	wordpools/wasnorm_wordpool_576.txt	LTP330	ltpFR2	6	10	PANTHER	1009	n/a	n/a	0	0	0
2494.276	n/a	REC_WORD	1247138	wordpools/wasnorm_wordpool_576.txt	LTP330	ltpFR2	6	10	CREATURE	403	n/a	n/a	0	0	0
2494.742	n/a	REC_WORD	1247371	wordpools/wasnorm_wordpool_576.txt	LTP330	ltpFR2	6	10	SWAMP	1416	n/a	n/a	0	0	0
2495.552	n/a	REC_WORD	1247776	wordpools/wasnorm_wordpool_576.txt	LTP330	ltpFR2	6	10	TUTU	1524	n/a	n/a	0	0	0
2534.31	n/a	REC_WORD	1267155	wordpools/wasnorm_wordpool_576.txt	LTP330	ltpFR2	6	10	CREATURE	403	n/a	n/a	0	0	0
2543.854	n/a	REC_WORD	1271927	wordpools/wasnorm_wordpool_576.txt	LTP330	ltpFR2	6	10	JUDGE	761	n/a	n/a	0	0	0
2551.444	n/a	REC_WORD	1275722	wordpools/wasnorm_wordpool_576.txt	LTP330	ltpFR2	6	10	PALACE	1006	n/a	n/a	0	0	0
2570.718	n/a	WORD	1285359	wordpools/wasnorm_wordpool_576.txt	LTP330	ltpFR2	6	11	STAMP	1370	n/a	n/a	0	0	0
2573.188	n/a	WORD	1286594	wordpools/wasnorm_wordpool_576.txt	LTP330	ltpFR2	6	11	CATTLE	261	n/a	n/a	0	0	0
2575.724	n/a	WORD	1287862	wordpools/wasnorm_wordpool_576.txt	LTP330	ltpFR2	6	11	VICTIM	1562	n/a	n/a	0	0	0
2578.56	n/a	WORD	1289280	wordpools/wasnorm_wordpool_576.txt	LTP330	ltpFR2	6	11	TILE	1468	n/a	n/a	0	0	0
2581.394	n/a	WORD	1290697	wordpools/wasnorm_wordpool_576.txt	LTP330	ltpFR2	6	11	PEDAL	1037	n/a	n/a	0	0	0
2583.93	n/a	WORD	1291965	wordpools/wasnorm_wordpool_576.txt	LTP330	ltpFR2	6	11	BINDER	127	n/a	n/a	0	0	0
2586.568	n/a	WORD	1293284	wordpools/wasnorm_wordpool_576.txt	LTP330	ltpFR2	6	11	MOTEL	919	n/a	n/a	0	0	0
2589.168	n/a	WORD	1294584	wordpools/wasnorm_wordpool_576.txt	LTP330	ltpFR2	6	11	PASSAGE	1019	n/a	n/a	0	0	0
2591.888	n/a	WORD	1295944	wordpools/wasnorm_wordpool_576.txt	LTP330	ltpFR2	6	11	FRANCE	601	n/a	n/a	0	0	0
2594.624	n/a	WORD	1297312	wordpools/wasnorm_wordpool_576.txt	LTP330	ltpFR2	6	11	RUG	1215	n/a	n/a	0	0	0
2597.108	n/a	WORD	1298554	wordpools/wasnorm_wordpool_576.txt	LTP330	ltpFR2	6	11	EUROPE	541	n/a	n/a	0	0	0
2599.696	n/a	WORD	1299848	wordpools/wasnorm_wordpool_576.txt	LTP330	ltpFR2	6	11	SLOPE	1328	n/a	n/a	0	0	0
2602.246	n/a	WORD	1301123	wordpools/wasnorm_wordpool_576.txt	LTP330	ltpFR2	6	11	PIANO	1057	n/a	n/a	0	0	0
2604.782	n/a	WORD	1302391	wordpools/wasnorm_wordpool_576.txt	LTP330	ltpFR2	6	11	TURNIP	1521	n/a	n/a	0	0	0
2607.55	n/a	WORD	1303775	wordpools/wasnorm_wordpool_576.txt	LTP330	ltpFR2	6	11	WORLD	1622	n/a	n/a	0	0	0
2610.286	n/a	WORD	1305143	wordpools/wasnorm_wordpool_576.txt	LTP330	ltpFR2	6	11	ATLAS	53	n/a	n/a	0	0	0
2612.838	n/a	WORD	1306419	wordpools/wasnorm_wordpool_576.txt	LTP330	ltpFR2	6	11	CAPTIVE	240	n/a	n/a	0	0	0
2615.508	n/a	WORD	1307754	wordpools/wasnorm_wordpool_576.txt	LTP330	ltpFR2	6	11	TEACHER	1440	n/a	n/a	0	0	0
2617.96	n/a	WORD	1308980	wordpools/wasnorm_wordpool_576.txt	LTP330	ltpFR2	6	11	MILDEW	893	n/a	n/a	0	0	0
2620.744	n/a	WORD	1310372	wordpools/wasnorm_wordpool_576.txt	LTP330	ltpFR2	6	11	MESSAGE	888	n/a	n/a	0	0	0
2623.28	n/a	WORD	1311640	wordpools/wasnorm_wordpool_576.txt	LTP330	ltpFR2	6	11	TROMBONE	1508	n/a	n/a	0	0	0
2626.082	n/a	WORD	1313041	wordpools/wasnorm_wordpool_576.txt	LTP330	ltpFR2	6	11	RECORD	1176	n/a	n/a	0	0	0
2628.786	n/a	WORD	1314393	wordpools/wasnorm_wordpool_576.txt	LTP330	ltpFR2	6	11	ARM	38	n/a	n/a	0	0	0
2631.22	n/a	WORD	1315610	wordpools/wasnorm_wordpool_576.txt	LTP330	ltpFR2	6	11	KNAPSACK	783	n/a	n/a	0	0	0
2632.838	n/a	START	1316419	n/a	LTP330	ltpFR2	6	n/a	n/a	n/a	17	n/a	n/a	n/a	n/a
2634.01	n/a	DISTRACTOR	1317005	n/a	LTP330	ltpFR2	6	11	n/a	n/a	n/a	n/a	0	0	0
2634.024	n/a	PROB	1317012	n/a	LTP330	ltpFR2	6	n/a	n/a	n/a	17	18	3	8	7
2636.024	n/a	PROB	1318012	n/a	LTP330	ltpFR2	6	n/a	n/a	n/a	17	13	3	9	1
2637.926	n/a	PROB	1318963	n/a	LTP330	ltpFR2	6	n/a	n/a	n/a	17	13	5	3	4
2641.996	n/a	PROB	1320998	n/a	LTP330	ltpFR2	6	n/a	n/a	n/a	17	7	1	3	3
2643.498	n/a	PROB	1321749	n/a	LTP330	ltpFR2	6	n/a	n/a	n/a	17	10	1	1	8
2644.882	n/a	PROB	1322441	n/a	LTP330	ltpFR2	6	n/a	n/a	n/a	17	8	1	5	2
2647.334	n/a	PROB	1323667	n/a	LTP330	ltpFR2	6	n/a	n/a	n/a	17	16	7	7	3
2650.554	n/a	PROB	1325277	n/a	LTP330	ltpFR2	6	n/a	n/a	n/a	17	21	9	3	9
2652.738	n/a	PROB	1326369	n/a	LTP330	ltpFR2	6	n/a	n/a	n/a	17	9	1	4	4
2654.608	n/a	PROB	1327304	n/a	LTP330	ltpFR2	6	n/a	n/a	n/a	17	23	9	9	5
2656.602	n/a	STOP	1328301	n/a	LTP330	ltpFR2	6	n/a	n/a	n/a	17	n/a	n/a	n/a	n/a
2658.612	n/a	REC_START	1329306	n/a	LTP330	ltpFR2	6	11	n/a	n/a	n/a	n/a	0	0	0
2659.716	n/a	REC_WORD	1329858	wordpools/wasnorm_wordpool_576.txt	LTP330	ltpFR2	6	11	TROMBONE	1508	n/a	n/a	0	0	0
2660.532	n/a	REC_WORD	1330266	wordpools/wasnorm_wordpool_576.txt	LTP330	ltpFR2	6	11	RECORD	1176	n/a	n/a	0	0	0
2663.996	n/a	REC_WORD	1331998	wordpools/wasnorm_wordpool_576.txt	LTP330	ltpFR2	6	11	KNAPSACK	783	n/a	n/a	0	0	0
2665.142	n/a	REC_WORD	1332571	wordpools/wasnorm_wordpool_576.txt	LTP330	ltpFR2	6	11	VICTIM	1562	n/a	n/a	0	0	0
2665.842	n/a	REC_WORD	1332921	wordpools/wasnorm_wordpool_576.txt	LTP330	ltpFR2	6	11	CATTLE	261	n/a	n/a	0	0	0
2675.148	n/a	REC_WORD	1337574	wordpools/wasnorm_wordpool_576.txt	LTP330	ltpFR2	6	11	KETTLE	772	n/a	n/a	0	0	0
2675.794	n/a	REC_WORD	1337897	wordpools/wasnorm_wordpool_576.txt	LTP330	ltpFR2	6	11	MESSAGE	888	n/a	n/a	0	0	0
2677.238	n/a	REC_WORD	1338619	wordpools/wasnorm_wordpool_576.txt	LTP330	ltpFR2	6	11	STAMP	1370	n/a	n/a	0	0	0
2678.188	n/a	REC_WORD	1339094	wordpools/wasnorm_wordpool_576.txt	LTP330	ltpFR2	6	11	TILE	1468	n/a	n/a	0	0	0
2680.298	n/a	REC_WORD	1340149	wordpools/wasnorm_wordpool_576.txt	LTP330	ltpFR2	6	11	MILDEW	893	n/a	n/a	0	0	0
2686.358	n/a	REC_WORD	1343179	wordpools/wasnorm_wordpool_576.txt	LTP330	ltpFR2	6	11	RUG	1215	n/a	n/a	0	0	0
2687.3	n/a	REC_WORD	1343650	wordpools/wasnorm_wordpool_576.txt	LTP330	ltpFR2	6	11	ROD	1203	n/a	n/a	0	0	0
2689.896	n/a	REC_WORD	1344948	wordpools/wasnorm_wordpool_576.txt	LTP330	ltpFR2	6	11	ARM	38	n/a	n/a	0	0	0
2749.238	n/a	DISTRACTOR	1374619	n/a	LTP330	ltpFR2	6	12	n/a	n/a	n/a	n/a	0	0	0
2749.238	n/a	START	1374619	n/a	LTP330	ltpFR2	6	n/a	n/a	n/a	18	n/a	n/a	n/a	n/a
2749.27	n/a	PROB	1374635	n/a	LTP330	ltpFR2	6	n/a	n/a	n/a	18	10	2	1	7
2751.006	n/a	PROB	1375503	n/a	LTP330	ltpFR2	6	n/a	n/a	n/a	18	13	6	2	5
2754.476	n/a	PROB	1377238	n/a	LTP330	ltpFR2	6	n/a	n/a	n/a	18	13	3	8	4
2757.01	n/a	PROB	1378505	n/a	LTP330	ltpFR2	6	n/a	n/a	n/a	18	15	1	9	5
2758.312	n/a	PROB	1379156	n/a	LTP330	ltpFR2	6	n/a	n/a	n/a	18	12	1	2	9
2759.764	n/a	PROB	1379882	n/a	LTP330	ltpFR2	6	n/a	n/a	n/a	18	18	7	7	4
2761.382	n/a	PROB	1380691	n/a	LTP330	ltpFR2	6	n/a	n/a	n/a	18	14	2	3	9
2763.05	n/a	PROB	1381525	n/a	LTP330	ltpFR2	6	n/a	n/a	n/a	18	24	6	8	9
2766.202	n/a	PROB	1383101	n/a	LTP330	ltpFR2	6	n/a	n/a	n/a	18	21	7	4	8
2769.64	n/a	PROB	1384820	n/a	LTP330	ltpFR2	6	n/a	n/a	n/a	18	25	7	8	8
2773.236	n/a	STOP	1386618	n/a	LTP330	ltpFR2	6	n/a	n/a	n/a	18	n/a	n/a	n/a	n/a
2774.292	n/a	WORD	1387146	wordpools/wasnorm_wordpool_576.txt	LTP330	ltpFR2	6	12	BLADE	134	n/a	n/a	0	0	0
2777.078	n/a	WORD	1388539	wordpools/wasnorm_wordpool_576.txt	LTP330	ltpFR2	6	12	RAZOR	1171	n/a	n/a	0	0	0
2779.83	n/a	WORD	1389915	wordpools/wasnorm_wordpool_576.txt	LTP330	ltpFR2	6	12	ROOSTER	1209	n/a	n/a	0	0	0
2782.448	n/a	WORD	1391224	wordpools/wasnorm_wordpool_576.txt	LTP330	ltpFR2	6	12	STALLION	1369	n/a	n/a	0	0	0
2785.084	n/a	WORD	1392542	wordpools/wasnorm_wordpool_576.txt	LTP330	ltpFR2	6	12	SHRUB	1299	n/a	n/a	0	0	0
2787.786	n/a	WORD	1393893	wordpools/wasnorm_wordpool_576.txt	LTP330	ltpFR2	6	12	FLOWER	584	n/a	n/a	0	0	0
2790.59	n/a	WORD	1395295	wordpools/wasnorm_wordpool_576.txt	LTP330	ltpFR2	6	12	MONSTER	912	n/a	n/a	0	0	0
2793.392	n/a	WORD	1396696	wordpools/wasnorm_wordpool_576.txt	LTP330	ltpFR2	6	12	FRAGRANCE	599	n/a	n/a	0	0	0
2795.944	n/a	WORD	1397972	wordpools/wasnorm_wordpool_576.txt	LTP330	ltpFR2	6	12	SADDLE	1221	n/a	n/a	0	0	0
2798.78	n/a	WORD	1399390	wordpools/wasnorm_wordpool_576.txt	LTP330	ltpFR2	6	12	DRESSER	496	n/a	n/a	0	0	0
2801.6	n/a	WORD	1400800	wordpools/wasnorm_wordpool_576.txt	LTP330	ltpFR2	6	12	COWBOY	395	n/a	n/a	0	0	0
2804.134	n/a	WORD	1402067	wordpools/wasnorm_wordpool_576.txt	LTP330	ltpFR2	6	12	PARROT	1015	n/a	n/a	0	0	0
2806.97	n/a	WORD	1403485	wordpools/wasnorm_wordpool_576.txt	LTP330	ltpFR2	6	12	CAFE	216	n/a	n/a	0	0	0
2809.656	n/a	WORD	1404828	wordpools/wasnorm_wordpool_576.txt	LTP330	ltpFR2	6	12	RACKET	1155	n/a	n/a	0	0	0
2812.408	n/a	WORD	1406204	wordpools/wasnorm_wordpool_576.txt	LTP330	ltpFR2	6	12	CARROT	249	n/a	n/a	0	0	0
2814.86	n/a	WORD	1407430	wordpools/wasnorm_wordpool_576.txt	LTP330	ltpFR2	6	12	SLUG	1329	n/a	n/a	0	0	0
2817.362	n/a	WORD	1408681	wordpools/wasnorm_wordpool_576.txt	LTP330	ltpFR2	6	12	BUCKET	184	n/a	n/a	0	0	0
2819.93	n/a	WORD	1409965	wordpools/wasnorm_wordpool_576.txt	LTP330	ltpFR2	6	12	BIKE	125	n/a	n/a	0	0	0
2822.7	n/a	WORD	1411350	wordpools/wasnorm_wordpool_576.txt	LTP330	ltpFR2	6	12	LEG	809	n/a	n/a	0	0	0
2825.434	n/a	WORD	1412717	wordpools/wasnorm_wordpool_576.txt	LTP330	ltpFR2	6	12	CRAB	397	n/a	n/a	0	0	0
2828.204	n/a	WORD	1414102	wordpools/wasnorm_wordpool_576.txt	LTP330	ltpFR2	6	12	SHARK	1275	n/a	n/a	0	0	0
2830.772	n/a	WORD	1415386	wordpools/wasnorm_wordpool_576.txt	LTP330	ltpFR2	6	12	TRIBE	1505	n/a	n/a	0	0	0
2833.576	n/a	WORD	1416788	wordpools/wasnorm_wordpool_576.txt	LTP330	ltpFR2	6	12	WARDROBE	1587	n/a	n/a	0	0	0
2836.16	n/a	WORD	1418080	wordpools/wasnorm_wordpool_576.txt	LTP330	ltpFR2	6	12	WRIST	1626	n/a	n/a	0	0	0
2837.78	n/a	START	1418890	n/a	LTP330	ltpFR2	6	n/a	n/a	n/a	19	n/a	n/a	n/a	n/a
2838.66	n/a	DISTRACTOR	1419330	n/a	LTP330	ltpFR2	6	12	n/a	n/a	n/a	n/a	0	0	0
2838.68	n/a	PROB	1419340	n/a	LTP330	ltpFR2	6	n/a	n/a	n/a	19	22	9	4	9
2840.832	n/a	PROB	1420416	n/a	LTP330	ltpFR2	6	n/a	n/a	n/a	19	17	4	5	8
2842.9	n/a	PROB	1421450	n/a	LTP330	ltpFR2	6	n/a	n/a	n/a	19	15	6	2	7
2844.852	n/a	PROB	1422426	n/a	LTP330	ltpFR2	6	n/a	n/a	n/a	19	13	4	8	1
2846.52	n/a	PROB	1423260	n/a	LTP330	ltpFR2	6	n/a	n/a	n/a	19	14	1	4	9
2848.088	n/a	PROB	1424044	n/a	LTP330	ltpFR2	6	n/a	n/a	n/a	19	13	2	9	2
2849.674	n/a	PROB	1424837	n/a	LTP330	ltpFR2	6	n/a	n/a	n/a	19	12	2	1	9
2851.358	n/a	PROB	1425679	n/a	LTP330	ltpFR2	6	n/a	n/a	n/a	19	14	4	6	2
2854.376	n/a	PROB	1427188	n/a	LTP330	ltpFR2	6	n/a	n/a	n/a	19	2	4	7	1
2856.26	n/a	PROB	1428130	n/a	LTP330	ltpFR2	6	n/a	n/a	n/a	19	17	9	6	2
2861.778	n/a	STOP	1430889	n/a	LTP330	ltpFR2	6	n/a	n/a	n/a	19	n/a	n/a	n/a	n/a
2863.552	n/a	REC_START	1431776	n/a	LTP330	ltpFR2	6	12	n/a	n/a	n/a	n/a	0	0	0
2864.302	n/a	REC_WORD	1432151	wordpools/wasnorm_wordpool_576.txt	LTP330	ltpFR2	6	12	RAZOR	1171	n/a	n/a	0	0	0
2865.064	n/a	REC_WORD	1432532	wordpools/wasnorm_wordpool_576.txt	LTP330	ltpFR2	6	12	BLADE	134	n/a	n/a	0	0	0
2865.624	n/a	REC_WORD	1432812	wordpools/wasnorm_wordpool_576.txt	LTP330	ltpFR2	6	12	STALLION	1369	n/a	n/a	0	0	0
2866.498	n/a	REC_WORD	1433249	wordpools/wasnorm_wordpool_576.txt	LTP330	ltpFR2	6	12	SADDLE	1221	n/a	n/a	0	0	0
2867.168	n/a	REC_WORD	1433584	wordpools/wasnorm_wordpool_576.txt	LTP330	ltpFR2	6	12	SHARK	1275	n/a	n/a	0	0	0
2869.688	n/a	REC_WORD	1434844	wordpools/wasnorm_wordpool_576.txt	LTP330	ltpFR2	6	12	DRESSER	496	n/a	n/a	0	0	0
2870.472	n/a	REC_WORD	1435236	wordpools/wasnorm_wordpool_576.txt	LTP330	ltpFR2	6	12	WARDROBE	1587	n/a	n/a	0	0	0
2872.208	n/a	REC_WORD	1436104	wordpools/wasnorm_wordpool_576.txt	LTP330	ltpFR2	6	12	PAIL	1002	n/a	n/a	0	0	0
2874.552	n/a	REC_WORD	1437276	wordpools/wasnorm_wordpool_576.txt	LTP330	ltpFR2	6	12	ROOSTER	1209	n/a	n/a	0	0	0
2887.032	n/a	REC_WORD	1443516	wordpools/wasnorm_wordpool_576.txt	LTP330	ltpFR2	6	12	FLOWER	584	n/a	n/a	0	0	0
2926.374	n/a	REC_WORD	1463187	wordpools/wasnorm_wordpool_576.txt	LTP330	ltpFR2	6	12	SNAIL	1332	n/a	n/a	0	0	0
2927.61	n/a	REC_WORD	1463805	wordpools/wasnorm_wordpool_576.txt	LTP330	ltpFR2	6	12	SLUG	1329	n/a	n/a	0	0	0
2928.584	n/a	REC_WORD	1464292	wordpools/wasnorm_wordpool_576.txt	LTP330	ltpFR2	6	12	CARROT	249	n/a	n/a	0	0	0
2954.044	n/a	WORD	1477022	wordpools/wasnorm_wordpool_576.txt	LTP330	ltpFR2	6	13	COMET	353	n/a	n/a	0	0	0
2956.546	n/a	WORD	1478273	wordpools/wasnorm_wordpool_576.txt	LTP330	ltpFR2	6	13	WINDOW	1611	n/a	n/a	0	0	0
2959.316	n/a	WORD	1479658	wordpools/wasnorm_wordpool_576.txt	LTP330	ltpFR2	6	13	DUST	508	n/a	n/a	0	0	0
2961.934	n/a	WORD	1480967	wordpools/wasnorm_wordpool_576.txt	LTP330	ltpFR2	6	13	GRAVEL	659	n/a	n/a	0	0	0
2964.52	n/a	WORD	1482260	wordpools/wasnorm_wordpool_576.txt	LTP330	ltpFR2	6	13	IDOL	733	n/a	n/a	0	0	0
2967.122	n/a	WORD	1483561	wordpools/wasnorm_wordpool_576.txt	LTP330	ltpFR2	6	13	CONCERT	360	n/a	n/a	0	0	0
2969.676	n/a	WORD	1484838	wordpools/wasnorm_wordpool_576.txt	LTP330	ltpFR2	6	13	BANJO	82	n/a	n/a	0	0	0
2972.326	n/a	WORD	1486163	wordpools/wasnorm_wordpool_576.txt	LTP330	ltpFR2	6	13	RADISH	1158	n/a	n/a	0	0	0
2974.996	n/a	WORD	1487498	wordpools/wasnorm_wordpool_576.txt	LTP330	ltpFR2	6	13	MUFFIN	929	n/a	n/a	0	0	0
2977.43	n/a	WORD	1488715	wordpools/wasnorm_wordpool_576.txt	LTP330	ltpFR2	6	13	MASK	876	n/a	n/a	0	0	0
2980.116	n/a	WORD	1490058	wordpools/wasnorm_wordpool_576.txt	LTP330	ltpFR2	6	13	MILK	895	n/a	n/a	0	0	0
2982.918	n/a	WORD	1491459	wordpools/wasnorm_wordpool_576.txt	LTP330	ltpFR2	6	13	GALLON	618	n/a	n/a	0	0	0
2985.454	n/a	WORD	1492727	wordpools/wasnorm_wordpool_576.txt	LTP330	ltpFR2	6	13	TYPIST	1532	n/a	n/a	0	0	0
2987.89	n/a	WORD	1493945	wordpools/wasnorm_wordpool_576.txt	LTP330	ltpFR2	6	13	GOBLIN	645	n/a	n/a	0	0	0
2990.358	n/a	WORD	1495179	wordpools/wasnorm_wordpool_576.txt	LTP330	ltpFR2	6	13	CHEMIST	292	n/a	n/a	0	0	0
2992.978	n/a	WORD	1496489	wordpools/wasnorm_wordpool_576.txt	LTP330	ltpFR2	6	13	SPOOL	1356	n/a	n/a	0	0	0
2995.564	n/a	WORD	1497782	wordpools/wasnorm_wordpool_576.txt	LTP330	ltpFR2	6	13	CREVICE	405	n/a	n/a	0	0	0
2998.032	n/a	WORD	1499016	wordpools/wasnorm_wordpool_576.txt	LTP330	ltpFR2	6	13	ROCKET	1202	n/a	n/a	0	0	0
3000.784	n/a	WORD	1500392	wordpools/wasnorm_wordpool_576.txt	LTP330	ltpFR2	6	13	TABLET	1427	n/a	n/a	0	0	0
3003.588	n/a	WORD	1501794	wordpools/wasnorm_wordpool_576.txt	LTP330	ltpFR2	6	13	MOTOR	922	n/a	n/a	0	0	0
3006.272	n/a	WORD	1503136	wordpools/wasnorm_wordpool_576.txt	LTP330	ltpFR2	6	13	SERVANT	1271	n/a	n/a	0	0	0
3008.708	n/a	WORD	1504354	wordpools/wasnorm_wordpool_576.txt	LTP330	ltpFR2	6	13	FOOT	590	n/a	n/a	0	0	0
3011.26	n/a	WORD	1505630	wordpools/wasnorm_wordpool_576.txt	LTP330	ltpFR2	6	13	SLIME	1327	n/a	n/a	0	0	0
3014.046	n/a	WORD	1507023	wordpools/wasnorm_wordpool_576.txt	LTP330	ltpFR2	6	13	BEAKER	104	n/a	n/a	0	0	0
3015.664	n/a	START	1507832	n/a	LTP330	ltpFR2	6	n/a	n/a	n/a	20	n/a	n/a	n/a	n/a
3016.512	n/a	DISTRACTOR	1508256	n/a	LTP330	ltpFR2	6	13	n/a	n/a	n/a	n/a	0	0	0
3016.53	n/a	PROB	1508265	n/a	LTP330	ltpFR2	6	n/a	n/a	n/a	20	16	5	6	5
3018.264	n/a	PROB	1509132	n/a	LTP330	ltpFR2	6	n/a	n/a	n/a	20	16	8	5	3
3020.016	n/a	PROB	1510008	n/a	LTP330	ltpFR2	6	n/a	n/a	n/a	20	18	8	3	7
3022.268	n/a	PROB	1511134	n/a	LTP330	ltpFR2	6	n/a	n/a	n/a	20	16	3	6	7
3024.136	n/a	PROB	1512068	n/a	LTP330	ltpFR2	6	n/a	n/a	n/a	20	21	9	3	9
3026.154	n/a	PROB	1513077	n/a	LTP330	ltpFR2	6	n/a	n/a	n/a	20	19	7	6	5
3029.374	n/a	PROB	1514687	n/a	LTP330	ltpFR2	6	n/a	n/a	n/a	20	6	2	3	1
3032.344	n/a	PROB	1516172	n/a	LTP330	ltpFR2	6	n/a	n/a	n/a	20	17	8	3	6
3035.012	n/a	PROB	1517506	n/a	LTP330	ltpFR2	6	n/a	n/a	n/a	20	18	8	1	9
3036.78	n/a	PROB	1518390	n/a	LTP330	ltpFR2	6	n/a	n/a	n/a	20	9	4	1	4
3038.414	n/a	STOP	1519207	n/a	LTP330	ltpFR2	6	n/a	n/a	n/a	20	n/a	n/a	n/a	n/a
3041.57	n/a	REC_START	1520785	n/a	LTP330	ltpFR2	6	13	n/a	n/a	n/a	n/a	0	0	0
3043.66	n/a	REC_WORD	1521830	wordpools/wasnorm_wordpool_576.txt	LTP330	ltpFR2	6	13	COMET	353	n/a	n/a	0	0	0
3044.434	n/a	REC_WORD	1522217	wordpools/wasnorm_wordpool_576.txt	LTP330	ltpFR2	6	13	ROCKET	1202	n/a	n/a	0	0	0
3046.19	n/a	REC_WORD	1523095	wordpools/wasnorm_wordpool_576.txt	LTP330	ltpFR2	6	13	MOTOR	922	n/a	n/a	0	0	0
3046.84	n/a	REC_WORD	1523420	wordpools/wasnorm_wordpool_576.txt	LTP330	ltpFR2	6	13	TABLET	1427	n/a	n/a	0	0	0
3048.8	n/a	REC_WORD	1524400	wordpools/wasnorm_wordpool_576.txt	LTP330	ltpFR2	6	13	MILK	895	n/a	n/a	0	0	0
3049.574	n/a	REC_WORD	1524787	wordpools/wasnorm_wordpool_576.txt	LTP330	ltpFR2	6	13	GALLON	618	n/a	n/a	0	0	0
3064.414	n/a	REC_WORD	1532207	wordpools/wasnorm_wordpool_576.txt	LTP330	ltpFR2	6	13	CHEMIST	292	n/a	n/a	0	0	0
3065.104	n/a	REC_WORD	1532552	wordpools/wasnorm_wordpool_576.txt	LTP330	ltpFR2	6	13	BEAKER	104	n/a	n/a	0	0	0
3132.028	n/a	WORD	1566014	wordpools/wasnorm_wordpool_576.txt	LTP330	ltpFR2	6	14	PERMIT	1051	n/a	n/a	0	0	0
3134.814	n/a	WORD	1567407	wordpools/wasnorm_wordpool_576.txt	LTP330	ltpFR2	6	14	FOOTBALL	591	n/a	n/a	0	0	0
3137.434	n/a	WORD	1568717	wordpools/wasnorm_wordpool_576.txt	LTP330	ltpFR2	6	14	COTTAGE	384	n/a	n/a	0	0	0
3139.984	n/a	WORD	1569992	wordpools/wasnorm_wordpool_576.txt	LTP330	ltpFR2	6	14	BRICK	172	n/a	n/a	0	0	0
3142.77	n/a	WORD	1571385	wordpools/wasnorm_wordpool_576.txt	LTP330	ltpFR2	6	14	WAITER	1580	n/a	n/a	0	0	0
3145.59	n/a	WORD	1572795	wordpools/wasnorm_wordpool_576.txt	LTP330	ltpFR2	6	14	SHORTCAKE	1292	n/a	n/a	0	0	0
3148.174	n/a	WORD	1574087	wordpools/wasnorm_wordpool_576.txt	LTP330	ltpFR2	6	14	LUNCH	849	n/a	n/a	0	0	0
3150.91	n/a	WORD	1575455	wordpools/wasnorm_wordpool_576.txt	LTP330	ltpFR2	6	14	GUARD	667	n/a	n/a	0	0	0
3153.714	n/a	WORD	1576857	wordpools/wasnorm_wordpool_576.txt	LTP330	ltpFR2	6	14	SEAGULL	1261	n/a	n/a	0	0	0
3156.448	n/a	WORD	1578224	wordpools/wasnorm_wordpool_576.txt	LTP330	ltpFR2	6	14	TEMPLE	1448	n/a	n/a	0	0	0
3159.118	n/a	WORD	1579559	wordpools/wasnorm_wordpool_576.txt	LTP330	ltpFR2	6	14	BLENDER	136	n/a	n/a	0	0	0
3161.886	n/a	WORD	1580943	wordpools/wasnorm_wordpool_576.txt	LTP330	ltpFR2	6	14	ARMY	39	n/a	n/a	0	0	0
3164.49	n/a	WORD	1582245	wordpools/wasnorm_wordpool_576.txt	LTP330	ltpFR2	6	14	PENGUIN	1044	n/a	n/a	0	0	0
3167.192	n/a	WORD	1583596	wordpools/wasnorm_wordpool_576.txt	LTP330	ltpFR2	6	14	PERFUME	1049	n/a	n/a	0	0	0
3169.794	n/a	WORD	1584897	wordpools/wasnorm_wordpool_576.txt	LTP330	ltpFR2	6	14	ELBOW	520	n/a	n/a	0	0	0
3172.262	n/a	WORD	1586131	wordpools/wasnorm_wordpool_576.txt	LTP330	ltpFR2	6	14	CHAPEL	280	n/a	n/a	0	0	0
3174.782	n/a	WORD	1587391	wordpools/wasnorm_wordpool_576.txt	LTP330	ltpFR2	6	14	STAKE	1368	n/a	n/a	0	0	0
3177.468	n/a	WORD	1588734	wordpools/wasnorm_wordpool_576.txt	LTP330	ltpFR2	6	14	RELISH	1183	n/a	n/a	0	0	0
3180.236	n/a	WORD	1590118	wordpools/wasnorm_wordpool_576.txt	LTP330	ltpFR2	6	14	DRAWING	494	n/a	n/a	0	0	0
3182.92	n/a	WORD	1591460	wordpools/wasnorm_wordpool_576.txt	LTP330	ltpFR2	6	14	CRUTCH	417	n/a	n/a	0	0	0
3185.558	n/a	WORD	1592779	wordpools/wasnorm_wordpool_576.txt	LTP330	ltpFR2	6	14	PLASTER	1085	n/a	n/a	0	0	0
3188.142	n/a	WORD	1594071	wordpools/wasnorm_wordpool_576.txt	LTP330	ltpFR2	6	14	PADDLE	1000	n/a	n/a	0	0	0
3190.728	n/a	WORD	1595364	wordpools/wasnorm_wordpool_576.txt	LTP330	ltpFR2	6	14	CRIB	407	n/a	n/a	0	0	0
3193.38	n/a	WORD	1596690	wordpools/wasnorm_wordpool_576.txt	LTP330	ltpFR2	6	14	CHILD	299	n/a	n/a	0	0	0
3194.998	n/a	START	1597499	n/a	LTP330	ltpFR2	6	n/a	n/a	n/a	21	n/a	n/a	n/a	n/a
3195.844	n/a	DISTRACTOR	1597922	n/a	LTP330	ltpFR2	6	14	n/a	n/a	n/a	n/a	0	0	0
3195.866	n/a	PROB	1597933	n/a	LTP330	ltpFR2	6	n/a	n/a	n/a	21	7	1	2	4
3198.068	n/a	PROB	1599034	n/a	LTP330	ltpFR2	6	n/a	n/a	n/a	21	23	7	8	8
3201.47	n/a	PROB	1600735	n/a	LTP330	ltpFR2	6	n/a	n/a	n/a	21	21	9	3	9
3203.456	n/a	PROB	1601728	n/a	LTP330	ltpFR2	6	n/a	n/a	n/a	21	14	6	5	3
3205.258	n/a	PROB	1602629	n/a	LTP330	ltpFR2	6	n/a	n/a	n/a	21	18	5	7	6
3208.944	n/a	PROB	1604472	n/a	LTP330	ltpFR2	6	n/a	n/a	n/a	21	14	5	1	8
3210.728	n/a	PROB	1605364	n/a	LTP330	ltpFR2	6	n/a	n/a	n/a	21	16	4	4	4
3213.348	n/a	PROB	1606674	n/a	LTP330	ltpFR2	6	n/a	n/a	n/a	21	16	7	6	3
3216.266	n/a	PROB	1608133	n/a	LTP330	ltpFR2	6	n/a	n/a	n/a	21	12	4	6	1
3218.818	n/a	STOP	1609409	n/a	LTP330	ltpFR2	6	n/a	n/a	n/a	21	n/a	n/a	n/a	n/a
3220.92	n/a	REC_START	1610460	n/a	LTP330	ltpFR2	6	14	n/a	n/a	n/a	n/a	0	0	0
3221.796	n/a	REC_WORD	1610898	wordpools/wasnorm_wordpool_576.txt	LTP330	ltpFR2	6	14	CRIB	407	n/a	n/a	0	0	0
3222.35	n/a	REC_WORD	1611175	wordpools/wasnorm_wordpool_576.txt	LTP330	ltpFR2	6	14	CHILD	299	n/a	n/a	0	0	0
3222.93	n/a	REC_WORD	1611465	wordpools/wasnorm_wordpool_576.txt	LTP330	ltpFR2	6	14	CHAPEL	280	n/a	n/a	0	0	0
3224.362	n/a	REC_WORD	1612181	wordpools/wasnorm_wordpool_576.txt	LTP330	ltpFR2	6	14	BRICK	172	n/a	n/a	0	0	0
3224.892	n/a	REC_WORD	1612446	wordpools/wasnorm_wordpool_576.txt	LTP330	ltpFR2	6	14	COTTAGE	384	n/a	n/a	0	0	0
3225.326	n/a	REC_WORD	1612663	wordpools/wasnorm_wordpool_576.txt	LTP330	ltpFR2	6	14	SEAGULL	1261	n/a	n/a	0	0	0
3226.038	n/a	REC_WORD	1613019	wordpools/wasnorm_wordpool_576.txt	LTP330	ltpFR2	6	14	TEMPLE	1448	n/a	n/a	0	0	0
3226.602	n/a	REC_WORD	1613301	wordpools/wasnorm_wordpool_576.txt	LTP330	ltpFR2	6	14	STAKE	1368	n/a	n/a	0	0	0
3227.332	n/a	REC_WORD	1613666	wordpools/wasnorm_wordpool_576.txt	LTP330	ltpFR2	6	14	RELISH	1183	n/a	n/a	0	0	0
3257.914	n/a	REC_WORD	1628957	wordpools/wasnorm_wordpool_576.txt	LTP330	ltpFR2	6	14	ARM	38	n/a	n/a	0	0	0
3265.866	n/a	REC_WORD	1632933	wordpools/wasnorm_wordpool_576.txt	LTP330	ltpFR2	6	14	DRAWING	494	n/a	n/a	0	0	0
3269.82	n/a	REC_WORD	1634910	wordpools/wasnorm_wordpool_576.txt	LTP330	ltpFR2	6	14	WAITER	1580	n/a	n/a	0	0	0
3274.548	n/a	REC_WORD	1637274	wordpools/wasnorm_wordpool_576.txt	LTP330	ltpFR2	6	14	LUNCH	849	n/a	n/a	0	0	0
3282.972	n/a	REC_WORD	1641486	wordpools/wasnorm_wordpool_576.txt	LTP330	ltpFR2	6	14	DINER	467	n/a	n/a	0	0	0
3311.582	n/a	WORD	1655791	wordpools/wasnorm_wordpool_576.txt	LTP330	ltpFR2	6	15	PLUTO	1092	n/a	n/a	0	0	0
3314.232	n/a	WORD	1657116	wordpools/wasnorm_wordpool_576.txt	LTP330	ltpFR2	6	15	NEUTRON	947	n/a	n/a	0	0	0
3316.768	n/a	WORD	1658384	wordpools/wasnorm_wordpool_576.txt	LTP330	ltpFR2	6	15	TWEEZERS	1526	n/a	n/a	0	0	0
3319.286	n/a	WORD	1659643	wordpools/wasnorm_wordpool_576.txt	LTP330	ltpFR2	6	15	CASHIER	254	n/a	n/a	0	0	0
3321.99	n/a	WORD	1660995	wordpools/wasnorm_wordpool_576.txt	LTP330	ltpFR2	6	15	HUMAN	726	n/a	n/a	0	0	0
3324.808	n/a	WORD	1662404	wordpools/wasnorm_wordpool_576.txt	LTP330	ltpFR2	6	15	COCOON	339	n/a	n/a	0	0	0
3327.394	n/a	WORD	1663697	wordpools/wasnorm_wordpool_576.txt	LTP330	ltpFR2	6	15	BUG	187	n/a	n/a	0	0	0
3329.912	n/a	WORD	1664956	wordpools/wasnorm_wordpool_576.txt	LTP330	ltpFR2	6	15	SANDWICH	1232	n/a	n/a	0	0	0
3332.6	n/a	WORD	1666300	wordpools/wasnorm_wordpool_576.txt	LTP330	ltpFR2	6	15	TRACTOR	1493	n/a	n/a	0	0	0
3335.334	n/a	WORD	1667667	wordpools/wasnorm_wordpool_576.txt	LTP330	ltpFR2	6	15	CHIPMUNK	304	n/a	n/a	0	0	0
3338.104	n/a	WORD	1669052	wordpools/wasnorm_wordpool_576.txt	LTP330	ltpFR2	6	15	CHEST	295	n/a	n/a	0	0	0
3340.588	n/a	WORD	1670294	wordpools/wasnorm_wordpool_576.txt	LTP330	ltpFR2	6	15	KETCHUP	771	n/a	n/a	0	0	0
3343.274	n/a	WORD	1671637	wordpools/wasnorm_wordpool_576.txt	LTP330	ltpFR2	6	15	VIRUS	1572	n/a	n/a	0	0	0
3345.858	n/a	WORD	1672929	wordpools/wasnorm_wordpool_576.txt	LTP330	ltpFR2	6	15	PARTNER	1017	n/a	n/a	0	0	0
3348.646	n/a	WORD	1674323	wordpools/wasnorm_wordpool_576.txt	LTP330	ltpFR2	6	15	FLAG	573	n/a	n/a	0	0	0
3351.33	n/a	WORD	1675665	wordpools/wasnorm_wordpool_576.txt	LTP330	ltpFR2	6	15	MARKER	870	n/a	n/a	0	0	0
3353.932	n/a	WORD	1676966	wordpools/wasnorm_wordpool_576.txt	LTP330	ltpFR2	6	15	PANTHER	1009	n/a	n/a	0	0	0
3356.368	n/a	WORD	1678184	wordpools/wasnorm_wordpool_576.txt	LTP330	ltpFR2	6	15	BEEF	113	n/a	n/a	0	0	0
3359.104	n/a	WORD	1679552	wordpools/wasnorm_wordpool_576.txt	LTP330	ltpFR2	6	15	BASEMENT	94	n/a	n/a	0	0	0
3361.756	n/a	WORD	1680878	wordpools/wasnorm_wordpool_576.txt	LTP330	ltpFR2	6	15	DORM	488	n/a	n/a	0	0	0
3364.476	n/a	WORD	1682238	wordpools/wasnorm_wordpool_576.txt	LTP330	ltpFR2	6	15	COUSIN	392	n/a	n/a	0	0	0
3367.128	n/a	WORD	1683564	wordpools/wasnorm_wordpool_576.txt	LTP330	ltpFR2	6	15	MUSTARD	935	n/a	n/a	0	0	0
3369.946	n/a	WORD	1684973	wordpools/wasnorm_wordpool_576.txt	LTP330	ltpFR2	6	15	JURY	766	n/a	n/a	0	0	0
3372.782	n/a	WORD	1686391	wordpools/wasnorm_wordpool_576.txt	LTP330	ltpFR2	6	15	JUDGE	761	n/a	n/a	0	0	0
3374.4	n/a	START	1687200	n/a	LTP330	ltpFR2	6	n/a	n/a	n/a	22	n/a	n/a	n/a	n/a
3375.25	n/a	DISTRACTOR	1687625	n/a	LTP330	ltpFR2	6	15	n/a	n/a	n/a	n/a	0	0	0
3375.268	n/a	PROB	1687634	n/a	LTP330	ltpFR2	6	n/a	n/a	n/a	22	13	3	4	6
3376.97	n/a	PROB	1688485	n/a	LTP330	ltpFR2	6	n/a	n/a	n/a	22	23	5	9	8
3379.438	n/a	PROB	1689719	n/a	LTP330	ltpFR2	6	n/a	n/a	n/a	22	14	4	1	9
3380.856	n/a	PROB	1690428	n/a	LTP330	ltpFR2	6	n/a	n/a	n/a	22	15	2	6	7
3382.692	n/a	PROB	1691346	n/a	LTP330	ltpFR2	6	n/a	n/a	n/a	22	14	3	6	5
3384.626	n/a	PROB	1692313	n/a	LTP330	ltpFR2	6	n/a	n/a	n/a	22	15	7	1	7
3386.694	n/a	PROB	1693347	n/a	LTP330	ltpFR2	6	n/a	n/a	n/a	22	9	5	2	2
3389.446	n/a	PROB	1694723	n/a	LTP330	ltpFR2	6	n/a	n/a	n/a	22	22	9	9	4
3391.214	n/a	PROB	1695607	n/a	LTP330	ltpFR2	6	n/a	n/a	n/a	22	18	2	9	7
3394.066	n/a	PROB	1697033	n/a	LTP330	ltpFR2	6	n/a	n/a	n/a	22	17	9	4	4
3395.668	n/a	PROB	1697834	n/a	LTP330	ltpFR2	6	n/a	n/a	n/a	22	16	3	4	9
3397.196	n/a	STOP	1698598	n/a	LTP330	ltpFR2	6	n/a	n/a	n/a	22	n/a	n/a	n/a	n/a
3400.356	n/a	REC_START	1700178	n/a	LTP330	ltpFR2	6	15	n/a	n/a	n/a	n/a	0	0	0
3401.182	n/a	REC_WORD	1700591	wordpools/wasnorm_wordpool_576.txt	LTP330	ltpFR2	6	15	BASEMENT	94	n/a	n/a	0	0	0
3401.722	n/a	REC_WORD	1700861	wordpools/wasnorm_wordpool_576.txt	LTP330	ltpFR2	6	15	DORM	488	n/a	n/a	0	0	0
3402.276	n/a	REC_WORD	1701138	wordpools/wasnorm_wordpool_576.txt	LTP330	ltpFR2	6	15	KETCHUP	771	n/a	n/a	0	0	0
3403.614	n/a	REC_WORD	1701807	wordpools/wasnorm_wordpool_576.txt	LTP330	ltpFR2	6	15	MUSTARD	935	n/a	n/a	0	0	0
3404.634	n/a	REC_WORD	1702317	wordpools/wasnorm_wordpool_576.txt	LTP330	ltpFR2	6	15	SANDWICH	1232	n/a	n/a	0	0	0
3405.434	n/a	REC_WORD	1702717	wordpools/wasnorm_wordpool_576.txt	LTP330	ltpFR2	6	15	BEEF	113	n/a	n/a	0	0	0
3408.224	n/a	REC_WORD	1704112	wordpools/wasnorm_wordpool_576.txt	LTP330	ltpFR2	6	15	COUSIN	392	n/a	n/a	0	0	0
3409.22	n/a	REC_WORD	1704610	wordpools/wasnorm_wordpool_576.txt	LTP330	ltpFR2	6	15	PARTNER	1017	n/a	n/a	0	0	0
3411.418	n/a	REC_WORD	1705709	wordpools/wasnorm_wordpool_576.txt	LTP330	ltpFR2	6	15	TWEEZERS	1526	n/a	n/a	0	0	0
3412.548	n/a	REC_WORD	1706274	wordpools/wasnorm_wordpool_576.txt	LTP330	ltpFR2	6	15	PLUTO	1092	n/a	n/a	0	0	0
3415.514	n/a	REC_WORD	1707757	wordpools/wasnorm_wordpool_576.txt	LTP330	ltpFR2	6	15	HUMAN	726	n/a	n/a	0	0	0
3416.83	n/a	REC_WORD	1708415	wordpools/wasnorm_wordpool_576.txt	LTP330	ltpFR2	6	15	VIRUS	1572	n/a	n/a	0	0	0
3423.474	n/a	REC_WORD	1711737	wordpools/wasnorm_wordpool_576.txt	LTP330	ltpFR2	6	15	CHEST	295	n/a	n/a	0	0	0
3425.684	n/a	REC_WORD	1712842	wordpools/wasnorm_wordpool_576.txt	LTP330	ltpFR2	6	15	PATIENT	1024	n/a	n/a	0	0	0
3432.802	n/a	REC_WORD	1716401	wordpools/wasnorm_wordpool_576.txt	LTP330	ltpFR2	6	15	JUDGE	761	n/a	n/a	0	0	0
3449.126	n/a	REC_WORD	1724563	wordpools/wasnorm_wordpool_576.txt	LTP330	ltpFR2	6	15	BUG	187	n/a	n/a	0	0	0
3456.536	n/a	REC_WORD	1728268	wordpools/wasnorm_wordpool_576.txt	LTP330	ltpFR2	6	15	PLUTO	1092	n/a	n/a	0	0	0
3464.588	n/a	REC_WORD	1732294	wordpools/wasnorm_wordpool_576.txt	LTP330	ltpFR2	6	15	SPACE	1345	n/a	n/a	0	0	0
3491.0	n/a	WORD	1745500	wordpools/wasnorm_wordpool_576.txt	LTP330	ltpFR2	6	16	CATCHER	258	n/a	n/a	0	0	0
3493.468	n/a	WORD	1746734	wordpools/wasnorm_wordpool_576.txt	LTP330	ltpFR2	6	16	VALLEY	1545	n/a	n/a	0	0	0
3495.936	n/a	WORD	1747968	wordpools/wasnorm_wordpool_576.txt	LTP330	ltpFR2	6	16	TOURIST	1488	n/a	n/a	0	0	0
3498.674	n/a	WORD	1749337	wordpools/wasnorm_wordpool_576.txt	LTP330	ltpFR2	6	16	BREAST	171	n/a	n/a	0	0	0
3501.458	n/a	WORD	1750729	wordpools/wasnorm_wordpool_576.txt	LTP330	ltpFR2	6	16	MACHINE	852	n/a	n/a	0	0	0
3504.16	n/a	WORD	1752080	wordpools/wasnorm_wordpool_576.txt	LTP330	ltpFR2	6	16	OINTMENT	974	n/a	n/a	0	0	0
3506.896	n/a	WORD	1753448	wordpools/wasnorm_wordpool_576.txt	LTP330	ltpFR2	6	16	HARP	689	n/a	n/a	0	0	0
3509.498	n/a	WORD	1754749	wordpools/wasnorm_wordpool_576.txt	LTP330	ltpFR2	6	16	SILK	1307	n/a	n/a	0	0	0
3512.15	n/a	WORD	1756075	wordpools/wasnorm_wordpool_576.txt	LTP330	ltpFR2	6	16	COD	340	n/a	n/a	0	0	0
3514.818	n/a	WORD	1757409	wordpools/wasnorm_wordpool_576.txt	LTP330	ltpFR2	6	16	GLOVE	642	n/a	n/a	0	0	0
3517.64	n/a	WORD	1758820	wordpools/wasnorm_wordpool_576.txt	LTP330	ltpFR2	6	16	GIRL	637	n/a	n/a	0	0	0
3520.274	n/a	WORD	1760137	wordpools/wasnorm_wordpool_576.txt	LTP330	ltpFR2	6	16	WOMAN	1620	n/a	n/a	0	0	0
3522.792	n/a	WORD	1761396	wordpools/wasnorm_wordpool_576.txt	LTP330	ltpFR2	6	16	LADDER	793	n/a	n/a	0	0	0
3525.494	n/a	WORD	1762747	wordpools/wasnorm_wordpool_576.txt	LTP330	ltpFR2	6	16	SERVER	1272	n/a	n/a	0	0	0
3528.13	n/a	WORD	1764065	wordpools/wasnorm_wordpool_576.txt	LTP330	ltpFR2	6	16	TUBA	1515	n/a	n/a	0	0	0
3530.584	n/a	WORD	1765292	wordpools/wasnorm_wordpool_576.txt	LTP330	ltpFR2	6	16	POSSUM	1112	n/a	n/a	0	0	0
3533.336	n/a	WORD	1766668	wordpools/wasnorm_wordpool_576.txt	LTP330	ltpFR2	6	16	MAMMAL	861	n/a	n/a	0	0	0
3535.97	n/a	WORD	1767985	wordpools/wasnorm_wordpool_576.txt	LTP330	ltpFR2	6	16	BACON	67	n/a	n/a	0	0	0
3538.608	n/a	WORD	1769304	wordpools/wasnorm_wordpool_576.txt	LTP330	ltpFR2	6	16	OMELET	976	n/a	n/a	0	0	0
3541.208	n/a	WORD	1770604	wordpools/wasnorm_wordpool_576.txt	LTP330	ltpFR2	6	16	SHIRT	1287	n/a	n/a	0	0	0
3543.86	n/a	WORD	1771930	wordpools/wasnorm_wordpool_576.txt	LTP330	ltpFR2	6	16	TURKEY	1520	n/a	n/a	0	0	0
3546.328	n/a	WORD	1773164	wordpools/wasnorm_wordpool_576.txt	LTP330	ltpFR2	6	16	CEILING	265	n/a	n/a	0	0	0
3549.148	n/a	WORD	1774574	wordpools/wasnorm_wordpool_576.txt	LTP330	ltpFR2	6	16	FRIEND	606	n/a	n/a	0	0	0
3551.6	n/a	WORD	1775800	wordpools/wasnorm_wordpool_576.txt	LTP330	ltpFR2	6	16	DRILL	497	n/a	n/a	0	0	0
3553.218	n/a	START	1776609	n/a	LTP330	ltpFR2	6	n/a	n/a	n/a	23	n/a	n/a	n/a	n/a
3554.038	n/a	DISTRACTOR	1777019	n/a	LTP330	ltpFR2	6	16	n/a	n/a	n/a	n/a	0	0	0
3554.068	n/a	PROB	1777034	n/a	LTP330	ltpFR2	6	n/a	n/a	n/a	23	19	4	8	7
3556.638	n/a	PROB	1778319	n/a	LTP330	ltpFR2	6	n/a	n/a	n/a	23	17	3	6	8
3560.174	n/a	PROB	1780087	n/a	LTP330	ltpFR2	6	n/a	n/a	n/a	23	16	5	6	5
3561.644	n/a	PROB	1780822	n/a	LTP330	ltpFR2	6	n/a	n/a	n/a	23	24	8	8	9
3565.078	n/a	PROB	1782539	n/a	LTP330	ltpFR2	6	n/a	n/a	n/a	23	13	3	5	5
3566.462	n/a	PROB	1783231	n/a	LTP330	ltpFR2	6	n/a	n/a	n/a	23	20	5	8	7
3568.582	n/a	PROB	1784291	n/a	LTP330	ltpFR2	6	n/a	n/a	n/a	23	15	5	9	1
3570.066	n/a	PROB	1785033	n/a	LTP330	ltpFR2	6	n/a	n/a	n/a	23	18	4	8	6
3572.184	n/a	PROB	1786092	n/a	LTP330	ltpFR2	6	n/a	n/a	n/a	23	17	9	2	6
3574.02	n/a	PROB	1787010	n/a	LTP330	ltpFR2	6	n/a	n/a	n/a	23	17	7	4	6
3576.28	n/a	STOP	1788140	n/a	LTP330	ltpFR2	6	n/a	n/a	n/a	23	n/a	n/a	n/a	n/a
3579.124	n/a	REC_START	1789562	n/a	LTP330	ltpFR2	6	16	n/a	n/a	n/a	n/a	0	0	0
3580.3	n/a	REC_WORD	1790150	wordpools/wasnorm_wordpool_576.txt	LTP330	ltpFR2	6	16	WOMAN	1620	n/a	n/a	0	0	0
3580.954	n/a	REC_WORD	1790477	wordpools/wasnorm_wordpool_576.txt	LTP330	ltpFR2	6	16	GIRL	637	n/a	n/a	0	0	0
3581.654	n/a	REC_WORD	1790827	wordpools/wasnorm_wordpool_576.txt	LTP330	ltpFR2	6	16	BREAST	171	n/a	n/a	0	0	0
3582.354	n/a	REC_WORD	1791177	wordpools/wasnorm_wordpool_576.txt	LTP330	ltpFR2	6	16	MACHINE	852	n/a	n/a	0	0	0
3583.354	n/a	REC_WORD	1791677	wordpools/wasnorm_wordpool_576.txt	LTP330	ltpFR2	6	16	OINTMENT	974	n/a	n/a	0	0	0
3585.954	n/a	REC_WORD	1792977	wordpools/wasnorm_wordpool_576.txt	LTP330	ltpFR2	6	16	SILK	1307	n/a	n/a	0	0	0
3586.83	n/a	REC_WORD	1793415	wordpools/wasnorm_wordpool_576.txt	LTP330	ltpFR2	6	16	GLOVE	642	n/a	n/a	0	0	0
3593.602	n/a	REC_WORD	1796801	wordpools/wasnorm_wordpool_576.txt	LTP330	ltpFR2	6	16	CHEST	295	n/a	n/a	0	0	0
3602.476	n/a	REC_WORD	1801238	wordpools/wasnorm_wordpool_576.txt	LTP330	ltpFR2	6	16	POSSUM	1112	n/a	n/a	0	0	0
3621.516	n/a	REC_WORD	1810758	wordpools/wasnorm_wordpool_576.txt	LTP330	ltpFR2	6	16	BACON	67	n/a	n/a	0	0	0
3625.97	n/a	REC_WORD	1812985	wordpools/wasnorm_wordpool_576.txt	LTP330	ltpFR2	6	16	OMELET	976	n/a	n/a	0	0	0
3629.65	n/a	REC_WORD	1814825	wordpools/wasnorm_wordpool_576.txt	LTP330	ltpFR2	6	16	MAMMAL	861	n/a	n/a	0	0	0
3641.79	n/a	REC_WORD	1820895	wordpools/wasnorm_wordpool_576.txt	LTP330	ltpFR2	6	16	SHIRT	1287	n/a	n/a	0	0	0
3649.258	n/a	REC_WORD	1824629	wordpools/wasnorm_wordpool_576.txt	LTP330	ltpFR2	6	16	MATTRESS	879	n/a	n/a	0	0	0
3655.656	n/a	REST_REWET	1827828	n/a	LTP330	ltpFR2	6	16	n/a	n/a	n/a	n/a	0	0	0
3967.77	n/a	WORD	1983885	wordpools/wasnorm_wordpool_576.txt	LTP330	ltpFR2	6	17	SALAD	1224	n/a	n/a	0	0	0
3970.54	n/a	WORD	1985270	wordpools/wasnorm_wordpool_576.txt	LTP330	ltpFR2	6	17	FUNGUS	614	n/a	n/a	0	0	0
3973.058	n/a	WORD	1986529	wordpools/wasnorm_wordpool_576.txt	LTP330	ltpFR2	6	17	ISLAND	745	n/a	n/a	0	0	0
3975.51	n/a	WORD	1987755	wordpools/wasnorm_wordpool_576.txt	LTP330	ltpFR2	6	17	SKIRT	1319	n/a	n/a	0	0	0
3977.978	n/a	WORD	1988989	wordpools/wasnorm_wordpool_576.txt	LTP330	ltpFR2	6	17	NECKLACE	940	n/a	n/a	0	0	0
3980.632	n/a	WORD	1990316	wordpools/wasnorm_wordpool_576.txt	LTP330	ltpFR2	6	17	SCARECROW	1245	n/a	n/a	0	0	0
3983.45	n/a	WORD	1991725	wordpools/wasnorm_wordpool_576.txt	LTP330	ltpFR2	6	17	BLOUSE	139	n/a	n/a	0	0	0
3986.286	n/a	WORD	1993143	wordpools/wasnorm_wordpool_576.txt	LTP330	ltpFR2	6	17	CAMEL	223	n/a	n/a	0	0	0
3989.12	n/a	WORD	1994560	wordpools/wasnorm_wordpool_576.txt	LTP330	ltpFR2	6	17	SPOUSE	1358	n/a	n/a	0	0	0
3991.756	n/a	WORD	1995878	wordpools/wasnorm_wordpool_576.txt	LTP330	ltpFR2	6	17	WIFE	1609	n/a	n/a	0	0	0
3994.308	n/a	WORD	1997154	wordpools/wasnorm_wordpool_576.txt	LTP330	ltpFR2	6	17	POLICE	1098	n/a	n/a	0	0	0
3996.978	n/a	WORD	1998489	wordpools/wasnorm_wordpool_576.txt	LTP330	ltpFR2	6	17	PEBBLE	1035	n/a	n/a	0	0	0
3999.496	n/a	WORD	1999748	wordpools/wasnorm_wordpool_576.txt	LTP330	ltpFR2	6	17	CHURCH	307	n/a	n/a	0	0	0
4002.166	n/a	WORD	2001083	wordpools/wasnorm_wordpool_576.txt	LTP330	ltpFR2	6	17	FIREMAN	569	n/a	n/a	0	0	0
4004.734	n/a	WORD	2002367	wordpools/wasnorm_wordpool_576.txt	LTP330	ltpFR2	6	17	RAFT	1159	n/a	n/a	0	0	0
4007.47	n/a	WORD	2003735	wordpools/wasnorm_wordpool_576.txt	LTP330	ltpFR2	6	17	CONVICT	371	n/a	n/a	0	0	0
4010.238	n/a	WORD	2005119	wordpools/wasnorm_wordpool_576.txt	LTP330	ltpFR2	6	17	LIVER	833	n/a	n/a	0	0	0
4012.974	n/a	WORD	2006487	wordpools/wasnorm_wordpool_576.txt	LTP330	ltpFR2	6	17	WHISTLE	1606	n/a	n/a	0	0	0
4015.81	n/a	WORD	2007905	wordpools/wasnorm_wordpool_576.txt	LTP330	ltpFR2	6	17	PISTON	1076	n/a	n/a	0	0	0
4018.33	n/a	WORD	2009165	wordpools/wasnorm_wordpool_576.txt	LTP330	ltpFR2	6	17	BUBBLE	183	n/a	n/a	0	0	0
4020.832	n/a	WORD	2010416	wordpools/wasnorm_wordpool_576.txt	LTP330	ltpFR2	6	17	LILY	821	n/a	n/a	0	0	0
4023.384	n/a	WORD	2011692	wordpools/wasnorm_wordpool_576.txt	LTP330	ltpFR2	6	17	HELMET	702	n/a	n/a	0	0	0
4026.17	n/a	WORD	2013085	wordpools/wasnorm_wordpool_576.txt	LTP330	ltpFR2	6	17	HAMPER	682	n/a	n/a	0	0	0
4028.754	n/a	WORD	2014377	wordpools/wasnorm_wordpool_576.txt	LTP330	ltpFR2	6	17	SUITCASE	1403	n/a	n/a	0	0	0
4030.372	n/a	START	2015186	n/a	LTP330	ltpFR2	6	n/a	n/a	n/a	24	n/a	n/a	n/a	n/a
4031.466	n/a	DISTRACTOR	2015733	n/a	LTP330	ltpFR2	6	17	n/a	n/a	n/a	n/a	0	0	0
4031.49	n/a	PROB	2015745	n/a	LTP330	ltpFR2	6	n/a	n/a	n/a	24	18	2	8	8
4035.21	n/a	PROB	2017605	n/a	LTP330	ltpFR2	6	n/a	n/a	n/a	24	23	7	9	5
4039.03	n/a	PROB	2019515	n/a	LTP330	ltpFR2	6	n/a	n/a	n/a	24	7	3	2	2
4041.782	n/a	PROB	2020891	n/a	LTP330	ltpFR2	6	n/a	n/a	n/a	24	15	4	7	4
4043.8	n/a	PROB	2021900	n/a	LTP330	ltpFR2	6	n/a	n/a	n/a	24	14	2	7	5
4046.52	n/a	PROB	2023260	n/a	LTP330	ltpFR2	6	n/a	n/a	n/a	24	9	3	4	2
4049.356	n/a	PROB	2024678	n/a	LTP330	ltpFR2	6	n/a	n/a	n/a	24	15	5	6	4
4051.174	n/a	PROB	2025587	n/a	LTP330	ltpFR2	6	n/a	n/a	n/a	24	1	4	2	8
4053.086	n/a	STOP	2026543	n/a	LTP330	ltpFR2	6	n/a	n/a	n/a	24	n/a	n/a	n/a	n/a
4056.262	n/a	REC_START	2028131	n/a	LTP330	ltpFR2	6	17	n/a	n/a	n/a	n/a	0	0	0
4056.922	n/a	REC_WORD	2028461	wordpools/wasnorm_wordpool_576.txt	LTP330	ltpFR2	6	17	SUITCASE	1403	n/a	n/a	0	0	0
4057.852	n/a	REC_WORD	2028926	wordpools/wasnorm_wordpool_576.txt	LTP330	ltpFR2	6	17	NECKLACE	940	n/a	n/a	0	0	0
4058.612	n/a	REC_WORD	2029306	wordpools/wasnorm_wordpool_576.txt	LTP330	ltpFR2	6	17	SKIRT	1319	n/a	n/a	0	0	0
4059.458	n/a	REC_WORD	2029729	wordpools/wasnorm_wordpool_576.txt	LTP330	ltpFR2	6	17	BLOUSE	139	n/a	n/a	0	0	0
4060.228	n/a	REC_WORD	2030114	wordpools/wasnorm_wordpool_576.txt	LTP330	ltpFR2	6	17	WIFE	1609	n/a	n/a	0	0	0
4061.542	n/a	REC_WORD	2030771	wordpools/wasnorm_wordpool_576.txt	LTP330	ltpFR2	6	17	SPOUSE	1358	n/a	n/a	0	0	0
4064.678	n/a	REC_WORD	2032339	wordpools/wasnorm_wordpool_576.txt	LTP330	ltpFR2	6	17	PEBBLE	1035	n/a	n/a	0	0	0
4068.428	n/a	REC_WORD	2034214	wordpools/wasnorm_wordpool_576.txt	LTP330	ltpFR2	6	17	FIREMAN	569	n/a	n/a	0	0	0
4069.178	n/a	REC_WORD	2034589	wordpools/wasnorm_wordpool_576.txt	LTP330	ltpFR2	6	17	POLICE	1098	n/a	n/a	0	0	0
4070.318	n/a	REC_WORD	2035159	wordpools/wasnorm_wordpool_576.txt	LTP330	ltpFR2	6	17	WHISTLE	1606	n/a	n/a	0	0	0
4146.738	n/a	WORD	2073369	wordpools/wasnorm_wordpool_576.txt	LTP330	ltpFR2	6	18	DONKEY	484	n/a	n/a	0	0	0
4149.524	n/a	WORD	2074762	wordpools/wasnorm_wordpool_576.txt	LTP330	ltpFR2	6	18	DAISY	435	n/a	n/a	0	0	0
4152.026	n/a	WORD	2076013	wordpools/wasnorm_wordpool_576.txt	LTP330	ltpFR2	6	18	LIZARD	834	n/a	n/a	0	0	0
4154.76	n/a	WORD	2077380	wordpools/wasnorm_wordpool_576.txt	LTP330	ltpFR2	6	18	THREAD	1460	n/a	n/a	0	0	0
4157.58	n/a	WORD	2078790	wordpools/wasnorm_wordpool_576.txt	LTP330	ltpFR2	6	18	PASTA	1021	n/a	n/a	0	0	0
4160.266	n/a	WORD	2080133	wordpools/wasnorm_wordpool_576.txt	LTP330	ltpFR2	6	18	DOUGHNUT	490	n/a	n/a	0	0	0
4162.768	n/a	WORD	2081384	wordpools/wasnorm_wordpool_576.txt	LTP330	ltpFR2	6	18	NOMAD	955	n/a	n/a	0	0	0
4165.486	n/a	WORD	2082743	wordpools/wasnorm_wordpool_576.txt	LTP330	ltpFR2	6	18	PATIENT	1024	n/a	n/a	0	0	0
4168.172	n/a	WORD	2084086	wordpools/wasnorm_wordpool_576.txt	LTP330	ltpFR2	6	18	CASKET	255	n/a	n/a	0	0	0
4170.874	n/a	WORD	2085437	wordpools/wasnorm_wordpool_576.txt	LTP330	ltpFR2	6	18	GRAVE	658	n/a	n/a	0	0	0
4173.678	n/a	WORD	2086839	wordpools/wasnorm_wordpool_576.txt	LTP330	ltpFR2	6	18	VAGRANT	1544	n/a	n/a	0	0	0
4176.48	n/a	WORD	2088240	wordpools/wasnorm_wordpool_576.txt	LTP330	ltpFR2	6	18	SODA	1341	n/a	n/a	0	0	0
4178.932	n/a	WORD	2089466	wordpools/wasnorm_wordpool_576.txt	LTP330	ltpFR2	6	18	CANAL	226	n/a	n/a	0	0	0
4181.586	n/a	WORD	2090793	wordpools/wasnorm_wordpool_576.txt	LTP330	ltpFR2	6	18	SALT	1229	n/a	n/a	0	0	0
4184.336	n/a	WORD	2092168	wordpools/wasnorm_wordpool_576.txt	LTP330	ltpFR2	6	18	BARLEY	88	n/a	n/a	0	0	0
4186.906	n/a	WORD	2093453	wordpools/wasnorm_wordpool_576.txt	LTP330	ltpFR2	6	18	PEACH	1031	n/a	n/a	0	0	0
4189.592	n/a	WORD	2094796	wordpools/wasnorm_wordpool_576.txt	LTP330	ltpFR2	6	18	YARN	1631	n/a	n/a	0	0	0
4192.026	n/a	WORD	2096013	wordpools/wasnorm_wordpool_576.txt	LTP330	ltpFR2	6	18	TRENCH	1503	n/a	n/a	0	0	0
4194.694	n/a	WORD	2097347	wordpools/wasnorm_wordpool_576.txt	LTP330	ltpFR2	6	18	BRANCH	168	n/a	n/a	0	0	0
4197.364	n/a	WORD	2098682	wordpools/wasnorm_wordpool_576.txt	LTP330	ltpFR2	6	18	BRANDY	169	n/a	n/a	0	0	0
4200.15	n/a	WORD	2100075	wordpools/wasnorm_wordpool_576.txt	LTP330	ltpFR2	6	18	CLIMBER	323	n/a	n/a	0	0	0
4202.886	n/a	WORD	2101443	wordpools/wasnorm_wordpool_576.txt	LTP330	ltpFR2	6	18	TROUT	1511	n/a	n/a	0	0	0
4205.672	n/a	WORD	2102836	wordpools/wasnorm_wordpool_576.txt	LTP330	ltpFR2	6	18	KEEPER	769	n/a	n/a	0	0	0
4208.156	n/a	WORD	2104078	wordpools/wasnorm_wordpool_576.txt	LTP330	ltpFR2	6	18	AWARD	63	n/a	n/a	0	0	0
4209.774	n/a	START	2104887	n/a	LTP330	ltpFR2	6	n/a	n/a	n/a	25	n/a	n/a	n/a	n/a
4210.746	n/a	DISTRACTOR	2105373	n/a	LTP330	ltpFR2	6	18	n/a	n/a	n/a	n/a	0	0	0
4210.758	n/a	PROB	2105379	n/a	LTP330	ltpFR2	6	n/a	n/a	n/a	25	16	2	8	6
4214.812	n/a	PROB	2107406	n/a	LTP330	ltpFR2	6	n/a	n/a	n/a	25	18	2	9	7
4217.148	n/a	PROB	2108574	n/a	LTP330	ltpFR2	6	n/a	n/a	n/a	25	19	5	5	9
4218.416	n/a	PROB	2109208	n/a	LTP330	ltpFR2	6	n/a	n/a	n/a	25	9	5	3	1
4219.9	n/a	PROB	2109950	n/a	LTP330	ltpFR2	6	n/a	n/a	n/a	25	14	8	3	3
4221.57	n/a	PROB	2110785	n/a	LTP330	ltpFR2	6	n/a	n/a	n/a	25	13	5	7	1
4223.936	n/a	PROB	2111968	n/a	LTP330	ltpFR2	6	n/a	n/a	n/a	25	11	3	3	5
4225.622	n/a	PROB	2112811	n/a	LTP330	ltpFR2	6	n/a	n/a	n/a	25	1	1	7	5
4228.508	n/a	PROB	2114254	n/a	LTP330	ltpFR2	6	n/a	n/a	n/a	25	19	9	6	4
4230.408	n/a	PROB	2115204	n/a	LTP330	ltpFR2	6	n/a	n/a	n/a	25	12	1	5	6
4233.772	n/a	STOP	2116886	n/a	LTP330	ltpFR2	6	n/a	n/a	n/a	25	n/a	n/a	n/a	n/a
4235.68	n/a	REC_START	2117840	n/a	LTP330	ltpFR2	6	18	n/a	n/a	n/a	n/a	0	0	0
4240.39	n/a	REC_WORD	2120195	wordpools/wasnorm_wordpool_576.txt	LTP330	ltpFR2	6	18	PASTA	1021	n/a	n/a	0	0	0
4240.934	n/a	REC_WORD	2120467	wordpools/wasnorm_wordpool_576.txt	LTP330	ltpFR2	6	18	DOUGHNUT	490	n/a	n/a	0	0	0
4241.444	n/a	REC_WORD	2120722	wordpools/wasnorm_wordpool_576.txt	LTP330	ltpFR2	6	18	THREAD	1460	n/a	n/a	0	0	0
4245.708	n/a	REC_WORD	2122854	wordpools/wasnorm_wordpool_576.txt	LTP330	ltpFR2	6	18	SPOOL	1356	n/a	n/a	0	0	0
4251.348	n/a	REC_WORD	2125674	wordpools/wasnorm_wordpool_576.txt	LTP330	ltpFR2	6	18	SODA	1341	n/a	n/a	0	0	0
4252.618	n/a	REC_WORD	2126309	wordpools/wasnorm_wordpool_576.txt	LTP330	ltpFR2	6	18	NOMAD	955	n/a	n/a	0	0	0
4253.128	n/a	REC_WORD	2126564	wordpools/wasnorm_wordpool_576.txt	LTP330	ltpFR2	6	18	VAGRANT	1544	n/a	n/a	0	0	0
4274.674	n/a	REC_WORD	2137337	wordpools/wasnorm_wordpool_576.txt	LTP330	ltpFR2	6	18	DONKEY	484	n/a	n/a	0	0	0
4326.14	n/a	DISTRACTOR	2163070	n/a	LTP330	ltpFR2	6	19	n/a	n/a	n/a	n/a	0	0	0
4326.14	n/a	START	2163070	n/a	LTP330	ltpFR2	6	n/a	n/a	n/a	26	n/a	n/a	n/a	n/a
4326.156	n/a	PROB	2163078	n/a	LTP330	ltpFR2	6	n/a	n/a	n/a	26	12	8	2	2
4327.758	n/a	PROB	2163879	n/a	LTP330	ltpFR2	6	n/a	n/a	n/a	26	8	1	1	6
4329.192	n/a	PROB	2164596	n/a	LTP330	ltpFR2	6	n/a	n/a	n/a	26	16	3	4	9
4331.144	n/a	PROB	2165572	n/a	LTP330	ltpFR2	6	n/a	n/a	n/a	26	18	6	5	7
4334.064	n/a	PROB	2167032	n/a	LTP330	ltpFR2	6	n/a	n/a	n/a	26	13	4	3	5
4336.132	n/a	PROB	2168066	n/a	LTP330	ltpFR2	6	n/a	n/a	n/a	26	19	2	9	8
4338.602	n/a	PROB	2169301	n/a	LTP330	ltpFR2	6	n/a	n/a	n/a	26	8	2	4	2
4340.536	n/a	PROB	2170268	n/a	LTP330	ltpFR2	6	n/a	n/a	n/a	26	18	2	9	7
4342.82	n/a	PROB	2171410	n/a	LTP330	ltpFR2	6	n/a	n/a	n/a	26	16	3	6	7
4344.488	n/a	PROB	2172244	n/a	LTP330	ltpFR2	6	n/a	n/a	n/a	26	15	8	6	5
4350.14	n/a	STOP	2175070	n/a	LTP330	ltpFR2	6	n/a	n/a	n/a	26	n/a	n/a	n/a	n/a
4351.128	n/a	WORD	2175564	wordpools/wasnorm_wordpool_576.txt	LTP330	ltpFR2	6	19	OUTFIT	988	n/a	n/a	0	0	0
4353.664	n/a	WORD	2176832	wordpools/wasnorm_wordpool_576.txt	LTP330	ltpFR2	6	19	WORKER	1621	n/a	n/a	0	0	0
4356.382	n/a	WORD	2178191	wordpools/wasnorm_wordpool_576.txt	LTP330	ltpFR2	6	19	FLEET	578	n/a	n/a	0	0	0
4359.2	n/a	WORD	2179600	wordpools/wasnorm_wordpool_576.txt	LTP330	ltpFR2	6	19	GARBAGE	622	n/a	n/a	0	0	0
4361.852	n/a	WORD	2180926	wordpools/wasnorm_wordpool_576.txt	LTP330	ltpFR2	6	19	FIREPLACE	570	n/a	n/a	0	0	0
4364.606	n/a	WORD	2182303	wordpools/wasnorm_wordpool_576.txt	LTP330	ltpFR2	6	19	SUSPECT	1415	n/a	n/a	0	0	0
4367.192	n/a	WORD	2183596	wordpools/wasnorm_wordpool_576.txt	LTP330	ltpFR2	6	19	ANTLER	29	n/a	n/a	0	0	0
4369.96	n/a	WORD	2184980	wordpools/wasnorm_wordpool_576.txt	LTP330	ltpFR2	6	19	DRESS	495	n/a	n/a	0	0	0
4372.73	n/a	WORD	2186365	wordpools/wasnorm_wordpool_576.txt	LTP330	ltpFR2	6	19	CLOCK	325	n/a	n/a	0	0	0
4375.282	n/a	WORD	2187641	wordpools/wasnorm_wordpool_576.txt	LTP330	ltpFR2	6	19	BRACES	164	n/a	n/a	0	0	0
4377.95	n/a	WORD	2188975	wordpools/wasnorm_wordpool_576.txt	LTP330	ltpFR2	6	19	COURSE	390	n/a	n/a	0	0	0
4380.386	n/a	WORD	2190193	wordpools/wasnorm_wordpool_576.txt	LTP330	ltpFR2	6	19	FLASHLIGHT	575	n/a	n/a	0	0	0
4383.204	n/a	WORD	2191602	wordpools/wasnorm_wordpool_576.txt	LTP330	ltpFR2	6	19	TUNNEL	1519	n/a	n/a	0	0	0
4386.008	n/a	WORD	2193004	wordpools/wasnorm_wordpool_576.txt	LTP330	ltpFR2	6	19	DENTIST	447	n/a	n/a	0	0	0
4388.56	n/a	WORD	2194280	wordpools/wasnorm_wordpool_576.txt	LTP330	ltpFR2	6	19	DONOR	485	n/a	n/a	0	0	0
4391.128	n/a	WORD	2195564	wordpools/wasnorm_wordpool_576.txt	LTP330	ltpFR2	6	19	TRANSPLANT	1496	n/a	n/a	0	0	0
4393.914	n/a	WORD	2196957	wordpools/wasnorm_wordpool_576.txt	LTP330	ltpFR2	6	19	TWIG	1527	n/a	n/a	0	0	0
4396.482	n/a	WORD	2198241	wordpools/wasnorm_wordpool_576.txt	LTP330	ltpFR2	6	19	CABIN	211	n/a	n/a	0	0	0
4399.218	n/a	WORD	2199609	wordpools/wasnorm_wordpool_576.txt	LTP330	ltpFR2	6	19	DASHBOARD	441	n/a	n/a	0	0	0
4401.77	n/a	WORD	2200885	wordpools/wasnorm_wordpool_576.txt	LTP330	ltpFR2	6	19	SCISSORS	1250	n/a	n/a	0	0	0
4404.422	n/a	WORD	2202211	wordpools/wasnorm_wordpool_576.txt	LTP330	ltpFR2	6	19	SMOG	1330	n/a	n/a	0	0	0
4407.008	n/a	WORD	2203504	wordpools/wasnorm_wordpool_576.txt	LTP330	ltpFR2	6	19	PUDDLE	1140	n/a	n/a	0	0	0
4409.476	n/a	WORD	2204738	wordpools/wasnorm_wordpool_576.txt	LTP330	ltpFR2	6	19	BATHTUB	100	n/a	n/a	0	0	0
4412.062	n/a	WORD	2206031	wordpools/wasnorm_wordpool_576.txt	LTP330	ltpFR2	6	19	HIGHWAY	707	n/a	n/a	0	0	0
4413.68	n/a	START	2206840	n/a	LTP330	ltpFR2	6	n/a	n/a	n/a	27	n/a	n/a	n/a	n/a
4414.64	n/a	DISTRACTOR	2207320	n/a	LTP330	ltpFR2	6	19	n/a	n/a	n/a	n/a	0	0	0
4414.666	n/a	PROB	2207333	n/a	LTP330	ltpFR2	6	n/a	n/a	n/a	27	16	4	5	7
4419.554	n/a	PROB	2209777	n/a	LTP330	ltpFR2	6	n/a	n/a	n/a	27	15	4	8	3
4421.688	n/a	PROB	2210844	n/a	LTP330	ltpFR2	6	n/a	n/a	n/a	27	19	6	9	4
4423.722	n/a	PROB	2211861	n/a	LTP330	ltpFR2	6	n/a	n/a	n/a	27	13	3	2	7
4426.358	n/a	PROB	2213179	n/a	LTP330	ltpFR2	6	n/a	n/a	n/a	27	22	4	9	9
4428.076	n/a	PROB	2214038	n/a	LTP330	ltpFR2	6	n/a	n/a	n/a	27	14	7	1	6
4429.612	n/a	PROB	2214806	n/a	LTP330	ltpFR2	6	n/a	n/a	n/a	27	22	8	7	7
4432.68	n/a	PROB	2216340	n/a	LTP330	ltpFR2	6	n/a	n/a	n/a	27	15	1	5	9
4434.114	n/a	PROB	2217057	n/a	LTP330	ltpFR2	6	n/a	n/a	n/a	27	17	8	6	3
4436.556	n/a	STOP	2218278	n/a	LTP330	ltpFR2	6	n/a	n/a	n/a	27	n/a	n/a	n/a	n/a
4439.604	n/a	REC_START	2219802	n/a	LTP330	ltpFR2	6	19	n/a	n/a	n/a	n/a	0	0	0
