mstime	trial_type	stim_file	subject	experiment	session	trial	task	item_name	item_num	recog_conf	resp	color_b	color_g	color_r	case	font
0	SESS_START	n/a	LTP225	ltpFR	6	n/a	n/a	n/a	n/a	2	n/a	n/a	n/a	n/a	n/a	n/a
89007	WORD	wordpools/wasnorm_wordpool_less_exclusions.txt	LTP225	ltpFR	6	1	1	SCENERY	1247	n/a	0	1	0.412841796875	0.57763671875	upper	../fonts/amplitud.ttf
92917	WORD	wordpools/wasnorm_wordpool_less_exclusions.txt	LTP225	ltpFR	6	1	1	POOL	1103	n/a	0	1	0.412841796875	0.57763671875	upper	../fonts/amplitud.ttf
96845	WORD	wordpools/wasnorm_wordpool_less_exclusions.txt	LTP225	ltpFR	6	1	1	PUBLISHER	1137	n/a	1	1	0.412841796875	0.57763671875	upper	../fonts/amplitud.ttf
100822	WORD	wordpools/wasnorm_wordpool_less_exclusions.txt	LTP225	ltpFR	6	1	1	CARAVAN	242	n/a	1	1	0.412841796875	0.57763671875	upper	../fonts/amplitud.ttf
104883	WORD	wordpools/wasnorm_wordpool_less_exclusions.txt	LTP225	ltpFR	6	1	0	WAGON	1578	n/a	1	0	0.5869140625	0.422607421875	lower	../fonts/zerothre.ttf
108760	WORD	wordpools/wasnorm_wordpool_less_exclusions.txt	LTP225	ltpFR	6	1	0	WINGS	1614	n/a	1	0	0.5869140625	0.422607421875	lower	../fonts/zerothre.ttf
112854	WORD	wordpools/wasnorm_wordpool_less_exclusions.txt	LTP225	ltpFR	6	1	0	PELICAN	1039	n/a	1	0	0.5869140625	0.422607421875	lower	../fonts/zerothre.ttf
116998	WORD	wordpools/wasnorm_wordpool_less_exclusions.txt	LTP225	ltpFR	6	1	1	EDITORIAL	517	n/a	0	1	0.412841796875	0.57763671875	upper	../fonts/amplitud.ttf
120959	WORD	wordpools/wasnorm_wordpool_less_exclusions.txt	LTP225	ltpFR	6	1	1	STADIUM	1364	n/a	0	1	0.412841796875	0.57763671875	upper	../fonts/amplitud.ttf
125053	WORD	wordpools/wasnorm_wordpool_less_exclusions.txt	LTP225	ltpFR	6	1	0	ATLAS	53	n/a	1	0	0.5869140625	0.422607421875	lower	../fonts/zerothre.ttf
128980	WORD	wordpools/wasnorm_wordpool_less_exclusions.txt	LTP225	ltpFR	6	1	0	CREAM	402	n/a	0	0	0.5869140625	0.422607421875	lower	../fonts/zerothre.ttf
133192	WORD	wordpools/wasnorm_wordpool_less_exclusions.txt	LTP225	ltpFR	6	1	0	FEAST	556	n/a	1	0	0.5869140625	0.422607421875	lower	../fonts/zerothre.ttf
137135	WORD	wordpools/wasnorm_wordpool_less_exclusions.txt	LTP225	ltpFR	6	1	0	CHAMPION	279	n/a	1	0	0.5869140625	0.422607421875	lower	../fonts/zerothre.ttf
141129	WORD	wordpools/wasnorm_wordpool_less_exclusions.txt	LTP225	ltpFR	6	1	0	MEDAL	885	n/a	0	0	0.5869140625	0.422607421875	lower	../fonts/zerothre.ttf
145106	WORD	wordpools/wasnorm_wordpool_less_exclusions.txt	LTP225	ltpFR	6	1	1	GRASS	655	n/a	0	1	0.412841796875	0.57763671875	upper	../fonts/amplitud.ttf
149084	WORD	wordpools/wasnorm_wordpool_less_exclusions.txt	LTP225	ltpFR	6	1	1	ATHLETE	52	n/a	1	1	0.412841796875	0.57763671875	upper	../fonts/amplitud.ttf
154942	REC_START	n/a	LTP225	ltpFR	6	1	n/a	n/a	n/a	n/a	n/a	n/a	n/a	n/a	n/a	n/a
157112	REC_WORD	wordpools/wasnorm_wordpool_less_exclusions.txt	LTP225	ltpFR	6	1	1	GRASS	655	n/a	0	n/a	n/a	n/a	n/a	n/a
158618	REC_WORD	wordpools/wasnorm_wordpool_less_exclusions.txt	LTP225	ltpFR	6	1	1	ATHLETE	52	n/a	1	n/a	n/a	n/a	n/a	n/a
161821	REC_WORD	wordpools/wasnorm_wordpool_less_exclusions.txt	LTP225	ltpFR	6	1	0	MEDAL	885	n/a	0	n/a	n/a	n/a	n/a	n/a
163043	REC_WORD	wordpools/wasnorm_wordpool_less_exclusions.txt	LTP225	ltpFR	6	1	0	CHAMPION	279	n/a	1	n/a	n/a	n/a	n/a	n/a
182629	REC_WORD	wordpools/wasnorm_wordpool_less_exclusions.txt	LTP225	ltpFR	6	1	1	EDITORIAL	517	n/a	0	n/a	n/a	n/a	n/a	n/a
196562	REC_WORD_VV	wordpools/wasnorm_wordpool_less_exclusions.txt	LTP225	ltpFR	6	1	n/a	<>	-1	n/a	n/a	n/a	n/a	n/a	n/a	n/a
235937	WORD	wordpools/wasnorm_wordpool_less_exclusions.txt	LTP225	ltpFR	6	2	0	SAUSAGE	1238	n/a	1	0	0.5869140625	0.422607421875	lower	../fonts/zerothre.ttf
239931	WORD	wordpools/wasnorm_wordpool_less_exclusions.txt	LTP225	ltpFR	6	2	0	WHALE	1601	n/a	1	0	0.5869140625	0.422607421875	lower	../fonts/zerothre.ttf
243942	WORD	wordpools/wasnorm_wordpool_less_exclusions.txt	LTP225	ltpFR	6	2	0	BISON	131	n/a	1	0	0.5869140625	0.422607421875	lower	../fonts/zerothre.ttf
248002	WORD	wordpools/wasnorm_wordpool_less_exclusions.txt	LTP225	ltpFR	6	2	1	TROMBONE	1508	n/a	0	1	0.412841796875	0.57763671875	upper	../fonts/amplitud.ttf
252113	WORD	wordpools/wasnorm_wordpool_less_exclusions.txt	LTP225	ltpFR	6	2	1	BUGLE	189	n/a	0	1	0.412841796875	0.57763671875	upper	../fonts/amplitud.ttf
256157	WORD	wordpools/wasnorm_wordpool_less_exclusions.txt	LTP225	ltpFR	6	2	1	COW	393	n/a	1	1	0.412841796875	0.57763671875	upper	../fonts/amplitud.ttf
260302	WORD	wordpools/wasnorm_wordpool_less_exclusions.txt	LTP225	ltpFR	6	2	1	PIGEON	1065	n/a	1	1	0.412841796875	0.57763671875	upper	../fonts/amplitud.ttf
264511	WORD	wordpools/wasnorm_wordpool_less_exclusions.txt	LTP225	ltpFR	6	2	0	VOLUNTEER	1577	n/a	1	0	0.5869140625	0.422607421875	lower	../fonts/zerothre.ttf
268588	WORD	wordpools/wasnorm_wordpool_less_exclusions.txt	LTP225	ltpFR	6	2	0	AGENT	10	n/a	1	0	0.5869140625	0.422607421875	lower	../fonts/zerothre.ttf
272649	WORD	wordpools/wasnorm_wordpool_less_exclusions.txt	LTP225	ltpFR	6	2	1	LITERATURE	831	n/a	0	1	0.412841796875	0.57763671875	upper	../fonts/amplitud.ttf
276593	WORD	wordpools/wasnorm_wordpool_less_exclusions.txt	LTP225	ltpFR	6	2	1	CONDUCTOR	362	n/a	1	1	0.412841796875	0.57763671875	upper	../fonts/amplitud.ttf
280803	WORD	wordpools/wasnorm_wordpool_less_exclusions.txt	LTP225	ltpFR	6	2	1	CAFETERIA	217	n/a	0	1	0.412841796875	0.57763671875	upper	../fonts/amplitud.ttf
284897	WORD	wordpools/wasnorm_wordpool_less_exclusions.txt	LTP225	ltpFR	6	2	1	RESTAURANT	1187	n/a	0	1	0.412841796875	0.57763671875	upper	../fonts/amplitud.ttf
289124	WORD	wordpools/wasnorm_wordpool_less_exclusions.txt	LTP225	ltpFR	6	2	0	SALMON	1227	n/a	1	0	0.5869140625	0.422607421875	lower	../fonts/zerothre.ttf
293269	WORD	wordpools/wasnorm_wordpool_less_exclusions.txt	LTP225	ltpFR	6	2	0	PURSE	1145	n/a	0	0	0.5869140625	0.422607421875	lower	../fonts/zerothre.ttf
297363	WORD	wordpools/wasnorm_wordpool_less_exclusions.txt	LTP225	ltpFR	6	2	0	CRAB	397	n/a	0	0	0.5869140625	0.422607421875	lower	../fonts/zerothre.ttf
303388	REC_START	n/a	LTP225	ltpFR	6	2	n/a	n/a	n/a	n/a	n/a	n/a	n/a	n/a	n/a	n/a
304740	REC_WORD	wordpools/wasnorm_wordpool_less_exclusions.txt	LTP225	ltpFR	6	2	0	PURSE	1145	n/a	0	n/a	n/a	n/a	n/a	n/a
305648	REC_WORD	wordpools/wasnorm_wordpool_less_exclusions.txt	LTP225	ltpFR	6	2	0	CRAB	397	n/a	0	n/a	n/a	n/a	n/a	n/a
306915	REC_WORD	wordpools/wasnorm_wordpool_less_exclusions.txt	LTP225	ltpFR	6	2	0	SALMON	1227	n/a	1	n/a	n/a	n/a	n/a	n/a
308761	REC_WORD	wordpools/wasnorm_wordpool_less_exclusions.txt	LTP225	ltpFR	6	2	1	EDITORIAL	517	n/a	0	n/a	n/a	n/a	n/a	n/a
320878	REC_WORD	wordpools/wasnorm_wordpool_less_exclusions.txt	LTP225	ltpFR	6	2	1	CONDUCTOR	362	n/a	1	n/a	n/a	n/a	n/a	n/a
338707	REC_WORD	wordpools/wasnorm_wordpool_less_exclusions.txt	LTP225	ltpFR	6	2	1	LITERATURE	831	n/a	0	n/a	n/a	n/a	n/a	n/a
340449	REC_WORD	wordpools/wasnorm_wordpool_less_exclusions.txt	LTP225	ltpFR	6	2	0	ATLAS	53	n/a	1	n/a	n/a	n/a	n/a	n/a
356936	REC_WORD	wordpools/wasnorm_wordpool_less_exclusions.txt	LTP225	ltpFR	6	2	1	ATHLETE	52	n/a	1	n/a	n/a	n/a	n/a	n/a
361097	REC_WORD	wordpools/wasnorm_wordpool_less_exclusions.txt	LTP225	ltpFR	6	2	1	COW	393	n/a	1	n/a	n/a	n/a	n/a	n/a
362379	REC_WORD	wordpools/wasnorm_wordpool_less_exclusions.txt	LTP225	ltpFR	6	2	0	BISON	131	n/a	1	n/a	n/a	n/a	n/a	n/a
371288	REC_WORD	wordpools/wasnorm_wordpool_less_exclusions.txt	LTP225	ltpFR	6	2	1	PIGEON	1065	n/a	1	n/a	n/a	n/a	n/a	n/a
374022	REC_WORD	wordpools/wasnorm_wordpool_less_exclusions.txt	LTP225	ltpFR	6	2	0	PELICAN	1039	n/a	1	n/a	n/a	n/a	n/a	n/a
383368	WORD	wordpools/wasnorm_wordpool_less_exclusions.txt	LTP225	ltpFR	6	3	0	STEM	1376	n/a	0	0	0.5869140625	0.422607421875	lower	../fonts/zerothre.ttf
387544	WORD	wordpools/wasnorm_wordpool_less_exclusions.txt	LTP225	ltpFR	6	3	0	SEAGULL	1261	n/a	1	0	0.5869140625	0.422607421875	lower	../fonts/zerothre.ttf
391655	WORD	wordpools/wasnorm_wordpool_less_exclusions.txt	LTP225	ltpFR	6	3	0	FEATHER	557	n/a	0	0	0.5869140625	0.422607421875	lower	../fonts/zerothre.ttf
395832	WORD	wordpools/wasnorm_wordpool_less_exclusions.txt	LTP225	ltpFR	6	3	0	VASE	1549	n/a	0	0	0.5869140625	0.422607421875	lower	../fonts/zerothre.ttf
399992	WORD	wordpools/wasnorm_wordpool_less_exclusions.txt	LTP225	ltpFR	6	3	0	TERMITE	1451	n/a	0	0	0.5869140625	0.422607421875	lower	../fonts/zerothre.ttf
404003	WORD	wordpools/wasnorm_wordpool_less_exclusions.txt	LTP225	ltpFR	6	3	0	TOOTHPASTE	1483	n/a	0	0	0.5869140625	0.422607421875	lower	../fonts/zerothre.ttf
408097	WORD	wordpools/wasnorm_wordpool_less_exclusions.txt	LTP225	ltpFR	6	3	0	HELMET	702	n/a	1	0	0.5869140625	0.422607421875	lower	../fonts/zerothre.ttf
412275	WORD	wordpools/wasnorm_wordpool_less_exclusions.txt	LTP225	ltpFR	6	3	0	HAM	678	n/a	1	0	0.5869140625	0.422607421875	lower	../fonts/zerothre.ttf
416501	WORD	wordpools/wasnorm_wordpool_less_exclusions.txt	LTP225	ltpFR	6	3	0	MOUSE	925	n/a	0	0	0.5869140625	0.422607421875	lower	../fonts/zerothre.ttf
420611	WORD	wordpools/wasnorm_wordpool_less_exclusions.txt	LTP225	ltpFR	6	3	0	CLAW	319	n/a	0	0	0.5869140625	0.422607421875	lower	../fonts/zerothre.ttf
424522	WORD	wordpools/wasnorm_wordpool_less_exclusions.txt	LTP225	ltpFR	6	3	0	LODGE	839	n/a	1	0	0.5869140625	0.422607421875	lower	../fonts/zerothre.ttf
428351	WORD	wordpools/wasnorm_wordpool_less_exclusions.txt	LTP225	ltpFR	6	3	0	PIT	1077	n/a	1	0	0.5869140625	0.422607421875	lower	../fonts/zerothre.ttf
432428	WORD	wordpools/wasnorm_wordpool_less_exclusions.txt	LTP225	ltpFR	6	3	0	STAKE	1368	n/a	0	0	0.5869140625	0.422607421875	lower	../fonts/zerothre.ttf
436488	WORD	wordpools/wasnorm_wordpool_less_exclusions.txt	LTP225	ltpFR	6	3	0	ROOM	1206	n/a	1	0	0.5869140625	0.422607421875	lower	../fonts/zerothre.ttf
440498	WORD	wordpools/wasnorm_wordpool_less_exclusions.txt	LTP225	ltpFR	6	3	0	SHRINE	1298	n/a	1	0	0.5869140625	0.422607421875	lower	../fonts/zerothre.ttf
444393	WORD	wordpools/wasnorm_wordpool_less_exclusions.txt	LTP225	ltpFR	6	3	0	MONUMENT	913	n/a	1	0	0.5869140625	0.422607421875	lower	../fonts/zerothre.ttf
450068	REC_START	n/a	LTP225	ltpFR	6	3	n/a	n/a	n/a	n/a	n/a	n/a	n/a	n/a	n/a	n/a
451564	REC_WORD	wordpools/wasnorm_wordpool_less_exclusions.txt	LTP225	ltpFR	6	3	0	SHRINE	1298	n/a	1	n/a	n/a	n/a	n/a	n/a
452831	REC_WORD	wordpools/wasnorm_wordpool_less_exclusions.txt	LTP225	ltpFR	6	3	0	MONUMENT	913	n/a	1	n/a	n/a	n/a	n/a	n/a
454074	REC_WORD	wordpools/wasnorm_wordpool_less_exclusions.txt	LTP225	ltpFR	6	3	0	STAKE	1368	n/a	0	n/a	n/a	n/a	n/a	n/a
456279	REC_WORD	wordpools/wasnorm_wordpool_less_exclusions.txt	LTP225	ltpFR	6	3	0	PIT	1077	n/a	1	n/a	n/a	n/a	n/a	n/a
464670	REC_WORD	wordpools/wasnorm_wordpool_less_exclusions.txt	LTP225	ltpFR	6	3	0	CLAW	319	n/a	0	n/a	n/a	n/a	n/a	n/a
467827	REC_WORD	wordpools/wasnorm_wordpool_less_exclusions.txt	LTP225	ltpFR	6	3	0	TOOTHPASTE	1483	n/a	0	n/a	n/a	n/a	n/a	n/a
487872	REC_WORD	wordpools/wasnorm_wordpool_less_exclusions.txt	LTP225	ltpFR	6	3	0	SHRINE	1298	n/a	1	n/a	n/a	n/a	n/a	n/a
489792	REC_WORD	wordpools/wasnorm_wordpool_less_exclusions.txt	LTP225	ltpFR	6	3	0	MONUMENT	913	n/a	1	n/a	n/a	n/a	n/a	n/a
506385	REC_WORD	wordpools/wasnorm_wordpool_less_exclusions.txt	LTP225	ltpFR	6	3	0	HELMET	702	n/a	1	n/a	n/a	n/a	n/a	n/a
536771	WORD	wordpools/wasnorm_wordpool_less_exclusions.txt	LTP225	ltpFR	6	4	1	EDITOR	516	n/a	1	1	0.412841796875	0.57763671875	upper	../fonts/amplitud.ttf
540798	WORD	wordpools/wasnorm_wordpool_less_exclusions.txt	LTP225	ltpFR	6	4	1	AUTHOR	61	n/a	1	1	0.412841796875	0.57763671875	upper	../fonts/amplitud.ttf
544659	WORD	wordpools/wasnorm_wordpool_less_exclusions.txt	LTP225	ltpFR	6	4	1	BAKER	71	n/a	1	1	0.412841796875	0.57763671875	upper	../fonts/amplitud.ttf
548870	WORD	wordpools/wasnorm_wordpool_less_exclusions.txt	LTP225	ltpFR	6	4	1	DIAGRAM	456	n/a	0	1	0.412841796875	0.57763671875	upper	../fonts/amplitud.ttf
552731	WORD	wordpools/wasnorm_wordpool_less_exclusions.txt	LTP225	ltpFR	6	4	1	GUARD	667	n/a	1	1	0.412841796875	0.57763671875	upper	../fonts/amplitud.ttf
556791	WORD	wordpools/wasnorm_wordpool_less_exclusions.txt	LTP225	ltpFR	6	4	1	BUN	197	n/a	0	1	0.412841796875	0.57763671875	upper	../fonts/amplitud.ttf
560652	WORD	wordpools/wasnorm_wordpool_less_exclusions.txt	LTP225	ltpFR	6	4	1	DASHBOARD	441	n/a	0	1	0.412841796875	0.57763671875	upper	../fonts/amplitud.ttf
564563	WORD	wordpools/wasnorm_wordpool_less_exclusions.txt	LTP225	ltpFR	6	4	1	KEEPER	769	n/a	1	1	0.412841796875	0.57763671875	upper	../fonts/amplitud.ttf
568507	WORD	wordpools/wasnorm_wordpool_less_exclusions.txt	LTP225	ltpFR	6	4	1	STRING	1394	n/a	0	1	0.412841796875	0.57763671875	upper	../fonts/amplitud.ttf
572501	WORD	wordpools/wasnorm_wordpool_less_exclusions.txt	LTP225	ltpFR	6	4	1	ROPE	1211	n/a	0	1	0.412841796875	0.57763671875	upper	../fonts/amplitud.ttf
576478	WORD	wordpools/wasnorm_wordpool_less_exclusions.txt	LTP225	ltpFR	6	4	1	ALLIGATOR	16	n/a	1	1	0.412841796875	0.57763671875	upper	../fonts/amplitud.ttf
580324	WORD	wordpools/wasnorm_wordpool_less_exclusions.txt	LTP225	ltpFR	6	4	1	MULE	931	n/a	1	1	0.412841796875	0.57763671875	upper	../fonts/amplitud.ttf
584334	WORD	wordpools/wasnorm_wordpool_less_exclusions.txt	LTP225	ltpFR	6	4	1	WILDERNESS	1610	n/a	0	1	0.412841796875	0.57763671875	upper	../fonts/amplitud.ttf
588229	WORD	wordpools/wasnorm_wordpool_less_exclusions.txt	LTP225	ltpFR	6	4	1	TENT	1449	n/a	0	1	0.412841796875	0.57763671875	upper	../fonts/amplitud.ttf
592155	WORD	wordpools/wasnorm_wordpool_less_exclusions.txt	LTP225	ltpFR	6	4	1	TUXEDO	1525	n/a	0	1	0.412841796875	0.57763671875	upper	../fonts/amplitud.ttf
596132	WORD	wordpools/wasnorm_wordpool_less_exclusions.txt	LTP225	ltpFR	6	4	1	DRAWING	494	n/a	0	1	0.412841796875	0.57763671875	upper	../fonts/amplitud.ttf
601891	REC_START	n/a	LTP225	ltpFR	6	4	n/a	n/a	n/a	n/a	n/a	n/a	n/a	n/a	n/a	n/a
603722	REC_WORD	wordpools/wasnorm_wordpool_less_exclusions.txt	LTP225	ltpFR	6	4	n/a	CHECK	284	n/a	n/a	n/a	n/a	n/a	n/a	n/a
604899	REC_WORD	wordpools/wasnorm_wordpool_less_exclusions.txt	LTP225	ltpFR	6	4	1	TUXEDO	1525	n/a	0	n/a	n/a	n/a	n/a	n/a
606735	REC_WORD	wordpools/wasnorm_wordpool_less_exclusions.txt	LTP225	ltpFR	6	4	1	DRAWING	494	n/a	0	n/a	n/a	n/a	n/a	n/a
608730	REC_WORD	wordpools/wasnorm_wordpool_less_exclusions.txt	LTP225	ltpFR	6	4	1	WILDERNESS	1610	n/a	0	n/a	n/a	n/a	n/a	n/a
610546	REC_WORD	wordpools/wasnorm_wordpool_less_exclusions.txt	LTP225	ltpFR	6	4	1	TENT	1449	n/a	0	n/a	n/a	n/a	n/a	n/a
613280	REC_WORD	wordpools/wasnorm_wordpool_less_exclusions.txt	LTP225	ltpFR	6	4	1	PUBLISHER	1137	n/a	1	n/a	n/a	n/a	n/a	n/a
615505	REC_WORD	wordpools/wasnorm_wordpool_less_exclusions.txt	LTP225	ltpFR	6	4	1	EDITOR	516	n/a	1	n/a	n/a	n/a	n/a	n/a
629293	REC_WORD_VV	wordpools/wasnorm_wordpool_less_exclusions.txt	LTP225	ltpFR	6	4	n/a	<>	-1	n/a	n/a	n/a	n/a	n/a	n/a	n/a
630281	REC_WORD	wordpools/wasnorm_wordpool_less_exclusions.txt	LTP225	ltpFR	6	4	1	LITERATURE	831	n/a	0	n/a	n/a	n/a	n/a	n/a
633853	REC_WORD	wordpools/wasnorm_wordpool_less_exclusions.txt	LTP225	ltpFR	6	4	0	AGENT	10	n/a	1	n/a	n/a	n/a	n/a	n/a
635035	REC_WORD	wordpools/wasnorm_wordpool_less_exclusions.txt	LTP225	ltpFR	6	4	1	GUARD	667	n/a	1	n/a	n/a	n/a	n/a	n/a
649258	REC_WORD	wordpools/wasnorm_wordpool_less_exclusions.txt	LTP225	ltpFR	6	4	1	AUTHOR	61	n/a	1	n/a	n/a	n/a	n/a	n/a
655140	REC_WORD_VV	wordpools/wasnorm_wordpool_less_exclusions.txt	LTP225	ltpFR	6	4	n/a	<>	-1	n/a	n/a	n/a	n/a	n/a	n/a	n/a
658088	REC_WORD_VV	wordpools/wasnorm_wordpool_less_exclusions.txt	LTP225	ltpFR	6	4	n/a	<>	-1	n/a	n/a	n/a	n/a	n/a	n/a	n/a
660897	REC_WORD	wordpools/wasnorm_wordpool_less_exclusions.txt	LTP225	ltpFR	6	4	0	CLAW	319	n/a	0	n/a	n/a	n/a	n/a	n/a
663321	REC_WORD	wordpools/wasnorm_wordpool_less_exclusions.txt	LTP225	ltpFR	6	4	1	ALLIGATOR	16	n/a	1	n/a	n/a	n/a	n/a	n/a
669697	REC_WORD	wordpools/wasnorm_wordpool_less_exclusions.txt	LTP225	ltpFR	6	4	0	BISON	131	n/a	1	n/a	n/a	n/a	n/a	n/a
681738	WORD	wordpools/wasnorm_wordpool_less_exclusions.txt	LTP225	ltpFR	6	5	1	SLIDE	1326	n/a	0	1	0.412841796875	0.57763671875	upper	../fonts/amplitud.ttf
685882	WORD	wordpools/wasnorm_wordpool_less_exclusions.txt	LTP225	ltpFR	6	5	1	RANCH	1166	n/a	0	1	0.412841796875	0.57763671875	upper	../fonts/amplitud.ttf
689892	WORD	wordpools/wasnorm_wordpool_less_exclusions.txt	LTP225	ltpFR	6	5	0	HORSE	719	n/a	1	0	0.5869140625	0.422607421875	lower	../fonts/zerothre.ttf
693820	WORD	wordpools/wasnorm_wordpool_less_exclusions.txt	LTP225	ltpFR	6	5	0	BRUSH	182	n/a	0	0	0.5869140625	0.422607421875	lower	../fonts/zerothre.ttf
697731	WORD	wordpools/wasnorm_wordpool_less_exclusions.txt	LTP225	ltpFR	6	5	0	GREASE	660	n/a	0	0	0.5869140625	0.422607421875	lower	../fonts/zerothre.ttf
701825	WORD	wordpools/wasnorm_wordpool_less_exclusions.txt	LTP225	ltpFR	6	5	0	ENEMY	534	n/a	1	0	0.5869140625	0.422607421875	lower	../fonts/zerothre.ttf
705752	WORD	wordpools/wasnorm_wordpool_less_exclusions.txt	LTP225	ltpFR	6	5	0	SWING	1421	n/a	1	0	0.5869140625	0.422607421875	lower	../fonts/zerothre.ttf
709913	WORD	wordpools/wasnorm_wordpool_less_exclusions.txt	LTP225	ltpFR	6	5	1	TOWEL	1489	n/a	0	1	0.412841796875	0.57763671875	upper	../fonts/amplitud.ttf
714090	WORD	wordpools/wasnorm_wordpool_less_exclusions.txt	LTP225	ltpFR	6	5	1	GLOVE	642	n/a	0	1	0.412841796875	0.57763671875	upper	../fonts/amplitud.ttf
718301	WORD	wordpools/wasnorm_wordpool_less_exclusions.txt	LTP225	ltpFR	6	5	0	PERFUME	1049	n/a	0	0	0.5869140625	0.422607421875	lower	../fonts/zerothre.ttf
722494	WORD	wordpools/wasnorm_wordpool_less_exclusions.txt	LTP225	ltpFR	6	5	0	MARSH	874	n/a	1	0	0.5869140625	0.422607421875	lower	../fonts/zerothre.ttf
726671	WORD	wordpools/wasnorm_wordpool_less_exclusions.txt	LTP225	ltpFR	6	5	0	RAISIN	1163	n/a	0	0	0.5869140625	0.422607421875	lower	../fonts/zerothre.ttf
730798	WORD	wordpools/wasnorm_wordpool_less_exclusions.txt	LTP225	ltpFR	6	5	1	PEAR	1033	n/a	0	1	0.412841796875	0.57763671875	upper	../fonts/amplitud.ttf
734709	WORD	wordpools/wasnorm_wordpool_less_exclusions.txt	LTP225	ltpFR	6	5	1	ROOMMATE	1207	n/a	1	1	0.412841796875	0.57763671875	upper	../fonts/amplitud.ttf
738853	WORD	wordpools/wasnorm_wordpool_less_exclusions.txt	LTP225	ltpFR	6	5	1	PERCH	1048	n/a	0	1	0.412841796875	0.57763671875	upper	../fonts/amplitud.ttf
742830	WORD	wordpools/wasnorm_wordpool_less_exclusions.txt	LTP225	ltpFR	6	5	1	OCTOPUS	971	n/a	1	1	0.412841796875	0.57763671875	upper	../fonts/amplitud.ttf
748655	REC_START	n/a	LTP225	ltpFR	6	5	n/a	n/a	n/a	n/a	n/a	n/a	n/a	n/a	n/a	n/a
750321	REC_WORD	wordpools/wasnorm_wordpool_less_exclusions.txt	LTP225	ltpFR	6	5	1	OCTOPUS	971	n/a	1	n/a	n/a	n/a	n/a	n/a
751748	REC_WORD	wordpools/wasnorm_wordpool_less_exclusions.txt	LTP225	ltpFR	6	5	1	ROOMMATE	1207	n/a	1	n/a	n/a	n/a	n/a	n/a
755843	REC_WORD_VV	wordpools/wasnorm_wordpool_less_exclusions.txt	LTP225	ltpFR	6	5	n/a	<>	-1	n/a	n/a	n/a	n/a	n/a	n/a	n/a
756843	REC_WORD_VV	wordpools/wasnorm_wordpool_less_exclusions.txt	LTP225	ltpFR	6	5	n/a	<>	-1	n/a	n/a	n/a	n/a	n/a	n/a	n/a
759331	REC_WORD	wordpools/wasnorm_wordpool_less_exclusions.txt	LTP225	ltpFR	6	5	0	BRUSH	182	n/a	0	n/a	n/a	n/a	n/a	n/a
761007	REC_WORD	wordpools/wasnorm_wordpool_less_exclusions.txt	LTP225	ltpFR	6	5	0	GREASE	660	n/a	0	n/a	n/a	n/a	n/a	n/a
788434	REC_WORD	wordpools/wasnorm_wordpool_less_exclusions.txt	LTP225	ltpFR	6	5	1	SLIDE	1326	n/a	0	n/a	n/a	n/a	n/a	n/a
789562	REC_WORD	wordpools/wasnorm_wordpool_less_exclusions.txt	LTP225	ltpFR	6	5	0	SWING	1421	n/a	1	n/a	n/a	n/a	n/a	n/a
792111	REC_WORD	wordpools/wasnorm_wordpool_less_exclusions.txt	LTP225	ltpFR	6	5	0	PERFUME	1049	n/a	0	n/a	n/a	n/a	n/a	n/a
819713	REC_WORD	wordpools/wasnorm_wordpool_less_exclusions.txt	LTP225	ltpFR	6	5	1	ROOMMATE	1207	n/a	1	n/a	n/a	n/a	n/a	n/a
833179	WORD	wordpools/wasnorm_wordpool_less_exclusions.txt	LTP225	ltpFR	6	6	-1	DRILL	497	n/a	-1	1	1.0	1.0	upper	../fonts/Verdana.ttf
837390	WORD	wordpools/wasnorm_wordpool_less_exclusions.txt	LTP225	ltpFR	6	6	-1	ARTICLE	42	n/a	-1	1	1.0	1.0	upper	../fonts/Verdana.ttf
841400	WORD	wordpools/wasnorm_wordpool_less_exclusions.txt	LTP225	ltpFR	6	6	-1	FENCE	560	n/a	-1	1	1.0	1.0	upper	../fonts/Verdana.ttf
845610	WORD	wordpools/wasnorm_wordpool_less_exclusions.txt	LTP225	ltpFR	6	6	-1	LUMBER	848	n/a	-1	1	1.0	1.0	upper	../fonts/Verdana.ttf
849770	WORD	wordpools/wasnorm_wordpool_less_exclusions.txt	LTP225	ltpFR	6	6	-1	HOME	712	n/a	-1	1	1.0	1.0	upper	../fonts/Verdana.ttf
853914	WORD	wordpools/wasnorm_wordpool_less_exclusions.txt	LTP225	ltpFR	6	6	-1	NEWSPAPER	948	n/a	-1	1	1.0	1.0	upper	../fonts/Verdana.ttf
858025	WORD	wordpools/wasnorm_wordpool_less_exclusions.txt	LTP225	ltpFR	6	6	-1	AIRCRAFT	11	n/a	-1	1	1.0	1.0	upper	../fonts/Verdana.ttf
862219	WORD	wordpools/wasnorm_wordpool_less_exclusions.txt	LTP225	ltpFR	6	6	-1	PASSENGER	1020	n/a	-1	1	1.0	1.0	upper	../fonts/Verdana.ttf
866280	WORD	wordpools/wasnorm_wordpool_less_exclusions.txt	LTP225	ltpFR	6	6	-1	NUT	965	n/a	-1	1	1.0	1.0	upper	../fonts/Verdana.ttf
870291	WORD	wordpools/wasnorm_wordpool_less_exclusions.txt	LTP225	ltpFR	6	6	-1	CROCODILE	411	n/a	-1	1	1.0	1.0	upper	../fonts/Verdana.ttf
874401	WORD	wordpools/wasnorm_wordpool_less_exclusions.txt	LTP225	ltpFR	6	6	-1	FIREPLACE	570	n/a	-1	1	1.0	1.0	upper	../fonts/Verdana.ttf
878494	WORD	wordpools/wasnorm_wordpool_less_exclusions.txt	LTP225	ltpFR	6	6	-1	BLUEBERRY	140	n/a	-1	1	1.0	1.0	upper	../fonts/Verdana.ttf
882588	WORD	wordpools/wasnorm_wordpool_less_exclusions.txt	LTP225	ltpFR	6	6	-1	SUITE	1404	n/a	-1	1	1.0	1.0	upper	../fonts/Verdana.ttf
886765	WORD	wordpools/wasnorm_wordpool_less_exclusions.txt	LTP225	ltpFR	6	6	-1	POT	1114	n/a	-1	1	1.0	1.0	upper	../fonts/Verdana.ttf
890942	WORD	wordpools/wasnorm_wordpool_less_exclusions.txt	LTP225	ltpFR	6	6	-1	CORPORATION	382	n/a	-1	1	1.0	1.0	upper	../fonts/Verdana.ttf
894770	WORD	wordpools/wasnorm_wordpool_less_exclusions.txt	LTP225	ltpFR	6	6	-1	FACTORY	548	n/a	-1	1	1.0	1.0	upper	../fonts/Verdana.ttf
900845	REC_START	n/a	LTP225	ltpFR	6	6	n/a	n/a	n/a	n/a	n/a	n/a	n/a	n/a	n/a	n/a
902316	REC_WORD	wordpools/wasnorm_wordpool_less_exclusions.txt	LTP225	ltpFR	6	6	-1	CORPORATION	382	n/a	-1	n/a	n/a	n/a	n/a	n/a
903324	REC_WORD	wordpools/wasnorm_wordpool_less_exclusions.txt	LTP225	ltpFR	6	6	-1	FACTORY	548	n/a	-1	n/a	n/a	n/a	n/a	n/a
904736	REC_WORD	wordpools/wasnorm_wordpool_less_exclusions.txt	LTP225	ltpFR	6	6	-1	POT	1114	n/a	-1	n/a	n/a	n/a	n/a	n/a
907629	REC_WORD_VV	wordpools/wasnorm_wordpool_less_exclusions.txt	LTP225	ltpFR	6	6	n/a	<>	-1	n/a	n/a	n/a	n/a	n/a	n/a	n/a
907884	REC_WORD	wordpools/wasnorm_wordpool_less_exclusions.txt	LTP225	ltpFR	6	6	-1	HOME	712	n/a	-1	n/a	n/a	n/a	n/a	n/a
908782	REC_WORD	wordpools/wasnorm_wordpool_less_exclusions.txt	LTP225	ltpFR	6	6	-1	LUMBER	848	n/a	-1	n/a	n/a	n/a	n/a	n/a
909883	REC_WORD	wordpools/wasnorm_wordpool_less_exclusions.txt	LTP225	ltpFR	6	6	-1	FENCE	560	n/a	-1	n/a	n/a	n/a	n/a	n/a
924122	REC_WORD	wordpools/wasnorm_wordpool_less_exclusions.txt	LTP225	ltpFR	6	6	-1	CROCODILE	411	n/a	-1	n/a	n/a	n/a	n/a	n/a
946800	REC_WORD	wordpools/wasnorm_wordpool_less_exclusions.txt	LTP225	ltpFR	6	6	-1	CORPORATION	382	n/a	-1	n/a	n/a	n/a	n/a	n/a
948207	REC_WORD	wordpools/wasnorm_wordpool_less_exclusions.txt	LTP225	ltpFR	6	6	-1	AIRCRAFT	11	n/a	-1	n/a	n/a	n/a	n/a	n/a
949115	REC_WORD	wordpools/wasnorm_wordpool_less_exclusions.txt	LTP225	ltpFR	6	6	-1	PASSENGER	1020	n/a	-1	n/a	n/a	n/a	n/a	n/a
957161	REC_WORD	wordpools/wasnorm_wordpool_less_exclusions.txt	LTP225	ltpFR	6	6	-1	FACTORY	548	n/a	-1	n/a	n/a	n/a	n/a	n/a
981473	WORD	wordpools/wasnorm_wordpool_less_exclusions.txt	LTP225	ltpFR	6	7	0	COOKBOOK	373	n/a	0	0	0.5869140625	0.422607421875	lower	../fonts/zerothre.ttf
985584	WORD	wordpools/wasnorm_wordpool_less_exclusions.txt	LTP225	ltpFR	6	7	0	SNACK	1331	n/a	0	0	0.5869140625	0.422607421875	lower	../fonts/zerothre.ttf
989761	WORD	wordpools/wasnorm_wordpool_less_exclusions.txt	LTP225	ltpFR	6	7	0	PEPPER	1047	n/a	0	0	0.5869140625	0.422607421875	lower	../fonts/zerothre.ttf
993788	WORD	wordpools/wasnorm_wordpool_less_exclusions.txt	LTP225	ltpFR	6	7	0	KEYBOARD	774	n/a	1	0	0.5869140625	0.422607421875	lower	../fonts/zerothre.ttf
997616	WORD	wordpools/wasnorm_wordpool_less_exclusions.txt	LTP225	ltpFR	6	7	0	RUNNER	1218	n/a	1	0	0.5869140625	0.422607421875	lower	../fonts/zerothre.ttf
1001776	WORD	wordpools/wasnorm_wordpool_less_exclusions.txt	LTP225	ltpFR	6	7	0	PATIO	1025	n/a	1	0	0.5869140625	0.422607421875	lower	../fonts/zerothre.ttf
1005937	WORD	wordpools/wasnorm_wordpool_less_exclusions.txt	LTP225	ltpFR	6	7	0	TRENCH	1503	n/a	1	0	0.5869140625	0.422607421875	lower	../fonts/zerothre.ttf
1010114	WORD	wordpools/wasnorm_wordpool_less_exclusions.txt	LTP225	ltpFR	6	7	0	SAGE	1222	n/a	0	0	0.5869140625	0.422607421875	lower	../fonts/zerothre.ttf
1014275	WORD	wordpools/wasnorm_wordpool_less_exclusions.txt	LTP225	ltpFR	6	7	0	FAMILY	550	n/a	1	0	0.5869140625	0.422607421875	lower	../fonts/zerothre.ttf
1018253	WORD	wordpools/wasnorm_wordpool_less_exclusions.txt	LTP225	ltpFR	6	7	0	HOOD	714	n/a	0	0	0.5869140625	0.422607421875	lower	../fonts/zerothre.ttf
1022313	WORD	wordpools/wasnorm_wordpool_less_exclusions.txt	LTP225	ltpFR	6	7	0	CHAMBER	277	n/a	1	0	0.5869140625	0.422607421875	lower	../fonts/zerothre.ttf
1026441	WORD	wordpools/wasnorm_wordpool_less_exclusions.txt	LTP225	ltpFR	6	7	0	PICK	1058	n/a	0	0	0.5869140625	0.422607421875	lower	../fonts/zerothre.ttf
1030451	WORD	wordpools/wasnorm_wordpool_less_exclusions.txt	LTP225	ltpFR	6	7	0	HAYSTACK	694	n/a	1	0	0.5869140625	0.422607421875	lower	../fonts/zerothre.ttf
1034362	WORD	wordpools/wasnorm_wordpool_less_exclusions.txt	LTP225	ltpFR	6	7	0	STALLION	1369	n/a	1	0	0.5869140625	0.422607421875	lower	../fonts/zerothre.ttf
1038340	WORD	wordpools/wasnorm_wordpool_less_exclusions.txt	LTP225	ltpFR	6	7	0	WHISKERS	1605	n/a	0	0	0.5869140625	0.422607421875	lower	../fonts/zerothre.ttf
1042400	WORD	wordpools/wasnorm_wordpool_less_exclusions.txt	LTP225	ltpFR	6	7	0	COUGAR	387	n/a	1	0	0.5869140625	0.422607421875	lower	../fonts/zerothre.ttf
1048091	REC_START	n/a	LTP225	ltpFR	6	7	n/a	n/a	n/a	n/a	n/a	n/a	n/a	n/a	n/a	n/a
1049802	REC_WORD	wordpools/wasnorm_wordpool_less_exclusions.txt	LTP225	ltpFR	6	7	0	HAYSTACK	694	n/a	1	n/a	n/a	n/a	n/a	n/a
1051289	REC_WORD	wordpools/wasnorm_wordpool_less_exclusions.txt	LTP225	ltpFR	6	7	0	STALLION	1369	n/a	1	n/a	n/a	n/a	n/a	n/a
1053718	REC_WORD	wordpools/wasnorm_wordpool_less_exclusions.txt	LTP225	ltpFR	6	7	0	WHISKERS	1605	n/a	0	n/a	n/a	n/a	n/a	n/a
1057714	REC_WORD	wordpools/wasnorm_wordpool_less_exclusions.txt	LTP225	ltpFR	6	7	0	FAMILY	550	n/a	1	n/a	n/a	n/a	n/a	n/a
1066594	REC_WORD	wordpools/wasnorm_wordpool_less_exclusions.txt	LTP225	ltpFR	6	7	0	SAGE	1222	n/a	0	n/a	n/a	n/a	n/a	n/a
1068260	REC_WORD	wordpools/wasnorm_wordpool_less_exclusions.txt	LTP225	ltpFR	6	7	-1	NUT	965	n/a	-1	n/a	n/a	n/a	n/a	n/a
1079514	REC_WORD	wordpools/wasnorm_wordpool_less_exclusions.txt	LTP225	ltpFR	6	7	0	COOKBOOK	373	n/a	0	n/a	n/a	n/a	n/a	n/a
1084912	REC_WORD	wordpools/wasnorm_wordpool_less_exclusions.txt	LTP225	ltpFR	6	7	0	RAISIN	1163	n/a	0	n/a	n/a	n/a	n/a	n/a
1091297	REC_WORD	wordpools/wasnorm_wordpool_less_exclusions.txt	LTP225	ltpFR	6	7	0	RUNNER	1218	n/a	1	n/a	n/a	n/a	n/a	n/a
1093044	REC_WORD	wordpools/wasnorm_wordpool_less_exclusions.txt	LTP225	ltpFR	6	7	0	PATIO	1025	n/a	1	n/a	n/a	n/a	n/a	n/a
1096316	REC_WORD	wordpools/wasnorm_wordpool_less_exclusions.txt	LTP225	ltpFR	6	7	0	TRENCH	1503	n/a	1	n/a	n/a	n/a	n/a	n/a
1098580	REC_WORD	wordpools/wasnorm_wordpool_less_exclusions.txt	LTP225	ltpFR	6	7	0	PIT	1077	n/a	1	n/a	n/a	n/a	n/a	n/a
1119089	REC_WORD	wordpools/wasnorm_wordpool_less_exclusions.txt	LTP225	ltpFR	6	7	0	HOOD	714	n/a	0	n/a	n/a	n/a	n/a	n/a
1121289	REC_WORD	wordpools/wasnorm_wordpool_less_exclusions.txt	LTP225	ltpFR	6	7	0	PICK	1058	n/a	0	n/a	n/a	n/a	n/a	n/a
1132332	WORD	wordpools/wasnorm_wordpool_less_exclusions.txt	LTP225	ltpFR	6	8	-1	MOOSE	915	n/a	-1	1	1.0	1.0	upper	../fonts/Verdana.ttf
1136193	WORD	wordpools/wasnorm_wordpool_less_exclusions.txt	LTP225	ltpFR	6	8	-1	STUMP	1396	n/a	-1	1	1.0	1.0	upper	../fonts/Verdana.ttf
1140120	WORD	wordpools/wasnorm_wordpool_less_exclusions.txt	LTP225	ltpFR	6	8	-1	TELEVISION	1447	n/a	-1	1	1.0	1.0	upper	../fonts/Verdana.ttf
1144198	WORD	wordpools/wasnorm_wordpool_less_exclusions.txt	LTP225	ltpFR	6	8	-1	CLOWN	330	n/a	-1	1	1.0	1.0	upper	../fonts/Verdana.ttf
1148342	WORD	wordpools/wasnorm_wordpool_less_exclusions.txt	LTP225	ltpFR	6	8	-1	COMEDIAN	352	n/a	-1	1	1.0	1.0	upper	../fonts/Verdana.ttf
1152253	WORD	wordpools/wasnorm_wordpool_less_exclusions.txt	LTP225	ltpFR	6	8	-1	PROTON	1132	n/a	-1	1	1.0	1.0	upper	../fonts/Verdana.ttf
1156347	WORD	wordpools/wasnorm_wordpool_less_exclusions.txt	LTP225	ltpFR	6	8	-1	MOLECULE	905	n/a	-1	1	1.0	1.0	upper	../fonts/Verdana.ttf
1160357	WORD	wordpools/wasnorm_wordpool_less_exclusions.txt	LTP225	ltpFR	6	8	-1	LENS	811	n/a	-1	1	1.0	1.0	upper	../fonts/Verdana.ttf
1164301	WORD	wordpools/wasnorm_wordpool_less_exclusions.txt	LTP225	ltpFR	6	8	-1	ACORN	3	n/a	-1	1	1.0	1.0	upper	../fonts/Verdana.ttf
1168145	WORD	wordpools/wasnorm_wordpool_less_exclusions.txt	LTP225	ltpFR	6	8	-1	TANK	1432	n/a	-1	1	1.0	1.0	upper	../fonts/Verdana.ttf
1172105	WORD	wordpools/wasnorm_wordpool_less_exclusions.txt	LTP225	ltpFR	6	8	-1	OFFICER	973	n/a	-1	1	1.0	1.0	upper	../fonts/Verdana.ttf
1176317	WORD	wordpools/wasnorm_wordpool_less_exclusions.txt	LTP225	ltpFR	6	8	-1	BASEMENT	94	n/a	-1	1	1.0	1.0	upper	../fonts/Verdana.ttf
1180211	WORD	wordpools/wasnorm_wordpool_less_exclusions.txt	LTP225	ltpFR	6	8	-1	RACCOON	1153	n/a	-1	1	1.0	1.0	upper	../fonts/Verdana.ttf
1184171	WORD	wordpools/wasnorm_wordpool_less_exclusions.txt	LTP225	ltpFR	6	8	-1	AIRPLANE	12	n/a	-1	1	1.0	1.0	upper	../fonts/Verdana.ttf
1188131	WORD	wordpools/wasnorm_wordpool_less_exclusions.txt	LTP225	ltpFR	6	8	-1	DAD	433	n/a	-1	1	1.0	1.0	upper	../fonts/Verdana.ttf
1192092	WORD	wordpools/wasnorm_wordpool_less_exclusions.txt	LTP225	ltpFR	6	8	-1	CABIN	211	n/a	-1	1	1.0	1.0	upper	../fonts/Verdana.ttf
1197801	REC_START	n/a	LTP225	ltpFR	6	8	n/a	n/a	n/a	n/a	n/a	n/a	n/a	n/a	n/a	n/a
1200290	REC_WORD	wordpools/wasnorm_wordpool_less_exclusions.txt	LTP225	ltpFR	6	8	-1	TANK	1432	n/a	-1	n/a	n/a	n/a	n/a	n/a
1201438	REC_WORD	wordpools/wasnorm_wordpool_less_exclusions.txt	LTP225	ltpFR	6	8	-1	OFFICER	973	n/a	-1	n/a	n/a	n/a	n/a	n/a
1202769	REC_WORD	wordpools/wasnorm_wordpool_less_exclusions.txt	LTP225	ltpFR	6	8	-1	BASEMENT	94	n/a	-1	n/a	n/a	n/a	n/a	n/a
1204271	REC_WORD	wordpools/wasnorm_wordpool_less_exclusions.txt	LTP225	ltpFR	6	8	-1	DAD	433	n/a	-1	n/a	n/a	n/a	n/a	n/a
1205698	REC_WORD	wordpools/wasnorm_wordpool_less_exclusions.txt	LTP225	ltpFR	6	8	-1	RACCOON	1153	n/a	-1	n/a	n/a	n/a	n/a	n/a
1212238	REC_WORD	wordpools/wasnorm_wordpool_less_exclusions.txt	LTP225	ltpFR	6	8	-1	STUMP	1396	n/a	-1	n/a	n/a	n/a	n/a	n/a
1214867	REC_WORD	wordpools/wasnorm_wordpool_less_exclusions.txt	LTP225	ltpFR	6	8	n/a	PROTEIN	-1	n/a	n/a	n/a	n/a	n/a	n/a	n/a
1216124	REC_WORD	wordpools/wasnorm_wordpool_less_exclusions.txt	LTP225	ltpFR	6	8	-1	MOLECULE	905	n/a	-1	n/a	n/a	n/a	n/a	n/a
1217124	REC_WORD_VV	wordpools/wasnorm_wordpool_less_exclusions.txt	LTP225	ltpFR	6	8	n/a	<>	-1	n/a	n/a	n/a	n/a	n/a	n/a	n/a
1222819	REC_WORD	wordpools/wasnorm_wordpool_less_exclusions.txt	LTP225	ltpFR	6	8	0	COOKBOOK	373	n/a	0	n/a	n/a	n/a	n/a	n/a
1235814	REC_WORD	wordpools/wasnorm_wordpool_less_exclusions.txt	LTP225	ltpFR	6	8	-1	MOOSE	915	n/a	-1	n/a	n/a	n/a	n/a	n/a
1249199	REC_WORD	wordpools/wasnorm_wordpool_less_exclusions.txt	LTP225	ltpFR	6	8	0	FAMILY	550	n/a	1	n/a	n/a	n/a	n/a	n/a
1269423	REC_WORD	wordpools/wasnorm_wordpool_less_exclusions.txt	LTP225	ltpFR	6	8	-1	FENCE	560	n/a	-1	n/a	n/a	n/a	n/a	n/a
1270263	REC_WORD	wordpools/wasnorm_wordpool_less_exclusions.txt	LTP225	ltpFR	6	8	-1	HOME	712	n/a	-1	n/a	n/a	n/a	n/a	n/a
1271094	REC_WORD	wordpools/wasnorm_wordpool_less_exclusions.txt	LTP225	ltpFR	6	8	-1	LUMBER	848	n/a	-1	n/a	n/a	n/a	n/a	n/a
1278962	WORD	wordpools/wasnorm_wordpool_less_exclusions.txt	LTP225	ltpFR	6	9	1	MAID	856	n/a	1	1	0.412841796875	0.57763671875	upper	../fonts/amplitud.ttf
1282956	WORD	wordpools/wasnorm_wordpool_less_exclusions.txt	LTP225	ltpFR	6	9	1	FROST	609	n/a	0	1	0.412841796875	0.57763671875	upper	../fonts/amplitud.ttf
1287017	WORD	wordpools/wasnorm_wordpool_less_exclusions.txt	LTP225	ltpFR	6	9	1	LADY	794	n/a	1	1	0.412841796875	0.57763671875	upper	../fonts/amplitud.ttf
1291011	WORD	wordpools/wasnorm_wordpool_less_exclusions.txt	LTP225	ltpFR	6	9	1	MICROWAVE	892	n/a	0	1	0.412841796875	0.57763671875	upper	../fonts/amplitud.ttf
1295038	WORD	wordpools/wasnorm_wordpool_less_exclusions.txt	LTP225	ltpFR	6	9	1	WAITER	1580	n/a	1	1	0.412841796875	0.57763671875	upper	../fonts/amplitud.ttf
1299132	WORD	wordpools/wasnorm_wordpool_less_exclusions.txt	LTP225	ltpFR	6	9	0	TIGER	1467	n/a	1	0	0.5869140625	0.422607421875	lower	../fonts/zerothre.ttf
1303294	WORD	wordpools/wasnorm_wordpool_less_exclusions.txt	LTP225	ltpFR	6	9	0	FREEZER	604	n/a	1	0	0.5869140625	0.422607421875	lower	../fonts/zerothre.ttf
1307371	WORD	wordpools/wasnorm_wordpool_less_exclusions.txt	LTP225	ltpFR	6	9	0	CONTAINER	366	n/a	0	0	0.5869140625	0.422607421875	lower	../fonts/zerothre.ttf
1311265	WORD	wordpools/wasnorm_wordpool_less_exclusions.txt	LTP225	ltpFR	6	9	0	QUARTER	1148	n/a	0	0	0.5869140625	0.422607421875	lower	../fonts/zerothre.ttf
1315409	WORD	wordpools/wasnorm_wordpool_less_exclusions.txt	LTP225	ltpFR	6	9	0	PENNY	1045	n/a	0	0	0.5869140625	0.422607421875	lower	../fonts/zerothre.ttf
1319320	WORD	wordpools/wasnorm_wordpool_less_exclusions.txt	LTP225	ltpFR	6	9	0	CURTAIN	427	n/a	1	0	0.5869140625	0.422607421875	lower	../fonts/zerothre.ttf
1323146	WORD	wordpools/wasnorm_wordpool_less_exclusions.txt	LTP225	ltpFR	6	9	1	ANGEL	22	n/a	1	1	0.412841796875	0.57763671875	upper	../fonts/amplitud.ttf
1327074	WORD	wordpools/wasnorm_wordpool_less_exclusions.txt	LTP225	ltpFR	6	9	1	BRICK	172	n/a	0	1	0.412841796875	0.57763671875	upper	../fonts/amplitud.ttf
1331235	WORD	wordpools/wasnorm_wordpool_less_exclusions.txt	LTP225	ltpFR	6	9	1	SIDING	1304	n/a	0	1	0.412841796875	0.57763671875	upper	../fonts/amplitud.ttf
1335112	WORD	wordpools/wasnorm_wordpool_less_exclusions.txt	LTP225	ltpFR	6	9	0	PELT	1040	n/a	0	0	0.5869140625	0.422607421875	lower	../fonts/zerothre.ttf
1339156	WORD	wordpools/wasnorm_wordpool_less_exclusions.txt	LTP225	ltpFR	6	9	0	KIDNEY	776	n/a	0	0	0.5869140625	0.422607421875	lower	../fonts/zerothre.ttf
1344998	REC_START	n/a	LTP225	ltpFR	6	9	n/a	n/a	n/a	n/a	n/a	n/a	n/a	n/a	n/a	n/a
1346469	REC_WORD	wordpools/wasnorm_wordpool_less_exclusions.txt	LTP225	ltpFR	6	9	0	KIDNEY	776	n/a	0	n/a	n/a	n/a	n/a	n/a
1347462	REC_WORD	wordpools/wasnorm_wordpool_less_exclusions.txt	LTP225	ltpFR	6	9	0	PICK	1058	n/a	0	n/a	n/a	n/a	n/a	n/a
1348435	REC_WORD	wordpools/wasnorm_wordpool_less_exclusions.txt	LTP225	ltpFR	6	9	1	ANGEL	22	n/a	1	n/a	n/a	n/a	n/a	n/a
1349413	REC_WORD	wordpools/wasnorm_wordpool_less_exclusions.txt	LTP225	ltpFR	6	9	1	SIDING	1304	n/a	0	n/a	n/a	n/a	n/a	n/a
1353164	REC_WORD_VV	wordpools/wasnorm_wordpool_less_exclusions.txt	LTP225	ltpFR	6	9	n/a	<>	-1	n/a	n/a	n/a	n/a	n/a	n/a	n/a
1364488	REC_WORD_VV	wordpools/wasnorm_wordpool_less_exclusions.txt	LTP225	ltpFR	6	9	n/a	<>	-1	n/a	n/a	n/a	n/a	n/a	n/a	n/a
1387506	REC_WORD_VV	wordpools/wasnorm_wordpool_less_exclusions.txt	LTP225	ltpFR	6	9	n/a	<>	-1	n/a	n/a	n/a	n/a	n/a	n/a	n/a
1388506	REC_WORD_VV	wordpools/wasnorm_wordpool_less_exclusions.txt	LTP225	ltpFR	6	9	n/a	<>	-1	n/a	n/a	n/a	n/a	n/a	n/a	n/a
1392949	REC_WORD	wordpools/wasnorm_wordpool_less_exclusions.txt	LTP225	ltpFR	6	9	1	SIDING	1304	n/a	0	n/a	n/a	n/a	n/a	n/a
1396715	REC_WORD	wordpools/wasnorm_wordpool_less_exclusions.txt	LTP225	ltpFR	6	9	0	KIDNEY	776	n/a	0	n/a	n/a	n/a	n/a	n/a
1399454	REC_WORD	wordpools/wasnorm_wordpool_less_exclusions.txt	LTP225	ltpFR	6	9	0	PELT	1040	n/a	0	n/a	n/a	n/a	n/a	n/a
1405006	REC_WORD_VV	wordpools/wasnorm_wordpool_less_exclusions.txt	LTP225	ltpFR	6	9	n/a	<>	-1	n/a	n/a	n/a	n/a	n/a	n/a	n/a
1411227	REC_WORD	wordpools/wasnorm_wordpool_less_exclusions.txt	LTP225	ltpFR	6	9	1	ANGEL	22	n/a	1	n/a	n/a	n/a	n/a	n/a
1430503	WORD	wordpools/wasnorm_wordpool_less_exclusions.txt	LTP225	ltpFR	6	10	-1	ASH	44	n/a	-1	1	1.0	1.0	upper	../fonts/Verdana.ttf
1434331	WORD	wordpools/wasnorm_wordpool_less_exclusions.txt	LTP225	ltpFR	6	10	-1	WATERFALL	1595	n/a	-1	1	1.0	1.0	upper	../fonts/Verdana.ttf
1438158	WORD	wordpools/wasnorm_wordpool_less_exclusions.txt	LTP225	ltpFR	6	10	-1	BALLOT	76	n/a	-1	1	1.0	1.0	upper	../fonts/Verdana.ttf
1442186	WORD	wordpools/wasnorm_wordpool_less_exclusions.txt	LTP225	ltpFR	6	10	-1	MISTER	901	n/a	-1	1	1.0	1.0	upper	../fonts/Verdana.ttf
1446129	WORD	wordpools/wasnorm_wordpool_less_exclusions.txt	LTP225	ltpFR	6	10	-1	VILLAGE	1566	n/a	-1	1	1.0	1.0	upper	../fonts/Verdana.ttf
1450123	WORD	wordpools/wasnorm_wordpool_less_exclusions.txt	LTP225	ltpFR	6	10	-1	DWARF	510	n/a	-1	1	1.0	1.0	upper	../fonts/Verdana.ttf
1453984	WORD	wordpools/wasnorm_wordpool_less_exclusions.txt	LTP225	ltpFR	6	10	-1	COOK	372	n/a	-1	1	1.0	1.0	upper	../fonts/Verdana.ttf
1458111	WORD	wordpools/wasnorm_wordpool_less_exclusions.txt	LTP225	ltpFR	6	10	-1	NOMAD	955	n/a	-1	1	1.0	1.0	upper	../fonts/Verdana.ttf
1462155	WORD	wordpools/wasnorm_wordpool_less_exclusions.txt	LTP225	ltpFR	6	10	-1	MANSION	864	n/a	-1	1	1.0	1.0	upper	../fonts/Verdana.ttf
1466066	WORD	wordpools/wasnorm_wordpool_less_exclusions.txt	LTP225	ltpFR	6	10	-1	WAITRESS	1581	n/a	-1	1	1.0	1.0	upper	../fonts/Verdana.ttf
1469994	WORD	wordpools/wasnorm_wordpool_less_exclusions.txt	LTP225	ltpFR	6	10	-1	CROSS	413	n/a	-1	1	1.0	1.0	upper	../fonts/Verdana.ttf
1473888	WORD	wordpools/wasnorm_wordpool_less_exclusions.txt	LTP225	ltpFR	6	10	-1	TEMPLE	1448	n/a	-1	1	1.0	1.0	upper	../fonts/Verdana.ttf
1477998	WORD	wordpools/wasnorm_wordpool_less_exclusions.txt	LTP225	ltpFR	6	10	-1	NEPTUNE	943	n/a	-1	1	1.0	1.0	upper	../fonts/Verdana.ttf
1481876	WORD	wordpools/wasnorm_wordpool_less_exclusions.txt	LTP225	ltpFR	6	10	-1	JUPITER	765	n/a	-1	1	1.0	1.0	upper	../fonts/Verdana.ttf
1485754	WORD	wordpools/wasnorm_wordpool_less_exclusions.txt	LTP225	ltpFR	6	10	-1	BRANCH	168	n/a	-1	1	1.0	1.0	upper	../fonts/Verdana.ttf
1489864	WORD	wordpools/wasnorm_wordpool_less_exclusions.txt	LTP225	ltpFR	6	10	-1	SHACK	1273	n/a	-1	1	1.0	1.0	upper	../fonts/Verdana.ttf
1495922	REC_START	n/a	LTP225	ltpFR	6	10	n/a	n/a	n/a	n/a	n/a	n/a	n/a	n/a	n/a	n/a
1497588	REC_WORD	wordpools/wasnorm_wordpool_less_exclusions.txt	LTP225	ltpFR	6	10	-1	BRANCH	168	n/a	-1	n/a	n/a	n/a	n/a	n/a
1498256	REC_WORD	wordpools/wasnorm_wordpool_less_exclusions.txt	LTP225	ltpFR	6	10	-1	SHACK	1273	n/a	-1	n/a	n/a	n/a	n/a	n/a
1499803	REC_WORD	wordpools/wasnorm_wordpool_less_exclusions.txt	LTP225	ltpFR	6	10	-1	NEPTUNE	943	n/a	-1	n/a	n/a	n/a	n/a	n/a
1501015	REC_WORD	wordpools/wasnorm_wordpool_less_exclusions.txt	LTP225	ltpFR	6	10	-1	JUPITER	765	n/a	-1	n/a	n/a	n/a	n/a	n/a
1502078	REC_WORD	wordpools/wasnorm_wordpool_less_exclusions.txt	LTP225	ltpFR	6	10	-1	JUPITER	765	n/a	-1	n/a	n/a	n/a	n/a	n/a
1505884	REC_WORD_VV	wordpools/wasnorm_wordpool_less_exclusions.txt	LTP225	ltpFR	6	10	n/a	<>	-1	n/a	n/a	n/a	n/a	n/a	n/a	n/a
1510648	REC_WORD_VV	wordpools/wasnorm_wordpool_less_exclusions.txt	LTP225	ltpFR	6	10	n/a	<>	-1	n/a	n/a	n/a	n/a	n/a	n/a	n/a
1537597	REC_WORD	wordpools/wasnorm_wordpool_less_exclusions.txt	LTP225	ltpFR	6	10	-1	WATERFALL	1595	n/a	-1	n/a	n/a	n/a	n/a	n/a
1542112	REC_WORD	wordpools/wasnorm_wordpool_less_exclusions.txt	LTP225	ltpFR	6	10	n/a	DRIP	-1	n/a	n/a	n/a	n/a	n/a	n/a	n/a
1552324	REC_WORD	wordpools/wasnorm_wordpool_less_exclusions.txt	LTP225	ltpFR	6	10	-1	WAITRESS	1581	n/a	-1	n/a	n/a	n/a	n/a	n/a
1553970	REC_WORD	wordpools/wasnorm_wordpool_less_exclusions.txt	LTP225	ltpFR	6	10	1	MAID	856	n/a	1	n/a	n/a	n/a	n/a	n/a
1556324	REC_WORD	wordpools/wasnorm_wordpool_less_exclusions.txt	LTP225	ltpFR	6	10	n/a	WOMAN	1620	n/a	n/a	n/a	n/a	n/a	n/a	n/a
1557861	REC_WORD	wordpools/wasnorm_wordpool_less_exclusions.txt	LTP225	ltpFR	6	10	-1	COOK	372	n/a	-1	n/a	n/a	n/a	n/a	n/a
1562141	REC_WORD	wordpools/wasnorm_wordpool_less_exclusions.txt	LTP225	ltpFR	6	10	0	KIDNEY	776	n/a	0	n/a	n/a	n/a	n/a	n/a
1580911	WORD	wordpools/wasnorm_wordpool_less_exclusions.txt	LTP225	ltpFR	6	11	1	CORAL	378	n/a	0	1	0.412841796875	0.57763671875	upper	../fonts/amplitud.ttf
1584839	WORD	wordpools/wasnorm_wordpool_less_exclusions.txt	LTP225	ltpFR	6	11	1	LITTER	832	n/a	0	1	0.412841796875	0.57763671875	upper	../fonts/amplitud.ttf
1588683	WORD	wordpools/wasnorm_wordpool_less_exclusions.txt	LTP225	ltpFR	6	11	1	TRUCK	1512	n/a	0	1	0.412841796875	0.57763671875	upper	../fonts/amplitud.ttf
1592544	WORD	wordpools/wasnorm_wordpool_less_exclusions.txt	LTP225	ltpFR	6	11	1	VIKING	1565	n/a	1	1	0.412841796875	0.57763671875	upper	../fonts/amplitud.ttf
1596555	WORD	wordpools/wasnorm_wordpool_less_exclusions.txt	LTP225	ltpFR	6	11	1	RAFT	1159	n/a	0	1	0.412841796875	0.57763671875	upper	../fonts/amplitud.ttf
1600615	WORD	wordpools/wasnorm_wordpool_less_exclusions.txt	LTP225	ltpFR	6	11	1	OATS	968	n/a	0	1	0.412841796875	0.57763671875	upper	../fonts/amplitud.ttf
1604792	WORD	wordpools/wasnorm_wordpool_less_exclusions.txt	LTP225	ltpFR	6	11	1	CREEK	404	n/a	0	1	0.412841796875	0.57763671875	upper	../fonts/amplitud.ttf
1608670	WORD	wordpools/wasnorm_wordpool_less_exclusions.txt	LTP225	ltpFR	6	11	1	PLUMBER	1091	n/a	1	1	0.412841796875	0.57763671875	upper	../fonts/amplitud.ttf
1612531	WORD	wordpools/wasnorm_wordpool_less_exclusions.txt	LTP225	ltpFR	6	11	1	GARLIC	624	n/a	0	1	0.412841796875	0.57763671875	upper	../fonts/amplitud.ttf
1616443	WORD	wordpools/wasnorm_wordpool_less_exclusions.txt	LTP225	ltpFR	6	11	1	HOSE	720	n/a	0	1	0.412841796875	0.57763671875	upper	../fonts/amplitud.ttf
1620387	WORD	wordpools/wasnorm_wordpool_less_exclusions.txt	LTP225	ltpFR	6	11	1	PERSONNEL	1053	n/a	1	1	0.412841796875	0.57763671875	upper	../fonts/amplitud.ttf
1624248	WORD	wordpools/wasnorm_wordpool_less_exclusions.txt	LTP225	ltpFR	6	11	1	MOTH	920	n/a	0	1	0.412841796875	0.57763671875	upper	../fonts/amplitud.ttf
1628192	WORD	wordpools/wasnorm_wordpool_less_exclusions.txt	LTP225	ltpFR	6	11	1	BUG	187	n/a	1	1	0.412841796875	0.57763671875	upper	../fonts/amplitud.ttf
1632135	WORD	wordpools/wasnorm_wordpool_less_exclusions.txt	LTP225	ltpFR	6	11	1	STAFF	1365	n/a	1	1	0.412841796875	0.57763671875	upper	../fonts/amplitud.ttf
1636129	WORD	wordpools/wasnorm_wordpool_less_exclusions.txt	LTP225	ltpFR	6	11	1	EXPERT	543	n/a	1	1	0.412841796875	0.57763671875	upper	../fonts/amplitud.ttf
1640123	WORD	wordpools/wasnorm_wordpool_less_exclusions.txt	LTP225	ltpFR	6	11	1	SOCIETY	1338	n/a	1	1	0.412841796875	0.57763671875	upper	../fonts/amplitud.ttf
1645848	REC_START	n/a	LTP225	ltpFR	6	11	n/a	n/a	n/a	n/a	n/a	n/a	n/a	n/a	n/a	n/a
1647504	REC_WORD	wordpools/wasnorm_wordpool_less_exclusions.txt	LTP225	ltpFR	6	11	1	BUG	187	n/a	1	n/a	n/a	n/a	n/a	n/a
1648606	REC_WORD	wordpools/wasnorm_wordpool_less_exclusions.txt	LTP225	ltpFR	6	11	1	STAFF	1365	n/a	1	n/a	n/a	n/a	n/a	n/a
1649704	REC_WORD	wordpools/wasnorm_wordpool_less_exclusions.txt	LTP225	ltpFR	6	11	1	SOCIETY	1338	n/a	1	n/a	n/a	n/a	n/a	n/a
1652153	REC_WORD	wordpools/wasnorm_wordpool_less_exclusions.txt	LTP225	ltpFR	6	11	1	EXPERT	543	n/a	1	n/a	n/a	n/a	n/a	n/a
1654403	REC_WORD	wordpools/wasnorm_wordpool_less_exclusions.txt	LTP225	ltpFR	6	11	1	MOTH	920	n/a	0	n/a	n/a	n/a	n/a	n/a
1656249	REC_WORD	wordpools/wasnorm_wordpool_less_exclusions.txt	LTP225	ltpFR	6	11	1	BUG	187	n/a	1	n/a	n/a	n/a	n/a	n/a
1679471	REC_WORD_VV	wordpools/wasnorm_wordpool_less_exclusions.txt	LTP225	ltpFR	6	11	n/a	<>	-1	n/a	n/a	n/a	n/a	n/a	n/a	n/a
1681033	REC_WORD	wordpools/wasnorm_wordpool_less_exclusions.txt	LTP225	ltpFR	6	11	1	OATS	968	n/a	0	n/a	n/a	n/a	n/a	n/a
1682664	REC_WORD	wordpools/wasnorm_wordpool_less_exclusions.txt	LTP225	ltpFR	6	11	1	VIKING	1565	n/a	1	n/a	n/a	n/a	n/a	n/a
1687767	REC_WORD	wordpools/wasnorm_wordpool_less_exclusions.txt	LTP225	ltpFR	6	11	n/a	CANAL	226	n/a	n/a	n/a	n/a	n/a	n/a	n/a
1694238	REC_WORD	wordpools/wasnorm_wordpool_less_exclusions.txt	LTP225	ltpFR	6	11	n/a	BOAT	144	n/a	n/a	n/a	n/a	n/a	n/a	n/a
1698698	REC_WORD	wordpools/wasnorm_wordpool_less_exclusions.txt	LTP225	ltpFR	6	11	1	PLUMBER	1091	n/a	1	n/a	n/a	n/a	n/a	n/a
1707722	REC_WORD	wordpools/wasnorm_wordpool_less_exclusions.txt	LTP225	ltpFR	6	11	1	TRUCK	1512	n/a	0	n/a	n/a	n/a	n/a	n/a
1727775	WORD	wordpools/wasnorm_wordpool_less_exclusions.txt	LTP225	ltpFR	6	12	0	HEART	697	n/a	n/a	0	0.5869140625	0.422607421875	lower	../fonts/zerothre.ttf
1730804	SLOW_MSG	n/a	LTP225	ltpFR	6	12	n/a	n/a	n/a	n/a	n/a	n/a	n/a	n/a	n/a	n/a
1733335	WORD	wordpools/wasnorm_wordpool_less_exclusions.txt	LTP225	ltpFR	6	12	0	BUCKLE	185	n/a	0	0	0.5869140625	0.422607421875	lower	../fonts/zerothre.ttf
1737329	WORD	wordpools/wasnorm_wordpool_less_exclusions.txt	LTP225	ltpFR	6	12	0	OZONE	996	n/a	1	0	0.5869140625	0.422607421875	lower	../fonts/zerothre.ttf
1741488	WORD	wordpools/wasnorm_wordpool_less_exclusions.txt	LTP225	ltpFR	6	12	0	PUDDLE	1140	n/a	1	0	0.5869140625	0.422607421875	lower	../fonts/zerothre.ttf
1745350	WORD	wordpools/wasnorm_wordpool_less_exclusions.txt	LTP225	ltpFR	6	12	1	SOCK	1339	n/a	0	1	0.412841796875	0.57763671875	upper	../fonts/amplitud.ttf
1749278	WORD	wordpools/wasnorm_wordpool_less_exclusions.txt	LTP225	ltpFR	6	12	1	NITROGEN	954	n/a	0	1	0.412841796875	0.57763671875	upper	../fonts/amplitud.ttf
1753322	WORD	wordpools/wasnorm_wordpool_less_exclusions.txt	LTP225	ltpFR	6	12	1	BALLOON	75	n/a	0	1	0.412841796875	0.57763671875	upper	../fonts/amplitud.ttf
1757332	WORD	wordpools/wasnorm_wordpool_less_exclusions.txt	LTP225	ltpFR	6	12	1	VESSEL	1558	n/a	0	1	0.412841796875	0.57763671875	upper	../fonts/amplitud.ttf
1761260	WORD	wordpools/wasnorm_wordpool_less_exclusions.txt	LTP225	ltpFR	6	12	1	OREGANO	983	n/a	0	1	0.412841796875	0.57763671875	upper	../fonts/amplitud.ttf
1765237	WORD	wordpools/wasnorm_wordpool_less_exclusions.txt	LTP225	ltpFR	6	12	0	BUTLER	204	n/a	1	0	0.5869140625	0.422607421875	lower	../fonts/zerothre.ttf
1769080	WORD	wordpools/wasnorm_wordpool_less_exclusions.txt	LTP225	ltpFR	6	12	0	DIVER	476	n/a	1	0	0.5869140625	0.422607421875	lower	../fonts/zerothre.ttf
1773225	WORD	wordpools/wasnorm_wordpool_less_exclusions.txt	LTP225	ltpFR	6	12	0	ELM	527	n/a	1	0	0.5869140625	0.422607421875	lower	../fonts/zerothre.ttf
1777202	WORD	wordpools/wasnorm_wordpool_less_exclusions.txt	LTP225	ltpFR	6	12	0	FOREST	593	n/a	1	0	0.5869140625	0.422607421875	lower	../fonts/zerothre.ttf
1781096	WORD	wordpools/wasnorm_wordpool_less_exclusions.txt	LTP225	ltpFR	6	12	1	BALCONY	72	n/a	0	1	0.412841796875	0.57763671875	upper	../fonts/amplitud.ttf
1784990	WORD	wordpools/wasnorm_wordpool_less_exclusions.txt	LTP225	ltpFR	6	12	1	LOFT	840	n/a	0	1	0.412841796875	0.57763671875	upper	../fonts/amplitud.ttf
1788884	WORD	wordpools/wasnorm_wordpool_less_exclusions.txt	LTP225	ltpFR	6	12	1	CARPENTER	246	n/a	1	1	0.412841796875	0.57763671875	upper	../fonts/amplitud.ttf
1794776	REC_START	n/a	LTP225	ltpFR	6	12	n/a	n/a	n/a	n/a	n/a	n/a	n/a	n/a	n/a	n/a
1796327	REC_WORD	wordpools/wasnorm_wordpool_less_exclusions.txt	LTP225	ltpFR	6	12	1	CARPENTER	246	n/a	1	n/a	n/a	n/a	n/a	n/a
1797964	REC_WORD	wordpools/wasnorm_wordpool_less_exclusions.txt	LTP225	ltpFR	6	12	1	BALCONY	72	n/a	0	n/a	n/a	n/a	n/a	n/a
1799231	REC_WORD	wordpools/wasnorm_wordpool_less_exclusions.txt	LTP225	ltpFR	6	12	1	LOFT	840	n/a	0	n/a	n/a	n/a	n/a	n/a
1802902	REC_WORD_VV	wordpools/wasnorm_wordpool_less_exclusions.txt	LTP225	ltpFR	6	12	n/a	<>	-1	n/a	n/a	n/a	n/a	n/a	n/a	n/a
1818532	REC_WORD	wordpools/wasnorm_wordpool_less_exclusions.txt	LTP225	ltpFR	6	12	1	CARPENTER	246	n/a	1	n/a	n/a	n/a	n/a	n/a
1824034	REC_WORD	wordpools/wasnorm_wordpool_less_exclusions.txt	LTP225	ltpFR	6	12	1	GARLIC	624	n/a	0	n/a	n/a	n/a	n/a	n/a
1826010	REC_WORD	wordpools/wasnorm_wordpool_less_exclusions.txt	LTP225	ltpFR	6	12	0	ELM	527	n/a	1	n/a	n/a	n/a	n/a	n/a
1828868	REC_WORD	wordpools/wasnorm_wordpool_less_exclusions.txt	LTP225	ltpFR	6	12	n/a	TREE	1502	n/a	n/a	n/a	n/a	n/a	n/a	n/a
1870380	REST_REWET	n/a	LTP225	ltpFR	6	12	n/a	n/a	n/a	n/a	n/a	n/a	n/a	n/a	n/a	n/a
2119657	WORD	wordpools/wasnorm_wordpool_less_exclusions.txt	LTP225	ltpFR	6	13	-1	KNAPSACK	783	n/a	-1	1	1.0	1.0	upper	../fonts/Verdana.ttf
2123767	WORD	wordpools/wasnorm_wordpool_less_exclusions.txt	LTP225	ltpFR	6	13	-1	KNOT	788	n/a	-1	1	1.0	1.0	upper	../fonts/Verdana.ttf
2127795	WORD	wordpools/wasnorm_wordpool_less_exclusions.txt	LTP225	ltpFR	6	13	-1	PAPER	1011	n/a	-1	1	1.0	1.0	upper	../fonts/Verdana.ttf
2131938	WORD	wordpools/wasnorm_wordpool_less_exclusions.txt	LTP225	ltpFR	6	13	-1	LAGOON	795	n/a	-1	1	1.0	1.0	upper	../fonts/Verdana.ttf
2135799	WORD	wordpools/wasnorm_wordpool_less_exclusions.txt	LTP225	ltpFR	6	13	-1	SCOTCH	1251	n/a	-1	1	1.0	1.0	upper	../fonts/Verdana.ttf
2139660	WORD	wordpools/wasnorm_wordpool_less_exclusions.txt	LTP225	ltpFR	6	13	-1	BACKBONE	66	n/a	-1	1	1.0	1.0	upper	../fonts/Verdana.ttf
2143754	WORD	wordpools/wasnorm_wordpool_less_exclusions.txt	LTP225	ltpFR	6	13	-1	SEA	1259	n/a	-1	1	1.0	1.0	upper	../fonts/Verdana.ttf
2147798	WORD	wordpools/wasnorm_wordpool_less_exclusions.txt	LTP225	ltpFR	6	13	-1	NOTEBOOK	959	n/a	-1	1	1.0	1.0	upper	../fonts/Verdana.ttf
2151759	WORD	wordpools/wasnorm_wordpool_less_exclusions.txt	LTP225	ltpFR	6	13	-1	DAM	436	n/a	-1	1	1.0	1.0	upper	../fonts/Verdana.ttf
2155936	WORD	wordpools/wasnorm_wordpool_less_exclusions.txt	LTP225	ltpFR	6	13	-1	SHOWER	1296	n/a	-1	1	1.0	1.0	upper	../fonts/Verdana.ttf
2159830	WORD	wordpools/wasnorm_wordpool_less_exclusions.txt	LTP225	ltpFR	6	13	-1	TOTE	1487	n/a	-1	1	1.0	1.0	upper	../fonts/Verdana.ttf
2163824	WORD	wordpools/wasnorm_wordpool_less_exclusions.txt	LTP225	ltpFR	6	13	-1	SPONGE	1355	n/a	-1	1	1.0	1.0	upper	../fonts/Verdana.ttf
2167685	WORD	wordpools/wasnorm_wordpool_less_exclusions.txt	LTP225	ltpFR	6	13	-1	NAVIGATOR	938	n/a	-1	1	1.0	1.0	upper	../fonts/Verdana.ttf
2171579	WORD	wordpools/wasnorm_wordpool_less_exclusions.txt	LTP225	ltpFR	6	13	-1	STEWARDESS	1381	n/a	-1	1	1.0	1.0	upper	../fonts/Verdana.ttf
2175590	WORD	wordpools/wasnorm_wordpool_less_exclusions.txt	LTP225	ltpFR	6	13	-1	NAPKIN	937	n/a	-1	1	1.0	1.0	upper	../fonts/Verdana.ttf
2179800	WORD	wordpools/wasnorm_wordpool_less_exclusions.txt	LTP225	ltpFR	6	13	-1	LAKE	796	n/a	-1	1	1.0	1.0	upper	../fonts/Verdana.ttf
2185492	REC_START	n/a	LTP225	ltpFR	6	13	n/a	n/a	n/a	n/a	n/a	n/a	n/a	n/a	n/a	n/a
2186814	REC_WORD	wordpools/wasnorm_wordpool_less_exclusions.txt	LTP225	ltpFR	6	13	-1	LAKE	796	n/a	-1	n/a	n/a	n/a	n/a	n/a
2187836	REC_WORD	wordpools/wasnorm_wordpool_less_exclusions.txt	LTP225	ltpFR	6	13	-1	NAVIGATOR	938	n/a	-1	n/a	n/a	n/a	n/a	n/a
2189074	REC_WORD	wordpools/wasnorm_wordpool_less_exclusions.txt	LTP225	ltpFR	6	13	-1	STEWARDESS	1381	n/a	-1	n/a	n/a	n/a	n/a	n/a
2192755	REC_WORD_VV	wordpools/wasnorm_wordpool_less_exclusions.txt	LTP225	ltpFR	6	13	n/a	<>	-1	n/a	n/a	n/a	n/a	n/a	n/a	n/a
2198876	REC_WORD_VV	wordpools/wasnorm_wordpool_less_exclusions.txt	LTP225	ltpFR	6	13	n/a	<>	-1	n/a	n/a	n/a	n/a	n/a	n/a	n/a
2219479	REC_WORD	wordpools/wasnorm_wordpool_less_exclusions.txt	LTP225	ltpFR	6	13	-1	NOTEBOOK	959	n/a	-1	n/a	n/a	n/a	n/a	n/a
2225631	REC_WORD	wordpools/wasnorm_wordpool_less_exclusions.txt	LTP225	ltpFR	6	13	-1	BACKBONE	66	n/a	-1	n/a	n/a	n/a	n/a	n/a
2239030	REC_WORD	wordpools/wasnorm_wordpool_less_exclusions.txt	LTP225	ltpFR	6	13	-1	SPONGE	1355	n/a	-1	n/a	n/a	n/a	n/a	n/a
2246413	REC_WORD	wordpools/wasnorm_wordpool_less_exclusions.txt	LTP225	ltpFR	6	13	-1	LAKE	796	n/a	-1	n/a	n/a	n/a	n/a	n/a
2247361	REC_WORD	wordpools/wasnorm_wordpool_less_exclusions.txt	LTP225	ltpFR	6	13	-1	DAM	436	n/a	-1	n/a	n/a	n/a	n/a	n/a
2265522	WORD	wordpools/wasnorm_wordpool_less_exclusions.txt	LTP225	ltpFR	6	14	1	CLAM	315	n/a	1	1	0.412841796875	0.57763671875	upper	../fonts/amplitud.ttf
2269699	WORD	wordpools/wasnorm_wordpool_less_exclusions.txt	LTP225	ltpFR	6	14	1	RADISH	1158	n/a	0	1	0.412841796875	0.57763671875	upper	../fonts/amplitud.ttf
2273776	WORD	wordpools/wasnorm_wordpool_less_exclusions.txt	LTP225	ltpFR	6	14	1	JUG	762	n/a	0	1	0.412841796875	0.57763671875	upper	../fonts/amplitud.ttf
2277987	WORD	wordpools/wasnorm_wordpool_less_exclusions.txt	LTP225	ltpFR	6	14	1	DANDRUFF	439	n/a	0	1	0.412841796875	0.57763671875	upper	../fonts/amplitud.ttf
2281848	WORD	wordpools/wasnorm_wordpool_less_exclusions.txt	LTP225	ltpFR	6	14	1	ISLAND	745	n/a	0	1	0.412841796875	0.57763671875	upper	../fonts/amplitud.ttf
2286058	WORD	wordpools/wasnorm_wordpool_less_exclusions.txt	LTP225	ltpFR	6	14	1	BRIDGE	174	n/a	0	1	0.412841796875	0.57763671875	upper	../fonts/amplitud.ttf
2290002	WORD	wordpools/wasnorm_wordpool_less_exclusions.txt	LTP225	ltpFR	6	14	1	OWNER	993	n/a	1	1	0.412841796875	0.57763671875	upper	../fonts/amplitud.ttf
2294197	WORD	wordpools/wasnorm_wordpool_less_exclusions.txt	LTP225	ltpFR	6	14	1	COTTAGE	384	n/a	0	1	0.412841796875	0.57763671875	upper	../fonts/amplitud.ttf
2298090	WORD	wordpools/wasnorm_wordpool_less_exclusions.txt	LTP225	ltpFR	6	14	1	BEET	115	n/a	0	1	0.412841796875	0.57763671875	upper	../fonts/amplitud.ttf
2302235	WORD	wordpools/wasnorm_wordpool_less_exclusions.txt	LTP225	ltpFR	6	14	1	RAM	1165	n/a	1	1	0.412841796875	0.57763671875	upper	../fonts/amplitud.ttf
2306312	WORD	wordpools/wasnorm_wordpool_less_exclusions.txt	LTP225	ltpFR	6	14	1	MOAT	903	n/a	0	1	0.412841796875	0.57763671875	upper	../fonts/amplitud.ttf
2310521	WORD	wordpools/wasnorm_wordpool_less_exclusions.txt	LTP225	ltpFR	6	14	1	CLIMBER	323	n/a	1	1	0.412841796875	0.57763671875	upper	../fonts/amplitud.ttf
2314582	WORD	wordpools/wasnorm_wordpool_less_exclusions.txt	LTP225	ltpFR	6	14	1	MARKER	870	n/a	0	1	0.412841796875	0.57763671875	upper	../fonts/amplitud.ttf
2318411	WORD	wordpools/wasnorm_wordpool_less_exclusions.txt	LTP225	ltpFR	6	14	1	VET	1560	n/a	1	1	0.412841796875	0.57763671875	upper	../fonts/amplitud.ttf
2322238	WORD	wordpools/wasnorm_wordpool_less_exclusions.txt	LTP225	ltpFR	6	14	1	MUFFIN	929	n/a	0	1	0.412841796875	0.57763671875	upper	../fonts/amplitud.ttf
2326065	WORD	wordpools/wasnorm_wordpool_less_exclusions.txt	LTP225	ltpFR	6	14	1	WHEAT	1602	n/a	0	1	0.412841796875	0.57763671875	upper	../fonts/amplitud.ttf
2331990	REC_START	n/a	LTP225	ltpFR	6	14	n/a	n/a	n/a	n/a	n/a	n/a	n/a	n/a	n/a	n/a
2333222	REC_WORD	wordpools/wasnorm_wordpool_less_exclusions.txt	LTP225	ltpFR	6	14	1	MUFFIN	929	n/a	0	n/a	n/a	n/a	n/a	n/a
2334135	REC_WORD	wordpools/wasnorm_wordpool_less_exclusions.txt	LTP225	ltpFR	6	14	1	CLAM	315	n/a	1	n/a	n/a	n/a	n/a	n/a
2335098	REC_WORD	wordpools/wasnorm_wordpool_less_exclusions.txt	LTP225	ltpFR	6	14	1	WHEAT	1602	n/a	0	n/a	n/a	n/a	n/a	n/a
2336265	REC_WORD	wordpools/wasnorm_wordpool_less_exclusions.txt	LTP225	ltpFR	6	14	1	CLIMBER	323	n/a	1	n/a	n/a	n/a	n/a	n/a
2340802	REC_WORD_VV	wordpools/wasnorm_wordpool_less_exclusions.txt	LTP225	ltpFR	6	14	n/a	<>	-1	n/a	n/a	n/a	n/a	n/a	n/a	n/a
2344217	REC_WORD_VV	wordpools/wasnorm_wordpool_less_exclusions.txt	LTP225	ltpFR	6	14	n/a	<>	-1	n/a	n/a	n/a	n/a	n/a	n/a	n/a
2365603	REC_WORD	wordpools/wasnorm_wordpool_less_exclusions.txt	LTP225	ltpFR	6	14	1	BUN	197	n/a	0	n/a	n/a	n/a	n/a	n/a
2369834	REC_WORD	wordpools/wasnorm_wordpool_less_exclusions.txt	LTP225	ltpFR	6	14	1	MARKER	870	n/a	0	n/a	n/a	n/a	n/a	n/a
2374204	REC_WORD	wordpools/wasnorm_wordpool_less_exclusions.txt	LTP225	ltpFR	6	14	1	ISLAND	745	n/a	0	n/a	n/a	n/a	n/a	n/a
2395251	REC_WORD	wordpools/wasnorm_wordpool_less_exclusions.txt	LTP225	ltpFR	6	14	1	BEET	115	n/a	0	n/a	n/a	n/a	n/a	n/a
2396388	REC_WORD	wordpools/wasnorm_wordpool_less_exclusions.txt	LTP225	ltpFR	6	14	n/a	ROOT	1210	n/a	n/a	n/a	n/a	n/a	n/a	n/a
2411339	WORD	wordpools/wasnorm_wordpool_less_exclusions.txt	LTP225	ltpFR	6	15	0	BANKER	84	n/a	1	0	0.5869140625	0.422607421875	lower	../fonts/zerothre.ttf
2415449	WORD	wordpools/wasnorm_wordpool_less_exclusions.txt	LTP225	ltpFR	6	15	0	FILM	565	n/a	1	0	0.5869140625	0.422607421875	lower	../fonts/zerothre.ttf
2419360	WORD	wordpools/wasnorm_wordpool_less_exclusions.txt	LTP225	ltpFR	6	15	0	PAW	1029	n/a	0	0	0.5869140625	0.422607421875	lower	../fonts/zerothre.ttf
2423503	WORD	wordpools/wasnorm_wordpool_less_exclusions.txt	LTP225	ltpFR	6	15	0	DENIM	446	n/a	0	0	0.5869140625	0.422607421875	lower	../fonts/zerothre.ttf
2427431	WORD	wordpools/wasnorm_wordpool_less_exclusions.txt	LTP225	ltpFR	6	15	0	ZIPPER	1636	n/a	0	0	0.5869140625	0.422607421875	lower	../fonts/zerothre.ttf
2431309	WORD	wordpools/wasnorm_wordpool_less_exclusions.txt	LTP225	ltpFR	6	15	0	HAND	683	n/a	0	0	0.5869140625	0.422607421875	lower	../fonts/zerothre.ttf
2435253	WORD	wordpools/wasnorm_wordpool_less_exclusions.txt	LTP225	ltpFR	6	15	0	NOSE	957	n/a	0	0	0.5869140625	0.422607421875	lower	../fonts/zerothre.ttf
2439462	WORD	wordpools/wasnorm_wordpool_less_exclusions.txt	LTP225	ltpFR	6	15	0	CHIMNEY	301	n/a	1	0	0.5869140625	0.422607421875	lower	../fonts/zerothre.ttf
2443457	WORD	wordpools/wasnorm_wordpool_less_exclusions.txt	LTP225	ltpFR	6	15	0	TORCH	1484	n/a	1	0	0.5869140625	0.422607421875	lower	../fonts/zerothre.ttf
2447583	WORD	wordpools/wasnorm_wordpool_less_exclusions.txt	LTP225	ltpFR	6	15	0	EYELASH	546	n/a	0	0	0.5869140625	0.422607421875	lower	../fonts/zerothre.ttf
2451761	WORD	wordpools/wasnorm_wordpool_less_exclusions.txt	LTP225	ltpFR	6	15	0	CASH	252	n/a	0	0	0.5869140625	0.422607421875	lower	../fonts/zerothre.ttf
2455855	WORD	wordpools/wasnorm_wordpool_less_exclusions.txt	LTP225	ltpFR	6	15	0	COUCH	386	n/a	1	0	0.5869140625	0.422607421875	lower	../fonts/zerothre.ttf
2459682	WORD	wordpools/wasnorm_wordpool_less_exclusions.txt	LTP225	ltpFR	6	15	0	PORCH	1106	n/a	1	0	0.5869140625	0.422607421875	lower	../fonts/zerothre.ttf
2463876	WORD	wordpools/wasnorm_wordpool_less_exclusions.txt	LTP225	ltpFR	6	15	0	BATH	98	n/a	1	0	0.5869140625	0.422607421875	lower	../fonts/zerothre.ttf
2467803	WORD	wordpools/wasnorm_wordpool_less_exclusions.txt	LTP225	ltpFR	6	15	0	PREACHER	1119	n/a	1	0	0.5869140625	0.422607421875	lower	../fonts/zerothre.ttf
2471881	WORD	wordpools/wasnorm_wordpool_less_exclusions.txt	LTP225	ltpFR	6	15	0	LEADER	807	n/a	1	0	0.5869140625	0.422607421875	lower	../fonts/zerothre.ttf
2477872	REC_START	n/a	LTP225	ltpFR	6	15	n/a	n/a	n/a	n/a	n/a	n/a	n/a	n/a	n/a	n/a
2479253	REC_WORD	wordpools/wasnorm_wordpool_less_exclusions.txt	LTP225	ltpFR	6	15	0	LEADER	807	n/a	1	n/a	n/a	n/a	n/a	n/a
2480037	REC_WORD	wordpools/wasnorm_wordpool_less_exclusions.txt	LTP225	ltpFR	6	15	0	PREACHER	1119	n/a	1	n/a	n/a	n/a	n/a	n/a
2481379	REC_WORD	wordpools/wasnorm_wordpool_less_exclusions.txt	LTP225	ltpFR	6	15	0	BATH	98	n/a	1	n/a	n/a	n/a	n/a	n/a
2484586	REC_WORD_VV	wordpools/wasnorm_wordpool_less_exclusions.txt	LTP225	ltpFR	6	15	n/a	<>	-1	n/a	n/a	n/a	n/a	n/a	n/a	n/a
2490209	REC_WORD	wordpools/wasnorm_wordpool_less_exclusions.txt	LTP225	ltpFR	6	15	0	CLAW	319	n/a	0	n/a	n/a	n/a	n/a	n/a
2509600	REC_WORD	wordpools/wasnorm_wordpool_less_exclusions.txt	LTP225	ltpFR	6	15	0	HAND	683	n/a	0	n/a	n/a	n/a	n/a	n/a
2510483	REC_WORD	wordpools/wasnorm_wordpool_less_exclusions.txt	LTP225	ltpFR	6	15	0	NOSE	957	n/a	0	n/a	n/a	n/a	n/a	n/a
2511386	REC_WORD	wordpools/wasnorm_wordpool_less_exclusions.txt	LTP225	ltpFR	6	15	0	EYELASH	546	n/a	0	n/a	n/a	n/a	n/a	n/a
2514533	REC_WORD	wordpools/wasnorm_wordpool_less_exclusions.txt	LTP225	ltpFR	6	15	0	PAW	1029	n/a	0	n/a	n/a	n/a	n/a	n/a
2525279	REC_WORD	wordpools/wasnorm_wordpool_less_exclusions.txt	LTP225	ltpFR	6	15	0	CASH	252	n/a	0	n/a	n/a	n/a	n/a	n/a
2531440	REC_WORD	wordpools/wasnorm_wordpool_less_exclusions.txt	LTP225	ltpFR	6	15	1	MARKER	870	n/a	0	n/a	n/a	n/a	n/a	n/a
2548127	REC_WORD	wordpools/wasnorm_wordpool_less_exclusions.txt	LTP225	ltpFR	6	15	0	COUCH	386	n/a	1	n/a	n/a	n/a	n/a	n/a
2549010	REC_WORD	wordpools/wasnorm_wordpool_less_exclusions.txt	LTP225	ltpFR	6	15	0	COUCH	386	n/a	1	n/a	n/a	n/a	n/a	n/a
2565507	WORD	wordpools/wasnorm_wordpool_less_exclusions.txt	LTP225	ltpFR	6	16	0	CLIFF	322	n/a	2	0	0.5869140625	0.422607421875	lower	../fonts/zerothre.ttf
2567272	KEY_MSG	n/a	LTP225	ltpFR	6	16	n/a	n/a	n/a	n/a	n/a	n/a	n/a	n/a	n/a	n/a
2569768	WORD	wordpools/wasnorm_wordpool_less_exclusions.txt	LTP225	ltpFR	6	16	0	DAISY	435	n/a	0	0	0.5869140625	0.422607421875	lower	../fonts/zerothre.ttf
2573945	WORD	wordpools/wasnorm_wordpool_less_exclusions.txt	LTP225	ltpFR	6	16	1	BUREAU	199	n/a	0	1	0.412841796875	0.57763671875	upper	../fonts/amplitud.ttf
2577772	WORD	wordpools/wasnorm_wordpool_less_exclusions.txt	LTP225	ltpFR	6	16	1	HANDBAG	684	n/a	0	1	0.412841796875	0.57763671875	upper	../fonts/amplitud.ttf
2581617	WORD	wordpools/wasnorm_wordpool_less_exclusions.txt	LTP225	ltpFR	6	16	1	HIKER	708	n/a	1	1	0.412841796875	0.57763671875	upper	../fonts/amplitud.ttf
2585627	WORD	wordpools/wasnorm_wordpool_less_exclusions.txt	LTP225	ltpFR	6	16	1	GARDEN	623	n/a	0	1	0.412841796875	0.57763671875	upper	../fonts/amplitud.ttf
2589671	WORD	wordpools/wasnorm_wordpool_less_exclusions.txt	LTP225	ltpFR	6	16	1	COURSE	390	n/a	0	1	0.412841796875	0.57763671875	upper	../fonts/amplitud.ttf
2593882	WORD	wordpools/wasnorm_wordpool_less_exclusions.txt	LTP225	ltpFR	6	16	0	FIG	563	n/a	0	0	0.5869140625	0.422607421875	lower	../fonts/zerothre.ttf
2597959	WORD	wordpools/wasnorm_wordpool_less_exclusions.txt	LTP225	ltpFR	6	16	0	CATCHER	258	n/a	1	0	0.5869140625	0.422607421875	lower	../fonts/zerothre.ttf
2601920	WORD	wordpools/wasnorm_wordpool_less_exclusions.txt	LTP225	ltpFR	6	16	1	UMPIRE	1535	n/a	1	1	0.412841796875	0.57763671875	upper	../fonts/amplitud.ttf
2606113	WORD	wordpools/wasnorm_wordpool_less_exclusions.txt	LTP225	ltpFR	6	16	1	SPY	1360	n/a	1	1	0.412841796875	0.57763671875	upper	../fonts/amplitud.ttf
2610192	WORD	wordpools/wasnorm_wordpool_less_exclusions.txt	LTP225	ltpFR	6	16	1	TULIP	1517	n/a	0	1	0.412841796875	0.57763671875	upper	../fonts/amplitud.ttf
2614269	WORD	wordpools/wasnorm_wordpool_less_exclusions.txt	LTP225	ltpFR	6	16	0	KLEENEX	782	n/a	n/a	0	0.5869140625	0.422607421875	lower	../fonts/zerothre.ttf
2617298	SLOW_MSG	n/a	LTP225	ltpFR	6	16	n/a	n/a	n/a	n/a	n/a	n/a	n/a	n/a	n/a	n/a
2619876	WORD	wordpools/wasnorm_wordpool_less_exclusions.txt	LTP225	ltpFR	6	16	0	VELVET	1555	n/a	n/a	0	0.5869140625	0.422607421875	lower	../fonts/zerothre.ttf
2622905	SLOW_MSG	n/a	LTP225	ltpFR	6	16	n/a	n/a	n/a	n/a	n/a	n/a	n/a	n/a	n/a	n/a
2625584	WORD	wordpools/wasnorm_wordpool_less_exclusions.txt	LTP225	ltpFR	6	16	0	TILE	1468	n/a	0	0	0.5869140625	0.422607421875	lower	../fonts/zerothre.ttf
2629595	WORD	wordpools/wasnorm_wordpool_less_exclusions.txt	LTP225	ltpFR	6	16	0	CERAMICS	271	n/a	1	0	0.5869140625	0.422607421875	lower	../fonts/zerothre.ttf
2635553	REC_START	n/a	LTP225	ltpFR	6	16	n/a	n/a	n/a	n/a	n/a	n/a	n/a	n/a	n/a	n/a
2637199	REC_WORD	wordpools/wasnorm_wordpool_less_exclusions.txt	LTP225	ltpFR	6	16	0	CERAMICS	271	n/a	1	n/a	n/a	n/a	n/a	n/a
2638199	REC_WORD_VV	wordpools/wasnorm_wordpool_less_exclusions.txt	LTP225	ltpFR	6	16	n/a	<>	-1	n/a	n/a	n/a	n/a	n/a	n/a	n/a
2638696	REC_WORD	wordpools/wasnorm_wordpool_less_exclusions.txt	LTP225	ltpFR	6	16	0	TILE	1468	n/a	0	n/a	n/a	n/a	n/a	n/a
2640886	REC_WORD	wordpools/wasnorm_wordpool_less_exclusions.txt	LTP225	ltpFR	6	16	0	VELVET	1555	n/a	n/a	n/a	n/a	n/a	n/a	n/a
2644472	REC_WORD	wordpools/wasnorm_wordpool_less_exclusions.txt	LTP225	ltpFR	6	16	1	BUREAU	199	n/a	0	n/a	n/a	n/a	n/a	n/a
2645909	REC_WORD	wordpools/wasnorm_wordpool_less_exclusions.txt	LTP225	ltpFR	6	16	1	BUREAU	199	n/a	0	n/a	n/a	n/a	n/a	n/a
2646563	REC_WORD	wordpools/wasnorm_wordpool_less_exclusions.txt	LTP225	ltpFR	6	16	1	SPY	1360	n/a	1	n/a	n/a	n/a	n/a	n/a
2653811	REC_WORD	wordpools/wasnorm_wordpool_less_exclusions.txt	LTP225	ltpFR	6	16	0	FIG	563	n/a	0	n/a	n/a	n/a	n/a	n/a
2662053	REC_WORD	wordpools/wasnorm_wordpool_less_exclusions.txt	LTP225	ltpFR	6	16	0	CERAMICS	271	n/a	1	n/a	n/a	n/a	n/a	n/a
2663938	REC_WORD	wordpools/wasnorm_wordpool_less_exclusions.txt	LTP225	ltpFR	6	16	0	TILE	1468	n/a	0	n/a	n/a	n/a	n/a	n/a
2681087	REC_WORD	wordpools/wasnorm_wordpool_less_exclusions.txt	LTP225	ltpFR	6	16	0	FILM	565	n/a	1	n/a	n/a	n/a	n/a	n/a
2761865	REC_START	n/a	LTP225	ltpFR	6	1	n/a	n/a	n/a	n/a	n/a	n/a	n/a	n/a	n/a	n/a
2761897	RECOG_TARGET	n/a	LTP225	ltpFR	6	1	0	CURTAIN	427	5	1	n/a	n/a	n/a	n/a	n/a
2763059	RECOG_RESP	n/a	LTP225	ltpFR	6	1	0	CURTAIN	427	n/a	1	n/a	n/a	n/a	n/a	n/a
2763954	RECOG_RESP_VV	n/a	LTP225	ltpFR	6	1	0	CURTAIN	427	5	1	n/a	n/a	n/a	n/a	n/a
2765006	RECOG_CONF	n/a	LTP225	ltpFR	6	1	0	CURTAIN	427	5	1	n/a	n/a	n/a	n/a	n/a
2766773	RECOG_TARGET	n/a	LTP225	ltpFR	6	1	1	VET	1560	5	1	n/a	n/a	n/a	n/a	n/a
2767771	RECOG_RESP	n/a	LTP225	ltpFR	6	1	1	VET	1560	n/a	1	n/a	n/a	n/a	n/a	n/a
2768706	RECOG_CONF	n/a	LTP225	ltpFR	6	1	1	VET	1560	5	1	n/a	n/a	n/a	n/a	n/a
2770651	RECOG_TARGET	n/a	LTP225	ltpFR	6	1	0	BUTLER	204	5	1	n/a	n/a	n/a	n/a	n/a
2772008	RECOG_RESP	n/a	LTP225	ltpFR	6	1	0	BUTLER	204	n/a	1	n/a	n/a	n/a	n/a	n/a
2772972	RECOG_CONF	n/a	LTP225	ltpFR	6	1	0	BUTLER	204	5	1	n/a	n/a	n/a	n/a	n/a
2774978	RECOG_TARGET	n/a	LTP225	ltpFR	6	1	0	WAGON	1578	3	1	n/a	n/a	n/a	n/a	n/a
2776128	RECOG_RESP	n/a	LTP225	ltpFR	6	1	0	WAGON	1578	n/a	1	n/a	n/a	n/a	n/a	n/a
2777314	RECOG_CONF	n/a	LTP225	ltpFR	6	1	0	WAGON	1578	3	1	n/a	n/a	n/a	n/a	n/a
2779389	RECOG_TARGET	n/a	LTP225	ltpFR	6	1	0	HOOD	714	5	0	n/a	n/a	n/a	n/a	n/a
2780622	RECOG_RESP	n/a	LTP225	ltpFR	6	1	0	HOOD	714	n/a	0	n/a	n/a	n/a	n/a	n/a
2781512	RECOG_CONF	n/a	LTP225	ltpFR	6	1	0	HOOD	714	5	0	n/a	n/a	n/a	n/a	n/a
2783433	RECOG_TARGET	n/a	LTP225	ltpFR	6	1	0	MOUSE	925	5	0	n/a	n/a	n/a	n/a	n/a
2784709	RECOG_RESP	n/a	LTP225	ltpFR	6	1	0	MOUSE	925	n/a	0	n/a	n/a	n/a	n/a	n/a
2785809	RECOG_CONF	n/a	LTP225	ltpFR	6	1	0	MOUSE	925	5	0	n/a	n/a	n/a	n/a	n/a
2787942	RECOG_TARGET	n/a	LTP225	ltpFR	6	1	0	ATLAS	53	5	1	n/a	n/a	n/a	n/a	n/a
2788955	RECOG_RESP	n/a	LTP225	ltpFR	6	1	0	ATLAS	53	n/a	1	n/a	n/a	n/a	n/a	n/a
2790096	RECOG_CONF	n/a	LTP225	ltpFR	6	1	0	ATLAS	53	5	1	n/a	n/a	n/a	n/a	n/a
2792303	RECOG_TARGET	n/a	LTP225	ltpFR	6	1	1	LADY	794	3	1	n/a	n/a	n/a	n/a	n/a
2794481	RECOG_RESP	n/a	LTP225	ltpFR	6	1	1	LADY	794	n/a	1	n/a	n/a	n/a	n/a	n/a
2795557	RECOG_CONF	n/a	LTP225	ltpFR	6	1	1	LADY	794	3	1	n/a	n/a	n/a	n/a	n/a
2797429	RECOG_TARGET	n/a	LTP225	ltpFR	6	1	-1	BACKBONE	66	5	-1	n/a	n/a	n/a	n/a	n/a
2798436	RECOG_RESP	n/a	LTP225	ltpFR	6	1	-1	BACKBONE	66	n/a	-1	n/a	n/a	n/a	n/a	n/a
2799480	RECOG_CONF	n/a	LTP225	ltpFR	6	1	-1	BACKBONE	66	5	-1	n/a	n/a	n/a	n/a	n/a
2801655	RECOG_TARGET	n/a	LTP225	ltpFR	6	1	1	TRUCK	1512	5	0	n/a	n/a	n/a	n/a	n/a
2802504	RECOG_RESP	n/a	LTP225	ltpFR	6	1	1	TRUCK	1512	n/a	0	n/a	n/a	n/a	n/a	n/a
2803588	RECOG_CONF	n/a	LTP225	ltpFR	6	1	1	TRUCK	1512	5	0	n/a	n/a	n/a	n/a	n/a
2805417	RECOG_TARGET	n/a	LTP225	ltpFR	6	1	1	CAFETERIA	217	5	0	n/a	n/a	n/a	n/a	n/a
2806443	RECOG_RESP	n/a	LTP225	ltpFR	6	1	1	CAFETERIA	217	n/a	0	n/a	n/a	n/a	n/a	n/a
2807553	RECOG_CONF	n/a	LTP225	ltpFR	6	1	1	CAFETERIA	217	5	0	n/a	n/a	n/a	n/a	n/a
2809643	RECOG_TARGET	n/a	LTP225	ltpFR	6	1	1	LITTER	832	5	0	n/a	n/a	n/a	n/a	n/a
2810631	RECOG_RESP	n/a	LTP225	ltpFR	6	1	1	LITTER	832	n/a	0	n/a	n/a	n/a	n/a	n/a
2811796	RECOG_CONF	n/a	LTP225	ltpFR	6	1	1	LITTER	832	5	0	n/a	n/a	n/a	n/a	n/a
2813953	RECOG_LURE	n/a	LTP225	ltpFR	6	1	n/a	HERD	705	3	n/a	n/a	n/a	n/a	n/a	n/a
2816546	RECOG_RESP	n/a	LTP225	ltpFR	6	1	n/a	HERD	705	n/a	n/a	n/a	n/a	n/a	n/a	n/a
2817653	RECOG_CONF	n/a	LTP225	ltpFR	6	1	n/a	HERD	705	3	n/a	n/a	n/a	n/a	n/a	n/a
2819628	RECOG_LURE	n/a	LTP225	ltpFR	6	1	n/a	BANDAGE	79	3	n/a	n/a	n/a	n/a	n/a	n/a
2821190	RECOG_RESP	n/a	LTP225	ltpFR	6	1	n/a	BANDAGE	79	n/a	n/a	n/a	n/a	n/a	n/a	n/a
2822234	RECOG_CONF	n/a	LTP225	ltpFR	6	1	n/a	BANDAGE	79	3	n/a	n/a	n/a	n/a	n/a	n/a
2824138	RECOG_TARGET	n/a	LTP225	ltpFR	6	1	0	PENNY	1045	5	0	n/a	n/a	n/a	n/a	n/a
2825305	RECOG_RESP	n/a	LTP225	ltpFR	6	1	0	PENNY	1045	n/a	0	n/a	n/a	n/a	n/a	n/a
2826293	RECOG_CONF	n/a	LTP225	ltpFR	6	1	0	PENNY	1045	5	0	n/a	n/a	n/a	n/a	n/a
2828199	RECOG_TARGET	n/a	LTP225	ltpFR	6	1	0	SAGE	1222	5	0	n/a	n/a	n/a	n/a	n/a
2829272	RECOG_RESP	n/a	LTP225	ltpFR	6	1	0	SAGE	1222	n/a	0	n/a	n/a	n/a	n/a	n/a
2830114	RECOG_CONF	n/a	LTP225	ltpFR	6	1	0	SAGE	1222	5	0	n/a	n/a	n/a	n/a	n/a
2832109	RECOG_TARGET	n/a	LTP225	ltpFR	6	1	1	RADISH	1158	4	0	n/a	n/a	n/a	n/a	n/a
2833597	RECOG_RESP	n/a	LTP225	ltpFR	6	1	1	RADISH	1158	n/a	0	n/a	n/a	n/a	n/a	n/a
2834571	RECOG_CONF	n/a	LTP225	ltpFR	6	1	1	RADISH	1158	4	0	n/a	n/a	n/a	n/a	n/a
2836636	RECOG_TARGET	n/a	LTP225	ltpFR	6	1	-1	NAVIGATOR	938	5	-1	n/a	n/a	n/a	n/a	n/a
2837697	RECOG_RESP	n/a	LTP225	ltpFR	6	1	-1	NAVIGATOR	938	n/a	-1	n/a	n/a	n/a	n/a	n/a
2838567	RECOG_CONF	n/a	LTP225	ltpFR	6	1	-1	NAVIGATOR	938	5	-1	n/a	n/a	n/a	n/a	n/a
2840730	RECOG_LURE	n/a	LTP225	ltpFR	6	1	n/a	DUNGEON	507	3	n/a	n/a	n/a	n/a	n/a	n/a
2843064	RECOG_RESP	n/a	LTP225	ltpFR	6	1	n/a	DUNGEON	507	n/a	n/a	n/a	n/a	n/a	n/a	n/a
2843957	RECOG_CONF	n/a	LTP225	ltpFR	6	1	n/a	DUNGEON	507	3	n/a	n/a	n/a	n/a	n/a	n/a
2845872	RECOG_TARGET	n/a	LTP225	ltpFR	6	1	-1	AIRPLANE	12	5	-1	n/a	n/a	n/a	n/a	n/a
2847252	RECOG_RESP	n/a	LTP225	ltpFR	6	1	-1	AIRPLANE	12	n/a	-1	n/a	n/a	n/a	n/a	n/a
2848145	RECOG_CONF	n/a	LTP225	ltpFR	6	1	-1	AIRPLANE	12	5	-1	n/a	n/a	n/a	n/a	n/a
2854978	REC_START	n/a	LTP225	ltpFR	6	2	n/a	n/a	n/a	n/a	n/a	n/a	n/a	n/a	n/a	n/a
2855008	RECOG_TARGET	n/a	LTP225	ltpFR	6	2	1	TULIP	1517	5	0	n/a	n/a	n/a	n/a	n/a
2856180	RECOG_RESP	n/a	LTP225	ltpFR	6	2	1	TULIP	1517	n/a	0	n/a	n/a	n/a	n/a	n/a
2857086	RECOG_CONF	n/a	LTP225	ltpFR	6	2	1	TULIP	1517	5	0	n/a	n/a	n/a	n/a	n/a
2859002	RECOG_LURE	n/a	LTP225	ltpFR	6	2	n/a	BANDANNA	80	2	n/a	n/a	n/a	n/a	n/a	n/a
2860222	RECOG_RESP	n/a	LTP225	ltpFR	6	2	n/a	BANDANNA	80	n/a	n/a	n/a	n/a	n/a	n/a	n/a
2861455	RECOG_CONF	n/a	LTP225	ltpFR	6	2	n/a	BANDANNA	80	2	n/a	n/a	n/a	n/a	n/a	n/a
2863214	RECOG_TARGET	n/a	LTP225	ltpFR	6	2	1	GUARD	667	5	1	n/a	n/a	n/a	n/a	n/a
2864574	RECOG_RESP	n/a	LTP225	ltpFR	6	2	1	GUARD	667	n/a	1	n/a	n/a	n/a	n/a	n/a
2865559	RECOG_CONF	n/a	LTP225	ltpFR	6	2	1	GUARD	667	5	1	n/a	n/a	n/a	n/a	n/a
2867706	RECOG_TARGET	n/a	LTP225	ltpFR	6	2	1	BALLOON	75	5	0	n/a	n/a	n/a	n/a	n/a
2868522	RECOG_RESP	n/a	LTP225	ltpFR	6	2	1	BALLOON	75	n/a	0	n/a	n/a	n/a	n/a	n/a
2869631	RECOG_CONF	n/a	LTP225	ltpFR	6	2	1	BALLOON	75	5	0	n/a	n/a	n/a	n/a	n/a
2871633	RECOG_TARGET	n/a	LTP225	ltpFR	6	2	1	RAFT	1159	5	0	n/a	n/a	n/a	n/a	n/a
2872582	RECOG_RESP	n/a	LTP225	ltpFR	6	2	1	RAFT	1159	n/a	0	n/a	n/a	n/a	n/a	n/a
2873530	RECOG_CONF	n/a	LTP225	ltpFR	6	2	1	RAFT	1159	5	0	n/a	n/a	n/a	n/a	n/a
2875694	RECOG_TARGET	n/a	LTP225	ltpFR	6	2	-1	MOOSE	915	5	-1	n/a	n/a	n/a	n/a	n/a
2876580	RECOG_RESP	n/a	LTP225	ltpFR	6	2	-1	MOOSE	915	n/a	-1	n/a	n/a	n/a	n/a	n/a
2877403	RECOG_CONF	n/a	LTP225	ltpFR	6	2	-1	MOOSE	915	5	-1	n/a	n/a	n/a	n/a	n/a
2879223	RECOG_LURE	n/a	LTP225	ltpFR	6	2	n/a	DICTIONARY	463	3	n/a	n/a	n/a	n/a	n/a	n/a
2881505	RECOG_RESP	n/a	LTP225	ltpFR	6	2	n/a	DICTIONARY	463	n/a	n/a	n/a	n/a	n/a	n/a	n/a
2882775	RECOG_CONF	n/a	LTP225	ltpFR	6	2	n/a	DICTIONARY	463	3	n/a	n/a	n/a	n/a	n/a	n/a
2884747	RECOG_TARGET	n/a	LTP225	ltpFR	6	2	1	TROMBONE	1508	5	0	n/a	n/a	n/a	n/a	n/a
2886346	RECOG_RESP	n/a	LTP225	ltpFR	6	2	1	TROMBONE	1508	n/a	0	n/a	n/a	n/a	n/a	n/a
2887359	RECOG_CONF	n/a	LTP225	ltpFR	6	2	1	TROMBONE	1508	5	0	n/a	n/a	n/a	n/a	n/a
2889408	RECOG_TARGET	n/a	LTP225	ltpFR	6	2	1	BAKER	71	5	1	n/a	n/a	n/a	n/a	n/a
2890243	RECOG_RESP	n/a	LTP225	ltpFR	6	2	1	BAKER	71	n/a	1	n/a	n/a	n/a	n/a	n/a
2891254	RECOG_CONF	n/a	LTP225	ltpFR	6	2	1	BAKER	71	5	1	n/a	n/a	n/a	n/a	n/a
2893219	RECOG_TARGET	n/a	LTP225	ltpFR	6	2	-1	NOTEBOOK	959	5	-1	n/a	n/a	n/a	n/a	n/a
2894070	RECOG_RESP	n/a	LTP225	ltpFR	6	2	-1	NOTEBOOK	959	n/a	-1	n/a	n/a	n/a	n/a	n/a
2895132	RECOG_CONF	n/a	LTP225	ltpFR	6	2	-1	NOTEBOOK	959	5	-1	n/a	n/a	n/a	n/a	n/a
2897145	RECOG_LURE	n/a	LTP225	ltpFR	6	2	n/a	ZOO	1637	4	n/a	n/a	n/a	n/a	n/a	n/a
2898393	RECOG_RESP_VV	n/a	LTP225	ltpFR	6	2	n/a	ZOO	1637	n/a	n/a	n/a	n/a	n/a	n/a	n/a
2899561	RECOG_RESP	n/a	LTP225	ltpFR	6	2	n/a	ZOO	1637	n/a	n/a	n/a	n/a	n/a	n/a	n/a
2900716	RECOG_CONF	n/a	LTP225	ltpFR	6	2	n/a	ZOO	1637	4	n/a	n/a	n/a	n/a	n/a	n/a
2902504	RECOG_TARGET	n/a	LTP225	ltpFR	6	2	1	TENT	1449	5	0	n/a	n/a	n/a	n/a	n/a
2903492	RECOG_RESP	n/a	LTP225	ltpFR	6	2	1	TENT	1449	n/a	0	n/a	n/a	n/a	n/a	n/a
2904285	RECOG_CONF	n/a	LTP225	ltpFR	6	2	1	TENT	1449	5	0	n/a	n/a	n/a	n/a	n/a
2906266	RECOG_TARGET	n/a	LTP225	ltpFR	6	2	1	DANDRUFF	439	5	0	n/a	n/a	n/a	n/a	n/a
2907259	RECOG_RESP	n/a	LTP225	ltpFR	6	2	1	DANDRUFF	439	n/a	0	n/a	n/a	n/a	n/a	n/a
2908338	RECOG_CONF	n/a	LTP225	ltpFR	6	2	1	DANDRUFF	439	5	0	n/a	n/a	n/a	n/a	n/a
2910327	RECOG_TARGET	n/a	LTP225	ltpFR	6	2	-1	TEMPLE	1448	5	-1	n/a	n/a	n/a	n/a	n/a
2911193	RECOG_RESP	n/a	LTP225	ltpFR	6	2	-1	TEMPLE	1448	n/a	-1	n/a	n/a	n/a	n/a	n/a
2912340	RECOG_CONF	n/a	LTP225	ltpFR	6	2	-1	TEMPLE	1448	5	-1	n/a	n/a	n/a	n/a	n/a
2914204	RECOG_TARGET	n/a	LTP225	ltpFR	6	2	-1	PROTON	1132	4	-1	n/a	n/a	n/a	n/a	n/a
2915680	RECOG_RESP	n/a	LTP225	ltpFR	6	2	-1	PROTON	1132	n/a	-1	n/a	n/a	n/a	n/a	n/a
2916619	RECOG_CONF	n/a	LTP225	ltpFR	6	2	-1	PROTON	1132	4	-1	n/a	n/a	n/a	n/a	n/a
2918530	RECOG_LURE	n/a	LTP225	ltpFR	6	2	n/a	MITTEN	902	3	n/a	n/a	n/a	n/a	n/a	n/a
2920339	RECOG_RESP	n/a	LTP225	ltpFR	6	2	n/a	MITTEN	902	n/a	n/a	n/a	n/a	n/a	n/a	n/a
2921801	RECOG_CONF	n/a	LTP225	ltpFR	6	2	n/a	MITTEN	902	3	n/a	n/a	n/a	n/a	n/a	n/a
2923739	RECOG_TARGET	n/a	LTP225	ltpFR	6	2	1	RESTAURANT	1187	5	0	n/a	n/a	n/a	n/a	n/a
2924979	RECOG_RESP	n/a	LTP225	ltpFR	6	2	1	RESTAURANT	1187	n/a	0	n/a	n/a	n/a	n/a	n/a
2925810	RECOG_CONF	n/a	LTP225	ltpFR	6	2	1	RESTAURANT	1187	5	0	n/a	n/a	n/a	n/a	n/a
2927650	RECOG_TARGET	n/a	LTP225	ltpFR	6	2	1	CLAM	315	5	1	n/a	n/a	n/a	n/a	n/a
2928659	RECOG_RESP	n/a	LTP225	ltpFR	6	2	1	CLAM	315	n/a	1	n/a	n/a	n/a	n/a	n/a
2929745	RECOG_CONF	n/a	LTP225	ltpFR	6	2	1	CLAM	315	5	1	n/a	n/a	n/a	n/a	n/a
2931710	RECOG_TARGET	n/a	LTP225	ltpFR	6	2	-1	CORPORATION	382	5	-1	n/a	n/a	n/a	n/a	n/a
2932633	RECOG_RESP	n/a	LTP225	ltpFR	6	2	-1	CORPORATION	382	n/a	-1	n/a	n/a	n/a	n/a	n/a
2933556	RECOG_CONF	n/a	LTP225	ltpFR	6	2	-1	CORPORATION	382	5	-1	n/a	n/a	n/a	n/a	n/a
2935838	RECOG_LURE	n/a	LTP225	ltpFR	6	2	n/a	PUDDING	1139	3	n/a	n/a	n/a	n/a	n/a	n/a
2937321	RECOG_RESP	n/a	LTP225	ltpFR	6	2	n/a	PUDDING	1139	n/a	n/a	n/a	n/a	n/a	n/a	n/a
2938843	RECOG_CONF	n/a	LTP225	ltpFR	6	2	n/a	PUDDING	1139	3	n/a	n/a	n/a	n/a	n/a	n/a
2944513	REC_START	n/a	LTP225	ltpFR	6	3	n/a	n/a	n/a	n/a	n/a	n/a	n/a	n/a	n/a	n/a
2944558	RECOG_LURE	n/a	LTP225	ltpFR	6	3	n/a	STETHOSCOPE	1379	4	n/a	n/a	n/a	n/a	n/a	n/a
2946429	RECOG_RESP	n/a	LTP225	ltpFR	6	3	n/a	STETHOSCOPE	1379	n/a	n/a	n/a	n/a	n/a	n/a	n/a
2947561	RECOG_CONF	n/a	LTP225	ltpFR	6	3	n/a	STETHOSCOPE	1379	4	n/a	n/a	n/a	n/a	n/a	n/a
2949134	RECOG_TARGET	n/a	LTP225	ltpFR	6	3	-1	DWARF	510	5	-1	n/a	n/a	n/a	n/a	n/a
2950369	RECOG_RESP	n/a	LTP225	ltpFR	6	3	-1	DWARF	510	n/a	-1	n/a	n/a	n/a	n/a	n/a
2951307	RECOG_CONF	n/a	LTP225	ltpFR	6	3	-1	DWARF	510	5	-1	n/a	n/a	n/a	n/a	n/a
2953396	RECOG_TARGET	n/a	LTP225	ltpFR	6	3	0	ENEMY	534	5	1	n/a	n/a	n/a	n/a	n/a
2954540	RECOG_RESP	n/a	LTP225	ltpFR	6	3	0	ENEMY	534	n/a	1	n/a	n/a	n/a	n/a	n/a
2955583	RECOG_CONF	n/a	LTP225	ltpFR	6	3	0	ENEMY	534	5	1	n/a	n/a	n/a	n/a	n/a
2957373	RECOG_TARGET	n/a	LTP225	ltpFR	6	3	1	STAFF	1365	5	1	n/a	n/a	n/a	n/a	n/a
2958130	RECOG_RESP	n/a	LTP225	ltpFR	6	3	1	STAFF	1365	n/a	1	n/a	n/a	n/a	n/a	n/a
2959143	RECOG_CONF	n/a	LTP225	ltpFR	6	3	1	STAFF	1365	5	1	n/a	n/a	n/a	n/a	n/a
2961400	RECOG_LURE	n/a	LTP225	ltpFR	6	3	n/a	MOWER	928	3	n/a	n/a	n/a	n/a	n/a	n/a
2962848	RECOG_RESP	n/a	LTP225	ltpFR	6	3	n/a	MOWER	928	n/a	n/a	n/a	n/a	n/a	n/a	n/a
2964278	RECOG_CONF	n/a	LTP225	ltpFR	6	3	n/a	MOWER	928	3	n/a	n/a	n/a	n/a	n/a	n/a
2966310	RECOG_TARGET	n/a	LTP225	ltpFR	6	3	0	DENIM	446	5	0	n/a	n/a	n/a	n/a	n/a
2967331	RECOG_RESP	n/a	LTP225	ltpFR	6	3	0	DENIM	446	n/a	0	n/a	n/a	n/a	n/a	n/a
2968224	RECOG_CONF	n/a	LTP225	ltpFR	6	3	0	DENIM	446	5	0	n/a	n/a	n/a	n/a	n/a
2970187	RECOG_LURE	n/a	LTP225	ltpFR	6	3	n/a	RUM	1217	3	n/a	n/a	n/a	n/a	n/a	n/a
2972334	RECOG_RESP	n/a	LTP225	ltpFR	6	3	n/a	RUM	1217	n/a	n/a	n/a	n/a	n/a	n/a	n/a
2973422	RECOG_CONF	n/a	LTP225	ltpFR	6	3	n/a	RUM	1217	3	n/a	n/a	n/a	n/a	n/a	n/a
2975495	RECOG_TARGET	n/a	LTP225	ltpFR	6	3	-1	JUPITER	765	5	-1	n/a	n/a	n/a	n/a	n/a
2976699	RECOG_RESP	n/a	LTP225	ltpFR	6	3	-1	JUPITER	765	n/a	-1	n/a	n/a	n/a	n/a	n/a
2977682	RECOG_CONF	n/a	LTP225	ltpFR	6	3	-1	JUPITER	765	5	-1	n/a	n/a	n/a	n/a	n/a
2979622	RECOG_TARGET	n/a	LTP225	ltpFR	6	3	-1	SHACK	1273	5	-1	n/a	n/a	n/a	n/a	n/a
2980631	RECOG_RESP	n/a	LTP225	ltpFR	6	3	-1	SHACK	1273	n/a	-1	n/a	n/a	n/a	n/a	n/a
2981748	RECOG_CONF	n/a	LTP225	ltpFR	6	3	-1	SHACK	1273	5	-1	n/a	n/a	n/a	n/a	n/a
2983816	RECOG_LURE	n/a	LTP225	ltpFR	6	3	n/a	BALL	73	2	n/a	n/a	n/a	n/a	n/a	n/a
2985971	RECOG_RESP	n/a	LTP225	ltpFR	6	3	n/a	BALL	73	n/a	n/a	n/a	n/a	n/a	n/a	n/a
2987171	RECOG_CONF	n/a	LTP225	ltpFR	6	3	n/a	BALL	73	2	n/a	n/a	n/a	n/a	n/a	n/a
2988875	RECOG_TARGET	n/a	LTP225	ltpFR	6	3	-1	KNAPSACK	783	5	-1	n/a	n/a	n/a	n/a	n/a
2989957	RECOG_RESP	n/a	LTP225	ltpFR	6	3	-1	KNAPSACK	783	n/a	-1	n/a	n/a	n/a	n/a	n/a
2990972	RECOG_CONF	n/a	LTP225	ltpFR	6	3	-1	KNAPSACK	783	5	-1	n/a	n/a	n/a	n/a	n/a
2993019	RECOG_LURE	n/a	LTP225	ltpFR	6	3	n/a	BROCCOLI	176	2	n/a	n/a	n/a	n/a	n/a	n/a
2994679	RECOG_RESP	n/a	LTP225	ltpFR	6	3	n/a	BROCCOLI	176	n/a	n/a	n/a	n/a	n/a	n/a	n/a
2995825	RECOG_CONF	n/a	LTP225	ltpFR	6	3	n/a	BROCCOLI	176	2	n/a	n/a	n/a	n/a	n/a	n/a
2997479	RECOG_TARGET	n/a	LTP225	ltpFR	6	3	0	HORSE	719	3	1	n/a	n/a	n/a	n/a	n/a
3000046	RECOG_RESP	n/a	LTP225	ltpFR	6	3	0	HORSE	719	n/a	1	n/a	n/a	n/a	n/a	n/a
3001129	RECOG_CONF	n/a	LTP225	ltpFR	6	3	0	HORSE	719	3	1	n/a	n/a	n/a	n/a	n/a
3003021	RECOG_LURE	n/a	LTP225	ltpFR	6	3	n/a	DAGGER	434	2	n/a	n/a	n/a	n/a	n/a	n/a
3004501	RECOG_RESP	n/a	LTP225	ltpFR	6	3	n/a	DAGGER	434	n/a	n/a	n/a	n/a	n/a	n/a	n/a
3005591	RECOG_CONF	n/a	LTP225	ltpFR	6	3	n/a	DAGGER	434	2	n/a	n/a	n/a	n/a	n/a	n/a
3007315	RECOG_LURE	n/a	LTP225	ltpFR	6	3	n/a	PIKE	1067	5	n/a	n/a	n/a	n/a	n/a	n/a
3009325	RECOG_RESP	n/a	LTP225	ltpFR	6	3	n/a	PIKE	1067	n/a	n/a	n/a	n/a	n/a	n/a	n/a
3010558	RECOG_CONF	n/a	LTP225	ltpFR	6	3	n/a	PIKE	1067	5	n/a	n/a	n/a	n/a	n/a	n/a
3012606	RECOG_LURE	n/a	LTP225	ltpFR	6	3	n/a	FRANCE	601	2	n/a	n/a	n/a	n/a	n/a	n/a
3014080	RECOG_RESP	n/a	LTP225	ltpFR	6	3	n/a	FRANCE	601	n/a	n/a	n/a	n/a	n/a	n/a	n/a
3015237	RECOG_CONF	n/a	LTP225	ltpFR	6	3	n/a	FRANCE	601	2	n/a	n/a	n/a	n/a	n/a	n/a
3016883	RECOG_TARGET	n/a	LTP225	ltpFR	6	3	1	WAITER	1580	5	1	n/a	n/a	n/a	n/a	n/a
3018101	RECOG_RESP	n/a	LTP225	ltpFR	6	3	1	WAITER	1580	n/a	1	n/a	n/a	n/a	n/a	n/a
3019073	RECOG_CONF	n/a	LTP225	ltpFR	6	3	1	WAITER	1580	5	1	n/a	n/a	n/a	n/a	n/a
3021044	RECOG_TARGET	n/a	LTP225	ltpFR	6	3	-1	BALLOT	76	5	-1	n/a	n/a	n/a	n/a	n/a
3021982	RECOG_RESP	n/a	LTP225	ltpFR	6	3	-1	BALLOT	76	n/a	-1	n/a	n/a	n/a	n/a	n/a
3023019	RECOG_CONF	n/a	LTP225	ltpFR	6	3	-1	BALLOT	76	5	-1	n/a	n/a	n/a	n/a	n/a
3025338	RECOG_LURE	n/a	LTP225	ltpFR	6	3	n/a	JACKET	747	3	n/a	n/a	n/a	n/a	n/a	n/a
3026715	RECOG_RESP	n/a	LTP225	ltpFR	6	3	n/a	JACKET	747	n/a	n/a	n/a	n/a	n/a	n/a	n/a
3028282	RECOG_CONF	n/a	LTP225	ltpFR	6	3	n/a	JACKET	747	3	n/a	n/a	n/a	n/a	n/a	n/a
3030281	RECOG_LURE	n/a	LTP225	ltpFR	6	3	n/a	MESSAGE	888	3	n/a	n/a	n/a	n/a	n/a	n/a
3031854	RECOG_RESP	n/a	LTP225	ltpFR	6	3	n/a	MESSAGE	888	n/a	n/a	n/a	n/a	n/a	n/a	n/a
3033067	RECOG_CONF	n/a	LTP225	ltpFR	6	3	n/a	MESSAGE	888	3	n/a	n/a	n/a	n/a	n/a	n/a
3038515	REC_START	n/a	LTP225	ltpFR	6	4	n/a	n/a	n/a	n/a	n/a	n/a	n/a	n/a	n/a	n/a
3038551	RECOG_LURE	n/a	LTP225	ltpFR	6	4	n/a	BULLY	196	2	n/a	n/a	n/a	n/a	n/a	n/a
3041051	RECOG_RESP	n/a	LTP225	ltpFR	6	4	n/a	BULLY	196	n/a	n/a	n/a	n/a	n/a	n/a	n/a
3042171	RECOG_CONF	n/a	LTP225	ltpFR	6	4	n/a	BULLY	196	2	n/a	n/a	n/a	n/a	n/a	n/a
3043793	RECOG_LURE	n/a	LTP225	ltpFR	6	4	n/a	MINT	898	3	n/a	n/a	n/a	n/a	n/a	n/a
3046004	RECOG_RESP	n/a	LTP225	ltpFR	6	4	n/a	MINT	898	n/a	n/a	n/a	n/a	n/a	n/a	n/a
3046821	RECOG_RESP_VV	n/a	LTP225	ltpFR	6	4	n/a	MINT	898	3	n/a	n/a	n/a	n/a	n/a	n/a
3048661	RECOG_CONF	n/a	LTP225	ltpFR	6	4	n/a	MINT	898	3	n/a	n/a	n/a	n/a	n/a	n/a
3050351	RECOG_LURE	n/a	LTP225	ltpFR	6	4	n/a	BEER	114	3	n/a	n/a	n/a	n/a	n/a	n/a
3051907	RECOG_RESP	n/a	LTP225	ltpFR	6	4	n/a	BEER	114	n/a	n/a	n/a	n/a	n/a	n/a	n/a
3053135	RECOG_CONF	n/a	LTP225	ltpFR	6	4	n/a	BEER	114	3	n/a	n/a	n/a	n/a	n/a	n/a
3054993	RECOG_TARGET	n/a	LTP225	ltpFR	6	4	1	WHEAT	1602	5	0	n/a	n/a	n/a	n/a	n/a
3056307	RECOG_RESP	n/a	LTP225	ltpFR	6	4	1	WHEAT	1602	n/a	0	n/a	n/a	n/a	n/a	n/a
3057347	RECOG_CONF	n/a	LTP225	ltpFR	6	4	1	WHEAT	1602	5	0	n/a	n/a	n/a	n/a	n/a
3059188	RECOG_TARGET	n/a	LTP225	ltpFR	6	4	-1	WAITRESS	1581	5	-1	n/a	n/a	n/a	n/a	n/a
3060087	RECOG_RESP	n/a	LTP225	ltpFR	6	4	-1	WAITRESS	1581	n/a	-1	n/a	n/a	n/a	n/a	n/a
3061282	RECOG_CONF	n/a	LTP225	ltpFR	6	4	-1	WAITRESS	1581	5	-1	n/a	n/a	n/a	n/a	n/a
3063081	RECOG_LURE	n/a	LTP225	ltpFR	6	4	n/a	BRAIN	165	3	n/a	n/a	n/a	n/a	n/a	n/a
3064605	RECOG_RESP	n/a	LTP225	ltpFR	6	4	n/a	BRAIN	165	n/a	n/a	n/a	n/a	n/a	n/a	n/a
3065785	RECOG_CONF	n/a	LTP225	ltpFR	6	4	n/a	BRAIN	165	3	n/a	n/a	n/a	n/a	n/a	n/a
3067691	RECOG_TARGET	n/a	LTP225	ltpFR	6	4	0	HELMET	702	5	1	n/a	n/a	n/a	n/a	n/a
3069140	RECOG_RESP	n/a	LTP225	ltpFR	6	4	0	HELMET	702	n/a	1	n/a	n/a	n/a	n/a	n/a
3070063	RECOG_CONF	n/a	LTP225	ltpFR	6	4	0	HELMET	702	5	1	n/a	n/a	n/a	n/a	n/a
3071968	RECOG_LURE	n/a	LTP225	ltpFR	6	4	n/a	RASH	1167	3	n/a	n/a	n/a	n/a	n/a	n/a
3073774	RECOG_RESP	n/a	LTP225	ltpFR	6	4	n/a	RASH	1167	n/a	n/a	n/a	n/a	n/a	n/a	n/a
3074969	RECOG_CONF	n/a	LTP225	ltpFR	6	4	n/a	RASH	1167	3	n/a	n/a	n/a	n/a	n/a	n/a
3076794	RECOG_LURE	n/a	LTP225	ltpFR	6	4	n/a	PEARL	1034	2	n/a	n/a	n/a	n/a	n/a	n/a
3078828	RECOG_RESP	n/a	LTP225	ltpFR	6	4	n/a	PEARL	1034	n/a	n/a	n/a	n/a	n/a	n/a	n/a
3079901	RECOG_CONF	n/a	LTP225	ltpFR	6	4	n/a	PEARL	1034	2	n/a	n/a	n/a	n/a	n/a	n/a
3081820	RECOG_TARGET	n/a	LTP225	ltpFR	6	4	0	HAND	683	5	0	n/a	n/a	n/a	n/a	n/a
3082900	RECOG_RESP	n/a	LTP225	ltpFR	6	4	0	HAND	683	n/a	0	n/a	n/a	n/a	n/a	n/a
3083958	RECOG_CONF	n/a	LTP225	ltpFR	6	4	0	HAND	683	5	0	n/a	n/a	n/a	n/a	n/a
3085880	RECOG_TARGET	n/a	LTP225	ltpFR	6	4	1	NITROGEN	954	5	0	n/a	n/a	n/a	n/a	n/a
3087144	RECOG_RESP	n/a	LTP225	ltpFR	6	4	1	NITROGEN	954	n/a	0	n/a	n/a	n/a	n/a	n/a
3088224	RECOG_CONF	n/a	LTP225	ltpFR	6	4	1	NITROGEN	954	5	0	n/a	n/a	n/a	n/a	n/a
3089991	RECOG_TARGET	n/a	LTP225	ltpFR	6	4	1	SLIDE	1326	5	0	n/a	n/a	n/a	n/a	n/a
3090871	RECOG_RESP	n/a	LTP225	ltpFR	6	4	1	SLIDE	1326	n/a	0	n/a	n/a	n/a	n/a	n/a
3091992	RECOG_CONF	n/a	LTP225	ltpFR	6	4	1	SLIDE	1326	5	0	n/a	n/a	n/a	n/a	n/a
3093968	RECOG_TARGET	n/a	LTP225	ltpFR	6	4	1	COURSE	390	5	0	n/a	n/a	n/a	n/a	n/a
3095111	RECOG_RESP	n/a	LTP225	ltpFR	6	4	1	COURSE	390	n/a	0	n/a	n/a	n/a	n/a	n/a
3096275	RECOG_CONF	n/a	LTP225	ltpFR	6	4	1	COURSE	390	5	0	n/a	n/a	n/a	n/a	n/a
3098263	RECOG_LURE	n/a	LTP225	ltpFR	6	4	n/a	VITAMIN	1574	3	n/a	n/a	n/a	n/a	n/a	n/a
3099535	RECOG_RESP	n/a	LTP225	ltpFR	6	4	n/a	VITAMIN	1574	n/a	n/a	n/a	n/a	n/a	n/a	n/a
3100685	RECOG_CONF	n/a	LTP225	ltpFR	6	4	n/a	VITAMIN	1574	3	n/a	n/a	n/a	n/a	n/a	n/a
3102655	RECOG_LURE	n/a	LTP225	ltpFR	6	4	n/a	CHECKERS	285	2	n/a	n/a	n/a	n/a	n/a	n/a
3105245	RECOG_RESP	n/a	LTP225	ltpFR	6	4	n/a	CHECKERS	285	n/a	n/a	n/a	n/a	n/a	n/a	n/a
3106475	RECOG_CONF	n/a	LTP225	ltpFR	6	4	n/a	CHECKERS	285	2	n/a	n/a	n/a	n/a	n/a	n/a
3108198	RECOG_LURE	n/a	LTP225	ltpFR	6	4	n/a	CHIEF	298	3	n/a	n/a	n/a	n/a	n/a	n/a
3109666	RECOG_RESP	n/a	LTP225	ltpFR	6	4	n/a	CHIEF	298	n/a	n/a	n/a	n/a	n/a	n/a	n/a
3110815	RECOG_CONF	n/a	LTP225	ltpFR	6	4	n/a	CHIEF	298	3	n/a	n/a	n/a	n/a	n/a	n/a
3112540	RECOG_TARGET	n/a	LTP225	ltpFR	6	4	0	COUCH	386	5	1	n/a	n/a	n/a	n/a	n/a
3113988	RECOG_RESP	n/a	LTP225	ltpFR	6	4	0	COUCH	386	n/a	1	n/a	n/a	n/a	n/a	n/a
3114871	RECOG_CONF	n/a	LTP225	ltpFR	6	4	0	COUCH	386	5	1	n/a	n/a	n/a	n/a	n/a
3116867	RECOG_TARGET	n/a	LTP225	ltpFR	6	4	0	PURSE	1145	5	0	n/a	n/a	n/a	n/a	n/a
3117688	RECOG_RESP	n/a	LTP225	ltpFR	6	4	0	PURSE	1145	n/a	0	n/a	n/a	n/a	n/a	n/a
3118884	RECOG_CONF	n/a	LTP225	ltpFR	6	4	0	PURSE	1145	5	0	n/a	n/a	n/a	n/a	n/a
3120778	RECOG_TARGET	n/a	LTP225	ltpFR	6	4	-1	NUT	965	5	-1	n/a	n/a	n/a	n/a	n/a
3121506	RECOG_RESP	n/a	LTP225	ltpFR	6	4	-1	NUT	965	n/a	-1	n/a	n/a	n/a	n/a	n/a
3122688	RECOG_CONF	n/a	LTP225	ltpFR	6	4	-1	NUT	965	5	-1	n/a	n/a	n/a	n/a	n/a
3124905	RECOG_TARGET	n/a	LTP225	ltpFR	6	4	0	SEAGULL	1261	5	1	n/a	n/a	n/a	n/a	n/a
3125961	RECOG_RESP	n/a	LTP225	ltpFR	6	4	0	SEAGULL	1261	n/a	1	n/a	n/a	n/a	n/a	n/a
3126985	RECOG_CONF	n/a	LTP225	ltpFR	6	4	0	SEAGULL	1261	5	1	n/a	n/a	n/a	n/a	n/a
3131653	REC_START	n/a	LTP225	ltpFR	6	5	n/a	n/a	n/a	n/a	n/a	n/a	n/a	n/a	n/a	n/a
3131678	RECOG_LURE	n/a	LTP225	ltpFR	6	5	n/a	KNEE	784	2	n/a	n/a	n/a	n/a	n/a	n/a
3133959	RECOG_RESP	n/a	LTP225	ltpFR	6	5	n/a	KNEE	784	n/a	n/a	n/a	n/a	n/a	n/a	n/a
3135261	RECOG_CONF	n/a	LTP225	ltpFR	6	5	n/a	KNEE	784	2	n/a	n/a	n/a	n/a	n/a	n/a
3137188	RECOG_TARGET	n/a	LTP225	ltpFR	6	5	-1	TOTE	1487	5	-1	n/a	n/a	n/a	n/a	n/a
3138197	RECOG_RESP	n/a	LTP225	ltpFR	6	5	-1	TOTE	1487	n/a	-1	n/a	n/a	n/a	n/a	n/a
3139248	RECOG_CONF	n/a	LTP225	ltpFR	6	5	-1	TOTE	1487	5	-1	n/a	n/a	n/a	n/a	n/a
3141282	RECOG_TARGET	n/a	LTP225	ltpFR	6	5	1	OWNER	993	5	1	n/a	n/a	n/a	n/a	n/a
3142282	RECOG_RESP	n/a	LTP225	ltpFR	6	5	1	OWNER	993	n/a	1	n/a	n/a	n/a	n/a	n/a
3143391	RECOG_CONF	n/a	LTP225	ltpFR	6	5	1	OWNER	993	5	1	n/a	n/a	n/a	n/a	n/a
3145409	RECOG_TARGET	n/a	LTP225	ltpFR	6	5	0	CLAW	319	5	0	n/a	n/a	n/a	n/a	n/a
3146389	RECOG_RESP	n/a	LTP225	ltpFR	6	5	0	CLAW	319	n/a	0	n/a	n/a	n/a	n/a	n/a
3147416	RECOG_CONF	n/a	LTP225	ltpFR	6	5	0	CLAW	319	5	0	n/a	n/a	n/a	n/a	n/a
3149303	RECOG_LURE	n/a	LTP225	ltpFR	6	5	n/a	COLONEL	348	3	n/a	n/a	n/a	n/a	n/a	n/a
3151233	RECOG_RESP	n/a	LTP225	ltpFR	6	5	n/a	COLONEL	348	n/a	n/a	n/a	n/a	n/a	n/a	n/a
3152616	RECOG_CONF	n/a	LTP225	ltpFR	6	5	n/a	COLONEL	348	3	n/a	n/a	n/a	n/a	n/a	n/a
3154561	RECOG_TARGET	n/a	LTP225	ltpFR	6	5	1	DRAWING	494	5	0	n/a	n/a	n/a	n/a	n/a
3155938	RECOG_RESP	n/a	LTP225	ltpFR	6	5	1	DRAWING	494	n/a	0	n/a	n/a	n/a	n/a	n/a
3156803	RECOG_CONF	n/a	LTP225	ltpFR	6	5	1	DRAWING	494	5	0	n/a	n/a	n/a	n/a	n/a
3158555	RECOG_TARGET	n/a	LTP225	ltpFR	6	5	1	MUFFIN	929	5	0	n/a	n/a	n/a	n/a	n/a
3160113	RECOG_RESP	n/a	LTP225	ltpFR	6	5	1	MUFFIN	929	n/a	0	n/a	n/a	n/a	n/a	n/a
3161103	RECOG_CONF	n/a	LTP225	ltpFR	6	5	1	MUFFIN	929	5	0	n/a	n/a	n/a	n/a	n/a
3162715	RECOG_TARGET	n/a	LTP225	ltpFR	6	5	0	VELVET	1555	5	n/a	n/a	n/a	n/a	n/a	n/a
3164165	RECOG_RESP	n/a	LTP225	ltpFR	6	5	0	VELVET	1555	n/a	n/a	n/a	n/a	n/a	n/a	n/a
3165724	RECOG_CONF	n/a	LTP225	ltpFR	6	5	0	VELVET	1555	5	n/a	n/a	n/a	n/a	n/a	n/a
3167741	RECOG_LURE	n/a	LTP225	ltpFR	6	5	n/a	PANTHER	1009	3	n/a	n/a	n/a	n/a	n/a	n/a
3169424	RECOG_RESP	n/a	LTP225	ltpFR	6	5	n/a	PANTHER	1009	n/a	n/a	n/a	n/a	n/a	n/a	n/a
3171204	RECOG_CONF	n/a	LTP225	ltpFR	6	5	n/a	PANTHER	1009	3	n/a	n/a	n/a	n/a	n/a	n/a
3173201	RECOG_TARGET	n/a	LTP225	ltpFR	6	5	-1	FIREPLACE	570	5	-1	n/a	n/a	n/a	n/a	n/a
3174144	RECOG_RESP	n/a	LTP225	ltpFR	6	5	-1	FIREPLACE	570	n/a	-1	n/a	n/a	n/a	n/a	n/a
3175413	RECOG_CONF	n/a	LTP225	ltpFR	6	5	-1	FIREPLACE	570	5	-1	n/a	n/a	n/a	n/a	n/a
3177411	RECOG_TARGET	n/a	LTP225	ltpFR	6	5	0	SWING	1421	5	1	n/a	n/a	n/a	n/a	n/a
3178331	RECOG_RESP	n/a	LTP225	ltpFR	6	5	0	SWING	1421	n/a	1	n/a	n/a	n/a	n/a	n/a
3179956	RECOG_CONF	n/a	LTP225	ltpFR	6	5	0	SWING	1421	5	1	n/a	n/a	n/a	n/a	n/a
3182204	RECOG_LURE	n/a	LTP225	ltpFR	6	5	n/a	PIER	1063	4	n/a	n/a	n/a	n/a	n/a	n/a
3183578	RECOG_RESP	n/a	LTP225	ltpFR	6	5	n/a	PIER	1063	n/a	n/a	n/a	n/a	n/a	n/a	n/a
3184676	RECOG_CONF	n/a	LTP225	ltpFR	6	5	n/a	PIER	1063	4	n/a	n/a	n/a	n/a	n/a	n/a
3186696	RECOG_LURE	n/a	LTP225	ltpFR	6	5	n/a	MAGAZINE	853	2	n/a	n/a	n/a	n/a	n/a	n/a
3189063	RECOG_RESP	n/a	LTP225	ltpFR	6	5	n/a	MAGAZINE	853	n/a	n/a	n/a	n/a	n/a	n/a	n/a
3190245	RECOG_CONF	n/a	LTP225	ltpFR	6	5	n/a	MAGAZINE	853	2	n/a	n/a	n/a	n/a	n/a	n/a
3192239	RECOG_TARGET	n/a	LTP225	ltpFR	6	5	0	OZONE	996	5	1	n/a	n/a	n/a	n/a	n/a
3193830	RECOG_RESP	n/a	LTP225	ltpFR	6	5	0	OZONE	996	n/a	1	n/a	n/a	n/a	n/a	n/a
3195034	RECOG_CONF	n/a	LTP225	ltpFR	6	5	0	OZONE	996	5	1	n/a	n/a	n/a	n/a	n/a
3196781	RECOG_TARGET	n/a	LTP225	ltpFR	6	5	-1	OFFICER	973	5	-1	n/a	n/a	n/a	n/a	n/a
3197852	RECOG_RESP	n/a	LTP225	ltpFR	6	5	-1	OFFICER	973	n/a	-1	n/a	n/a	n/a	n/a	n/a
3199127	RECOG_CONF	n/a	LTP225	ltpFR	6	5	-1	OFFICER	973	5	-1	n/a	n/a	n/a	n/a	n/a
3201008	RECOG_TARGET	n/a	LTP225	ltpFR	6	5	1	KEEPER	769	5	1	n/a	n/a	n/a	n/a	n/a
3201898	RECOG_RESP	n/a	LTP225	ltpFR	6	5	1	KEEPER	769	n/a	1	n/a	n/a	n/a	n/a	n/a
3203054	RECOG_CONF	n/a	LTP225	ltpFR	6	5	1	KEEPER	769	5	1	n/a	n/a	n/a	n/a	n/a
3205152	RECOG_TARGET	n/a	LTP225	ltpFR	6	5	1	PIGEON	1065	5	1	n/a	n/a	n/a	n/a	n/a
3205977	RECOG_RESP	n/a	LTP225	ltpFR	6	5	1	PIGEON	1065	n/a	1	n/a	n/a	n/a	n/a	n/a
3207120	RECOG_CONF	n/a	LTP225	ltpFR	6	5	1	PIGEON	1065	5	1	n/a	n/a	n/a	n/a	n/a
3209129	RECOG_TARGET	n/a	LTP225	ltpFR	6	5	1	ISLAND	745	5	0	n/a	n/a	n/a	n/a	n/a
3210052	RECOG_RESP	n/a	LTP225	ltpFR	6	5	1	ISLAND	745	n/a	0	n/a	n/a	n/a	n/a	n/a
3211457	RECOG_CONF	n/a	LTP225	ltpFR	6	5	1	ISLAND	745	5	0	n/a	n/a	n/a	n/a	n/a
3213391	RECOG_TARGET	n/a	LTP225	ltpFR	6	5	0	TIGER	1467	3	1	n/a	n/a	n/a	n/a	n/a
3215141	RECOG_RESP	n/a	LTP225	ltpFR	6	5	0	TIGER	1467	n/a	1	n/a	n/a	n/a	n/a	n/a
3216443	RECOG_CONF	n/a	LTP225	ltpFR	6	5	0	TIGER	1467	3	1	n/a	n/a	n/a	n/a	n/a
3218300	RECOG_LURE	n/a	LTP225	ltpFR	6	5	n/a	PARTY	1018	5	n/a	n/a	n/a	n/a	n/a	n/a
3219308	RECOG_RESP	n/a	LTP225	ltpFR	6	5	n/a	PARTY	1018	n/a	n/a	n/a	n/a	n/a	n/a	n/a
3220426	RECOG_CONF	n/a	LTP225	ltpFR	6	5	n/a	PARTY	1018	5	n/a	n/a	n/a	n/a	n/a	n/a
3224953	REC_START	n/a	LTP225	ltpFR	6	6	n/a	n/a	n/a	n/a	n/a	n/a	n/a	n/a	n/a	n/a
3224989	RECOG_LURE	n/a	LTP225	ltpFR	6	6	n/a	COAL	332	2	n/a	n/a	n/a	n/a	n/a	n/a
3227340	RECOG_RESP	n/a	LTP225	ltpFR	6	6	n/a	COAL	332	n/a	n/a	n/a	n/a	n/a	n/a	n/a
3228319	RECOG_CONF	n/a	LTP225	ltpFR	6	6	n/a	COAL	332	2	n/a	n/a	n/a	n/a	n/a	n/a
3230148	RECOG_TARGET	n/a	LTP225	ltpFR	6	6	1	ALLIGATOR	16	5	1	n/a	n/a	n/a	n/a	n/a
3231228	RECOG_RESP	n/a	LTP225	ltpFR	6	6	1	ALLIGATOR	16	n/a	1	n/a	n/a	n/a	n/a	n/a
3232183	RECOG_CONF	n/a	LTP225	ltpFR	6	6	1	ALLIGATOR	16	5	1	n/a	n/a	n/a	n/a	n/a
3234025	RECOG_LURE	n/a	LTP225	ltpFR	6	6	n/a	CAULIFLOWER	262	3	n/a	n/a	n/a	n/a	n/a	n/a
3235217	RECOG_RESP	n/a	LTP225	ltpFR	6	6	n/a	CAULIFLOWER	262	n/a	n/a	n/a	n/a	n/a	n/a	n/a
3236929	RECOG_CONF	n/a	LTP225	ltpFR	6	6	n/a	CAULIFLOWER	262	3	n/a	n/a	n/a	n/a	n/a	n/a
3238669	RECOG_TARGET	n/a	LTP225	ltpFR	6	6	0	TERMITE	1451	5	0	n/a	n/a	n/a	n/a	n/a
3239854	RECOG_RESP	n/a	LTP225	ltpFR	6	6	0	TERMITE	1451	n/a	0	n/a	n/a	n/a	n/a	n/a
3240946	RECOG_CONF	n/a	LTP225	ltpFR	6	6	0	TERMITE	1451	5	0	n/a	n/a	n/a	n/a	n/a
3242929	RECOG_TARGET	n/a	LTP225	ltpFR	6	6	0	KLEENEX	782	5	n/a	n/a	n/a	n/a	n/a	n/a
3243760	RECOG_RESP	n/a	LTP225	ltpFR	6	6	0	KLEENEX	782	n/a	n/a	n/a	n/a	n/a	n/a	n/a
3245098	RECOG_CONF	n/a	LTP225	ltpFR	6	6	0	KLEENEX	782	5	n/a	n/a	n/a	n/a	n/a	n/a
3247174	RECOG_TARGET	n/a	LTP225	ltpFR	6	6	1	BEET	115	5	0	n/a	n/a	n/a	n/a	n/a
3248105	RECOG_RESP	n/a	LTP225	ltpFR	6	6	1	BEET	115	n/a	0	n/a	n/a	n/a	n/a	n/a
3249306	RECOG_CONF	n/a	LTP225	ltpFR	6	6	1	BEET	115	5	0	n/a	n/a	n/a	n/a	n/a
3251234	RECOG_LURE	n/a	LTP225	ltpFR	6	6	n/a	PLUM	1090	2	n/a	n/a	n/a	n/a	n/a	n/a
3253597	RECOG_RESP	n/a	LTP225	ltpFR	6	6	n/a	PLUM	1090	n/a	n/a	n/a	n/a	n/a	n/a	n/a
3254880	RECOG_CONF	n/a	LTP225	ltpFR	6	6	n/a	PLUM	1090	2	n/a	n/a	n/a	n/a	n/a	n/a
3256791	RECOG_TARGET	n/a	LTP225	ltpFR	6	6	-1	DAD	433	5	-1	n/a	n/a	n/a	n/a	n/a
3257733	RECOG_RESP	n/a	LTP225	ltpFR	6	6	-1	DAD	433	n/a	-1	n/a	n/a	n/a	n/a	n/a
3258934	RECOG_CONF	n/a	LTP225	ltpFR	6	6	-1	DAD	433	5	-1	n/a	n/a	n/a	n/a	n/a
3261068	RECOG_TARGET	n/a	LTP225	ltpFR	6	6	1	LOFT	840	4	0	n/a	n/a	n/a	n/a	n/a
3262609	RECOG_RESP	n/a	LTP225	ltpFR	6	6	1	LOFT	840	n/a	0	n/a	n/a	n/a	n/a	n/a
3263832	RECOG_CONF	n/a	LTP225	ltpFR	6	6	1	LOFT	840	4	0	n/a	n/a	n/a	n/a	n/a
3265845	RECOG_TARGET	n/a	LTP225	ltpFR	6	6	1	MAID	856	5	1	n/a	n/a	n/a	n/a	n/a
3266605	RECOG_RESP	n/a	LTP225	ltpFR	6	6	1	MAID	856	n/a	1	n/a	n/a	n/a	n/a	n/a
3267800	RECOG_CONF	n/a	LTP225	ltpFR	6	6	1	MAID	856	5	1	n/a	n/a	n/a	n/a	n/a
3269789	RECOG_LURE	n/a	LTP225	ltpFR	6	6	n/a	IRON	744	3	n/a	n/a	n/a	n/a	n/a	n/a
3271078	RECOG_RESP	n/a	LTP225	ltpFR	6	6	n/a	IRON	744	n/a	n/a	n/a	n/a	n/a	n/a	n/a
3272459	RECOG_CONF	n/a	LTP225	ltpFR	6	6	n/a	IRON	744	3	n/a	n/a	n/a	n/a	n/a	n/a
3274283	RECOG_TARGET	n/a	LTP225	ltpFR	6	6	0	CHAMPION	279	5	1	n/a	n/a	n/a	n/a	n/a
3275343	RECOG_RESP	n/a	LTP225	ltpFR	6	6	0	CHAMPION	279	n/a	1	n/a	n/a	n/a	n/a	n/a
3276451	RECOG_CONF	n/a	LTP225	ltpFR	6	6	0	CHAMPION	279	5	1	n/a	n/a	n/a	n/a	n/a
3278260	RECOG_LURE	n/a	LTP225	ltpFR	6	6	n/a	HOE	711	2	n/a	n/a	n/a	n/a	n/a	n/a
3279664	RECOG_RESP	n/a	LTP225	ltpFR	6	6	n/a	HOE	711	n/a	n/a	n/a	n/a	n/a	n/a	n/a
3280710	RECOG_CONF	n/a	LTP225	ltpFR	6	6	n/a	HOE	711	2	n/a	n/a	n/a	n/a	n/a	n/a
3282620	RECOG_TARGET	n/a	LTP225	ltpFR	6	6	0	CRAB	397	5	0	n/a	n/a	n/a	n/a	n/a
3283489	RECOG_RESP	n/a	LTP225	ltpFR	6	6	0	CRAB	397	n/a	0	n/a	n/a	n/a	n/a	n/a
3284605	RECOG_CONF	n/a	LTP225	ltpFR	6	6	0	CRAB	397	5	0	n/a	n/a	n/a	n/a	n/a
3286415	RECOG_TARGET	n/a	LTP225	ltpFR	6	6	0	CASH	252	5	0	n/a	n/a	n/a	n/a	n/a
3287311	RECOG_RESP	n/a	LTP225	ltpFR	6	6	0	CASH	252	n/a	0	n/a	n/a	n/a	n/a	n/a
3288341	RECOG_CONF	n/a	LTP225	ltpFR	6	6	0	CASH	252	5	0	n/a	n/a	n/a	n/a	n/a
3290442	RECOG_TARGET	n/a	LTP225	ltpFR	6	6	-1	SCOTCH	1251	5	-1	n/a	n/a	n/a	n/a	n/a
3291291	RECOG_RESP	n/a	LTP225	ltpFR	6	6	-1	SCOTCH	1251	n/a	-1	n/a	n/a	n/a	n/a	n/a
3292608	RECOG_CONF	n/a	LTP225	ltpFR	6	6	-1	SCOTCH	1251	5	-1	n/a	n/a	n/a	n/a	n/a
3294485	RECOG_TARGET	n/a	LTP225	ltpFR	6	6	1	CARPENTER	246	5	1	n/a	n/a	n/a	n/a	n/a
3295552	RECOG_RESP	n/a	LTP225	ltpFR	6	6	1	CARPENTER	246	n/a	1	n/a	n/a	n/a	n/a	n/a
3296591	RECOG_CONF	n/a	LTP225	ltpFR	6	6	1	CARPENTER	246	5	1	n/a	n/a	n/a	n/a	n/a
3298513	RECOG_TARGET	n/a	LTP225	ltpFR	6	6	0	TRENCH	1503	4	1	n/a	n/a	n/a	n/a	n/a
3299645	RECOG_RESP	n/a	LTP225	ltpFR	6	6	0	TRENCH	1503	n/a	1	n/a	n/a	n/a	n/a	n/a
3301532	RECOG_CONF	n/a	LTP225	ltpFR	6	6	0	TRENCH	1503	4	1	n/a	n/a	n/a	n/a	n/a
3303705	RECOG_TARGET	n/a	LTP225	ltpFR	6	6	-1	FENCE	560	5	-1	n/a	n/a	n/a	n/a	n/a
3304905	RECOG_RESP	n/a	LTP225	ltpFR	6	6	-1	FENCE	560	n/a	-1	n/a	n/a	n/a	n/a	n/a
3306339	RECOG_CONF	n/a	LTP225	ltpFR	6	6	-1	FENCE	560	5	-1	n/a	n/a	n/a	n/a	n/a
3308249	RECOG_LURE	n/a	LTP225	ltpFR	6	6	n/a	TURNIP	1521	3	n/a	n/a	n/a	n/a	n/a	n/a
3310398	RECOG_RESP	n/a	LTP225	ltpFR	6	6	n/a	TURNIP	1521	n/a	n/a	n/a	n/a	n/a	n/a	n/a
3311581	RECOG_CONF	n/a	LTP225	ltpFR	6	6	n/a	TURNIP	1521	3	n/a	n/a	n/a	n/a	n/a	n/a
3316259	REC_START	n/a	LTP225	ltpFR	6	7	n/a	n/a	n/a	n/a	n/a	n/a	n/a	n/a	n/a	n/a
3316287	RECOG_LURE	n/a	LTP225	ltpFR	6	7	n/a	SPHINX	1349	3	n/a	n/a	n/a	n/a	n/a	n/a
3318791	RECOG_RESP	n/a	LTP225	ltpFR	6	7	n/a	SPHINX	1349	n/a	n/a	n/a	n/a	n/a	n/a	n/a
3320563	RECOG_CONF	n/a	LTP225	ltpFR	6	7	n/a	SPHINX	1349	3	n/a	n/a	n/a	n/a	n/a	n/a
3322195	RECOG_LURE	n/a	LTP225	ltpFR	6	7	n/a	UNIVERSE	1540	4	n/a	n/a	n/a	n/a	n/a	n/a
3323717	RECOG_RESP	n/a	LTP225	ltpFR	6	7	n/a	UNIVERSE	1540	n/a	n/a	n/a	n/a	n/a	n/a	n/a
3325583	RECOG_CONF	n/a	LTP225	ltpFR	6	7	n/a	UNIVERSE	1540	4	n/a	n/a	n/a	n/a	n/a	n/a
3327337	RECOG_TARGET	n/a	LTP225	ltpFR	6	7	1	POOL	1103	3	0	n/a	n/a	n/a	n/a	n/a
3329389	RECOG_RESP	n/a	LTP225	ltpFR	6	7	1	POOL	1103	n/a	0	n/a	n/a	n/a	n/a	n/a
3331320	RECOG_CONF	n/a	LTP225	ltpFR	6	7	1	POOL	1103	3	0	n/a	n/a	n/a	n/a	n/a
3333245	RECOG_TARGET	n/a	LTP225	ltpFR	6	7	1	JUG	762	5	0	n/a	n/a	n/a	n/a	n/a
3334083	RECOG_RESP	n/a	LTP225	ltpFR	6	7	1	JUG	762	n/a	0	n/a	n/a	n/a	n/a	n/a
3335176	RECOG_CONF	n/a	LTP225	ltpFR	6	7	1	JUG	762	5	0	n/a	n/a	n/a	n/a	n/a
3337189	RECOG_LURE	n/a	LTP225	ltpFR	6	7	n/a	BUFFALO	186	5	n/a	n/a	n/a	n/a	n/a	n/a
3338229	RECOG_RESP	n/a	LTP225	ltpFR	6	7	n/a	BUFFALO	186	n/a	n/a	n/a	n/a	n/a	n/a	n/a
3339549	RECOG_CONF	n/a	LTP225	ltpFR	6	7	n/a	BUFFALO	186	5	n/a	n/a	n/a	n/a	n/a	n/a
3341748	RECOG_LURE	n/a	LTP225	ltpFR	6	7	n/a	LEOPARD	812	3	n/a	n/a	n/a	n/a	n/a	n/a
3343940	RECOG_RESP	n/a	LTP225	ltpFR	6	7	n/a	LEOPARD	812	n/a	n/a	n/a	n/a	n/a	n/a	n/a
3345457	RECOG_CONF	n/a	LTP225	ltpFR	6	7	n/a	LEOPARD	812	3	n/a	n/a	n/a	n/a	n/a	n/a
3347440	RECOG_TARGET	n/a	LTP225	ltpFR	6	7	-1	LUMBER	848	5	-1	n/a	n/a	n/a	n/a	n/a
3348659	RECOG_RESP	n/a	LTP225	ltpFR	6	7	-1	LUMBER	848	n/a	-1	n/a	n/a	n/a	n/a	n/a
3349997	RECOG_CONF	n/a	LTP225	ltpFR	6	7	-1	LUMBER	848	5	-1	n/a	n/a	n/a	n/a	n/a
3351816	RECOG_TARGET	n/a	LTP225	ltpFR	6	7	1	BRIDGE	174	5	0	n/a	n/a	n/a	n/a	n/a
3352676	RECOG_RESP	n/a	LTP225	ltpFR	6	7	1	BRIDGE	174	n/a	0	n/a	n/a	n/a	n/a	n/a
3353864	RECOG_CONF	n/a	LTP225	ltpFR	6	7	1	BRIDGE	174	5	0	n/a	n/a	n/a	n/a	n/a
3356027	RECOG_LURE	n/a	LTP225	ltpFR	6	7	n/a	STEW	1380	3	n/a	n/a	n/a	n/a	n/a	n/a
3357477	RECOG_RESP	n/a	LTP225	ltpFR	6	7	n/a	STEW	1380	n/a	n/a	n/a	n/a	n/a	n/a	n/a
3358947	RECOG_CONF	n/a	LTP225	ltpFR	6	7	n/a	STEW	1380	3	n/a	n/a	n/a	n/a	n/a	n/a
3360736	RECOG_LURE	n/a	LTP225	ltpFR	6	7	n/a	BEE	112	5	n/a	n/a	n/a	n/a	n/a	n/a
3362343	RECOG_RESP	n/a	LTP225	ltpFR	6	7	n/a	BEE	112	n/a	n/a	n/a	n/a	n/a	n/a	n/a
3363886	RECOG_CONF	n/a	LTP225	ltpFR	6	7	n/a	BEE	112	5	n/a	n/a	n/a	n/a	n/a	n/a
3365712	RECOG_TARGET	n/a	LTP225	ltpFR	6	7	-1	LAGOON	795	3	-1	n/a	n/a	n/a	n/a	n/a
3367567	RECOG_RESP	n/a	LTP225	ltpFR	6	7	-1	LAGOON	795	n/a	-1	n/a	n/a	n/a	n/a	n/a
3368891	RECOG_CONF	n/a	LTP225	ltpFR	6	7	-1	LAGOON	795	3	-1	n/a	n/a	n/a	n/a	n/a
3370938	RECOG_LURE	n/a	LTP225	ltpFR	6	7	n/a	PADDING	999	3	n/a	n/a	n/a	n/a	n/a	n/a
3372391	RECOG_RESP	n/a	LTP225	ltpFR	6	7	n/a	PADDING	999	n/a	n/a	n/a	n/a	n/a	n/a	n/a
3373771	RECOG_CONF	n/a	LTP225	ltpFR	6	7	n/a	PADDING	999	3	n/a	n/a	n/a	n/a	n/a	n/a
3375647	RECOG_LURE	n/a	LTP225	ltpFR	6	7	n/a	CRADLE	399	3	n/a	n/a	n/a	n/a	n/a	n/a
3377007	RECOG_RESP	n/a	LTP225	ltpFR	6	7	n/a	CRADLE	399	n/a	n/a	n/a	n/a	n/a	n/a	n/a
3378254	RECOG_CONF	n/a	LTP225	ltpFR	6	7	n/a	CRADLE	399	3	n/a	n/a	n/a	n/a	n/a	n/a
3379941	RECOG_TARGET	n/a	LTP225	ltpFR	6	7	-1	NAPKIN	937	5	-1	n/a	n/a	n/a	n/a	n/a
3380967	RECOG_RESP	n/a	LTP225	ltpFR	6	7	-1	NAPKIN	937	n/a	-1	n/a	n/a	n/a	n/a	n/a
3382307	RECOG_CONF	n/a	LTP225	ltpFR	6	7	-1	NAPKIN	937	5	-1	n/a	n/a	n/a	n/a	n/a
3384135	RECOG_TARGET	n/a	LTP225	ltpFR	6	7	0	PIT	1077	5	1	n/a	n/a	n/a	n/a	n/a
3385247	RECOG_RESP	n/a	LTP225	ltpFR	6	7	0	PIT	1077	n/a	1	n/a	n/a	n/a	n/a	n/a
3386364	RECOG_CONF	n/a	LTP225	ltpFR	6	7	0	PIT	1077	5	1	n/a	n/a	n/a	n/a	n/a
3388230	RECOG_TARGET	n/a	LTP225	ltpFR	6	7	0	DIVER	476	5	1	n/a	n/a	n/a	n/a	n/a
3389015	RECOG_RESP	n/a	LTP225	ltpFR	6	7	0	DIVER	476	n/a	1	n/a	n/a	n/a	n/a	n/a
3390166	RECOG_CONF	n/a	LTP225	ltpFR	6	7	0	DIVER	476	5	1	n/a	n/a	n/a	n/a	n/a
3392106	RECOG_TARGET	n/a	LTP225	ltpFR	6	7	-1	DAM	436	5	-1	n/a	n/a	n/a	n/a	n/a
3392984	RECOG_RESP	n/a	LTP225	ltpFR	6	7	-1	DAM	436	n/a	-1	n/a	n/a	n/a	n/a	n/a
3394086	RECOG_CONF	n/a	LTP225	ltpFR	6	7	-1	DAM	436	5	-1	n/a	n/a	n/a	n/a	n/a
3395967	RECOG_LURE	n/a	LTP225	ltpFR	6	7	n/a	WHIP	1604	3	n/a	n/a	n/a	n/a	n/a	n/a
3397495	RECOG_RESP	n/a	LTP225	ltpFR	6	7	n/a	WHIP	1604	n/a	n/a	n/a	n/a	n/a	n/a	n/a
3398645	RECOG_CONF	n/a	LTP225	ltpFR	6	7	n/a	WHIP	1604	3	n/a	n/a	n/a	n/a	n/a	n/a
3400328	RECOG_TARGET	n/a	LTP225	ltpFR	6	7	0	RUNNER	1218	5	1	n/a	n/a	n/a	n/a	n/a
3401349	RECOG_RESP	n/a	LTP225	ltpFR	6	7	0	RUNNER	1218	n/a	1	n/a	n/a	n/a	n/a	n/a
3402842	RECOG_CONF	n/a	LTP225	ltpFR	6	7	0	RUNNER	1218	5	1	n/a	n/a	n/a	n/a	n/a
3404854	RECOG_TARGET	n/a	LTP225	ltpFR	6	7	1	PEAR	1033	4	0	n/a	n/a	n/a	n/a	n/a
3406139	RECOG_RESP	n/a	LTP225	ltpFR	6	7	1	PEAR	1033	n/a	0	n/a	n/a	n/a	n/a	n/a
3407194	RECOG_CONF	n/a	LTP225	ltpFR	6	7	1	PEAR	1033	4	0	n/a	n/a	n/a	n/a	n/a
3412911	REC_START	n/a	LTP225	ltpFR	6	8	n/a	n/a	n/a	n/a	n/a	n/a	n/a	n/a	n/a	n/a
3412942	RECOG_TARGET	n/a	LTP225	ltpFR	6	8	1	MARKER	870	5	0	n/a	n/a	n/a	n/a	n/a
3414432	RECOG_RESP	n/a	LTP225	ltpFR	6	8	1	MARKER	870	n/a	0	n/a	n/a	n/a	n/a	n/a
3415839	RECOG_CONF	n/a	LTP225	ltpFR	6	8	1	MARKER	870	5	0	n/a	n/a	n/a	n/a	n/a
3417618	RECOG_LURE	n/a	LTP225	ltpFR	6	8	n/a	CORD	379	3	n/a	n/a	n/a	n/a	n/a	n/a
3419516	RECOG_RESP	n/a	LTP225	ltpFR	6	8	n/a	CORD	379	n/a	n/a	n/a	n/a	n/a	n/a	n/a
3420768	RECOG_CONF	n/a	LTP225	ltpFR	6	8	n/a	CORD	379	3	n/a	n/a	n/a	n/a	n/a	n/a
3422860	RECOG_LURE	n/a	LTP225	ltpFR	6	8	n/a	BUTCHER	203	3	n/a	n/a	n/a	n/a	n/a	n/a
3424958	RECOG_RESP	n/a	LTP225	ltpFR	6	8	n/a	BUTCHER	203	n/a	n/a	n/a	n/a	n/a	n/a	n/a
3426315	RECOG_CONF	n/a	LTP225	ltpFR	6	8	n/a	BUTCHER	203	3	n/a	n/a	n/a	n/a	n/a	n/a
3428036	RECOG_TARGET	n/a	LTP225	ltpFR	6	8	0	ROOM	1206	4	1	n/a	n/a	n/a	n/a	n/a
3429957	RECOG_RESP	n/a	LTP225	ltpFR	6	8	0	ROOM	1206	n/a	1	n/a	n/a	n/a	n/a	n/a
3431075	RECOG_CONF	n/a	LTP225	ltpFR	6	8	0	ROOM	1206	4	1	n/a	n/a	n/a	n/a	n/a
3432895	RECOG_TARGET	n/a	LTP225	ltpFR	6	8	-1	POT	1114	5	-1	n/a	n/a	n/a	n/a	n/a
3433983	RECOG_RESP	n/a	LTP225	ltpFR	6	8	-1	POT	1114	n/a	-1	n/a	n/a	n/a	n/a	n/a
3435644	RECOG_CONF	n/a	LTP225	ltpFR	6	8	-1	POT	1114	5	-1	n/a	n/a	n/a	n/a	n/a
3438770	RECOG_LURE	n/a	LTP225	ltpFR	6	8	n/a	VINEGAR	1569	4	n/a	n/a	n/a	n/a	n/a	n/a
3440025	RECOG_RESP	n/a	LTP225	ltpFR	6	8	n/a	VINEGAR	1569	n/a	n/a	n/a	n/a	n/a	n/a	n/a
3441770	RECOG_CONF	n/a	LTP225	ltpFR	6	8	n/a	VINEGAR	1569	4	n/a	n/a	n/a	n/a	n/a	n/a
3443546	RECOG_LURE	n/a	LTP225	ltpFR	6	8	n/a	DUST	508	3	n/a	n/a	n/a	n/a	n/a	n/a
3445319	RECOG_RESP	n/a	LTP225	ltpFR	6	8	n/a	DUST	508	n/a	n/a	n/a	n/a	n/a	n/a	n/a
3446599	RECOG_CONF	n/a	LTP225	ltpFR	6	8	n/a	DUST	508	3	n/a	n/a	n/a	n/a	n/a	n/a
3448771	RECOG_TARGET	n/a	LTP225	ltpFR	6	8	1	SIDING	1304	5	0	n/a	n/a	n/a	n/a	n/a
3449834	RECOG_RESP	n/a	LTP225	ltpFR	6	8	1	SIDING	1304	n/a	0	n/a	n/a	n/a	n/a	n/a
3450969	RECOG_CONF	n/a	LTP225	ltpFR	6	8	1	SIDING	1304	5	0	n/a	n/a	n/a	n/a	n/a
3452915	RECOG_TARGET	n/a	LTP225	ltpFR	6	8	0	FAMILY	550	5	1	n/a	n/a	n/a	n/a	n/a
3453763	RECOG_RESP	n/a	LTP225	ltpFR	6	8	0	FAMILY	550	n/a	1	n/a	n/a	n/a	n/a	n/a
3455080	RECOG_CONF	n/a	LTP225	ltpFR	6	8	0	FAMILY	550	5	1	n/a	n/a	n/a	n/a	n/a
3456893	RECOG_LURE	n/a	LTP225	ltpFR	6	8	n/a	VOLCANO	1575	2	n/a	n/a	n/a	n/a	n/a	n/a
3458945	RECOG_RESP	n/a	LTP225	ltpFR	6	8	n/a	VOLCANO	1575	n/a	n/a	n/a	n/a	n/a	n/a	n/a
3460597	RECOG_CONF	n/a	LTP225	ltpFR	6	8	n/a	VOLCANO	1575	2	n/a	n/a	n/a	n/a	n/a	n/a
3462567	RECOG_LURE	n/a	LTP225	ltpFR	6	8	n/a	GOLD	647	3	n/a	n/a	n/a	n/a	n/a	n/a
3464788	RECOG_RESP	n/a	LTP225	ltpFR	6	8	n/a	GOLD	647	n/a	n/a	n/a	n/a	n/a	n/a	n/a
