onset	duration	trial_type	sample	stim_file	subject	experiment	session	trial	task	item_name	item_num	recog_resp	recog_conf	resp	answer	test_x	test_y	test_z	color_r	color_g	color_b	case	font
263.722	n/a	SESS_START	131861	n/a	LTP151	ltpFR	7	n/a	n/a	n/a	n/a	0	n/a	n/a	n/a	0	0	0	n/a	n/a	n/a	n/a	n/a
400.106	n/a	START	200053	n/a	LTP151	ltpFR	7	n/a	n/a	n/a	n/a	n/a	n/a	n/a	n/a	n/a	n/a	n/a	n/a	n/a	n/a	n/a	n/a
400.132	n/a	PROB	200066	n/a	LTP151	ltpFR	7	n/a	n/a	n/a	n/a	n/a	n/a	n/a	20	7	5	8	n/a	n/a	n/a	n/a	n/a
404.488	n/a	PROB	202244	n/a	LTP151	ltpFR	7	n/a	n/a	n/a	n/a	n/a	n/a	n/a	20	4	8	8	n/a	n/a	n/a	n/a	n/a
406.888	n/a	PROB	203444	n/a	LTP151	ltpFR	7	n/a	n/a	n/a	n/a	n/a	n/a	n/a	12	1	7	4	n/a	n/a	n/a	n/a	n/a
410.67	n/a	PROB	205335	n/a	LTP151	ltpFR	7	n/a	n/a	n/a	n/a	n/a	n/a	n/a	15	5	5	5	n/a	n/a	n/a	n/a	n/a
412.278	n/a	PROB	206139	n/a	LTP151	ltpFR	7	n/a	n/a	n/a	n/a	n/a	n/a	n/a	17	6	7	4	n/a	n/a	n/a	n/a	n/a
415.068	n/a	PROB	207534	n/a	LTP151	ltpFR	7	n/a	n/a	n/a	n/a	n/a	n/a	n/a	8	2	1	5	n/a	n/a	n/a	n/a	n/a
417.21	n/a	PROB	208605	n/a	LTP151	ltpFR	7	n/a	n/a	n/a	n/a	n/a	n/a	n/a	18	6	3	9	n/a	n/a	n/a	n/a	n/a
420.032	n/a	STOP	210016	n/a	LTP151	ltpFR	7	n/a	n/a	n/a	n/a	n/a	n/a	n/a	n/a	n/a	n/a	n/a	n/a	n/a	n/a	n/a	n/a
509.682	n/a	WORD	254841	wordpools/wasnorm_wordpool.txt	LTP151	ltpFR	7	1	0	TROUT	1511	n/a	n/a	1	n/a	0	0	0	0.422607421875	0.5869140625	0	lower	zerothre.ttf
513.764	n/a	WORD	256882	wordpools/wasnorm_wordpool.txt	LTP151	ltpFR	7	1	0	WHALE	1601	n/a	n/a	1	n/a	0	0	0	0.422607421875	0.5869140625	0	lower	zerothre.ttf
517.87	n/a	WORD	258935	wordpools/wasnorm_wordpool.txt	LTP151	ltpFR	7	1	0	INCENSE	735	n/a	n/a	0	n/a	0	0	0	0.422607421875	0.5869140625	0	lower	zerothre.ttf
521.804	n/a	WORD	260902	wordpools/wasnorm_wordpool.txt	LTP151	ltpFR	7	1	0	GROCERY	664	n/a	n/a	1	n/a	0	0	0	0.422607421875	0.5869140625	0	lower	zerothre.ttf
525.744	n/a	WORD	262872	wordpools/wasnorm_wordpool.txt	LTP151	ltpFR	7	1	0	PASSAGE	1019	n/a	n/a	1	n/a	0	0	0	0.422607421875	0.5869140625	0	lower	zerothre.ttf
529.742	n/a	WORD	264871	wordpools/wasnorm_wordpool.txt	LTP151	ltpFR	7	1	0	COLOGNE	347	n/a	n/a	0	n/a	0	0	0	0.422607421875	0.5869140625	0	lower	zerothre.ttf
533.708	n/a	WORD	266854	wordpools/wasnorm_wordpool.txt	LTP151	ltpFR	7	1	0	DINER	467	n/a	n/a	1	n/a	0	0	0	0.422607421875	0.5869140625	0	lower	zerothre.ttf
537.782	n/a	WORD	268891	wordpools/wasnorm_wordpool.txt	LTP151	ltpFR	7	1	0	PERCH	1048	n/a	n/a	1	n/a	0	0	0	0.422607421875	0.5869140625	0	lower	zerothre.ttf
541.93	n/a	WORD	270965	wordpools/wasnorm_wordpool.txt	LTP151	ltpFR	7	1	0	LOFT	840	n/a	n/a	1	n/a	0	0	0	0.422607421875	0.5869140625	0	lower	zerothre.ttf
546.038	n/a	WORD	273019	wordpools/wasnorm_wordpool.txt	LTP151	ltpFR	7	1	0	FURNITURE	616	n/a	n/a	1	n/a	0	0	0	0.422607421875	0.5869140625	0	lower	zerothre.ttf
549.928	n/a	WORD	274964	wordpools/wasnorm_wordpool.txt	LTP151	ltpFR	7	1	0	BATTERY	101	n/a	n/a	0	n/a	0	0	0	0.422607421875	0.5869140625	0	lower	zerothre.ttf
554.06	n/a	WORD	277030	wordpools/wasnorm_wordpool.txt	LTP151	ltpFR	7	1	0	OWL	992	n/a	n/a	1	n/a	0	0	0	0.422607421875	0.5869140625	0	lower	zerothre.ttf
557.876	n/a	WORD	278938	wordpools/wasnorm_wordpool.txt	LTP151	ltpFR	7	1	0	BOULEVARD	156	n/a	n/a	0	n/a	0	0	0	0.422607421875	0.5869140625	0	lower	zerothre.ttf
561.892	n/a	WORD	280946	wordpools/wasnorm_wordpool.txt	LTP151	ltpFR	7	1	0	MINER	896	n/a	n/a	1	n/a	0	0	0	0.422607421875	0.5869140625	0	lower	zerothre.ttf
565.998	n/a	WORD	282999	wordpools/wasnorm_wordpool.txt	LTP151	ltpFR	7	1	0	POWDER	1117	n/a	n/a	0	n/a	0	0	0	0.422607421875	0.5869140625	0	lower	zerothre.ttf
570.13	n/a	WORD	285065	wordpools/wasnorm_wordpool.txt	LTP151	ltpFR	7	1	0	DIAPER	459	n/a	n/a	1	n/a	0	0	0	0.422607421875	0.5869140625	0	lower	zerothre.ttf
573.138	n/a	START	286569	n/a	LTP151	ltpFR	7	n/a	n/a	n/a	n/a	n/a	n/a	n/a	n/a	n/a	n/a	n/a	n/a	n/a	n/a	n/a	n/a
573.946	n/a	PROB	286973	n/a	LTP151	ltpFR	7	n/a	n/a	n/a	n/a	n/a	n/a	n/a	10	2	1	7	n/a	n/a	n/a	n/a	n/a
577.094	n/a	PROB	288547	n/a	LTP151	ltpFR	7	n/a	n/a	n/a	n/a	n/a	n/a	n/a	19	6	4	9	n/a	n/a	n/a	n/a	n/a
581.138	n/a	STOP	290569	n/a	LTP151	ltpFR	7	n/a	n/a	n/a	n/a	n/a	n/a	n/a	n/a	n/a	n/a	n/a	n/a	n/a	n/a	n/a	n/a
582.936	n/a	REC_START	291468	n/a	LTP151	ltpFR	7	1	n/a	n/a	n/a	n/a	n/a	n/a	n/a	0	0	0	n/a	n/a	n/a	n/a	n/a
585.594	n/a	REC_WORD	292797	wordpools/wasnorm_wordpool.txt	LTP151	ltpFR	7	1	0	TROUT	1511	n/a	n/a	1	n/a	0	0	0	n/a	n/a	n/a	n/a	n/a
586.448	n/a	REC_WORD	293224	wordpools/wasnorm_wordpool.txt	LTP151	ltpFR	7	1	0	WHALE	1601	n/a	n/a	1	n/a	0	0	0	n/a	n/a	n/a	n/a	n/a
588.238	n/a	REC_WORD	294119	wordpools/wasnorm_wordpool.txt	LTP151	ltpFR	7	1	0	DINER	467	n/a	n/a	1	n/a	0	0	0	n/a	n/a	n/a	n/a	n/a
589.172	n/a	REC_WORD	294586	wordpools/wasnorm_wordpool.txt	LTP151	ltpFR	7	1	0	PASSAGE	1019	n/a	n/a	1	n/a	0	0	0	n/a	n/a	n/a	n/a	n/a
590.284	n/a	REC_WORD	295142	wordpools/wasnorm_wordpool.txt	LTP151	ltpFR	7	1	0	COLOGNE	347	n/a	n/a	0	n/a	0	0	0	n/a	n/a	n/a	n/a	n/a
591.78	n/a	REC_WORD	295890	wordpools/wasnorm_wordpool.txt	LTP151	ltpFR	7	1	0	BATTERY	101	n/a	n/a	0	n/a	0	0	0	n/a	n/a	n/a	n/a	n/a
596.954	n/a	REC_WORD	298477	wordpools/wasnorm_wordpool.txt	LTP151	ltpFR	7	1	0	GROCERY	664	n/a	n/a	1	n/a	0	0	0	n/a	n/a	n/a	n/a	n/a
604.268	n/a	REC_WORD	302134	wordpools/wasnorm_wordpool.txt	LTP151	ltpFR	7	1	0	PERCH	1048	n/a	n/a	1	n/a	0	0	0	n/a	n/a	n/a	n/a	n/a
607.042	n/a	REC_WORD	303521	wordpools/wasnorm_wordpool.txt	LTP151	ltpFR	7	1	0	INCENSE	735	n/a	n/a	0	n/a	0	0	0	n/a	n/a	n/a	n/a	n/a
611.94	n/a	REC_WORD	305970	wordpools/wasnorm_wordpool.txt	LTP151	ltpFR	7	1	0	DIAPER	459	n/a	n/a	1	n/a	0	0	0	n/a	n/a	n/a	n/a	n/a
614.764	n/a	REC_WORD	307382	wordpools/wasnorm_wordpool.txt	LTP151	ltpFR	7	1	0	MINER	896	n/a	n/a	1	n/a	0	0	0	n/a	n/a	n/a	n/a	n/a
615.822	n/a	REC_WORD	307911	wordpools/wasnorm_wordpool.txt	LTP151	ltpFR	7	1	0	POWDER	1117	n/a	n/a	0	n/a	0	0	0	n/a	n/a	n/a	n/a	n/a
625.586	n/a	REC_WORD	312793	wordpools/wasnorm_wordpool.txt	LTP151	ltpFR	7	1	0	BOULEVARD	156	n/a	n/a	0	n/a	0	0	0	n/a	n/a	n/a	n/a	n/a
662.652	n/a	START	331326	n/a	LTP151	ltpFR	7	n/a	n/a	n/a	n/a	n/a	n/a	n/a	n/a	n/a	n/a	n/a	n/a	n/a	n/a	n/a	n/a
664.16	n/a	PROB	332080	n/a	LTP151	ltpFR	7	n/a	n/a	n/a	n/a	n/a	n/a	n/a	10	3	1	6	n/a	n/a	n/a	n/a	n/a
667.758	n/a	PROB	333879	n/a	LTP151	ltpFR	7	n/a	n/a	n/a	n/a	n/a	n/a	n/a	18	8	2	8	n/a	n/a	n/a	n/a	n/a
669.7	n/a	STOP	334850	n/a	LTP151	ltpFR	7	n/a	n/a	n/a	n/a	n/a	n/a	n/a	n/a	n/a	n/a	n/a	n/a	n/a	n/a	n/a	n/a
671.54	n/a	WORD	335770	wordpools/wasnorm_wordpool.txt	LTP151	ltpFR	7	2	1	CROW	414	n/a	n/a	n/a	n/a	0	0	0	0.57763671875	0.412841796875	1	upper	amplitud.ttf
674.566	n/a	SLOW_MSG	337283	n/a	LTP151	ltpFR	7	2	n/a	n/a	n/a	n/a	n/a	n/a	n/a	0	0	0	n/a	n/a	n/a	n/a	n/a
676.082	n/a	START	338041	n/a	LTP151	ltpFR	7	n/a	n/a	n/a	n/a	n/a	n/a	n/a	n/a	n/a	n/a	n/a	n/a	n/a	n/a	n/a	n/a
676.906	n/a	PROB	338453	n/a	LTP151	ltpFR	7	n/a	n/a	n/a	n/a	n/a	n/a	n/a	15	9	1	5	n/a	n/a	n/a	n/a	n/a
680.138	n/a	PROB	340069	n/a	LTP151	ltpFR	7	n/a	n/a	n/a	n/a	n/a	n/a	n/a	12	2	4	6	n/a	n/a	n/a	n/a	n/a
682.582	n/a	STOP	341291	n/a	LTP151	ltpFR	7	n/a	n/a	n/a	n/a	n/a	n/a	n/a	n/a	n/a	n/a	n/a	n/a	n/a	n/a	n/a	n/a
684.92	n/a	WORD	342460	wordpools/wasnorm_wordpool.txt	LTP151	ltpFR	7	2	1	CRITIC	410	n/a	n/a	1	n/a	0	0	0	0.57763671875	0.412841796875	1	upper	amplitud.ttf
687.928	n/a	START	343964	n/a	LTP151	ltpFR	7	n/a	n/a	n/a	n/a	n/a	n/a	n/a	n/a	n/a	n/a	n/a	n/a	n/a	n/a	n/a	n/a
688.878	n/a	PROB	344439	n/a	LTP151	ltpFR	7	n/a	n/a	n/a	n/a	n/a	n/a	n/a	8	2	4	2	n/a	n/a	n/a	n/a	n/a
690.902	n/a	PROB	345451	n/a	LTP151	ltpFR	7	n/a	n/a	n/a	n/a	n/a	n/a	n/a	17	8	9	2	n/a	n/a	n/a	n/a	n/a
695.928	n/a	STOP	347964	n/a	LTP151	ltpFR	7	n/a	n/a	n/a	n/a	n/a	n/a	n/a	n/a	n/a	n/a	n/a	n/a	n/a	n/a	n/a	n/a
697.1	n/a	WORD	348550	wordpools/wasnorm_wordpool.txt	LTP151	ltpFR	7	2	1	DICE	461	n/a	n/a	0	n/a	0	0	0	0.57763671875	0.412841796875	1	upper	amplitud.ttf
700.108	n/a	START	350054	n/a	LTP151	ltpFR	7	n/a	n/a	n/a	n/a	n/a	n/a	n/a	n/a	n/a	n/a	n/a	n/a	n/a	n/a	n/a	n/a
701.198	n/a	PROB	350599	n/a	LTP151	ltpFR	7	n/a	n/a	n/a	n/a	n/a	n/a	n/a	17	9	3	6	n/a	n/a	n/a	n/a	n/a
703.882	n/a	PROB	351941	n/a	LTP151	ltpFR	7	n/a	n/a	n/a	n/a	n/a	n/a	n/a	18	1	8	9	n/a	n/a	n/a	n/a	n/a
707.534	n/a	STOP	353767	n/a	LTP151	ltpFR	7	n/a	n/a	n/a	n/a	n/a	n/a	n/a	n/a	n/a	n/a	n/a	n/a	n/a	n/a	n/a	n/a
709.304	n/a	WORD	354652	wordpools/wasnorm_wordpool.txt	LTP151	ltpFR	7	2	1	HANDCUFFS	685	n/a	n/a	0	n/a	0	0	0	0.57763671875	0.412841796875	1	upper	amplitud.ttf
712.314	n/a	START	356157	n/a	LTP151	ltpFR	7	n/a	n/a	n/a	n/a	n/a	n/a	n/a	n/a	n/a	n/a	n/a	n/a	n/a	n/a	n/a	n/a
713.338	n/a	PROB	356669	n/a	LTP151	ltpFR	7	n/a	n/a	n/a	n/a	n/a	n/a	n/a	8	2	1	5	n/a	n/a	n/a	n/a	n/a
716.57	n/a	PROB	358285	n/a	LTP151	ltpFR	7	n/a	n/a	n/a	n/a	n/a	n/a	n/a	18	8	4	6	n/a	n/a	n/a	n/a	n/a
719.472	n/a	STOP	359736	n/a	LTP151	ltpFR	7	n/a	n/a	n/a	n/a	n/a	n/a	n/a	n/a	n/a	n/a	n/a	n/a	n/a	n/a	n/a	n/a
721.342	n/a	WORD	360671	wordpools/wasnorm_wordpool.txt	LTP151	ltpFR	7	2	1	DETECTIVE	454	n/a	n/a	1	n/a	0	0	0	0.57763671875	0.412841796875	1	upper	amplitud.ttf
724.35	n/a	START	362175	n/a	LTP151	ltpFR	7	n/a	n/a	n/a	n/a	n/a	n/a	n/a	n/a	n/a	n/a	n/a	n/a	n/a	n/a	n/a	n/a
725.392	n/a	PROB	362696	n/a	LTP151	ltpFR	7	n/a	n/a	n/a	n/a	n/a	n/a	n/a	17	4	4	9	n/a	n/a	n/a	n/a	n/a
727.532	n/a	PROB	363766	n/a	LTP151	ltpFR	7	n/a	n/a	n/a	n/a	n/a	n/a	n/a	12	1	6	5	n/a	n/a	n/a	n/a	n/a
732.352	n/a	STOP	366176	n/a	LTP151	ltpFR	7	n/a	n/a	n/a	n/a	n/a	n/a	n/a	n/a	n/a	n/a	n/a	n/a	n/a	n/a	n/a	n/a
733.532	n/a	WORD	366766	wordpools/wasnorm_wordpool.txt	LTP151	ltpFR	7	2	1	ARTERY	41	n/a	n/a	1	n/a	0	0	0	0.57763671875	0.412841796875	1	upper	amplitud.ttf
736.538	n/a	START	368269	n/a	LTP151	ltpFR	7	n/a	n/a	n/a	n/a	n/a	n/a	n/a	n/a	n/a	n/a	n/a	n/a	n/a	n/a	n/a	n/a
737.346	n/a	PROB	368673	n/a	LTP151	ltpFR	7	n/a	n/a	n/a	n/a	n/a	n/a	n/a	18	8	1	9	n/a	n/a	n/a	n/a	n/a
739.646	n/a	PROB	369823	n/a	LTP151	ltpFR	7	n/a	n/a	n/a	n/a	n/a	n/a	n/a	17	5	9	3	n/a	n/a	n/a	n/a	n/a
743.128	n/a	STOP	371564	n/a	LTP151	ltpFR	7	n/a	n/a	n/a	n/a	n/a	n/a	n/a	n/a	n/a	n/a	n/a	n/a	n/a	n/a	n/a	n/a
745.486	n/a	WORD	372743	wordpools/wasnorm_wordpool.txt	LTP151	ltpFR	7	2	1	PIANO	1057	n/a	n/a	0	n/a	0	0	0	0.57763671875	0.412841796875	1	upper	amplitud.ttf
748.492	n/a	START	374246	n/a	LTP151	ltpFR	7	n/a	n/a	n/a	n/a	n/a	n/a	n/a	n/a	n/a	n/a	n/a	n/a	n/a	n/a	n/a	n/a
749.542	n/a	PROB	374771	n/a	LTP151	ltpFR	7	n/a	n/a	n/a	n/a	n/a	n/a	n/a	14	6	5	3	n/a	n/a	n/a	n/a	n/a
751.45	n/a	PROB	375725	n/a	LTP151	ltpFR	7	n/a	n/a	n/a	n/a	n/a	n/a	n/a	21	7	5	9	n/a	n/a	n/a	n/a	n/a
754.55	n/a	PROB	377275	n/a	LTP151	ltpFR	7	n/a	n/a	n/a	n/a	n/a	n/a	n/a	8	2	1	5	n/a	n/a	n/a	n/a	n/a
756.13	n/a	STOP	378065	n/a	LTP151	ltpFR	7	n/a	n/a	n/a	n/a	n/a	n/a	n/a	n/a	n/a	n/a	n/a	n/a	n/a	n/a	n/a	n/a
757.306	n/a	WORD	378653	wordpools/wasnorm_wordpool.txt	LTP151	ltpFR	7	2	1	HEART	697	n/a	n/a	1	n/a	0	0	0	0.57763671875	0.412841796875	1	upper	amplitud.ttf
760.314	n/a	START	380157	n/a	LTP151	ltpFR	7	n/a	n/a	n/a	n/a	n/a	n/a	n/a	n/a	n/a	n/a	n/a	n/a	n/a	n/a	n/a	n/a
761.372	n/a	PROB	380686	n/a	LTP151	ltpFR	7	n/a	n/a	n/a	n/a	n/a	n/a	n/a	17	9	4	4	n/a	n/a	n/a	n/a	n/a
763.164	n/a	PROB	381582	n/a	LTP151	ltpFR	7	n/a	n/a	n/a	n/a	n/a	n/a	n/a	15	8	6	1	n/a	n/a	n/a	n/a	n/a
765.32	n/a	PROB	382660	n/a	LTP151	ltpFR	7	n/a	n/a	n/a	n/a	n/a	n/a	n/a	19	9	6	4	n/a	n/a	n/a	n/a	n/a
768.194	n/a	STOP	384097	n/a	LTP151	ltpFR	7	n/a	n/a	n/a	n/a	n/a	n/a	n/a	n/a	n/a	n/a	n/a	n/a	n/a	n/a	n/a	n/a
769.496	n/a	WORD	384748	wordpools/wasnorm_wordpool.txt	LTP151	ltpFR	7	2	1	TICKET	1464	n/a	n/a	0	n/a	0	0	0	0.57763671875	0.412841796875	1	upper	amplitud.ttf
772.502	n/a	START	386251	n/a	LTP151	ltpFR	7	n/a	n/a	n/a	n/a	n/a	n/a	n/a	n/a	n/a	n/a	n/a	n/a	n/a	n/a	n/a	n/a
773.586	n/a	PROB	386793	n/a	LTP151	ltpFR	7	n/a	n/a	n/a	n/a	n/a	n/a	n/a	21	6	6	9	n/a	n/a	n/a	n/a	n/a
776.884	n/a	PROB	388442	n/a	LTP151	ltpFR	7	n/a	n/a	n/a	n/a	n/a	n/a	n/a	11	6	4	1	n/a	n/a	n/a	n/a	n/a
779.018	n/a	STOP	389509	n/a	LTP151	ltpFR	7	n/a	n/a	n/a	n/a	n/a	n/a	n/a	n/a	n/a	n/a	n/a	n/a	n/a	n/a	n/a	n/a
781.316	n/a	WORD	390658	wordpools/wasnorm_wordpool.txt	LTP151	ltpFR	7	2	1	KITE	779	n/a	n/a	0	n/a	0	0	0	0.57763671875	0.412841796875	1	upper	amplitud.ttf
784.324	n/a	START	392162	n/a	LTP151	ltpFR	7	n/a	n/a	n/a	n/a	n/a	n/a	n/a	n/a	n/a	n/a	n/a	n/a	n/a	n/a	n/a	n/a
785.182	n/a	PROB	392591	n/a	LTP151	ltpFR	7	n/a	n/a	n/a	n/a	n/a	n/a	n/a	23	7	8	6	n/a	n/a	n/a	n/a	n/a
792.324	n/a	STOP	396162	n/a	LTP151	ltpFR	7	n/a	n/a	n/a	n/a	n/a	n/a	n/a	n/a	n/a	n/a	n/a	n/a	n/a	n/a	n/a	n/a
793.38	n/a	WORD	396690	wordpools/wasnorm_wordpool.txt	LTP151	ltpFR	7	2	1	GROOM	665	n/a	n/a	1	n/a	0	0	0	0.57763671875	0.412841796875	1	upper	amplitud.ttf
796.388	n/a	START	398194	n/a	LTP151	ltpFR	7	n/a	n/a	n/a	n/a	n/a	n/a	n/a	n/a	n/a	n/a	n/a	n/a	n/a	n/a	n/a	n/a
797.462	n/a	PROB	398731	n/a	LTP151	ltpFR	7	n/a	n/a	n/a	n/a	n/a	n/a	n/a	7	1	5	1	n/a	n/a	n/a	n/a	n/a
799.518	n/a	PROB	399759	n/a	LTP151	ltpFR	7	n/a	n/a	n/a	n/a	n/a	n/a	n/a	9	1	2	6	n/a	n/a	n/a	n/a	n/a
801.302	n/a	PROB	400651	n/a	LTP151	ltpFR	7	n/a	n/a	n/a	n/a	n/a	n/a	n/a	8	3	3	2	n/a	n/a	n/a	n/a	n/a
803.06	n/a	STOP	401530	n/a	LTP151	ltpFR	7	n/a	n/a	n/a	n/a	n/a	n/a	n/a	n/a	n/a	n/a	n/a	n/a	n/a	n/a	n/a	n/a
805.326	n/a	WORD	402663	wordpools/wasnorm_wordpool.txt	LTP151	ltpFR	7	2	1	FOREHEAD	592	n/a	n/a	0	n/a	0	0	0	0.57763671875	0.412841796875	1	upper	amplitud.ttf
808.334	n/a	START	404167	n/a	LTP151	ltpFR	7	n/a	n/a	n/a	n/a	n/a	n/a	n/a	n/a	n/a	n/a	n/a	n/a	n/a	n/a	n/a	n/a
809.316	n/a	PROB	404658	n/a	LTP151	ltpFR	7	n/a	n/a	n/a	n/a	n/a	n/a	n/a	20	5	7	8	n/a	n/a	n/a	n/a	n/a
812.774	n/a	PROB	406387	n/a	LTP151	ltpFR	7	n/a	n/a	n/a	n/a	n/a	n/a	n/a	18	5	8	3	n/a	n/a	n/a	n/a	n/a
816.156	n/a	STOP	408078	n/a	LTP151	ltpFR	7	n/a	n/a	n/a	n/a	n/a	n/a	n/a	n/a	n/a	n/a	n/a	n/a	n/a	n/a	n/a	n/a
817.214	n/a	WORD	408607	wordpools/wasnorm_wordpool.txt	LTP151	ltpFR	7	2	1	ORGAN	984	n/a	n/a	0	n/a	0	0	0	0.57763671875	0.412841796875	1	upper	amplitud.ttf
820.222	n/a	START	410111	n/a	LTP151	ltpFR	7	n/a	n/a	n/a	n/a	n/a	n/a	n/a	n/a	n/a	n/a	n/a	n/a	n/a	n/a	n/a	n/a
821.346	n/a	PROB	410673	n/a	LTP151	ltpFR	7	n/a	n/a	n/a	n/a	n/a	n/a	n/a	15	9	2	4	n/a	n/a	n/a	n/a	n/a
824.504	n/a	PROB	412252	n/a	LTP151	ltpFR	7	n/a	n/a	n/a	n/a	n/a	n/a	n/a	23	7	7	9	n/a	n/a	n/a	n/a	n/a
827.158	n/a	STOP	413579	n/a	LTP151	ltpFR	7	n/a	n/a	n/a	n/a	n/a	n/a	n/a	n/a	n/a	n/a	n/a	n/a	n/a	n/a	n/a	n/a
829.426	n/a	WORD	414713	wordpools/wasnorm_wordpool.txt	LTP151	ltpFR	7	2	1	PLATE	1086	n/a	n/a	0	n/a	0	0	0	0.57763671875	0.412841796875	1	upper	amplitud.ttf
832.434	n/a	START	416217	n/a	LTP151	ltpFR	7	n/a	n/a	n/a	n/a	n/a	n/a	n/a	n/a	n/a	n/a	n/a	n/a	n/a	n/a	n/a	n/a
833.492	n/a	PROB	416746	n/a	LTP151	ltpFR	7	n/a	n/a	n/a	n/a	n/a	n/a	n/a	7	4	1	2	n/a	n/a	n/a	n/a	n/a
835.834	n/a	PROB	417917	n/a	LTP151	ltpFR	7	n/a	n/a	n/a	n/a	n/a	n/a	n/a	9	1	1	7	n/a	n/a	n/a	n/a	n/a
837.216	n/a	PROB	418608	n/a	LTP151	ltpFR	7	n/a	n/a	n/a	n/a	n/a	n/a	n/a	19	5	7	7	n/a	n/a	n/a	n/a	n/a
839.206	n/a	STOP	419603	n/a	LTP151	ltpFR	7	n/a	n/a	n/a	n/a	n/a	n/a	n/a	n/a	n/a	n/a	n/a	n/a	n/a	n/a	n/a	n/a
841.282	n/a	WORD	420641	wordpools/wasnorm_wordpool.txt	LTP151	ltpFR	7	2	1	PICNIC	1060	n/a	n/a	0	n/a	0	0	0	0.57763671875	0.412841796875	1	upper	amplitud.ttf
844.29	n/a	START	422145	n/a	LTP151	ltpFR	7	n/a	n/a	n/a	n/a	n/a	n/a	n/a	n/a	n/a	n/a	n/a	n/a	n/a	n/a	n/a	n/a
845.164	n/a	PROB	422582	n/a	LTP151	ltpFR	7	n/a	n/a	n/a	n/a	n/a	n/a	n/a	23	6	8	9	n/a	n/a	n/a	n/a	n/a
847.856	n/a	PROB	423928	n/a	LTP151	ltpFR	7	n/a	n/a	n/a	n/a	n/a	n/a	n/a	16	8	7	1	n/a	n/a	n/a	n/a	n/a
852.288	n/a	STOP	426144	n/a	LTP151	ltpFR	7	n/a	n/a	n/a	n/a	n/a	n/a	n/a	n/a	n/a	n/a	n/a	n/a	n/a	n/a	n/a	n/a
853.486	n/a	WORD	426743	wordpools/wasnorm_wordpool.txt	LTP151	ltpFR	7	2	1	DIRECTOR	471	n/a	n/a	1	n/a	0	0	0	0.57763671875	0.412841796875	1	upper	amplitud.ttf
856.494	n/a	START	428247	n/a	LTP151	ltpFR	7	n/a	n/a	n/a	n/a	n/a	n/a	n/a	n/a	n/a	n/a	n/a	n/a	n/a	n/a	n/a	n/a
857.518	n/a	PROB	428759	n/a	LTP151	ltpFR	7	n/a	n/a	n/a	n/a	n/a	n/a	n/a	18	3	9	6	n/a	n/a	n/a	n/a	n/a
860.042	n/a	PROB	430021	n/a	LTP151	ltpFR	7	n/a	n/a	n/a	n/a	n/a	n/a	n/a	24	9	6	9	n/a	n/a	n/a	n/a	n/a
862.998	n/a	STOP	431499	n/a	LTP151	ltpFR	7	n/a	n/a	n/a	n/a	n/a	n/a	n/a	n/a	n/a	n/a	n/a	n/a	n/a	n/a	n/a	n/a
866.284	n/a	REC_START	433142	n/a	LTP151	ltpFR	7	2	n/a	n/a	n/a	n/a	n/a	n/a	n/a	0	0	0	n/a	n/a	n/a	n/a	n/a
868.928	n/a	REC_WORD	434464	wordpools/wasnorm_wordpool.txt	LTP151	ltpFR	7	2	1	DIRECTOR	471	n/a	n/a	1	n/a	0	0	0	n/a	n/a	n/a	n/a	n/a
870.05	n/a	REC_WORD	435025	wordpools/wasnorm_wordpool.txt	LTP151	ltpFR	7	2	1	HEART	697	n/a	n/a	1	n/a	0	0	0	n/a	n/a	n/a	n/a	n/a
871.286	n/a	REC_WORD	435643	wordpools/wasnorm_wordpool.txt	LTP151	ltpFR	7	2	1	ORGAN	984	n/a	n/a	0	n/a	0	0	0	n/a	n/a	n/a	n/a	n/a
873.102	n/a	REC_WORD	436551	wordpools/wasnorm_wordpool.txt	LTP151	ltpFR	7	2	1	ARTERY	41	n/a	n/a	1	n/a	0	0	0	n/a	n/a	n/a	n/a	n/a
876.534	n/a	REC_WORD	438267	wordpools/wasnorm_wordpool.txt	LTP151	ltpFR	7	2	1	KITE	779	n/a	n/a	0	n/a	0	0	0	n/a	n/a	n/a	n/a	n/a
888.684	n/a	REC_WORD	444342	wordpools/wasnorm_wordpool.txt	LTP151	ltpFR	7	2	1	FOREHEAD	592	n/a	n/a	0	n/a	0	0	0	n/a	n/a	n/a	n/a	n/a
993.636	n/a	WORD	496818	wordpools/wasnorm_wordpool.txt	LTP151	ltpFR	7	3	0	ASTEROID	50	n/a	n/a	1	n/a	0	0	0	0.422607421875	0.5869140625	0	lower	zerothre.ttf
997.802	n/a	WORD	498901	wordpools/wasnorm_wordpool.txt	LTP151	ltpFR	7	3	0	COCOON	339	n/a	n/a	0	n/a	0	0	0	0.422607421875	0.5869140625	0	lower	zerothre.ttf
1001.942	n/a	WORD	500971	wordpools/wasnorm_wordpool.txt	LTP151	ltpFR	7	3	0	PRODUCER	1129	n/a	n/a	1	n/a	0	0	0	0.422607421875	0.5869140625	0	lower	zerothre.ttf
1006.14	n/a	WORD	503070	wordpools/wasnorm_wordpool.txt	LTP151	ltpFR	7	3	0	LEADER	807	n/a	n/a	1	n/a	0	0	0	0.422607421875	0.5869140625	0	lower	zerothre.ttf
1010.28	n/a	WORD	505140	wordpools/wasnorm_wordpool.txt	LTP151	ltpFR	7	3	0	ASTRONAUT	51	n/a	n/a	1	n/a	0	0	0	0.422607421875	0.5869140625	0	lower	zerothre.ttf
1014.222	n/a	WORD	507111	wordpools/wasnorm_wordpool.txt	LTP151	ltpFR	7	3	0	LETTUCE	814	n/a	n/a	0	n/a	0	0	0	0.422607421875	0.5869140625	0	lower	zerothre.ttf
1018.362	n/a	WORD	509181	wordpools/wasnorm_wordpool.txt	LTP151	ltpFR	7	3	0	BEDROOM	111	n/a	n/a	1	n/a	0	0	0	0.422607421875	0.5869140625	0	lower	zerothre.ttf
1022.41	n/a	WORD	511205	wordpools/wasnorm_wordpool.txt	LTP151	ltpFR	7	3	0	PICKLE	1059	n/a	n/a	0	n/a	0	0	0	0.422607421875	0.5869140625	0	lower	zerothre.ttf
1026.442	n/a	WORD	513221	wordpools/wasnorm_wordpool.txt	LTP151	ltpFR	7	3	0	SHRINE	1298	n/a	n/a	1	n/a	0	0	0	0.422607421875	0.5869140625	0	lower	zerothre.ttf
1030.574	n/a	WORD	515287	wordpools/wasnorm_wordpool.txt	LTP151	ltpFR	7	3	0	BUGGY	188	n/a	n/a	1	n/a	0	0	0	0.422607421875	0.5869140625	0	lower	zerothre.ttf
1034.732	n/a	WORD	517366	wordpools/wasnorm_wordpool.txt	LTP151	ltpFR	7	3	0	ROAD	1196	n/a	n/a	1	n/a	0	0	0	0.422607421875	0.5869140625	0	lower	zerothre.ttf
1038.572	n/a	WORD	519286	wordpools/wasnorm_wordpool.txt	LTP151	ltpFR	7	3	0	HIGHWAY	707	n/a	n/a	1	n/a	0	0	0	0.422607421875	0.5869140625	0	lower	zerothre.ttf
1042.48	n/a	WORD	521240	wordpools/wasnorm_wordpool.txt	LTP151	ltpFR	7	3	0	DUST	508	n/a	n/a	0	n/a	0	0	0	0.422607421875	0.5869140625	0	lower	zerothre.ttf
1046.57	n/a	WORD	523285	wordpools/wasnorm_wordpool.txt	LTP151	ltpFR	7	3	0	RAG	1160	n/a	n/a	0	n/a	0	0	0	0.422607421875	0.5869140625	0	lower	zerothre.ttf
1050.518	n/a	WORD	525259	wordpools/wasnorm_wordpool.txt	LTP151	ltpFR	7	3	0	STALLION	1369	n/a	n/a	1	n/a	0	0	0	0.422607421875	0.5869140625	0	lower	zerothre.ttf
1054.676	n/a	WORD	527338	wordpools/wasnorm_wordpool.txt	LTP151	ltpFR	7	3	0	SUPERMARKET	1409	n/a	n/a	1	n/a	0	0	0	0.422607421875	0.5869140625	0	lower	zerothre.ttf
1057.684	n/a	START	528842	n/a	LTP151	ltpFR	7	n/a	n/a	n/a	n/a	n/a	n/a	n/a	n/a	n/a	n/a	n/a	n/a	n/a	n/a	n/a	n/a
1058.666	n/a	PROB	529333	n/a	LTP151	ltpFR	7	n/a	n/a	n/a	n/a	n/a	n/a	n/a	21	5	9	7	n/a	n/a	n/a	n/a	n/a
1062.706	n/a	PROB	531353	n/a	LTP151	ltpFR	7	n/a	n/a	n/a	n/a	n/a	n/a	n/a	16	5	6	5	n/a	n/a	n/a	n/a	n/a
1064.89	n/a	STOP	532445	n/a	LTP151	ltpFR	7	n/a	n/a	n/a	n/a	n/a	n/a	n/a	n/a	n/a	n/a	n/a	n/a	n/a	n/a	n/a	n/a
1067.464	n/a	REC_START	533732	n/a	LTP151	ltpFR	7	3	n/a	n/a	n/a	n/a	n/a	n/a	n/a	0	0	0	n/a	n/a	n/a	n/a	n/a
1069.624	n/a	REC_WORD	534812	wordpools/wasnorm_wordpool.txt	LTP151	ltpFR	7	3	0	ASTRONAUT	51	n/a	n/a	1	n/a	0	0	0	n/a	n/a	n/a	n/a	n/a
1073.824	n/a	REC_WORD	536912	wordpools/wasnorm_wordpool.txt	LTP151	ltpFR	7	3	0	BUGGY	188	n/a	n/a	1	n/a	0	0	0	n/a	n/a	n/a	n/a	n/a
1075.162	n/a	REC_WORD	537581	wordpools/wasnorm_wordpool.txt	LTP151	ltpFR	7	3	0	DUST	508	n/a	n/a	0	n/a	0	0	0	n/a	n/a	n/a	n/a	n/a
1075.984	n/a	REC_WORD	537992	wordpools/wasnorm_wordpool.txt	LTP151	ltpFR	7	3	0	RAG	1160	n/a	n/a	0	n/a	0	0	0	n/a	n/a	n/a	n/a	n/a
1077.158	n/a	REC_WORD	538579	wordpools/wasnorm_wordpool.txt	LTP151	ltpFR	7	3	0	HIGHWAY	707	n/a	n/a	1	n/a	0	0	0	n/a	n/a	n/a	n/a	n/a
1078.584	n/a	REC_WORD	539292	wordpools/wasnorm_wordpool.txt	LTP151	ltpFR	7	3	0	ROAD	1196	n/a	n/a	1	n/a	0	0	0	n/a	n/a	n/a	n/a	n/a
1079.592	n/a	REC_WORD	539796	wordpools/wasnorm_wordpool.txt	LTP151	ltpFR	7	3	0	PRODUCER	1129	n/a	n/a	1	n/a	0	0	0	n/a	n/a	n/a	n/a	n/a
1081.422	n/a	REC_WORD	540711	wordpools/wasnorm_wordpool.txt	LTP151	ltpFR	7	3	0	LETTUCE	814	n/a	n/a	0	n/a	0	0	0	n/a	n/a	n/a	n/a	n/a
1082.584	n/a	REC_WORD	541292	wordpools/wasnorm_wordpool.txt	LTP151	ltpFR	7	3	0	BEDROOM	111	n/a	n/a	1	n/a	0	0	0	n/a	n/a	n/a	n/a	n/a
1087.04	n/a	REC_WORD	543520	wordpools/wasnorm_wordpool.txt	LTP151	ltpFR	7	3	0	LEADER	807	n/a	n/a	1	n/a	0	0	0	n/a	n/a	n/a	n/a	n/a
1089.39	n/a	REC_WORD	544695	wordpools/wasnorm_wordpool.txt	LTP151	ltpFR	7	3	0	PICKLE	1059	n/a	n/a	0	n/a	0	0	0	n/a	n/a	n/a	n/a	n/a
1101.518	n/a	REC_WORD	550759	wordpools/wasnorm_wordpool.txt	LTP151	ltpFR	7	3	0	SHRINE	1298	n/a	n/a	1	n/a	0	0	0	n/a	n/a	n/a	n/a	n/a
1119.932	n/a	REC_WORD	559966	wordpools/wasnorm_wordpool.txt	LTP151	ltpFR	7	3	0	BUGGY	188	n/a	n/a	1	n/a	0	0	0	n/a	n/a	n/a	n/a	n/a
1164.56	n/a	START	582280	n/a	LTP151	ltpFR	7	n/a	n/a	n/a	n/a	n/a	n/a	n/a	n/a	n/a	n/a	n/a	n/a	n/a	n/a	n/a	n/a
1166.068	n/a	PROB	583034	n/a	LTP151	ltpFR	7	n/a	n/a	n/a	n/a	n/a	n/a	n/a	15	3	9	3	n/a	n/a	n/a	n/a	n/a
1168.216	n/a	PROB	584108	n/a	LTP151	ltpFR	7	n/a	n/a	n/a	n/a	n/a	n/a	n/a	13	5	1	7	n/a	n/a	n/a	n/a	n/a
1172.176	n/a	STOP	586088	n/a	LTP151	ltpFR	7	n/a	n/a	n/a	n/a	n/a	n/a	n/a	n/a	n/a	n/a	n/a	n/a	n/a	n/a	n/a	n/a
1173.74	n/a	WORD	586870	wordpools/wasnorm_wordpool.txt	LTP151	ltpFR	7	4	1	EMPLOYEE	531	n/a	n/a	1	n/a	0	0	0	0.57763671875	0.412841796875	1	upper	amplitud.ttf
1176.748	n/a	START	588374	n/a	LTP151	ltpFR	7	n/a	n/a	n/a	n/a	n/a	n/a	n/a	n/a	n/a	n/a	n/a	n/a	n/a	n/a	n/a	n/a
1177.554	n/a	PROB	588777	n/a	LTP151	ltpFR	7	n/a	n/a	n/a	n/a	n/a	n/a	n/a	16	3	9	4	n/a	n/a	n/a	n/a	n/a
1180.922	n/a	PROB	590461	n/a	LTP151	ltpFR	7	n/a	n/a	n/a	n/a	n/a	n/a	n/a	13	3	2	8	n/a	n/a	n/a	n/a	n/a
1183.616	n/a	STOP	591808	n/a	LTP151	ltpFR	7	n/a	n/a	n/a	n/a	n/a	n/a	n/a	n/a	n/a	n/a	n/a	n/a	n/a	n/a	n/a	n/a
1185.752	n/a	WORD	592876	wordpools/wasnorm_wordpool.txt	LTP151	ltpFR	7	4	1	WHISKERS	1605	n/a	n/a	0	n/a	0	0	0	0.57763671875	0.412841796875	1	upper	amplitud.ttf
1188.76	n/a	START	594380	n/a	LTP151	ltpFR	7	n/a	n/a	n/a	n/a	n/a	n/a	n/a	n/a	n/a	n/a	n/a	n/a	n/a	n/a	n/a	n/a
1189.96	n/a	PROB	594980	n/a	LTP151	ltpFR	7	n/a	n/a	n/a	n/a	n/a	n/a	n/a	14	2	6	6	n/a	n/a	n/a	n/a	n/a
1196.76	n/a	STOP	598380	n/a	LTP151	ltpFR	7	n/a	n/a	n/a	n/a	n/a	n/a	n/a	n/a	n/a	n/a	n/a	n/a	n/a	n/a	n/a	n/a
1197.582	n/a	WORD	598791	wordpools/wasnorm_wordpool.txt	LTP151	ltpFR	7	4	1	VEGETABLE	1552	n/a	n/a	0	n/a	0	0	0	0.57763671875	0.412841796875	1	upper	amplitud.ttf
1200.59	n/a	START	600295	n/a	LTP151	ltpFR	7	n/a	n/a	n/a	n/a	n/a	n/a	n/a	n/a	n/a	n/a	n/a	n/a	n/a	n/a	n/a	n/a
1201.774	n/a	PROB	600887	n/a	LTP151	ltpFR	7	n/a	n/a	n/a	n/a	n/a	n/a	n/a	11	8	2	1	n/a	n/a	n/a	n/a	n/a
1203.906	n/a	PROB	601953	n/a	LTP151	ltpFR	7	n/a	n/a	n/a	n/a	n/a	n/a	n/a	16	8	2	6	n/a	n/a	n/a	n/a	n/a
1208.59	n/a	STOP	604295	n/a	LTP151	ltpFR	7	n/a	n/a	n/a	n/a	n/a	n/a	n/a	n/a	n/a	n/a	n/a	n/a	n/a	n/a	n/a	n/a
1209.712	n/a	WORD	604856	wordpools/wasnorm_wordpool.txt	LTP151	ltpFR	7	4	1	TOMATO	1476	n/a	n/a	0	n/a	0	0	0	0.57763671875	0.412841796875	1	upper	amplitud.ttf
1212.72	n/a	START	606360	n/a	LTP151	ltpFR	7	n/a	n/a	n/a	n/a	n/a	n/a	n/a	n/a	n/a	n/a	n/a	n/a	n/a	n/a	n/a	n/a
1213.602	n/a	PROB	606801	n/a	LTP151	ltpFR	7	n/a	n/a	n/a	n/a	n/a	n/a	n/a	14	5	5	4	n/a	n/a	n/a	n/a	n/a
1215.252	n/a	PROB	607626	n/a	LTP151	ltpFR	7	n/a	n/a	n/a	n/a	n/a	n/a	n/a	15	3	7	5	n/a	n/a	n/a	n/a	n/a
1217.602	n/a	PROB	608801	n/a	LTP151	ltpFR	7	n/a	n/a	n/a	n/a	n/a	n/a	n/a	14	1	4	9	n/a	n/a	n/a	n/a	n/a
1220.29	n/a	STOP	610145	n/a	LTP151	ltpFR	7	n/a	n/a	n/a	n/a	n/a	n/a	n/a	n/a	n/a	n/a	n/a	n/a	n/a	n/a	n/a	n/a
1221.658	n/a	WORD	610829	wordpools/wasnorm_wordpool.txt	LTP151	ltpFR	7	4	1	KETCHUP	771	n/a	n/a	0	n/a	0	0	0	0.57763671875	0.412841796875	1	upper	amplitud.ttf
1224.666	n/a	START	612333	n/a	LTP151	ltpFR	7	n/a	n/a	n/a	n/a	n/a	n/a	n/a	n/a	n/a	n/a	n/a	n/a	n/a	n/a	n/a	n/a
1225.582	n/a	PROB	612791	n/a	LTP151	ltpFR	7	n/a	n/a	n/a	n/a	n/a	n/a	n/a	19	4	9	6	n/a	n/a	n/a	n/a	n/a
1228.882	n/a	PROB	614441	n/a	LTP151	ltpFR	7	n/a	n/a	n/a	n/a	n/a	n/a	n/a	15	9	1	5	n/a	n/a	n/a	n/a	n/a
1230.538	n/a	PROB	615269	n/a	LTP151	ltpFR	7	n/a	n/a	n/a	n/a	n/a	n/a	n/a	7	1	5	1	n/a	n/a	n/a	n/a	n/a
1231.868	n/a	STOP	615934	n/a	LTP151	ltpFR	7	n/a	n/a	n/a	n/a	n/a	n/a	n/a	n/a	n/a	n/a	n/a	n/a	n/a	n/a	n/a	n/a
1233.672	n/a	WORD	616836	wordpools/wasnorm_wordpool.txt	LTP151	ltpFR	7	4	1	TELEVISION	1447	n/a	n/a	0	n/a	0	0	0	0.57763671875	0.412841796875	1	upper	amplitud.ttf
1236.68	n/a	START	618340	n/a	LTP151	ltpFR	7	n/a	n/a	n/a	n/a	n/a	n/a	n/a	n/a	n/a	n/a	n/a	n/a	n/a	n/a	n/a	n/a
1237.646	n/a	PROB	618823	n/a	LTP151	ltpFR	7	n/a	n/a	n/a	n/a	n/a	n/a	n/a	13	5	5	3	n/a	n/a	n/a	n/a	n/a
1239.296	n/a	PROB	619648	n/a	LTP151	ltpFR	7	n/a	n/a	n/a	n/a	n/a	n/a	n/a	22	9	6	7	n/a	n/a	n/a	n/a	n/a
1244.68	n/a	STOP	622340	n/a	LTP151	ltpFR	7	n/a	n/a	n/a	n/a	n/a	n/a	n/a	n/a	n/a	n/a	n/a	n/a	n/a	n/a	n/a	n/a
1245.618	n/a	WORD	622809	wordpools/wasnorm_wordpool.txt	LTP151	ltpFR	7	4	1	TUNNEL	1519	n/a	n/a	0	n/a	0	0	0	0.57763671875	0.412841796875	1	upper	amplitud.ttf
1248.626	n/a	START	624313	n/a	LTP151	ltpFR	7	n/a	n/a	n/a	n/a	n/a	n/a	n/a	n/a	n/a	n/a	n/a	n/a	n/a	n/a	n/a	n/a
1249.5	n/a	PROB	624750	n/a	LTP151	ltpFR	7	n/a	n/a	n/a	n/a	n/a	n/a	n/a	12	2	5	5	n/a	n/a	n/a	n/a	n/a
1251.15	n/a	PROB	625575	n/a	LTP151	ltpFR	7	n/a	n/a	n/a	n/a	n/a	n/a	n/a	23	7	9	7	n/a	n/a	n/a	n/a	n/a
1253.49	n/a	PROB	626745	n/a	LTP151	ltpFR	7	n/a	n/a	n/a	n/a	n/a	n/a	n/a	12	4	6	2	n/a	n/a	n/a	n/a	n/a
1255.3	n/a	STOP	627650	n/a	LTP151	ltpFR	7	n/a	n/a	n/a	n/a	n/a	n/a	n/a	n/a	n/a	n/a	n/a	n/a	n/a	n/a	n/a	n/a
1257.722	n/a	WORD	628861	wordpools/wasnorm_wordpool.txt	LTP151	ltpFR	7	4	1	DONKEY	484	n/a	n/a	1	n/a	0	0	0	0.57763671875	0.412841796875	1	upper	amplitud.ttf
1260.73	n/a	START	630365	n/a	LTP151	ltpFR	7	n/a	n/a	n/a	n/a	n/a	n/a	n/a	n/a	n/a	n/a	n/a	n/a	n/a	n/a	n/a	n/a
1261.922	n/a	PROB	630961	n/a	LTP151	ltpFR	7	n/a	n/a	n/a	n/a	n/a	n/a	n/a	13	2	7	4	n/a	n/a	n/a	n/a	n/a
1265.062	n/a	PROB	632531	n/a	LTP151	ltpFR	7	n/a	n/a	n/a	n/a	n/a	n/a	n/a	18	7	5	6	n/a	n/a	n/a	n/a	n/a
1267.348	n/a	STOP	633674	n/a	LTP151	ltpFR	7	n/a	n/a	n/a	n/a	n/a	n/a	n/a	n/a	n/a	n/a	n/a	n/a	n/a	n/a	n/a	n/a
1269.636	n/a	WORD	634818	wordpools/wasnorm_wordpool.txt	LTP151	ltpFR	7	4	1	MONK	910	n/a	n/a	1	n/a	0	0	0	0.57763671875	0.412841796875	1	upper	amplitud.ttf
1272.644	n/a	START	636322	n/a	LTP151	ltpFR	7	n/a	n/a	n/a	n/a	n/a	n/a	n/a	n/a	n/a	n/a	n/a	n/a	n/a	n/a	n/a	n/a
1273.768	n/a	PROB	636884	n/a	LTP151	ltpFR	7	n/a	n/a	n/a	n/a	n/a	n/a	n/a	15	9	2	4	n/a	n/a	n/a	n/a	n/a
1276.026	n/a	PROB	638013	n/a	LTP151	ltpFR	7	n/a	n/a	n/a	n/a	n/a	n/a	n/a	22	7	7	8	n/a	n/a	n/a	n/a	n/a
1280.644	n/a	STOP	640322	n/a	LTP151	ltpFR	7	n/a	n/a	n/a	n/a	n/a	n/a	n/a	n/a	n/a	n/a	n/a	n/a	n/a	n/a	n/a	n/a
1281.498	n/a	WORD	640749	wordpools/wasnorm_wordpool.txt	LTP151	ltpFR	7	4	1	SKUNK	1321	n/a	n/a	1	n/a	0	0	0	0.57763671875	0.412841796875	1	upper	amplitud.ttf
1284.506	n/a	START	642253	n/a	LTP151	ltpFR	7	n/a	n/a	n/a	n/a	n/a	n/a	n/a	n/a	n/a	n/a	n/a	n/a	n/a	n/a	n/a	n/a
1285.48	n/a	PROB	642740	n/a	LTP151	ltpFR	7	n/a	n/a	n/a	n/a	n/a	n/a	n/a	12	4	3	5	n/a	n/a	n/a	n/a	n/a
1287.554	n/a	PROB	643777	n/a	LTP151	ltpFR	7	n/a	n/a	n/a	n/a	n/a	n/a	n/a	20	5	7	8	n/a	n/a	n/a	n/a	n/a
1289.796	n/a	PROB	644898	n/a	LTP151	ltpFR	7	n/a	n/a	n/a	n/a	n/a	n/a	n/a	16	5	5	6	n/a	n/a	n/a	n/a	n/a
1291.896	n/a	STOP	645948	n/a	LTP151	ltpFR	7	n/a	n/a	n/a	n/a	n/a	n/a	n/a	n/a	n/a	n/a	n/a	n/a	n/a	n/a	n/a	n/a
1293.588	n/a	WORD	646794	wordpools/wasnorm_wordpool.txt	LTP151	ltpFR	7	4	1	MOSS	918	n/a	n/a	1	n/a	0	0	0	0.57763671875	0.412841796875	1	upper	amplitud.ttf
1296.594	n/a	START	648297	n/a	LTP151	ltpFR	7	n/a	n/a	n/a	n/a	n/a	n/a	n/a	n/a	n/a	n/a	n/a	n/a	n/a	n/a	n/a	n/a
1297.56	n/a	PROB	648780	n/a	LTP151	ltpFR	7	n/a	n/a	n/a	n/a	n/a	n/a	n/a	11	2	5	4	n/a	n/a	n/a	n/a	n/a
1299.426	n/a	PROB	649713	n/a	LTP151	ltpFR	7	n/a	n/a	n/a	n/a	n/a	n/a	n/a	12	2	2	8	n/a	n/a	n/a	n/a	n/a
1301.526	n/a	PROB	650763	n/a	LTP151	ltpFR	7	n/a	n/a	n/a	n/a	n/a	n/a	n/a	16	7	4	5	n/a	n/a	n/a	n/a	n/a
1303.566	n/a	STOP	651783	n/a	LTP151	ltpFR	7	n/a	n/a	n/a	n/a	n/a	n/a	n/a	n/a	n/a	n/a	n/a	n/a	n/a	n/a	n/a	n/a
1305.716	n/a	WORD	652858	wordpools/wasnorm_wordpool.txt	LTP151	ltpFR	7	4	1	TEMPLE	1448	n/a	n/a	0	n/a	0	0	0	0.57763671875	0.412841796875	1	upper	amplitud.ttf
1308.724	n/a	START	654362	n/a	LTP151	ltpFR	7	n/a	n/a	n/a	n/a	n/a	n/a	n/a	n/a	n/a	n/a	n/a	n/a	n/a	n/a	n/a	n/a
1309.674	n/a	PROB	654837	n/a	LTP151	ltpFR	7	n/a	n/a	n/a	n/a	n/a	n/a	n/a	16	5	6	6	n/a	n/a	n/a	n/a	n/a
1315.672	n/a	STOP	657836	n/a	LTP151	ltpFR	7	n/a	n/a	n/a	n/a	n/a	n/a	n/a	n/a	n/a	n/a	n/a	n/a	n/a	n/a	n/a	n/a
1317.772	n/a	WORD	658886	wordpools/wasnorm_wordpool.txt	LTP151	ltpFR	7	4	1	BRIDGE	174	n/a	n/a	0	n/a	0	0	0	0.57763671875	0.412841796875	1	upper	amplitud.ttf
1320.778	n/a	START	660389	n/a	LTP151	ltpFR	7	n/a	n/a	n/a	n/a	n/a	n/a	n/a	n/a	n/a	n/a	n/a	n/a	n/a	n/a	n/a	n/a
1321.654	n/a	PROB	660827	n/a	LTP151	ltpFR	7	n/a	n/a	n/a	n/a	n/a	n/a	n/a	18	5	7	6	n/a	n/a	n/a	n/a	n/a
1324.052	n/a	PROB	662026	n/a	LTP151	ltpFR	7	n/a	n/a	n/a	n/a	n/a	n/a	n/a	18	3	8	7	n/a	n/a	n/a	n/a	n/a
1328.78	n/a	STOP	664390	n/a	LTP151	ltpFR	7	n/a	n/a	n/a	n/a	n/a	n/a	n/a	n/a	n/a	n/a	n/a	n/a	n/a	n/a	n/a	n/a
1329.894	n/a	WORD	664947	wordpools/wasnorm_wordpool.txt	LTP151	ltpFR	7	4	1	WATER	1594	n/a	n/a	0	n/a	0	0	0	0.57763671875	0.412841796875	1	upper	amplitud.ttf
1332.902	n/a	START	666451	n/a	LTP151	ltpFR	7	n/a	n/a	n/a	n/a	n/a	n/a	n/a	n/a	n/a	n/a	n/a	n/a	n/a	n/a	n/a	n/a
1333.8	n/a	PROB	666900	n/a	LTP151	ltpFR	7	n/a	n/a	n/a	n/a	n/a	n/a	n/a	20	6	5	9	n/a	n/a	n/a	n/a	n/a
1336.116	n/a	PROB	668058	n/a	LTP151	ltpFR	7	n/a	n/a	n/a	n/a	n/a	n/a	n/a	23	7	6	8	n/a	n/a	n/a	n/a	n/a
1340.902	n/a	STOP	670451	n/a	LTP151	ltpFR	7	n/a	n/a	n/a	n/a	n/a	n/a	n/a	n/a	n/a	n/a	n/a	n/a	n/a	n/a	n/a	n/a
1342.014	n/a	WORD	671007	wordpools/wasnorm_wordpool.txt	LTP151	ltpFR	7	4	1	CHAPEL	280	n/a	n/a	n/a	n/a	0	0	0	0.57763671875	0.412841796875	1	upper	amplitud.ttf
1345.038	n/a	SLOW_MSG	672519	n/a	LTP151	ltpFR	7	4	n/a	n/a	n/a	n/a	n/a	n/a	n/a	0	0	0	n/a	n/a	n/a	n/a	n/a
1346.554	n/a	START	673277	n/a	LTP151	ltpFR	7	n/a	n/a	n/a	n/a	n/a	n/a	n/a	n/a	n/a	n/a	n/a	n/a	n/a	n/a	n/a	n/a
1347.68	n/a	PROB	673840	n/a	LTP151	ltpFR	7	n/a	n/a	n/a	n/a	n/a	n/a	n/a	16	5	6	3	n/a	n/a	n/a	n/a	n/a
1350.07	n/a	PROB	675035	n/a	LTP151	ltpFR	7	n/a	n/a	n/a	n/a	n/a	n/a	n/a	11	7	3	1	n/a	n/a	n/a	n/a	n/a
1353.218	n/a	STOP	676609	n/a	LTP151	ltpFR	7	n/a	n/a	n/a	n/a	n/a	n/a	n/a	n/a	n/a	n/a	n/a	n/a	n/a	n/a	n/a	n/a
1355.394	n/a	WORD	677697	wordpools/wasnorm_wordpool.txt	LTP151	ltpFR	7	4	1	FRAGRANCE	599	n/a	n/a	0	n/a	0	0	0	0.57763671875	0.412841796875	1	upper	amplitud.ttf
1358.4	n/a	START	679200	n/a	LTP151	ltpFR	7	n/a	n/a	n/a	n/a	n/a	n/a	n/a	n/a	n/a	n/a	n/a	n/a	n/a	n/a	n/a	n/a
1359.484	n/a	PROB	679742	n/a	LTP151	ltpFR	7	n/a	n/a	n/a	n/a	n/a	n/a	n/a	13	1	7	5	n/a	n/a	n/a	n/a	n/a
1361.858	n/a	PROB	680929	n/a	LTP151	ltpFR	7	n/a	n/a	n/a	n/a	n/a	n/a	n/a	9	3	2	4	n/a	n/a	n/a	n/a	n/a
1366.402	n/a	STOP	683201	n/a	LTP151	ltpFR	7	n/a	n/a	n/a	n/a	n/a	n/a	n/a	n/a	n/a	n/a	n/a	n/a	n/a	n/a	n/a	n/a
1368.324	n/a	REC_START	684162	n/a	LTP151	ltpFR	7	4	n/a	n/a	n/a	n/a	n/a	n/a	n/a	0	0	0	n/a	n/a	n/a	n/a	n/a
1372.992	n/a	REC_WORD	686496	wordpools/wasnorm_wordpool.txt	LTP151	ltpFR	7	4	0	SHRINE	1298	n/a	n/a	1	n/a	0	0	0	n/a	n/a	n/a	n/a	n/a
1375.766	n/a	REC_WORD	687883	wordpools/wasnorm_wordpool.txt	LTP151	ltpFR	7	4	1	MOSS	918	n/a	n/a	1	n/a	0	0	0	n/a	n/a	n/a	n/a	n/a
1378.216	n/a	REC_WORD	689108	wordpools/wasnorm_wordpool.txt	LTP151	ltpFR	7	4	1	EMPLOYEE	531	n/a	n/a	1	n/a	0	0	0	n/a	n/a	n/a	n/a	n/a
1382.122	n/a	REC_WORD	691061	wordpools/wasnorm_wordpool.txt	LTP151	ltpFR	7	4	1	FRAGRANCE	599	n/a	n/a	0	n/a	0	0	0	n/a	n/a	n/a	n/a	n/a
1387.994	n/a	REC_WORD	693997	wordpools/wasnorm_wordpool.txt	LTP151	ltpFR	7	4	1	CHAPEL	280	n/a	n/a	n/a	n/a	0	0	0	n/a	n/a	n/a	n/a	n/a
1391.496	n/a	REC_WORD	695748	wordpools/wasnorm_wordpool.txt	LTP151	ltpFR	7	4	1	TOMATO	1476	n/a	n/a	0	n/a	0	0	0	n/a	n/a	n/a	n/a	n/a
1393.152	n/a	REC_WORD	696576	wordpools/wasnorm_wordpool.txt	LTP151	ltpFR	7	4	1	KETCHUP	771	n/a	n/a	0	n/a	0	0	0	n/a	n/a	n/a	n/a	n/a
1394.524	n/a	REC_WORD	697262	wordpools/wasnorm_wordpool.txt	LTP151	ltpFR	7	4	1	VEGETABLE	1552	n/a	n/a	0	n/a	0	0	0	n/a	n/a	n/a	n/a	n/a
1436.492	n/a	REC_WORD	718246	wordpools/wasnorm_wordpool.txt	LTP151	ltpFR	7	4	1	TEMPLE	1448	n/a	n/a	0	n/a	0	0	0	n/a	n/a	n/a	n/a	n/a
1488.152	n/a	WORD	744076	wordpools/wasnorm_wordpool.txt	LTP151	ltpFR	7	5	1	MONSTER	912	n/a	n/a	0	n/a	0	0	0	0.57763671875	0.412841796875	1	upper	amplitud.ttf
1492.034	n/a	WORD	746017	wordpools/wasnorm_wordpool.txt	LTP151	ltpFR	7	5	1	SEAL	1262	n/a	n/a	1	n/a	0	0	0	0.57763671875	0.412841796875	1	upper	amplitud.ttf
1496.25	n/a	WORD	748125	wordpools/wasnorm_wordpool.txt	LTP151	ltpFR	7	5	1	FUDGE	611	n/a	n/a	0	n/a	0	0	0	0.57763671875	0.412841796875	1	upper	amplitud.ttf
1500.216	n/a	WORD	750108	wordpools/wasnorm_wordpool.txt	LTP151	ltpFR	7	5	1	OCEAN	970	n/a	n/a	0	n/a	0	0	0	0.57763671875	0.412841796875	1	upper	amplitud.ttf
1504.248	n/a	WORD	752124	wordpools/wasnorm_wordpool.txt	LTP151	ltpFR	7	5	1	PUMP	1141	n/a	n/a	0	n/a	0	0	0	0.57763671875	0.412841796875	1	upper	amplitud.ttf
1508.272	n/a	WORD	754136	wordpools/wasnorm_wordpool.txt	LTP151	ltpFR	7	5	1	MONASTERY	907	n/a	n/a	0	n/a	0	0	0	0.57763671875	0.412841796875	1	upper	amplitud.ttf
1512.112	n/a	WORD	756056	wordpools/wasnorm_wordpool.txt	LTP151	ltpFR	7	5	1	DRAWING	494	n/a	n/a	0	n/a	0	0	0	0.57763671875	0.412841796875	1	upper	amplitud.ttf
1515.978	n/a	WORD	757989	wordpools/wasnorm_wordpool.txt	LTP151	ltpFR	7	5	1	SWAN	1417	n/a	n/a	1	n/a	0	0	0	0.57763671875	0.412841796875	1	upper	amplitud.ttf
1520.136	n/a	WORD	760068	wordpools/wasnorm_wordpool.txt	LTP151	ltpFR	7	5	1	CANVAS	234	n/a	n/a	0	n/a	0	0	0	0.57763671875	0.412841796875	1	upper	amplitud.ttf
1524.058	n/a	WORD	762029	wordpools/wasnorm_wordpool.txt	LTP151	ltpFR	7	5	1	TRIANGLE	1504	n/a	n/a	0	n/a	0	0	0	0.57763671875	0.412841796875	1	upper	amplitud.ttf
1528.174	n/a	WORD	764087	wordpools/wasnorm_wordpool.txt	LTP151	ltpFR	7	5	1	ROUGE	1213	n/a	n/a	0	n/a	0	0	0	0.57763671875	0.412841796875	1	upper	amplitud.ttf
1532.232	n/a	WORD	766116	wordpools/wasnorm_wordpool.txt	LTP151	ltpFR	7	5	1	BEET	115	n/a	n/a	0	n/a	0	0	0	0.57763671875	0.412841796875	1	upper	amplitud.ttf
1536.288	n/a	WORD	768144	wordpools/wasnorm_wordpool.txt	LTP151	ltpFR	7	5	1	FRIAR	605	n/a	n/a	1	n/a	0	0	0	0.57763671875	0.412841796875	1	upper	amplitud.ttf
1540.362	n/a	WORD	770181	wordpools/wasnorm_wordpool.txt	LTP151	ltpFR	7	5	1	TAPE	1433	n/a	n/a	0	n/a	0	0	0	0.57763671875	0.412841796875	1	upper	amplitud.ttf
1544.478	n/a	WORD	772239	wordpools/wasnorm_wordpool.txt	LTP151	ltpFR	7	5	1	LOVER	846	n/a	n/a	1	n/a	0	0	0	0.57763671875	0.412841796875	1	upper	amplitud.ttf
1548.51	n/a	WORD	774255	wordpools/wasnorm_wordpool.txt	LTP151	ltpFR	7	5	1	MINT	898	n/a	n/a	0	n/a	0	0	0	0.57763671875	0.412841796875	1	upper	amplitud.ttf
1554.368	n/a	REC_START	777184	n/a	LTP151	ltpFR	7	5	n/a	n/a	n/a	n/a	n/a	n/a	n/a	0	0	0	n/a	n/a	n/a	n/a	n/a
1557.052	n/a	REC_WORD	778526	wordpools/wasnorm_wordpool.txt	LTP151	ltpFR	7	5	1	FRIAR	605	n/a	n/a	1	n/a	0	0	0	n/a	n/a	n/a	n/a	n/a
1557.79	n/a	REC_WORD	778895	wordpools/wasnorm_wordpool.txt	LTP151	ltpFR	7	5	1	TAPE	1433	n/a	n/a	0	n/a	0	0	0	n/a	n/a	n/a	n/a	n/a
1558.394	n/a	REC_WORD	779197	wordpools/wasnorm_wordpool.txt	LTP151	ltpFR	7	5	1	LOVER	846	n/a	n/a	1	n/a	0	0	0	n/a	n/a	n/a	n/a	n/a
1559.262	n/a	REC_WORD	779631	wordpools/wasnorm_wordpool.txt	LTP151	ltpFR	7	5	1	MINT	898	n/a	n/a	0	n/a	0	0	0	n/a	n/a	n/a	n/a	n/a
1560.822	n/a	REC_WORD	780411	wordpools/wasnorm_wordpool.txt	LTP151	ltpFR	7	5	1	MONASTERY	907	n/a	n/a	0	n/a	0	0	0	n/a	n/a	n/a	n/a	n/a
1563.512	n/a	REC_WORD	781756	wordpools/wasnorm_wordpool.txt	LTP151	ltpFR	7	5	1	DRAWING	494	n/a	n/a	0	n/a	0	0	0	n/a	n/a	n/a	n/a	n/a
1565.348	n/a	REC_WORD	782674	wordpools/wasnorm_wordpool.txt	LTP151	ltpFR	7	5	1	TRIANGLE	1504	n/a	n/a	0	n/a	0	0	0	n/a	n/a	n/a	n/a	n/a
1566.434	n/a	REC_WORD	783217	wordpools/wasnorm_wordpool.txt	LTP151	ltpFR	7	5	1	CANVAS	234	n/a	n/a	0	n/a	0	0	0	n/a	n/a	n/a	n/a	n/a
1567.332	n/a	REC_WORD	783666	wordpools/wasnorm_wordpool.txt	LTP151	ltpFR	7	5	1	SWAN	1417	n/a	n/a	1	n/a	0	0	0	n/a	n/a	n/a	n/a	n/a
1568.654	n/a	REC_WORD	784327	wordpools/wasnorm_wordpool.txt	LTP151	ltpFR	7	5	1	SEAL	1262	n/a	n/a	1	n/a	0	0	0	n/a	n/a	n/a	n/a	n/a
1570.676	n/a	REC_WORD	785338	wordpools/wasnorm_wordpool.txt	LTP151	ltpFR	7	5	1	OCEAN	970	n/a	n/a	0	n/a	0	0	0	n/a	n/a	n/a	n/a	n/a
1571.728	n/a	REC_WORD	785864	wordpools/wasnorm_wordpool.txt	LTP151	ltpFR	7	5	1	FUDGE	611	n/a	n/a	0	n/a	0	0	0	n/a	n/a	n/a	n/a	n/a
1579.186	n/a	REC_WORD	789593	wordpools/wasnorm_wordpool.txt	LTP151	ltpFR	7	5	1	MONSTER	912	n/a	n/a	0	n/a	0	0	0	n/a	n/a	n/a	n/a	n/a
1587.128	n/a	REC_WORD	793564	wordpools/wasnorm_wordpool.txt	LTP151	ltpFR	7	5	1	BEET	115	n/a	n/a	0	n/a	0	0	0	n/a	n/a	n/a	n/a	n/a
1633.384	n/a	START	816692	n/a	LTP151	ltpFR	7	n/a	n/a	n/a	n/a	n/a	n/a	n/a	n/a	n/a	n/a	n/a	n/a	n/a	n/a	n/a	n/a
1634.894	n/a	PROB	817447	n/a	LTP151	ltpFR	7	n/a	n/a	n/a	n/a	n/a	n/a	n/a	16	5	4	7	n/a	n/a	n/a	n/a	n/a
1637.892	n/a	PROB	818946	n/a	LTP151	ltpFR	7	n/a	n/a	n/a	n/a	n/a	n/a	n/a	11	2	8	1	n/a	n/a	n/a	n/a	n/a
1639.798	n/a	PROB	819899	n/a	LTP151	ltpFR	7	n/a	n/a	n/a	n/a	n/a	n/a	n/a	17	2	9	6	n/a	n/a	n/a	n/a	n/a
1642.172	n/a	PROB	821086	n/a	LTP151	ltpFR	7	n/a	n/a	n/a	n/a	n/a	n/a	n/a	12	8	1	3	n/a	n/a	n/a	n/a	n/a
1647.114	n/a	PROB	823557	n/a	LTP151	ltpFR	7	n/a	n/a	n/a	n/a	n/a	n/a	n/a	15	4	2	9	n/a	n/a	n/a	n/a	n/a
1648.818	n/a	STOP	824409	n/a	LTP151	ltpFR	7	n/a	n/a	n/a	n/a	n/a	n/a	n/a	n/a	n/a	n/a	n/a	n/a	n/a	n/a	n/a	n/a
1650.246	n/a	WORD	825123	wordpools/wasnorm_wordpool.txt	LTP151	ltpFR	7	6	0	VEHICLE	1553	n/a	n/a	0	n/a	0	0	0	0.422607421875	0.5869140625	0	lower	zerothre.ttf
1653.254	n/a	START	826627	n/a	LTP151	ltpFR	7	n/a	n/a	n/a	n/a	n/a	n/a	n/a	n/a	n/a	n/a	n/a	n/a	n/a	n/a	n/a	n/a
1654.202	n/a	PROB	827101	n/a	LTP151	ltpFR	7	n/a	n/a	n/a	n/a	n/a	n/a	n/a	18	4	5	9	n/a	n/a	n/a	n/a	n/a
1656.652	n/a	PROB	828326	n/a	LTP151	ltpFR	7	n/a	n/a	n/a	n/a	n/a	n/a	n/a	18	4	9	5	n/a	n/a	n/a	n/a	n/a
1659.502	n/a	PROB	829751	n/a	LTP151	ltpFR	7	n/a	n/a	n/a	n/a	n/a	n/a	n/a	24	6	9	7	n/a	n/a	n/a	n/a	n/a
1663.424	n/a	PROB	831712	n/a	LTP151	ltpFR	7	n/a	n/a	n/a	n/a	n/a	n/a	n/a	8	1	6	1	n/a	n/a	n/a	n/a	n/a
1666.208	n/a	PROB	833104	n/a	LTP151	ltpFR	7	n/a	n/a	n/a	n/a	n/a	n/a	n/a	15	4	2	9	n/a	n/a	n/a	n/a	n/a
1668.346	n/a	STOP	834173	n/a	LTP151	ltpFR	7	n/a	n/a	n/a	n/a	n/a	n/a	n/a	n/a	n/a	n/a	n/a	n/a	n/a	n/a	n/a	n/a
1670.432	n/a	WORD	835216	wordpools/wasnorm_wordpool.txt	LTP151	ltpFR	7	6	0	POCKET	1093	n/a	n/a	0	n/a	0	0	0	0.422607421875	0.5869140625	0	lower	zerothre.ttf
1673.448	n/a	START	836724	n/a	LTP151	ltpFR	7	n/a	n/a	n/a	n/a	n/a	n/a	n/a	n/a	n/a	n/a	n/a	n/a	n/a	n/a	n/a	n/a
1674.446	n/a	PROB	837223	n/a	LTP151	ltpFR	7	n/a	n/a	n/a	n/a	n/a	n/a	n/a	20	9	9	2	n/a	n/a	n/a	n/a	n/a
1676.362	n/a	PROB	838181	n/a	LTP151	ltpFR	7	n/a	n/a	n/a	n/a	n/a	n/a	n/a	9	4	2	3	n/a	n/a	n/a	n/a	n/a
1681.02	n/a	PROB	840510	n/a	LTP151	ltpFR	7	n/a	n/a	n/a	n/a	n/a	n/a	n/a	17	7	7	3	n/a	n/a	n/a	n/a	n/a
1682.994	n/a	PROB	841497	n/a	LTP151	ltpFR	7	n/a	n/a	n/a	n/a	n/a	n/a	n/a	16	8	6	2	n/a	n/a	n/a	n/a	n/a
1685.052	n/a	PROB	842526	n/a	LTP151	ltpFR	7	n/a	n/a	n/a	n/a	n/a	n/a	n/a	14	8	5	1	n/a	n/a	n/a	n/a	n/a
1688.348	n/a	STOP	844174	n/a	LTP151	ltpFR	7	n/a	n/a	n/a	n/a	n/a	n/a	n/a	n/a	n/a	n/a	n/a	n/a	n/a	n/a	n/a	n/a
1690.358	n/a	WORD	845179	wordpools/wasnorm_wordpool.txt	LTP151	ltpFR	7	6	0	DESIGNER	451	n/a	n/a	1	n/a	0	0	0	0.422607421875	0.5869140625	0	lower	zerothre.ttf
1693.366	n/a	START	846683	n/a	LTP151	ltpFR	7	n/a	n/a	n/a	n/a	n/a	n/a	n/a	n/a	n/a	n/a	n/a	n/a	n/a	n/a	n/a	n/a
1694.2	n/a	PROB	847100	n/a	LTP151	ltpFR	7	n/a	n/a	n/a	n/a	n/a	n/a	n/a	18	5	4	9	n/a	n/a	n/a	n/a	n/a
1696.016	n/a	PROB	848008	n/a	LTP151	ltpFR	7	n/a	n/a	n/a	n/a	n/a	n/a	n/a	15	5	5	5	n/a	n/a	n/a	n/a	n/a
1697.348	n/a	PROB	848674	n/a	LTP151	ltpFR	7	n/a	n/a	n/a	n/a	n/a	n/a	n/a	20	7	4	9	n/a	n/a	n/a	n/a	n/a
1700.496	n/a	PROB	850248	n/a	LTP151	ltpFR	7	n/a	n/a	n/a	n/a	n/a	n/a	n/a	13	2	9	2	n/a	n/a	n/a	n/a	n/a
1702.882	n/a	PROB	851441	n/a	LTP151	ltpFR	7	n/a	n/a	n/a	n/a	n/a	n/a	n/a	15	7	1	7	n/a	n/a	n/a	n/a	n/a
1704.446	n/a	PROB	852223	n/a	LTP151	ltpFR	7	n/a	n/a	n/a	n/a	n/a	n/a	n/a	16	3	4	9	n/a	n/a	n/a	n/a	n/a
1709.368	n/a	STOP	854684	n/a	LTP151	ltpFR	7	n/a	n/a	n/a	n/a	n/a	n/a	n/a	n/a	n/a	n/a	n/a	n/a	n/a	n/a	n/a	n/a
1710.27	n/a	WORD	855135	wordpools/wasnorm_wordpool.txt	LTP151	ltpFR	7	6	0	BARTENDER	92	n/a	n/a	1	n/a	0	0	0	0.422607421875	0.5869140625	0	lower	zerothre.ttf
1713.278	n/a	START	856639	n/a	LTP151	ltpFR	7	n/a	n/a	n/a	n/a	n/a	n/a	n/a	n/a	n/a	n/a	n/a	n/a	n/a	n/a	n/a	n/a
1714.342	n/a	PROB	857171	n/a	LTP151	ltpFR	7	n/a	n/a	n/a	n/a	n/a	n/a	n/a	10	7	2	1	n/a	n/a	n/a	n/a	n/a
1716.15	n/a	PROB	858075	n/a	LTP151	ltpFR	7	n/a	n/a	n/a	n/a	n/a	n/a	n/a	18	9	5	4	n/a	n/a	n/a	n/a	n/a
1718.116	n/a	PROB	859058	n/a	LTP151	ltpFR	7	n/a	n/a	n/a	n/a	n/a	n/a	n/a	15	8	4	3	n/a	n/a	n/a	n/a	n/a
1722.324	n/a	PROB	861162	n/a	LTP151	ltpFR	7	n/a	n/a	n/a	n/a	n/a	n/a	n/a	20	5	9	6	n/a	n/a	n/a	n/a	n/a
1729.278	n/a	STOP	864639	n/a	LTP151	ltpFR	7	n/a	n/a	n/a	n/a	n/a	n/a	n/a	n/a	n/a	n/a	n/a	n/a	n/a	n/a	n/a	n/a
1730.138	n/a	WORD	865069	wordpools/wasnorm_wordpool.txt	LTP151	ltpFR	7	6	0	SHOE	1288	n/a	n/a	0	n/a	0	0	0	0.422607421875	0.5869140625	0	lower	zerothre.ttf
1733.146	n/a	START	866573	n/a	LTP151	ltpFR	7	n/a	n/a	n/a	n/a	n/a	n/a	n/a	n/a	n/a	n/a	n/a	n/a	n/a	n/a	n/a	n/a
1734.162	n/a	PROB	867081	n/a	LTP151	ltpFR	7	n/a	n/a	n/a	n/a	n/a	n/a	n/a	16	7	3	6	n/a	n/a	n/a	n/a	n/a
1736.302	n/a	PROB	868151	n/a	LTP151	ltpFR	7	n/a	n/a	n/a	n/a	n/a	n/a	n/a	13	6	3	4	n/a	n/a	n/a	n/a	n/a
1738.31	n/a	PROB	869155	n/a	LTP151	ltpFR	7	n/a	n/a	n/a	n/a	n/a	n/a	n/a	20	6	7	7	n/a	n/a	n/a	n/a	n/a
1741.094	n/a	PROB	870547	n/a	LTP151	ltpFR	7	n/a	n/a	n/a	n/a	n/a	n/a	n/a	13	1	6	6	n/a	n/a	n/a	n/a	n/a
1742.694	n/a	PROB	871347	n/a	LTP151	ltpFR	7	n/a	n/a	n/a	n/a	n/a	n/a	n/a	15	1	7	7	n/a	n/a	n/a	n/a	n/a
1744.218	n/a	PROB	872109	n/a	LTP151	ltpFR	7	n/a	n/a	n/a	n/a	n/a	n/a	n/a	15	6	8	1	n/a	n/a	n/a	n/a	n/a
1749.148	n/a	STOP	874574	n/a	LTP151	ltpFR	7	n/a	n/a	n/a	n/a	n/a	n/a	n/a	n/a	n/a	n/a	n/a	n/a	n/a	n/a	n/a	n/a
1750.032	n/a	WORD	875016	wordpools/wasnorm_wordpool.txt	LTP151	ltpFR	7	6	0	GRADUATE	653	n/a	n/a	1	n/a	0	0	0	0.422607421875	0.5869140625	0	lower	zerothre.ttf
1753.04	n/a	START	876520	n/a	LTP151	ltpFR	7	n/a	n/a	n/a	n/a	n/a	n/a	n/a	n/a	n/a	n/a	n/a	n/a	n/a	n/a	n/a	n/a
1754.18	n/a	PROB	877090	n/a	LTP151	ltpFR	7	n/a	n/a	n/a	n/a	n/a	n/a	n/a	12	1	6	5	n/a	n/a	n/a	n/a	n/a
1756.072	n/a	PROB	878036	n/a	LTP151	ltpFR	7	n/a	n/a	n/a	n/a	n/a	n/a	n/a	15	6	7	2	n/a	n/a	n/a	n/a	n/a
1759.754	n/a	PROB	879877	n/a	LTP151	ltpFR	7	n/a	n/a	n/a	n/a	n/a	n/a	n/a	15	4	8	3	n/a	n/a	n/a	n/a	n/a
1762.438	n/a	PROB	881219	n/a	LTP151	ltpFR	7	n/a	n/a	n/a	n/a	n/a	n/a	n/a	15	6	4	3	n/a	n/a	n/a	n/a	n/a
1764.802	n/a	PROB	882401	n/a	LTP151	ltpFR	7	n/a	n/a	n/a	n/a	n/a	n/a	n/a	17	1	8	8	n/a	n/a	n/a	n/a	n/a
1768.16	n/a	STOP	884080	n/a	LTP151	ltpFR	7	n/a	n/a	n/a	n/a	n/a	n/a	n/a	n/a	n/a	n/a	n/a	n/a	n/a	n/a	n/a	n/a
1769.952	n/a	WORD	884976	wordpools/wasnorm_wordpool.txt	LTP151	ltpFR	7	6	0	SANDPAPER	1231	n/a	n/a	0	n/a	0	0	0	0.422607421875	0.5869140625	0	lower	zerothre.ttf
1772.958	n/a	START	886479	n/a	LTP151	ltpFR	7	n/a	n/a	n/a	n/a	n/a	n/a	n/a	n/a	n/a	n/a	n/a	n/a	n/a	n/a	n/a	n/a
1773.958	n/a	PROB	886979	n/a	LTP151	ltpFR	7	n/a	n/a	n/a	n/a	n/a	n/a	n/a	14	7	1	6	n/a	n/a	n/a	n/a	n/a
1777.282	n/a	PROB	888641	n/a	LTP151	ltpFR	7	n/a	n/a	n/a	n/a	n/a	n/a	n/a	9	6	3	1	n/a	n/a	n/a	n/a	n/a
1779.248	n/a	PROB	889624	n/a	LTP151	ltpFR	7	n/a	n/a	n/a	n/a	n/a	n/a	n/a	13	8	4	1	n/a	n/a	n/a	n/a	n/a
1782.056	n/a	PROB	891028	n/a	LTP151	ltpFR	7	n/a	n/a	n/a	n/a	n/a	n/a	n/a	22	7	9	6	n/a	n/a	n/a	n/a	n/a
1785.814	n/a	PROB	892907	n/a	LTP151	ltpFR	7	n/a	n/a	n/a	n/a	n/a	n/a	n/a	16	3	7	6	n/a	n/a	n/a	n/a	n/a
1787.794	n/a	STOP	893897	n/a	LTP151	ltpFR	7	n/a	n/a	n/a	n/a	n/a	n/a	n/a	n/a	n/a	n/a	n/a	n/a	n/a	n/a	n/a	n/a
1789.922	n/a	WORD	894961	wordpools/wasnorm_wordpool.txt	LTP151	ltpFR	7	6	0	BUILDING	191	n/a	n/a	1	n/a	0	0	0	0.422607421875	0.5869140625	0	lower	zerothre.ttf
1792.928	n/a	START	896464	n/a	LTP151	ltpFR	7	n/a	n/a	n/a	n/a	n/a	n/a	n/a	n/a	n/a	n/a	n/a	n/a	n/a	n/a	n/a	n/a
1793.944	n/a	PROB	896972	n/a	LTP151	ltpFR	7	n/a	n/a	n/a	n/a	n/a	n/a	n/a	9	5	2	2	n/a	n/a	n/a	n/a	n/a
1795.534	n/a	PROB	897767	n/a	LTP151	ltpFR	7	n/a	n/a	n/a	n/a	n/a	n/a	n/a	14	2	3	9	n/a	n/a	n/a	n/a	n/a
1797.952	n/a	PROB	898976	n/a	LTP151	ltpFR	7	n/a	n/a	n/a	n/a	n/a	n/a	n/a	22	9	4	9	n/a	n/a	n/a	n/a	n/a
1799.91	n/a	PROB	899955	n/a	LTP151	ltpFR	7	n/a	n/a	n/a	n/a	n/a	n/a	n/a	13	6	1	6	n/a	n/a	n/a	n/a	n/a
1802.058	n/a	PROB	901029	n/a	LTP151	ltpFR	7	n/a	n/a	n/a	n/a	n/a	n/a	n/a	7	3	1	3	n/a	n/a	n/a	n/a	n/a
1804.208	n/a	PROB	902104	n/a	LTP151	ltpFR	7	n/a	n/a	n/a	n/a	n/a	n/a	n/a	9	1	4	4	n/a	n/a	n/a	n/a	n/a
1806.098	n/a	PROB	903049	n/a	LTP151	ltpFR	7	n/a	n/a	n/a	n/a	n/a	n/a	n/a	18	5	9	4	n/a	n/a	n/a	n/a	n/a
1808.762	n/a	STOP	904381	n/a	LTP151	ltpFR	7	n/a	n/a	n/a	n/a	n/a	n/a	n/a	n/a	n/a	n/a	n/a	n/a	n/a	n/a	n/a	n/a
1809.972	n/a	WORD	904986	wordpools/wasnorm_wordpool.txt	LTP151	ltpFR	7	6	0	HOOK	715	n/a	n/a	0	n/a	0	0	0	0.422607421875	0.5869140625	0	lower	zerothre.ttf
1812.98	n/a	START	906490	n/a	LTP151	ltpFR	7	n/a	n/a	n/a	n/a	n/a	n/a	n/a	n/a	n/a	n/a	n/a	n/a	n/a	n/a	n/a	n/a
1814.18	n/a	PROB	907090	n/a	LTP151	ltpFR	7	n/a	n/a	n/a	n/a	n/a	n/a	n/a	15	2	9	4	n/a	n/a	n/a	n/a	n/a
1816.57	n/a	PROB	908285	n/a	LTP151	ltpFR	7	n/a	n/a	n/a	n/a	n/a	n/a	n/a	26	8	9	9	n/a	n/a	n/a	n/a	n/a
1820.294	n/a	PROB	910147	n/a	LTP151	ltpFR	7	n/a	n/a	n/a	n/a	n/a	n/a	n/a	13	9	2	2	n/a	n/a	n/a	n/a	n/a
1823.894	n/a	PROB	911947	n/a	LTP151	ltpFR	7	n/a	n/a	n/a	n/a	n/a	n/a	n/a	24	7	8	7	n/a	n/a	n/a	n/a	n/a
1828.98	n/a	STOP	914490	n/a	LTP151	ltpFR	7	n/a	n/a	n/a	n/a	n/a	n/a	n/a	n/a	n/a	n/a	n/a	n/a	n/a	n/a	n/a	n/a
1829.816	n/a	WORD	914908	wordpools/wasnorm_wordpool.txt	LTP151	ltpFR	7	6	0	PADDING	999	n/a	n/a	0	n/a	0	0	0	0.422607421875	0.5869140625	0	lower	zerothre.ttf
1832.824	n/a	START	916412	n/a	LTP151	ltpFR	7	n/a	n/a	n/a	n/a	n/a	n/a	n/a	n/a	n/a	n/a	n/a	n/a	n/a	n/a	n/a	n/a
1833.824	n/a	PROB	916912	n/a	LTP151	ltpFR	7	n/a	n/a	n/a	n/a	n/a	n/a	n/a	15	4	4	7	n/a	n/a	n/a	n/a	n/a
1835.948	n/a	PROB	917974	n/a	LTP151	ltpFR	7	n/a	n/a	n/a	n/a	n/a	n/a	n/a	7	4	3	1	n/a	n/a	n/a	n/a	n/a
1838.89	n/a	PROB	919445	n/a	LTP151	ltpFR	7	n/a	n/a	n/a	n/a	n/a	n/a	n/a	9	7	1	1	n/a	n/a	n/a	n/a	n/a
1843.454	n/a	PROB	921727	n/a	LTP151	ltpFR	7	n/a	n/a	n/a	n/a	n/a	n/a	n/a	20	8	3	9	n/a	n/a	n/a	n/a	n/a
1846.394	n/a	PROB	923197	n/a	LTP151	ltpFR	7	n/a	n/a	n/a	n/a	n/a	n/a	n/a	18	6	5	7	n/a	n/a	n/a	n/a	n/a
1848.412	n/a	STOP	924206	n/a	LTP151	ltpFR	7	n/a	n/a	n/a	n/a	n/a	n/a	n/a	n/a	n/a	n/a	n/a	n/a	n/a	n/a	n/a	n/a
1849.81	n/a	WORD	924905	wordpools/wasnorm_wordpool.txt	LTP151	ltpFR	7	6	0	PILLOW	1069	n/a	n/a	1	n/a	0	0	0	0.422607421875	0.5869140625	0	lower	zerothre.ttf
1852.818	n/a	START	926409	n/a	LTP151	ltpFR	7	n/a	n/a	n/a	n/a	n/a	n/a	n/a	n/a	n/a	n/a	n/a	n/a	n/a	n/a	n/a	n/a
1853.968	n/a	PROB	926984	n/a	LTP151	ltpFR	7	n/a	n/a	n/a	n/a	n/a	n/a	n/a	11	2	6	3	n/a	n/a	n/a	n/a	n/a
1855.7	n/a	PROB	927850	n/a	LTP151	ltpFR	7	n/a	n/a	n/a	n/a	n/a	n/a	n/a	18	9	5	5	n/a	n/a	n/a	n/a	n/a
1857.526	n/a	PROB	928763	n/a	LTP151	ltpFR	7	n/a	n/a	n/a	n/a	n/a	n/a	n/a	5	1	2	2	n/a	n/a	n/a	n/a	n/a
1861.85	n/a	PROB	930925	n/a	LTP151	ltpFR	7	n/a	n/a	n/a	n/a	n/a	n/a	n/a	5	3	1	1	n/a	n/a	n/a	n/a	n/a
1863.348	n/a	PROB	931674	n/a	LTP151	ltpFR	7	n/a	n/a	n/a	n/a	n/a	n/a	n/a	9	5	1	3	n/a	n/a	n/a	n/a	n/a
1865.464	n/a	PROB	932732	n/a	LTP151	ltpFR	7	n/a	n/a	n/a	n/a	n/a	n/a	n/a	6	2	3	1	n/a	n/a	n/a	n/a	n/a
1867.614	n/a	STOP	933807	n/a	LTP151	ltpFR	7	n/a	n/a	n/a	n/a	n/a	n/a	n/a	n/a	n/a	n/a	n/a	n/a	n/a	n/a	n/a	n/a
1869.904	n/a	WORD	934952	wordpools/wasnorm_wordpool.txt	LTP151	ltpFR	7	6	0	BARLEY	88	n/a	n/a	0	n/a	0	0	0	0.422607421875	0.5869140625	0	lower	zerothre.ttf
1872.914	n/a	START	936457	n/a	LTP151	ltpFR	7	n/a	n/a	n/a	n/a	n/a	n/a	n/a	n/a	n/a	n/a	n/a	n/a	n/a	n/a	n/a	n/a
1873.754	n/a	PROB	936877	n/a	LTP151	ltpFR	7	n/a	n/a	n/a	n/a	n/a	n/a	n/a	17	6	2	9	n/a	n/a	n/a	n/a	n/a
1877.718	n/a	PROB	938859	n/a	LTP151	ltpFR	7	n/a	n/a	n/a	n/a	n/a	n/a	n/a	18	5	9	4	n/a	n/a	n/a	n/a	n/a
1880.868	n/a	PROB	940434	n/a	LTP151	ltpFR	7	n/a	n/a	n/a	n/a	n/a	n/a	n/a	19	8	8	3	n/a	n/a	n/a	n/a	n/a
1883.4	n/a	PROB	941700	n/a	LTP151	ltpFR	7	n/a	n/a	n/a	n/a	n/a	n/a	n/a	17	5	6	6	n/a	n/a	n/a	n/a	n/a
1888.118	n/a	STOP	944059	n/a	LTP151	ltpFR	7	n/a	n/a	n/a	n/a	n/a	n/a	n/a	n/a	n/a	n/a	n/a	n/a	n/a	n/a	n/a	n/a
1889.782	n/a	WORD	944891	wordpools/wasnorm_wordpool.txt	LTP151	ltpFR	7	6	0	BUTTERFLY	206	n/a	n/a	0	n/a	0	0	0	0.422607421875	0.5869140625	0	lower	zerothre.ttf
1892.79	n/a	START	946395	n/a	LTP151	ltpFR	7	n/a	n/a	n/a	n/a	n/a	n/a	n/a	n/a	n/a	n/a	n/a	n/a	n/a	n/a	n/a	n/a
1893.68	n/a	PROB	946840	n/a	LTP151	ltpFR	7	n/a	n/a	n/a	n/a	n/a	n/a	n/a	15	8	2	5	n/a	n/a	n/a	n/a	n/a
1895.756	n/a	PROB	947878	n/a	LTP151	ltpFR	7	n/a	n/a	n/a	n/a	n/a	n/a	n/a	22	8	9	5	n/a	n/a	n/a	n/a	n/a
1899.638	n/a	PROB	949819	n/a	LTP151	ltpFR	7	n/a	n/a	n/a	n/a	n/a	n/a	n/a	18	7	2	9	n/a	n/a	n/a	n/a	n/a
1901.944	n/a	PROB	950972	n/a	LTP151	ltpFR	7	n/a	n/a	n/a	n/a	n/a	n/a	n/a	13	6	6	1	n/a	n/a	n/a	n/a	n/a
1903.718	n/a	PROB	951859	n/a	LTP151	ltpFR	7	n/a	n/a	n/a	n/a	n/a	n/a	n/a	19	5	7	7	n/a	n/a	n/a	n/a	n/a
1905.818	n/a	PROB	952909	n/a	LTP151	ltpFR	7	n/a	n/a	n/a	n/a	n/a	n/a	n/a	16	2	8	6	n/a	n/a	n/a	n/a	n/a
1907.896	n/a	STOP	953948	n/a	LTP151	ltpFR	7	n/a	n/a	n/a	n/a	n/a	n/a	n/a	n/a	n/a	n/a	n/a	n/a	n/a	n/a	n/a	n/a
1909.61	n/a	WORD	954805	wordpools/wasnorm_wordpool.txt	LTP151	ltpFR	7	6	0	ROACH	1195	n/a	n/a	0	n/a	0	0	0	0.422607421875	0.5869140625	0	lower	zerothre.ttf
1912.618	n/a	START	956309	n/a	LTP151	ltpFR	7	n/a	n/a	n/a	n/a	n/a	n/a	n/a	n/a	n/a	n/a	n/a	n/a	n/a	n/a	n/a	n/a
1913.634	n/a	PROB	956817	n/a	LTP151	ltpFR	7	n/a	n/a	n/a	n/a	n/a	n/a	n/a	16	5	6	5	n/a	n/a	n/a	n/a	n/a
1915.59	n/a	PROB	957795	n/a	LTP151	ltpFR	7	n/a	n/a	n/a	n/a	n/a	n/a	n/a	13	3	4	6	n/a	n/a	n/a	n/a	n/a
1918.406	n/a	PROB	959203	n/a	LTP151	ltpFR	7	n/a	n/a	n/a	n/a	n/a	n/a	n/a	25	9	7	9	n/a	n/a	n/a	n/a	n/a
1928.608	n/a	STOP	964304	n/a	LTP151	ltpFR	7	n/a	n/a	n/a	n/a	n/a	n/a	n/a	n/a	n/a	n/a	n/a	n/a	n/a	n/a	n/a	n/a
1929.52	n/a	WORD	964760	wordpools/wasnorm_wordpool.txt	LTP151	ltpFR	7	6	0	BLUEPRINT	142	n/a	n/a	1	n/a	0	0	0	0.422607421875	0.5869140625	0	lower	zerothre.ttf
1932.528	n/a	START	966264	n/a	LTP151	ltpFR	7	n/a	n/a	n/a	n/a	n/a	n/a	n/a	n/a	n/a	n/a	n/a	n/a	n/a	n/a	n/a	n/a
1933.618	n/a	PROB	966809	n/a	LTP151	ltpFR	7	n/a	n/a	n/a	n/a	n/a	n/a	n/a	12	1	8	3	n/a	n/a	n/a	n/a	n/a
1935.802	n/a	PROB	967901	n/a	LTP151	ltpFR	7	n/a	n/a	n/a	n/a	n/a	n/a	n/a	15	3	5	7	n/a	n/a	n/a	n/a	n/a
1938.284	n/a	PROB	969142	n/a	LTP151	ltpFR	7	n/a	n/a	n/a	n/a	n/a	n/a	n/a	11	1	8	2	n/a	n/a	n/a	n/a	n/a
1940.108	n/a	PROB	970054	n/a	LTP151	ltpFR	7	n/a	n/a	n/a	n/a	n/a	n/a	n/a	5	1	1	3	n/a	n/a	n/a	n/a	n/a
1941.7	n/a	PROB	970850	n/a	LTP151	ltpFR	7	n/a	n/a	n/a	n/a	n/a	n/a	n/a	21	8	9	4	n/a	n/a	n/a	n/a	n/a
1948.528	n/a	STOP	974264	n/a	LTP151	ltpFR	7	n/a	n/a	n/a	n/a	n/a	n/a	n/a	n/a	n/a	n/a	n/a	n/a	n/a	n/a	n/a	n/a
1949.498	n/a	WORD	974749	wordpools/wasnorm_wordpool.txt	LTP151	ltpFR	7	6	0	FIN	566	n/a	n/a	0	n/a	0	0	0	0.422607421875	0.5869140625	0	lower	zerothre.ttf
1952.504	n/a	START	976252	n/a	LTP151	ltpFR	7	n/a	n/a	n/a	n/a	n/a	n/a	n/a	n/a	n/a	n/a	n/a	n/a	n/a	n/a	n/a	n/a
1953.562	n/a	PROB	976781	n/a	LTP151	ltpFR	7	n/a	n/a	n/a	n/a	n/a	n/a	n/a	11	4	6	1	n/a	n/a	n/a	n/a	n/a
1955.27	n/a	PROB	977635	n/a	LTP151	ltpFR	7	n/a	n/a	n/a	n/a	n/a	n/a	n/a	11	1	3	7	n/a	n/a	n/a	n/a	n/a
1957.02	n/a	PROB	978510	n/a	LTP151	ltpFR	7	n/a	n/a	n/a	n/a	n/a	n/a	n/a	10	1	2	7	n/a	n/a	n/a	n/a	n/a
1959.26	n/a	PROB	979630	n/a	LTP151	ltpFR	7	n/a	n/a	n/a	n/a	n/a	n/a	n/a	18	3	6	9	n/a	n/a	n/a	n/a	n/a
1962.834	n/a	PROB	981417	n/a	LTP151	ltpFR	7	n/a	n/a	n/a	n/a	n/a	n/a	n/a	11	4	6	1	n/a	n/a	n/a	n/a	n/a
1968.504	n/a	STOP	984252	n/a	LTP151	ltpFR	7	n/a	n/a	n/a	n/a	n/a	n/a	n/a	n/a	n/a	n/a	n/a	n/a	n/a	n/a	n/a	n/a
1970.384	n/a	REC_START	985192	n/a	LTP151	ltpFR	7	6	n/a	n/a	n/a	n/a	n/a	n/a	n/a	0	0	0	n/a	n/a	n/a	n/a	n/a
1972.938	n/a	REC_WORD	986469	wordpools/wasnorm_wordpool.txt	LTP151	ltpFR	7	6	0	FIN	566	n/a	n/a	0	n/a	0	0	0	n/a	n/a	n/a	n/a	n/a
1974.604	n/a	REC_WORD	987302	wordpools/wasnorm_wordpool.txt	LTP151	ltpFR	7	6	0	BLUEPRINT	142	n/a	n/a	1	n/a	0	0	0	n/a	n/a	n/a	n/a	n/a
1976.254	n/a	REC_WORD	988127	wordpools/wasnorm_wordpool.txt	LTP151	ltpFR	7	6	0	ROACH	1195	n/a	n/a	0	n/a	0	0	0	n/a	n/a	n/a	n/a	n/a
1977.408	n/a	REC_WORD	988704	wordpools/wasnorm_wordpool.txt	LTP151	ltpFR	7	6	0	PADDING	999	n/a	n/a	0	n/a	0	0	0	n/a	n/a	n/a	n/a	n/a
2082.998	n/a	WORD	1041499	wordpools/wasnorm_wordpool.txt	LTP151	ltpFR	7	7	0	RELATIVE	1182	n/a	n/a	1	n/a	0	0	0	0.422607421875	0.5869140625	0	lower	zerothre.ttf
2086.932	n/a	WORD	1043466	wordpools/wasnorm_wordpool.txt	LTP151	ltpFR	7	7	0	ROOMMATE	1207	n/a	n/a	1	n/a	0	0	0	0.422607421875	0.5869140625	0	lower	zerothre.ttf
2090.97	n/a	WORD	1045485	wordpools/wasnorm_wordpool.txt	LTP151	ltpFR	7	7	0	CELLO	268	n/a	n/a	1	n/a	0	0	0	0.422607421875	0.5869140625	0	lower	zerothre.ttf
2094.82	n/a	WORD	1047410	wordpools/wasnorm_wordpool.txt	LTP151	ltpFR	7	7	0	AUNT	60	n/a	n/a	1	n/a	0	0	0	0.422607421875	0.5869140625	0	lower	zerothre.ttf
2098.678	n/a	WORD	1049339	wordpools/wasnorm_wordpool.txt	LTP151	ltpFR	7	7	0	FLOUR	583	n/a	n/a	0	n/a	0	0	0	0.422607421875	0.5869140625	0	lower	zerothre.ttf
2102.852	n/a	WORD	1051426	wordpools/wasnorm_wordpool.txt	LTP151	ltpFR	7	7	0	OLIVE	975	n/a	n/a	0	n/a	0	0	0	0.422607421875	0.5869140625	0	lower	zerothre.ttf
2106.708	n/a	WORD	1053354	wordpools/wasnorm_wordpool.txt	LTP151	ltpFR	7	7	0	CHEERLEADER	288	n/a	n/a	1	n/a	0	0	0	0.422607421875	0.5869140625	0	lower	zerothre.ttf
2110.764	n/a	WORD	1055382	wordpools/wasnorm_wordpool.txt	LTP151	ltpFR	7	7	0	TEAM	1441	n/a	n/a	1	n/a	0	0	0	0.422607421875	0.5869140625	0	lower	zerothre.ttf
2114.882	n/a	WORD	1057441	wordpools/wasnorm_wordpool.txt	LTP151	ltpFR	7	7	0	PASTRY	1022	n/a	n/a	0	n/a	0	0	0	0.422607421875	0.5869140625	0	lower	zerothre.ttf
2118.696	n/a	WORD	1059348	wordpools/wasnorm_wordpool.txt	LTP151	ltpFR	7	7	0	ICING	732	n/a	n/a	0	n/a	0	0	0	0.422607421875	0.5869140625	0	lower	zerothre.ttf
2122.786	n/a	WORD	1061393	wordpools/wasnorm_wordpool.txt	LTP151	ltpFR	7	7	0	SPIDER	1351	n/a	n/a	0	n/a	0	0	0	0.422607421875	0.5869140625	0	lower	zerothre.ttf
2126.644	n/a	WORD	1063322	wordpools/wasnorm_wordpool.txt	LTP151	ltpFR	7	7	0	DOUGHNUT	490	n/a	n/a	0	n/a	0	0	0	0.422607421875	0.5869140625	0	lower	zerothre.ttf
2130.726	n/a	WORD	1065363	wordpools/wasnorm_wordpool.txt	LTP151	ltpFR	7	7	0	ACROBAT	4	n/a	n/a	1	n/a	0	0	0	0.422607421875	0.5869140625	0	lower	zerothre.ttf
2134.75	n/a	WORD	1067375	wordpools/wasnorm_wordpool.txt	LTP151	ltpFR	7	7	0	PIE	1062	n/a	n/a	0	n/a	0	0	0	0.422607421875	0.5869140625	0	lower	zerothre.ttf
2138.606	n/a	WORD	1069303	wordpools/wasnorm_wordpool.txt	LTP151	ltpFR	7	7	0	TERMITE	1451	n/a	n/a	0	n/a	0	0	0	0.422607421875	0.5869140625	0	lower	zerothre.ttf
2142.806	n/a	WORD	1071403	wordpools/wasnorm_wordpool.txt	LTP151	ltpFR	7	7	0	BANDANNA	80	n/a	n/a	0	n/a	0	0	0	0.422607421875	0.5869140625	0	lower	zerothre.ttf
2145.812	n/a	START	1072906	n/a	LTP151	ltpFR	7	n/a	n/a	n/a	n/a	n/a	n/a	n/a	n/a	n/a	n/a	n/a	n/a	n/a	n/a	n/a	n/a
2146.922	n/a	PROB	1073461	n/a	LTP151	ltpFR	7	n/a	n/a	n/a	n/a	n/a	n/a	n/a	14	4	3	7	n/a	n/a	n/a	n/a	n/a
2150.536	n/a	PROB	1075268	n/a	LTP151	ltpFR	7	n/a	n/a	n/a	n/a	n/a	n/a	n/a	14	9	2	3	n/a	n/a	n/a	n/a	n/a
2152.95	n/a	STOP	1076475	n/a	LTP151	ltpFR	7	n/a	n/a	n/a	n/a	n/a	n/a	n/a	n/a	n/a	n/a	n/a	n/a	n/a	n/a	n/a	n/a
2155.668	n/a	REC_START	1077834	n/a	LTP151	ltpFR	7	7	n/a	n/a	n/a	n/a	n/a	n/a	n/a	0	0	0	n/a	n/a	n/a	n/a	n/a
2159.444	n/a	REC_WORD	1079722	wordpools/wasnorm_wordpool.txt	LTP151	ltpFR	7	7	0	RELATIVE	1182	n/a	n/a	1	n/a	0	0	0	n/a	n/a	n/a	n/a	n/a
2160.468	n/a	REC_WORD	1080234	wordpools/wasnorm_wordpool.txt	LTP151	ltpFR	7	7	0	ROOMMATE	1207	n/a	n/a	1	n/a	0	0	0	n/a	n/a	n/a	n/a	n/a
2161.944	n/a	REC_WORD	1080972	wordpools/wasnorm_wordpool.txt	LTP151	ltpFR	7	7	0	AUNT	60	n/a	n/a	1	n/a	0	0	0	n/a	n/a	n/a	n/a	n/a
2165.576	n/a	REC_WORD	1082788	wordpools/wasnorm_wordpool.txt	LTP151	ltpFR	7	7	n/a	FLOWER	584	n/a	n/a	n/a	n/a	0	0	0	n/a	n/a	n/a	n/a	n/a
2166.668	n/a	REC_WORD	1083334	wordpools/wasnorm_wordpool.txt	LTP151	ltpFR	7	7	0	OLIVE	975	n/a	n/a	0	n/a	0	0	0	n/a	n/a	n/a	n/a	n/a
2169.258	n/a	REC_WORD	1084629	wordpools/wasnorm_wordpool.txt	LTP151	ltpFR	7	7	0	PASTRY	1022	n/a	n/a	0	n/a	0	0	0	n/a	n/a	n/a	n/a	n/a
2170.68	n/a	REC_WORD	1085340	wordpools/wasnorm_wordpool.txt	LTP151	ltpFR	7	7	0	ICING	732	n/a	n/a	0	n/a	0	0	0	n/a	n/a	n/a	n/a	n/a
2171.728	n/a	REC_WORD	1085864	wordpools/wasnorm_wordpool.txt	LTP151	ltpFR	7	7	0	SPIDER	1351	n/a	n/a	0	n/a	0	0	0	n/a	n/a	n/a	n/a	n/a
2173.544	n/a	REC_WORD	1086772	wordpools/wasnorm_wordpool.txt	LTP151	ltpFR	7	7	0	DOUGHNUT	490	n/a	n/a	0	n/a	0	0	0	n/a	n/a	n/a	n/a	n/a
2174.806	n/a	REC_WORD	1087403	wordpools/wasnorm_wordpool.txt	LTP151	ltpFR	7	7	0	ACROBAT	4	n/a	n/a	1	n/a	0	0	0	n/a	n/a	n/a	n/a	n/a
2176.592	n/a	REC_WORD	1088296	wordpools/wasnorm_wordpool.txt	LTP151	ltpFR	7	7	0	PIE	1062	n/a	n/a	0	n/a	0	0	0	n/a	n/a	n/a	n/a	n/a
2178.482	n/a	REC_WORD	1089241	wordpools/wasnorm_wordpool.txt	LTP151	ltpFR	7	7	0	CHEERLEADER	288	n/a	n/a	1	n/a	0	0	0	n/a	n/a	n/a	n/a	n/a
2179.73	n/a	REC_WORD	1089865	wordpools/wasnorm_wordpool.txt	LTP151	ltpFR	7	7	0	TEAM	1441	n/a	n/a	1	n/a	0	0	0	n/a	n/a	n/a	n/a	n/a
2236.818	n/a	START	1118409	n/a	LTP151	ltpFR	7	n/a	n/a	n/a	n/a	n/a	n/a	n/a	n/a	n/a	n/a	n/a	n/a	n/a	n/a	n/a	n/a
2238.326	n/a	PROB	1119163	n/a	LTP151	ltpFR	7	n/a	n/a	n/a	n/a	n/a	n/a	n/a	14	6	5	3	n/a	n/a	n/a	n/a	n/a
2241.5	n/a	PROB	1120750	n/a	LTP151	ltpFR	7	n/a	n/a	n/a	n/a	n/a	n/a	n/a	10	4	3	3	n/a	n/a	n/a	n/a	n/a
2244.298	n/a	STOP	1122149	n/a	LTP151	ltpFR	7	n/a	n/a	n/a	n/a	n/a	n/a	n/a	n/a	n/a	n/a	n/a	n/a	n/a	n/a	n/a	n/a
2245.792	n/a	WORD	1122896	wordpools/wasnorm_wordpool.txt	LTP151	ltpFR	7	8	1	DRINK	498	n/a	n/a	0	n/a	0	0	0	0.57763671875	0.412841796875	1	upper	amplitud.ttf
2248.8	n/a	START	1124400	n/a	LTP151	ltpFR	7	n/a	n/a	n/a	n/a	n/a	n/a	n/a	n/a	n/a	n/a	n/a	n/a	n/a	n/a	n/a	n/a
2249.698	n/a	PROB	1124849	n/a	LTP151	ltpFR	7	n/a	n/a	n/a	n/a	n/a	n/a	n/a	6	1	4	1	n/a	n/a	n/a	n/a	n/a
2251.44	n/a	PROB	1125720	n/a	LTP151	ltpFR	7	n/a	n/a	n/a	n/a	n/a	n/a	n/a	16	4	4	8	n/a	n/a	n/a	n/a	n/a
2253.564	n/a	PROB	1126782	n/a	LTP151	ltpFR	7	n/a	n/a	n/a	n/a	n/a	n/a	n/a	15	6	5	4	n/a	n/a	n/a	n/a	n/a
2255.282	n/a	STOP	1127641	n/a	LTP151	ltpFR	7	n/a	n/a	n/a	n/a	n/a	n/a	n/a	n/a	n/a	n/a	n/a	n/a	n/a	n/a	n/a	n/a
2257.678	n/a	WORD	1128839	wordpools/wasnorm_wordpool.txt	LTP151	ltpFR	7	8	1	CHEF	290	n/a	n/a	1	n/a	0	0	0	0.57763671875	0.412841796875	1	upper	amplitud.ttf
2260.686	n/a	START	1130343	n/a	LTP151	ltpFR	7	n/a	n/a	n/a	n/a	n/a	n/a	n/a	n/a	n/a	n/a	n/a	n/a	n/a	n/a	n/a	n/a
2261.71	n/a	PROB	1130855	n/a	LTP151	ltpFR	7	n/a	n/a	n/a	n/a	n/a	n/a	n/a	13	1	7	5	n/a	n/a	n/a	n/a	n/a
2263.536	n/a	PROB	1131768	n/a	LTP151	ltpFR	7	n/a	n/a	n/a	n/a	n/a	n/a	n/a	20	3	9	8	n/a	n/a	n/a	n/a	n/a
2268.688	n/a	STOP	1134344	n/a	LTP151	ltpFR	7	n/a	n/a	n/a	n/a	n/a	n/a	n/a	n/a	n/a	n/a	n/a	n/a	n/a	n/a	n/a	n/a
2269.676	n/a	WORD	1134838	wordpools/wasnorm_wordpool.txt	LTP151	ltpFR	7	8	1	SKILLET	1317	n/a	n/a	0	n/a	0	0	0	0.57763671875	0.412841796875	1	upper	amplitud.ttf
2272.684	n/a	START	1136342	n/a	LTP151	ltpFR	7	n/a	n/a	n/a	n/a	n/a	n/a	n/a	n/a	n/a	n/a	n/a	n/a	n/a	n/a	n/a	n/a
2273.558	n/a	PROB	1136779	n/a	LTP151	ltpFR	7	n/a	n/a	n/a	n/a	n/a	n/a	n/a	20	5	8	7	n/a	n/a	n/a	n/a	n/a
2276.232	n/a	PROB	1138116	n/a	LTP151	ltpFR	7	n/a	n/a	n/a	n/a	n/a	n/a	n/a	23	9	8	6	n/a	n/a	n/a	n/a	n/a
2279.924	n/a	STOP	1139962	n/a	LTP151	ltpFR	7	n/a	n/a	n/a	n/a	n/a	n/a	n/a	n/a	n/a	n/a	n/a	n/a	n/a	n/a	n/a	n/a
2281.58	n/a	WORD	1140790	wordpools/wasnorm_wordpool.txt	LTP151	ltpFR	7	8	1	TUB	1514	n/a	n/a	0	n/a	0	0	0	0.57763671875	0.412841796875	1	upper	amplitud.ttf
2284.588	n/a	START	1142294	n/a	LTP151	ltpFR	7	n/a	n/a	n/a	n/a	n/a	n/a	n/a	n/a	n/a	n/a	n/a	n/a	n/a	n/a	n/a	n/a
2285.496	n/a	PROB	1142748	n/a	LTP151	ltpFR	7	n/a	n/a	n/a	n/a	n/a	n/a	n/a	10	5	1	4	n/a	n/a	n/a	n/a	n/a
2287.92	n/a	PROB	1143960	n/a	LTP151	ltpFR	7	n/a	n/a	n/a	n/a	n/a	n/a	n/a	16	3	6	7	n/a	n/a	n/a	n/a	n/a
2292.588	n/a	STOP	1146294	n/a	LTP151	ltpFR	7	n/a	n/a	n/a	n/a	n/a	n/a	n/a	n/a	n/a	n/a	n/a	n/a	n/a	n/a	n/a	n/a
2293.676	n/a	WORD	1146838	wordpools/wasnorm_wordpool.txt	LTP151	ltpFR	7	8	1	DENTIST	447	n/a	n/a	1	n/a	0	0	0	0.57763671875	0.412841796875	1	upper	amplitud.ttf
2296.684	n/a	START	1148342	n/a	LTP151	ltpFR	7	n/a	n/a	n/a	n/a	n/a	n/a	n/a	n/a	n/a	n/a	n/a	n/a	n/a	n/a	n/a	n/a
2297.708	n/a	PROB	1148854	n/a	LTP151	ltpFR	7	n/a	n/a	n/a	n/a	n/a	n/a	n/a	18	8	2	8	n/a	n/a	n/a	n/a	n/a
2300.166	n/a	PROB	1150083	n/a	LTP151	ltpFR	7	n/a	n/a	n/a	n/a	n/a	n/a	n/a	10	2	3	5	n/a	n/a	n/a	n/a	n/a
2304.686	n/a	STOP	1152343	n/a	LTP151	ltpFR	7	n/a	n/a	n/a	n/a	n/a	n/a	n/a	n/a	n/a	n/a	n/a	n/a	n/a	n/a	n/a	n/a
2305.806	n/a	WORD	1152903	wordpools/wasnorm_wordpool.txt	LTP151	ltpFR	7	8	1	SANDWICH	1232	n/a	n/a	0	n/a	0	0	0	0.57763671875	0.412841796875	1	upper	amplitud.ttf
2308.814	n/a	START	1154407	n/a	LTP151	ltpFR	7	n/a	n/a	n/a	n/a	n/a	n/a	n/a	n/a	n/a	n/a	n/a	n/a	n/a	n/a	n/a	n/a
2309.78	n/a	PROB	1154890	n/a	LTP151	ltpFR	7	n/a	n/a	n/a	n/a	n/a	n/a	n/a	12	5	1	6	n/a	n/a	n/a	n/a	n/a
2311.762	n/a	PROB	1155881	n/a	LTP151	ltpFR	7	n/a	n/a	n/a	n/a	n/a	n/a	n/a	13	3	4	6	n/a	n/a	n/a	n/a	n/a
2315.446	n/a	STOP	1157723	n/a	LTP151	ltpFR	7	n/a	n/a	n/a	n/a	n/a	n/a	n/a	n/a	n/a	n/a	n/a	n/a	n/a	n/a	n/a	n/a
2317.962	n/a	WORD	1158981	wordpools/wasnorm_wordpool.txt	LTP151	ltpFR	7	8	1	REINDEER	1181	n/a	n/a	0	n/a	0	0	0	0.57763671875	0.412841796875	1	upper	amplitud.ttf
2320.97	n/a	START	1160485	n/a	LTP151	ltpFR	7	n/a	n/a	n/a	n/a	n/a	n/a	n/a	n/a	n/a	n/a	n/a	n/a	n/a	n/a	n/a	n/a
2322.144	n/a	PROB	1161072	n/a	LTP151	ltpFR	7	n/a	n/a	n/a	n/a	n/a	n/a	n/a	19	3	9	7	n/a	n/a	n/a	n/a	n/a
2325.308	n/a	PROB	1162654	n/a	LTP151	ltpFR	7	n/a	n/a	n/a	n/a	n/a	n/a	n/a	20	6	6	8	n/a	n/a	n/a	n/a	n/a
2328.686	n/a	STOP	1164343	n/a	LTP151	ltpFR	7	n/a	n/a	n/a	n/a	n/a	n/a	n/a	n/a	n/a	n/a	n/a	n/a	n/a	n/a	n/a	n/a
2330.008	n/a	WORD	1165004	wordpools/wasnorm_wordpool.txt	LTP151	ltpFR	7	8	1	CROCODILE	411	n/a	n/a	1	n/a	0	0	0	0.57763671875	0.412841796875	1	upper	amplitud.ttf
2333.014	n/a	START	1166507	n/a	LTP151	ltpFR	7	n/a	n/a	n/a	n/a	n/a	n/a	n/a	n/a	n/a	n/a	n/a	n/a	n/a	n/a	n/a	n/a
2333.906	n/a	PROB	1166953	n/a	LTP151	ltpFR	7	n/a	n/a	n/a	n/a	n/a	n/a	n/a	6	4	1	1	n/a	n/a	n/a	n/a	n/a
2335.506	n/a	PROB	1167753	n/a	LTP151	ltpFR	7	n/a	n/a	n/a	n/a	n/a	n/a	n/a	14	6	3	5	n/a	n/a	n/a	n/a	n/a
2337.906	n/a	PROB	1168953	n/a	LTP151	ltpFR	7	n/a	n/a	n/a	n/a	n/a	n/a	n/a	12	1	6	5	n/a	n/a	n/a	n/a	n/a
2340.048	n/a	STOP	1170024	n/a	LTP151	ltpFR	7	n/a	n/a	n/a	n/a	n/a	n/a	n/a	n/a	n/a	n/a	n/a	n/a	n/a	n/a	n/a	n/a
2342.17	n/a	WORD	1171085	wordpools/wasnorm_wordpool.txt	LTP151	ltpFR	7	8	1	COOLER	375	n/a	n/a	n/a	n/a	0	0	0	0.57763671875	0.412841796875	1	upper	amplitud.ttf
2345.194	n/a	SLOW_MSG	1172597	n/a	LTP151	ltpFR	7	8	n/a	n/a	n/a	n/a	n/a	n/a	n/a	0	0	0	n/a	n/a	n/a	n/a	n/a
2346.71	n/a	START	1173355	n/a	LTP151	ltpFR	7	n/a	n/a	n/a	n/a	n/a	n/a	n/a	n/a	n/a	n/a	n/a	n/a	n/a	n/a	n/a	n/a
2347.76	n/a	PROB	1173880	n/a	LTP151	ltpFR	7	n/a	n/a	n/a	n/a	n/a	n/a	n/a	21	4	8	9	n/a	n/a	n/a	n/a	n/a
2351.85	n/a	PROB	1175925	n/a	LTP151	ltpFR	7	n/a	n/a	n/a	n/a	n/a	n/a	n/a	9	3	2	4	n/a	n/a	n/a	n/a	n/a
2354.152	n/a	STOP	1177076	n/a	LTP151	ltpFR	7	n/a	n/a	n/a	n/a	n/a	n/a	n/a	n/a	n/a	n/a	n/a	n/a	n/a	n/a	n/a	n/a
2355.908	n/a	WORD	1177954	wordpools/wasnorm_wordpool.txt	LTP151	ltpFR	7	8	1	SHOWER	1296	n/a	n/a	0	n/a	0	0	0	0.57763671875	0.412841796875	1	upper	amplitud.ttf
2358.916	n/a	START	1179458	n/a	LTP151	ltpFR	7	n/a	n/a	n/a	n/a	n/a	n/a	n/a	n/a	n/a	n/a	n/a	n/a	n/a	n/a	n/a	n/a
2360.098	n/a	PROB	1180049	n/a	LTP151	ltpFR	7	n/a	n/a	n/a	n/a	n/a	n/a	n/a	18	7	7	4	n/a	n/a	n/a	n/a	n/a
2361.772	n/a	PROB	1180886	n/a	LTP151	ltpFR	7	n/a	n/a	n/a	n/a	n/a	n/a	n/a	19	6	5	8	n/a	n/a	n/a	n/a	n/a
2366.916	n/a	STOP	1183458	n/a	LTP151	ltpFR	7	n/a	n/a	n/a	n/a	n/a	n/a	n/a	n/a	n/a	n/a	n/a	n/a	n/a	n/a	n/a	n/a
2367.862	n/a	WORD	1183931	wordpools/wasnorm_wordpool.txt	LTP151	ltpFR	7	8	1	DELINQUENT	445	n/a	n/a	1	n/a	0	0	0	0.57763671875	0.412841796875	1	upper	amplitud.ttf
2370.872	n/a	START	1185436	n/a	LTP151	ltpFR	7	n/a	n/a	n/a	n/a	n/a	n/a	n/a	n/a	n/a	n/a	n/a	n/a	n/a	n/a	n/a	n/a
2371.844	n/a	PROB	1185922	n/a	LTP151	ltpFR	7	n/a	n/a	n/a	n/a	n/a	n/a	n/a	9	3	5	1	n/a	n/a	n/a	n/a	n/a
2373.852	n/a	PROB	1186926	n/a	LTP151	ltpFR	7	n/a	n/a	n/a	n/a	n/a	n/a	n/a	11	1	3	9	n/a	n/a	n/a	n/a	n/a
2378.872	n/a	STOP	1189436	n/a	LTP151	ltpFR	7	n/a	n/a	n/a	n/a	n/a	n/a	n/a	n/a	n/a	n/a	n/a	n/a	n/a	n/a	n/a	n/a
2379.91	n/a	WORD	1189955	wordpools/wasnorm_wordpool.txt	LTP151	ltpFR	7	8	1	BASKETBALL	96	n/a	n/a	0	n/a	0	0	0	0.57763671875	0.412841796875	1	upper	amplitud.ttf
2382.918	n/a	START	1191459	n/a	LTP151	ltpFR	7	n/a	n/a	n/a	n/a	n/a	n/a	n/a	n/a	n/a	n/a	n/a	n/a	n/a	n/a	n/a	n/a
2383.824	n/a	PROB	1191912	n/a	LTP151	ltpFR	7	n/a	n/a	n/a	n/a	n/a	n/a	n/a	9	4	2	3	n/a	n/a	n/a	n/a	n/a
2385.832	n/a	PROB	1192916	n/a	LTP151	ltpFR	7	n/a	n/a	n/a	n/a	n/a	n/a	n/a	23	8	6	9	n/a	n/a	n/a	n/a	n/a
2388.248	n/a	PROB	1194124	n/a	LTP151	ltpFR	7	n/a	n/a	n/a	n/a	n/a	n/a	n/a	12	1	6	5	n/a	n/a	n/a	n/a	n/a
2390.202	n/a	STOP	1195101	n/a	LTP151	ltpFR	7	n/a	n/a	n/a	n/a	n/a	n/a	n/a	n/a	n/a	n/a	n/a	n/a	n/a	n/a	n/a	n/a
2391.988	n/a	WORD	1195994	wordpools/wasnorm_wordpool.txt	LTP151	ltpFR	7	8	1	BASEBALL	93	n/a	n/a	0	n/a	0	0	0	0.57763671875	0.412841796875	1	upper	amplitud.ttf
2394.996	n/a	START	1197498	n/a	LTP151	ltpFR	7	n/a	n/a	n/a	n/a	n/a	n/a	n/a	n/a	n/a	n/a	n/a	n/a	n/a	n/a	n/a	n/a
2395.88	n/a	PROB	1197940	n/a	LTP151	ltpFR	7	n/a	n/a	n/a	n/a	n/a	n/a	n/a	15	4	4	7	n/a	n/a	n/a	n/a	n/a
2397.554	n/a	PROB	1198777	n/a	LTP151	ltpFR	7	n/a	n/a	n/a	n/a	n/a	n/a	n/a	19	4	6	9	n/a	n/a	n/a	n/a	n/a
2399.344	n/a	PROB	1199672	n/a	LTP151	ltpFR	7	n/a	n/a	n/a	n/a	n/a	n/a	n/a	22	8	9	5	n/a	n/a	n/a	n/a	n/a
2402.714	n/a	STOP	1201357	n/a	LTP151	ltpFR	7	n/a	n/a	n/a	n/a	n/a	n/a	n/a	n/a	n/a	n/a	n/a	n/a	n/a	n/a	n/a	n/a
2404.034	n/a	WORD	1202017	wordpools/wasnorm_wordpool.txt	LTP151	ltpFR	7	8	1	BOXER	160	n/a	n/a	1	n/a	0	0	0	0.57763671875	0.412841796875	1	upper	amplitud.ttf
2407.042	n/a	START	1203521	n/a	LTP151	ltpFR	7	n/a	n/a	n/a	n/a	n/a	n/a	n/a	n/a	n/a	n/a	n/a	n/a	n/a	n/a	n/a	n/a
2408.05	n/a	PROB	1204025	n/a	LTP151	ltpFR	7	n/a	n/a	n/a	n/a	n/a	n/a	n/a	20	9	8	3	n/a	n/a	n/a	n/a	n/a
2410.174	n/a	PROB	1205087	n/a	LTP151	ltpFR	7	n/a	n/a	n/a	n/a	n/a	n/a	n/a	13	2	7	4	n/a	n/a	n/a	n/a	n/a
2412.916	n/a	PROB	1206458	n/a	LTP151	ltpFR	7	n/a	n/a	n/a	n/a	n/a	n/a	n/a	15	4	4	7	n/a	n/a	n/a	n/a	n/a
2414.644	n/a	STOP	1207322	n/a	LTP151	ltpFR	7	n/a	n/a	n/a	n/a	n/a	n/a	n/a	n/a	n/a	n/a	n/a	n/a	n/a	n/a	n/a	n/a
2416.214	n/a	WORD	1208107	wordpools/wasnorm_wordpool.txt	LTP151	ltpFR	7	8	1	SKIRT	1319	n/a	n/a	0	n/a	0	0	0	0.57763671875	0.412841796875	1	upper	amplitud.ttf
2419.222	n/a	START	1209611	n/a	LTP151	ltpFR	7	n/a	n/a	n/a	n/a	n/a	n/a	n/a	n/a	n/a	n/a	n/a	n/a	n/a	n/a	n/a	n/a
2420.038	n/a	PROB	1210019	n/a	LTP151	ltpFR	7	n/a	n/a	n/a	n/a	n/a	n/a	n/a	10	5	2	3	n/a	n/a	n/a	n/a	n/a
2427.222	n/a	STOP	1213611	n/a	LTP151	ltpFR	7	n/a	n/a	n/a	n/a	n/a	n/a	n/a	n/a	n/a	n/a	n/a	n/a	n/a	n/a	n/a	n/a
2428.336	n/a	WORD	1214168	wordpools/wasnorm_wordpool.txt	LTP151	ltpFR	7	8	1	BEGGAR	117	n/a	n/a	1	n/a	0	0	0	0.57763671875	0.412841796875	1	upper	amplitud.ttf
2431.342	n/a	START	1215671	n/a	LTP151	ltpFR	7	n/a	n/a	n/a	n/a	n/a	n/a	n/a	n/a	n/a	n/a	n/a	n/a	n/a	n/a	n/a	n/a
2432.41	n/a	PROB	1216205	n/a	LTP151	ltpFR	7	n/a	n/a	n/a	n/a	n/a	n/a	n/a	16	9	6	1	n/a	n/a	n/a	n/a	n/a
2434.468	n/a	PROB	1217234	n/a	LTP151	ltpFR	7	n/a	n/a	n/a	n/a	n/a	n/a	n/a	9	5	2	2	n/a	n/a	n/a	n/a	n/a
2436.166	n/a	PROB	1218083	n/a	LTP151	ltpFR	7	n/a	n/a	n/a	n/a	n/a	n/a	n/a	19	6	4	9	n/a	n/a	n/a	n/a	n/a
2437.812	n/a	STOP	1218906	n/a	LTP151	ltpFR	7	n/a	n/a	n/a	n/a	n/a	n/a	n/a	n/a	n/a	n/a	n/a	n/a	n/a	n/a	n/a	n/a
2441.258	n/a	REC_START	1220629	n/a	LTP151	ltpFR	7	8	n/a	n/a	n/a	n/a	n/a	n/a	n/a	0	0	0	n/a	n/a	n/a	n/a	n/a
2443.118	n/a	REC_WORD	1221559	wordpools/wasnorm_wordpool.txt	LTP151	ltpFR	7	8	1	BOXER	160	n/a	n/a	1	n/a	0	0	0	n/a	n/a	n/a	n/a	n/a
2445.204	n/a	REC_WORD	1222602	wordpools/wasnorm_wordpool.txt	LTP151	ltpFR	7	8	1	SKIRT	1319	n/a	n/a	0	n/a	0	0	0	n/a	n/a	n/a	n/a	n/a
2446.54	n/a	REC_WORD	1223270	wordpools/wasnorm_wordpool.txt	LTP151	ltpFR	7	8	1	DENTIST	447	n/a	n/a	1	n/a	0	0	0	n/a	n/a	n/a	n/a	n/a
2448.022	n/a	REC_WORD	1224011	wordpools/wasnorm_wordpool.txt	LTP151	ltpFR	7	8	1	SANDWICH	1232	n/a	n/a	0	n/a	0	0	0	n/a	n/a	n/a	n/a	n/a
2463.642	n/a	REC_WORD	1231821	wordpools/wasnorm_wordpool.txt	LTP151	ltpFR	7	8	1	DELINQUENT	445	n/a	n/a	1	n/a	0	0	0	n/a	n/a	n/a	n/a	n/a
2500.57	n/a	REC_WORD	1250285	wordpools/wasnorm_wordpool.txt	LTP151	ltpFR	7	8	1	CHEF	290	n/a	n/a	1	n/a	0	0	0	n/a	n/a	n/a	n/a	n/a
2554.966	n/a	WORD	1277483	wordpools/wasnorm_wordpool.txt	LTP151	ltpFR	7	9	1	CITRUS	313	n/a	n/a	1	n/a	0	0	0	0.57763671875	0.412841796875	1	upper	amplitud.ttf
2559.004	n/a	WORD	1279502	wordpools/wasnorm_wordpool.txt	LTP151	ltpFR	7	9	1	LACE	792	n/a	n/a	0	n/a	0	0	0	0.57763671875	0.412841796875	1	upper	amplitud.ttf
2563.12	n/a	WORD	1281560	wordpools/wasnorm_wordpool.txt	LTP151	ltpFR	7	9	1	MICROPHONE	890	n/a	n/a	0	n/a	0	0	0	0.57763671875	0.412841796875	1	upper	amplitud.ttf
2567.186	n/a	WORD	1283593	wordpools/wasnorm_wordpool.txt	LTP151	ltpFR	7	9	1	CUSTOMER	430	n/a	n/a	0	n/a	0	0	0	0.57763671875	0.412841796875	1	upper	amplitud.ttf
2571.392	n/a	WORD	1285696	wordpools/wasnorm_wordpool.txt	LTP151	ltpFR	7	9	1	SURGEON	1413	n/a	n/a	1	n/a	0	0	0	0.57763671875	0.412841796875	1	upper	amplitud.ttf
2575.308	n/a	WORD	1287654	wordpools/wasnorm_wordpool.txt	LTP151	ltpFR	7	9	1	SCALPEL	1243	n/a	n/a	0	n/a	0	0	0	0.57763671875	0.412841796875	1	upper	amplitud.ttf
2579.432	n/a	WORD	1289716	wordpools/wasnorm_wordpool.txt	LTP151	ltpFR	7	9	1	VICTIM	1562	n/a	n/a	1	n/a	0	0	0	0.57763671875	0.412841796875	1	upper	amplitud.ttf
2583.314	n/a	WORD	1291657	wordpools/wasnorm_wordpool.txt	LTP151	ltpFR	7	9	1	APPLE	33	n/a	n/a	0	n/a	0	0	0	0.57763671875	0.412841796875	1	upper	amplitud.ttf
2587.422	n/a	WORD	1293711	wordpools/wasnorm_wordpool.txt	LTP151	ltpFR	7	9	1	POET	1095	n/a	n/a	1	n/a	0	0	0	0.57763671875	0.412841796875	1	upper	amplitud.ttf
2591.294	n/a	WORD	1295647	wordpools/wasnorm_wordpool.txt	LTP151	ltpFR	7	9	1	AUTHOR	61	n/a	n/a	1	n/a	0	0	0	0.57763671875	0.412841796875	1	upper	amplitud.ttf
2595.326	n/a	WORD	1297663	wordpools/wasnorm_wordpool.txt	LTP151	ltpFR	7	9	1	WITNESS	1618	n/a	n/a	1	n/a	0	0	0	0.57763671875	0.412841796875	1	upper	amplitud.ttf
2599.284	n/a	WORD	1299642	wordpools/wasnorm_wordpool.txt	LTP151	ltpFR	7	9	1	GODDESS	646	n/a	n/a	1	n/a	0	0	0	0.57763671875	0.412841796875	1	upper	amplitud.ttf
2603.15	n/a	WORD	1301575	wordpools/wasnorm_wordpool.txt	LTP151	ltpFR	7	9	1	ULCER	1533	n/a	n/a	0	n/a	0	0	0	0.57763671875	0.412841796875	1	upper	amplitud.ttf
2607.032	n/a	WORD	1303516	wordpools/wasnorm_wordpool.txt	LTP151	ltpFR	7	9	1	BODY	145	n/a	n/a	1	n/a	0	0	0	0.57763671875	0.412841796875	1	upper	amplitud.ttf
2611.198	n/a	WORD	1305599	wordpools/wasnorm_wordpool.txt	LTP151	ltpFR	7	9	1	ATTIC	56	n/a	n/a	0	n/a	0	0	0	0.57763671875	0.412841796875	1	upper	amplitud.ttf
2615.012	n/a	WORD	1307506	wordpools/wasnorm_wordpool.txt	LTP151	ltpFR	7	9	1	SNEAKER	1334	n/a	n/a	0	n/a	0	0	0	0.57763671875	0.412841796875	1	upper	amplitud.ttf
2618.02	n/a	START	1309010	n/a	LTP151	ltpFR	7	n/a	n/a	n/a	n/a	n/a	n/a	n/a	n/a	n/a	n/a	n/a	n/a	n/a	n/a	n/a	n/a
2618.888	n/a	PROB	1309444	n/a	LTP151	ltpFR	7	n/a	n/a	n/a	n/a	n/a	n/a	n/a	14	9	4	1	n/a	n/a	n/a	n/a	n/a
2622.102	n/a	PROB	1311051	n/a	LTP151	ltpFR	7	n/a	n/a	n/a	n/a	n/a	n/a	n/a	16	3	6	7	n/a	n/a	n/a	n/a	n/a
2624.386	n/a	PROB	1312193	n/a	LTP151	ltpFR	7	n/a	n/a	n/a	n/a	n/a	n/a	n/a	16	8	3	5	n/a	n/a	n/a	n/a	n/a
2627.084	n/a	PROB	1313542	n/a	LTP151	ltpFR	7	n/a	n/a	n/a	n/a	n/a	n/a	n/a	22	7	7	6	n/a	n/a	n/a	n/a	n/a
2630.858	n/a	PROB	1315429	n/a	LTP151	ltpFR	7	n/a	n/a	n/a	n/a	n/a	n/a	n/a	11	9	1	1	n/a	n/a	n/a	n/a	n/a
2633.678	n/a	STOP	1316839	n/a	LTP151	ltpFR	7	n/a	n/a	n/a	n/a	n/a	n/a	n/a	n/a	n/a	n/a	n/a	n/a	n/a	n/a	n/a	n/a
2635.84	n/a	REC_START	1317920	n/a	LTP151	ltpFR	7	9	n/a	n/a	n/a	n/a	n/a	n/a	n/a	0	0	0	n/a	n/a	n/a	n/a	n/a
2639.986	n/a	REC_WORD	1319993	wordpools/wasnorm_wordpool.txt	LTP151	ltpFR	7	9	1	VICTIM	1562	n/a	n/a	1	n/a	0	0	0	n/a	n/a	n/a	n/a	n/a
2641.752	n/a	REC_WORD	1320876	wordpools/wasnorm_wordpool.txt	LTP151	ltpFR	7	9	1	BODY	145	n/a	n/a	1	n/a	0	0	0	n/a	n/a	n/a	n/a	n/a
2643.408	n/a	REC_WORD	1321704	wordpools/wasnorm_wordpool.txt	LTP151	ltpFR	7	9	1	ULCER	1533	n/a	n/a	0	n/a	0	0	0	n/a	n/a	n/a	n/a	n/a
2646.252	n/a	REC_WORD	1323126	wordpools/wasnorm_wordpool.txt	LTP151	ltpFR	7	9	1	SCALPEL	1243	n/a	n/a	0	n/a	0	0	0	n/a	n/a	n/a	n/a	n/a
2647.454	n/a	REC_WORD	1323727	wordpools/wasnorm_wordpool.txt	LTP151	ltpFR	7	9	1	SURGEON	1413	n/a	n/a	1	n/a	0	0	0	n/a	n/a	n/a	n/a	n/a
2650.138	n/a	REC_WORD	1325069	wordpools/wasnorm_wordpool.txt	LTP151	ltpFR	7	9	1	AUTHOR	61	n/a	n/a	1	n/a	0	0	0	n/a	n/a	n/a	n/a	n/a
2651.454	n/a	REC_WORD	1325727	wordpools/wasnorm_wordpool.txt	LTP151	ltpFR	7	9	1	POET	1095	n/a	n/a	1	n/a	0	0	0	n/a	n/a	n/a	n/a	n/a
2661.938	n/a	REC_WORD	1330969	wordpools/wasnorm_wordpool.txt	LTP151	ltpFR	7	9	1	APPLE	33	n/a	n/a	0	n/a	0	0	0	n/a	n/a	n/a	n/a	n/a
2676.7	n/a	REC_WORD	1338350	wordpools/wasnorm_wordpool.txt	LTP151	ltpFR	7	9	1	ATTIC	56	n/a	n/a	0	n/a	0	0	0	n/a	n/a	n/a	n/a	n/a
2678.116	n/a	REC_WORD	1339058	wordpools/wasnorm_wordpool.txt	LTP151	ltpFR	7	9	1	SNEAKER	1334	n/a	n/a	0	n/a	0	0	0	n/a	n/a	n/a	n/a	n/a
2679.504	n/a	REC_WORD	1339752	wordpools/wasnorm_wordpool.txt	LTP151	ltpFR	7	9	1	BODY	145	n/a	n/a	1	n/a	0	0	0	n/a	n/a	n/a	n/a	n/a
2718.116	n/a	WORD	1359058	wordpools/wasnorm_wordpool.txt	LTP151	ltpFR	7	10	0	HAT	690	n/a	n/a	0	n/a	0	0	0	0.422607421875	0.5869140625	0	lower	zerothre.ttf
2722.08	n/a	WORD	1361040	wordpools/wasnorm_wordpool.txt	LTP151	ltpFR	7	10	0	MALL	860	n/a	n/a	1	n/a	0	0	0	0.422607421875	0.5869140625	0	lower	zerothre.ttf
2725.938	n/a	WORD	1362969	wordpools/wasnorm_wordpool.txt	LTP151	ltpFR	7	10	0	HATCHET	691	n/a	n/a	0	n/a	0	0	0	0.422607421875	0.5869140625	0	lower	zerothre.ttf
2730.002	n/a	WORD	1365001	wordpools/wasnorm_wordpool.txt	LTP151	ltpFR	7	10	0	VEIN	1554	n/a	n/a	0	n/a	0	0	0	0.422607421875	0.5869140625	0	lower	zerothre.ttf
2733.928	n/a	WORD	1366964	wordpools/wasnorm_wordpool.txt	LTP151	ltpFR	7	10	0	SKULL	1320	n/a	n/a	1	n/a	0	0	0	0.422607421875	0.5869140625	0	lower	zerothre.ttf
2738.026	n/a	WORD	1369013	wordpools/wasnorm_wordpool.txt	LTP151	ltpFR	7	10	0	MARKET	871	n/a	n/a	1	n/a	0	0	0	0.422607421875	0.5869140625	0	lower	zerothre.ttf
2742.024	n/a	WORD	1371012	wordpools/wasnorm_wordpool.txt	LTP151	ltpFR	7	10	0	TORTOISE	1486	n/a	n/a	0	n/a	0	0	0	0.422607421875	0.5869140625	0	lower	zerothre.ttf
2746.082	n/a	WORD	1373041	wordpools/wasnorm_wordpool.txt	LTP151	ltpFR	7	10	0	TIDE	1465	n/a	n/a	1	n/a	0	0	0	0.422607421875	0.5869140625	0	lower	zerothre.ttf
2750.048	n/a	WORD	1375024	wordpools/wasnorm_wordpool.txt	LTP151	ltpFR	7	10	0	WATERFALL	1595	n/a	n/a	1	n/a	0	0	0	0.422607421875	0.5869140625	0	lower	zerothre.ttf
2754.08	n/a	WORD	1377040	wordpools/wasnorm_wordpool.txt	LTP151	ltpFR	7	10	0	SALMON	1227	n/a	n/a	1	n/a	0	0	0	0.422607421875	0.5869140625	0	lower	zerothre.ttf
2758.128	n/a	WORD	1379064	wordpools/wasnorm_wordpool.txt	LTP151	ltpFR	7	10	0	SOAP	1337	n/a	n/a	0	n/a	0	0	0	0.422607421875	0.5869140625	0	lower	zerothre.ttf
2762.16	n/a	WORD	1381080	wordpools/wasnorm_wordpool.txt	LTP151	ltpFR	7	10	0	BATHTUB	100	n/a	n/a	1	n/a	0	0	0	0.422607421875	0.5869140625	0	lower	zerothre.ttf
2766.008	n/a	WORD	1383004	wordpools/wasnorm_wordpool.txt	LTP151	ltpFR	7	10	0	LAKE	796	n/a	n/a	1	n/a	0	0	0	0.422607421875	0.5869140625	0	lower	zerothre.ttf
2769.858	n/a	WORD	1384929	wordpools/wasnorm_wordpool.txt	LTP151	ltpFR	7	10	0	APARTMENT	30	n/a	n/a	1	n/a	0	0	0	0.422607421875	0.5869140625	0	lower	zerothre.ttf
2773.798	n/a	WORD	1386899	wordpools/wasnorm_wordpool.txt	LTP151	ltpFR	7	10	0	STOMACH	1384	n/a	n/a	1	n/a	0	0	0	0.422607421875	0.5869140625	0	lower	zerothre.ttf
2777.78	n/a	WORD	1388890	wordpools/wasnorm_wordpool.txt	LTP151	ltpFR	7	10	0	SUITCASE	1403	n/a	n/a	1	n/a	0	0	0	0.422607421875	0.5869140625	0	lower	zerothre.ttf
2780.788	n/a	START	1390394	n/a	LTP151	ltpFR	7	n/a	n/a	n/a	n/a	n/a	n/a	n/a	n/a	n/a	n/a	n/a	n/a	n/a	n/a	n/a	n/a
2781.662	n/a	PROB	1390831	n/a	LTP151	ltpFR	7	n/a	n/a	n/a	n/a	n/a	n/a	n/a	18	5	7	6	n/a	n/a	n/a	n/a	n/a
2785.66	n/a	PROB	1392830	n/a	LTP151	ltpFR	7	n/a	n/a	n/a	n/a	n/a	n/a	n/a	18	5	2	9	n/a	n/a	n/a	n/a	n/a
2787.686	n/a	PROB	1393843	n/a	LTP151	ltpFR	7	n/a	n/a	n/a	n/a	n/a	n/a	n/a	17	3	8	6	n/a	n/a	n/a	n/a	n/a
2796.788	n/a	STOP	1398394	n/a	LTP151	ltpFR	7	n/a	n/a	n/a	n/a	n/a	n/a	n/a	n/a	n/a	n/a	n/a	n/a	n/a	n/a	n/a	n/a
2798.558	n/a	REC_START	1399279	n/a	LTP151	ltpFR	7	10	n/a	n/a	n/a	n/a	n/a	n/a	n/a	0	0	0	n/a	n/a	n/a	n/a	n/a
2801.43	n/a	REC_WORD	1400715	wordpools/wasnorm_wordpool.txt	LTP151	ltpFR	7	10	0	STOMACH	1384	n/a	n/a	1	n/a	0	0	0	n/a	n/a	n/a	n/a	n/a
2802.992	n/a	REC_WORD	1401496	wordpools/wasnorm_wordpool.txt	LTP151	ltpFR	7	10	0	SUITCASE	1403	n/a	n/a	1	n/a	0	0	0	n/a	n/a	n/a	n/a	n/a
2804.03	n/a	REC_WORD	1402015	wordpools/wasnorm_wordpool.txt	LTP151	ltpFR	7	10	0	APARTMENT	30	n/a	n/a	1	n/a	0	0	0	n/a	n/a	n/a	n/a	n/a
2805.142	n/a	REC_WORD	1402571	wordpools/wasnorm_wordpool.txt	LTP151	ltpFR	7	10	0	TIDE	1465	n/a	n/a	1	n/a	0	0	0	n/a	n/a	n/a	n/a	n/a
2806.596	n/a	REC_WORD	1403298	wordpools/wasnorm_wordpool.txt	LTP151	ltpFR	7	10	0	WATERFALL	1595	n/a	n/a	1	n/a	0	0	0	n/a	n/a	n/a	n/a	n/a
2808.51	n/a	REC_WORD	1404255	wordpools/wasnorm_wordpool.txt	LTP151	ltpFR	7	10	n/a	TURTLE	1522	n/a	n/a	n/a	n/a	0	0	0	n/a	n/a	n/a	n/a	n/a
2809.264	n/a	REC_WORD	1404632	wordpools/wasnorm_wordpool.txt	LTP151	ltpFR	7	10	0	TORTOISE	1486	n/a	n/a	0	n/a	0	0	0	n/a	n/a	n/a	n/a	n/a
2817.296	n/a	REC_WORD	1408648	wordpools/wasnorm_wordpool.txt	LTP151	ltpFR	7	10	0	HAT	690	n/a	n/a	0	n/a	0	0	0	n/a	n/a	n/a	n/a	n/a
2818.742	n/a	REC_WORD	1409371	wordpools/wasnorm_wordpool.txt	LTP151	ltpFR	7	10	0	MALL	860	n/a	n/a	1	n/a	0	0	0	n/a	n/a	n/a	n/a	n/a
2820.722	n/a	REC_WORD	1410361	wordpools/wasnorm_wordpool.txt	LTP151	ltpFR	7	10	0	HATCHET	691	n/a	n/a	0	n/a	0	0	0	n/a	n/a	n/a	n/a	n/a
2822.1	n/a	REC_WORD	1411050	wordpools/wasnorm_wordpool.txt	LTP151	ltpFR	7	10	0	SKULL	1320	n/a	n/a	1	n/a	0	0	0	n/a	n/a	n/a	n/a	n/a
2836.602	n/a	REC_WORD	1418301	wordpools/wasnorm_wordpool.txt	LTP151	ltpFR	7	10	0	VEIN	1554	n/a	n/a	0	n/a	0	0	0	n/a	n/a	n/a	n/a	n/a
2874.168	n/a	REST_REWET	1437084	n/a	LTP151	ltpFR	7	10	n/a	n/a	n/a	n/a	n/a	n/a	n/a	0	0	0	n/a	n/a	n/a	n/a	n/a
3212.95	n/a	START	1606475	n/a	LTP151	ltpFR	7	n/a	n/a	n/a	n/a	n/a	n/a	n/a	n/a	n/a	n/a	n/a	n/a	n/a	n/a	n/a	n/a
3214.456	n/a	PROB	1607228	n/a	LTP151	ltpFR	7	n/a	n/a	n/a	n/a	n/a	n/a	n/a	10	4	4	2	n/a	n/a	n/a	n/a	n/a
3216.814	n/a	PROB	1608407	n/a	LTP151	ltpFR	7	n/a	n/a	n/a	n/a	n/a	n/a	n/a	16	9	3	4	n/a	n/a	n/a	n/a	n/a
3220.95	n/a	STOP	1610475	n/a	LTP151	ltpFR	7	n/a	n/a	n/a	n/a	n/a	n/a	n/a	n/a	n/a	n/a	n/a	n/a	n/a	n/a	n/a	n/a
3221.914	n/a	WORD	1610957	wordpools/wasnorm_wordpool.txt	LTP151	ltpFR	7	11	1	PRISONER	1128	n/a	n/a	0	n/a	0	0	0	0.57763671875	0.412841796875	1	upper	amplitud.ttf
3224.922	n/a	START	1612461	n/a	LTP151	ltpFR	7	n/a	n/a	n/a	n/a	n/a	n/a	n/a	n/a	n/a	n/a	n/a	n/a	n/a	n/a	n/a	n/a
3226.062	n/a	PROB	1613031	n/a	LTP151	ltpFR	7	n/a	n/a	n/a	n/a	n/a	n/a	n/a	23	9	9	5	n/a	n/a	n/a	n/a	n/a
3228.778	n/a	PROB	1614389	n/a	LTP151	ltpFR	7	n/a	n/a	n/a	n/a	n/a	n/a	n/a	14	4	3	7	n/a	n/a	n/a	n/a	n/a
3232.922	n/a	STOP	1616461	n/a	LTP151	ltpFR	7	n/a	n/a	n/a	n/a	n/a	n/a	n/a	n/a	n/a	n/a	n/a	n/a	n/a	n/a	n/a	n/a
3233.784	n/a	WORD	1616892	wordpools/wasnorm_wordpool.txt	LTP151	ltpFR	7	11	1	CHIPMUNK	304	n/a	n/a	1	n/a	0	0	0	0.57763671875	0.412841796875	1	upper	amplitud.ttf
3236.792	n/a	START	1618396	n/a	LTP151	ltpFR	7	n/a	n/a	n/a	n/a	n/a	n/a	n/a	n/a	n/a	n/a	n/a	n/a	n/a	n/a	n/a	n/a
3237.992	n/a	PROB	1618996	n/a	LTP151	ltpFR	7	n/a	n/a	n/a	n/a	n/a	n/a	n/a	14	4	2	8	n/a	n/a	n/a	n/a	n/a
3240.716	n/a	PROB	1620358	n/a	LTP151	ltpFR	7	n/a	n/a	n/a	n/a	n/a	n/a	n/a	11	4	5	2	n/a	n/a	n/a	n/a	n/a
3244.792	n/a	STOP	1622396	n/a	LTP151	ltpFR	7	n/a	n/a	n/a	n/a	n/a	n/a	n/a	n/a	n/a	n/a	n/a	n/a	n/a	n/a	n/a	n/a
3245.664	n/a	WORD	1622832	wordpools/wasnorm_wordpool.txt	LTP151	ltpFR	7	11	1	VET	1560	n/a	n/a	1	n/a	0	0	0	0.57763671875	0.412841796875	1	upper	amplitud.ttf
3248.672	n/a	START	1624336	n/a	LTP151	ltpFR	7	n/a	n/a	n/a	n/a	n/a	n/a	n/a	n/a	n/a	n/a	n/a	n/a	n/a	n/a	n/a	n/a
3249.762	n/a	PROB	1624881	n/a	LTP151	ltpFR	7	n/a	n/a	n/a	n/a	n/a	n/a	n/a	13	6	5	2	n/a	n/a	n/a	n/a	n/a
3251.604	n/a	PROB	1625802	n/a	LTP151	ltpFR	7	n/a	n/a	n/a	n/a	n/a	n/a	n/a	22	6	8	8	n/a	n/a	n/a	n/a	n/a
3255.16	n/a	STOP	1627580	n/a	LTP151	ltpFR	7	n/a	n/a	n/a	n/a	n/a	n/a	n/a	n/a	n/a	n/a	n/a	n/a	n/a	n/a	n/a	n/a
3257.81	n/a	WORD	1628905	wordpools/wasnorm_wordpool.txt	LTP151	ltpFR	7	11	1	HOSTESS	723	n/a	n/a	1	n/a	0	0	0	0.57763671875	0.412841796875	1	upper	amplitud.ttf
3260.818	n/a	START	1630409	n/a	LTP151	ltpFR	7	n/a	n/a	n/a	n/a	n/a	n/a	n/a	n/a	n/a	n/a	n/a	n/a	n/a	n/a	n/a	n/a
3261.742	n/a	PROB	1630871	n/a	LTP151	ltpFR	7	n/a	n/a	n/a	n/a	n/a	n/a	n/a	9	3	1	5	n/a	n/a	n/a	n/a	n/a
3266.632	n/a	PROB	1633316	n/a	LTP151	ltpFR	7	n/a	n/a	n/a	n/a	n/a	n/a	n/a	11	3	1	7	n/a	n/a	n/a	n/a	n/a
3268.44	n/a	STOP	1634220	n/a	LTP151	ltpFR	7	n/a	n/a	n/a	n/a	n/a	n/a	n/a	n/a	n/a	n/a	n/a	n/a	n/a	n/a	n/a	n/a
3269.906	n/a	WORD	1634953	wordpools/wasnorm_wordpool.txt	LTP151	ltpFR	7	11	1	WAITRESS	1581	n/a	n/a	1	n/a	0	0	0	0.57763671875	0.412841796875	1	upper	amplitud.ttf
3272.914	n/a	START	1636457	n/a	LTP151	ltpFR	7	n/a	n/a	n/a	n/a	n/a	n/a	n/a	n/a	n/a	n/a	n/a	n/a	n/a	n/a	n/a	n/a
3273.89	n/a	PROB	1636945	n/a	LTP151	ltpFR	7	n/a	n/a	n/a	n/a	n/a	n/a	n/a	13	4	6	3	n/a	n/a	n/a	n/a	n/a
3275.672	n/a	PROB	1637836	n/a	LTP151	ltpFR	7	n/a	n/a	n/a	n/a	n/a	n/a	n/a	17	5	7	5	n/a	n/a	n/a	n/a	n/a
3277.446	n/a	PROB	1638723	n/a	LTP151	ltpFR	7	n/a	n/a	n/a	n/a	n/a	n/a	n/a	17	8	8	1	n/a	n/a	n/a	n/a	n/a
3280.916	n/a	STOP	1640458	n/a	LTP151	ltpFR	7	n/a	n/a	n/a	n/a	n/a	n/a	n/a	n/a	n/a	n/a	n/a	n/a	n/a	n/a	n/a	n/a
3281.728	n/a	WORD	1640864	wordpools/wasnorm_wordpool.txt	LTP151	ltpFR	7	11	1	FLY	586	n/a	n/a	1	n/a	0	0	0	0.57763671875	0.412841796875	1	upper	amplitud.ttf
3284.736	n/a	START	1642368	n/a	LTP151	ltpFR	7	n/a	n/a	n/a	n/a	n/a	n/a	n/a	n/a	n/a	n/a	n/a	n/a	n/a	n/a	n/a	n/a
3285.894	n/a	PROB	1642947	n/a	LTP151	ltpFR	7	n/a	n/a	n/a	n/a	n/a	n/a	n/a	18	2	8	8	n/a	n/a	n/a	n/a	n/a
3288.692	n/a	PROB	1644346	n/a	LTP151	ltpFR	7	n/a	n/a	n/a	n/a	n/a	n/a	n/a	16	1	9	6	n/a	n/a	n/a	n/a	n/a
3292.736	n/a	STOP	1646368	n/a	LTP151	ltpFR	7	n/a	n/a	n/a	n/a	n/a	n/a	n/a	n/a	n/a	n/a	n/a	n/a	n/a	n/a	n/a	n/a
3293.6	n/a	WORD	1646800	wordpools/wasnorm_wordpool.txt	LTP151	ltpFR	7	11	1	FIGHTER	564	n/a	n/a	1	n/a	0	0	0	0.57763671875	0.412841796875	1	upper	amplitud.ttf
3296.608	n/a	START	1648304	n/a	LTP151	ltpFR	7	n/a	n/a	n/a	n/a	n/a	n/a	n/a	n/a	n/a	n/a	n/a	n/a	n/a	n/a	n/a	n/a
3297.782	n/a	PROB	1648891	n/a	LTP151	ltpFR	7	n/a	n/a	n/a	n/a	n/a	n/a	n/a	15	3	3	7	n/a	n/a	n/a	n/a	n/a
3304.606	n/a	STOP	1652303	n/a	LTP151	ltpFR	7	n/a	n/a	n/a	n/a	n/a	n/a	n/a	n/a	n/a	n/a	n/a	n/a	n/a	n/a	n/a	n/a
3305.704	n/a	WORD	1652852	wordpools/wasnorm_wordpool.txt	LTP151	ltpFR	7	11	1	PEDAL	1037	n/a	n/a	0	n/a	0	0	0	0.57763671875	0.412841796875	1	upper	amplitud.ttf
3308.712	n/a	START	1654356	n/a	LTP151	ltpFR	7	n/a	n/a	n/a	n/a	n/a	n/a	n/a	n/a	n/a	n/a	n/a	n/a	n/a	n/a	n/a	n/a
3309.836	n/a	PROB	1654918	n/a	LTP151	ltpFR	7	n/a	n/a	n/a	n/a	n/a	n/a	n/a	15	4	4	7	n/a	n/a	n/a	n/a	n/a
3316.712	n/a	STOP	1658356	n/a	LTP151	ltpFR	7	n/a	n/a	n/a	n/a	n/a	n/a	n/a	n/a	n/a	n/a	n/a	n/a	n/a	n/a	n/a	n/a
3317.9	n/a	WORD	1658950	wordpools/wasnorm_wordpool.txt	LTP151	ltpFR	7	11	1	WINDSHIELD	1612	n/a	n/a	0	n/a	0	0	0	0.57763671875	0.412841796875	1	upper	amplitud.ttf
3320.908	n/a	START	1660454	n/a	LTP151	ltpFR	7	n/a	n/a	n/a	n/a	n/a	n/a	n/a	n/a	n/a	n/a	n/a	n/a	n/a	n/a	n/a	n/a
3322.008	n/a	PROB	1661004	n/a	LTP151	ltpFR	7	n/a	n/a	n/a	n/a	n/a	n/a	n/a	6	1	1	4	n/a	n/a	n/a	n/a	n/a
3324.406	n/a	PROB	1662203	n/a	LTP151	ltpFR	7	n/a	n/a	n/a	n/a	n/a	n/a	n/a	18	3	7	8	n/a	n/a	n/a	n/a	n/a
3327.804	n/a	STOP	1663902	n/a	LTP151	ltpFR	7	n/a	n/a	n/a	n/a	n/a	n/a	n/a	n/a	n/a	n/a	n/a	n/a	n/a	n/a	n/a	n/a
3329.906	n/a	WORD	1664953	wordpools/wasnorm_wordpool.txt	LTP151	ltpFR	7	11	1	KNOB	787	n/a	n/a	0	n/a	0	0	0	0.57763671875	0.412841796875	1	upper	amplitud.ttf
3332.914	n/a	START	1666457	n/a	LTP151	ltpFR	7	n/a	n/a	n/a	n/a	n/a	n/a	n/a	n/a	n/a	n/a	n/a	n/a	n/a	n/a	n/a	n/a
3333.938	n/a	PROB	1666969	n/a	LTP151	ltpFR	7	n/a	n/a	n/a	n/a	n/a	n/a	n/a	15	3	6	6	n/a	n/a	n/a	n/a	n/a
3335.746	n/a	PROB	1667873	n/a	LTP151	ltpFR	7	n/a	n/a	n/a	n/a	n/a	n/a	n/a	9	2	4	3	n/a	n/a	n/a	n/a	n/a
3337.62	n/a	PROB	1668810	n/a	LTP151	ltpFR	7	n/a	n/a	n/a	n/a	n/a	n/a	n/a	14	6	4	4	n/a	n/a	n/a	n/a	n/a
3339.66	n/a	STOP	1669830	n/a	LTP151	ltpFR	7	n/a	n/a	n/a	n/a	n/a	n/a	n/a	n/a	n/a	n/a	n/a	n/a	n/a	n/a	n/a	n/a
3341.776	n/a	WORD	1670888	wordpools/wasnorm_wordpool.txt	LTP151	ltpFR	7	11	1	COFFEE	341	n/a	n/a	0	n/a	0	0	0	0.57763671875	0.412841796875	1	upper	amplitud.ttf
3344.784	n/a	START	1672392	n/a	LTP151	ltpFR	7	n/a	n/a	n/a	n/a	n/a	n/a	n/a	n/a	n/a	n/a	n/a	n/a	n/a	n/a	n/a	n/a
3345.774	n/a	PROB	1672887	n/a	LTP151	ltpFR	7	n/a	n/a	n/a	n/a	n/a	n/a	n/a	16	2	6	8	n/a	n/a	n/a	n/a	n/a
3350.64	n/a	PROB	1675320	n/a	LTP151	ltpFR	7	n/a	n/a	n/a	n/a	n/a	n/a	n/a	17	6	4	7	n/a	n/a	n/a	n/a	n/a
3352.366	n/a	STOP	1676183	n/a	LTP151	ltpFR	7	n/a	n/a	n/a	n/a	n/a	n/a	n/a	n/a	n/a	n/a	n/a	n/a	n/a	n/a	n/a	n/a
3353.772	n/a	WORD	1676886	wordpools/wasnorm_wordpool.txt	LTP151	ltpFR	7	11	1	CART	250	n/a	n/a	0	n/a	0	0	0	0.57763671875	0.412841796875	1	upper	amplitud.ttf
3356.78	n/a	START	1678390	n/a	LTP151	ltpFR	7	n/a	n/a	n/a	n/a	n/a	n/a	n/a	n/a	n/a	n/a	n/a	n/a	n/a	n/a	n/a	n/a
3357.804	n/a	PROB	1678902	n/a	LTP151	ltpFR	7	n/a	n/a	n/a	n/a	n/a	n/a	n/a	11	3	6	2	n/a	n/a	n/a	n/a	n/a
3359.77	n/a	PROB	1679885	n/a	LTP151	ltpFR	7	n/a	n/a	n/a	n/a	n/a	n/a	n/a	14	4	1	9	n/a	n/a	n/a	n/a	n/a
3362.194	n/a	PROB	1681097	n/a	LTP151	ltpFR	7	n/a	n/a	n/a	n/a	n/a	n/a	n/a	19	8	9	2	n/a	n/a	n/a	n/a	n/a
3364.254	n/a	STOP	1682127	n/a	LTP151	ltpFR	7	n/a	n/a	n/a	n/a	n/a	n/a	n/a	n/a	n/a	n/a	n/a	n/a	n/a	n/a	n/a	n/a
3365.718	n/a	WORD	1682859	wordpools/wasnorm_wordpool.txt	LTP151	ltpFR	7	11	1	OUTLAW	989	n/a	n/a	1	n/a	0	0	0	0.57763671875	0.412841796875	1	upper	amplitud.ttf
3368.728	n/a	START	1684364	n/a	LTP151	ltpFR	7	n/a	n/a	n/a	n/a	n/a	n/a	n/a	n/a	n/a	n/a	n/a	n/a	n/a	n/a	n/a	n/a
3369.776	n/a	PROB	1684888	n/a	LTP151	ltpFR	7	n/a	n/a	n/a	n/a	n/a	n/a	n/a	13	7	3	3	n/a	n/a	n/a	n/a	n/a
3371.334	n/a	PROB	1685667	n/a	LTP151	ltpFR	7	n/a	n/a	n/a	n/a	n/a	n/a	n/a	12	3	6	3	n/a	n/a	n/a	n/a	n/a
3376.726	n/a	STOP	1688363	n/a	LTP151	ltpFR	7	n/a	n/a	n/a	n/a	n/a	n/a	n/a	n/a	n/a	n/a	n/a	n/a	n/a	n/a	n/a	n/a
3377.79	n/a	WORD	1688895	wordpools/wasnorm_wordpool.txt	LTP151	ltpFR	7	11	1	ENEMY	534	n/a	n/a	1	n/a	0	0	0	0.57763671875	0.412841796875	1	upper	amplitud.ttf
3380.798	n/a	START	1690399	n/a	LTP151	ltpFR	7	n/a	n/a	n/a	n/a	n/a	n/a	n/a	n/a	n/a	n/a	n/a	n/a	n/a	n/a	n/a	n/a
3381.924	n/a	PROB	1690962	n/a	LTP151	ltpFR	7	n/a	n/a	n/a	n/a	n/a	n/a	n/a	14	6	3	5	n/a	n/a	n/a	n/a	n/a
3383.888	n/a	PROB	1691944	n/a	LTP151	ltpFR	7	n/a	n/a	n/a	n/a	n/a	n/a	n/a	11	6	4	1	n/a	n/a	n/a	n/a	n/a
3388.8	n/a	STOP	1694400	n/a	LTP151	ltpFR	7	n/a	n/a	n/a	n/a	n/a	n/a	n/a	n/a	n/a	n/a	n/a	n/a	n/a	n/a	n/a	n/a
3389.796	n/a	WORD	1694898	wordpools/wasnorm_wordpool.txt	LTP151	ltpFR	7	11	1	COWBOY	395	n/a	n/a	1	n/a	0	0	0	0.57763671875	0.412841796875	1	upper	amplitud.ttf
3392.804	n/a	START	1696402	n/a	LTP151	ltpFR	7	n/a	n/a	n/a	n/a	n/a	n/a	n/a	n/a	n/a	n/a	n/a	n/a	n/a	n/a	n/a	n/a
3393.678	n/a	PROB	1696839	n/a	LTP151	ltpFR	7	n/a	n/a	n/a	n/a	n/a	n/a	n/a	16	6	5	5	n/a	n/a	n/a	n/a	n/a
3395.51	n/a	PROB	1697755	n/a	LTP151	ltpFR	7	n/a	n/a	n/a	n/a	n/a	n/a	n/a	13	7	3	3	n/a	n/a	n/a	n/a	n/a
3397.968	n/a	PROB	1698984	n/a	LTP151	ltpFR	7	n/a	n/a	n/a	n/a	n/a	n/a	n/a	10	5	3	2	n/a	n/a	n/a	n/a	n/a
3399.824	n/a	STOP	1699912	n/a	LTP151	ltpFR	7	n/a	n/a	n/a	n/a	n/a	n/a	n/a	n/a	n/a	n/a	n/a	n/a	n/a	n/a	n/a	n/a
3401.892	n/a	WORD	1700946	wordpools/wasnorm_wordpool.txt	LTP151	ltpFR	7	11	1	MOTORCYCLE	923	n/a	n/a	0	n/a	0	0	0	0.57763671875	0.412841796875	1	upper	amplitud.ttf
3404.9	n/a	START	1702450	n/a	LTP151	ltpFR	7	n/a	n/a	n/a	n/a	n/a	n/a	n/a	n/a	n/a	n/a	n/a	n/a	n/a	n/a	n/a	n/a
3405.882	n/a	PROB	1702941	n/a	LTP151	ltpFR	7	n/a	n/a	n/a	n/a	n/a	n/a	n/a	15	2	5	8	n/a	n/a	n/a	n/a	n/a
3409.656	n/a	PROB	1704828	n/a	LTP151	ltpFR	7	n/a	n/a	n/a	n/a	n/a	n/a	n/a	19	3	7	9	n/a	n/a	n/a	n/a	n/a
3412.01	n/a	STOP	1706005	n/a	LTP151	ltpFR	7	n/a	n/a	n/a	n/a	n/a	n/a	n/a	n/a	n/a	n/a	n/a	n/a	n/a	n/a	n/a	n/a
3414.672	n/a	REC_START	1707336	n/a	LTP151	ltpFR	7	11	n/a	n/a	n/a	n/a	n/a	n/a	n/a	0	0	0	n/a	n/a	n/a	n/a	n/a
3417.454	n/a	REC_WORD	1708727	wordpools/wasnorm_wordpool.txt	LTP151	ltpFR	7	11	1	PRISONER	1128	n/a	n/a	0	n/a	0	0	0	n/a	n/a	n/a	n/a	n/a
3419.49	n/a	REC_WORD	1709745	wordpools/wasnorm_wordpool.txt	LTP151	ltpFR	7	11	1	OUTLAW	989	n/a	n/a	1	n/a	0	0	0	n/a	n/a	n/a	n/a	n/a
3422.858	n/a	REC_WORD	1711429	wordpools/wasnorm_wordpool.txt	LTP151	ltpFR	7	11	1	COWBOY	395	n/a	n/a	1	n/a	0	0	0	n/a	n/a	n/a	n/a	n/a
3439.94	n/a	REC_WORD	1719970	wordpools/wasnorm_wordpool.txt	LTP151	ltpFR	7	11	1	CART	250	n/a	n/a	0	n/a	0	0	0	n/a	n/a	n/a	n/a	n/a
3445.298	n/a	REC_WORD	1722649	wordpools/wasnorm_wordpool.txt	LTP151	ltpFR	7	11	1	KNOB	787	n/a	n/a	0	n/a	0	0	0	n/a	n/a	n/a	n/a	n/a
3496.696	n/a	WORD	1748348	wordpools/wasnorm_wordpool.txt	LTP151	ltpFR	7	12	0	TOOTHBRUSH	1482	n/a	n/a	0	n/a	0	0	0	0.422607421875	0.5869140625	0	lower	zerothre.ttf
3500.62	n/a	WORD	1750310	wordpools/wasnorm_wordpool.txt	LTP151	ltpFR	7	12	0	CREVICE	405	n/a	n/a	0	n/a	0	0	0	0.422607421875	0.5869140625	0	lower	zerothre.ttf
3504.51	n/a	WORD	1752255	wordpools/wasnorm_wordpool.txt	LTP151	ltpFR	7	12	0	LIBRARY	816	n/a	n/a	1	n/a	0	0	0	0.422607421875	0.5869140625	0	lower	zerothre.ttf
3508.342	n/a	WORD	1754171	wordpools/wasnorm_wordpool.txt	LTP151	ltpFR	7	12	0	CRUTCH	417	n/a	n/a	1	n/a	0	0	0	0.422607421875	0.5869140625	0	lower	zerothre.ttf
3512.316	n/a	WORD	1756158	wordpools/wasnorm_wordpool.txt	LTP151	ltpFR	7	12	0	NIGHTGOWN	953	n/a	n/a	1	n/a	0	0	0	0.422607421875	0.5869140625	0	lower	zerothre.ttf
3516.29	n/a	WORD	1758145	wordpools/wasnorm_wordpool.txt	LTP151	ltpFR	7	12	0	DRESS	495	n/a	n/a	1	n/a	0	0	0	0.422607421875	0.5869140625	0	lower	zerothre.ttf
3520.232	n/a	WORD	1760116	wordpools/wasnorm_wordpool.txt	LTP151	ltpFR	7	12	0	PAGE	1001	n/a	n/a	0	n/a	0	0	0	0.422607421875	0.5869140625	0	lower	zerothre.ttf
3524.164	n/a	WORD	1762082	wordpools/wasnorm_wordpool.txt	LTP151	ltpFR	7	12	0	SHOP	1290	n/a	n/a	1	n/a	0	0	0	0.422607421875	0.5869140625	0	lower	zerothre.ttf
3528.254	n/a	WORD	1764127	wordpools/wasnorm_wordpool.txt	LTP151	ltpFR	7	12	0	COCKTAIL	338	n/a	n/a	0	n/a	0	0	0	0.422607421875	0.5869140625	0	lower	zerothre.ttf
3532.418	n/a	WORD	1766209	wordpools/wasnorm_wordpool.txt	LTP151	ltpFR	7	12	0	BRICK	172	n/a	n/a	0	n/a	0	0	0	0.422607421875	0.5869140625	0	lower	zerothre.ttf
3536.434	n/a	WORD	1768217	wordpools/wasnorm_wordpool.txt	LTP151	ltpFR	7	12	0	HUT	729	n/a	n/a	1	n/a	0	0	0	0.422607421875	0.5869140625	0	lower	zerothre.ttf
3540.316	n/a	WORD	1770158	wordpools/wasnorm_wordpool.txt	LTP151	ltpFR	7	12	0	STRAW	1390	n/a	n/a	0	n/a	0	0	0	0.422607421875	0.5869140625	0	lower	zerothre.ttf
3544.416	n/a	WORD	1772208	wordpools/wasnorm_wordpool.txt	LTP151	ltpFR	7	12	0	LIP	828	n/a	n/a	0	n/a	0	0	0	0.422607421875	0.5869140625	0	lower	zerothre.ttf
3548.614	n/a	WORD	1774307	wordpools/wasnorm_wordpool.txt	LTP151	ltpFR	7	12	0	APPENDAGE	32	n/a	n/a	1	n/a	0	0	0	0.422607421875	0.5869140625	0	lower	zerothre.ttf
3552.82	n/a	WORD	1776410	wordpools/wasnorm_wordpool.txt	LTP151	ltpFR	7	12	0	CINNAMON	310	n/a	n/a	0	n/a	0	0	0	0.422607421875	0.5869140625	0	lower	zerothre.ttf
3556.904	n/a	WORD	1778452	wordpools/wasnorm_wordpool.txt	LTP151	ltpFR	7	12	0	SALT	1229	n/a	n/a	0	n/a	0	0	0	0.422607421875	0.5869140625	0	lower	zerothre.ttf
3562.944	n/a	REC_START	1781472	n/a	LTP151	ltpFR	7	12	n/a	n/a	n/a	n/a	n/a	n/a	n/a	0	0	0	n/a	n/a	n/a	n/a	n/a
3565.364	n/a	REC_WORD	1782682	wordpools/wasnorm_wordpool.txt	LTP151	ltpFR	7	12	0	DRESS	495	n/a	n/a	1	n/a	0	0	0	n/a	n/a	n/a	n/a	n/a
3566.152	n/a	REC_WORD	1783076	wordpools/wasnorm_wordpool.txt	LTP151	ltpFR	7	12	0	NIGHTGOWN	953	n/a	n/a	1	n/a	0	0	0	n/a	n/a	n/a	n/a	n/a
3568.202	n/a	REC_WORD	1784101	wordpools/wasnorm_wordpool.txt	LTP151	ltpFR	7	12	0	APPENDAGE	32	n/a	n/a	1	n/a	0	0	0	n/a	n/a	n/a	n/a	n/a
3569.774	n/a	REC_WORD	1784887	wordpools/wasnorm_wordpool.txt	LTP151	ltpFR	7	12	0	CINNAMON	310	n/a	n/a	0	n/a	0	0	0	n/a	n/a	n/a	n/a	n/a
3570.822	n/a	REC_WORD	1785411	wordpools/wasnorm_wordpool.txt	LTP151	ltpFR	7	12	0	SALT	1229	n/a	n/a	0	n/a	0	0	0	n/a	n/a	n/a	n/a	n/a
3571.824	n/a	REC_WORD	1785912	wordpools/wasnorm_wordpool.txt	LTP151	ltpFR	7	12	0	LIP	828	n/a	n/a	0	n/a	0	0	0	n/a	n/a	n/a	n/a	n/a
3581.838	n/a	REC_WORD	1790919	wordpools/wasnorm_wordpool.txt	LTP151	ltpFR	7	12	0	LIBRARY	816	n/a	n/a	1	n/a	0	0	0	n/a	n/a	n/a	n/a	n/a
3583.094	n/a	REC_WORD	1791547	wordpools/wasnorm_wordpool.txt	LTP151	ltpFR	7	12	0	PAGE	1001	n/a	n/a	0	n/a	0	0	0	n/a	n/a	n/a	n/a	n/a
3584.84	n/a	REC_WORD	1792420	wordpools/wasnorm_wordpool.txt	LTP151	ltpFR	7	12	0	TOOTHBRUSH	1482	n/a	n/a	0	n/a	0	0	0	n/a	n/a	n/a	n/a	n/a
3586.582	n/a	REC_WORD	1793291	wordpools/wasnorm_wordpool.txt	LTP151	ltpFR	7	12	0	CREVICE	405	n/a	n/a	0	n/a	0	0	0	n/a	n/a	n/a	n/a	n/a
3609.724	n/a	REC_WORD	1804862	wordpools/wasnorm_wordpool.txt	LTP151	ltpFR	7	12	0	CRUTCH	417	n/a	n/a	1	n/a	0	0	0	n/a	n/a	n/a	n/a	n/a
3622.456	n/a	REC_WORD	1811228	wordpools/wasnorm_wordpool.txt	LTP151	ltpFR	7	12	0	HUT	729	n/a	n/a	1	n/a	0	0	0	n/a	n/a	n/a	n/a	n/a
3624.448	n/a	REC_WORD	1812224	wordpools/wasnorm_wordpool.txt	LTP151	ltpFR	7	12	0	BRICK	172	n/a	n/a	0	n/a	0	0	0	n/a	n/a	n/a	n/a	n/a
3626.946	n/a	REC_WORD	1813473	wordpools/wasnorm_wordpool.txt	LTP151	ltpFR	7	12	0	STRAW	1390	n/a	n/a	0	n/a	0	0	0	n/a	n/a	n/a	n/a	n/a
3646.134	n/a	WORD	1823067	wordpools/wasnorm_wordpool.txt	LTP151	ltpFR	7	13	0	VIOLA	1570	n/a	n/a	0	n/a	0	0	0	0.422607421875	0.5869140625	0	lower	zerothre.ttf
3650.002	n/a	WORD	1825001	wordpools/wasnorm_wordpool.txt	LTP151	ltpFR	7	13	0	PITCHFORK	1078	n/a	n/a	1	n/a	0	0	0	0.422607421875	0.5869140625	0	lower	zerothre.ttf
3653.824	n/a	WORD	1826912	wordpools/wasnorm_wordpool.txt	LTP151	ltpFR	7	13	0	CLAM	315	n/a	n/a	0	n/a	0	0	0	0.422607421875	0.5869140625	0	lower	zerothre.ttf
3657.74	n/a	WORD	1828870	wordpools/wasnorm_wordpool.txt	LTP151	ltpFR	7	13	0	MOUTH	926	n/a	n/a	0	n/a	0	0	0	0.422607421875	0.5869140625	0	lower	zerothre.ttf
3661.696	n/a	WORD	1830848	wordpools/wasnorm_wordpool.txt	LTP151	ltpFR	7	13	0	SHELF	1280	n/a	n/a	1	n/a	0	0	0	0.422607421875	0.5869140625	0	lower	zerothre.ttf
3665.594	n/a	WORD	1832797	wordpools/wasnorm_wordpool.txt	LTP151	ltpFR	7	13	0	CAMERA	224	n/a	n/a	0	n/a	0	0	0	0.422607421875	0.5869140625	0	lower	zerothre.ttf
3669.778	n/a	WORD	1834889	wordpools/wasnorm_wordpool.txt	LTP151	ltpFR	7	13	0	WALRUS	1585	n/a	n/a	1	n/a	0	0	0	0.422607421875	0.5869140625	0	lower	zerothre.ttf
3673.91	n/a	WORD	1836955	wordpools/wasnorm_wordpool.txt	LTP151	ltpFR	7	13	0	FOREST	593	n/a	n/a	1	n/a	0	0	0	0.422607421875	0.5869140625	0	lower	zerothre.ttf
3677.758	n/a	WORD	1838879	wordpools/wasnorm_wordpool.txt	LTP151	ltpFR	7	13	0	LEAF	808	n/a	n/a	0	n/a	0	0	0	0.422607421875	0.5869140625	0	lower	zerothre.ttf
3681.732	n/a	WORD	1840866	wordpools/wasnorm_wordpool.txt	LTP151	ltpFR	7	13	0	OBOE	969	n/a	n/a	1	n/a	0	0	0	0.422607421875	0.5869140625	0	lower	zerothre.ttf
3685.798	n/a	WORD	1842899	wordpools/wasnorm_wordpool.txt	LTP151	ltpFR	7	13	0	CLOUD	328	n/a	n/a	0	n/a	0	0	0	0.422607421875	0.5869140625	0	lower	zerothre.ttf
3689.63	n/a	WORD	1844815	wordpools/wasnorm_wordpool.txt	LTP151	ltpFR	7	13	0	STAKE	1368	n/a	n/a	0	n/a	0	0	0	0.422607421875	0.5869140625	0	lower	zerothre.ttf
3693.546	n/a	WORD	1846773	wordpools/wasnorm_wordpool.txt	LTP151	ltpFR	7	13	0	FORT	595	n/a	n/a	1	n/a	0	0	0	0.422607421875	0.5869140625	0	lower	zerothre.ttf
3697.702	n/a	WORD	1848851	wordpools/wasnorm_wordpool.txt	LTP151	ltpFR	7	13	0	SUPERVISOR	1410	n/a	n/a	1	n/a	0	0	0	0.422607421875	0.5869140625	0	lower	zerothre.ttf
3701.818	n/a	WORD	1850909	wordpools/wasnorm_wordpool.txt	LTP151	ltpFR	7	13	0	TYPIST	1532	n/a	n/a	1	n/a	0	0	0	0.422607421875	0.5869140625	0	lower	zerothre.ttf
3705.976	n/a	WORD	1852988	wordpools/wasnorm_wordpool.txt	LTP151	ltpFR	7	13	0	ZOO	1637	n/a	n/a	1	n/a	0	0	0	0.422607421875	0.5869140625	0	lower	zerothre.ttf
3708.984	n/a	START	1854492	n/a	LTP151	ltpFR	7	n/a	n/a	n/a	n/a	n/a	n/a	n/a	n/a	n/a	n/a	n/a	n/a	n/a	n/a	n/a	n/a
3710.032	n/a	PROB	1855016	n/a	LTP151	ltpFR	7	n/a	n/a	n/a	n/a	n/a	n/a	n/a	18	8	3	7	n/a	n/a	n/a	n/a	n/a
3713.106	n/a	PROB	1856553	n/a	LTP151	ltpFR	7	n/a	n/a	n/a	n/a	n/a	n/a	n/a	16	5	8	3	n/a	n/a	n/a	n/a	n/a
3715.608	n/a	STOP	1857804	n/a	LTP151	ltpFR	7	n/a	n/a	n/a	n/a	n/a	n/a	n/a	n/a	n/a	n/a	n/a	n/a	n/a	n/a	n/a	n/a
3718.738	n/a	REC_START	1859369	n/a	LTP151	ltpFR	7	13	n/a	n/a	n/a	n/a	n/a	n/a	n/a	0	0	0	n/a	n/a	n/a	n/a	n/a
3723.168	n/a	REC_WORD	1861584	wordpools/wasnorm_wordpool.txt	LTP151	ltpFR	7	13	0	ZOO	1637	n/a	n/a	1	n/a	0	0	0	n/a	n/a	n/a	n/a	n/a
3727.932	n/a	REC_WORD	1863966	wordpools/wasnorm_wordpool.txt	LTP151	ltpFR	7	13	0	TYPIST	1532	n/a	n/a	1	n/a	0	0	0	n/a	n/a	n/a	n/a	n/a
3730.536	n/a	REC_WORD	1865268	wordpools/wasnorm_wordpool.txt	LTP151	ltpFR	7	13	0	FORT	595	n/a	n/a	1	n/a	0	0	0	n/a	n/a	n/a	n/a	n/a
3732.352	n/a	REC_WORD	1866176	wordpools/wasnorm_wordpool.txt	LTP151	ltpFR	7	13	0	SUPERVISOR	1410	n/a	n/a	1	n/a	0	0	0	n/a	n/a	n/a	n/a	n/a
3738.22	n/a	REC_WORD	1869110	wordpools/wasnorm_wordpool.txt	LTP151	ltpFR	7	13	0	WALRUS	1585	n/a	n/a	1	n/a	0	0	0	n/a	n/a	n/a	n/a	n/a
3743.642	n/a	REC_WORD	1871821	wordpools/wasnorm_wordpool.txt	LTP151	ltpFR	7	13	0	PITCHFORK	1078	n/a	n/a	1	n/a	0	0	0	n/a	n/a	n/a	n/a	n/a
3744.73	n/a	REC_WORD	1872365	wordpools/wasnorm_wordpool.txt	LTP151	ltpFR	7	13	0	OBOE	969	n/a	n/a	1	n/a	0	0	0	n/a	n/a	n/a	n/a	n/a
3746.286	n/a	REC_WORD	1873143	wordpools/wasnorm_wordpool.txt	LTP151	ltpFR	7	13	0	VIOLA	1570	n/a	n/a	0	n/a	0	0	0	n/a	n/a	n/a	n/a	n/a
3798.49	n/a	START	1899245	n/a	LTP151	ltpFR	7	n/a	n/a	n/a	n/a	n/a	n/a	n/a	n/a	n/a	n/a	n/a	n/a	n/a	n/a	n/a	n/a
3799.99	n/a	PROB	1899995	n/a	LTP151	ltpFR	7	n/a	n/a	n/a	n/a	n/a	n/a	n/a	14	5	4	5	n/a	n/a	n/a	n/a	n/a
3802.362	n/a	PROB	1901181	n/a	LTP151	ltpFR	7	n/a	n/a	n/a	n/a	n/a	n/a	n/a	12	4	4	4	n/a	n/a	n/a	n/a	n/a
3804.312	n/a	PROB	1902156	n/a	LTP151	ltpFR	7	n/a	n/a	n/a	n/a	n/a	n/a	n/a	8	4	3	1	n/a	n/a	n/a	n/a	n/a
3806.394	n/a	PROB	1903197	n/a	LTP151	ltpFR	7	n/a	n/a	n/a	n/a	n/a	n/a	n/a	5	1	2	2	n/a	n/a	n/a	n/a	n/a
3807.978	n/a	PROB	1903989	n/a	LTP151	ltpFR	7	n/a	n/a	n/a	n/a	n/a	n/a	n/a	13	4	2	7	n/a	n/a	n/a	n/a	n/a
3810.176	n/a	PROB	1905088	n/a	LTP151	ltpFR	7	n/a	n/a	n/a	n/a	n/a	n/a	n/a	23	9	7	8	n/a	n/a	n/a	n/a	n/a
3813.734	n/a	STOP	1906867	n/a	LTP151	ltpFR	7	n/a	n/a	n/a	n/a	n/a	n/a	n/a	n/a	n/a	n/a	n/a	n/a	n/a	n/a	n/a	n/a
3815.692	n/a	WORD	1907846	wordpools/wasnorm_wordpool.txt	LTP151	ltpFR	7	14	1	WORM	1623	n/a	n/a	1	n/a	0	0	0	0.57763671875	0.412841796875	1	upper	amplitud.ttf
3818.7	n/a	START	1909350	n/a	LTP151	ltpFR	7	n/a	n/a	n/a	n/a	n/a	n/a	n/a	n/a	n/a	n/a	n/a	n/a	n/a	n/a	n/a	n/a
3819.716	n/a	PROB	1909858	n/a	LTP151	ltpFR	7	n/a	n/a	n/a	n/a	n/a	n/a	n/a	16	7	4	5	n/a	n/a	n/a	n/a	n/a
3822.008	n/a	PROB	1911004	n/a	LTP151	ltpFR	7	n/a	n/a	n/a	n/a	n/a	n/a	n/a	11	4	3	4	n/a	n/a	n/a	n/a	n/a
3824.148	n/a	PROB	1912074	n/a	LTP151	ltpFR	7	n/a	n/a	n/a	n/a	n/a	n/a	n/a	11	5	3	3	n/a	n/a	n/a	n/a	n/a
3827.138	n/a	PROB	1913569	n/a	LTP151	ltpFR	7	n/a	n/a	n/a	n/a	n/a	n/a	n/a	11	2	4	5	n/a	n/a	n/a	n/a	n/a
3829.596	n/a	PROB	1914798	n/a	LTP151	ltpFR	7	n/a	n/a	n/a	n/a	n/a	n/a	n/a	8	2	3	3	n/a	n/a	n/a	n/a	n/a
3832.52	n/a	PROB	1916260	n/a	LTP151	ltpFR	7	n/a	n/a	n/a	n/a	n/a	n/a	n/a	12	6	5	1	n/a	n/a	n/a	n/a	n/a
3834.488	n/a	STOP	1917244	n/a	LTP151	ltpFR	7	n/a	n/a	n/a	n/a	n/a	n/a	n/a	n/a	n/a	n/a	n/a	n/a	n/a	n/a	n/a	n/a
3835.528	n/a	WORD	1917764	wordpools/wasnorm_wordpool.txt	LTP151	ltpFR	7	14	1	FROG	608	n/a	n/a	1	n/a	0	0	0	0.57763671875	0.412841796875	1	upper	amplitud.ttf
3838.536	n/a	START	1919268	n/a	LTP151	ltpFR	7	n/a	n/a	n/a	n/a	n/a	n/a	n/a	n/a	n/a	n/a	n/a	n/a	n/a	n/a	n/a	n/a
3839.692	n/a	PROB	1919846	n/a	LTP151	ltpFR	7	n/a	n/a	n/a	n/a	n/a	n/a	n/a	18	3	8	7	n/a	n/a	n/a	n/a	n/a
3841.952	n/a	PROB	1920976	n/a	LTP151	ltpFR	7	n/a	n/a	n/a	n/a	n/a	n/a	n/a	12	2	1	9	n/a	n/a	n/a	n/a	n/a
3844.892	n/a	PROB	1922446	n/a	LTP151	ltpFR	7	n/a	n/a	n/a	n/a	n/a	n/a	n/a	22	7	8	7	n/a	n/a	n/a	n/a	n/a
3847.298	n/a	PROB	1923649	n/a	LTP151	ltpFR	7	n/a	n/a	n/a	n/a	n/a	n/a	n/a	13	3	7	3	n/a	n/a	n/a	n/a	n/a
3849.382	n/a	PROB	1924691	n/a	LTP151	ltpFR	7	n/a	n/a	n/a	n/a	n/a	n/a	n/a	17	7	5	5	n/a	n/a	n/a	n/a	n/a
