onset	duration	trial_type	sample	stim_file	subject	experiment	session	trial	item_name	item_num	list	answer	test_x	test_y	test_z
269.676	n/a	SESS_START	134838	n/a	LTP258	ltpFR2	7	n/a	n/a	n/a	n/a	n/a	0	0	0
302.194	n/a	START	151097	n/a	LTP258	ltpFR2	7	n/a	n/a	n/a	-1	n/a	n/a	n/a	n/a
302.226	n/a	PROB	151113	n/a	LTP258	ltpFR2	7	n/a	n/a	n/a	-1	20	6	8	8
303.642	n/a	PROB	151821	n/a	LTP258	ltpFR2	7	n/a	n/a	n/a	-1	17	1	9	7
304.99	n/a	PROB	152495	n/a	LTP258	ltpFR2	7	n/a	n/a	n/a	-1	14	9	1	4
305.938	n/a	PROB	152969	n/a	LTP258	ltpFR2	7	n/a	n/a	n/a	-1	13	4	1	8
307.386	n/a	PROB	153693	n/a	LTP258	ltpFR2	7	n/a	n/a	n/a	-1	15	8	3	4
309.3	n/a	PROB	154650	n/a	LTP258	ltpFR2	7	n/a	n/a	n/a	-1	13	6	1	6
310.566	n/a	PROB	155283	n/a	LTP258	ltpFR2	7	n/a	n/a	n/a	-1	12	5	1	6
311.846	n/a	PROB	155923	n/a	LTP258	ltpFR2	7	n/a	n/a	n/a	-1	13	4	6	3
312.894	n/a	STOP	156447	n/a	LTP258	ltpFR2	7	n/a	n/a	n/a	-1	n/a	n/a	n/a	n/a
351.222	n/a	DISTRACTOR	175611	n/a	LTP258	ltpFR2	7	1	n/a	n/a	n/a	n/a	0	0	0
351.222	n/a	START	175611	n/a	LTP258	ltpFR2	7	n/a	n/a	n/a	1	n/a	n/a	n/a	n/a
351.256	n/a	PROB	175628	n/a	LTP258	ltpFR2	7	n/a	n/a	n/a	1	15	6	8	1
352.602	n/a	PROB	176301	n/a	LTP258	ltpFR2	7	n/a	n/a	n/a	1	16	8	3	5
354.166	n/a	PROB	177083	n/a	LTP258	ltpFR2	7	n/a	n/a	n/a	1	15	3	4	8
355.532	n/a	PROB	177766	n/a	LTP258	ltpFR2	7	n/a	n/a	n/a	1	15	5	8	2
357.162	n/a	PROB	178581	n/a	LTP258	ltpFR2	7	n/a	n/a	n/a	1	20	8	6	8
358.494	n/a	PROB	179247	n/a	LTP258	ltpFR2	7	n/a	n/a	n/a	1	11	6	2	3
360.376	n/a	PROB	180188	n/a	LTP258	ltpFR2	7	n/a	n/a	n/a	1	14	3	2	9
361.524	n/a	PROB	180762	n/a	LTP258	ltpFR2	7	n/a	n/a	n/a	1	20	4	9	7
362.888	n/a	PROB	181444	n/a	LTP258	ltpFR2	7	n/a	n/a	n/a	1	8	2	5	1
363.968	n/a	PROB	181984	n/a	LTP258	ltpFR2	7	n/a	n/a	n/a	1	9	7	1	1
365.352	n/a	PROB	182676	n/a	LTP258	ltpFR2	7	n/a	n/a	n/a	1	11	2	5	4
367.014	n/a	PROB	183507	n/a	LTP258	ltpFR2	7	n/a	n/a	n/a	1	12	8	3	1
368.612	n/a	PROB	184306	n/a	LTP258	ltpFR2	7	n/a	n/a	n/a	1	10	1	7	2
369.91	n/a	PROB	184955	n/a	LTP258	ltpFR2	7	n/a	n/a	n/a	1	24	8	8	8
371.026	n/a	PROB	185513	n/a	LTP258	ltpFR2	7	n/a	n/a	n/a	1	15	4	7	4
372.19	n/a	PROB	186095	n/a	LTP258	ltpFR2	7	n/a	n/a	n/a	1	16	3	8	5
373.588	n/a	PROB	186794	n/a	LTP258	ltpFR2	7	n/a	n/a	n/a	1	8	2	4	2
374.63	n/a	STOP	187315	n/a	LTP258	ltpFR2	7	n/a	n/a	n/a	1	n/a	n/a	n/a	n/a
376.1	n/a	WORD	188050	wordpools/wasnorm_wordpool_576.txt	LTP258	ltpFR2	7	1	HERO	706	n/a	n/a	0	0	0
378.696	n/a	WORD	189348	wordpools/wasnorm_wordpool_576.txt	LTP258	ltpFR2	7	1	HOOK	715	n/a	n/a	0	0	0
381.21	n/a	WORD	190605	wordpools/wasnorm_wordpool_576.txt	LTP258	ltpFR2	7	1	TROUT	1511	n/a	n/a	0	0	0
383.756	n/a	WORD	191878	wordpools/wasnorm_wordpool_576.txt	LTP258	ltpFR2	7	1	PILOT	1070	n/a	n/a	0	0	0
386.502	n/a	WORD	193251	wordpools/wasnorm_wordpool_576.txt	LTP258	ltpFR2	7	1	FLESH	579	n/a	n/a	0	0	0
389.248	n/a	WORD	194624	wordpools/wasnorm_wordpool_576.txt	LTP258	ltpFR2	7	1	LEOPARD	812	n/a	n/a	0	0	0
391.778	n/a	WORD	195889	wordpools/wasnorm_wordpool_576.txt	LTP258	ltpFR2	7	1	DUST	508	n/a	n/a	0	0	0
394.476	n/a	WORD	197238	wordpools/wasnorm_wordpool_576.txt	LTP258	ltpFR2	7	1	MARSH	874	n/a	n/a	0	0	0
397.236	n/a	WORD	198618	wordpools/wasnorm_wordpool_576.txt	LTP258	ltpFR2	7	1	COWBOY	395	n/a	n/a	0	0	0
399.882	n/a	WORD	199941	wordpools/wasnorm_wordpool_576.txt	LTP258	ltpFR2	7	1	OZONE	996	n/a	n/a	0	0	0
402.364	n/a	WORD	201182	wordpools/wasnorm_wordpool_576.txt	LTP258	ltpFR2	7	1	DIME	466	n/a	n/a	0	0	0
404.826	n/a	WORD	202413	wordpools/wasnorm_wordpool_576.txt	LTP258	ltpFR2	7	1	PIGEON	1065	n/a	n/a	0	0	0
407.34	n/a	WORD	203670	wordpools/wasnorm_wordpool_576.txt	LTP258	ltpFR2	7	1	TRIBE	1505	n/a	n/a	0	0	0
409.834	n/a	WORD	204917	wordpools/wasnorm_wordpool_576.txt	LTP258	ltpFR2	7	1	AIRPLANE	12	n/a	n/a	0	0	0
412.382	n/a	WORD	206191	wordpools/wasnorm_wordpool_576.txt	LTP258	ltpFR2	7	1	VAGRANT	1544	n/a	n/a	0	0	0
415.126	n/a	WORD	207563	wordpools/wasnorm_wordpool_576.txt	LTP258	ltpFR2	7	1	CAMEL	223	n/a	n/a	0	0	0
417.606	n/a	WORD	208803	wordpools/wasnorm_wordpool_576.txt	LTP258	ltpFR2	7	1	BALLOON	75	n/a	n/a	0	0	0
420.102	n/a	WORD	210051	wordpools/wasnorm_wordpool_576.txt	LTP258	ltpFR2	7	1	PADDLE	1000	n/a	n/a	0	0	0
422.782	n/a	WORD	211391	wordpools/wasnorm_wordpool_576.txt	LTP258	ltpFR2	7	1	PATROL	1027	n/a	n/a	0	0	0
425.43	n/a	WORD	212715	wordpools/wasnorm_wordpool_576.txt	LTP258	ltpFR2	7	1	BANKER	84	n/a	n/a	0	0	0
428.19	n/a	WORD	214095	wordpools/wasnorm_wordpool_576.txt	LTP258	ltpFR2	7	1	RATTLE	1170	n/a	n/a	0	0	0
430.986	n/a	WORD	215493	wordpools/wasnorm_wordpool_576.txt	LTP258	ltpFR2	7	1	AIRPORT	13	n/a	n/a	0	0	0
433.434	n/a	WORD	216717	wordpools/wasnorm_wordpool_576.txt	LTP258	ltpFR2	7	1	ITEM	746	n/a	n/a	0	0	0
435.962	n/a	WORD	217981	wordpools/wasnorm_wordpool_576.txt	LTP258	ltpFR2	7	1	NOMAD	955	n/a	n/a	0	0	0
437.576	n/a	START	218788	n/a	LTP258	ltpFR2	7	n/a	n/a	n/a	2	n/a	n/a	n/a	n/a
438.674	n/a	DISTRACTOR	219337	n/a	LTP258	ltpFR2	7	1	n/a	n/a	n/a	n/a	0	0	0
438.692	n/a	PROB	219346	n/a	LTP258	ltpFR2	7	n/a	n/a	n/a	2	20	9	3	8
440.738	n/a	PROB	220369	n/a	LTP258	ltpFR2	7	n/a	n/a	n/a	2	15	6	8	1
441.788	n/a	PROB	220894	n/a	LTP258	ltpFR2	7	n/a	n/a	n/a	2	85	3	1	1
442.652	n/a	PROB	221326	n/a	LTP258	ltpFR2	7	n/a	n/a	n/a	2	10	3	1	6
444.1	n/a	PROB	222050	n/a	LTP258	ltpFR2	7	n/a	n/a	n/a	2	23	8	6	9
446.348	n/a	PROB	223174	n/a	LTP258	ltpFR2	7	n/a	n/a	n/a	2	15	6	4	5
447.694	n/a	PROB	223847	n/a	LTP258	ltpFR2	7	n/a	n/a	n/a	2	16	3	8	5
448.944	n/a	PROB	224472	n/a	LTP258	ltpFR2	7	n/a	n/a	n/a	2	21	9	8	4
450.724	n/a	PROB	225362	n/a	LTP258	ltpFR2	7	n/a	n/a	n/a	2	16	8	3	5
452.838	n/a	PROB	226419	n/a	LTP258	ltpFR2	7	n/a	n/a	n/a	2	14	7	1	6
454.436	n/a	PROB	227218	n/a	LTP258	ltpFR2	7	n/a	n/a	n/a	2	18	6	8	4
455.468	n/a	PROB	227734	n/a	LTP258	ltpFR2	7	n/a	n/a	n/a	2	11	3	7	1
456.482	n/a	PROB	228241	n/a	LTP258	ltpFR2	7	n/a	n/a	n/a	2	22	9	6	7
458.446	n/a	PROB	229223	n/a	LTP258	ltpFR2	7	n/a	n/a	n/a	2	13	2	6	5
460.416	n/a	STOP	230208	n/a	LTP258	ltpFR2	7	n/a	n/a	n/a	2	n/a	n/a	n/a	n/a
463.34	n/a	REC_START	231670	n/a	LTP258	ltpFR2	7	1	n/a	n/a	n/a	n/a	0	0	0
466.212	n/a	REC_WORD	233106	wordpools/wasnorm_wordpool_576.txt	LTP258	ltpFR2	7	1	VAGRANT	1544	n/a	n/a	0	0	0
468.212	n/a	REC_WORD	234106	wordpools/wasnorm_wordpool_576.txt	LTP258	ltpFR2	7	1	BANKER	84	n/a	n/a	0	0	0
469.08	n/a	REC_WORD	234540	wordpools/wasnorm_wordpool_576.txt	LTP258	ltpFR2	7	1	AIRPORT	13	n/a	n/a	0	0	0
470.106	n/a	REC_WORD	235053	wordpools/wasnorm_wordpool_576.txt	LTP258	ltpFR2	7	1	NOMAD	955	n/a	n/a	0	0	0
474.228	n/a	REC_WORD	237114	wordpools/wasnorm_wordpool_576.txt	LTP258	ltpFR2	7	1	COWBOY	395	n/a	n/a	0	0	0
480.538	n/a	REC_WORD	240269	wordpools/wasnorm_wordpool_576.txt	LTP258	ltpFR2	7	1	AIRPLANE	12	n/a	n/a	0	0	0
483.634	n/a	REC_WORD	241817	wordpools/wasnorm_wordpool_576.txt	LTP258	ltpFR2	7	1	PILOT	1070	n/a	n/a	0	0	0
487.642	n/a	REC_WORD	243821	wordpools/wasnorm_wordpool_576.txt	LTP258	ltpFR2	7	1	CAMEL	223	n/a	n/a	0	0	0
488.528	n/a	REC_WORD	244264	wordpools/wasnorm_wordpool_576.txt	LTP258	ltpFR2	7	1	BALLOON	75	n/a	n/a	0	0	0
498.956	n/a	REC_WORD	249478	wordpools/wasnorm_wordpool_576.txt	LTP258	ltpFR2	7	1	LEOPARD	812	n/a	n/a	0	0	0
503.256	n/a	REC_WORD	251628	wordpools/wasnorm_wordpool_576.txt	LTP258	ltpFR2	7	1	HERO	706	n/a	n/a	0	0	0
504.378	n/a	REC_WORD	252189	wordpools/wasnorm_wordpool_576.txt	LTP258	ltpFR2	7	1	HOOK	715	n/a	n/a	0	0	0
505.634	n/a	REC_WORD	252817	wordpools/wasnorm_wordpool_576.txt	LTP258	ltpFR2	7	1	FLESH	579	n/a	n/a	0	0	0
516.18	n/a	REC_WORD	258090	wordpools/wasnorm_wordpool_576.txt	LTP258	ltpFR2	7	1	MARSH	874	n/a	n/a	0	0	0
554.004	n/a	DISTRACTOR	277002	n/a	LTP258	ltpFR2	7	2	n/a	n/a	n/a	n/a	0	0	0
554.006	n/a	START	277003	n/a	LTP258	ltpFR2	7	n/a	n/a	n/a	3	n/a	n/a	n/a	n/a
554.038	n/a	PROB	277019	n/a	LTP258	ltpFR2	7	n/a	n/a	n/a	3	20	8	9	3
555.32	n/a	PROB	277660	n/a	LTP258	ltpFR2	7	n/a	n/a	n/a	3	20	4	9	7
557.084	n/a	PROB	278542	n/a	LTP258	ltpFR2	7	n/a	n/a	n/a	3	12	2	9	1
558.55	n/a	PROB	279275	n/a	LTP258	ltpFR2	7	n/a	n/a	n/a	3	8	4	3	1
559.564	n/a	PROB	279782	n/a	LTP258	ltpFR2	7	n/a	n/a	n/a	3	9	2	4	3
561.21	n/a	PROB	280605	n/a	LTP258	ltpFR2	7	n/a	n/a	n/a	3	12	4	6	2
562.46	n/a	PROB	281230	n/a	LTP258	ltpFR2	7	n/a	n/a	n/a	3	18	7	9	2
563.59	n/a	PROB	281795	n/a	LTP258	ltpFR2	7	n/a	n/a	n/a	3	4	2	1	1
564.524	n/a	PROB	282262	n/a	LTP258	ltpFR2	7	n/a	n/a	n/a	3	17	9	5	3
565.954	n/a	PROB	282977	n/a	LTP258	ltpFR2	7	n/a	n/a	n/a	3	17	9	4	4
567.32	n/a	PROB	283660	n/a	LTP258	ltpFR2	7	n/a	n/a	n/a	3	12	1	5	6
568.468	n/a	PROB	284234	n/a	LTP258	ltpFR2	7	n/a	n/a	n/a	3	7	1	3	3
569.698	n/a	PROB	284849	n/a	LTP258	ltpFR2	7	n/a	n/a	n/a	3	17	4	9	4
570.996	n/a	PROB	285498	n/a	LTP258	ltpFR2	7	n/a	n/a	n/a	3	12	5	6	1
572.61	n/a	PROB	286305	n/a	LTP258	ltpFR2	7	n/a	n/a	n/a	3	21	9	9	3
574.808	n/a	PROB	287404	n/a	LTP258	ltpFR2	7	n/a	n/a	n/a	3	11	7	2	2
576.006	n/a	PROB	288003	n/a	LTP258	ltpFR2	7	n/a	n/a	n/a	3	15	1	6	8
577.05	n/a	STOP	288525	n/a	LTP258	ltpFR2	7	n/a	n/a	n/a	3	n/a	n/a	n/a	n/a
578.902	n/a	WORD	289451	wordpools/wasnorm_wordpool_576.txt	LTP258	ltpFR2	7	2	BABY	64	n/a	n/a	0	0	0
581.414	n/a	WORD	290707	wordpools/wasnorm_wordpool_576.txt	LTP258	ltpFR2	7	2	LIPSTICK	829	n/a	n/a	0	0	0
583.844	n/a	WORD	291922	wordpools/wasnorm_wordpool_576.txt	LTP258	ltpFR2	7	2	LAVA	804	n/a	n/a	0	0	0
586.44	n/a	WORD	293220	wordpools/wasnorm_wordpool_576.txt	LTP258	ltpFR2	7	2	CRATER	400	n/a	n/a	0	0	0
589.168	n/a	WORD	294584	wordpools/wasnorm_wordpool_576.txt	LTP258	ltpFR2	7	2	STAKE	1368	n/a	n/a	0	0	0
591.832	n/a	WORD	295916	wordpools/wasnorm_wordpool_576.txt	LTP258	ltpFR2	7	2	GUARD	667	n/a	n/a	0	0	0
594.428	n/a	WORD	297214	wordpools/wasnorm_wordpool_576.txt	LTP258	ltpFR2	7	2	HATCHET	691	n/a	n/a	0	0	0
596.958	n/a	WORD	298479	wordpools/wasnorm_wordpool_576.txt	LTP258	ltpFR2	7	2	SADDLE	1221	n/a	n/a	0	0	0
599.454	n/a	WORD	299727	wordpools/wasnorm_wordpool_576.txt	LTP258	ltpFR2	7	2	DORM	488	n/a	n/a	0	0	0
601.884	n/a	WORD	300942	wordpools/wasnorm_wordpool_576.txt	LTP258	ltpFR2	7	2	SALAD	1224	n/a	n/a	0	0	0
604.348	n/a	WORD	302174	wordpools/wasnorm_wordpool_576.txt	LTP258	ltpFR2	7	2	LETTUCE	814	n/a	n/a	0	0	0
606.992	n/a	WORD	303496	wordpools/wasnorm_wordpool_576.txt	LTP258	ltpFR2	7	2	PLAZA	1088	n/a	n/a	0	0	0
609.556	n/a	WORD	304778	wordpools/wasnorm_wordpool_576.txt	LTP258	ltpFR2	7	2	COOK	372	n/a	n/a	0	0	0
612.302	n/a	WORD	306151	wordpools/wasnorm_wordpool_576.txt	LTP258	ltpFR2	7	2	INFANT	737	n/a	n/a	0	0	0
614.83	n/a	WORD	307415	wordpools/wasnorm_wordpool_576.txt	LTP258	ltpFR2	7	2	STONE	1385	n/a	n/a	0	0	0
617.462	n/a	WORD	308731	wordpools/wasnorm_wordpool_576.txt	LTP258	ltpFR2	7	2	SKETCH	1315	n/a	n/a	0	0	0
620.224	n/a	WORD	310112	wordpools/wasnorm_wordpool_576.txt	LTP258	ltpFR2	7	2	SHRUB	1299	n/a	n/a	0	0	0
622.87	n/a	WORD	311435	wordpools/wasnorm_wordpool_576.txt	LTP258	ltpFR2	7	2	DRIVER	499	n/a	n/a	0	0	0
625.45	n/a	WORD	312725	wordpools/wasnorm_wordpool_576.txt	LTP258	ltpFR2	7	2	PLUTO	1092	n/a	n/a	0	0	0
627.878	n/a	WORD	313939	wordpools/wasnorm_wordpool_576.txt	LTP258	ltpFR2	7	2	TREAT	1501	n/a	n/a	0	0	0
630.31	n/a	WORD	315155	wordpools/wasnorm_wordpool_576.txt	LTP258	ltpFR2	7	2	MASK	876	n/a	n/a	0	0	0
633.088	n/a	WORD	316544	wordpools/wasnorm_wordpool_576.txt	LTP258	ltpFR2	7	2	KIDNEY	776	n/a	n/a	0	0	0
635.634	n/a	WORD	317817	wordpools/wasnorm_wordpool_576.txt	LTP258	ltpFR2	7	2	CONTRACT	368	n/a	n/a	0	0	0
638.448	n/a	WORD	319224	wordpools/wasnorm_wordpool_576.txt	LTP258	ltpFR2	7	2	ULCER	1533	n/a	n/a	0	0	0
640.06	n/a	START	320030	n/a	LTP258	ltpFR2	7	n/a	n/a	n/a	4	n/a	n/a	n/a	n/a
640.94	n/a	DISTRACTOR	320470	n/a	LTP258	ltpFR2	7	2	n/a	n/a	n/a	n/a	0	0	0
640.942	n/a	PROB	320471	n/a	LTP258	ltpFR2	7	n/a	n/a	n/a	4	11	4	5	2
642.508	n/a	PROB	321254	n/a	LTP258	ltpFR2	7	n/a	n/a	n/a	4	16	3	5	8
643.722	n/a	PROB	321861	n/a	LTP258	ltpFR2	7	n/a	n/a	n/a	4	22	5	8	9
645.802	n/a	PROB	322901	n/a	LTP258	ltpFR2	7	n/a	n/a	n/a	4	13	9	1	3
646.75	n/a	PROB	323375	n/a	LTP258	ltpFR2	7	n/a	n/a	n/a	4	10	3	4	3
648.082	n/a	PROB	324041	n/a	LTP258	ltpFR2	7	n/a	n/a	n/a	4	17	9	7	1
649.348	n/a	PROB	324674	n/a	LTP258	ltpFR2	7	n/a	n/a	n/a	4	22	4	9	9
650.928	n/a	PROB	325464	n/a	LTP258	ltpFR2	7	n/a	n/a	n/a	4	9	3	3	3
652.11	n/a	PROB	326055	n/a	LTP258	ltpFR2	7	n/a	n/a	n/a	4	15	9	4	2
654.474	n/a	PROB	327237	n/a	LTP258	ltpFR2	7	n/a	n/a	n/a	4	22	8	7	7
656.786	n/a	PROB	328393	n/a	LTP258	ltpFR2	7	n/a	n/a	n/a	4	16	8	7	1
658.45	n/a	PROB	329225	n/a	LTP258	ltpFR2	7	n/a	n/a	n/a	4	7	2	1	4
660.78	n/a	PROB	330390	n/a	LTP258	ltpFR2	7	n/a	n/a	n/a	4	13	3	8	2
664.06	n/a	STOP	332030	n/a	LTP258	ltpFR2	7	n/a	n/a	n/a	4	n/a	n/a	n/a	n/a
665.956	n/a	REC_START	332978	n/a	LTP258	ltpFR2	7	2	n/a	n/a	n/a	n/a	0	0	0
669.518	n/a	REC_WORD	334759	wordpools/wasnorm_wordpool_576.txt	LTP258	ltpFR2	7	2	DRIVER	499	n/a	n/a	0	0	0
670.524	n/a	REC_WORD	335262	wordpools/wasnorm_wordpool_576.txt	LTP258	ltpFR2	7	2	PLUTO	1092	n/a	n/a	0	0	0
672.382	n/a	REC_WORD	336191	wordpools/wasnorm_wordpool_576.txt	LTP258	ltpFR2	7	2	MASK	876	n/a	n/a	0	0	0
674.83	n/a	REC_WORD	337415	wordpools/wasnorm_wordpool_576.txt	LTP258	ltpFR2	7	2	TREAT	1501	n/a	n/a	0	0	0
676.068	n/a	REC_WORD	338034	wordpools/wasnorm_wordpool_576.txt	LTP258	ltpFR2	7	2	KIDNEY	776	n/a	n/a	0	0	0
680.23	n/a	REC_WORD	340115	wordpools/wasnorm_wordpool_576.txt	LTP258	ltpFR2	7	2	PLAZA	1088	n/a	n/a	0	0	0
682.504	n/a	REC_WORD	341252	wordpools/wasnorm_wordpool_576.txt	LTP258	ltpFR2	7	2	SADDLE	1221	n/a	n/a	0	0	0
683.434	n/a	REC_WORD	341717	wordpools/wasnorm_wordpool_576.txt	LTP258	ltpFR2	7	2	SALAD	1224	n/a	n/a	0	0	0
684.494	n/a	REC_WORD	342247	wordpools/wasnorm_wordpool_576.txt	LTP258	ltpFR2	7	2	LETTUCE	814	n/a	n/a	0	0	0
685.478	n/a	REC_WORD	342739	wordpools/wasnorm_wordpool_576.txt	LTP258	ltpFR2	7	2	COOK	372	n/a	n/a	0	0	0
697.428	n/a	REC_WORD	348714	wordpools/wasnorm_wordpool_576.txt	LTP258	ltpFR2	7	2	INFANT	737	n/a	n/a	0	0	0
698.428	n/a	REC_WORD	349214	wordpools/wasnorm_wordpool_576.txt	LTP258	ltpFR2	7	2	BABY	64	n/a	n/a	0	0	0
699.474	n/a	REC_WORD	349737	wordpools/wasnorm_wordpool_576.txt	LTP258	ltpFR2	7	2	LIPSTICK	829	n/a	n/a	0	0	0
701.036	n/a	REC_WORD	350518	wordpools/wasnorm_wordpool_576.txt	LTP258	ltpFR2	7	2	LAVA	804	n/a	n/a	0	0	0
701.958	n/a	REC_WORD	350979	wordpools/wasnorm_wordpool_576.txt	LTP258	ltpFR2	7	2	CRATER	400	n/a	n/a	0	0	0
703.368	n/a	REC_WORD	351684	wordpools/wasnorm_wordpool_576.txt	LTP258	ltpFR2	7	2	GUARD	667	n/a	n/a	0	0	0
704.378	n/a	REC_WORD	352189	wordpools/wasnorm_wordpool_576.txt	LTP258	ltpFR2	7	2	HATCHET	691	n/a	n/a	0	0	0
707.17	n/a	REC_WORD	353585	wordpools/wasnorm_wordpool_576.txt	LTP258	ltpFR2	7	2	STONE	1385	n/a	n/a	0	0	0
756.604	n/a	DISTRACTOR	378302	n/a	LTP258	ltpFR2	7	3	n/a	n/a	n/a	n/a	0	0	0
756.604	n/a	START	378302	n/a	LTP258	ltpFR2	7	n/a	n/a	n/a	5	n/a	n/a	n/a	n/a
756.638	n/a	PROB	378319	n/a	LTP258	ltpFR2	7	n/a	n/a	n/a	5	20	8	5	7
758.502	n/a	PROB	379251	n/a	LTP258	ltpFR2	7	n/a	n/a	n/a	5	19	5	8	6
760.384	n/a	PROB	380192	n/a	LTP258	ltpFR2	7	n/a	n/a	n/a	5	14	3	2	9
761.414	n/a	PROB	380707	n/a	LTP258	ltpFR2	7	n/a	n/a	n/a	5	15	5	5	5
762.346	n/a	PROB	381173	n/a	LTP258	ltpFR2	7	n/a	n/a	n/a	5	12	5	4	3
765.342	n/a	PROB	382671	n/a	LTP258	ltpFR2	7	n/a	n/a	n/a	5	14	2	7	7
767.088	n/a	PROB	383544	n/a	LTP258	ltpFR2	7	n/a	n/a	n/a	5	18	9	5	4
769.536	n/a	PROB	384768	n/a	LTP258	ltpFR2	7	n/a	n/a	n/a	5	11	8	2	1
770.85	n/a	PROB	385425	n/a	LTP258	ltpFR2	7	n/a	n/a	n/a	5	12	2	5	5
771.782	n/a	PROB	385891	n/a	LTP258	ltpFR2	7	n/a	n/a	n/a	5	20	8	7	5
774.18	n/a	PROB	387090	n/a	LTP258	ltpFR2	7	n/a	n/a	n/a	5	15	1	7	7
775.428	n/a	PROB	387714	n/a	LTP258	ltpFR2	7	n/a	n/a	n/a	5	20	8	9	3
777.224	n/a	PROB	388612	n/a	LTP258	ltpFR2	7	n/a	n/a	n/a	5	22	6	9	7
779.748	n/a	STOP	389874	n/a	LTP258	ltpFR2	7	n/a	n/a	n/a	5	n/a	n/a	n/a	n/a
781.652	n/a	WORD	390826	wordpools/wasnorm_wordpool_576.txt	LTP258	ltpFR2	7	3	GLOVE	642	n/a	n/a	0	0	0
784.414	n/a	WORD	392207	wordpools/wasnorm_wordpool_576.txt	LTP258	ltpFR2	7	3	SCOTCH	1251	n/a	n/a	0	0	0
787.144	n/a	WORD	393572	wordpools/wasnorm_wordpool_576.txt	LTP258	ltpFR2	7	3	HEADBAND	696	n/a	n/a	0	0	0
789.922	n/a	WORD	394961	wordpools/wasnorm_wordpool_576.txt	LTP258	ltpFR2	7	3	CHEST	295	n/a	n/a	0	0	0
792.618	n/a	WORD	396309	wordpools/wasnorm_wordpool_576.txt	LTP258	ltpFR2	7	3	WARDROBE	1587	n/a	n/a	0	0	0
795.098	n/a	WORD	397549	wordpools/wasnorm_wordpool_576.txt	LTP258	ltpFR2	7	3	PUPIL	1143	n/a	n/a	0	0	0
797.628	n/a	WORD	398814	wordpools/wasnorm_wordpool_576.txt	LTP258	ltpFR2	7	3	STUDENT	1395	n/a	n/a	0	0	0
800.14	n/a	WORD	400070	wordpools/wasnorm_wordpool_576.txt	LTP258	ltpFR2	7	3	TEACHER	1440	n/a	n/a	0	0	0
802.604	n/a	WORD	401302	wordpools/wasnorm_wordpool_576.txt	LTP258	ltpFR2	7	3	WOMAN	1620	n/a	n/a	0	0	0
805.116	n/a	WORD	402558	wordpools/wasnorm_wordpool_576.txt	LTP258	ltpFR2	7	3	SPIDER	1351	n/a	n/a	0	0	0
807.928	n/a	WORD	403964	wordpools/wasnorm_wordpool_576.txt	LTP258	ltpFR2	7	3	INMATE	738	n/a	n/a	0	0	0
810.51	n/a	WORD	405255	wordpools/wasnorm_wordpool_576.txt	LTP258	ltpFR2	7	3	DANCER	437	n/a	n/a	0	0	0
812.954	n/a	WORD	406477	wordpools/wasnorm_wordpool_576.txt	LTP258	ltpFR2	7	3	MARS	873	n/a	n/a	0	0	0
815.386	n/a	WORD	407693	wordpools/wasnorm_wordpool_576.txt	LTP258	ltpFR2	7	3	PIZZA	1079	n/a	n/a	0	0	0
818.046	n/a	WORD	409023	wordpools/wasnorm_wordpool_576.txt	LTP258	ltpFR2	7	3	SANDWICH	1232	n/a	n/a	0	0	0
820.61	n/a	WORD	410305	wordpools/wasnorm_wordpool_576.txt	LTP258	ltpFR2	7	3	FLUTE	585	n/a	n/a	0	0	0
823.072	n/a	WORD	411536	wordpools/wasnorm_wordpool_576.txt	LTP258	ltpFR2	7	3	LAGOON	795	n/a	n/a	0	0	0
825.718	n/a	WORD	412859	wordpools/wasnorm_wordpool_576.txt	LTP258	ltpFR2	7	3	FLEET	578	n/a	n/a	0	0	0
828.482	n/a	WORD	414241	wordpools/wasnorm_wordpool_576.txt	LTP258	ltpFR2	7	3	BANQUET	86	n/a	n/a	0	0	0
831.244	n/a	WORD	415622	wordpools/wasnorm_wordpool_576.txt	LTP258	ltpFR2	7	3	FREEZER	604	n/a	n/a	0	0	0
833.94	n/a	WORD	416970	wordpools/wasnorm_wordpool_576.txt	LTP258	ltpFR2	7	3	DRILL	497	n/a	n/a	0	0	0
836.52	n/a	WORD	418260	wordpools/wasnorm_wordpool_576.txt	LTP258	ltpFR2	7	3	TUTU	1524	n/a	n/a	0	0	0
839.016	n/a	WORD	419508	wordpools/wasnorm_wordpool_576.txt	LTP258	ltpFR2	7	3	FLAG	573	n/a	n/a	0	0	0
841.48	n/a	WORD	420740	wordpools/wasnorm_wordpool_576.txt	LTP258	ltpFR2	7	3	COCOON	339	n/a	n/a	0	0	0
843.094	n/a	START	421547	n/a	LTP258	ltpFR2	7	n/a	n/a	n/a	6	n/a	n/a	n/a	n/a
844.05	n/a	DISTRACTOR	422025	n/a	LTP258	ltpFR2	7	3	n/a	n/a	n/a	n/a	0	0	0
844.058	n/a	PROB	422029	n/a	LTP258	ltpFR2	7	n/a	n/a	n/a	6	8	1	4	3
845.308	n/a	PROB	422654	n/a	LTP258	ltpFR2	7	n/a	n/a	n/a	6	14	1	7	6
848.136	n/a	PROB	424068	n/a	LTP258	ltpFR2	7	n/a	n/a	n/a	6	16	9	6	1
850.184	n/a	PROB	425092	n/a	LTP258	ltpFR2	7	n/a	n/a	n/a	6	15	5	2	8
851.88	n/a	PROB	425940	n/a	LTP258	ltpFR2	7	n/a	n/a	n/a	6	14	1	8	5
853.178	n/a	PROB	426589	n/a	LTP258	ltpFR2	7	n/a	n/a	n/a	6	22	7	6	8
855.626	n/a	PROB	427813	n/a	LTP258	ltpFR2	7	n/a	n/a	n/a	6	19	9	6	4
856.59	n/a	PROB	428295	n/a	LTP258	ltpFR2	7	n/a	n/a	n/a	6	14	5	5	4
858.072	n/a	PROB	429036	n/a	LTP258	ltpFR2	7	n/a	n/a	n/a	6	10	3	4	3
859.52	n/a	PROB	429760	n/a	LTP258	ltpFR2	7	n/a	n/a	n/a	6	178	7	7	4
861.534	n/a	PROB	430767	n/a	LTP258	ltpFR2	7	n/a	n/a	n/a	6	13	5	3	5
862.632	n/a	PROB	431316	n/a	LTP258	ltpFR2	7	n/a	n/a	n/a	6	20	7	7	6
864.196	n/a	PROB	432098	n/a	LTP258	ltpFR2	7	n/a	n/a	n/a	6	12	7	3	2
867.094	n/a	STOP	433547	n/a	LTP258	ltpFR2	7	n/a	n/a	n/a	6	n/a	n/a	n/a	n/a
868.956	n/a	REC_START	434478	n/a	LTP258	ltpFR2	7	3	n/a	n/a	n/a	n/a	0	0	0
871.49	n/a	REC_WORD	435745	wordpools/wasnorm_wordpool_576.txt	LTP258	ltpFR2	7	3	MARS	873	n/a	n/a	0	0	0
872.214	n/a	REC_WORD	436107	wordpools/wasnorm_wordpool_576.txt	LTP258	ltpFR2	7	3	SANDWICH	1232	n/a	n/a	0	0	0
873.248	n/a	REC_WORD	436624	wordpools/wasnorm_wordpool_576.txt	LTP258	ltpFR2	7	3	LAGOON	795	n/a	n/a	0	0	0
874.184	n/a	REC_WORD	437092	wordpools/wasnorm_wordpool_576.txt	LTP258	ltpFR2	7	3	FLAG	573	n/a	n/a	0	0	0
876.06	n/a	REC_WORD	438030	wordpools/wasnorm_wordpool_576.txt	LTP258	ltpFR2	7	3	FLEET	578	n/a	n/a	0	0	0
877.334	n/a	REC_WORD	438667	wordpools/wasnorm_wordpool_576.txt	LTP258	ltpFR2	7	3	FLUTE	585	n/a	n/a	0	0	0
884.814	n/a	REC_WORD	442407	wordpools/wasnorm_wordpool_576.txt	LTP258	ltpFR2	7	3	INMATE	738	n/a	n/a	0	0	0
885.622	n/a	REC_WORD	442811	wordpools/wasnorm_wordpool_576.txt	LTP258	ltpFR2	7	3	SPIDER	1351	n/a	n/a	0	0	0
887.78	n/a	REC_WORD	443890	wordpools/wasnorm_wordpool_576.txt	LTP258	ltpFR2	7	3	TEACHER	1440	n/a	n/a	0	0	0
901.468	n/a	REC_WORD	450734	wordpools/wasnorm_wordpool_576.txt	LTP258	ltpFR2	7	3	STUDENT	1395	n/a	n/a	0	0	0
906.448	n/a	REC_WORD	453224	wordpools/wasnorm_wordpool_576.txt	LTP258	ltpFR2	7	3	GLOVE	642	n/a	n/a	0	0	0
908.042	n/a	REC_WORD	454021	wordpools/wasnorm_wordpool_576.txt	LTP258	ltpFR2	7	3	SCOTCH	1251	n/a	n/a	0	0	0
911.422	n/a	REC_WORD	455711	wordpools/wasnorm_wordpool_576.txt	LTP258	ltpFR2	7	3	CHEST	295	n/a	n/a	0	0	0
912.582	n/a	REC_WORD	456291	wordpools/wasnorm_wordpool_576.txt	LTP258	ltpFR2	7	3	WARDROBE	1587	n/a	n/a	0	0	0
959.62	n/a	WORD	479810	wordpools/wasnorm_wordpool_576.txt	LTP258	ltpFR2	7	4	PAIL	1002	n/a	n/a	0	0	0
962.084	n/a	WORD	481042	wordpools/wasnorm_wordpool_576.txt	LTP258	ltpFR2	7	4	ACTRESS	6	n/a	n/a	0	0	0
964.73	n/a	WORD	482365	wordpools/wasnorm_wordpool_576.txt	LTP258	ltpFR2	7	4	SUNRISE	1407	n/a	n/a	0	0	0
967.378	n/a	WORD	483689	wordpools/wasnorm_wordpool_576.txt	LTP258	ltpFR2	7	4	PORK	1108	n/a	n/a	0	0	0
969.872	n/a	WORD	484936	wordpools/wasnorm_wordpool_576.txt	LTP258	ltpFR2	7	4	HELMET	702	n/a	n/a	0	0	0
972.304	n/a	WORD	486152	wordpools/wasnorm_wordpool_576.txt	LTP258	ltpFR2	7	4	HIKER	708	n/a	n/a	0	0	0
975.032	n/a	WORD	487516	wordpools/wasnorm_wordpool_576.txt	LTP258	ltpFR2	7	4	FINGER	567	n/a	n/a	0	0	0
977.678	n/a	WORD	488839	wordpools/wasnorm_wordpool_576.txt	LTP258	ltpFR2	7	4	GRAVE	658	n/a	n/a	0	0	0
980.324	n/a	WORD	490162	wordpools/wasnorm_wordpool_576.txt	LTP258	ltpFR2	7	4	CLIMBER	323	n/a	n/a	0	0	0
982.92	n/a	WORD	491460	wordpools/wasnorm_wordpool_576.txt	LTP258	ltpFR2	7	4	ROD	1203	n/a	n/a	0	0	0
985.484	n/a	WORD	492742	wordpools/wasnorm_wordpool_576.txt	LTP258	ltpFR2	7	4	ACTOR	5	n/a	n/a	0	0	0
988.146	n/a	WORD	494073	wordpools/wasnorm_wordpool_576.txt	LTP258	ltpFR2	7	4	BODY	145	n/a	n/a	0	0	0
990.842	n/a	WORD	495421	wordpools/wasnorm_wordpool_576.txt	LTP258	ltpFR2	7	4	BELLY	119	n/a	n/a	0	0	0
993.338	n/a	WORD	496669	wordpools/wasnorm_wordpool_576.txt	LTP258	ltpFR2	7	4	LILY	821	n/a	n/a	0	0	0
995.834	n/a	WORD	497917	wordpools/wasnorm_wordpool_576.txt	LTP258	ltpFR2	7	4	GLASS	639	n/a	n/a	0	0	0
998.398	n/a	WORD	499199	wordpools/wasnorm_wordpool_576.txt	LTP258	ltpFR2	7	4	CAFE	216	n/a	n/a	0	0	0
1000.844	n/a	WORD	500422	wordpools/wasnorm_wordpool_576.txt	LTP258	ltpFR2	7	4	CRITIC	410	n/a	n/a	0	0	0
1003.574	n/a	WORD	501787	wordpools/wasnorm_wordpool_576.txt	LTP258	ltpFR2	7	4	AUTHOR	61	n/a	n/a	0	0	0
1006.22	n/a	WORD	503110	wordpools/wasnorm_wordpool_576.txt	LTP258	ltpFR2	7	4	WINDOW	1611	n/a	n/a	0	0	0
1008.682	n/a	WORD	504341	wordpools/wasnorm_wordpool_576.txt	LTP258	ltpFR2	7	4	SAUSAGE	1238	n/a	n/a	0	0	0
1011.446	n/a	WORD	505723	wordpools/wasnorm_wordpool_576.txt	LTP258	ltpFR2	7	4	PUPPY	1144	n/a	n/a	0	0	0
1014.108	n/a	WORD	507054	wordpools/wasnorm_wordpool_576.txt	LTP258	ltpFR2	7	4	HOUND	724	n/a	n/a	0	0	0
1016.754	n/a	WORD	508377	wordpools/wasnorm_wordpool_576.txt	LTP258	ltpFR2	7	4	MUMMY	932	n/a	n/a	0	0	0
1019.334	n/a	WORD	509667	wordpools/wasnorm_wordpool_576.txt	LTP258	ltpFR2	7	4	GRIZZLY	662	n/a	n/a	0	0	0
1020.948	n/a	START	510474	n/a	LTP258	ltpFR2	7	n/a	n/a	n/a	7	n/a	n/a	n/a	n/a
1022.124	n/a	DISTRACTOR	511062	n/a	LTP258	ltpFR2	7	4	n/a	n/a	n/a	n/a	0	0	0
1022.128	n/a	PROB	511064	n/a	LTP258	ltpFR2	7	n/a	n/a	n/a	7	16	9	2	5
1024.192	n/a	PROB	512096	n/a	LTP258	ltpFR2	7	n/a	n/a	n/a	7	14	5	6	3
1025.558	n/a	PROB	512779	n/a	LTP258	ltpFR2	7	n/a	n/a	n/a	7	22	5	8	9
1027.456	n/a	PROB	513728	n/a	LTP258	ltpFR2	7	n/a	n/a	n/a	7	14	2	9	2
1028.786	n/a	PROB	514393	n/a	LTP258	ltpFR2	7	n/a	n/a	n/a	7	26	7	9	9
1031.998	n/a	PROB	515999	n/a	LTP258	ltpFR2	7	n/a	n/a	n/a	7	19	8	6	5
1034.726	n/a	PROB	517363	n/a	LTP258	ltpFR2	7	n/a	n/a	n/a	7	15	5	4	6
1036.508	n/a	PROB	518254	n/a	LTP258	ltpFR2	7	n/a	n/a	n/a	7	11	2	3	6
1038.054	n/a	PROB	519027	n/a	LTP258	ltpFR2	7	n/a	n/a	n/a	7	14	9	2	3
1039.67	n/a	PROB	519835	n/a	LTP258	ltpFR2	7	n/a	n/a	n/a	7	13	5	1	7
1040.818	n/a	PROB	520409	n/a	LTP258	ltpFR2	7	n/a	n/a	n/a	7	3	1	1	1
1041.75	n/a	PROB	520875	n/a	LTP258	ltpFR2	7	n/a	n/a	n/a	7	11	5	2	4
1044.948	n/a	STOP	522474	n/a	LTP258	ltpFR2	7	n/a	n/a	n/a	7	n/a	n/a	n/a	n/a
1046.842	n/a	REC_START	523421	n/a	LTP258	ltpFR2	7	4	n/a	n/a	n/a	n/a	0	0	0
1049.676	n/a	REC_WORD	524838	wordpools/wasnorm_wordpool_576.txt	LTP258	ltpFR2	7	4	MUMMY	932	n/a	n/a	0	0	0
1050.382	n/a	REC_WORD	525191	wordpools/wasnorm_wordpool_576.txt	LTP258	ltpFR2	7	4	GRIZZLY	662	n/a	n/a	0	0	0
1051.242	n/a	REC_WORD	525621	wordpools/wasnorm_wordpool_576.txt	LTP258	ltpFR2	7	4	PUPPY	1144	n/a	n/a	0	0	0
1051.92	n/a	REC_WORD	525960	wordpools/wasnorm_wordpool_576.txt	LTP258	ltpFR2	7	4	HOUND	724	n/a	n/a	0	0	0
1054.26	n/a	REC_WORD	527130	wordpools/wasnorm_wordpool_576.txt	LTP258	ltpFR2	7	4	WINDOW	1611	n/a	n/a	0	0	0
1054.944	n/a	REC_WORD	527472	wordpools/wasnorm_wordpool_576.txt	LTP258	ltpFR2	7	4	CRITIC	410	n/a	n/a	0	0	0
1055.682	n/a	REC_WORD	527841	wordpools/wasnorm_wordpool_576.txt	LTP258	ltpFR2	7	4	AUTHOR	61	n/a	n/a	0	0	0
1056.336	n/a	REC_WORD	528168	wordpools/wasnorm_wordpool_576.txt	LTP258	ltpFR2	7	4	SAUSAGE	1238	n/a	n/a	0	0	0
1057.44	n/a	REC_WORD	528720	wordpools/wasnorm_wordpool_576.txt	LTP258	ltpFR2	7	4	CAFE	216	n/a	n/a	0	0	0
1070.134	n/a	REC_WORD	535067	wordpools/wasnorm_wordpool_576.txt	LTP258	ltpFR2	7	4	ACTOR	5	n/a	n/a	0	0	0
1074.224	n/a	REC_WORD	537112	wordpools/wasnorm_wordpool_576.txt	LTP258	ltpFR2	7	4	BODY	145	n/a	n/a	0	0	0
1075.014	n/a	REC_WORD	537507	wordpools/wasnorm_wordpool_576.txt	LTP258	ltpFR2	7	4	BELLY	119	n/a	n/a	0	0	0
1075.812	n/a	REC_WORD	537906	wordpools/wasnorm_wordpool_576.txt	LTP258	ltpFR2	7	4	FINGER	567	n/a	n/a	0	0	0
1079.302	n/a	REC_WORD	539651	wordpools/wasnorm_wordpool_576.txt	LTP258	ltpFR2	7	4	SUNRISE	1407	n/a	n/a	0	0	0
1081.188	n/a	REC_WORD	540594	wordpools/wasnorm_wordpool_576.txt	LTP258	ltpFR2	7	4	ACTRESS	6	n/a	n/a	0	0	0
1082.242	n/a	REC_WORD	541121	wordpools/wasnorm_wordpool_576.txt	LTP258	ltpFR2	7	4	PAIL	1002	n/a	n/a	0	0	0
1089.1	n/a	REC_WORD	544550	wordpools/wasnorm_wordpool_576.txt	LTP258	ltpFR2	7	4	GRAVE	658	n/a	n/a	0	0	0
1093.266	n/a	REC_WORD	546633	wordpools/wasnorm_wordpool_576.txt	LTP258	ltpFR2	7	4	HIKER	708	n/a	n/a	0	0	0
1095.634	n/a	REC_WORD	547817	wordpools/wasnorm_wordpool_576.txt	LTP258	ltpFR2	7	4	CLIMBER	323	n/a	n/a	0	0	0
1137.526	n/a	WORD	568763	wordpools/wasnorm_wordpool_576.txt	LTP258	ltpFR2	7	5	CLOUD	328	n/a	n/a	0	0	0
1140.07	n/a	WORD	570035	wordpools/wasnorm_wordpool_576.txt	LTP258	ltpFR2	7	5	JUGGLER	763	n/a	n/a	0	0	0
1142.534	n/a	WORD	571267	wordpools/wasnorm_wordpool_576.txt	LTP258	ltpFR2	7	5	GYMNAST	675	n/a	n/a	0	0	0
1145.196	n/a	WORD	572598	wordpools/wasnorm_wordpool_576.txt	LTP258	ltpFR2	7	5	HARP	689	n/a	n/a	0	0	0
1147.858	n/a	WORD	573929	wordpools/wasnorm_wordpool_576.txt	LTP258	ltpFR2	7	5	TAXI	1438	n/a	n/a	0	0	0
1150.524	n/a	WORD	575262	wordpools/wasnorm_wordpool_576.txt	LTP258	ltpFR2	7	5	ANTLER	29	n/a	n/a	0	0	0
1153.234	n/a	WORD	576617	wordpools/wasnorm_wordpool_576.txt	LTP258	ltpFR2	7	5	COOKBOOK	373	n/a	n/a	0	0	0
1155.964	n/a	WORD	577982	wordpools/wasnorm_wordpool_576.txt	LTP258	ltpFR2	7	5	PICTURE	1061	n/a	n/a	0	0	0
1158.676	n/a	WORD	579338	wordpools/wasnorm_wordpool_576.txt	LTP258	ltpFR2	7	5	SCRIBBLE	1256	n/a	n/a	0	0	0
1161.174	n/a	WORD	580587	wordpools/wasnorm_wordpool_576.txt	LTP258	ltpFR2	7	5	SPHINX	1349	n/a	n/a	0	0	0
1163.952	n/a	WORD	581976	wordpools/wasnorm_wordpool_576.txt	LTP258	ltpFR2	7	5	YOLK	1633	n/a	n/a	0	0	0
1166.5	n/a	WORD	583250	wordpools/wasnorm_wordpool_576.txt	LTP258	ltpFR2	7	5	MOTEL	919	n/a	n/a	0	0	0
1168.978	n/a	WORD	584489	wordpools/wasnorm_wordpool_576.txt	LTP258	ltpFR2	7	5	CRUTCH	417	n/a	n/a	0	0	0
1171.69	n/a	WORD	585845	wordpools/wasnorm_wordpool_576.txt	LTP258	ltpFR2	7	5	SHOULDER	1294	n/a	n/a	0	0	0
1174.22	n/a	WORD	587110	wordpools/wasnorm_wordpool_576.txt	LTP258	ltpFR2	7	5	RECORD	1176	n/a	n/a	0	0	0
1176.832	n/a	WORD	588416	wordpools/wasnorm_wordpool_576.txt	LTP258	ltpFR2	7	5	CUSTARD	429	n/a	n/a	0	0	0
1179.53	n/a	WORD	589765	wordpools/wasnorm_wordpool_576.txt	LTP258	ltpFR2	7	5	VIRUS	1572	n/a	n/a	0	0	0
1182.342	n/a	WORD	591171	wordpools/wasnorm_wordpool_576.txt	LTP258	ltpFR2	7	5	FIREPLACE	570	n/a	n/a	0	0	0
1184.988	n/a	WORD	592494	wordpools/wasnorm_wordpool_576.txt	LTP258	ltpFR2	7	5	BEAKER	104	n/a	n/a	0	0	0
1187.75	n/a	WORD	593875	wordpools/wasnorm_wordpool_576.txt	LTP258	ltpFR2	7	5	CHAMPAGNE	278	n/a	n/a	0	0	0
1190.348	n/a	WORD	595174	wordpools/wasnorm_wordpool_576.txt	LTP258	ltpFR2	7	5	BLACKBOARD	133	n/a	n/a	0	0	0
1193.176	n/a	WORD	596588	wordpools/wasnorm_wordpool_576.txt	LTP258	ltpFR2	7	5	TUNNEL	1519	n/a	n/a	0	0	0
1195.638	n/a	WORD	597819	wordpools/wasnorm_wordpool_576.txt	LTP258	ltpFR2	7	5	ARMY	39	n/a	n/a	0	0	0
1198.184	n/a	WORD	599092	wordpools/wasnorm_wordpool_576.txt	LTP258	ltpFR2	7	5	LODGE	839	n/a	n/a	0	0	0
1199.798	n/a	START	599899	n/a	LTP258	ltpFR2	7	n/a	n/a	n/a	8	n/a	n/a	n/a	n/a
1200.944	n/a	DISTRACTOR	600472	n/a	LTP258	ltpFR2	7	5	n/a	n/a	n/a	n/a	0	0	0
1200.948	n/a	PROB	600474	n/a	LTP258	ltpFR2	7	n/a	n/a	n/a	8	4	1	2	1
1202.046	n/a	PROB	601023	n/a	LTP258	ltpFR2	7	n/a	n/a	n/a	8	14	2	6	7
1203.51	n/a	PROB	601755	n/a	LTP258	ltpFR2	7	n/a	n/a	n/a	8	21	9	5	7
1205.324	n/a	PROB	602662	n/a	LTP258	ltpFR2	7	n/a	n/a	n/a	8	16	9	4	3
1206.888	n/a	PROB	603444	n/a	LTP258	ltpFR2	7	n/a	n/a	n/a	8	23	9	7	7
1209.65	n/a	PROB	604825	n/a	LTP258	ltpFR2	7	n/a	n/a	n/a	8	16	8	4	4
1211.032	n/a	PROB	605516	n/a	LTP258	ltpFR2	7	n/a	n/a	n/a	8	14	3	7	4
1212.314	n/a	PROB	606157	n/a	LTP258	ltpFR2	7	n/a	n/a	n/a	8	13	2	3	8
1213.496	n/a	PROB	606748	n/a	LTP258	ltpFR2	7	n/a	n/a	n/a	8	6	3	1	2
1214.428	n/a	PROB	607214	n/a	LTP258	ltpFR2	7	n/a	n/a	n/a	8	12	3	6	3
1215.676	n/a	PROB	607838	n/a	LTP258	ltpFR2	7	n/a	n/a	n/a	8	17	7	2	8
1217.072	n/a	PROB	608536	n/a	LTP258	ltpFR2	7	n/a	n/a	n/a	8	5	2	1	2
1217.988	n/a	PROB	608994	n/a	LTP258	ltpFR2	7	n/a	n/a	n/a	8	18	9	1	8
1218.97	n/a	PROB	609485	n/a	LTP258	ltpFR2	7	n/a	n/a	n/a	8	12	1	5	6
1220.352	n/a	PROB	610176	n/a	LTP258	ltpFR2	7	n/a	n/a	n/a	8	13	2	9	2
1221.568	n/a	PROB	610784	n/a	LTP258	ltpFR2	7	n/a	n/a	n/a	8	14	4	3	7
1222.482	n/a	STOP	611241	n/a	LTP258	ltpFR2	7	n/a	n/a	n/a	8	n/a	n/a	n/a	n/a
1225.744	n/a	REC_START	612872	n/a	LTP258	ltpFR2	7	5	n/a	n/a	n/a	n/a	0	0	0
1230.852	n/a	REC_WORD	615426	wordpools/wasnorm_wordpool_576.txt	LTP258	ltpFR2	7	5	BEAKER	104	n/a	n/a	0	0	0
1231.692	n/a	REC_WORD	615846	wordpools/wasnorm_wordpool_576.txt	LTP258	ltpFR2	7	5	CUSTARD	429	n/a	n/a	0	0	0
1232.758	n/a	REC_WORD	616379	wordpools/wasnorm_wordpool_576.txt	LTP258	ltpFR2	7	5	VIRUS	1572	n/a	n/a	0	0	0
1233.928	n/a	REC_WORD	616964	wordpools/wasnorm_wordpool_576.txt	LTP258	ltpFR2	7	5	CHAMPAGNE	278	n/a	n/a	0	0	0
1241.932	n/a	REC_WORD	620966	wordpools/wasnorm_wordpool_576.txt	LTP258	ltpFR2	7	5	CLOUD	328	n/a	n/a	0	0	0
1242.786	n/a	REC_WORD	621393	wordpools/wasnorm_wordpool_576.txt	LTP258	ltpFR2	7	5	JUGGLER	763	n/a	n/a	0	0	0
1243.528	n/a	REC_WORD	621764	wordpools/wasnorm_wordpool_576.txt	LTP258	ltpFR2	7	5	GYMNAST	675	n/a	n/a	0	0	0
1244.426	n/a	REC_WORD	622213	wordpools/wasnorm_wordpool_576.txt	LTP258	ltpFR2	7	5	TAXI	1438	n/a	n/a	0	0	0
1245.092	n/a	REC_WORD	622546	wordpools/wasnorm_wordpool_576.txt	LTP258	ltpFR2	7	5	HARP	689	n/a	n/a	0	0	0
1248.49	n/a	REC_WORD	624245	wordpools/wasnorm_wordpool_576.txt	LTP258	ltpFR2	7	5	CRUTCH	417	n/a	n/a	0	0	0
1249.262	n/a	REC_WORD	624631	wordpools/wasnorm_wordpool_576.txt	LTP258	ltpFR2	7	5	SHOULDER	1294	n/a	n/a	0	0	0
1250.834	n/a	REC_WORD	625417	wordpools/wasnorm_wordpool_576.txt	LTP258	ltpFR2	7	5	SPHINX	1349	n/a	n/a	0	0	0
1252.91	n/a	REC_WORD	626455	wordpools/wasnorm_wordpool_576.txt	LTP258	ltpFR2	7	5	SCRIBBLE	1256	n/a	n/a	0	0	0
1254.292	n/a	REC_WORD	627146	wordpools/wasnorm_wordpool_576.txt	LTP258	ltpFR2	7	5	PICTURE	1061	n/a	n/a	0	0	0
1259.194	n/a	REC_WORD	629597	wordpools/wasnorm_wordpool_576.txt	LTP258	ltpFR2	7	5	COOKBOOK	373	n/a	n/a	0	0	0
1296.06	n/a	REC_WORD	648030	wordpools/wasnorm_wordpool_576.txt	LTP258	ltpFR2	7	5	TUNNEL	1519	n/a	n/a	0	0	0
1297.056	n/a	REC_WORD	648528	wordpools/wasnorm_wordpool_576.txt	LTP258	ltpFR2	7	5	ARMY	39	n/a	n/a	0	0	0
1316.378	n/a	DISTRACTOR	658189	n/a	LTP258	ltpFR2	7	6	n/a	n/a	n/a	n/a	0	0	0
1316.378	n/a	START	658189	n/a	LTP258	ltpFR2	7	n/a	n/a	n/a	9	n/a	n/a	n/a	n/a
1316.412	n/a	PROB	658206	n/a	LTP258	ltpFR2	7	n/a	n/a	n/a	9	13	3	6	7
1317.492	n/a	PROB	658746	n/a	LTP258	ltpFR2	7	n/a	n/a	n/a	9	13	7	3	3
1318.856	n/a	PROB	659428	n/a	LTP258	ltpFR2	7	n/a	n/a	n/a	9	22	7	9	6
1320.904	n/a	PROB	660452	n/a	LTP258	ltpFR2	7	n/a	n/a	n/a	9	15	2	8	5
1322.052	n/a	PROB	661026	n/a	LTP258	ltpFR2	7	n/a	n/a	n/a	9	18	5	5	8
1322.934	n/a	PROB	661467	n/a	LTP258	ltpFR2	7	n/a	n/a	n/a	9	22	8	8	6
1324.848	n/a	PROB	662424	n/a	LTP258	ltpFR2	7	n/a	n/a	n/a	9	11	3	3	5
1326.078	n/a	PROB	663039	n/a	LTP258	ltpFR2	7	n/a	n/a	n/a	9	14	3	8	3
1327.362	n/a	PROB	663681	n/a	LTP258	ltpFR2	7	n/a	n/a	n/a	9	8	4	1	3
1328.56	n/a	PROB	664280	n/a	LTP258	ltpFR2	7	n/a	n/a	n/a	9	8	5	2	1
1329.374	n/a	PROB	664687	n/a	LTP258	ltpFR2	7	n/a	n/a	n/a	9	9	3	3	1
1330.54	n/a	PROB	665270	n/a	LTP258	ltpFR2	7	n/a	n/a	n/a	9	19	8	7	4
1333.584	n/a	PROB	666792	n/a	LTP258	ltpFR2	7	n/a	n/a	n/a	9	17	1	8	8
1334.882	n/a	PROB	667441	n/a	LTP258	ltpFR2	7	n/a	n/a	n/a	9	17	8	5	4
1336.298	n/a	PROB	668149	n/a	LTP258	ltpFR2	7	n/a	n/a	n/a	9	9	2	2	5
1337.778	n/a	PROB	668889	n/a	LTP258	ltpFR2	7	n/a	n/a	n/a	9	17	9	7	1
1338.988	n/a	STOP	669494	n/a	LTP258	ltpFR2	7	n/a	n/a	n/a	9	n/a	n/a	n/a	n/a
1341.258	n/a	WORD	670629	wordpools/wasnorm_wordpool_576.txt	LTP258	ltpFR2	7	6	DENTIST	447	n/a	n/a	0	0	0
1343.77	n/a	WORD	671885	wordpools/wasnorm_wordpool_576.txt	LTP258	ltpFR2	7	6	PECAN	1036	n/a	n/a	0	0	0
1346.582	n/a	WORD	673291	wordpools/wasnorm_wordpool_576.txt	LTP258	ltpFR2	7	6	SUBWAY	1400	n/a	n/a	0	0	0
1349.346	n/a	WORD	674673	wordpools/wasnorm_wordpool_576.txt	LTP258	ltpFR2	7	6	ARM	38	n/a	n/a	0	0	0
1351.824	n/a	WORD	675912	wordpools/wasnorm_wordpool_576.txt	LTP258	ltpFR2	7	6	GRAPE	654	n/a	n/a	0	0	0
1354.47	n/a	WORD	677235	wordpools/wasnorm_wordpool_576.txt	LTP258	ltpFR2	7	6	SNAKE	1333	n/a	n/a	0	0	0
1357.232	n/a	WORD	678616	wordpools/wasnorm_wordpool_576.txt	LTP258	ltpFR2	7	6	CONVICT	371	n/a	n/a	0	0	0
1359.712	n/a	WORD	679856	wordpools/wasnorm_wordpool_576.txt	LTP258	ltpFR2	7	6	FARMER	553	n/a	n/a	0	0	0
1362.442	n/a	WORD	681221	wordpools/wasnorm_wordpool_576.txt	LTP258	ltpFR2	7	6	COUNTRY	388	n/a	n/a	0	0	0
1365.02	n/a	WORD	682510	wordpools/wasnorm_wordpool_576.txt	LTP258	ltpFR2	7	6	LIZARD	834	n/a	n/a	0	0	0
1367.518	n/a	WORD	683759	wordpools/wasnorm_wordpool_576.txt	LTP258	ltpFR2	7	6	CASHEW	253	n/a	n/a	0	0	0
1369.946	n/a	WORD	684973	wordpools/wasnorm_wordpool_576.txt	LTP258	ltpFR2	7	6	BACKBONE	66	n/a	n/a	0	0	0
1372.478	n/a	WORD	686239	wordpools/wasnorm_wordpool_576.txt	LTP258	ltpFR2	7	6	MARROW	872	n/a	n/a	0	0	0
1374.956	n/a	WORD	687478	wordpools/wasnorm_wordpool_576.txt	LTP258	ltpFR2	7	6	QUAIL	1147	n/a	n/a	0	0	0
1377.72	n/a	WORD	688860	wordpools/wasnorm_wordpool_576.txt	LTP258	ltpFR2	7	6	KNIFE	785	n/a	n/a	0	0	0
1380.284	n/a	WORD	690142	wordpools/wasnorm_wordpool_576.txt	LTP258	ltpFR2	7	6	VELVET	1555	n/a	n/a	0	0	0
1382.928	n/a	WORD	691464	wordpools/wasnorm_wordpool_576.txt	LTP258	ltpFR2	7	6	JEANS	752	n/a	n/a	0	0	0
1385.376	n/a	WORD	692688	wordpools/wasnorm_wordpool_576.txt	LTP258	ltpFR2	7	6	DENIM	446	n/a	n/a	0	0	0
1387.954	n/a	WORD	693977	wordpools/wasnorm_wordpool_576.txt	LTP258	ltpFR2	7	6	XEROX	1628	n/a	n/a	0	0	0
1390.616	n/a	WORD	695308	wordpools/wasnorm_wordpool_576.txt	LTP258	ltpFR2	7	6	PERCH	1048	n/a	n/a	0	0	0
1393.448	n/a	WORD	696724	wordpools/wasnorm_wordpool_576.txt	LTP258	ltpFR2	7	6	PARSLEY	1016	n/a	n/a	0	0	0
1396.058	n/a	WORD	698029	wordpools/wasnorm_wordpool_576.txt	LTP258	ltpFR2	7	6	SCALPEL	1243	n/a	n/a	0	0	0
1398.572	n/a	WORD	699286	wordpools/wasnorm_wordpool_576.txt	LTP258	ltpFR2	7	6	MARKER	870	n/a	n/a	0	0	0
1401.218	n/a	WORD	700609	wordpools/wasnorm_wordpool_576.txt	LTP258	ltpFR2	7	6	PIGMENT	1066	n/a	n/a	0	0	0
1402.832	n/a	START	701416	n/a	LTP258	ltpFR2	7	n/a	n/a	n/a	10	n/a	n/a	n/a	n/a
1403.714	n/a	DISTRACTOR	701857	n/a	LTP258	ltpFR2	7	6	n/a	n/a	n/a	n/a	0	0	0
1403.73	n/a	PROB	701865	n/a	LTP258	ltpFR2	7	n/a	n/a	n/a	10	23	8	6	9
1405.496	n/a	PROB	702748	n/a	LTP258	ltpFR2	7	n/a	n/a	n/a	10	7	1	1	5
1406.41	n/a	PROB	703205	n/a	LTP258	ltpFR2	7	n/a	n/a	n/a	10	18	5	8	2
1408.542	n/a	PROB	704271	n/a	LTP258	ltpFR2	7	n/a	n/a	n/a	10	10	4	3	3
1410.388	n/a	PROB	705194	n/a	LTP258	ltpFR2	7	n/a	n/a	n/a	10	9	3	3	3
1411.32	n/a	PROB	705660	n/a	LTP258	ltpFR2	7	n/a	n/a	n/a	10	8	4	1	3
1413.066	n/a	PROB	706533	n/a	LTP258	ltpFR2	7	n/a	n/a	n/a	10	22	9	7	6
1414.548	n/a	PROB	707274	n/a	LTP258	ltpFR2	7	n/a	n/a	n/a	10	17	7	1	9
1415.696	n/a	PROB	707848	n/a	LTP258	ltpFR2	7	n/a	n/a	n/a	10	21	7	5	9
1418.226	n/a	PROB	709113	n/a	LTP258	ltpFR2	7	n/a	n/a	n/a	10	16	6	2	8
1419.442	n/a	PROB	709721	n/a	LTP258	ltpFR2	7	n/a	n/a	n/a	10	15	5	9	1
1420.722	n/a	PROB	710361	n/a	LTP258	ltpFR2	7	n/a	n/a	n/a	10	24	8	8	8
1421.904	n/a	PROB	710952	n/a	LTP258	ltpFR2	7	n/a	n/a	n/a	10	16	5	8	3
1423.252	n/a	PROB	711626	n/a	LTP258	ltpFR2	7	n/a	n/a	n/a	10	9	3	4	2
1425.478	n/a	STOP	712739	n/a	LTP258	ltpFR2	7	n/a	n/a	n/a	10	n/a	n/a	n/a	n/a
1428.71	n/a	REC_START	714355	n/a	LTP258	ltpFR2	7	6	n/a	n/a	n/a	n/a	0	0	0
1432.274	n/a	REC_WORD	716137	wordpools/wasnorm_wordpool_576.txt	LTP258	ltpFR2	7	6	PARSLEY	1016	n/a	n/a	0	0	0
1433.116	n/a	REC_WORD	716558	wordpools/wasnorm_wordpool_576.txt	LTP258	ltpFR2	7	6	CASHEW	253	n/a	n/a	0	0	0
1435.564	n/a	REC_WORD	717782	wordpools/wasnorm_wordpool_576.txt	LTP258	ltpFR2	7	6	GRAPE	654	n/a	n/a	0	0	0
1440.394	n/a	REC_WORD	720197	wordpools/wasnorm_wordpool_576.txt	LTP258	ltpFR2	7	6	COUNTRY	388	n/a	n/a	0	0	0
1444.21	n/a	REC_WORD	722105	wordpools/wasnorm_wordpool_576.txt	LTP258	ltpFR2	7	6	DENTIST	447	n/a	n/a	0	0	0
1445.03	n/a	REC_WORD	722515	wordpools/wasnorm_wordpool_576.txt	LTP258	ltpFR2	7	6	FARMER	553	n/a	n/a	0	0	0
1447.594	n/a	REC_WORD	723797	wordpools/wasnorm_wordpool_576.txt	LTP258	ltpFR2	7	6	JEANS	752	n/a	n/a	0	0	0
1448.672	n/a	REC_WORD	724336	wordpools/wasnorm_wordpool_576.txt	LTP258	ltpFR2	7	6	DENIM	446	n/a	n/a	0	0	0
1452.132	n/a	REC_WORD	726066	wordpools/wasnorm_wordpool_576.txt	LTP258	ltpFR2	7	6	ARM	38	n/a	n/a	0	0	0
1519.36	n/a	DISTRACTOR	759680	n/a	LTP258	ltpFR2	7	7	n/a	n/a	n/a	n/a	0	0	0
1519.36	n/a	START	759680	n/a	LTP258	ltpFR2	7	n/a	n/a	n/a	11	n/a	n/a	n/a	n/a
1519.394	n/a	PROB	759697	n/a	LTP258	ltpFR2	7	n/a	n/a	n/a	11	22	6	8	6
1520.756	n/a	PROB	760378	n/a	LTP258	ltpFR2	7	n/a	n/a	n/a	11	26	9	8	9
1524.052	n/a	PROB	762026	n/a	LTP258	ltpFR2	7	n/a	n/a	n/a	11	6	3	1	2
1525.15	n/a	PROB	762575	n/a	LTP258	ltpFR2	7	n/a	n/a	n/a	11	19	6	6	7
1527.014	n/a	PROB	763507	n/a	LTP258	ltpFR2	7	n/a	n/a	n/a	11	15	2	3	5
1528.18	n/a	PROB	764090	n/a	LTP258	ltpFR2	7	n/a	n/a	n/a	11	25	7	9	8
1530.792	n/a	PROB	765396	n/a	LTP258	ltpFR2	7	n/a	n/a	n/a	11	15	4	4	7
1533.29	n/a	PROB	766645	n/a	LTP258	ltpFR2	7	n/a	n/a	n/a	11	16	7	3	6
1534.456	n/a	PROB	767228	n/a	LTP258	ltpFR2	7	n/a	n/a	n/a	11	12	7	4	1
1535.504	n/a	PROB	767752	n/a	LTP258	ltpFR2	7	n/a	n/a	n/a	11	16	3	5	8
1536.584	n/a	PROB	768292	n/a	LTP258	ltpFR2	7	n/a	n/a	n/a	11	3	1	1	1
1537.384	n/a	PROB	768692	n/a	LTP258	ltpFR2	7	n/a	n/a	n/a	11	1	6	5	3
1539.098	n/a	PROB	769549	n/a	LTP258	ltpFR2	7	n/a	n/a	n/a	11	12	5	5	2
1543.36	n/a	STOP	771680	n/a	LTP258	ltpFR2	7	n/a	n/a	n/a	11	n/a	n/a	n/a	n/a
1544.308	n/a	WORD	772154	wordpools/wasnorm_wordpool_576.txt	LTP258	ltpFR2	7	7	EXPERT	543	n/a	n/a	0	0	0
1546.786	n/a	WORD	773393	wordpools/wasnorm_wordpool_576.txt	LTP258	ltpFR2	7	7	BROTHER	179	n/a	n/a	0	0	0
1549.582	n/a	WORD	774791	wordpools/wasnorm_wordpool_576.txt	LTP258	ltpFR2	7	7	RELISH	1183	n/a	n/a	0	0	0
1552.21	n/a	WORD	776105	wordpools/wasnorm_wordpool_576.txt	LTP258	ltpFR2	7	7	TUBA	1515	n/a	n/a	0	0	0
1554.708	n/a	WORD	777354	wordpools/wasnorm_wordpool_576.txt	LTP258	ltpFR2	7	7	HUSBAND	728	n/a	n/a	0	0	0
1557.37	n/a	WORD	778685	wordpools/wasnorm_wordpool_576.txt	LTP258	ltpFR2	7	7	CRICKET	408	n/a	n/a	0	0	0
1559.882	n/a	WORD	779941	wordpools/wasnorm_wordpool_576.txt	LTP258	ltpFR2	7	7	BOUQUET	157	n/a	n/a	0	0	0
1562.564	n/a	WORD	781282	wordpools/wasnorm_wordpool_576.txt	LTP258	ltpFR2	7	7	SHORTS	1293	n/a	n/a	0	0	0
1565.242	n/a	WORD	782621	wordpools/wasnorm_wordpool_576.txt	LTP258	ltpFR2	7	7	LADY	794	n/a	n/a	0	0	0
1567.804	n/a	WORD	783902	wordpools/wasnorm_wordpool_576.txt	LTP258	ltpFR2	7	7	HAMPER	682	n/a	n/a	0	0	0
1570.368	n/a	WORD	785184	wordpools/wasnorm_wordpool_576.txt	LTP258	ltpFR2	7	7	LAPEL	800	n/a	n/a	0	0	0
1572.946	n/a	WORD	786473	wordpools/wasnorm_wordpool_576.txt	LTP258	ltpFR2	7	7	LUNCH	849	n/a	n/a	0	0	0
1575.56	n/a	WORD	787780	wordpools/wasnorm_wordpool_576.txt	LTP258	ltpFR2	7	7	PICNIC	1060	n/a	n/a	0	0	0
1578.156	n/a	WORD	789078	wordpools/wasnorm_wordpool_576.txt	LTP258	ltpFR2	7	7	TOASTER	1472	n/a	n/a	0	0	0
1580.884	n/a	WORD	790442	wordpools/wasnorm_wordpool_576.txt	LTP258	ltpFR2	7	7	SOFTBALL	1343	n/a	n/a	0	0	0
1583.398	n/a	WORD	791699	wordpools/wasnorm_wordpool_576.txt	LTP258	ltpFR2	7	7	BLOCKADE	137	n/a	n/a	0	0	0
1586.126	n/a	WORD	793063	wordpools/wasnorm_wordpool_576.txt	LTP258	ltpFR2	7	7	GOBLIN	645	n/a	n/a	0	0	0
1588.824	n/a	WORD	794412	wordpools/wasnorm_wordpool_576.txt	LTP258	ltpFR2	7	7	COSTUME	383	n/a	n/a	0	0	0
1591.404	n/a	WORD	795702	wordpools/wasnorm_wordpool_576.txt	LTP258	ltpFR2	7	7	RUST	1219	n/a	n/a	0	0	0
1593.998	n/a	WORD	796999	wordpools/wasnorm_wordpool_576.txt	LTP258	ltpFR2	7	7	SCULPTURE	1258	n/a	n/a	0	0	0
1596.58	n/a	WORD	798290	wordpools/wasnorm_wordpool_576.txt	LTP258	ltpFR2	7	7	MEDAL	885	n/a	n/a	0	0	0
1599.308	n/a	WORD	799654	wordpools/wasnorm_wordpool_576.txt	LTP258	ltpFR2	7	7	MARINE	869	n/a	n/a	0	0	0
1602.02	n/a	WORD	801010	wordpools/wasnorm_wordpool_576.txt	LTP258	ltpFR2	7	7	BROOK	177	n/a	n/a	0	0	0
1604.518	n/a	WORD	802259	wordpools/wasnorm_wordpool_576.txt	LTP258	ltpFR2	7	7	DRAWING	494	n/a	n/a	0	0	0
1606.132	n/a	START	803066	n/a	LTP258	ltpFR2	7	n/a	n/a	n/a	12	n/a	n/a	n/a	n/a
1607.006	n/a	DISTRACTOR	803503	n/a	LTP258	ltpFR2	7	7	n/a	n/a	n/a	n/a	0	0	0
1607.014	n/a	PROB	803507	n/a	LTP258	ltpFR2	7	n/a	n/a	n/a	12	8	2	3	3
1608.396	n/a	PROB	804198	n/a	LTP258	ltpFR2	7	n/a	n/a	n/a	12	15	5	3	7
1609.66	n/a	PROB	804830	n/a	LTP258	ltpFR2	7	n/a	n/a	n/a	12	17	3	6	8
1611.24	n/a	PROB	805620	n/a	LTP258	ltpFR2	7	n/a	n/a	n/a	12	13	1	8	4
1612.872	n/a	PROB	806436	n/a	LTP258	ltpFR2	7	n/a	n/a	n/a	12	18	5	5	8
1613.736	n/a	PROB	806868	n/a	LTP258	ltpFR2	7	n/a	n/a	n/a	12	17	5	6	6
1617.614	n/a	PROB	808807	n/a	LTP258	ltpFR2	7	n/a	n/a	n/a	12	18	4	6	8
1618.58	n/a	PROB	809290	n/a	LTP258	ltpFR2	7	n/a	n/a	n/a	12	5	3	1	1
1619.412	n/a	PROB	809706	n/a	LTP258	ltpFR2	7	n/a	n/a	n/a	12	23	9	7	7
1621.11	n/a	PROB	810555	n/a	LTP258	ltpFR2	7	n/a	n/a	n/a	12	16	5	9	2
1622.756	n/a	PROB	811378	n/a	LTP258	ltpFR2	7	n/a	n/a	n/a	12	12	4	3	5
1624.104	n/a	PROB	812052	n/a	LTP258	ltpFR2	7	n/a	n/a	n/a	12	13	5	4	4
1625.536	n/a	PROB	812768	n/a	LTP258	ltpFR2	7	n/a	n/a	n/a	12	16	7	2	7
1627.45	n/a	PROB	813725	n/a	LTP258	ltpFR2	7	n/a	n/a	n/a	12	19	4	3	2
1629.344	n/a	STOP	814672	n/a	LTP258	ltpFR2	7	n/a	n/a	n/a	12	n/a	n/a	n/a	n/a
1631.91	n/a	REC_START	815955	n/a	LTP258	ltpFR2	7	7	n/a	n/a	n/a	n/a	0	0	0
1634.382	n/a	REC_WORD	817191	wordpools/wasnorm_wordpool_576.txt	LTP258	ltpFR2	7	7	MARINE	869	n/a	n/a	0	0	0
1635.332	n/a	REC_WORD	817666	wordpools/wasnorm_wordpool_576.txt	LTP258	ltpFR2	7	7	MEDAL	885	n/a	n/a	0	0	0
1637.27	n/a	REC_WORD	818635	wordpools/wasnorm_wordpool_576.txt	LTP258	ltpFR2	7	7	GOBLIN	645	n/a	n/a	0	0	0
1638.328	n/a	REC_WORD	819164	wordpools/wasnorm_wordpool_576.txt	LTP258	ltpFR2	7	7	COSTUME	383	n/a	n/a	0	0	0
1639.442	n/a	REC_WORD	819721	wordpools/wasnorm_wordpool_576.txt	LTP258	ltpFR2	7	7	LADY	794	n/a	n/a	0	0	0
1640.406	n/a	REC_WORD	820203	wordpools/wasnorm_wordpool_576.txt	LTP258	ltpFR2	7	7	LUNCH	849	n/a	n/a	0	0	0
1641.328	n/a	REC_WORD	820664	wordpools/wasnorm_wordpool_576.txt	LTP258	ltpFR2	7	7	PICNIC	1060	n/a	n/a	0	0	0
1644.158	n/a	REC_WORD	822079	wordpools/wasnorm_wordpool_576.txt	LTP258	ltpFR2	7	7	SCULPTURE	1258	n/a	n/a	0	0	0
1647.788	n/a	REC_WORD	823894	wordpools/wasnorm_wordpool_576.txt	LTP258	ltpFR2	7	7	TOASTER	1472	n/a	n/a	0	0	0
1657.888	n/a	REC_WORD	828944	wordpools/wasnorm_wordpool_576.txt	LTP258	ltpFR2	7	7	BROTHER	179	n/a	n/a	0	0	0
1658.754	n/a	REC_WORD	829377	wordpools/wasnorm_wordpool_576.txt	LTP258	ltpFR2	7	7	EXPERT	543	n/a	n/a	0	0	0
1659.578	n/a	REC_WORD	829789	wordpools/wasnorm_wordpool_576.txt	LTP258	ltpFR2	7	7	RELISH	1183	n/a	n/a	0	0	0
1660.552	n/a	REC_WORD	830276	wordpools/wasnorm_wordpool_576.txt	LTP258	ltpFR2	7	7	TUBA	1515	n/a	n/a	0	0	0
1661.508	n/a	REC_WORD	830754	wordpools/wasnorm_wordpool_576.txt	LTP258	ltpFR2	7	7	HUSBAND	728	n/a	n/a	0	0	0
1665.956	n/a	REC_WORD	832978	wordpools/wasnorm_wordpool_576.txt	LTP258	ltpFR2	7	7	BOUQUET	157	n/a	n/a	0	0	0
1667.052	n/a	REC_WORD	833526	wordpools/wasnorm_wordpool_576.txt	LTP258	ltpFR2	7	7	CRICKET	408	n/a	n/a	0	0	0
1722.56	n/a	DISTRACTOR	861280	n/a	LTP258	ltpFR2	7	8	n/a	n/a	n/a	n/a	0	0	0
1722.56	n/a	START	861280	n/a	LTP258	ltpFR2	7	n/a	n/a	n/a	13	n/a	n/a	n/a	n/a
1722.592	n/a	PROB	861296	n/a	LTP258	ltpFR2	7	n/a	n/a	n/a	13	14	8	5	1
1724.124	n/a	PROB	862062	n/a	LTP258	ltpFR2	7	n/a	n/a	n/a	13	16	7	6	3
1726.438	n/a	PROB	863219	n/a	LTP258	ltpFR2	7	n/a	n/a	n/a	13	14	9	1	4
1727.75	n/a	PROB	863875	n/a	LTP258	ltpFR2	7	n/a	n/a	n/a	13	22	7	6	9
1729.332	n/a	PROB	864666	n/a	LTP258	ltpFR2	7	n/a	n/a	n/a	13	18	8	7	3
1730.514	n/a	PROB	865257	n/a	LTP258	ltpFR2	7	n/a	n/a	n/a	13	10	1	8	1
1731.58	n/a	PROB	865790	n/a	LTP258	ltpFR2	7	n/a	n/a	n/a	13	13	5	3	5
1732.528	n/a	PROB	866264	n/a	LTP258	ltpFR2	7	n/a	n/a	n/a	13	12	3	4	5
1734.174	n/a	PROB	867087	n/a	LTP258	ltpFR2	7	n/a	n/a	n/a	13	14	3	4	7
1735.906	n/a	PROB	867953	n/a	LTP258	ltpFR2	7	n/a	n/a	n/a	13	16	6	6	4
1737.186	n/a	PROB	868593	n/a	LTP258	ltpFR2	7	n/a	n/a	n/a	13	11	7	3	1
1738.136	n/a	PROB	869068	n/a	LTP258	ltpFR2	7	n/a	n/a	n/a	13	19	8	9	2
1739.1	n/a	PROB	869550	n/a	LTP258	ltpFR2	7	n/a	n/a	n/a	13	11	4	6	1
1739.95	n/a	PROB	869975	n/a	LTP258	ltpFR2	7	n/a	n/a	n/a	13	16	9	2	5
1741.864	n/a	PROB	870932	n/a	LTP258	ltpFR2	7	n/a	n/a	n/a	13	17	4	5	8
1742.994	n/a	PROB	871497	n/a	LTP258	ltpFR2	7	n/a	n/a	n/a	13	11	6	1	4
1744.176	n/a	PROB	872088	n/a	LTP258	ltpFR2	7	n/a	n/a	n/a	13	15	3	9	3
1745.616	n/a	STOP	872808	n/a	LTP258	ltpFR2	7	n/a	n/a	n/a	13	n/a	n/a	n/a	n/a
1747.54	n/a	WORD	873770	wordpools/wasnorm_wordpool_576.txt	LTP258	ltpFR2	7	8	SEAGULL	1261	n/a	n/a	0	0	0
1750.05	n/a	WORD	875025	wordpools/wasnorm_wordpool_576.txt	LTP258	ltpFR2	7	8	HAWK	692	n/a	n/a	0	0	0
1752.648	n/a	WORD	876324	wordpools/wasnorm_wordpool_576.txt	LTP258	ltpFR2	7	8	BUG	187	n/a	n/a	0	0	0
1755.46	n/a	WORD	877730	wordpools/wasnorm_wordpool_576.txt	LTP258	ltpFR2	7	8	MILK	895	n/a	n/a	0	0	0
1757.906	n/a	WORD	878953	wordpools/wasnorm_wordpool_576.txt	LTP258	ltpFR2	7	8	RUG	1215	n/a	n/a	0	0	0
1760.354	n/a	WORD	880177	wordpools/wasnorm_wordpool_576.txt	LTP258	ltpFR2	7	8	PASTRY	1022	n/a	n/a	0	0	0
1762.882	n/a	WORD	881441	wordpools/wasnorm_wordpool_576.txt	LTP258	ltpFR2	7	8	STAR	1373	n/a	n/a	0	0	0
1765.646	n/a	WORD	882823	wordpools/wasnorm_wordpool_576.txt	LTP258	ltpFR2	7	8	BULLET	194	n/a	n/a	0	0	0
1768.076	n/a	WORD	884038	wordpools/wasnorm_wordpool_576.txt	LTP258	ltpFR2	7	8	BEEF	113	n/a	n/a	0	0	0
1770.87	n/a	WORD	885435	wordpools/wasnorm_wordpool_576.txt	LTP258	ltpFR2	7	8	SPONGE	1355	n/a	n/a	0	0	0
1773.684	n/a	WORD	886842	wordpools/wasnorm_wordpool_576.txt	LTP258	ltpFR2	7	8	ISLAND	745	n/a	n/a	0	0	0
1776.264	n/a	WORD	888132	wordpools/wasnorm_wordpool_576.txt	LTP258	ltpFR2	7	8	ICING	732	n/a	n/a	0	0	0
1778.792	n/a	WORD	889396	wordpools/wasnorm_wordpool_576.txt	LTP258	ltpFR2	7	8	SCALLOP	1242	n/a	n/a	0	0	0
1781.422	n/a	WORD	890711	wordpools/wasnorm_wordpool_576.txt	LTP258	ltpFR2	7	8	COUSIN	392	n/a	n/a	0	0	0
1784.168	n/a	WORD	892084	wordpools/wasnorm_wordpool_576.txt	LTP258	ltpFR2	7	8	GROUND	666	n/a	n/a	0	0	0
1786.946	n/a	WORD	893473	wordpools/wasnorm_wordpool_576.txt	LTP258	ltpFR2	7	8	SNACK	1331	n/a	n/a	0	0	0
1789.626	n/a	WORD	894813	wordpools/wasnorm_wordpool_576.txt	LTP258	ltpFR2	7	8	JELLY	755	n/a	n/a	0	0	0
1792.406	n/a	WORD	896203	wordpools/wasnorm_wordpool_576.txt	LTP258	ltpFR2	7	8	CLAMP	316	n/a	n/a	0	0	0
1794.952	n/a	WORD	897476	wordpools/wasnorm_wordpool_576.txt	LTP258	ltpFR2	7	8	WAGON	1578	n/a	n/a	0	0	0
1797.68	n/a	WORD	898840	wordpools/wasnorm_wordpool_576.txt	LTP258	ltpFR2	7	8	PUDDING	1139	n/a	n/a	0	0	0
1800.226	n/a	WORD	900113	wordpools/wasnorm_wordpool_576.txt	LTP258	ltpFR2	7	8	STREAM	1392	n/a	n/a	0	0	0
1802.874	n/a	WORD	901437	wordpools/wasnorm_wordpool_576.txt	LTP258	ltpFR2	7	8	VALVE	1546	n/a	n/a	0	0	0
1805.388	n/a	WORD	902694	wordpools/wasnorm_wordpool_576.txt	LTP258	ltpFR2	7	8	QUEEN	1149	n/a	n/a	0	0	0
1808.016	n/a	WORD	904008	wordpools/wasnorm_wordpool_576.txt	LTP258	ltpFR2	7	8	OUTLAW	989	n/a	n/a	0	0	0
1809.63	n/a	START	904815	n/a	LTP258	ltpFR2	7	n/a	n/a	n/a	14	n/a	n/a	n/a	n/a
1810.486	n/a	DISTRACTOR	905243	n/a	LTP258	ltpFR2	7	8	n/a	n/a	n/a	n/a	0	0	0
1810.496	n/a	PROB	905248	n/a	LTP258	ltpFR2	7	n/a	n/a	n/a	14	11	2	6	3
1812.46	n/a	PROB	906230	n/a	LTP258	ltpFR2	7	n/a	n/a	n/a	14	20	5	8	7
1814.09	n/a	PROB	907045	n/a	LTP258	ltpFR2	7	n/a	n/a	n/a	14	8	4	3	1
1815.438	n/a	PROB	907719	n/a	LTP258	ltpFR2	7	n/a	n/a	n/a	14	16	6	8	2
1816.986	n/a	PROB	908493	n/a	LTP258	ltpFR2	7	n/a	n/a	n/a	14	11	4	5	2
1818.284	n/a	PROB	909142	n/a	LTP258	ltpFR2	7	n/a	n/a	n/a	14	6	2	3	1
1819.266	n/a	PROB	909633	n/a	LTP258	ltpFR2	7	n/a	n/a	n/a	14	22	6	9	9
1822.028	n/a	PROB	911014	n/a	LTP258	ltpFR2	7	n/a	n/a	n/a	14	14	3	6	5
1825.224	n/a	PROB	912612	n/a	LTP258	ltpFR2	7	n/a	n/a	n/a	14	13	8	4	1
1827.02	n/a	PROB	913510	n/a	LTP258	ltpFR2	7	n/a	n/a	n/a	14	10	1	5	4
1828.27	n/a	PROB	914135	n/a	LTP258	ltpFR2	7	n/a	n/a	n/a	14	12	5	4	3
1829.6	n/a	PROB	914800	n/a	LTP258	ltpFR2	7	n/a	n/a	n/a	14	19	2	5	2
1830.864	n/a	PROB	915432	n/a	LTP258	ltpFR2	7	n/a	n/a	n/a	14	12	4	2	6
1833.484	n/a	STOP	916742	n/a	LTP258	ltpFR2	7	n/a	n/a	n/a	14	n/a	n/a	n/a	n/a
1835.476	n/a	REC_START	917738	n/a	LTP258	ltpFR2	7	8	n/a	n/a	n/a	n/a	0	0	0
1840.868	n/a	REC_WORD	920434	wordpools/wasnorm_wordpool_576.txt	LTP258	ltpFR2	7	8	QUEEN	1149	n/a	n/a	0	0	0
1841.65	n/a	REC_WORD	920825	wordpools/wasnorm_wordpool_576.txt	LTP258	ltpFR2	7	8	VALVE	1546	n/a	n/a	0	0	0
1843.888	n/a	REC_WORD	921944	wordpools/wasnorm_wordpool_576.txt	LTP258	ltpFR2	7	8	OUTLAW	989	n/a	n/a	0	0	0
1846.714	n/a	REC_WORD	923357	wordpools/wasnorm_wordpool_576.txt	LTP258	ltpFR2	7	8	COUSIN	392	n/a	n/a	0	0	0
1848.95	n/a	REC_WORD	924475	wordpools/wasnorm_wordpool_576.txt	LTP258	ltpFR2	7	8	ISLAND	745	n/a	n/a	0	0	0
1849.728	n/a	REC_WORD	924864	wordpools/wasnorm_wordpool_576.txt	LTP258	ltpFR2	7	8	SNACK	1331	n/a	n/a	0	0	0
1850.794	n/a	REC_WORD	925397	wordpools/wasnorm_wordpool_576.txt	LTP258	ltpFR2	7	8	PUDDING	1139	n/a	n/a	0	0	0
1853.278	n/a	REC_WORD	926639	wordpools/wasnorm_wordpool_576.txt	LTP258	ltpFR2	7	8	JELLY	755	n/a	n/a	0	0	0
1854.412	n/a	REC_WORD	927206	wordpools/wasnorm_wordpool_576.txt	LTP258	ltpFR2	7	8	ICING	732	n/a	n/a	0	0	0
1855.744	n/a	REC_WORD	927872	wordpools/wasnorm_wordpool_576.txt	LTP258	ltpFR2	7	8	PASTRY	1022	n/a	n/a	0	0	0
1856.784	n/a	REC_WORD	928392	wordpools/wasnorm_wordpool_576.txt	LTP258	ltpFR2	7	8	MILK	895	n/a	n/a	0	0	0
1860.788	n/a	REC_WORD	930394	wordpools/wasnorm_wordpool_576.txt	LTP258	ltpFR2	7	8	RUG	1215	n/a	n/a	0	0	0
1865.074	n/a	REC_WORD	932537	wordpools/wasnorm_wordpool_576.txt	LTP258	ltpFR2	7	8	SEAGULL	1261	n/a	n/a	0	0	0
1866.208	n/a	REC_WORD	933104	wordpools/wasnorm_wordpool_576.txt	LTP258	ltpFR2	7	8	HAWK	692	n/a	n/a	0	0	0
1867.494	n/a	REC_WORD	933747	wordpools/wasnorm_wordpool_576.txt	LTP258	ltpFR2	7	8	SCALLOP	1242	n/a	n/a	0	0	0
1870.4	n/a	REC_WORD	935200	wordpools/wasnorm_wordpool_576.txt	LTP258	ltpFR2	7	8	STAR	1373	n/a	n/a	0	0	0
1912.078	n/a	REST_REWET	956039	n/a	LTP258	ltpFR2	7	8	n/a	n/a	n/a	n/a	0	0	0
2354.64	n/a	WORD	1177320	wordpools/wasnorm_wordpool_576.txt	LTP258	ltpFR2	7	9	EUROPE	541	n/a	n/a	0	0	0
2357.454	n/a	WORD	1178727	wordpools/wasnorm_wordpool_576.txt	LTP258	ltpFR2	7	9	SNAIL	1332	n/a	n/a	0	0	0
2360.082	n/a	WORD	1180041	wordpools/wasnorm_wordpool_576.txt	LTP258	ltpFR2	7	9	TILE	1468	n/a	n/a	0	0	0
2362.678	n/a	WORD	1181339	wordpools/wasnorm_wordpool_576.txt	LTP258	ltpFR2	7	9	OMELET	976	n/a	n/a	0	0	0
2365.208	n/a	WORD	1182604	wordpools/wasnorm_wordpool_576.txt	LTP258	ltpFR2	7	9	FRIEND	606	n/a	n/a	0	0	0
2367.772	n/a	WORD	1183886	wordpools/wasnorm_wordpool_576.txt	LTP258	ltpFR2	7	9	PARTNER	1017	n/a	n/a	0	0	0
2370.234	n/a	WORD	1185117	wordpools/wasnorm_wordpool_576.txt	LTP258	ltpFR2	7	9	SUNSET	1408	n/a	n/a	0	0	0
2372.78	n/a	WORD	1186390	wordpools/wasnorm_wordpool_576.txt	LTP258	ltpFR2	7	9	ATLAS	53	n/a	n/a	0	0	0
2375.478	n/a	WORD	1187739	wordpools/wasnorm_wordpool_576.txt	LTP258	ltpFR2	7	9	BRIEFCASE	175	n/a	n/a	0	0	0
2378.156	n/a	WORD	1189078	wordpools/wasnorm_wordpool_576.txt	LTP258	ltpFR2	7	9	GREASE	660	n/a	n/a	0	0	0
2380.834	n/a	WORD	1190417	wordpools/wasnorm_wordpool_576.txt	LTP258	ltpFR2	7	9	BRICK	172	n/a	n/a	0	0	0
2383.348	n/a	WORD	1191674	wordpools/wasnorm_wordpool_576.txt	LTP258	ltpFR2	7	9	MAILBOX	857	n/a	n/a	0	0	0
2385.778	n/a	WORD	1192889	wordpools/wasnorm_wordpool_576.txt	LTP258	ltpFR2	7	9	FRUIT	610	n/a	n/a	0	0	0
2388.342	n/a	WORD	1194171	wordpools/wasnorm_wordpool_576.txt	LTP258	ltpFR2	7	9	SERVER	1272	n/a	n/a	0	0	0
2391.07	n/a	WORD	1195535	wordpools/wasnorm_wordpool_576.txt	LTP258	ltpFR2	7	9	TURNIP	1521	n/a	n/a	0	0	0
2393.816	n/a	WORD	1196908	wordpools/wasnorm_wordpool_576.txt	LTP258	ltpFR2	7	9	CABBAGE	210	n/a	n/a	0	0	0
2396.262	n/a	WORD	1198131	wordpools/wasnorm_wordpool_576.txt	LTP258	ltpFR2	7	9	TRANSPLANT	1496	n/a	n/a	0	0	0
2398.892	n/a	WORD	1199446	wordpools/wasnorm_wordpool_576.txt	LTP258	ltpFR2	7	9	STOMACH	1384	n/a	n/a	0	0	0
2401.604	n/a	WORD	1200802	wordpools/wasnorm_wordpool_576.txt	LTP258	ltpFR2	7	9	PEDAL	1037	n/a	n/a	0	0	0
2404.084	n/a	WORD	1202042	wordpools/wasnorm_wordpool_576.txt	LTP258	ltpFR2	7	9	WAITER	1580	n/a	n/a	0	0	0
2406.596	n/a	WORD	1203298	wordpools/wasnorm_wordpool_576.txt	LTP258	ltpFR2	7	9	OFFICE	972	n/a	n/a	0	0	0
2409.36	n/a	WORD	1204680	wordpools/wasnorm_wordpool_576.txt	LTP258	ltpFR2	7	9	BRAKE	166	n/a	n/a	0	0	0
2411.938	n/a	WORD	1205969	wordpools/wasnorm_wordpool_576.txt	LTP258	ltpFR2	7	9	LIGHTNING	820	n/a	n/a	0	0	0
2414.386	n/a	WORD	1207193	wordpools/wasnorm_wordpool_576.txt	LTP258	ltpFR2	7	9	POSTAGE	1113	n/a	n/a	0	0	0
2416.0	n/a	START	1208000	n/a	LTP258	ltpFR2	7	n/a	n/a	n/a	15	n/a	n/a	n/a	n/a
2417.062	n/a	DISTRACTOR	1208531	n/a	LTP258	ltpFR2	7	9	n/a	n/a	n/a	n/a	0	0	0
2417.064	n/a	PROB	1208532	n/a	LTP258	ltpFR2	7	n/a	n/a	n/a	15	13	6	6	1
2418.962	n/a	PROB	1209481	n/a	LTP258	ltpFR2	7	n/a	n/a	n/a	15	13	8	2	3
2420.142	n/a	PROB	1210071	n/a	LTP258	ltpFR2	7	n/a	n/a	n/a	15	11	5	4	2
2421.358	n/a	PROB	1210679	n/a	LTP258	ltpFR2	7	n/a	n/a	n/a	15	15	6	3	6
2423.322	n/a	PROB	1211661	n/a	LTP258	ltpFR2	7	n/a	n/a	n/a	15	19	8	2	9
2424.47	n/a	PROB	1212235	n/a	LTP258	ltpFR2	7	n/a	n/a	n/a	15	10	5	3	2
2427.466	n/a	PROB	1213733	n/a	LTP258	ltpFR2	7	n/a	n/a	n/a	15	11	7	1	3
2429.712	n/a	PROB	1214856	n/a	LTP258	ltpFR2	7	n/a	n/a	n/a	15	24	7	8	9
2431.31	n/a	PROB	1215655	n/a	LTP258	ltpFR2	7	n/a	n/a	n/a	15	14	1	9	4
2432.292	n/a	PROB	1216146	n/a	LTP258	ltpFR2	7	n/a	n/a	n/a	15	2	6	9	8
2433.69	n/a	PROB	1216845	n/a	LTP258	ltpFR2	7	n/a	n/a	n/a	15	14	5	6	3
2435.686	n/a	PROB	1217843	n/a	LTP258	ltpFR2	7	n/a	n/a	n/a	15	5	1	2	2
2436.586	n/a	PROB	1218293	n/a	LTP258	ltpFR2	7	n/a	n/a	n/a	15	11	4	3	4
2437.834	n/a	PROB	1218917	n/a	LTP258	ltpFR2	7	n/a	n/a	n/a	15	17	6	7	4
2439.308	n/a	STOP	1219654	n/a	LTP258	ltpFR2	7	n/a	n/a	n/a	15	n/a	n/a	n/a	n/a
2441.796	n/a	REC_START	1220898	n/a	LTP258	ltpFR2	7	9	n/a	n/a	n/a	n/a	0	0	0
2445.4	n/a	REC_WORD	1222700	wordpools/wasnorm_wordpool_576.txt	LTP258	ltpFR2	7	9	LIGHTNING	820	n/a	n/a	0	0	0
2452.924	n/a	REC_WORD	1226462	wordpools/wasnorm_wordpool_576.txt	LTP258	ltpFR2	7	9	WAITER	1580	n/a	n/a	0	0	0
2453.504	n/a	REC_WORD	1226752	wordpools/wasnorm_wordpool_576.txt	LTP258	ltpFR2	7	9	SERVER	1272	n/a	n/a	0	0	0
2454.422	n/a	REC_WORD	1227211	wordpools/wasnorm_wordpool_576.txt	LTP258	ltpFR2	7	9	CABBAGE	210	n/a	n/a	0	0	0
2455.404	n/a	REC_WORD	1227702	wordpools/wasnorm_wordpool_576.txt	LTP258	ltpFR2	7	9	TURNIP	1521	n/a	n/a	0	0	0
2456.148	n/a	REC_WORD	1228074	wordpools/wasnorm_wordpool_576.txt	LTP258	ltpFR2	7	9	FRUIT	610	n/a	n/a	0	0	0
2458.402	n/a	REC_WORD	1229201	wordpools/wasnorm_wordpool_576.txt	LTP258	ltpFR2	7	9	PARTNER	1017	n/a	n/a	0	0	0
2459.148	n/a	REC_WORD	1229574	wordpools/wasnorm_wordpool_576.txt	LTP258	ltpFR2	7	9	FRIEND	606	n/a	n/a	0	0	0
2461.756	n/a	REC_WORD	1230878	wordpools/wasnorm_wordpool_576.txt	LTP258	ltpFR2	7	9	SUNSET	1408	n/a	n/a	0	0	0
2463.992	n/a	REC_WORD	1231996	wordpools/wasnorm_wordpool_576.txt	LTP258	ltpFR2	7	9	BRICK	172	n/a	n/a	0	0	0
2465.198	n/a	REC_WORD	1232599	wordpools/wasnorm_wordpool_576.txt	LTP258	ltpFR2	7	9	MAILBOX	857	n/a	n/a	0	0	0
2466.198	n/a	REC_WORD_VV	1233099	wordpools/wasnorm_wordpool_576.txt	LTP258	ltpFR2	7	9	<>	-1	n/a	n/a	0	0	0
2468.964	n/a	REC_WORD	1234482	wordpools/wasnorm_wordpool_576.txt	LTP258	ltpFR2	7	9	GREASE	660	n/a	n/a	0	0	0
2473.35	n/a	REC_WORD	1236675	wordpools/wasnorm_wordpool_576.txt	LTP258	ltpFR2	7	9	OMELET	976	n/a	n/a	0	0	0
2474.824	n/a	REC_WORD	1237412	wordpools/wasnorm_wordpool_576.txt	LTP258	ltpFR2	7	9	TILE	1468	n/a	n/a	0	0	0
2476.292	n/a	REC_WORD	1238146	wordpools/wasnorm_wordpool_576.txt	LTP258	ltpFR2	7	9	SNAIL	1332	n/a	n/a	0	0	0
2477.384	n/a	REC_WORD	1238692	wordpools/wasnorm_wordpool_576.txt	LTP258	ltpFR2	7	9	EUROPE	541	n/a	n/a	0	0	0
2532.444	n/a	WORD	1266222	wordpools/wasnorm_wordpool_576.txt	LTP258	ltpFR2	7	10	KITCHEN	778	n/a	n/a	0	0	0
2534.924	n/a	WORD	1267462	wordpools/wasnorm_wordpool_576.txt	LTP258	ltpFR2	7	10	ROBIN	1199	n/a	n/a	0	0	0
2537.636	n/a	WORD	1268818	wordpools/wasnorm_wordpool_576.txt	LTP258	ltpFR2	7	10	STICKER	1382	n/a	n/a	0	0	0
2540.082	n/a	WORD	1270041	wordpools/wasnorm_wordpool_576.txt	LTP258	ltpFR2	7	10	GARBAGE	622	n/a	n/a	0	0	0
2542.828	n/a	WORD	1271414	wordpools/wasnorm_wordpool_576.txt	LTP258	ltpFR2	7	10	RIFLE	1192	n/a	n/a	0	0	0
2545.342	n/a	WORD	1272671	wordpools/wasnorm_wordpool_576.txt	LTP258	ltpFR2	7	10	FRAGRANCE	599	n/a	n/a	0	0	0
2547.988	n/a	WORD	1273994	wordpools/wasnorm_wordpool_576.txt	LTP258	ltpFR2	7	10	FIDDLE	561	n/a	n/a	0	0	0
2550.484	n/a	WORD	1275242	wordpools/wasnorm_wordpool_576.txt	LTP258	ltpFR2	7	10	SCARF	1246	n/a	n/a	0	0	0
2552.914	n/a	WORD	1276457	wordpools/wasnorm_wordpool_576.txt	LTP258	ltpFR2	7	10	SCARECROW	1245	n/a	n/a	0	0	0
2555.66	n/a	WORD	1277830	wordpools/wasnorm_wordpool_576.txt	LTP258	ltpFR2	7	10	GHETTO	633	n/a	n/a	0	0	0
2558.322	n/a	WORD	1279161	wordpools/wasnorm_wordpool_576.txt	LTP258	ltpFR2	7	10	CARROT	249	n/a	n/a	0	0	0
2560.934	n/a	WORD	1280467	wordpools/wasnorm_wordpool_576.txt	LTP258	ltpFR2	7	10	RABBIT	1152	n/a	n/a	0	0	0
2563.416	n/a	WORD	1281708	wordpools/wasnorm_wordpool_576.txt	LTP258	ltpFR2	7	10	APRON	35	n/a	n/a	0	0	0
2566.144	n/a	WORD	1283072	wordpools/wasnorm_wordpool_576.txt	LTP258	ltpFR2	7	10	BARLEY	88	n/a	n/a	0	0	0
2568.806	n/a	WORD	1284403	wordpools/wasnorm_wordpool_576.txt	LTP258	ltpFR2	7	10	ORANGE	980	n/a	n/a	0	0	0
2571.336	n/a	WORD	1285668	wordpools/wasnorm_wordpool_576.txt	LTP258	ltpFR2	7	10	RADISH	1158	n/a	n/a	0	0	0
2574.148	n/a	WORD	1287074	wordpools/wasnorm_wordpool_576.txt	LTP258	ltpFR2	7	10	STATUE	1374	n/a	n/a	0	0	0
2576.712	n/a	WORD	1288356	wordpools/wasnorm_wordpool_576.txt	LTP258	ltpFR2	7	10	NEUTRON	947	n/a	n/a	0	0	0
2579.358	n/a	WORD	1289679	wordpools/wasnorm_wordpool_576.txt	LTP258	ltpFR2	7	10	COCKTAIL	338	n/a	n/a	0	0	0
2582.054	n/a	WORD	1291027	wordpools/wasnorm_wordpool_576.txt	LTP258	ltpFR2	7	10	FLASK	576	n/a	n/a	0	0	0
2584.732	n/a	WORD	1292366	wordpools/wasnorm_wordpool_576.txt	LTP258	ltpFR2	7	10	PARROT	1015	n/a	n/a	0	0	0
2587.546	n/a	WORD	1293773	wordpools/wasnorm_wordpool_576.txt	LTP258	ltpFR2	7	10	NOVEL	960	n/a	n/a	0	0	0
2590.192	n/a	WORD	1295096	wordpools/wasnorm_wordpool_576.txt	LTP258	ltpFR2	7	10	EMPIRE	530	n/a	n/a	0	0	0
2592.788	n/a	WORD	1296394	wordpools/wasnorm_wordpool_576.txt	LTP258	ltpFR2	7	10	CATTLE	261	n/a	n/a	0	0	0
2594.404	n/a	START	1297202	n/a	LTP258	ltpFR2	7	n/a	n/a	n/a	16	n/a	n/a	n/a	n/a
2595.492	n/a	DISTRACTOR	1297746	n/a	LTP258	ltpFR2	7	10	n/a	n/a	n/a	n/a	0	0	0
2595.502	n/a	PROB	1297751	n/a	LTP258	ltpFR2	7	n/a	n/a	n/a	16	13	7	4	1
2597.164	n/a	PROB	1298582	n/a	LTP258	ltpFR2	7	n/a	n/a	n/a	16	19	9	4	6
2598.298	n/a	PROB	1299149	n/a	LTP258	ltpFR2	7	n/a	n/a	n/a	16	12	1	6	5
2599.38	n/a	PROB	1299690	n/a	LTP258	ltpFR2	7	n/a	n/a	n/a	16	11	3	7	1
2600.294	n/a	PROB	1300147	n/a	LTP258	ltpFR2	7	n/a	n/a	n/a	16	20	8	7	5
2601.742	n/a	PROB	1300871	n/a	LTP258	ltpFR2	7	n/a	n/a	n/a	16	23	5	9	9
2603.24	n/a	PROB	1301620	n/a	LTP258	ltpFR2	7	n/a	n/a	n/a	16	21	3	9	9
2605.952	n/a	PROB	1302976	n/a	LTP258	ltpFR2	7	n/a	n/a	n/a	16	19	8	2	9
2607.084	n/a	PROB	1303542	n/a	LTP258	ltpFR2	7	n/a	n/a	n/a	16	13	4	4	5
2608.798	n/a	PROB	1304399	n/a	LTP258	ltpFR2	7	n/a	n/a	n/a	16	18	1	9	8
2609.73	n/a	PROB	1304865	n/a	LTP258	ltpFR2	7	n/a	n/a	n/a	16	8	2	3	3
2611.044	n/a	PROB	1305522	n/a	LTP258	ltpFR2	7	n/a	n/a	n/a	16	10	2	5	3
2612.658	n/a	PROB	1306329	n/a	LTP258	ltpFR2	7	n/a	n/a	n/a	16	11	1	3	7
2613.574	n/a	PROB	1306787	n/a	LTP258	ltpFR2	7	n/a	n/a	n/a	16	210	8	7	5
2615.406	n/a	PROB	1307703	n/a	LTP258	ltpFR2	7	n/a	n/a	n/a	16	26	9	8	9
2617.836	n/a	STOP	1308918	n/a	LTP258	ltpFR2	7	n/a	n/a	n/a	16	n/a	n/a	n/a	n/a
2620.282	n/a	REC_START	1310141	n/a	LTP258	ltpFR2	7	10	n/a	n/a	n/a	n/a	0	0	0
2622.354	n/a	REC_WORD	1311177	wordpools/wasnorm_wordpool_576.txt	LTP258	ltpFR2	7	10	EMPIRE	530	n/a	n/a	0	0	0
2623.228	n/a	REC_WORD	1311614	wordpools/wasnorm_wordpool_576.txt	LTP258	ltpFR2	7	10	CATTLE	261	n/a	n/a	0	0	0
2626.556	n/a	REC_WORD	1313278	wordpools/wasnorm_wordpool_576.txt	LTP258	ltpFR2	7	10	ROBIN	1199	n/a	n/a	0	0	0
2629.59	n/a	REC_WORD	1314795	wordpools/wasnorm_wordpool_576.txt	LTP258	ltpFR2	7	10	PARROT	1015	n/a	n/a	0	0	0
2630.622	n/a	REC_WORD	1315311	wordpools/wasnorm_wordpool_576.txt	LTP258	ltpFR2	7	10	KITCHEN	778	n/a	n/a	0	0	0
2631.662	n/a	REC_WORD	1315831	wordpools/wasnorm_wordpool_576.txt	LTP258	ltpFR2	7	10	APRON	35	n/a	n/a	0	0	0
2637.552	n/a	REC_WORD	1318776	wordpools/wasnorm_wordpool_576.txt	LTP258	ltpFR2	7	10	RADISH	1158	n/a	n/a	0	0	0
2640.02	n/a	REC_WORD	1320010	wordpools/wasnorm_wordpool_576.txt	LTP258	ltpFR2	7	10	FIDDLE	561	n/a	n/a	0	0	0
2640.804	n/a	REC_WORD	1320402	wordpools/wasnorm_wordpool_576.txt	LTP258	ltpFR2	7	10	SCARECROW	1245	n/a	n/a	0	0	0
2642.226	n/a	REC_WORD	1321113	wordpools/wasnorm_wordpool_576.txt	LTP258	ltpFR2	7	10	SCARF	1246	n/a	n/a	0	0	0
2659.178	n/a	REC_WORD	1329589	wordpools/wasnorm_wordpool_576.txt	LTP258	ltpFR2	7	10	RABBIT	1152	n/a	n/a	0	0	0
2710.962	n/a	DISTRACTOR	1355481	n/a	LTP258	ltpFR2	7	11	n/a	n/a	n/a	n/a	0	0	0
2710.962	n/a	START	1355481	n/a	LTP258	ltpFR2	7	n/a	n/a	n/a	17	n/a	n/a	n/a	n/a
2710.996	n/a	PROB	1355498	n/a	LTP258	ltpFR2	7	n/a	n/a	n/a	17	18	1	9	8
2712.062	n/a	PROB	1356031	n/a	LTP258	ltpFR2	7	n/a	n/a	n/a	17	12	8	3	1
2713.876	n/a	PROB	1356938	n/a	LTP258	ltpFR2	7	n/a	n/a	n/a	17	22	9	5	8
2715.556	n/a	PROB	1357778	n/a	LTP258	ltpFR2	7	n/a	n/a	n/a	17	10	1	8	1
2716.488	n/a	PROB	1358244	n/a	LTP258	ltpFR2	7	n/a	n/a	n/a	17	11	3	3	5
2717.67	n/a	PROB	1358835	n/a	LTP258	ltpFR2	7	n/a	n/a	n/a	17	13	1	4	8
2718.868	n/a	PROB	1359434	n/a	LTP258	ltpFR2	7	n/a	n/a	n/a	17	11	8	2	1
2719.966	n/a	PROB	1359983	n/a	LTP258	ltpFR2	7	n/a	n/a	n/a	17	20	6	9	5
2721.114	n/a	PROB	1360557	n/a	LTP258	ltpFR2	7	n/a	n/a	n/a	17	9	4	4	1
2722.646	n/a	PROB	1361323	n/a	LTP258	ltpFR2	7	n/a	n/a	n/a	17	15	4	3	8
2723.86	n/a	PROB	1361930	n/a	LTP258	ltpFR2	7	n/a	n/a	n/a	17	18	8	4	6
2724.826	n/a	PROB	1362413	n/a	LTP258	ltpFR2	7	n/a	n/a	n/a	17	16	3	6	7
2726.374	n/a	PROB	1363187	n/a	LTP258	ltpFR2	7	n/a	n/a	n/a	17	17	9	4	4
2727.838	n/a	PROB	1363919	n/a	LTP258	ltpFR2	7	n/a	n/a	n/a	17	13	8	3	2
2729.068	n/a	PROB	1364534	n/a	LTP258	ltpFR2	7	n/a	n/a	n/a	17	16	9	3	4
2731.166	n/a	PROB	1365583	n/a	LTP258	ltpFR2	7	n/a	n/a	n/a	17	14	5	7	1
2732.382	n/a	PROB	1366191	n/a	LTP258	ltpFR2	7	n/a	n/a	n/a	17	9	3	5	1
2733.694	n/a	STOP	1366847	n/a	LTP258	ltpFR2	7	n/a	n/a	n/a	17	n/a	n/a	n/a	n/a
2736.026	n/a	WORD	1368013	wordpools/wasnorm_wordpool_576.txt	LTP258	ltpFR2	7	11	HORSE	719	n/a	n/a	0	0	0
2738.704	n/a	WORD	1369352	wordpools/wasnorm_wordpool_576.txt	LTP258	ltpFR2	7	11	AWARD	63	n/a	n/a	0	0	0
2741.352	n/a	WORD	1370676	wordpools/wasnorm_wordpool_576.txt	LTP258	ltpFR2	7	11	DAISY	435	n/a	n/a	0	0	0
2743.964	n/a	WORD	1371982	wordpools/wasnorm_wordpool_576.txt	LTP258	ltpFR2	7	11	PASTA	1021	n/a	n/a	0	0	0
2746.76	n/a	WORD	1373380	wordpools/wasnorm_wordpool_576.txt	LTP258	ltpFR2	7	11	ONION	977	n/a	n/a	0	0	0
2749.29	n/a	WORD	1374645	wordpools/wasnorm_wordpool_576.txt	LTP258	ltpFR2	7	11	BURGLAR	200	n/a	n/a	0	0	0
2752.086	n/a	WORD	1376043	wordpools/wasnorm_wordpool_576.txt	LTP258	ltpFR2	7	11	HUMAN	726	n/a	n/a	0	0	0
2754.682	n/a	WORD	1377341	wordpools/wasnorm_wordpool_576.txt	LTP258	ltpFR2	7	11	RIVER	1194	n/a	n/a	0	0	0
2757.462	n/a	WORD	1378731	wordpools/wasnorm_wordpool_576.txt	LTP258	ltpFR2	7	11	SHELTER	1282	n/a	n/a	0	0	0
2759.908	n/a	WORD	1379954	wordpools/wasnorm_wordpool_576.txt	LTP258	ltpFR2	7	11	COIN	343	n/a	n/a	0	0	0
2762.522	n/a	WORD	1381261	wordpools/wasnorm_wordpool_576.txt	LTP258	ltpFR2	7	11	PALACE	1006	n/a	n/a	0	0	0
2765.25	n/a	WORD	1382625	wordpools/wasnorm_wordpool_576.txt	LTP258	ltpFR2	7	11	CABIN	211	n/a	n/a	0	0	0
2767.746	n/a	WORD	1383873	wordpools/wasnorm_wordpool_576.txt	LTP258	ltpFR2	7	11	STALLION	1369	n/a	n/a	0	0	0
2770.276	n/a	WORD	1385138	wordpools/wasnorm_wordpool_576.txt	LTP258	ltpFR2	7	11	CARRIAGE	248	n/a	n/a	0	0	0
2772.788	n/a	WORD	1386394	wordpools/wasnorm_wordpool_576.txt	LTP258	ltpFR2	7	11	CLOCK	325	n/a	n/a	0	0	0
2775.336	n/a	WORD	1387668	wordpools/wasnorm_wordpool_576.txt	LTP258	ltpFR2	7	11	PERFUME	1049	n/a	n/a	0	0	0
2777.88	n/a	WORD	1388940	wordpools/wasnorm_wordpool_576.txt	LTP258	ltpFR2	7	11	PORTRAIT	1111	n/a	n/a	0	0	0
2780.494	n/a	WORD	1390247	wordpools/wasnorm_wordpool_576.txt	LTP258	ltpFR2	7	11	SEAFOOD	1260	n/a	n/a	0	0	0
2783.306	n/a	WORD	1391653	wordpools/wasnorm_wordpool_576.txt	LTP258	ltpFR2	7	11	AGENT	10	n/a	n/a	0	0	0
2785.802	n/a	WORD	1392901	wordpools/wasnorm_wordpool_576.txt	LTP258	ltpFR2	7	11	SCISSORS	1250	n/a	n/a	0	0	0
2788.498	n/a	WORD	1394249	wordpools/wasnorm_wordpool_576.txt	LTP258	ltpFR2	7	11	MONEY	908	n/a	n/a	0	0	0
2790.944	n/a	WORD	1395472	wordpools/wasnorm_wordpool_576.txt	LTP258	ltpFR2	7	11	TABLET	1427	n/a	n/a	0	0	0
2793.492	n/a	WORD	1396746	wordpools/wasnorm_wordpool_576.txt	LTP258	ltpFR2	7	11	NOTEBOOK	959	n/a	n/a	0	0	0
2796.07	n/a	WORD	1398035	wordpools/wasnorm_wordpool_576.txt	LTP258	ltpFR2	7	11	FOREST	593	n/a	n/a	0	0	0
2797.684	n/a	START	1398842	n/a	LTP258	ltpFR2	7	n/a	n/a	n/a	18	n/a	n/a	n/a	n/a
2798.664	n/a	DISTRACTOR	1399332	n/a	LTP258	ltpFR2	7	11	n/a	n/a	n/a	n/a	0	0	0
2798.666	n/a	PROB	1399333	n/a	LTP258	ltpFR2	7	n/a	n/a	n/a	18	13	1	3	9
2799.93	n/a	PROB	1399965	n/a	LTP258	ltpFR2	7	n/a	n/a	n/a	18	13	9	2	2
2801.03	n/a	PROB	1400515	n/a	LTP258	ltpFR2	7	n/a	n/a	n/a	18	20	6	7	7
2803.026	n/a	PROB	1401513	n/a	LTP258	ltpFR2	7	n/a	n/a	n/a	18	10	3	4	3
2804.308	n/a	PROB	1402154	n/a	LTP258	ltpFR2	7	n/a	n/a	n/a	18	13	3	5	5
2805.34	n/a	PROB	1402670	n/a	LTP258	ltpFR2	7	n/a	n/a	n/a	18	14	2	9	3
2808.734	n/a	PROB	1404367	n/a	LTP258	ltpFR2	7	n/a	n/a	n/a	18	12	2	4	6
2809.782	n/a	PROB	1404891	n/a	LTP258	ltpFR2	7	n/a	n/a	n/a	18	19	9	6	4
2810.964	n/a	PROB	1405482	n/a	LTP258	ltpFR2	7	n/a	n/a	n/a	18	10	3	6	1
2812.43	n/a	PROB	1406215	n/a	LTP258	ltpFR2	7	n/a	n/a	n/a	18	17	4	5	8
2813.678	n/a	PROB	1406839	n/a	LTP258	ltpFR2	7	n/a	n/a	n/a	18	21	3	9	9
2815.542	n/a	PROB	1407771	n/a	LTP258	ltpFR2	7	n/a	n/a	n/a	18	22	8	4	9
2817.006	n/a	PROB	1408503	n/a	LTP258	ltpFR2	7	n/a	n/a	n/a	18	10	3	5	2
2818.854	n/a	PROB	1409427	n/a	LTP258	ltpFR2	7	n/a	n/a	n/a	18	16	2	9	5
2820.136	n/a	STOP	1410068	n/a	LTP258	ltpFR2	7	n/a	n/a	n/a	18	n/a	n/a	n/a	n/a
2823.432	n/a	REC_START	1411716	n/a	LTP258	ltpFR2	7	11	n/a	n/a	n/a	n/a	0	0	0
2829.608	n/a	REC_WORD	1414804	wordpools/wasnorm_wordpool_576.txt	LTP258	ltpFR2	7	11	BURGLAR	200	n/a	n/a	0	0	0
2830.626	n/a	REC_WORD	1415313	wordpools/wasnorm_wordpool_576.txt	LTP258	ltpFR2	7	11	RIVER	1194	n/a	n/a	0	0	0
2831.334	n/a	REC_WORD	1415667	wordpools/wasnorm_wordpool_576.txt	LTP258	ltpFR2	7	11	FOREST	593	n/a	n/a	0	0	0
2835.382	n/a	REC_WORD	1417691	wordpools/wasnorm_wordpool_576.txt	LTP258	ltpFR2	7	11	COIN	343	n/a	n/a	0	0	0
2836.26	n/a	REC_WORD	1418130	wordpools/wasnorm_wordpool_576.txt	LTP258	ltpFR2	7	11	SHELTER	1282	n/a	n/a	0	0	0
2837.266	n/a	REC_WORD	1418633	wordpools/wasnorm_wordpool_576.txt	LTP258	ltpFR2	7	11	PALACE	1006	n/a	n/a	0	0	0
2839.44	n/a	REC_WORD	1419720	wordpools/wasnorm_wordpool_576.txt	LTP258	ltpFR2	7	11	CABIN	211	n/a	n/a	0	0	0
2840.224	n/a	REC_WORD	1420112	wordpools/wasnorm_wordpool_576.txt	LTP258	ltpFR2	7	11	CARRIAGE	248	n/a	n/a	0	0	0
2841.042	n/a	REC_WORD	1420521	wordpools/wasnorm_wordpool_576.txt	LTP258	ltpFR2	7	11	STALLION	1369	n/a	n/a	0	0	0
2843.19	n/a	REC_WORD	1421595	wordpools/wasnorm_wordpool_576.txt	LTP258	ltpFR2	7	11	HORSE	719	n/a	n/a	0	0	0
2844.036	n/a	REC_WORD	1422018	wordpools/wasnorm_wordpool_576.txt	LTP258	ltpFR2	7	11	AWARD	63	n/a	n/a	0	0	0
2844.992	n/a	REC_WORD	1422496	wordpools/wasnorm_wordpool_576.txt	LTP258	ltpFR2	7	11	DAISY	435	n/a	n/a	0	0	0
2857.922	n/a	REC_WORD	1428961	wordpools/wasnorm_wordpool_576.txt	LTP258	ltpFR2	7	11	PORTRAIT	1111	n/a	n/a	0	0	0
2860.246	n/a	REC_WORD	1430123	wordpools/wasnorm_wordpool_576.txt	LTP258	ltpFR2	7	11	PERFUME	1049	n/a	n/a	0	0	0
2866.186	n/a	REC_WORD	1433093	wordpools/wasnorm_wordpool_576.txt	LTP258	ltpFR2	7	11	PASTA	1021	n/a	n/a	0	0	0
2867.278	n/a	REC_WORD	1433639	wordpools/wasnorm_wordpool_576.txt	LTP258	ltpFR2	7	11	ONION	977	n/a	n/a	0	0	0
2869.278	n/a	REC_WORD	1434639	wordpools/wasnorm_wordpool_576.txt	LTP258	ltpFR2	7	11	AGENT	10	n/a	n/a	0	0	0
2873.832	n/a	REC_WORD	1436916	wordpools/wasnorm_wordpool_576.txt	LTP258	ltpFR2	7	11	SEAFOOD	1260	n/a	n/a	0	0	0
2880.148	n/a	REC_WORD	1440074	wordpools/wasnorm_wordpool_576.txt	LTP258	ltpFR2	7	11	MONEY	908	n/a	n/a	0	0	0
2887.422	n/a	REC_WORD	1443711	wordpools/wasnorm_wordpool_576.txt	LTP258	ltpFR2	7	11	SCISSORS	1250	n/a	n/a	0	0	0
2914.112	n/a	DISTRACTOR	1457056	n/a	LTP258	ltpFR2	7	12	n/a	n/a	n/a	n/a	0	0	0
2914.112	n/a	START	1457056	n/a	LTP258	ltpFR2	7	n/a	n/a	n/a	19	n/a	n/a	n/a	n/a
2914.146	n/a	PROB	1457073	n/a	LTP258	ltpFR2	7	n/a	n/a	n/a	19	9	5	2	2
2915.312	n/a	PROB	1457656	n/a	LTP258	ltpFR2	7	n/a	n/a	n/a	19	18	8	3	7
2916.344	n/a	PROB	1458172	n/a	LTP258	ltpFR2	7	n/a	n/a	n/a	19	15	9	4	2
2917.592	n/a	PROB	1458796	n/a	LTP258	ltpFR2	7	n/a	n/a	n/a	19	15	4	7	4
2919.322	n/a	PROB	1459661	n/a	LTP258	ltpFR2	7	n/a	n/a	n/a	19	24	8	9	7
2922.882	n/a	PROB	1461441	n/a	LTP258	ltpFR2	7	n/a	n/a	n/a	19	16	8	5	3
2924.18	n/a	PROB	1462090	n/a	LTP258	ltpFR2	7	n/a	n/a	n/a	19	10	8	1	1
2925.414	n/a	PROB	1462707	n/a	LTP258	ltpFR2	7	n/a	n/a	n/a	19	19	7	9	3
2926.328	n/a	PROB	1463164	n/a	LTP258	ltpFR2	7	n/a	n/a	n/a	19	16	9	2	5
2928.124	n/a	PROB	1464062	n/a	LTP258	ltpFR2	7	n/a	n/a	n/a	19	9	1	7	1
2929.156	n/a	PROB	1464578	n/a	LTP258	ltpFR2	7	n/a	n/a	n/a	19	13	3	1	9
2930.34	n/a	PROB	1465170	n/a	LTP258	ltpFR2	7	n/a	n/a	n/a	19	23	8	7	8
2932.252	n/a	PROB	1466126	n/a	LTP258	ltpFR2	7	n/a	n/a	n/a	19	12	5	1	6
2933.552	n/a	PROB	1466776	n/a	LTP258	ltpFR2	7	n/a	n/a	n/a	19	20	9	6	5
2938.112	n/a	STOP	1469056	n/a	LTP258	ltpFR2	7	n/a	n/a	n/a	19	n/a	n/a	n/a	n/a
2939.276	n/a	WORD	1469638	wordpools/wasnorm_wordpool_576.txt	LTP258	ltpFR2	7	12	SEAL	1262	n/a	n/a	0	0	0
2941.904	n/a	WORD	1470952	wordpools/wasnorm_wordpool_576.txt	LTP258	ltpFR2	7	12	TOMBSTONE	1478	n/a	n/a	0	0	0
2944.418	n/a	WORD	1472209	wordpools/wasnorm_wordpool_576.txt	LTP258	ltpFR2	7	12	WORLD	1622	n/a	n/a	0	0	0
2946.846	n/a	WORD	1473423	wordpools/wasnorm_wordpool_576.txt	LTP258	ltpFR2	7	12	WITNESS	1618	n/a	n/a	0	0	0
2949.544	n/a	WORD	1474772	wordpools/wasnorm_wordpool_576.txt	LTP258	ltpFR2	7	12	ELBOW	520	n/a	n/a	0	0	0
2952.206	n/a	WORD	1476103	wordpools/wasnorm_wordpool_576.txt	LTP258	ltpFR2	7	12	FEMALE	559	n/a	n/a	0	0	0
2954.668	n/a	WORD	1477334	wordpools/wasnorm_wordpool_576.txt	LTP258	ltpFR2	7	12	HANDBAG	684	n/a	n/a	0	0	0
2957.182	n/a	WORD	1478591	wordpools/wasnorm_wordpool_576.txt	LTP258	ltpFR2	7	12	SHELF	1280	n/a	n/a	0	0	0
2959.744	n/a	WORD	1479872	wordpools/wasnorm_wordpool_576.txt	LTP258	ltpFR2	7	12	CASKET	255	n/a	n/a	0	0	0
2962.24	n/a	WORD	1481120	wordpools/wasnorm_wordpool_576.txt	LTP258	ltpFR2	7	12	CANYON	235	n/a	n/a	0	0	0
2965.004	n/a	WORD	1482502	wordpools/wasnorm_wordpool_576.txt	LTP258	ltpFR2	7	12	KETCHUP	771	n/a	n/a	0	0	0
2967.798	n/a	WORD	1483899	wordpools/wasnorm_wordpool_576.txt	LTP258	ltpFR2	7	12	RECEIPT	1173	n/a	n/a	0	0	0
2970.53	n/a	WORD	1485265	wordpools/wasnorm_wordpool_576.txt	LTP258	ltpFR2	7	12	LUMBER	848	n/a	n/a	0	0	0
2973.058	n/a	WORD	1486529	wordpools/wasnorm_wordpool_576.txt	LTP258	ltpFR2	7	12	BOARD	143	n/a	n/a	0	0	0
2975.804	n/a	WORD	1487902	wordpools/wasnorm_wordpool_576.txt	LTP258	ltpFR2	7	12	DASHBOARD	441	n/a	n/a	0	0	0
2978.386	n/a	WORD	1489193	wordpools/wasnorm_wordpool_576.txt	LTP258	ltpFR2	7	12	TRUCK	1512	n/a	n/a	0	0	0
2980.964	n/a	WORD	1490482	wordpools/wasnorm_wordpool_576.txt	LTP258	ltpFR2	7	12	GIRL	637	n/a	n/a	0	0	0
2983.642	n/a	WORD	1491821	wordpools/wasnorm_wordpool_576.txt	LTP258	ltpFR2	7	12	WASHER	1592	n/a	n/a	0	0	0
2986.256	n/a	WORD	1493128	wordpools/wasnorm_wordpool_576.txt	LTP258	ltpFR2	7	12	MACHINE	852	n/a	n/a	0	0	0
2988.818	n/a	WORD	1494409	wordpools/wasnorm_wordpool_576.txt	LTP258	ltpFR2	7	12	GARDEN	623	n/a	n/a	0	0	0
2991.316	n/a	WORD	1495658	wordpools/wasnorm_wordpool_576.txt	LTP258	ltpFR2	7	12	DUSTPAN	509	n/a	n/a	0	0	0
2993.91	n/a	WORD	1496955	wordpools/wasnorm_wordpool_576.txt	LTP258	ltpFR2	7	12	CITRUS	313	n/a	n/a	0	0	0
2996.706	n/a	WORD	1498353	wordpools/wasnorm_wordpool_576.txt	LTP258	ltpFR2	7	12	OX	994	n/a	n/a	0	0	0
2999.22	n/a	WORD	1499610	wordpools/wasnorm_wordpool_576.txt	LTP258	ltpFR2	7	12	PRINCE	1124	n/a	n/a	0	0	0
3000.834	n/a	START	1500417	n/a	LTP258	ltpFR2	7	n/a	n/a	n/a	20	n/a	n/a	n/a	n/a
3001.782	n/a	DISTRACTOR	1500891	n/a	LTP258	ltpFR2	7	12	n/a	n/a	n/a	n/a	0	0	0
3001.782	n/a	PROB	1500891	n/a	LTP258	ltpFR2	7	n/a	n/a	n/a	20	14	7	2	5
3005.66	n/a	PROB	1502830	n/a	LTP258	ltpFR2	7	n/a	n/a	n/a	20	11	6	4	1
3006.592	n/a	PROB	1503296	n/a	LTP258	ltpFR2	7	n/a	n/a	n/a	20	19	6	4	9
3007.542	n/a	PROB	1503771	n/a	LTP258	ltpFR2	7	n/a	n/a	n/a	20	9	4	2	3
3009.272	n/a	PROB	1504636	n/a	LTP258	ltpFR2	7	n/a	n/a	n/a	20	18	9	8	1
3010.67	n/a	PROB	1505335	n/a	LTP258	ltpFR2	7	n/a	n/a	n/a	20	11	7	1	3
3011.818	n/a	PROB	1505909	n/a	LTP258	ltpFR2	7	n/a	n/a	n/a	20	136	1	7	8
3013.698	n/a	PROB	1506849	n/a	LTP258	ltpFR2	7	n/a	n/a	n/a	20	7	4	2	1
3015.878	n/a	PROB	1507939	n/a	LTP258	ltpFR2	7	n/a	n/a	n/a	20	17	9	7	1
3017.16	n/a	PROB	1508580	n/a	LTP258	ltpFR2	7	n/a	n/a	n/a	20	25	8	8	9
3019.59	n/a	PROB	1509795	n/a	LTP258	ltpFR2	7	n/a	n/a	n/a	20	8	1	5	2
3020.904	n/a	PROB	1510452	n/a	LTP258	ltpFR2	7	n/a	n/a	n/a	20	20	6	8	6
3022.536	n/a	PROB	1511268	n/a	LTP258	ltpFR2	7	n/a	n/a	n/a	20	14	4	4	6
3023.426	n/a	STOP	1511713	n/a	LTP258	ltpFR2	7	n/a	n/a	n/a	20	n/a	n/a	n/a	n/a
3026.78	n/a	REC_START	1513390	n/a	LTP258	ltpFR2	7	12	n/a	n/a	n/a	n/a	0	0	0
3029.702	n/a	REC_WORD	1514851	wordpools/wasnorm_wordpool_576.txt	LTP258	ltpFR2	7	12	OX	994	n/a	n/a	0	0	0
3030.42	n/a	REC_WORD	1515210	wordpools/wasnorm_wordpool_576.txt	LTP258	ltpFR2	7	12	MACHINE	852	n/a	n/a	0	0	0
3031.39	n/a	REC_WORD	1515695	wordpools/wasnorm_wordpool_576.txt	LTP258	ltpFR2	7	12	GARDEN	623	n/a	n/a	0	0	0
3032.406	n/a	REC_WORD	1516203	wordpools/wasnorm_wordpool_576.txt	LTP258	ltpFR2	7	12	GIRL	637	n/a	n/a	0	0	0
3033.362	n/a	REC_WORD	1516681	wordpools/wasnorm_wordpool_576.txt	LTP258	ltpFR2	7	12	FEMALE	559	n/a	n/a	0	0	0
3035.99	n/a	REC_WORD	1517995	wordpools/wasnorm_wordpool_576.txt	LTP258	ltpFR2	7	12	HANDBAG	684	n/a	n/a	0	0	0
3037.284	n/a	REC_WORD	1518642	wordpools/wasnorm_wordpool_576.txt	LTP258	ltpFR2	7	12	CASKET	255	n/a	n/a	0	0	0
3038.578	n/a	REC_WORD	1519289	wordpools/wasnorm_wordpool_576.txt	LTP258	ltpFR2	7	12	ELBOW	520	n/a	n/a	0	0	0
3039.508	n/a	REC_WORD	1519754	wordpools/wasnorm_wordpool_576.txt	LTP258	ltpFR2	7	12	CANYON	235	n/a	n/a	0	0	0
3042.872	n/a	REC_WORD	1521436	wordpools/wasnorm_wordpool_576.txt	LTP258	ltpFR2	7	12	SEAL	1262	n/a	n/a	0	0	0
3046.058	n/a	REC_WORD	1523029	wordpools/wasnorm_wordpool_576.txt	LTP258	ltpFR2	7	12	TOMBSTONE	1478	n/a	n/a	0	0	0
3117.496	n/a	DISTRACTOR	1558748	n/a	LTP258	ltpFR2	7	13	n/a	n/a	n/a	n/a	0	0	0
3117.496	n/a	START	1558748	n/a	LTP258	ltpFR2	7	n/a	n/a	n/a	21	n/a	n/a	n/a	n/a
3117.528	n/a	PROB	1558764	n/a	LTP258	ltpFR2	7	n/a	n/a	n/a	21	14	3	9	2
3119.058	n/a	PROB	1559529	n/a	LTP258	ltpFR2	7	n/a	n/a	n/a	21	19	7	5	7
3120.524	n/a	PROB	1560262	n/a	LTP258	ltpFR2	7	n/a	n/a	n/a	21	14	9	2	3
3121.922	n/a	PROB	1560961	n/a	LTP258	ltpFR2	7	n/a	n/a	n/a	21	16	1	7	8
3123.036	n/a	PROB	1561518	n/a	LTP258	ltpFR2	7	n/a	n/a	n/a	21	24	9	8	7
3124.668	n/a	PROB	1562334	n/a	LTP258	ltpFR2	7	n/a	n/a	n/a	21	8	2	1	5
3125.8	n/a	PROB	1562900	n/a	LTP258	ltpFR2	7	n/a	n/a	n/a	21	22	8	5	9
3127.314	n/a	PROB	1563657	n/a	LTP258	ltpFR2	7	n/a	n/a	n/a	21	21	9	6	6
3130.126	n/a	PROB	1565063	n/a	LTP258	ltpFR2	7	n/a	n/a	n/a	21	6	4	1	1
3131.142	n/a	PROB	1565571	n/a	LTP258	ltpFR2	7	n/a	n/a	n/a	21	13	3	2	8
3132.19	n/a	PROB	1566095	n/a	LTP258	ltpFR2	7	n/a	n/a	n/a	21	12	3	2	7
3134.952	n/a	PROB	1567476	n/a	LTP258	ltpFR2	7	n/a	n/a	n/a	21	19	9	5	5
3135.884	n/a	PROB	1567942	n/a	LTP258	ltpFR2	7	n/a	n/a	n/a	21	21	5	9	7
3137.6	n/a	PROB	1568800	n/a	LTP258	ltpFR2	7	n/a	n/a	n/a	21	13	1	4	9
3141.496	n/a	STOP	1570748	n/a	LTP258	ltpFR2	7	n/a	n/a	n/a	21	n/a	n/a	n/a	n/a
3142.508	n/a	WORD	1571254	wordpools/wasnorm_wordpool_576.txt	LTP258	ltpFR2	7	13	ASIA	46	n/a	n/a	0	0	0
3145.088	n/a	WORD	1572544	wordpools/wasnorm_wordpool_576.txt	LTP258	ltpFR2	7	13	JAPAN	749	n/a	n/a	0	0	0
3147.584	n/a	WORD	1573792	wordpools/wasnorm_wordpool_576.txt	LTP258	ltpFR2	7	13	REPORT	1184	n/a	n/a	0	0	0
3150.23	n/a	WORD	1575115	wordpools/wasnorm_wordpool_576.txt	LTP258	ltpFR2	7	13	ROBOT	1200	n/a	n/a	0	0	0
3152.876	n/a	WORD	1576438	wordpools/wasnorm_wordpool_576.txt	LTP258	ltpFR2	7	13	CANAL	226	n/a	n/a	0	0	0
3155.654	n/a	WORD	1577827	wordpools/wasnorm_wordpool_576.txt	LTP258	ltpFR2	7	13	TURTLE	1522	n/a	n/a	0	0	0
3158.452	n/a	WORD	1579226	wordpools/wasnorm_wordpool_576.txt	LTP258	ltpFR2	7	13	HEDGE	699	n/a	n/a	0	0	0
3161.064	n/a	WORD	1580532	wordpools/wasnorm_wordpool_576.txt	LTP258	ltpFR2	7	13	WIDOW	1608	n/a	n/a	0	0	0
3163.81	n/a	WORD	1581905	wordpools/wasnorm_wordpool_576.txt	LTP258	ltpFR2	7	13	RAZOR	1171	n/a	n/a	0	0	0
3166.638	n/a	WORD	1583319	wordpools/wasnorm_wordpool_576.txt	LTP258	ltpFR2	7	13	PIANO	1057	n/a	n/a	0	0	0
3169.252	n/a	WORD	1584626	wordpools/wasnorm_wordpool_576.txt	LTP258	ltpFR2	7	13	MAILMAN	858	n/a	n/a	0	0	0
3171.93	n/a	WORD	1585965	wordpools/wasnorm_wordpool_576.txt	LTP258	ltpFR2	7	13	MESSAGE	888	n/a	n/a	0	0	0
3174.378	n/a	WORD	1587189	wordpools/wasnorm_wordpool_576.txt	LTP258	ltpFR2	7	13	JELLO	754	n/a	n/a	0	0	0
3177.156	n/a	WORD	1588578	wordpools/wasnorm_wordpool_576.txt	LTP258	ltpFR2	7	13	CELLAR	267	n/a	n/a	0	0	0
3179.604	n/a	WORD	1589802	wordpools/wasnorm_wordpool_576.txt	LTP258	ltpFR2	7	13	SKILLET	1317	n/a	n/a	0	0	0
3182.416	n/a	WORD	1591208	wordpools/wasnorm_wordpool_576.txt	LTP258	ltpFR2	7	13	SWORD	1423	n/a	n/a	0	0	0
3185.144	n/a	WORD	1592572	wordpools/wasnorm_wordpool_576.txt	LTP258	ltpFR2	7	13	FOX	598	n/a	n/a	0	0	0
3187.906	n/a	WORD	1593953	wordpools/wasnorm_wordpool_576.txt	LTP258	ltpFR2	7	13	STOVE	1388	n/a	n/a	0	0	0
3190.72	n/a	WORD	1595360	wordpools/wasnorm_wordpool_576.txt	LTP258	ltpFR2	7	13	LAKE	796	n/a	n/a	0	0	0
3193.366	n/a	WORD	1596683	wordpools/wasnorm_wordpool_576.txt	LTP258	ltpFR2	7	13	PIMPLE	1071	n/a	n/a	0	0	0
3195.928	n/a	WORD	1597964	wordpools/wasnorm_wordpool_576.txt	LTP258	ltpFR2	7	13	PLAYGROUND	1087	n/a	n/a	0	0	0
3198.758	n/a	WORD	1599379	wordpools/wasnorm_wordpool_576.txt	LTP258	ltpFR2	7	13	MISTER	901	n/a	n/a	0	0	0
3201.406	n/a	WORD	1600703	wordpools/wasnorm_wordpool_576.txt	LTP258	ltpFR2	7	13	HORNET	718	n/a	n/a	0	0	0
3204.15	n/a	WORD	1602075	wordpools/wasnorm_wordpool_576.txt	LTP258	ltpFR2	7	13	BASEMENT	94	n/a	n/a	0	0	0
3205.764	n/a	START	1602882	n/a	LTP258	ltpFR2	7	n/a	n/a	n/a	22	n/a	n/a	n/a	n/a
3206.576	n/a	DISTRACTOR	1603288	n/a	LTP258	ltpFR2	7	13	n/a	n/a	n/a	n/a	0	0	0
3206.58	n/a	PROB	1603290	n/a	LTP258	ltpFR2	7	n/a	n/a	n/a	22	17	5	8	4
3209.608	n/a	PROB	1604804	n/a	LTP258	ltpFR2	7	n/a	n/a	n/a	22	15	4	2	9
3210.89	n/a	PROB	1605445	n/a	LTP258	ltpFR2	7	n/a	n/a	n/a	22	9	3	1	5
3211.988	n/a	PROB	1605994	n/a	LTP258	ltpFR2	7	n/a	n/a	n/a	22	18	3	8	7
3213.304	n/a	PROB	1606652	n/a	LTP258	ltpFR2	7	n/a	n/a	n/a	22	22	8	6	7
3215.018	n/a	PROB	1607509	n/a	LTP258	ltpFR2	7	n/a	n/a	n/a	22	13	5	6	2
3217.148	n/a	PROB	1608574	n/a	LTP258	ltpFR2	7	n/a	n/a	n/a	22	14	8	2	4
3219.128	n/a	PROB	1609564	n/a	LTP258	ltpFR2	7	n/a	n/a	n/a	22	7	4	1	2
3220.394	n/a	PROB	1610197	n/a	LTP258	ltpFR2	7	n/a	n/a	n/a	22	13	9	2	2
3221.476	n/a	PROB	1610738	n/a	LTP258	ltpFR2	7	n/a	n/a	n/a	22	16	8	4	2
3223.356	n/a	PROB	1611678	n/a	LTP258	ltpFR2	7	n/a	n/a	n/a	22	16	8	1	7
3224.82	n/a	PROB	1612410	n/a	LTP258	ltpFR2	7	n/a	n/a	n/a	22	21	8	5	8
3226.518	n/a	PROB	1613259	n/a	LTP258	ltpFR2	7	n/a	n/a	n/a	22	14	6	5	3
3227.914	n/a	PROB	1613957	n/a	LTP258	ltpFR2	7	n/a	n/a	n/a	22	13	9	1	3
3228.924	n/a	STOP	1614462	n/a	LTP258	ltpFR2	7	n/a	n/a	n/a	22	n/a	n/a	n/a	n/a
3231.692	n/a	REC_START	1615846	n/a	LTP258	ltpFR2	7	13	n/a	n/a	n/a	n/a	0	0	0
3235.476	n/a	REC_WORD	1617738	wordpools/wasnorm_wordpool_576.txt	LTP258	ltpFR2	7	13	PLAYGROUND	1087	n/a	n/a	0	0	0
3236.386	n/a	REC_WORD	1618193	wordpools/wasnorm_wordpool_576.txt	LTP258	ltpFR2	7	13	MISTER	901	n/a	n/a	0	0	0
3237.252	n/a	REC_WORD	1618626	wordpools/wasnorm_wordpool_576.txt	LTP258	ltpFR2	7	13	HORNET	718	n/a	n/a	0	0	0
3244.158	n/a	REC_WORD	1622079	wordpools/wasnorm_wordpool_576.txt	LTP258	ltpFR2	7	13	ASIA	46	n/a	n/a	0	0	0
3244.884	n/a	REC_WORD	1622442	wordpools/wasnorm_wordpool_576.txt	LTP258	ltpFR2	7	13	JAPAN	749	n/a	n/a	0	0	0
3246.036	n/a	REC_WORD	1623018	wordpools/wasnorm_wordpool_576.txt	LTP258	ltpFR2	7	13	ROBOT	1200	n/a	n/a	0	0	0
3247.982	n/a	REC_WORD	1623991	wordpools/wasnorm_wordpool_576.txt	LTP258	ltpFR2	7	13	CANAL	226	n/a	n/a	0	0	0
3249.226	n/a	REC_WORD	1624613	wordpools/wasnorm_wordpool_576.txt	LTP258	ltpFR2	7	13	REPORT	1184	n/a	n/a	0	0	0
3250.406	n/a	REC_WORD	1625203	wordpools/wasnorm_wordpool_576.txt	LTP258	ltpFR2	7	13	WIDOW	1608	n/a	n/a	0	0	0
3253.41	n/a	REC_WORD	1626705	wordpools/wasnorm_wordpool_576.txt	LTP258	ltpFR2	7	13	MESSAGE	888	n/a	n/a	0	0	0
3263.396	n/a	REC_WORD	1631698	wordpools/wasnorm_wordpool_576.txt	LTP258	ltpFR2	7	13	TURTLE	1522	n/a	n/a	0	0	0
3264.322	n/a	REC_WORD	1632161	wordpools/wasnorm_wordpool_576.txt	LTP258	ltpFR2	7	13	STOVE	1388	n/a	n/a	0	0	0
3265.444	n/a	REC_WORD	1632722	wordpools/wasnorm_wordpool_576.txt	LTP258	ltpFR2	7	13	FOX	598	n/a	n/a	0	0	0
3305.144	n/a	REC_WORD	1652572	wordpools/wasnorm_wordpool_576.txt	LTP258	ltpFR2	7	13	LAKE	796	n/a	n/a	0	0	0
3322.358	n/a	WORD	1661179	wordpools/wasnorm_wordpool_576.txt	LTP258	ltpFR2	7	14	WRENCH	1625	n/a	n/a	0	0	0
3325.104	n/a	WORD	1662552	wordpools/wasnorm_wordpool_576.txt	LTP258	ltpFR2	7	14	PLIERS	1089	n/a	n/a	0	0	0
3327.684	n/a	WORD	1663842	wordpools/wasnorm_wordpool_576.txt	LTP258	ltpFR2	7	14	MARKET	871	n/a	n/a	0	0	0
3330.28	n/a	WORD	1665140	wordpools/wasnorm_wordpool_576.txt	LTP258	ltpFR2	7	14	MOTOR	922	n/a	n/a	0	0	0
3332.892	n/a	WORD	1666446	wordpools/wasnorm_wordpool_576.txt	LTP258	ltpFR2	7	14	PLASTER	1085	n/a	n/a	0	0	0
3335.506	n/a	WORD	1667753	wordpools/wasnorm_wordpool_576.txt	LTP258	ltpFR2	7	14	PERMIT	1051	n/a	n/a	0	0	0
3338.052	n/a	WORD	1669026	wordpools/wasnorm_wordpool_576.txt	LTP258	ltpFR2	7	14	EAGLE	512	n/a	n/a	0	0	0
3340.548	n/a	WORD	1670274	wordpools/wasnorm_wordpool_576.txt	LTP258	ltpFR2	7	14	WHISTLE	1606	n/a	n/a	0	0	0
3343.01	n/a	WORD	1671505	wordpools/wasnorm_wordpool_576.txt	LTP258	ltpFR2	7	14	SERVANT	1271	n/a	n/a	0	0	0
3345.806	n/a	WORD	1672903	wordpools/wasnorm_wordpool_576.txt	LTP258	ltpFR2	7	14	IDOL	733	n/a	n/a	0	0	0
3348.404	n/a	WORD	1674202	wordpools/wasnorm_wordpool_576.txt	LTP258	ltpFR2	7	14	PISTON	1076	n/a	n/a	0	0	0
3350.932	n/a	WORD	1675466	wordpools/wasnorm_wordpool_576.txt	LTP258	ltpFR2	7	14	QUARTER	1148	n/a	n/a	0	0	0
3353.564	n/a	WORD	1676782	wordpools/wasnorm_wordpool_576.txt	LTP258	ltpFR2	7	14	UNCLE	1536	n/a	n/a	0	0	0
3356.226	n/a	WORD	1678113	wordpools/wasnorm_wordpool_576.txt	LTP258	ltpFR2	7	14	SHORTCAKE	1292	n/a	n/a	0	0	0
3358.754	n/a	WORD	1679377	wordpools/wasnorm_wordpool_576.txt	LTP258	ltpFR2	7	14	WRIST	1626	n/a	n/a	0	0	0
3361.336	n/a	WORD	1680668	wordpools/wasnorm_wordpool_576.txt	LTP258	ltpFR2	7	14	COTTAGE	384	n/a	n/a	0	0	0
3363.98	n/a	WORD	1681990	wordpools/wasnorm_wordpool_576.txt	LTP258	ltpFR2	7	14	BLUEPRINT	142	n/a	n/a	0	0	0
3366.46	n/a	WORD	1683230	wordpools/wasnorm_wordpool_576.txt	LTP258	ltpFR2	7	14	LONDON	843	n/a	n/a	0	0	0
3369.222	n/a	WORD	1684611	wordpools/wasnorm_wordpool_576.txt	LTP258	ltpFR2	7	14	HAND	683	n/a	n/a	0	0	0
3371.968	n/a	WORD	1685984	wordpools/wasnorm_wordpool_576.txt	LTP258	ltpFR2	7	14	POISON	1096	n/a	n/a	0	0	0
3374.432	n/a	WORD	1687216	wordpools/wasnorm_wordpool_576.txt	LTP258	ltpFR2	7	14	SLIDE	1326	n/a	n/a	0	0	0
3377.078	n/a	WORD	1688539	wordpools/wasnorm_wordpool_576.txt	LTP258	ltpFR2	7	14	PASSAGE	1019	n/a	n/a	0	0	0
3379.824	n/a	WORD	1689912	wordpools/wasnorm_wordpool_576.txt	LTP258	ltpFR2	7	14	CASHIER	254	n/a	n/a	0	0	0
3382.42	n/a	WORD	1691210	wordpools/wasnorm_wordpool_576.txt	LTP258	ltpFR2	7	14	PEBBLE	1035	n/a	n/a	0	0	0
3384.034	n/a	START	1692017	n/a	LTP258	ltpFR2	7	n/a	n/a	n/a	23	n/a	n/a	n/a	n/a
3385.092	n/a	DISTRACTOR	1692546	n/a	LTP258	ltpFR2	7	14	n/a	n/a	n/a	n/a	0	0	0
3385.098	n/a	PROB	1692549	n/a	LTP258	ltpFR2	7	n/a	n/a	n/a	23	19	9	5	5
3386.246	n/a	PROB	1693123	n/a	LTP258	ltpFR2	7	n/a	n/a	n/a	23	25	8	8	9
3388.078	n/a	PROB	1694039	n/a	LTP258	ltpFR2	7	n/a	n/a	n/a	23	21	8	6	7
3391.122	n/a	PROB	1695561	n/a	LTP258	ltpFR2	7	n/a	n/a	n/a	23	12	9	2	1
3392.388	n/a	PROB	1696194	n/a	LTP258	ltpFR2	7	n/a	n/a	n/a	23	15	7	1	7
3393.586	n/a	PROB	1696793	n/a	LTP258	ltpFR2	7	n/a	n/a	n/a	23	14	8	3	1
3395.05	n/a	PROB	1697525	n/a	LTP258	ltpFR2	7	n/a	n/a	n/a	23	10	2	5	3
3397.93	n/a	PROB	1698965	n/a	LTP258	ltpFR2	7	n/a	n/a	n/a	23	17	1	9	7
3399.044	n/a	PROB	1699522	n/a	LTP258	ltpFR2	7	n/a	n/a	n/a	23	26	8	9	9
3400.876	n/a	PROB	1700438	n/a	LTP258	ltpFR2	7	n/a	n/a	n/a	23	19	9	9	1
3403.72	n/a	PROB	1701860	n/a	LTP258	ltpFR2	7	n/a	n/a	n/a	23	22	6	9	7
3405.634	n/a	PROB	1702817	n/a	LTP258	ltpFR2	7	n/a	n/a	n/a	23	17	9	2	6
3407.472	n/a	STOP	1703736	n/a	LTP258	ltpFR2	7	n/a	n/a	n/a	23	n/a	n/a	n/a	n/a
3409.962	n/a	REC_START	1704981	n/a	LTP258	ltpFR2	7	14	n/a	n/a	n/a	n/a	0	0	0
3414.37	n/a	REC_WORD	1707185	wordpools/wasnorm_wordpool_576.txt	LTP258	ltpFR2	7	14	PASSAGE	1019	n/a	n/a	0	0	0
3416.28	n/a	REC_WORD	1708140	wordpools/wasnorm_wordpool_576.txt	LTP258	ltpFR2	7	14	CASHIER	254	n/a	n/a	0	0	0
3426.108	n/a	REC_WORD	1713054	wordpools/wasnorm_wordpool_576.txt	LTP258	ltpFR2	7	14	BLUEPRINT	142	n/a	n/a	0	0	0
3428.46	n/a	REC_WORD	1714230	wordpools/wasnorm_wordpool_576.txt	LTP258	ltpFR2	7	14	COTTAGE	384	n/a	n/a	0	0	0
3434.446	n/a	REC_WORD	1717223	wordpools/wasnorm_wordpool_576.txt	LTP258	ltpFR2	7	14	LONDON	843	n/a	n/a	0	0	0
3471.43	n/a	REC_WORD	1735715	wordpools/wasnorm_wordpool_576.txt	LTP258	ltpFR2	7	14	SHORTCAKE	1292	n/a	n/a	0	0	0
3472.652	n/a	REC_WORD	1736326	wordpools/wasnorm_wordpool_576.txt	LTP258	ltpFR2	7	14	WRIST	1626	n/a	n/a	0	0	0
3473.558	n/a	REC_WORD	1736779	wordpools/wasnorm_wordpool_576.txt	LTP258	ltpFR2	7	14	HAND	683	n/a	n/a	0	0	0
3474.676	n/a	REC_WORD	1737338	wordpools/wasnorm_wordpool_576.txt	LTP258	ltpFR2	7	14	POISON	1096	n/a	n/a	0	0	0
3476.982	n/a	REC_WORD	1738491	wordpools/wasnorm_wordpool_576.txt	LTP258	ltpFR2	7	14	IDOL	733	n/a	n/a	0	0	0
3477.856	n/a	REC_WORD	1738928	wordpools/wasnorm_wordpool_576.txt	LTP258	ltpFR2	7	14	UNCLE	1536	n/a	n/a	0	0	0
3500.628	n/a	DISTRACTOR	1750314	n/a	LTP258	ltpFR2	7	15	n/a	n/a	n/a	n/a	0	0	0
3500.628	n/a	START	1750314	n/a	LTP258	ltpFR2	7	n/a	n/a	n/a	24	n/a	n/a	n/a	n/a
3500.662	n/a	PROB	1750331	n/a	LTP258	ltpFR2	7	n/a	n/a	n/a	24	10	6	2	2
3501.826	n/a	PROB	1750913	n/a	LTP258	ltpFR2	7	n/a	n/a	n/a	24	17	9	1	7
3502.858	n/a	PROB	1751429	n/a	LTP258	ltpFR2	7	n/a	n/a	n/a	24	14	5	6	3
3504.19	n/a	PROB	1752095	n/a	LTP258	ltpFR2	7	n/a	n/a	n/a	24	11	6	1	4
3505.356	n/a	PROB	1752678	n/a	LTP258	ltpFR2	7	n/a	n/a	n/a	24	19	9	4	6
3506.236	n/a	PROB	1753118	n/a	LTP258	ltpFR2	7	n/a	n/a	n/a	24	19	8	9	2
3507.186	n/a	PROB	1753593	n/a	LTP258	ltpFR2	7	n/a	n/a	n/a	24	17	3	8	6
3508.434	n/a	PROB	1754217	n/a	LTP258	ltpFR2	7	n/a	n/a	n/a	24	12	1	8	3
3509.832	n/a	PROB	1754916	n/a	LTP258	ltpFR2	7	n/a	n/a	n/a	24	16	2	6	8
3511.894	n/a	PROB	1755947	n/a	LTP258	ltpFR2	7	n/a	n/a	n/a	24	13	8	1	4
3513.576	n/a	PROB	1756788	n/a	LTP258	ltpFR2	7	n/a	n/a	n/a	24	22	6	9	7
3515.272	n/a	PROB	1757636	n/a	LTP258	ltpFR2	7	n/a	n/a	n/a	24	13	4	5	4
3516.406	n/a	PROB	1758203	n/a	LTP258	ltpFR2	7	n/a	n/a	n/a	24	26	9	8	9
3518.186	n/a	PROB	1759093	n/a	LTP258	ltpFR2	7	n/a	n/a	n/a	24	19	8	5	6
3520.198	n/a	PROB	1760099	n/a	LTP258	ltpFR2	7	n/a	n/a	n/a	24	14	4	3	7
3521.432	n/a	PROB	1760716	n/a	LTP258	ltpFR2	7	n/a	n/a	n/a	24	18	3	8	7
3523.602	n/a	STOP	1761801	n/a	LTP258	ltpFR2	7	n/a	n/a	n/a	24	n/a	n/a	n/a	n/a
3525.542	n/a	WORD	1762771	wordpools/wasnorm_wordpool_576.txt	LTP258	ltpFR2	7	15	COMET	353	n/a	n/a	0	0	0
3528.254	n/a	WORD	1764127	wordpools/wasnorm_wordpool_576.txt	LTP258	ltpFR2	7	15	MATTRESS	879	n/a	n/a	0	0	0
3530.734	n/a	WORD	1765367	wordpools/wasnorm_wordpool_576.txt	LTP258	ltpFR2	7	15	CIGAR	308	n/a	n/a	0	0	0
3533.18	n/a	WORD	1766590	wordpools/wasnorm_wordpool_576.txt	LTP258	ltpFR2	7	15	DRESSER	496	n/a	n/a	0	0	0
3535.892	n/a	WORD	1767946	wordpools/wasnorm_wordpool_576.txt	LTP258	ltpFR2	7	15	ROCKET	1202	n/a	n/a	0	0	0
3538.39	n/a	WORD	1769195	wordpools/wasnorm_wordpool_576.txt	LTP258	ltpFR2	7	15	DRINK	498	n/a	n/a	0	0	0
3541.068	n/a	WORD	1770534	wordpools/wasnorm_wordpool_576.txt	LTP258	ltpFR2	7	15	GRILL	661	n/a	n/a	0	0	0
3543.814	n/a	WORD	1771907	wordpools/wasnorm_wordpool_576.txt	LTP258	ltpFR2	7	15	BREAST	171	n/a	n/a	0	0	0
3546.56	n/a	WORD	1773280	wordpools/wasnorm_wordpool_576.txt	LTP258	ltpFR2	7	15	CHAUFFEUR	283	n/a	n/a	0	0	0
3549.04	n/a	WORD	1774520	wordpools/wasnorm_wordpool_576.txt	LTP258	ltpFR2	7	15	BRANDY	169	n/a	n/a	0	0	0
3551.486	n/a	WORD	1775743	wordpools/wasnorm_wordpool_576.txt	LTP258	ltpFR2	7	15	LADDER	793	n/a	n/a	0	0	0
3554.098	n/a	WORD	1777049	wordpools/wasnorm_wordpool_576.txt	LTP258	ltpFR2	7	15	POLICE	1098	n/a	n/a	0	0	0
3556.91	n/a	WORD	1778455	wordpools/wasnorm_wordpool_576.txt	LTP258	ltpFR2	7	15	SPOON	1357	n/a	n/a	0	0	0
3559.574	n/a	WORD	1779787	wordpools/wasnorm_wordpool_576.txt	LTP258	ltpFR2	7	15	BUTCHER	203	n/a	n/a	0	0	0
3562.054	n/a	WORD	1781027	wordpools/wasnorm_wordpool_576.txt	LTP258	ltpFR2	7	15	BOYFRIEND	162	n/a	n/a	0	0	0
3564.732	n/a	WORD	1782366	wordpools/wasnorm_wordpool_576.txt	LTP258	ltpFR2	7	15	PLATE	1086	n/a	n/a	0	0	0
3567.246	n/a	WORD	1783623	wordpools/wasnorm_wordpool_576.txt	LTP258	ltpFR2	7	15	POSSUM	1112	n/a	n/a	0	0	0
3569.758	n/a	WORD	1784879	wordpools/wasnorm_wordpool_576.txt	LTP258	ltpFR2	7	15	BEAVER	109	n/a	n/a	0	0	0
3572.322	n/a	WORD	1786161	wordpools/wasnorm_wordpool_576.txt	LTP258	ltpFR2	7	15	CORAL	378	n/a	n/a	0	0	0
3574.9	n/a	WORD	1787450	wordpools/wasnorm_wordpool_576.txt	LTP258	ltpFR2	7	15	BLENDER	136	n/a	n/a	0	0	0
3577.398	n/a	WORD	1788699	wordpools/wasnorm_wordpool_576.txt	LTP258	ltpFR2	7	15	CURTAIN	427	n/a	n/a	0	0	0
3580.16	n/a	WORD	1790080	wordpools/wasnorm_wordpool_576.txt	LTP258	ltpFR2	7	15	BLADE	134	n/a	n/a	0	0	0
3582.74	n/a	WORD	1791370	wordpools/wasnorm_wordpool_576.txt	LTP258	ltpFR2	7	15	CRAB	397	n/a	n/a	0	0	0
3585.288	n/a	WORD	1792644	wordpools/wasnorm_wordpool_576.txt	LTP258	ltpFR2	7	15	BINDER	127	n/a	n/a	0	0	0
3586.9	n/a	START	1793450	n/a	LTP258	ltpFR2	7	n/a	n/a	n/a	25	n/a	n/a	n/a	n/a
3587.902	n/a	DISTRACTOR	1793951	n/a	LTP258	ltpFR2	7	15	n/a	n/a	n/a	n/a	0	0	0
3587.916	n/a	PROB	1793958	n/a	LTP258	ltpFR2	7	n/a	n/a	n/a	25	20	9	6	5
3589.246	n/a	PROB	1794623	n/a	LTP258	ltpFR2	7	n/a	n/a	n/a	25	25	9	7	9
3591.444	n/a	PROB	1795722	n/a	LTP258	ltpFR2	7	n/a	n/a	n/a	25	19	7	5	7
3594.024	n/a	PROB	1797012	n/a	LTP258	ltpFR2	7	n/a	n/a	n/a	25	18	4	8	6
3594.922	n/a	PROB	1797461	n/a	LTP258	ltpFR2	7	n/a	n/a	n/a	25	9	2	2	5
3596.104	n/a	PROB	1798052	n/a	LTP258	ltpFR2	7	n/a	n/a	n/a	25	23	8	6	9
3598.2	n/a	PROB	1799100	n/a	LTP258	ltpFR2	7	n/a	n/a	n/a	25	19	8	5	6
3599.55	n/a	PROB	1799775	n/a	LTP258	ltpFR2	7	n/a	n/a	n/a	25	16	3	9	4
3601.446	n/a	PROB	1800723	n/a	LTP258	ltpFR2	7	n/a	n/a	n/a	25	16	9	2	5
3603.476	n/a	PROB	1801738	n/a	LTP258	ltpFR2	7	n/a	n/a	n/a	25	12	3	4	5
3605.256	n/a	PROB	1802628	n/a	LTP258	ltpFR2	7	n/a	n/a	n/a	25	19	4	6	9
3606.222	n/a	PROB	1803111	n/a	LTP258	ltpFR2	7	n/a	n/a	n/a	25	20	4	7	9
3607.454	n/a	PROB	1803727	n/a	LTP258	ltpFR2	7	n/a	n/a	n/a	25	11	4	4	3
3610.9	n/a	STOP	1805450	n/a	LTP258	ltpFR2	7	n/a	n/a	n/a	25	n/a	n/a	n/a	n/a
3612.762	n/a	REC_START	1806381	n/a	LTP258	ltpFR2	7	15	n/a	n/a	n/a	n/a	0	0	0
3616.652	n/a	REC_WORD	1808326	wordpools/wasnorm_wordpool_576.txt	LTP258	ltpFR2	7	15	POSSUM	1112	n/a	n/a	0	0	0
3617.564	n/a	REC_WORD	1808782	wordpools/wasnorm_wordpool_576.txt	LTP258	ltpFR2	7	15	BLADE	134	n/a	n/a	0	0	0
3618.332	n/a	REC_WORD	1809166	wordpools/wasnorm_wordpool_576.txt	LTP258	ltpFR2	7	15	BLENDER	136	n/a	n/a	0	0	0
3627.048	n/a	REC_WORD	1813524	wordpools/wasnorm_wordpool_576.txt	LTP258	ltpFR2	7	15	SPOON	1357	n/a	n/a	0	0	0
3628.016	n/a	REC_WORD	1814008	wordpools/wasnorm_wordpool_576.txt	LTP258	ltpFR2	7	15	BUTCHER	203	n/a	n/a	0	0	0
3628.74	n/a	REC_WORD	1814370	wordpools/wasnorm_wordpool_576.txt	LTP258	ltpFR2	7	15	LADDER	793	n/a	n/a	0	0	0
3629.422	n/a	REC_WORD	1814711	wordpools/wasnorm_wordpool_576.txt	LTP258	ltpFR2	7	15	POLICE	1098	n/a	n/a	0	0	0
3631.556	n/a	REC_WORD	1815778	wordpools/wasnorm_wordpool_576.txt	LTP258	ltpFR2	7	15	DRESSER	496	n/a	n/a	0	0	0
3632.406	n/a	REC_WORD	1816203	wordpools/wasnorm_wordpool_576.txt	LTP258	ltpFR2	7	15	ROCKET	1202	n/a	n/a	0	0	0
3633.284	n/a	REC_WORD	1816642	wordpools/wasnorm_wordpool_576.txt	LTP258	ltpFR2	7	15	GRILL	661	n/a	n/a	0	0	0
3634.13	n/a	REC_WORD	1817065	wordpools/wasnorm_wordpool_576.txt	LTP258	ltpFR2	7	15	DRINK	498	n/a	n/a	0	0	0
3635.162	n/a	REC_WORD	1817581	wordpools/wasnorm_wordpool_576.txt	LTP258	ltpFR2	7	15	BRANDY	169	n/a	n/a	0	0	0
3636.78	n/a	REC_WORD	1818390	wordpools/wasnorm_wordpool_576.txt	LTP258	ltpFR2	7	15	CHAUFFEUR	283	n/a	n/a	0	0	0
3639.934	n/a	REC_WORD	1819967	wordpools/wasnorm_wordpool_576.txt	LTP258	ltpFR2	7	15	MATTRESS	879	n/a	n/a	0	0	0
3640.752	n/a	REC_WORD	1820376	wordpools/wasnorm_wordpool_576.txt	LTP258	ltpFR2	7	15	CIGAR	308	n/a	n/a	0	0	0
3641.774	n/a	REC_WORD	1820887	wordpools/wasnorm_wordpool_576.txt	LTP258	ltpFR2	7	15	COMET	353	n/a	n/a	0	0	0
3644.53	n/a	REC_WORD	1822265	wordpools/wasnorm_wordpool_576.txt	LTP258	ltpFR2	7	15	ROCKET	1202	n/a	n/a	0	0	0
3703.412	n/a	WORD	1851706	wordpools/wasnorm_wordpool_576.txt	LTP258	ltpFR2	7	16	VALLEY	1545	n/a	n/a	0	0	0
3706.09	n/a	WORD	1853045	wordpools/wasnorm_wordpool_576.txt	LTP258	ltpFR2	7	16	SUMMIT	1405	n/a	n/a	0	0	0
3708.736	n/a	WORD	1854368	wordpools/wasnorm_wordpool_576.txt	LTP258	ltpFR2	7	16	BANJO	82	n/a	n/a	0	0	0
3711.466	n/a	WORD	1855733	wordpools/wasnorm_wordpool_576.txt	LTP258	ltpFR2	7	16	MAMMAL	861	n/a	n/a	0	0	0
3713.944	n/a	WORD	1856972	wordpools/wasnorm_wordpool_576.txt	LTP258	ltpFR2	7	16	BUGGY	188	n/a	n/a	0	0	0
3716.526	n/a	WORD	1858263	wordpools/wasnorm_wordpool_576.txt	LTP258	ltpFR2	7	16	HOOD	714	n/a	n/a	0	0	0
3719.17	n/a	WORD	1859585	wordpools/wasnorm_wordpool_576.txt	LTP258	ltpFR2	7	16	SILK	1307	n/a	n/a	0	0	0
3721.684	n/a	WORD	1860842	wordpools/wasnorm_wordpool_576.txt	LTP258	ltpFR2	7	16	YACHT	1629	n/a	n/a	0	0	0
3724.43	n/a	WORD	1862215	wordpools/wasnorm_wordpool_576.txt	LTP258	ltpFR2	7	16	FOOT	590	n/a	n/a	0	0	0
3727.042	n/a	WORD	1863521	wordpools/wasnorm_wordpool_576.txt	LTP258	ltpFR2	7	16	DONKEY	484	n/a	n/a	0	0	0
3729.49	n/a	WORD	1864745	wordpools/wasnorm_wordpool_576.txt	LTP258	ltpFR2	7	16	LEG	809	n/a	n/a	0	0	0
3731.92	n/a	WORD	1865960	wordpools/wasnorm_wordpool_576.txt	LTP258	ltpFR2	7	16	VIKING	1565	n/a	n/a	0	0	0
3734.616	n/a	WORD	1867308	wordpools/wasnorm_wordpool_576.txt	LTP258	ltpFR2	7	16	OINTMENT	974	n/a	n/a	0	0	0
3737.278	n/a	WORD	1868639	wordpools/wasnorm_wordpool_576.txt	LTP258	ltpFR2	7	16	TART	1436	n/a	n/a	0	0	0
3739.708	n/a	WORD	1869854	wordpools/wasnorm_wordpool_576.txt	LTP258	ltpFR2	7	16	CANDY	230	n/a	n/a	0	0	0
3742.422	n/a	WORD	1871211	wordpools/wasnorm_wordpool_576.txt	LTP258	ltpFR2	7	16	ZEBRA	1635	n/a	n/a	0	0	0
3745.15	n/a	WORD	1872575	wordpools/wasnorm_wordpool_576.txt	LTP258	ltpFR2	7	16	COFFEE	341	n/a	n/a	0	0	0
3747.614	n/a	WORD	1873807	wordpools/wasnorm_wordpool_576.txt	LTP258	ltpFR2	7	16	SLOPE	1328	n/a	n/a	0	0	0
3750.226	n/a	WORD	1875113	wordpools/wasnorm_wordpool_576.txt	LTP258	ltpFR2	7	16	PADDING	999	n/a	n/a	0	0	0
3752.854	n/a	WORD	1876427	wordpools/wasnorm_wordpool_576.txt	LTP258	ltpFR2	7	16	PENGUIN	1044	n/a	n/a	0	0	0
3755.468	n/a	WORD	1877734	wordpools/wasnorm_wordpool_576.txt	LTP258	ltpFR2	7	16	DRESS	495	n/a	n/a	0	0	0
3757.98	n/a	WORD	1878990	wordpools/wasnorm_wordpool_576.txt	LTP258	ltpFR2	7	16	THREAD	1460	n/a	n/a	0	0	0
3760.41	n/a	WORD	1880205	wordpools/wasnorm_wordpool_576.txt	LTP258	ltpFR2	7	16	GUITAR	670	n/a	n/a	0	0	0
3763.072	n/a	WORD	1881536	wordpools/wasnorm_wordpool_576.txt	LTP258	ltpFR2	7	16	GALLON	618	n/a	n/a	0	0	0
3764.688	n/a	START	1882344	n/a	LTP258	ltpFR2	7	n/a	n/a	n/a	26	n/a	n/a	n/a	n/a
3765.696	n/a	DISTRACTOR	1882848	n/a	LTP258	ltpFR2	7	16	n/a	n/a	n/a	n/a	0	0	0
3765.702	n/a	PROB	1882851	n/a	LTP258	ltpFR2	7	n/a	n/a	n/a	26	9	1	3	5
3766.934	n/a	PROB	1883467	n/a	LTP258	ltpFR2	7	n/a	n/a	n/a	26	15	5	6	4
3768.182	n/a	PROB	1884091	n/a	LTP258	ltpFR2	7	n/a	n/a	n/a	26	12	5	3	4
3769.48	n/a	PROB	1884740	n/a	LTP258	ltpFR2	7	n/a	n/a	n/a	26	13	2	4	7
3770.944	n/a	PROB	1885472	n/a	LTP258	ltpFR2	7	n/a	n/a	n/a	26	18	9	8	1
3771.892	n/a	PROB	1885946	n/a	LTP258	ltpFR2	7	n/a	n/a	n/a	26	17	6	3	8
3773.458	n/a	PROB	1886729	n/a	LTP258	ltpFR2	7	n/a	n/a	n/a	26	1	7	1	5
3774.54	n/a	PROB	1887270	n/a	LTP258	ltpFR2	7	n/a	n/a	n/a	26	6	3	1	2
3775.522	n/a	PROB	1887761	n/a	LTP258	ltpFR2	7	n/a	n/a	n/a	26	22	4	9	9
3776.918	n/a	PROB	1888459	n/a	LTP258	ltpFR2	7	n/a	n/a	n/a	26	19	8	3	8
3778.3	n/a	PROB	1889150	n/a	LTP258	ltpFR2	7	n/a	n/a	n/a	26	19	9	3	7
3779.714	n/a	PROB	1889857	n/a	LTP258	ltpFR2	7	n/a	n/a	n/a	26	5	3	1	1
3780.53	n/a	PROB	1890265	n/a	LTP258	ltpFR2	7	n/a	n/a	n/a	26	17	7	4	6
3781.412	n/a	PROB	1890706	n/a	LTP258	ltpFR2	7	n/a	n/a	n/a	26	10	6	1	3
3782.86	n/a	PROB	1891430	n/a	LTP258	ltpFR2	7	n/a	n/a	n/a	26	14	3	8	3
3784.158	n/a	PROB	1892079	n/a	LTP258	ltpFR2	7	n/a	n/a	n/a	26	11	6	2	3
3785.838	n/a	PROB	1892919	n/a	LTP258	ltpFR2	7	n/a	n/a	n/a	26	9	5	1	3
3787.054	n/a	PROB	1893527	n/a	LTP258	ltpFR2	7	n/a	n/a	n/a	26	20	3	9	8
3788.572	n/a	STOP	1894286	n/a	LTP258	ltpFR2	7	n/a	n/a	n/a	26	n/a	n/a	n/a	n/a
3790.55	n/a	REC_START	1895275	n/a	LTP258	ltpFR2	7	16	n/a	n/a	n/a	n/a	0	0	0
3793.698	n/a	REC_WORD	1896849	wordpools/wasnorm_wordpool_576.txt	LTP258	ltpFR2	7	16	PENGUIN	1044	n/a	n/a	0	0	0
3794.58	n/a	REC_WORD	1897290	wordpools/wasnorm_wordpool_576.txt	LTP258	ltpFR2	7	16	ZEBRA	1635	n/a	n/a	0	0	0
3795.394	n/a	REC_WORD	1897697	wordpools/wasnorm_wordpool_576.txt	LTP258	ltpFR2	7	16	DONKEY	484	n/a	n/a	0	0	0
3796.96	n/a	REC_WORD	1898480	wordpools/wasnorm_wordpool_576.txt	LTP258	ltpFR2	7	16	LEG	809	n/a	n/a	0	0	0
3797.702	n/a	REC_WORD	1898851	wordpools/wasnorm_wordpool_576.txt	LTP258	ltpFR2	7	16	FOOT	590	n/a	n/a	0	0	0
3798.606	n/a	REC_WORD	1899303	wordpools/wasnorm_wordpool_576.txt	LTP258	ltpFR2	7	16	OINTMENT	974	n/a	n/a	0	0	0
3799.846	n/a	REC_WORD	1899923	wordpools/wasnorm_wordpool_576.txt	LTP258	ltpFR2	7	16	VIKING	1565	n/a	n/a	0	0	0
3803.526	n/a	REC_WORD	1901763	wordpools/wasnorm_wordpool_576.txt	LTP258	ltpFR2	7	16	VALLEY	1545	n/a	n/a	0	0	0
3804.36	n/a	REC_WORD	1902180	wordpools/wasnorm_wordpool_576.txt	LTP258	ltpFR2	7	16	HOOD	714	n/a	n/a	0	0	0
3805.028	n/a	REC_WORD	1902514	wordpools/wasnorm_wordpool_576.txt	LTP258	ltpFR2	7	16	SUMMIT	1405	n/a	n/a	0	0	0
3805.884	n/a	REC_WORD	1902942	wordpools/wasnorm_wordpool_576.txt	LTP258	ltpFR2	7	16	GUITAR	670	n/a	n/a	0	0	0
3806.806	n/a	REC_WORD	1903403	wordpools/wasnorm_wordpool_576.txt	LTP258	ltpFR2	7	16	BANJO	82	n/a	n/a	0	0	0
3844.374	n/a	REC_WORD	1922187	wordpools/wasnorm_wordpool_576.txt	LTP258	ltpFR2	7	16	TART	1436	n/a	n/a	0	0	0
3845.132	n/a	REC_WORD	1922566	wordpools/wasnorm_wordpool_576.txt	LTP258	ltpFR2	7	16	CANDY	230	n/a	n/a	0	0	0
3867.168	n/a	REST_REWET	1933584	n/a	LTP258	ltpFR2	7	16	n/a	n/a	n/a	n/a	0	0	0
4345.546	n/a	WORD	2172773	wordpools/wasnorm_wordpool_576.txt	LTP258	ltpFR2	7	17	TURKEY	1520	n/a	n/a	0	0	0
4348.29	n/a	WORD	2174145	wordpools/wasnorm_wordpool_576.txt	LTP258	ltpFR2	7	17	FRECKLE	602	n/a	n/a	0	0	0
4350.786	n/a	WORD	2175393	wordpools/wasnorm_wordpool_576.txt	LTP258	ltpFR2	7	17	CLOTHES	327	n/a	n/a	0	0	0
4353.216	n/a	WORD	2176608	wordpools/wasnorm_wordpool_576.txt	LTP258	ltpFR2	7	17	SWIMMER	1420	n/a	n/a	0	0	0
4355.662	n/a	WORD	2177831	wordpools/wasnorm_wordpool_576.txt	LTP258	ltpFR2	7	17	THIEF	1456	n/a	n/a	0	0	0
4358.276	n/a	WORD	2179138	wordpools/wasnorm_wordpool_576.txt	LTP258	ltpFR2	7	17	ROBBER	1197	n/a	n/a	0	0	0
