mstime	trial_type	stim_file	subject	experiment	session	trial	task	item_name	item_num	recog_conf	resp	answer	test_x	test_y	test_z	color_b	color_g	color_r	case	font
0	SESS_START	n/a	LTP210	ltpFR	12	n/a	n/a	n/a	n/a	1	n/a	n/a	0	0	0	n/a	n/a	n/a	n/a	n/a
51408	START	n/a	LTP210	ltpFR	12	n/a	n/a	n/a	n/a	n/a	n/a	n/a	n/a	n/a	n/a	n/a	n/a	n/a	n/a	n/a
51458	PROB	n/a	LTP210	ltpFR	12	n/a	n/a	n/a	n/a	n/a	n/a	22	9	4	9	n/a	n/a	n/a	n/a	n/a
53398	PROB	n/a	LTP210	ltpFR	12	n/a	n/a	n/a	n/a	n/a	n/a	25	8	8	7	n/a	n/a	n/a	n/a	n/a
55439	PROB	n/a	LTP210	ltpFR	12	n/a	n/a	n/a	n/a	n/a	n/a	11	1	8	2	n/a	n/a	n/a	n/a	n/a
57180	PROB	n/a	LTP210	ltpFR	12	n/a	n/a	n/a	n/a	n/a	n/a	9	1	2	6	n/a	n/a	n/a	n/a	n/a
58785	PROB	n/a	LTP210	ltpFR	12	n/a	n/a	n/a	n/a	n/a	n/a	20	8	5	7	n/a	n/a	n/a	n/a	n/a
60492	PROB	n/a	LTP210	ltpFR	12	n/a	n/a	n/a	n/a	n/a	n/a	14	5	7	2	n/a	n/a	n/a	n/a	n/a
62952	PROB	n/a	LTP210	ltpFR	12	n/a	n/a	n/a	n/a	n/a	n/a	11	2	3	6	n/a	n/a	n/a	n/a	n/a
64490	PROB	n/a	LTP210	ltpFR	12	n/a	n/a	n/a	n/a	n/a	n/a	11	1	8	2	n/a	n/a	n/a	n/a	n/a
65711	PROB	n/a	LTP210	ltpFR	12	n/a	n/a	n/a	n/a	n/a	n/a	22	7	6	9	n/a	n/a	n/a	n/a	n/a
67468	PROB	n/a	LTP210	ltpFR	12	n/a	n/a	n/a	n/a	n/a	n/a	19	9	1	9	n/a	n/a	n/a	n/a	n/a
69159	PROB	n/a	LTP210	ltpFR	12	n/a	n/a	n/a	n/a	n/a	n/a	6	1	1	4	n/a	n/a	n/a	n/a	n/a
70674	STOP	n/a	LTP210	ltpFR	12	n/a	n/a	n/a	n/a	n/a	n/a	n/a	n/a	n/a	n/a	n/a	n/a	n/a	n/a	n/a
94974	START	n/a	LTP210	ltpFR	12	n/a	n/a	n/a	n/a	n/a	n/a	n/a	n/a	n/a	n/a	n/a	n/a	n/a	n/a	n/a
96490	PROB	n/a	LTP210	ltpFR	12	n/a	n/a	n/a	n/a	n/a	n/a	17	6	6	5	n/a	n/a	n/a	n/a	n/a
99272	PROB	n/a	LTP210	ltpFR	12	n/a	n/a	n/a	n/a	n/a	n/a	17	9	3	5	n/a	n/a	n/a	n/a	n/a
101192	PROB	n/a	LTP210	ltpFR	12	n/a	n/a	n/a	n/a	n/a	n/a	17	2	8	7	n/a	n/a	n/a	n/a	n/a
102283	STOP	n/a	LTP210	ltpFR	12	n/a	n/a	n/a	n/a	n/a	n/a	n/a	n/a	n/a	n/a	n/a	n/a	n/a	n/a	n/a
104024	WORD	wordpools/wasnorm_wordpool_less_exclusions.txt	LTP210	ltpFR	12	1	1	CAMEL	223	n/a	1	n/a	0	0	0	1	0.412841796875	0.57763671875	lower	../fonts/zerothre.ttf
107036	START	n/a	LTP210	ltpFR	12	n/a	n/a	n/a	n/a	n/a	n/a	n/a	n/a	n/a	n/a	n/a	n/a	n/a	n/a	n/a
108118	PROB	n/a	LTP210	ltpFR	12	n/a	n/a	n/a	n/a	n/a	n/a	16	1	8	7	n/a	n/a	n/a	n/a	n/a
110013	PROB	n/a	LTP210	ltpFR	12	n/a	n/a	n/a	n/a	n/a	n/a	11	3	5	3	n/a	n/a	n/a	n/a	n/a
111434	PROB	n/a	LTP210	ltpFR	12	n/a	n/a	n/a	n/a	n/a	n/a	12	2	5	5	n/a	n/a	n/a	n/a	n/a
112504	PROB	n/a	LTP210	ltpFR	12	n/a	n/a	n/a	n/a	n/a	n/a	8	2	3	3	n/a	n/a	n/a	n/a	n/a
114762	STOP	n/a	LTP210	ltpFR	12	n/a	n/a	n/a	n/a	n/a	n/a	n/a	n/a	n/a	n/a	n/a	n/a	n/a	n/a	n/a
115952	WORD	wordpools/wasnorm_wordpool_less_exclusions.txt	LTP210	ltpFR	12	1	1	TORNADO	1485	n/a	0	n/a	0	0	0	1	0.412841796875	0.57763671875	lower	../fonts/zerothre.ttf
118964	START	n/a	LTP210	ltpFR	12	n/a	n/a	n/a	n/a	n/a	n/a	n/a	n/a	n/a	n/a	n/a	n/a	n/a	n/a	n/a
119984	PROB	n/a	LTP210	ltpFR	12	n/a	n/a	n/a	n/a	n/a	n/a	18	4	6	8	n/a	n/a	n/a	n/a	n/a
121322	PROB	n/a	LTP210	ltpFR	12	n/a	n/a	n/a	n/a	n/a	n/a	15	3	3	9	n/a	n/a	n/a	n/a	n/a
124567	PROB	n/a	LTP210	ltpFR	12	n/a	n/a	n/a	n/a	n/a	n/a	15	6	8	1	n/a	n/a	n/a	n/a	n/a
126051	STOP	n/a	LTP210	ltpFR	12	n/a	n/a	n/a	n/a	n/a	n/a	n/a	n/a	n/a	n/a	n/a	n/a	n/a	n/a	n/a
127880	WORD	wordpools/wasnorm_wordpool_less_exclusions.txt	LTP210	ltpFR	12	1	1	WARDROBE	1587	n/a	0	n/a	0	0	0	1	0.412841796875	0.57763671875	lower	../fonts/zerothre.ttf
130892	START	n/a	LTP210	ltpFR	12	n/a	n/a	n/a	n/a	n/a	n/a	n/a	n/a	n/a	n/a	n/a	n/a	n/a	n/a	n/a
131756	PROB	n/a	LTP210	ltpFR	12	n/a	n/a	n/a	n/a	n/a	n/a	9	4	2	3	n/a	n/a	n/a	n/a	n/a
133668	PROB	n/a	LTP210	ltpFR	12	n/a	n/a	n/a	n/a	n/a	n/a	13	8	3	2	n/a	n/a	n/a	n/a	n/a
135692	PROB	n/a	LTP210	ltpFR	12	n/a	n/a	n/a	n/a	n/a	n/a	8	2	1	5	n/a	n/a	n/a	n/a	n/a
137111	PROB	n/a	LTP210	ltpFR	12	n/a	n/a	n/a	n/a	n/a	n/a	17	6	2	9	n/a	n/a	n/a	n/a	n/a
138738	STOP	n/a	LTP210	ltpFR	12	n/a	n/a	n/a	n/a	n/a	n/a	n/a	n/a	n/a	n/a	n/a	n/a	n/a	n/a	n/a
140005	WORD	wordpools/wasnorm_wordpool_less_exclusions.txt	LTP210	ltpFR	12	1	1	CHEDDAR	286	n/a	0	n/a	0	0	0	1	0.412841796875	0.57763671875	lower	../fonts/zerothre.ttf
143021	START	n/a	LTP210	ltpFR	12	n/a	n/a	n/a	n/a	n/a	n/a	n/a	n/a	n/a	n/a	n/a	n/a	n/a	n/a	n/a
143890	PROB	n/a	LTP210	ltpFR	12	n/a	n/a	n/a	n/a	n/a	n/a	19	7	8	4	n/a	n/a	n/a	n/a	n/a
145608	PROB	n/a	LTP210	ltpFR	12	n/a	n/a	n/a	n/a	n/a	n/a	10	7	2	1	n/a	n/a	n/a	n/a	n/a
146763	PROB	n/a	LTP210	ltpFR	12	n/a	n/a	n/a	n/a	n/a	n/a	21	5	8	8	n/a	n/a	n/a	n/a	n/a
148859	PROB	n/a	LTP210	ltpFR	12	n/a	n/a	n/a	n/a	n/a	n/a	17	5	6	6	n/a	n/a	n/a	n/a	n/a
150586	STOP	n/a	LTP210	ltpFR	12	n/a	n/a	n/a	n/a	n/a	n/a	n/a	n/a	n/a	n/a	n/a	n/a	n/a	n/a	n/a
152205	WORD	wordpools/wasnorm_wordpool_less_exclusions.txt	LTP210	ltpFR	12	1	1	PIZZA	1079	n/a	0	n/a	0	0	0	1	0.412841796875	0.57763671875	lower	../fonts/zerothre.ttf
155217	START	n/a	LTP210	ltpFR	12	n/a	n/a	n/a	n/a	n/a	n/a	n/a	n/a	n/a	n/a	n/a	n/a	n/a	n/a	n/a
156321	PROB	n/a	LTP210	ltpFR	12	n/a	n/a	n/a	n/a	n/a	n/a	19	9	8	2	n/a	n/a	n/a	n/a	n/a
157486	PROB	n/a	LTP210	ltpFR	12	n/a	n/a	n/a	n/a	n/a	n/a	13	3	1	9	n/a	n/a	n/a	n/a	n/a
158947	PROB	n/a	LTP210	ltpFR	12	n/a	n/a	n/a	n/a	n/a	n/a	12	6	3	3	n/a	n/a	n/a	n/a	n/a
160365	PROB	n/a	LTP210	ltpFR	12	n/a	n/a	n/a	n/a	n/a	n/a	18	5	4	9	n/a	n/a	n/a	n/a	n/a
161794	STOP	n/a	LTP210	ltpFR	12	n/a	n/a	n/a	n/a	n/a	n/a	n/a	n/a	n/a	n/a	n/a	n/a	n/a	n/a	n/a
164383	WORD	wordpools/wasnorm_wordpool_less_exclusions.txt	LTP210	ltpFR	12	1	1	RUBY	1214	n/a	0	n/a	0	0	0	1	0.412841796875	0.57763671875	lower	../fonts/zerothre.ttf
167395	START	n/a	LTP210	ltpFR	12	n/a	n/a	n/a	n/a	n/a	n/a	n/a	n/a	n/a	n/a	n/a	n/a	n/a	n/a	n/a
168415	PROB	n/a	LTP210	ltpFR	12	n/a	n/a	n/a	n/a	n/a	n/a	14	1	8	5	n/a	n/a	n/a	n/a	n/a
169884	PROB	n/a	LTP210	ltpFR	12	n/a	n/a	n/a	n/a	n/a	n/a	8	2	5	1	n/a	n/a	n/a	n/a	n/a
171210	PROB	n/a	LTP210	ltpFR	12	n/a	n/a	n/a	n/a	n/a	n/a	6	1	3	2	n/a	n/a	n/a	n/a	n/a
172476	PROB	n/a	LTP210	ltpFR	12	n/a	n/a	n/a	n/a	n/a	n/a	13	2	3	8	n/a	n/a	n/a	n/a	n/a
173835	STOP	n/a	LTP210	ltpFR	12	n/a	n/a	n/a	n/a	n/a	n/a	n/a	n/a	n/a	n/a	n/a	n/a	n/a	n/a	n/a
176429	WORD	wordpools/wasnorm_wordpool_less_exclusions.txt	LTP210	ltpFR	12	1	0	BEAD	103	n/a	0	n/a	0	0	0	0	0.5869140625	0.422607421875	upper	../fonts/amplitud.ttf
179441	START	n/a	LTP210	ltpFR	12	n/a	n/a	n/a	n/a	n/a	n/a	n/a	n/a	n/a	n/a	n/a	n/a	n/a	n/a	n/a
180361	PROB	n/a	LTP210	ltpFR	12	n/a	n/a	n/a	n/a	n/a	n/a	20	6	8	6	n/a	n/a	n/a	n/a	n/a
182051	PROB	n/a	LTP210	ltpFR	12	n/a	n/a	n/a	n/a	n/a	n/a	17	8	2	7	n/a	n/a	n/a	n/a	n/a
184058	PROB	n/a	LTP210	ltpFR	12	n/a	n/a	n/a	n/a	n/a	n/a	10	1	2	7	n/a	n/a	n/a	n/a	n/a
185459	PROB	n/a	LTP210	ltpFR	12	n/a	n/a	n/a	n/a	n/a	n/a	19	6	7	7	n/a	n/a	n/a	n/a	n/a
187115	STOP	n/a	LTP210	ltpFR	12	n/a	n/a	n/a	n/a	n/a	n/a	n/a	n/a	n/a	n/a	n/a	n/a	n/a	n/a	n/a
188474	WORD	wordpools/wasnorm_wordpool_less_exclusions.txt	LTP210	ltpFR	12	1	0	OFFICE	972	n/a	1	n/a	0	0	0	0	0.5869140625	0.422607421875	upper	../fonts/amplitud.ttf
191486	START	n/a	LTP210	ltpFR	12	n/a	n/a	n/a	n/a	n/a	n/a	n/a	n/a	n/a	n/a	n/a	n/a	n/a	n/a	n/a
192686	PROB	n/a	LTP210	ltpFR	12	n/a	n/a	n/a	n/a	n/a	n/a	16	2	5	9	n/a	n/a	n/a	n/a	n/a
194862	PROB	n/a	LTP210	ltpFR	12	n/a	n/a	n/a	n/a	n/a	n/a	17	4	9	4	n/a	n/a	n/a	n/a	n/a
198299	STOP	n/a	LTP210	ltpFR	12	n/a	n/a	n/a	n/a	n/a	n/a	n/a	n/a	n/a	n/a	n/a	n/a	n/a	n/a	n/a
200553	WORD	wordpools/wasnorm_wordpool_less_exclusions.txt	LTP210	ltpFR	12	1	0	LAUNDRY	803	n/a	1	n/a	0	0	0	0	0.5869140625	0.422607421875	upper	../fonts/amplitud.ttf
203565	START	n/a	LTP210	ltpFR	12	n/a	n/a	n/a	n/a	n/a	n/a	n/a	n/a	n/a	n/a	n/a	n/a	n/a	n/a	n/a
204551	PROB	n/a	LTP210	ltpFR	12	n/a	n/a	n/a	n/a	n/a	n/a	15	2	8	5	n/a	n/a	n/a	n/a	n/a
205668	PROB	n/a	LTP210	ltpFR	12	n/a	n/a	n/a	n/a	n/a	n/a	22	9	6	8	n/a	n/a	n/a	n/a	n/a
207965	PROB	n/a	LTP210	ltpFR	12	n/a	n/a	n/a	n/a	n/a	n/a	14	8	1	3	n/a	n/a	n/a	n/a	n/a
210011	STOP	n/a	LTP210	ltpFR	12	n/a	n/a	n/a	n/a	n/a	n/a	n/a	n/a	n/a	n/a	n/a	n/a	n/a	n/a	n/a
212498	WORD	wordpools/wasnorm_wordpool_less_exclusions.txt	LTP210	ltpFR	12	1	0	SUPPER	1411	n/a	1	n/a	0	0	0	0	0.5869140625	0.422607421875	upper	../fonts/amplitud.ttf
215510	START	n/a	LTP210	ltpFR	12	n/a	n/a	n/a	n/a	n/a	n/a	n/a	n/a	n/a	n/a	n/a	n/a	n/a	n/a	n/a
216676	PROB	n/a	LTP210	ltpFR	12	n/a	n/a	n/a	n/a	n/a	n/a	17	4	6	7	n/a	n/a	n/a	n/a	n/a
218032	PROB	n/a	LTP210	ltpFR	12	n/a	n/a	n/a	n/a	n/a	n/a	20	5	9	7	n/a	n/a	n/a	n/a	n/a
219604	PROB	n/a	LTP210	ltpFR	12	n/a	n/a	n/a	n/a	n/a	n/a	12	3	6	3	n/a	n/a	n/a	n/a	n/a
222386	STOP	n/a	LTP210	ltpFR	12	n/a	n/a	n/a	n/a	n/a	n/a	n/a	n/a	n/a	n/a	n/a	n/a	n/a	n/a	n/a
224711	WORD	wordpools/wasnorm_wordpool_less_exclusions.txt	LTP210	ltpFR	12	1	0	MANAGER	863	n/a	1	n/a	0	0	0	0	0.5869140625	0.422607421875	upper	../fonts/amplitud.ttf
227723	START	n/a	LTP210	ltpFR	12	n/a	n/a	n/a	n/a	n/a	n/a	n/a	n/a	n/a	n/a	n/a	n/a	n/a	n/a	n/a
228559	PROB	n/a	LTP210	ltpFR	12	n/a	n/a	n/a	n/a	n/a	n/a	20	7	5	8	n/a	n/a	n/a	n/a	n/a
230902	PROB	n/a	LTP210	ltpFR	12	n/a	n/a	n/a	n/a	n/a	n/a	8	1	4	3	n/a	n/a	n/a	n/a	n/a
232469	PROB	n/a	LTP210	ltpFR	12	n/a	n/a	n/a	n/a	n/a	n/a	12	2	3	7	n/a	n/a	n/a	n/a	n/a
233859	PROB	n/a	LTP210	ltpFR	12	n/a	n/a	n/a	n/a	n/a	n/a	12	8	3	1	n/a	n/a	n/a	n/a	n/a
235594	STOP	n/a	LTP210	ltpFR	12	n/a	n/a	n/a	n/a	n/a	n/a	n/a	n/a	n/a	n/a	n/a	n/a	n/a	n/a	n/a
236924	WORD	wordpools/wasnorm_wordpool_less_exclusions.txt	LTP210	ltpFR	12	1	1	CHICKEN	297	n/a	1	n/a	0	0	0	1	0.412841796875	0.57763671875	lower	../fonts/zerothre.ttf
239936	START	n/a	LTP210	ltpFR	12	n/a	n/a	n/a	n/a	n/a	n/a	n/a	n/a	n/a	n/a	n/a	n/a	n/a	n/a	n/a
240889	PROB	n/a	LTP210	ltpFR	12	n/a	n/a	n/a	n/a	n/a	n/a	13	1	7	5	n/a	n/a	n/a	n/a	n/a
243328	PROB	n/a	LTP210	ltpFR	12	n/a	n/a	n/a	n/a	n/a	n/a	13	4	8	1	n/a	n/a	n/a	n/a	n/a
247674	STOP	n/a	LTP210	ltpFR	12	n/a	n/a	n/a	n/a	n/a	n/a	n/a	n/a	n/a	n/a	n/a	n/a	n/a	n/a	n/a
249154	WORD	wordpools/wasnorm_wordpool_less_exclusions.txt	LTP210	ltpFR	12	1	1	BREAST	171	n/a	0	n/a	0	0	0	1	0.412841796875	0.57763671875	lower	../fonts/zerothre.ttf
252166	START	n/a	LTP210	ltpFR	12	n/a	n/a	n/a	n/a	n/a	n/a	n/a	n/a	n/a	n/a	n/a	n/a	n/a	n/a	n/a
253336	PROB	n/a	LTP210	ltpFR	12	n/a	n/a	n/a	n/a	n/a	n/a	20	8	6	6	n/a	n/a	n/a	n/a	n/a
255022	PROB	n/a	LTP210	ltpFR	12	n/a	n/a	n/a	n/a	n/a	n/a	18	4	7	7	n/a	n/a	n/a	n/a	n/a
256710	PROB	n/a	LTP210	ltpFR	12	n/a	n/a	n/a	n/a	n/a	n/a	11	3	4	4	n/a	n/a	n/a	n/a	n/a
258400	PROB	n/a	LTP210	ltpFR	12	n/a	n/a	n/a	n/a	n/a	n/a	19	5	5	9	n/a	n/a	n/a	n/a	n/a
260067	STOP	n/a	LTP210	ltpFR	12	n/a	n/a	n/a	n/a	n/a	n/a	n/a	n/a	n/a	n/a	n/a	n/a	n/a	n/a	n/a
261216	WORD	wordpools/wasnorm_wordpool_less_exclusions.txt	LTP210	ltpFR	12	1	0	MULE	931	n/a	1	n/a	0	0	0	0	0.5869140625	0.422607421875	upper	../fonts/amplitud.ttf
264228	START	n/a	LTP210	ltpFR	12	n/a	n/a	n/a	n/a	n/a	n/a	n/a	n/a	n/a	n/a	n/a	n/a	n/a	n/a	n/a
265114	PROB	n/a	LTP210	ltpFR	12	n/a	n/a	n/a	n/a	n/a	n/a	11	2	8	1	n/a	n/a	n/a	n/a	n/a
266297	PROB	n/a	LTP210	ltpFR	12	n/a	n/a	n/a	n/a	n/a	n/a	13	7	4	2	n/a	n/a	n/a	n/a	n/a
268878	PROB	n/a	LTP210	ltpFR	12	n/a	n/a	n/a	n/a	n/a	n/a	13	9	1	3	n/a	n/a	n/a	n/a	n/a
270099	PROB	n/a	LTP210	ltpFR	12	n/a	n/a	n/a	n/a	n/a	n/a	12	3	6	3	n/a	n/a	n/a	n/a	n/a
271506	STOP	n/a	LTP210	ltpFR	12	n/a	n/a	n/a	n/a	n/a	n/a	n/a	n/a	n/a	n/a	n/a	n/a	n/a	n/a	n/a
273111	WORD	wordpools/wasnorm_wordpool_less_exclusions.txt	LTP210	ltpFR	12	1	0	ROBIN	1199	n/a	0	n/a	0	0	0	0	0.5869140625	0.422607421875	upper	../fonts/amplitud.ttf
276123	START	n/a	LTP210	ltpFR	12	n/a	n/a	n/a	n/a	n/a	n/a	n/a	n/a	n/a	n/a	n/a	n/a	n/a	n/a	n/a
277159	PROB	n/a	LTP210	ltpFR	12	n/a	n/a	n/a	n/a	n/a	n/a	20	7	4	9	n/a	n/a	n/a	n/a	n/a
279012	PROB	n/a	LTP210	ltpFR	12	n/a	n/a	n/a	n/a	n/a	n/a	13	4	2	7	n/a	n/a	n/a	n/a	n/a
280936	PROB	n/a	LTP210	ltpFR	12	n/a	n/a	n/a	n/a	n/a	n/a	16	9	4	3	n/a	n/a	n/a	n/a	n/a
283307	STOP	n/a	LTP210	ltpFR	12	n/a	n/a	n/a	n/a	n/a	n/a	n/a	n/a	n/a	n/a	n/a	n/a	n/a	n/a	n/a
285319	WORD	wordpools/wasnorm_wordpool_less_exclusions.txt	LTP210	ltpFR	12	1	0	ANTELOPE	27	n/a	1	n/a	0	0	0	0	0.5869140625	0.422607421875	upper	../fonts/amplitud.ttf
288335	START	n/a	LTP210	ltpFR	12	n/a	n/a	n/a	n/a	n/a	n/a	n/a	n/a	n/a	n/a	n/a	n/a	n/a	n/a	n/a
289322	PROB	n/a	LTP210	ltpFR	12	n/a	n/a	n/a	n/a	n/a	n/a	15	4	4	7	n/a	n/a	n/a	n/a	n/a
291212	PROB	n/a	LTP210	ltpFR	12	n/a	n/a	n/a	n/a	n/a	n/a	16	6	7	3	n/a	n/a	n/a	n/a	n/a
292965	PROB	n/a	LTP210	ltpFR	12	n/a	n/a	n/a	n/a	n/a	n/a	7	1	2	4	n/a	n/a	n/a	n/a	n/a
294536	PROB	n/a	LTP210	ltpFR	12	n/a	n/a	n/a	n/a	n/a	n/a	6	2	2	2	n/a	n/a	n/a	n/a	n/a
295530	STOP	n/a	LTP210	ltpFR	12	n/a	n/a	n/a	n/a	n/a	n/a	n/a	n/a	n/a	n/a	n/a	n/a	n/a	n/a	n/a
298269	REC_START	n/a	LTP210	ltpFR	12	1	n/a	n/a	n/a	n/a	n/a	n/a	0	0	0	n/a	n/a	n/a	n/a	n/a
299267	REC_WORD	wordpools/wasnorm_wordpool_less_exclusions.txt	LTP210	ltpFR	12	1	0	ANTELOPE	27	n/a	1	n/a	0	0	0	n/a	n/a	n/a	n/a	n/a
300976	REC_WORD	wordpools/wasnorm_wordpool_less_exclusions.txt	LTP210	ltpFR	12	1	0	MANAGER	863	n/a	1	n/a	0	0	0	n/a	n/a	n/a	n/a	n/a
302514	REC_WORD	wordpools/wasnorm_wordpool_less_exclusions.txt	LTP210	ltpFR	12	1	1	PIZZA	1079	n/a	0	n/a	0	0	0	n/a	n/a	n/a	n/a	n/a
303786	REC_WORD	wordpools/wasnorm_wordpool_less_exclusions.txt	LTP210	ltpFR	12	1	1	CHEDDAR	286	n/a	0	n/a	0	0	0	n/a	n/a	n/a	n/a	n/a
305887	REC_WORD	wordpools/wasnorm_wordpool_less_exclusions.txt	LTP210	ltpFR	12	1	1	BREAST	171	n/a	0	n/a	0	0	0	n/a	n/a	n/a	n/a	n/a
307198	REC_WORD	wordpools/wasnorm_wordpool_less_exclusions.txt	LTP210	ltpFR	12	1	1	CHICKEN	297	n/a	1	n/a	0	0	0	n/a	n/a	n/a	n/a	n/a
310177	REC_WORD	wordpools/wasnorm_wordpool_less_exclusions.txt	LTP210	ltpFR	12	1	0	ROBIN	1199	n/a	0	n/a	0	0	0	n/a	n/a	n/a	n/a	n/a
312137	REC_WORD	wordpools/wasnorm_wordpool_less_exclusions.txt	LTP210	ltpFR	12	1	0	OFFICE	972	n/a	1	n/a	0	0	0	n/a	n/a	n/a	n/a	n/a
345821	REC_WORD	wordpools/wasnorm_wordpool_less_exclusions.txt	LTP210	ltpFR	12	1	0	BEAD	103	n/a	0	n/a	0	0	0	n/a	n/a	n/a	n/a	n/a
412352	WORD	wordpools/wasnorm_wordpool_less_exclusions.txt	LTP210	ltpFR	12	2	1	DIVER	476	n/a	1	n/a	0	0	0	1	0.412841796875	0.57763671875	lower	../fonts/zerothre.ttf
416429	WORD	wordpools/wasnorm_wordpool_less_exclusions.txt	LTP210	ltpFR	12	2	1	TUNA	1518	n/a	1	n/a	0	0	0	1	0.412841796875	0.57763671875	lower	../fonts/zerothre.ttf
420398	WORD	wordpools/wasnorm_wordpool_less_exclusions.txt	LTP210	ltpFR	12	2	1	SPATULA	1348	n/a	0	n/a	0	0	0	1	0.412841796875	0.57763671875	lower	../fonts/zerothre.ttf
424260	WORD	wordpools/wasnorm_wordpool_less_exclusions.txt	LTP210	ltpFR	12	2	1	PIKE	1067	n/a	0	n/a	0	0	0	1	0.412841796875	0.57763671875	lower	../fonts/zerothre.ttf
428195	WORD	wordpools/wasnorm_wordpool_less_exclusions.txt	LTP210	ltpFR	12	2	1	TRUMPET	1513	n/a	0	n/a	0	0	0	1	0.412841796875	0.57763671875	lower	../fonts/zerothre.ttf
432327	WORD	wordpools/wasnorm_wordpool_less_exclusions.txt	LTP210	ltpFR	12	2	1	CONCERT	360	n/a	0	n/a	0	0	0	1	0.412841796875	0.57763671875	lower	../fonts/zerothre.ttf
436376	WORD	wordpools/wasnorm_wordpool_less_exclusions.txt	LTP210	ltpFR	12	2	1	FLESH	579	n/a	0	n/a	0	0	0	1	0.412841796875	0.57763671875	lower	../fonts/zerothre.ttf
440287	WORD	wordpools/wasnorm_wordpool_less_exclusions.txt	LTP210	ltpFR	12	2	1	SALMON	1227	n/a	1	n/a	0	0	0	1	0.412841796875	0.57763671875	lower	../fonts/zerothre.ttf
444118	WORD	wordpools/wasnorm_wordpool_less_exclusions.txt	LTP210	ltpFR	12	2	1	FAMILY	550	n/a	0	n/a	0	0	0	1	0.412841796875	0.57763671875	lower	../fonts/zerothre.ttf
448070	WORD	wordpools/wasnorm_wordpool_less_exclusions.txt	LTP210	ltpFR	12	2	1	ESSAY	540	n/a	0	n/a	0	0	0	1	0.412841796875	0.57763671875	lower	../fonts/zerothre.ttf
452148	WORD	wordpools/wasnorm_wordpool_less_exclusions.txt	LTP210	ltpFR	12	2	1	MICROWAVE	892	n/a	0	n/a	0	0	0	1	0.412841796875	0.57763671875	lower	../fonts/zerothre.ttf
456201	WORD	wordpools/wasnorm_wordpool_less_exclusions.txt	LTP210	ltpFR	12	2	1	HAND	683	n/a	0	n/a	0	0	0	1	0.412841796875	0.57763671875	lower	../fonts/zerothre.ttf
460049	WORD	wordpools/wasnorm_wordpool_less_exclusions.txt	LTP210	ltpFR	12	2	1	TOE	1473	n/a	0	n/a	0	0	0	1	0.412841796875	0.57763671875	lower	../fonts/zerothre.ttf
464198	WORD	wordpools/wasnorm_wordpool_less_exclusions.txt	LTP210	ltpFR	12	2	1	TURTLE	1522	n/a	0	n/a	0	0	0	1	0.412841796875	0.57763671875	lower	../fonts/zerothre.ttf
468396	WORD	wordpools/wasnorm_wordpool_less_exclusions.txt	LTP210	ltpFR	12	2	1	CLOVE	329	n/a	1	n/a	0	0	0	1	0.412841796875	0.57763671875	lower	../fonts/zerothre.ttf
472390	WORD	wordpools/wasnorm_wordpool_less_exclusions.txt	LTP210	ltpFR	12	2	1	GRAPE	654	n/a	1	n/a	0	0	0	1	0.412841796875	0.57763671875	lower	../fonts/zerothre.ttf
475406	START	n/a	LTP210	ltpFR	12	n/a	n/a	n/a	n/a	n/a	n/a	n/a	n/a	n/a	n/a	n/a	n/a	n/a	n/a	n/a
476260	PROB	n/a	LTP210	ltpFR	12	n/a	n/a	n/a	n/a	n/a	n/a	15	3	4	8	n/a	n/a	n/a	n/a	n/a
478563	PROB	n/a	LTP210	ltpFR	12	n/a	n/a	n/a	n/a	n/a	n/a	18	9	6	4	n/a	n/a	n/a	n/a	n/a
480504	PROB	n/a	LTP210	ltpFR	12	n/a	n/a	n/a	n/a	n/a	n/a	17	5	5	7	n/a	n/a	n/a	n/a	n/a
482386	STOP	n/a	LTP210	ltpFR	12	n/a	n/a	n/a	n/a	n/a	n/a	n/a	n/a	n/a	n/a	n/a	n/a	n/a	n/a	n/a
485324	REC_START	n/a	LTP210	ltpFR	12	2	n/a	n/a	n/a	n/a	n/a	n/a	0	0	0	n/a	n/a	n/a	n/a	n/a
486424	REC_WORD	wordpools/wasnorm_wordpool_less_exclusions.txt	LTP210	ltpFR	12	2	1	GRAPE	654	n/a	1	n/a	0	0	0	n/a	n/a	n/a	n/a	n/a
488038	REC_WORD	wordpools/wasnorm_wordpool_less_exclusions.txt	LTP210	ltpFR	12	2	1	TURTLE	1522	n/a	0	n/a	0	0	0	n/a	n/a	n/a	n/a	n/a
489225	REC_WORD	wordpools/wasnorm_wordpool_less_exclusions.txt	LTP210	ltpFR	12	2	1	CLOVE	329	n/a	1	n/a	0	0	0	n/a	n/a	n/a	n/a	n/a
490976	REC_WORD	wordpools/wasnorm_wordpool_less_exclusions.txt	LTP210	ltpFR	12	2	1	DIVER	476	n/a	1	n/a	0	0	0	n/a	n/a	n/a	n/a	n/a
492263	REC_WORD	wordpools/wasnorm_wordpool_less_exclusions.txt	LTP210	ltpFR	12	2	1	PIKE	1067	n/a	0	n/a	0	0	0	n/a	n/a	n/a	n/a	n/a
498372	REC_WORD	wordpools/wasnorm_wordpool_less_exclusions.txt	LTP210	ltpFR	12	2	1	FAMILY	550	n/a	0	n/a	0	0	0	n/a	n/a	n/a	n/a	n/a
500389	REC_WORD	wordpools/wasnorm_wordpool_less_exclusions.txt	LTP210	ltpFR	12	2	1	HAND	683	n/a	0	n/a	0	0	0	n/a	n/a	n/a	n/a	n/a
501617	REC_WORD	wordpools/wasnorm_wordpool_less_exclusions.txt	LTP210	ltpFR	12	2	1	TOE	1473	n/a	0	n/a	0	0	0	n/a	n/a	n/a	n/a	n/a
502709	REC_WORD	wordpools/wasnorm_wordpool_less_exclusions.txt	LTP210	ltpFR	12	2	1	FLESH	579	n/a	0	n/a	0	0	0	n/a	n/a	n/a	n/a	n/a
513300	REC_WORD_VV	wordpools/wasnorm_wordpool_less_exclusions.txt	LTP210	ltpFR	12	2	n/a	<>	-1	n/a	n/a	n/a	0	0	0	n/a	n/a	n/a	n/a	n/a
514295	REC_WORD_VV	wordpools/wasnorm_wordpool_less_exclusions.txt	LTP210	ltpFR	12	2	n/a	<>	-1	n/a	n/a	n/a	0	0	0	n/a	n/a	n/a	n/a	n/a
575383	START	n/a	LTP210	ltpFR	12	n/a	n/a	n/a	n/a	n/a	n/a	n/a	n/a	n/a	n/a	n/a	n/a	n/a	n/a	n/a
576889	PROB	n/a	LTP210	ltpFR	12	n/a	n/a	n/a	n/a	n/a	n/a	19	8	4	7	n/a	n/a	n/a	n/a	n/a
578473	PROB	n/a	LTP210	ltpFR	12	n/a	n/a	n/a	n/a	n/a	n/a	12	2	7	3	n/a	n/a	n/a	n/a	n/a
579694	PROB	n/a	LTP210	ltpFR	12	n/a	n/a	n/a	n/a	n/a	n/a	15	4	9	2	n/a	n/a	n/a	n/a	n/a
582355	PROB	n/a	LTP210	ltpFR	12	n/a	n/a	n/a	n/a	n/a	n/a	18	7	4	7	n/a	n/a	n/a	n/a	n/a
583861	PROB	n/a	LTP210	ltpFR	12	n/a	n/a	n/a	n/a	n/a	n/a	20	9	6	5	n/a	n/a	n/a	n/a	n/a
585399	PROB	n/a	LTP210	ltpFR	12	n/a	n/a	n/a	n/a	n/a	n/a	18	9	6	3	n/a	n/a	n/a	n/a	n/a
587394	PROB	n/a	LTP210	ltpFR	12	n/a	n/a	n/a	n/a	n/a	n/a	16	7	2	7	n/a	n/a	n/a	n/a	n/a
589435	PROB	n/a	LTP210	ltpFR	12	n/a	n/a	n/a	n/a	n/a	n/a	17	7	2	8	n/a	n/a	n/a	n/a	n/a
590722	STOP	n/a	LTP210	ltpFR	12	n/a	n/a	n/a	n/a	n/a	n/a	n/a	n/a	n/a	n/a	n/a	n/a	n/a	n/a	n/a
592597	WORD	wordpools/wasnorm_wordpool_less_exclusions.txt	LTP210	ltpFR	12	3	1	LEOPARD	812	n/a	1	n/a	0	0	0	1	0.412841796875	0.57763671875	lower	../fonts/zerothre.ttf
595609	START	n/a	LTP210	ltpFR	12	n/a	n/a	n/a	n/a	n/a	n/a	n/a	n/a	n/a	n/a	n/a	n/a	n/a	n/a	n/a
596692	PROB	n/a	LTP210	ltpFR	12	n/a	n/a	n/a	n/a	n/a	n/a	17	2	7	8	n/a	n/a	n/a	n/a	n/a
598332	PROB	n/a	LTP210	ltpFR	12	n/a	n/a	n/a	n/a	n/a	n/a	20	4	7	9	n/a	n/a	n/a	n/a	n/a
601126	PROB	n/a	LTP210	ltpFR	12	n/a	n/a	n/a	n/a	n/a	n/a	17	1	7	9	n/a	n/a	n/a	n/a	n/a
603033	PROB	n/a	LTP210	ltpFR	12	n/a	n/a	n/a	n/a	n/a	n/a	10	2	3	5	n/a	n/a	n/a	n/a	n/a
605797	PROB	n/a	LTP210	ltpFR	12	n/a	n/a	n/a	n/a	n/a	n/a	13	3	4	6	n/a	n/a	n/a	n/a	n/a
607316	PROB	n/a	LTP210	ltpFR	12	n/a	n/a	n/a	n/a	n/a	n/a	18	5	5	8	n/a	n/a	n/a	n/a	n/a
608419	PROB	n/a	LTP210	ltpFR	12	n/a	n/a	n/a	n/a	n/a	n/a	19	6	6	7	n/a	n/a	n/a	n/a	n/a
609964	PROB	n/a	LTP210	ltpFR	12	n/a	n/a	n/a	n/a	n/a	n/a	15	5	8	2	n/a	n/a	n/a	n/a	n/a
610995	STOP	n/a	LTP210	ltpFR	12	n/a	n/a	n/a	n/a	n/a	n/a	n/a	n/a	n/a	n/a	n/a	n/a	n/a	n/a	n/a
612485	WORD	wordpools/wasnorm_wordpool_less_exclusions.txt	LTP210	ltpFR	12	3	1	RODENT	1204	n/a	1	n/a	0	0	0	1	0.412841796875	0.57763671875	lower	../fonts/zerothre.ttf
615501	START	n/a	LTP210	ltpFR	12	n/a	n/a	n/a	n/a	n/a	n/a	n/a	n/a	n/a	n/a	n/a	n/a	n/a	n/a	n/a
616634	PROB	n/a	LTP210	ltpFR	12	n/a	n/a	n/a	n/a	n/a	n/a	8	1	1	6	n/a	n/a	n/a	n/a	n/a
617894	PROB	n/a	LTP210	ltpFR	12	n/a	n/a	n/a	n/a	n/a	n/a	13	8	1	4	n/a	n/a	n/a	n/a	n/a
619528	PROB	n/a	LTP210	ltpFR	12	n/a	n/a	n/a	n/a	n/a	n/a	13	5	7	2	n/a	n/a	n/a	n/a	n/a
621904	PROB	n/a	LTP210	ltpFR	12	n/a	n/a	n/a	n/a	n/a	n/a	17	5	4	8	n/a	n/a	n/a	n/a	n/a
624832	PROB	n/a	LTP210	ltpFR	12	n/a	n/a	n/a	n/a	n/a	n/a	19	7	8	4	n/a	n/a	n/a	n/a	n/a
626638	PROB	n/a	LTP210	ltpFR	12	n/a	n/a	n/a	n/a	n/a	n/a	19	4	8	7	n/a	n/a	n/a	n/a	n/a
628245	PROB	n/a	LTP210	ltpFR	12	n/a	n/a	n/a	n/a	n/a	n/a	9	1	1	7	n/a	n/a	n/a	n/a	n/a
629398	PROB	n/a	LTP210	ltpFR	12	n/a	n/a	n/a	n/a	n/a	n/a	7	1	5	1	n/a	n/a	n/a	n/a	n/a
630490	STOP	n/a	LTP210	ltpFR	12	n/a	n/a	n/a	n/a	n/a	n/a	n/a	n/a	n/a	n/a	n/a	n/a	n/a	n/a	n/a
632331	WORD	wordpools/wasnorm_wordpool_less_exclusions.txt	LTP210	ltpFR	12	3	1	MOAT	903	n/a	0	n/a	0	0	0	1	0.412841796875	0.57763671875	lower	../fonts/zerothre.ttf
635343	START	n/a	LTP210	ltpFR	12	n/a	n/a	n/a	n/a	n/a	n/a	n/a	n/a	n/a	n/a	n/a	n/a	n/a	n/a	n/a
636446	PROB	n/a	LTP210	ltpFR	12	n/a	n/a	n/a	n/a	n/a	n/a	18	8	2	8	n/a	n/a	n/a	n/a	n/a
637663	PROB	n/a	LTP210	ltpFR	12	n/a	n/a	n/a	n/a	n/a	n/a	7	1	1	5	n/a	n/a	n/a	n/a	n/a
638754	PROB	n/a	LTP210	ltpFR	12	n/a	n/a	n/a	n/a	n/a	n/a	12	4	5	3	n/a	n/a	n/a	n/a	n/a
640378	PROB	n/a	LTP210	ltpFR	12	n/a	n/a	n/a	n/a	n/a	n/a	14	2	8	4	n/a	n/a	n/a	n/a	n/a
641477	PROB	n/a	LTP210	ltpFR	12	n/a	n/a	n/a	n/a	n/a	n/a	23	8	7	8	n/a	n/a	n/a	n/a	n/a
643585	PROB	n/a	LTP210	ltpFR	12	n/a	n/a	n/a	n/a	n/a	n/a	19	7	7	5	n/a	n/a	n/a	n/a	n/a
645029	PROB	n/a	LTP210	ltpFR	12	n/a	n/a	n/a	n/a	n/a	n/a	12	4	3	5	n/a	n/a	n/a	n/a	n/a
647371	PROB	n/a	LTP210	ltpFR	12	n/a	n/a	n/a	n/a	n/a	n/a	16	5	2	9	n/a	n/a	n/a	n/a	n/a
649379	PROB	n/a	LTP210	ltpFR	12	n/a	n/a	n/a	n/a	n/a	n/a	15	3	5	7	n/a	n/a	n/a	n/a	n/a
651147	STOP	n/a	LTP210	ltpFR	12	n/a	n/a	n/a	n/a	n/a	n/a	n/a	n/a	n/a	n/a	n/a	n/a	n/a	n/a	n/a
652406	WORD	wordpools/wasnorm_wordpool_less_exclusions.txt	LTP210	ltpFR	12	3	1	RACKET	1155	n/a	0	n/a	0	0	0	1	0.412841796875	0.57763671875	lower	../fonts/zerothre.ttf
655418	START	n/a	LTP210	ltpFR	12	n/a	n/a	n/a	n/a	n/a	n/a	n/a	n/a	n/a	n/a	n/a	n/a	n/a	n/a	n/a
656388	PROB	n/a	LTP210	ltpFR	12	n/a	n/a	n/a	n/a	n/a	n/a	19	9	3	7	n/a	n/a	n/a	n/a	n/a
658091	PROB	n/a	LTP210	ltpFR	12	n/a	n/a	n/a	n/a	n/a	n/a	6	1	3	5	n/a	n/a	n/a	n/a	n/a
659579	PROB	n/a	LTP210	ltpFR	12	n/a	n/a	n/a	n/a	n/a	n/a	20	6	8	6	n/a	n/a	n/a	n/a	n/a
661636	PROB	n/a	LTP210	ltpFR	12	n/a	n/a	n/a	n/a	n/a	n/a	13	1	8	4	n/a	n/a	n/a	n/a	n/a
663913	PROB	n/a	LTP210	ltpFR	12	n/a	n/a	n/a	n/a	n/a	n/a	15	3	4	8	n/a	n/a	n/a	n/a	n/a
665773	PROB	n/a	LTP210	ltpFR	12	n/a	n/a	n/a	n/a	n/a	n/a	11	1	6	3	n/a	n/a	n/a	n/a	n/a
667894	PROB	n/a	LTP210	ltpFR	12	n/a	n/a	n/a	n/a	n/a	n/a	16	6	8	2	n/a	n/a	n/a	n/a	n/a
671123	STOP	n/a	LTP210	ltpFR	12	n/a	n/a	n/a	n/a	n/a	n/a	n/a	n/a	n/a	n/a	n/a	n/a	n/a	n/a	n/a
672599	WORD	wordpools/wasnorm_wordpool_less_exclusions.txt	LTP210	ltpFR	12	3	1	CRUMB	416	n/a	0	n/a	0	0	0	1	0.412841796875	0.57763671875	lower	../fonts/zerothre.ttf
675610	START	n/a	LTP210	ltpFR	12	n/a	n/a	n/a	n/a	n/a	n/a	n/a	n/a	n/a	n/a	n/a	n/a	n/a	n/a	n/a
676492	PROB	n/a	LTP210	ltpFR	12	n/a	n/a	n/a	n/a	n/a	n/a	16	8	1	7	n/a	n/a	n/a	n/a	n/a
678416	PROB	n/a	LTP210	ltpFR	12	n/a	n/a	n/a	n/a	n/a	n/a	11	1	8	2	n/a	n/a	n/a	n/a	n/a
679805	PROB	n/a	LTP210	ltpFR	12	n/a	n/a	n/a	n/a	n/a	n/a	25	7	9	9	n/a	n/a	n/a	n/a	n/a
682098	PROB	n/a	LTP210	ltpFR	12	n/a	n/a	n/a	n/a	n/a	n/a	23	7	8	8	n/a	n/a	n/a	n/a	n/a
685866	PROB	n/a	LTP210	ltpFR	12	n/a	n/a	n/a	n/a	n/a	n/a	20	6	8	6	n/a	n/a	n/a	n/a	n/a
688037	PROB	n/a	LTP210	ltpFR	12	n/a	n/a	n/a	n/a	n/a	n/a	24	9	9	6	n/a	n/a	n/a	n/a	n/a
691610	STOP	n/a	LTP210	ltpFR	12	n/a	n/a	n/a	n/a	n/a	n/a	n/a	n/a	n/a	n/a	n/a	n/a	n/a	n/a	n/a
692687	WORD	wordpools/wasnorm_wordpool_less_exclusions.txt	LTP210	ltpFR	12	3	1	DIAGRAM	456	n/a	0	n/a	0	0	0	1	0.412841796875	0.57763671875	lower	../fonts/zerothre.ttf
695703	START	n/a	LTP210	ltpFR	12	n/a	n/a	n/a	n/a	n/a	n/a	n/a	n/a	n/a	n/a	n/a	n/a	n/a	n/a	n/a
696668	PROB	n/a	LTP210	ltpFR	12	n/a	n/a	n/a	n/a	n/a	n/a	11	2	5	4	n/a	n/a	n/a	n/a	n/a
698709	PROB	n/a	LTP210	ltpFR	12	n/a	n/a	n/a	n/a	n/a	n/a	18	4	8	6	n/a	n/a	n/a	n/a	n/a
700216	PROB	n/a	LTP210	ltpFR	12	n/a	n/a	n/a	n/a	n/a	n/a	7	4	2	1	n/a	n/a	n/a	n/a	n/a
701503	PROB	n/a	LTP210	ltpFR	12	n/a	n/a	n/a	n/a	n/a	n/a	13	5	4	4	n/a	n/a	n/a	n/a	n/a
703766	PROB	n/a	LTP210	ltpFR	12	n/a	n/a	n/a	n/a	n/a	n/a	6	3	2	1	n/a	n/a	n/a	n/a	n/a
705435	PROB	n/a	LTP210	ltpFR	12	n/a	n/a	n/a	n/a	n/a	n/a	12	9	1	2	n/a	n/a	n/a	n/a	n/a
706706	PROB	n/a	LTP210	ltpFR	12	n/a	n/a	n/a	n/a	n/a	n/a	16	7	2	7	n/a	n/a	n/a	n/a	n/a
708517	PROB	n/a	LTP210	ltpFR	12	n/a	n/a	n/a	n/a	n/a	n/a	10	2	5	3	n/a	n/a	n/a	n/a	n/a
711703	STOP	n/a	LTP210	ltpFR	12	n/a	n/a	n/a	n/a	n/a	n/a	n/a	n/a	n/a	n/a	n/a	n/a	n/a	n/a	n/a
712851	WORD	wordpools/wasnorm_wordpool_less_exclusions.txt	LTP210	ltpFR	12	3	1	UMPIRE	1535	n/a	1	n/a	0	0	0	1	0.412841796875	0.57763671875	lower	../fonts/zerothre.ttf
715863	START	n/a	LTP210	ltpFR	12	n/a	n/a	n/a	n/a	n/a	n/a	n/a	n/a	n/a	n/a	n/a	n/a	n/a	n/a	n/a
717051	PROB	n/a	LTP210	ltpFR	12	n/a	n/a	n/a	n/a	n/a	n/a	9	3	3	3	n/a	n/a	n/a	n/a	n/a
718134	PROB	n/a	LTP210	ltpFR	12	n/a	n/a	n/a	n/a	n/a	n/a	23	5	9	9	n/a	n/a	n/a	n/a	n/a
719789	PROB	n/a	LTP210	ltpFR	12	n/a	n/a	n/a	n/a	n/a	n/a	18	1	8	9	n/a	n/a	n/a	n/a	n/a
721145	PROB	n/a	LTP210	ltpFR	12	n/a	n/a	n/a	n/a	n/a	n/a	14	6	1	7	n/a	n/a	n/a	n/a	n/a
722818	PROB	n/a	LTP210	ltpFR	12	n/a	n/a	n/a	n/a	n/a	n/a	10	7	1	2	n/a	n/a	n/a	n/a	n/a
724261	PROB	n/a	LTP210	ltpFR	12	n/a	n/a	n/a	n/a	n/a	n/a	12	1	2	9	n/a	n/a	n/a	n/a	n/a
725532	PROB	n/a	LTP210	ltpFR	12	n/a	n/a	n/a	n/a	n/a	n/a	16	3	8	5	n/a	n/a	n/a	n/a	n/a
727468	PROB	n/a	LTP210	ltpFR	12	n/a	n/a	n/a	n/a	n/a	n/a	10	3	3	4	n/a	n/a	n/a	n/a	n/a
729343	PROB	n/a	LTP210	ltpFR	12	n/a	n/a	n/a	n/a	n/a	n/a	7	1	4	2	n/a	n/a	n/a	n/a	n/a
730530	STOP	n/a	LTP210	ltpFR	12	n/a	n/a	n/a	n/a	n/a	n/a	n/a	n/a	n/a	n/a	n/a	n/a	n/a	n/a	n/a
732692	WORD	wordpools/wasnorm_wordpool_less_exclusions.txt	LTP210	ltpFR	12	3	1	CATCHER	258	n/a	1	n/a	0	0	0	1	0.412841796875	0.57763671875	lower	../fonts/zerothre.ttf
735704	START	n/a	LTP210	ltpFR	12	n/a	n/a	n/a	n/a	n/a	n/a	n/a	n/a	n/a	n/a	n/a	n/a	n/a	n/a	n/a
736619	PROB	n/a	LTP210	ltpFR	12	n/a	n/a	n/a	n/a	n/a	n/a	19	9	1	9	n/a	n/a	n/a	n/a	n/a
737808	PROB	n/a	LTP210	ltpFR	12	n/a	n/a	n/a	n/a	n/a	n/a	23	9	8	6	n/a	n/a	n/a	n/a	n/a
740789	PROB	n/a	LTP210	ltpFR	12	n/a	n/a	n/a	n/a	n/a	n/a	18	9	1	8	n/a	n/a	n/a	n/a	n/a
742525	PROB	n/a	LTP210	ltpFR	12	n/a	n/a	n/a	n/a	n/a	n/a	17	2	6	9	n/a	n/a	n/a	n/a	n/a
744320	PROB	n/a	LTP210	ltpFR	12	n/a	n/a	n/a	n/a	n/a	n/a	12	7	1	4	n/a	n/a	n/a	n/a	n/a
745687	PROB	n/a	LTP210	ltpFR	12	n/a	n/a	n/a	n/a	n/a	n/a	18	7	6	5	n/a	n/a	n/a	n/a	n/a
748097	PROB	n/a	LTP210	ltpFR	12	n/a	n/a	n/a	n/a	n/a	n/a	12	2	6	4	n/a	n/a	n/a	n/a	n/a
749887	PROB	n/a	LTP210	ltpFR	12	n/a	n/a	n/a	n/a	n/a	n/a	13	8	2	3	n/a	n/a	n/a	n/a	n/a
751339	STOP	n/a	LTP210	ltpFR	12	n/a	n/a	n/a	n/a	n/a	n/a	n/a	n/a	n/a	n/a	n/a	n/a	n/a	n/a	n/a
752881	WORD	wordpools/wasnorm_wordpool_less_exclusions.txt	LTP210	ltpFR	12	3	1	MERMAID	887	n/a	1	n/a	0	0	0	1	0.412841796875	0.57763671875	lower	../fonts/zerothre.ttf
755897	START	n/a	LTP210	ltpFR	12	n/a	n/a	n/a	n/a	n/a	n/a	n/a	n/a	n/a	n/a	n/a	n/a	n/a	n/a	n/a
756778	PROB	n/a	LTP210	ltpFR	12	n/a	n/a	n/a	n/a	n/a	n/a	18	6	7	5	n/a	n/a	n/a	n/a	n/a
758686	PROB	n/a	LTP210	ltpFR	12	n/a	n/a	n/a	n/a	n/a	n/a	19	6	6	7	n/a	n/a	n/a	n/a	n/a
760376	PROB	n/a	LTP210	ltpFR	12	n/a	n/a	n/a	n/a	n/a	n/a	21	6	7	8	n/a	n/a	n/a	n/a	n/a
763704	PROB	n/a	LTP210	ltpFR	12	n/a	n/a	n/a	n/a	n/a	n/a	16	5	5	6	n/a	n/a	n/a	n/a	n/a
764831	PROB	n/a	LTP210	ltpFR	12	n/a	n/a	n/a	n/a	n/a	n/a	22	7	9	6	n/a	n/a	n/a	n/a	n/a
767423	PROB	n/a	LTP210	ltpFR	12	n/a	n/a	n/a	n/a	n/a	n/a	20	5	8	7	n/a	n/a	n/a	n/a	n/a
768992	PROB	n/a	LTP210	ltpFR	12	n/a	n/a	n/a	n/a	n/a	n/a	16	2	6	8	n/a	n/a	n/a	n/a	n/a
771897	STOP	n/a	LTP210	ltpFR	12	n/a	n/a	n/a	n/a	n/a	n/a	n/a	n/a	n/a	n/a	n/a	n/a	n/a	n/a	n/a
773041	WORD	wordpools/wasnorm_wordpool_less_exclusions.txt	LTP210	ltpFR	12	3	1	MAT	877	n/a	0	n/a	0	0	0	1	0.412841796875	0.57763671875	lower	../fonts/zerothre.ttf
776057	START	n/a	LTP210	ltpFR	12	n/a	n/a	n/a	n/a	n/a	n/a	n/a	n/a	n/a	n/a	n/a	n/a	n/a	n/a	n/a
776926	PROB	n/a	LTP210	ltpFR	12	n/a	n/a	n/a	n/a	n/a	n/a	22	8	6	8	n/a	n/a	n/a	n/a	n/a
778980	PROB	n/a	LTP210	ltpFR	12	n/a	n/a	n/a	n/a	n/a	n/a	6	3	2	1	n/a	n/a	n/a	n/a	n/a
780239	PROB	n/a	LTP210	ltpFR	12	n/a	n/a	n/a	n/a	n/a	n/a	13	1	8	4	n/a	n/a	n/a	n/a	n/a
782509	PROB	n/a	LTP210	ltpFR	12	n/a	n/a	n/a	n/a	n/a	n/a	15	4	7	4	n/a	n/a	n/a	n/a	n/a
784504	PROB	n/a	LTP210	ltpFR	12	n/a	n/a	n/a	n/a	n/a	n/a	22	7	8	7	n/a	n/a	n/a	n/a	n/a
786407	PROB	n/a	LTP210	ltpFR	12	n/a	n/a	n/a	n/a	n/a	n/a	15	5	5	5	n/a	n/a	n/a	n/a	n/a
787511	PROB	n/a	LTP210	ltpFR	12	n/a	n/a	n/a	n/a	n/a	n/a	22	7	9	6	n/a	n/a	n/a	n/a	n/a
791163	STOP	n/a	LTP210	ltpFR	12	n/a	n/a	n/a	n/a	n/a	n/a	n/a	n/a	n/a	n/a	n/a	n/a	n/a	n/a	n/a
793250	WORD	wordpools/wasnorm_wordpool_less_exclusions.txt	LTP210	ltpFR	12	3	1	BAKER	71	n/a	1	n/a	0	0	0	1	0.412841796875	0.57763671875	lower	../fonts/zerothre.ttf
796266	START	n/a	LTP210	ltpFR	12	n/a	n/a	n/a	n/a	n/a	n/a	n/a	n/a	n/a	n/a	n/a	n/a	n/a	n/a	n/a
797286	PROB	n/a	LTP210	ltpFR	12	n/a	n/a	n/a	n/a	n/a	n/a	13	2	9	2	n/a	n/a	n/a	n/a	n/a
799875	PROB	n/a	LTP210	ltpFR	12	n/a	n/a	n/a	n/a	n/a	n/a	17	7	5	5	n/a	n/a	n/a	n/a	n/a
801413	PROB	n/a	LTP210	ltpFR	12	n/a	n/a	n/a	n/a	n/a	n/a	9	1	5	3	n/a	n/a	n/a	n/a	n/a
802937	PROB	n/a	LTP210	ltpFR	12	n/a	n/a	n/a	n/a	n/a	n/a	17	3	8	6	n/a	n/a	n/a	n/a	n/a
805045	PROB	n/a	LTP210	ltpFR	12	n/a	n/a	n/a	n/a	n/a	n/a	16	2	9	5	n/a	n/a	n/a	n/a	n/a
806767	PROB	n/a	LTP210	ltpFR	12	n/a	n/a	n/a	n/a	n/a	n/a	13	4	6	3	n/a	n/a	n/a	n/a	n/a
807955	PROB	n/a	LTP210	ltpFR	12	n/a	n/a	n/a	n/a	n/a	n/a	19	4	8	7	n/a	n/a	n/a	n/a	n/a
809812	PROB	n/a	LTP210	ltpFR	12	n/a	n/a	n/a	n/a	n/a	n/a	11	4	1	6	n/a	n/a	n/a	n/a	n/a
811099	STOP	n/a	LTP210	ltpFR	12	n/a	n/a	n/a	n/a	n/a	n/a	n/a	n/a	n/a	n/a	n/a	n/a	n/a	n/a	n/a
813396	WORD	wordpools/wasnorm_wordpool_less_exclusions.txt	LTP210	ltpFR	12	3	1	SAW	1239	n/a	0	n/a	0	0	0	1	0.412841796875	0.57763671875	lower	../fonts/zerothre.ttf
816408	START	n/a	LTP210	ltpFR	12	n/a	n/a	n/a	n/a	n/a	n/a	n/a	n/a	n/a	n/a	n/a	n/a	n/a	n/a	n/a
817228	PROB	n/a	LTP210	ltpFR	12	n/a	n/a	n/a	n/a	n/a	n/a	16	2	9	5	n/a	n/a	n/a	n/a	n/a
819098	PROB	n/a	LTP210	ltpFR	12	n/a	n/a	n/a	n/a	n/a	n/a	15	6	7	2	n/a	n/a	n/a	n/a	n/a
820992	PROB	n/a	LTP210	ltpFR	12	n/a	n/a	n/a	n/a	n/a	n/a	15	3	4	8	n/a	n/a	n/a	n/a	n/a
822493	PROB	n/a	LTP210	ltpFR	12	n/a	n/a	n/a	n/a	n/a	n/a	11	8	1	2	n/a	n/a	n/a	n/a	n/a
823731	PROB	n/a	LTP210	ltpFR	12	n/a	n/a	n/a	n/a	n/a	n/a	21	7	9	5	n/a	n/a	n/a	n/a	n/a
825742	PROB	n/a	LTP210	ltpFR	12	n/a	n/a	n/a	n/a	n/a	n/a	11	5	1	5	n/a	n/a	n/a	n/a	n/a
826894	PROB	n/a	LTP210	ltpFR	12	n/a	n/a	n/a	n/a	n/a	n/a	11	3	7	1	n/a	n/a	n/a	n/a	n/a
827981	PROB	n/a	LTP210	ltpFR	12	n/a	n/a	n/a	n/a	n/a	n/a	17	7	8	2	n/a	n/a	n/a	n/a	n/a
829452	PROB	n/a	LTP210	ltpFR	12	n/a	n/a	n/a	n/a	n/a	n/a	16	5	9	2	n/a	n/a	n/a	n/a	n/a
831578	STOP	n/a	LTP210	ltpFR	12	n/a	n/a	n/a	n/a	n/a	n/a	n/a	n/a	n/a	n/a	n/a	n/a	n/a	n/a	n/a
833388	WORD	wordpools/wasnorm_wordpool_less_exclusions.txt	LTP210	ltpFR	12	3	1	PLIERS	1089	n/a	0	n/a	0	0	0	1	0.412841796875	0.57763671875	lower	../fonts/zerothre.ttf
836400	START	n/a	LTP210	ltpFR	12	n/a	n/a	n/a	n/a	n/a	n/a	n/a	n/a	n/a	n/a	n/a	n/a	n/a	n/a	n/a
837220	PROB	n/a	LTP210	ltpFR	12	n/a	n/a	n/a	n/a	n/a	n/a	15	9	5	1	n/a	n/a	n/a	n/a	n/a
838374	PROB	n/a	LTP210	ltpFR	12	n/a	n/a	n/a	n/a	n/a	n/a	16	4	9	3	n/a	n/a	n/a	n/a	n/a
841030	PROB	n/a	LTP210	ltpFR	12	n/a	n/a	n/a	n/a	n/a	n/a	7	3	3	1	n/a	n/a	n/a	n/a	n/a
842669	PROB	n/a	LTP210	ltpFR	12	n/a	n/a	n/a	n/a	n/a	n/a	17	7	9	1	n/a	n/a	n/a	n/a	n/a
844008	PROB	n/a	LTP210	ltpFR	12	n/a	n/a	n/a	n/a	n/a	n/a	12	8	1	3	n/a	n/a	n/a	n/a	n/a
846016	PROB	n/a	LTP210	ltpFR	12	n/a	n/a	n/a	n/a	n/a	n/a	17	9	6	2	n/a	n/a	n/a	n/a	n/a
848262	PROB	n/a	LTP210	ltpFR	12	n/a	n/a	n/a	n/a	n/a	n/a	17	8	1	8	n/a	n/a	n/a	n/a	n/a
849783	PROB	n/a	LTP210	ltpFR	12	n/a	n/a	n/a	n/a	n/a	n/a	11	2	8	1	n/a	n/a	n/a	n/a	n/a
852399	STOP	n/a	LTP210	ltpFR	12	n/a	n/a	n/a	n/a	n/a	n/a	n/a	n/a	n/a	n/a	n/a	n/a	n/a	n/a	n/a
853476	WORD	wordpools/wasnorm_wordpool_less_exclusions.txt	LTP210	ltpFR	12	3	1	WALL	1582	n/a	0	n/a	0	0	0	1	0.412841796875	0.57763671875	lower	../fonts/zerothre.ttf
856492	START	n/a	LTP210	ltpFR	12	n/a	n/a	n/a	n/a	n/a	n/a	n/a	n/a	n/a	n/a	n/a	n/a	n/a	n/a	n/a
857646	PROB	n/a	LTP210	ltpFR	12	n/a	n/a	n/a	n/a	n/a	n/a	17	9	7	1	n/a	n/a	n/a	n/a	n/a
858998	PROB	n/a	LTP210	ltpFR	12	n/a	n/a	n/a	n/a	n/a	n/a	16	5	9	2	n/a	n/a	n/a	n/a	n/a
860536	PROB	n/a	LTP210	ltpFR	12	n/a	n/a	n/a	n/a	n/a	n/a	17	9	1	7	n/a	n/a	n/a	n/a	n/a
861757	PROB	n/a	LTP210	ltpFR	12	n/a	n/a	n/a	n/a	n/a	n/a	19	9	4	6	n/a	n/a	n/a	n/a	n/a
864718	PROB	n/a	LTP210	ltpFR	12	n/a	n/a	n/a	n/a	n/a	n/a	21	8	9	4	n/a	n/a	n/a	n/a	n/a
867998	PROB	n/a	LTP210	ltpFR	12	n/a	n/a	n/a	n/a	n/a	n/a	16	7	3	6	n/a	n/a	n/a	n/a	n/a
869119	PROB	n/a	LTP210	ltpFR	12	n/a	n/a	n/a	n/a	n/a	n/a	16	8	6	2	n/a	n/a	n/a	n/a	n/a
872492	STOP	n/a	LTP210	ltpFR	12	n/a	n/a	n/a	n/a	n/a	n/a	n/a	n/a	n/a	n/a	n/a	n/a	n/a	n/a	n/a
873623	WORD	wordpools/wasnorm_wordpool_less_exclusions.txt	LTP210	ltpFR	12	3	1	RECEIPT	1173	n/a	0	n/a	0	0	0	1	0.412841796875	0.57763671875	lower	../fonts/zerothre.ttf
876635	START	n/a	LTP210	ltpFR	12	n/a	n/a	n/a	n/a	n/a	n/a	n/a	n/a	n/a	n/a	n/a	n/a	n/a	n/a	n/a
877538	PROB	n/a	LTP210	ltpFR	12	n/a	n/a	n/a	n/a	n/a	n/a	14	4	4	6	n/a	n/a	n/a	n/a	n/a
878771	PROB	n/a	LTP210	ltpFR	12	n/a	n/a	n/a	n/a	n/a	n/a	15	3	4	8	n/a	n/a	n/a	n/a	n/a
880796	PROB	n/a	LTP210	ltpFR	12	n/a	n/a	n/a	n/a	n/a	n/a	17	1	8	8	n/a	n/a	n/a	n/a	n/a
882068	PROB	n/a	LTP210	ltpFR	12	n/a	n/a	n/a	n/a	n/a	n/a	17	7	9	1	n/a	n/a	n/a	n/a	n/a
883239	PROB	n/a	LTP210	ltpFR	12	n/a	n/a	n/a	n/a	n/a	n/a	19	8	1	9	n/a	n/a	n/a	n/a	n/a
884409	PROB	n/a	LTP210	ltpFR	12	n/a	n/a	n/a	n/a	n/a	n/a	23	6	8	9	n/a	n/a	n/a	n/a	n/a
886772	PROB	n/a	LTP210	ltpFR	12	n/a	n/a	n/a	n/a	n/a	n/a	18	7	7	4	n/a	n/a	n/a	n/a	n/a
888646	PROB	n/a	LTP210	ltpFR	12	n/a	n/a	n/a	n/a	n/a	n/a	23	9	7	7	n/a	n/a	n/a	n/a	n/a
890616	PROB	n/a	LTP210	ltpFR	12	n/a	n/a	n/a	n/a	n/a	n/a	13	8	3	2	n/a	n/a	n/a	n/a	n/a
891746	STOP	n/a	LTP210	ltpFR	12	n/a	n/a	n/a	n/a	n/a	n/a	n/a	n/a	n/a	n/a	n/a	n/a	n/a	n/a	n/a
893531	WORD	wordpools/wasnorm_wordpool_less_exclusions.txt	LTP210	ltpFR	12	3	1	BROOK	177	n/a	0	n/a	0	0	0	1	0.412841796875	0.57763671875	lower	../fonts/zerothre.ttf
896543	START	n/a	LTP210	ltpFR	12	n/a	n/a	n/a	n/a	n/a	n/a	n/a	n/a	n/a	n/a	n/a	n/a	n/a	n/a	n/a
897760	PROB	n/a	LTP210	ltpFR	12	n/a	n/a	n/a	n/a	n/a	n/a	11	3	6	2	n/a	n/a	n/a	n/a	n/a
899952	PROB	n/a	LTP210	ltpFR	12	n/a	n/a	n/a	n/a	n/a	n/a	11	6	2	3	n/a	n/a	n/a	n/a	n/a
901628	PROB	n/a	LTP210	ltpFR	12	n/a	n/a	n/a	n/a	n/a	n/a	16	6	1	9	n/a	n/a	n/a	n/a	n/a
902968	PROB	n/a	LTP210	ltpFR	12	n/a	n/a	n/a	n/a	n/a	n/a	7	1	5	1	n/a	n/a	n/a	n/a	n/a
904535	PROB	n/a	LTP210	ltpFR	12	n/a	n/a	n/a	n/a	n/a	n/a	5	3	1	1	n/a	n/a	n/a	n/a	n/a
905694	PROB	n/a	LTP210	ltpFR	12	n/a	n/a	n/a	n/a	n/a	n/a	21	9	3	9	n/a	n/a	n/a	n/a	n/a
907380	PROB	n/a	LTP210	ltpFR	12	n/a	n/a	n/a	n/a	n/a	n/a	13	1	3	9	n/a	n/a	n/a	n/a	n/a
908806	PROB	n/a	LTP210	ltpFR	12	n/a	n/a	n/a	n/a	n/a	n/a	19	9	3	7	n/a	n/a	n/a	n/a	n/a
910128	PROB	n/a	LTP210	ltpFR	12	n/a	n/a	n/a	n/a	n/a	n/a	22	6	8	6	n/a	n/a	n/a	n/a	n/a
911690	STOP	n/a	LTP210	ltpFR	12	n/a	n/a	n/a	n/a	n/a	n/a	n/a	n/a	n/a	n/a	n/a	n/a	n/a	n/a	n/a
914357	REC_START	n/a	LTP210	ltpFR	12	3	n/a	n/a	n/a	n/a	n/a	n/a	0	0	0	n/a	n/a	n/a	n/a	n/a
915584	REC_WORD	wordpools/wasnorm_wordpool_less_exclusions.txt	LTP210	ltpFR	12	3	1	MERMAID	887	n/a	1	n/a	0	0	0	n/a	n/a	n/a	n/a	n/a
917204	REC_WORD	wordpools/wasnorm_wordpool_less_exclusions.txt	LTP210	ltpFR	12	3	1	PLIERS	1089	n/a	0	n/a	0	0	0	n/a	n/a	n/a	n/a	n/a
919073	REC_WORD	wordpools/wasnorm_wordpool_less_exclusions.txt	LTP210	ltpFR	12	3	1	SAW	1239	n/a	0	n/a	0	0	0	n/a	n/a	n/a	n/a	n/a
928520	REC_WORD	wordpools/wasnorm_wordpool_less_exclusions.txt	LTP210	ltpFR	12	3	1	DIVER	476	n/a	1	n/a	0	0	0	n/a	n/a	n/a	n/a	n/a
962677	REC_WORD	wordpools/wasnorm_wordpool_less_exclusions.txt	LTP210	ltpFR	12	3	1	LEOPARD	812	n/a	1	n/a	0	0	0	n/a	n/a	n/a	n/a	n/a
1001689	WORD	wordpools/wasnorm_wordpool_less_exclusions.txt	LTP210	ltpFR	12	4	0	CROW	414	n/a	0	n/a	0	0	0	0	0.5869140625	0.422607421875	upper	../fonts/amplitud.ttf
1005683	WORD	wordpools/wasnorm_wordpool_less_exclusions.txt	LTP210	ltpFR	12	4	0	LUNCH	849	n/a	0	n/a	0	0	0	0	0.5869140625	0.422607421875	upper	../fonts/amplitud.ttf
1009803	WORD	wordpools/wasnorm_wordpool_less_exclusions.txt	LTP210	ltpFR	12	4	0	SILVERWARE	1308	n/a	0	n/a	0	0	0	0	0.5869140625	0.422607421875	upper	../fonts/amplitud.ttf
1013836	WORD	wordpools/wasnorm_wordpool_less_exclusions.txt	LTP210	ltpFR	12	4	0	NAVIGATOR	938	n/a	1	n/a	0	0	0	0	0.5869140625	0.422607421875	upper	../fonts/amplitud.ttf
1017678	WORD	wordpools/wasnorm_wordpool_less_exclusions.txt	LTP210	ltpFR	12	4	0	YACHT	1629	n/a	1	n/a	0	0	0	0	0.5869140625	0.422607421875	upper	../fonts/amplitud.ttf
1021643	WORD	wordpools/wasnorm_wordpool_less_exclusions.txt	LTP210	ltpFR	12	4	0	TAVERN	1437	n/a	1	n/a	0	0	0	0	0.5869140625	0.422607421875	upper	../fonts/amplitud.ttf
1025729	WORD	wordpools/wasnorm_wordpool_less_exclusions.txt	LTP210	ltpFR	12	4	0	CAVE	263	n/a	1	n/a	0	0	0	0	0.5869140625	0.422607421875	upper	../fonts/amplitud.ttf
1029611	WORD	wordpools/wasnorm_wordpool_less_exclusions.txt	LTP210	ltpFR	12	4	0	BRIDGE	174	n/a	1	n/a	0	0	0	0	0.5869140625	0.422607421875	upper	../fonts/amplitud.ttf
1033542	WORD	wordpools/wasnorm_wordpool_less_exclusions.txt	LTP210	ltpFR	12	4	0	RIVER	1194	n/a	1	n/a	0	0	0	0	0.5869140625	0.422607421875	upper	../fonts/amplitud.ttf
1037591	WORD	wordpools/wasnorm_wordpool_less_exclusions.txt	LTP210	ltpFR	12	4	0	COCKTAIL	338	n/a	0	n/a	0	0	0	0	0.5869140625	0.422607421875	upper	../fonts/amplitud.ttf
1041656	WORD	wordpools/wasnorm_wordpool_less_exclusions.txt	LTP210	ltpFR	12	4	0	DRAGON	492	n/a	1	n/a	0	0	0	0	0.5869140625	0.422607421875	upper	../fonts/amplitud.ttf
1045856	WORD	wordpools/wasnorm_wordpool_less_exclusions.txt	LTP210	ltpFR	12	4	0	ROCK	1201	n/a	0	n/a	0	0	0	0	0.5869140625	0.422607421875	upper	../fonts/amplitud.ttf
1049749	WORD	wordpools/wasnorm_wordpool_less_exclusions.txt	LTP210	ltpFR	12	4	0	QUAIL	1147	n/a	0	n/a	0	0	0	0	0.5869140625	0.422607421875	upper	../fonts/amplitud.ttf
1053647	WORD	wordpools/wasnorm_wordpool_less_exclusions.txt	LTP210	ltpFR	12	4	0	DISH	474	n/a	0	n/a	0	0	0	0	0.5869140625	0.422607421875	upper	../fonts/amplitud.ttf
1057650	WORD	wordpools/wasnorm_wordpool_less_exclusions.txt	LTP210	ltpFR	12	4	0	KNUCKLE	789	n/a	0	n/a	0	0	0	0	0.5869140625	0.422607421875	upper	../fonts/amplitud.ttf
1061531	WORD	wordpools/wasnorm_wordpool_less_exclusions.txt	LTP210	ltpFR	12	4	0	ATTIRE	57	n/a	1	n/a	0	0	0	0	0.5869140625	0.422607421875	upper	../fonts/amplitud.ttf
1064543	START	n/a	LTP210	ltpFR	12	n/a	n/a	n/a	n/a	n/a	n/a	n/a	n/a	n/a	n/a	n/a	n/a	n/a	n/a	n/a
1065408	PROB	n/a	LTP210	ltpFR	12	n/a	n/a	n/a	n/a	n/a	n/a	13	2	5	6	n/a	n/a	n/a	n/a	n/a
1067969	PROB	n/a	LTP210	ltpFR	12	n/a	n/a	n/a	n/a	n/a	n/a	6	4	1	1	n/a	n/a	n/a	n/a	n/a
1069111	PROB	n/a	LTP210	ltpFR	12	n/a	n/a	n/a	n/a	n/a	n/a	15	7	1	7	n/a	n/a	n/a	n/a	n/a
1070695	PROB	n/a	LTP210	ltpFR	12	n/a	n/a	n/a	n/a	n/a	n/a	13	9	1	3	n/a	n/a	n/a	n/a	n/a
1071762	STOP	n/a	LTP210	ltpFR	12	n/a	n/a	n/a	n/a	n/a	n/a	n/a	n/a	n/a	n/a	n/a	n/a	n/a	n/a	n/a
1074481	REC_START	n/a	LTP210	ltpFR	12	4	n/a	n/a	n/a	n/a	n/a	n/a	0	0	0	n/a	n/a	n/a	n/a	n/a
1077339	REC_WORD	wordpools/wasnorm_wordpool_less_exclusions.txt	LTP210	ltpFR	12	4	0	QUAIL	1147	n/a	0	n/a	0	0	0	n/a	n/a	n/a	n/a	n/a
1080407	REC_WORD	wordpools/wasnorm_wordpool_less_exclusions.txt	LTP210	ltpFR	12	4	0	CROW	414	n/a	0	n/a	0	0	0	n/a	n/a	n/a	n/a	n/a
1083630	REC_WORD	wordpools/wasnorm_wordpool_less_exclusions.txt	LTP210	ltpFR	12	4	0	BRIDGE	174	n/a	1	n/a	0	0	0	n/a	n/a	n/a	n/a	n/a
1086339	REC_WORD	wordpools/wasnorm_wordpool_less_exclusions.txt	LTP210	ltpFR	12	4	0	KNUCKLE	789	n/a	0	n/a	0	0	0	n/a	n/a	n/a	n/a	n/a
1089396	REC_WORD	wordpools/wasnorm_wordpool_less_exclusions.txt	LTP210	ltpFR	12	4	0	ATTIRE	57	n/a	1	n/a	0	0	0	n/a	n/a	n/a	n/a	n/a
1091148	REC_WORD	wordpools/wasnorm_wordpool_less_exclusions.txt	LTP210	ltpFR	12	4	0	RIVER	1194	n/a	1	n/a	0	0	0	n/a	n/a	n/a	n/a	n/a
1103250	REC_WORD	wordpools/wasnorm_wordpool_less_exclusions.txt	LTP210	ltpFR	12	4	0	COCKTAIL	338	n/a	0	n/a	0	0	0	n/a	n/a	n/a	n/a	n/a
1131047	REC_WORD	wordpools/wasnorm_wordpool_less_exclusions.txt	LTP210	ltpFR	12	4	0	DISH	474	n/a	0	n/a	0	0	0	n/a	n/a	n/a	n/a	n/a
1133656	REC_WORD	wordpools/wasnorm_wordpool_less_exclusions.txt	LTP210	ltpFR	12	4	0	LUNCH	849	n/a	0	n/a	0	0	0	n/a	n/a	n/a	n/a	n/a
1172249	WORD	wordpools/wasnorm_wordpool_less_exclusions.txt	LTP210	ltpFR	12	5	1	PUMP	1141	n/a	0	n/a	0	0	0	1	0.412841796875	0.57763671875	lower	../fonts/zerothre.ttf
1176331	WORD	wordpools/wasnorm_wordpool_less_exclusions.txt	LTP210	ltpFR	12	5	1	NIECE	952	n/a	1	n/a	0	0	0	1	0.412841796875	0.57763671875	lower	../fonts/zerothre.ttf
1180346	WORD	wordpools/wasnorm_wordpool_less_exclusions.txt	LTP210	ltpFR	12	5	0	LILY	821	n/a	0	n/a	0	0	0	0	0.5869140625	0.422607421875	upper	../fonts/amplitud.ttf
1184428	WORD	wordpools/wasnorm_wordpool_less_exclusions.txt	LTP210	ltpFR	12	5	0	LUMBER	848	n/a	1	n/a	0	0	0	0	0.5869140625	0.422607421875	upper	../fonts/amplitud.ttf
1188610	WORD	wordpools/wasnorm_wordpool_less_exclusions.txt	LTP210	ltpFR	12	5	0	CREAM	402	n/a	0	n/a	0	0	0	0	0.5869140625	0.422607421875	upper	../fonts/amplitud.ttf
1192771	WORD	wordpools/wasnorm_wordpool_less_exclusions.txt	LTP210	ltpFR	12	5	0	TEAPOT	1442	n/a	0	n/a	0	0	0	0	0.5869140625	0.422607421875	upper	../fonts/amplitud.ttf
1196859	WORD	wordpools/wasnorm_wordpool_less_exclusions.txt	LTP210	ltpFR	12	5	1	AGENT	10	n/a	1	n/a	0	0	0	1	0.412841796875	0.57763671875	lower	../fonts/zerothre.ttf
1200853	WORD	wordpools/wasnorm_wordpool_less_exclusions.txt	LTP210	ltpFR	12	5	1	OPERATOR	979	n/a	1	n/a	0	0	0	1	0.412841796875	0.57763671875	lower	../fonts/zerothre.ttf
1204687	WORD	wordpools/wasnorm_wordpool_less_exclusions.txt	LTP210	ltpFR	12	5	1	SPIT	1354	n/a	0	n/a	0	0	0	1	0.412841796875	0.57763671875	lower	../fonts/zerothre.ttf
1208883	WORD	wordpools/wasnorm_wordpool_less_exclusions.txt	LTP210	ltpFR	12	5	1	TONGUE	1479	n/a	0	n/a	0	0	0	1	0.412841796875	0.57763671875	lower	../fonts/zerothre.ttf
1212953	WORD	wordpools/wasnorm_wordpool_less_exclusions.txt	LTP210	ltpFR	12	5	0	CROOK	412	n/a	1	n/a	0	0	0	0	0.5869140625	0.422607421875	upper	../fonts/amplitud.ttf
1217068	WORD	wordpools/wasnorm_wordpool_less_exclusions.txt	LTP210	ltpFR	12	5	0	SUGAR	1401	n/a	0	n/a	0	0	0	0	0.5869140625	0.422607421875	upper	../fonts/amplitud.ttf
1220979	WORD	wordpools/wasnorm_wordpool_less_exclusions.txt	LTP210	ltpFR	12	5	0	STRAWBERRY	1391	n/a	0	n/a	0	0	0	0	0.5869140625	0.422607421875	upper	../fonts/amplitud.ttf
1225149	WORD	wordpools/wasnorm_wordpool_less_exclusions.txt	LTP210	ltpFR	12	5	0	SIDING	1304	n/a	1	n/a	0	0	0	0	0.5869140625	0.422607421875	upper	../fonts/amplitud.ttf
1229298	WORD	wordpools/wasnorm_wordpool_less_exclusions.txt	LTP210	ltpFR	12	5	1	RELATIVE	1182	n/a	1	n/a	0	0	0	1	0.412841796875	0.57763671875	lower	../fonts/zerothre.ttf
1233458	WORD	wordpools/wasnorm_wordpool_less_exclusions.txt	LTP210	ltpFR	12	5	1	DANDELION	438	n/a	1	n/a	0	0	0	1	0.412841796875	0.57763671875	lower	../fonts/zerothre.ttf
1236474	START	n/a	LTP210	ltpFR	12	n/a	n/a	n/a	n/a	n/a	n/a	n/a	n/a	n/a	n/a	n/a	n/a	n/a	n/a	n/a
1237461	PROB	n/a	LTP210	ltpFR	12	n/a	n/a	n/a	n/a	n/a	n/a	15	4	2	9	n/a	n/a	n/a	n/a	n/a
1239564	PROB	n/a	LTP210	ltpFR	12	n/a	n/a	n/a	n/a	n/a	n/a	18	5	6	7	n/a	n/a	n/a	n/a	n/a
1241560	PROB	n/a	LTP210	ltpFR	12	n/a	n/a	n/a	n/a	n/a	n/a	14	8	4	2	n/a	n/a	n/a	n/a	n/a
1242815	PROB	n/a	LTP210	ltpFR	12	n/a	n/a	n/a	n/a	n/a	n/a	19	9	5	5	n/a	n/a	n/a	n/a	n/a
1244032	PROB	n/a	LTP210	ltpFR	12	n/a	n/a	n/a	n/a	n/a	n/a	15	1	6	8	n/a	n/a	n/a	n/a	n/a
1245839	PROB	n/a	LTP210	ltpFR	12	n/a	n/a	n/a	n/a	n/a	n/a	13	5	6	2	n/a	n/a	n/a	n/a	n/a
1247599	PROB	n/a	LTP210	ltpFR	12	n/a	n/a	n/a	n/a	n/a	n/a	12	2	7	3	n/a	n/a	n/a	n/a	n/a
1249269	PROB	n/a	LTP210	ltpFR	12	n/a	n/a	n/a	n/a	n/a	n/a	19	8	5	6	n/a	n/a	n/a	n/a	n/a
1252105	STOP	n/a	LTP210	ltpFR	12	n/a	n/a	n/a	n/a	n/a	n/a	n/a	n/a	n/a	n/a	n/a	n/a	n/a	n/a	n/a
1254355	REC_START	n/a	LTP210	ltpFR	12	5	n/a	n/a	n/a	n/a	n/a	n/a	0	0	0	n/a	n/a	n/a	n/a	n/a
1255123	REC_WORD	wordpools/wasnorm_wordpool_less_exclusions.txt	LTP210	ltpFR	12	5	1	DANDELION	438	n/a	1	n/a	0	0	0	n/a	n/a	n/a	n/a	n/a
1258301	REC_WORD	wordpools/wasnorm_wordpool_less_exclusions.txt	LTP210	ltpFR	12	5	0	STRAWBERRY	1391	n/a	0	n/a	0	0	0	n/a	n/a	n/a	n/a	n/a
1267675	REC_WORD	wordpools/wasnorm_wordpool_less_exclusions.txt	LTP210	ltpFR	12	5	1	NIECE	952	n/a	1	n/a	0	0	0	n/a	n/a	n/a	n/a	n/a
1270002	REC_WORD	wordpools/wasnorm_wordpool_less_exclusions.txt	LTP210	ltpFR	12	5	1	OPERATOR	979	n/a	1	n/a	0	0	0	n/a	n/a	n/a	n/a	n/a
1271750	REC_WORD	wordpools/wasnorm_wordpool_less_exclusions.txt	LTP210	ltpFR	12	5	1	AGENT	10	n/a	1	n/a	0	0	0	n/a	n/a	n/a	n/a	n/a
1278799	REC_WORD	wordpools/wasnorm_wordpool_less_exclusions.txt	LTP210	ltpFR	12	5	1	PUMP	1141	n/a	0	n/a	0	0	0	n/a	n/a	n/a	n/a	n/a
1362796	WORD	wordpools/wasnorm_wordpool_less_exclusions.txt	LTP210	ltpFR	12	6	0	SPRINKLE	1359	n/a	0	n/a	0	0	0	0	0.5869140625	0.422607421875	upper	../fonts/amplitud.ttf
1366950	WORD	wordpools/wasnorm_wordpool_less_exclusions.txt	LTP210	ltpFR	12	6	0	TENT	1449	n/a	1	n/a	0	0	0	0	0.5869140625	0.422607421875	upper	../fonts/amplitud.ttf
1370843	WORD	wordpools/wasnorm_wordpool_less_exclusions.txt	LTP210	ltpFR	12	6	1	VIOLIN	1571	n/a	0	n/a	0	0	0	1	0.412841796875	0.57763671875	lower	../fonts/zerothre.ttf
1374791	WORD	wordpools/wasnorm_wordpool_less_exclusions.txt	LTP210	ltpFR	12	6	1	PIGEON	1065	n/a	1	n/a	0	0	0	1	0.412841796875	0.57763671875	lower	../fonts/zerothre.ttf
1378912	WORD	wordpools/wasnorm_wordpool_less_exclusions.txt	LTP210	ltpFR	12	6	1	WART	1590	n/a	0	n/a	0	0	0	1	0.412841796875	0.57763671875	lower	../fonts/zerothre.ttf
1382758	WORD	wordpools/wasnorm_wordpool_less_exclusions.txt	LTP210	ltpFR	12	6	1	MOUNTAIN	924	n/a	0	n/a	0	0	0	1	0.412841796875	0.57763671875	lower	../fonts/zerothre.ttf
1386975	WORD	wordpools/wasnorm_wordpool_less_exclusions.txt	LTP210	ltpFR	12	6	1	OBOE	969	n/a	0	n/a	0	0	0	1	0.412841796875	0.57763671875	lower	../fonts/zerothre.ttf
1390869	WORD	wordpools/wasnorm_wordpool_less_exclusions.txt	LTP210	ltpFR	12	6	1	DICTATOR	462	n/a	1	n/a	0	0	0	1	0.412841796875	0.57763671875	lower	../fonts/zerothre.ttf
1394934	WORD	wordpools/wasnorm_wordpool_less_exclusions.txt	LTP210	ltpFR	12	6	0	LIME	823	n/a	0	n/a	0	0	0	0	0.5869140625	0.422607421875	upper	../fonts/amplitud.ttf
1399033	WORD	wordpools/wasnorm_wordpool_less_exclusions.txt	LTP210	ltpFR	12	6	0	TART	1436	n/a	0	n/a	0	0	0	0	0.5869140625	0.422607421875	upper	../fonts/amplitud.ttf
1403052	WORD	wordpools/wasnorm_wordpool_less_exclusions.txt	LTP210	ltpFR	12	6	0	BUTTERFLY	206	n/a	0	n/a	0	0	0	0	0.5869140625	0.422607421875	upper	../fonts/amplitud.ttf
1406917	WORD	wordpools/wasnorm_wordpool_less_exclusions.txt	LTP210	ltpFR	12	6	1	GRASSHOPPER	656	n/a	1	n/a	0	0	0	1	0.412841796875	0.57763671875	lower	../fonts/zerothre.ttf
1410764	WORD	wordpools/wasnorm_wordpool_less_exclusions.txt	LTP210	ltpFR	12	6	1	DONOR	485	n/a	1	n/a	0	0	0	1	0.412841796875	0.57763671875	lower	../fonts/zerothre.ttf
1414595	WORD	wordpools/wasnorm_wordpool_less_exclusions.txt	LTP210	ltpFR	12	6	0	PRESIDENT	1121	n/a	1	n/a	0	0	0	0	0.5869140625	0.422607421875	upper	../fonts/amplitud.ttf
1418727	WORD	wordpools/wasnorm_wordpool_less_exclusions.txt	LTP210	ltpFR	12	6	0	MESSAGE	888	n/a	0	n/a	0	0	0	0	0.5869140625	0.422607421875	upper	../fonts/amplitud.ttf
1422692	WORD	wordpools/wasnorm_wordpool_less_exclusions.txt	LTP210	ltpFR	12	6	0	PARCEL	1012	n/a	1	n/a	0	0	0	0	0.5869140625	0.422607421875	upper	../fonts/amplitud.ttf
1428378	REC_START	n/a	LTP210	ltpFR	12	6	n/a	n/a	n/a	n/a	n/a	n/a	0	0	0	n/a	n/a	n/a	n/a	n/a
1429241	REC_WORD	wordpools/wasnorm_wordpool_less_exclusions.txt	LTP210	ltpFR	12	6	0	PARCEL	1012	n/a	1	n/a	0	0	0	n/a	n/a	n/a	n/a	n/a
1433324	REC_WORD	wordpools/wasnorm_wordpool_less_exclusions.txt	LTP210	ltpFR	12	6	1	DICTATOR	462	n/a	1	n/a	0	0	0	n/a	n/a	n/a	n/a	n/a
1435502	REC_WORD	wordpools/wasnorm_wordpool_less_exclusions.txt	LTP210	ltpFR	12	6	0	BUTTERFLY	206	n/a	0	n/a	0	0	0	n/a	n/a	n/a	n/a	n/a
1438664	REC_WORD	wordpools/wasnorm_wordpool_less_exclusions.txt	LTP210	ltpFR	12	6	0	MESSAGE	888	n/a	0	n/a	0	0	0	n/a	n/a	n/a	n/a	n/a
1442286	REC_WORD	wordpools/wasnorm_wordpool_less_exclusions.txt	LTP210	ltpFR	12	6	1	VIOLIN	1571	n/a	0	n/a	0	0	0	n/a	n/a	n/a	n/a	n/a
1443853	REC_WORD	wordpools/wasnorm_wordpool_less_exclusions.txt	LTP210	ltpFR	12	6	1	OBOE	969	n/a	0	n/a	0	0	0	n/a	n/a	n/a	n/a	n/a
1523139	START	n/a	LTP210	ltpFR	12	n/a	n/a	n/a	n/a	n/a	n/a	n/a	n/a	n/a	n/a	n/a	n/a	n/a	n/a	n/a
1524656	PROB	n/a	LTP210	ltpFR	12	n/a	n/a	n/a	n/a	n/a	n/a	17	8	6	3	n/a	n/a	n/a	n/a	n/a
1527382	PROB	n/a	LTP210	ltpFR	12	n/a	n/a	n/a	n/a	n/a	n/a	8	1	5	2	n/a	n/a	n/a	n/a	n/a
1529077	PROB	n/a	LTP210	ltpFR	12	n/a	n/a	n/a	n/a	n/a	n/a	14	6	2	6	n/a	n/a	n/a	n/a	n/a
1530610	STOP	n/a	LTP210	ltpFR	12	n/a	n/a	n/a	n/a	n/a	n/a	n/a	n/a	n/a	n/a	n/a	n/a	n/a	n/a	n/a
1532218	WORD	wordpools/wasnorm_wordpool_less_exclusions.txt	LTP210	ltpFR	12	7	1	GRASS	655	n/a	1	n/a	0	0	0	1	0.412841796875	0.57763671875	lower	../fonts/zerothre.ttf
1535235	START	n/a	LTP210	ltpFR	12	n/a	n/a	n/a	n/a	n/a	n/a	n/a	n/a	n/a	n/a	n/a	n/a	n/a	n/a	n/a
1536437	PROB	n/a	LTP210	ltpFR	12	n/a	n/a	n/a	n/a	n/a	n/a	23	9	9	5	n/a	n/a	n/a	n/a	n/a
1538224	PROB	n/a	LTP210	ltpFR	12	n/a	n/a	n/a	n/a	n/a	n/a	14	7	5	2	n/a	n/a	n/a	n/a	n/a
1541374	PROB	n/a	LTP210	ltpFR	12	n/a	n/a	n/a	n/a	n/a	n/a	14	7	3	4	n/a	n/a	n/a	n/a	n/a
1542371	STOP	n/a	LTP210	ltpFR	12	n/a	n/a	n/a	n/a	n/a	n/a	n/a	n/a	n/a	n/a	n/a	n/a	n/a	n/a	n/a
1544368	WORD	wordpools/wasnorm_wordpool_less_exclusions.txt	LTP210	ltpFR	12	7	1	CACTUS	215	n/a	1	n/a	0	0	0	1	0.412841796875	0.57763671875	lower	../fonts/zerothre.ttf
1547380	START	n/a	LTP210	ltpFR	12	n/a	n/a	n/a	n/a	n/a	n/a	n/a	n/a	n/a	n/a	n/a	n/a	n/a	n/a	n/a
1548533	PROB	n/a	LTP210	ltpFR	12	n/a	n/a	n/a	n/a	n/a	n/a	12	1	9	2	n/a	n/a	n/a	n/a	n/a
1549969	PROB	n/a	LTP210	ltpFR	12	n/a	n/a	n/a	n/a	n/a	n/a	11	4	6	1	n/a	n/a	n/a	n/a	n/a
1551039	PROB	n/a	LTP210	ltpFR	12	n/a	n/a	n/a	n/a	n/a	n/a	11	1	2	8	n/a	n/a	n/a	n/a	n/a
1552097	PROB	n/a	LTP210	ltpFR	12	n/a	n/a	n/a	n/a	n/a	n/a	10	8	1	1	n/a	n/a	n/a	n/a	n/a
1553365	PROB	n/a	LTP210	ltpFR	12	n/a	n/a	n/a	n/a	n/a	n/a	9	4	1	4	n/a	n/a	n/a	n/a	n/a
1554506	STOP	n/a	LTP210	ltpFR	12	n/a	n/a	n/a	n/a	n/a	n/a	n/a	n/a	n/a	n/a	n/a	n/a	n/a	n/a	n/a
1556492	WORD	wordpools/wasnorm_wordpool_less_exclusions.txt	LTP210	ltpFR	12	7	1	TROUT	1511	n/a	1	n/a	0	0	0	1	0.412841796875	0.57763671875	lower	../fonts/zerothre.ttf
1559508	START	n/a	LTP210	ltpFR	12	n/a	n/a	n/a	n/a	n/a	n/a	n/a	n/a	n/a	n/a	n/a	n/a	n/a	n/a	n/a
1560428	PROB	n/a	LTP210	ltpFR	12	n/a	n/a	n/a	n/a	n/a	n/a	27	8	8	9	n/a	n/a	n/a	n/a	n/a
1562064	PROB	n/a	LTP210	ltpFR	12	n/a	n/a	n/a	n/a	n/a	n/a	8	3	3	2	n/a	n/a	n/a	n/a	n/a
1567508	STOP	n/a	LTP210	ltpFR	12	n/a	n/a	n/a	n/a	n/a	n/a	n/a	n/a	n/a	n/a	n/a	n/a	n/a	n/a	n/a
1568458	WORD	wordpools/wasnorm_wordpool_less_exclusions.txt	LTP210	ltpFR	12	7	1	WALRUS	1585	n/a	1	n/a	0	0	0	1	0.412841796875	0.57763671875	lower	../fonts/zerothre.ttf
1571470	START	n/a	LTP210	ltpFR	12	n/a	n/a	n/a	n/a	n/a	n/a	n/a	n/a	n/a	n/a	n/a	n/a	n/a	n/a	n/a
1572385	PROB	n/a	LTP210	ltpFR	12	n/a	n/a	n/a	n/a	n/a	n/a	16	3	8	5	n/a	n/a	n/a	n/a	n/a
1574410	PROB	n/a	LTP210	ltpFR	12	n/a	n/a	n/a	n/a	n/a	n/a	20	9	9	2	n/a	n/a	n/a	n/a	n/a
1576000	PROB	n/a	LTP210	ltpFR	12	n/a	n/a	n/a	n/a	n/a	n/a	18	7	8	3	n/a	n/a	n/a	n/a	n/a
1579469	STOP	n/a	LTP210	ltpFR	12	n/a	n/a	n/a	n/a	n/a	n/a	n/a	n/a	n/a	n/a	n/a	n/a	n/a	n/a	n/a
1580470	WORD	wordpools/wasnorm_wordpool_less_exclusions.txt	LTP210	ltpFR	12	7	1	DIME	466	n/a	0	n/a	0	0	0	1	0.412841796875	0.57763671875	lower	../fonts/zerothre.ttf
1583482	START	n/a	LTP210	ltpFR	12	n/a	n/a	n/a	n/a	n/a	n/a	n/a	n/a	n/a	n/a	n/a	n/a	n/a	n/a	n/a
1584352	PROB	n/a	LTP210	ltpFR	12	n/a	n/a	n/a	n/a	n/a	n/a	8	1	1	6	n/a	n/a	n/a	n/a	n/a
1585568	PROB	n/a	LTP210	ltpFR	12	n/a	n/a	n/a	n/a	n/a	n/a	10	2	3	5	n/a	n/a	n/a	n/a	n/a
1587042	PROB	n/a	LTP210	ltpFR	12	n/a	n/a	n/a	n/a	n/a	n/a	15	2	4	9	n/a	n/a	n/a	n/a	n/a
1589221	PROB	n/a	LTP210	ltpFR	12	n/a	n/a	n/a	n/a	n/a	n/a	20	7	4	9	n/a	n/a	n/a	n/a	n/a
1591131	STOP	n/a	LTP210	ltpFR	12	n/a	n/a	n/a	n/a	n/a	n/a	n/a	n/a	n/a	n/a	n/a	n/a	n/a	n/a	n/a
1592566	WORD	wordpools/wasnorm_wordpool_less_exclusions.txt	LTP210	ltpFR	12	7	1	BILL	126	n/a	0	n/a	0	0	0	1	0.412841796875	0.57763671875	lower	../fonts/zerothre.ttf
1595578	START	n/a	LTP210	ltpFR	12	n/a	n/a	n/a	n/a	n/a	n/a	n/a	n/a	n/a	n/a	n/a	n/a	n/a	n/a	n/a
1596564	PROB	n/a	LTP210	ltpFR	12	n/a	n/a	n/a	n/a	n/a	n/a	14	2	4	8	n/a	n/a	n/a	n/a	n/a
1597882	PROB	n/a	LTP210	ltpFR	12	n/a	n/a	n/a	n/a	n/a	n/a	13	2	5	6	n/a	n/a	n/a	n/a	n/a
1599391	PROB	n/a	LTP210	ltpFR	12	n/a	n/a	n/a	n/a	n/a	n/a	23	6	8	9	n/a	n/a	n/a	n/a	n/a
1601495	PROB	n/a	LTP210	ltpFR	12	n/a	n/a	n/a	n/a	n/a	n/a	16	7	1	8	n/a	n/a	n/a	n/a	n/a
1603091	STOP	n/a	LTP210	ltpFR	12	n/a	n/a	n/a	n/a	n/a	n/a	n/a	n/a	n/a	n/a	n/a	n/a	n/a	n/a	n/a
1604645	WORD	wordpools/wasnorm_wordpool_less_exclusions.txt	LTP210	ltpFR	12	7	1	INSECT	740	n/a	1	n/a	0	0	0	1	0.412841796875	0.57763671875	lower	../fonts/zerothre.ttf
1607657	START	n/a	LTP210	ltpFR	12	n/a	n/a	n/a	n/a	n/a	n/a	n/a	n/a	n/a	n/a	n/a	n/a	n/a	n/a	n/a
1608576	PROB	n/a	LTP210	ltpFR	12	n/a	n/a	n/a	n/a	n/a	n/a	21	7	9	5	n/a	n/a	n/a	n/a	n/a
1610517	PROB	n/a	LTP210	ltpFR	12	n/a	n/a	n/a	n/a	n/a	n/a	19	4	8	7	n/a	n/a	n/a	n/a	n/a
1612224	PROB	n/a	LTP210	ltpFR	12	n/a	n/a	n/a	n/a	n/a	n/a	14	4	8	2	n/a	n/a	n/a	n/a	n/a
1613407	PROB	n/a	LTP210	ltpFR	12	n/a	n/a	n/a	n/a	n/a	n/a	15	3	3	9	n/a	n/a	n/a	n/a	n/a
1614835	STOP	n/a	LTP210	ltpFR	12	n/a	n/a	n/a	n/a	n/a	n/a	n/a	n/a	n/a	n/a	n/a	n/a	n/a	n/a	n/a
1616489	WORD	wordpools/wasnorm_wordpool_less_exclusions.txt	LTP210	ltpFR	12	7	1	PRUNE	1134	n/a	1	n/a	0	0	0	1	0.412841796875	0.57763671875	lower	../fonts/zerothre.ttf
1619501	START	n/a	LTP210	ltpFR	12	n/a	n/a	n/a	n/a	n/a	n/a	n/a	n/a	n/a	n/a	n/a	n/a	n/a	n/a	n/a
1620371	PROB	n/a	LTP210	ltpFR	12	n/a	n/a	n/a	n/a	n/a	n/a	11	1	2	8	n/a	n/a	n/a	n/a	n/a
1621470	PROB	n/a	LTP210	ltpFR	12	n/a	n/a	n/a	n/a	n/a	n/a	11	1	7	3	n/a	n/a	n/a	n/a	n/a
1623077	PROB	n/a	LTP210	ltpFR	12	n/a	n/a	n/a	n/a	n/a	n/a	14	6	6	2	n/a	n/a	n/a	n/a	n/a
1626035	STOP	n/a	LTP210	ltpFR	12	n/a	n/a	n/a	n/a	n/a	n/a	n/a	n/a	n/a	n/a	n/a	n/a	n/a	n/a	n/a
1628685	WORD	wordpools/wasnorm_wordpool_less_exclusions.txt	LTP210	ltpFR	12	7	1	CHERRY	293	n/a	1	n/a	0	0	0	1	0.412841796875	0.57763671875	lower	../fonts/zerothre.ttf
1631697	START	n/a	LTP210	ltpFR	12	n/a	n/a	n/a	n/a	n/a	n/a	n/a	n/a	n/a	n/a	n/a	n/a	n/a	n/a	n/a
1632700	PROB	n/a	LTP210	ltpFR	12	n/a	n/a	n/a	n/a	n/a	n/a	21	6	8	7	n/a	n/a	n/a	n/a	n/a
1634186	PROB	n/a	LTP210	ltpFR	12	n/a	n/a	n/a	n/a	n/a	n/a	11	5	3	3	n/a	n/a	n/a	n/a	n/a
1636615	PROB	n/a	LTP210	ltpFR	12	n/a	n/a	n/a	n/a	n/a	n/a	10	5	2	3	n/a	n/a	n/a	n/a	n/a
1638123	STOP	n/a	LTP210	ltpFR	12	n/a	n/a	n/a	n/a	n/a	n/a	n/a	n/a	n/a	n/a	n/a	n/a	n/a	n/a	n/a
1640664	WORD	wordpools/wasnorm_wordpool_less_exclusions.txt	LTP210	ltpFR	12	7	1	COACH	331	n/a	1	n/a	0	0	0	1	0.412841796875	0.57763671875	lower	../fonts/zerothre.ttf
1643675	START	n/a	LTP210	ltpFR	12	n/a	n/a	n/a	n/a	n/a	n/a	n/a	n/a	n/a	n/a	n/a	n/a	n/a	n/a	n/a
1644880	PROB	n/a	LTP210	ltpFR	12	n/a	n/a	n/a	n/a	n/a	n/a	13	4	3	6	n/a	n/a	n/a	n/a	n/a
1646967	PROB	n/a	LTP210	ltpFR	12	n/a	n/a	n/a	n/a	n/a	n/a	23	8	9	6	n/a	n/a	n/a	n/a	n/a
1651675	STOP	n/a	LTP210	ltpFR	12	n/a	n/a	n/a	n/a	n/a	n/a	n/a	n/a	n/a	n/a	n/a	n/a	n/a	n/a	n/a
1652625	WORD	wordpools/wasnorm_wordpool_less_exclusions.txt	LTP210	ltpFR	12	7	1	ANIMAL	23	n/a	1	n/a	0	0	0	1	0.412841796875	0.57763671875	lower	../fonts/zerothre.ttf
1655637	START	n/a	LTP210	ltpFR	12	n/a	n/a	n/a	n/a	n/a	n/a	n/a	n/a	n/a	n/a	n/a	n/a	n/a	n/a	n/a
1656523	PROB	n/a	LTP210	ltpFR	12	n/a	n/a	n/a	n/a	n/a	n/a	12	2	8	2	n/a	n/a	n/a	n/a	n/a
1657875	PROB	n/a	LTP210	ltpFR	12	n/a	n/a	n/a	n/a	n/a	n/a	13	5	1	7	n/a	n/a	n/a	n/a	n/a
1659664	PROB	n/a	LTP210	ltpFR	12	n/a	n/a	n/a	n/a	n/a	n/a	15	9	3	3	n/a	n/a	n/a	n/a	n/a
1661108	PROB	n/a	LTP210	ltpFR	12	n/a	n/a	n/a	n/a	n/a	n/a	10	3	2	5	n/a	n/a	n/a	n/a	n/a
1662211	STOP	n/a	LTP210	ltpFR	12	n/a	n/a	n/a	n/a	n/a	n/a	n/a	n/a	n/a	n/a	n/a	n/a	n/a	n/a	n/a
1664666	WORD	wordpools/wasnorm_wordpool_less_exclusions.txt	LTP210	ltpFR	12	7	1	FUDGE	611	n/a	0	n/a	0	0	0	1	0.412841796875	0.57763671875	lower	../fonts/zerothre.ttf
1667683	START	n/a	LTP210	ltpFR	12	n/a	n/a	n/a	n/a	n/a	n/a	n/a	n/a	n/a	n/a	n/a	n/a	n/a	n/a	n/a
1668719	PROB	n/a	LTP210	ltpFR	12	n/a	n/a	n/a	n/a	n/a	n/a	12	6	5	1	n/a	n/a	n/a	n/a	n/a
1669870	PROB	n/a	LTP210	ltpFR	12	n/a	n/a	n/a	n/a	n/a	n/a	14	4	8	2	n/a	n/a	n/a	n/a	n/a
1671108	PROB	n/a	LTP210	ltpFR	12	n/a	n/a	n/a	n/a	n/a	n/a	17	8	6	3	n/a	n/a	n/a	n/a	n/a
1674147	STOP	n/a	LTP210	ltpFR	12	n/a	n/a	n/a	n/a	n/a	n/a	n/a	n/a	n/a	n/a	n/a	n/a	n/a	n/a	n/a
1676566	WORD	wordpools/wasnorm_wordpool_less_exclusions.txt	LTP210	ltpFR	12	7	1	DENIM	446	n/a	0	n/a	0	0	0	1	0.412841796875	0.57763671875	lower	../fonts/zerothre.ttf
1679577	START	n/a	LTP210	ltpFR	12	n/a	n/a	n/a	n/a	n/a	n/a	n/a	n/a	n/a	n/a	n/a	n/a	n/a	n/a	n/a
1680781	PROB	n/a	LTP210	ltpFR	12	n/a	n/a	n/a	n/a	n/a	n/a	18	7	9	2	n/a	n/a	n/a	n/a	n/a
1682534	PROB	n/a	LTP210	ltpFR	12	n/a	n/a	n/a	n/a	n/a	n/a	13	4	5	4	n/a	n/a	n/a	n/a	n/a
1684881	PROB	n/a	LTP210	ltpFR	12	n/a	n/a	n/a	n/a	n/a	n/a	17	6	9	2	n/a	n/a	n/a	n/a	n/a
1687195	STOP	n/a	LTP210	ltpFR	12	n/a	n/a	n/a	n/a	n/a	n/a	n/a	n/a	n/a	n/a	n/a	n/a	n/a	n/a	n/a
1688594	WORD	wordpools/wasnorm_wordpool_less_exclusions.txt	LTP210	ltpFR	12	7	1	BLACKBOARD	133	n/a	0	n/a	0	0	0	1	0.412841796875	0.57763671875	lower	../fonts/zerothre.ttf
1691606	START	n/a	LTP210	ltpFR	12	n/a	n/a	n/a	n/a	n/a	n/a	n/a	n/a	n/a	n/a	n/a	n/a	n/a	n/a	n/a
1692777	PROB	n/a	LTP210	ltpFR	12	n/a	n/a	n/a	n/a	n/a	n/a	21	9	8	4	n/a	n/a	n/a	n/a	n/a
1694831	PROB	n/a	LTP210	ltpFR	12	n/a	n/a	n/a	n/a	n/a	n/a	19	5	8	6	n/a	n/a	n/a	n/a	n/a
1697073	PROB	n/a	LTP210	ltpFR	12	n/a	n/a	n/a	n/a	n/a	n/a	16	6	3	7	n/a	n/a	n/a	n/a	n/a
1698275	STOP	n/a	LTP210	ltpFR	12	n/a	n/a	n/a	n/a	n/a	n/a	n/a	n/a	n/a	n/a	n/a	n/a	n/a	n/a	n/a
1700485	WORD	wordpools/wasnorm_wordpool_less_exclusions.txt	LTP210	ltpFR	12	7	1	CRICKET	408	n/a	1	n/a	0	0	0	1	0.412841796875	0.57763671875	lower	../fonts/zerothre.ttf
1703501	START	n/a	LTP210	ltpFR	12	n/a	n/a	n/a	n/a	n/a	n/a	n/a	n/a	n/a	n/a	n/a	n/a	n/a	n/a	n/a
1704588	PROB	n/a	LTP210	ltpFR	12	n/a	n/a	n/a	n/a	n/a	n/a	20	9	8	3	n/a	n/a	n/a	n/a	n/a
1706960	PROB	n/a	LTP210	ltpFR	12	n/a	n/a	n/a	n/a	n/a	n/a	23	7	7	9	n/a	n/a	n/a	n/a	n/a
1711474	STOP	n/a	LTP210	ltpFR	12	n/a	n/a	n/a	n/a	n/a	n/a	n/a	n/a	n/a	n/a	n/a	n/a	n/a	n/a	n/a
1712631	WORD	wordpools/wasnorm_wordpool_less_exclusions.txt	LTP210	ltpFR	12	7	1	AUDIENCE	59	n/a	1	n/a	0	0	0	1	0.412841796875	0.57763671875	lower	../fonts/zerothre.ttf
1715646	START	n/a	LTP210	ltpFR	12	n/a	n/a	n/a	n/a	n/a	n/a	n/a	n/a	n/a	n/a	n/a	n/a	n/a	n/a	n/a
1716612	PROB	n/a	LTP210	ltpFR	12	n/a	n/a	n/a	n/a	n/a	n/a	16	3	6	7	n/a	n/a	n/a	n/a	n/a
1717952	PROB	n/a	LTP210	ltpFR	12	n/a	n/a	n/a	n/a	n/a	n/a	7	2	3	2	n/a	n/a	n/a	n/a	n/a
1719976	PROB	n/a	LTP210	ltpFR	12	n/a	n/a	n/a	n/a	n/a	n/a	8	1	6	1	n/a	n/a	n/a	n/a	n/a
1721063	PROB	n/a	LTP210	ltpFR	12	n/a	n/a	n/a	n/a	n/a	n/a	13	5	4	4	n/a	n/a	n/a	n/a	n/a
1722570	STOP	n/a	LTP210	ltpFR	12	n/a	n/a	n/a	n/a	n/a	n/a	n/a	n/a	n/a	n/a	n/a	n/a	n/a	n/a	n/a
1725480	REC_START	n/a	LTP210	ltpFR	12	7	n/a	n/a	n/a	n/a	n/a	n/a	0	0	0	n/a	n/a	n/a	n/a	n/a
1726393	REC_WORD	wordpools/wasnorm_wordpool_less_exclusions.txt	LTP210	ltpFR	12	7	1	AUDIENCE	59	n/a	1	n/a	0	0	0	n/a	n/a	n/a	n/a	n/a
1730630	REC_WORD	wordpools/wasnorm_wordpool_less_exclusions.txt	LTP210	ltpFR	12	7	1	CRICKET	408	n/a	1	n/a	0	0	0	n/a	n/a	n/a	n/a	n/a
1732294	REC_WORD	wordpools/wasnorm_wordpool_less_exclusions.txt	LTP210	ltpFR	12	7	1	INSECT	740	n/a	1	n/a	0	0	0	n/a	n/a	n/a	n/a	n/a
1809735	START	n/a	LTP210	ltpFR	12	n/a	n/a	n/a	n/a	n/a	n/a	n/a	n/a	n/a	n/a	n/a	n/a	n/a	n/a	n/a
1811241	PROB	n/a	LTP210	ltpFR	12	n/a	n/a	n/a	n/a	n/a	n/a	14	6	4	4	n/a	n/a	n/a	n/a	n/a
1812528	PROB	n/a	LTP210	ltpFR	12	n/a	n/a	n/a	n/a	n/a	n/a	9	3	1	5	n/a	n/a	n/a	n/a	n/a
1814715	PROB	n/a	LTP210	ltpFR	12	n/a	n/a	n/a	n/a	n/a	n/a	19	6	6	7	n/a	n/a	n/a	n/a	n/a
1817734	STOP	n/a	LTP210	ltpFR	12	n/a	n/a	n/a	n/a	n/a	n/a	n/a	n/a	n/a	n/a	n/a	n/a	n/a	n/a	n/a
1818718	WORD	wordpools/wasnorm_wordpool_less_exclusions.txt	LTP210	ltpFR	12	8	0	VET	1560	n/a	1	n/a	0	0	0	0	0.5869140625	0.422607421875	upper	../fonts/amplitud.ttf
1821730	START	n/a	LTP210	ltpFR	12	n/a	n/a	n/a	n/a	n/a	n/a	n/a	n/a	n/a	n/a	n/a	n/a	n/a	n/a	n/a
1822716	PROB	n/a	LTP210	ltpFR	12	n/a	n/a	n/a	n/a	n/a	n/a	20	9	2	9	n/a	n/a	n/a	n/a	n/a
1824256	PROB	n/a	LTP210	ltpFR	12	n/a	n/a	n/a	n/a	n/a	n/a	14	9	4	4	n/a	n/a	n/a	n/a	n/a
1829729	STOP	n/a	LTP210	ltpFR	12	n/a	n/a	n/a	n/a	n/a	n/a	n/a	n/a	n/a	n/a	n/a	n/a	n/a	n/a	n/a
1830810	WORD	wordpools/wasnorm_wordpool_less_exclusions.txt	LTP210	ltpFR	12	8	0	SANDWICH	1232	n/a	0	n/a	0	0	0	0	0.5869140625	0.422607421875	upper	../fonts/amplitud.ttf
1833826	START	n/a	LTP210	ltpFR	12	n/a	n/a	n/a	n/a	n/a	n/a	n/a	n/a	n/a	n/a	n/a	n/a	n/a	n/a	n/a
1835014	PROB	n/a	LTP210	ltpFR	12	n/a	n/a	n/a	n/a	n/a	n/a	24	9	9	6	n/a	n/a	n/a	n/a	n/a
1836686	PROB	n/a	LTP210	ltpFR	12	n/a	n/a	n/a	n/a	n/a	n/a	17	2	6	9	n/a	n/a	n/a	n/a	n/a
1838438	PROB	n/a	LTP210	ltpFR	12	n/a	n/a	n/a	n/a	n/a	n/a	18	8	9	1	n/a	n/a	n/a	n/a	n/a
1839726	PROB	n/a	LTP210	ltpFR	12	n/a	n/a	n/a	n/a	n/a	n/a	13	6	4	3	n/a	n/a	n/a	n/a	n/a
1841754	STOP	n/a	LTP210	ltpFR	12	n/a	n/a	n/a	n/a	n/a	n/a	n/a	n/a	n/a	n/a	n/a	n/a	n/a	n/a	n/a
1842944	WORD	wordpools/wasnorm_wordpool_less_exclusions.txt	LTP210	ltpFR	12	8	0	TRIANGLE	1504	n/a	1	n/a	0	0	0	0	0.5869140625	0.422607421875	upper	../fonts/amplitud.ttf
1845955	START	n/a	LTP210	ltpFR	12	n/a	n/a	n/a	n/a	n/a	n/a	n/a	n/a	n/a	n/a	n/a	n/a	n/a	n/a	n/a
1847159	PROB	n/a	LTP210	ltpFR	12	n/a	n/a	n/a	n/a	n/a	n/a	12	1	6	5	n/a	n/a	n/a	n/a	n/a
1848526	PROB	n/a	LTP210	ltpFR	12	n/a	n/a	n/a	n/a	n/a	n/a	11	1	6	4	n/a	n/a	n/a	n/a	n/a
1849630	PROB	n/a	LTP210	ltpFR	12	n/a	n/a	n/a	n/a	n/a	n/a	6	2	3	1	n/a	n/a	n/a	n/a	n/a
1851120	PROB	n/a	LTP210	ltpFR	12	n/a	n/a	n/a	n/a	n/a	n/a	11	5	3	3	n/a	n/a	n/a	n/a	n/a
1853107	STOP	n/a	LTP210	ltpFR	12	n/a	n/a	n/a	n/a	n/a	n/a	n/a	n/a	n/a	n/a	n/a	n/a	n/a	n/a	n/a
1854972	WORD	wordpools/wasnorm_wordpool_less_exclusions.txt	LTP210	ltpFR	12	8	0	NOVEL	960	n/a	0	n/a	0	0	0	0	0.5869140625	0.422607421875	upper	../fonts/amplitud.ttf
1857984	START	n/a	LTP210	ltpFR	12	n/a	n/a	n/a	n/a	n/a	n/a	n/a	n/a	n/a	n/a	n/a	n/a	n/a	n/a	n/a
1859037	PROB	n/a	LTP210	ltpFR	12	n/a	n/a	n/a	n/a	n/a	n/a	12	5	2	5	n/a	n/a	n/a	n/a	n/a
1860326	PROB	n/a	LTP210	ltpFR	12	n/a	n/a	n/a	n/a	n/a	n/a	18	9	6	3	n/a	n/a	n/a	n/a	n/a
1862869	PROB	n/a	LTP210	ltpFR	12	n/a	n/a	n/a	n/a	n/a	n/a	9	2	1	6	n/a	n/a	n/a	n/a	n/a
1864394	STOP	n/a	LTP210	ltpFR	12	n/a	n/a	n/a	n/a	n/a	n/a	n/a	n/a	n/a	n/a	n/a	n/a	n/a	n/a	n/a
1866884	WORD	wordpools/wasnorm_wordpool_less_exclusions.txt	LTP210	ltpFR	12	8	1	JOURNAL	760	n/a	0	n/a	0	0	0	1	0.412841796875	0.57763671875	lower	../fonts/zerothre.ttf
1869896	START	n/a	LTP210	ltpFR	12	n/a	n/a	n/a	n/a	n/a	n/a	n/a	n/a	n/a	n/a	n/a	n/a	n/a	n/a	n/a
1870949	PROB	n/a	LTP210	ltpFR	12	n/a	n/a	n/a	n/a	n/a	n/a	7	2	3	2	n/a	n/a	n/a	n/a	n/a
1873136	PROB	n/a	LTP210	ltpFR	12	n/a	n/a	n/a	n/a	n/a	n/a	6	2	1	3	n/a	n/a	n/a	n/a	n/a
1875127	PROB	n/a	LTP210	ltpFR	12	n/a	n/a	n/a	n/a	n/a	n/a	16	3	7	6	n/a	n/a	n/a	n/a	n/a
1877896	STOP	n/a	LTP210	ltpFR	12	n/a	n/a	n/a	n/a	n/a	n/a	n/a	n/a	n/a	n/a	n/a	n/a	n/a	n/a	n/a
1878979	WORD	wordpools/wasnorm_wordpool_less_exclusions.txt	LTP210	ltpFR	12	8	1	LIMB	822	n/a	0	n/a	0	0	0	1	0.412841796875	0.57763671875	lower	../fonts/zerothre.ttf
1881991	START	n/a	LTP210	ltpFR	12	n/a	n/a	n/a	n/a	n/a	n/a	n/a	n/a	n/a	n/a	n/a	n/a	n/a	n/a	n/a
1882974	PROB	n/a	LTP210	ltpFR	12	n/a	n/a	n/a	n/a	n/a	n/a	16	3	5	8	n/a	n/a	n/a	n/a	n/a
1885136	PROB	n/a	LTP210	ltpFR	12	n/a	n/a	n/a	n/a	n/a	n/a	16	9	4	3	n/a	n/a	n/a	n/a	n/a
1886888	PROB	n/a	LTP210	ltpFR	12	n/a	n/a	n/a	n/a	n/a	n/a	14	6	2	6	n/a	n/a	n/a	n/a	n/a
1889147	STOP	n/a	LTP210	ltpFR	12	n/a	n/a	n/a	n/a	n/a	n/a	n/a	n/a	n/a	n/a	n/a	n/a	n/a	n/a	n/a
1891087	WORD	wordpools/wasnorm_wordpool_less_exclusions.txt	LTP210	ltpFR	12	8	1	ACORN	3	n/a	1	n/a	0	0	0	1	0.412841796875	0.57763671875	lower	../fonts/zerothre.ttf
1894104	START	n/a	LTP210	ltpFR	12	n/a	n/a	n/a	n/a	n/a	n/a	n/a	n/a	n/a	n/a	n/a	n/a	n/a	n/a	n/a
1894990	PROB	n/a	LTP210	ltpFR	12	n/a	n/a	n/a	n/a	n/a	n/a	15	8	1	6	n/a	n/a	n/a	n/a	n/a
1897934	PROB	n/a	LTP210	ltpFR	12	n/a	n/a	n/a	n/a	n/a	n/a	16	6	2	8	n/a	n/a	n/a	n/a	n/a
1899790	PROB	n/a	LTP210	ltpFR	12	n/a	n/a	n/a	n/a	n/a	n/a	17	8	3	6	n/a	n/a	n/a	n/a	n/a
1901570	STOP	n/a	LTP210	ltpFR	12	n/a	n/a	n/a	n/a	n/a	n/a	n/a	n/a	n/a	n/a	n/a	n/a	n/a	n/a	n/a
1903254	WORD	wordpools/wasnorm_wordpool_less_exclusions.txt	LTP210	ltpFR	12	8	1	ENGINEER	536	n/a	1	n/a	0	0	0	1	0.412841796875	0.57763671875	lower	../fonts/zerothre.ttf
1906266	START	n/a	LTP210	ltpFR	12	n/a	n/a	n/a	n/a	n/a	n/a	n/a	n/a	n/a	n/a	n/a	n/a	n/a	n/a	n/a
1907319	PROB	n/a	LTP210	ltpFR	12	n/a	n/a	n/a	n/a	n/a	n/a	21	9	8	4	n/a	n/a	n/a	n/a	n/a
1909122	PROB	n/a	LTP210	ltpFR	12	n/a	n/a	n/a	n/a	n/a	n/a	13	1	7	5	n/a	n/a	n/a	n/a	n/a
1910895	PROB	n/a	LTP210	ltpFR	12	n/a	n/a	n/a	n/a	n/a	n/a	14	4	1	9	n/a	n/a	n/a	n/a	n/a
1913554	STOP	n/a	LTP210	ltpFR	12	n/a	n/a	n/a	n/a	n/a	n/a	n/a	n/a	n/a	n/a	n/a	n/a	n/a	n/a	n/a
1915350	WORD	wordpools/wasnorm_wordpool_less_exclusions.txt	LTP210	ltpFR	12	8	0	VICTOR	1563	n/a	1	n/a	0	0	0	0	0.5869140625	0.422607421875	upper	../fonts/amplitud.ttf
1918362	START	n/a	LTP210	ltpFR	12	n/a	n/a	n/a	n/a	n/a	n/a	n/a	n/a	n/a	n/a	n/a	n/a	n/a	n/a	n/a
1919560	PROB	n/a	LTP210	ltpFR	12	n/a	n/a	n/a	n/a	n/a	n/a	11	1	3	7	n/a	n/a	n/a	n/a	n/a
1920665	PROB	n/a	LTP210	ltpFR	12	n/a	n/a	n/a	n/a	n/a	n/a	22	8	9	5	n/a	n/a	n/a	n/a	n/a
1923760	PROB	n/a	LTP210	ltpFR	12	n/a	n/a	n/a	n/a	n/a	n/a	18	3	7	8	n/a	n/a	n/a	n/a	n/a
1925091	STOP	n/a	LTP210	ltpFR	12	n/a	n/a	n/a	n/a	n/a	n/a	n/a	n/a	n/a	n/a	n/a	n/a	n/a	n/a	n/a
1927444	WORD	wordpools/wasnorm_wordpool_less_exclusions.txt	LTP210	ltpFR	12	8	0	HARP	689	n/a	1	n/a	0	0	0	0	0.5869140625	0.422607421875	upper	../fonts/amplitud.ttf
1930456	START	n/a	LTP210	ltpFR	12	n/a	n/a	n/a	n/a	n/a	n/a	n/a	n/a	n/a	n/a	n/a	n/a	n/a	n/a	n/a
1931293	PROB	n/a	LTP210	ltpFR	12	n/a	n/a	n/a	n/a	n/a	n/a	14	5	1	8	n/a	n/a	n/a	n/a	n/a
1933413	PROB	n/a	LTP210	ltpFR	12	n/a	n/a	n/a	n/a	n/a	n/a	20	9	5	7	n/a	n/a	n/a	n/a	n/a
1935371	PROB	n/a	LTP210	ltpFR	12	n/a	n/a	n/a	n/a	n/a	n/a	15	4	4	7	n/a	n/a	n/a	n/a	n/a
1937171	STOP	n/a	LTP210	ltpFR	12	n/a	n/a	n/a	n/a	n/a	n/a	n/a	n/a	n/a	n/a	n/a	n/a	n/a	n/a	n/a
1939456	WORD	wordpools/wasnorm_wordpool_less_exclusions.txt	LTP210	ltpFR	12	8	0	TWINE	1529	n/a	0	n/a	0	0	0	0	0.5869140625	0.422607421875	upper	../fonts/amplitud.ttf
1942468	START	n/a	LTP210	ltpFR	12	n/a	n/a	n/a	n/a	n/a	n/a	n/a	n/a	n/a	n/a	n/a	n/a	n/a	n/a	n/a
1943355	PROB	n/a	LTP210	ltpFR	12	n/a	n/a	n/a	n/a	n/a	n/a	23	9	6	8	n/a	n/a	n/a	n/a	n/a
1945078	PROB	n/a	LTP210	ltpFR	12	n/a	n/a	n/a	n/a	n/a	n/a	12	4	3	5	n/a	n/a	n/a	n/a	n/a
1947216	PROB	n/a	LTP210	ltpFR	12	n/a	n/a	n/a	n/a	n/a	n/a	11	4	6	1	n/a	n/a	n/a	n/a	n/a
1949339	STOP	n/a	LTP210	ltpFR	12	n/a	n/a	n/a	n/a	n/a	n/a	n/a	n/a	n/a	n/a	n/a	n/a	n/a	n/a	n/a
1951468	WORD	wordpools/wasnorm_wordpool_less_exclusions.txt	LTP210	ltpFR	12	8	0	WAITRESS	1581	n/a	1	n/a	0	0	0	0	0.5869140625	0.422607421875	upper	../fonts/amplitud.ttf
1954480	START	n/a	LTP210	ltpFR	12	n/a	n/a	n/a	n/a	n/a	n/a	n/a	n/a	n/a	n/a	n/a	n/a	n/a	n/a	n/a
1955450	PROB	n/a	LTP210	ltpFR	12	n/a	n/a	n/a	n/a	n/a	n/a	24	7	9	8	n/a	n/a	n/a	n/a	n/a
1958461	PROB	n/a	LTP210	ltpFR	12	n/a	n/a	n/a	n/a	n/a	n/a	20	9	3	8	n/a	n/a	n/a	n/a	n/a
1961323	STOP	n/a	LTP210	ltpFR	12	n/a	n/a	n/a	n/a	n/a	n/a	n/a	n/a	n/a	n/a	n/a	n/a	n/a	n/a	n/a
1963413	WORD	wordpools/wasnorm_wordpool_less_exclusions.txt	LTP210	ltpFR	12	8	1	CHAMPION	279	n/a	1	n/a	0	0	0	1	0.412841796875	0.57763671875	lower	../fonts/zerothre.ttf
1966425	START	n/a	LTP210	ltpFR	12	n/a	n/a	n/a	n/a	n/a	n/a	n/a	n/a	n/a	n/a	n/a	n/a	n/a	n/a	n/a
1967596	PROB	n/a	LTP210	ltpFR	12	n/a	n/a	n/a	n/a	n/a	n/a	14	7	3	4	n/a	n/a	n/a	n/a	n/a
1968881	PROB	n/a	LTP210	ltpFR	12	n/a	n/a	n/a	n/a	n/a	n/a	16	9	2	5	n/a	n/a	n/a	n/a	n/a
1970955	PROB	n/a	LTP210	ltpFR	12	n/a	n/a	n/a	n/a	n/a	n/a	9	4	1	4	n/a	n/a	n/a	n/a	n/a
1972226	PROB	n/a	LTP210	ltpFR	12	n/a	n/a	n/a	n/a	n/a	n/a	9	3	3	3	n/a	n/a	n/a	n/a	n/a
1973219	STOP	n/a	LTP210	ltpFR	12	n/a	n/a	n/a	n/a	n/a	n/a	n/a	n/a	n/a	n/a	n/a	n/a	n/a	n/a	n/a
1975392	WORD	wordpools/wasnorm_wordpool_less_exclusions.txt	LTP210	ltpFR	12	8	1	LOOP	844	n/a	0	n/a	0	0	0	1	0.412841796875	0.57763671875	lower	../fonts/zerothre.ttf
1978404	START	n/a	LTP210	ltpFR	12	n/a	n/a	n/a	n/a	n/a	n/a	n/a	n/a	n/a	n/a	n/a	n/a	n/a	n/a	n/a
1979386	PROB	n/a	LTP210	ltpFR	12	n/a	n/a	n/a	n/a	n/a	n/a	17	6	6	5	n/a	n/a	n/a	n/a	n/a
1980959	PROB	n/a	LTP210	ltpFR	12	n/a	n/a	n/a	n/a	n/a	n/a	25	9	9	7	n/a	n/a	n/a	n/a	n/a
1982816	PROB	n/a	LTP210	ltpFR	12	n/a	n/a	n/a	n/a	n/a	n/a	18	6	4	8	n/a	n/a	n/a	n/a	n/a
1984054	PROB	n/a	LTP210	ltpFR	12	n/a	n/a	n/a	n/a	n/a	n/a	19	6	9	4	n/a	n/a	n/a	n/a	n/a
1985627	STOP	n/a	LTP210	ltpFR	12	n/a	n/a	n/a	n/a	n/a	n/a	n/a	n/a	n/a	n/a	n/a	n/a	n/a	n/a	n/a
1987288	WORD	wordpools/wasnorm_wordpool_less_exclusions.txt	LTP210	ltpFR	12	8	1	FLANNEL	574	n/a	0	n/a	0	0	0	1	0.412841796875	0.57763671875	lower	../fonts/zerothre.ttf
1990299	START	n/a	LTP210	ltpFR	12	n/a	n/a	n/a	n/a	n/a	n/a	n/a	n/a	n/a	n/a	n/a	n/a	n/a	n/a	n/a
1991265	PROB	n/a	LTP210	ltpFR	12	n/a	n/a	n/a	n/a	n/a	n/a	11	1	3	7	n/a	n/a	n/a	n/a	n/a
1995247	PROB	n/a	LTP210	ltpFR	12	n/a	n/a	n/a	n/a	n/a	n/a	26	9	9	8	n/a	n/a	n/a	n/a	n/a
1998299	STOP	n/a	LTP210	ltpFR	12	n/a	n/a	n/a	n/a	n/a	n/a	n/a	n/a	n/a	n/a	n/a	n/a	n/a	n/a	n/a
1999178	WORD	wordpools/wasnorm_wordpool_less_exclusions.txt	LTP210	ltpFR	12	8	1	SNOB	1335	n/a	1	n/a	0	0	0	1	0.412841796875	0.57763671875	lower	../fonts/zerothre.ttf
2002194	START	n/a	LTP210	ltpFR	12	n/a	n/a	n/a	n/a	n/a	n/a	n/a	n/a	n/a	n/a	n/a	n/a	n/a	n/a	n/a
2003097	PROB	n/a	LTP210	ltpFR	12	n/a	n/a	n/a	n/a	n/a	n/a	20	6	8	6	n/a	n/a	n/a	n/a	n/a
2005184	PROB	n/a	LTP210	ltpFR	12	n/a	n/a	n/a	n/a	n/a	n/a	15	2	6	7	n/a	n/a	n/a	n/a	n/a
2007192	PROB	n/a	LTP210	ltpFR	12	n/a	n/a	n/a	n/a	n/a	n/a	10	5	3	2	n/a	n/a	n/a	n/a	n/a
2008445	PROB	n/a	LTP210	ltpFR	12	n/a	n/a	n/a	n/a	n/a	n/a	19	5	6	8	n/a	n/a	n/a	n/a	n/a
2010107	STOP	n/a	LTP210	ltpFR	12	n/a	n/a	n/a	n/a	n/a	n/a	n/a	n/a	n/a	n/a	n/a	n/a	n/a	n/a	n/a
2012111	REC_START	n/a	LTP210	ltpFR	12	8	n/a	n/a	n/a	n/a	n/a	n/a	0	0	0	n/a	n/a	n/a	n/a	n/a
2013002	REC_WORD	wordpools/wasnorm_wordpool_less_exclusions.txt	LTP210	ltpFR	12	8	1	SNOB	1335	n/a	1	n/a	0	0	0	n/a	n/a	n/a	n/a	n/a
2102650	WORD	wordpools/wasnorm_wordpool_less_exclusions.txt	LTP210	ltpFR	12	9	1	NICKEL	950	n/a	0	n/a	0	0	0	1	0.412841796875	0.57763671875	lower	../fonts/zerothre.ttf
2106720	WORD	wordpools/wasnorm_wordpool_less_exclusions.txt	LTP210	ltpFR	12	9	1	SARDINE	1235	n/a	1	n/a	0	0	0	1	0.412841796875	0.57763671875	lower	../fonts/zerothre.ttf
2110685	WORD	wordpools/wasnorm_wordpool_less_exclusions.txt	LTP210	ltpFR	12	9	0	DIAL	457	n/a	0	n/a	0	0	0	0	0.5869140625	0.422607421875	upper	../fonts/amplitud.ttf
2114868	WORD	wordpools/wasnorm_wordpool_less_exclusions.txt	LTP210	ltpFR	12	9	0	CHESS	294	n/a	0	n/a	0	0	0	0	0.5869140625	0.422607421875	upper	../fonts/amplitud.ttf
2119067	WORD	wordpools/wasnorm_wordpool_less_exclusions.txt	LTP210	ltpFR	12	9	0	DICE	461	n/a	0	n/a	0	0	0	0	0.5869140625	0.422607421875	upper	../fonts/amplitud.ttf
2122982	WORD	wordpools/wasnorm_wordpool_less_exclusions.txt	LTP210	ltpFR	12	9	0	YOLK	1633	n/a	0	n/a	0	0	0	0	0.5869140625	0.422607421875	upper	../fonts/amplitud.ttf
2127048	WORD	wordpools/wasnorm_wordpool_less_exclusions.txt	LTP210	ltpFR	12	9	0	NEST	945	n/a	0	n/a	0	0	0	0	0.5869140625	0.422607421875	upper	../fonts/amplitud.ttf
2130941	WORD	wordpools/wasnorm_wordpool_less_exclusions.txt	LTP210	ltpFR	12	9	0	BATH	98	n/a	1	n/a	0	0	0	0	0.5869140625	0.422607421875	upper	../fonts/amplitud.ttf
2135145	WORD	wordpools/wasnorm_wordpool_less_exclusions.txt	LTP210	ltpFR	12	9	1	ROOSTER	1209	n/a	1	n/a	0	0	0	1	0.412841796875	0.57763671875	lower	../fonts/zerothre.ttf
2139177	WORD	wordpools/wasnorm_wordpool_less_exclusions.txt	LTP210	ltpFR	12	9	1	GATE	625	n/a	0	n/a	0	0	0	1	0.412841796875	0.57763671875	lower	../fonts/zerothre.ttf
2143121	WORD	wordpools/wasnorm_wordpool_less_exclusions.txt	LTP210	ltpFR	12	9	0	OTTER	986	n/a	1	n/a	0	0	0	0	0.5869140625	0.422607421875	upper	../fonts/amplitud.ttf
2147140	WORD	wordpools/wasnorm_wordpool_less_exclusions.txt	LTP210	ltpFR	12	9	0	TANK	1432	n/a	1	n/a	0	0	0	0	0.5869140625	0.422607421875	upper	../fonts/amplitud.ttf
2151155	WORD	wordpools/wasnorm_wordpool_less_exclusions.txt	LTP210	ltpFR	12	9	1	FROG	608	n/a	1	n/a	0	0	0	1	0.412841796875	0.57763671875	lower	../fonts/zerothre.ttf
2155204	WORD	wordpools/wasnorm_wordpool_less_exclusions.txt	LTP210	ltpFR	12	9	1	CANARY	227	n/a	1	n/a	0	0	0	1	0.412841796875	0.57763671875	lower	../fonts/zerothre.ttf
2159369	WORD	wordpools/wasnorm_wordpool_less_exclusions.txt	LTP210	ltpFR	12	9	1	FARMER	553	n/a	1	n/a	0	0	0	1	0.412841796875	0.57763671875	lower	../fonts/zerothre.ttf
2163584	WORD	wordpools/wasnorm_wordpool_less_exclusions.txt	LTP210	ltpFR	12	9	1	CORN	381	n/a	1	n/a	0	0	0	1	0.412841796875	0.57763671875	lower	../fonts/zerothre.ttf
2166596	START	n/a	LTP210	ltpFR	12	n/a	n/a	n/a	n/a	n/a	n/a	n/a	n/a	n/a	n/a	n/a	n/a	n/a	n/a	n/a
2167432	PROB	n/a	LTP210	ltpFR	12	n/a	n/a	n/a	n/a	n/a	n/a	9	3	4	2	n/a	n/a	n/a	n/a	n/a
2169791	PROB	n/a	LTP210	ltpFR	12	n/a	n/a	n/a	n/a	n/a	n/a	13	2	5	6	n/a	n/a	n/a	n/a	n/a
2171476	PROB	n/a	LTP210	ltpFR	12	n/a	n/a	n/a	n/a	n/a	n/a	13	3	5	5	n/a	n/a	n/a	n/a	n/a
2172798	PROB	n/a	LTP210	ltpFR	12	n/a	n/a	n/a	n/a	n/a	n/a	24	9	6	9	n/a	n/a	n/a	n/a	n/a
2175861	PROB	n/a	LTP210	ltpFR	12	n/a	n/a	n/a	n/a	n/a	n/a	18	9	7	2	n/a	n/a	n/a	n/a	n/a
2178407	PROB	n/a	LTP210	ltpFR	12	n/a	n/a	n/a	n/a	n/a	n/a	12	5	4	3	n/a	n/a	n/a	n/a	n/a
2180177	PROB	n/a	LTP210	ltpFR	12	n/a	n/a	n/a	n/a	n/a	n/a	15	2	6	7	n/a	n/a	n/a	n/a	n/a
2182523	STOP	n/a	LTP210	ltpFR	12	n/a	n/a	n/a	n/a	n/a	n/a	n/a	n/a	n/a	n/a	n/a	n/a	n/a	n/a	n/a
2184547	REC_START	n/a	LTP210	ltpFR	12	9	n/a	n/a	n/a	n/a	n/a	n/a	0	0	0	n/a	n/a	n/a	n/a	n/a
2185407	REC_WORD	wordpools/wasnorm_wordpool_less_exclusions.txt	LTP210	ltpFR	12	9	1	CORN	381	n/a	1	n/a	0	0	0	n/a	n/a	n/a	n/a	n/a
2186971	REC_WORD	wordpools/wasnorm_wordpool_less_exclusions.txt	LTP210	ltpFR	12	9	1	FARMER	553	n/a	1	n/a	0	0	0	n/a	n/a	n/a	n/a	n/a
2188513	REC_WORD	wordpools/wasnorm_wordpool_less_exclusions.txt	LTP210	ltpFR	12	9	1	CANARY	227	n/a	1	n/a	0	0	0	n/a	n/a	n/a	n/a	n/a
2189916	REC_WORD	wordpools/wasnorm_wordpool_less_exclusions.txt	LTP210	ltpFR	12	9	1	FROG	608	n/a	1	n/a	0	0	0	n/a	n/a	n/a	n/a	n/a
2275239	WORD	wordpools/wasnorm_wordpool_less_exclusions.txt	LTP210	ltpFR	12	10	0	BLUEJAY	141	n/a	0	n/a	0	0	0	0	0.5869140625	0.422607421875	upper	../fonts/amplitud.ttf
2279171	WORD	wordpools/wasnorm_wordpool_less_exclusions.txt	LTP210	ltpFR	12	10	0	SWAN	1417	n/a	1	n/a	0	0	0	0	0.5869140625	0.422607421875	upper	../fonts/amplitud.ttf
2283303	WORD	wordpools/wasnorm_wordpool_less_exclusions.txt	LTP210	ltpFR	12	10	0	TUB	1514	n/a	1	n/a	0	0	0	0	0.5869140625	0.422607421875	upper	../fonts/amplitud.ttf
2287302	WORD	wordpools/wasnorm_wordpool_less_exclusions.txt	LTP210	ltpFR	12	10	0	POLITICIAN	1099	n/a	1	n/a	0	0	0	0	0.5869140625	0.422607421875	upper	../fonts/amplitud.ttf
2291250	WORD	wordpools/wasnorm_wordpool_less_exclusions.txt	LTP210	ltpFR	12	10	0	CHAIRPERSON	275	n/a	1	n/a	0	0	0	0	0.5869140625	0.422607421875	upper	../fonts/amplitud.ttf
2295294	WORD	wordpools/wasnorm_wordpool_less_exclusions.txt	LTP210	ltpFR	12	10	0	RUST	1219	n/a	0	n/a	0	0	0	0	0.5869140625	0.422607421875	upper	../fonts/amplitud.ttf
2299513	WORD	wordpools/wasnorm_wordpool_less_exclusions.txt	LTP210	ltpFR	12	10	0	PICKLE	1059	n/a	0	n/a	0	0	0	0	0.5869140625	0.422607421875	upper	../fonts/amplitud.ttf
2303578	WORD	wordpools/wasnorm_wordpool_less_exclusions.txt	LTP210	ltpFR	12	10	0	FOUNTAIN	597	n/a	1	n/a	0	0	0	0	0.5869140625	0.422607421875	upper	../fonts/amplitud.ttf
2307460	WORD	wordpools/wasnorm_wordpool_less_exclusions.txt	LTP210	ltpFR	12	10	0	CAPE	237	n/a	0	n/a	0	0	0	0	0.5869140625	0.422607421875	upper	../fonts/amplitud.ttf
2311621	WORD	wordpools/wasnorm_wordpool_less_exclusions.txt	LTP210	ltpFR	12	10	0	CONSOLE	364	n/a	0	n/a	0	0	0	0	0.5869140625	0.422607421875	upper	../fonts/amplitud.ttf
2315708	WORD	wordpools/wasnorm_wordpool_less_exclusions.txt	LTP210	ltpFR	12	10	0	WASHER	1592	n/a	1	n/a	0	0	0	0	0.5869140625	0.422607421875	upper	../fonts/amplitud.ttf
2319585	WORD	wordpools/wasnorm_wordpool_less_exclusions.txt	LTP210	ltpFR	12	10	0	SUBMARINE	1398	n/a	1	n/a	0	0	0	0	0.5869140625	0.422607421875	upper	../fonts/amplitud.ttf
2323738	WORD	wordpools/wasnorm_wordpool_less_exclusions.txt	LTP210	ltpFR	12	10	0	DAD	433	n/a	1	n/a	0	0	0	0	0.5869140625	0.422607421875	upper	../fonts/amplitud.ttf
2327900	WORD	wordpools/wasnorm_wordpool_less_exclusions.txt	LTP210	ltpFR	12	10	0	BATTERY	101	n/a	0	n/a	0	0	0	0	0.5869140625	0.422607421875	upper	../fonts/amplitud.ttf
2331751	WORD	wordpools/wasnorm_wordpool_less_exclusions.txt	LTP210	ltpFR	12	10	0	LIMOUSINE	824	n/a	1	n/a	0	0	0	0	0.5869140625	0.422607421875	upper	../fonts/amplitud.ttf
2335729	WORD	wordpools/wasnorm_wordpool_less_exclusions.txt	LTP210	ltpFR	12	10	0	VEGETABLE	1552	n/a	0	n/a	0	0	0	0	0.5869140625	0.422607421875	upper	../fonts/amplitud.ttf
2338745	START	n/a	LTP210	ltpFR	12	n/a	n/a	n/a	n/a	n/a	n/a	n/a	n/a	n/a	n/a	n/a	n/a	n/a	n/a	n/a
2339833	PROB	n/a	LTP210	ltpFR	12	n/a	n/a	n/a	n/a	n/a	n/a	18	3	6	9	n/a	n/a	n/a	n/a	n/a
2341920	PROB	n/a	LTP210	ltpFR	12	n/a	n/a	n/a	n/a	n/a	n/a	16	5	9	2	n/a	n/a	n/a	n/a	n/a
2343342	PROB	n/a	LTP210	ltpFR	12	n/a	n/a	n/a	n/a	n/a	n/a	18	8	5	5	n/a	n/a	n/a	n/a	n/a
2346745	STOP	n/a	LTP210	ltpFR	12	n/a	n/a	n/a	n/a	n/a	n/a	n/a	n/a	n/a	n/a	n/a	n/a	n/a	n/a	n/a
2348566	REC_START	n/a	LTP210	ltpFR	12	10	n/a	n/a	n/a	n/a	n/a	n/a	0	0	0	n/a	n/a	n/a	n/a	n/a
2349648	REC_WORD	wordpools/wasnorm_wordpool_less_exclusions.txt	LTP210	ltpFR	12	10	0	CHAIRPERSON	275	n/a	1	n/a	0	0	0	n/a	n/a	n/a	n/a	n/a
2351679	REC_WORD	wordpools/wasnorm_wordpool_less_exclusions.txt	LTP210	ltpFR	12	10	0	POLITICIAN	1099	n/a	1	n/a	0	0	0	n/a	n/a	n/a	n/a	n/a
2353445	REC_WORD	wordpools/wasnorm_wordpool_less_exclusions.txt	LTP210	ltpFR	12	10	0	BLUEJAY	141	n/a	0	n/a	0	0	0	n/a	n/a	n/a	n/a	n/a
2354986	REC_WORD	wordpools/wasnorm_wordpool_less_exclusions.txt	LTP210	ltpFR	12	10	0	TUB	1514	n/a	1	n/a	0	0	0	n/a	n/a	n/a	n/a	n/a
2372252	REC_WORD	wordpools/wasnorm_wordpool_less_exclusions.txt	LTP210	ltpFR	12	10	0	SWAN	1417	n/a	1	n/a	0	0	0	n/a	n/a	n/a	n/a	n/a
2386544	REC_WORD	wordpools/wasnorm_wordpool_less_exclusions.txt	LTP210	ltpFR	12	10	0	VEGETABLE	1552	n/a	0	n/a	0	0	0	n/a	n/a	n/a	n/a	n/a
2424213	REST_REWET	n/a	LTP210	ltpFR	12	10	n/a	n/a	n/a	n/a	n/a	n/a	0	0	0	n/a	n/a	n/a	n/a	n/a
2724431	WORD	wordpools/wasnorm_wordpool_less_exclusions.txt	LTP210	ltpFR	12	11	0	JEWEL	757	n/a	0	n/a	0	0	0	0	0.5869140625	0.422607421875	upper	../fonts/amplitud.ttf
2728347	WORD	wordpools/wasnorm_wordpool_less_exclusions.txt	LTP210	ltpFR	12	11	0	NOMAD	955	n/a	1	n/a	0	0	0	0	0.5869140625	0.422607421875	upper	../fonts/amplitud.ttf
2732245	WORD	wordpools/wasnorm_wordpool_less_exclusions.txt	LTP210	ltpFR	12	11	0	GENTLEMAN	631	n/a	1	n/a	0	0	0	0	0.5869140625	0.422607421875	upper	../fonts/amplitud.ttf
2736277	WORD	wordpools/wasnorm_wordpool_less_exclusions.txt	LTP210	ltpFR	12	11	0	MARS	873	n/a	1	n/a	0	0	0	0	0.5869140625	0.422607421875	upper	../fonts/amplitud.ttf
2740441	WORD	wordpools/wasnorm_wordpool_less_exclusions.txt	LTP210	ltpFR	12	11	0	DRIVEWAY	500	n/a	1	n/a	0	0	0	0	0.5869140625	0.422607421875	upper	../fonts/amplitud.ttf
2744569	WORD	wordpools/wasnorm_wordpool_less_exclusions.txt	LTP210	ltpFR	12	11	0	PIT	1077	n/a	1	n/a	0	0	0	0	0.5869140625	0.422607421875	upper	../fonts/amplitud.ttf
2748689	WORD	wordpools/wasnorm_wordpool_less_exclusions.txt	LTP210	ltpFR	12	11	0	FLASHLIGHT	575	n/a	0	n/a	0	0	0	0	0.5869140625	0.422607421875	upper	../fonts/amplitud.ttf
2752771	WORD	wordpools/wasnorm_wordpool_less_exclusions.txt	LTP210	ltpFR	12	11	0	AUTOMOBILE	62	n/a	1	n/a	0	0	0	0	0.5869140625	0.422607421875	upper	../fonts/amplitud.ttf
2756838	WORD	wordpools/wasnorm_wordpool_less_exclusions.txt	LTP210	ltpFR	12	11	0	NECKLACE	940	n/a	0	n/a	0	0	0	0	0.5869140625	0.422607421875	upper	../fonts/amplitud.ttf
2760751	WORD	wordpools/wasnorm_wordpool_less_exclusions.txt	LTP210	ltpFR	12	11	0	OZONE	996	n/a	0	n/a	0	0	0	0	0.5869140625	0.422607421875	upper	../fonts/amplitud.ttf
2764901	WORD	wordpools/wasnorm_wordpool_less_exclusions.txt	LTP210	ltpFR	12	11	0	OMELET	976	n/a	0	n/a	0	0	0	0	0.5869140625	0.422607421875	upper	../fonts/amplitud.ttf
2768866	WORD	wordpools/wasnorm_wordpool_less_exclusions.txt	LTP210	ltpFR	12	11	0	BUGLE	189	n/a	0	n/a	0	0	0	0	0.5869140625	0.422607421875	upper	../fonts/amplitud.ttf
2772730	WORD	wordpools/wasnorm_wordpool_less_exclusions.txt	LTP210	ltpFR	12	11	0	WATERFALL	1595	n/a	1	n/a	0	0	0	0	0.5869140625	0.422607421875	upper	../fonts/amplitud.ttf
2776640	WORD	wordpools/wasnorm_wordpool_less_exclusions.txt	LTP210	ltpFR	12	11	0	BUCKET	184	n/a	1	n/a	0	0	0	0	0.5869140625	0.422607421875	upper	../fonts/amplitud.ttf
2780840	WORD	wordpools/wasnorm_wordpool_less_exclusions.txt	LTP210	ltpFR	12	11	0	RELISH	1183	n/a	0	n/a	0	0	0	0	0.5869140625	0.422607421875	upper	../fonts/amplitud.ttf
2784704	WORD	wordpools/wasnorm_wordpool_less_exclusions.txt	LTP210	ltpFR	12	11	0	DILL	465	n/a	0	n/a	0	0	0	0	0.5869140625	0.422607421875	upper	../fonts/amplitud.ttf
2790694	REC_START	n/a	LTP210	ltpFR	12	11	n/a	n/a	n/a	n/a	n/a	n/a	0	0	0	n/a	n/a	n/a	n/a	n/a
2791482	REC_WORD	wordpools/wasnorm_wordpool_less_exclusions.txt	LTP210	ltpFR	12	11	0	DILL	465	n/a	0	n/a	0	0	0	n/a	n/a	n/a	n/a	n/a
2792869	REC_WORD	wordpools/wasnorm_wordpool_less_exclusions.txt	LTP210	ltpFR	12	11	0	RELISH	1183	n/a	0	n/a	0	0	0	n/a	n/a	n/a	n/a	n/a
2794420	REC_WORD	wordpools/wasnorm_wordpool_less_exclusions.txt	LTP210	ltpFR	12	11	0	BUGLE	189	n/a	0	n/a	0	0	0	n/a	n/a	n/a	n/a	n/a
2807799	REC_WORD	wordpools/wasnorm_wordpool_less_exclusions.txt	LTP210	ltpFR	12	11	0	JEWEL	757	n/a	0	n/a	0	0	0	n/a	n/a	n/a	n/a	n/a
2809461	REC_WORD	wordpools/wasnorm_wordpool_less_exclusions.txt	LTP210	ltpFR	12	11	0	NECKLACE	940	n/a	0	n/a	0	0	0	n/a	n/a	n/a	n/a	n/a
2825435	REC_WORD	wordpools/wasnorm_wordpool_less_exclusions.txt	LTP210	ltpFR	12	11	0	NOMAD	955	n/a	1	n/a	0	0	0	n/a	n/a	n/a	n/a	n/a
2853780	REC_WORD	wordpools/wasnorm_wordpool_less_exclusions.txt	LTP210	ltpFR	12	11	0	FLASHLIGHT	575	n/a	0	n/a	0	0	0	n/a	n/a	n/a	n/a	n/a
2879616	START	n/a	LTP210	ltpFR	12	n/a	n/a	n/a	n/a	n/a	n/a	n/a	n/a	n/a	n/a	n/a	n/a	n/a	n/a	n/a
2881123	PROB	n/a	LTP210	ltpFR	12	n/a	n/a	n/a	n/a	n/a	n/a	18	4	6	8	n/a	n/a	n/a	n/a	n/a
2882808	PROB	n/a	LTP210	ltpFR	12	n/a	n/a	n/a	n/a	n/a	n/a	10	5	1	4	n/a	n/a	n/a	n/a	n/a
2884364	PROB	n/a	LTP210	ltpFR	12	n/a	n/a	n/a	n/a	n/a	n/a	18	4	5	9	n/a	n/a	n/a	n/a	n/a
2886621	PROB	n/a	LTP210	ltpFR	12	n/a	n/a	n/a	n/a	n/a	n/a	15	3	4	8	n/a	n/a	n/a	n/a	n/a
2888847	PROB	n/a	LTP210	ltpFR	12	n/a	n/a	n/a	n/a	n/a	n/a	19	4	7	7	n/a	n/a	n/a	n/a	n/a
2890838	PROB	n/a	LTP210	ltpFR	12	n/a	n/a	n/a	n/a	n/a	n/a	17	5	7	5	n/a	n/a	n/a	n/a	n/a
2892930	PROB	n/a	LTP210	ltpFR	12	n/a	n/a	n/a	n/a	n/a	n/a	17	4	9	4	n/a	n/a	n/a	n/a	n/a
2895563	STOP	n/a	LTP210	ltpFR	12	n/a	n/a	n/a	n/a	n/a	n/a	n/a	n/a	n/a	n/a	n/a	n/a	n/a	n/a	n/a
2896513	WORD	wordpools/wasnorm_wordpool_less_exclusions.txt	LTP210	ltpFR	12	12	0	SNEAKER	1334	n/a	0	n/a	0	0	0	0	0.5869140625	0.422607421875	upper	../fonts/amplitud.ttf
2899525	START	n/a	LTP210	ltpFR	12	n/a	n/a	n/a	n/a	n/a	n/a	n/a	n/a	n/a	n/a	n/a	n/a	n/a	n/a	n/a
2900695	PROB	n/a	LTP210	ltpFR	12	n/a	n/a	n/a	n/a	n/a	n/a	7	1	2	4	n/a	n/a	n/a	n/a	n/a
2901934	PROB	n/a	LTP210	ltpFR	12	n/a	n/a	n/a	n/a	n/a	n/a	1	2	6	3	n/a	n/a	n/a	n/a	n/a
2903888	PROB	n/a	LTP210	ltpFR	12	n/a	n/a	n/a	n/a	n/a	n/a	17	9	1	7	n/a	n/a	n/a	n/a	n/a
2906062	PROB	n/a	LTP210	ltpFR	12	n/a	n/a	n/a	n/a	n/a	n/a	13	3	2	8	n/a	n/a	n/a	n/a	n/a
2907334	PROB	n/a	LTP210	ltpFR	12	n/a	n/a	n/a	n/a	n/a	n/a	15	4	5	6	n/a	n/a	n/a	n/a	n/a
2909742	PROB	n/a	LTP210	ltpFR	12	n/a	n/a	n/a	n/a	n/a	n/a	14	6	4	4	n/a	n/a	n/a	n/a	n/a
2911520	PROB	n/a	LTP210	ltpFR	12	n/a	n/a	n/a	n/a	n/a	n/a	12	1	3	8	n/a	n/a	n/a	n/a	n/a
2912938	PROB	n/a	LTP210	ltpFR	12	n/a	n/a	n/a	n/a	n/a	n/a	12	9	2	1	n/a	n/a	n/a	n/a	n/a
2914012	STOP	n/a	LTP210	ltpFR	12	n/a	n/a	n/a	n/a	n/a	n/a	n/a	n/a	n/a	n/a	n/a	n/a	n/a	n/a	n/a
2916405	WORD	wordpools/wasnorm_wordpool_less_exclusions.txt	LTP210	ltpFR	12	12	0	ELECTRICIAN	521	n/a	1	n/a	0	0	0	0	0.5869140625	0.422607421875	upper	../fonts/amplitud.ttf
2919416	START	n/a	LTP210	ltpFR	12	n/a	n/a	n/a	n/a	n/a	n/a	n/a	n/a	n/a	n/a	n/a	n/a	n/a	n/a	n/a
2920270	PROB	n/a	LTP210	ltpFR	12	n/a	n/a	n/a	n/a	n/a	n/a	19	6	5	8	n/a	n/a	n/a	n/a	n/a
2921704	PROB	n/a	LTP210	ltpFR	12	n/a	n/a	n/a	n/a	n/a	n/a	15	4	5	6	n/a	n/a	n/a	n/a	n/a
2923014	PROB	n/a	LTP210	ltpFR	12	n/a	n/a	n/a	n/a	n/a	n/a	19	6	4	9	n/a	n/a	n/a	n/a	n/a
2924231	PROB	n/a	LTP210	ltpFR	12	n/a	n/a	n/a	n/a	n/a	n/a	14	6	4	4	n/a	n/a	n/a	n/a	n/a
2925352	PROB	n/a	LTP210	ltpFR	12	n/a	n/a	n/a	n/a	n/a	n/a	22	9	6	8	n/a	n/a	n/a	n/a	n/a
2927559	PROB	n/a	LTP210	ltpFR	12	n/a	n/a	n/a	n/a	n/a	n/a	15	3	6	3	n/a	n/a	n/a	n/a	n/a
2930403	PROB	n/a	LTP210	ltpFR	12	n/a	n/a	n/a	n/a	n/a	n/a	18	8	8	2	n/a	n/a	n/a	n/a	n/a
2933286	PROB	n/a	LTP210	ltpFR	12	n/a	n/a	n/a	n/a	n/a	n/a	14	4	9	1	n/a	n/a	n/a	n/a	n/a
2934531	STOP	n/a	LTP210	ltpFR	12	n/a	n/a	n/a	n/a	n/a	n/a	n/a	n/a	n/a	n/a	n/a	n/a	n/a	n/a	n/a
2936564	WORD	wordpools/wasnorm_wordpool_less_exclusions.txt	LTP210	ltpFR	12	12	1	BULB	192	n/a	0	n/a	0	0	0	1	0.412841796875	0.57763671875	lower	../fonts/zerothre.ttf
2939576	START	n/a	LTP210	ltpFR	12	n/a	n/a	n/a	n/a	n/a	n/a	n/a	n/a	n/a	n/a	n/a	n/a	n/a	n/a	n/a
2940479	PROB	n/a	LTP210	ltpFR	12	n/a	n/a	n/a	n/a	n/a	n/a	18	7	7	4	n/a	n/a	n/a	n/a	n/a
2942382	PROB	n/a	LTP210	ltpFR	12	n/a	n/a	n/a	n/a	n/a	n/a	19	6	7	6	n/a	n/a	n/a	n/a	n/a
2944277	PROB	n/a	LTP210	ltpFR	12	n/a	n/a	n/a	n/a	n/a	n/a	24	9	7	8	n/a	n/a	n/a	n/a	n/a
2947038	PROB	n/a	LTP210	ltpFR	12	n/a	n/a	n/a	n/a	n/a	n/a	22	8	6	8	n/a	n/a	n/a	n/a	n/a
2949659	PROB	n/a	LTP210	ltpFR	12	n/a	n/a	n/a	n/a	n/a	n/a	14	9	3	2	n/a	n/a	n/a	n/a	n/a
2951270	PROB	n/a	LTP210	ltpFR	12	n/a	n/a	n/a	n/a	n/a	n/a	8	2	3	3	n/a	n/a	n/a	n/a	n/a
2952989	PROB	n/a	LTP210	ltpFR	12	n/a	n/a	n/a	n/a	n/a	n/a	11	3	1	7	n/a	n/a	n/a	n/a	n/a
2954116	STOP	n/a	LTP210	ltpFR	12	n/a	n/a	n/a	n/a	n/a	n/a	n/a	n/a	n/a	n/a	n/a	n/a	n/a	n/a	n/a
2956456	WORD	wordpools/wasnorm_wordpool_less_exclusions.txt	LTP210	ltpFR	12	12	1	PORK	1108	n/a	0	n/a	0	0	0	1	0.412841796875	0.57763671875	lower	../fonts/zerothre.ttf
2959467	START	n/a	LTP210	ltpFR	12	n/a	n/a	n/a	n/a	n/a	n/a	n/a	n/a	n/a	n/a	n/a	n/a	n/a	n/a	n/a
2960466	PROB	n/a	LTP210	ltpFR	12	n/a	n/a	n/a	n/a	n/a	n/a	13	4	6	3	n/a	n/a	n/a	n/a	n/a
2961654	PROB	n/a	LTP210	ltpFR	12	n/a	n/a	n/a	n/a	n/a	n/a	9	1	7	1	n/a	n/a	n/a	n/a	n/a
2962893	PROB	n/a	LTP210	ltpFR	12	n/a	n/a	n/a	n/a	n/a	n/a	16	7	8	1	n/a	n/a	n/a	n/a	n/a
2964766	PROB	n/a	LTP210	ltpFR	12	n/a	n/a	n/a	n/a	n/a	n/a	11	3	1	7	n/a	n/a	n/a	n/a	n/a
2966143	PROB	n/a	LTP210	ltpFR	12	n/a	n/a	n/a	n/a	n/a	n/a	19	5	5	9	n/a	n/a	n/a	n/a	n/a
2967281	PROB	n/a	LTP210	ltpFR	12	n/a	n/a	n/a	n/a	n/a	n/a	15	7	6	2	n/a	n/a	n/a	n/a	n/a
2968949	PROB	n/a	LTP210	ltpFR	12	n/a	n/a	n/a	n/a	n/a	n/a	7	5	1	1	n/a	n/a	n/a	n/a	n/a
2970238	PROB	n/a	LTP210	ltpFR	12	n/a	n/a	n/a	n/a	n/a	n/a	14	7	3	4	n/a	n/a	n/a	n/a	n/a
2971496	PROB	n/a	LTP210	ltpFR	12	n/a	n/a	n/a	n/a	n/a	n/a	9	5	3	1	n/a	n/a	n/a	n/a	n/a
2973015	PROB	n/a	LTP210	ltpFR	12	n/a	n/a	n/a	n/a	n/a	n/a	14	4	1	9	n/a	n/a	n/a	n/a	n/a
2974204	STOP	n/a	LTP210	ltpFR	12	n/a	n/a	n/a	n/a	n/a	n/a	n/a	n/a	n/a	n/a	n/a	n/a	n/a	n/a	n/a
2976414	WORD	wordpools/wasnorm_wordpool_less_exclusions.txt	LTP210	ltpFR	12	12	1	ASSOCIATE	49	n/a	1	n/a	0	0	0	1	0.412841796875	0.57763671875	lower	../fonts/zerothre.ttf
2979426	START	n/a	LTP210	ltpFR	12	n/a	n/a	n/a	n/a	n/a	n/a	n/a	n/a	n/a	n/a	n/a	n/a	n/a	n/a	n/a
2980530	PROB	n/a	LTP210	ltpFR	12	n/a	n/a	n/a	n/a	n/a	n/a	12	5	3	4	n/a	n/a	n/a	n/a	n/a
2983153	PROB	n/a	LTP210	ltpFR	12	n/a	n/a	n/a	n/a	n/a	n/a	15	5	5	5	n/a	n/a	n/a	n/a	n/a
2984207	PROB	n/a	LTP210	ltpFR	12	n/a	n/a	n/a	n/a	n/a	n/a	11	2	6	3	n/a	n/a	n/a	n/a	n/a
2986081	PROB	n/a	LTP210	ltpFR	12	n/a	n/a	n/a	n/a	n/a	n/a	20	8	3	9	n/a	n/a	n/a	n/a	n/a
2988126	PROB	n/a	LTP210	ltpFR	12	n/a	n/a	n/a	n/a	n/a	n/a	10	2	1	7	n/a	n/a	n/a	n/a	n/a
2990500	PROB	n/a	LTP210	ltpFR	12	n/a	n/a	n/a	n/a	n/a	n/a	14	5	1	8	n/a	n/a	n/a	n/a	n/a
2992437	PROB	n/a	LTP210	ltpFR	12	n/a	n/a	n/a	n/a	n/a	n/a	10	7	1	2	n/a	n/a	n/a	n/a	n/a
2993932	STOP	n/a	LTP210	ltpFR	12	n/a	n/a	n/a	n/a	n/a	n/a	n/a	n/a	n/a	n/a	n/a	n/a	n/a	n/a	n/a
2996319	WORD	wordpools/wasnorm_wordpool_less_exclusions.txt	LTP210	ltpFR	12	12	1	BARTENDER	92	n/a	1	n/a	0	0	0	1	0.412841796875	0.57763671875	lower	../fonts/zerothre.ttf
2999335	START	n/a	LTP210	ltpFR	12	n/a	n/a	n/a	n/a	n/a	n/a	n/a	n/a	n/a	n/a	n/a	n/a	n/a	n/a	n/a
3000255	PROB	n/a	LTP210	ltpFR	12	n/a	n/a	n/a	n/a	n/a	n/a	14	3	3	8	n/a	n/a	n/a	n/a	n/a
3001957	PROB	n/a	LTP210	ltpFR	12	n/a	n/a	n/a	n/a	n/a	n/a	13	6	3	4	n/a	n/a	n/a	n/a	n/a
3003529	PROB	n/a	LTP210	ltpFR	12	n/a	n/a	n/a	n/a	n/a	n/a	6	2	3	1	n/a	n/a	n/a	n/a	n/a
3005136	PROB	n/a	LTP210	ltpFR	12	n/a	n/a	n/a	n/a	n/a	n/a	17	6	7	4	n/a	n/a	n/a	n/a	n/a
3006774	PROB	n/a	LTP210	ltpFR	12	n/a	n/a	n/a	n/a	n/a	n/a	5	2	1	2	n/a	n/a	n/a	n/a	n/a
3007934	PROB	n/a	LTP210	ltpFR	12	n/a	n/a	n/a	n/a	n/a	n/a	19	8	3	8	n/a	n/a	n/a	n/a	n/a
3009602	PROB	n/a	LTP210	ltpFR	12	n/a	n/a	n/a	n/a	n/a	n/a	16	8	2	6	n/a	n/a	n/a	n/a	n/a
3010974	PROB	n/a	LTP210	ltpFR	12	n/a	n/a	n/a	n/a	n/a	n/a	25	9	7	9	n/a	n/a	n/a	n/a	n/a
3013892	STOP	n/a	LTP210	ltpFR	12	n/a	n/a	n/a	n/a	n/a	n/a	n/a	n/a	n/a	n/a	n/a	n/a	n/a	n/a	n/a
3016427	WORD	wordpools/wasnorm_wordpool_less_exclusions.txt	LTP210	ltpFR	12	12	1	EYELASH	546	n/a	0	n/a	0	0	0	1	0.412841796875	0.57763671875	lower	../fonts/zerothre.ttf
3019444	START	n/a	LTP210	ltpFR	12	n/a	n/a	n/a	n/a	n/a	n/a	n/a	n/a	n/a	n/a	n/a	n/a	n/a	n/a	n/a
3020497	PROB	n/a	LTP210	ltpFR	12	n/a	n/a	n/a	n/a	n/a	n/a	21	6	9	6	n/a	n/a	n/a	n/a	n/a
3022271	PROB	n/a	LTP210	ltpFR	12	n/a	n/a	n/a	n/a	n/a	n/a	17	8	5	4	n/a	n/a	n/a	n/a	n/a
3023973	PROB	n/a	LTP210	ltpFR	12	n/a	n/a	n/a	n/a	n/a	n/a	19	7	5	7	n/a	n/a	n/a	n/a	n/a
3025814	PROB	n/a	LTP210	ltpFR	12	n/a	n/a	n/a	n/a	n/a	n/a	18	6	4	8	n/a	n/a	n/a	n/a	n/a
3026951	PROB	n/a	LTP210	ltpFR	12	n/a	n/a	n/a	n/a	n/a	n/a	25	8	8	7	n/a	n/a	n/a	n/a	n/a
3028657	PROB	n/a	LTP210	ltpFR	12	n/a	n/a	n/a	n/a	n/a	n/a	15	9	3	3	n/a	n/a	n/a	n/a	n/a
3032309	PROB	n/a	LTP210	ltpFR	12	n/a	n/a	n/a	n/a	n/a	n/a	18	7	8	3	n/a	n/a	n/a	n/a	n/a
3034036	STOP	n/a	LTP210	ltpFR	12	n/a	n/a	n/a	n/a	n/a	n/a	n/a	n/a	n/a	n/a	n/a	n/a	n/a	n/a	n/a
3036557	WORD	wordpools/wasnorm_wordpool_less_exclusions.txt	LTP210	ltpFR	12	12	1	TRAITOR	1495	n/a	1	n/a	0	0	0	1	0.412841796875	0.57763671875	lower	../fonts/zerothre.ttf
3039569	START	n/a	LTP210	ltpFR	12	n/a	n/a	n/a	n/a	n/a	n/a	n/a	n/a	n/a	n/a	n/a	n/a	n/a	n/a	n/a
3040656	PROB	n/a	LTP210	ltpFR	12	n/a	n/a	n/a	n/a	n/a	n/a	13	4	2	7	n/a	n/a	n/a	n/a	n/a
3042125	PROB	n/a	LTP210	ltpFR	12	n/a	n/a	n/a	n/a	n/a	n/a	19	7	9	3	n/a	n/a	n/a	n/a	n/a
3044600	PROB	n/a	LTP210	ltpFR	12	n/a	n/a	n/a	n/a	n/a	n/a	21	9	3	9	n/a	n/a	n/a	n/a	n/a
3046876	PROB	n/a	LTP210	ltpFR	12	n/a	n/a	n/a	n/a	n/a	n/a	13	3	4	6	n/a	n/a	n/a	n/a	n/a
3048415	PROB	n/a	LTP210	ltpFR	12	n/a	n/a	n/a	n/a	n/a	n/a	21	5	9	7	n/a	n/a	n/a	n/a	n/a
3050677	PROB	n/a	LTP210	ltpFR	12	n/a	n/a	n/a	n/a	n/a	n/a	11	7	1	3	n/a	n/a	n/a	n/a	n/a
3055569	STOP	n/a	LTP210	ltpFR	12	n/a	n/a	n/a	n/a	n/a	n/a	n/a	n/a	n/a	n/a	n/a	n/a	n/a	n/a	n/a
3056683	WORD	wordpools/wasnorm_wordpool_less_exclusions.txt	LTP210	ltpFR	12	12	0	MEAL	882	n/a	0	n/a	0	0	0	0	0.5869140625	0.422607421875	upper	../fonts/amplitud.ttf
3059695	START	n/a	LTP210	ltpFR	12	n/a	n/a	n/a	n/a	n/a	n/a	n/a	n/a	n/a	n/a	n/a	n/a	n/a	n/a	n/a
3060581	PROB	n/a	LTP210	ltpFR	12	n/a	n/a	n/a	n/a	n/a	n/a	18	6	7	5	n/a	n/a	n/a	n/a	n/a
3063171	PROB	n/a	LTP210	ltpFR	12	n/a	n/a	n/a	n/a	n/a	n/a	21	9	8	4	n/a	n/a	n/a	n/a	n/a
3065313	PROB	n/a	LTP210	ltpFR	12	n/a	n/a	n/a	n/a	n/a	n/a	18	4	5	9	n/a	n/a	n/a	n/a	n/a
3066654	PROB	n/a	LTP210	ltpFR	12	n/a	n/a	n/a	n/a	n/a	n/a	13	2	2	9	n/a	n/a	n/a	n/a	n/a
3068628	PROB	n/a	LTP210	ltpFR	12	n/a	n/a	n/a	n/a	n/a	n/a	18	9	2	7	n/a	n/a	n/a	n/a	n/a
3070581	PROB	n/a	LTP210	ltpFR	12	n/a	n/a	n/a	n/a	n/a	n/a	21	7	7	7	n/a	n/a	n/a	n/a	n/a
3072622	PROB	n/a	LTP210	ltpFR	12	n/a	n/a	n/a	n/a	n/a	n/a	16	2	7	7	n/a	n/a	n/a	n/a	n/a
3074188	STOP	n/a	LTP210	ltpFR	12	n/a	n/a	n/a	n/a	n/a	n/a	n/a	n/a	n/a	n/a	n/a	n/a	n/a	n/a	n/a
3076860	WORD	wordpools/wasnorm_wordpool_less_exclusions.txt	LTP210	ltpFR	12	12	0	PENGUIN	1044	n/a	1	n/a	0	0	0	0	0.5869140625	0.422607421875	upper	../fonts/amplitud.ttf
3079872	START	n/a	LTP210	ltpFR	12	n/a	n/a	n/a	n/a	n/a	n/a	n/a	n/a	n/a	n/a	n/a	n/a	n/a	n/a	n/a
3080724	PROB	n/a	LTP210	ltpFR	12	n/a	n/a	n/a	n/a	n/a	n/a	14	6	4	4	n/a	n/a	n/a	n/a	n/a
3081925	PROB	n/a	LTP210	ltpFR	12	n/a	n/a	n/a	n/a	n/a	n/a	15	5	2	8	n/a	n/a	n/a	n/a	n/a
3083413	PROB	n/a	LTP210	ltpFR	12	n/a	n/a	n/a	n/a	n/a	n/a	16	6	4	6	n/a	n/a	n/a	n/a	n/a
3084588	PROB	n/a	LTP210	ltpFR	12	n/a	n/a	n/a	n/a	n/a	n/a	10	1	8	1	n/a	n/a	n/a	n/a	n/a
3085739	PROB	n/a	LTP210	ltpFR	12	n/a	n/a	n/a	n/a	n/a	n/a	17	5	7	5	n/a	n/a	n/a	n/a	n/a
3087512	PROB	n/a	LTP210	ltpFR	12	n/a	n/a	n/a	n/a	n/a	n/a	12	4	2	6	n/a	n/a	n/a	n/a	n/a
3088750	PROB	n/a	LTP210	ltpFR	12	n/a	n/a	n/a	n/a	n/a	n/a	17	1	8	8	n/a	n/a	n/a	n/a	n/a
3090791	PROB	n/a	LTP210	ltpFR	12	n/a	n/a	n/a	n/a	n/a	n/a	12	7	3	2	n/a	n/a	n/a	n/a	n/a
3092080	PROB	n/a	LTP210	ltpFR	12	n/a	n/a	n/a	n/a	n/a	n/a	21	7	6	8	n/a	n/a	n/a	n/a	n/a
3093752	PROB	n/a	LTP210	ltpFR	12	n/a	n/a	n/a	n/a	n/a	n/a	13	8	4	1	n/a	n/a	n/a	n/a	n/a
3095491	STOP	n/a	LTP210	ltpFR	12	n/a	n/a	n/a	n/a	n/a	n/a	n/a	n/a	n/a	n/a	n/a	n/a	n/a	n/a	n/a
3096881	WORD	wordpools/wasnorm_wordpool_less_exclusions.txt	LTP210	ltpFR	12	12	0	ICEBERG	731	n/a	1	n/a	0	0	0	0	0.5869140625	0.422607421875	upper	../fonts/amplitud.ttf
3099898	START	n/a	LTP210	ltpFR	12	n/a	n/a	n/a	n/a	n/a	n/a	n/a	n/a	n/a	n/a	n/a	n/a	n/a	n/a	n/a
3101035	PROB	n/a	LTP210	ltpFR	12	n/a	n/a	n/a	n/a	n/a	n/a	20	7	8	5	n/a	n/a	n/a	n/a	n/a
3102686	PROB	n/a	LTP210	ltpFR	12	n/a	n/a	n/a	n/a	n/a	n/a	9	2	1	6	n/a	n/a	n/a	n/a	n/a
3103975	PROB	n/a	LTP210	ltpFR	12	n/a	n/a	n/a	n/a	n/a	n/a	16	6	2	8	n/a	n/a	n/a	n/a	n/a
3105297	PROB	n/a	LTP210	ltpFR	12	n/a	n/a	n/a	n/a	n/a	n/a	21	7	7	7	n/a	n/a	n/a	n/a	n/a
3106567	PROB	n/a	LTP210	ltpFR	12	n/a	n/a	n/a	n/a	n/a	n/a	13	7	1	5	n/a	n/a	n/a	n/a	n/a
3108375	PROB	n/a	LTP210	ltpFR	12	n/a	n/a	n/a	n/a	n/a	n/a	16	8	2	6	n/a	n/a	n/a	n/a	n/a
3109528	PROB	n/a	LTP210	ltpFR	12	n/a	n/a	n/a	n/a	n/a	n/a	12	1	5	6	n/a	n/a	n/a	n/a	n/a
3111469	PROB	n/a	LTP210	ltpFR	12	n/a	n/a	n/a	n/a	n/a	n/a	210	7	9	5	n/a	n/a	n/a	n/a	n/a
3115587	STOP	n/a	LTP210	ltpFR	12	n/a	n/a	n/a	n/a	n/a	n/a	n/a	n/a	n/a	n/a	n/a	n/a	n/a	n/a	n/a
3116995	WORD	wordpools/wasnorm_wordpool_less_exclusions.txt	LTP210	ltpFR	12	12	0	DINER	467	n/a	1	n/a	0	0	0	0	0.5869140625	0.422607421875	upper	../fonts/amplitud.ttf
3120007	START	n/a	LTP210	ltpFR	12	n/a	n/a	n/a	n/a	n/a	n/a	n/a	n/a	n/a	n/a	n/a	n/a	n/a	n/a	n/a
3120926	PROB	n/a	LTP210	ltpFR	12	n/a	n/a	n/a	n/a	n/a	n/a	12	1	9	2	n/a	n/a	n/a	n/a	n/a
3122177	PROB	n/a	LTP210	ltpFR	12	n/a	n/a	n/a	n/a	n/a	n/a	9	1	4	4	n/a	n/a	n/a	n/a	n/a
3123481	PROB	n/a	LTP210	ltpFR	12	n/a	n/a	n/a	n/a	n/a	n/a	18	5	7	6	n/a	n/a	n/a	n/a	n/a
3126159	PROB	n/a	LTP210	ltpFR	12	n/a	n/a	n/a	n/a	n/a	n/a	4	1	1	2	n/a	n/a	n/a	n/a	n/a
3127546	PROB	n/a	LTP210	ltpFR	12	n/a	n/a	n/a	n/a	n/a	n/a	13	3	7	3	n/a	n/a	n/a	n/a	n/a
3128952	PROB	n/a	LTP210	ltpFR	12	n/a	n/a	n/a	n/a	n/a	n/a	7	2	3	2	n/a	n/a	n/a	n/a	n/a
3130977	PROB	n/a	LTP210	ltpFR	12	n/a	n/a	n/a	n/a	n/a	n/a	12	4	3	5	n/a	n/a	n/a	n/a	n/a
3133921	PROB	n/a	LTP210	ltpFR	12	n/a	n/a	n/a	n/a	n/a	n/a	19	7	9	3	n/a	n/a	n/a	n/a	n/a
3135900	STOP	n/a	LTP210	ltpFR	12	n/a	n/a	n/a	n/a	n/a	n/a	n/a	n/a	n/a	n/a	n/a	n/a	n/a	n/a	n/a
3136987	WORD	wordpools/wasnorm_wordpool_less_exclusions.txt	LTP210	ltpFR	12	12	0	TRAY	1498	n/a	1	n/a	0	0	0	0	0.5869140625	0.422607421875	upper	../fonts/amplitud.ttf
3139999	START	n/a	LTP210	ltpFR	12	n/a	n/a	n/a	n/a	n/a	n/a	n/a	n/a	n/a	n/a	n/a	n/a	n/a	n/a	n/a
3141069	PROB	n/a	LTP210	ltpFR	12	n/a	n/a	n/a	n/a	n/a	n/a	9	2	6	1	n/a	n/a	n/a	n/a	n/a
3142419	PROB	n/a	LTP210	ltpFR	12	n/a	n/a	n/a	n/a	n/a	n/a	12	1	4	7	n/a	n/a	n/a	n/a	n/a
3143896	PROB	n/a	LTP210	ltpFR	12	n/a	n/a	n/a	n/a	n/a	n/a	9	1	1	7	n/a	n/a	n/a	n/a	n/a
3145063	PROB	n/a	LTP210	ltpFR	12	n/a	n/a	n/a	n/a	n/a	n/a	10	4	5	1	n/a	n/a	n/a	n/a	n/a
3146501	PROB	n/a	LTP210	ltpFR	12	n/a	n/a	n/a	n/a	n/a	n/a	7	2	3	2	n/a	n/a	n/a	n/a	n/a
3148208	PROB	n/a	LTP210	ltpFR	12	n/a	n/a	n/a	n/a	n/a	n/a	25	9	7	9	n/a	n/a	n/a	n/a	n/a
3150499	PROB	n/a	LTP210	ltpFR	12	n/a	n/a	n/a	n/a	n/a	n/a	19	4	9	6	n/a	n/a	n/a	n/a	n/a
3152909	PROB	n/a	LTP210	ltpFR	12	n/a	n/a	n/a	n/a	n/a	n/a	10	6	1	3	n/a	n/a	n/a	n/a	n/a
3155999	STOP	n/a	LTP210	ltpFR	12	n/a	n/a	n/a	n/a	n/a	n/a	n/a	n/a	n/a	n/a	n/a	n/a	n/a	n/a	n/a
3157063	WORD	wordpools/wasnorm_wordpool_less_exclusions.txt	LTP210	ltpFR	12	12	0	GRILL	661	n/a	1	n/a	0	0	0	0	0.5869140625	0.422607421875	upper	../fonts/amplitud.ttf
3160075	START	n/a	LTP210	ltpFR	12	n/a	n/a	n/a	n/a	n/a	n/a	n/a	n/a	n/a	n/a	n/a	n/a	n/a	n/a	n/a
3161228	PROB	n/a	LTP210	ltpFR	12	n/a	n/a	n/a	n/a	n/a	n/a	18	7	7	4	n/a	n/a	n/a	n/a	n/a
3163783	PROB	n/a	LTP210	ltpFR	12	n/a	n/a	n/a	n/a	n/a	n/a	19	6	9	4	n/a	n/a	n/a	n/a	n/a
3165176	PROB	n/a	LTP210	ltpFR	12	n/a	n/a	n/a	n/a	n/a	n/a	12	2	9	1	n/a	n/a	n/a	n/a	n/a
3166464	PROB	n/a	LTP210	ltpFR	12	n/a	n/a	n/a	n/a	n/a	n/a	17	9	6	2	n/a	n/a	n/a	n/a	n/a
3168534	PROB	n/a	LTP210	ltpFR	12	n/a	n/a	n/a	n/a	n/a	n/a	17	5	9	3	n/a	n/a	n/a	n/a	n/a
3171145	PROB	n/a	LTP210	ltpFR	12	n/a	n/a	n/a	n/a	n/a	n/a	9	4	4	1	n/a	n/a	n/a	n/a	n/a
3172716	PROB	n/a	LTP210	ltpFR	12	n/a	n/a	n/a	n/a	n/a	n/a	12	2	6	4	n/a	n/a	n/a	n/a	n/a
3174077	PROB	n/a	LTP210	ltpFR	12	n/a	n/a	n/a	n/a	n/a	n/a	21	8	8	5	n/a	n/a	n/a	n/a	n/a
3175675	STOP	n/a	LTP210	ltpFR	12	n/a	n/a	n/a	n/a	n/a	n/a	n/a	n/a	n/a	n/a	n/a	n/a	n/a	n/a	n/a
3177017	WORD	wordpools/wasnorm_wordpool_less_exclusions.txt	LTP210	ltpFR	12	12	1	PIG	1064	n/a	1	n/a	0	0	0	1	0.412841796875	0.57763671875	lower	../fonts/zerothre.ttf
3180033	START	n/a	LTP210	ltpFR	12	n/a	n/a	n/a	n/a	n/a	n/a	n/a	n/a	n/a	n/a	n/a	n/a	n/a	n/a	n/a
3180999	PROB	n/a	LTP210	ltpFR	12	n/a	n/a	n/a	n/a	n/a	n/a	21	4	8	9	n/a	n/a	n/a	n/a	n/a
3182570	PROB	n/a	LTP210	ltpFR	12	n/a	n/a	n/a	n/a	n/a	n/a	9	1	5	3	n/a	n/a	n/a	n/a	n/a
3183926	PROB	n/a	LTP210	ltpFR	12	n/a	n/a	n/a	n/a	n/a	n/a	9	2	6	1	n/a	n/a	n/a	n/a	n/a
3185381	PROB	n/a	LTP210	ltpFR	12	n/a	n/a	n/a	n/a	n/a	n/a	20	5	6	9	n/a	n/a	n/a	n/a	n/a
3187589	PROB	n/a	LTP210	ltpFR	12	n/a	n/a	n/a	n/a	n/a	n/a	23	7	8	8	n/a	n/a	n/a	n/a	n/a
3190283	PROB	n/a	LTP210	ltpFR	12	n/a	n/a	n/a	n/a	n/a	n/a	17	4	4	9	n/a	n/a	n/a	n/a	n/a
3192591	PROB	n/a	LTP210	ltpFR	12	n/a	n/a	n/a	n/a	n/a	n/a	8	1	1	6	n/a	n/a	n/a	n/a	n/a
3193796	PROB	n/a	LTP210	ltpFR	12	n/a	n/a	n/a	n/a	n/a	n/a	12	3	2	7	n/a	n/a	n/a	n/a	n/a
3195044	STOP	n/a	LTP210	ltpFR	12	n/a	n/a	n/a	n/a	n/a	n/a	n/a	n/a	n/a	n/a	n/a	n/a	n/a	n/a	n/a
3197159	WORD	wordpools/wasnorm_wordpool_less_exclusions.txt	LTP210	ltpFR	12	12	1	BULLY	196	n/a	1	n/a	0	0	0	1	0.412841796875	0.57763671875	lower	../fonts/zerothre.ttf
3200175	START	n/a	LTP210	ltpFR	12	n/a	n/a	n/a	n/a	n/a	n/a	n/a	n/a	n/a	n/a	n/a	n/a	n/a	n/a	n/a
3201258	PROB	n/a	LTP210	ltpFR	12	n/a	n/a	n/a	n/a	n/a	n/a	12	7	3	2	n/a	n/a	n/a	n/a	n/a
3202462	PROB	n/a	LTP210	ltpFR	12	n/a	n/a	n/a	n/a	n/a	n/a	8	3	3	2	n/a	n/a	n/a	n/a	n/a
3204370	PROB	n/a	LTP210	ltpFR	12	n/a	n/a	n/a	n/a	n/a	n/a	14	3	6	5	n/a	n/a	n/a	n/a	n/a
3205993	PROB	n/a	LTP210	ltpFR	12	n/a	n/a	n/a	n/a	n/a	n/a	18	3	7	8	n/a	n/a	n/a	n/a	n/a
3207331	PROB	n/a	LTP210	ltpFR	12	n/a	n/a	n/a	n/a	n/a	n/a	17	5	3	9	n/a	n/a	n/a	n/a	n/a
3209405	PROB	n/a	LTP210	ltpFR	12	n/a	n/a	n/a	n/a	n/a	n/a	23	5	9	9	n/a	n/a	n/a	n/a	n/a
3211751	PROB	n/a	LTP210	ltpFR	12	n/a	n/a	n/a	n/a	n/a	n/a	13	2	8	3	n/a	n/a	n/a	n/a	n/a
3212986	PROB	n/a	LTP210	ltpFR	12	n/a	n/a	n/a	n/a	n/a	n/a	12	4	6	2	n/a	n/a	n/a	n/a	n/a
3214224	PROB	n/a	LTP210	ltpFR	12	n/a	n/a	n/a	n/a	n/a	n/a	16	1	9	6	n/a	n/a	n/a	n/a	n/a
3215316	STOP	n/a	LTP210	ltpFR	12	n/a	n/a	n/a	n/a	n/a	n/a	n/a	n/a	n/a	n/a	n/a	n/a	n/a	n/a	n/a
3218122	REC_START	n/a	LTP210	ltpFR	12	12	n/a	n/a	n/a	n/a	n/a	n/a	0	0	0	n/a	n/a	n/a	n/a	n/a
3219429	REC_WORD	wordpools/wasnorm_wordpool_less_exclusions.txt	LTP210	ltpFR	12	12	1	BULLY	196	n/a	1	n/a	0	0	0	n/a	n/a	n/a	n/a	n/a
3220806	REC_WORD	wordpools/wasnorm_wordpool_less_exclusions.txt	LTP210	ltpFR	12	12	0	TRAY	1498	n/a	1	n/a	0	0	0	n/a	n/a	n/a	n/a	n/a
3225610	REC_WORD	wordpools/wasnorm_wordpool_less_exclusions.txt	LTP210	ltpFR	12	12	1	PIG	1064	n/a	1	n/a	0	0	0	n/a	n/a	n/a	n/a	n/a
3226984	REC_WORD	wordpools/wasnorm_wordpool_less_exclusions.txt	LTP210	ltpFR	12	12	1	PORK	1108	n/a	0	n/a	0	0	0	n/a	n/a	n/a	n/a	n/a
3230355	REC_WORD	wordpools/wasnorm_wordpool_less_exclusions.txt	LTP210	ltpFR	12	12	1	ASSOCIATE	49	n/a	1	n/a	0	0	0	n/a	n/a	n/a	n/a	n/a
