onset	duration	trial_type	sample	stim_file	subject	experiment	session	trial	item_name	item_num	list	answer	test_x	test_y	test_z
299.344	n/a	SESS_START	149672	n/a	LTP279	ltpFR2	22	n/a	n/a	n/a	n/a	n/a	0	0	0
321.532	n/a	START	160766	n/a	LTP279	ltpFR2	22	n/a	n/a	n/a	-1	n/a	n/a	n/a	n/a
321.564	n/a	PROB	160782	n/a	LTP279	ltpFR2	22	n/a	n/a	n/a	-1	16	9	4	3
324.134	n/a	PROB	162067	n/a	LTP279	ltpFR2	22	n/a	n/a	n/a	-1	18	2	9	7
326.886	n/a	PROB	163443	n/a	LTP279	ltpFR2	22	n/a	n/a	n/a	-1	16	3	8	5
328.37	n/a	PROB	164185	n/a	LTP279	ltpFR2	22	n/a	n/a	n/a	-1	13	4	7	1
329.822	n/a	PROB	164911	n/a	LTP279	ltpFR2	22	n/a	n/a	n/a	-1	19	6	4	9
331.456	n/a	PROB	165728	n/a	LTP279	ltpFR2	22	n/a	n/a	n/a	-1	14	1	5	8
332.716	n/a	STOP	166358	n/a	LTP279	ltpFR2	22	n/a	n/a	n/a	-1	n/a	n/a	n/a	n/a
372.626	n/a	DISTRACTOR	186313	n/a	LTP279	ltpFR2	22	1	n/a	n/a	n/a	n/a	0	0	0
372.626	n/a	START	186313	n/a	LTP279	ltpFR2	22	n/a	n/a	n/a	1	n/a	n/a	n/a	n/a
372.642	n/a	PROB	186321	n/a	LTP279	ltpFR2	22	n/a	n/a	n/a	1	17	1	8	8
374.112	n/a	PROB	187056	n/a	LTP279	ltpFR2	22	n/a	n/a	n/a	1	13	7	3	3
376.328	n/a	PROB	188164	n/a	LTP279	ltpFR2	22	n/a	n/a	n/a	1	21	4	8	9
377.948	n/a	PROB	188974	n/a	LTP279	ltpFR2	22	n/a	n/a	n/a	1	11	4	3	4
379.314	n/a	PROB	189657	n/a	LTP279	ltpFR2	22	n/a	n/a	n/a	1	17	5	7	5
380.666	n/a	PROB	190333	n/a	LTP279	ltpFR2	22	n/a	n/a	n/a	1	21	6	6	9
383.568	n/a	PROB	191784	n/a	LTP279	ltpFR2	22	n/a	n/a	n/a	1	23	8	9	6
385.988	n/a	PROB	192994	n/a	LTP279	ltpFR2	22	n/a	n/a	n/a	1	23	8	8	7
388.306	n/a	PROB	194153	n/a	LTP279	ltpFR2	22	n/a	n/a	n/a	1	13	3	7	3
390.092	n/a	PROB	195046	n/a	LTP279	ltpFR2	22	n/a	n/a	n/a	1	8	4	1	3
391.724	n/a	PROB	195862	n/a	LTP279	ltpFR2	22	n/a	n/a	n/a	1	17	8	4	5
393.126	n/a	PROB	196563	n/a	LTP279	ltpFR2	22	n/a	n/a	n/a	1	7	1	4	2
394.394	n/a	PROB	197197	n/a	LTP279	ltpFR2	22	n/a	n/a	n/a	1	13	5	3	5
395.91	n/a	STOP	197955	n/a	LTP279	ltpFR2	22	n/a	n/a	n/a	1	n/a	n/a	n/a	n/a
397.53	n/a	WORD	198765	wordpools/wasnorm_wordpool_576.txt	LTP279	ltpFR2	22	1	JELLO	754	n/a	n/a	0	0	0
400.2	n/a	WORD	200100	wordpools/wasnorm_wordpool_576.txt	LTP279	ltpFR2	22	1	PUDDING	1139	n/a	n/a	0	0	0
402.802	n/a	WORD	201401	wordpools/wasnorm_wordpool_576.txt	LTP279	ltpFR2	22	1	CARROT	249	n/a	n/a	0	0	0
405.52	n/a	WORD	202760	wordpools/wasnorm_wordpool_576.txt	LTP279	ltpFR2	22	1	POISON	1096	n/a	n/a	0	0	0
408.024	n/a	WORD	204012	wordpools/wasnorm_wordpool_576.txt	LTP279	ltpFR2	22	1	LIZARD	834	n/a	n/a	0	0	0
410.774	n/a	WORD	205387	wordpools/wasnorm_wordpool_576.txt	LTP279	ltpFR2	22	1	WHISKERS	1605	n/a	n/a	0	0	0
413.594	n/a	WORD	206797	wordpools/wasnorm_wordpool_576.txt	LTP279	ltpFR2	22	1	DRAWING	494	n/a	n/a	0	0	0
416.18	n/a	WORD	208090	wordpools/wasnorm_wordpool_576.txt	LTP279	ltpFR2	22	1	PASTA	1021	n/a	n/a	0	0	0
418.682	n/a	WORD	209341	wordpools/wasnorm_wordpool_576.txt	LTP279	ltpFR2	22	1	FRUIT	610	n/a	n/a	0	0	0
421.418	n/a	WORD	210709	wordpools/wasnorm_wordpool_576.txt	LTP279	ltpFR2	22	1	TILE	1468	n/a	n/a	0	0	0
424.17	n/a	WORD	212085	wordpools/wasnorm_wordpool_576.txt	LTP279	ltpFR2	22	1	SHORTCAKE	1292	n/a	n/a	0	0	0
426.754	n/a	WORD	213377	wordpools/wasnorm_wordpool_576.txt	LTP279	ltpFR2	22	1	STALLION	1369	n/a	n/a	0	0	0
429.224	n/a	WORD	214612	wordpools/wasnorm_wordpool_576.txt	LTP279	ltpFR2	22	1	NOMAD	955	n/a	n/a	0	0	0
432.028	n/a	WORD	216014	wordpools/wasnorm_wordpool_576.txt	LTP279	ltpFR2	22	1	LADY	794	n/a	n/a	0	0	0
434.612	n/a	WORD	217306	wordpools/wasnorm_wordpool_576.txt	LTP279	ltpFR2	22	1	BROOK	177	n/a	n/a	0	0	0
437.264	n/a	WORD	218632	wordpools/wasnorm_wordpool_576.txt	LTP279	ltpFR2	22	1	BARLEY	88	n/a	n/a	0	0	0
440.034	n/a	WORD	220017	wordpools/wasnorm_wordpool_576.txt	LTP279	ltpFR2	22	1	POSSUM	1112	n/a	n/a	0	0	0
442.77	n/a	WORD	221385	wordpools/wasnorm_wordpool_576.txt	LTP279	ltpFR2	22	1	PISTON	1076	n/a	n/a	0	0	0
445.604	n/a	WORD	222802	wordpools/wasnorm_wordpool_576.txt	LTP279	ltpFR2	22	1	SERVER	1272	n/a	n/a	0	0	0
448.242	n/a	WORD	224121	wordpools/wasnorm_wordpool_576.txt	LTP279	ltpFR2	22	1	RADISH	1158	n/a	n/a	0	0	0
450.726	n/a	WORD	225363	wordpools/wasnorm_wordpool_576.txt	LTP279	ltpFR2	22	1	PERCH	1048	n/a	n/a	0	0	0
453.294	n/a	WORD	226647	wordpools/wasnorm_wordpool_576.txt	LTP279	ltpFR2	22	1	COMET	353	n/a	n/a	0	0	0
455.814	n/a	WORD	227907	wordpools/wasnorm_wordpool_576.txt	LTP279	ltpFR2	22	1	OFFICE	972	n/a	n/a	0	0	0
458.55	n/a	WORD	229275	wordpools/wasnorm_wordpool_576.txt	LTP279	ltpFR2	22	1	RIVER	1194	n/a	n/a	0	0	0
460.168	n/a	START	230084	n/a	LTP279	ltpFR2	22	n/a	n/a	n/a	2	n/a	n/a	n/a	n/a
461.15	n/a	DISTRACTOR	230575	n/a	LTP279	ltpFR2	22	1	n/a	n/a	n/a	n/a	0	0	0
461.168	n/a	PROB	230584	n/a	LTP279	ltpFR2	22	n/a	n/a	n/a	2	13	3	7	3
463.338	n/a	PROB	231669	n/a	LTP279	ltpFR2	22	n/a	n/a	n/a	2	19	6	8	5
465.74	n/a	PROB	232870	n/a	LTP279	ltpFR2	22	n/a	n/a	n/a	2	19	4	9	6
467.976	n/a	PROB	233988	n/a	LTP279	ltpFR2	22	n/a	n/a	n/a	2	167	8	4	4
469.476	n/a	PROB	234738	n/a	LTP279	ltpFR2	22	n/a	n/a	n/a	2	11	4	6	1
470.694	n/a	PROB	235347	n/a	LTP279	ltpFR2	22	n/a	n/a	n/a	2	14	8	4	2
472.262	n/a	PROB	236131	n/a	LTP279	ltpFR2	22	n/a	n/a	n/a	2	13	8	2	3
473.646	n/a	PROB	236823	n/a	LTP279	ltpFR2	22	n/a	n/a	n/a	2	16	6	9	1
475.464	n/a	PROB	237732	n/a	LTP279	ltpFR2	22	n/a	n/a	n/a	2	19	6	4	9
477.298	n/a	PROB	238649	n/a	LTP279	ltpFR2	22	n/a	n/a	n/a	2	5	3	1	1
478.684	n/a	PROB	239342	n/a	LTP279	ltpFR2	22	n/a	n/a	n/a	2	13	6	3	4
481.02	n/a	PROB	240510	n/a	LTP279	ltpFR2	22	n/a	n/a	n/a	2	14	9	3	2
482.714	n/a	STOP	241357	n/a	LTP279	ltpFR2	22	n/a	n/a	n/a	2	n/a	n/a	n/a	n/a
486.008	n/a	REC_START	243004	n/a	LTP279	ltpFR2	22	1	n/a	n/a	n/a	n/a	0	0	0
486.344	n/a	REC_WORD	243172	wordpools/wasnorm_wordpool_576.txt	LTP279	ltpFR2	22	1	PERCH	1048	n/a	n/a	0	0	0
486.958	n/a	REC_WORD	243479	wordpools/wasnorm_wordpool_576.txt	LTP279	ltpFR2	22	1	COMET	353	n/a	n/a	0	0	0
487.85	n/a	REC_WORD	243925	wordpools/wasnorm_wordpool_576.txt	LTP279	ltpFR2	22	1	OFFICE	972	n/a	n/a	0	0	0
488.552	n/a	REC_WORD	244276	wordpools/wasnorm_wordpool_576.txt	LTP279	ltpFR2	22	1	RIVER	1194	n/a	n/a	0	0	0
502.0	n/a	REC_WORD	251000	wordpools/wasnorm_wordpool_576.txt	LTP279	ltpFR2	22	1	BROOK	177	n/a	n/a	0	0	0
502.886	n/a	REC_WORD	251443	wordpools/wasnorm_wordpool_576.txt	LTP279	ltpFR2	22	1	BARLEY	88	n/a	n/a	0	0	0
505.148	n/a	REC_WORD	252574	wordpools/wasnorm_wordpool_576.txt	LTP279	ltpFR2	22	1	LADY	794	n/a	n/a	0	0	0
506.816	n/a	REC_WORD	253408	wordpools/wasnorm_wordpool_576.txt	LTP279	ltpFR2	22	1	SHORTCAKE	1292	n/a	n/a	0	0	0
507.634	n/a	REC_WORD	253817	wordpools/wasnorm_wordpool_576.txt	LTP279	ltpFR2	22	1	STALLION	1369	n/a	n/a	0	0	0
508.476	n/a	REC_WORD	254238	wordpools/wasnorm_wordpool_576.txt	LTP279	ltpFR2	22	1	NOMAD	955	n/a	n/a	0	0	0
520.184	n/a	REC_WORD	260092	wordpools/wasnorm_wordpool_576.txt	LTP279	ltpFR2	22	1	LIZARD	834	n/a	n/a	0	0	0
520.916	n/a	REC_WORD	260458	wordpools/wasnorm_wordpool_576.txt	LTP279	ltpFR2	22	1	WHISKERS	1605	n/a	n/a	0	0	0
522.03	n/a	REC_WORD	261015	wordpools/wasnorm_wordpool_576.txt	LTP279	ltpFR2	22	1	DRAWING	494	n/a	n/a	0	0	0
523.772	n/a	REC_WORD	261886	wordpools/wasnorm_wordpool_576.txt	LTP279	ltpFR2	22	1	TILE	1468	n/a	n/a	0	0	0
525.46	n/a	REC_WORD_VV	262730	wordpools/wasnorm_wordpool_576.txt	LTP279	ltpFR2	22	1	<>	-1	n/a	n/a	0	0	0
526.754	n/a	REC_WORD	263377	wordpools/wasnorm_wordpool_576.txt	LTP279	ltpFR2	22	1	PASTA	1021	n/a	n/a	0	0	0
527.972	n/a	REC_WORD	263986	wordpools/wasnorm_wordpool_576.txt	LTP279	ltpFR2	22	1	FRUIT	610	n/a	n/a	0	0	0
533.824	n/a	REC_WORD	266912	wordpools/wasnorm_wordpool_576.txt	LTP279	ltpFR2	22	1	CARROT	249	n/a	n/a	0	0	0
534.626	n/a	REC_WORD	267313	wordpools/wasnorm_wordpool_576.txt	LTP279	ltpFR2	22	1	POISON	1096	n/a	n/a	0	0	0
536.646	n/a	REC_WORD	268323	wordpools/wasnorm_wordpool_576.txt	LTP279	ltpFR2	22	1	JELLO	754	n/a	n/a	0	0	0
537.39	n/a	REC_WORD	268695	wordpools/wasnorm_wordpool_576.txt	LTP279	ltpFR2	22	1	PUDDING	1139	n/a	n/a	0	0	0
576.634	n/a	DISTRACTOR	288317	n/a	LTP279	ltpFR2	22	2	n/a	n/a	n/a	n/a	0	0	0
576.634	n/a	START	288317	n/a	LTP279	ltpFR2	22	n/a	n/a	n/a	3	n/a	n/a	n/a	n/a
576.668	n/a	PROB	288334	n/a	LTP279	ltpFR2	22	n/a	n/a	n/a	3	20	5	8	7
580.32	n/a	PROB	290160	n/a	LTP279	ltpFR2	22	n/a	n/a	n/a	3	14	7	1	6
582.04	n/a	PROB	291020	n/a	LTP279	ltpFR2	22	n/a	n/a	n/a	3	20	8	4	8
584.126	n/a	PROB	292063	n/a	LTP279	ltpFR2	22	n/a	n/a	n/a	3	12	4	2	6
585.826	n/a	PROB	292913	n/a	LTP279	ltpFR2	22	n/a	n/a	n/a	3	23	8	8	7
587.878	n/a	PROB	293939	n/a	LTP279	ltpFR2	22	n/a	n/a	n/a	3	23	9	6	8
590.396	n/a	PROB	295198	n/a	LTP279	ltpFR2	22	n/a	n/a	n/a	3	16	2	7	7
592.05	n/a	PROB	296025	n/a	LTP279	ltpFR2	22	n/a	n/a	n/a	3	16	6	5	5
593.582	n/a	PROB	296791	n/a	LTP279	ltpFR2	22	n/a	n/a	n/a	3	11	6	2	3
595.152	n/a	PROB	297576	n/a	LTP279	ltpFR2	22	n/a	n/a	n/a	3	14	8	2	4
596.92	n/a	PROB	298460	n/a	LTP279	ltpFR2	22	n/a	n/a	n/a	3	20	6	5	9
600.636	n/a	STOP	300318	n/a	LTP279	ltpFR2	22	n/a	n/a	n/a	3	n/a	n/a	n/a	n/a
601.806	n/a	WORD	300903	wordpools/wasnorm_wordpool_576.txt	LTP279	ltpFR2	22	2	IGLOO	734	n/a	n/a	0	0	0
604.358	n/a	WORD	302179	wordpools/wasnorm_wordpool_576.txt	LTP279	ltpFR2	22	2	GUARD	667	n/a	n/a	0	0	0
607.012	n/a	WORD	303506	wordpools/wasnorm_wordpool_576.txt	LTP279	ltpFR2	22	2	CAFE	216	n/a	n/a	0	0	0
609.58	n/a	WORD	304790	wordpools/wasnorm_wordpool_576.txt	LTP279	ltpFR2	22	2	MARKET	871	n/a	n/a	0	0	0
612.166	n/a	WORD	306083	wordpools/wasnorm_wordpool_576.txt	LTP279	ltpFR2	22	2	SPONGE	1355	n/a	n/a	0	0	0
614.818	n/a	WORD	307409	wordpools/wasnorm_wordpool_576.txt	LTP279	ltpFR2	22	2	DIME	466	n/a	n/a	0	0	0
617.486	n/a	WORD	308743	wordpools/wasnorm_wordpool_576.txt	LTP279	ltpFR2	22	2	TROUT	1511	n/a	n/a	0	0	0
620.09	n/a	WORD	310045	wordpools/wasnorm_wordpool_576.txt	LTP279	ltpFR2	22	2	PARROT	1015	n/a	n/a	0	0	0
622.774	n/a	WORD	311387	wordpools/wasnorm_wordpool_576.txt	LTP279	ltpFR2	22	2	ROOSTER	1209	n/a	n/a	0	0	0
625.378	n/a	WORD	312689	wordpools/wasnorm_wordpool_576.txt	LTP279	ltpFR2	22	2	SEAGULL	1261	n/a	n/a	0	0	0
628.198	n/a	WORD	314099	wordpools/wasnorm_wordpool_576.txt	LTP279	ltpFR2	22	2	OYSTER	995	n/a	n/a	0	0	0
630.764	n/a	WORD	315382	wordpools/wasnorm_wordpool_576.txt	LTP279	ltpFR2	22	2	POLICE	1098	n/a	n/a	0	0	0
633.334	n/a	WORD	316667	wordpools/wasnorm_wordpool_576.txt	LTP279	ltpFR2	22	2	COMPASS	358	n/a	n/a	0	0	0
635.936	n/a	WORD	317968	wordpools/wasnorm_wordpool_576.txt	LTP279	ltpFR2	22	2	CATTLE	261	n/a	n/a	0	0	0
638.388	n/a	WORD	319194	wordpools/wasnorm_wordpool_576.txt	LTP279	ltpFR2	22	2	OX	994	n/a	n/a	0	0	0
641.192	n/a	WORD	320596	wordpools/wasnorm_wordpool_576.txt	LTP279	ltpFR2	22	2	CORAL	378	n/a	n/a	0	0	0
643.658	n/a	WORD	321829	wordpools/wasnorm_wordpool_576.txt	LTP279	ltpFR2	22	2	FIREMAN	569	n/a	n/a	0	0	0
646.178	n/a	WORD	323089	wordpools/wasnorm_wordpool_576.txt	LTP279	ltpFR2	22	2	MASK	876	n/a	n/a	0	0	0
648.746	n/a	WORD	324373	wordpools/wasnorm_wordpool_576.txt	LTP279	ltpFR2	22	2	SCARECROW	1245	n/a	n/a	0	0	0
651.216	n/a	WORD	325608	wordpools/wasnorm_wordpool_576.txt	LTP279	ltpFR2	22	2	DRILL	497	n/a	n/a	0	0	0
653.75	n/a	WORD	326875	wordpools/wasnorm_wordpool_576.txt	LTP279	ltpFR2	22	2	PORTRAIT	1111	n/a	n/a	0	0	0
656.37	n/a	WORD	328185	wordpools/wasnorm_wordpool_576.txt	LTP279	ltpFR2	22	2	SHERIFF	1284	n/a	n/a	0	0	0
659.04	n/a	WORD	329520	wordpools/wasnorm_wordpool_576.txt	LTP279	ltpFR2	22	2	STREAM	1392	n/a	n/a	0	0	0
661.592	n/a	WORD	330796	wordpools/wasnorm_wordpool_576.txt	LTP279	ltpFR2	22	2	LABEL	790	n/a	n/a	0	0	0
663.21	n/a	START	331605	n/a	LTP279	ltpFR2	22	n/a	n/a	n/a	4	n/a	n/a	n/a	n/a
664.368	n/a	DISTRACTOR	332184	n/a	LTP279	ltpFR2	22	2	n/a	n/a	n/a	n/a	0	0	0
664.378	n/a	PROB	332189	n/a	LTP279	ltpFR2	22	n/a	n/a	n/a	4	17	5	8	7
667.08	n/a	PROB	333540	n/a	LTP279	ltpFR2	22	n/a	n/a	n/a	4	11	6	1	4
668.698	n/a	PROB	334349	n/a	LTP279	ltpFR2	22	n/a	n/a	n/a	4	15	8	1	6
670.666	n/a	PROB	335333	n/a	LTP279	ltpFR2	22	n/a	n/a	n/a	4	15	6	8	1
672.434	n/a	PROB	336217	n/a	LTP279	ltpFR2	22	n/a	n/a	n/a	4	11	3	7	1
673.784	n/a	PROB	336892	n/a	LTP279	ltpFR2	22	n/a	n/a	n/a	4	18	2	8	8
675.254	n/a	PROB	337627	n/a	LTP279	ltpFR2	22	n/a	n/a	n/a	4	5	2	2	1
676.654	n/a	PROB	338327	n/a	LTP279	ltpFR2	22	n/a	n/a	n/a	4	16	4	5	7
678.388	n/a	PROB	339194	n/a	LTP279	ltpFR2	22	n/a	n/a	n/a	4	10	4	5	1
679.874	n/a	PROB	339937	n/a	LTP279	ltpFR2	22	n/a	n/a	n/a	4	25	8	9	9
684.128	n/a	PROB	342064	n/a	LTP279	ltpFR2	22	n/a	n/a	n/a	4	17	6	2	9
686.872	n/a	STOP	343436	n/a	LTP279	ltpFR2	22	n/a	n/a	n/a	4	n/a	n/a	n/a	n/a
689.1	n/a	REC_START	344550	n/a	LTP279	ltpFR2	22	2	n/a	n/a	n/a	n/a	0	0	0
689.428	n/a	REC_WORD	344714	wordpools/wasnorm_wordpool_576.txt	LTP279	ltpFR2	22	2	PORTRAIT	1111	n/a	n/a	0	0	0
689.998	n/a	REC_WORD	344999	wordpools/wasnorm_wordpool_576.txt	LTP279	ltpFR2	22	2	SHERIFF	1284	n/a	n/a	0	0	0
690.754	n/a	REC_WORD	345377	wordpools/wasnorm_wordpool_576.txt	LTP279	ltpFR2	22	2	STREAM	1392	n/a	n/a	0	0	0
691.764	n/a	REC_WORD	345882	wordpools/wasnorm_wordpool_576.txt	LTP279	ltpFR2	22	2	LABEL	790	n/a	n/a	0	0	0
696.714	n/a	REC_WORD	348357	wordpools/wasnorm_wordpool_576.txt	LTP279	ltpFR2	22	2	IGLOO	734	n/a	n/a	0	0	0
706.8	n/a	REC_WORD	353400	wordpools/wasnorm_wordpool_576.txt	LTP279	ltpFR2	22	2	MASK	876	n/a	n/a	0	0	0
707.838	n/a	REC_WORD	353919	wordpools/wasnorm_wordpool_576.txt	LTP279	ltpFR2	22	2	CORAL	378	n/a	n/a	0	0	0
709.49	n/a	REC_WORD	354745	wordpools/wasnorm_wordpool_576.txt	LTP279	ltpFR2	22	2	FIREMAN	569	n/a	n/a	0	0	0
714.516	n/a	REC_WORD	357258	wordpools/wasnorm_wordpool_576.txt	LTP279	ltpFR2	22	2	OX	994	n/a	n/a	0	0	0
715.166	n/a	REC_WORD	357583	wordpools/wasnorm_wordpool_576.txt	LTP279	ltpFR2	22	2	CATTLE	261	n/a	n/a	0	0	0
717.512	n/a	REC_WORD	358756	wordpools/wasnorm_wordpool_576.txt	LTP279	ltpFR2	22	2	POLICEMEN	-1	n/a	n/a	0	0	0
718.5	n/a	REC_WORD	359250	wordpools/wasnorm_wordpool_576.txt	LTP279	ltpFR2	22	2	COMPASS	358	n/a	n/a	0	0	0
719.902	n/a	REC_WORD	359951	wordpools/wasnorm_wordpool_576.txt	LTP279	ltpFR2	22	2	OYSTER	995	n/a	n/a	0	0	0
720.556	n/a	REC_WORD	360278	wordpools/wasnorm_wordpool_576.txt	LTP279	ltpFR2	22	2	DIME	466	n/a	n/a	0	0	0
721.194	n/a	REC_WORD	360597	wordpools/wasnorm_wordpool_576.txt	LTP279	ltpFR2	22	2	TROUT	1511	n/a	n/a	0	0	0
779.742	n/a	WORD	389871	wordpools/wasnorm_wordpool_576.txt	LTP279	ltpFR2	22	3	AWARD	63	n/a	n/a	0	0	0
782.528	n/a	WORD	391264	wordpools/wasnorm_wordpool_576.txt	LTP279	ltpFR2	22	3	FOREST	593	n/a	n/a	0	0	0
784.982	n/a	WORD	392491	wordpools/wasnorm_wordpool_576.txt	LTP279	ltpFR2	22	3	PROTON	1132	n/a	n/a	0	0	0
787.5	n/a	WORD	393750	wordpools/wasnorm_wordpool_576.txt	LTP279	ltpFR2	22	3	LODGE	839	n/a	n/a	0	0	0
789.954	n/a	WORD	394977	wordpools/wasnorm_wordpool_576.txt	LTP279	ltpFR2	22	3	TWIG	1527	n/a	n/a	0	0	0
792.438	n/a	WORD	396219	wordpools/wasnorm_wordpool_576.txt	LTP279	ltpFR2	22	3	HARP	689	n/a	n/a	0	0	0
795.09	n/a	WORD	397545	wordpools/wasnorm_wordpool_576.txt	LTP279	ltpFR2	22	3	CHIPMUNK	304	n/a	n/a	0	0	0
797.676	n/a	WORD	398838	wordpools/wasnorm_wordpool_576.txt	LTP279	ltpFR2	22	3	PANTHER	1009	n/a	n/a	0	0	0
800.478	n/a	WORD	400239	wordpools/wasnorm_wordpool_576.txt	LTP279	ltpFR2	22	3	THIEF	1456	n/a	n/a	0	0	0
803.214	n/a	WORD	401607	wordpools/wasnorm_wordpool_576.txt	LTP279	ltpFR2	22	3	LONDON	843	n/a	n/a	0	0	0
805.848	n/a	WORD	402924	wordpools/wasnorm_wordpool_576.txt	LTP279	ltpFR2	22	3	VALVE	1546	n/a	n/a	0	0	0
808.45	n/a	WORD	404225	wordpools/wasnorm_wordpool_576.txt	LTP279	ltpFR2	22	3	BUGGY	188	n/a	n/a	0	0	0
811.238	n/a	WORD	405619	wordpools/wasnorm_wordpool_576.txt	LTP279	ltpFR2	22	3	PECAN	1036	n/a	n/a	0	0	0
814.04	n/a	WORD	407020	wordpools/wasnorm_wordpool_576.txt	LTP279	ltpFR2	22	3	ASIA	46	n/a	n/a	0	0	0
816.842	n/a	WORD	408421	wordpools/wasnorm_wordpool_576.txt	LTP279	ltpFR2	22	3	PERMIT	1051	n/a	n/a	0	0	0
819.578	n/a	WORD	409789	wordpools/wasnorm_wordpool_576.txt	LTP279	ltpFR2	22	3	MONEY	908	n/a	n/a	0	0	0
822.33	n/a	WORD	411165	wordpools/wasnorm_wordpool_576.txt	LTP279	ltpFR2	22	3	GIFT	635	n/a	n/a	0	0	0
824.984	n/a	WORD	412492	wordpools/wasnorm_wordpool_576.txt	LTP279	ltpFR2	22	3	TRIBE	1505	n/a	n/a	0	0	0
827.568	n/a	WORD	413784	wordpools/wasnorm_wordpool_576.txt	LTP279	ltpFR2	22	3	SALMON	1227	n/a	n/a	0	0	0
830.02	n/a	WORD	415010	wordpools/wasnorm_wordpool_576.txt	LTP279	ltpFR2	22	3	SHARK	1275	n/a	n/a	0	0	0
832.588	n/a	WORD	416294	wordpools/wasnorm_wordpool_576.txt	LTP279	ltpFR2	22	3	SUNSET	1408	n/a	n/a	0	0	0
835.424	n/a	WORD	417712	wordpools/wasnorm_wordpool_576.txt	LTP279	ltpFR2	22	3	LUMBER	848	n/a	n/a	0	0	0
837.96	n/a	WORD	418980	wordpools/wasnorm_wordpool_576.txt	LTP279	ltpFR2	22	3	LEG	809	n/a	n/a	0	0	0
840.412	n/a	WORD	420206	wordpools/wasnorm_wordpool_576.txt	LTP279	ltpFR2	22	3	PORK	1108	n/a	n/a	0	0	0
842.03	n/a	START	421015	n/a	LTP279	ltpFR2	22	n/a	n/a	n/a	5	n/a	n/a	n/a	n/a
842.832	n/a	DISTRACTOR	421416	n/a	LTP279	ltpFR2	22	3	n/a	n/a	n/a	n/a	0	0	0
842.864	n/a	PROB	421432	n/a	LTP279	ltpFR2	22	n/a	n/a	n/a	5	14	4	1	9
845.05	n/a	PROB	422525	n/a	LTP279	ltpFR2	22	n/a	n/a	n/a	5	20	9	2	9
847.052	n/a	PROB	423526	n/a	LTP279	ltpFR2	22	n/a	n/a	n/a	5	19	7	7	5
849.088	n/a	PROB	424544	n/a	LTP279	ltpFR2	22	n/a	n/a	n/a	5	18	6	8	4
851.306	n/a	PROB	425653	n/a	LTP279	ltpFR2	22	n/a	n/a	n/a	5	9	2	2	5
852.924	n/a	PROB	426462	n/a	LTP279	ltpFR2	22	n/a	n/a	n/a	5	24	7	8	9
854.892	n/a	PROB	427446	n/a	LTP279	ltpFR2	22	n/a	n/a	n/a	5	9	1	4	4
856.076	n/a	PROB	428038	n/a	LTP279	ltpFR2	22	n/a	n/a	n/a	5	12	3	7	2
858.228	n/a	PROB	429114	n/a	LTP279	ltpFR2	22	n/a	n/a	n/a	5	11	3	7	1
859.712	n/a	PROB	429856	n/a	LTP279	ltpFR2	22	n/a	n/a	n/a	5	16	5	6	5
861.648	n/a	PROB	430824	n/a	LTP279	ltpFR2	22	n/a	n/a	n/a	5	15	7	4	4
863.366	n/a	PROB	431683	n/a	LTP279	ltpFR2	22	n/a	n/a	n/a	5	11	7	1	3
865.822	n/a	STOP	432911	n/a	LTP279	ltpFR2	22	n/a	n/a	n/a	5	n/a	n/a	n/a	n/a
867.97	n/a	REC_START	433985	n/a	LTP279	ltpFR2	22	3	n/a	n/a	n/a	n/a	0	0	0
868.496	n/a	REC_WORD	434248	wordpools/wasnorm_wordpool_576.txt	LTP279	ltpFR2	22	3	LUMBER	848	n/a	n/a	0	0	0
869.212	n/a	REC_WORD	434606	wordpools/wasnorm_wordpool_576.txt	LTP279	ltpFR2	22	3	LEG	809	n/a	n/a	0	0	0
870.024	n/a	REC_WORD	435012	wordpools/wasnorm_wordpool_576.txt	LTP279	ltpFR2	22	3	PORK	1108	n/a	n/a	0	0	0
874.008	n/a	REC_WORD	437004	wordpools/wasnorm_wordpool_576.txt	LTP279	ltpFR2	22	3	AWARD	63	n/a	n/a	0	0	0
874.99	n/a	REC_WORD	437495	wordpools/wasnorm_wordpool_576.txt	LTP279	ltpFR2	22	3	FOREST	593	n/a	n/a	0	0	0
876.724	n/a	REC_WORD	438362	wordpools/wasnorm_wordpool_576.txt	LTP279	ltpFR2	22	3	LODGE	839	n/a	n/a	0	0	0
878.504	n/a	REC_WORD	439252	wordpools/wasnorm_wordpool_576.txt	LTP279	ltpFR2	22	3	PROTON	1132	n/a	n/a	0	0	0
880.228	n/a	REC_WORD	440114	wordpools/wasnorm_wordpool_576.txt	LTP279	ltpFR2	22	3	TWIG	1527	n/a	n/a	0	0	0
881.308	n/a	REC_WORD	440654	wordpools/wasnorm_wordpool_576.txt	LTP279	ltpFR2	22	3	HARP	689	n/a	n/a	0	0	0
888.49	n/a	REC_WORD	444245	wordpools/wasnorm_wordpool_576.txt	LTP279	ltpFR2	22	3	MONEY	908	n/a	n/a	0	0	0
889.308	n/a	REC_WORD	444654	wordpools/wasnorm_wordpool_576.txt	LTP279	ltpFR2	22	3	PERMIT	1051	n/a	n/a	0	0	0
890.084	n/a	REC_WORD	445042	wordpools/wasnorm_wordpool_576.txt	LTP279	ltpFR2	22	3	ASIA	46	n/a	n/a	0	0	0
891.676	n/a	REC_WORD	445838	wordpools/wasnorm_wordpool_576.txt	LTP279	ltpFR2	22	3	GIFT	635	n/a	n/a	0	0	0
893.528	n/a	REC_WORD	446764	wordpools/wasnorm_wordpool_576.txt	LTP279	ltpFR2	22	3	SALMON	1227	n/a	n/a	0	0	0
894.26	n/a	REC_WORD	447130	wordpools/wasnorm_wordpool_576.txt	LTP279	ltpFR2	22	3	TRIBE	1505	n/a	n/a	0	0	0
958.464	n/a	DISTRACTOR	479232	n/a	LTP279	ltpFR2	22	4	n/a	n/a	n/a	n/a	0	0	0
958.464	n/a	START	479232	n/a	LTP279	ltpFR2	22	n/a	n/a	n/a	6	n/a	n/a	n/a	n/a
958.48	n/a	PROB	479240	n/a	LTP279	ltpFR2	22	n/a	n/a	n/a	6	12	8	1	3
960.282	n/a	PROB	480141	n/a	LTP279	ltpFR2	22	n/a	n/a	n/a	6	12	1	3	8
962.084	n/a	PROB	481042	n/a	LTP279	ltpFR2	22	n/a	n/a	n/a	6	17	2	9	6
964.254	n/a	PROB	482127	n/a	LTP279	ltpFR2	22	n/a	n/a	n/a	6	18	2	8	8
965.67	n/a	PROB	482835	n/a	LTP279	ltpFR2	22	n/a	n/a	n/a	6	20	6	7	7
967.856	n/a	PROB	483928	n/a	LTP279	ltpFR2	22	n/a	n/a	n/a	6	10	5	1	4
969.274	n/a	PROB	484637	n/a	LTP279	ltpFR2	22	n/a	n/a	n/a	6	19	6	9	4
970.992	n/a	PROB	485496	n/a	LTP279	ltpFR2	22	n/a	n/a	n/a	6	20	4	8	8
973.01	n/a	PROB	486505	n/a	LTP279	ltpFR2	22	n/a	n/a	n/a	6	16	7	7	2
974.66	n/a	PROB	487330	n/a	LTP279	ltpFR2	22	n/a	n/a	n/a	6	12	8	2	2
976.696	n/a	PROB	488348	n/a	LTP279	ltpFR2	22	n/a	n/a	n/a	6	25	7	9	9
979.034	n/a	PROB	489517	n/a	LTP279	ltpFR2	22	n/a	n/a	n/a	6	15	5	8	2
980.584	n/a	PROB	490292	n/a	LTP279	ltpFR2	22	n/a	n/a	n/a	6	16	5	8	9
982.322	n/a	STOP	491161	n/a	LTP279	ltpFR2	22	n/a	n/a	n/a	6	n/a	n/a	n/a	n/a
983.452	n/a	WORD	491726	wordpools/wasnorm_wordpool_576.txt	LTP279	ltpFR2	22	4	PLAZA	1088	n/a	n/a	0	0	0
986.072	n/a	WORD	493036	wordpools/wasnorm_wordpool_576.txt	LTP279	ltpFR2	22	4	BANQUET	86	n/a	n/a	0	0	0
988.858	n/a	WORD	494429	wordpools/wasnorm_wordpool_576.txt	LTP279	ltpFR2	22	4	SKIRT	1319	n/a	n/a	0	0	0
991.676	n/a	WORD	495838	wordpools/wasnorm_wordpool_576.txt	LTP279	ltpFR2	22	4	THREAD	1460	n/a	n/a	0	0	0
994.262	n/a	WORD	497131	wordpools/wasnorm_wordpool_576.txt	LTP279	ltpFR2	22	4	GAVEL	627	n/a	n/a	0	0	0
997.014	n/a	WORD	498507	wordpools/wasnorm_wordpool_576.txt	LTP279	ltpFR2	22	4	FLUTE	585	n/a	n/a	0	0	0
999.55	n/a	WORD	499775	wordpools/wasnorm_wordpool_576.txt	LTP279	ltpFR2	22	4	BACON	67	n/a	n/a	0	0	0
1002.236	n/a	WORD	501118	wordpools/wasnorm_wordpool_576.txt	LTP279	ltpFR2	22	4	COTTAGE	384	n/a	n/a	0	0	0
1004.82	n/a	WORD	502410	wordpools/wasnorm_wordpool_576.txt	LTP279	ltpFR2	22	4	BRICK	172	n/a	n/a	0	0	0
1007.44	n/a	WORD	503720	wordpools/wasnorm_wordpool_576.txt	LTP279	ltpFR2	22	4	TOASTER	1472	n/a	n/a	0	0	0
1009.876	n/a	WORD	504938	wordpools/wasnorm_wordpool_576.txt	LTP279	ltpFR2	22	4	WRIST	1626	n/a	n/a	0	0	0
1012.51	n/a	WORD	506255	wordpools/wasnorm_wordpool_576.txt	LTP279	ltpFR2	22	4	STONE	1385	n/a	n/a	0	0	0
1015.064	n/a	WORD	507532	wordpools/wasnorm_wordpool_576.txt	LTP279	ltpFR2	22	4	YARN	1631	n/a	n/a	0	0	0
1017.666	n/a	WORD	508833	wordpools/wasnorm_wordpool_576.txt	LTP279	ltpFR2	22	4	STAMP	1370	n/a	n/a	0	0	0
1020.284	n/a	WORD	510142	wordpools/wasnorm_wordpool_576.txt	LTP279	ltpFR2	22	4	NIGHTGOWN	953	n/a	n/a	0	0	0
1022.988	n/a	WORD	511494	wordpools/wasnorm_wordpool_576.txt	LTP279	ltpFR2	22	4	RABBIT	1152	n/a	n/a	0	0	0
1025.722	n/a	WORD	512861	wordpools/wasnorm_wordpool_576.txt	LTP279	ltpFR2	22	4	TURTLE	1522	n/a	n/a	0	0	0
1028.508	n/a	WORD	514254	wordpools/wasnorm_wordpool_576.txt	LTP279	ltpFR2	22	4	MOTEL	919	n/a	n/a	0	0	0
1031.244	n/a	WORD	515622	wordpools/wasnorm_wordpool_576.txt	LTP279	ltpFR2	22	4	SAUSAGE	1238	n/a	n/a	0	0	0
1034.03	n/a	WORD	517015	wordpools/wasnorm_wordpool_576.txt	LTP279	ltpFR2	22	4	BEAKER	104	n/a	n/a	0	0	0
1036.598	n/a	WORD	518299	wordpools/wasnorm_wordpool_576.txt	LTP279	ltpFR2	22	4	CHAMPAGNE	278	n/a	n/a	0	0	0
1039.234	n/a	WORD	519617	wordpools/wasnorm_wordpool_576.txt	LTP279	ltpFR2	22	4	LION	827	n/a	n/a	0	0	0
1041.702	n/a	WORD	520851	wordpools/wasnorm_wordpool_576.txt	LTP279	ltpFR2	22	4	CRATER	400	n/a	n/a	0	0	0
1044.538	n/a	WORD	522269	wordpools/wasnorm_wordpool_576.txt	LTP279	ltpFR2	22	4	PIZZA	1079	n/a	n/a	0	0	0
1046.158	n/a	START	523079	n/a	LTP279	ltpFR2	22	n/a	n/a	n/a	7	n/a	n/a	n/a	n/a
1047.252	n/a	DISTRACTOR	523626	n/a	LTP279	ltpFR2	22	4	n/a	n/a	n/a	n/a	0	0	0
1047.274	n/a	PROB	523637	n/a	LTP279	ltpFR2	22	n/a	n/a	n/a	7	11	7	3	1
1049.51	n/a	PROB	524755	n/a	LTP279	ltpFR2	22	n/a	n/a	n/a	7	16	7	4	5
1051.562	n/a	PROB	525781	n/a	LTP279	ltpFR2	22	n/a	n/a	n/a	7	16	7	5	4
1053.096	n/a	PROB	526548	n/a	LTP279	ltpFR2	22	n/a	n/a	n/a	7	5	3	1	1
1054.48	n/a	PROB	527240	n/a	LTP279	ltpFR2	22	n/a	n/a	n/a	7	10	6	1	3
1057.086	n/a	PROB	528543	n/a	LTP279	ltpFR2	22	n/a	n/a	n/a	7	12	1	8	3
1058.87	n/a	PROB	529435	n/a	LTP279	ltpFR2	22	n/a	n/a	n/a	7	20	8	8	4
1060.24	n/a	PROB	530120	n/a	LTP279	ltpFR2	22	n/a	n/a	n/a	7	25	8	8	9
1064.178	n/a	PROB	532089	n/a	LTP279	ltpFR2	22	n/a	n/a	n/a	7	19	9	9	1
1065.56	n/a	PROB	532780	n/a	LTP279	ltpFR2	22	n/a	n/a	n/a	7	10	2	6	2
1067.144	n/a	PROB	533572	n/a	LTP279	ltpFR2	22	n/a	n/a	n/a	7	17	9	3	5
1069.092	n/a	STOP	534546	n/a	LTP279	ltpFR2	22	n/a	n/a	n/a	7	n/a	n/a	n/a	n/a
1071.95	n/a	REC_START	535975	n/a	LTP279	ltpFR2	22	4	n/a	n/a	n/a	n/a	0	0	0
1073.498	n/a	REC_WORD	536749	wordpools/wasnorm_wordpool_576.txt	LTP279	ltpFR2	22	4	PIZZA	1079	n/a	n/a	0	0	0
1078.728	n/a	REC_WORD	539364	wordpools/wasnorm_wordpool_576.txt	LTP279	ltpFR2	22	4	THREAD	1460	n/a	n/a	0	0	0
1079.898	n/a	REC_WORD	539949	wordpools/wasnorm_wordpool_576.txt	LTP279	ltpFR2	22	4	SKIRT	1319	n/a	n/a	0	0	0
1080.98	n/a	REC_WORD	540490	wordpools/wasnorm_wordpool_576.txt	LTP279	ltpFR2	22	4	BANQUET	86	n/a	n/a	0	0	0
1081.834	n/a	REC_WORD	540917	wordpools/wasnorm_wordpool_576.txt	LTP279	ltpFR2	22	4	PLAZA	1088	n/a	n/a	0	0	0
1082.816	n/a	REC_WORD	541408	wordpools/wasnorm_wordpool_576.txt	LTP279	ltpFR2	22	4	GAVEL	627	n/a	n/a	0	0	0
1083.564	n/a	REC_WORD	541782	wordpools/wasnorm_wordpool_576.txt	LTP279	ltpFR2	22	4	FLUTE	585	n/a	n/a	0	0	0
1085.634	n/a	REC_WORD	542817	wordpools/wasnorm_wordpool_576.txt	LTP279	ltpFR2	22	4	BACON	67	n/a	n/a	0	0	0
1086.526	n/a	REC_WORD	543263	wordpools/wasnorm_wordpool_576.txt	LTP279	ltpFR2	22	4	COTTAGE	384	n/a	n/a	0	0	0
1162.386	n/a	WORD	581193	wordpools/wasnorm_wordpool_576.txt	LTP279	ltpFR2	22	5	SNAKE	1333	n/a	n/a	0	0	0
1165.09	n/a	WORD	582545	wordpools/wasnorm_wordpool_576.txt	LTP279	ltpFR2	22	5	LADDER	793	n/a	n/a	0	0	0
1167.864	n/a	WORD	583932	wordpools/wasnorm_wordpool_576.txt	LTP279	ltpFR2	22	5	DRINK	498	n/a	n/a	0	0	0
1170.312	n/a	WORD	585156	wordpools/wasnorm_wordpool_576.txt	LTP279	ltpFR2	22	5	BRAKE	166	n/a	n/a	0	0	0
1172.896	n/a	WORD	586448	wordpools/wasnorm_wordpool_576.txt	LTP279	ltpFR2	22	5	SKILLET	1317	n/a	n/a	0	0	0
1175.398	n/a	WORD	587699	wordpools/wasnorm_wordpool_576.txt	LTP279	ltpFR2	22	5	CRAB	397	n/a	n/a	0	0	0
1177.906	n/a	WORD	588953	wordpools/wasnorm_wordpool_576.txt	LTP279	ltpFR2	22	5	OZONE	996	n/a	n/a	0	0	0
1180.452	n/a	WORD	590226	wordpools/wasnorm_wordpool_576.txt	LTP279	ltpFR2	22	5	MOTOR	922	n/a	n/a	0	0	0
1183.206	n/a	WORD	591603	wordpools/wasnorm_wordpool_576.txt	LTP279	ltpFR2	22	5	SUITCASE	1403	n/a	n/a	0	0	0
1185.906	n/a	WORD	592953	wordpools/wasnorm_wordpool_576.txt	LTP279	ltpFR2	22	5	PUPPY	1144	n/a	n/a	0	0	0
1188.642	n/a	WORD	594321	wordpools/wasnorm_wordpool_576.txt	LTP279	ltpFR2	22	5	CUSTARD	429	n/a	n/a	0	0	0
1191.334	n/a	WORD	595667	wordpools/wasnorm_wordpool_576.txt	LTP279	ltpFR2	22	5	STAR	1373	n/a	n/a	0	0	0
1194.036	n/a	WORD	597018	wordpools/wasnorm_wordpool_576.txt	LTP279	ltpFR2	22	5	BLADE	134	n/a	n/a	0	0	0
1196.498	n/a	WORD	598249	wordpools/wasnorm_wordpool_576.txt	LTP279	ltpFR2	22	5	LUGGAGE	847	n/a	n/a	0	0	0
1199.218	n/a	WORD	599609	wordpools/wasnorm_wordpool_576.txt	LTP279	ltpFR2	22	5	MILK	895	n/a	n/a	0	0	0
1201.97	n/a	WORD	600985	wordpools/wasnorm_wordpool_576.txt	LTP279	ltpFR2	22	5	FARMER	553	n/a	n/a	0	0	0
1204.556	n/a	WORD	602278	wordpools/wasnorm_wordpool_576.txt	LTP279	ltpFR2	22	5	GARDEN	623	n/a	n/a	0	0	0
1207.108	n/a	WORD	603554	wordpools/wasnorm_wordpool_576.txt	LTP279	ltpFR2	22	5	MARINE	869	n/a	n/a	0	0	0
1209.784	n/a	WORD	604892	wordpools/wasnorm_wordpool_576.txt	LTP279	ltpFR2	22	5	CHAUFFEUR	283	n/a	n/a	0	0	0
1212.326	n/a	WORD	606163	wordpools/wasnorm_wordpool_576.txt	LTP279	ltpFR2	22	5	DRIVER	499	n/a	n/a	0	0	0
1214.904	n/a	WORD	607452	wordpools/wasnorm_wordpool_576.txt	LTP279	ltpFR2	22	5	PICNIC	1060	n/a	n/a	0	0	0
1217.382	n/a	WORD	608691	wordpools/wasnorm_wordpool_576.txt	LTP279	ltpFR2	22	5	AIRPLANE	12	n/a	n/a	0	0	0
1219.808	n/a	WORD	609904	wordpools/wasnorm_wordpool_576.txt	LTP279	ltpFR2	22	5	PUDDLE	1140	n/a	n/a	0	0	0
1222.56	n/a	WORD	611280	wordpools/wasnorm_wordpool_576.txt	LTP279	ltpFR2	22	5	SWAMP	1416	n/a	n/a	0	0	0
1224.172	n/a	START	612086	n/a	LTP279	ltpFR2	22	n/a	n/a	n/a	8	n/a	n/a	n/a	n/a
1225.202	n/a	DISTRACTOR	612601	n/a	LTP279	ltpFR2	22	5	n/a	n/a	n/a	n/a	0	0	0
1225.214	n/a	PROB	612607	n/a	LTP279	ltpFR2	22	n/a	n/a	n/a	8	18	7	7	4
1227.288	n/a	PROB	613644	n/a	LTP279	ltpFR2	22	n/a	n/a	n/a	8	10	2	6	2
1229.04	n/a	PROB	614520	n/a	LTP279	ltpFR2	22	n/a	n/a	n/a	8	19	7	6	6
1230.942	n/a	PROB	615471	n/a	LTP279	ltpFR2	22	n/a	n/a	n/a	8	14	6	4	4
1232.844	n/a	PROB	616422	n/a	LTP279	ltpFR2	22	n/a	n/a	n/a	8	16	8	5	2
1235.046	n/a	PROB	617523	n/a	LTP279	ltpFR2	22	n/a	n/a	n/a	8	17	7	9	1
1237.166	n/a	PROB	618583	n/a	LTP279	ltpFR2	22	n/a	n/a	n/a	8	10	5	2	3
1238.898	n/a	PROB	619449	n/a	LTP279	ltpFR2	22	n/a	n/a	n/a	8	17	7	5	5
1240.218	n/a	PROB	620109	n/a	LTP279	ltpFR2	22	n/a	n/a	n/a	8	11	4	5	2
1241.618	n/a	PROB	620809	n/a	LTP279	ltpFR2	22	n/a	n/a	n/a	8	12	3	7	2
1243.22	n/a	PROB	621610	n/a	LTP279	ltpFR2	22	n/a	n/a	n/a	8	16	9	1	6
1245.486	n/a	PROB	622743	n/a	LTP279	ltpFR2	22	n/a	n/a	n/a	8	13	6	4	3
1247.666	n/a	STOP	623833	n/a	LTP279	ltpFR2	22	n/a	n/a	n/a	8	n/a	n/a	n/a	n/a
1250.076	n/a	REC_START	625038	n/a	LTP279	ltpFR2	22	5	n/a	n/a	n/a	n/a	0	0	0
1250.892	n/a	REC_WORD	625446	wordpools/wasnorm_wordpool_576.txt	LTP279	ltpFR2	22	5	PUDDLE	1140	n/a	n/a	0	0	0
1253.176	n/a	REC_WORD	626588	wordpools/wasnorm_wordpool_576.txt	LTP279	ltpFR2	22	5	PUDDLE	1140	n/a	n/a	0	0	0
1254.032	n/a	REC_WORD	627016	wordpools/wasnorm_wordpool_576.txt	LTP279	ltpFR2	22	5	SWAMP	1416	n/a	n/a	0	0	0
1256.278	n/a	REC_WORD	628139	wordpools/wasnorm_wordpool_576.txt	LTP279	ltpFR2	22	5	AIRPLANE	12	n/a	n/a	0	0	0
1258.262	n/a	REC_WORD	629131	wordpools/wasnorm_wordpool_576.txt	LTP279	ltpFR2	22	5	DRIVER	499	n/a	n/a	0	0	0
1258.948	n/a	REC_WORD	629474	wordpools/wasnorm_wordpool_576.txt	LTP279	ltpFR2	22	5	CHAUFFEUR	283	n/a	n/a	0	0	0
1260.05	n/a	REC_WORD	630025	wordpools/wasnorm_wordpool_576.txt	LTP279	ltpFR2	22	5	PICNIC	1060	n/a	n/a	0	0	0
1275.844	n/a	REC_WORD	637922	wordpools/wasnorm_wordpool_576.txt	LTP279	ltpFR2	22	5	SNAKE	1333	n/a	n/a	0	0	0
1277.086	n/a	REC_WORD	638543	wordpools/wasnorm_wordpool_576.txt	LTP279	ltpFR2	22	5	LADDER	793	n/a	n/a	0	0	0
1340.544	n/a	WORD	670272	wordpools/wasnorm_wordpool_576.txt	LTP279	ltpFR2	22	6	SIDEWALK	1303	n/a	n/a	0	0	0
1343.282	n/a	WORD	671641	wordpools/wasnorm_wordpool_576.txt	LTP279	ltpFR2	22	6	ELBOW	520	n/a	n/a	0	0	0
1345.902	n/a	WORD	672951	wordpools/wasnorm_wordpool_576.txt	LTP279	ltpFR2	22	6	SLIME	1327	n/a	n/a	0	0	0
1348.686	n/a	WORD	674343	wordpools/wasnorm_wordpool_576.txt	LTP279	ltpFR2	22	6	FUNGUS	614	n/a	n/a	0	0	0
1351.188	n/a	WORD	675594	wordpools/wasnorm_wordpool_576.txt	LTP279	ltpFR2	22	6	PRINCESS	1125	n/a	n/a	0	0	0
1353.64	n/a	WORD	676820	wordpools/wasnorm_wordpool_576.txt	LTP279	ltpFR2	22	6	PLAID	1080	n/a	n/a	0	0	0
1356.444	n/a	WORD	678222	wordpools/wasnorm_wordpool_576.txt	LTP279	ltpFR2	22	6	ANKLE	24	n/a	n/a	0	0	0
1358.942	n/a	WORD	679471	wordpools/wasnorm_wordpool_576.txt	LTP279	ltpFR2	22	6	BELLY	119	n/a	n/a	0	0	0
1361.68	n/a	WORD	680840	wordpools/wasnorm_wordpool_576.txt	LTP279	ltpFR2	22	6	PAIL	1002	n/a	n/a	0	0	0
1364.166	n/a	WORD	682083	wordpools/wasnorm_wordpool_576.txt	LTP279	ltpFR2	22	6	MILDEW	893	n/a	n/a	0	0	0
1366.916	n/a	WORD	683458	wordpools/wasnorm_wordpool_576.txt	LTP279	ltpFR2	22	6	COLLEGE	346	n/a	n/a	0	0	0
1369.67	n/a	WORD	684835	wordpools/wasnorm_wordpool_576.txt	LTP279	ltpFR2	22	6	TEACHER	1440	n/a	n/a	0	0	0
1372.422	n/a	WORD	686211	wordpools/wasnorm_wordpool_576.txt	LTP279	ltpFR2	22	6	BUTCHER	203	n/a	n/a	0	0	0
1374.874	n/a	WORD	687437	wordpools/wasnorm_wordpool_576.txt	LTP279	ltpFR2	22	6	LILY	821	n/a	n/a	0	0	0
1377.592	n/a	WORD	688796	wordpools/wasnorm_wordpool_576.txt	LTP279	ltpFR2	22	6	STUDENT	1395	n/a	n/a	0	0	0
1380.31	n/a	WORD	690155	wordpools/wasnorm_wordpool_576.txt	LTP279	ltpFR2	22	6	DRESSER	496	n/a	n/a	0	0	0
1383.03	n/a	WORD	691515	wordpools/wasnorm_wordpool_576.txt	LTP279	ltpFR2	22	6	COURSE	390	n/a	n/a	0	0	0
1385.514	n/a	WORD	692757	wordpools/wasnorm_wordpool_576.txt	LTP279	ltpFR2	22	6	SHELTER	1282	n/a	n/a	0	0	0
1388.12	n/a	WORD	694060	wordpools/wasnorm_wordpool_576.txt	LTP279	ltpFR2	22	6	CRAYON	401	n/a	n/a	0	0	0
1390.552	n/a	WORD	695276	wordpools/wasnorm_wordpool_576.txt	LTP279	ltpFR2	22	6	QUARTER	1148	n/a	n/a	0	0	0
1393.072	n/a	WORD	696536	wordpools/wasnorm_wordpool_576.txt	LTP279	ltpFR2	22	6	STOMACH	1384	n/a	n/a	0	0	0
1395.706	n/a	WORD	697853	wordpools/wasnorm_wordpool_576.txt	LTP279	ltpFR2	22	6	FRIAR	605	n/a	n/a	0	0	0
1398.41	n/a	WORD	699205	wordpools/wasnorm_wordpool_576.txt	LTP279	ltpFR2	22	6	LUNCH	849	n/a	n/a	0	0	0
1401.144	n/a	WORD	700572	wordpools/wasnorm_wordpool_576.txt	LTP279	ltpFR2	22	6	SNAIL	1332	n/a	n/a	0	0	0
1402.75	n/a	START	701375	n/a	LTP279	ltpFR2	22	n/a	n/a	n/a	9	n/a	n/a	n/a	n/a
1403.796	n/a	DISTRACTOR	701898	n/a	LTP279	ltpFR2	22	6	n/a	n/a	n/a	n/a	0	0	0
1403.802	n/a	PROB	701901	n/a	LTP279	ltpFR2	22	n/a	n/a	n/a	9	17	5	5	7
1406.498	n/a	PROB	703249	n/a	LTP279	ltpFR2	22	n/a	n/a	n/a	9	15	4	7	4
1409.018	n/a	PROB	704509	n/a	LTP279	ltpFR2	22	n/a	n/a	n/a	9	18	4	7	7
1411.352	n/a	PROB	705676	n/a	LTP279	ltpFR2	22	n/a	n/a	n/a	9	20	8	6	6
1413.086	n/a	PROB	706543	n/a	LTP279	ltpFR2	22	n/a	n/a	n/a	9	12	2	4	6
1415.388	n/a	PROB	707694	n/a	LTP279	ltpFR2	22	n/a	n/a	n/a	9	15	6	1	8
1417.288	n/a	PROB	708644	n/a	LTP279	ltpFR2	22	n/a	n/a	n/a	9	11	6	1	4
1418.556	n/a	PROB	709278	n/a	LTP279	ltpFR2	22	n/a	n/a	n/a	9	12	3	3	6
1420.34	n/a	PROB	710170	n/a	LTP279	ltpFR2	22	n/a	n/a	n/a	9	13	3	5	5
1421.742	n/a	PROB	710871	n/a	LTP279	ltpFR2	22	n/a	n/a	n/a	9	13	1	5	6
1426.752	n/a	STOP	713376	n/a	LTP279	ltpFR2	22	n/a	n/a	n/a	9	n/a	n/a	n/a	n/a
1428.598	n/a	REC_START	714299	n/a	LTP279	ltpFR2	22	6	n/a	n/a	n/a	n/a	0	0	0
1429.044	n/a	REC_WORD	714522	wordpools/wasnorm_wordpool_576.txt	LTP279	ltpFR2	22	6	FRIAR	605	n/a	n/a	0	0	0
1429.788	n/a	REC_WORD	714894	wordpools/wasnorm_wordpool_576.txt	LTP279	ltpFR2	22	6	LUNCH	849	n/a	n/a	0	0	0
1430.626	n/a	REC_WORD	715313	wordpools/wasnorm_wordpool_576.txt	LTP279	ltpFR2	22	6	SNAIL	1332	n/a	n/a	0	0	0
1432.048	n/a	REC_WORD	716024	wordpools/wasnorm_wordpool_576.txt	LTP279	ltpFR2	22	6	STOMACH	1384	n/a	n/a	0	0	0
1433.248	n/a	REC_WORD	716624	wordpools/wasnorm_wordpool_576.txt	LTP279	ltpFR2	22	6	QUARTER	1148	n/a	n/a	0	0	0
1434.276	n/a	REC_WORD	717138	wordpools/wasnorm_wordpool_576.txt	LTP279	ltpFR2	22	6	CRAYON	401	n/a	n/a	0	0	0
1435.674	n/a	REC_WORD	717837	wordpools/wasnorm_wordpool_576.txt	LTP279	ltpFR2	22	6	DRESSER	496	n/a	n/a	0	0	0
1473.66	n/a	REC_WORD	736830	wordpools/wasnorm_wordpool_576.txt	LTP279	ltpFR2	22	6	SIDEWALK	1303	n/a	n/a	0	0	0
1474.98	n/a	REC_WORD	737490	wordpools/wasnorm_wordpool_576.txt	LTP279	ltpFR2	22	6	FUNGUS	614	n/a	n/a	0	0	0
1475.818	n/a	REC_WORD	737909	wordpools/wasnorm_wordpool_576.txt	LTP279	ltpFR2	22	6	ELBOW	520	n/a	n/a	0	0	0
1478.002	n/a	REC_WORD	739001	wordpools/wasnorm_wordpool_576.txt	LTP279	ltpFR2	22	6	SLIME	1327	n/a	n/a	0	0	0
1479.942	n/a	REC_WORD	739971	wordpools/wasnorm_wordpool_576.txt	LTP279	ltpFR2	22	6	PRINCESS	1125	n/a	n/a	0	0	0
1481.64	n/a	REC_WORD	740820	wordpools/wasnorm_wordpool_576.txt	LTP279	ltpFR2	22	6	MILDEW	893	n/a	n/a	0	0	0
1482.608	n/a	REC_WORD	741304	wordpools/wasnorm_wordpool_576.txt	LTP279	ltpFR2	22	6	COLLEGE	346	n/a	n/a	0	0	0
1483.762	n/a	REC_WORD	741881	wordpools/wasnorm_wordpool_576.txt	LTP279	ltpFR2	22	6	TEACHER	1440	n/a	n/a	0	0	0
1485.986	n/a	REC_WORD	742993	wordpools/wasnorm_wordpool_576.txt	LTP279	ltpFR2	22	6	LILY	821	n/a	n/a	0	0	0
1486.758	n/a	REC_WORD	743379	wordpools/wasnorm_wordpool_576.txt	LTP279	ltpFR2	22	6	BUTCHER	203	n/a	n/a	0	0	0
1487.272	n/a	REC_WORD	743636	wordpools/wasnorm_wordpool_576.txt	LTP279	ltpFR2	22	6	STUDENT	1395	n/a	n/a	0	0	0
1519.038	n/a	WORD	759519	wordpools/wasnorm_wordpool_576.txt	LTP279	ltpFR2	22	7	LIVER	833	n/a	n/a	0	0	0
1521.67	n/a	WORD	760835	wordpools/wasnorm_wordpool_576.txt	LTP279	ltpFR2	22	7	ONION	977	n/a	n/a	0	0	0
1524.206	n/a	WORD	762103	wordpools/wasnorm_wordpool_576.txt	LTP279	ltpFR2	22	7	SANDWICH	1232	n/a	n/a	0	0	0
1526.84	n/a	WORD	763420	wordpools/wasnorm_wordpool_576.txt	LTP279	ltpFR2	22	7	DINER	467	n/a	n/a	0	0	0
1529.462	n/a	WORD	764731	wordpools/wasnorm_wordpool_576.txt	LTP279	ltpFR2	22	7	VAGRANT	1544	n/a	n/a	0	0	0
1532.166	n/a	WORD	766083	wordpools/wasnorm_wordpool_576.txt	LTP279	ltpFR2	22	7	CABIN	211	n/a	n/a	0	0	0
1534.782	n/a	WORD	767391	wordpools/wasnorm_wordpool_576.txt	LTP279	ltpFR2	22	7	KIDNEY	776	n/a	n/a	0	0	0
1537.416	n/a	WORD	768708	wordpools/wasnorm_wordpool_576.txt	LTP279	ltpFR2	22	7	TABLE	1426	n/a	n/a	0	0	0
1539.952	n/a	WORD	769976	wordpools/wasnorm_wordpool_576.txt	LTP279	ltpFR2	22	7	SALAD	1224	n/a	n/a	0	0	0
1542.77	n/a	WORD	771385	wordpools/wasnorm_wordpool_576.txt	LTP279	ltpFR2	22	7	COIN	343	n/a	n/a	0	0	0
1545.442	n/a	WORD	772721	wordpools/wasnorm_wordpool_576.txt	LTP279	ltpFR2	22	7	CYCLONE	431	n/a	n/a	0	0	0
1548.092	n/a	WORD	774046	wordpools/wasnorm_wordpool_576.txt	LTP279	ltpFR2	22	7	LAGOON	795	n/a	n/a	0	0	0
1550.778	n/a	WORD	775389	wordpools/wasnorm_wordpool_576.txt	LTP279	ltpFR2	22	7	STAKE	1368	n/a	n/a	0	0	0
1553.564	n/a	WORD	776782	wordpools/wasnorm_wordpool_576.txt	LTP279	ltpFR2	22	7	NECKLACE	940	n/a	n/a	0	0	0
1556.266	n/a	WORD	778133	wordpools/wasnorm_wordpool_576.txt	LTP279	ltpFR2	22	7	KITCHEN	778	n/a	n/a	0	0	0
1558.802	n/a	WORD	779401	wordpools/wasnorm_wordpool_576.txt	LTP279	ltpFR2	22	7	BANJO	82	n/a	n/a	0	0	0
1561.336	n/a	WORD	780668	wordpools/wasnorm_wordpool_576.txt	LTP279	ltpFR2	22	7	WRENCH	1625	n/a	n/a	0	0	0
1564.09	n/a	WORD	782045	wordpools/wasnorm_wordpool_576.txt	LTP279	ltpFR2	22	7	LAKE	796	n/a	n/a	0	0	0
1566.708	n/a	WORD	783354	wordpools/wasnorm_wordpool_576.txt	LTP279	ltpFR2	22	7	VIRUS	1572	n/a	n/a	0	0	0
1569.16	n/a	WORD	784580	wordpools/wasnorm_wordpool_576.txt	LTP279	ltpFR2	22	7	POET	1095	n/a	n/a	0	0	0
1571.646	n/a	WORD	785823	wordpools/wasnorm_wordpool_576.txt	LTP279	ltpFR2	22	7	PADDLE	1000	n/a	n/a	0	0	0
1574.25	n/a	WORD	787125	wordpools/wasnorm_wordpool_576.txt	LTP279	ltpFR2	22	7	SWORD	1423	n/a	n/a	0	0	0
1576.75	n/a	WORD	788375	wordpools/wasnorm_wordpool_576.txt	LTP279	ltpFR2	22	7	KNIFE	785	n/a	n/a	0	0	0
1579.334	n/a	WORD	789667	wordpools/wasnorm_wordpool_576.txt	LTP279	ltpFR2	22	7	VIKING	1565	n/a	n/a	0	0	0
1580.954	n/a	START	790477	n/a	LTP279	ltpFR2	22	n/a	n/a	n/a	10	n/a	n/a	n/a	n/a
1582.124	n/a	DISTRACTOR	791062	n/a	LTP279	ltpFR2	22	7	n/a	n/a	n/a	n/a	0	0	0
1582.138	n/a	PROB	791069	n/a	LTP279	ltpFR2	22	n/a	n/a	n/a	10	9	1	5	3
1584.006	n/a	PROB	792003	n/a	LTP279	ltpFR2	22	n/a	n/a	n/a	10	15	3	7	5
1586.824	n/a	PROB	793412	n/a	LTP279	ltpFR2	22	n/a	n/a	n/a	10	20	7	7	6
1589.558	n/a	PROB	794779	n/a	LTP279	ltpFR2	22	n/a	n/a	n/a	10	20	3	8	9
1593.446	n/a	PROB	796723	n/a	LTP279	ltpFR2	22	n/a	n/a	n/a	10	15	6	4	5
1595.514	n/a	PROB	797757	n/a	LTP279	ltpFR2	22	n/a	n/a	n/a	10	15	2	7	6
1597.532	n/a	PROB	798766	n/a	LTP279	ltpFR2	22	n/a	n/a	n/a	10	10	5	1	4
1599.368	n/a	PROB	799684	n/a	LTP279	ltpFR2	22	n/a	n/a	n/a	10	19	2	8	9
1600.968	n/a	PROB	800484	n/a	LTP279	ltpFR2	22	n/a	n/a	n/a	10	16	3	6	7
1603.468	n/a	STOP	801734	n/a	LTP279	ltpFR2	22	n/a	n/a	n/a	10	n/a	n/a	n/a	n/a
1606.89	n/a	REC_START	803445	n/a	LTP279	ltpFR2	22	7	n/a	n/a	n/a	n/a	0	0	0
1607.036	n/a	REC_WORD	803518	wordpools/wasnorm_wordpool_576.txt	LTP279	ltpFR2	22	7	POET	1095	n/a	n/a	0	0	0
1607.59	n/a	REC_WORD	803795	wordpools/wasnorm_wordpool_576.txt	LTP279	ltpFR2	22	7	PADDLE	1000	n/a	n/a	0	0	0
1608.044	n/a	REC_WORD	804022	wordpools/wasnorm_wordpool_576.txt	LTP279	ltpFR2	22	7	SWORD	1423	n/a	n/a	0	0	0
1608.726	n/a	REC_WORD	804363	wordpools/wasnorm_wordpool_576.txt	LTP279	ltpFR2	22	7	KNIFE	785	n/a	n/a	0	0	0
1609.522	n/a	REC_WORD	804761	wordpools/wasnorm_wordpool_576.txt	LTP279	ltpFR2	22	7	VIKING	1565	n/a	n/a	0	0	0
1618.302	n/a	REC_WORD	809151	wordpools/wasnorm_wordpool_576.txt	LTP279	ltpFR2	22	7	COIN	343	n/a	n/a	0	0	0
1619.006	n/a	REC_WORD	809503	wordpools/wasnorm_wordpool_576.txt	LTP279	ltpFR2	22	7	CYCLONE	431	n/a	n/a	0	0	0
1620.03	n/a	REC_WORD	810015	wordpools/wasnorm_wordpool_576.txt	LTP279	ltpFR2	22	7	LAGOON	795	n/a	n/a	0	0	0
1621.05	n/a	REC_WORD	810525	wordpools/wasnorm_wordpool_576.txt	LTP279	ltpFR2	22	7	NECKLACE	940	n/a	n/a	0	0	0
1622.372	n/a	REC_WORD	811186	wordpools/wasnorm_wordpool_576.txt	LTP279	ltpFR2	22	7	BANJO	82	n/a	n/a	0	0	0
1623.658	n/a	REC_WORD	811829	wordpools/wasnorm_wordpool_576.txt	LTP279	ltpFR2	22	7	KITCHEN	778	n/a	n/a	0	0	0
1627.398	n/a	REC_WORD	813699	wordpools/wasnorm_wordpool_576.txt	LTP279	ltpFR2	22	7	LIVER	833	n/a	n/a	0	0	0
1628.458	n/a	REC_WORD	814229	wordpools/wasnorm_wordpool_576.txt	LTP279	ltpFR2	22	7	ONION	977	n/a	n/a	0	0	0
1630.578	n/a	REC_WORD	815289	wordpools/wasnorm_wordpool_576.txt	LTP279	ltpFR2	22	7	DINER	467	n/a	n/a	0	0	0
1633.102	n/a	REC_WORD	816551	wordpools/wasnorm_wordpool_576.txt	LTP279	ltpFR2	22	7	SANDWICH	1232	n/a	n/a	0	0	0
1637.36	n/a	REC_WORD	818680	wordpools/wasnorm_wordpool_576.txt	LTP279	ltpFR2	22	7	VAGRANT	1544	n/a	n/a	0	0	0
1651.408	n/a	REC_WORD	825704	wordpools/wasnorm_wordpool_576.txt	LTP279	ltpFR2	22	7	STAKE	1368	n/a	n/a	0	0	0
1697.328	n/a	WORD	848664	wordpools/wasnorm_wordpool_576.txt	LTP279	ltpFR2	22	8	BROTHER	179	n/a	n/a	0	0	0
1699.88	n/a	WORD	849940	wordpools/wasnorm_wordpool_576.txt	LTP279	ltpFR2	22	8	MEAT	883	n/a	n/a	0	0	0
1702.642	n/a	WORD	851321	wordpools/wasnorm_wordpool_576.txt	LTP279	ltpFR2	22	8	CASHIER	254	n/a	n/a	0	0	0
1705.452	n/a	WORD	852726	wordpools/wasnorm_wordpool_576.txt	LTP279	ltpFR2	22	8	GANGSTER	620	n/a	n/a	0	0	0
1708.27	n/a	WORD	854135	wordpools/wasnorm_wordpool_576.txt	LTP279	ltpFR2	22	8	PISTOL	1075	n/a	n/a	0	0	0
1711.018	n/a	WORD	855509	wordpools/wasnorm_wordpool_576.txt	LTP279	ltpFR2	22	8	XEROX	1628	n/a	n/a	0	0	0
1713.818	n/a	WORD	856909	wordpools/wasnorm_wordpool_576.txt	LTP279	ltpFR2	22	8	SCISSORS	1250	n/a	n/a	0	0	0
1716.328	n/a	WORD	858164	wordpools/wasnorm_wordpool_576.txt	LTP279	ltpFR2	22	8	JOURNAL	760	n/a	n/a	0	0	0
1719.058	n/a	WORD	859529	wordpools/wasnorm_wordpool_576.txt	LTP279	ltpFR2	22	8	ICEBERG	731	n/a	n/a	0	0	0
1721.526	n/a	WORD	860763	wordpools/wasnorm_wordpool_576.txt	LTP279	ltpFR2	22	8	WIFE	1609	n/a	n/a	0	0	0
1724.128	n/a	WORD	862064	wordpools/wasnorm_wordpool_576.txt	LTP279	ltpFR2	22	8	COUSIN	392	n/a	n/a	0	0	0
1726.746	n/a	WORD	863373	wordpools/wasnorm_wordpool_576.txt	LTP279	ltpFR2	22	8	WINDOW	1611	n/a	n/a	0	0	0
1729.532	n/a	WORD	864766	wordpools/wasnorm_wordpool_576.txt	LTP279	ltpFR2	22	8	CURTAIN	427	n/a	n/a	0	0	0
1732.284	n/a	WORD	866142	wordpools/wasnorm_wordpool_576.txt	LTP279	ltpFR2	22	8	PERFUME	1049	n/a	n/a	0	0	0
1734.82	n/a	WORD	867410	wordpools/wasnorm_wordpool_576.txt	LTP279	ltpFR2	22	8	ATLAS	53	n/a	n/a	0	0	0
1737.504	n/a	WORD	868752	wordpools/wasnorm_wordpool_576.txt	LTP279	ltpFR2	22	8	NOVEL	960	n/a	n/a	0	0	0
1740.124	n/a	WORD	870062	wordpools/wasnorm_wordpool_576.txt	LTP279	ltpFR2	22	8	SPOOL	1356	n/a	n/a	0	0	0
1742.676	n/a	WORD	871338	wordpools/wasnorm_wordpool_576.txt	LTP279	ltpFR2	22	8	EMPIRE	530	n/a	n/a	0	0	0
1745.214	n/a	WORD	872607	wordpools/wasnorm_wordpool_576.txt	LTP279	ltpFR2	22	8	PARTNER	1017	n/a	n/a	0	0	0
1747.836	n/a	WORD	873918	wordpools/wasnorm_wordpool_576.txt	LTP279	ltpFR2	22	8	DORM	488	n/a	n/a	0	0	0
1750.42	n/a	WORD	875210	wordpools/wasnorm_wordpool_576.txt	LTP279	ltpFR2	22	8	SCRIBBLE	1256	n/a	n/a	0	0	0
1752.936	n/a	WORD	876468	wordpools/wasnorm_wordpool_576.txt	LTP279	ltpFR2	22	8	FRAGRANCE	599	n/a	n/a	0	0	0
1755.538	n/a	WORD	877769	wordpools/wasnorm_wordpool_576.txt	LTP279	ltpFR2	22	8	CHEST	295	n/a	n/a	0	0	0
1757.99	n/a	WORD	878995	wordpools/wasnorm_wordpool_576.txt	LTP279	ltpFR2	22	8	CLOTHES	327	n/a	n/a	0	0	0
1759.596	n/a	START	879798	n/a	LTP279	ltpFR2	22	n/a	n/a	n/a	11	n/a	n/a	n/a	n/a
1760.756	n/a	DISTRACTOR	880378	n/a	LTP279	ltpFR2	22	8	n/a	n/a	n/a	n/a	0	0	0
1760.762	n/a	PROB	880381	n/a	LTP279	ltpFR2	22	n/a	n/a	n/a	11	7	1	3	3
1762.948	n/a	PROB	881474	n/a	LTP279	ltpFR2	22	n/a	n/a	n/a	11	12	6	1	5
1765.862	n/a	PROB	882931	n/a	LTP279	ltpFR2	22	n/a	n/a	n/a	11	17	4	8	5
1768.848	n/a	PROB	884424	n/a	LTP279	ltpFR2	22	n/a	n/a	n/a	11	15	5	1	9
1770.332	n/a	PROB	885166	n/a	LTP279	ltpFR2	22	n/a	n/a	n/a	11	15	2	9	4
1772.284	n/a	PROB	886142	n/a	LTP279	ltpFR2	22	n/a	n/a	n/a	11	9	2	2	5
1773.954	n/a	PROB	886977	n/a	LTP279	ltpFR2	22	n/a	n/a	n/a	11	20	8	7	7
1776.588	n/a	PROB	888294	n/a	LTP279	ltpFR2	22	n/a	n/a	n/a	11	10	5	1	4
1779.758	n/a	PROB	889879	n/a	LTP279	ltpFR2	22	n/a	n/a	n/a	11	8	1	2	5
1780.944	n/a	PROB	890472	n/a	LTP279	ltpFR2	22	n/a	n/a	n/a	11	20	8	7	4
1782.658	n/a	STOP	891329	n/a	LTP279	ltpFR2	22	n/a	n/a	n/a	11	n/a	n/a	n/a	n/a
1785.482	n/a	REC_START	892741	n/a	LTP279	ltpFR2	22	8	n/a	n/a	n/a	n/a	0	0	0
1795.22	n/a	REC_WORD	897610	wordpools/wasnorm_wordpool_576.txt	LTP279	ltpFR2	22	8	FRAGRANCE	599	n/a	n/a	0	0	0
1798.594	n/a	REC_WORD	899297	wordpools/wasnorm_wordpool_576.txt	LTP279	ltpFR2	22	8	PERFUME	1049	n/a	n/a	0	0	0
1799.334	n/a	REC_WORD	899667	wordpools/wasnorm_wordpool_576.txt	LTP279	ltpFR2	22	8	WIFE	1609	n/a	n/a	0	0	0
1800.57	n/a	REC_WORD	900285	wordpools/wasnorm_wordpool_576.txt	LTP279	ltpFR2	22	8	COUSIN	392	n/a	n/a	0	0	0
1802.98	n/a	REC_WORD	901490	wordpools/wasnorm_wordpool_576.txt	LTP279	ltpFR2	22	8	ICEBERG	731	n/a	n/a	0	0	0
1804.732	n/a	REC_WORD	902366	wordpools/wasnorm_wordpool_576.txt	LTP279	ltpFR2	22	8	CURTAIN	427	n/a	n/a	0	0	0
1810.052	n/a	REC_WORD	905026	wordpools/wasnorm_wordpool_576.txt	LTP279	ltpFR2	22	8	WINDOW	1611	n/a	n/a	0	0	0
1862.026	n/a	REST_REWET	931013	n/a	LTP279	ltpFR2	22	8	n/a	n/a	n/a	n/a	0	0	0
2055.23	n/a	DISTRACTOR	1027615	n/a	LTP279	ltpFR2	22	9	n/a	n/a	n/a	n/a	0	0	0
2055.23	n/a	START	1027615	n/a	LTP279	ltpFR2	22	n/a	n/a	n/a	12	n/a	n/a	n/a	n/a
2055.246	n/a	PROB	1027623	n/a	LTP279	ltpFR2	22	n/a	n/a	n/a	12	16	5	2	9
2057.198	n/a	PROB	1028599	n/a	LTP279	ltpFR2	22	n/a	n/a	n/a	12	24	6	9	9
2059.416	n/a	PROB	1029708	n/a	LTP279	ltpFR2	22	n/a	n/a	n/a	12	19	8	7	4
2061.2	n/a	PROB	1030600	n/a	LTP279	ltpFR2	22	n/a	n/a	n/a	12	8	2	4	2
2062.918	n/a	PROB	1031459	n/a	LTP279	ltpFR2	22	n/a	n/a	n/a	12	15	7	3	5
2064.718	n/a	PROB	1032359	n/a	LTP279	ltpFR2	22	n/a	n/a	n/a	12	15	6	4	5
2066.92	n/a	PROB	1033460	n/a	LTP279	ltpFR2	22	n/a	n/a	n/a	12	9	5	1	3
2068.208	n/a	PROB	1034104	n/a	LTP279	ltpFR2	22	n/a	n/a	n/a	12	12	2	5	5
2069.624	n/a	PROB	1034812	n/a	LTP279	ltpFR2	22	n/a	n/a	n/a	12	17	3	7	7
2071.394	n/a	PROB	1035697	n/a	LTP279	ltpFR2	22	n/a	n/a	n/a	12	13	3	8	2
2073.694	n/a	PROB	1036847	n/a	LTP279	ltpFR2	22	n/a	n/a	n/a	12	9	4	1	4
2076.13	n/a	PROB	1038065	n/a	LTP279	ltpFR2	22	n/a	n/a	n/a	12	20	4	7	9
2078.012	n/a	STOP	1039006	n/a	LTP279	ltpFR2	22	n/a	n/a	n/a	12	n/a	n/a	n/a	n/a
2080.4	n/a	WORD	1040200	wordpools/wasnorm_wordpool_576.txt	LTP279	ltpFR2	22	9	SCARF	1246	n/a	n/a	0	0	0
2083.018	n/a	WORD	1041509	wordpools/wasnorm_wordpool_576.txt	LTP279	ltpFR2	22	9	BACKBONE	66	n/a	n/a	0	0	0
2085.586	n/a	WORD	1042793	wordpools/wasnorm_wordpool_576.txt	LTP279	ltpFR2	22	9	IDOL	733	n/a	n/a	0	0	0
2088.372	n/a	WORD	1044186	wordpools/wasnorm_wordpool_576.txt	LTP279	ltpFR2	22	9	STATUE	1374	n/a	n/a	0	0	0
2091.026	n/a	WORD	1045513	wordpools/wasnorm_wordpool_576.txt	LTP279	ltpFR2	22	9	ORCHID	982	n/a	n/a	0	0	0
2093.56	n/a	WORD	1046780	wordpools/wasnorm_wordpool_576.txt	LTP279	ltpFR2	22	9	OUTDOORS	987	n/a	n/a	0	0	0
2096.03	n/a	WORD	1048015	wordpools/wasnorm_wordpool_576.txt	LTP279	ltpFR2	22	9	CAMEL	223	n/a	n/a	0	0	0
2098.814	n/a	WORD	1049407	wordpools/wasnorm_wordpool_576.txt	LTP279	ltpFR2	22	9	CASKET	255	n/a	n/a	0	0	0
2101.316	n/a	WORD	1050658	wordpools/wasnorm_wordpool_576.txt	LTP279	ltpFR2	22	9	TOMBSTONE	1478	n/a	n/a	0	0	0
2104.104	n/a	WORD	1052052	wordpools/wasnorm_wordpool_576.txt	LTP279	ltpFR2	22	9	TROMBONE	1508	n/a	n/a	0	0	0
2106.874	n/a	WORD	1053437	wordpools/wasnorm_wordpool_576.txt	LTP279	ltpFR2	22	9	FLOWER	584	n/a	n/a	0	0	0
2109.478	n/a	WORD	1054739	wordpools/wasnorm_wordpool_576.txt	LTP279	ltpFR2	22	9	PIANO	1057	n/a	n/a	0	0	0
2112.108	n/a	WORD	1056054	wordpools/wasnorm_wordpool_576.txt	LTP279	ltpFR2	22	9	COUNTRY	388	n/a	n/a	0	0	0
2114.596	n/a	WORD	1057298	wordpools/wasnorm_wordpool_576.txt	LTP279	ltpFR2	22	9	TABLET	1427	n/a	n/a	0	0	0
2117.062	n/a	WORD	1058531	wordpools/wasnorm_wordpool_576.txt	LTP279	ltpFR2	22	9	RELISH	1183	n/a	n/a	0	0	0
2119.802	n/a	WORD	1059901	wordpools/wasnorm_wordpool_576.txt	LTP279	ltpFR2	22	9	HIKER	708	n/a	n/a	0	0	0
2122.366	n/a	WORD	1061183	wordpools/wasnorm_wordpool_576.txt	LTP279	ltpFR2	22	9	PICTURE	1061	n/a	n/a	0	0	0
2124.956	n/a	WORD	1062478	wordpools/wasnorm_wordpool_576.txt	LTP279	ltpFR2	22	9	LAVA	804	n/a	n/a	0	0	0
2127.508	n/a	WORD	1063754	wordpools/wasnorm_wordpool_576.txt	LTP279	ltpFR2	22	9	ISLAND	745	n/a	n/a	0	0	0
2130.262	n/a	WORD	1065131	wordpools/wasnorm_wordpool_576.txt	LTP279	ltpFR2	22	9	SPARROW	1347	n/a	n/a	0	0	0
2132.726	n/a	WORD	1066363	wordpools/wasnorm_wordpool_576.txt	LTP279	ltpFR2	22	9	JEANS	752	n/a	n/a	0	0	0
2135.494	n/a	WORD	1067747	wordpools/wasnorm_wordpool_576.txt	LTP279	ltpFR2	22	9	SUPPER	1411	n/a	n/a	0	0	0
2138.196	n/a	WORD	1069098	wordpools/wasnorm_wordpool_576.txt	LTP279	ltpFR2	22	9	PLUTO	1092	n/a	n/a	0	0	0
2140.82	n/a	WORD	1070410	wordpools/wasnorm_wordpool_576.txt	LTP279	ltpFR2	22	9	RECORD	1176	n/a	n/a	0	0	0
2142.434	n/a	START	1071217	n/a	LTP279	ltpFR2	22	n/a	n/a	n/a	13	n/a	n/a	n/a	n/a
2143.388	n/a	DISTRACTOR	1071694	n/a	LTP279	ltpFR2	22	9	n/a	n/a	n/a	n/a	0	0	0
2143.4	n/a	PROB	1071700	n/a	LTP279	ltpFR2	22	n/a	n/a	n/a	13	11	2	4	5
2146.252	n/a	PROB	1073126	n/a	LTP279	ltpFR2	22	n/a	n/a	n/a	13	15	7	4	4
2148.02	n/a	PROB	1074010	n/a	LTP279	ltpFR2	22	n/a	n/a	n/a	13	7	3	3	1
2149.478	n/a	PROB	1074739	n/a	LTP279	ltpFR2	22	n/a	n/a	n/a	13	1	7	8	6
2154.524	n/a	PROB	1077262	n/a	LTP279	ltpFR2	22	n/a	n/a	n/a	13	14	4	2	8
2156.676	n/a	PROB	1078338	n/a	LTP279	ltpFR2	22	n/a	n/a	n/a	13	12	2	5	5
2158.062	n/a	PROB	1079031	n/a	LTP279	ltpFR2	22	n/a	n/a	n/a	13	13	2	5	6
2160.028	n/a	PROB	1080014	n/a	LTP279	ltpFR2	22	n/a	n/a	n/a	13	14	8	2	4
2162.18	n/a	PROB	1081090	n/a	LTP279	ltpFR2	22	n/a	n/a	n/a	13	13	4	7	2
2163.798	n/a	PROB	1081899	n/a	LTP279	ltpFR2	22	n/a	n/a	n/a	13	17	5	3	9
2165.734	n/a	STOP	1082867	n/a	LTP279	ltpFR2	22	n/a	n/a	n/a	13	n/a	n/a	n/a	n/a
2168.238	n/a	REC_START	1084119	n/a	LTP279	ltpFR2	22	9	n/a	n/a	n/a	n/a	0	0	0
2168.716	n/a	REC_WORD	1084358	wordpools/wasnorm_wordpool_576.txt	LTP279	ltpFR2	22	9	PLUTO	1092	n/a	n/a	0	0	0
2169.886	n/a	REC_WORD	1084943	wordpools/wasnorm_wordpool_576.txt	LTP279	ltpFR2	22	9	RECORD	1176	n/a	n/a	0	0	0
2258.708	n/a	WORD	1129354	wordpools/wasnorm_wordpool_576.txt	LTP279	ltpFR2	22	10	SERVANT	1271	n/a	n/a	0	0	0
2261.508	n/a	WORD	1130754	wordpools/wasnorm_wordpool_576.txt	LTP279	ltpFR2	22	10	HUMAN	726	n/a	n/a	0	0	0
2264.262	n/a	WORD	1132131	wordpools/wasnorm_wordpool_576.txt	LTP279	ltpFR2	22	10	TRUCK	1512	n/a	n/a	0	0	0
2266.864	n/a	WORD	1133432	wordpools/wasnorm_wordpool_576.txt	LTP279	ltpFR2	22	10	JURY	766	n/a	n/a	0	0	0
2269.65	n/a	WORD	1134825	wordpools/wasnorm_wordpool_576.txt	LTP279	ltpFR2	22	10	PAPER	1011	n/a	n/a	0	0	0
2272.184	n/a	WORD	1136092	wordpools/wasnorm_wordpool_576.txt	LTP279	ltpFR2	22	10	SEAFOOD	1260	n/a	n/a	0	0	0
2274.886	n/a	WORD	1137443	wordpools/wasnorm_wordpool_576.txt	LTP279	ltpFR2	22	10	COOKBOOK	373	n/a	n/a	0	0	0
2277.606	n/a	WORD	1138803	wordpools/wasnorm_wordpool_576.txt	LTP279	ltpFR2	22	10	QUAIL	1147	n/a	n/a	0	0	0
2280.108	n/a	WORD	1140054	wordpools/wasnorm_wordpool_576.txt	LTP279	ltpFR2	22	10	LACE	792	n/a	n/a	0	0	0
2282.676	n/a	WORD	1141338	wordpools/wasnorm_wordpool_576.txt	LTP279	ltpFR2	22	10	DRESS	495	n/a	n/a	0	0	0
2285.328	n/a	WORD	1142664	wordpools/wasnorm_wordpool_576.txt	LTP279	ltpFR2	22	10	FINGER	567	n/a	n/a	0	0	0
2288.13	n/a	WORD	1144065	wordpools/wasnorm_wordpool_576.txt	LTP279	ltpFR2	22	10	HOSTESS	723	n/a	n/a	0	0	0
2290.916	n/a	WORD	1145458	wordpools/wasnorm_wordpool_576.txt	LTP279	ltpFR2	22	10	DRAGON	492	n/a	n/a	0	0	0
2293.368	n/a	WORD	1146684	wordpools/wasnorm_wordpool_576.txt	LTP279	ltpFR2	22	10	MATCH	878	n/a	n/a	0	0	0
2296.104	n/a	WORD	1148052	wordpools/wasnorm_wordpool_576.txt	LTP279	ltpFR2	22	10	FOOTBALL	591	n/a	n/a	0	0	0
2298.806	n/a	WORD	1149403	wordpools/wasnorm_wordpool_576.txt	LTP279	ltpFR2	22	10	ROBIN	1199	n/a	n/a	0	0	0
2301.324	n/a	WORD	1150662	wordpools/wasnorm_wordpool_576.txt	LTP279	ltpFR2	22	10	MAILMAN	858	n/a	n/a	0	0	0
2303.91	n/a	WORD	1151955	wordpools/wasnorm_wordpool_576.txt	LTP279	ltpFR2	22	10	PREACHER	1119	n/a	n/a	0	0	0
2306.528	n/a	WORD	1153264	wordpools/wasnorm_wordpool_576.txt	LTP279	ltpFR2	22	10	GREASE	660	n/a	n/a	0	0	0
2309.032	n/a	WORD	1154516	wordpools/wasnorm_wordpool_576.txt	LTP279	ltpFR2	22	10	GIRL	637	n/a	n/a	0	0	0
2311.7	n/a	WORD	1155850	wordpools/wasnorm_wordpool_576.txt	LTP279	ltpFR2	22	10	CUPBOARD	425	n/a	n/a	0	0	0
2314.468	n/a	WORD	1157234	wordpools/wasnorm_wordpool_576.txt	LTP279	ltpFR2	22	10	TEMPLE	1448	n/a	n/a	0	0	0
2316.938	n/a	WORD	1158469	wordpools/wasnorm_wordpool_576.txt	LTP279	ltpFR2	22	10	REPORT	1184	n/a	n/a	0	0	0
2319.538	n/a	WORD	1159769	wordpools/wasnorm_wordpool_576.txt	LTP279	ltpFR2	22	10	HELMET	702	n/a	n/a	0	0	0
2321.144	n/a	START	1160572	n/a	LTP279	ltpFR2	22	n/a	n/a	n/a	14	n/a	n/a	n/a	n/a
2322.302	n/a	DISTRACTOR	1161151	n/a	LTP279	ltpFR2	22	10	n/a	n/a	n/a	n/a	0	0	0
2322.308	n/a	PROB	1161154	n/a	LTP279	ltpFR2	22	n/a	n/a	n/a	14	21	4	8	9
2324.726	n/a	PROB	1162363	n/a	LTP279	ltpFR2	22	n/a	n/a	n/a	14	16	3	9	4
2326.996	n/a	PROB	1163498	n/a	LTP279	ltpFR2	22	n/a	n/a	n/a	14	15	6	8	1
2328.764	n/a	PROB	1164382	n/a	LTP279	ltpFR2	22	n/a	n/a	n/a	14	7	1	4	2
2330.646	n/a	PROB	1165323	n/a	LTP279	ltpFR2	22	n/a	n/a	n/a	14	16	4	7	5
2332.916	n/a	PROB	1166458	n/a	LTP279	ltpFR2	22	n/a	n/a	n/a	14	20	5	6	9
2335.284	n/a	PROB	1167642	n/a	LTP279	ltpFR2	22	n/a	n/a	n/a	14	23	9	6	8
2338.304	n/a	PROB	1169152	n/a	LTP279	ltpFR2	22	n/a	n/a	n/a	14	16	3	9	4
2340.922	n/a	PROB	1170461	n/a	LTP279	ltpFR2	22	n/a	n/a	n/a	14	13	4	5	4
2342.906	n/a	PROB	1171453	n/a	LTP279	ltpFR2	22	n/a	n/a	n/a	14	16	2	5	9
2344.5	n/a	STOP	1172250	n/a	LTP279	ltpFR2	22	n/a	n/a	n/a	14	n/a	n/a	n/a	n/a
2346.944	n/a	REC_START	1173472	n/a	LTP279	ltpFR2	22	10	n/a	n/a	n/a	n/a	0	0	0
2353.912	n/a	REC_WORD	1176956	wordpools/wasnorm_wordpool_576.txt	LTP279	ltpFR2	22	10	SERVANT	1271	n/a	n/a	0	0	0
2357.024	n/a	REC_WORD	1178512	wordpools/wasnorm_wordpool_576.txt	LTP279	ltpFR2	22	10	HUMAN	726	n/a	n/a	0	0	0
2358.132	n/a	REC_WORD	1179066	wordpools/wasnorm_wordpool_576.txt	LTP279	ltpFR2	22	10	TRUCK	1512	n/a	n/a	0	0	0
2359.594	n/a	REC_WORD	1179797	wordpools/wasnorm_wordpool_576.txt	LTP279	ltpFR2	22	10	JURY	766	n/a	n/a	0	0	0
2361.342	n/a	REC_WORD	1180671	wordpools/wasnorm_wordpool_576.txt	LTP279	ltpFR2	22	10	PAPER	1011	n/a	n/a	0	0	0
2362.804	n/a	REC_WORD	1181402	wordpools/wasnorm_wordpool_576.txt	LTP279	ltpFR2	22	10	SEAFOOD	1260	n/a	n/a	0	0	0
2364.524	n/a	REC_WORD	1182262	wordpools/wasnorm_wordpool_576.txt	LTP279	ltpFR2	22	10	COOKBOOK	373	n/a	n/a	0	0	0
2375.586	n/a	REC_WORD	1187793	wordpools/wasnorm_wordpool_576.txt	LTP279	ltpFR2	22	10	QUAIL	1147	n/a	n/a	0	0	0
2376.742	n/a	REC_WORD	1188371	wordpools/wasnorm_wordpool_576.txt	LTP279	ltpFR2	22	10	LACE	792	n/a	n/a	0	0	0
2377.956	n/a	REC_WORD	1188978	wordpools/wasnorm_wordpool_576.txt	LTP279	ltpFR2	22	10	DRESS	495	n/a	n/a	0	0	0
2379.12	n/a	REC_WORD	1189560	wordpools/wasnorm_wordpool_576.txt	LTP279	ltpFR2	22	10	FINGER	567	n/a	n/a	0	0	0
2380.702	n/a	REC_WORD	1190351	wordpools/wasnorm_wordpool_576.txt	LTP279	ltpFR2	22	10	DRAGON	492	n/a	n/a	0	0	0
2382.148	n/a	REC_WORD	1191074	wordpools/wasnorm_wordpool_576.txt	LTP279	ltpFR2	22	10	WAITRESS	1581	n/a	n/a	0	0	0
2385.072	n/a	REC_WORD	1192536	wordpools/wasnorm_wordpool_576.txt	LTP279	ltpFR2	22	10	ROBIN	1199	n/a	n/a	0	0	0
2437.382	n/a	WORD	1218691	wordpools/wasnorm_wordpool_576.txt	LTP279	ltpFR2	22	11	SIBLING	1301	n/a	n/a	0	0	0
2439.91	n/a	WORD	1219955	wordpools/wasnorm_wordpool_576.txt	LTP279	ltpFR2	22	11	TYPIST	1532	n/a	n/a	0	0	0
2442.404	n/a	WORD	1221202	wordpools/wasnorm_wordpool_576.txt	LTP279	ltpFR2	22	11	COWBOY	395	n/a	n/a	0	0	0
2445.132	n/a	WORD	1222566	wordpools/wasnorm_wordpool_576.txt	LTP279	ltpFR2	22	11	RUG	1215	n/a	n/a	0	0	0
2447.734	n/a	WORD	1223867	wordpools/wasnorm_wordpool_576.txt	LTP279	ltpFR2	22	11	BADGE	68	n/a	n/a	0	0	0
2450.538	n/a	WORD	1225269	wordpools/wasnorm_wordpool_576.txt	LTP279	ltpFR2	22	11	EXPERT	543	n/a	n/a	0	0	0
2452.962	n/a	WORD	1226481	wordpools/wasnorm_wordpool_576.txt	LTP279	ltpFR2	22	11	PEANUT	1032	n/a	n/a	0	0	0
2455.592	n/a	WORD	1227796	wordpools/wasnorm_wordpool_576.txt	LTP279	ltpFR2	22	11	WHISTLE	1606	n/a	n/a	0	0	0
2458.366	n/a	WORD	1229183	wordpools/wasnorm_wordpool_576.txt	LTP279	ltpFR2	22	11	SADDLE	1221	n/a	n/a	0	0	0
2460.812	n/a	WORD	1230406	wordpools/wasnorm_wordpool_576.txt	LTP279	ltpFR2	22	11	CLOCK	325	n/a	n/a	0	0	0
2463.254	n/a	WORD	1231627	wordpools/wasnorm_wordpool_576.txt	LTP279	ltpFR2	22	11	PATROL	1027	n/a	n/a	0	0	0
2465.734	n/a	WORD	1232867	wordpools/wasnorm_wordpool_576.txt	LTP279	ltpFR2	22	11	AGENT	10	n/a	n/a	0	0	0
2468.504	n/a	WORD	1234252	wordpools/wasnorm_wordpool_576.txt	LTP279	ltpFR2	22	11	TOURIST	1488	n/a	n/a	0	0	0
2471.206	n/a	WORD	1235603	wordpools/wasnorm_wordpool_576.txt	LTP279	ltpFR2	22	11	CONCERT	360	n/a	n/a	0	0	0
2473.858	n/a	WORD	1236929	wordpools/wasnorm_wordpool_576.txt	LTP279	ltpFR2	22	11	BINDER	127	n/a	n/a	0	0	0
2476.294	n/a	WORD	1238147	wordpools/wasnorm_wordpool_576.txt	LTP279	ltpFR2	22	11	AUTHOR	61	n/a	n/a	0	0	0
2478.946	n/a	WORD	1239473	wordpools/wasnorm_wordpool_576.txt	LTP279	ltpFR2	22	11	CEILING	265	n/a	n/a	0	0	0
2481.664	n/a	WORD	1240832	wordpools/wasnorm_wordpool_576.txt	LTP279	ltpFR2	22	11	PASTRY	1022	n/a	n/a	0	0	0
2484.35	n/a	WORD	1242175	wordpools/wasnorm_wordpool_576.txt	LTP279	ltpFR2	22	11	PENGUIN	1044	n/a	n/a	0	0	0
2486.986	n/a	WORD	1243493	wordpools/wasnorm_wordpool_576.txt	LTP279	ltpFR2	22	11	FIREPLACE	570	n/a	n/a	0	0	0
2489.604	n/a	WORD	1244802	wordpools/wasnorm_wordpool_576.txt	LTP279	ltpFR2	22	11	WORKER	1621	n/a	n/a	0	0	0
2492.36	n/a	WORD	1246180	wordpools/wasnorm_wordpool_576.txt	LTP279	ltpFR2	22	11	RECEIPT	1173	n/a	n/a	0	0	0
2495.128	n/a	WORD	1247564	wordpools/wasnorm_wordpool_576.txt	LTP279	ltpFR2	22	11	WASHER	1592	n/a	n/a	0	0	0
2497.812	n/a	WORD	1248906	wordpools/wasnorm_wordpool_576.txt	LTP279	ltpFR2	22	11	BANKER	84	n/a	n/a	0	0	0
2499.416	n/a	START	1249708	n/a	LTP279	ltpFR2	22	n/a	n/a	n/a	15	n/a	n/a	n/a	n/a
2500.484	n/a	DISTRACTOR	1250242	n/a	LTP279	ltpFR2	22	11	n/a	n/a	n/a	n/a	0	0	0
2500.498	n/a	PROB	1250249	n/a	LTP279	ltpFR2	22	n/a	n/a	n/a	15	17	2	7	8
2503.266	n/a	PROB	1251633	n/a	LTP279	ltpFR2	22	n/a	n/a	n/a	15	27	9	9	9
2504.8	n/a	PROB	1252400	n/a	LTP279	ltpFR2	22	n/a	n/a	n/a	15	24	7	9	8
2506.968	n/a	PROB	1253484	n/a	LTP279	ltpFR2	22	n/a	n/a	n/a	15	13	6	2	5
2509.222	n/a	PROB	1254611	n/a	LTP279	ltpFR2	22	n/a	n/a	n/a	15	18	6	9	3
2511.322	n/a	PROB	1255661	n/a	LTP279	ltpFR2	22	n/a	n/a	n/a	15	10	5	2	3
2513.144	n/a	PROB	1256572	n/a	LTP279	ltpFR2	22	n/a	n/a	n/a	15	10	1	7	2
2514.428	n/a	PROB	1257214	n/a	LTP279	ltpFR2	22	n/a	n/a	n/a	15	13	5	3	5
2515.946	n/a	PROB	1257973	n/a	LTP279	ltpFR2	22	n/a	n/a	n/a	15	21	8	7	6
2519.016	n/a	PROB	1259508	n/a	LTP279	ltpFR2	22	n/a	n/a	n/a	15	9	1	6	2
2520.464	n/a	PROB	1260232	n/a	LTP279	ltpFR2	22	n/a	n/a	n/a	15	16	6	2	8
2522.138	n/a	STOP	1261069	n/a	LTP279	ltpFR2	22	n/a	n/a	n/a	15	n/a	n/a	n/a	n/a
2525.238	n/a	REC_START	1262619	n/a	LTP279	ltpFR2	22	11	n/a	n/a	n/a	n/a	0	0	0
2529.174	n/a	REC_WORD	1264587	wordpools/wasnorm_wordpool_576.txt	LTP279	ltpFR2	22	11	WASHER	1592	n/a	n/a	0	0	0
2530.25	n/a	REC_WORD	1265125	wordpools/wasnorm_wordpool_576.txt	LTP279	ltpFR2	22	11	BANKER	84	n/a	n/a	0	0	0
2532.854	n/a	REC_WORD	1266427	wordpools/wasnorm_wordpool_576.txt	LTP279	ltpFR2	22	11	PEANUT	1032	n/a	n/a	0	0	0
2535.062	n/a	REC_WORD	1267531	wordpools/wasnorm_wordpool_576.txt	LTP279	ltpFR2	22	11	WHISTLE	1606	n/a	n/a	0	0	0
2536.782	n/a	REC_WORD	1268391	wordpools/wasnorm_wordpool_576.txt	LTP279	ltpFR2	22	11	SADDLE	1221	n/a	n/a	0	0	0
2537.714	n/a	REC_WORD	1268857	wordpools/wasnorm_wordpool_576.txt	LTP279	ltpFR2	22	11	COWBOY	395	n/a	n/a	0	0	0
2538.642	n/a	REC_WORD	1269321	wordpools/wasnorm_wordpool_576.txt	LTP279	ltpFR2	22	11	RUG	1215	n/a	n/a	0	0	0
2543.932	n/a	REC_WORD	1271966	wordpools/wasnorm_wordpool_576.txt	LTP279	ltpFR2	22	11	SIBLING	1301	n/a	n/a	0	0	0
2550.776	n/a	REC_WORD	1275388	wordpools/wasnorm_wordpool_576.txt	LTP279	ltpFR2	22	11	TYPIST	1532	n/a	n/a	0	0	0
2615.674	n/a	WORD	1307837	wordpools/wasnorm_wordpool_576.txt	LTP279	ltpFR2	22	12	DAISY	435	n/a	n/a	0	0	0
2618.094	n/a	WORD	1309047	wordpools/wasnorm_wordpool_576.txt	LTP279	ltpFR2	22	12	CHILD	299	n/a	n/a	0	0	0
2620.612	n/a	WORD	1310306	wordpools/wasnorm_wordpool_576.txt	LTP279	ltpFR2	22	12	BOYFRIEND	162	n/a	n/a	0	0	0
2623.236	n/a	WORD	1311618	wordpools/wasnorm_wordpool_576.txt	LTP279	ltpFR2	22	12	BATHTUB	100	n/a	n/a	0	0	0
2625.948	n/a	WORD	1312974	wordpools/wasnorm_wordpool_576.txt	LTP279	ltpFR2	22	12	CLOUD	328	n/a	n/a	0	0	0
2628.584	n/a	WORD	1314292	wordpools/wasnorm_wordpool_576.txt	LTP279	ltpFR2	22	12	POSTAGE	1113	n/a	n/a	0	0	0
2631.32	n/a	WORD	1315660	wordpools/wasnorm_wordpool_576.txt	LTP279	ltpFR2	22	12	WARDROBE	1587	n/a	n/a	0	0	0
2634.04	n/a	WORD	1317020	wordpools/wasnorm_wordpool_576.txt	LTP279	ltpFR2	22	12	REBEL	1172	n/a	n/a	0	0	0
2636.608	n/a	WORD	1318304	wordpools/wasnorm_wordpool_576.txt	LTP279	ltpFR2	22	12	GOBLIN	645	n/a	n/a	0	0	0
2639.184	n/a	WORD	1319592	wordpools/wasnorm_wordpool_576.txt	LTP279	ltpFR2	22	12	MONSTER	912	n/a	n/a	0	0	0
2641.952	n/a	WORD	1320976	wordpools/wasnorm_wordpool_576.txt	LTP279	ltpFR2	22	12	SMOG	1330	n/a	n/a	0	0	0
2644.662	n/a	WORD	1322331	wordpools/wasnorm_wordpool_576.txt	LTP279	ltpFR2	22	12	APRON	35	n/a	n/a	0	0	0
2647.308	n/a	WORD	1323654	wordpools/wasnorm_wordpool_576.txt	LTP279	ltpFR2	22	12	FIDDLE	561	n/a	n/a	0	0	0
2649.944	n/a	WORD	1324972	wordpools/wasnorm_wordpool_576.txt	LTP279	ltpFR2	22	12	BEAVER	109	n/a	n/a	0	0	0
2652.412	n/a	WORD	1326206	wordpools/wasnorm_wordpool_576.txt	LTP279	ltpFR2	22	12	CREATURE	403	n/a	n/a	0	0	0
2655.222	n/a	WORD	1327611	wordpools/wasnorm_wordpool_576.txt	LTP279	ltpFR2	22	12	HIGHWAY	707	n/a	n/a	0	0	0
2657.834	n/a	WORD	1328917	wordpools/wasnorm_wordpool_576.txt	LTP279	ltpFR2	22	12	FLAG	573	n/a	n/a	0	0	0
2660.486	n/a	WORD	1330243	wordpools/wasnorm_wordpool_576.txt	LTP279	ltpFR2	22	12	WASP	1593	n/a	n/a	0	0	0
2662.978	n/a	WORD	1331489	wordpools/wasnorm_wordpool_576.txt	LTP279	ltpFR2	22	12	SISTER	1312	n/a	n/a	0	0	0
2665.506	n/a	WORD	1332753	wordpools/wasnorm_wordpool_576.txt	LTP279	ltpFR2	22	12	GLOVE	642	n/a	n/a	0	0	0
2668.3	n/a	WORD	1334150	wordpools/wasnorm_wordpool_576.txt	LTP279	ltpFR2	22	12	SLUG	1329	n/a	n/a	0	0	0
2670.784	n/a	WORD	1335392	wordpools/wasnorm_wordpool_576.txt	LTP279	ltpFR2	22	12	SCALLOP	1242	n/a	n/a	0	0	0
2673.502	n/a	WORD	1336751	wordpools/wasnorm_wordpool_576.txt	LTP279	ltpFR2	22	12	STOVE	1388	n/a	n/a	0	0	0
2675.998	n/a	WORD	1337999	wordpools/wasnorm_wordpool_576.txt	LTP279	ltpFR2	22	12	CIGAR	308	n/a	n/a	0	0	0
2677.608	n/a	START	1338804	n/a	LTP279	ltpFR2	22	n/a	n/a	n/a	16	n/a	n/a	n/a	n/a
2678.484	n/a	DISTRACTOR	1339242	n/a	LTP279	ltpFR2	22	12	n/a	n/a	n/a	n/a	0	0	0
2678.492	n/a	PROB	1339246	n/a	LTP279	ltpFR2	22	n/a	n/a	n/a	16	15	6	1	8
2680.81	n/a	PROB	1340405	n/a	LTP279	ltpFR2	22	n/a	n/a	n/a	16	11	4	6	1
2683.144	n/a	PROB	1341572	n/a	LTP279	ltpFR2	22	n/a	n/a	n/a	16	10	4	2	4
2684.896	n/a	PROB	1342448	n/a	LTP279	ltpFR2	22	n/a	n/a	n/a	16	16	9	1	6
2686.83	n/a	PROB	1343415	n/a	LTP279	ltpFR2	22	n/a	n/a	n/a	16	23	9	5	9
2689.032	n/a	PROB	1344516	n/a	LTP279	ltpFR2	22	n/a	n/a	n/a	16	17	8	1	8
2690.852	n/a	PROB	1345426	n/a	LTP279	ltpFR2	22	n/a	n/a	n/a	16	11	2	6	3
2693.218	n/a	PROB	1346609	n/a	LTP279	ltpFR2	22	n/a	n/a	n/a	16	11	5	4	2
2695.836	n/a	PROB	1347918	n/a	LTP279	ltpFR2	22	n/a	n/a	n/a	16	17	9	3	5
2697.722	n/a	PROB	1348861	n/a	LTP279	ltpFR2	22	n/a	n/a	n/a	16	21	5	7	9
2700.542	n/a	STOP	1350271	n/a	LTP279	ltpFR2	22	n/a	n/a	n/a	16	n/a	n/a	n/a	n/a
2703.394	n/a	REC_START	1351697	n/a	LTP279	ltpFR2	22	12	n/a	n/a	n/a	n/a	0	0	0
2712.006	n/a	REC_WORD	1356003	wordpools/wasnorm_wordpool_576.txt	LTP279	ltpFR2	22	12	DAISY	435	n/a	n/a	0	0	0
2728.986	n/a	REC_WORD	1364493	wordpools/wasnorm_wordpool_576.txt	LTP279	ltpFR2	22	12	MONSTER	912	n/a	n/a	0	0	0
2730.218	n/a	REC_WORD	1365109	wordpools/wasnorm_wordpool_576.txt	LTP279	ltpFR2	22	12	GOBLIN	645	n/a	n/a	0	0	0
2735.892	n/a	REC_WORD	1367946	wordpools/wasnorm_wordpool_576.txt	LTP279	ltpFR2	22	12	SISTER	1312	n/a	n/a	0	0	0
2793.85	n/a	DISTRACTOR	1396925	n/a	LTP279	ltpFR2	22	13	n/a	n/a	n/a	n/a	0	0	0
2793.85	n/a	START	1396925	n/a	LTP279	ltpFR2	22	n/a	n/a	n/a	17	n/a	n/a	n/a	n/a
2793.864	n/a	PROB	1396932	n/a	LTP279	ltpFR2	22	n/a	n/a	n/a	17	10	5	2	3
2795.398	n/a	PROB	1397699	n/a	LTP279	ltpFR2	22	n/a	n/a	n/a	17	10	1	4	5
2796.568	n/a	PROB	1398284	n/a	LTP279	ltpFR2	22	n/a	n/a	n/a	17	12	6	5	1
2798.168	n/a	PROB	1399084	n/a	LTP279	ltpFR2	22	n/a	n/a	n/a	17	14	2	4	8
2800.37	n/a	PROB	1400185	n/a	LTP279	ltpFR2	22	n/a	n/a	n/a	17	20	6	7	7
2802.272	n/a	PROB	1401136	n/a	LTP279	ltpFR2	22	n/a	n/a	n/a	17	22	7	9	7
2804.99	n/a	PROB	1402495	n/a	LTP279	ltpFR2	22	n/a	n/a	n/a	17	12	5	2	5
2806.744	n/a	PROB	1403372	n/a	LTP279	ltpFR2	22	n/a	n/a	n/a	17	13	2	3	8
2809.062	n/a	PROB	1404531	n/a	LTP279	ltpFR2	22	n/a	n/a	n/a	17	15	2	4	9
2810.746	n/a	PROB	1405373	n/a	LTP279	ltpFR2	22	n/a	n/a	n/a	17	16	8	3	5
2813.248	n/a	PROB	1406624	n/a	LTP279	ltpFR2	22	n/a	n/a	n/a	17	13	9	3	1
2814.916	n/a	PROB	1407458	n/a	LTP279	ltpFR2	22	n/a	n/a	n/a	17	17	4	8	5
2817.394	n/a	STOP	1408697	n/a	LTP279	ltpFR2	22	n/a	n/a	n/a	17	n/a	n/a	n/a	n/a
2818.968	n/a	WORD	1409484	wordpools/wasnorm_wordpool_576.txt	LTP279	ltpFR2	22	13	HORNET	718	n/a	n/a	0	0	0
2821.42	n/a	WORD	1410710	wordpools/wasnorm_wordpool_576.txt	LTP279	ltpFR2	22	13	PIMPLE	1071	n/a	n/a	0	0	0
2824.19	n/a	WORD	1412095	wordpools/wasnorm_wordpool_576.txt	LTP279	ltpFR2	22	13	CLAM	315	n/a	n/a	0	0	0
2826.996	n/a	WORD	1413498	wordpools/wasnorm_wordpool_576.txt	LTP279	ltpFR2	22	13	HONEY	713	n/a	n/a	0	0	0
2829.71	n/a	WORD	1414855	wordpools/wasnorm_wordpool_576.txt	LTP279	ltpFR2	22	13	GLOBE	641	n/a	n/a	0	0	0
2832.396	n/a	WORD	1416198	wordpools/wasnorm_wordpool_576.txt	LTP279	ltpFR2	22	13	TRENCH	1503	n/a	n/a	0	0	0
2834.934	n/a	WORD	1417467	wordpools/wasnorm_wordpool_576.txt	LTP279	ltpFR2	22	13	FLIPPER	580	n/a	n/a	0	0	0
2837.45	n/a	WORD	1418725	wordpools/wasnorm_wordpool_576.txt	LTP279	ltpFR2	22	13	DASHBOARD	441	n/a	n/a	0	0	0
2840.108	n/a	WORD	1420054	wordpools/wasnorm_wordpool_576.txt	LTP279	ltpFR2	22	13	BUBBLE	183	n/a	n/a	0	0	0
2842.538	n/a	WORD	1421269	wordpools/wasnorm_wordpool_576.txt	LTP279	ltpFR2	22	13	BALLOON	75	n/a	n/a	0	0	0
2845.074	n/a	WORD	1422537	wordpools/wasnorm_wordpool_576.txt	LTP279	ltpFR2	22	13	OINTMENT	974	n/a	n/a	0	0	0
2847.674	n/a	WORD	1423837	wordpools/wasnorm_wordpool_576.txt	LTP279	ltpFR2	22	13	UMPIRE	1535	n/a	n/a	0	0	0
2850.162	n/a	WORD	1425081	wordpools/wasnorm_wordpool_576.txt	LTP279	ltpFR2	22	13	SHOULDER	1294	n/a	n/a	0	0	0
2852.946	n/a	WORD	1426473	wordpools/wasnorm_wordpool_576.txt	LTP279	ltpFR2	22	13	GHETTO	633	n/a	n/a	0	0	0
2855.464	n/a	WORD	1427732	wordpools/wasnorm_wordpool_576.txt	LTP279	ltpFR2	22	13	SODA	1341	n/a	n/a	0	0	0
2857.9	n/a	WORD	1428950	wordpools/wasnorm_wordpool_576.txt	LTP279	ltpFR2	22	13	FRECKLE	602	n/a	n/a	0	0	0
2860.502	n/a	WORD	1430251	wordpools/wasnorm_wordpool_576.txt	LTP279	ltpFR2	22	13	POWDER	1117	n/a	n/a	0	0	0
2863.244	n/a	WORD	1431622	wordpools/wasnorm_wordpool_576.txt	LTP279	ltpFR2	22	13	GARLIC	624	n/a	n/a	0	0	0
2865.888	n/a	WORD	1432944	wordpools/wasnorm_wordpool_576.txt	LTP279	ltpFR2	22	13	CRUTCH	417	n/a	n/a	0	0	0
2868.69	n/a	WORD	1434345	wordpools/wasnorm_wordpool_576.txt	LTP279	ltpFR2	22	13	CANDY	230	n/a	n/a	0	0	0
2871.162	n/a	WORD	1435581	wordpools/wasnorm_wordpool_576.txt	LTP279	ltpFR2	22	13	COD	340	n/a	n/a	0	0	0
2873.578	n/a	WORD	1436789	wordpools/wasnorm_wordpool_576.txt	LTP279	ltpFR2	22	13	HOOK	715	n/a	n/a	0	0	0
2876.206	n/a	WORD	1438103	wordpools/wasnorm_wordpool_576.txt	LTP279	ltpFR2	22	13	VENUS	1557	n/a	n/a	0	0	0
2878.64	n/a	WORD	1439320	wordpools/wasnorm_wordpool_576.txt	LTP279	ltpFR2	22	13	FLEET	578	n/a	n/a	0	0	0
2880.252	n/a	START	1440126	n/a	LTP279	ltpFR2	22	n/a	n/a	n/a	18	n/a	n/a	n/a	n/a
2881.238	n/a	DISTRACTOR	1440619	n/a	LTP279	ltpFR2	22	13	n/a	n/a	n/a	n/a	0	0	0
2881.244	n/a	PROB	1440622	n/a	LTP279	ltpFR2	22	n/a	n/a	n/a	18	21	9	9	3
2884.036	n/a	PROB	1442018	n/a	LTP279	ltpFR2	22	n/a	n/a	n/a	18	11	3	2	6
2886.122	n/a	PROB	1443061	n/a	LTP279	ltpFR2	22	n/a	n/a	n/a	18	11	2	8	1
2888.024	n/a	PROB	1444012	n/a	LTP279	ltpFR2	22	n/a	n/a	n/a	18	18	6	5	7
2890.458	n/a	PROB	1445229	n/a	LTP279	ltpFR2	22	n/a	n/a	n/a	18	11	1	2	9
2892.11	n/a	PROB	1446055	n/a	LTP279	ltpFR2	22	n/a	n/a	n/a	18	13	3	1	9
2894.012	n/a	PROB	1447006	n/a	LTP279	ltpFR2	22	n/a	n/a	n/a	18	15	4	4	7
2895.63	n/a	PROB	1447815	n/a	LTP279	ltpFR2	22	n/a	n/a	n/a	18	20	9	7	4
2897.264	n/a	PROB	1448632	n/a	LTP279	ltpFR2	22	n/a	n/a	n/a	18	110	1	4	5
2898.65	n/a	PROB	1449325	n/a	LTP279	ltpFR2	22	n/a	n/a	n/a	18	22	8	5	9
2901.334	n/a	PROB	1450667	n/a	LTP279	ltpFR2	22	n/a	n/a	n/a	18	18	9	3	6
2902.908	n/a	STOP	1451454	n/a	LTP279	ltpFR2	22	n/a	n/a	n/a	18	n/a	n/a	n/a	n/a
2906.04	n/a	REC_START	1453020	n/a	LTP279	ltpFR2	22	13	n/a	n/a	n/a	n/a	0	0	0
2906.482	n/a	REC_WORD	1453241	wordpools/wasnorm_wordpool_576.txt	LTP279	ltpFR2	22	13	FLEET	578	n/a	n/a	0	0	0
2971.018	n/a	REC_WORD	1485509	wordpools/wasnorm_wordpool_576.txt	LTP279	ltpFR2	22	13	CANDY	230	n/a	n/a	0	0	0
2996.492	n/a	DISTRACTOR	1498246	n/a	LTP279	ltpFR2	22	14	n/a	n/a	n/a	n/a	0	0	0
2996.492	n/a	START	1498246	n/a	LTP279	ltpFR2	22	n/a	n/a	n/a	19	n/a	n/a	n/a	n/a
2996.51	n/a	PROB	1498255	n/a	LTP279	ltpFR2	22	n/a	n/a	n/a	19	6	1	4	1
2998.128	n/a	PROB	1499064	n/a	LTP279	ltpFR2	22	n/a	n/a	n/a	19	13	2	3	8
2999.562	n/a	PROB	1499781	n/a	LTP279	ltpFR2	22	n/a	n/a	n/a	19	17	9	7	1
3001.614	n/a	PROB	1500807	n/a	LTP279	ltpFR2	22	n/a	n/a	n/a	19	19	3	9	7
3003.884	n/a	PROB	1501942	n/a	LTP279	ltpFR2	22	n/a	n/a	n/a	19	21	6	7	8
3005.852	n/a	PROB	1502926	n/a	LTP279	ltpFR2	22	n/a	n/a	n/a	19	15	2	8	5
3007.584	n/a	PROB	1503792	n/a	LTP279	ltpFR2	22	n/a	n/a	n/a	19	18	2	7	9
3009.654	n/a	PROB	1504827	n/a	LTP279	ltpFR2	22	n/a	n/a	n/a	19	14	6	1	7
3011.254	n/a	PROB	1505627	n/a	LTP279	ltpFR2	22	n/a	n/a	n/a	19	19	8	4	7
3012.938	n/a	PROB	1506469	n/a	LTP279	ltpFR2	22	n/a	n/a	n/a	19	16	3	9	4
3015.192	n/a	PROB	1507596	n/a	LTP279	ltpFR2	22	n/a	n/a	n/a	19	14	3	3	8
3016.676	n/a	PROB	1508338	n/a	LTP279	ltpFR2	22	n/a	n/a	n/a	19	16	7	2	7
3018.094	n/a	PROB	1509047	n/a	LTP279	ltpFR2	22	n/a	n/a	n/a	19	17	7	9	1
3019.552	n/a	STOP	1509776	n/a	LTP279	ltpFR2	22	n/a	n/a	n/a	19	n/a	n/a	n/a	n/a
3021.646	n/a	WORD	1510823	wordpools/wasnorm_wordpool_576.txt	LTP279	ltpFR2	22	14	LASER	801	n/a	n/a	0	0	0
3024.332	n/a	WORD	1512166	wordpools/wasnorm_wordpool_576.txt	LTP279	ltpFR2	22	14	NEUTRON	947	n/a	n/a	0	0	0
3027.084	n/a	WORD	1513542	wordpools/wasnorm_wordpool_576.txt	LTP279	ltpFR2	22	14	ATOM	55	n/a	n/a	0	0	0
3029.586	n/a	WORD	1514793	wordpools/wasnorm_wordpool_576.txt	LTP279	ltpFR2	22	14	STICKER	1382	n/a	n/a	0	0	0
3032.224	n/a	WORD	1516112	wordpools/wasnorm_wordpool_576.txt	LTP279	ltpFR2	22	14	BEEF	113	n/a	n/a	0	0	0
3034.89	n/a	WORD	1517445	wordpools/wasnorm_wordpool_576.txt	LTP279	ltpFR2	22	14	SUMMIT	1405	n/a	n/a	0	0	0
3037.392	n/a	WORD	1518696	wordpools/wasnorm_wordpool_576.txt	LTP279	ltpFR2	22	14	BUG	187	n/a	n/a	0	0	0
3040.146	n/a	WORD	1520073	wordpools/wasnorm_wordpool_576.txt	LTP279	ltpFR2	22	14	CHURCH	307	n/a	n/a	0	0	0
3042.63	n/a	WORD	1521315	wordpools/wasnorm_wordpool_576.txt	LTP279	ltpFR2	22	14	BLOUSE	139	n/a	n/a	0	0	0
3045.25	n/a	WORD	1522625	wordpools/wasnorm_wordpool_576.txt	LTP279	ltpFR2	22	14	SPIDER	1351	n/a	n/a	0	0	0
3047.934	n/a	WORD	1523967	wordpools/wasnorm_wordpool_576.txt	LTP279	ltpFR2	22	14	COCOON	339	n/a	n/a	0	0	0
3050.604	n/a	WORD	1525302	wordpools/wasnorm_wordpool_576.txt	LTP279	ltpFR2	22	14	FRANCE	601	n/a	n/a	0	0	0
3053.222	n/a	WORD	1526611	wordpools/wasnorm_wordpool_576.txt	LTP279	ltpFR2	22	14	DENIM	446	n/a	n/a	0	0	0
3056.044	n/a	WORD	1528022	wordpools/wasnorm_wordpool_576.txt	LTP279	ltpFR2	22	14	ANTLER	29	n/a	n/a	0	0	0
3058.558	n/a	WORD	1529279	wordpools/wasnorm_wordpool_576.txt	LTP279	ltpFR2	22	14	PEACH	1031	n/a	n/a	0	0	0
3061.348	n/a	WORD	1530674	wordpools/wasnorm_wordpool_576.txt	LTP279	ltpFR2	22	14	MUFFIN	929	n/a	n/a	0	0	0
3064.098	n/a	WORD	1532049	wordpools/wasnorm_wordpool_576.txt	LTP279	ltpFR2	22	14	MESSAGE	888	n/a	n/a	0	0	0
3066.732	n/a	WORD	1533366	wordpools/wasnorm_wordpool_576.txt	LTP279	ltpFR2	22	14	FLASHLIGHT	575	n/a	n/a	0	0	0
3069.218	n/a	WORD	1534609	wordpools/wasnorm_wordpool_576.txt	LTP279	ltpFR2	22	14	RACKET	1155	n/a	n/a	0	0	0
3071.79	n/a	WORD	1535895	wordpools/wasnorm_wordpool_576.txt	LTP279	ltpFR2	22	14	MAILBOX	857	n/a	n/a	0	0	0
3074.54	n/a	WORD	1537270	wordpools/wasnorm_wordpool_576.txt	LTP279	ltpFR2	22	14	SPHINX	1349	n/a	n/a	0	0	0
3076.99	n/a	WORD	1538495	wordpools/wasnorm_wordpool_576.txt	LTP279	ltpFR2	22	14	FRAME	600	n/a	n/a	0	0	0
3079.576	n/a	WORD	1539788	wordpools/wasnorm_wordpool_576.txt	LTP279	ltpFR2	22	14	ROD	1203	n/a	n/a	0	0	0
3082.094	n/a	WORD	1541047	wordpools/wasnorm_wordpool_576.txt	LTP279	ltpFR2	22	14	CREVICE	405	n/a	n/a	0	0	0
3083.7	n/a	START	1541850	n/a	LTP279	ltpFR2	22	n/a	n/a	n/a	20	n/a	n/a	n/a	n/a
3084.766	n/a	DISTRACTOR	1542383	n/a	LTP279	ltpFR2	22	14	n/a	n/a	n/a	n/a	0	0	0
3084.78	n/a	PROB	1542390	n/a	LTP279	ltpFR2	22	n/a	n/a	n/a	20	16	7	8	1
3087.614	n/a	PROB	1543807	n/a	LTP279	ltpFR2	22	n/a	n/a	n/a	20	17	7	7	3
3089.134	n/a	PROB	1544567	n/a	LTP279	ltpFR2	22	n/a	n/a	n/a	20	14	9	4	1
3090.734	n/a	PROB	1545367	n/a	LTP279	ltpFR2	22	n/a	n/a	n/a	20	11	1	8	2
3093.62	n/a	PROB	1546810	n/a	LTP279	ltpFR2	22	n/a	n/a	n/a	20	19	5	9	6
3095.388	n/a	PROB	1547694	n/a	LTP279	ltpFR2	22	n/a	n/a	n/a	20	18	4	9	5
3097.056	n/a	PROB	1548528	n/a	LTP279	ltpFR2	22	n/a	n/a	n/a	20	17	6	4	7
3099.258	n/a	PROB	1549629	n/a	LTP279	ltpFR2	22	n/a	n/a	n/a	20	12	3	6	3
3101.192	n/a	PROB	1550596	n/a	LTP279	ltpFR2	22	n/a	n/a	n/a	20	18	9	7	2
3102.878	n/a	PROB	1551439	n/a	LTP279	ltpFR2	22	n/a	n/a	n/a	20	12	5	4	3
3104.428	n/a	PROB	1552214	n/a	LTP279	ltpFR2	22	n/a	n/a	n/a	20	27	9	9	9
3107.702	n/a	STOP	1553851	n/a	LTP279	ltpFR2	22	n/a	n/a	n/a	20	n/a	n/a	n/a	n/a
3109.584	n/a	REC_START	1554792	n/a	LTP279	ltpFR2	22	14	n/a	n/a	n/a	n/a	0	0	0
3109.762	n/a	REC_WORD	1554881	wordpools/wasnorm_wordpool_576.txt	LTP279	ltpFR2	22	14	SPHINX	1349	n/a	n/a	0	0	0
3110.578	n/a	REC_WORD	1555289	wordpools/wasnorm_wordpool_576.txt	LTP279	ltpFR2	22	14	FRAME	600	n/a	n/a	0	0	0
3111.426	n/a	REC_WORD	1555713	wordpools/wasnorm_wordpool_576.txt	LTP279	ltpFR2	22	14	ROD	1203	n/a	n/a	0	0	0
3112.528	n/a	REC_WORD	1556264	wordpools/wasnorm_wordpool_576.txt	LTP279	ltpFR2	22	14	CREVICE	405	n/a	n/a	0	0	0
3118.772	n/a	REC_WORD	1559386	wordpools/wasnorm_wordpool_576.txt	LTP279	ltpFR2	22	14	LASER	801	n/a	n/a	0	0	0
3119.786	n/a	REC_WORD	1559893	wordpools/wasnorm_wordpool_576.txt	LTP279	ltpFR2	22	14	NEUTRON	947	n/a	n/a	0	0	0
3120.93	n/a	REC_WORD	1560465	wordpools/wasnorm_wordpool_576.txt	LTP279	ltpFR2	22	14	ATOM	55	n/a	n/a	0	0	0
3121.72	n/a	REC_WORD	1560860	wordpools/wasnorm_wordpool_576.txt	LTP279	ltpFR2	22	14	STICKER	1382	n/a	n/a	0	0	0
3124.43	n/a	REC_WORD	1562215	wordpools/wasnorm_wordpool_576.txt	LTP279	ltpFR2	22	14	BEEF	113	n/a	n/a	0	0	0
3135.28	n/a	REC_WORD	1567640	wordpools/wasnorm_wordpool_576.txt	LTP279	ltpFR2	22	14	BUG	187	n/a	n/a	0	0	0
3136.022	n/a	REC_WORD	1568011	wordpools/wasnorm_wordpool_576.txt	LTP279	ltpFR2	22	14	BLOUSE	139	n/a	n/a	0	0	0
3137.954	n/a	REC_WORD	1568977	wordpools/wasnorm_wordpool_576.txt	LTP279	ltpFR2	22	14	SPIDER	1351	n/a	n/a	0	0	0
3139.386	n/a	REC_WORD	1569693	wordpools/wasnorm_wordpool_576.txt	LTP279	ltpFR2	22	14	COCOON	339	n/a	n/a	0	0	0
3200.006	n/a	DISTRACTOR	1600003	n/a	LTP279	ltpFR2	22	15	n/a	n/a	n/a	n/a	0	0	0
3200.006	n/a	START	1600003	n/a	LTP279	ltpFR2	22	n/a	n/a	n/a	21	n/a	n/a	n/a	n/a
3200.022	n/a	PROB	1600011	n/a	LTP279	ltpFR2	22	n/a	n/a	n/a	21	21	7	7	7
3201.404	n/a	PROB	1600702	n/a	LTP279	ltpFR2	22	n/a	n/a	n/a	21	15	9	4	2
3204.574	n/a	PROB	1602287	n/a	LTP279	ltpFR2	22	n/a	n/a	n/a	21	24	8	6	9
3207.726	n/a	PROB	1603863	n/a	LTP279	ltpFR2	22	n/a	n/a	n/a	21	18	6	3	9
3209.74	n/a	PROB	1604870	n/a	LTP279	ltpFR2	22	n/a	n/a	n/a	21	19	7	8	4
3211.43	n/a	PROB	1605715	n/a	LTP279	ltpFR2	22	n/a	n/a	n/a	21	13	1	3	9
3213.962	n/a	PROB	1606981	n/a	LTP279	ltpFR2	22	n/a	n/a	n/a	21	19	7	7	5
3216.08	n/a	PROB	1608040	n/a	LTP279	ltpFR2	22	n/a	n/a	n/a	21	18	7	5	6
3217.73	n/a	PROB	1608865	n/a	LTP279	ltpFR2	22	n/a	n/a	n/a	21	14	4	8	2
3219.598	n/a	PROB	1609799	n/a	LTP279	ltpFR2	22	n/a	n/a	n/a	21	16	4	4	8
3221.168	n/a	PROB	1610584	n/a	LTP279	ltpFR2	22	n/a	n/a	n/a	21	13	4	5	4
3223.358	n/a	STOP	1611679	n/a	LTP279	ltpFR2	22	n/a	n/a	n/a	21	n/a	n/a	n/a	n/a
3225.21	n/a	WORD	1612605	wordpools/wasnorm_wordpool_576.txt	LTP279	ltpFR2	22	15	ORANGE	980	n/a	n/a	0	0	0
3227.992	n/a	WORD	1613996	wordpools/wasnorm_wordpool_576.txt	LTP279	ltpFR2	22	15	MACHINE	852	n/a	n/a	0	0	0
3230.71	n/a	WORD	1615355	wordpools/wasnorm_wordpool_576.txt	LTP279	ltpFR2	22	15	ARMY	39	n/a	n/a	0	0	0
3233.18	n/a	WORD	1616590	wordpools/wasnorm_wordpool_576.txt	LTP279	ltpFR2	22	15	CHAPEL	280	n/a	n/a	0	0	0
3235.798	n/a	WORD	1617899	wordpools/wasnorm_wordpool_576.txt	LTP279	ltpFR2	22	15	PEDAL	1037	n/a	n/a	0	0	0
3238.336	n/a	WORD	1619168	wordpools/wasnorm_wordpool_576.txt	LTP279	ltpFR2	22	15	BIKE	125	n/a	n/a	0	0	0
3240.92	n/a	WORD	1620460	wordpools/wasnorm_wordpool_576.txt	LTP279	ltpFR2	22	15	WORLD	1622	n/a	n/a	0	0	0
3243.656	n/a	WORD	1621828	wordpools/wasnorm_wordpool_576.txt	LTP279	ltpFR2	22	15	TORTOISE	1486	n/a	n/a	0	0	0
3246.174	n/a	WORD	1623087	wordpools/wasnorm_wordpool_576.txt	LTP279	ltpFR2	22	15	BUNNY	198	n/a	n/a	0	0	0
3248.692	n/a	WORD	1624346	wordpools/wasnorm_wordpool_576.txt	LTP279	ltpFR2	22	15	DUST	508	n/a	n/a	0	0	0
3251.294	n/a	WORD	1625647	wordpools/wasnorm_wordpool_576.txt	LTP279	ltpFR2	22	15	SHOVEL	1295	n/a	n/a	0	0	0
3254.114	n/a	WORD	1627057	wordpools/wasnorm_wordpool_576.txt	LTP279	ltpFR2	22	15	NOTEBOOK	959	n/a	n/a	0	0	0
3256.916	n/a	WORD	1628458	wordpools/wasnorm_wordpool_576.txt	LTP279	ltpFR2	22	15	COLONEL	348	n/a	n/a	0	0	0
3259.552	n/a	WORD	1629776	wordpools/wasnorm_wordpool_576.txt	LTP279	ltpFR2	22	15	BARREL	91	n/a	n/a	0	0	0
3262.172	n/a	WORD	1631086	wordpools/wasnorm_wordpool_576.txt	LTP279	ltpFR2	22	15	MISTER	901	n/a	n/a	0	0	0
3264.64	n/a	WORD	1632320	wordpools/wasnorm_wordpool_576.txt	LTP279	ltpFR2	22	15	DANDRUFF	439	n/a	n/a	0	0	0
3267.258	n/a	WORD	1633629	wordpools/wasnorm_wordpool_576.txt	LTP279	ltpFR2	22	15	GRIZZLY	662	n/a	n/a	0	0	0
3270.028	n/a	WORD	1635014	wordpools/wasnorm_wordpool_576.txt	LTP279	ltpFR2	22	15	EYELASH	546	n/a	n/a	0	0	0
3272.778	n/a	WORD	1636389	wordpools/wasnorm_wordpool_576.txt	LTP279	ltpFR2	22	15	TWEEZERS	1526	n/a	n/a	0	0	0
3275.348	n/a	WORD	1637674	wordpools/wasnorm_wordpool_576.txt	LTP279	ltpFR2	22	15	GROUND	666	n/a	n/a	0	0	0
3277.952	n/a	WORD	1638976	wordpools/wasnorm_wordpool_576.txt	LTP279	ltpFR2	22	15	JELLY	755	n/a	n/a	0	0	0
3280.436	n/a	WORD	1640218	wordpools/wasnorm_wordpool_576.txt	LTP279	ltpFR2	22	15	SCOTCH	1251	n/a	n/a	0	0	0
3283.154	n/a	WORD	1641577	wordpools/wasnorm_wordpool_576.txt	LTP279	ltpFR2	22	15	GLASS	639	n/a	n/a	0	0	0
3285.706	n/a	WORD	1642853	wordpools/wasnorm_wordpool_576.txt	LTP279	ltpFR2	22	15	TUNNEL	1519	n/a	n/a	0	0	0
3287.31	n/a	START	1643655	n/a	LTP279	ltpFR2	22	n/a	n/a	n/a	22	n/a	n/a	n/a	n/a
3288.188	n/a	DISTRACTOR	1644094	n/a	LTP279	ltpFR2	22	15	n/a	n/a	n/a	n/a	0	0	0
3288.192	n/a	PROB	1644096	n/a	LTP279	ltpFR2	22	n/a	n/a	n/a	22	12	6	4	2
3290.092	n/a	PROB	1645046	n/a	LTP279	ltpFR2	22	n/a	n/a	n/a	22	11	1	9	1
3291.392	n/a	PROB	1645696	n/a	LTP279	ltpFR2	22	n/a	n/a	n/a	22	17	9	4	4
3293.13	n/a	PROB	1646565	n/a	LTP279	ltpFR2	22	n/a	n/a	n/a	22	15	9	3	3
3295.83	n/a	PROB	1647915	n/a	LTP279	ltpFR2	22	n/a	n/a	n/a	22	23	8	8	7
3297.916	n/a	PROB	1648958	n/a	LTP279	ltpFR2	22	n/a	n/a	n/a	22	14	6	3	5
3300.102	n/a	PROB	1650051	n/a	LTP279	ltpFR2	22	n/a	n/a	n/a	22	27	9	9	9
3301.384	n/a	PROB	1650692	n/a	LTP279	ltpFR2	22	n/a	n/a	n/a	22	15	5	9	1
3302.986	n/a	PROB	1651493	n/a	LTP279	ltpFR2	22	n/a	n/a	n/a	22	10	6	2	2
3304.72	n/a	PROB	1652360	n/a	LTP279	ltpFR2	22	n/a	n/a	n/a	22	18	4	9	5
3311.312	n/a	STOP	1655656	n/a	LTP279	ltpFR2	22	n/a	n/a	n/a	22	n/a	n/a	n/a	n/a
3313.062	n/a	REC_START	1656531	n/a	LTP279	ltpFR2	22	15	n/a	n/a	n/a	n/a	0	0	0
3314.1	n/a	REC_WORD	1657050	wordpools/wasnorm_wordpool_576.txt	LTP279	ltpFR2	22	15	JELLY	755	n/a	n/a	0	0	0
3314.84	n/a	REC_WORD	1657420	wordpools/wasnorm_wordpool_576.txt	LTP279	ltpFR2	22	15	SCOTCH	1251	n/a	n/a	0	0	0
3315.894	n/a	REC_WORD	1657947	wordpools/wasnorm_wordpool_576.txt	LTP279	ltpFR2	22	15	GLASS	639	n/a	n/a	0	0	0
3316.864	n/a	REC_WORD	1658432	wordpools/wasnorm_wordpool_576.txt	LTP279	ltpFR2	22	15	TUNNEL	1519	n/a	n/a	0	0	0
3318.348	n/a	REC_WORD	1659174	wordpools/wasnorm_wordpool_576.txt	LTP279	ltpFR2	22	15	CHAPEL	280	n/a	n/a	0	0	0
3319.706	n/a	REC_WORD	1659853	wordpools/wasnorm_wordpool_576.txt	LTP279	ltpFR2	22	15	ARMY	39	n/a	n/a	0	0	0
3329.548	n/a	REC_WORD	1664774	wordpools/wasnorm_wordpool_576.txt	LTP279	ltpFR2	22	15	ORANGE	980	n/a	n/a	0	0	0
3330.282	n/a	REC_WORD	1665141	wordpools/wasnorm_wordpool_576.txt	LTP279	ltpFR2	22	15	MACHINE	852	n/a	n/a	0	0	0
3334.586	n/a	REC_WORD	1667293	wordpools/wasnorm_wordpool_576.txt	LTP279	ltpFR2	22	15	BUNNY	198	n/a	n/a	0	0	0
3335.842	n/a	REC_WORD	1667921	wordpools/wasnorm_wordpool_576.txt	LTP279	ltpFR2	22	15	PEDAL	1037	n/a	n/a	0	0	0
3336.58	n/a	REC_WORD	1668290	wordpools/wasnorm_wordpool_576.txt	LTP279	ltpFR2	22	15	WORLD	1622	n/a	n/a	0	0	0
3337.366	n/a	REC_WORD	1668683	wordpools/wasnorm_wordpool_576.txt	LTP279	ltpFR2	22	15	TORTOISE	1486	n/a	n/a	0	0	0
3339.734	n/a	REC_WORD	1669867	wordpools/wasnorm_wordpool_576.txt	LTP279	ltpFR2	22	15	BUNNY	198	n/a	n/a	0	0	0
3341.898	n/a	REC_WORD	1670949	wordpools/wasnorm_wordpool_576.txt	LTP279	ltpFR2	22	15	DUST	508	n/a	n/a	0	0	0
3403.484	n/a	DISTRACTOR	1701742	n/a	LTP279	ltpFR2	22	16	n/a	n/a	n/a	n/a	0	0	0
3403.484	n/a	START	1701742	n/a	LTP279	ltpFR2	22	n/a	n/a	n/a	23	n/a	n/a	n/a	n/a
3403.5	n/a	PROB	1701750	n/a	LTP279	ltpFR2	22	n/a	n/a	n/a	23	9	1	2	6
3405.618	n/a	PROB	1702809	n/a	LTP279	ltpFR2	22	n/a	n/a	n/a	23	11	4	6	1
3407.202	n/a	PROB	1703601	n/a	LTP279	ltpFR2	22	n/a	n/a	n/a	23	16	3	8	5
3409.57	n/a	PROB	1704785	n/a	LTP279	ltpFR2	22	n/a	n/a	n/a	23	18	5	8	5
3411.056	n/a	PROB	1705528	n/a	LTP279	ltpFR2	22	n/a	n/a	n/a	23	21	5	6	9
3412.822	n/a	PROB	1706411	n/a	LTP279	ltpFR2	22	n/a	n/a	n/a	23	20	9	2	9
3414.558	n/a	PROB	1707279	n/a	LTP279	ltpFR2	22	n/a	n/a	n/a	23	18	9	8	1
3415.958	n/a	PROB	1707979	n/a	LTP279	ltpFR2	22	n/a	n/a	n/a	23	20	9	7	4
3418.262	n/a	PROB	1709131	n/a	LTP279	ltpFR2	22	n/a	n/a	n/a	23	18	3	6	9
3420.498	n/a	PROB	1710249	n/a	LTP279	ltpFR2	22	n/a	n/a	n/a	23	17	7	9	1
3423.082	n/a	PROB	1711541	n/a	LTP279	ltpFR2	22	n/a	n/a	n/a	23	8	2	5	1
3425.3	n/a	PROB	1712650	n/a	LTP279	ltpFR2	22	n/a	n/a	n/a	23	17	6	6	5
3427.142	n/a	STOP	1713571	n/a	LTP279	ltpFR2	22	n/a	n/a	n/a	23	n/a	n/a	n/a	n/a
3428.548	n/a	WORD	1714274	wordpools/wasnorm_wordpool_576.txt	LTP279	ltpFR2	22	16	PRIMATE	1123	n/a	n/a	0	0	0
3431.15	n/a	WORD	1715575	wordpools/wasnorm_wordpool_576.txt	LTP279	ltpFR2	22	16	SCULPTURE	1258	n/a	n/a	0	0	0
3433.936	n/a	WORD	1716968	wordpools/wasnorm_wordpool_576.txt	LTP279	ltpFR2	22	16	HOOD	714	n/a	n/a	0	0	0
3436.688	n/a	WORD	1718344	wordpools/wasnorm_wordpool_576.txt	LTP279	ltpFR2	22	16	SWITCH	1422	n/a	n/a	0	0	0
3439.456	n/a	WORD	1719728	wordpools/wasnorm_wordpool_576.txt	LTP279	ltpFR2	22	16	LAMP	798	n/a	n/a	0	0	0
3442.244	n/a	WORD	1721122	wordpools/wasnorm_wordpool_576.txt	LTP279	ltpFR2	22	16	JUDGE	761	n/a	n/a	0	0	0
3444.748	n/a	WORD	1722374	wordpools/wasnorm_wordpool_576.txt	LTP279	ltpFR2	22	16	TAXI	1438	n/a	n/a	0	0	0
3447.38	n/a	WORD	1723690	wordpools/wasnorm_wordpool_576.txt	LTP279	ltpFR2	22	16	MEDAL	885	n/a	n/a	0	0	0
3449.804	n/a	WORD	1724902	wordpools/wasnorm_wordpool_576.txt	LTP279	ltpFR2	22	16	BLOCKADE	137	n/a	n/a	0	0	0
3452.436	n/a	WORD	1726218	wordpools/wasnorm_wordpool_576.txt	LTP279	ltpFR2	22	16	CANAL	226	n/a	n/a	0	0	0
3455.088	n/a	WORD	1727544	wordpools/wasnorm_wordpool_576.txt	LTP279	ltpFR2	22	16	BULLET	194	n/a	n/a	0	0	0
3457.742	n/a	WORD	1728871	wordpools/wasnorm_wordpool_576.txt	LTP279	ltpFR2	22	16	ARM	38	n/a	n/a	0	0	0
3460.21	n/a	WORD	1730105	wordpools/wasnorm_wordpool_576.txt	LTP279	ltpFR2	22	16	VELVET	1555	n/a	n/a	0	0	0
3462.896	n/a	WORD	1731448	wordpools/wasnorm_wordpool_576.txt	LTP279	ltpFR2	22	16	GUITAR	670	n/a	n/a	0	0	0
3465.496	n/a	WORD	1732748	wordpools/wasnorm_wordpool_576.txt	LTP279	ltpFR2	22	16	EAGLE	512	n/a	n/a	0	0	0
3468.234	n/a	WORD	1734117	wordpools/wasnorm_wordpool_576.txt	LTP279	ltpFR2	22	16	YACHT	1629	n/a	n/a	0	0	0
3470.95	n/a	WORD	1735475	wordpools/wasnorm_wordpool_576.txt	LTP279	ltpFR2	22	16	RAFT	1159	n/a	n/a	0	0	0
3473.586	n/a	WORD	1736793	wordpools/wasnorm_wordpool_576.txt	LTP279	ltpFR2	22	16	SURVEY	1414	n/a	n/a	0	0	0
3476.356	n/a	WORD	1738178	wordpools/wasnorm_wordpool_576.txt	LTP279	ltpFR2	22	16	RIFLE	1192	n/a	n/a	0	0	0
3478.792	n/a	WORD	1739396	wordpools/wasnorm_wordpool_576.txt	LTP279	ltpFR2	22	16	APPLE	33	n/a	n/a	0	0	0
3481.46	n/a	WORD	1740730	wordpools/wasnorm_wordpool_576.txt	LTP279	ltpFR2	22	16	MARSH	874	n/a	n/a	0	0	0
3484.098	n/a	WORD	1742049	wordpools/wasnorm_wordpool_576.txt	LTP279	ltpFR2	22	16	PIGMENT	1066	n/a	n/a	0	0	0
3486.682	n/a	WORD	1743341	wordpools/wasnorm_wordpool_576.txt	LTP279	ltpFR2	22	16	FOREHEAD	592	n/a	n/a	0	0	0
3489.35	n/a	WORD	1744675	wordpools/wasnorm_wordpool_576.txt	LTP279	ltpFR2	22	16	COSTUME	383	n/a	n/a	0	0	0
3490.97	n/a	START	1745485	n/a	LTP279	ltpFR2	22	n/a	n/a	n/a	24	n/a	n/a	n/a	n/a
3491.892	n/a	DISTRACTOR	1745946	n/a	LTP279	ltpFR2	22	16	n/a	n/a	n/a	n/a	0	0	0
3491.902	n/a	PROB	1745951	n/a	LTP279	ltpFR2	22	n/a	n/a	n/a	24	17	4	4	7
3494.638	n/a	PROB	1747319	n/a	LTP279	ltpFR2	22	n/a	n/a	n/a	24	16	1	8	7
3499.642	n/a	PROB	1749821	n/a	LTP279	ltpFR2	22	n/a	n/a	n/a	24	12	4	5	3
3503.444	n/a	PROB	1751722	n/a	LTP279	ltpFR2	22	n/a	n/a	n/a	24	12	5	4	3
3505.248	n/a	PROB	1752624	n/a	LTP279	ltpFR2	22	n/a	n/a	n/a	24	8	1	6	1
3506.53	n/a	PROB	1753265	n/a	LTP279	ltpFR2	22	n/a	n/a	n/a	24	18	6	3	9
3508.864	n/a	PROB	1754432	n/a	LTP279	ltpFR2	22	n/a	n/a	n/a	24	17	6	8	3
3510.432	n/a	PROB	1755216	n/a	LTP279	ltpFR2	22	n/a	n/a	n/a	24	16	4	5	7
3514.97	n/a	STOP	1757485	n/a	LTP279	ltpFR2	22	n/a	n/a	n/a	24	n/a	n/a	n/a	n/a
3516.874	n/a	REC_START	1758437	n/a	LTP279	ltpFR2	22	16	n/a	n/a	n/a	n/a	0	0	0
3518.46	n/a	REC_WORD	1759230	wordpools/wasnorm_wordpool_576.txt	LTP279	ltpFR2	22	16	FOREHEAD	592	n/a	n/a	0	0	0
3519.274	n/a	REC_WORD	1759637	wordpools/wasnorm_wordpool_576.txt	LTP279	ltpFR2	22	16	COSTUME	383	n/a	n/a	0	0	0
3533.866	n/a	REC_WORD	1766933	wordpools/wasnorm_wordpool_576.txt	LTP279	ltpFR2	22	16	EAGLE	512	n/a	n/a	0	0	0
3535.034	n/a	REC_WORD	1767517	wordpools/wasnorm_wordpool_576.txt	LTP279	ltpFR2	22	16	YACHT	1629	n/a	n/a	0	0	0
3536.354	n/a	REC_WORD	1768177	wordpools/wasnorm_wordpool_576.txt	LTP279	ltpFR2	22	16	VELVET	1555	n/a	n/a	0	0	0
3537.308	n/a	REC_WORD	1768654	wordpools/wasnorm_wordpool_576.txt	LTP279	ltpFR2	22	16	GUITAR	670	n/a	n/a	0	0	0
3537.944	n/a	REC_WORD	1768972	wordpools/wasnorm_wordpool_576.txt	LTP279	ltpFR2	22	16	HAND	683	n/a	n/a	0	0	0
3593.406	n/a	REST_REWET	1796703	n/a	LTP279	ltpFR2	22	16	n/a	n/a	n/a	n/a	0	0	0
3758.798	n/a	WORD	1879399	wordpools/wasnorm_wordpool_576.txt	LTP279	ltpFR2	22	17	ACTOR	5	n/a	n/a	0	0	0
3761.482	n/a	WORD	1880741	wordpools/wasnorm_wordpool_576.txt	LTP279	ltpFR2	22	17	BRANCH	168	n/a	n/a	0	0	0
3764.204	n/a	WORD	1882102	wordpools/wasnorm_wordpool_576.txt	LTP279	ltpFR2	22	17	LIPSTICK	829	n/a	n/a	0	0	0
3767.036	n/a	WORD	1883518	wordpools/wasnorm_wordpool_576.txt	LTP279	ltpFR2	22	17	VICTIM	1562	n/a	n/a	0	0	0
3769.574	n/a	WORD	1884787	wordpools/wasnorm_wordpool_576.txt	LTP279	ltpFR2	22	17	HEART	697	n/a	n/a	0	0	0
3772.194	n/a	WORD	1886097	wordpools/wasnorm_wordpool_576.txt	LTP279	ltpFR2	22	17	MARROW	872	n/a	n/a	0	0	0
3774.628	n/a	WORD	1887314	wordpools/wasnorm_wordpool_576.txt	LTP279	ltpFR2	22	17	SPOUSE	1358	n/a	n/a	0	0	0
3777.246	n/a	WORD	1888623	wordpools/wasnorm_wordpool_576.txt	LTP279	ltpFR2	22	17	WAGON	1578	n/a	n/a	0	0	0
3779.848	n/a	WORD	1889924	wordpools/wasnorm_wordpool_576.txt	LTP279	ltpFR2	22	17	SUSPECT	1415	n/a	n/a	0	0	0
3782.354	n/a	WORD	1891177	wordpools/wasnorm_wordpool_576.txt	LTP279	ltpFR2	22	17	BOUQUET	157	n/a	n/a	0	0	0
3785.156	n/a	WORD	1892578	wordpools/wasnorm_wordpool_576.txt	LTP279	ltpFR2	22	17	CELLAR	267	n/a	n/a	0	0	0
3787.838	n/a	WORD	1893919	wordpools/wasnorm_wordpool_576.txt	LTP279	ltpFR2	22	17	BASEMENT	94	n/a	n/a	0	0	0
3790.342	n/a	WORD	1895171	wordpools/wasnorm_wordpool_576.txt	LTP279	ltpFR2	22	17	UNCLE	1536	n/a	n/a	0	0	0
3792.876	n/a	WORD	1896438	wordpools/wasnorm_wordpool_576.txt	LTP279	ltpFR2	22	17	PARENT	1013	n/a	n/a	0	0	0
3795.61	n/a	WORD	1897805	wordpools/wasnorm_wordpool_576.txt	LTP279	ltpFR2	22	17	SHORTS	1293	n/a	n/a	0	0	0
3798.318	n/a	WORD	1899159	wordpools/wasnorm_wordpool_576.txt	LTP279	ltpFR2	22	17	MOP	916	n/a	n/a	0	0	0
3800.848	n/a	WORD	1900424	wordpools/wasnorm_wordpool_576.txt	LTP279	ltpFR2	22	17	SUBWAY	1400	n/a	n/a	0	0	0
3803.352	n/a	WORD	1901676	wordpools/wasnorm_wordpool_576.txt	LTP279	ltpFR2	22	17	PEBBLE	1035	n/a	n/a	0	0	0
3806.054	n/a	WORD	1903027	wordpools/wasnorm_wordpool_576.txt	LTP279	ltpFR2	22	17	PACKAGE	997	n/a	n/a	0	0	0
3808.706	n/a	WORD	1904353	wordpools/wasnorm_wordpool_576.txt	LTP279	ltpFR2	22	17	BOX	159	n/a	n/a	0	0	0
3811.208	n/a	WORD	1905604	wordpools/wasnorm_wordpool_576.txt	LTP279	ltpFR2	22	17	INFANT	737	n/a	n/a	0	0	0
3813.624	n/a	WORD	1906812	wordpools/wasnorm_wordpool_576.txt	LTP279	ltpFR2	22	17	ACTRESS	6	n/a	n/a	0	0	0
3816.246	n/a	WORD	1908123	wordpools/wasnorm_wordpool_576.txt	LTP279	ltpFR2	22	17	CANYON	235	n/a	n/a	0	0	0
3819.064	n/a	WORD	1909532	wordpools/wasnorm_wordpool_576.txt	LTP279	ltpFR2	22	17	LEOPARD	812	n/a	n/a	0	0	0
3820.67	n/a	START	1910335	n/a	LTP279	ltpFR2	22	n/a	n/a	n/a	25	n/a	n/a	n/a	n/a
3821.704	n/a	DISTRACTOR	1910852	n/a	LTP279	ltpFR2	22	17	n/a	n/a	n/a	n/a	0	0	0
3821.714	n/a	PROB	1910857	n/a	LTP279	ltpFR2	22	n/a	n/a	n/a	25	9	2	2	5
3823.932	n/a	PROB	1911966	n/a	LTP279	ltpFR2	22	n/a	n/a	n/a	25	13	8	4	1
3826.352	n/a	PROB	1913176	n/a	LTP279	ltpFR2	22	n/a	n/a	n/a	25	13	9	3	1
3828.838	n/a	PROB	1914419	n/a	LTP279	ltpFR2	22	n/a	n/a	n/a	25	13	4	7	2
3831.588	n/a	PROB	1915794	n/a	LTP279	ltpFR2	22	n/a	n/a	n/a	25	14	3	7	4
3833.756	n/a	PROB	1916878	n/a	LTP279	ltpFR2	22	n/a	n/a	n/a	25	25	9	7	9
3836.51	n/a	PROB	1918255	n/a	LTP279	ltpFR2	22	n/a	n/a	n/a	25	14	1	9	4
3838.494	n/a	PROB	1919247	n/a	LTP279	ltpFR2	22	n/a	n/a	n/a	25	18	6	8	4
3841.014	n/a	PROB	1920507	n/a	LTP279	ltpFR2	22	n/a	n/a	n/a	25	7	1	4	2
3844.672	n/a	STOP	1922336	n/a	LTP279	ltpFR2	22	n/a	n/a	n/a	25	n/a	n/a	n/a	n/a
3846.6	n/a	REC_START	1923300	n/a	LTP279	ltpFR2	22	17	n/a	n/a	n/a	n/a	0	0	0
3847.266	n/a	REC_WORD	1923633	wordpools/wasnorm_wordpool_576.txt	LTP279	ltpFR2	22	17	ACTRESS	6	n/a	n/a	0	0	0
3848.044	n/a	REC_WORD	1924022	wordpools/wasnorm_wordpool_576.txt	LTP279	ltpFR2	22	17	CANYON	235	n/a	n/a	0	0	0
3848.858	n/a	REC_WORD	1924429	wordpools/wasnorm_wordpool_576.txt	LTP279	ltpFR2	22	17	LEOPARD	812	n/a	n/a	0	0	0
3849.988	n/a	REC_WORD	1924994	wordpools/wasnorm_wordpool_576.txt	LTP279	ltpFR2	22	17	ACTOR	5	n/a	n/a	0	0	0
3851.572	n/a	REC_WORD	1925786	wordpools/wasnorm_wordpool_576.txt	LTP279	ltpFR2	22	17	BRANCH	168	n/a	n/a	0	0	0
3852.984	n/a	REC_WORD	1926492	wordpools/wasnorm_wordpool_576.txt	LTP279	ltpFR2	22	17	LIPSTICK	829	n/a	n/a	0	0	0
3937.04	n/a	DISTRACTOR	1968520	n/a	LTP279	ltpFR2	22	18	n/a	n/a	n/a	n/a	0	0	0
3937.042	n/a	START	1968521	n/a	LTP279	ltpFR2	22	n/a	n/a	n/a	26	n/a	n/a	n/a	n/a
3937.056	n/a	PROB	1968528	n/a	LTP279	ltpFR2	22	n/a	n/a	n/a	26	14	9	1	4
3938.47	n/a	PROB	1969235	n/a	LTP279	ltpFR2	22	n/a	n/a	n/a	26	17	6	2	9
3940.256	n/a	PROB	1970128	n/a	LTP279	ltpFR2	22	n/a	n/a	n/a	26	10	8	1	1
3941.542	n/a	PROB	1970771	n/a	LTP279	ltpFR2	22	n/a	n/a	n/a	26	18	3	8	7
3943.374	n/a	PROB	1971687	n/a	LTP279	ltpFR2	22	n/a	n/a	n/a	26	12	5	1	6
3945.426	n/a	PROB	1972713	n/a	LTP279	ltpFR2	22	n/a	n/a	n/a	26	21	8	4	9
3947.412	n/a	PROB	1973706	n/a	LTP279	ltpFR2	22	n/a	n/a	n/a	26	17	3	8	4
3949.048	n/a	PROB	1974524	n/a	LTP279	ltpFR2	22	n/a	n/a	n/a	26	13	1	5	7
3950.964	n/a	PROB	1975482	n/a	LTP279	ltpFR2	22	n/a	n/a	n/a	26	12	2	3	7
3952.382	n/a	PROB	1976191	n/a	LTP279	ltpFR2	22	n/a	n/a	n/a	26	13	4	3	6
3954.136	n/a	PROB	1977068	n/a	LTP279	ltpFR2	22	n/a	n/a	n/a	26	21	9	3	9
3955.838	n/a	PROB	1977919	n/a	LTP279	ltpFR2	22	n/a	n/a	n/a	26	19	9	8	2
3957.47	n/a	PROB	1978735	n/a	LTP279	ltpFR2	22	n/a	n/a	n/a	26	15	1	8	6
3961.04	n/a	STOP	1980520	n/a	LTP279	ltpFR2	22	n/a	n/a	n/a	26	n/a	n/a	n/a	n/a
3962.226	n/a	WORD	1981113	wordpools/wasnorm_wordpool_576.txt	LTP279	ltpFR2	22	18	SCALPEL	1243	n/a	n/a	0	0	0
3964.944	n/a	WORD	1982472	wordpools/wasnorm_wordpool_576.txt	LTP279	ltpFR2	22	18	CONTRACT	368	n/a	n/a	0	0	0
3967.48	n/a	WORD	1983740	wordpools/wasnorm_wordpool_576.txt	LTP279	ltpFR2	22	18	BODY	145	n/a	n/a	0	0	0
3970.316	n/a	WORD	1985158	wordpools/wasnorm_wordpool_576.txt	LTP279	ltpFR2	22	18	BOARD	143	n/a	n/a	0	0	0
3973.102	n/a	WORD	1986551	wordpools/wasnorm_wordpool_576.txt	LTP279	ltpFR2	22	18	INMATE	738	n/a	n/a	0	0	0
3975.904	n/a	WORD	1987952	wordpools/wasnorm_wordpool_576.txt	LTP279	ltpFR2	22	18	CABBAGE	210	n/a	n/a	0	0	0
3978.388	n/a	WORD	1989194	wordpools/wasnorm_wordpool_576.txt	LTP279	ltpFR2	22	18	PLATE	1086	n/a	n/a	0	0	0
3980.99	n/a	WORD	1990495	wordpools/wasnorm_wordpool_576.txt	LTP279	ltpFR2	22	18	CONVICT	371	n/a	n/a	0	0	0
3983.56	n/a	WORD	1991780	wordpools/wasnorm_wordpool_576.txt	LTP279	ltpFR2	22	18	MAMMAL	861	n/a	n/a	0	0	0
3986.062	n/a	WORD	1993031	wordpools/wasnorm_wordpool_576.txt	LTP279	ltpFR2	22	18	PARSLEY	1016	n/a	n/a	0	0	0
3988.614	n/a	WORD	1994307	wordpools/wasnorm_wordpool_576.txt	LTP279	ltpFR2	22	18	WAITRESS	1581	n/a	n/a	0	0	0
3991.316	n/a	WORD	1995658	wordpools/wasnorm_wordpool_576.txt	LTP279	ltpFR2	22	18	GRAVE	658	n/a	n/a	0	0	0
3993.902	n/a	WORD	1996951	wordpools/wasnorm_wordpool_576.txt	LTP279	ltpFR2	22	18	GRAPE	654	n/a	n/a	0	0	0
3996.47	n/a	WORD	1998235	wordpools/wasnorm_wordpool_576.txt	LTP279	ltpFR2	22	18	BEAST	108	n/a	n/a	0	0	0
3999.274	n/a	WORD	1999637	wordpools/wasnorm_wordpool_576.txt	LTP279	ltpFR2	22	18	GAZELLE	628	n/a	n/a	0	0	0
4001.94	n/a	WORD	2000970	wordpools/wasnorm_wordpool_576.txt	LTP279	ltpFR2	22	18	WAITER	1580	n/a	n/a	0	0	0
4004.394	n/a	WORD	2002197	wordpools/wasnorm_wordpool_576.txt	LTP279	ltpFR2	22	18	HERO	706	n/a	n/a	0	0	0
4007.112	n/a	WORD	2003556	wordpools/wasnorm_wordpool_576.txt	LTP279	ltpFR2	22	18	SLIDE	1326	n/a	n/a	0	0	0
4009.598	n/a	WORD	2004799	wordpools/wasnorm_wordpool_576.txt	LTP279	ltpFR2	22	18	HUSBAND	728	n/a	n/a	0	0	0
4012.216	n/a	WORD	2006108	wordpools/wasnorm_wordpool_576.txt	LTP279	ltpFR2	22	18	BLACKBOARD	133	n/a	n/a	0	0	0
4014.902	n/a	WORD	2007451	wordpools/wasnorm_wordpool_576.txt	LTP279	ltpFR2	22	18	JAPAN	749	n/a	n/a	0	0	0
4017.44	n/a	WORD	2008720	wordpools/wasnorm_wordpool_576.txt	LTP279	ltpFR2	22	18	ZEBRA	1635	n/a	n/a	0	0	0
4019.922	n/a	WORD	2009961	wordpools/wasnorm_wordpool_576.txt	LTP279	ltpFR2	22	18	CARRIAGE	248	n/a	n/a	0	0	0
4022.358	n/a	WORD	2011179	wordpools/wasnorm_wordpool_576.txt	LTP279	ltpFR2	22	18	EUROPE	541	n/a	n/a	0	0	0
4023.976	n/a	START	2011988	n/a	LTP279	ltpFR2	22	n/a	n/a	n/a	27	n/a	n/a	n/a	n/a
4025.16	n/a	DISTRACTOR	2012580	n/a	LTP279	ltpFR2	22	18	n/a	n/a	n/a	n/a	0	0	0
4025.176	n/a	PROB	2012588	n/a	LTP279	ltpFR2	22	n/a	n/a	n/a	27	7	3	1	3
4026.794	n/a	PROB	2013397	n/a	LTP279	ltpFR2	22	n/a	n/a	n/a	27	17	8	7	2
4028.912	n/a	PROB	2014456	n/a	LTP279	ltpFR2	22	n/a	n/a	n/a	27	12	4	6	2
4030.696	n/a	PROB	2015348	n/a	LTP279	ltpFR2	22	n/a	n/a	n/a	27	16	3	8	5
4033.216	n/a	PROB	2016608	n/a	LTP279	ltpFR2	22	n/a	n/a	n/a	27	21	6	8	7
4035.916	n/a	PROB	2017958	n/a	LTP279	ltpFR2	22	n/a	n/a	n/a	27	17	5	8	4
4038.17	n/a	PROB	2019085	n/a	LTP279	ltpFR2	22	n/a	n/a	n/a	27	10	6	2	2
4039.638	n/a	PROB	2019819	n/a	LTP279	ltpFR2	22	n/a	n/a	n/a	27	14	9	4	1
4041.256	n/a	PROB	2020628	n/a	LTP279	ltpFR2	22	n/a	n/a	n/a	27	18	2	8	8
4042.456	n/a	PROB	2021228	n/a	LTP279	ltpFR2	22	n/a	n/a	n/a	27	11	4	6	1
4043.69	n/a	PROB	2021845	n/a	LTP279	ltpFR2	22	n/a	n/a	n/a	27	11	2	1	8
4045.058	n/a	PROB	2022529	n/a	LTP279	ltpFR2	22	n/a	n/a	n/a	27	16	7	8	1
4046.896	n/a	STOP	2023448	n/a	LTP279	ltpFR2	22	n/a	n/a	n/a	27	n/a	n/a	n/a	n/a
4049.78	n/a	REC_START	2024890	n/a	LTP279	ltpFR2	22	18	n/a	n/a	n/a	n/a	0	0	0
4050.814	n/a	REC_WORD	2025407	wordpools/wasnorm_wordpool_576.txt	LTP279	ltpFR2	22	18	ZEBRA	1635	n/a	n/a	0	0	0
4051.848	n/a	REC_WORD	2025924	wordpools/wasnorm_wordpool_576.txt	LTP279	ltpFR2	22	18	CARRIAGE	248	n/a	n/a	0	0	0
4053.182	n/a	REC_WORD	2026591	wordpools/wasnorm_wordpool_576.txt	LTP279	ltpFR2	22	18	EUROPE	541	n/a	n/a	0	0	0
4054.966	n/a	REC_WORD	2027483	wordpools/wasnorm_wordpool_576.txt	LTP279	ltpFR2	22	18	GRAPE	654	n/a	n/a	0	0	0
4056.106	n/a	REC_WORD	2028053	wordpools/wasnorm_wordpool_576.txt	LTP279	ltpFR2	22	18	BEAST	108	n/a	n/a	0	0	0
4056.982	n/a	REC_WORD	2028491	wordpools/wasnorm_wordpool_576.txt	LTP279	ltpFR2	22	18	GAZELLE	628	n/a	n/a	0	0	0
4058.924	n/a	REC_WORD	2029462	wordpools/wasnorm_wordpool_576.txt	LTP279	ltpFR2	22	18	HERO	706	n/a	n/a	0	0	0
4060.204	n/a	REC_WORD	2030102	wordpools/wasnorm_wordpool_576.txt	LTP279	ltpFR2	22	18	SLIDE	1326	n/a	n/a	0	0	0
4062.262	n/a	REC_WORD	2031131	wordpools/wasnorm_wordpool_576.txt	LTP279	ltpFR2	22	18	WAITRESS	1581	n/a	n/a	0	0	0
4140.218	n/a	WORD	2070109	wordpools/wasnorm_wordpool_576.txt	LTP279	ltpFR2	22	19	CHEMIST	292	n/a	n/a	0	0	0
4142.746	n/a	WORD	2071373	wordpools/wasnorm_wordpool_576.txt	LTP279	ltpFR2	22	19	LEADER	807	n/a	n/a	0	0	0
4145.366	n/a	WORD	2072683	wordpools/wasnorm_wordpool_576.txt	LTP279	ltpFR2	22	19	YOLK	1633	n/a	n/a	0	0	0
4147.784	n/a	WORD	2073892	wordpools/wasnorm_wordpool_576.txt	LTP279	ltpFR2	22	19	SHELF	1280	n/a	n/a	0	0	0
4150.244	n/a	WORD	2075122	wordpools/wasnorm_wordpool_576.txt	LTP279	ltpFR2	22	19	PASSAGE	1019	n/a	n/a	0	0	0
4152.844	n/a	WORD	2076422	wordpools/wasnorm_wordpool_576.txt	LTP279	ltpFR2	22	19	CRICKET	408	n/a	n/a	0	0	0
4155.462	n/a	WORD	2077731	wordpools/wasnorm_wordpool_576.txt	LTP279	ltpFR2	22	19	FRIEND	606	n/a	n/a	0	0	0
4158.044	n/a	WORD	2079022	wordpools/wasnorm_wordpool_576.txt	LTP279	ltpFR2	22	19	MARS	873	n/a	n/a	0	0	0
4160.664	n/a	WORD	2080332	wordpools/wasnorm_wordpool_576.txt	LTP279	ltpFR2	22	19	FOX	598	n/a	n/a	0	0	0
4163.338	n/a	WORD	2081669	wordpools/wasnorm_wordpool_576.txt	LTP279	ltpFR2	22	19	FLASK	576	n/a	n/a	0	0	0
4166.122	n/a	WORD	2083061	wordpools/wasnorm_wordpool_576.txt	LTP279	ltpFR2	22	19	COBRA	336	n/a	n/a	0	0	0
4168.72	n/a	WORD	2084360	wordpools/wasnorm_wordpool_576.txt	LTP279	ltpFR2	22	19	OUTLAW	989	n/a	n/a	0	0	0
4171.526	n/a	WORD	2085763	wordpools/wasnorm_wordpool_576.txt	LTP279	ltpFR2	22	19	BURGLAR	200	n/a	n/a	0	0	0
4174.224	n/a	WORD	2087112	wordpools/wasnorm_wordpool_576.txt	LTP279	ltpFR2	22	19	DOLPHIN	483	n/a	n/a	0	0	0
4176.66	n/a	WORD	2088330	wordpools/wasnorm_wordpool_576.txt	LTP279	ltpFR2	22	19	POCKET	1093	n/a	n/a	0	0	0
4179.264	n/a	WORD	2089632	wordpools/wasnorm_wordpool_576.txt	LTP279	ltpFR2	22	19	SEAL	1262	n/a	n/a	0	0	0
4181.83	n/a	WORD	2090915	wordpools/wasnorm_wordpool_576.txt	LTP279	ltpFR2	22	19	RATTLE	1170	n/a	n/a	0	0	0
4184.6	n/a	WORD	2092300	wordpools/wasnorm_wordpool_576.txt	LTP279	ltpFR2	22	19	TUTU	1524	n/a	n/a	0	0	0
4187.068	n/a	WORD	2093534	wordpools/wasnorm_wordpool_576.txt	LTP279	ltpFR2	22	19	CASHEW	253	n/a	n/a	0	0	0
4189.756	n/a	WORD	2094878	wordpools/wasnorm_wordpool_576.txt	LTP279	ltpFR2	22	19	CITRUS	313	n/a	n/a	0	0	0
4192.208	n/a	WORD	2096104	wordpools/wasnorm_wordpool_576.txt	LTP279	ltpFR2	22	19	BISON	131	n/a	n/a	0	0	0
4194.676	n/a	WORD	2097338	wordpools/wasnorm_wordpool_576.txt	LTP279	ltpFR2	22	19	DONKEY	484	n/a	n/a	0	0	0
4197.162	n/a	WORD	2098581	wordpools/wasnorm_wordpool_576.txt	LTP279	ltpFR2	22	19	HEADBAND	696	n/a	n/a	0	0	0
4199.846	n/a	WORD	2099923	wordpools/wasnorm_wordpool_576.txt	LTP279	ltpFR2	22	19	SOFTBALL	1343	n/a	n/a	0	0	0
4201.466	n/a	START	2100733	n/a	LTP279	ltpFR2	22	n/a	n/a	n/a	28	n/a	n/a	n/a	n/a
4202.63	n/a	DISTRACTOR	2101315	n/a	LTP279	ltpFR2	22	19	n/a	n/a	n/a	n/a	0	0	0
4202.65	n/a	PROB	2101325	n/a	LTP279	ltpFR2	22	n/a	n/a	n/a	28	23	6	8	9
4206.17	n/a	PROB	2103085	n/a	LTP279	ltpFR2	22	n/a	n/a	n/a	28	20	9	6	5
4207.854	n/a	PROB	2103927	n/a	LTP279	ltpFR2	22	n/a	n/a	n/a	28	23	7	7	9
4211.258	n/a	PROB	2105629	n/a	LTP279	ltpFR2	22	n/a	n/a	n/a	28	18	9	3	6
4213.658	n/a	PROB	2106829	n/a	LTP279	ltpFR2	22	n/a	n/a	n/a	28	19	7	5	6
4215.262	n/a	PROB	2107631	n/a	LTP279	ltpFR2	22	n/a	n/a	n/a	28	17	5	9	3
4217.162	n/a	PROB	2108581	n/a	LTP279	ltpFR2	22	n/a	n/a	n/a	28	22	8	6	8
4219.696	n/a	PROB	2109848	n/a	LTP279	ltpFR2	22	n/a	n/a	n/a	28	19	6	4	9
4222.034	n/a	PROB	2111017	n/a	LTP279	ltpFR2	22	n/a	n/a	n/a	28	19	7	5	7
4223.668	n/a	PROB	2111834	n/a	LTP279	ltpFR2	22	n/a	n/a	n/a	28	13	5	6	3
4225.336	n/a	STOP	2112668	n/a	LTP279	ltpFR2	22	n/a	n/a	n/a	28	n/a	n/a	n/a	n/a
4227.254	n/a	REC_START	2113627	n/a	LTP279	ltpFR2	22	19	n/a	n/a	n/a	n/a	0	0	0
4227.358	n/a	REC_WORD	2113679	wordpools/wasnorm_wordpool_576.txt	LTP279	ltpFR2	22	19	CITRUS	313	n/a	n/a	0	0	0
4228.252	n/a	REC_WORD	2114126	wordpools/wasnorm_wordpool_576.txt	LTP279	ltpFR2	22	19	BISON	131	n/a	n/a	0	0	0
4228.942	n/a	REC_WORD	2114471	wordpools/wasnorm_wordpool_576.txt	LTP279	ltpFR2	22	19	DONKEY	484	n/a	n/a	0	0	0
4229.492	n/a	REC_WORD	2114746	wordpools/wasnorm_wordpool_576.txt	LTP279	ltpFR2	22	19	SOFTBALL	1343	n/a	n/a	0	0	0
4230.31	n/a	REC_WORD	2115155	wordpools/wasnorm_wordpool_576.txt	LTP279	ltpFR2	22	19	HEADBAND	696	n/a	n/a	0	0	0
4317.684	n/a	DISTRACTOR	2158842	n/a	LTP279	ltpFR2	22	20	n/a	n/a	n/a	n/a	0	0	0
4317.684	n/a	START	2158842	n/a	LTP279	ltpFR2	22	n/a	n/a	n/a	29	n/a	n/a	n/a	n/a
4317.698	n/a	PROB	2158849	n/a	LTP279	ltpFR2	22	n/a	n/a	n/a	29	8	3	2	3
4319.328	n/a	PROB	2159664	n/a	LTP279	ltpFR2	22	n/a	n/a	n/a	29	27	9	8	9
4321.912	n/a	PROB	2160956	n/a	LTP279	ltpFR2	22	n/a	n/a	n/a	29	8	1	5	2
4323.564	n/a	PROB	2161782	n/a	LTP279	ltpFR2	22	n/a	n/a	n/a	29	13	7	3	3
