onset	duration	trial_type	sample	stim_file	subject	experiment	session	trial	task	item_name	item_num	recog_conf	resp	color_b	color_g	color_r	case	font
373.726	n/a	SESS_START	186863	n/a	LTP267	ltpFR	6	n/a	n/a	n/a	n/a	5	n/a	n/a	n/a	n/a	n/a	n/a
442.012	n/a	WORD	221006	wordpools/wasnorm_wordpool_less_exclusions.txt	LTP267	ltpFR	6	1	0	PAWN	1030	n/a	0	1	0.412841796875	0.57763671875	lower	../fonts/zerothre.ttf
446.166	n/a	WORD	223083	wordpools/wasnorm_wordpool_less_exclusions.txt	LTP267	ltpFR	6	1	0	PELICAN	1039	n/a	1	1	0.412841796875	0.57763671875	lower	../fonts/zerothre.ttf
450.182	n/a	WORD	225091	wordpools/wasnorm_wordpool_less_exclusions.txt	LTP267	ltpFR	6	1	0	KIDNEY	776	n/a	1	1	0.412841796875	0.57763671875	lower	../fonts/zerothre.ttf
454.342	n/a	WORD	227171	wordpools/wasnorm_wordpool_less_exclusions.txt	LTP267	ltpFR	6	1	1	DIVER	476	n/a	1	0	0.5869140625	0.422607421875	upper	../fonts/amplitud.ttf
458.196	n/a	WORD	229098	wordpools/wasnorm_wordpool_less_exclusions.txt	LTP267	ltpFR	6	1	1	TUBE	1516	n/a	0	0	0.5869140625	0.422607421875	upper	../fonts/amplitud.ttf
462.312	n/a	WORD	231156	wordpools/wasnorm_wordpool_less_exclusions.txt	LTP267	ltpFR	6	1	1	CHAUFFEUR	283	n/a	1	0	0.5869140625	0.422607421875	upper	../fonts/amplitud.ttf
466.242	n/a	WORD	233121	wordpools/wasnorm_wordpool_less_exclusions.txt	LTP267	ltpFR	6	1	1	CARDINAL	244	n/a	1	0	0.5869140625	0.422607421875	upper	../fonts/amplitud.ttf
470.092	n/a	WORD	235046	wordpools/wasnorm_wordpool_less_exclusions.txt	LTP267	ltpFR	6	1	0	CLIFF	322	n/a	1	1	0.412841796875	0.57763671875	lower	../fonts/zerothre.ttf
474.058	n/a	WORD	237029	wordpools/wasnorm_wordpool_less_exclusions.txt	LTP267	ltpFR	6	1	0	SLIDE	1326	n/a	1	1	0.412841796875	0.57763671875	lower	../fonts/zerothre.ttf
478.018	n/a	WORD	239009	wordpools/wasnorm_wordpool_less_exclusions.txt	LTP267	ltpFR	6	1	1	MOON	914	n/a	0	0	0.5869140625	0.422607421875	upper	../fonts/amplitud.ttf
481.87	n/a	WORD	240935	wordpools/wasnorm_wordpool_less_exclusions.txt	LTP267	ltpFR	6	1	1	BACKBONE	66	n/a	0	0	0.5869140625	0.422607421875	upper	../fonts/amplitud.ttf
485.886	n/a	WORD	242943	wordpools/wasnorm_wordpool_less_exclusions.txt	LTP267	ltpFR	6	1	1	PIPE	1073	n/a	0	0	0.5869140625	0.422607421875	upper	../fonts/amplitud.ttf
489.896	n/a	WORD	244948	wordpools/wasnorm_wordpool_less_exclusions.txt	LTP267	ltpFR	6	1	1	NICOTINE	951	n/a	0	0	0.5869140625	0.422607421875	upper	../fonts/amplitud.ttf
493.962	n/a	WORD	246981	wordpools/wasnorm_wordpool_less_exclusions.txt	LTP267	ltpFR	6	1	0	DIME	466	n/a	0	1	0.412841796875	0.57763671875	lower	../fonts/zerothre.ttf
498.016	n/a	WORD	249008	wordpools/wasnorm_wordpool_less_exclusions.txt	LTP267	ltpFR	6	1	0	QUAIL	1147	n/a	0	1	0.412841796875	0.57763671875	lower	../fonts/zerothre.ttf
501.992	n/a	WORD	250996	wordpools/wasnorm_wordpool_less_exclusions.txt	LTP267	ltpFR	6	1	0	CORAL	378	n/a	0	1	0.412841796875	0.57763671875	lower	../fonts/zerothre.ttf
507.932	n/a	REC_START	253966	n/a	LTP267	ltpFR	6	1	n/a	n/a	n/a	n/a	n/a	n/a	n/a	n/a	n/a	n/a
508.558	n/a	REC_WORD	254279	wordpools/wasnorm_wordpool_less_exclusions.txt	LTP267	ltpFR	6	1	1	MOON	914	n/a	0	n/a	n/a	n/a	n/a	n/a
509.318	n/a	REC_WORD	254659	wordpools/wasnorm_wordpool_less_exclusions.txt	LTP267	ltpFR	6	1	1	BACKBONE	66	n/a	0	n/a	n/a	n/a	n/a	n/a
510.24	n/a	REC_WORD	255120	wordpools/wasnorm_wordpool_less_exclusions.txt	LTP267	ltpFR	6	1	1	NICOTINE	951	n/a	0	n/a	n/a	n/a	n/a	n/a
511.29	n/a	REC_WORD	255645	wordpools/wasnorm_wordpool_less_exclusions.txt	LTP267	ltpFR	6	1	n/a	PIKE	1067	n/a	n/a	n/a	n/a	n/a	n/a	n/a
512.836	n/a	REC_WORD	256418	wordpools/wasnorm_wordpool_less_exclusions.txt	LTP267	ltpFR	6	1	1	PIPE	1073	n/a	0	n/a	n/a	n/a	n/a	n/a
514.01	n/a	REC_WORD	257005	wordpools/wasnorm_wordpool_less_exclusions.txt	LTP267	ltpFR	6	1	0	QUAIL	1147	n/a	0	n/a	n/a	n/a	n/a	n/a
518.76	n/a	REC_WORD	259380	wordpools/wasnorm_wordpool_less_exclusions.txt	LTP267	ltpFR	6	1	0	PELICAN	1039	n/a	1	n/a	n/a	n/a	n/a	n/a
519.682	n/a	REC_WORD_VV	259841	wordpools/wasnorm_wordpool_less_exclusions.txt	LTP267	ltpFR	6	1	n/a	<>	-1	n/a	n/a	n/a	n/a	n/a	n/a	n/a
520.7	n/a	REC_WORD	260350	wordpools/wasnorm_wordpool_less_exclusions.txt	LTP267	ltpFR	6	1	1	CHAUFFEUR	283	n/a	1	n/a	n/a	n/a	n/a	n/a
526.872	n/a	REC_WORD	263436	wordpools/wasnorm_wordpool_less_exclusions.txt	LTP267	ltpFR	6	1	n/a	NET	946	n/a	n/a	n/a	n/a	n/a	n/a	n/a
531.42	n/a	REC_WORD	265710	wordpools/wasnorm_wordpool_less_exclusions.txt	LTP267	ltpFR	6	1	0	DIME	466	n/a	0	n/a	n/a	n/a	n/a	n/a
534.406	n/a	REC_WORD	267203	wordpools/wasnorm_wordpool_less_exclusions.txt	LTP267	ltpFR	6	1	0	SLIDE	1326	n/a	1	n/a	n/a	n/a	n/a	n/a
538.294	n/a	REC_WORD	269147	wordpools/wasnorm_wordpool_less_exclusions.txt	LTP267	ltpFR	6	1	0	CLIFF	322	n/a	1	n/a	n/a	n/a	n/a	n/a
612.67	n/a	WORD	306335	wordpools/wasnorm_wordpool_less_exclusions.txt	LTP267	ltpFR	6	2	1	MAT	877	n/a	0	0	0.5869140625	0.422607421875	upper	../fonts/amplitud.ttf
616.636	n/a	WORD	308318	wordpools/wasnorm_wordpool_less_exclusions.txt	LTP267	ltpFR	6	2	1	KNOB	787	n/a	0	0	0.5869140625	0.422607421875	upper	../fonts/amplitud.ttf
620.594	n/a	WORD	310297	wordpools/wasnorm_wordpool_less_exclusions.txt	LTP267	ltpFR	6	2	1	PARENT	1013	n/a	1	0	0.5869140625	0.422607421875	upper	../fonts/amplitud.ttf
624.5	n/a	WORD	312250	wordpools/wasnorm_wordpool_less_exclusions.txt	LTP267	ltpFR	6	2	0	CHIMPANZEE	302	n/a	1	1	0.412841796875	0.57763671875	lower	../fonts/zerothre.ttf
628.346	n/a	WORD	314173	wordpools/wasnorm_wordpool_less_exclusions.txt	LTP267	ltpFR	6	2	0	OPERATOR	979	n/a	0	1	0.412841796875	0.57763671875	lower	../fonts/zerothre.ttf
632.562	n/a	WORD	316281	wordpools/wasnorm_wordpool_less_exclusions.txt	LTP267	ltpFR	6	2	1	BOTTLE	153	n/a	0	0	0.5869140625	0.422607421875	upper	../fonts/amplitud.ttf
636.644	n/a	WORD	318322	wordpools/wasnorm_wordpool_less_exclusions.txt	LTP267	ltpFR	6	2	1	BASEBALL	93	n/a	0	0	0.5869140625	0.422607421875	upper	../fonts/amplitud.ttf
640.71	n/a	WORD	320355	wordpools/wasnorm_wordpool_less_exclusions.txt	LTP267	ltpFR	6	2	1	NET	946	n/a	0	0	0.5869140625	0.422607421875	upper	../fonts/amplitud.ttf
644.81	n/a	WORD	322405	wordpools/wasnorm_wordpool_less_exclusions.txt	LTP267	ltpFR	6	2	0	MEDAL	885	n/a	0	1	0.412841796875	0.57763671875	lower	../fonts/zerothre.ttf
648.992	n/a	WORD	324496	wordpools/wasnorm_wordpool_less_exclusions.txt	LTP267	ltpFR	6	2	0	TREASURE	1500	n/a	1	1	0.412841796875	0.57763671875	lower	../fonts/zerothre.ttf
653.152	n/a	WORD	326576	wordpools/wasnorm_wordpool_less_exclusions.txt	LTP267	ltpFR	6	2	0	SOCK	1339	n/a	0	1	0.412841796875	0.57763671875	lower	../fonts/zerothre.ttf
657.374	n/a	WORD	328687	wordpools/wasnorm_wordpool_less_exclusions.txt	LTP267	ltpFR	6	2	0	YARD	1630	n/a	0	1	0.412841796875	0.57763671875	lower	../fonts/zerothre.ttf
661.518	n/a	WORD	330759	wordpools/wasnorm_wordpool_less_exclusions.txt	LTP267	ltpFR	6	2	0	TART	1436	n/a	0	1	0.412841796875	0.57763671875	lower	../fonts/zerothre.ttf
665.37	n/a	WORD	332685	wordpools/wasnorm_wordpool_less_exclusions.txt	LTP267	ltpFR	6	2	0	FAMILY	550	n/a	1	1	0.412841796875	0.57763671875	lower	../fonts/zerothre.ttf
669.246	n/a	WORD	334623	wordpools/wasnorm_wordpool_less_exclusions.txt	LTP267	ltpFR	6	2	1	ANTEATER	26	n/a	1	0	0.5869140625	0.422607421875	upper	../fonts/amplitud.ttf
673.402	n/a	WORD	336701	wordpools/wasnorm_wordpool_less_exclusions.txt	LTP267	ltpFR	6	2	1	LOBSTER	837	n/a	1	0	0.5869140625	0.422607421875	upper	../fonts/amplitud.ttf
679.42	n/a	REC_START	339710	n/a	LTP267	ltpFR	6	2	n/a	n/a	n/a	n/a	n/a	n/a	n/a	n/a	n/a	n/a
680.03	n/a	REC_WORD	340015	wordpools/wasnorm_wordpool_less_exclusions.txt	LTP267	ltpFR	6	2	1	LOBSTER	837	n/a	1	n/a	n/a	n/a	n/a	n/a
680.94	n/a	REC_WORD	340470	wordpools/wasnorm_wordpool_less_exclusions.txt	LTP267	ltpFR	6	2	1	ANTEATER	26	n/a	1	n/a	n/a	n/a	n/a	n/a
681.592	n/a	REC_WORD	340796	wordpools/wasnorm_wordpool_less_exclusions.txt	LTP267	ltpFR	6	2	0	SOCK	1339	n/a	0	n/a	n/a	n/a	n/a	n/a
682.552	n/a	REC_WORD	341276	wordpools/wasnorm_wordpool_less_exclusions.txt	LTP267	ltpFR	6	2	1	BASEBALL	93	n/a	0	n/a	n/a	n/a	n/a	n/a
683.706	n/a	REC_WORD	341853	wordpools/wasnorm_wordpool_less_exclusions.txt	LTP267	ltpFR	6	2	1	NET	946	n/a	0	n/a	n/a	n/a	n/a	n/a
688.086	n/a	REC_WORD	344043	wordpools/wasnorm_wordpool_less_exclusions.txt	LTP267	ltpFR	6	2	1	MAT	877	n/a	0	n/a	n/a	n/a	n/a	n/a
688.658	n/a	REC_WORD	344329	wordpools/wasnorm_wordpool_less_exclusions.txt	LTP267	ltpFR	6	2	1	KNOB	787	n/a	0	n/a	n/a	n/a	n/a	n/a
691.348	n/a	REC_WORD	345674	wordpools/wasnorm_wordpool_less_exclusions.txt	LTP267	ltpFR	6	2	1	BOTTLE	153	n/a	0	n/a	n/a	n/a	n/a	n/a
759.358	n/a	WORD	379679	wordpools/wasnorm_wordpool_less_exclusions.txt	LTP267	ltpFR	6	3	0	COLESLAW	344	n/a	0	1	0.412841796875	0.57763671875	lower	../fonts/zerothre.ttf
763.496	n/a	WORD	381748	wordpools/wasnorm_wordpool_less_exclusions.txt	LTP267	ltpFR	6	3	0	TEACHER	1440	n/a	1	1	0.412841796875	0.57763671875	lower	../fonts/zerothre.ttf
767.612	n/a	WORD	383806	wordpools/wasnorm_wordpool_less_exclusions.txt	LTP267	ltpFR	6	3	1	PAINT	1003	n/a	0	0	0.5869140625	0.422607421875	upper	../fonts/amplitud.ttf
771.706	n/a	WORD	385853	wordpools/wasnorm_wordpool_less_exclusions.txt	LTP267	ltpFR	6	3	1	LIVER	833	n/a	0	0	0.5869140625	0.422607421875	upper	../fonts/amplitud.ttf
775.794	n/a	WORD	387897	wordpools/wasnorm_wordpool_less_exclusions.txt	LTP267	ltpFR	6	3	1	INSTRUCTOR	741	n/a	1	0	0.5869140625	0.422607421875	upper	../fonts/amplitud.ttf
779.91	n/a	WORD	389955	wordpools/wasnorm_wordpool_less_exclusions.txt	LTP267	ltpFR	6	3	1	RUG	1215	n/a	0	0	0.5869140625	0.422607421875	upper	../fonts/amplitud.ttf
783.774	n/a	WORD	391887	wordpools/wasnorm_wordpool_less_exclusions.txt	LTP267	ltpFR	6	3	1	PICNIC	1060	n/a	0	0	0.5869140625	0.422607421875	upper	../fonts/amplitud.ttf
787.924	n/a	WORD	393962	wordpools/wasnorm_wordpool_less_exclusions.txt	LTP267	ltpFR	6	3	0	COUSIN	392	n/a	0	1	0.412841796875	0.57763671875	lower	../fonts/zerothre.ttf
791.972	n/a	WORD	395986	wordpools/wasnorm_wordpool_less_exclusions.txt	LTP267	ltpFR	6	3	0	COSTUME	383	n/a	1	1	0.412841796875	0.57763671875	lower	../fonts/zerothre.ttf
796.038	n/a	WORD	398019	wordpools/wasnorm_wordpool_less_exclusions.txt	LTP267	ltpFR	6	3	1	MARKET	871	n/a	1	0	0.5869140625	0.422607421875	upper	../fonts/amplitud.ttf
799.964	n/a	WORD	399982	wordpools/wasnorm_wordpool_less_exclusions.txt	LTP267	ltpFR	6	3	1	CARAVAN	242	n/a	0	0	0.5869140625	0.422607421875	upper	../fonts/amplitud.ttf
803.884	n/a	WORD	401942	wordpools/wasnorm_wordpool_less_exclusions.txt	LTP267	ltpFR	6	3	1	HOOD	714	n/a	0	0	0.5869140625	0.422607421875	upper	../fonts/amplitud.ttf
807.932	n/a	WORD	403966	wordpools/wasnorm_wordpool_less_exclusions.txt	LTP267	ltpFR	6	3	0	BRIEFCASE	175	n/a	0	1	0.412841796875	0.57763671875	lower	../fonts/zerothre.ttf
811.764	n/a	WORD	405882	wordpools/wasnorm_wordpool_less_exclusions.txt	LTP267	ltpFR	6	3	0	TABLET	1427	n/a	0	1	0.412841796875	0.57763671875	lower	../fonts/zerothre.ttf
815.68	n/a	WORD	407840	wordpools/wasnorm_wordpool_less_exclusions.txt	LTP267	ltpFR	6	3	0	CATERPILLAR	259	n/a	1	1	0.412841796875	0.57763671875	lower	../fonts/zerothre.ttf
819.506	n/a	WORD	409753	wordpools/wasnorm_wordpool_less_exclusions.txt	LTP267	ltpFR	6	3	0	MOSQUITO	917	n/a	1	1	0.412841796875	0.57763671875	lower	../fonts/zerothre.ttf
825.528	n/a	REC_START	412764	n/a	LTP267	ltpFR	6	3	n/a	n/a	n/a	n/a	n/a	n/a	n/a	n/a	n/a	n/a
826.298	n/a	REC_WORD	413149	wordpools/wasnorm_wordpool_less_exclusions.txt	LTP267	ltpFR	6	3	0	COLESLAW	344	n/a	0	n/a	n/a	n/a	n/a	n/a
827.148	n/a	REC_WORD	413574	wordpools/wasnorm_wordpool_less_exclusions.txt	LTP267	ltpFR	6	3	0	TEACHER	1440	n/a	1	n/a	n/a	n/a	n/a	n/a
828.244	n/a	REC_WORD	414122	wordpools/wasnorm_wordpool_less_exclusions.txt	LTP267	ltpFR	6	3	n/a	PAINTING	1005	n/a	n/a	n/a	n/a	n/a	n/a	n/a
829.482	n/a	REC_WORD	414741	wordpools/wasnorm_wordpool_less_exclusions.txt	LTP267	ltpFR	6	3	0	TABLET	1427	n/a	0	n/a	n/a	n/a	n/a	n/a
830.38	n/a	REC_WORD	415190	wordpools/wasnorm_wordpool_less_exclusions.txt	LTP267	ltpFR	6	3	0	MOSQUITO	917	n/a	1	n/a	n/a	n/a	n/a	n/a
834.552	n/a	REC_WORD	417276	wordpools/wasnorm_wordpool_less_exclusions.txt	LTP267	ltpFR	6	3	n/a	POLITICIAN	1099	n/a	n/a	n/a	n/a	n/a	n/a	n/a
835.552	n/a	REC_WORD_VV	417776	wordpools/wasnorm_wordpool_less_exclusions.txt	LTP267	ltpFR	6	3	n/a	<>	-1	n/a	n/a	n/a	n/a	n/a	n/a	n/a
838.176	n/a	REC_WORD_VV	419088	wordpools/wasnorm_wordpool_less_exclusions.txt	LTP267	ltpFR	6	3	n/a	<>	-1	n/a	n/a	n/a	n/a	n/a	n/a	n/a
839.176	n/a	REC_WORD_VV	419588	wordpools/wasnorm_wordpool_less_exclusions.txt	LTP267	ltpFR	6	3	n/a	<>	-1	n/a	n/a	n/a	n/a	n/a	n/a	n/a
840.2	n/a	REC_WORD	420100	wordpools/wasnorm_wordpool_less_exclusions.txt	LTP267	ltpFR	6	3	1	MARKET	871	n/a	1	n/a	n/a	n/a	n/a	n/a
842.736	n/a	REC_WORD_VV	421368	wordpools/wasnorm_wordpool_less_exclusions.txt	LTP267	ltpFR	6	3	n/a	<>	-1	n/a	n/a	n/a	n/a	n/a	n/a	n/a
843.736	n/a	REC_WORD_VV	421868	wordpools/wasnorm_wordpool_less_exclusions.txt	LTP267	ltpFR	6	3	n/a	<>	-1	n/a	n/a	n/a	n/a	n/a	n/a	n/a
906.336	n/a	WORD	453168	wordpools/wasnorm_wordpool_less_exclusions.txt	LTP267	ltpFR	6	4	0	CAPITAL	238	n/a	0	1	0.412841796875	0.57763671875	lower	../fonts/zerothre.ttf
910.218	n/a	WORD	455109	wordpools/wasnorm_wordpool_less_exclusions.txt	LTP267	ltpFR	6	4	0	KNEE	784	n/a	0	1	0.412841796875	0.57763671875	lower	../fonts/zerothre.ttf
914.134	n/a	WORD	457067	wordpools/wasnorm_wordpool_less_exclusions.txt	LTP267	ltpFR	6	4	0	BUILDING	191	n/a	0	1	0.412841796875	0.57763671875	lower	../fonts/zerothre.ttf
918.338	n/a	WORD	459169	wordpools/wasnorm_wordpool_less_exclusions.txt	LTP267	ltpFR	6	4	0	TOWEL	1489	n/a	0	1	0.412841796875	0.57763671875	lower	../fonts/zerothre.ttf
922.18	n/a	WORD	461090	wordpools/wasnorm_wordpool_less_exclusions.txt	LTP267	ltpFR	6	4	0	GRILL	661	n/a	1	1	0.412841796875	0.57763671875	lower	../fonts/zerothre.ttf
926.296	n/a	WORD	463148	wordpools/wasnorm_wordpool_less_exclusions.txt	LTP267	ltpFR	6	4	0	WAREHOUSE	1588	n/a	1	1	0.412841796875	0.57763671875	lower	../fonts/zerothre.ttf
930.412	n/a	WORD	465206	wordpools/wasnorm_wordpool_less_exclusions.txt	LTP267	ltpFR	6	4	0	BANDANNA	80	n/a	0	1	0.412841796875	0.57763671875	lower	../fonts/zerothre.ttf
934.298	n/a	WORD	467149	wordpools/wasnorm_wordpool_less_exclusions.txt	LTP267	ltpFR	6	4	0	TIGER	1467	n/a	1	1	0.412841796875	0.57763671875	lower	../fonts/zerothre.ttf
938.126	n/a	WORD	469063	wordpools/wasnorm_wordpool_less_exclusions.txt	LTP267	ltpFR	6	4	0	TURKEY	1520	n/a	1	1	0.412841796875	0.57763671875	lower	../fonts/zerothre.ttf
941.962	n/a	WORD	470981	wordpools/wasnorm_wordpool_less_exclusions.txt	LTP267	ltpFR	6	4	0	SPARROW	1347	n/a	1	1	0.412841796875	0.57763671875	lower	../fonts/zerothre.ttf
946.094	n/a	WORD	473047	wordpools/wasnorm_wordpool_less_exclusions.txt	LTP267	ltpFR	6	4	0	THIGH	1457	n/a	1	1	0.412841796875	0.57763671875	lower	../fonts/zerothre.ttf
950.26	n/a	WORD	475130	wordpools/wasnorm_wordpool_less_exclusions.txt	LTP267	ltpFR	6	4	0	BERRY	122	n/a	0	1	0.412841796875	0.57763671875	lower	../fonts/zerothre.ttf
954.308	n/a	WORD	477154	wordpools/wasnorm_wordpool_less_exclusions.txt	LTP267	ltpFR	6	4	0	PEACH	1031	n/a	0	1	0.412841796875	0.57763671875	lower	../fonts/zerothre.ttf
958.334	n/a	WORD	479167	wordpools/wasnorm_wordpool_less_exclusions.txt	LTP267	ltpFR	6	4	0	PASSAGE	1019	n/a	1	1	0.412841796875	0.57763671875	lower	../fonts/zerothre.ttf
962.552	n/a	WORD	481276	wordpools/wasnorm_wordpool_less_exclusions.txt	LTP267	ltpFR	6	4	0	DOOR	486	n/a	1	1	0.412841796875	0.57763671875	lower	../fonts/zerothre.ttf
966.758	n/a	WORD	483379	wordpools/wasnorm_wordpool_less_exclusions.txt	LTP267	ltpFR	6	4	0	COTTON	385	n/a	0	1	0.412841796875	0.57763671875	lower	../fonts/zerothre.ttf
972.608	n/a	REC_START	486304	n/a	LTP267	ltpFR	6	4	n/a	n/a	n/a	n/a	n/a	n/a	n/a	n/a	n/a	n/a
973.45	n/a	REC_WORD	486725	wordpools/wasnorm_wordpool_less_exclusions.txt	LTP267	ltpFR	6	4	0	PASSAGE	1019	n/a	1	n/a	n/a	n/a	n/a	n/a
974.3	n/a	REC_WORD	487150	wordpools/wasnorm_wordpool_less_exclusions.txt	LTP267	ltpFR	6	4	0	DOOR	486	n/a	1	n/a	n/a	n/a	n/a	n/a
974.844	n/a	REC_WORD	487422	wordpools/wasnorm_wordpool_less_exclusions.txt	LTP267	ltpFR	6	4	0	COTTON	385	n/a	0	n/a	n/a	n/a	n/a	n/a
975.712	n/a	REC_WORD	487856	wordpools/wasnorm_wordpool_less_exclusions.txt	LTP267	ltpFR	6	4	0	PEACH	1031	n/a	0	n/a	n/a	n/a	n/a	n/a
1065.36	n/a	WORD	532680	wordpools/wasnorm_wordpool_less_exclusions.txt	LTP267	ltpFR	6	5	-1	GENERAL	630	n/a	-1	1	1.0	1.0	upper	../fonts/Verdana.ttf
1069.55	n/a	WORD	534775	wordpools/wasnorm_wordpool_less_exclusions.txt	LTP267	ltpFR	6	5	-1	UNIFORM	1539	n/a	-1	1	1.0	1.0	upper	../fonts/Verdana.ttf
1073.458	n/a	WORD	536729	wordpools/wasnorm_wordpool_less_exclusions.txt	LTP267	ltpFR	6	5	-1	CELLAR	267	n/a	-1	1	1.0	1.0	upper	../fonts/Verdana.ttf
1077.456	n/a	WORD	538728	wordpools/wasnorm_wordpool_less_exclusions.txt	LTP267	ltpFR	6	5	-1	PLAID	1080	n/a	-1	1	1.0	1.0	upper	../fonts/Verdana.ttf
1081.328	n/a	WORD	540664	wordpools/wasnorm_wordpool_less_exclusions.txt	LTP267	ltpFR	6	5	-1	VENUS	1557	n/a	-1	1	1.0	1.0	upper	../fonts/Verdana.ttf
1085.226	n/a	WORD	542613	wordpools/wasnorm_wordpool_less_exclusions.txt	LTP267	ltpFR	6	5	-1	GUARDIAN	668	n/a	-1	1	1.0	1.0	upper	../fonts/Verdana.ttf
1089.09	n/a	WORD	544545	wordpools/wasnorm_wordpool_less_exclusions.txt	LTP267	ltpFR	6	5	-1	BELT	120	n/a	-1	1	1.0	1.0	upper	../fonts/Verdana.ttf
1093.3	n/a	WORD	546650	wordpools/wasnorm_wordpool_less_exclusions.txt	LTP267	ltpFR	6	5	-1	MARS	873	n/a	-1	1	1.0	1.0	upper	../fonts/Verdana.ttf
1097.22	n/a	WORD	548610	wordpools/wasnorm_wordpool_less_exclusions.txt	LTP267	ltpFR	6	5	-1	AIRPORT	13	n/a	-1	1	1.0	1.0	upper	../fonts/Verdana.ttf
1101.064	n/a	WORD	550532	wordpools/wasnorm_wordpool_less_exclusions.txt	LTP267	ltpFR	6	5	-1	BEARD	107	n/a	-1	1	1.0	1.0	upper	../fonts/Verdana.ttf
1104.984	n/a	WORD	552492	wordpools/wasnorm_wordpool_less_exclusions.txt	LTP267	ltpFR	6	5	-1	MASK	876	n/a	-1	1	1.0	1.0	upper	../fonts/Verdana.ttf
1108.966	n/a	WORD	554483	wordpools/wasnorm_wordpool_less_exclusions.txt	LTP267	ltpFR	6	5	-1	HINGE	709	n/a	-1	1	1.0	1.0	upper	../fonts/Verdana.ttf
1113.144	n/a	WORD	556572	wordpools/wasnorm_wordpool_less_exclusions.txt	LTP267	ltpFR	6	5	-1	LETTUCE	814	n/a	-1	1	1.0	1.0	upper	../fonts/Verdana.ttf
1117.298	n/a	WORD	558649	wordpools/wasnorm_wordpool_less_exclusions.txt	LTP267	ltpFR	6	5	-1	VEGETABLE	1552	n/a	-1	1	1.0	1.0	upper	../fonts/Verdana.ttf
1121.448	n/a	WORD	560724	wordpools/wasnorm_wordpool_less_exclusions.txt	LTP267	ltpFR	6	5	-1	RUM	1217	n/a	-1	1	1.0	1.0	upper	../fonts/Verdana.ttf
1125.642	n/a	WORD	562821	wordpools/wasnorm_wordpool_less_exclusions.txt	LTP267	ltpFR	6	5	-1	BACON	67	n/a	-1	1	1.0	1.0	upper	../fonts/Verdana.ttf
1131.632	n/a	REC_START	565816	n/a	LTP267	ltpFR	6	5	n/a	n/a	n/a	n/a	n/a	n/a	n/a	n/a	n/a	n/a
1132.734	n/a	REC_WORD	566367	wordpools/wasnorm_wordpool_less_exclusions.txt	LTP267	ltpFR	6	5	-1	LETTUCE	814	n/a	-1	n/a	n/a	n/a	n/a	n/a
1133.346	n/a	REC_WORD	566673	wordpools/wasnorm_wordpool_less_exclusions.txt	LTP267	ltpFR	6	5	-1	VEGETABLE	1552	n/a	-1	n/a	n/a	n/a	n/a	n/a
1134.144	n/a	REC_WORD	567072	wordpools/wasnorm_wordpool_less_exclusions.txt	LTP267	ltpFR	6	5	-1	RUM	1217	n/a	-1	n/a	n/a	n/a	n/a	n/a
1135.064	n/a	REC_WORD	567532	wordpools/wasnorm_wordpool_less_exclusions.txt	LTP267	ltpFR	6	5	-1	BACON	67	n/a	-1	n/a	n/a	n/a	n/a	n/a
1136.312	n/a	REC_WORD	568156	wordpools/wasnorm_wordpool_less_exclusions.txt	LTP267	ltpFR	6	5	n/a	COLONEL	348	n/a	n/a	n/a	n/a	n/a	n/a	n/a
1137.23	n/a	REC_WORD	568615	wordpools/wasnorm_wordpool_less_exclusions.txt	LTP267	ltpFR	6	5	n/a	ARMY	39	n/a	n/a	n/a	n/a	n/a	n/a	n/a
1138.272	n/a	REC_WORD	569136	wordpools/wasnorm_wordpool_less_exclusions.txt	LTP267	ltpFR	6	5	-1	GENERAL	630	n/a	-1	n/a	n/a	n/a	n/a	n/a
1141.524	n/a	REC_WORD	570762	wordpools/wasnorm_wordpool_less_exclusions.txt	LTP267	ltpFR	6	5	-1	CELLAR	267	n/a	-1	n/a	n/a	n/a	n/a	n/a
1142.502	n/a	REC_WORD	571251	wordpools/wasnorm_wordpool_less_exclusions.txt	LTP267	ltpFR	6	5	-1	PLAID	1080	n/a	-1	n/a	n/a	n/a	n/a	n/a
1143.56	n/a	REC_WORD	571780	wordpools/wasnorm_wordpool_less_exclusions.txt	LTP267	ltpFR	6	5	-1	BELT	120	n/a	-1	n/a	n/a	n/a	n/a	n/a
1148.828	n/a	REC_WORD	574414	wordpools/wasnorm_wordpool_less_exclusions.txt	LTP267	ltpFR	6	5	-1	GUARDIAN	668	n/a	-1	n/a	n/a	n/a	n/a	n/a
1152.686	n/a	REC_WORD_VV	576343	wordpools/wasnorm_wordpool_less_exclusions.txt	LTP267	ltpFR	6	5	n/a	<>	-1	n/a	n/a	n/a	n/a	n/a	n/a	n/a
1166.732	n/a	REC_WORD_VV	583366	wordpools/wasnorm_wordpool_less_exclusions.txt	LTP267	ltpFR	6	5	n/a	<>	-1	n/a	n/a	n/a	n/a	n/a	n/a	n/a
1167.732	n/a	REC_WORD_VV	583866	wordpools/wasnorm_wordpool_less_exclusions.txt	LTP267	ltpFR	6	5	n/a	<>	-1	n/a	n/a	n/a	n/a	n/a	n/a	n/a
1168.732	n/a	REC_WORD_VV	584366	wordpools/wasnorm_wordpool_less_exclusions.txt	LTP267	ltpFR	6	5	n/a	<>	-1	n/a	n/a	n/a	n/a	n/a	n/a	n/a
1237.474	n/a	WORD	618737	wordpools/wasnorm_wordpool_less_exclusions.txt	LTP267	ltpFR	6	6	1	MOTHER	921	n/a	1	0	0.5869140625	0.422607421875	upper	../fonts/amplitud.ttf
1241.322	n/a	WORD	620661	wordpools/wasnorm_wordpool_less_exclusions.txt	LTP267	ltpFR	6	6	1	ROOST	1208	n/a	1	0	0.5869140625	0.422607421875	upper	../fonts/amplitud.ttf
1245.18	n/a	WORD	622590	wordpools/wasnorm_wordpool_less_exclusions.txt	LTP267	ltpFR	6	6	0	HAWK	692	n/a	3	1	0.412841796875	0.57763671875	lower	../fonts/zerothre.ttf
1246.224	n/a	KEY_MSG	623112	n/a	LTP267	ltpFR	6	6	n/a	n/a	n/a	n/a	n/a	n/a	n/a	n/a	n/a	n/a
1249.052	n/a	WORD	624526	wordpools/wasnorm_wordpool_less_exclusions.txt	LTP267	ltpFR	6	6	0	GRASS	655	n/a	0	1	0.412841796875	0.57763671875	lower	../fonts/zerothre.ttf
1252.984	n/a	WORD	626492	wordpools/wasnorm_wordpool_less_exclusions.txt	LTP267	ltpFR	6	6	0	CHAMPAGNE	278	n/a	1	1	0.412841796875	0.57763671875	lower	../fonts/zerothre.ttf
1257.0	n/a	WORD	628500	wordpools/wasnorm_wordpool_less_exclusions.txt	LTP267	ltpFR	6	6	0	DRINK	498	n/a	0	1	0.412841796875	0.57763671875	lower	../fonts/zerothre.ttf
1261.198	n/a	WORD	630599	wordpools/wasnorm_wordpool_less_exclusions.txt	LTP267	ltpFR	6	6	1	CROW	414	n/a	1	0	0.5869140625	0.422607421875	upper	../fonts/amplitud.ttf
1265.296	n/a	WORD	632648	wordpools/wasnorm_wordpool_less_exclusions.txt	LTP267	ltpFR	6	6	1	ELK	526	n/a	1	0	0.5869140625	0.422607421875	upper	../fonts/amplitud.ttf
1269.156	n/a	WORD	634578	wordpools/wasnorm_wordpool_less_exclusions.txt	LTP267	ltpFR	6	6	1	SOCIETY	1338	n/a	1	0	0.5869140625	0.422607421875	upper	../fonts/amplitud.ttf
1273.162	n/a	WORD	636581	wordpools/wasnorm_wordpool_less_exclusions.txt	LTP267	ltpFR	6	6	1	COMMUNITY	356	n/a	1	0	0.5869140625	0.422607421875	upper	../fonts/amplitud.ttf
1277.36	n/a	WORD	638680	wordpools/wasnorm_wordpool_less_exclusions.txt	LTP267	ltpFR	6	6	1	VALLEY	1545	n/a	1	0	0.5869140625	0.422607421875	upper	../fonts/amplitud.ttf
1281.302	n/a	WORD	640651	wordpools/wasnorm_wordpool_less_exclusions.txt	LTP267	ltpFR	6	6	1	PLASTER	1085	n/a	0	0	0.5869140625	0.422607421875	upper	../fonts/amplitud.ttf
1285.272	n/a	WORD	642636	wordpools/wasnorm_wordpool_less_exclusions.txt	LTP267	ltpFR	6	6	0	ZEBRA	1635	n/a	1	1	0.412841796875	0.57763671875	lower	../fonts/zerothre.ttf
1289.45	n/a	WORD	644725	wordpools/wasnorm_wordpool_less_exclusions.txt	LTP267	ltpFR	6	6	0	PARROT	1015	n/a	0	1	0.412841796875	0.57763671875	lower	../fonts/zerothre.ttf
1293.506	n/a	WORD	646753	wordpools/wasnorm_wordpool_less_exclusions.txt	LTP267	ltpFR	6	6	0	NECK	939	n/a	1	1	0.412841796875	0.57763671875	lower	../fonts/zerothre.ttf
1297.37	n/a	WORD	648685	wordpools/wasnorm_wordpool_less_exclusions.txt	LTP267	ltpFR	6	6	0	VEST	1559	n/a	1	1	0.412841796875	0.57763671875	lower	../fonts/zerothre.ttf
1303.142	n/a	REC_START	651571	n/a	LTP267	ltpFR	6	6	n/a	n/a	n/a	n/a	n/a	n/a	n/a	n/a	n/a	n/a
1304.994	n/a	REC_WORD	652497	wordpools/wasnorm_wordpool_less_exclusions.txt	LTP267	ltpFR	6	6	0	NECK	939	n/a	1	n/a	n/a	n/a	n/a	n/a
1305.556	n/a	REC_WORD	652778	wordpools/wasnorm_wordpool_less_exclusions.txt	LTP267	ltpFR	6	6	0	VEST	1559	n/a	1	n/a	n/a	n/a	n/a	n/a
1306.466	n/a	REC_WORD	653233	wordpools/wasnorm_wordpool_less_exclusions.txt	LTP267	ltpFR	6	6	n/a	LAYERS	-1	n/a	n/a	n/a	n/a	n/a	n/a	n/a
1309.104	n/a	REC_WORD	654552	wordpools/wasnorm_wordpool_less_exclusions.txt	LTP267	ltpFR	6	6	1	ELK	526	n/a	1	n/a	n/a	n/a	n/a	n/a
1313.13	n/a	REC_WORD	656565	wordpools/wasnorm_wordpool_less_exclusions.txt	LTP267	ltpFR	6	6	1	ROOST	1208	n/a	1	n/a	n/a	n/a	n/a	n/a
1313.852	n/a	REC_WORD	656926	wordpools/wasnorm_wordpool_less_exclusions.txt	LTP267	ltpFR	6	6	1	MOTHER	921	n/a	1	n/a	n/a	n/a	n/a	n/a
1319.0	n/a	REC_WORD	659500	wordpools/wasnorm_wordpool_less_exclusions.txt	LTP267	ltpFR	6	6	n/a	DEER	444	n/a	n/a	n/a	n/a	n/a	n/a	n/a
1323.958	n/a	REC_WORD	661979	wordpools/wasnorm_wordpool_less_exclusions.txt	LTP267	ltpFR	6	6	n/a	BIRD	129	n/a	n/a	n/a	n/a	n/a	n/a	n/a
1325.01	n/a	REC_WORD	662505	wordpools/wasnorm_wordpool_less_exclusions.txt	LTP267	ltpFR	6	6	0	NECK	939	n/a	1	n/a	n/a	n/a	n/a	n/a
1390.402	n/a	WORD	695201	wordpools/wasnorm_wordpool_less_exclusions.txt	LTP267	ltpFR	6	7	-1	DISC	473	n/a	-1	1	1.0	1.0	upper	../fonts/Verdana.ttf
1394.39	n/a	WORD	697195	wordpools/wasnorm_wordpool_less_exclusions.txt	LTP267	ltpFR	6	7	-1	MOTEL	919	n/a	-1	1	1.0	1.0	upper	../fonts/Verdana.ttf
1398.552	n/a	WORD	699276	wordpools/wasnorm_wordpool_less_exclusions.txt	LTP267	ltpFR	6	7	-1	ANKLE	24	n/a	-1	1	1.0	1.0	upper	../fonts/Verdana.ttf
1402.47	n/a	WORD	701235	wordpools/wasnorm_wordpool_less_exclusions.txt	LTP267	ltpFR	6	7	-1	ZOO	1637	n/a	-1	1	1.0	1.0	upper	../fonts/Verdana.ttf
1406.638	n/a	WORD	703319	wordpools/wasnorm_wordpool_less_exclusions.txt	LTP267	ltpFR	6	7	-1	HEEL	700	n/a	-1	1	1.0	1.0	upper	../fonts/Verdana.ttf
1410.77	n/a	WORD	705385	wordpools/wasnorm_wordpool_less_exclusions.txt	LTP267	ltpFR	6	7	-1	EMPLOYER	532	n/a	-1	1	1.0	1.0	upper	../fonts/Verdana.ttf
1414.702	n/a	WORD	707351	wordpools/wasnorm_wordpool_less_exclusions.txt	LTP267	ltpFR	6	7	-1	SKATE	1313	n/a	-1	1	1.0	1.0	upper	../fonts/Verdana.ttf
1418.6	n/a	WORD	709300	wordpools/wasnorm_wordpool_less_exclusions.txt	LTP267	ltpFR	6	7	-1	BULLETIN	195	n/a	-1	1	1.0	1.0	upper	../fonts/Verdana.ttf
1422.566	n/a	WORD	711283	wordpools/wasnorm_wordpool_less_exclusions.txt	LTP267	ltpFR	6	7	-1	LOOP	844	n/a	-1	1	1.0	1.0	upper	../fonts/Verdana.ttf
1426.43	n/a	WORD	713215	wordpools/wasnorm_wordpool_less_exclusions.txt	LTP267	ltpFR	6	7	-1	LIGHTER	819	n/a	-1	1	1.0	1.0	upper	../fonts/Verdana.ttf
1430.562	n/a	WORD	715281	wordpools/wasnorm_wordpool_less_exclusions.txt	LTP267	ltpFR	6	7	-1	POWDER	1117	n/a	-1	1	1.0	1.0	upper	../fonts/Verdana.ttf
1434.572	n/a	WORD	717286	wordpools/wasnorm_wordpool_less_exclusions.txt	LTP267	ltpFR	6	7	-1	LIMB	822	n/a	-1	1	1.0	1.0	upper	../fonts/Verdana.ttf
1438.592	n/a	WORD	719296	wordpools/wasnorm_wordpool_less_exclusions.txt	LTP267	ltpFR	6	7	-1	LINEN	825	n/a	-1	1	1.0	1.0	upper	../fonts/Verdana.ttf
1442.692	n/a	WORD	721346	wordpools/wasnorm_wordpool_less_exclusions.txt	LTP267	ltpFR	6	7	-1	SHOP	1290	n/a	-1	1	1.0	1.0	upper	../fonts/Verdana.ttf
1446.824	n/a	WORD	723412	wordpools/wasnorm_wordpool_less_exclusions.txt	LTP267	ltpFR	6	7	-1	CART	250	n/a	-1	1	1.0	1.0	upper	../fonts/Verdana.ttf
1450.74	n/a	WORD	725370	wordpools/wasnorm_wordpool_less_exclusions.txt	LTP267	ltpFR	6	7	-1	BISON	131	n/a	-1	1	1.0	1.0	upper	../fonts/Verdana.ttf
1456.74	n/a	REC_START	728370	n/a	LTP267	ltpFR	6	7	n/a	n/a	n/a	n/a	n/a	n/a	n/a	n/a	n/a	n/a
1457.63	n/a	REC_WORD	728815	wordpools/wasnorm_wordpool_less_exclusions.txt	LTP267	ltpFR	6	7	-1	POWDER	1117	n/a	-1	n/a	n/a	n/a	n/a	n/a
1458.848	n/a	REC_WORD_VV	729424	wordpools/wasnorm_wordpool_less_exclusions.txt	LTP267	ltpFR	6	7	n/a	<>	-1	n/a	n/a	n/a	n/a	n/a	n/a	n/a
1459.848	n/a	REC_WORD_VV	729924	wordpools/wasnorm_wordpool_less_exclusions.txt	LTP267	ltpFR	6	7	n/a	<>	-1	n/a	n/a	n/a	n/a	n/a	n/a	n/a
1460.85	n/a	REC_WORD_VV	730425	wordpools/wasnorm_wordpool_less_exclusions.txt	LTP267	ltpFR	6	7	n/a	<>	-1	n/a	n/a	n/a	n/a	n/a	n/a	n/a
1461.742	n/a	REC_WORD	730871	wordpools/wasnorm_wordpool_less_exclusions.txt	LTP267	ltpFR	6	7	-1	LINEN	825	n/a	-1	n/a	n/a	n/a	n/a	n/a
1462.482	n/a	REC_WORD	731241	wordpools/wasnorm_wordpool_less_exclusions.txt	LTP267	ltpFR	6	7	-1	LIMB	822	n/a	-1	n/a	n/a	n/a	n/a	n/a
1463.196	n/a	REC_WORD	731598	wordpools/wasnorm_wordpool_less_exclusions.txt	LTP267	ltpFR	6	7	n/a	WRITER	1627	n/a	n/a	n/a	n/a	n/a	n/a	n/a
1464.018	n/a	REC_WORD	732009	wordpools/wasnorm_wordpool_less_exclusions.txt	LTP267	ltpFR	6	7	-1	BISON	131	n/a	-1	n/a	n/a	n/a	n/a	n/a
1465.954	n/a	REC_WORD	732977	wordpools/wasnorm_wordpool_less_exclusions.txt	LTP267	ltpFR	6	7	n/a	SHOPPING	-1	n/a	n/a	n/a	n/a	n/a	n/a	n/a
1466.822	n/a	REC_WORD	733411	wordpools/wasnorm_wordpool_less_exclusions.txt	LTP267	ltpFR	6	7	-1	CART	250	n/a	-1	n/a	n/a	n/a	n/a	n/a
1535.272	n/a	WORD	767636	wordpools/wasnorm_wordpool_less_exclusions.txt	LTP267	ltpFR	6	8	0	GANG	619	n/a	1	1	0.412841796875	0.57763671875	lower	../fonts/zerothre.ttf
1539.494	n/a	WORD	769747	wordpools/wasnorm_wordpool_less_exclusions.txt	LTP267	ltpFR	6	8	0	COW	393	n/a	1	1	0.412841796875	0.57763671875	lower	../fonts/zerothre.ttf
1543.662	n/a	WORD	771831	wordpools/wasnorm_wordpool_less_exclusions.txt	LTP267	ltpFR	6	8	0	DIARY	460	n/a	1	1	0.412841796875	0.57763671875	lower	../fonts/zerothre.ttf
1547.878	n/a	WORD	773939	wordpools/wasnorm_wordpool_less_exclusions.txt	LTP267	ltpFR	6	8	0	ELM	527	n/a	1	1	0.412841796875	0.57763671875	lower	../fonts/zerothre.ttf
1552.042	n/a	WORD	776021	wordpools/wasnorm_wordpool_less_exclusions.txt	LTP267	ltpFR	6	8	0	SHRUB	1299	n/a	1	1	0.412841796875	0.57763671875	lower	../fonts/zerothre.ttf
1555.874	n/a	WORD	777937	wordpools/wasnorm_wordpool_less_exclusions.txt	LTP267	ltpFR	6	8	0	CAFETERIA	217	n/a	1	1	0.412841796875	0.57763671875	lower	../fonts/zerothre.ttf
1559.806	n/a	WORD	779903	wordpools/wasnorm_wordpool_less_exclusions.txt	LTP267	ltpFR	6	8	0	KEG	770	n/a	1	1	0.412841796875	0.57763671875	lower	../fonts/zerothre.ttf
1563.984	n/a	WORD	781992	wordpools/wasnorm_wordpool_less_exclusions.txt	LTP267	ltpFR	6	8	0	RIB	1188	n/a	0	1	0.412841796875	0.57763671875	lower	../fonts/zerothre.ttf
1568.138	n/a	WORD	784069	wordpools/wasnorm_wordpool_less_exclusions.txt	LTP267	ltpFR	6	8	0	PATROL	1027	n/a	1	1	0.412841796875	0.57763671875	lower	../fonts/zerothre.ttf
1572.07	n/a	WORD	786035	wordpools/wasnorm_wordpool_less_exclusions.txt	LTP267	ltpFR	6	8	0	SALESMAN	1225	n/a	1	1	0.412841796875	0.57763671875	lower	../fonts/zerothre.ttf
1576.218	n/a	WORD	788109	wordpools/wasnorm_wordpool_less_exclusions.txt	LTP267	ltpFR	6	8	0	MECHANIC	884	n/a	1	1	0.412841796875	0.57763671875	lower	../fonts/zerothre.ttf
1580.418	n/a	WORD	790209	wordpools/wasnorm_wordpool_less_exclusions.txt	LTP267	ltpFR	6	8	0	MARROW	872	n/a	1	1	0.412841796875	0.57763671875	lower	../fonts/zerothre.ttf
1584.348	n/a	WORD	792174	wordpools/wasnorm_wordpool_less_exclusions.txt	LTP267	ltpFR	6	8	0	SPINACH	1352	n/a	0	1	0.412841796875	0.57763671875	lower	../fonts/zerothre.ttf
1588.566	n/a	WORD	794283	wordpools/wasnorm_wordpool_less_exclusions.txt	LTP267	ltpFR	6	8	0	DUCK	504	n/a	1	1	0.412841796875	0.57763671875	lower	../fonts/zerothre.ttf
1592.726	n/a	WORD	796363	wordpools/wasnorm_wordpool_less_exclusions.txt	LTP267	ltpFR	6	8	0	BUS	201	n/a	1	1	0.412841796875	0.57763671875	lower	../fonts/zerothre.ttf
1596.914	n/a	WORD	798457	wordpools/wasnorm_wordpool_less_exclusions.txt	LTP267	ltpFR	6	8	0	COOKBOOK	373	n/a	1	1	0.412841796875	0.57763671875	lower	../fonts/zerothre.ttf
1602.682	n/a	REC_START	801341	n/a	LTP267	ltpFR	6	8	n/a	n/a	n/a	n/a	n/a	n/a	n/a	n/a	n/a	n/a
1605.08	n/a	REC_WORD	802540	wordpools/wasnorm_wordpool_less_exclusions.txt	LTP267	ltpFR	6	8	0	COOKBOOK	373	n/a	1	n/a	n/a	n/a	n/a	n/a
1608.108	n/a	REC_WORD	804054	wordpools/wasnorm_wordpool_less_exclusions.txt	LTP267	ltpFR	6	8	0	RIB	1188	n/a	0	n/a	n/a	n/a	n/a	n/a
1615.294	n/a	REC_WORD_VV	807647	wordpools/wasnorm_wordpool_less_exclusions.txt	LTP267	ltpFR	6	8	n/a	<>	-1	n/a	n/a	n/a	n/a	n/a	n/a	n/a
1616.294	n/a	REC_WORD_VV	808147	wordpools/wasnorm_wordpool_less_exclusions.txt	LTP267	ltpFR	6	8	n/a	<>	-1	n/a	n/a	n/a	n/a	n/a	n/a	n/a
1617.294	n/a	REC_WORD_VV	808647	wordpools/wasnorm_wordpool_less_exclusions.txt	LTP267	ltpFR	6	8	n/a	<>	-1	n/a	n/a	n/a	n/a	n/a	n/a	n/a
1618.294	n/a	REC_WORD_VV	809147	wordpools/wasnorm_wordpool_less_exclusions.txt	LTP267	ltpFR	6	8	n/a	<>	-1	n/a	n/a	n/a	n/a	n/a	n/a	n/a
1618.752	n/a	REC_WORD	809376	wordpools/wasnorm_wordpool_less_exclusions.txt	LTP267	ltpFR	6	8	0	SALESMAN	1225	n/a	1	n/a	n/a	n/a	n/a	n/a
1619.752	n/a	REC_WORD_VV	809876	wordpools/wasnorm_wordpool_less_exclusions.txt	LTP267	ltpFR	6	8	n/a	<>	-1	n/a	n/a	n/a	n/a	n/a	n/a	n/a
1622.926	n/a	REC_WORD	811463	wordpools/wasnorm_wordpool_less_exclusions.txt	LTP267	ltpFR	6	8	n/a	ENGINE	535	n/a	n/a	n/a	n/a	n/a	n/a	n/a
1695.374	n/a	WORD	847687	wordpools/wasnorm_wordpool_less_exclusions.txt	LTP267	ltpFR	6	9	0	TUNA	1518	n/a	0	1	0.412841796875	0.57763671875	lower	../fonts/zerothre.ttf
1699.574	n/a	WORD	849787	wordpools/wasnorm_wordpool_less_exclusions.txt	LTP267	ltpFR	6	9	0	APPLICATION	34	n/a	0	1	0.412841796875	0.57763671875	lower	../fonts/zerothre.ttf
1703.75	n/a	WORD	851875	wordpools/wasnorm_wordpool_less_exclusions.txt	LTP267	ltpFR	6	9	0	DYNAMITE	511	n/a	1	1	0.412841796875	0.57763671875	lower	../fonts/zerothre.ttf
1707.756	n/a	WORD	853878	wordpools/wasnorm_wordpool_less_exclusions.txt	LTP267	ltpFR	6	9	0	GIRAFFE	636	n/a	1	1	0.412841796875	0.57763671875	lower	../fonts/zerothre.ttf
1711.888	n/a	WORD	855944	wordpools/wasnorm_wordpool_less_exclusions.txt	LTP267	ltpFR	6	9	0	CROCODILE	411	n/a	1	1	0.412841796875	0.57763671875	lower	../fonts/zerothre.ttf
1716.104	n/a	WORD	858052	wordpools/wasnorm_wordpool_less_exclusions.txt	LTP267	ltpFR	6	9	0	PIE	1062	n/a	1	1	0.412841796875	0.57763671875	lower	../fonts/zerothre.ttf
1720.102	n/a	WORD	860051	wordpools/wasnorm_wordpool_less_exclusions.txt	LTP267	ltpFR	6	9	0	ROCKET	1202	n/a	0	1	0.412841796875	0.57763671875	lower	../fonts/zerothre.ttf
1723.966	n/a	WORD	861983	wordpools/wasnorm_wordpool_less_exclusions.txt	LTP267	ltpFR	6	9	0	PREACHER	1119	n/a	1	1	0.412841796875	0.57763671875	lower	../fonts/zerothre.ttf
1728.084	n/a	WORD	864042	wordpools/wasnorm_wordpool_less_exclusions.txt	LTP267	ltpFR	6	9	0	FAUCET	555	n/a	1	1	0.412841796875	0.57763671875	lower	../fonts/zerothre.ttf
1731.93	n/a	WORD	865965	wordpools/wasnorm_wordpool_less_exclusions.txt	LTP267	ltpFR	6	9	0	VAULT	1550	n/a	0	1	0.412841796875	0.57763671875	lower	../fonts/zerothre.ttf
1735.796	n/a	WORD	867898	wordpools/wasnorm_wordpool_less_exclusions.txt	LTP267	ltpFR	6	9	0	BILL	126	n/a	0	1	0.412841796875	0.57763671875	lower	../fonts/zerothre.ttf
1739.806	n/a	WORD	869903	wordpools/wasnorm_wordpool_less_exclusions.txt	LTP267	ltpFR	6	9	0	SHRIMP	1297	n/a	1	1	0.412841796875	0.57763671875	lower	../fonts/zerothre.ttf
1743.988	n/a	WORD	871994	wordpools/wasnorm_wordpool_less_exclusions.txt	LTP267	ltpFR	6	9	0	CLAW	319	n/a	1	1	0.412841796875	0.57763671875	lower	../fonts/zerothre.ttf
1747.824	n/a	WORD	873912	wordpools/wasnorm_wordpool_less_exclusions.txt	LTP267	ltpFR	6	9	0	SUPERVISOR	1410	n/a	1	1	0.412841796875	0.57763671875	lower	../fonts/zerothre.ttf
1751.752	n/a	WORD	875876	wordpools/wasnorm_wordpool_less_exclusions.txt	LTP267	ltpFR	6	9	0	TAPE	1433	n/a	0	1	0.412841796875	0.57763671875	lower	../fonts/zerothre.ttf
1755.916	n/a	WORD	877958	wordpools/wasnorm_wordpool_less_exclusions.txt	LTP267	ltpFR	6	9	0	TROMBONE	1508	n/a	1	1	0.412841796875	0.57763671875	lower	../fonts/zerothre.ttf
1761.84	n/a	REC_START	880920	n/a	LTP267	ltpFR	6	9	n/a	n/a	n/a	n/a	n/a	n/a	n/a	n/a	n/a	n/a
1764.58	n/a	REC_WORD	882290	wordpools/wasnorm_wordpool_less_exclusions.txt	LTP267	ltpFR	6	9	0	CLAW	319	n/a	1	n/a	n/a	n/a	n/a	n/a
1765.152	n/a	REC_WORD	882576	wordpools/wasnorm_wordpool_less_exclusions.txt	LTP267	ltpFR	6	9	0	SUPERVISOR	1410	n/a	1	n/a	n/a	n/a	n/a	n/a
1766.152	n/a	REC_WORD_VV	883076	wordpools/wasnorm_wordpool_less_exclusions.txt	LTP267	ltpFR	6	9	n/a	<>	-1	n/a	n/a	n/a	n/a	n/a	n/a	n/a
1766.328	n/a	REC_WORD	883164	wordpools/wasnorm_wordpool_less_exclusions.txt	LTP267	ltpFR	6	9	0	TAPE	1433	n/a	0	n/a	n/a	n/a	n/a	n/a
1766.982	n/a	REC_WORD	883491	wordpools/wasnorm_wordpool_less_exclusions.txt	LTP267	ltpFR	6	9	0	TROMBONE	1508	n/a	1	n/a	n/a	n/a	n/a	n/a
1847.606	n/a	WORD	923803	wordpools/wasnorm_wordpool_less_exclusions.txt	LTP267	ltpFR	6	10	1	NITROGEN	954	n/a	1	0	0.5869140625	0.422607421875	upper	../fonts/amplitud.ttf
1851.688	n/a	WORD	925844	wordpools/wasnorm_wordpool_less_exclusions.txt	LTP267	ltpFR	6	10	1	NERVE	944	n/a	1	0	0.5869140625	0.422607421875	upper	../fonts/amplitud.ttf
1855.836	n/a	WORD	927918	wordpools/wasnorm_wordpool_less_exclusions.txt	LTP267	ltpFR	6	10	1	TERMINAL	1450	n/a	1	0	0.5869140625	0.422607421875	upper	../fonts/amplitud.ttf
1859.964	n/a	WORD	929982	wordpools/wasnorm_wordpool_less_exclusions.txt	LTP267	ltpFR	6	10	1	CLERK	321	n/a	1	0	0.5869140625	0.422607421875	upper	../fonts/amplitud.ttf
1864.102	n/a	WORD	932051	wordpools/wasnorm_wordpool_less_exclusions.txt	LTP267	ltpFR	6	10	1	VENT	1556	n/a	1	0	0.5869140625	0.422607421875	upper	../fonts/amplitud.ttf
1867.984	n/a	WORD	933992	wordpools/wasnorm_wordpool_less_exclusions.txt	LTP267	ltpFR	6	10	1	BALCONY	72	n/a	1	0	0.5869140625	0.422607421875	upper	../fonts/amplitud.ttf
1871.882	n/a	WORD	935941	wordpools/wasnorm_wordpool_less_exclusions.txt	LTP267	ltpFR	6	10	1	UTENSIL	1542	n/a	0	0	0.5869140625	0.422607421875	upper	../fonts/amplitud.ttf
1875.764	n/a	WORD	937882	wordpools/wasnorm_wordpool_less_exclusions.txt	LTP267	ltpFR	6	10	1	SILVERWARE	1308	n/a	0	0	0.5869140625	0.422607421875	upper	../fonts/amplitud.ttf
1879.678	n/a	WORD	939839	wordpools/wasnorm_wordpool_less_exclusions.txt	LTP267	ltpFR	6	10	1	GYMNAST	675	n/a	1	0	0.5869140625	0.422607421875	upper	../fonts/amplitud.ttf
1883.844	n/a	WORD	941922	wordpools/wasnorm_wordpool_less_exclusions.txt	LTP267	ltpFR	6	10	1	STADIUM	1364	n/a	1	0	0.5869140625	0.422607421875	upper	../fonts/amplitud.ttf
1887.688	n/a	WORD	943844	wordpools/wasnorm_wordpool_less_exclusions.txt	LTP267	ltpFR	6	10	1	PILOT	1070	n/a	1	0	0.5869140625	0.422607421875	upper	../fonts/amplitud.ttf
1891.758	n/a	WORD	945879	wordpools/wasnorm_wordpool_less_exclusions.txt	LTP267	ltpFR	6	10	1	SCOUT	1252	n/a	1	0	0.5869140625	0.422607421875	upper	../fonts/amplitud.ttf
1895.634	n/a	WORD	947817	wordpools/wasnorm_wordpool_less_exclusions.txt	LTP267	ltpFR	6	10	1	SERVER	1272	n/a	1	0	0.5869140625	0.422607421875	upper	../fonts/amplitud.ttf
1899.504	n/a	WORD	949752	wordpools/wasnorm_wordpool_less_exclusions.txt	LTP267	ltpFR	6	10	1	CONSUMER	365	n/a	1	0	0.5869140625	0.422607421875	upper	../fonts/amplitud.ttf
1903.43	n/a	WORD	951715	wordpools/wasnorm_wordpool_less_exclusions.txt	LTP267	ltpFR	6	10	1	ATTIC	56	n/a	1	0	0.5869140625	0.422607421875	upper	../fonts/amplitud.ttf
1907.63	n/a	WORD	953815	wordpools/wasnorm_wordpool_less_exclusions.txt	LTP267	ltpFR	6	10	1	COTTAGE	384	n/a	1	0	0.5869140625	0.422607421875	upper	../fonts/amplitud.ttf
1913.67	n/a	REC_START	956835	n/a	LTP267	ltpFR	6	10	n/a	n/a	n/a	n/a	n/a	n/a	n/a	n/a	n/a	n/a
1914.686	n/a	REC_WORD	957343	wordpools/wasnorm_wordpool_less_exclusions.txt	LTP267	ltpFR	6	10	n/a	PRIVATE	-1	n/a	n/a	n/a	n/a	n/a	n/a	n/a
1915.274	n/a	REC_WORD	957637	wordpools/wasnorm_wordpool_less_exclusions.txt	LTP267	ltpFR	6	10	n/a	SERVICE	-1	n/a	n/a	n/a	n/a	n/a	n/a	n/a
1916.048	n/a	REC_WORD_VV	958024	wordpools/wasnorm_wordpool_less_exclusions.txt	LTP267	ltpFR	6	10	n/a	<>	-1	n/a	n/a	n/a	n/a	n/a	n/a	n/a
1916.9	n/a	REC_WORD	958450	wordpools/wasnorm_wordpool_less_exclusions.txt	LTP267	ltpFR	6	10	1	SERVER	1272	n/a	1	n/a	n/a	n/a	n/a	n/a
1917.66	n/a	REC_WORD	958830	wordpools/wasnorm_wordpool_less_exclusions.txt	LTP267	ltpFR	6	10	1	CONSUMER	365	n/a	1	n/a	n/a	n/a	n/a	n/a
1921.948	n/a	REC_WORD	960974	wordpools/wasnorm_wordpool_less_exclusions.txt	LTP267	ltpFR	6	10	1	COTTAGE	384	n/a	1	n/a	n/a	n/a	n/a	n/a
1922.972	n/a	REC_WORD_VV	961486	wordpools/wasnorm_wordpool_less_exclusions.txt	LTP267	ltpFR	6	10	n/a	<>	-1	n/a	n/a	n/a	n/a	n/a	n/a	n/a
1923.66	n/a	REC_WORD	961830	wordpools/wasnorm_wordpool_less_exclusions.txt	LTP267	ltpFR	6	10	1	ATTIC	56	n/a	1	n/a	n/a	n/a	n/a	n/a
1925.504	n/a	REC_WORD	962752	wordpools/wasnorm_wordpool_less_exclusions.txt	LTP267	ltpFR	6	10	n/a	BASEMENT	94	n/a	n/a	n/a	n/a	n/a	n/a	n/a
1926.286	n/a	REC_WORD	963143	wordpools/wasnorm_wordpool_less_exclusions.txt	LTP267	ltpFR	6	10	n/a	PORCH	1106	n/a	n/a	n/a	n/a	n/a	n/a	n/a
1929.612	n/a	REC_WORD	964806	wordpools/wasnorm_wordpool_less_exclusions.txt	LTP267	ltpFR	6	10	1	SCOUT	1252	n/a	1	n/a	n/a	n/a	n/a	n/a
1994.516	n/a	WORD	997258	wordpools/wasnorm_wordpool_less_exclusions.txt	LTP267	ltpFR	6	11	1	CRITIC	410	n/a	1	0	0.5869140625	0.422607421875	upper	../fonts/amplitud.ttf
1998.582	n/a	WORD	999291	wordpools/wasnorm_wordpool_less_exclusions.txt	LTP267	ltpFR	6	11	1	MOSS	918	n/a	1	0	0.5869140625	0.422607421875	upper	../fonts/amplitud.ttf
2002.548	n/a	WORD	1001274	wordpools/wasnorm_wordpool_less_exclusions.txt	LTP267	ltpFR	6	11	1	LEADER	807	n/a	1	0	0.5869140625	0.422607421875	upper	../fonts/amplitud.ttf
2006.474	n/a	WORD	1003237	wordpools/wasnorm_wordpool_less_exclusions.txt	LTP267	ltpFR	6	11	1	MICROPHONE	890	n/a	1	0	0.5869140625	0.422607421875	upper	../fonts/amplitud.ttf
2010.46	n/a	WORD	1005230	wordpools/wasnorm_wordpool_less_exclusions.txt	LTP267	ltpFR	6	11	1	OPERA	978	n/a	1	0	0.5869140625	0.422607421875	upper	../fonts/amplitud.ttf
2014.376	n/a	WORD	1007188	wordpools/wasnorm_wordpool_less_exclusions.txt	LTP267	ltpFR	6	11	1	POLYESTER	1100	n/a	1	0	0.5869140625	0.422607421875	upper	../fonts/amplitud.ttf
2018.258	n/a	WORD	1009129	wordpools/wasnorm_wordpool_less_exclusions.txt	LTP267	ltpFR	6	11	1	TREE	1502	n/a	1	0	0.5869140625	0.422607421875	upper	../fonts/amplitud.ttf
2022.39	n/a	WORD	1011195	wordpools/wasnorm_wordpool_less_exclusions.txt	LTP267	ltpFR	6	11	1	CANDIDATE	228	n/a	1	0	0.5869140625	0.422607421875	upper	../fonts/amplitud.ttf
2026.606	n/a	WORD	1013303	wordpools/wasnorm_wordpool_less_exclusions.txt	LTP267	ltpFR	6	11	1	KEYBOARD	774	n/a	1	0	0.5869140625	0.422607421875	upper	../fonts/amplitud.ttf
2030.532	n/a	WORD	1015266	wordpools/wasnorm_wordpool_less_exclusions.txt	LTP267	ltpFR	6	11	1	MACHINE	852	n/a	1	0	0.5869140625	0.422607421875	upper	../fonts/amplitud.ttf
2034.582	n/a	WORD	1017291	wordpools/wasnorm_wordpool_less_exclusions.txt	LTP267	ltpFR	6	11	1	COLOGNE	347	n/a	0	0	0.5869140625	0.422607421875	upper	../fonts/amplitud.ttf
2038.564	n/a	WORD	1019282	wordpools/wasnorm_wordpool_less_exclusions.txt	LTP267	ltpFR	6	11	1	CONE	363	n/a	0	0	0.5869140625	0.422607421875	upper	../fonts/amplitud.ttf
2042.662	n/a	WORD	1021331	wordpools/wasnorm_wordpool_less_exclusions.txt	LTP267	ltpFR	6	11	1	SLACKS	1323	n/a	1	0	0.5869140625	0.422607421875	upper	../fonts/amplitud.ttf
2046.834	n/a	WORD	1023417	wordpools/wasnorm_wordpool_less_exclusions.txt	LTP267	ltpFR	6	11	1	HOOP	716	n/a	0	0	0.5869140625	0.422607421875	upper	../fonts/amplitud.ttf
2050.994	n/a	WORD	1025497	wordpools/wasnorm_wordpool_less_exclusions.txt	LTP267	ltpFR	6	11	1	VICTOR	1563	n/a	1	0	0.5869140625	0.422607421875	upper	../fonts/amplitud.ttf
2055.166	n/a	WORD	1027583	wordpools/wasnorm_wordpool_less_exclusions.txt	LTP267	ltpFR	6	11	1	HERO	706	n/a	1	0	0.5869140625	0.422607421875	upper	../fonts/amplitud.ttf
2061.172	n/a	REC_START	1030586	n/a	LTP267	ltpFR	6	11	n/a	n/a	n/a	n/a	n/a	n/a	n/a	n/a	n/a	n/a
2062.304	n/a	REC_WORD	1031152	wordpools/wasnorm_wordpool_less_exclusions.txt	LTP267	ltpFR	6	11	1	VICTOR	1563	n/a	1	n/a	n/a	n/a	n/a	n/a
2062.922	n/a	REC_WORD	1031461	wordpools/wasnorm_wordpool_less_exclusions.txt	LTP267	ltpFR	6	11	1	HOOP	716	n/a	0	n/a	n/a	n/a	n/a	n/a
2063.994	n/a	REC_WORD	1031997	wordpools/wasnorm_wordpool_less_exclusions.txt	LTP267	ltpFR	6	11	1	SLACKS	1323	n/a	1	n/a	n/a	n/a	n/a	n/a
2071.054	n/a	REC_WORD	1035527	wordpools/wasnorm_wordpool_less_exclusions.txt	LTP267	ltpFR	6	11	1	HERO	706	n/a	1	n/a	n/a	n/a	n/a	n/a
2073.472	n/a	REC_WORD	1036736	wordpools/wasnorm_wordpool_less_exclusions.txt	LTP267	ltpFR	6	11	n/a	BASKETBALL	96	n/a	n/a	n/a	n/a	n/a	n/a	n/a
2076.498	n/a	REC_WORD	1038249	wordpools/wasnorm_wordpool_less_exclusions.txt	LTP267	ltpFR	6	11	n/a	WITHDRAWN	-1	n/a	n/a	n/a	n/a	n/a	n/a	n/a
2177.444	n/a	WORD	1088722	wordpools/wasnorm_wordpool_less_exclusions.txt	LTP267	ltpFR	6	12	-1	DUSTPAN	509	n/a	-1	1	1.0	1.0	upper	../fonts/Verdana.ttf
2181.498	n/a	WORD	1090749	wordpools/wasnorm_wordpool_less_exclusions.txt	LTP267	ltpFR	6	12	-1	VACUUM	1543	n/a	-1	1	1.0	1.0	upper	../fonts/Verdana.ttf
2185.33	n/a	WORD	1092665	wordpools/wasnorm_wordpool_less_exclusions.txt	LTP267	ltpFR	6	12	-1	WASHCLOTH	1591	n/a	-1	1	1.0	1.0	upper	../fonts/Verdana.ttf
2189.546	n/a	WORD	1094773	wordpools/wasnorm_wordpool_less_exclusions.txt	LTP267	ltpFR	6	12	-1	SPONGE	1355	n/a	-1	1	1.0	1.0	upper	../fonts/Verdana.ttf
2193.756	n/a	WORD	1096878	wordpools/wasnorm_wordpool_less_exclusions.txt	LTP267	ltpFR	6	12	-1	ENVELOPE	537	n/a	-1	1	1.0	1.0	upper	../fonts/Verdana.ttf
2197.644	n/a	WORD	1098822	wordpools/wasnorm_wordpool_less_exclusions.txt	LTP267	ltpFR	6	12	-1	BELL	118	n/a	-1	1	1.0	1.0	upper	../fonts/Verdana.ttf
2201.518	n/a	WORD	1100759	wordpools/wasnorm_wordpool_less_exclusions.txt	LTP267	ltpFR	6	12	-1	TELESCOPE	1446	n/a	-1	1	1.0	1.0	upper	../fonts/Verdana.ttf
2205.472	n/a	WORD	1102736	wordpools/wasnorm_wordpool_less_exclusions.txt	LTP267	ltpFR	6	12	-1	WAGON	1578	n/a	-1	1	1.0	1.0	upper	../fonts/Verdana.ttf
2209.568	n/a	WORD	1104784	wordpools/wasnorm_wordpool_less_exclusions.txt	LTP267	ltpFR	6	12	-1	CHIME	300	n/a	-1	1	1.0	1.0	upper	../fonts/Verdana.ttf
2213.42	n/a	WORD	1106710	wordpools/wasnorm_wordpool_less_exclusions.txt	LTP267	ltpFR	6	12	-1	FACTORY	548	n/a	-1	1	1.0	1.0	upper	../fonts/Verdana.ttf
2217.318	n/a	WORD	1108659	wordpools/wasnorm_wordpool_less_exclusions.txt	LTP267	ltpFR	6	12	-1	BOSS	152	n/a	-1	1	1.0	1.0	upper	../fonts/Verdana.ttf
2221.416	n/a	WORD	1110708	wordpools/wasnorm_wordpool_less_exclusions.txt	LTP267	ltpFR	6	12	-1	MARKER	870	n/a	-1	1	1.0	1.0	upper	../fonts/Verdana.ttf
2225.31	n/a	WORD	1112655	wordpools/wasnorm_wordpool_less_exclusions.txt	LTP267	ltpFR	6	12	-1	CRATER	400	n/a	-1	1	1.0	1.0	upper	../fonts/Verdana.ttf
2229.198	n/a	WORD	1114599	wordpools/wasnorm_wordpool_less_exclusions.txt	LTP267	ltpFR	6	12	-1	ROUGE	1213	n/a	-1	1	1.0	1.0	upper	../fonts/Verdana.ttf
2233.362	n/a	WORD	1116681	wordpools/wasnorm_wordpool_less_exclusions.txt	LTP267	ltpFR	6	12	-1	MALL	860	n/a	-1	1	1.0	1.0	upper	../fonts/Verdana.ttf
2237.294	n/a	WORD	1118647	wordpools/wasnorm_wordpool_less_exclusions.txt	LTP267	ltpFR	6	12	-1	COMPASS	358	n/a	-1	1	1.0	1.0	upper	../fonts/Verdana.ttf
2243.114	n/a	REC_START	1121557	n/a	LTP267	ltpFR	6	12	n/a	n/a	n/a	n/a	n/a	n/a	n/a	n/a	n/a	n/a
2244.456	n/a	REC_WORD	1122228	wordpools/wasnorm_wordpool_less_exclusions.txt	LTP267	ltpFR	6	12	-1	COMPASS	358	n/a	-1	n/a	n/a	n/a	n/a	n/a
2261.914	n/a	REC_WORD	1130957	wordpools/wasnorm_wordpool_less_exclusions.txt	LTP267	ltpFR	6	12	-1	DUSTPAN	509	n/a	-1	n/a	n/a	n/a	n/a	n/a
2265.342	n/a	REC_WORD	1132671	wordpools/wasnorm_wordpool_less_exclusions.txt	LTP267	ltpFR	6	12	-1	TELESCOPE	1446	n/a	-1	n/a	n/a	n/a	n/a	n/a
2267.108	n/a	REC_WORD	1133554	wordpools/wasnorm_wordpool_less_exclusions.txt	LTP267	ltpFR	6	12	-1	CHIME	300	n/a	-1	n/a	n/a	n/a	n/a	n/a
2268.37	n/a	REC_WORD	1134185	wordpools/wasnorm_wordpool_less_exclusions.txt	LTP267	ltpFR	6	12	-1	BELL	118	n/a	-1	n/a	n/a	n/a	n/a	n/a
2270.876	n/a	REC_WORD	1135438	wordpools/wasnorm_wordpool_less_exclusions.txt	LTP267	ltpFR	6	12	n/a	MOP	916	n/a	n/a	n/a	n/a	n/a	n/a	n/a
2272.28	n/a	REC_WORD	1136140	wordpools/wasnorm_wordpool_less_exclusions.txt	LTP267	ltpFR	6	12	-1	VACUUM	1543	n/a	-1	n/a	n/a	n/a	n/a	n/a
2318.768	n/a	REST_REWET	1159384	n/a	LTP267	ltpFR	6	12	n/a	n/a	n/a	n/a	n/a	n/a	n/a	n/a	n/a	n/a
2731.812	n/a	WORD	1365906	wordpools/wasnorm_wordpool_less_exclusions.txt	LTP267	ltpFR	6	13	-1	NIGHTGOWN	953	n/a	-1	1	1.0	1.0	upper	../fonts/Verdana.ttf
2735.832	n/a	WORD	1367916	wordpools/wasnorm_wordpool_less_exclusions.txt	LTP267	ltpFR	6	13	-1	SANDWICH	1232	n/a	-1	1	1.0	1.0	upper	../fonts/Verdana.ttf
2739.71	n/a	WORD	1369855	wordpools/wasnorm_wordpool_less_exclusions.txt	LTP267	ltpFR	6	13	-1	GARLIC	624	n/a	-1	1	1.0	1.0	upper	../fonts/Verdana.ttf
2743.776	n/a	WORD	1371888	wordpools/wasnorm_wordpool_less_exclusions.txt	LTP267	ltpFR	6	13	-1	RADIO	1157	n/a	-1	1	1.0	1.0	upper	../fonts/Verdana.ttf
2747.828	n/a	WORD	1373914	wordpools/wasnorm_wordpool_less_exclusions.txt	LTP267	ltpFR	6	13	-1	DRUM	502	n/a	-1	1	1.0	1.0	upper	../fonts/Verdana.ttf
2751.778	n/a	WORD	1375889	wordpools/wasnorm_wordpool_less_exclusions.txt	LTP267	ltpFR	6	13	-1	TIE	1466	n/a	-1	1	1.0	1.0	upper	../fonts/Verdana.ttf
2755.994	n/a	WORD	1377997	wordpools/wasnorm_wordpool_less_exclusions.txt	LTP267	ltpFR	6	13	-1	TRENCH	1503	n/a	-1	1	1.0	1.0	upper	../fonts/Verdana.ttf
2760.11	n/a	WORD	1380055	wordpools/wasnorm_wordpool_less_exclusions.txt	LTP267	ltpFR	6	13	-1	HANGER	687	n/a	-1	1	1.0	1.0	upper	../fonts/Verdana.ttf
2764.226	n/a	WORD	1382113	wordpools/wasnorm_wordpool_less_exclusions.txt	LTP267	ltpFR	6	13	-1	ARROW	40	n/a	-1	1	1.0	1.0	upper	../fonts/Verdana.ttf
2768.272	n/a	WORD	1384136	wordpools/wasnorm_wordpool_less_exclusions.txt	LTP267	ltpFR	6	13	-1	COLLAR	345	n/a	-1	1	1.0	1.0	upper	../fonts/Verdana.ttf
2772.172	n/a	WORD	1386086	wordpools/wasnorm_wordpool_less_exclusions.txt	LTP267	ltpFR	6	13	-1	ENGINEER	536	n/a	-1	1	1.0	1.0	upper	../fonts/Verdana.ttf
2776.098	n/a	WORD	1388049	wordpools/wasnorm_wordpool_less_exclusions.txt	LTP267	ltpFR	6	13	-1	ATTIRE	57	n/a	-1	1	1.0	1.0	upper	../fonts/Verdana.ttf
2780.318	n/a	WORD	1390159	wordpools/wasnorm_wordpool_less_exclusions.txt	LTP267	ltpFR	6	13	-1	WEB	1598	n/a	-1	1	1.0	1.0	upper	../fonts/Verdana.ttf
2784.396	n/a	WORD	1392198	wordpools/wasnorm_wordpool_less_exclusions.txt	LTP267	ltpFR	6	13	-1	SKUNK	1321	n/a	-1	1	1.0	1.0	upper	../fonts/Verdana.ttf
2788.276	n/a	WORD	1394138	wordpools/wasnorm_wordpool_less_exclusions.txt	LTP267	ltpFR	6	13	-1	TUBA	1515	n/a	-1	1	1.0	1.0	upper	../fonts/Verdana.ttf
2792.464	n/a	WORD	1396232	wordpools/wasnorm_wordpool_less_exclusions.txt	LTP267	ltpFR	6	13	-1	FIDDLE	561	n/a	-1	1	1.0	1.0	upper	../fonts/Verdana.ttf
2798.084	n/a	REC_START	1399042	n/a	LTP267	ltpFR	6	13	n/a	n/a	n/a	n/a	n/a	n/a	n/a	n/a	n/a	n/a
2799.732	n/a	REC_WORD	1399866	wordpools/wasnorm_wordpool_less_exclusions.txt	LTP267	ltpFR	6	13	-1	NIGHTGOWN	953	n/a	-1	n/a	n/a	n/a	n/a	n/a
2800.642	n/a	REC_WORD	1400321	wordpools/wasnorm_wordpool_less_exclusions.txt	LTP267	ltpFR	6	13	-1	SANDWICH	1232	n/a	-1	n/a	n/a	n/a	n/a	n/a
2801.98	n/a	REC_WORD	1400990	wordpools/wasnorm_wordpool_less_exclusions.txt	LTP267	ltpFR	6	13	-1	COLLAR	345	n/a	-1	n/a	n/a	n/a	n/a	n/a
2803.176	n/a	REC_WORD	1401588	wordpools/wasnorm_wordpool_less_exclusions.txt	LTP267	ltpFR	6	13	n/a	RULER	1216	n/a	n/a	n/a	n/a	n/a	n/a	n/a
2804.616	n/a	REC_WORD	1402308	wordpools/wasnorm_wordpool_less_exclusions.txt	LTP267	ltpFR	6	13	-1	GARLIC	624	n/a	-1	n/a	n/a	n/a	n/a	n/a
2805.88	n/a	REC_WORD	1402940	wordpools/wasnorm_wordpool_less_exclusions.txt	LTP267	ltpFR	6	13	-1	DRUM	502	n/a	-1	n/a	n/a	n/a	n/a	n/a
2807.212	n/a	REC_WORD	1403606	wordpools/wasnorm_wordpool_less_exclusions.txt	LTP267	ltpFR	6	13	-1	TUBA	1515	n/a	-1	n/a	n/a	n/a	n/a	n/a
2809.618	n/a	REC_WORD	1404809	wordpools/wasnorm_wordpool_less_exclusions.txt	LTP267	ltpFR	6	13	-1	RADIO	1157	n/a	-1	n/a	n/a	n/a	n/a	n/a
2818.444	n/a	REC_WORD	1409222	wordpools/wasnorm_wordpool_less_exclusions.txt	LTP267	ltpFR	6	13	-1	FIDDLE	561	n/a	-1	n/a	n/a	n/a	n/a	n/a
2935.406	n/a	WORD	1467703	wordpools/wasnorm_wordpool_less_exclusions.txt	LTP267	ltpFR	6	14	0	EDITOR	516	n/a	1	1	0.412841796875	0.57763671875	lower	../fonts/zerothre.ttf
2939.422	n/a	WORD	1469711	wordpools/wasnorm_wordpool_less_exclusions.txt	LTP267	ltpFR	6	14	0	ENGINE	535	n/a	n/a	1	0.412841796875	0.57763671875	lower	../fonts/zerothre.ttf
2942.472	n/a	SLOW_MSG	1471236	n/a	LTP267	ltpFR	6	14	n/a	n/a	n/a	n/a	n/a	n/a	n/a	n/a	n/a	n/a
2944.814	n/a	WORD	1472407	wordpools/wasnorm_wordpool_less_exclusions.txt	LTP267	ltpFR	6	14	0	NOTE	958	n/a	1	1	0.412841796875	0.57763671875	lower	../fonts/zerothre.ttf
2948.982	n/a	WORD	1474491	wordpools/wasnorm_wordpool_less_exclusions.txt	LTP267	ltpFR	6	14	0	SEAL	1262	n/a	1	1	0.412841796875	0.57763671875	lower	../fonts/zerothre.ttf
2952.808	n/a	WORD	1476404	wordpools/wasnorm_wordpool_less_exclusions.txt	LTP267	ltpFR	6	14	1	CATTLE	261	n/a	1	0	0.5869140625	0.422607421875	upper	../fonts/amplitud.ttf
2956.722	n/a	WORD	1478361	wordpools/wasnorm_wordpool_less_exclusions.txt	LTP267	ltpFR	6	14	1	HOUND	724	n/a	1	0	0.5869140625	0.422607421875	upper	../fonts/amplitud.ttf
2960.76	n/a	WORD	1480380	wordpools/wasnorm_wordpool_less_exclusions.txt	LTP267	ltpFR	6	14	1	CAGE	218	n/a	1	0	0.5869140625	0.422607421875	upper	../fonts/amplitud.ttf
2964.64	n/a	WORD	1482320	wordpools/wasnorm_wordpool_less_exclusions.txt	LTP267	ltpFR	6	14	1	NEST	945	n/a	0	0	0.5869140625	0.422607421875	upper	../fonts/amplitud.ttf
2968.622	n/a	WORD	1484311	wordpools/wasnorm_wordpool_less_exclusions.txt	LTP267	ltpFR	6	14	0	PRODUCER	1129	n/a	1	1	0.412841796875	0.57763671875	lower	../fonts/zerothre.ttf
2972.672	n/a	WORD	1486336	wordpools/wasnorm_wordpool_less_exclusions.txt	LTP267	ltpFR	6	14	0	FILM	565	n/a	0	1	0.412841796875	0.57763671875	lower	../fonts/zerothre.ttf
2976.62	n/a	WORD	1488310	wordpools/wasnorm_wordpool_less_exclusions.txt	LTP267	ltpFR	6	14	0	WRITER	1627	n/a	1	1	0.412841796875	0.57763671875	lower	../fonts/zerothre.ttf
2980.618	n/a	WORD	1490309	wordpools/wasnorm_wordpool_less_exclusions.txt	LTP267	ltpFR	6	14	0	PURSE	1145	n/a	1	1	0.412841796875	0.57763671875	lower	../fonts/zerothre.ttf
2984.646	n/a	WORD	1492323	wordpools/wasnorm_wordpool_less_exclusions.txt	LTP267	ltpFR	6	14	1	LIMOUSINE	824	n/a	1	0	0.5869140625	0.422607421875	upper	../fonts/amplitud.ttf
2988.632	n/a	WORD	1494316	wordpools/wasnorm_wordpool_less_exclusions.txt	LTP267	ltpFR	6	14	1	EWE	542	n/a	0	0	0.5869140625	0.422607421875	upper	../fonts/amplitud.ttf
2992.626	n/a	WORD	1496313	wordpools/wasnorm_wordpool_less_exclusions.txt	LTP267	ltpFR	6	14	1	REPTILE	1185	n/a	1	0	0.5869140625	0.422607421875	upper	../fonts/amplitud.ttf
2996.848	n/a	WORD	1498424	wordpools/wasnorm_wordpool_less_exclusions.txt	LTP267	ltpFR	6	14	1	ASSOCIATE	49	n/a	1	0	0.5869140625	0.422607421875	upper	../fonts/amplitud.ttf
3002.764	n/a	REC_START	1501382	n/a	LTP267	ltpFR	6	14	n/a	n/a	n/a	n/a	n/a	n/a	n/a	n/a	n/a	n/a
3003.378	n/a	REC_WORD	1501689	wordpools/wasnorm_wordpool_less_exclusions.txt	LTP267	ltpFR	6	14	1	ASSOCIATE	49	n/a	1	n/a	n/a	n/a	n/a	n/a
3004.648	n/a	REC_WORD	1502324	wordpools/wasnorm_wordpool_less_exclusions.txt	LTP267	ltpFR	6	14	0	PURSE	1145	n/a	1	n/a	n/a	n/a	n/a	n/a
3005.512	n/a	REC_WORD	1502756	wordpools/wasnorm_wordpool_less_exclusions.txt	LTP267	ltpFR	6	14	0	EDITOR	516	n/a	1	n/a	n/a	n/a	n/a	n/a
3006.086	n/a	REC_WORD_VV	1503043	wordpools/wasnorm_wordpool_less_exclusions.txt	LTP267	ltpFR	6	14	n/a	<>	-1	n/a	n/a	n/a	n/a	n/a	n/a	n/a
3007.086	n/a	REC_WORD_VV	1503543	wordpools/wasnorm_wordpool_less_exclusions.txt	LTP267	ltpFR	6	14	n/a	<>	-1	n/a	n/a	n/a	n/a	n/a	n/a	n/a
3008.086	n/a	REC_WORD_VV	1504043	wordpools/wasnorm_wordpool_less_exclusions.txt	LTP267	ltpFR	6	14	n/a	<>	-1	n/a	n/a	n/a	n/a	n/a	n/a	n/a
3009.502	n/a	REC_WORD_VV	1504751	wordpools/wasnorm_wordpool_less_exclusions.txt	LTP267	ltpFR	6	14	n/a	<>	-1	n/a	n/a	n/a	n/a	n/a	n/a	n/a
3010.376	n/a	REC_WORD	1505188	wordpools/wasnorm_wordpool_less_exclusions.txt	LTP267	ltpFR	6	14	0	NOTE	958	n/a	1	n/a	n/a	n/a	n/a	n/a
3011.104	n/a	REC_WORD	1505552	wordpools/wasnorm_wordpool_less_exclusions.txt	LTP267	ltpFR	6	14	0	SEAL	1262	n/a	1	n/a	n/a	n/a	n/a	n/a
3012.512	n/a	REC_WORD	1506256	wordpools/wasnorm_wordpool_less_exclusions.txt	LTP267	ltpFR	6	14	n/a	ISLAND	745	n/a	n/a	n/a	n/a	n/a	n/a	n/a
3015.152	n/a	REC_WORD	1507576	wordpools/wasnorm_wordpool_less_exclusions.txt	LTP267	ltpFR	6	14	n/a	ALLIGATOR	16	n/a	n/a	n/a	n/a	n/a	n/a	n/a
3016.152	n/a	REC_WORD_VV	1508076	wordpools/wasnorm_wordpool_less_exclusions.txt	LTP267	ltpFR	6	14	n/a	<>	-1	n/a	n/a	n/a	n/a	n/a	n/a	n/a
3022.706	n/a	REC_WORD	1511353	wordpools/wasnorm_wordpool_less_exclusions.txt	LTP267	ltpFR	6	14	0	WRITER	1627	n/a	1	n/a	n/a	n/a	n/a	n/a
3112.974	n/a	WORD	1556487	wordpools/wasnorm_wordpool_less_exclusions.txt	LTP267	ltpFR	6	15	1	COACH	331	n/a	1	0	0.5869140625	0.422607421875	upper	../fonts/amplitud.ttf
3116.922	n/a	WORD	1558461	wordpools/wasnorm_wordpool_less_exclusions.txt	LTP267	ltpFR	6	15	1	SOFTBALL	1343	n/a	0	0	0.5869140625	0.422607421875	upper	../fonts/amplitud.ttf
3120.754	n/a	WORD	1560377	wordpools/wasnorm_wordpool_less_exclusions.txt	LTP267	ltpFR	6	15	1	SISTER	1312	n/a	1	0	0.5869140625	0.422607421875	upper	../fonts/amplitud.ttf
3124.602	n/a	WORD	1562301	wordpools/wasnorm_wordpool_less_exclusions.txt	LTP267	ltpFR	6	15	1	OVEN	991	n/a	1	0	0.5869140625	0.422607421875	upper	../fonts/amplitud.ttf
3128.432	n/a	WORD	1564216	wordpools/wasnorm_wordpool_less_exclusions.txt	LTP267	ltpFR	6	15	1	ABDOMEN	1	n/a	1	0	0.5869140625	0.422607421875	upper	../fonts/amplitud.ttf
3132.33	n/a	WORD	1566165	wordpools/wasnorm_wordpool_less_exclusions.txt	LTP267	ltpFR	6	15	1	CIGARETTE	309	n/a	0	0	0.5869140625	0.422607421875	upper	../fonts/amplitud.ttf
3136.296	n/a	WORD	1568148	wordpools/wasnorm_wordpool_less_exclusions.txt	LTP267	ltpFR	6	15	1	BEEF	113	n/a	0	0	0.5869140625	0.422607421875	upper	../fonts/amplitud.ttf
3140.196	n/a	WORD	1570098	wordpools/wasnorm_wordpool_less_exclusions.txt	LTP267	ltpFR	6	15	1	LINT	826	n/a	0	0	0.5869140625	0.422607421875	upper	../fonts/amplitud.ttf
3144.394	n/a	WORD	1572197	wordpools/wasnorm_wordpool_less_exclusions.txt	LTP267	ltpFR	6	15	1	OWNER	993	n/a	1	0	0.5869140625	0.422607421875	upper	../fonts/amplitud.ttf
3148.336	n/a	WORD	1574168	wordpools/wasnorm_wordpool_less_exclusions.txt	LTP267	ltpFR	6	15	1	DOCK	477	n/a	1	0	0.5869140625	0.422607421875	upper	../fonts/amplitud.ttf
3152.356	n/a	WORD	1576178	wordpools/wasnorm_wordpool_less_exclusions.txt	LTP267	ltpFR	6	15	1	POOL	1103	n/a	0	0	0.5869140625	0.422607421875	upper	../fonts/amplitud.ttf
3156.35	n/a	WORD	1578175	wordpools/wasnorm_wordpool_less_exclusions.txt	LTP267	ltpFR	6	15	1	PIGEON	1065	n/a	1	0	0.5869140625	0.422607421875	upper	../fonts/amplitud.ttf
3160.338	n/a	WORD	1580169	wordpools/wasnorm_wordpool_less_exclusions.txt	LTP267	ltpFR	6	15	1	EAGLE	512	n/a	1	0	0.5869140625	0.422607421875	upper	../fonts/amplitud.ttf
3164.198	n/a	WORD	1582099	wordpools/wasnorm_wordpool_less_exclusions.txt	LTP267	ltpFR	6	15	1	ROBE	1198	n/a	0	0	0.5869140625	0.422607421875	upper	../fonts/amplitud.ttf
3168.218	n/a	WORD	1584109	wordpools/wasnorm_wordpool_less_exclusions.txt	LTP267	ltpFR	6	15	1	ASH	44	n/a	1	0	0.5869140625	0.422607421875	upper	../fonts/amplitud.ttf
3172.044	n/a	WORD	1586022	wordpools/wasnorm_wordpool_less_exclusions.txt	LTP267	ltpFR	6	15	1	RAM	1165	n/a	1	0	0.5869140625	0.422607421875	upper	../fonts/amplitud.ttf
3178.002	n/a	REC_START	1589001	n/a	LTP267	ltpFR	6	15	n/a	n/a	n/a	n/a	n/a	n/a	n/a	n/a	n/a	n/a
3178.406	n/a	REC_WORD	1589203	wordpools/wasnorm_wordpool_less_exclusions.txt	LTP267	ltpFR	6	15	1	COACH	331	n/a	1	n/a	n/a	n/a	n/a	n/a
3179.156	n/a	REC_WORD	1589578	wordpools/wasnorm_wordpool_less_exclusions.txt	LTP267	ltpFR	6	15	1	SISTER	1312	n/a	1	n/a	n/a	n/a	n/a	n/a
3180.154	n/a	REC_WORD	1590077	wordpools/wasnorm_wordpool_less_exclusions.txt	LTP267	ltpFR	6	15	n/a	SOCCER	-1	n/a	n/a	n/a	n/a	n/a	n/a	n/a
3181.258	n/a	REC_WORD	1590629	wordpools/wasnorm_wordpool_less_exclusions.txt	LTP267	ltpFR	6	15	1	RAM	1165	n/a	1	n/a	n/a	n/a	n/a	n/a
3182.126	n/a	REC_WORD	1591063	wordpools/wasnorm_wordpool_less_exclusions.txt	LTP267	ltpFR	6	15	1	ASH	44	n/a	1	n/a	n/a	n/a	n/a	n/a
3182.954	n/a	REC_WORD	1591477	wordpools/wasnorm_wordpool_less_exclusions.txt	LTP267	ltpFR	6	15	1	CIGARETTE	309	n/a	0	n/a	n/a	n/a	n/a	n/a
3219.852	n/a	REC_WORD	1609926	wordpools/wasnorm_wordpool_less_exclusions.txt	LTP267	ltpFR	6	15	1	OVEN	991	n/a	1	n/a	n/a	n/a	n/a	n/a
3221.052	n/a	REC_WORD	1610526	wordpools/wasnorm_wordpool_less_exclusions.txt	LTP267	ltpFR	6	15	0	TURKEY	1520	n/a	1	n/a	n/a	n/a	n/a	n/a
3233.352	n/a	REC_WORD	1616676	wordpools/wasnorm_wordpool_less_exclusions.txt	LTP267	ltpFR	6	15	n/a	OX	994	n/a	n/a	n/a	n/a	n/a	n/a	n/a
3275.188	n/a	WORD	1637594	wordpools/wasnorm_wordpool_less_exclusions.txt	LTP267	ltpFR	6	16	1	BOOT	150	n/a	1	0	0.5869140625	0.422607421875	upper	../fonts/amplitud.ttf
3279.192	n/a	WORD	1639596	wordpools/wasnorm_wordpool_less_exclusions.txt	LTP267	ltpFR	6	16	1	MAGICIAN	854	n/a	1	0	0.5869140625	0.422607421875	upper	../fonts/amplitud.ttf
3283.408	n/a	WORD	1641704	wordpools/wasnorm_wordpool_less_exclusions.txt	LTP267	ltpFR	6	16	0	BIRD	129	n/a	1	1	0.412841796875	0.57763671875	lower	../fonts/zerothre.ttf
3287.518	n/a	WORD	1643759	wordpools/wasnorm_wordpool_less_exclusions.txt	LTP267	ltpFR	6	16	0	COBBLER	335	n/a	0	1	0.412841796875	0.57763671875	lower	../fonts/zerothre.ttf
3291.456	n/a	WORD	1645728	wordpools/wasnorm_wordpool_less_exclusions.txt	LTP267	ltpFR	6	16	0	WOLF	1619	n/a	1	1	0.412841796875	0.57763671875	lower	../fonts/zerothre.ttf
3295.466	n/a	WORD	1647733	wordpools/wasnorm_wordpool_less_exclusions.txt	LTP267	ltpFR	6	16	1	BAG	69	n/a	1	0	0.5869140625	0.422607421875	upper	../fonts/amplitud.ttf
3299.552	n/a	WORD	1649776	wordpools/wasnorm_wordpool_less_exclusions.txt	LTP267	ltpFR	6	16	1	SUITCASE	1403	n/a	0	0	0.5869140625	0.422607421875	upper	../fonts/amplitud.ttf
3303.67	n/a	WORD	1651835	wordpools/wasnorm_wordpool_less_exclusions.txt	LTP267	ltpFR	6	16	1	TONGUE	1479	n/a	1	0	0.5869140625	0.422607421875	upper	../fonts/amplitud.ttf
3307.646	n/a	WORD	1653823	wordpools/wasnorm_wordpool_less_exclusions.txt	LTP267	ltpFR	6	16	0	CLOUD	328	n/a	1	1	0.412841796875	0.57763671875	lower	../fonts/zerothre.ttf
3311.684	n/a	WORD	1655842	wordpools/wasnorm_wordpool_less_exclusions.txt	LTP267	ltpFR	6	16	0	ROOT	1210	n/a	1	1	0.412841796875	0.57763671875	lower	../fonts/zerothre.ttf
3315.514	n/a	WORD	1657757	wordpools/wasnorm_wordpool_less_exclusions.txt	LTP267	ltpFR	6	16	0	FIG	563	n/a	1	1	0.412841796875	0.57763671875	lower	../fonts/zerothre.ttf
3319.574	n/a	WORD	1659787	wordpools/wasnorm_wordpool_less_exclusions.txt	LTP267	ltpFR	6	16	0	CANARY	227	n/a	1	1	0.412841796875	0.57763671875	lower	../fonts/zerothre.ttf
3323.612	n/a	WORD	1661806	wordpools/wasnorm_wordpool_less_exclusions.txt	LTP267	ltpFR	6	16	0	ANIMAL	23	n/a	1	1	0.412841796875	0.57763671875	lower	../fonts/zerothre.ttf
3327.494	n/a	WORD	1663747	wordpools/wasnorm_wordpool_less_exclusions.txt	LTP267	ltpFR	6	16	1	SKETCH	1315	n/a	1	0	0.5869140625	0.422607421875	upper	../fonts/amplitud.ttf
3331.66	n/a	WORD	1665830	wordpools/wasnorm_wordpool_less_exclusions.txt	LTP267	ltpFR	6	16	1	PIG	1064	n/a	1	0	0.5869140625	0.422607421875	upper	../fonts/amplitud.ttf
3335.754	n/a	WORD	1667877	wordpools/wasnorm_wordpool_less_exclusions.txt	LTP267	ltpFR	6	16	1	PLANT	1083	n/a	1	0	0.5869140625	0.422607421875	upper	../fonts/amplitud.ttf
3341.728	n/a	REC_START	1670864	n/a	LTP267	ltpFR	6	16	n/a	n/a	n/a	n/a	n/a	n/a	n/a	n/a	n/a	n/a
3342.0	n/a	REC_WORD	1671000	wordpools/wasnorm_wordpool_less_exclusions.txt	LTP267	ltpFR	6	16	0	ROOT	1210	n/a	1	n/a	n/a	n/a	n/a	n/a
3342.684	n/a	REC_WORD	1671342	wordpools/wasnorm_wordpool_less_exclusions.txt	LTP267	ltpFR	6	16	0	FIG	563	n/a	1	n/a	n/a	n/a	n/a	n/a
3343.484	n/a	REC_WORD	1671742	wordpools/wasnorm_wordpool_less_exclusions.txt	LTP267	ltpFR	6	16	0	CANARY	227	n/a	1	n/a	n/a	n/a	n/a	n/a
3344.424	n/a	REC_WORD	1672212	wordpools/wasnorm_wordpool_less_exclusions.txt	LTP267	ltpFR	6	16	1	SKETCH	1315	n/a	1	n/a	n/a	n/a	n/a	n/a
3345.44	n/a	REC_WORD	1672720	wordpools/wasnorm_wordpool_less_exclusions.txt	LTP267	ltpFR	6	16	1	PIG	1064	n/a	1	n/a	n/a	n/a	n/a	n/a
3346.084	n/a	REC_WORD	1673042	wordpools/wasnorm_wordpool_less_exclusions.txt	LTP267	ltpFR	6	16	1	PLANT	1083	n/a	1	n/a	n/a	n/a	n/a	n/a
3347.36	n/a	REC_WORD	1673680	wordpools/wasnorm_wordpool_less_exclusions.txt	LTP267	ltpFR	6	16	-1	COLLAR	345	n/a	-1	n/a	n/a	n/a	n/a	n/a
3352.716	n/a	REC_WORD	1676358	wordpools/wasnorm_wordpool_less_exclusions.txt	LTP267	ltpFR	6	16	0	FIG	563	n/a	1	n/a	n/a	n/a	n/a	n/a
3356.222	n/a	REC_WORD	1678111	wordpools/wasnorm_wordpool_less_exclusions.txt	LTP267	ltpFR	6	16	1	PIG	1064	n/a	1	n/a	n/a	n/a	n/a	n/a
3359.486	n/a	REC_WORD	1679743	wordpools/wasnorm_wordpool_less_exclusions.txt	LTP267	ltpFR	6	16	n/a	FERET	-1	n/a	n/a	n/a	n/a	n/a	n/a	n/a
3366.382	n/a	REC_WORD	1683191	wordpools/wasnorm_wordpool_less_exclusions.txt	LTP267	ltpFR	6	16	1	MAGICIAN	854	n/a	1	n/a	n/a	n/a	n/a	n/a
3372.752	n/a	REC_WORD	1686376	wordpools/wasnorm_wordpool_less_exclusions.txt	LTP267	ltpFR	6	16	n/a	ASSISTANT	48	n/a	n/a	n/a	n/a	n/a	n/a	n/a
3460.452	n/a	REC_START	1730226	n/a	LTP267	ltpFR	6	1	n/a	n/a	n/a	n/a	n/a	n/a	n/a	n/a	n/a	n/a
3460.502	n/a	RECOG_LURE	1730251	n/a	LTP267	ltpFR	6	1	n/a	CYLINDER	432	4	n/a	n/a	n/a	n/a	n/a	n/a
3462.052	n/a	RECOG_RESP	1731026	n/a	LTP267	ltpFR	6	1	n/a	CYLINDER	432	n/a	n/a	n/a	n/a	n/a	n/a	n/a
3463.752	n/a	RECOG_CONF	1731876	n/a	LTP267	ltpFR	6	1	n/a	CYLINDER	432	4	n/a	n/a	n/a	n/a	n/a	n/a
3465.656	n/a	RECOG_LURE	1732828	n/a	LTP267	ltpFR	6	1	n/a	WAITER	1580	2	n/a	n/a	n/a	n/a	n/a	n/a
3466.622	n/a	RECOG_RESP	1733311	n/a	LTP267	ltpFR	6	1	n/a	WAITER	1580	n/a	n/a	n/a	n/a	n/a	n/a	n/a
3467.262	n/a	RECOG_CONF	1733631	n/a	LTP267	ltpFR	6	1	n/a	WAITER	1580	2	n/a	n/a	n/a	n/a	n/a	n/a
3469.168	n/a	RECOG_TARGET	1734584	n/a	LTP267	ltpFR	6	1	1	POOL	1103	5	0	n/a	n/a	n/a	n/a	n/a
3469.842	n/a	RECOG_RESP	1734921	n/a	LTP267	ltpFR	6	1	1	POOL	1103	n/a	0	n/a	n/a	n/a	n/a	n/a
3470.682	n/a	RECOG_CONF	1735341	n/a	LTP267	ltpFR	6	1	1	POOL	1103	5	0	n/a	n/a	n/a	n/a	n/a
3472.564	n/a	RECOG_TARGET	1736282	n/a	LTP267	ltpFR	6	1	0	THIGH	1457	5	1	n/a	n/a	n/a	n/a	n/a
3473.302	n/a	RECOG_RESP	1736651	n/a	LTP267	ltpFR	6	1	0	THIGH	1457	n/a	1	n/a	n/a	n/a	n/a	n/a
3473.952	n/a	RECOG_CONF	1736976	n/a	LTP267	ltpFR	6	1	0	THIGH	1457	5	1	n/a	n/a	n/a	n/a	n/a
3475.524	n/a	RECOG_TARGET	1737762	n/a	LTP267	ltpFR	6	1	0	SALESMAN	1225	3	1	n/a	n/a	n/a	n/a	n/a
3476.248	n/a	RECOG_RESP	1738124	n/a	LTP267	ltpFR	6	1	0	SALESMAN	1225	n/a	1	n/a	n/a	n/a	n/a	n/a
3476.902	n/a	RECOG_CONF	1738451	n/a	LTP267	ltpFR	6	1	0	SALESMAN	1225	3	1	n/a	n/a	n/a	n/a	n/a
3478.52	n/a	RECOG_TARGET	1739260	n/a	LTP267	ltpFR	6	1	1	ANTEATER	26	4	1	n/a	n/a	n/a	n/a	n/a
3479.364	n/a	RECOG_RESP	1739682	n/a	LTP267	ltpFR	6	1	1	ANTEATER	26	n/a	1	n/a	n/a	n/a	n/a	n/a
3479.934	n/a	RECOG_CONF	1739967	n/a	LTP267	ltpFR	6	1	1	ANTEATER	26	4	1	n/a	n/a	n/a	n/a	n/a
3481.712	n/a	RECOG_TARGET	1740856	n/a	LTP267	ltpFR	6	1	-1	RUM	1217	5	-1	n/a	n/a	n/a	n/a	n/a
3482.368	n/a	RECOG_RESP	1741184	n/a	LTP267	ltpFR	6	1	-1	RUM	1217	n/a	-1	n/a	n/a	n/a	n/a	n/a
3482.914	n/a	RECOG_CONF	1741457	n/a	LTP267	ltpFR	6	1	-1	RUM	1217	5	-1	n/a	n/a	n/a	n/a	n/a
3484.472	n/a	RECOG_TARGET	1742236	n/a	LTP267	ltpFR	6	1	1	NITROGEN	954	3	1	n/a	n/a	n/a	n/a	n/a
3485.604	n/a	RECOG_RESP	1742802	n/a	LTP267	ltpFR	6	1	1	NITROGEN	954	n/a	1	n/a	n/a	n/a	n/a	n/a
3486.084	n/a	RECOG_CONF	1743042	n/a	LTP267	ltpFR	6	1	1	NITROGEN	954	3	1	n/a	n/a	n/a	n/a	n/a
3487.734	n/a	RECOG_TARGET	1743867	n/a	LTP267	ltpFR	6	1	-1	ENGINEER	536	4	-1	n/a	n/a	n/a	n/a	n/a
3488.424	n/a	RECOG_RESP	1744212	n/a	LTP267	ltpFR	6	1	-1	ENGINEER	536	n/a	-1	n/a	n/a	n/a	n/a	n/a
3489.004	n/a	RECOG_CONF	1744502	n/a	LTP267	ltpFR	6	1	-1	ENGINEER	536	4	-1	n/a	n/a	n/a	n/a	n/a
3490.516	n/a	RECOG_TARGET	1745258	n/a	LTP267	ltpFR	6	1	1	NET	946	1	0	n/a	n/a	n/a	n/a	n/a
3492.584	n/a	RECOG_RESP	1746292	n/a	LTP267	ltpFR	6	1	1	NET	946	n/a	0	n/a	n/a	n/a	n/a	n/a
3493.344	n/a	RECOG_CONF	1746672	n/a	LTP267	ltpFR	6	1	1	NET	946	1	0	n/a	n/a	n/a	n/a	n/a
3494.962	n/a	RECOG_TARGET	1747481	n/a	LTP267	ltpFR	6	1	-1	BACON	67	4	-1	n/a	n/a	n/a	n/a	n/a
3495.648	n/a	RECOG_RESP	1747824	n/a	LTP267	ltpFR	6	1	-1	BACON	67	n/a	-1	n/a	n/a	n/a	n/a	n/a
3496.024	n/a	RECOG_CONF	1748012	n/a	LTP267	ltpFR	6	1	-1	BACON	67	4	-1	n/a	n/a	n/a	n/a	n/a
3497.694	n/a	RECOG_TARGET	1748847	n/a	LTP267	ltpFR	6	1	-1	TUBA	1515	5	-1	n/a	n/a	n/a	n/a	n/a
3498.234	n/a	RECOG_RESP	1749117	n/a	LTP267	ltpFR	6	1	-1	TUBA	1515	n/a	-1	n/a	n/a	n/a	n/a	n/a
3498.564	n/a	RECOG_CONF	1749282	n/a	LTP267	ltpFR	6	1	-1	TUBA	1515	5	-1	n/a	n/a	n/a	n/a	n/a
3500.482	n/a	RECOG_TARGET	1750241	n/a	LTP267	ltpFR	6	1	1	EAGLE	512	5	1	n/a	n/a	n/a	n/a	n/a
3501.054	n/a	RECOG_RESP	1750527	n/a	LTP267	ltpFR	6	1	1	EAGLE	512	n/a	1	n/a	n/a	n/a	n/a	n/a
3501.344	n/a	RECOG_CONF	1750672	n/a	LTP267	ltpFR	6	1	1	EAGLE	512	5	1	n/a	n/a	n/a	n/a	n/a
3503.014	n/a	RECOG_TARGET	1751507	n/a	LTP267	ltpFR	6	1	-1	BELL	118	5	-1	n/a	n/a	n/a	n/a	n/a
3503.734	n/a	RECOG_RESP	1751867	n/a	LTP267	ltpFR	6	1	-1	BELL	118	n/a	-1	n/a	n/a	n/a	n/a	n/a
3504.124	n/a	RECOG_CONF	1752062	n/a	LTP267	ltpFR	6	1	-1	BELL	118	5	-1	n/a	n/a	n/a	n/a	n/a
3505.72	n/a	RECOG_TARGET	1752860	n/a	LTP267	ltpFR	6	1	1	MOSS	918	1	1	n/a	n/a	n/a	n/a	n/a
3506.534	n/a	RECOG_RESP	1753267	n/a	LTP267	ltpFR	6	1	1	MOSS	918	n/a	1	n/a	n/a	n/a	n/a	n/a
3506.974	n/a	RECOG_CONF	1753487	n/a	LTP267	ltpFR	6	1	1	MOSS	918	1	1	n/a	n/a	n/a	n/a	n/a
3508.562	n/a	RECOG_TARGET	1754281	n/a	LTP267	ltpFR	6	1	-1	BISON	131	2	-1	n/a	n/a	n/a	n/a	n/a
3509.344	n/a	RECOG_RESP	1754672	n/a	LTP267	ltpFR	6	1	-1	BISON	131	n/a	-1	n/a	n/a	n/a	n/a	n/a
3509.974	n/a	RECOG_CONF	1754987	n/a	LTP267	ltpFR	6	1	-1	BISON	131	2	-1	n/a	n/a	n/a	n/a	n/a
3511.714	n/a	RECOG_LURE	1755857	n/a	LTP267	ltpFR	6	1	n/a	SIGNATURE	1306	1	n/a	n/a	n/a	n/a	n/a	n/a
3512.25	n/a	RECOG_RESP	1756125	n/a	LTP267	ltpFR	6	1	n/a	SIGNATURE	1306	n/a	n/a	n/a	n/a	n/a	n/a	n/a
3512.694	n/a	RECOG_CONF	1756347	n/a	LTP267	ltpFR	6	1	n/a	SIGNATURE	1306	1	n/a	n/a	n/a	n/a	n/a	n/a
3514.34	n/a	RECOG_TARGET	1757170	n/a	LTP267	ltpFR	6	1	-1	POWDER	1117	3	-1	n/a	n/a	n/a	n/a	n/a
3515.204	n/a	RECOG_RESP	1757602	n/a	LTP267	ltpFR	6	1	-1	POWDER	1117	n/a	-1	n/a	n/a	n/a	n/a	n/a
3515.634	n/a	RECOG_CONF	1757817	n/a	LTP267	ltpFR	6	1	-1	POWDER	1117	3	-1	n/a	n/a	n/a	n/a	n/a
3517.236	n/a	RECOG_LURE	1758618	n/a	LTP267	ltpFR	6	1	n/a	GLASS	639	3	n/a	n/a	n/a	n/a	n/a	n/a
3517.776	n/a	RECOG_RESP	1758888	n/a	LTP267	ltpFR	6	1	n/a	GLASS	639	n/a	n/a	n/a	n/a	n/a	n/a	n/a
3518.226	n/a	RECOG_CONF	1759113	n/a	LTP267	ltpFR	6	1	n/a	GLASS	639	3	n/a	n/a	n/a	n/a	n/a	n/a
3519.83	n/a	RECOG_TARGET	1759915	n/a	LTP267	ltpFR	6	1	-1	ANKLE	24	1	-1	n/a	n/a	n/a	n/a	n/a
3520.486	n/a	RECOG_RESP_VV	1760243	n/a	LTP267	ltpFR	6	1	-1	ANKLE	24	n/a	-1	n/a	n/a	n/a	n/a	n/a
3520.696	n/a	RECOG_RESP	1760348	n/a	LTP267	ltpFR	6	1	-1	ANKLE	24	n/a	-1	n/a	n/a	n/a	n/a	n/a
3520.946	n/a	RECOG_CONF	1760473	n/a	LTP267	ltpFR	6	1	-1	ANKLE	24	1	-1	n/a	n/a	n/a	n/a	n/a
3541.682	n/a	REC_START	1770841	n/a	LTP267	ltpFR	6	2	n/a	n/a	n/a	n/a	n/a	n/a	n/a	n/a	n/a	n/a
3541.746	n/a	RECOG_TARGET	1770873	n/a	LTP267	ltpFR	6	2	0	MARROW	872	1	1	n/a	n/a	n/a	n/a	n/a
3542.632	n/a	RECOG_RESP	1771316	n/a	LTP267	ltpFR	6	2	0	MARROW	872	n/a	1	n/a	n/a	n/a	n/a	n/a
3543.422	n/a	RECOG_CONF	1771711	n/a	LTP267	ltpFR	6	2	0	MARROW	872	1	1	n/a	n/a	n/a	n/a	n/a
3545.058	n/a	RECOG_TARGET	1772529	n/a	LTP267	ltpFR	6	2	0	EDITOR	516	4	1	n/a	n/a	n/a	n/a	n/a
3545.732	n/a	RECOG_RESP	1772866	n/a	LTP267	ltpFR	6	2	0	EDITOR	516	n/a	1	n/a	n/a	n/a	n/a	n/a
3546.082	n/a	RECOG_CONF	1773041	n/a	LTP267	ltpFR	6	2	0	EDITOR	516	4	1	n/a	n/a	n/a	n/a	n/a
3547.702	n/a	RECOG_LURE	1773851	n/a	LTP267	ltpFR	6	2	n/a	SHOWER	1296	3	n/a	n/a	n/a	n/a	n/a	n/a
3548.582	n/a	RECOG_RESP	1774291	n/a	LTP267	ltpFR	6	2	n/a	SHOWER	1296	n/a	n/a	n/a	n/a	n/a	n/a	n/a
3548.942	n/a	RECOG_CONF	1774471	n/a	LTP267	ltpFR	6	2	n/a	SHOWER	1296	3	n/a	n/a	n/a	n/a	n/a	n/a
3550.624	n/a	RECOG_LURE	1775312	n/a	LTP267	ltpFR	6	2	n/a	SKIN	1318	2	n/a	n/a	n/a	n/a	n/a	n/a
3551.552	n/a	RECOG_RESP	1775776	n/a	LTP267	ltpFR	6	2	n/a	SKIN	1318	n/a	n/a	n/a	n/a	n/a	n/a	n/a
3551.812	n/a	RECOG_CONF	1775906	n/a	LTP267	ltpFR	6	2	n/a	SKIN	1318	2	n/a	n/a	n/a	n/a	n/a	n/a
3553.5	n/a	RECOG_TARGET	1776750	n/a	LTP267	ltpFR	6	2	1	LOBSTER	837	1	1	n/a	n/a	n/a	n/a	n/a
3554.302	n/a	RECOG_RESP	1777151	n/a	LTP267	ltpFR	6	2	1	LOBSTER	837	n/a	1	n/a	n/a	n/a	n/a	n/a
3554.562	n/a	RECOG_CONF	1777281	n/a	LTP267	ltpFR	6	2	1	LOBSTER	837	1	1	n/a	n/a	n/a	n/a	n/a
3556.236	n/a	RECOG_TARGET	1778118	n/a	LTP267	ltpFR	6	2	-1	TIE	1466	1	-1	n/a	n/a	n/a	n/a	n/a
3556.898	n/a	RECOG_RESP	1778449	n/a	LTP267	ltpFR	6	2	-1	TIE	1466	n/a	-1	n/a	n/a	n/a	n/a	n/a
3557.254	n/a	RECOG_CONF	1778627	n/a	LTP267	ltpFR	6	2	-1	TIE	1466	1	-1	n/a	n/a	n/a	n/a	n/a
3559.09	n/a	RECOG_LURE	1779545	n/a	LTP267	ltpFR	6	2	n/a	CABLE	213	1	n/a	n/a	n/a	n/a	n/a	n/a
3559.644	n/a	RECOG_RESP	1779822	n/a	LTP267	ltpFR	6	2	n/a	CABLE	213	n/a	n/a	n/a	n/a	n/a	n/a	n/a
3559.994	n/a	RECOG_CONF	1779997	n/a	LTP267	ltpFR	6	2	n/a	CABLE	213	1	n/a	n/a	n/a	n/a	n/a	n/a
3561.722	n/a	RECOG_TARGET	1780861	n/a	LTP267	ltpFR	6	2	1	ASSOCIATE	49	1	1	n/a	n/a	n/a	n/a	n/a
3562.358	n/a	RECOG_RESP	1781179	n/a	LTP267	ltpFR	6	2	1	ASSOCIATE	49	n/a	1	n/a	n/a	n/a	n/a	n/a
3562.734	n/a	RECOG_CONF	1781367	n/a	LTP267	ltpFR	6	2	1	ASSOCIATE	49	1	1	n/a	n/a	n/a	n/a	n/a
3564.576	n/a	RECOG_TARGET	1782288	n/a	LTP267	ltpFR	6	2	1	PICNIC	1060	3	0	n/a	n/a	n/a	n/a	n/a
3565.238	n/a	RECOG_RESP	1782619	n/a	LTP267	ltpFR	6	2	1	PICNIC	1060	n/a	0	n/a	n/a	n/a	n/a	n/a
3565.604	n/a	RECOG_CONF	1782802	n/a	LTP267	ltpFR	6	2	1	PICNIC	1060	3	0	n/a	n/a	n/a	n/a	n/a
3567.342	n/a	RECOG_TARGET	1783671	n/a	LTP267	ltpFR	6	2	1	COACH	331	1	1	n/a	n/a	n/a	n/a	n/a
3568.198	n/a	RECOG_RESP	1784099	n/a	LTP267	ltpFR	6	2	1	COACH	331	n/a	1	n/a	n/a	n/a	n/a	n/a
3568.604	n/a	RECOG_CONF	1784302	n/a	LTP267	ltpFR	6	2	1	COACH	331	1	1	n/a	n/a	n/a	n/a	n/a
3570.222	n/a	RECOG_TARGET	1785111	n/a	LTP267	ltpFR	6	2	1	LIMOUSINE	824	4	1	n/a	n/a	n/a	n/a	n/a
3570.918	n/a	RECOG_RESP	1785459	n/a	LTP267	ltpFR	6	2	1	LIMOUSINE	824	n/a	1	n/a	n/a	n/a	n/a	n/a
3571.274	n/a	RECOG_CONF	1785637	n/a	LTP267	ltpFR	6	2	1	LIMOUSINE	824	4	1	n/a	n/a	n/a	n/a	n/a
3572.826	n/a	RECOG_TARGET	1786413	n/a	LTP267	ltpFR	6	2	0	FILM	565	5	0	n/a	n/a	n/a	n/a	n/a
3573.394	n/a	RECOG_RESP	1786697	n/a	LTP267	ltpFR	6	2	0	FILM	565	n/a	0	n/a	n/a	n/a	n/a	n/a
3573.714	n/a	RECOG_CONF	1786857	n/a	LTP267	ltpFR	6	2	0	FILM	565	5	0	n/a	n/a	n/a	n/a	n/a
3575.374	n/a	RECOG_LURE	1787687	n/a	LTP267	ltpFR	6	2	n/a	PRINCE	1124	1	n/a	n/a	n/a	n/a	n/a	n/a
3576.14	n/a	RECOG_RESP	1788070	n/a	LTP267	ltpFR	6	2	n/a	PRINCE	1124	n/a	n/a	n/a	n/a	n/a	n/a	n/a
3576.784	n/a	RECOG_CONF	1788392	n/a	LTP267	ltpFR	6	2	n/a	PRINCE	1124	1	n/a	n/a	n/a	n/a	n/a	n/a
3578.548	n/a	RECOG_TARGET	1789274	n/a	LTP267	ltpFR	6	2	0	BERRY	122	5	0	n/a	n/a	n/a	n/a	n/a
3579.314	n/a	RECOG_RESP	1789657	n/a	LTP267	ltpFR	6	2	0	BERRY	122	n/a	0	n/a	n/a	n/a	n/a	n/a
3579.674	n/a	RECOG_CONF	1789837	n/a	LTP267	ltpFR	6	2	0	BERRY	122	5	0	n/a	n/a	n/a	n/a	n/a
3581.38	n/a	RECOG_TARGET	1790690	n/a	LTP267	ltpFR	6	2	0	DIARY	460	4	1	n/a	n/a	n/a	n/a	n/a
3582.0	n/a	RECOG_RESP	1791000	n/a	LTP267	ltpFR	6	2	0	DIARY	460	n/a	1	n/a	n/a	n/a	n/a	n/a
3582.384	n/a	RECOG_CONF	1791192	n/a	LTP267	ltpFR	6	2	0	DIARY	460	4	1	n/a	n/a	n/a	n/a	n/a
3583.974	n/a	RECOG_TARGET	1791987	n/a	LTP267	ltpFR	6	2	0	COSTUME	383	4	1	n/a	n/a	n/a	n/a	n/a
3584.55	n/a	RECOG_RESP	1792275	n/a	LTP267	ltpFR	6	2	0	COSTUME	383	n/a	1	n/a	n/a	n/a	n/a	n/a
3584.904	n/a	RECOG_CONF	1792452	n/a	LTP267	ltpFR	6	2	0	COSTUME	383	4	1	n/a	n/a	n/a	n/a	n/a
3586.712	n/a	RECOG_TARGET	1793356	n/a	LTP267	ltpFR	6	2	1	PLASTER	1085	2	0	n/a	n/a	n/a	n/a	n/a
3587.28	n/a	RECOG_RESP	1793640	n/a	LTP267	ltpFR	6	2	1	PLASTER	1085	n/a	0	n/a	n/a	n/a	n/a	n/a
3587.554	n/a	RECOG_CONF	1793777	n/a	LTP267	ltpFR	6	2	1	PLASTER	1085	2	0	n/a	n/a	n/a	n/a	n/a
3589.278	n/a	RECOG_TARGET	1794639	n/a	LTP267	ltpFR	6	2	0	CANARY	227	n/a	1	n/a	n/a	n/a	n/a	n/a
3591.732	n/a	RECOG_LURE	1795866	n/a	LTP267	ltpFR	6	2	n/a	ROCK	1201	4	n/a	n/a	n/a	n/a	n/a	n/a
3593.316	n/a	RECOG_RESP	1796658	n/a	LTP267	ltpFR	6	2	n/a	ROCK	1201	n/a	n/a	n/a	n/a	n/a	n/a	n/a
3593.726	n/a	RECOG_CONF	1796863	n/a	LTP267	ltpFR	6	2	n/a	ROCK	1201	4	n/a	n/a	n/a	n/a	n/a	n/a
3595.296	n/a	RECOG_TARGET	1797648	n/a	LTP267	ltpFR	6	2	1	PAINT	1003	5	0	n/a	n/a	n/a	n/a	n/a
3596.476	n/a	RECOG_RESP	1798238	n/a	LTP267	ltpFR	6	2	1	PAINT	1003	n/a	0	n/a	n/a	n/a	n/a	n/a
3596.766	n/a	RECOG_CONF	1798383	n/a	LTP267	ltpFR	6	2	1	PAINT	1003	5	0	n/a	n/a	n/a	n/a	n/a
3600.172	n/a	REC_START	1800086	n/a	LTP267	ltpFR	6	3	n/a	n/a	n/a	n/a	n/a	n/a	n/a	n/a	n/a	n/a
3600.236	n/a	RECOG_TARGET	1800118	n/a	LTP267	ltpFR	6	3	1	CHAUFFEUR	283	3	1	n/a	n/a	n/a	n/a	n/a
3601.436	n/a	RECOG_RESP	1800718	n/a	LTP267	ltpFR	6	3	1	CHAUFFEUR	283	n/a	1	n/a	n/a	n/a	n/a	n/a
3601.842	n/a	RECOG_CONF	1800921	n/a	LTP267	ltpFR	6	3	1	CHAUFFEUR	283	3	1	n/a	n/a	n/a	n/a	n/a
3603.576	n/a	RECOG_TARGET	1801788	n/a	LTP267	ltpFR	6	3	0	WAREHOUSE	1588	1	1	n/a	n/a	n/a	n/a	n/a
3604.312	n/a	RECOG_RESP	1802156	n/a	LTP267	ltpFR	6	3	0	WAREHOUSE	1588	n/a	1	n/a	n/a	n/a	n/a	n/a
3604.722	n/a	RECOG_CONF	1802361	n/a	LTP267	ltpFR	6	3	0	WAREHOUSE	1588	1	1	n/a	n/a	n/a	n/a	n/a
3606.42	n/a	RECOG_TARGET	1803210	n/a	LTP267	ltpFR	6	3	0	DUCK	504	4	1	n/a	n/a	n/a	n/a	n/a
3607.062	n/a	RECOG_RESP	1803531	n/a	LTP267	ltpFR	6	3	0	DUCK	504	n/a	1	n/a	n/a	n/a	n/a	n/a
3607.352	n/a	RECOG_CONF	1803676	n/a	LTP267	ltpFR	6	3	0	DUCK	504	4	1	n/a	n/a	n/a	n/a	n/a
3608.936	n/a	RECOG_TARGET	1804468	n/a	LTP267	ltpFR	6	3	1	BAG	69	2	1	n/a	n/a	n/a	n/a	n/a
3609.622	n/a	RECOG_RESP	1804811	n/a	LTP267	ltpFR	6	3	1	BAG	69	n/a	1	n/a	n/a	n/a	n/a	n/a
3609.892	n/a	RECOG_CONF	1804946	n/a	LTP267	ltpFR	6	3	1	BAG	69	2	1	n/a	n/a	n/a	n/a	n/a
3611.428	n/a	RECOG_TARGET	1805714	n/a	LTP267	ltpFR	6	3	1	MACHINE	852	5	1	n/a	n/a	n/a	n/a	n/a
3612.066	n/a	RECOG_RESP	1806033	n/a	LTP267	ltpFR	6	3	1	MACHINE	852	n/a	1	n/a	n/a	n/a	n/a	n/a
3612.332	n/a	RECOG_CONF	1806166	n/a	LTP267	ltpFR	6	3	1	MACHINE	852	5	1	n/a	n/a	n/a	n/a	n/a
3613.872	n/a	RECOG_TARGET	1806936	n/a	LTP267	ltpFR	6	3	1	POLYESTER	1100	4	1	n/a	n/a	n/a	n/a	n/a
3614.672	n/a	RECOG_RESP	1807336	n/a	LTP267	ltpFR	6	3	1	POLYESTER	1100	n/a	1	n/a	n/a	n/a	n/a	n/a
3615.062	n/a	RECOG_CONF	1807531	n/a	LTP267	ltpFR	6	3	1	POLYESTER	1100	4	1	n/a	n/a	n/a	n/a	n/a
3616.816	n/a	RECOG_TARGET	1808408	n/a	LTP267	ltpFR	6	3	0	CROCODILE	411	5	1	n/a	n/a	n/a	n/a	n/a
3617.518	n/a	RECOG_RESP	1808759	n/a	LTP267	ltpFR	6	3	0	CROCODILE	411	n/a	1	n/a	n/a	n/a	n/a	n/a
3617.852	n/a	RECOG_CONF	1808926	n/a	LTP267	ltpFR	6	3	0	CROCODILE	411	5	1	n/a	n/a	n/a	n/a	n/a
3619.492	n/a	RECOG_TARGET	1809746	n/a	LTP267	ltpFR	6	3	-1	COLLAR	345	5	-1	n/a	n/a	n/a	n/a	n/a
3620.012	n/a	RECOG_RESP	1810006	n/a	LTP267	ltpFR	6	3	-1	COLLAR	345	n/a	-1	n/a	n/a	n/a	n/a	n/a
3620.282	n/a	RECOG_CONF	1810141	n/a	LTP267	ltpFR	6	3	-1	COLLAR	345	5	-1	n/a	n/a	n/a	n/a	n/a
3621.898	n/a	RECOG_LURE	1810949	n/a	LTP267	ltpFR	6	3	n/a	TEAPOT	1442	3	n/a	n/a	n/a	n/a	n/a	n/a
3622.682	n/a	RECOG_RESP	1811341	n/a	LTP267	ltpFR	6	3	n/a	TEAPOT	1442	n/a	n/a	n/a	n/a	n/a	n/a	n/a
3622.902	n/a	RECOG_CONF	1811451	n/a	LTP267	ltpFR	6	3	n/a	TEAPOT	1442	3	n/a	n/a	n/a	n/a	n/a	n/a
3624.74	n/a	RECOG_TARGET	1812370	n/a	LTP267	ltpFR	6	3	1	BEEF	113	1	0	n/a	n/a	n/a	n/a	n/a
3625.452	n/a	RECOG_RESP	1812726	n/a	LTP267	ltpFR	6	3	1	BEEF	113	n/a	0	n/a	n/a	n/a	n/a	n/a
3625.732	n/a	RECOG_CONF	1812866	n/a	LTP267	ltpFR	6	3	1	BEEF	113	1	0	n/a	n/a	n/a	n/a	n/a
3627.534	n/a	RECOG_LURE	1813767	n/a	LTP267	ltpFR	6	3	n/a	PHILOSOPHER	1054	5	n/a	n/a	n/a	n/a	n/a	n/a
3628.318	n/a	RECOG_RESP	1814159	n/a	LTP267	ltpFR	6	3	n/a	PHILOSOPHER	1054	n/a	n/a	n/a	n/a	n/a	n/a	n/a
3628.532	n/a	RECOG_CONF	1814266	n/a	LTP267	ltpFR	6	3	n/a	PHILOSOPHER	1054	5	n/a	n/a	n/a	n/a	n/a	n/a
3630.332	n/a	RECOG_LURE	1815166	n/a	LTP267	ltpFR	6	3	n/a	SPINE	1353	3	n/a	n/a	n/a	n/a	n/a	n/a
3631.162	n/a	RECOG_RESP	1815581	n/a	LTP267	ltpFR	6	3	n/a	SPINE	1353	n/a	n/a	n/a	n/a	n/a	n/a	n/a
3631.352	n/a	RECOG_CONF	1815676	n/a	LTP267	ltpFR	6	3	n/a	SPINE	1353	3	n/a	n/a	n/a	n/a	n/a	n/a
3633.046	n/a	RECOG_TARGET	1816523	n/a	LTP267	ltpFR	6	3	1	CONE	363	1	0	n/a	n/a	n/a	n/a	n/a
3635.334	n/a	RECOG_RESP	1817667	n/a	LTP267	ltpFR	6	3	1	CONE	363	n/a	0	n/a	n/a	n/a	n/a	n/a
3635.724	n/a	RECOG_CONF	1817862	n/a	LTP267	ltpFR	6	3	1	CONE	363	1	0	n/a	n/a	n/a	n/a	n/a
3637.31	n/a	RECOG_TARGET	1818655	n/a	LTP267	ltpFR	6	3	0	KIDNEY	776	3	1	n/a	n/a	n/a	n/a	n/a
3638.144	n/a	RECOG_RESP	1819072	n/a	LTP267	ltpFR	6	3	0	KIDNEY	776	n/a	1	n/a	n/a	n/a	n/a	n/a
3638.404	n/a	RECOG_CONF	1819202	n/a	LTP267	ltpFR	6	3	0	KIDNEY	776	3	1	n/a	n/a	n/a	n/a	n/a
3640.0	n/a	RECOG_LURE	1820000	n/a	LTP267	ltpFR	6	3	n/a	VAGRANT	1544	5	n/a	n/a	n/a	n/a	n/a	n/a
3640.924	n/a	RECOG_RESP	1820462	n/a	LTP267	ltpFR	6	3	n/a	VAGRANT	1544	n/a	n/a	n/a	n/a	n/a	n/a	n/a
3641.104	n/a	RECOG_CONF	1820552	n/a	LTP267	ltpFR	6	3	n/a	VAGRANT	1544	5	n/a	n/a	n/a	n/a	n/a	n/a
3642.9	n/a	RECOG_TARGET	1821450	n/a	LTP267	ltpFR	6	3	-1	MARKER	870	1	-1	n/a	n/a	n/a	n/a	n/a
3643.984	n/a	RECOG_RESP	1821992	n/a	LTP267	ltpFR	6	3	-1	MARKER	870	n/a	-1	n/a	n/a	n/a	n/a	n/a
3644.294	n/a	RECOG_CONF	1822147	n/a	LTP267	ltpFR	6	3	-1	MARKER	870	1	-1	n/a	n/a	n/a	n/a	n/a
3646.038	n/a	RECOG_TARGET	1823019	n/a	LTP267	ltpFR	6	3	1	RAM	1165	3	1	n/a	n/a	n/a	n/a	n/a
3646.828	n/a	RECOG_RESP	1823414	n/a	LTP267	ltpFR	6	3	1	RAM	1165	n/a	1	n/a	n/a	n/a	n/a	n/a
3647.184	n/a	RECOG_CONF	1823592	n/a	LTP267	ltpFR	6	3	1	RAM	1165	3	1	n/a	n/a	n/a	n/a	n/a
3648.872	n/a	RECOG_TARGET	1824436	n/a	LTP267	ltpFR	6	3	1	MAT	877	5	0	n/a	n/a	n/a	n/a	n/a
3649.504	n/a	RECOG_RESP	1824752	n/a	LTP267	ltpFR	6	3	1	MAT	877	n/a	0	n/a	n/a	n/a	n/a	n/a
3649.784	n/a	RECOG_CONF	1824892	n/a	LTP267	ltpFR	6	3	1	MAT	877	5	0	n/a	n/a	n/a	n/a	n/a
3651.348	n/a	RECOG_TARGET	1825674	n/a	LTP267	ltpFR	6	3	0	TAPE	1433	4	0	n/a	n/a	n/a	n/a	n/a
3652.63	n/a	RECOG_RESP	1826315	n/a	LTP267	ltpFR	6	3	0	TAPE	1433	n/a	0	n/a	n/a	n/a	n/a	n/a
3652.954	n/a	RECOG_CONF	1826477	n/a	LTP267	ltpFR	6	3	0	TAPE	1433	4	0	n/a	n/a	n/a	n/a	n/a
3654.526	n/a	RECOG_TARGET	1827263	n/a	LTP267	ltpFR	6	3	1	BACKBONE	66	2	0	n/a	n/a	n/a	n/a	n/a
3655.22	n/a	RECOG_RESP	1827610	n/a	LTP267	ltpFR	6	3	1	BACKBONE	66	n/a	0	n/a	n/a	n/a	n/a	n/a
3655.524	n/a	RECOG_CONF	1827762	n/a	LTP267	ltpFR	6	3	1	BACKBONE	66	2	0	n/a	n/a	n/a	n/a	n/a
3659.176	n/a	REC_START	1829588	n/a	LTP267	ltpFR	6	4	n/a	n/a	n/a	n/a	n/a	n/a	n/a	n/a	n/a	n/a
3659.228	n/a	RECOG_TARGET	1829614	n/a	LTP267	ltpFR	6	4	1	TUBE	1516	5	0	n/a	n/a	n/a	n/a	n/a
3659.522	n/a	RECOG_RESP	1829761	n/a	LTP267	ltpFR	6	4	1	TUBE	1516	n/a	0	n/a	n/a	n/a	n/a	n/a
3659.966	n/a	RECOG_CONF	1829983	n/a	LTP267	ltpFR	6	4	1	TUBE	1516	5	0	n/a	n/a	n/a	n/a	n/a
3661.386	n/a	RECOG_LURE	1830693	n/a	LTP267	ltpFR	6	4	n/a	CALENDAR	221	2	n/a	n/a	n/a	n/a	n/a	n/a
3662.296	n/a	RECOG_RESP	1831148	n/a	LTP267	ltpFR	6	4	n/a	CALENDAR	221	n/a	n/a	n/a	n/a	n/a	n/a	n/a
3662.646	n/a	RECOG_CONF	1831323	n/a	LTP267	ltpFR	6	4	n/a	CALENDAR	221	2	n/a	n/a	n/a	n/a	n/a	n/a
3664.298	n/a	RECOG_TARGET	1832149	n/a	LTP267	ltpFR	6	4	1	OWNER	993	3	1	n/a	n/a	n/a	n/a	n/a
3665.136	n/a	RECOG_RESP	1832568	n/a	LTP267	ltpFR	6	4	1	OWNER	993	n/a	1	n/a	n/a	n/a	n/a	n/a
3665.396	n/a	RECOG_CONF	1832698	n/a	LTP267	ltpFR	6	4	1	OWNER	993	3	1	n/a	n/a	n/a	n/a	n/a
3667.152	n/a	RECOG_LURE	1833576	n/a	LTP267	ltpFR	6	4	n/a	CONTAINER	366	4	n/a	n/a	n/a	n/a	n/a	n/a
3667.712	n/a	RECOG_RESP	1833856	n/a	LTP267	ltpFR	6	4	n/a	CONTAINER	366	n/a	n/a	n/a	n/a	n/a	n/a	n/a
3668.006	n/a	RECOG_CONF	1834003	n/a	LTP267	ltpFR	6	4	n/a	CONTAINER	366	4	n/a	n/a	n/a	n/a	n/a	n/a
3669.584	n/a	RECOG_TARGET	1834792	n/a	LTP267	ltpFR	6	4	1	VENT	1556	5	1	n/a	n/a	n/a	n/a	n/a
3670.038	n/a	RECOG_RESP	1835019	n/a	LTP267	ltpFR	6	4	1	VENT	1556	n/a	1	n/a	n/a	n/a	n/a	n/a
3670.378	n/a	RECOG_CONF	1835189	n/a	LTP267	ltpFR	6	4	1	VENT	1556	5	1	n/a	n/a	n/a	n/a	n/a
3672.06	n/a	RECOG_LURE	1836030	n/a	LTP267	ltpFR	6	4	n/a	PIKE	1067	1	n/a	n/a	n/a	n/a	n/a	n/a
3672.502	n/a	RECOG_RESP	1836251	n/a	LTP267	ltpFR	6	4	n/a	PIKE	1067	n/a	n/a	n/a	n/a	n/a	n/a	n/a
3672.788	n/a	RECOG_CONF	1836394	n/a	LTP267	ltpFR	6	4	n/a	PIKE	1067	1	n/a	n/a	n/a	n/a	n/a	n/a
3674.52	n/a	RECOG_TARGET	1837260	n/a	LTP267	ltpFR	6	4	-1	BELT	120	3	-1	n/a	n/a	n/a	n/a	n/a
3675.188	n/a	RECOG_RESP	1837594	n/a	LTP267	ltpFR	6	4	-1	BELT	120	n/a	-1	n/a	n/a	n/a	n/a	n/a
3675.418	n/a	RECOG_CONF	1837709	n/a	LTP267	ltpFR	6	4	-1	BELT	120	3	-1	n/a	n/a	n/a	n/a	n/a
3677.292	n/a	RECOG_TARGET	1838646	n/a	LTP267	ltpFR	6	4	-1	LOOP	844	1	-1	n/a	n/a	n/a	n/a	n/a
3677.882	n/a	RECOG_RESP	1838941	n/a	LTP267	ltpFR	6	4	-1	LOOP	844	n/a	-1	n/a	n/a	n/a	n/a	n/a
3678.368	n/a	RECOG_CONF	1839184	n/a	LTP267	ltpFR	6	4	-1	LOOP	844	1	-1	n/a	n/a	n/a	n/a	n/a
3680.042	n/a	RECOG_LURE	1840021	n/a	LTP267	ltpFR	6	4	n/a	POLITICIAN	1099	n/a	n/a	n/a	n/a	n/a	n/a	n/a
3680.518	n/a	RECOG_RESP_VV	1840259	n/a	LTP267	ltpFR	6	4	n/a	POLITICIAN	1099	n/a	n/a	n/a	n/a	n/a	n/a	n/a
3680.968	n/a	RECOG_RESP	1840484	n/a	LTP267	ltpFR	6	4	n/a	POLITICIAN	1099	n/a	n/a	n/a	n/a	n/a	n/a	n/a
3682.582	n/a	RECOG_TARGET	1841291	n/a	LTP267	ltpFR	6	4	1	LIVER	833	4	0	n/a	n/a	n/a	n/a	n/a
3683.238	n/a	RECOG_RESP	1841619	n/a	LTP267	ltpFR	6	4	1	LIVER	833	n/a	0	n/a	n/a	n/a	n/a	n/a
3683.568	n/a	RECOG_CONF	1841784	n/a	LTP267	ltpFR	6	4	1	LIVER	833	4	0	n/a	n/a	n/a	n/a	n/a
3685.178	n/a	RECOG_TARGET	1842589	n/a	LTP267	ltpFR	6	4	1	KNOB	787	5	0	n/a	n/a	n/a	n/a	n/a
3685.592	n/a	RECOG_RESP	1842796	n/a	LTP267	ltpFR	6	4	1	KNOB	787	n/a	0	n/a	n/a	n/a	n/a	n/a
3685.968	n/a	RECOG_CONF	1842984	n/a	LTP267	ltpFR	6	4	1	KNOB	787	5	0	n/a	n/a	n/a	n/a	n/a
3687.53	n/a	RECOG_TARGET	1843765	n/a	LTP267	ltpFR	6	4	1	CANDIDATE	228	2	1	n/a	n/a	n/a	n/a	n/a
3688.182	n/a	RECOG_RESP	1844091	n/a	LTP267	ltpFR	6	4	1	CANDIDATE	228	n/a	1	n/a	n/a	n/a	n/a	n/a
3688.528	n/a	RECOG_CONF	1844264	n/a	LTP267	ltpFR	6	4	1	CANDIDATE	228	2	1	n/a	n/a	n/a	n/a	n/a
3690.264	n/a	RECOG_TARGET	1845132	n/a	LTP267	ltpFR	6	4	-1	WAGON	1578	3	-1	n/a	n/a	n/a	n/a	n/a
3691.558	n/a	RECOG_RESP	1845779	n/a	LTP267	ltpFR	6	4	-1	WAGON	1578	n/a	-1	n/a	n/a	n/a	n/a	n/a
3692.078	n/a	RECOG_CONF	1846039	n/a	LTP267	ltpFR	6	4	-1	WAGON	1578	3	-1	n/a	n/a	n/a	n/a	n/a
3693.794	n/a	RECOG_TARGET	1846897	n/a	LTP267	ltpFR	6	4	1	ASH	44	5	1	n/a	n/a	n/a	n/a	n/a
3694.534	n/a	RECOG_RESP	1847267	n/a	LTP267	ltpFR	6	4	1	ASH	44	n/a	1	n/a	n/a	n/a	n/a	n/a
3694.868	n/a	RECOG_CONF	1847434	n/a	LTP267	ltpFR	6	4	1	ASH	44	5	1	n/a	n/a	n/a	n/a	n/a
3696.498	n/a	RECOG_LURE	1848249	n/a	LTP267	ltpFR	6	4	n/a	CHAPEL	280	1	n/a	n/a	n/a	n/a	n/a	n/a
3697.368	n/a	RECOG_RESP	1848684	n/a	LTP267	ltpFR	6	4	n/a	CHAPEL	280	n/a	n/a	n/a	n/a	n/a	n/a	n/a
3697.708	n/a	RECOG_CONF	1848854	n/a	LTP267	ltpFR	6	4	n/a	CHAPEL	280	1	n/a	n/a	n/a	n/a	n/a	n/a
3699.448	n/a	RECOG_TARGET	1849724	n/a	LTP267	ltpFR	6	4	0	TABLET	1427	2	0	n/a	n/a	n/a	n/a	n/a
3700.174	n/a	RECOG_RESP	1850087	n/a	LTP267	ltpFR	6	4	0	TABLET	1427	n/a	0	n/a	n/a	n/a	n/a	n/a
3700.498	n/a	RECOG_CONF	1850249	n/a	LTP267	ltpFR	6	4	0	TABLET	1427	2	0	n/a	n/a	n/a	n/a	n/a
3702.302	n/a	RECOG_TARGET	1851151	n/a	LTP267	ltpFR	6	4	1	ATTIC	56	5	1	n/a	n/a	n/a	n/a	n/a
3702.908	n/a	RECOG_RESP	1851454	n/a	LTP267	ltpFR	6	4	1	ATTIC	56	n/a	1	n/a	n/a	n/a	n/a	n/a
3703.298	n/a	RECOG_CONF	1851649	n/a	LTP267	ltpFR	6	4	1	ATTIC	56	5	1	n/a	n/a	n/a	n/a	n/a
3705.02	n/a	RECOG_LURE	1852510	n/a	LTP267	ltpFR	6	4	n/a	BANJO	82	5	n/a	n/a	n/a	n/a	n/a	n/a
3705.678	n/a	RECOG_RESP	1852839	n/a	LTP267	ltpFR	6	4	n/a	BANJO	82	n/a	n/a	n/a	n/a	n/a	n/a	n/a
3705.918	n/a	RECOG_CONF	1852959	n/a	LTP267	ltpFR	6	4	n/a	BANJO	82	5	n/a	n/a	n/a	n/a	n/a	n/a
3707.882	n/a	RECOG_TARGET	1853941	n/a	LTP267	ltpFR	6	4	1	SKETCH	1315	5	1	n/a	n/a	n/a	n/a	n/a
3709.24	n/a	RECOG_RESP	1854620	n/a	LTP267	ltpFR	6	4	1	SKETCH	1315	n/a	1	n/a	n/a	n/a	n/a	n/a
3709.67	n/a	RECOG_CONF	1854835	n/a	LTP267	ltpFR	6	4	1	SKETCH	1315	5	1	n/a	n/a	n/a	n/a	n/a
3711.354	n/a	RECOG_LURE	1855677	n/a	LTP267	ltpFR	6	4	n/a	ROACH	1195	1	n/a	n/a	n/a	n/a	n/a	n/a
3712.064	n/a	RECOG_RESP	1856032	n/a	LTP267	ltpFR	6	4	n/a	ROACH	1195	n/a	n/a	n/a	n/a	n/a	n/a	n/a
3712.44	n/a	RECOG_CONF	1856220	n/a	LTP267	ltpFR	6	4	n/a	ROACH	1195	1	n/a	n/a	n/a	n/a	n/a	n/a
3723.228	n/a	REC_START	1861614	n/a	LTP267	ltpFR	6	5	n/a	n/a	n/a	n/a	n/a	n/a	n/a	n/a	n/a	n/a
3723.272	n/a	RECOG_TARGET	1861636	n/a	LTP267	ltpFR	6	5	0	WOLF	1619	5	1	n/a	n/a	n/a	n/a	n/a
3724.162	n/a	RECOG_RESP	1862081	n/a	LTP267	ltpFR	6	5	0	WOLF	1619	n/a	1	n/a	n/a	n/a	n/a	n/a
3725.218	n/a	RECOG_CONF	1862609	n/a	LTP267	ltpFR	6	5	0	WOLF	1619	5	1	n/a	n/a	n/a	n/a	n/a
3727.054	n/a	RECOG_TARGET	1863527	n/a	LTP267	ltpFR	6	5	0	CLOUD	328	2	1	n/a	n/a	n/a	n/a	n/a
3727.984	n/a	RECOG_RESP	1863992	n/a	LTP267	ltpFR	6	5	0	CLOUD	328	n/a	1	n/a	n/a	n/a	n/a	n/a
3728.318	n/a	RECOG_CONF	1864159	n/a	LTP267	ltpFR	6	5	0	CLOUD	328	2	1	n/a	n/a	n/a	n/a	n/a
3730.05	n/a	RECOG_LURE	1865025	n/a	LTP267	ltpFR	6	5	n/a	SNOB	1335	4	n/a	n/a	n/a	n/a	n/a	n/a
3731.074	n/a	RECOG_RESP	1865537	n/a	LTP267	ltpFR	6	5	n/a	SNOB	1335	n/a	n/a	n/a	n/a	n/a	n/a	n/a
3731.348	n/a	RECOG_CONF	1865674	n/a	LTP267	ltpFR	6	5	n/a	SNOB	1335	4	n/a	n/a	n/a	n/a	n/a	n/a
3733.004	n/a	RECOG_TARGET	1866502	n/a	LTP267	ltpFR	6	5	0	YARD	1630	4	0	n/a	n/a	n/a	n/a	n/a
3733.624	n/a	RECOG_RESP	1866812	n/a	LTP267	ltpFR	6	5	0	YARD	1630	n/a	0	n/a	n/a	n/a	n/a	n/a
3733.938	n/a	RECOG_CONF	1866969	n/a	LTP267	ltpFR	6	5	0	YARD	1630	4	0	n/a	n/a	n/a	n/a	n/a
3735.77	n/a	RECOG_LURE	1867885	n/a	LTP267	ltpFR	6	5	n/a	VILLAGE	1566	1	n/a	n/a	n/a	n/a	n/a	n/a
3736.524	n/a	RECOG_RESP	1868262	n/a	LTP267	ltpFR	6	5	n/a	VILLAGE	1566	n/a	n/a	n/a	n/a	n/a	n/a	n/a
3736.868	n/a	RECOG_CONF	1868434	n/a	LTP267	ltpFR	6	5	n/a	VILLAGE	1566	1	n/a	n/a	n/a	n/a	n/a	n/a
3738.564	n/a	RECOG_TARGET	1869282	n/a	LTP267	ltpFR	6	5	1	PARENT	1013	1	1	n/a	n/a	n/a	n/a	n/a
3739.274	n/a	RECOG_RESP	1869637	n/a	LTP267	ltpFR	6	5	1	PARENT	1013	n/a	1	n/a	n/a	n/a	n/a	n/a
3739.608	n/a	RECOG_CONF	1869804	n/a	LTP267	ltpFR	6	5	1	PARENT	1013	1	1	n/a	n/a	n/a	n/a	n/a
3741.368	n/a	RECOG_TARGET	1870684	n/a	LTP267	ltpFR	6	5	-1	WEB	1598	1	-1	n/a	n/a	n/a	n/a	n/a
3742.058	n/a	RECOG_RESP	1871029	n/a	LTP267	ltpFR	6	5	-1	WEB	1598	n/a	-1	n/a	n/a	n/a	n/a	n/a
3742.398	n/a	RECOG_CONF	1871199	n/a	LTP267	ltpFR	6	5	-1	WEB	1598	1	-1	n/a	n/a	n/a	n/a	n/a
3744.002	n/a	RECOG_TARGET	1872001	n/a	LTP267	ltpFR	6	5	0	SPINACH	1352	4	0	n/a	n/a	n/a	n/a	n/a
3744.448	n/a	RECOG_RESP	1872224	n/a	LTP267	ltpFR	6	5	0	SPINACH	1352	n/a	0	n/a	n/a	n/a	n/a	n/a
3745.188	n/a	RECOG_CONF	1872594	n/a	LTP267	ltpFR	6	5	0	SPINACH	1352	4	0	n/a	n/a	n/a	n/a	n/a
3747.11	n/a	RECOG_TARGET	1873555	n/a	LTP267	ltpFR	6	5	1	EWE	542	5	0	n/a	n/a	n/a	n/a	n/a
3747.8	n/a	RECOG_RESP	1873900	n/a	LTP267	ltpFR	6	5	1	EWE	542	n/a	0	n/a	n/a	n/a	n/a	n/a
3748.16	n/a	RECOG_CONF	1874080	n/a	LTP267	ltpFR	6	5	1	EWE	542	5	0	n/a	n/a	n/a	n/a	n/a
3749.874	n/a	RECOG_TARGET	1874937	n/a	LTP267	ltpFR	6	5	-1	UNIFORM	1539	2	-1	n/a	n/a	n/a	n/a	n/a
3750.56	n/a	RECOG_RESP	1875280	n/a	LTP267	ltpFR	6	5	-1	UNIFORM	1539	n/a	-1	n/a	n/a	n/a	n/a	n/a
3750.89	n/a	RECOG_CONF	1875445	n/a	LTP267	ltpFR	6	5	-1	UNIFORM	1539	2	-1	n/a	n/a	n/a	n/a	n/a
3752.428	n/a	RECOG_TARGET	1876214	n/a	LTP267	ltpFR	6	5	1	SISTER	1312	5	1	n/a	n/a	n/a	n/a	n/a
3752.964	n/a	RECOG_RESP	1876482	n/a	LTP267	ltpFR	6	5	1	SISTER	1312	n/a	1	n/a	n/a	n/a	n/a	n/a
3753.29	n/a	RECOG_CONF	1876645	n/a	LTP267	ltpFR	6	5	1	SISTER	1312	5	1	n/a	n/a	n/a	n/a	n/a
3754.844	n/a	RECOG_TARGET	1877422	n/a	LTP267	ltpFR	6	5	0	ENGINE	535	4	n/a	n/a	n/a	n/a	n/a	n/a
3755.35	n/a	RECOG_RESP	1877675	n/a	LTP267	ltpFR	6	5	0	ENGINE	535	n/a	n/a	n/a	n/a	n/a	n/a	n/a
3755.72	n/a	RECOG_CONF	1877860	n/a	LTP267	ltpFR	6	5	0	ENGINE	535	4	n/a	n/a	n/a	n/a	n/a	n/a
3757.346	n/a	RECOG_TARGET	1878673	n/a	LTP267	ltpFR	6	5	0	CHAMPAGNE	278	5	1	n/a	n/a	n/a	n/a	n/a
3757.884	n/a	RECOG_RESP	1878942	n/a	LTP267	ltpFR	6	5	0	CHAMPAGNE	278	n/a	1	n/a	n/a	n/a	n/a	n/a
3758.19	n/a	RECOG_CONF	1879095	n/a	LTP267	ltpFR	6	5	0	CHAMPAGNE	278	5	1	n/a	n/a	n/a	n/a	n/a
3759.778	n/a	RECOG_TARGET	1879889	n/a	LTP267	ltpFR	6	5	0	PREACHER	1119	3	1	n/a	n/a	n/a	n/a	n/a
3760.324	n/a	RECOG_RESP	1880162	n/a	LTP267	ltpFR	6	5	0	PREACHER	1119	n/a	1	n/a	n/a	n/a	n/a	n/a
3760.63	n/a	RECOG_CONF	1880315	n/a	LTP267	ltpFR	6	5	0	PREACHER	1119	3	1	n/a	n/a	n/a	n/a	n/a
3762.404	n/a	RECOG_TARGET	1881202	n/a	LTP267	ltpFR	6	5	-1	VENUS	1557	5	-1	n/a	n/a	n/a	n/a	n/a
3762.9	n/a	RECOG_RESP	1881450	n/a	LTP267	ltpFR	6	5	-1	VENUS	1557	n/a	-1	n/a	n/a	n/a	n/a	n/a
3763.19	n/a	RECOG_CONF	1881595	n/a	LTP267	ltpFR	6	5	-1	VENUS	1557	5	-1	n/a	n/a	n/a	n/a	n/a
3764.928	n/a	RECOG_TARGET	1882464	n/a	LTP267	ltpFR	6	5	0	COUSIN	392	3	0	n/a	n/a	n/a	n/a	n/a
3765.736	n/a	RECOG_RESP	1882868	n/a	LTP267	ltpFR	6	5	0	COUSIN	392	n/a	0	n/a	n/a	n/a	n/a	n/a
3766.11	n/a	RECOG_CONF	1883055	n/a	LTP267	ltpFR	6	5	0	COUSIN	392	3	0	n/a	n/a	n/a	n/a	n/a
3767.856	n/a	RECOG_TARGET	1883928	n/a	LTP267	ltpFR	6	5	0	COTTON	385	4	0	n/a	n/a	n/a	n/a	n/a
3768.42	n/a	RECOG_RESP	1884210	n/a	LTP267	ltpFR	6	5	0	COTTON	385	n/a	0	n/a	n/a	n/a	n/a	n/a
3768.75	n/a	RECOG_CONF	1884375	n/a	LTP267	ltpFR	6	5	0	COTTON	385	4	0	n/a	n/a	n/a	n/a	n/a
3770.27	n/a	RECOG_TARGET	1885135	n/a	LTP267	ltpFR	6	5	0	CORAL	378	2	0	n/a	n/a	n/a	n/a	n/a
3770.866	n/a	RECOG_RESP	1885433	n/a	LTP267	ltpFR	6	5	0	CORAL	378	n/a	0	n/a	n/a	n/a	n/a	n/a
3771.14	n/a	RECOG_CONF	1885570	n/a	LTP267	ltpFR	6	5	0	CORAL	378	2	0	n/a	n/a	n/a	n/a	n/a
3772.93	n/a	RECOG_LURE	1886465	n/a	LTP267	ltpFR	6	5	n/a	LOBBY	836	1	n/a	n/a	n/a	n/a	n/a	n/a
3773.3	n/a	RECOG_RESP	1886650	n/a	LTP267	ltpFR	6	5	n/a	LOBBY	836	n/a	n/a	n/a	n/a	n/a	n/a	n/a
3773.6	n/a	RECOG_CONF	1886800	n/a	LTP267	ltpFR	6	5	n/a	LOBBY	836	1	n/a	n/a	n/a	n/a	n/a	n/a
3775.354	n/a	RECOG_TARGET	1887677	n/a	LTP267	ltpFR	6	5	-1	MOTEL	919	5	-1	n/a	n/a	n/a	n/a	n/a
3775.776	n/a	RECOG_RESP	1887888	n/a	LTP267	ltpFR	6	5	-1	MOTEL	919	n/a	-1	n/a	n/a	n/a	n/a	n/a
3776.08	n/a	RECOG_CONF	1888040	n/a	LTP267	ltpFR	6	5	-1	MOTEL	919	5	-1	n/a	n/a	n/a	n/a	n/a
3779.826	n/a	REC_START	1889913	n/a	LTP267	ltpFR	6	6	n/a	n/a	n/a	n/a	n/a	n/a	n/a	n/a	n/a	n/a
3779.872	n/a	RECOG_TARGET	1889936	n/a	LTP267	ltpFR	6	6	0	KNEE	784	2	0	n/a	n/a	n/a	n/a	n/a
3780.616	n/a	RECOG_RESP	1890308	n/a	LTP267	ltpFR	6	6	0	KNEE	784	n/a	0	n/a	n/a	n/a	n/a	n/a
3780.956	n/a	RECOG_CONF	1890478	n/a	LTP267	ltpFR	6	6	0	KNEE	784	2	0	n/a	n/a	n/a	n/a	n/a
3782.65	n/a	RECOG_TARGET	1891325	n/a	LTP267	ltpFR	6	6	-1	CELLAR	267	3	-1	n/a	n/a	n/a	n/a	n/a
3783.206	n/a	RECOG_RESP	1891603	n/a	LTP267	ltpFR	6	6	-1	CELLAR	267	n/a	-1	n/a	n/a	n/a	n/a	n/a
3783.576	n/a	RECOG_CONF	1891788	n/a	LTP267	ltpFR	6	6	-1	CELLAR	267	3	-1	n/a	n/a	n/a	n/a	n/a
3785.244	n/a	RECOG_LURE	1892622	n/a	LTP267	ltpFR	6	6	n/a	TACK	1428	4	n/a	n/a	n/a	n/a	n/a	n/a
3785.602	n/a	RECOG_RESP	1892801	n/a	LTP267	ltpFR	6	6	n/a	TACK	1428	n/a	n/a	n/a	n/a	n/a	n/a	n/a
3785.976	n/a	RECOG_CONF	1892988	n/a	LTP267	ltpFR	6	6	n/a	TACK	1428	4	n/a	n/a	n/a	n/a	n/a	n/a
3787.652	n/a	RECOG_TARGET	1893826	n/a	LTP267	ltpFR	6	6	1	HOUND	724	5	1	n/a	n/a	n/a	n/a	n/a
3788.086	n/a	RECOG_RESP	1894043	n/a	LTP267	ltpFR	6	6	1	HOUND	724	n/a	1	n/a	n/a	n/a	n/a	n/a
3788.426	n/a	RECOG_CONF	1894213	n/a	LTP267	ltpFR	6	6	1	HOUND	724	5	1	n/a	n/a	n/a	n/a	n/a
3790.128	n/a	RECOG_TARGET	1895064	n/a	LTP267	ltpFR	6	6	-1	NIGHTGOWN	953	5	-1	n/a	n/a	n/a	n/a	n/a
3790.676	n/a	RECOG_RESP	1895338	n/a	LTP267	ltpFR	6	6	-1	NIGHTGOWN	953	n/a	-1	n/a	n/a	n/a	n/a	n/a
3790.996	n/a	RECOG_CONF	1895498	n/a	LTP267	ltpFR	6	6	-1	NIGHTGOWN	953	5	-1	n/a	n/a	n/a	n/a	n/a
3792.582	n/a	RECOG_TARGET	1896291	n/a	LTP267	ltpFR	6	6	-1	GUARDIAN	668	5	-1	n/a	n/a	n/a	n/a	n/a
3793.082	n/a	RECOG_RESP	1896541	n/a	LTP267	ltpFR	6	6	-1	GUARDIAN	668	n/a	-1	n/a	n/a	n/a	n/a	n/a
3793.326	n/a	RECOG_CONF	1896663	n/a	LTP267	ltpFR	6	6	-1	GUARDIAN	668	5	-1	n/a	n/a	n/a	n/a	n/a
3795.058	n/a	RECOG_TARGET	1897529	n/a	LTP267	ltpFR	6	6	1	HOOD	714	5	0	n/a	n/a	n/a	n/a	n/a
3795.522	n/a	RECOG_RESP	1897761	n/a	LTP267	ltpFR	6	6	1	HOOD	714	n/a	0	n/a	n/a	n/a	n/a	n/a
3795.836	n/a	RECOG_CONF	1897918	n/a	LTP267	ltpFR	6	6	1	HOOD	714	5	0	n/a	n/a	n/a	n/a	n/a
3797.384	n/a	RECOG_TARGET	1898692	n/a	LTP267	ltpFR	6	6	0	ELM	527	2	1	n/a	n/a	n/a	n/a	n/a
3797.846	n/a	RECOG_RESP	1898923	n/a	LTP267	ltpFR	6	6	0	ELM	527	n/a	1	n/a	n/a	n/a	n/a	n/a
3798.156	n/a	RECOG_CONF	1899078	n/a	LTP267	ltpFR	6	6	0	ELM	527	2	1	n/a	n/a	n/a	n/a	n/a
3799.742	n/a	RECOG_LURE	1899871	n/a	LTP267	ltpFR	6	6	n/a	TRUMPET	1513	5	n/a	n/a	n/a	n/a	n/a	n/a
3800.162	n/a	RECOG_RESP	1900081	n/a	LTP267	ltpFR	6	6	n/a	TRUMPET	1513	n/a	n/a	n/a	n/a	n/a	n/a	n/a
3800.506	n/a	RECOG_CONF	1900253	n/a	LTP267	ltpFR	6	6	n/a	TRUMPET	1513	5	n/a	n/a	n/a	n/a	n/a	n/a
3802.136	n/a	RECOG_TARGET	1901068	n/a	LTP267	ltpFR	6	6	0	CHIMPANZEE	302	5	1	n/a	n/a	n/a	n/a	n/a
3802.466	n/a	RECOG_RESP	1901233	n/a	LTP267	ltpFR	6	6	0	CHIMPANZEE	302	n/a	1	n/a	n/a	n/a	n/a	n/a
3802.786	n/a	RECOG_CONF	1901393	n/a	LTP267	ltpFR	6	6	0	CHIMPANZEE	302	5	1	n/a	n/a	n/a	n/a	n/a
3804.366	n/a	RECOG_TARGET	1902183	n/a	LTP267	ltpFR	6	6	1	MOTHER	921	4	1	n/a	n/a	n/a	n/a	n/a
3804.822	n/a	RECOG_RESP	1902411	n/a	LTP267	ltpFR	6	6	1	MOTHER	921	n/a	1	n/a	n/a	n/a	n/a	n/a
3805.098	n/a	RECOG_CONF	1902549	n/a	LTP267	ltpFR	6	6	1	MOTHER	921	4	1	n/a	n/a	n/a	n/a	n/a
3806.86	n/a	RECOG_TARGET	1903430	n/a	LTP267	ltpFR	6	6	0	TUNA	1518	5	0	n/a	n/a	n/a	n/a	n/a
3807.268	n/a	RECOG_RESP	1903634	n/a	LTP267	ltpFR	6	6	0	TUNA	1518	n/a	0	n/a	n/a	n/a	n/a	n/a
3807.608	n/a	RECOG_CONF	1903804	n/a	LTP267	ltpFR	6	6	0	TUNA	1518	5	0	n/a	n/a	n/a	n/a	n/a
3809.328	n/a	RECOG_TARGET	1904664	n/a	LTP267	ltpFR	6	6	1	BASEBALL	93	3	0	n/a	n/a	n/a	n/a	n/a
3809.742	n/a	RECOG_RESP	1904871	n/a	LTP267	ltpFR	6	6	1	BASEBALL	93	n/a	0	n/a	n/a	n/a	n/a	n/a
3810.018	n/a	RECOG_CONF	1905009	n/a	LTP267	ltpFR	6	6	1	BASEBALL	93	3	0	n/a	n/a	n/a	n/a	n/a
3811.762	n/a	RECOG_TARGET	1905881	n/a	LTP267	ltpFR	6	6	1	CIGARETTE	309	5	0	n/a	n/a	n/a	n/a	n/a
3812.118	n/a	RECOG_RESP	1906059	n/a	LTP267	ltpFR	6	6	1	CIGARETTE	309	n/a	0	n/a	n/a	n/a	n/a	n/a
3812.398	n/a	RECOG_CONF	1906199	n/a	LTP267	ltpFR	6	6	1	CIGARETTE	309	5	0	n/a	n/a	n/a	n/a	n/a
3814.17	n/a	RECOG_TARGET	1907085	n/a	LTP267	ltpFR	6	6	0	RIB	1188	3	0	n/a	n/a	n/a	n/a	n/a
3814.562	n/a	RECOG_RESP	1907281	n/a	LTP267	ltpFR	6	6	0	RIB	1188	n/a	0	n/a	n/a	n/a	n/a	n/a
3814.878	n/a	RECOG_CONF	1907439	n/a	LTP267	ltpFR	6	6	0	RIB	1188	3	0	n/a	n/a	n/a	n/a	n/a
3816.562	n/a	RECOG_TARGET	1908281	n/a	LTP267	ltpFR	6	6	1	TONGUE	1479	2	1	n/a	n/a	n/a	n/a	n/a
3816.948	n/a	RECOG_RESP	1908474	n/a	LTP267	ltpFR	6	6	1	TONGUE	1479	n/a	1	n/a	n/a	n/a	n/a	n/a
3817.228	n/a	RECOG_CONF	1908614	n/a	LTP267	ltpFR	6	6	1	TONGUE	1479	2	1	n/a	n/a	n/a	n/a	n/a
3818.866	n/a	RECOG_TARGET	1909433	n/a	LTP267	ltpFR	6	6	1	SCOUT	1252	3	1	n/a	n/a	n/a	n/a	n/a
3819.222	n/a	RECOG_RESP	1909611	n/a	LTP267	ltpFR	6	6	1	SCOUT	1252	n/a	1	n/a	n/a	n/a	n/a	n/a
3819.568	n/a	RECOG_CONF	1909784	n/a	LTP267	ltpFR	6	6	1	SCOUT	1252	3	1	n/a	n/a	n/a	n/a	n/a
3821.246	n/a	RECOG_TARGET	1910623	n/a	LTP267	ltpFR	6	6	0	BIRD	129	4	1	n/a	n/a	n/a	n/a	n/a
3821.692	n/a	RECOG_RESP	1910846	n/a	LTP267	ltpFR	6	6	0	BIRD	129	n/a	1	n/a	n/a	n/a	n/a	n/a
3822.108	n/a	RECOG_CONF	1911054	n/a	LTP267	ltpFR	6	6	0	BIRD	129	4	1	n/a	n/a	n/a	n/a	n/a
3823.79	n/a	RECOG_TARGET	1911895	n/a	LTP267	ltpFR	6	6	1	HOOP	716	2	0	n/a	n/a	n/a	n/a	n/a
3824.254	n/a	RECOG_RESP	1912127	n/a	LTP267	ltpFR	6	6	1	HOOP	716	n/a	0	n/a	n/a	n/a	n/a	n/a
3824.598	n/a	RECOG_CONF	1912299	n/a	LTP267	ltpFR	6	6	1	HOOP	716	2	0	n/a	n/a	n/a	n/a	n/a
3826.316	n/a	RECOG_TARGET	1913158	n/a	LTP267	ltpFR	6	6	-1	BEARD	107	5	-1	n/a	n/a	n/a	n/a	n/a
3826.654	n/a	RECOG_RESP	1913327	n/a	LTP267	ltpFR	6	6	-1	BEARD	107	n/a	-1	n/a	n/a	n/a	n/a	n/a
3826.968	n/a	RECOG_CONF	1913484	n/a	LTP267	ltpFR	6	6	-1	BEARD	107	5	-1	n/a	n/a	n/a	n/a	n/a
3830.698	n/a	REC_START	1915349	n/a	LTP267	ltpFR	6	7	n/a	n/a	n/a	n/a	n/a	n/a	n/a	n/a	n/a	n/a
3830.75	n/a	RECOG_LURE	1915375	n/a	LTP267	ltpFR	6	7	n/a	THIMBLE	1458	3	n/a	n/a	n/a	n/a	n/a	n/a
3831.598	n/a	RECOG_RESP	1915799	n/a	LTP267	ltpFR	6	7	n/a	THIMBLE	1458	n/a	n/a	n/a	n/a	n/a	n/a	n/a
3831.978	n/a	RECOG_CONF	1915989	n/a	LTP267	ltpFR	6	7	n/a	THIMBLE	1458	3	n/a	n/a	n/a	n/a	n/a	n/a
3833.694	n/a	RECOG_TARGET	1916847	n/a	LTP267	ltpFR	6	7	1	MICROPHONE	890	5	1	n/a	n/a	n/a	n/a	n/a
3834.088	n/a	RECOG_RESP	1917044	n/a	LTP267	ltpFR	6	7	1	MICROPHONE	890	n/a	1	n/a	n/a	n/a	n/a	n/a
3834.428	n/a	RECOG_CONF	1917214	n/a	LTP267	ltpFR	6	7	1	MICROPHONE	890	5	1	n/a	n/a	n/a	n/a	n/a
3835.986	n/a	RECOG_TARGET	1917993	n/a	LTP267	ltpFR	6	7	-1	VACUUM	1543	4	-1	n/a	n/a	n/a	n/a	n/a
3836.348	n/a	RECOG_RESP	1918174	n/a	LTP267	ltpFR	6	7	-1	VACUUM	1543	n/a	-1	n/a	n/a	n/a	n/a	n/a
3836.768	n/a	RECOG_CONF	1918384	n/a	LTP267	ltpFR	6	7	-1	VACUUM	1543	4	-1	n/a	n/a	n/a	n/a	n/a
3838.512	n/a	RECOG_TARGET	1919256	n/a	LTP267	ltpFR	6	7	1	NEST	945	5	0	n/a	n/a	n/a	n/a	n/a
3838.994	n/a	RECOG_RESP	1919497	n/a	LTP267	ltpFR	6	7	1	NEST	945	n/a	0	n/a	n/a	n/a	n/a	n/a
3839.398	n/a	RECOG_CONF	1919699	n/a	LTP267	ltpFR	6	7	1	NEST	945	5	0	n/a	n/a	n/a	n/a	n/a
3841.09	n/a	RECOG_TARGET	1920545	n/a	LTP267	ltpFR	6	7	1	SILVERWARE	1308	2	0	n/a	n/a	n/a	n/a	n/a
3841.61	n/a	RECOG_RESP	1920805	n/a	LTP267	ltpFR	6	7	1	SILVERWARE	1308	n/a	0	n/a	n/a	n/a	n/a	n/a
3841.95	n/a	RECOG_CONF	1920975	n/a	LTP267	ltpFR	6	7	1	SILVERWARE	1308	2	0	n/a	n/a	n/a	n/a	n/a
3843.582	n/a	RECOG_TARGET	1921791	n/a	LTP267	ltpFR	6	7	1	BOTTLE	153	4	0	n/a	n/a	n/a	n/a	n/a
3843.96	n/a	RECOG_RESP	1921980	n/a	LTP267	ltpFR	6	7	1	BOTTLE	153	n/a	0	n/a	n/a	n/a	n/a	n/a
3844.28	n/a	RECOG_CONF	1922140	n/a	LTP267	ltpFR	6	7	1	BOTTLE	153	4	0	n/a	n/a	n/a	n/a	n/a
3846.008	n/a	RECOG_TARGET	1923004	n/a	LTP267	ltpFR	6	7	0	SEAL	1262	5	1	n/a	n/a	n/a	n/a	n/a
3846.324	n/a	RECOG_RESP	1923162	n/a	LTP267	ltpFR	6	7	0	SEAL	1262	n/a	1	n/a	n/a	n/a	n/a	n/a
3846.88	n/a	RECOG_CONF	1923440	n/a	LTP267	ltpFR	6	7	0	SEAL	1262	5	1	n/a	n/a	n/a	n/a	n/a
3848.416	n/a	RECOG_TARGET	1924208	n/a	LTP267	ltpFR	6	7	1	CAGE	218	4	1	n/a	n/a	n/a	n/a	n/a
3848.824	n/a	RECOG_RESP	1924412	n/a	LTP267	ltpFR	6	7	1	CAGE	218	n/a	1	n/a	n/a	n/a	n/a	n/a
3849.35	n/a	RECOG_CONF	1924675	n/a	LTP267	ltpFR	6	7	1	CAGE	218	4	1	n/a	n/a	n/a	n/a	n/a
3851.112	n/a	RECOG_LURE	1925556	n/a	LTP267	ltpFR	6	7	n/a	RESTAURANT	1187	3	n/a	n/a	n/a	n/a	n/a	n/a
