mstime	trial_type	stim_file	subject	experiment	session	trial	task	item_name	item_num	recog_conf	resp	answer	test_x	test_y	test_z	color_b	color_g	color_r	case	font
0	SESS_START	n/a	LTP287	ltpFR	12	n/a	n/a	n/a	n/a	1	n/a	n/a	0	0	0	n/a	n/a	n/a	n/a	n/a
30921	START	n/a	LTP287	ltpFR	12	n/a	n/a	n/a	n/a	n/a	n/a	n/a	n/a	n/a	n/a	n/a	n/a	n/a	n/a	n/a
30954	PROB	n/a	LTP287	ltpFR	12	n/a	n/a	n/a	n/a	n/a	n/a	13	9	1	3	n/a	n/a	n/a	n/a	n/a
32384	PROB	n/a	LTP287	ltpFR	12	n/a	n/a	n/a	n/a	n/a	n/a	12	2	2	8	n/a	n/a	n/a	n/a	n/a
34714	PROB	n/a	LTP287	ltpFR	12	n/a	n/a	n/a	n/a	n/a	n/a	20	7	7	6	n/a	n/a	n/a	n/a	n/a
36295	PROB	n/a	LTP287	ltpFR	12	n/a	n/a	n/a	n/a	n/a	n/a	10	1	6	3	n/a	n/a	n/a	n/a	n/a
37793	PROB	n/a	LTP287	ltpFR	12	n/a	n/a	n/a	n/a	n/a	n/a	10	1	7	2	n/a	n/a	n/a	n/a	n/a
39607	PROB	n/a	LTP287	ltpFR	12	n/a	n/a	n/a	n/a	n/a	n/a	15	2	7	6	n/a	n/a	n/a	n/a	n/a
41753	PROB	n/a	LTP287	ltpFR	12	n/a	n/a	n/a	n/a	n/a	n/a	15	6	8	1	n/a	n/a	n/a	n/a	n/a
43800	PROB	n/a	LTP287	ltpFR	12	n/a	n/a	n/a	n/a	n/a	n/a	20	9	5	6	n/a	n/a	n/a	n/a	n/a
46679	PROB	n/a	LTP287	ltpFR	12	n/a	n/a	n/a	n/a	n/a	n/a	11	4	6	1	n/a	n/a	n/a	n/a	n/a
48062	PROB	n/a	LTP287	ltpFR	12	n/a	n/a	n/a	n/a	n/a	n/a	19	5	9	5	n/a	n/a	n/a	n/a	n/a
49423	STOP	n/a	LTP287	ltpFR	12	n/a	n/a	n/a	n/a	n/a	n/a	n/a	n/a	n/a	n/a	n/a	n/a	n/a	n/a	n/a
85189	WORD	wordpools/wasnorm_wordpool_less_exclusions.txt	LTP287	ltpFR	12	1	1	WINDOW	1611	n/a	0	n/a	0	0	0	0	0.5869140625	0.422607421875	upper	../fonts/amplitud.ttf
89349	WORD	wordpools/wasnorm_wordpool_less_exclusions.txt	LTP287	ltpFR	12	1	1	DOOR	486	n/a	0	n/a	0	0	0	0	0.5869140625	0.422607421875	upper	../fonts/amplitud.ttf
93443	WORD	wordpools/wasnorm_wordpool_less_exclusions.txt	LTP287	ltpFR	12	1	1	JAM	748	n/a	0	n/a	0	0	0	0	0.5869140625	0.422607421875	upper	../fonts/amplitud.ttf
97354	WORD	wordpools/wasnorm_wordpool_less_exclusions.txt	LTP287	ltpFR	12	1	1	SPOOL	1356	n/a	0	n/a	0	0	0	0	0.5869140625	0.422607421875	upper	../fonts/amplitud.ttf
101348	WORD	wordpools/wasnorm_wordpool_less_exclusions.txt	LTP287	ltpFR	12	1	1	MOAT	903	n/a	0	n/a	0	0	0	0	0.5869140625	0.422607421875	upper	../fonts/amplitud.ttf
105392	WORD	wordpools/wasnorm_wordpool_less_exclusions.txt	LTP287	ltpFR	12	1	1	LAKE	796	n/a	0	n/a	0	0	0	0	0.5869140625	0.422607421875	upper	../fonts/amplitud.ttf
109219	WORD	wordpools/wasnorm_wordpool_less_exclusions.txt	LTP287	ltpFR	12	1	1	VEST	1559	n/a	0	n/a	0	0	0	0	0.5869140625	0.422607421875	upper	../fonts/amplitud.ttf
113330	WORD	wordpools/wasnorm_wordpool_less_exclusions.txt	LTP287	ltpFR	12	1	1	COLT	349	n/a	1	n/a	0	0	0	0	0.5869140625	0.422607421875	upper	../fonts/amplitud.ttf
117324	WORD	wordpools/wasnorm_wordpool_less_exclusions.txt	LTP287	ltpFR	12	1	1	KITCHEN	778	n/a	0	n/a	0	0	0	0	0.5869140625	0.422607421875	upper	../fonts/amplitud.ttf
121301	WORD	wordpools/wasnorm_wordpool_less_exclusions.txt	LTP287	ltpFR	12	1	1	SINK	1309	n/a	0	n/a	0	0	0	0	0.5869140625	0.422607421875	upper	../fonts/amplitud.ttf
125130	WORD	wordpools/wasnorm_wordpool_less_exclusions.txt	LTP287	ltpFR	12	1	1	STALLION	1369	n/a	1	n/a	0	0	0	0	0.5869140625	0.422607421875	upper	../fonts/amplitud.ttf
129190	WORD	wordpools/wasnorm_wordpool_less_exclusions.txt	LTP287	ltpFR	12	1	1	CORAL	378	n/a	1	n/a	0	0	0	0	0.5869140625	0.422607421875	upper	../fonts/amplitud.ttf
133300	WORD	wordpools/wasnorm_wordpool_less_exclusions.txt	LTP287	ltpFR	12	1	1	SWEATER	1419	n/a	0	n/a	0	0	0	0	0.5869140625	0.422607421875	upper	../fonts/amplitud.ttf
137494	WORD	wordpools/wasnorm_wordpool_less_exclusions.txt	LTP287	ltpFR	12	1	1	MONGOOSE	909	n/a	1	n/a	0	0	0	0	0.5869140625	0.422607421875	upper	../fonts/amplitud.ttf
141621	WORD	wordpools/wasnorm_wordpool_less_exclusions.txt	LTP287	ltpFR	12	1	1	CANARY	227	n/a	1	n/a	0	0	0	0	0.5869140625	0.422607421875	upper	../fonts/amplitud.ttf
145515	WORD	wordpools/wasnorm_wordpool_less_exclusions.txt	LTP287	ltpFR	12	1	1	CREVICE	405	n/a	0	n/a	0	0	0	0	0.5869140625	0.422607421875	upper	../fonts/amplitud.ttf
148528	START	n/a	LTP287	ltpFR	12	n/a	n/a	n/a	n/a	n/a	n/a	n/a	n/a	n/a	n/a	n/a	n/a	n/a	n/a	n/a
149443	PROB	n/a	LTP287	ltpFR	12	n/a	n/a	n/a	n/a	n/a	n/a	14	2	4	8	n/a	n/a	n/a	n/a	n/a
151340	PROB	n/a	LTP287	ltpFR	12	n/a	n/a	n/a	n/a	n/a	n/a	14	6	4	6	n/a	n/a	n/a	n/a	n/a
152555	PROB	n/a	LTP287	ltpFR	12	n/a	n/a	n/a	n/a	n/a	n/a	13	1	5	7	n/a	n/a	n/a	n/a	n/a
154419	PROB	n/a	LTP287	ltpFR	12	n/a	n/a	n/a	n/a	n/a	n/a	15	6	6	3	n/a	n/a	n/a	n/a	n/a
155679	STOP	n/a	LTP287	ltpFR	12	n/a	n/a	n/a	n/a	n/a	n/a	n/a	n/a	n/a	n/a	n/a	n/a	n/a	n/a	n/a
158413	REC_START	n/a	LTP287	ltpFR	12	1	n/a	n/a	n/a	n/a	n/a	n/a	0	0	0	n/a	n/a	n/a	n/a	n/a
159780	REC_WORD	wordpools/wasnorm_wordpool_less_exclusions.txt	LTP287	ltpFR	12	1	1	DOOR	486	n/a	0	n/a	0	0	0	n/a	n/a	n/a	n/a	n/a
161190	REC_WORD	wordpools/wasnorm_wordpool_less_exclusions.txt	LTP287	ltpFR	12	1	1	WINDOW	1611	n/a	0	n/a	0	0	0	n/a	n/a	n/a	n/a	n/a
162434	REC_WORD	wordpools/wasnorm_wordpool_less_exclusions.txt	LTP287	ltpFR	12	1	1	JAM	748	n/a	0	n/a	0	0	0	n/a	n/a	n/a	n/a	n/a
163563	REC_WORD	wordpools/wasnorm_wordpool_less_exclusions.txt	LTP287	ltpFR	12	1	1	MOAT	903	n/a	0	n/a	0	0	0	n/a	n/a	n/a	n/a	n/a
164627	REC_WORD	wordpools/wasnorm_wordpool_less_exclusions.txt	LTP287	ltpFR	12	1	1	LAKE	796	n/a	0	n/a	0	0	0	n/a	n/a	n/a	n/a	n/a
165844	REC_WORD	wordpools/wasnorm_wordpool_less_exclusions.txt	LTP287	ltpFR	12	1	1	CREVICE	405	n/a	0	n/a	0	0	0	n/a	n/a	n/a	n/a	n/a
166838	REC_WORD	wordpools/wasnorm_wordpool_less_exclusions.txt	LTP287	ltpFR	12	1	1	STALLION	1369	n/a	1	n/a	0	0	0	n/a	n/a	n/a	n/a	n/a
168032	REC_WORD	wordpools/wasnorm_wordpool_less_exclusions.txt	LTP287	ltpFR	12	1	1	CANARY	227	n/a	1	n/a	0	0	0	n/a	n/a	n/a	n/a	n/a
169143	REC_WORD	wordpools/wasnorm_wordpool_less_exclusions.txt	LTP287	ltpFR	12	1	1	MONGOOSE	909	n/a	1	n/a	0	0	0	n/a	n/a	n/a	n/a	n/a
170465	REC_WORD	wordpools/wasnorm_wordpool_less_exclusions.txt	LTP287	ltpFR	12	1	1	CORAL	378	n/a	1	n/a	0	0	0	n/a	n/a	n/a	n/a	n/a
171497	REC_WORD	wordpools/wasnorm_wordpool_less_exclusions.txt	LTP287	ltpFR	12	1	1	SWEATER	1419	n/a	0	n/a	0	0	0	n/a	n/a	n/a	n/a	n/a
173127	REC_WORD	wordpools/wasnorm_wordpool_less_exclusions.txt	LTP287	ltpFR	12	1	1	COLT	349	n/a	1	n/a	0	0	0	n/a	n/a	n/a	n/a	n/a
174091	REC_WORD	wordpools/wasnorm_wordpool_less_exclusions.txt	LTP287	ltpFR	12	1	1	VEST	1559	n/a	0	n/a	0	0	0	n/a	n/a	n/a	n/a	n/a
175132	REC_WORD	wordpools/wasnorm_wordpool_less_exclusions.txt	LTP287	ltpFR	12	1	1	KITCHEN	778	n/a	0	n/a	0	0	0	n/a	n/a	n/a	n/a	n/a
175995	REC_WORD	wordpools/wasnorm_wordpool_less_exclusions.txt	LTP287	ltpFR	12	1	1	SINK	1309	n/a	0	n/a	0	0	0	n/a	n/a	n/a	n/a	n/a
182855	REC_WORD	wordpools/wasnorm_wordpool_less_exclusions.txt	LTP287	ltpFR	12	1	1	SPOOL	1356	n/a	0	n/a	0	0	0	n/a	n/a	n/a	n/a	n/a
247230	START	n/a	LTP287	ltpFR	12	n/a	n/a	n/a	n/a	n/a	n/a	n/a	n/a	n/a	n/a	n/a	n/a	n/a	n/a	n/a
248744	PROB	n/a	LTP287	ltpFR	12	n/a	n/a	n/a	n/a	n/a	n/a	16	5	4	7	n/a	n/a	n/a	n/a	n/a
251657	PROB	n/a	LTP287	ltpFR	12	n/a	n/a	n/a	n/a	n/a	n/a	20	9	7	4	n/a	n/a	n/a	n/a	n/a
253775	STOP	n/a	LTP287	ltpFR	12	n/a	n/a	n/a	n/a	n/a	n/a	n/a	n/a	n/a	n/a	n/a	n/a	n/a	n/a	n/a
256366	WORD	wordpools/wasnorm_wordpool_less_exclusions.txt	LTP287	ltpFR	12	2	1	ANGEL	22	n/a	0	n/a	0	0	0	0	0.5869140625	0.422607421875	upper	../fonts/amplitud.ttf
259379	START	n/a	LTP287	ltpFR	12	n/a	n/a	n/a	n/a	n/a	n/a	n/a	n/a	n/a	n/a	n/a	n/a	n/a	n/a	n/a
260310	PROB	n/a	LTP287	ltpFR	12	n/a	n/a	n/a	n/a	n/a	n/a	16	4	5	7	n/a	n/a	n/a	n/a	n/a
262540	PROB	n/a	LTP287	ltpFR	12	n/a	n/a	n/a	n/a	n/a	n/a	18	7	4	7	n/a	n/a	n/a	n/a	n/a
263855	PROB	n/a	LTP287	ltpFR	12	n/a	n/a	n/a	n/a	n/a	n/a	18	2	8	8	n/a	n/a	n/a	n/a	n/a
266151	STOP	n/a	LTP287	ltpFR	12	n/a	n/a	n/a	n/a	n/a	n/a	n/a	n/a	n/a	n/a	n/a	n/a	n/a	n/a	n/a
268332	WORD	wordpools/wasnorm_wordpool_less_exclusions.txt	LTP287	ltpFR	12	2	1	FAN	551	n/a	0	n/a	0	0	0	0	0.5869140625	0.422607421875	upper	../fonts/amplitud.ttf
271344	START	n/a	LTP287	ltpFR	12	n/a	n/a	n/a	n/a	n/a	n/a	n/a	n/a	n/a	n/a	n/a	n/a	n/a	n/a	n/a
272176	PROB	n/a	LTP287	ltpFR	12	n/a	n/a	n/a	n/a	n/a	n/a	8	2	1	5	n/a	n/a	n/a	n/a	n/a
273624	PROB	n/a	LTP287	ltpFR	12	n/a	n/a	n/a	n/a	n/a	n/a	10	2	6	2	n/a	n/a	n/a	n/a	n/a
275171	PROB	n/a	LTP287	ltpFR	12	n/a	n/a	n/a	n/a	n/a	n/a	7	1	5	1	n/a	n/a	n/a	n/a	n/a
276503	PROB	n/a	LTP287	ltpFR	12	n/a	n/a	n/a	n/a	n/a	n/a	14	8	4	2	n/a	n/a	n/a	n/a	n/a
277952	STOP	n/a	LTP287	ltpFR	12	n/a	n/a	n/a	n/a	n/a	n/a	n/a	n/a	n/a	n/a	n/a	n/a	n/a	n/a	n/a
280214	WORD	wordpools/wasnorm_wordpool_less_exclusions.txt	LTP287	ltpFR	12	2	1	CAR	241	n/a	0	n/a	0	0	0	0	0.5869140625	0.422607421875	upper	../fonts/amplitud.ttf
283227	START	n/a	LTP287	ltpFR	12	n/a	n/a	n/a	n/a	n/a	n/a	n/a	n/a	n/a	n/a	n/a	n/a	n/a	n/a	n/a
284142	PROB	n/a	LTP287	ltpFR	12	n/a	n/a	n/a	n/a	n/a	n/a	20	7	6	7	n/a	n/a	n/a	n/a	n/a
285656	PROB	n/a	LTP287	ltpFR	12	n/a	n/a	n/a	n/a	n/a	n/a	23	9	6	8	n/a	n/a	n/a	n/a	n/a
288335	PROB	n/a	LTP287	ltpFR	12	n/a	n/a	n/a	n/a	n/a	n/a	12	4	2	6	n/a	n/a	n/a	n/a	n/a
290032	STOP	n/a	LTP287	ltpFR	12	n/a	n/a	n/a	n/a	n/a	n/a	n/a	n/a	n/a	n/a	n/a	n/a	n/a	n/a	n/a
292246	WORD	wordpools/wasnorm_wordpool_less_exclusions.txt	LTP287	ltpFR	12	2	1	CLERK	321	n/a	1	n/a	0	0	0	0	0.5869140625	0.422607421875	upper	../fonts/amplitud.ttf
295259	START	n/a	LTP287	ltpFR	12	n/a	n/a	n/a	n/a	n/a	n/a	n/a	n/a	n/a	n/a	n/a	n/a	n/a	n/a	n/a
296273	PROB	n/a	LTP287	ltpFR	12	n/a	n/a	n/a	n/a	n/a	n/a	25	8	9	8	n/a	n/a	n/a	n/a	n/a
298354	PROB	n/a	LTP287	ltpFR	12	n/a	n/a	n/a	n/a	n/a	n/a	16	2	5	9	n/a	n/a	n/a	n/a	n/a
300450	PROB	n/a	LTP287	ltpFR	12	n/a	n/a	n/a	n/a	n/a	n/a	23	7	7	9	n/a	n/a	n/a	n/a	n/a
302303	STOP	n/a	LTP287	ltpFR	12	n/a	n/a	n/a	n/a	n/a	n/a	n/a	n/a	n/a	n/a	n/a	n/a	n/a	n/a	n/a
304096	WORD	wordpools/wasnorm_wordpool_less_exclusions.txt	LTP287	ltpFR	12	2	1	MOON	914	n/a	0	n/a	0	0	0	0	0.5869140625	0.422607421875	upper	../fonts/amplitud.ttf
307109	START	n/a	LTP287	ltpFR	12	n/a	n/a	n/a	n/a	n/a	n/a	n/a	n/a	n/a	n/a	n/a	n/a	n/a	n/a	n/a
308239	PROB	n/a	LTP287	ltpFR	12	n/a	n/a	n/a	n/a	n/a	n/a	16	6	2	8	n/a	n/a	n/a	n/a	n/a
310619	PROB	n/a	LTP287	ltpFR	12	n/a	n/a	n/a	n/a	n/a	n/a	19	3	7	9	n/a	n/a	n/a	n/a	n/a
311968	PROB	n/a	LTP287	ltpFR	12	n/a	n/a	n/a	n/a	n/a	n/a	16	2	8	6	n/a	n/a	n/a	n/a	n/a
313348	PROB	n/a	LTP287	ltpFR	12	n/a	n/a	n/a	n/a	n/a	n/a	8	1	6	1	n/a	n/a	n/a	n/a	n/a
314335	STOP	n/a	LTP287	ltpFR	12	n/a	n/a	n/a	n/a	n/a	n/a	n/a	n/a	n/a	n/a	n/a	n/a	n/a	n/a	n/a
316012	WORD	wordpools/wasnorm_wordpool_less_exclusions.txt	LTP287	ltpFR	12	2	1	HORIZON	717	n/a	0	n/a	0	0	0	0	0.5869140625	0.422607421875	upper	../fonts/amplitud.ttf
319024	START	n/a	LTP287	ltpFR	12	n/a	n/a	n/a	n/a	n/a	n/a	n/a	n/a	n/a	n/a	n/a	n/a	n/a	n/a	n/a
320055	PROB	n/a	LTP287	ltpFR	12	n/a	n/a	n/a	n/a	n/a	n/a	15	9	2	4	n/a	n/a	n/a	n/a	n/a
321619	PROB	n/a	LTP287	ltpFR	12	n/a	n/a	n/a	n/a	n/a	n/a	20	8	3	9	n/a	n/a	n/a	n/a	n/a
324764	PROB	n/a	LTP287	ltpFR	12	n/a	n/a	n/a	n/a	n/a	n/a	13	5	3	5	n/a	n/a	n/a	n/a	n/a
326543	STOP	n/a	LTP287	ltpFR	12	n/a	n/a	n/a	n/a	n/a	n/a	n/a	n/a	n/a	n/a	n/a	n/a	n/a	n/a	n/a
328226	WORD	wordpools/wasnorm_wordpool_less_exclusions.txt	LTP287	ltpFR	12	2	1	WALRUS	1585	n/a	1	n/a	0	0	0	0	0.5869140625	0.422607421875	upper	../fonts/amplitud.ttf
331238	START	n/a	LTP287	ltpFR	12	n/a	n/a	n/a	n/a	n/a	n/a	n/a	n/a	n/a	n/a	n/a	n/a	n/a	n/a	n/a
332436	PROB	n/a	LTP287	ltpFR	12	n/a	n/a	n/a	n/a	n/a	n/a	8	1	1	6	n/a	n/a	n/a	n/a	n/a
333584	PROB	n/a	LTP287	ltpFR	12	n/a	n/a	n/a	n/a	n/a	n/a	17	9	2	6	n/a	n/a	n/a	n/a	n/a
335298	PROB	n/a	LTP287	ltpFR	12	n/a	n/a	n/a	n/a	n/a	n/a	10	5	1	4	n/a	n/a	n/a	n/a	n/a
339238	STOP	n/a	LTP287	ltpFR	12	n/a	n/a	n/a	n/a	n/a	n/a	n/a	n/a	n/a	n/a	n/a	n/a	n/a	n/a	n/a
340324	WORD	wordpools/wasnorm_wordpool_less_exclusions.txt	LTP287	ltpFR	12	2	1	CAMEL	223	n/a	1	n/a	0	0	0	0	0.5869140625	0.422607421875	upper	../fonts/amplitud.ttf
343337	START	n/a	LTP287	ltpFR	12	n/a	n/a	n/a	n/a	n/a	n/a	n/a	n/a	n/a	n/a	n/a	n/a	n/a	n/a	n/a
344418	PROB	n/a	LTP287	ltpFR	12	n/a	n/a	n/a	n/a	n/a	n/a	17	2	6	9	n/a	n/a	n/a	n/a	n/a
346199	PROB	n/a	LTP287	ltpFR	12	n/a	n/a	n/a	n/a	n/a	n/a	19	9	3	7	n/a	n/a	n/a	n/a	n/a
348064	PROB	n/a	LTP287	ltpFR	12	n/a	n/a	n/a	n/a	n/a	n/a	12	2	6	4	n/a	n/a	n/a	n/a	n/a
351337	STOP	n/a	LTP287	ltpFR	12	n/a	n/a	n/a	n/a	n/a	n/a	n/a	n/a	n/a	n/a	n/a	n/a	n/a	n/a	n/a
352223	WORD	wordpools/wasnorm_wordpool_less_exclusions.txt	LTP287	ltpFR	12	2	1	SCREWDRIVER	1255	n/a	0	n/a	0	0	0	0	0.5869140625	0.422607421875	upper	../fonts/amplitud.ttf
355236	START	n/a	LTP287	ltpFR	12	n/a	n/a	n/a	n/a	n/a	n/a	n/a	n/a	n/a	n/a	n/a	n/a	n/a	n/a	n/a
356334	PROB	n/a	LTP287	ltpFR	12	n/a	n/a	n/a	n/a	n/a	n/a	17	9	1	7	n/a	n/a	n/a	n/a	n/a
357582	PROB	n/a	LTP287	ltpFR	12	n/a	n/a	n/a	n/a	n/a	n/a	17	7	5	5	n/a	n/a	n/a	n/a	n/a
358881	PROB	n/a	LTP287	ltpFR	12	n/a	n/a	n/a	n/a	n/a	n/a	16	8	7	1	n/a	n/a	n/a	n/a	n/a
360644	PROB	n/a	LTP287	ltpFR	12	n/a	n/a	n/a	n/a	n/a	n/a	11	6	2	3	n/a	n/a	n/a	n/a	n/a
362655	STOP	n/a	LTP287	ltpFR	12	n/a	n/a	n/a	n/a	n/a	n/a	n/a	n/a	n/a	n/a	n/a	n/a	n/a	n/a	n/a
364288	WORD	wordpools/wasnorm_wordpool_less_exclusions.txt	LTP287	ltpFR	12	2	1	EMPLOYEE	531	n/a	1	n/a	0	0	0	0	0.5869140625	0.422607421875	upper	../fonts/amplitud.ttf
367301	START	n/a	LTP287	ltpFR	12	n/a	n/a	n/a	n/a	n/a	n/a	n/a	n/a	n/a	n/a	n/a	n/a	n/a	n/a	n/a
368466	PROB	n/a	LTP287	ltpFR	12	n/a	n/a	n/a	n/a	n/a	n/a	13	6	4	3	n/a	n/a	n/a	n/a	n/a
369948	PROB	n/a	LTP287	ltpFR	12	n/a	n/a	n/a	n/a	n/a	n/a	18	8	5	5	n/a	n/a	n/a	n/a	n/a
371195	PROB	n/a	LTP287	ltpFR	12	n/a	n/a	n/a	n/a	n/a	n/a	12	7	3	2	n/a	n/a	n/a	n/a	n/a
372426	PROB	n/a	LTP287	ltpFR	12	n/a	n/a	n/a	n/a	n/a	n/a	12	2	8	2	n/a	n/a	n/a	n/a	n/a
375301	STOP	n/a	LTP287	ltpFR	12	n/a	n/a	n/a	n/a	n/a	n/a	n/a	n/a	n/a	n/a	n/a	n/a	n/a	n/a	n/a
376420	WORD	wordpools/wasnorm_wordpool_less_exclusions.txt	LTP287	ltpFR	12	2	1	TIDE	1465	n/a	0	n/a	0	0	0	0	0.5869140625	0.422607421875	upper	../fonts/amplitud.ttf
379433	START	n/a	LTP287	ltpFR	12	n/a	n/a	n/a	n/a	n/a	n/a	n/a	n/a	n/a	n/a	n/a	n/a	n/a	n/a	n/a
380564	PROB	n/a	LTP287	ltpFR	12	n/a	n/a	n/a	n/a	n/a	n/a	10	4	4	2	n/a	n/a	n/a	n/a	n/a
381963	PROB	n/a	LTP287	ltpFR	12	n/a	n/a	n/a	n/a	n/a	n/a	9	4	2	3	n/a	n/a	n/a	n/a	n/a
383993	PROB	n/a	LTP287	ltpFR	12	n/a	n/a	n/a	n/a	n/a	n/a	19	7	6	6	n/a	n/a	n/a	n/a	n/a
387433	STOP	n/a	LTP287	ltpFR	12	n/a	n/a	n/a	n/a	n/a	n/a	n/a	n/a	n/a	n/a	n/a	n/a	n/a	n/a	n/a
388253	WORD	wordpools/wasnorm_wordpool_less_exclusions.txt	LTP287	ltpFR	12	2	1	ARTERY	41	n/a	0	n/a	0	0	0	0	0.5869140625	0.422607421875	upper	../fonts/amplitud.ttf
391265	START	n/a	LTP287	ltpFR	12	n/a	n/a	n/a	n/a	n/a	n/a	n/a	n/a	n/a	n/a	n/a	n/a	n/a	n/a	n/a
392247	PROB	n/a	LTP287	ltpFR	12	n/a	n/a	n/a	n/a	n/a	n/a	13	8	2	3	n/a	n/a	n/a	n/a	n/a
393445	PROB	n/a	LTP287	ltpFR	12	n/a	n/a	n/a	n/a	n/a	n/a	7	3	3	1	n/a	n/a	n/a	n/a	n/a
394760	PROB	n/a	LTP287	ltpFR	12	n/a	n/a	n/a	n/a	n/a	n/a	17	4	9	4	n/a	n/a	n/a	n/a	n/a
396757	PROB	n/a	LTP287	ltpFR	12	n/a	n/a	n/a	n/a	n/a	n/a	22	8	6	8	n/a	n/a	n/a	n/a	n/a
398471	STOP	n/a	LTP287	ltpFR	12	n/a	n/a	n/a	n/a	n/a	n/a	n/a	n/a	n/a	n/a	n/a	n/a	n/a	n/a	n/a
400418	WORD	wordpools/wasnorm_wordpool_less_exclusions.txt	LTP287	ltpFR	12	2	1	DRIVER	499	n/a	1	n/a	0	0	0	0	0.5869140625	0.422607421875	upper	../fonts/amplitud.ttf
403430	START	n/a	LTP287	ltpFR	12	n/a	n/a	n/a	n/a	n/a	n/a	n/a	n/a	n/a	n/a	n/a	n/a	n/a	n/a	n/a
404279	PROB	n/a	LTP287	ltpFR	12	n/a	n/a	n/a	n/a	n/a	n/a	21	9	8	4	n/a	n/a	n/a	n/a	n/a
406575	PROB	n/a	LTP287	ltpFR	12	n/a	n/a	n/a	n/a	n/a	n/a	15	1	8	6	n/a	n/a	n/a	n/a	n/a
408606	PROB	n/a	LTP287	ltpFR	12	n/a	n/a	n/a	n/a	n/a	n/a	12	1	5	6	n/a	n/a	n/a	n/a	n/a
410847	STOP	n/a	LTP287	ltpFR	12	n/a	n/a	n/a	n/a	n/a	n/a	n/a	n/a	n/a	n/a	n/a	n/a	n/a	n/a	n/a
412350	WORD	wordpools/wasnorm_wordpool_less_exclusions.txt	LTP287	ltpFR	12	2	1	TOWER	1490	n/a	0	n/a	0	0	0	0	0.5869140625	0.422607421875	upper	../fonts/amplitud.ttf
415363	START	n/a	LTP287	ltpFR	12	n/a	n/a	n/a	n/a	n/a	n/a	n/a	n/a	n/a	n/a	n/a	n/a	n/a	n/a	n/a
416311	PROB	n/a	LTP287	ltpFR	12	n/a	n/a	n/a	n/a	n/a	n/a	16	5	9	2	n/a	n/a	n/a	n/a	n/a
418391	PROB	n/a	LTP287	ltpFR	12	n/a	n/a	n/a	n/a	n/a	n/a	17	5	4	8	n/a	n/a	n/a	n/a	n/a
420538	PROB	n/a	LTP287	ltpFR	12	n/a	n/a	n/a	n/a	n/a	n/a	14	7	5	2	n/a	n/a	n/a	n/a	n/a
422407	STOP	n/a	LTP287	ltpFR	12	n/a	n/a	n/a	n/a	n/a	n/a	n/a	n/a	n/a	n/a	n/a	n/a	n/a	n/a	n/a
424182	WORD	wordpools/wasnorm_wordpool_less_exclusions.txt	LTP287	ltpFR	12	2	1	RESTAURANT	1187	n/a	0	n/a	0	0	0	0	0.5869140625	0.422607421875	upper	../fonts/amplitud.ttf
427195	START	n/a	LTP287	ltpFR	12	n/a	n/a	n/a	n/a	n/a	n/a	n/a	n/a	n/a	n/a	n/a	n/a	n/a	n/a	n/a
428193	PROB	n/a	LTP287	ltpFR	12	n/a	n/a	n/a	n/a	n/a	n/a	20	9	9	2	n/a	n/a	n/a	n/a	n/a
429608	PROB	n/a	LTP287	ltpFR	12	n/a	n/a	n/a	n/a	n/a	n/a	16	8	4	4	n/a	n/a	n/a	n/a	n/a
431421	PROB	n/a	LTP287	ltpFR	12	n/a	n/a	n/a	n/a	n/a	n/a	14	5	8	1	n/a	n/a	n/a	n/a	n/a
433235	PROB	n/a	LTP287	ltpFR	12	n/a	n/a	n/a	n/a	n/a	n/a	12	5	5	2	n/a	n/a	n/a	n/a	n/a
434223	STOP	n/a	LTP287	ltpFR	12	n/a	n/a	n/a	n/a	n/a	n/a	n/a	n/a	n/a	n/a	n/a	n/a	n/a	n/a	n/a
436281	WORD	wordpools/wasnorm_wordpool_less_exclusions.txt	LTP287	ltpFR	12	2	1	RECIPE	1175	n/a	0	n/a	0	0	0	0	0.5869140625	0.422607421875	upper	../fonts/amplitud.ttf
439293	START	n/a	LTP287	ltpFR	12	n/a	n/a	n/a	n/a	n/a	n/a	n/a	n/a	n/a	n/a	n/a	n/a	n/a	n/a	n/a
440308	PROB	n/a	LTP287	ltpFR	12	n/a	n/a	n/a	n/a	n/a	n/a	13	4	5	4	n/a	n/a	n/a	n/a	n/a
442988	PROB	n/a	LTP287	ltpFR	12	n/a	n/a	n/a	n/a	n/a	n/a	10	4	5	1	n/a	n/a	n/a	n/a	n/a
444902	PROB	n/a	LTP287	ltpFR	12	n/a	n/a	n/a	n/a	n/a	n/a	10	1	3	6	n/a	n/a	n/a	n/a	n/a
446175	STOP	n/a	LTP287	ltpFR	12	n/a	n/a	n/a	n/a	n/a	n/a	n/a	n/a	n/a	n/a	n/a	n/a	n/a	n/a	n/a
449130	REC_START	n/a	LTP287	ltpFR	12	2	n/a	n/a	n/a	n/a	n/a	n/a	0	0	0	n/a	n/a	n/a	n/a	n/a
450425	REC_WORD	wordpools/wasnorm_wordpool_less_exclusions.txt	LTP287	ltpFR	12	2	1	TOWER	1490	n/a	0	n/a	0	0	0	n/a	n/a	n/a	n/a	n/a
451929	REC_WORD	wordpools/wasnorm_wordpool_less_exclusions.txt	LTP287	ltpFR	12	2	1	WALRUS	1585	n/a	1	n/a	0	0	0	n/a	n/a	n/a	n/a	n/a
453142	REC_WORD	wordpools/wasnorm_wordpool_less_exclusions.txt	LTP287	ltpFR	12	2	1	CAMEL	223	n/a	1	n/a	0	0	0	n/a	n/a	n/a	n/a	n/a
454248	REC_WORD	wordpools/wasnorm_wordpool_less_exclusions.txt	LTP287	ltpFR	12	2	1	TIDE	1465	n/a	0	n/a	0	0	0	n/a	n/a	n/a	n/a	n/a
455366	REC_WORD	wordpools/wasnorm_wordpool_less_exclusions.txt	LTP287	ltpFR	12	2	1	CLERK	321	n/a	1	n/a	0	0	0	n/a	n/a	n/a	n/a	n/a
456372	REC_WORD	wordpools/wasnorm_wordpool_less_exclusions.txt	LTP287	ltpFR	12	2	1	EMPLOYEE	531	n/a	1	n/a	0	0	0	n/a	n/a	n/a	n/a	n/a
457789	REC_WORD	wordpools/wasnorm_wordpool_less_exclusions.txt	LTP287	ltpFR	12	2	1	MOON	914	n/a	0	n/a	0	0	0	n/a	n/a	n/a	n/a	n/a
463297	REC_WORD	wordpools/wasnorm_wordpool_less_exclusions.txt	LTP287	ltpFR	12	2	1	SCREWDRIVER	1255	n/a	0	n/a	0	0	0	n/a	n/a	n/a	n/a	n/a
464731	REC_WORD	wordpools/wasnorm_wordpool_less_exclusions.txt	LTP287	ltpFR	12	2	1	DRIVER	499	n/a	1	n/a	0	0	0	n/a	n/a	n/a	n/a	n/a
532337	WORD	wordpools/wasnorm_wordpool_less_exclusions.txt	LTP287	ltpFR	12	3	0	STATUE	1374	n/a	1	n/a	0	0	0	1	0.412841796875	0.57763671875	lower	../fonts/zerothre.ttf
536365	WORD	wordpools/wasnorm_wordpool_less_exclusions.txt	LTP287	ltpFR	12	3	0	EGG	518	n/a	0	n/a	0	0	0	1	0.412841796875	0.57763671875	lower	../fonts/zerothre.ttf
540459	WORD	wordpools/wasnorm_wordpool_less_exclusions.txt	LTP287	ltpFR	12	3	0	ATLAS	53	n/a	1	n/a	0	0	0	1	0.412841796875	0.57763671875	lower	../fonts/zerothre.ttf
544419	WORD	wordpools/wasnorm_wordpool_less_exclusions.txt	LTP287	ltpFR	12	3	0	NOTE	958	n/a	0	n/a	0	0	0	1	0.412841796875	0.57763671875	lower	../fonts/zerothre.ttf
548314	WORD	wordpools/wasnorm_wordpool_less_exclusions.txt	LTP287	ltpFR	12	3	0	GROCERIES	663	n/a	0	n/a	0	0	0	1	0.412841796875	0.57763671875	lower	../fonts/zerothre.ttf
552258	WORD	wordpools/wasnorm_wordpool_less_exclusions.txt	LTP287	ltpFR	12	3	0	RADISH	1158	n/a	0	n/a	0	0	0	1	0.412841796875	0.57763671875	lower	../fonts/zerothre.ttf
556352	WORD	wordpools/wasnorm_wordpool_less_exclusions.txt	LTP287	ltpFR	12	3	0	EDITOR	516	n/a	1	n/a	0	0	0	1	0.412841796875	0.57763671875	lower	../fonts/zerothre.ttf
560429	WORD	wordpools/wasnorm_wordpool_less_exclusions.txt	LTP287	ltpFR	12	3	0	MEAL	882	n/a	1	n/a	0	0	0	1	0.412841796875	0.57763671875	lower	../fonts/zerothre.ttf
564256	WORD	wordpools/wasnorm_wordpool_less_exclusions.txt	LTP287	ltpFR	12	3	0	PICKLE	1059	n/a	0	n/a	0	0	0	1	0.412841796875	0.57763671875	lower	../fonts/zerothre.ttf
568200	WORD	wordpools/wasnorm_wordpool_less_exclusions.txt	LTP287	ltpFR	12	3	0	POLE	1097	n/a	0	n/a	0	0	0	1	0.412841796875	0.57763671875	lower	../fonts/zerothre.ttf
572129	WORD	wordpools/wasnorm_wordpool_less_exclusions.txt	LTP287	ltpFR	12	3	0	FLAG	573	n/a	1	n/a	0	0	0	1	0.412841796875	0.57763671875	lower	../fonts/zerothre.ttf
576238	WORD	wordpools/wasnorm_wordpool_less_exclusions.txt	LTP287	ltpFR	12	3	0	SNOB	1335	n/a	1	n/a	0	0	0	1	0.412841796875	0.57763671875	lower	../fonts/zerothre.ttf
580332	WORD	wordpools/wasnorm_wordpool_less_exclusions.txt	LTP287	ltpFR	12	3	0	SWAN	1417	n/a	1	n/a	0	0	0	1	0.412841796875	0.57763671875	lower	../fonts/zerothre.ttf
584460	WORD	wordpools/wasnorm_wordpool_less_exclusions.txt	LTP287	ltpFR	12	3	0	QUAIL	1147	n/a	1	n/a	0	0	0	1	0.412841796875	0.57763671875	lower	../fonts/zerothre.ttf
588387	WORD	wordpools/wasnorm_wordpool_less_exclusions.txt	LTP287	ltpFR	12	3	0	OX	994	n/a	1	n/a	0	0	0	1	0.412841796875	0.57763671875	lower	../fonts/zerothre.ttf
592597	WORD	wordpools/wasnorm_wordpool_less_exclusions.txt	LTP287	ltpFR	12	3	0	PRAIRIE	1118	n/a	1	n/a	0	0	0	1	0.412841796875	0.57763671875	lower	../fonts/zerothre.ttf
595610	START	n/a	LTP287	ltpFR	12	n/a	n/a	n/a	n/a	n/a	n/a	n/a	n/a	n/a	n/a	n/a	n/a	n/a	n/a	n/a
596591	PROB	n/a	LTP287	ltpFR	12	n/a	n/a	n/a	n/a	n/a	n/a	11	1	7	3	n/a	n/a	n/a	n/a	n/a
598040	PROB	n/a	LTP287	ltpFR	12	n/a	n/a	n/a	n/a	n/a	n/a	11	3	2	6	n/a	n/a	n/a	n/a	n/a
599504	PROB	n/a	LTP287	ltpFR	12	n/a	n/a	n/a	n/a	n/a	n/a	12	3	8	1	n/a	n/a	n/a	n/a	n/a
601951	PROB	n/a	LTP287	ltpFR	12	n/a	n/a	n/a	n/a	n/a	n/a	13	7	2	4	n/a	n/a	n/a	n/a	n/a
604230	PROB	n/a	LTP287	ltpFR	12	n/a	n/a	n/a	n/a	n/a	n/a	12	1	9	2	n/a	n/a	n/a	n/a	n/a
605428	PROB	n/a	LTP287	ltpFR	12	n/a	n/a	n/a	n/a	n/a	n/a	20	5	6	9	n/a	n/a	n/a	n/a	n/a
607959	PROB	n/a	LTP287	ltpFR	12	n/a	n/a	n/a	n/a	n/a	n/a	13	7	3	3	n/a	n/a	n/a	n/a	n/a
609372	PROB	n/a	LTP287	ltpFR	12	n/a	n/a	n/a	n/a	n/a	n/a	23	7	7	9	n/a	n/a	n/a	n/a	n/a
611335	STOP	n/a	LTP287	ltpFR	12	n/a	n/a	n/a	n/a	n/a	n/a	n/a	n/a	n/a	n/a	n/a	n/a	n/a	n/a	n/a
613417	REC_START	n/a	LTP287	ltpFR	12	3	n/a	n/a	n/a	n/a	n/a	n/a	0	0	0	n/a	n/a	n/a	n/a	n/a
614163	REC_WORD	wordpools/wasnorm_wordpool_less_exclusions.txt	LTP287	ltpFR	12	3	0	QUAIL	1147	n/a	1	n/a	0	0	0	n/a	n/a	n/a	n/a	n/a
615038	REC_WORD	wordpools/wasnorm_wordpool_less_exclusions.txt	LTP287	ltpFR	12	3	0	SWAN	1417	n/a	1	n/a	0	0	0	n/a	n/a	n/a	n/a	n/a
616297	REC_WORD	wordpools/wasnorm_wordpool_less_exclusions.txt	LTP287	ltpFR	12	3	0	RADISH	1158	n/a	0	n/a	0	0	0	n/a	n/a	n/a	n/a	n/a
619069	REC_WORD	wordpools/wasnorm_wordpool_less_exclusions.txt	LTP287	ltpFR	12	3	0	FLAG	573	n/a	1	n/a	0	0	0	n/a	n/a	n/a	n/a	n/a
620136	REC_WORD	wordpools/wasnorm_wordpool_less_exclusions.txt	LTP287	ltpFR	12	3	0	POLE	1097	n/a	0	n/a	0	0	0	n/a	n/a	n/a	n/a	n/a
627871	REC_WORD	wordpools/wasnorm_wordpool_less_exclusions.txt	LTP287	ltpFR	12	3	0	SNOB	1335	n/a	1	n/a	0	0	0	n/a	n/a	n/a	n/a	n/a
629049	REC_WORD	wordpools/wasnorm_wordpool_less_exclusions.txt	LTP287	ltpFR	12	3	0	EDITOR	516	n/a	1	n/a	0	0	0	n/a	n/a	n/a	n/a	n/a
630040	REC_WORD	wordpools/wasnorm_wordpool_less_exclusions.txt	LTP287	ltpFR	12	3	0	PICKLE	1059	n/a	0	n/a	0	0	0	n/a	n/a	n/a	n/a	n/a
630888	REC_WORD	wordpools/wasnorm_wordpool_less_exclusions.txt	LTP287	ltpFR	12	3	0	STATUE	1374	n/a	1	n/a	0	0	0	n/a	n/a	n/a	n/a	n/a
632281	REC_WORD	wordpools/wasnorm_wordpool_less_exclusions.txt	LTP287	ltpFR	12	3	0	EGG	518	n/a	0	n/a	0	0	0	n/a	n/a	n/a	n/a	n/a
633327	REC_WORD	wordpools/wasnorm_wordpool_less_exclusions.txt	LTP287	ltpFR	12	3	0	ATLAS	53	n/a	1	n/a	0	0	0	n/a	n/a	n/a	n/a	n/a
634948	REC_WORD	wordpools/wasnorm_wordpool_less_exclusions.txt	LTP287	ltpFR	12	3	0	GROCERIES	663	n/a	0	n/a	0	0	0	n/a	n/a	n/a	n/a	n/a
657058	REC_WORD	wordpools/wasnorm_wordpool_less_exclusions.txt	LTP287	ltpFR	12	3	0	OX	994	n/a	1	n/a	0	0	0	n/a	n/a	n/a	n/a	n/a
702967	START	n/a	LTP287	ltpFR	12	n/a	n/a	n/a	n/a	n/a	n/a	n/a	n/a	n/a	n/a	n/a	n/a	n/a	n/a	n/a
704480	PROB	n/a	LTP287	ltpFR	12	n/a	n/a	n/a	n/a	n/a	n/a	19	9	8	2	n/a	n/a	n/a	n/a	n/a
706278	PROB	n/a	LTP287	ltpFR	12	n/a	n/a	n/a	n/a	n/a	n/a	17	9	7	2	n/a	n/a	n/a	n/a	n/a
708325	PROB	n/a	LTP287	ltpFR	12	n/a	n/a	n/a	n/a	n/a	n/a	6	2	3	1	n/a	n/a	n/a	n/a	n/a
710056	PROB	n/a	LTP287	ltpFR	12	n/a	n/a	n/a	n/a	n/a	n/a	14	2	8	4	n/a	n/a	n/a	n/a	n/a
711536	PROB	n/a	LTP287	ltpFR	12	n/a	n/a	n/a	n/a	n/a	n/a	25	8	9	8	n/a	n/a	n/a	n/a	n/a
713800	PROB	n/a	LTP287	ltpFR	12	n/a	n/a	n/a	n/a	n/a	n/a	23	7	5	9	n/a	n/a	n/a	n/a	n/a
718967	STOP	n/a	LTP287	ltpFR	12	n/a	n/a	n/a	n/a	n/a	n/a	n/a	n/a	n/a	n/a	n/a	n/a	n/a	n/a	n/a
719908	WORD	wordpools/wasnorm_wordpool_less_exclusions.txt	LTP287	ltpFR	12	4	0	CLIPPERS	324	n/a	0	n/a	0	0	0	1	0.412841796875	0.57763671875	lower	../fonts/zerothre.ttf
722921	START	n/a	LTP287	ltpFR	12	n/a	n/a	n/a	n/a	n/a	n/a	n/a	n/a	n/a	n/a	n/a	n/a	n/a	n/a	n/a
723751	PROB	n/a	LTP287	ltpFR	12	n/a	n/a	n/a	n/a	n/a	n/a	16	8	1	7	n/a	n/a	n/a	n/a	n/a
726066	PROB	n/a	LTP287	ltpFR	12	n/a	n/a	n/a	n/a	n/a	n/a	22	7	6	9	n/a	n/a	n/a	n/a	n/a
729045	PROB	n/a	LTP287	ltpFR	12	n/a	n/a	n/a	n/a	n/a	n/a	16	9	3	4	n/a	n/a	n/a	n/a	n/a
731390	PROB	n/a	LTP287	ltpFR	12	n/a	n/a	n/a	n/a	n/a	n/a	14	8	2	4	n/a	n/a	n/a	n/a	n/a
732688	PROB	n/a	LTP287	ltpFR	12	n/a	n/a	n/a	n/a	n/a	n/a	18	7	5	6	n/a	n/a	n/a	n/a	n/a
735086	PROB	n/a	LTP287	ltpFR	12	n/a	n/a	n/a	n/a	n/a	n/a	22	9	7	5	n/a	n/a	n/a	n/a	n/a
737655	STOP	n/a	LTP287	ltpFR	12	n/a	n/a	n/a	n/a	n/a	n/a	n/a	n/a	n/a	n/a	n/a	n/a	n/a	n/a	n/a
739962	WORD	wordpools/wasnorm_wordpool_less_exclusions.txt	LTP287	ltpFR	12	4	0	MOWER	928	n/a	1	n/a	0	0	0	1	0.412841796875	0.57763671875	lower	../fonts/zerothre.ttf
742974	START	n/a	LTP287	ltpFR	12	n/a	n/a	n/a	n/a	n/a	n/a	n/a	n/a	n/a	n/a	n/a	n/a	n/a	n/a	n/a
744154	PROB	n/a	LTP287	ltpFR	12	n/a	n/a	n/a	n/a	n/a	n/a	16	7	3	6	n/a	n/a	n/a	n/a	n/a
745635	PROB	n/a	LTP287	ltpFR	12	n/a	n/a	n/a	n/a	n/a	n/a	8	2	3	3	n/a	n/a	n/a	n/a	n/a
747516	PROB	n/a	LTP287	ltpFR	12	n/a	n/a	n/a	n/a	n/a	n/a	10	4	1	5	n/a	n/a	n/a	n/a	n/a
749197	PROB	n/a	LTP287	ltpFR	12	n/a	n/a	n/a	n/a	n/a	n/a	16	4	9	3	n/a	n/a	n/a	n/a	n/a
751826	PROB	n/a	LTP287	ltpFR	12	n/a	n/a	n/a	n/a	n/a	n/a	17	7	2	8	n/a	n/a	n/a	n/a	n/a
753991	PROB	n/a	LTP287	ltpFR	12	n/a	n/a	n/a	n/a	n/a	n/a	17	6	2	9	n/a	n/a	n/a	n/a	n/a
756071	PROB	n/a	LTP287	ltpFR	12	n/a	n/a	n/a	n/a	n/a	n/a	7	1	4	2	n/a	n/a	n/a	n/a	n/a
758327	STOP	n/a	LTP287	ltpFR	12	n/a	n/a	n/a	n/a	n/a	n/a	n/a	n/a	n/a	n/a	n/a	n/a	n/a	n/a	n/a
760032	WORD	wordpools/wasnorm_wordpool_less_exclusions.txt	LTP287	ltpFR	12	4	1	GENERAL	630	n/a	1	n/a	0	0	0	0	0.5869140625	0.422607421875	upper	../fonts/amplitud.ttf
763044	START	n/a	LTP287	ltpFR	12	n/a	n/a	n/a	n/a	n/a	n/a	n/a	n/a	n/a	n/a	n/a	n/a	n/a	n/a	n/a
764042	PROB	n/a	LTP287	ltpFR	12	n/a	n/a	n/a	n/a	n/a	n/a	12	1	9	2	n/a	n/a	n/a	n/a	n/a
765439	PROB	n/a	LTP287	ltpFR	12	n/a	n/a	n/a	n/a	n/a	n/a	13	6	5	2	n/a	n/a	n/a	n/a	n/a
767586	PROB	n/a	LTP287	ltpFR	12	n/a	n/a	n/a	n/a	n/a	n/a	18	5	5	8	n/a	n/a	n/a	n/a	n/a
768801	PROB	n/a	LTP287	ltpFR	12	n/a	n/a	n/a	n/a	n/a	n/a	12	5	3	4	n/a	n/a	n/a	n/a	n/a
770582	PROB	n/a	LTP287	ltpFR	12	n/a	n/a	n/a	n/a	n/a	n/a	12	2	7	3	n/a	n/a	n/a	n/a	n/a
772279	PROB	n/a	LTP287	ltpFR	12	n/a	n/a	n/a	n/a	n/a	n/a	17	1	6	8	n/a	n/a	n/a	n/a	n/a
774011	PROB	n/a	LTP287	ltpFR	12	n/a	n/a	n/a	n/a	n/a	n/a	17	6	2	9	n/a	n/a	n/a	n/a	n/a
776722	PROB	n/a	LTP287	ltpFR	12	n/a	n/a	n/a	n/a	n/a	n/a	13	4	6	3	n/a	n/a	n/a	n/a	n/a
777839	STOP	n/a	LTP287	ltpFR	12	n/a	n/a	n/a	n/a	n/a	n/a	n/a	n/a	n/a	n/a	n/a	n/a	n/a	n/a	n/a
779919	WORD	wordpools/wasnorm_wordpool_less_exclusions.txt	LTP287	ltpFR	12	4	1	TREE	1502	n/a	1	n/a	0	0	0	0	0.5869140625	0.422607421875	upper	../fonts/amplitud.ttf
782931	START	n/a	LTP287	ltpFR	12	n/a	n/a	n/a	n/a	n/a	n/a	n/a	n/a	n/a	n/a	n/a	n/a	n/a	n/a	n/a
783745	PROB	n/a	LTP287	ltpFR	12	n/a	n/a	n/a	n/a	n/a	n/a	19	9	2	8	n/a	n/a	n/a	n/a	n/a
785476	PROB	n/a	LTP287	ltpFR	12	n/a	n/a	n/a	n/a	n/a	n/a	17	9	1	7	n/a	n/a	n/a	n/a	n/a
786874	PROB	n/a	LTP287	ltpFR	12	n/a	n/a	n/a	n/a	n/a	n/a	14	1	5	8	n/a	n/a	n/a	n/a	n/a
789453	PROB	n/a	LTP287	ltpFR	12	n/a	n/a	n/a	n/a	n/a	n/a	13	5	6	2	n/a	n/a	n/a	n/a	n/a
791002	PROB	n/a	LTP287	ltpFR	12	n/a	n/a	n/a	n/a	n/a	n/a	20	8	4	8	n/a	n/a	n/a	n/a	n/a
792999	PROB	n/a	LTP287	ltpFR	12	n/a	n/a	n/a	n/a	n/a	n/a	20	5	7	8	n/a	n/a	n/a	n/a	n/a
798930	STOP	n/a	LTP287	ltpFR	12	n/a	n/a	n/a	n/a	n/a	n/a	n/a	n/a	n/a	n/a	n/a	n/a	n/a	n/a	n/a
800055	WORD	wordpools/wasnorm_wordpool_less_exclusions.txt	LTP287	ltpFR	12	4	1	ACORN	3	n/a	0	n/a	0	0	0	0	0.5869140625	0.422607421875	upper	../fonts/amplitud.ttf
803068	START	n/a	LTP287	ltpFR	12	n/a	n/a	n/a	n/a	n/a	n/a	n/a	n/a	n/a	n/a	n/a	n/a	n/a	n/a	n/a
803999	PROB	n/a	LTP287	ltpFR	12	n/a	n/a	n/a	n/a	n/a	n/a	9	7	1	1	n/a	n/a	n/a	n/a	n/a
805729	PROB	n/a	LTP287	ltpFR	12	n/a	n/a	n/a	n/a	n/a	n/a	7	3	3	1	n/a	n/a	n/a	n/a	n/a
807277	PROB	n/a	LTP287	ltpFR	12	n/a	n/a	n/a	n/a	n/a	n/a	10	5	2	3	n/a	n/a	n/a	n/a	n/a
809873	PROB	n/a	LTP287	ltpFR	12	n/a	n/a	n/a	n/a	n/a	n/a	15	2	9	4	n/a	n/a	n/a	n/a	n/a
814699	PROB	n/a	LTP287	ltpFR	12	n/a	n/a	n/a	n/a	n/a	n/a	21	6	8	7	n/a	n/a	n/a	n/a	n/a
818655	STOP	n/a	LTP287	ltpFR	12	n/a	n/a	n/a	n/a	n/a	n/a	n/a	n/a	n/a	n/a	n/a	n/a	n/a	n/a	n/a
820092	WORD	wordpools/wasnorm_wordpool_less_exclusions.txt	LTP287	ltpFR	12	4	1	BUGLE	189	n/a	0	n/a	0	0	0	0	0.5869140625	0.422607421875	upper	../fonts/amplitud.ttf
823105	START	n/a	LTP287	ltpFR	12	n/a	n/a	n/a	n/a	n/a	n/a	n/a	n/a	n/a	n/a	n/a	n/a	n/a	n/a	n/a
824235	PROB	n/a	LTP287	ltpFR	12	n/a	n/a	n/a	n/a	n/a	n/a	15	2	5	8	n/a	n/a	n/a	n/a	n/a
825832	PROB	n/a	LTP287	ltpFR	12	n/a	n/a	n/a	n/a	n/a	n/a	12	7	1	3	n/a	n/a	n/a	n/a	n/a
828844	PROB	n/a	LTP287	ltpFR	12	n/a	n/a	n/a	n/a	n/a	n/a	13	6	6	1	n/a	n/a	n/a	n/a	n/a
830875	PROB	n/a	LTP287	ltpFR	12	n/a	n/a	n/a	n/a	n/a	n/a	18	6	6	6	n/a	n/a	n/a	n/a	n/a
832589	PROB	n/a	LTP287	ltpFR	12	n/a	n/a	n/a	n/a	n/a	n/a	15	9	1	5	n/a	n/a	n/a	n/a	n/a
833804	PROB	n/a	LTP287	ltpFR	12	n/a	n/a	n/a	n/a	n/a	n/a	2	9	6	8	n/a	n/a	n/a	n/a	n/a
836483	PROB	n/a	LTP287	ltpFR	12	n/a	n/a	n/a	n/a	n/a	n/a	15	5	5	5	n/a	n/a	n/a	n/a	n/a
837976	STOP	n/a	LTP287	ltpFR	12	n/a	n/a	n/a	n/a	n/a	n/a	n/a	n/a	n/a	n/a	n/a	n/a	n/a	n/a	n/a
840294	WORD	wordpools/wasnorm_wordpool_less_exclusions.txt	LTP287	ltpFR	12	4	1	OFFICER	973	n/a	1	n/a	0	0	0	0	0.5869140625	0.422607421875	upper	../fonts/amplitud.ttf
843307	START	n/a	LTP287	ltpFR	12	n/a	n/a	n/a	n/a	n/a	n/a	n/a	n/a	n/a	n/a	n/a	n/a	n/a	n/a	n/a
844305	PROB	n/a	LTP287	ltpFR	12	n/a	n/a	n/a	n/a	n/a	n/a	16	7	5	4	n/a	n/a	n/a	n/a	n/a
846902	PROB	n/a	LTP287	ltpFR	12	n/a	n/a	n/a	n/a	n/a	n/a	11	2	1	8	n/a	n/a	n/a	n/a	n/a
848665	PROB	n/a	LTP287	ltpFR	12	n/a	n/a	n/a	n/a	n/a	n/a	20	9	9	2	n/a	n/a	n/a	n/a	n/a
850163	PROB	n/a	LTP287	ltpFR	12	n/a	n/a	n/a	n/a	n/a	n/a	15	2	4	9	n/a	n/a	n/a	n/a	n/a
851760	PROB	n/a	LTP287	ltpFR	12	n/a	n/a	n/a	n/a	n/a	n/a	21	9	3	9	n/a	n/a	n/a	n/a	n/a
853474	PROB	n/a	LTP287	ltpFR	12	n/a	n/a	n/a	n/a	n/a	n/a	18	3	9	6	n/a	n/a	n/a	n/a	n/a
855140	PROB	n/a	LTP287	ltpFR	12	n/a	n/a	n/a	n/a	n/a	n/a	14	4	7	3	n/a	n/a	n/a	n/a	n/a
856904	PROB	n/a	LTP287	ltpFR	12	n/a	n/a	n/a	n/a	n/a	n/a	19	8	2	9	n/a	n/a	n/a	n/a	n/a
858295	STOP	n/a	LTP287	ltpFR	12	n/a	n/a	n/a	n/a	n/a	n/a	n/a	n/a	n/a	n/a	n/a	n/a	n/a	n/a	n/a
860214	WORD	wordpools/wasnorm_wordpool_less_exclusions.txt	LTP287	ltpFR	12	4	1	RIB	1188	n/a	0	n/a	0	0	0	0	0.5869140625	0.422607421875	upper	../fonts/amplitud.ttf
863227	START	n/a	LTP287	ltpFR	12	n/a	n/a	n/a	n/a	n/a	n/a	n/a	n/a	n/a	n/a	n/a	n/a	n/a	n/a	n/a
864158	PROB	n/a	LTP287	ltpFR	12	n/a	n/a	n/a	n/a	n/a	n/a	18	5	4	9	n/a	n/a	n/a	n/a	n/a
865890	PROB	n/a	LTP287	ltpFR	12	n/a	n/a	n/a	n/a	n/a	n/a	15	8	3	4	n/a	n/a	n/a	n/a	n/a
867921	PROB	n/a	LTP287	ltpFR	12	n/a	n/a	n/a	n/a	n/a	n/a	16	6	2	8	n/a	n/a	n/a	n/a	n/a
870682	PROB	n/a	LTP287	ltpFR	12	n/a	n/a	n/a	n/a	n/a	n/a	15	4	4	7	n/a	n/a	n/a	n/a	n/a
872930	PROB	n/a	LTP287	ltpFR	12	n/a	n/a	n/a	n/a	n/a	n/a	7	2	4	1	n/a	n/a	n/a	n/a	n/a
875192	PROB	n/a	LTP287	ltpFR	12	n/a	n/a	n/a	n/a	n/a	n/a	20	7	8	5	n/a	n/a	n/a	n/a	n/a
876823	PROB	n/a	LTP287	ltpFR	12	n/a	n/a	n/a	n/a	n/a	n/a	18	9	4	5	n/a	n/a	n/a	n/a	n/a
878888	STOP	n/a	LTP287	ltpFR	12	n/a	n/a	n/a	n/a	n/a	n/a	n/a	n/a	n/a	n/a	n/a	n/a	n/a	n/a	n/a
880251	WORD	wordpools/wasnorm_wordpool_less_exclusions.txt	LTP287	ltpFR	12	4	0	HEART	697	n/a	0	n/a	0	0	0	1	0.412841796875	0.57763671875	lower	../fonts/zerothre.ttf
883264	START	n/a	LTP287	ltpFR	12	n/a	n/a	n/a	n/a	n/a	n/a	n/a	n/a	n/a	n/a	n/a	n/a	n/a	n/a	n/a
884328	PROB	n/a	LTP287	ltpFR	12	n/a	n/a	n/a	n/a	n/a	n/a	19	5	8	6	n/a	n/a	n/a	n/a	n/a
889971	PROB	n/a	LTP287	ltpFR	12	n/a	n/a	n/a	n/a	n/a	n/a	15	9	2	4	n/a	n/a	n/a	n/a	n/a
891850	PROB	n/a	LTP287	ltpFR	12	n/a	n/a	n/a	n/a	n/a	n/a	18	6	9	3	n/a	n/a	n/a	n/a	n/a
893731	PROB	n/a	LTP287	ltpFR	12	n/a	n/a	n/a	n/a	n/a	n/a	22	8	7	7	n/a	n/a	n/a	n/a	n/a
899264	STOP	n/a	LTP287	ltpFR	12	n/a	n/a	n/a	n/a	n/a	n/a	n/a	n/a	n/a	n/a	n/a	n/a	n/a	n/a	n/a
900388	WORD	wordpools/wasnorm_wordpool_less_exclusions.txt	LTP287	ltpFR	12	4	0	VET	1560	n/a	1	n/a	0	0	0	1	0.412841796875	0.57763671875	lower	../fonts/zerothre.ttf
903400	START	n/a	LTP287	ltpFR	12	n/a	n/a	n/a	n/a	n/a	n/a	n/a	n/a	n/a	n/a	n/a	n/a	n/a	n/a	n/a
904215	PROB	n/a	LTP287	ltpFR	12	n/a	n/a	n/a	n/a	n/a	n/a	8	1	6	1	n/a	n/a	n/a	n/a	n/a
905414	PROB	n/a	LTP287	ltpFR	12	n/a	n/a	n/a	n/a	n/a	n/a	23	7	9	7	n/a	n/a	n/a	n/a	n/a
907344	PROB	n/a	LTP287	ltpFR	12	n/a	n/a	n/a	n/a	n/a	n/a	22	4	9	9	n/a	n/a	n/a	n/a	n/a
909308	PROB	n/a	LTP287	ltpFR	12	n/a	n/a	n/a	n/a	n/a	n/a	14	3	9	2	n/a	n/a	n/a	n/a	n/a
912287	PROB	n/a	LTP287	ltpFR	12	n/a	n/a	n/a	n/a	n/a	n/a	18	9	8	1	n/a	n/a	n/a	n/a	n/a
914500	PROB	n/a	LTP287	ltpFR	12	n/a	n/a	n/a	n/a	n/a	n/a	8	2	4	2	n/a	n/a	n/a	n/a	n/a
916480	PROB	n/a	LTP287	ltpFR	12	n/a	n/a	n/a	n/a	n/a	n/a	12	1	9	2	n/a	n/a	n/a	n/a	n/a
918120	STOP	n/a	LTP287	ltpFR	12	n/a	n/a	n/a	n/a	n/a	n/a	n/a	n/a	n/a	n/a	n/a	n/a	n/a	n/a	n/a
920408	WORD	wordpools/wasnorm_wordpool_less_exclusions.txt	LTP287	ltpFR	12	4	1	DINNER	468	n/a	0	n/a	0	0	0	0	0.5869140625	0.422607421875	upper	../fonts/amplitud.ttf
923420	START	n/a	LTP287	ltpFR	12	n/a	n/a	n/a	n/a	n/a	n/a	n/a	n/a	n/a	n/a	n/a	n/a	n/a	n/a	n/a
924369	PROB	n/a	LTP287	ltpFR	12	n/a	n/a	n/a	n/a	n/a	n/a	8	5	2	1	n/a	n/a	n/a	n/a	n/a
926216	PROB	n/a	LTP287	ltpFR	12	n/a	n/a	n/a	n/a	n/a	n/a	11	8	2	1	n/a	n/a	n/a	n/a	n/a
927481	PROB	n/a	LTP287	ltpFR	12	n/a	n/a	n/a	n/a	n/a	n/a	22	8	5	9	n/a	n/a	n/a	n/a	n/a
930360	PROB	n/a	LTP287	ltpFR	12	n/a	n/a	n/a	n/a	n/a	n/a	12	3	7	2	n/a	n/a	n/a	n/a	n/a
931658	PROB	n/a	LTP287	ltpFR	12	n/a	n/a	n/a	n/a	n/a	n/a	23	9	6	8	n/a	n/a	n/a	n/a	n/a
934171	PROB	n/a	LTP287	ltpFR	12	n/a	n/a	n/a	n/a	n/a	n/a	15	6	8	1	n/a	n/a	n/a	n/a	n/a
936484	PROB	n/a	LTP287	ltpFR	12	n/a	n/a	n/a	n/a	n/a	n/a	16	9	1	6	n/a	n/a	n/a	n/a	n/a
938303	STOP	n/a	LTP287	ltpFR	12	n/a	n/a	n/a	n/a	n/a	n/a	n/a	n/a	n/a	n/a	n/a	n/a	n/a	n/a	n/a
940494	WORD	wordpools/wasnorm_wordpool_less_exclusions.txt	LTP287	ltpFR	12	4	1	MARKET	871	n/a	0	n/a	0	0	0	0	0.5869140625	0.422607421875	upper	../fonts/amplitud.ttf
943507	START	n/a	LTP287	ltpFR	12	n/a	n/a	n/a	n/a	n/a	n/a	n/a	n/a	n/a	n/a	n/a	n/a	n/a	n/a	n/a
944671	PROB	n/a	LTP287	ltpFR	12	n/a	n/a	n/a	n/a	n/a	n/a	16	6	8	2	n/a	n/a	n/a	n/a	n/a
947334	PROB	n/a	LTP287	ltpFR	12	n/a	n/a	n/a	n/a	n/a	n/a	16	4	5	7	n/a	n/a	n/a	n/a	n/a
949614	PROB	n/a	LTP287	ltpFR	12	n/a	n/a	n/a	n/a	n/a	n/a	10	1	8	1	n/a	n/a	n/a	n/a	n/a
950963	PROB	n/a	LTP287	ltpFR	12	n/a	n/a	n/a	n/a	n/a	n/a	17	8	6	3	n/a	n/a	n/a	n/a	n/a
953425	PROB	n/a	LTP287	ltpFR	12	n/a	n/a	n/a	n/a	n/a	n/a	13	5	3	5	n/a	n/a	n/a	n/a	n/a
956039	PROB	n/a	LTP287	ltpFR	12	n/a	n/a	n/a	n/a	n/a	n/a	12	3	4	5	n/a	n/a	n/a	n/a	n/a
959271	STOP	n/a	LTP287	ltpFR	12	n/a	n/a	n/a	n/a	n/a	n/a	n/a	n/a	n/a	n/a	n/a	n/a	n/a	n/a	n/a
960365	WORD	wordpools/wasnorm_wordpool_less_exclusions.txt	LTP287	ltpFR	12	4	0	JUNGLE	764	n/a	1	n/a	0	0	0	1	0.412841796875	0.57763671875	lower	../fonts/zerothre.ttf
963377	START	n/a	LTP287	ltpFR	12	n/a	n/a	n/a	n/a	n/a	n/a	n/a	n/a	n/a	n/a	n/a	n/a	n/a	n/a	n/a
964226	PROB	n/a	LTP287	ltpFR	12	n/a	n/a	n/a	n/a	n/a	n/a	14	2	7	5	n/a	n/a	n/a	n/a	n/a
966739	PROB	n/a	LTP287	ltpFR	12	n/a	n/a	n/a	n/a	n/a	n/a	19	6	5	8	n/a	n/a	n/a	n/a	n/a
968819	PROB	n/a	LTP287	ltpFR	12	n/a	n/a	n/a	n/a	n/a	n/a	23	6	9	8	n/a	n/a	n/a	n/a	n/a
971882	PROB	n/a	LTP287	ltpFR	12	n/a	n/a	n/a	n/a	n/a	n/a	11	3	1	7	n/a	n/a	n/a	n/a	n/a
973312	PROB	n/a	LTP287	ltpFR	12	n/a	n/a	n/a	n/a	n/a	n/a	8	5	2	1	n/a	n/a	n/a	n/a	n/a
975061	PROB	n/a	LTP287	ltpFR	12	n/a	n/a	n/a	n/a	n/a	n/a	7	3	2	2	n/a	n/a	n/a	n/a	n/a
979377	STOP	n/a	LTP287	ltpFR	12	n/a	n/a	n/a	n/a	n/a	n/a	n/a	n/a	n/a	n/a	n/a	n/a	n/a	n/a	n/a
980568	WORD	wordpools/wasnorm_wordpool_less_exclusions.txt	LTP287	ltpFR	12	4	0	NAPKIN	937	n/a	0	n/a	0	0	0	1	0.412841796875	0.57763671875	lower	../fonts/zerothre.ttf
983581	START	n/a	LTP287	ltpFR	12	n/a	n/a	n/a	n/a	n/a	n/a	n/a	n/a	n/a	n/a	n/a	n/a	n/a	n/a	n/a
984495	PROB	n/a	LTP287	ltpFR	12	n/a	n/a	n/a	n/a	n/a	n/a	9	2	2	5	n/a	n/a	n/a	n/a	n/a
986127	PROB	n/a	LTP287	ltpFR	12	n/a	n/a	n/a	n/a	n/a	n/a	17	8	6	3	n/a	n/a	n/a	n/a	n/a
988356	PROB	n/a	LTP287	ltpFR	12	n/a	n/a	n/a	n/a	n/a	n/a	14	9	1	4	n/a	n/a	n/a	n/a	n/a
989571	PROB	n/a	LTP287	ltpFR	12	n/a	n/a	n/a	n/a	n/a	n/a	17	2	7	8	n/a	n/a	n/a	n/a	n/a
992201	PROB	n/a	LTP287	ltpFR	12	n/a	n/a	n/a	n/a	n/a	n/a	22	9	4	9	n/a	n/a	n/a	n/a	n/a
993848	PROB	n/a	LTP287	ltpFR	12	n/a	n/a	n/a	n/a	n/a	n/a	14	6	1	7	n/a	n/a	n/a	n/a	n/a
995396	PROB	n/a	LTP287	ltpFR	12	n/a	n/a	n/a	n/a	n/a	n/a	6	3	1	2	n/a	n/a	n/a	n/a	n/a
999581	STOP	n/a	LTP287	ltpFR	12	n/a	n/a	n/a	n/a	n/a	n/a	n/a	n/a	n/a	n/a	n/a	n/a	n/a	n/a	n/a
1000754	WORD	wordpools/wasnorm_wordpool_less_exclusions.txt	LTP287	ltpFR	12	4	0	SIRLOIN	1311	n/a	0	n/a	0	0	0	1	0.412841796875	0.57763671875	lower	../fonts/zerothre.ttf
1003767	START	n/a	LTP287	ltpFR	12	n/a	n/a	n/a	n/a	n/a	n/a	n/a	n/a	n/a	n/a	n/a	n/a	n/a	n/a	n/a
1004815	PROB	n/a	LTP287	ltpFR	12	n/a	n/a	n/a	n/a	n/a	n/a	14	9	1	4	n/a	n/a	n/a	n/a	n/a
1006031	PROB	n/a	LTP287	ltpFR	12	n/a	n/a	n/a	n/a	n/a	n/a	6	1	1	4	n/a	n/a	n/a	n/a	n/a
1008460	PROB	n/a	LTP287	ltpFR	12	n/a	n/a	n/a	n/a	n/a	n/a	12	2	9	1	n/a	n/a	n/a	n/a	n/a
1010224	PROB	n/a	LTP287	ltpFR	12	n/a	n/a	n/a	n/a	n/a	n/a	11	2	4	5	n/a	n/a	n/a	n/a	n/a
1011922	PROB	n/a	LTP287	ltpFR	12	n/a	n/a	n/a	n/a	n/a	n/a	20	9	8	3	n/a	n/a	n/a	n/a	n/a
1014717	PROB	n/a	LTP287	ltpFR	12	n/a	n/a	n/a	n/a	n/a	n/a	15	1	7	7	n/a	n/a	n/a	n/a	n/a
1016066	PROB	n/a	LTP287	ltpFR	12	n/a	n/a	n/a	n/a	n/a	n/a	7	4	1	2	n/a	n/a	n/a	n/a	n/a
1019767	STOP	n/a	LTP287	ltpFR	12	n/a	n/a	n/a	n/a	n/a	n/a	n/a	n/a	n/a	n/a	n/a	n/a	n/a	n/a	n/a
1020824	WORD	wordpools/wasnorm_wordpool_less_exclusions.txt	LTP287	ltpFR	12	4	0	COMMANDER	354	n/a	1	n/a	0	0	0	1	0.412841796875	0.57763671875	lower	../fonts/zerothre.ttf
1023837	START	n/a	LTP287	ltpFR	12	n/a	n/a	n/a	n/a	n/a	n/a	n/a	n/a	n/a	n/a	n/a	n/a	n/a	n/a	n/a
1024953	PROB	n/a	LTP287	ltpFR	12	n/a	n/a	n/a	n/a	n/a	n/a	21	3	4	4	n/a	n/a	n/a	n/a	n/a
1026682	PROB	n/a	LTP287	ltpFR	12	n/a	n/a	n/a	n/a	n/a	n/a	12	3	6	3	n/a	n/a	n/a	n/a	n/a
1029412	PROB	n/a	LTP287	ltpFR	12	n/a	n/a	n/a	n/a	n/a	n/a	11	4	1	6	n/a	n/a	n/a	n/a	n/a
1031043	PROB	n/a	LTP287	ltpFR	12	n/a	n/a	n/a	n/a	n/a	n/a	24	9	9	6	n/a	n/a	n/a	n/a	n/a
1034454	PROB	n/a	LTP287	ltpFR	12	n/a	n/a	n/a	n/a	n/a	n/a	15	6	5	4	n/a	n/a	n/a	n/a	n/a
1036885	PROB	n/a	LTP287	ltpFR	12	n/a	n/a	n/a	n/a	n/a	n/a	14	9	3	2	n/a	n/a	n/a	n/a	n/a
1039543	STOP	n/a	LTP287	ltpFR	12	n/a	n/a	n/a	n/a	n/a	n/a	n/a	n/a	n/a	n/a	n/a	n/a	n/a	n/a	n/a
1041744	REC_START	n/a	LTP287	ltpFR	12	4	n/a	n/a	n/a	n/a	n/a	n/a	0	0	0	n/a	n/a	n/a	n/a	n/a
1042709	REC_WORD	wordpools/wasnorm_wordpool_less_exclusions.txt	LTP287	ltpFR	12	4	0	COMMANDER	354	n/a	1	n/a	0	0	0	n/a	n/a	n/a	n/a	n/a
1044336	REC_WORD	wordpools/wasnorm_wordpool_less_exclusions.txt	LTP287	ltpFR	12	4	1	GENERAL	630	n/a	1	n/a	0	0	0	n/a	n/a	n/a	n/a	n/a
1046058	REC_WORD_VV	wordpools/wasnorm_wordpool_less_exclusions.txt	LTP287	ltpFR	12	4	n/a	<>	-1	n/a	n/a	n/a	0	0	0	n/a	n/a	n/a	n/a	n/a
1046920	REC_WORD	wordpools/wasnorm_wordpool_less_exclusions.txt	LTP287	ltpFR	12	4	0	SIRLOIN	1311	n/a	0	n/a	0	0	0	n/a	n/a	n/a	n/a	n/a
1048238	REC_WORD	wordpools/wasnorm_wordpool_less_exclusions.txt	LTP287	ltpFR	12	4	1	DINNER	468	n/a	0	n/a	0	0	0	n/a	n/a	n/a	n/a	n/a
1049018	REC_WORD	wordpools/wasnorm_wordpool_less_exclusions.txt	LTP287	ltpFR	12	4	1	MARKET	871	n/a	0	n/a	0	0	0	n/a	n/a	n/a	n/a	n/a
1058721	REC_WORD	wordpools/wasnorm_wordpool_less_exclusions.txt	LTP287	ltpFR	12	4	1	TREE	1502	n/a	1	n/a	0	0	0	n/a	n/a	n/a	n/a	n/a
1061804	REC_WORD	wordpools/wasnorm_wordpool_less_exclusions.txt	LTP287	ltpFR	12	4	1	ACORN	3	n/a	0	n/a	0	0	0	n/a	n/a	n/a	n/a	n/a
1130096	START	n/a	LTP287	ltpFR	12	n/a	n/a	n/a	n/a	n/a	n/a	n/a	n/a	n/a	n/a	n/a	n/a	n/a	n/a	n/a
1131609	PROB	n/a	LTP287	ltpFR	12	n/a	n/a	n/a	n/a	n/a	n/a	15	3	7	5	n/a	n/a	n/a	n/a	n/a
1133041	PROB	n/a	LTP287	ltpFR	12	n/a	n/a	n/a	n/a	n/a	n/a	12	7	1	4	n/a	n/a	n/a	n/a	n/a
1134837	PROB	n/a	LTP287	ltpFR	12	n/a	n/a	n/a	n/a	n/a	n/a	7	1	5	1	n/a	n/a	n/a	n/a	n/a
1136169	PROB	n/a	LTP287	ltpFR	12	n/a	n/a	n/a	n/a	n/a	n/a	13	2	4	7	n/a	n/a	n/a	n/a	n/a
1137623	STOP	n/a	LTP287	ltpFR	12	n/a	n/a	n/a	n/a	n/a	n/a	n/a	n/a	n/a	n/a	n/a	n/a	n/a	n/a	n/a
1139032	WORD	wordpools/wasnorm_wordpool_less_exclusions.txt	LTP287	ltpFR	12	5	1	GARDEN	623	n/a	0	n/a	0	0	0	0	0.5869140625	0.422607421875	upper	../fonts/amplitud.ttf
1142045	START	n/a	LTP287	ltpFR	12	n/a	n/a	n/a	n/a	n/a	n/a	n/a	n/a	n/a	n/a	n/a	n/a	n/a	n/a	n/a
1142910	PROB	n/a	LTP287	ltpFR	12	n/a	n/a	n/a	n/a	n/a	n/a	16	4	3	9	n/a	n/a	n/a	n/a	n/a
1144673	PROB	n/a	LTP287	ltpFR	12	n/a	n/a	n/a	n/a	n/a	n/a	8	5	1	2	n/a	n/a	n/a	n/a	n/a
1146720	PROB	n/a	LTP287	ltpFR	12	n/a	n/a	n/a	n/a	n/a	n/a	19	7	6	6	n/a	n/a	n/a	n/a	n/a
1149343	STOP	n/a	LTP287	ltpFR	12	n/a	n/a	n/a	n/a	n/a	n/a	n/a	n/a	n/a	n/a	n/a	n/a	n/a	n/a	n/a
1151031	WORD	wordpools/wasnorm_wordpool_less_exclusions.txt	LTP287	ltpFR	12	5	1	DANDELION	438	n/a	1	n/a	0	0	0	0	0.5869140625	0.422607421875	upper	../fonts/amplitud.ttf
1154044	START	n/a	LTP287	ltpFR	12	n/a	n/a	n/a	n/a	n/a	n/a	n/a	n/a	n/a	n/a	n/a	n/a	n/a	n/a	n/a
1155108	PROB	n/a	LTP287	ltpFR	12	n/a	n/a	n/a	n/a	n/a	n/a	14	4	3	7	n/a	n/a	n/a	n/a	n/a
1156622	PROB	n/a	LTP287	ltpFR	12	n/a	n/a	n/a	n/a	n/a	n/a	15	8	2	5	n/a	n/a	n/a	n/a	n/a
1157787	PROB	n/a	LTP287	ltpFR	12	n/a	n/a	n/a	n/a	n/a	n/a	11	2	2	7	n/a	n/a	n/a	n/a	n/a
1162044	STOP	n/a	LTP287	ltpFR	12	n/a	n/a	n/a	n/a	n/a	n/a	n/a	n/a	n/a	n/a	n/a	n/a	n/a	n/a	n/a
1163113	WORD	wordpools/wasnorm_wordpool_less_exclusions.txt	LTP287	ltpFR	12	5	1	CLAW	319	n/a	0	n/a	0	0	0	0	0.5869140625	0.422607421875	upper	../fonts/amplitud.ttf
1166126	START	n/a	LTP287	ltpFR	12	n/a	n/a	n/a	n/a	n/a	n/a	n/a	n/a	n/a	n/a	n/a	n/a	n/a	n/a	n/a
1166990	PROB	n/a	LTP287	ltpFR	12	n/a	n/a	n/a	n/a	n/a	n/a	18	4	8	6	n/a	n/a	n/a	n/a	n/a
1168971	PROB	n/a	LTP287	ltpFR	12	n/a	n/a	n/a	n/a	n/a	n/a	11	1	5	5	n/a	n/a	n/a	n/a	n/a
1170151	PROB	n/a	LTP287	ltpFR	12	n/a	n/a	n/a	n/a	n/a	n/a	20	9	4	7	n/a	n/a	n/a	n/a	n/a
1172515	PROB	n/a	LTP287	ltpFR	12	n/a	n/a	n/a	n/a	n/a	n/a	14	1	9	4	n/a	n/a	n/a	n/a	n/a
1173719	STOP	n/a	LTP287	ltpFR	12	n/a	n/a	n/a	n/a	n/a	n/a	n/a	n/a	n/a	n/a	n/a	n/a	n/a	n/a	n/a
1175012	WORD	wordpools/wasnorm_wordpool_less_exclusions.txt	LTP287	ltpFR	12	5	0	ACTOR	5	n/a	1	n/a	0	0	0	1	0.412841796875	0.57763671875	lower	../fonts/zerothre.ttf
1178024	START	n/a	LTP287	ltpFR	12	n/a	n/a	n/a	n/a	n/a	n/a	n/a	n/a	n/a	n/a	n/a	n/a	n/a	n/a	n/a
1179171	PROB	n/a	LTP287	ltpFR	12	n/a	n/a	n/a	n/a	n/a	n/a	19	7	8	4	n/a	n/a	n/a	n/a	n/a
1180986	PROB	n/a	LTP287	ltpFR	12	n/a	n/a	n/a	n/a	n/a	n/a	21	8	6	7	n/a	n/a	n/a	n/a	n/a
1183731	PROB	n/a	LTP287	ltpFR	12	n/a	n/a	n/a	n/a	n/a	n/a	16	8	6	2	n/a	n/a	n/a	n/a	n/a
1185471	STOP	n/a	LTP287	ltpFR	12	n/a	n/a	n/a	n/a	n/a	n/a	n/a	n/a	n/a	n/a	n/a	n/a	n/a	n/a	n/a
1186911	WORD	wordpools/wasnorm_wordpool_less_exclusions.txt	LTP287	ltpFR	12	5	0	KNEE	784	n/a	0	n/a	0	0	0	1	0.412841796875	0.57763671875	lower	../fonts/zerothre.ttf
1189923	START	n/a	LTP287	ltpFR	12	n/a	n/a	n/a	n/a	n/a	n/a	n/a	n/a	n/a	n/a	n/a	n/a	n/a	n/a	n/a
1191055	PROB	n/a	LTP287	ltpFR	12	n/a	n/a	n/a	n/a	n/a	n/a	18	7	2	9	n/a	n/a	n/a	n/a	n/a
1192568	PROB	n/a	LTP287	ltpFR	12	n/a	n/a	n/a	n/a	n/a	n/a	16	9	5	2	n/a	n/a	n/a	n/a	n/a
1197923	STOP	n/a	LTP287	ltpFR	12	n/a	n/a	n/a	n/a	n/a	n/a	n/a	n/a	n/a	n/a	n/a	n/a	n/a	n/a	n/a
1198959	WORD	wordpools/wasnorm_wordpool_less_exclusions.txt	LTP287	ltpFR	12	5	0	POPCORN	1104	n/a	0	n/a	0	0	0	1	0.412841796875	0.57763671875	lower	../fonts/zerothre.ttf
1201972	START	n/a	LTP287	ltpFR	12	n/a	n/a	n/a	n/a	n/a	n/a	n/a	n/a	n/a	n/a	n/a	n/a	n/a	n/a	n/a
1203152	PROB	n/a	LTP287	ltpFR	12	n/a	n/a	n/a	n/a	n/a	n/a	14	6	4	4	n/a	n/a	n/a	n/a	n/a
1204700	PROB	n/a	LTP287	ltpFR	12	n/a	n/a	n/a	n/a	n/a	n/a	17	2	9	6	n/a	n/a	n/a	n/a	n/a
1209972	STOP	n/a	LTP287	ltpFR	12	n/a	n/a	n/a	n/a	n/a	n/a	n/a	n/a	n/a	n/a	n/a	n/a	n/a	n/a	n/a
1210958	WORD	wordpools/wasnorm_wordpool_less_exclusions.txt	LTP287	ltpFR	12	5	0	COCOON	339	n/a	0	n/a	0	0	0	1	0.412841796875	0.57763671875	lower	../fonts/zerothre.ttf
1213971	START	n/a	LTP287	ltpFR	12	n/a	n/a	n/a	n/a	n/a	n/a	n/a	n/a	n/a	n/a	n/a	n/a	n/a	n/a	n/a
1215135	PROB	n/a	LTP287	ltpFR	12	n/a	n/a	n/a	n/a	n/a	n/a	14	6	7	1	n/a	n/a	n/a	n/a	n/a
1217148	PROB	n/a	LTP287	ltpFR	12	n/a	n/a	n/a	n/a	n/a	n/a	18	8	7	3	n/a	n/a	n/a	n/a	n/a
1218812	PROB	n/a	LTP287	ltpFR	12	n/a	n/a	n/a	n/a	n/a	n/a	10	3	1	6	n/a	n/a	n/a	n/a	n/a
1220227	PROB	n/a	LTP287	ltpFR	12	n/a	n/a	n/a	n/a	n/a	n/a	7	1	2	4	n/a	n/a	n/a	n/a	n/a
1221447	STOP	n/a	LTP287	ltpFR	12	n/a	n/a	n/a	n/a	n/a	n/a	n/a	n/a	n/a	n/a	n/a	n/a	n/a	n/a	n/a
1222973	WORD	wordpools/wasnorm_wordpool_less_exclusions.txt	LTP287	ltpFR	12	5	1	KITE	779	n/a	0	n/a	0	0	0	0	0.5869140625	0.422607421875	upper	../fonts/amplitud.ttf
1225986	START	n/a	LTP287	ltpFR	12	n/a	n/a	n/a	n/a	n/a	n/a	n/a	n/a	n/a	n/a	n/a	n/a	n/a	n/a	n/a
1226867	PROB	n/a	LTP287	ltpFR	12	n/a	n/a	n/a	n/a	n/a	n/a	8	3	4	1	n/a	n/a	n/a	n/a	n/a
1228481	PROB	n/a	LTP287	ltpFR	12	n/a	n/a	n/a	n/a	n/a	n/a	15	2	4	7	n/a	n/a	n/a	n/a	n/a
1229980	PROB	n/a	LTP287	ltpFR	12	n/a	n/a	n/a	n/a	n/a	n/a	14	8	2	4	n/a	n/a	n/a	n/a	n/a
1231660	PROB	n/a	LTP287	ltpFR	12	n/a	n/a	n/a	n/a	n/a	n/a	16	6	2	8	n/a	n/a	n/a	n/a	n/a
1233359	STOP	n/a	LTP287	ltpFR	12	n/a	n/a	n/a	n/a	n/a	n/a	n/a	n/a	n/a	n/a	n/a	n/a	n/a	n/a	n/a
1235204	WORD	wordpools/wasnorm_wordpool_less_exclusions.txt	LTP287	ltpFR	12	5	1	OVAL	990	n/a	0	n/a	0	0	0	0	0.5869140625	0.422607421875	upper	../fonts/amplitud.ttf
1238217	START	n/a	LTP287	ltpFR	12	n/a	n/a	n/a	n/a	n/a	n/a	n/a	n/a	n/a	n/a	n/a	n/a	n/a	n/a	n/a
1239381	PROB	n/a	LTP287	ltpFR	12	n/a	n/a	n/a	n/a	n/a	n/a	18	9	4	5	n/a	n/a	n/a	n/a	n/a
1241130	PROB	n/a	LTP287	ltpFR	12	n/a	n/a	n/a	n/a	n/a	n/a	19	4	8	7	n/a	n/a	n/a	n/a	n/a
1243592	PROB	n/a	LTP287	ltpFR	12	n/a	n/a	n/a	n/a	n/a	n/a	9	2	3	4	n/a	n/a	n/a	n/a	n/a
1244952	STOP	n/a	LTP287	ltpFR	12	n/a	n/a	n/a	n/a	n/a	n/a	n/a	n/a	n/a	n/a	n/a	n/a	n/a	n/a	n/a
1247071	WORD	wordpools/wasnorm_wordpool_less_exclusions.txt	LTP287	ltpFR	12	5	1	LOOP	844	n/a	0	n/a	0	0	0	0	0.5869140625	0.422607421875	upper	../fonts/amplitud.ttf
1250083	START	n/a	LTP287	ltpFR	12	n/a	n/a	n/a	n/a	n/a	n/a	n/a	n/a	n/a	n/a	n/a	n/a	n/a	n/a	n/a
1251230	PROB	n/a	LTP287	ltpFR	12	n/a	n/a	n/a	n/a	n/a	n/a	11	7	1	3	n/a	n/a	n/a	n/a	n/a
1254426	PROB	n/a	LTP287	ltpFR	12	n/a	n/a	n/a	n/a	n/a	n/a	16	2	9	5	n/a	n/a	n/a	n/a	n/a
1257559	STOP	n/a	LTP287	ltpFR	12	n/a	n/a	n/a	n/a	n/a	n/a	n/a	n/a	n/a	n/a	n/a	n/a	n/a	n/a	n/a
1259185	WORD	wordpools/wasnorm_wordpool_less_exclusions.txt	LTP287	ltpFR	12	5	1	DONOR	485	n/a	1	n/a	0	0	0	0	0.5869140625	0.422607421875	upper	../fonts/amplitud.ttf
1262198	START	n/a	LTP287	ltpFR	12	n/a	n/a	n/a	n/a	n/a	n/a	n/a	n/a	n/a	n/a	n/a	n/a	n/a	n/a	n/a
1263097	PROB	n/a	LTP287	ltpFR	12	n/a	n/a	n/a	n/a	n/a	n/a	15	6	8	1	n/a	n/a	n/a	n/a	n/a
1265044	PROB	n/a	LTP287	ltpFR	12	n/a	n/a	n/a	n/a	n/a	n/a	8	1	1	6	n/a	n/a	n/a	n/a	n/a
1266258	PROB	n/a	LTP287	ltpFR	12	n/a	n/a	n/a	n/a	n/a	n/a	11	1	9	1	n/a	n/a	n/a	n/a	n/a
1270183	STOP	n/a	LTP287	ltpFR	12	n/a	n/a	n/a	n/a	n/a	n/a	n/a	n/a	n/a	n/a	n/a	n/a	n/a	n/a	n/a
1271300	WORD	wordpools/wasnorm_wordpool_less_exclusions.txt	LTP287	ltpFR	12	5	1	GIRL	637	n/a	1	n/a	0	0	0	0	0.5869140625	0.422607421875	upper	../fonts/amplitud.ttf
1274313	START	n/a	LTP287	ltpFR	12	n/a	n/a	n/a	n/a	n/a	n/a	n/a	n/a	n/a	n/a	n/a	n/a	n/a	n/a	n/a
1275195	PROB	n/a	LTP287	ltpFR	12	n/a	n/a	n/a	n/a	n/a	n/a	9	4	2	1	n/a	n/a	n/a	n/a	n/a
1277458	PROB	n/a	LTP287	ltpFR	12	n/a	n/a	n/a	n/a	n/a	n/a	8	1	1	6	n/a	n/a	n/a	n/a	n/a
1280803	PROB	n/a	LTP287	ltpFR	12	n/a	n/a	n/a	n/a	n/a	n/a	12	8	2	2	n/a	n/a	n/a	n/a	n/a
1282088	STOP	n/a	LTP287	ltpFR	12	n/a	n/a	n/a	n/a	n/a	n/a	n/a	n/a	n/a	n/a	n/a	n/a	n/a	n/a	n/a
1283482	WORD	wordpools/wasnorm_wordpool_less_exclusions.txt	LTP287	ltpFR	12	5	0	PRODUCER	1129	n/a	1	n/a	0	0	0	1	0.412841796875	0.57763671875	lower	../fonts/zerothre.ttf
1286495	START	n/a	LTP287	ltpFR	12	n/a	n/a	n/a	n/a	n/a	n/a	n/a	n/a	n/a	n/a	n/a	n/a	n/a	n/a	n/a
1287310	PROB	n/a	LTP287	ltpFR	12	n/a	n/a	n/a	n/a	n/a	n/a	19	5	5	9	n/a	n/a	n/a	n/a	n/a
1288608	PROB	n/a	LTP287	ltpFR	12	n/a	n/a	n/a	n/a	n/a	n/a	11	4	4	3	n/a	n/a	n/a	n/a	n/a
1290438	PROB	n/a	LTP287	ltpFR	12	n/a	n/a	n/a	n/a	n/a	n/a	6	2	1	3	n/a	n/a	n/a	n/a	n/a
1292054	PROB	n/a	LTP287	ltpFR	12	n/a	n/a	n/a	n/a	n/a	n/a	14	7	3	4	n/a	n/a	n/a	n/a	n/a
1293279	STOP	n/a	LTP287	ltpFR	12	n/a	n/a	n/a	n/a	n/a	n/a	n/a	n/a	n/a	n/a	n/a	n/a	n/a	n/a	n/a
1295647	WORD	wordpools/wasnorm_wordpool_less_exclusions.txt	LTP287	ltpFR	12	5	0	TOENAIL	1474	n/a	0	n/a	0	0	0	1	0.412841796875	0.57763671875	lower	../fonts/zerothre.ttf
1298660	START	n/a	LTP287	ltpFR	12	n/a	n/a	n/a	n/a	n/a	n/a	n/a	n/a	n/a	n/a	n/a	n/a	n/a	n/a	n/a
1299808	PROB	n/a	LTP287	ltpFR	12	n/a	n/a	n/a	n/a	n/a	n/a	12	1	6	5	n/a	n/a	n/a	n/a	n/a
1302089	PROB	n/a	LTP287	ltpFR	12	n/a	n/a	n/a	n/a	n/a	n/a	16	7	7	2	n/a	n/a	n/a	n/a	n/a
1303719	PROB	n/a	LTP287	ltpFR	12	n/a	n/a	n/a	n/a	n/a	n/a	17	3	7	7	n/a	n/a	n/a	n/a	n/a
1305223	STOP	n/a	LTP287	ltpFR	12	n/a	n/a	n/a	n/a	n/a	n/a	n/a	n/a	n/a	n/a	n/a	n/a	n/a	n/a	n/a
1307862	WORD	wordpools/wasnorm_wordpool_less_exclusions.txt	LTP287	ltpFR	12	5	0	TRACTOR	1493	n/a	1	n/a	0	0	0	1	0.412841796875	0.57763671875	lower	../fonts/zerothre.ttf
1310875	START	n/a	LTP287	ltpFR	12	n/a	n/a	n/a	n/a	n/a	n/a	n/a	n/a	n/a	n/a	n/a	n/a	n/a	n/a	n/a
1311840	PROB	n/a	LTP287	ltpFR	12	n/a	n/a	n/a	n/a	n/a	n/a	12	5	2	5	n/a	n/a	n/a	n/a	n/a
1313154	PROB	n/a	LTP287	ltpFR	12	n/a	n/a	n/a	n/a	n/a	n/a	15	2	6	7	n/a	n/a	n/a	n/a	n/a
1315086	PROB	n/a	LTP287	ltpFR	12	n/a	n/a	n/a	n/a	n/a	n/a	10	8	1	1	n/a	n/a	n/a	n/a	n/a
1316533	PROB	n/a	LTP287	ltpFR	12	n/a	n/a	n/a	n/a	n/a	n/a	17	2	8	7	n/a	n/a	n/a	n/a	n/a
1317880	STOP	n/a	LTP287	ltpFR	12	n/a	n/a	n/a	n/a	n/a	n/a	n/a	n/a	n/a	n/a	n/a	n/a	n/a	n/a	n/a
1319979	WORD	wordpools/wasnorm_wordpool_less_exclusions.txt	LTP287	ltpFR	12	5	0	LEG	809	n/a	0	n/a	0	0	0	1	0.412841796875	0.57763671875	lower	../fonts/zerothre.ttf
1322991	START	n/a	LTP287	ltpFR	12	n/a	n/a	n/a	n/a	n/a	n/a	n/a	n/a	n/a	n/a	n/a	n/a	n/a	n/a	n/a
1324139	PROB	n/a	LTP287	ltpFR	12	n/a	n/a	n/a	n/a	n/a	n/a	12	5	2	5	n/a	n/a	n/a	n/a	n/a
1325336	PROB	n/a	LTP287	ltpFR	12	n/a	n/a	n/a	n/a	n/a	n/a	23	9	8	6	n/a	n/a	n/a	n/a	n/a
1327118	PROB	n/a	LTP287	ltpFR	12	n/a	n/a	n/a	n/a	n/a	n/a	17	4	6	7	n/a	n/a	n/a	n/a	n/a
1328498	PROB	n/a	LTP287	ltpFR	12	n/a	n/a	n/a	n/a	n/a	n/a	27	9	9	9	n/a	n/a	n/a	n/a	n/a
1330064	STOP	n/a	LTP287	ltpFR	12	n/a	n/a	n/a	n/a	n/a	n/a	n/a	n/a	n/a	n/a	n/a	n/a	n/a	n/a	n/a
1332876	REC_START	n/a	LTP287	ltpFR	12	5	n/a	n/a	n/a	n/a	n/a	n/a	0	0	0	n/a	n/a	n/a	n/a	n/a
1334020	REC_WORD	wordpools/wasnorm_wordpool_less_exclusions.txt	LTP287	ltpFR	12	5	0	LEG	809	n/a	0	n/a	0	0	0	n/a	n/a	n/a	n/a	n/a
1337384	REC_WORD	wordpools/wasnorm_wordpool_less_exclusions.txt	LTP287	ltpFR	12	5	0	TRACTOR	1493	n/a	1	n/a	0	0	0	n/a	n/a	n/a	n/a	n/a
1342105	REC_WORD	wordpools/wasnorm_wordpool_less_exclusions.txt	LTP287	ltpFR	12	5	0	TOENAIL	1474	n/a	0	n/a	0	0	0	n/a	n/a	n/a	n/a	n/a
1357249	REC_WORD	wordpools/wasnorm_wordpool_less_exclusions.txt	LTP287	ltpFR	12	5	0	ACTOR	5	n/a	1	n/a	0	0	0	n/a	n/a	n/a	n/a	n/a
1358703	REC_WORD	wordpools/wasnorm_wordpool_less_exclusions.txt	LTP287	ltpFR	12	5	0	KNEE	784	n/a	0	n/a	0	0	0	n/a	n/a	n/a	n/a	n/a
1425470	WORD	wordpools/wasnorm_wordpool_less_exclusions.txt	LTP287	ltpFR	12	6	0	BRIDE	173	n/a	1	n/a	0	0	0	1	0.412841796875	0.57763671875	lower	../fonts/zerothre.ttf
1429314	WORD	wordpools/wasnorm_wordpool_less_exclusions.txt	LTP287	ltpFR	12	6	0	SPY	1360	n/a	1	n/a	0	0	0	1	0.412841796875	0.57763671875	lower	../fonts/zerothre.ttf
1433143	WORD	wordpools/wasnorm_wordpool_less_exclusions.txt	LTP287	ltpFR	12	6	0	SAILOR	1223	n/a	1	n/a	0	0	0	1	0.412841796875	0.57763671875	lower	../fonts/zerothre.ttf
1436987	WORD	wordpools/wasnorm_wordpool_less_exclusions.txt	LTP287	ltpFR	12	6	0	OMELET	976	n/a	0	n/a	0	0	0	1	0.412841796875	0.57763671875	lower	../fonts/zerothre.ttf
1440965	WORD	wordpools/wasnorm_wordpool_less_exclusions.txt	LTP287	ltpFR	12	6	0	POCKETBOOK	1094	n/a	0	n/a	0	0	0	1	0.412841796875	0.57763671875	lower	../fonts/zerothre.ttf
1445042	WORD	wordpools/wasnorm_wordpool_less_exclusions.txt	LTP287	ltpFR	12	6	0	DRIVEWAY	500	n/a	1	n/a	0	0	0	1	0.412841796875	0.57763671875	lower	../fonts/zerothre.ttf
1449019	WORD	wordpools/wasnorm_wordpool_less_exclusions.txt	LTP287	ltpFR	12	6	0	HIGHWAY	707	n/a	1	n/a	0	0	0	1	0.412841796875	0.57763671875	lower	../fonts/zerothre.ttf
1452862	WORD	wordpools/wasnorm_wordpool_less_exclusions.txt	LTP287	ltpFR	12	6	0	SUBMARINE	1398	n/a	1	n/a	0	0	0	1	0.412841796875	0.57763671875	lower	../fonts/zerothre.ttf
1456974	WORD	wordpools/wasnorm_wordpool_less_exclusions.txt	LTP287	ltpFR	12	6	0	DOG	480	n/a	1	n/a	0	0	0	1	0.412841796875	0.57763671875	lower	../fonts/zerothre.ttf
1460901	WORD	wordpools/wasnorm_wordpool_less_exclusions.txt	LTP287	ltpFR	12	6	0	VESSEL	1558	n/a	1	n/a	0	0	0	1	0.412841796875	0.57763671875	lower	../fonts/zerothre.ttf
1464962	WORD	wordpools/wasnorm_wordpool_less_exclusions.txt	LTP287	ltpFR	12	6	0	KIDNEY	776	n/a	0	n/a	0	0	0	1	0.412841796875	0.57763671875	lower	../fonts/zerothre.ttf
1468956	WORD	wordpools/wasnorm_wordpool_less_exclusions.txt	LTP287	ltpFR	12	6	0	BAG	69	n/a	0	n/a	0	0	0	1	0.412841796875	0.57763671875	lower	../fonts/zerothre.ttf
1473000	WORD	wordpools/wasnorm_wordpool_less_exclusions.txt	LTP287	ltpFR	12	6	0	REPORT	1184	n/a	1	n/a	0	0	0	1	0.412841796875	0.57763671875	lower	../fonts/zerothre.ttf
1476961	WORD	wordpools/wasnorm_wordpool_less_exclusions.txt	LTP287	ltpFR	12	6	0	TOTE	1487	n/a	0	n/a	0	0	0	1	0.412841796875	0.57763671875	lower	../fonts/zerothre.ttf
1481005	WORD	wordpools/wasnorm_wordpool_less_exclusions.txt	LTP287	ltpFR	12	6	0	CHERRY	293	n/a	0	n/a	0	0	0	1	0.412841796875	0.57763671875	lower	../fonts/zerothre.ttf
1485065	WORD	wordpools/wasnorm_wordpool_less_exclusions.txt	LTP287	ltpFR	12	6	0	BLACKBERRY	132	n/a	0	n/a	0	0	0	1	0.412841796875	0.57763671875	lower	../fonts/zerothre.ttf
1490840	REC_START	n/a	LTP287	ltpFR	12	6	n/a	n/a	n/a	n/a	n/a	n/a	0	0	0	n/a	n/a	n/a	n/a	n/a
1492018	REC_WORD	wordpools/wasnorm_wordpool_less_exclusions.txt	LTP287	ltpFR	12	6	0	BRIDE	173	n/a	1	n/a	0	0	0	n/a	n/a	n/a	n/a	n/a
1492948	REC_WORD	wordpools/wasnorm_wordpool_less_exclusions.txt	LTP287	ltpFR	12	6	0	SPY	1360	n/a	1	n/a	0	0	0	n/a	n/a	n/a	n/a	n/a
1495318	REC_WORD	wordpools/wasnorm_wordpool_less_exclusions.txt	LTP287	ltpFR	12	6	n/a	PURSE	1145	n/a	n/a	n/a	0	0	0	n/a	n/a	n/a	n/a	n/a
1496529	REC_WORD	wordpools/wasnorm_wordpool_less_exclusions.txt	LTP287	ltpFR	12	6	n/a	HANDBAG	684	n/a	n/a	n/a	0	0	0	n/a	n/a	n/a	n/a	n/a
1500840	REC_WORD	wordpools/wasnorm_wordpool_less_exclusions.txt	LTP287	ltpFR	12	6	0	DRIVEWAY	500	n/a	1	n/a	0	0	0	n/a	n/a	n/a	n/a	n/a
1501698	REC_WORD	wordpools/wasnorm_wordpool_less_exclusions.txt	LTP287	ltpFR	12	6	0	HIGHWAY	707	n/a	1	n/a	0	0	0	n/a	n/a	n/a	n/a	n/a
1502998	REC_WORD	wordpools/wasnorm_wordpool_less_exclusions.txt	LTP287	ltpFR	12	6	0	SUBMARINE	1398	n/a	1	n/a	0	0	0	n/a	n/a	n/a	n/a	n/a
1504130	REC_WORD	wordpools/wasnorm_wordpool_less_exclusions.txt	LTP287	ltpFR	12	6	0	VESSEL	1558	n/a	1	n/a	0	0	0	n/a	n/a	n/a	n/a	n/a
1505248	REC_WORD	wordpools/wasnorm_wordpool_less_exclusions.txt	LTP287	ltpFR	12	6	0	DOG	480	n/a	1	n/a	0	0	0	n/a	n/a	n/a	n/a	n/a
1506550	REC_WORD	wordpools/wasnorm_wordpool_less_exclusions.txt	LTP287	ltpFR	12	6	0	BLACKBERRY	132	n/a	0	n/a	0	0	0	n/a	n/a	n/a	n/a	n/a
1507656	REC_WORD	wordpools/wasnorm_wordpool_less_exclusions.txt	LTP287	ltpFR	12	6	0	CHERRY	293	n/a	0	n/a	0	0	0	n/a	n/a	n/a	n/a	n/a
1515897	REC_WORD	wordpools/wasnorm_wordpool_less_exclusions.txt	LTP287	ltpFR	12	6	0	SAILOR	1223	n/a	1	n/a	0	0	0	n/a	n/a	n/a	n/a	n/a
1517124	REC_WORD	wordpools/wasnorm_wordpool_less_exclusions.txt	LTP287	ltpFR	12	6	0	OMELET	976	n/a	0	n/a	0	0	0	n/a	n/a	n/a	n/a	n/a
1566443	REST_REWET	n/a	LTP287	ltpFR	12	6	n/a	n/a	n/a	n/a	n/a	n/a	0	0	0	n/a	n/a	n/a	n/a	n/a
1769822	WORD	wordpools/wasnorm_wordpool_less_exclusions.txt	LTP287	ltpFR	12	7	0	BARLEY	88	n/a	0	n/a	0	0	0	1	0.412841796875	0.57763671875	lower	../fonts/zerothre.ttf
1773866	WORD	wordpools/wasnorm_wordpool_less_exclusions.txt	LTP287	ltpFR	12	7	0	CLOVE	329	n/a	0	n/a	0	0	0	1	0.412841796875	0.57763671875	lower	../fonts/zerothre.ttf
1777777	WORD	wordpools/wasnorm_wordpool_less_exclusions.txt	LTP287	ltpFR	12	7	0	ARCHITECT	36	n/a	1	n/a	0	0	0	1	0.412841796875	0.57763671875	lower	../fonts/zerothre.ttf
1781972	WORD	wordpools/wasnorm_wordpool_less_exclusions.txt	LTP287	ltpFR	12	7	1	BUILDER	190	n/a	1	n/a	0	0	0	0	0.5869140625	0.422607421875	upper	../fonts/amplitud.ttf
1786165	WORD	wordpools/wasnorm_wordpool_less_exclusions.txt	LTP287	ltpFR	12	7	1	ZIPPER	1636	n/a	0	n/a	0	0	0	0	0.5869140625	0.422607421875	upper	../fonts/amplitud.ttf
1790192	WORD	wordpools/wasnorm_wordpool_less_exclusions.txt	LTP287	ltpFR	12	7	1	RUG	1215	n/a	0	n/a	0	0	0	0	0.5869140625	0.422607421875	upper	../fonts/amplitud.ttf
1794336	WORD	wordpools/wasnorm_wordpool_less_exclusions.txt	LTP287	ltpFR	12	7	1	CHIMPANZEE	302	n/a	1	n/a	0	0	0	0	0.5869140625	0.422607421875	upper	../fonts/amplitud.ttf
1798396	WORD	wordpools/wasnorm_wordpool_less_exclusions.txt	LTP287	ltpFR	12	7	0	MAPLE	866	n/a	0	n/a	0	0	0	1	0.412841796875	0.57763671875	lower	../fonts/zerothre.ttf
1802274	WORD	wordpools/wasnorm_wordpool_less_exclusions.txt	LTP287	ltpFR	12	7	0	PRESIDENT	1121	n/a	1	n/a	0	0	0	1	0.412841796875	0.57763671875	lower	../fonts/zerothre.ttf
1806218	WORD	wordpools/wasnorm_wordpool_less_exclusions.txt	LTP287	ltpFR	12	7	0	SNACK	1331	n/a	0	n/a	0	0	0	1	0.412841796875	0.57763671875	lower	../fonts/zerothre.ttf
1810279	WORD	wordpools/wasnorm_wordpool_less_exclusions.txt	LTP287	ltpFR	12	7	1	LAWYER	806	n/a	1	n/a	0	0	0	0	0.5869140625	0.422607421875	upper	../fonts/amplitud.ttf
1814323	WORD	wordpools/wasnorm_wordpool_less_exclusions.txt	LTP287	ltpFR	12	7	1	BASKETBALL	96	n/a	0	n/a	0	0	0	0	0.5869140625	0.422607421875	upper	../fonts/amplitud.ttf
1818383	WORD	wordpools/wasnorm_wordpool_less_exclusions.txt	LTP287	ltpFR	12	7	1	APE	31	n/a	1	n/a	0	0	0	0	0.5869140625	0.422607421875	upper	../fonts/amplitud.ttf
1822410	WORD	wordpools/wasnorm_wordpool_less_exclusions.txt	LTP287	ltpFR	12	7	1	POCKET	1093	n/a	0	n/a	0	0	0	0	0.5869140625	0.422607421875	upper	../fonts/amplitud.ttf
1826238	WORD	wordpools/wasnorm_wordpool_less_exclusions.txt	LTP287	ltpFR	12	7	0	PADDING	999	n/a	0	n/a	0	0	0	1	0.412841796875	0.57763671875	lower	../fonts/zerothre.ttf
1830166	WORD	wordpools/wasnorm_wordpool_less_exclusions.txt	LTP287	ltpFR	12	7	0	COACH	331	n/a	1	n/a	0	0	0	1	0.412841796875	0.57763671875	lower	../fonts/zerothre.ttf
1833178	START	n/a	LTP287	ltpFR	12	n/a	n/a	n/a	n/a	n/a	n/a	n/a	n/a	n/a	n/a	n/a	n/a	n/a	n/a	n/a
1834160	PROB	n/a	LTP287	ltpFR	12	n/a	n/a	n/a	n/a	n/a	n/a	18	8	8	2	n/a	n/a	n/a	n/a	n/a
1836473	PROB	n/a	LTP287	ltpFR	12	n/a	n/a	n/a	n/a	n/a	n/a	24	9	8	7	n/a	n/a	n/a	n/a	n/a
1839839	STOP	n/a	LTP287	ltpFR	12	n/a	n/a	n/a	n/a	n/a	n/a	n/a	n/a	n/a	n/a	n/a	n/a	n/a	n/a	n/a
1843098	REC_START	n/a	LTP287	ltpFR	12	7	n/a	n/a	n/a	n/a	n/a	n/a	0	0	0	n/a	n/a	n/a	n/a	n/a
1843866	REC_WORD	wordpools/wasnorm_wordpool_less_exclusions.txt	LTP287	ltpFR	12	7	0	PADDING	999	n/a	0	n/a	0	0	0	n/a	n/a	n/a	n/a	n/a
1845141	REC_WORD	wordpools/wasnorm_wordpool_less_exclusions.txt	LTP287	ltpFR	12	7	0	COACH	331	n/a	1	n/a	0	0	0	n/a	n/a	n/a	n/a	n/a
1861599	REC_WORD	wordpools/wasnorm_wordpool_less_exclusions.txt	LTP287	ltpFR	12	7	0	ARCHITECT	36	n/a	1	n/a	0	0	0	n/a	n/a	n/a	n/a	n/a
1862606	REC_WORD	wordpools/wasnorm_wordpool_less_exclusions.txt	LTP287	ltpFR	12	7	1	BUILDER	190	n/a	1	n/a	0	0	0	n/a	n/a	n/a	n/a	n/a
1863446	REC_WORD	wordpools/wasnorm_wordpool_less_exclusions.txt	LTP287	ltpFR	12	7	1	ZIPPER	1636	n/a	0	n/a	0	0	0	n/a	n/a	n/a	n/a	n/a
1864418	REC_WORD	wordpools/wasnorm_wordpool_less_exclusions.txt	LTP287	ltpFR	12	7	1	RUG	1215	n/a	0	n/a	0	0	0	n/a	n/a	n/a	n/a	n/a
1871080	REC_WORD	wordpools/wasnorm_wordpool_less_exclusions.txt	LTP287	ltpFR	12	7	0	CLOVE	329	n/a	0	n/a	0	0	0	n/a	n/a	n/a	n/a	n/a
1872115	REC_WORD	wordpools/wasnorm_wordpool_less_exclusions.txt	LTP287	ltpFR	12	7	0	BARLEY	88	n/a	0	n/a	0	0	0	n/a	n/a	n/a	n/a	n/a
1929268	START	n/a	LTP287	ltpFR	12	n/a	n/a	n/a	n/a	n/a	n/a	n/a	n/a	n/a	n/a	n/a	n/a	n/a	n/a	n/a
1930782	PROB	n/a	LTP287	ltpFR	12	n/a	n/a	n/a	n/a	n/a	n/a	14	5	7	2	n/a	n/a	n/a	n/a	n/a
1932563	PROB	n/a	LTP287	ltpFR	12	n/a	n/a	n/a	n/a	n/a	n/a	8	6	1	1	n/a	n/a	n/a	n/a	n/a
1933744	PROB	n/a	LTP287	ltpFR	12	n/a	n/a	n/a	n/a	n/a	n/a	17	5	5	7	n/a	n/a	n/a	n/a	n/a
1934843	PROB	n/a	LTP287	ltpFR	12	n/a	n/a	n/a	n/a	n/a	n/a	15	8	3	4	n/a	n/a	n/a	n/a	n/a
1936773	PROB	n/a	LTP287	ltpFR	12	n/a	n/a	n/a	n/a	n/a	n/a	14	5	1	8	n/a	n/a	n/a	n/a	n/a
1938337	PROB	n/a	LTP287	ltpFR	12	n/a	n/a	n/a	n/a	n/a	n/a	12	1	2	9	n/a	n/a	n/a	n/a	n/a
1940069	PROB	n/a	LTP287	ltpFR	12	n/a	n/a	n/a	n/a	n/a	n/a	14	4	4	6	n/a	n/a	n/a	n/a	n/a
1941699	PROB	n/a	LTP287	ltpFR	12	n/a	n/a	n/a	n/a	n/a	n/a	13	7	4	2	n/a	n/a	n/a	n/a	n/a
1944183	STOP	n/a	LTP287	ltpFR	12	n/a	n/a	n/a	n/a	n/a	n/a	n/a	n/a	n/a	n/a	n/a	n/a	n/a	n/a	n/a
1946093	WORD	wordpools/wasnorm_wordpool_less_exclusions.txt	LTP287	ltpFR	12	8	0	MOTEL	919	n/a	1	n/a	0	0	0	1	0.412841796875	0.57763671875	lower	../fonts/zerothre.ttf
1949106	START	n/a	LTP287	ltpFR	12	n/a	n/a	n/a	n/a	n/a	n/a	n/a	n/a	n/a	n/a	n/a	n/a	n/a	n/a	n/a
1950004	PROB	n/a	LTP287	ltpFR	12	n/a	n/a	n/a	n/a	n/a	n/a	13	6	4	3	n/a	n/a	n/a	n/a	n/a
1951086	PROB	n/a	LTP287	ltpFR	12	n/a	n/a	n/a	n/a	n/a	n/a	9	2	2	5	n/a	n/a	n/a	n/a	n/a
1952433	PROB	n/a	LTP287	ltpFR	12	n/a	n/a	n/a	n/a	n/a	n/a	14	7	3	4	n/a	n/a	n/a	n/a	n/a
1953515	PROB	n/a	LTP287	ltpFR	12	n/a	n/a	n/a	n/a	n/a	n/a	10	2	7	1	n/a	n/a	n/a	n/a	n/a
1955279	PROB	n/a	LTP287	ltpFR	12	n/a	n/a	n/a	n/a	n/a	n/a	17	6	7	4	n/a	n/a	n/a	n/a	n/a
1957326	PROB	n/a	LTP287	ltpFR	12	n/a	n/a	n/a	n/a	n/a	n/a	13	6	1	6	n/a	n/a	n/a	n/a	n/a
1958873	PROB	n/a	LTP287	ltpFR	12	n/a	n/a	n/a	n/a	n/a	n/a	17	6	5	8	n/a	n/a	n/a	n/a	n/a
1962070	PROB	n/a	LTP287	ltpFR	12	n/a	n/a	n/a	n/a	n/a	n/a	14	1	9	4	n/a	n/a	n/a	n/a	n/a
1964343	STOP	n/a	LTP287	ltpFR	12	n/a	n/a	n/a	n/a	n/a	n/a	n/a	n/a	n/a	n/a	n/a	n/a	n/a	n/a	n/a
1966179	WORD	wordpools/wasnorm_wordpool_less_exclusions.txt	LTP287	ltpFR	12	8	0	CHAIR	274	n/a	1	n/a	0	0	0	1	0.412841796875	0.57763671875	lower	../fonts/zerothre.ttf
1969192	START	n/a	LTP287	ltpFR	12	n/a	n/a	n/a	n/a	n/a	n/a	n/a	n/a	n/a	n/a	n/a	n/a	n/a	n/a	n/a
1970290	PROB	n/a	LTP287	ltpFR	12	n/a	n/a	n/a	n/a	n/a	n/a	11	1	3	7	n/a	n/a	n/a	n/a	n/a
1971538	PROB	n/a	LTP287	ltpFR	12	n/a	n/a	n/a	n/a	n/a	n/a	13	5	4	4	n/a	n/a	n/a	n/a	n/a
1974035	PROB	n/a	LTP287	ltpFR	12	n/a	n/a	n/a	n/a	n/a	n/a	11	2	7	2	n/a	n/a	n/a	n/a	n/a
1976231	PROB	n/a	LTP287	ltpFR	12	n/a	n/a	n/a	n/a	n/a	n/a	15	5	1	9	n/a	n/a	n/a	n/a	n/a
1978710	PROB	n/a	LTP287	ltpFR	12	n/a	n/a	n/a	n/a	n/a	n/a	26	9	9	8	n/a	n/a	n/a	n/a	n/a
1981956	PROB	n/a	LTP287	ltpFR	12	n/a	n/a	n/a	n/a	n/a	n/a	17	1	7	9	n/a	n/a	n/a	n/a	n/a
1983880	STOP	n/a	LTP287	ltpFR	12	n/a	n/a	n/a	n/a	n/a	n/a	n/a	n/a	n/a	n/a	n/a	n/a	n/a	n/a	n/a
1986050	WORD	wordpools/wasnorm_wordpool_less_exclusions.txt	LTP287	ltpFR	12	8	0	THUMB	1462	n/a	0	n/a	0	0	0	1	0.412841796875	0.57763671875	lower	../fonts/zerothre.ttf
1989063	START	n/a	LTP287	ltpFR	12	n/a	n/a	n/a	n/a	n/a	n/a	n/a	n/a	n/a	n/a	n/a	n/a	n/a	n/a	n/a
1989945	PROB	n/a	LTP287	ltpFR	12	n/a	n/a	n/a	n/a	n/a	n/a	11	6	2	3	n/a	n/a	n/a	n/a	n/a
1992075	PROB	n/a	LTP287	ltpFR	12	n/a	n/a	n/a	n/a	n/a	n/a	19	9	6	4	n/a	n/a	n/a	n/a	n/a
1995835	PROB	n/a	LTP287	ltpFR	12	n/a	n/a	n/a	n/a	n/a	n/a	14	2	6	6	n/a	n/a	n/a	n/a	n/a
1999496	PROB	n/a	LTP287	ltpFR	12	n/a	n/a	n/a	n/a	n/a	n/a	26	9	8	9	n/a	n/a	n/a	n/a	n/a
2001310	PROB	n/a	LTP287	ltpFR	12	n/a	n/a	n/a	n/a	n/a	n/a	9	1	1	7	n/a	n/a	n/a	n/a	n/a
2003307	PROB	n/a	LTP287	ltpFR	12	n/a	n/a	n/a	n/a	n/a	n/a	16	3	7	6	n/a	n/a	n/a	n/a	n/a
2004471	STOP	n/a	LTP287	ltpFR	12	n/a	n/a	n/a	n/a	n/a	n/a	n/a	n/a	n/a	n/a	n/a	n/a	n/a	n/a	n/a
2006203	WORD	wordpools/wasnorm_wordpool_less_exclusions.txt	LTP287	ltpFR	12	8	0	ELBOW	520	n/a	0	n/a	0	0	0	1	0.412841796875	0.57763671875	lower	../fonts/zerothre.ttf
2009215	START	n/a	LTP287	ltpFR	12	n/a	n/a	n/a	n/a	n/a	n/a	n/a	n/a	n/a	n/a	n/a	n/a	n/a	n/a	n/a
2010396	PROB	n/a	LTP287	ltpFR	12	n/a	n/a	n/a	n/a	n/a	n/a	13	6	3	4	n/a	n/a	n/a	n/a	n/a
2011912	PROB	n/a	LTP287	ltpFR	12	n/a	n/a	n/a	n/a	n/a	n/a	16	4	3	9	n/a	n/a	n/a	n/a	n/a
2013758	PROB	n/a	LTP287	ltpFR	12	n/a	n/a	n/a	n/a	n/a	n/a	15	7	1	7	n/a	n/a	n/a	n/a	n/a
2015372	PROB	n/a	LTP287	ltpFR	12	n/a	n/a	n/a	n/a	n/a	n/a	16	8	4	4	n/a	n/a	n/a	n/a	n/a
2017021	PROB	n/a	LTP287	ltpFR	12	n/a	n/a	n/a	n/a	n/a	n/a	18	4	5	9	n/a	n/a	n/a	n/a	n/a
2018551	PROB	n/a	LTP287	ltpFR	12	n/a	n/a	n/a	n/a	n/a	n/a	9	1	1	7	n/a	n/a	n/a	n/a	n/a
2019799	PROB	n/a	LTP287	ltpFR	12	n/a	n/a	n/a	n/a	n/a	n/a	18	8	6	4	n/a	n/a	n/a	n/a	n/a
2021829	PROB	n/a	LTP287	ltpFR	12	n/a	n/a	n/a	n/a	n/a	n/a	8	4	2	2	n/a	n/a	n/a	n/a	n/a
2025215	STOP	n/a	LTP287	ltpFR	12	n/a	n/a	n/a	n/a	n/a	n/a	n/a	n/a	n/a	n/a	n/a	n/a	n/a	n/a	n/a
2026074	WORD	wordpools/wasnorm_wordpool_less_exclusions.txt	LTP287	ltpFR	12	8	0	DISHWASHER	475	n/a	1	n/a	0	0	0	1	0.412841796875	0.57763671875	lower	../fonts/zerothre.ttf
2029087	START	n/a	LTP287	ltpFR	12	n/a	n/a	n/a	n/a	n/a	n/a	n/a	n/a	n/a	n/a	n/a	n/a	n/a	n/a	n/a
2030167	PROB	n/a	LTP287	ltpFR	12	n/a	n/a	n/a	n/a	n/a	n/a	18	9	8	1	n/a	n/a	n/a	n/a	n/a
2032380	PROB	n/a	LTP287	ltpFR	12	n/a	n/a	n/a	n/a	n/a	n/a	20	8	5	7	n/a	n/a	n/a	n/a	n/a
2035376	PROB	n/a	LTP287	ltpFR	12	n/a	n/a	n/a	n/a	n/a	n/a	18	2	9	7	n/a	n/a	n/a	n/a	n/a
2037456	PROB	n/a	LTP287	ltpFR	12	n/a	n/a	n/a	n/a	n/a	n/a	12	4	3	5	n/a	n/a	n/a	n/a	n/a
2041018	PROB	n/a	LTP287	ltpFR	12	n/a	n/a	n/a	n/a	n/a	n/a	12	1	6	5	n/a	n/a	n/a	n/a	n/a
2045086	STOP	n/a	LTP287	ltpFR	12	n/a	n/a	n/a	n/a	n/a	n/a	n/a	n/a	n/a	n/a	n/a	n/a	n/a	n/a	n/a
2046061	WORD	wordpools/wasnorm_wordpool_less_exclusions.txt	LTP287	ltpFR	12	8	0	BATH	98	n/a	1	n/a	0	0	0	1	0.412841796875	0.57763671875	lower	../fonts/zerothre.ttf
2049073	START	n/a	LTP287	ltpFR	12	n/a	n/a	n/a	n/a	n/a	n/a	n/a	n/a	n/a	n/a	n/a	n/a	n/a	n/a	n/a
2049922	PROB	n/a	LTP287	ltpFR	12	n/a	n/a	n/a	n/a	n/a	n/a	19	6	7	6	n/a	n/a	n/a	n/a	n/a
2051969	PROB	n/a	LTP287	ltpFR	12	n/a	n/a	n/a	n/a	n/a	n/a	18	6	3	9	n/a	n/a	n/a	n/a	n/a
2053732	PROB	n/a	LTP287	ltpFR	12	n/a	n/a	n/a	n/a	n/a	n/a	15	2	4	9	n/a	n/a	n/a	n/a	n/a
2057226	PROB	n/a	LTP287	ltpFR	12	n/a	n/a	n/a	n/a	n/a	n/a	12	2	1	9	n/a	n/a	n/a	n/a	n/a
2059025	PROB	n/a	LTP287	ltpFR	12	n/a	n/a	n/a	n/a	n/a	n/a	9	3	4	2	n/a	n/a	n/a	n/a	n/a
2061088	PROB	n/a	LTP287	ltpFR	12	n/a	n/a	n/a	n/a	n/a	n/a	4	1	2	1	n/a	n/a	n/a	n/a	n/a
2062602	PROB	n/a	LTP287	ltpFR	12	n/a	n/a	n/a	n/a	n/a	n/a	18	8	3	7	n/a	n/a	n/a	n/a	n/a
2064239	STOP	n/a	LTP287	ltpFR	12	n/a	n/a	n/a	n/a	n/a	n/a	n/a	n/a	n/a	n/a	n/a	n/a	n/a	n/a	n/a
2066147	WORD	wordpools/wasnorm_wordpool_less_exclusions.txt	LTP287	ltpFR	12	8	0	HAND	683	n/a	0	n/a	0	0	0	1	0.412841796875	0.57763671875	lower	../fonts/zerothre.ttf
2069159	START	n/a	LTP287	ltpFR	12	n/a	n/a	n/a	n/a	n/a	n/a	n/a	n/a	n/a	n/a	n/a	n/a	n/a	n/a	n/a
2069992	PROB	n/a	LTP287	ltpFR	12	n/a	n/a	n/a	n/a	n/a	n/a	20	8	6	6	n/a	n/a	n/a	n/a	n/a
2071939	PROB	n/a	LTP287	ltpFR	12	n/a	n/a	n/a	n/a	n/a	n/a	12	2	7	3	n/a	n/a	n/a	n/a	n/a
2073369	PROB	n/a	LTP287	ltpFR	12	n/a	n/a	n/a	n/a	n/a	n/a	12	3	8	1	n/a	n/a	n/a	n/a	n/a
2075516	PROB	n/a	LTP287	ltpFR	12	n/a	n/a	n/a	n/a	n/a	n/a	13	6	2	5	n/a	n/a	n/a	n/a	n/a
2077996	PROB	n/a	LTP287	ltpFR	12	n/a	n/a	n/a	n/a	n/a	n/a	21	8	7	6	n/a	n/a	n/a	n/a	n/a
2079776	PROB	n/a	LTP287	ltpFR	12	n/a	n/a	n/a	n/a	n/a	n/a	21	9	4	8	n/a	n/a	n/a	n/a	n/a
2082024	PROB	n/a	LTP287	ltpFR	12	n/a	n/a	n/a	n/a	n/a	n/a	20	6	9	5	n/a	n/a	n/a	n/a	n/a
2084207	STOP	n/a	LTP287	ltpFR	12	n/a	n/a	n/a	n/a	n/a	n/a	n/a	n/a	n/a	n/a	n/a	n/a	n/a	n/a	n/a
2086018	WORD	wordpools/wasnorm_wordpool_less_exclusions.txt	LTP287	ltpFR	12	8	0	WRIST	1626	n/a	0	n/a	0	0	0	1	0.412841796875	0.57763671875	lower	../fonts/zerothre.ttf
2089030	START	n/a	LTP287	ltpFR	12	n/a	n/a	n/a	n/a	n/a	n/a	n/a	n/a	n/a	n/a	n/a	n/a	n/a	n/a	n/a
2090177	PROB	n/a	LTP287	ltpFR	12	n/a	n/a	n/a	n/a	n/a	n/a	10	3	2	5	n/a	n/a	n/a	n/a	n/a
2092025	PROB	n/a	LTP287	ltpFR	12	n/a	n/a	n/a	n/a	n/a	n/a	14	3	8	3	n/a	n/a	n/a	n/a	n/a
2093972	PROB	n/a	LTP287	ltpFR	12	n/a	n/a	n/a	n/a	n/a	n/a	18	9	8	1	n/a	n/a	n/a	n/a	n/a
2095986	PROB	n/a	LTP287	ltpFR	12	n/a	n/a	n/a	n/a	n/a	n/a	18	8	3	7	n/a	n/a	n/a	n/a	n/a
2097533	PROB	n/a	LTP287	ltpFR	12	n/a	n/a	n/a	n/a	n/a	n/a	10	2	3	5	n/a	n/a	n/a	n/a	n/a
2098948	PROB	n/a	LTP287	ltpFR	12	n/a	n/a	n/a	n/a	n/a	n/a	10	3	6	1	n/a	n/a	n/a	n/a	n/a
2100828	PROB	n/a	LTP287	ltpFR	12	n/a	n/a	n/a	n/a	n/a	n/a	22	9	5	8	n/a	n/a	n/a	n/a	n/a
2103495	STOP	n/a	LTP287	ltpFR	12	n/a	n/a	n/a	n/a	n/a	n/a	n/a	n/a	n/a	n/a	n/a	n/a	n/a	n/a	n/a
2106071	WORD	wordpools/wasnorm_wordpool_less_exclusions.txt	LTP287	ltpFR	12	8	0	VALVE	1546	n/a	0	n/a	0	0	0	1	0.412841796875	0.57763671875	lower	../fonts/zerothre.ttf
2109084	START	n/a	LTP287	ltpFR	12	n/a	n/a	n/a	n/a	n/a	n/a	n/a	n/a	n/a	n/a	n/a	n/a	n/a	n/a	n/a
2109899	PROB	n/a	LTP287	ltpFR	12	n/a	n/a	n/a	n/a	n/a	n/a	21	6	7	8	n/a	n/a	n/a	n/a	n/a
2112344	PROB	n/a	LTP287	ltpFR	12	n/a	n/a	n/a	n/a	n/a	n/a	12	5	4	3	n/a	n/a	n/a	n/a	n/a
2115074	PROB	n/a	LTP287	ltpFR	12	n/a	n/a	n/a	n/a	n/a	n/a	12	1	2	9	n/a	n/a	n/a	n/a	n/a
2116854	PROB	n/a	LTP287	ltpFR	12	n/a	n/a	n/a	n/a	n/a	n/a	23	7	8	8	n/a	n/a	n/a	n/a	n/a
2125083	STOP	n/a	LTP287	ltpFR	12	n/a	n/a	n/a	n/a	n/a	n/a	n/a	n/a	n/a	n/a	n/a	n/a	n/a	n/a	n/a
2126240	WORD	wordpools/wasnorm_wordpool_less_exclusions.txt	LTP287	ltpFR	12	8	0	QUILT	1151	n/a	1	n/a	0	0	0	1	0.412841796875	0.57763671875	lower	../fonts/zerothre.ttf
2129253	START	n/a	LTP287	ltpFR	12	n/a	n/a	n/a	n/a	n/a	n/a	n/a	n/a	n/a	n/a	n/a	n/a	n/a	n/a	n/a
2130334	PROB	n/a	LTP287	ltpFR	12	n/a	n/a	n/a	n/a	n/a	n/a	14	7	4	3	n/a	n/a	n/a	n/a	n/a
2131665	PROB	n/a	LTP287	ltpFR	12	n/a	n/a	n/a	n/a	n/a	n/a	20	8	4	8	n/a	n/a	n/a	n/a	n/a
2133363	PROB	n/a	LTP287	ltpFR	12	n/a	n/a	n/a	n/a	n/a	n/a	18	9	5	4	n/a	n/a	n/a	n/a	n/a
2135227	PROB	n/a	LTP287	ltpFR	12	n/a	n/a	n/a	n/a	n/a	n/a	14	2	8	4	n/a	n/a	n/a	n/a	n/a
2136574	PROB	n/a	LTP287	ltpFR	12	n/a	n/a	n/a	n/a	n/a	n/a	16	4	3	9	n/a	n/a	n/a	n/a	n/a
2138305	PROB	n/a	LTP287	ltpFR	12	n/a	n/a	n/a	n/a	n/a	n/a	27	9	9	9	n/a	n/a	n/a	n/a	n/a
2140070	PROB	n/a	LTP287	ltpFR	12	n/a	n/a	n/a	n/a	n/a	n/a	17	7	7	3	n/a	n/a	n/a	n/a	n/a
2142566	PROB	n/a	LTP287	ltpFR	12	n/a	n/a	n/a	n/a	n/a	n/a	18	5	7	6	n/a	n/a	n/a	n/a	n/a
2144847	STOP	n/a	LTP287	ltpFR	12	n/a	n/a	n/a	n/a	n/a	n/a	n/a	n/a	n/a	n/a	n/a	n/a	n/a	n/a	n/a
2146193	WORD	wordpools/wasnorm_wordpool_less_exclusions.txt	LTP287	ltpFR	12	8	0	PENNY	1045	n/a	0	n/a	0	0	0	1	0.412841796875	0.57763671875	lower	../fonts/zerothre.ttf
2149206	START	n/a	LTP287	ltpFR	12	n/a	n/a	n/a	n/a	n/a	n/a	n/a	n/a	n/a	n/a	n/a	n/a	n/a	n/a	n/a
2150105	PROB	n/a	LTP287	ltpFR	12	n/a	n/a	n/a	n/a	n/a	n/a	23	8	7	8	n/a	n/a	n/a	n/a	n/a
2153966	PROB	n/a	LTP287	ltpFR	12	n/a	n/a	n/a	n/a	n/a	n/a	8	5	1	2	n/a	n/a	n/a	n/a	n/a
2156162	PROB	n/a	LTP287	ltpFR	12	n/a	n/a	n/a	n/a	n/a	n/a	15	7	3	5	n/a	n/a	n/a	n/a	n/a
2157510	PROB	n/a	LTP287	ltpFR	12	n/a	n/a	n/a	n/a	n/a	n/a	19	7	3	9	n/a	n/a	n/a	n/a	n/a
2158808	PROB	n/a	LTP287	ltpFR	12	n/a	n/a	n/a	n/a	n/a	n/a	15	7	6	2	n/a	n/a	n/a	n/a	n/a
2160539	PROB	n/a	LTP287	ltpFR	12	n/a	n/a	n/a	n/a	n/a	n/a	15	2	5	8	n/a	n/a	n/a	n/a	n/a
2162920	PROB	n/a	LTP287	ltpFR	12	n/a	n/a	n/a	n/a	n/a	n/a	14	9	1	4	n/a	n/a	n/a	n/a	n/a
2164191	STOP	n/a	LTP287	ltpFR	12	n/a	n/a	n/a	n/a	n/a	n/a	n/a	n/a	n/a	n/a	n/a	n/a	n/a	n/a	n/a
2166413	WORD	wordpools/wasnorm_wordpool_less_exclusions.txt	LTP287	ltpFR	12	8	0	DORM	488	n/a	1	n/a	0	0	0	1	0.412841796875	0.57763671875	lower	../fonts/zerothre.ttf
2169426	START	n/a	LTP287	ltpFR	12	n/a	n/a	n/a	n/a	n/a	n/a	n/a	n/a	n/a	n/a	n/a	n/a	n/a	n/a	n/a
2170574	PROB	n/a	LTP287	ltpFR	12	n/a	n/a	n/a	n/a	n/a	n/a	13	5	3	5	n/a	n/a	n/a	n/a	n/a
2171872	PROB	n/a	LTP287	ltpFR	12	n/a	n/a	n/a	n/a	n/a	n/a	22	9	5	8	n/a	n/a	n/a	n/a	n/a
2176648	PROB	n/a	LTP287	ltpFR	12	n/a	n/a	n/a	n/a	n/a	n/a	22	8	5	9	n/a	n/a	n/a	n/a	n/a
2178512	PROB	n/a	LTP287	ltpFR	12	n/a	n/a	n/a	n/a	n/a	n/a	22	6	9	7	n/a	n/a	n/a	n/a	n/a
2181557	PROB	n/a	LTP287	ltpFR	12	n/a	n/a	n/a	n/a	n/a	n/a	22	7	5	9	n/a	n/a	n/a	n/a	n/a
2184431	STOP	n/a	LTP287	ltpFR	12	n/a	n/a	n/a	n/a	n/a	n/a	n/a	n/a	n/a	n/a	n/a	n/a	n/a	n/a	n/a
2186400	WORD	wordpools/wasnorm_wordpool_less_exclusions.txt	LTP287	ltpFR	12	8	0	SALAD	1224	n/a	0	n/a	0	0	0	1	0.412841796875	0.57763671875	lower	../fonts/zerothre.ttf
2189413	START	n/a	LTP287	ltpFR	12	n/a	n/a	n/a	n/a	n/a	n/a	n/a	n/a	n/a	n/a	n/a	n/a	n/a	n/a	n/a
2190461	PROB	n/a	LTP287	ltpFR	12	n/a	n/a	n/a	n/a	n/a	n/a	11	1	8	2	n/a	n/a	n/a	n/a	n/a
2192009	PROB	n/a	LTP287	ltpFR	12	n/a	n/a	n/a	n/a	n/a	n/a	20	9	8	3	n/a	n/a	n/a	n/a	n/a
2194905	PROB	n/a	LTP287	ltpFR	12	n/a	n/a	n/a	n/a	n/a	n/a	22	8	8	6	n/a	n/a	n/a	n/a	n/a
2197052	PROB	n/a	LTP287	ltpFR	12	n/a	n/a	n/a	n/a	n/a	n/a	13	4	1	7	n/a	n/a	n/a	n/a	n/a
2205413	STOP	n/a	LTP287	ltpFR	12	n/a	n/a	n/a	n/a	n/a	n/a	n/a	n/a	n/a	n/a	n/a	n/a	n/a	n/a	n/a
2206453	WORD	wordpools/wasnorm_wordpool_less_exclusions.txt	LTP287	ltpFR	12	8	0	FURNITURE	616	n/a	0	n/a	0	0	0	1	0.412841796875	0.57763671875	lower	../fonts/zerothre.ttf
2209466	START	n/a	LTP287	ltpFR	12	n/a	n/a	n/a	n/a	n/a	n/a	n/a	n/a	n/a	n/a	n/a	n/a	n/a	n/a	n/a
2210647	PROB	n/a	LTP287	ltpFR	12	n/a	n/a	n/a	n/a	n/a	n/a	13	6	4	3	n/a	n/a	n/a	n/a	n/a
2211930	PROB	n/a	LTP287	ltpFR	12	n/a	n/a	n/a	n/a	n/a	n/a	8	3	3	2	n/a	n/a	n/a	n/a	n/a
2213676	PROB	n/a	LTP287	ltpFR	12	n/a	n/a	n/a	n/a	n/a	n/a	11	5	4	2	n/a	n/a	n/a	n/a	n/a
2215157	PROB	n/a	LTP287	ltpFR	12	n/a	n/a	n/a	n/a	n/a	n/a	22	4	9	9	n/a	n/a	n/a	n/a	n/a
2217072	PROB	n/a	LTP287	ltpFR	12	n/a	n/a	n/a	n/a	n/a	n/a	13	3	8	2	n/a	n/a	n/a	n/a	n/a
2218569	PROB	n/a	LTP287	ltpFR	12	n/a	n/a	n/a	n/a	n/a	n/a	18	7	7	4	n/a	n/a	n/a	n/a	n/a
2220001	PROB	n/a	LTP287	ltpFR	12	n/a	n/a	n/a	n/a	n/a	n/a	11	3	5	3	n/a	n/a	n/a	n/a	n/a
2222148	PROB	n/a	LTP287	ltpFR	12	n/a	n/a	n/a	n/a	n/a	n/a	11	5	2	4	n/a	n/a	n/a	n/a	n/a
2224383	STOP	n/a	LTP287	ltpFR	12	n/a	n/a	n/a	n/a	n/a	n/a	n/a	n/a	n/a	n/a	n/a	n/a	n/a	n/a	n/a
2226324	WORD	wordpools/wasnorm_wordpool_less_exclusions.txt	LTP287	ltpFR	12	8	0	WAX	1597	n/a	0	n/a	0	0	0	1	0.412841796875	0.57763671875	lower	../fonts/zerothre.ttf
2229336	START	n/a	LTP287	ltpFR	12	n/a	n/a	n/a	n/a	n/a	n/a	n/a	n/a	n/a	n/a	n/a	n/a	n/a	n/a	n/a
2230434	PROB	n/a	LTP287	ltpFR	12	n/a	n/a	n/a	n/a	n/a	n/a	15	2	8	5	n/a	n/a	n/a	n/a	n/a
2233646	PROB	n/a	LTP287	ltpFR	12	n/a	n/a	n/a	n/a	n/a	n/a	19	9	7	3	n/a	n/a	n/a	n/a	n/a
2235310	PROB	n/a	LTP287	ltpFR	12	n/a	n/a	n/a	n/a	n/a	n/a	19	9	9	1	n/a	n/a	n/a	n/a	n/a
2237075	PROB	n/a	LTP287	ltpFR	12	n/a	n/a	n/a	n/a	n/a	n/a	24	9	9	6	n/a	n/a	n/a	n/a	n/a
2239421	PROB	n/a	LTP287	ltpFR	12	n/a	n/a	n/a	n/a	n/a	n/a	13	8	4	1	n/a	n/a	n/a	n/a	n/a
2241618	PROB	n/a	LTP287	ltpFR	12	n/a	n/a	n/a	n/a	n/a	n/a	10	6	3	1	n/a	n/a	n/a	n/a	n/a
2243248	PROB	n/a	LTP287	ltpFR	12	n/a	n/a	n/a	n/a	n/a	n/a	18	8	3	7	n/a	n/a	n/a	n/a	n/a
2244976	STOP	n/a	LTP287	ltpFR	12	n/a	n/a	n/a	n/a	n/a	n/a	n/a	n/a	n/a	n/a	n/a	n/a	n/a	n/a	n/a
2246444	WORD	wordpools/wasnorm_wordpool_less_exclusions.txt	LTP287	ltpFR	12	8	0	JURY	766	n/a	1	n/a	0	0	0	1	0.412841796875	0.57763671875	lower	../fonts/zerothre.ttf
2249456	START	n/a	LTP287	ltpFR	12	n/a	n/a	n/a	n/a	n/a	n/a	n/a	n/a	n/a	n/a	n/a	n/a	n/a	n/a	n/a
2250471	PROB	n/a	LTP287	ltpFR	12	n/a	n/a	n/a	n/a	n/a	n/a	21	8	9	4	n/a	n/a	n/a	n/a	n/a
2253616	PROB	n/a	LTP287	ltpFR	12	n/a	n/a	n/a	n/a	n/a	n/a	22	4	9	9	n/a	n/a	n/a	n/a	n/a
2255380	PROB	n/a	LTP287	ltpFR	12	n/a	n/a	n/a	n/a	n/a	n/a	16	5	2	9	n/a	n/a	n/a	n/a	n/a
2257594	PROB	n/a	LTP287	ltpFR	12	n/a	n/a	n/a	n/a	n/a	n/a	18	7	7	3	n/a	n/a	n/a	n/a	n/a
2260058	PROB	n/a	LTP287	ltpFR	12	n/a	n/a	n/a	n/a	n/a	n/a	14	5	3	6	n/a	n/a	n/a	n/a	n/a
2263385	PROB	n/a	LTP287	ltpFR	12	n/a	n/a	n/a	n/a	n/a	n/a	15	3	5	7	n/a	n/a	n/a	n/a	n/a
2264936	STOP	n/a	LTP287	ltpFR	12	n/a	n/a	n/a	n/a	n/a	n/a	n/a	n/a	n/a	n/a	n/a	n/a	n/a	n/a	n/a
2267296	REC_START	n/a	LTP287	ltpFR	12	8	n/a	n/a	n/a	n/a	n/a	n/a	0	0	0	n/a	n/a	n/a	n/a	n/a
2268336	REC_WORD	wordpools/wasnorm_wordpool_less_exclusions.txt	LTP287	ltpFR	12	8	0	JURY	766	n/a	1	n/a	0	0	0	n/a	n/a	n/a	n/a	n/a
2269457	REC_WORD	wordpools/wasnorm_wordpool_less_exclusions.txt	LTP287	ltpFR	12	8	0	SALAD	1224	n/a	0	n/a	0	0	0	n/a	n/a	n/a	n/a	n/a
2271245	REC_WORD	wordpools/wasnorm_wordpool_less_exclusions.txt	LTP287	ltpFR	12	8	0	PENNY	1045	n/a	0	n/a	0	0	0	n/a	n/a	n/a	n/a	n/a
2277189	REC_WORD	wordpools/wasnorm_wordpool_less_exclusions.txt	LTP287	ltpFR	12	8	0	QUILT	1151	n/a	1	n/a	0	0	0	n/a	n/a	n/a	n/a	n/a
2279515	REC_WORD	wordpools/wasnorm_wordpool_less_exclusions.txt	LTP287	ltpFR	12	8	0	FURNITURE	616	n/a	0	n/a	0	0	0	n/a	n/a	n/a	n/a	n/a
2281048	REC_WORD	wordpools/wasnorm_wordpool_less_exclusions.txt	LTP287	ltpFR	12	8	0	CHAIR	274	n/a	1	n/a	0	0	0	n/a	n/a	n/a	n/a	n/a
2360656	WORD	wordpools/wasnorm_wordpool_less_exclusions.txt	LTP287	ltpFR	12	9	1	FOREHEAD	592	n/a	0	n/a	0	0	0	0	0.5869140625	0.422607421875	upper	../fonts/amplitud.ttf
2364551	WORD	wordpools/wasnorm_wordpool_less_exclusions.txt	LTP287	ltpFR	12	9	1	MILK	895	n/a	0	n/a	0	0	0	0	0.5869140625	0.422607421875	upper	../fonts/amplitud.ttf
2368611	WORD	wordpools/wasnorm_wordpool_less_exclusions.txt	LTP287	ltpFR	12	9	0	CAVE	263	n/a	1	n/a	0	0	0	1	0.412841796875	0.57763671875	lower	../fonts/zerothre.ttf
2372505	WORD	wordpools/wasnorm_wordpool_less_exclusions.txt	LTP287	ltpFR	12	9	0	MUFFIN	929	n/a	0	n/a	0	0	0	1	0.412841796875	0.57763671875	lower	../fonts/zerothre.ttf
2376599	WORD	wordpools/wasnorm_wordpool_less_exclusions.txt	LTP287	ltpFR	12	9	0	BAKER	71	n/a	1	n/a	0	0	0	1	0.412841796875	0.57763671875	lower	../fonts/zerothre.ttf
2380660	WORD	wordpools/wasnorm_wordpool_less_exclusions.txt	LTP287	ltpFR	12	9	0	CROW	414	n/a	0	n/a	0	0	0	1	0.412841796875	0.57763671875	lower	../fonts/zerothre.ttf
2384671	WORD	wordpools/wasnorm_wordpool_less_exclusions.txt	LTP287	ltpFR	12	9	0	CRUMB	416	n/a	0	n/a	0	0	0	1	0.412841796875	0.57763671875	lower	../fonts/zerothre.ttf
2388831	WORD	wordpools/wasnorm_wordpool_less_exclusions.txt	LTP287	ltpFR	12	9	0	CAKE	219	n/a	0	n/a	0	0	0	1	0.412841796875	0.57763671875	lower	../fonts/zerothre.ttf
2392659	WORD	wordpools/wasnorm_wordpool_less_exclusions.txt	LTP287	ltpFR	12	9	1	DRILL	497	n/a	0	n/a	0	0	0	0	0.5869140625	0.422607421875	upper	../fonts/amplitud.ttf
2396686	WORD	wordpools/wasnorm_wordpool_less_exclusions.txt	LTP287	ltpFR	12	9	1	CEILING	265	n/a	0	n/a	0	0	0	0	0.5869140625	0.422607421875	upper	../fonts/amplitud.ttf
2400647	WORD	wordpools/wasnorm_wordpool_less_exclusions.txt	LTP287	ltpFR	12	9	1	BALCONY	72	n/a	0	n/a	0	0	0	0	0.5869140625	0.422607421875	upper	../fonts/amplitud.ttf
2404674	WORD	wordpools/wasnorm_wordpool_less_exclusions.txt	LTP287	ltpFR	12	9	1	PELICAN	1039	n/a	1	n/a	0	0	0	0	0.5869140625	0.422607421875	upper	../fonts/amplitud.ttf
2408618	WORD	wordpools/wasnorm_wordpool_less_exclusions.txt	LTP287	ltpFR	12	9	0	ATTIC	56	n/a	1	n/a	0	0	0	1	0.412841796875	0.57763671875	lower	../fonts/zerothre.ttf
2412812	WORD	wordpools/wasnorm_wordpool_less_exclusions.txt	LTP287	ltpFR	12	9	0	CARTON	251	n/a	0	n/a	0	0	0	1	0.412841796875	0.57763671875	lower	../fonts/zerothre.ttf
2416907	WORD	wordpools/wasnorm_wordpool_less_exclusions.txt	LTP287	ltpFR	12	9	1	ASIA	46	n/a	0	n/a	0	0	0	0	0.5869140625	0.422607421875	upper	../fonts/amplitud.ttf
2420800	WORD	wordpools/wasnorm_wordpool_less_exclusions.txt	LTP287	ltpFR	12	9	1	LAMB	797	n/a	1	n/a	0	0	0	0	0.5869140625	0.422607421875	upper	../fonts/amplitud.ttf
2426625	REC_START	n/a	LTP287	ltpFR	12	9	n/a	n/a	n/a	n/a	n/a	n/a	0	0	0	n/a	n/a	n/a	n/a	n/a
2427721	REC_WORD	wordpools/wasnorm_wordpool_less_exclusions.txt	LTP287	ltpFR	12	9	1	LAMB	797	n/a	1	n/a	0	0	0	n/a	n/a	n/a	n/a	n/a
2428847	REC_WORD	wordpools/wasnorm_wordpool_less_exclusions.txt	LTP287	ltpFR	12	9	1	ASIA	46	n/a	0	n/a	0	0	0	n/a	n/a	n/a	n/a	n/a
2429702	REC_WORD	wordpools/wasnorm_wordpool_less_exclusions.txt	LTP287	ltpFR	12	9	1	FOREHEAD	592	n/a	0	n/a	0	0	0	n/a	n/a	n/a	n/a	n/a
2430804	REC_WORD	wordpools/wasnorm_wordpool_less_exclusions.txt	LTP287	ltpFR	12	9	1	MILK	895	n/a	0	n/a	0	0	0	n/a	n/a	n/a	n/a	n/a
2431872	REC_WORD	wordpools/wasnorm_wordpool_less_exclusions.txt	LTP287	ltpFR	12	9	0	BAKER	71	n/a	1	n/a	0	0	0	n/a	n/a	n/a	n/a	n/a
2432731	REC_WORD	wordpools/wasnorm_wordpool_less_exclusions.txt	LTP287	ltpFR	12	9	0	MUFFIN	929	n/a	0	n/a	0	0	0	n/a	n/a	n/a	n/a	n/a
2433695	REC_WORD	wordpools/wasnorm_wordpool_less_exclusions.txt	LTP287	ltpFR	12	9	0	CRUMB	416	n/a	0	n/a	0	0	0	n/a	n/a	n/a	n/a	n/a
2434671	REC_WORD	wordpools/wasnorm_wordpool_less_exclusions.txt	LTP287	ltpFR	12	9	0	CAKE	219	n/a	0	n/a	0	0	0	n/a	n/a	n/a	n/a	n/a
2435519	REC_WORD	wordpools/wasnorm_wordpool_less_exclusions.txt	LTP287	ltpFR	12	9	0	CROW	414	n/a	0	n/a	0	0	0	n/a	n/a	n/a	n/a	n/a
2436489	REC_WORD	wordpools/wasnorm_wordpool_less_exclusions.txt	LTP287	ltpFR	12	9	1	DRILL	497	n/a	0	n/a	0	0	0	n/a	n/a	n/a	n/a	n/a
2437300	REC_WORD	wordpools/wasnorm_wordpool_less_exclusions.txt	LTP287	ltpFR	12	9	1	CEILING	265	n/a	0	n/a	0	0	0	n/a	n/a	n/a	n/a	n/a
2438387	REC_WORD	wordpools/wasnorm_wordpool_less_exclusions.txt	LTP287	ltpFR	12	9	1	PELICAN	1039	n/a	1	n/a	0	0	0	n/a	n/a	n/a	n/a	n/a
2439357	REC_WORD	wordpools/wasnorm_wordpool_less_exclusions.txt	LTP287	ltpFR	12	9	1	BALCONY	72	n/a	0	n/a	0	0	0	n/a	n/a	n/a	n/a	n/a
2463630	REC_WORD	wordpools/wasnorm_wordpool_less_exclusions.txt	LTP287	ltpFR	12	9	0	ATTIC	56	n/a	1	n/a	0	0	0	n/a	n/a	n/a	n/a	n/a
2473985	REC_WORD	wordpools/wasnorm_wordpool_less_exclusions.txt	LTP287	ltpFR	12	9	0	CARTON	251	n/a	0	n/a	0	0	0	n/a	n/a	n/a	n/a	n/a
2521068	START	n/a	LTP287	ltpFR	12	n/a	n/a	n/a	n/a	n/a	n/a	n/a	n/a	n/a	n/a	n/a	n/a	n/a	n/a	n/a
2522581	PROB	n/a	LTP287	ltpFR	12	n/a	n/a	n/a	n/a	n/a	n/a	14	1	6	7	n/a	n/a	n/a	n/a	n/a
2524379	PROB	n/a	LTP287	ltpFR	12	n/a	n/a	n/a	n/a	n/a	n/a	11	1	1	9	n/a	n/a	n/a	n/a	n/a
2526094	PROB	n/a	LTP287	ltpFR	12	n/a	n/a	n/a	n/a	n/a	n/a	8	4	2	2	n/a	n/a	n/a	n/a	n/a
2529068	STOP	n/a	LTP287	ltpFR	12	n/a	n/a	n/a	n/a	n/a	n/a	n/a	n/a	n/a	n/a	n/a	n/a	n/a	n/a	n/a
2529921	WORD	wordpools/wasnorm_wordpool_less_exclusions.txt	LTP287	ltpFR	12	10	0	RASH	1167	n/a	0	n/a	0	0	0	1	0.412841796875	0.57763671875	lower	../fonts/zerothre.ttf
2532934	START	n/a	LTP287	ltpFR	12	n/a	n/a	n/a	n/a	n/a	n/a	n/a	n/a	n/a	n/a	n/a	n/a	n/a	n/a	n/a
2533848	PROB	n/a	LTP287	ltpFR	12	n/a	n/a	n/a	n/a	n/a	n/a	12	6	1	5	n/a	n/a	n/a	n/a	n/a
2535262	PROB	n/a	LTP287	ltpFR	12	n/a	n/a	n/a	n/a	n/a	n/a	16	3	6	7	n/a	n/a	n/a	n/a	n/a
2537111	PROB	n/a	LTP287	ltpFR	12	n/a	n/a	n/a	n/a	n/a	n/a	17	7	2	8	n/a	n/a	n/a	n/a	n/a
2540934	STOP	n/a	LTP287	ltpFR	12	n/a	n/a	n/a	n/a	n/a	n/a	n/a	n/a	n/a	n/a	n/a	n/a	n/a	n/a	n/a
2542020	WORD	wordpools/wasnorm_wordpool_less_exclusions.txt	LTP287	ltpFR	12	10	0	SAW	1239	n/a	0	n/a	0	0	0	1	0.412841796875	0.57763671875	lower	../fonts/zerothre.ttf
2545032	START	n/a	LTP287	ltpFR	12	n/a	n/a	n/a	n/a	n/a	n/a	n/a	n/a	n/a	n/a	n/a	n/a	n/a	n/a	n/a
2545897	PROB	n/a	LTP287	ltpFR	12	n/a	n/a	n/a	n/a	n/a	n/a	20	9	8	3	n/a	n/a	n/a	n/a	n/a
2548459	PROB	n/a	LTP287	ltpFR	12	n/a	n/a	n/a	n/a	n/a	n/a	12	1	5	6	n/a	n/a	n/a	n/a	n/a
2549691	PROB	n/a	LTP287	ltpFR	12	n/a	n/a	n/a	n/a	n/a	n/a	13	6	5	1	n/a	n/a	n/a	n/a	n/a
2553032	STOP	n/a	LTP287	ltpFR	12	n/a	n/a	n/a	n/a	n/a	n/a	n/a	n/a	n/a	n/a	n/a	n/a	n/a	n/a	n/a
2554184	WORD	wordpools/wasnorm_wordpool_less_exclusions.txt	LTP287	ltpFR	12	10	0	FLANNEL	574	n/a	1	n/a	0	0	0	1	0.412841796875	0.57763671875	lower	../fonts/zerothre.ttf
2557197	START	n/a	LTP287	ltpFR	12	n/a	n/a	n/a	n/a	n/a	n/a	n/a	n/a	n/a	n/a	n/a	n/a	n/a	n/a	n/a
2558311	PROB	n/a	LTP287	ltpFR	12	n/a	n/a	n/a	n/a	n/a	n/a	24	7	9	8	n/a	n/a	n/a	n/a	n/a
2560874	PROB	n/a	LTP287	ltpFR	12	n/a	n/a	n/a	n/a	n/a	n/a	12	1	7	4	n/a	n/a	n/a	n/a	n/a
2563703	STOP	n/a	LTP287	ltpFR	12	n/a	n/a	n/a	n/a	n/a	n/a	n/a	n/a	n/a	n/a	n/a	n/a	n/a	n/a	n/a
2566266	WORD	wordpools/wasnorm_wordpool_less_exclusions.txt	LTP287	ltpFR	12	10	0	CAPTAIN	239	n/a	1	n/a	0	0	0	1	0.412841796875	0.57763671875	lower	../fonts/zerothre.ttf
2569279	START	n/a	LTP287	ltpFR	12	n/a	n/a	n/a	n/a	n/a	n/a	n/a	n/a	n/a	n/a	n/a	n/a	n/a	n/a	n/a
2570310	PROB	n/a	LTP287	ltpFR	12	n/a	n/a	n/a	n/a	n/a	n/a	9	1	6	2	n/a	n/a	n/a	n/a	n/a
2572507	PROB	n/a	LTP287	ltpFR	12	n/a	n/a	n/a	n/a	n/a	n/a	16	5	7	4	n/a	n/a	n/a	n/a	n/a
2574537	PROB	n/a	LTP287	ltpFR	12	n/a	n/a	n/a	n/a	n/a	n/a	14	2	4	8	n/a	n/a	n/a	n/a	n/a
2577048	STOP	n/a	LTP287	ltpFR	12	n/a	n/a	n/a	n/a	n/a	n/a	n/a	n/a	n/a	n/a	n/a	n/a	n/a	n/a	n/a
2578381	WORD	wordpools/wasnorm_wordpool_less_exclusions.txt	LTP287	ltpFR	12	10	1	FIDDLE	561	n/a	0	n/a	0	0	0	0	0.5869140625	0.422607421875	upper	../fonts/amplitud.ttf
2581394	START	n/a	LTP287	ltpFR	12	n/a	n/a	n/a	n/a	n/a	n/a	n/a	n/a	n/a	n/a	n/a	n/a	n/a	n/a	n/a
2582342	PROB	n/a	LTP287	ltpFR	12	n/a	n/a	n/a	n/a	n/a	n/a	21	7	8	6	n/a	n/a	n/a	n/a	n/a
2585006	PROB	n/a	LTP287	ltpFR	12	n/a	n/a	n/a	n/a	n/a	n/a	13	2	9	2	n/a	n/a	n/a	n/a	n/a
2589391	STOP	n/a	LTP287	ltpFR	12	n/a	n/a	n/a	n/a	n/a	n/a	n/a	n/a	n/a	n/a	n/a	n/a	n/a	n/a	n/a
2590613	WORD	wordpools/wasnorm_wordpool_less_exclusions.txt	LTP287	ltpFR	12	10	1	REFRIGERATOR	1179	n/a	0	n/a	0	0	0	0	0.5869140625	0.422607421875	upper	../fonts/amplitud.ttf
2593626	START	n/a	LTP287	ltpFR	12	n/a	n/a	n/a	n/a	n/a	n/a	n/a	n/a	n/a	n/a	n/a	n/a	n/a	n/a	n/a
2594457	PROB	n/a	LTP287	ltpFR	12	n/a	n/a	n/a	n/a	n/a	n/a	16	8	7	1	n/a	n/a	n/a	n/a	n/a
2596820	PROB	n/a	LTP287	ltpFR	12	n/a	n/a	n/a	n/a	n/a	n/a	19	8	7	4	n/a	n/a	n/a	n/a	n/a
2599749	PROB	n/a	LTP287	ltpFR	12	n/a	n/a	n/a	n/a	n/a	n/a	15	6	5	4	n/a	n/a	n/a	n/a	n/a
2601575	STOP	n/a	LTP287	ltpFR	12	n/a	n/a	n/a	n/a	n/a	n/a	n/a	n/a	n/a	n/a	n/a	n/a	n/a	n/a	n/a
2602595	WORD	wordpools/wasnorm_wordpool_less_exclusions.txt	LTP287	ltpFR	12	10	1	HEATER	698	n/a	0	n/a	0	0	0	0	0.5869140625	0.422607421875	upper	../fonts/amplitud.ttf
2605608	START	n/a	LTP287	ltpFR	12	n/a	n/a	n/a	n/a	n/a	n/a	n/a	n/a	n/a	n/a	n/a	n/a	n/a	n/a	n/a
2606672	PROB	n/a	LTP287	ltpFR	12	n/a	n/a	n/a	n/a	n/a	n/a	12	5	6	1	n/a	n/a	n/a	n/a	n/a
2608769	PROB	n/a	LTP287	ltpFR	12	n/a	n/a	n/a	n/a	n/a	n/a	17	8	6	3	n/a	n/a	n/a	n/a	n/a
2611949	PROB	n/a	LTP287	ltpFR	12	n/a	n/a	n/a	n/a	n/a	n/a	9	4	1	4	n/a	n/a	n/a	n/a	n/a
2613287	STOP	n/a	LTP287	ltpFR	12	n/a	n/a	n/a	n/a	n/a	n/a	n/a	n/a	n/a	n/a	n/a	n/a	n/a	n/a	n/a
2614793	WORD	wordpools/wasnorm_wordpool_less_exclusions.txt	LTP287	ltpFR	12	10	1	CLOTHES	327	n/a	0	n/a	0	0	0	0	0.5869140625	0.422607421875	upper	../fonts/amplitud.ttf
2617806	START	n/a	LTP287	ltpFR	12	n/a	n/a	n/a	n/a	n/a	n/a	n/a	n/a	n/a	n/a	n/a	n/a	n/a	n/a	n/a
2618621	PROB	n/a	LTP287	ltpFR	12	n/a	n/a	n/a	n/a	n/a	n/a	23	7	8	8	n/a	n/a	n/a	n/a	n/a
2621334	PROB	n/a	LTP287	ltpFR	12	n/a	n/a	n/a	n/a	n/a	n/a	10	4	1	5	n/a	n/a	n/a	n/a	n/a
2622865	PROB	n/a	LTP287	ltpFR	12	n/a	n/a	n/a	n/a	n/a	n/a	7	4	2	1	n/a	n/a	n/a	n/a	n/a
2624351	STOP	n/a	LTP287	ltpFR	12	n/a	n/a	n/a	n/a	n/a	n/a	n/a	n/a	n/a	n/a	n/a	n/a	n/a	n/a	n/a
2626809	WORD	wordpools/wasnorm_wordpool_less_exclusions.txt	LTP287	ltpFR	12	10	1	SCRIBBLE	1256	n/a	0	n/a	0	0	0	0	0.5869140625	0.422607421875	upper	../fonts/amplitud.ttf
2629821	START	n/a	LTP287	ltpFR	12	n/a	n/a	n/a	n/a	n/a	n/a	n/a	n/a	n/a	n/a	n/a	n/a	n/a	n/a	n/a
2630904	PROB	n/a	LTP287	ltpFR	12	n/a	n/a	n/a	n/a	n/a	n/a	9	3	2	4	n/a	n/a	n/a	n/a	n/a
2632284	PROB	n/a	LTP287	ltpFR	12	n/a	n/a	n/a	n/a	n/a	n/a	20	7	7	6	n/a	n/a	n/a	n/a	n/a
2633699	PROB	n/a	LTP287	ltpFR	12	n/a	n/a	n/a	n/a	n/a	n/a	17	9	5	3	n/a	n/a	n/a	n/a	n/a
2637820	STOP	n/a	LTP287	ltpFR	12	n/a	n/a	n/a	n/a	n/a	n/a	n/a	n/a	n/a	n/a	n/a	n/a	n/a	n/a	n/a
2638892	WORD	wordpools/wasnorm_wordpool_less_exclusions.txt	LTP287	ltpFR	12	10	1	PUDDLE	1140	n/a	0	n/a	0	0	0	0	0.5869140625	0.422607421875	upper	../fonts/amplitud.ttf
2641904	START	n/a	LTP287	ltpFR	12	n/a	n/a	n/a	n/a	n/a	n/a	n/a	n/a	n/a	n/a	n/a	n/a	n/a	n/a	n/a
2643086	PROB	n/a	LTP287	ltpFR	12	n/a	n/a	n/a	n/a	n/a	n/a	8	4	2	2	n/a	n/a	n/a	n/a	n/a
2644715	PROB	n/a	LTP287	ltpFR	12	n/a	n/a	n/a	n/a	n/a	n/a	12	5	1	6	n/a	n/a	n/a	n/a	n/a
2646247	PROB	n/a	LTP287	ltpFR	12	n/a	n/a	n/a	n/a	n/a	n/a	12	2	7	3	n/a	n/a	n/a	n/a	n/a
2649904	STOP	n/a	LTP287	ltpFR	12	n/a	n/a	n/a	n/a	n/a	n/a	n/a	n/a	n/a	n/a	n/a	n/a	n/a	n/a	n/a
2650806	WORD	wordpools/wasnorm_wordpool_less_exclusions.txt	LTP287	ltpFR	12	10	0	WATER	1594	n/a	2	n/a	0	0	0	1	0.412841796875	0.57763671875	lower	../fonts/zerothre.ttf
2653402	KEY_MSG	n/a	LTP287	ltpFR	12	10	n/a	n/a	n/a	n/a	n/a	n/a	0	0	0	n/a	n/a	n/a	n/a	n/a
2654935	START	n/a	LTP287	ltpFR	12	n/a	n/a	n/a	n/a	n/a	n/a	n/a	n/a	n/a	n/a	n/a	n/a	n/a	n/a	n/a
2656000	PROB	n/a	LTP287	ltpFR	12	n/a	n/a	n/a	n/a	n/a	n/a	16	7	5	4	n/a	n/a	n/a	n/a	n/a
2658013	PROB	n/a	LTP287	ltpFR	12	n/a	n/a	n/a	n/a	n/a	n/a	10	1	1	8	n/a	n/a	n/a	n/a	n/a
2659244	PROB	n/a	LTP287	ltpFR	12	n/a	n/a	n/a	n/a	n/a	n/a	18	8	5	5	n/a	n/a	n/a	n/a	n/a
2660525	PROB	n/a	LTP287	ltpFR	12	n/a	n/a	n/a	n/a	n/a	n/a	26	8	9	8	n/a	n/a	n/a	n/a	n/a
2662048	STOP	n/a	LTP287	ltpFR	12	n/a	n/a	n/a	n/a	n/a	n/a	n/a	n/a	n/a	n/a	n/a	n/a	n/a	n/a	n/a
2663787	WORD	wordpools/wasnorm_wordpool_less_exclusions.txt	LTP287	ltpFR	12	10	0	BOY	161	n/a	n/a	n/a	0	0	0	1	0.412841796875	0.57763671875	lower	../fonts/zerothre.ttf
2666816	SLOW_MSG	n/a	LTP287	ltpFR	12	10	n/a	n/a	n/a	n/a	n/a	n/a	0	0	0	n/a	n/a	n/a	n/a	n/a
2668347	START	n/a	LTP287	ltpFR	12	n/a	n/a	n/a	n/a	n/a	n/a	n/a	n/a	n/a	n/a	n/a	n/a	n/a	n/a	n/a
2669362	PROB	n/a	LTP287	ltpFR	12	n/a	n/a	n/a	n/a	n/a	n/a	22	6	8	8	n/a	n/a	n/a	n/a	n/a
2670977	PROB	n/a	LTP287	ltpFR	12	n/a	n/a	n/a	n/a	n/a	n/a	4	1	2	1	n/a	n/a	n/a	n/a	n/a
2672491	PROB	n/a	LTP287	ltpFR	12	n/a	n/a	n/a	n/a	n/a	n/a	14	2	3	9	n/a	n/a	n/a	n/a	n/a
2674271	PROB	n/a	LTP287	ltpFR	12	n/a	n/a	n/a	n/a	n/a	n/a	16	3	7	6	n/a	n/a	n/a	n/a	n/a
2675807	STOP	n/a	LTP287	ltpFR	12	n/a	n/a	n/a	n/a	n/a	n/a	n/a	n/a	n/a	n/a	n/a	n/a	n/a	n/a	n/a
2677200	WORD	wordpools/wasnorm_wordpool_less_exclusions.txt	LTP287	ltpFR	12	10	0	ENEMY	534	n/a	1	n/a	0	0	0	1	0.412841796875	0.57763671875	lower	../fonts/zerothre.ttf
2680213	START	n/a	LTP287	ltpFR	12	n/a	n/a	n/a	n/a	n/a	n/a	n/a	n/a	n/a	n/a	n/a	n/a	n/a	n/a	n/a
2681211	PROB	n/a	LTP287	ltpFR	12	n/a	n/a	n/a	n/a	n/a	n/a	19	5	9	5	n/a	n/a	n/a	n/a	n/a
2682559	PROB	n/a	LTP287	ltpFR	12	n/a	n/a	n/a	n/a	n/a	n/a	6	2	1	3	n/a	n/a	n/a	n/a	n/a
2683740	PROB	n/a	LTP287	ltpFR	12	n/a	n/a	n/a	n/a	n/a	n/a	16	3	5	8	n/a	n/a	n/a	n/a	n/a
2685222	PROB	n/a	LTP287	ltpFR	12	n/a	n/a	n/a	n/a	n/a	n/a	15	1	8	6	n/a	n/a	n/a	n/a	n/a
2687080	STOP	n/a	LTP287	ltpFR	12	n/a	n/a	n/a	n/a	n/a	n/a	n/a	n/a	n/a	n/a	n/a	n/a	n/a	n/a	n/a
2689084	WORD	wordpools/wasnorm_wordpool_less_exclusions.txt	LTP287	ltpFR	12	10	0	PIRATE	1074	n/a	1	n/a	0	0	0	1	0.412841796875	0.57763671875	lower	../fonts/zerothre.ttf
2692096	START	n/a	LTP287	ltpFR	12	n/a	n/a	n/a	n/a	n/a	n/a	n/a	n/a	n/a	n/a	n/a	n/a	n/a	n/a	n/a
2692944	PROB	n/a	LTP287	ltpFR	12	n/a	n/a	n/a	n/a	n/a	n/a	13	1	8	4	n/a	n/a	n/a	n/a	n/a
2695323	PROB	n/a	LTP287	ltpFR	12	n/a	n/a	n/a	n/a	n/a	n/a	15	1	8	6	n/a	n/a	n/a	n/a	n/a
2700096	STOP	n/a	LTP287	ltpFR	12	n/a	n/a	n/a	n/a	n/a	n/a	n/a	n/a	n/a	n/a	n/a	n/a	n/a	n/a	n/a
2701231	WORD	wordpools/wasnorm_wordpool_less_exclusions.txt	LTP287	ltpFR	12	10	1	OCEAN	970	n/a	0	n/a	0	0	0	0	0.5869140625	0.422607421875	upper	../fonts/amplitud.ttf
2704244	START	n/a	LTP287	ltpFR	12	n/a	n/a	n/a	n/a	n/a	n/a	n/a	n/a	n/a	n/a	n/a	n/a	n/a	n/a	n/a
2705126	PROB	n/a	LTP287	ltpFR	12	n/a	n/a	n/a	n/a	n/a	n/a	18	6	3	9	n/a	n/a	n/a	n/a	n/a
2706873	PROB	n/a	LTP287	ltpFR	12	n/a	n/a	n/a	n/a	n/a	n/a	20	7	5	8	n/a	n/a	n/a	n/a	n/a
2709054	PROB	n/a	LTP287	ltpFR	12	n/a	n/a	n/a	n/a	n/a	n/a	15	9	5	1	n/a	n/a	n/a	n/a	n/a
2712244	STOP	n/a	LTP287	ltpFR	12	n/a	n/a	n/a	n/a	n/a	n/a	n/a	n/a	n/a	n/a	n/a	n/a	n/a	n/a	n/a
2713064	WORD	wordpools/wasnorm_wordpool_less_exclusions.txt	LTP287	ltpFR	12	10	1	SHIP	1286	n/a	0	n/a	0	0	0	0	0.5869140625	0.422607421875	upper	../fonts/amplitud.ttf
2716077	START	n/a	LTP287	ltpFR	12	n/a	n/a	n/a	n/a	n/a	n/a	n/a	n/a	n/a	n/a	n/a	n/a	n/a	n/a	n/a
2717025	PROB	n/a	LTP287	ltpFR	12	n/a	n/a	n/a	n/a	n/a	n/a	14	8	3	3	n/a	n/a	n/a	n/a	n/a
2719122	PROB	n/a	LTP287	ltpFR	12	n/a	n/a	n/a	n/a	n/a	n/a	22	9	4	9	n/a	n/a	n/a	n/a	n/a
2720953	PROB	n/a	LTP287	ltpFR	12	n/a	n/a	n/a	n/a	n/a	n/a	23	6	8	9	n/a	n/a	n/a	n/a	n/a
2723255	STOP	n/a	LTP287	ltpFR	12	n/a	n/a	n/a	n/a	n/a	n/a	n/a	n/a	n/a	n/a	n/a	n/a	n/a	n/a	n/a
2725996	REC_START	n/a	LTP287	ltpFR	12	10	n/a	n/a	n/a	n/a	n/a	n/a	0	0	0	n/a	n/a	n/a	n/a	n/a
2726926	REC_WORD	wordpools/wasnorm_wordpool_less_exclusions.txt	LTP287	ltpFR	12	10	0	CAPTAIN	239	n/a	1	n/a	0	0	0	n/a	n/a	n/a	n/a	n/a
2727883	REC_WORD	wordpools/wasnorm_wordpool_less_exclusions.txt	LTP287	ltpFR	12	10	1	SHIP	1286	n/a	0	n/a	0	0	0	n/a	n/a	n/a	n/a	n/a
2729279	REC_WORD	wordpools/wasnorm_wordpool_less_exclusions.txt	LTP287	ltpFR	12	10	0	BOY	161	n/a	n/a	n/a	0	0	0	n/a	n/a	n/a	n/a	n/a
2738556	REC_WORD	wordpools/wasnorm_wordpool_less_exclusions.txt	LTP287	ltpFR	12	10	1	OCEAN	970	n/a	0	n/a	0	0	0	n/a	n/a	n/a	n/a	n/a
2804693	WORD	wordpools/wasnorm_wordpool_less_exclusions.txt	LTP287	ltpFR	12	11	1	LODGE	839	n/a	0	n/a	0	0	0	0	0.5869140625	0.422607421875	upper	../fonts/amplitud.ttf
2808870	WORD	wordpools/wasnorm_wordpool_less_exclusions.txt	LTP287	ltpFR	12	11	1	SAUCER	1237	n/a	0	n/a	0	0	0	0	0.5869140625	0.422607421875	upper	../fonts/amplitud.ttf
2812948	WORD	wordpools/wasnorm_wordpool_less_exclusions.txt	LTP287	ltpFR	12	11	1	LIEUTENANT	818	n/a	1	n/a	0	0	0	0	0.5869140625	0.422607421875	upper	../fonts/amplitud.ttf
2816808	WORD	wordpools/wasnorm_wordpool_less_exclusions.txt	LTP287	ltpFR	12	11	1	STEREO	1378	n/a	0	n/a	0	0	0	0	0.5869140625	0.422607421875	upper	../fonts/amplitud.ttf
2820819	WORD	wordpools/wasnorm_wordpool_less_exclusions.txt	LTP287	ltpFR	12	11	1	GLASS	639	n/a	0	n/a	0	0	0	0	0.5869140625	0.422607421875	upper	../fonts/amplitud.ttf
2824663	WORD	wordpools/wasnorm_wordpool_less_exclusions.txt	LTP287	ltpFR	12	11	1	ROOF	1205	n/a	0	n/a	0	0	0	0	0.5869140625	0.422607421875	upper	../fonts/amplitud.ttf
2828824	WORD	wordpools/wasnorm_wordpool_less_exclusions.txt	LTP287	ltpFR	12	11	1	BAND	78	n/a	1	n/a	0	0	0	0	0.5869140625	0.422607421875	upper	../fonts/amplitud.ttf
2832834	WORD	wordpools/wasnorm_wordpool_less_exclusions.txt	LTP287	ltpFR	12	11	1	VETERAN	1561	n/a	1	n/a	0	0	0	0	0.5869140625	0.422607421875	upper	../fonts/amplitud.ttf
2836745	WORD	wordpools/wasnorm_wordpool_less_exclusions.txt	LTP287	ltpFR	12	11	1	WARRIOR	1589	n/a	1	n/a	0	0	0	0	0.5869140625	0.422607421875	upper	../fonts/amplitud.ttf
2840673	WORD	wordpools/wasnorm_wordpool_less_exclusions.txt	LTP287	ltpFR	12	11	1	DEODORANT	448	n/a	0	n/a	0	0	0	0	0.5869140625	0.422607421875	upper	../fonts/amplitud.ttf
2844534	WORD	wordpools/wasnorm_wordpool_less_exclusions.txt	LTP287	ltpFR	12	11	1	GORILLA	650	n/a	1	n/a	0	0	0	0	0.5869140625	0.422607421875	upper	../fonts/amplitud.ttf
2848428	WORD	wordpools/wasnorm_wordpool_less_exclusions.txt	LTP287	ltpFR	12	11	1	SIREN	1310	n/a	1	n/a	0	0	0	0	0.5869140625	0.422607421875	upper	../fonts/amplitud.ttf
2852438	WORD	wordpools/wasnorm_wordpool_less_exclusions.txt	LTP287	ltpFR	12	11	1	DEPUTY	450	n/a	1	n/a	0	0	0	0	0.5869140625	0.422607421875	upper	../fonts/amplitud.ttf
2856316	WORD	wordpools/wasnorm_wordpool_less_exclusions.txt	LTP287	ltpFR	12	11	1	STRAW	1390	n/a	0	n/a	0	0	0	0	0.5869140625	0.422607421875	upper	../fonts/amplitud.ttf
2860210	WORD	wordpools/wasnorm_wordpool_less_exclusions.txt	LTP287	ltpFR	12	11	1	ROOT	1210	n/a	0	n/a	0	0	0	0	0.5869140625	0.422607421875	upper	../fonts/amplitud.ttf
2864139	WORD	wordpools/wasnorm_wordpool_less_exclusions.txt	LTP287	ltpFR	12	11	1	LANDSCAPE	799	n/a	0	n/a	0	0	0	0	0.5869140625	0.422607421875	upper	../fonts/amplitud.ttf
2867150	START	n/a	LTP287	ltpFR	12	n/a	n/a	n/a	n/a	n/a	n/a	n/a	n/a	n/a	n/a	n/a	n/a	n/a	n/a	n/a
2868198	PROB	n/a	LTP287	ltpFR	12	n/a	n/a	n/a	n/a	n/a	n/a	20	6	7	7	n/a	n/a	n/a	n/a	n/a
2870595	PROB	n/a	LTP287	ltpFR	12	n/a	n/a	n/a	n/a	n/a	n/a	18	4	6	8	n/a	n/a	n/a	n/a	n/a
2872825	PROB	n/a	LTP287	ltpFR	12	n/a	n/a	n/a	n/a	n/a	n/a	9	2	3	4	n/a	n/a	n/a	n/a	n/a
2875039	PROB	n/a	LTP287	ltpFR	12	n/a	n/a	n/a	n/a	n/a	n/a	22	9	9	4	n/a	n/a	n/a	n/a	n/a
2876436	PROB	n/a	LTP287	ltpFR	12	n/a	n/a	n/a	n/a	n/a	n/a	13	6	6	1	n/a	n/a	n/a	n/a	n/a
2878267	PROB	n/a	LTP287	ltpFR	12	n/a	n/a	n/a	n/a	n/a	n/a	18	9	1	8	n/a	n/a	n/a	n/a	n/a
2879432	PROB	n/a	LTP287	ltpFR	12	n/a	n/a	n/a	n/a	n/a	n/a	14	5	3	6	n/a	n/a	n/a	n/a	n/a
2881615	STOP	n/a	LTP287	ltpFR	12	n/a	n/a	n/a	n/a	n/a	n/a	n/a	n/a	n/a	n/a	n/a	n/a	n/a	n/a	n/a
2885025	REC_START	n/a	LTP287	ltpFR	12	11	n/a	n/a	n/a	n/a	n/a	n/a	0	0	0	n/a	n/a	n/a	n/a	n/a
2885990	REC_WORD	wordpools/wasnorm_wordpool_less_exclusions.txt	LTP287	ltpFR	12	11	1	SAUCER	1237	n/a	0	n/a	0	0	0	n/a	n/a	n/a	n/a	n/a
2887030	REC_WORD	wordpools/wasnorm_wordpool_less_exclusions.txt	LTP287	ltpFR	12	11	1	LIEUTENANT	818	n/a	1	n/a	0	0	0	n/a	n/a	n/a	n/a	n/a
2888190	REC_WORD	wordpools/wasnorm_wordpool_less_exclusions.txt	LTP287	ltpFR	12	11	1	LODGE	839	n/a	0	n/a	0	0	0	n/a	n/a	n/a	n/a	n/a
2889384	REC_WORD	wordpools/wasnorm_wordpool_less_exclusions.txt	LTP287	ltpFR	12	11	1	GLASS	639	n/a	0	n/a	0	0	0	n/a	n/a	n/a	n/a	n/a
2890409	REC_WORD	wordpools/wasnorm_wordpool_less_exclusions.txt	LTP287	ltpFR	12	11	1	VETERAN	1561	n/a	1	n/a	0	0	0	n/a	n/a	n/a	n/a	n/a
2891531	REC_WORD	wordpools/wasnorm_wordpool_less_exclusions.txt	LTP287	ltpFR	12	11	1	WARRIOR	1589	n/a	1	n/a	0	0	0	n/a	n/a	n/a	n/a	n/a
2893693	REC_WORD	wordpools/wasnorm_wordpool_less_exclusions.txt	LTP287	ltpFR	12	11	1	BAND	78	n/a	1	n/a	0	0	0	n/a	n/a	n/a	n/a	n/a
2906882	REC_WORD	wordpools/wasnorm_wordpool_less_exclusions.txt	LTP287	ltpFR	12	11	1	ROOF	1205	n/a	0	n/a	0	0	0	n/a	n/a	n/a	n/a	n/a
2966685	WORD	wordpools/wasnorm_wordpool_less_exclusions.txt	LTP287	ltpFR	12	12	1	ANTEATER	26	n/a	1	n/a	0	0	0	0	0.5869140625	0.422607421875	upper	../fonts/amplitud.ttf
2970512	WORD	wordpools/wasnorm_wordpool_less_exclusions.txt	LTP287	ltpFR	12	12	1	ELM	527	n/a	1	n/a	0	0	0	0	0.5869140625	0.422607421875	upper	../fonts/amplitud.ttf
2974623	WORD	wordpools/wasnorm_wordpool_less_exclusions.txt	LTP287	ltpFR	12	12	1	ESCALATOR	539	n/a	0	n/a	0	0	0	0	0.5869140625	0.422607421875	upper	../fonts/amplitud.ttf
2978633	WORD	wordpools/wasnorm_wordpool_less_exclusions.txt	LTP287	ltpFR	12	12	0	FACE	547	n/a	1	n/a	0	0	0	1	0.412841796875	0.57763671875	lower	../fonts/zerothre.ttf
2982577	WORD	wordpools/wasnorm_wordpool_less_exclusions.txt	LTP287	ltpFR	12	12	0	BUTTON	207	n/a	1	n/a	0	0	0	1	0.412841796875	0.57763671875	lower	../fonts/zerothre.ttf
2986438	WORD	wordpools/wasnorm_wordpool_less_exclusions.txt	LTP287	ltpFR	12	12	0	JACKET	747	n/a	0	n/a	0	0	0	1	0.412841796875	0.57763671875	lower	../fonts/zerothre.ttf
2990366	WORD	wordpools/wasnorm_wordpool_less_exclusions.txt	LTP287	ltpFR	12	12	0	IGLOO	734	n/a	1	n/a	0	0	0	1	0.412841796875	0.57763671875	lower	../fonts/zerothre.ttf
2994526	WORD	wordpools/wasnorm_wordpool_less_exclusions.txt	LTP287	ltpFR	12	12	0	SHACK	1273	n/a	0	n/a	0	0	0	1	0.412841796875	0.57763671875	lower	../fonts/zerothre.ttf
2998404	WORD	wordpools/wasnorm_wordpool_less_exclusions.txt	LTP287	ltpFR	12	12	1	STUDENT	1395	n/a	1	n/a	0	0	0	0	0.5869140625	0.422607421875	upper	../fonts/amplitud.ttf
3002315	WORD	wordpools/wasnorm_wordpool_less_exclusions.txt	LTP287	ltpFR	12	12	1	PUPIL	1143	n/a	1	n/a	0	0	0	0	0.5869140625	0.422607421875	upper	../fonts/amplitud.ttf
3006375	WORD	wordpools/wasnorm_wordpool_less_exclusions.txt	LTP287	ltpFR	12	12	1	PUZZLE	1146	n/a	0	n/a	0	0	0	0	0.5869140625	0.422607421875	upper	../fonts/amplitud.ttf
3010586	WORD	wordpools/wasnorm_wordpool_less_exclusions.txt	LTP287	ltpFR	12	12	1	POTTERY	1116	n/a	0	n/a	0	0	0	0	0.5869140625	0.422607421875	upper	../fonts/amplitud.ttf
3014746	WORD	wordpools/wasnorm_wordpool_less_exclusions.txt	LTP287	ltpFR	12	12	1	WILDERNESS	1610	n/a	0	n/a	0	0	0	0	0.5869140625	0.422607421875	upper	../fonts/amplitud.ttf
3018891	WORD	wordpools/wasnorm_wordpool_less_exclusions.txt	LTP287	ltpFR	12	12	0	ANT	25	n/a	0	n/a	0	0	0	1	0.412841796875	0.57763671875	lower	../fonts/zerothre.ttf
3022784	WORD	wordpools/wasnorm_wordpool_less_exclusions.txt	LTP287	ltpFR	12	12	0	VINE	1568	n/a	0	n/a	0	0	0	1	0.412841796875	0.57763671875	lower	../fonts/zerothre.ttf
3026811	WORD	wordpools/wasnorm_wordpool_less_exclusions.txt	LTP287	ltpFR	12	12	0	CLIMBER	323	n/a	1	n/a	0	0	0	1	0.412841796875	0.57763671875	lower	../fonts/zerothre.ttf
3029824	START	n/a	LTP287	ltpFR	12	n/a	n/a	n/a	n/a	n/a	n/a	n/a	n/a	n/a	n/a	n/a	n/a	n/a	n/a	n/a
3030855	PROB	n/a	LTP287	ltpFR	12	n/a	n/a	n/a	n/a	n/a	n/a	14	2	8	4	n/a	n/a	n/a	n/a	n/a
3032270	PROB	n/a	LTP287	ltpFR	12	n/a	n/a	n/a	n/a	n/a	n/a	13	6	6	1	n/a	n/a	n/a	n/a	n/a
3033751	PROB	n/a	LTP287	ltpFR	12	n/a	n/a	n/a	n/a	n/a	n/a	10	6	3	1	n/a	n/a	n/a	n/a	n/a
3035299	PROB	n/a	LTP287	ltpFR	12	n/a	n/a	n/a	n/a	n/a	n/a	15	5	5	5	n/a	n/a	n/a	n/a	n/a
3036383	STOP	n/a	LTP287	ltpFR	12	n/a	n/a	n/a	n/a	n/a	n/a	n/a	n/a	n/a	n/a	n/a	n/a	n/a	n/a	n/a
3039626	REC_START	n/a	LTP287	ltpFR	12	12	n/a	n/a	n/a	n/a	n/a	n/a	0	0	0	n/a	n/a	n/a	n/a	n/a
3040368	REC_WORD	wordpools/wasnorm_wordpool_less_exclusions.txt	LTP287	ltpFR	12	12	1	ANTEATER	26	n/a	1	n/a	0	0	0	n/a	n/a	n/a	n/a	n/a
3041459	REC_WORD	wordpools/wasnorm_wordpool_less_exclusions.txt	LTP287	ltpFR	12	12	0	ANT	25	n/a	0	n/a	0	0	0	n/a	n/a	n/a	n/a	n/a
