mstime	trial_type	stim_file	subject	experiment	session	trial	task	item_name	item_num	recog_conf	resp	answer	test_x	test_y	test_z	color_b	color_g	color_r	case	font
0	SESS_START	n/a	LTP269	ltpFR	9	n/a	n/a	n/a	n/a	5	n/a	n/a	0	0	0	n/a	n/a	n/a	n/a	n/a
37620	START	n/a	LTP269	ltpFR	9	n/a	n/a	n/a	n/a	n/a	n/a	n/a	n/a	n/a	n/a	n/a	n/a	n/a	n/a	n/a
37653	PROB	n/a	LTP269	ltpFR	9	n/a	n/a	n/a	n/a	n/a	n/a	16	5	2	9	n/a	n/a	n/a	n/a	n/a
41564	PROB	n/a	LTP269	ltpFR	9	n/a	n/a	n/a	n/a	n/a	n/a	9	2	5	2	n/a	n/a	n/a	n/a	n/a
44394	PROB	n/a	LTP269	ltpFR	9	n/a	n/a	n/a	n/a	n/a	n/a	17	7	9	1	n/a	n/a	n/a	n/a	n/a
46142	PROB	n/a	LTP269	ltpFR	9	n/a	n/a	n/a	n/a	n/a	n/a	11	2	2	7	n/a	n/a	n/a	n/a	n/a
49969	PROB	n/a	LTP269	ltpFR	9	n/a	n/a	n/a	n/a	n/a	n/a	14	5	8	1	n/a	n/a	n/a	n/a	n/a
51866	PROB	n/a	LTP269	ltpFR	9	n/a	n/a	n/a	n/a	n/a	n/a	16	3	9	4	n/a	n/a	n/a	n/a	n/a
57619	STOP	n/a	LTP269	ltpFR	9	n/a	n/a	n/a	n/a	n/a	n/a	n/a	n/a	n/a	n/a	n/a	n/a	n/a	n/a	n/a
127669	START	n/a	LTP269	ltpFR	9	n/a	n/a	n/a	n/a	n/a	n/a	n/a	n/a	n/a	n/a	n/a	n/a	n/a	n/a	n/a
129184	PROB	n/a	LTP269	ltpFR	9	n/a	n/a	n/a	n/a	n/a	n/a	5	3	1	1	n/a	n/a	n/a	n/a	n/a
131596	PROB	n/a	LTP269	ltpFR	9	n/a	n/a	n/a	n/a	n/a	n/a	11	5	4	2	n/a	n/a	n/a	n/a	n/a
135669	STOP	n/a	LTP269	ltpFR	9	n/a	n/a	n/a	n/a	n/a	n/a	n/a	n/a	n/a	n/a	n/a	n/a	n/a	n/a	n/a
136572	WORD	wordpools/wasnorm_wordpool_less_exclusions.txt	LTP269	ltpFR	9	1	1	JUDGE	761	n/a	1	n/a	0	0	0	0	0.5869140625	0.422607421875	lower	../fonts/zerothre.ttf
139585	START	n/a	LTP269	ltpFR	9	n/a	n/a	n/a	n/a	n/a	n/a	n/a	n/a	n/a	n/a	n/a	n/a	n/a	n/a	n/a
140749	PROB	n/a	LTP269	ltpFR	9	n/a	n/a	n/a	n/a	n/a	n/a	14	1	5	8	n/a	n/a	n/a	n/a	n/a
142463	PROB	n/a	LTP269	ltpFR	9	n/a	n/a	n/a	n/a	n/a	n/a	17	3	8	6	n/a	n/a	n/a	n/a	n/a
144245	PROB	n/a	LTP269	ltpFR	9	n/a	n/a	n/a	n/a	n/a	n/a	13	3	1	9	n/a	n/a	n/a	n/a	n/a
147585	STOP	n/a	LTP269	ltpFR	9	n/a	n/a	n/a	n/a	n/a	n/a	n/a	n/a	n/a	n/a	n/a	n/a	n/a	n/a	n/a
148604	WORD	wordpools/wasnorm_wordpool_less_exclusions.txt	LTP269	ltpFR	9	1	1	CURB	426	n/a	0	n/a	0	0	0	0	0.5869140625	0.422607421875	lower	../fonts/zerothre.ttf
151617	START	n/a	LTP269	ltpFR	9	n/a	n/a	n/a	n/a	n/a	n/a	n/a	n/a	n/a	n/a	n/a	n/a	n/a	n/a	n/a
152782	PROB	n/a	LTP269	ltpFR	9	n/a	n/a	n/a	n/a	n/a	n/a	11	3	6	2	n/a	n/a	n/a	n/a	n/a
155894	PROB	n/a	LTP269	ltpFR	9	n/a	n/a	n/a	n/a	n/a	n/a	17	7	6	4	n/a	n/a	n/a	n/a	n/a
157707	PROB	n/a	LTP269	ltpFR	9	n/a	n/a	n/a	n/a	n/a	n/a	1	1	9	2	n/a	n/a	n/a	n/a	n/a
159013	STOP	n/a	LTP269	ltpFR	9	n/a	n/a	n/a	n/a	n/a	n/a	n/a	n/a	n/a	n/a	n/a	n/a	n/a	n/a	n/a
160820	WORD	wordpools/wasnorm_wordpool_less_exclusions.txt	LTP269	ltpFR	9	1	1	CORAL	378	n/a	1	n/a	0	0	0	0	0.5869140625	0.422607421875	lower	../fonts/zerothre.ttf
163833	START	n/a	LTP269	ltpFR	9	n/a	n/a	n/a	n/a	n/a	n/a	n/a	n/a	n/a	n/a	n/a	n/a	n/a	n/a	n/a
164931	PROB	n/a	LTP269	ltpFR	9	n/a	n/a	n/a	n/a	n/a	n/a	11	2	7	2	n/a	n/a	n/a	n/a	n/a
167127	PROB	n/a	LTP269	ltpFR	9	n/a	n/a	n/a	n/a	n/a	n/a	10	7	1	2	n/a	n/a	n/a	n/a	n/a
171833	STOP	n/a	LTP269	ltpFR	9	n/a	n/a	n/a	n/a	n/a	n/a	n/a	n/a	n/a	n/a	n/a	n/a	n/a	n/a	n/a
172735	WORD	wordpools/wasnorm_wordpool_less_exclusions.txt	LTP269	ltpFR	9	1	1	MOON	914	n/a	0	n/a	0	0	0	0	0.5869140625	0.422607421875	lower	../fonts/zerothre.ttf
175747	START	n/a	LTP269	ltpFR	9	n/a	n/a	n/a	n/a	n/a	n/a	n/a	n/a	n/a	n/a	n/a	n/a	n/a	n/a	n/a
176695	PROB	n/a	LTP269	ltpFR	9	n/a	n/a	n/a	n/a	n/a	n/a	17	6	9	2	n/a	n/a	n/a	n/a	n/a
179541	PROB	n/a	LTP269	ltpFR	9	n/a	n/a	n/a	n/a	n/a	n/a	10	2	7	1	n/a	n/a	n/a	n/a	n/a
183747	STOP	n/a	LTP269	ltpFR	9	n/a	n/a	n/a	n/a	n/a	n/a	n/a	n/a	n/a	n/a	n/a	n/a	n/a	n/a	n/a
184684	WORD	wordpools/wasnorm_wordpool_less_exclusions.txt	LTP269	ltpFR	9	1	1	ANTENNA	28	n/a	0	n/a	0	0	0	0	0.5869140625	0.422607421875	lower	../fonts/zerothre.ttf
187696	START	n/a	LTP269	ltpFR	9	n/a	n/a	n/a	n/a	n/a	n/a	n/a	n/a	n/a	n/a	n/a	n/a	n/a	n/a	n/a
188544	PROB	n/a	LTP269	ltpFR	9	n/a	n/a	n/a	n/a	n/a	n/a	17	5	6	3	n/a	n/a	n/a	n/a	n/a
190792	PROB	n/a	LTP269	ltpFR	9	n/a	n/a	n/a	n/a	n/a	n/a	8	4	3	1	n/a	n/a	n/a	n/a	n/a
192922	PROB	n/a	LTP269	ltpFR	9	n/a	n/a	n/a	n/a	n/a	n/a	18	9	5	5	n/a	n/a	n/a	n/a	n/a
195660	STOP	n/a	LTP269	ltpFR	9	n/a	n/a	n/a	n/a	n/a	n/a	n/a	n/a	n/a	n/a	n/a	n/a	n/a	n/a	n/a
196850	WORD	wordpools/wasnorm_wordpool_less_exclusions.txt	LTP269	ltpFR	9	1	1	ATHLETE	52	n/a	1	n/a	0	0	0	0	0.5869140625	0.422607421875	lower	../fonts/zerothre.ttf
199862	START	n/a	LTP269	ltpFR	9	n/a	n/a	n/a	n/a	n/a	n/a	n/a	n/a	n/a	n/a	n/a	n/a	n/a	n/a	n/a
200894	PROB	n/a	LTP269	ltpFR	9	n/a	n/a	n/a	n/a	n/a	n/a	8	5	2	1	n/a	n/a	n/a	n/a	n/a
202590	PROB	n/a	LTP269	ltpFR	9	n/a	n/a	n/a	n/a	n/a	n/a	17	6	6	5	n/a	n/a	n/a	n/a	n/a
204921	PROB	n/a	LTP269	ltpFR	9	n/a	n/a	n/a	n/a	n/a	n/a	15	6	6	3	n/a	n/a	n/a	n/a	n/a
206652	STOP	n/a	LTP269	ltpFR	9	n/a	n/a	n/a	n/a	n/a	n/a	n/a	n/a	n/a	n/a	n/a	n/a	n/a	n/a	n/a
208764	WORD	wordpools/wasnorm_wordpool_less_exclusions.txt	LTP269	ltpFR	9	1	1	DRINK	498	n/a	0	n/a	0	0	0	0	0.5869140625	0.422607421875	lower	../fonts/zerothre.ttf
211778	START	n/a	LTP269	ltpFR	9	n/a	n/a	n/a	n/a	n/a	n/a	n/a	n/a	n/a	n/a	n/a	n/a	n/a	n/a	n/a
212692	PROB	n/a	LTP269	ltpFR	9	n/a	n/a	n/a	n/a	n/a	n/a	17	2	7	8	n/a	n/a	n/a	n/a	n/a
214939	PROB	n/a	LTP269	ltpFR	9	n/a	n/a	n/a	n/a	n/a	n/a	10	1	7	2	n/a	n/a	n/a	n/a	n/a
216787	PROB	n/a	LTP269	ltpFR	9	n/a	n/a	n/a	n/a	n/a	n/a	11	3	2	6	n/a	n/a	n/a	n/a	n/a
219652	STOP	n/a	LTP269	ltpFR	9	n/a	n/a	n/a	n/a	n/a	n/a	n/a	n/a	n/a	n/a	n/a	n/a	n/a	n/a	n/a
220930	WORD	wordpools/wasnorm_wordpool_less_exclusions.txt	LTP269	ltpFR	9	1	1	BEER	114	n/a	0	n/a	0	0	0	0	0.5869140625	0.422607421875	lower	../fonts/zerothre.ttf
223943	START	n/a	LTP269	ltpFR	9	n/a	n/a	n/a	n/a	n/a	n/a	n/a	n/a	n/a	n/a	n/a	n/a	n/a	n/a	n/a
224908	PROB	n/a	LTP269	ltpFR	9	n/a	n/a	n/a	n/a	n/a	n/a	17	6	3	8	n/a	n/a	n/a	n/a	n/a
226504	PROB	n/a	LTP269	ltpFR	9	n/a	n/a	n/a	n/a	n/a	n/a	11	3	4	4	n/a	n/a	n/a	n/a	n/a
231943	STOP	n/a	LTP269	ltpFR	9	n/a	n/a	n/a	n/a	n/a	n/a	n/a	n/a	n/a	n/a	n/a	n/a	n/a	n/a	n/a
232879	WORD	wordpools/wasnorm_wordpool_less_exclusions.txt	LTP269	ltpFR	9	1	1	LAKE	796	n/a	0	n/a	0	0	0	0	0.5869140625	0.422607421875	lower	../fonts/zerothre.ttf
235892	START	n/a	LTP269	ltpFR	9	n/a	n/a	n/a	n/a	n/a	n/a	n/a	n/a	n/a	n/a	n/a	n/a	n/a	n/a	n/a
236940	PROB	n/a	LTP269	ltpFR	9	n/a	n/a	n/a	n/a	n/a	n/a	17	5	5	7	n/a	n/a	n/a	n/a	n/a
239885	PROB	n/a	LTP269	ltpFR	9	n/a	n/a	n/a	n/a	n/a	n/a	20	9	5	6	n/a	n/a	n/a	n/a	n/a
243891	STOP	n/a	LTP269	ltpFR	9	n/a	n/a	n/a	n/a	n/a	n/a	n/a	n/a	n/a	n/a	n/a	n/a	n/a	n/a	n/a
244878	WORD	wordpools/wasnorm_wordpool_less_exclusions.txt	LTP269	ltpFR	9	1	1	STADIUM	1364	n/a	0	n/a	0	0	0	0	0.5869140625	0.422607421875	lower	../fonts/zerothre.ttf
247891	START	n/a	LTP269	ltpFR	9	n/a	n/a	n/a	n/a	n/a	n/a	n/a	n/a	n/a	n/a	n/a	n/a	n/a	n/a	n/a
249072	PROB	n/a	LTP269	ltpFR	9	n/a	n/a	n/a	n/a	n/a	n/a	11	1	4	6	n/a	n/a	n/a	n/a	n/a
250919	PROB	n/a	LTP269	ltpFR	9	n/a	n/a	n/a	n/a	n/a	n/a	14	4	3	7	n/a	n/a	n/a	n/a	n/a
252466	PROB	n/a	LTP269	ltpFR	9	n/a	n/a	n/a	n/a	n/a	n/a	15	3	8	4	n/a	n/a	n/a	n/a	n/a
254341	STOP	n/a	LTP269	ltpFR	9	n/a	n/a	n/a	n/a	n/a	n/a	n/a	n/a	n/a	n/a	n/a	n/a	n/a	n/a	n/a
257027	WORD	wordpools/wasnorm_wordpool_less_exclusions.txt	LTP269	ltpFR	9	1	1	ORCHID	982	n/a	1	n/a	0	0	0	0	0.5869140625	0.422607421875	lower	../fonts/zerothre.ttf
260039	START	n/a	LTP269	ltpFR	9	n/a	n/a	n/a	n/a	n/a	n/a	n/a	n/a	n/a	n/a	n/a	n/a	n/a	n/a	n/a
261137	PROB	n/a	LTP269	ltpFR	9	n/a	n/a	n/a	n/a	n/a	n/a	7	4	2	1	n/a	n/a	n/a	n/a	n/a
263001	PROB	n/a	LTP269	ltpFR	9	n/a	n/a	n/a	n/a	n/a	n/a	6	3	2	1	n/a	n/a	n/a	n/a	n/a
264798	PROB	n/a	LTP269	ltpFR	9	n/a	n/a	n/a	n/a	n/a	n/a	16	6	7	3	n/a	n/a	n/a	n/a	n/a
268038	STOP	n/a	LTP269	ltpFR	9	n/a	n/a	n/a	n/a	n/a	n/a	n/a	n/a	n/a	n/a	n/a	n/a	n/a	n/a	n/a
269158	WORD	wordpools/wasnorm_wordpool_less_exclusions.txt	LTP269	ltpFR	9	1	1	LAPEL	800	n/a	0	n/a	0	0	0	0	0.5869140625	0.422607421875	lower	../fonts/zerothre.ttf
272171	START	n/a	LTP269	ltpFR	9	n/a	n/a	n/a	n/a	n/a	n/a	n/a	n/a	n/a	n/a	n/a	n/a	n/a	n/a	n/a
273302	PROB	n/a	LTP269	ltpFR	9	n/a	n/a	n/a	n/a	n/a	n/a	15	7	3	5	n/a	n/a	n/a	n/a	n/a
275333	PROB	n/a	LTP269	ltpFR	9	n/a	n/a	n/a	n/a	n/a	n/a	12	2	3	7	n/a	n/a	n/a	n/a	n/a
276963	PROB	n/a	LTP269	ltpFR	9	n/a	n/a	n/a	n/a	n/a	n/a	10	1	8	1	n/a	n/a	n/a	n/a	n/a
280171	STOP	n/a	LTP269	ltpFR	9	n/a	n/a	n/a	n/a	n/a	n/a	n/a	n/a	n/a	n/a	n/a	n/a	n/a	n/a	n/a
281374	WORD	wordpools/wasnorm_wordpool_less_exclusions.txt	LTP269	ltpFR	9	1	1	PENGUIN	1044	n/a	1	n/a	0	0	0	0	0.5869140625	0.422607421875	lower	../fonts/zerothre.ttf
284386	START	n/a	LTP269	ltpFR	9	n/a	n/a	n/a	n/a	n/a	n/a	n/a	n/a	n/a	n/a	n/a	n/a	n/a	n/a	n/a
285516	PROB	n/a	LTP269	ltpFR	9	n/a	n/a	n/a	n/a	n/a	n/a	18	5	8	5	n/a	n/a	n/a	n/a	n/a
287580	PROB	n/a	LTP269	ltpFR	9	n/a	n/a	n/a	n/a	n/a	n/a	24	9	9	6	n/a	n/a	n/a	n/a	n/a
292386	STOP	n/a	LTP269	ltpFR	9	n/a	n/a	n/a	n/a	n/a	n/a	n/a	n/a	n/a	n/a	n/a	n/a	n/a	n/a	n/a
293289	WORD	wordpools/wasnorm_wordpool_less_exclusions.txt	LTP269	ltpFR	9	1	1	PLUTO	1092	n/a	n/a	n/a	0	0	0	0	0.5869140625	0.422607421875	lower	../fonts/zerothre.ttf
296318	SLOW_MSG	n/a	LTP269	ltpFR	9	1	n/a	n/a	n/a	n/a	n/a	n/a	0	0	0	n/a	n/a	n/a	n/a	n/a
297849	START	n/a	LTP269	ltpFR	9	n/a	n/a	n/a	n/a	n/a	n/a	n/a	n/a	n/a	n/a	n/a	n/a	n/a	n/a	n/a
298763	PROB	n/a	LTP269	ltpFR	9	n/a	n/a	n/a	n/a	n/a	n/a	18	2	7	9	n/a	n/a	n/a	n/a	n/a
300844	PROB	n/a	LTP269	ltpFR	9	n/a	n/a	n/a	n/a	n/a	n/a	22	9	5	8	n/a	n/a	n/a	n/a	n/a
303706	PROB	n/a	LTP269	ltpFR	9	n/a	n/a	n/a	n/a	n/a	n/a	19	4	6	9	n/a	n/a	n/a	n/a	n/a
305141	STOP	n/a	LTP269	ltpFR	9	n/a	n/a	n/a	n/a	n/a	n/a	n/a	n/a	n/a	n/a	n/a	n/a	n/a	n/a	n/a
306952	WORD	wordpools/wasnorm_wordpool_less_exclusions.txt	LTP269	ltpFR	9	1	1	ROAD	1196	n/a	0	n/a	0	0	0	0	0.5869140625	0.422607421875	lower	../fonts/zerothre.ttf
309965	START	n/a	LTP269	ltpFR	9	n/a	n/a	n/a	n/a	n/a	n/a	n/a	n/a	n/a	n/a	n/a	n/a	n/a	n/a	n/a
311063	PROB	n/a	LTP269	ltpFR	9	n/a	n/a	n/a	n/a	n/a	n/a	16	3	8	5	n/a	n/a	n/a	n/a	n/a
312759	PROB	n/a	LTP269	ltpFR	9	n/a	n/a	n/a	n/a	n/a	n/a	19	6	7	6	n/a	n/a	n/a	n/a	n/a
317965	STOP	n/a	LTP269	ltpFR	9	n/a	n/a	n/a	n/a	n/a	n/a	n/a	n/a	n/a	n/a	n/a	n/a	n/a	n/a	n/a
319150	WORD	wordpools/wasnorm_wordpool_less_exclusions.txt	LTP269	ltpFR	9	1	1	SIDEWALK	1303	n/a	0	n/a	0	0	0	0	0.5869140625	0.422607421875	lower	../fonts/zerothre.ttf
322163	START	n/a	LTP269	ltpFR	9	n/a	n/a	n/a	n/a	n/a	n/a	n/a	n/a	n/a	n/a	n/a	n/a	n/a	n/a	n/a
323078	PROB	n/a	LTP269	ltpFR	9	n/a	n/a	n/a	n/a	n/a	n/a	11	1	7	3	n/a	n/a	n/a	n/a	n/a
324792	PROB	n/a	LTP269	ltpFR	9	n/a	n/a	n/a	n/a	n/a	n/a	18	6	5	7	n/a	n/a	n/a	n/a	n/a
326872	PROB	n/a	LTP269	ltpFR	9	n/a	n/a	n/a	n/a	n/a	n/a	177	5	4	8	n/a	n/a	n/a	n/a	n/a
329636	STOP	n/a	LTP269	ltpFR	9	n/a	n/a	n/a	n/a	n/a	n/a	n/a	n/a	n/a	n/a	n/a	n/a	n/a	n/a	n/a
331949	REC_START	n/a	LTP269	ltpFR	9	1	n/a	n/a	n/a	n/a	n/a	n/a	0	0	0	n/a	n/a	n/a	n/a	n/a
333145	REC_WORD	wordpools/wasnorm_wordpool_less_exclusions.txt	LTP269	ltpFR	9	1	1	CORAL	378	n/a	1	n/a	0	0	0	n/a	n/a	n/a	n/a	n/a
334312	REC_WORD	wordpools/wasnorm_wordpool_less_exclusions.txt	LTP269	ltpFR	9	1	1	BEER	114	n/a	0	n/a	0	0	0	n/a	n/a	n/a	n/a	n/a
335272	REC_WORD	wordpools/wasnorm_wordpool_less_exclusions.txt	LTP269	ltpFR	9	1	1	DRINK	498	n/a	0	n/a	0	0	0	n/a	n/a	n/a	n/a	n/a
336317	REC_WORD	wordpools/wasnorm_wordpool_less_exclusions.txt	LTP269	ltpFR	9	1	1	STADIUM	1364	n/a	0	n/a	0	0	0	n/a	n/a	n/a	n/a	n/a
339016	REC_WORD	wordpools/wasnorm_wordpool_less_exclusions.txt	LTP269	ltpFR	9	1	1	PENGUIN	1044	n/a	1	n/a	0	0	0	n/a	n/a	n/a	n/a	n/a
349708	REC_WORD	wordpools/wasnorm_wordpool_less_exclusions.txt	LTP269	ltpFR	9	1	1	ROAD	1196	n/a	0	n/a	0	0	0	n/a	n/a	n/a	n/a	n/a
356774	REC_WORD	wordpools/wasnorm_wordpool_less_exclusions.txt	LTP269	ltpFR	9	1	1	ATHLETE	52	n/a	1	n/a	0	0	0	n/a	n/a	n/a	n/a	n/a
371864	REC_WORD	wordpools/wasnorm_wordpool_less_exclusions.txt	LTP269	ltpFR	9	1	n/a	JUPITER	765	n/a	n/a	n/a	0	0	0	n/a	n/a	n/a	n/a	n/a
372814	REC_WORD	wordpools/wasnorm_wordpool_less_exclusions.txt	LTP269	ltpFR	9	1	1	MOON	914	n/a	0	n/a	0	0	0	n/a	n/a	n/a	n/a	n/a
413210	WORD	wordpools/wasnorm_wordpool_less_exclusions.txt	LTP269	ltpFR	9	2	1	ABDOMEN	1	n/a	0	n/a	0	0	0	0	0.5869140625	0.422607421875	lower	../fonts/zerothre.ttf
417071	WORD	wordpools/wasnorm_wordpool_less_exclusions.txt	LTP269	ltpFR	9	2	1	DAISY	435	n/a	1	n/a	0	0	0	0	0.5869140625	0.422607421875	lower	../fonts/zerothre.ttf
421248	WORD	wordpools/wasnorm_wordpool_less_exclusions.txt	LTP269	ltpFR	9	2	1	HOOD	714	n/a	0	n/a	0	0	0	0	0.5869140625	0.422607421875	lower	../fonts/zerothre.ttf
425392	WORD	wordpools/wasnorm_wordpool_less_exclusions.txt	LTP269	ltpFR	9	2	0	ZEBRA	1635	n/a	1	n/a	0	0	0	1	0.412841796875	0.57763671875	upper	../fonts/amplitud.ttf
429485	WORD	wordpools/wasnorm_wordpool_less_exclusions.txt	LTP269	ltpFR	9	2	0	FARM	552	n/a	1	n/a	0	0	0	1	0.412841796875	0.57763671875	upper	../fonts/amplitud.ttf
433347	WORD	wordpools/wasnorm_wordpool_less_exclusions.txt	LTP269	ltpFR	9	2	0	SHEPHERD	1283	n/a	1	n/a	0	0	0	1	0.412841796875	0.57763671875	upper	../fonts/amplitud.ttf
437274	WORD	wordpools/wasnorm_wordpool_less_exclusions.txt	LTP269	ltpFR	9	2	0	MEADOW	881	n/a	1	n/a	0	0	0	1	0.412841796875	0.57763671875	upper	../fonts/amplitud.ttf
441433	WORD	wordpools/wasnorm_wordpool_less_exclusions.txt	LTP269	ltpFR	9	2	1	MULE	931	n/a	1	n/a	0	0	0	0	0.5869140625	0.422607421875	lower	../fonts/zerothre.ttf
445594	WORD	wordpools/wasnorm_wordpool_less_exclusions.txt	LTP269	ltpFR	9	2	1	BOOK	149	n/a	0	n/a	0	0	0	0	0.5869140625	0.422607421875	lower	../fonts/zerothre.ttf
449789	WORD	wordpools/wasnorm_wordpool_less_exclusions.txt	LTP269	ltpFR	9	2	0	TURKEY	1520	n/a	1	n/a	0	0	0	1	0.412841796875	0.57763671875	upper	../fonts/amplitud.ttf
453783	WORD	wordpools/wasnorm_wordpool_less_exclusions.txt	LTP269	ltpFR	9	2	0	TRAY	1498	n/a	0	n/a	0	0	0	1	0.412841796875	0.57763671875	upper	../fonts/amplitud.ttf
457626	WORD	wordpools/wasnorm_wordpool_less_exclusions.txt	LTP269	ltpFR	9	2	0	MITTEN	902	n/a	0	n/a	0	0	0	1	0.412841796875	0.57763671875	upper	../fonts/amplitud.ttf
461703	WORD	wordpools/wasnorm_wordpool_less_exclusions.txt	LTP269	ltpFR	9	2	0	GLOVE	642	n/a	0	n/a	0	0	0	1	0.412841796875	0.57763671875	upper	../fonts/amplitud.ttf
465564	WORD	wordpools/wasnorm_wordpool_less_exclusions.txt	LTP269	ltpFR	9	2	1	PITCHFORK	1078	n/a	0	n/a	0	0	0	0	0.5869140625	0.422607421875	lower	../fonts/zerothre.ttf
469725	WORD	wordpools/wasnorm_wordpool_less_exclusions.txt	LTP269	ltpFR	9	2	1	STOMACH	1384	n/a	0	n/a	0	0	0	0	0.5869140625	0.422607421875	lower	../fonts/zerothre.ttf
473585	WORD	wordpools/wasnorm_wordpool_less_exclusions.txt	LTP269	ltpFR	9	2	1	SCREW	1254	n/a	0	n/a	0	0	0	0	0.5869140625	0.422607421875	lower	../fonts/zerothre.ttf
476598	START	n/a	LTP269	ltpFR	9	n/a	n/a	n/a	n/a	n/a	n/a	n/a	n/a	n/a	n/a	n/a	n/a	n/a	n/a	n/a
477780	PROB	n/a	LTP269	ltpFR	9	n/a	n/a	n/a	n/a	n/a	n/a	12	2	3	7	n/a	n/a	n/a	n/a	n/a
479726	PROB	n/a	LTP269	ltpFR	9	n/a	n/a	n/a	n/a	n/a	n/a	19	8	2	9	n/a	n/a	n/a	n/a	n/a
482024	PROB	n/a	LTP269	ltpFR	9	n/a	n/a	n/a	n/a	n/a	n/a	17	6	2	9	n/a	n/a	n/a	n/a	n/a
484420	STOP	n/a	LTP269	ltpFR	9	n/a	n/a	n/a	n/a	n/a	n/a	n/a	n/a	n/a	n/a	n/a	n/a	n/a	n/a	n/a
486417	REC_START	n/a	LTP269	ltpFR	9	2	n/a	n/a	n/a	n/a	n/a	n/a	0	0	0	n/a	n/a	n/a	n/a	n/a
488721	REC_WORD	wordpools/wasnorm_wordpool_less_exclusions.txt	LTP269	ltpFR	9	2	0	ZEBRA	1635	n/a	1	n/a	0	0	0	n/a	n/a	n/a	n/a	n/a
491857	REC_WORD	wordpools/wasnorm_wordpool_less_exclusions.txt	LTP269	ltpFR	9	2	0	FARM	552	n/a	1	n/a	0	0	0	n/a	n/a	n/a	n/a	n/a
493458	REC_WORD	wordpools/wasnorm_wordpool_less_exclusions.txt	LTP269	ltpFR	9	2	0	MEADOW	881	n/a	1	n/a	0	0	0	n/a	n/a	n/a	n/a	n/a
497368	REC_WORD	wordpools/wasnorm_wordpool_less_exclusions.txt	LTP269	ltpFR	9	2	0	SHEPHERD	1283	n/a	1	n/a	0	0	0	n/a	n/a	n/a	n/a	n/a
498358	REC_WORD	wordpools/wasnorm_wordpool_less_exclusions.txt	LTP269	ltpFR	9	2	1	PITCHFORK	1078	n/a	0	n/a	0	0	0	n/a	n/a	n/a	n/a	n/a
500180	REC_WORD	wordpools/wasnorm_wordpool_less_exclusions.txt	LTP269	ltpFR	9	2	1	BOOK	149	n/a	0	n/a	0	0	0	n/a	n/a	n/a	n/a	n/a
501108	REC_WORD	wordpools/wasnorm_wordpool_less_exclusions.txt	LTP269	ltpFR	9	2	1	ABDOMEN	1	n/a	0	n/a	0	0	0	n/a	n/a	n/a	n/a	n/a
502638	REC_WORD	wordpools/wasnorm_wordpool_less_exclusions.txt	LTP269	ltpFR	9	2	1	STOMACH	1384	n/a	0	n/a	0	0	0	n/a	n/a	n/a	n/a	n/a
506352	REC_WORD	wordpools/wasnorm_wordpool_less_exclusions.txt	LTP269	ltpFR	9	2	1	MULE	931	n/a	1	n/a	0	0	0	n/a	n/a	n/a	n/a	n/a
510615	REC_WORD	wordpools/wasnorm_wordpool_less_exclusions.txt	LTP269	ltpFR	9	2	0	GLOVE	642	n/a	0	n/a	0	0	0	n/a	n/a	n/a	n/a	n/a
512365	REC_WORD	wordpools/wasnorm_wordpool_less_exclusions.txt	LTP269	ltpFR	9	2	0	MITTEN	902	n/a	0	n/a	0	0	0	n/a	n/a	n/a	n/a	n/a
536962	REC_WORD	wordpools/wasnorm_wordpool_less_exclusions.txt	LTP269	ltpFR	9	2	0	TURKEY	1520	n/a	1	n/a	0	0	0	n/a	n/a	n/a	n/a	n/a
568577	WORD	wordpools/wasnorm_wordpool_less_exclusions.txt	LTP269	ltpFR	9	3	0	SIREN	1310	n/a	1	n/a	0	0	0	1	0.412841796875	0.57763671875	upper	../fonts/amplitud.ttf
572405	WORD	wordpools/wasnorm_wordpool_less_exclusions.txt	LTP269	ltpFR	9	3	0	AUDIENCE	59	n/a	1	n/a	0	0	0	1	0.412841796875	0.57763671875	upper	../fonts/amplitud.ttf
576532	WORD	wordpools/wasnorm_wordpool_less_exclusions.txt	LTP269	ltpFR	9	3	0	CHEERLEADER	288	n/a	1	n/a	0	0	0	1	0.412841796875	0.57763671875	upper	../fonts/amplitud.ttf
580377	WORD	wordpools/wasnorm_wordpool_less_exclusions.txt	LTP269	ltpFR	9	3	0	PUBLICATION	1136	n/a	1	n/a	0	0	0	1	0.412841796875	0.57763671875	upper	../fonts/amplitud.ttf
584420	WORD	wordpools/wasnorm_wordpool_less_exclusions.txt	LTP269	ltpFR	9	3	1	TEAM	1441	n/a	0	n/a	0	0	0	0	0.5869140625	0.422607421875	lower	../fonts/zerothre.ttf
588382	WORD	wordpools/wasnorm_wordpool_less_exclusions.txt	LTP269	ltpFR	9	3	1	ROCKET	1202	n/a	0	n/a	0	0	0	0	0.5869140625	0.422607421875	lower	../fonts/zerothre.ttf
592408	WORD	wordpools/wasnorm_wordpool_less_exclusions.txt	LTP269	ltpFR	9	3	0	YACHT	1629	n/a	1	n/a	0	0	0	1	0.412841796875	0.57763671875	upper	../fonts/amplitud.ttf
596253	WORD	wordpools/wasnorm_wordpool_less_exclusions.txt	LTP269	ltpFR	9	3	0	CELERY	266	n/a	0	n/a	0	0	0	1	0.412841796875	0.57763671875	upper	../fonts/amplitud.ttf
600098	WORD	wordpools/wasnorm_wordpool_less_exclusions.txt	LTP269	ltpFR	9	3	0	BURGLAR	200	n/a	1	n/a	0	0	0	1	0.412841796875	0.57763671875	upper	../fonts/amplitud.ttf
604275	WORD	wordpools/wasnorm_wordpool_less_exclusions.txt	LTP269	ltpFR	9	3	0	CROOK	412	n/a	1	n/a	0	0	0	1	0.412841796875	0.57763671875	upper	../fonts/amplitud.ttf
608335	WORD	wordpools/wasnorm_wordpool_less_exclusions.txt	LTP269	ltpFR	9	3	1	CAN	225	n/a	0	n/a	0	0	0	0	0.5869140625	0.422607421875	lower	../fonts/zerothre.ttf
612313	WORD	wordpools/wasnorm_wordpool_less_exclusions.txt	LTP269	ltpFR	9	3	1	PATROL	1027	n/a	0	n/a	0	0	0	0	0.5869140625	0.422607421875	lower	../fonts/zerothre.ttf
616140	WORD	wordpools/wasnorm_wordpool_less_exclusions.txt	LTP269	ltpFR	9	3	1	CUE	422	n/a	0	n/a	0	0	0	0	0.5869140625	0.422607421875	lower	../fonts/zerothre.ttf
620068	WORD	wordpools/wasnorm_wordpool_less_exclusions.txt	LTP269	ltpFR	9	3	1	PIE	1062	n/a	0	n/a	0	0	0	0	0.5869140625	0.422607421875	lower	../fonts/zerothre.ttf
623962	WORD	wordpools/wasnorm_wordpool_less_exclusions.txt	LTP269	ltpFR	9	3	1	FRUIT	610	n/a	1	n/a	0	0	0	0	0.5869140625	0.422607421875	lower	../fonts/zerothre.ttf
627823	WORD	wordpools/wasnorm_wordpool_less_exclusions.txt	LTP269	ltpFR	9	3	1	BASKETBALL	96	n/a	0	n/a	0	0	0	0	0.5869140625	0.422607421875	lower	../fonts/zerothre.ttf
630835	START	n/a	LTP269	ltpFR	9	n/a	n/a	n/a	n/a	n/a	n/a	n/a	n/a	n/a	n/a	n/a	n/a	n/a	n/a	n/a
631666	PROB	n/a	LTP269	ltpFR	9	n/a	n/a	n/a	n/a	n/a	n/a	18	9	6	3	n/a	n/a	n/a	n/a	n/a
633997	PROB	n/a	LTP269	ltpFR	9	n/a	n/a	n/a	n/a	n/a	n/a	11	4	5	2	n/a	n/a	n/a	n/a	n/a
638835	STOP	n/a	LTP269	ltpFR	9	n/a	n/a	n/a	n/a	n/a	n/a	n/a	n/a	n/a	n/a	n/a	n/a	n/a	n/a	n/a
640603	REC_START	n/a	LTP269	ltpFR	9	3	n/a	n/a	n/a	n/a	n/a	n/a	0	0	0	n/a	n/a	n/a	n/a	n/a
641787	REC_WORD	wordpools/wasnorm_wordpool_less_exclusions.txt	LTP269	ltpFR	9	3	0	CELERY	266	n/a	0	n/a	0	0	0	n/a	n/a	n/a	n/a	n/a
647696	REC_WORD	wordpools/wasnorm_wordpool_less_exclusions.txt	LTP269	ltpFR	9	3	1	TEAM	1441	n/a	0	n/a	0	0	0	n/a	n/a	n/a	n/a	n/a
663976	REC_WORD	wordpools/wasnorm_wordpool_less_exclusions.txt	LTP269	ltpFR	9	3	0	BURGLAR	200	n/a	1	n/a	0	0	0	n/a	n/a	n/a	n/a	n/a
664994	REC_WORD	wordpools/wasnorm_wordpool_less_exclusions.txt	LTP269	ltpFR	9	3	0	CROOK	412	n/a	1	n/a	0	0	0	n/a	n/a	n/a	n/a	n/a
670901	REC_WORD	wordpools/wasnorm_wordpool_less_exclusions.txt	LTP269	ltpFR	9	3	1	ROCKET	1202	n/a	0	n/a	0	0	0	n/a	n/a	n/a	n/a	n/a
671941	REC_WORD	wordpools/wasnorm_wordpool_less_exclusions.txt	LTP269	ltpFR	9	3	0	YACHT	1629	n/a	1	n/a	0	0	0	n/a	n/a	n/a	n/a	n/a
724379	WORD	wordpools/wasnorm_wordpool_less_exclusions.txt	LTP269	ltpFR	9	4	0	AIRPLANE	12	n/a	1	n/a	0	0	0	1	0.412841796875	0.57763671875	upper	../fonts/amplitud.ttf
728405	WORD	wordpools/wasnorm_wordpool_less_exclusions.txt	LTP269	ltpFR	9	4	0	SURF	1412	n/a	1	n/a	0	0	0	1	0.412841796875	0.57763671875	upper	../fonts/amplitud.ttf
732532	WORD	wordpools/wasnorm_wordpool_less_exclusions.txt	LTP269	ltpFR	9	4	0	LUNCH	849	n/a	0	n/a	0	0	0	1	0.412841796875	0.57763671875	upper	../fonts/amplitud.ttf
736626	WORD	wordpools/wasnorm_wordpool_less_exclusions.txt	LTP269	ltpFR	9	4	0	SEA	1259	n/a	1	n/a	0	0	0	1	0.412841796875	0.57763671875	upper	../fonts/amplitud.ttf
740736	WORD	wordpools/wasnorm_wordpool_less_exclusions.txt	LTP269	ltpFR	9	4	0	COLUMN	350	n/a	1	n/a	0	0	0	1	0.412841796875	0.57763671875	upper	../fonts/amplitud.ttf
744815	WORD	wordpools/wasnorm_wordpool_less_exclusions.txt	LTP269	ltpFR	9	4	0	WAITER	1580	n/a	1	n/a	0	0	0	1	0.412841796875	0.57763671875	upper	../fonts/amplitud.ttf
748792	WORD	wordpools/wasnorm_wordpool_less_exclusions.txt	LTP269	ltpFR	9	4	0	BUTLER	204	n/a	1	n/a	0	0	0	1	0.412841796875	0.57763671875	upper	../fonts/amplitud.ttf
752669	WORD	wordpools/wasnorm_wordpool_less_exclusions.txt	LTP269	ltpFR	9	4	0	MOSQUITO	917	n/a	0	n/a	0	0	0	1	0.412841796875	0.57763671875	upper	../fonts/amplitud.ttf
756830	WORD	wordpools/wasnorm_wordpool_less_exclusions.txt	LTP269	ltpFR	9	4	0	RICE	1190	n/a	0	n/a	0	0	0	1	0.412841796875	0.57763671875	upper	../fonts/amplitud.ttf
760991	WORD	wordpools/wasnorm_wordpool_less_exclusions.txt	LTP269	ltpFR	9	4	0	LEG	809	n/a	1	n/a	0	0	0	1	0.412841796875	0.57763671875	upper	../fonts/amplitud.ttf
765201	WORD	wordpools/wasnorm_wordpool_less_exclusions.txt	LTP269	ltpFR	9	4	0	LOBSTER	837	n/a	1	n/a	0	0	0	1	0.412841796875	0.57763671875	upper	../fonts/amplitud.ttf
769029	WORD	wordpools/wasnorm_wordpool_less_exclusions.txt	LTP269	ltpFR	9	4	0	SCALLOP	1242	n/a	0	n/a	0	0	0	1	0.412841796875	0.57763671875	upper	../fonts/amplitud.ttf
773089	WORD	wordpools/wasnorm_wordpool_less_exclusions.txt	LTP269	ltpFR	9	4	0	BOWL	158	n/a	1	n/a	0	0	0	1	0.412841796875	0.57763671875	upper	../fonts/amplitud.ttf
777000	WORD	wordpools/wasnorm_wordpool_less_exclusions.txt	LTP269	ltpFR	9	4	0	POTTERY	1116	n/a	1	n/a	0	0	0	1	0.412841796875	0.57763671875	upper	../fonts/amplitud.ttf
781177	WORD	wordpools/wasnorm_wordpool_less_exclusions.txt	LTP269	ltpFR	9	4	0	DINNER	468	n/a	0	n/a	0	0	0	1	0.412841796875	0.57763671875	upper	../fonts/amplitud.ttf
785138	WORD	wordpools/wasnorm_wordpool_less_exclusions.txt	LTP269	ltpFR	9	4	0	SUPPER	1411	n/a	0	n/a	0	0	0	1	0.412841796875	0.57763671875	upper	../fonts/amplitud.ttf
788150	START	n/a	LTP269	ltpFR	9	n/a	n/a	n/a	n/a	n/a	n/a	n/a	n/a	n/a	n/a	n/a	n/a	n/a	n/a	n/a
789232	PROB	n/a	LTP269	ltpFR	9	n/a	n/a	n/a	n/a	n/a	n/a	11	3	2	6	n/a	n/a	n/a	n/a	n/a
791894	PROB	n/a	LTP269	ltpFR	9	n/a	n/a	n/a	n/a	n/a	n/a	21	9	6	6	n/a	n/a	n/a	n/a	n/a
794406	PROB	n/a	LTP269	ltpFR	9	n/a	n/a	n/a	n/a	n/a	n/a	18	4	5	9	n/a	n/a	n/a	n/a	n/a
798152	PROB	n/a	LTP269	ltpFR	9	n/a	n/a	n/a	n/a	n/a	n/a	14	7	6	1	n/a	n/a	n/a	n/a	n/a
800514	PROB	n/a	LTP269	ltpFR	9	n/a	n/a	n/a	n/a	n/a	n/a	19	7	8	4	n/a	n/a	n/a	n/a	n/a
803428	STOP	n/a	LTP269	ltpFR	9	n/a	n/a	n/a	n/a	n/a	n/a	n/a	n/a	n/a	n/a	n/a	n/a	n/a	n/a	n/a
805907	REC_START	n/a	LTP269	ltpFR	9	4	n/a	n/a	n/a	n/a	n/a	n/a	0	0	0	n/a	n/a	n/a	n/a	n/a
808312	REC_WORD	wordpools/wasnorm_wordpool_less_exclusions.txt	LTP269	ltpFR	9	4	0	SUPPER	1411	n/a	0	n/a	0	0	0	n/a	n/a	n/a	n/a	n/a
809709	REC_WORD	wordpools/wasnorm_wordpool_less_exclusions.txt	LTP269	ltpFR	9	4	0	DINNER	468	n/a	0	n/a	0	0	0	n/a	n/a	n/a	n/a	n/a
810915	REC_WORD	wordpools/wasnorm_wordpool_less_exclusions.txt	LTP269	ltpFR	9	4	0	LUNCH	849	n/a	0	n/a	0	0	0	n/a	n/a	n/a	n/a	n/a
812852	REC_WORD	wordpools/wasnorm_wordpool_less_exclusions.txt	LTP269	ltpFR	9	4	0	SCALLOP	1242	n/a	0	n/a	0	0	0	n/a	n/a	n/a	n/a	n/a
814022	REC_WORD	wordpools/wasnorm_wordpool_less_exclusions.txt	LTP269	ltpFR	9	4	0	LOBSTER	837	n/a	1	n/a	0	0	0	n/a	n/a	n/a	n/a	n/a
817744	REC_WORD	wordpools/wasnorm_wordpool_less_exclusions.txt	LTP269	ltpFR	9	4	0	MOSQUITO	917	n/a	0	n/a	0	0	0	n/a	n/a	n/a	n/a	n/a
818785	REC_WORD	wordpools/wasnorm_wordpool_less_exclusions.txt	LTP269	ltpFR	9	4	0	RICE	1190	n/a	0	n/a	0	0	0	n/a	n/a	n/a	n/a	n/a
821185	REC_WORD	wordpools/wasnorm_wordpool_less_exclusions.txt	LTP269	ltpFR	9	4	0	AIRPLANE	12	n/a	1	n/a	0	0	0	n/a	n/a	n/a	n/a	n/a
822850	REC_WORD	wordpools/wasnorm_wordpool_less_exclusions.txt	LTP269	ltpFR	9	4	0	SURF	1412	n/a	1	n/a	0	0	0	n/a	n/a	n/a	n/a	n/a
886171	START	n/a	LTP269	ltpFR	9	n/a	n/a	n/a	n/a	n/a	n/a	n/a	n/a	n/a	n/a	n/a	n/a	n/a	n/a	n/a
887684	PROB	n/a	LTP269	ltpFR	9	n/a	n/a	n/a	n/a	n/a	n/a	16	9	1	6	n/a	n/a	n/a	n/a	n/a
889898	PROB	n/a	LTP269	ltpFR	9	n/a	n/a	n/a	n/a	n/a	n/a	10	2	5	3	n/a	n/a	n/a	n/a	n/a
892993	PROB	n/a	LTP269	ltpFR	9	n/a	n/a	n/a	n/a	n/a	n/a	19	8	2	9	n/a	n/a	n/a	n/a	n/a
894723	PROB	n/a	LTP269	ltpFR	9	n/a	n/a	n/a	n/a	n/a	n/a	10	8	1	1	n/a	n/a	n/a	n/a	n/a
895972	PROB	n/a	LTP269	ltpFR	9	n/a	n/a	n/a	n/a	n/a	n/a	9	2	4	3	n/a	n/a	n/a	n/a	n/a
897903	PROB	n/a	LTP269	ltpFR	9	n/a	n/a	n/a	n/a	n/a	n/a	12	2	5	5	n/a	n/a	n/a	n/a	n/a
899351	PROB	n/a	LTP269	ltpFR	9	n/a	n/a	n/a	n/a	n/a	n/a	8	4	3	1	n/a	n/a	n/a	n/a	n/a
900933	STOP	n/a	LTP269	ltpFR	9	n/a	n/a	n/a	n/a	n/a	n/a	n/a	n/a	n/a	n/a	n/a	n/a	n/a	n/a	n/a
902995	WORD	wordpools/wasnorm_wordpool_less_exclusions.txt	LTP269	ltpFR	9	5	1	JUG	762	n/a	0	n/a	0	0	0	0	0.5869140625	0.422607421875	lower	../fonts/zerothre.ttf
906008	START	n/a	LTP269	ltpFR	9	n/a	n/a	n/a	n/a	n/a	n/a	n/a	n/a	n/a	n/a	n/a	n/a	n/a	n/a	n/a
907139	PROB	n/a	LTP269	ltpFR	9	n/a	n/a	n/a	n/a	n/a	n/a	15	1	7	7	n/a	n/a	n/a	n/a	n/a
908503	PROB	n/a	LTP269	ltpFR	9	n/a	n/a	n/a	n/a	n/a	n/a	14	6	5	3	n/a	n/a	n/a	n/a	n/a
911748	PROB	n/a	LTP269	ltpFR	9	n/a	n/a	n/a	n/a	n/a	n/a	16	6	5	5	n/a	n/a	n/a	n/a	n/a
913612	PROB	n/a	LTP269	ltpFR	9	n/a	n/a	n/a	n/a	n/a	n/a	19	7	6	7	n/a	n/a	n/a	n/a	n/a
916009	PROB	n/a	LTP269	ltpFR	9	n/a	n/a	n/a	n/a	n/a	n/a	12	1	9	2	n/a	n/a	n/a	n/a	n/a
922008	STOP	n/a	LTP269	ltpFR	9	n/a	n/a	n/a	n/a	n/a	n/a	n/a	n/a	n/a	n/a	n/a	n/a	n/a	n/a	n/a
923032	WORD	wordpools/wasnorm_wordpool_less_exclusions.txt	LTP269	ltpFR	9	5	1	CASH	252	n/a	0	n/a	0	0	0	0	0.5869140625	0.422607421875	lower	../fonts/zerothre.ttf
926045	START	n/a	LTP269	ltpFR	9	n/a	n/a	n/a	n/a	n/a	n/a	n/a	n/a	n/a	n/a	n/a	n/a	n/a	n/a	n/a
927226	PROB	n/a	LTP269	ltpFR	9	n/a	n/a	n/a	n/a	n/a	n/a	10	6	2	2	n/a	n/a	n/a	n/a	n/a
928990	PROB	n/a	LTP269	ltpFR	9	n/a	n/a	n/a	n/a	n/a	n/a	15	3	6	6	n/a	n/a	n/a	n/a	n/a
930920	PROB	n/a	LTP269	ltpFR	9	n/a	n/a	n/a	n/a	n/a	n/a	15	3	3	9	n/a	n/a	n/a	n/a	n/a
933000	PROB	n/a	LTP269	ltpFR	9	n/a	n/a	n/a	n/a	n/a	n/a	14	6	4	4	n/a	n/a	n/a	n/a	n/a
934547	PROB	n/a	LTP269	ltpFR	9	n/a	n/a	n/a	n/a	n/a	n/a	16	7	4	5	n/a	n/a	n/a	n/a	n/a
937642	PROB	n/a	LTP269	ltpFR	9	n/a	n/a	n/a	n/a	n/a	n/a	13	5	6	2	n/a	n/a	n/a	n/a	n/a
941588	STOP	n/a	LTP269	ltpFR	9	n/a	n/a	n/a	n/a	n/a	n/a	n/a	n/a	n/a	n/a	n/a	n/a	n/a	n/a	n/a
943152	WORD	wordpools/wasnorm_wordpool_less_exclusions.txt	LTP269	ltpFR	9	5	1	WARRIOR	1589	n/a	1	n/a	0	0	0	0	0.5869140625	0.422607421875	lower	../fonts/zerothre.ttf
946164	START	n/a	LTP269	ltpFR	9	n/a	n/a	n/a	n/a	n/a	n/a	n/a	n/a	n/a	n/a	n/a	n/a	n/a	n/a	n/a
947213	PROB	n/a	LTP269	ltpFR	9	n/a	n/a	n/a	n/a	n/a	n/a	8	1	6	1	n/a	n/a	n/a	n/a	n/a
948777	PROB	n/a	LTP269	ltpFR	9	n/a	n/a	n/a	n/a	n/a	n/a	20	8	8	4	n/a	n/a	n/a	n/a	n/a
952637	PROB	n/a	LTP269	ltpFR	9	n/a	n/a	n/a	n/a	n/a	n/a	17	7	6	4	n/a	n/a	n/a	n/a	n/a
954584	PROB	n/a	LTP269	ltpFR	9	n/a	n/a	n/a	n/a	n/a	n/a	9	1	4	4	n/a	n/a	n/a	n/a	n/a
962163	STOP	n/a	LTP269	ltpFR	9	n/a	n/a	n/a	n/a	n/a	n/a	n/a	n/a	n/a	n/a	n/a	n/a	n/a	n/a	n/a
963288	WORD	wordpools/wasnorm_wordpool_less_exclusions.txt	LTP269	ltpFR	9	5	1	CROCODILE	411	n/a	1	n/a	0	0	0	0	0.5869140625	0.422607421875	lower	../fonts/zerothre.ttf
966301	START	n/a	LTP269	ltpFR	9	n/a	n/a	n/a	n/a	n/a	n/a	n/a	n/a	n/a	n/a	n/a	n/a	n/a	n/a	n/a
967415	PROB	n/a	LTP269	ltpFR	9	n/a	n/a	n/a	n/a	n/a	n/a	9	1	3	5	n/a	n/a	n/a	n/a	n/a
969146	PROB	n/a	LTP269	ltpFR	9	n/a	n/a	n/a	n/a	n/a	n/a	16	5	2	9	n/a	n/a	n/a	n/a	n/a
971542	PROB	n/a	LTP269	ltpFR	9	n/a	n/a	n/a	n/a	n/a	n/a	10	1	4	5	n/a	n/a	n/a	n/a	n/a
973789	PROB	n/a	LTP269	ltpFR	9	n/a	n/a	n/a	n/a	n/a	n/a	19	7	7	5	n/a	n/a	n/a	n/a	n/a
979181	PROB	n/a	LTP269	ltpFR	9	n/a	n/a	n/a	n/a	n/a	n/a	9	1	5	3	n/a	n/a	n/a	n/a	n/a
981389	STOP	n/a	LTP269	ltpFR	9	n/a	n/a	n/a	n/a	n/a	n/a	n/a	n/a	n/a	n/a	n/a	n/a	n/a	n/a	n/a
983159	WORD	wordpools/wasnorm_wordpool_less_exclusions.txt	LTP269	ltpFR	9	5	0	CAMEL	223	n/a	1	n/a	0	0	0	1	0.412841796875	0.57763671875	upper	../fonts/amplitud.ttf
986171	START	n/a	LTP269	ltpFR	9	n/a	n/a	n/a	n/a	n/a	n/a	n/a	n/a	n/a	n/a	n/a	n/a	n/a	n/a	n/a
987170	PROB	n/a	LTP269	ltpFR	9	n/a	n/a	n/a	n/a	n/a	n/a	14	4	8	2	n/a	n/a	n/a	n/a	n/a
990032	PROB	n/a	LTP269	ltpFR	9	n/a	n/a	n/a	n/a	n/a	n/a	13	9	2	2	n/a	n/a	n/a	n/a	n/a
993294	PROB	n/a	LTP269	ltpFR	9	n/a	n/a	n/a	n/a	n/a	n/a	22	9	4	9	n/a	n/a	n/a	n/a	n/a
1002171	STOP	n/a	LTP269	ltpFR	9	n/a	n/a	n/a	n/a	n/a	n/a	n/a	n/a	n/a	n/a	n/a	n/a	n/a	n/a	n/a
1003212	WORD	wordpools/wasnorm_wordpool_less_exclusions.txt	LTP269	ltpFR	9	5	0	COYOTE	396	n/a	1	n/a	0	0	0	1	0.412841796875	0.57763671875	upper	../fonts/amplitud.ttf
1006225	START	n/a	LTP269	ltpFR	9	n/a	n/a	n/a	n/a	n/a	n/a	n/a	n/a	n/a	n/a	n/a	n/a	n/a	n/a	n/a
1007073	PROB	n/a	LTP269	ltpFR	9	n/a	n/a	n/a	n/a	n/a	n/a	18	9	2	7	n/a	n/a	n/a	n/a	n/a
1010285	PROB	n/a	LTP269	ltpFR	9	n/a	n/a	n/a	n/a	n/a	n/a	13	3	4	6	n/a	n/a	n/a	n/a	n/a
1012099	PROB	n/a	LTP269	ltpFR	9	n/a	n/a	n/a	n/a	n/a	n/a	17	8	8	1	n/a	n/a	n/a	n/a	n/a
1022224	STOP	n/a	LTP269	ltpFR	9	n/a	n/a	n/a	n/a	n/a	n/a	n/a	n/a	n/a	n/a	n/a	n/a	n/a	n/a	n/a
1023382	WORD	wordpools/wasnorm_wordpool_less_exclusions.txt	LTP269	ltpFR	9	5	0	CANAL	226	n/a	1	n/a	0	0	0	1	0.412841796875	0.57763671875	upper	../fonts/amplitud.ttf
1026395	START	n/a	LTP269	ltpFR	9	n/a	n/a	n/a	n/a	n/a	n/a	n/a	n/a	n/a	n/a	n/a	n/a	n/a	n/a	n/a
1027376	PROB	n/a	LTP269	ltpFR	9	n/a	n/a	n/a	n/a	n/a	n/a	8	2	5	1	n/a	n/a	n/a	n/a	n/a
1029422	PROB	n/a	LTP269	ltpFR	9	n/a	n/a	n/a	n/a	n/a	n/a	19	9	3	7	n/a	n/a	n/a	n/a	n/a
1031270	PROB	n/a	LTP269	ltpFR	9	n/a	n/a	n/a	n/a	n/a	n/a	15	2	4	9	n/a	n/a	n/a	n/a	n/a
1033732	PROB	n/a	LTP269	ltpFR	9	n/a	n/a	n/a	n/a	n/a	n/a	22	9	4	9	n/a	n/a	n/a	n/a	n/a
1042395	STOP	n/a	LTP269	ltpFR	9	n/a	n/a	n/a	n/a	n/a	n/a	n/a	n/a	n/a	n/a	n/a	n/a	n/a	n/a	n/a
1043236	WORD	wordpools/wasnorm_wordpool_less_exclusions.txt	LTP269	ltpFR	9	5	0	TUB	1514	n/a	1	n/a	0	0	0	1	0.412841796875	0.57763671875	upper	../fonts/amplitud.ttf
1046248	START	n/a	LTP269	ltpFR	9	n/a	n/a	n/a	n/a	n/a	n/a	n/a	n/a	n/a	n/a	n/a	n/a	n/a	n/a	n/a
1047363	PROB	n/a	LTP269	ltpFR	9	n/a	n/a	n/a	n/a	n/a	n/a	16	3	8	5	n/a	n/a	n/a	n/a	n/a
1049360	PROB	n/a	LTP269	ltpFR	9	n/a	n/a	n/a	n/a	n/a	n/a	15	8	6	1	n/a	n/a	n/a	n/a	n/a
1051840	PROB	n/a	LTP269	ltpFR	9	n/a	n/a	n/a	n/a	n/a	n/a	14	2	5	7	n/a	n/a	n/a	n/a	n/a
1053936	PROB	n/a	LTP269	ltpFR	9	n/a	n/a	n/a	n/a	n/a	n/a	16	1	9	6	n/a	n/a	n/a	n/a	n/a
1056415	PROB	n/a	LTP269	ltpFR	9	n/a	n/a	n/a	n/a	n/a	n/a	18	9	4	5	n/a	n/a	n/a	n/a	n/a
1061684	STOP	n/a	LTP269	ltpFR	9	n/a	n/a	n/a	n/a	n/a	n/a	n/a	n/a	n/a	n/a	n/a	n/a	n/a	n/a	n/a
1063438	WORD	wordpools/wasnorm_wordpool_less_exclusions.txt	LTP269	ltpFR	9	5	1	TROMBONE	1508	n/a	0	n/a	0	0	0	0	0.5869140625	0.422607421875	lower	../fonts/zerothre.ttf
1066450	START	n/a	LTP269	ltpFR	9	n/a	n/a	n/a	n/a	n/a	n/a	n/a	n/a	n/a	n/a	n/a	n/a	n/a	n/a	n/a
1067482	PROB	n/a	LTP269	ltpFR	9	n/a	n/a	n/a	n/a	n/a	n/a	14	3	6	5	n/a	n/a	n/a	n/a	n/a
1069363	PROB	n/a	LTP269	ltpFR	9	n/a	n/a	n/a	n/a	n/a	n/a	15	3	8	4	n/a	n/a	n/a	n/a	n/a
1073291	PROB	n/a	LTP269	ltpFR	9	n/a	n/a	n/a	n/a	n/a	n/a	12	1	4	7	n/a	n/a	n/a	n/a	n/a
1076137	PROB	n/a	LTP269	ltpFR	9	n/a	n/a	n/a	n/a	n/a	n/a	17	9	2	6	n/a	n/a	n/a	n/a	n/a
1082450	STOP	n/a	LTP269	ltpFR	9	n/a	n/a	n/a	n/a	n/a	n/a	n/a	n/a	n/a	n/a	n/a	n/a	n/a	n/a	n/a
1083491	WORD	wordpools/wasnorm_wordpool_less_exclusions.txt	LTP269	ltpFR	9	5	1	CONE	363	n/a	0	n/a	0	0	0	0	0.5869140625	0.422607421875	lower	../fonts/zerothre.ttf
1086504	START	n/a	LTP269	ltpFR	9	n/a	n/a	n/a	n/a	n/a	n/a	n/a	n/a	n/a	n/a	n/a	n/a	n/a	n/a	n/a
1087585	PROB	n/a	LTP269	ltpFR	9	n/a	n/a	n/a	n/a	n/a	n/a	10	3	5	2	n/a	n/a	n/a	n/a	n/a
1091064	PROB	n/a	LTP269	ltpFR	9	n/a	n/a	n/a	n/a	n/a	n/a	8	3	4	1	n/a	n/a	n/a	n/a	n/a
1096190	PROB	n/a	LTP269	ltpFR	9	n/a	n/a	n/a	n/a	n/a	n/a	24	9	7	8	n/a	n/a	n/a	n/a	n/a
1101205	STOP	n/a	LTP269	ltpFR	9	n/a	n/a	n/a	n/a	n/a	n/a	n/a	n/a	n/a	n/a	n/a	n/a	n/a	n/a	n/a
1103396	WORD	wordpools/wasnorm_wordpool_less_exclusions.txt	LTP269	ltpFR	9	5	0	OYSTER	995	n/a	1	n/a	0	0	0	1	0.412841796875	0.57763671875	upper	../fonts/amplitud.ttf
1106407	START	n/a	LTP269	ltpFR	9	n/a	n/a	n/a	n/a	n/a	n/a	n/a	n/a	n/a	n/a	n/a	n/a	n/a	n/a	n/a
1107589	PROB	n/a	LTP269	ltpFR	9	n/a	n/a	n/a	n/a	n/a	n/a	18	8	6	4	n/a	n/a	n/a	n/a	n/a
1109304	PROB	n/a	LTP269	ltpFR	9	n/a	n/a	n/a	n/a	n/a	n/a	12	1	5	6	n/a	n/a	n/a	n/a	n/a
1110918	PROB	n/a	LTP269	ltpFR	9	n/a	n/a	n/a	n/a	n/a	n/a	11	2	2	7	n/a	n/a	n/a	n/a	n/a
1112898	PROB	n/a	LTP269	ltpFR	9	n/a	n/a	n/a	n/a	n/a	n/a	11	1	8	2	n/a	n/a	n/a	n/a	n/a
1114578	PROB	n/a	LTP269	ltpFR	9	n/a	n/a	n/a	n/a	n/a	n/a	15	1	9	5	n/a	n/a	n/a	n/a	n/a
1122407	STOP	n/a	LTP269	ltpFR	9	n/a	n/a	n/a	n/a	n/a	n/a	n/a	n/a	n/a	n/a	n/a	n/a	n/a	n/a	n/a
1123532	WORD	wordpools/wasnorm_wordpool_less_exclusions.txt	LTP269	ltpFR	9	5	0	GAZELLE	628	n/a	1	n/a	0	0	0	1	0.412841796875	0.57763671875	upper	../fonts/amplitud.ttf
1126544	START	n/a	LTP269	ltpFR	9	n/a	n/a	n/a	n/a	n/a	n/a	n/a	n/a	n/a	n/a	n/a	n/a	n/a	n/a	n/a
1127592	PROB	n/a	LTP269	ltpFR	9	n/a	n/a	n/a	n/a	n/a	n/a	10	5	3	2	n/a	n/a	n/a	n/a	n/a
1129956	PROB	n/a	LTP269	ltpFR	9	n/a	n/a	n/a	n/a	n/a	n/a	19	7	4	8	n/a	n/a	n/a	n/a	n/a
1132769	PROB	n/a	LTP269	ltpFR	9	n/a	n/a	n/a	n/a	n/a	n/a	14	9	1	4	n/a	n/a	n/a	n/a	n/a
1136031	PROB	n/a	LTP269	ltpFR	9	n/a	n/a	n/a	n/a	n/a	n/a	13	4	4	5	n/a	n/a	n/a	n/a	n/a
1140108	PROB	n/a	LTP269	ltpFR	9	n/a	n/a	n/a	n/a	n/a	n/a	15	4	6	5	n/a	n/a	n/a	n/a	n/a
1142309	STOP	n/a	LTP269	ltpFR	9	n/a	n/a	n/a	n/a	n/a	n/a	n/a	n/a	n/a	n/a	n/a	n/a	n/a	n/a	n/a
1143668	WORD	wordpools/wasnorm_wordpool_less_exclusions.txt	LTP269	ltpFR	9	5	0	POOL	1103	n/a	1	n/a	0	0	0	1	0.412841796875	0.57763671875	upper	../fonts/amplitud.ttf
1146681	START	n/a	LTP269	ltpFR	9	n/a	n/a	n/a	n/a	n/a	n/a	n/a	n/a	n/a	n/a	n/a	n/a	n/a	n/a	n/a
1147896	PROB	n/a	LTP269	ltpFR	9	n/a	n/a	n/a	n/a	n/a	n/a	18	7	9	2	n/a	n/a	n/a	n/a	n/a
1155667	PROB	n/a	LTP269	ltpFR	9	n/a	n/a	n/a	n/a	n/a	n/a	19	5	5	9	n/a	n/a	n/a	n/a	n/a
1157664	PROB	n/a	LTP269	ltpFR	9	n/a	n/a	n/a	n/a	n/a	n/a	12	2	7	3	n/a	n/a	n/a	n/a	n/a
1159279	PROB	n/a	LTP269	ltpFR	9	n/a	n/a	n/a	n/a	n/a	n/a	22	7	9	6	n/a	n/a	n/a	n/a	n/a
1162141	STOP	n/a	LTP269	ltpFR	9	n/a	n/a	n/a	n/a	n/a	n/a	n/a	n/a	n/a	n/a	n/a	n/a	n/a	n/a	n/a
1163522	WORD	wordpools/wasnorm_wordpool_less_exclusions.txt	LTP269	ltpFR	9	5	0	RECEIPT	1173	n/a	0	n/a	0	0	0	1	0.412841796875	0.57763671875	upper	../fonts/amplitud.ttf
1166534	START	n/a	LTP269	ltpFR	9	n/a	n/a	n/a	n/a	n/a	n/a	n/a	n/a	n/a	n/a	n/a	n/a	n/a	n/a	n/a
1167384	PROB	n/a	LTP269	ltpFR	9	n/a	n/a	n/a	n/a	n/a	n/a	20	9	3	8	n/a	n/a	n/a	n/a	n/a
1169729	PROB	n/a	LTP269	ltpFR	9	n/a	n/a	n/a	n/a	n/a	n/a	15	5	6	4	n/a	n/a	n/a	n/a	n/a
1174124	PROB	n/a	LTP269	ltpFR	9	n/a	n/a	n/a	n/a	n/a	n/a	17	9	1	7	n/a	n/a	n/a	n/a	n/a
1176037	PROB	n/a	LTP269	ltpFR	9	n/a	n/a	n/a	n/a	n/a	n/a	17	8	2	7	n/a	n/a	n/a	n/a	n/a
1177584	PROB	n/a	LTP269	ltpFR	9	n/a	n/a	n/a	n/a	n/a	n/a	17	2	6	9	n/a	n/a	n/a	n/a	n/a
1181197	STOP	n/a	LTP269	ltpFR	9	n/a	n/a	n/a	n/a	n/a	n/a	n/a	n/a	n/a	n/a	n/a	n/a	n/a	n/a	n/a
1183393	WORD	wordpools/wasnorm_wordpool_less_exclusions.txt	LTP269	ltpFR	9	5	1	TROUSERS	1510	n/a	0	n/a	0	0	0	0	0.5869140625	0.422607421875	lower	../fonts/zerothre.ttf
1186405	START	n/a	LTP269	ltpFR	9	n/a	n/a	n/a	n/a	n/a	n/a	n/a	n/a	n/a	n/a	n/a	n/a	n/a	n/a	n/a
1187254	PROB	n/a	LTP269	ltpFR	9	n/a	n/a	n/a	n/a	n/a	n/a	13	4	2	7	n/a	n/a	n/a	n/a	n/a
1191630	PROB	n/a	LTP269	ltpFR	9	n/a	n/a	n/a	n/a	n/a	n/a	20	8	6	6	n/a	n/a	n/a	n/a	n/a
1193844	PROB	n/a	LTP269	ltpFR	9	n/a	n/a	n/a	n/a	n/a	n/a	19	6	5	8	n/a	n/a	n/a	n/a	n/a
1198055	PROB	n/a	LTP269	ltpFR	9	n/a	n/a	n/a	n/a	n/a	n/a	18	9	1	8	n/a	n/a	n/a	n/a	n/a
1202404	STOP	n/a	LTP269	ltpFR	9	n/a	n/a	n/a	n/a	n/a	n/a	n/a	n/a	n/a	n/a	n/a	n/a	n/a	n/a	n/a
1203545	WORD	wordpools/wasnorm_wordpool_less_exclusions.txt	LTP269	ltpFR	9	5	1	BUTTON	207	n/a	0	n/a	0	0	0	0	0.5869140625	0.422607421875	lower	../fonts/zerothre.ttf
1206574	START	n/a	LTP269	ltpFR	9	n/a	n/a	n/a	n/a	n/a	n/a	n/a	n/a	n/a	n/a	n/a	n/a	n/a	n/a	n/a
1207773	PROB	n/a	LTP269	ltpFR	9	n/a	n/a	n/a	n/a	n/a	n/a	21	4	8	9	n/a	n/a	n/a	n/a	n/a
1211135	PROB	n/a	LTP269	ltpFR	9	n/a	n/a	n/a	n/a	n/a	n/a	8	5	1	2	n/a	n/a	n/a	n/a	n/a
1214695	PROB	n/a	LTP269	ltpFR	9	n/a	n/a	n/a	n/a	n/a	n/a	24	9	6	9	n/a	n/a	n/a	n/a	n/a
1218473	PROB	n/a	LTP269	ltpFR	9	n/a	n/a	n/a	n/a	n/a	n/a	17	8	5	4	n/a	n/a	n/a	n/a	n/a
1221861	STOP	n/a	LTP269	ltpFR	9	n/a	n/a	n/a	n/a	n/a	n/a	n/a	n/a	n/a	n/a	n/a	n/a	n/a	n/a	n/a
1224481	REC_START	n/a	LTP269	ltpFR	9	5	n/a	n/a	n/a	n/a	n/a	n/a	0	0	0	n/a	n/a	n/a	n/a	n/a
1230362	REC_WORD	wordpools/wasnorm_wordpool_less_exclusions.txt	LTP269	ltpFR	9	5	0	SCALLOP	1242	n/a	0	n/a	0	0	0	n/a	n/a	n/a	n/a	n/a
1235531	REC_WORD	wordpools/wasnorm_wordpool_less_exclusions.txt	LTP269	ltpFR	9	5	0	GAZELLE	628	n/a	1	n/a	0	0	0	n/a	n/a	n/a	n/a	n/a
1309687	START	n/a	LTP269	ltpFR	9	n/a	n/a	n/a	n/a	n/a	n/a	n/a	n/a	n/a	n/a	n/a	n/a	n/a	n/a	n/a
1311202	PROB	n/a	LTP269	ltpFR	9	n/a	n/a	n/a	n/a	n/a	n/a	18	2	8	8	n/a	n/a	n/a	n/a	n/a
1312800	PROB	n/a	LTP269	ltpFR	9	n/a	n/a	n/a	n/a	n/a	n/a	15	2	6	7	n/a	n/a	n/a	n/a	n/a
1314863	PROB	n/a	LTP269	ltpFR	9	n/a	n/a	n/a	n/a	n/a	n/a	17	9	7	1	n/a	n/a	n/a	n/a	n/a
1317604	STOP	n/a	LTP269	ltpFR	9	n/a	n/a	n/a	n/a	n/a	n/a	n/a	n/a	n/a	n/a	n/a	n/a	n/a	n/a	n/a
1318657	WORD	wordpools/wasnorm_wordpool_less_exclusions.txt	LTP269	ltpFR	9	6	0	HIKER	708	n/a	1	n/a	0	0	0	1	0.412841796875	0.57763671875	upper	../fonts/amplitud.ttf
1321669	START	n/a	LTP269	ltpFR	9	n/a	n/a	n/a	n/a	n/a	n/a	n/a	n/a	n/a	n/a	n/a	n/a	n/a	n/a	n/a
1322852	PROB	n/a	LTP269	ltpFR	9	n/a	n/a	n/a	n/a	n/a	n/a	24	6	9	9	n/a	n/a	n/a	n/a	n/a
1325381	PROB	n/a	LTP269	ltpFR	9	n/a	n/a	n/a	n/a	n/a	n/a	16	6	1	9	n/a	n/a	n/a	n/a	n/a
1329669	STOP	n/a	LTP269	ltpFR	9	n/a	n/a	n/a	n/a	n/a	n/a	n/a	n/a	n/a	n/a	n/a	n/a	n/a	n/a	n/a
1330889	WORD	wordpools/wasnorm_wordpool_less_exclusions.txt	LTP269	ltpFR	9	6	0	PEACH	1031	n/a	0	n/a	0	0	0	1	0.412841796875	0.57763671875	upper	../fonts/amplitud.ttf
1333902	START	n/a	LTP269	ltpFR	9	n/a	n/a	n/a	n/a	n/a	n/a	n/a	n/a	n/a	n/a	n/a	n/a	n/a	n/a	n/a
1334749	PROB	n/a	LTP269	ltpFR	9	n/a	n/a	n/a	n/a	n/a	n/a	9	4	3	2	n/a	n/a	n/a	n/a	n/a
1336547	PROB	n/a	LTP269	ltpFR	9	n/a	n/a	n/a	n/a	n/a	n/a	17	3	6	8	n/a	n/a	n/a	n/a	n/a
1339011	PROB	n/a	LTP269	ltpFR	9	n/a	n/a	n/a	n/a	n/a	n/a	17	5	7	5	n/a	n/a	n/a	n/a	n/a
1340620	STOP	n/a	LTP269	ltpFR	9	n/a	n/a	n/a	n/a	n/a	n/a	n/a	n/a	n/a	n/a	n/a	n/a	n/a	n/a	n/a
1342772	WORD	wordpools/wasnorm_wordpool_less_exclusions.txt	LTP269	ltpFR	9	6	1	CITRUS	313	n/a	1	n/a	0	0	0	0	0.5869140625	0.422607421875	lower	../fonts/zerothre.ttf
1345784	START	n/a	LTP269	ltpFR	9	n/a	n/a	n/a	n/a	n/a	n/a	n/a	n/a	n/a	n/a	n/a	n/a	n/a	n/a	n/a
1346782	PROB	n/a	LTP269	ltpFR	9	n/a	n/a	n/a	n/a	n/a	n/a	13	7	2	4	n/a	n/a	n/a	n/a	n/a
1349577	PROB	n/a	LTP269	ltpFR	9	n/a	n/a	n/a	n/a	n/a	n/a	16	6	8	2	n/a	n/a	n/a	n/a	n/a
1350993	PROB	n/a	LTP269	ltpFR	9	n/a	n/a	n/a	n/a	n/a	n/a	15	4	3	8	n/a	n/a	n/a	n/a	n/a
1353069	STOP	n/a	LTP269	ltpFR	9	n/a	n/a	n/a	n/a	n/a	n/a	n/a	n/a	n/a	n/a	n/a	n/a	n/a	n/a	n/a
1355003	WORD	wordpools/wasnorm_wordpool_less_exclusions.txt	LTP269	ltpFR	9	6	1	PASTRY	1022	n/a	n/a	n/a	0	0	0	0	0.5869140625	0.422607421875	lower	../fonts/zerothre.ttf
1358032	SLOW_MSG	n/a	LTP269	ltpFR	9	6	n/a	n/a	n/a	n/a	n/a	n/a	0	0	0	n/a	n/a	n/a	n/a	n/a
1359563	START	n/a	LTP269	ltpFR	9	n/a	n/a	n/a	n/a	n/a	n/a	n/a	n/a	n/a	n/a	n/a	n/a	n/a	n/a	n/a
1360577	PROB	n/a	LTP269	ltpFR	9	n/a	n/a	n/a	n/a	n/a	n/a	17	4	6	7	n/a	n/a	n/a	n/a	n/a
1362209	PROB	n/a	LTP269	ltpFR	9	n/a	n/a	n/a	n/a	n/a	n/a	17	3	7	7	n/a	n/a	n/a	n/a	n/a
1364389	PROB	n/a	LTP269	ltpFR	9	n/a	n/a	n/a	n/a	n/a	n/a	19	6	4	9	n/a	n/a	n/a	n/a	n/a
1366213	STOP	n/a	LTP269	ltpFR	9	n/a	n/a	n/a	n/a	n/a	n/a	n/a	n/a	n/a	n/a	n/a	n/a	n/a	n/a	n/a
1368616	WORD	wordpools/wasnorm_wordpool_less_exclusions.txt	LTP269	ltpFR	9	6	1	DINER	467	n/a	0	n/a	0	0	0	0	0.5869140625	0.422607421875	lower	../fonts/zerothre.ttf
1371628	START	n/a	LTP269	ltpFR	9	n/a	n/a	n/a	n/a	n/a	n/a	n/a	n/a	n/a	n/a	n/a	n/a	n/a	n/a	n/a
1372827	PROB	n/a	LTP269	ltpFR	9	n/a	n/a	n/a	n/a	n/a	n/a	18	2	7	9	n/a	n/a	n/a	n/a	n/a
1377702	PROB	n/a	LTP269	ltpFR	9	n/a	n/a	n/a	n/a	n/a	n/a	12	2	9	1	n/a	n/a	n/a	n/a	n/a
1379420	STOP	n/a	LTP269	ltpFR	9	n/a	n/a	n/a	n/a	n/a	n/a	n/a	n/a	n/a	n/a	n/a	n/a	n/a	n/a	n/a
1380564	WORD	wordpools/wasnorm_wordpool_less_exclusions.txt	LTP269	ltpFR	9	6	1	CHILD	299	n/a	1	n/a	0	0	0	0	0.5869140625	0.422607421875	lower	../fonts/zerothre.ttf
1383577	START	n/a	LTP269	ltpFR	9	n/a	n/a	n/a	n/a	n/a	n/a	n/a	n/a	n/a	n/a	n/a	n/a	n/a	n/a	n/a
1384642	PROB	n/a	LTP269	ltpFR	9	n/a	n/a	n/a	n/a	n/a	n/a	11	4	1	6	n/a	n/a	n/a	n/a	n/a
1386472	PROB	n/a	LTP269	ltpFR	9	n/a	n/a	n/a	n/a	n/a	n/a	16	1	8	7	n/a	n/a	n/a	n/a	n/a
1388453	PROB	n/a	LTP269	ltpFR	9	n/a	n/a	n/a	n/a	n/a	n/a	13	3	6	4	n/a	n/a	n/a	n/a	n/a
1390221	STOP	n/a	LTP269	ltpFR	9	n/a	n/a	n/a	n/a	n/a	n/a	n/a	n/a	n/a	n/a	n/a	n/a	n/a	n/a	n/a
1392613	WORD	wordpools/wasnorm_wordpool_less_exclusions.txt	LTP269	ltpFR	9	6	0	SCOUT	1252	n/a	1	n/a	0	0	0	1	0.412841796875	0.57763671875	upper	../fonts/amplitud.ttf
1395626	START	n/a	LTP269	ltpFR	9	n/a	n/a	n/a	n/a	n/a	n/a	n/a	n/a	n/a	n/a	n/a	n/a	n/a	n/a	n/a
1396824	PROB	n/a	LTP269	ltpFR	9	n/a	n/a	n/a	n/a	n/a	n/a	11	2	1	8	n/a	n/a	n/a	n/a	n/a
1398272	PROB	n/a	LTP269	ltpFR	9	n/a	n/a	n/a	n/a	n/a	n/a	16	5	4	7	n/a	n/a	n/a	n/a	n/a
1400518	PROB	n/a	LTP269	ltpFR	9	n/a	n/a	n/a	n/a	n/a	n/a	16	4	5	7	n/a	n/a	n/a	n/a	n/a
1402861	STOP	n/a	LTP269	ltpFR	9	n/a	n/a	n/a	n/a	n/a	n/a	n/a	n/a	n/a	n/a	n/a	n/a	n/a	n/a	n/a
1404812	WORD	wordpools/wasnorm_wordpool_less_exclusions.txt	LTP269	ltpFR	9	6	0	CLOWN	330	n/a	1	n/a	0	0	0	1	0.412841796875	0.57763671875	upper	../fonts/amplitud.ttf
1407825	START	n/a	LTP269	ltpFR	9	n/a	n/a	n/a	n/a	n/a	n/a	n/a	n/a	n/a	n/a	n/a	n/a	n/a	n/a	n/a
1408773	PROB	n/a	LTP269	ltpFR	9	n/a	n/a	n/a	n/a	n/a	n/a	18	6	9	3	n/a	n/a	n/a	n/a	n/a
1411852	PROB	n/a	LTP269	ltpFR	9	n/a	n/a	n/a	n/a	n/a	n/a	18	6	3	9	n/a	n/a	n/a	n/a	n/a
1414620	STOP	n/a	LTP269	ltpFR	9	n/a	n/a	n/a	n/a	n/a	n/a	n/a	n/a	n/a	n/a	n/a	n/a	n/a	n/a	n/a
1417027	WORD	wordpools/wasnorm_wordpool_less_exclusions.txt	LTP269	ltpFR	9	6	0	BLACKBERRY	132	n/a	0	n/a	0	0	0	1	0.412841796875	0.57763671875	upper	../fonts/amplitud.ttf
1420040	START	n/a	LTP269	ltpFR	9	n/a	n/a	n/a	n/a	n/a	n/a	n/a	n/a	n/a	n/a	n/a	n/a	n/a	n/a	n/a
1421055	PROB	n/a	LTP269	ltpFR	9	n/a	n/a	n/a	n/a	n/a	n/a	16	4	9	3	n/a	n/a	n/a	n/a	n/a
1422618	PROB	n/a	LTP269	ltpFR	9	n/a	n/a	n/a	n/a	n/a	n/a	15	2	8	5	n/a	n/a	n/a	n/a	n/a
1424999	PROB	n/a	LTP269	ltpFR	9	n/a	n/a	n/a	n/a	n/a	n/a	15	3	9	3	n/a	n/a	n/a	n/a	n/a
1427245	STOP	n/a	LTP269	ltpFR	9	n/a	n/a	n/a	n/a	n/a	n/a	n/a	n/a	n/a	n/a	n/a	n/a	n/a	n/a	n/a
1429226	WORD	wordpools/wasnorm_wordpool_less_exclusions.txt	LTP269	ltpFR	9	6	1	STONE	1385	n/a	0	n/a	0	0	0	0	0.5869140625	0.422607421875	lower	../fonts/zerothre.ttf
1432239	START	n/a	LTP269	ltpFR	9	n/a	n/a	n/a	n/a	n/a	n/a	n/a	n/a	n/a	n/a	n/a	n/a	n/a	n/a	n/a
1433270	PROB	n/a	LTP269	ltpFR	9	n/a	n/a	n/a	n/a	n/a	n/a	10	6	1	3	n/a	n/a	n/a	n/a	n/a
1435250	PROB	n/a	LTP269	ltpFR	9	n/a	n/a	n/a	n/a	n/a	n/a	17	2	7	8	n/a	n/a	n/a	n/a	n/a
1439989	STOP	n/a	LTP269	ltpFR	9	n/a	n/a	n/a	n/a	n/a	n/a	n/a	n/a	n/a	n/a	n/a	n/a	n/a	n/a	n/a
1441108	WORD	wordpools/wasnorm_wordpool_less_exclusions.txt	LTP269	ltpFR	9	6	1	PUPPY	1144	n/a	1	n/a	0	0	0	0	0.5869140625	0.422607421875	lower	../fonts/zerothre.ttf
1444121	START	n/a	LTP269	ltpFR	9	n/a	n/a	n/a	n/a	n/a	n/a	n/a	n/a	n/a	n/a	n/a	n/a	n/a	n/a	n/a
1445202	PROB	n/a	LTP269	ltpFR	9	n/a	n/a	n/a	n/a	n/a	n/a	17	8	8	1	n/a	n/a	n/a	n/a	n/a
1447998	PROB	n/a	LTP269	ltpFR	9	n/a	n/a	n/a	n/a	n/a	n/a	13	3	6	4	n/a	n/a	n/a	n/a	n/a
1452121	STOP	n/a	LTP269	ltpFR	9	n/a	n/a	n/a	n/a	n/a	n/a	n/a	n/a	n/a	n/a	n/a	n/a	n/a	n/a	n/a
1453090	WORD	wordpools/wasnorm_wordpool_less_exclusions.txt	LTP269	ltpFR	9	6	1	SIDING	1304	n/a	0	n/a	0	0	0	0	0.5869140625	0.422607421875	lower	../fonts/zerothre.ttf
1456103	START	n/a	LTP269	ltpFR	9	n/a	n/a	n/a	n/a	n/a	n/a	n/a	n/a	n/a	n/a	n/a	n/a	n/a	n/a	n/a
1456951	PROB	n/a	LTP269	ltpFR	9	n/a	n/a	n/a	n/a	n/a	n/a	16	8	9	9	n/a	n/a	n/a	n/a	n/a
1461095	PROB	n/a	LTP269	ltpFR	9	n/a	n/a	n/a	n/a	n/a	n/a	19	2	8	9	n/a	n/a	n/a	n/a	n/a
1463797	STOP	n/a	LTP269	ltpFR	9	n/a	n/a	n/a	n/a	n/a	n/a	n/a	n/a	n/a	n/a	n/a	n/a	n/a	n/a	n/a
1465289	WORD	wordpools/wasnorm_wordpool_less_exclusions.txt	LTP269	ltpFR	9	6	1	WARDROBE	1587	n/a	0	n/a	0	0	0	0	0.5869140625	0.422607421875	lower	../fonts/zerothre.ttf
1468301	START	n/a	LTP269	ltpFR	9	n/a	n/a	n/a	n/a	n/a	n/a	n/a	n/a	n/a	n/a	n/a	n/a	n/a	n/a	n/a
1469133	PROB	n/a	LTP269	ltpFR	9	n/a	n/a	n/a	n/a	n/a	n/a	24	8	7	9	n/a	n/a	n/a	n/a	n/a
1471879	PROB	n/a	LTP269	ltpFR	9	n/a	n/a	n/a	n/a	n/a	n/a	21	5	8	8	n/a	n/a	n/a	n/a	n/a
1474925	STOP	n/a	LTP269	ltpFR	9	n/a	n/a	n/a	n/a	n/a	n/a	n/a	n/a	n/a	n/a	n/a	n/a	n/a	n/a	n/a
1477404	WORD	wordpools/wasnorm_wordpool_less_exclusions.txt	LTP269	ltpFR	9	6	0	RUBY	1214	n/a	0	n/a	0	0	0	1	0.412841796875	0.57763671875	upper	../fonts/amplitud.ttf
1480416	START	n/a	LTP269	ltpFR	9	n/a	n/a	n/a	n/a	n/a	n/a	n/a	n/a	n/a	n/a	n/a	n/a	n/a	n/a	n/a
1481480	PROB	n/a	LTP269	ltpFR	9	n/a	n/a	n/a	n/a	n/a	n/a	6	4	1	1	n/a	n/a	n/a	n/a	n/a
1483828	PROB	n/a	LTP269	ltpFR	9	n/a	n/a	n/a	n/a	n/a	n/a	14	4	7	5	n/a	n/a	n/a	n/a	n/a
1488415	STOP	n/a	LTP269	ltpFR	9	n/a	n/a	n/a	n/a	n/a	n/a	n/a	n/a	n/a	n/a	n/a	n/a	n/a	n/a	n/a
1489320	WORD	wordpools/wasnorm_wordpool_less_exclusions.txt	LTP269	ltpFR	9	6	0	HOUND	724	n/a	1	n/a	0	0	0	1	0.412841796875	0.57763671875	upper	../fonts/amplitud.ttf
1492332	START	n/a	LTP269	ltpFR	9	n/a	n/a	n/a	n/a	n/a	n/a	n/a	n/a	n/a	n/a	n/a	n/a	n/a	n/a	n/a
1493214	PROB	n/a	LTP269	ltpFR	9	n/a	n/a	n/a	n/a	n/a	n/a	17	3	7	6	n/a	n/a	n/a	n/a	n/a
1500332	STOP	n/a	LTP269	ltpFR	9	n/a	n/a	n/a	n/a	n/a	n/a	n/a	n/a	n/a	n/a	n/a	n/a	n/a	n/a	n/a
1501168	WORD	wordpools/wasnorm_wordpool_less_exclusions.txt	LTP269	ltpFR	9	6	0	GYMNAST	675	n/a	1	n/a	0	0	0	1	0.412841796875	0.57763671875	upper	../fonts/amplitud.ttf
1504181	START	n/a	LTP269	ltpFR	9	n/a	n/a	n/a	n/a	n/a	n/a	n/a	n/a	n/a	n/a	n/a	n/a	n/a	n/a	n/a
1505196	PROB	n/a	LTP269	ltpFR	9	n/a	n/a	n/a	n/a	n/a	n/a	12	6	4	2	n/a	n/a	n/a	n/a	n/a
1506676	PROB	n/a	LTP269	ltpFR	9	n/a	n/a	n/a	n/a	n/a	n/a	11	6	7	1	n/a	n/a	n/a	n/a	n/a
1509206	PROB	n/a	LTP269	ltpFR	9	n/a	n/a	n/a	n/a	n/a	n/a	14	1	7	6	n/a	n/a	n/a	n/a	n/a
1510957	STOP	n/a	LTP269	ltpFR	9	n/a	n/a	n/a	n/a	n/a	n/a	n/a	n/a	n/a	n/a	n/a	n/a	n/a	n/a	n/a
1514067	REC_START	n/a	LTP269	ltpFR	9	6	n/a	n/a	n/a	n/a	n/a	n/a	0	0	0	n/a	n/a	n/a	n/a	n/a
1516867	REC_WORD	wordpools/wasnorm_wordpool_less_exclusions.txt	LTP269	ltpFR	9	6	0	GYMNAST	675	n/a	1	n/a	0	0	0	n/a	n/a	n/a	n/a	n/a
1519722	REC_WORD	wordpools/wasnorm_wordpool_less_exclusions.txt	LTP269	ltpFR	9	6	0	BLACKBERRY	132	n/a	0	n/a	0	0	0	n/a	n/a	n/a	n/a	n/a
1532001	REC_WORD	wordpools/wasnorm_wordpool_less_exclusions.txt	LTP269	ltpFR	9	6	1	CHILD	299	n/a	1	n/a	0	0	0	n/a	n/a	n/a	n/a	n/a
1537567	REC_WORD	wordpools/wasnorm_wordpool_less_exclusions.txt	LTP269	ltpFR	9	6	n/a	ROCK	1201	n/a	n/a	n/a	0	0	0	n/a	n/a	n/a	n/a	n/a
1589669	REST_REWET	n/a	LTP269	ltpFR	9	6	n/a	n/a	n/a	n/a	n/a	n/a	0	0	0	n/a	n/a	n/a	n/a	n/a
2049200	WORD	wordpools/wasnorm_wordpool_less_exclusions.txt	LTP269	ltpFR	9	7	1	HAM	678	n/a	0	n/a	0	0	0	0	0.5869140625	0.422607421875	lower	../fonts/zerothre.ttf
2053327	WORD	wordpools/wasnorm_wordpool_less_exclusions.txt	LTP269	ltpFR	9	7	1	CHEF	290	n/a	1	n/a	0	0	0	0	0.5869140625	0.422607421875	lower	../fonts/zerothre.ttf
2057238	WORD	wordpools/wasnorm_wordpool_less_exclusions.txt	LTP269	ltpFR	9	7	1	GUARDIAN	668	n/a	1	n/a	0	0	0	0	0.5869140625	0.422607421875	lower	../fonts/zerothre.ttf
2061132	WORD	wordpools/wasnorm_wordpool_less_exclusions.txt	LTP269	ltpFR	9	7	1	PURSE	1145	n/a	0	n/a	0	0	0	0	0.5869140625	0.422607421875	lower	../fonts/zerothre.ttf
2065209	WORD	wordpools/wasnorm_wordpool_less_exclusions.txt	LTP269	ltpFR	9	7	1	CRITIC	410	n/a	1	n/a	0	0	0	0	0.5869140625	0.422607421875	lower	../fonts/zerothre.ttf
2069403	WORD	wordpools/wasnorm_wordpool_less_exclusions.txt	LTP269	ltpFR	9	7	1	PERCH	1048	n/a	1	n/a	0	0	0	0	0.5869140625	0.422607421875	lower	../fonts/zerothre.ttf
2073579	WORD	wordpools/wasnorm_wordpool_less_exclusions.txt	LTP269	ltpFR	9	7	1	HANDBAG	684	n/a	0	n/a	0	0	0	0	0.5869140625	0.422607421875	lower	../fonts/zerothre.ttf
2077774	WORD	wordpools/wasnorm_wordpool_less_exclusions.txt	LTP269	ltpFR	9	7	1	SPRINKLE	1359	n/a	0	n/a	0	0	0	0	0.5869140625	0.422607421875	lower	../fonts/zerothre.ttf
2081835	WORD	wordpools/wasnorm_wordpool_less_exclusions.txt	LTP269	ltpFR	9	7	1	GRAPE	654	n/a	0	n/a	0	0	0	0	0.5869140625	0.422607421875	lower	../fonts/zerothre.ttf
2086045	WORD	wordpools/wasnorm_wordpool_less_exclusions.txt	LTP269	ltpFR	9	7	1	VINE	1568	n/a	1	n/a	0	0	0	0	0.5869140625	0.422607421875	lower	../fonts/zerothre.ttf
2090222	WORD	wordpools/wasnorm_wordpool_less_exclusions.txt	LTP269	ltpFR	9	7	1	SNAKE	1333	n/a	1	n/a	0	0	0	0	0.5869140625	0.422607421875	lower	../fonts/zerothre.ttf
2094366	WORD	wordpools/wasnorm_wordpool_less_exclusions.txt	LTP269	ltpFR	9	7	1	BATHTUB	100	n/a	0	n/a	0	0	0	0	0.5869140625	0.422607421875	lower	../fonts/zerothre.ttf
2098575	WORD	wordpools/wasnorm_wordpool_less_exclusions.txt	LTP269	ltpFR	9	7	1	TOILET	1475	n/a	0	n/a	0	0	0	0	0.5869140625	0.422607421875	lower	../fonts/zerothre.ttf
2102803	WORD	wordpools/wasnorm_wordpool_less_exclusions.txt	LTP269	ltpFR	9	7	1	NOSE	957	n/a	0	n/a	0	0	0	0	0.5869140625	0.422607421875	lower	../fonts/zerothre.ttf
2106663	WORD	wordpools/wasnorm_wordpool_less_exclusions.txt	LTP269	ltpFR	9	7	1	FAMILY	550	n/a	1	n/a	0	0	0	0	0.5869140625	0.422607421875	lower	../fonts/zerothre.ttf
2110808	WORD	wordpools/wasnorm_wordpool_less_exclusions.txt	LTP269	ltpFR	9	7	1	STREAM	1392	n/a	0	n/a	0	0	0	0	0.5869140625	0.422607421875	lower	../fonts/zerothre.ttf
2116732	REC_START	n/a	LTP269	ltpFR	9	7	n/a	n/a	n/a	n/a	n/a	n/a	0	0	0	n/a	n/a	n/a	n/a	n/a
2117407	REC_WORD	wordpools/wasnorm_wordpool_less_exclusions.txt	LTP269	ltpFR	9	7	1	STREAM	1392	n/a	0	n/a	0	0	0	n/a	n/a	n/a	n/a	n/a
2118561	REC_WORD	wordpools/wasnorm_wordpool_less_exclusions.txt	LTP269	ltpFR	9	7	1	FAMILY	550	n/a	1	n/a	0	0	0	n/a	n/a	n/a	n/a	n/a
2124707	REC_WORD	wordpools/wasnorm_wordpool_less_exclusions.txt	LTP269	ltpFR	9	7	1	CHEF	290	n/a	1	n/a	0	0	0	n/a	n/a	n/a	n/a	n/a
2133862	REC_WORD	wordpools/wasnorm_wordpool_less_exclusions.txt	LTP269	ltpFR	9	7	1	PERCH	1048	n/a	1	n/a	0	0	0	n/a	n/a	n/a	n/a	n/a
2135430	REC_WORD	wordpools/wasnorm_wordpool_less_exclusions.txt	LTP269	ltpFR	9	7	1	PURSE	1145	n/a	0	n/a	0	0	0	n/a	n/a	n/a	n/a	n/a
2137121	REC_WORD	wordpools/wasnorm_wordpool_less_exclusions.txt	LTP269	ltpFR	9	7	1	HANDBAG	684	n/a	0	n/a	0	0	0	n/a	n/a	n/a	n/a	n/a
2139686	REC_WORD	wordpools/wasnorm_wordpool_less_exclusions.txt	LTP269	ltpFR	9	7	1	GUARDIAN	668	n/a	1	n/a	0	0	0	n/a	n/a	n/a	n/a	n/a
2142450	REC_WORD	wordpools/wasnorm_wordpool_less_exclusions.txt	LTP269	ltpFR	9	7	1	TEAM	1441	n/a	0	n/a	0	0	0	n/a	n/a	n/a	n/a	n/a
2197428	WORD	wordpools/wasnorm_wordpool_less_exclusions.txt	LTP269	ltpFR	9	8	1	TANK	1432	n/a	0	n/a	0	0	0	0	0.5869140625	0.422607421875	lower	../fonts/zerothre.ttf
2201455	WORD	wordpools/wasnorm_wordpool_less_exclusions.txt	LTP269	ltpFR	9	8	1	LIEUTENANT	818	n/a	1	n/a	0	0	0	0	0.5869140625	0.422607421875	lower	../fonts/zerothre.ttf
2205549	WORD	wordpools/wasnorm_wordpool_less_exclusions.txt	LTP269	ltpFR	9	8	1	CORPORATION	382	n/a	0	n/a	0	0	0	0	0.5869140625	0.422607421875	lower	../fonts/zerothre.ttf
2209426	WORD	wordpools/wasnorm_wordpool_less_exclusions.txt	LTP269	ltpFR	9	8	1	ATTIC	56	n/a	0	n/a	0	0	0	0	0.5869140625	0.422607421875	lower	../fonts/zerothre.ttf
2213305	WORD	wordpools/wasnorm_wordpool_less_exclusions.txt	LTP269	ltpFR	9	8	1	TRAITOR	1495	n/a	1	n/a	0	0	0	0	0.5869140625	0.422607421875	lower	../fonts/zerothre.ttf
2217149	WORD	wordpools/wasnorm_wordpool_less_exclusions.txt	LTP269	ltpFR	9	8	1	MOWER	928	n/a	0	n/a	0	0	0	0	0.5869140625	0.422607421875	lower	../fonts/zerothre.ttf
2221010	WORD	wordpools/wasnorm_wordpool_less_exclusions.txt	LTP269	ltpFR	9	8	1	SILVERWARE	1308	n/a	0	n/a	0	0	0	0	0.5869140625	0.422607421875	lower	../fonts/zerothre.ttf
2224904	WORD	wordpools/wasnorm_wordpool_less_exclusions.txt	LTP269	ltpFR	9	8	1	CAFE	216	n/a	0	n/a	0	0	0	0	0.5869140625	0.422607421875	lower	../fonts/zerothre.ttf
2228915	WORD	wordpools/wasnorm_wordpool_less_exclusions.txt	LTP269	ltpFR	9	8	1	QUARTER	1148	n/a	0	n/a	0	0	0	0	0.5869140625	0.422607421875	lower	../fonts/zerothre.ttf
2232959	WORD	wordpools/wasnorm_wordpool_less_exclusions.txt	LTP269	ltpFR	9	8	1	SCAPEGOAT	1244	n/a	0	n/a	0	0	0	0	0.5869140625	0.422607421875	lower	../fonts/zerothre.ttf
2236787	WORD	wordpools/wasnorm_wordpool_less_exclusions.txt	LTP269	ltpFR	9	8	1	GENTLEMAN	631	n/a	1	n/a	0	0	0	0	0.5869140625	0.422607421875	lower	../fonts/zerothre.ttf
2240814	WORD	wordpools/wasnorm_wordpool_less_exclusions.txt	LTP269	ltpFR	9	8	1	CARPENTER	246	n/a	1	n/a	0	0	0	0	0.5869140625	0.422607421875	lower	../fonts/zerothre.ttf
2245008	WORD	wordpools/wasnorm_wordpool_less_exclusions.txt	LTP269	ltpFR	9	8	1	STUMP	1396	n/a	0	n/a	0	0	0	0	0.5869140625	0.422607421875	lower	../fonts/zerothre.ttf
2249185	WORD	wordpools/wasnorm_wordpool_less_exclusions.txt	LTP269	ltpFR	9	8	1	ROOT	1210	n/a	1	n/a	0	0	0	0	0.5869140625	0.422607421875	lower	../fonts/zerothre.ttf
2253145	WORD	wordpools/wasnorm_wordpool_less_exclusions.txt	LTP269	ltpFR	9	8	1	BASEMENT	94	n/a	0	n/a	0	0	0	0	0.5869140625	0.422607421875	lower	../fonts/zerothre.ttf
2257090	WORD	wordpools/wasnorm_wordpool_less_exclusions.txt	LTP269	ltpFR	9	8	1	BOUQUET	157	n/a	0	n/a	0	0	0	0	0.5869140625	0.422607421875	lower	../fonts/zerothre.ttf
2260102	START	n/a	LTP269	ltpFR	9	n/a	n/a	n/a	n/a	n/a	n/a	n/a	n/a	n/a	n/a	n/a	n/a	n/a	n/a	n/a
2261050	PROB	n/a	LTP269	ltpFR	9	n/a	n/a	n/a	n/a	n/a	n/a	17	4	5	9	n/a	n/a	n/a	n/a	n/a
2264694	PROB	n/a	LTP269	ltpFR	9	n/a	n/a	n/a	n/a	n/a	n/a	17	3	7	7	n/a	n/a	n/a	n/a	n/a
2268101	STOP	n/a	LTP269	ltpFR	9	n/a	n/a	n/a	n/a	n/a	n/a	n/a	n/a	n/a	n/a	n/a	n/a	n/a	n/a	n/a
2269954	REC_START	n/a	LTP269	ltpFR	9	8	n/a	n/a	n/a	n/a	n/a	n/a	0	0	0	n/a	n/a	n/a	n/a	n/a
2272543	REC_WORD	wordpools/wasnorm_wordpool_less_exclusions.txt	LTP269	ltpFR	9	8	1	BOUQUET	157	n/a	0	n/a	0	0	0	n/a	n/a	n/a	n/a	n/a
2277939	REC_WORD	wordpools/wasnorm_wordpool_less_exclusions.txt	LTP269	ltpFR	9	8	1	TANK	1432	n/a	0	n/a	0	0	0	n/a	n/a	n/a	n/a	n/a
2278736	REC_WORD	wordpools/wasnorm_wordpool_less_exclusions.txt	LTP269	ltpFR	9	8	1	LIEUTENANT	818	n/a	1	n/a	0	0	0	n/a	n/a	n/a	n/a	n/a
2350632	WORD	wordpools/wasnorm_wordpool_less_exclusions.txt	LTP269	ltpFR	9	9	1	GATE	625	n/a	0	n/a	0	0	0	0	0.5869140625	0.422607421875	lower	../fonts/zerothre.ttf
2354493	WORD	wordpools/wasnorm_wordpool_less_exclusions.txt	LTP269	ltpFR	9	9	1	RAISIN	1163	n/a	0	n/a	0	0	0	0	0.5869140625	0.422607421875	lower	../fonts/zerothre.ttf
2358537	WORD	wordpools/wasnorm_wordpool_less_exclusions.txt	LTP269	ltpFR	9	9	1	MISTER	901	n/a	1	n/a	0	0	0	0	0.5869140625	0.422607421875	lower	../fonts/zerothre.ttf
2362698	WORD	wordpools/wasnorm_wordpool_less_exclusions.txt	LTP269	ltpFR	9	9	1	CASHIER	254	n/a	1	n/a	0	0	0	0	0.5869140625	0.422607421875	lower	../fonts/zerothre.ttf
2366892	WORD	wordpools/wasnorm_wordpool_less_exclusions.txt	LTP269	ltpFR	9	9	0	CAPITAL	238	n/a	1	n/a	0	0	0	1	0.412841796875	0.57763671875	upper	../fonts/amplitud.ttf
2370953	WORD	wordpools/wasnorm_wordpool_less_exclusions.txt	LTP269	ltpFR	9	9	0	CHIPMUNK	304	n/a	0	n/a	0	0	0	1	0.412841796875	0.57763671875	upper	../fonts/amplitud.ttf
2374797	WORD	wordpools/wasnorm_wordpool_less_exclusions.txt	LTP269	ltpFR	9	9	1	BEAVER	109	n/a	1	n/a	0	0	0	0	0.5869140625	0.422607421875	lower	../fonts/zerothre.ttf
2378707	WORD	wordpools/wasnorm_wordpool_less_exclusions.txt	LTP269	ltpFR	9	9	1	EMERALD	528	n/a	0	n/a	0	0	0	0	0.5869140625	0.422607421875	lower	../fonts/zerothre.ttf
2382535	WORD	wordpools/wasnorm_wordpool_less_exclusions.txt	LTP269	ltpFR	9	9	1	SUBMARINE	1398	n/a	0	n/a	0	0	0	0	0.5869140625	0.422607421875	lower	../fonts/zerothre.ttf
2386712	WORD	wordpools/wasnorm_wordpool_less_exclusions.txt	LTP269	ltpFR	9	9	1	TYPEWRITER	1531	n/a	1	n/a	0	0	0	0	0.5869140625	0.422607421875	lower	../fonts/zerothre.ttf
2390573	WORD	wordpools/wasnorm_wordpool_less_exclusions.txt	LTP269	ltpFR	9	9	0	LOAF	835	n/a	1	n/a	0	0	0	1	0.412841796875	0.57763671875	upper	../fonts/amplitud.ttf
2394767	WORD	wordpools/wasnorm_wordpool_less_exclusions.txt	LTP269	ltpFR	9	9	0	LOCK	838	n/a	0	n/a	0	0	0	1	0.412841796875	0.57763671875	upper	../fonts/amplitud.ttf
2398911	WORD	wordpools/wasnorm_wordpool_less_exclusions.txt	LTP269	ltpFR	9	9	0	VEIN	1554	n/a	0	n/a	0	0	0	1	0.412841796875	0.57763671875	upper	../fonts/amplitud.ttf
2403088	WORD	wordpools/wasnorm_wordpool_less_exclusions.txt	LTP269	ltpFR	9	9	0	RECEPTIONIST	1174	n/a	1	n/a	0	0	0	1	0.412841796875	0.57763671875	upper	../fonts/amplitud.ttf
2407215	WORD	wordpools/wasnorm_wordpool_less_exclusions.txt	LTP269	ltpFR	9	9	0	BUGGY	188	n/a	0	n/a	0	0	0	1	0.412841796875	0.57763671875	upper	../fonts/amplitud.ttf
2411359	WORD	wordpools/wasnorm_wordpool_less_exclusions.txt	LTP269	ltpFR	9	9	0	WHEEL	1603	n/a	1	n/a	0	0	0	1	0.412841796875	0.57763671875	upper	../fonts/amplitud.ttf
2417268	REC_START	n/a	LTP269	ltpFR	9	9	n/a	n/a	n/a	n/a	n/a	n/a	0	0	0	n/a	n/a	n/a	n/a	n/a
2417873	REC_WORD	wordpools/wasnorm_wordpool_less_exclusions.txt	LTP269	ltpFR	9	9	0	WHEEL	1603	n/a	1	n/a	0	0	0	n/a	n/a	n/a	n/a	n/a
2418929	REC_WORD	wordpools/wasnorm_wordpool_less_exclusions.txt	LTP269	ltpFR	9	9	0	BUGGY	188	n/a	0	n/a	0	0	0	n/a	n/a	n/a	n/a	n/a
2419731	REC_WORD	wordpools/wasnorm_wordpool_less_exclusions.txt	LTP269	ltpFR	9	9	1	TYPEWRITER	1531	n/a	1	n/a	0	0	0	n/a	n/a	n/a	n/a	n/a
2422952	REC_WORD	wordpools/wasnorm_wordpool_less_exclusions.txt	LTP269	ltpFR	9	9	1	CASHIER	254	n/a	1	n/a	0	0	0	n/a	n/a	n/a	n/a	n/a
2423872	REC_WORD	wordpools/wasnorm_wordpool_less_exclusions.txt	LTP269	ltpFR	9	9	1	MISTER	901	n/a	1	n/a	0	0	0	n/a	n/a	n/a	n/a	n/a
2425800	REC_WORD	wordpools/wasnorm_wordpool_less_exclusions.txt	LTP269	ltpFR	9	9	0	VEIN	1554	n/a	0	n/a	0	0	0	n/a	n/a	n/a	n/a	n/a
2428341	REC_WORD	wordpools/wasnorm_wordpool_less_exclusions.txt	LTP269	ltpFR	9	9	1	RAISIN	1163	n/a	0	n/a	0	0	0	n/a	n/a	n/a	n/a	n/a
2433924	REC_WORD	wordpools/wasnorm_wordpool_less_exclusions.txt	LTP269	ltpFR	9	9	n/a	BOAT	144	n/a	n/a	n/a	0	0	0	n/a	n/a	n/a	n/a	n/a
2434869	REC_WORD_VV	wordpools/wasnorm_wordpool_less_exclusions.txt	LTP269	ltpFR	9	9	n/a	<>	-1	n/a	n/a	n/a	0	0	0	n/a	n/a	n/a	n/a	n/a
2498945	START	n/a	LTP269	ltpFR	9	n/a	n/a	n/a	n/a	n/a	n/a	n/a	n/a	n/a	n/a	n/a	n/a	n/a	n/a	n/a
2500458	PROB	n/a	LTP269	ltpFR	9	n/a	n/a	n/a	n/a	n/a	n/a	18	7	6	5	n/a	n/a	n/a	n/a	n/a
2502939	PROB	n/a	LTP269	ltpFR	9	n/a	n/a	n/a	n/a	n/a	n/a	13	5	3	5	n/a	n/a	n/a	n/a	n/a
2505153	PROB	n/a	LTP269	ltpFR	9	n/a	n/a	n/a	n/a	n/a	n/a	12	2	9	1	n/a	n/a	n/a	n/a	n/a
2506450	PROB	n/a	LTP269	ltpFR	9	n/a	n/a	n/a	n/a	n/a	n/a	21	8	5	8	n/a	n/a	n/a	n/a	n/a
2508713	PROB	n/a	LTP269	ltpFR	9	n/a	n/a	n/a	n/a	n/a	n/a	12	3	2	7	n/a	n/a	n/a	n/a	n/a
2510510	PROB	n/a	LTP269	ltpFR	9	n/a	n/a	n/a	n/a	n/a	n/a	21	6	9	6	n/a	n/a	n/a	n/a	n/a
2513837	STOP	n/a	LTP269	ltpFR	9	n/a	n/a	n/a	n/a	n/a	n/a	n/a	n/a	n/a	n/a	n/a	n/a	n/a	n/a	n/a
2515920	WORD	wordpools/wasnorm_wordpool_less_exclusions.txt	LTP269	ltpFR	9	10	0	BAKER	71	n/a	1	n/a	0	0	0	1	0.412841796875	0.57763671875	upper	../fonts/amplitud.ttf
2518932	START	n/a	LTP269	ltpFR	9	n/a	n/a	n/a	n/a	n/a	n/a	n/a	n/a	n/a	n/a	n/a	n/a	n/a	n/a	n/a
2519997	PROB	n/a	LTP269	ltpFR	9	n/a	n/a	n/a	n/a	n/a	n/a	19	4	9	6	n/a	n/a	n/a	n/a	n/a
2521927	PROB	n/a	LTP269	ltpFR	9	n/a	n/a	n/a	n/a	n/a	n/a	14	7	6	1	n/a	n/a	n/a	n/a	n/a
2524390	PROB	n/a	LTP269	ltpFR	9	n/a	n/a	n/a	n/a	n/a	n/a	11	5	2	4	n/a	n/a	n/a	n/a	n/a
2527386	PROB	n/a	LTP269	ltpFR	9	n/a	n/a	n/a	n/a	n/a	n/a	12	2	8	2	n/a	n/a	n/a	n/a	n/a
2528767	PROB	n/a	LTP269	ltpFR	9	n/a	n/a	n/a	n/a	n/a	n/a	13	7	3	3	n/a	n/a	n/a	n/a	n/a
2530282	PROB	n/a	LTP269	ltpFR	9	n/a	n/a	n/a	n/a	n/a	n/a	13	4	8	1	n/a	n/a	n/a	n/a	n/a
2532461	PROB	n/a	LTP269	ltpFR	9	n/a	n/a	n/a	n/a	n/a	n/a	13	6	4	3	n/a	n/a	n/a	n/a	n/a
2534133	STOP	n/a	LTP269	ltpFR	9	n/a	n/a	n/a	n/a	n/a	n/a	n/a	n/a	n/a	n/a	n/a	n/a	n/a	n/a	n/a
2536023	WORD	wordpools/wasnorm_wordpool_less_exclusions.txt	LTP269	ltpFR	9	10	0	RESTAURANT	1187	n/a	1	n/a	0	0	0	1	0.412841796875	0.57763671875	upper	../fonts/amplitud.ttf
2539036	START	n/a	LTP269	ltpFR	9	n/a	n/a	n/a	n/a	n/a	n/a	n/a	n/a	n/a	n/a	n/a	n/a	n/a	n/a	n/a
2540067	PROB	n/a	LTP269	ltpFR	9	n/a	n/a	n/a	n/a	n/a	n/a	10	2	6	2	n/a	n/a	n/a	n/a	n/a
2541764	PROB	n/a	LTP269	ltpFR	9	n/a	n/a	n/a	n/a	n/a	n/a	17	8	4	5	n/a	n/a	n/a	n/a	n/a
2544876	PROB	n/a	LTP269	ltpFR	9	n/a	n/a	n/a	n/a	n/a	n/a	18	5	8	5	n/a	n/a	n/a	n/a	n/a
2547738	PROB	n/a	LTP269	ltpFR	9	n/a	n/a	n/a	n/a	n/a	n/a	20	9	9	2	n/a	n/a	n/a	n/a	n/a
2550467	PROB	n/a	LTP269	ltpFR	9	n/a	n/a	n/a	n/a	n/a	n/a	16	7	5	4	n/a	n/a	n/a	n/a	n/a
2553181	PROB	n/a	LTP269	ltpFR	9	n/a	n/a	n/a	n/a	n/a	n/a	19	1	5	3	n/a	n/a	n/a	n/a	n/a
2554829	STOP	n/a	LTP269	ltpFR	9	n/a	n/a	n/a	n/a	n/a	n/a	n/a	n/a	n/a	n/a	n/a	n/a	n/a	n/a	n/a
2555910	WORD	wordpools/wasnorm_wordpool_less_exclusions.txt	LTP269	ltpFR	9	10	0	PIGEON	1065	n/a	0	n/a	0	0	0	1	0.412841796875	0.57763671875	upper	../fonts/amplitud.ttf
2558923	START	n/a	LTP269	ltpFR	9	n/a	n/a	n/a	n/a	n/a	n/a	n/a	n/a	n/a	n/a	n/a	n/a	n/a	n/a	n/a
2559871	PROB	n/a	LTP269	ltpFR	9	n/a	n/a	n/a	n/a	n/a	n/a	17	9	3	5	n/a	n/a	n/a	n/a	n/a
2564997	PROB	n/a	LTP269	ltpFR	9	n/a	n/a	n/a	n/a	n/a	n/a	19	9	8	2	n/a	n/a	n/a	n/a	n/a
2567909	PROB	n/a	LTP269	ltpFR	9	n/a	n/a	n/a	n/a	n/a	n/a	9	7	1	1	n/a	n/a	n/a	n/a	n/a
2569489	PROB	n/a	LTP269	ltpFR	9	n/a	n/a	n/a	n/a	n/a	n/a	15	8	3	4	n/a	n/a	n/a	n/a	n/a
2574922	STOP	n/a	LTP269	ltpFR	9	n/a	n/a	n/a	n/a	n/a	n/a	n/a	n/a	n/a	n/a	n/a	n/a	n/a	n/a	n/a
2575930	WORD	wordpools/wasnorm_wordpool_less_exclusions.txt	LTP269	ltpFR	9	10	0	RAM	1165	n/a	1	n/a	0	0	0	1	0.412841796875	0.57763671875	upper	../fonts/amplitud.ttf
2578943	START	n/a	LTP269	ltpFR	9	n/a	n/a	n/a	n/a	n/a	n/a	n/a	n/a	n/a	n/a	n/a	n/a	n/a	n/a	n/a
2580041	PROB	n/a	LTP269	ltpFR	9	n/a	n/a	n/a	n/a	n/a	n/a	18	6	8	4	n/a	n/a	n/a	n/a	n/a
2582271	PROB	n/a	LTP269	ltpFR	9	n/a	n/a	n/a	n/a	n/a	n/a	16	2	8	6	n/a	n/a	n/a	n/a	n/a
2584368	PROB	n/a	LTP269	ltpFR	9	n/a	n/a	n/a	n/a	n/a	n/a	17	2	2	3	n/a	n/a	n/a	n/a	n/a
2587064	PROB	n/a	LTP269	ltpFR	9	n/a	n/a	n/a	n/a	n/a	n/a	18	1	8	9	n/a	n/a	n/a	n/a	n/a
2590724	PROB	n/a	LTP269	ltpFR	9	n/a	n/a	n/a	n/a	n/a	n/a	18	8	1	9	n/a	n/a	n/a	n/a	n/a
2594942	STOP	n/a	LTP269	ltpFR	9	n/a	n/a	n/a	n/a	n/a	n/a	n/a	n/a	n/a	n/a	n/a	n/a	n/a	n/a	n/a
2596100	WORD	wordpools/wasnorm_wordpool_less_exclusions.txt	LTP269	ltpFR	9	10	0	CREVICE	405	n/a	1	n/a	0	0	0	1	0.412841796875	0.57763671875	upper	../fonts/amplitud.ttf
2599113	START	n/a	LTP269	ltpFR	9	n/a	n/a	n/a	n/a	n/a	n/a	n/a	n/a	n/a	n/a	n/a	n/a	n/a	n/a	n/a
2600227	PROB	n/a	LTP269	ltpFR	9	n/a	n/a	n/a	n/a	n/a	n/a	17	8	1	8	n/a	n/a	n/a	n/a	n/a
2602956	PROB	n/a	LTP269	ltpFR	9	n/a	n/a	n/a	n/a	n/a	n/a	15	9	4	2	n/a	n/a	n/a	n/a	n/a
2605919	PROB	n/a	LTP269	ltpFR	9	n/a	n/a	n/a	n/a	n/a	n/a	13	1	6	6	n/a	n/a	n/a	n/a	n/a
2607648	PROB	n/a	LTP269	ltpFR	9	n/a	n/a	n/a	n/a	n/a	n/a	21	8	4	9	n/a	n/a	n/a	n/a	n/a
2610179	PROB	n/a	LTP269	ltpFR	9	n/a	n/a	n/a	n/a	n/a	n/a	21	8	9	4	n/a	n/a	n/a	n/a	n/a
2615113	STOP	n/a	LTP269	ltpFR	9	n/a	n/a	n/a	n/a	n/a	n/a	n/a	n/a	n/a	n/a	n/a	n/a	n/a	n/a	n/a
2616020	WORD	wordpools/wasnorm_wordpool_less_exclusions.txt	LTP269	ltpFR	9	10	0	TOWEL	1489	n/a	1	n/a	0	0	0	1	0.412841796875	0.57763671875	upper	../fonts/amplitud.ttf
2619033	START	n/a	LTP269	ltpFR	9	n/a	n/a	n/a	n/a	n/a	n/a	n/a	n/a	n/a	n/a	n/a	n/a	n/a	n/a	n/a
2620147	PROB	n/a	LTP269	ltpFR	9	n/a	n/a	n/a	n/a	n/a	n/a	9	3	5	1	n/a	n/a	n/a	n/a	n/a
2622609	PROB	n/a	LTP269	ltpFR	9	n/a	n/a	n/a	n/a	n/a	n/a	13	1	5	7	n/a	n/a	n/a	n/a	n/a
2624308	PROB	n/a	LTP269	ltpFR	9	n/a	n/a	n/a	n/a	n/a	n/a	10	1	2	7	n/a	n/a	n/a	n/a	n/a
2626205	PROB	n/a	LTP269	ltpFR	9	n/a	n/a	n/a	n/a	n/a	n/a	14	2	9	5	n/a	n/a	n/a	n/a	n/a
2630498	PROB	n/a	LTP269	ltpFR	9	n/a	n/a	n/a	n/a	n/a	n/a	11	1	4	6	n/a	n/a	n/a	n/a	n/a
2635033	STOP	n/a	LTP269	ltpFR	9	n/a	n/a	n/a	n/a	n/a	n/a	n/a	n/a	n/a	n/a	n/a	n/a	n/a	n/a	n/a
2636057	WORD	wordpools/wasnorm_wordpool_less_exclusions.txt	LTP269	ltpFR	9	10	0	LAUNDRY	803	n/a	1	n/a	0	0	0	1	0.412841796875	0.57763671875	upper	../fonts/amplitud.ttf
2639070	START	n/a	LTP269	ltpFR	9	n/a	n/a	n/a	n/a	n/a	n/a	n/a	n/a	n/a	n/a	n/a	n/a	n/a	n/a	n/a
2640151	PROB	n/a	LTP269	ltpFR	9	n/a	n/a	n/a	n/a	n/a	n/a	22	8	7	9	n/a	n/a	n/a	n/a	n/a
2645842	PROB	n/a	LTP269	ltpFR	9	n/a	n/a	n/a	n/a	n/a	n/a	18	6	5	7	n/a	n/a	n/a	n/a	n/a
2647956	PROB	n/a	LTP269	ltpFR	9	n/a	n/a	n/a	n/a	n/a	n/a	21	5	8	8	n/a	n/a	n/a	n/a	n/a
2650169	PROB	n/a	LTP269	ltpFR	9	n/a	n/a	n/a	n/a	n/a	n/a	20	9	8	3	n/a	n/a	n/a	n/a	n/a
2655070	STOP	n/a	LTP269	ltpFR	9	n/a	n/a	n/a	n/a	n/a	n/a	n/a	n/a	n/a	n/a	n/a	n/a	n/a	n/a	n/a
2655977	WORD	wordpools/wasnorm_wordpool_less_exclusions.txt	LTP269	ltpFR	9	10	0	CREATURE	403	n/a	1	n/a	0	0	0	1	0.412841796875	0.57763671875	upper	../fonts/amplitud.ttf
2659007	START	n/a	LTP269	ltpFR	9	n/a	n/a	n/a	n/a	n/a	n/a	n/a	n/a	n/a	n/a	n/a	n/a	n/a	n/a	n/a
2660138	PROB	n/a	LTP269	ltpFR	9	n/a	n/a	n/a	n/a	n/a	n/a	16	4	5	7	n/a	n/a	n/a	n/a	n/a
2661935	PROB	n/a	LTP269	ltpFR	9	n/a	n/a	n/a	n/a	n/a	n/a	16	3	5	8	n/a	n/a	n/a	n/a	n/a
2666644	PROB	n/a	LTP269	ltpFR	9	n/a	n/a	n/a	n/a	n/a	n/a	14	4	3	7	n/a	n/a	n/a	n/a	n/a
2668226	PROB	n/a	LTP269	ltpFR	9	n/a	n/a	n/a	n/a	n/a	n/a	12	3	8	1	n/a	n/a	n/a	n/a	n/a
2675007	STOP	n/a	LTP269	ltpFR	9	n/a	n/a	n/a	n/a	n/a	n/a	n/a	n/a	n/a	n/a	n/a	n/a	n/a	n/a	n/a
2676081	WORD	wordpools/wasnorm_wordpool_less_exclusions.txt	LTP269	ltpFR	9	10	0	JAR	750	n/a	0	n/a	0	0	0	1	0.412841796875	0.57763671875	upper	../fonts/amplitud.ttf
2679093	START	n/a	LTP269	ltpFR	9	n/a	n/a	n/a	n/a	n/a	n/a	n/a	n/a	n/a	n/a	n/a	n/a	n/a	n/a	n/a
2680291	PROB	n/a	LTP269	ltpFR	9	n/a	n/a	n/a	n/a	n/a	n/a	13	6	6	1	n/a	n/a	n/a	n/a	n/a
2681988	PROB	n/a	LTP269	ltpFR	9	n/a	n/a	n/a	n/a	n/a	n/a	19	9	7	3	n/a	n/a	n/a	n/a	n/a
2684119	PROB	n/a	LTP269	ltpFR	9	n/a	n/a	n/a	n/a	n/a	n/a	19	2	9	8	n/a	n/a	n/a	n/a	n/a
2686399	PROB	n/a	LTP269	ltpFR	9	n/a	n/a	n/a	n/a	n/a	n/a	20	7	4	9	n/a	n/a	n/a	n/a	n/a
2688961	PROB	n/a	LTP269	ltpFR	9	n/a	n/a	n/a	n/a	n/a	n/a	12	9	2	1	n/a	n/a	n/a	n/a	n/a
2690908	PROB	n/a	LTP269	ltpFR	9	n/a	n/a	n/a	n/a	n/a	n/a	13	5	6	2	n/a	n/a	n/a	n/a	n/a
2694500	STOP	n/a	LTP269	ltpFR	9	n/a	n/a	n/a	n/a	n/a	n/a	n/a	n/a	n/a	n/a	n/a	n/a	n/a	n/a	n/a
2696267	WORD	wordpools/wasnorm_wordpool_less_exclusions.txt	LTP269	ltpFR	9	10	0	ROOM	1206	n/a	1	n/a	0	0	0	1	0.412841796875	0.57763671875	upper	../fonts/amplitud.ttf
2699280	START	n/a	LTP269	ltpFR	9	n/a	n/a	n/a	n/a	n/a	n/a	n/a	n/a	n/a	n/a	n/a	n/a	n/a	n/a	n/a
2700278	PROB	n/a	LTP269	ltpFR	9	n/a	n/a	n/a	n/a	n/a	n/a	15	8	6	1	n/a	n/a	n/a	n/a	n/a
2702756	PROB	n/a	LTP269	ltpFR	9	n/a	n/a	n/a	n/a	n/a	n/a	19	7	9	3	n/a	n/a	n/a	n/a	n/a
2708183	PROB	n/a	LTP269	ltpFR	9	n/a	n/a	n/a	n/a	n/a	n/a	12	4	7	1	n/a	n/a	n/a	n/a	n/a
2715280	STOP	n/a	LTP269	ltpFR	9	n/a	n/a	n/a	n/a	n/a	n/a	n/a	n/a	n/a	n/a	n/a	n/a	n/a	n/a	n/a
2716337	WORD	wordpools/wasnorm_wordpool_less_exclusions.txt	LTP269	ltpFR	9	10	0	YARN	1631	n/a	0	n/a	0	0	0	1	0.412841796875	0.57763671875	upper	../fonts/amplitud.ttf
2719350	START	n/a	LTP269	ltpFR	9	n/a	n/a	n/a	n/a	n/a	n/a	n/a	n/a	n/a	n/a	n/a	n/a	n/a	n/a	n/a
2720463	PROB	n/a	LTP269	ltpFR	9	n/a	n/a	n/a	n/a	n/a	n/a	17	8	4	5	n/a	n/a	n/a	n/a	n/a
2723160	PROB	n/a	LTP269	ltpFR	9	n/a	n/a	n/a	n/a	n/a	n/a	9	6	2	1	n/a	n/a	n/a	n/a	n/a
2724858	PROB	n/a	LTP269	ltpFR	9	n/a	n/a	n/a	n/a	n/a	n/a	21	6	6	9	n/a	n/a	n/a	n/a	n/a
2728053	PROB	n/a	LTP269	ltpFR	9	n/a	n/a	n/a	n/a	n/a	n/a	6	2	2	2	n/a	n/a	n/a	n/a	n/a
2730117	PROB	n/a	LTP269	ltpFR	9	n/a	n/a	n/a	n/a	n/a	n/a	14	7	1	6	n/a	n/a	n/a	n/a	n/a
2735350	STOP	n/a	LTP269	ltpFR	9	n/a	n/a	n/a	n/a	n/a	n/a	n/a	n/a	n/a	n/a	n/a	n/a	n/a	n/a	n/a
2736423	WORD	wordpools/wasnorm_wordpool_less_exclusions.txt	LTP269	ltpFR	9	10	0	SHOVEL	1295	n/a	1	n/a	0	0	0	1	0.412841796875	0.57763671875	upper	../fonts/amplitud.ttf
2739435	START	n/a	LTP269	ltpFR	9	n/a	n/a	n/a	n/a	n/a	n/a	n/a	n/a	n/a	n/a	n/a	n/a	n/a	n/a	n/a
2740285	PROB	n/a	LTP269	ltpFR	9	n/a	n/a	n/a	n/a	n/a	n/a	10	2	5	3	n/a	n/a	n/a	n/a	n/a
2743645	PROB	n/a	LTP269	ltpFR	9	n/a	n/a	n/a	n/a	n/a	n/a	9	5	1	3	n/a	n/a	n/a	n/a	n/a
2745360	PROB	n/a	LTP269	ltpFR	9	n/a	n/a	n/a	n/a	n/a	n/a	12	3	8	1	n/a	n/a	n/a	n/a	n/a
2747008	PROB	n/a	LTP269	ltpFR	9	n/a	n/a	n/a	n/a	n/a	n/a	12	2	4	6	n/a	n/a	n/a	n/a	n/a
2748356	PROB	n/a	LTP269	ltpFR	9	n/a	n/a	n/a	n/a	n/a	n/a	14	2	5	7	n/a	n/a	n/a	n/a	n/a
2750668	PROB	n/a	LTP269	ltpFR	9	n/a	n/a	n/a	n/a	n/a	n/a	11	3	5	3	n/a	n/a	n/a	n/a	n/a
2755434	STOP	n/a	LTP269	ltpFR	9	n/a	n/a	n/a	n/a	n/a	n/a	n/a	n/a	n/a	n/a	n/a	n/a	n/a	n/a	n/a
2756593	WORD	wordpools/wasnorm_wordpool_less_exclusions.txt	LTP269	ltpFR	9	10	0	RESORT	1186	n/a	1	n/a	0	0	0	1	0.412841796875	0.57763671875	upper	../fonts/amplitud.ttf
2759605	START	n/a	LTP269	ltpFR	9	n/a	n/a	n/a	n/a	n/a	n/a	n/a	n/a	n/a	n/a	n/a	n/a	n/a	n/a	n/a
2760653	PROB	n/a	LTP269	ltpFR	9	n/a	n/a	n/a	n/a	n/a	n/a	24	9	8	7	n/a	n/a	n/a	n/a	n/a
2765712	PROB	n/a	LTP269	ltpFR	9	n/a	n/a	n/a	n/a	n/a	n/a	14	5	3	6	n/a	n/a	n/a	n/a	n/a
2769791	PROB	n/a	LTP269	ltpFR	9	n/a	n/a	n/a	n/a	n/a	n/a	15	4	9	2	n/a	n/a	n/a	n/a	n/a
2771921	PROB	n/a	LTP269	ltpFR	9	n/a	n/a	n/a	n/a	n/a	n/a	13	2	9	2	n/a	n/a	n/a	n/a	n/a
2774077	STOP	n/a	LTP269	ltpFR	9	n/a	n/a	n/a	n/a	n/a	n/a	n/a	n/a	n/a	n/a	n/a	n/a	n/a	n/a	n/a
2776546	WORD	wordpools/wasnorm_wordpool_less_exclusions.txt	LTP269	ltpFR	9	10	0	FEATHER	557	n/a	0	n/a	0	0	0	1	0.412841796875	0.57763671875	upper	../fonts/amplitud.ttf
2779559	START	n/a	LTP269	ltpFR	9	n/a	n/a	n/a	n/a	n/a	n/a	n/a	n/a	n/a	n/a	n/a	n/a	n/a	n/a	n/a
2780474	PROB	n/a	LTP269	ltpFR	9	n/a	n/a	n/a	n/a	n/a	n/a	14	6	3	5	n/a	n/a	n/a	n/a	n/a
2787215	PROB	n/a	LTP269	ltpFR	9	n/a	n/a	n/a	n/a	n/a	n/a	16	5	6	5	n/a	n/a	n/a	n/a	n/a
2789944	PROB	n/a	LTP269	ltpFR	9	n/a	n/a	n/a	n/a	n/a	n/a	8	3	3	2	n/a	n/a	n/a	n/a	n/a
2795173	STOP	n/a	LTP269	ltpFR	9	n/a	n/a	n/a	n/a	n/a	n/a	n/a	n/a	n/a	n/a	n/a	n/a	n/a	n/a	n/a
2796450	WORD	wordpools/wasnorm_wordpool_less_exclusions.txt	LTP269	ltpFR	9	10	0	FOUNTAIN	597	n/a	1	n/a	0	0	0	1	0.412841796875	0.57763671875	upper	../fonts/amplitud.ttf
2799462	START	n/a	LTP269	ltpFR	9	n/a	n/a	n/a	n/a	n/a	n/a	n/a	n/a	n/a	n/a	n/a	n/a	n/a	n/a	n/a
2800510	PROB	n/a	LTP269	ltpFR	9	n/a	n/a	n/a	n/a	n/a	n/a	8	1	2	5	n/a	n/a	n/a	n/a	n/a
2802159	PROB	n/a	LTP269	ltpFR	9	n/a	n/a	n/a	n/a	n/a	n/a	88	1	5	2	n/a	n/a	n/a	n/a	n/a
2804139	PROB	n/a	LTP269	ltpFR	9	n/a	n/a	n/a	n/a	n/a	n/a	23	9	6	8	n/a	n/a	n/a	n/a	n/a
2808698	PROB	n/a	LTP269	ltpFR	9	n/a	n/a	n/a	n/a	n/a	n/a	25	4	7	4	n/a	n/a	n/a	n/a	n/a
2815462	STOP	n/a	LTP269	ltpFR	9	n/a	n/a	n/a	n/a	n/a	n/a	n/a	n/a	n/a	n/a	n/a	n/a	n/a	n/a	n/a
2816603	WORD	wordpools/wasnorm_wordpool_less_exclusions.txt	LTP269	ltpFR	9	10	0	SNORKEL	1336	n/a	0	n/a	0	0	0	1	0.412841796875	0.57763671875	upper	../fonts/amplitud.ttf
2819615	START	n/a	LTP269	ltpFR	9	n/a	n/a	n/a	n/a	n/a	n/a	n/a	n/a	n/a	n/a	n/a	n/a	n/a	n/a	n/a
2820680	PROB	n/a	LTP269	ltpFR	9	n/a	n/a	n/a	n/a	n/a	n/a	12	5	2	5	n/a	n/a	n/a	n/a	n/a
2823178	PROB	n/a	LTP269	ltpFR	9	n/a	n/a	n/a	n/a	n/a	n/a	14	3	1	5	n/a	n/a	n/a	n/a	n/a
2825391	PROB	n/a	LTP269	ltpFR	9	n/a	n/a	n/a	n/a	n/a	n/a	15	8	2	5	n/a	n/a	n/a	n/a	n/a
2828386	PROB	n/a	LTP269	ltpFR	9	n/a	n/a	n/a	n/a	n/a	n/a	14	4	1	9	n/a	n/a	n/a	n/a	n/a
2829984	PROB	n/a	LTP269	ltpFR	9	n/a	n/a	n/a	n/a	n/a	n/a	15	5	5	5	n/a	n/a	n/a	n/a	n/a
2831315	PROB	n/a	LTP269	ltpFR	9	n/a	n/a	n/a	n/a	n/a	n/a	11	4	6	1	n/a	n/a	n/a	n/a	n/a
2832880	PROB	n/a	LTP269	ltpFR	9	n/a	n/a	n/a	n/a	n/a	n/a	11	3	7	1	n/a	n/a	n/a	n/a	n/a
2834117	STOP	n/a	LTP269	ltpFR	9	n/a	n/a	n/a	n/a	n/a	n/a	n/a	n/a	n/a	n/a	n/a	n/a	n/a	n/a	n/a
2837539	REC_START	n/a	LTP269	ltpFR	9	10	n/a	n/a	n/a	n/a	n/a	n/a	0	0	0	n/a	n/a	n/a	n/a	n/a
2838814	REC_WORD	wordpools/wasnorm_wordpool_less_exclusions.txt	LTP269	ltpFR	9	10	0	SNORKEL	1336	n/a	0	n/a	0	0	0	n/a	n/a	n/a	n/a	n/a
2843898	REC_WORD	wordpools/wasnorm_wordpool_less_exclusions.txt	LTP269	ltpFR	9	10	0	RESTAURANT	1187	n/a	1	n/a	0	0	0	n/a	n/a	n/a	n/a	n/a
2860930	REC_WORD	wordpools/wasnorm_wordpool_less_exclusions.txt	LTP269	ltpFR	9	10	0	RESORT	1186	n/a	1	n/a	0	0	0	n/a	n/a	n/a	n/a	n/a
2916488	START	n/a	LTP269	ltpFR	9	n/a	n/a	n/a	n/a	n/a	n/a	n/a	n/a	n/a	n/a	n/a	n/a	n/a	n/a	n/a
2918003	PROB	n/a	LTP269	ltpFR	9	n/a	n/a	n/a	n/a	n/a	n/a	21	7	7	7	n/a	n/a	n/a	n/a	n/a
2919817	PROB	n/a	LTP269	ltpFR	9	n/a	n/a	n/a	n/a	n/a	n/a	12	8	3	1	n/a	n/a	n/a	n/a	n/a
2924488	STOP	n/a	LTP269	ltpFR	9	n/a	n/a	n/a	n/a	n/a	n/a	n/a	n/a	n/a	n/a	n/a	n/a	n/a	n/a	n/a
2925424	WORD	wordpools/wasnorm_wordpool_less_exclusions.txt	LTP269	ltpFR	9	11	0	ALBUM	14	n/a	0	n/a	0	0	0	1	0.412841796875	0.57763671875	upper	../fonts/amplitud.ttf
2928436	START	n/a	LTP269	ltpFR	9	n/a	n/a	n/a	n/a	n/a	n/a	n/a	n/a	n/a	n/a	n/a	n/a	n/a	n/a	n/a
2929485	PROB	n/a	LTP269	ltpFR	9	n/a	n/a	n/a	n/a	n/a	n/a	9	6	1	2	n/a	n/a	n/a	n/a	n/a
2931548	PROB	n/a	LTP269	ltpFR	9	n/a	n/a	n/a	n/a	n/a	n/a	6	1	1	4	n/a	n/a	n/a	n/a	n/a
2933313	PROB	n/a	LTP269	ltpFR	9	n/a	n/a	n/a	n/a	n/a	n/a	17	8	5	4	n/a	n/a	n/a	n/a	n/a
2935724	STOP	n/a	LTP269	ltpFR	9	n/a	n/a	n/a	n/a	n/a	n/a	n/a	n/a	n/a	n/a	n/a	n/a	n/a	n/a	n/a
2937324	WORD	wordpools/wasnorm_wordpool_less_exclusions.txt	LTP269	ltpFR	9	11	0	VET	1560	n/a	1	n/a	0	0	0	1	0.412841796875	0.57763671875	upper	../fonts/amplitud.ttf
2940336	START	n/a	LTP269	ltpFR	9	n/a	n/a	n/a	n/a	n/a	n/a	n/a	n/a	n/a	n/a	n/a	n/a	n/a	n/a	n/a
2941235	PROB	n/a	LTP269	ltpFR	9	n/a	n/a	n/a	n/a	n/a	n/a	17	5	6	6	n/a	n/a	n/a	n/a	n/a
2942949	PROB	n/a	LTP269	ltpFR	9	n/a	n/a	n/a	n/a	n/a	n/a	19	9	4	6	n/a	n/a	n/a	n/a	n/a
2944712	PROB	n/a	LTP269	ltpFR	9	n/a	n/a	n/a	n/a	n/a	n/a	10	4	4	2	n/a	n/a	n/a	n/a	n/a
2947229	STOP	n/a	LTP269	ltpFR	9	n/a	n/a	n/a	n/a	n/a	n/a	n/a	n/a	n/a	n/a	n/a	n/a	n/a	n/a	n/a
2949339	WORD	wordpools/wasnorm_wordpool_less_exclusions.txt	LTP269	ltpFR	9	11	0	OX	994	n/a	1	n/a	0	0	0	1	0.412841796875	0.57763671875	upper	../fonts/amplitud.ttf
2952352	START	n/a	LTP269	ltpFR	9	n/a	n/a	n/a	n/a	n/a	n/a	n/a	n/a	n/a	n/a	n/a	n/a	n/a	n/a	n/a
2953367	PROB	n/a	LTP269	ltpFR	9	n/a	n/a	n/a	n/a	n/a	n/a	16	7	1	8	n/a	n/a	n/a	n/a	n/a
2955180	PROB	n/a	LTP269	ltpFR	9	n/a	n/a	n/a	n/a	n/a	n/a	13	3	9	1	n/a	n/a	n/a	n/a	n/a
2957826	PROB	n/a	LTP269	ltpFR	9	n/a	n/a	n/a	n/a	n/a	n/a	14	3	4	7	n/a	n/a	n/a	n/a	n/a
2960301	STOP	n/a	LTP269	ltpFR	9	n/a	n/a	n/a	n/a	n/a	n/a	n/a	n/a	n/a	n/a	n/a	n/a	n/a	n/a	n/a
2961553	WORD	wordpools/wasnorm_wordpool_less_exclusions.txt	LTP269	ltpFR	9	11	0	FLUTE	585	n/a	0	n/a	0	0	0	1	0.412841796875	0.57763671875	upper	../fonts/amplitud.ttf
2964566	START	n/a	LTP269	ltpFR	9	n/a	n/a	n/a	n/a	n/a	n/a	n/a	n/a	n/a	n/a	n/a	n/a	n/a	n/a	n/a
2965680	PROB	n/a	LTP269	ltpFR	9	n/a	n/a	n/a	n/a	n/a	n/a	17	9	7	1	n/a	n/a	n/a	n/a	n/a
2967544	PROB	n/a	LTP269	ltpFR	9	n/a	n/a	n/a	n/a	n/a	n/a	17	5	3	9	n/a	n/a	n/a	n/a	n/a
2970025	PROB	n/a	LTP269	ltpFR	9	n/a	n/a	n/a	n/a	n/a	n/a	16	9	4	3	n/a	n/a	n/a	n/a	n/a
2971925	STOP	n/a	LTP269	ltpFR	9	n/a	n/a	n/a	n/a	n/a	n/a	n/a	n/a	n/a	n/a	n/a	n/a	n/a	n/a	n/a
2973403	WORD	wordpools/wasnorm_wordpool_less_exclusions.txt	LTP269	ltpFR	9	11	0	OBOE	969	n/a	1	n/a	0	0	0	1	0.412841796875	0.57763671875	upper	../fonts/amplitud.ttf
2976415	START	n/a	LTP269	ltpFR	9	n/a	n/a	n/a	n/a	n/a	n/a	n/a	n/a	n/a	n/a	n/a	n/a	n/a	n/a	n/a
2977496	PROB	n/a	LTP269	ltpFR	9	n/a	n/a	n/a	n/a	n/a	n/a	12	7	1	4	n/a	n/a	n/a	n/a	n/a
2981974	PROB	n/a	LTP269	ltpFR	9	n/a	n/a	n/a	n/a	n/a	n/a	17	1	9	7	n/a	n/a	n/a	n/a	n/a
2983757	STOP	n/a	LTP269	ltpFR	9	n/a	n/a	n/a	n/a	n/a	n/a	n/a	n/a	n/a	n/a	n/a	n/a	n/a	n/a	n/a
2985335	WORD	wordpools/wasnorm_wordpool_less_exclusions.txt	LTP269	ltpFR	9	11	0	BARK	87	n/a	0	n/a	0	0	0	1	0.412841796875	0.57763671875	upper	../fonts/amplitud.ttf
2988348	START	n/a	LTP269	ltpFR	9	n/a	n/a	n/a	n/a	n/a	n/a	n/a	n/a	n/a	n/a	n/a	n/a	n/a	n/a	n/a
2989263	PROB	n/a	LTP269	ltpFR	9	n/a	n/a	n/a	n/a	n/a	n/a	18	4	7	7	n/a	n/a	n/a	n/a	n/a
2991143	PROB	n/a	LTP269	ltpFR	9	n/a	n/a	n/a	n/a	n/a	n/a	23	9	7	7	n/a	n/a	n/a	n/a	n/a
2993956	PROB	n/a	LTP269	ltpFR	9	n/a	n/a	n/a	n/a	n/a	n/a	6	4	1	1	n/a	n/a	n/a	n/a	n/a
2995484	STOP	n/a	LTP269	ltpFR	9	n/a	n/a	n/a	n/a	n/a	n/a	n/a	n/a	n/a	n/a	n/a	n/a	n/a	n/a	n/a
2997301	WORD	wordpools/wasnorm_wordpool_less_exclusions.txt	LTP269	ltpFR	9	11	0	BUCKLE	185	n/a	n/a	n/a	0	0	0	1	0.412841796875	0.57763671875	upper	../fonts/amplitud.ttf
3000330	SLOW_MSG	n/a	LTP269	ltpFR	9	11	n/a	n/a	n/a	n/a	n/a	n/a	0	0	0	n/a	n/a	n/a	n/a	n/a
3001861	START	n/a	LTP269	ltpFR	9	n/a	n/a	n/a	n/a	n/a	n/a	n/a	n/a	n/a	n/a	n/a	n/a	n/a	n/a	n/a
3002793	PROB	n/a	LTP269	ltpFR	9	n/a	n/a	n/a	n/a	n/a	n/a	7	1	4	2	n/a	n/a	n/a	n/a	n/a
3005039	PROB	n/a	LTP269	ltpFR	9	n/a	n/a	n/a	n/a	n/a	n/a	17	3	5	9	n/a	n/a	n/a	n/a	n/a
3008893	STOP	n/a	LTP269	ltpFR	9	n/a	n/a	n/a	n/a	n/a	n/a	n/a	n/a	n/a	n/a	n/a	n/a	n/a	n/a	n/a
3011064	WORD	wordpools/wasnorm_wordpool_less_exclusions.txt	LTP269	ltpFR	9	11	0	DECK	443	n/a	1	n/a	0	0	0	1	0.412841796875	0.57763671875	upper	../fonts/amplitud.ttf
3014076	START	n/a	LTP269	ltpFR	9	n/a	n/a	n/a	n/a	n/a	n/a	n/a	n/a	n/a	n/a	n/a	n/a	n/a	n/a	n/a
3014974	PROB	n/a	LTP269	ltpFR	9	n/a	n/a	n/a	n/a	n/a	n/a	12	4	2	6	n/a	n/a	n/a	n/a	n/a
3017254	PROB	n/a	LTP269	ltpFR	9	n/a	n/a	n/a	n/a	n/a	n/a	14	7	4	3	n/a	n/a	n/a	n/a	n/a
3020516	STOP	n/a	LTP269	ltpFR	9	n/a	n/a	n/a	n/a	n/a	n/a	n/a	n/a	n/a	n/a	n/a	n/a	n/a	n/a	n/a
3023096	WORD	wordpools/wasnorm_wordpool_less_exclusions.txt	LTP269	ltpFR	9	11	0	PAGE	1001	n/a	0	n/a	0	0	0	1	0.412841796875	0.57763671875	upper	../fonts/amplitud.ttf
3026108	START	n/a	LTP269	ltpFR	9	n/a	n/a	n/a	n/a	n/a	n/a	n/a	n/a	n/a	n/a	n/a	n/a	n/a	n/a	n/a
3026940	PROB	n/a	LTP269	ltpFR	9	n/a	n/a	n/a	n/a	n/a	n/a	12	9	1	2	n/a	n/a	n/a	n/a	n/a
3028771	PROB	n/a	LTP269	ltpFR	9	n/a	n/a	n/a	n/a	n/a	n/a	13	3	5	5	n/a	n/a	n/a	n/a	n/a
3030285	PROB	n/a	LTP269	ltpFR	9	n/a	n/a	n/a	n/a	n/a	n/a	20	4	9	7	n/a	n/a	n/a	n/a	n/a
3033644	STOP	n/a	LTP269	ltpFR	9	n/a	n/a	n/a	n/a	n/a	n/a	n/a	n/a	n/a	n/a	n/a	n/a	n/a	n/a	n/a
3034978	WORD	wordpools/wasnorm_wordpool_less_exclusions.txt	LTP269	ltpFR	9	11	0	DILL	465	n/a	0	n/a	0	0	0	1	0.412841796875	0.57763671875	upper	../fonts/amplitud.ttf
3037991	START	n/a	LTP269	ltpFR	9	n/a	n/a	n/a	n/a	n/a	n/a	n/a	n/a	n/a	n/a	n/a	n/a	n/a	n/a	n/a
3038955	PROB	n/a	LTP269	ltpFR	9	n/a	n/a	n/a	n/a	n/a	n/a	16	2	6	8	n/a	n/a	n/a	n/a	n/a
3041085	PROB	n/a	LTP269	ltpFR	9	n/a	n/a	n/a	n/a	n/a	n/a	14	7	1	6	n/a	n/a	n/a	n/a	n/a
3045991	STOP	n/a	LTP269	ltpFR	9	n/a	n/a	n/a	n/a	n/a	n/a	n/a	n/a	n/a	n/a	n/a	n/a	n/a	n/a	n/a
3046810	WORD	wordpools/wasnorm_wordpool_less_exclusions.txt	LTP269	ltpFR	9	11	0	TAPE	1433	n/a	0	n/a	0	0	0	1	0.412841796875	0.57763671875	upper	../fonts/amplitud.ttf
3049823	START	n/a	LTP269	ltpFR	9	n/a	n/a	n/a	n/a	n/a	n/a	n/a	n/a	n/a	n/a	n/a	n/a	n/a	n/a	n/a
3050954	PROB	n/a	LTP269	ltpFR	9	n/a	n/a	n/a	n/a	n/a	n/a	19	5	8	6	n/a	n/a	n/a	n/a	n/a
3057823	STOP	n/a	LTP269	ltpFR	9	n/a	n/a	n/a	n/a	n/a	n/a	n/a	n/a	n/a	n/a	n/a	n/a	n/a	n/a	n/a
3058758	WORD	wordpools/wasnorm_wordpool_less_exclusions.txt	LTP269	ltpFR	9	11	0	TURNIP	1521	n/a	0	n/a	0	0	0	1	0.412841796875	0.57763671875	upper	../fonts/amplitud.ttf
3061772	START	n/a	LTP269	ltpFR	9	n/a	n/a	n/a	n/a	n/a	n/a	n/a	n/a	n/a	n/a	n/a	n/a	n/a	n/a	n/a
3062870	PROB	n/a	LTP269	ltpFR	9	n/a	n/a	n/a	n/a	n/a	n/a	10	3	5	2	n/a	n/a	n/a	n/a	n/a
3065299	PROB	n/a	LTP269	ltpFR	9	n/a	n/a	n/a	n/a	n/a	n/a	23	8	8	7	n/a	n/a	n/a	n/a	n/a
3068548	STOP	n/a	LTP269	ltpFR	9	n/a	n/a	n/a	n/a	n/a	n/a	n/a	n/a	n/a	n/a	n/a	n/a	n/a	n/a	n/a
3070824	WORD	wordpools/wasnorm_wordpool_less_exclusions.txt	LTP269	ltpFR	9	11	0	BANANA	77	n/a	0	n/a	0	0	0	1	0.412841796875	0.57763671875	upper	../fonts/amplitud.ttf
3073837	START	n/a	LTP269	ltpFR	9	n/a	n/a	n/a	n/a	n/a	n/a	n/a	n/a	n/a	n/a	n/a	n/a	n/a	n/a	n/a
3074918	PROB	n/a	LTP269	ltpFR	9	n/a	n/a	n/a	n/a	n/a	n/a	13	8	3	2	n/a	n/a	n/a	n/a	n/a
3077215	PROB	n/a	LTP269	ltpFR	9	n/a	n/a	n/a	n/a	n/a	n/a	15	5	2	8	n/a	n/a	n/a	n/a	n/a
3081836	STOP	n/a	LTP269	ltpFR	9	n/a	n/a	n/a	n/a	n/a	n/a	n/a	n/a	n/a	n/a	n/a	n/a	n/a	n/a	n/a
3083023	WORD	wordpools/wasnorm_wordpool_less_exclusions.txt	LTP269	ltpFR	9	11	0	POLE	1097	n/a	1	n/a	0	0	0	1	0.412841796875	0.57763671875	upper	../fonts/amplitud.ttf
3086035	START	n/a	LTP269	ltpFR	9	n/a	n/a	n/a	n/a	n/a	n/a	n/a	n/a	n/a	n/a	n/a	n/a	n/a	n/a	n/a
3087233	PROB	n/a	LTP269	ltpFR	9	n/a	n/a	n/a	n/a	n/a	n/a	16	8	7	1	n/a	n/a	n/a	n/a	n/a
3088964	PROB	n/a	LTP269	ltpFR	9	n/a	n/a	n/a	n/a	n/a	n/a	13	4	5	4	n/a	n/a	n/a	n/a	n/a
3094035	STOP	n/a	LTP269	ltpFR	9	n/a	n/a	n/a	n/a	n/a	n/a	n/a	n/a	n/a	n/a	n/a	n/a	n/a	n/a	n/a
3095171	WORD	wordpools/wasnorm_wordpool_less_exclusions.txt	LTP269	ltpFR	9	11	0	ANIMAL	23	n/a	1	n/a	0	0	0	1	0.412841796875	0.57763671875	upper	../fonts/amplitud.ttf
3098184	START	n/a	LTP269	ltpFR	9	n/a	n/a	n/a	n/a	n/a	n/a	n/a	n/a	n/a	n/a	n/a	n/a	n/a	n/a	n/a
3099082	PROB	n/a	LTP269	ltpFR	9	n/a	n/a	n/a	n/a	n/a	n/a	12	2	1	9	n/a	n/a	n/a	n/a	n/a
3102028	PROB	n/a	LTP269	ltpFR	9	n/a	n/a	n/a	n/a	n/a	n/a	13	8	2	3	n/a	n/a	n/a	n/a	n/a
3103608	PROB	n/a	LTP269	ltpFR	9	n/a	n/a	n/a	n/a	n/a	n/a	14	5	8	1	n/a	n/a	n/a	n/a	n/a
3105189	STOP	n/a	LTP269	ltpFR	9	n/a	n/a	n/a	n/a	n/a	n/a	n/a	n/a	n/a	n/a	n/a	n/a	n/a	n/a	n/a
3107303	WORD	wordpools/wasnorm_wordpool_less_exclusions.txt	LTP269	ltpFR	9	11	0	CABBAGE	210	n/a	1	n/a	0	0	0	1	0.412841796875	0.57763671875	upper	../fonts/amplitud.ttf
3110316	START	n/a	LTP269	ltpFR	9	n/a	n/a	n/a	n/a	n/a	n/a	n/a	n/a	n/a	n/a	n/a	n/a	n/a	n/a	n/a
3111314	PROB	n/a	LTP269	ltpFR	9	n/a	n/a	n/a	n/a	n/a	n/a	21	9	5	7	n/a	n/a	n/a	n/a	n/a
3113328	PROB	n/a	LTP269	ltpFR	9	n/a	n/a	n/a	n/a	n/a	n/a	9	3	3	3	n/a	n/a	n/a	n/a	n/a
3118316	STOP	n/a	LTP269	ltpFR	9	n/a	n/a	n/a	n/a	n/a	n/a	n/a	n/a	n/a	n/a	n/a	n/a	n/a	n/a	n/a
3120234	REC_START	n/a	LTP269	ltpFR	9	11	n/a	n/a	n/a	n/a	n/a	n/a	0	0	0	n/a	n/a	n/a	n/a	n/a
3129409	REC_WORD_VV	wordpools/wasnorm_wordpool_less_exclusions.txt	LTP269	ltpFR	9	11	n/a	<>	-1	n/a	n/a	n/a	0	0	0	n/a	n/a	n/a	n/a	n/a
3130868	REC_WORD_VV	wordpools/wasnorm_wordpool_less_exclusions.txt	LTP269	ltpFR	9	11	n/a	<>	-1	n/a	n/a	n/a	0	0	0	n/a	n/a	n/a	n/a	n/a
3131417	REC_WORD	wordpools/wasnorm_wordpool_less_exclusions.txt	LTP269	ltpFR	9	11	0	VET	1560	n/a	1	n/a	0	0	0	n/a	n/a	n/a	n/a	n/a
3132588	REC_WORD	wordpools/wasnorm_wordpool_less_exclusions.txt	LTP269	ltpFR	9	11	0	ALBUM	14	n/a	0	n/a	0	0	0	n/a	n/a	n/a	n/a	n/a
3134788	REC_WORD	wordpools/wasnorm_wordpool_less_exclusions.txt	LTP269	ltpFR	9	11	0	TAPE	1433	n/a	0	n/a	0	0	0	n/a	n/a	n/a	n/a	n/a
3139198	REC_WORD	wordpools/wasnorm_wordpool_less_exclusions.txt	LTP269	ltpFR	9	11	0	CABBAGE	210	n/a	1	n/a	0	0	0	n/a	n/a	n/a	n/a	n/a
3195167	REC_WORD_VV	wordpools/wasnorm_wordpool_less_exclusions.txt	LTP269	ltpFR	9	11	n/a	<>	-1	n/a	n/a	n/a	0	0	0	n/a	n/a	n/a	n/a	n/a
3201562	WORD	wordpools/wasnorm_wordpool_less_exclusions.txt	LTP269	ltpFR	9	12	0	BUBBLE	183	n/a	0	n/a	0	0	0	1	0.412841796875	0.57763671875	upper	../fonts/amplitud.ttf
3205672	WORD	wordpools/wasnorm_wordpool_less_exclusions.txt	LTP269	ltpFR	9	12	0	ARCHITECT	36	n/a	1	n/a	0	0	0	1	0.412841796875	0.57763671875	upper	../fonts/amplitud.ttf
3209716	WORD	wordpools/wasnorm_wordpool_less_exclusions.txt	LTP269	ltpFR	9	12	1	SCULPTURE	1258	n/a	0	n/a	0	0	0	0	0.5869140625	0.422607421875	lower	../fonts/zerothre.ttf
3213693	WORD	wordpools/wasnorm_wordpool_less_exclusions.txt	LTP269	ltpFR	9	12	1	TWIG	1527	n/a	0	n/a	0	0	0	0	0.5869140625	0.422607421875	lower	../fonts/zerothre.ttf
3217687	WORD	wordpools/wasnorm_wordpool_less_exclusions.txt	LTP269	ltpFR	9	12	1	MOOSE	915	n/a	1	n/a	0	0	0	0	0.5869140625	0.422607421875	lower	../fonts/zerothre.ttf
3221698	WORD	wordpools/wasnorm_wordpool_less_exclusions.txt	LTP269	ltpFR	9	12	1	BOTTLE	153	n/a	0	n/a	0	0	0	0	0.5869140625	0.422607421875	lower	../fonts/zerothre.ttf
3225542	WORD	wordpools/wasnorm_wordpool_less_exclusions.txt	LTP269	ltpFR	9	12	1	RAIL	1161	n/a	0	n/a	0	0	0	0	0.5869140625	0.422607421875	lower	../fonts/zerothre.ttf
3229603	WORD	wordpools/wasnorm_wordpool_less_exclusions.txt	LTP269	ltpFR	9	12	0	SAW	1239	n/a	1	n/a	0	0	0	1	0.412841796875	0.57763671875	upper	../fonts/amplitud.ttf
3233714	WORD	wordpools/wasnorm_wordpool_less_exclusions.txt	LTP269	ltpFR	9	12	0	OINTMENT	974	n/a	0	n/a	0	0	0	1	0.412841796875	0.57763671875	upper	../fonts/amplitud.ttf
3237658	WORD	wordpools/wasnorm_wordpool_less_exclusions.txt	LTP269	ltpFR	9	12	0	PARENT	1013	n/a	1	n/a	0	0	0	1	0.412841796875	0.57763671875	upper	../fonts/amplitud.ttf
3241585	WORD	wordpools/wasnorm_wordpool_less_exclusions.txt	LTP269	ltpFR	9	12	0	KEEPER	769	n/a	1	n/a	0	0	0	1	0.412841796875	0.57763671875	upper	../fonts/amplitud.ttf
3245596	WORD	wordpools/wasnorm_wordpool_less_exclusions.txt	LTP269	ltpFR	9	12	1	HINGE	709	n/a	0	n/a	0	0	0	0	0.5869140625	0.422607421875	lower	../fonts/zerothre.ttf
3249590	WORD	wordpools/wasnorm_wordpool_less_exclusions.txt	LTP269	ltpFR	9	12	1	CORK	380	n/a	0	n/a	0	0	0	0	0.5869140625	0.422607421875	lower	../fonts/zerothre.ttf
3253717	WORD	wordpools/wasnorm_wordpool_less_exclusions.txt	LTP269	ltpFR	9	12	1	ANTELOPE	27	n/a	1	n/a	0	0	0	0	0.5869140625	0.422607421875	lower	../fonts/zerothre.ttf
3257845	WORD	wordpools/wasnorm_wordpool_less_exclusions.txt	LTP269	ltpFR	9	12	0	CENT	270	n/a	0	n/a	0	0	0	1	0.412841796875	0.57763671875	upper	../fonts/amplitud.ttf
3261922	WORD	wordpools/wasnorm_wordpool_less_exclusions.txt	LTP269	ltpFR	9	12	0	COIN	343	n/a	0	n/a	0	0	0	1	0.412841796875	0.57763671875	upper	../fonts/amplitud.ttf
3264935	START	n/a	LTP269	ltpFR	9	n/a	n/a	n/a	n/a	n/a	n/a	n/a	n/a	n/a	n/a	n/a	n/a	n/a	n/a	n/a
3266099	PROB	n/a	LTP269	ltpFR	9	n/a	n/a	n/a	n/a	n/a	n/a	12	9	2	1	n/a	n/a	n/a	n/a	n/a
3270293	PROB	n/a	LTP269	ltpFR	9	n/a	n/a	n/a	n/a	n/a	n/a	10	2	4	4	n/a	n/a	n/a	n/a	n/a
3272323	PROB	n/a	LTP269	ltpFR	9	n/a	n/a	n/a	n/a	n/a	n/a	5	1	3	1	n/a	n/a	n/a	n/a	n/a
3274304	PROB	n/a	LTP269	ltpFR	9	n/a	n/a	n/a	n/a	n/a	n/a	13	5	5	3	n/a	n/a	n/a	n/a	n/a
3280935	STOP	n/a	LTP269	ltpFR	9	n/a	n/a	n/a	n/a	n/a	n/a	n/a	n/a	n/a	n/a	n/a	n/a	n/a	n/a	n/a
3282825	REC_START	n/a	LTP269	ltpFR	9	12	n/a	n/a	n/a	n/a	n/a	n/a	0	0	0	n/a	n/a	n/a	n/a	n/a
3284402	REC_WORD	wordpools/wasnorm_wordpool_less_exclusions.txt	LTP269	ltpFR	9	12	0	COIN	343	n/a	0	n/a	0	0	0	n/a	n/a	n/a	n/a	n/a
3285338	REC_WORD	wordpools/wasnorm_wordpool_less_exclusions.txt	LTP269	ltpFR	9	12	0	CENT	270	n/a	0	n/a	0	0	0	n/a	n/a	n/a	n/a	n/a
3289662	REC_WORD	wordpools/wasnorm_wordpool_less_exclusions.txt	LTP269	ltpFR	9	12	0	BUBBLE	183	n/a	0	n/a	0	0	0	n/a	n/a	n/a	n/a	n/a
3296412	REC_WORD	wordpools/wasnorm_wordpool_less_exclusions.txt	LTP269	ltpFR	9	12	0	KEEPER	769	n/a	1	n/a	0	0	0	n/a	n/a	n/a	n/a	n/a
3297977	REC_WORD	wordpools/wasnorm_wordpool_less_exclusions.txt	LTP269	ltpFR	9	12	0	PARENT	1013	n/a	1	n/a	0	0	0	n/a	n/a	n/a	n/a	n/a
3298959	REC_WORD	wordpools/wasnorm_wordpool_less_exclusions.txt	LTP269	ltpFR	9	12	0	OINTMENT	974	n/a	0	n/a	0	0	0	n/a	n/a	n/a	n/a	n/a
3379031	REC_START	n/a	LTP269	ltpFR	9	n/a	n/a	n/a	n/a	n/a	n/a	n/a	0	0	0	n/a	n/a	n/a	n/a	n/a
3379754	FFR_REC_WORD	wordpools/wasnorm_wordpool_less_exclusions.txt	LTP269	ltpFR	9	n/a	0	SNORKEL	1336	n/a	0	n/a	0	0	0	n/a	n/a	n/a	n/a	n/a
3381435	FFR_REC_WORD	wordpools/wasnorm_wordpool_less_exclusions.txt	LTP269	ltpFR	9	n/a	0	BUBBLE	183	n/a	0	n/a	0	0	0	n/a	n/a	n/a	n/a	n/a
3382512	FFR_REC_WORD	wordpools/wasnorm_wordpool_less_exclusions.txt	LTP269	ltpFR	9	n/a	0	BUBBLE	183	n/a	0	n/a	0	0	0	n/a	n/a	n/a	n/a	n/a
3385780	FFR_REC_WORD	wordpools/wasnorm_wordpool_less_exclusions.txt	LTP269	ltpFR	9	n/a	0	OX	994	n/a	1	n/a	0	0	0	n/a	n/a	n/a	n/a	n/a
3386818	FFR_REC_WORD	wordpools/wasnorm_wordpool_less_exclusions.txt	LTP269	ltpFR	9	n/a	0	VET	1560	n/a	1	n/a	0	0	0	n/a	n/a	n/a	n/a	n/a
3387956	FFR_REC_WORD	wordpools/wasnorm_wordpool_less_exclusions.txt	LTP269	ltpFR	9	n/a	0	ALBUM	14	n/a	0	n/a	0	0	0	n/a	n/a	n/a	n/a	n/a
3389168	FFR_REC_WORD	wordpools/wasnorm_wordpool_less_exclusions.txt	LTP269	ltpFR	9	n/a	0	TAPE	1433	n/a	0	n/a	0	0	0	n/a	n/a	n/a	n/a	n/a
3390904	FFR_REC_WORD	wordpools/wasnorm_wordpool_less_exclusions.txt	LTP269	ltpFR	9	n/a	0	DINNER	468	n/a	0	n/a	0	0	0	n/a	n/a	n/a	n/a	n/a
3391677	FFR_REC_WORD	wordpools/wasnorm_wordpool_less_exclusions.txt	LTP269	ltpFR	9	n/a	0	SUPPER	1411	n/a	0	n/a	0	0	0	n/a	n/a	n/a	n/a	n/a
3392515	FFR_REC_WORD	wordpools/wasnorm_wordpool_less_exclusions.txt	LTP269	ltpFR	9	n/a	0	RESTAURANT	1187	n/a	1	n/a	0	0	0	n/a	n/a	n/a	n/a	n/a
3393318	FFR_REC_WORD	wordpools/wasnorm_wordpool_less_exclusions.txt	LTP269	ltpFR	9	n/a	0	WAITER	1580	n/a	1	n/a	0	0	0	n/a	n/a	n/a	n/a	n/a
3395439	FFR_REC_WORD	wordpools/wasnorm_wordpool_less_exclusions.txt	LTP269	ltpFR	9	n/a	0	BUTLER	204	n/a	1	n/a	0	0	0	n/a	n/a	n/a	n/a	n/a
3397828	FFR_REC_WORD	wordpools/wasnorm_wordpool_less_exclusions.txt	LTP269	ltpFR	9	n/a	1	LIEUTENANT	818	n/a	1	n/a	0	0	0	n/a	n/a	n/a	n/a	n/a
3399105	FFR_REC_WORD	wordpools/wasnorm_wordpool_less_exclusions.txt	LTP269	ltpFR	9	n/a	1	TANK	1432	n/a	0	n/a	0	0	0	n/a	n/a	n/a	n/a	n/a
3399976	FFR_REC_WORD	wordpools/wasnorm_wordpool_less_exclusions.txt	LTP269	ltpFR	9	n/a	1	CORAL	378	n/a	1	n/a	0	0	0	n/a	n/a	n/a	n/a	n/a
3403989	FFR_REC_WORD	wordpools/wasnorm_wordpool_less_exclusions.txt	LTP269	ltpFR	9	n/a	1	MULE	931	n/a	1	n/a	0	0	0	n/a	n/a	n/a	n/a	n/a
3404857	FFR_REC_WORD	wordpools/wasnorm_wordpool_less_exclusions.txt	LTP269	ltpFR	9	n/a	0	ZEBRA	1635	n/a	1	n/a	0	0	0	n/a	n/a	n/a	n/a	n/a
3411299	FFR_REC_WORD	wordpools/wasnorm_wordpool_less_exclusions.txt	LTP269	ltpFR	9	n/a	n/a	SHEET	1279	n/a	n/a	n/a	0	0	0	n/a	n/a	n/a	n/a	n/a
3415388	FFR_REC_WORD	wordpools/wasnorm_wordpool_less_exclusions.txt	LTP269	ltpFR	9	n/a	0	LOBSTER	837	n/a	1	n/a	0	0	0	n/a	n/a	n/a	n/a	n/a
3416820	FFR_REC_WORD	wordpools/wasnorm_wordpool_less_exclusions.txt	LTP269	ltpFR	9	n/a	0	SCALLOP	1242	n/a	0	n/a	0	0	0	n/a	n/a	n/a	n/a	n/a
3421489	FFR_REC_WORD	wordpools/wasnorm_wordpool_less_exclusions.txt	LTP269	ltpFR	9	n/a	0	OYSTER	995	n/a	1	n/a	0	0	0	n/a	n/a	n/a	n/a	n/a
3434285	FFR_REC_WORD	wordpools/wasnorm_wordpool_less_exclusions.txt	LTP269	ltpFR	9	n/a	0	RESORT	1186	n/a	1	n/a	0	0	0	n/a	n/a	n/a	n/a	n/a
3436774	FFR_REC_WORD	wordpools/wasnorm_wordpool_less_exclusions.txt	LTP269	ltpFR	9	n/a	0	MEADOW	881	n/a	1	n/a	0	0	0	n/a	n/a	n/a	n/a	n/a
3439598	FFR_REC_WORD	wordpools/wasnorm_wordpool_less_exclusions.txt	LTP269	ltpFR	9	n/a	0	FARM	552	n/a	1	n/a	0	0	0	n/a	n/a	n/a	n/a	n/a
3441045	FFR_REC_WORD	wordpools/wasnorm_wordpool_less_exclusions.txt	LTP269	ltpFR	9	n/a	1	CHEF	290	n/a	1	n/a	0	0	0	n/a	n/a	n/a	n/a	n/a
3443724	FFR_REC_WORD	wordpools/wasnorm_wordpool_less_exclusions.txt	LTP269	ltpFR	9	n/a	0	TURNIP	1521	n/a	0	n/a	0	0	0	n/a	n/a	n/a	n/a	n/a
3444886	FFR_REC_WORD	wordpools/wasnorm_wordpool_less_exclusions.txt	LTP269	ltpFR	9	n/a	0	BLACKBERRY	132	n/a	0	n/a	0	0	0	n/a	n/a	n/a	n/a	n/a
3490268	FFR_REC_WORD	wordpools/wasnorm_wordpool_less_exclusions.txt	LTP269	ltpFR	9	n/a	1	CHILD	299	n/a	1	n/a	0	0	0	n/a	n/a	n/a	n/a	n/a
3491779	FFR_REC_WORD	wordpools/wasnorm_wordpool_less_exclusions.txt	LTP269	ltpFR	9	n/a	n/a	ROCK	1201	n/a	n/a	n/a	0	0	0	n/a	n/a	n/a	n/a	n/a
3499916	FFR_REC_WORD	wordpools/wasnorm_wordpool_less_exclusions.txt	LTP269	ltpFR	9	n/a	0	ANIMAL	23	n/a	1	n/a	0	0	0	n/a	n/a	n/a	n/a	n/a
3598327	FFR_REC_WORD	wordpools/wasnorm_wordpool_less_exclusions.txt	LTP269	ltpFR	9	n/a	0	RICE	1190	n/a	0	n/a	0	0	0	n/a	n/a	n/a	n/a	n/a
3645638	FFR_REC_WORD	wordpools/wasnorm_wordpool_less_exclusions.txt	LTP269	ltpFR	9	n/a	0	KEEPER	769	n/a	1	n/a	0	0	0	n/a	n/a	n/a	n/a	n/a
3646293	FFR_REC_WORD	wordpools/wasnorm_wordpool_less_exclusions.txt	LTP269	ltpFR	9	n/a	1	GUARDIAN	668	n/a	1	n/a	0	0	0	n/a	n/a	n/a	n/a	n/a
3647022	FFR_REC_WORD	wordpools/wasnorm_wordpool_less_exclusions.txt	LTP269	ltpFR	9	n/a	0	PARENT	1013	n/a	1	n/a	0	0	0	n/a	n/a	n/a	n/a	n/a
4074077	REC_START	n/a	LTP269	ltpFR	9	1	n/a	n/a	n/a	n/a	n/a	n/a	0	0	0	n/a	n/a	n/a	n/a	n/a
4074110	RECOG_LURE	n/a	LTP269	ltpFR	9	1	n/a	SMOG	1330	5	n/a	n/a	0	0	0	n/a	n/a	n/a	n/a	n/a
4076527	RECOG_RESP	n/a	LTP269	ltpFR	9	1	n/a	SMOG	1330	n/a	n/a	n/a	0	0	0	n/a	n/a	n/a	n/a	n/a
4078357	RECOG_CONF	n/a	LTP269	ltpFR	9	1	n/a	SMOG	1330	5	n/a	n/a	0	0	0	n/a	n/a	n/a	n/a	n/a
4080267	RECOG_LURE	n/a	LTP269	ltpFR	9	1	n/a	CONCRETE	361	3	n/a	n/a	0	0	0	n/a	n/a	n/a	n/a	n/a
4081282	RECOG_RESP	n/a	LTP269	ltpFR	9	1	n/a	CONCRETE	361	n/a	n/a	n/a	0	0	0	n/a	n/a	n/a	n/a	n/a
4082147	RECOG_CONF	n/a	LTP269	ltpFR	9	1	n/a	CONCRETE	361	3	n/a	n/a	0	0	0	n/a	n/a	n/a	n/a	n/a
4083578	RECOG_TARGET	n/a	LTP269	ltpFR	9	1	0	ZEBRA	1635	4	1	n/a	0	0	0	n/a	n/a	n/a	n/a	n/a
4084372	RECOG_RESP	n/a	LTP269	ltpFR	9	1	0	ZEBRA	1635	n/a	1	n/a	0	0	0	n/a	n/a	n/a	n/a	n/a
4085007	RECOG_CONF	n/a	LTP269	ltpFR	9	1	0	ZEBRA	1635	4	1	n/a	0	0	0	n/a	n/a	n/a	n/a	n/a
4086623	RECOG_TARGET	n/a	LTP269	ltpFR	9	1	0	YACHT	1629	4	1	n/a	0	0	0	n/a	n/a	n/a	n/a	n/a
4087237	RECOG_RESP	n/a	LTP269	ltpFR	9	1	0	YACHT	1629	n/a	1	n/a	0	0	0	n/a	n/a	n/a	n/a	n/a
4087787	RECOG_CONF	n/a	LTP269	ltpFR	9	1	0	YACHT	1629	4	1	n/a	0	0	0	n/a	n/a	n/a	n/a	n/a
4089452	RECOG_LURE	n/a	LTP269	ltpFR	9	1	n/a	BASSINET	97	4	n/a	n/a	0	0	0	n/a	n/a	n/a	n/a	n/a
4090247	RECOG_RESP	n/a	LTP269	ltpFR	9	1	n/a	BASSINET	97	n/a	n/a	n/a	0	0	0	n/a	n/a	n/a	n/a	n/a
4090977	RECOG_CONF	n/a	LTP269	ltpFR	9	1	n/a	BASSINET	97	4	n/a	n/a	0	0	0	n/a	n/a	n/a	n/a	n/a
4092531	RECOG_LURE	n/a	LTP269	ltpFR	9	1	n/a	BREAD	170	3	n/a	n/a	0	0	0	n/a	n/a	n/a	n/a	n/a
4093747	RECOG_RESP	n/a	LTP269	ltpFR	9	1	n/a	BREAD	170	n/a	n/a	n/a	0	0	0	n/a	n/a	n/a	n/a	n/a
4094347	RECOG_CONF	n/a	LTP269	ltpFR	9	1	n/a	BREAD	170	3	n/a	n/a	0	0	0	n/a	n/a	n/a	n/a	n/a
4095860	RECOG_LURE	n/a	LTP269	ltpFR	9	1	n/a	VEGETABLE	1552	4	n/a	n/a	0	0	0	n/a	n/a	n/a	n/a	n/a
4096707	RECOG_RESP	n/a	LTP269	ltpFR	9	1	n/a	VEGETABLE	1552	n/a	n/a	n/a	0	0	0	n/a	n/a	n/a	n/a	n/a
4097267	RECOG_CONF	n/a	LTP269	ltpFR	9	1	n/a	VEGETABLE	1552	4	n/a	n/a	0	0	0	n/a	n/a	n/a	n/a	n/a
4098823	RECOG_TARGET	n/a	LTP269	ltpFR	9	1	0	ARCHITECT	36	3	1	n/a	0	0	0	n/a	n/a	n/a	n/a	n/a
4099567	RECOG_RESP	n/a	LTP269	ltpFR	9	1	0	ARCHITECT	36	n/a	1	n/a	0	0	0	n/a	n/a	n/a	n/a	n/a
4100117	RECOG_CONF	n/a	LTP269	ltpFR	9	1	0	ARCHITECT	36	3	1	n/a	0	0	0	n/a	n/a	n/a	n/a	n/a
4101717	RECOG_LURE	n/a	LTP269	ltpFR	9	1	n/a	ISLAND	745	3	n/a	n/a	0	0	0	n/a	n/a	n/a	n/a	n/a
4102662	RECOG_RESP	n/a	LTP269	ltpFR	9	1	n/a	ISLAND	745	n/a	n/a	n/a	0	0	0	n/a	n/a	n/a	n/a	n/a
4103222	RECOG_CONF	n/a	LTP269	ltpFR	9	1	n/a	ISLAND	745	3	n/a	n/a	0	0	0	n/a	n/a	n/a	n/a	n/a
4104729	RECOG_TARGET	n/a	LTP269	ltpFR	9	1	1	BATHTUB	100	4	0	n/a	0	0	0	n/a	n/a	n/a	n/a	n/a
4105477	RECOG_RESP	n/a	LTP269	ltpFR	9	1	1	BATHTUB	100	n/a	0	n/a	0	0	0	n/a	n/a	n/a	n/a	n/a
4105912	RECOG_CONF	n/a	LTP269	ltpFR	9	1	1	BATHTUB	100	4	0	n/a	0	0	0	n/a	n/a	n/a	n/a	n/a
4107708	RECOG_TARGET	n/a	LTP269	ltpFR	9	1	1	CUE	422	5	0	n/a	0	0	0	n/a	n/a	n/a	n/a	n/a
4108480	RECOG_RESP	n/a	LTP269	ltpFR	9	1	1	CUE	422	n/a	0	n/a	0	0	0	n/a	n/a	n/a	n/a	n/a
4109057	RECOG_CONF	n/a	LTP269	ltpFR	9	1	1	CUE	422	5	0	n/a	0	0	0	n/a	n/a	n/a	n/a	n/a
4110721	RECOG_TARGET	n/a	LTP269	ltpFR	9	1	1	TOILET	1475	3	0	n/a	0	0	0	n/a	n/a	n/a	n/a	n/a
4111727	RECOG_RESP	n/a	LTP269	ltpFR	9	1	1	TOILET	1475	n/a	0	n/a	0	0	0	n/a	n/a	n/a	n/a	n/a
4112247	RECOG_CONF	n/a	LTP269	ltpFR	9	1	1	TOILET	1475	3	0	n/a	0	0	0	n/a	n/a	n/a	n/a	n/a
4113967	RECOG_TARGET	n/a	LTP269	ltpFR	9	1	0	CHEERLEADER	288	4	1	n/a	0	0	0	n/a	n/a	n/a	n/a	n/a
4114822	RECOG_RESP	n/a	LTP269	ltpFR	9	1	0	CHEERLEADER	288	n/a	1	n/a	0	0	0	n/a	n/a	n/a	n/a	n/a
4115287	RECOG_CONF	n/a	LTP269	ltpFR	9	1	0	CHEERLEADER	288	4	1	n/a	0	0	0	n/a	n/a	n/a	n/a	n/a
4116896	RECOG_TARGET	n/a	LTP269	ltpFR	9	1	0	TAPE	1433	2	0	n/a	0	0	0	n/a	n/a	n/a	n/a	n/a
4118347	RECOG_RESP	n/a	LTP269	ltpFR	9	1	0	TAPE	1433	n/a	0	n/a	0	0	0	n/a	n/a	n/a	n/a	n/a
4118997	RECOG_CONF	n/a	LTP269	ltpFR	9	1	0	TAPE	1433	2	0	n/a	0	0	0	n/a	n/a	n/a	n/a	n/a
4120656	RECOG_TARGET	n/a	LTP269	ltpFR	9	1	1	CASHIER	254	4	1	n/a	0	0	0	n/a	n/a	n/a	n/a	n/a
4121507	RECOG_RESP	n/a	LTP269	ltpFR	9	1	1	CASHIER	254	n/a	1	n/a	0	0	0	n/a	n/a	n/a	n/a	n/a
4122067	RECOG_CONF	n/a	LTP269	ltpFR	9	1	1	CASHIER	254	4	1	n/a	0	0	0	n/a	n/a	n/a	n/a	n/a
4123618	RECOG_TARGET	n/a	LTP269	ltpFR	9	1	1	PURSE	1145	5	0	n/a	0	0	0	n/a	n/a	n/a	n/a	n/a
4124447	RECOG_RESP	n/a	LTP269	ltpFR	9	1	1	PURSE	1145	n/a	0	n/a	0	0	0	n/a	n/a	n/a	n/a	n/a
4124947	RECOG_CONF	n/a	LTP269	ltpFR	9	1	1	PURSE	1145	5	0	n/a	0	0	0	n/a	n/a	n/a	n/a	n/a
4126630	RECOG_LURE	n/a	LTP269	ltpFR	9	1	n/a	STRANGER	1389	2	n/a	n/a	0	0	0	n/a	n/a	n/a	n/a	n/a
4128152	RECOG_RESP	n/a	LTP269	ltpFR	9	1	n/a	STRANGER	1389	n/a	n/a	n/a	0	0	0	n/a	n/a	n/a	n/a	n/a
4128852	RECOG_CONF	n/a	LTP269	ltpFR	9	1	n/a	STRANGER	1389	2	n/a	n/a	0	0	0	n/a	n/a	n/a	n/a	n/a
4130326	RECOG_LURE	n/a	LTP269	ltpFR	9	1	n/a	WAREHOUSE	1588	2	n/a	n/a	0	0	0	n/a	n/a	n/a	n/a	n/a
4131427	RECOG_RESP	n/a	LTP269	ltpFR	9	1	n/a	WAREHOUSE	1588	n/a	n/a	n/a	0	0	0	n/a	n/a	n/a	n/a	n/a
4132202	RECOG_CONF	n/a	LTP269	ltpFR	9	1	n/a	WAREHOUSE	1588	2	n/a	n/a	0	0	0	n/a	n/a	n/a	n/a	n/a
4133904	RECOG_TARGET	n/a	LTP269	ltpFR	9	1	0	SHOVEL	1295	3	1	n/a	0	0	0	n/a	n/a	n/a	n/a	n/a
4134832	RECOG_RESP	n/a	LTP269	ltpFR	9	1	0	SHOVEL	1295	n/a	1	n/a	0	0	0	n/a	n/a	n/a	n/a	n/a
4135577	RECOG_CONF	n/a	LTP269	ltpFR	9	1	0	SHOVEL	1295	3	1	n/a	0	0	0	n/a	n/a	n/a	n/a	n/a
4137115	RECOG_LURE	n/a	LTP269	ltpFR	9	1	n/a	BEAN	105	2	n/a	n/a	0	0	0	n/a	n/a	n/a	n/a	n/a
4138487	RECOG_RESP	n/a	LTP269	ltpFR	9	1	n/a	BEAN	105	n/a	n/a	n/a	0	0	0	n/a	n/a	n/a	n/a	n/a
4140147	RECOG_CONF	n/a	LTP269	ltpFR	9	1	n/a	BEAN	105	2	n/a	n/a	0	0	0	n/a	n/a	n/a	n/a	n/a
4144543	REC_START	n/a	LTP269	ltpFR	9	2	n/a	n/a	n/a	n/a	n/a	n/a	0	0	0	n/a	n/a	n/a	n/a	n/a
4144570	RECOG_LURE	n/a	LTP269	ltpFR	9	2	n/a	THIGH	1457	3	n/a	n/a	0	0	0	n/a	n/a	n/a	n/a	n/a
4145708	RECOG_RESP	n/a	LTP269	ltpFR	9	2	n/a	THIGH	1457	n/a	n/a	n/a	0	0	0	n/a	n/a	n/a	n/a	n/a
4146263	RECOG_CONF	n/a	LTP269	ltpFR	9	2	n/a	THIGH	1457	3	n/a	n/a	0	0	0	n/a	n/a	n/a	n/a	n/a
4147816	RECOG_LURE	n/a	LTP269	ltpFR	9	2	n/a	OUTLAW	989	3	n/a	n/a	0	0	0	n/a	n/a	n/a	n/a	n/a
4148688	RECOG_RESP	n/a	LTP269	ltpFR	9	2	n/a	OUTLAW	989	n/a	n/a	n/a	0	0	0	n/a	n/a	n/a	n/a	n/a
4149303	RECOG_CONF	n/a	LTP269	ltpFR	9	2	n/a	OUTLAW	989	3	n/a	n/a	0	0	0	n/a	n/a	n/a	n/a	n/a
4150761	RECOG_LURE	n/a	LTP269	ltpFR	9	2	n/a	PAVEMENT	1028	2	n/a	n/a	0	0	0	n/a	n/a	n/a	n/a	n/a
4151693	RECOG_RESP	n/a	LTP269	ltpFR	9	2	n/a	PAVEMENT	1028	n/a	n/a	n/a	0	0	0	n/a	n/a	n/a	n/a	n/a
4152253	RECOG_CONF	n/a	LTP269	ltpFR	9	2	n/a	PAVEMENT	1028	2	n/a	n/a	0	0	0	n/a	n/a	n/a	n/a	n/a
4153791	RECOG_TARGET	n/a	LTP269	ltpFR	9	2	0	CREATURE	403	4	1	n/a	0	0	0	n/a	n/a	n/a	n/a	n/a
4154813	RECOG_RESP	n/a	LTP269	ltpFR	9	2	0	CREATURE	403	n/a	1	n/a	0	0	0	n/a	n/a	n/a	n/a	n/a
4155343	RECOG_CONF	n/a	LTP269	ltpFR	9	2	0	CREATURE	403	4	1	n/a	0	0	0	n/a	n/a	n/a	n/a	n/a
4156936	RECOG_TARGET	n/a	LTP269	ltpFR	9	2	0	OBOE	969	3	1	n/a	0	0	0	n/a	n/a	n/a	n/a	n/a
4158043	RECOG_RESP	n/a	LTP269	ltpFR	9	2	0	OBOE	969	n/a	1	n/a	0	0	0	n/a	n/a	n/a	n/a	n/a
4158853	RECOG_CONF	n/a	LTP269	ltpFR	9	2	0	OBOE	969	3	1	n/a	0	0	0	n/a	n/a	n/a	n/a	n/a
4160381	RECOG_TARGET	n/a	LTP269	ltpFR	9	2	1	CRITIC	410	4	1	n/a	0	0	0	n/a	n/a	n/a	n/a	n/a
4161483	RECOG_RESP	n/a	LTP269	ltpFR	9	2	1	CRITIC	410	n/a	1	n/a	0	0	0	n/a	n/a	n/a	n/a	n/a
4161938	RECOG_CONF	n/a	LTP269	ltpFR	9	2	1	CRITIC	410	4	1	n/a	0	0	0	n/a	n/a	n/a	n/a	n/a
4163641	RECOG_LURE	n/a	LTP269	ltpFR	9	2	n/a	GANG	619	2	n/a	n/a	0	0	0	n/a	n/a	n/a	n/a	n/a
4164523	RECOG_RESP	n/a	LTP269	ltpFR	9	2	n/a	GANG	619	n/a	n/a	n/a	0	0	0	n/a	n/a	n/a	n/a	n/a
4164973	RECOG_CONF	n/a	LTP269	ltpFR	9	2	n/a	GANG	619	2	n/a	n/a	0	0	0	n/a	n/a	n/a	n/a	n/a
4166654	RECOG_LURE	n/a	LTP269	ltpFR	9	2	n/a	BELL	118	3	n/a	n/a	0	0	0	n/a	n/a	n/a	n/a	n/a
4167738	RECOG_RESP	n/a	LTP269	ltpFR	9	2	n/a	BELL	118	n/a	n/a	n/a	0	0	0	n/a	n/a	n/a	n/a	n/a
4168183	RECOG_CONF	n/a	LTP269	ltpFR	9	2	n/a	BELL	118	3	n/a	n/a	0	0	0	n/a	n/a	n/a	n/a	n/a
4169850	RECOG_LURE	n/a	LTP269	ltpFR	9	2	n/a	TICK	1463	3	n/a	n/a	0	0	0	n/a	n/a	n/a	n/a	n/a
4170753	RECOG_RESP	n/a	LTP269	ltpFR	9	2	n/a	TICK	1463	n/a	n/a	n/a	0	0	0	n/a	n/a	n/a	n/a	n/a
4171373	RECOG_CONF	n/a	LTP269	ltpFR	9	2	n/a	TICK	1463	3	n/a	n/a	0	0	0	n/a	n/a	n/a	n/a	n/a
4172895	RECOG_TARGET	n/a	LTP269	ltpFR	9	2	1	FAMILY	550	4	1	n/a	0	0	0	n/a	n/a	n/a	n/a	n/a
4173898	RECOG_RESP	n/a	LTP269	ltpFR	9	2	1	FAMILY	550	n/a	1	n/a	0	0	0	n/a	n/a	n/a	n/a	n/a
4174323	RECOG_CONF	n/a	LTP269	ltpFR	9	2	1	FAMILY	550	4	1	n/a	0	0	0	n/a	n/a	n/a	n/a	n/a
4175941	RECOG_LURE	n/a	LTP269	ltpFR	9	2	n/a	MEDAL	885	3	n/a	n/a	0	0	0	n/a	n/a	n/a	n/a	n/a
4176793	RECOG_RESP	n/a	LTP269	ltpFR	9	2	n/a	MEDAL	885	n/a	n/a	n/a	0	0	0	n/a	n/a	n/a	n/a	n/a
4177353	RECOG_CONF	n/a	LTP269	ltpFR	9	2	n/a	MEDAL	885	3	n/a	n/a	0	0	0	n/a	n/a	n/a	n/a	n/a
4179020	RECOG_LURE	n/a	LTP269	ltpFR	9	2	n/a	CARD	243	2	n/a	n/a	0	0	0	n/a	n/a	n/a	n/a	n/a
4179748	RECOG_RESP	n/a	LTP269	ltpFR	9	2	n/a	CARD	243	n/a	n/a	n/a	0	0	0	n/a	n/a	n/a	n/a	n/a
4180603	RECOG_CONF	n/a	LTP269	ltpFR	9	2	n/a	CARD	243	2	n/a	n/a	0	0	0	n/a	n/a	n/a	n/a	n/a
4181998	RECOG_LURE	n/a	LTP269	ltpFR	9	2	n/a	HAMMOCK	681	4	n/a	n/a	0	0	0	n/a	n/a	n/a	n/a	n/a
4184323	RECOG_RESP	n/a	LTP269	ltpFR	9	2	n/a	HAMMOCK	681	n/a	n/a	n/a	0	0	0	n/a	n/a	n/a	n/a	n/a
