onset	duration	trial_type	sample	stim_file	subject	experiment	session	trial	task	item_name	item_num	recog_conf	resp	answer	test_x	test_y	test_z	color_b	color_g	color_r	case	font
244.458	n/a	SESS_START	122229	n/a	LTP246	ltpFR	8	n/a	n/a	n/a	n/a	5	n/a	n/a	0	0	0	n/a	n/a	n/a	n/a	n/a
283.996	n/a	START	141998	n/a	LTP246	ltpFR	8	n/a	n/a	n/a	n/a	n/a	n/a	n/a	n/a	n/a	n/a	n/a	n/a	n/a	n/a	n/a
284.03	n/a	PROB	142015	n/a	LTP246	ltpFR	8	n/a	n/a	n/a	n/a	n/a	n/a	18	6	6	6	n/a	n/a	n/a	n/a	n/a
285.646	n/a	PROB	142823	n/a	LTP246	ltpFR	8	n/a	n/a	n/a	n/a	n/a	n/a	20	5	9	6	n/a	n/a	n/a	n/a	n/a
295.448	n/a	PROB	147724	n/a	LTP246	ltpFR	8	n/a	n/a	n/a	n/a	n/a	n/a	15	5	5	5	n/a	n/a	n/a	n/a	n/a
296.628	n/a	PROB	148314	n/a	LTP246	ltpFR	8	n/a	n/a	n/a	n/a	n/a	n/a	18	7	9	2	n/a	n/a	n/a	n/a	n/a
298.66	n/a	PROB	149330	n/a	LTP246	ltpFR	8	n/a	n/a	n/a	n/a	n/a	n/a	24	6	6	8	n/a	n/a	n/a	n/a	n/a
303.996	n/a	STOP	151998	n/a	LTP246	ltpFR	8	n/a	n/a	n/a	n/a	n/a	n/a	n/a	n/a	n/a	n/a	n/a	n/a	n/a	n/a	n/a
356.308	n/a	START	178154	n/a	LTP246	ltpFR	8	n/a	n/a	n/a	n/a	n/a	n/a	n/a	n/a	n/a	n/a	n/a	n/a	n/a	n/a	n/a
357.822	n/a	PROB	178911	n/a	LTP246	ltpFR	8	n/a	n/a	n/a	n/a	n/a	n/a	17	9	6	2	n/a	n/a	n/a	n/a	n/a
361.134	n/a	PROB	180567	n/a	LTP246	ltpFR	8	n/a	n/a	n/a	n/a	n/a	n/a	21	6	6	9	n/a	n/a	n/a	n/a	n/a
363.018	n/a	STOP	181509	n/a	LTP246	ltpFR	8	n/a	n/a	n/a	n/a	n/a	n/a	n/a	n/a	n/a	n/a	n/a	n/a	n/a	n/a	n/a
365.394	n/a	WORD	182697	wordpools/wasnorm_wordpool_less_exclusions.txt	LTP246	ltpFR	8	1	1	SHOWER	1296	n/a	0	n/a	0	0	0	1	0.412841796875	0.57763671875	upper	../fonts/amplitud.ttf
368.406	n/a	START	184203	n/a	LTP246	ltpFR	8	n/a	n/a	n/a	n/a	n/a	n/a	n/a	n/a	n/a	n/a	n/a	n/a	n/a	n/a	n/a
369.538	n/a	PROB	184769	n/a	LTP246	ltpFR	8	n/a	n/a	n/a	n/a	n/a	n/a	18	4	5	9	n/a	n/a	n/a	n/a	n/a
371.218	n/a	PROB	185609	n/a	LTP246	ltpFR	8	n/a	n/a	n/a	n/a	n/a	n/a	16	6	2	8	n/a	n/a	n/a	n/a	n/a
373.048	n/a	PROB	186524	n/a	LTP246	ltpFR	8	n/a	n/a	n/a	n/a	n/a	n/a	19	4	9	6	n/a	n/a	n/a	n/a	n/a
375.106	n/a	STOP	187553	n/a	LTP246	ltpFR	8	n/a	n/a	n/a	n/a	n/a	n/a	n/a	n/a	n/a	n/a	n/a	n/a	n/a	n/a	n/a
377.342	n/a	WORD	188671	wordpools/wasnorm_wordpool_less_exclusions.txt	LTP246	ltpFR	8	1	1	NAPKIN	937	n/a	0	n/a	0	0	0	1	0.412841796875	0.57763671875	upper	../fonts/amplitud.ttf
380.356	n/a	START	190178	n/a	LTP246	ltpFR	8	n/a	n/a	n/a	n/a	n/a	n/a	n/a	n/a	n/a	n/a	n/a	n/a	n/a	n/a	n/a
381.32	n/a	PROB	190660	n/a	LTP246	ltpFR	8	n/a	n/a	n/a	n/a	n/a	n/a	11	3	1	7	n/a	n/a	n/a	n/a	n/a
383.468	n/a	PROB	191734	n/a	LTP246	ltpFR	8	n/a	n/a	n/a	n/a	n/a	n/a	19	1	9	9	n/a	n/a	n/a	n/a	n/a
388.356	n/a	STOP	194178	n/a	LTP246	ltpFR	8	n/a	n/a	n/a	n/a	n/a	n/a	n/a	n/a	n/a	n/a	n/a	n/a	n/a	n/a	n/a
389.458	n/a	WORD	194729	wordpools/wasnorm_wordpool_less_exclusions.txt	LTP246	ltpFR	8	1	1	BUTLER	204	n/a	1	n/a	0	0	0	1	0.412841796875	0.57763671875	upper	../fonts/amplitud.ttf
392.472	n/a	START	196236	n/a	LTP246	ltpFR	8	n/a	n/a	n/a	n/a	n/a	n/a	n/a	n/a	n/a	n/a	n/a	n/a	n/a	n/a	n/a
393.452	n/a	PROB	196726	n/a	LTP246	ltpFR	8	n/a	n/a	n/a	n/a	n/a	n/a	10	8	1	1	n/a	n/a	n/a	n/a	n/a
395.084	n/a	PROB	197542	n/a	LTP246	ltpFR	8	n/a	n/a	n/a	n/a	n/a	n/a	14	8	3	3	n/a	n/a	n/a	n/a	n/a
400.472	n/a	STOP	200236	n/a	LTP246	ltpFR	8	n/a	n/a	n/a	n/a	n/a	n/a	n/a	n/a	n/a	n/a	n/a	n/a	n/a	n/a	n/a
401.424	n/a	WORD	200712	wordpools/wasnorm_wordpool_less_exclusions.txt	LTP246	ltpFR	8	1	1	SPAGHETTI	1346	n/a	0	n/a	0	0	0	1	0.412841796875	0.57763671875	upper	../fonts/amplitud.ttf
404.436	n/a	START	202218	n/a	LTP246	ltpFR	8	n/a	n/a	n/a	n/a	n/a	n/a	n/a	n/a	n/a	n/a	n/a	n/a	n/a	n/a	n/a
405.518	n/a	PROB	202759	n/a	LTP246	ltpFR	8	n/a	n/a	n/a	n/a	n/a	n/a	9	1	6	2	n/a	n/a	n/a	n/a	n/a
408.596	n/a	PROB	204298	n/a	LTP246	ltpFR	8	n/a	n/a	n/a	n/a	n/a	n/a	16	5	4	7	n/a	n/a	n/a	n/a	n/a
411.69	n/a	STOP	205845	n/a	LTP246	ltpFR	8	n/a	n/a	n/a	n/a	n/a	n/a	n/a	n/a	n/a	n/a	n/a	n/a	n/a	n/a	n/a
413.622	n/a	WORD	206811	wordpools/wasnorm_wordpool_less_exclusions.txt	LTP246	ltpFR	8	1	1	SHARK	1275	n/a	1	n/a	0	0	0	1	0.412841796875	0.57763671875	upper	../fonts/amplitud.ttf
416.636	n/a	START	208318	n/a	LTP246	ltpFR	8	n/a	n/a	n/a	n/a	n/a	n/a	n/a	n/a	n/a	n/a	n/a	n/a	n/a	n/a	n/a
417.616	n/a	PROB	208808	n/a	LTP246	ltpFR	8	n/a	n/a	n/a	n/a	n/a	n/a	14	1	4	9	n/a	n/a	n/a	n/a	n/a
420.162	n/a	PROB	210081	n/a	LTP246	ltpFR	8	n/a	n/a	n/a	n/a	n/a	n/a	10	6	1	3	n/a	n/a	n/a	n/a	n/a
422.194	n/a	PROB	211097	n/a	LTP246	ltpFR	8	n/a	n/a	n/a	n/a	n/a	n/a	20	9	5	6	n/a	n/a	n/a	n/a	n/a
423.914	n/a	STOP	211957	n/a	LTP246	ltpFR	8	n/a	n/a	n/a	n/a	n/a	n/a	n/a	n/a	n/a	n/a	n/a	n/a	n/a	n/a	n/a
425.704	n/a	WORD	212852	wordpools/wasnorm_wordpool_less_exclusions.txt	LTP246	ltpFR	8	1	1	LINEN	825	n/a	0	n/a	0	0	0	1	0.412841796875	0.57763671875	upper	../fonts/amplitud.ttf
428.718	n/a	START	214359	n/a	LTP246	ltpFR	8	n/a	n/a	n/a	n/a	n/a	n/a	n/a	n/a	n/a	n/a	n/a	n/a	n/a	n/a	n/a
429.866	n/a	PROB	214933	n/a	LTP246	ltpFR	8	n/a	n/a	n/a	n/a	n/a	n/a	8	1	1	6	n/a	n/a	n/a	n/a	n/a
431.23	n/a	PROB	215615	n/a	LTP246	ltpFR	8	n/a	n/a	n/a	n/a	n/a	n/a	14	4	1	9	n/a	n/a	n/a	n/a	n/a
434.408	n/a	PROB	217204	n/a	LTP246	ltpFR	8	n/a	n/a	n/a	n/a	n/a	n/a	11	8	1	2	n/a	n/a	n/a	n/a	n/a
436.314	n/a	STOP	218157	n/a	LTP246	ltpFR	8	n/a	n/a	n/a	n/a	n/a	n/a	n/a	n/a	n/a	n/a	n/a	n/a	n/a	n/a	n/a
437.804	n/a	WORD	218902	wordpools/wasnorm_wordpool_less_exclusions.txt	LTP246	ltpFR	8	1	1	STALLION	1369	n/a	1	n/a	0	0	0	1	0.412841796875	0.57763671875	upper	../fonts/amplitud.ttf
440.816	n/a	START	220408	n/a	LTP246	ltpFR	8	n/a	n/a	n/a	n/a	n/a	n/a	n/a	n/a	n/a	n/a	n/a	n/a	n/a	n/a	n/a
441.78	n/a	PROB	220890	n/a	LTP246	ltpFR	8	n/a	n/a	n/a	n/a	n/a	n/a	17	9	5	3	n/a	n/a	n/a	n/a	n/a
444.56	n/a	PROB	222280	n/a	LTP246	ltpFR	8	n/a	n/a	n/a	n/a	n/a	n/a	10	8	1	1	n/a	n/a	n/a	n/a	n/a
446.108	n/a	PROB	223054	n/a	LTP246	ltpFR	8	n/a	n/a	n/a	n/a	n/a	n/a	15	8	6	1	n/a	n/a	n/a	n/a	n/a
448.706	n/a	STOP	224353	n/a	LTP246	ltpFR	8	n/a	n/a	n/a	n/a	n/a	n/a	n/a	n/a	n/a	n/a	n/a	n/a	n/a	n/a	n/a
450.018	n/a	WORD	225009	wordpools/wasnorm_wordpool_less_exclusions.txt	LTP246	ltpFR	8	1	1	SERVER	1272	n/a	1	n/a	0	0	0	1	0.412841796875	0.57763671875	upper	../fonts/amplitud.ttf
453.03	n/a	START	226515	n/a	LTP246	ltpFR	8	n/a	n/a	n/a	n/a	n/a	n/a	n/a	n/a	n/a	n/a	n/a	n/a	n/a	n/a	n/a
454.078	n/a	PROB	227039	n/a	LTP246	ltpFR	8	n/a	n/a	n/a	n/a	n/a	n/a	14	5	7	2	n/a	n/a	n/a	n/a	n/a
456.958	n/a	PROB	228479	n/a	LTP246	ltpFR	8	n/a	n/a	n/a	n/a	n/a	n/a	14	2	3	9	n/a	n/a	n/a	n/a	n/a
459.956	n/a	STOP	229978	n/a	LTP246	ltpFR	8	n/a	n/a	n/a	n/a	n/a	n/a	n/a	n/a	n/a	n/a	n/a	n/a	n/a	n/a	n/a
461.952	n/a	WORD	230976	wordpools/wasnorm_wordpool_less_exclusions.txt	LTP246	ltpFR	8	1	1	RUST	1219	n/a	0	n/a	0	0	0	1	0.412841796875	0.57763671875	upper	../fonts/amplitud.ttf
464.964	n/a	START	232482	n/a	LTP246	ltpFR	8	n/a	n/a	n/a	n/a	n/a	n/a	n/a	n/a	n/a	n/a	n/a	n/a	n/a	n/a	n/a
465.83	n/a	PROB	232915	n/a	LTP246	ltpFR	8	n/a	n/a	n/a	n/a	n/a	n/a	21	8	6	7	n/a	n/a	n/a	n/a	n/a
469.058	n/a	PROB	234529	n/a	LTP246	ltpFR	8	n/a	n/a	n/a	n/a	n/a	n/a	12	3	6	3	n/a	n/a	n/a	n/a	n/a
472.964	n/a	STOP	236482	n/a	LTP246	ltpFR	8	n/a	n/a	n/a	n/a	n/a	n/a	n/a	n/a	n/a	n/a	n/a	n/a	n/a	n/a	n/a
474.1	n/a	WORD	237050	wordpools/wasnorm_wordpool_less_exclusions.txt	LTP246	ltpFR	8	1	1	SNORKEL	1336	n/a	0	n/a	0	0	0	1	0.412841796875	0.57763671875	upper	../fonts/amplitud.ttf
477.112	n/a	START	238556	n/a	LTP246	ltpFR	8	n/a	n/a	n/a	n/a	n/a	n/a	n/a	n/a	n/a	n/a	n/a	n/a	n/a	n/a	n/a
478.228	n/a	PROB	239114	n/a	LTP246	ltpFR	8	n/a	n/a	n/a	n/a	n/a	n/a	9	4	4	1	n/a	n/a	n/a	n/a	n/a
479.708	n/a	PROB	239854	n/a	LTP246	ltpFR	8	n/a	n/a	n/a	n/a	n/a	n/a	19	9	4	6	n/a	n/a	n/a	n/a	n/a
482.82	n/a	PROB	241410	n/a	LTP246	ltpFR	8	n/a	n/a	n/a	n/a	n/a	n/a	14	3	8	3	n/a	n/a	n/a	n/a	n/a
484.916	n/a	STOP	242458	n/a	LTP246	ltpFR	8	n/a	n/a	n/a	n/a	n/a	n/a	n/a	n/a	n/a	n/a	n/a	n/a	n/a	n/a	n/a
486.298	n/a	WORD	243149	wordpools/wasnorm_wordpool_less_exclusions.txt	LTP246	ltpFR	8	1	1	TROUT	1511	n/a	1	n/a	0	0	0	1	0.412841796875	0.57763671875	upper	../fonts/amplitud.ttf
489.312	n/a	START	244656	n/a	LTP246	ltpFR	8	n/a	n/a	n/a	n/a	n/a	n/a	n/a	n/a	n/a	n/a	n/a	n/a	n/a	n/a	n/a
490.492	n/a	PROB	245246	n/a	LTP246	ltpFR	8	n/a	n/a	n/a	n/a	n/a	n/a	25	9	8	8	n/a	n/a	n/a	n/a	n/a
497.312	n/a	STOP	248656	n/a	LTP246	ltpFR	8	n/a	n/a	n/a	n/a	n/a	n/a	n/a	n/a	n/a	n/a	n/a	n/a	n/a	n/a	n/a
498.214	n/a	WORD	249107	wordpools/wasnorm_wordpool_less_exclusions.txt	LTP246	ltpFR	8	1	1	TICK	1463	n/a	0	n/a	0	0	0	1	0.412841796875	0.57763671875	upper	../fonts/amplitud.ttf
501.226	n/a	START	250613	n/a	LTP246	ltpFR	8	n/a	n/a	n/a	n/a	n/a	n/a	n/a	n/a	n/a	n/a	n/a	n/a	n/a	n/a	n/a
502.392	n/a	PROB	251196	n/a	LTP246	ltpFR	8	n/a	n/a	n/a	n/a	n/a	n/a	13	2	7	4	n/a	n/a	n/a	n/a	n/a
505.304	n/a	PROB	252652	n/a	LTP246	ltpFR	8	n/a	n/a	n/a	n/a	n/a	n/a	15	8	1	6	n/a	n/a	n/a	n/a	n/a
507.828	n/a	STOP	253914	n/a	LTP246	ltpFR	8	n/a	n/a	n/a	n/a	n/a	n/a	n/a	n/a	n/a	n/a	n/a	n/a	n/a	n/a	n/a
510.33	n/a	WORD	255165	wordpools/wasnorm_wordpool_less_exclusions.txt	LTP246	ltpFR	8	1	1	PEDAL	1037	n/a	0	n/a	0	0	0	1	0.412841796875	0.57763671875	upper	../fonts/amplitud.ttf
513.342	n/a	START	256671	n/a	LTP246	ltpFR	8	n/a	n/a	n/a	n/a	n/a	n/a	n/a	n/a	n/a	n/a	n/a	n/a	n/a	n/a	n/a
514.174	n/a	PROB	257087	n/a	LTP246	ltpFR	8	n/a	n/a	n/a	n/a	n/a	n/a	17	5	7	5	n/a	n/a	n/a	n/a	n/a
516.038	n/a	PROB	258019	n/a	LTP246	ltpFR	8	n/a	n/a	n/a	n/a	n/a	n/a	9	7	1	1	n/a	n/a	n/a	n/a	n/a
521.34	n/a	STOP	260670	n/a	LTP246	ltpFR	8	n/a	n/a	n/a	n/a	n/a	n/a	n/a	n/a	n/a	n/a	n/a	n/a	n/a	n/a	n/a
522.428	n/a	WORD	261214	wordpools/wasnorm_wordpool_less_exclusions.txt	LTP246	ltpFR	8	1	1	VACUUM	1543	n/a	0	n/a	0	0	0	1	0.412841796875	0.57763671875	upper	../fonts/amplitud.ttf
525.44	n/a	START	262720	n/a	LTP246	ltpFR	8	n/a	n/a	n/a	n/a	n/a	n/a	n/a	n/a	n/a	n/a	n/a	n/a	n/a	n/a	n/a
526.456	n/a	PROB	263228	n/a	LTP246	ltpFR	8	n/a	n/a	n/a	n/a	n/a	n/a	22	8	5	9	n/a	n/a	n/a	n/a	n/a
533.372	n/a	STOP	266686	n/a	LTP246	ltpFR	8	n/a	n/a	n/a	n/a	n/a	n/a	n/a	n/a	n/a	n/a	n/a	n/a	n/a	n/a	n/a
534.328	n/a	WORD	267164	wordpools/wasnorm_wordpool_less_exclusions.txt	LTP246	ltpFR	8	1	1	BROOM	178	n/a	0	n/a	0	0	0	1	0.412841796875	0.57763671875	upper	../fonts/amplitud.ttf
537.34	n/a	START	268670	n/a	LTP246	ltpFR	8	n/a	n/a	n/a	n/a	n/a	n/a	n/a	n/a	n/a	n/a	n/a	n/a	n/a	n/a	n/a
538.222	n/a	PROB	269111	n/a	LTP246	ltpFR	8	n/a	n/a	n/a	n/a	n/a	n/a	18	6	8	4	n/a	n/a	n/a	n/a	n/a
540.818	n/a	PROB	270409	n/a	LTP246	ltpFR	8	n/a	n/a	n/a	n/a	n/a	n/a	24	9	8	7	n/a	n/a	n/a	n/a	n/a
545.34	n/a	STOP	272670	n/a	LTP246	ltpFR	8	n/a	n/a	n/a	n/a	n/a	n/a	n/a	n/a	n/a	n/a	n/a	n/a	n/a	n/a	n/a
546.36	n/a	WORD	273180	wordpools/wasnorm_wordpool_less_exclusions.txt	LTP246	ltpFR	8	1	1	BARRACUDA	90	n/a	1	n/a	0	0	0	1	0.412841796875	0.57763671875	upper	../fonts/amplitud.ttf
549.372	n/a	START	274686	n/a	LTP246	ltpFR	8	n/a	n/a	n/a	n/a	n/a	n/a	n/a	n/a	n/a	n/a	n/a	n/a	n/a	n/a	n/a
550.536	n/a	PROB	275268	n/a	LTP246	ltpFR	8	n/a	n/a	n/a	n/a	n/a	n/a	17	9	6	2	n/a	n/a	n/a	n/a	n/a
553.25	n/a	PROB	276625	n/a	LTP246	ltpFR	8	n/a	n/a	n/a	n/a	n/a	n/a	6	1	2	4	n/a	n/a	n/a	n/a	n/a
557.212	n/a	STOP	278606	n/a	LTP246	ltpFR	8	n/a	n/a	n/a	n/a	n/a	n/a	n/a	n/a	n/a	n/a	n/a	n/a	n/a	n/a	n/a
559.224	n/a	REC_START	279612	n/a	LTP246	ltpFR	8	1	n/a	n/a	n/a	n/a	n/a	n/a	0	0	0	n/a	n/a	n/a	n/a	n/a
560.676	n/a	REC_WORD	280338	wordpools/wasnorm_wordpool_less_exclusions.txt	LTP246	ltpFR	8	1	1	BARRACUDA	90	n/a	1	n/a	0	0	0	n/a	n/a	n/a	n/a	n/a
566.762	n/a	REC_WORD	283381	wordpools/wasnorm_wordpool_less_exclusions.txt	LTP246	ltpFR	8	1	1	SHOWER	1296	n/a	0	n/a	0	0	0	n/a	n/a	n/a	n/a	n/a
568.998	n/a	REC_WORD	284499	wordpools/wasnorm_wordpool_less_exclusions.txt	LTP246	ltpFR	8	1	1	NAPKIN	937	n/a	0	n/a	0	0	0	n/a	n/a	n/a	n/a	n/a
570.918	n/a	REC_WORD	285459	wordpools/wasnorm_wordpool_less_exclusions.txt	LTP246	ltpFR	8	1	1	BUTLER	204	n/a	1	n/a	0	0	0	n/a	n/a	n/a	n/a	n/a
572.24	n/a	REC_WORD	286120	wordpools/wasnorm_wordpool_less_exclusions.txt	LTP246	ltpFR	8	1	1	SPAGHETTI	1346	n/a	0	n/a	0	0	0	n/a	n/a	n/a	n/a	n/a
573.916	n/a	REC_WORD	286958	wordpools/wasnorm_wordpool_less_exclusions.txt	LTP246	ltpFR	8	1	1	SHARK	1275	n/a	1	n/a	0	0	0	n/a	n/a	n/a	n/a	n/a
575.348	n/a	REC_WORD	287674	wordpools/wasnorm_wordpool_less_exclusions.txt	LTP246	ltpFR	8	1	1	LINEN	825	n/a	0	n/a	0	0	0	n/a	n/a	n/a	n/a	n/a
580.008	n/a	REC_WORD	290004	wordpools/wasnorm_wordpool_less_exclusions.txt	LTP246	ltpFR	8	1	1	RUST	1219	n/a	0	n/a	0	0	0	n/a	n/a	n/a	n/a	n/a
581.788	n/a	REC_WORD	290894	wordpools/wasnorm_wordpool_less_exclusions.txt	LTP246	ltpFR	8	1	1	TICK	1463	n/a	0	n/a	0	0	0	n/a	n/a	n/a	n/a	n/a
585.544	n/a	REC_WORD	292772	wordpools/wasnorm_wordpool_less_exclusions.txt	LTP246	ltpFR	8	1	1	BROOM	178	n/a	0	n/a	0	0	0	n/a	n/a	n/a	n/a	n/a
593.94	n/a	REC_WORD	296970	wordpools/wasnorm_wordpool_less_exclusions.txt	LTP246	ltpFR	8	1	1	SERVER	1272	n/a	1	n/a	0	0	0	n/a	n/a	n/a	n/a	n/a
598.116	n/a	REC_WORD	299058	wordpools/wasnorm_wordpool_less_exclusions.txt	LTP246	ltpFR	8	1	1	STALLION	1369	n/a	1	n/a	0	0	0	n/a	n/a	n/a	n/a	n/a
648.508	n/a	WORD	324254	wordpools/wasnorm_wordpool_less_exclusions.txt	LTP246	ltpFR	8	2	1	VIOLA	1570	n/a	n/a	n/a	0	0	0	1	0.412841796875	0.57763671875	upper	../fonts/amplitud.ttf
651.538	n/a	SLOW_MSG	325769	n/a	LTP246	ltpFR	8	2	n/a	n/a	n/a	n/a	n/a	n/a	0	0	0	n/a	n/a	n/a	n/a	n/a
654.0	n/a	WORD	327000	wordpools/wasnorm_wordpool_less_exclusions.txt	LTP246	ltpFR	8	2	1	FIDDLE	561	n/a	0	n/a	0	0	0	1	0.412841796875	0.57763671875	upper	../fonts/amplitud.ttf
657.96	n/a	WORD	328980	wordpools/wasnorm_wordpool_less_exclusions.txt	LTP246	ltpFR	8	2	1	PERSONNEL	1053	n/a	1	n/a	0	0	0	1	0.412841796875	0.57763671875	upper	../fonts/amplitud.ttf
661.838	n/a	WORD	330919	wordpools/wasnorm_wordpool_less_exclusions.txt	LTP246	ltpFR	8	2	1	NAVIGATOR	938	n/a	1	n/a	0	0	0	1	0.412841796875	0.57763671875	upper	../fonts/amplitud.ttf
665.816	n/a	WORD	332908	wordpools/wasnorm_wordpool_less_exclusions.txt	LTP246	ltpFR	8	2	1	BLUEJAY	141	n/a	1	n/a	0	0	0	1	0.412841796875	0.57763671875	upper	../fonts/amplitud.ttf
669.96	n/a	WORD	334980	wordpools/wasnorm_wordpool_less_exclusions.txt	LTP246	ltpFR	8	2	1	FEAST	556	n/a	0	n/a	0	0	0	1	0.412841796875	0.57763671875	upper	../fonts/amplitud.ttf
674.154	n/a	WORD	337077	wordpools/wasnorm_wordpool_less_exclusions.txt	LTP246	ltpFR	8	2	1	DEPUTY	450	n/a	1	n/a	0	0	0	1	0.412841796875	0.57763671875	upper	../fonts/amplitud.ttf
678.348	n/a	WORD	339174	wordpools/wasnorm_wordpool_less_exclusions.txt	LTP246	ltpFR	8	2	1	PARROT	1015	n/a	1	n/a	0	0	0	1	0.412841796875	0.57763671875	upper	../fonts/amplitud.ttf
682.424	n/a	WORD	341212	wordpools/wasnorm_wordpool_less_exclusions.txt	LTP246	ltpFR	8	2	1	VIKING	1565	n/a	1	n/a	0	0	0	1	0.412841796875	0.57763671875	upper	../fonts/amplitud.ttf
686.62	n/a	WORD	343310	wordpools/wasnorm_wordpool_less_exclusions.txt	LTP246	ltpFR	8	2	1	DOUGHNUT	490	n/a	0	n/a	0	0	0	1	0.412841796875	0.57763671875	upper	../fonts/amplitud.ttf
690.546	n/a	WORD	345273	wordpools/wasnorm_wordpool_less_exclusions.txt	LTP246	ltpFR	8	2	1	BLUEPRINT	142	n/a	1	n/a	0	0	0	1	0.412841796875	0.57763671875	upper	../fonts/amplitud.ttf
694.424	n/a	WORD	347212	wordpools/wasnorm_wordpool_less_exclusions.txt	LTP246	ltpFR	8	2	1	TERRITORY	1452	n/a	0	n/a	0	0	0	1	0.412841796875	0.57763671875	upper	../fonts/amplitud.ttf
698.418	n/a	WORD	349209	wordpools/wasnorm_wordpool_less_exclusions.txt	LTP246	ltpFR	8	2	1	COMEDIAN	352	n/a	1	n/a	0	0	0	1	0.412841796875	0.57763671875	upper	../fonts/amplitud.ttf
702.296	n/a	WORD	351148	wordpools/wasnorm_wordpool_less_exclusions.txt	LTP246	ltpFR	8	2	1	FACTORY	548	n/a	0	n/a	0	0	0	1	0.412841796875	0.57763671875	upper	../fonts/amplitud.ttf
706.472	n/a	WORD	353236	wordpools/wasnorm_wordpool_less_exclusions.txt	LTP246	ltpFR	8	2	1	BUILDER	190	n/a	1	n/a	0	0	0	1	0.412841796875	0.57763671875	upper	../fonts/amplitud.ttf
710.634	n/a	WORD	355317	wordpools/wasnorm_wordpool_less_exclusions.txt	LTP246	ltpFR	8	2	1	KITCHEN	778	n/a	0	n/a	0	0	0	1	0.412841796875	0.57763671875	upper	../fonts/amplitud.ttf
713.646	n/a	START	356823	n/a	LTP246	ltpFR	8	n/a	n/a	n/a	n/a	n/a	n/a	n/a	n/a	n/a	n/a	n/a	n/a	n/a	n/a	n/a
714.66	n/a	PROB	357330	n/a	LTP246	ltpFR	8	n/a	n/a	n/a	n/a	n/a	n/a	14	4	4	6	n/a	n/a	n/a	n/a	n/a
716.442	n/a	PROB	358221	n/a	LTP246	ltpFR	8	n/a	n/a	n/a	n/a	n/a	n/a	13	4	2	5	n/a	n/a	n/a	n/a	n/a
719.17	n/a	PROB	359585	n/a	LTP246	ltpFR	8	n/a	n/a	n/a	n/a	n/a	n/a	13	1	6	6	n/a	n/a	n/a	n/a	n/a
720.694	n/a	STOP	360347	n/a	LTP246	ltpFR	8	n/a	n/a	n/a	n/a	n/a	n/a	n/a	n/a	n/a	n/a	n/a	n/a	n/a	n/a	n/a
723.582	n/a	REC_START	361791	n/a	LTP246	ltpFR	8	2	n/a	n/a	n/a	n/a	n/a	n/a	0	0	0	n/a	n/a	n/a	n/a	n/a
727.188	n/a	REC_WORD	363594	wordpools/wasnorm_wordpool_less_exclusions.txt	LTP246	ltpFR	8	2	1	VIOLA	1570	n/a	n/a	n/a	0	0	0	n/a	n/a	n/a	n/a	n/a
728.93	n/a	REC_WORD	364465	wordpools/wasnorm_wordpool_less_exclusions.txt	LTP246	ltpFR	8	2	1	FIDDLE	561	n/a	0	n/a	0	0	0	n/a	n/a	n/a	n/a	n/a
733.364	n/a	REC_WORD	366682	wordpools/wasnorm_wordpool_less_exclusions.txt	LTP246	ltpFR	8	2	1	PERSONNEL	1053	n/a	1	n/a	0	0	0	n/a	n/a	n/a	n/a	n/a
735.16	n/a	REC_WORD	367580	wordpools/wasnorm_wordpool_less_exclusions.txt	LTP246	ltpFR	8	2	1	NAVIGATOR	938	n/a	1	n/a	0	0	0	n/a	n/a	n/a	n/a	n/a
736.766	n/a	REC_WORD	368383	wordpools/wasnorm_wordpool_less_exclusions.txt	LTP246	ltpFR	8	2	1	BLUEJAY	141	n/a	1	n/a	0	0	0	n/a	n/a	n/a	n/a	n/a
738.044	n/a	REC_WORD	369022	wordpools/wasnorm_wordpool_less_exclusions.txt	LTP246	ltpFR	8	2	1	FEAST	556	n/a	0	n/a	0	0	0	n/a	n/a	n/a	n/a	n/a
739.36	n/a	REC_WORD	369680	wordpools/wasnorm_wordpool_less_exclusions.txt	LTP246	ltpFR	8	2	1	DEPUTY	450	n/a	1	n/a	0	0	0	n/a	n/a	n/a	n/a	n/a
740.588	n/a	REC_WORD	370294	wordpools/wasnorm_wordpool_less_exclusions.txt	LTP246	ltpFR	8	2	1	PARROT	1015	n/a	1	n/a	0	0	0	n/a	n/a	n/a	n/a	n/a
742.244	n/a	REC_WORD	371122	wordpools/wasnorm_wordpool_less_exclusions.txt	LTP246	ltpFR	8	2	1	VIKING	1565	n/a	1	n/a	0	0	0	n/a	n/a	n/a	n/a	n/a
743.606	n/a	REC_WORD	371803	wordpools/wasnorm_wordpool_less_exclusions.txt	LTP246	ltpFR	8	2	1	DOUGHNUT	490	n/a	0	n/a	0	0	0	n/a	n/a	n/a	n/a	n/a
744.908	n/a	REC_WORD	372454	wordpools/wasnorm_wordpool_less_exclusions.txt	LTP246	ltpFR	8	2	1	BLUEPRINT	142	n/a	1	n/a	0	0	0	n/a	n/a	n/a	n/a	n/a
746.14	n/a	REC_WORD	373070	wordpools/wasnorm_wordpool_less_exclusions.txt	LTP246	ltpFR	8	2	1	TERRITORY	1452	n/a	0	n/a	0	0	0	n/a	n/a	n/a	n/a	n/a
747.486	n/a	REC_WORD	373743	wordpools/wasnorm_wordpool_less_exclusions.txt	LTP246	ltpFR	8	2	1	COMEDIAN	352	n/a	1	n/a	0	0	0	n/a	n/a	n/a	n/a	n/a
748.75	n/a	REC_WORD	374375	wordpools/wasnorm_wordpool_less_exclusions.txt	LTP246	ltpFR	8	2	1	FACTORY	548	n/a	0	n/a	0	0	0	n/a	n/a	n/a	n/a	n/a
751.168	n/a	REC_WORD	375584	wordpools/wasnorm_wordpool_less_exclusions.txt	LTP246	ltpFR	8	2	1	BUILDER	190	n/a	1	n/a	0	0	0	n/a	n/a	n/a	n/a	n/a
752.764	n/a	REC_WORD	376382	wordpools/wasnorm_wordpool_less_exclusions.txt	LTP246	ltpFR	8	2	1	KITCHEN	778	n/a	0	n/a	0	0	0	n/a	n/a	n/a	n/a	n/a
811.816	n/a	START	405908	n/a	LTP246	ltpFR	8	n/a	n/a	n/a	n/a	n/a	n/a	n/a	n/a	n/a	n/a	n/a	n/a	n/a	n/a	n/a
813.33	n/a	PROB	406665	n/a	LTP246	ltpFR	8	n/a	n/a	n/a	n/a	n/a	n/a	18	5	8	5	n/a	n/a	n/a	n/a	n/a
815.328	n/a	PROB	407664	n/a	LTP246	ltpFR	8	n/a	n/a	n/a	n/a	n/a	n/a	24	9	5	9	n/a	n/a	n/a	n/a	n/a
817.924	n/a	PROB	408962	n/a	LTP246	ltpFR	8	n/a	n/a	n/a	n/a	n/a	n/a	16	6	9	1	n/a	n/a	n/a	n/a	n/a
819.728	n/a	STOP	409864	n/a	LTP246	ltpFR	8	n/a	n/a	n/a	n/a	n/a	n/a	n/a	n/a	n/a	n/a	n/a	n/a	n/a	n/a	n/a
821.002	n/a	WORD	410501	wordpools/wasnorm_wordpool_less_exclusions.txt	LTP246	ltpFR	8	3	1	NECK	939	n/a	1	n/a	0	0	0	1	0.412841796875	0.57763671875	upper	../fonts/amplitud.ttf
824.016	n/a	START	412008	n/a	LTP246	ltpFR	8	n/a	n/a	n/a	n/a	n/a	n/a	n/a	n/a	n/a	n/a	n/a	n/a	n/a	n/a	n/a
825.096	n/a	PROB	412548	n/a	LTP246	ltpFR	8	n/a	n/a	n/a	n/a	n/a	n/a	13	2	4	7	n/a	n/a	n/a	n/a	n/a
827.21	n/a	PROB	413605	n/a	LTP246	ltpFR	8	n/a	n/a	n/a	n/a	n/a	n/a	18	7	2	9	n/a	n/a	n/a	n/a	n/a
828.958	n/a	PROB	414479	n/a	LTP246	ltpFR	8	n/a	n/a	n/a	n/a	n/a	n/a	9	4	4	1	n/a	n/a	n/a	n/a	n/a
830.238	n/a	PROB	415119	n/a	LTP246	ltpFR	8	n/a	n/a	n/a	n/a	n/a	n/a	12	7	2	3	n/a	n/a	n/a	n/a	n/a
831.904	n/a	STOP	415952	n/a	LTP246	ltpFR	8	n/a	n/a	n/a	n/a	n/a	n/a	n/a	n/a	n/a	n/a	n/a	n/a	n/a	n/a	n/a
832.836	n/a	WORD	416418	wordpools/wasnorm_wordpool_less_exclusions.txt	LTP246	ltpFR	8	3	1	MONARCH	906	n/a	1	n/a	0	0	0	1	0.412841796875	0.57763671875	upper	../fonts/amplitud.ttf
835.848	n/a	START	417924	n/a	LTP246	ltpFR	8	n/a	n/a	n/a	n/a	n/a	n/a	n/a	n/a	n/a	n/a	n/a	n/a	n/a	n/a	n/a
836.764	n/a	PROB	418382	n/a	LTP246	ltpFR	8	n/a	n/a	n/a	n/a	n/a	n/a	19	6	9	4	n/a	n/a	n/a	n/a	n/a
840.026	n/a	PROB	420013	n/a	LTP246	ltpFR	8	n/a	n/a	n/a	n/a	n/a	n/a	15	9	1	5	n/a	n/a	n/a	n/a	n/a
843.848	n/a	STOP	421924	n/a	LTP246	ltpFR	8	n/a	n/a	n/a	n/a	n/a	n/a	n/a	n/a	n/a	n/a	n/a	n/a	n/a	n/a	n/a
844.718	n/a	WORD	422359	wordpools/wasnorm_wordpool_less_exclusions.txt	LTP246	ltpFR	8	3	1	HAND	683	n/a	1	n/a	0	0	0	1	0.412841796875	0.57763671875	upper	../fonts/amplitud.ttf
847.73	n/a	START	423865	n/a	LTP246	ltpFR	8	n/a	n/a	n/a	n/a	n/a	n/a	n/a	n/a	n/a	n/a	n/a	n/a	n/a	n/a	n/a
848.612	n/a	PROB	424306	n/a	LTP246	ltpFR	8	n/a	n/a	n/a	n/a	n/a	n/a	5	1	2	2	n/a	n/a	n/a	n/a	n/a
850.21	n/a	PROB	425105	n/a	LTP246	ltpFR	8	n/a	n/a	n/a	n/a	n/a	n/a	9	2	4	3	n/a	n/a	n/a	n/a	n/a
852.074	n/a	PROB	426037	n/a	LTP246	ltpFR	8	n/a	n/a	n/a	n/a	n/a	n/a	19	5	7	7	n/a	n/a	n/a	n/a	n/a
854.17	n/a	PROB	427085	n/a	LTP246	ltpFR	8	n/a	n/a	n/a	n/a	n/a	n/a	12	2	2	8	n/a	n/a	n/a	n/a	n/a
855.64	n/a	STOP	427820	n/a	LTP246	ltpFR	8	n/a	n/a	n/a	n/a	n/a	n/a	n/a	n/a	n/a	n/a	n/a	n/a	n/a	n/a	n/a
856.866	n/a	WORD	428433	wordpools/wasnorm_wordpool_less_exclusions.txt	LTP246	ltpFR	8	3	1	ROOM	1206	n/a	0	n/a	0	0	0	1	0.412841796875	0.57763671875	upper	../fonts/amplitud.ttf
859.88	n/a	START	429940	n/a	LTP246	ltpFR	8	n/a	n/a	n/a	n/a	n/a	n/a	n/a	n/a	n/a	n/a	n/a	n/a	n/a	n/a	n/a
867.88	n/a	STOP	433940	n/a	LTP246	ltpFR	8	n/a	n/a	n/a	n/a	n/a	n/a	n/a	n/a	n/a	n/a	n/a	n/a	n/a	n/a	n/a
868.98	n/a	WORD	434490	wordpools/wasnorm_wordpool_less_exclusions.txt	LTP246	ltpFR	8	3	0	HAT	690	n/a	0	n/a	0	0	0	0	0.5869140625	0.422607421875	lower	../fonts/zerothre.ttf
871.994	n/a	START	435997	n/a	LTP246	ltpFR	8	n/a	n/a	n/a	n/a	n/a	n/a	n/a	n/a	n/a	n/a	n/a	n/a	n/a	n/a	n/a
872.842	n/a	PROB	436421	n/a	LTP246	ltpFR	8	n/a	n/a	n/a	n/a	n/a	n/a	15	2	6	7	n/a	n/a	n/a	n/a	n/a
879.994	n/a	STOP	439997	n/a	LTP246	ltpFR	8	n/a	n/a	n/a	n/a	n/a	n/a	n/a	n/a	n/a	n/a	n/a	n/a	n/a	n/a	n/a
880.814	n/a	WORD	440407	wordpools/wasnorm_wordpool_less_exclusions.txt	LTP246	ltpFR	8	3	0	ARM	38	n/a	0	n/a	0	0	0	0	0.5869140625	0.422607421875	lower	../fonts/zerothre.ttf
883.826	n/a	START	441913	n/a	LTP246	ltpFR	8	n/a	n/a	n/a	n/a	n/a	n/a	n/a	n/a	n/a	n/a	n/a	n/a	n/a	n/a	n/a
884.908	n/a	PROB	442454	n/a	LTP246	ltpFR	8	n/a	n/a	n/a	n/a	n/a	n/a	23	9	7	7	n/a	n/a	n/a	n/a	n/a
887.87	n/a	PROB	443935	n/a	LTP246	ltpFR	8	n/a	n/a	n/a	n/a	n/a	n/a	154	4	1	9	n/a	n/a	n/a	n/a	n/a
891.424	n/a	STOP	445712	n/a	LTP246	ltpFR	8	n/a	n/a	n/a	n/a	n/a	n/a	n/a	n/a	n/a	n/a	n/a	n/a	n/a	n/a	n/a
892.814	n/a	WORD	446407	wordpools/wasnorm_wordpool_less_exclusions.txt	LTP246	ltpFR	8	3	1	CUB	419	n/a	2	n/a	0	0	0	1	0.412841796875	0.57763671875	upper	../fonts/amplitud.ttf
894.128	n/a	KEY_MSG	447064	n/a	LTP246	ltpFR	8	3	n/a	n/a	n/a	n/a	n/a	n/a	0	0	0	n/a	n/a	n/a	n/a	n/a
895.826	n/a	START	447913	n/a	LTP246	ltpFR	8	n/a	n/a	n/a	n/a	n/a	n/a	n/a	n/a	n/a	n/a	n/a	n/a	n/a	n/a	n/a
896.79	n/a	PROB	448395	n/a	LTP246	ltpFR	8	n/a	n/a	n/a	n/a	n/a	n/a	9	1	7	1	n/a	n/a	n/a	n/a	n/a
898.454	n/a	PROB	449227	n/a	LTP246	ltpFR	8	n/a	n/a	n/a	n/a	n/a	n/a	12	6	1	5	n/a	n/a	n/a	n/a	n/a
901.534	n/a	PROB	450767	n/a	LTP246	ltpFR	8	n/a	n/a	n/a	n/a	n/a	n/a	12	4	7	1	n/a	n/a	n/a	n/a	n/a
903.512	n/a	STOP	451756	n/a	LTP246	ltpFR	8	n/a	n/a	n/a	n/a	n/a	n/a	n/a	n/a	n/a	n/a	n/a	n/a	n/a	n/a	n/a
904.878	n/a	WORD	452439	wordpools/wasnorm_wordpool_less_exclusions.txt	LTP246	ltpFR	8	3	1	LION	827	n/a	1	n/a	0	0	0	1	0.412841796875	0.57763671875	upper	../fonts/amplitud.ttf
907.89	n/a	START	453945	n/a	LTP246	ltpFR	8	n/a	n/a	n/a	n/a	n/a	n/a	n/a	n/a	n/a	n/a	n/a	n/a	n/a	n/a	n/a
908.94	n/a	PROB	454470	n/a	LTP246	ltpFR	8	n/a	n/a	n/a	n/a	n/a	n/a	11	2	7	2	n/a	n/a	n/a	n/a	n/a
915.892	n/a	STOP	457946	n/a	LTP246	ltpFR	8	n/a	n/a	n/a	n/a	n/a	n/a	n/a	n/a	n/a	n/a	n/a	n/a	n/a	n/a	n/a
916.762	n/a	WORD	458381	wordpools/wasnorm_wordpool_less_exclusions.txt	LTP246	ltpFR	8	3	1	CURB	426	n/a	0	n/a	0	0	0	1	0.412841796875	0.57763671875	upper	../fonts/amplitud.ttf
919.774	n/a	START	459887	n/a	LTP246	ltpFR	8	n/a	n/a	n/a	n/a	n/a	n/a	n/a	n/a	n/a	n/a	n/a	n/a	n/a	n/a	n/a
920.806	n/a	PROB	460403	n/a	LTP246	ltpFR	8	n/a	n/a	n/a	n/a	n/a	n/a	4	1	1	2	n/a	n/a	n/a	n/a	n/a
922.72	n/a	PROB	461360	n/a	LTP246	ltpFR	8	n/a	n/a	n/a	n/a	n/a	n/a	15	7	6	2	n/a	n/a	n/a	n/a	n/a
926.89	n/a	STOP	463445	n/a	LTP246	ltpFR	8	n/a	n/a	n/a	n/a	n/a	n/a	n/a	n/a	n/a	n/a	n/a	n/a	n/a	n/a	n/a
928.778	n/a	WORD	464389	wordpools/wasnorm_wordpool_less_exclusions.txt	LTP246	ltpFR	8	3	1	HIGHWAY	707	n/a	0	n/a	0	0	0	1	0.412841796875	0.57763671875	upper	../fonts/amplitud.ttf
931.79	n/a	START	465895	n/a	LTP246	ltpFR	8	n/a	n/a	n/a	n/a	n/a	n/a	n/a	n/a	n/a	n/a	n/a	n/a	n/a	n/a	n/a
932.888	n/a	PROB	466444	n/a	LTP246	ltpFR	8	n/a	n/a	n/a	n/a	n/a	n/a	15	7	5	3	n/a	n/a	n/a	n/a	n/a
935.55	n/a	PROB	467775	n/a	LTP246	ltpFR	8	n/a	n/a	n/a	n/a	n/a	n/a	15	7	1	7	n/a	n/a	n/a	n/a	n/a
937.598	n/a	PROB	468799	n/a	LTP246	ltpFR	8	n/a	n/a	n/a	n/a	n/a	n/a	18	8	5	3	n/a	n/a	n/a	n/a	n/a
939.33	n/a	STOP	469665	n/a	LTP246	ltpFR	8	n/a	n/a	n/a	n/a	n/a	n/a	n/a	n/a	n/a	n/a	n/a	n/a	n/a	n/a	n/a
940.76	n/a	WORD	470380	wordpools/wasnorm_wordpool_less_exclusions.txt	LTP246	ltpFR	8	3	0	TUSK	1523	n/a	2	n/a	0	0	0	0	0.5869140625	0.422607421875	lower	../fonts/zerothre.ttf
941.79	n/a	KEY_MSG	470895	n/a	LTP246	ltpFR	8	3	n/a	n/a	n/a	n/a	n/a	n/a	0	0	0	n/a	n/a	n/a	n/a	n/a
943.772	n/a	START	471886	n/a	LTP246	ltpFR	8	n/a	n/a	n/a	n/a	n/a	n/a	n/a	n/a	n/a	n/a	n/a	n/a	n/a	n/a	n/a
944.636	n/a	PROB	472318	n/a	LTP246	ltpFR	8	n/a	n/a	n/a	n/a	n/a	n/a	17	3	5	9	n/a	n/a	n/a	n/a	n/a
946.434	n/a	PROB	473217	n/a	LTP246	ltpFR	8	n/a	n/a	n/a	n/a	n/a	n/a	17	5	8	4	n/a	n/a	n/a	n/a	n/a
951.772	n/a	STOP	475886	n/a	LTP246	ltpFR	8	n/a	n/a	n/a	n/a	n/a	n/a	n/a	n/a	n/a	n/a	n/a	n/a	n/a	n/a	n/a
952.824	n/a	WORD	476412	wordpools/wasnorm_wordpool_less_exclusions.txt	LTP246	ltpFR	8	3	0	GIRAFFE	636	n/a	1	n/a	0	0	0	0	0.5869140625	0.422607421875	lower	../fonts/zerothre.ttf
955.838	n/a	START	477919	n/a	LTP246	ltpFR	8	n/a	n/a	n/a	n/a	n/a	n/a	n/a	n/a	n/a	n/a	n/a	n/a	n/a	n/a	n/a
956.818	n/a	PROB	478409	n/a	LTP246	ltpFR	8	n/a	n/a	n/a	n/a	n/a	n/a	14	6	4	4	n/a	n/a	n/a	n/a	n/a
958.45	n/a	PROB	479225	n/a	LTP246	ltpFR	8	n/a	n/a	n/a	n/a	n/a	n/a	11	1	5	5	n/a	n/a	n/a	n/a	n/a
959.714	n/a	PROB	479857	n/a	LTP246	ltpFR	8	n/a	n/a	n/a	n/a	n/a	n/a	17	7	6	4	n/a	n/a	n/a	n/a	n/a
963.836	n/a	STOP	481918	n/a	LTP246	ltpFR	8	n/a	n/a	n/a	n/a	n/a	n/a	n/a	n/a	n/a	n/a	n/a	n/a	n/a	n/a	n/a
964.972	n/a	WORD	482486	wordpools/wasnorm_wordpool_less_exclusions.txt	LTP246	ltpFR	8	3	0	JUG	762	n/a	0	n/a	0	0	0	0	0.5869140625	0.422607421875	lower	../fonts/zerothre.ttf
967.984	n/a	START	483992	n/a	LTP246	ltpFR	8	n/a	n/a	n/a	n/a	n/a	n/a	n/a	n/a	n/a	n/a	n/a	n/a	n/a	n/a	n/a
969.184	n/a	PROB	484592	n/a	LTP246	ltpFR	8	n/a	n/a	n/a	n/a	n/a	n/a	17	6	4	7	n/a	n/a	n/a	n/a	n/a
970.782	n/a	PROB	485391	n/a	LTP246	ltpFR	8	n/a	n/a	n/a	n/a	n/a	n/a	20	8	8	4	n/a	n/a	n/a	n/a	n/a
972.928	n/a	PROB	486464	n/a	LTP246	ltpFR	8	n/a	n/a	n/a	n/a	n/a	n/a	11	4	1	6	n/a	n/a	n/a	n/a	n/a
974.914	n/a	STOP	487457	n/a	LTP246	ltpFR	8	n/a	n/a	n/a	n/a	n/a	n/a	n/a	n/a	n/a	n/a	n/a	n/a	n/a	n/a	n/a
976.956	n/a	WORD	488478	wordpools/wasnorm_wordpool_less_exclusions.txt	LTP246	ltpFR	8	3	0	CASTLE	256	n/a	1	n/a	0	0	0	0	0.5869140625	0.422607421875	lower	../fonts/zerothre.ttf
979.968	n/a	START	489984	n/a	LTP246	ltpFR	8	n/a	n/a	n/a	n/a	n/a	n/a	n/a	n/a	n/a	n/a	n/a	n/a	n/a	n/a	n/a
980.8	n/a	PROB	490400	n/a	LTP246	ltpFR	8	n/a	n/a	n/a	n/a	n/a	n/a	16	5	2	9	n/a	n/a	n/a	n/a	n/a
983.944	n/a	PROB	491972	n/a	LTP246	ltpFR	8	n/a	n/a	n/a	n/a	n/a	n/a	17	4	4	9	n/a	n/a	n/a	n/a	n/a
986.092	n/a	PROB	493046	n/a	LTP246	ltpFR	8	n/a	n/a	n/a	n/a	n/a	n/a	9	2	4	1	n/a	n/a	n/a	n/a	n/a
987.666	n/a	STOP	493833	n/a	LTP246	ltpFR	8	n/a	n/a	n/a	n/a	n/a	n/a	n/a	n/a	n/a	n/a	n/a	n/a	n/a	n/a	n/a
989.054	n/a	WORD	494527	wordpools/wasnorm_wordpool_less_exclusions.txt	LTP246	ltpFR	8	3	0	SNEAKER	1334	n/a	0	n/a	0	0	0	0	0.5869140625	0.422607421875	lower	../fonts/zerothre.ttf
992.068	n/a	START	496034	n/a	LTP246	ltpFR	8	n/a	n/a	n/a	n/a	n/a	n/a	n/a	n/a	n/a	n/a	n/a	n/a	n/a	n/a	n/a
993.198	n/a	PROB	496599	n/a	LTP246	ltpFR	8	n/a	n/a	n/a	n/a	n/a	n/a	14	3	4	7	n/a	n/a	n/a	n/a	n/a
996.26	n/a	PROB	498130	n/a	LTP246	ltpFR	8	n/a	n/a	n/a	n/a	n/a	n/a	12	7	3	2	n/a	n/a	n/a	n/a	n/a
998.224	n/a	PROB	499112	n/a	LTP246	ltpFR	8	n/a	n/a	n/a	n/a	n/a	n/a	18	1	9	8	n/a	n/a	n/a	n/a	n/a
999.682	n/a	STOP	499841	n/a	LTP246	ltpFR	8	n/a	n/a	n/a	n/a	n/a	n/a	n/a	n/a	n/a	n/a	n/a	n/a	n/a	n/a	n/a
1001.27	n/a	WORD	500635	wordpools/wasnorm_wordpool_less_exclusions.txt	LTP246	ltpFR	8	3	0	SKETCH	1315	n/a	0	n/a	0	0	0	0	0.5869140625	0.422607421875	lower	../fonts/zerothre.ttf
1004.282	n/a	START	502141	n/a	LTP246	ltpFR	8	n/a	n/a	n/a	n/a	n/a	n/a	n/a	n/a	n/a	n/a	n/a	n/a	n/a	n/a	n/a
1012.282	n/a	STOP	506141	n/a	LTP246	ltpFR	8	n/a	n/a	n/a	n/a	n/a	n/a	n/a	n/a	n/a	n/a	n/a	n/a	n/a	n/a	n/a
1014.118	n/a	REC_START	507059	n/a	LTP246	ltpFR	8	3	n/a	n/a	n/a	n/a	n/a	n/a	0	0	0	n/a	n/a	n/a	n/a	n/a
1016.362	n/a	REC_WORD	508181	wordpools/wasnorm_wordpool_less_exclusions.txt	LTP246	ltpFR	8	3	0	SNEAKER	1334	n/a	0	n/a	0	0	0	n/a	n/a	n/a	n/a	n/a
1017.306	n/a	REC_WORD	508653	wordpools/wasnorm_wordpool_less_exclusions.txt	LTP246	ltpFR	8	3	0	GIRAFFE	636	n/a	1	n/a	0	0	0	n/a	n/a	n/a	n/a	n/a
1023.386	n/a	REC_WORD	511693	wordpools/wasnorm_wordpool_less_exclusions.txt	LTP246	ltpFR	8	3	1	NECK	939	n/a	1	n/a	0	0	0	n/a	n/a	n/a	n/a	n/a
1024.588	n/a	REC_WORD	512294	wordpools/wasnorm_wordpool_less_exclusions.txt	LTP246	ltpFR	8	3	1	MONARCH	906	n/a	1	n/a	0	0	0	n/a	n/a	n/a	n/a	n/a
1027.238	n/a	REC_WORD	513619	wordpools/wasnorm_wordpool_less_exclusions.txt	LTP246	ltpFR	8	3	0	HAT	690	n/a	0	n/a	0	0	0	n/a	n/a	n/a	n/a	n/a
1028.226	n/a	REC_WORD	514113	wordpools/wasnorm_wordpool_less_exclusions.txt	LTP246	ltpFR	8	3	0	ARM	38	n/a	0	n/a	0	0	0	n/a	n/a	n/a	n/a	n/a
1028.598	n/a	REC_WORD	514299	wordpools/wasnorm_wordpool_less_exclusions.txt	LTP246	ltpFR	8	3	1	HAND	683	n/a	1	n/a	0	0	0	n/a	n/a	n/a	n/a	n/a
1033.204	n/a	REC_WORD	516602	wordpools/wasnorm_wordpool_less_exclusions.txt	LTP246	ltpFR	8	3	1	CUB	419	n/a	2	n/a	0	0	0	n/a	n/a	n/a	n/a	n/a
1034.586	n/a	REC_WORD	517293	wordpools/wasnorm_wordpool_less_exclusions.txt	LTP246	ltpFR	8	3	1	CURB	426	n/a	0	n/a	0	0	0	n/a	n/a	n/a	n/a	n/a
1035.822	n/a	REC_WORD	517911	wordpools/wasnorm_wordpool_less_exclusions.txt	LTP246	ltpFR	8	3	1	LION	827	n/a	1	n/a	0	0	0	n/a	n/a	n/a	n/a	n/a
1084.978	n/a	REC_WORD	542489	wordpools/wasnorm_wordpool_less_exclusions.txt	LTP246	ltpFR	8	3	0	JUG	762	n/a	0	n/a	0	0	0	n/a	n/a	n/a	n/a	n/a
1117.78	n/a	WORD	558890	wordpools/wasnorm_wordpool_less_exclusions.txt	LTP246	ltpFR	8	4	1	CONVENT	370	n/a	0	n/a	0	0	0	1	0.412841796875	0.57763671875	upper	../fonts/amplitud.ttf
1121.69	n/a	WORD	560845	wordpools/wasnorm_wordpool_less_exclusions.txt	LTP246	ltpFR	8	4	1	BUTTON	207	n/a	0	n/a	0	0	0	1	0.412841796875	0.57763671875	upper	../fonts/amplitud.ttf
1125.668	n/a	WORD	562834	wordpools/wasnorm_wordpool_less_exclusions.txt	LTP246	ltpFR	8	4	1	SCREWDRIVER	1255	n/a	0	n/a	0	0	0	1	0.412841796875	0.57763671875	upper	../fonts/amplitud.ttf
1129.63	n/a	WORD	564815	wordpools/wasnorm_wordpool_less_exclusions.txt	LTP246	ltpFR	8	4	0	FLEA	577	n/a	0	n/a	0	0	0	0	0.5869140625	0.422607421875	lower	../fonts/zerothre.ttf
1133.474	n/a	WORD	566737	wordpools/wasnorm_wordpool_less_exclusions.txt	LTP246	ltpFR	8	4	0	ZEBRA	1635	n/a	1	n/a	0	0	0	0	0.5869140625	0.422607421875	lower	../fonts/zerothre.ttf
1137.35	n/a	WORD	568675	wordpools/wasnorm_wordpool_less_exclusions.txt	LTP246	ltpFR	8	4	0	RAKE	1164	n/a	0	n/a	0	0	0	0	0.5869140625	0.422607421875	lower	../fonts/zerothre.ttf
1141.496	n/a	WORD	570748	wordpools/wasnorm_wordpool_less_exclusions.txt	LTP246	ltpFR	8	4	0	PUPPY	1144	n/a	0	n/a	0	0	0	0	0.5869140625	0.422607421875	lower	../fonts/zerothre.ttf
1145.672	n/a	WORD	572836	wordpools/wasnorm_wordpool_less_exclusions.txt	LTP246	ltpFR	8	4	1	MINK	897	n/a	2	n/a	0	0	0	1	0.412841796875	0.57763671875	upper	../fonts/amplitud.ttf
1147.586	n/a	KEY_MSG	573793	n/a	LTP246	ltpFR	8	4	n/a	n/a	n/a	n/a	n/a	n/a	0	0	0	n/a	n/a	n/a	n/a	n/a
1150.05	n/a	WORD	575025	wordpools/wasnorm_wordpool_less_exclusions.txt	LTP246	ltpFR	8	4	1	ENGINEER	536	n/a	1	n/a	0	0	0	1	0.412841796875	0.57763671875	upper	../fonts/amplitud.ttf
1154.194	n/a	WORD	577097	wordpools/wasnorm_wordpool_less_exclusions.txt	LTP246	ltpFR	8	4	0	TRAIN	1494	n/a	1	n/a	0	0	0	0	0.5869140625	0.422607421875	lower	../fonts/zerothre.ttf
1158.038	n/a	WORD	579019	wordpools/wasnorm_wordpool_less_exclusions.txt	LTP246	ltpFR	8	4	0	SICKLE	1302	n/a	0	n/a	0	0	0	0	0.5869140625	0.422607421875	lower	../fonts/zerothre.ttf
1162.248	n/a	WORD	581124	wordpools/wasnorm_wordpool_less_exclusions.txt	LTP246	ltpFR	8	4	0	THRONE	1461	n/a	0	n/a	0	0	0	0	0.5869140625	0.422607421875	lower	../fonts/zerothre.ttf
1166.242	n/a	WORD	583121	wordpools/wasnorm_wordpool_less_exclusions.txt	LTP246	ltpFR	8	4	0	ZOO	1637	n/a	1	n/a	0	0	0	0	0.5869140625	0.422607421875	lower	../fonts/zerothre.ttf
1170.302	n/a	WORD	585151	wordpools/wasnorm_wordpool_less_exclusions.txt	LTP246	ltpFR	8	4	1	ANIMAL	23	n/a	0	n/a	0	0	0	1	0.412841796875	0.57763671875	upper	../fonts/amplitud.ttf
1174.246	n/a	WORD	587123	wordpools/wasnorm_wordpool_less_exclusions.txt	LTP246	ltpFR	8	4	1	QUILT	1151	n/a	0	n/a	0	0	0	1	0.412841796875	0.57763671875	upper	../fonts/amplitud.ttf
1178.19	n/a	WORD	589095	wordpools/wasnorm_wordpool_less_exclusions.txt	LTP246	ltpFR	8	4	1	RAM	1165	n/a	1	n/a	0	0	0	1	0.412841796875	0.57763671875	upper	../fonts/amplitud.ttf
1181.204	n/a	START	590602	n/a	LTP246	ltpFR	8	n/a	n/a	n/a	n/a	n/a	n/a	n/a	n/a	n/a	n/a	n/a	n/a	n/a	n/a	n/a
1182.284	n/a	PROB	591142	n/a	LTP246	ltpFR	8	n/a	n/a	n/a	n/a	n/a	n/a	16	2	7	7	n/a	n/a	n/a	n/a	n/a
1184.782	n/a	PROB	592391	n/a	LTP246	ltpFR	8	n/a	n/a	n/a	n/a	n/a	n/a	24	9	8	9	n/a	n/a	n/a	n/a	n/a
1187.41	n/a	PROB	593705	n/a	LTP246	ltpFR	8	n/a	n/a	n/a	n/a	n/a	n/a	18	7	2	9	n/a	n/a	n/a	n/a	n/a
1189.59	n/a	PROB	594795	n/a	LTP246	ltpFR	8	n/a	n/a	n/a	n/a	n/a	n/a	13	9	2	2	n/a	n/a	n/a	n/a	n/a
1191.72	n/a	PROB	595860	n/a	LTP246	ltpFR	8	n/a	n/a	n/a	n/a	n/a	n/a	16	8	1	7	n/a	n/a	n/a	n/a	n/a
1197.204	n/a	STOP	598602	n/a	LTP246	ltpFR	8	n/a	n/a	n/a	n/a	n/a	n/a	n/a	n/a	n/a	n/a	n/a	n/a	n/a	n/a	n/a
1199.076	n/a	REC_START	599538	n/a	LTP246	ltpFR	8	4	n/a	n/a	n/a	n/a	n/a	n/a	0	0	0	n/a	n/a	n/a	n/a	n/a
1201.666	n/a	REC_WORD	600833	wordpools/wasnorm_wordpool_less_exclusions.txt	LTP246	ltpFR	8	4	1	CONVENT	370	n/a	0	n/a	0	0	0	n/a	n/a	n/a	n/a	n/a
1202.992	n/a	REC_WORD	601496	wordpools/wasnorm_wordpool_less_exclusions.txt	LTP246	ltpFR	8	4	1	BUTTON	207	n/a	0	n/a	0	0	0	n/a	n/a	n/a	n/a	n/a
1205.382	n/a	REC_WORD	602691	wordpools/wasnorm_wordpool_less_exclusions.txt	LTP246	ltpFR	8	4	1	SCREWDRIVER	1255	n/a	0	n/a	0	0	0	n/a	n/a	n/a	n/a	n/a
1206.382	n/a	REC_WORD_VV	603191	wordpools/wasnorm_wordpool_less_exclusions.txt	LTP246	ltpFR	8	4	n/a	<>	-1	n/a	n/a	n/a	0	0	0	n/a	n/a	n/a	n/a	n/a
1211.618	n/a	REC_WORD	605809	wordpools/wasnorm_wordpool_less_exclusions.txt	LTP246	ltpFR	8	4	0	FLEA	577	n/a	0	n/a	0	0	0	n/a	n/a	n/a	n/a	n/a
1212.984	n/a	REC_WORD	606492	wordpools/wasnorm_wordpool_less_exclusions.txt	LTP246	ltpFR	8	4	0	ZEBRA	1635	n/a	1	n/a	0	0	0	n/a	n/a	n/a	n/a	n/a
1214.162	n/a	REC_WORD	607081	wordpools/wasnorm_wordpool_less_exclusions.txt	LTP246	ltpFR	8	4	0	RAKE	1164	n/a	0	n/a	0	0	0	n/a	n/a	n/a	n/a	n/a
1215.304	n/a	REC_WORD	607652	wordpools/wasnorm_wordpool_less_exclusions.txt	LTP246	ltpFR	8	4	0	PUPPY	1144	n/a	0	n/a	0	0	0	n/a	n/a	n/a	n/a	n/a
1221.302	n/a	REC_WORD	610651	wordpools/wasnorm_wordpool_less_exclusions.txt	LTP246	ltpFR	8	4	1	MINK	897	n/a	2	n/a	0	0	0	n/a	n/a	n/a	n/a	n/a
1223.008	n/a	REC_WORD	611504	wordpools/wasnorm_wordpool_less_exclusions.txt	LTP246	ltpFR	8	4	1	ENGINEER	536	n/a	1	n/a	0	0	0	n/a	n/a	n/a	n/a	n/a
1225.522	n/a	REC_WORD	612761	wordpools/wasnorm_wordpool_less_exclusions.txt	LTP246	ltpFR	8	4	0	SICKLE	1302	n/a	0	n/a	0	0	0	n/a	n/a	n/a	n/a	n/a
1229.358	n/a	REC_WORD	614679	wordpools/wasnorm_wordpool_less_exclusions.txt	LTP246	ltpFR	8	4	0	THRONE	1461	n/a	0	n/a	0	0	0	n/a	n/a	n/a	n/a	n/a
1310.48	n/a	START	655240	n/a	LTP246	ltpFR	8	n/a	n/a	n/a	n/a	n/a	n/a	n/a	n/a	n/a	n/a	n/a	n/a	n/a	n/a	n/a
1311.992	n/a	PROB	655996	n/a	LTP246	ltpFR	8	n/a	n/a	n/a	n/a	n/a	n/a	9	2	5	2	n/a	n/a	n/a	n/a	n/a
1314.506	n/a	PROB	657253	n/a	LTP246	ltpFR	8	n/a	n/a	n/a	n/a	n/a	n/a	11	4	5	2	n/a	n/a	n/a	n/a	n/a
1316.336	n/a	PROB	658168	n/a	LTP246	ltpFR	8	n/a	n/a	n/a	n/a	n/a	n/a	13	4	6	3	n/a	n/a	n/a	n/a	n/a
1318.168	n/a	PROB	659084	n/a	LTP246	ltpFR	8	n/a	n/a	n/a	n/a	n/a	n/a	14	6	7	1	n/a	n/a	n/a	n/a	n/a
1320.28	n/a	PROB	660140	n/a	LTP246	ltpFR	8	n/a	n/a	n/a	n/a	n/a	n/a	12	4	1	7	n/a	n/a	n/a	n/a	n/a
1322.36	n/a	PROB	661180	n/a	LTP246	ltpFR	8	n/a	n/a	n/a	n/a	n/a	n/a	18	6	2	8	n/a	n/a	n/a	n/a	n/a
1326.48	n/a	STOP	663240	n/a	LTP246	ltpFR	8	n/a	n/a	n/a	n/a	n/a	n/a	n/a	n/a	n/a	n/a	n/a	n/a	n/a	n/a	n/a
1327.536	n/a	WORD	663768	wordpools/wasnorm_wordpool_less_exclusions.txt	LTP246	ltpFR	8	5	0	BUREAU	199	n/a	1	n/a	0	0	0	0	0.5869140625	0.422607421875	lower	../fonts/zerothre.ttf
1330.55	n/a	START	665275	n/a	LTP246	ltpFR	8	n/a	n/a	n/a	n/a	n/a	n/a	n/a	n/a	n/a	n/a	n/a	n/a	n/a	n/a	n/a
1331.598	n/a	PROB	665799	n/a	LTP246	ltpFR	8	n/a	n/a	n/a	n/a	n/a	n/a	9	4	2	3	n/a	n/a	n/a	n/a	n/a
1334.476	n/a	PROB	667238	n/a	LTP246	ltpFR	8	n/a	n/a	n/a	n/a	n/a	n/a	21	7	4	9	n/a	n/a	n/a	n/a	n/a
1337.072	n/a	PROB	668536	n/a	LTP246	ltpFR	8	n/a	n/a	n/a	n/a	n/a	n/a	16	3	4	9	n/a	n/a	n/a	n/a	n/a
1339.486	n/a	PROB	669743	n/a	LTP246	ltpFR	8	n/a	n/a	n/a	n/a	n/a	n/a	13	6	1	6	n/a	n/a	n/a	n/a	n/a
1340.8	n/a	PROB	670400	n/a	LTP246	ltpFR	8	n/a	n/a	n/a	n/a	n/a	n/a	12	8	4	4	n/a	n/a	n/a	n/a	n/a
1346.55	n/a	STOP	673275	n/a	LTP246	ltpFR	8	n/a	n/a	n/a	n/a	n/a	n/a	n/a	n/a	n/a	n/a	n/a	n/a	n/a	n/a	n/a
1347.456	n/a	WORD	673728	wordpools/wasnorm_wordpool_less_exclusions.txt	LTP246	ltpFR	8	5	0	PEPPER	1047	n/a	0	n/a	0	0	0	0	0.5869140625	0.422607421875	lower	../fonts/zerothre.ttf
1350.47	n/a	START	675235	n/a	LTP246	ltpFR	8	n/a	n/a	n/a	n/a	n/a	n/a	n/a	n/a	n/a	n/a	n/a	n/a	n/a	n/a	n/a
1351.418	n/a	PROB	675709	n/a	LTP246	ltpFR	8	n/a	n/a	n/a	n/a	n/a	n/a	15	7	3	5	n/a	n/a	n/a	n/a	n/a
1356.444	n/a	PROB	678222	n/a	LTP246	ltpFR	8	n/a	n/a	n/a	n/a	n/a	n/a	12	7	1	4	n/a	n/a	n/a	n/a	n/a
1359.24	n/a	PROB	679620	n/a	LTP246	ltpFR	8	n/a	n/a	n/a	n/a	n/a	n/a	12	6	3	3	n/a	n/a	n/a	n/a	n/a
1361.32	n/a	PROB	680660	n/a	LTP246	ltpFR	8	n/a	n/a	n/a	n/a	n/a	n/a	20	9	7	4	n/a	n/a	n/a	n/a	n/a
1364.298	n/a	PROB	682149	n/a	LTP246	ltpFR	8	n/a	n/a	n/a	n/a	n/a	n/a	17	3	5	9	n/a	n/a	n/a	n/a	n/a
1366.096	n/a	STOP	683048	n/a	LTP246	ltpFR	8	n/a	n/a	n/a	n/a	n/a	n/a	n/a	n/a	n/a	n/a	n/a	n/a	n/a	n/a	n/a
1367.526	n/a	WORD	683763	wordpools/wasnorm_wordpool_less_exclusions.txt	LTP246	ltpFR	8	5	0	NOTEBOOK	959	n/a	0	n/a	0	0	0	0	0.5869140625	0.422607421875	lower	../fonts/zerothre.ttf
1370.54	n/a	START	685270	n/a	LTP246	ltpFR	8	n/a	n/a	n/a	n/a	n/a	n/a	n/a	n/a	n/a	n/a	n/a	n/a	n/a	n/a	n/a
1371.638	n/a	PROB	685819	n/a	LTP246	ltpFR	8	n/a	n/a	n/a	n/a	n/a	n/a	20	7	7	6	n/a	n/a	n/a	n/a	n/a
1373.768	n/a	PROB	686884	n/a	LTP246	ltpFR	8	n/a	n/a	n/a	n/a	n/a	n/a	10	8	1	1	n/a	n/a	n/a	n/a	n/a
1375.782	n/a	PROB	687891	n/a	LTP246	ltpFR	8	n/a	n/a	n/a	n/a	n/a	n/a	12	5	6	1	n/a	n/a	n/a	n/a	n/a
1377.762	n/a	PROB	688881	n/a	LTP246	ltpFR	8	n/a	n/a	n/a	n/a	n/a	n/a	15	4	4	7	n/a	n/a	n/a	n/a	n/a
1381.674	n/a	PROB	690837	n/a	LTP246	ltpFR	8	n/a	n/a	n/a	n/a	n/a	n/a	17	9	1	7	n/a	n/a	n/a	n/a	n/a
1383.388	n/a	PROB	691694	n/a	LTP246	ltpFR	8	n/a	n/a	n/a	n/a	n/a	n/a	9	1	5	3	n/a	n/a	n/a	n/a	n/a
1385.064	n/a	STOP	692532	n/a	LTP246	ltpFR	8	n/a	n/a	n/a	n/a	n/a	n/a	n/a	n/a	n/a	n/a	n/a	n/a	n/a	n/a	n/a
1387.698	n/a	WORD	693849	wordpools/wasnorm_wordpool_less_exclusions.txt	LTP246	ltpFR	8	5	0	GLOVE	642	n/a	0	n/a	0	0	0	0	0.5869140625	0.422607421875	lower	../fonts/zerothre.ttf
1390.71	n/a	START	695355	n/a	LTP246	ltpFR	8	n/a	n/a	n/a	n/a	n/a	n/a	n/a	n/a	n/a	n/a	n/a	n/a	n/a	n/a	n/a
1391.842	n/a	PROB	695921	n/a	LTP246	ltpFR	8	n/a	n/a	n/a	n/a	n/a	n/a	18	6	9	3	n/a	n/a	n/a	n/a	n/a
1393.922	n/a	PROB	696961	n/a	LTP246	ltpFR	8	n/a	n/a	n/a	n/a	n/a	n/a	17	9	7	1	n/a	n/a	n/a	n/a	n/a
1395.736	n/a	PROB	697868	n/a	LTP246	ltpFR	8	n/a	n/a	n/a	n/a	n/a	n/a	21	8	7	6	n/a	n/a	n/a	n/a	n/a
1397.582	n/a	PROB	698791	n/a	LTP246	ltpFR	8	n/a	n/a	n/a	n/a	n/a	n/a	13	3	5	5	n/a	n/a	n/a	n/a	n/a
1399.862	n/a	PROB	699931	n/a	LTP246	ltpFR	8	n/a	n/a	n/a	n/a	n/a	n/a	7	1	3	3	n/a	n/a	n/a	n/a	n/a
1402.46	n/a	PROB	701230	n/a	LTP246	ltpFR	8	n/a	n/a	n/a	n/a	n/a	n/a	4	1	1	2	n/a	n/a	n/a	n/a	n/a
1406.71	n/a	STOP	703355	n/a	LTP246	ltpFR	8	n/a	n/a	n/a	n/a	n/a	n/a	n/a	n/a	n/a	n/a	n/a	n/a	n/a	n/a	n/a
1407.918	n/a	WORD	703959	wordpools/wasnorm_wordpool_less_exclusions.txt	LTP246	ltpFR	8	5	0	MITTEN	902	n/a	0	n/a	0	0	0	0	0.5869140625	0.422607421875	lower	../fonts/zerothre.ttf
1410.93	n/a	START	705465	n/a	LTP246	ltpFR	8	n/a	n/a	n/a	n/a	n/a	n/a	n/a	n/a	n/a	n/a	n/a	n/a	n/a	n/a	n/a
1412.044	n/a	PROB	706022	n/a	LTP246	ltpFR	8	n/a	n/a	n/a	n/a	n/a	n/a	17	1	7	9	n/a	n/a	n/a	n/a	n/a
1416.338	n/a	PROB	708169	n/a	LTP246	ltpFR	8	n/a	n/a	n/a	n/a	n/a	n/a	15	8	2	5	n/a	n/a	n/a	n/a	n/a
1417.87	n/a	PROB	708935	n/a	LTP246	ltpFR	8	n/a	n/a	n/a	n/a	n/a	n/a	15	3	9	3	n/a	n/a	n/a	n/a	n/a
1421.58	n/a	PROB	710790	n/a	LTP246	ltpFR	8	n/a	n/a	n/a	n/a	n/a	n/a	20	8	6	6	n/a	n/a	n/a	n/a	n/a
1423.478	n/a	PROB	711739	n/a	LTP246	ltpFR	8	n/a	n/a	n/a	n/a	n/a	n/a	11	4	3	4	n/a	n/a	n/a	n/a	n/a
1425.608	n/a	STOP	712804	n/a	LTP246	ltpFR	8	n/a	n/a	n/a	n/a	n/a	n/a	n/a	n/a	n/a	n/a	n/a	n/a	n/a	n/a	n/a
1428.07	n/a	WORD	714035	wordpools/wasnorm_wordpool_less_exclusions.txt	LTP246	ltpFR	8	5	0	RECEPTIONIST	1174	n/a	1	n/a	0	0	0	0	0.5869140625	0.422607421875	lower	../fonts/zerothre.ttf
1431.084	n/a	START	715542	n/a	LTP246	ltpFR	8	n/a	n/a	n/a	n/a	n/a	n/a	n/a	n/a	n/a	n/a	n/a	n/a	n/a	n/a	n/a
1432.232	n/a	PROB	716116	n/a	LTP246	ltpFR	8	n/a	n/a	n/a	n/a	n/a	n/a	9	1	6	2	n/a	n/a	n/a	n/a	n/a
1433.862	n/a	PROB	716931	n/a	LTP246	ltpFR	8	n/a	n/a	n/a	n/a	n/a	n/a	21	5	7	9	n/a	n/a	n/a	n/a	n/a
1436.108	n/a	PROB	718054	n/a	LTP246	ltpFR	8	n/a	n/a	n/a	n/a	n/a	n/a	15	5	9	2	n/a	n/a	n/a	n/a	n/a
1439.004	n/a	PROB	719502	n/a	LTP246	ltpFR	8	n/a	n/a	n/a	n/a	n/a	n/a	11	6	1	4	n/a	n/a	n/a	n/a	n/a
1447.084	n/a	STOP	723542	n/a	LTP246	ltpFR	8	n/a	n/a	n/a	n/a	n/a	n/a	n/a	n/a	n/a	n/a	n/a	n/a	n/a	n/a	n/a
1447.958	n/a	WORD	723979	wordpools/wasnorm_wordpool_less_exclusions.txt	LTP246	ltpFR	8	5	0	BREAD	170	n/a	0	n/a	0	0	0	0	0.5869140625	0.422607421875	lower	../fonts/zerothre.ttf
1450.972	n/a	START	725486	n/a	LTP246	ltpFR	8	n/a	n/a	n/a	n/a	n/a	n/a	n/a	n/a	n/a	n/a	n/a	n/a	n/a	n/a	n/a
1452.086	n/a	PROB	726043	n/a	LTP246	ltpFR	8	n/a	n/a	n/a	n/a	n/a	n/a	14	3	7	4	n/a	n/a	n/a	n/a	n/a
1454.35	n/a	PROB	727175	n/a	LTP246	ltpFR	8	n/a	n/a	n/a	n/a	n/a	n/a	10	3	1	6	n/a	n/a	n/a	n/a	n/a
1456.812	n/a	PROB	728406	n/a	LTP246	ltpFR	8	n/a	n/a	n/a	n/a	n/a	n/a	5	1	2	2	n/a	n/a	n/a	n/a	n/a
1458.226	n/a	PROB	729113	n/a	LTP246	ltpFR	8	n/a	n/a	n/a	n/a	n/a	n/a	10	6	3	1	n/a	n/a	n/a	n/a	n/a
1459.842	n/a	PROB	729921	n/a	LTP246	ltpFR	8	n/a	n/a	n/a	n/a	n/a	n/a	15	7	2	6	n/a	n/a	n/a	n/a	n/a
1465.946	n/a	STOP	732973	n/a	LTP246	ltpFR	8	n/a	n/a	n/a	n/a	n/a	n/a	n/a	n/a	n/a	n/a	n/a	n/a	n/a	n/a	n/a
1468.046	n/a	WORD	734023	wordpools/wasnorm_wordpool_less_exclusions.txt	LTP246	ltpFR	8	5	0	DRIVEWAY	500	n/a	0	n/a	0	0	0	0	0.5869140625	0.422607421875	lower	../fonts/zerothre.ttf
1471.058	n/a	START	735529	n/a	LTP246	ltpFR	8	n/a	n/a	n/a	n/a	n/a	n/a	n/a	n/a	n/a	n/a	n/a	n/a	n/a	n/a	n/a
1472.172	n/a	PROB	736086	n/a	LTP246	ltpFR	8	n/a	n/a	n/a	n/a	n/a	n/a	16	7	7	2	n/a	n/a	n/a	n/a	n/a
1474.47	n/a	PROB	737235	n/a	LTP246	ltpFR	8	n/a	n/a	n/a	n/a	n/a	n/a	14	2	6	6	n/a	n/a	n/a	n/a	n/a
1476.316	n/a	PROB	738158	n/a	LTP246	ltpFR	8	n/a	n/a	n/a	n/a	n/a	n/a	14	3	3	9	n/a	n/a	n/a	n/a	n/a
1478.396	n/a	PROB	739198	n/a	LTP246	ltpFR	8	n/a	n/a	n/a	n/a	n/a	n/a	12	6	4	2	n/a	n/a	n/a	n/a	n/a
1480.16	n/a	PROB	740080	n/a	LTP246	ltpFR	8	n/a	n/a	n/a	n/a	n/a	n/a	20	6	9	8	n/a	n/a	n/a	n/a	n/a
1487.056	n/a	STOP	743528	n/a	LTP246	ltpFR	8	n/a	n/a	n/a	n/a	n/a	n/a	n/a	n/a	n/a	n/a	n/a	n/a	n/a	n/a	n/a
1488.182	n/a	WORD	744091	wordpools/wasnorm_wordpool_less_exclusions.txt	LTP246	ltpFR	8	5	0	BRAKE	166	n/a	0	n/a	0	0	0	0	0.5869140625	0.422607421875	lower	../fonts/zerothre.ttf
1491.194	n/a	START	745597	n/a	LTP246	ltpFR	8	n/a	n/a	n/a	n/a	n/a	n/a	n/a	n/a	n/a	n/a	n/a	n/a	n/a	n/a	n/a
1492.076	n/a	PROB	746038	n/a	LTP246	ltpFR	8	n/a	n/a	n/a	n/a	n/a	n/a	18	4	6	8	n/a	n/a	n/a	n/a	n/a
1494.124	n/a	PROB	747062	n/a	LTP246	ltpFR	8	n/a	n/a	n/a	n/a	n/a	n/a	14	4	5	5	n/a	n/a	n/a	n/a	n/a
1495.804	n/a	PROB	747902	n/a	LTP246	ltpFR	8	n/a	n/a	n/a	n/a	n/a	n/a	18	5	6	7	n/a	n/a	n/a	n/a	n/a
1498.35	n/a	PROB	749175	n/a	LTP246	ltpFR	8	n/a	n/a	n/a	n/a	n/a	n/a	11	1	6	4	n/a	n/a	n/a	n/a	n/a
1500.08	n/a	PROB	750040	n/a	LTP246	ltpFR	8	n/a	n/a	n/a	n/a	n/a	n/a	19	5	7	7	n/a	n/a	n/a	n/a	n/a
1502.078	n/a	PROB	751039	n/a	LTP246	ltpFR	8	n/a	n/a	n/a	n/a	n/a	n/a	18	7	2	9	n/a	n/a	n/a	n/a	n/a
1507.194	n/a	STOP	753597	n/a	LTP246	ltpFR	8	n/a	n/a	n/a	n/a	n/a	n/a	n/a	n/a	n/a	n/a	n/a	n/a	n/a	n/a	n/a
1508.186	n/a	WORD	754093	wordpools/wasnorm_wordpool_less_exclusions.txt	LTP246	ltpFR	8	5	0	MATCH	878	n/a	0	n/a	0	0	0	0	0.5869140625	0.422607421875	lower	../fonts/zerothre.ttf
1511.198	n/a	START	755599	n/a	LTP246	ltpFR	8	n/a	n/a	n/a	n/a	n/a	n/a	n/a	n/a	n/a	n/a	n/a	n/a	n/a	n/a	n/a
1512.162	n/a	PROB	756081	n/a	LTP246	ltpFR	8	n/a	n/a	n/a	n/a	n/a	n/a	19	4	8	7	n/a	n/a	n/a	n/a	n/a
1517.422	n/a	PROB	758711	n/a	LTP246	ltpFR	8	n/a	n/a	n/a	n/a	n/a	n/a	11	1	5	5	n/a	n/a	n/a	n/a	n/a
1518.604	n/a	PROB	759302	n/a	LTP246	ltpFR	8	n/a	n/a	n/a	n/a	n/a	n/a	16	9	2	5	n/a	n/a	n/a	n/a	n/a
1521.484	n/a	PROB	760742	n/a	LTP246	ltpFR	8	n/a	n/a	n/a	n/a	n/a	n/a	19	4	7	8	n/a	n/a	n/a	n/a	n/a
1526.53	n/a	STOP	763265	n/a	LTP246	ltpFR	8	n/a	n/a	n/a	n/a	n/a	n/a	n/a	n/a	n/a	n/a	n/a	n/a	n/a	n/a	n/a
1528.14	n/a	WORD	764070	wordpools/wasnorm_wordpool_less_exclusions.txt	LTP246	ltpFR	8	5	0	CROOK	412	n/a	1	n/a	0	0	0	0	0.5869140625	0.422607421875	lower	../fonts/zerothre.ttf
1531.152	n/a	START	765576	n/a	LTP246	ltpFR	8	n/a	n/a	n/a	n/a	n/a	n/a	n/a	n/a	n/a	n/a	n/a	n/a	n/a	n/a	n/a
1532.084	n/a	PROB	766042	n/a	LTP246	ltpFR	8	n/a	n/a	n/a	n/a	n/a	n/a	11	4	3	4	n/a	n/a	n/a	n/a	n/a
1534.448	n/a	PROB	767224	n/a	LTP246	ltpFR	8	n/a	n/a	n/a	n/a	n/a	n/a	20	8	8	4	n/a	n/a	n/a	n/a	n/a
1537.858	n/a	PROB	768929	n/a	LTP246	ltpFR	8	n/a	n/a	n/a	n/a	n/a	n/a	15	2	5	8	n/a	n/a	n/a	n/a	n/a
1540.122	n/a	PROB	770061	n/a	LTP246	ltpFR	8	n/a	n/a	n/a	n/a	n/a	n/a	21	6	7	8	n/a	n/a	n/a	n/a	n/a
1541.952	n/a	PROB	770976	n/a	LTP246	ltpFR	8	n/a	n/a	n/a	n/a	n/a	n/a	10	8	1	1	n/a	n/a	n/a	n/a	n/a
1547.152	n/a	STOP	773576	n/a	LTP246	ltpFR	8	n/a	n/a	n/a	n/a	n/a	n/a	n/a	n/a	n/a	n/a	n/a	n/a	n/a	n/a	n/a
1548.144	n/a	WORD	774072	wordpools/wasnorm_wordpool_less_exclusions.txt	LTP246	ltpFR	8	5	0	TRAITOR	1495	n/a	1	n/a	0	0	0	0	0.5869140625	0.422607421875	lower	../fonts/zerothre.ttf
1551.156	n/a	START	775578	n/a	LTP246	ltpFR	8	n/a	n/a	n/a	n/a	n/a	n/a	n/a	n/a	n/a	n/a	n/a	n/a	n/a	n/a	n/a
1552.072	n/a	PROB	776036	n/a	LTP246	ltpFR	8	n/a	n/a	n/a	n/a	n/a	n/a	15	6	6	3	n/a	n/a	n/a	n/a	n/a
1554.934	n/a	PROB	777467	n/a	LTP246	ltpFR	8	n/a	n/a	n/a	n/a	n/a	n/a	19	1	9	9	n/a	n/a	n/a	n/a	n/a
1557.18	n/a	PROB	778590	n/a	LTP246	ltpFR	8	n/a	n/a	n/a	n/a	n/a	n/a	16	7	6	3	n/a	n/a	n/a	n/a	n/a
1561.94	n/a	PROB	780970	n/a	LTP246	ltpFR	8	n/a	n/a	n/a	n/a	n/a	n/a	18	5	5	8	n/a	n/a	n/a	n/a	n/a
1567.156	n/a	STOP	783578	n/a	LTP246	ltpFR	8	n/a	n/a	n/a	n/a	n/a	n/a	n/a	n/a	n/a	n/a	n/a	n/a	n/a	n/a	n/a
1568.314	n/a	WORD	784157	wordpools/wasnorm_wordpool_less_exclusions.txt	LTP246	ltpFR	8	5	0	PARSLEY	1016	n/a	0	n/a	0	0	0	0	0.5869140625	0.422607421875	lower	../fonts/zerothre.ttf
1571.326	n/a	START	785663	n/a	LTP246	ltpFR	8	n/a	n/a	n/a	n/a	n/a	n/a	n/a	n/a	n/a	n/a	n/a	n/a	n/a	n/a	n/a
1572.458	n/a	PROB	786229	n/a	LTP246	ltpFR	8	n/a	n/a	n/a	n/a	n/a	n/a	9	1	1	7	n/a	n/a	n/a	n/a	n/a
1573.988	n/a	PROB	786994	n/a	LTP246	ltpFR	8	n/a	n/a	n/a	n/a	n/a	n/a	21	4	8	9	n/a	n/a	n/a	n/a	n/a
1577.116	n/a	PROB	788558	n/a	LTP246	ltpFR	8	n/a	n/a	n/a	n/a	n/a	n/a	20	9	4	7	n/a	n/a	n/a	n/a	n/a
1579.446	n/a	PROB	789723	n/a	LTP246	ltpFR	8	n/a	n/a	n/a	n/a	n/a	n/a	13	2	5	6	n/a	n/a	n/a	n/a	n/a
1581.944	n/a	PROB	790972	n/a	LTP246	ltpFR	8	n/a	n/a	n/a	n/a	n/a	n/a	13	4	3	6	n/a	n/a	n/a	n/a	n/a
1585.85	n/a	STOP	792925	n/a	LTP246	ltpFR	8	n/a	n/a	n/a	n/a	n/a	n/a	n/a	n/a	n/a	n/a	n/a	n/a	n/a	n/a	n/a
1588.416	n/a	WORD	794208	wordpools/wasnorm_wordpool_less_exclusions.txt	LTP246	ltpFR	8	5	0	LOAF	835	n/a	0	n/a	0	0	0	0	0.5869140625	0.422607421875	lower	../fonts/zerothre.ttf
1591.43	n/a	START	795715	n/a	LTP246	ltpFR	8	n/a	n/a	n/a	n/a	n/a	n/a	n/a	n/a	n/a	n/a	n/a	n/a	n/a	n/a	n/a
1592.594	n/a	PROB	796297	n/a	LTP246	ltpFR	8	n/a	n/a	n/a	n/a	n/a	n/a	14	1	8	5	n/a	n/a	n/a	n/a	n/a
1595.09	n/a	PROB	797545	n/a	LTP246	ltpFR	8	n/a	n/a	n/a	n/a	n/a	n/a	8	5	1	2	n/a	n/a	n/a	n/a	n/a
1597.42	n/a	PROB	798710	n/a	LTP246	ltpFR	8	n/a	n/a	n/a	n/a	n/a	n/a	16	2	6	8	n/a	n/a	n/a	n/a	n/a
1599.352	n/a	PROB	799676	n/a	LTP246	ltpFR	8	n/a	n/a	n/a	n/a	n/a	n/a	13	1	5	7	n/a	n/a	n/a	n/a	n/a
1602.08	n/a	PROB	801040	n/a	LTP246	ltpFR	8	n/a	n/a	n/a	n/a	n/a	n/a	11	3	4	4	n/a	n/a	n/a	n/a	n/a
1607.43	n/a	STOP	803715	n/a	LTP246	ltpFR	8	n/a	n/a	n/a	n/a	n/a	n/a	n/a	n/a	n/a	n/a	n/a	n/a	n/a	n/a	n/a
1608.338	n/a	WORD	804169	wordpools/wasnorm_wordpool_less_exclusions.txt	LTP246	ltpFR	8	5	0	TAVERN	1437	n/a	1	n/a	0	0	0	0	0.5869140625	0.422607421875	lower	../fonts/zerothre.ttf
1611.35	n/a	START	805675	n/a	LTP246	ltpFR	8	n/a	n/a	n/a	n/a	n/a	n/a	n/a	n/a	n/a	n/a	n/a	n/a	n/a	n/a	n/a
1612.448	n/a	PROB	806224	n/a	LTP246	ltpFR	8	n/a	n/a	n/a	n/a	n/a	n/a	12	3	8	1	n/a	n/a	n/a	n/a	n/a
1614.928	n/a	PROB	807464	n/a	LTP246	ltpFR	8	n/a	n/a	n/a	n/a	n/a	n/a	14	3	9	2	n/a	n/a	n/a	n/a	n/a
1618.04	n/a	PROB	809020	n/a	LTP246	ltpFR	8	n/a	n/a	n/a	n/a	n/a	n/a	10	6	3	1	n/a	n/a	n/a	n/a	n/a
1619.588	n/a	PROB	809794	n/a	LTP246	ltpFR	8	n/a	n/a	n/a	n/a	n/a	n/a	26	8	9	9	n/a	n/a	n/a	n/a	n/a
1623.616	n/a	PROB	811808	n/a	LTP246	ltpFR	8	n/a	n/a	n/a	n/a	n/a	n/a	19	1	9	9	n/a	n/a	n/a	n/a	n/a
1627.35	n/a	STOP	813675	n/a	LTP246	ltpFR	8	n/a	n/a	n/a	n/a	n/a	n/a	n/a	n/a	n/a	n/a	n/a	n/a	n/a	n/a	n/a
1628.308	n/a	WORD	814154	wordpools/wasnorm_wordpool_less_exclusions.txt	LTP246	ltpFR	8	5	0	MARBLE	867	n/a	0	n/a	0	0	0	0	0.5869140625	0.422607421875	lower	../fonts/zerothre.ttf
1631.32	n/a	START	815660	n/a	LTP246	ltpFR	8	n/a	n/a	n/a	n/a	n/a	n/a	n/a	n/a	n/a	n/a	n/a	n/a	n/a	n/a	n/a
1632.418	n/a	PROB	816209	n/a	LTP246	ltpFR	8	n/a	n/a	n/a	n/a	n/a	n/a	17	1	8	8	n/a	n/a	n/a	n/a	n/a
1634.282	n/a	PROB	817141	n/a	LTP246	ltpFR	8	n/a	n/a	n/a	n/a	n/a	n/a	17	3	5	9	n/a	n/a	n/a	n/a	n/a
1636.196	n/a	PROB	818098	n/a	LTP246	ltpFR	8	n/a	n/a	n/a	n/a	n/a	n/a	13	4	8	1	n/a	n/a	n/a	n/a	n/a
1639.792	n/a	PROB	819896	n/a	LTP246	ltpFR	8	n/a	n/a	n/a	n/a	n/a	n/a	18	4	6	8	n/a	n/a	n/a	n/a	n/a
1641.788	n/a	PROB	820894	n/a	LTP246	ltpFR	8	n/a	n/a	n/a	n/a	n/a	n/a	11	5	4	2	n/a	n/a	n/a	n/a	n/a
1644.052	n/a	PROB	822026	n/a	LTP246	ltpFR	8	n/a	n/a	n/a	n/a	n/a	n/a	10	3	6	1	n/a	n/a	n/a	n/a	n/a
1647.32	n/a	STOP	823660	n/a	LTP246	ltpFR	8	n/a	n/a	n/a	n/a	n/a	n/a	n/a	n/a	n/a	n/a	n/a	n/a	n/a	n/a	n/a
1649.178	n/a	REC_START	824589	n/a	LTP246	ltpFR	8	5	n/a	n/a	n/a	n/a	n/a	n/a	0	0	0	n/a	n/a	n/a	n/a	n/a
1651.198	n/a	REC_WORD	825599	wordpools/wasnorm_wordpool_less_exclusions.txt	LTP246	ltpFR	8	5	0	MARBLE	867	n/a	0	n/a	0	0	0	n/a	n/a	n/a	n/a	n/a
1652.6	n/a	REC_WORD	826300	wordpools/wasnorm_wordpool_less_exclusions.txt	LTP246	ltpFR	8	5	0	LOAF	835	n/a	0	n/a	0	0	0	n/a	n/a	n/a	n/a	n/a
1654.386	n/a	REC_WORD	827193	wordpools/wasnorm_wordpool_less_exclusions.txt	LTP246	ltpFR	8	5	0	BREAD	170	n/a	0	n/a	0	0	0	n/a	n/a	n/a	n/a	n/a
1656.86	n/a	REC_WORD	828430	wordpools/wasnorm_wordpool_less_exclusions.txt	LTP246	ltpFR	8	5	0	BUREAU	199	n/a	1	n/a	0	0	0	n/a	n/a	n/a	n/a	n/a
1658.61	n/a	REC_WORD	829305	wordpools/wasnorm_wordpool_less_exclusions.txt	LTP246	ltpFR	8	5	0	NOTEBOOK	959	n/a	0	n/a	0	0	0	n/a	n/a	n/a	n/a	n/a
1660.342	n/a	REC_WORD	830171	wordpools/wasnorm_wordpool_less_exclusions.txt	LTP246	ltpFR	8	5	0	SKETCH	1315	n/a	0	n/a	0	0	0	n/a	n/a	n/a	n/a	n/a
1661.51	n/a	REC_WORD	830755	wordpools/wasnorm_wordpool_less_exclusions.txt	LTP246	ltpFR	8	5	0	TAVERN	1437	n/a	1	n/a	0	0	0	n/a	n/a	n/a	n/a	n/a
1764.274	n/a	WORD	882137	wordpools/wasnorm_wordpool_less_exclusions.txt	LTP246	ltpFR	8	6	0	ATTIC	56	n/a	1	n/a	0	0	0	0	0.5869140625	0.422607421875	lower	../fonts/zerothre.ttf
1768.252	n/a	WORD	884126	wordpools/wasnorm_wordpool_less_exclusions.txt	LTP246	ltpFR	8	6	0	BALCONY	72	n/a	1	n/a	0	0	0	0	0.5869140625	0.422607421875	lower	../fonts/zerothre.ttf
1772.262	n/a	WORD	886131	wordpools/wasnorm_wordpool_less_exclusions.txt	LTP246	ltpFR	8	6	0	SUPERVISOR	1410	n/a	1	n/a	0	0	0	0	0.5869140625	0.422607421875	lower	../fonts/zerothre.ttf
1776.14	n/a	WORD	888070	wordpools/wasnorm_wordpool_less_exclusions.txt	LTP246	ltpFR	8	6	0	CRUMB	416	n/a	0	n/a	0	0	0	0	0.5869140625	0.422607421875	lower	../fonts/zerothre.ttf
1780.234	n/a	WORD	890117	wordpools/wasnorm_wordpool_less_exclusions.txt	LTP246	ltpFR	8	6	0	PEACH	1031	n/a	1	n/a	0	0	0	0	0.5869140625	0.422607421875	lower	../fonts/zerothre.ttf
1784.278	n/a	WORD	892139	wordpools/wasnorm_wordpool_less_exclusions.txt	LTP246	ltpFR	8	6	0	HAMMER	680	n/a	0	n/a	0	0	0	0	0.5869140625	0.422607421875	lower	../fonts/zerothre.ttf
1788.154	n/a	WORD	894077	wordpools/wasnorm_wordpool_less_exclusions.txt	LTP246	ltpFR	8	6	0	BRANCH	168	n/a	0	n/a	0	0	0	0	0.5869140625	0.422607421875	lower	../fonts/zerothre.ttf
1792.248	n/a	WORD	896124	wordpools/wasnorm_wordpool_less_exclusions.txt	LTP246	ltpFR	8	6	0	HANDKERCHIEF	686	n/a	0	n/a	0	0	0	0	0.5869140625	0.422607421875	lower	../fonts/zerothre.ttf
1796.342	n/a	WORD	898171	wordpools/wasnorm_wordpool_less_exclusions.txt	LTP246	ltpFR	8	6	0	ATHLETE	52	n/a	1	n/a	0	0	0	0	0.5869140625	0.422607421875	lower	../fonts/zerothre.ttf
1800.37	n/a	WORD	900185	wordpools/wasnorm_wordpool_less_exclusions.txt	LTP246	ltpFR	8	6	0	CLERK	321	n/a	1	n/a	0	0	0	0	0.5869140625	0.422607421875	lower	../fonts/zerothre.ttf
1804.198	n/a	WORD	902099	wordpools/wasnorm_wordpool_less_exclusions.txt	LTP246	ltpFR	8	6	0	WRENCH	1625	n/a	0	n/a	0	0	0	0	0.5869140625	0.422607421875	lower	../fonts/zerothre.ttf
1808.224	n/a	WORD	904112	wordpools/wasnorm_wordpool_less_exclusions.txt	LTP246	ltpFR	8	6	0	TECHNICIAN	1443	n/a	1	n/a	0	0	0	0	0.5869140625	0.422607421875	lower	../fonts/zerothre.ttf
1812.102	n/a	WORD	906051	wordpools/wasnorm_wordpool_less_exclusions.txt	LTP246	ltpFR	8	6	0	QUARTER	1148	n/a	0	n/a	0	0	0	0	0.5869140625	0.422607421875	lower	../fonts/zerothre.ttf
1816.13	n/a	WORD	908065	wordpools/wasnorm_wordpool_less_exclusions.txt	LTP246	ltpFR	8	6	0	LETTUCE	814	n/a	0	n/a	0	0	0	0	0.5869140625	0.422607421875	lower	../fonts/zerothre.ttf
1820.19	n/a	WORD	910095	wordpools/wasnorm_wordpool_less_exclusions.txt	LTP246	ltpFR	8	6	0	LAKE	796	n/a	1	n/a	0	0	0	0	0.5869140625	0.422607421875	lower	../fonts/zerothre.ttf
1824.034	n/a	WORD	912017	wordpools/wasnorm_wordpool_less_exclusions.txt	LTP246	ltpFR	8	6	0	TREAD	1499	n/a	0	n/a	0	0	0	0	0.5869140625	0.422607421875	lower	../fonts/zerothre.ttf
1830.06	n/a	REC_START	915030	n/a	LTP246	ltpFR	8	6	n/a	n/a	n/a	n/a	n/a	n/a	0	0	0	n/a	n/a	n/a	n/a	n/a
1837.598	n/a	REC_WORD	918799	wordpools/wasnorm_wordpool_less_exclusions.txt	LTP246	ltpFR	8	6	0	ATTIC	56	n/a	1	n/a	0	0	0	n/a	n/a	n/a	n/a	n/a
1838.676	n/a	REC_WORD	919338	wordpools/wasnorm_wordpool_less_exclusions.txt	LTP246	ltpFR	8	6	0	BALCONY	72	n/a	1	n/a	0	0	0	n/a	n/a	n/a	n/a	n/a
1840.722	n/a	REC_WORD	920361	wordpools/wasnorm_wordpool_less_exclusions.txt	LTP246	ltpFR	8	6	0	SUPERVISOR	1410	n/a	1	n/a	0	0	0	n/a	n/a	n/a	n/a	n/a
1842.932	n/a	REC_WORD	921466	wordpools/wasnorm_wordpool_less_exclusions.txt	LTP246	ltpFR	8	6	0	CRUMB	416	n/a	0	n/a	0	0	0	n/a	n/a	n/a	n/a	n/a
1845.106	n/a	REC_WORD	922553	wordpools/wasnorm_wordpool_less_exclusions.txt	LTP246	ltpFR	8	6	0	PEACH	1031	n/a	1	n/a	0	0	0	n/a	n/a	n/a	n/a	n/a
1846.538	n/a	REC_WORD	923269	wordpools/wasnorm_wordpool_less_exclusions.txt	LTP246	ltpFR	8	6	0	HAMMER	680	n/a	0	n/a	0	0	0	n/a	n/a	n/a	n/a	n/a
1847.766	n/a	REC_WORD	923883	wordpools/wasnorm_wordpool_less_exclusions.txt	LTP246	ltpFR	8	6	0	BRANCH	168	n/a	0	n/a	0	0	0	n/a	n/a	n/a	n/a	n/a
1848.912	n/a	REC_WORD	924456	wordpools/wasnorm_wordpool_less_exclusions.txt	LTP246	ltpFR	8	6	0	HANDKERCHIEF	686	n/a	0	n/a	0	0	0	n/a	n/a	n/a	n/a	n/a
1852.638	n/a	REC_WORD	926319	wordpools/wasnorm_wordpool_less_exclusions.txt	LTP246	ltpFR	8	6	0	ATHLETE	52	n/a	1	n/a	0	0	0	n/a	n/a	n/a	n/a	n/a
1854.644	n/a	REC_WORD	927322	wordpools/wasnorm_wordpool_less_exclusions.txt	LTP246	ltpFR	8	6	0	CLERK	321	n/a	1	n/a	0	0	0	n/a	n/a	n/a	n/a	n/a
1855.796	n/a	REC_WORD	927898	wordpools/wasnorm_wordpool_less_exclusions.txt	LTP246	ltpFR	8	6	0	WRENCH	1625	n/a	0	n/a	0	0	0	n/a	n/a	n/a	n/a	n/a
1856.834	n/a	REC_WORD	928417	wordpools/wasnorm_wordpool_less_exclusions.txt	LTP246	ltpFR	8	6	0	TECHNICIAN	1443	n/a	1	n/a	0	0	0	n/a	n/a	n/a	n/a	n/a
1861.16	n/a	REC_WORD	930580	wordpools/wasnorm_wordpool_less_exclusions.txt	LTP246	ltpFR	8	6	0	QUARTER	1148	n/a	0	n/a	0	0	0	n/a	n/a	n/a	n/a	n/a
1862.062	n/a	REC_WORD	931031	wordpools/wasnorm_wordpool_less_exclusions.txt	LTP246	ltpFR	8	6	0	LETTUCE	814	n/a	0	n/a	0	0	0	n/a	n/a	n/a	n/a	n/a
1862.946	n/a	REC_WORD	931473	wordpools/wasnorm_wordpool_less_exclusions.txt	LTP246	ltpFR	8	6	0	LAKE	796	n/a	1	n/a	0	0	0	n/a	n/a	n/a	n/a	n/a
1863.764	n/a	REC_WORD	931882	wordpools/wasnorm_wordpool_less_exclusions.txt	LTP246	ltpFR	8	6	0	TREAD	1499	n/a	0	n/a	0	0	0	n/a	n/a	n/a	n/a	n/a
1945.072	n/a	WORD	972536	wordpools/wasnorm_wordpool_less_exclusions.txt	LTP246	ltpFR	8	7	0	FRUIT	610	n/a	0	n/a	0	0	0	0	0.5869140625	0.422607421875	lower	../fonts/zerothre.ttf
1948.916	n/a	WORD	974458	wordpools/wasnorm_wordpool_less_exclusions.txt	LTP246	ltpFR	8	7	0	PRUNE	1134	n/a	0	n/a	0	0	0	0	0.5869140625	0.422607421875	lower	../fonts/zerothre.ttf
1952.778	n/a	WORD	976389	wordpools/wasnorm_wordpool_less_exclusions.txt	LTP246	ltpFR	8	7	1	FIELD	562	n/a	1	n/a	0	0	0	1	0.412841796875	0.57763671875	upper	../fonts/amplitud.ttf
1956.822	n/a	WORD	978411	wordpools/wasnorm_wordpool_less_exclusions.txt	LTP246	ltpFR	8	7	1	SUSPECT	1415	n/a	1	n/a	0	0	0	1	0.412841796875	0.57763671875	upper	../fonts/amplitud.ttf
1960.898	n/a	WORD	980449	wordpools/wasnorm_wordpool_less_exclusions.txt	LTP246	ltpFR	8	7	0	CASHEW	253	n/a	0	n/a	0	0	0	0	0.5869140625	0.422607421875	lower	../fonts/zerothre.ttf
1965.11	n/a	WORD	982555	wordpools/wasnorm_wordpool_less_exclusions.txt	LTP246	ltpFR	8	7	0	MONASTERY	907	n/a	1	n/a	0	0	0	0	0.5869140625	0.422607421875	lower	../fonts/zerothre.ttf
1969.154	n/a	WORD	984577	wordpools/wasnorm_wordpool_less_exclusions.txt	LTP246	ltpFR	8	7	1	BULL	193	n/a	1	n/a	0	0	0	1	0.412841796875	0.57763671875	upper	../fonts/amplitud.ttf
1973.08	n/a	WORD	986540	wordpools/wasnorm_wordpool_less_exclusions.txt	LTP246	ltpFR	8	7	1	CHAMBER	277	n/a	0	n/a	0	0	0	1	0.412841796875	0.57763671875	upper	../fonts/amplitud.ttf
1976.924	n/a	WORD	988462	wordpools/wasnorm_wordpool_less_exclusions.txt	LTP246	ltpFR	8	7	1	SPY	1360	n/a	1	n/a	0	0	0	1	0.412841796875	0.57763671875	upper	../fonts/amplitud.ttf
1981.136	n/a	WORD	990568	wordpools/wasnorm_wordpool_less_exclusions.txt	LTP246	ltpFR	8	7	1	COP	376	n/a	1	n/a	0	0	0	1	0.412841796875	0.57763671875	upper	../fonts/amplitud.ttf
1985.346	n/a	WORD	992673	wordpools/wasnorm_wordpool_less_exclusions.txt	LTP246	ltpFR	8	7	1	PEAR	1033	n/a	0	n/a	0	0	0	1	0.412841796875	0.57763671875	upper	../fonts/amplitud.ttf
1989.374	n/a	WORD	994687	wordpools/wasnorm_wordpool_less_exclusions.txt	LTP246	ltpFR	8	7	1	PEARL	1034	n/a	0	n/a	0	0	0	1	0.412841796875	0.57763671875	upper	../fonts/amplitud.ttf
1993.252	n/a	WORD	996626	wordpools/wasnorm_wordpool_less_exclusions.txt	LTP246	ltpFR	8	7	0	PARIS	1014	n/a	1	n/a	0	0	0	0	0.5869140625	0.422607421875	lower	../fonts/zerothre.ttf
1997.112	n/a	WORD	998556	wordpools/wasnorm_wordpool_less_exclusions.txt	LTP246	ltpFR	8	7	0	TENT	1449	n/a	0	n/a	0	0	0	0	0.5869140625	0.422607421875	lower	../fonts/zerothre.ttf
2001.272	n/a	WORD	1000636	wordpools/wasnorm_wordpool_less_exclusions.txt	LTP246	ltpFR	8	7	0	TREE	1502	n/a	1	n/a	0	0	0	0	0.5869140625	0.422607421875	lower	../fonts/zerothre.ttf
2005.3	n/a	WORD	1002650	wordpools/wasnorm_wordpool_less_exclusions.txt	LTP246	ltpFR	8	7	0	NUT	965	n/a	0	n/a	0	0	0	0	0.5869140625	0.422607421875	lower	../fonts/zerothre.ttf
2008.312	n/a	START	1004156	n/a	LTP246	ltpFR	8	n/a	n/a	n/a	n/a	n/a	n/a	n/a	n/a	n/a	n/a	n/a	n/a	n/a	n/a	n/a
2009.46	n/a	PROB	1004730	n/a	LTP246	ltpFR	8	n/a	n/a	n/a	n/a	n/a	n/a	20	7	4	9	n/a	n/a	n/a	n/a	n/a
2013.354	n/a	PROB	1006677	n/a	LTP246	ltpFR	8	n/a	n/a	n/a	n/a	n/a	n/a	17	7	5	5	n/a	n/a	n/a	n/a	n/a
2015.984	n/a	STOP	1007992	n/a	LTP246	ltpFR	8	n/a	n/a	n/a	n/a	n/a	n/a	n/a	n/a	n/a	n/a	n/a	n/a	n/a	n/a	n/a
2018.182	n/a	REC_START	1009091	n/a	LTP246	ltpFR	8	7	n/a	n/a	n/a	n/a	n/a	n/a	0	0	0	n/a	n/a	n/a	n/a	n/a
2027.664	n/a	REC_WORD	1013832	wordpools/wasnorm_wordpool_less_exclusions.txt	LTP246	ltpFR	8	7	0	FRUIT	610	n/a	0	n/a	0	0	0	n/a	n/a	n/a	n/a	n/a
2029.222	n/a	REC_WORD	1014611	wordpools/wasnorm_wordpool_less_exclusions.txt	LTP246	ltpFR	8	7	0	PRUNE	1134	n/a	0	n/a	0	0	0	n/a	n/a	n/a	n/a	n/a
2030.648	n/a	REC_WORD	1015324	wordpools/wasnorm_wordpool_less_exclusions.txt	LTP246	ltpFR	8	7	1	FIELD	562	n/a	1	n/a	0	0	0	n/a	n/a	n/a	n/a	n/a
2041.464	n/a	REC_WORD	1020732	wordpools/wasnorm_wordpool_less_exclusions.txt	LTP246	ltpFR	8	7	1	SUSPECT	1415	n/a	1	n/a	0	0	0	n/a	n/a	n/a	n/a	n/a
2043.08	n/a	REC_WORD	1021540	wordpools/wasnorm_wordpool_less_exclusions.txt	LTP246	ltpFR	8	7	0	CASHEW	253	n/a	0	n/a	0	0	0	n/a	n/a	n/a	n/a	n/a
2044.666	n/a	REC_WORD	1022333	wordpools/wasnorm_wordpool_less_exclusions.txt	LTP246	ltpFR	8	7	0	MONASTERY	907	n/a	1	n/a	0	0	0	n/a	n/a	n/a	n/a	n/a
2046.636	n/a	REC_WORD	1023318	wordpools/wasnorm_wordpool_less_exclusions.txt	LTP246	ltpFR	8	7	1	BULL	193	n/a	1	n/a	0	0	0	n/a	n/a	n/a	n/a	n/a
2049.022	n/a	REC_WORD	1024511	wordpools/wasnorm_wordpool_less_exclusions.txt	LTP246	ltpFR	8	7	1	CHAMBER	277	n/a	0	n/a	0	0	0	n/a	n/a	n/a	n/a	n/a
2050.578	n/a	REC_WORD	1025289	wordpools/wasnorm_wordpool_less_exclusions.txt	LTP246	ltpFR	8	7	1	SPY	1360	n/a	1	n/a	0	0	0	n/a	n/a	n/a	n/a	n/a
2052.354	n/a	REC_WORD	1026177	wordpools/wasnorm_wordpool_less_exclusions.txt	LTP246	ltpFR	8	7	1	COP	376	n/a	1	n/a	0	0	0	n/a	n/a	n/a	n/a	n/a
2053.71	n/a	REC_WORD	1026855	wordpools/wasnorm_wordpool_less_exclusions.txt	LTP246	ltpFR	8	7	1	PEAR	1033	n/a	0	n/a	0	0	0	n/a	n/a	n/a	n/a	n/a
2055.158	n/a	REC_WORD	1027579	wordpools/wasnorm_wordpool_less_exclusions.txt	LTP246	ltpFR	8	7	1	PEARL	1034	n/a	0	n/a	0	0	0	n/a	n/a	n/a	n/a	n/a
2061.08	n/a	REC_WORD	1030540	wordpools/wasnorm_wordpool_less_exclusions.txt	LTP246	ltpFR	8	7	0	PARIS	1014	n/a	1	n/a	0	0	0	n/a	n/a	n/a	n/a	n/a
2066.752	n/a	REC_WORD	1033376	wordpools/wasnorm_wordpool_less_exclusions.txt	LTP246	ltpFR	8	7	0	TENT	1449	n/a	0	n/a	0	0	0	n/a	n/a	n/a	n/a	n/a
2067.864	n/a	REC_WORD	1033932	wordpools/wasnorm_wordpool_less_exclusions.txt	LTP246	ltpFR	8	7	0	TREE	1502	n/a	1	n/a	0	0	0	n/a	n/a	n/a	n/a	n/a
2069.192	n/a	REC_WORD	1034596	wordpools/wasnorm_wordpool_less_exclusions.txt	LTP246	ltpFR	8	7	0	NUT	965	n/a	0	n/a	0	0	0	n/a	n/a	n/a	n/a	n/a
2152.616	n/a	WORD	1076308	wordpools/wasnorm_wordpool_less_exclusions.txt	LTP246	ltpFR	8	8	0	VET	1560	n/a	1	n/a	0	0	0	0	0.5869140625	0.422607421875	lower	../fonts/zerothre.ttf
2156.76	n/a	WORD	1078380	wordpools/wasnorm_wordpool_less_exclusions.txt	LTP246	ltpFR	8	8	0	WALRUS	1585	n/a	1	n/a	0	0	0	0	0.5869140625	0.422607421875	lower	../fonts/zerothre.ttf
2160.754	n/a	WORD	1080377	wordpools/wasnorm_wordpool_less_exclusions.txt	LTP246	ltpFR	8	8	1	HURRICANE	727	n/a	0	n/a	0	0	0	1	0.412841796875	0.57763671875	upper	../fonts/amplitud.ttf
2164.83	n/a	WORD	1082415	wordpools/wasnorm_wordpool_less_exclusions.txt	LTP246	ltpFR	8	8	1	TRASH	1497	n/a	0	n/a	0	0	0	1	0.412841796875	0.57763671875	upper	../fonts/amplitud.ttf
2168.724	n/a	WORD	1084362	wordpools/wasnorm_wordpool_less_exclusions.txt	LTP246	ltpFR	8	8	1	WINDSHIELD	1612	n/a	0	n/a	0	0	0	1	0.412841796875	0.57763671875	upper	../fonts/amplitud.ttf
2172.902	n/a	WORD	1086451	wordpools/wasnorm_wordpool_less_exclusions.txt	LTP246	ltpFR	8	8	1	MECHANIC	884	n/a	1	n/a	0	0	0	1	0.412841796875	0.57763671875	upper	../fonts/amplitud.ttf
2176.912	n/a	WORD	1088456	wordpools/wasnorm_wordpool_less_exclusions.txt	LTP246	ltpFR	8	8	1	PRINCE	1124	n/a	0	n/a	0	0	0	1	0.412841796875	0.57763671875	upper	../fonts/amplitud.ttf
2180.974	n/a	WORD	1090487	wordpools/wasnorm_wordpool_less_exclusions.txt	LTP246	ltpFR	8	8	0	CYLINDER	432	n/a	0	n/a	0	0	0	0	0.5869140625	0.422607421875	lower	../fonts/zerothre.ttf
2185.05	n/a	WORD	1092525	wordpools/wasnorm_wordpool_less_exclusions.txt	LTP246	ltpFR	8	8	0	AWARD	63	n/a	0	n/a	0	0	0	0	0.5869140625	0.422607421875	lower	../fonts/zerothre.ttf
2188.944	n/a	WORD	1094472	wordpools/wasnorm_wordpool_less_exclusions.txt	LTP246	ltpFR	8	8	0	SATURN	1236	n/a	1	n/a	0	0	0	0	0.5869140625	0.422607421875	lower	../fonts/zerothre.ttf
2193.154	n/a	WORD	1096577	wordpools/wasnorm_wordpool_less_exclusions.txt	LTP246	ltpFR	8	8	1	TWISTER	1530	n/a	0	n/a	0	0	0	1	0.412841796875	0.57763671875	upper	../fonts/amplitud.ttf
2197.032	n/a	WORD	1098516	wordpools/wasnorm_wordpool_less_exclusions.txt	LTP246	ltpFR	8	8	1	VICTOR	1563	n/a	1	n/a	0	0	0	1	0.412841796875	0.57763671875	upper	../fonts/amplitud.ttf
2201.242	n/a	WORD	1100621	wordpools/wasnorm_wordpool_less_exclusions.txt	LTP246	ltpFR	8	8	1	DIAPER	459	n/a	0	n/a	0	0	0	1	0.412841796875	0.57763671875	upper	../fonts/amplitud.ttf
2205.188	n/a	WORD	1102594	wordpools/wasnorm_wordpool_less_exclusions.txt	LTP246	ltpFR	8	8	0	SCOUT	1252	n/a	0	n/a	0	0	0	0	0.5869140625	0.422607421875	lower	../fonts/zerothre.ttf
2209.398	n/a	WORD	1104699	wordpools/wasnorm_wordpool_less_exclusions.txt	LTP246	ltpFR	8	8	0	CEREAL	272	n/a	0	n/a	0	0	0	0	0.5869140625	0.422607421875	lower	../fonts/zerothre.ttf
2213.41	n/a	WORD	1106705	wordpools/wasnorm_wordpool_less_exclusions.txt	LTP246	ltpFR	8	8	0	FROST	609	n/a	0	n/a	0	0	0	0	0.5869140625	0.422607421875	lower	../fonts/zerothre.ttf
2216.422	n/a	START	1108211	n/a	LTP246	ltpFR	8	n/a	n/a	n/a	n/a	n/a	n/a	n/a	n/a	n/a	n/a	n/a	n/a	n/a	n/a	n/a
2217.486	n/a	PROB	1108743	n/a	LTP246	ltpFR	8	n/a	n/a	n/a	n/a	n/a	n/a	19	7	4	8	n/a	n/a	n/a	n/a	n/a
2221.13	n/a	PROB	1110565	n/a	LTP246	ltpFR	8	n/a	n/a	n/a	n/a	n/a	n/a	8	1	4	3	n/a	n/a	n/a	n/a	n/a
2223.1	n/a	STOP	1111550	n/a	LTP246	ltpFR	8	n/a	n/a	n/a	n/a	n/a	n/a	n/a	n/a	n/a	n/a	n/a	n/a	n/a	n/a	n/a
2226.224	n/a	REC_START	1113112	n/a	LTP246	ltpFR	8	8	n/a	n/a	n/a	n/a	n/a	n/a	0	0	0	n/a	n/a	n/a	n/a	n/a
2241.014	n/a	REC_WORD	1120507	wordpools/wasnorm_wordpool_less_exclusions.txt	LTP246	ltpFR	8	8	0	VET	1560	n/a	1	n/a	0	0	0	n/a	n/a	n/a	n/a	n/a
2242.382	n/a	REC_WORD	1121191	wordpools/wasnorm_wordpool_less_exclusions.txt	LTP246	ltpFR	8	8	0	WALRUS	1585	n/a	1	n/a	0	0	0	n/a	n/a	n/a	n/a	n/a
2246.158	n/a	REC_WORD	1123079	wordpools/wasnorm_wordpool_less_exclusions.txt	LTP246	ltpFR	8	8	1	HURRICANE	727	n/a	0	n/a	0	0	0	n/a	n/a	n/a	n/a	n/a
2247.36	n/a	REC_WORD	1123680	wordpools/wasnorm_wordpool_less_exclusions.txt	LTP246	ltpFR	8	8	1	TRASH	1497	n/a	0	n/a	0	0	0	n/a	n/a	n/a	n/a	n/a
2248.478	n/a	REC_WORD	1124239	wordpools/wasnorm_wordpool_less_exclusions.txt	LTP246	ltpFR	8	8	1	WINDSHIELD	1612	n/a	0	n/a	0	0	0	n/a	n/a	n/a	n/a	n/a
2249.394	n/a	REC_WORD	1124697	wordpools/wasnorm_wordpool_less_exclusions.txt	LTP246	ltpFR	8	8	1	MECHANIC	884	n/a	1	n/a	0	0	0	n/a	n/a	n/a	n/a	n/a
2250.508	n/a	REC_WORD	1125254	wordpools/wasnorm_wordpool_less_exclusions.txt	LTP246	ltpFR	8	8	1	PRINCE	1124	n/a	0	n/a	0	0	0	n/a	n/a	n/a	n/a	n/a
2251.306	n/a	REC_WORD	1125653	wordpools/wasnorm_wordpool_less_exclusions.txt	LTP246	ltpFR	8	8	0	CYLINDER	432	n/a	0	n/a	0	0	0	n/a	n/a	n/a	n/a	n/a
2252.284	n/a	REC_WORD	1126142	wordpools/wasnorm_wordpool_less_exclusions.txt	LTP246	ltpFR	8	8	0	AWARD	63	n/a	0	n/a	0	0	0	n/a	n/a	n/a	n/a	n/a
2253.322	n/a	REC_WORD	1126661	wordpools/wasnorm_wordpool_less_exclusions.txt	LTP246	ltpFR	8	8	0	SATURN	1236	n/a	1	n/a	0	0	0	n/a	n/a	n/a	n/a	n/a
2254.4	n/a	REC_WORD	1127200	wordpools/wasnorm_wordpool_less_exclusions.txt	LTP246	ltpFR	8	8	1	TWISTER	1530	n/a	0	n/a	0	0	0	n/a	n/a	n/a	n/a	n/a
2255.348	n/a	REC_WORD	1127674	wordpools/wasnorm_wordpool_less_exclusions.txt	LTP246	ltpFR	8	8	1	VICTOR	1563	n/a	1	n/a	0	0	0	n/a	n/a	n/a	n/a	n/a
2256.474	n/a	REC_WORD	1128237	wordpools/wasnorm_wordpool_less_exclusions.txt	LTP246	ltpFR	8	8	1	DIAPER	459	n/a	0	n/a	0	0	0	n/a	n/a	n/a	n/a	n/a
2262.69	n/a	REC_WORD	1131345	wordpools/wasnorm_wordpool_less_exclusions.txt	LTP246	ltpFR	8	8	0	SCOUT	1252	n/a	0	n/a	0	0	0	n/a	n/a	n/a	n/a	n/a
2267.29	n/a	REC_WORD	1133645	wordpools/wasnorm_wordpool_less_exclusions.txt	LTP246	ltpFR	8	8	0	CEREAL	272	n/a	0	n/a	0	0	0	n/a	n/a	n/a	n/a	n/a
2268.428	n/a	REC_WORD	1134214	wordpools/wasnorm_wordpool_less_exclusions.txt	LTP246	ltpFR	8	8	0	FROST	609	n/a	0	n/a	0	0	0	n/a	n/a	n/a	n/a	n/a
2314.758	n/a	WORD	1157379	wordpools/wasnorm_wordpool_less_exclusions.txt	LTP246	ltpFR	8	9	0	PELICAN	1039	n/a	0	n/a	0	0	0	0	0.5869140625	0.422607421875	lower	../fonts/zerothre.ttf
2318.604	n/a	WORD	1159302	wordpools/wasnorm_wordpool_less_exclusions.txt	LTP246	ltpFR	8	9	0	LABEL	790	n/a	0	n/a	0	0	0	0	0.5869140625	0.422607421875	lower	../fonts/zerothre.ttf
2322.448	n/a	WORD	1161224	wordpools/wasnorm_wordpool_less_exclusions.txt	LTP246	ltpFR	8	9	0	BEGGAR	117	n/a	1	n/a	0	0	0	0	0.5869140625	0.422607421875	lower	../fonts/zerothre.ttf
2326.524	n/a	WORD	1163262	wordpools/wasnorm_wordpool_less_exclusions.txt	LTP246	ltpFR	8	9	0	VAGRANT	1544	n/a	1	n/a	0	0	0	0	0.5869140625	0.422607421875	lower	../fonts/zerothre.ttf
2330.352	n/a	WORD	1165176	wordpools/wasnorm_wordpool_less_exclusions.txt	LTP246	ltpFR	8	9	1	SNAIL	1332	n/a	0	n/a	0	0	0	1	0.412841796875	0.57763671875	upper	../fonts/amplitud.ttf
2334.546	n/a	WORD	1167273	wordpools/wasnorm_wordpool_less_exclusions.txt	LTP246	ltpFR	8	9	1	JELLO	754	n/a	0	n/a	0	0	0	1	0.412841796875	0.57763671875	upper	../fonts/amplitud.ttf
2338.756	n/a	WORD	1169378	wordpools/wasnorm_wordpool_less_exclusions.txt	LTP246	ltpFR	8	9	0	SIGN	1305	n/a	0	n/a	0	0	0	0	0.5869140625	0.422607421875	lower	../fonts/zerothre.ttf
2342.7	n/a	WORD	1171350	wordpools/wasnorm_wordpool_less_exclusions.txt	LTP246	ltpFR	8	9	0	HAWK	692	n/a	1	n/a	0	0	0	0	0.5869140625	0.422607421875	lower	../fonts/zerothre.ttf
2346.828	n/a	WORD	1173414	wordpools/wasnorm_wordpool_less_exclusions.txt	LTP246	ltpFR	8	9	0	COAT	333	n/a	0	n/a	0	0	0	0	0.5869140625	0.422607421875	lower	../fonts/zerothre.ttf
2350.756	n/a	WORD	1175378	wordpools/wasnorm_wordpool_less_exclusions.txt	LTP246	ltpFR	8	9	0	MEAT	883	n/a	0	n/a	0	0	0	0	0.5869140625	0.422607421875	lower	../fonts/zerothre.ttf
2354.582	n/a	WORD	1177291	wordpools/wasnorm_wordpool_less_exclusions.txt	LTP246	ltpFR	8	9	1	UNIFORM	1539	n/a	0	n/a	0	0	0	1	0.412841796875	0.57763671875	upper	../fonts/amplitud.ttf
2358.526	n/a	WORD	1179263	wordpools/wasnorm_wordpool_less_exclusions.txt	LTP246	ltpFR	8	9	1	DESIGNER	451	n/a	1	n/a	0	0	0	1	0.412841796875	0.57763671875	upper	../fonts/amplitud.ttf
2362.722	n/a	WORD	1181361	wordpools/wasnorm_wordpool_less_exclusions.txt	LTP246	ltpFR	8	9	1	RICE	1190	n/a	0	n/a	0	0	0	1	0.412841796875	0.57763671875	upper	../fonts/amplitud.ttf
2366.832	n/a	WORD	1183416	wordpools/wasnorm_wordpool_less_exclusions.txt	LTP246	ltpFR	8	9	1	PENCIL	1042	n/a	0	n/a	0	0	0	1	0.412841796875	0.57763671875	upper	../fonts/amplitud.ttf
2370.66	n/a	WORD	1185330	wordpools/wasnorm_wordpool_less_exclusions.txt	LTP246	ltpFR	8	9	1	SOCIETY	1338	n/a	0	n/a	0	0	0	1	0.412841796875	0.57763671875	upper	../fonts/amplitud.ttf
2374.87	n/a	WORD	1187435	wordpools/wasnorm_wordpool_less_exclusions.txt	LTP246	ltpFR	8	9	1	TEAM	1441	n/a	0	n/a	0	0	0	1	0.412841796875	0.57763671875	upper	../fonts/amplitud.ttf
2377.882	n/a	START	1188941	n/a	LTP246	ltpFR	8	n/a	n/a	n/a	n/a	n/a	n/a	n/a	n/a	n/a	n/a	n/a	n/a	n/a	n/a	n/a
2378.864	n/a	PROB	1189432	n/a	LTP246	ltpFR	8	n/a	n/a	n/a	n/a	n/a	n/a	16	9	6	1	n/a	n/a	n/a	n/a	n/a
2381.21	n/a	PROB	1190605	n/a	LTP246	ltpFR	8	n/a	n/a	n/a	n/a	n/a	n/a	17	6	8	3	n/a	n/a	n/a	n/a	n/a
2385.57	n/a	PROB	1192785	n/a	LTP246	ltpFR	8	n/a	n/a	n/a	n/a	n/a	n/a	15	5	6	2	n/a	n/a	n/a	n/a	n/a
2388.0	n/a	PROB	1194000	n/a	LTP246	ltpFR	8	n/a	n/a	n/a	n/a	n/a	n/a	22	8	5	9	n/a	n/a	n/a	n/a	n/a
2393.878	n/a	STOP	1196939	n/a	LTP246	ltpFR	8	n/a	n/a	n/a	n/a	n/a	n/a	n/a	n/a	n/a	n/a	n/a	n/a	n/a	n/a	n/a
2395.69	n/a	REC_START	1197845	n/a	LTP246	ltpFR	8	9	n/a	n/a	n/a	n/a	n/a	n/a	0	0	0	n/a	n/a	n/a	n/a	n/a
2410.126	n/a	REC_WORD	1205063	wordpools/wasnorm_wordpool_less_exclusions.txt	LTP246	ltpFR	8	9	0	PELICAN	1039	n/a	0	n/a	0	0	0	n/a	n/a	n/a	n/a	n/a
2411.164	n/a	REC_WORD	1205582	wordpools/wasnorm_wordpool_less_exclusions.txt	LTP246	ltpFR	8	9	0	LABEL	790	n/a	0	n/a	0	0	0	n/a	n/a	n/a	n/a	n/a
2412.262	n/a	REC_WORD	1206131	wordpools/wasnorm_wordpool_less_exclusions.txt	LTP246	ltpFR	8	9	0	BEGGAR	117	n/a	1	n/a	0	0	0	n/a	n/a	n/a	n/a	n/a
2412.886	n/a	REC_WORD	1206443	wordpools/wasnorm_wordpool_less_exclusions.txt	LTP246	ltpFR	8	9	0	VAGRANT	1544	n/a	1	n/a	0	0	0	n/a	n/a	n/a	n/a	n/a
2414.198	n/a	REC_WORD	1207099	wordpools/wasnorm_wordpool_less_exclusions.txt	LTP246	ltpFR	8	9	1	SNAIL	1332	n/a	0	n/a	0	0	0	n/a	n/a	n/a	n/a	n/a
2419.584	n/a	REC_WORD	1209792	wordpools/wasnorm_wordpool_less_exclusions.txt	LTP246	ltpFR	8	9	1	JELLO	754	n/a	0	n/a	0	0	0	n/a	n/a	n/a	n/a	n/a
2421.974	n/a	REC_WORD	1210987	wordpools/wasnorm_wordpool_less_exclusions.txt	LTP246	ltpFR	8	9	0	HAWK	692	n/a	1	n/a	0	0	0	n/a	n/a	n/a	n/a	n/a
2423.426	n/a	REC_WORD	1211713	wordpools/wasnorm_wordpool_less_exclusions.txt	LTP246	ltpFR	8	9	0	SIGN	1305	n/a	0	n/a	0	0	0	n/a	n/a	n/a	n/a	n/a
2431.862	n/a	REC_WORD	1215931	wordpools/wasnorm_wordpool_less_exclusions.txt	LTP246	ltpFR	8	9	1	TEAM	1441	n/a	0	n/a	0	0	0	n/a	n/a	n/a	n/a	n/a
2433.494	n/a	REC_WORD	1216747	wordpools/wasnorm_wordpool_less_exclusions.txt	LTP246	ltpFR	8	9	1	SOCIETY	1338	n/a	0	n/a	0	0	0	n/a	n/a	n/a	n/a	n/a
2435.26	n/a	REC_WORD	1217630	wordpools/wasnorm_wordpool_less_exclusions.txt	LTP246	ltpFR	8	9	1	PENCIL	1042	n/a	0	n/a	0	0	0	n/a	n/a	n/a	n/a	n/a
2437.55	n/a	REC_WORD	1218775	wordpools/wasnorm_wordpool_less_exclusions.txt	LTP246	ltpFR	8	9	1	DESIGNER	451	n/a	1	n/a	0	0	0	n/a	n/a	n/a	n/a	n/a
2443.452	n/a	REC_WORD	1221726	wordpools/wasnorm_wordpool_less_exclusions.txt	LTP246	ltpFR	8	9	1	RICE	1190	n/a	0	n/a	0	0	0	n/a	n/a	n/a	n/a	n/a
2445.048	n/a	REC_WORD	1222524	wordpools/wasnorm_wordpool_less_exclusions.txt	LTP246	ltpFR	8	9	1	UNIFORM	1539	n/a	0	n/a	0	0	0	n/a	n/a	n/a	n/a	n/a
2446.968	n/a	REC_WORD	1223484	wordpools/wasnorm_wordpool_less_exclusions.txt	LTP246	ltpFR	8	9	0	MEAT	883	n/a	0	n/a	0	0	0	n/a	n/a	n/a	n/a	n/a
2448.77	n/a	REC_WORD	1224385	wordpools/wasnorm_wordpool_less_exclusions.txt	LTP246	ltpFR	8	9	0	COAT	333	n/a	0	n/a	0	0	0	n/a	n/a	n/a	n/a	n/a
2484.242	n/a	START	1242121	n/a	LTP246	ltpFR	8	n/a	n/a	n/a	n/a	n/a	n/a	n/a	n/a	n/a	n/a	n/a	n/a	n/a	n/a	n/a
2485.756	n/a	PROB	1242878	n/a	LTP246	ltpFR	8	n/a	n/a	n/a	n/a	n/a	n/a	19	9	6	4	n/a	n/a	n/a	n/a	n/a
2487.818	n/a	PROB	1243909	n/a	LTP246	ltpFR	8	n/a	n/a	n/a	n/a	n/a	n/a	12	3	2	7	n/a	n/a	n/a	n/a	n/a
2489.484	n/a	PROB	1244742	n/a	LTP246	ltpFR	8	n/a	n/a	n/a	n/a	n/a	n/a	13	7	3	3	n/a	n/a	n/a	n/a	n/a
2491.148	n/a	PROB	1245574	n/a	LTP246	ltpFR	8	n/a	n/a	n/a	n/a	n/a	n/a	20	9	5	6	n/a	n/a	n/a	n/a	n/a
2493.46	n/a	PROB	1246730	n/a	LTP246	ltpFR	8	n/a	n/a	n/a	n/a	n/a	n/a	21	5	9	7	n/a	n/a	n/a	n/a	n/a
2499.126	n/a	STOP	1249563	n/a	LTP246	ltpFR	8	n/a	n/a	n/a	n/a	n/a	n/a	n/a	n/a	n/a	n/a	n/a	n/a	n/a	n/a	n/a
2501.348	n/a	WORD	1250674	wordpools/wasnorm_wordpool_less_exclusions.txt	LTP246	ltpFR	8	10	0	CABBAGE	210	n/a	0	n/a	0	0	0	0	0.5869140625	0.422607421875	lower	../fonts/zerothre.ttf
2504.362	n/a	START	1252181	n/a	LTP246	ltpFR	8	n/a	n/a	n/a	n/a	n/a	n/a	n/a	n/a	n/a	n/a	n/a	n/a	n/a	n/a	n/a
2505.476	n/a	PROB	1252738	n/a	LTP246	ltpFR	8	n/a	n/a	n/a	n/a	n/a	n/a	13	1	6	6	n/a	n/a	n/a	n/a	n/a
2509.17	n/a	PROB	1254585	n/a	LTP246	ltpFR	8	n/a	n/a	n/a	n/a	n/a	n/a	21	8	9	4	n/a	n/a	n/a	n/a	n/a
2512.05	n/a	PROB	1256025	n/a	LTP246	ltpFR	8	n/a	n/a	n/a	n/a	n/a	n/a	20	4	9	7	n/a	n/a	n/a	n/a	n/a
2514.78	n/a	PROB	1257390	n/a	LTP246	ltpFR	8	n/a	n/a	n/a	n/a	n/a	n/a	20	7	9	4	n/a	n/a	n/a	n/a	n/a
2516.926	n/a	PROB	1258463	n/a	LTP246	ltpFR	8	n/a	n/a	n/a	n/a	n/a	n/a	8	1	1	6	n/a	n/a	n/a	n/a	n/a
2518.224	n/a	PROB	1259112	n/a	LTP246	ltpFR	8	n/a	n/a	n/a	n/a	n/a	n/a	17	7	2	6	n/a	n/a	n/a	n/a	n/a
2520.208	n/a	STOP	1260104	n/a	LTP246	ltpFR	8	n/a	n/a	n/a	n/a	n/a	n/a	n/a	n/a	n/a	n/a	n/a	n/a	n/a	n/a	n/a
2521.42	n/a	WORD	1260710	wordpools/wasnorm_wordpool_less_exclusions.txt	LTP246	ltpFR	8	10	0	SILK	1307	n/a	0	n/a	0	0	0	0	0.5869140625	0.422607421875	lower	../fonts/zerothre.ttf
2524.432	n/a	START	1262216	n/a	LTP246	ltpFR	8	n/a	n/a	n/a	n/a	n/a	n/a	n/a	n/a	n/a	n/a	n/a	n/a	n/a	n/a	n/a
2525.63	n/a	PROB	1262815	n/a	LTP246	ltpFR	8	n/a	n/a	n/a	n/a	n/a	n/a	15	3	9	3	n/a	n/a	n/a	n/a	n/a
2528.11	n/a	PROB	1264055	n/a	LTP246	ltpFR	8	n/a	n/a	n/a	n/a	n/a	n/a	17	6	2	9	n/a	n/a	n/a	n/a	n/a
2530.206	n/a	PROB	1265103	n/a	LTP246	ltpFR	8	n/a	n/a	n/a	n/a	n/a	n/a	15	4	2	9	n/a	n/a	n/a	n/a	n/a
2533.968	n/a	PROB	1266984	n/a	LTP246	ltpFR	8	n/a	n/a	n/a	n/a	n/a	n/a	19	9	4	6	n/a	n/a	n/a	n/a	n/a
2536.38	n/a	PROB	1268190	n/a	LTP246	ltpFR	8	n/a	n/a	n/a	n/a	n/a	n/a	14	1	7	6	n/a	n/a	n/a	n/a	n/a
2539.624	n/a	STOP	1269812	n/a	LTP246	ltpFR	8	n/a	n/a	n/a	n/a	n/a	n/a	n/a	n/a	n/a	n/a	n/a	n/a	n/a	n/a	n/a
2541.574	n/a	WORD	1270787	wordpools/wasnorm_wordpool_less_exclusions.txt	LTP246	ltpFR	8	10	0	RAG	1160	n/a	0	n/a	0	0	0	0	0.5869140625	0.422607421875	lower	../fonts/zerothre.ttf
2544.586	n/a	START	1272293	n/a	LTP246	ltpFR	8	n/a	n/a	n/a	n/a	n/a	n/a	n/a	n/a	n/a	n/a	n/a	n/a	n/a	n/a	n/a
2545.45	n/a	PROB	1272725	n/a	LTP246	ltpFR	8	n/a	n/a	n/a	n/a	n/a	n/a	10	3	4	3	n/a	n/a	n/a	n/a	n/a
2548.13	n/a	PROB	1274065	n/a	LTP246	ltpFR	8	n/a	n/a	n/a	n/a	n/a	n/a	22	8	9	5	n/a	n/a	n/a	n/a	n/a
2553.622	n/a	PROB	1276811	n/a	LTP246	ltpFR	8	n/a	n/a	n/a	n/a	n/a	n/a	18	6	3	9	n/a	n/a	n/a	n/a	n/a
2555.102	n/a	PROB	1277551	n/a	LTP246	ltpFR	8	n/a	n/a	n/a	n/a	n/a	n/a	14	7	4	3	n/a	n/a	n/a	n/a	n/a
2557.316	n/a	PROB	1278658	n/a	LTP246	ltpFR	8	n/a	n/a	n/a	n/a	n/a	n/a	21	9	4	8	n/a	n/a	n/a	n/a	n/a
2560.24	n/a	STOP	1280120	n/a	LTP246	ltpFR	8	n/a	n/a	n/a	n/a	n/a	n/a	n/a	n/a	n/a	n/a	n/a	n/a	n/a	n/a	n/a
2561.41	n/a	WORD	1280705	wordpools/wasnorm_wordpool_less_exclusions.txt	LTP246	ltpFR	8	10	0	FOLDER	588	n/a	0	n/a	0	0	0	0	0.5869140625	0.422607421875	lower	../fonts/zerothre.ttf
2564.422	n/a	START	1282211	n/a	LTP246	ltpFR	8	n/a	n/a	n/a	n/a	n/a	n/a	n/a	n/a	n/a	n/a	n/a	n/a	n/a	n/a	n/a
2565.488	n/a	PROB	1282744	n/a	LTP246	ltpFR	8	n/a	n/a	n/a	n/a	n/a	n/a	13	7	2	4	n/a	n/a	n/a	n/a	n/a
2567.352	n/a	PROB	1283676	n/a	LTP246	ltpFR	8	n/a	n/a	n/a	n/a	n/a	n/a	20	7	6	7	n/a	n/a	n/a	n/a	n/a
2569.93	n/a	PROB	1284965	n/a	LTP246	ltpFR	8	n/a	n/a	n/a	n/a	n/a	n/a	15	1	5	9	n/a	n/a	n/a	n/a	n/a
2574.874	n/a	PROB	1287437	n/a	LTP246	ltpFR	8	n/a	n/a	n/a	n/a	n/a	n/a	21	9	8	4	n/a	n/a	n/a	n/a	n/a
2577.204	n/a	PROB	1288602	n/a	LTP246	ltpFR	8	n/a	n/a	n/a	n/a	n/a	n/a	10	1	2	7	n/a	n/a	n/a	n/a	n/a
2578.92	n/a	STOP	1289460	n/a	LTP246	ltpFR	8	n/a	n/a	n/a	n/a	n/a	n/a	n/a	n/a	n/a	n/a	n/a	n/a	n/a	n/a	n/a
2581.314	n/a	WORD	1290657	wordpools/wasnorm_wordpool_less_exclusions.txt	LTP246	ltpFR	8	10	0	PEOPLE	1046	n/a	1	n/a	0	0	0	0	0.5869140625	0.422607421875	lower	../fonts/zerothre.ttf
2584.326	n/a	START	1292163	n/a	LTP246	ltpFR	8	n/a	n/a	n/a	n/a	n/a	n/a	n/a	n/a	n/a	n/a	n/a	n/a	n/a	n/a	n/a
2585.208	n/a	PROB	1292604	n/a	LTP246	ltpFR	8	n/a	n/a	n/a	n/a	n/a	n/a	17	5	6	6	n/a	n/a	n/a	n/a	n/a
2588.404	n/a	PROB	1294202	n/a	LTP246	ltpFR	8	n/a	n/a	n/a	n/a	n/a	n/a	15	3	3	9	n/a	n/a	n/a	n/a	n/a
2591.216	n/a	PROB	1295608	n/a	LTP246	ltpFR	8	n/a	n/a	n/a	n/a	n/a	n/a	10	3	1	6	n/a	n/a	n/a	n/a	n/a
2593.464	n/a	PROB	1296732	n/a	LTP246	ltpFR	8	n/a	n/a	n/a	n/a	n/a	n/a	13	1	9	3	n/a	n/a	n/a	n/a	n/a
2594.794	n/a	PROB	1297397	n/a	LTP246	ltpFR	8	n/a	n/a	n/a	n/a	n/a	n/a	16	3	9	4	n/a	n/a	n/a	n/a	n/a
2598.888	n/a	STOP	1299444	n/a	LTP246	ltpFR	8	n/a	n/a	n/a	n/a	n/a	n/a	n/a	n/a	n/a	n/a	n/a	n/a	n/a	n/a	n/a
2601.352	n/a	WORD	1300676	wordpools/wasnorm_wordpool_less_exclusions.txt	LTP246	ltpFR	8	10	0	DART	440	n/a	0	n/a	0	0	0	0	0.5869140625	0.422607421875	lower	../fonts/zerothre.ttf
2604.364	n/a	START	1302182	n/a	LTP246	ltpFR	8	n/a	n/a	n/a	n/a	n/a	n/a	n/a	n/a	n/a	n/a	n/a	n/a	n/a	n/a	n/a
2605.196	n/a	PROB	1302598	n/a	LTP246	ltpFR	8	n/a	n/a	n/a	n/a	n/a	n/a	18	7	9	2	n/a	n/a	n/a	n/a	n/a
2607.892	n/a	PROB	1303946	n/a	LTP246	ltpFR	8	n/a	n/a	n/a	n/a	n/a	n/a	12	4	7	1	n/a	n/a	n/a	n/a	n/a
2611.602	n/a	PROB	1305801	n/a	LTP246	ltpFR	8	n/a	n/a	n/a	n/a	n/a	n/a	8	1	4	3	n/a	n/a	n/a	n/a	n/a
2614.532	n/a	PROB	1307266	n/a	LTP246	ltpFR	8	n/a	n/a	n/a	n/a	n/a	n/a	11	2	8	1	n/a	n/a	n/a	n/a	n/a
2616.428	n/a	PROB	1308214	n/a	LTP246	ltpFR	8	n/a	n/a	n/a	n/a	n/a	n/a	15	2	9	4	n/a	n/a	n/a	n/a	n/a
2619.04	n/a	STOP	1309520	n/a	LTP246	ltpFR	8	n/a	n/a	n/a	n/a	n/a	n/a	n/a	n/a	n/a	n/a	n/a	n/a	n/a	n/a	n/a
2621.304	n/a	WORD	1310652	wordpools/wasnorm_wordpool_less_exclusions.txt	LTP246	ltpFR	8	10	0	SKATE	1313	n/a	0	n/a	0	0	0	0	0.5869140625	0.422607421875	lower	../fonts/zerothre.ttf
2624.318	n/a	START	1312159	n/a	LTP246	ltpFR	8	n/a	n/a	n/a	n/a	n/a	n/a	n/a	n/a	n/a	n/a	n/a	n/a	n/a	n/a	n/a
2625.282	n/a	PROB	1312641	n/a	LTP246	ltpFR	8	n/a	n/a	n/a	n/a	n/a	n/a	17	3	5	9	n/a	n/a	n/a	n/a	n/a
2626.914	n/a	PROB	1313457	n/a	LTP246	ltpFR	8	n/a	n/a	n/a	n/a	n/a	n/a	13	3	4	6	n/a	n/a	n/a	n/a	n/a
2628.378	n/a	PROB	1314189	n/a	LTP246	ltpFR	8	n/a	n/a	n/a	n/a	n/a	n/a	15	2	9	4	n/a	n/a	n/a	n/a	n/a
2630.408	n/a	PROB	1315204	n/a	LTP246	ltpFR	8	n/a	n/a	n/a	n/a	n/a	n/a	16	8	1	7	n/a	n/a	n/a	n/a	n/a
2633.554	n/a	PROB	1316777	n/a	LTP246	ltpFR	8	n/a	n/a	n/a	n/a	n/a	n/a	10	3	1	6	n/a	n/a	n/a	n/a	n/a
2640.318	n/a	STOP	1320159	n/a	LTP246	ltpFR	8	n/a	n/a	n/a	n/a	n/a	n/a	n/a	n/a	n/a	n/a	n/a	n/a	n/a	n/a	n/a
2641.208	n/a	WORD	1320604	wordpools/wasnorm_wordpool_less_exclusions.txt	LTP246	ltpFR	8	10	0	OFFICE	972	n/a	1	n/a	0	0	0	0	0.5869140625	0.422607421875	lower	../fonts/zerothre.ttf
2644.222	n/a	START	1322111	n/a	LTP246	ltpFR	8	n/a	n/a	n/a	n/a	n/a	n/a	n/a	n/a	n/a	n/a	n/a	n/a	n/a	n/a	n/a
2645.302	n/a	PROB	1322651	n/a	LTP246	ltpFR	8	n/a	n/a	n/a	n/a	n/a	n/a	16	3	7	6	n/a	n/a	n/a	n/a	n/a
2647.05	n/a	PROB	1323525	n/a	LTP246	ltpFR	8	n/a	n/a	n/a	n/a	n/a	n/a	21	9	6	6	n/a	n/a	n/a	n/a	n/a
2649.878	n/a	PROB	1324939	n/a	LTP246	ltpFR	8	n/a	n/a	n/a	n/a	n/a	n/a	18	9	5	4	n/a	n/a	n/a	n/a	n/a
2651.46	n/a	PROB	1325730	n/a	LTP246	ltpFR	8	n/a	n/a	n/a	n/a	n/a	n/a	22	9	4	7	n/a	n/a	n/a	n/a	n/a
2654.588	n/a	PROB	1327294	n/a	LTP246	ltpFR	8	n/a	n/a	n/a	n/a	n/a	n/a	13	6	2	5	n/a	n/a	n/a	n/a	n/a
2660.222	n/a	STOP	1330111	n/a	LTP246	ltpFR	8	n/a	n/a	n/a	n/a	n/a	n/a	n/a	n/a	n/a	n/a	n/a	n/a	n/a	n/a	n/a
2661.228	n/a	WORD	1330614	wordpools/wasnorm_wordpool_less_exclusions.txt	LTP246	ltpFR	8	10	0	FUR	615	n/a	0	n/a	0	0	0	0	0.5869140625	0.422607421875	lower	../fonts/zerothre.ttf
2664.242	n/a	START	1332121	n/a	LTP246	ltpFR	8	n/a	n/a	n/a	n/a	n/a	n/a	n/a	n/a	n/a	n/a	n/a	n/a	n/a	n/a	n/a
2665.208	n/a	PROB	1332604	n/a	LTP246	ltpFR	8	n/a	n/a	n/a	n/a	n/a	n/a	15	4	4	7	n/a	n/a	n/a	n/a	n/a
2668.568	n/a	PROB	1334284	n/a	LTP246	ltpFR	8	n/a	n/a	n/a	n/a	n/a	n/a	6	3	1	2	n/a	n/a	n/a	n/a	n/a
2670.632	n/a	PROB	1335316	n/a	LTP246	ltpFR	8	n/a	n/a	n/a	n/a	n/a	n/a	15	1	7	9	n/a	n/a	n/a	n/a	n/a
2674.194	n/a	PROB	1337097	n/a	LTP246	ltpFR	8	n/a	n/a	n/a	n/a	n/a	n/a	16	9	3	4	n/a	n/a	n/a	n/a	n/a
2676.724	n/a	PROB	1338362	n/a	LTP246	ltpFR	8	n/a	n/a	n/a	n/a	n/a	n/a	19	9	8	2	n/a	n/a	n/a	n/a	n/a
2678.686	n/a	PROB	1339343	n/a	LTP246	ltpFR	8	n/a	n/a	n/a	n/a	n/a	n/a	10	1	1	8	n/a	n/a	n/a	n/a	n/a
2679.954	n/a	STOP	1339977	n/a	LTP246	ltpFR	8	n/a	n/a	n/a	n/a	n/a	n/a	n/a	n/a	n/a	n/a	n/a	n/a	n/a	n/a	n/a
2681.3	n/a	WORD	1340650	wordpools/wasnorm_wordpool_less_exclusions.txt	LTP246	ltpFR	8	10	0	SCARF	1246	n/a	0	n/a	0	0	0	0	0.5869140625	0.422607421875	lower	../fonts/zerothre.ttf
2684.312	n/a	START	1342156	n/a	LTP246	ltpFR	8	n/a	n/a	n/a	n/a	n/a	n/a	n/a	n/a	n/a	n/a	n/a	n/a	n/a	n/a	n/a
2685.144	n/a	PROB	1342572	n/a	LTP246	ltpFR	8	n/a	n/a	n/a	n/a	n/a	n/a	19	4	7	8	n/a	n/a	n/a	n/a	n/a
2689.222	n/a	PROB	1344611	n/a	LTP246	ltpFR	8	n/a	n/a	n/a	n/a	n/a	n/a	14	5	1	8	n/a	n/a	n/a	n/a	n/a
2691.618	n/a	PROB	1345809	n/a	LTP246	ltpFR	8	n/a	n/a	n/a	n/a	n/a	n/a	20	8	4	9	n/a	n/a	n/a	n/a	n/a
2700.312	n/a	STOP	1350156	n/a	LTP246	ltpFR	8	n/a	n/a	n/a	n/a	n/a	n/a	n/a	n/a	n/a	n/a	n/a	n/a	n/a	n/a	n/a
2701.404	n/a	WORD	1350702	wordpools/wasnorm_wordpool_less_exclusions.txt	LTP246	ltpFR	8	10	0	BEAN	105	n/a	0	n/a	0	0	0	0	0.5869140625	0.422607421875	lower	../fonts/zerothre.ttf
2704.416	n/a	START	1352208	n/a	LTP246	ltpFR	8	n/a	n/a	n/a	n/a	n/a	n/a	n/a	n/a	n/a	n/a	n/a	n/a	n/a	n/a	n/a
2705.48	n/a	PROB	1352740	n/a	LTP246	ltpFR	8	n/a	n/a	n/a	n/a	n/a	n/a	12	3	2	7	n/a	n/a	n/a	n/a	n/a
2709.092	n/a	PROB	1354546	n/a	LTP246	ltpFR	8	n/a	n/a	n/a	n/a	n/a	n/a	11	5	1	5	n/a	n/a	n/a	n/a	n/a
2710.374	n/a	PROB	1355187	n/a	LTP246	ltpFR	8	n/a	n/a	n/a	n/a	n/a	n/a	19	8	8	3	n/a	n/a	n/a	n/a	n/a
2712.32	n/a	PROB	1356160	n/a	LTP246	ltpFR	8	n/a	n/a	n/a	n/a	n/a	n/a	19	8	3	8	n/a	n/a	n/a	n/a	n/a
2714.85	n/a	PROB	1357425	n/a	LTP246	ltpFR	8	n/a	n/a	n/a	n/a	n/a	n/a	17	8	2	7	n/a	n/a	n/a	n/a	n/a
2716.814	n/a	PROB	1358407	n/a	LTP246	ltpFR	8	n/a	n/a	n/a	n/a	n/a	n/a	15	5	7	3	n/a	n/a	n/a	n/a	n/a
2718.56	n/a	PROB	1359280	n/a	LTP246	ltpFR	8	n/a	n/a	n/a	n/a	n/a	n/a	14	9	4	1	n/a	n/a	n/a	n/a	n/a
2720.322	n/a	STOP	1360161	n/a	LTP246	ltpFR	8	n/a	n/a	n/a	n/a	n/a	n/a	n/a	n/a	n/a	n/a	n/a	n/a	n/a	n/a	n/a
2721.556	n/a	WORD	1360778	wordpools/wasnorm_wordpool_less_exclusions.txt	LTP246	ltpFR	8	10	0	ROAD	1196	n/a	0	n/a	0	0	0	0	0.5869140625	0.422607421875	lower	../fonts/zerothre.ttf
2724.568	n/a	START	1362284	n/a	LTP246	ltpFR	8	n/a	n/a	n/a	n/a	n/a	n/a	n/a	n/a	n/a	n/a	n/a	n/a	n/a	n/a	n/a
2725.766	n/a	PROB	1362883	n/a	LTP246	ltpFR	8	n/a	n/a	n/a	n/a	n/a	n/a	16	2	6	8	n/a	n/a	n/a	n/a	n/a
2727.78	n/a	PROB	1363890	n/a	LTP246	ltpFR	8	n/a	n/a	n/a	n/a	n/a	n/a	14	8	3	3	n/a	n/a	n/a	n/a	n/a
2730.692	n/a	PROB	1365346	n/a	LTP246	ltpFR	8	n/a	n/a	n/a	n/a	n/a	n/a	11	2	1	8	n/a	n/a	n/a	n/a	n/a
2732.656	n/a	PROB	1366328	n/a	LTP246	ltpFR	8	n/a	n/a	n/a	n/a	n/a	n/a	23	9	9	5	n/a	n/a	n/a	n/a	n/a
2736.8	n/a	PROB	1368400	n/a	LTP246	ltpFR	8	n/a	n/a	n/a	n/a	n/a	n/a	23	9	4	4	n/a	n/a	n/a	n/a	n/a
2740.386	n/a	STOP	1370193	n/a	LTP246	ltpFR	8	n/a	n/a	n/a	n/a	n/a	n/a	n/a	n/a	n/a	n/a	n/a	n/a	n/a	n/a	n/a
2741.644	n/a	WORD	1370822	wordpools/wasnorm_wordpool_less_exclusions.txt	LTP246	ltpFR	8	10	0	WINNER	1615	n/a	1	n/a	0	0	0	0	0.5869140625	0.422607421875	lower	../fonts/zerothre.ttf
2744.656	n/a	START	1372328	n/a	LTP246	ltpFR	8	n/a	n/a	n/a	n/a	n/a	n/a	n/a	n/a	n/a	n/a	n/a	n/a	n/a	n/a	n/a
2745.838	n/a	PROB	1372919	n/a	LTP246	ltpFR	8	n/a	n/a	n/a	n/a	n/a	n/a	18	8	1	7	n/a	n/a	n/a	n/a	n/a
2750.448	n/a	PROB	1375224	n/a	LTP246	ltpFR	8	n/a	n/a	n/a	n/a	n/a	n/a	19	9	1	9	n/a	n/a	n/a	n/a	n/a
2751.896	n/a	PROB	1375948	n/a	LTP246	ltpFR	8	n/a	n/a	n/a	n/a	n/a	n/a	15	1	8	6	n/a	n/a	n/a	n/a	n/a
2755.64	n/a	PROB	1377820	n/a	LTP246	ltpFR	8	n/a	n/a	n/a	n/a	n/a	n/a	19	9	1	9	n/a	n/a	n/a	n/a	n/a
2757.636	n/a	PROB	1378818	n/a	LTP246	ltpFR	8	n/a	n/a	n/a	n/a	n/a	n/a	7	5	1	1	n/a	n/a	n/a	n/a	n/a
2760.656	n/a	STOP	1380328	n/a	LTP246	ltpFR	8	n/a	n/a	n/a	n/a	n/a	n/a	n/a	n/a	n/a	n/a	n/a	n/a	n/a	n/a	n/a
2761.614	n/a	WORD	1380807	wordpools/wasnorm_wordpool_less_exclusions.txt	LTP246	ltpFR	8	10	0	GROOM	665	n/a	1	n/a	0	0	0	0	0.5869140625	0.422607421875	lower	../fonts/zerothre.ttf
2764.626	n/a	START	1382313	n/a	LTP246	ltpFR	8	n/a	n/a	n/a	n/a	n/a	n/a	n/a	n/a	n/a	n/a	n/a	n/a	n/a	n/a	n/a
2765.476	n/a	PROB	1382738	n/a	LTP246	ltpFR	8	n/a	n/a	n/a	n/a	n/a	n/a	12	5	5	2	n/a	n/a	n/a	n/a	n/a
2767.156	n/a	PROB	1383578	n/a	LTP246	ltpFR	8	n/a	n/a	n/a	n/a	n/a	n/a	9	1	1	7	n/a	n/a	n/a	n/a	n/a
2768.62	n/a	PROB	1384310	n/a	LTP246	ltpFR	8	n/a	n/a	n/a	n/a	n/a	n/a	13	2	5	6	n/a	n/a	n/a	n/a	n/a
2772.132	n/a	PROB	1386066	n/a	LTP246	ltpFR	8	n/a	n/a	n/a	n/a	n/a	n/a	20	4	9	8	n/a	n/a	n/a	n/a	n/a
2776.192	n/a	PROB	1388096	n/a	LTP246	ltpFR	8	n/a	n/a	n/a	n/a	n/a	n/a	6	1	3	2	n/a	n/a	n/a	n/a	n/a
2779.442	n/a	STOP	1389721	n/a	LTP246	ltpFR	8	n/a	n/a	n/a	n/a	n/a	n/a	n/a	n/a	n/a	n/a	n/a	n/a	n/a	n/a	n/a
2781.484	n/a	WORD	1390742	wordpools/wasnorm_wordpool_less_exclusions.txt	LTP246	ltpFR	8	10	0	PEN	1041	n/a	0	n/a	0	0	0	0	0.5869140625	0.422607421875	lower	../fonts/zerothre.ttf
2784.498	n/a	START	1392249	n/a	LTP246	ltpFR	8	n/a	n/a	n/a	n/a	n/a	n/a	n/a	n/a	n/a	n/a	n/a	n/a	n/a	n/a	n/a
2785.446	n/a	PROB	1392723	n/a	LTP246	ltpFR	8	n/a	n/a	n/a	n/a	n/a	n/a	18	6	9	3	n/a	n/a	n/a	n/a	n/a
2792.336	n/a	PROB	1396168	n/a	LTP246	ltpFR	8	n/a	n/a	n/a	n/a	n/a	n/a	11	1	1	9	n/a	n/a	n/a	n/a	n/a
2794.664	n/a	PROB	1397332	n/a	LTP246	ltpFR	8	n/a	n/a	n/a	n/a	n/a	n/a	10	2	1	7	n/a	n/a	n/a	n/a	n/a
2796.478	n/a	PROB	1398239	n/a	LTP246	ltpFR	8	n/a	n/a	n/a	n/a	n/a	n/a	17	3	9	5	n/a	n/a	n/a	n/a	n/a
2800.498	n/a	STOP	1400249	n/a	LTP246	ltpFR	8	n/a	n/a	n/a	n/a	n/a	n/a	n/a	n/a	n/a	n/a	n/a	n/a	n/a	n/a	n/a
2801.654	n/a	WORD	1400827	wordpools/wasnorm_wordpool_less_exclusions.txt	LTP246	ltpFR	8	10	0	STREET	1393	n/a	1	n/a	0	0	0	0	0.5869140625	0.422607421875	lower	../fonts/zerothre.ttf
2804.666	n/a	START	1402333	n/a	LTP246	ltpFR	8	n/a	n/a	n/a	n/a	n/a	n/a	n/a	n/a	n/a	n/a	n/a	n/a	n/a	n/a	n/a
2805.864	n/a	PROB	1402932	n/a	LTP246	ltpFR	8	n/a	n/a	n/a	n/a	n/a	n/a	22	6	8	8	n/a	n/a	n/a	n/a	n/a
2810.176	n/a	PROB	1405088	n/a	LTP246	ltpFR	8	n/a	n/a	n/a	n/a	n/a	n/a	18	6	7	5	n/a	n/a	n/a	n/a	n/a
2813.17	n/a	PROB	1406585	n/a	LTP246	ltpFR	8	n/a	n/a	n/a	n/a	n/a	n/a	8	1	6	1	n/a	n/a	n/a	n/a	n/a
2814.602	n/a	PROB	1407301	n/a	LTP246	ltpFR	8	n/a	n/a	n/a	n/a	n/a	n/a	15	2	5	8	n/a	n/a	n/a	n/a	n/a
2820.668	n/a	STOP	1410334	n/a	LTP246	ltpFR	8	n/a	n/a	n/a	n/a	n/a	n/a	n/a	n/a	n/a	n/a	n/a	n/a	n/a	n/a	n/a
2822.474	n/a	REC_START	1411237	n/a	LTP246	ltpFR	8	10	n/a	n/a	n/a	n/a	n/a	n/a	0	0	0	n/a	n/a	n/a	n/a	n/a
2825.104	n/a	REC_WORD	1412552	wordpools/wasnorm_wordpool_less_exclusions.txt	LTP246	ltpFR	8	10	0	PEOPLE	1046	n/a	1	n/a	0	0	0	n/a	n/a	n/a	n/a	n/a
2825.552	n/a	REC_WORD	1412776	wordpools/wasnorm_wordpool_less_exclusions.txt	LTP246	ltpFR	8	10	0	STREET	1393	n/a	1	n/a	0	0	0	n/a	n/a	n/a	n/a	n/a
2825.99	n/a	REC_WORD	1412995	wordpools/wasnorm_wordpool_less_exclusions.txt	LTP246	ltpFR	8	10	1	HIGHWAY	707	n/a	0	n/a	0	0	0	n/a	n/a	n/a	n/a	n/a
2826.58	n/a	REC_WORD	1413290	wordpools/wasnorm_wordpool_less_exclusions.txt	LTP246	ltpFR	8	10	0	PEN	1041	n/a	0	n/a	0	0	0	n/a	n/a	n/a	n/a	n/a
2844.2	n/a	REC_WORD	1422100	wordpools/wasnorm_wordpool_less_exclusions.txt	LTP246	ltpFR	8	10	0	WINNER	1615	n/a	1	n/a	0	0	0	n/a	n/a	n/a	n/a	n/a
2898.08	n/a	REST_REWET	1449040	n/a	LTP246	ltpFR	8	10	n/a	n/a	n/a	n/a	n/a	n/a	0	0	0	n/a	n/a	n/a	n/a	n/a
3174.902	n/a	START	1587451	n/a	LTP246	ltpFR	8	n/a	n/a	n/a	n/a	n/a	n/a	n/a	n/a	n/a	n/a	n/a	n/a	n/a	n/a	n/a
3176.416	n/a	PROB	1588208	n/a	LTP246	ltpFR	8	n/a	n/a	n/a	n/a	n/a	n/a	17	8	7	2	n/a	n/a	n/a	n/a	n/a
3182.902	n/a	STOP	1591451	n/a	LTP246	ltpFR	8	n/a	n/a	n/a	n/a	n/a	n/a	n/a	n/a	n/a	n/a	n/a	n/a	n/a	n/a	n/a
3184.038	n/a	WORD	1592019	wordpools/wasnorm_wordpool_less_exclusions.txt	LTP246	ltpFR	8	11	1	WARDROBE	1587	n/a	0	n/a	0	0	0	1	0.412841796875	0.57763671875	upper	../fonts/amplitud.ttf
3187.052	n/a	START	1593526	n/a	LTP246	ltpFR	8	n/a	n/a	n/a	n/a	n/a	n/a	n/a	n/a	n/a	n/a	n/a	n/a	n/a	n/a	n/a
3188.216	n/a	PROB	1594108	n/a	LTP246	ltpFR	8	n/a	n/a	n/a	n/a	n/a	n/a	13	2	7	4	n/a	n/a	n/a	n/a	n/a
3191.81	n/a	PROB	1595905	n/a	LTP246	ltpFR	8	n/a	n/a	n/a	n/a	n/a	n/a	17	1	7	9	n/a	n/a	n/a	n/a	n/a
3193.856	n/a	STOP	1596928	n/a	LTP246	ltpFR	8	n/a	n/a	n/a	n/a	n/a	n/a	n/a	n/a	n/a	n/a	n/a	n/a	n/a	n/a	n/a
3196.186	n/a	WORD	1598093	wordpools/wasnorm_wordpool_less_exclusions.txt	LTP246	ltpFR	8	11	1	HOSE	720	n/a	0	n/a	0	0	0	1	0.412841796875	0.57763671875	upper	../fonts/amplitud.ttf
3199.2	n/a	START	1599600	n/a	LTP246	ltpFR	8	n/a	n/a	n/a	n/a	n/a	n/a	n/a	n/a	n/a	n/a	n/a	n/a	n/a	n/a	n/a
3200.382	n/a	PROB	1600191	n/a	LTP246	ltpFR	8	n/a	n/a	n/a	n/a	n/a	n/a	11	5	2	4	n/a	n/a	n/a	n/a	n/a
3202.662	n/a	PROB	1601331	n/a	LTP246	ltpFR	8	n/a	n/a	n/a	n/a	n/a	n/a	17	6	9	2	n/a	n/a	n/a	n/a	n/a
3207.2	n/a	STOP	1603600	n/a	LTP246	ltpFR	8	n/a	n/a	n/a	n/a	n/a	n/a	n/a	n/a	n/a	n/a	n/a	n/a	n/a	n/a	n/a
3208.27	n/a	WORD	1604135	wordpools/wasnorm_wordpool_less_exclusions.txt	LTP246	ltpFR	8	11	0	DANDELION	438	n/a	0	n/a	0	0	0	0	0.5869140625	0.422607421875	lower	../fonts/zerothre.ttf
3211.282	n/a	START	1605641	n/a	LTP246	ltpFR	8	n/a	n/a	n/a	n/a	n/a	n/a	n/a	n/a	n/a	n/a	n/a	n/a	n/a	n/a	n/a
3212.464	n/a	PROB	1606232	n/a	LTP246	ltpFR	8	n/a	n/a	n/a	n/a	n/a	n/a	9	1	3	5	n/a	n/a	n/a	n/a	n/a
3214.344	n/a	PROB	1607172	n/a	LTP246	ltpFR	8	n/a	n/a	n/a	n/a	n/a	n/a	6	1	2	3	n/a	n/a	n/a	n/a	n/a
3218.704	n/a	STOP	1609352	n/a	LTP246	ltpFR	8	n/a	n/a	n/a	n/a	n/a	n/a	n/a	n/a	n/a	n/a	n/a	n/a	n/a	n/a	n/a
3220.286	n/a	WORD	1610143	wordpools/wasnorm_wordpool_less_exclusions.txt	LTP246	ltpFR	8	11	0	ORCHID	982	n/a	n/a	n/a	0	0	0	0	0.5869140625	0.422607421875	lower	../fonts/zerothre.ttf
3223.314	n/a	SLOW_MSG	1611657	n/a	LTP246	ltpFR	8	11	n/a	n/a	n/a	n/a	n/a	n/a	0	0	0	n/a	n/a	n/a	n/a	n/a
3224.846	n/a	START	1612423	n/a	LTP246	ltpFR	8	n/a	n/a	n/a	n/a	n/a	n/a	n/a	n/a	n/a	n/a	n/a	n/a	n/a	n/a	n/a
3225.744	n/a	PROB	1612872	n/a	LTP246	ltpFR	8	n/a	n/a	n/a	n/a	n/a	n/a	24	7	9	8	n/a	n/a	n/a	n/a	n/a
3228.622	n/a	PROB	1614311	n/a	LTP246	ltpFR	8	n/a	n/a	n/a	n/a	n/a	n/a	14	3	4	7	n/a	n/a	n/a	n/a	n/a
3232.846	n/a	STOP	1616423	n/a	LTP246	ltpFR	8	n/a	n/a	n/a	n/a	n/a	n/a	n/a	n/a	n/a	n/a	n/a	n/a	n/a	n/a	n/a
3233.748	n/a	WORD	1616874	wordpools/wasnorm_wordpool_less_exclusions.txt	LTP246	ltpFR	8	11	0	PLIERS	1089	n/a	0	n/a	0	0	0	0	0.5869140625	0.422607421875	lower	../fonts/zerothre.ttf
3236.762	n/a	START	1618381	n/a	LTP246	ltpFR	8	n/a	n/a	n/a	n/a	n/a	n/a	n/a	n/a	n/a	n/a	n/a	n/a	n/a	n/a	n/a
3237.958	n/a	PROB	1618979	n/a	LTP246	ltpFR	8	n/a	n/a	n/a	n/a	n/a	n/a	15	8	3	4	n/a	n/a	n/a	n/a	n/a
3240.306	n/a	PROB	1620153	n/a	LTP246	ltpFR	8	n/a	n/a	n/a	n/a	n/a	n/a	10	4	5	1	n/a	n/a	n/a	n/a	n/a
3242.152	n/a	PROB	1621076	n/a	LTP246	ltpFR	8	n/a	n/a	n/a	n/a	n/a	n/a	13	4	3	6	n/a	n/a	n/a	n/a	n/a
3244.472	n/a	STOP	1622236	n/a	LTP246	ltpFR	8	n/a	n/a	n/a	n/a	n/a	n/a	n/a	n/a	n/a	n/a	n/a	n/a	n/a	n/a	n/a
3245.964	n/a	WORD	1622982	wordpools/wasnorm_wordpool_less_exclusions.txt	LTP246	ltpFR	8	11	1	HANDBAG	684	n/a	0	n/a	0	0	0	1	0.412841796875	0.57763671875	upper	../fonts/amplitud.ttf
3248.976	n/a	START	1624488	n/a	LTP246	ltpFR	8	n/a	n/a	n/a	n/a	n/a	n/a	n/a	n/a	n/a	n/a	n/a	n/a	n/a	n/a	n/a
3249.792	n/a	PROB	1624896	n/a	LTP246	ltpFR	8	n/a	n/a	n/a	n/a	n/a	n/a	19	7	4	8	n/a	n/a	n/a	n/a	n/a
3254.618	n/a	PROB	1627309	n/a	LTP246	ltpFR	8	n/a	n/a	n/a	n/a	n/a	n/a	17	6	2	9	n/a	n/a	n/a	n/a	n/a
3256.728	n/a	STOP	1628364	n/a	LTP246	ltpFR	8	n/a	n/a	n/a	n/a	n/a	n/a	n/a	n/a	n/a	n/a	n/a	n/a	n/a	n/a	n/a
3258.078	n/a	WORD	1629039	wordpools/wasnorm_wordpool_less_exclusions.txt	LTP246	ltpFR	8	11	1	FARMER	553	n/a	1	n/a	0	0	0	1	0.412841796875	0.57763671875	upper	../fonts/amplitud.ttf
3261.092	n/a	START	1630546	n/a	LTP246	ltpFR	8	n/a	n/a	n/a	n/a	n/a	n/a	n/a	n/a	n/a	n/a	n/a	n/a	n/a	n/a	n/a
3262.206	n/a	PROB	1631103	n/a	LTP246	ltpFR	8	n/a	n/a	n/a	n/a	n/a	n/a	17	8	4	5	n/a	n/a	n/a	n/a	n/a
3264.768	n/a	PROB	1632384	n/a	LTP246	ltpFR	8	n/a	n/a	n/a	n/a	n/a	n/a	7	2	2	3	n/a	n/a	n/a	n/a	n/a
3266.7	n/a	PROB	1633350	n/a	LTP246	ltpFR	8	n/a	n/a	n/a	n/a	n/a	n/a	17	5	6	6	n/a	n/a	n/a	n/a	n/a
3269.048	n/a	STOP	1634524	n/a	LTP246	ltpFR	8	n/a	n/a	n/a	n/a	n/a	n/a	n/a	n/a	n/a	n/a	n/a	n/a	n/a	n/a	n/a
3270.128	n/a	WORD	1635064	wordpools/wasnorm_wordpool_less_exclusions.txt	LTP246	ltpFR	8	11	1	WATER	1594	n/a	0	n/a	0	0	0	1	0.412841796875	0.57763671875	upper	../fonts/amplitud.ttf
3273.142	n/a	START	1636571	n/a	LTP246	ltpFR	8	n/a	n/a	n/a	n/a	n/a	n/a	n/a	n/a	n/a	n/a	n/a	n/a	n/a	n/a	n/a
3274.272	n/a	PROB	1637136	n/a	LTP246	ltpFR	8	n/a	n/a	n/a	n/a	n/a	n/a	14	7	4	3	n/a	n/a	n/a	n/a	n/a
3276.07	n/a	PROB	1638035	n/a	LTP246	ltpFR	8	n/a	n/a	n/a	n/a	n/a	n/a	13	3	1	9	n/a	n/a	n/a	n/a	n/a
3279.282	n/a	PROB	1639641	n/a	LTP246	ltpFR	8	n/a	n/a	n/a	n/a	n/a	n/a	13	3	8	2	n/a	n/a	n/a	n/a	n/a
3280.658	n/a	STOP	1640329	n/a	LTP246	ltpFR	8	n/a	n/a	n/a	n/a	n/a	n/a	n/a	n/a	n/a	n/a	n/a	n/a	n/a	n/a	n/a
3282.326	n/a	WORD	1641163	wordpools/wasnorm_wordpool_less_exclusions.txt	LTP246	ltpFR	8	11	1	UNICORN	1538	n/a	1	n/a	0	0	0	1	0.412841796875	0.57763671875	upper	../fonts/amplitud.ttf
3285.34	n/a	START	1642670	n/a	LTP246	ltpFR	8	n/a	n/a	n/a	n/a	n/a	n/a	n/a	n/a	n/a	n/a	n/a	n/a	n/a	n/a	n/a
3286.42	n/a	PROB	1643210	n/a	LTP246	ltpFR	8	n/a	n/a	n/a	n/a	n/a	n/a	15	4	4	7	n/a	n/a	n/a	n/a	n/a
3293.34	n/a	STOP	1646670	n/a	LTP246	ltpFR	8	n/a	n/a	n/a	n/a	n/a	n/a	n/a	n/a	n/a	n/a	n/a	n/a	n/a	n/a	n/a
3294.16	n/a	WORD	1647080	wordpools/wasnorm_wordpool_less_exclusions.txt	LTP246	ltpFR	8	11	1	MEAL	882	n/a	0	n/a	0	0	0	1	0.412841796875	0.57763671875	upper	../fonts/amplitud.ttf
3297.172	n/a	START	1648586	n/a	LTP246	ltpFR	8	n/a	n/a	n/a	n/a	n/a	n/a	n/a	n/a	n/a	n/a	n/a	n/a	n/a	n/a	n/a
3298.27	n/a	PROB	1649135	n/a	LTP246	ltpFR	8	n/a	n/a	n/a	n/a	n/a	n/a	8	3	2	3	n/a	n/a	n/a	n/a	n/a
3300.434	n/a	PROB	1650217	n/a	LTP246	ltpFR	8	n/a	n/a	n/a	n/a	n/a	n/a	17	8	7	2	n/a	n/a	n/a	n/a	n/a
3302.714	n/a	PROB	1651357	n/a	LTP246	ltpFR	8	n/a	n/a	n/a	n/a	n/a	n/a	18	4	6	8	n/a	n/a	n/a	n/a	n/a
3304.474	n/a	STOP	1652237	n/a	LTP246	ltpFR	8	n/a	n/a	n/a	n/a	n/a	n/a	n/a	n/a	n/a	n/a	n/a	n/a	n/a	n/a	n/a
3305.992	n/a	WORD	1652996	wordpools/wasnorm_wordpool_less_exclusions.txt	LTP246	ltpFR	8	11	1	NIECE	952	n/a	1	n/a	0	0	0	1	0.412841796875	0.57763671875	upper	../fonts/amplitud.ttf
3309.004	n/a	START	1654502	n/a	LTP246	ltpFR	8	n/a	n/a	n/a	n/a	n/a	n/a	n/a	n/a	n/a	n/a	n/a	n/a	n/a	n/a	n/a
3310.086	n/a	PROB	1655043	n/a	LTP246	ltpFR	8	n/a	n/a	n/a	n/a	n/a	n/a	16	5	7	4	n/a	n/a	n/a	n/a	n/a
3312.398	n/a	PROB	1656199	n/a	LTP246	ltpFR	8	n/a	n/a	n/a	n/a	n/a	n/a	12	3	8	1	n/a	n/a	n/a	n/a	n/a
3314.528	n/a	PROB	1657264	n/a	LTP246	ltpFR	8	n/a	n/a	n/a	n/a	n/a	n/a	13	1	4	8	n/a	n/a	n/a	n/a	n/a
3316.29	n/a	STOP	1658145	n/a	LTP246	ltpFR	8	n/a	n/a	n/a	n/a	n/a	n/a	n/a	n/a	n/a	n/a	n/a	n/a	n/a	n/a	n/a
3318.14	n/a	WORD	1659070	wordpools/wasnorm_wordpool_less_exclusions.txt	LTP246	ltpFR	8	11	0	UNCLE	1536	n/a	1	n/a	0	0	0	0	0.5869140625	0.422607421875	lower	../fonts/zerothre.ttf
3321.152	n/a	START	1660576	n/a	LTP246	ltpFR	8	n/a	n/a	n/a	n/a	n/a	n/a	n/a	n/a	n/a	n/a	n/a	n/a	n/a	n/a	n/a
3321.968	n/a	PROB	1660984	n/a	LTP246	ltpFR	8	n/a	n/a	n/a	n/a	n/a	n/a	27	9	9	9	n/a	n/a	n/a	n/a	n/a
3324.214	n/a	PROB	1662107	n/a	LTP246	ltpFR	8	n/a	n/a	n/a	n/a	n/a	n/a	10	2	7	1	n/a	n/a	n/a	n/a	n/a
3326.828	n/a	PROB	1663414	n/a	LTP246	ltpFR	8	n/a	n/a	n/a	n/a	n/a	n/a	19	3	7	9	n/a	n/a	n/a	n/a	n/a
3328.354	n/a	STOP	1664177	n/a	LTP246	ltpFR	8	n/a	n/a	n/a	n/a	n/a	n/a	n/a	n/a	n/a	n/a	n/a	n/a	n/a	n/a	n/a
3330.356	n/a	WORD	1665178	wordpools/wasnorm_wordpool_less_exclusions.txt	LTP246	ltpFR	8	11	0	COSTUME	383	n/a	0	n/a	0	0	0	0	0.5869140625	0.422607421875	lower	../fonts/zerothre.ttf
3333.368	n/a	START	1666684	n/a	LTP246	ltpFR	8	n/a	n/a	n/a	n/a	n/a	n/a	n/a	n/a	n/a	n/a	n/a	n/a	n/a	n/a	n/a
3334.45	n/a	PROB	1667225	n/a	LTP246	ltpFR	8	n/a	n/a	n/a	n/a	n/a	n/a	13	6	3	4	n/a	n/a	n/a	n/a	n/a
3335.93	n/a	PROB	1667965	n/a	LTP246	ltpFR	8	n/a	n/a	n/a	n/a	n/a	n/a	17	9	1	7	n/a	n/a	n/a	n/a	n/a
3337.678	n/a	PROB	1668839	n/a	LTP246	ltpFR	8	n/a	n/a	n/a	n/a	n/a	n/a	9	3	1	5	n/a	n/a	n/a	n/a	n/a
3341.066	n/a	STOP	1670533	n/a	LTP246	ltpFR	8	n/a	n/a	n/a	n/a	n/a	n/a	n/a	n/a	n/a	n/a	n/a	n/a	n/a	n/a	n/a
3342.57	n/a	WORD	1671285	wordpools/wasnorm_wordpool_less_exclusions.txt	LTP246	ltpFR	8	11	0	GLASS	639	n/a	0	n/a	0	0	0	0	0.5869140625	0.422607421875	lower	../fonts/zerothre.ttf
3345.582	n/a	START	1672791	n/a	LTP246	ltpFR	8	n/a	n/a	n/a	n/a	n/a	n/a	n/a	n/a	n/a	n/a	n/a	n/a	n/a	n/a	n/a
3346.448	n/a	PROB	1673224	n/a	LTP246	ltpFR	8	n/a	n/a	n/a	n/a	n/a	n/a	9	4	4	1	n/a	n/a	n/a	n/a	n/a
3348.078	n/a	PROB	1674039	n/a	LTP246	ltpFR	8	n/a	n/a	n/a	n/a	n/a	n/a	9	2	6	1	n/a	n/a	n/a	n/a	n/a
3350.294	n/a	PROB	1675147	n/a	LTP246	ltpFR	8	n/a	n/a	n/a	n/a	n/a	n/a	16	6	4	6	n/a	n/a	n/a	n/a	n/a
3353.584	n/a	STOP	1676792	n/a	LTP246	ltpFR	8	n/a	n/a	n/a	n/a	n/a	n/a	n/a	n/a	n/a	n/a	n/a	n/a	n/a	n/a	n/a
3354.454	n/a	WORD	1677227	wordpools/wasnorm_wordpool_less_exclusions.txt	LTP246	ltpFR	8	11	0	PICK	1058	n/a	1	n/a	0	0	0	0	0.5869140625	0.422607421875	lower	../fonts/zerothre.ttf
3357.466	n/a	START	1678733	n/a	LTP246	ltpFR	8	n/a	n/a	n/a	n/a	n/a	n/a	n/a	n/a	n/a	n/a	n/a	n/a	n/a	n/a	n/a
3358.398	n/a	PROB	1679199	n/a	LTP246	ltpFR	8	n/a	n/a	n/a	n/a	n/a	n/a	18	3	9	6	n/a	n/a	n/a	n/a	n/a
3360.644	n/a	PROB	1680322	n/a	LTP246	ltpFR	8	n/a	n/a	n/a	n/a	n/a	n/a	10	1	7	2	n/a	n/a	n/a	n/a	n/a
3362.574	n/a	PROB	1681287	n/a	LTP246	ltpFR	8	n/a	n/a	n/a	n/a	n/a	n/a	11	1	3	7	n/a	n/a	n/a	n/a	n/a
3364.418	n/a	STOP	1682209	n/a	LTP246	ltpFR	8	n/a	n/a	n/a	n/a	n/a	n/a	n/a	n/a	n/a	n/a	n/a	n/a	n/a	n/a	n/a
3366.436	n/a	WORD	1683218	wordpools/wasnorm_wordpool_less_exclusions.txt	LTP246	ltpFR	8	11	0	NOSE	957	n/a	0	n/a	0	0	0	0	0.5869140625	0.422607421875	lower	../fonts/zerothre.ttf
3369.448	n/a	START	1684724	n/a	LTP246	ltpFR	8	n/a	n/a	n/a	n/a	n/a	n/a	n/a	n/a	n/a	n/a	n/a	n/a	n/a	n/a	n/a
3370.446	n/a	PROB	1685223	n/a	LTP246	ltpFR	8	n/a	n/a	n/a	n/a	n/a	n/a	14	7	4	3	n/a	n/a	n/a	n/a	n/a
3372.36	n/a	PROB	1686180	n/a	LTP246	ltpFR	8	n/a	n/a	n/a	n/a	n/a	n/a	11	6	4	1	n/a	n/a	n/a	n/a	n/a
