onset	duration	trial_type	sample	stim_file	subject	experiment	session	trial	task	item_name	item_num	recog_conf	resp	color_b	color_g	color_r	case	font
315.488	n/a	SESS_START	157744	n/a	LTP067	ltpFR	0	n/a	n/a	n/a	n/a	1	n/a	n/a	n/a	n/a	n/a	n/a
473.61	n/a	WORD	236805	wordpools/wasnorm_wordpool.txt	LTP067	ltpFR	0	1	-1	BANQUET	86	n/a	-1	1	1.0	1.0	upper	../fonts/Verdana.ttf
477.48	n/a	WORD	238740	wordpools/wasnorm_wordpool.txt	LTP067	ltpFR	0	1	-1	OFFICER	973	5	-1	1	1.0	1.0	upper	../fonts/Verdana.ttf
481.492	n/a	WORD	240746	wordpools/wasnorm_wordpool.txt	LTP067	ltpFR	0	1	-1	FRAGRANCE	599	n/a	-1	1	1.0	1.0	upper	../fonts/Verdana.ttf
485.504	n/a	WORD	242752	wordpools/wasnorm_wordpool.txt	LTP067	ltpFR	0	1	-1	SKIRT	1319	n/a	-1	1	1.0	1.0	upper	../fonts/Verdana.ttf
489.434	n/a	WORD	244717	wordpools/wasnorm_wordpool.txt	LTP067	ltpFR	0	1	-1	SHORTS	1293	n/a	-1	1	1.0	1.0	upper	../fonts/Verdana.ttf
493.396	n/a	WORD	246698	wordpools/wasnorm_wordpool.txt	LTP067	ltpFR	0	1	-1	MUSHROOM	934	n/a	-1	1	1.0	1.0	upper	../fonts/Verdana.ttf
497.256	n/a	WORD	248628	wordpools/wasnorm_wordpool.txt	LTP067	ltpFR	0	1	-1	PASSENGER	1020	n/a	-1	1	1.0	1.0	upper	../fonts/Verdana.ttf
501.144	n/a	WORD	250572	wordpools/wasnorm_wordpool.txt	LTP067	ltpFR	0	1	-1	CONSOLE	364	n/a	-1	1	1.0	1.0	upper	../fonts/Verdana.ttf
505.324	n/a	WORD	252662	wordpools/wasnorm_wordpool.txt	LTP067	ltpFR	0	1	-1	OCTOPUS	971	n/a	-1	1	1.0	1.0	upper	../fonts/Verdana.ttf
509.276	n/a	WORD	254638	wordpools/wasnorm_wordpool.txt	LTP067	ltpFR	0	1	-1	FISH	571	n/a	-1	1	1.0	1.0	upper	../fonts/Verdana.ttf
513.114	n/a	WORD	256557	wordpools/wasnorm_wordpool.txt	LTP067	ltpFR	0	1	-1	VINEGAR	1569	n/a	-1	1	1.0	1.0	upper	../fonts/Verdana.ttf
517.292	n/a	WORD	258646	wordpools/wasnorm_wordpool.txt	LTP067	ltpFR	0	1	-1	YACHT	1629	n/a	-1	1	1.0	1.0	upper	../fonts/Verdana.ttf
521.362	n/a	WORD	260681	wordpools/wasnorm_wordpool.txt	LTP067	ltpFR	0	1	-1	HAMMOCK	681	n/a	-1	1	1.0	1.0	upper	../fonts/Verdana.ttf
525.466	n/a	WORD	262733	wordpools/wasnorm_wordpool.txt	LTP067	ltpFR	0	1	-1	ROSE	1212	n/a	-1	1	1.0	1.0	upper	../fonts/Verdana.ttf
529.62	n/a	WORD	264810	wordpools/wasnorm_wordpool.txt	LTP067	ltpFR	0	1	-1	PORK	1108	n/a	-1	1	1.0	1.0	upper	../fonts/Verdana.ttf
533.624	n/a	WORD	266812	wordpools/wasnorm_wordpool.txt	LTP067	ltpFR	0	1	-1	BOAT	144	n/a	-1	1	1.0	1.0	upper	../fonts/Verdana.ttf
539.684	n/a	REC_START	269842	n/a	LTP067	ltpFR	0	1	n/a	n/a	n/a	n/a	n/a	n/a	n/a	n/a	n/a	n/a
540.756	n/a	REC_WORD	270378	wordpools/wasnorm_wordpool.txt	LTP067	ltpFR	0	1	-1	OFFICER	973	n/a	-1	n/a	n/a	n/a	n/a	n/a
541.536	n/a	REC_WORD	270768	wordpools/wasnorm_wordpool.txt	LTP067	ltpFR	0	1	-1	FRAGRANCE	599	n/a	-1	n/a	n/a	n/a	n/a	n/a
542.296	n/a	REC_WORD	271148	wordpools/wasnorm_wordpool.txt	LTP067	ltpFR	0	1	-1	SKIRT	1319	n/a	-1	n/a	n/a	n/a	n/a	n/a
543.046	n/a	REC_WORD	271523	wordpools/wasnorm_wordpool.txt	LTP067	ltpFR	0	1	-1	SHORTS	1293	n/a	-1	n/a	n/a	n/a	n/a	n/a
545.312	n/a	REC_WORD	272656	wordpools/wasnorm_wordpool.txt	LTP067	ltpFR	0	1	-1	YACHT	1629	n/a	-1	n/a	n/a	n/a	n/a	n/a
546.19	n/a	REC_WORD	273095	wordpools/wasnorm_wordpool.txt	LTP067	ltpFR	0	1	-1	BOAT	144	n/a	-1	n/a	n/a	n/a	n/a	n/a
548.314	n/a	REC_WORD	274157	wordpools/wasnorm_wordpool.txt	LTP067	ltpFR	0	1	-1	PORK	1108	n/a	-1	n/a	n/a	n/a	n/a	n/a
549.118	n/a	REC_WORD	274559	wordpools/wasnorm_wordpool.txt	LTP067	ltpFR	0	1	-1	ROSE	1212	n/a	-1	n/a	n/a	n/a	n/a	n/a
553.304	n/a	REC_WORD	276652	wordpools/wasnorm_wordpool.txt	LTP067	ltpFR	0	1	-1	PASSENGER	1020	n/a	-1	n/a	n/a	n/a	n/a	n/a
561.43	n/a	REC_WORD	280715	wordpools/wasnorm_wordpool.txt	LTP067	ltpFR	0	1	-1	VINEGAR	1569	n/a	-1	n/a	n/a	n/a	n/a	n/a
563.216	n/a	REC_WORD	281608	wordpools/wasnorm_wordpool.txt	LTP067	ltpFR	0	1	-1	HAMMOCK	681	n/a	-1	n/a	n/a	n/a	n/a	n/a
620.114	n/a	WORD	310057	wordpools/wasnorm_wordpool.txt	LTP067	ltpFR	0	2	-1	SKI	1316	n/a	-1	1	1.0	1.0	upper	../fonts/Verdana.ttf
624.068	n/a	WORD	312034	wordpools/wasnorm_wordpool.txt	LTP067	ltpFR	0	2	-1	CEREAL	272	n/a	-1	1	1.0	1.0	upper	../fonts/Verdana.ttf
628.122	n/a	WORD	314061	wordpools/wasnorm_wordpool.txt	LTP067	ltpFR	0	2	-1	COLUMN	350	n/a	-1	1	1.0	1.0	upper	../fonts/Verdana.ttf
632.026	n/a	WORD	316013	wordpools/wasnorm_wordpool.txt	LTP067	ltpFR	0	2	-1	COTTAGE	384	n/a	-1	1	1.0	1.0	upper	../fonts/Verdana.ttf
636.072	n/a	WORD	318036	wordpools/wasnorm_wordpool.txt	LTP067	ltpFR	0	2	-1	MAGICIAN	854	n/a	-1	1	1.0	1.0	upper	../fonts/Verdana.ttf
640.05	n/a	WORD	320025	wordpools/wasnorm_wordpool.txt	LTP067	ltpFR	0	2	-1	WAND	1586	n/a	-1	1	1.0	1.0	upper	../fonts/Verdana.ttf
644.254	n/a	WORD	322127	wordpools/wasnorm_wordpool.txt	LTP067	ltpFR	0	2	-1	WALNUT	1584	n/a	-1	1	1.0	1.0	upper	../fonts/Verdana.ttf
648.358	n/a	WORD	324179	wordpools/wasnorm_wordpool.txt	LTP067	ltpFR	0	2	-1	DRILL	497	n/a	-1	1	1.0	1.0	upper	../fonts/Verdana.ttf
652.312	n/a	WORD	326156	wordpools/wasnorm_wordpool.txt	LTP067	ltpFR	0	2	-1	FIREMAN	569	n/a	-1	1	1.0	1.0	upper	../fonts/Verdana.ttf
656.306	n/a	WORD	328153	wordpools/wasnorm_wordpool.txt	LTP067	ltpFR	0	2	-1	WAVE	1596	n/a	-1	1	1.0	1.0	upper	../fonts/Verdana.ttf
660.378	n/a	WORD	330189	wordpools/wasnorm_wordpool.txt	LTP067	ltpFR	0	2	-1	UNCLE	1536	n/a	-1	1	1.0	1.0	upper	../fonts/Verdana.ttf
664.364	n/a	WORD	332182	wordpools/wasnorm_wordpool.txt	LTP067	ltpFR	0	2	-1	CASHEW	253	n/a	-1	1	1.0	1.0	upper	../fonts/Verdana.ttf
668.2	n/a	WORD	334100	wordpools/wasnorm_wordpool.txt	LTP067	ltpFR	0	2	-1	SAUSAGE	1238	n/a	-1	1	1.0	1.0	upper	../fonts/Verdana.ttf
672.104	n/a	WORD	336052	wordpools/wasnorm_wordpool.txt	LTP067	ltpFR	0	2	-1	BRIDGE	174	n/a	-1	1	1.0	1.0	upper	../fonts/Verdana.ttf
676.3	n/a	WORD	338150	wordpools/wasnorm_wordpool.txt	LTP067	ltpFR	0	2	-1	HORNET	718	n/a	-1	1	1.0	1.0	upper	../fonts/Verdana.ttf
680.244	n/a	WORD	340122	wordpools/wasnorm_wordpool.txt	LTP067	ltpFR	0	2	-1	PAN	1008	n/a	-1	1	1.0	1.0	upper	../fonts/Verdana.ttf
685.948	n/a	REC_START	342974	n/a	LTP067	ltpFR	0	2	n/a	n/a	n/a	n/a	n/a	n/a	n/a	n/a	n/a	n/a
686.506	n/a	REC_WORD	343253	wordpools/wasnorm_wordpool.txt	LTP067	ltpFR	0	2	-1	UNCLE	1536	n/a	-1	n/a	n/a	n/a	n/a	n/a
688.788	n/a	REC_WORD	344394	wordpools/wasnorm_wordpool.txt	LTP067	ltpFR	0	2	n/a	PECAN	1036	n/a	n/a	n/a	n/a	n/a	n/a	n/a
690.432	n/a	REC_WORD	345216	wordpools/wasnorm_wordpool.txt	LTP067	ltpFR	0	2	-1	SAUSAGE	1238	n/a	-1	n/a	n/a	n/a	n/a	n/a
692.05	n/a	REC_WORD	346025	wordpools/wasnorm_wordpool.txt	LTP067	ltpFR	0	2	-1	BRIDGE	174	n/a	-1	n/a	n/a	n/a	n/a	n/a
693.676	n/a	REC_WORD	346838	wordpools/wasnorm_wordpool.txt	LTP067	ltpFR	0	2	-1	WAVE	1596	n/a	-1	n/a	n/a	n/a	n/a	n/a
697.238	n/a	REC_WORD	348619	wordpools/wasnorm_wordpool.txt	LTP067	ltpFR	0	2	-1	HORNET	718	n/a	-1	n/a	n/a	n/a	n/a	n/a
702.97	n/a	REC_WORD	351485	wordpools/wasnorm_wordpool.txt	LTP067	ltpFR	0	2	-1	COLUMN	350	n/a	-1	n/a	n/a	n/a	n/a	n/a
703.832	n/a	REC_WORD	351916	wordpools/wasnorm_wordpool.txt	LTP067	ltpFR	0	2	-1	SKI	1316	n/a	-1	n/a	n/a	n/a	n/a	n/a
705.514	n/a	REC_WORD	352757	wordpools/wasnorm_wordpool.txt	LTP067	ltpFR	0	2	n/a	WIZARD	-1	n/a	n/a	n/a	n/a	n/a	n/a	n/a
705.972	n/a	REC_WORD	352986	wordpools/wasnorm_wordpool.txt	LTP067	ltpFR	0	2	-1	WAND	1586	n/a	-1	n/a	n/a	n/a	n/a	n/a
708.626	n/a	REC_WORD	354313	wordpools/wasnorm_wordpool.txt	LTP067	ltpFR	0	2	n/a	HOLE	-1	n/a	n/a	n/a	n/a	n/a	n/a	n/a
718.134	n/a	REC_WORD	359067	wordpools/wasnorm_wordpool.txt	LTP067	ltpFR	0	2	-1	FIREMAN	569	n/a	-1	n/a	n/a	n/a	n/a	n/a
725.832	n/a	REC_WORD	362916	wordpools/wasnorm_wordpool.txt	LTP067	ltpFR	0	2	-1	CEREAL	272	n/a	-1	n/a	n/a	n/a	n/a	n/a
764.622	n/a	WORD	382311	wordpools/wasnorm_wordpool.txt	LTP067	ltpFR	0	3	-1	MAYONNAISE	880	n/a	-1	1	1.0	1.0	upper	../fonts/Verdana.ttf
768.76	n/a	WORD	384380	wordpools/wasnorm_wordpool.txt	LTP067	ltpFR	0	3	-1	TOAST	1471	n/a	-1	1	1.0	1.0	upper	../fonts/Verdana.ttf
772.672	n/a	WORD	386336	wordpools/wasnorm_wordpool.txt	LTP067	ltpFR	0	3	-1	LAKE	796	n/a	-1	1	1.0	1.0	upper	../fonts/Verdana.ttf
776.784	n/a	WORD	388392	wordpools/wasnorm_wordpool.txt	LTP067	ltpFR	0	3	-1	LOCK	838	n/a	-1	1	1.0	1.0	upper	../fonts/Verdana.ttf
780.672	n/a	WORD	390336	wordpools/wasnorm_wordpool.txt	LTP067	ltpFR	0	3	-1	CUBE	420	n/a	-1	1	1.0	1.0	upper	../fonts/Verdana.ttf
784.768	n/a	WORD	392384	wordpools/wasnorm_wordpool.txt	LTP067	ltpFR	0	3	-1	TRIANGLE	1504	n/a	-1	1	1.0	1.0	upper	../fonts/Verdana.ttf
788.778	n/a	WORD	394389	wordpools/wasnorm_wordpool.txt	LTP067	ltpFR	0	3	-1	FUNGUS	614	n/a	-1	1	1.0	1.0	upper	../fonts/Verdana.ttf
792.666	n/a	WORD	396333	wordpools/wasnorm_wordpool.txt	LTP067	ltpFR	0	3	-1	SWAMP	1416	n/a	-1	1	1.0	1.0	upper	../fonts/Verdana.ttf
796.496	n/a	WORD	398248	wordpools/wasnorm_wordpool.txt	LTP067	ltpFR	0	3	-1	GOO	648	n/a	-1	1	1.0	1.0	upper	../fonts/Verdana.ttf
800.44	n/a	WORD	400220	wordpools/wasnorm_wordpool.txt	LTP067	ltpFR	0	3	-1	CRIB	407	n/a	-1	1	1.0	1.0	upper	../fonts/Verdana.ttf
804.41	n/a	WORD	402205	wordpools/wasnorm_wordpool.txt	LTP067	ltpFR	0	3	-1	SAILOR	1223	n/a	-1	1	1.0	1.0	upper	../fonts/Verdana.ttf
808.332	n/a	WORD	404166	wordpools/wasnorm_wordpool.txt	LTP067	ltpFR	0	3	-1	TOWEL	1489	n/a	-1	1	1.0	1.0	upper	../fonts/Verdana.ttf
812.484	n/a	WORD	406242	wordpools/wasnorm_wordpool.txt	LTP067	ltpFR	0	3	-1	BAKER	71	n/a	-1	1	1.0	1.0	upper	../fonts/Verdana.ttf
816.48	n/a	WORD	408240	wordpools/wasnorm_wordpool.txt	LTP067	ltpFR	0	3	-1	BISCUIT	130	n/a	-1	1	1.0	1.0	upper	../fonts/Verdana.ttf
820.634	n/a	WORD	410317	wordpools/wasnorm_wordpool.txt	LTP067	ltpFR	0	3	-1	MERMAID	887	n/a	-1	1	1.0	1.0	upper	../fonts/Verdana.ttf
824.786	n/a	WORD	412393	wordpools/wasnorm_wordpool.txt	LTP067	ltpFR	0	3	-1	ANCHOR	21	n/a	-1	1	1.0	1.0	upper	../fonts/Verdana.ttf
830.58	n/a	REC_START	415290	n/a	LTP067	ltpFR	0	3	n/a	n/a	n/a	n/a	n/a	n/a	n/a	n/a	n/a	n/a
831.11	n/a	REC_WORD	415555	wordpools/wasnorm_wordpool.txt	LTP067	ltpFR	0	3	-1	SAILOR	1223	n/a	-1	n/a	n/a	n/a	n/a	n/a
831.902	n/a	REC_WORD	415951	wordpools/wasnorm_wordpool.txt	LTP067	ltpFR	0	3	-1	TOWEL	1489	n/a	-1	n/a	n/a	n/a	n/a	n/a
832.5	n/a	REC_WORD	416250	wordpools/wasnorm_wordpool.txt	LTP067	ltpFR	0	3	-1	CRIB	407	n/a	-1	n/a	n/a	n/a	n/a	n/a
834.906	n/a	REC_WORD	417453	wordpools/wasnorm_wordpool.txt	LTP067	ltpFR	0	3	-1	BISCUIT	130	n/a	-1	n/a	n/a	n/a	n/a	n/a
835.474	n/a	REC_WORD	417737	wordpools/wasnorm_wordpool.txt	LTP067	ltpFR	0	3	-1	BAKER	71	n/a	-1	n/a	n/a	n/a	n/a	n/a
838.058	n/a	REC_WORD	419029	wordpools/wasnorm_wordpool.txt	LTP067	ltpFR	0	3	-1	ANCHOR	21	n/a	-1	n/a	n/a	n/a	n/a	n/a
844.18	n/a	REC_WORD	422090	wordpools/wasnorm_wordpool.txt	LTP067	ltpFR	0	3	-1	CUBE	420	n/a	-1	n/a	n/a	n/a	n/a	n/a
844.934	n/a	REC_WORD	422467	wordpools/wasnorm_wordpool.txt	LTP067	ltpFR	0	3	-1	LOCK	838	n/a	-1	n/a	n/a	n/a	n/a	n/a
845.826	n/a	REC_WORD	422913	wordpools/wasnorm_wordpool.txt	LTP067	ltpFR	0	3	-1	TRIANGLE	1504	n/a	-1	n/a	n/a	n/a	n/a	n/a
846.436	n/a	REC_WORD	423218	wordpools/wasnorm_wordpool.txt	LTP067	ltpFR	0	3	-1	FUNGUS	614	n/a	-1	n/a	n/a	n/a	n/a	n/a
847.088	n/a	REC_WORD	423544	wordpools/wasnorm_wordpool.txt	LTP067	ltpFR	0	3	-1	GOO	648	n/a	-1	n/a	n/a	n/a	n/a	n/a
847.906	n/a	REC_WORD	423953	wordpools/wasnorm_wordpool.txt	LTP067	ltpFR	0	3	-1	SWAMP	1416	n/a	-1	n/a	n/a	n/a	n/a	n/a
857.056	n/a	REC_WORD	428528	wordpools/wasnorm_wordpool.txt	LTP067	ltpFR	0	3	-1	MAYONNAISE	880	n/a	-1	n/a	n/a	n/a	n/a	n/a
857.61	n/a	REC_WORD	428805	wordpools/wasnorm_wordpool.txt	LTP067	ltpFR	0	3	-1	TOAST	1471	n/a	-1	n/a	n/a	n/a	n/a	n/a
873.028	n/a	REC_WORD	436514	wordpools/wasnorm_wordpool.txt	LTP067	ltpFR	0	3	-1	MERMAID	887	n/a	-1	n/a	n/a	n/a	n/a	n/a
924.306	n/a	WORD	462153	wordpools/wasnorm_wordpool.txt	LTP067	ltpFR	0	4	-1	SWIMMER	1420	n/a	-1	1	1.0	1.0	upper	../fonts/Verdana.ttf
928.25	n/a	WORD	464125	wordpools/wasnorm_wordpool.txt	LTP067	ltpFR	0	4	-1	WAGON	1578	n/a	-1	1	1.0	1.0	upper	../fonts/Verdana.ttf
932.22	n/a	WORD	466110	wordpools/wasnorm_wordpool.txt	LTP067	ltpFR	0	4	-1	ZOO	1637	n/a	-1	1	1.0	1.0	upper	../fonts/Verdana.ttf
936.042	n/a	WORD	468021	wordpools/wasnorm_wordpool.txt	LTP067	ltpFR	0	4	-1	SERVER	1272	n/a	-1	1	1.0	1.0	upper	../fonts/Verdana.ttf
939.97	n/a	WORD	469985	wordpools/wasnorm_wordpool.txt	LTP067	ltpFR	0	4	-1	SNACK	1331	n/a	-1	1	1.0	1.0	upper	../fonts/Verdana.ttf
943.9	n/a	WORD	471950	wordpools/wasnorm_wordpool.txt	LTP067	ltpFR	0	4	-1	STETHOSCOPE	1379	n/a	-1	1	1.0	1.0	upper	../fonts/Verdana.ttf
947.936	n/a	WORD	473968	wordpools/wasnorm_wordpool.txt	LTP067	ltpFR	0	4	-1	PATIENT	1024	n/a	-1	1	1.0	1.0	upper	../fonts/Verdana.ttf
951.99	n/a	WORD	475995	wordpools/wasnorm_wordpool.txt	LTP067	ltpFR	0	4	-1	PEAR	1033	n/a	-1	1	1.0	1.0	upper	../fonts/Verdana.ttf
956.192	n/a	WORD	478096	wordpools/wasnorm_wordpool.txt	LTP067	ltpFR	0	4	-1	TWEEZERS	1526	n/a	-1	1	1.0	1.0	upper	../fonts/Verdana.ttf
960.138	n/a	WORD	480069	wordpools/wasnorm_wordpool.txt	LTP067	ltpFR	0	4	-1	MARKER	870	n/a	-1	1	1.0	1.0	upper	../fonts/Verdana.ttf
964.234	n/a	WORD	482117	wordpools/wasnorm_wordpool.txt	LTP067	ltpFR	0	4	-1	NECK	939	n/a	-1	1	1.0	1.0	upper	../fonts/Verdana.ttf
968.288	n/a	WORD	484144	wordpools/wasnorm_wordpool.txt	LTP067	ltpFR	0	4	-1	FAUCET	555	n/a	-1	1	1.0	1.0	upper	../fonts/Verdana.ttf
972.14	n/a	WORD	486070	wordpools/wasnorm_wordpool.txt	LTP067	ltpFR	0	4	-1	CAKE	219	n/a	-1	1	1.0	1.0	upper	../fonts/Verdana.ttf
976.32	n/a	WORD	488160	wordpools/wasnorm_wordpool.txt	LTP067	ltpFR	0	4	-1	POTATO	1115	n/a	-1	1	1.0	1.0	upper	../fonts/Verdana.ttf
980.182	n/a	WORD	490091	wordpools/wasnorm_wordpool.txt	LTP067	ltpFR	0	4	-1	PONY	1102	n/a	-1	1	1.0	1.0	upper	../fonts/Verdana.ttf
984.252	n/a	WORD	492126	wordpools/wasnorm_wordpool.txt	LTP067	ltpFR	0	4	-1	TAR	1435	n/a	-1	1	1.0	1.0	upper	../fonts/Verdana.ttf
990.136	n/a	REC_START	495068	n/a	LTP067	ltpFR	0	4	n/a	n/a	n/a	n/a	n/a	n/a	n/a	n/a	n/a	n/a
990.54	n/a	REC_WORD	495270	wordpools/wasnorm_wordpool.txt	LTP067	ltpFR	0	4	-1	TAR	1435	n/a	-1	n/a	n/a	n/a	n/a	n/a
991.064	n/a	REC_WORD	495532	wordpools/wasnorm_wordpool.txt	LTP067	ltpFR	0	4	-1	PONY	1102	n/a	-1	n/a	n/a	n/a	n/a	n/a
998.028	n/a	REC_WORD	499014	wordpools/wasnorm_wordpool.txt	LTP067	ltpFR	0	4	n/a	WAITER	1580	n/a	n/a	n/a	n/a	n/a	n/a	n/a
999.246	n/a	REC_WORD	499623	wordpools/wasnorm_wordpool.txt	LTP067	ltpFR	0	4	-1	SNACK	1331	n/a	-1	n/a	n/a	n/a	n/a	n/a
999.884	n/a	REC_WORD	499942	wordpools/wasnorm_wordpool.txt	LTP067	ltpFR	0	4	-1	STETHOSCOPE	1379	n/a	-1	n/a	n/a	n/a	n/a	n/a
1000.798	n/a	REC_WORD	500399	wordpools/wasnorm_wordpool.txt	LTP067	ltpFR	0	4	-1	PATIENT	1024	n/a	-1	n/a	n/a	n/a	n/a	n/a
1007.592	n/a	REC_WORD	503796	wordpools/wasnorm_wordpool.txt	LTP067	ltpFR	0	4	-1	SWIMMER	1420	n/a	-1	n/a	n/a	n/a	n/a	n/a
1008.266	n/a	REC_WORD	504133	wordpools/wasnorm_wordpool.txt	LTP067	ltpFR	0	4	-1	WAGON	1578	n/a	-1	n/a	n/a	n/a	n/a	n/a
1009.07	n/a	REC_WORD	504535	wordpools/wasnorm_wordpool.txt	LTP067	ltpFR	0	4	-1	ZOO	1637	n/a	-1	n/a	n/a	n/a	n/a	n/a
1022.468	n/a	REC_WORD	511234	wordpools/wasnorm_wordpool.txt	LTP067	ltpFR	0	4	-1	FAUCET	555	n/a	-1	n/a	n/a	n/a	n/a	n/a
1023.128	n/a	REC_WORD	511564	wordpools/wasnorm_wordpool.txt	LTP067	ltpFR	0	4	-1	CAKE	219	n/a	-1	n/a	n/a	n/a	n/a	n/a
1023.532	n/a	REC_WORD	511766	wordpools/wasnorm_wordpool.txt	LTP067	ltpFR	0	4	-1	POTATO	1115	n/a	-1	n/a	n/a	n/a	n/a	n/a
1219.348	n/a	WORD	609674	wordpools/wasnorm_wordpool.txt	LTP067	ltpFR	0	5	1	GREASE	660	n/a	n/a	1	0.412841796875	0.57763671875	lower	../fonts/amplitud.ttf
1222.368	n/a	SLOW_MSG	611184	n/a	LTP067	ltpFR	0	5	n/a	n/a	n/a	n/a	n/a	n/a	n/a	n/a	n/a	n/a
1224.708	n/a	WORD	612354	wordpools/wasnorm_wordpool.txt	LTP067	ltpFR	0	5	1	AGENT	10	n/a	1	1	0.412841796875	0.57763671875	lower	../fonts/amplitud.ttf
1228.544	n/a	WORD	614272	wordpools/wasnorm_wordpool.txt	LTP067	ltpFR	0	5	1	BUTTON	207	n/a	0	1	0.412841796875	0.57763671875	lower	../fonts/amplitud.ttf
1232.498	n/a	WORD	616249	wordpools/wasnorm_wordpool.txt	LTP067	ltpFR	0	5	1	CUFF	423	n/a	0	1	0.412841796875	0.57763671875	lower	../fonts/amplitud.ttf
1236.386	n/a	WORD	618193	wordpools/wasnorm_wordpool.txt	LTP067	ltpFR	0	5	1	SWING	1421	n/a	0	1	0.412841796875	0.57763671875	lower	../fonts/amplitud.ttf
1240.198	n/a	WORD	620099	wordpools/wasnorm_wordpool.txt	LTP067	ltpFR	0	5	1	BARRACUDA	90	n/a	1	1	0.412841796875	0.57763671875	lower	../fonts/amplitud.ttf
1244.16	n/a	WORD	622080	wordpools/wasnorm_wordpool.txt	LTP067	ltpFR	0	5	1	MARROW	872	n/a	1	1	0.412841796875	0.57763671875	lower	../fonts/amplitud.ttf
1248.314	n/a	WORD	624157	wordpools/wasnorm_wordpool.txt	LTP067	ltpFR	0	5	1	CROW	414	n/a	1	1	0.412841796875	0.57763671875	lower	../fonts/amplitud.ttf
1252.326	n/a	WORD	626163	wordpools/wasnorm_wordpool.txt	LTP067	ltpFR	0	5	1	PIKE	1067	n/a	0	1	0.412841796875	0.57763671875	lower	../fonts/amplitud.ttf
1256.504	n/a	WORD	628252	wordpools/wasnorm_wordpool.txt	LTP067	ltpFR	0	5	1	SUMMIT	1405	n/a	0	1	0.412841796875	0.57763671875	lower	../fonts/amplitud.ttf
1260.416	n/a	WORD	630208	wordpools/wasnorm_wordpool.txt	LTP067	ltpFR	0	5	1	RAKE	1164	n/a	0	1	0.412841796875	0.57763671875	lower	../fonts/amplitud.ttf
1264.304	n/a	WORD	632152	wordpools/wasnorm_wordpool.txt	LTP067	ltpFR	0	5	1	BEAN	105	n/a	0	1	0.412841796875	0.57763671875	lower	../fonts/amplitud.ttf
1268.374	n/a	WORD	634187	wordpools/wasnorm_wordpool.txt	LTP067	ltpFR	0	5	1	SEAGULL	1261	n/a	1	1	0.412841796875	0.57763671875	lower	../fonts/amplitud.ttf
1272.536	n/a	WORD	636268	wordpools/wasnorm_wordpool.txt	LTP067	ltpFR	0	5	1	LOUNGE	845	n/a	0	1	0.412841796875	0.57763671875	lower	../fonts/amplitud.ttf
1276.356	n/a	WORD	638178	wordpools/wasnorm_wordpool.txt	LTP067	ltpFR	0	5	1	SENATE	1267	n/a	0	1	0.412841796875	0.57763671875	lower	../fonts/amplitud.ttf
1280.294	n/a	WORD	640147	wordpools/wasnorm_wordpool.txt	LTP067	ltpFR	0	5	1	LOAF	835	n/a	0	1	0.412841796875	0.57763671875	lower	../fonts/amplitud.ttf
1286.004	n/a	REC_START	643002	n/a	LTP067	ltpFR	0	5	n/a	n/a	n/a	n/a	n/a	n/a	n/a	n/a	n/a	n/a
1286.836	n/a	REC_WORD	643418	wordpools/wasnorm_wordpool.txt	LTP067	ltpFR	0	5	1	LOAF	835	n/a	0	n/a	n/a	n/a	n/a	n/a
1287.364	n/a	REC_WORD	643682	wordpools/wasnorm_wordpool.txt	LTP067	ltpFR	0	5	1	SENATE	1267	n/a	0	n/a	n/a	n/a	n/a	n/a
1287.908	n/a	REC_WORD	643954	wordpools/wasnorm_wordpool.txt	LTP067	ltpFR	0	5	1	PIKE	1067	n/a	0	n/a	n/a	n/a	n/a	n/a
1289.306	n/a	REC_WORD	644653	wordpools/wasnorm_wordpool.txt	LTP067	ltpFR	0	5	1	SEAGULL	1261	n/a	1	n/a	n/a	n/a	n/a	n/a
1290.738	n/a	REC_WORD	645369	wordpools/wasnorm_wordpool.txt	LTP067	ltpFR	0	5	1	BEAN	105	n/a	0	n/a	n/a	n/a	n/a	n/a
1304.826	n/a	REC_WORD	652413	wordpools/wasnorm_wordpool.txt	LTP067	ltpFR	0	5	1	SUMMIT	1405	n/a	0	n/a	n/a	n/a	n/a	n/a
1322.068	n/a	REC_WORD	661034	wordpools/wasnorm_wordpool.txt	LTP067	ltpFR	0	5	1	MARROW	872	n/a	1	n/a	n/a	n/a	n/a	n/a
1373.676	n/a	WORD	686838	wordpools/wasnorm_wordpool.txt	LTP067	ltpFR	0	6	1	FRIAR	605	n/a	1	1	0.412841796875	0.57763671875	lower	../fonts/amplitud.ttf
1377.822	n/a	WORD	688911	wordpools/wasnorm_wordpool.txt	LTP067	ltpFR	0	6	1	KETTLE	772	n/a	0	1	0.412841796875	0.57763671875	lower	../fonts/amplitud.ttf
1381.9	n/a	WORD	690950	wordpools/wasnorm_wordpool.txt	LTP067	ltpFR	0	6	1	LIP	828	n/a	0	1	0.412841796875	0.57763671875	lower	../fonts/amplitud.ttf
1385.954	n/a	WORD	692977	wordpools/wasnorm_wordpool.txt	LTP067	ltpFR	0	6	1	SPIT	1354	n/a	0	1	0.412841796875	0.57763671875	lower	../fonts/amplitud.ttf
1390.164	n/a	WORD	695082	wordpools/wasnorm_wordpool.txt	LTP067	ltpFR	0	6	1	STRANGER	1389	n/a	1	1	0.412841796875	0.57763671875	lower	../fonts/amplitud.ttf
1394.086	n/a	WORD	697043	wordpools/wasnorm_wordpool.txt	LTP067	ltpFR	0	6	1	TOURIST	1488	n/a	1	1	0.412841796875	0.57763671875	lower	../fonts/amplitud.ttf
1398.174	n/a	WORD	699087	wordpools/wasnorm_wordpool.txt	LTP067	ltpFR	0	6	1	DOORBELL	487	n/a	0	1	0.412841796875	0.57763671875	lower	../fonts/amplitud.ttf
1401.986	n/a	WORD	700993	wordpools/wasnorm_wordpool.txt	LTP067	ltpFR	0	6	1	CATHEDRAL	260	n/a	0	1	0.412841796875	0.57763671875	lower	../fonts/amplitud.ttf
1405.882	n/a	WORD	702941	wordpools/wasnorm_wordpool.txt	LTP067	ltpFR	0	6	1	SKILLET	1317	n/a	0	1	0.412841796875	0.57763671875	lower	../fonts/amplitud.ttf
1409.736	n/a	WORD	704868	wordpools/wasnorm_wordpool.txt	LTP067	ltpFR	0	6	1	SQUIRREL	1362	n/a	1	1	0.412841796875	0.57763671875	lower	../fonts/amplitud.ttf
1413.722	n/a	WORD	706861	wordpools/wasnorm_wordpool.txt	LTP067	ltpFR	0	6	1	DETECTIVE	454	n/a	1	1	0.412841796875	0.57763671875	lower	../fonts/amplitud.ttf
1417.918	n/a	WORD	708959	wordpools/wasnorm_wordpool.txt	LTP067	ltpFR	0	6	1	TERMITE	1451	n/a	1	1	0.412841796875	0.57763671875	lower	../fonts/amplitud.ttf
1421.896	n/a	WORD	710948	wordpools/wasnorm_wordpool.txt	LTP067	ltpFR	0	6	1	ACTRESS	6	n/a	1	1	0.412841796875	0.57763671875	lower	../fonts/amplitud.ttf
1425.884	n/a	WORD	712942	wordpools/wasnorm_wordpool.txt	LTP067	ltpFR	0	6	1	PRODUCER	1129	n/a	1	1	0.412841796875	0.57763671875	lower	../fonts/amplitud.ttf
1429.838	n/a	WORD	714919	wordpools/wasnorm_wordpool.txt	LTP067	ltpFR	0	6	1	PENCIL	1042	n/a	0	1	0.412841796875	0.57763671875	lower	../fonts/amplitud.ttf
1433.94	n/a	WORD	716970	wordpools/wasnorm_wordpool.txt	LTP067	ltpFR	0	6	1	BARK	87	n/a	0	1	0.412841796875	0.57763671875	lower	../fonts/amplitud.ttf
1439.81	n/a	REC_START	719905	n/a	LTP067	ltpFR	0	6	n/a	n/a	n/a	n/a	n/a	n/a	n/a	n/a	n/a	n/a
1440.008	n/a	REC_WORD	720004	wordpools/wasnorm_wordpool.txt	LTP067	ltpFR	0	6	1	PENCIL	1042	n/a	0	n/a	n/a	n/a	n/a	n/a
1440.592	n/a	REC_WORD	720296	wordpools/wasnorm_wordpool.txt	LTP067	ltpFR	0	6	1	BARK	87	n/a	0	n/a	n/a	n/a	n/a	n/a
1441.146	n/a	REC_WORD	720573	wordpools/wasnorm_wordpool.txt	LTP067	ltpFR	0	6	1	FRIAR	605	n/a	1	n/a	n/a	n/a	n/a	n/a
1442.892	n/a	REC_WORD	721446	wordpools/wasnorm_wordpool.txt	LTP067	ltpFR	0	6	1	LIP	828	n/a	0	n/a	n/a	n/a	n/a	n/a
1443.38	n/a	REC_WORD	721690	wordpools/wasnorm_wordpool.txt	LTP067	ltpFR	0	6	n/a	BURN	-1	n/a	n/a	n/a	n/a	n/a	n/a	n/a
1446.932	n/a	REC_WORD	723466	wordpools/wasnorm_wordpool.txt	LTP067	ltpFR	0	6	1	LIP	828	n/a	0	n/a	n/a	n/a	n/a	n/a
1447.702	n/a	REC_WORD	723851	wordpools/wasnorm_wordpool.txt	LTP067	ltpFR	0	6	n/a	SPLIT	-1	n/a	n/a	n/a	n/a	n/a	n/a	n/a
1449.034	n/a	REC_WORD	724517	wordpools/wasnorm_wordpool.txt	LTP067	ltpFR	0	6	1	TOURIST	1488	n/a	1	n/a	n/a	n/a	n/a	n/a
1449.846	n/a	REC_WORD	724923	wordpools/wasnorm_wordpool.txt	LTP067	ltpFR	0	6	1	STRANGER	1389	n/a	1	n/a	n/a	n/a	n/a	n/a
1452.516	n/a	REC_WORD	726258	wordpools/wasnorm_wordpool.txt	LTP067	ltpFR	0	6	1	DOORBELL	487	n/a	0	n/a	n/a	n/a	n/a	n/a
1452.954	n/a	REC_WORD	726477	wordpools/wasnorm_wordpool.txt	LTP067	ltpFR	0	6	1	CATHEDRAL	260	n/a	0	n/a	n/a	n/a	n/a	n/a
1453.794	n/a	REC_WORD	726897	wordpools/wasnorm_wordpool.txt	LTP067	ltpFR	0	6	1	TERMITE	1451	n/a	1	n/a	n/a	n/a	n/a	n/a
1454.972	n/a	REC_WORD	727486	wordpools/wasnorm_wordpool.txt	LTP067	ltpFR	0	6	1	PRODUCER	1129	n/a	1	n/a	n/a	n/a	n/a	n/a
1455.558	n/a	REC_WORD	727779	wordpools/wasnorm_wordpool.txt	LTP067	ltpFR	0	6	1	ACTRESS	6	n/a	1	n/a	n/a	n/a	n/a	n/a
1457.658	n/a	REC_WORD	728829	wordpools/wasnorm_wordpool.txt	LTP067	ltpFR	0	6	1	BARK	87	n/a	0	n/a	n/a	n/a	n/a	n/a
1468.778	n/a	REC_WORD	734389	wordpools/wasnorm_wordpool.txt	LTP067	ltpFR	0	6	1	SKILLET	1317	n/a	0	n/a	n/a	n/a	n/a	n/a
1469.372	n/a	REC_WORD	734686	wordpools/wasnorm_wordpool.txt	LTP067	ltpFR	0	6	1	SQUIRREL	1362	n/a	1	n/a	n/a	n/a	n/a	n/a
1472.864	n/a	REC_WORD	736432	wordpools/wasnorm_wordpool.txt	LTP067	ltpFR	0	6	1	DETECTIVE	454	n/a	1	n/a	n/a	n/a	n/a	n/a
1497.644	n/a	REC_WORD	748822	wordpools/wasnorm_wordpool.txt	LTP067	ltpFR	0	6	1	STRANGER	1389	n/a	1	n/a	n/a	n/a	n/a	n/a
1523.288	n/a	WORD	761644	wordpools/wasnorm_wordpool.txt	LTP067	ltpFR	0	7	1	PERSONNEL	1053	n/a	0	1	0.412841796875	0.57763671875	lower	../fonts/amplitud.ttf
1527.174	n/a	WORD	763587	wordpools/wasnorm_wordpool.txt	LTP067	ltpFR	0	7	1	DICTATOR	462	n/a	1	1	0.412841796875	0.57763671875	lower	../fonts/amplitud.ttf
1531.118	n/a	WORD	765559	wordpools/wasnorm_wordpool.txt	LTP067	ltpFR	0	7	1	DONKEY	484	n/a	1	1	0.412841796875	0.57763671875	lower	../fonts/amplitud.ttf
1535.064	n/a	WORD	767532	wordpools/wasnorm_wordpool.txt	LTP067	ltpFR	0	7	1	BUGGY	188	n/a	0	1	0.412841796875	0.57763671875	lower	../fonts/amplitud.ttf
1539.01	n/a	WORD	769505	wordpools/wasnorm_wordpool.txt	LTP067	ltpFR	0	7	1	CROWN	415	n/a	0	1	0.412841796875	0.57763671875	lower	../fonts/amplitud.ttf
1543.164	n/a	WORD	771582	wordpools/wasnorm_wordpool.txt	LTP067	ltpFR	0	7	1	CELERY	266	n/a	0	1	0.412841796875	0.57763671875	lower	../fonts/amplitud.ttf
1547.058	n/a	WORD	773529	wordpools/wasnorm_wordpool.txt	LTP067	ltpFR	0	7	1	CARROT	249	n/a	0	1	0.412841796875	0.57763671875	lower	../fonts/amplitud.ttf
1551.196	n/a	WORD	775598	wordpools/wasnorm_wordpool.txt	LTP067	ltpFR	0	7	1	WALRUS	1585	n/a	1	1	0.412841796875	0.57763671875	lower	../fonts/amplitud.ttf
1555.2	n/a	WORD	777600	wordpools/wasnorm_wordpool.txt	LTP067	ltpFR	0	7	1	SYRUP	1425	n/a	0	1	0.412841796875	0.57763671875	lower	../fonts/amplitud.ttf
1559.262	n/a	WORD	779631	wordpools/wasnorm_wordpool.txt	LTP067	ltpFR	0	7	1	VICTOR	1563	n/a	1	1	0.412841796875	0.57763671875	lower	../fonts/amplitud.ttf
1563.35	n/a	WORD	781675	wordpools/wasnorm_wordpool.txt	LTP067	ltpFR	0	7	1	OTTER	986	n/a	1	1	0.412841796875	0.57763671875	lower	../fonts/amplitud.ttf
1567.512	n/a	WORD	783756	wordpools/wasnorm_wordpool.txt	LTP067	ltpFR	0	7	1	REEF	1177	n/a	0	1	0.412841796875	0.57763671875	lower	../fonts/amplitud.ttf
1571.574	n/a	WORD	785787	wordpools/wasnorm_wordpool.txt	LTP067	ltpFR	0	7	1	CANDIDATE	228	n/a	1	1	0.412841796875	0.57763671875	lower	../fonts/amplitud.ttf
1575.386	n/a	WORD	787693	wordpools/wasnorm_wordpool.txt	LTP067	ltpFR	0	7	1	LUNCH	849	n/a	0	1	0.412841796875	0.57763671875	lower	../fonts/amplitud.ttf
1579.398	n/a	WORD	789699	wordpools/wasnorm_wordpool.txt	LTP067	ltpFR	0	7	1	JOURNAL	760	n/a	0	1	0.412841796875	0.57763671875	lower	../fonts/amplitud.ttf
1583.234	n/a	WORD	791617	wordpools/wasnorm_wordpool.txt	LTP067	ltpFR	0	7	1	ENCYCLOPEDIA	533	n/a	0	1	0.412841796875	0.57763671875	lower	../fonts/amplitud.ttf
1589.178	n/a	REC_START	794589	n/a	LTP067	ltpFR	0	7	n/a	n/a	n/a	n/a	n/a	n/a	n/a	n/a	n/a	n/a
1589.506	n/a	REC_WORD	794753	wordpools/wasnorm_wordpool.txt	LTP067	ltpFR	0	7	1	ENCYCLOPEDIA	533	n/a	0	n/a	n/a	n/a	n/a	n/a
1590.504	n/a	REC_WORD	795252	wordpools/wasnorm_wordpool.txt	LTP067	ltpFR	0	7	1	CANDIDATE	228	n/a	1	n/a	n/a	n/a	n/a	n/a
1591.118	n/a	REC_WORD	795559	wordpools/wasnorm_wordpool.txt	LTP067	ltpFR	0	7	1	JOURNAL	760	n/a	0	n/a	n/a	n/a	n/a	n/a
1593.538	n/a	REC_WORD	796769	wordpools/wasnorm_wordpool.txt	LTP067	ltpFR	0	7	1	WALRUS	1585	n/a	1	n/a	n/a	n/a	n/a	n/a
1594.132	n/a	REC_WORD	797066	wordpools/wasnorm_wordpool.txt	LTP067	ltpFR	0	7	1	SYRUP	1425	n/a	0	n/a	n/a	n/a	n/a	n/a
1595.742	n/a	REC_WORD	797871	wordpools/wasnorm_wordpool.txt	LTP067	ltpFR	0	7	1	CARROT	249	n/a	0	n/a	n/a	n/a	n/a	n/a
1596.376	n/a	REC_WORD	798188	wordpools/wasnorm_wordpool.txt	LTP067	ltpFR	0	7	1	CELERY	266	n/a	0	n/a	n/a	n/a	n/a	n/a
1600.66	n/a	REC_WORD	800330	wordpools/wasnorm_wordpool.txt	LTP067	ltpFR	0	7	1	DICTATOR	462	n/a	1	n/a	n/a	n/a	n/a	n/a
1601.27	n/a	REC_WORD	800635	wordpools/wasnorm_wordpool.txt	LTP067	ltpFR	0	7	1	VICTOR	1563	n/a	1	n/a	n/a	n/a	n/a	n/a
1602.552	n/a	REC_WORD	801276	wordpools/wasnorm_wordpool.txt	LTP067	ltpFR	0	7	1	PERSONNEL	1053	n/a	0	n/a	n/a	n/a	n/a	n/a
1605.934	n/a	REC_WORD	802967	wordpools/wasnorm_wordpool.txt	LTP067	ltpFR	0	7	1	CROWN	415	n/a	0	n/a	n/a	n/a	n/a	n/a
1607.726	n/a	REC_WORD	803863	wordpools/wasnorm_wordpool.txt	LTP067	ltpFR	0	7	1	DONKEY	484	n/a	1	n/a	n/a	n/a	n/a	n/a
1608.304	n/a	REC_WORD	804152	wordpools/wasnorm_wordpool.txt	LTP067	ltpFR	0	7	1	BUGGY	188	n/a	0	n/a	n/a	n/a	n/a	n/a
1614.544	n/a	REC_WORD	807272	wordpools/wasnorm_wordpool.txt	LTP067	ltpFR	0	7	1	REEF	1177	n/a	0	n/a	n/a	n/a	n/a	n/a
1670.042	n/a	WORD	835021	wordpools/wasnorm_wordpool.txt	LTP067	ltpFR	0	8	1	POOL	1103	n/a	0	1	0.412841796875	0.57763671875	lower	../fonts/amplitud.ttf
1674.162	n/a	WORD	837081	wordpools/wasnorm_wordpool.txt	LTP067	ltpFR	0	8	1	WOLF	1619	n/a	1	1	0.412841796875	0.57763671875	lower	../fonts/amplitud.ttf
1678.158	n/a	WORD	839079	wordpools/wasnorm_wordpool.txt	LTP067	ltpFR	0	8	1	OWL	992	n/a	1	1	0.412841796875	0.57763671875	lower	../fonts/amplitud.ttf
1682.32	n/a	WORD	841160	wordpools/wasnorm_wordpool.txt	LTP067	ltpFR	0	8	1	POSSUM	1112	n/a	1	1	0.412841796875	0.57763671875	lower	../fonts/amplitud.ttf
1686.264	n/a	WORD	843132	wordpools/wasnorm_wordpool.txt	LTP067	ltpFR	0	8	1	PEACH	1031	n/a	1	1	0.412841796875	0.57763671875	lower	../fonts/amplitud.ttf
1690.36	n/a	WORD	845180	wordpools/wasnorm_wordpool.txt	LTP067	ltpFR	0	8	1	VET	1560	n/a	1	1	0.412841796875	0.57763671875	lower	../fonts/amplitud.ttf
1694.23	n/a	WORD	847115	wordpools/wasnorm_wordpool.txt	LTP067	ltpFR	0	8	1	TURKEY	1520	n/a	1	1	0.412841796875	0.57763671875	lower	../fonts/amplitud.ttf
1698.142	n/a	WORD	849071	wordpools/wasnorm_wordpool.txt	LTP067	ltpFR	0	8	1	SKIN	1318	n/a	1	1	0.412841796875	0.57763671875	lower	../fonts/amplitud.ttf
1702.246	n/a	WORD	851123	wordpools/wasnorm_wordpool.txt	LTP067	ltpFR	0	8	1	PLAZA	1088	n/a	0	1	0.412841796875	0.57763671875	lower	../fonts/amplitud.ttf
1706.4	n/a	WORD	853200	wordpools/wasnorm_wordpool.txt	LTP067	ltpFR	0	8	1	MARINE	869	n/a	1	1	0.412841796875	0.57763671875	lower	../fonts/amplitud.ttf
1710.386	n/a	WORD	855193	wordpools/wasnorm_wordpool.txt	LTP067	ltpFR	0	8	1	RAFT	1159	n/a	0	1	0.412841796875	0.57763671875	lower	../fonts/amplitud.ttf
1714.24	n/a	WORD	857120	wordpools/wasnorm_wordpool.txt	LTP067	ltpFR	0	8	1	TIDE	1465	n/a	0	1	0.412841796875	0.57763671875	lower	../fonts/amplitud.ttf
1718.12	n/a	WORD	859060	wordpools/wasnorm_wordpool.txt	LTP067	ltpFR	0	8	1	MALL	860	n/a	0	1	0.412841796875	0.57763671875	lower	../fonts/amplitud.ttf
1722.232	n/a	WORD	861116	wordpools/wasnorm_wordpool.txt	LTP067	ltpFR	0	8	1	DEPARTMENT	449	n/a	0	1	0.412841796875	0.57763671875	lower	../fonts/amplitud.ttf
1726.202	n/a	WORD	863101	wordpools/wasnorm_wordpool.txt	LTP067	ltpFR	0	8	1	GLOBE	641	n/a	0	1	0.412841796875	0.57763671875	lower	../fonts/amplitud.ttf
1730.188	n/a	WORD	865094	wordpools/wasnorm_wordpool.txt	LTP067	ltpFR	0	8	1	DILL	465	n/a	0	1	0.412841796875	0.57763671875	lower	../fonts/amplitud.ttf
1736.124	n/a	REC_START	868062	n/a	LTP067	ltpFR	0	8	n/a	n/a	n/a	n/a	n/a	n/a	n/a	n/a	n/a	n/a
1736.342	n/a	REC_WORD	868171	wordpools/wasnorm_wordpool.txt	LTP067	ltpFR	0	8	1	GLOBE	641	n/a	0	n/a	n/a	n/a	n/a	n/a
1736.778	n/a	REC_WORD	868389	wordpools/wasnorm_wordpool.txt	LTP067	ltpFR	0	8	n/a	STORE	1387	n/a	n/a	n/a	n/a	n/a	n/a	n/a
1737.506	n/a	REC_WORD	868753	wordpools/wasnorm_wordpool.txt	LTP067	ltpFR	0	8	1	DEPARTMENT	449	n/a	0	n/a	n/a	n/a	n/a	n/a
1738.156	n/a	REC_WORD	869078	wordpools/wasnorm_wordpool.txt	LTP067	ltpFR	0	8	1	PLAZA	1088	n/a	0	n/a	n/a	n/a	n/a	n/a
1738.774	n/a	REC_WORD	869387	wordpools/wasnorm_wordpool.txt	LTP067	ltpFR	0	8	1	MARINE	869	n/a	1	n/a	n/a	n/a	n/a	n/a
1743.646	n/a	REC_WORD	871823	wordpools/wasnorm_wordpool.txt	LTP067	ltpFR	0	8	1	VET	1560	n/a	1	n/a	n/a	n/a	n/a	n/a
1744.904	n/a	REC_WORD	872452	wordpools/wasnorm_wordpool.txt	LTP067	ltpFR	0	8	1	PEACH	1031	n/a	1	n/a	n/a	n/a	n/a	n/a
1746.99	n/a	REC_WORD	873495	wordpools/wasnorm_wordpool.txt	LTP067	ltpFR	0	8	1	POSSUM	1112	n/a	1	n/a	n/a	n/a	n/a	n/a
1747.628	n/a	REC_WORD	873814	wordpools/wasnorm_wordpool.txt	LTP067	ltpFR	0	8	1	OWL	992	n/a	1	n/a	n/a	n/a	n/a	n/a
1748.886	n/a	REC_WORD	874443	wordpools/wasnorm_wordpool.txt	LTP067	ltpFR	0	8	1	WOLF	1619	n/a	1	n/a	n/a	n/a	n/a	n/a
1749.314	n/a	REC_WORD	874657	wordpools/wasnorm_wordpool.txt	LTP067	ltpFR	0	8	1	POOL	1103	n/a	0	n/a	n/a	n/a	n/a	n/a
1756.138	n/a	REC_WORD	878069	wordpools/wasnorm_wordpool.txt	LTP067	ltpFR	0	8	1	PEACH	1031	n/a	1	n/a	n/a	n/a	n/a	n/a
1757.614	n/a	REC_WORD_VV	878807	wordpools/wasnorm_wordpool.txt	LTP067	ltpFR	0	8	n/a	<>	-1	n/a	n/a	n/a	n/a	n/a	n/a	n/a
1757.81	n/a	REC_WORD	878905	wordpools/wasnorm_wordpool.txt	LTP067	ltpFR	0	8	1	RAFT	1159	n/a	0	n/a	n/a	n/a	n/a	n/a
1770.312	n/a	REC_WORD	885156	wordpools/wasnorm_wordpool.txt	LTP067	ltpFR	0	8	1	TIDE	1465	n/a	0	n/a	n/a	n/a	n/a	n/a
1779.606	n/a	REC_WORD	889803	wordpools/wasnorm_wordpool.txt	LTP067	ltpFR	0	8	n/a	CLOSED	-1	n/a	n/a	n/a	n/a	n/a	n/a	n/a
1820.126	n/a	WORD	910063	wordpools/wasnorm_wordpool.txt	LTP067	ltpFR	0	9	0	DESSERT	453	n/a	1	0	0.5869140625	0.422607421875	upper	../fonts/zerothre.ttf
1824.072	n/a	WORD	912036	wordpools/wasnorm_wordpool.txt	LTP067	ltpFR	0	9	0	MINT	898	n/a	0	0	0.5869140625	0.422607421875	upper	../fonts/zerothre.ttf
1828.2	n/a	WORD	914100	wordpools/wasnorm_wordpool.txt	LTP067	ltpFR	0	9	0	GOBLIN	645	n/a	1	0	0.5869140625	0.422607421875	upper	../fonts/zerothre.ttf
1832.088	n/a	WORD	916044	wordpools/wasnorm_wordpool.txt	LTP067	ltpFR	0	9	0	FOREHEAD	592	n/a	0	0	0.5869140625	0.422607421875	upper	../fonts/zerothre.ttf
1836.15	n/a	WORD	918075	wordpools/wasnorm_wordpool.txt	LTP067	ltpFR	0	9	0	ERASER	538	n/a	0	0	0.5869140625	0.422607421875	upper	../fonts/zerothre.ttf
1840.02	n/a	WORD	920010	wordpools/wasnorm_wordpool.txt	LTP067	ltpFR	0	9	0	WALL	1582	n/a	1	0	0.5869140625	0.422607421875	upper	../fonts/zerothre.ttf
1844.156	n/a	WORD	922078	wordpools/wasnorm_wordpool.txt	LTP067	ltpFR	0	9	0	MASK	876	n/a	1	0	0.5869140625	0.422607421875	upper	../fonts/zerothre.ttf
1848.244	n/a	WORD	924122	wordpools/wasnorm_wordpool.txt	LTP067	ltpFR	0	9	0	EWE	542	n/a	1	0	0.5869140625	0.422607421875	upper	../fonts/zerothre.ttf
1852.172	n/a	WORD	926086	wordpools/wasnorm_wordpool.txt	LTP067	ltpFR	0	9	0	CHALK	276	n/a	0	0	0.5869140625	0.422607421875	upper	../fonts/zerothre.ttf
1856.334	n/a	WORD	928167	wordpools/wasnorm_wordpool.txt	LTP067	ltpFR	0	9	0	BURGLAR	200	n/a	1	0	0.5869140625	0.422607421875	upper	../fonts/zerothre.ttf
1860.414	n/a	WORD	930207	wordpools/wasnorm_wordpool.txt	LTP067	ltpFR	0	9	0	FUGITIVE	612	n/a	1	0	0.5869140625	0.422607421875	upper	../fonts/zerothre.ttf
1864.284	n/a	WORD	932142	wordpools/wasnorm_wordpool.txt	LTP067	ltpFR	0	9	0	DRINK	498	n/a	0	0	0.5869140625	0.422607421875	upper	../fonts/zerothre.ttf
1868.104	n/a	WORD	934052	wordpools/wasnorm_wordpool.txt	LTP067	ltpFR	0	9	0	CHAMPAGNE	278	n/a	1	0	0.5869140625	0.422607421875	upper	../fonts/zerothre.ttf
1872.224	n/a	WORD	936112	wordpools/wasnorm_wordpool.txt	LTP067	ltpFR	0	9	0	TYPEWRITER	1531	n/a	1	0	0.5869140625	0.422607421875	upper	../fonts/zerothre.ttf
1876.27	n/a	WORD	938135	wordpools/wasnorm_wordpool.txt	LTP067	ltpFR	0	9	0	HAMBURGER	679	n/a	1	0	0.5869140625	0.422607421875	upper	../fonts/zerothre.ttf
1880.3	n/a	WORD	940150	wordpools/wasnorm_wordpool.txt	LTP067	ltpFR	0	9	0	SPARROW	1347	n/a	0	0	0.5869140625	0.422607421875	upper	../fonts/zerothre.ttf
1886.318	n/a	REC_START	943159	n/a	LTP067	ltpFR	0	9	n/a	n/a	n/a	n/a	n/a	n/a	n/a	n/a	n/a	n/a
1889.324	n/a	REC_WORD	944662	wordpools/wasnorm_wordpool.txt	LTP067	ltpFR	0	9	0	HAMBURGER	679	n/a	1	n/a	n/a	n/a	n/a	n/a
1891.712	n/a	REC_WORD	945856	wordpools/wasnorm_wordpool.txt	LTP067	ltpFR	0	9	0	DESSERT	453	n/a	1	n/a	n/a	n/a	n/a	n/a
1893.896	n/a	REC_WORD	946948	wordpools/wasnorm_wordpool.txt	LTP067	ltpFR	0	9	0	GOBLIN	645	n/a	1	n/a	n/a	n/a	n/a	n/a
1895.82	n/a	REC_WORD	947910	wordpools/wasnorm_wordpool.txt	LTP067	ltpFR	0	9	0	MINT	898	n/a	0	n/a	n/a	n/a	n/a	n/a
1900.332	n/a	REC_WORD	950166	wordpools/wasnorm_wordpool.txt	LTP067	ltpFR	0	9	0	ERASER	538	n/a	0	n/a	n/a	n/a	n/a	n/a
1902.566	n/a	REC_WORD	951283	wordpools/wasnorm_wordpool.txt	LTP067	ltpFR	0	9	n/a	TRUCK	1512	n/a	n/a	n/a	n/a	n/a	n/a	n/a
1904.496	n/a	REC_WORD	952248	wordpools/wasnorm_wordpool.txt	LTP067	ltpFR	0	9	0	BURGLAR	200	n/a	1	n/a	n/a	n/a	n/a	n/a
1910.104	n/a	REC_WORD	955052	wordpools/wasnorm_wordpool.txt	LTP067	ltpFR	0	9	0	FOREHEAD	592	n/a	0	n/a	n/a	n/a	n/a	n/a
1914.874	n/a	REC_WORD	957437	wordpools/wasnorm_wordpool.txt	LTP067	ltpFR	0	9	0	CHAMPAGNE	278	n/a	1	n/a	n/a	n/a	n/a	n/a
1915.782	n/a	REC_WORD	957891	wordpools/wasnorm_wordpool.txt	LTP067	ltpFR	0	9	0	DRINK	498	n/a	0	n/a	n/a	n/a	n/a	n/a
1920.574	n/a	REC_WORD	960287	wordpools/wasnorm_wordpool.txt	LTP067	ltpFR	0	9	0	EWE	542	n/a	1	n/a	n/a	n/a	n/a	n/a
1937.134	n/a	REC_WORD	968567	wordpools/wasnorm_wordpool.txt	LTP067	ltpFR	0	9	0	TYPEWRITER	1531	n/a	1	n/a	n/a	n/a	n/a	n/a
1965.068	n/a	WORD	982534	wordpools/wasnorm_wordpool.txt	LTP067	ltpFR	0	10	0	CORAL	378	n/a	1	0	0.5869140625	0.422607421875	upper	../fonts/zerothre.ttf
1969.12	n/a	WORD	984560	wordpools/wasnorm_wordpool.txt	LTP067	ltpFR	0	10	0	PRINTER	1126	n/a	n/a	0	0.5869140625	0.422607421875	upper	../fonts/zerothre.ttf
1972.142	n/a	SLOW_MSG	986071	n/a	LTP067	ltpFR	0	10	n/a	n/a	n/a	n/a	n/a	n/a	n/a	n/a	n/a	n/a
1974.508	n/a	WORD	987254	wordpools/wasnorm_wordpool.txt	LTP067	ltpFR	0	10	0	DINER	467	n/a	1	0	0.5869140625	0.422607421875	upper	../fonts/zerothre.ttf
1978.486	n/a	WORD	989243	wordpools/wasnorm_wordpool.txt	LTP067	ltpFR	0	10	0	SALAD	1224	n/a	1	0	0.5869140625	0.422607421875	upper	../fonts/zerothre.ttf
1982.482	n/a	WORD	991241	wordpools/wasnorm_wordpool.txt	LTP067	ltpFR	0	10	0	BEET	115	n/a	0	0	0.5869140625	0.422607421875	upper	../fonts/zerothre.ttf
1986.444	n/a	WORD	993222	wordpools/wasnorm_wordpool.txt	LTP067	ltpFR	0	10	0	CANVAS	234	n/a	0	0	0.5869140625	0.422607421875	upper	../fonts/zerothre.ttf
1990.346	n/a	WORD	995173	wordpools/wasnorm_wordpool.txt	LTP067	ltpFR	0	10	0	FRIES	607	n/a	0	0	0.5869140625	0.422607421875	upper	../fonts/zerothre.ttf
1994.534	n/a	WORD	997267	wordpools/wasnorm_wordpool.txt	LTP067	ltpFR	0	10	0	SHOWER	1296	n/a	1	0	0.5869140625	0.422607421875	upper	../fonts/zerothre.ttf
1998.512	n/a	WORD	999256	wordpools/wasnorm_wordpool.txt	LTP067	ltpFR	0	10	0	STRING	1394	n/a	0	0	0.5869140625	0.422607421875	upper	../fonts/zerothre.ttf
2002.608	n/a	WORD	1001304	wordpools/wasnorm_wordpool.txt	LTP067	ltpFR	0	10	0	CITRUS	313	n/a	0	0	0.5869140625	0.422607421875	upper	../fonts/zerothre.ttf
2006.744	n/a	WORD	1003372	wordpools/wasnorm_wordpool.txt	LTP067	ltpFR	0	10	0	DRAWING	494	n/a	0	0	0.5869140625	0.422607421875	upper	../fonts/zerothre.ttf
2010.906	n/a	WORD	1005453	wordpools/wasnorm_wordpool.txt	LTP067	ltpFR	0	10	0	SEA	1259	n/a	1	0	0.5869140625	0.422607421875	upper	../fonts/zerothre.ttf
2014.744	n/a	WORD	1007372	wordpools/wasnorm_wordpool.txt	LTP067	ltpFR	0	10	0	BANJO	82	n/a	1	0	0.5869140625	0.422607421875	upper	../fonts/zerothre.ttf
2018.822	n/a	WORD	1009411	wordpools/wasnorm_wordpool.txt	LTP067	ltpFR	0	10	0	FLUTE	585	n/a	1	0	0.5869140625	0.422607421875	upper	../fonts/zerothre.ttf
2022.876	n/a	WORD	1011438	wordpools/wasnorm_wordpool.txt	LTP067	ltpFR	0	10	0	VEAL	1551	n/a	0	0	0.5869140625	0.422607421875	upper	../fonts/zerothre.ttf
2026.712	n/a	WORD	1013356	wordpools/wasnorm_wordpool.txt	LTP067	ltpFR	0	10	0	MEADOW	881	n/a	1	0	0.5869140625	0.422607421875	upper	../fonts/zerothre.ttf
2032.34	n/a	REC_START	1016170	n/a	LTP067	ltpFR	0	10	n/a	n/a	n/a	n/a	n/a	n/a	n/a	n/a	n/a	n/a
2032.704	n/a	REC_WORD	1016352	wordpools/wasnorm_wordpool.txt	LTP067	ltpFR	0	10	0	MEADOW	881	n/a	1	n/a	n/a	n/a	n/a	n/a
2033.248	n/a	REC_WORD	1016624	wordpools/wasnorm_wordpool.txt	LTP067	ltpFR	0	10	0	SEA	1259	n/a	1	n/a	n/a	n/a	n/a	n/a
2034.026	n/a	REC_WORD	1017013	wordpools/wasnorm_wordpool.txt	LTP067	ltpFR	0	10	0	CORAL	378	n/a	1	n/a	n/a	n/a	n/a	n/a
2034.656	n/a	REC_WORD	1017328	wordpools/wasnorm_wordpool.txt	LTP067	ltpFR	0	10	0	VEAL	1551	n/a	0	n/a	n/a	n/a	n/a	n/a
2038.232	n/a	REC_WORD	1019116	wordpools/wasnorm_wordpool.txt	LTP067	ltpFR	0	10	0	STRING	1394	n/a	0	n/a	n/a	n/a	n/a	n/a
2038.916	n/a	REC_WORD	1019458	wordpools/wasnorm_wordpool.txt	LTP067	ltpFR	0	10	0	CITRUS	313	n/a	0	n/a	n/a	n/a	n/a	n/a
2041.684	n/a	REC_WORD	1020842	wordpools/wasnorm_wordpool.txt	LTP067	ltpFR	0	10	0	DRAWING	494	n/a	0	n/a	n/a	n/a	n/a	n/a
2047.586	n/a	REC_WORD	1023793	wordpools/wasnorm_wordpool.txt	LTP067	ltpFR	0	10	0	FLUTE	585	n/a	1	n/a	n/a	n/a	n/a	n/a
2048.134	n/a	REC_WORD	1024067	wordpools/wasnorm_wordpool.txt	LTP067	ltpFR	0	10	0	BANJO	82	n/a	1	n/a	n/a	n/a	n/a	n/a
2049.462	n/a	REC_WORD	1024731	wordpools/wasnorm_wordpool.txt	LTP067	ltpFR	0	10	0	SEA	1259	n/a	1	n/a	n/a	n/a	n/a	n/a
2049.846	n/a	REC_WORD	1024923	wordpools/wasnorm_wordpool.txt	LTP067	ltpFR	0	10	0	MEADOW	881	n/a	1	n/a	n/a	n/a	n/a	n/a
2088.498	n/a	REC_WORD	1044249	wordpools/wasnorm_wordpool.txt	LTP067	ltpFR	0	10	0	FRIES	607	n/a	0	n/a	n/a	n/a	n/a	n/a
2114.378	n/a	WORD	1057189	wordpools/wasnorm_wordpool.txt	LTP067	ltpFR	0	11	0	SOAP	1337	n/a	0	0	0.5869140625	0.422607421875	upper	../fonts/zerothre.ttf
2118.582	n/a	WORD	1059291	wordpools/wasnorm_wordpool.txt	LTP067	ltpFR	0	11	0	KNIFE	785	n/a	0	0	0.5869140625	0.422607421875	upper	../fonts/zerothre.ttf
2122.502	n/a	WORD	1061251	wordpools/wasnorm_wordpool.txt	LTP067	ltpFR	0	11	0	TYPIST	1532	n/a	1	0	0.5869140625	0.422607421875	upper	../fonts/zerothre.ttf
2126.706	n/a	WORD	1063353	wordpools/wasnorm_wordpool.txt	LTP067	ltpFR	0	11	0	CHEERLEADER	288	n/a	1	0	0.5869140625	0.422607421875	upper	../fonts/zerothre.ttf
2130.892	n/a	WORD	1065446	wordpools/wasnorm_wordpool.txt	LTP067	ltpFR	0	11	0	BUTCHER	203	n/a	1	0	0.5869140625	0.422607421875	upper	../fonts/zerothre.ttf
2134.864	n/a	WORD	1067432	wordpools/wasnorm_wordpool.txt	LTP067	ltpFR	0	11	0	PENGUIN	1044	n/a	1	0	0.5869140625	0.422607421875	upper	../fonts/zerothre.ttf
2138.892	n/a	WORD	1069446	wordpools/wasnorm_wordpool.txt	LTP067	ltpFR	0	11	0	NEST	945	n/a	0	0	0.5869140625	0.422607421875	upper	../fonts/zerothre.ttf
2142.912	n/a	WORD	1071456	wordpools/wasnorm_wordpool.txt	LTP067	ltpFR	0	11	0	FOOTBALL	591	n/a	1	0	0.5869140625	0.422607421875	upper	../fonts/zerothre.ttf
2146.824	n/a	WORD	1073412	wordpools/wasnorm_wordpool.txt	LTP067	ltpFR	0	11	0	SILVERWARE	1308	n/a	0	0	0.5869140625	0.422607421875	upper	../fonts/zerothre.ttf
2150.986	n/a	WORD	1075493	wordpools/wasnorm_wordpool.txt	LTP067	ltpFR	0	11	0	WAITRESS	1581	n/a	1	0	0.5869140625	0.422607421875	upper	../fonts/zerothre.ttf
2155.106	n/a	WORD	1077553	wordpools/wasnorm_wordpool.txt	LTP067	ltpFR	0	11	0	SPONGE	1355	n/a	0	0	0.5869140625	0.422607421875	upper	../fonts/zerothre.ttf
2159.142	n/a	WORD	1079571	wordpools/wasnorm_wordpool.txt	LTP067	ltpFR	0	11	0	SUITCASE	1403	n/a	1	0	0.5869140625	0.422607421875	upper	../fonts/zerothre.ttf
2163.296	n/a	WORD	1081648	wordpools/wasnorm_wordpool.txt	LTP067	ltpFR	0	11	0	LEADER	807	n/a	1	0	0.5869140625	0.422607421875	upper	../fonts/zerothre.ttf
2167.216	n/a	WORD	1083608	wordpools/wasnorm_wordpool.txt	LTP067	ltpFR	0	11	0	LETTUCE	814	n/a	0	0	0.5869140625	0.422607421875	upper	../fonts/zerothre.ttf
2171.03	n/a	WORD	1085515	wordpools/wasnorm_wordpool.txt	LTP067	ltpFR	0	11	0	BED	110	n/a	1	0	0.5869140625	0.422607421875	upper	../fonts/zerothre.ttf
2175.098	n/a	WORD	1087549	wordpools/wasnorm_wordpool.txt	LTP067	ltpFR	0	11	0	QUILT	1151	n/a	1	0	0.5869140625	0.422607421875	upper	../fonts/zerothre.ttf
2180.944	n/a	REC_START	1090472	n/a	LTP067	ltpFR	0	11	n/a	n/a	n/a	n/a	n/a	n/a	n/a	n/a	n/a	n/a
2181.242	n/a	REC_WORD	1090621	wordpools/wasnorm_wordpool.txt	LTP067	ltpFR	0	11	0	BED	110	n/a	1	n/a	n/a	n/a	n/a	n/a
2181.676	n/a	REC_WORD	1090838	wordpools/wasnorm_wordpool.txt	LTP067	ltpFR	0	11	0	QUILT	1151	n/a	1	n/a	n/a	n/a	n/a	n/a
2182.126	n/a	REC_WORD	1091063	wordpools/wasnorm_wordpool.txt	LTP067	ltpFR	0	11	0	LETTUCE	814	n/a	0	n/a	n/a	n/a	n/a	n/a
2183.578	n/a	REC_WORD	1091789	wordpools/wasnorm_wordpool.txt	LTP067	ltpFR	0	11	0	LEADER	807	n/a	1	n/a	n/a	n/a	n/a	n/a
2184.456	n/a	REC_WORD	1092228	wordpools/wasnorm_wordpool.txt	LTP067	ltpFR	0	11	0	WAITRESS	1581	n/a	1	n/a	n/a	n/a	n/a	n/a
2185.764	n/a	REC_WORD	1092882	wordpools/wasnorm_wordpool.txt	LTP067	ltpFR	0	11	0	SUITCASE	1403	n/a	1	n/a	n/a	n/a	n/a	n/a
2189.888	n/a	REC_WORD	1094944	wordpools/wasnorm_wordpool.txt	LTP067	ltpFR	0	11	0	CHEERLEADER	288	n/a	1	n/a	n/a	n/a	n/a	n/a
2190.562	n/a	REC_WORD	1095281	wordpools/wasnorm_wordpool.txt	LTP067	ltpFR	0	11	0	BUTCHER	203	n/a	1	n/a	n/a	n/a	n/a	n/a
2198.978	n/a	REC_WORD	1099489	wordpools/wasnorm_wordpool.txt	LTP067	ltpFR	0	11	0	KNIFE	785	n/a	0	n/a	n/a	n/a	n/a	n/a
2199.232	n/a	REC_WORD	1099616	wordpools/wasnorm_wordpool.txt	LTP067	ltpFR	0	11	0	SOAP	1337	n/a	0	n/a	n/a	n/a	n/a	n/a
2200.74	n/a	REC_WORD	1100370	wordpools/wasnorm_wordpool.txt	LTP067	ltpFR	0	11	0	TYPIST	1532	n/a	1	n/a	n/a	n/a	n/a	n/a
2208.426	n/a	REC_WORD	1104213	wordpools/wasnorm_wordpool.txt	LTP067	ltpFR	0	11	0	PENGUIN	1044	n/a	1	n/a	n/a	n/a	n/a	n/a
2233.064	n/a	REC_WORD	1116532	wordpools/wasnorm_wordpool.txt	LTP067	ltpFR	0	11	0	SPONGE	1355	n/a	0	n/a	n/a	n/a	n/a	n/a
2264.446	n/a	WORD	1132223	wordpools/wasnorm_wordpool.txt	LTP067	ltpFR	0	12	0	PELT	1040	n/a	1	0	0.5869140625	0.422607421875	upper	../fonts/zerothre.ttf
2268.458	n/a	WORD	1134229	wordpools/wasnorm_wordpool.txt	LTP067	ltpFR	0	12	0	STABLE	1363	n/a	1	0	0.5869140625	0.422607421875	upper	../fonts/zerothre.ttf
2272.462	n/a	WORD	1136231	wordpools/wasnorm_wordpool.txt	LTP067	ltpFR	0	12	0	POCKET	1093	n/a	0	0	0.5869140625	0.422607421875	upper	../fonts/zerothre.ttf
2276.608	n/a	WORD	1138304	wordpools/wasnorm_wordpool.txt	LTP067	ltpFR	0	12	0	VELVET	1555	n/a	1	0	0.5869140625	0.422607421875	upper	../fonts/zerothre.ttf
2280.586	n/a	WORD	1140293	wordpools/wasnorm_wordpool.txt	LTP067	ltpFR	0	12	0	SANDPAPER	1231	n/a	0	0	0.5869140625	0.422607421875	upper	../fonts/zerothre.ttf
2284.74	n/a	WORD	1142370	wordpools/wasnorm_wordpool.txt	LTP067	ltpFR	0	12	0	ARTICLE	42	n/a	0	0	0.5869140625	0.422607421875	upper	../fonts/zerothre.ttf
2288.81	n/a	WORD	1144405	wordpools/wasnorm_wordpool.txt	LTP067	ltpFR	0	12	0	KITCHEN	778	n/a	1	0	0.5869140625	0.422607421875	upper	../fonts/zerothre.ttf
2292.848	n/a	WORD	1146424	wordpools/wasnorm_wordpool.txt	LTP067	ltpFR	0	12	0	COB	334	n/a	1	0	0.5869140625	0.422607421875	upper	../fonts/zerothre.ttf
2297.008	n/a	WORD	1148504	wordpools/wasnorm_wordpool.txt	LTP067	ltpFR	0	12	0	TOASTER	1472	n/a	1	0	0.5869140625	0.422607421875	upper	../fonts/zerothre.ttf
2301.17	n/a	WORD	1150585	wordpools/wasnorm_wordpool.txt	LTP067	ltpFR	0	12	0	OATMEAL	967	n/a	0	0	0.5869140625	0.422607421875	upper	../fonts/zerothre.ttf
2305.164	n/a	WORD	1152582	wordpools/wasnorm_wordpool.txt	LTP067	ltpFR	0	12	0	COOK	372	n/a	1	0	0.5869140625	0.422607421875	upper	../fonts/zerothre.ttf
2309.028	n/a	WORD	1154514	wordpools/wasnorm_wordpool.txt	LTP067	ltpFR	0	12	0	MOAT	903	n/a	1	0	0.5869140625	0.422607421875	upper	../fonts/zerothre.ttf
2312.966	n/a	WORD	1156483	wordpools/wasnorm_wordpool.txt	LTP067	ltpFR	0	12	0	CREEK	404	n/a	1	0	0.5869140625	0.422607421875	upper	../fonts/zerothre.ttf
2316.968	n/a	WORD	1158484	wordpools/wasnorm_wordpool.txt	LTP067	ltpFR	0	12	0	JEANS	752	n/a	1	0	0.5869140625	0.422607421875	upper	../fonts/zerothre.ttf
2320.964	n/a	WORD	1160482	wordpools/wasnorm_wordpool.txt	LTP067	ltpFR	0	12	0	RACCOON	1153	n/a	1	0	0.5869140625	0.422607421875	upper	../fonts/zerothre.ttf
2325.1	n/a	WORD	1162550	wordpools/wasnorm_wordpool.txt	LTP067	ltpFR	0	12	0	EDITOR	516	n/a	1	0	0.5869140625	0.422607421875	upper	../fonts/zerothre.ttf
2330.762	n/a	REC_START	1165381	n/a	LTP067	ltpFR	0	12	n/a	n/a	n/a	n/a	n/a	n/a	n/a	n/a	n/a	n/a
2331.066	n/a	REC_WORD	1165533	wordpools/wasnorm_wordpool.txt	LTP067	ltpFR	0	12	0	EDITOR	516	n/a	1	n/a	n/a	n/a	n/a	n/a
2331.704	n/a	REC_WORD	1165852	wordpools/wasnorm_wordpool.txt	LTP067	ltpFR	0	12	0	RACCOON	1153	n/a	1	n/a	n/a	n/a	n/a	n/a
2332.402	n/a	REC_WORD	1166201	wordpools/wasnorm_wordpool.txt	LTP067	ltpFR	0	12	n/a	CREEP	-1	n/a	n/a	n/a	n/a	n/a	n/a	n/a
2333.166	n/a	REC_WORD	1166583	wordpools/wasnorm_wordpool.txt	LTP067	ltpFR	0	12	0	CREEK	404	n/a	1	n/a	n/a	n/a	n/a	n/a
2333.72	n/a	REC_WORD	1166860	wordpools/wasnorm_wordpool.txt	LTP067	ltpFR	0	12	0	JEANS	752	n/a	1	n/a	n/a	n/a	n/a	n/a
2337.706	n/a	REC_WORD	1168853	wordpools/wasnorm_wordpool.txt	LTP067	ltpFR	0	12	n/a	CHEF	290	n/a	n/a	n/a	n/a	n/a	n/a	n/a
2338.638	n/a	REC_WORD	1169319	wordpools/wasnorm_wordpool.txt	LTP067	ltpFR	0	12	0	COOK	372	n/a	1	n/a	n/a	n/a	n/a	n/a
2340.194	n/a	REC_WORD	1170097	wordpools/wasnorm_wordpool.txt	LTP067	ltpFR	0	12	0	KITCHEN	778	n/a	1	n/a	n/a	n/a	n/a	n/a
2340.984	n/a	REC_WORD	1170492	wordpools/wasnorm_wordpool.txt	LTP067	ltpFR	0	12	0	COB	334	n/a	1	n/a	n/a	n/a	n/a	n/a
2341.39	n/a	REC_WORD	1170695	wordpools/wasnorm_wordpool.txt	LTP067	ltpFR	0	12	0	TOASTER	1472	n/a	1	n/a	n/a	n/a	n/a	n/a
2341.89	n/a	REC_WORD	1170945	wordpools/wasnorm_wordpool.txt	LTP067	ltpFR	0	12	0	OATMEAL	967	n/a	0	n/a	n/a	n/a	n/a	n/a
2347.524	n/a	REC_WORD	1173762	wordpools/wasnorm_wordpool.txt	LTP067	ltpFR	0	12	0	VELVET	1555	n/a	1	n/a	n/a	n/a	n/a	n/a
2347.968	n/a	REC_WORD	1173984	wordpools/wasnorm_wordpool.txt	LTP067	ltpFR	0	12	0	POCKET	1093	n/a	0	n/a	n/a	n/a	n/a	n/a
2348.796	n/a	REC_WORD	1174398	wordpools/wasnorm_wordpool.txt	LTP067	ltpFR	0	12	0	SANDPAPER	1231	n/a	0	n/a	n/a	n/a	n/a	n/a
2349.49	n/a	REC_WORD	1174745	wordpools/wasnorm_wordpool.txt	LTP067	ltpFR	0	12	n/a	NOOSE	956	n/a	n/a	n/a	n/a	n/a	n/a	n/a
2351.38	n/a	REC_WORD	1175690	wordpools/wasnorm_wordpool.txt	LTP067	ltpFR	0	12	n/a	NEWSPAPER	948	n/a	n/a	n/a	n/a	n/a	n/a	n/a
2352.662	n/a	REC_WORD	1176331	wordpools/wasnorm_wordpool.txt	LTP067	ltpFR	0	12	0	ARTICLE	42	n/a	0	n/a	n/a	n/a	n/a	n/a
2371.498	n/a	REC_WORD	1185749	wordpools/wasnorm_wordpool.txt	LTP067	ltpFR	0	12	0	KITCHEN	778	n/a	1	n/a	n/a	n/a	n/a	n/a
2393.55	n/a	REC_WORD	1196775	wordpools/wasnorm_wordpool.txt	LTP067	ltpFR	0	12	0	PELT	1040	n/a	1	n/a	n/a	n/a	n/a	n/a
2399.9	n/a	REC_WORD	1199950	wordpools/wasnorm_wordpool.txt	LTP067	ltpFR	0	12	0	PELT	1040	n/a	1	n/a	n/a	n/a	n/a	n/a
2944.168	n/a	WORD	1472084	wordpools/wasnorm_wordpool.txt	LTP067	ltpFR	0	13	1	RIBBON	1189	n/a	0	1	0.412841796875	0.57763671875	lower	../fonts/amplitud.ttf
2948.33	n/a	WORD	1474165	wordpools/wasnorm_wordpool.txt	LTP067	ltpFR	0	13	1	TWINE	1529	n/a	0	1	0.412841796875	0.57763671875	lower	../fonts/amplitud.ttf
2952.4	n/a	WORD	1476200	wordpools/wasnorm_wordpool.txt	LTP067	ltpFR	0	13	1	HIKER	708	n/a	1	1	0.412841796875	0.57763671875	lower	../fonts/amplitud.ttf
2956.538	n/a	WORD	1478269	wordpools/wasnorm_wordpool.txt	LTP067	ltpFR	0	13	1	GLOVE	642	n/a	0	1	0.412841796875	0.57763671875	lower	../fonts/amplitud.ttf
2960.474	n/a	WORD	1480237	wordpools/wasnorm_wordpool.txt	LTP067	ltpFR	0	13	0	LOLLIPOP	842	n/a	0	0	0.5869140625	0.422607421875	upper	../fonts/zerothre.ttf
2964.462	n/a	WORD	1482231	wordpools/wasnorm_wordpool.txt	LTP067	ltpFR	0	13	0	CUCUMBER	421	n/a	0	0	0.5869140625	0.422607421875	upper	../fonts/zerothre.ttf
2968.64	n/a	WORD	1484320	wordpools/wasnorm_wordpool.txt	LTP067	ltpFR	0	13	1	GUN	673	n/a	0	1	0.412841796875	0.57763671875	lower	../fonts/amplitud.ttf
2972.676	n/a	WORD	1486338	wordpools/wasnorm_wordpool.txt	LTP067	ltpFR	0	13	1	BINDER	127	n/a	0	1	0.412841796875	0.57763671875	lower	../fonts/amplitud.ttf
2976.582	n/a	WORD	1488291	wordpools/wasnorm_wordpool.txt	LTP067	ltpFR	0	13	1	LIME	823	n/a	0	1	0.412841796875	0.57763671875	lower	../fonts/amplitud.ttf
2980.552	n/a	WORD	1490276	wordpools/wasnorm_wordpool.txt	LTP067	ltpFR	0	13	1	HOSTAGE	722	n/a	1	1	0.412841796875	0.57763671875	lower	../fonts/amplitud.ttf
2984.498	n/a	WORD	1492249	wordpools/wasnorm_wordpool.txt	LTP067	ltpFR	0	13	0	PUBLISHER	1137	n/a	1	0	0.5869140625	0.422607421875	upper	../fonts/zerothre.ttf
2988.392	n/a	WORD	1494196	wordpools/wasnorm_wordpool.txt	LTP067	ltpFR	0	13	0	SUIT	1402	n/a	1	0	0.5869140625	0.422607421875	upper	../fonts/zerothre.ttf
2992.572	n/a	WORD	1496286	wordpools/wasnorm_wordpool.txt	LTP067	ltpFR	0	13	0	TIE	1466	n/a	0	0	0.5869140625	0.422607421875	upper	../fonts/zerothre.ttf
2996.442	n/a	WORD	1498221	wordpools/wasnorm_wordpool.txt	LTP067	ltpFR	0	13	0	FLEET	578	n/a	1	0	0.5869140625	0.422607421875	upper	../fonts/zerothre.ttf
3000.612	n/a	WORD	1500306	wordpools/wasnorm_wordpool.txt	LTP067	ltpFR	0	13	0	DUCK	504	n/a	1	0	0.5869140625	0.422607421875	upper	../fonts/zerothre.ttf
3004.816	n/a	WORD	1502408	wordpools/wasnorm_wordpool.txt	LTP067	ltpFR	0	13	0	OX	994	n/a	1	0	0.5869140625	0.422607421875	upper	../fonts/zerothre.ttf
3010.568	n/a	REC_START	1505284	n/a	LTP067	ltpFR	0	13	n/a	n/a	n/a	n/a	n/a	n/a	n/a	n/a	n/a	n/a
3011.152	n/a	REC_WORD	1505576	wordpools/wasnorm_wordpool.txt	LTP067	ltpFR	0	13	0	FLEET	578	n/a	1	n/a	n/a	n/a	n/a	n/a
3011.616	n/a	REC_WORD	1505808	wordpools/wasnorm_wordpool.txt	LTP067	ltpFR	0	13	0	DUCK	504	n/a	1	n/a	n/a	n/a	n/a	n/a
3011.95	n/a	REC_WORD	1505975	wordpools/wasnorm_wordpool.txt	LTP067	ltpFR	0	13	0	OX	994	n/a	1	n/a	n/a	n/a	n/a	n/a
3014.0	n/a	REC_WORD	1507000	wordpools/wasnorm_wordpool.txt	LTP067	ltpFR	0	13	1	TWINE	1529	n/a	0	n/a	n/a	n/a	n/a	n/a
3014.452	n/a	REC_WORD	1507226	wordpools/wasnorm_wordpool.txt	LTP067	ltpFR	0	13	1	HIKER	708	n/a	1	n/a	n/a	n/a	n/a	n/a
3014.964	n/a	REC_WORD	1507482	wordpools/wasnorm_wordpool.txt	LTP067	ltpFR	0	13	1	GLOVE	642	n/a	0	n/a	n/a	n/a	n/a	n/a
3018.194	n/a	REC_WORD	1509097	wordpools/wasnorm_wordpool.txt	LTP067	ltpFR	0	13	0	SUIT	1402	n/a	1	n/a	n/a	n/a	n/a	n/a
3019.034	n/a	REC_WORD	1509517	wordpools/wasnorm_wordpool.txt	LTP067	ltpFR	0	13	0	TIE	1466	n/a	0	n/a	n/a	n/a	n/a	n/a
3023.434	n/a	REC_WORD	1511717	wordpools/wasnorm_wordpool.txt	LTP067	ltpFR	0	13	0	CUCUMBER	421	n/a	0	n/a	n/a	n/a	n/a	n/a
3031.904	n/a	REC_WORD	1515952	wordpools/wasnorm_wordpool.txt	LTP067	ltpFR	0	13	0	DUCK	504	n/a	1	n/a	n/a	n/a	n/a	n/a
3032.224	n/a	REC_WORD	1516112	wordpools/wasnorm_wordpool.txt	LTP067	ltpFR	0	13	0	OX	994	n/a	1	n/a	n/a	n/a	n/a	n/a
3074.048	n/a	REC_WORD	1537024	wordpools/wasnorm_wordpool.txt	LTP067	ltpFR	0	13	1	HOSTAGE	722	n/a	1	n/a	n/a	n/a	n/a	n/a
3090.408	n/a	WORD	1545204	wordpools/wasnorm_wordpool.txt	LTP067	ltpFR	0	14	0	BANANA	77	n/a	3	0	0.5869140625	0.422607421875	upper	../fonts/zerothre.ttf
3092.772	n/a	KEY_MSG	1546386	n/a	LTP067	ltpFR	0	14	n/a	n/a	n/a	n/a	n/a	n/a	n/a	n/a	n/a	n/a
3095.418	n/a	WORD	1547709	wordpools/wasnorm_wordpool.txt	LTP067	ltpFR	0	14	0	CHERRY	293	n/a	0	0	0.5869140625	0.422607421875	upper	../fonts/zerothre.ttf
3099.364	n/a	WORD	1549682	wordpools/wasnorm_wordpool.txt	LTP067	ltpFR	0	14	1	PANTS	1010	n/a	0	1	0.412841796875	0.57763671875	lower	../fonts/amplitud.ttf
3103.292	n/a	WORD	1551646	wordpools/wasnorm_wordpool.txt	LTP067	ltpFR	0	14	1	DINNER	468	n/a	0	1	0.412841796875	0.57763671875	lower	../fonts/amplitud.ttf
3107.42	n/a	WORD	1553710	wordpools/wasnorm_wordpool.txt	LTP067	ltpFR	0	14	1	PIMPLE	1071	n/a	0	1	0.412841796875	0.57763671875	lower	../fonts/amplitud.ttf
3111.374	n/a	WORD	1555687	wordpools/wasnorm_wordpool.txt	LTP067	ltpFR	0	14	1	ALLIGATOR	16	n/a	1	1	0.412841796875	0.57763671875	lower	../fonts/amplitud.ttf
3115.42	n/a	WORD	1557710	wordpools/wasnorm_wordpool.txt	LTP067	ltpFR	0	14	0	MARSH	874	n/a	1	0	0.5869140625	0.422607421875	upper	../fonts/zerothre.ttf
3119.374	n/a	WORD	1559687	wordpools/wasnorm_wordpool.txt	LTP067	ltpFR	0	14	0	HAWK	692	n/a	1	0	0.5869140625	0.422607421875	upper	../fonts/zerothre.ttf
3123.478	n/a	WORD	1561739	wordpools/wasnorm_wordpool.txt	LTP067	ltpFR	0	14	0	EAGLE	512	n/a	1	0	0.5869140625	0.422607421875	upper	../fonts/zerothre.ttf
3127.664	n/a	WORD	1563832	wordpools/wasnorm_wordpool.txt	LTP067	ltpFR	0	14	1	WART	1590	n/a	0	1	0.412841796875	0.57763671875	lower	../fonts/amplitud.ttf
3131.634	n/a	WORD	1565817	wordpools/wasnorm_wordpool.txt	LTP067	ltpFR	0	14	1	PROFESSIONAL	1130	n/a	1	1	0.412841796875	0.57763671875	lower	../fonts/amplitud.ttf
3135.798	n/a	WORD	1567899	wordpools/wasnorm_wordpool.txt	LTP067	ltpFR	0	14	1	GROCERIES	663	n/a	0	1	0.412841796875	0.57763671875	lower	../fonts/amplitud.ttf
3139.992	n/a	WORD	1569996	wordpools/wasnorm_wordpool.txt	LTP067	ltpFR	0	14	1	VEGETABLE	1552	n/a	0	1	0.412841796875	0.57763671875	lower	../fonts/amplitud.ttf
3143.822	n/a	WORD	1571911	wordpools/wasnorm_wordpool.txt	LTP067	ltpFR	0	14	0	DAUGHTER	442	n/a	1	0	0.5869140625	0.422607421875	upper	../fonts/zerothre.ttf
3147.942	n/a	WORD	1573971	wordpools/wasnorm_wordpool.txt	LTP067	ltpFR	0	14	0	TUNA	1518	n/a	1	0	0.5869140625	0.422607421875	upper	../fonts/zerothre.ttf
3152.128	n/a	WORD	1576064	wordpools/wasnorm_wordpool.txt	LTP067	ltpFR	0	14	0	SURGEON	1413	n/a	1	0	0.5869140625	0.422607421875	upper	../fonts/zerothre.ttf
3158.078	n/a	REC_START	1579039	n/a	LTP067	ltpFR	0	14	n/a	n/a	n/a	n/a	n/a	n/a	n/a	n/a	n/a	n/a
3158.754	n/a	REC_WORD	1579377	wordpools/wasnorm_wordpool.txt	LTP067	ltpFR	0	14	0	SURGEON	1413	n/a	1	n/a	n/a	n/a	n/a	n/a
3160.468	n/a	REC_WORD	1580234	wordpools/wasnorm_wordpool.txt	LTP067	ltpFR	0	14	0	TUNA	1518	n/a	1	n/a	n/a	n/a	n/a	n/a
3163.99	n/a	REC_WORD	1581995	wordpools/wasnorm_wordpool.txt	LTP067	ltpFR	0	14	0	DAUGHTER	442	n/a	1	n/a	n/a	n/a	n/a	n/a
3164.478	n/a	REC_WORD	1582239	wordpools/wasnorm_wordpool.txt	LTP067	ltpFR	0	14	1	VEGETABLE	1552	n/a	0	n/a	n/a	n/a	n/a	n/a
3166.154	n/a	REC_WORD	1583077	wordpools/wasnorm_wordpool.txt	LTP067	ltpFR	0	14	n/a	LIVING	-1	n/a	n/a	n/a	n/a	n/a	n/a	n/a
3168.694	n/a	REC_WORD	1584347	wordpools/wasnorm_wordpool.txt	LTP067	ltpFR	0	14	1	PROFESSIONAL	1130	n/a	1	n/a	n/a	n/a	n/a	n/a
3169.508	n/a	REC_WORD	1584754	wordpools/wasnorm_wordpool.txt	LTP067	ltpFR	0	14	1	WART	1590	n/a	0	n/a	n/a	n/a	n/a	n/a
3172.3	n/a	REC_WORD	1586150	wordpools/wasnorm_wordpool.txt	LTP067	ltpFR	0	14	0	HAWK	692	n/a	1	n/a	n/a	n/a	n/a	n/a
3173.792	n/a	REC_WORD	1586896	wordpools/wasnorm_wordpool.txt	LTP067	ltpFR	0	14	0	EAGLE	512	n/a	1	n/a	n/a	n/a	n/a	n/a
3174.896	n/a	REC_WORD	1587448	wordpools/wasnorm_wordpool.txt	LTP067	ltpFR	0	14	0	MARSH	874	n/a	1	n/a	n/a	n/a	n/a	n/a
3176.482	n/a	REC_WORD	1588241	wordpools/wasnorm_wordpool.txt	LTP067	ltpFR	0	14	1	ALLIGATOR	16	n/a	1	n/a	n/a	n/a	n/a	n/a
3179.214	n/a	REC_WORD	1589607	wordpools/wasnorm_wordpool.txt	LTP067	ltpFR	0	14	1	PIMPLE	1071	n/a	0	n/a	n/a	n/a	n/a	n/a
3216.526	n/a	REC_WORD	1608263	wordpools/wasnorm_wordpool.txt	LTP067	ltpFR	0	14	1	VEGETABLE	1552	n/a	0	n/a	n/a	n/a	n/a	n/a
3221.874	n/a	REC_WORD	1610937	wordpools/wasnorm_wordpool.txt	LTP067	ltpFR	0	14	1	GROCERIES	663	n/a	0	n/a	n/a	n/a	n/a	n/a
3239.002	n/a	WORD	1619501	wordpools/wasnorm_wordpool.txt	LTP067	ltpFR	0	15	0	CUP	424	n/a	0	0	0.5869140625	0.422607421875	upper	../fonts/zerothre.ttf
3243.056	n/a	WORD	1621528	wordpools/wasnorm_wordpool.txt	LTP067	ltpFR	0	15	0	COD	340	n/a	0	0	0.5869140625	0.422607421875	upper	../fonts/zerothre.ttf
3247.2	n/a	WORD	1623600	wordpools/wasnorm_wordpool.txt	LTP067	ltpFR	0	15	0	SIDEWALK	1303	n/a	1	0	0.5869140625	0.422607421875	upper	../fonts/zerothre.ttf
3251.372	n/a	WORD	1625686	wordpools/wasnorm_wordpool.txt	LTP067	ltpFR	0	15	0	STREAM	1392	n/a	1	0	0.5869140625	0.422607421875	upper	../fonts/zerothre.ttf
3255.384	n/a	WORD	1627692	wordpools/wasnorm_wordpool.txt	LTP067	ltpFR	0	15	0	DOLL	481	n/a	0	0	0.5869140625	0.422607421875	upper	../fonts/zerothre.ttf
3259.32	n/a	WORD	1629660	wordpools/wasnorm_wordpool.txt	LTP067	ltpFR	0	15	0	ROBE	1198	n/a	1	0	0.5869140625	0.422607421875	upper	../fonts/zerothre.ttf
3263.164	n/a	WORD	1631582	wordpools/wasnorm_wordpool.txt	LTP067	ltpFR	0	15	1	HOSE	720	n/a	0	1	0.412841796875	0.57763671875	lower	../fonts/amplitud.ttf
3267.31	n/a	WORD	1633655	wordpools/wasnorm_wordpool.txt	LTP067	ltpFR	0	15	1	RIVER	1194	n/a	0	1	0.412841796875	0.57763671875	lower	../fonts/amplitud.ttf
3271.432	n/a	WORD	1635716	wordpools/wasnorm_wordpool.txt	LTP067	ltpFR	0	15	1	CITIZEN	312	n/a	1	1	0.412841796875	0.57763671875	lower	../fonts/amplitud.ttf
3275.584	n/a	WORD	1637792	wordpools/wasnorm_wordpool.txt	LTP067	ltpFR	0	15	0	SCAPEGOAT	1244	n/a	1	0	0.5869140625	0.422607421875	upper	../fonts/zerothre.ttf
3279.406	n/a	WORD	1639703	wordpools/wasnorm_wordpool.txt	LTP067	ltpFR	0	15	0	REPTILE	1185	n/a	1	0	0.5869140625	0.422607421875	upper	../fonts/zerothre.ttf
3283.308	n/a	WORD	1641654	wordpools/wasnorm_wordpool.txt	LTP067	ltpFR	0	15	1	SNAKE	1333	n/a	1	1	0.412841796875	0.57763671875	lower	../fonts/amplitud.ttf
3287.412	n/a	WORD	1643706	wordpools/wasnorm_wordpool.txt	LTP067	ltpFR	0	15	1	SUBMARINE	1398	n/a	0	1	0.412841796875	0.57763671875	lower	../fonts/amplitud.ttf
3291.55	n/a	WORD	1645775	wordpools/wasnorm_wordpool.txt	LTP067	ltpFR	0	15	1	ADOLESCENT	7	n/a	1	1	0.412841796875	0.57763671875	lower	../fonts/amplitud.ttf
3295.446	n/a	WORD	1647723	wordpools/wasnorm_wordpool.txt	LTP067	ltpFR	0	15	1	HAMMER	680	n/a	0	1	0.412841796875	0.57763671875	lower	../fonts/amplitud.ttf
3299.416	n/a	WORD	1649708	wordpools/wasnorm_wordpool.txt	LTP067	ltpFR	0	15	1	CONCRETE	361	n/a	0	1	0.412841796875	0.57763671875	lower	../fonts/amplitud.ttf
3305.31	n/a	REC_START	1652655	n/a	LTP067	ltpFR	0	15	n/a	n/a	n/a	n/a	n/a	n/a	n/a	n/a	n/a	n/a
3305.51	n/a	REC_WORD	1652755	wordpools/wasnorm_wordpool.txt	LTP067	ltpFR	0	15	1	HAMMER	680	n/a	0	n/a	n/a	n/a	n/a	n/a
3306.09	n/a	REC_WORD	1653045	wordpools/wasnorm_wordpool.txt	LTP067	ltpFR	0	15	1	CONCRETE	361	n/a	0	n/a	n/a	n/a	n/a	n/a
3306.836	n/a	REC_WORD	1653418	wordpools/wasnorm_wordpool.txt	LTP067	ltpFR	0	15	1	ADOLESCENT	7	n/a	1	n/a	n/a	n/a	n/a	n/a
3307.638	n/a	REC_WORD	1653819	wordpools/wasnorm_wordpool.txt	LTP067	ltpFR	0	15	1	SUBMARINE	1398	n/a	0	n/a	n/a	n/a	n/a	n/a
3309.4	n/a	REC_WORD	1654700	wordpools/wasnorm_wordpool.txt	LTP067	ltpFR	0	15	0	COD	340	n/a	0	n/a	n/a	n/a	n/a	n/a
3309.886	n/a	REC_WORD	1654943	wordpools/wasnorm_wordpool.txt	LTP067	ltpFR	0	15	0	SIDEWALK	1303	n/a	1	n/a	n/a	n/a	n/a	n/a
3310.62	n/a	REC_WORD	1655310	wordpools/wasnorm_wordpool.txt	LTP067	ltpFR	0	15	0	STREAM	1392	n/a	1	n/a	n/a	n/a	n/a	n/a
3312.738	n/a	REC_WORD	1656369	wordpools/wasnorm_wordpool.txt	LTP067	ltpFR	0	15	0	CUP	424	n/a	0	n/a	n/a	n/a	n/a	n/a
3326.226	n/a	REC_WORD	1663113	wordpools/wasnorm_wordpool.txt	LTP067	ltpFR	0	15	1	CITIZEN	312	n/a	1	n/a	n/a	n/a	n/a	n/a
3329.504	n/a	REC_WORD	1664752	wordpools/wasnorm_wordpool.txt	LTP067	ltpFR	0	15	0	SCAPEGOAT	1244	n/a	1	n/a	n/a	n/a	n/a	n/a
3330.254	n/a	REC_WORD	1665127	wordpools/wasnorm_wordpool.txt	LTP067	ltpFR	0	15	0	REPTILE	1185	n/a	1	n/a	n/a	n/a	n/a	n/a
3384.418	n/a	WORD	1692209	wordpools/wasnorm_wordpool.txt	LTP067	ltpFR	0	16	1	RELISH	1183	n/a	0	1	0.412841796875	0.57763671875	lower	../fonts/amplitud.ttf
3388.604	n/a	WORD	1694302	wordpools/wasnorm_wordpool.txt	LTP067	ltpFR	0	16	1	TELEPHONE	1445	n/a	0	1	0.412841796875	0.57763671875	lower	../fonts/amplitud.ttf
3392.442	n/a	WORD	1696221	wordpools/wasnorm_wordpool.txt	LTP067	ltpFR	0	16	0	RAILROAD	1162	n/a	1	0	0.5869140625	0.422607421875	upper	../fonts/zerothre.ttf
3396.412	n/a	WORD	1698206	wordpools/wasnorm_wordpool.txt	LTP067	ltpFR	0	16	0	ANIMAL	23	n/a	1	0	0.5869140625	0.422607421875	upper	../fonts/zerothre.ttf
3400.482	n/a	WORD	1700241	wordpools/wasnorm_wordpool.txt	LTP067	ltpFR	0	16	0	BEAVER	109	n/a	1	0	0.5869140625	0.422607421875	upper	../fonts/zerothre.ttf
3404.41	n/a	WORD	1702205	wordpools/wasnorm_wordpool.txt	LTP067	ltpFR	0	16	0	POET	1095	n/a	1	0	0.5869140625	0.422607421875	upper	../fonts/zerothre.ttf
3408.422	n/a	WORD	1704211	wordpools/wasnorm_wordpool.txt	LTP067	ltpFR	0	16	0	LAPEL	800	n/a	1	0	0.5869140625	0.422607421875	upper	../fonts/zerothre.ttf
3412.31	n/a	WORD	1706155	wordpools/wasnorm_wordpool.txt	LTP067	ltpFR	0	16	0	BARN	89	n/a	1	0	0.5869140625	0.422607421875	upper	../fonts/zerothre.ttf
3416.446	n/a	WORD	1708223	wordpools/wasnorm_wordpool.txt	LTP067	ltpFR	0	16	1	STALLION	1369	n/a	1	1	0.412841796875	0.57763671875	lower	../fonts/amplitud.ttf
3420.458	n/a	WORD	1710229	wordpools/wasnorm_wordpool.txt	LTP067	ltpFR	0	16	1	VACUUM	1543	n/a	0	1	0.412841796875	0.57763671875	lower	../fonts/amplitud.ttf
3424.278	n/a	WORD	1712139	wordpools/wasnorm_wordpool.txt	LTP067	ltpFR	0	16	0	ATHLETE	52	n/a	1	0	0.5869140625	0.422607421875	upper	../fonts/zerothre.ttf
3428.392	n/a	WORD	1714196	wordpools/wasnorm_wordpool.txt	LTP067	ltpFR	0	16	0	OLIVE	975	n/a	0	0	0.5869140625	0.422607421875	upper	../fonts/zerothre.ttf
3432.512	n/a	WORD	1716256	wordpools/wasnorm_wordpool.txt	LTP067	ltpFR	0	16	1	STUMP	1396	n/a	0	1	0.412841796875	0.57763671875	lower	../fonts/amplitud.ttf
3436.566	n/a	WORD	1718283	wordpools/wasnorm_wordpool.txt	LTP067	ltpFR	0	16	1	COACH	331	n/a	1	1	0.412841796875	0.57763671875	lower	../fonts/amplitud.ttf
3440.552	n/a	WORD	1720276	wordpools/wasnorm_wordpool.txt	LTP067	ltpFR	0	16	1	COLLAR	345	n/a	0	1	0.412841796875	0.57763671875	lower	../fonts/amplitud.ttf
3444.614	n/a	WORD	1722307	wordpools/wasnorm_wordpool.txt	LTP067	ltpFR	0	16	1	HARP	689	n/a	0	1	0.412841796875	0.57763671875	lower	../fonts/amplitud.ttf
3450.542	n/a	REC_START	1725271	n/a	LTP067	ltpFR	0	16	n/a	n/a	n/a	n/a	n/a	n/a	n/a	n/a	n/a	n/a
3450.812	n/a	REC_WORD	1725406	wordpools/wasnorm_wordpool.txt	LTP067	ltpFR	0	16	1	HARP	689	n/a	0	n/a	n/a	n/a	n/a	n/a
3451.778	n/a	REC_WORD	1725889	wordpools/wasnorm_wordpool.txt	LTP067	ltpFR	0	16	1	COACH	331	n/a	1	n/a	n/a	n/a	n/a	n/a
3453.116	n/a	REC_WORD	1726558	wordpools/wasnorm_wordpool.txt	LTP067	ltpFR	0	16	1	COLLAR	345	n/a	0	n/a	n/a	n/a	n/a	n/a
3454.916	n/a	REC_WORD	1727458	wordpools/wasnorm_wordpool.txt	LTP067	ltpFR	0	16	1	STALLION	1369	n/a	1	n/a	n/a	n/a	n/a	n/a
3456.616	n/a	REC_WORD	1728308	wordpools/wasnorm_wordpool.txt	LTP067	ltpFR	0	16	0	OLIVE	975	n/a	0	n/a	n/a	n/a	n/a	n/a
3457.03	n/a	REC_WORD	1728515	wordpools/wasnorm_wordpool.txt	LTP067	ltpFR	0	16	1	STUMP	1396	n/a	0	n/a	n/a	n/a	n/a	n/a
3459.48	n/a	REC_WORD	1729740	wordpools/wasnorm_wordpool.txt	LTP067	ltpFR	0	16	1	VACUUM	1543	n/a	0	n/a	n/a	n/a	n/a	n/a
3465.982	n/a	REC_WORD	1732991	wordpools/wasnorm_wordpool.txt	LTP067	ltpFR	0	16	0	BEAVER	109	n/a	1	n/a	n/a	n/a	n/a	n/a
3466.438	n/a	REC_WORD	1733219	wordpools/wasnorm_wordpool.txt	LTP067	ltpFR	0	16	0	ANIMAL	23	n/a	1	n/a	n/a	n/a	n/a	n/a
3467.344	n/a	REC_WORD	1733672	wordpools/wasnorm_wordpool.txt	LTP067	ltpFR	0	16	1	TELEPHONE	1445	n/a	0	n/a	n/a	n/a	n/a	n/a
3468.264	n/a	REC_WORD	1734132	wordpools/wasnorm_wordpool.txt	LTP067	ltpFR	0	16	0	RAILROAD	1162	n/a	1	n/a	n/a	n/a	n/a	n/a
3470.76	n/a	REC_WORD	1735380	wordpools/wasnorm_wordpool.txt	LTP067	ltpFR	0	16	1	RELISH	1183	n/a	0	n/a	n/a	n/a	n/a	n/a
3478.214	n/a	REC_WORD	1739107	wordpools/wasnorm_wordpool.txt	LTP067	ltpFR	0	16	0	BARN	89	n/a	1	n/a	n/a	n/a	n/a	n/a
3558.916	n/a	REC_START	1779458	n/a	LTP067	ltpFR	0	n/a	n/a	n/a	n/a	n/a	n/a	n/a	n/a	n/a	n/a	n/a
3559.132	n/a	FFR_REC_WORD_VV	1779566	wordpools/wasnorm_wordpool.txt	LTP067	ltpFR	0	n/a	n/a	<>	-1	n/a	n/a	n/a	n/a	n/a	n/a	n/a
3561.582	n/a	FFR_REC_WORD	1780791	wordpools/wasnorm_wordpool.txt	LTP067	ltpFR	0	n/a	0	BEAVER	109	n/a	1	n/a	n/a	n/a	n/a	n/a
3562.492	n/a	FFR_REC_WORD	1781246	wordpools/wasnorm_wordpool.txt	LTP067	ltpFR	0	n/a	0	ANIMAL	23	n/a	1	n/a	n/a	n/a	n/a	n/a
3563.634	n/a	FFR_REC_WORD	1781817	wordpools/wasnorm_wordpool.txt	LTP067	ltpFR	0	n/a	1	TELEPHONE	1445	n/a	0	n/a	n/a	n/a	n/a	n/a
3564.438	n/a	FFR_REC_WORD	1782219	wordpools/wasnorm_wordpool.txt	LTP067	ltpFR	0	n/a	1	RELISH	1183	n/a	0	n/a	n/a	n/a	n/a	n/a
3567.546	n/a	FFR_REC_WORD	1783773	wordpools/wasnorm_wordpool.txt	LTP067	ltpFR	0	n/a	0	OLIVE	975	n/a	0	n/a	n/a	n/a	n/a	n/a
3567.962	n/a	FFR_REC_WORD	1783981	wordpools/wasnorm_wordpool.txt	LTP067	ltpFR	0	n/a	1	STALLION	1369	n/a	1	n/a	n/a	n/a	n/a	n/a
3568.6	n/a	FFR_REC_WORD	1784300	wordpools/wasnorm_wordpool.txt	LTP067	ltpFR	0	n/a	1	STUMP	1396	n/a	0	n/a	n/a	n/a	n/a	n/a
3569.292	n/a	FFR_REC_WORD	1784646	wordpools/wasnorm_wordpool.txt	LTP067	ltpFR	0	n/a	0	BARN	89	n/a	1	n/a	n/a	n/a	n/a	n/a
3571.034	n/a	FFR_REC_WORD	1785517	wordpools/wasnorm_wordpool.txt	LTP067	ltpFR	0	n/a	1	COACH	331	n/a	1	n/a	n/a	n/a	n/a	n/a
3573.348	n/a	FFR_REC_WORD	1786674	wordpools/wasnorm_wordpool.txt	LTP067	ltpFR	0	n/a	1	COLLAR	345	n/a	0	n/a	n/a	n/a	n/a	n/a
3577.05	n/a	FFR_REC_WORD	1788525	wordpools/wasnorm_wordpool.txt	LTP067	ltpFR	0	n/a	1	PROFESSIONAL	1130	n/a	1	n/a	n/a	n/a	n/a	n/a
3578.866	n/a	FFR_REC_WORD	1789433	wordpools/wasnorm_wordpool.txt	LTP067	ltpFR	0	n/a	1	HOSTAGE	722	n/a	1	n/a	n/a	n/a	n/a	n/a
3582.578	n/a	FFR_REC_WORD	1791289	wordpools/wasnorm_wordpool.txt	LTP067	ltpFR	0	n/a	1	GROCERIES	663	n/a	0	n/a	n/a	n/a	n/a	n/a
3583.02	n/a	FFR_REC_WORD	1791510	wordpools/wasnorm_wordpool.txt	LTP067	ltpFR	0	n/a	1	VEGETABLE	1552	n/a	0	n/a	n/a	n/a	n/a	n/a
3583.808	n/a	FFR_REC_WORD	1791904	wordpools/wasnorm_wordpool.txt	LTP067	ltpFR	0	n/a	0	DAUGHTER	442	n/a	1	n/a	n/a	n/a	n/a	n/a
3589.298	n/a	FFR_REC_WORD	1794649	wordpools/wasnorm_wordpool.txt	LTP067	ltpFR	0	n/a	0	VELVET	1555	n/a	1	n/a	n/a	n/a	n/a	n/a
3590.602	n/a	FFR_REC_WORD	1795301	wordpools/wasnorm_wordpool.txt	LTP067	ltpFR	0	n/a	0	POCKET	1093	n/a	0	n/a	n/a	n/a	n/a	n/a
3591.886	n/a	FFR_REC_WORD	1795943	wordpools/wasnorm_wordpool.txt	LTP067	ltpFR	0	n/a	0	SANDPAPER	1231	n/a	0	n/a	n/a	n/a	n/a	n/a
3593.054	n/a	FFR_REC_WORD	1796527	wordpools/wasnorm_wordpool.txt	LTP067	ltpFR	0	n/a	0	ARTICLE	42	n/a	0	n/a	n/a	n/a	n/a	n/a
3593.924	n/a	FFR_REC_WORD	1796962	wordpools/wasnorm_wordpool.txt	LTP067	ltpFR	0	n/a	0	COOK	372	n/a	1	n/a	n/a	n/a	n/a	n/a
3594.586	n/a	FFR_REC_WORD	1797293	wordpools/wasnorm_wordpool.txt	LTP067	ltpFR	0	n/a	0	KITCHEN	778	n/a	1	n/a	n/a	n/a	n/a	n/a
3597.364	n/a	FFR_REC_WORD	1798682	wordpools/wasnorm_wordpool.txt	LTP067	ltpFR	0	n/a	1	CELERY	266	n/a	0	n/a	n/a	n/a	n/a	n/a
3598.79	n/a	FFR_REC_WORD	1799395	wordpools/wasnorm_wordpool.txt	LTP067	ltpFR	0	n/a	1	CARROT	249	n/a	0	n/a	n/a	n/a	n/a	n/a
3600.542	n/a	FFR_REC_WORD	1800271	wordpools/wasnorm_wordpool.txt	LTP067	ltpFR	0	n/a	1	SYRUP	1425	n/a	0	n/a	n/a	n/a	n/a	n/a
3602.362	n/a	FFR_REC_WORD	1801181	wordpools/wasnorm_wordpool.txt	LTP067	ltpFR	0	n/a	n/a	CROCODILE	411	n/a	n/a	n/a	n/a	n/a	n/a	n/a
3603.054	n/a	FFR_REC_WORD	1801527	wordpools/wasnorm_wordpool.txt	LTP067	ltpFR	0	n/a	0	EAGLE	512	n/a	1	n/a	n/a	n/a	n/a	n/a
3603.51	n/a	FFR_REC_WORD	1801755	wordpools/wasnorm_wordpool.txt	LTP067	ltpFR	0	n/a	0	HAWK	692	n/a	1	n/a	n/a	n/a	n/a	n/a
3605.062	n/a	FFR_REC_WORD	1802531	wordpools/wasnorm_wordpool.txt	LTP067	ltpFR	0	n/a	-1	SWAMP	1416	n/a	-1	n/a	n/a	n/a	n/a	n/a
3605.596	n/a	FFR_REC_WORD	1802798	wordpools/wasnorm_wordpool.txt	LTP067	ltpFR	0	n/a	0	MARSH	874	n/a	1	n/a	n/a	n/a	n/a	n/a
3622.718	n/a	FFR_REC_WORD	1811359	wordpools/wasnorm_wordpool.txt	LTP067	ltpFR	0	n/a	-1	CEREAL	272	n/a	-1	n/a	n/a	n/a	n/a	n/a
3626.0	n/a	FFR_REC_WORD	1813000	wordpools/wasnorm_wordpool.txt	LTP067	ltpFR	0	n/a	0	KNIFE	785	n/a	0	n/a	n/a	n/a	n/a	n/a
3626.392	n/a	FFR_REC_WORD	1813196	wordpools/wasnorm_wordpool.txt	LTP067	ltpFR	0	n/a	0	SOAP	1337	n/a	0	n/a	n/a	n/a	n/a	n/a
3628.704	n/a	FFR_REC_WORD	1814352	wordpools/wasnorm_wordpool.txt	LTP067	ltpFR	0	n/a	-1	HAMMOCK	681	n/a	-1	n/a	n/a	n/a	n/a	n/a
3630.14	n/a	FFR_REC_WORD	1815070	wordpools/wasnorm_wordpool.txt	LTP067	ltpFR	0	n/a	-1	VINEGAR	1569	n/a	-1	n/a	n/a	n/a	n/a	n/a
3630.68	n/a	FFR_REC_WORD	1815340	wordpools/wasnorm_wordpool.txt	LTP067	ltpFR	0	n/a	0	SEA	1259	n/a	1	n/a	n/a	n/a	n/a	n/a
3633.024	n/a	FFR_REC_WORD	1816512	wordpools/wasnorm_wordpool.txt	LTP067	ltpFR	0	n/a	-1	YACHT	1629	n/a	-1	n/a	n/a	n/a	n/a	n/a
3635.438	n/a	FFR_REC_WORD	1817719	wordpools/wasnorm_wordpool.txt	LTP067	ltpFR	0	n/a	-1	PASSENGER	1020	n/a	-1	n/a	n/a	n/a	n/a	n/a
3649.342	n/a	FFR_REC_WORD	1824671	wordpools/wasnorm_wordpool.txt	LTP067	ltpFR	0	n/a	0	TUNA	1518	n/a	1	n/a	n/a	n/a	n/a	n/a
3649.77	n/a	FFR_REC_WORD	1824885	wordpools/wasnorm_wordpool.txt	LTP067	ltpFR	0	n/a	0	COD	340	n/a	0	n/a	n/a	n/a	n/a	n/a
3651.562	n/a	FFR_REC_WORD	1825781	wordpools/wasnorm_wordpool.txt	LTP067	ltpFR	0	n/a	0	SIDEWALK	1303	n/a	1	n/a	n/a	n/a	n/a	n/a
3652.42	n/a	FFR_REC_WORD	1826210	wordpools/wasnorm_wordpool.txt	LTP067	ltpFR	0	n/a	0	CREEK	404	n/a	1	n/a	n/a	n/a	n/a	n/a
3654.63	n/a	FFR_REC_WORD	1827315	wordpools/wasnorm_wordpool.txt	LTP067	ltpFR	0	n/a	0	CUP	424	n/a	0	n/a	n/a	n/a	n/a	n/a
3659.164	n/a	FFR_REC_WORD	1829582	wordpools/wasnorm_wordpool.txt	LTP067	ltpFR	0	n/a	0	RACCOON	1153	n/a	1	n/a	n/a	n/a	n/a	n/a
3659.938	n/a	FFR_REC_WORD	1829969	wordpools/wasnorm_wordpool.txt	LTP067	ltpFR	0	n/a	0	JEANS	752	n/a	1	n/a	n/a	n/a	n/a	n/a
3671.516	n/a	FFR_REC_WORD	1835758	wordpools/wasnorm_wordpool.txt	LTP067	ltpFR	0	n/a	0	TIE	1466	n/a	0	n/a	n/a	n/a	n/a	n/a
3674.066	n/a	FFR_REC_WORD	1837033	wordpools/wasnorm_wordpool.txt	LTP067	ltpFR	0	n/a	0	FOREHEAD	592	n/a	0	n/a	n/a	n/a	n/a	n/a
3676.994	n/a	FFR_REC_WORD	1838497	wordpools/wasnorm_wordpool.txt	LTP067	ltpFR	0	n/a	0	SUIT	1402	n/a	1	n/a	n/a	n/a	n/a	n/a
3686.534	n/a	FFR_REC_WORD	1843267	wordpools/wasnorm_wordpool.txt	LTP067	ltpFR	0	n/a	0	CUCUMBER	421	n/a	0	n/a	n/a	n/a	n/a	n/a
3693.098	n/a	FFR_REC_WORD	1846549	wordpools/wasnorm_wordpool.txt	LTP067	ltpFR	0	n/a	0	SCAPEGOAT	1244	n/a	1	n/a	n/a	n/a	n/a	n/a
3694.614	n/a	FFR_REC_WORD	1847307	wordpools/wasnorm_wordpool.txt	LTP067	ltpFR	0	n/a	0	REPTILE	1185	n/a	1	n/a	n/a	n/a	n/a	n/a
3702.482	n/a	FFR_REC_WORD	1851241	wordpools/wasnorm_wordpool.txt	LTP067	ltpFR	0	n/a	0	EWE	542	n/a	1	n/a	n/a	n/a	n/a	n/a
3716.13	n/a	FFR_REC_WORD	1858065	wordpools/wasnorm_wordpool.txt	LTP067	ltpFR	0	n/a	0	CHEERLEADER	288	n/a	1	n/a	n/a	n/a	n/a	n/a
3717.414	n/a	FFR_REC_WORD	1858707	wordpools/wasnorm_wordpool.txt	LTP067	ltpFR	0	n/a	0	LEADER	807	n/a	1	n/a	n/a	n/a	n/a	n/a
3717.93	n/a	FFR_REC_WORD	1858965	wordpools/wasnorm_wordpool.txt	LTP067	ltpFR	0	n/a	0	SUITCASE	1403	n/a	1	n/a	n/a	n/a	n/a	n/a
3719.304	n/a	FFR_REC_WORD	1859652	wordpools/wasnorm_wordpool.txt	LTP067	ltpFR	0	n/a	0	SPONGE	1355	n/a	0	n/a	n/a	n/a	n/a	n/a
3746.272	n/a	FFR_REC_WORD	1873136	wordpools/wasnorm_wordpool.txt	LTP067	ltpFR	0	n/a	0	GOBLIN	645	n/a	1	n/a	n/a	n/a	n/a	n/a
3759.996	n/a	FFR_REC_WORD	1879998	wordpools/wasnorm_wordpool.txt	LTP067	ltpFR	0	n/a	n/a	RADISH	1158	n/a	n/a	n/a	n/a	n/a	n/a	n/a
3760.76	n/a	FFR_REC_WORD	1880380	wordpools/wasnorm_wordpool.txt	LTP067	ltpFR	0	n/a	0	SALAD	1224	n/a	1	n/a	n/a	n/a	n/a	n/a
3768.108	n/a	FFR_REC_WORD	1884054	wordpools/wasnorm_wordpool.txt	LTP067	ltpFR	0	n/a	0	FLEET	578	n/a	1	n/a	n/a	n/a	n/a	n/a
3781.414	n/a	FFR_REC_WORD	1890707	wordpools/wasnorm_wordpool.txt	LTP067	ltpFR	0	n/a	-1	POTATO	1115	n/a	-1	n/a	n/a	n/a	n/a	n/a
3788.068	n/a	FFR_REC_WORD	1894034	wordpools/wasnorm_wordpool.txt	LTP067	ltpFR	0	n/a	n/a	WATER	1594	n/a	n/a	n/a	n/a	n/a	n/a	n/a
3788.548	n/a	FFR_REC_WORD	1894274	wordpools/wasnorm_wordpool.txt	LTP067	ltpFR	0	n/a	-1	CAKE	219	n/a	-1	n/a	n/a	n/a	n/a	n/a
3795.382	n/a	FFR_REC_WORD	1897691	wordpools/wasnorm_wordpool.txt	LTP067	ltpFR	0	n/a	1	REEF	1177	n/a	0	n/a	n/a	n/a	n/a	n/a
3829.968	n/a	FFR_REC_WORD	1914984	wordpools/wasnorm_wordpool.txt	LTP067	ltpFR	0	n/a	1	WOLF	1619	n/a	1	n/a	n/a	n/a	n/a	n/a
3830.856	n/a	FFR_REC_WORD	1915428	wordpools/wasnorm_wordpool.txt	LTP067	ltpFR	0	n/a	1	POOL	1103	n/a	0	n/a	n/a	n/a	n/a	n/a
3833.82	n/a	FFR_REC_WORD	1916910	wordpools/wasnorm_wordpool.txt	LTP067	ltpFR	0	n/a	1	OWL	992	n/a	1	n/a	n/a	n/a	n/a	n/a
3838.922	n/a	FFR_REC_WORD	1919461	wordpools/wasnorm_wordpool.txt	LTP067	ltpFR	0	n/a	1	POSSUM	1112	n/a	1	n/a	n/a	n/a	n/a	n/a
3839.506	n/a	FFR_REC_WORD	1919753	wordpools/wasnorm_wordpool.txt	LTP067	ltpFR	0	n/a	1	PEACH	1031	n/a	1	n/a	n/a	n/a	n/a	n/a
3842.8	n/a	FFR_REC_WORD	1921400	wordpools/wasnorm_wordpool.txt	LTP067	ltpFR	0	n/a	1	VET	1560	n/a	1	n/a	n/a	n/a	n/a	n/a
3856.0	n/a	FFR_REC_WORD	1928000	wordpools/wasnorm_wordpool.txt	LTP067	ltpFR	0	n/a	1	WART	1590	n/a	0	n/a	n/a	n/a	n/a	n/a
3974.292	n/a	REC_START	1987146	n/a	LTP067	ltpFR	0	1	n/a	n/a	n/a	n/a	n/a	n/a	n/a	n/a	n/a	n/a
3974.326	n/a	RECOG_LURE	1987163	n/a	LTP067	ltpFR	0	1	n/a	VENUS	1557	5	n/a	n/a	n/a	n/a	n/a	n/a
3975.984	n/a	RECOG_RESP	1987992	n/a	LTP067	ltpFR	0	1	n/a	VENUS	1557	n/a	n/a	n/a	n/a	n/a	n/a	n/a
3977.384	n/a	RECOG_CONF	1988692	n/a	LTP067	ltpFR	0	1	n/a	VENUS	1557	5	n/a	n/a	n/a	n/a	n/a	n/a
3980.32	n/a	RECOG_TARGET	1990160	n/a	LTP067	ltpFR	0	1	0	PELT	1040	5	1	n/a	n/a	n/a	n/a	n/a
3981.384	n/a	RECOG_RESP	1990692	n/a	LTP067	ltpFR	0	1	0	PELT	1040	n/a	1	n/a	n/a	n/a	n/a	n/a
3983.336	n/a	RECOG_CONF	1991668	n/a	LTP067	ltpFR	0	1	0	PELT	1040	5	1	n/a	n/a	n/a	n/a	n/a
3985.088	n/a	RECOG_LURE	1992544	n/a	LTP067	ltpFR	0	1	n/a	STEAM	1375	4	n/a	n/a	n/a	n/a	n/a	n/a
3986.804	n/a	RECOG_RESP	1993402	n/a	LTP067	ltpFR	0	1	n/a	STEAM	1375	n/a	n/a	n/a	n/a	n/a	n/a	n/a
3988.266	n/a	RECOG_CONF	1994133	n/a	LTP067	ltpFR	0	1	n/a	STEAM	1375	4	n/a	n/a	n/a	n/a	n/a	n/a
3989.992	n/a	RECOG_TARGET	1994996	n/a	LTP067	ltpFR	0	1	0	QUILT	1151	3	1	n/a	n/a	n/a	n/a	n/a
3991.454	n/a	RECOG_RESP	1995727	n/a	LTP067	ltpFR	0	1	0	QUILT	1151	n/a	1	n/a	n/a	n/a	n/a	n/a
3992.656	n/a	RECOG_CONF	1996328	n/a	LTP067	ltpFR	0	1	0	QUILT	1151	3	1	n/a	n/a	n/a	n/a	n/a
3994.402	n/a	RECOG_TARGET	1997201	n/a	LTP067	ltpFR	0	1	-1	TWEEZERS	1526	3	-1	n/a	n/a	n/a	n/a	n/a
3996.238	n/a	RECOG_RESP	1998119	n/a	LTP067	ltpFR	0	1	-1	TWEEZERS	1526	n/a	-1	n/a	n/a	n/a	n/a	n/a
3997.654	n/a	RECOG_CONF	1998827	n/a	LTP067	ltpFR	0	1	-1	TWEEZERS	1526	3	-1	n/a	n/a	n/a	n/a	n/a
3999.53	n/a	RECOG_TARGET	1999765	n/a	LTP067	ltpFR	0	1	1	RELISH	1183	5	0	n/a	n/a	n/a	n/a	n/a
4000.58	n/a	RECOG_RESP	2000290	n/a	LTP067	ltpFR	0	1	1	RELISH	1183	n/a	0	n/a	n/a	n/a	n/a	n/a
4001.462	n/a	RECOG_CONF	2000731	n/a	LTP067	ltpFR	0	1	1	RELISH	1183	5	0	n/a	n/a	n/a	n/a	n/a
4003.268	n/a	RECOG_TARGET	2001634	n/a	LTP067	ltpFR	0	1	1	STALLION	1369	5	1	n/a	n/a	n/a	n/a	n/a
4004.026	n/a	RECOG_RESP	2002013	n/a	LTP067	ltpFR	0	1	1	STALLION	1369	n/a	1	n/a	n/a	n/a	n/a	n/a
4005.332	n/a	RECOG_CONF	2002666	n/a	LTP067	ltpFR	0	1	1	STALLION	1369	5	1	n/a	n/a	n/a	n/a	n/a
4007.23	n/a	RECOG_LURE	2003615	n/a	LTP067	ltpFR	0	1	n/a	EYE	545	3	n/a	n/a	n/a	n/a	n/a	n/a
4008.092	n/a	RECOG_RESP	2004046	n/a	LTP067	ltpFR	0	1	n/a	EYE	545	n/a	n/a	n/a	n/a	n/a	n/a	n/a
4009.154	n/a	RECOG_CONF	2004577	n/a	LTP067	ltpFR	0	1	n/a	EYE	545	3	n/a	n/a	n/a	n/a	n/a	n/a
4010.91	n/a	RECOG_LURE	2005455	n/a	LTP067	ltpFR	0	1	n/a	SCOTCH	1251	5	n/a	n/a	n/a	n/a	n/a	n/a
4011.838	n/a	RECOG_RESP	2005919	n/a	LTP067	ltpFR	0	1	n/a	SCOTCH	1251	n/a	n/a	n/a	n/a	n/a	n/a	n/a
4012.9	n/a	RECOG_CONF	2006450	n/a	LTP067	ltpFR	0	1	n/a	SCOTCH	1251	5	n/a	n/a	n/a	n/a	n/a	n/a
4014.706	n/a	RECOG_LURE	2007353	n/a	LTP067	ltpFR	0	1	n/a	SPOON	1357	3	n/a	n/a	n/a	n/a	n/a	n/a
4015.898	n/a	RECOG_RESP	2007949	n/a	LTP067	ltpFR	0	1	n/a	SPOON	1357	n/a	n/a	n/a	n/a	n/a	n/a	n/a
4017.16	n/a	RECOG_CONF	2008580	n/a	LTP067	ltpFR	0	1	n/a	SPOON	1357	3	n/a	n/a	n/a	n/a	n/a	n/a
4018.876	n/a	RECOG_LURE	2009438	n/a	LTP067	ltpFR	0	1	n/a	SUPPER	1411	4	n/a	n/a	n/a	n/a	n/a	n/a
4019.646	n/a	RECOG_RESP	2009823	n/a	LTP067	ltpFR	0	1	n/a	SUPPER	1411	n/a	n/a	n/a	n/a	n/a	n/a	n/a
4020.612	n/a	RECOG_CONF	2010306	n/a	LTP067	ltpFR	0	1	n/a	SUPPER	1411	4	n/a	n/a	n/a	n/a	n/a	n/a
4022.228	n/a	RECOG_TARGET	2011114	n/a	LTP067	ltpFR	0	1	-1	SNACK	1331	2	-1	n/a	n/a	n/a	n/a	n/a
4023.846	n/a	RECOG_RESP	2011923	n/a	LTP067	ltpFR	0	1	-1	SNACK	1331	n/a	-1	n/a	n/a	n/a	n/a	n/a
4024.898	n/a	RECOG_CONF	2012449	n/a	LTP067	ltpFR	0	1	-1	SNACK	1331	2	-1	n/a	n/a	n/a	n/a	n/a
4026.608	n/a	RECOG_TARGET	2013304	n/a	LTP067	ltpFR	0	1	0	TUNA	1518	5	1	n/a	n/a	n/a	n/a	n/a
4027.772	n/a	RECOG_RESP	2013886	n/a	LTP067	ltpFR	0	1	0	TUNA	1518	n/a	1	n/a	n/a	n/a	n/a	n/a
4028.73	n/a	RECOG_CONF	2014365	n/a	LTP067	ltpFR	0	1	0	TUNA	1518	5	1	n/a	n/a	n/a	n/a	n/a
4030.628	n/a	RECOG_TARGET	2015314	n/a	LTP067	ltpFR	0	1	1	DETECTIVE	454	5	1	n/a	n/a	n/a	n/a	n/a
4031.528	n/a	RECOG_RESP	2015764	n/a	LTP067	ltpFR	0	1	1	DETECTIVE	454	n/a	1	n/a	n/a	n/a	n/a	n/a
4032.446	n/a	RECOG_CONF	2016223	n/a	LTP067	ltpFR	0	1	1	DETECTIVE	454	5	1	n/a	n/a	n/a	n/a	n/a
4034.306	n/a	RECOG_TARGET	2017153	n/a	LTP067	ltpFR	0	1	0	DESSERT	453	5	1	n/a	n/a	n/a	n/a	n/a
4035.016	n/a	RECOG_RESP_VV	2017508	n/a	LTP067	ltpFR	0	1	0	DESSERT	453	5	1	n/a	n/a	n/a	n/a	n/a
4036.072	n/a	RECOG_CONF	2018036	n/a	LTP067	ltpFR	0	1	0	DESSERT	453	5	1	n/a	n/a	n/a	n/a	n/a
4037.712	n/a	RECOG_TARGET	2018856	n/a	LTP067	ltpFR	0	1	-1	SAILOR	1223	5	-1	n/a	n/a	n/a	n/a	n/a
4038.756	n/a	RECOG_RESP	2019378	n/a	LTP067	ltpFR	0	1	-1	SAILOR	1223	n/a	-1	n/a	n/a	n/a	n/a	n/a
4039.77	n/a	RECOG_CONF	2019885	n/a	LTP067	ltpFR	0	1	-1	SAILOR	1223	5	-1	n/a	n/a	n/a	n/a	n/a
4041.408	n/a	RECOG_TARGET	2020704	n/a	LTP067	ltpFR	0	1	-1	TAR	1435	5	-1	n/a	n/a	n/a	n/a	n/a
4042.394	n/a	RECOG_RESP	2021197	n/a	LTP067	ltpFR	0	1	-1	TAR	1435	n/a	-1	n/a	n/a	n/a	n/a	n/a
4044.094	n/a	RECOG_CONF	2022047	n/a	LTP067	ltpFR	0	1	-1	TAR	1435	5	-1	n/a	n/a	n/a	n/a	n/a
4045.552	n/a	RECOG_LURE	2022776	n/a	LTP067	ltpFR	0	1	n/a	STREET	1393	3	n/a	n/a	n/a	n/a	n/a	n/a
4048.34	n/a	RECOG_RESP	2024170	n/a	LTP067	ltpFR	0	1	n/a	STREET	1393	n/a	n/a	n/a	n/a	n/a	n/a	n/a
4049.842	n/a	RECOG_CONF	2024921	n/a	LTP067	ltpFR	0	1	n/a	STREET	1393	3	n/a	n/a	n/a	n/a	n/a	n/a
4051.528	n/a	RECOG_LURE	2025764	n/a	LTP067	ltpFR	0	1	n/a	STAFF	1365	4	n/a	n/a	n/a	n/a	n/a	n/a
4052.466	n/a	RECOG_RESP	2026233	n/a	LTP067	ltpFR	0	1	n/a	STAFF	1365	n/a	n/a	n/a	n/a	n/a	n/a	n/a
4053.652	n/a	RECOG_CONF	2026826	n/a	LTP067	ltpFR	0	1	n/a	STAFF	1365	4	n/a	n/a	n/a	n/a	n/a	n/a
4055.648	n/a	RECOG_TARGET	2027824	n/a	LTP067	ltpFR	0	1	1	PERSONNEL	1053	5	0	n/a	n/a	n/a	n/a	n/a
4056.866	n/a	RECOG_RESP	2028433	n/a	LTP067	ltpFR	0	1	1	PERSONNEL	1053	n/a	0	n/a	n/a	n/a	n/a	n/a
4058.172	n/a	RECOG_CONF	2029086	n/a	LTP067	ltpFR	0	1	1	PERSONNEL	1053	5	0	n/a	n/a	n/a	n/a	n/a
4067.886	n/a	REC_START	2033943	n/a	LTP067	ltpFR	0	2	n/a	n/a	n/a	n/a	n/a	n/a	n/a	n/a	n/a	n/a
4067.91	n/a	RECOG_LURE	2033955	n/a	LTP067	ltpFR	0	2	n/a	STY	1397	5	n/a	n/a	n/a	n/a	n/a	n/a
4068.974	n/a	RECOG_RESP	2034487	n/a	LTP067	ltpFR	0	2	n/a	STY	1397	n/a	n/a	n/a	n/a	n/a	n/a	n/a
4070.072	n/a	RECOG_CONF	2035036	n/a	LTP067	ltpFR	0	2	n/a	STY	1397	5	n/a	n/a	n/a	n/a	n/a	n/a
4071.78	n/a	RECOG_LURE	2035890	n/a	LTP067	ltpFR	0	2	n/a	HUSBAND	728	4	n/a	n/a	n/a	n/a	n/a	n/a
4072.586	n/a	RECOG_RESP	2036293	n/a	LTP067	ltpFR	0	2	n/a	HUSBAND	728	n/a	n/a	n/a	n/a	n/a	n/a	n/a
4073.778	n/a	RECOG_CONF	2036889	n/a	LTP067	ltpFR	0	2	n/a	HUSBAND	728	4	n/a	n/a	n/a	n/a	n/a	n/a
4075.5	n/a	RECOG_TARGET	2037750	n/a	LTP067	ltpFR	0	2	0	DRINK	498	2	0	n/a	n/a	n/a	n/a	n/a
4077.374	n/a	RECOG_RESP	2038687	n/a	LTP067	ltpFR	0	2	0	DRINK	498	n/a	0	n/a	n/a	n/a	n/a	n/a
4078.392	n/a	RECOG_CONF	2039196	n/a	LTP067	ltpFR	0	2	0	DRINK	498	2	0	n/a	n/a	n/a	n/a	n/a
4080.096	n/a	RECOG_LURE	2040048	n/a	LTP067	ltpFR	0	2	n/a	JOKER	759	4	n/a	n/a	n/a	n/a	n/a	n/a
4081.282	n/a	RECOG_RESP	2040641	n/a	LTP067	ltpFR	0	2	n/a	JOKER	759	n/a	n/a	n/a	n/a	n/a	n/a	n/a
4082.428	n/a	RECOG_CONF	2041214	n/a	LTP067	ltpFR	0	2	n/a	JOKER	759	4	n/a	n/a	n/a	n/a	n/a	n/a
4084.116	n/a	RECOG_LURE	2042058	n/a	LTP067	ltpFR	0	2	n/a	TRAITOR	1495	5	n/a	n/a	n/a	n/a	n/a	n/a
4084.924	n/a	RECOG_RESP	2042462	n/a	LTP067	ltpFR	0	2	n/a	TRAITOR	1495	n/a	n/a	n/a	n/a	n/a	n/a	n/a
4085.862	n/a	RECOG_CONF	2042931	n/a	LTP067	ltpFR	0	2	n/a	TRAITOR	1495	5	n/a	n/a	n/a	n/a	n/a	n/a
4087.562	n/a	RECOG_LURE	2043781	n/a	LTP067	ltpFR	0	2	n/a	ANKLE	24	4	n/a	n/a	n/a	n/a	n/a	n/a
4088.356	n/a	RECOG_RESP	2044178	n/a	LTP067	ltpFR	0	2	n/a	ANKLE	24	n/a	n/a	n/a	n/a	n/a	n/a	n/a
4089.388	n/a	RECOG_CONF	2044694	n/a	LTP067	ltpFR	0	2	n/a	ANKLE	24	4	n/a	n/a	n/a	n/a	n/a	n/a
4091.158	n/a	RECOG_LURE	2045579	n/a	LTP067	ltpFR	0	2	n/a	BIOLOGIST	128	5	n/a	n/a	n/a	n/a	n/a	n/a
4092.452	n/a	RECOG_RESP	2046226	n/a	LTP067	ltpFR	0	2	n/a	BIOLOGIST	128	n/a	n/a	n/a	n/a	n/a	n/a	n/a
4093.48	n/a	RECOG_CONF	2046740	n/a	LTP067	ltpFR	0	2	n/a	BIOLOGIST	128	5	n/a	n/a	n/a	n/a	n/a	n/a
4095.378	n/a	RECOG_TARGET	2047689	n/a	LTP067	ltpFR	0	2	-1	STETHOSCOPE	1379	5	-1	n/a	n/a	n/a	n/a	n/a
4096.512	n/a	RECOG_RESP	2048256	n/a	LTP067	ltpFR	0	2	-1	STETHOSCOPE	1379	n/a	-1	n/a	n/a	n/a	n/a	n/a
4097.366	n/a	RECOG_CONF	2048683	n/a	LTP067	ltpFR	0	2	-1	STETHOSCOPE	1379	5	-1	n/a	n/a	n/a	n/a	n/a
4099.248	n/a	RECOG_LURE	2049624	n/a	LTP067	ltpFR	0	2	n/a	SPHINX	1349	5	n/a	n/a	n/a	n/a	n/a	n/a
4100.144	n/a	RECOG_RESP	2050072	n/a	LTP067	ltpFR	0	2	n/a	SPHINX	1349	n/a	n/a	n/a	n/a	n/a	n/a	n/a
4101.096	n/a	RECOG_CONF	2050548	n/a	LTP067	ltpFR	0	2	n/a	SPHINX	1349	5	n/a	n/a	n/a	n/a	n/a	n/a
4102.804	n/a	RECOG_TARGET	2051402	n/a	LTP067	ltpFR	0	2	1	LOUNGE	845	4	0	n/a	n/a	n/a	n/a	n/a
4103.686	n/a	RECOG_RESP	2051843	n/a	LTP067	ltpFR	0	2	1	LOUNGE	845	n/a	0	n/a	n/a	n/a	n/a	n/a
4104.548	n/a	RECOG_CONF	2052274	n/a	LTP067	ltpFR	0	2	1	LOUNGE	845	4	0	n/a	n/a	n/a	n/a	n/a
4106.164	n/a	RECOG_TARGET	2053082	n/a	LTP067	ltpFR	0	2	1	SUBMARINE	1398	5	0	n/a	n/a	n/a	n/a	n/a
4107.258	n/a	RECOG_RESP	2053629	n/a	LTP067	ltpFR	0	2	1	SUBMARINE	1398	n/a	0	n/a	n/a	n/a	n/a	n/a
4108.126	n/a	RECOG_CONF	2054063	n/a	LTP067	ltpFR	0	2	1	SUBMARINE	1398	5	0	n/a	n/a	n/a	n/a	n/a
4110.302	n/a	RECOG_TARGET	2055151	n/a	LTP067	ltpFR	0	2	-1	WAGON	1578	5	-1	n/a	n/a	n/a	n/a	n/a
4111.578	n/a	RECOG_RESP	2055789	n/a	LTP067	ltpFR	0	2	-1	WAGON	1578	n/a	-1	n/a	n/a	n/a	n/a	n/a
4112.342	n/a	RECOG_CONF	2056171	n/a	LTP067	ltpFR	0	2	-1	WAGON	1578	5	-1	n/a	n/a	n/a	n/a	n/a
4114.188	n/a	RECOG_LURE	2057094	n/a	LTP067	ltpFR	0	2	n/a	PUZZLE	1146	5	n/a	n/a	n/a	n/a	n/a	n/a
4115.13	n/a	RECOG_RESP	2057565	n/a	LTP067	ltpFR	0	2	n/a	PUZZLE	1146	n/a	n/a	n/a	n/a	n/a	n/a	n/a
4115.794	n/a	RECOG_CONF	2057897	n/a	LTP067	ltpFR	0	2	n/a	PUZZLE	1146	5	n/a	n/a	n/a	n/a	n/a	n/a
4117.478	n/a	RECOG_LURE	2058739	n/a	LTP067	ltpFR	0	2	n/a	BUCKLE	185	2	n/a	n/a	n/a	n/a	n/a	n/a
4119.032	n/a	RECOG_RESP	2059516	n/a	LTP067	ltpFR	0	2	n/a	BUCKLE	185	n/a	n/a	n/a	n/a	n/a	n/a	n/a
4120.204	n/a	RECOG_CONF	2060102	n/a	LTP067	ltpFR	0	2	n/a	BUCKLE	185	2	n/a	n/a	n/a	n/a	n/a	n/a
4121.864	n/a	RECOG_LURE	2060932	n/a	LTP067	ltpFR	0	2	n/a	SCOUT	1252	3	n/a	n/a	n/a	n/a	n/a	n/a
4123.156	n/a	RECOG_RESP	2061578	n/a	LTP067	ltpFR	0	2	n/a	SCOUT	1252	n/a	n/a	n/a	n/a	n/a	n/a	n/a
4124.214	n/a	RECOG_CONF	2062107	n/a	LTP067	ltpFR	0	2	n/a	SCOUT	1252	3	n/a	n/a	n/a	n/a	n/a	n/a
4125.892	n/a	RECOG_LURE	2062946	n/a	LTP067	ltpFR	0	2	n/a	KITE	779	5	n/a	n/a	n/a	n/a	n/a	n/a
4126.784	n/a	RECOG_RESP	2063392	n/a	LTP067	ltpFR	0	2	n/a	KITE	779	n/a	n/a	n/a	n/a	n/a	n/a	n/a
4127.802	n/a	RECOG_CONF	2063901	n/a	LTP067	ltpFR	0	2	n/a	KITE	779	5	n/a	n/a	n/a	n/a	n/a	n/a
4129.446	n/a	RECOG_LURE	2064723	n/a	LTP067	ltpFR	0	2	n/a	DOOR	486	4	n/a	n/a	n/a	n/a	n/a	n/a
4130.386	n/a	RECOG_RESP	2065193	n/a	LTP067	ltpFR	0	2	n/a	DOOR	486	n/a	n/a	n/a	n/a	n/a	n/a	n/a
4131.312	n/a	RECOG_CONF	2065656	n/a	LTP067	ltpFR	0	2	n/a	DOOR	486	4	n/a	n/a	n/a	n/a	n/a	n/a
4133.092	n/a	RECOG_TARGET	2066546	n/a	LTP067	ltpFR	0	2	0	SHOWER	1296	4	1	n/a	n/a	n/a	n/a	n/a
4134.366	n/a	RECOG_RESP	2067183	n/a	LTP067	ltpFR	0	2	0	SHOWER	1296	n/a	1	n/a	n/a	n/a	n/a	n/a
4135.868	n/a	RECOG_CONF	2067934	n/a	LTP067	ltpFR	0	2	0	SHOWER	1296	4	1	n/a	n/a	n/a	n/a	n/a
4137.53	n/a	RECOG_LURE	2068765	n/a	LTP067	ltpFR	0	2	n/a	STAKE	1368	5	n/a	n/a	n/a	n/a	n/a	n/a
4138.546	n/a	RECOG_RESP	2069273	n/a	LTP067	ltpFR	0	2	n/a	STAKE	1368	n/a	n/a	n/a	n/a	n/a	n/a	n/a
4139.244	n/a	RECOG_CONF	2069622	n/a	LTP067	ltpFR	0	2	n/a	STAKE	1368	5	n/a	n/a	n/a	n/a	n/a	n/a
4140.992	n/a	RECOG_LURE	2070496	n/a	LTP067	ltpFR	0	2	n/a	TEENAGER	1444	4	n/a	n/a	n/a	n/a	n/a	n/a
4142.602	n/a	RECOG_RESP	2071301	n/a	LTP067	ltpFR	0	2	n/a	TEENAGER	1444	n/a	n/a	n/a	n/a	n/a	n/a	n/a
4143.48	n/a	RECOG_CONF	2071740	n/a	LTP067	ltpFR	0	2	n/a	TEENAGER	1444	4	n/a	n/a	n/a	n/a	n/a	n/a
4164.506	n/a	REC_START	2082253	n/a	LTP067	ltpFR	0	3	n/a	n/a	n/a	n/a	n/a	n/a	n/a	n/a	n/a	n/a
4164.532	n/a	RECOG_LURE	2082266	n/a	LTP067	ltpFR	0	3	n/a	SHOE	1288	4	n/a	n/a	n/a	n/a	n/a	n/a
4165.792	n/a	RECOG_RESP	2082896	n/a	LTP067	ltpFR	0	3	n/a	SHOE	1288	n/a	n/a	n/a	n/a	n/a	n/a	n/a
4166.75	n/a	RECOG_CONF	2083375	n/a	LTP067	ltpFR	0	3	n/a	SHOE	1288	4	n/a	n/a	n/a	n/a	n/a	n/a
4168.378	n/a	RECOG_LURE	2084189	n/a	LTP067	ltpFR	0	3	n/a	DOCTOR	478	2	n/a	n/a	n/a	n/a	n/a	n/a
4169.488	n/a	RECOG_RESP	2084744	n/a	LTP067	ltpFR	0	3	n/a	DOCTOR	478	n/a	n/a	n/a	n/a	n/a	n/a	n/a
4170.526	n/a	RECOG_CONF	2085263	n/a	LTP067	ltpFR	0	3	n/a	DOCTOR	478	2	n/a	n/a	n/a	n/a	n/a	n/a
4171.974	n/a	RECOG_TARGET	2085987	n/a	LTP067	ltpFR	0	3	1	PENCIL	1042	4	0	n/a	n/a	n/a	n/a	n/a
4172.876	n/a	RECOG_RESP	2086438	n/a	LTP067	ltpFR	0	3	1	PENCIL	1042	n/a	0	n/a	n/a	n/a	n/a	n/a
4173.868	n/a	RECOG_CONF	2086934	n/a	LTP067	ltpFR	0	3	1	PENCIL	1042	4	0	n/a	n/a	n/a	n/a	n/a
4175.536	n/a	RECOG_LURE	2087768	n/a	LTP067	ltpFR	0	3	n/a	ROPE	1211	3	n/a	n/a	n/a	n/a	n/a	n/a
4176.698	n/a	RECOG_RESP	2088349	n/a	LTP067	ltpFR	0	3	n/a	ROPE	1211	n/a	n/a	n/a	n/a	n/a	n/a	n/a
4177.58	n/a	RECOG_CONF	2088790	n/a	LTP067	ltpFR	0	3	n/a	ROPE	1211	3	n/a	n/a	n/a	n/a	n/a	n/a
4179.172	n/a	RECOG_TARGET	2089586	n/a	LTP067	ltpFR	0	3	1	SKIN	1318	5	1	n/a	n/a	n/a	n/a	n/a
4180.23	n/a	RECOG_RESP	2090115	n/a	LTP067	ltpFR	0	3	1	SKIN	1318	n/a	1	n/a	n/a	n/a	n/a	n/a
4181.042	n/a	RECOG_CONF	2090521	n/a	LTP067	ltpFR	0	3	1	SKIN	1318	5	1	n/a	n/a	n/a	n/a	n/a
4182.844	n/a	RECOG_LURE	2091422	n/a	LTP067	ltpFR	0	3	n/a	PARCEL	1012	5	n/a	n/a	n/a	n/a	n/a	n/a
4183.696	n/a	RECOG_RESP	2091848	n/a	LTP067	ltpFR	0	3	n/a	PARCEL	1012	n/a	n/a	n/a	n/a	n/a	n/a	n/a
4184.574	n/a	RECOG_CONF	2092287	n/a	LTP067	ltpFR	0	3	n/a	PARCEL	1012	5	n/a	n/a	n/a	n/a	n/a	n/a
4186.188	n/a	RECOG_LURE	2093094	n/a	LTP067	ltpFR	0	3	n/a	BULLETIN	195	5	n/a	n/a	n/a	n/a	n/a	n/a
4187.288	n/a	RECOG_RESP	2093644	n/a	LTP067	ltpFR	0	3	n/a	BULLETIN	195	n/a	n/a	n/a	n/a	n/a	n/a	n/a
4188.332	n/a	RECOG_CONF	2094166	n/a	LTP067	ltpFR	0	3	n/a	BULLETIN	195	5	n/a	n/a	n/a	n/a	n/a	n/a
4189.978	n/a	RECOG_LURE	2094989	n/a	LTP067	ltpFR	0	3	n/a	PORPOISE	1109	5	n/a	n/a	n/a	n/a	n/a	n/a
4190.83	n/a	RECOG_RESP	2095415	n/a	LTP067	ltpFR	0	3	n/a	PORPOISE	1109	n/a	n/a	n/a	n/a	n/a	n/a	n/a
4191.6	n/a	RECOG_CONF	2095800	n/a	LTP067	ltpFR	0	3	n/a	PORPOISE	1109	5	n/a	n/a	n/a	n/a	n/a	n/a
4193.348	n/a	RECOG_LURE	2096674	n/a	LTP067	ltpFR	0	3	n/a	HEATER	698	5	n/a	n/a	n/a	n/a	n/a	n/a
4194.018	n/a	RECOG_RESP	2097009	n/a	LTP067	ltpFR	0	3	n/a	HEATER	698	n/a	n/a	n/a	n/a	n/a	n/a	n/a
4194.712	n/a	RECOG_CONF	2097356	n/a	LTP067	ltpFR	0	3	n/a	HEATER	698	5	n/a	n/a	n/a	n/a	n/a	n/a
4196.428	n/a	RECOG_TARGET	2098214	n/a	LTP067	ltpFR	0	3	-1	CONSOLE	364	5	-1	n/a	n/a	n/a	n/a	n/a
4197.2	n/a	RECOG_RESP	2098600	n/a	LTP067	ltpFR	0	3	-1	CONSOLE	364	n/a	-1	n/a	n/a	n/a	n/a	n/a
4198.014	n/a	RECOG_CONF	2099007	n/a	LTP067	ltpFR	0	3	-1	CONSOLE	364	5	-1	n/a	n/a	n/a	n/a	n/a
4199.582	n/a	RECOG_LURE	2099791	n/a	LTP067	ltpFR	0	3	n/a	PLAID	1080	4	n/a	n/a	n/a	n/a	n/a	n/a
4200.548	n/a	RECOG_RESP	2100274	n/a	LTP067	ltpFR	0	3	n/a	PLAID	1080	n/a	n/a	n/a	n/a	n/a	n/a	n/a
4201.73	n/a	RECOG_CONF	2100865	n/a	LTP067	ltpFR	0	3	n/a	PLAID	1080	4	n/a	n/a	n/a	n/a	n/a	n/a
4203.362	n/a	RECOG_LURE	2101681	n/a	LTP067	ltpFR	0	3	n/a	BELLY	119	4	n/a	n/a	n/a	n/a	n/a	n/a
4204.304	n/a	RECOG_RESP	2102152	n/a	LTP067	ltpFR	0	3	n/a	BELLY	119	n/a	n/a	n/a	n/a	n/a	n/a	n/a
4205.022	n/a	RECOG_CONF	2102511	n/a	LTP067	ltpFR	0	3	n/a	BELLY	119	4	n/a	n/a	n/a	n/a	n/a	n/a
4206.824	n/a	RECOG_TARGET	2103412	n/a	LTP067	ltpFR	0	3	-1	UNCLE	1536	3	-1	n/a	n/a	n/a	n/a	n/a
4208.036	n/a	RECOG_RESP	2104018	n/a	LTP067	ltpFR	0	3	-1	UNCLE	1536	n/a	-1	n/a	n/a	n/a	n/a	n/a
4208.84	n/a	RECOG_CONF	2104420	n/a	LTP067	ltpFR	0	3	-1	UNCLE	1536	3	-1	n/a	n/a	n/a	n/a	n/a
4210.52	n/a	RECOG_TARGET	2105260	n/a	LTP067	ltpFR	0	3	0	SURGEON	1413	2	1	n/a	n/a	n/a	n/a	n/a
4211.942	n/a	RECOG_RESP	2105971	n/a	LTP067	ltpFR	0	3	0	SURGEON	1413	n/a	1	n/a	n/a	n/a	n/a	n/a
4213.21	n/a	RECOG_CONF	2106605	n/a	LTP067	ltpFR	0	3	0	SURGEON	1413	2	1	n/a	n/a	n/a	n/a	n/a
4214.806	n/a	RECOG_TARGET	2107403	n/a	LTP067	ltpFR	0	3	1	RIBBON	1189	2	0	n/a	n/a	n/a	n/a	n/a
4216.378	n/a	RECOG_RESP	2108189	n/a	LTP067	ltpFR	0	3	1	RIBBON	1189	n/a	0	n/a	n/a	n/a	n/a	n/a
4217.814	n/a	RECOG_CONF	2108907	n/a	LTP067	ltpFR	0	3	1	RIBBON	1189	2	0	n/a	n/a	n/a	n/a	n/a
4219.592	n/a	RECOG_LURE	2109796	n/a	LTP067	ltpFR	0	3	n/a	ABDOMEN	1	3	n/a	n/a	n/a	n/a	n/a	n/a
4220.772	n/a	RECOG_RESP	2110386	n/a	LTP067	ltpFR	0	3	n/a	ABDOMEN	1	n/a	n/a	n/a	n/a	n/a	n/a	n/a
4221.764	n/a	RECOG_CONF	2110882	n/a	LTP067	ltpFR	0	3	n/a	ABDOMEN	1	3	n/a	n/a	n/a	n/a	n/a	n/a
4223.522	n/a	RECOG_LURE	2111761	n/a	LTP067	ltpFR	0	3	n/a	LEAF	808	3	n/a	n/a	n/a	n/a	n/a	n/a
4224.404	n/a	RECOG_RESP	2112202	n/a	LTP067	ltpFR	0	3	n/a	LEAF	808	n/a	n/a	n/a	n/a	n/a	n/a	n/a
4225.362	n/a	RECOG_CONF	2112681	n/a	LTP067	ltpFR	0	3	n/a	LEAF	808	3	n/a	n/a	n/a	n/a	n/a	n/a
4227.034	n/a	RECOG_LURE	2113517	n/a	LTP067	ltpFR	0	3	n/a	SHEEP	1278	3	n/a	n/a	n/a	n/a	n/a	n/a
4228.086	n/a	RECOG_RESP	2114043	n/a	LTP067	ltpFR	0	3	n/a	SHEEP	1278	n/a	n/a	n/a	n/a	n/a	n/a	n/a
4228.968	n/a	RECOG_CONF	2114484	n/a	LTP067	ltpFR	0	3	n/a	SHEEP	1278	3	n/a	n/a	n/a	n/a	n/a	n/a
4230.58	n/a	RECOG_LURE	2115290	n/a	LTP067	ltpFR	0	3	n/a	THIEF	1456	3	n/a	n/a	n/a	n/a	n/a	n/a
4232.954	n/a	RECOG_RESP	2116477	n/a	LTP067	ltpFR	0	3	n/a	THIEF	1456	n/a	n/a	n/a	n/a	n/a	n/a	n/a
4233.882	n/a	RECOG_CONF	2116941	n/a	LTP067	ltpFR	0	3	n/a	THIEF	1456	3	n/a	n/a	n/a	n/a	n/a	n/a
4235.566	n/a	RECOG_TARGET	2117783	n/a	LTP067	ltpFR	0	3	-1	BOAT	144	3	-1	n/a	n/a	n/a	n/a	n/a
4236.632	n/a	RECOG_RESP	2118316	n/a	LTP067	ltpFR	0	3	-1	BOAT	144	n/a	-1	n/a	n/a	n/a	n/a	n/a
4237.566	n/a	RECOG_CONF	2118783	n/a	LTP067	ltpFR	0	3	-1	BOAT	144	3	-1	n/a	n/a	n/a	n/a	n/a
4241.042	n/a	REC_START	2120521	n/a	LTP067	ltpFR	0	4	n/a	n/a	n/a	n/a	n/a	n/a	n/a	n/a	n/a	n/a
4241.068	n/a	RECOG_TARGET	2120534	n/a	LTP067	ltpFR	0	4	1	TWINE	1529	5	0	n/a	n/a	n/a	n/a	n/a
4242.09	n/a	RECOG_RESP	2121045	n/a	LTP067	ltpFR	0	4	1	TWINE	1529	n/a	0	n/a	n/a	n/a	n/a	n/a
4242.77	n/a	RECOG_CONF	2121385	n/a	LTP067	ltpFR	0	4	1	TWINE	1529	5	0	n/a	n/a	n/a	n/a	n/a
4244.34	n/a	RECOG_TARGET	2122170	n/a	LTP067	ltpFR	0	4	1	SNAKE	1333	5	1	n/a	n/a	n/a	n/a	n/a
4245.152	n/a	RECOG_RESP	2122576	n/a	LTP067	ltpFR	0	4	1	SNAKE	1333	n/a	1	n/a	n/a	n/a	n/a	n/a
4245.826	n/a	RECOG_CONF	2122913	n/a	LTP067	ltpFR	0	4	1	SNAKE	1333	5	1	n/a	n/a	n/a	n/a	n/a
4247.544	n/a	RECOG_TARGET	2123772	n/a	LTP067	ltpFR	0	4	0	SEA	1259	5	1	n/a	n/a	n/a	n/a	n/a
4248.426	n/a	RECOG_RESP	2124213	n/a	LTP067	ltpFR	0	4	0	SEA	1259	n/a	1	n/a	n/a	n/a	n/a	n/a
4249.128	n/a	RECOG_CONF	2124564	n/a	LTP067	ltpFR	0	4	0	SEA	1259	5	1	n/a	n/a	n/a	n/a	n/a
4250.666	n/a	RECOG_TARGET	2125333	n/a	LTP067	ltpFR	0	4	-1	WALNUT	1584	5	-1	n/a	n/a	n/a	n/a	n/a
4251.654	n/a	RECOG_RESP	2125827	n/a	LTP067	ltpFR	0	4	-1	WALNUT	1584	n/a	-1	n/a	n/a	n/a	n/a	n/a
4252.426	n/a	RECOG_CONF	2126213	n/a	LTP067	ltpFR	0	4	-1	WALNUT	1584	5	-1	n/a	n/a	n/a	n/a	n/a
4253.994	n/a	RECOG_LURE	2126997	n/a	LTP067	ltpFR	0	4	n/a	SCIENTIST	1249	4	n/a	n/a	n/a	n/a	n/a	n/a
4255.06	n/a	RECOG_RESP	2127530	n/a	LTP067	ltpFR	0	4	n/a	SCIENTIST	1249	n/a	n/a	n/a	n/a	n/a	n/a	n/a
4255.794	n/a	RECOG_CONF	2127897	n/a	LTP067	ltpFR	0	4	n/a	SCIENTIST	1249	4	n/a	n/a	n/a	n/a	n/a	n/a
4257.332	n/a	RECOG_LURE	2128666	n/a	LTP067	ltpFR	0	4	n/a	DEER	444	4	n/a	n/a	n/a	n/a	n/a	n/a
4258.088	n/a	RECOG_RESP	2129044	n/a	LTP067	ltpFR	0	4	n/a	DEER	444	n/a	n/a	n/a	n/a	n/a	n/a	n/a
4258.786	n/a	RECOG_CONF	2129393	n/a	LTP067	ltpFR	0	4	n/a	DEER	444	4	n/a	n/a	n/a	n/a	n/a	n/a
4260.528	n/a	RECOG_TARGET	2130264	n/a	LTP067	ltpFR	0	4	0	SUITCASE	1403	5	1	n/a	n/a	n/a	n/a	n/a
4261.626	n/a	RECOG_RESP	2130813	n/a	LTP067	ltpFR	0	4	0	SUITCASE	1403	n/a	1	n/a	n/a	n/a	n/a	n/a
4262.29	n/a	RECOG_CONF	2131145	n/a	LTP067	ltpFR	0	4	0	SUITCASE	1403	5	1	n/a	n/a	n/a	n/a	n/a
4263.934	n/a	RECOG_TARGET	2131967	n/a	LTP067	ltpFR	0	4	0	WALL	1582	5	1	n/a	n/a	n/a	n/a	n/a
4265.008	n/a	RECOG_RESP	2132504	n/a	LTP067	ltpFR	0	4	0	WALL	1582	n/a	1	n/a	n/a	n/a	n/a	n/a
4265.742	n/a	RECOG_CONF	2132871	n/a	LTP067	ltpFR	0	4	0	WALL	1582	5	1	n/a	n/a	n/a	n/a	n/a
4267.42	n/a	RECOG_TARGET	2133710	n/a	LTP067	ltpFR	0	4	0	BEAVER	109	5	1	n/a	n/a	n/a	n/a	n/a
4268.126	n/a	RECOG_RESP	2134063	n/a	LTP067	ltpFR	0	4	0	BEAVER	109	n/a	1	n/a	n/a	n/a	n/a	n/a
4268.824	n/a	RECOG_CONF	2134412	n/a	LTP067	ltpFR	0	4	0	BEAVER	109	5	1	n/a	n/a	n/a	n/a	n/a
4270.392	n/a	RECOG_LURE	2135196	n/a	LTP067	ltpFR	0	4	n/a	RING	1193	5	n/a	n/a	n/a	n/a	n/a	n/a
4271.154	n/a	RECOG_RESP	2135577	n/a	LTP067	ltpFR	0	4	n/a	RING	1193	n/a	n/a	n/a	n/a	n/a	n/a	n/a
4272.132	n/a	RECOG_CONF	2136066	n/a	LTP067	ltpFR	0	4	n/a	RING	1193	5	n/a	n/a	n/a	n/a	n/a	n/a
4273.664	n/a	RECOG_LURE	2136832	n/a	LTP067	ltpFR	0	4	n/a	BOARD	143	3	n/a	n/a	n/a	n/a	n/a	n/a
4275.164	n/a	RECOG_RESP	2137582	n/a	LTP067	ltpFR	0	4	n/a	BOARD	143	n/a	n/a	n/a	n/a	n/a	n/a	n/a
4276.142	n/a	RECOG_CONF	2138071	n/a	LTP067	ltpFR	0	4	n/a	BOARD	143	3	n/a	n/a	n/a	n/a	n/a	n/a
4277.684	n/a	RECOG_LURE	2138842	n/a	LTP067	ltpFR	0	4	n/a	WORKER	1621	5	n/a	n/a	n/a	n/a	n/a	n/a
4278.578	n/a	RECOG_RESP	2139289	n/a	LTP067	ltpFR	0	4	n/a	WORKER	1621	n/a	n/a	n/a	n/a	n/a	n/a	n/a
4279.3	n/a	RECOG_CONF	2139650	n/a	LTP067	ltpFR	0	4	n/a	WORKER	1621	5	n/a	n/a	n/a	n/a	n/a	n/a
4280.814	n/a	RECOG_TARGET	2140407	n/a	LTP067	ltpFR	0	4	-1	SWIMMER	1420	3	-1	n/a	n/a	n/a	n/a	n/a
4282.548	n/a	RECOG_RESP	2141274	n/a	LTP067	ltpFR	0	4	-1	SWIMMER	1420	n/a	-1	n/a	n/a	n/a	n/a	n/a
4283.51	n/a	RECOG_CONF	2141755	n/a	LTP067	ltpFR	0	4	-1	SWIMMER	1420	3	-1	n/a	n/a	n/a	n/a	n/a
4285.19	n/a	RECOG_LURE	2142595	n/a	LTP067	ltpFR	0	4	n/a	STADIUM	1364	4	n/a	n/a	n/a	n/a	n/a	n/a
4286.196	n/a	RECOG_RESP	2143098	n/a	LTP067	ltpFR	0	4	n/a	STADIUM	1364	n/a	n/a	n/a	n/a	n/a	n/a	n/a
4286.724	n/a	RECOG_CONF	2143362	n/a	LTP067	ltpFR	0	4	n/a	STADIUM	1364	4	n/a	n/a	n/a	n/a	n/a	n/a
4289.794	n/a	RECOG_LURE	2144897	n/a	LTP067	ltpFR	0	4	n/a	THUMB	1462	3	n/a	n/a	n/a	n/a	n/a	n/a
4291.678	n/a	RECOG_RESP	2145839	n/a	LTP067	ltpFR	0	4	n/a	THUMB	1462	n/a	n/a	n/a	n/a	n/a	n/a	n/a
4292.854	n/a	RECOG_CONF	2146427	n/a	LTP067	ltpFR	0	4	n/a	THUMB	1462	3	n/a	n/a	n/a	n/a	n/a	n/a
4294.332	n/a	RECOG_TARGET	2147166	n/a	LTP067	ltpFR	0	4	0	NEST	945	5	0	n/a	n/a	n/a	n/a	n/a
4295.438	n/a	RECOG_RESP_VV	2147719	n/a	LTP067	ltpFR	0	4	0	NEST	945	n/a	0	n/a	n/a	n/a	n/a	n/a
4296.532	n/a	RECOG_RESP	2148266	n/a	LTP067	ltpFR	0	4	0	NEST	945	n/a	0	n/a	n/a	n/a	n/a	n/a
4297.768	n/a	RECOG_CONF	2148884	n/a	LTP067	ltpFR	0	4	0	NEST	945	5	0	n/a	n/a	n/a	n/a	n/a
4299.558	n/a	RECOG_LURE	2149779	n/a	LTP067	ltpFR	0	4	n/a	SINK	1309	3	n/a	n/a	n/a	n/a	n/a	n/a
4300.772	n/a	RECOG_RESP	2150386	n/a	LTP067	ltpFR	0	4	n/a	SINK	1309	n/a	n/a	n/a	n/a	n/a	n/a	n/a
4301.734	n/a	RECOG_CONF	2150867	n/a	LTP067	ltpFR	0	4	n/a	SINK	1309	3	n/a	n/a	n/a	n/a	n/a	n/a
4303.278	n/a	RECOG_TARGET	2151639	n/a	LTP067	ltpFR	0	4	1	SEAGULL	1261	5	1	n/a	n/a	n/a	n/a	n/a
4304.348	n/a	RECOG_RESP	2152174	n/a	LTP067	ltpFR	0	4	1	SEAGULL	1261	n/a	1	n/a	n/a	n/a	n/a	n/a
4305.292	n/a	RECOG_CONF	2152646	n/a	LTP067	ltpFR	0	4	1	SEAGULL	1261	5	1	n/a	n/a	n/a	n/a	n/a
4307.074	n/a	RECOG_TARGET	2153537	n/a	LTP067	ltpFR	0	4	0	MEADOW	881	5	1	n/a	n/a	n/a	n/a	n/a
4307.816	n/a	RECOG_RESP	2153908	n/a	LTP067	ltpFR	0	4	0	MEADOW	881	n/a	1	n/a	n/a	n/a	n/a	n/a
4308.638	n/a	RECOG_CONF	2154319	n/a	LTP067	ltpFR	0	4	0	MEADOW	881	5	1	n/a	n/a	n/a	n/a	n/a
4310.136	n/a	RECOG_LURE	2155068	n/a	LTP067	ltpFR	0	4	n/a	SLOPE	1328	3	n/a	n/a	n/a	n/a	n/a	n/a
4311.134	n/a	RECOG_RESP	2155567	n/a	LTP067	ltpFR	0	4	n/a	SLOPE	1328	n/a	n/a	n/a	n/a	n/a	n/a	n/a
4311.856	n/a	RECOG_CONF	2155928	n/a	LTP067	ltpFR	0	4	n/a	SLOPE	1328	3	n/a	n/a	n/a	n/a	n/a	n/a
4315.26	n/a	REC_START	2157630	n/a	LTP067	ltpFR	0	5	n/a	n/a	n/a	n/a	n/a	n/a	n/a	n/a	n/a	n/a
4315.288	n/a	RECOG_TARGET	2157644	n/a	LTP067	ltpFR	0	5	1	PEACH	1031	5	1	n/a	n/a	n/a	n/a	n/a
4316.244	n/a	RECOG_RESP	2158122	n/a	LTP067	ltpFR	0	5	1	PEACH	1031	n/a	1	n/a	n/a	n/a	n/a	n/a
4316.948	n/a	RECOG_CONF	2158474	n/a	LTP067	ltpFR	0	5	1	PEACH	1031	5	1	n/a	n/a	n/a	n/a	n/a
4318.438	n/a	RECOG_LURE	2159219	n/a	LTP067	ltpFR	0	5	n/a	BEAST	108	5	n/a	n/a	n/a	n/a	n/a	n/a
4319.352	n/a	RECOG_RESP	2159676	n/a	LTP067	ltpFR	0	5	n/a	BEAST	108	n/a	n/a	n/a	n/a	n/a	n/a	n/a
4320.036	n/a	RECOG_CONF	2160018	n/a	LTP067	ltpFR	0	5	n/a	BEAST	108	5	n/a	n/a	n/a	n/a	n/a	n/a
4321.508	n/a	RECOG_LURE	2160754	n/a	LTP067	ltpFR	0	5	n/a	DENTIST	447	3	n/a	n/a	n/a	n/a	n/a	n/a
4322.76	n/a	RECOG_RESP	2161380	n/a	LTP067	ltpFR	0	5	n/a	DENTIST	447	n/a	n/a	n/a	n/a	n/a	n/a	n/a
4323.522	n/a	RECOG_CONF	2161761	n/a	LTP067	ltpFR	0	5	n/a	DENTIST	447	3	n/a	n/a	n/a	n/a	n/a	n/a
4324.904	n/a	RECOG_TARGET	2162452	n/a	LTP067	ltpFR	0	5	0	DAUGHTER	442	5	1	n/a	n/a	n/a	n/a	n/a
4326.032	n/a	RECOG_RESP	2163016	n/a	LTP067	ltpFR	0	5	0	DAUGHTER	442	n/a	1	n/a	n/a	n/a	n/a	n/a
4327.224	n/a	RECOG_CONF	2163612	n/a	LTP067	ltpFR	0	5	0	DAUGHTER	442	5	1	n/a	n/a	n/a	n/a	n/a
4328.8	n/a	RECOG_TARGET	2164400	n/a	LTP067	ltpFR	0	5	1	WART	1590	5	0	n/a	n/a	n/a	n/a	n/a
4329.518	n/a	RECOG_RESP	2164759	n/a	LTP067	ltpFR	0	5	1	WART	1590	n/a	0	n/a	n/a	n/a	n/a	n/a
4330.426	n/a	RECOG_CONF	2165213	n/a	LTP067	ltpFR	0	5	1	WART	1590	5	0	n/a	n/a	n/a	n/a	n/a
4331.988	n/a	RECOG_TARGET	2165994	n/a	LTP067	ltpFR	0	5	0	CHAMPAGNE	278	5	1	n/a	n/a	n/a	n/a	n/a
4332.572	n/a	RECOG_RESP	2166286	n/a	LTP067	ltpFR	0	5	0	CHAMPAGNE	278	n/a	1	n/a	n/a	n/a	n/a	n/a
4333.494	n/a	RECOG_CONF	2166747	n/a	LTP067	ltpFR	0	5	0	CHAMPAGNE	278	5	1	n/a	n/a	n/a	n/a	n/a
4335.126	n/a	RECOG_LURE	2167563	n/a	LTP067	ltpFR	0	5	n/a	BUFFALO	186	3	n/a	n/a	n/a	n/a	n/a	n/a
4335.81	n/a	RECOG_RESP	2167905	n/a	LTP067	ltpFR	0	5	n/a	BUFFALO	186	n/a	n/a	n/a	n/a	n/a	n/a	n/a
4336.668	n/a	RECOG_CONF	2168334	n/a	LTP067	ltpFR	0	5	n/a	BUFFALO	186	3	n/a	n/a	n/a	n/a	n/a	n/a
4338.122	n/a	RECOG_LURE	2169061	n/a	LTP067	ltpFR	0	5	n/a	RAG	1160	4	n/a	n/a	n/a	n/a	n/a	n/a
4338.722	n/a	RECOG_RESP	2169361	n/a	LTP067	ltpFR	0	5	n/a	RAG	1160	n/a	n/a	n/a	n/a	n/a	n/a	n/a
4339.644	n/a	RECOG_CONF	2169822	n/a	LTP067	ltpFR	0	5	n/a	RAG	1160	4	n/a	n/a	n/a	n/a	n/a	n/a
4341.284	n/a	RECOG_LURE	2170642	n/a	LTP067	ltpFR	0	5	n/a	SHINGLE	1285	5	n/a	n/a	n/a	n/a	n/a	n/a
4342.544	n/a	RECOG_RESP	2171272	n/a	LTP067	ltpFR	0	5	n/a	SHINGLE	1285	n/a	n/a	n/a	n/a	n/a	n/a	n/a
4343.492	n/a	RECOG_CONF	2171746	n/a	LTP067	ltpFR	0	5	n/a	SHINGLE	1285	5	n/a	n/a	n/a	n/a	n/a	n/a
4345.238	n/a	RECOG_LURE	2172619	n/a	LTP067	ltpFR	0	5	n/a	DIGGER	464	5	n/a	n/a	n/a	n/a	n/a	n/a
4346.036	n/a	RECOG_RESP	2173018	n/a	LTP067	ltpFR	0	5	n/a	DIGGER	464	n/a	n/a	n/a	n/a	n/a	n/a	n/a
4346.854	n/a	RECOG_CONF	2173427	n/a	LTP067	ltpFR	0	5	n/a	DIGGER	464	5	n/a	n/a	n/a	n/a	n/a	n/a
4348.486	n/a	RECOG_TARGET	2174243	n/a	LTP067	ltpFR	0	5	-1	OCTOPUS	971	5	-1	n/a	n/a	n/a	n/a	n/a
4349.338	n/a	RECOG_RESP	2174669	n/a	LTP067	ltpFR	0	5	-1	OCTOPUS	971	n/a	-1	n/a	n/a	n/a	n/a	n/a
4351.594	n/a	RECOG_CONF	2175797	n/a	LTP067	ltpFR	0	5	-1	OCTOPUS	971	5	-1	n/a	n/a	n/a	n/a	n/a
4353.388	n/a	RECOG_LURE	2176694	n/a	LTP067	ltpFR	0	5	n/a	BOTTLE	153	5	n/a	n/a	n/a	n/a	n/a	n/a
4354.268	n/a	RECOG_RESP	2177134	n/a	LTP067	ltpFR	0	5	n/a	BOTTLE	153	n/a	n/a	n/a	n/a	n/a	n/a	n/a
4356.282	n/a	RECOG_CONF	2178141	n/a	LTP067	ltpFR	0	5	n/a	BOTTLE	153	5	n/a	n/a	n/a	n/a	n/a	n/a
4357.924	n/a	RECOG_LURE	2178962	n/a	LTP067	ltpFR	0	5	n/a	SCARF	1246	5	n/a	n/a	n/a	n/a	n/a	n/a
