onset	duration	trial_type	sample	stim_file	subject	experiment	session	trial	task	item_name	item_num	recog_conf	resp	color_b	color_g	color_r	case	font
259.682	n/a	SESS_START	129841	n/a	LTP122	ltpFR	4	n/a	n/a	n/a	n/a	2	n/a	n/a	n/a	n/a	n/a	n/a
313.844	n/a	WORD	156922	wordpools/wasnorm_wordpool.txt	LTP122	ltpFR	4	1	1	MICROPHONE	890	n/a	0	0	0.5869140625	0.422607421875	upper	../fonts/amplitud.ttf
317.726	n/a	WORD	158863	wordpools/wasnorm_wordpool.txt	LTP122	ltpFR	4	1	1	STEREO	1378	n/a	0	0	0.5869140625	0.422607421875	upper	../fonts/amplitud.ttf
321.866	n/a	WORD	160933	wordpools/wasnorm_wordpool.txt	LTP122	ltpFR	4	1	0	CLARINET	317	n/a	3	1	0.412841796875	0.57763671875	lower	../fonts/zerothre.ttf
322.808	n/a	KEY_MSG	161404	n/a	LTP122	ltpFR	4	1	n/a	n/a	n/a	n/a	n/a	n/a	n/a	n/a	n/a	n/a
325.748	n/a	WORD	162874	wordpools/wasnorm_wordpool.txt	LTP122	ltpFR	4	1	0	SIRLOIN	1311	n/a	0	1	0.412841796875	0.57763671875	lower	../fonts/zerothre.ttf
329.572	n/a	WORD	164786	wordpools/wasnorm_wordpool.txt	LTP122	ltpFR	4	1	1	MOUSE	925	n/a	1	0	0.5869140625	0.422607421875	upper	../fonts/amplitud.ttf
333.462	n/a	WORD	166731	wordpools/wasnorm_wordpool.txt	LTP122	ltpFR	4	1	1	WOLF	1619	n/a	1	0	0.5869140625	0.422607421875	upper	../fonts/amplitud.ttf
337.436	n/a	WORD	168718	wordpools/wasnorm_wordpool.txt	LTP122	ltpFR	4	1	1	FAIRY	549	n/a	1	0	0.5869140625	0.422607421875	upper	../fonts/amplitud.ttf
341.626	n/a	WORD	170813	wordpools/wasnorm_wordpool.txt	LTP122	ltpFR	4	1	0	PAINTER	1004	n/a	1	1	0.412841796875	0.57763671875	lower	../fonts/zerothre.ttf
345.742	n/a	WORD	172871	wordpools/wasnorm_wordpool.txt	LTP122	ltpFR	4	1	0	CHAMPION	279	n/a	1	1	0.412841796875	0.57763671875	lower	../fonts/zerothre.ttf
349.868	n/a	WORD	174934	wordpools/wasnorm_wordpool.txt	LTP122	ltpFR	4	1	0	RIBBON	1189	n/a	0	1	0.412841796875	0.57763671875	lower	../fonts/zerothre.ttf
353.8	n/a	WORD	176900	wordpools/wasnorm_wordpool.txt	LTP122	ltpFR	4	1	0	OTTER	986	n/a	1	1	0.412841796875	0.57763671875	lower	../fonts/zerothre.ttf
357.956	n/a	WORD	178978	wordpools/wasnorm_wordpool.txt	LTP122	ltpFR	4	1	0	PERCH	1048	n/a	0	1	0.412841796875	0.57763671875	lower	../fonts/zerothre.ttf
361.772	n/a	WORD	180886	wordpools/wasnorm_wordpool.txt	LTP122	ltpFR	4	1	0	CARDINAL	244	n/a	1	1	0.412841796875	0.57763671875	lower	../fonts/zerothre.ttf
365.786	n/a	WORD	182893	wordpools/wasnorm_wordpool.txt	LTP122	ltpFR	4	1	1	TOMATO	1476	n/a	1	0	0.5869140625	0.422607421875	upper	../fonts/amplitud.ttf
369.786	n/a	WORD	184893	wordpools/wasnorm_wordpool.txt	LTP122	ltpFR	4	1	1	SALT	1229	n/a	0	0	0.5869140625	0.422607421875	upper	../fonts/amplitud.ttf
373.818	n/a	WORD	186909	wordpools/wasnorm_wordpool.txt	LTP122	ltpFR	4	1	1	TRUMPET	1513	n/a	0	0	0.5869140625	0.422607421875	upper	../fonts/amplitud.ttf
379.458	n/a	REC_START	189729	n/a	LTP122	ltpFR	4	1	n/a	n/a	n/a	n/a	n/a	n/a	n/a	n/a	n/a	n/a
380.18	n/a	REC_WORD	190090	wordpools/wasnorm_wordpool.txt	LTP122	ltpFR	4	1	1	TOMATO	1476	n/a	1	n/a	n/a	n/a	n/a	n/a
380.914	n/a	REC_WORD	190457	wordpools/wasnorm_wordpool.txt	LTP122	ltpFR	4	1	1	SALT	1229	n/a	0	n/a	n/a	n/a	n/a	n/a
381.778	n/a	REC_WORD	190889	wordpools/wasnorm_wordpool.txt	LTP122	ltpFR	4	1	1	TRUMPET	1513	n/a	0	n/a	n/a	n/a	n/a	n/a
382.59	n/a	REC_WORD	191295	wordpools/wasnorm_wordpool.txt	LTP122	ltpFR	4	1	0	PERCH	1048	n/a	0	n/a	n/a	n/a	n/a	n/a
383.558	n/a	REC_WORD	191779	wordpools/wasnorm_wordpool.txt	LTP122	ltpFR	4	1	0	CARDINAL	244	n/a	1	n/a	n/a	n/a	n/a	n/a
384.396	n/a	REC_WORD	192198	wordpools/wasnorm_wordpool.txt	LTP122	ltpFR	4	1	0	CLARINET	317	n/a	3	n/a	n/a	n/a	n/a	n/a
386.228	n/a	REC_WORD	193114	wordpools/wasnorm_wordpool.txt	LTP122	ltpFR	4	1	1	WOLF	1619	n/a	1	n/a	n/a	n/a	n/a	n/a
386.952	n/a	REC_WORD	193476	wordpools/wasnorm_wordpool.txt	LTP122	ltpFR	4	1	0	SIRLOIN	1311	n/a	0	n/a	n/a	n/a	n/a	n/a
392.468	n/a	REC_WORD	196234	wordpools/wasnorm_wordpool.txt	LTP122	ltpFR	4	1	1	MICROPHONE	890	n/a	0	n/a	n/a	n/a	n/a	n/a
393.352	n/a	REC_WORD	196676	wordpools/wasnorm_wordpool.txt	LTP122	ltpFR	4	1	1	STEREO	1378	n/a	0	n/a	n/a	n/a	n/a	n/a
397.462	n/a	REC_WORD	198731	wordpools/wasnorm_wordpool.txt	LTP122	ltpFR	4	1	0	CHAMPION	279	n/a	1	n/a	n/a	n/a	n/a	n/a
399.348	n/a	REC_WORD	199674	wordpools/wasnorm_wordpool.txt	LTP122	ltpFR	4	1	0	PAINTER	1004	n/a	1	n/a	n/a	n/a	n/a	n/a
418.066	n/a	REC_WORD	209033	wordpools/wasnorm_wordpool.txt	LTP122	ltpFR	4	1	1	TOMATO	1476	n/a	1	n/a	n/a	n/a	n/a	n/a
419.304	n/a	REC_WORD	209652	wordpools/wasnorm_wordpool.txt	LTP122	ltpFR	4	1	1	FAIRY	549	n/a	1	n/a	n/a	n/a	n/a	n/a
421.344	n/a	REC_WORD	210672	wordpools/wasnorm_wordpool.txt	LTP122	ltpFR	4	1	0	OTTER	986	n/a	1	n/a	n/a	n/a	n/a	n/a
458.042	n/a	WORD	229021	wordpools/wasnorm_wordpool.txt	LTP122	ltpFR	4	2	0	CANARY	227	n/a	0	1	0.412841796875	0.57763671875	lower	../fonts/zerothre.ttf
461.974	n/a	WORD	230987	wordpools/wasnorm_wordpool.txt	LTP122	ltpFR	4	2	0	GOWN	652	n/a	1	1	0.412841796875	0.57763671875	lower	../fonts/zerothre.ttf
465.824	n/a	WORD	232912	wordpools/wasnorm_wordpool.txt	LTP122	ltpFR	4	2	0	TUTU	1524	n/a	1	1	0.412841796875	0.57763671875	lower	../fonts/zerothre.ttf
469.748	n/a	WORD	234874	wordpools/wasnorm_wordpool.txt	LTP122	ltpFR	4	2	1	LAKE	796	n/a	0	0	0.5869140625	0.422607421875	upper	../fonts/amplitud.ttf
473.604	n/a	WORD	236802	wordpools/wasnorm_wordpool.txt	LTP122	ltpFR	4	2	1	DIVER	476	n/a	1	0	0.5869140625	0.422607421875	upper	../fonts/amplitud.ttf
477.794	n/a	WORD	238897	wordpools/wasnorm_wordpool.txt	LTP122	ltpFR	4	2	1	CINNAMON	310	n/a	0	0	0.5869140625	0.422607421875	upper	../fonts/amplitud.ttf
481.734	n/a	WORD	240867	wordpools/wasnorm_wordpool.txt	LTP122	ltpFR	4	2	1	CONE	363	n/a	0	0	0.5869140625	0.422607421875	upper	../fonts/amplitud.ttf
485.666	n/a	WORD	242833	wordpools/wasnorm_wordpool.txt	LTP122	ltpFR	4	2	1	CABIN	211	n/a	0	0	0.5869140625	0.422607421875	upper	../fonts/amplitud.ttf
489.774	n/a	WORD	244887	wordpools/wasnorm_wordpool.txt	LTP122	ltpFR	4	2	0	OFFICER	973	n/a	1	1	0.412841796875	0.57763671875	lower	../fonts/zerothre.ttf
493.848	n/a	WORD	246924	wordpools/wasnorm_wordpool.txt	LTP122	ltpFR	4	2	0	CRUMB	416	n/a	0	1	0.412841796875	0.57763671875	lower	../fonts/zerothre.ttf
498.014	n/a	WORD	249007	wordpools/wasnorm_wordpool.txt	LTP122	ltpFR	4	2	0	PIE	1062	n/a	0	1	0.412841796875	0.57763671875	lower	../fonts/zerothre.ttf
501.896	n/a	WORD	250948	wordpools/wasnorm_wordpool.txt	LTP122	ltpFR	4	2	0	PIGEON	1065	n/a	0	1	0.412841796875	0.57763671875	lower	../fonts/zerothre.ttf
506.07	n/a	WORD	253035	wordpools/wasnorm_wordpool.txt	LTP122	ltpFR	4	2	0	RAFT	1159	n/a	1	1	0.412841796875	0.57763671875	lower	../fonts/zerothre.ttf
509.902	n/a	WORD	254951	wordpools/wasnorm_wordpool.txt	LTP122	ltpFR	4	2	1	THUMB	1462	n/a	0	0	0.5869140625	0.422607421875	upper	../fonts/amplitud.ttf
513.918	n/a	WORD	256959	wordpools/wasnorm_wordpool.txt	LTP122	ltpFR	4	2	1	WILDERNESS	1610	n/a	0	0	0.5869140625	0.422607421875	upper	../fonts/amplitud.ttf
517.782	n/a	WORD	258891	wordpools/wasnorm_wordpool.txt	LTP122	ltpFR	4	2	1	REEF	1177	n/a	1	0	0.5869140625	0.422607421875	upper	../fonts/amplitud.ttf
523.79	n/a	REC_START	261895	n/a	LTP122	ltpFR	4	2	n/a	n/a	n/a	n/a	n/a	n/a	n/a	n/a	n/a	n/a
524.324	n/a	REC_WORD	262162	wordpools/wasnorm_wordpool.txt	LTP122	ltpFR	4	2	1	THUMB	1462	n/a	0	n/a	n/a	n/a	n/a	n/a
525.102	n/a	REC_WORD	262551	wordpools/wasnorm_wordpool.txt	LTP122	ltpFR	4	2	1	WILDERNESS	1610	n/a	0	n/a	n/a	n/a	n/a	n/a
526.14	n/a	REC_WORD	263070	wordpools/wasnorm_wordpool.txt	LTP122	ltpFR	4	2	1	REEF	1177	n/a	1	n/a	n/a	n/a	n/a	n/a
527.162	n/a	REC_WORD	263581	wordpools/wasnorm_wordpool.txt	LTP122	ltpFR	4	2	0	CANARY	227	n/a	0	n/a	n/a	n/a	n/a	n/a
528.136	n/a	REC_WORD	264068	wordpools/wasnorm_wordpool.txt	LTP122	ltpFR	4	2	0	GOWN	652	n/a	1	n/a	n/a	n/a	n/a	n/a
529.522	n/a	REC_WORD	264761	wordpools/wasnorm_wordpool.txt	LTP122	ltpFR	4	2	0	PIGEON	1065	n/a	0	n/a	n/a	n/a	n/a	n/a
530.436	n/a	REC_WORD	265218	wordpools/wasnorm_wordpool.txt	LTP122	ltpFR	4	2	0	CRUMB	416	n/a	0	n/a	n/a	n/a	n/a	n/a
535.124	n/a	REC_WORD	267562	wordpools/wasnorm_wordpool.txt	LTP122	ltpFR	4	2	1	CABIN	211	n/a	0	n/a	n/a	n/a	n/a	n/a
537.03	n/a	REC_WORD	268515	wordpools/wasnorm_wordpool.txt	LTP122	ltpFR	4	2	1	THUMB	1462	n/a	0	n/a	n/a	n/a	n/a	n/a
540.018	n/a	REC_WORD	270009	wordpools/wasnorm_wordpool.txt	LTP122	ltpFR	4	2	1	LAKE	796	n/a	0	n/a	n/a	n/a	n/a	n/a
541.062	n/a	REC_WORD	270531	wordpools/wasnorm_wordpool.txt	LTP122	ltpFR	4	2	1	DIVER	476	n/a	1	n/a	n/a	n/a	n/a	n/a
547.362	n/a	REC_WORD	273681	wordpools/wasnorm_wordpool.txt	LTP122	ltpFR	4	2	0	OFFICER	973	n/a	1	n/a	n/a	n/a	n/a	n/a
564.604	n/a	REC_WORD	282302	wordpools/wasnorm_wordpool.txt	LTP122	ltpFR	4	2	1	CONE	363	n/a	0	n/a	n/a	n/a	n/a	n/a
566.416	n/a	REC_WORD	283208	wordpools/wasnorm_wordpool.txt	LTP122	ltpFR	4	2	1	CINNAMON	310	n/a	0	n/a	n/a	n/a	n/a	n/a
567.762	n/a	REC_WORD	283881	wordpools/wasnorm_wordpool.txt	LTP122	ltpFR	4	2	0	PIE	1062	n/a	0	n/a	n/a	n/a	n/a	n/a
602.664	n/a	WORD	301332	wordpools/wasnorm_wordpool.txt	LTP122	ltpFR	4	3	-1	PRIMATE	1123	n/a	-1	1	1.0	1.0	upper	../fonts/Verdana.ttf
606.864	n/a	WORD	303432	wordpools/wasnorm_wordpool.txt	LTP122	ltpFR	4	3	-1	INSECT	740	n/a	-1	1	1.0	1.0	upper	../fonts/Verdana.ttf
610.822	n/a	WORD	305411	wordpools/wasnorm_wordpool.txt	LTP122	ltpFR	4	3	-1	CANNON	232	n/a	-1	1	1.0	1.0	upper	../fonts/Verdana.ttf
614.77	n/a	WORD	307385	wordpools/wasnorm_wordpool.txt	LTP122	ltpFR	4	3	-1	SEASHORE	1263	n/a	-1	1	1.0	1.0	upper	../fonts/Verdana.ttf
618.936	n/a	WORD	309468	wordpools/wasnorm_wordpool.txt	LTP122	ltpFR	4	3	-1	JUNGLE	764	n/a	-1	1	1.0	1.0	upper	../fonts/Verdana.ttf
623.118	n/a	WORD	311559	wordpools/wasnorm_wordpool.txt	LTP122	ltpFR	4	3	-1	BEEF	113	n/a	-1	1	1.0	1.0	upper	../fonts/Verdana.ttf
627.282	n/a	WORD	313641	wordpools/wasnorm_wordpool.txt	LTP122	ltpFR	4	3	-1	TUBE	1516	n/a	-1	1	1.0	1.0	upper	../fonts/Verdana.ttf
631.448	n/a	WORD	315724	wordpools/wasnorm_wordpool.txt	LTP122	ltpFR	4	3	-1	TRIGGER	1507	n/a	-1	1	1.0	1.0	upper	../fonts/Verdana.ttf
635.306	n/a	WORD	317653	wordpools/wasnorm_wordpool.txt	LTP122	ltpFR	4	3	-1	MUMMY	932	n/a	-1	1	1.0	1.0	upper	../fonts/Verdana.ttf
639.42	n/a	WORD	319710	wordpools/wasnorm_wordpool.txt	LTP122	ltpFR	4	3	-1	DUNE	506	n/a	-1	1	1.0	1.0	upper	../fonts/Verdana.ttf
643.452	n/a	WORD	321726	wordpools/wasnorm_wordpool.txt	LTP122	ltpFR	4	3	-1	PORCH	1106	n/a	-1	1	1.0	1.0	upper	../fonts/Verdana.ttf
647.268	n/a	WORD	323634	wordpools/wasnorm_wordpool.txt	LTP122	ltpFR	4	3	-1	SHELTER	1282	n/a	-1	1	1.0	1.0	upper	../fonts/Verdana.ttf
651.25	n/a	WORD	325625	wordpools/wasnorm_wordpool.txt	LTP122	ltpFR	4	3	-1	LASER	801	n/a	-1	1	1.0	1.0	upper	../fonts/Verdana.ttf
655.216	n/a	WORD	327608	wordpools/wasnorm_wordpool.txt	LTP122	ltpFR	4	3	-1	COOK	372	n/a	-1	1	1.0	1.0	upper	../fonts/Verdana.ttf
659.43	n/a	WORD	329715	wordpools/wasnorm_wordpool.txt	LTP122	ltpFR	4	3	-1	SWIMMER	1420	n/a	-1	1	1.0	1.0	upper	../fonts/Verdana.ttf
663.472	n/a	WORD	331736	wordpools/wasnorm_wordpool.txt	LTP122	ltpFR	4	3	-1	WATERFALL	1595	n/a	-1	1	1.0	1.0	upper	../fonts/Verdana.ttf
669.32	n/a	REC_START	334660	n/a	LTP122	ltpFR	4	3	n/a	n/a	n/a	n/a	n/a	n/a	n/a	n/a	n/a	n/a
670.078	n/a	REC_WORD	335039	wordpools/wasnorm_wordpool.txt	LTP122	ltpFR	4	3	-1	WATERFALL	1595	n/a	-1	n/a	n/a	n/a	n/a	n/a
670.856	n/a	REC_WORD	335428	wordpools/wasnorm_wordpool.txt	LTP122	ltpFR	4	3	-1	SWIMMER	1420	n/a	-1	n/a	n/a	n/a	n/a	n/a
671.656	n/a	REC_WORD	335828	wordpools/wasnorm_wordpool.txt	LTP122	ltpFR	4	3	-1	COOK	372	n/a	-1	n/a	n/a	n/a	n/a	n/a
672.474	n/a	REC_WORD	336237	wordpools/wasnorm_wordpool.txt	LTP122	ltpFR	4	3	-1	TRIGGER	1507	n/a	-1	n/a	n/a	n/a	n/a	n/a
673.382	n/a	REC_WORD	336691	wordpools/wasnorm_wordpool.txt	LTP122	ltpFR	4	3	-1	LASER	801	n/a	-1	n/a	n/a	n/a	n/a	n/a
674.134	n/a	REC_WORD	337067	wordpools/wasnorm_wordpool.txt	LTP122	ltpFR	4	3	-1	PRIMATE	1123	n/a	-1	n/a	n/a	n/a	n/a	n/a
675.052	n/a	REC_WORD	337526	wordpools/wasnorm_wordpool.txt	LTP122	ltpFR	4	3	-1	PORCH	1106	n/a	-1	n/a	n/a	n/a	n/a	n/a
683.24	n/a	REC_WORD	341620	wordpools/wasnorm_wordpool.txt	LTP122	ltpFR	4	3	-1	DUNE	506	n/a	-1	n/a	n/a	n/a	n/a	n/a
684.048	n/a	REC_WORD	342024	wordpools/wasnorm_wordpool.txt	LTP122	ltpFR	4	3	-1	INSECT	740	n/a	-1	n/a	n/a	n/a	n/a	n/a
690.532	n/a	REC_WORD	345266	wordpools/wasnorm_wordpool.txt	LTP122	ltpFR	4	3	-1	SEASHORE	1263	n/a	-1	n/a	n/a	n/a	n/a	n/a
748.222	n/a	WORD	374111	wordpools/wasnorm_wordpool.txt	LTP122	ltpFR	4	4	0	WHEAT	1602	n/a	0	1	0.412841796875	0.57763671875	lower	../fonts/zerothre.ttf
752.194	n/a	WORD	376097	wordpools/wasnorm_wordpool.txt	LTP122	ltpFR	4	4	0	APPLE	33	n/a	0	1	0.412841796875	0.57763671875	lower	../fonts/zerothre.ttf
756.06	n/a	WORD	378030	wordpools/wasnorm_wordpool.txt	LTP122	ltpFR	4	4	0	BACON	67	n/a	0	1	0.412841796875	0.57763671875	lower	../fonts/zerothre.ttf
760.102	n/a	WORD	380051	wordpools/wasnorm_wordpool.txt	LTP122	ltpFR	4	4	0	WAVE	1596	n/a	1	1	0.412841796875	0.57763671875	lower	../fonts/zerothre.ttf
764.15	n/a	WORD	382075	wordpools/wasnorm_wordpool.txt	LTP122	ltpFR	4	4	0	MESSAGE	888	n/a	0	1	0.412841796875	0.57763671875	lower	../fonts/zerothre.ttf
768.074	n/a	WORD	384037	wordpools/wasnorm_wordpool.txt	LTP122	ltpFR	4	4	0	TELEPHONE	1445	n/a	0	1	0.412841796875	0.57763671875	lower	../fonts/zerothre.ttf
772.146	n/a	WORD	386073	wordpools/wasnorm_wordpool.txt	LTP122	ltpFR	4	4	0	ISLAND	745	n/a	1	1	0.412841796875	0.57763671875	lower	../fonts/zerothre.ttf
776.314	n/a	WORD	388157	wordpools/wasnorm_wordpool.txt	LTP122	ltpFR	4	4	0	LUNCH	849	n/a	0	1	0.412841796875	0.57763671875	lower	../fonts/zerothre.ttf
780.394	n/a	WORD	390197	wordpools/wasnorm_wordpool.txt	LTP122	ltpFR	4	4	0	CHAIN	273	n/a	0	1	0.412841796875	0.57763671875	lower	../fonts/zerothre.ttf
784.434	n/a	WORD	392217	wordpools/wasnorm_wordpool.txt	LTP122	ltpFR	4	4	0	SQUID	1361	n/a	1	1	0.412841796875	0.57763671875	lower	../fonts/zerothre.ttf
788.4	n/a	WORD	394200	wordpools/wasnorm_wordpool.txt	LTP122	ltpFR	4	4	0	PIKE	1067	n/a	0	1	0.412841796875	0.57763671875	lower	../fonts/zerothre.ttf
792.24	n/a	WORD	396120	wordpools/wasnorm_wordpool.txt	LTP122	ltpFR	4	4	0	MECHANIC	884	n/a	1	1	0.412841796875	0.57763671875	lower	../fonts/zerothre.ttf
796.14	n/a	WORD	398070	wordpools/wasnorm_wordpool.txt	LTP122	ltpFR	4	4	0	TICKET	1464	n/a	0	1	0.412841796875	0.57763671875	lower	../fonts/zerothre.ttf
799.998	n/a	WORD	399999	wordpools/wasnorm_wordpool.txt	LTP122	ltpFR	4	4	0	UNIVERSITY	1541	n/a	1	1	0.412841796875	0.57763671875	lower	../fonts/zerothre.ttf
803.962	n/a	WORD	401981	wordpools/wasnorm_wordpool.txt	LTP122	ltpFR	4	4	0	WAGON	1578	n/a	1	1	0.412841796875	0.57763671875	lower	../fonts/zerothre.ttf
807.962	n/a	WORD	403981	wordpools/wasnorm_wordpool.txt	LTP122	ltpFR	4	4	0	OMELET	976	n/a	0	1	0.412841796875	0.57763671875	lower	../fonts/zerothre.ttf
813.634	n/a	REC_START	406817	n/a	LTP122	ltpFR	4	4	n/a	n/a	n/a	n/a	n/a	n/a	n/a	n/a	n/a	n/a
814.538	n/a	REC_WORD	407269	wordpools/wasnorm_wordpool.txt	LTP122	ltpFR	4	4	0	ISLAND	745	n/a	1	n/a	n/a	n/a	n/a	n/a
815.216	n/a	REC_WORD	407608	wordpools/wasnorm_wordpool.txt	LTP122	ltpFR	4	4	0	UNIVERSITY	1541	n/a	1	n/a	n/a	n/a	n/a	n/a
816.108	n/a	REC_WORD	408054	wordpools/wasnorm_wordpool.txt	LTP122	ltpFR	4	4	0	SQUID	1361	n/a	1	n/a	n/a	n/a	n/a	n/a
817.072	n/a	REC_WORD	408536	wordpools/wasnorm_wordpool.txt	LTP122	ltpFR	4	4	0	MECHANIC	884	n/a	1	n/a	n/a	n/a	n/a	n/a
817.944	n/a	REC_WORD	408972	wordpools/wasnorm_wordpool.txt	LTP122	ltpFR	4	4	0	WAVE	1596	n/a	1	n/a	n/a	n/a	n/a	n/a
819.266	n/a	REC_WORD	409633	wordpools/wasnorm_wordpool.txt	LTP122	ltpFR	4	4	0	WHEAT	1602	n/a	0	n/a	n/a	n/a	n/a	n/a
820.03	n/a	REC_WORD	410015	wordpools/wasnorm_wordpool.txt	LTP122	ltpFR	4	4	0	APPLE	33	n/a	0	n/a	n/a	n/a	n/a	n/a
820.992	n/a	REC_WORD	410496	wordpools/wasnorm_wordpool.txt	LTP122	ltpFR	4	4	0	MESSAGE	888	n/a	0	n/a	n/a	n/a	n/a	n/a
822.006	n/a	REC_WORD	411003	wordpools/wasnorm_wordpool.txt	LTP122	ltpFR	4	4	0	BACON	67	n/a	0	n/a	n/a	n/a	n/a	n/a
823.762	n/a	REC_WORD	411881	wordpools/wasnorm_wordpool.txt	LTP122	ltpFR	4	4	0	PIKE	1067	n/a	0	n/a	n/a	n/a	n/a	n/a
825.602	n/a	REC_WORD	412801	wordpools/wasnorm_wordpool.txt	LTP122	ltpFR	4	4	0	LUNCH	849	n/a	0	n/a	n/a	n/a	n/a	n/a
827.084	n/a	REC_WORD	413542	wordpools/wasnorm_wordpool.txt	LTP122	ltpFR	4	4	0	OMELET	976	n/a	0	n/a	n/a	n/a	n/a	n/a
895.826	n/a	WORD	447913	wordpools/wasnorm_wordpool.txt	LTP122	ltpFR	4	5	-1	NEST	945	n/a	-1	1	1.0	1.0	upper	../fonts/Verdana.ttf
899.892	n/a	WORD	449946	wordpools/wasnorm_wordpool.txt	LTP122	ltpFR	4	5	-1	AWARD	63	n/a	-1	1	1.0	1.0	upper	../fonts/Verdana.ttf
903.824	n/a	WORD	451912	wordpools/wasnorm_wordpool.txt	LTP122	ltpFR	4	5	-1	SPICE	1350	n/a	-1	1	1.0	1.0	upper	../fonts/Verdana.ttf
907.672	n/a	WORD	453836	wordpools/wasnorm_wordpool.txt	LTP122	ltpFR	4	5	-1	CANE	231	n/a	-1	1	1.0	1.0	upper	../fonts/Verdana.ttf
911.596	n/a	WORD	455798	wordpools/wasnorm_wordpool.txt	LTP122	ltpFR	4	5	-1	CRIB	407	n/a	-1	1	1.0	1.0	upper	../fonts/Verdana.ttf
915.428	n/a	WORD	457714	wordpools/wasnorm_wordpool.txt	LTP122	ltpFR	4	5	-1	TWEEZERS	1526	n/a	-1	1	1.0	1.0	upper	../fonts/Verdana.ttf
919.576	n/a	WORD	459788	wordpools/wasnorm_wordpool.txt	LTP122	ltpFR	4	5	-1	WRENCH	1625	n/a	-1	1	1.0	1.0	upper	../fonts/Verdana.ttf
923.55	n/a	WORD	461775	wordpools/wasnorm_wordpool.txt	LTP122	ltpFR	4	5	-1	LIMB	822	n/a	-1	1	1.0	1.0	upper	../fonts/Verdana.ttf
927.448	n/a	WORD	463724	wordpools/wasnorm_wordpool.txt	LTP122	ltpFR	4	5	-1	GRAVEL	659	n/a	-1	1	1.0	1.0	upper	../fonts/Verdana.ttf
931.566	n/a	WORD	465783	wordpools/wasnorm_wordpool.txt	LTP122	ltpFR	4	5	-1	EARTH	515	n/a	-1	1	1.0	1.0	upper	../fonts/Verdana.ttf
935.388	n/a	WORD	467694	wordpools/wasnorm_wordpool.txt	LTP122	ltpFR	4	5	-1	HIP	710	n/a	-1	1	1.0	1.0	upper	../fonts/Verdana.ttf
939.214	n/a	WORD	469607	wordpools/wasnorm_wordpool.txt	LTP122	ltpFR	4	5	-1	STAGE	1366	n/a	-1	1	1.0	1.0	upper	../fonts/Verdana.ttf
943.22	n/a	WORD	471610	wordpools/wasnorm_wordpool.txt	LTP122	ltpFR	4	5	-1	PELICAN	1039	n/a	-1	1	1.0	1.0	upper	../fonts/Verdana.ttf
947.426	n/a	WORD	473713	wordpools/wasnorm_wordpool.txt	LTP122	ltpFR	4	5	-1	CHEF	290	n/a	-1	1	1.0	1.0	upper	../fonts/Verdana.ttf
951.326	n/a	WORD	475663	wordpools/wasnorm_wordpool.txt	LTP122	ltpFR	4	5	-1	APRON	35	n/a	-1	1	1.0	1.0	upper	../fonts/Verdana.ttf
955.168	n/a	WORD	477584	wordpools/wasnorm_wordpool.txt	LTP122	ltpFR	4	5	-1	TELEVISION	1447	n/a	-1	1	1.0	1.0	upper	../fonts/Verdana.ttf
961.124	n/a	REC_START	480562	n/a	LTP122	ltpFR	4	5	n/a	n/a	n/a	n/a	n/a	n/a	n/a	n/a	n/a	n/a
961.742	n/a	REC_WORD	480871	wordpools/wasnorm_wordpool.txt	LTP122	ltpFR	4	5	-1	TELEVISION	1447	n/a	-1	n/a	n/a	n/a	n/a	n/a
962.52	n/a	REC_WORD	481260	wordpools/wasnorm_wordpool.txt	LTP122	ltpFR	4	5	-1	APRON	35	n/a	-1	n/a	n/a	n/a	n/a	n/a
963.178	n/a	REC_WORD	481589	wordpools/wasnorm_wordpool.txt	LTP122	ltpFR	4	5	-1	CHEF	290	n/a	-1	n/a	n/a	n/a	n/a	n/a
963.836	n/a	REC_WORD	481918	wordpools/wasnorm_wordpool.txt	LTP122	ltpFR	4	5	-1	STAGE	1366	n/a	-1	n/a	n/a	n/a	n/a	n/a
964.73	n/a	REC_WORD	482365	wordpools/wasnorm_wordpool.txt	LTP122	ltpFR	4	5	-1	LIMB	822	n/a	-1	n/a	n/a	n/a	n/a	n/a
965.668	n/a	REC_WORD	482834	wordpools/wasnorm_wordpool.txt	LTP122	ltpFR	4	5	-1	HIP	710	n/a	-1	n/a	n/a	n/a	n/a	n/a
969.85	n/a	REC_WORD	484925	wordpools/wasnorm_wordpool.txt	LTP122	ltpFR	4	5	-1	APRON	35	n/a	-1	n/a	n/a	n/a	n/a	n/a
975.646	n/a	REC_WORD	487823	wordpools/wasnorm_wordpool.txt	LTP122	ltpFR	4	5	-1	SPICE	1350	n/a	-1	n/a	n/a	n/a	n/a	n/a
1003.594	n/a	REC_WORD	501797	wordpools/wasnorm_wordpool.txt	LTP122	ltpFR	4	5	-1	TELEVISION	1447	n/a	-1	n/a	n/a	n/a	n/a	n/a
1016.536	n/a	REC_WORD	508268	wordpools/wasnorm_wordpool.txt	LTP122	ltpFR	4	5	-1	PELICAN	1039	n/a	-1	n/a	n/a	n/a	n/a	n/a
1039.9	n/a	WORD	519950	wordpools/wasnorm_wordpool.txt	LTP122	ltpFR	4	6	0	CELERY	266	n/a	0	1	0.412841796875	0.57763671875	lower	../fonts/zerothre.ttf
1043.872	n/a	WORD	521936	wordpools/wasnorm_wordpool.txt	LTP122	ltpFR	4	6	0	SHORTCAKE	1292	n/a	0	1	0.412841796875	0.57763671875	lower	../fonts/zerothre.ttf
1047.688	n/a	WORD	523844	wordpools/wasnorm_wordpool.txt	LTP122	ltpFR	4	6	0	ASTRONAUT	51	n/a	1	1	0.412841796875	0.57763671875	lower	../fonts/zerothre.ttf
1051.536	n/a	WORD	525768	wordpools/wasnorm_wordpool.txt	LTP122	ltpFR	4	6	0	COLT	349	n/a	1	1	0.412841796875	0.57763671875	lower	../fonts/zerothre.ttf
1055.568	n/a	WORD	527784	wordpools/wasnorm_wordpool.txt	LTP122	ltpFR	4	6	1	LOOP	844	n/a	0	0	0.5869140625	0.422607421875	upper	../fonts/amplitud.ttf
1059.65	n/a	WORD	529825	wordpools/wasnorm_wordpool.txt	LTP122	ltpFR	4	6	1	VASE	1549	n/a	0	0	0.5869140625	0.422607421875	upper	../fonts/amplitud.ttf
1063.574	n/a	WORD	531787	wordpools/wasnorm_wordpool.txt	LTP122	ltpFR	4	6	0	YOKE	1632	n/a	0	1	0.412841796875	0.57763671875	lower	../fonts/zerothre.ttf
1067.732	n/a	WORD	533866	wordpools/wasnorm_wordpool.txt	LTP122	ltpFR	4	6	0	WARRIOR	1589	n/a	1	1	0.412841796875	0.57763671875	lower	../fonts/zerothre.ttf
1071.882	n/a	WORD	535941	wordpools/wasnorm_wordpool.txt	LTP122	ltpFR	4	6	0	PLANT	1083	n/a	0	1	0.412841796875	0.57763671875	lower	../fonts/zerothre.ttf
1075.98	n/a	WORD	537990	wordpools/wasnorm_wordpool.txt	LTP122	ltpFR	4	6	0	PADDING	999	n/a	0	1	0.412841796875	0.57763671875	lower	../fonts/zerothre.ttf
1079.97	n/a	WORD	539985	wordpools/wasnorm_wordpool.txt	LTP122	ltpFR	4	6	1	SILK	1307	n/a	0	0	0.5869140625	0.422607421875	upper	../fonts/amplitud.ttf
1083.794	n/a	WORD	541897	wordpools/wasnorm_wordpool.txt	LTP122	ltpFR	4	6	1	LIBRARY	816	n/a	0	0	0.5869140625	0.422607421875	upper	../fonts/amplitud.ttf
1087.634	n/a	WORD	543817	wordpools/wasnorm_wordpool.txt	LTP122	ltpFR	4	6	1	ZEBRA	1635	n/a	1	0	0.5869140625	0.422607421875	upper	../fonts/amplitud.ttf
1091.516	n/a	WORD	545758	wordpools/wasnorm_wordpool.txt	LTP122	ltpFR	4	6	1	WORLD	1622	n/a	1	0	0.5869140625	0.422607421875	upper	../fonts/amplitud.ttf
1095.414	n/a	WORD	547707	wordpools/wasnorm_wordpool.txt	LTP122	ltpFR	4	6	1	CUSTARD	429	n/a	0	0	0.5869140625	0.422607421875	upper	../fonts/amplitud.ttf
1099.446	n/a	WORD	549723	wordpools/wasnorm_wordpool.txt	LTP122	ltpFR	4	6	1	TAPIOCA	1434	n/a	0	0	0.5869140625	0.422607421875	upper	../fonts/amplitud.ttf
1105.18	n/a	REC_START	552590	n/a	LTP122	ltpFR	4	6	n/a	n/a	n/a	n/a	n/a	n/a	n/a	n/a	n/a	n/a
1105.784	n/a	REC_WORD	552892	wordpools/wasnorm_wordpool.txt	LTP122	ltpFR	4	6	1	CUSTARD	429	n/a	0	n/a	n/a	n/a	n/a	n/a
1106.532	n/a	REC_WORD	553266	wordpools/wasnorm_wordpool.txt	LTP122	ltpFR	4	6	1	TAPIOCA	1434	n/a	0	n/a	n/a	n/a	n/a	n/a
1107.53	n/a	REC_WORD	553765	wordpools/wasnorm_wordpool.txt	LTP122	ltpFR	4	6	1	ZEBRA	1635	n/a	1	n/a	n/a	n/a	n/a	n/a
1108.986	n/a	REC_WORD	554493	wordpools/wasnorm_wordpool.txt	LTP122	ltpFR	4	6	1	LIBRARY	816	n/a	0	n/a	n/a	n/a	n/a	n/a
1110.0	n/a	REC_WORD	555000	wordpools/wasnorm_wordpool.txt	LTP122	ltpFR	4	6	1	LOOP	844	n/a	0	n/a	n/a	n/a	n/a	n/a
1110.892	n/a	REC_WORD	555446	wordpools/wasnorm_wordpool.txt	LTP122	ltpFR	4	6	n/a	FACE	547	n/a	n/a	n/a	n/a	n/a	n/a	n/a
1112.538	n/a	REC_WORD	556269	wordpools/wasnorm_wordpool.txt	LTP122	ltpFR	4	6	0	ASTRONAUT	51	n/a	1	n/a	n/a	n/a	n/a	n/a
1113.686	n/a	REC_WORD	556843	wordpools/wasnorm_wordpool.txt	LTP122	ltpFR	4	6	0	COLT	349	n/a	1	n/a	n/a	n/a	n/a	n/a
1116.918	n/a	REC_WORD	558459	wordpools/wasnorm_wordpool.txt	LTP122	ltpFR	4	6	1	WORLD	1622	n/a	1	n/a	n/a	n/a	n/a	n/a
1119.692	n/a	REC_WORD	559846	wordpools/wasnorm_wordpool.txt	LTP122	ltpFR	4	6	0	YOKE	1632	n/a	0	n/a	n/a	n/a	n/a	n/a
1120.55	n/a	REC_WORD	560275	wordpools/wasnorm_wordpool.txt	LTP122	ltpFR	4	6	0	CELERY	266	n/a	0	n/a	n/a	n/a	n/a	n/a
1121.478	n/a	REC_WORD	560739	wordpools/wasnorm_wordpool.txt	LTP122	ltpFR	4	6	0	SHORTCAKE	1292	n/a	0	n/a	n/a	n/a	n/a	n/a
1126.962	n/a	REC_WORD	563481	wordpools/wasnorm_wordpool.txt	LTP122	ltpFR	4	6	0	PADDING	999	n/a	0	n/a	n/a	n/a	n/a	n/a
1131.552	n/a	REC_WORD	565776	wordpools/wasnorm_wordpool.txt	LTP122	ltpFR	4	6	1	VASE	1549	n/a	0	n/a	n/a	n/a	n/a	n/a
1137.178	n/a	REC_WORD	568589	wordpools/wasnorm_wordpool.txt	LTP122	ltpFR	4	6	1	CUSTARD	429	n/a	0	n/a	n/a	n/a	n/a	n/a
1155.848	n/a	REC_WORD	577924	wordpools/wasnorm_wordpool.txt	LTP122	ltpFR	4	6	1	TAPIOCA	1434	n/a	0	n/a	n/a	n/a	n/a	n/a
1184.58	n/a	WORD	592290	wordpools/wasnorm_wordpool.txt	LTP122	ltpFR	4	7	1	RAKE	1164	n/a	0	0	0.5869140625	0.422607421875	upper	../fonts/amplitud.ttf
1188.736	n/a	WORD	594368	wordpools/wasnorm_wordpool.txt	LTP122	ltpFR	4	7	1	SHOWER	1296	n/a	0	0	0.5869140625	0.422607421875	upper	../fonts/amplitud.ttf
1192.812	n/a	WORD	596406	wordpools/wasnorm_wordpool.txt	LTP122	ltpFR	4	7	1	OPERA	978	n/a	0	0	0.5869140625	0.422607421875	upper	../fonts/amplitud.ttf
1196.852	n/a	WORD	598426	wordpools/wasnorm_wordpool.txt	LTP122	ltpFR	4	7	1	RECORD	1176	n/a	0	0	0.5869140625	0.422607421875	upper	../fonts/amplitud.ttf
1200.784	n/a	WORD	600392	wordpools/wasnorm_wordpool.txt	LTP122	ltpFR	4	7	1	MOTOR	922	n/a	0	0	0.5869140625	0.422607421875	upper	../fonts/amplitud.ttf
1204.884	n/a	WORD	602442	wordpools/wasnorm_wordpool.txt	LTP122	ltpFR	4	7	1	SNAKE	1333	n/a	1	0	0.5869140625	0.422607421875	upper	../fonts/amplitud.ttf
1209.04	n/a	WORD	604520	wordpools/wasnorm_wordpool.txt	LTP122	ltpFR	4	7	1	NOVEL	960	n/a	0	0	0.5869140625	0.422607421875	upper	../fonts/amplitud.ttf
1213.064	n/a	WORD	606532	wordpools/wasnorm_wordpool.txt	LTP122	ltpFR	4	7	1	NOTE	958	n/a	0	0	0.5869140625	0.422607421875	upper	../fonts/amplitud.ttf
1217.262	n/a	WORD	608631	wordpools/wasnorm_wordpool.txt	LTP122	ltpFR	4	7	1	PARENT	1013	n/a	1	0	0.5869140625	0.422607421875	upper	../fonts/amplitud.ttf
1221.428	n/a	WORD	610714	wordpools/wasnorm_wordpool.txt	LTP122	ltpFR	4	7	1	COOKIE	374	n/a	0	0	0.5869140625	0.422607421875	upper	../fonts/amplitud.ttf
1225.344	n/a	WORD	612672	wordpools/wasnorm_wordpool.txt	LTP122	ltpFR	4	7	1	VEHICLE	1553	n/a	1	0	0.5869140625	0.422607421875	upper	../fonts/amplitud.ttf
1229.408	n/a	WORD	614704	wordpools/wasnorm_wordpool.txt	LTP122	ltpFR	4	7	1	FIDDLE	561	n/a	0	0	0.5869140625	0.422607421875	upper	../fonts/amplitud.ttf
1233.572	n/a	WORD	616786	wordpools/wasnorm_wordpool.txt	LTP122	ltpFR	4	7	1	BARREL	91	n/a	0	0	0.5869140625	0.422607421875	upper	../fonts/amplitud.ttf
1237.68	n/a	WORD	618840	wordpools/wasnorm_wordpool.txt	LTP122	ltpFR	4	7	1	TIGER	1467	n/a	1	0	0.5869140625	0.422607421875	upper	../fonts/amplitud.ttf
1241.672	n/a	WORD	620836	wordpools/wasnorm_wordpool.txt	LTP122	ltpFR	4	7	1	PREDATOR	1120	n/a	1	0	0.5869140625	0.422607421875	upper	../fonts/amplitud.ttf
1245.586	n/a	WORD	622793	wordpools/wasnorm_wordpool.txt	LTP122	ltpFR	4	7	1	DELINQUENT	445	n/a	1	0	0.5869140625	0.422607421875	upper	../fonts/amplitud.ttf
1251.278	n/a	REC_START	625639	n/a	LTP122	ltpFR	4	7	n/a	n/a	n/a	n/a	n/a	n/a	n/a	n/a	n/a	n/a
1251.95	n/a	REC_WORD	625975	wordpools/wasnorm_wordpool.txt	LTP122	ltpFR	4	7	1	TIGER	1467	n/a	1	n/a	n/a	n/a	n/a	n/a
1252.524	n/a	REC_WORD	626262	wordpools/wasnorm_wordpool.txt	LTP122	ltpFR	4	7	1	PREDATOR	1120	n/a	1	n/a	n/a	n/a	n/a	n/a
1253.172	n/a	REC_WORD	626586	wordpools/wasnorm_wordpool.txt	LTP122	ltpFR	4	7	1	DELINQUENT	445	n/a	1	n/a	n/a	n/a	n/a	n/a
1254.31	n/a	REC_WORD	627155	wordpools/wasnorm_wordpool.txt	LTP122	ltpFR	4	7	1	VEHICLE	1553	n/a	1	n/a	n/a	n/a	n/a	n/a
1255.238	n/a	REC_WORD	627619	wordpools/wasnorm_wordpool.txt	LTP122	ltpFR	4	7	1	PARENT	1013	n/a	1	n/a	n/a	n/a	n/a	n/a
1255.872	n/a	REC_WORD	627936	wordpools/wasnorm_wordpool.txt	LTP122	ltpFR	4	7	1	SNAKE	1333	n/a	1	n/a	n/a	n/a	n/a	n/a
1260.892	n/a	REC_WORD	630446	wordpools/wasnorm_wordpool.txt	LTP122	ltpFR	4	7	1	COOKIE	374	n/a	0	n/a	n/a	n/a	n/a	n/a
1261.47	n/a	REC_WORD	630735	wordpools/wasnorm_wordpool.txt	LTP122	ltpFR	4	7	1	NOVEL	960	n/a	0	n/a	n/a	n/a	n/a	n/a
1262.228	n/a	REC_WORD	631114	wordpools/wasnorm_wordpool.txt	LTP122	ltpFR	4	7	1	NOTE	958	n/a	0	n/a	n/a	n/a	n/a	n/a
1263.212	n/a	REC_WORD	631606	wordpools/wasnorm_wordpool.txt	LTP122	ltpFR	4	7	1	OPERA	978	n/a	0	n/a	n/a	n/a	n/a	n/a
1265.706	n/a	REC_WORD	632853	wordpools/wasnorm_wordpool.txt	LTP122	ltpFR	4	7	1	BARREL	91	n/a	0	n/a	n/a	n/a	n/a	n/a
1268.958	n/a	REC_WORD	634479	wordpools/wasnorm_wordpool.txt	LTP122	ltpFR	4	7	1	RAKE	1164	n/a	0	n/a	n/a	n/a	n/a	n/a
1269.816	n/a	REC_WORD	634908	wordpools/wasnorm_wordpool.txt	LTP122	ltpFR	4	7	1	SHOWER	1296	n/a	0	n/a	n/a	n/a	n/a	n/a
1329.862	n/a	WORD	664931	wordpools/wasnorm_wordpool.txt	LTP122	ltpFR	4	8	1	POET	1095	n/a	1	0	0.5869140625	0.422607421875	upper	../fonts/amplitud.ttf
1333.758	n/a	WORD	666879	wordpools/wasnorm_wordpool.txt	LTP122	ltpFR	4	8	1	PUBLISHER	1137	n/a	1	0	0.5869140625	0.422607421875	upper	../fonts/amplitud.ttf
1337.892	n/a	WORD	668946	wordpools/wasnorm_wordpool.txt	LTP122	ltpFR	4	8	1	TEAPOT	1442	n/a	0	0	0.5869140625	0.422607421875	upper	../fonts/amplitud.ttf
1342.092	n/a	WORD	671046	wordpools/wasnorm_wordpool.txt	LTP122	ltpFR	4	8	0	DEER	444	n/a	1	1	0.412841796875	0.57763671875	lower	../fonts/zerothre.ttf
1345.956	n/a	WORD	672978	wordpools/wasnorm_wordpool.txt	LTP122	ltpFR	4	8	0	RESTAURANT	1187	n/a	1	1	0.412841796875	0.57763671875	lower	../fonts/zerothre.ttf
1349.964	n/a	WORD	674982	wordpools/wasnorm_wordpool.txt	LTP122	ltpFR	4	8	0	BATTERY	101	n/a	0	1	0.412841796875	0.57763671875	lower	../fonts/zerothre.ttf
1353.912	n/a	WORD	676956	wordpools/wasnorm_wordpool.txt	LTP122	ltpFR	4	8	0	WHEEL	1603	n/a	1	1	0.412841796875	0.57763671875	lower	../fonts/zerothre.ttf
1357.854	n/a	WORD	678927	wordpools/wasnorm_wordpool.txt	LTP122	ltpFR	4	8	0	PRISONER	1128	n/a	1	1	0.412841796875	0.57763671875	lower	../fonts/zerothre.ttf
1361.684	n/a	WORD	680842	wordpools/wasnorm_wordpool.txt	LTP122	ltpFR	4	8	1	POTTERY	1116	n/a	0	0	0.5869140625	0.422607421875	upper	../fonts/amplitud.ttf
1365.616	n/a	WORD	682808	wordpools/wasnorm_wordpool.txt	LTP122	ltpFR	4	8	1	BOUQUET	157	n/a	0	0	0.5869140625	0.422607421875	upper	../fonts/amplitud.ttf
1369.574	n/a	WORD	684787	wordpools/wasnorm_wordpool.txt	LTP122	ltpFR	4	8	1	IGLOO	734	n/a	0	0	0.5869140625	0.422607421875	upper	../fonts/amplitud.ttf
1373.746	n/a	WORD	686873	wordpools/wasnorm_wordpool.txt	LTP122	ltpFR	4	8	0	SAUCER	1237	n/a	0	1	0.412841796875	0.57763671875	lower	../fonts/zerothre.ttf
1377.788	n/a	WORD	688894	wordpools/wasnorm_wordpool.txt	LTP122	ltpFR	4	8	0	JELLO	754	n/a	0	1	0.412841796875	0.57763671875	lower	../fonts/zerothre.ttf
1381.88	n/a	WORD	690940	wordpools/wasnorm_wordpool.txt	LTP122	ltpFR	4	8	0	TURKEY	1520	n/a	0	1	0.412841796875	0.57763671875	lower	../fonts/zerothre.ttf
1385.962	n/a	WORD	692981	wordpools/wasnorm_wordpool.txt	LTP122	ltpFR	4	8	1	CONVICT	371	n/a	1	0	0.5869140625	0.422607421875	upper	../fonts/amplitud.ttf
1390.06	n/a	WORD	695030	wordpools/wasnorm_wordpool.txt	LTP122	ltpFR	4	8	1	GUN	673	n/a	0	0	0.5869140625	0.422607421875	upper	../fonts/amplitud.ttf
1395.984	n/a	REC_START	697992	n/a	LTP122	ltpFR	4	8	n/a	n/a	n/a	n/a	n/a	n/a	n/a	n/a	n/a	n/a
1397.262	n/a	REC_WORD	698631	wordpools/wasnorm_wordpool.txt	LTP122	ltpFR	4	8	1	POET	1095	n/a	1	n/a	n/a	n/a	n/a	n/a
1398.03	n/a	REC_WORD	699015	wordpools/wasnorm_wordpool.txt	LTP122	ltpFR	4	8	1	PUBLISHER	1137	n/a	1	n/a	n/a	n/a	n/a	n/a
1399.118	n/a	REC_WORD	699559	wordpools/wasnorm_wordpool.txt	LTP122	ltpFR	4	8	1	CONVICT	371	n/a	1	n/a	n/a	n/a	n/a	n/a
1400.694	n/a	REC_WORD	700347	wordpools/wasnorm_wordpool.txt	LTP122	ltpFR	4	8	0	PRISONER	1128	n/a	1	n/a	n/a	n/a	n/a	n/a
1402.196	n/a	REC_WORD	701098	wordpools/wasnorm_wordpool.txt	LTP122	ltpFR	4	8	1	GUN	673	n/a	0	n/a	n/a	n/a	n/a	n/a
1408.046	n/a	REC_WORD	704023	wordpools/wasnorm_wordpool.txt	LTP122	ltpFR	4	8	0	RESTAURANT	1187	n/a	1	n/a	n/a	n/a	n/a	n/a
1408.84	n/a	REC_WORD	704420	wordpools/wasnorm_wordpool.txt	LTP122	ltpFR	4	8	0	DEER	444	n/a	1	n/a	n/a	n/a	n/a	n/a
1409.624	n/a	REC_WORD	704812	wordpools/wasnorm_wordpool.txt	LTP122	ltpFR	4	8	0	WHEEL	1603	n/a	1	n/a	n/a	n/a	n/a	n/a
1411.114	n/a	REC_WORD	705557	wordpools/wasnorm_wordpool.txt	LTP122	ltpFR	4	8	0	BATTERY	101	n/a	0	n/a	n/a	n/a	n/a	n/a
1413.774	n/a	REC_WORD	706887	wordpools/wasnorm_wordpool.txt	LTP122	ltpFR	4	8	0	TURKEY	1520	n/a	0	n/a	n/a	n/a	n/a	n/a
1428.542	n/a	REC_WORD	714271	wordpools/wasnorm_wordpool.txt	LTP122	ltpFR	4	8	1	POTTERY	1116	n/a	0	n/a	n/a	n/a	n/a	n/a
1429.21	n/a	REC_WORD	714605	wordpools/wasnorm_wordpool.txt	LTP122	ltpFR	4	8	1	BOUQUET	157	n/a	0	n/a	n/a	n/a	n/a	n/a
1436.384	n/a	REC_WORD	718192	wordpools/wasnorm_wordpool.txt	LTP122	ltpFR	4	8	0	JELLO	754	n/a	0	n/a	n/a	n/a	n/a	n/a
1437.188	n/a	REC_WORD	718594	wordpools/wasnorm_wordpool.txt	LTP122	ltpFR	4	8	0	SAUCER	1237	n/a	0	n/a	n/a	n/a	n/a	n/a
1443.802	n/a	REC_WORD	721901	wordpools/wasnorm_wordpool.txt	LTP122	ltpFR	4	8	1	DELINQUENT	445	n/a	1	n/a	n/a	n/a	n/a	n/a
1474.508	n/a	WORD	737254	wordpools/wasnorm_wordpool.txt	LTP122	ltpFR	4	9	1	COMMITTEE	355	n/a	1	0	0.5869140625	0.422607421875	upper	../fonts/amplitud.ttf
1478.498	n/a	WORD	739249	wordpools/wasnorm_wordpool.txt	LTP122	ltpFR	4	9	1	CHAIRPERSON	275	n/a	1	0	0.5869140625	0.422607421875	upper	../fonts/amplitud.ttf
1482.316	n/a	WORD	741158	wordpools/wasnorm_wordpool.txt	LTP122	ltpFR	4	9	1	BUTTON	207	n/a	0	0	0.5869140625	0.422607421875	upper	../fonts/amplitud.ttf
1486.33	n/a	WORD	743165	wordpools/wasnorm_wordpool.txt	LTP122	ltpFR	4	9	1	SHORTS	1293	n/a	0	0	0.5869140625	0.422607421875	upper	../fonts/amplitud.ttf
1490.362	n/a	WORD	745181	wordpools/wasnorm_wordpool.txt	LTP122	ltpFR	4	9	1	OINTMENT	974	n/a	0	0	0.5869140625	0.422607421875	upper	../fonts/amplitud.ttf
1494.312	n/a	WORD	747156	wordpools/wasnorm_wordpool.txt	LTP122	ltpFR	4	9	1	RAG	1160	n/a	0	0	0.5869140625	0.422607421875	upper	../fonts/amplitud.ttf
1498.502	n/a	WORD	749251	wordpools/wasnorm_wordpool.txt	LTP122	ltpFR	4	9	1	CASH	252	n/a	0	0	0.5869140625	0.422607421875	upper	../fonts/amplitud.ttf
1502.65	n/a	WORD	751325	wordpools/wasnorm_wordpool.txt	LTP122	ltpFR	4	9	1	PEACH	1031	n/a	0	0	0.5869140625	0.422607421875	upper	../fonts/amplitud.ttf
1506.474	n/a	WORD	753237	wordpools/wasnorm_wordpool.txt	LTP122	ltpFR	4	9	1	SCOUT	1252	n/a	1	0	0.5869140625	0.422607421875	upper	../fonts/amplitud.ttf
1510.564	n/a	WORD	755282	wordpools/wasnorm_wordpool.txt	LTP122	ltpFR	4	9	1	PURSE	1145	n/a	0	0	0.5869140625	0.422607421875	upper	../fonts/amplitud.ttf
1514.664	n/a	WORD	757332	wordpools/wasnorm_wordpool.txt	LTP122	ltpFR	4	9	1	NOSE	957	n/a	0	0	0.5869140625	0.422607421875	upper	../fonts/amplitud.ttf
1518.646	n/a	WORD	759323	wordpools/wasnorm_wordpool.txt	LTP122	ltpFR	4	9	1	STREET	1393	n/a	0	0	0.5869140625	0.422607421875	upper	../fonts/amplitud.ttf
1522.836	n/a	WORD	761418	wordpools/wasnorm_wordpool.txt	LTP122	ltpFR	4	9	1	CASHIER	254	n/a	1	0	0.5869140625	0.422607421875	upper	../fonts/amplitud.ttf
1526.844	n/a	WORD	763422	wordpools/wasnorm_wordpool.txt	LTP122	ltpFR	4	9	1	TOOTH	1481	n/a	0	0	0.5869140625	0.422607421875	upper	../fonts/amplitud.ttf
1530.834	n/a	WORD	765417	wordpools/wasnorm_wordpool.txt	LTP122	ltpFR	4	9	1	PAINT	1003	n/a	0	0	0.5869140625	0.422607421875	upper	../fonts/amplitud.ttf
1534.982	n/a	WORD	767491	wordpools/wasnorm_wordpool.txt	LTP122	ltpFR	4	9	1	DESIGNER	451	n/a	1	0	0.5869140625	0.422607421875	upper	../fonts/amplitud.ttf
1540.664	n/a	REC_START	770332	n/a	LTP122	ltpFR	4	9	n/a	n/a	n/a	n/a	n/a	n/a	n/a	n/a	n/a	n/a
1541.206	n/a	REC_WORD	770603	wordpools/wasnorm_wordpool.txt	LTP122	ltpFR	4	9	1	COMMITTEE	355	n/a	1	n/a	n/a	n/a	n/a	n/a
1541.896	n/a	REC_WORD	770948	wordpools/wasnorm_wordpool.txt	LTP122	ltpFR	4	9	1	CHAIRPERSON	275	n/a	1	n/a	n/a	n/a	n/a	n/a
1543.352	n/a	REC_WORD	771676	wordpools/wasnorm_wordpool.txt	LTP122	ltpFR	4	9	1	DESIGNER	451	n/a	1	n/a	n/a	n/a	n/a	n/a
1544.286	n/a	REC_WORD	772143	wordpools/wasnorm_wordpool.txt	LTP122	ltpFR	4	9	1	CASHIER	254	n/a	1	n/a	n/a	n/a	n/a	n/a
1544.954	n/a	REC_WORD	772477	wordpools/wasnorm_wordpool.txt	LTP122	ltpFR	4	9	1	SCOUT	1252	n/a	1	n/a	n/a	n/a	n/a	n/a
1546.34	n/a	REC_WORD	773170	wordpools/wasnorm_wordpool.txt	LTP122	ltpFR	4	9	1	NOSE	957	n/a	0	n/a	n/a	n/a	n/a	n/a
1547.442	n/a	REC_WORD	773721	wordpools/wasnorm_wordpool.txt	LTP122	ltpFR	4	9	1	BUTTON	207	n/a	0	n/a	n/a	n/a	n/a	n/a
1550.212	n/a	REC_WORD	775106	wordpools/wasnorm_wordpool.txt	LTP122	ltpFR	4	9	1	TOOTH	1481	n/a	0	n/a	n/a	n/a	n/a	n/a
1551.306	n/a	REC_WORD	775653	wordpools/wasnorm_wordpool.txt	LTP122	ltpFR	4	9	1	PAINT	1003	n/a	0	n/a	n/a	n/a	n/a	n/a
1552.114	n/a	REC_WORD	776057	wordpools/wasnorm_wordpool.txt	LTP122	ltpFR	4	9	1	SHORTS	1293	n/a	0	n/a	n/a	n/a	n/a	n/a
1553.21	n/a	REC_WORD	776605	wordpools/wasnorm_wordpool.txt	LTP122	ltpFR	4	9	1	RAG	1160	n/a	0	n/a	n/a	n/a	n/a	n/a
1554.048	n/a	REC_WORD	777024	wordpools/wasnorm_wordpool.txt	LTP122	ltpFR	4	9	1	OINTMENT	974	n/a	0	n/a	n/a	n/a	n/a	n/a
1558.1	n/a	REC_WORD	779050	wordpools/wasnorm_wordpool.txt	LTP122	ltpFR	4	9	1	STREET	1393	n/a	0	n/a	n/a	n/a	n/a	n/a
1634.91	n/a	WORD	817455	wordpools/wasnorm_wordpool.txt	LTP122	ltpFR	4	10	-1	MERMAID	887	n/a	-1	1	1.0	1.0	upper	../fonts/Verdana.ttf
1638.942	n/a	WORD	819471	wordpools/wasnorm_wordpool.txt	LTP122	ltpFR	4	10	-1	FIN	566	n/a	-1	1	1.0	1.0	upper	../fonts/Verdana.ttf
1642.908	n/a	WORD	821454	wordpools/wasnorm_wordpool.txt	LTP122	ltpFR	4	10	-1	GUITAR	670	n/a	-1	1	1.0	1.0	upper	../fonts/Verdana.ttf
1646.79	n/a	WORD	823395	wordpools/wasnorm_wordpool.txt	LTP122	ltpFR	4	10	-1	DISC	473	n/a	-1	1	1.0	1.0	upper	../fonts/Verdana.ttf
1650.882	n/a	WORD	825441	wordpools/wasnorm_wordpool.txt	LTP122	ltpFR	4	10	-1	NERVE	944	n/a	-1	1	1.0	1.0	upper	../fonts/Verdana.ttf
1654.904	n/a	WORD	827452	wordpools/wasnorm_wordpool.txt	LTP122	ltpFR	4	10	-1	STEAM	1375	n/a	-1	1	1.0	1.0	upper	../fonts/Verdana.ttf
1658.944	n/a	WORD	829472	wordpools/wasnorm_wordpool.txt	LTP122	ltpFR	4	10	-1	DECK	443	n/a	-1	1	1.0	1.0	upper	../fonts/Verdana.ttf
1662.86	n/a	WORD	831430	wordpools/wasnorm_wordpool.txt	LTP122	ltpFR	4	10	-1	INTESTINE	742	n/a	-1	1	1.0	1.0	upper	../fonts/Verdana.ttf
1667.026	n/a	WORD	833513	wordpools/wasnorm_wordpool.txt	LTP122	ltpFR	4	10	-1	CERAMICS	271	n/a	-1	1	1.0	1.0	upper	../fonts/Verdana.ttf
1670.976	n/a	WORD	835488	wordpools/wasnorm_wordpool.txt	LTP122	ltpFR	4	10	-1	GODDESS	646	n/a	-1	1	1.0	1.0	upper	../fonts/Verdana.ttf
1674.898	n/a	WORD	837449	wordpools/wasnorm_wordpool.txt	LTP122	ltpFR	4	10	-1	FOE	587	n/a	-1	1	1.0	1.0	upper	../fonts/Verdana.ttf
1678.98	n/a	WORD	839490	wordpools/wasnorm_wordpool.txt	LTP122	ltpFR	4	10	-1	HOOP	716	n/a	-1	1	1.0	1.0	upper	../fonts/Verdana.ttf
1683.096	n/a	WORD	841548	wordpools/wasnorm_wordpool.txt	LTP122	ltpFR	4	10	-1	OVAL	990	n/a	-1	1	1.0	1.0	upper	../fonts/Verdana.ttf
1687.112	n/a	WORD	843556	wordpools/wasnorm_wordpool.txt	LTP122	ltpFR	4	10	-1	ORCHID	982	n/a	-1	1	1.0	1.0	upper	../fonts/Verdana.ttf
1691.194	n/a	WORD	845597	wordpools/wasnorm_wordpool.txt	LTP122	ltpFR	4	10	-1	BANJO	82	n/a	-1	1	1.0	1.0	upper	../fonts/Verdana.ttf
1695.408	n/a	WORD	847704	wordpools/wasnorm_wordpool.txt	LTP122	ltpFR	4	10	-1	FLUTE	585	n/a	-1	1	1.0	1.0	upper	../fonts/Verdana.ttf
1701.266	n/a	REC_START	850633	n/a	LTP122	ltpFR	4	10	n/a	n/a	n/a	n/a	n/a	n/a	n/a	n/a	n/a	n/a
1701.878	n/a	REC_WORD	850939	wordpools/wasnorm_wordpool.txt	LTP122	ltpFR	4	10	-1	BANJO	82	n/a	-1	n/a	n/a	n/a	n/a	n/a
1702.562	n/a	REC_WORD	851281	wordpools/wasnorm_wordpool.txt	LTP122	ltpFR	4	10	-1	FLUTE	585	n/a	-1	n/a	n/a	n/a	n/a	n/a
1703.634	n/a	REC_WORD	851817	wordpools/wasnorm_wordpool.txt	LTP122	ltpFR	4	10	-1	ORCHID	982	n/a	-1	n/a	n/a	n/a	n/a	n/a
1704.508	n/a	REC_WORD	852254	wordpools/wasnorm_wordpool.txt	LTP122	ltpFR	4	10	-1	OVAL	990	n/a	-1	n/a	n/a	n/a	n/a	n/a
1709.598	n/a	REC_WORD	854799	wordpools/wasnorm_wordpool.txt	LTP122	ltpFR	4	10	-1	MERMAID	887	n/a	-1	n/a	n/a	n/a	n/a	n/a
1710.226	n/a	REC_WORD	855113	wordpools/wasnorm_wordpool.txt	LTP122	ltpFR	4	10	-1	FIN	566	n/a	-1	n/a	n/a	n/a	n/a	n/a
1721.964	n/a	REC_WORD	860982	wordpools/wasnorm_wordpool.txt	LTP122	ltpFR	4	10	-1	CERAMICS	271	n/a	-1	n/a	n/a	n/a	n/a	n/a
1785.398	n/a	WORD	892699	wordpools/wasnorm_wordpool.txt	LTP122	ltpFR	4	11	0	NURSE	963	n/a	1	1	0.412841796875	0.57763671875	lower	../fonts/zerothre.ttf
1789.522	n/a	WORD	894761	wordpools/wasnorm_wordpool.txt	LTP122	ltpFR	4	11	0	PATIENT	1024	n/a	1	1	0.412841796875	0.57763671875	lower	../fonts/zerothre.ttf
1793.428	n/a	WORD	896714	wordpools/wasnorm_wordpool.txt	LTP122	ltpFR	4	11	0	SHRUB	1299	n/a	1	1	0.412841796875	0.57763671875	lower	../fonts/zerothre.ttf
1797.46	n/a	WORD	898730	wordpools/wasnorm_wordpool.txt	LTP122	ltpFR	4	11	1	DORM	488	n/a	3	0	0.5869140625	0.422607421875	upper	../fonts/amplitud.ttf
1798.36	n/a	KEY_MSG	899180	n/a	LTP122	ltpFR	4	11	n/a	n/a	n/a	n/a	n/a	n/a	n/a	n/a	n/a	n/a
1801.302	n/a	WORD	900651	wordpools/wasnorm_wordpool.txt	LTP122	ltpFR	4	11	1	HERD	705	n/a	1	0	0.5869140625	0.422607421875	upper	../fonts/amplitud.ttf
1805.334	n/a	WORD	902667	wordpools/wasnorm_wordpool.txt	LTP122	ltpFR	4	11	1	ANGEL	22	n/a	1	0	0.5869140625	0.422607421875	upper	../fonts/amplitud.ttf
1809.482	n/a	WORD	904741	wordpools/wasnorm_wordpool.txt	LTP122	ltpFR	4	11	0	CUP	424	n/a	0	1	0.412841796875	0.57763671875	lower	../fonts/zerothre.ttf
1813.43	n/a	WORD	906715	wordpools/wasnorm_wordpool.txt	LTP122	ltpFR	4	11	0	KEG	770	n/a	1	1	0.412841796875	0.57763671875	lower	../fonts/zerothre.ttf
1817.346	n/a	WORD	908673	wordpools/wasnorm_wordpool.txt	LTP122	ltpFR	4	11	1	DISH	474	n/a	0	0	0.5869140625	0.422607421875	upper	../fonts/amplitud.ttf
1821.28	n/a	WORD	910640	wordpools/wasnorm_wordpool.txt	LTP122	ltpFR	4	11	1	GLASS	639	n/a	0	0	0.5869140625	0.422607421875	upper	../fonts/amplitud.ttf
1825.362	n/a	WORD	912681	wordpools/wasnorm_wordpool.txt	LTP122	ltpFR	4	11	1	ROOT	1210	n/a	1	0	0.5869140625	0.422607421875	upper	../fonts/amplitud.ttf
1829.268	n/a	WORD	914634	wordpools/wasnorm_wordpool.txt	LTP122	ltpFR	4	11	1	DANDELION	438	n/a	1	0	0.5869140625	0.422607421875	upper	../fonts/amplitud.ttf
1833.466	n/a	WORD	916733	wordpools/wasnorm_wordpool.txt	LTP122	ltpFR	4	11	1	GOAT	644	n/a	1	0	0.5869140625	0.422607421875	upper	../fonts/amplitud.ttf
1837.664	n/a	WORD	918832	wordpools/wasnorm_wordpool.txt	LTP122	ltpFR	4	11	0	FREEZER	604	n/a	3	1	0.412841796875	0.57763671875	lower	../fonts/zerothre.ttf
1838.216	n/a	KEY_MSG	919108	n/a	LTP122	ltpFR	4	11	n/a	n/a	n/a	n/a	n/a	n/a	n/a	n/a	n/a	n/a
1841.68	n/a	WORD	920840	wordpools/wasnorm_wordpool.txt	LTP122	ltpFR	4	11	0	PLIERS	1089	n/a	0	1	0.412841796875	0.57763671875	lower	../fonts/zerothre.ttf
1845.746	n/a	WORD	922873	wordpools/wasnorm_wordpool.txt	LTP122	ltpFR	4	11	0	HAMMOCK	681	n/a	1	1	0.412841796875	0.57763671875	lower	../fonts/zerothre.ttf
1851.494	n/a	REC_START	925747	n/a	LTP122	ltpFR	4	11	n/a	n/a	n/a	n/a	n/a	n/a	n/a	n/a	n/a	n/a
1852.742	n/a	REC_WORD	926371	wordpools/wasnorm_wordpool.txt	LTP122	ltpFR	4	11	0	PLIERS	1089	n/a	0	n/a	n/a	n/a	n/a	n/a
1853.402	n/a	REC_WORD	926701	wordpools/wasnorm_wordpool.txt	LTP122	ltpFR	4	11	0	HAMMOCK	681	n/a	1	n/a	n/a	n/a	n/a	n/a
1854.064	n/a	REC_WORD	927032	wordpools/wasnorm_wordpool.txt	LTP122	ltpFR	4	11	n/a	DOCTOR	478	n/a	n/a	n/a	n/a	n/a	n/a	n/a
1854.602	n/a	REC_WORD	927301	wordpools/wasnorm_wordpool.txt	LTP122	ltpFR	4	11	0	PATIENT	1024	n/a	1	n/a	n/a	n/a	n/a	n/a
1855.176	n/a	REC_WORD	927588	wordpools/wasnorm_wordpool.txt	LTP122	ltpFR	4	11	0	SHRUB	1299	n/a	1	n/a	n/a	n/a	n/a	n/a
1858.428	n/a	REC_WORD	929214	wordpools/wasnorm_wordpool.txt	LTP122	ltpFR	4	11	1	DANDELION	438	n/a	1	n/a	n/a	n/a	n/a	n/a
1859.082	n/a	REC_WORD	929541	wordpools/wasnorm_wordpool.txt	LTP122	ltpFR	4	11	1	ROOT	1210	n/a	1	n/a	n/a	n/a	n/a	n/a
1862.226	n/a	REC_WORD	931113	wordpools/wasnorm_wordpool.txt	LTP122	ltpFR	4	11	1	DORM	488	n/a	3	n/a	n/a	n/a	n/a	n/a
1862.688	n/a	REC_WORD	931344	wordpools/wasnorm_wordpool.txt	LTP122	ltpFR	4	11	1	HERD	705	n/a	1	n/a	n/a	n/a	n/a	n/a
1864.626	n/a	REC_WORD	932313	wordpools/wasnorm_wordpool.txt	LTP122	ltpFR	4	11	0	SAUCER	1237	n/a	0	n/a	n/a	n/a	n/a	n/a
1865.584	n/a	REC_WORD	932792	wordpools/wasnorm_wordpool.txt	LTP122	ltpFR	4	11	1	GLASS	639	n/a	0	n/a	n/a	n/a	n/a	n/a
1867.484	n/a	REC_WORD	933742	wordpools/wasnorm_wordpool.txt	LTP122	ltpFR	4	11	0	CUP	424	n/a	0	n/a	n/a	n/a	n/a	n/a
1883.25	n/a	REC_WORD	941625	wordpools/wasnorm_wordpool.txt	LTP122	ltpFR	4	11	0	HAMMOCK	681	n/a	1	n/a	n/a	n/a	n/a	n/a
1901.02	n/a	REC_WORD	950510	wordpools/wasnorm_wordpool.txt	LTP122	ltpFR	4	11	1	GOAT	644	n/a	1	n/a	n/a	n/a	n/a	n/a
1931.896	n/a	WORD	965948	wordpools/wasnorm_wordpool.txt	LTP122	ltpFR	4	12	1	TART	1436	n/a	0	0	0.5869140625	0.422607421875	upper	../fonts/amplitud.ttf
1936.028	n/a	WORD	968014	wordpools/wasnorm_wordpool.txt	LTP122	ltpFR	4	12	1	SAP	1233	n/a	0	0	0.5869140625	0.422607421875	upper	../fonts/amplitud.ttf
1940.136	n/a	WORD	970068	wordpools/wasnorm_wordpool.txt	LTP122	ltpFR	4	12	1	POT	1114	n/a	0	0	0.5869140625	0.422607421875	upper	../fonts/amplitud.ttf
1944.208	n/a	WORD	972104	wordpools/wasnorm_wordpool.txt	LTP122	ltpFR	4	12	1	SENATOR	1268	n/a	1	0	0.5869140625	0.422607421875	upper	../fonts/amplitud.ttf
1948.324	n/a	WORD	974162	wordpools/wasnorm_wordpool.txt	LTP122	ltpFR	4	12	1	BANKER	84	n/a	1	0	0.5869140625	0.422607421875	upper	../fonts/amplitud.ttf
1952.164	n/a	WORD	976082	wordpools/wasnorm_wordpool.txt	LTP122	ltpFR	4	12	1	KETTLE	772	n/a	0	0	0.5869140625	0.422607421875	upper	../fonts/amplitud.ttf
1956.148	n/a	WORD	978074	wordpools/wasnorm_wordpool.txt	LTP122	ltpFR	4	12	1	SNACK	1331	n/a	0	0	0.5869140625	0.422607421875	upper	../fonts/amplitud.ttf
1959.996	n/a	WORD	979998	wordpools/wasnorm_wordpool.txt	LTP122	ltpFR	4	12	1	CHECK	284	n/a	0	0	0.5869140625	0.422607421875	upper	../fonts/amplitud.ttf
1964.012	n/a	WORD	982006	wordpools/wasnorm_wordpool.txt	LTP122	ltpFR	4	12	1	MAPLE	866	n/a	0	0	0.5869140625	0.422607421875	upper	../fonts/amplitud.ttf
1968.152	n/a	WORD	984076	wordpools/wasnorm_wordpool.txt	LTP122	ltpFR	4	12	1	FIG	563	n/a	0	0	0.5869140625	0.422607421875	upper	../fonts/amplitud.ttf
1972.2	n/a	WORD	986100	wordpools/wasnorm_wordpool.txt	LTP122	ltpFR	4	12	1	VELVET	1555	n/a	0	0	0.5869140625	0.422607421875	upper	../fonts/amplitud.ttf
1976.316	n/a	WORD	988158	wordpools/wasnorm_wordpool.txt	LTP122	ltpFR	4	12	1	FLESH	579	n/a	0	0	0.5869140625	0.422607421875	upper	../fonts/amplitud.ttf
1980.19	n/a	WORD	990095	wordpools/wasnorm_wordpool.txt	LTP122	ltpFR	4	12	1	QUAIL	1147	n/a	0	0	0.5869140625	0.422607421875	upper	../fonts/amplitud.ttf
1984.396	n/a	WORD	992198	wordpools/wasnorm_wordpool.txt	LTP122	ltpFR	4	12	1	SEAGULL	1261	n/a	1	0	0.5869140625	0.422607421875	upper	../fonts/amplitud.ttf
1988.246	n/a	WORD	994123	wordpools/wasnorm_wordpool.txt	LTP122	ltpFR	4	12	1	RESORT	1186	n/a	0	0	0.5869140625	0.422607421875	upper	../fonts/amplitud.ttf
1992.268	n/a	WORD	996134	wordpools/wasnorm_wordpool.txt	LTP122	ltpFR	4	12	1	BED	110	n/a	0	0	0.5869140625	0.422607421875	upper	../fonts/amplitud.ttf
1998.184	n/a	REC_START	999092	n/a	LTP122	ltpFR	4	12	n/a	n/a	n/a	n/a	n/a	n/a	n/a	n/a	n/a	n/a
1999.062	n/a	REC_WORD	999531	wordpools/wasnorm_wordpool.txt	LTP122	ltpFR	4	12	1	RESORT	1186	n/a	0	n/a	n/a	n/a	n/a	n/a
1999.736	n/a	REC_WORD	999868	wordpools/wasnorm_wordpool.txt	LTP122	ltpFR	4	12	1	BED	110	n/a	0	n/a	n/a	n/a	n/a	n/a
2000.388	n/a	REC_WORD	1000194	wordpools/wasnorm_wordpool.txt	LTP122	ltpFR	4	12	1	SEAGULL	1261	n/a	1	n/a	n/a	n/a	n/a	n/a
2002.026	n/a	REC_WORD	1001013	wordpools/wasnorm_wordpool.txt	LTP122	ltpFR	4	12	1	QUAIL	1147	n/a	0	n/a	n/a	n/a	n/a	n/a
2002.738	n/a	REC_WORD	1001369	wordpools/wasnorm_wordpool.txt	LTP122	ltpFR	4	12	1	SENATOR	1268	n/a	1	n/a	n/a	n/a	n/a	n/a
2003.572	n/a	REC_WORD	1001786	wordpools/wasnorm_wordpool.txt	LTP122	ltpFR	4	12	1	BANKER	84	n/a	1	n/a	n/a	n/a	n/a	n/a
2004.2	n/a	REC_WORD	1002100	wordpools/wasnorm_wordpool.txt	LTP122	ltpFR	4	12	1	CHECK	284	n/a	0	n/a	n/a	n/a	n/a	n/a
2005.522	n/a	REC_WORD	1002761	wordpools/wasnorm_wordpool.txt	LTP122	ltpFR	4	12	1	FLESH	579	n/a	0	n/a	n/a	n/a	n/a	n/a
2008.446	n/a	REC_WORD	1004223	wordpools/wasnorm_wordpool.txt	LTP122	ltpFR	4	12	1	VELVET	1555	n/a	0	n/a	n/a	n/a	n/a	n/a
2010.032	n/a	REC_WORD	1005016	wordpools/wasnorm_wordpool.txt	LTP122	ltpFR	4	12	1	MAPLE	866	n/a	0	n/a	n/a	n/a	n/a	n/a
2011.37	n/a	REC_WORD	1005685	wordpools/wasnorm_wordpool.txt	LTP122	ltpFR	4	12	1	SAP	1233	n/a	0	n/a	n/a	n/a	n/a	n/a
2014.048	n/a	REC_WORD	1007024	wordpools/wasnorm_wordpool.txt	LTP122	ltpFR	4	12	1	TART	1436	n/a	0	n/a	n/a	n/a	n/a	n/a
2036.968	n/a	REC_WORD	1018484	wordpools/wasnorm_wordpool.txt	LTP122	ltpFR	4	12	1	SNACK	1331	n/a	0	n/a	n/a	n/a	n/a	n/a
2040.83	n/a	REC_WORD	1020415	wordpools/wasnorm_wordpool.txt	LTP122	ltpFR	4	12	1	CHECK	284	n/a	0	n/a	n/a	n/a	n/a	n/a
2073.768	n/a	REST_REWET	1036884	n/a	LTP122	ltpFR	4	12	n/a	n/a	n/a	n/a	n/a	n/a	n/a	n/a	n/a	n/a
2421.122	n/a	WORD	1210561	wordpools/wasnorm_wordpool.txt	LTP122	ltpFR	4	13	0	STAFF	1365	n/a	1	1	0.412841796875	0.57763671875	lower	../fonts/zerothre.ttf
2425.314	n/a	WORD	1212657	wordpools/wasnorm_wordpool.txt	LTP122	ltpFR	4	13	0	DICTATOR	462	n/a	1	1	0.412841796875	0.57763671875	lower	../fonts/zerothre.ttf
2429.336	n/a	WORD	1214668	wordpools/wasnorm_wordpool.txt	LTP122	ltpFR	4	13	0	GOLD	647	n/a	0	1	0.412841796875	0.57763671875	lower	../fonts/zerothre.ttf
2433.376	n/a	WORD	1216688	wordpools/wasnorm_wordpool.txt	LTP122	ltpFR	4	13	0	BRACES	164	n/a	0	1	0.412841796875	0.57763671875	lower	../fonts/zerothre.ttf
2437.384	n/a	WORD	1218692	wordpools/wasnorm_wordpool.txt	LTP122	ltpFR	4	13	0	TOOTHBRUSH	1482	n/a	0	1	0.412841796875	0.57763671875	lower	../fonts/zerothre.ttf
2441.55	n/a	WORD	1220775	wordpools/wasnorm_wordpool.txt	LTP122	ltpFR	4	13	0	WASHCLOTH	1591	n/a	0	1	0.412841796875	0.57763671875	lower	../fonts/zerothre.ttf
2445.572	n/a	WORD	1222786	wordpools/wasnorm_wordpool.txt	LTP122	ltpFR	4	13	0	COP	376	n/a	1	1	0.412841796875	0.57763671875	lower	../fonts/zerothre.ttf
2449.446	n/a	WORD	1224723	wordpools/wasnorm_wordpool.txt	LTP122	ltpFR	4	13	0	COB	334	n/a	0	1	0.412841796875	0.57763671875	lower	../fonts/zerothre.ttf
2453.42	n/a	WORD	1226710	wordpools/wasnorm_wordpool.txt	LTP122	ltpFR	4	13	0	DETERGENT	455	n/a	0	1	0.412841796875	0.57763671875	lower	../fonts/zerothre.ttf
2457.618	n/a	WORD	1228809	wordpools/wasnorm_wordpool.txt	LTP122	ltpFR	4	13	0	DUCK	504	n/a	1	1	0.412841796875	0.57763671875	lower	../fonts/zerothre.ttf
2461.71	n/a	WORD	1230855	wordpools/wasnorm_wordpool.txt	LTP122	ltpFR	4	13	0	ATTORNEY	58	n/a	1	1	0.412841796875	0.57763671875	lower	../fonts/zerothre.ttf
2465.86	n/a	WORD	1232930	wordpools/wasnorm_wordpool.txt	LTP122	ltpFR	4	13	0	FARMER	553	n/a	1	1	0.412841796875	0.57763671875	lower	../fonts/zerothre.ttf
2469.698	n/a	WORD	1234849	wordpools/wasnorm_wordpool.txt	LTP122	ltpFR	4	13	0	ARMY	39	n/a	1	1	0.412841796875	0.57763671875	lower	../fonts/zerothre.ttf
2473.538	n/a	WORD	1236769	wordpools/wasnorm_wordpool.txt	LTP122	ltpFR	4	13	0	DINER	467	n/a	1	1	0.412841796875	0.57763671875	lower	../fonts/zerothre.ttf
2477.52	n/a	WORD	1238760	wordpools/wasnorm_wordpool.txt	LTP122	ltpFR	4	13	0	DOOR	486	n/a	1	1	0.412841796875	0.57763671875	lower	../fonts/zerothre.ttf
2481.496	n/a	WORD	1240748	wordpools/wasnorm_wordpool.txt	LTP122	ltpFR	4	13	0	GATE	625	n/a	1	1	0.412841796875	0.57763671875	lower	../fonts/zerothre.ttf
2487.32	n/a	REC_START	1243660	n/a	LTP122	ltpFR	4	13	n/a	n/a	n/a	n/a	n/a	n/a	n/a	n/a	n/a	n/a
2489.06	n/a	REC_WORD	1244530	wordpools/wasnorm_wordpool.txt	LTP122	ltpFR	4	13	0	DINER	467	n/a	1	n/a	n/a	n/a	n/a	n/a
2489.838	n/a	REC_WORD	1244919	wordpools/wasnorm_wordpool.txt	LTP122	ltpFR	4	13	0	ARMY	39	n/a	1	n/a	n/a	n/a	n/a	n/a
2490.566	n/a	REC_WORD	1245283	wordpools/wasnorm_wordpool.txt	LTP122	ltpFR	4	13	0	DOOR	486	n/a	1	n/a	n/a	n/a	n/a	n/a
2491.594	n/a	REC_WORD	1245797	wordpools/wasnorm_wordpool.txt	LTP122	ltpFR	4	13	0	GATE	625	n/a	1	n/a	n/a	n/a	n/a	n/a
2492.566	n/a	REC_WORD	1246283	wordpools/wasnorm_wordpool.txt	LTP122	ltpFR	4	13	0	STAFF	1365	n/a	1	n/a	n/a	n/a	n/a	n/a
2496.408	n/a	REC_WORD	1248204	wordpools/wasnorm_wordpool.txt	LTP122	ltpFR	4	13	0	DICTATOR	462	n/a	1	n/a	n/a	n/a	n/a	n/a
2497.96	n/a	REC_WORD	1248980	wordpools/wasnorm_wordpool.txt	LTP122	ltpFR	4	13	0	ATTORNEY	58	n/a	1	n/a	n/a	n/a	n/a	n/a
2500.71	n/a	REC_WORD	1250355	wordpools/wasnorm_wordpool.txt	LTP122	ltpFR	4	13	n/a	POLICEMAN	-1	n/a	n/a	n/a	n/a	n/a	n/a	n/a
2502.766	n/a	REC_WORD	1251383	wordpools/wasnorm_wordpool.txt	LTP122	ltpFR	4	13	0	DUCK	504	n/a	1	n/a	n/a	n/a	n/a	n/a
2504.83	n/a	REC_WORD	1252415	wordpools/wasnorm_wordpool.txt	LTP122	ltpFR	4	13	0	GOLD	647	n/a	0	n/a	n/a	n/a	n/a	n/a
2505.538	n/a	REC_WORD	1252769	wordpools/wasnorm_wordpool.txt	LTP122	ltpFR	4	13	0	BRACES	164	n/a	0	n/a	n/a	n/a	n/a	n/a
2506.318	n/a	REC_WORD	1253159	wordpools/wasnorm_wordpool.txt	LTP122	ltpFR	4	13	0	TOOTHBRUSH	1482	n/a	0	n/a	n/a	n/a	n/a	n/a
2507.216	n/a	REC_WORD	1253608	wordpools/wasnorm_wordpool.txt	LTP122	ltpFR	4	13	0	WASHCLOTH	1591	n/a	0	n/a	n/a	n/a	n/a	n/a
2509.42	n/a	REC_WORD	1254710	wordpools/wasnorm_wordpool.txt	LTP122	ltpFR	4	13	0	COB	334	n/a	0	n/a	n/a	n/a	n/a	n/a
2526.486	n/a	REC_WORD	1263243	wordpools/wasnorm_wordpool.txt	LTP122	ltpFR	4	13	0	FARMER	553	n/a	1	n/a	n/a	n/a	n/a	n/a
2586.014	n/a	WORD	1293007	wordpools/wasnorm_wordpool.txt	LTP122	ltpFR	4	14	0	CHEDDAR	286	n/a	0	1	0.412841796875	0.57763671875	lower	../fonts/zerothre.ttf
2590.046	n/a	WORD	1295023	wordpools/wasnorm_wordpool.txt	LTP122	ltpFR	4	14	0	CHEESE	289	n/a	0	1	0.412841796875	0.57763671875	lower	../fonts/zerothre.ttf
2594.252	n/a	WORD	1297126	wordpools/wasnorm_wordpool.txt	LTP122	ltpFR	4	14	0	FISH	571	n/a	0	1	0.412841796875	0.57763671875	lower	../fonts/zerothre.ttf
2598.46	n/a	WORD	1299230	wordpools/wasnorm_wordpool.txt	LTP122	ltpFR	4	14	0	TANGERINE	1431	n/a	0	1	0.412841796875	0.57763671875	lower	../fonts/zerothre.ttf
2602.442	n/a	WORD	1301221	wordpools/wasnorm_wordpool.txt	LTP122	ltpFR	4	14	0	MONSTER	912	n/a	1	1	0.412841796875	0.57763671875	lower	../fonts/zerothre.ttf
2606.342	n/a	WORD	1303171	wordpools/wasnorm_wordpool.txt	LTP122	ltpFR	4	14	0	BISON	131	n/a	1	1	0.412841796875	0.57763671875	lower	../fonts/zerothre.ttf
2610.156	n/a	WORD	1305078	wordpools/wasnorm_wordpool.txt	LTP122	ltpFR	4	14	0	CROCODILE	411	n/a	1	1	0.412841796875	0.57763671875	lower	../fonts/zerothre.ttf
2614.038	n/a	WORD	1307019	wordpools/wasnorm_wordpool.txt	LTP122	ltpFR	4	14	0	CABINET	212	n/a	1	1	0.412841796875	0.57763671875	lower	../fonts/zerothre.ttf
2617.854	n/a	WORD	1308927	wordpools/wasnorm_wordpool.txt	LTP122	ltpFR	4	14	0	FINGERNAIL	568	n/a	0	1	0.412841796875	0.57763671875	lower	../fonts/zerothre.ttf
2621.81	n/a	WORD	1310905	wordpools/wasnorm_wordpool.txt	LTP122	ltpFR	4	14	0	RASH	1167	n/a	0	1	0.412841796875	0.57763671875	lower	../fonts/zerothre.ttf
2625.718	n/a	WORD	1312859	wordpools/wasnorm_wordpool.txt	LTP122	ltpFR	4	14	0	FLEA	577	n/a	0	1	0.412841796875	0.57763671875	lower	../fonts/zerothre.ttf
2629.766	n/a	WORD	1314883	wordpools/wasnorm_wordpool.txt	LTP122	ltpFR	4	14	0	CURTAIN	427	n/a	1	1	0.412841796875	0.57763671875	lower	../fonts/zerothre.ttf
2633.64	n/a	WORD	1316820	wordpools/wasnorm_wordpool.txt	LTP122	ltpFR	4	14	0	MOTHER	921	n/a	1	1	0.412841796875	0.57763671875	lower	../fonts/zerothre.ttf
2637.656	n/a	WORD	1318828	wordpools/wasnorm_wordpool.txt	LTP122	ltpFR	4	14	0	BEAST	108	n/a	1	1	0.412841796875	0.57763671875	lower	../fonts/zerothre.ttf
2641.63	n/a	WORD	1320815	wordpools/wasnorm_wordpool.txt	LTP122	ltpFR	4	14	0	DINNER	468	n/a	0	1	0.412841796875	0.57763671875	lower	../fonts/zerothre.ttf
2645.712	n/a	WORD	1322856	wordpools/wasnorm_wordpool.txt	LTP122	ltpFR	4	14	0	RASPBERRY	1168	n/a	0	1	0.412841796875	0.57763671875	lower	../fonts/zerothre.ttf
2651.42	n/a	REC_START	1325710	n/a	LTP122	ltpFR	4	14	n/a	n/a	n/a	n/a	n/a	n/a	n/a	n/a	n/a	n/a
2652.228	n/a	REC_WORD	1326114	wordpools/wasnorm_wordpool.txt	LTP122	ltpFR	4	14	0	DINNER	468	n/a	0	n/a	n/a	n/a	n/a	n/a
2652.846	n/a	REC_WORD	1326423	wordpools/wasnorm_wordpool.txt	LTP122	ltpFR	4	14	0	RASPBERRY	1168	n/a	0	n/a	n/a	n/a	n/a	n/a
2655.18	n/a	REC_WORD	1327590	wordpools/wasnorm_wordpool.txt	LTP122	ltpFR	4	14	0	FINGERNAIL	568	n/a	0	n/a	n/a	n/a	n/a	n/a
2656.18	n/a	REC_WORD_VV	1328090	wordpools/wasnorm_wordpool.txt	LTP122	ltpFR	4	14	n/a	<>	-1	n/a	n/a	n/a	n/a	n/a	n/a	n/a
2658.006	n/a	REC_WORD	1329003	wordpools/wasnorm_wordpool.txt	LTP122	ltpFR	4	14	0	RASH	1167	n/a	0	n/a	n/a	n/a	n/a	n/a
2660.186	n/a	REC_WORD	1330093	wordpools/wasnorm_wordpool.txt	LTP122	ltpFR	4	14	0	MONSTER	912	n/a	1	n/a	n/a	n/a	n/a	n/a
2661.398	n/a	REC_WORD	1330699	wordpools/wasnorm_wordpool.txt	LTP122	ltpFR	4	14	0	BEAST	108	n/a	1	n/a	n/a	n/a	n/a	n/a
2663.118	n/a	REC_WORD	1331559	wordpools/wasnorm_wordpool.txt	LTP122	ltpFR	4	14	0	BISON	131	n/a	1	n/a	n/a	n/a	n/a	n/a
2663.982	n/a	REC_WORD	1331991	wordpools/wasnorm_wordpool.txt	LTP122	ltpFR	4	14	0	CROCODILE	411	n/a	1	n/a	n/a	n/a	n/a	n/a
2665.06	n/a	REC_WORD	1332530	wordpools/wasnorm_wordpool.txt	LTP122	ltpFR	4	14	0	CABINET	212	n/a	1	n/a	n/a	n/a	n/a	n/a
2666.326	n/a	REC_WORD	1333163	wordpools/wasnorm_wordpool.txt	LTP122	ltpFR	4	14	0	CURTAIN	427	n/a	1	n/a	n/a	n/a	n/a	n/a
2667.19	n/a	REC_WORD	1333595	wordpools/wasnorm_wordpool.txt	LTP122	ltpFR	4	14	0	MOTHER	921	n/a	1	n/a	n/a	n/a	n/a	n/a
2678.474	n/a	REC_WORD	1339237	wordpools/wasnorm_wordpool.txt	LTP122	ltpFR	4	14	0	TANGERINE	1431	n/a	0	n/a	n/a	n/a	n/a	n/a
2691.476	n/a	REC_WORD	1345738	wordpools/wasnorm_wordpool.txt	LTP122	ltpFR	4	14	0	CHEDDAR	286	n/a	0	n/a	n/a	n/a	n/a	n/a
2692.378	n/a	REC_WORD	1346189	wordpools/wasnorm_wordpool.txt	LTP122	ltpFR	4	14	0	CHEESE	289	n/a	0	n/a	n/a	n/a	n/a	n/a
2693.302	n/a	REC_WORD	1346651	wordpools/wasnorm_wordpool.txt	LTP122	ltpFR	4	14	0	FISH	571	n/a	0	n/a	n/a	n/a	n/a	n/a
2744.932	n/a	WORD	1372466	wordpools/wasnorm_wordpool.txt	LTP122	ltpFR	4	15	-1	VESSEL	1558	n/a	-1	1	1.0	1.0	upper	../fonts/Verdana.ttf
2749.048	n/a	WORD	1374524	wordpools/wasnorm_wordpool.txt	LTP122	ltpFR	4	15	-1	CARNIVAL	245	n/a	-1	1	1.0	1.0	upper	../fonts/Verdana.ttf
2753.18	n/a	WORD	1376590	wordpools/wasnorm_wordpool.txt	LTP122	ltpFR	4	15	-1	ARTERY	41	n/a	-1	1	1.0	1.0	upper	../fonts/Verdana.ttf
2757.13	n/a	WORD	1378565	wordpools/wasnorm_wordpool.txt	LTP122	ltpFR	4	15	-1	VAMPIRE	1547	n/a	-1	1	1.0	1.0	upper	../fonts/Verdana.ttf
2761.302	n/a	WORD	1380651	wordpools/wasnorm_wordpool.txt	LTP122	ltpFR	4	15	-1	COBRA	336	n/a	-1	1	1.0	1.0	upper	../fonts/Verdana.ttf
2765.41	n/a	WORD	1382705	wordpools/wasnorm_wordpool.txt	LTP122	ltpFR	4	15	-1	TORCH	1484	n/a	-1	1	1.0	1.0	upper	../fonts/Verdana.ttf
2769.358	n/a	WORD	1384679	wordpools/wasnorm_wordpool.txt	LTP122	ltpFR	4	15	-1	GOO	648	n/a	-1	1	1.0	1.0	upper	../fonts/Verdana.ttf
2773.274	n/a	WORD	1386637	wordpools/wasnorm_wordpool.txt	LTP122	ltpFR	4	15	-1	REPTILE	1185	n/a	-1	1	1.0	1.0	upper	../fonts/Verdana.ttf
2777.264	n/a	WORD	1388632	wordpools/wasnorm_wordpool.txt	LTP122	ltpFR	4	15	-1	NOOSE	956	n/a	-1	1	1.0	1.0	upper	../fonts/Verdana.ttf
2781.222	n/a	WORD	1390611	wordpools/wasnorm_wordpool.txt	LTP122	ltpFR	4	15	-1	ABDOMEN	1	n/a	-1	1	1.0	1.0	upper	../fonts/Verdana.ttf
2785.128	n/a	WORD	1392564	wordpools/wasnorm_wordpool.txt	LTP122	ltpFR	4	15	-1	BODY	145	n/a	-1	1	1.0	1.0	upper	../fonts/Verdana.ttf
2788.978	n/a	WORD	1394489	wordpools/wasnorm_wordpool.txt	LTP122	ltpFR	4	15	-1	VAULT	1550	n/a	-1	1	1.0	1.0	upper	../fonts/Verdana.ttf
2793.094	n/a	WORD	1396547	wordpools/wasnorm_wordpool.txt	LTP122	ltpFR	4	15	-1	THIEF	1456	n/a	-1	1	1.0	1.0	upper	../fonts/Verdana.ttf
2797.068	n/a	WORD	1398534	wordpools/wasnorm_wordpool.txt	LTP122	ltpFR	4	15	-1	DRIVEWAY	500	n/a	-1	1	1.0	1.0	upper	../fonts/Verdana.ttf
2801.132	n/a	WORD	1400566	wordpools/wasnorm_wordpool.txt	LTP122	ltpFR	4	15	-1	TRICYCLE	1506	n/a	-1	1	1.0	1.0	upper	../fonts/Verdana.ttf
2805.206	n/a	WORD	1402603	wordpools/wasnorm_wordpool.txt	LTP122	ltpFR	4	15	-1	FLASHLIGHT	575	n/a	-1	1	1.0	1.0	upper	../fonts/Verdana.ttf
2811.048	n/a	REC_START	1405524	n/a	LTP122	ltpFR	4	15	n/a	n/a	n/a	n/a	n/a	n/a	n/a	n/a	n/a	n/a
2811.68	n/a	REC_WORD	1405840	wordpools/wasnorm_wordpool.txt	LTP122	ltpFR	4	15	-1	DRIVEWAY	500	n/a	-1	n/a	n/a	n/a	n/a	n/a
2812.548	n/a	REC_WORD	1406274	wordpools/wasnorm_wordpool.txt	LTP122	ltpFR	4	15	-1	TRICYCLE	1506	n/a	-1	n/a	n/a	n/a	n/a	n/a
2813.296	n/a	REC_WORD	1406648	wordpools/wasnorm_wordpool.txt	LTP122	ltpFR	4	15	-1	FLASHLIGHT	575	n/a	-1	n/a	n/a	n/a	n/a	n/a
2814.104	n/a	REC_WORD	1407052	wordpools/wasnorm_wordpool.txt	LTP122	ltpFR	4	15	-1	THIEF	1456	n/a	-1	n/a	n/a	n/a	n/a	n/a
2814.814	n/a	REC_WORD	1407407	wordpools/wasnorm_wordpool.txt	LTP122	ltpFR	4	15	-1	VAULT	1550	n/a	-1	n/a	n/a	n/a	n/a	n/a
2815.572	n/a	REC_WORD	1407786	wordpools/wasnorm_wordpool.txt	LTP122	ltpFR	4	15	n/a	TORSO	-1	n/a	n/a	n/a	n/a	n/a	n/a	n/a
2816.354	n/a	REC_WORD	1408177	wordpools/wasnorm_wordpool.txt	LTP122	ltpFR	4	15	-1	ABDOMEN	1	n/a	-1	n/a	n/a	n/a	n/a	n/a
2818.606	n/a	REC_WORD	1409303	wordpools/wasnorm_wordpool.txt	LTP122	ltpFR	4	15	-1	VAMPIRE	1547	n/a	-1	n/a	n/a	n/a	n/a	n/a
2819.978	n/a	REC_WORD	1409989	wordpools/wasnorm_wordpool.txt	LTP122	ltpFR	4	15	-1	TORCH	1484	n/a	-1	n/a	n/a	n/a	n/a	n/a
2821.274	n/a	REC_WORD	1410637	wordpools/wasnorm_wordpool.txt	LTP122	ltpFR	4	15	-1	REPTILE	1185	n/a	-1	n/a	n/a	n/a	n/a	n/a
2822.72	n/a	REC_WORD	1411360	wordpools/wasnorm_wordpool.txt	LTP122	ltpFR	4	15	-1	CARNIVAL	245	n/a	-1	n/a	n/a	n/a	n/a	n/a
2826.482	n/a	REC_WORD	1413241	wordpools/wasnorm_wordpool.txt	LTP122	ltpFR	4	15	-1	GOO	648	n/a	-1	n/a	n/a	n/a	n/a	n/a
2827.724	n/a	REC_WORD	1413862	wordpools/wasnorm_wordpool.txt	LTP122	ltpFR	4	15	-1	COBRA	336	n/a	-1	n/a	n/a	n/a	n/a	n/a
2828.638	n/a	REC_WORD	1414319	wordpools/wasnorm_wordpool.txt	LTP122	ltpFR	4	15	-1	ARTERY	41	n/a	-1	n/a	n/a	n/a	n/a	n/a
2870.924	n/a	REC_WORD	1435462	wordpools/wasnorm_wordpool.txt	LTP122	ltpFR	4	15	-1	VESSEL	1558	n/a	-1	n/a	n/a	n/a	n/a	n/a
2895.502	n/a	WORD	1447751	wordpools/wasnorm_wordpool.txt	LTP122	ltpFR	4	16	1	DIGGER	464	n/a	0	0	0.5869140625	0.422607421875	upper	../fonts/amplitud.ttf
2899.642	n/a	WORD	1449821	wordpools/wasnorm_wordpool.txt	LTP122	ltpFR	4	16	1	PIT	1077	n/a	0	0	0.5869140625	0.422607421875	upper	../fonts/amplitud.ttf
2903.634	n/a	WORD	1451817	wordpools/wasnorm_wordpool.txt	LTP122	ltpFR	4	16	0	BATHTUB	100	n/a	1	1	0.412841796875	0.57763671875	lower	../fonts/zerothre.ttf
2907.808	n/a	WORD	1453904	wordpools/wasnorm_wordpool.txt	LTP122	ltpFR	4	16	0	RAIL	1161	n/a	1	1	0.412841796875	0.57763671875	lower	../fonts/zerothre.ttf
2911.89	n/a	WORD	1455945	wordpools/wasnorm_wordpool.txt	LTP122	ltpFR	4	16	0	PERFUME	1049	n/a	0	1	0.412841796875	0.57763671875	lower	../fonts/zerothre.ttf
2915.906	n/a	WORD	1457953	wordpools/wasnorm_wordpool.txt	LTP122	ltpFR	4	16	1	BATHROOM	99	n/a	0	0	0.5869140625	0.422607421875	upper	../fonts/amplitud.ttf
2920.104	n/a	WORD	1460052	wordpools/wasnorm_wordpool.txt	LTP122	ltpFR	4	16	1	INMATE	738	n/a	1	0	0.5869140625	0.422607421875	upper	../fonts/amplitud.ttf
2924.262	n/a	WORD	1462131	wordpools/wasnorm_wordpool.txt	LTP122	ltpFR	4	16	1	SUPERVISOR	1410	n/a	1	0	0.5869140625	0.422607421875	upper	../fonts/amplitud.ttf
2928.22	n/a	WORD	1464110	wordpools/wasnorm_wordpool.txt	LTP122	ltpFR	4	16	1	MANAGER	863	n/a	1	0	0.5869140625	0.422607421875	upper	../fonts/amplitud.ttf
2932.202	n/a	WORD	1466101	wordpools/wasnorm_wordpool.txt	LTP122	ltpFR	4	16	1	FOLLOWER	589	n/a	1	0	0.5869140625	0.422607421875	upper	../fonts/amplitud.ttf
2936.174	n/a	WORD	1468087	wordpools/wasnorm_wordpool.txt	LTP122	ltpFR	4	16	1	SERGEANT	1269	n/a	1	0	0.5869140625	0.422607421875	upper	../fonts/amplitud.ttf
2940.34	n/a	WORD	1470170	wordpools/wasnorm_wordpool.txt	LTP122	ltpFR	4	16	0	ROCK	1201	n/a	0	1	0.412841796875	0.57763671875	lower	../fonts/zerothre.ttf
2944.47	n/a	WORD	1472235	wordpools/wasnorm_wordpool.txt	LTP122	ltpFR	4	16	0	SYRUP	1425	n/a	0	1	0.412841796875	0.57763671875	lower	../fonts/zerothre.ttf
2948.646	n/a	WORD	1474323	wordpools/wasnorm_wordpool.txt	LTP122	ltpFR	4	16	0	SLACKS	1323	n/a	0	1	0.412841796875	0.57763671875	lower	../fonts/zerothre.ttf
2952.836	n/a	WORD	1476418	wordpools/wasnorm_wordpool.txt	LTP122	ltpFR	4	16	0	SKUNK	1321	n/a	1	1	0.412841796875	0.57763671875	lower	../fonts/zerothre.ttf
2956.894	n/a	WORD	1478447	wordpools/wasnorm_wordpool.txt	LTP122	ltpFR	4	16	0	RUNNER	1218	n/a	1	1	0.412841796875	0.57763671875	lower	../fonts/zerothre.ttf
2962.724	n/a	REC_START	1481362	n/a	LTP122	ltpFR	4	16	n/a	n/a	n/a	n/a	n/a	n/a	n/a	n/a	n/a	n/a
2963.348	n/a	REC_WORD	1481674	wordpools/wasnorm_wordpool.txt	LTP122	ltpFR	4	16	0	SKUNK	1321	n/a	1	n/a	n/a	n/a	n/a	n/a
2963.972	n/a	REC_WORD	1481986	wordpools/wasnorm_wordpool.txt	LTP122	ltpFR	4	16	0	RUNNER	1218	n/a	1	n/a	n/a	n/a	n/a	n/a
2964.5	n/a	REC_WORD	1482250	wordpools/wasnorm_wordpool.txt	LTP122	ltpFR	4	16	0	SYRUP	1425	n/a	0	n/a	n/a	n/a	n/a	n/a
2965.136	n/a	REC_WORD	1482568	wordpools/wasnorm_wordpool.txt	LTP122	ltpFR	4	16	0	SLACKS	1323	n/a	0	n/a	n/a	n/a	n/a	n/a
2969.644	n/a	REC_WORD	1484822	wordpools/wasnorm_wordpool.txt	LTP122	ltpFR	4	16	1	INMATE	738	n/a	1	n/a	n/a	n/a	n/a	n/a
2970.348	n/a	REC_WORD	1485174	wordpools/wasnorm_wordpool.txt	LTP122	ltpFR	4	16	1	SUPERVISOR	1410	n/a	1	n/a	n/a	n/a	n/a	n/a
2971.348	n/a	REC_WORD_VV	1485674	wordpools/wasnorm_wordpool.txt	LTP122	ltpFR	4	16	n/a	<>	-1	n/a	n/a	n/a	n/a	n/a	n/a	n/a
2971.72	n/a	REC_WORD	1485860	wordpools/wasnorm_wordpool.txt	LTP122	ltpFR	4	16	1	MANAGER	863	n/a	1	n/a	n/a	n/a	n/a	n/a
2973.072	n/a	REC_WORD	1486536	wordpools/wasnorm_wordpool.txt	LTP122	ltpFR	4	16	1	SERGEANT	1269	n/a	1	n/a	n/a	n/a	n/a	n/a
2974.508	n/a	REC_WORD	1487254	wordpools/wasnorm_wordpool.txt	LTP122	ltpFR	4	16	1	FOLLOWER	589	n/a	1	n/a	n/a	n/a	n/a	n/a
2988.194	n/a	REC_WORD	1494097	wordpools/wasnorm_wordpool.txt	LTP122	ltpFR	4	16	0	PERFUME	1049	n/a	0	n/a	n/a	n/a	n/a	n/a
3011.956	n/a	REC_WORD	1505978	wordpools/wasnorm_wordpool.txt	LTP122	ltpFR	4	16	1	DIGGER	464	n/a	0	n/a	n/a	n/a	n/a	n/a
3012.666	n/a	REC_WORD	1506333	wordpools/wasnorm_wordpool.txt	LTP122	ltpFR	4	16	1	PIT	1077	n/a	0	n/a	n/a	n/a	n/a	n/a
3061.214	n/a	REC_START	1530607	n/a	LTP122	ltpFR	4	1	n/a	n/a	n/a	n/a	n/a	n/a	n/a	n/a	n/a	n/a
3061.246	n/a	RECOG_TARGET	1530623	n/a	LTP122	ltpFR	4	1	1	SNAKE	1333	1	1	n/a	n/a	n/a	n/a	n/a
3062.95	n/a	RECOG_RESP	1531475	n/a	LTP122	ltpFR	4	1	1	SNAKE	1333	n/a	1	n/a	n/a	n/a	n/a	n/a
3064.302	n/a	RECOG_CONF	1532151	n/a	LTP122	ltpFR	4	1	1	SNAKE	1333	1	1	n/a	n/a	n/a	n/a	n/a
3065.952	n/a	RECOG_LURE	1532976	n/a	LTP122	ltpFR	4	1	n/a	SALOON	1228	2	n/a	n/a	n/a	n/a	n/a	n/a
3066.622	n/a	RECOG_RESP	1533311	n/a	LTP122	ltpFR	4	1	n/a	SALOON	1228	n/a	n/a	n/a	n/a	n/a	n/a	n/a
3067.934	n/a	RECOG_CONF	1533967	n/a	LTP122	ltpFR	4	1	n/a	SALOON	1228	2	n/a	n/a	n/a	n/a	n/a	n/a
3069.352	n/a	RECOG_TARGET	1534676	n/a	LTP122	ltpFR	4	1	1	MAPLE	866	5	0	n/a	n/a	n/a	n/a	n/a
3069.978	n/a	RECOG_RESP	1534989	n/a	LTP122	ltpFR	4	1	1	MAPLE	866	n/a	0	n/a	n/a	n/a	n/a	n/a
3071.066	n/a	RECOG_CONF	1535533	n/a	LTP122	ltpFR	4	1	1	MAPLE	866	5	0	n/a	n/a	n/a	n/a	n/a
3072.724	n/a	RECOG_TARGET	1536362	n/a	LTP122	ltpFR	4	1	0	WHEAT	1602	5	0	n/a	n/a	n/a	n/a	n/a
3073.4	n/a	RECOG_RESP	1536700	n/a	LTP122	ltpFR	4	1	0	WHEAT	1602	n/a	0	n/a	n/a	n/a	n/a	n/a
3074.428	n/a	RECOG_CONF	1537214	n/a	LTP122	ltpFR	4	1	0	WHEAT	1602	5	0	n/a	n/a	n/a	n/a	n/a
3075.908	n/a	RECOG_TARGET	1537954	n/a	LTP122	ltpFR	4	1	-1	FLUTE	585	5	-1	n/a	n/a	n/a	n/a	n/a
3076.608	n/a	RECOG_RESP	1538304	n/a	LTP122	ltpFR	4	1	-1	FLUTE	585	n/a	-1	n/a	n/a	n/a	n/a	n/a
3077.74	n/a	RECOG_CONF	1538870	n/a	LTP122	ltpFR	4	1	-1	FLUTE	585	5	-1	n/a	n/a	n/a	n/a	n/a
3079.272	n/a	RECOG_TARGET	1539636	n/a	LTP122	ltpFR	4	1	1	GUN	673	1	0	n/a	n/a	n/a	n/a	n/a
3080.036	n/a	RECOG_RESP	1540018	n/a	LTP122	ltpFR	4	1	1	GUN	673	n/a	0	n/a	n/a	n/a	n/a	n/a
3081.154	n/a	RECOG_CONF	1540577	n/a	LTP122	ltpFR	4	1	1	GUN	673	1	0	n/a	n/a	n/a	n/a	n/a
3082.646	n/a	RECOG_LURE	1541323	n/a	LTP122	ltpFR	4	1	n/a	OREGANO	983	3	n/a	n/a	n/a	n/a	n/a	n/a
3083.338	n/a	RECOG_RESP	1541669	n/a	LTP122	ltpFR	4	1	n/a	OREGANO	983	n/a	n/a	n/a	n/a	n/a	n/a	n/a
3084.896	n/a	RECOG_CONF	1542448	n/a	LTP122	ltpFR	4	1	n/a	OREGANO	983	3	n/a	n/a	n/a	n/a	n/a	n/a
3086.554	n/a	RECOG_TARGET	1543277	n/a	LTP122	ltpFR	4	1	0	SKUNK	1321	5	1	n/a	n/a	n/a	n/a	n/a
3087.27	n/a	RECOG_RESP	1543635	n/a	LTP122	ltpFR	4	1	0	SKUNK	1321	n/a	1	n/a	n/a	n/a	n/a	n/a
3088.268	n/a	RECOG_CONF	1544134	n/a	LTP122	ltpFR	4	1	0	SKUNK	1321	5	1	n/a	n/a	n/a	n/a	n/a
3089.686	n/a	RECOG_TARGET	1544843	n/a	LTP122	ltpFR	4	1	0	CELERY	266	5	0	n/a	n/a	n/a	n/a	n/a
3090.298	n/a	RECOG_RESP	1545149	n/a	LTP122	ltpFR	4	1	0	CELERY	266	n/a	0	n/a	n/a	n/a	n/a	n/a
3091.102	n/a	RECOG_CONF	1545551	n/a	LTP122	ltpFR	4	1	0	CELERY	266	5	0	n/a	n/a	n/a	n/a	n/a
3092.668	n/a	RECOG_TARGET	1546334	n/a	LTP122	ltpFR	4	1	1	FIG	563	5	0	n/a	n/a	n/a	n/a	n/a
3093.426	n/a	RECOG_RESP	1546713	n/a	LTP122	ltpFR	4	1	1	FIG	563	n/a	0	n/a	n/a	n/a	n/a	n/a
3094.404	n/a	RECOG_CONF	1547202	n/a	LTP122	ltpFR	4	1	1	FIG	563	5	0	n/a	n/a	n/a	n/a	n/a
3095.884	n/a	RECOG_LURE	1547942	n/a	LTP122	ltpFR	4	1	n/a	WHISTLE	1606	2	n/a	n/a	n/a	n/a	n/a	n/a
3097.532	n/a	RECOG_RESP	1548766	n/a	LTP122	ltpFR	4	1	n/a	WHISTLE	1606	n/a	n/a	n/a	n/a	n/a	n/a	n/a
3098.594	n/a	RECOG_CONF	1549297	n/a	LTP122	ltpFR	4	1	n/a	WHISTLE	1606	2	n/a	n/a	n/a	n/a	n/a	n/a
3100.092	n/a	RECOG_TARGET	1550046	n/a	LTP122	ltpFR	4	1	0	PERCH	1048	5	0	n/a	n/a	n/a	n/a	n/a
3100.77	n/a	RECOG_RESP	1550385	n/a	LTP122	ltpFR	4	1	0	PERCH	1048	n/a	0	n/a	n/a	n/a	n/a	n/a
3101.748	n/a	RECOG_CONF	1550874	n/a	LTP122	ltpFR	4	1	0	PERCH	1048	5	0	n/a	n/a	n/a	n/a	n/a
3103.232	n/a	RECOG_TARGET	1551616	n/a	LTP122	ltpFR	4	1	0	SHORTCAKE	1292	5	0	n/a	n/a	n/a	n/a	n/a
3103.798	n/a	RECOG_RESP	1551899	n/a	LTP122	ltpFR	4	1	0	SHORTCAKE	1292	n/a	0	n/a	n/a	n/a	n/a	n/a
3104.812	n/a	RECOG_CONF	1552406	n/a	LTP122	ltpFR	4	1	0	SHORTCAKE	1292	5	0	n/a	n/a	n/a	n/a	n/a
3106.39	n/a	RECOG_TARGET	1553195	n/a	LTP122	ltpFR	4	1	0	PIE	1062	5	0	n/a	n/a	n/a	n/a	n/a
3107.086	n/a	RECOG_RESP	1553543	n/a	LTP122	ltpFR	4	1	0	PIE	1062	n/a	0	n/a	n/a	n/a	n/a	n/a
3108.064	n/a	RECOG_CONF	1554032	n/a	LTP122	ltpFR	4	1	0	PIE	1062	5	0	n/a	n/a	n/a	n/a	n/a
3109.58	n/a	RECOG_TARGET	1554790	n/a	LTP122	ltpFR	4	1	0	CHAMPION	279	1	1	n/a	n/a	n/a	n/a	n/a
3110.574	n/a	RECOG_RESP	1555287	n/a	LTP122	ltpFR	4	1	0	CHAMPION	279	n/a	1	n/a	n/a	n/a	n/a	n/a
3111.706	n/a	RECOG_CONF	1555853	n/a	LTP122	ltpFR	4	1	0	CHAMPION	279	1	1	n/a	n/a	n/a	n/a	n/a
3113.23	n/a	RECOG_LURE	1556615	n/a	LTP122	ltpFR	4	1	n/a	CAPTIVE	240	1	n/a	n/a	n/a	n/a	n/a	n/a
3115.062	n/a	RECOG_RESP	1557531	n/a	LTP122	ltpFR	4	1	n/a	CAPTIVE	240	n/a	n/a	n/a	n/a	n/a	n/a	n/a
3116.076	n/a	RECOG_CONF	1558038	n/a	LTP122	ltpFR	4	1	n/a	CAPTIVE	240	1	n/a	n/a	n/a	n/a	n/a	n/a
3117.436	n/a	RECOG_LURE	1558718	n/a	LTP122	ltpFR	4	1	n/a	REBEL	1172	3	n/a	n/a	n/a	n/a	n/a	n/a
3118.37	n/a	RECOG_RESP	1559185	n/a	LTP122	ltpFR	4	1	n/a	REBEL	1172	n/a	n/a	n/a	n/a	n/a	n/a	n/a
3119.528	n/a	RECOG_CONF	1559764	n/a	LTP122	ltpFR	4	1	n/a	REBEL	1172	3	n/a	n/a	n/a	n/a	n/a	n/a
3120.978	n/a	RECOG_LURE	1560489	n/a	LTP122	ltpFR	4	1	n/a	PAIL	1002	2	n/a	n/a	n/a	n/a	n/a	n/a
3121.704	n/a	RECOG_RESP	1560852	n/a	LTP122	ltpFR	4	1	n/a	PAIL	1002	n/a	n/a	n/a	n/a	n/a	n/a	n/a
3122.812	n/a	RECOG_CONF	1561406	n/a	LTP122	ltpFR	4	1	n/a	PAIL	1002	2	n/a	n/a	n/a	n/a	n/a	n/a
3124.284	n/a	RECOG_TARGET	1562142	n/a	LTP122	ltpFR	4	1	1	TRUMPET	1513	3	0	n/a	n/a	n/a	n/a	n/a
3125.27	n/a	RECOG_RESP	1562635	n/a	LTP122	ltpFR	4	1	1	TRUMPET	1513	n/a	0	n/a	n/a	n/a	n/a	n/a
3126.612	n/a	RECOG_CONF	1563306	n/a	LTP122	ltpFR	4	1	1	TRUMPET	1513	3	0	n/a	n/a	n/a	n/a	n/a
3128.058	n/a	RECOG_TARGET	1564029	n/a	LTP122	ltpFR	4	1	0	RUNNER	1218	5	1	n/a	n/a	n/a	n/a	n/a
3128.682	n/a	RECOG_RESP	1564341	n/a	LTP122	ltpFR	4	1	0	RUNNER	1218	n/a	1	n/a	n/a	n/a	n/a	n/a
3129.786	n/a	RECOG_CONF	1564893	n/a	LTP122	ltpFR	4	1	0	RUNNER	1218	5	1	n/a	n/a	n/a	n/a	n/a
3132.88	n/a	REC_START	1566440	n/a	LTP122	ltpFR	4	2	n/a	n/a	n/a	n/a	n/a	n/a	n/a	n/a	n/a	n/a
3132.924	n/a	RECOG_LURE	1566462	n/a	LTP122	ltpFR	4	2	n/a	INSTRUCTOR	741	1	n/a	n/a	n/a	n/a	n/a	n/a
3135.224	n/a	RECOG_RESP	1567612	n/a	LTP122	ltpFR	4	2	n/a	INSTRUCTOR	741	n/a	n/a	n/a	n/a	n/a	n/a	n/a
3136.208	n/a	RECOG_CONF	1568104	n/a	LTP122	ltpFR	4	2	n/a	INSTRUCTOR	741	1	n/a	n/a	n/a	n/a	n/a	n/a
3137.678	n/a	RECOG_TARGET	1568839	n/a	LTP122	ltpFR	4	2	1	MOUSE	925	1	1	n/a	n/a	n/a	n/a	n/a
3138.732	n/a	RECOG_RESP	1569366	n/a	LTP122	ltpFR	4	2	1	MOUSE	925	n/a	1	n/a	n/a	n/a	n/a	n/a
3139.76	n/a	RECOG_CONF	1569880	n/a	LTP122	ltpFR	4	2	1	MOUSE	925	1	1	n/a	n/a	n/a	n/a	n/a
3141.246	n/a	RECOG_TARGET	1570623	n/a	LTP122	ltpFR	4	2	1	RECORD	1176	2	0	n/a	n/a	n/a	n/a	n/a
3142.176	n/a	RECOG_RESP	1571088	n/a	LTP122	ltpFR	4	2	1	RECORD	1176	n/a	0	n/a	n/a	n/a	n/a	n/a
3143.592	n/a	RECOG_CONF	1571796	n/a	LTP122	ltpFR	4	2	1	RECORD	1176	2	0	n/a	n/a	n/a	n/a	n/a
3145.112	n/a	RECOG_TARGET	1572556	n/a	LTP122	ltpFR	4	2	0	APPLE	33	1	0	n/a	n/a	n/a	n/a	n/a
3146.36	n/a	RECOG_RESP	1573180	n/a	LTP122	ltpFR	4	2	0	APPLE	33	n/a	0	n/a	n/a	n/a	n/a	n/a
3147.682	n/a	RECOG_CONF	1573841	n/a	LTP122	ltpFR	4	2	0	APPLE	33	1	0	n/a	n/a	n/a	n/a	n/a
3149.136	n/a	RECOG_LURE	1574568	n/a	LTP122	ltpFR	4	2	n/a	SALIVA	1226	4	n/a	n/a	n/a	n/a	n/a	n/a
3149.812	n/a	RECOG_RESP	1574906	n/a	LTP122	ltpFR	4	2	n/a	SALIVA	1226	n/a	n/a	n/a	n/a	n/a	n/a	n/a
3151.264	n/a	RECOG_CONF	1575632	n/a	LTP122	ltpFR	4	2	n/a	SALIVA	1226	4	n/a	n/a	n/a	n/a	n/a	n/a
3152.766	n/a	RECOG_TARGET	1576383	n/a	LTP122	ltpFR	4	2	0	FREEZER	604	3	3	n/a	n/a	n/a	n/a	n/a
3153.62	n/a	RECOG_RESP	1576810	n/a	LTP122	ltpFR	4	2	0	FREEZER	604	n/a	3	n/a	n/a	n/a	n/a	n/a
3154.936	n/a	RECOG_CONF	1577468	n/a	LTP122	ltpFR	4	2	0	FREEZER	604	3	3	n/a	n/a	n/a	n/a	n/a
3156.366	n/a	RECOG_TARGET	1578183	n/a	LTP122	ltpFR	4	2	-1	SHELTER	1282	5	-1	n/a	n/a	n/a	n/a	n/a
3157.086	n/a	RECOG_RESP	1578543	n/a	LTP122	ltpFR	4	2	-1	SHELTER	1282	n/a	-1	n/a	n/a	n/a	n/a	n/a
3158.15	n/a	RECOG_CONF	1579075	n/a	LTP122	ltpFR	4	2	-1	SHELTER	1282	5	-1	n/a	n/a	n/a	n/a	n/a
3159.598	n/a	RECOG_LURE	1579799	n/a	LTP122	ltpFR	4	2	n/a	TOOL	1480	1	n/a	n/a	n/a	n/a	n/a	n/a
3160.46	n/a	RECOG_RESP	1580230	n/a	LTP122	ltpFR	4	2	n/a	TOOL	1480	n/a	n/a	n/a	n/a	n/a	n/a	n/a
3161.432	n/a	RECOG_CONF	1580716	n/a	LTP122	ltpFR	4	2	n/a	TOOL	1480	1	n/a	n/a	n/a	n/a	n/a	n/a
3162.914	n/a	RECOG_LURE	1581457	n/a	LTP122	ltpFR	4	2	n/a	STABLE	1363	2	n/a	n/a	n/a	n/a	n/a	n/a
3163.822	n/a	RECOG_RESP	1581911	n/a	LTP122	ltpFR	4	2	n/a	STABLE	1363	n/a	n/a	n/a	n/a	n/a	n/a	n/a
3165.014	n/a	RECOG_CONF	1582507	n/a	LTP122	ltpFR	4	2	n/a	STABLE	1363	2	n/a	n/a	n/a	n/a	n/a	n/a
3166.464	n/a	RECOG_TARGET	1583232	n/a	LTP122	ltpFR	4	2	-1	BEEF	113	1	-1	n/a	n/a	n/a	n/a	n/a
3167.888	n/a	RECOG_RESP	1583944	n/a	LTP122	ltpFR	4	2	-1	BEEF	113	n/a	-1	n/a	n/a	n/a	n/a	n/a
3168.896	n/a	RECOG_CONF	1584448	n/a	LTP122	ltpFR	4	2	-1	BEEF	113	1	-1	n/a	n/a	n/a	n/a	n/a
3170.428	n/a	RECOG_TARGET	1585214	n/a	LTP122	ltpFR	4	2	1	CONE	363	5	0	n/a	n/a	n/a	n/a	n/a
3171.266	n/a	RECOG_RESP	1585633	n/a	LTP122	ltpFR	4	2	1	CONE	363	n/a	0	n/a	n/a	n/a	n/a	n/a
3172.218	n/a	RECOG_CONF	1586109	n/a	LTP122	ltpFR	4	2	1	CONE	363	5	0	n/a	n/a	n/a	n/a	n/a
3173.752	n/a	RECOG_TARGET	1586876	n/a	LTP122	ltpFR	4	2	0	WARRIOR	1589	1	1	n/a	n/a	n/a	n/a	n/a
3174.892	n/a	RECOG_RESP	1587446	n/a	LTP122	ltpFR	4	2	0	WARRIOR	1589	n/a	1	n/a	n/a	n/a	n/a	n/a
3176.778	n/a	RECOG_CONF	1588389	n/a	LTP122	ltpFR	4	2	0	WARRIOR	1589	1	1	n/a	n/a	n/a	n/a	n/a
3178.26	n/a	RECOG_TARGET	1589130	n/a	LTP122	ltpFR	4	2	1	VEHICLE	1553	5	1	n/a	n/a	n/a	n/a	n/a
3179.004	n/a	RECOG_RESP	1589502	n/a	LTP122	ltpFR	4	2	1	VEHICLE	1553	n/a	1	n/a	n/a	n/a	n/a	n/a
3180.042	n/a	RECOG_CONF	1590021	n/a	LTP122	ltpFR	4	2	1	VEHICLE	1553	5	1	n/a	n/a	n/a	n/a	n/a
3181.65	n/a	RECOG_TARGET	1590825	n/a	LTP122	ltpFR	4	2	1	RAG	1160	4	0	n/a	n/a	n/a	n/a	n/a
3182.33	n/a	RECOG_RESP	1591165	n/a	LTP122	ltpFR	4	2	1	RAG	1160	n/a	0	n/a	n/a	n/a	n/a	n/a
3183.554	n/a	RECOG_CONF	1591777	n/a	LTP122	ltpFR	4	2	1	RAG	1160	4	0	n/a	n/a	n/a	n/a	n/a
3185.074	n/a	RECOG_LURE	1592537	n/a	LTP122	ltpFR	4	2	n/a	ORCHESTRA	981	1	n/a	n/a	n/a	n/a	n/a	n/a
3185.738	n/a	RECOG_RESP	1592869	n/a	LTP122	ltpFR	4	2	n/a	ORCHESTRA	981	n/a	n/a	n/a	n/a	n/a	n/a	n/a
3187.414	n/a	RECOG_CONF	1593707	n/a	LTP122	ltpFR	4	2	n/a	ORCHESTRA	981	1	n/a	n/a	n/a	n/a	n/a	n/a
3188.94	n/a	RECOG_TARGET	1594470	n/a	LTP122	ltpFR	4	2	0	PIGEON	1065	5	0	n/a	n/a	n/a	n/a	n/a
3189.73	n/a	RECOG_RESP	1594865	n/a	LTP122	ltpFR	4	2	0	PIGEON	1065	n/a	0	n/a	n/a	n/a	n/a	n/a
3190.856	n/a	RECOG_CONF	1595428	n/a	LTP122	ltpFR	4	2	0	PIGEON	1065	5	0	n/a	n/a	n/a	n/a	n/a
3192.314	n/a	RECOG_TARGET	1596157	n/a	LTP122	ltpFR	4	2	0	FLEA	577	5	0	n/a	n/a	n/a	n/a	n/a
3192.886	n/a	RECOG_RESP	1596443	n/a	LTP122	ltpFR	4	2	0	FLEA	577	n/a	0	n/a	n/a	n/a	n/a	n/a
3193.95	n/a	RECOG_CONF	1596975	n/a	LTP122	ltpFR	4	2	0	FLEA	577	5	0	n/a	n/a	n/a	n/a	n/a
3195.504	n/a	RECOG_TARGET	1597752	n/a	LTP122	ltpFR	4	2	0	YOKE	1632	5	0	n/a	n/a	n/a	n/a	n/a
3196.064	n/a	RECOG_RESP	1598032	n/a	LTP122	ltpFR	4	2	0	YOKE	1632	n/a	0	n/a	n/a	n/a	n/a	n/a
3197.094	n/a	RECOG_CONF	1598547	n/a	LTP122	ltpFR	4	2	0	YOKE	1632	5	0	n/a	n/a	n/a	n/a	n/a
3198.512	n/a	RECOG_LURE	1599256	n/a	LTP122	ltpFR	4	2	n/a	CHEERLEADER	288	5	n/a	n/a	n/a	n/a	n/a	n/a
3199.148	n/a	RECOG_RESP	1599574	n/a	LTP122	ltpFR	4	2	n/a	CHEERLEADER	288	n/a	n/a	n/a	n/a	n/a	n/a	n/a
3200.166	n/a	RECOG_CONF	1600083	n/a	LTP122	ltpFR	4	2	n/a	CHEERLEADER	288	5	n/a	n/a	n/a	n/a	n/a	n/a
3201.736	n/a	RECOG_TARGET	1600868	n/a	LTP122	ltpFR	4	2	-1	WRENCH	1625	5	-1	n/a	n/a	n/a	n/a	n/a
3202.332	n/a	RECOG_RESP	1601166	n/a	LTP122	ltpFR	4	2	-1	WRENCH	1625	n/a	-1	n/a	n/a	n/a	n/a	n/a
3203.37	n/a	RECOG_CONF	1601685	n/a	LTP122	ltpFR	4	2	-1	WRENCH	1625	5	-1	n/a	n/a	n/a	n/a	n/a
3206.568	n/a	REC_START	1603284	n/a	LTP122	ltpFR	4	3	n/a	n/a	n/a	n/a	n/a	n/a	n/a	n/a	n/a	n/a
3206.6	n/a	RECOG_TARGET	1603300	n/a	LTP122	ltpFR	4	3	0	CHAIN	273	5	0	n/a	n/a	n/a	n/a	n/a
3207.206	n/a	RECOG_RESP	1603603	n/a	LTP122	ltpFR	4	3	0	CHAIN	273	n/a	0	n/a	n/a	n/a	n/a	n/a
3208.148	n/a	RECOG_CONF	1604074	n/a	LTP122	ltpFR	4	3	0	CHAIN	273	5	0	n/a	n/a	n/a	n/a	n/a
3209.558	n/a	RECOG_LURE	1604779	n/a	LTP122	ltpFR	4	3	n/a	CAMERA	224	2	n/a	n/a	n/a	n/a	n/a	n/a
3210.264	n/a	RECOG_RESP	1605132	n/a	LTP122	ltpFR	4	3	n/a	CAMERA	224	n/a	n/a	n/a	n/a	n/a	n/a	n/a
3211.242	n/a	RECOG_CONF	1605621	n/a	LTP122	ltpFR	4	3	n/a	CAMERA	224	2	n/a	n/a	n/a	n/a	n/a	n/a
3212.614	n/a	RECOG_TARGET	1606307	n/a	LTP122	ltpFR	4	3	1	CABIN	211	5	0	n/a	n/a	n/a	n/a	n/a
3213.102	n/a	RECOG_RESP	1606551	n/a	LTP122	ltpFR	4	3	1	CABIN	211	n/a	0	n/a	n/a	n/a	n/a	n/a
3214.006	n/a	RECOG_CONF	1607003	n/a	LTP122	ltpFR	4	3	1	CABIN	211	5	0	n/a	n/a	n/a	n/a	n/a
3215.406	n/a	RECOG_LURE	1607703	n/a	LTP122	ltpFR	4	3	n/a	FUNGUS	614	4	n/a	n/a	n/a	n/a	n/a	n/a
3216.03	n/a	RECOG_RESP	1608015	n/a	LTP122	ltpFR	4	3	n/a	FUNGUS	614	n/a	n/a	n/a	n/a	n/a	n/a	n/a
3217.09	n/a	RECOG_CONF	1608545	n/a	LTP122	ltpFR	4	3	n/a	FUNGUS	614	4	n/a	n/a	n/a	n/a	n/a	n/a
3218.464	n/a	RECOG_TARGET	1609232	n/a	LTP122	ltpFR	4	3	-1	BODY	145	1	-1	n/a	n/a	n/a	n/a	n/a
3219.32	n/a	RECOG_RESP	1609660	n/a	LTP122	ltpFR	4	3	-1	BODY	145	n/a	-1	n/a	n/a	n/a	n/a	n/a
3220.442	n/a	RECOG_CONF	1610221	n/a	LTP122	ltpFR	4	3	-1	BODY	145	1	-1	n/a	n/a	n/a	n/a	n/a
3221.878	n/a	RECOG_TARGET	1610939	n/a	LTP122	ltpFR	4	3	-1	BANJO	82	5	-1	n/a	n/a	n/a	n/a	n/a
3222.486	n/a	RECOG_RESP	1611243	n/a	LTP122	ltpFR	4	3	-1	BANJO	82	n/a	-1	n/a	n/a	n/a	n/a	n/a
3223.494	n/a	RECOG_CONF	1611747	n/a	LTP122	ltpFR	4	3	-1	BANJO	82	5	-1	n/a	n/a	n/a	n/a	n/a
3224.904	n/a	RECOG_TARGET	1612452	n/a	LTP122	ltpFR	4	3	1	SAP	1233	5	0	n/a	n/a	n/a	n/a	n/a
3225.47	n/a	RECOG_RESP	1612735	n/a	LTP122	ltpFR	4	3	1	SAP	1233	n/a	0	n/a	n/a	n/a	n/a	n/a
3226.498	n/a	RECOG_CONF	1613249	n/a	LTP122	ltpFR	4	3	1	SAP	1233	5	0	n/a	n/a	n/a	n/a	n/a
3228.094	n/a	RECOG_TARGET	1614047	n/a	LTP122	ltpFR	4	3	-1	REPTILE	1185	5	-1	n/a	n/a	n/a	n/a	n/a
3228.614	n/a	RECOG_RESP	1614307	n/a	LTP122	ltpFR	4	3	-1	REPTILE	1185	n/a	-1	n/a	n/a	n/a	n/a	n/a
3229.562	n/a	RECOG_CONF	1614781	n/a	LTP122	ltpFR	4	3	-1	REPTILE	1185	5	-1	n/a	n/a	n/a	n/a	n/a
3231.118	n/a	RECOG_TARGET	1615559	n/a	LTP122	ltpFR	4	3	0	DICTATOR	462	5	1	n/a	n/a	n/a	n/a	n/a
3231.642	n/a	RECOG_RESP	1615821	n/a	LTP122	ltpFR	4	3	0	DICTATOR	462	n/a	1	n/a	n/a	n/a	n/a	n/a
3232.584	n/a	RECOG_CONF	1616292	n/a	LTP122	ltpFR	4	3	0	DICTATOR	462	5	1	n/a	n/a	n/a	n/a	n/a
3234.068	n/a	RECOG_TARGET	1617034	n/a	LTP122	ltpFR	4	3	1	POET	1095	5	1	n/a	n/a	n/a	n/a	n/a
3234.812	n/a	RECOG_RESP	1617406	n/a	LTP122	ltpFR	4	3	1	POET	1095	n/a	1	n/a	n/a	n/a	n/a	n/a
3235.828	n/a	RECOG_CONF	1617914	n/a	LTP122	ltpFR	4	3	1	POET	1095	5	1	n/a	n/a	n/a	n/a	n/a
3237.218	n/a	RECOG_LURE	1618609	n/a	LTP122	ltpFR	4	3	n/a	BLADE	134	1	n/a	n/a	n/a	n/a	n/a	n/a
3238.362	n/a	RECOG_RESP	1619181	n/a	LTP122	ltpFR	4	3	n/a	BLADE	134	n/a	n/a	n/a	n/a	n/a	n/a	n/a
3239.32	n/a	RECOG_CONF	1619660	n/a	LTP122	ltpFR	4	3	n/a	BLADE	134	1	n/a	n/a	n/a	n/a	n/a	n/a
3240.814	n/a	RECOG_TARGET	1620407	n/a	LTP122	ltpFR	4	3	-1	WATERFALL	1595	5	-1	n/a	n/a	n/a	n/a	n/a
3241.464	n/a	RECOG_RESP	1620732	n/a	LTP122	ltpFR	4	3	-1	WATERFALL	1595	n/a	-1	n/a	n/a	n/a	n/a	n/a
3242.572	n/a	RECOG_CONF	1621286	n/a	LTP122	ltpFR	4	3	-1	WATERFALL	1595	5	-1	n/a	n/a	n/a	n/a	n/a
3244.19	n/a	RECOG_LURE	1622095	n/a	LTP122	ltpFR	4	3	n/a	VILLAIN	1567	4	n/a	n/a	n/a	n/a	n/a	n/a
3244.898	n/a	RECOG_RESP	1622449	n/a	LTP122	ltpFR	4	3	n/a	VILLAIN	1567	n/a	n/a	n/a	n/a	n/a	n/a	n/a
3246.224	n/a	RECOG_CONF	1623112	n/a	LTP122	ltpFR	4	3	n/a	VILLAIN	1567	4	n/a	n/a	n/a	n/a	n/a	n/a
3247.696	n/a	RECOG_LURE	1623848	n/a	LTP122	ltpFR	4	3	n/a	POLYESTER	1100	5	n/a	n/a	n/a	n/a	n/a	n/a
3248.36	n/a	RECOG_RESP	1624180	n/a	LTP122	ltpFR	4	3	n/a	POLYESTER	1100	n/a	n/a	n/a	n/a	n/a	n/a	n/a
3249.396	n/a	RECOG_CONF	1624698	n/a	LTP122	ltpFR	4	3	n/a	POLYESTER	1100	5	n/a	n/a	n/a	n/a	n/a	n/a
3250.878	n/a	RECOG_TARGET	1625439	n/a	LTP122	ltpFR	4	3	1	TAPIOCA	1434	5	0	n/a	n/a	n/a	n/a	n/a
3251.478	n/a	RECOG_RESP	1625739	n/a	LTP122	ltpFR	4	3	1	TAPIOCA	1434	n/a	0	n/a	n/a	n/a	n/a	n/a
3252.52	n/a	RECOG_CONF	1626260	n/a	LTP122	ltpFR	4	3	1	TAPIOCA	1434	5	0	n/a	n/a	n/a	n/a	n/a
3254.12	n/a	RECOG_LURE	1627060	n/a	LTP122	ltpFR	4	3	n/a	EDITORIAL	517	2	n/a	n/a	n/a	n/a	n/a	n/a
3255.01	n/a	RECOG_RESP	1627505	n/a	LTP122	ltpFR	4	3	n/a	EDITORIAL	517	n/a	n/a	n/a	n/a	n/a	n/a	n/a
3255.954	n/a	RECOG_CONF	1627977	n/a	LTP122	ltpFR	4	3	n/a	EDITORIAL	517	2	n/a	n/a	n/a	n/a	n/a	n/a
3257.394	n/a	RECOG_TARGET	1628697	n/a	LTP122	ltpFR	4	3	-1	EARTH	515	5	-1	n/a	n/a	n/a	n/a	n/a
3257.998	n/a	RECOG_RESP	1628999	n/a	LTP122	ltpFR	4	3	-1	EARTH	515	n/a	-1	n/a	n/a	n/a	n/a	n/a
3259.086	n/a	RECOG_CONF	1629543	n/a	LTP122	ltpFR	4	3	-1	EARTH	515	5	-1	n/a	n/a	n/a	n/a	n/a
3260.658	n/a	RECOG_TARGET	1630329	n/a	LTP122	ltpFR	4	3	0	ATTORNEY	58	5	1	n/a	n/a	n/a	n/a	n/a
3261.276	n/a	RECOG_RESP	1630638	n/a	LTP122	ltpFR	4	3	0	ATTORNEY	58	n/a	1	n/a	n/a	n/a	n/a	n/a
3262.288	n/a	RECOG_CONF	1631144	n/a	LTP122	ltpFR	4	3	0	ATTORNEY	58	5	1	n/a	n/a	n/a	n/a	n/a
3263.7	n/a	RECOG_TARGET	1631850	n/a	LTP122	ltpFR	4	3	1	DELINQUENT	445	5	1	n/a	n/a	n/a	n/a	n/a
3264.398	n/a	RECOG_RESP	1632199	n/a	LTP122	ltpFR	4	3	1	DELINQUENT	445	n/a	1	n/a	n/a	n/a	n/a	n/a
3265.432	n/a	RECOG_CONF	1632716	n/a	LTP122	ltpFR	4	3	1	DELINQUENT	445	5	1	n/a	n/a	n/a	n/a	n/a
3266.95	n/a	RECOG_LURE	1633475	n/a	LTP122	ltpFR	4	3	n/a	FLOOR	581	1	n/a	n/a	n/a	n/a	n/a	n/a
3267.762	n/a	RECOG_RESP	1633881	n/a	LTP122	ltpFR	4	3	n/a	FLOOR	581	n/a	n/a	n/a	n/a	n/a	n/a	n/a
3268.754	n/a	RECOG_CONF	1634377	n/a	LTP122	ltpFR	4	3	n/a	FLOOR	581	1	n/a	n/a	n/a	n/a	n/a	n/a
3272.016	n/a	REC_START	1636008	n/a	LTP122	ltpFR	4	4	n/a	n/a	n/a	n/a	n/a	n/a	n/a	n/a	n/a	n/a
3272.048	n/a	RECOG_TARGET	1636024	n/a	LTP122	ltpFR	4	4	1	PARENT	1013	5	1	n/a	n/a	n/a	n/a	n/a
3272.654	n/a	RECOG_RESP	1636327	n/a	LTP122	ltpFR	4	4	1	PARENT	1013	n/a	1	n/a	n/a	n/a	n/a	n/a
3273.686	n/a	RECOG_CONF	1636843	n/a	LTP122	ltpFR	4	4	1	PARENT	1013	5	1	n/a	n/a	n/a	n/a	n/a
3275.238	n/a	RECOG_LURE	1637619	n/a	LTP122	ltpFR	4	4	n/a	STAIRS	1367	1	n/a	n/a	n/a	n/a	n/a	n/a
3276.57	n/a	RECOG_RESP	1638285	n/a	LTP122	ltpFR	4	4	n/a	STAIRS	1367	n/a	n/a	n/a	n/a	n/a	n/a	n/a
3277.808	n/a	RECOG_CONF	1638904	n/a	LTP122	ltpFR	4	4	n/a	STAIRS	1367	1	n/a	n/a	n/a	n/a	n/a	n/a
3279.262	n/a	RECOG_LURE	1639631	n/a	LTP122	ltpFR	4	4	n/a	BELL	118	1	n/a	n/a	n/a	n/a	n/a	n/a
3280.412	n/a	RECOG_RESP	1640206	n/a	LTP122	ltpFR	4	4	n/a	BELL	118	n/a	n/a	n/a	n/a	n/a	n/a	n/a
3281.39	n/a	RECOG_CONF	1640695	n/a	LTP122	ltpFR	4	4	n/a	BELL	118	1	n/a	n/a	n/a	n/a	n/a	n/a
3282.776	n/a	RECOG_TARGET	1641388	n/a	LTP122	ltpFR	4	4	0	PATIENT	1024	5	1	n/a	n/a	n/a	n/a	n/a
3283.45	n/a	RECOG_RESP	1641725	n/a	LTP122	ltpFR	4	4	0	PATIENT	1024	n/a	1	n/a	n/a	n/a	n/a	n/a
3284.424	n/a	RECOG_CONF	1642212	n/a	LTP122	ltpFR	4	4	0	PATIENT	1024	5	1	n/a	n/a	n/a	n/a	n/a
3285.884	n/a	RECOG_TARGET	1642942	n/a	LTP122	ltpFR	4	4	0	MONSTER	912	5	1	n/a	n/a	n/a	n/a	n/a
3286.594	n/a	RECOG_RESP	1643297	n/a	LTP122	ltpFR	4	4	0	MONSTER	912	n/a	1	n/a	n/a	n/a	n/a	n/a
3287.566	n/a	RECOG_CONF	1643783	n/a	LTP122	ltpFR	4	4	0	MONSTER	912	5	1	n/a	n/a	n/a	n/a	n/a
3289.068	n/a	RECOG_TARGET	1644534	n/a	LTP122	ltpFR	4	4	1	INMATE	738	4	1	n/a	n/a	n/a	n/a	n/a
3289.78	n/a	RECOG_RESP	1644890	n/a	LTP122	ltpFR	4	4	1	INMATE	738	n/a	1	n/a	n/a	n/a	n/a	n/a
3290.808	n/a	RECOG_CONF	1645404	n/a	LTP122	ltpFR	4	4	1	INMATE	738	4	1	n/a	n/a	n/a	n/a	n/a
3292.192	n/a	RECOG_LURE	1646096	n/a	LTP122	ltpFR	4	4	n/a	BENCH	121	2	n/a	n/a	n/a	n/a	n/a	n/a
3292.898	n/a	RECOG_RESP	1646449	n/a	LTP122	ltpFR	4	4	n/a	BENCH	121	n/a	n/a	n/a	n/a	n/a	n/a	n/a
3293.872	n/a	RECOG_CONF	1646936	n/a	LTP122	ltpFR	4	4	n/a	BENCH	121	2	n/a	n/a	n/a	n/a	n/a	n/a
3295.292	n/a	RECOG_LURE	1647646	n/a	LTP122	ltpFR	4	4	n/a	LOVER	846	5	n/a	n/a	n/a	n/a	n/a	n/a
3295.948	n/a	RECOG_RESP	1647974	n/a	LTP122	ltpFR	4	4	n/a	LOVER	846	n/a	n/a	n/a	n/a	n/a	n/a	n/a
3296.916	n/a	RECOG_CONF	1648458	n/a	LTP122	ltpFR	4	4	n/a	LOVER	846	5	n/a	n/a	n/a	n/a	n/a	n/a
3298.39	n/a	RECOG_TARGET	1649195	n/a	LTP122	ltpFR	4	4	-1	PORCH	1106	5	-1	n/a	n/a	n/a	n/a	n/a
3298.98	n/a	RECOG_RESP	1649490	n/a	LTP122	ltpFR	4	4	-1	PORCH	1106	n/a	-1	n/a	n/a	n/a	n/a	n/a
3300.028	n/a	RECOG_CONF	1650014	n/a	LTP122	ltpFR	4	4	-1	PORCH	1106	5	-1	n/a	n/a	n/a	n/a	n/a
3301.496	n/a	RECOG_TARGET	1650748	n/a	LTP122	ltpFR	4	4	0	FARMER	553	5	1	n/a	n/a	n/a	n/a	n/a
3302.04	n/a	RECOG_RESP	1651020	n/a	LTP122	ltpFR	4	4	0	FARMER	553	n/a	1	n/a	n/a	n/a	n/a	n/a
3303.042	n/a	RECOG_CONF	1651521	n/a	LTP122	ltpFR	4	4	0	FARMER	553	5	1	n/a	n/a	n/a	n/a	n/a
3304.628	n/a	RECOG_TARGET	1652314	n/a	LTP122	ltpFR	4	4	-1	DISC	473	5	-1	n/a	n/a	n/a	n/a	n/a
3305.108	n/a	RECOG_RESP	1652554	n/a	LTP122	ltpFR	4	4	-1	DISC	473	n/a	-1	n/a	n/a	n/a	n/a	n/a
3306.064	n/a	RECOG_CONF	1653032	n/a	LTP122	ltpFR	4	4	-1	DISC	473	5	-1	n/a	n/a	n/a	n/a	n/a
3307.51	n/a	RECOG_LURE	1653755	n/a	LTP122	ltpFR	4	4	n/a	SWEATER	1419	2	n/a	n/a	n/a	n/a	n/a	n/a
3308.314	n/a	RECOG_RESP	1654157	n/a	LTP122	ltpFR	4	4	n/a	SWEATER	1419	n/a	n/a	n/a	n/a	n/a	n/a	n/a
3309.488	n/a	RECOG_CONF	1654744	n/a	LTP122	ltpFR	4	4	n/a	SWEATER	1419	2	n/a	n/a	n/a	n/a	n/a	n/a
3310.994	n/a	RECOG_LURE	1655497	n/a	LTP122	ltpFR	4	4	n/a	BLACKBERRY	132	3	n/a	n/a	n/a	n/a	n/a	n/a
3311.992	n/a	RECOG_RESP	1655996	n/a	LTP122	ltpFR	4	4	n/a	BLACKBERRY	132	n/a	n/a	n/a	n/a	n/a	n/a	n/a
3313.22	n/a	RECOG_CONF	1656610	n/a	LTP122	ltpFR	4	4	n/a	BLACKBERRY	132	3	n/a	n/a	n/a	n/a	n/a	n/a
3314.734	n/a	RECOG_TARGET	1657367	n/a	LTP122	ltpFR	4	4	0	CRUMB	416	5	0	n/a	n/a	n/a	n/a	n/a
3315.3	n/a	RECOG_RESP	1657650	n/a	LTP122	ltpFR	4	4	0	CRUMB	416	n/a	0	n/a	n/a	n/a	n/a	n/a
3316.312	n/a	RECOG_CONF	1658156	n/a	LTP122	ltpFR	4	4	0	CRUMB	416	5	0	n/a	n/a	n/a	n/a	n/a
3317.784	n/a	RECOG_LURE	1658892	n/a	LTP122	ltpFR	4	4	n/a	SERVANT	1271	1	n/a	n/a	n/a	n/a	n/a	n/a
3318.882	n/a	RECOG_RESP	1659441	n/a	LTP122	ltpFR	4	4	n/a	SERVANT	1271	n/a	n/a	n/a	n/a	n/a	n/a	n/a
3319.844	n/a	RECOG_CONF	1659922	n/a	LTP122	ltpFR	4	4	n/a	SERVANT	1271	1	n/a	n/a	n/a	n/a	n/a	n/a
3321.358	n/a	RECOG_LURE	1660679	n/a	LTP122	ltpFR	4	4	n/a	HORIZON	717	4	n/a	n/a	n/a	n/a	n/a	n/a
3322.164	n/a	RECOG_RESP	1661082	n/a	LTP122	ltpFR	4	4	n/a	HORIZON	717	n/a	n/a	n/a	n/a	n/a	n/a	n/a
3323.188	n/a	RECOG_CONF	1661594	n/a	LTP122	ltpFR	4	4	n/a	HORIZON	717	4	n/a	n/a	n/a	n/a	n/a	n/a
3324.63	n/a	RECOG_LURE	1662315	n/a	LTP122	ltpFR	4	4	n/a	LOUNGE	845	1	n/a	n/a	n/a	n/a	n/a	n/a
3325.796	n/a	RECOG_RESP	1662898	n/a	LTP122	ltpFR	4	4	n/a	LOUNGE	845	n/a	n/a	n/a	n/a	n/a	n/a	n/a
3326.774	n/a	RECOG_CONF	1663387	n/a	LTP122	ltpFR	4	4	n/a	LOUNGE	845	1	n/a	n/a	n/a	n/a	n/a	n/a
3328.206	n/a	RECOG_TARGET	1664103	n/a	LTP122	ltpFR	4	4	1	CASH	252	5	0	n/a	n/a	n/a	n/a	n/a
3329.014	n/a	RECOG_RESP	1664507	n/a	LTP122	ltpFR	4	4	1	CASH	252	n/a	0	n/a	n/a	n/a	n/a	n/a
3330.012	n/a	RECOG_CONF	1665006	n/a	LTP122	ltpFR	4	4	1	CASH	252	5	0	n/a	n/a	n/a	n/a	n/a
3331.562	n/a	RECOG_LURE	1665781	n/a	LTP122	ltpFR	4	4	n/a	SPATULA	1348	1	n/a	n/a	n/a	n/a	n/a	n/a
3332.456	n/a	RECOG_RESP	1666228	n/a	LTP122	ltpFR	4	4	n/a	SPATULA	1348	n/a	n/a	n/a	n/a	n/a	n/a	n/a
3333.644	n/a	RECOG_CONF	1666822	n/a	LTP122	ltpFR	4	4	n/a	SPATULA	1348	1	n/a	n/a	n/a	n/a	n/a	n/a
3335.112	n/a	RECOG_TARGET	1667556	n/a	LTP122	ltpFR	4	4	0	KEG	770	5	1	n/a	n/a	n/a	n/a	n/a
3335.694	n/a	RECOG_RESP	1667847	n/a	LTP122	ltpFR	4	4	0	KEG	770	n/a	1	n/a	n/a	n/a	n/a	n/a
3336.718	n/a	RECOG_CONF	1668359	n/a	LTP122	ltpFR	4	4	0	KEG	770	5	1	n/a	n/a	n/a	n/a	n/a
3339.93	n/a	REC_START	1669965	n/a	LTP122	ltpFR	4	5	n/a	n/a	n/a	n/a	n/a	n/a	n/a	n/a	n/a	n/a
3339.968	n/a	RECOG_TARGET	1669984	n/a	LTP122	ltpFR	4	5	-1	PRIMATE	1123	5	-1	n/a	n/a	n/a	n/a	n/a
3340.698	n/a	RECOG_RESP	1670349	n/a	LTP122	ltpFR	4	5	-1	PRIMATE	1123	n/a	-1	n/a	n/a	n/a	n/a	n/a
3341.802	n/a	RECOG_CONF	1670901	n/a	LTP122	ltpFR	4	5	-1	PRIMATE	1123	5	-1	n/a	n/a	n/a	n/a	n/a
3343.352	n/a	RECOG_TARGET	1671676	n/a	LTP122	ltpFR	4	5	1	COMMITTEE	355	5	1	n/a	n/a	n/a	n/a	n/a
3344.146	n/a	RECOG_RESP	1672073	n/a	LTP122	ltpFR	4	5	1	COMMITTEE	355	n/a	1	n/a	n/a	n/a	n/a	n/a
3345.144	n/a	RECOG_CONF	1672572	n/a	LTP122	ltpFR	4	5	1	COMMITTEE	355	5	1	n/a	n/a	n/a	n/a	n/a
3346.882	n/a	RECOG_TARGET	1673441	n/a	LTP122	ltpFR	4	5	1	FIDDLE	561	5	0	n/a	n/a	n/a	n/a	n/a
3347.468	n/a	RECOG_RESP	1673734	n/a	LTP122	ltpFR	4	5	1	FIDDLE	561	n/a	0	n/a	n/a	n/a	n/a	n/a
3348.536	n/a	RECOG_CONF	1674268	n/a	LTP122	ltpFR	4	5	1	FIDDLE	561	5	0	n/a	n/a	n/a	n/a	n/a
3350.04	n/a	RECOG_LURE	1675020	n/a	LTP122	ltpFR	4	5	n/a	BLACKBOARD	133	3	n/a	n/a	n/a	n/a	n/a	n/a
3350.86	n/a	RECOG_RESP	1675430	n/a	LTP122	ltpFR	4	5	n/a	BLACKBOARD	133	n/a	n/a	n/a	n/a	n/a	n/a	n/a
3351.95	n/a	RECOG_CONF	1675975	n/a	LTP122	ltpFR	4	5	n/a	BLACKBOARD	133	3	n/a	n/a	n/a	n/a	n/a	n/a
3353.306	n/a	RECOG_TARGET	1676653	n/a	LTP122	ltpFR	4	5	1	PEACH	1031	5	0	n/a	n/a	n/a	n/a	n/a
3353.894	n/a	RECOG_RESP	1676947	n/a	LTP122	ltpFR	4	5	1	PEACH	1031	n/a	0	n/a	n/a	n/a	n/a	n/a
3354.982	n/a	RECOG_CONF	1677491	n/a	LTP122	ltpFR	4	5	1	PEACH	1031	5	0	n/a	n/a	n/a	n/a	n/a
3356.638	n/a	RECOG_TARGET	1678319	n/a	LTP122	ltpFR	4	5	0	CABINET	212	5	1	n/a	n/a	n/a	n/a	n/a
3357.098	n/a	RECOG_RESP	1678549	n/a	LTP122	ltpFR	4	5	0	CABINET	212	n/a	1	n/a	n/a	n/a	n/a	n/a
3358.134	n/a	RECOG_CONF	1679067	n/a	LTP122	ltpFR	4	5	0	CABINET	212	5	1	n/a	n/a	n/a	n/a	n/a
3359.604	n/a	RECOG_TARGET	1679802	n/a	LTP122	ltpFR	4	5	1	PUBLISHER	1137	5	1	n/a	n/a	n/a	n/a	n/a
3360.264	n/a	RECOG_RESP	1680132	n/a	LTP122	ltpFR	4	5	1	PUBLISHER	1137	n/a	1	n/a	n/a	n/a	n/a	n/a
3361.268	n/a	RECOG_CONF	1680634	n/a	LTP122	ltpFR	4	5	1	PUBLISHER	1137	5	1	n/a	n/a	n/a	n/a	n/a
3362.82	n/a	RECOG_LURE	1681410	n/a	LTP122	ltpFR	4	5	n/a	BANDIT	81	2	n/a	n/a	n/a	n/a	n/a	n/a
3363.688	n/a	RECOG_RESP	1681844	n/a	LTP122	ltpFR	4	5	n/a	BANDIT	81	n/a	n/a	n/a	n/a	n/a	n/a	n/a
3364.79	n/a	RECOG_CONF	1682395	n/a	LTP122	ltpFR	4	5	n/a	BANDIT	81	2	n/a	n/a	n/a	n/a	n/a	n/a
3366.244	n/a	RECOG_LURE	1683122	n/a	LTP122	ltpFR	4	5	n/a	BASKET	95	2	n/a	n/a	n/a	n/a	n/a	n/a
3366.984	n/a	RECOG_RESP	1683492	n/a	LTP122	ltpFR	4	5	n/a	BASKET	95	n/a	n/a	n/a	n/a	n/a	n/a	n/a
3368.062	n/a	RECOG_CONF	1684031	n/a	LTP122	ltpFR	4	5	n/a	BASKET	95	2	n/a	n/a	n/a	n/a	n/a	n/a
3369.526	n/a	RECOG_LURE	1684763	n/a	LTP122	ltpFR	4	5	n/a	DAM	436	3	n/a	n/a	n/a	n/a	n/a	n/a
3370.368	n/a	RECOG_RESP	1685184	n/a	LTP122	ltpFR	4	5	n/a	DAM	436	n/a	n/a	n/a	n/a	n/a	n/a	n/a
3371.666	n/a	RECOG_CONF	1685833	n/a	LTP122	ltpFR	4	5	n/a	DAM	436	3	n/a	n/a	n/a	n/a	n/a	n/a
3373.134	n/a	RECOG_LURE	1686567	n/a	LTP122	ltpFR	4	5	n/a	TICK	1463	1	n/a	n/a	n/a	n/a	n/a	n/a
3374.01	n/a	RECOG_RESP	1687005	n/a	LTP122	ltpFR	4	5	n/a	TICK	1463	n/a	n/a	n/a	n/a	n/a	n/a	n/a
3375.526	n/a	RECOG_CONF	1687763	n/a	LTP122	ltpFR	4	5	n/a	TICK	1463	1	n/a	n/a	n/a	n/a	n/a	n/a
3377.058	n/a	RECOG_LURE	1688529	n/a	LTP122	ltpFR	4	5	n/a	OFFICE	972	1	n/a	n/a	n/a	n/a	n/a	n/a
3378.106	n/a	RECOG_RESP	1689053	n/a	LTP122	ltpFR	4	5	n/a	OFFICE	972	n/a	n/a	n/a	n/a	n/a	n/a	n/a
3379.448	n/a	RECOG_CONF	1689724	n/a	LTP122	ltpFR	4	5	n/a	OFFICE	972	1	n/a	n/a	n/a	n/a	n/a	n/a
3380.806	n/a	RECOG_LURE	1690403	n/a	LTP122	ltpFR	4	5	n/a	BRUISE	180	5	n/a	n/a	n/a	n/a	n/a	n/a
3381.758	n/a	RECOG_RESP	1690879	n/a	LTP122	ltpFR	4	5	n/a	BRUISE	180	n/a	n/a	n/a	n/a	n/a	n/a	n/a
3383.518	n/a	RECOG_CONF	1691759	n/a	LTP122	ltpFR	4	5	n/a	BRUISE	180	5	n/a	n/a	n/a	n/a	n/a	n/a
3385.13	n/a	RECOG_TARGET	1692565	n/a	LTP122	ltpFR	4	5	-1	CERAMICS	271	5	-1	n/a	n/a	n/a	n/a	n/a
3385.848	n/a	RECOG_RESP	1692924	n/a	LTP122	ltpFR	4	5	-1	CERAMICS	271	n/a	-1	n/a	n/a	n/a	n/a	n/a
3386.91	n/a	RECOG_CONF	1693455	n/a	LTP122	ltpFR	4	5	-1	CERAMICS	271	5	-1	n/a	n/a	n/a	n/a	n/a
3388.57	n/a	RECOG_TARGET	1694285	n/a	LTP122	ltpFR	4	5	-1	TELEVISION	1447	5	-1	n/a	n/a	n/a	n/a	n/a
3389.24	n/a	RECOG_RESP	1694620	n/a	LTP122	ltpFR	4	5	-1	TELEVISION	1447	n/a	-1	n/a	n/a	n/a	n/a	n/a
3390.282	n/a	RECOG_CONF	1695141	n/a	LTP122	ltpFR	4	5	-1	TELEVISION	1447	5	-1	n/a	n/a	n/a	n/a	n/a
3391.986	n/a	RECOG_TARGET	1695993	n/a	LTP122	ltpFR	4	5	0	MESSAGE	888	5	0	n/a	n/a	n/a	n/a	n/a
3392.714	n/a	RECOG_RESP	1696357	n/a	LTP122	ltpFR	4	5	0	MESSAGE	888	n/a	0	n/a	n/a	n/a	n/a	n/a
3393.936	n/a	RECOG_CONF	1696968	n/a	LTP122	ltpFR	4	5	0	MESSAGE	888	5	0	n/a	n/a	n/a	n/a	n/a
3395.684	n/a	RECOG_LURE	1697842	n/a	LTP122	ltpFR	4	5	n/a	PARCEL	1012	3	n/a	n/a	n/a	n/a	n/a	n/a
3396.46	n/a	RECOG_RESP	1698230	n/a	LTP122	ltpFR	4	5	n/a	PARCEL	1012	n/a	n/a	n/a	n/a	n/a	n/a	n/a
3397.628	n/a	RECOG_CONF	1698814	n/a	LTP122	ltpFR	4	5	n/a	PARCEL	1012	3	n/a	n/a	n/a	n/a	n/a	n/a
3399.31	n/a	RECOG_TARGET	1699655	n/a	LTP122	ltpFR	4	5	0	OFFICER	973	5	1	n/a	n/a	n/a	n/a	n/a
3399.966	n/a	RECOG_RESP	1699983	n/a	LTP122	ltpFR	4	5	0	OFFICER	973	n/a	1	n/a	n/a	n/a	n/a	n/a
3401.268	n/a	RECOG_CONF	1700634	n/a	LTP122	ltpFR	4	5	0	OFFICER	973	5	1	n/a	n/a	n/a	n/a	n/a
3403.008	n/a	RECOG_TARGET	1701504	n/a	LTP122	ltpFR	4	5	1	GOAT	644	5	1	n/a	n/a	n/a	n/a	n/a
3403.604	n/a	RECOG_RESP	1701802	n/a	LTP122	ltpFR	4	5	1	GOAT	644	n/a	1	n/a	n/a	n/a	n/a	n/a
3404.91	n/a	RECOG_CONF	1702455	n/a	LTP122	ltpFR	4	5	1	GOAT	644	5	1	n/a	n/a	n/a	n/a	n/a
3406.564	n/a	RECOG_LURE	1703282	n/a	LTP122	ltpFR	4	5	n/a	EDITOR	516	1	n/a	n/a	n/a	n/a	n/a	n/a
3407.096	n/a	RECOG_RESP	1703548	n/a	LTP122	ltpFR	4	5	n/a	EDITOR	516	n/a	n/a	n/a	n/a	n/a	n/a	n/a
3408.244	n/a	RECOG_CONF	1704122	n/a	LTP122	ltpFR	4	5	n/a	EDITOR	516	1	n/a	n/a	n/a	n/a	n/a	n/a
3412.03	n/a	REC_START	1706015	n/a	LTP122	ltpFR	4	6	n/a	n/a	n/a	n/a	n/a	n/a	n/a	n/a	n/a	n/a
3412.064	n/a	RECOG_TARGET	1706032	n/a	LTP122	ltpFR	4	6	0	DUCK	504	5	1	n/a	n/a	n/a	n/a	n/a
3412.652	n/a	RECOG_RESP	1706326	n/a	LTP122	ltpFR	4	6	0	DUCK	504	n/a	1	n/a	n/a	n/a	n/a	n/a
3413.77	n/a	RECOG_CONF	1706885	n/a	LTP122	ltpFR	4	6	0	DUCK	504	5	1	n/a	n/a	n/a	n/a	n/a
3415.304	n/a	RECOG_TARGET	1707652	n/a	LTP122	ltpFR	4	6	0	HAMMOCK	681	5	1	n/a	n/a	n/a	n/a	n/a
3415.91	n/a	RECOG_RESP	1707955	n/a	LTP122	ltpFR	4	6	0	HAMMOCK	681	n/a	1	n/a	n/a	n/a	n/a	n/a
3416.934	n/a	RECOG_CONF	1708467	n/a	LTP122	ltpFR	4	6	0	HAMMOCK	681	5	1	n/a	n/a	n/a	n/a	n/a
3418.71	n/a	RECOG_TARGET	1709355	n/a	LTP122	ltpFR	4	6	0	ISLAND	745	5	1	n/a	n/a	n/a	n/a	n/a
3419.438	n/a	RECOG_RESP	1709719	n/a	LTP122	ltpFR	4	6	0	ISLAND	745	n/a	1	n/a	n/a	n/a	n/a	n/a
3420.594	n/a	RECOG_CONF	1710297	n/a	LTP122	ltpFR	4	6	0	ISLAND	745	5	1	n/a	n/a	n/a	n/a	n/a
3422.252	n/a	RECOG_TARGET	1711126	n/a	LTP122	ltpFR	4	6	1	TOOTH	1481	5	0	n/a	n/a	n/a	n/a	n/a
3422.74	n/a	RECOG_RESP	1711370	n/a	LTP122	ltpFR	4	6	1	TOOTH	1481	n/a	0	n/a	n/a	n/a	n/a	n/a
3423.908	n/a	RECOG_CONF	1711954	n/a	LTP122	ltpFR	4	6	1	TOOTH	1481	5	0	n/a	n/a	n/a	n/a	n/a
3425.634	n/a	RECOG_LURE	1712817	n/a	LTP122	ltpFR	4	6	n/a	KNIFE	785	2	n/a	n/a	n/a	n/a	n/a	n/a
3426.562	n/a	RECOG_RESP	1713281	n/a	LTP122	ltpFR	4	6	n/a	KNIFE	785	n/a	n/a	n/a	n/a	n/a	n/a	n/a
3427.768	n/a	RECOG_CONF	1713884	n/a	LTP122	ltpFR	4	6	n/a	KNIFE	785	2	n/a	n/a	n/a	n/a	n/a	n/a
3429.458	n/a	RECOG_LURE	1714729	n/a	LTP122	ltpFR	4	6	n/a	BRUNETTE	181	5	n/a	n/a	n/a	n/a	n/a	n/a
3430.084	n/a	RECOG_RESP	1715042	n/a	LTP122	ltpFR	4	6	n/a	BRUNETTE	181	n/a	n/a	n/a	n/a	n/a	n/a	n/a
3431.272	n/a	RECOG_CONF	1715636	n/a	LTP122	ltpFR	4	6	n/a	BRUNETTE	181	5	n/a	n/a	n/a	n/a	n/a	n/a
3433.09	n/a	RECOG_TARGET	1716545	n/a	LTP122	ltpFR	4	6	1	ANGEL	22	1	1	n/a	n/a	n/a	n/a	n/a
3433.776	n/a	RECOG_RESP	1716888	n/a	LTP122	ltpFR	4	6	1	ANGEL	22	n/a	1	n/a	n/a	n/a	n/a	n/a
3435.172	n/a	RECOG_CONF	1717586	n/a	LTP122	ltpFR	4	6	1	ANGEL	22	1	1	n/a	n/a	n/a	n/a	n/a
3436.58	n/a	RECOG_TARGET	1718290	n/a	LTP122	ltpFR	4	6	0	GATE	625	5	1	n/a	n/a	n/a	n/a	n/a
3437.238	n/a	RECOG_RESP	1718619	n/a	LTP122	ltpFR	4	6	0	GATE	625	n/a	1	n/a	n/a	n/a	n/a	n/a
3438.446	n/a	RECOG_CONF	1719223	n/a	LTP122	ltpFR	4	6	0	GATE	625	5	1	n/a	n/a	n/a	n/a	n/a
3440.064	n/a	RECOG_TARGET	1720032	n/a	LTP122	ltpFR	4	6	1	RESORT	1186	5	0	n/a	n/a	n/a	n/a	n/a
3440.736	n/a	RECOG_RESP	1720368	n/a	LTP122	ltpFR	4	6	1	RESORT	1186	n/a	0	n/a	n/a	n/a	n/a	n/a
3441.848	n/a	RECOG_CONF	1720924	n/a	LTP122	ltpFR	4	6	1	RESORT	1186	5	0	n/a	n/a	n/a	n/a	n/a
3443.494	n/a	RECOG_LURE	1721747	n/a	LTP122	ltpFR	4	6	n/a	VILLAGE	1566	2	n/a	n/a	n/a	n/a	n/a	n/a
3444.836	n/a	RECOG_RESP	1722418	n/a	LTP122	ltpFR	4	6	n/a	VILLAGE	1566	n/a	n/a	n/a	n/a	n/a	n/a	n/a
3445.928	n/a	RECOG_CONF	1722964	n/a	LTP122	ltpFR	4	6	n/a	VILLAGE	1566	2	n/a	n/a	n/a	n/a	n/a	n/a
3447.61	n/a	RECOG_LURE	1723805	n/a	LTP122	ltpFR	4	6	n/a	COSTUME	383	5	n/a	n/a	n/a	n/a	n/a	n/a
3448.352	n/a	RECOG_RESP	1724176	n/a	LTP122	ltpFR	4	6	n/a	COSTUME	383	n/a	n/a	n/a	n/a	n/a	n/a	n/a
3449.382	n/a	RECOG_CONF	1724691	n/a	LTP122	ltpFR	4	6	n/a	COSTUME	383	5	n/a	n/a	n/a	n/a	n/a	n/a
3451.036	n/a	RECOG_LURE	1725518	n/a	LTP122	ltpFR	4	6	n/a	GARAGE	621	1	n/a	n/a	n/a	n/a	n/a	n/a
3451.986	n/a	RECOG_RESP	1725993	n/a	LTP122	ltpFR	4	6	n/a	GARAGE	621	n/a	n/a	n/a	n/a	n/a	n/a	n/a
3453.064	n/a	RECOG_CONF	1726532	n/a	LTP122	ltpFR	4	6	n/a	GARAGE	621	1	n/a	n/a	n/a	n/a	n/a	n/a
3454.642	n/a	RECOG_TARGET	1727321	n/a	LTP122	ltpFR	4	6	0	COB	334	5	0	n/a	n/a	n/a	n/a	n/a
3455.352	n/a	RECOG_RESP	1727676	n/a	LTP122	ltpFR	4	6	0	COB	334	n/a	0	n/a	n/a	n/a	n/a	n/a
3456.526	n/a	RECOG_CONF	1728263	n/a	LTP122	ltpFR	4	6	0	COB	334	5	0	n/a	n/a	n/a	n/a	n/a
3458.332	n/a	RECOG_TARGET	1729166	n/a	LTP122	ltpFR	4	6	1	CHAIRPERSON	275	5	1	n/a	n/a	n/a	n/a	n/a
3459.878	n/a	RECOG_RESP	1729939	n/a	LTP122	ltpFR	4	6	1	CHAIRPERSON	275	n/a	1	n/a	n/a	n/a	n/a	n/a
3461.034	n/a	RECOG_CONF	1730517	n/a	LTP122	ltpFR	4	6	1	CHAIRPERSON	275	5	1	n/a	n/a	n/a	n/a	n/a
3462.638	n/a	RECOG_TARGET	1731319	n/a	LTP122	ltpFR	4	6	0	GOLD	647	5	0	n/a	n/a	n/a	n/a	n/a
3464.014	n/a	RECOG_RESP	1732007	n/a	LTP122	ltpFR	4	6	0	GOLD	647	n/a	0	n/a	n/a	n/a	n/a	n/a
3465.326	n/a	RECOG_CONF	1732663	n/a	LTP122	ltpFR	4	6	0	GOLD	647	5	0	n/a	n/a	n/a	n/a	n/a
3466.964	n/a	RECOG_TARGET	1733482	n/a	LTP122	ltpFR	4	6	-1	ORCHID	982	5	-1	n/a	n/a	n/a	n/a	n/a
3467.58	n/a	RECOG_RESP	1733790	n/a	LTP122	ltpFR	4	6	-1	ORCHID	982	n/a	-1	n/a	n/a	n/a	n/a	n/a
3468.858	n/a	RECOG_CONF	1734429	n/a	LTP122	ltpFR	4	6	-1	ORCHID	982	5	-1	n/a	n/a	n/a	n/a	n/a
3470.528	n/a	RECOG_TARGET	1735264	n/a	LTP122	ltpFR	4	6	1	DANDELION	438	5	1	n/a	n/a	n/a	n/a	n/a
3471.268	n/a	RECOG_RESP	1735634	n/a	LTP122	ltpFR	4	6	1	DANDELION	438	n/a	1	n/a	n/a	n/a	n/a	n/a
3472.38	n/a	RECOG_CONF	1736190	n/a	LTP122	ltpFR	4	6	1	DANDELION	438	5	1	n/a	n/a	n/a	n/a	n/a
3474.02	n/a	RECOG_TARGET	1737010	n/a	LTP122	ltpFR	4	6	0	BATHTUB	100	5	1	n/a	n/a	n/a	n/a	n/a
3475.014	n/a	RECOG_RESP	1737507	n/a	LTP122	ltpFR	4	6	0	BATHTUB	100	n/a	1	n/a	n/a	n/a	n/a	n/a
3476.172	n/a	RECOG_CONF	1738086	n/a	LTP122	ltpFR	4	6	0	BATHTUB	100	5	1	n/a	n/a	n/a	n/a	n/a
3477.978	n/a	RECOG_TARGET	1738989	n/a	LTP122	ltpFR	4	6	-1	TRICYCLE	1506	5	-1	n/a	n/a	n/a	n/a	n/a
3478.516	n/a	RECOG_RESP	1739258	n/a	LTP122	ltpFR	4	6	-1	TRICYCLE	1506	n/a	-1	n/a	n/a	n/a	n/a	n/a
3479.714	n/a	RECOG_CONF	1739857	n/a	LTP122	ltpFR	4	6	-1	TRICYCLE	1506	5	-1	n/a	n/a	n/a	n/a	n/a
3481.36	n/a	RECOG_TARGET	1740680	n/a	LTP122	ltpFR	4	6	-1	FOE	587	5	-1	n/a	n/a	n/a	n/a	n/a
3481.874	n/a	RECOG_RESP	1740937	n/a	LTP122	ltpFR	4	6	-1	FOE	587	n/a	-1	n/a	n/a	n/a	n/a	n/a
3483.036	n/a	RECOG_CONF	1741518	n/a	LTP122	ltpFR	4	6	-1	FOE	587	5	-1	n/a	n/a	n/a	n/a	n/a
3497.646	n/a	REC_START	1748823	n/a	LTP122	ltpFR	4	7	n/a	n/a	n/a	n/a	n/a	n/a	n/a	n/a	n/a	n/a
3497.678	n/a	RECOG_LURE	1748839	n/a	LTP122	ltpFR	4	7	n/a	ANTLER	29	3	n/a	n/a	n/a	n/a	n/a	n/a
3498.394	n/a	RECOG_RESP	1749197	n/a	LTP122	ltpFR	4	7	n/a	ANTLER	29	n/a	n/a	n/a	n/a	n/a	n/a	n/a
3499.596	n/a	RECOG_CONF	1749798	n/a	LTP122	ltpFR	4	7	n/a	ANTLER	29	3	n/a	n/a	n/a	n/a	n/a	n/a
3501.17	n/a	RECOG_TARGET	1750585	n/a	LTP122	ltpFR	4	7	0	RIBBON	1189	3	0	n/a	n/a	n/a	n/a	n/a
3502.366	n/a	RECOG_RESP	1751183	n/a	LTP122	ltpFR	4	7	0	RIBBON	1189	n/a	0	n/a	n/a	n/a	n/a	n/a
3504.126	n/a	RECOG_CONF	1752063	n/a	LTP122	ltpFR	4	7	0	RIBBON	1189	3	0	n/a	n/a	n/a	n/a	n/a
3505.776	n/a	RECOG_LURE	1752888	n/a	LTP122	ltpFR	4	7	n/a	METEOR	889	3	n/a	n/a	n/a	n/a	n/a	n/a
3506.526	n/a	RECOG_RESP	1753263	n/a	LTP122	ltpFR	4	7	n/a	METEOR	889	n/a	n/a	n/a	n/a	n/a	n/a	n/a
3508.028	n/a	RECOG_CONF	1754014	n/a	LTP122	ltpFR	4	7	n/a	METEOR	889	3	n/a	n/a	n/a	n/a	n/a	n/a
3509.734	n/a	RECOG_TARGET	1754867	n/a	LTP122	ltpFR	4	7	1	BOUQUET	157	5	0	n/a	n/a	n/a	n/a	n/a
3510.542	n/a	RECOG_RESP	1755271	n/a	LTP122	ltpFR	4	7	1	BOUQUET	157	n/a	0	n/a	n/a	n/a	n/a	n/a
3511.74	n/a	RECOG_CONF	1755870	n/a	LTP122	ltpFR	4	7	1	BOUQUET	157	5	0	n/a	n/a	n/a	n/a	n/a
3513.498	n/a	RECOG_LURE	1756749	n/a	LTP122	ltpFR	4	7	n/a	CITRUS	313	4	n/a	n/a	n/a	n/a	n/a	n/a
3514.324	n/a	RECOG_RESP	1757162	n/a	LTP122	ltpFR	4	7	n/a	CITRUS	313	n/a	n/a	n/a	n/a	n/a	n/a	n/a
3515.552	n/a	RECOG_CONF	1757776	n/a	LTP122	ltpFR	4	7	n/a	CITRUS	313	4	n/a	n/a	n/a	n/a	n/a	n/a
3517.056	n/a	RECOG_TARGET	1758528	n/a	LTP122	ltpFR	4	7	0	SQUID	1361	5	1	n/a	n/a	n/a	n/a	n/a
