onset	duration	trial_type	sample	stim_file	subject	experiment	session	trial	task	item_name	item_num	recog_resp	recog_conf	resp	answer	test_x	test_y	test_z	color_r	color_g	color_b	case	font
278.662	n/a	SESS_START	139331	n/a	LTP133	ltpFR	12	n/a	n/a	n/a	n/a	1	n/a	n/a	n/a	0	0	0	n/a	n/a	n/a	n/a	n/a
311.58	n/a	START	155790	n/a	LTP133	ltpFR	12	n/a	n/a	n/a	n/a	n/a	n/a	n/a	n/a	n/a	n/a	n/a	n/a	n/a	n/a	n/a	n/a
311.604	n/a	PROB	155802	n/a	LTP133	ltpFR	12	n/a	n/a	n/a	n/a	n/a	n/a	n/a	21	5	8	8	n/a	n/a	n/a	n/a	n/a
314.532	n/a	PROB	157266	n/a	LTP133	ltpFR	12	n/a	n/a	n/a	n/a	n/a	n/a	n/a	13	4	8	1	n/a	n/a	n/a	n/a	n/a
315.908	n/a	PROB	157954	n/a	LTP133	ltpFR	12	n/a	n/a	n/a	n/a	n/a	n/a	n/a	14	9	1	4	n/a	n/a	n/a	n/a	n/a
316.972	n/a	PROB	158486	n/a	LTP133	ltpFR	12	n/a	n/a	n/a	n/a	n/a	n/a	n/a	10	4	5	1	n/a	n/a	n/a	n/a	n/a
318.196	n/a	PROB	159098	n/a	LTP133	ltpFR	12	n/a	n/a	n/a	n/a	n/a	n/a	n/a	17	4	6	7	n/a	n/a	n/a	n/a	n/a
319.544	n/a	PROB	159772	n/a	LTP133	ltpFR	12	n/a	n/a	n/a	n/a	n/a	n/a	n/a	18	2	7	9	n/a	n/a	n/a	n/a	n/a
320.784	n/a	PROB	160392	n/a	LTP133	ltpFR	12	n/a	n/a	n/a	n/a	n/a	n/a	n/a	19	7	5	7	n/a	n/a	n/a	n/a	n/a
323.222	n/a	PROB	161611	n/a	LTP133	ltpFR	12	n/a	n/a	n/a	n/a	n/a	n/a	n/a	15	5	9	1	n/a	n/a	n/a	n/a	n/a
324.698	n/a	PROB	162349	n/a	LTP133	ltpFR	12	n/a	n/a	n/a	n/a	n/a	n/a	n/a	16	6	5	5	n/a	n/a	n/a	n/a	n/a
325.906	n/a	PROB	162953	n/a	LTP133	ltpFR	12	n/a	n/a	n/a	n/a	n/a	n/a	n/a	7	1	1	5	n/a	n/a	n/a	n/a	n/a
327.104	n/a	PROB	163552	n/a	LTP133	ltpFR	12	n/a	n/a	n/a	n/a	n/a	n/a	n/a	17	5	4	8	n/a	n/a	n/a	n/a	n/a
328.492	n/a	PROB	164246	n/a	LTP133	ltpFR	12	n/a	n/a	n/a	n/a	n/a	n/a	n/a	20	9	2	9	n/a	n/a	n/a	n/a	n/a
329.85	n/a	PROB	164925	n/a	LTP133	ltpFR	12	n/a	n/a	n/a	n/a	n/a	n/a	n/a	15	2	6	7	n/a	n/a	n/a	n/a	n/a
331.34	n/a	STOP	165670	n/a	LTP133	ltpFR	12	n/a	n/a	n/a	n/a	n/a	n/a	n/a	n/a	n/a	n/a	n/a	n/a	n/a	n/a	n/a	n/a
371.502	n/a	WORD	185751	wordpools/wasnorm_wordpool.txt	LTP133	ltpFR	12	1	1	TACK	1428	n/a	n/a	0	n/a	0	0	0	0.422607421875	0.5869140625	0	upper	amplitud.ttf
375.438	n/a	WORD	187719	wordpools/wasnorm_wordpool.txt	LTP133	ltpFR	12	1	1	MINER	896	n/a	n/a	1	n/a	0	0	0	0.422607421875	0.5869140625	0	upper	amplitud.ttf
379.276	n/a	WORD	189638	wordpools/wasnorm_wordpool.txt	LTP133	ltpFR	12	1	1	HOSTESS	723	n/a	n/a	1	n/a	0	0	0	0.422607421875	0.5869140625	0	upper	amplitud.ttf
383.28	n/a	WORD	191640	wordpools/wasnorm_wordpool.txt	LTP133	ltpFR	12	1	0	SKULL	1320	n/a	n/a	0	n/a	0	0	0	0.57763671875	0.412841796875	1	lower	zerothre.ttf
387.158	n/a	WORD	193579	wordpools/wasnorm_wordpool.txt	LTP133	ltpFR	12	1	0	FOOT	590	n/a	n/a	0	n/a	0	0	0	0.57763671875	0.412841796875	1	lower	zerothre.ttf
391.27	n/a	WORD	195635	wordpools/wasnorm_wordpool.txt	LTP133	ltpFR	12	1	0	DRIVEWAY	500	n/a	n/a	1	n/a	0	0	0	0.57763671875	0.412841796875	1	lower	zerothre.ttf
395.382	n/a	WORD	197691	wordpools/wasnorm_wordpool.txt	LTP133	ltpFR	12	1	0	FREEZER	604	n/a	n/a	0	n/a	0	0	0	0.57763671875	0.412841796875	1	lower	zerothre.ttf
399.452	n/a	WORD	199726	wordpools/wasnorm_wordpool.txt	LTP133	ltpFR	12	1	1	CAFETERIA	217	n/a	n/a	0	n/a	0	0	0	0.422607421875	0.5869140625	0	upper	amplitud.ttf
403.448	n/a	WORD	201724	wordpools/wasnorm_wordpool.txt	LTP133	ltpFR	12	1	1	XEROX	1628	n/a	n/a	0	n/a	0	0	0	0.422607421875	0.5869140625	0	upper	amplitud.ttf
407.654	n/a	WORD	203827	wordpools/wasnorm_wordpool.txt	LTP133	ltpFR	12	1	1	PASSENGER	1020	n/a	n/a	1	n/a	0	0	0	0.422607421875	0.5869140625	0	upper	amplitud.ttf
411.666	n/a	WORD	205833	wordpools/wasnorm_wordpool.txt	LTP133	ltpFR	12	1	0	POTATO	1115	n/a	n/a	0	n/a	0	0	0	0.57763671875	0.412841796875	1	lower	zerothre.ttf
415.628	n/a	WORD	207814	wordpools/wasnorm_wordpool.txt	LTP133	ltpFR	12	1	0	SHEPHERD	1283	n/a	n/a	1	n/a	0	0	0	0.57763671875	0.412841796875	1	lower	zerothre.ttf
419.488	n/a	WORD	209744	wordpools/wasnorm_wordpool.txt	LTP133	ltpFR	12	1	0	LAMB	797	n/a	n/a	0	n/a	0	0	0	0.57763671875	0.412841796875	1	lower	zerothre.ttf
423.652	n/a	WORD	211826	wordpools/wasnorm_wordpool.txt	LTP133	ltpFR	12	1	0	TOE	1473	n/a	n/a	0	n/a	0	0	0	0.57763671875	0.412841796875	1	lower	zerothre.ttf
427.496	n/a	WORD	213748	wordpools/wasnorm_wordpool.txt	LTP133	ltpFR	12	1	1	NET	946	n/a	n/a	0	n/a	0	0	0	0.422607421875	0.5869140625	0	upper	amplitud.ttf
431.7	n/a	WORD	215850	wordpools/wasnorm_wordpool.txt	LTP133	ltpFR	12	1	1	SCALLOP	1242	n/a	n/a	1	n/a	0	0	0	0.422607421875	0.5869140625	0	upper	amplitud.ttf
434.706	n/a	START	217353	n/a	LTP133	ltpFR	12	n/a	n/a	n/a	n/a	n/a	n/a	n/a	n/a	n/a	n/a	n/a	n/a	n/a	n/a	n/a	n/a
435.846	n/a	PROB	217923	n/a	LTP133	ltpFR	12	n/a	n/a	n/a	n/a	n/a	n/a	n/a	19	8	8	3	n/a	n/a	n/a	n/a	n/a
437.492	n/a	PROB	218746	n/a	LTP133	ltpFR	12	n/a	n/a	n/a	n/a	n/a	n/a	n/a	15	1	9	5	n/a	n/a	n/a	n/a	n/a
438.816	n/a	PROB	219408	n/a	LTP133	ltpFR	12	n/a	n/a	n/a	n/a	n/a	n/a	n/a	16	8	4	4	n/a	n/a	n/a	n/a	n/a
442.706	n/a	STOP	221353	n/a	LTP133	ltpFR	12	n/a	n/a	n/a	n/a	n/a	n/a	n/a	n/a	n/a	n/a	n/a	n/a	n/a	n/a	n/a	n/a
444.436	n/a	REC_START	222218	n/a	LTP133	ltpFR	12	1	n/a	n/a	n/a	n/a	n/a	n/a	n/a	0	0	0	n/a	n/a	n/a	n/a	n/a
446.096	n/a	REC_WORD	223048	wordpools/wasnorm_wordpool.txt	LTP133	ltpFR	12	1	1	NET	946	n/a	n/a	0	n/a	0	0	0	n/a	n/a	n/a	n/a	n/a
447.388	n/a	REC_WORD	223694	wordpools/wasnorm_wordpool.txt	LTP133	ltpFR	12	1	1	SCALLOP	1242	n/a	n/a	1	n/a	0	0	0	n/a	n/a	n/a	n/a	n/a
449.02	n/a	REC_WORD	224510	wordpools/wasnorm_wordpool.txt	LTP133	ltpFR	12	1	0	LAMB	797	n/a	n/a	0	n/a	0	0	0	n/a	n/a	n/a	n/a	n/a
450.386	n/a	REC_WORD	225193	wordpools/wasnorm_wordpool.txt	LTP133	ltpFR	12	1	0	SHEPHERD	1283	n/a	n/a	1	n/a	0	0	0	n/a	n/a	n/a	n/a	n/a
452.772	n/a	REC_WORD	226386	wordpools/wasnorm_wordpool.txt	LTP133	ltpFR	12	1	1	CAFETERIA	217	n/a	n/a	0	n/a	0	0	0	n/a	n/a	n/a	n/a	n/a
454.692	n/a	REC_WORD	227346	wordpools/wasnorm_wordpool.txt	LTP133	ltpFR	12	1	1	XEROX	1628	n/a	n/a	0	n/a	0	0	0	n/a	n/a	n/a	n/a	n/a
460.224	n/a	REC_WORD	230112	wordpools/wasnorm_wordpool.txt	LTP133	ltpFR	12	1	1	HOSTESS	723	n/a	n/a	1	n/a	0	0	0	n/a	n/a	n/a	n/a	n/a
461.602	n/a	REC_WORD	230801	wordpools/wasnorm_wordpool.txt	LTP133	ltpFR	12	1	1	PASSENGER	1020	n/a	n/a	1	n/a	0	0	0	n/a	n/a	n/a	n/a	n/a
475.58	n/a	REC_WORD	237790	wordpools/wasnorm_wordpool.txt	LTP133	ltpFR	12	1	0	TOE	1473	n/a	n/a	0	n/a	0	0	0	n/a	n/a	n/a	n/a	n/a
476.666	n/a	REC_WORD	238333	wordpools/wasnorm_wordpool.txt	LTP133	ltpFR	12	1	0	FOOT	590	n/a	n/a	0	n/a	0	0	0	n/a	n/a	n/a	n/a	n/a
477.928	n/a	REC_WORD	238964	wordpools/wasnorm_wordpool.txt	LTP133	ltpFR	12	1	0	SKULL	1320	n/a	n/a	0	n/a	0	0	0	n/a	n/a	n/a	n/a	n/a
482.57	n/a	REC_WORD	241285	wordpools/wasnorm_wordpool.txt	LTP133	ltpFR	12	1	0	FREEZER	604	n/a	n/a	0	n/a	0	0	0	n/a	n/a	n/a	n/a	n/a
517.5	n/a	REC_WORD	258750	wordpools/wasnorm_wordpool.txt	LTP133	ltpFR	12	1	1	MINER	896	n/a	n/a	1	n/a	0	0	0	n/a	n/a	n/a	n/a	n/a
522.904	n/a	START	261452	n/a	LTP133	ltpFR	12	n/a	n/a	n/a	n/a	n/a	n/a	n/a	n/a	n/a	n/a	n/a	n/a	n/a	n/a	n/a	n/a
524.41	n/a	PROB	262205	n/a	LTP133	ltpFR	12	n/a	n/a	n/a	n/a	n/a	n/a	n/a	16	4	7	5	n/a	n/a	n/a	n/a	n/a
526.058	n/a	PROB	263029	n/a	LTP133	ltpFR	12	n/a	n/a	n/a	n/a	n/a	n/a	n/a	13	3	2	8	n/a	n/a	n/a	n/a	n/a
527.256	n/a	PROB	263628	n/a	LTP133	ltpFR	12	n/a	n/a	n/a	n/a	n/a	n/a	n/a	13	5	6	2	n/a	n/a	n/a	n/a	n/a
528.514	n/a	PROB	264257	n/a	LTP133	ltpFR	12	n/a	n/a	n/a	n/a	n/a	n/a	n/a	14	1	5	8	n/a	n/a	n/a	n/a	n/a
529.774	n/a	STOP	264887	n/a	LTP133	ltpFR	12	n/a	n/a	n/a	n/a	n/a	n/a	n/a	n/a	n/a	n/a	n/a	n/a	n/a	n/a	n/a	n/a
531.752	n/a	WORD	265876	wordpools/wasnorm_wordpool.txt	LTP133	ltpFR	12	2	0	PEDESTRIAN	1038	n/a	n/a	1	n/a	0	0	0	0.57763671875	0.412841796875	1	lower	zerothre.ttf
534.758	n/a	START	267379	n/a	LTP133	ltpFR	12	n/a	n/a	n/a	n/a	n/a	n/a	n/a	n/a	n/a	n/a	n/a	n/a	n/a	n/a	n/a	n/a
535.838	n/a	PROB	267919	n/a	LTP133	ltpFR	12	n/a	n/a	n/a	n/a	n/a	n/a	n/a	10	5	4	1	n/a	n/a	n/a	n/a	n/a
537.27	n/a	PROB	268635	n/a	LTP133	ltpFR	12	n/a	n/a	n/a	n/a	n/a	n/a	n/a	6	1	4	1	n/a	n/a	n/a	n/a	n/a
538.468	n/a	PROB	269234	n/a	LTP133	ltpFR	12	n/a	n/a	n/a	n/a	n/a	n/a	n/a	15	4	3	8	n/a	n/a	n/a	n/a	n/a
539.584	n/a	PROB	269792	n/a	LTP133	ltpFR	12	n/a	n/a	n/a	n/a	n/a	n/a	n/a	15	8	3	4	n/a	n/a	n/a	n/a	n/a
540.584	n/a	PROB	270292	n/a	LTP133	ltpFR	12	n/a	n/a	n/a	n/a	n/a	n/a	n/a	16	7	4	5	n/a	n/a	n/a	n/a	n/a
541.878	n/a	STOP	270939	n/a	LTP133	ltpFR	12	n/a	n/a	n/a	n/a	n/a	n/a	n/a	n/a	n/a	n/a	n/a	n/a	n/a	n/a	n/a	n/a
543.846	n/a	WORD	271923	wordpools/wasnorm_wordpool.txt	LTP133	ltpFR	12	2	0	TREAD	1499	n/a	n/a	0	n/a	0	0	0	0.57763671875	0.412841796875	1	lower	zerothre.ttf
546.852	n/a	START	273426	n/a	LTP133	ltpFR	12	n/a	n/a	n/a	n/a	n/a	n/a	n/a	n/a	n/a	n/a	n/a	n/a	n/a	n/a	n/a	n/a
547.816	n/a	PROB	273908	n/a	LTP133	ltpFR	12	n/a	n/a	n/a	n/a	n/a	n/a	n/a	14	2	3	9	n/a	n/a	n/a	n/a	n/a
549.306	n/a	PROB	274653	n/a	LTP133	ltpFR	12	n/a	n/a	n/a	n/a	n/a	n/a	n/a	12	3	6	3	n/a	n/a	n/a	n/a	n/a
550.746	n/a	PROB	275373	n/a	LTP133	ltpFR	12	n/a	n/a	n/a	n/a	n/a	n/a	n/a	16	4	8	4	n/a	n/a	n/a	n/a	n/a
551.896	n/a	PROB	275948	n/a	LTP133	ltpFR	12	n/a	n/a	n/a	n/a	n/a	n/a	n/a	6	1	4	1	n/a	n/a	n/a	n/a	n/a
553.028	n/a	PROB	276514	n/a	LTP133	ltpFR	12	n/a	n/a	n/a	n/a	n/a	n/a	n/a	11	8	1	2	n/a	n/a	n/a	n/a	n/a
554.326	n/a	STOP	277163	n/a	LTP133	ltpFR	12	n/a	n/a	n/a	n/a	n/a	n/a	n/a	n/a	n/a	n/a	n/a	n/a	n/a	n/a	n/a	n/a
556.048	n/a	WORD	278024	wordpools/wasnorm_wordpool.txt	LTP133	ltpFR	12	2	0	CHIPMUNK	304	n/a	n/a	0	n/a	0	0	0	0.57763671875	0.412841796875	1	lower	zerothre.ttf
559.054	n/a	START	279527	n/a	LTP133	ltpFR	12	n/a	n/a	n/a	n/a	n/a	n/a	n/a	n/a	n/a	n/a	n/a	n/a	n/a	n/a	n/a	n/a
560.16	n/a	PROB	280080	n/a	LTP133	ltpFR	12	n/a	n/a	n/a	n/a	n/a	n/a	n/a	18	2	8	8	n/a	n/a	n/a	n/a	n/a
561.576	n/a	PROB	280788	n/a	LTP133	ltpFR	12	n/a	n/a	n/a	n/a	n/a	n/a	n/a	18	5	5	8	n/a	n/a	n/a	n/a	n/a
562.742	n/a	PROB	281371	n/a	LTP133	ltpFR	12	n/a	n/a	n/a	n/a	n/a	n/a	n/a	13	6	5	2	n/a	n/a	n/a	n/a	n/a
564.156	n/a	PROB	282078	n/a	LTP133	ltpFR	12	n/a	n/a	n/a	n/a	n/a	n/a	n/a	1	5	3	2	n/a	n/a	n/a	n/a	n/a
565.808	n/a	STOP	282904	n/a	LTP133	ltpFR	12	n/a	n/a	n/a	n/a	n/a	n/a	n/a	n/a	n/a	n/a	n/a	n/a	n/a	n/a	n/a	n/a
568.02	n/a	WORD	284010	wordpools/wasnorm_wordpool.txt	LTP133	ltpFR	12	2	0	VET	1560	n/a	n/a	1	n/a	0	0	0	0.57763671875	0.412841796875	1	lower	zerothre.ttf
571.024	n/a	START	285512	n/a	LTP133	ltpFR	12	n/a	n/a	n/a	n/a	n/a	n/a	n/a	n/a	n/a	n/a	n/a	n/a	n/a	n/a	n/a	n/a
572.172	n/a	PROB	286086	n/a	LTP133	ltpFR	12	n/a	n/a	n/a	n/a	n/a	n/a	n/a	23	8	9	6	n/a	n/a	n/a	n/a	n/a
574.038	n/a	PROB	287019	n/a	LTP133	ltpFR	12	n/a	n/a	n/a	n/a	n/a	n/a	n/a	10	6	1	3	n/a	n/a	n/a	n/a	n/a
575.526	n/a	PROB	287763	n/a	LTP133	ltpFR	12	n/a	n/a	n/a	n/a	n/a	n/a	n/a	16	2	6	8	n/a	n/a	n/a	n/a	n/a
576.726	n/a	PROB	288363	n/a	LTP133	ltpFR	12	n/a	n/a	n/a	n/a	n/a	n/a	n/a	24	9	7	8	n/a	n/a	n/a	n/a	n/a
578.848	n/a	STOP	289424	n/a	LTP133	ltpFR	12	n/a	n/a	n/a	n/a	n/a	n/a	n/a	n/a	n/a	n/a	n/a	n/a	n/a	n/a	n/a	n/a
579.938	n/a	WORD	289969	wordpools/wasnorm_wordpool.txt	LTP133	ltpFR	12	2	0	CHARCOAL	281	n/a	n/a	0	n/a	0	0	0	0.57763671875	0.412841796875	1	lower	zerothre.ttf
582.944	n/a	START	291472	n/a	LTP133	ltpFR	12	n/a	n/a	n/a	n/a	n/a	n/a	n/a	n/a	n/a	n/a	n/a	n/a	n/a	n/a	n/a	n/a
583.85	n/a	PROB	291925	n/a	LTP133	ltpFR	12	n/a	n/a	n/a	n/a	n/a	n/a	n/a	16	5	8	3	n/a	n/a	n/a	n/a	n/a
585.44	n/a	PROB	292720	n/a	LTP133	ltpFR	12	n/a	n/a	n/a	n/a	n/a	n/a	n/a	25	9	9	7	n/a	n/a	n/a	n/a	n/a
587.188	n/a	PROB	293594	n/a	LTP133	ltpFR	12	n/a	n/a	n/a	n/a	n/a	n/a	n/a	15	4	5	6	n/a	n/a	n/a	n/a	n/a
588.836	n/a	PROB	294418	n/a	LTP133	ltpFR	12	n/a	n/a	n/a	n/a	n/a	n/a	n/a	8	2	3	3	n/a	n/a	n/a	n/a	n/a
589.848	n/a	STOP	294924	n/a	LTP133	ltpFR	12	n/a	n/a	n/a	n/a	n/a	n/a	n/a	n/a	n/a	n/a	n/a	n/a	n/a	n/a	n/a	n/a
591.95	n/a	WORD	295975	wordpools/wasnorm_wordpool.txt	LTP133	ltpFR	12	2	0	ANTENNA	28	n/a	n/a	0	n/a	0	0	0	0.57763671875	0.412841796875	1	lower	zerothre.ttf
594.956	n/a	START	297478	n/a	LTP133	ltpFR	12	n/a	n/a	n/a	n/a	n/a	n/a	n/a	n/a	n/a	n/a	n/a	n/a	n/a	n/a	n/a	n/a
595.928	n/a	PROB	297964	n/a	LTP133	ltpFR	12	n/a	n/a	n/a	n/a	n/a	n/a	n/a	13	6	1	6	n/a	n/a	n/a	n/a	n/a
597.626	n/a	PROB	298813	n/a	LTP133	ltpFR	12	n/a	n/a	n/a	n/a	n/a	n/a	n/a	21	7	7	7	n/a	n/a	n/a	n/a	n/a
599.582	n/a	PROB	299791	n/a	LTP133	ltpFR	12	n/a	n/a	n/a	n/a	n/a	n/a	n/a	14	6	5	3	n/a	n/a	n/a	n/a	n/a
600.922	n/a	PROB	300461	n/a	LTP133	ltpFR	12	n/a	n/a	n/a	n/a	n/a	n/a	n/a	22	4	9	9	n/a	n/a	n/a	n/a	n/a
602.406	n/a	STOP	301203	n/a	LTP133	ltpFR	12	n/a	n/a	n/a	n/a	n/a	n/a	n/a	n/a	n/a	n/a	n/a	n/a	n/a	n/a	n/a	n/a
604.126	n/a	WORD	302063	wordpools/wasnorm_wordpool.txt	LTP133	ltpFR	12	2	0	PLAZA	1088	n/a	n/a	1	n/a	0	0	0	0.57763671875	0.412841796875	1	lower	zerothre.ttf
607.132	n/a	START	303566	n/a	LTP133	ltpFR	12	n/a	n/a	n/a	n/a	n/a	n/a	n/a	n/a	n/a	n/a	n/a	n/a	n/a	n/a	n/a	n/a
608.014	n/a	PROB	304007	n/a	LTP133	ltpFR	12	n/a	n/a	n/a	n/a	n/a	n/a	n/a	14	2	7	5	n/a	n/a	n/a	n/a	n/a
609.588	n/a	PROB	304794	n/a	LTP133	ltpFR	12	n/a	n/a	n/a	n/a	n/a	n/a	n/a	20	8	3	9	n/a	n/a	n/a	n/a	n/a
610.97	n/a	PROB	305485	n/a	LTP133	ltpFR	12	n/a	n/a	n/a	n/a	n/a	n/a	n/a	20	7	6	7	n/a	n/a	n/a	n/a	n/a
612.416	n/a	PROB	306208	n/a	LTP133	ltpFR	12	n/a	n/a	n/a	n/a	n/a	n/a	n/a	12	7	3	2	n/a	n/a	n/a	n/a	n/a
613.984	n/a	STOP	306992	n/a	LTP133	ltpFR	12	n/a	n/a	n/a	n/a	n/a	n/a	n/a	n/a	n/a	n/a	n/a	n/a	n/a	n/a	n/a	n/a
615.964	n/a	WORD	307982	wordpools/wasnorm_wordpool.txt	LTP133	ltpFR	12	2	0	DEPARTMENT	449	n/a	n/a	1	n/a	0	0	0	0.57763671875	0.412841796875	1	lower	zerothre.ttf
618.97	n/a	START	309485	n/a	LTP133	ltpFR	12	n/a	n/a	n/a	n/a	n/a	n/a	n/a	n/a	n/a	n/a	n/a	n/a	n/a	n/a	n/a	n/a
619.91	n/a	PROB	309955	n/a	LTP133	ltpFR	12	n/a	n/a	n/a	n/a	n/a	n/a	n/a	8	1	1	6	n/a	n/a	n/a	n/a	n/a
620.966	n/a	PROB	310483	n/a	LTP133	ltpFR	12	n/a	n/a	n/a	n/a	n/a	n/a	n/a	7	1	4	2	n/a	n/a	n/a	n/a	n/a
622.206	n/a	PROB	311103	n/a	LTP133	ltpFR	12	n/a	n/a	n/a	n/a	n/a	n/a	n/a	5	1	2	2	n/a	n/a	n/a	n/a	n/a
623.446	n/a	PROB	311723	n/a	LTP133	ltpFR	12	n/a	n/a	n/a	n/a	n/a	n/a	n/a	17	7	4	6	n/a	n/a	n/a	n/a	n/a
624.754	n/a	PROB	312377	n/a	LTP133	ltpFR	12	n/a	n/a	n/a	n/a	n/a	n/a	n/a	15	1	6	8	n/a	n/a	n/a	n/a	n/a
625.848	n/a	STOP	312924	n/a	LTP133	ltpFR	12	n/a	n/a	n/a	n/a	n/a	n/a	n/a	n/a	n/a	n/a	n/a	n/a	n/a	n/a	n/a	n/a
627.874	n/a	WORD	313937	wordpools/wasnorm_wordpool.txt	LTP133	ltpFR	12	2	0	SILK	1307	n/a	n/a	0	n/a	0	0	0	0.57763671875	0.412841796875	1	lower	zerothre.ttf
630.88	n/a	START	315440	n/a	LTP133	ltpFR	12	n/a	n/a	n/a	n/a	n/a	n/a	n/a	n/a	n/a	n/a	n/a	n/a	n/a	n/a	n/a	n/a
631.77	n/a	PROB	315885	n/a	LTP133	ltpFR	12	n/a	n/a	n/a	n/a	n/a	n/a	n/a	16	6	6	4	n/a	n/a	n/a	n/a	n/a
633.644	n/a	PROB	316822	n/a	LTP133	ltpFR	12	n/a	n/a	n/a	n/a	n/a	n/a	n/a	16	8	7	1	n/a	n/a	n/a	n/a	n/a
634.858	n/a	PROB	317429	n/a	LTP133	ltpFR	12	n/a	n/a	n/a	n/a	n/a	n/a	n/a	12	1	9	5	n/a	n/a	n/a	n/a	n/a
636.574	n/a	PROB	318287	n/a	LTP133	ltpFR	12	n/a	n/a	n/a	n/a	n/a	n/a	n/a	15	7	1	7	n/a	n/a	n/a	n/a	n/a
637.856	n/a	STOP	318928	n/a	LTP133	ltpFR	12	n/a	n/a	n/a	n/a	n/a	n/a	n/a	n/a	n/a	n/a	n/a	n/a	n/a	n/a	n/a	n/a
640.078	n/a	WORD	320039	wordpools/wasnorm_wordpool.txt	LTP133	ltpFR	12	2	0	CONE	363	n/a	n/a	0	n/a	0	0	0	0.57763671875	0.412841796875	1	lower	zerothre.ttf
643.084	n/a	START	321542	n/a	LTP133	ltpFR	12	n/a	n/a	n/a	n/a	n/a	n/a	n/a	n/a	n/a	n/a	n/a	n/a	n/a	n/a	n/a	n/a
644.09	n/a	PROB	322045	n/a	LTP133	ltpFR	12	n/a	n/a	n/a	n/a	n/a	n/a	n/a	9	4	2	3	n/a	n/a	n/a	n/a	n/a
645.396	n/a	PROB	322698	n/a	LTP133	ltpFR	12	n/a	n/a	n/a	n/a	n/a	n/a	n/a	16	9	1	6	n/a	n/a	n/a	n/a	n/a
646.646	n/a	PROB	323323	n/a	LTP133	ltpFR	12	n/a	n/a	n/a	n/a	n/a	n/a	n/a	13	3	8	2	n/a	n/a	n/a	n/a	n/a
648.184	n/a	PROB	324092	n/a	LTP133	ltpFR	12	n/a	n/a	n/a	n/a	n/a	n/a	n/a	12	5	5	2	n/a	n/a	n/a	n/a	n/a
649.4	n/a	PROB	324700	n/a	LTP133	ltpFR	12	n/a	n/a	n/a	n/a	n/a	n/a	n/a	15	5	8	2	n/a	n/a	n/a	n/a	n/a
650.872	n/a	STOP	325436	n/a	LTP133	ltpFR	12	n/a	n/a	n/a	n/a	n/a	n/a	n/a	n/a	n/a	n/a	n/a	n/a	n/a	n/a	n/a	n/a
652.04	n/a	WORD	326020	wordpools/wasnorm_wordpool.txt	LTP133	ltpFR	12	2	0	OLIVE	975	n/a	n/a	0	n/a	0	0	0	0.57763671875	0.412841796875	1	lower	zerothre.ttf
655.044	n/a	START	327522	n/a	LTP133	ltpFR	12	n/a	n/a	n/a	n/a	n/a	n/a	n/a	n/a	n/a	n/a	n/a	n/a	n/a	n/a	n/a	n/a
656.242	n/a	PROB	328121	n/a	LTP133	ltpFR	12	n/a	n/a	n/a	n/a	n/a	n/a	n/a	17	5	3	9	n/a	n/a	n/a	n/a	n/a
657.716	n/a	PROB	328858	n/a	LTP133	ltpFR	12	n/a	n/a	n/a	n/a	n/a	n/a	n/a	13	2	7	4	n/a	n/a	n/a	n/a	n/a
660.662	n/a	PROB	330331	n/a	LTP133	ltpFR	12	n/a	n/a	n/a	n/a	n/a	n/a	n/a	11	6	4	1	n/a	n/a	n/a	n/a	n/a
661.856	n/a	STOP	330928	n/a	LTP133	ltpFR	12	n/a	n/a	n/a	n/a	n/a	n/a	n/a	n/a	n/a	n/a	n/a	n/a	n/a	n/a	n/a	n/a
664.108	n/a	WORD	332054	wordpools/wasnorm_wordpool.txt	LTP133	ltpFR	12	2	0	PICNIC	1060	n/a	n/a	1	n/a	0	0	0	0.57763671875	0.412841796875	1	lower	zerothre.ttf
667.114	n/a	START	333557	n/a	LTP133	ltpFR	12	n/a	n/a	n/a	n/a	n/a	n/a	n/a	n/a	n/a	n/a	n/a	n/a	n/a	n/a	n/a	n/a
668.144	n/a	PROB	334072	n/a	LTP133	ltpFR	12	n/a	n/a	n/a	n/a	n/a	n/a	n/a	14	7	5	2	n/a	n/a	n/a	n/a	n/a
669.96	n/a	PROB	334980	n/a	LTP133	ltpFR	12	n/a	n/a	n/a	n/a	n/a	n/a	n/a	9	1	6	2	n/a	n/a	n/a	n/a	n/a
671.374	n/a	PROB	335687	n/a	LTP133	ltpFR	12	n/a	n/a	n/a	n/a	n/a	n/a	n/a	10	1	2	7	n/a	n/a	n/a	n/a	n/a
672.624	n/a	PROB	336312	n/a	LTP133	ltpFR	12	n/a	n/a	n/a	n/a	n/a	n/a	n/a	12	1	4	7	n/a	n/a	n/a	n/a	n/a
673.96	n/a	STOP	336980	n/a	LTP133	ltpFR	12	n/a	n/a	n/a	n/a	n/a	n/a	n/a	n/a	n/a	n/a	n/a	n/a	n/a	n/a	n/a	n/a
676.004	n/a	WORD	338002	wordpools/wasnorm_wordpool.txt	LTP133	ltpFR	12	2	0	STADIUM	1364	n/a	n/a	1	n/a	0	0	0	0.57763671875	0.412841796875	1	lower	zerothre.ttf
679.008	n/a	START	339504	n/a	LTP133	ltpFR	12	n/a	n/a	n/a	n/a	n/a	n/a	n/a	n/a	n/a	n/a	n/a	n/a	n/a	n/a	n/a	n/a
679.816	n/a	PROB	339908	n/a	LTP133	ltpFR	12	n/a	n/a	n/a	n/a	n/a	n/a	n/a	14	6	1	7	n/a	n/a	n/a	n/a	n/a
681.238	n/a	PROB	340619	n/a	LTP133	ltpFR	12	n/a	n/a	n/a	n/a	n/a	n/a	n/a	19	7	5	7	n/a	n/a	n/a	n/a	n/a
682.838	n/a	PROB	341419	n/a	LTP133	ltpFR	12	n/a	n/a	n/a	n/a	n/a	n/a	n/a	15	6	1	8	n/a	n/a	n/a	n/a	n/a
684.126	n/a	PROB	342063	n/a	LTP133	ltpFR	12	n/a	n/a	n/a	n/a	n/a	n/a	n/a	15	6	7	2	n/a	n/a	n/a	n/a	n/a
686.416	n/a	STOP	343208	n/a	LTP133	ltpFR	12	n/a	n/a	n/a	n/a	n/a	n/a	n/a	n/a	n/a	n/a	n/a	n/a	n/a	n/a	n/a	n/a
688.114	n/a	WORD	344057	wordpools/wasnorm_wordpool.txt	LTP133	ltpFR	12	2	0	CHIP	303	n/a	n/a	0	n/a	0	0	0	0.57763671875	0.412841796875	1	lower	zerothre.ttf
691.12	n/a	START	345560	n/a	LTP133	ltpFR	12	n/a	n/a	n/a	n/a	n/a	n/a	n/a	n/a	n/a	n/a	n/a	n/a	n/a	n/a	n/a	n/a
692.15	n/a	PROB	346075	n/a	LTP133	ltpFR	12	n/a	n/a	n/a	n/a	n/a	n/a	n/a	13	3	9	1	n/a	n/a	n/a	n/a	n/a
694.616	n/a	PROB	347308	n/a	LTP133	ltpFR	12	n/a	n/a	n/a	n/a	n/a	n/a	n/a	19	4	9	6	n/a	n/a	n/a	n/a	n/a
696.064	n/a	PROB	348032	n/a	LTP133	ltpFR	12	n/a	n/a	n/a	n/a	n/a	n/a	n/a	17	3	9	5	n/a	n/a	n/a	n/a	n/a
697.88	n/a	STOP	348940	n/a	LTP133	ltpFR	12	n/a	n/a	n/a	n/a	n/a	n/a	n/a	n/a	n/a	n/a	n/a	n/a	n/a	n/a	n/a	n/a
699.968	n/a	WORD	349984	wordpools/wasnorm_wordpool.txt	LTP133	ltpFR	12	2	0	REFRIGERATOR	1179	n/a	n/a	1	n/a	0	0	0	0.57763671875	0.412841796875	1	lower	zerothre.ttf
702.972	n/a	START	351486	n/a	LTP133	ltpFR	12	n/a	n/a	n/a	n/a	n/a	n/a	n/a	n/a	n/a	n/a	n/a	n/a	n/a	n/a	n/a	n/a
704.154	n/a	PROB	352077	n/a	LTP133	ltpFR	12	n/a	n/a	n/a	n/a	n/a	n/a	n/a	8	1	1	6	n/a	n/a	n/a	n/a	n/a
705.136	n/a	PROB	352568	n/a	LTP133	ltpFR	12	n/a	n/a	n/a	n/a	n/a	n/a	n/a	17	4	8	5	n/a	n/a	n/a	n/a	n/a
707.026	n/a	PROB	353513	n/a	LTP133	ltpFR	12	n/a	n/a	n/a	n/a	n/a	n/a	n/a	16	9	3	4	n/a	n/a	n/a	n/a	n/a
708.306	n/a	PROB	354153	n/a	LTP133	ltpFR	12	n/a	n/a	n/a	n/a	n/a	n/a	n/a	11	9	1	1	n/a	n/a	n/a	n/a	n/a
710.972	n/a	STOP	355486	n/a	LTP133	ltpFR	12	n/a	n/a	n/a	n/a	n/a	n/a	n/a	n/a	n/a	n/a	n/a	n/a	n/a	n/a	n/a	n/a
711.838	n/a	WORD	355919	wordpools/wasnorm_wordpool.txt	LTP133	ltpFR	12	2	0	SOFTBALL	1343	n/a	n/a	0	n/a	0	0	0	0.57763671875	0.412841796875	1	lower	zerothre.ttf
714.842	n/a	START	357421	n/a	LTP133	ltpFR	12	n/a	n/a	n/a	n/a	n/a	n/a	n/a	n/a	n/a	n/a	n/a	n/a	n/a	n/a	n/a	n/a
715.724	n/a	PROB	357862	n/a	LTP133	ltpFR	12	n/a	n/a	n/a	n/a	n/a	n/a	n/a	17	5	5	7	n/a	n/a	n/a	n/a	n/a
717.18	n/a	PROB	358590	n/a	LTP133	ltpFR	12	n/a	n/a	n/a	n/a	n/a	n/a	n/a	11	5	5	1	n/a	n/a	n/a	n/a	n/a
718.204	n/a	PROB	359102	n/a	LTP133	ltpFR	12	n/a	n/a	n/a	n/a	n/a	n/a	n/a	16	8	3	5	n/a	n/a	n/a	n/a	n/a
719.52	n/a	PROB	359760	n/a	LTP133	ltpFR	12	n/a	n/a	n/a	n/a	n/a	n/a	n/a	22	4	9	9	n/a	n/a	n/a	n/a	n/a
721.184	n/a	PROB	360592	n/a	LTP133	ltpFR	12	n/a	n/a	n/a	n/a	n/a	n/a	n/a	16	4	8	4	n/a	n/a	n/a	n/a	n/a
722.568	n/a	STOP	361284	n/a	LTP133	ltpFR	12	n/a	n/a	n/a	n/a	n/a	n/a	n/a	n/a	n/a	n/a	n/a	n/a	n/a	n/a	n/a	n/a
724.616	n/a	REC_START	362308	n/a	LTP133	ltpFR	12	2	n/a	n/a	n/a	n/a	n/a	n/a	n/a	0	0	0	n/a	n/a	n/a	n/a	n/a
725.952	n/a	REC_WORD	362976	wordpools/wasnorm_wordpool.txt	LTP133	ltpFR	12	2	0	SOFTBALL	1343	n/a	n/a	0	n/a	0	0	0	n/a	n/a	n/a	n/a	n/a
727.694	n/a	REC_WORD	363847	wordpools/wasnorm_wordpool.txt	LTP133	ltpFR	12	2	0	REFRIGERATOR	1179	n/a	n/a	1	n/a	0	0	0	n/a	n/a	n/a	n/a	n/a
742.978	n/a	REC_WORD	371489	wordpools/wasnorm_wordpool.txt	LTP133	ltpFR	12	2	0	CHIPMUNK	304	n/a	n/a	0	n/a	0	0	0	n/a	n/a	n/a	n/a	n/a
770.376	n/a	REC_WORD	385188	wordpools/wasnorm_wordpool.txt	LTP133	ltpFR	12	2	0	STADIUM	1364	n/a	n/a	1	n/a	0	0	0	n/a	n/a	n/a	n/a	n/a
779.944	n/a	REC_WORD	389972	wordpools/wasnorm_wordpool.txt	LTP133	ltpFR	12	2	0	DEPARTMENT	449	n/a	n/a	1	n/a	0	0	0	n/a	n/a	n/a	n/a	n/a
808.128	n/a	START	404064	n/a	LTP133	ltpFR	12	n/a	n/a	n/a	n/a	n/a	n/a	n/a	n/a	n/a	n/a	n/a	n/a	n/a	n/a	n/a	n/a
809.634	n/a	PROB	404817	n/a	LTP133	ltpFR	12	n/a	n/a	n/a	n/a	n/a	n/a	n/a	13	4	8	1	n/a	n/a	n/a	n/a	n/a
810.916	n/a	PROB	405458	n/a	LTP133	ltpFR	12	n/a	n/a	n/a	n/a	n/a	n/a	n/a	20	6	5	9	n/a	n/a	n/a	n/a	n/a
812.388	n/a	PROB	406194	n/a	LTP133	ltpFR	12	n/a	n/a	n/a	n/a	n/a	n/a	n/a	7	1	3	3	n/a	n/a	n/a	n/a	n/a
813.88	n/a	PROB	406940	n/a	LTP133	ltpFR	12	n/a	n/a	n/a	n/a	n/a	n/a	n/a	15	9	2	4	n/a	n/a	n/a	n/a	n/a
814.946	n/a	STOP	407473	n/a	LTP133	ltpFR	12	n/a	n/a	n/a	n/a	n/a	n/a	n/a	n/a	n/a	n/a	n/a	n/a	n/a	n/a	n/a	n/a
817.282	n/a	WORD	408641	wordpools/wasnorm_wordpool.txt	LTP133	ltpFR	12	3	1	FUNERAL	613	n/a	n/a	0	n/a	0	0	0	0.422607421875	0.5869140625	0	upper	amplitud.ttf
820.288	n/a	START	410144	n/a	LTP133	ltpFR	12	n/a	n/a	n/a	n/a	n/a	n/a	n/a	n/a	n/a	n/a	n/a	n/a	n/a	n/a	n/a	n/a
821.486	n/a	PROB	410743	n/a	LTP133	ltpFR	12	n/a	n/a	n/a	n/a	n/a	n/a	n/a	16	5	5	6	n/a	n/a	n/a	n/a	n/a
822.81	n/a	PROB	411405	n/a	LTP133	ltpFR	12	n/a	n/a	n/a	n/a	n/a	n/a	n/a	12	1	6	5	n/a	n/a	n/a	n/a	n/a
824.4	n/a	PROB	412200	n/a	LTP133	ltpFR	12	n/a	n/a	n/a	n/a	n/a	n/a	n/a	15	5	7	3	n/a	n/a	n/a	n/a	n/a
826.33	n/a	PROB	413165	n/a	LTP133	ltpFR	12	n/a	n/a	n/a	n/a	n/a	n/a	n/a	20	4	9	7	n/a	n/a	n/a	n/a	n/a
827.81	n/a	STOP	413905	n/a	LTP133	ltpFR	12	n/a	n/a	n/a	n/a	n/a	n/a	n/a	n/a	n/a	n/a	n/a	n/a	n/a	n/a	n/a	n/a
829.228	n/a	WORD	414614	wordpools/wasnorm_wordpool.txt	LTP133	ltpFR	12	3	1	TROPHY	1509	n/a	n/a	0	n/a	0	0	0	0.422607421875	0.5869140625	0	upper	amplitud.ttf
832.232	n/a	START	416116	n/a	LTP133	ltpFR	12	n/a	n/a	n/a	n/a	n/a	n/a	n/a	n/a	n/a	n/a	n/a	n/a	n/a	n/a	n/a	n/a
833.322	n/a	PROB	416661	n/a	LTP133	ltpFR	12	n/a	n/a	n/a	n/a	n/a	n/a	n/a	17	2	8	7	n/a	n/a	n/a	n/a	n/a
835.122	n/a	PROB	417561	n/a	LTP133	ltpFR	12	n/a	n/a	n/a	n/a	n/a	n/a	n/a	16	6	1	9	n/a	n/a	n/a	n/a	n/a
836.944	n/a	PROB	418472	n/a	LTP133	ltpFR	12	n/a	n/a	n/a	n/a	n/a	n/a	n/a	13	1	6	6	n/a	n/a	n/a	n/a	n/a
838.25	n/a	PROB	419125	n/a	LTP133	ltpFR	12	n/a	n/a	n/a	n/a	n/a	n/a	n/a	15	9	2	4	n/a	n/a	n/a	n/a	n/a
839.41	n/a	STOP	419705	n/a	LTP133	ltpFR	12	n/a	n/a	n/a	n/a	n/a	n/a	n/a	n/a	n/a	n/a	n/a	n/a	n/a	n/a	n/a	n/a
841.106	n/a	WORD	420553	wordpools/wasnorm_wordpool.txt	LTP133	ltpFR	12	3	1	WINNER	1615	n/a	n/a	1	n/a	0	0	0	0.422607421875	0.5869140625	0	upper	amplitud.ttf
844.112	n/a	START	422056	n/a	LTP133	ltpFR	12	n/a	n/a	n/a	n/a	n/a	n/a	n/a	n/a	n/a	n/a	n/a	n/a	n/a	n/a	n/a	n/a
845.192	n/a	PROB	422596	n/a	LTP133	ltpFR	12	n/a	n/a	n/a	n/a	n/a	n/a	n/a	12	6	1	5	n/a	n/a	n/a	n/a	n/a
846.574	n/a	PROB	423287	n/a	LTP133	ltpFR	12	n/a	n/a	n/a	n/a	n/a	n/a	n/a	19	8	7	4	n/a	n/a	n/a	n/a	n/a
847.906	n/a	PROB	423953	n/a	LTP133	ltpFR	12	n/a	n/a	n/a	n/a	n/a	n/a	n/a	13	3	4	6	n/a	n/a	n/a	n/a	n/a
849.064	n/a	PROB	424532	n/a	LTP133	ltpFR	12	n/a	n/a	n/a	n/a	n/a	n/a	n/a	11	9	1	1	n/a	n/a	n/a	n/a	n/a
852.112	n/a	STOP	426056	n/a	LTP133	ltpFR	12	n/a	n/a	n/a	n/a	n/a	n/a	n/a	n/a	n/a	n/a	n/a	n/a	n/a	n/a	n/a	n/a
853.126	n/a	WORD	426563	wordpools/wasnorm_wordpool.txt	LTP133	ltpFR	12	3	1	CONVENT	370	n/a	n/a	0	n/a	0	0	0	0.422607421875	0.5869140625	0	upper	amplitud.ttf
856.13	n/a	START	428065	n/a	LTP133	ltpFR	12	n/a	n/a	n/a	n/a	n/a	n/a	n/a	n/a	n/a	n/a	n/a	n/a	n/a	n/a	n/a	n/a
857.202	n/a	PROB	428601	n/a	LTP133	ltpFR	12	n/a	n/a	n/a	n/a	n/a	n/a	n/a	16	6	5	5	n/a	n/a	n/a	n/a	n/a
858.718	n/a	PROB	429359	n/a	LTP133	ltpFR	12	n/a	n/a	n/a	n/a	n/a	n/a	n/a	9	6	2	1	n/a	n/a	n/a	n/a	n/a
859.81	n/a	PROB	429905	n/a	LTP133	ltpFR	12	n/a	n/a	n/a	n/a	n/a	n/a	n/a	19	9	3	7	n/a	n/a	n/a	n/a	n/a
861.39	n/a	PROB	430695	n/a	LTP133	ltpFR	12	n/a	n/a	n/a	n/a	n/a	n/a	n/a	18	7	6	5	n/a	n/a	n/a	n/a	n/a
862.556	n/a	PROB	431278	n/a	LTP133	ltpFR	12	n/a	n/a	n/a	n/a	n/a	n/a	n/a	15	5	8	2	n/a	n/a	n/a	n/a	n/a
863.826	n/a	STOP	431913	n/a	LTP133	ltpFR	12	n/a	n/a	n/a	n/a	n/a	n/a	n/a	n/a	n/a	n/a	n/a	n/a	n/a	n/a	n/a	n/a
865.104	n/a	WORD	432552	wordpools/wasnorm_wordpool.txt	LTP133	ltpFR	12	3	1	COD	340	n/a	n/a	1	n/a	0	0	0	0.422607421875	0.5869140625	0	upper	amplitud.ttf
868.108	n/a	START	434054	n/a	LTP133	ltpFR	12	n/a	n/a	n/a	n/a	n/a	n/a	n/a	n/a	n/a	n/a	n/a	n/a	n/a	n/a	n/a	n/a
869.024	n/a	PROB	434512	n/a	LTP133	ltpFR	12	n/a	n/a	n/a	n/a	n/a	n/a	n/a	11	1	4	6	n/a	n/a	n/a	n/a	n/a
870.222	n/a	PROB	435111	n/a	LTP133	ltpFR	12	n/a	n/a	n/a	n/a	n/a	n/a	n/a	23	8	6	9	n/a	n/a	n/a	n/a	n/a
872.22	n/a	PROB	436110	n/a	LTP133	ltpFR	12	n/a	n/a	n/a	n/a	n/a	n/a	n/a	14	2	8	2	n/a	n/a	n/a	n/a	n/a
876.11	n/a	STOP	438055	n/a	LTP133	ltpFR	12	n/a	n/a	n/a	n/a	n/a	n/a	n/a	n/a	n/a	n/a	n/a	n/a	n/a	n/a	n/a	n/a
877.298	n/a	WORD	438649	wordpools/wasnorm_wordpool.txt	LTP133	ltpFR	12	3	1	SCROLL	1257	n/a	n/a	0	n/a	0	0	0	0.422607421875	0.5869140625	0	upper	amplitud.ttf
880.302	n/a	START	440151	n/a	LTP133	ltpFR	12	n/a	n/a	n/a	n/a	n/a	n/a	n/a	n/a	n/a	n/a	n/a	n/a	n/a	n/a	n/a	n/a
881.21	n/a	PROB	440605	n/a	LTP133	ltpFR	12	n/a	n/a	n/a	n/a	n/a	n/a	n/a	10	1	4	5	n/a	n/a	n/a	n/a	n/a
883.1	n/a	PROB	441550	n/a	LTP133	ltpFR	12	n/a	n/a	n/a	n/a	n/a	n/a	n/a	14	2	6	6	n/a	n/a	n/a	n/a	n/a
885.354	n/a	PROB	442677	n/a	LTP133	ltpFR	12	n/a	n/a	n/a	n/a	n/a	n/a	n/a	19	8	7	4	n/a	n/a	n/a	n/a	n/a
886.528	n/a	PROB	443264	n/a	LTP133	ltpFR	12	n/a	n/a	n/a	n/a	n/a	n/a	n/a	21	9	9	3	n/a	n/a	n/a	n/a	n/a
887.62	n/a	STOP	443810	n/a	LTP133	ltpFR	12	n/a	n/a	n/a	n/a	n/a	n/a	n/a	n/a	n/a	n/a	n/a	n/a	n/a	n/a	n/a	n/a
889.118	n/a	WORD	444559	wordpools/wasnorm_wordpool.txt	LTP133	ltpFR	12	3	1	TOMB	1477	n/a	n/a	0	n/a	0	0	0	0.422607421875	0.5869140625	0	upper	amplitud.ttf
892.124	n/a	START	446062	n/a	LTP133	ltpFR	12	n/a	n/a	n/a	n/a	n/a	n/a	n/a	n/a	n/a	n/a	n/a	n/a	n/a	n/a	n/a	n/a
893.146	n/a	PROB	446573	n/a	LTP133	ltpFR	12	n/a	n/a	n/a	n/a	n/a	n/a	n/a	15	5	9	1	n/a	n/a	n/a	n/a	n/a
894.528	n/a	PROB	447264	n/a	LTP133	ltpFR	12	n/a	n/a	n/a	n/a	n/a	n/a	n/a	12	4	4	4	n/a	n/a	n/a	n/a	n/a
895.694	n/a	PROB	447847	n/a	LTP133	ltpFR	12	n/a	n/a	n/a	n/a	n/a	n/a	n/a	13	5	7	1	n/a	n/a	n/a	n/a	n/a
896.892	n/a	PROB	448446	n/a	LTP133	ltpFR	12	n/a	n/a	n/a	n/a	n/a	n/a	n/a	169	2	9	8	n/a	n/a	n/a	n/a	n/a
898.256	n/a	PROB	449128	n/a	LTP133	ltpFR	12	n/a	n/a	n/a	n/a	n/a	n/a	n/a	7	2	4	1	n/a	n/a	n/a	n/a	n/a
899.964	n/a	STOP	449982	n/a	LTP133	ltpFR	12	n/a	n/a	n/a	n/a	n/a	n/a	n/a	n/a	n/a	n/a	n/a	n/a	n/a	n/a	n/a	n/a
901.328	n/a	WORD	450664	wordpools/wasnorm_wordpool.txt	LTP133	ltpFR	12	3	1	JELLY	755	n/a	n/a	0	n/a	0	0	0	0.422607421875	0.5869140625	0	upper	amplitud.ttf
904.334	n/a	START	452167	n/a	LTP133	ltpFR	12	n/a	n/a	n/a	n/a	n/a	n/a	n/a	n/a	n/a	n/a	n/a	n/a	n/a	n/a	n/a	n/a
905.514	n/a	PROB	452757	n/a	LTP133	ltpFR	12	n/a	n/a	n/a	n/a	n/a	n/a	n/a	20	7	8	5	n/a	n/a	n/a	n/a	n/a
907.396	n/a	PROB	453698	n/a	LTP133	ltpFR	12	n/a	n/a	n/a	n/a	n/a	n/a	n/a	20	9	6	5	n/a	n/a	n/a	n/a	n/a
909.386	n/a	PROB	454693	n/a	LTP133	ltpFR	12	n/a	n/a	n/a	n/a	n/a	n/a	n/a	15	5	4	6	n/a	n/a	n/a	n/a	n/a
910.518	n/a	PROB	455259	n/a	LTP133	ltpFR	12	n/a	n/a	n/a	n/a	n/a	n/a	n/a	20	9	5	6	n/a	n/a	n/a	n/a	n/a
911.9	n/a	STOP	455950	n/a	LTP133	ltpFR	12	n/a	n/a	n/a	n/a	n/a	n/a	n/a	n/a	n/a	n/a	n/a	n/a	n/a	n/a	n/a	n/a
913.272	n/a	WORD	456636	wordpools/wasnorm_wordpool.txt	LTP133	ltpFR	12	3	1	WRITER	1627	n/a	n/a	1	n/a	0	0	0	0.422607421875	0.5869140625	0	upper	amplitud.ttf
916.278	n/a	START	458139	n/a	LTP133	ltpFR	12	n/a	n/a	n/a	n/a	n/a	n/a	n/a	n/a	n/a	n/a	n/a	n/a	n/a	n/a	n/a	n/a
917.168	n/a	PROB	458584	n/a	LTP133	ltpFR	12	n/a	n/a	n/a	n/a	n/a	n/a	n/a	12	7	2	3	n/a	n/a	n/a	n/a	n/a
918.742	n/a	PROB	459371	n/a	LTP133	ltpFR	12	n/a	n/a	n/a	n/a	n/a	n/a	n/a	16	3	4	9	n/a	n/a	n/a	n/a	n/a
920.582	n/a	PROB	460291	n/a	LTP133	ltpFR	12	n/a	n/a	n/a	n/a	n/a	n/a	n/a	17	2	7	8	n/a	n/a	n/a	n/a	n/a
922.038	n/a	PROB	461019	n/a	LTP133	ltpFR	12	n/a	n/a	n/a	n/a	n/a	n/a	n/a	12	1	3	8	n/a	n/a	n/a	n/a	n/a
923.25	n/a	STOP	461625	n/a	LTP133	ltpFR	12	n/a	n/a	n/a	n/a	n/a	n/a	n/a	n/a	n/a	n/a	n/a	n/a	n/a	n/a	n/a	n/a
925.25	n/a	WORD	462625	wordpools/wasnorm_wordpool.txt	LTP133	ltpFR	12	3	1	MARGARINE	868	n/a	n/a	0	n/a	0	0	0	0.422607421875	0.5869140625	0	upper	amplitud.ttf
928.256	n/a	START	464128	n/a	LTP133	ltpFR	12	n/a	n/a	n/a	n/a	n/a	n/a	n/a	n/a	n/a	n/a	n/a	n/a	n/a	n/a	n/a	n/a
929.454	n/a	PROB	464727	n/a	LTP133	ltpFR	12	n/a	n/a	n/a	n/a	n/a	n/a	n/a	9	1	5	2	n/a	n/a	n/a	n/a	n/a
930.962	n/a	PROB	465481	n/a	LTP133	ltpFR	12	n/a	n/a	n/a	n/a	n/a	n/a	n/a	11	7	2	2	n/a	n/a	n/a	n/a	n/a
932.684	n/a	PROB	466342	n/a	LTP133	ltpFR	12	n/a	n/a	n/a	n/a	n/a	n/a	n/a	17	9	2	6	n/a	n/a	n/a	n/a	n/a
934.09	n/a	PROB	467045	n/a	LTP133	ltpFR	12	n/a	n/a	n/a	n/a	n/a	n/a	n/a	19	4	9	6	n/a	n/a	n/a	n/a	n/a
935.474	n/a	STOP	467737	n/a	LTP133	ltpFR	12	n/a	n/a	n/a	n/a	n/a	n/a	n/a	n/a	n/a	n/a	n/a	n/a	n/a	n/a	n/a	n/a
937.112	n/a	WORD	468556	wordpools/wasnorm_wordpool.txt	LTP133	ltpFR	12	3	1	MUFFIN	929	n/a	n/a	0	n/a	0	0	0	0.422607421875	0.5869140625	0	upper	amplitud.ttf
940.118	n/a	START	470059	n/a	LTP133	ltpFR	12	n/a	n/a	n/a	n/a	n/a	n/a	n/a	n/a	n/a	n/a	n/a	n/a	n/a	n/a	n/a	n/a
941.314	n/a	PROB	470657	n/a	LTP133	ltpFR	12	n/a	n/a	n/a	n/a	n/a	n/a	n/a	17	5	4	8	n/a	n/a	n/a	n/a	n/a
942.73	n/a	PROB	471365	n/a	LTP133	ltpFR	12	n/a	n/a	n/a	n/a	n/a	n/a	n/a	16	8	5	3	n/a	n/a	n/a	n/a	n/a
945.494	n/a	PROB	472747	n/a	LTP133	ltpFR	12	n/a	n/a	n/a	n/a	n/a	n/a	n/a	18	5	4	9	n/a	n/a	n/a	n/a	n/a
946.988	n/a	STOP	473494	n/a	LTP133	ltpFR	12	n/a	n/a	n/a	n/a	n/a	n/a	n/a	n/a	n/a	n/a	n/a	n/a	n/a	n/a	n/a	n/a
948.932	n/a	WORD	474466	wordpools/wasnorm_wordpool.txt	LTP133	ltpFR	12	3	1	BASSINET	97	n/a	n/a	0	n/a	0	0	0	0.422607421875	0.5869140625	0	upper	amplitud.ttf
951.938	n/a	START	475969	n/a	LTP133	ltpFR	12	n/a	n/a	n/a	n/a	n/a	n/a	n/a	n/a	n/a	n/a	n/a	n/a	n/a	n/a	n/a	n/a
952.846	n/a	PROB	476423	n/a	LTP133	ltpFR	12	n/a	n/a	n/a	n/a	n/a	n/a	n/a	17	6	2	9	n/a	n/a	n/a	n/a	n/a
954.676	n/a	PROB	477338	n/a	LTP133	ltpFR	12	n/a	n/a	n/a	n/a	n/a	n/a	n/a	19	2	8	9	n/a	n/a	n/a	n/a	n/a
955.826	n/a	PROB	477913	n/a	LTP133	ltpFR	12	n/a	n/a	n/a	n/a	n/a	n/a	n/a	17	9	4	4	n/a	n/a	n/a	n/a	n/a
957.356	n/a	PROB	478678	n/a	LTP133	ltpFR	12	n/a	n/a	n/a	n/a	n/a	n/a	n/a	21	7	7	7	n/a	n/a	n/a	n/a	n/a
958.508	n/a	STOP	479254	n/a	LTP133	ltpFR	12	n/a	n/a	n/a	n/a	n/a	n/a	n/a	n/a	n/a	n/a	n/a	n/a	n/a	n/a	n/a	n/a
960.794	n/a	WORD	480397	wordpools/wasnorm_wordpool.txt	LTP133	ltpFR	12	3	1	KID	775	n/a	n/a	1	n/a	0	0	0	0.422607421875	0.5869140625	0	upper	amplitud.ttf
963.8	n/a	START	481900	n/a	LTP133	ltpFR	12	n/a	n/a	n/a	n/a	n/a	n/a	n/a	n/a	n/a	n/a	n/a	n/a	n/a	n/a	n/a	n/a
964.74	n/a	PROB	482370	n/a	LTP133	ltpFR	12	n/a	n/a	n/a	n/a	n/a	n/a	n/a	21	4	9	8	n/a	n/a	n/a	n/a	n/a
966.428	n/a	PROB	483214	n/a	LTP133	ltpFR	12	n/a	n/a	n/a	n/a	n/a	n/a	n/a	14	5	3	6	n/a	n/a	n/a	n/a	n/a
967.878	n/a	PROB	483939	n/a	LTP133	ltpFR	12	n/a	n/a	n/a	n/a	n/a	n/a	n/a	17	7	3	7	n/a	n/a	n/a	n/a	n/a
969.326	n/a	PROB	484663	n/a	LTP133	ltpFR	12	n/a	n/a	n/a	n/a	n/a	n/a	n/a	15	1	7	7	n/a	n/a	n/a	n/a	n/a
970.724	n/a	STOP	485362	n/a	LTP133	ltpFR	12	n/a	n/a	n/a	n/a	n/a	n/a	n/a	n/a	n/a	n/a	n/a	n/a	n/a	n/a	n/a	n/a
972.614	n/a	WORD	486307	wordpools/wasnorm_wordpool.txt	LTP133	ltpFR	12	3	1	CROW	414	n/a	n/a	1	n/a	0	0	0	0.422607421875	0.5869140625	0	upper	amplitud.ttf
975.62	n/a	START	487810	n/a	LTP133	ltpFR	12	n/a	n/a	n/a	n/a	n/a	n/a	n/a	n/a	n/a	n/a	n/a	n/a	n/a	n/a	n/a	n/a
976.8	n/a	PROB	488400	n/a	LTP133	ltpFR	12	n/a	n/a	n/a	n/a	n/a	n/a	n/a	16	6	8	2	n/a	n/a	n/a	n/a	n/a
978.332	n/a	PROB	489166	n/a	LTP133	ltpFR	12	n/a	n/a	n/a	n/a	n/a	n/a	n/a	12	3	2	7	n/a	n/a	n/a	n/a	n/a
979.672	n/a	PROB	489836	n/a	LTP133	ltpFR	12	n/a	n/a	n/a	n/a	n/a	n/a	n/a	19	6	8	5	n/a	n/a	n/a	n/a	n/a
981.03	n/a	PROB	490515	n/a	LTP133	ltpFR	12	n/a	n/a	n/a	n/a	n/a	n/a	n/a	15	5	9	1	n/a	n/a	n/a	n/a	n/a
982.188	n/a	STOP	491094	n/a	LTP133	ltpFR	12	n/a	n/a	n/a	n/a	n/a	n/a	n/a	n/a	n/a	n/a	n/a	n/a	n/a	n/a	n/a	n/a
984.65	n/a	WORD	492325	wordpools/wasnorm_wordpool.txt	LTP133	ltpFR	12	3	1	MOVIE	927	n/a	n/a	0	n/a	0	0	0	0.422607421875	0.5869140625	0	upper	amplitud.ttf
987.656	n/a	START	493828	n/a	LTP133	ltpFR	12	n/a	n/a	n/a	n/a	n/a	n/a	n/a	n/a	n/a	n/a	n/a	n/a	n/a	n/a	n/a	n/a
988.528	n/a	PROB	494264	n/a	LTP133	ltpFR	12	n/a	n/a	n/a	n/a	n/a	n/a	n/a	12	9	1	2	n/a	n/a	n/a	n/a	n/a
989.752	n/a	PROB	494876	n/a	LTP133	ltpFR	12	n/a	n/a	n/a	n/a	n/a	n/a	n/a	4	2	1	1	n/a	n/a	n/a	n/a	n/a
990.976	n/a	PROB	495488	n/a	LTP133	ltpFR	12	n/a	n/a	n/a	n/a	n/a	n/a	n/a	12	2	3	7	n/a	n/a	n/a	n/a	n/a
992.59	n/a	PROB	496295	n/a	LTP133	ltpFR	12	n/a	n/a	n/a	n/a	n/a	n/a	n/a	15	6	1	8	n/a	n/a	n/a	n/a	n/a
993.872	n/a	PROB	496936	n/a	LTP133	ltpFR	12	n/a	n/a	n/a	n/a	n/a	n/a	n/a	12	4	5	3	n/a	n/a	n/a	n/a	n/a
995.092	n/a	STOP	497546	n/a	LTP133	ltpFR	12	n/a	n/a	n/a	n/a	n/a	n/a	n/a	n/a	n/a	n/a	n/a	n/a	n/a	n/a	n/a	n/a
996.72	n/a	WORD	498360	wordpools/wasnorm_wordpool.txt	LTP133	ltpFR	12	3	1	SQUID	1361	n/a	n/a	1	n/a	0	0	0	0.422607421875	0.5869140625	0	upper	amplitud.ttf
999.724	n/a	START	499862	n/a	LTP133	ltpFR	12	n/a	n/a	n/a	n/a	n/a	n/a	n/a	n/a	n/a	n/a	n/a	n/a	n/a	n/a	n/a	n/a
1000.64	n/a	PROB	500320	n/a	LTP133	ltpFR	12	n/a	n/a	n/a	n/a	n/a	n/a	n/a	13	8	4	1	n/a	n/a	n/a	n/a	n/a
1001.996	n/a	PROB	500998	n/a	LTP133	ltpFR	12	n/a	n/a	n/a	n/a	n/a	n/a	n/a	17	5	5	7	n/a	n/a	n/a	n/a	n/a
1003.128	n/a	PROB	501564	n/a	LTP133	ltpFR	12	n/a	n/a	n/a	n/a	n/a	n/a	n/a	20	6	8	6	n/a	n/a	n/a	n/a	n/a
1004.568	n/a	PROB	502284	n/a	LTP133	ltpFR	12	n/a	n/a	n/a	n/a	n/a	n/a	n/a	16	1	7	8	n/a	n/a	n/a	n/a	n/a
1005.692	n/a	PROB	502846	n/a	LTP133	ltpFR	12	n/a	n/a	n/a	n/a	n/a	n/a	n/a	17	5	6	6	n/a	n/a	n/a	n/a	n/a
1006.908	n/a	STOP	503454	n/a	LTP133	ltpFR	12	n/a	n/a	n/a	n/a	n/a	n/a	n/a	n/a	n/a	n/a	n/a	n/a	n/a	n/a	n/a	n/a
1009.488	n/a	REC_START	504744	n/a	LTP133	ltpFR	12	3	n/a	n/a	n/a	n/a	n/a	n/a	n/a	0	0	0	n/a	n/a	n/a	n/a	n/a
1011.158	n/a	REC_WORD	505579	wordpools/wasnorm_wordpool.txt	LTP133	ltpFR	12	3	1	SQUID	1361	n/a	n/a	1	n/a	0	0	0	n/a	n/a	n/a	n/a	n/a
1016.586	n/a	REC_WORD	508293	wordpools/wasnorm_wordpool.txt	LTP133	ltpFR	12	3	1	CROW	414	n/a	n/a	1	n/a	0	0	0	n/a	n/a	n/a	n/a	n/a
1018.756	n/a	REC_WORD	509378	wordpools/wasnorm_wordpool.txt	LTP133	ltpFR	12	3	1	COD	340	n/a	n/a	1	n/a	0	0	0	n/a	n/a	n/a	n/a	n/a
1025.146	n/a	REC_WORD	512573	wordpools/wasnorm_wordpool.txt	LTP133	ltpFR	12	3	1	TROPHY	1509	n/a	n/a	0	n/a	0	0	0	n/a	n/a	n/a	n/a	n/a
1031.328	n/a	REC_WORD	515664	wordpools/wasnorm_wordpool.txt	LTP133	ltpFR	12	3	1	WINNER	1615	n/a	n/a	1	n/a	0	0	0	n/a	n/a	n/a	n/a	n/a
1050.12	n/a	REC_WORD	525060	wordpools/wasnorm_wordpool.txt	LTP133	ltpFR	12	3	1	FUNERAL	613	n/a	n/a	0	n/a	0	0	0	n/a	n/a	n/a	n/a	n/a
1051.832	n/a	REC_WORD	525916	wordpools/wasnorm_wordpool.txt	LTP133	ltpFR	12	3	1	CONVENT	370	n/a	n/a	0	n/a	0	0	0	n/a	n/a	n/a	n/a	n/a
1053.692	n/a	REC_WORD	526846	wordpools/wasnorm_wordpool.txt	LTP133	ltpFR	12	3	1	BASSINET	97	n/a	n/a	0	n/a	0	0	0	n/a	n/a	n/a	n/a	n/a
1068.49	n/a	REC_WORD	534245	wordpools/wasnorm_wordpool.txt	LTP133	ltpFR	12	3	1	KID	775	n/a	n/a	1	n/a	0	0	0	n/a	n/a	n/a	n/a	n/a
1100.108	n/a	WORD	550054	wordpools/wasnorm_wordpool.txt	LTP133	ltpFR	12	4	0	MONEY	908	n/a	n/a	0	n/a	0	0	0	0.57763671875	0.412841796875	1	lower	zerothre.ttf
1104.004	n/a	WORD	552002	wordpools/wasnorm_wordpool.txt	LTP133	ltpFR	12	4	0	VALLEY	1545	n/a	n/a	1	n/a	0	0	0	0.57763671875	0.412841796875	1	lower	zerothre.ttf
1108.108	n/a	WORD	554054	wordpools/wasnorm_wordpool.txt	LTP133	ltpFR	12	4	0	SUMMIT	1405	n/a	n/a	1	n/a	0	0	0	0.57763671875	0.412841796875	1	lower	zerothre.ttf
1112.136	n/a	WORD	556068	wordpools/wasnorm_wordpool.txt	LTP133	ltpFR	12	4	0	TEAPOT	1442	n/a	n/a	0	n/a	0	0	0	0.57763671875	0.412841796875	1	lower	zerothre.ttf
1116.332	n/a	WORD	558166	wordpools/wasnorm_wordpool.txt	LTP133	ltpFR	12	4	0	CLOSET	326	n/a	n/a	1	n/a	0	0	0	0.57763671875	0.412841796875	1	lower	zerothre.ttf
1120.16	n/a	WORD	560080	wordpools/wasnorm_wordpool.txt	LTP133	ltpFR	12	4	0	KNOB	787	n/a	n/a	0	n/a	0	0	0	0.57763671875	0.412841796875	1	lower	zerothre.ttf
1124.048	n/a	WORD	562024	wordpools/wasnorm_wordpool.txt	LTP133	ltpFR	12	4	0	PAINTING	1005	n/a	n/a	0	n/a	0	0	0	0.57763671875	0.412841796875	1	lower	zerothre.ttf
1127.952	n/a	WORD	563976	wordpools/wasnorm_wordpool.txt	LTP133	ltpFR	12	4	0	CAMERA	224	n/a	n/a	0	n/a	0	0	0	0.57763671875	0.412841796875	1	lower	zerothre.ttf
1132.022	n/a	WORD	566011	wordpools/wasnorm_wordpool.txt	LTP133	ltpFR	12	4	0	SAUCER	1237	n/a	n/a	0	n/a	0	0	0	0.57763671875	0.412841796875	1	lower	zerothre.ttf
1136.102	n/a	WORD	568051	wordpools/wasnorm_wordpool.txt	LTP133	ltpFR	12	4	0	SHOP	1290	n/a	n/a	1	n/a	0	0	0	0.57763671875	0.412841796875	1	lower	zerothre.ttf
1140.014	n/a	WORD	570007	wordpools/wasnorm_wordpool.txt	LTP133	ltpFR	12	4	0	GLASS	639	n/a	n/a	0	n/a	0	0	0	0.57763671875	0.412841796875	1	lower	zerothre.ttf
1143.9	n/a	WORD	571950	wordpools/wasnorm_wordpool.txt	LTP133	ltpFR	12	4	0	LAWYER	806	n/a	n/a	1	n/a	0	0	0	0.57763671875	0.412841796875	1	lower	zerothre.ttf
1148.08	n/a	WORD	574040	wordpools/wasnorm_wordpool.txt	LTP133	ltpFR	12	4	0	PRISONER	1128	n/a	n/a	1	n/a	0	0	0	0.57763671875	0.412841796875	1	lower	zerothre.ttf
1151.9	n/a	WORD	575950	wordpools/wasnorm_wordpool.txt	LTP133	ltpFR	12	4	0	CAPTIVE	240	n/a	n/a	1	n/a	0	0	0	0.57763671875	0.412841796875	1	lower	zerothre.ttf
1156.096	n/a	WORD	578048	wordpools/wasnorm_wordpool.txt	LTP133	ltpFR	12	4	0	MARKET	871	n/a	n/a	1	n/a	0	0	0	0.57763671875	0.412841796875	1	lower	zerothre.ttf
1160.09	n/a	WORD	580045	wordpools/wasnorm_wordpool.txt	LTP133	ltpFR	12	4	0	CANYON	235	n/a	n/a	1	n/a	0	0	0	0.57763671875	0.412841796875	1	lower	zerothre.ttf
1163.096	n/a	START	581548	n/a	LTP133	ltpFR	12	n/a	n/a	n/a	n/a	n/a	n/a	n/a	n/a	n/a	n/a	n/a	n/a	n/a	n/a	n/a	n/a
1164.07	n/a	PROB	582035	n/a	LTP133	ltpFR	12	n/a	n/a	n/a	n/a	n/a	n/a	n/a	13	4	8	1	n/a	n/a	n/a	n/a	n/a
1165.366	n/a	PROB	582683	n/a	LTP133	ltpFR	12	n/a	n/a	n/a	n/a	n/a	n/a	n/a	23	9	5	9	n/a	n/a	n/a	n/a	n/a
1166.866	n/a	PROB	583433	n/a	LTP133	ltpFR	12	n/a	n/a	n/a	n/a	n/a	n/a	n/a	16	7	2	7	n/a	n/a	n/a	n/a	n/a
1168.146	n/a	PROB	584073	n/a	LTP133	ltpFR	12	n/a	n/a	n/a	n/a	n/a	n/a	n/a	11	1	2	8	n/a	n/a	n/a	n/a	n/a
1169.288	n/a	PROB	584644	n/a	LTP133	ltpFR	12	n/a	n/a	n/a	n/a	n/a	n/a	n/a	11	3	1	7	n/a	n/a	n/a	n/a	n/a
1170.62	n/a	PROB	585310	n/a	LTP133	ltpFR	12	n/a	n/a	n/a	n/a	n/a	n/a	n/a	11	1	1	9	n/a	n/a	n/a	n/a	n/a
1171.81	n/a	PROB	585905	n/a	LTP133	ltpFR	12	n/a	n/a	n/a	n/a	n/a	n/a	n/a	11	4	3	4	n/a	n/a	n/a	n/a	n/a
1173.058	n/a	PROB	586529	n/a	LTP133	ltpFR	12	n/a	n/a	n/a	n/a	n/a	n/a	n/a	18	6	4	8	n/a	n/a	n/a	n/a	n/a
1174.666	n/a	PROB	587333	n/a	LTP133	ltpFR	12	n/a	n/a	n/a	n/a	n/a	n/a	n/a	13	2	2	9	n/a	n/a	n/a	n/a	n/a
1175.938	n/a	PROB	587969	n/a	LTP133	ltpFR	12	n/a	n/a	n/a	n/a	n/a	n/a	n/a	14	6	2	6	n/a	n/a	n/a	n/a	n/a
1177.278	n/a	PROB	588639	n/a	LTP133	ltpFR	12	n/a	n/a	n/a	n/a	n/a	n/a	n/a	7	1	3	3	n/a	n/a	n/a	n/a	n/a
1178.758	n/a	STOP	589379	n/a	LTP133	ltpFR	12	n/a	n/a	n/a	n/a	n/a	n/a	n/a	n/a	n/a	n/a	n/a	n/a	n/a	n/a	n/a	n/a
1180.934	n/a	REC_START	590467	n/a	LTP133	ltpFR	12	4	n/a	n/a	n/a	n/a	n/a	n/a	n/a	0	0	0	n/a	n/a	n/a	n/a	n/a
1183.322	n/a	REC_WORD	591661	wordpools/wasnorm_wordpool.txt	LTP133	ltpFR	12	4	0	CANYON	235	n/a	n/a	1	n/a	0	0	0	n/a	n/a	n/a	n/a	n/a
1184.66	n/a	REC_WORD	592330	wordpools/wasnorm_wordpool.txt	LTP133	ltpFR	12	4	0	SHOP	1290	n/a	n/a	1	n/a	0	0	0	n/a	n/a	n/a	n/a	n/a
1186.288	n/a	REC_WORD	593144	wordpools/wasnorm_wordpool.txt	LTP133	ltpFR	12	4	0	MARKET	871	n/a	n/a	1	n/a	0	0	0	n/a	n/a	n/a	n/a	n/a
1187.898	n/a	REC_WORD	593949	wordpools/wasnorm_wordpool.txt	LTP133	ltpFR	12	4	0	SAUCER	1237	n/a	n/a	0	n/a	0	0	0	n/a	n/a	n/a	n/a	n/a
1189.52	n/a	REC_WORD	594760	wordpools/wasnorm_wordpool.txt	LTP133	ltpFR	12	4	0	GLASS	639	n/a	n/a	0	n/a	0	0	0	n/a	n/a	n/a	n/a	n/a
1191.062	n/a	REC_WORD	595531	wordpools/wasnorm_wordpool.txt	LTP133	ltpFR	12	4	0	PAINTING	1005	n/a	n/a	0	n/a	0	0	0	n/a	n/a	n/a	n/a	n/a
1192.888	n/a	REC_WORD	596444	wordpools/wasnorm_wordpool.txt	LTP133	ltpFR	12	4	0	CAMERA	224	n/a	n/a	0	n/a	0	0	0	n/a	n/a	n/a	n/a	n/a
1205.888	n/a	REC_WORD	602944	wordpools/wasnorm_wordpool.txt	LTP133	ltpFR	12	4	0	PRISONER	1128	n/a	n/a	1	n/a	0	0	0	n/a	n/a	n/a	n/a	n/a
1207.534	n/a	REC_WORD	603767	wordpools/wasnorm_wordpool.txt	LTP133	ltpFR	12	4	0	CAPTIVE	240	n/a	n/a	1	n/a	0	0	0	n/a	n/a	n/a	n/a	n/a
1252.058	n/a	REC_WORD	626029	wordpools/wasnorm_wordpool.txt	LTP133	ltpFR	12	4	0	CLOSET	326	n/a	n/a	1	n/a	0	0	0	n/a	n/a	n/a	n/a	n/a
1375.02	n/a	WORD	687510	wordpools/wasnorm_wordpool.txt	LTP133	ltpFR	12	5	0	MULE	931	n/a	n/a	1	n/a	0	0	0	0.57763671875	0.412841796875	1	lower	zerothre.ttf
1379.132	n/a	WORD	689566	wordpools/wasnorm_wordpool.txt	LTP133	ltpFR	12	5	0	PONY	1102	n/a	n/a	1	n/a	0	0	0	0.57763671875	0.412841796875	1	lower	zerothre.ttf
1382.994	n/a	WORD	691497	wordpools/wasnorm_wordpool.txt	LTP133	ltpFR	12	5	1	SEAL	1262	n/a	n/a	1	n/a	0	0	0	0.422607421875	0.5869140625	0	upper	amplitud.ttf
1386.972	n/a	WORD	693486	wordpools/wasnorm_wordpool.txt	LTP133	ltpFR	12	5	1	COBBLER	335	n/a	n/a	1	n/a	0	0	0	0.422607421875	0.5869140625	0	upper	amplitud.ttf
1391.026	n/a	WORD	695513	wordpools/wasnorm_wordpool.txt	LTP133	ltpFR	12	5	1	PADDING	999	n/a	n/a	0	n/a	0	0	0	0.422607421875	0.5869140625	0	upper	amplitud.ttf
1395.22	n/a	WORD	697610	wordpools/wasnorm_wordpool.txt	LTP133	ltpFR	12	5	1	FLORIDA	582	n/a	n/a	0	n/a	0	0	0	0.422607421875	0.5869140625	0	upper	amplitud.ttf
1399.398	n/a	WORD	699699	wordpools/wasnorm_wordpool.txt	LTP133	ltpFR	12	5	1	CHOCOLATE	306	n/a	n/a	0	n/a	0	0	0	0.422607421875	0.5869140625	0	upper	amplitud.ttf
1403.302	n/a	WORD	701651	wordpools/wasnorm_wordpool.txt	LTP133	ltpFR	12	5	0	QUILL	1150	n/a	n/a	0	n/a	0	0	0	0.57763671875	0.412841796875	1	lower	zerothre.ttf
1407.282	n/a	WORD	703641	wordpools/wasnorm_wordpool.txt	LTP133	ltpFR	12	5	0	NUT	965	n/a	n/a	0	n/a	0	0	0	0.57763671875	0.412841796875	1	lower	zerothre.ttf
1411.294	n/a	WORD	705647	wordpools/wasnorm_wordpool.txt	LTP133	ltpFR	12	5	1	BOULDER	155	n/a	n/a	0	n/a	0	0	0	0.422607421875	0.5869140625	0	upper	amplitud.ttf
1415.172	n/a	WORD	707586	wordpools/wasnorm_wordpool.txt	LTP133	ltpFR	12	5	1	LIME	823	n/a	n/a	0	n/a	0	0	0	0.422607421875	0.5869140625	0	upper	amplitud.ttf
1419.368	n/a	WORD	709684	wordpools/wasnorm_wordpool.txt	LTP133	ltpFR	12	5	1	COUNTY	389	n/a	n/a	0	n/a	0	0	0	0.422607421875	0.5869140625	0	upper	amplitud.ttf
1423.388	n/a	WORD	711694	wordpools/wasnorm_wordpool.txt	LTP133	ltpFR	12	5	0	ANGEL	22	n/a	n/a	1	n/a	0	0	0	0.57763671875	0.412841796875	1	lower	zerothre.ttf
1427.434	n/a	WORD	713717	wordpools/wasnorm_wordpool.txt	LTP133	ltpFR	12	5	0	PITCHFORK	1078	n/a	n/a	1	n/a	0	0	0	0.57763671875	0.412841796875	1	lower	zerothre.ttf
1431.462	n/a	WORD	715731	wordpools/wasnorm_wordpool.txt	LTP133	ltpFR	12	5	0	STOOL	1386	n/a	n/a	0	n/a	0	0	0	0.57763671875	0.412841796875	1	lower	zerothre.ttf
1435.6	n/a	WORD	717800	wordpools/wasnorm_wordpool.txt	LTP133	ltpFR	12	5	0	MOSS	918	n/a	n/a	0	n/a	0	0	0	0.57763671875	0.412841796875	1	lower	zerothre.ttf
1441.452	n/a	REC_START	720726	n/a	LTP133	ltpFR	12	5	n/a	n/a	n/a	n/a	n/a	n/a	n/a	0	0	0	n/a	n/a	n/a	n/a	n/a
1443.456	n/a	REC_WORD	721728	wordpools/wasnorm_wordpool.txt	LTP133	ltpFR	12	5	0	MOSS	918	n/a	n/a	0	n/a	0	0	0	n/a	n/a	n/a	n/a	n/a
1444.988	n/a	REC_WORD	722494	wordpools/wasnorm_wordpool.txt	LTP133	ltpFR	12	5	0	STOOL	1386	n/a	n/a	0	n/a	0	0	0	n/a	n/a	n/a	n/a	n/a
1445.738	n/a	REC_WORD_VV	722869	wordpools/wasnorm_wordpool.txt	LTP133	ltpFR	12	5	n/a	<>	-1	n/a	n/a	n/a	n/a	0	0	0	n/a	n/a	n/a	n/a	n/a
1446.5	n/a	REC_WORD_VV	723250	wordpools/wasnorm_wordpool.txt	LTP133	ltpFR	12	5	n/a	<>	-1	n/a	n/a	n/a	n/a	0	0	0	n/a	n/a	n/a	n/a	n/a
1448.75	n/a	REC_WORD_VV	724375	wordpools/wasnorm_wordpool.txt	LTP133	ltpFR	12	5	n/a	<>	-1	n/a	n/a	n/a	n/a	0	0	0	n/a	n/a	n/a	n/a	n/a
1451.338	n/a	REC_WORD	725669	wordpools/wasnorm_wordpool.txt	LTP133	ltpFR	12	5	0	PITCHFORK	1078	n/a	n/a	1	n/a	0	0	0	n/a	n/a	n/a	n/a	n/a
1458.886	n/a	REC_WORD	729443	wordpools/wasnorm_wordpool.txt	LTP133	ltpFR	12	5	1	SEAL	1262	n/a	n/a	1	n/a	0	0	0	n/a	n/a	n/a	n/a	n/a
1460.428	n/a	REC_WORD	730214	wordpools/wasnorm_wordpool.txt	LTP133	ltpFR	12	5	1	COBBLER	335	n/a	n/a	1	n/a	0	0	0	n/a	n/a	n/a	n/a	n/a
1462.054	n/a	REC_WORD	731027	wordpools/wasnorm_wordpool.txt	LTP133	ltpFR	12	5	1	PADDING	999	n/a	n/a	0	n/a	0	0	0	n/a	n/a	n/a	n/a	n/a
1471.348	n/a	REC_WORD	735674	wordpools/wasnorm_wordpool.txt	LTP133	ltpFR	12	5	0	NUT	965	n/a	n/a	0	n/a	0	0	0	n/a	n/a	n/a	n/a	n/a
1474.222	n/a	REC_WORD	737111	wordpools/wasnorm_wordpool.txt	LTP133	ltpFR	12	5	1	CHOCOLATE	306	n/a	n/a	0	n/a	0	0	0	n/a	n/a	n/a	n/a	n/a
1475.29	n/a	REC_WORD	737645	wordpools/wasnorm_wordpool.txt	LTP133	ltpFR	12	5	1	FLORIDA	582	n/a	n/a	0	n/a	0	0	0	n/a	n/a	n/a	n/a	n/a
1503.65	n/a	REC_WORD	751825	wordpools/wasnorm_wordpool.txt	LTP133	ltpFR	12	5	1	LIME	823	n/a	n/a	0	n/a	0	0	0	n/a	n/a	n/a	n/a	n/a
1601.55	n/a	WORD	800775	wordpools/wasnorm_wordpool.txt	LTP133	ltpFR	12	6	0	SARDINE	1235	n/a	n/a	0	n/a	0	0	0	0.57763671875	0.412841796875	1	lower	zerothre.ttf
1605.47	n/a	WORD	802735	wordpools/wasnorm_wordpool.txt	LTP133	ltpFR	12	6	0	MAMMAL	861	n/a	n/a	1	n/a	0	0	0	0.57763671875	0.412841796875	1	lower	zerothre.ttf
1609.466	n/a	WORD	804733	wordpools/wasnorm_wordpool.txt	LTP133	ltpFR	12	6	0	CARDINAL	244	n/a	n/a	0	n/a	0	0	0	0.57763671875	0.412841796875	1	lower	zerothre.ttf
1613.42	n/a	WORD	806710	wordpools/wasnorm_wordpool.txt	LTP133	ltpFR	12	6	0	MERMAID	887	n/a	n/a	1	n/a	0	0	0	0.57763671875	0.412841796875	1	lower	zerothre.ttf
1617.624	n/a	WORD	808812	wordpools/wasnorm_wordpool.txt	LTP133	ltpFR	12	6	0	VENUS	1557	n/a	n/a	1	n/a	0	0	0	0.57763671875	0.412841796875	1	lower	zerothre.ttf
1621.67	n/a	WORD	810835	wordpools/wasnorm_wordpool.txt	LTP133	ltpFR	12	6	1	SALMON	1227	n/a	n/a	1	n/a	0	0	0	0.422607421875	0.5869140625	0	upper	amplitud.ttf
1625.582	n/a	WORD	812791	wordpools/wasnorm_wordpool.txt	LTP133	ltpFR	12	6	1	TROUT	1511	n/a	n/a	1	n/a	0	0	0	0.422607421875	0.5869140625	0	upper	amplitud.ttf
1629.61	n/a	WORD	814805	wordpools/wasnorm_wordpool.txt	LTP133	ltpFR	12	6	1	THIGH	1457	n/a	n/a	0	n/a	0	0	0	0.422607421875	0.5869140625	0	upper	amplitud.ttf
1633.598	n/a	WORD	816799	wordpools/wasnorm_wordpool.txt	LTP133	ltpFR	12	6	1	MEAT	883	n/a	n/a	0	n/a	0	0	0	0.422607421875	0.5869140625	0	upper	amplitud.ttf
1637.576	n/a	WORD	818788	wordpools/wasnorm_wordpool.txt	LTP133	ltpFR	12	6	0	DESIGNER	451	n/a	n/a	1	n/a	0	0	0	0.57763671875	0.412841796875	1	lower	zerothre.ttf
1641.764	n/a	WORD	820882	wordpools/wasnorm_wordpool.txt	LTP133	ltpFR	12	6	0	RACK	1154	n/a	n/a	1	n/a	0	0	0	0.57763671875	0.412841796875	1	lower	zerothre.ttf
1645.668	n/a	WORD	822834	wordpools/wasnorm_wordpool.txt	LTP133	ltpFR	12	6	0	BUS	201	n/a	n/a	1	n/a	0	0	0	0.57763671875	0.412841796875	1	lower	zerothre.ttf
1649.562	n/a	WORD	824781	wordpools/wasnorm_wordpool.txt	LTP133	ltpFR	12	6	1	FORT	595	n/a	n/a	0	n/a	0	0	0	0.422607421875	0.5869140625	0	upper	amplitud.ttf
1653.768	n/a	WORD	826884	wordpools/wasnorm_wordpool.txt	LTP133	ltpFR	12	6	1	WHALE	1601	n/a	n/a	1	n/a	0	0	0	0.422607421875	0.5869140625	0	upper	amplitud.ttf
1657.73	n/a	WORD	828865	wordpools/wasnorm_wordpool.txt	LTP133	ltpFR	12	6	1	RUST	1219	n/a	n/a	0	n/a	0	0	0	0.422607421875	0.5869140625	0	upper	amplitud.ttf
1661.908	n/a	WORD	830954	wordpools/wasnorm_wordpool.txt	LTP133	ltpFR	12	6	1	FRIAR	605	n/a	n/a	1	n/a	0	0	0	0.422607421875	0.5869140625	0	upper	amplitud.ttf
1664.912	n/a	START	832456	n/a	LTP133	ltpFR	12	n/a	n/a	n/a	n/a	n/a	n/a	n/a	n/a	n/a	n/a	n/a	n/a	n/a	n/a	n/a	n/a
1666.044	n/a	PROB	833022	n/a	LTP133	ltpFR	12	n/a	n/a	n/a	n/a	n/a	n/a	n/a	9	1	1	7	n/a	n/a	n/a	n/a	n/a
1667.476	n/a	PROB	833738	n/a	LTP133	ltpFR	12	n/a	n/a	n/a	n/a	n/a	n/a	n/a	11	1	5	5	n/a	n/a	n/a	n/a	n/a
1668.766	n/a	PROB	834383	n/a	LTP133	ltpFR	12	n/a	n/a	n/a	n/a	n/a	n/a	n/a	20	4	7	9	n/a	n/a	n/a	n/a	n/a
1670.53	n/a	PROB	835265	n/a	LTP133	ltpFR	12	n/a	n/a	n/a	n/a	n/a	n/a	n/a	20	4	8	8	n/a	n/a	n/a	n/a	n/a
1671.902	n/a	STOP	835951	n/a	LTP133	ltpFR	12	n/a	n/a	n/a	n/a	n/a	n/a	n/a	n/a	n/a	n/a	n/a	n/a	n/a	n/a	n/a	n/a
1674.652	n/a	REC_START	837326	n/a	LTP133	ltpFR	12	6	n/a	n/a	n/a	n/a	n/a	n/a	n/a	0	0	0	n/a	n/a	n/a	n/a	n/a
1676.064	n/a	REC_WORD	838032	wordpools/wasnorm_wordpool.txt	LTP133	ltpFR	12	6	1	FORT	595	n/a	n/a	0	n/a	0	0	0	n/a	n/a	n/a	n/a	n/a
1677.4	n/a	REC_WORD	838700	wordpools/wasnorm_wordpool.txt	LTP133	ltpFR	12	6	1	FRIAR	605	n/a	n/a	1	n/a	0	0	0	n/a	n/a	n/a	n/a	n/a
1678.848	n/a	REC_WORD	839424	wordpools/wasnorm_wordpool.txt	LTP133	ltpFR	12	6	1	SALMON	1227	n/a	n/a	1	n/a	0	0	0	n/a	n/a	n/a	n/a	n/a
1680.454	n/a	REC_WORD	840227	wordpools/wasnorm_wordpool.txt	LTP133	ltpFR	12	6	1	TROUT	1511	n/a	n/a	1	n/a	0	0	0	n/a	n/a	n/a	n/a	n/a
1684.908	n/a	REC_WORD	842454	wordpools/wasnorm_wordpool.txt	LTP133	ltpFR	12	6	1	WHALE	1601	n/a	n/a	1	n/a	0	0	0	n/a	n/a	n/a	n/a	n/a
1686.346	n/a	REC_WORD	843173	wordpools/wasnorm_wordpool.txt	LTP133	ltpFR	12	6	1	RUST	1219	n/a	n/a	0	n/a	0	0	0	n/a	n/a	n/a	n/a	n/a
1688.9	n/a	REC_WORD	844450	wordpools/wasnorm_wordpool.txt	LTP133	ltpFR	12	6	0	RACK	1154	n/a	n/a	1	n/a	0	0	0	n/a	n/a	n/a	n/a	n/a
1690.306	n/a	REC_WORD	845153	wordpools/wasnorm_wordpool.txt	LTP133	ltpFR	12	6	0	BUS	201	n/a	n/a	1	n/a	0	0	0	n/a	n/a	n/a	n/a	n/a
1696.488	n/a	REC_WORD	848244	wordpools/wasnorm_wordpool.txt	LTP133	ltpFR	12	6	1	THIGH	1457	n/a	n/a	0	n/a	0	0	0	n/a	n/a	n/a	n/a	n/a
1897.92	n/a	START	948960	n/a	LTP133	ltpFR	12	n/a	n/a	n/a	n/a	n/a	n/a	n/a	n/a	n/a	n/a	n/a	n/a	n/a	n/a	n/a	n/a
1899.426	n/a	PROB	949713	n/a	LTP133	ltpFR	12	n/a	n/a	n/a	n/a	n/a	n/a	n/a	22	9	4	9	n/a	n/a	n/a	n/a	n/a
1901.732	n/a	PROB	950866	n/a	LTP133	ltpFR	12	n/a	n/a	n/a	n/a	n/a	n/a	n/a	18	4	7	7	n/a	n/a	n/a	n/a	n/a
1903.156	n/a	PROB	951578	n/a	LTP133	ltpFR	12	n/a	n/a	n/a	n/a	n/a	n/a	n/a	8	2	5	1	n/a	n/a	n/a	n/a	n/a
1904.296	n/a	PROB	952148	n/a	LTP133	ltpFR	12	n/a	n/a	n/a	n/a	n/a	n/a	n/a	18	1	8	9	n/a	n/a	n/a	n/a	n/a
1905.494	n/a	PROB	952747	n/a	LTP133	ltpFR	12	n/a	n/a	n/a	n/a	n/a	n/a	n/a	19	8	3	8	n/a	n/a	n/a	n/a	n/a
1907.036	n/a	PROB	953518	n/a	LTP133	ltpFR	12	n/a	n/a	n/a	n/a	n/a	n/a	n/a	21	7	6	8	n/a	n/a	n/a	n/a	n/a
1908.316	n/a	PROB	954158	n/a	LTP133	ltpFR	12	n/a	n/a	n/a	n/a	n/a	n/a	n/a	20	5	8	7	n/a	n/a	n/a	n/a	n/a
1910.014	n/a	PROB	955007	n/a	LTP133	ltpFR	12	n/a	n/a	n/a	n/a	n/a	n/a	n/a	13	9	3	1	n/a	n/a	n/a	n/a	n/a
1911.312	n/a	PROB	955656	n/a	LTP133	ltpFR	12	n/a	n/a	n/a	n/a	n/a	n/a	n/a	15	4	9	2	n/a	n/a	n/a	n/a	n/a
1912.536	n/a	STOP	956268	n/a	LTP133	ltpFR	12	n/a	n/a	n/a	n/a	n/a	n/a	n/a	n/a	n/a	n/a	n/a	n/a	n/a	n/a	n/a	n/a
1914.734	n/a	WORD	957367	wordpools/wasnorm_wordpool.txt	LTP133	ltpFR	12	7	1	OFFICE	972	n/a	n/a	0	n/a	0	0	0	0.422607421875	0.5869140625	0	upper	amplitud.ttf
1917.74	n/a	START	958870	n/a	LTP133	ltpFR	12	n/a	n/a	n/a	n/a	n/a	n/a	n/a	n/a	n/a	n/a	n/a	n/a	n/a	n/a	n/a	n/a
1918.63	n/a	PROB	959315	n/a	LTP133	ltpFR	12	n/a	n/a	n/a	n/a	n/a	n/a	n/a	13	2	5	6	n/a	n/a	n/a	n/a	n/a
1920.054	n/a	PROB	960027	n/a	LTP133	ltpFR	12	n/a	n/a	n/a	n/a	n/a	n/a	n/a	18	9	6	3	n/a	n/a	n/a	n/a	n/a
1921.776	n/a	PROB	960888	n/a	LTP133	ltpFR	12	n/a	n/a	n/a	n/a	n/a	n/a	n/a	19	4	7	8	n/a	n/a	n/a	n/a	n/a
1922.95	n/a	PROB	961475	n/a	LTP133	ltpFR	12	n/a	n/a	n/a	n/a	n/a	n/a	n/a	11	5	5	1	n/a	n/a	n/a	n/a	n/a
1924.132	n/a	PROB	962066	n/a	LTP133	ltpFR	12	n/a	n/a	n/a	n/a	n/a	n/a	n/a	12	4	2	6	n/a	n/a	n/a	n/a	n/a
1925.764	n/a	PROB	962882	n/a	LTP133	ltpFR	12	n/a	n/a	n/a	n/a	n/a	n/a	n/a	7	2	1	4	n/a	n/a	n/a	n/a	n/a
1927.136	n/a	PROB	963568	n/a	LTP133	ltpFR	12	n/a	n/a	n/a	n/a	n/a	n/a	n/a	18	9	6	3	n/a	n/a	n/a	n/a	n/a
1928.71	n/a	PROB	964355	n/a	LTP133	ltpFR	12	n/a	n/a	n/a	n/a	n/a	n/a	n/a	18	7	7	4	n/a	n/a	n/a	n/a	n/a
1930.008	n/a	PROB	965004	n/a	LTP133	ltpFR	12	n/a	n/a	n/a	n/a	n/a	n/a	n/a	11	3	4	4	n/a	n/a	n/a	n/a	n/a
1931.28	n/a	PROB	965640	n/a	LTP133	ltpFR	12	n/a	n/a	n/a	n/a	n/a	n/a	n/a	16	9	3	4	n/a	n/a	n/a	n/a	n/a
1932.866	n/a	STOP	966433	n/a	LTP133	ltpFR	12	n/a	n/a	n/a	n/a	n/a	n/a	n/a	n/a	n/a	n/a	n/a	n/a	n/a	n/a	n/a	n/a
1934.844	n/a	WORD	967422	wordpools/wasnorm_wordpool.txt	LTP133	ltpFR	12	7	1	NIECE	952	n/a	n/a	1	n/a	0	0	0	0.422607421875	0.5869140625	0	upper	amplitud.ttf
1937.85	n/a	START	968925	n/a	LTP133	ltpFR	12	n/a	n/a	n/a	n/a	n/a	n/a	n/a	n/a	n/a	n/a	n/a	n/a	n/a	n/a	n/a	n/a
1938.948	n/a	PROB	969474	n/a	LTP133	ltpFR	12	n/a	n/a	n/a	n/a	n/a	n/a	n/a	12	4	2	6	n/a	n/a	n/a	n/a	n/a
1940.412	n/a	PROB	970206	n/a	LTP133	ltpFR	12	n/a	n/a	n/a	n/a	n/a	n/a	n/a	20	7	7	6	n/a	n/a	n/a	n/a	n/a
1941.944	n/a	PROB	970972	n/a	LTP133	ltpFR	12	n/a	n/a	n/a	n/a	n/a	n/a	n/a	19	6	9	4	n/a	n/a	n/a	n/a	n/a
1943.384	n/a	PROB	971692	n/a	LTP133	ltpFR	12	n/a	n/a	n/a	n/a	n/a	n/a	n/a	12	1	9	2	n/a	n/a	n/a	n/a	n/a
1944.666	n/a	PROB	972333	n/a	LTP133	ltpFR	12	n/a	n/a	n/a	n/a	n/a	n/a	n/a	18	5	5	8	n/a	n/a	n/a	n/a	n/a
1945.89	n/a	PROB	972945	n/a	LTP133	ltpFR	12	n/a	n/a	n/a	n/a	n/a	n/a	n/a	13	1	4	8	n/a	n/a	n/a	n/a	n/a
1946.998	n/a	PROB	973499	n/a	LTP133	ltpFR	12	n/a	n/a	n/a	n/a	n/a	n/a	n/a	16	6	4	6	n/a	n/a	n/a	n/a	n/a
1948.202	n/a	PROB	974101	n/a	LTP133	ltpFR	12	n/a	n/a	n/a	n/a	n/a	n/a	n/a	12	4	4	4	n/a	n/a	n/a	n/a	n/a
1949.552	n/a	PROB	974776	n/a	LTP133	ltpFR	12	n/a	n/a	n/a	n/a	n/a	n/a	n/a	20	5	6	9	n/a	n/a	n/a	n/a	n/a
1950.81	n/a	PROB	975405	n/a	LTP133	ltpFR	12	n/a	n/a	n/a	n/a	n/a	n/a	n/a	23	9	6	8	n/a	n/a	n/a	n/a	n/a
1952.306	n/a	PROB	976153	n/a	LTP133	ltpFR	12	n/a	n/a	n/a	n/a	n/a	n/a	n/a	21	8	8	5	n/a	n/a	n/a	n/a	n/a
1953.448	n/a	STOP	976724	n/a	LTP133	ltpFR	12	n/a	n/a	n/a	n/a	n/a	n/a	n/a	n/a	n/a	n/a	n/a	n/a	n/a	n/a	n/a	n/a
1954.938	n/a	WORD	977469	wordpools/wasnorm_wordpool.txt	LTP133	ltpFR	12	7	1	KITTEN	780	n/a	n/a	1	n/a	0	0	0	0.422607421875	0.5869140625	0	upper	amplitud.ttf
1957.944	n/a	START	978972	n/a	LTP133	ltpFR	12	n/a	n/a	n/a	n/a	n/a	n/a	n/a	n/a	n/a	n/a	n/a	n/a	n/a	n/a	n/a	n/a
1959.074	n/a	PROB	979537	n/a	LTP133	ltpFR	12	n/a	n/a	n/a	n/a	n/a	n/a	n/a	15	2	6	7	n/a	n/a	n/a	n/a	n/a
1960.414	n/a	PROB	980207	n/a	LTP133	ltpFR	12	n/a	n/a	n/a	n/a	n/a	n/a	n/a	13	6	2	5	n/a	n/a	n/a	n/a	n/a
1961.988	n/a	PROB	980994	n/a	LTP133	ltpFR	12	n/a	n/a	n/a	n/a	n/a	n/a	n/a	9	4	3	2	n/a	n/a	n/a	n/a	n/a
1963.252	n/a	PROB	981626	n/a	LTP133	ltpFR	12	n/a	n/a	n/a	n/a	n/a	n/a	n/a	22	7	8	7	n/a	n/a	n/a	n/a	n/a
1964.886	n/a	PROB	982443	n/a	LTP133	ltpFR	12	n/a	n/a	n/a	n/a	n/a	n/a	n/a	12	2	4	6	n/a	n/a	n/a	n/a	n/a
1966.084	n/a	PROB	983042	n/a	LTP133	ltpFR	12	n/a	n/a	n/a	n/a	n/a	n/a	n/a	13	3	8	2	n/a	n/a	n/a	n/a	n/a
1967.658	n/a	PROB	983829	n/a	LTP133	ltpFR	12	n/a	n/a	n/a	n/a	n/a	n/a	n/a	4	1	1	2	n/a	n/a	n/a	n/a	n/a
1968.664	n/a	PROB	984332	n/a	LTP133	ltpFR	12	n/a	n/a	n/a	n/a	n/a	n/a	n/a	18	7	7	4	n/a	n/a	n/a	n/a	n/a
1970.146	n/a	PROB	985073	n/a	LTP133	ltpFR	12	n/a	n/a	n/a	n/a	n/a	n/a	n/a	15	7	6	2	n/a	n/a	n/a	n/a	n/a
1971.452	n/a	PROB	985726	n/a	LTP133	ltpFR	12	n/a	n/a	n/a	n/a	n/a	n/a	n/a	8	1	6	1	n/a	n/a	n/a	n/a	n/a
1972.786	n/a	STOP	986393	n/a	LTP133	ltpFR	12	n/a	n/a	n/a	n/a	n/a	n/a	n/a	n/a	n/a	n/a	n/a	n/a	n/a	n/a	n/a	n/a
1974.974	n/a	WORD	987487	wordpools/wasnorm_wordpool.txt	LTP133	ltpFR	12	7	1	MAGAZINE	853	n/a	n/a	0	n/a	0	0	0	0.422607421875	0.5869140625	0	upper	amplitud.ttf
1977.98	n/a	START	988990	n/a	LTP133	ltpFR	12	n/a	n/a	n/a	n/a	n/a	n/a	n/a	n/a	n/a	n/a	n/a	n/a	n/a	n/a	n/a	n/a
1978.92	n/a	PROB	989460	n/a	LTP133	ltpFR	12	n/a	n/a	n/a	n/a	n/a	n/a	n/a	14	2	4	8	n/a	n/a	n/a	n/a	n/a
1980.542	n/a	PROB	990271	n/a	LTP133	ltpFR	12	n/a	n/a	n/a	n/a	n/a	n/a	n/a	9	4	4	1	n/a	n/a	n/a	n/a	n/a
1981.808	n/a	PROB	990904	n/a	LTP133	ltpFR	12	n/a	n/a	n/a	n/a	n/a	n/a	n/a	13	7	3	3	n/a	n/a	n/a	n/a	n/a
1983.272	n/a	PROB	991636	n/a	LTP133	ltpFR	12	n/a	n/a	n/a	n/a	n/a	n/a	n/a	20	9	9	2	n/a	n/a	n/a	n/a	n/a
1985.644	n/a	PROB	992822	n/a	LTP133	ltpFR	12	n/a	n/a	n/a	n/a	n/a	n/a	n/a	12	3	6	3	n/a	n/a	n/a	n/a	n/a
1987.326	n/a	PROB	993663	n/a	LTP133	ltpFR	12	n/a	n/a	n/a	n/a	n/a	n/a	n/a	12	5	5	2	n/a	n/a	n/a	n/a	n/a
1988.408	n/a	PROB	994204	n/a	LTP133	ltpFR	12	n/a	n/a	n/a	n/a	n/a	n/a	n/a	9	6	2	1	n/a	n/a	n/a	n/a	n/a
1989.656	n/a	PROB	994828	n/a	LTP133	ltpFR	12	n/a	n/a	n/a	n/a	n/a	n/a	n/a	20	9	4	7	n/a	n/a	n/a	n/a	n/a
1991.396	n/a	PROB	995698	n/a	LTP133	ltpFR	12	n/a	n/a	n/a	n/a	n/a	n/a	n/a	12	2	3	7	n/a	n/a	n/a	n/a	n/a
1992.61	n/a	STOP	996305	n/a	LTP133	ltpFR	12	n/a	n/a	n/a	n/a	n/a	n/a	n/a	n/a	n/a	n/a	n/a	n/a	n/a	n/a	n/a	n/a
1995.1	n/a	WORD	997550	wordpools/wasnorm_wordpool.txt	LTP133	ltpFR	12	7	1	PLUM	1090	n/a	n/a	1	n/a	0	0	0	0.422607421875	0.5869140625	0	upper	amplitud.ttf
1998.106	n/a	START	999053	n/a	LTP133	ltpFR	12	n/a	n/a	n/a	n/a	n/a	n/a	n/a	n/a	n/a	n/a	n/a	n/a	n/a	n/a	n/a	n/a
1999.096	n/a	PROB	999548	n/a	LTP133	ltpFR	12	n/a	n/a	n/a	n/a	n/a	n/a	n/a	20	9	7	4	n/a	n/a	n/a	n/a	n/a
2000.71	n/a	PROB	1000355	n/a	LTP133	ltpFR	12	n/a	n/a	n/a	n/a	n/a	n/a	n/a	11	3	7	1	n/a	n/a	n/a	n/a	n/a
2002.118	n/a	PROB	1001059	n/a	LTP133	ltpFR	12	n/a	n/a	n/a	n/a	n/a	n/a	n/a	16	5	5	6	n/a	n/a	n/a	n/a	n/a
2003.24	n/a	PROB	1001620	n/a	LTP133	ltpFR	12	n/a	n/a	n/a	n/a	n/a	n/a	n/a	15	9	5	1	n/a	n/a	n/a	n/a	n/a
2004.682	n/a	PROB	1002341	n/a	LTP133	ltpFR	12	n/a	n/a	n/a	n/a	n/a	n/a	n/a	12	5	2	5	n/a	n/a	n/a	n/a	n/a
2006.254	n/a	PROB	1003127	n/a	LTP133	ltpFR	12	n/a	n/a	n/a	n/a	n/a	n/a	n/a	17	9	2	6	n/a	n/a	n/a	n/a	n/a
2008.068	n/a	PROB	1004034	n/a	LTP133	ltpFR	12	n/a	n/a	n/a	n/a	n/a	n/a	n/a	22	9	7	6	n/a	n/a	n/a	n/a	n/a
2009.658	n/a	PROB	1004829	n/a	LTP133	ltpFR	12	n/a	n/a	n/a	n/a	n/a	n/a	n/a	13	2	4	7	n/a	n/a	n/a	n/a	n/a
2011.058	n/a	PROB	1005529	n/a	LTP133	ltpFR	12	n/a	n/a	n/a	n/a	n/a	n/a	n/a	13	6	5	2	n/a	n/a	n/a	n/a	n/a
2014.104	n/a	STOP	1007052	n/a	LTP133	ltpFR	12	n/a	n/a	n/a	n/a	n/a	n/a	n/a	n/a	n/a	n/a	n/a	n/a	n/a	n/a	n/a	n/a
2015.052	n/a	WORD	1007526	wordpools/wasnorm_wordpool.txt	LTP133	ltpFR	12	7	1	ROBBER	1197	n/a	n/a	1	n/a	0	0	0	0.422607421875	0.5869140625	0	upper	amplitud.ttf
2018.058	n/a	START	1009029	n/a	LTP133	ltpFR	12	n/a	n/a	n/a	n/a	n/a	n/a	n/a	n/a	n/a	n/a	n/a	n/a	n/a	n/a	n/a	n/a
2019.156	n/a	PROB	1009578	n/a	LTP133	ltpFR	12	n/a	n/a	n/a	n/a	n/a	n/a	n/a	19	6	8	5	n/a	n/a	n/a	n/a	n/a
2020.78	n/a	PROB	1010390	n/a	LTP133	ltpFR	12	n/a	n/a	n/a	n/a	n/a	n/a	n/a	12	1	7	4	n/a	n/a	n/a	n/a	n/a
2022.502	n/a	PROB	1011251	n/a	LTP133	ltpFR	12	n/a	n/a	n/a	n/a	n/a	n/a	n/a	11	3	2	6	n/a	n/a	n/a	n/a	n/a
2023.718	n/a	PROB	1011859	n/a	LTP133	ltpFR	12	n/a	n/a	n/a	n/a	n/a	n/a	n/a	19	9	2	8	n/a	n/a	n/a	n/a	n/a
2025.282	n/a	PROB	1012641	n/a	LTP133	ltpFR	12	n/a	n/a	n/a	n/a	n/a	n/a	n/a	12	3	4	5	n/a	n/a	n/a	n/a	n/a
2026.848	n/a	PROB	1013424	n/a	LTP133	ltpFR	12	n/a	n/a	n/a	n/a	n/a	n/a	n/a	20	8	6	6	n/a	n/a	n/a	n/a	n/a
2028.012	n/a	PROB	1014006	n/a	LTP133	ltpFR	12	n/a	n/a	n/a	n/a	n/a	n/a	n/a	14	3	8	3	n/a	n/a	n/a	n/a	n/a
2029.484	n/a	PROB	1014742	n/a	LTP133	ltpFR	12	n/a	n/a	n/a	n/a	n/a	n/a	n/a	17	1	9	7	n/a	n/a	n/a	n/a	n/a
2030.626	n/a	PROB	1015313	n/a	LTP133	ltpFR	12	n/a	n/a	n/a	n/a	n/a	n/a	n/a	12	3	5	4	n/a	n/a	n/a	n/a	n/a
2032.074	n/a	PROB	1016037	n/a	LTP133	ltpFR	12	n/a	n/a	n/a	n/a	n/a	n/a	n/a	12	3	2	7	n/a	n/a	n/a	n/a	n/a
2033.394	n/a	STOP	1016697	n/a	LTP133	ltpFR	12	n/a	n/a	n/a	n/a	n/a	n/a	n/a	n/a	n/a	n/a	n/a	n/a	n/a	n/a	n/a	n/a
2035.054	n/a	WORD	1017527	wordpools/wasnorm_wordpool.txt	LTP133	ltpFR	12	7	1	SNACK	1331	n/a	n/a	0	n/a	0	0	0	0.422607421875	0.5869140625	0	upper	amplitud.ttf
2038.06	n/a	START	1019030	n/a	LTP133	ltpFR	12	n/a	n/a	n/a	n/a	n/a	n/a	n/a	n/a	n/a	n/a	n/a	n/a	n/a	n/a	n/a	n/a
2039.108	n/a	PROB	1019554	n/a	LTP133	ltpFR	12	n/a	n/a	n/a	n/a	n/a	n/a	n/a	11	1	7	3	n/a	n/a	n/a	n/a	n/a
2040.58	n/a	PROB	1020290	n/a	LTP133	ltpFR	12	n/a	n/a	n/a	n/a	n/a	n/a	n/a	12	5	4	3	n/a	n/a	n/a	n/a	n/a
2041.964	n/a	PROB	1020982	n/a	LTP133	ltpFR	12	n/a	n/a	n/a	n/a	n/a	n/a	n/a	14	9	1	4	n/a	n/a	n/a	n/a	n/a
2043.27	n/a	PROB	1021635	n/a	LTP133	ltpFR	12	n/a	n/a	n/a	n/a	n/a	n/a	n/a	12	9	1	2	n/a	n/a	n/a	n/a	n/a
2044.51	n/a	PROB	1022255	n/a	LTP133	ltpFR	12	n/a	n/a	n/a	n/a	n/a	n/a	n/a	12	6	4	2	n/a	n/a	n/a	n/a	n/a
2045.692	n/a	PROB	1022846	n/a	LTP133	ltpFR	12	n/a	n/a	n/a	n/a	n/a	n/a	n/a	13	9	3	1	n/a	n/a	n/a	n/a	n/a
2047.564	n/a	PROB	1023782	n/a	LTP133	ltpFR	12	n/a	n/a	n/a	n/a	n/a	n/a	n/a	12	5	6	1	n/a	n/a	n/a	n/a	n/a
2048.972	n/a	PROB	1024486	n/a	LTP133	ltpFR	12	n/a	n/a	n/a	n/a	n/a	n/a	n/a	26	8	9	9	n/a	n/a	n/a	n/a	n/a
2050.978	n/a	PROB	1025489	n/a	LTP133	ltpFR	12	n/a	n/a	n/a	n/a	n/a	n/a	n/a	21	8	5	8	n/a	n/a	n/a	n/a	n/a
2052.252	n/a	PROB	1026126	n/a	LTP133	ltpFR	12	n/a	n/a	n/a	n/a	n/a	n/a	n/a	9	2	3	4	n/a	n/a	n/a	n/a	n/a
2053.338	n/a	STOP	1026669	n/a	LTP133	ltpFR	12	n/a	n/a	n/a	n/a	n/a	n/a	n/a	n/a	n/a	n/a	n/a	n/a	n/a	n/a	n/a	n/a
2055.066	n/a	WORD	1027533	wordpools/wasnorm_wordpool.txt	LTP133	ltpFR	12	7	1	MINT	898	n/a	n/a	0	n/a	0	0	0	0.422607421875	0.5869140625	0	upper	amplitud.ttf
2058.07	n/a	START	1029035	n/a	LTP133	ltpFR	12	n/a	n/a	n/a	n/a	n/a	n/a	n/a	n/a	n/a	n/a	n/a	n/a	n/a	n/a	n/a	n/a
2059.16	n/a	PROB	1029580	n/a	LTP133	ltpFR	12	n/a	n/a	n/a	n/a	n/a	n/a	n/a	11	2	3	6	n/a	n/a	n/a	n/a	n/a
2060.392	n/a	PROB	1030196	n/a	LTP133	ltpFR	12	n/a	n/a	n/a	n/a	n/a	n/a	n/a	12	1	7	4	n/a	n/a	n/a	n/a	n/a
2061.674	n/a	PROB	1030837	n/a	LTP133	ltpFR	12	n/a	n/a	n/a	n/a	n/a	n/a	n/a	18	7	8	3	n/a	n/a	n/a	n/a	n/a
2062.898	n/a	PROB	1031449	n/a	LTP133	ltpFR	12	n/a	n/a	n/a	n/a	n/a	n/a	n/a	18	9	8	1	n/a	n/a	n/a	n/a	n/a
2064.328	n/a	PROB	1032164	n/a	LTP133	ltpFR	12	n/a	n/a	n/a	n/a	n/a	n/a	n/a	13	2	7	4	n/a	n/a	n/a	n/a	n/a
2065.67	n/a	PROB	1032835	n/a	LTP133	ltpFR	12	n/a	n/a	n/a	n/a	n/a	n/a	n/a	13	3	2	8	n/a	n/a	n/a	n/a	n/a
2067.168	n/a	PROB	1033584	n/a	LTP133	ltpFR	12	n/a	n/a	n/a	n/a	n/a	n/a	n/a	23	6	8	9	n/a	n/a	n/a	n/a	n/a
2069.09	n/a	PROB	1034545	n/a	LTP133	ltpFR	12	n/a	n/a	n/a	n/a	n/a	n/a	n/a	18	3	6	9	n/a	n/a	n/a	n/a	n/a
2070.514	n/a	PROB	1035257	n/a	LTP133	ltpFR	12	n/a	n/a	n/a	n/a	n/a	n/a	n/a	9	2	5	2	n/a	n/a	n/a	n/a	n/a
2072.796	n/a	STOP	1036398	n/a	LTP133	ltpFR	12	n/a	n/a	n/a	n/a	n/a	n/a	n/a	n/a	n/a	n/a	n/a	n/a	n/a	n/a	n/a	n/a
2075.266	n/a	WORD	1037633	wordpools/wasnorm_wordpool.txt	LTP133	ltpFR	12	7	1	BISCUIT	130	n/a	n/a	0	n/a	0	0	0	0.422607421875	0.5869140625	0	upper	amplitud.ttf
2078.272	n/a	START	1039136	n/a	LTP133	ltpFR	12	n/a	n/a	n/a	n/a	n/a	n/a	n/a	n/a	n/a	n/a	n/a	n/a	n/a	n/a	n/a	n/a
2079.096	n/a	PROB	1039548	n/a	LTP133	ltpFR	12	n/a	n/a	n/a	n/a	n/a	n/a	n/a	19	2	9	8	n/a	n/a	n/a	n/a	n/a
2080.526	n/a	PROB	1040263	n/a	LTP133	ltpFR	12	n/a	n/a	n/a	n/a	n/a	n/a	n/a	9	1	2	6	n/a	n/a	n/a	n/a	n/a
2081.768	n/a	PROB	1040884	n/a	LTP133	ltpFR	12	n/a	n/a	n/a	n/a	n/a	n/a	n/a	18	8	3	7	n/a	n/a	n/a	n/a	n/a
2083.616	n/a	PROB	1041808	n/a	LTP133	ltpFR	12	n/a	n/a	n/a	n/a	n/a	n/a	n/a	19	9	1	3	n/a	n/a	n/a	n/a	n/a
2084.772	n/a	PROB	1042386	n/a	LTP133	ltpFR	12	n/a	n/a	n/a	n/a	n/a	n/a	n/a	19	7	5	7	n/a	n/a	n/a	n/a	n/a
2086.562	n/a	PROB	1043281	n/a	LTP133	ltpFR	12	n/a	n/a	n/a	n/a	n/a	n/a	n/a	19	5	5	9	n/a	n/a	n/a	n/a	n/a
2087.612	n/a	PROB	1043806	n/a	LTP133	ltpFR	12	n/a	n/a	n/a	n/a	n/a	n/a	n/a	18	8	9	1	n/a	n/a	n/a	n/a	n/a
2088.834	n/a	PROB	1044417	n/a	LTP133	ltpFR	12	n/a	n/a	n/a	n/a	n/a	n/a	n/a	8	3	3	2	n/a	n/a	n/a	n/a	n/a
2090.134	n/a	PROB	1045067	n/a	LTP133	ltpFR	12	n/a	n/a	n/a	n/a	n/a	n/a	n/a	9	1	5	4	n/a	n/a	n/a	n/a	n/a
2091.414	n/a	PROB	1045707	n/a	LTP133	ltpFR	12	n/a	n/a	n/a	n/a	n/a	n/a	n/a	19	9	5	5	n/a	n/a	n/a	n/a	n/a
2092.756	n/a	STOP	1046378	n/a	LTP133	ltpFR	12	n/a	n/a	n/a	n/a	n/a	n/a	n/a	n/a	n/a	n/a	n/a	n/a	n/a	n/a	n/a	n/a
2095.268	n/a	WORD	1047634	wordpools/wasnorm_wordpool.txt	LTP133	ltpFR	12	7	1	FLOUR	583	n/a	n/a	0	n/a	0	0	0	0.422607421875	0.5869140625	0	upper	amplitud.ttf
2098.274	n/a	START	1049137	n/a	LTP133	ltpFR	12	n/a	n/a	n/a	n/a	n/a	n/a	n/a	n/a	n/a	n/a	n/a	n/a	n/a	n/a	n/a	n/a
2099.454	n/a	PROB	1049727	n/a	LTP133	ltpFR	12	n/a	n/a	n/a	n/a	n/a	n/a	n/a	17	9	3	5	n/a	n/a	n/a	n/a	n/a
2101.644	n/a	PROB	1050822	n/a	LTP133	ltpFR	12	n/a	n/a	n/a	n/a	n/a	n/a	n/a	12	1	8	3	n/a	n/a	n/a	n/a	n/a
2103.018	n/a	PROB	1051509	n/a	LTP133	ltpFR	12	n/a	n/a	n/a	n/a	n/a	n/a	n/a	9	1	3	5	n/a	n/a	n/a	n/a	n/a
2104.076	n/a	PROB	1052038	n/a	LTP133	ltpFR	12	n/a	n/a	n/a	n/a	n/a	n/a	n/a	14	6	3	5	n/a	n/a	n/a	n/a	n/a
2105.724	n/a	PROB	1052862	n/a	LTP133	ltpFR	12	n/a	n/a	n/a	n/a	n/a	n/a	n/a	16	5	9	2	n/a	n/a	n/a	n/a	n/a
2107.822	n/a	PROB	1053911	n/a	LTP133	ltpFR	12	n/a	n/a	n/a	n/a	n/a	n/a	n/a	21	9	9	3	n/a	n/a	n/a	n/a	n/a
2109.16	n/a	PROB	1054580	n/a	LTP133	ltpFR	12	n/a	n/a	n/a	n/a	n/a	n/a	n/a	9	1	5	3	n/a	n/a	n/a	n/a	n/a
2110.368	n/a	PROB	1055184	n/a	LTP133	ltpFR	12	n/a	n/a	n/a	n/a	n/a	n/a	n/a	15	6	2	7	n/a	n/a	n/a	n/a	n/a
2111.9	n/a	PROB	1055950	n/a	LTP133	ltpFR	12	n/a	n/a	n/a	n/a	n/a	n/a	n/a	14	2	5	7	n/a	n/a	n/a	n/a	n/a
2113.29	n/a	STOP	1056645	n/a	LTP133	ltpFR	12	n/a	n/a	n/a	n/a	n/a	n/a	n/a	n/a	n/a	n/a	n/a	n/a	n/a	n/a	n/a	n/a
2115.336	n/a	WORD	1057668	wordpools/wasnorm_wordpool.txt	LTP133	ltpFR	12	7	1	DOCUMENT	479	n/a	n/a	0	n/a	0	0	0	0.422607421875	0.5869140625	0	upper	amplitud.ttf
2118.342	n/a	START	1059171	n/a	LTP133	ltpFR	12	n/a	n/a	n/a	n/a	n/a	n/a	n/a	n/a	n/a	n/a	n/a	n/a	n/a	n/a	n/a	n/a
2119.266	n/a	PROB	1059633	n/a	LTP133	ltpFR	12	n/a	n/a	n/a	n/a	n/a	n/a	n/a	12	4	2	6	n/a	n/a	n/a	n/a	n/a
2120.598	n/a	PROB	1060299	n/a	LTP133	ltpFR	12	n/a	n/a	n/a	n/a	n/a	n/a	n/a	9	3	3	3	n/a	n/a	n/a	n/a	n/a
2121.564	n/a	PROB	1060782	n/a	LTP133	ltpFR	12	n/a	n/a	n/a	n/a	n/a	n/a	n/a	19	9	5	5	n/a	n/a	n/a	n/a	n/a
2123.096	n/a	PROB	1061548	n/a	LTP133	ltpFR	12	n/a	n/a	n/a	n/a	n/a	n/a	n/a	10	1	2	7	n/a	n/a	n/a	n/a	n/a
2124.67	n/a	PROB	1062335	n/a	LTP133	ltpFR	12	n/a	n/a	n/a	n/a	n/a	n/a	n/a	7	2	4	1	n/a	n/a	n/a	n/a	n/a
2125.926	n/a	PROB	1062963	n/a	LTP133	ltpFR	12	n/a	n/a	n/a	n/a	n/a	n/a	n/a	14	9	1	4	n/a	n/a	n/a	n/a	n/a
2127.24	n/a	PROB	1063620	n/a	LTP133	ltpFR	12	n/a	n/a	n/a	n/a	n/a	n/a	n/a	14	7	6	1	n/a	n/a	n/a	n/a	n/a
2128.522	n/a	PROB	1064261	n/a	LTP133	ltpFR	12	n/a	n/a	n/a	n/a	n/a	n/a	n/a	18	9	2	7	n/a	n/a	n/a	n/a	n/a
2130.412	n/a	PROB	1065206	n/a	LTP133	ltpFR	12	n/a	n/a	n/a	n/a	n/a	n/a	n/a	19	9	3	7	n/a	n/a	n/a	n/a	n/a
2131.986	n/a	PROB	1065993	n/a	LTP133	ltpFR	12	n/a	n/a	n/a	n/a	n/a	n/a	n/a	21	6	8	7	n/a	n/a	n/a	n/a	n/a
2133.18	n/a	STOP	1066590	n/a	LTP133	ltpFR	12	n/a	n/a	n/a	n/a	n/a	n/a	n/a	n/a	n/a	n/a	n/a	n/a	n/a	n/a	n/a	n/a
2135.306	n/a	WORD	1067653	wordpools/wasnorm_wordpool.txt	LTP133	ltpFR	12	7	1	TREE	1502	n/a	n/a	0	n/a	0	0	0	0.422607421875	0.5869140625	0	upper	amplitud.ttf
2138.312	n/a	START	1069156	n/a	LTP133	ltpFR	12	n/a	n/a	n/a	n/a	n/a	n/a	n/a	n/a	n/a	n/a	n/a	n/a	n/a	n/a	n/a	n/a
2139.5	n/a	PROB	1069750	n/a	LTP133	ltpFR	12	n/a	n/a	n/a	n/a	n/a	n/a	n/a	22	7	8	7	n/a	n/a	n/a	n/a	n/a
2141.374	n/a	PROB	1070687	n/a	LTP133	ltpFR	12	n/a	n/a	n/a	n/a	n/a	n/a	n/a	20	5	8	7	n/a	n/a	n/a	n/a	n/a
2142.94	n/a	PROB	1071470	n/a	LTP133	ltpFR	12	n/a	n/a	n/a	n/a	n/a	n/a	n/a	16	8	6	2	n/a	n/a	n/a	n/a	n/a
2144.32	n/a	PROB	1072160	n/a	LTP133	ltpFR	12	n/a	n/a	n/a	n/a	n/a	n/a	n/a	16	4	6	6	n/a	n/a	n/a	n/a	n/a
2145.844	n/a	PROB	1072922	n/a	LTP133	ltpFR	12	n/a	n/a	n/a	n/a	n/a	n/a	n/a	14	5	2	7	n/a	n/a	n/a	n/a	n/a
2147.2	n/a	PROB	1073600	n/a	LTP133	ltpFR	12	n/a	n/a	n/a	n/a	n/a	n/a	n/a	11	2	3	6	n/a	n/a	n/a	n/a	n/a
2148.658	n/a	PROB	1074329	n/a	LTP133	ltpFR	12	n/a	n/a	n/a	n/a	n/a	n/a	n/a	16	5	5	6	n/a	n/a	n/a	n/a	n/a
2150.172	n/a	PROB	1075086	n/a	LTP133	ltpFR	12	n/a	n/a	n/a	n/a	n/a	n/a	n/a	15	3	8	4	n/a	n/a	n/a	n/a	n/a
2152.096	n/a	PROB	1076048	n/a	LTP133	ltpFR	12	n/a	n/a	n/a	n/a	n/a	n/a	n/a	15	1	6	8	n/a	n/a	n/a	n/a	n/a
2153.796	n/a	STOP	1076898	n/a	LTP133	ltpFR	12	n/a	n/a	n/a	n/a	n/a	n/a	n/a	n/a	n/a	n/a	n/a	n/a	n/a	n/a	n/a	n/a
2155.49	n/a	WORD	1077745	wordpools/wasnorm_wordpool.txt	LTP133	ltpFR	12	7	1	ZOO	1637	n/a	n/a	0	n/a	0	0	0	0.422607421875	0.5869140625	0	upper	amplitud.ttf
2158.496	n/a	START	1079248	n/a	LTP133	ltpFR	12	n/a	n/a	n/a	n/a	n/a	n/a	n/a	n/a	n/a	n/a	n/a	n/a	n/a	n/a	n/a	n/a
2159.452	n/a	PROB	1079726	n/a	LTP133	ltpFR	12	n/a	n/a	n/a	n/a	n/a	n/a	n/a	11	5	2	4	n/a	n/a	n/a	n/a	n/a
2160.894	n/a	PROB	1080447	n/a	LTP133	ltpFR	12	n/a	n/a	n/a	n/a	n/a	n/a	n/a	12	5	2	5	n/a	n/a	n/a	n/a	n/a
2163.632	n/a	PROB	1081816	n/a	LTP133	ltpFR	12	n/a	n/a	n/a	n/a	n/a	n/a	n/a	10	5	4	1	n/a	n/a	n/a	n/a	n/a
2164.906	n/a	PROB	1082453	n/a	LTP133	ltpFR	12	n/a	n/a	n/a	n/a	n/a	n/a	n/a	6	1	3	2	n/a	n/a	n/a	n/a	n/a
2166.022	n/a	PROB	1083011	n/a	LTP133	ltpFR	12	n/a	n/a	n/a	n/a	n/a	n/a	n/a	17	3	8	6	n/a	n/a	n/a	n/a	n/a
2167.518	n/a	PROB	1083759	n/a	LTP133	ltpFR	12	n/a	n/a	n/a	n/a	n/a	n/a	n/a	12	2	7	3	n/a	n/a	n/a	n/a	n/a
2169.166	n/a	PROB	1084583	n/a	LTP133	ltpFR	12	n/a	n/a	n/a	n/a	n/a	n/a	n/a	9	4	1	4	n/a	n/a	n/a	n/a	n/a
2170.398	n/a	PROB	1085199	n/a	LTP133	ltpFR	12	n/a	n/a	n/a	n/a	n/a	n/a	n/a	13	6	2	5	n/a	n/a	n/a	n/a	n/a
2172.056	n/a	PROB	1086028	n/a	LTP133	ltpFR	12	n/a	n/a	n/a	n/a	n/a	n/a	n/a	11	8	2	1	n/a	n/a	n/a	n/a	n/a
2173.684	n/a	STOP	1086842	n/a	LTP133	ltpFR	12	n/a	n/a	n/a	n/a	n/a	n/a	n/a	n/a	n/a	n/a	n/a	n/a	n/a	n/a	n/a	n/a
2175.418	n/a	WORD	1087709	wordpools/wasnorm_wordpool.txt	LTP133	ltpFR	12	7	1	RACCOON	1153	n/a	n/a	1	n/a	0	0	0	0.422607421875	0.5869140625	0	upper	amplitud.ttf
2178.422	n/a	START	1089211	n/a	LTP133	ltpFR	12	n/a	n/a	n/a	n/a	n/a	n/a	n/a	n/a	n/a	n/a	n/a	n/a	n/a	n/a	n/a	n/a
2179.404	n/a	PROB	1089702	n/a	LTP133	ltpFR	12	n/a	n/a	n/a	n/a	n/a	n/a	n/a	19	9	7	3	n/a	n/a	n/a	n/a	n/a
2180.912	n/a	PROB	1090456	n/a	LTP133	ltpFR	12	n/a	n/a	n/a	n/a	n/a	n/a	n/a	14	2	4	8	n/a	n/a	n/a	n/a	n/a
2182.368	n/a	PROB	1091184	n/a	LTP133	ltpFR	12	n/a	n/a	n/a	n/a	n/a	n/a	n/a	21	8	6	7	n/a	n/a	n/a	n/a	n/a
2183.8	n/a	PROB	1091900	n/a	LTP133	ltpFR	12	n/a	n/a	n/a	n/a	n/a	n/a	n/a	15	2	8	5	n/a	n/a	n/a	n/a	n/a
2185.306	n/a	PROB	1092653	n/a	LTP133	ltpFR	12	n/a	n/a	n/a	n/a	n/a	n/a	n/a	17	6	9	2	n/a	n/a	n/a	n/a	n/a
2187.106	n/a	PROB	1093553	n/a	LTP133	ltpFR	12	n/a	n/a	n/a	n/a	n/a	n/a	n/a	19	9	7	3	n/a	n/a	n/a	n/a	n/a
2188.628	n/a	PROB	1094314	n/a	LTP133	ltpFR	12	n/a	n/a	n/a	n/a	n/a	n/a	n/a	19	9	1	9	n/a	n/a	n/a	n/a	n/a
2189.702	n/a	PROB	1094851	n/a	LTP133	ltpFR	12	n/a	n/a	n/a	n/a	n/a	n/a	n/a	10	2	5	3	n/a	n/a	n/a	n/a	n/a
2191.134	n/a	PROB	1095567	n/a	LTP133	ltpFR	12	n/a	n/a	n/a	n/a	n/a	n/a	n/a	23	6	8	9	n/a	n/a	n/a	n/a	n/a
2193.3	n/a	STOP	1096650	n/a	LTP133	ltpFR	12	n/a	n/a	n/a	n/a	n/a	n/a	n/a	n/a	n/a	n/a	n/a	n/a	n/a	n/a	n/a	n/a
2195.544	n/a	WORD	1097772	wordpools/wasnorm_wordpool.txt	LTP133	ltpFR	12	7	1	ATMOSPHERE	54	n/a	n/a	0	n/a	0	0	0	0.422607421875	0.5869140625	0	upper	amplitud.ttf
2198.55	n/a	START	1099275	n/a	LTP133	ltpFR	12	n/a	n/a	n/a	n/a	n/a	n/a	n/a	n/a	n/a	n/a	n/a	n/a	n/a	n/a	n/a	n/a
2199.592	n/a	PROB	1099796	n/a	LTP133	ltpFR	12	n/a	n/a	n/a	n/a	n/a	n/a	n/a	16	8	5	3	n/a	n/a	n/a	n/a	n/a
2200.998	n/a	PROB	1100499	n/a	LTP133	ltpFR	12	n/a	n/a	n/a	n/a	n/a	n/a	n/a	25	9	7	9	n/a	n/a	n/a	n/a	n/a
2203.046	n/a	PROB	1101523	n/a	LTP133	ltpFR	12	n/a	n/a	n/a	n/a	n/a	n/a	n/a	15	6	8	1	n/a	n/a	n/a	n/a	n/a
2204.236	n/a	PROB	1102118	n/a	LTP133	ltpFR	12	n/a	n/a	n/a	n/a	n/a	n/a	n/a	10	4	2	4	n/a	n/a	n/a	n/a	n/a
2205.768	n/a	PROB	1102884	n/a	LTP133	ltpFR	12	n/a	n/a	n/a	n/a	n/a	n/a	n/a	12	6	1	5	n/a	n/a	n/a	n/a	n/a
2207.074	n/a	PROB	1103537	n/a	LTP133	ltpFR	12	n/a	n/a	n/a	n/a	n/a	n/a	n/a	20	7	6	7	n/a	n/a	n/a	n/a	n/a
2208.514	n/a	PROB	1104257	n/a	LTP133	ltpFR	12	n/a	n/a	n/a	n/a	n/a	n/a	n/a	22	6	8	8	n/a	n/a	n/a	n/a	n/a
2209.83	n/a	PROB	1104915	n/a	LTP133	ltpFR	12	n/a	n/a	n/a	n/a	n/a	n/a	n/a	17	9	2	6	n/a	n/a	n/a	n/a	n/a
2211.146	n/a	PROB	1105573	n/a	LTP133	ltpFR	12	n/a	n/a	n/a	n/a	n/a	n/a	n/a	17	9	7	1	n/a	n/a	n/a	n/a	n/a
2212.534	n/a	PROB	1106267	n/a	LTP133	ltpFR	12	n/a	n/a	n/a	n/a	n/a	n/a	n/a	8	2	1	5	n/a	n/a	n/a	n/a	n/a
2213.598	n/a	STOP	1106799	n/a	LTP133	ltpFR	12	n/a	n/a	n/a	n/a	n/a	n/a	n/a	n/a	n/a	n/a	n/a	n/a	n/a	n/a	n/a	n/a
2215.74	n/a	WORD	1107870	wordpools/wasnorm_wordpool.txt	LTP133	ltpFR	12	7	1	EDITORIAL	517	n/a	n/a	0	n/a	0	0	0	0.422607421875	0.5869140625	0	upper	amplitud.ttf
2218.744	n/a	START	1109372	n/a	LTP133	ltpFR	12	n/a	n/a	n/a	n/a	n/a	n/a	n/a	n/a	n/a	n/a	n/a	n/a	n/a	n/a	n/a	n/a
2219.71	n/a	PROB	1109855	n/a	LTP133	ltpFR	12	n/a	n/a	n/a	n/a	n/a	n/a	n/a	15	4	7	4	n/a	n/a	n/a	n/a	n/a
2220.942	n/a	PROB	1110471	n/a	LTP133	ltpFR	12	n/a	n/a	n/a	n/a	n/a	n/a	n/a	10	3	5	2	n/a	n/a	n/a	n/a	n/a
2222.364	n/a	PROB	1111182	n/a	LTP133	ltpFR	12	n/a	n/a	n/a	n/a	n/a	n/a	n/a	10	2	2	6	n/a	n/a	n/a	n/a	n/a
2223.714	n/a	PROB	1111857	n/a	LTP133	ltpFR	12	n/a	n/a	n/a	n/a	n/a	n/a	n/a	13	5	6	2	n/a	n/a	n/a	n/a	n/a
2225.728	n/a	PROB	1112864	n/a	LTP133	ltpFR	12	n/a	n/a	n/a	n/a	n/a	n/a	n/a	16	9	1	3	n/a	n/a	n/a	n/a	n/a
2226.786	n/a	PROB	1113393	n/a	LTP133	ltpFR	12	n/a	n/a	n/a	n/a	n/a	n/a	n/a	13	1	7	5	n/a	n/a	n/a	n/a	n/a
2229.716	n/a	PROB	1114858	n/a	LTP133	ltpFR	12	n/a	n/a	n/a	n/a	n/a	n/a	n/a	14	8	4	2	n/a	n/a	n/a	n/a	n/a
2230.922	n/a	PROB	1115461	n/a	LTP133	ltpFR	12	n/a	n/a	n/a	n/a	n/a	n/a	n/a	6	2	2	2	n/a	n/a	n/a	n/a	n/a
2231.772	n/a	PROB	1115886	n/a	LTP133	ltpFR	12	n/a	n/a	n/a	n/a	n/a	n/a	n/a	17	4	5	8	n/a	n/a	n/a	n/a	n/a
2233.078	n/a	PROB	1116539	n/a	LTP133	ltpFR	12	n/a	n/a	n/a	n/a	n/a	n/a	n/a	16	5	2	9	n/a	n/a	n/a	n/a	n/a
2234.662	n/a	STOP	1117331	n/a	LTP133	ltpFR	12	n/a	n/a	n/a	n/a	n/a	n/a	n/a	n/a	n/a	n/a	n/a	n/a	n/a	n/a	n/a	n/a
2236.658	n/a	REC_START	1118329	n/a	LTP133	ltpFR	12	7	n/a	n/a	n/a	n/a	n/a	n/a	n/a	0	0	0	n/a	n/a	n/a	n/a	n/a
2239.47	n/a	REC_WORD	1119735	wordpools/wasnorm_wordpool.txt	LTP133	ltpFR	12	7	1	EDITORIAL	517	n/a	n/a	0	n/a	0	0	0	n/a	n/a	n/a	n/a	n/a
2252.282	n/a	REC_WORD	1126141	wordpools/wasnorm_wordpool.txt	LTP133	ltpFR	12	7	1	TREE	1502	n/a	n/a	0	n/a	0	0	0	n/a	n/a	n/a	n/a	n/a
2254.612	n/a	REC_WORD	1127306	wordpools/wasnorm_wordpool.txt	LTP133	ltpFR	12	7	1	ZOO	1637	n/a	n/a	0	n/a	0	0	0	n/a	n/a	n/a	n/a	n/a
2260.434	n/a	REC_WORD	1130217	wordpools/wasnorm_wordpool.txt	LTP133	ltpFR	12	7	1	PLUM	1090	n/a	n/a	1	n/a	0	0	0	n/a	n/a	n/a	n/a	n/a
2268.858	n/a	REC_WORD	1134429	wordpools/wasnorm_wordpool.txt	LTP133	ltpFR	12	7	1	FLOUR	583	n/a	n/a	0	n/a	0	0	0	n/a	n/a	n/a	n/a	n/a
2295.634	n/a	REC_WORD	1147817	wordpools/wasnorm_wordpool.txt	LTP133	ltpFR	12	7	1	MEAT	883	n/a	n/a	0	n/a	0	0	0	n/a	n/a	n/a	n/a	n/a
2303.736	n/a	REC_WORD	1151868	wordpools/wasnorm_wordpool.txt	LTP133	ltpFR	12	7	1	DOCUMENT	479	n/a	n/a	0	n/a	0	0	0	n/a	n/a	n/a	n/a	n/a
2422.644	n/a	WORD	1211322	wordpools/wasnorm_wordpool.txt	LTP133	ltpFR	12	8	0	PAW	1029	n/a	n/a	0	n/a	0	0	0	0.57763671875	0.412841796875	1	lower	zerothre.ttf
2426.798	n/a	WORD	1213399	wordpools/wasnorm_wordpool.txt	LTP133	ltpFR	12	8	0	BOXER	160	n/a	n/a	1	n/a	0	0	0	0.57763671875	0.412841796875	1	lower	zerothre.ttf
2430.818	n/a	WORD	1215409	wordpools/wasnorm_wordpool.txt	LTP133	ltpFR	12	8	0	GUEST	669	n/a	n/a	1	n/a	0	0	0	0.57763671875	0.412841796875	1	lower	zerothre.ttf
2434.93	n/a	WORD	1217465	wordpools/wasnorm_wordpool.txt	LTP133	ltpFR	12	8	0	DIME	466	n/a	n/a	0	n/a	0	0	0	0.57763671875	0.412841796875	1	lower	zerothre.ttf
2439.042	n/a	WORD	1219521	wordpools/wasnorm_wordpool.txt	LTP133	ltpFR	12	8	0	DOLLAR	482	n/a	n/a	0	n/a	0	0	0	0.57763671875	0.412841796875	1	lower	zerothre.ttf
2442.904	n/a	WORD	1221452	wordpools/wasnorm_wordpool.txt	LTP133	ltpFR	12	8	0	COOK	372	n/a	n/a	1	n/a	0	0	0	0.57763671875	0.412841796875	1	lower	zerothre.ttf
2446.8	n/a	WORD	1223400	wordpools/wasnorm_wordpool.txt	LTP133	ltpFR	12	8	0	ROOMMATE	1207	n/a	n/a	1	n/a	0	0	0	0.57763671875	0.412841796875	1	lower	zerothre.ttf
2450.954	n/a	WORD	1225477	wordpools/wasnorm_wordpool.txt	LTP133	ltpFR	12	8	0	LUMBER	848	n/a	n/a	1	n/a	0	0	0	0.57763671875	0.412841796875	1	lower	zerothre.ttf
2454.766	n/a	WORD	1227383	wordpools/wasnorm_wordpool.txt	LTP133	ltpFR	12	8	0	BACON	67	n/a	n/a	0	n/a	0	0	0	0.57763671875	0.412841796875	1	lower	zerothre.ttf
2458.694	n/a	WORD	1229347	wordpools/wasnorm_wordpool.txt	LTP133	ltpFR	12	8	0	COCOON	339	n/a	n/a	0	n/a	0	0	0	0.57763671875	0.412841796875	1	lower	zerothre.ttf
2462.856	n/a	WORD	1231428	wordpools/wasnorm_wordpool.txt	LTP133	ltpFR	12	8	0	SHRUB	1299	n/a	n/a	0	n/a	0	0	0	0.57763671875	0.412841796875	1	lower	zerothre.ttf
2466.902	n/a	WORD	1233451	wordpools/wasnorm_wordpool.txt	LTP133	ltpFR	12	8	0	BARREL	91	n/a	n/a	0	n/a	0	0	0	0.57763671875	0.412841796875	1	lower	zerothre.ttf
2470.922	n/a	WORD	1235461	wordpools/wasnorm_wordpool.txt	LTP133	ltpFR	12	8	0	COOLER	375	n/a	n/a	0	n/a	0	0	0	0.57763671875	0.412841796875	1	lower	zerothre.ttf
2474.992	n/a	WORD	1237496	wordpools/wasnorm_wordpool.txt	LTP133	ltpFR	12	8	0	OFFICER	973	n/a	n/a	1	n/a	0	0	0	0.57763671875	0.412841796875	1	lower	zerothre.ttf
2479.012	n/a	WORD	1239506	wordpools/wasnorm_wordpool.txt	LTP133	ltpFR	12	8	0	TRIBE	1505	n/a	n/a	1	n/a	0	0	0	0.57763671875	0.412841796875	1	lower	zerothre.ttf
2483.132	n/a	WORD	1241566	wordpools/wasnorm_wordpool.txt	LTP133	ltpFR	12	8	0	HANDCUFFS	685	n/a	n/a	0	n/a	0	0	0	0.57763671875	0.412841796875	1	lower	zerothre.ttf
2486.138	n/a	START	1243069	n/a	LTP133	ltpFR	12	n/a	n/a	n/a	n/a	n/a	n/a	n/a	n/a	n/a	n/a	n/a	n/a	n/a	n/a	n/a	n/a
2487.152	n/a	PROB	1243576	n/a	LTP133	ltpFR	12	n/a	n/a	n/a	n/a	n/a	n/a	n/a	19	7	8	4	n/a	n/a	n/a	n/a	n/a
2489.692	n/a	PROB	1244846	n/a	LTP133	ltpFR	12	n/a	n/a	n/a	n/a	n/a	n/a	n/a	12	3	2	7	n/a	n/a	n/a	n/a	n/a
2491.33	n/a	PROB	1245665	n/a	LTP133	ltpFR	12	n/a	n/a	n/a	n/a	n/a	n/a	n/a	15	4	9	2	n/a	n/a	n/a	n/a	n/a
2492.488	n/a	PROB	1246244	n/a	LTP133	ltpFR	12	n/a	n/a	n/a	n/a	n/a	n/a	n/a	8	6	1	1	n/a	n/a	n/a	n/a	n/a
2493.738	n/a	PROB	1246869	n/a	LTP133	ltpFR	12	n/a	n/a	n/a	n/a	n/a	n/a	n/a	14	8	1	5	n/a	n/a	n/a	n/a	n/a
2495.384	n/a	PROB	1247692	n/a	LTP133	ltpFR	12	n/a	n/a	n/a	n/a	n/a	n/a	n/a	10	2	7	1	n/a	n/a	n/a	n/a	n/a
2497.248	n/a	PROB	1248624	n/a	LTP133	ltpFR	12	n/a	n/a	n/a	n/a	n/a	n/a	n/a	15	2	6	7	n/a	n/a	n/a	n/a	n/a
2498.882	n/a	PROB	1249441	n/a	LTP133	ltpFR	12	n/a	n/a	n/a	n/a	n/a	n/a	n/a	12	4	3	5	n/a	n/a	n/a	n/a	n/a
2500.336	n/a	PROB	1250168	n/a	LTP133	ltpFR	12	n/a	n/a	n/a	n/a	n/a	n/a	n/a	13	4	7	2	n/a	n/a	n/a	n/a	n/a
2501.72	n/a	STOP	1250860	n/a	LTP133	ltpFR	12	n/a	n/a	n/a	n/a	n/a	n/a	n/a	n/a	n/a	n/a	n/a	n/a	n/a	n/a	n/a	n/a
2503.868	n/a	REC_START	1251934	n/a	LTP133	ltpFR	12	8	n/a	n/a	n/a	n/a	n/a	n/a	n/a	0	0	0	n/a	n/a	n/a	n/a	n/a
2506.68	n/a	REC_WORD	1253340	wordpools/wasnorm_wordpool.txt	LTP133	ltpFR	12	8	0	TRIBE	1505	n/a	n/a	1	n/a	0	0	0	n/a	n/a	n/a	n/a	n/a
2508.088	n/a	REC_WORD	1254044	wordpools/wasnorm_wordpool.txt	LTP133	ltpFR	12	8	0	HANDCUFFS	685	n/a	n/a	0	n/a	0	0	0	n/a	n/a	n/a	n/a	n/a
2509.998	n/a	REC_WORD	1254999	wordpools/wasnorm_wordpool.txt	LTP133	ltpFR	12	8	0	OFFICER	973	n/a	n/a	1	n/a	0	0	0	n/a	n/a	n/a	n/a	n/a
2513.99	n/a	REC_WORD	1256995	wordpools/wasnorm_wordpool.txt	LTP133	ltpFR	12	8	0	COCOON	339	n/a	n/a	0	n/a	0	0	0	n/a	n/a	n/a	n/a	n/a
2516.444	n/a	REC_WORD	1258222	wordpools/wasnorm_wordpool.txt	LTP133	ltpFR	12	8	0	BACON	67	n/a	n/a	0	n/a	0	0	0	n/a	n/a	n/a	n/a	n/a
2522.78	n/a	REC_WORD	1261390	wordpools/wasnorm_wordpool.txt	LTP133	ltpFR	12	8	0	PAW	1029	n/a	n/a	0	n/a	0	0	0	n/a	n/a	n/a	n/a	n/a
2526.546	n/a	REC_WORD	1263273	wordpools/wasnorm_wordpool.txt	LTP133	ltpFR	12	8	0	COOLER	375	n/a	n/a	0	n/a	0	0	0	n/a	n/a	n/a	n/a	n/a
2529.29	n/a	REC_WORD	1264645	wordpools/wasnorm_wordpool.txt	LTP133	ltpFR	12	8	0	ROOMMATE	1207	n/a	n/a	1	n/a	0	0	0	n/a	n/a	n/a	n/a	n/a
2534.478	n/a	REC_WORD	1267239	wordpools/wasnorm_wordpool.txt	LTP133	ltpFR	12	8	0	BOXER	160	n/a	n/a	1	n/a	0	0	0	n/a	n/a	n/a	n/a	n/a
2544.64	n/a	REC_WORD	1272320	wordpools/wasnorm_wordpool.txt	LTP133	ltpFR	12	8	1	MOVIE	927	n/a	n/a	0	n/a	0	0	0	n/a	n/a	n/a	n/a	n/a
2576.338	n/a	REC_WORD	1288169	wordpools/wasnorm_wordpool.txt	LTP133	ltpFR	12	8	0	COOK	372	n/a	n/a	1	n/a	0	0	0	n/a	n/a	n/a	n/a	n/a
2583.592	n/a	WORD	1291796	wordpools/wasnorm_wordpool.txt	LTP133	ltpFR	12	9	0	KNAPSACK	783	n/a	n/a	0	n/a	0	0	0	0.57763671875	0.412841796875	1	lower	zerothre.ttf
2587.47	n/a	WORD	1293735	wordpools/wasnorm_wordpool.txt	LTP133	ltpFR	12	9	0	SEED	1266	n/a	n/a	0	n/a	0	0	0	0.57763671875	0.412841796875	1	lower	zerothre.ttf
2591.476	n/a	WORD	1295738	wordpools/wasnorm_wordpool.txt	LTP133	ltpFR	12	9	1	CEREAL	272	n/a	n/a	0	n/a	0	0	0	0.422607421875	0.5869140625	0	upper	amplitud.ttf
2595.536	n/a	WORD	1297768	wordpools/wasnorm_wordpool.txt	LTP133	ltpFR	12	9	1	BIRD	129	n/a	n/a	0	n/a	0	0	0	0.422607421875	0.5869140625	0	upper	amplitud.ttf
2599.624	n/a	WORD	1299812	wordpools/wasnorm_wordpool.txt	LTP133	ltpFR	12	9	1	TREASURE	1500	n/a	n/a	0	n/a	0	0	0	0.422607421875	0.5869140625	0	upper	amplitud.ttf
2603.628	n/a	WORD	1301814	wordpools/wasnorm_wordpool.txt	LTP133	ltpFR	12	9	0	CHICK	296	n/a	n/a	0	n/a	0	0	0	0.57763671875	0.412841796875	1	lower	zerothre.ttf
2607.798	n/a	WORD	1303899	wordpools/wasnorm_wordpool.txt	LTP133	ltpFR	12	9	0	BROOK	177	n/a	n/a	1	n/a	0	0	0	0.57763671875	0.412841796875	1	lower	zerothre.ttf
2611.686	n/a	WORD	1305843	wordpools/wasnorm_wordpool.txt	LTP133	ltpFR	12	9	0	HOSE	720	n/a	n/a	0	n/a	0	0	0	0.57763671875	0.412841796875	1	lower	zerothre.ttf
2615.498	n/a	WORD	1307749	wordpools/wasnorm_wordpool.txt	LTP133	ltpFR	12	9	0	GROCERY	664	n/a	n/a	0	n/a	0	0	0	0.57763671875	0.412841796875	1	lower	zerothre.ttf
2619.392	n/a	WORD	1309696	wordpools/wasnorm_wordpool.txt	LTP133	ltpFR	12	9	0	LUNCH	849	n/a	n/a	0	n/a	0	0	0	0.57763671875	0.412841796875	1	lower	zerothre.ttf
2623.354	n/a	WORD	1311677	wordpools/wasnorm_wordpool.txt	LTP133	ltpFR	12	9	0	FLAG	573	n/a	n/a	0	n/a	0	0	0	0.57763671875	0.412841796875	1	lower	zerothre.ttf
2627.316	n/a	WORD	1313658	wordpools/wasnorm_wordpool.txt	LTP133	ltpFR	12	9	1	STAGE	1366	n/a	n/a	0	n/a	0	0	0	0.422607421875	0.5869140625	0	upper	amplitud.ttf
2631.304	n/a	WORD	1315652	wordpools/wasnorm_wordpool.txt	LTP133	ltpFR	12	9	1	PRODUCER	1129	n/a	n/a	1	n/a	0	0	0	0.422607421875	0.5869140625	0	upper	amplitud.ttf
2635.408	n/a	WORD	1317704	wordpools/wasnorm_wordpool.txt	LTP133	ltpFR	12	9	1	PARROT	1015	n/a	n/a	1	n/a	0	0	0	0.422607421875	0.5869140625	0	upper	amplitud.ttf
2639.536	n/a	WORD	1319768	wordpools/wasnorm_wordpool.txt	LTP133	ltpFR	12	9	1	UNIVERSE	1540	n/a	n/a	0	n/a	0	0	0	0.422607421875	0.5869140625	0	upper	amplitud.ttf
2643.506	n/a	WORD	1321753	wordpools/wasnorm_wordpool.txt	LTP133	ltpFR	12	9	1	JUPITER	765	n/a	n/a	0	n/a	0	0	0	0.422607421875	0.5869140625	0	upper	amplitud.ttf
2649.466	n/a	REC_START	1324733	n/a	LTP133	ltpFR	12	9	n/a	n/a	n/a	n/a	n/a	n/a	n/a	0	0	0	n/a	n/a	n/a	n/a	n/a
2651.058	n/a	REC_WORD	1325529	wordpools/wasnorm_wordpool.txt	LTP133	ltpFR	12	9	1	JUPITER	765	n/a	n/a	0	n/a	0	0	0	n/a	n/a	n/a	n/a	n/a
2652.344	n/a	REC_WORD	1326172	wordpools/wasnorm_wordpool.txt	LTP133	ltpFR	12	9	1	PARROT	1015	n/a	n/a	1	n/a	0	0	0	n/a	n/a	n/a	n/a	n/a
2653.742	n/a	REC_WORD	1326871	wordpools/wasnorm_wordpool.txt	LTP133	ltpFR	12	9	1	PRODUCER	1129	n/a	n/a	1	n/a	0	0	0	n/a	n/a	n/a	n/a	n/a
2655.238	n/a	REC_WORD	1327619	wordpools/wasnorm_wordpool.txt	LTP133	ltpFR	12	9	1	STAGE	1366	n/a	n/a	0	n/a	0	0	0	n/a	n/a	n/a	n/a	n/a
2663.804	n/a	REC_WORD	1331902	wordpools/wasnorm_wordpool.txt	LTP133	ltpFR	12	9	1	BIRD	129	n/a	n/a	0	n/a	0	0	0	n/a	n/a	n/a	n/a	n/a
3096.04	n/a	WORD	1548020	wordpools/wasnorm_wordpool.txt	LTP133	ltpFR	12	10	1	CUSTOMER	430	n/a	n/a	1	n/a	0	0	0	0.422607421875	0.5869140625	0	upper	amplitud.ttf
3099.952	n/a	WORD	1549976	wordpools/wasnorm_wordpool.txt	LTP133	ltpFR	12	10	1	KNUCKLE	789	n/a	n/a	0	n/a	0	0	0	0.422607421875	0.5869140625	0	upper	amplitud.ttf
3104.004	n/a	WORD	1552002	wordpools/wasnorm_wordpool.txt	LTP133	ltpFR	12	10	1	CARRIAGE	248	n/a	n/a	0	n/a	0	0	0	0.422607421875	0.5869140625	0	upper	amplitud.ttf
3107.858	n/a	WORD	1553929	wordpools/wasnorm_wordpool.txt	LTP133	ltpFR	12	10	0	STABLE	1363	n/a	n/a	1	n/a	0	0	0	0.57763671875	0.412841796875	1	lower	zerothre.ttf
3111.738	n/a	WORD	1555869	wordpools/wasnorm_wordpool.txt	LTP133	ltpFR	12	10	0	MAILMAN	858	n/a	n/a	0	n/a	0	0	0	0.57763671875	0.412841796875	1	lower	zerothre.ttf
3115.816	n/a	WORD	1557908	wordpools/wasnorm_wordpool.txt	LTP133	ltpFR	12	10	0	BOMB	147	n/a	n/a	0	n/a	0	0	0	0.57763671875	0.412841796875	1	lower	zerothre.ttf
3119.936	n/a	WORD	1559968	wordpools/wasnorm_wordpool.txt	LTP133	ltpFR	12	10	0	CHICKEN	297	n/a	n/a	0	n/a	0	0	0	0.57763671875	0.412841796875	1	lower	zerothre.ttf
3124.016	n/a	WORD	1562008	wordpools/wasnorm_wordpool.txt	LTP133	ltpFR	12	10	0	BOUILLON	154	n/a	n/a	0	n/a	0	0	0	0.57763671875	0.412841796875	1	lower	zerothre.ttf
3127.928	n/a	WORD	1563964	wordpools/wasnorm_wordpool.txt	LTP133	ltpFR	12	10	1	GLOVE	642	n/a	n/a	0	n/a	0	0	0	0.422607421875	0.5869140625	0	upper	amplitud.ttf
3132.056	n/a	WORD	1566028	wordpools/wasnorm_wordpool.txt	LTP133	ltpFR	12	10	1	HIKER	708	n/a	n/a	1	n/a	0	0	0	0.422607421875	0.5869140625	0	upper	amplitud.ttf
3136.11	n/a	WORD	1568055	wordpools/wasnorm_wordpool.txt	LTP133	ltpFR	12	10	1	SALESMAN	1225	n/a	n/a	1	n/a	0	0	0	0.422607421875	0.5869140625	0	upper	amplitud.ttf
3140.188	n/a	WORD	1570094	wordpools/wasnorm_wordpool.txt	LTP133	ltpFR	12	10	1	BROTHER	179	n/a	n/a	1	n/a	0	0	0	0.422607421875	0.5869140625	0	upper	amplitud.ttf
3144.342	n/a	WORD	1572171	wordpools/wasnorm_wordpool.txt	LTP133	ltpFR	12	10	1	FINGERNAIL	568	n/a	n/a	0	n/a	0	0	0	0.422607421875	0.5869140625	0	upper	amplitud.ttf
3148.188	n/a	WORD	1574094	wordpools/wasnorm_wordpool.txt	LTP133	ltpFR	12	10	0	STICKER	1382	n/a	n/a	0	n/a	0	0	0	0.57763671875	0.412841796875	1	lower	zerothre.ttf
3152.15	n/a	WORD	1576075	wordpools/wasnorm_wordpool.txt	LTP133	ltpFR	12	10	0	PISTON	1076	n/a	n/a	0	n/a	0	0	0	0.57763671875	0.412841796875	1	lower	zerothre.ttf
3156.162	n/a	WORD	1578081	wordpools/wasnorm_wordpool.txt	LTP133	ltpFR	12	10	0	CAPE	237	n/a	n/a	1	n/a	0	0	0	0.57763671875	0.412841796875	1	lower	zerothre.ttf
3159.166	n/a	START	1579583	n/a	LTP133	ltpFR	12	n/a	n/a	n/a	n/a	n/a	n/a	n/a	n/a	n/a	n/a	n/a	n/a	n/a	n/a	n/a	n/a
3160.116	n/a	PROB	1580058	n/a	LTP133	ltpFR	12	n/a	n/a	n/a	n/a	n/a	n/a	n/a	15	6	3	6	n/a	n/a	n/a	n/a	n/a
3161.596	n/a	PROB	1580798	n/a	LTP133	ltpFR	12	n/a	n/a	n/a	n/a	n/a	n/a	n/a	15	8	1	6	n/a	n/a	n/a	n/a	n/a
3163.402	n/a	PROB	1581701	n/a	LTP133	ltpFR	12	n/a	n/a	n/a	n/a	n/a	n/a	n/a	24	8	9	7	n/a	n/a	n/a	n/a	n/a
3165.176	n/a	PROB	1582588	n/a	LTP133	ltpFR	12	n/a	n/a	n/a	n/a	n/a	n/a	n/a	9	5	1	3	n/a	n/a	n/a	n/a	n/a
3166.336	n/a	STOP	1583168	n/a	LTP133	ltpFR	12	n/a	n/a	n/a	n/a	n/a	n/a	n/a	n/a	n/a	n/a	n/a	n/a	n/a	n/a	n/a	n/a
3169.082	n/a	REC_START	1584541	n/a	LTP133	ltpFR	12	10	n/a	n/a	n/a	n/a	n/a	n/a	n/a	0	0	0	n/a	n/a	n/a	n/a	n/a
3170.468	n/a	REC_WORD	1585234	wordpools/wasnorm_wordpool.txt	LTP133	ltpFR	12	10	0	CAPE	237	n/a	n/a	1	n/a	0	0	0	n/a	n/a	n/a	n/a	n/a
3171.834	n/a	REC_WORD	1585917	wordpools/wasnorm_wordpool.txt	LTP133	ltpFR	12	10	0	BOUILLON	154	n/a	n/a	0	n/a	0	0	0	n/a	n/a	n/a	n/a	n/a
3173.242	n/a	REC_WORD	1586621	wordpools/wasnorm_wordpool.txt	LTP133	ltpFR	12	10	1	GLOVE	642	n/a	n/a	0	n/a	0	0	0	n/a	n/a	n/a	n/a	n/a
3174.808	n/a	REC_WORD	1587404	wordpools/wasnorm_wordpool.txt	LTP133	ltpFR	12	10	1	HIKER	708	n/a	n/a	1	n/a	0	0	0	n/a	n/a	n/a	n/a	n/a
3178.046	n/a	REC_WORD	1589023	wordpools/wasnorm_wordpool.txt	LTP133	ltpFR	12	10	1	SALESMAN	1225	n/a	n/a	1	n/a	0	0	0	n/a	n/a	n/a	n/a	n/a
3181.128	n/a	REC_WORD	1590564	wordpools/wasnorm_wordpool.txt	LTP133	ltpFR	12	10	1	CARRIAGE	248	n/a	n/a	0	n/a	0	0	0	n/a	n/a	n/a	n/a	n/a
3182.376	n/a	REC_WORD	1591188	wordpools/wasnorm_wordpool.txt	LTP133	ltpFR	12	10	0	STABLE	1363	n/a	n/a	1	n/a	0	0	0	n/a	n/a	n/a	n/a	n/a
3184.186	n/a	REC_WORD	1592093	wordpools/wasnorm_wordpool.txt	LTP133	ltpFR	12	10	0	MAILMAN	858	n/a	n/a	0	n/a	0	0	0	n/a	n/a	n/a	n/a	n/a
3194.842	n/a	REC_WORD	1597421	wordpools/wasnorm_wordpool.txt	LTP133	ltpFR	12	10	1	CUSTOMER	430	n/a	n/a	1	n/a	0	0	0	n/a	n/a	n/a	n/a	n/a
3205.18	n/a	REC_WORD	1602590	wordpools/wasnorm_wordpool.txt	LTP133	ltpFR	12	10	0	CHICKEN	297	n/a	n/a	0	n/a	0	0	0	n/a	n/a	n/a	n/a	n/a
3244.66	n/a	REST_REWET	1622330	n/a	LTP133	ltpFR	12	10	n/a	n/a	n/a	n/a	n/a	n/a	n/a	0	0	0	n/a	n/a	n/a	n/a	n/a
3250.612	n/a	START	1625306	n/a	LTP133	ltpFR	12	n/a	n/a	n/a	n/a	n/a	n/a	n/a	n/a	n/a	n/a	n/a	n/a	n/a	n/a	n/a	n/a
3252.118	n/a	PROB	1626059	n/a	LTP133	ltpFR	12	n/a	n/a	n/a	n/a	n/a	n/a	n/a	14	1	6	7	n/a	n/a	n/a	n/a	n/a
3253.492	n/a	PROB	1626746	n/a	LTP133	ltpFR	12	n/a	n/a	n/a	n/a	n/a	n/a	n/a	11	4	5	2	n/a	n/a	n/a	n/a	n/a
3254.74	n/a	PROB	1627370	n/a	LTP133	ltpFR	12	n/a	n/a	n/a	n/a	n/a	n/a	n/a	9	3	3	3	n/a	n/a	n/a	n/a	n/a
3255.64	n/a	PROB	1627820	n/a	LTP133	ltpFR	12	n/a	n/a	n/a	n/a	n/a	n/a	n/a	16	2	8	6	n/a	n/a	n/a	n/a	n/a
3256.722	n/a	PROB	1628361	n/a	LTP133	ltpFR	12	n/a	n/a	n/a	n/a	n/a	n/a	n/a	20	7	5	8	n/a	n/a	n/a	n/a	n/a
3259.036	n/a	PROB	1629518	n/a	LTP133	ltpFR	12	n/a	n/a	n/a	n/a	n/a	n/a	n/a	14	6	4	4	n/a	n/a	n/a	n/a	n/a
3260.382	n/a	PROB	1630191	n/a	LTP133	ltpFR	12	n/a	n/a	n/a	n/a	n/a	n/a	n/a	26	9	8	9	n/a	n/a	n/a	n/a	n/a
3262.364	n/a	PROB	1631182	n/a	LTP133	ltpFR	12	n/a	n/a	n/a	n/a	n/a	n/a	n/a	6	1	3	2	n/a	n/a	n/a	n/a	n/a
3263.538	n/a	PROB	1631769	n/a	LTP133	ltpFR	12	n/a	n/a	n/a	n/a	n/a	n/a	n/a	23	9	7	7	n/a	n/a	n/a	n/a	n/a
3265.778	n/a	STOP	1632889	n/a	LTP133	ltpFR	12	n/a	n/a	n/a	n/a	n/a	n/a	n/a	n/a	n/a	n/a	n/a	n/a	n/a	n/a	n/a	n/a
3267.55	n/a	WORD	1633775	wordpools/wasnorm_wordpool.txt	LTP133	ltpFR	12	11	1	CONTRACTOR	369	n/a	n/a	1	n/a	0	0	0	0.422607421875	0.5869140625	0	upper	amplitud.ttf
3270.556	n/a	START	1635278	n/a	LTP133	ltpFR	12	n/a	n/a	n/a	n/a	n/a	n/a	n/a	n/a	n/a	n/a	n/a	n/a	n/a	n/a	n/a	n/a
3271.72	n/a	PROB	1635860	n/a	LTP133	ltpFR	12	n/a	n/a	n/a	n/a	n/a	n/a	n/a	16	5	5	6	n/a	n/a	n/a	n/a	n/a
3272.762	n/a	PROB	1636381	n/a	LTP133	ltpFR	12	n/a	n/a	n/a	n/a	n/a	n/a	n/a	16	3	4	9	n/a	n/a	n/a	n/a	n/a
3274.434	n/a	PROB	1637217	n/a	LTP133	ltpFR	12	n/a	n/a	n/a	n/a	n/a	n/a	n/a	20	4	7	9	n/a	n/a	n/a	n/a	n/a
3275.94	n/a	PROB	1637970	n/a	LTP133	ltpFR	12	n/a	n/a	n/a	n/a	n/a	n/a	n/a	14	2	7	5	n/a	n/a	n/a	n/a	n/a
3277.356	n/a	PROB	1638678	n/a	LTP133	ltpFR	12	n/a	n/a	n/a	n/a	n/a	n/a	n/a	21	9	6	6	n/a	n/a	n/a	n/a	n/a
3279.22	n/a	PROB	1639610	n/a	LTP133	ltpFR	12	n/a	n/a	n/a	n/a	n/a	n/a	n/a	19	1	9	9	n/a	n/a	n/a	n/a	n/a
3280.244	n/a	PROB	1640122	n/a	LTP133	ltpFR	12	n/a	n/a	n/a	n/a	n/a	n/a	n/a	12	1	6	5	n/a	n/a	n/a	n/a	n/a
3282.224	n/a	PROB	1641112	n/a	LTP133	ltpFR	12	n/a	n/a	n/a	n/a	n/a	n/a	n/a	19	7	6	6	n/a	n/a	n/a	n/a	n/a
3283.572	n/a	PROB	1641786	n/a	LTP133	ltpFR	12	n/a	n/a	n/a	n/a	n/a	n/a	n/a	13	5	5	3	n/a	n/a	n/a	n/a	n/a
3284.656	n/a	PROB	1642328	n/a	LTP133	ltpFR	12	n/a	n/a	n/a	n/a	n/a	n/a	n/a	16	9	1	6	n/a	n/a	n/a	n/a	n/a
3285.69	n/a	STOP	1642845	n/a	LTP133	ltpFR	12	n/a	n/a	n/a	n/a	n/a	n/a	n/a	n/a	n/a	n/a	n/a	n/a	n/a	n/a	n/a	n/a
3287.71	n/a	WORD	1643855	wordpools/wasnorm_wordpool.txt	LTP133	ltpFR	12	11	1	QUILT	1151	n/a	n/a	0	n/a	0	0	0	0.422607421875	0.5869140625	0	upper	amplitud.ttf
3290.716	n/a	START	1645358	n/a	LTP133	ltpFR	12	n/a	n/a	n/a	n/a	n/a	n/a	n/a	n/a	n/a	n/a	n/a	n/a	n/a	n/a	n/a	n/a
3291.916	n/a	PROB	1645958	n/a	LTP133	ltpFR	12	n/a	n/a	n/a	n/a	n/a	n/a	n/a	12	8	3	1	n/a	n/a	n/a	n/a	n/a
3293.42	n/a	PROB	1646710	n/a	LTP133	ltpFR	12	n/a	n/a	n/a	n/a	n/a	n/a	n/a	18	7	4	7	n/a	n/a	n/a	n/a	n/a
3294.854	n/a	PROB	1647427	n/a	LTP133	ltpFR	12	n/a	n/a	n/a	n/a	n/a	n/a	n/a	26	7	7	9	n/a	n/a	n/a	n/a	n/a
3296.626	n/a	PROB	1648313	n/a	LTP133	ltpFR	12	n/a	n/a	n/a	n/a	n/a	n/a	n/a	12	5	6	1	n/a	n/a	n/a	n/a	n/a
3298.05	n/a	PROB	1649025	n/a	LTP133	ltpFR	12	n/a	n/a	n/a	n/a	n/a	n/a	n/a	24	8	8	8	n/a	n/a	n/a	n/a	n/a
3300.438	n/a	PROB	1650219	n/a	LTP133	ltpFR	12	n/a	n/a	n/a	n/a	n/a	n/a	n/a	21	6	7	8	n/a	n/a	n/a	n/a	n/a
3302.21	n/a	PROB	1651105	n/a	LTP133	ltpFR	12	n/a	n/a	n/a	n/a	n/a	n/a	n/a	15	5	6	4	n/a	n/a	n/a	n/a	n/a
3303.35	n/a	PROB	1651675	n/a	LTP133	ltpFR	12	n/a	n/a	n/a	n/a	n/a	n/a	n/a	14	3	8	3	n/a	n/a	n/a	n/a	n/a
3304.708	n/a	PROB	1652354	n/a	LTP133	ltpFR	12	n/a	n/a	n/a	n/a	n/a	n/a	n/a	18	2	8	8	n/a	n/a	n/a	n/a	n/a
3305.74	n/a	STOP	1652870	n/a	LTP133	ltpFR	12	n/a	n/a	n/a	n/a	n/a	n/a	n/a	n/a	n/a	n/a	n/a	n/a	n/a	n/a	n/a	n/a
3307.854	n/a	WORD	1653927	wordpools/wasnorm_wordpool.txt	LTP133	ltpFR	12	11	1	MONKEY	911	n/a	n/a	1	n/a	0	0	0	0.422607421875	0.5869140625	0	upper	amplitud.ttf
3310.86	n/a	START	1655430	n/a	LTP133	ltpFR	12	n/a	n/a	n/a	n/a	n/a	n/a	n/a	n/a	n/a	n/a	n/a	n/a	n/a	n/a	n/a	n/a
3311.742	n/a	PROB	1655871	n/a	LTP133	ltpFR	12	n/a	n/a	n/a	n/a	n/a	n/a	n/a	16	7	2	7	n/a	n/a	n/a	n/a	n/a
3313.164	n/a	PROB	1656582	n/a	LTP133	ltpFR	12	n/a	n/a	n/a	n/a	n/a	n/a	n/a	17	9	6	2	n/a	n/a	n/a	n/a	n/a
3314.656	n/a	PROB	1657328	n/a	LTP133	ltpFR	12	n/a	n/a	n/a	n/a	n/a	n/a	n/a	16	2	5	9	n/a	n/a	n/a	n/a	n/a
3316.37	n/a	PROB	1658185	n/a	LTP133	ltpFR	12	n/a	n/a	n/a	n/a	n/a	n/a	n/a	13	5	2	6	n/a	n/a	n/a	n/a	n/a
3317.568	n/a	PROB	1658784	n/a	LTP133	ltpFR	12	n/a	n/a	n/a	n/a	n/a	n/a	n/a	17	6	6	5	n/a	n/a	n/a	n/a	n/a
3319.076	n/a	PROB	1659538	n/a	LTP133	ltpFR	12	n/a	n/a	n/a	n/a	n/a	n/a	n/a	19	9	6	4	n/a	n/a	n/a	n/a	n/a
3320.398	n/a	PROB	1660199	n/a	LTP133	ltpFR	12	n/a	n/a	n/a	n/a	n/a	n/a	n/a	11	4	2	5	n/a	n/a	n/a	n/a	n/a
3321.504	n/a	PROB	1660752	n/a	LTP133	ltpFR	12	n/a	n/a	n/a	n/a	n/a	n/a	n/a	18	3	7	8	n/a	n/a	n/a	n/a	n/a
3322.554	n/a	PROB	1661277	n/a	LTP133	ltpFR	12	n/a	n/a	n/a	n/a	n/a	n/a	n/a	5	1	2	2	n/a	n/a	n/a	n/a	n/a
3323.878	n/a	PROB	1661939	n/a	LTP133	ltpFR	12	n/a	n/a	n/a	n/a	n/a	n/a	n/a	22	7	9	6	n/a	n/a	n/a	n/a	n/a
3325.554	n/a	STOP	1662777	n/a	LTP133	ltpFR	12	n/a	n/a	n/a	n/a	n/a	n/a	n/a	n/a	n/a	n/a	n/a	n/a	n/a	n/a	n/a	n/a
3327.882	n/a	WORD	1663941	wordpools/wasnorm_wordpool.txt	LTP133	ltpFR	12	11	1	HUMAN	726	n/a	n/a	1	n/a	0	0	0	0.422607421875	0.5869140625	0	upper	amplitud.ttf
3330.888	n/a	START	1665444	n/a	LTP133	ltpFR	12	n/a	n/a	n/a	n/a	n/a	n/a	n/a	n/a	n/a	n/a	n/a	n/a	n/a	n/a	n/a	n/a
3332.002	n/a	PROB	1666001	n/a	LTP133	ltpFR	12	n/a	n/a	n/a	n/a	n/a	n/a	n/a	8	3	2	3	n/a	n/a	n/a	n/a	n/a
3333.332	n/a	PROB	1666666	n/a	LTP133	ltpFR	12	n/a	n/a	n/a	n/a	n/a	n/a	n/a	19	9	6	4	n/a	n/a	n/a	n/a	n/a
3334.832	n/a	PROB	1667416	n/a	LTP133	ltpFR	12	n/a	n/a	n/a	n/a	n/a	n/a	n/a	12	6	4	2	n/a	n/a	n/a	n/a	n/a
3336.204	n/a	PROB	1668102	n/a	LTP133	ltpFR	12	n/a	n/a	n/a	n/a	n/a	n/a	n/a	22	6	8	8	n/a	n/a	n/a	n/a	n/a
3338.476	n/a	PROB	1669238	n/a	LTP133	ltpFR	12	n/a	n/a	n/a	n/a	n/a	n/a	n/a	17	5	6	6	n/a	n/a	n/a	n/a	n/a
3340.026	n/a	PROB	1670013	n/a	LTP133	ltpFR	12	n/a	n/a	n/a	n/a	n/a	n/a	n/a	20	4	9	7	n/a	n/a	n/a	n/a	n/a
3342.106	n/a	PROB	1671053	n/a	LTP133	ltpFR	12	n/a	n/a	n/a	n/a	n/a	n/a	n/a	17	6	6	5	n/a	n/a	n/a	n/a	n/a
3343.48	n/a	PROB	1671740	n/a	LTP133	ltpFR	12	n/a	n/a	n/a	n/a	n/a	n/a	n/a	14	9	2	3	n/a	n/a	n/a	n/a	n/a
3345.402	n/a	STOP	1672701	n/a	LTP133	ltpFR	12	n/a	n/a	n/a	n/a	n/a	n/a	n/a	n/a	n/a	n/a	n/a	n/a	n/a	n/a	n/a	n/a
3347.992	n/a	WORD	1673996	wordpools/wasnorm_wordpool.txt	LTP133	ltpFR	12	11	1	DIAPER	459	n/a	n/a	0	n/a	0	0	0	0.422607421875	0.5869140625	0	upper	amplitud.ttf
3350.998	n/a	START	1675499	n/a	LTP133	ltpFR	12	n/a	n/a	n/a	n/a	n/a	n/a	n/a	n/a	n/a	n/a	n/a	n/a	n/a	n/a	n/a	n/a
3352.12	n/a	PROB	1676060	n/a	LTP133	ltpFR	12	n/a	n/a	n/a	n/a	n/a	n/a	n/a	19	7	7	5	n/a	n/a	n/a	n/a	n/a
3353.776	n/a	PROB	1676888	n/a	LTP133	ltpFR	12	n/a	n/a	n/a	n/a	n/a	n/a	n/a	13	9	1	3	n/a	n/a	n/a	n/a	n/a
3355.026	n/a	PROB	1677513	n/a	LTP133	ltpFR	12	n/a	n/a	n/a	n/a	n/a	n/a	n/a	19	2	8	9	n/a	n/a	n/a	n/a	n/a
3356.158	n/a	PROB	1678079	n/a	LTP133	ltpFR	12	n/a	n/a	n/a	n/a	n/a	n/a	n/a	14	4	9	1	n/a	n/a	n/a	n/a	n/a
3357.622	n/a	PROB	1678811	n/a	LTP133	ltpFR	12	n/a	n/a	n/a	n/a	n/a	n/a	n/a	27	9	8	8	n/a	n/a	n/a	n/a	n/a
3360.434	n/a	PROB	1680217	n/a	LTP133	ltpFR	12	n/a	n/a	n/a	n/a	n/a	n/a	n/a	25	8	8	9	n/a	n/a	n/a	n/a	n/a
3363.79	n/a	PROB	1681895	n/a	LTP133	ltpFR	12	n/a	n/a	n/a	n/a	n/a	n/a	n/a	15	4	7	4	n/a	n/a	n/a	n/a	n/a
3364.872	n/a	PROB	1682436	n/a	LTP133	ltpFR	12	n/a	n/a	n/a	n/a	n/a	n/a	n/a	22	9	3	9	n/a	n/a	n/a	n/a	n/a
3366.788	n/a	STOP	1683394	n/a	LTP133	ltpFR	12	n/a	n/a	n/a	n/a	n/a	n/a	n/a	n/a	n/a	n/a	n/a	n/a	n/a	n/a	n/a	n/a
3367.968	n/a	WORD	1683984	wordpools/wasnorm_wordpool.txt	LTP133	ltpFR	12	11	1	GOO	648	n/a	n/a	0	n/a	0	0	0	0.422607421875	0.5869140625	0	upper	amplitud.ttf
3370.976	n/a	START	1685488	n/a	LTP133	ltpFR	12	n/a	n/a	n/a	n/a	n/a	n/a	n/a	n/a	n/a	n/a	n/a	n/a	n/a	n/a	n/a	n/a
3371.94	n/a	PROB	1685970	n/a	LTP133	ltpFR	12	n/a	n/a	n/a	n/a	n/a	n/a	n/a	20	6	7	7	n/a	n/a	n/a	n/a	n/a
3374.112	n/a	PROB	1687056	n/a	LTP133	ltpFR	12	n/a	n/a	n/a	n/a	n/a	n/a	n/a	10	1	1	8	n/a	n/a	n/a	n/a	n/a
3376.684	n/a	PROB	1688342	n/a	LTP133	ltpFR	12	n/a	n/a	n/a	n/a	n/a	n/a	n/a	16	2	8	6	n/a	n/a	n/a	n/a	n/a
3377.866	n/a	PROB	1688933	n/a	LTP133	ltpFR	12	n/a	n/a	n/a	n/a	n/a	n/a	n/a	19	6	8	5	n/a	n/a	n/a	n/a	n/a
3379.388	n/a	PROB	1689694	n/a	LTP133	ltpFR	12	n/a	n/a	n/a	n/a	n/a	n/a	n/a	16	9	6	1	n/a	n/a	n/a	n/a	n/a
3380.88	n/a	PROB	1690440	n/a	LTP133	ltpFR	12	n/a	n/a	n/a	n/a	n/a	n/a	n/a	20	6	8	6	n/a	n/a	n/a	n/a	n/a
3382.62	n/a	PROB	1691310	n/a	LTP133	ltpFR	12	n/a	n/a	n/a	n/a	n/a	n/a	n/a	15	4	5	6	n/a	n/a	n/a	n/a	n/a
3384.052	n/a	PROB	1692026	n/a	LTP133	ltpFR	12	n/a	n/a	n/a	n/a	n/a	n/a	n/a	23	9	8	6	n/a	n/a	n/a	n/a	n/a
3385.466	n/a	PROB	1692733	n/a	LTP133	ltpFR	12	n/a	n/a	n/a	n/a	n/a	n/a	n/a	21	8	5	8	n/a	n/a	n/a	n/a	n/a
3386.756	n/a	STOP	1693378	n/a	LTP133	ltpFR	12	n/a	n/a	n/a	n/a	n/a	n/a	n/a	n/a	n/a	n/a	n/a	n/a	n/a	n/a	n/a	n/a
3387.846	n/a	WORD	1693923	wordpools/wasnorm_wordpool.txt	LTP133	ltpFR	12	11	1	GROOM	665	n/a	n/a	1	n/a	0	0	0	0.422607421875	0.5869140625	0	upper	amplitud.ttf
3390.852	n/a	START	1695426	n/a	LTP133	ltpFR	12	n/a	n/a	n/a	n/a	n/a	n/a	n/a	n/a	n/a	n/a	n/a	n/a	n/a	n/a	n/a	n/a
3391.9	n/a	PROB	1695950	n/a	LTP133	ltpFR	12	n/a	n/a	n/a	n/a	n/a	n/a	n/a	14	1	5	8	n/a	n/a	n/a	n/a	n/a
3393.306	n/a	PROB	1696653	n/a	LTP133	ltpFR	12	n/a	n/a	n/a	n/a	n/a	n/a	n/a	23	7	9	7	n/a	n/a	n/a	n/a	n/a
3394.814	n/a	PROB	1697407	n/a	LTP133	ltpFR	12	n/a	n/a	n/a	n/a	n/a	n/a	n/a	13	8	1	4	n/a	n/a	n/a	n/a	n/a
3396.402	n/a	PROB	1698201	n/a	LTP133	ltpFR	12	n/a	n/a	n/a	n/a	n/a	n/a	n/a	21	5	7	9	n/a	n/a	n/a	n/a	n/a
3398.102	n/a	PROB	1699051	n/a	LTP133	ltpFR	12	n/a	n/a	n/a	n/a	n/a	n/a	n/a	20	6	8	6	n/a	n/a	n/a	n/a	n/a
3400.116	n/a	PROB	1700058	n/a	LTP133	ltpFR	12	n/a	n/a	n/a	n/a	n/a	n/a	n/a	15	5	3	7	n/a	n/a	n/a	n/a	n/a
3401.264	n/a	PROB	1700632	n/a	LTP133	ltpFR	12	n/a	n/a	n/a	n/a	n/a	n/a	n/a	13	2	2	9	n/a	n/a	n/a	n/a	n/a
3402.354	n/a	PROB	1701177	n/a	LTP133	ltpFR	12	n/a	n/a	n/a	n/a	n/a	n/a	n/a	15	5	1	9	n/a	n/a	n/a	n/a	n/a
3403.444	n/a	PROB	1701722	n/a	LTP133	ltpFR	12	n/a	n/a	n/a	n/a	n/a	n/a	n/a	11	6	2	3	n/a	n/a	n/a	n/a	n/a
3404.96	n/a	PROB	1702480	n/a	LTP133	ltpFR	12	n/a	n/a	n/a	n/a	n/a	n/a	n/a	12	3	2	7	n/a	n/a	n/a	n/a	n/a
3405.964	n/a	STOP	1702982	n/a	LTP133	ltpFR	12	n/a	n/a	n/a	n/a	n/a	n/a	n/a	n/a	n/a	n/a	n/a	n/a	n/a	n/a	n/a	n/a
3407.856	n/a	WORD	1703928	wordpools/wasnorm_wordpool.txt	LTP133	ltpFR	12	11	1	OUTFIT	988	n/a	n/a	0	n/a	0	0	0	0.422607421875	0.5869140625	0	upper	amplitud.ttf
3410.862	n/a	START	1705431	n/a	LTP133	ltpFR	12	n/a	n/a	n/a	n/a	n/a	n/a	n/a	n/a	n/a	n/a	n/a	n/a	n/a	n/a	n/a	n/a
3411.718	n/a	PROB	1705859	n/a	LTP133	ltpFR	12	n/a	n/a	n/a	n/a	n/a	n/a	n/a	16	1	9	6	n/a	n/a	n/a	n/a	n/a
3412.95	n/a	PROB	1706475	n/a	LTP133	ltpFR	12	n/a	n/a	n/a	n/a	n/a	n/a	n/a	15	4	8	3	n/a	n/a	n/a	n/a	n/a
3414.74	n/a	PROB	1707370	n/a	LTP133	ltpFR	12	n/a	n/a	n/a	n/a	n/a	n/a	n/a	12	8	3	1	n/a	n/a	n/a	n/a	n/a
3416.446	n/a	PROB	1708223	n/a	LTP133	ltpFR	12	n/a	n/a	n/a	n/a	n/a	n/a	n/a	13	4	7	2	n/a	n/a	n/a	n/a	n/a
3418.168	n/a	PROB	1709084	n/a	LTP133	ltpFR	12	n/a	n/a	n/a	n/a	n/a	n/a	n/a	15	2	5	8	n/a	n/a	n/a	n/a	n/a
3419.376	n/a	PROB	1709688	n/a	LTP133	ltpFR	12	n/a	n/a	n/a	n/a	n/a	n/a	n/a	4	2	1	1	n/a	n/a	n/a	n/a	n/a
3421.034	n/a	PROB	1710517	n/a	LTP133	ltpFR	12	n/a	n/a	n/a	n/a	n/a	n/a	n/a	12	4	4	4	n/a	n/a	n/a	n/a	n/a
3422.18	n/a	PROB	1711090	n/a	LTP133	ltpFR	12	n/a	n/a	n/a	n/a	n/a	n/a	n/a	13	4	1	8	n/a	n/a	n/a	n/a	n/a
3423.52	n/a	PROB	1711760	n/a	LTP133	ltpFR	12	n/a	n/a	n/a	n/a	n/a	n/a	n/a	17	7	7	3	n/a	n/a	n/a	n/a	n/a
3424.888	n/a	PROB	1712444	n/a	LTP133	ltpFR	12	n/a	n/a	n/a	n/a	n/a	n/a	n/a	8	2	2	4	n/a	n/a	n/a	n/a	n/a
3426.284	n/a	STOP	1713142	n/a	LTP133	ltpFR	12	n/a	n/a	n/a	n/a	n/a	n/a	n/a	n/a	n/a	n/a	n/a	n/a	n/a	n/a	n/a	n/a
3427.7	n/a	WORD	1713850	wordpools/wasnorm_wordpool.txt	LTP133	ltpFR	12	11	1	PERISCOPE	1050	n/a	n/a	0	n/a	0	0	0	0.422607421875	0.5869140625	0	upper	amplitud.ttf
3430.706	n/a	START	1715353	n/a	LTP133	ltpFR	12	n/a	n/a	n/a	n/a	n/a	n/a	n/a	n/a	n/a	n/a	n/a	n/a	n/a	n/a	n/a	n/a
3431.638	n/a	PROB	1715819	n/a	LTP133	ltpFR	12	n/a	n/a	n/a	n/a	n/a	n/a	n/a	10	1	2	7	n/a	n/a	n/a	n/a	n/a
3432.978	n/a	PROB	1716489	n/a	LTP133	ltpFR	12	n/a	n/a	n/a	n/a	n/a	n/a	n/a	13	5	5	3	n/a	n/a	n/a	n/a	n/a
3434.094	n/a	PROB	1717047	n/a	LTP133	ltpFR	12	n/a	n/a	n/a	n/a	n/a	n/a	n/a	12	2	4	6	n/a	n/a	n/a	n/a	n/a
3435.54	n/a	PROB	1717770	n/a	LTP133	ltpFR	12	n/a	n/a	n/a	n/a	n/a	n/a	n/a	156	7	4	5	n/a	n/a	n/a	n/a	n/a
3437.024	n/a	PROB	1718512	n/a	LTP133	ltpFR	12	n/a	n/a	n/a	n/a	n/a	n/a	n/a	15	5	2	8	n/a	n/a	n/a	n/a	n/a
3438.804	n/a	PROB	1719402	n/a	LTP133	ltpFR	12	n/a	n/a	n/a	n/a	n/a	n/a	n/a	15	5	8	2	n/a	n/a	n/a	n/a	n/a
3440.352	n/a	PROB	1720176	n/a	LTP133	ltpFR	12	n/a	n/a	n/a	n/a	n/a	n/a	n/a	18	8	8	2	n/a	n/a	n/a	n/a	n/a
3441.55	n/a	PROB	1720775	n/a	LTP133	ltpFR	12	n/a	n/a	n/a	n/a	n/a	n/a	n/a	21	9	8	4	n/a	n/a	n/a	n/a	n/a
3444.338	n/a	PROB	1722169	n/a	LTP133	ltpFR	12	n/a	n/a	n/a	n/a	n/a	n/a	n/a	10	3	5	2	n/a	n/a	n/a	n/a	n/a
3445.844	n/a	STOP	1722922	n/a	LTP133	ltpFR	12	n/a	n/a	n/a	n/a	n/a	n/a	n/a	n/a	n/a	n/a	n/a	n/a	n/a	n/a	n/a	n/a
3447.528	n/a	WORD	1723764	wordpools/wasnorm_wordpool.txt	LTP133	ltpFR	12	11	1	CHERRY	293	n/a	n/a	1	n/a	0	0	0	0.422607421875	0.5869140625	0	upper	amplitud.ttf
3450.532	n/a	START	1725266	n/a	LTP133	ltpFR	12	n/a	n/a	n/a	n/a	n/a	n/a	n/a	n/a	n/a	n/a	n/a	n/a	n/a	n/a	n/a	n/a
3451.716	n/a	PROB	1725858	n/a	LTP133	ltpFR	12	n/a	n/a	n/a	n/a	n/a	n/a	n/a	24	9	7	8	n/a	n/a	n/a	n/a	n/a
3453.538	n/a	PROB	1726769	n/a	LTP133	ltpFR	12	n/a	n/a	n/a	n/a	n/a	n/a	n/a	18	5	6	7	n/a	n/a	n/a	n/a	n/a
