onset	duration	trial_type	sample	stim_file	subject	experiment	session	trial	item_name	item_num	list	answer	test_x	test_y	test_z
219.244	n/a	SESS_START	109622	n/a	LTP318	ltpFR2	14	n/a	n/a	n/a	n/a	n/a	0	0	0
267.052	n/a	START	133526	n/a	LTP318	ltpFR2	14	n/a	n/a	n/a	-1	n/a	n/a	n/a	n/a
267.068	n/a	PROB	133534	n/a	LTP318	ltpFR2	14	n/a	n/a	n/a	-1	14	6	6	2
269.284	n/a	PROB	134642	n/a	LTP318	ltpFR2	14	n/a	n/a	n/a	-1	19	9	9	1
271.252	n/a	PROB	135626	n/a	LTP318	ltpFR2	14	n/a	n/a	n/a	-1	14	1	6	7
273.44	n/a	PROB	136720	n/a	LTP318	ltpFR2	14	n/a	n/a	n/a	-1	3	1	1	1
274.858	n/a	PROB	137429	n/a	LTP318	ltpFR2	14	n/a	n/a	n/a	-1	6	2	1	3
276.608	n/a	PROB	138304	n/a	LTP318	ltpFR2	14	n/a	n/a	n/a	-1	12	3	2	7
278.434	n/a	STOP	139217	n/a	LTP318	ltpFR2	14	n/a	n/a	n/a	-1	n/a	n/a	n/a	n/a
310.988	n/a	WORD	155494	wordpools/wasnorm_wordpool_576.txt	LTP318	ltpFR2	14	1	PATIENT	1024	n/a	n/a	0	0	0
313.774	n/a	WORD	156887	wordpools/wasnorm_wordpool_576.txt	LTP318	ltpFR2	14	1	OINTMENT	974	n/a	n/a	0	0	0
316.308	n/a	WORD	158154	wordpools/wasnorm_wordpool_576.txt	LTP318	ltpFR2	14	1	BINDER	127	n/a	n/a	0	0	0
319.144	n/a	WORD	159572	wordpools/wasnorm_wordpool_576.txt	LTP318	ltpFR2	14	1	SUMMIT	1405	n/a	n/a	0	0	0
321.964	n/a	WORD	160982	wordpools/wasnorm_wordpool_576.txt	LTP318	ltpFR2	14	1	SHORTS	1293	n/a	n/a	0	0	0
324.782	n/a	WORD	162391	wordpools/wasnorm_wordpool_576.txt	LTP318	ltpFR2	14	1	JEANS	752	n/a	n/a	0	0	0
327.268	n/a	WORD	163634	wordpools/wasnorm_wordpool_576.txt	LTP318	ltpFR2	14	1	SNAKE	1333	n/a	n/a	0	0	0
329.72	n/a	WORD	164860	wordpools/wasnorm_wordpool_576.txt	LTP318	ltpFR2	14	1	KNAPSACK	783	n/a	n/a	0	0	0
332.172	n/a	WORD	166086	wordpools/wasnorm_wordpool_576.txt	LTP318	ltpFR2	14	1	TEACHER	1440	n/a	n/a	0	0	0
334.99	n/a	WORD	167495	wordpools/wasnorm_wordpool_576.txt	LTP318	ltpFR2	14	1	FLIPPER	580	n/a	n/a	0	0	0
337.76	n/a	WORD	168880	wordpools/wasnorm_wordpool_576.txt	LTP318	ltpFR2	14	1	MAILBOX	857	n/a	n/a	0	0	0
340.482	n/a	WORD	170241	wordpools/wasnorm_wordpool_576.txt	LTP318	ltpFR2	14	1	DRUG	501	n/a	n/a	0	0	0
343.23	n/a	WORD	171615	wordpools/wasnorm_wordpool_576.txt	LTP318	ltpFR2	14	1	FINGER	567	n/a	n/a	0	0	0
345.982	n/a	WORD	172991	wordpools/wasnorm_wordpool_576.txt	LTP318	ltpFR2	14	1	CYCLONE	431	n/a	n/a	0	0	0
348.602	n/a	WORD	174301	wordpools/wasnorm_wordpool_576.txt	LTP318	ltpFR2	14	1	CELLAR	267	n/a	n/a	0	0	0
351.036	n/a	WORD	175518	wordpools/wasnorm_wordpool_576.txt	LTP318	ltpFR2	14	1	VALVE	1546	n/a	n/a	0	0	0
353.622	n/a	WORD	176811	wordpools/wasnorm_wordpool_576.txt	LTP318	ltpFR2	14	1	MOTOR	922	n/a	n/a	0	0	0
356.172	n/a	WORD	178086	wordpools/wasnorm_wordpool_576.txt	LTP318	ltpFR2	14	1	JUNGLE	764	n/a	n/a	0	0	0
358.876	n/a	WORD	179438	wordpools/wasnorm_wordpool_576.txt	LTP318	ltpFR2	14	1	BLUEPRINT	142	n/a	n/a	0	0	0
361.312	n/a	WORD	180656	wordpools/wasnorm_wordpool_576.txt	LTP318	ltpFR2	14	1	HAND	683	n/a	n/a	0	0	0
363.864	n/a	WORD	181932	wordpools/wasnorm_wordpool_576.txt	LTP318	ltpFR2	14	1	TABLET	1427	n/a	n/a	0	0	0
366.55	n/a	WORD	183275	wordpools/wasnorm_wordpool_576.txt	LTP318	ltpFR2	14	1	HOOD	714	n/a	n/a	0	0	0
369.234	n/a	WORD	184617	wordpools/wasnorm_wordpool_576.txt	LTP318	ltpFR2	14	1	ORANGE	980	n/a	n/a	0	0	0
371.824	n/a	WORD	185912	wordpools/wasnorm_wordpool_576.txt	LTP318	ltpFR2	14	1	WARDROBE	1587	n/a	n/a	0	0	0
373.44	n/a	START	186720	n/a	LTP318	ltpFR2	14	n/a	n/a	n/a	1	n/a	n/a	n/a	n/a
374.594	n/a	DISTRACTOR	187297	n/a	LTP318	ltpFR2	14	1	n/a	n/a	n/a	n/a	0	0	0
374.606	n/a	PROB	187303	n/a	LTP318	ltpFR2	14	n/a	n/a	n/a	1	4	1	1	2
376.546	n/a	PROB	188273	n/a	LTP318	ltpFR2	14	n/a	n/a	n/a	1	13	6	4	3
378.128	n/a	PROB	189064	n/a	LTP318	ltpFR2	14	n/a	n/a	n/a	1	17	7	7	3
379.48	n/a	PROB	189740	n/a	LTP318	ltpFR2	14	n/a	n/a	n/a	1	15	5	6	4
381.416	n/a	PROB	190708	n/a	LTP318	ltpFR2	14	n/a	n/a	n/a	1	12	8	3	1
382.866	n/a	PROB	191433	n/a	LTP318	ltpFR2	14	n/a	n/a	n/a	1	11	4	6	1
383.932	n/a	PROB	191966	n/a	LTP318	ltpFR2	14	n/a	n/a	n/a	1	13	1	4	8
386.154	n/a	PROB	193077	n/a	LTP318	ltpFR2	14	n/a	n/a	n/a	1	14	2	7	5
388.32	n/a	PROB	194160	n/a	LTP318	ltpFR2	14	n/a	n/a	n/a	1	13	3	8	2
389.856	n/a	PROB	194928	n/a	LTP318	ltpFR2	14	n/a	n/a	n/a	1	13	1	5	7
391.724	n/a	PROB	195862	n/a	LTP318	ltpFR2	14	n/a	n/a	n/a	1	14	7	5	2
393.46	n/a	PROB	196730	n/a	LTP318	ltpFR2	14	n/a	n/a	n/a	1	14	9	3	2
395.144	n/a	PROB	197572	n/a	LTP318	ltpFR2	14	n/a	n/a	n/a	1	20	4	7	9
396.972	n/a	STOP	198486	n/a	LTP318	ltpFR2	14	n/a	n/a	n/a	1	n/a	n/a	n/a	n/a
399.266	n/a	REC_START	199633	n/a	LTP318	ltpFR2	14	1	n/a	n/a	n/a	n/a	0	0	0
402.926	n/a	REC_WORD	201463	wordpools/wasnorm_wordpool_576.txt	LTP318	ltpFR2	14	1	PATIENT	1024	n/a	n/a	0	0	0
404.27	n/a	REC_WORD	202135	wordpools/wasnorm_wordpool_576.txt	LTP318	ltpFR2	14	1	OINTMENT	974	n/a	n/a	0	0	0
405.49	n/a	REC_WORD_VV	202745	wordpools/wasnorm_wordpool_576.txt	LTP318	ltpFR2	14	1	<>	-1	n/a	n/a	0	0	0
406.49	n/a	REC_WORD_VV	203245	wordpools/wasnorm_wordpool_576.txt	LTP318	ltpFR2	14	1	<>	-1	n/a	n/a	0	0	0
411.454	n/a	REC_WORD	205727	wordpools/wasnorm_wordpool_576.txt	LTP318	ltpFR2	14	1	SNAKE	1333	n/a	n/a	0	0	0
413.352	n/a	REC_WORD_VV	206676	wordpools/wasnorm_wordpool_576.txt	LTP318	ltpFR2	14	1	<>	-1	n/a	n/a	0	0	0
414.6	n/a	REC_WORD	207300	wordpools/wasnorm_wordpool_576.txt	LTP318	ltpFR2	14	1	SUMMIT	1405	n/a	n/a	0	0	0
417.276	n/a	REC_WORD_VV	208638	wordpools/wasnorm_wordpool_576.txt	LTP318	ltpFR2	14	1	<>	-1	n/a	n/a	0	0	0
419.828	n/a	REC_WORD	209914	wordpools/wasnorm_wordpool_576.txt	LTP318	ltpFR2	14	1	SUMMIT	1405	n/a	n/a	0	0	0
420.744	n/a	REC_WORD_VV	210372	wordpools/wasnorm_wordpool_576.txt	LTP318	ltpFR2	14	1	<>	-1	n/a	n/a	0	0	0
422.06	n/a	REC_WORD	211030	wordpools/wasnorm_wordpool_576.txt	LTP318	ltpFR2	14	1	TEACHER	1440	n/a	n/a	0	0	0
424.56	n/a	REC_WORD	212280	wordpools/wasnorm_wordpool_576.txt	LTP318	ltpFR2	14	1	CELLAR	267	n/a	n/a	0	0	0
425.16	n/a	REC_WORD	212580	wordpools/wasnorm_wordpool_576.txt	LTP318	ltpFR2	14	1	VALVE	1546	n/a	n/a	0	0	0
425.7	n/a	REC_WORD	212850	wordpools/wasnorm_wordpool_576.txt	LTP318	ltpFR2	14	1	MOTOR	922	n/a	n/a	0	0	0
427.786	n/a	REC_WORD	213893	wordpools/wasnorm_wordpool_576.txt	LTP318	ltpFR2	14	1	SHORTS	1293	n/a	n/a	0	0	0
428.49	n/a	REC_WORD	214245	wordpools/wasnorm_wordpool_576.txt	LTP318	ltpFR2	14	1	JEANS	752	n/a	n/a	0	0	0
429.642	n/a	REC_WORD	214821	wordpools/wasnorm_wordpool_576.txt	LTP318	ltpFR2	14	1	BINDER	127	n/a	n/a	0	0	0
434.14	n/a	REC_WORD	217070	wordpools/wasnorm_wordpool_576.txt	LTP318	ltpFR2	14	1	CYCLONE	431	n/a	n/a	0	0	0
436.132	n/a	REC_WORD	218066	wordpools/wasnorm_wordpool_576.txt	LTP318	ltpFR2	14	1	JUNGLE	764	n/a	n/a	0	0	0
443.284	n/a	REC_WORD	221642	wordpools/wasnorm_wordpool_576.txt	LTP318	ltpFR2	14	1	KNAPSACK	783	n/a	n/a	0	0	0
456.678	n/a	REC_WORD	228339	wordpools/wasnorm_wordpool_576.txt	LTP318	ltpFR2	14	1	DRUG	501	n/a	n/a	0	0	0
457.276	n/a	REC_WORD	228638	wordpools/wasnorm_wordpool_576.txt	LTP318	ltpFR2	14	1	TABLET	1427	n/a	n/a	0	0	0
458.184	n/a	REC_WORD	229092	wordpools/wasnorm_wordpool_576.txt	LTP318	ltpFR2	14	1	ORANGE	980	n/a	n/a	0	0	0
459.178	n/a	REC_WORD	229589	wordpools/wasnorm_wordpool_576.txt	LTP318	ltpFR2	14	1	HAND	683	n/a	n/a	0	0	0
489.694	n/a	DISTRACTOR	244847	n/a	LTP318	ltpFR2	14	2	n/a	n/a	n/a	n/a	0	0	0
489.694	n/a	START	244847	n/a	LTP318	ltpFR2	14	n/a	n/a	n/a	2	n/a	n/a	n/a	n/a
489.71	n/a	PROB	244855	n/a	LTP318	ltpFR2	14	n/a	n/a	n/a	2	11	9	1	1
491.51	n/a	PROB	245755	n/a	LTP318	ltpFR2	14	n/a	n/a	n/a	2	17	5	7	5
493.612	n/a	PROB	246806	n/a	LTP318	ltpFR2	14	n/a	n/a	n/a	2	17	5	8	4
496.096	n/a	PROB	248048	n/a	LTP318	ltpFR2	14	n/a	n/a	n/a	2	7	1	3	3
497.566	n/a	PROB	248783	n/a	LTP318	ltpFR2	14	n/a	n/a	n/a	2	12	3	8	1
499.4	n/a	PROB	249700	n/a	LTP318	ltpFR2	14	n/a	n/a	n/a	2	11	1	5	5
501.202	n/a	PROB	250601	n/a	LTP318	ltpFR2	14	n/a	n/a	n/a	2	12	4	6	2
502.554	n/a	PROB	251277	n/a	LTP318	ltpFR2	14	n/a	n/a	n/a	2	16	3	9	4
504.538	n/a	PROB	252269	n/a	LTP318	ltpFR2	14	n/a	n/a	n/a	2	18	9	6	3
507.24	n/a	PROB	253620	n/a	LTP318	ltpFR2	14	n/a	n/a	n/a	2	12	3	1	8
508.774	n/a	PROB	254387	n/a	LTP318	ltpFR2	14	n/a	n/a	n/a	2	12	1	4	7
510.81	n/a	PROB	255405	n/a	LTP318	ltpFR2	14	n/a	n/a	n/a	2	11	5	2	4
512.92	n/a	STOP	256460	n/a	LTP318	ltpFR2	14	n/a	n/a	n/a	2	n/a	n/a	n/a	n/a
514.568	n/a	WORD	257284	wordpools/wasnorm_wordpool_576.txt	LTP318	ltpFR2	14	2	IDOL	733	n/a	n/a	0	0	0
517.016	n/a	WORD	258508	wordpools/wasnorm_wordpool_576.txt	LTP318	ltpFR2	14	2	SODA	1341	n/a	n/a	0	0	0
519.686	n/a	WORD	259843	wordpools/wasnorm_wordpool_576.txt	LTP318	ltpFR2	14	2	SHIRT	1287	n/a	n/a	0	0	0
522.422	n/a	WORD	261211	wordpools/wasnorm_wordpool_576.txt	LTP318	ltpFR2	14	2	MEAT	883	n/a	n/a	0	0	0
525.09	n/a	WORD	262545	wordpools/wasnorm_wordpool_576.txt	LTP318	ltpFR2	14	2	HERO	706	n/a	n/a	0	0	0
527.776	n/a	WORD	263888	wordpools/wasnorm_wordpool_576.txt	LTP318	ltpFR2	14	2	YARN	1631	n/a	n/a	0	0	0
530.262	n/a	WORD	265131	wordpools/wasnorm_wordpool_576.txt	LTP318	ltpFR2	14	2	TWEEZERS	1526	n/a	n/a	0	0	0
532.914	n/a	WORD	266457	wordpools/wasnorm_wordpool_576.txt	LTP318	ltpFR2	14	2	LILY	821	n/a	n/a	0	0	0
535.432	n/a	WORD	267716	wordpools/wasnorm_wordpool_576.txt	LTP318	ltpFR2	14	2	COMET	353	n/a	n/a	0	0	0
538.134	n/a	WORD	269067	wordpools/wasnorm_wordpool_576.txt	LTP318	ltpFR2	14	2	PIMPLE	1071	n/a	n/a	0	0	0
540.636	n/a	WORD	270318	wordpools/wasnorm_wordpool_576.txt	LTP318	ltpFR2	14	2	WHISKERS	1605	n/a	n/a	0	0	0
543.288	n/a	WORD	271644	wordpools/wasnorm_wordpool_576.txt	LTP318	ltpFR2	14	2	PUDDLE	1140	n/a	n/a	0	0	0
545.806	n/a	WORD	272903	wordpools/wasnorm_wordpool_576.txt	LTP318	ltpFR2	14	2	CAFE	216	n/a	n/a	0	0	0
548.242	n/a	WORD	274121	wordpools/wasnorm_wordpool_576.txt	LTP318	ltpFR2	14	2	APPLE	33	n/a	n/a	0	0	0
550.744	n/a	WORD	275372	wordpools/wasnorm_wordpool_576.txt	LTP318	ltpFR2	14	2	BLACKBOARD	133	n/a	n/a	0	0	0
553.448	n/a	WORD	276724	wordpools/wasnorm_wordpool_576.txt	LTP318	ltpFR2	14	2	MARKET	871	n/a	n/a	0	0	0
556.182	n/a	WORD	278091	wordpools/wasnorm_wordpool_576.txt	LTP318	ltpFR2	14	2	LADDER	793	n/a	n/a	0	0	0
558.684	n/a	WORD	279342	wordpools/wasnorm_wordpool_576.txt	LTP318	ltpFR2	14	2	SPIDER	1351	n/a	n/a	0	0	0
561.17	n/a	WORD	280585	wordpools/wasnorm_wordpool_576.txt	LTP318	ltpFR2	14	2	COCOON	339	n/a	n/a	0	0	0
563.672	n/a	WORD	281836	wordpools/wasnorm_wordpool_576.txt	LTP318	ltpFR2	14	2	CHIPMUNK	304	n/a	n/a	0	0	0
566.308	n/a	WORD	283154	wordpools/wasnorm_wordpool_576.txt	LTP318	ltpFR2	14	2	SHELF	1280	n/a	n/a	0	0	0
569.028	n/a	WORD	284514	wordpools/wasnorm_wordpool_576.txt	LTP318	ltpFR2	14	2	ORCHID	982	n/a	n/a	0	0	0
571.498	n/a	WORD	285749	wordpools/wasnorm_wordpool_576.txt	LTP318	ltpFR2	14	2	ROCKET	1202	n/a	n/a	0	0	0
573.964	n/a	WORD	286982	wordpools/wasnorm_wordpool_576.txt	LTP318	ltpFR2	14	2	SPACE	1345	n/a	n/a	0	0	0
575.568	n/a	START	287784	n/a	LTP318	ltpFR2	14	n/a	n/a	n/a	3	n/a	n/a	n/a	n/a
576.654	n/a	DISTRACTOR	288327	n/a	LTP318	ltpFR2	14	2	n/a	n/a	n/a	n/a	0	0	0
576.666	n/a	PROB	288333	n/a	LTP318	ltpFR2	14	n/a	n/a	n/a	3	7	2	4	1
578.62	n/a	PROB	289310	n/a	LTP318	ltpFR2	14	n/a	n/a	n/a	3	22	9	5	8
581.652	n/a	PROB	290826	n/a	LTP318	ltpFR2	14	n/a	n/a	n/a	3	19	4	8	7
583.656	n/a	PROB	291828	n/a	LTP318	ltpFR2	14	n/a	n/a	n/a	3	13	3	1	9
585.038	n/a	PROB	292519	n/a	LTP318	ltpFR2	14	n/a	n/a	n/a	3	18	8	7	3
586.922	n/a	PROB	293461	n/a	LTP318	ltpFR2	14	n/a	n/a	n/a	3	19	9	6	4
588.608	n/a	PROB	294304	n/a	LTP318	ltpFR2	14	n/a	n/a	n/a	3	11	3	1	7
591.378	n/a	PROB	295689	n/a	LTP318	ltpFR2	14	n/a	n/a	n/a	3	7	1	4	2
593.11	n/a	PROB	296555	n/a	LTP318	ltpFR2	14	n/a	n/a	n/a	3	16	7	1	8
595.08	n/a	PROB	297540	n/a	LTP318	ltpFR2	14	n/a	n/a	n/a	3	8	3	2	3
597.432	n/a	PROB	298716	n/a	LTP318	ltpFR2	14	n/a	n/a	n/a	3	17	6	6	5
598.914	n/a	STOP	299457	n/a	LTP318	ltpFR2	14	n/a	n/a	n/a	3	n/a	n/a	n/a	n/a
601.472	n/a	REC_START	300736	n/a	LTP318	ltpFR2	14	2	n/a	n/a	n/a	n/a	0	0	0
606.642	n/a	REC_WORD	303321	wordpools/wasnorm_wordpool_576.txt	LTP318	ltpFR2	14	2	SODA	1341	n/a	n/a	0	0	0
607.496	n/a	REC_WORD	303748	wordpools/wasnorm_wordpool_576.txt	LTP318	ltpFR2	14	2	SHIRT	1287	n/a	n/a	0	0	0
608.608	n/a	REC_WORD	304304	wordpools/wasnorm_wordpool_576.txt	LTP318	ltpFR2	14	2	MEAT	883	n/a	n/a	0	0	0
609.436	n/a	REC_WORD	304718	wordpools/wasnorm_wordpool_576.txt	LTP318	ltpFR2	14	2	IDOL	733	n/a	n/a	0	0	0
610.704	n/a	REC_WORD_VV	305352	wordpools/wasnorm_wordpool_576.txt	LTP318	ltpFR2	14	2	<>	-1	n/a	n/a	0	0	0
615.748	n/a	REC_WORD	307874	wordpools/wasnorm_wordpool_576.txt	LTP318	ltpFR2	14	2	LILY	821	n/a	n/a	0	0	0
617.784	n/a	REC_WORD	308892	wordpools/wasnorm_wordpool_576.txt	LTP318	ltpFR2	14	2	ORCHID	982	n/a	n/a	0	0	0
621.52	n/a	REC_WORD_VV	310760	wordpools/wasnorm_wordpool_576.txt	LTP318	ltpFR2	14	2	<>	-1	n/a	n/a	0	0	0
626.458	n/a	REC_WORD	313229	wordpools/wasnorm_wordpool_576.txt	LTP318	ltpFR2	14	2	ORCHID	982	n/a	n/a	0	0	0
628.472	n/a	REC_WORD	314236	wordpools/wasnorm_wordpool_576.txt	LTP318	ltpFR2	14	2	CHIPMUNK	304	n/a	n/a	0	0	0
630.462	n/a	REC_WORD	315231	wordpools/wasnorm_wordpool_576.txt	LTP318	ltpFR2	14	2	SPIDER	1351	n/a	n/a	0	0	0
631.256	n/a	REC_WORD	315628	wordpools/wasnorm_wordpool_576.txt	LTP318	ltpFR2	14	2	LADDER	793	n/a	n/a	0	0	0
633.226	n/a	REC_WORD	316613	wordpools/wasnorm_wordpool_576.txt	LTP318	ltpFR2	14	2	SHELF	1280	n/a	n/a	0	0	0
636.238	n/a	REC_WORD	318119	wordpools/wasnorm_wordpool_576.txt	LTP318	ltpFR2	14	2	APPLE	33	n/a	n/a	0	0	0
691.916	n/a	WORD	345958	wordpools/wasnorm_wordpool_576.txt	LTP318	ltpFR2	14	3	XEROX	1628	n/a	n/a	0	0	0
694.72	n/a	WORD	347360	wordpools/wasnorm_wordpool_576.txt	LTP318	ltpFR2	14	3	HIGHWAY	707	n/a	n/a	0	0	0
697.512	n/a	WORD	348756	wordpools/wasnorm_wordpool_576.txt	LTP318	ltpFR2	14	3	RAFT	1159	n/a	n/a	0	0	0
699.93	n/a	WORD	349965	wordpools/wasnorm_wordpool_576.txt	LTP318	ltpFR2	14	3	SCISSORS	1250	n/a	n/a	0	0	0
702.594	n/a	WORD	351297	wordpools/wasnorm_wordpool_576.txt	LTP318	ltpFR2	14	3	ATLAS	53	n/a	n/a	0	0	0
705.112	n/a	WORD	352556	wordpools/wasnorm_wordpool_576.txt	LTP318	ltpFR2	14	3	OX	994	n/a	n/a	0	0	0
707.68	n/a	WORD	353840	wordpools/wasnorm_wordpool_576.txt	LTP318	ltpFR2	14	3	CATTLE	261	n/a	n/a	0	0	0
710.366	n/a	WORD	355183	wordpools/wasnorm_wordpool_576.txt	LTP318	ltpFR2	14	3	POSTAGE	1113	n/a	n/a	0	0	0
713.034	n/a	WORD	356517	wordpools/wasnorm_wordpool_576.txt	LTP318	ltpFR2	14	3	DASHBOARD	441	n/a	n/a	0	0	0
715.488	n/a	WORD	357744	wordpools/wasnorm_wordpool_576.txt	LTP318	ltpFR2	14	3	GREASE	660	n/a	n/a	0	0	0
717.94	n/a	WORD	358970	wordpools/wasnorm_wordpool_576.txt	LTP318	ltpFR2	14	3	KIDNEY	776	n/a	n/a	0	0	0
720.61	n/a	WORD	360305	wordpools/wasnorm_wordpool_576.txt	LTP318	ltpFR2	14	3	TROMBONE	1508	n/a	n/a	0	0	0
723.428	n/a	WORD	361714	wordpools/wasnorm_wordpool_576.txt	LTP318	ltpFR2	14	3	SHELTER	1282	n/a	n/a	0	0	0
725.88	n/a	WORD	362940	wordpools/wasnorm_wordpool_576.txt	LTP318	ltpFR2	14	3	BRAKE	166	n/a	n/a	0	0	0
728.466	n/a	WORD	364233	wordpools/wasnorm_wordpool_576.txt	LTP318	ltpFR2	14	3	LIVER	833	n/a	n/a	0	0	0
730.9	n/a	WORD	365450	wordpools/wasnorm_wordpool_576.txt	LTP318	ltpFR2	14	3	DENTIST	447	n/a	n/a	0	0	0
733.57	n/a	WORD	366785	wordpools/wasnorm_wordpool_576.txt	LTP318	ltpFR2	14	3	LETTUCE	814	n/a	n/a	0	0	0
736.154	n/a	WORD	368077	wordpools/wasnorm_wordpool_576.txt	LTP318	ltpFR2	14	3	DORM	488	n/a	n/a	0	0	0
738.59	n/a	WORD	369295	wordpools/wasnorm_wordpool_576.txt	LTP318	ltpFR2	14	3	NOMAD	955	n/a	n/a	0	0	0
741.342	n/a	WORD	370671	wordpools/wasnorm_wordpool_576.txt	LTP318	ltpFR2	14	3	BLOUSE	139	n/a	n/a	0	0	0
743.928	n/a	WORD	371964	wordpools/wasnorm_wordpool_576.txt	LTP318	ltpFR2	14	3	BACKBONE	66	n/a	n/a	0	0	0
746.48	n/a	WORD	373240	wordpools/wasnorm_wordpool_576.txt	LTP318	ltpFR2	14	3	CHEST	295	n/a	n/a	0	0	0
749.216	n/a	WORD	374608	wordpools/wasnorm_wordpool_576.txt	LTP318	ltpFR2	14	3	MARROW	872	n/a	n/a	0	0	0
751.684	n/a	WORD	375842	wordpools/wasnorm_wordpool_576.txt	LTP318	ltpFR2	14	3	KITCHEN	778	n/a	n/a	0	0	0
753.29	n/a	START	376645	n/a	LTP318	ltpFR2	14	n/a	n/a	n/a	4	n/a	n/a	n/a	n/a
754.098	n/a	DISTRACTOR	377049	n/a	LTP318	ltpFR2	14	3	n/a	n/a	n/a	n/a	0	0	0
754.104	n/a	PROB	377052	n/a	LTP318	ltpFR2	14	n/a	n/a	n/a	4	15	8	3	4
756.188	n/a	PROB	378094	n/a	LTP318	ltpFR2	14	n/a	n/a	n/a	4	13	6	2	5
758.856	n/a	PROB	379428	n/a	LTP318	ltpFR2	14	n/a	n/a	n/a	4	19	7	5	7
760.424	n/a	PROB	380212	n/a	LTP318	ltpFR2	14	n/a	n/a	n/a	4	10	8	1	1
761.91	n/a	PROB	380955	n/a	LTP318	ltpFR2	14	n/a	n/a	n/a	4	10	1	1	8
763.278	n/a	PROB	381639	n/a	LTP318	ltpFR2	14	n/a	n/a	n/a	4	18	1	8	9
765.764	n/a	PROB	382882	n/a	LTP318	ltpFR2	14	n/a	n/a	n/a	4	20	5	9	6
768.982	n/a	PROB	384491	n/a	LTP318	ltpFR2	14	n/a	n/a	n/a	4	12	4	1	7
770.568	n/a	PROB	385284	n/a	LTP318	ltpFR2	14	n/a	n/a	n/a	4	18	8	5	5
771.886	n/a	PROB	385943	n/a	LTP318	ltpFR2	14	n/a	n/a	n/a	4	20	8	4	8
773.57	n/a	PROB	386785	n/a	LTP318	ltpFR2	14	n/a	n/a	n/a	4	16	4	9	3
775.522	n/a	PROB	387761	n/a	LTP318	ltpFR2	14	n/a	n/a	n/a	4	16	7	7	2
776.952	n/a	STOP	388476	n/a	LTP318	ltpFR2	14	n/a	n/a	n/a	4	n/a	n/a	n/a	n/a
779.074	n/a	REC_START	389537	n/a	LTP318	ltpFR2	14	3	n/a	n/a	n/a	n/a	0	0	0
783.458	n/a	REC_WORD	391729	wordpools/wasnorm_wordpool_576.txt	LTP318	ltpFR2	14	3	RAFT	1159	n/a	n/a	0	0	0
784.232	n/a	REC_WORD	392116	wordpools/wasnorm_wordpool_576.txt	LTP318	ltpFR2	14	3	HIGHWAY	707	n/a	n/a	0	0	0
792.804	n/a	REC_WORD	396402	wordpools/wasnorm_wordpool_576.txt	LTP318	ltpFR2	14	3	DASHBOARD	441	n/a	n/a	0	0	0
794.326	n/a	REC_WORD	397163	wordpools/wasnorm_wordpool_576.txt	LTP318	ltpFR2	14	3	ATLAS	53	n/a	n/a	0	0	0
795.69	n/a	REC_WORD_VV	397845	wordpools/wasnorm_wordpool_576.txt	LTP318	ltpFR2	14	3	<>	-1	n/a	n/a	0	0	0
797.614	n/a	REC_WORD	398807	wordpools/wasnorm_wordpool_576.txt	LTP318	ltpFR2	14	3	TROMBONE	1508	n/a	n/a	0	0	0
801.55	n/a	REC_WORD	400775	wordpools/wasnorm_wordpool_576.txt	LTP318	ltpFR2	14	3	NOMAD	955	n/a	n/a	0	0	0
802.536	n/a	REC_WORD	401268	wordpools/wasnorm_wordpool_576.txt	LTP318	ltpFR2	14	3	DORM	488	n/a	n/a	0	0	0
804.018	n/a	REC_WORD	402009	wordpools/wasnorm_wordpool_576.txt	LTP318	ltpFR2	14	3	GREASE	660	n/a	n/a	0	0	0
813.474	n/a	REC_WORD	406737	wordpools/wasnorm_wordpool_576.txt	LTP318	ltpFR2	14	3	KITCHEN	778	n/a	n/a	0	0	0
869.514	n/a	WORD	434757	wordpools/wasnorm_wordpool_576.txt	LTP318	ltpFR2	14	4	CATCHER	258	n/a	n/a	0	0	0
872.272	n/a	WORD	436136	wordpools/wasnorm_wordpool_576.txt	LTP318	ltpFR2	14	4	TERMITE	1451	n/a	n/a	0	0	0
874.908	n/a	WORD	437454	wordpools/wasnorm_wordpool_576.txt	LTP318	ltpFR2	14	4	DRIVER	499	n/a	n/a	0	0	0
877.494	n/a	WORD	438747	wordpools/wasnorm_wordpool_576.txt	LTP318	ltpFR2	14	4	STALLION	1369	n/a	n/a	0	0	0
880.08	n/a	WORD	440040	wordpools/wasnorm_wordpool_576.txt	LTP318	ltpFR2	14	4	FIREPLACE	570	n/a	n/a	0	0	0
882.648	n/a	WORD	441324	wordpools/wasnorm_wordpool_576.txt	LTP318	ltpFR2	14	4	SHARK	1275	n/a	n/a	0	0	0
885.266	n/a	WORD	442633	wordpools/wasnorm_wordpool_576.txt	LTP318	ltpFR2	14	4	BUTCHER	203	n/a	n/a	0	0	0
887.952	n/a	WORD	443976	wordpools/wasnorm_wordpool_576.txt	LTP318	ltpFR2	14	4	HOUND	724	n/a	n/a	0	0	0
890.456	n/a	WORD	445228	wordpools/wasnorm_wordpool_576.txt	LTP318	ltpFR2	14	4	ISLAND	745	n/a	n/a	0	0	0
892.882	n/a	WORD	446441	wordpools/wasnorm_wordpool_576.txt	LTP318	ltpFR2	14	4	JELLO	754	n/a	n/a	0	0	0
895.528	n/a	WORD	447764	wordpools/wasnorm_wordpool_576.txt	LTP318	ltpFR2	14	4	CEILING	265	n/a	n/a	0	0	0
898.338	n/a	WORD	449169	wordpools/wasnorm_wordpool_576.txt	LTP318	ltpFR2	14	4	BUREAU	199	n/a	n/a	0	0	0
900.822	n/a	WORD	450411	wordpools/wasnorm_wordpool_576.txt	LTP318	ltpFR2	14	4	ANTLER	29	n/a	n/a	0	0	0
903.348	n/a	WORD	451674	wordpools/wasnorm_wordpool_576.txt	LTP318	ltpFR2	14	4	BANQUET	86	n/a	n/a	0	0	0
905.894	n/a	WORD	452947	wordpools/wasnorm_wordpool_576.txt	LTP318	ltpFR2	14	4	RADISH	1158	n/a	n/a	0	0	0
908.37	n/a	WORD	454185	wordpools/wasnorm_wordpool_576.txt	LTP318	ltpFR2	14	4	THREAD	1460	n/a	n/a	0	0	0
911.114	n/a	WORD	455557	wordpools/wasnorm_wordpool_576.txt	LTP318	ltpFR2	14	4	RUG	1215	n/a	n/a	0	0	0
913.576	n/a	WORD	456788	wordpools/wasnorm_wordpool_576.txt	LTP318	ltpFR2	14	4	PLIERS	1089	n/a	n/a	0	0	0
916.21	n/a	WORD	458105	wordpools/wasnorm_wordpool_576.txt	LTP318	ltpFR2	14	4	HATCHET	691	n/a	n/a	0	0	0
918.996	n/a	WORD	459498	wordpools/wasnorm_wordpool_576.txt	LTP318	ltpFR2	14	4	TRANSPLANT	1496	n/a	n/a	0	0	0
921.49	n/a	WORD	460745	wordpools/wasnorm_wordpool_576.txt	LTP318	ltpFR2	14	4	HEART	697	n/a	n/a	0	0	0
923.932	n/a	WORD	461966	wordpools/wasnorm_wordpool_576.txt	LTP318	ltpFR2	14	4	VALLEY	1545	n/a	n/a	0	0	0
926.35	n/a	WORD	463175	wordpools/wasnorm_wordpool_576.txt	LTP318	ltpFR2	14	4	FEMALE	559	n/a	n/a	0	0	0
928.972	n/a	WORD	464486	wordpools/wasnorm_wordpool_576.txt	LTP318	ltpFR2	14	4	YACHT	1629	n/a	n/a	0	0	0
930.582	n/a	START	465291	n/a	LTP318	ltpFR2	14	n/a	n/a	n/a	5	n/a	n/a	n/a	n/a
931.422	n/a	DISTRACTOR	465711	n/a	LTP318	ltpFR2	14	4	n/a	n/a	n/a	n/a	0	0	0
931.432	n/a	PROB	465716	n/a	LTP318	ltpFR2	14	n/a	n/a	n/a	5	11	1	3	7
934.074	n/a	PROB	467037	n/a	LTP318	ltpFR2	14	n/a	n/a	n/a	5	7	3	3	1
935.41	n/a	PROB	467705	n/a	LTP318	ltpFR2	14	n/a	n/a	n/a	5	22	6	9	7
938.362	n/a	PROB	469181	n/a	LTP318	ltpFR2	14	n/a	n/a	n/a	5	8	6	1	1
939.562	n/a	PROB	469781	n/a	LTP318	ltpFR2	14	n/a	n/a	n/a	5	19	8	3	8
941.196	n/a	PROB	470598	n/a	LTP318	ltpFR2	14	n/a	n/a	n/a	5	12	6	2	4
943.082	n/a	PROB	471541	n/a	LTP318	ltpFR2	14	n/a	n/a	n/a	5	22	5	9	8
945.302	n/a	PROB	472651	n/a	LTP318	ltpFR2	14	n/a	n/a	n/a	5	12	5	1	6
946.754	n/a	PROB	473377	n/a	LTP318	ltpFR2	14	n/a	n/a	n/a	5	17	7	7	3
948.336	n/a	PROB	474168	n/a	LTP318	ltpFR2	14	n/a	n/a	n/a	5	12	6	4	2
949.722	n/a	PROB	474861	n/a	LTP318	ltpFR2	14	n/a	n/a	n/a	5	18	6	9	3
951.658	n/a	PROB	475829	n/a	LTP318	ltpFR2	14	n/a	n/a	n/a	5	14	9	3	2
953.756	n/a	STOP	476878	n/a	LTP318	ltpFR2	14	n/a	n/a	n/a	5	n/a	n/a	n/a	n/a
956.396	n/a	REC_START	478198	n/a	LTP318	ltpFR2	14	4	n/a	n/a	n/a	n/a	0	0	0
960.564	n/a	REC_WORD_VV	480282	wordpools/wasnorm_wordpool_576.txt	LTP318	ltpFR2	14	4	<>	-1	n/a	n/a	0	0	0
961.564	n/a	REC_WORD_VV	480782	wordpools/wasnorm_wordpool_576.txt	LTP318	ltpFR2	14	4	<>	-1	n/a	n/a	0	0	0
970.818	n/a	REC_WORD	485409	wordpools/wasnorm_wordpool_576.txt	LTP318	ltpFR2	14	4	PLIERS	1089	n/a	n/a	0	0	0
971.818	n/a	REC_WORD_VV	485909	wordpools/wasnorm_wordpool_576.txt	LTP318	ltpFR2	14	4	<>	-1	n/a	n/a	0	0	0
972.13	n/a	REC_WORD	486065	wordpools/wasnorm_wordpool_576.txt	LTP318	ltpFR2	14	4	HATCHET	691	n/a	n/a	0	0	0
975.628	n/a	REC_WORD	487814	wordpools/wasnorm_wordpool_576.txt	LTP318	ltpFR2	14	4	BUTCHER	203	n/a	n/a	0	0	0
977.306	n/a	REC_WORD	488653	wordpools/wasnorm_wordpool_576.txt	LTP318	ltpFR2	14	4	ISLAND	745	n/a	n/a	0	0	0
978.324	n/a	REC_WORD	489162	wordpools/wasnorm_wordpool_576.txt	LTP318	ltpFR2	14	4	BANQUET	86	n/a	n/a	0	0	0
980.778	n/a	REC_WORD	490389	wordpools/wasnorm_wordpool_576.txt	LTP318	ltpFR2	14	4	JELLO	754	n/a	n/a	0	0	0
981.534	n/a	REC_WORD	490767	wordpools/wasnorm_wordpool_576.txt	LTP318	ltpFR2	14	4	RUG	1215	n/a	n/a	0	0	0
982.134	n/a	REC_WORD	491067	wordpools/wasnorm_wordpool_576.txt	LTP318	ltpFR2	14	4	THREAD	1460	n/a	n/a	0	0	0
989.308	n/a	REC_WORD	494654	wordpools/wasnorm_wordpool_576.txt	LTP318	ltpFR2	14	4	STALLION	1369	n/a	n/a	0	0	0
990.174	n/a	REC_WORD	495087	wordpools/wasnorm_wordpool_576.txt	LTP318	ltpFR2	14	4	SHARK	1275	n/a	n/a	0	0	0
995.758	n/a	REC_WORD	497879	wordpools/wasnorm_wordpool_576.txt	LTP318	ltpFR2	14	4	TERMITE	1451	n/a	n/a	0	0	0
999.292	n/a	REC_WORD	499646	wordpools/wasnorm_wordpool_576.txt	LTP318	ltpFR2	14	4	DRIVER	499	n/a	n/a	0	0	0
1003.018	n/a	REC_WORD_VV	501509	wordpools/wasnorm_wordpool_576.txt	LTP318	ltpFR2	14	4	<>	-1	n/a	n/a	0	0	0
1014.524	n/a	REC_WORD	507262	wordpools/wasnorm_wordpool_576.txt	LTP318	ltpFR2	14	4	CATCHER	258	n/a	n/a	0	0	0
1014.528	n/a	REC_WORD_VV	507264	wordpools/wasnorm_wordpool_576.txt	LTP318	ltpFR2	14	4	<>	-1	n/a	n/a	0	0	0
1016.062	n/a	REC_WORD_VV	508031	wordpools/wasnorm_wordpool_576.txt	LTP318	ltpFR2	14	4	<>	-1	n/a	n/a	0	0	0
1017.062	n/a	REC_WORD_VV	508531	wordpools/wasnorm_wordpool_576.txt	LTP318	ltpFR2	14	4	<>	-1	n/a	n/a	0	0	0
1017.534	n/a	REC_WORD	508767	wordpools/wasnorm_wordpool_576.txt	LTP318	ltpFR2	14	4	HOUND	724	n/a	n/a	0	0	0
1046.854	n/a	DISTRACTOR	523427	n/a	LTP318	ltpFR2	14	5	n/a	n/a	n/a	n/a	0	0	0
1046.854	n/a	START	523427	n/a	LTP318	ltpFR2	14	n/a	n/a	n/a	6	n/a	n/a	n/a	n/a
1046.872	n/a	PROB	523436	n/a	LTP318	ltpFR2	14	n/a	n/a	n/a	6	15	5	2	8
1049.172	n/a	PROB	524586	n/a	LTP318	ltpFR2	14	n/a	n/a	n/a	6	15	3	9	3
1051.042	n/a	PROB	525521	n/a	LTP318	ltpFR2	14	n/a	n/a	n/a	6	14	2	6	6
1052.71	n/a	PROB	526355	n/a	LTP318	ltpFR2	14	n/a	n/a	n/a	6	16	3	4	9
1054.46	n/a	PROB	527230	n/a	LTP318	ltpFR2	14	n/a	n/a	n/a	6	17	7	8	2
1056.012	n/a	PROB	528006	n/a	LTP318	ltpFR2	14	n/a	n/a	n/a	6	20	4	9	7
1058.328	n/a	PROB	529164	n/a	LTP318	ltpFR2	14	n/a	n/a	n/a	6	22	8	9	5
1062.45	n/a	PROB	531225	n/a	LTP318	ltpFR2	14	n/a	n/a	n/a	6	21	7	7	7
1063.868	n/a	PROB	531934	n/a	LTP318	ltpFR2	14	n/a	n/a	n/a	6	24	9	6	9
1065.636	n/a	PROB	532818	n/a	LTP318	ltpFR2	14	n/a	n/a	n/a	6	12	3	7	2
1067.472	n/a	PROB	533736	n/a	LTP318	ltpFR2	14	n/a	n/a	n/a	6	7	1	5	1
1069.744	n/a	STOP	534872	n/a	LTP318	ltpFR2	14	n/a	n/a	n/a	6	n/a	n/a	n/a	n/a
1071.828	n/a	WORD	535914	wordpools/wasnorm_wordpool_576.txt	LTP318	ltpFR2	14	5	BOARD	143	n/a	n/a	0	0	0
1074.396	n/a	WORD	537198	wordpools/wasnorm_wordpool_576.txt	LTP318	ltpFR2	14	5	CANAL	226	n/a	n/a	0	0	0
1076.928	n/a	WORD	538464	wordpools/wasnorm_wordpool_576.txt	LTP318	ltpFR2	14	5	MAILMAN	858	n/a	n/a	0	0	0
1079.398	n/a	WORD	539699	wordpools/wasnorm_wordpool_576.txt	LTP318	ltpFR2	14	5	BUCKET	184	n/a	n/a	0	0	0
1082.064	n/a	WORD	541032	wordpools/wasnorm_wordpool_576.txt	LTP318	ltpFR2	14	5	SKILLET	1317	n/a	n/a	0	0	0
1084.602	n/a	WORD	542301	wordpools/wasnorm_wordpool_576.txt	LTP318	ltpFR2	14	5	IGLOO	734	n/a	n/a	0	0	0
1087.04	n/a	WORD	543520	wordpools/wasnorm_wordpool_576.txt	LTP318	ltpFR2	14	5	PENGUIN	1044	n/a	n/a	0	0	0
1089.826	n/a	WORD	544913	wordpools/wasnorm_wordpool_576.txt	LTP318	ltpFR2	14	5	JUGGLER	763	n/a	n/a	0	0	0
1092.374	n/a	WORD	546187	wordpools/wasnorm_wordpool_576.txt	LTP318	ltpFR2	14	5	OYSTER	995	n/a	n/a	0	0	0
1095.18	n/a	WORD	547590	wordpools/wasnorm_wordpool_576.txt	LTP318	ltpFR2	14	5	SUPPER	1411	n/a	n/a	0	0	0
1097.93	n/a	WORD	548965	wordpools/wasnorm_wordpool_576.txt	LTP318	ltpFR2	14	5	SLIDE	1326	n/a	n/a	0	0	0
1100.598	n/a	WORD	550299	wordpools/wasnorm_wordpool_576.txt	LTP318	ltpFR2	14	5	INMATE	738	n/a	n/a	0	0	0
1103.166	n/a	WORD	551583	wordpools/wasnorm_wordpool_576.txt	LTP318	ltpFR2	14	5	SCALPEL	1243	n/a	n/a	0	0	0
1105.802	n/a	WORD	552901	wordpools/wasnorm_wordpool_576.txt	LTP318	ltpFR2	14	5	RELISH	1183	n/a	n/a	0	0	0
1108.572	n/a	WORD	554286	wordpools/wasnorm_wordpool_576.txt	LTP318	ltpFR2	14	5	COSTUME	383	n/a	n/a	0	0	0
1111.072	n/a	WORD	555536	wordpools/wasnorm_wordpool_576.txt	LTP318	ltpFR2	14	5	TREAT	1501	n/a	n/a	0	0	0
1113.842	n/a	WORD	556921	wordpools/wasnorm_wordpool_576.txt	LTP318	ltpFR2	14	5	STAMP	1370	n/a	n/a	0	0	0
1116.544	n/a	WORD	558272	wordpools/wasnorm_wordpool_576.txt	LTP318	ltpFR2	14	5	GROUND	666	n/a	n/a	0	0	0
1119.262	n/a	WORD	559631	wordpools/wasnorm_wordpool_576.txt	LTP318	ltpFR2	14	5	MARSH	874	n/a	n/a	0	0	0
1122.002	n/a	WORD	561001	wordpools/wasnorm_wordpool_576.txt	LTP318	ltpFR2	14	5	THRONE	1461	n/a	n/a	0	0	0
1124.658	n/a	WORD	562329	wordpools/wasnorm_wordpool_576.txt	LTP318	ltpFR2	14	5	BRIEFCASE	175	n/a	n/a	0	0	0
1127.074	n/a	WORD	563537	wordpools/wasnorm_wordpool_576.txt	LTP318	ltpFR2	14	5	BLENDER	136	n/a	n/a	0	0	0
1129.878	n/a	WORD	564939	wordpools/wasnorm_wordpool_576.txt	LTP318	ltpFR2	14	5	SWORD	1423	n/a	n/a	0	0	0
1132.414	n/a	WORD	566207	wordpools/wasnorm_wordpool_576.txt	LTP318	ltpFR2	14	5	KNIFE	785	n/a	n/a	0	0	0
1134.024	n/a	START	567012	n/a	LTP318	ltpFR2	14	n/a	n/a	n/a	7	n/a	n/a	n/a	n/a
1134.842	n/a	DISTRACTOR	567421	n/a	LTP318	ltpFR2	14	5	n/a	n/a	n/a	n/a	0	0	0
1134.848	n/a	PROB	567424	n/a	LTP318	ltpFR2	14	n/a	n/a	n/a	7	16	5	8	3
1137.634	n/a	PROB	568817	n/a	LTP318	ltpFR2	14	n/a	n/a	n/a	7	19	8	7	4
1139.786	n/a	PROB	569893	n/a	LTP318	ltpFR2	14	n/a	n/a	n/a	7	15	6	4	5
1141.77	n/a	PROB	570885	n/a	LTP318	ltpFR2	14	n/a	n/a	n/a	7	20	3	9	8
1144.34	n/a	PROB	572170	n/a	LTP318	ltpFR2	14	n/a	n/a	n/a	7	16	9	3	4
1145.924	n/a	PROB	572962	n/a	LTP318	ltpFR2	14	n/a	n/a	n/a	7	14	1	6	7
1147.376	n/a	PROB	573688	n/a	LTP318	ltpFR2	14	n/a	n/a	n/a	7	12	9	1	2
1149.228	n/a	PROB	574614	n/a	LTP318	ltpFR2	14	n/a	n/a	n/a	7	14	6	3	5
1150.994	n/a	PROB	575497	n/a	LTP318	ltpFR2	14	n/a	n/a	n/a	7	10	1	3	6
1152.714	n/a	PROB	576357	n/a	LTP318	ltpFR2	14	n/a	n/a	n/a	7	23	8	6	9
1155.6	n/a	PROB	577800	n/a	LTP318	ltpFR2	14	n/a	n/a	n/a	7	15	1	6	8
1157.274	n/a	STOP	578637	n/a	LTP318	ltpFR2	14	n/a	n/a	n/a	7	n/a	n/a	n/a	n/a
1159.902	n/a	REC_START	579951	n/a	LTP318	ltpFR2	14	5	n/a	n/a	n/a	n/a	0	0	0
1161.254	n/a	REC_WORD_VV	580627	wordpools/wasnorm_wordpool_576.txt	LTP318	ltpFR2	14	5	<>	-1	n/a	n/a	0	0	0
1164.32	n/a	REC_WORD	582160	wordpools/wasnorm_wordpool_576.txt	LTP318	ltpFR2	14	5	IGLOO	734	n/a	n/a	0	0	0
1165.328	n/a	REC_WORD	582664	wordpools/wasnorm_wordpool_576.txt	LTP318	ltpFR2	14	5	CANOE	233	n/a	n/a	0	0	0
1168.034	n/a	REC_WORD	584017	wordpools/wasnorm_wordpool_576.txt	LTP318	ltpFR2	14	5	PENGUIN	1044	n/a	n/a	0	0	0
1168.716	n/a	REC_WORD	584358	wordpools/wasnorm_wordpool_576.txt	LTP318	ltpFR2	14	5	JUGGLER	763	n/a	n/a	0	0	0
1176.302	n/a	REC_WORD	588151	wordpools/wasnorm_wordpool_576.txt	LTP318	ltpFR2	14	5	MARSH	874	n/a	n/a	0	0	0
1177.128	n/a	REC_WORD	588564	wordpools/wasnorm_wordpool_576.txt	LTP318	ltpFR2	14	5	THRONE	1461	n/a	n/a	0	0	0
1185.204	n/a	REC_WORD	592602	wordpools/wasnorm_wordpool_576.txt	LTP318	ltpFR2	14	5	BLENDER	136	n/a	n/a	0	0	0
1185.906	n/a	REC_WORD	592953	wordpools/wasnorm_wordpool_576.txt	LTP318	ltpFR2	14	5	KNIFE	785	n/a	n/a	0	0	0
1188.808	n/a	REC_WORD_VV	594404	wordpools/wasnorm_wordpool_576.txt	LTP318	ltpFR2	14	5	<>	-1	n/a	n/a	0	0	0
1211.91	n/a	REC_WORD	605955	wordpools/wasnorm_wordpool_576.txt	LTP318	ltpFR2	14	5	SLIDE	1326	n/a	n/a	0	0	0
1250.348	n/a	DISTRACTOR	625174	n/a	LTP318	ltpFR2	14	6	n/a	n/a	n/a	n/a	0	0	0
1250.348	n/a	START	625174	n/a	LTP318	ltpFR2	14	n/a	n/a	n/a	8	n/a	n/a	n/a	n/a
1250.362	n/a	PROB	625181	n/a	LTP318	ltpFR2	14	n/a	n/a	n/a	8	12	8	3	1
1252.616	n/a	PROB	626308	n/a	LTP318	ltpFR2	14	n/a	n/a	n/a	8	11	2	2	7
1254.05	n/a	PROB	627025	n/a	LTP318	ltpFR2	14	n/a	n/a	n/a	8	15	3	4	8
1255.652	n/a	PROB	627826	n/a	LTP318	ltpFR2	14	n/a	n/a	n/a	8	14	3	2	9
1257.352	n/a	PROB	628676	n/a	LTP318	ltpFR2	14	n/a	n/a	n/a	8	14	8	4	2
1259.106	n/a	PROB	629553	n/a	LTP318	ltpFR2	14	n/a	n/a	n/a	8	11	1	2	8
1260.456	n/a	PROB	630228	n/a	LTP318	ltpFR2	14	n/a	n/a	n/a	8	18	4	6	8
1261.79	n/a	PROB	630895	n/a	LTP318	ltpFR2	14	n/a	n/a	n/a	8	10	1	7	2
1264.192	n/a	PROB	632096	n/a	LTP318	ltpFR2	14	n/a	n/a	n/a	8	11	3	6	2
1265.662	n/a	PROB	632831	n/a	LTP318	ltpFR2	14	n/a	n/a	n/a	8	13	5	3	5
1267.362	n/a	PROB	633681	n/a	LTP318	ltpFR2	14	n/a	n/a	n/a	8	16	7	1	8
1268.98	n/a	PROB	634490	n/a	LTP318	ltpFR2	14	n/a	n/a	n/a	8	21	8	9	4
1270.948	n/a	PROB	635474	n/a	LTP318	ltpFR2	14	n/a	n/a	n/a	8	8	2	3	3
1272.35	n/a	PROB	636175	n/a	LTP318	ltpFR2	14	n/a	n/a	n/a	8	12	4	4	4
1273.72	n/a	STOP	636860	n/a	LTP318	ltpFR2	14	n/a	n/a	n/a	8	n/a	n/a	n/a	n/a
1275.402	n/a	WORD	637701	wordpools/wasnorm_wordpool_576.txt	LTP318	ltpFR2	14	6	BEEF	113	n/a	n/a	0	0	0
1278.122	n/a	WORD	639061	wordpools/wasnorm_wordpool_576.txt	LTP318	ltpFR2	14	6	MISSILE	900	n/a	n/a	0	0	0
1280.674	n/a	WORD	640337	wordpools/wasnorm_wordpool_576.txt	LTP318	ltpFR2	14	6	HORNET	718	n/a	n/a	0	0	0
1283.176	n/a	WORD	641588	wordpools/wasnorm_wordpool_576.txt	LTP318	ltpFR2	14	6	CARRIAGE	248	n/a	n/a	0	0	0
1285.96	n/a	WORD	642980	wordpools/wasnorm_wordpool_576.txt	LTP318	ltpFR2	14	6	BURGLAR	200	n/a	n/a	0	0	0
1288.58	n/a	WORD	644290	wordpools/wasnorm_wordpool_576.txt	LTP318	ltpFR2	14	6	COURSE	390	n/a	n/a	0	0	0
1291.282	n/a	WORD	645641	wordpools/wasnorm_wordpool_576.txt	LTP318	ltpFR2	14	6	FOX	598	n/a	n/a	0	0	0
1293.866	n/a	WORD	646933	wordpools/wasnorm_wordpool_576.txt	LTP318	ltpFR2	14	6	CARROT	249	n/a	n/a	0	0	0
1296.586	n/a	WORD	648293	wordpools/wasnorm_wordpool_576.txt	LTP318	ltpFR2	14	6	FOREHEAD	592	n/a	n/a	0	0	0
1299.308	n/a	WORD	649654	wordpools/wasnorm_wordpool_576.txt	LTP318	ltpFR2	14	6	COLLEGE	346	n/a	n/a	0	0	0
1301.908	n/a	WORD	650954	wordpools/wasnorm_wordpool_576.txt	LTP318	ltpFR2	14	6	FOREST	593	n/a	n/a	0	0	0
1304.358	n/a	WORD	652179	wordpools/wasnorm_wordpool_576.txt	LTP318	ltpFR2	14	6	KLEENEX	782	n/a	n/a	0	0	0
1306.794	n/a	WORD	653397	wordpools/wasnorm_wordpool_576.txt	LTP318	ltpFR2	14	6	CRICKET	408	n/a	n/a	0	0	0
1309.598	n/a	WORD	654799	wordpools/wasnorm_wordpool_576.txt	LTP318	ltpFR2	14	6	UMPIRE	1535	n/a	n/a	0	0	0
1312.398	n/a	WORD	656199	wordpools/wasnorm_wordpool_576.txt	LTP318	ltpFR2	14	6	BEAST	108	n/a	n/a	0	0	0
1314.95	n/a	WORD	657475	wordpools/wasnorm_wordpool_576.txt	LTP318	ltpFR2	14	6	POSSUM	1112	n/a	n/a	0	0	0
1317.486	n/a	WORD	658743	wordpools/wasnorm_wordpool_576.txt	LTP318	ltpFR2	14	6	HEDGE	699	n/a	n/a	0	0	0
1320.222	n/a	WORD	660111	wordpools/wasnorm_wordpool_576.txt	LTP318	ltpFR2	14	6	PERFUME	1049	n/a	n/a	0	0	0
1322.972	n/a	WORD	661486	wordpools/wasnorm_wordpool_576.txt	LTP318	ltpFR2	14	6	MASK	876	n/a	n/a	0	0	0
1325.658	n/a	WORD	662829	wordpools/wasnorm_wordpool_576.txt	LTP318	ltpFR2	14	6	SERVER	1272	n/a	n/a	0	0	0
1328.394	n/a	WORD	664197	wordpools/wasnorm_wordpool_576.txt	LTP318	ltpFR2	14	6	POCKET	1093	n/a	n/a	0	0	0
1330.996	n/a	WORD	665498	wordpools/wasnorm_wordpool_576.txt	LTP318	ltpFR2	14	6	HANDBAG	684	n/a	n/a	0	0	0
1333.538	n/a	WORD	666769	wordpools/wasnorm_wordpool_576.txt	LTP318	ltpFR2	14	6	MESSAGE	888	n/a	n/a	0	0	0
1336.202	n/a	WORD	668101	wordpools/wasnorm_wordpool_576.txt	LTP318	ltpFR2	14	6	SPOOL	1356	n/a	n/a	0	0	0
1337.808	n/a	START	668904	n/a	LTP318	ltpFR2	14	n/a	n/a	n/a	9	n/a	n/a	n/a	n/a
1338.748	n/a	DISTRACTOR	669374	n/a	LTP318	ltpFR2	14	6	n/a	n/a	n/a	n/a	0	0	0
1338.754	n/a	PROB	669377	n/a	LTP318	ltpFR2	14	n/a	n/a	n/a	9	13	4	1	8
1342.144	n/a	PROB	671072	n/a	LTP318	ltpFR2	14	n/a	n/a	n/a	9	19	9	7	3
1344.746	n/a	PROB	672373	n/a	LTP318	ltpFR2	14	n/a	n/a	n/a	9	26	8	9	9
1346.38	n/a	PROB	673190	n/a	LTP318	ltpFR2	14	n/a	n/a	n/a	9	8	2	3	3
1347.616	n/a	PROB	673808	n/a	LTP318	ltpFR2	14	n/a	n/a	n/a	9	13	1	6	6
1349.45	n/a	PROB	674725	n/a	LTP318	ltpFR2	14	n/a	n/a	n/a	9	13	7	4	2
1352.418	n/a	PROB	676209	n/a	LTP318	ltpFR2	14	n/a	n/a	n/a	9	12	6	1	5
1354.286	n/a	PROB	677143	n/a	LTP318	ltpFR2	14	n/a	n/a	n/a	9	13	1	8	4
1356.088	n/a	PROB	678044	n/a	LTP318	ltpFR2	14	n/a	n/a	n/a	9	8	2	3	3
1357.54	n/a	PROB	678770	n/a	LTP318	ltpFR2	14	n/a	n/a	n/a	9	18	7	9	2
1359.174	n/a	PROB	679587	n/a	LTP318	ltpFR2	14	n/a	n/a	n/a	9	23	5	9	9
1360.792	n/a	STOP	680396	n/a	LTP318	ltpFR2	14	n/a	n/a	n/a	9	n/a	n/a	n/a	n/a
1363.664	n/a	REC_START	681832	n/a	LTP318	ltpFR2	14	6	n/a	n/a	n/a	n/a	0	0	0
1363.78	n/a	REC_WORD_VV	681890	wordpools/wasnorm_wordpool_576.txt	LTP318	ltpFR2	14	6	<>	-1	n/a	n/a	0	0	0
1364.78	n/a	REC_WORD_VV	682390	wordpools/wasnorm_wordpool_576.txt	LTP318	ltpFR2	14	6	<>	-1	n/a	n/a	0	0	0
1367.84	n/a	REC_WORD	683920	wordpools/wasnorm_wordpool_576.txt	LTP318	ltpFR2	14	6	MASK	876	n/a	n/a	0	0	0
1368.384	n/a	REC_WORD	684192	wordpools/wasnorm_wordpool_576.txt	LTP318	ltpFR2	14	6	PERFUME	1049	n/a	n/a	0	0	0
1369.26	n/a	REC_WORD	684630	wordpools/wasnorm_wordpool_576.txt	LTP318	ltpFR2	14	6	POCKET	1093	n/a	n/a	0	0	0
1369.964	n/a	REC_WORD	684982	wordpools/wasnorm_wordpool_576.txt	LTP318	ltpFR2	14	6	SPOOL	1356	n/a	n/a	0	0	0
1407.21	n/a	REC_WORD	703605	wordpools/wasnorm_wordpool_576.txt	LTP318	ltpFR2	14	6	MISSILE	900	n/a	n/a	0	0	0
1409.65	n/a	REC_WORD	704825	wordpools/wasnorm_wordpool_576.txt	LTP318	ltpFR2	14	6	BEEF	113	n/a	n/a	0	0	0
1412.06	n/a	REC_WORD	706030	wordpools/wasnorm_wordpool_576.txt	LTP318	ltpFR2	14	6	FOX	598	n/a	n/a	0	0	0
1413.49	n/a	REC_WORD	706745	wordpools/wasnorm_wordpool_576.txt	LTP318	ltpFR2	14	6	FOREST	593	n/a	n/a	0	0	0
1416.674	n/a	REC_WORD_VV	708337	wordpools/wasnorm_wordpool_576.txt	LTP318	ltpFR2	14	6	<>	-1	n/a	n/a	0	0	0
1421.746	n/a	REC_WORD	710873	wordpools/wasnorm_wordpool_576.txt	LTP318	ltpFR2	14	6	FOREHEAD	592	n/a	n/a	0	0	0
1423.222	n/a	REC_WORD	711611	wordpools/wasnorm_wordpool_576.txt	LTP318	ltpFR2	14	6	KLEENEX	782	n/a	n/a	0	0	0
1436.85	n/a	REC_WORD	718425	wordpools/wasnorm_wordpool_576.txt	LTP318	ltpFR2	14	6	BURGLAR	200	n/a	n/a	0	0	0
1454.104	n/a	WORD	727052	wordpools/wasnorm_wordpool_576.txt	LTP318	ltpFR2	14	7	PAPER	1011	n/a	n/a	0	0	0
1456.726	n/a	WORD	728363	wordpools/wasnorm_wordpool_576.txt	LTP318	ltpFR2	14	7	SNAIL	1332	n/a	n/a	0	0	0
1459.21	n/a	WORD	729605	wordpools/wasnorm_wordpool_576.txt	LTP318	ltpFR2	14	7	CABIN	211	n/a	n/a	0	0	0
1462.0	n/a	WORD	731000	wordpools/wasnorm_wordpool_576.txt	LTP318	ltpFR2	14	7	STAKE	1368	n/a	n/a	0	0	0
1464.62	n/a	WORD	732310	wordpools/wasnorm_wordpool_576.txt	LTP318	ltpFR2	14	7	BOUQUET	157	n/a	n/a	0	0	0
1467.186	n/a	WORD	733593	wordpools/wasnorm_wordpool_576.txt	LTP318	ltpFR2	14	7	EUROPE	541	n/a	n/a	0	0	0
1470.004	n/a	WORD	735002	wordpools/wasnorm_wordpool_576.txt	LTP318	ltpFR2	14	7	OMELET	976	n/a	n/a	0	0	0
1472.708	n/a	WORD	736354	wordpools/wasnorm_wordpool_576.txt	LTP318	ltpFR2	14	7	PICTURE	1061	n/a	n/a	0	0	0
1475.494	n/a	WORD	737747	wordpools/wasnorm_wordpool_576.txt	LTP318	ltpFR2	14	7	STAPLE	1371	n/a	n/a	0	0	0
1478.01	n/a	WORD	739005	wordpools/wasnorm_wordpool_576.txt	LTP318	ltpFR2	14	7	PORK	1108	n/a	n/a	0	0	0
1480.598	n/a	WORD	740299	wordpools/wasnorm_wordpool_576.txt	LTP318	ltpFR2	14	7	FLESH	579	n/a	n/a	0	0	0
1483.248	n/a	WORD	741624	wordpools/wasnorm_wordpool_576.txt	LTP318	ltpFR2	14	7	BROOK	177	n/a	n/a	0	0	0
1485.8	n/a	WORD	742900	wordpools/wasnorm_wordpool_576.txt	LTP318	ltpFR2	14	7	PUDDING	1139	n/a	n/a	0	0	0
1488.402	n/a	WORD	744201	wordpools/wasnorm_wordpool_576.txt	LTP318	ltpFR2	14	7	FOOTBALL	591	n/a	n/a	0	0	0
1491.004	n/a	WORD	745502	wordpools/wasnorm_wordpool_576.txt	LTP318	ltpFR2	14	7	MISTER	901	n/a	n/a	0	0	0
1493.624	n/a	WORD	746812	wordpools/wasnorm_wordpool_576.txt	LTP318	ltpFR2	14	7	BISON	131	n/a	n/a	0	0	0
1496.41	n/a	WORD	748205	wordpools/wasnorm_wordpool_576.txt	LTP318	ltpFR2	14	7	CREATURE	403	n/a	n/a	0	0	0
1498.912	n/a	WORD	749456	wordpools/wasnorm_wordpool_576.txt	LTP318	ltpFR2	14	7	TYPIST	1532	n/a	n/a	0	0	0
1501.448	n/a	WORD	750724	wordpools/wasnorm_wordpool_576.txt	LTP318	ltpFR2	14	7	JUDGE	761	n/a	n/a	0	0	0
1504.15	n/a	WORD	752075	wordpools/wasnorm_wordpool_576.txt	LTP318	ltpFR2	14	7	CANYON	235	n/a	n/a	0	0	0
1506.62	n/a	WORD	753310	wordpools/wasnorm_wordpool_576.txt	LTP318	ltpFR2	14	7	DONKEY	484	n/a	n/a	0	0	0
1509.322	n/a	WORD	754661	wordpools/wasnorm_wordpool_576.txt	LTP318	ltpFR2	14	7	SPARROW	1347	n/a	n/a	0	0	0
1512.106	n/a	WORD	756053	wordpools/wasnorm_wordpool_576.txt	LTP318	ltpFR2	14	7	OFFICE	972	n/a	n/a	0	0	0
1514.808	n/a	WORD	757404	wordpools/wasnorm_wordpool_576.txt	LTP318	ltpFR2	14	7	SOFTBALL	1343	n/a	n/a	0	0	0
1516.43	n/a	START	758215	n/a	LTP318	ltpFR2	14	n/a	n/a	n/a	10	n/a	n/a	n/a	n/a
1517.296	n/a	DISTRACTOR	758648	n/a	LTP318	ltpFR2	14	7	n/a	n/a	n/a	n/a	0	0	0
1517.31	n/a	PROB	758655	n/a	LTP318	ltpFR2	14	n/a	n/a	n/a	10	25	9	9	7
1519.712	n/a	PROB	759856	n/a	LTP318	ltpFR2	14	n/a	n/a	n/a	10	23	6	8	9
1522.932	n/a	PROB	761466	n/a	LTP318	ltpFR2	14	n/a	n/a	n/a	10	12	3	4	5
1524.518	n/a	PROB	762259	n/a	LTP318	ltpFR2	14	n/a	n/a	n/a	10	7	1	2	4
1525.934	n/a	PROB	762967	n/a	LTP318	ltpFR2	14	n/a	n/a	n/a	10	14	2	8	4
1527.27	n/a	PROB	763635	n/a	LTP318	ltpFR2	14	n/a	n/a	n/a	10	17	4	6	7
1529.238	n/a	PROB	764619	n/a	LTP318	ltpFR2	14	n/a	n/a	n/a	10	14	5	1	8
1530.82	n/a	PROB	765410	n/a	LTP318	ltpFR2	14	n/a	n/a	n/a	10	17	5	7	5
1532.926	n/a	PROB	766463	n/a	LTP318	ltpFR2	14	n/a	n/a	n/a	10	14	5	6	3
1536.696	n/a	PROB	768348	n/a	LTP318	ltpFR2	14	n/a	n/a	n/a	10	13	2	5	6
1539.214	n/a	STOP	769607	n/a	LTP318	ltpFR2	14	n/a	n/a	n/a	10	n/a	n/a	n/a	n/a
1542.234	n/a	REC_START	771117	n/a	LTP318	ltpFR2	14	7	n/a	n/a	n/a	n/a	0	0	0
1545.31	n/a	REC_WORD	772655	wordpools/wasnorm_wordpool_576.txt	LTP318	ltpFR2	14	7	CABIN	211	n/a	n/a	0	0	0
1548.044	n/a	REC_WORD	774022	wordpools/wasnorm_wordpool_576.txt	LTP318	ltpFR2	14	7	EUROPE	541	n/a	n/a	0	0	0
1549.106	n/a	REC_WORD	774553	wordpools/wasnorm_wordpool_576.txt	LTP318	ltpFR2	14	7	STAKE	1368	n/a	n/a	0	0	0
1549.96	n/a	REC_WORD	774980	wordpools/wasnorm_wordpool_576.txt	LTP318	ltpFR2	14	7	SNAIL	1332	n/a	n/a	0	0	0
1550.692	n/a	REC_WORD	775346	wordpools/wasnorm_wordpool_576.txt	LTP318	ltpFR2	14	7	PAPER	1011	n/a	n/a	0	0	0
1583.908	n/a	REC_WORD	791954	wordpools/wasnorm_wordpool_576.txt	LTP318	ltpFR2	14	7	DONKEY	484	n/a	n/a	0	0	0
1585.178	n/a	REC_WORD	792589	wordpools/wasnorm_wordpool_576.txt	LTP318	ltpFR2	14	7	CANYON	235	n/a	n/a	0	0	0
1588.574	n/a	REC_WORD_VV	794287	wordpools/wasnorm_wordpool_576.txt	LTP318	ltpFR2	14	7	<>	-1	n/a	n/a	0	0	0
1632.662	n/a	DISTRACTOR	816331	n/a	LTP318	ltpFR2	14	8	n/a	n/a	n/a	n/a	0	0	0
1632.662	n/a	START	816331	n/a	LTP318	ltpFR2	14	n/a	n/a	n/a	11	n/a	n/a	n/a	n/a
1632.678	n/a	PROB	816339	n/a	LTP318	ltpFR2	14	n/a	n/a	n/a	11	18	7	2	9
1635.112	n/a	PROB	817556	n/a	LTP318	ltpFR2	14	n/a	n/a	n/a	11	18	8	3	7
1636.648	n/a	PROB	818324	n/a	LTP318	ltpFR2	14	n/a	n/a	n/a	11	11	5	2	4
1638.08	n/a	PROB	819040	n/a	LTP318	ltpFR2	14	n/a	n/a	n/a	11	15	4	9	2
1640.184	n/a	PROB	820092	n/a	LTP318	ltpFR2	14	n/a	n/a	n/a	11	18	6	3	9
1641.934	n/a	PROB	820967	n/a	LTP318	ltpFR2	14	n/a	n/a	n/a	11	17	9	5	3
1644.304	n/a	PROB	822152	n/a	LTP318	ltpFR2	14	n/a	n/a	n/a	11	15	9	3	3
1645.822	n/a	PROB	822911	n/a	LTP318	ltpFR2	14	n/a	n/a	n/a	11	22	6	7	9
1649.308	n/a	PROB	824654	n/a	LTP318	ltpFR2	14	n/a	n/a	n/a	11	13	4	1	8
1651.526	n/a	PROB	825763	n/a	LTP318	ltpFR2	14	n/a	n/a	n/a	11	13	5	4	4
1653.628	n/a	PROB	826814	n/a	LTP318	ltpFR2	14	n/a	n/a	n/a	11	10	3	1	6
1655.202	n/a	STOP	827601	n/a	LTP318	ltpFR2	14	n/a	n/a	n/a	11	n/a	n/a	n/a	n/a
1657.798	n/a	WORD	828899	wordpools/wasnorm_wordpool_576.txt	LTP318	ltpFR2	14	8	CURTAIN	427	n/a	n/a	0	0	0
1660.424	n/a	WORD	830212	wordpools/wasnorm_wordpool_576.txt	LTP318	ltpFR2	14	8	CHEMIST	292	n/a	n/a	0	0	0
1662.92	n/a	WORD	831460	wordpools/wasnorm_wordpool_576.txt	LTP318	ltpFR2	14	8	PRIMATE	1123	n/a	n/a	0	0	0
1665.674	n/a	WORD	832837	wordpools/wasnorm_wordpool_576.txt	LTP318	ltpFR2	14	8	LODGE	839	n/a	n/a	0	0	0
1668.458	n/a	WORD	834229	wordpools/wasnorm_wordpool_576.txt	LTP318	ltpFR2	14	8	VELVET	1555	n/a	n/a	0	0	0
1671.21	n/a	WORD	835605	wordpools/wasnorm_wordpool_576.txt	LTP318	ltpFR2	14	8	SERVANT	1271	n/a	n/a	0	0	0
1673.796	n/a	WORD	836898	wordpools/wasnorm_wordpool_576.txt	LTP318	ltpFR2	14	8	ARM	38	n/a	n/a	0	0	0
1676.538	n/a	WORD	838269	wordpools/wasnorm_wordpool_576.txt	LTP318	ltpFR2	14	8	MOTEL	919	n/a	n/a	0	0	0
1679.184	n/a	WORD	839592	wordpools/wasnorm_wordpool_576.txt	LTP318	ltpFR2	14	8	NOVEL	960	n/a	n/a	0	0	0
1681.904	n/a	WORD	840952	wordpools/wasnorm_wordpool_576.txt	LTP318	ltpFR2	14	8	KEEPER	769	n/a	n/a	0	0	0
1684.338	n/a	WORD	842169	wordpools/wasnorm_wordpool_576.txt	LTP318	ltpFR2	14	8	ACTOR	5	n/a	n/a	0	0	0
1686.946	n/a	WORD	843473	wordpools/wasnorm_wordpool_576.txt	LTP318	ltpFR2	14	8	ACTRESS	6	n/a	n/a	0	0	0
1689.564	n/a	WORD	844782	wordpools/wasnorm_wordpool_576.txt	LTP318	ltpFR2	14	8	ASIA	46	n/a	n/a	0	0	0
1692.128	n/a	WORD	846064	wordpools/wasnorm_wordpool_576.txt	LTP318	ltpFR2	14	8	LOFT	840	n/a	n/a	0	0	0
1694.582	n/a	WORD	847291	wordpools/wasnorm_wordpool_576.txt	LTP318	ltpFR2	14	8	LIZARD	834	n/a	n/a	0	0	0
1697.15	n/a	WORD	848575	wordpools/wasnorm_wordpool_576.txt	LTP318	ltpFR2	14	8	DAUGHTER	442	n/a	n/a	0	0	0
1699.852	n/a	WORD	849926	wordpools/wasnorm_wordpool_576.txt	LTP318	ltpFR2	14	8	MARINE	869	n/a	n/a	0	0	0
1702.272	n/a	WORD	851136	wordpools/wasnorm_wordpool_576.txt	LTP318	ltpFR2	14	8	SNACK	1331	n/a	n/a	0	0	0
1705.026	n/a	WORD	852513	wordpools/wasnorm_wordpool_576.txt	LTP318	ltpFR2	14	8	GRILL	661	n/a	n/a	0	0	0
1707.726	n/a	WORD	853863	wordpools/wasnorm_wordpool_576.txt	LTP318	ltpFR2	14	8	CAMEL	223	n/a	n/a	0	0	0
1710.162	n/a	WORD	855081	wordpools/wasnorm_wordpool_576.txt	LTP318	ltpFR2	14	8	DINER	467	n/a	n/a	0	0	0
1712.646	n/a	WORD	856323	wordpools/wasnorm_wordpool_576.txt	LTP318	ltpFR2	14	8	SCALLOP	1242	n/a	n/a	0	0	0
1715.248	n/a	WORD	857624	wordpools/wasnorm_wordpool_576.txt	LTP318	ltpFR2	14	8	PADDING	999	n/a	n/a	0	0	0
1717.918	n/a	WORD	858959	wordpools/wasnorm_wordpool_576.txt	LTP318	ltpFR2	14	8	PARTNER	1017	n/a	n/a	0	0	0
1719.522	n/a	START	859761	n/a	LTP318	ltpFR2	14	n/a	n/a	n/a	12	n/a	n/a	n/a	n/a
1720.68	n/a	DISTRACTOR	860340	n/a	LTP318	ltpFR2	14	8	n/a	n/a	n/a	n/a	0	0	0
1720.688	n/a	PROB	860344	n/a	LTP318	ltpFR2	14	n/a	n/a	n/a	12	9	3	2	4
1722.77	n/a	PROB	861385	n/a	LTP318	ltpFR2	14	n/a	n/a	n/a	12	21	7	8	6
1725.608	n/a	PROB	862804	n/a	LTP318	ltpFR2	14	n/a	n/a	n/a	12	22	9	6	7
1727.992	n/a	PROB	863996	n/a	LTP318	ltpFR2	14	n/a	n/a	n/a	12	12	1	2	9
1729.726	n/a	PROB	864863	n/a	LTP318	ltpFR2	14	n/a	n/a	n/a	12	9	2	1	6
1731.294	n/a	PROB	865647	n/a	LTP318	ltpFR2	14	n/a	n/a	n/a	12	11	2	5	4
1732.846	n/a	PROB	866423	n/a	LTP318	ltpFR2	14	n/a	n/a	n/a	12	13	3	9	1
1734.632	n/a	PROB	867316	n/a	LTP318	ltpFR2	14	n/a	n/a	n/a	12	10	2	2	6
1736.734	n/a	PROB	868367	n/a	LTP318	ltpFR2	14	n/a	n/a	n/a	12	5	1	1	3
1738.084	n/a	PROB	869042	n/a	LTP318	ltpFR2	14	n/a	n/a	n/a	12	17	3	6	8
1740.17	n/a	PROB	870085	n/a	LTP318	ltpFR2	14	n/a	n/a	n/a	12	9	3	3	3
1741.906	n/a	PROB	870953	n/a	LTP318	ltpFR2	14	n/a	n/a	n/a	12	22	4	9	9
1743.34	n/a	STOP	871670	n/a	LTP318	ltpFR2	14	n/a	n/a	n/a	12	n/a	n/a	n/a	n/a
1745.424	n/a	REC_START	872712	n/a	LTP318	ltpFR2	14	8	n/a	n/a	n/a	n/a	0	0	0
1747.41	n/a	REC_WORD	873705	wordpools/wasnorm_wordpool_576.txt	LTP318	ltpFR2	14	8	SCALLOP	1242	n/a	n/a	0	0	0
1748.41	n/a	REC_WORD_VV	874205	wordpools/wasnorm_wordpool_576.txt	LTP318	ltpFR2	14	8	<>	-1	n/a	n/a	0	0	0
1748.866	n/a	REC_WORD	874433	wordpools/wasnorm_wordpool_576.txt	LTP318	ltpFR2	14	8	PADDING	999	n/a	n/a	0	0	0
1750.366	n/a	REC_WORD_VV	875183	wordpools/wasnorm_wordpool_576.txt	LTP318	ltpFR2	14	8	<>	-1	n/a	n/a	0	0	0
1751.366	n/a	REC_WORD_VV	875683	wordpools/wasnorm_wordpool_576.txt	LTP318	ltpFR2	14	8	<>	-1	n/a	n/a	0	0	0
1751.794	n/a	REC_WORD	875897	wordpools/wasnorm_wordpool_576.txt	LTP318	ltpFR2	14	8	PARTNER	1017	n/a	n/a	0	0	0
1755.03	n/a	REC_WORD	877515	wordpools/wasnorm_wordpool_576.txt	LTP318	ltpFR2	14	8	MARINE	869	n/a	n/a	0	0	0
1777.046	n/a	REC_WORD	888523	wordpools/wasnorm_wordpool_576.txt	LTP318	ltpFR2	14	8	VELVET	1555	n/a	n/a	0	0	0
1778.078	n/a	REC_WORD	889039	wordpools/wasnorm_wordpool_576.txt	LTP318	ltpFR2	14	8	ARM	38	n/a	n/a	0	0	0
1779.176	n/a	REC_WORD_VV	889588	wordpools/wasnorm_wordpool_576.txt	LTP318	ltpFR2	14	8	<>	-1	n/a	n/a	0	0	0
1780.986	n/a	REC_WORD	890493	wordpools/wasnorm_wordpool_576.txt	LTP318	ltpFR2	14	8	KEEPER	769	n/a	n/a	0	0	0
1781.744	n/a	REC_WORD	890872	wordpools/wasnorm_wordpool_576.txt	LTP318	ltpFR2	14	8	ACTOR	5	n/a	n/a	0	0	0
1806.544	n/a	REC_WORD	903272	wordpools/wasnorm_wordpool_576.txt	LTP318	ltpFR2	14	8	SALMON	1227	n/a	n/a	0	0	0
1821.958	n/a	REST_REWET	910979	n/a	LTP318	ltpFR2	14	8	n/a	n/a	n/a	n/a	0	0	0
2140.616	n/a	WORD	1070308	wordpools/wasnorm_wordpool_576.txt	LTP318	ltpFR2	14	9	LABEL	790	n/a	n/a	0	0	0
2143.436	n/a	WORD	1071718	wordpools/wasnorm_wordpool_576.txt	LTP318	ltpFR2	14	9	RIVER	1194	n/a	n/a	0	0	0
2145.87	n/a	WORD	1072935	wordpools/wasnorm_wordpool_576.txt	LTP318	ltpFR2	14	9	BULLET	194	n/a	n/a	0	0	0
2148.36	n/a	WORD	1074180	wordpools/wasnorm_wordpool_576.txt	LTP318	ltpFR2	14	9	FLASK	576	n/a	n/a	0	0	0
2150.872	n/a	WORD	1075436	wordpools/wasnorm_wordpool_576.txt	LTP318	ltpFR2	14	9	HAWK	692	n/a	n/a	0	0	0
2153.466	n/a	WORD	1076733	wordpools/wasnorm_wordpool_576.txt	LTP318	ltpFR2	14	9	FRAME	600	n/a	n/a	0	0	0
2156.284	n/a	WORD	1078142	wordpools/wasnorm_wordpool_576.txt	LTP318	ltpFR2	14	9	GUARD	667	n/a	n/a	0	0	0
2159.064	n/a	WORD	1079532	wordpools/wasnorm_wordpool_576.txt	LTP318	ltpFR2	14	9	LADY	794	n/a	n/a	0	0	0
2161.884	n/a	WORD	1080942	wordpools/wasnorm_wordpool_576.txt	LTP318	ltpFR2	14	9	SKETCH	1315	n/a	n/a	0	0	0
2164.552	n/a	WORD	1082276	wordpools/wasnorm_wordpool_576.txt	LTP318	ltpFR2	14	9	ZEBRA	1635	n/a	n/a	0	0	0
2167.076	n/a	WORD	1083538	wordpools/wasnorm_wordpool_576.txt	LTP318	ltpFR2	14	9	CABBAGE	210	n/a	n/a	0	0	0
2169.708	n/a	WORD	1084854	wordpools/wasnorm_wordpool_576.txt	LTP318	ltpFR2	14	9	PORTRAIT	1111	n/a	n/a	0	0	0
2172.242	n/a	WORD	1086121	wordpools/wasnorm_wordpool_576.txt	LTP318	ltpFR2	14	9	STATUE	1374	n/a	n/a	0	0	0
2174.712	n/a	WORD	1087356	wordpools/wasnorm_wordpool_576.txt	LTP318	ltpFR2	14	9	SAUSAGE	1238	n/a	n/a	0	0	0
2177.53	n/a	WORD	1088765	wordpools/wasnorm_wordpool_576.txt	LTP318	ltpFR2	14	9	FRECKLE	602	n/a	n/a	0	0	0
2180.1	n/a	WORD	1090050	wordpools/wasnorm_wordpool_576.txt	LTP318	ltpFR2	14	9	CUSTARD	429	n/a	n/a	0	0	0
2182.618	n/a	WORD	1091309	wordpools/wasnorm_wordpool_576.txt	LTP318	ltpFR2	14	9	COIN	343	n/a	n/a	0	0	0
2185.156	n/a	WORD	1092578	wordpools/wasnorm_wordpool_576.txt	LTP318	ltpFR2	14	9	PIZZA	1079	n/a	n/a	0	0	0
2187.738	n/a	WORD	1093869	wordpools/wasnorm_wordpool_576.txt	LTP318	ltpFR2	14	9	GLASS	639	n/a	n/a	0	0	0
2190.358	n/a	WORD	1095179	wordpools/wasnorm_wordpool_576.txt	LTP318	ltpFR2	14	9	HOOK	715	n/a	n/a	0	0	0
2193.092	n/a	WORD	1096546	wordpools/wasnorm_wordpool_576.txt	LTP318	ltpFR2	14	9	CRAB	397	n/a	n/a	0	0	0
2195.646	n/a	WORD	1097823	wordpools/wasnorm_wordpool_576.txt	LTP318	ltpFR2	14	9	COLONEL	348	n/a	n/a	0	0	0
2198.466	n/a	WORD	1099233	wordpools/wasnorm_wordpool_576.txt	LTP318	ltpFR2	14	9	ARMY	39	n/a	n/a	0	0	0
2200.934	n/a	WORD	1100467	wordpools/wasnorm_wordpool_576.txt	LTP318	ltpFR2	14	9	QUAIL	1147	n/a	n/a	0	0	0
2202.54	n/a	START	1101270	n/a	LTP318	ltpFR2	14	n/a	n/a	n/a	13	n/a	n/a	n/a	n/a
2203.488	n/a	DISTRACTOR	1101744	n/a	LTP318	ltpFR2	14	9	n/a	n/a	n/a	n/a	0	0	0
2203.504	n/a	PROB	1101752	n/a	LTP318	ltpFR2	14	n/a	n/a	n/a	13	10	6	3	1
2206.272	n/a	PROB	1103136	n/a	LTP318	ltpFR2	14	n/a	n/a	n/a	13	17	9	7	1
2208.406	n/a	PROB	1104203	n/a	LTP318	ltpFR2	14	n/a	n/a	n/a	13	5	1	1	3
2209.758	n/a	PROB	1104879	n/a	LTP318	ltpFR2	14	n/a	n/a	n/a	13	17	2	9	6
2211.374	n/a	PROB	1105687	n/a	LTP318	ltpFR2	14	n/a	n/a	n/a	13	9	1	5	3
2212.694	n/a	PROB	1106347	n/a	LTP318	ltpFR2	14	n/a	n/a	n/a	13	23	8	8	7
2214.596	n/a	PROB	1107298	n/a	LTP318	ltpFR2	14	n/a	n/a	n/a	13	13	5	7	1
2216.312	n/a	PROB	1108156	n/a	LTP318	ltpFR2	14	n/a	n/a	n/a	13	19	9	2	8
2217.948	n/a	PROB	1108974	n/a	LTP318	ltpFR2	14	n/a	n/a	n/a	13	6	2	8	6
2219.666	n/a	PROB	1109833	n/a	LTP318	ltpFR2	14	n/a	n/a	n/a	13	6	1	4	1
2221.45	n/a	PROB	1110725	n/a	LTP318	ltpFR2	14	n/a	n/a	n/a	13	9	2	4	3
2223.368	n/a	PROB	1111684	n/a	LTP318	ltpFR2	14	n/a	n/a	n/a	13	11	2	4	5
2225.362	n/a	STOP	1112681	n/a	LTP318	ltpFR2	14	n/a	n/a	n/a	13	n/a	n/a	n/a	n/a
2228.324	n/a	REC_START	1114162	n/a	LTP318	ltpFR2	14	9	n/a	n/a	n/a	n/a	0	0	0
2233.99	n/a	REC_WORD_VV	1116995	wordpools/wasnorm_wordpool_576.txt	LTP318	ltpFR2	14	9	<>	-1	n/a	n/a	0	0	0
2240.85	n/a	REC_WORD	1120425	wordpools/wasnorm_wordpool_576.txt	LTP318	ltpFR2	14	9	CABBAGE	210	n/a	n/a	0	0	0
2241.806	n/a	REC_WORD	1120903	wordpools/wasnorm_wordpool_576.txt	LTP318	ltpFR2	14	9	PIZZA	1079	n/a	n/a	0	0	0
2243.606	n/a	REC_WORD_VV	1121803	wordpools/wasnorm_wordpool_576.txt	LTP318	ltpFR2	14	9	<>	-1	n/a	n/a	0	0	0
2250.856	n/a	REC_WORD	1125428	wordpools/wasnorm_wordpool_576.txt	LTP318	ltpFR2	14	9	ZEBRA	1635	n/a	n/a	0	0	0
2257.99	n/a	REC_WORD	1128995	wordpools/wasnorm_wordpool_576.txt	LTP318	ltpFR2	14	9	BULLET	194	n/a	n/a	0	0	0
2258.72	n/a	REC_WORD	1129360	wordpools/wasnorm_wordpool_576.txt	LTP318	ltpFR2	14	9	RIVER	1194	n/a	n/a	0	0	0
2260.948	n/a	REC_WORD	1130474	wordpools/wasnorm_wordpool_576.txt	LTP318	ltpFR2	14	9	LADY	794	n/a	n/a	0	0	0
2261.5	n/a	REC_WORD	1130750	wordpools/wasnorm_wordpool_576.txt	LTP318	ltpFR2	14	9	SKETCH	1315	n/a	n/a	0	0	0
2262.21	n/a	REC_WORD	1131105	wordpools/wasnorm_wordpool_576.txt	LTP318	ltpFR2	14	9	STATUE	1374	n/a	n/a	0	0	0
2263.206	n/a	REC_WORD	1131603	wordpools/wasnorm_wordpool_576.txt	LTP318	ltpFR2	14	9	HAWK	692	n/a	n/a	0	0	0
2318.752	n/a	DISTRACTOR	1159376	n/a	LTP318	ltpFR2	14	10	n/a	n/a	n/a	n/a	0	0	0
2318.754	n/a	START	1159377	n/a	LTP318	ltpFR2	14	n/a	n/a	n/a	14	n/a	n/a	n/a	n/a
2318.768	n/a	PROB	1159384	n/a	LTP318	ltpFR2	14	n/a	n/a	n/a	14	19	7	8	4
2321.302	n/a	PROB	1160651	n/a	LTP318	ltpFR2	14	n/a	n/a	n/a	14	13	8	1	4
2322.972	n/a	PROB	1161486	n/a	LTP318	ltpFR2	14	n/a	n/a	n/a	14	18	1	9	8
2325.424	n/a	PROB	1162712	n/a	LTP318	ltpFR2	14	n/a	n/a	n/a	14	6	1	2	3
2327.04	n/a	PROB	1163520	n/a	LTP318	ltpFR2	14	n/a	n/a	n/a	14	19	5	6	8
2328.71	n/a	PROB	1164355	n/a	LTP318	ltpFR2	14	n/a	n/a	n/a	14	13	5	5	3
2330.06	n/a	PROB	1165030	n/a	LTP318	ltpFR2	14	n/a	n/a	n/a	14	19	6	8	5
2333.262	n/a	PROB	1166631	n/a	LTP318	ltpFR2	14	n/a	n/a	n/a	14	22	7	6	9
2338.134	n/a	PROB	1169067	n/a	LTP318	ltpFR2	14	n/a	n/a	n/a	14	21	9	4	8
2342.754	n/a	STOP	1171377	n/a	LTP318	ltpFR2	14	n/a	n/a	n/a	14	n/a	n/a	n/a	n/a
2343.79	n/a	WORD	1171895	wordpools/wasnorm_wordpool_576.txt	LTP318	ltpFR2	14	10	TRIBE	1505	n/a	n/a	0	0	0
2346.426	n/a	WORD	1173213	wordpools/wasnorm_wordpool_576.txt	LTP318	ltpFR2	14	10	WITNESS	1618	n/a	n/a	0	0	0
2348.87	n/a	WORD	1174435	wordpools/wasnorm_wordpool_576.txt	LTP318	ltpFR2	14	10	COMPASS	358	n/a	n/a	0	0	0
2351.404	n/a	WORD	1175702	wordpools/wasnorm_wordpool_576.txt	LTP318	ltpFR2	14	10	PLUTO	1092	n/a	n/a	0	0	0
2354.04	n/a	WORD	1177020	wordpools/wasnorm_wordpool_576.txt	LTP318	ltpFR2	14	10	PANTHER	1009	n/a	n/a	0	0	0
2356.518	n/a	WORD	1178259	wordpools/wasnorm_wordpool_576.txt	LTP318	ltpFR2	14	10	LAPEL	800	n/a	n/a	0	0	0
2359.31	n/a	WORD	1179655	wordpools/wasnorm_wordpool_576.txt	LTP318	ltpFR2	14	10	BELLY	119	n/a	n/a	0	0	0
2361.738	n/a	WORD	1180869	wordpools/wasnorm_wordpool_576.txt	LTP318	ltpFR2	14	10	GYMNAST	675	n/a	n/a	0	0	0
2364.23	n/a	WORD	1182115	wordpools/wasnorm_wordpool_576.txt	LTP318	ltpFR2	14	10	BADGE	68	n/a	n/a	0	0	0
2366.966	n/a	WORD	1183483	wordpools/wasnorm_wordpool_576.txt	LTP318	ltpFR2	14	10	WRENCH	1625	n/a	n/a	0	0	0
2369.412	n/a	WORD	1184706	wordpools/wasnorm_wordpool_576.txt	LTP318	ltpFR2	14	10	WASP	1593	n/a	n/a	0	0	0
2371.932	n/a	WORD	1185966	wordpools/wasnorm_wordpool_576.txt	LTP318	ltpFR2	14	10	EXPERT	543	n/a	n/a	0	0	0
2374.39	n/a	WORD	1187195	wordpools/wasnorm_wordpool_576.txt	LTP318	ltpFR2	14	10	NAPKIN	937	n/a	n/a	0	0	0
2376.952	n/a	WORD	1188476	wordpools/wasnorm_wordpool_576.txt	LTP318	ltpFR2	14	10	COFFEE	341	n/a	n/a	0	0	0
2379.438	n/a	WORD	1189719	wordpools/wasnorm_wordpool_576.txt	LTP318	ltpFR2	14	10	ZIPPER	1636	n/a	n/a	0	0	0
2382.112	n/a	WORD	1191056	wordpools/wasnorm_wordpool_576.txt	LTP318	ltpFR2	14	10	VAGRANT	1544	n/a	n/a	0	0	0
2384.798	n/a	WORD	1192399	wordpools/wasnorm_wordpool_576.txt	LTP318	ltpFR2	14	10	DRILL	497	n/a	n/a	0	0	0
2387.35	n/a	WORD	1193675	wordpools/wasnorm_wordpool_576.txt	LTP318	ltpFR2	14	10	STOMACH	1384	n/a	n/a	0	0	0
2390.028	n/a	WORD	1195014	wordpools/wasnorm_wordpool_576.txt	LTP318	ltpFR2	14	10	CHAUFFEUR	283	n/a	n/a	0	0	0
2392.5	n/a	WORD	1196250	wordpools/wasnorm_wordpool_576.txt	LTP318	ltpFR2	14	10	BUGGY	188	n/a	n/a	0	0	0
2395.15	n/a	WORD	1197575	wordpools/wasnorm_wordpool_576.txt	LTP318	ltpFR2	14	10	SLOPE	1328	n/a	n/a	0	0	0
2397.688	n/a	WORD	1198844	wordpools/wasnorm_wordpool_576.txt	LTP318	ltpFR2	14	10	HIKER	708	n/a	n/a	0	0	0
2400.254	n/a	WORD	1200127	wordpools/wasnorm_wordpool_576.txt	LTP318	ltpFR2	14	10	DRESS	495	n/a	n/a	0	0	0
2402.808	n/a	WORD	1201404	wordpools/wasnorm_wordpool_576.txt	LTP318	ltpFR2	14	10	AIRPLANE	12	n/a	n/a	0	0	0
2404.416	n/a	START	1202208	n/a	LTP318	ltpFR2	14	n/a	n/a	n/a	15	n/a	n/a	n/a	n/a
2405.56	n/a	DISTRACTOR	1202780	n/a	LTP318	ltpFR2	14	10	n/a	n/a	n/a	n/a	0	0	0
2405.566	n/a	PROB	1202783	n/a	LTP318	ltpFR2	14	n/a	n/a	n/a	15	19	4	6	9
2408.012	n/a	PROB	1204006	n/a	LTP318	ltpFR2	14	n/a	n/a	n/a	15	13	4	6	3
2410.046	n/a	PROB	1205023	n/a	LTP318	ltpFR2	14	n/a	n/a	n/a	15	20	9	9	2
2411.498	n/a	PROB	1205749	n/a	LTP318	ltpFR2	14	n/a	n/a	n/a	15	19	7	8	4
2413.932	n/a	PROB	1206966	n/a	LTP318	ltpFR2	14	n/a	n/a	n/a	15	7	2	3	2
2416.602	n/a	PROB	1208301	n/a	LTP318	ltpFR2	14	n/a	n/a	n/a	15	18	6	7	5
2419.07	n/a	PROB	1209535	n/a	LTP318	ltpFR2	14	n/a	n/a	n/a	15	11	8	2	1
2420.572	n/a	PROB	1210286	n/a	LTP318	ltpFR2	14	n/a	n/a	n/a	15	7	4	1	2
2422.592	n/a	PROB	1211296	n/a	LTP318	ltpFR2	14	n/a	n/a	n/a	15	15	8	6	1
2427.008	n/a	STOP	1213504	n/a	LTP318	ltpFR2	14	n/a	n/a	n/a	15	n/a	n/a	n/a	n/a
2430.196	n/a	REC_START	1215098	n/a	LTP318	ltpFR2	14	10	n/a	n/a	n/a	n/a	0	0	0
2431.886	n/a	REC_WORD	1215943	wordpools/wasnorm_wordpool_576.txt	LTP318	ltpFR2	14	10	CHAUFFEUR	283	n/a	n/a	0	0	0
2432.886	n/a	REC_WORD_VV	1216443	wordpools/wasnorm_wordpool_576.txt	LTP318	ltpFR2	14	10	<>	-1	n/a	n/a	0	0	0
2433.532	n/a	REC_WORD	1216766	wordpools/wasnorm_wordpool_576.txt	LTP318	ltpFR2	14	10	BUGGY	188	n/a	n/a	0	0	0
2434.218	n/a	REC_WORD	1217109	wordpools/wasnorm_wordpool_576.txt	LTP318	ltpFR2	14	10	DRESS	495	n/a	n/a	0	0	0
2434.826	n/a	REC_WORD	1217413	wordpools/wasnorm_wordpool_576.txt	LTP318	ltpFR2	14	10	HIKER	708	n/a	n/a	0	0	0
2440.23	n/a	REC_WORD	1220115	wordpools/wasnorm_wordpool_576.txt	LTP318	ltpFR2	14	10	GYMNAST	675	n/a	n/a	0	0	0
2441.23	n/a	REC_WORD_VV	1220615	wordpools/wasnorm_wordpool_576.txt	LTP318	ltpFR2	14	10	<>	-1	n/a	n/a	0	0	0
2451.766	n/a	REC_WORD	1225883	wordpools/wasnorm_wordpool_576.txt	LTP318	ltpFR2	14	10	DRILL	497	n/a	n/a	0	0	0
2452.844	n/a	REC_WORD	1226422	wordpools/wasnorm_wordpool_576.txt	LTP318	ltpFR2	14	10	CHAUFFEUR	283	n/a	n/a	0	0	0
2454.264	n/a	REC_WORD_VV	1227132	wordpools/wasnorm_wordpool_576.txt	LTP318	ltpFR2	14	10	<>	-1	n/a	n/a	0	0	0
2457.394	n/a	REC_WORD	1228697	wordpools/wasnorm_wordpool_576.txt	LTP318	ltpFR2	14	10	BUGGY	188	n/a	n/a	0	0	0
2461.45	n/a	REC_WORD	1230725	wordpools/wasnorm_wordpool_576.txt	LTP318	ltpFR2	14	10	COFFEE	341	n/a	n/a	0	0	0
2462.794	n/a	REC_WORD	1231397	wordpools/wasnorm_wordpool_576.txt	LTP318	ltpFR2	14	10	NAPKIN	937	n/a	n/a	0	0	0
2469.668	n/a	REC_WORD	1234834	wordpools/wasnorm_wordpool_576.txt	LTP318	ltpFR2	14	10	WASP	1593	n/a	n/a	0	0	0
2470.668	n/a	REC_WORD_VV	1235334	wordpools/wasnorm_wordpool_576.txt	LTP318	ltpFR2	14	10	<>	-1	n/a	n/a	0	0	0
2480.188	n/a	REC_WORD	1240094	wordpools/wasnorm_wordpool_576.txt	LTP318	ltpFR2	14	10	PANTHER	1009	n/a	n/a	0	0	0
2520.644	n/a	DISTRACTOR	1260322	n/a	LTP318	ltpFR2	14	11	n/a	n/a	n/a	n/a	0	0	0
2520.644	n/a	START	1260322	n/a	LTP318	ltpFR2	14	n/a	n/a	n/a	16	n/a	n/a	n/a	n/a
2520.66	n/a	PROB	1260330	n/a	LTP318	ltpFR2	14	n/a	n/a	n/a	16	20	6	7	7
2523.228	n/a	PROB	1261614	n/a	LTP318	ltpFR2	14	n/a	n/a	n/a	16	10	6	3	1
2524.994	n/a	PROB	1262497	n/a	LTP318	ltpFR2	14	n/a	n/a	n/a	16	14	2	7	5
2527.18	n/a	PROB	1263590	n/a	LTP318	ltpFR2	14	n/a	n/a	n/a	16	16	1	9	6
2528.7	n/a	PROB	1264350	n/a	LTP318	ltpFR2	14	n/a	n/a	n/a	16	11	4	6	1
2530.718	n/a	PROB	1265359	n/a	LTP318	ltpFR2	14	n/a	n/a	n/a	16	19	9	3	7
2532.284	n/a	PROB	1266142	n/a	LTP318	ltpFR2	14	n/a	n/a	n/a	16	20	3	8	9
2534.002	n/a	PROB	1267001	n/a	LTP318	ltpFR2	14	n/a	n/a	n/a	16	14	7	4	3
2536.306	n/a	PROB	1268153	n/a	LTP318	ltpFR2	14	n/a	n/a	n/a	16	20	7	5	8
2537.89	n/a	PROB	1268945	n/a	LTP318	ltpFR2	14	n/a	n/a	n/a	16	13	3	9	1
2539.476	n/a	PROB	1269738	n/a	LTP318	ltpFR2	14	n/a	n/a	n/a	16	16	2	9	5
2541.126	n/a	PROB	1270563	n/a	LTP318	ltpFR2	14	n/a	n/a	n/a	16	12	5	3	4
2544.646	n/a	STOP	1272323	n/a	LTP318	ltpFR2	14	n/a	n/a	n/a	16	n/a	n/a	n/a	n/a
2545.466	n/a	WORD	1272733	wordpools/wasnorm_wordpool_576.txt	LTP318	ltpFR2	14	11	SPHINX	1349	n/a	n/a	0	0	0
2548.2	n/a	WORD	1274100	wordpools/wasnorm_wordpool_576.txt	LTP318	ltpFR2	14	11	LONDON	843	n/a	n/a	0	0	0
2550.664	n/a	WORD	1275332	wordpools/wasnorm_wordpool_576.txt	LTP318	ltpFR2	14	11	LEG	809	n/a	n/a	0	0	0
2553.12	n/a	WORD	1276560	wordpools/wasnorm_wordpool_576.txt	LTP318	ltpFR2	14	11	LION	827	n/a	n/a	0	0	0
2555.79	n/a	WORD	1277895	wordpools/wasnorm_wordpool_576.txt	LTP318	ltpFR2	14	11	GHETTO	633	n/a	n/a	0	0	0
2558.374	n/a	WORD	1279187	wordpools/wasnorm_wordpool_576.txt	LTP318	ltpFR2	14	11	PILOT	1070	n/a	n/a	0	0	0
2560.926	n/a	WORD	1280463	wordpools/wasnorm_wordpool_576.txt	LTP318	ltpFR2	14	11	GRAPE	654	n/a	n/a	0	0	0
2563.674	n/a	WORD	1281837	wordpools/wasnorm_wordpool_576.txt	LTP318	ltpFR2	14	11	MATTRESS	879	n/a	n/a	0	0	0
2566.092	n/a	WORD	1283046	wordpools/wasnorm_wordpool_576.txt	LTP318	ltpFR2	14	11	MONSTER	912	n/a	n/a	0	0	0
2568.912	n/a	WORD	1284456	wordpools/wasnorm_wordpool_576.txt	LTP318	ltpFR2	14	11	STREAM	1392	n/a	n/a	0	0	0
2571.346	n/a	WORD	1285673	wordpools/wasnorm_wordpool_576.txt	LTP318	ltpFR2	14	11	SWAMP	1416	n/a	n/a	0	0	0
2573.784	n/a	WORD	1286892	wordpools/wasnorm_wordpool_576.txt	LTP318	ltpFR2	14	11	COUNTRY	388	n/a	n/a	0	0	0
2576.424	n/a	WORD	1288212	wordpools/wasnorm_wordpool_576.txt	LTP318	ltpFR2	14	11	SHOULDER	1294	n/a	n/a	0	0	0
2579.22	n/a	WORD	1289610	wordpools/wasnorm_wordpool_576.txt	LTP318	ltpFR2	14	11	POISON	1096	n/a	n/a	0	0	0
2581.954	n/a	WORD	1290977	wordpools/wasnorm_wordpool_576.txt	LTP318	ltpFR2	14	11	SCULPTURE	1258	n/a	n/a	0	0	0
2584.582	n/a	WORD	1292291	wordpools/wasnorm_wordpool_576.txt	LTP318	ltpFR2	14	11	GRAVE	658	n/a	n/a	0	0	0
2587.334	n/a	WORD	1293667	wordpools/wasnorm_wordpool_576.txt	LTP318	ltpFR2	14	11	CLOUD	328	n/a	n/a	0	0	0
2589.81	n/a	WORD	1294905	wordpools/wasnorm_wordpool_576.txt	LTP318	ltpFR2	14	11	LAGOON	795	n/a	n/a	0	0	0
2592.62	n/a	WORD	1296310	wordpools/wasnorm_wordpool_576.txt	LTP318	ltpFR2	14	11	DRINK	498	n/a	n/a	0	0	0
2595.264	n/a	WORD	1297632	wordpools/wasnorm_wordpool_576.txt	LTP318	ltpFR2	14	11	CONTRACT	368	n/a	n/a	0	0	0
2597.692	n/a	WORD	1298846	wordpools/wasnorm_wordpool_576.txt	LTP318	ltpFR2	14	11	APRON	35	n/a	n/a	0	0	0
2600.294	n/a	WORD	1300147	wordpools/wasnorm_wordpool_576.txt	LTP318	ltpFR2	14	11	COOK	372	n/a	n/a	0	0	0
2602.854	n/a	WORD	1301427	wordpools/wasnorm_wordpool_576.txt	LTP318	ltpFR2	14	11	GARDEN	623	n/a	n/a	0	0	0
2605.65	n/a	WORD	1302825	wordpools/wasnorm_wordpool_576.txt	LTP318	ltpFR2	14	11	WAITRESS	1581	n/a	n/a	0	0	0
2607.258	n/a	START	1303629	n/a	LTP318	ltpFR2	14	n/a	n/a	n/a	17	n/a	n/a	n/a	n/a
2608.088	n/a	DISTRACTOR	1304044	n/a	LTP318	ltpFR2	14	11	n/a	n/a	n/a	n/a	0	0	0
2608.092	n/a	PROB	1304046	n/a	LTP318	ltpFR2	14	n/a	n/a	n/a	17	19	2	8	9
2610.552	n/a	PROB	1305276	n/a	LTP318	ltpFR2	14	n/a	n/a	n/a	17	21	6	7	8
2616.358	n/a	PROB	1308179	n/a	LTP318	ltpFR2	14	n/a	n/a	n/a	17	14	8	2	4
2617.942	n/a	PROB	1308971	n/a	LTP318	ltpFR2	14	n/a	n/a	n/a	17	14	4	2	8
2619.926	n/a	PROB	1309963	n/a	LTP318	ltpFR2	14	n/a	n/a	n/a	17	18	2	8	8
2621.512	n/a	PROB	1310756	n/a	LTP318	ltpFR2	14	n/a	n/a	n/a	17	4	1	2	1
2622.912	n/a	PROB	1311456	n/a	LTP318	ltpFR2	14	n/a	n/a	n/a	17	12	2	9	1
2624.814	n/a	PROB	1312407	n/a	LTP318	ltpFR2	14	n/a	n/a	n/a	17	14	1	4	9
2626.582	n/a	PROB	1313291	n/a	LTP318	ltpFR2	14	n/a	n/a	n/a	17	11	5	3	3
2628.266	n/a	PROB	1314133	n/a	LTP318	ltpFR2	14	n/a	n/a	n/a	17	11	5	1	5
2629.72	n/a	STOP	1314860	n/a	LTP318	ltpFR2	14	n/a	n/a	n/a	17	n/a	n/a	n/a	n/a
2633.072	n/a	REC_START	1316536	n/a	LTP318	ltpFR2	14	11	n/a	n/a	n/a	n/a	0	0	0
2636.598	n/a	REC_WORD_VV	1318299	wordpools/wasnorm_wordpool_576.txt	LTP318	ltpFR2	14	11	<>	-1	n/a	n/a	0	0	0
2640.232	n/a	REC_WORD	1320116	wordpools/wasnorm_wordpool_576.txt	LTP318	ltpFR2	14	11	SPHINX	1349	n/a	n/a	0	0	0
2641.232	n/a	REC_WORD_VV	1320616	wordpools/wasnorm_wordpool_576.txt	LTP318	ltpFR2	14	11	<>	-1	n/a	n/a	0	0	0
2652.09	n/a	REC_WORD	1326045	wordpools/wasnorm_wordpool_576.txt	LTP318	ltpFR2	14	11	LONDON	843	n/a	n/a	0	0	0
2655.196	n/a	REC_WORD	1327598	wordpools/wasnorm_wordpool_576.txt	LTP318	ltpFR2	14	11	LION	827	n/a	n/a	0	0	0
2656.104	n/a	REC_WORD	1328052	wordpools/wasnorm_wordpool_576.txt	LTP318	ltpFR2	14	11	LEG	809	n/a	n/a	0	0	0
2660.88	n/a	REC_WORD	1330440	wordpools/wasnorm_wordpool_576.txt	LTP318	ltpFR2	14	11	STREAM	1392	n/a	n/a	0	0	0
2661.88	n/a	REC_WORD_VV	1330940	wordpools/wasnorm_wordpool_576.txt	LTP318	ltpFR2	14	11	<>	-1	n/a	n/a	0	0	0
2663.248	n/a	REC_WORD	1331624	wordpools/wasnorm_wordpool_576.txt	LTP318	ltpFR2	14	11	STREAM	1392	n/a	n/a	0	0	0
2664.0	n/a	REC_WORD	1332000	wordpools/wasnorm_wordpool_576.txt	LTP318	ltpFR2	14	11	SWAMP	1416	n/a	n/a	0	0	0
2665.066	n/a	REC_WORD	1332533	wordpools/wasnorm_wordpool_576.txt	LTP318	ltpFR2	14	11	MONSTER	912	n/a	n/a	0	0	0
2668.87	n/a	REC_WORD	1334435	wordpools/wasnorm_wordpool_576.txt	LTP318	ltpFR2	14	11	CLOUD	328	n/a	n/a	0	0	0
2669.458	n/a	REC_WORD	1334729	wordpools/wasnorm_wordpool_576.txt	LTP318	ltpFR2	14	11	LAGOON	795	n/a	n/a	0	0	0
2723.55	n/a	WORD	1361775	wordpools/wasnorm_wordpool_576.txt	LTP318	ltpFR2	14	12	LUGGAGE	847	n/a	n/a	0	0	0
2726.034	n/a	WORD	1363017	wordpools/wasnorm_wordpool_576.txt	LTP318	ltpFR2	14	12	PERCH	1048	n/a	n/a	0	0	0
2728.738	n/a	WORD	1364369	wordpools/wasnorm_wordpool_576.txt	LTP318	ltpFR2	14	12	PASTA	1021	n/a	n/a	0	0	0
2731.238	n/a	WORD	1365619	wordpools/wasnorm_wordpool_576.txt	LTP318	ltpFR2	14	12	TUTU	1524	n/a	n/a	0	0	0
2733.692	n/a	WORD	1366846	wordpools/wasnorm_wordpool_576.txt	LTP318	ltpFR2	14	12	TUNNEL	1519	n/a	n/a	0	0	0
2736.51	n/a	WORD	1368255	wordpools/wasnorm_wordpool_576.txt	LTP318	ltpFR2	14	12	PARENT	1013	n/a	n/a	0	0	0
2738.962	n/a	WORD	1369481	wordpools/wasnorm_wordpool_576.txt	LTP318	ltpFR2	14	12	PLAID	1080	n/a	n/a	0	0	0
2741.466	n/a	WORD	1370733	wordpools/wasnorm_wordpool_576.txt	LTP318	ltpFR2	14	12	DAISY	435	n/a	n/a	0	0	0
2744.266	n/a	WORD	1372133	wordpools/wasnorm_wordpool_576.txt	LTP318	ltpFR2	14	12	SUSPECT	1415	n/a	n/a	0	0	0
2746.986	n/a	WORD	1373493	wordpools/wasnorm_wordpool_576.txt	LTP318	ltpFR2	14	12	RECEIPT	1173	n/a	n/a	0	0	0
2749.67	n/a	WORD	1374835	wordpools/wasnorm_wordpool_576.txt	LTP318	ltpFR2	14	12	DANCER	437	n/a	n/a	0	0	0
2752.206	n/a	WORD	1376103	wordpools/wasnorm_wordpool_576.txt	LTP318	ltpFR2	14	12	ICING	732	n/a	n/a	0	0	0
2755.008	n/a	WORD	1377504	wordpools/wasnorm_wordpool_576.txt	LTP318	ltpFR2	14	12	GIRL	637	n/a	n/a	0	0	0
2757.712	n/a	WORD	1378856	wordpools/wasnorm_wordpool_576.txt	LTP318	ltpFR2	14	12	DANDRUFF	439	n/a	n/a	0	0	0
2760.278	n/a	WORD	1380139	wordpools/wasnorm_wordpool_576.txt	LTP318	ltpFR2	14	12	PEPPER	1047	n/a	n/a	0	0	0
2763.048	n/a	WORD	1381524	wordpools/wasnorm_wordpool_576.txt	LTP318	ltpFR2	14	12	GARLIC	624	n/a	n/a	0	0	0
2765.854	n/a	WORD	1382927	wordpools/wasnorm_wordpool_576.txt	LTP318	ltpFR2	14	12	WAGON	1578	n/a	n/a	0	0	0
2768.52	n/a	WORD	1384260	wordpools/wasnorm_wordpool_576.txt	LTP318	ltpFR2	14	12	TEMPLE	1448	n/a	n/a	0	0	0
2771.142	n/a	WORD	1385571	wordpools/wasnorm_wordpool_576.txt	LTP318	ltpFR2	14	12	TOURIST	1488	n/a	n/a	0	0	0
2773.872	n/a	WORD	1386936	wordpools/wasnorm_wordpool_576.txt	LTP318	ltpFR2	14	12	RECORD	1176	n/a	n/a	0	0	0
2776.342	n/a	WORD	1388171	wordpools/wasnorm_wordpool_576.txt	LTP318	ltpFR2	14	12	HARP	689	n/a	n/a	0	0	0
2778.91	n/a	WORD	1389455	wordpools/wasnorm_wordpool_576.txt	LTP318	ltpFR2	14	12	WORKER	1621	n/a	n/a	0	0	0
2781.446	n/a	WORD	1390723	wordpools/wasnorm_wordpool_576.txt	LTP318	ltpFR2	14	12	HONEY	713	n/a	n/a	0	0	0
2784.032	n/a	WORD	1392016	wordpools/wasnorm_wordpool_576.txt	LTP318	ltpFR2	14	12	CLOCK	325	n/a	n/a	0	0	0
2785.64	n/a	START	1392820	n/a	LTP318	ltpFR2	14	n/a	n/a	n/a	18	n/a	n/a	n/a	n/a
2786.488	n/a	DISTRACTOR	1393244	n/a	LTP318	ltpFR2	14	12	n/a	n/a	n/a	n/a	0	0	0
2786.5	n/a	PROB	1393250	n/a	LTP318	ltpFR2	14	n/a	n/a	n/a	18	18	8	2	8
2788.64	n/a	PROB	1394320	n/a	LTP318	ltpFR2	14	n/a	n/a	n/a	18	11	6	2	3
2790.758	n/a	PROB	1395379	n/a	LTP318	ltpFR2	14	n/a	n/a	n/a	18	21	9	8	4
2793.442	n/a	PROB	1396721	n/a	LTP318	ltpFR2	14	n/a	n/a	n/a	18	12	8	2	2
2795.378	n/a	PROB	1397689	n/a	LTP318	ltpFR2	14	n/a	n/a	n/a	18	19	6	6	7
2796.93	n/a	PROB	1398465	n/a	LTP318	ltpFR2	14	n/a	n/a	n/a	18	13	5	2	6
2800.55	n/a	PROB	1400275	n/a	LTP318	ltpFR2	14	n/a	n/a	n/a	18	21	9	3	9
2803.32	n/a	PROB	1401660	n/a	LTP318	ltpFR2	14	n/a	n/a	n/a	18	15	4	2	9
2805.186	n/a	PROB	1402593	n/a	LTP318	ltpFR2	14	n/a	n/a	n/a	18	7	2	2	3
2809.64	n/a	STOP	1404820	n/a	LTP318	ltpFR2	14	n/a	n/a	n/a	18	n/a	n/a	n/a	n/a
2811.56	n/a	REC_START	1405780	n/a	LTP318	ltpFR2	14	12	n/a	n/a	n/a	n/a	0	0	0
2816.2	n/a	REC_WORD	1408100	wordpools/wasnorm_wordpool_576.txt	LTP318	ltpFR2	14	12	PERCH	1048	n/a	n/a	0	0	0
2817.404	n/a	REC_WORD	1408702	wordpools/wasnorm_wordpool_576.txt	LTP318	ltpFR2	14	12	LUGGAGE	847	n/a	n/a	0	0	0
2824.83	n/a	REC_WORD	1412415	wordpools/wasnorm_wordpool_576.txt	LTP318	ltpFR2	14	12	PASTA	1021	n/a	n/a	0	0	0
2825.684	n/a	REC_WORD	1412842	wordpools/wasnorm_wordpool_576.txt	LTP318	ltpFR2	14	12	DANCER	437	n/a	n/a	0	0	0
2826.474	n/a	REC_WORD	1413237	wordpools/wasnorm_wordpool_576.txt	LTP318	ltpFR2	14	12	GIRL	637	n/a	n/a	0	0	0
2827.206	n/a	REC_WORD	1413603	wordpools/wasnorm_wordpool_576.txt	LTP318	ltpFR2	14	12	TUNNEL	1519	n/a	n/a	0	0	0
2830.868	n/a	REC_WORD	1415434	wordpools/wasnorm_wordpool_576.txt	LTP318	ltpFR2	14	12	DANDRUFF	439	n/a	n/a	0	0	0
2832.07	n/a	REC_WORD	1416035	wordpools/wasnorm_wordpool_576.txt	LTP318	ltpFR2	14	12	PEPPER	1047	n/a	n/a	0	0	0
2832.73	n/a	REC_WORD	1416365	wordpools/wasnorm_wordpool_576.txt	LTP318	ltpFR2	14	12	GARLIC	624	n/a	n/a	0	0	0
2844.176	n/a	REC_WORD	1422088	wordpools/wasnorm_wordpool_576.txt	LTP318	ltpFR2	14	12	WORKER	1621	n/a	n/a	0	0	0
2847.24	n/a	REC_WORD	1423620	wordpools/wasnorm_wordpool_576.txt	LTP318	ltpFR2	14	12	CLOCK	325	n/a	n/a	0	0	0
2849.468	n/a	REC_WORD	1424734	wordpools/wasnorm_wordpool_576.txt	LTP318	ltpFR2	14	12	HONEY	713	n/a	n/a	0	0	0
2901.992	n/a	DISTRACTOR	1450996	n/a	LTP318	ltpFR2	14	13	n/a	n/a	n/a	n/a	0	0	0
2901.992	n/a	START	1450996	n/a	LTP318	ltpFR2	14	n/a	n/a	n/a	19	n/a	n/a	n/a	n/a
2902.006	n/a	PROB	1451003	n/a	LTP318	ltpFR2	14	n/a	n/a	n/a	19	16	6	2	7
2905.14	n/a	PROB	1452570	n/a	LTP318	ltpFR2	14	n/a	n/a	n/a	19	11	2	7	2
2907.158	n/a	PROB	1453579	n/a	LTP318	ltpFR2	14	n/a	n/a	n/a	19	6	4	1	1
2908.392	n/a	PROB	1454196	n/a	LTP318	ltpFR2	14	n/a	n/a	n/a	19	15	4	3	8
2910.278	n/a	PROB	1455139	n/a	LTP318	ltpFR2	14	n/a	n/a	n/a	19	13	2	6	5
2912.448	n/a	PROB	1456224	n/a	LTP318	ltpFR2	14	n/a	n/a	n/a	19	11	1	4	6
2913.998	n/a	PROB	1456999	n/a	LTP318	ltpFR2	14	n/a	n/a	n/a	19	9	5	3	1
2915.532	n/a	PROB	1457766	n/a	LTP318	ltpFR2	14	n/a	n/a	n/a	19	13	6	4	3
2917.066	n/a	PROB	1458533	n/a	LTP318	ltpFR2	14	n/a	n/a	n/a	19	9	3	2	4
2918.4	n/a	PROB	1459200	n/a	LTP318	ltpFR2	14	n/a	n/a	n/a	19	10	6	2	2
2920.418	n/a	PROB	1460209	n/a	LTP318	ltpFR2	14	n/a	n/a	n/a	19	12	1	9	2
2921.788	n/a	PROB	1460894	n/a	LTP318	ltpFR2	14	n/a	n/a	n/a	19	14	8	4	2
2923.59	n/a	PROB	1461795	n/a	LTP318	ltpFR2	14	n/a	n/a	n/a	19	16	4	3	9
2925.296	n/a	STOP	1462648	n/a	LTP318	ltpFR2	14	n/a	n/a	n/a	19	n/a	n/a	n/a	n/a
2927.126	n/a	WORD	1463563	wordpools/wasnorm_wordpool_576.txt	LTP318	ltpFR2	14	13	PERMIT	1051	n/a	n/a	0	0	0
2929.728	n/a	WORD	1464864	wordpools/wasnorm_wordpool_576.txt	LTP318	ltpFR2	14	13	TUBA	1515	n/a	n/a	0	0	0
2932.498	n/a	WORD	1466249	wordpools/wasnorm_wordpool_576.txt	LTP318	ltpFR2	14	13	STICKER	1382	n/a	n/a	0	0	0
2935.032	n/a	WORD	1467516	wordpools/wasnorm_wordpool_576.txt	LTP318	ltpFR2	14	13	JURY	766	n/a	n/a	0	0	0
2937.504	n/a	WORD	1468752	wordpools/wasnorm_wordpool_576.txt	LTP318	ltpFR2	14	13	GAVEL	627	n/a	n/a	0	0	0
2940.304	n/a	WORD	1470152	wordpools/wasnorm_wordpool_576.txt	LTP318	ltpFR2	14	13	ONION	977	n/a	n/a	0	0	0
2942.756	n/a	WORD	1471378	wordpools/wasnorm_wordpool_576.txt	LTP318	ltpFR2	14	13	GAZELLE	628	n/a	n/a	0	0	0
2945.308	n/a	WORD	1472654	wordpools/wasnorm_wordpool_576.txt	LTP318	ltpFR2	14	13	BOX	159	n/a	n/a	0	0	0
2948.026	n/a	WORD	1474013	wordpools/wasnorm_wordpool_576.txt	LTP318	ltpFR2	14	13	WORLD	1622	n/a	n/a	0	0	0
2950.548	n/a	WORD	1475274	wordpools/wasnorm_wordpool_576.txt	LTP318	ltpFR2	14	13	NOTEBOOK	959	n/a	n/a	0	0	0
2952.982	n/a	WORD	1476491	wordpools/wasnorm_wordpool_576.txt	LTP318	ltpFR2	14	13	BABY	64	n/a	n/a	0	0	0
2955.516	n/a	WORD	1477758	wordpools/wasnorm_wordpool_576.txt	LTP318	ltpFR2	14	13	DUST	508	n/a	n/a	0	0	0
2958.102	n/a	WORD	1479051	wordpools/wasnorm_wordpool_576.txt	LTP318	ltpFR2	14	13	PRINCE	1124	n/a	n/a	0	0	0
2960.838	n/a	WORD	1480419	wordpools/wasnorm_wordpool_576.txt	LTP318	ltpFR2	14	13	JOURNAL	760	n/a	n/a	0	0	0
2963.34	n/a	WORD	1481670	wordpools/wasnorm_wordpool_576.txt	LTP318	ltpFR2	14	13	TILE	1468	n/a	n/a	0	0	0
2965.792	n/a	WORD	1482896	wordpools/wasnorm_wordpool_576.txt	LTP318	ltpFR2	14	13	MOP	916	n/a	n/a	0	0	0
2968.226	n/a	WORD	1484113	wordpools/wasnorm_wordpool_576.txt	LTP318	ltpFR2	14	13	FIDDLE	561	n/a	n/a	0	0	0
2970.98	n/a	WORD	1485490	wordpools/wasnorm_wordpool_576.txt	LTP318	ltpFR2	14	13	PEDAL	1037	n/a	n/a	0	0	0
2973.566	n/a	WORD	1486783	wordpools/wasnorm_wordpool_576.txt	LTP318	ltpFR2	14	13	PISTON	1076	n/a	n/a	0	0	0
2976.1	n/a	WORD	1488050	wordpools/wasnorm_wordpool_576.txt	LTP318	ltpFR2	14	13	CHILD	299	n/a	n/a	0	0	0
2978.554	n/a	WORD	1489277	wordpools/wasnorm_wordpool_576.txt	LTP318	ltpFR2	14	13	THIEF	1456	n/a	n/a	0	0	0
2981.038	n/a	WORD	1490519	wordpools/wasnorm_wordpool_576.txt	LTP318	ltpFR2	14	13	FOOT	590	n/a	n/a	0	0	0
2983.672	n/a	WORD	1491836	wordpools/wasnorm_wordpool_576.txt	LTP318	ltpFR2	14	13	ATOM	55	n/a	n/a	0	0	0
2986.46	n/a	WORD	1493230	wordpools/wasnorm_wordpool_576.txt	LTP318	ltpFR2	14	13	BIKE	125	n/a	n/a	0	0	0
2988.076	n/a	START	1494038	n/a	LTP318	ltpFR2	14	n/a	n/a	n/a	20	n/a	n/a	n/a	n/a
2989.0	n/a	DISTRACTOR	1494500	n/a	LTP318	ltpFR2	14	13	n/a	n/a	n/a	n/a	0	0	0
2989.01	n/a	PROB	1494505	n/a	LTP318	ltpFR2	14	n/a	n/a	n/a	20	15	7	3	5
2992.48	n/a	PROB	1496240	n/a	LTP318	ltpFR2	14	n/a	n/a	n/a	20	7	3	2	2
2994.164	n/a	PROB	1497082	n/a	LTP318	ltpFR2	14	n/a	n/a	n/a	20	15	6	3	8
2995.83	n/a	PROB	1497915	n/a	LTP318	ltpFR2	14	n/a	n/a	n/a	20	9	4	2	3
2997.6	n/a	PROB	1498800	n/a	LTP318	ltpFR2	14	n/a	n/a	n/a	20	18	8	8	2
2999.084	n/a	PROB	1499542	n/a	LTP318	ltpFR2	14	n/a	n/a	n/a	20	25	9	8	8
3002.14	n/a	PROB	1501070	n/a	LTP318	ltpFR2	14	n/a	n/a	n/a	20	19	8	2	9
3003.49	n/a	PROB	1501745	n/a	LTP318	ltpFR2	14	n/a	n/a	n/a	20	16	8	6	2
3005.306	n/a	PROB	1502653	n/a	LTP318	ltpFR2	14	n/a	n/a	n/a	20	14	6	6	2
3006.624	n/a	PROB	1503312	n/a	LTP318	ltpFR2	14	n/a	n/a	n/a	20	17	8	2	7
3008.062	n/a	PROB	1504031	n/a	LTP318	ltpFR2	14	n/a	n/a	n/a	20	18	7	2	9
3009.798	n/a	PROB	1504899	n/a	LTP318	ltpFR2	14	n/a	n/a	n/a	20	11	1	5	5
3011.042	n/a	STOP	1505521	n/a	LTP318	ltpFR2	14	n/a	n/a	n/a	20	n/a	n/a	n/a	n/a
3013.962	n/a	REC_START	1506981	n/a	LTP318	ltpFR2	14	13	n/a	n/a	n/a	n/a	0	0	0
3017.93	n/a	REC_WORD_VV	1508965	wordpools/wasnorm_wordpool_576.txt	LTP318	ltpFR2	14	13	<>	-1	n/a	n/a	0	0	0
3018.93	n/a	REC_WORD_VV	1509465	wordpools/wasnorm_wordpool_576.txt	LTP318	ltpFR2	14	13	<>	-1	n/a	n/a	0	0	0
3022.928	n/a	REC_WORD	1511464	wordpools/wasnorm_wordpool_576.txt	LTP318	ltpFR2	14	13	PERMIT	1051	n/a	n/a	0	0	0
3023.672	n/a	REC_WORD	1511836	wordpools/wasnorm_wordpool_576.txt	LTP318	ltpFR2	14	13	TUBA	1515	n/a	n/a	0	0	0
3024.154	n/a	REC_WORD	1512077	wordpools/wasnorm_wordpool_576.txt	LTP318	ltpFR2	14	13	STICKER	1382	n/a	n/a	0	0	0
3026.02	n/a	REC_WORD	1513010	wordpools/wasnorm_wordpool_576.txt	LTP318	ltpFR2	14	13	JURY	766	n/a	n/a	0	0	0
3027.044	n/a	REC_WORD	1513522	wordpools/wasnorm_wordpool_576.txt	LTP318	ltpFR2	14	13	GAVEL	627	n/a	n/a	0	0	0
3065.664	n/a	REC_WORD	1532832	wordpools/wasnorm_wordpool_576.txt	LTP318	ltpFR2	14	13	BABY	64	n/a	n/a	0	0	0
3066.228	n/a	REC_WORD	1533114	wordpools/wasnorm_wordpool_576.txt	LTP318	ltpFR2	14	13	PRINCE	1124	n/a	n/a	0	0	0
3104.396	n/a	DISTRACTOR	1552198	n/a	LTP318	ltpFR2	14	14	n/a	n/a	n/a	n/a	0	0	0
3104.396	n/a	START	1552198	n/a	LTP318	ltpFR2	14	n/a	n/a	n/a	21	n/a	n/a	n/a	n/a
3104.412	n/a	PROB	1552206	n/a	LTP318	ltpFR2	14	n/a	n/a	n/a	21	21	5	9	7
3107.148	n/a	PROB	1553574	n/a	LTP318	ltpFR2	14	n/a	n/a	n/a	21	11	2	3	6
3108.6	n/a	PROB	1554300	n/a	LTP318	ltpFR2	14	n/a	n/a	n/a	21	9	5	1	3
3110.816	n/a	PROB	1555408	n/a	LTP318	ltpFR2	14	n/a	n/a	n/a	21	16	2	7	7
3112.352	n/a	PROB	1556176	n/a	LTP318	ltpFR2	14	n/a	n/a	n/a	21	1	8	5	4
3114.722	n/a	PROB	1557361	n/a	LTP318	ltpFR2	14	n/a	n/a	n/a	21	15	7	7	1
3116.688	n/a	PROB	1558344	n/a	LTP318	ltpFR2	14	n/a	n/a	n/a	21	23	6	9	8
3118.574	n/a	PROB	1559287	n/a	LTP318	ltpFR2	14	n/a	n/a	n/a	21	17	5	8	4
3121.142	n/a	PROB	1560571	n/a	LTP318	ltpFR2	14	n/a	n/a	n/a	21	12	3	1	8
3122.696	n/a	PROB	1561348	n/a	LTP318	ltpFR2	14	n/a	n/a	n/a	21	13	5	6	2
3125.764	n/a	PROB	1562882	n/a	LTP318	ltpFR2	14	n/a	n/a	n/a	21	6	1	1	4
3127.27	n/a	STOP	1563635	n/a	LTP318	ltpFR2	14	n/a	n/a	n/a	21	n/a	n/a	n/a	n/a
3129.4	n/a	WORD	1564700	wordpools/wasnorm_wordpool_576.txt	LTP318	ltpFR2	14	14	CAPTIVE	240	n/a	n/a	0	0	0
3132.174	n/a	WORD	1566087	wordpools/wasnorm_wordpool_576.txt	LTP318	ltpFR2	14	14	CONVICT	371	n/a	n/a	0	0	0
3134.972	n/a	WORD	1567486	wordpools/wasnorm_wordpool_576.txt	LTP318	ltpFR2	14	14	FLEET	578	n/a	n/a	0	0	0
3137.48	n/a	WORD	1568740	wordpools/wasnorm_wordpool_576.txt	LTP318	ltpFR2	14	14	SKIRT	1319	n/a	n/a	0	0	0
3140.214	n/a	WORD	1570107	wordpools/wasnorm_wordpool_576.txt	LTP318	ltpFR2	14	14	FREEZER	604	n/a	n/a	0	0	0
3142.646	n/a	WORD	1571323	wordpools/wasnorm_wordpool_576.txt	LTP318	ltpFR2	14	14	SANDWICH	1232	n/a	n/a	0	0	0
3145.266	n/a	WORD	1572633	wordpools/wasnorm_wordpool_576.txt	LTP318	ltpFR2	14	14	REBEL	1172	n/a	n/a	0	0	0
3147.8	n/a	WORD	1573900	wordpools/wasnorm_wordpool_576.txt	LTP318	ltpFR2	14	14	OUTFIT	988	n/a	n/a	0	0	0
3150.47	n/a	WORD	1575235	wordpools/wasnorm_wordpool_576.txt	LTP318	ltpFR2	14	14	LAVA	804	n/a	n/a	0	0	0
3153.004	n/a	WORD	1576502	wordpools/wasnorm_wordpool_576.txt	LTP318	ltpFR2	14	14	CLAM	315	n/a	n/a	0	0	0
3155.758	n/a	WORD	1577879	wordpools/wasnorm_wordpool_576.txt	LTP318	ltpFR2	14	14	KETCHUP	771	n/a	n/a	0	0	0
3158.51	n/a	WORD	1579255	wordpools/wasnorm_wordpool_576.txt	LTP318	ltpFR2	14	14	DONOR	485	n/a	n/a	0	0	0
3161.01	n/a	WORD	1580505	wordpools/wasnorm_wordpool_576.txt	LTP318	ltpFR2	14	14	PLAYGROUND	1087	n/a	n/a	0	0	0
3163.464	n/a	WORD	1581732	wordpools/wasnorm_wordpool_576.txt	LTP318	ltpFR2	14	14	DRAWING	494	n/a	n/a	0	0	0
3165.946	n/a	WORD	1582973	wordpools/wasnorm_wordpool_576.txt	LTP318	ltpFR2	14	14	GOBLIN	645	n/a	n/a	0	0	0
3168.466	n/a	WORD	1584233	wordpools/wasnorm_wordpool_576.txt	LTP318	ltpFR2	14	14	WASHER	1592	n/a	n/a	0	0	0
3171.286	n/a	WORD	1585643	wordpools/wasnorm_wordpool_576.txt	LTP318	ltpFR2	14	14	HUMAN	726	n/a	n/a	0	0	0
3173.904	n/a	WORD	1586952	wordpools/wasnorm_wordpool_576.txt	LTP318	ltpFR2	14	14	BODY	145	n/a	n/a	0	0	0
3176.626	n/a	WORD	1588313	wordpools/wasnorm_wordpool_576.txt	LTP318	ltpFR2	14	14	DENIM	446	n/a	n/a	0	0	0
3179.076	n/a	WORD	1589538	wordpools/wasnorm_wordpool_576.txt	LTP318	ltpFR2	14	14	CRAYON	401	n/a	n/a	0	0	0
3181.746	n/a	WORD	1590873	wordpools/wasnorm_wordpool_576.txt	LTP318	ltpFR2	14	14	MILK	895	n/a	n/a	0	0	0
3184.548	n/a	WORD	1592274	wordpools/wasnorm_wordpool_576.txt	LTP318	ltpFR2	14	14	BRACES	164	n/a	n/a	0	0	0
3187.366	n/a	WORD	1593683	wordpools/wasnorm_wordpool_576.txt	LTP318	ltpFR2	14	14	FLOWER	584	n/a	n/a	0	0	0
3189.868	n/a	WORD	1594934	wordpools/wasnorm_wordpool_576.txt	LTP318	ltpFR2	14	14	PIANO	1057	n/a	n/a	0	0	0
3191.488	n/a	START	1595744	n/a	LTP318	ltpFR2	14	n/a	n/a	n/a	22	n/a	n/a	n/a	n/a
3192.562	n/a	DISTRACTOR	1596281	n/a	LTP318	ltpFR2	14	14	n/a	n/a	n/a	n/a	0	0	0
3192.572	n/a	PROB	1596286	n/a	LTP318	ltpFR2	14	n/a	n/a	n/a	22	15	6	8	1
3195.476	n/a	PROB	1597738	n/a	LTP318	ltpFR2	14	n/a	n/a	n/a	22	10	2	3	5
3197.29	n/a	PROB	1598645	n/a	LTP318	ltpFR2	14	n/a	n/a	n/a	22	14	8	3	3
3199.174	n/a	PROB	1599587	n/a	LTP318	ltpFR2	14	n/a	n/a	n/a	22	14	3	3	8
3200.794	n/a	PROB	1600397	n/a	LTP318	ltpFR2	14	n/a	n/a	n/a	22	18	6	5	7
3203.046	n/a	PROB	1601523	n/a	LTP318	ltpFR2	14	n/a	n/a	n/a	22	8	3	4	1
3204.864	n/a	PROB	1602432	n/a	LTP318	ltpFR2	14	n/a	n/a	n/a	22	16	5	7	4
3208.25	n/a	PROB	1604125	n/a	LTP318	ltpFR2	14	n/a	n/a	n/a	22	10	7	2	1
3209.97	n/a	PROB	1604985	n/a	LTP318	ltpFR2	14	n/a	n/a	n/a	22	18	4	8	6
3212.42	n/a	PROB	1606210	n/a	LTP318	ltpFR2	14	n/a	n/a	n/a	22	9	5	3	1
3213.976	n/a	STOP	1606988	n/a	LTP318	ltpFR2	14	n/a	n/a	n/a	22	n/a	n/a	n/a	n/a
3217.342	n/a	REC_START	1608671	n/a	LTP318	ltpFR2	14	14	n/a	n/a	n/a	n/a	0	0	0
3222.778	n/a	REC_WORD	1611389	wordpools/wasnorm_wordpool_576.txt	LTP318	ltpFR2	14	14	CONVICT	371	n/a	n/a	0	0	0
3223.672	n/a	REC_WORD	1611836	wordpools/wasnorm_wordpool_576.txt	LTP318	ltpFR2	14	14	CAPTIVE	240	n/a	n/a	0	0	0
3224.668	n/a	REC_WORD_VV	1612334	wordpools/wasnorm_wordpool_576.txt	LTP318	ltpFR2	14	14	<>	-1	n/a	n/a	0	0	0
3224.674	n/a	REC_WORD	1612337	wordpools/wasnorm_wordpool_576.txt	LTP318	ltpFR2	14	14	FLEET	578	n/a	n/a	0	0	0
3225.8	n/a	REC_WORD_VV	1612900	wordpools/wasnorm_wordpool_576.txt	LTP318	ltpFR2	14	14	<>	-1	n/a	n/a	0	0	0
3231.25	n/a	REC_WORD	1615625	wordpools/wasnorm_wordpool_576.txt	LTP318	ltpFR2	14	14	SANDWICH	1232	n/a	n/a	0	0	0
3232.25	n/a	REC_WORD_VV	1616125	wordpools/wasnorm_wordpool_576.txt	LTP318	ltpFR2	14	14	<>	-1	n/a	n/a	0	0	0
3239.158	n/a	REC_WORD	1619579	wordpools/wasnorm_wordpool_576.txt	LTP318	ltpFR2	14	14	HUMAN	726	n/a	n/a	0	0	0
3240.002	n/a	REC_WORD	1620001	wordpools/wasnorm_wordpool_576.txt	LTP318	ltpFR2	14	14	BODY	145	n/a	n/a	0	0	0
3272.32	n/a	REC_WORD	1636160	wordpools/wasnorm_wordpool_576.txt	LTP318	ltpFR2	14	14	CRAYON	401	n/a	n/a	0	0	0
3273.908	n/a	REC_WORD_VV	1636954	wordpools/wasnorm_wordpool_576.txt	LTP318	ltpFR2	14	14	<>	-1	n/a	n/a	0	0	0
3307.786	n/a	WORD	1653893	wordpools/wasnorm_wordpool_576.txt	LTP318	ltpFR2	14	15	RUST	1219	n/a	n/a	0	0	0
3310.608	n/a	WORD	1655304	wordpools/wasnorm_wordpool_576.txt	LTP318	ltpFR2	14	15	JAPAN	749	n/a	n/a	0	0	0
3313.184	n/a	WORD	1656592	wordpools/wasnorm_wordpool_576.txt	LTP318	ltpFR2	14	15	PASTRY	1022	n/a	n/a	0	0	0
3315.936	n/a	WORD	1657968	wordpools/wasnorm_wordpool_576.txt	LTP318	ltpFR2	14	15	TAXI	1438	n/a	n/a	0	0	0
3318.63	n/a	WORD	1659315	wordpools/wasnorm_wordpool_576.txt	LTP318	ltpFR2	14	15	EGYPT	519	n/a	n/a	0	0	0
3321.148	n/a	WORD	1660574	wordpools/wasnorm_wordpool_576.txt	LTP318	ltpFR2	14	15	REPORT	1184	n/a	n/a	0	0	0
3323.802	n/a	WORD	1661901	wordpools/wasnorm_wordpool_576.txt	LTP318	ltpFR2	14	15	SIBLING	1301	n/a	n/a	0	0	0
3326.588	n/a	WORD	1663294	wordpools/wasnorm_wordpool_576.txt	LTP318	ltpFR2	14	15	FLUTE	585	n/a	n/a	0	0	0
3329.406	n/a	WORD	1664703	wordpools/wasnorm_wordpool_576.txt	LTP318	ltpFR2	14	15	WHISTLE	1606	n/a	n/a	0	0	0
3331.824	n/a	WORD	1665912	wordpools/wasnorm_wordpool_576.txt	LTP318	ltpFR2	14	15	COOKBOOK	373	n/a	n/a	0	0	0
3334.344	n/a	WORD	1667172	wordpools/wasnorm_wordpool_576.txt	LTP318	ltpFR2	14	15	WAITER	1580	n/a	n/a	0	0	0
3336.946	n/a	WORD	1668473	wordpools/wasnorm_wordpool_576.txt	LTP318	ltpFR2	14	15	SCARECROW	1245	n/a	n/a	0	0	0
3339.616	n/a	WORD	1669808	wordpools/wasnorm_wordpool_576.txt	LTP318	ltpFR2	14	15	FARMER	553	n/a	n/a	0	0	0
3342.3	n/a	WORD	1671150	wordpools/wasnorm_wordpool_576.txt	LTP318	ltpFR2	14	15	SMOG	1330	n/a	n/a	0	0	0
3345.058	n/a	WORD	1672529	wordpools/wasnorm_wordpool_576.txt	LTP318	ltpFR2	14	15	YOLK	1633	n/a	n/a	0	0	0
3347.522	n/a	WORD	1673761	wordpools/wasnorm_wordpool_576.txt	LTP318	ltpFR2	14	15	MILDEW	893	n/a	n/a	0	0	0
3349.996	n/a	WORD	1674998	wordpools/wasnorm_wordpool_576.txt	LTP318	ltpFR2	14	15	PICNIC	1060	n/a	n/a	0	0	0
3352.626	n/a	WORD	1676313	wordpools/wasnorm_wordpool_576.txt	LTP318	ltpFR2	14	15	STOVE	1388	n/a	n/a	0	0	0
3355.262	n/a	WORD	1677631	wordpools/wasnorm_wordpool_576.txt	LTP318	ltpFR2	14	15	MUFFIN	929	n/a	n/a	0	0	0
3357.93	n/a	WORD	1678965	wordpools/wasnorm_wordpool_576.txt	LTP318	ltpFR2	14	15	PRINCESS	1125	n/a	n/a	0	0	0
3360.65	n/a	WORD	1680325	wordpools/wasnorm_wordpool_576.txt	LTP318	ltpFR2	14	15	LAKE	796	n/a	n/a	0	0	0
3363.202	n/a	WORD	1681601	wordpools/wasnorm_wordpool_576.txt	LTP318	ltpFR2	14	15	DRAGON	492	n/a	n/a	0	0	0
3365.686	n/a	WORD	1682843	wordpools/wasnorm_wordpool_576.txt	LTP318	ltpFR2	14	15	FIREMAN	569	n/a	n/a	0	0	0
3368.428	n/a	WORD	1684214	wordpools/wasnorm_wordpool_576.txt	LTP318	ltpFR2	14	15	MUMMY	932	n/a	n/a	0	0	0
3370.04	n/a	START	1685020	n/a	LTP318	ltpFR2	14	n/a	n/a	n/a	23	n/a	n/a	n/a	n/a
3371.168	n/a	DISTRACTOR	1685584	n/a	LTP318	ltpFR2	14	15	n/a	n/a	n/a	n/a	0	0	0
3371.176	n/a	PROB	1685588	n/a	LTP318	ltpFR2	14	n/a	n/a	n/a	23	14	3	3	8
3374.944	n/a	PROB	1687472	n/a	LTP318	ltpFR2	14	n/a	n/a	n/a	23	14	6	6	2
3376.862	n/a	PROB	1688431	n/a	LTP318	ltpFR2	14	n/a	n/a	n/a	23	19	7	5	7
3378.582	n/a	PROB	1689291	n/a	LTP318	ltpFR2	14	n/a	n/a	n/a	23	13	5	1	7
3380.668	n/a	PROB	1690334	n/a	LTP318	ltpFR2	14	n/a	n/a	n/a	23	18	3	9	6
3382.434	n/a	PROB	1691217	n/a	LTP318	ltpFR2	14	n/a	n/a	n/a	23	12	1	2	8
3384.054	n/a	PROB	1692027	n/a	LTP318	ltpFR2	14	n/a	n/a	n/a	23	24	8	7	9
3387.406	n/a	PROB	1693703	n/a	LTP318	ltpFR2	14	n/a	n/a	n/a	23	15	5	4	6
3394.042	n/a	STOP	1697021	n/a	LTP318	ltpFR2	14	n/a	n/a	n/a	23	n/a	n/a	n/a	n/a
3395.78	n/a	REC_START	1697890	n/a	LTP318	ltpFR2	14	15	n/a	n/a	n/a	n/a	0	0	0
3396.698	n/a	REC_WORD_VV	1698349	wordpools/wasnorm_wordpool_576.txt	LTP318	ltpFR2	14	15	<>	-1	n/a	n/a	0	0	0
3400.002	n/a	REC_WORD	1700001	wordpools/wasnorm_wordpool_576.txt	LTP318	ltpFR2	14	15	RUST	1219	n/a	n/a	0	0	0
3405.134	n/a	REC_WORD	1702567	wordpools/wasnorm_wordpool_576.txt	LTP318	ltpFR2	14	15	JAPAN	749	n/a	n/a	0	0	0
3405.824	n/a	REC_WORD	1702912	wordpools/wasnorm_wordpool_576.txt	LTP318	ltpFR2	14	15	TAXI	1438	n/a	n/a	0	0	0
3406.824	n/a	REC_WORD	1703412	wordpools/wasnorm_wordpool_576.txt	LTP318	ltpFR2	14	15	PASTRY	1022	n/a	n/a	0	0	0
3412.962	n/a	REC_WORD	1706481	wordpools/wasnorm_wordpool_576.txt	LTP318	ltpFR2	14	15	EGYPT	519	n/a	n/a	0	0	0
3486.238	n/a	DISTRACTOR	1743119	n/a	LTP318	ltpFR2	14	16	n/a	n/a	n/a	n/a	0	0	0
3486.238	n/a	START	1743119	n/a	LTP318	ltpFR2	14	n/a	n/a	n/a	24	n/a	n/a	n/a	n/a
3486.256	n/a	PROB	1743128	n/a	LTP318	ltpFR2	14	n/a	n/a	n/a	24	18	8	2	8
3489.074	n/a	PROB	1744537	n/a	LTP318	ltpFR2	14	n/a	n/a	n/a	24	23	7	9	7
3493.43	n/a	PROB	1746715	n/a	LTP318	ltpFR2	14	n/a	n/a	n/a	24	13	2	6	5
3495.682	n/a	PROB	1747841	n/a	LTP318	ltpFR2	14	n/a	n/a	n/a	24	14	5	3	6
3497.264	n/a	PROB	1748632	n/a	LTP318	ltpFR2	14	n/a	n/a	n/a	24	10	2	6	2
3499.718	n/a	PROB	1749859	n/a	LTP318	ltpFR2	14	n/a	n/a	n/a	24	13	4	1	8
3501.454	n/a	PROB	1750727	n/a	LTP318	ltpFR2	14	n/a	n/a	n/a	24	12	5	2	5
3502.754	n/a	PROB	1751377	n/a	LTP318	ltpFR2	14	n/a	n/a	n/a	24	12	7	1	4
3504.856	n/a	PROB	1752428	n/a	LTP318	ltpFR2	14	n/a	n/a	n/a	24	12	1	8	3
3506.542	n/a	PROB	1753271	n/a	LTP318	ltpFR2	14	n/a	n/a	n/a	24	15	6	7	2
3508.358	n/a	PROB	1754179	n/a	LTP318	ltpFR2	14	n/a	n/a	n/a	24	8	2	2	4
3509.834	n/a	STOP	1754917	n/a	LTP318	ltpFR2	14	n/a	n/a	n/a	24	n/a	n/a	n/a	n/a
3511.362	n/a	WORD	1755681	wordpools/wasnorm_wordpool_576.txt	LTP318	ltpFR2	14	16	CASKET	255	n/a	n/a	0	0	0
3514.016	n/a	WORD	1757008	wordpools/wasnorm_wordpool_576.txt	LTP318	ltpFR2	14	16	POPCORN	1104	n/a	n/a	0	0	0
3516.618	n/a	WORD	1758309	wordpools/wasnorm_wordpool_576.txt	LTP318	ltpFR2	14	16	EYELASH	546	n/a	n/a	0	0	0
3519.346	n/a	WORD	1759673	wordpools/wasnorm_wordpool_576.txt	LTP318	ltpFR2	14	16	NECKLACE	940	n/a	n/a	0	0	0
3521.814	n/a	WORD	1760907	wordpools/wasnorm_wordpool_576.txt	LTP318	ltpFR2	14	16	POET	1095	n/a	n/a	0	0	0
3524.302	n/a	WORD	1762151	wordpools/wasnorm_wordpool_576.txt	LTP318	ltpFR2	14	16	MARKER	870	n/a	n/a	0	0	0
3526.91	n/a	WORD	1763455	wordpools/wasnorm_wordpool_576.txt	LTP318	ltpFR2	14	16	PIGMENT	1066	n/a	n/a	0	0	0
3529.606	n/a	WORD	1764803	wordpools/wasnorm_wordpool_576.txt	LTP318	ltpFR2	14	16	PARROT	1015	n/a	n/a	0	0	0
3532.398	n/a	WORD	1766199	wordpools/wasnorm_wordpool_576.txt	LTP318	ltpFR2	14	16	PIGEON	1065	n/a	n/a	0	0	0
3535.042	n/a	WORD	1767521	wordpools/wasnorm_wordpool_576.txt	LTP318	ltpFR2	14	16	CREVICE	405	n/a	n/a	0	0	0
3537.784	n/a	WORD	1768892	wordpools/wasnorm_wordpool_576.txt	LTP318	ltpFR2	14	16	SUBWAY	1400	n/a	n/a	0	0	0
3540.414	n/a	WORD	1770207	wordpools/wasnorm_wordpool_576.txt	LTP318	ltpFR2	14	16	BREAST	171	n/a	n/a	0	0	0
3543.148	n/a	WORD	1771574	wordpools/wasnorm_wordpool_576.txt	LTP318	ltpFR2	14	16	SWITCH	1422	n/a	n/a	0	0	0
3545.952	n/a	WORD	1772976	wordpools/wasnorm_wordpool_576.txt	LTP318	ltpFR2	14	16	PADDLE	1000	n/a	n/a	0	0	0
3548.688	n/a	WORD	1774344	wordpools/wasnorm_wordpool_576.txt	LTP318	ltpFR2	14	16	PAIL	1002	n/a	n/a	0	0	0
3551.256	n/a	WORD	1775628	wordpools/wasnorm_wordpool_576.txt	LTP318	ltpFR2	14	16	HUSBAND	728	n/a	n/a	0	0	0
3553.892	n/a	WORD	1776946	wordpools/wasnorm_wordpool_576.txt	LTP318	ltpFR2	14	16	BUG	187	n/a	n/a	0	0	0
3556.394	n/a	WORD	1778197	wordpools/wasnorm_wordpool_576.txt	LTP318	ltpFR2	14	16	LASER	801	n/a	n/a	0	0	0
3558.87	n/a	WORD	1779435	wordpools/wasnorm_wordpool_576.txt	LTP318	ltpFR2	14	16	TURKEY	1520	n/a	n/a	0	0	0
3561.566	n/a	WORD	1780783	wordpools/wasnorm_wordpool_576.txt	LTP318	ltpFR2	14	16	SALMON	1227	n/a	n/a	0	0	0
3564.374	n/a	WORD	1782187	wordpools/wasnorm_wordpool_576.txt	LTP318	ltpFR2	14	16	PISTOL	1075	n/a	n/a	0	0	0
3566.984	n/a	WORD	1783492	wordpools/wasnorm_wordpool_576.txt	LTP318	ltpFR2	14	16	FRIEND	606	n/a	n/a	0	0	0
3569.696	n/a	WORD	1784848	wordpools/wasnorm_wordpool_576.txt	LTP318	ltpFR2	14	16	TROUT	1511	n/a	n/a	0	0	0
3572.164	n/a	WORD	1786082	wordpools/wasnorm_wordpool_576.txt	LTP318	ltpFR2	14	16	SUNRISE	1407	n/a	n/a	0	0	0
3573.776	n/a	START	1786888	n/a	LTP318	ltpFR2	14	n/a	n/a	n/a	25	n/a	n/a	n/a	n/a
3574.77	n/a	DISTRACTOR	1787385	n/a	LTP318	ltpFR2	14	16	n/a	n/a	n/a	n/a	0	0	0
3574.776	n/a	PROB	1787388	n/a	LTP318	ltpFR2	14	n/a	n/a	n/a	25	19	8	5	6
3577.722	n/a	PROB	1788861	n/a	LTP318	ltpFR2	14	n/a	n/a	n/a	25	11	1	6	4
3579.572	n/a	PROB	1789786	n/a	LTP318	ltpFR2	14	n/a	n/a	n/a	25	12	5	4	3
3581.204	n/a	PROB	1790602	n/a	LTP318	ltpFR2	14	n/a	n/a	n/a	25	19	9	9	1
3582.706	n/a	PROB	1791353	n/a	LTP318	ltpFR2	14	n/a	n/a	n/a	25	16	8	4	4
3584.808	n/a	PROB	1792404	n/a	LTP318	ltpFR2	14	n/a	n/a	n/a	25	19	9	7	3
3586.56	n/a	PROB	1793280	n/a	LTP318	ltpFR2	14	n/a	n/a	n/a	25	12	6	2	4
3589.98	n/a	PROB	1794990	n/a	LTP318	ltpFR2	14	n/a	n/a	n/a	25	23	7	9	7
3593.182	n/a	PROB	1796591	n/a	LTP318	ltpFR2	14	n/a	n/a	n/a	25	20	8	6	6
3595.032	n/a	PROB	1797516	n/a	LTP318	ltpFR2	14	n/a	n/a	n/a	25	8	1	3	4
3596.988	n/a	STOP	1798494	n/a	LTP318	ltpFR2	14	n/a	n/a	n/a	25	n/a	n/a	n/a	n/a
3599.554	n/a	REC_START	1799777	n/a	LTP318	ltpFR2	14	16	n/a	n/a	n/a	n/a	0	0	0
3601.986	n/a	REC_WORD	1800993	wordpools/wasnorm_wordpool_576.txt	LTP318	ltpFR2	14	16	SALMON	1227	n/a	n/a	0	0	0
3603.0	n/a	REC_WORD	1801500	wordpools/wasnorm_wordpool_576.txt	LTP318	ltpFR2	14	16	TURKEY	1520	n/a	n/a	0	0	0
3604.37	n/a	REC_WORD	1802185	wordpools/wasnorm_wordpool_576.txt	LTP318	ltpFR2	14	16	LASER	801	n/a	n/a	0	0	0
3609.006	n/a	REC_WORD	1804503	wordpools/wasnorm_wordpool_576.txt	LTP318	ltpFR2	14	16	FRIEND	606	n/a	n/a	0	0	0
3628.862	n/a	REC_WORD	1814431	wordpools/wasnorm_wordpool_576.txt	LTP318	ltpFR2	14	16	CASKET	255	n/a	n/a	0	0	0
3631.026	n/a	REC_WORD	1815513	wordpools/wasnorm_wordpool_576.txt	LTP318	ltpFR2	14	16	POPCORN	1104	n/a	n/a	0	0	0
3633.522	n/a	REC_WORD	1816761	wordpools/wasnorm_wordpool_576.txt	LTP318	ltpFR2	14	16	EYELASH	546	n/a	n/a	0	0	0
3634.226	n/a	REC_WORD	1817113	wordpools/wasnorm_wordpool_576.txt	LTP318	ltpFR2	14	16	NECKLACE	940	n/a	n/a	0	0	0
3639.86	n/a	REC_WORD	1819930	wordpools/wasnorm_wordpool_576.txt	LTP318	ltpFR2	14	16	POET	1095	n/a	n/a	0	0	0
3648.78	n/a	REC_WORD	1824390	wordpools/wasnorm_wordpool_576.txt	LTP318	ltpFR2	14	16	HUSBAND	728	n/a	n/a	0	0	0
3649.78	n/a	REC_WORD_VV	1824890	wordpools/wasnorm_wordpool_576.txt	LTP318	ltpFR2	14	16	<>	-1	n/a	n/a	0	0	0
3651.396	n/a	REC_WORD	1825698	wordpools/wasnorm_wordpool_576.txt	LTP318	ltpFR2	14	16	CREVICE	405	n/a	n/a	0	0	0
3652.156	n/a	REC_WORD	1826078	wordpools/wasnorm_wordpool_576.txt	LTP318	ltpFR2	14	16	PIGEON	1065	n/a	n/a	0	0	0
3676.104	n/a	REST_REWET	1838052	n/a	LTP318	ltpFR2	14	16	n/a	n/a	n/a	n/a	0	0	0
3945.402	n/a	DISTRACTOR	1972701	n/a	LTP318	ltpFR2	14	17	n/a	n/a	n/a	n/a	0	0	0
3945.402	n/a	START	1972701	n/a	LTP318	ltpFR2	14	n/a	n/a	n/a	26	n/a	n/a	n/a	n/a
3945.42	n/a	PROB	1972710	n/a	LTP318	ltpFR2	14	n/a	n/a	n/a	26	13	9	3	1
3947.904	n/a	PROB	1973952	n/a	LTP318	ltpFR2	14	n/a	n/a	n/a	26	15	3	9	3
3949.558	n/a	PROB	1974779	n/a	LTP318	ltpFR2	14	n/a	n/a	n/a	26	14	3	2	9
3952.01	n/a	PROB	1976005	n/a	LTP318	ltpFR2	14	n/a	n/a	n/a	26	22	7	6	9
3955.692	n/a	PROB	1977846	n/a	LTP318	ltpFR2	14	n/a	n/a	n/a	26	14	6	5	3
3957.226	n/a	PROB	1978613	n/a	LTP318	ltpFR2	14	n/a	n/a	n/a	26	14	5	1	8
3958.86	n/a	PROB	1979430	n/a	LTP318	ltpFR2	14	n/a	n/a	n/a	26	17	4	5	8
3961.246	n/a	PROB	1980623	n/a	LTP318	ltpFR2	14	n/a	n/a	n/a	26	7	4	1	2
3963.014	n/a	PROB	1981507	n/a	LTP318	ltpFR2	14	n/a	n/a	n/a	26	15	8	5	2
3965.082	n/a	PROB	1982541	n/a	LTP318	ltpFR2	14	n/a	n/a	n/a	26	15	7	5	3
3966.986	n/a	PROB	1983493	n/a	LTP318	ltpFR2	14	n/a	n/a	n/a	26	16	6	7	3
3968.99	n/a	STOP	1984495	n/a	LTP318	ltpFR2	14	n/a	n/a	n/a	26	n/a	n/a	n/a	n/a
3970.54	n/a	WORD	1985270	wordpools/wasnorm_wordpool_576.txt	LTP318	ltpFR2	14	17	SALAD	1224	n/a	n/a	0	0	0
3973.256	n/a	WORD	1986628	wordpools/wasnorm_wordpool_576.txt	LTP318	ltpFR2	14	17	GLOBE	641	n/a	n/a	0	0	0
3975.896	n/a	WORD	1987948	wordpools/wasnorm_wordpool_576.txt	LTP318	ltpFR2	14	17	PLAZA	1088	n/a	n/a	0	0	0
3978.628	n/a	WORD	1989314	wordpools/wasnorm_wordpool_576.txt	LTP318	ltpFR2	14	17	CRIB	407	n/a	n/a	0	0	0
3981.214	n/a	WORD	1990607	wordpools/wasnorm_wordpool_576.txt	LTP318	ltpFR2	14	17	CROWN	415	n/a	n/a	0	0	0
3984.002	n/a	WORD	1992001	wordpools/wasnorm_wordpool_576.txt	LTP318	ltpFR2	14	17	ULCER	1533	n/a	n/a	0	0	0
3986.752	n/a	WORD	1993376	wordpools/wasnorm_wordpool_576.txt	LTP318	ltpFR2	14	17	PLATE	1086	n/a	n/a	0	0	0
3989.186	n/a	WORD	1994593	wordpools/wasnorm_wordpool_576.txt	LTP318	ltpFR2	14	17	PALACE	1006	n/a	n/a	0	0	0
3991.788	n/a	WORD	1995894	wordpools/wasnorm_wordpool_576.txt	LTP318	ltpFR2	14	17	LUMBER	848	n/a	n/a	0	0	0
3994.306	n/a	WORD	1997153	wordpools/wasnorm_wordpool_576.txt	LTP318	ltpFR2	14	17	SALT	1229	n/a	n/a	0	0	0
3997.074	n/a	WORD	1998537	wordpools/wasnorm_wordpool_576.txt	LTP318	ltpFR2	14	17	BARREL	91	n/a	n/a	0	0	0
3999.56	n/a	WORD	1999780	wordpools/wasnorm_wordpool_576.txt	LTP318	ltpFR2	14	17	TART	1436	n/a	n/a	0	0	0
4002.28	n/a	WORD	2001140	wordpools/wasnorm_wordpool_576.txt	LTP318	ltpFR2	14	17	CANDY	230	n/a	n/a	0	0	0
4005.014	n/a	WORD	2002507	wordpools/wasnorm_wordpool_576.txt	LTP318	ltpFR2	14	17	SCRIBBLE	1256	n/a	n/a	0	0	0
4007.484	n/a	WORD	2003742	wordpools/wasnorm_wordpool_576.txt	LTP318	ltpFR2	14	17	TWIG	1527	n/a	n/a	0	0	0
4010.058	n/a	WORD	2005029	wordpools/wasnorm_wordpool_576.txt	LTP318	ltpFR2	14	17	CUPBOARD	425	n/a	n/a	0	0	0
4012.628	n/a	WORD	2006314	wordpools/wasnorm_wordpool_576.txt	LTP318	ltpFR2	14	17	PUPIL	1143	n/a	n/a	0	0	0
4015.156	n/a	WORD	2007578	wordpools/wasnorm_wordpool_576.txt	LTP318	ltpFR2	14	17	AGENT	10	n/a	n/a	0	0	0
4017.942	n/a	WORD	2008971	wordpools/wasnorm_wordpool_576.txt	LTP318	ltpFR2	14	17	PATROL	1027	n/a	n/a	0	0	0
4020.662	n/a	WORD	2010331	wordpools/wasnorm_wordpool_576.txt	LTP318	ltpFR2	14	17	FRAGRANCE	599	n/a	n/a	0	0	0
4023.186	n/a	WORD	2011593	wordpools/wasnorm_wordpool_576.txt	LTP318	ltpFR2	14	17	SPOUSE	1358	n/a	n/a	0	0	0
4025.7	n/a	WORD	2012850	wordpools/wasnorm_wordpool_576.txt	LTP318	ltpFR2	14	17	QUEEN	1149	n/a	n/a	0	0	0
4028.25	n/a	WORD	2014125	wordpools/wasnorm_wordpool_576.txt	LTP318	ltpFR2	14	17	NIGHTGOWN	953	n/a	n/a	0	0	0
4030.844	n/a	WORD	2015422	wordpools/wasnorm_wordpool_576.txt	LTP318	ltpFR2	14	17	LEOPARD	812	n/a	n/a	0	0	0
4032.454	n/a	START	2016227	n/a	LTP318	ltpFR2	14	n/a	n/a	n/a	27	n/a	n/a	n/a	n/a
4033.648	n/a	DISTRACTOR	2016824	n/a	LTP318	ltpFR2	14	17	n/a	n/a	n/a	n/a	0	0	0
4033.654	n/a	PROB	2016827	n/a	LTP318	ltpFR2	14	n/a	n/a	n/a	27	17	4	7	6
4036.664	n/a	PROB	2018332	n/a	LTP318	ltpFR2	14	n/a	n/a	n/a	27	19	8	3	8
4039.518	n/a	PROB	2019759	n/a	LTP318	ltpFR2	14	n/a	n/a	n/a	27	24	8	7	9
4042.672	n/a	PROB	2021336	n/a	LTP318	ltpFR2	14	n/a	n/a	n/a	27	11	3	4	4
4044.222	n/a	PROB	2022111	n/a	LTP318	ltpFR2	14	n/a	n/a	n/a	27	19	6	4	9
4045.74	n/a	PROB	2022870	n/a	LTP318	ltpFR2	14	n/a	n/a	n/a	27	20	8	4	8
4047.472	n/a	PROB	2023736	n/a	LTP318	ltpFR2	14	n/a	n/a	n/a	27	15	9	4	2
4049.694	n/a	PROB	2024847	n/a	LTP318	ltpFR2	14	n/a	n/a	n/a	27	20	6	5	9
4051.442	n/a	PROB	2025721	n/a	LTP318	ltpFR2	14	n/a	n/a	n/a	27	16	4	7	5
4056.456	n/a	STOP	2028228	n/a	LTP318	ltpFR2	14	n/a	n/a	n/a	27	n/a	n/a	n/a	n/a
4058.234	n/a	REC_START	2029117	n/a	LTP318	ltpFR2	14	17	n/a	n/a	n/a	n/a	0	0	0
4065.814	n/a	REC_WORD	2032907	wordpools/wasnorm_wordpool_576.txt	LTP318	ltpFR2	14	17	PLAZA	1088	n/a	n/a	0	0	0
4067.34	n/a	REC_WORD_VV	2033670	wordpools/wasnorm_wordpool_576.txt	LTP318	ltpFR2	14	17	<>	-1	n/a	n/a	0	0	0
4068.34	n/a	REC_WORD_VV	2034170	wordpools/wasnorm_wordpool_576.txt	LTP318	ltpFR2	14	17	<>	-1	n/a	n/a	0	0	0
4068.91	n/a	REC_WORD	2034455	wordpools/wasnorm_wordpool_576.txt	LTP318	ltpFR2	14	17	CRIB	407	n/a	n/a	0	0	0
4070.69	n/a	REC_WORD	2035345	wordpools/wasnorm_wordpool_576.txt	LTP318	ltpFR2	14	17	PLATE	1086	n/a	n/a	0	0	0
4071.512	n/a	REC_WORD	2035756	wordpools/wasnorm_wordpool_576.txt	LTP318	ltpFR2	14	17	TART	1436	n/a	n/a	0	0	0
4074.404	n/a	REC_WORD_VV	2037202	wordpools/wasnorm_wordpool_576.txt	LTP318	ltpFR2	14	17	<>	-1	n/a	n/a	0	0	0
4077.526	n/a	REC_WORD	2038763	wordpools/wasnorm_wordpool_576.txt	LTP318	ltpFR2	14	17	CANDY	230	n/a	n/a	0	0	0
4086.03	n/a	REC_WORD_VV	2043015	wordpools/wasnorm_wordpool_576.txt	LTP318	ltpFR2	14	17	<>	-1	n/a	n/a	0	0	0
4109.736	n/a	REC_WORD	2054868	wordpools/wasnorm_wordpool_576.txt	LTP318	ltpFR2	14	17	SPOUSE	1358	n/a	n/a	0	0	0
4110.736	n/a	REC_WORD_VV	2055368	wordpools/wasnorm_wordpool_576.txt	LTP318	ltpFR2	14	17	<>	-1	n/a	n/a	0	0	0
4111.916	n/a	REC_WORD	2055958	wordpools/wasnorm_wordpool_576.txt	LTP318	ltpFR2	14	17	QUEEN	1149	n/a	n/a	0	0	0
4112.706	n/a	REC_WORD	2056353	wordpools/wasnorm_wordpool_576.txt	LTP318	ltpFR2	14	17	NIGHTGOWN	953	n/a	n/a	0	0	0
4115.534	n/a	REC_WORD	2057767	wordpools/wasnorm_wordpool_576.txt	LTP318	ltpFR2	14	17	PATROL	1027	n/a	n/a	0	0	0
4148.68	n/a	DISTRACTOR	2074340	n/a	LTP318	ltpFR2	14	18	n/a	n/a	n/a	n/a	0	0	0
4148.68	n/a	START	2074340	n/a	LTP318	ltpFR2	14	n/a	n/a	n/a	28	n/a	n/a	n/a	n/a
4148.696	n/a	PROB	2074348	n/a	LTP318	ltpFR2	14	n/a	n/a	n/a	28	14	2	7	5
4151.262	n/a	PROB	2075631	n/a	LTP318	ltpFR2	14	n/a	n/a	n/a	28	8	1	1	6
4152.598	n/a	PROB	2076299	n/a	LTP318	ltpFR2	14	n/a	n/a	n/a	28	12	6	5	1
4154.368	n/a	PROB	2077184	n/a	LTP318	ltpFR2	14	n/a	n/a	n/a	28	11	5	3	3
4156.484	n/a	PROB	2078242	n/a	LTP318	ltpFR2	14	n/a	n/a	n/a	28	11	8	1	2
4158.586	n/a	PROB	2079293	n/a	LTP318	ltpFR2	14	n/a	n/a	n/a	28	19	2	9	8
4160.188	n/a	PROB	2080094	n/a	LTP318	ltpFR2	14	n/a	n/a	n/a	28	21	4	9	8
4162.204	n/a	PROB	2081102	n/a	LTP318	ltpFR2	14	n/a	n/a	n/a	28	11	3	3	5
4163.758	n/a	PROB	2081879	n/a	LTP318	ltpFR2	14	n/a	n/a	n/a	28	12	3	7	2
4165.358	n/a	PROB	2082679	n/a	LTP318	ltpFR2	14	n/a	n/a	n/a	28	15	4	7	4
4169.462	n/a	PROB	2084731	n/a	LTP318	ltpFR2	14	n/a	n/a	n/a	28	16	6	3	7
4171.42	n/a	STOP	2085710	n/a	LTP318	ltpFR2	14	n/a	n/a	n/a	28	n/a	n/a	n/a	n/a
4173.734	n/a	WORD	2086867	wordpools/wasnorm_wordpool_576.txt	LTP318	ltpFR2	14	18	WRIST	1626	n/a	n/a	0	0	0
4176.368	n/a	WORD	2088184	wordpools/wasnorm_wordpool_576.txt	LTP318	ltpFR2	14	18	ELBOW	520	n/a	n/a	0	0	0
4178.87	n/a	WORD	2089435	wordpools/wasnorm_wordpool_576.txt	LTP318	ltpFR2	14	18	EMPIRE	530	n/a	n/a	0	0	0
4181.656	n/a	WORD	2090828	wordpools/wasnorm_wordpool_576.txt	LTP318	ltpFR2	14	18	SHERIFF	1284	n/a	n/a	0	0	0
4184.09	n/a	WORD	2092045	wordpools/wasnorm_wordpool_576.txt	LTP318	ltpFR2	14	18	ROBBER	1197	n/a	n/a	0	0	0
4186.876	n/a	WORD	2093438	wordpools/wasnorm_wordpool_576.txt	LTP318	ltpFR2	14	18	VIKING	1565	n/a	n/a	0	0	0
4189.478	n/a	WORD	2094739	wordpools/wasnorm_wordpool_576.txt	LTP318	ltpFR2	14	18	COUNTY	389	n/a	n/a	0	0	0
4192.062	n/a	WORD	2096031	wordpools/wasnorm_wordpool_576.txt	LTP318	ltpFR2	14	18	CRUTCH	417	n/a	n/a	0	0	0
4194.548	n/a	WORD	2097274	wordpools/wasnorm_wordpool_576.txt	LTP318	ltpFR2	14	18	BUBBLE	183	n/a	n/a	0	0	0
4197.234	n/a	WORD	2098617	wordpools/wasnorm_wordpool_576.txt	LTP318	ltpFR2	14	18	BATHTUB	100	n/a	n/a	0	0	0
4199.786	n/a	WORD	2099893	wordpools/wasnorm_wordpool_576.txt	LTP318	ltpFR2	14	18	FLASHLIGHT	575	n/a	n/a	0	0	0
4202.388	n/a	WORD	2101194	wordpools/wasnorm_wordpool_576.txt	LTP318	ltpFR2	14	18	FLAG	573	n/a	n/a	0	0	0
4205.172	n/a	WORD	2102586	wordpools/wasnorm_wordpool_576.txt	LTP318	ltpFR2	14	18	TWISTER	1530	n/a	n/a	0	0	0
4207.828	n/a	WORD	2103914	wordpools/wasnorm_wordpool_576.txt	LTP318	ltpFR2	14	18	LIPSTICK	829	n/a	n/a	0	0	0
4210.328	n/a	WORD	2105164	wordpools/wasnorm_wordpool_576.txt	LTP318	ltpFR2	14	18	ITEM	746	n/a	n/a	0	0	0
4212.814	n/a	WORD	2106407	wordpools/wasnorm_wordpool_576.txt	LTP318	ltpFR2	14	18	TRENCH	1503	n/a	n/a	0	0	0
4215.618	n/a	WORD	2107809	wordpools/wasnorm_wordpool_576.txt	LTP318	ltpFR2	14	18	BEAVER	109	n/a	n/a	0	0	0
4218.372	n/a	WORD	2109186	wordpools/wasnorm_wordpool_576.txt	LTP318	ltpFR2	14	18	LAMP	798	n/a	n/a	0	0	0
4220.936	n/a	WORD	2110468	wordpools/wasnorm_wordpool_576.txt	LTP318	ltpFR2	14	18	POWDER	1117	n/a	n/a	0	0	0
4223.578	n/a	WORD	2111789	wordpools/wasnorm_wordpool_576.txt	LTP318	ltpFR2	14	18	BROTHER	179	n/a	n/a	0	0	0
4226.208	n/a	WORD	2113104	wordpools/wasnorm_wordpool_576.txt	LTP318	ltpFR2	14	18	COTTAGE	384	n/a	n/a	0	0	0
4228.892	n/a	WORD	2114446	wordpools/wasnorm_wordpool_576.txt	LTP318	ltpFR2	14	18	BANK	83	n/a	n/a	0	0	0
4231.378	n/a	WORD	2115689	wordpools/wasnorm_wordpool_576.txt	LTP318	ltpFR2	14	18	PEANUT	1032	n/a	n/a	0	0	0
4233.996	n/a	WORD	2116998	wordpools/wasnorm_wordpool_576.txt	LTP318	ltpFR2	14	18	TRACTOR	1493	n/a	n/a	0	0	0
4235.604	n/a	START	2117802	n/a	LTP318	ltpFR2	14	n/a	n/a	n/a	29	n/a	n/a	n/a	n/a
4236.632	n/a	DISTRACTOR	2118316	n/a	LTP318	ltpFR2	14	18	n/a	n/a	n/a	n/a	0	0	0
4236.638	n/a	PROB	2118319	n/a	LTP318	ltpFR2	14	n/a	n/a	n/a	29	6	3	1	2
4239.588	n/a	PROB	2119794	n/a	LTP318	ltpFR2	14	n/a	n/a	n/a	29	17	3	6	8
4241.358	n/a	PROB	2120679	n/a	LTP318	ltpFR2	14	n/a	n/a	n/a	29	19	6	9	4
4243.176	n/a	PROB	2121588	n/a	LTP318	ltpFR2	14	n/a	n/a	n/a	29	4	2	1	1
4244.26	n/a	PROB	2122130	n/a	LTP318	ltpFR2	14	n/a	n/a	n/a	29	15	2	8	5
4245.628	n/a	PROB	2122814	n/a	LTP318	ltpFR2	14	n/a	n/a	n/a	29	12	1	7	4
4248.75	n/a	PROB	2124375	n/a	LTP318	ltpFR2	14	n/a	n/a	n/a	29	14	3	2	9
4250.248	n/a	PROB	2125124	n/a	LTP318	ltpFR2	14	n/a	n/a	n/a	29	18	8	2	8
4252.05	n/a	PROB	2126025	n/a	LTP318	ltpFR2	14	n/a	n/a	n/a	29	23	8	8	7
4254.318	n/a	PROB	2127159	n/a	LTP318	ltpFR2	14	n/a	n/a	n/a	29	13	9	2	2
