mstime	trial_type	stim_file	subject	experiment	session	trial	task	item_name	item_num	recog_conf	resp	color_b	color_g	color_r	case	font
0	SESS_START	n/a	LTP103	ltpFR	18	n/a	n/a	n/a	n/a	2	n/a	n/a	n/a	n/a	n/a	n/a
35652	WORD	wordpools/wasnorm_wordpool.txt	LTP103	ltpFR	18	1	1	BOYFRIEND	162	n/a	1	0	0.5869140625	0.422607421875	lower	../fonts/amplitud.ttf
39818	WORD	wordpools/wasnorm_wordpool.txt	LTP103	ltpFR	18	1	1	SCREWDRIVER	1255	n/a	0	0	0.5869140625	0.422607421875	lower	../fonts/amplitud.ttf
43643	WORD	wordpools/wasnorm_wordpool.txt	LTP103	ltpFR	18	1	1	PONY	1102	n/a	0	0	0.5869140625	0.422607421875	lower	../fonts/amplitud.ttf
47535	WORD	wordpools/wasnorm_wordpool.txt	LTP103	ltpFR	18	1	0	PARROT	1015	n/a	0	1	0.412841796875	0.57763671875	upper	../fonts/zerothre.ttf
51509	WORD	wordpools/wasnorm_wordpool.txt	LTP103	ltpFR	18	1	0	WINGS	1614	n/a	0	1	0.412841796875	0.57763671875	upper	../fonts/zerothre.ttf
55434	WORD	wordpools/wasnorm_wordpool.txt	LTP103	ltpFR	18	1	0	RIB	1188	n/a	1	1	0.412841796875	0.57763671875	upper	../fonts/zerothre.ttf
59292	WORD	wordpools/wasnorm_wordpool.txt	LTP103	ltpFR	18	1	0	DESSERT	453	n/a	0	1	0.412841796875	0.57763671875	upper	../fonts/zerothre.ttf
63350	WORD	wordpools/wasnorm_wordpool.txt	LTP103	ltpFR	18	1	1	DAUGHTER	442	n/a	1	0	0.5869140625	0.422607421875	lower	../fonts/amplitud.ttf
67225	WORD	wordpools/wasnorm_wordpool.txt	LTP103	ltpFR	18	1	1	DAD	433	n/a	1	0	0.5869140625	0.422607421875	lower	../fonts/amplitud.ttf
71358	WORD	wordpools/wasnorm_wordpool.txt	LTP103	ltpFR	18	1	1	BARTENDER	92	n/a	1	0	0.5869140625	0.422607421875	lower	../fonts/amplitud.ttf
75441	WORD	wordpools/wasnorm_wordpool.txt	LTP103	ltpFR	18	1	1	COLT	349	n/a	0	0	0.5869140625	0.422607421875	lower	../fonts/amplitud.ttf
79349	WORD	wordpools/wasnorm_wordpool.txt	LTP103	ltpFR	18	1	1	VAN	1548	n/a	0	0	0.5869140625	0.422607421875	lower	../fonts/amplitud.ttf
83557	WORD	wordpools/wasnorm_wordpool.txt	LTP103	ltpFR	18	1	0	LANDSCAPE	799	n/a	1	1	0.412841796875	0.57763671875	upper	../fonts/zerothre.ttf
87573	WORD	wordpools/wasnorm_wordpool.txt	LTP103	ltpFR	18	1	0	PHOTO	1055	n/a	0	1	0.412841796875	0.57763671875	upper	../fonts/zerothre.ttf
91631	WORD	wordpools/wasnorm_wordpool.txt	LTP103	ltpFR	18	1	0	SNAIL	1332	n/a	0	1	0.412841796875	0.57763671875	upper	../fonts/zerothre.ttf
95830	WORD	wordpools/wasnorm_wordpool.txt	LTP103	ltpFR	18	1	0	LETTUCE	814	n/a	0	1	0.412841796875	0.57763671875	upper	../fonts/zerothre.ttf
101556	REC_START	n/a	LTP103	ltpFR	18	1	n/a	n/a	n/a	n/a	n/a	n/a	n/a	n/a	n/a	n/a
102329	REC_WORD	wordpools/wasnorm_wordpool.txt	LTP103	ltpFR	18	1	0	LETTUCE	814	n/a	0	n/a	n/a	n/a	n/a	n/a
103910	REC_WORD	wordpools/wasnorm_wordpool.txt	LTP103	ltpFR	18	1	0	SNAIL	1332	n/a	0	n/a	n/a	n/a	n/a	n/a
105018	REC_WORD	wordpools/wasnorm_wordpool.txt	LTP103	ltpFR	18	1	1	BOYFRIEND	162	n/a	1	n/a	n/a	n/a	n/a	n/a
106026	REC_WORD	wordpools/wasnorm_wordpool.txt	LTP103	ltpFR	18	1	1	COLT	349	n/a	0	n/a	n/a	n/a	n/a	n/a
107353	REC_WORD	wordpools/wasnorm_wordpool.txt	LTP103	ltpFR	18	1	1	DAUGHTER	442	n/a	1	n/a	n/a	n/a	n/a	n/a
108445	REC_WORD	wordpools/wasnorm_wordpool.txt	LTP103	ltpFR	18	1	1	DAD	433	n/a	1	n/a	n/a	n/a	n/a	n/a
111009	REC_WORD	wordpools/wasnorm_wordpool.txt	LTP103	ltpFR	18	1	0	LANDSCAPE	799	n/a	1	n/a	n/a	n/a	n/a	n/a
115938	REC_WORD	wordpools/wasnorm_wordpool.txt	LTP103	ltpFR	18	1	n/a	MOTHER	921	n/a	n/a	n/a	n/a	n/a	n/a	n/a
122803	REC_WORD	wordpools/wasnorm_wordpool.txt	LTP103	ltpFR	18	1	1	SCREWDRIVER	1255	n/a	0	n/a	n/a	n/a	n/a	n/a
183674	WORD	wordpools/wasnorm_wordpool.txt	LTP103	ltpFR	18	2	0	STRANGER	1389	n/a	1	1	0.412841796875	0.57763671875	upper	../fonts/zerothre.ttf
187682	WORD	wordpools/wasnorm_wordpool.txt	LTP103	ltpFR	18	2	0	GUEST	669	n/a	1	1	0.412841796875	0.57763671875	upper	../fonts/zerothre.ttf
191857	WORD	wordpools/wasnorm_wordpool.txt	LTP103	ltpFR	18	2	0	ANKLE	24	n/a	0	1	0.412841796875	0.57763671875	upper	../fonts/zerothre.ttf
195822	WORD	wordpools/wasnorm_wordpool.txt	LTP103	ltpFR	18	2	0	SWITCH	1422	n/a	0	1	0.412841796875	0.57763671875	upper	../fonts/zerothre.ttf
199890	WORD	wordpools/wasnorm_wordpool.txt	LTP103	ltpFR	18	2	1	DIVER	476	n/a	0	0	0.5869140625	0.422607421875	lower	../fonts/amplitud.ttf
203923	WORD	wordpools/wasnorm_wordpool.txt	LTP103	ltpFR	18	2	1	PALACE	1006	n/a	0	0	0.5869140625	0.422607421875	lower	../fonts/amplitud.ttf
207747	WORD	wordpools/wasnorm_wordpool.txt	LTP103	ltpFR	18	2	1	BULB	192	n/a	0	0	0.5869140625	0.422607421875	lower	../fonts/amplitud.ttf
211880	WORD	wordpools/wasnorm_wordpool.txt	LTP103	ltpFR	18	2	0	CASH	252	n/a	0	1	0.412841796875	0.57763671875	upper	../fonts/zerothre.ttf
216013	WORD	wordpools/wasnorm_wordpool.txt	LTP103	ltpFR	18	2	0	LOBSTER	837	n/a	1	1	0.412841796875	0.57763671875	upper	../fonts/zerothre.ttf
220163	WORD	wordpools/wasnorm_wordpool.txt	LTP103	ltpFR	18	2	1	HEEL	700	n/a	0	0	0.5869140625	0.422607421875	lower	../fonts/amplitud.ttf
224146	WORD	wordpools/wasnorm_wordpool.txt	LTP103	ltpFR	18	2	1	DUNE	506	n/a	0	0	0.5869140625	0.422607421875	lower	../fonts/amplitud.ttf
228054	WORD	wordpools/wasnorm_wordpool.txt	LTP103	ltpFR	18	2	1	CAB	209	n/a	0	0	0.5869140625	0.422607421875	lower	../fonts/amplitud.ttf
232029	WORD	wordpools/wasnorm_wordpool.txt	LTP103	ltpFR	18	2	1	CAR	241	n/a	0	0	0.5869140625	0.422607421875	lower	../fonts/amplitud.ttf
236228	WORD	wordpools/wasnorm_wordpool.txt	LTP103	ltpFR	18	2	1	POLITICIAN	1099	n/a	1	0	0.5869140625	0.422607421875	lower	../fonts/amplitud.ttf
240386	WORD	wordpools/wasnorm_wordpool.txt	LTP103	ltpFR	18	2	0	THORN	1459	n/a	0	1	0.412841796875	0.57763671875	upper	../fonts/zerothre.ttf
244478	WORD	wordpools/wasnorm_wordpool.txt	LTP103	ltpFR	18	2	0	TWIG	1527	n/a	1	1	0.412841796875	0.57763671875	upper	../fonts/zerothre.ttf
250186	REC_START	n/a	LTP103	ltpFR	18	2	n/a	n/a	n/a	n/a	n/a	n/a	n/a	n/a	n/a	n/a
250595	REC_WORD	wordpools/wasnorm_wordpool.txt	LTP103	ltpFR	18	2	0	TWIG	1527	n/a	1	n/a	n/a	n/a	n/a	n/a
252166	REC_WORD	wordpools/wasnorm_wordpool.txt	LTP103	ltpFR	18	2	1	POLITICIAN	1099	n/a	1	n/a	n/a	n/a	n/a	n/a
254137	REC_WORD	wordpools/wasnorm_wordpool.txt	LTP103	ltpFR	18	2	0	CASH	252	n/a	0	n/a	n/a	n/a	n/a	n/a
256536	REC_WORD	wordpools/wasnorm_wordpool.txt	LTP103	ltpFR	18	2	n/a	DONKEY	484	n/a	n/a	n/a	n/a	n/a	n/a	n/a
262013	REC_WORD	wordpools/wasnorm_wordpool.txt	LTP103	ltpFR	18	2	1	BARTENDER	92	n/a	1	n/a	n/a	n/a	n/a	n/a
354919	WORD	wordpools/wasnorm_wordpool.txt	LTP103	ltpFR	18	3	1	STONE	1385	n/a	0	0	0.5869140625	0.422607421875	lower	../fonts/amplitud.ttf
359119	WORD	wordpools/wasnorm_wordpool.txt	LTP103	ltpFR	18	3	1	MOP	916	n/a	0	0	0.5869140625	0.422607421875	lower	../fonts/amplitud.ttf
363194	WORD	wordpools/wasnorm_wordpool.txt	LTP103	ltpFR	18	3	1	COAL	332	n/a	1	0	0.5869140625	0.422607421875	lower	../fonts/amplitud.ttf
367376	WORD	wordpools/wasnorm_wordpool.txt	LTP103	ltpFR	18	3	1	FLIPPER	580	n/a	0	0	0.5869140625	0.422607421875	lower	../fonts/amplitud.ttf
371451	WORD	wordpools/wasnorm_wordpool.txt	LTP103	ltpFR	18	3	1	BISON	131	n/a	1	0	0.5869140625	0.422607421875	lower	../fonts/amplitud.ttf
375293	WORD	wordpools/wasnorm_wordpool.txt	LTP103	ltpFR	18	3	1	COW	393	n/a	0	0	0.5869140625	0.422607421875	lower	../fonts/amplitud.ttf
379326	WORD	wordpools/wasnorm_wordpool.txt	LTP103	ltpFR	18	3	1	COD	340	n/a	0	0	0.5869140625	0.422607421875	lower	../fonts/amplitud.ttf
383509	WORD	wordpools/wasnorm_wordpool.txt	LTP103	ltpFR	18	3	1	HOSE	720	n/a	0	0	0.5869140625	0.422607421875	lower	../fonts/amplitud.ttf
387583	WORD	wordpools/wasnorm_wordpool.txt	LTP103	ltpFR	18	3	1	LAGOON	795	n/a	1	0	0.5869140625	0.422607421875	lower	../fonts/amplitud.ttf
391575	WORD	wordpools/wasnorm_wordpool.txt	LTP103	ltpFR	18	3	1	LACE	792	n/a	0	0	0.5869140625	0.422607421875	lower	../fonts/amplitud.ttf
395674	WORD	wordpools/wasnorm_wordpool.txt	LTP103	ltpFR	18	3	1	DWARF	510	n/a	1	0	0.5869140625	0.422607421875	lower	../fonts/amplitud.ttf
399532	WORD	wordpools/wasnorm_wordpool.txt	LTP103	ltpFR	18	3	1	REFRIGERATOR	1179	n/a	0	0	0.5869140625	0.422607421875	lower	../fonts/amplitud.ttf
403699	WORD	wordpools/wasnorm_wordpool.txt	LTP103	ltpFR	18	3	1	DUSTPAN	509	n/a	0	0	0.5869140625	0.422607421875	lower	../fonts/amplitud.ttf
407590	WORD	wordpools/wasnorm_wordpool.txt	LTP103	ltpFR	18	3	1	HAYSTACK	694	n/a	0	0	0.5869140625	0.422607421875	lower	../fonts/amplitud.ttf
411498	WORD	wordpools/wasnorm_wordpool.txt	LTP103	ltpFR	18	3	1	BARLEY	88	n/a	0	0	0.5869140625	0.422607421875	lower	../fonts/amplitud.ttf
415656	WORD	wordpools/wasnorm_wordpool.txt	LTP103	ltpFR	18	3	1	DIGGER	464	n/a	1	0	0.5869140625	0.422607421875	lower	../fonts/amplitud.ttf
421598	REC_START	n/a	LTP103	ltpFR	18	3	n/a	n/a	n/a	n/a	n/a	n/a	n/a	n/a	n/a	n/a
423743	REC_WORD	wordpools/wasnorm_wordpool.txt	LTP103	ltpFR	18	3	1	DIGGER	464	n/a	1	n/a	n/a	n/a	n/a	n/a
425065	REC_WORD	wordpools/wasnorm_wordpool.txt	LTP103	ltpFR	18	3	n/a	PARSLEY	1016	n/a	n/a	n/a	n/a	n/a	n/a	n/a
429874	REC_WORD	wordpools/wasnorm_wordpool.txt	LTP103	ltpFR	18	3	1	POLITICIAN	1099	n/a	1	n/a	n/a	n/a	n/a	n/a
434663	REC_WORD	wordpools/wasnorm_wordpool.txt	LTP103	ltpFR	18	3	1	COW	393	n/a	0	n/a	n/a	n/a	n/a	n/a
435641	REC_WORD	wordpools/wasnorm_wordpool.txt	LTP103	ltpFR	18	3	1	BISON	131	n/a	1	n/a	n/a	n/a	n/a	n/a
500074	WORD	wordpools/wasnorm_wordpool.txt	LTP103	ltpFR	18	4	1	GLASS	639	n/a	0	0	0.5869140625	0.422607421875	lower	../fonts/amplitud.ttf
504199	WORD	wordpools/wasnorm_wordpool.txt	LTP103	ltpFR	18	4	1	BANKER	84	n/a	0	0	0.5869140625	0.422607421875	lower	../fonts/amplitud.ttf
508332	WORD	wordpools/wasnorm_wordpool.txt	LTP103	ltpFR	18	4	1	PAWN	1030	n/a	0	0	0.5869140625	0.422607421875	lower	../fonts/amplitud.ttf
512415	WORD	wordpools/wasnorm_wordpool.txt	LTP103	ltpFR	18	4	1	CUPBOARD	425	n/a	0	0	0.5869140625	0.422607421875	lower	../fonts/amplitud.ttf
516490	WORD	wordpools/wasnorm_wordpool.txt	LTP103	ltpFR	18	4	1	FIDDLE	561	n/a	0	0	0.5869140625	0.422607421875	lower	../fonts/amplitud.ttf
520365	WORD	wordpools/wasnorm_wordpool.txt	LTP103	ltpFR	18	4	1	PHYSICIAN	1056	n/a	0	0	0.5869140625	0.422607421875	lower	../fonts/amplitud.ttf
524556	WORD	wordpools/wasnorm_wordpool.txt	LTP103	ltpFR	18	4	1	COTTON	385	n/a	0	0	0.5869140625	0.422607421875	lower	../fonts/amplitud.ttf
528431	WORD	wordpools/wasnorm_wordpool.txt	LTP103	ltpFR	18	4	1	SPHINX	1349	n/a	0	0	0.5869140625	0.422607421875	lower	../fonts/amplitud.ttf
532564	WORD	wordpools/wasnorm_wordpool.txt	LTP103	ltpFR	18	4	1	VASE	1549	n/a	0	0	0.5869140625	0.422607421875	lower	../fonts/amplitud.ttf
536780	WORD	wordpools/wasnorm_wordpool.txt	LTP103	ltpFR	18	4	1	FLOWER	584	n/a	0	0	0.5869140625	0.422607421875	lower	../fonts/amplitud.ttf
540938	WORD	wordpools/wasnorm_wordpool.txt	LTP103	ltpFR	18	4	1	CRAB	397	n/a	1	0	0.5869140625	0.422607421875	lower	../fonts/amplitud.ttf
545021	WORD	wordpools/wasnorm_wordpool.txt	LTP103	ltpFR	18	4	1	COOK	372	n/a	1	0	0.5869140625	0.422607421875	lower	../fonts/amplitud.ttf
549096	WORD	wordpools/wasnorm_wordpool.txt	LTP103	ltpFR	18	4	1	LAWYER	806	n/a	1	0	0.5869140625	0.422607421875	lower	../fonts/amplitud.ttf
553054	WORD	wordpools/wasnorm_wordpool.txt	LTP103	ltpFR	18	4	1	COFFEE	341	n/a	0	0	0.5869140625	0.422607421875	lower	../fonts/amplitud.ttf
556887	WORD	wordpools/wasnorm_wordpool.txt	LTP103	ltpFR	18	4	1	ORCHESTRA	981	n/a	0	0	0.5869140625	0.422607421875	lower	../fonts/amplitud.ttf
561086	WORD	wordpools/wasnorm_wordpool.txt	LTP103	ltpFR	18	4	1	CROWN	415	n/a	0	0	0.5869140625	0.422607421875	lower	../fonts/amplitud.ttf
567153	REC_START	n/a	LTP103	ltpFR	18	4	n/a	n/a	n/a	n/a	n/a	n/a	n/a	n/a	n/a	n/a
567886	REC_WORD	wordpools/wasnorm_wordpool.txt	LTP103	ltpFR	18	4	1	CROWN	415	n/a	0	n/a	n/a	n/a	n/a	n/a
569527	REC_WORD	wordpools/wasnorm_wordpool.txt	LTP103	ltpFR	18	4	1	COOK	372	n/a	1	n/a	n/a	n/a	n/a	n/a
571059	REC_WORD	wordpools/wasnorm_wordpool.txt	LTP103	ltpFR	18	4	1	BANKER	84	n/a	0	n/a	n/a	n/a	n/a	n/a
572336	REC_WORD	wordpools/wasnorm_wordpool.txt	LTP103	ltpFR	18	4	1	FLOWER	584	n/a	0	n/a	n/a	n/a	n/a	n/a
574441	REC_WORD	wordpools/wasnorm_wordpool.txt	LTP103	ltpFR	18	4	1	VASE	1549	n/a	0	n/a	n/a	n/a	n/a	n/a
645305	WORD	wordpools/wasnorm_wordpool.txt	LTP103	ltpFR	18	5	-1	COLONEL	348	n/a	-1	1	1.0	1.0	upper	../fonts/Verdana.ttf
649321	WORD	wordpools/wasnorm_wordpool.txt	LTP103	ltpFR	18	5	-1	VETERAN	1561	n/a	-1	1	1.0	1.0	upper	../fonts/Verdana.ttf
653338	WORD	wordpools/wasnorm_wordpool.txt	LTP103	ltpFR	18	5	-1	BIKE	125	n/a	-1	1	1.0	1.0	upper	../fonts/Verdana.ttf
657512	WORD	wordpools/wasnorm_wordpool.txt	LTP103	ltpFR	18	5	-1	LETTER	813	n/a	-1	1	1.0	1.0	upper	../fonts/Verdana.ttf
661370	WORD	wordpools/wasnorm_wordpool.txt	LTP103	ltpFR	18	5	-1	BUTCHER	203	n/a	-1	1	1.0	1.0	upper	../fonts/Verdana.ttf
665228	WORD	wordpools/wasnorm_wordpool.txt	LTP103	ltpFR	18	5	-1	HANDKERCHIEF	686	n/a	-1	1	1.0	1.0	upper	../fonts/Verdana.ttf
669353	WORD	wordpools/wasnorm_wordpool.txt	LTP103	ltpFR	18	5	-1	AUTOMOBILE	62	n/a	-1	1	1.0	1.0	upper	../fonts/Verdana.ttf
673544	WORD	wordpools/wasnorm_wordpool.txt	LTP103	ltpFR	18	5	-1	CARAVAN	242	n/a	-1	1	1.0	1.0	upper	../fonts/Verdana.ttf
677477	WORD	wordpools/wasnorm_wordpool.txt	LTP103	ltpFR	18	5	-1	SLIDE	1326	n/a	-1	1	1.0	1.0	upper	../fonts/Verdana.ttf
681285	WORD	wordpools/wasnorm_wordpool.txt	LTP103	ltpFR	18	5	-1	SCROLL	1257	n/a	-1	1	1.0	1.0	upper	../fonts/Verdana.ttf
685268	WORD	wordpools/wasnorm_wordpool.txt	LTP103	ltpFR	18	5	-1	BUILDING	191	n/a	-1	1	1.0	1.0	upper	../fonts/Verdana.ttf
689276	WORD	wordpools/wasnorm_wordpool.txt	LTP103	ltpFR	18	5	-1	POSTAGE	1113	n/a	-1	1	1.0	1.0	upper	../fonts/Verdana.ttf
693468	WORD	wordpools/wasnorm_wordpool.txt	LTP103	ltpFR	18	5	-1	NAPKIN	937	n/a	-1	1	1.0	1.0	upper	../fonts/Verdana.ttf
697451	WORD	wordpools/wasnorm_wordpool.txt	LTP103	ltpFR	18	5	-1	CONCRETE	361	n/a	-1	1	1.0	1.0	upper	../fonts/Verdana.ttf
701567	WORD	wordpools/wasnorm_wordpool.txt	LTP103	ltpFR	18	5	-1	MOUSE	925	n/a	-1	1	1.0	1.0	upper	../fonts/Verdana.ttf
705600	WORD	wordpools/wasnorm_wordpool.txt	LTP103	ltpFR	18	5	-1	TAIL	1430	n/a	-1	1	1.0	1.0	upper	../fonts/Verdana.ttf
711650	REC_START	n/a	LTP103	ltpFR	18	5	n/a	n/a	n/a	n/a	n/a	n/a	n/a	n/a	n/a	n/a
712797	REC_WORD	wordpools/wasnorm_wordpool.txt	LTP103	ltpFR	18	5	-1	TAIL	1430	n/a	-1	n/a	n/a	n/a	n/a	n/a
714169	REC_WORD	wordpools/wasnorm_wordpool.txt	LTP103	ltpFR	18	5	-1	MOUSE	925	n/a	-1	n/a	n/a	n/a	n/a	n/a
715795	REC_WORD	wordpools/wasnorm_wordpool.txt	LTP103	ltpFR	18	5	1	CUPBOARD	425	n/a	0	n/a	n/a	n/a	n/a	n/a
717975	REC_WORD	wordpools/wasnorm_wordpool.txt	LTP103	ltpFR	18	5	-1	COLONEL	348	n/a	-1	n/a	n/a	n/a	n/a	n/a
722011	REC_WORD	wordpools/wasnorm_wordpool.txt	LTP103	ltpFR	18	5	n/a	MILITARY	894	n/a	n/a	n/a	n/a	n/a	n/a	n/a
805142	WORD	wordpools/wasnorm_wordpool.txt	LTP103	ltpFR	18	6	0	BASEMENT	94	n/a	1	1	0.412841796875	0.57763671875	upper	../fonts/zerothre.ttf
809117	WORD	wordpools/wasnorm_wordpool.txt	LTP103	ltpFR	18	6	0	BANDANNA	80	n/a	0	1	0.412841796875	0.57763671875	upper	../fonts/zerothre.ttf
813108	WORD	wordpools/wasnorm_wordpool.txt	LTP103	ltpFR	18	6	0	SHOE	1288	n/a	0	1	0.412841796875	0.57763671875	upper	../fonts/zerothre.ttf
817141	WORD	wordpools/wasnorm_wordpool.txt	LTP103	ltpFR	18	6	0	FLOUR	583	n/a	0	1	0.412841796875	0.57763671875	upper	../fonts/zerothre.ttf
821299	WORD	wordpools/wasnorm_wordpool.txt	LTP103	ltpFR	18	6	0	CAVE	263	n/a	1	1	0.412841796875	0.57763671875	upper	../fonts/zerothre.ttf
825491	WORD	wordpools/wasnorm_wordpool.txt	LTP103	ltpFR	18	6	0	OVEN	991	n/a	1	1	0.412841796875	0.57763671875	upper	../fonts/zerothre.ttf
829699	WORD	wordpools/wasnorm_wordpool.txt	LTP103	ltpFR	18	6	0	MARGARINE	868	n/a	0	1	0.412841796875	0.57763671875	upper	../fonts/zerothre.ttf
833907	WORD	wordpools/wasnorm_wordpool.txt	LTP103	ltpFR	18	6	0	PEARL	1034	n/a	0	1	0.412841796875	0.57763671875	upper	../fonts/zerothre.ttf
837956	WORD	wordpools/wasnorm_wordpool.txt	LTP103	ltpFR	18	6	0	TOWER	1490	n/a	0	1	0.412841796875	0.57763671875	upper	../fonts/zerothre.ttf
841906	WORD	wordpools/wasnorm_wordpool.txt	LTP103	ltpFR	18	6	0	SWEATER	1419	n/a	1	1	0.412841796875	0.57763671875	upper	../fonts/zerothre.ttf
846098	WORD	wordpools/wasnorm_wordpool.txt	LTP103	ltpFR	18	6	0	SHIRT	1287	n/a	0	1	0.412841796875	0.57763671875	upper	../fonts/zerothre.ttf
849930	WORD	wordpools/wasnorm_wordpool.txt	LTP103	ltpFR	18	6	0	FOOT	590	n/a	0	1	0.412841796875	0.57763671875	upper	../fonts/zerothre.ttf
853739	WORD	wordpools/wasnorm_wordpool.txt	LTP103	ltpFR	18	6	0	TOASTER	1472	n/a	1	1	0.412841796875	0.57763671875	upper	../fonts/zerothre.ttf
857663	WORD	wordpools/wasnorm_wordpool.txt	LTP103	ltpFR	18	6	0	TRASH	1497	n/a	1	1	0.412841796875	0.57763671875	upper	../fonts/zerothre.ttf
861580	WORD	wordpools/wasnorm_wordpool.txt	LTP103	ltpFR	18	6	0	BULL	193	n/a	1	1	0.412841796875	0.57763671875	upper	../fonts/zerothre.ttf
865579	WORD	wordpools/wasnorm_wordpool.txt	LTP103	ltpFR	18	6	0	CALF	222	n/a	1	1	0.412841796875	0.57763671875	upper	../fonts/zerothre.ttf
871355	REC_START	n/a	LTP103	ltpFR	18	6	n/a	n/a	n/a	n/a	n/a	n/a	n/a	n/a	n/a	n/a
872392	REC_WORD	wordpools/wasnorm_wordpool.txt	LTP103	ltpFR	18	6	0	BASEMENT	94	n/a	1	n/a	n/a	n/a	n/a	n/a
874109	REC_WORD	wordpools/wasnorm_wordpool.txt	LTP103	ltpFR	18	6	1	COW	393	n/a	0	n/a	n/a	n/a	n/a	n/a
875570	REC_WORD	wordpools/wasnorm_wordpool.txt	LTP103	ltpFR	18	6	0	CALF	222	n/a	1	n/a	n/a	n/a	n/a	n/a
877311	REC_WORD	wordpools/wasnorm_wordpool.txt	LTP103	ltpFR	18	6	0	FOOT	590	n/a	0	n/a	n/a	n/a	n/a	n/a
879761	REC_WORD	wordpools/wasnorm_wordpool.txt	LTP103	ltpFR	18	6	0	RIB	1188	n/a	1	n/a	n/a	n/a	n/a	n/a
881372	REC_WORD	wordpools/wasnorm_wordpool.txt	LTP103	ltpFR	18	6	n/a	ONION	977	n/a	n/a	n/a	n/a	n/a	n/a	n/a
890761	REC_WORD	wordpools/wasnorm_wordpool.txt	LTP103	ltpFR	18	6	0	SHOE	1288	n/a	0	n/a	n/a	n/a	n/a	n/a
893534	REC_WORD	wordpools/wasnorm_wordpool.txt	LTP103	ltpFR	18	6	0	CAVE	263	n/a	1	n/a	n/a	n/a	n/a	n/a
897395	REC_WORD	wordpools/wasnorm_wordpool.txt	LTP103	ltpFR	18	6	0	OVEN	991	n/a	1	n/a	n/a	n/a	n/a	n/a
900922	REC_WORD	wordpools/wasnorm_wordpool.txt	LTP103	ltpFR	18	6	1	FLOWER	584	n/a	0	n/a	n/a	n/a	n/a	n/a
950448	WORD	wordpools/wasnorm_wordpool.txt	LTP103	ltpFR	18	7	0	PRIMATE	1123	n/a	1	1	0.412841796875	0.57763671875	upper	../fonts/zerothre.ttf
954347	WORD	wordpools/wasnorm_wordpool.txt	LTP103	ltpFR	18	7	0	COOKBOOK	373	n/a	0	1	0.412841796875	0.57763671875	upper	../fonts/zerothre.ttf
958422	WORD	wordpools/wasnorm_wordpool.txt	LTP103	ltpFR	18	7	0	MOSQUITO	917	n/a	0	1	0.412841796875	0.57763671875	upper	../fonts/zerothre.ttf
962397	WORD	wordpools/wasnorm_wordpool.txt	LTP103	ltpFR	18	7	0	RAT	1169	n/a	0	1	0.412841796875	0.57763671875	upper	../fonts/zerothre.ttf
966588	WORD	wordpools/wasnorm_wordpool.txt	LTP103	ltpFR	18	7	0	RIVER	1194	n/a	1	1	0.412841796875	0.57763671875	upper	../fonts/zerothre.ttf
970788	WORD	wordpools/wasnorm_wordpool.txt	LTP103	ltpFR	18	7	0	RAFT	1159	n/a	0	1	0.412841796875	0.57763671875	upper	../fonts/zerothre.ttf
974679	WORD	wordpools/wasnorm_wordpool.txt	LTP103	ltpFR	18	7	0	RODENT	1204	n/a	0	1	0.412841796875	0.57763671875	upper	../fonts/zerothre.ttf
978687	WORD	wordpools/wasnorm_wordpool.txt	LTP103	ltpFR	18	7	0	PASTRY	1022	n/a	0	1	0.412841796875	0.57763671875	upper	../fonts/zerothre.ttf
982853	WORD	wordpools/wasnorm_wordpool.txt	LTP103	ltpFR	18	7	0	BEE	112	n/a	0	1	0.412841796875	0.57763671875	upper	../fonts/zerothre.ttf
987053	WORD	wordpools/wasnorm_wordpool.txt	LTP103	ltpFR	18	7	0	BUN	197	n/a	0	1	0.412841796875	0.57763671875	upper	../fonts/zerothre.ttf
991111	WORD	wordpools/wasnorm_wordpool.txt	LTP103	ltpFR	18	7	0	MEAT	883	n/a	0	1	0.412841796875	0.57763671875	upper	../fonts/zerothre.ttf
995102	WORD	wordpools/wasnorm_wordpool.txt	LTP103	ltpFR	18	7	0	CANNON	232	n/a	0	1	0.412841796875	0.57763671875	upper	../fonts/zerothre.ttf
999244	WORD	wordpools/wasnorm_wordpool.txt	LTP103	ltpFR	18	7	0	NUCLEUS	961	n/a	0	1	0.412841796875	0.57763671875	upper	../fonts/zerothre.ttf
1003127	WORD	wordpools/wasnorm_wordpool.txt	LTP103	ltpFR	18	7	0	BOMB	147	n/a	1	1	0.412841796875	0.57763671875	upper	../fonts/zerothre.ttf
1007077	WORD	wordpools/wasnorm_wordpool.txt	LTP103	ltpFR	18	7	0	PASSENGER	1020	n/a	1	1	0.412841796875	0.57763671875	upper	../fonts/zerothre.ttf
1011210	WORD	wordpools/wasnorm_wordpool.txt	LTP103	ltpFR	18	7	0	CAN	225	n/a	0	1	0.412841796875	0.57763671875	upper	../fonts/zerothre.ttf
1017018	REC_START	n/a	LTP103	ltpFR	18	7	n/a	n/a	n/a	n/a	n/a	n/a	n/a	n/a	n/a	n/a
1018669	REC_WORD	wordpools/wasnorm_wordpool.txt	LTP103	ltpFR	18	7	0	RODENT	1204	n/a	0	n/a	n/a	n/a	n/a	n/a
1019776	REC_WORD	wordpools/wasnorm_wordpool.txt	LTP103	ltpFR	18	7	0	CAN	225	n/a	0	n/a	n/a	n/a	n/a	n/a
1021368	REC_WORD	wordpools/wasnorm_wordpool.txt	LTP103	ltpFR	18	7	0	MEAT	883	n/a	0	n/a	n/a	n/a	n/a	n/a
1024092	REC_WORD	wordpools/wasnorm_wordpool.txt	LTP103	ltpFR	18	7	0	RAT	1169	n/a	0	n/a	n/a	n/a	n/a	n/a
1030711	REC_WORD	wordpools/wasnorm_wordpool.txt	LTP103	ltpFR	18	7	n/a	NEIGHBOR	-1	n/a	n/a	n/a	n/a	n/a	n/a	n/a
1102161	WORD	wordpools/wasnorm_wordpool.txt	LTP103	ltpFR	18	8	-1	MOUTH	926	n/a	-1	1	1.0	1.0	upper	../fonts/Verdana.ttf
1106202	WORD	wordpools/wasnorm_wordpool.txt	LTP103	ltpFR	18	8	-1	VOLLEYBALL	1576	n/a	-1	1	1.0	1.0	upper	../fonts/Verdana.ttf
1110235	WORD	wordpools/wasnorm_wordpool.txt	LTP103	ltpFR	18	8	-1	LIMOUSINE	824	n/a	-1	1	1.0	1.0	upper	../fonts/Verdana.ttf
1114068	WORD	wordpools/wasnorm_wordpool.txt	LTP103	ltpFR	18	8	-1	RADIATOR	1156	n/a	-1	1	1.0	1.0	upper	../fonts/Verdana.ttf
1117968	WORD	wordpools/wasnorm_wordpool.txt	LTP103	ltpFR	18	8	-1	SPATULA	1348	n/a	-1	1	1.0	1.0	upper	../fonts/Verdana.ttf
1122101	WORD	wordpools/wasnorm_wordpool.txt	LTP103	ltpFR	18	8	-1	RATTLE	1170	n/a	-1	1	1.0	1.0	upper	../fonts/Verdana.ttf
1126001	WORD	wordpools/wasnorm_wordpool.txt	LTP103	ltpFR	18	8	-1	PIGMENT	1066	n/a	-1	1	1.0	1.0	upper	../fonts/Verdana.ttf
1129859	WORD	wordpools/wasnorm_wordpool.txt	LTP103	ltpFR	18	8	-1	HAMPER	682	n/a	-1	1	1.0	1.0	upper	../fonts/Verdana.ttf
1133900	WORD	wordpools/wasnorm_wordpool.txt	LTP103	ltpFR	18	8	-1	SURF	1412	n/a	-1	1	1.0	1.0	upper	../fonts/Verdana.ttf
1138100	WORD	wordpools/wasnorm_wordpool.txt	LTP103	ltpFR	18	8	-1	CERAMICS	271	n/a	-1	1	1.0	1.0	upper	../fonts/Verdana.ttf
1142158	WORD	wordpools/wasnorm_wordpool.txt	LTP103	ltpFR	18	8	-1	TONGUE	1479	n/a	-1	1	1.0	1.0	upper	../fonts/Verdana.ttf
1146274	WORD	wordpools/wasnorm_wordpool.txt	LTP103	ltpFR	18	8	-1	POLYESTER	1100	n/a	-1	1	1.0	1.0	upper	../fonts/Verdana.ttf
1150449	WORD	wordpools/wasnorm_wordpool.txt	LTP103	ltpFR	18	8	-1	ROOM	1206	n/a	-1	1	1.0	1.0	upper	../fonts/Verdana.ttf
1154298	WORD	wordpools/wasnorm_wordpool.txt	LTP103	ltpFR	18	8	-1	SHED	1277	n/a	-1	1	1.0	1.0	upper	../fonts/Verdana.ttf
1158381	WORD	wordpools/wasnorm_wordpool.txt	LTP103	ltpFR	18	8	-1	CONCERT	360	n/a	-1	1	1.0	1.0	upper	../fonts/Verdana.ttf
1162506	WORD	wordpools/wasnorm_wordpool.txt	LTP103	ltpFR	18	8	-1	BUGLE	189	n/a	-1	1	1.0	1.0	upper	../fonts/Verdana.ttf
1168173	REC_START	n/a	LTP103	ltpFR	18	8	n/a	n/a	n/a	n/a	n/a	n/a	n/a	n/a	n/a	n/a
1169854	REC_WORD	wordpools/wasnorm_wordpool.txt	LTP103	ltpFR	18	8	-1	BUGLE	189	n/a	-1	n/a	n/a	n/a	n/a	n/a
1173790	REC_WORD	wordpools/wasnorm_wordpool.txt	LTP103	ltpFR	18	8	0	OVEN	991	n/a	1	n/a	n/a	n/a	n/a	n/a
1178829	REC_WORD	wordpools/wasnorm_wordpool.txt	LTP103	ltpFR	18	8	-1	AUTOMOBILE	62	n/a	-1	n/a	n/a	n/a	n/a	n/a
1265190	WORD	wordpools/wasnorm_wordpool.txt	LTP103	ltpFR	18	9	1	ASH	44	n/a	0	0	0.5869140625	0.422607421875	lower	../fonts/amplitud.ttf
1269323	WORD	wordpools/wasnorm_wordpool.txt	LTP103	ltpFR	18	9	1	DEODORANT	448	n/a	0	0	0.5869140625	0.422607421875	lower	../fonts/amplitud.ttf
1273281	WORD	wordpools/wasnorm_wordpool.txt	LTP103	ltpFR	18	9	1	SKATE	1313	n/a	0	0	0.5869140625	0.422607421875	lower	../fonts/amplitud.ttf
1277347	WORD	wordpools/wasnorm_wordpool.txt	LTP103	ltpFR	18	9	1	SLUG	1329	n/a	0	0	0.5869140625	0.422607421875	lower	../fonts/amplitud.ttf
1281322	WORD	wordpools/wasnorm_wordpool.txt	LTP103	ltpFR	18	9	1	WOMAN	1620	n/a	1	0	0.5869140625	0.422607421875	lower	../fonts/amplitud.ttf
1285338	WORD	wordpools/wasnorm_wordpool.txt	LTP103	ltpFR	18	9	1	ERASER	538	n/a	0	0	0.5869140625	0.422607421875	lower	../fonts/amplitud.ttf
1289363	WORD	wordpools/wasnorm_wordpool.txt	LTP103	ltpFR	18	9	1	BONE	148	n/a	0	0	0.5869140625	0.422607421875	lower	../fonts/amplitud.ttf
1293554	WORD	wordpools/wasnorm_wordpool.txt	LTP103	ltpFR	18	9	1	MISSILE	900	n/a	0	0	0.5869140625	0.422607421875	lower	../fonts/amplitud.ttf
1297612	WORD	wordpools/wasnorm_wordpool.txt	LTP103	ltpFR	18	9	1	ZEBRA	1635	n/a	1	0	0.5869140625	0.422607421875	lower	../fonts/amplitud.ttf
1301712	WORD	wordpools/wasnorm_wordpool.txt	LTP103	ltpFR	18	9	1	CREATURE	403	n/a	0	0	0.5869140625	0.422607421875	lower	../fonts/amplitud.ttf
1305703	WORD	wordpools/wasnorm_wordpool.txt	LTP103	ltpFR	18	9	1	DYNAMITE	511	n/a	1	0	0.5869140625	0.422607421875	lower	../fonts/amplitud.ttf
1309786	WORD	wordpools/wasnorm_wordpool.txt	LTP103	ltpFR	18	9	1	KID	775	n/a	1	0	0.5869140625	0.422607421875	lower	../fonts/amplitud.ttf
1313986	WORD	wordpools/wasnorm_wordpool.txt	LTP103	ltpFR	18	9	1	TEENAGER	1444	n/a	1	0	0.5869140625	0.422607421875	lower	../fonts/amplitud.ttf
1317852	WORD	wordpools/wasnorm_wordpool.txt	LTP103	ltpFR	18	9	1	WRIST	1626	n/a	0	0	0.5869140625	0.422607421875	lower	../fonts/amplitud.ttf
1322002	WORD	wordpools/wasnorm_wordpool.txt	LTP103	ltpFR	18	9	1	EARRING	514	n/a	0	0	0.5869140625	0.422607421875	lower	../fonts/amplitud.ttf
1326127	WORD	wordpools/wasnorm_wordpool.txt	LTP103	ltpFR	18	9	1	MAN	862	n/a	1	0	0.5869140625	0.422607421875	lower	../fonts/amplitud.ttf
1332094	REC_START	n/a	LTP103	ltpFR	18	9	n/a	n/a	n/a	n/a	n/a	n/a	n/a	n/a	n/a	n/a
1332802	REC_WORD	wordpools/wasnorm_wordpool.txt	LTP103	ltpFR	18	9	1	MAN	862	n/a	1	n/a	n/a	n/a	n/a	n/a
1333900	REC_WORD	wordpools/wasnorm_wordpool.txt	LTP103	ltpFR	18	9	1	EARRING	514	n/a	0	n/a	n/a	n/a	n/a	n/a
1335641	REC_WORD	wordpools/wasnorm_wordpool.txt	LTP103	ltpFR	18	9	1	TEENAGER	1444	n/a	1	n/a	n/a	n/a	n/a	n/a
1337142	REC_WORD	wordpools/wasnorm_wordpool.txt	LTP103	ltpFR	18	9	n/a	BOY	161	n/a	n/a	n/a	n/a	n/a	n/a	n/a
1424452	WORD	wordpools/wasnorm_wordpool.txt	LTP103	ltpFR	18	10	0	VIOLIN	1571	n/a	1	1	0.412841796875	0.57763671875	upper	../fonts/zerothre.ttf
1428269	WORD	wordpools/wasnorm_wordpool.txt	LTP103	ltpFR	18	10	0	PITCHFORK	1078	n/a	1	1	0.412841796875	0.57763671875	upper	../fonts/zerothre.ttf
1432302	WORD	wordpools/wasnorm_wordpool.txt	LTP103	ltpFR	18	10	0	PERSONNEL	1053	n/a	1	1	0.412841796875	0.57763671875	upper	../fonts/zerothre.ttf
1436143	WORD	wordpools/wasnorm_wordpool.txt	LTP103	ltpFR	18	10	0	TROMBONE	1508	n/a	0	1	0.412841796875	0.57763671875	upper	../fonts/zerothre.ttf
1440209	WORD	wordpools/wasnorm_wordpool.txt	LTP103	ltpFR	18	10	0	PRINCE	1124	n/a	1	1	0.412841796875	0.57763671875	upper	../fonts/zerothre.ttf
1444351	WORD	wordpools/wasnorm_wordpool.txt	LTP103	ltpFR	18	10	0	PATH	1023	n/a	0	1	0.412841796875	0.57763671875	upper	../fonts/zerothre.ttf
1448359	WORD	wordpools/wasnorm_wordpool.txt	LTP103	ltpFR	18	10	0	HIGHWAY	707	n/a	1	1	0.412841796875	0.57763671875	upper	../fonts/zerothre.ttf
1452342	WORD	wordpools/wasnorm_wordpool.txt	LTP103	ltpFR	18	10	0	EMPLOYEE	531	n/a	1	1	0.412841796875	0.57763671875	upper	../fonts/zerothre.ttf
1456233	WORD	wordpools/wasnorm_wordpool.txt	LTP103	ltpFR	18	10	0	SPOON	1357	n/a	0	1	0.412841796875	0.57763671875	upper	../fonts/zerothre.ttf
1460316	WORD	wordpools/wasnorm_wordpool.txt	LTP103	ltpFR	18	10	0	BUTLER	204	n/a	1	1	0.412841796875	0.57763671875	upper	../fonts/zerothre.ttf
1464416	WORD	wordpools/wasnorm_wordpool.txt	LTP103	ltpFR	18	10	0	SHOELACE	1289	n/a	0	1	0.412841796875	0.57763671875	upper	../fonts/zerothre.ttf
1468516	WORD	wordpools/wasnorm_wordpool.txt	LTP103	ltpFR	18	10	0	CLARINET	317	n/a	0	1	0.412841796875	0.57763671875	upper	../fonts/zerothre.ttf
1472515	WORD	wordpools/wasnorm_wordpool.txt	LTP103	ltpFR	18	10	0	KEYBOARD	774	n/a	0	1	0.412841796875	0.57763671875	upper	../fonts/zerothre.ttf
1476357	WORD	wordpools/wasnorm_wordpool.txt	LTP103	ltpFR	18	10	0	SKILLET	1317	n/a	1	1	0.412841796875	0.57763671875	upper	../fonts/zerothre.ttf
1480365	WORD	wordpools/wasnorm_wordpool.txt	LTP103	ltpFR	18	10	0	BREAST	171	n/a	0	1	0.412841796875	0.57763671875	upper	../fonts/zerothre.ttf
1484439	WORD	wordpools/wasnorm_wordpool.txt	LTP103	ltpFR	18	10	0	ALLIGATOR	16	n/a	0	1	0.412841796875	0.57763671875	upper	../fonts/zerothre.ttf
1490406	REC_START	n/a	LTP103	ltpFR	18	10	n/a	n/a	n/a	n/a	n/a	n/a	n/a	n/a	n/a	n/a
1490964	REC_WORD	wordpools/wasnorm_wordpool.txt	LTP103	ltpFR	18	10	0	ALLIGATOR	16	n/a	0	n/a	n/a	n/a	n/a	n/a
1492461	REC_WORD	wordpools/wasnorm_wordpool.txt	LTP103	ltpFR	18	10	0	BREAST	171	n/a	0	n/a	n/a	n/a	n/a	n/a
1498847	REC_WORD	wordpools/wasnorm_wordpool.txt	LTP103	ltpFR	18	10	0	SHOELACE	1289	n/a	0	n/a	n/a	n/a	n/a	n/a
1508634	REC_WORD	wordpools/wasnorm_wordpool.txt	LTP103	ltpFR	18	10	0	EMPLOYEE	531	n/a	1	n/a	n/a	n/a	n/a	n/a
1512695	REC_WORD	wordpools/wasnorm_wordpool.txt	LTP103	ltpFR	18	10	1	TEENAGER	1444	n/a	1	n/a	n/a	n/a	n/a	n/a
1600080	WORD	wordpools/wasnorm_wordpool.txt	LTP103	ltpFR	18	11	1	FRIAR	605	n/a	0	0	0.5869140625	0.422607421875	lower	../fonts/amplitud.ttf
1604205	WORD	wordpools/wasnorm_wordpool.txt	LTP103	ltpFR	18	11	1	CANDY	230	n/a	0	0	0.5869140625	0.422607421875	lower	../fonts/amplitud.ttf
1608371	WORD	wordpools/wasnorm_wordpool.txt	LTP103	ltpFR	18	11	1	FLANNEL	574	n/a	0	0	0.5869140625	0.422607421875	lower	../fonts/amplitud.ttf
1612188	WORD	wordpools/wasnorm_wordpool.txt	LTP103	ltpFR	18	11	1	CITRUS	313	n/a	0	0	0.5869140625	0.422607421875	lower	../fonts/amplitud.ttf
1616212	WORD	wordpools/wasnorm_wordpool.txt	LTP103	ltpFR	18	11	0	HANGER	687	n/a	0	1	0.412841796875	0.57763671875	upper	../fonts/zerothre.ttf
1620329	WORD	wordpools/wasnorm_wordpool.txt	LTP103	ltpFR	18	11	0	UNIFORM	1539	n/a	0	1	0.412841796875	0.57763671875	upper	../fonts/zerothre.ttf
1624478	WORD	wordpools/wasnorm_wordpool.txt	LTP103	ltpFR	18	11	0	CONE	363	n/a	0	1	0.412841796875	0.57763671875	upper	../fonts/zerothre.ttf
1628336	WORD	wordpools/wasnorm_wordpool.txt	LTP103	ltpFR	18	11	0	LODGE	839	n/a	0	1	0.412841796875	0.57763671875	upper	../fonts/zerothre.ttf
1632261	WORD	wordpools/wasnorm_wordpool.txt	LTP103	ltpFR	18	11	1	FIREMAN	569	n/a	1	0	0.5869140625	0.422607421875	lower	../fonts/amplitud.ttf
1636227	WORD	wordpools/wasnorm_wordpool.txt	LTP103	ltpFR	18	11	1	SHOULDER	1294	n/a	0	0	0.5869140625	0.422607421875	lower	../fonts/amplitud.ttf
1640044	WORD	wordpools/wasnorm_wordpool.txt	LTP103	ltpFR	18	11	1	FROST	609	n/a	0	0	0.5869140625	0.422607421875	lower	../fonts/amplitud.ttf
1644027	WORD	wordpools/wasnorm_wordpool.txt	LTP103	ltpFR	18	11	1	MONK	910	n/a	1	0	0.5869140625	0.422607421875	lower	../fonts/amplitud.ttf
1648060	WORD	wordpools/wasnorm_wordpool.txt	LTP103	ltpFR	18	11	0	COMPUTER	359	n/a	1	1	0.412841796875	0.57763671875	upper	../fonts/zerothre.ttf
1651968	WORD	wordpools/wasnorm_wordpool.txt	LTP103	ltpFR	18	11	0	PRINTER	1126	n/a	1	1	0.412841796875	0.57763671875	upper	../fonts/zerothre.ttf
1656076	WORD	wordpools/wasnorm_wordpool.txt	LTP103	ltpFR	18	11	0	BEGGAR	117	n/a	1	1	0.412841796875	0.57763671875	upper	../fonts/zerothre.ttf
1660059	WORD	wordpools/wasnorm_wordpool.txt	LTP103	ltpFR	18	11	0	MINER	896	n/a	1	1	0.412841796875	0.57763671875	upper	../fonts/zerothre.ttf
1665842	REC_START	n/a	LTP103	ltpFR	18	11	n/a	n/a	n/a	n/a	n/a	n/a	n/a	n/a	n/a	n/a
1666340	REC_WORD	wordpools/wasnorm_wordpool.txt	LTP103	ltpFR	18	11	0	MINER	896	n/a	1	n/a	n/a	n/a	n/a	n/a
1667603	REC_WORD	wordpools/wasnorm_wordpool.txt	LTP103	ltpFR	18	11	0	BEGGAR	117	n/a	1	n/a	n/a	n/a	n/a	n/a
1671569	REC_WORD	wordpools/wasnorm_wordpool.txt	LTP103	ltpFR	18	11	0	VIOLIN	1571	n/a	1	n/a	n/a	n/a	n/a	n/a
1678658	REC_WORD	wordpools/wasnorm_wordpool.txt	LTP103	ltpFR	18	11	1	COLT	349	n/a	0	n/a	n/a	n/a	n/a	n/a
1754560	WORD	wordpools/wasnorm_wordpool.txt	LTP103	ltpFR	18	12	1	KEEPER	769	n/a	0	0	0.5869140625	0.422607421875	lower	../fonts/amplitud.ttf
1758393	WORD	wordpools/wasnorm_wordpool.txt	LTP103	ltpFR	18	12	1	ROPE	1211	n/a	0	0	0.5869140625	0.422607421875	lower	../fonts/amplitud.ttf
1762409	WORD	wordpools/wasnorm_wordpool.txt	LTP103	ltpFR	18	12	1	MARSH	874	n/a	0	0	0.5869140625	0.422607421875	lower	../fonts/amplitud.ttf
1766259	WORD	wordpools/wasnorm_wordpool.txt	LTP103	ltpFR	18	12	0	PRESIDENT	1121	n/a	1	1	0.412841796875	0.57763671875	upper	../fonts/zerothre.ttf
1770167	WORD	wordpools/wasnorm_wordpool.txt	LTP103	ltpFR	18	12	0	MOTH	920	n/a	0	1	0.412841796875	0.57763671875	upper	../fonts/zerothre.ttf
1774158	WORD	wordpools/wasnorm_wordpool.txt	LTP103	ltpFR	18	12	0	INSECT	740	n/a	0	1	0.412841796875	0.57763671875	upper	../fonts/zerothre.ttf
1778091	WORD	wordpools/wasnorm_wordpool.txt	LTP103	ltpFR	18	12	1	BUTTON	207	n/a	0	0	0.5869140625	0.422607421875	lower	../fonts/amplitud.ttf
1781983	WORD	wordpools/wasnorm_wordpool.txt	LTP103	ltpFR	18	12	1	GUARDIAN	668	n/a	0	0	0.5869140625	0.422607421875	lower	../fonts/amplitud.ttf
1786091	WORD	wordpools/wasnorm_wordpool.txt	LTP103	ltpFR	18	12	1	STRAW	1390	n/a	0	0	0.5869140625	0.422607421875	lower	../fonts/amplitud.ttf
1789999	WORD	wordpools/wasnorm_wordpool.txt	LTP103	ltpFR	18	12	0	COTTAGE	384	n/a	0	1	0.412841796875	0.57763671875	upper	../fonts/zerothre.ttf
1794157	WORD	wordpools/wasnorm_wordpool.txt	LTP103	ltpFR	18	12	0	BUBBLE	183	n/a	0	1	0.412841796875	0.57763671875	upper	../fonts/zerothre.ttf
1798190	WORD	wordpools/wasnorm_wordpool.txt	LTP103	ltpFR	18	12	0	BATH	98	n/a	0	1	0.412841796875	0.57763671875	upper	../fonts/zerothre.ttf
1802240	WORD	wordpools/wasnorm_wordpool.txt	LTP103	ltpFR	18	12	0	LEAF	808	n/a	0	1	0.412841796875	0.57763671875	upper	../fonts/zerothre.ttf
1806064	WORD	wordpools/wasnorm_wordpool.txt	LTP103	ltpFR	18	12	0	LAWN	805	n/a	0	1	0.412841796875	0.57763671875	upper	../fonts/zerothre.ttf
1809964	WORD	wordpools/wasnorm_wordpool.txt	LTP103	ltpFR	18	12	1	CORD	379	n/a	0	0	0.5869140625	0.422607421875	lower	../fonts/amplitud.ttf
1813897	WORD	wordpools/wasnorm_wordpool.txt	LTP103	ltpFR	18	12	1	HEDGE	699	n/a	0	0	0.5869140625	0.422607421875	lower	../fonts/amplitud.ttf
1819872	REC_START	n/a	LTP103	ltpFR	18	12	n/a	n/a	n/a	n/a	n/a	n/a	n/a	n/a	n/a	n/a
1820226	REC_WORD	wordpools/wasnorm_wordpool.txt	LTP103	ltpFR	18	12	1	HEDGE	699	n/a	0	n/a	n/a	n/a	n/a	n/a
1822186	REC_WORD	wordpools/wasnorm_wordpool.txt	LTP103	ltpFR	18	12	0	LAWN	805	n/a	0	n/a	n/a	n/a	n/a	n/a
1826312	REC_WORD	wordpools/wasnorm_wordpool.txt	LTP103	ltpFR	18	12	1	COOK	372	n/a	1	n/a	n/a	n/a	n/a	n/a
1830118	REC_WORD	wordpools/wasnorm_wordpool.txt	LTP103	ltpFR	18	12	n/a	SCHOOL	1248	n/a	n/a	n/a	n/a	n/a	n/a	n/a
1895474	REST_REWET	n/a	LTP103	ltpFR	18	12	n/a	n/a	n/a	n/a	n/a	n/a	n/a	n/a	n/a	n/a
2471954	WORD	wordpools/wasnorm_wordpool.txt	LTP103	ltpFR	18	13	-1	TYPEWRITER	1531	n/a	-1	1	1.0	1.0	upper	../fonts/Verdana.ttf
2476070	WORD	wordpools/wasnorm_wordpool.txt	LTP103	ltpFR	18	13	-1	CHEESE	289	n/a	-1	1	1.0	1.0	upper	../fonts/Verdana.ttf
2480062	WORD	wordpools/wasnorm_wordpool.txt	LTP103	ltpFR	18	13	-1	PEDESTRIAN	1038	n/a	-1	1	1.0	1.0	upper	../fonts/Verdana.ttf
2484136	WORD	wordpools/wasnorm_wordpool.txt	LTP103	ltpFR	18	13	-1	TAR	1435	n/a	-1	1	1.0	1.0	upper	../fonts/Verdana.ttf
2488303	WORD	wordpools/wasnorm_wordpool.txt	LTP103	ltpFR	18	13	-1	DESK	452	n/a	-1	1	1.0	1.0	upper	../fonts/Verdana.ttf
2492327	WORD	wordpools/wasnorm_wordpool.txt	LTP103	ltpFR	18	13	-1	NERVE	944	n/a	-1	1	1.0	1.0	upper	../fonts/Verdana.ttf
2496319	WORD	wordpools/wasnorm_wordpool.txt	LTP103	ltpFR	18	13	-1	COMB	351	n/a	-1	1	1.0	1.0	upper	../fonts/Verdana.ttf
2500227	WORD	wordpools/wasnorm_wordpool.txt	LTP103	ltpFR	18	13	-1	DANDRUFF	439	n/a	-1	1	1.0	1.0	upper	../fonts/Verdana.ttf
2504343	WORD	wordpools/wasnorm_wordpool.txt	LTP103	ltpFR	18	13	-1	SALESMAN	1225	n/a	-1	1	1.0	1.0	upper	../fonts/Verdana.ttf
2508451	WORD	wordpools/wasnorm_wordpool.txt	LTP103	ltpFR	18	13	-1	CELERY	266	n/a	-1	1	1.0	1.0	upper	../fonts/Verdana.ttf
2512326	WORD	wordpools/wasnorm_wordpool.txt	LTP103	ltpFR	18	13	-1	BRAIN	165	n/a	-1	1	1.0	1.0	upper	../fonts/Verdana.ttf
2516459	WORD	wordpools/wasnorm_wordpool.txt	LTP103	ltpFR	18	13	-1	PROFESSOR	1131	n/a	-1	1	1.0	1.0	upper	../fonts/Verdana.ttf
2520317	WORD	wordpools/wasnorm_wordpool.txt	LTP103	ltpFR	18	13	-1	SPONGE	1355	n/a	-1	1	1.0	1.0	upper	../fonts/Verdana.ttf
2524225	WORD	wordpools/wasnorm_wordpool.txt	LTP103	ltpFR	18	13	-1	WATER	1594	n/a	-1	1	1.0	1.0	upper	../fonts/Verdana.ttf
2528233	WORD	wordpools/wasnorm_wordpool.txt	LTP103	ltpFR	18	13	-1	CHEDDAR	286	n/a	-1	1	1.0	1.0	upper	../fonts/Verdana.ttf
2532058	WORD	wordpools/wasnorm_wordpool.txt	LTP103	ltpFR	18	13	-1	PICTURE	1061	n/a	-1	1	1.0	1.0	upper	../fonts/Verdana.ttf
2537966	REC_START	n/a	LTP103	ltpFR	18	13	n/a	n/a	n/a	n/a	n/a	n/a	n/a	n/a	n/a	n/a
2538669	REC_WORD	wordpools/wasnorm_wordpool.txt	LTP103	ltpFR	18	13	-1	PICTURE	1061	n/a	-1	n/a	n/a	n/a	n/a	n/a
2543069	REC_WORD	wordpools/wasnorm_wordpool.txt	LTP103	ltpFR	18	13	-1	TYPEWRITER	1531	n/a	-1	n/a	n/a	n/a	n/a	n/a
2546013	REC_WORD	wordpools/wasnorm_wordpool.txt	LTP103	ltpFR	18	13	-1	COLONEL	348	n/a	-1	n/a	n/a	n/a	n/a	n/a
2635974	WORD	wordpools/wasnorm_wordpool.txt	LTP103	ltpFR	18	14	-1	EGYPT	519	n/a	-1	1	1.0	1.0	upper	../fonts/Verdana.ttf
2640041	WORD	wordpools/wasnorm_wordpool.txt	LTP103	ltpFR	18	14	-1	GRAVE	658	n/a	-1	1	1.0	1.0	upper	../fonts/Verdana.ttf
2643965	WORD	wordpools/wasnorm_wordpool.txt	LTP103	ltpFR	18	14	-1	SLOPE	1328	n/a	-1	1	1.0	1.0	upper	../fonts/Verdana.ttf
2647890	WORD	wordpools/wasnorm_wordpool.txt	LTP103	ltpFR	18	14	-1	PLANE	1081	n/a	-1	1	1.0	1.0	upper	../fonts/Verdana.ttf
2652015	WORD	wordpools/wasnorm_wordpool.txt	LTP103	ltpFR	18	14	-1	MINK	897	n/a	-1	1	1.0	1.0	upper	../fonts/Verdana.ttf
2655931	WORD	wordpools/wasnorm_wordpool.txt	LTP103	ltpFR	18	14	-1	MATCH	878	n/a	-1	1	1.0	1.0	upper	../fonts/Verdana.ttf
2660139	WORD	wordpools/wasnorm_wordpool.txt	LTP103	ltpFR	18	14	-1	HIKER	708	n/a	-1	1	1.0	1.0	upper	../fonts/Verdana.ttf
2664264	WORD	wordpools/wasnorm_wordpool.txt	LTP103	ltpFR	18	14	-1	MILDEW	893	n/a	-1	1	1.0	1.0	upper	../fonts/Verdana.ttf
2668322	WORD	wordpools/wasnorm_wordpool.txt	LTP103	ltpFR	18	14	-1	ZUCCHINI	1638	n/a	-1	1	1.0	1.0	upper	../fonts/Verdana.ttf
2672430	WORD	wordpools/wasnorm_wordpool.txt	LTP103	ltpFR	18	14	-1	DINOSAUR	469	n/a	-1	1	1.0	1.0	upper	../fonts/Verdana.ttf
2676263	WORD	wordpools/wasnorm_wordpool.txt	LTP103	ltpFR	18	14	-1	TOOTH	1481	n/a	-1	1	1.0	1.0	upper	../fonts/Verdana.ttf
2680279	WORD	wordpools/wasnorm_wordpool.txt	LTP103	ltpFR	18	14	-1	CONDUCTOR	362	n/a	-1	1	1.0	1.0	upper	../fonts/Verdana.ttf
2684204	WORD	wordpools/wasnorm_wordpool.txt	LTP103	ltpFR	18	14	-1	SUBWAY	1400	n/a	-1	1	1.0	1.0	upper	../fonts/Verdana.ttf
2688070	WORD	wordpools/wasnorm_wordpool.txt	LTP103	ltpFR	18	14	-1	FLASHLIGHT	575	n/a	-1	1	1.0	1.0	upper	../fonts/Verdana.ttf
2692053	WORD	wordpools/wasnorm_wordpool.txt	LTP103	ltpFR	18	14	-1	PIMPLE	1071	n/a	-1	1	1.0	1.0	upper	../fonts/Verdana.ttf
2695928	WORD	wordpools/wasnorm_wordpool.txt	LTP103	ltpFR	18	14	-1	ATMOSPHERE	54	n/a	-1	1	1.0	1.0	upper	../fonts/Verdana.ttf
2701953	REC_START	n/a	LTP103	ltpFR	18	14	n/a	n/a	n/a	n/a	n/a	n/a	n/a	n/a	n/a	n/a
2704956	REC_WORD	wordpools/wasnorm_wordpool.txt	LTP103	ltpFR	18	14	-1	ATMOSPHERE	54	n/a	-1	n/a	n/a	n/a	n/a	n/a
2710408	REC_WORD	wordpools/wasnorm_wordpool.txt	LTP103	ltpFR	18	14	-1	FLASHLIGHT	575	n/a	-1	n/a	n/a	n/a	n/a	n/a
2712978	REC_WORD	wordpools/wasnorm_wordpool.txt	LTP103	ltpFR	18	14	1	MOP	916	n/a	0	n/a	n/a	n/a	n/a	n/a
2715008	REC_WORD	wordpools/wasnorm_wordpool.txt	LTP103	ltpFR	18	14	-1	PIMPLE	1071	n/a	-1	n/a	n/a	n/a	n/a	n/a
2780213	WORD	wordpools/wasnorm_wordpool.txt	LTP103	ltpFR	18	15	0	PRODUCER	1129	n/a	1	1	0.412841796875	0.57763671875	upper	../fonts/zerothre.ttf
2784213	WORD	wordpools/wasnorm_wordpool.txt	LTP103	ltpFR	18	15	0	FOLDER	588	n/a	0	1	0.412841796875	0.57763671875	upper	../fonts/zerothre.ttf
2788362	WORD	wordpools/wasnorm_wordpool.txt	LTP103	ltpFR	18	15	0	MONGOOSE	909	n/a	1	1	0.412841796875	0.57763671875	upper	../fonts/zerothre.ttf
2792529	WORD	wordpools/wasnorm_wordpool.txt	LTP103	ltpFR	18	15	0	CROW	414	n/a	1	1	0.412841796875	0.57763671875	upper	../fonts/zerothre.ttf
2796637	WORD	wordpools/wasnorm_wordpool.txt	LTP103	ltpFR	18	15	1	SNORKEL	1336	n/a	0	0	0.5869140625	0.422607421875	lower	../fonts/amplitud.ttf
2800670	WORD	wordpools/wasnorm_wordpool.txt	LTP103	ltpFR	18	15	1	BAY	102	n/a	0	0	0.5869140625	0.422607421875	lower	../fonts/amplitud.ttf
2804711	WORD	wordpools/wasnorm_wordpool.txt	LTP103	ltpFR	18	15	1	SUBMARINE	1398	n/a	0	0	0.5869140625	0.422607421875	lower	../fonts/amplitud.ttf
2808878	WORD	wordpools/wasnorm_wordpool.txt	LTP103	ltpFR	18	15	1	REPORT	1184	n/a	0	0	0.5869140625	0.422607421875	lower	../fonts/amplitud.ttf
2812994	WORD	wordpools/wasnorm_wordpool.txt	LTP103	ltpFR	18	15	1	PUDDLE	1140	n/a	0	0	0.5869140625	0.422607421875	lower	../fonts/amplitud.ttf
2816818	WORD	wordpools/wasnorm_wordpool.txt	LTP103	ltpFR	18	15	0	TOWEL	1489	n/a	1	1	0.412841796875	0.57763671875	upper	../fonts/zerothre.ttf
2820935	WORD	wordpools/wasnorm_wordpool.txt	LTP103	ltpFR	18	15	0	STOCKING	1383	n/a	0	1	0.412841796875	0.57763671875	upper	../fonts/zerothre.ttf
2824809	WORD	wordpools/wasnorm_wordpool.txt	LTP103	ltpFR	18	15	0	CART	250	n/a	0	1	0.412841796875	0.57763671875	upper	../fonts/zerothre.ttf
2828784	WORD	wordpools/wasnorm_wordpool.txt	LTP103	ltpFR	18	15	0	ROOT	1210	n/a	0	1	0.412841796875	0.57763671875	upper	../fonts/zerothre.ttf
2832776	WORD	wordpools/wasnorm_wordpool.txt	LTP103	ltpFR	18	15	1	PATRIOT	1026	n/a	1	0	0.5869140625	0.422607421875	lower	../fonts/amplitud.ttf
2836925	WORD	wordpools/wasnorm_wordpool.txt	LTP103	ltpFR	18	15	1	ELF	525	n/a	1	0	0.5869140625	0.422607421875	lower	../fonts/amplitud.ttf
2841125	WORD	wordpools/wasnorm_wordpool.txt	LTP103	ltpFR	18	15	1	STAGE	1366	n/a	0	0	0.5869140625	0.422607421875	lower	../fonts/amplitud.ttf
2846859	REC_START	n/a	LTP103	ltpFR	18	15	n/a	n/a	n/a	n/a	n/a	n/a	n/a	n/a	n/a	n/a
2847173	REC_WORD	wordpools/wasnorm_wordpool.txt	LTP103	ltpFR	18	15	1	STAGE	1366	n/a	0	n/a	n/a	n/a	n/a	n/a
2848051	REC_WORD	wordpools/wasnorm_wordpool.txt	LTP103	ltpFR	18	15	1	ELF	525	n/a	1	n/a	n/a	n/a	n/a	n/a
2848944	REC_WORD	wordpools/wasnorm_wordpool.txt	LTP103	ltpFR	18	15	1	BAY	102	n/a	0	n/a	n/a	n/a	n/a	n/a
2850246	REC_WORD	wordpools/wasnorm_wordpool.txt	LTP103	ltpFR	18	15	0	STOCKING	1383	n/a	0	n/a	n/a	n/a	n/a	n/a
2853104	REC_WORD	wordpools/wasnorm_wordpool.txt	LTP103	ltpFR	18	15	0	MONGOOSE	909	n/a	1	n/a	n/a	n/a	n/a	n/a
2854461	REC_WORD	wordpools/wasnorm_wordpool.txt	LTP103	ltpFR	18	15	0	CROW	414	n/a	1	n/a	n/a	n/a	n/a	n/a
2856402	REC_WORD	wordpools/wasnorm_wordpool.txt	LTP103	ltpFR	18	15	n/a	PAPER	1011	n/a	n/a	n/a	n/a	n/a	n/a	n/a
2857604	REC_WORD	wordpools/wasnorm_wordpool.txt	LTP103	ltpFR	18	15	0	FOLDER	588	n/a	0	n/a	n/a	n/a	n/a	n/a
2865661	REC_WORD	wordpools/wasnorm_wordpool.txt	LTP103	ltpFR	18	15	n/a	BUNNY	198	n/a	n/a	n/a	n/a	n/a	n/a	n/a
2925610	WORD	wordpools/wasnorm_wordpool.txt	LTP103	ltpFR	18	16	0	SAUSAGE	1238	n/a	1	1	0.412841796875	0.57763671875	upper	../fonts/zerothre.ttf
2929543	WORD	wordpools/wasnorm_wordpool.txt	LTP103	ltpFR	18	16	0	DOOR	486	n/a	1	1	0.412841796875	0.57763671875	upper	../fonts/zerothre.ttf
2933701	WORD	wordpools/wasnorm_wordpool.txt	LTP103	ltpFR	18	16	0	ATTIRE	57	n/a	0	1	0.412841796875	0.57763671875	upper	../fonts/zerothre.ttf
2937643	WORD	wordpools/wasnorm_wordpool.txt	LTP103	ltpFR	18	16	1	DESIGNER	451	n/a	0	0	0.5869140625	0.422607421875	lower	../fonts/amplitud.ttf
2941576	WORD	wordpools/wasnorm_wordpool.txt	LTP103	ltpFR	18	16	1	CEILING	265	n/a	0	0	0.5869140625	0.422607421875	lower	../fonts/amplitud.ttf
2945617	WORD	wordpools/wasnorm_wordpool.txt	LTP103	ltpFR	18	16	1	DINNER	468	n/a	0	0	0.5869140625	0.422607421875	lower	../fonts/amplitud.ttf
2949542	WORD	wordpools/wasnorm_wordpool.txt	LTP103	ltpFR	18	16	1	CHEMICAL	291	n/a	0	0	0.5869140625	0.422607421875	lower	../fonts/amplitud.ttf
2953550	WORD	wordpools/wasnorm_wordpool.txt	LTP103	ltpFR	18	16	0	BILL	126	n/a	0	1	0.412841796875	0.57763671875	upper	../fonts/zerothre.ttf
2957758	WORD	wordpools/wasnorm_wordpool.txt	LTP103	ltpFR	18	16	0	RECEIPT	1173	n/a	0	1	0.412841796875	0.57763671875	upper	../fonts/zerothre.ttf
2961666	WORD	wordpools/wasnorm_wordpool.txt	LTP103	ltpFR	18	16	1	NICOTINE	951	n/a	0	0	0.5869140625	0.422607421875	lower	../fonts/amplitud.ttf
2965874	WORD	wordpools/wasnorm_wordpool.txt	LTP103	ltpFR	18	16	1	HORSE	719	n/a	0	0	0.5869140625	0.422607421875	lower	../fonts/amplitud.ttf
2969907	WORD	wordpools/wasnorm_wordpool.txt	LTP103	ltpFR	18	16	1	CHEMIST	292	n/a	1	0	0.5869140625	0.422607421875	lower	../fonts/amplitud.ttf
2974065	WORD	wordpools/wasnorm_wordpool.txt	LTP103	ltpFR	18	16	1	TANK	1432	n/a	0	0	0.5869140625	0.422607421875	lower	../fonts/amplitud.ttf
2978239	WORD	wordpools/wasnorm_wordpool.txt	LTP103	ltpFR	18	16	0	FIGHTER	564	n/a	1	1	0.412841796875	0.57763671875	upper	../fonts/zerothre.ttf
2982222	WORD	wordpools/wasnorm_wordpool.txt	LTP103	ltpFR	18	16	0	SKUNK	1321	n/a	n/a	1	0.412841796875	0.57763671875	upper	../fonts/zerothre.ttf
2985247	SLOW_MSG	n/a	LTP103	ltpFR	18	16	n/a	n/a	n/a	n/a	n/a	n/a	n/a	n/a	n/a	n/a
2987889	WORD	wordpools/wasnorm_wordpool.txt	LTP103	ltpFR	18	16	0	SWING	1421	n/a	0	1	0.412841796875	0.57763671875	upper	../fonts/zerothre.ttf
2993756	REC_START	n/a	LTP103	ltpFR	18	16	n/a	n/a	n/a	n/a	n/a	n/a	n/a	n/a	n/a	n/a
2994998	REC_WORD	wordpools/wasnorm_wordpool.txt	LTP103	ltpFR	18	16	0	SKUNK	1321	n/a	n/a	n/a	n/a	n/a	n/a	n/a
2996509	REC_WORD	wordpools/wasnorm_wordpool.txt	LTP103	ltpFR	18	16	0	SWING	1421	n/a	0	n/a	n/a	n/a	n/a	n/a
2999693	REC_WORD	wordpools/wasnorm_wordpool.txt	LTP103	ltpFR	18	16	1	BAY	102	n/a	0	n/a	n/a	n/a	n/a	n/a
3005574	REC_WORD	wordpools/wasnorm_wordpool.txt	LTP103	ltpFR	18	16	1	CHEMIST	292	n/a	1	n/a	n/a	n/a	n/a	n/a
3007031	REC_WORD	wordpools/wasnorm_wordpool.txt	LTP103	ltpFR	18	16	1	DESIGNER	451	n/a	0	n/a	n/a	n/a	n/a	n/a
3022381	REC_WORD	wordpools/wasnorm_wordpool.txt	LTP103	ltpFR	18	16	n/a	SUGAR	1401	n/a	n/a	n/a	n/a	n/a	n/a	n/a
3095797	REC_START	n/a	LTP103	ltpFR	18	1	n/a	n/a	n/a	n/a	n/a	n/a	n/a	n/a	n/a	n/a
3095838	RECOG_TARGET	n/a	LTP103	ltpFR	18	1	0	STOCKING	1383	4	0	n/a	n/a	n/a	n/a	n/a
3096530	RECOG_RESP	n/a	LTP103	ltpFR	18	1	0	STOCKING	1383	n/a	0	n/a	n/a	n/a	n/a	n/a
3097298	RECOG_CONF	n/a	LTP103	ltpFR	18	1	0	STOCKING	1383	4	0	n/a	n/a	n/a	n/a	n/a
3098905	RECOG_TARGET	n/a	LTP103	ltpFR	18	1	0	BASEMENT	94	5	1	n/a	n/a	n/a	n/a	n/a
3099463	RECOG_RESP	n/a	LTP103	ltpFR	18	1	0	BASEMENT	94	n/a	1	n/a	n/a	n/a	n/a	n/a
3100062	RECOG_CONF	n/a	LTP103	ltpFR	18	1	0	BASEMENT	94	5	1	n/a	n/a	n/a	n/a	n/a
3101471	RECOG_TARGET	n/a	LTP103	ltpFR	18	1	-1	FLASHLIGHT	575	5	-1	n/a	n/a	n/a	n/a	n/a
3102097	RECOG_RESP	n/a	LTP103	ltpFR	18	1	-1	FLASHLIGHT	575	n/a	-1	n/a	n/a	n/a	n/a	n/a
3102666	RECOG_CONF	n/a	LTP103	ltpFR	18	1	-1	FLASHLIGHT	575	5	-1	n/a	n/a	n/a	n/a	n/a
3104046	RECOG_TARGET	n/a	LTP103	ltpFR	18	1	-1	TAIL	1430	2	-1	n/a	n/a	n/a	n/a	n/a
3104856	RECOG_RESP	n/a	LTP103	ltpFR	18	1	-1	TAIL	1430	n/a	-1	n/a	n/a	n/a	n/a	n/a
3105440	RECOG_CONF	n/a	LTP103	ltpFR	18	1	-1	TAIL	1430	2	-1	n/a	n/a	n/a	n/a	n/a
3106779	RECOG_TARGET	n/a	LTP103	ltpFR	18	1	0	TROMBONE	1508	3	0	n/a	n/a	n/a	n/a	n/a
3107405	RECOG_RESP	n/a	LTP103	ltpFR	18	1	0	TROMBONE	1508	n/a	0	n/a	n/a	n/a	n/a	n/a
3107914	RECOG_CONF	n/a	LTP103	ltpFR	18	1	0	TROMBONE	1508	3	0	n/a	n/a	n/a	n/a	n/a
3109237	RECOG_LURE	n/a	LTP103	ltpFR	18	1	n/a	CABLE	213	2	n/a	n/a	n/a	n/a	n/a	n/a
3110473	RECOG_RESP	n/a	LTP103	ltpFR	18	1	n/a	CABLE	213	n/a	n/a	n/a	n/a	n/a	n/a	n/a
3110987	RECOG_CONF	n/a	LTP103	ltpFR	18	1	n/a	CABLE	213	2	n/a	n/a	n/a	n/a	n/a	n/a
3112346	RECOG_LURE	n/a	LTP103	ltpFR	18	1	n/a	SPY	1360	3	n/a	n/a	n/a	n/a	n/a	n/a
3113212	RECOG_RESP	n/a	LTP103	ltpFR	18	1	n/a	SPY	1360	n/a	n/a	n/a	n/a	n/a	n/a	n/a
3113721	RECOG_CONF	n/a	LTP103	ltpFR	18	1	n/a	SPY	1360	3	n/a	n/a	n/a	n/a	n/a	n/a
3115029	RECOG_TARGET	n/a	LTP103	ltpFR	18	1	0	LOBSTER	837	2	1	n/a	n/a	n/a	n/a	n/a
3115796	RECOG_RESP	n/a	LTP103	ltpFR	18	1	0	LOBSTER	837	n/a	1	n/a	n/a	n/a	n/a	n/a
3116335	RECOG_CONF	n/a	LTP103	ltpFR	18	1	0	LOBSTER	837	2	1	n/a	n/a	n/a	n/a	n/a
3117745	RECOG_TARGET	n/a	LTP103	ltpFR	18	1	0	COMPUTER	359	2	1	n/a	n/a	n/a	n/a	n/a
3118520	RECOG_RESP	n/a	LTP103	ltpFR	18	1	0	COMPUTER	359	n/a	1	n/a	n/a	n/a	n/a	n/a
3118989	RECOG_CONF	n/a	LTP103	ltpFR	18	1	0	COMPUTER	359	2	1	n/a	n/a	n/a	n/a	n/a
3120470	RECOG_TARGET	n/a	LTP103	ltpFR	18	1	0	COOKBOOK	373	3	0	n/a	n/a	n/a	n/a	n/a
3121284	RECOG_RESP	n/a	LTP103	ltpFR	18	1	0	COOKBOOK	373	n/a	0	n/a	n/a	n/a	n/a	n/a
3121743	RECOG_CONF	n/a	LTP103	ltpFR	18	1	0	COOKBOOK	373	3	0	n/a	n/a	n/a	n/a	n/a
3123103	RECOG_TARGET	n/a	LTP103	ltpFR	18	1	0	SHOE	1288	4	0	n/a	n/a	n/a	n/a	n/a
3123723	RECOG_RESP	n/a	LTP103	ltpFR	18	1	0	SHOE	1288	n/a	0	n/a	n/a	n/a	n/a	n/a
3124139	RECOG_CONF	n/a	LTP103	ltpFR	18	1	0	SHOE	1288	4	0	n/a	n/a	n/a	n/a	n/a
3125503	RECOG_TARGET	n/a	LTP103	ltpFR	18	1	-1	NERVE	944	5	-1	n/a	n/a	n/a	n/a	n/a
3126372	RECOG_RESP	n/a	LTP103	ltpFR	18	1	-1	NERVE	944	n/a	-1	n/a	n/a	n/a	n/a	n/a
3126771	RECOG_CONF	n/a	LTP103	ltpFR	18	1	-1	NERVE	944	5	-1	n/a	n/a	n/a	n/a	n/a
3128036	RECOG_TARGET	n/a	LTP103	ltpFR	18	1	1	DUSTPAN	509	5	0	n/a	n/a	n/a	n/a	n/a
3128862	RECOG_RESP	n/a	LTP103	ltpFR	18	1	1	DUSTPAN	509	n/a	0	n/a	n/a	n/a	n/a	n/a
3129316	RECOG_CONF	n/a	LTP103	ltpFR	18	1	1	DUSTPAN	509	5	0	n/a	n/a	n/a	n/a	n/a
3130777	RECOG_TARGET	n/a	LTP103	ltpFR	18	1	0	PHOTO	1055	2	0	n/a	n/a	n/a	n/a	n/a
3131625	RECOG_RESP	n/a	LTP103	ltpFR	18	1	0	PHOTO	1055	n/a	0	n/a	n/a	n/a	n/a	n/a
3132038	RECOG_CONF	n/a	LTP103	ltpFR	18	1	0	PHOTO	1055	2	0	n/a	n/a	n/a	n/a	n/a
3133452	RECOG_TARGET	n/a	LTP103	ltpFR	18	1	1	PATRIOT	1026	3	1	n/a	n/a	n/a	n/a	n/a
3134120	RECOG_RESP	n/a	LTP103	ltpFR	18	1	1	PATRIOT	1026	n/a	1	n/a	n/a	n/a	n/a	n/a
3134544	RECOG_CONF	n/a	LTP103	ltpFR	18	1	1	PATRIOT	1026	3	1	n/a	n/a	n/a	n/a	n/a
3135935	RECOG_LURE	n/a	LTP103	ltpFR	18	1	n/a	RACKET	1155	2	n/a	n/a	n/a	n/a	n/a	n/a
3136948	RECOG_RESP	n/a	LTP103	ltpFR	18	1	n/a	RACKET	1155	n/a	n/a	n/a	n/a	n/a	n/a	n/a
3137477	RECOG_CONF	n/a	LTP103	ltpFR	18	1	n/a	RACKET	1155	2	n/a	n/a	n/a	n/a	n/a	n/a
3138817	RECOG_LURE	n/a	LTP103	ltpFR	18	1	n/a	SANDPAPER	1231	3	n/a	n/a	n/a	n/a	n/a	n/a
3139722	RECOG_RESP	n/a	LTP103	ltpFR	18	1	n/a	SANDPAPER	1231	n/a	n/a	n/a	n/a	n/a	n/a	n/a
3140150	RECOG_CONF	n/a	LTP103	ltpFR	18	1	n/a	SANDPAPER	1231	3	n/a	n/a	n/a	n/a	n/a	n/a
3141535	RECOG_TARGET	n/a	LTP103	ltpFR	18	1	-1	PEDESTRIAN	1038	2	-1	n/a	n/a	n/a	n/a	n/a
3142441	RECOG_RESP	n/a	LTP103	ltpFR	18	1	-1	PEDESTRIAN	1038	n/a	-1	n/a	n/a	n/a	n/a	n/a
3142915	RECOG_CONF	n/a	LTP103	ltpFR	18	1	-1	PEDESTRIAN	1038	2	-1	n/a	n/a	n/a	n/a	n/a
3144293	RECOG_TARGET	n/a	LTP103	ltpFR	18	1	0	SKILLET	1317	3	1	n/a	n/a	n/a	n/a	n/a
3145070	RECOG_RESP	n/a	LTP103	ltpFR	18	1	0	SKILLET	1317	n/a	1	n/a	n/a	n/a	n/a	n/a
3145549	RECOG_CONF	n/a	LTP103	ltpFR	18	1	0	SKILLET	1317	3	1	n/a	n/a	n/a	n/a	n/a
3146834	RECOG_TARGET	n/a	LTP103	ltpFR	18	1	-1	CONDUCTOR	362	2	-1	n/a	n/a	n/a	n/a	n/a
3147809	RECOG_RESP	n/a	LTP103	ltpFR	18	1	-1	CONDUCTOR	362	n/a	-1	n/a	n/a	n/a	n/a	n/a
3148283	RECOG_CONF	n/a	LTP103	ltpFR	18	1	-1	CONDUCTOR	362	2	-1	n/a	n/a	n/a	n/a	n/a
3154070	REC_START	n/a	LTP103	ltpFR	18	2	n/a	n/a	n/a	n/a	n/a	n/a	n/a	n/a	n/a	n/a
3154109	RECOG_LURE	n/a	LTP103	ltpFR	18	2	n/a	ANTEATER	26	3	n/a	n/a	n/a	n/a	n/a	n/a
3155097	RECOG_RESP	n/a	LTP103	ltpFR	18	2	n/a	ANTEATER	26	n/a	n/a	n/a	n/a	n/a	n/a	n/a
3155447	RECOG_CONF	n/a	LTP103	ltpFR	18	2	n/a	ANTEATER	26	3	n/a	n/a	n/a	n/a	n/a	n/a
3156950	RECOG_TARGET	n/a	LTP103	ltpFR	18	2	1	COOK	372	2	1	n/a	n/a	n/a	n/a	n/a
3157602	RECOG_RESP	n/a	LTP103	ltpFR	18	2	1	COOK	372	n/a	1	n/a	n/a	n/a	n/a	n/a
3158036	RECOG_CONF	n/a	LTP103	ltpFR	18	2	1	COOK	372	2	1	n/a	n/a	n/a	n/a	n/a
3159384	RECOG_LURE	n/a	LTP103	ltpFR	18	2	n/a	METEOR	889	3	n/a	n/a	n/a	n/a	n/a	n/a
3160141	RECOG_RESP	n/a	LTP103	ltpFR	18	2	n/a	METEOR	889	n/a	n/a	n/a	n/a	n/a	n/a	n/a
3160384	RECOG_CONF	n/a	LTP103	ltpFR	18	2	n/a	METEOR	889	3	n/a	n/a	n/a	n/a	n/a	n/a
3161933	RECOG_TARGET	n/a	LTP103	ltpFR	18	2	1	CAB	209	2	0	n/a	n/a	n/a	n/a	n/a
3162705	RECOG_RESP	n/a	LTP103	ltpFR	18	2	1	CAB	209	n/a	0	n/a	n/a	n/a	n/a	n/a
3163030	RECOG_CONF	n/a	LTP103	ltpFR	18	2	1	CAB	209	2	0	n/a	n/a	n/a	n/a	n/a
3164483	RECOG_TARGET	n/a	LTP103	ltpFR	18	2	0	COTTAGE	384	2	0	n/a	n/a	n/a	n/a	n/a
3165170	RECOG_RESP	n/a	LTP103	ltpFR	18	2	0	COTTAGE	384	n/a	0	n/a	n/a	n/a	n/a	n/a
3165588	RECOG_CONF	n/a	LTP103	ltpFR	18	2	0	COTTAGE	384	2	0	n/a	n/a	n/a	n/a	n/a
3167016	RECOG_TARGET	n/a	LTP103	ltpFR	18	2	0	UNIFORM	1539	3	0	n/a	n/a	n/a	n/a	n/a
3168118	RECOG_RESP	n/a	LTP103	ltpFR	18	2	0	UNIFORM	1539	n/a	0	n/a	n/a	n/a	n/a	n/a
3168522	RECOG_CONF	n/a	LTP103	ltpFR	18	2	0	UNIFORM	1539	3	0	n/a	n/a	n/a	n/a	n/a
3169924	RECOG_LURE	n/a	LTP103	ltpFR	18	2	n/a	NAIL	936	2	n/a	n/a	n/a	n/a	n/a	n/a
3170777	RECOG_RESP	n/a	LTP103	ltpFR	18	2	n/a	NAIL	936	n/a	n/a	n/a	n/a	n/a	n/a	n/a
3171164	RECOG_CONF	n/a	LTP103	ltpFR	18	2	n/a	NAIL	936	2	n/a	n/a	n/a	n/a	n/a	n/a
3172641	RECOG_TARGET	n/a	LTP103	ltpFR	18	2	1	DAD	433	2	1	n/a	n/a	n/a	n/a	n/a
3173735	RECOG_RESP	n/a	LTP103	ltpFR	18	2	1	DAD	433	n/a	1	n/a	n/a	n/a	n/a	n/a
3174179	RECOG_CONF	n/a	LTP103	ltpFR	18	2	1	DAD	433	2	1	n/a	n/a	n/a	n/a	n/a
3175666	RECOG_TARGET	n/a	LTP103	ltpFR	18	2	0	ROOT	1210	2	0	n/a	n/a	n/a	n/a	n/a
3176878	RECOG_RESP	n/a	LTP103	ltpFR	18	2	0	ROOT	1210	n/a	0	n/a	n/a	n/a	n/a	n/a
3177342	RECOG_CONF	n/a	LTP103	ltpFR	18	2	0	ROOT	1210	2	0	n/a	n/a	n/a	n/a	n/a
3178848	RECOG_LURE	n/a	LTP103	ltpFR	18	2	n/a	VICTIM	1562	3	n/a	n/a	n/a	n/a	n/a	n/a
3179667	RECOG_RESP	n/a	LTP103	ltpFR	18	2	n/a	VICTIM	1562	n/a	n/a	n/a	n/a	n/a	n/a	n/a
3180265	RECOG_CONF	n/a	LTP103	ltpFR	18	2	n/a	VICTIM	1562	3	n/a	n/a	n/a	n/a	n/a	n/a
3181757	RECOG_TARGET	n/a	LTP103	ltpFR	18	2	0	PRIMATE	1123	4	1	n/a	n/a	n/a	n/a	n/a
3182405	RECOG_RESP	n/a	LTP103	ltpFR	18	2	0	PRIMATE	1123	n/a	1	n/a	n/a	n/a	n/a	n/a
3182889	RECOG_CONF	n/a	LTP103	ltpFR	18	2	0	PRIMATE	1123	4	1	n/a	n/a	n/a	n/a	n/a
3184398	RECOG_LURE	n/a	LTP103	ltpFR	18	2	n/a	AGENT	10	2	n/a	n/a	n/a	n/a	n/a	n/a
3185104	RECOG_RESP	n/a	LTP103	ltpFR	18	2	n/a	AGENT	10	n/a	n/a	n/a	n/a	n/a	n/a	n/a
3185533	RECOG_CONF	n/a	LTP103	ltpFR	18	2	n/a	AGENT	10	2	n/a	n/a	n/a	n/a	n/a	n/a
3187165	RECOG_TARGET	n/a	LTP103	ltpFR	18	2	0	FIGHTER	564	3	1	n/a	n/a	n/a	n/a	n/a
3187788	RECOG_RESP_VV	n/a	LTP103	ltpFR	18	2	0	FIGHTER	564	n/a	1	n/a	n/a	n/a	n/a	n/a
3187793	RECOG_RESP	n/a	LTP103	ltpFR	18	2	0	FIGHTER	564	n/a	1	n/a	n/a	n/a	n/a	n/a
3188297	RECOG_CONF	n/a	LTP103	ltpFR	18	2	0	FIGHTER	564	3	1	n/a	n/a	n/a	n/a	n/a
3189740	RECOG_LURE	n/a	LTP103	ltpFR	18	2	n/a	DAISY	435	2	n/a	n/a	n/a	n/a	n/a	n/a
3190632	RECOG_RESP	n/a	LTP103	ltpFR	18	2	n/a	DAISY	435	n/a	n/a	n/a	n/a	n/a	n/a	n/a
3191051	RECOG_CONF	n/a	LTP103	ltpFR	18	2	n/a	DAISY	435	2	n/a	n/a	n/a	n/a	n/a	n/a
3192556	RECOG_TARGET	n/a	LTP103	ltpFR	18	2	1	NICOTINE	951	3	0	n/a	n/a	n/a	n/a	n/a
3193191	RECOG_RESP	n/a	LTP103	ltpFR	18	2	1	NICOTINE	951	n/a	0	n/a	n/a	n/a	n/a	n/a
3193605	RECOG_CONF	n/a	LTP103	ltpFR	18	2	1	NICOTINE	951	3	0	n/a	n/a	n/a	n/a	n/a
3195022	RECOG_LURE	n/a	LTP103	ltpFR	18	2	n/a	DILL	465	2	n/a	n/a	n/a	n/a	n/a	n/a
3196000	RECOG_RESP	n/a	LTP103	ltpFR	18	2	n/a	DILL	465	n/a	n/a	n/a	n/a	n/a	n/a	n/a
3196379	RECOG_CONF	n/a	LTP103	ltpFR	18	2	n/a	DILL	465	2	n/a	n/a	n/a	n/a	n/a	n/a
3197747	RECOG_TARGET	n/a	LTP103	ltpFR	18	2	-1	MATCH	878	2	-1	n/a	n/a	n/a	n/a	n/a
3198524	RECOG_RESP	n/a	LTP103	ltpFR	18	2	-1	MATCH	878	n/a	-1	n/a	n/a	n/a	n/a	n/a
3198928	RECOG_CONF	n/a	LTP103	ltpFR	18	2	-1	MATCH	878	2	-1	n/a	n/a	n/a	n/a	n/a
3200264	RECOG_TARGET	n/a	LTP103	ltpFR	18	2	0	CANNON	232	3	0	n/a	n/a	n/a	n/a	n/a
3201751	RECOG_RESP	n/a	LTP103	ltpFR	18	2	0	CANNON	232	n/a	0	n/a	n/a	n/a	n/a	n/a
3202184	RECOG_CONF	n/a	LTP103	ltpFR	18	2	0	CANNON	232	3	0	n/a	n/a	n/a	n/a	n/a
3203555	RECOG_TARGET	n/a	LTP103	ltpFR	18	2	0	FOOT	590	4	0	n/a	n/a	n/a	n/a	n/a
3204326	RECOG_RESP	n/a	LTP103	ltpFR	18	2	0	FOOT	590	n/a	0	n/a	n/a	n/a	n/a	n/a
3204680	RECOG_CONF	n/a	LTP103	ltpFR	18	2	0	FOOT	590	4	0	n/a	n/a	n/a	n/a	n/a
3205980	RECOG_TARGET	n/a	LTP103	ltpFR	18	2	-1	BUILDING	191	2	-1	n/a	n/a	n/a	n/a	n/a
3207588	RECOG_RESP	n/a	LTP103	ltpFR	18	2	-1	BUILDING	191	n/a	-1	n/a	n/a	n/a	n/a	n/a
3208057	RECOG_CONF	n/a	LTP103	ltpFR	18	2	-1	BUILDING	191	2	-1	n/a	n/a	n/a	n/a	n/a
3210891	REC_START	n/a	LTP103	ltpFR	18	3	n/a	n/a	n/a	n/a	n/a	n/a	n/a	n/a	n/a	n/a
3210930	RECOG_TARGET	n/a	LTP103	ltpFR	18	3	1	COTTON	385	3	0	n/a	n/a	n/a	n/a	n/a
3211644	RECOG_RESP	n/a	LTP103	ltpFR	18	3	1	COTTON	385	n/a	0	n/a	n/a	n/a	n/a	n/a
3212083	RECOG_CONF	n/a	LTP103	ltpFR	18	3	1	COTTON	385	3	0	n/a	n/a	n/a	n/a	n/a
3213413	RECOG_TARGET	n/a	LTP103	ltpFR	18	3	-1	EGYPT	519	4	-1	n/a	n/a	n/a	n/a	n/a
3214118	RECOG_RESP	n/a	LTP103	ltpFR	18	3	-1	EGYPT	519	n/a	-1	n/a	n/a	n/a	n/a	n/a
3214513	RECOG_CONF	n/a	LTP103	ltpFR	18	3	-1	EGYPT	519	4	-1	n/a	n/a	n/a	n/a	n/a
3215836	RECOG_TARGET	n/a	LTP103	ltpFR	18	3	-1	BUGLE	189	5	-1	n/a	n/a	n/a	n/a	n/a
3216643	RECOG_RESP	n/a	LTP103	ltpFR	18	3	-1	BUGLE	189	n/a	-1	n/a	n/a	n/a	n/a	n/a
3217005	RECOG_CONF	n/a	LTP103	ltpFR	18	3	-1	BUGLE	189	5	-1	n/a	n/a	n/a	n/a	n/a
3218487	RECOG_LURE	n/a	LTP103	ltpFR	18	3	n/a	CARROT	249	3	n/a	n/a	n/a	n/a	n/a	n/a
3219641	RECOG_RESP	n/a	LTP103	ltpFR	18	3	n/a	CARROT	249	n/a	n/a	n/a	n/a	n/a	n/a	n/a
3220055	RECOG_CONF	n/a	LTP103	ltpFR	18	3	n/a	CARROT	249	3	n/a	n/a	n/a	n/a	n/a	n/a
3221495	RECOG_TARGET	n/a	LTP103	ltpFR	18	3	1	DIVER	476	3	0	n/a	n/a	n/a	n/a	n/a
3222629	RECOG_RESP	n/a	LTP103	ltpFR	18	3	1	DIVER	476	n/a	0	n/a	n/a	n/a	n/a	n/a
3223008	RECOG_CONF	n/a	LTP103	ltpFR	18	3	1	DIVER	476	3	0	n/a	n/a	n/a	n/a	n/a
3224503	RECOG_TARGET	n/a	LTP103	ltpFR	18	3	1	GUARDIAN	668	4	0	n/a	n/a	n/a	n/a	n/a
3225283	RECOG_RESP	n/a	LTP103	ltpFR	18	3	1	GUARDIAN	668	n/a	0	n/a	n/a	n/a	n/a	n/a
3225655	RECOG_CONF	n/a	LTP103	ltpFR	18	3	1	GUARDIAN	668	4	0	n/a	n/a	n/a	n/a	n/a
3227020	RECOG_TARGET	n/a	LTP103	ltpFR	18	3	0	RODENT	1204	4	0	n/a	n/a	n/a	n/a	n/a
3227827	RECOG_RESP	n/a	LTP103	ltpFR	18	3	0	RODENT	1204	n/a	0	n/a	n/a	n/a	n/a	n/a
3228122	RECOG_CONF	n/a	LTP103	ltpFR	18	3	0	RODENT	1204	4	0	n/a	n/a	n/a	n/a	n/a
3229703	RECOG_TARGET	n/a	LTP103	ltpFR	18	3	1	EARRING	514	4	0	n/a	n/a	n/a	n/a	n/a
3230347	RECOG_RESP	n/a	LTP103	ltpFR	18	3	1	EARRING	514	n/a	0	n/a	n/a	n/a	n/a	n/a
3230637	RECOG_CONF	n/a	LTP103	ltpFR	18	3	1	EARRING	514	4	0	n/a	n/a	n/a	n/a	n/a
3232228	RECOG_TARGET	n/a	LTP103	ltpFR	18	3	0	MOSQUITO	917	4	0	n/a	n/a	n/a	n/a	n/a
3233080	RECOG_RESP	n/a	LTP103	ltpFR	18	3	0	MOSQUITO	917	n/a	0	n/a	n/a	n/a	n/a	n/a
3233377	RECOG_CONF	n/a	LTP103	ltpFR	18	3	0	MOSQUITO	917	4	0	n/a	n/a	n/a	n/a	n/a
3235086	RECOG_TARGET	n/a	LTP103	ltpFR	18	3	0	CALF	222	4	1	n/a	n/a	n/a	n/a	n/a
3235724	RECOG_RESP	n/a	LTP103	ltpFR	18	3	0	CALF	222	n/a	1	n/a	n/a	n/a	n/a	n/a
3235972	RECOG_CONF	n/a	LTP103	ltpFR	18	3	0	CALF	222	4	1	n/a	n/a	n/a	n/a	n/a
3237702	RECOG_LURE	n/a	LTP103	ltpFR	18	3	n/a	LAMP	798	3	n/a	n/a	n/a	n/a	n/a	n/a
3238618	RECOG_RESP	n/a	LTP103	ltpFR	18	3	n/a	LAMP	798	n/a	n/a	n/a	n/a	n/a	n/a	n/a
3239052	RECOG_CONF	n/a	LTP103	ltpFR	18	3	n/a	LAMP	798	3	n/a	n/a	n/a	n/a	n/a	n/a
3240394	RECOG_TARGET	n/a	LTP103	ltpFR	18	3	1	SHOULDER	1294	4	0	n/a	n/a	n/a	n/a	n/a
3241082	RECOG_RESP	n/a	LTP103	ltpFR	18	3	1	SHOULDER	1294	n/a	0	n/a	n/a	n/a	n/a	n/a
3241445	RECOG_CONF	n/a	LTP103	ltpFR	18	3	1	SHOULDER	1294	4	0	n/a	n/a	n/a	n/a	n/a
3242877	RECOG_TARGET	n/a	LTP103	ltpFR	18	3	-1	CONCRETE	361	2	-1	n/a	n/a	n/a	n/a	n/a
3243636	RECOG_RESP	n/a	LTP103	ltpFR	18	3	-1	CONCRETE	361	n/a	-1	n/a	n/a	n/a	n/a	n/a
3244042	RECOG_CONF	n/a	LTP103	ltpFR	18	3	-1	CONCRETE	361	2	-1	n/a	n/a	n/a	n/a	n/a
3245510	RECOG_TARGET	n/a	LTP103	ltpFR	18	3	0	BUBBLE	183	3	0	n/a	n/a	n/a	n/a	n/a
3246076	RECOG_RESP	n/a	LTP103	ltpFR	18	3	0	BUBBLE	183	n/a	0	n/a	n/a	n/a	n/a	n/a
3246475	RECOG_CONF	n/a	LTP103	ltpFR	18	3	0	BUBBLE	183	3	0	n/a	n/a	n/a	n/a	n/a
3247968	RECOG_TARGET	n/a	LTP103	ltpFR	18	3	0	RAFT	1159	4	0	n/a	n/a	n/a	n/a	n/a
3248705	RECOG_RESP	n/a	LTP103	ltpFR	18	3	0	RAFT	1159	n/a	0	n/a	n/a	n/a	n/a	n/a
3248980	RECOG_CONF	n/a	LTP103	ltpFR	18	3	0	RAFT	1159	4	0	n/a	n/a	n/a	n/a	n/a
3250576	RECOG_TARGET	n/a	LTP103	ltpFR	18	3	1	COW	393	4	0	n/a	n/a	n/a	n/a	n/a
3251179	RECOG_RESP	n/a	LTP103	ltpFR	18	3	1	COW	393	n/a	0	n/a	n/a	n/a	n/a	n/a
3251453	RECOG_CONF	n/a	LTP103	ltpFR	18	3	1	COW	393	4	0	n/a	n/a	n/a	n/a	n/a
3252960	RECOG_TARGET	n/a	LTP103	ltpFR	18	3	1	STRAW	1390	4	0	n/a	n/a	n/a	n/a	n/a
3253589	RECOG_RESP	n/a	LTP103	ltpFR	18	3	1	STRAW	1390	n/a	0	n/a	n/a	n/a	n/a	n/a
3253891	RECOG_CONF	n/a	LTP103	ltpFR	18	3	1	STRAW	1390	4	0	n/a	n/a	n/a	n/a	n/a
3255368	RECOG_TARGET	n/a	LTP103	ltpFR	18	3	0	MOTH	920	2	0	n/a	n/a	n/a	n/a	n/a
3256258	RECOG_RESP	n/a	LTP103	ltpFR	18	3	0	MOTH	920	n/a	0	n/a	n/a	n/a	n/a	n/a
3256652	RECOG_CONF	n/a	LTP103	ltpFR	18	3	0	MOTH	920	2	0	n/a	n/a	n/a	n/a	n/a
3258034	RECOG_LURE	n/a	LTP103	ltpFR	18	3	n/a	MESSAGE	888	3	n/a	n/a	n/a	n/a	n/a	n/a
3258942	RECOG_RESP	n/a	LTP103	ltpFR	18	3	n/a	MESSAGE	888	n/a	n/a	n/a	n/a	n/a	n/a	n/a
3259252	RECOG_CONF	n/a	LTP103	ltpFR	18	3	n/a	MESSAGE	888	3	n/a	n/a	n/a	n/a	n/a	n/a
3260742	RECOG_LURE	n/a	LTP103	ltpFR	18	3	n/a	BALLOT	76	2	n/a	n/a	n/a	n/a	n/a	n/a
3261635	RECOG_RESP	n/a	LTP103	ltpFR	18	3	n/a	BALLOT	76	n/a	n/a	n/a	n/a	n/a	n/a	n/a
3261965	RECOG_CONF	n/a	LTP103	ltpFR	18	3	n/a	BALLOT	76	2	n/a	n/a	n/a	n/a	n/a	n/a
3264839	REC_START	n/a	LTP103	ltpFR	18	4	n/a	n/a	n/a	n/a	n/a	n/a	n/a	n/a	n/a	n/a
3264875	RECOG_TARGET	n/a	LTP103	ltpFR	18	4	-1	PIGMENT	1066	2	-1	n/a	n/a	n/a	n/a	n/a
3265707	RECOG_RESP	n/a	LTP103	ltpFR	18	4	-1	PIGMENT	1066	n/a	-1	n/a	n/a	n/a	n/a	n/a
3266191	RECOG_CONF	n/a	LTP103	ltpFR	18	4	-1	PIGMENT	1066	2	-1	n/a	n/a	n/a	n/a	n/a
3267458	RECOG_TARGET	n/a	LTP103	ltpFR	18	4	1	DINNER	468	3	0	n/a	n/a	n/a	n/a	n/a
3267987	RECOG_RESP_VV	n/a	LTP103	ltpFR	18	4	1	DINNER	468	n/a	0	n/a	n/a	n/a	n/a	n/a
3268510	RECOG_RESP	n/a	LTP103	ltpFR	18	4	1	DINNER	468	n/a	0	n/a	n/a	n/a	n/a	n/a
3269044	RECOG_CONF	n/a	LTP103	ltpFR	18	4	1	DINNER	468	3	0	n/a	n/a	n/a	n/a	n/a
3270567	RECOG_TARGET	n/a	LTP103	ltpFR	18	4	-1	SALESMAN	1225	2	-1	n/a	n/a	n/a	n/a	n/a
3271409	RECOG_RESP	n/a	LTP103	ltpFR	18	4	-1	SALESMAN	1225	n/a	-1	n/a	n/a	n/a	n/a	n/a
3271958	RECOG_CONF	n/a	LTP103	ltpFR	18	4	-1	SALESMAN	1225	2	-1	n/a	n/a	n/a	n/a	n/a
3273191	RECOG_TARGET	n/a	LTP103	ltpFR	18	4	0	RIB	1188	3	1	n/a	n/a	n/a	n/a	n/a
3273813	RECOG_RESP	n/a	LTP103	ltpFR	18	4	0	RIB	1188	n/a	1	n/a	n/a	n/a	n/a	n/a
3274138	RECOG_CONF	n/a	LTP103	ltpFR	18	4	0	RIB	1188	3	1	n/a	n/a	n/a	n/a	n/a
3275591	RECOG_TARGET	n/a	LTP103	ltpFR	18	4	0	PARROT	1015	4	0	n/a	n/a	n/a	n/a	n/a
3276273	RECOG_RESP	n/a	LTP103	ltpFR	18	4	0	PARROT	1015	n/a	0	n/a	n/a	n/a	n/a	n/a
3276643	RECOG_CONF	n/a	LTP103	ltpFR	18	4	0	PARROT	1015	4	0	n/a	n/a	n/a	n/a	n/a
3278108	RECOG_LURE	n/a	LTP103	ltpFR	18	4	n/a	HOUND	724	3	n/a	n/a	n/a	n/a	n/a	n/a
3278982	RECOG_RESP	n/a	LTP103	ltpFR	18	4	n/a	HOUND	724	n/a	n/a	n/a	n/a	n/a	n/a	n/a
3279396	RECOG_CONF	n/a	LTP103	ltpFR	18	4	n/a	HOUND	724	3	n/a	n/a	n/a	n/a	n/a	n/a
3280732	RECOG_TARGET	n/a	LTP103	ltpFR	18	4	1	DEODORANT	448	2	0	n/a	n/a	n/a	n/a	n/a
3281775	RECOG_RESP	n/a	LTP103	ltpFR	18	4	1	DEODORANT	448	n/a	0	n/a	n/a	n/a	n/a	n/a
3282294	RECOG_CONF	n/a	LTP103	ltpFR	18	4	1	DEODORANT	448	2	0	n/a	n/a	n/a	n/a	n/a
3283691	RECOG_TARGET	n/a	LTP103	ltpFR	18	4	1	CEILING	265	2	0	n/a	n/a	n/a	n/a	n/a
3284459	RECOG_RESP	n/a	LTP103	ltpFR	18	4	1	CEILING	265	n/a	0	n/a	n/a	n/a	n/a	n/a
3285427	RECOG_CONF	n/a	LTP103	ltpFR	18	4	1	CEILING	265	2	0	n/a	n/a	n/a	n/a	n/a
3286715	RECOG_TARGET	n/a	LTP103	ltpFR	18	4	0	BUN	197	3	0	n/a	n/a	n/a	n/a	n/a
3287437	RECOG_RESP	n/a	LTP103	ltpFR	18	4	0	BUN	197	n/a	0	n/a	n/a	n/a	n/a	n/a
3288051	RECOG_CONF	n/a	LTP103	ltpFR	18	4	0	BUN	197	3	0	n/a	n/a	n/a	n/a	n/a
3289532	RECOG_TARGET	n/a	LTP103	ltpFR	18	4	0	BUTLER	204	4	1	n/a	n/a	n/a	n/a	n/a
3290091	RECOG_RESP	n/a	LTP103	ltpFR	18	4	0	BUTLER	204	n/a	1	n/a	n/a	n/a	n/a	n/a
3290516	RECOG_CONF	n/a	LTP103	ltpFR	18	4	0	BUTLER	204	4	1	n/a	n/a	n/a	n/a	n/a
3292173	RECOG_TARGET	n/a	LTP103	ltpFR	18	4	0	BEGGAR	117	2	1	n/a	n/a	n/a	n/a	n/a
3292725	RECOG_RESP	n/a	LTP103	ltpFR	18	4	0	BEGGAR	117	n/a	1	n/a	n/a	n/a	n/a	n/a
3293389	RECOG_CONF	n/a	LTP103	ltpFR	18	4	0	BEGGAR	117	2	1	n/a	n/a	n/a	n/a	n/a
3294790	RECOG_LURE	n/a	LTP103	ltpFR	18	4	n/a	BLOSSOM	138	3	n/a	n/a	n/a	n/a	n/a	n/a
3295579	RECOG_RESP	n/a	LTP103	ltpFR	18	4	n/a	BLOSSOM	138	n/a	n/a	n/a	n/a	n/a	n/a	n/a
3295942	RECOG_CONF	n/a	LTP103	ltpFR	18	4	n/a	BLOSSOM	138	3	n/a	n/a	n/a	n/a	n/a	n/a
3297406	RECOG_TARGET	n/a	LTP103	ltpFR	18	4	0	ANKLE	24	2	0	n/a	n/a	n/a	n/a	n/a
3298088	RECOG_RESP	n/a	LTP103	ltpFR	18	4	0	ANKLE	24	n/a	0	n/a	n/a	n/a	n/a	n/a
3298542	RECOG_CONF	n/a	LTP103	ltpFR	18	4	0	ANKLE	24	2	0	n/a	n/a	n/a	n/a	n/a
3299989	RECOG_TARGET	n/a	LTP103	ltpFR	18	4	0	EMPLOYEE	531	2	1	n/a	n/a	n/a	n/a	n/a
3300662	RECOG_RESP	n/a	LTP103	ltpFR	18	4	0	EMPLOYEE	531	n/a	1	n/a	n/a	n/a	n/a	n/a
3301067	RECOG_CONF	n/a	LTP103	ltpFR	18	4	0	EMPLOYEE	531	2	1	n/a	n/a	n/a	n/a	n/a
3302506	RECOG_TARGET	n/a	LTP103	ltpFR	18	4	1	CORD	379	3	0	n/a	n/a	n/a	n/a	n/a
3303266	RECOG_RESP	n/a	LTP103	ltpFR	18	4	1	CORD	379	n/a	0	n/a	n/a	n/a	n/a	n/a
3303650	RECOG_CONF	n/a	LTP103	ltpFR	18	4	1	CORD	379	3	0	n/a	n/a	n/a	n/a	n/a
3305047	RECOG_TARGET	n/a	LTP103	ltpFR	18	4	-1	AUTOMOBILE	62	2	-1	n/a	n/a	n/a	n/a	n/a
3305671	RECOG_RESP	n/a	LTP103	ltpFR	18	4	-1	AUTOMOBILE	62	n/a	-1	n/a	n/a	n/a	n/a	n/a
3306270	RECOG_CONF	n/a	LTP103	ltpFR	18	4	-1	AUTOMOBILE	62	2	-1	n/a	n/a	n/a	n/a	n/a
3307697	RECOG_TARGET	n/a	LTP103	ltpFR	18	4	-1	ATMOSPHERE	54	3	-1	n/a	n/a	n/a	n/a	n/a
3308345	RECOG_RESP	n/a	LTP103	ltpFR	18	4	-1	ATMOSPHERE	54	n/a	-1	n/a	n/a	n/a	n/a	n/a
3308764	RECOG_CONF	n/a	LTP103	ltpFR	18	4	-1	ATMOSPHERE	54	3	-1	n/a	n/a	n/a	n/a	n/a
3310272	RECOG_TARGET	n/a	LTP103	ltpFR	18	4	-1	WATER	1594	2	-1	n/a	n/a	n/a	n/a	n/a
3310964	RECOG_RESP	n/a	LTP103	ltpFR	18	4	-1	WATER	1594	n/a	-1	n/a	n/a	n/a	n/a	n/a
3311348	RECOG_CONF	n/a	LTP103	ltpFR	18	4	-1	WATER	1594	2	-1	n/a	n/a	n/a	n/a	n/a
3312855	RECOG_TARGET	n/a	LTP103	ltpFR	18	4	1	PHYSICIAN	1056	3	0	n/a	n/a	n/a	n/a	n/a
3313793	RECOG_RESP	n/a	LTP103	ltpFR	18	4	1	PHYSICIAN	1056	n/a	0	n/a	n/a	n/a	n/a	n/a
3314088	RECOG_CONF	n/a	LTP103	ltpFR	18	4	1	PHYSICIAN	1056	3	0	n/a	n/a	n/a	n/a	n/a
3315571	RECOG_TARGET	n/a	LTP103	ltpFR	18	4	1	POLITICIAN	1099	2	1	n/a	n/a	n/a	n/a	n/a
3316476	RECOG_RESP	n/a	LTP103	ltpFR	18	4	1	POLITICIAN	1099	n/a	1	n/a	n/a	n/a	n/a	n/a
3316830	RECOG_CONF	n/a	LTP103	ltpFR	18	4	1	POLITICIAN	1099	2	1	n/a	n/a	n/a	n/a	n/a
3319791	REC_START	n/a	LTP103	ltpFR	18	5	n/a	n/a	n/a	n/a	n/a	n/a	n/a	n/a	n/a	n/a
3319828	RECOG_TARGET	n/a	LTP103	ltpFR	18	5	1	DWARF	510	3	1	n/a	n/a	n/a	n/a	n/a
3320489	RECOG_RESP	n/a	LTP103	ltpFR	18	5	1	DWARF	510	n/a	1	n/a	n/a	n/a	n/a	n/a
3320933	RECOG_CONF	n/a	LTP103	ltpFR	18	5	1	DWARF	510	3	1	n/a	n/a	n/a	n/a	n/a
3322421	RECOG_TARGET	n/a	LTP103	ltpFR	18	5	0	LAWN	805	2	0	n/a	n/a	n/a	n/a	n/a
3323068	RECOG_RESP	n/a	LTP103	ltpFR	18	5	0	LAWN	805	n/a	0	n/a	n/a	n/a	n/a	n/a
3323436	RECOG_CONF	n/a	LTP103	ltpFR	18	5	0	LAWN	805	2	0	n/a	n/a	n/a	n/a	n/a
3324987	RECOG_TARGET	n/a	LTP103	ltpFR	18	5	1	BANKER	84	3	0	n/a	n/a	n/a	n/a	n/a
3325563	RECOG_RESP	n/a	LTP103	ltpFR	18	5	1	BANKER	84	n/a	0	n/a	n/a	n/a	n/a	n/a
3325862	RECOG_CONF	n/a	LTP103	ltpFR	18	5	1	BANKER	84	3	0	n/a	n/a	n/a	n/a	n/a
3327654	RECOG_TARGET	n/a	LTP103	ltpFR	18	5	-1	DANDRUFF	439	2	-1	n/a	n/a	n/a	n/a	n/a
3328501	RECOG_RESP_VV	n/a	LTP103	ltpFR	18	5	-1	DANDRUFF	439	n/a	-1	n/a	n/a	n/a	n/a	n/a
3328925	RECOG_RESP	n/a	LTP103	ltpFR	18	5	-1	DANDRUFF	439	n/a	-1	n/a	n/a	n/a	n/a	n/a
3329424	RECOG_CONF	n/a	LTP103	ltpFR	18	5	-1	DANDRUFF	439	2	-1	n/a	n/a	n/a	n/a	n/a
3330854	RECOG_LURE	n/a	LTP103	ltpFR	18	5	n/a	THRONE	1461	2	n/a	n/a	n/a	n/a	n/a	n/a
3331489	RECOG_RESP	n/a	LTP103	ltpFR	18	5	n/a	THRONE	1461	n/a	n/a	n/a	n/a	n/a	n/a	n/a
3331801	RECOG_CONF	n/a	LTP103	ltpFR	18	5	n/a	THRONE	1461	2	n/a	n/a	n/a	n/a	n/a	n/a
3333303	RECOG_TARGET	n/a	LTP103	ltpFR	18	5	1	MISSILE	900	3	0	n/a	n/a	n/a	n/a	n/a
3333684	RECOG_RESP	n/a	LTP103	ltpFR	18	5	1	MISSILE	900	n/a	0	n/a	n/a	n/a	n/a	n/a
3334023	RECOG_CONF	n/a	LTP103	ltpFR	18	5	1	MISSILE	900	3	0	n/a	n/a	n/a	n/a	n/a
3335528	RECOG_TARGET	n/a	LTP103	ltpFR	18	5	1	COLT	349	3	0	n/a	n/a	n/a	n/a	n/a
3335979	RECOG_RESP	n/a	LTP103	ltpFR	18	5	1	COLT	349	n/a	0	n/a	n/a	n/a	n/a	n/a
3336408	RECOG_CONF	n/a	LTP103	ltpFR	18	5	1	COLT	349	3	0	n/a	n/a	n/a	n/a	n/a
3337903	RECOG_TARGET	n/a	LTP103	ltpFR	18	5	1	CITRUS	313	3	0	n/a	n/a	n/a	n/a	n/a
3338553	RECOG_RESP	n/a	LTP103	ltpFR	18	5	1	CITRUS	313	n/a	0	n/a	n/a	n/a	n/a	n/a
3338962	RECOG_CONF	n/a	LTP103	ltpFR	18	5	1	CITRUS	313	3	0	n/a	n/a	n/a	n/a	n/a
3340411	RECOG_TARGET	n/a	LTP103	ltpFR	18	5	1	SLUG	1329	3	0	n/a	n/a	n/a	n/a	n/a
3340978	RECOG_RESP	n/a	LTP103	ltpFR	18	5	1	SLUG	1329	n/a	0	n/a	n/a	n/a	n/a	n/a
3341337	RECOG_CONF	n/a	LTP103	ltpFR	18	5	1	SLUG	1329	3	0	n/a	n/a	n/a	n/a	n/a
3342827	RECOG_TARGET	n/a	LTP103	ltpFR	18	5	1	STONE	1385	3	0	n/a	n/a	n/a	n/a	n/a
3343352	RECOG_RESP	n/a	LTP103	ltpFR	18	5	1	STONE	1385	n/a	0	n/a	n/a	n/a	n/a	n/a
3343701	RECOG_CONF	n/a	LTP103	ltpFR	18	5	1	STONE	1385	3	0	n/a	n/a	n/a	n/a	n/a
3345219	RECOG_TARGET	n/a	LTP103	ltpFR	18	5	1	HORSE	719	3	0	n/a	n/a	n/a	n/a	n/a
3345632	RECOG_RESP	n/a	LTP103	ltpFR	18	5	1	HORSE	719	n/a	0	n/a	n/a	n/a	n/a	n/a
3346006	RECOG_CONF	n/a	LTP103	ltpFR	18	5	1	HORSE	719	3	0	n/a	n/a	n/a	n/a	n/a
3347544	RECOG_TARGET	n/a	LTP103	ltpFR	18	5	-1	MOUTH	926	3	-1	n/a	n/a	n/a	n/a	n/a
3348206	RECOG_RESP	n/a	LTP103	ltpFR	18	5	-1	MOUTH	926	n/a	-1	n/a	n/a	n/a	n/a	n/a
3348650	RECOG_CONF	n/a	LTP103	ltpFR	18	5	-1	MOUTH	926	3	-1	n/a	n/a	n/a	n/a	n/a
3350085	RECOG_TARGET	n/a	LTP103	ltpFR	18	5	1	WOMAN	1620	3	1	n/a	n/a	n/a	n/a	n/a
3350576	RECOG_RESP	n/a	LTP103	ltpFR	18	5	1	WOMAN	1620	n/a	1	n/a	n/a	n/a	n/a	n/a
3351015	RECOG_CONF	n/a	LTP103	ltpFR	18	5	1	WOMAN	1620	3	1	n/a	n/a	n/a	n/a	n/a
3352360	RECOG_TARGET	n/a	LTP103	ltpFR	18	5	0	PRESIDENT	1121	3	1	n/a	n/a	n/a	n/a	n/a
3352666	RECOG_RESP	n/a	LTP103	ltpFR	18	5	0	PRESIDENT	1121	n/a	1	n/a	n/a	n/a	n/a	n/a
3353150	RECOG_CONF	n/a	LTP103	ltpFR	18	5	0	PRESIDENT	1121	3	1	n/a	n/a	n/a	n/a	n/a
3354502	RECOG_TARGET	n/a	LTP103	ltpFR	18	5	1	PUDDLE	1140	3	0	n/a	n/a	n/a	n/a	n/a
3354966	RECOG_RESP	n/a	LTP103	ltpFR	18	5	1	PUDDLE	1140	n/a	0	n/a	n/a	n/a	n/a	n/a
3355445	RECOG_CONF	n/a	LTP103	ltpFR	18	5	1	PUDDLE	1140	3	0	n/a	n/a	n/a	n/a	n/a
3356752	RECOG_TARGET	n/a	LTP103	ltpFR	18	5	1	ERASER	538	3	0	n/a	n/a	n/a	n/a	n/a
3357360	RECOG_RESP	n/a	LTP103	ltpFR	18	5	1	ERASER	538	n/a	0	n/a	n/a	n/a	n/a	n/a
3357799	RECOG_CONF	n/a	LTP103	ltpFR	18	5	1	ERASER	538	3	0	n/a	n/a	n/a	n/a	n/a
3359143	RECOG_TARGET	n/a	LTP103	ltpFR	18	5	0	HIGHWAY	707	3	1	n/a	n/a	n/a	n/a	n/a
3359565	RECOG_RESP	n/a	LTP103	ltpFR	18	5	0	HIGHWAY	707	n/a	1	n/a	n/a	n/a	n/a	n/a
3360024	RECOG_CONF	n/a	LTP103	ltpFR	18	5	0	HIGHWAY	707	3	1	n/a	n/a	n/a	n/a	n/a
3361326	RECOG_LURE	n/a	LTP103	ltpFR	18	5	n/a	ENVELOPE	537	3	n/a	n/a	n/a	n/a	n/a	n/a
3361805	RECOG_RESP	n/a	LTP103	ltpFR	18	5	n/a	ENVELOPE	537	n/a	n/a	n/a	n/a	n/a	n/a	n/a
3362289	RECOG_CONF	n/a	LTP103	ltpFR	18	5	n/a	ENVELOPE	537	3	n/a	n/a	n/a	n/a	n/a	n/a
3363593	RECOG_TARGET	n/a	LTP103	ltpFR	18	5	0	PRODUCER	1129	3	1	n/a	n/a	n/a	n/a	n/a
3364484	RECOG_RESP	n/a	LTP103	ltpFR	18	5	0	PRODUCER	1129	n/a	1	n/a	n/a	n/a	n/a	n/a
3364923	RECOG_CONF	n/a	LTP103	ltpFR	18	5	0	PRODUCER	1129	3	1	n/a	n/a	n/a	n/a	n/a
3366267	RECOG_TARGET	n/a	LTP103	ltpFR	18	5	-1	PICTURE	1061	3	-1	n/a	n/a	n/a	n/a	n/a
3366914	RECOG_RESP	n/a	LTP103	ltpFR	18	5	-1	PICTURE	1061	n/a	-1	n/a	n/a	n/a	n/a	n/a
3367378	RECOG_CONF	n/a	LTP103	ltpFR	18	5	-1	PICTURE	1061	3	-1	n/a	n/a	n/a	n/a	n/a
3370299	REC_START	n/a	LTP103	ltpFR	18	6	n/a	n/a	n/a	n/a	n/a	n/a	n/a	n/a	n/a	n/a
3370334	RECOG_TARGET	n/a	LTP103	ltpFR	18	6	1	GLASS	639	3	0	n/a	n/a	n/a	n/a	n/a
3370912	RECOG_RESP	n/a	LTP103	ltpFR	18	6	1	GLASS	639	n/a	0	n/a	n/a	n/a	n/a	n/a
3371341	RECOG_CONF	n/a	LTP103	ltpFR	18	6	1	GLASS	639	3	0	n/a	n/a	n/a	n/a	n/a
3372717	RECOG_TARGET	n/a	LTP103	ltpFR	18	6	0	LEAF	808	3	0	n/a	n/a	n/a	n/a	n/a
3373541	RECOG_RESP	n/a	LTP103	ltpFR	18	6	0	LEAF	808	n/a	0	n/a	n/a	n/a	n/a	n/a
3373965	RECOG_CONF	n/a	LTP103	ltpFR	18	6	0	LEAF	808	3	0	n/a	n/a	n/a	n/a	n/a
3375325	RECOG_TARGET	n/a	LTP103	ltpFR	18	6	0	CAVE	263	3	1	n/a	n/a	n/a	n/a	n/a
3375876	RECOG_RESP	n/a	LTP103	ltpFR	18	6	0	CAVE	263	n/a	1	n/a	n/a	n/a	n/a	n/a
3376230	RECOG_CONF	n/a	LTP103	ltpFR	18	6	0	CAVE	263	3	1	n/a	n/a	n/a	n/a	n/a
3377767	RECOG_LURE	n/a	LTP103	ltpFR	18	6	n/a	LOVER	846	1	n/a	n/a	n/a	n/a	n/a	n/a
3378385	RECOG_RESP	n/a	LTP103	ltpFR	18	6	n/a	LOVER	846	n/a	n/a	n/a	n/a	n/a	n/a	n/a
3379393	RECOG_CONF	n/a	LTP103	ltpFR	18	6	n/a	LOVER	846	1	n/a	n/a	n/a	n/a	n/a	n/a
3380741	RECOG_TARGET	n/a	LTP103	ltpFR	18	6	0	SNAIL	1332	3	0	n/a	n/a	n/a	n/a	n/a
3381468	RECOG_RESP	n/a	LTP103	ltpFR	18	6	0	SNAIL	1332	n/a	0	n/a	n/a	n/a	n/a	n/a
3381788	RECOG_CONF	n/a	LTP103	ltpFR	18	6	0	SNAIL	1332	3	0	n/a	n/a	n/a	n/a	n/a
3383308	RECOG_LURE	n/a	LTP103	ltpFR	18	6	n/a	CROCODILE	411	3	n/a	n/a	n/a	n/a	n/a	n/a
3383903	RECOG_RESP	n/a	LTP103	ltpFR	18	6	n/a	CROCODILE	411	n/a	n/a	n/a	n/a	n/a	n/a	n/a
3384262	RECOG_CONF	n/a	LTP103	ltpFR	18	6	n/a	CROCODILE	411	3	n/a	n/a	n/a	n/a	n/a	n/a
3385666	RECOG_TARGET	n/a	LTP103	ltpFR	18	6	0	TOASTER	1472	3	1	n/a	n/a	n/a	n/a	n/a
3386238	RECOG_RESP	n/a	LTP103	ltpFR	18	6	0	TOASTER	1472	n/a	1	n/a	n/a	n/a	n/a	n/a
3386607	RECOG_CONF	n/a	LTP103	ltpFR	18	6	0	TOASTER	1472	3	1	n/a	n/a	n/a	n/a	n/a
3388082	RECOG_TARGET	n/a	LTP103	ltpFR	18	6	0	MARGARINE	868	2	0	n/a	n/a	n/a	n/a	n/a
3389001	RECOG_RESP	n/a	LTP103	ltpFR	18	6	0	MARGARINE	868	n/a	0	n/a	n/a	n/a	n/a	n/a
3389406	RECOG_CONF	n/a	LTP103	ltpFR	18	6	0	MARGARINE	868	2	0	n/a	n/a	n/a	n/a	n/a
3390766	RECOG_TARGET	n/a	LTP103	ltpFR	18	6	0	FOLDER	588	2	0	n/a	n/a	n/a	n/a	n/a
3391590	RECOG_RESP	n/a	LTP103	ltpFR	18	6	0	FOLDER	588	n/a	0	n/a	n/a	n/a	n/a	n/a
3392003	RECOG_CONF	n/a	LTP103	ltpFR	18	6	0	FOLDER	588	2	0	n/a	n/a	n/a	n/a	n/a
3393340	RECOG_TARGET	n/a	LTP103	ltpFR	18	6	1	MOP	916	3	0	n/a	n/a	n/a	n/a	n/a
3394015	RECOG_RESP	n/a	LTP103	ltpFR	18	6	1	MOP	916	n/a	0	n/a	n/a	n/a	n/a	n/a
3394409	RECOG_CONF	n/a	LTP103	ltpFR	18	6	1	MOP	916	3	0	n/a	n/a	n/a	n/a	n/a
3395707	RECOG_TARGET	n/a	LTP103	ltpFR	18	6	-1	VOLLEYBALL	1576	3	-1	n/a	n/a	n/a	n/a	n/a
3396340	RECOG_RESP	n/a	LTP103	ltpFR	18	6	-1	VOLLEYBALL	1576	n/a	-1	n/a	n/a	n/a	n/a	n/a
3396724	RECOG_CONF	n/a	LTP103	ltpFR	18	6	-1	VOLLEYBALL	1576	3	-1	n/a	n/a	n/a	n/a	n/a
3398165	RECOG_TARGET	n/a	LTP103	ltpFR	18	6	-1	SLIDE	1326	3	-1	n/a	n/a	n/a	n/a	n/a
3398629	RECOG_RESP	n/a	LTP103	ltpFR	18	6	-1	SLIDE	1326	n/a	-1	n/a	n/a	n/a	n/a	n/a
3399048	RECOG_CONF	n/a	LTP103	ltpFR	18	6	-1	SLIDE	1326	3	-1	n/a	n/a	n/a	n/a	n/a
3400423	RECOG_TARGET	n/a	LTP103	ltpFR	18	6	1	REPORT	1184	3	0	n/a	n/a	n/a	n/a	n/a
3400899	RECOG_RESP	n/a	LTP103	ltpFR	18	6	1	REPORT	1184	n/a	0	n/a	n/a	n/a	n/a	n/a
3401353	RECOG_CONF	n/a	LTP103	ltpFR	18	6	1	REPORT	1184	3	0	n/a	n/a	n/a	n/a	n/a
3402640	RECOG_TARGET	n/a	LTP103	ltpFR	18	6	0	MINER	896	3	1	n/a	n/a	n/a	n/a	n/a
3403124	RECOG_RESP	n/a	LTP103	ltpFR	18	6	0	MINER	896	n/a	1	n/a	n/a	n/a	n/a	n/a
3403538	RECOG_CONF	n/a	LTP103	ltpFR	18	6	0	MINER	896	3	1	n/a	n/a	n/a	n/a	n/a
3404873	RECOG_TARGET	n/a	LTP103	ltpFR	18	6	1	PALACE	1006	3	0	n/a	n/a	n/a	n/a	n/a
3405434	RECOG_RESP	n/a	LTP103	ltpFR	18	6	1	PALACE	1006	n/a	0	n/a	n/a	n/a	n/a	n/a
3405833	RECOG_CONF	n/a	LTP103	ltpFR	18	6	1	PALACE	1006	3	0	n/a	n/a	n/a	n/a	n/a
3407131	RECOG_TARGET	n/a	LTP103	ltpFR	18	6	1	DYNAMITE	511	3	1	n/a	n/a	n/a	n/a	n/a
3407734	RECOG_RESP	n/a	LTP103	ltpFR	18	6	1	DYNAMITE	511	n/a	1	n/a	n/a	n/a	n/a	n/a
3408138	RECOG_CONF	n/a	LTP103	ltpFR	18	6	1	DYNAMITE	511	3	1	n/a	n/a	n/a	n/a	n/a
3409539	RECOG_TARGET	n/a	LTP103	ltpFR	18	6	-1	LIMOUSINE	824	3	-1	n/a	n/a	n/a	n/a	n/a
3410068	RECOG_RESP	n/a	LTP103	ltpFR	18	6	-1	LIMOUSINE	824	n/a	-1	n/a	n/a	n/a	n/a	n/a
3410502	RECOG_CONF	n/a	LTP103	ltpFR	18	6	-1	LIMOUSINE	824	3	-1	n/a	n/a	n/a	n/a	n/a
3411821	RECOG_TARGET	n/a	LTP103	ltpFR	18	6	-1	BRAIN	165	3	-1	n/a	n/a	n/a	n/a	n/a
3412303	RECOG_RESP	n/a	LTP103	ltpFR	18	6	-1	BRAIN	165	n/a	-1	n/a	n/a	n/a	n/a	n/a
3412717	RECOG_CONF	n/a	LTP103	ltpFR	18	6	-1	BRAIN	165	3	-1	n/a	n/a	n/a	n/a	n/a
3414105	RECOG_LURE	n/a	LTP103	ltpFR	18	6	n/a	CAPITAL	238	3	n/a	n/a	n/a	n/a	n/a	n/a
3414653	RECOG_RESP	n/a	LTP103	ltpFR	18	6	n/a	CAPITAL	238	n/a	n/a	n/a	n/a	n/a	n/a	n/a
3415082	RECOG_CONF	n/a	LTP103	ltpFR	18	6	n/a	CAPITAL	238	3	n/a	n/a	n/a	n/a	n/a	n/a
3416380	RECOG_TARGET	n/a	LTP103	ltpFR	18	6	-1	BUTCHER	203	3	-1	n/a	n/a	n/a	n/a	n/a
3416998	RECOG_RESP	n/a	LTP103	ltpFR	18	6	-1	BUTCHER	203	n/a	-1	n/a	n/a	n/a	n/a	n/a
3417377	RECOG_CONF	n/a	LTP103	ltpFR	18	6	-1	BUTCHER	203	3	-1	n/a	n/a	n/a	n/a	n/a
3420441	REC_START	n/a	LTP103	ltpFR	18	7	n/a	n/a	n/a	n/a	n/a	n/a	n/a	n/a	n/a	n/a
3420480	RECOG_TARGET	n/a	LTP103	ltpFR	18	7	1	COFFEE	341	3	0	n/a	n/a	n/a	n/a	n/a
3421089	RECOG_RESP	n/a	LTP103	ltpFR	18	7	1	COFFEE	341	n/a	0	n/a	n/a	n/a	n/a	n/a
3421503	RECOG_CONF	n/a	LTP103	ltpFR	18	7	1	COFFEE	341	3	0	n/a	n/a	n/a	n/a	n/a
3422955	RECOG_TARGET	n/a	LTP103	ltpFR	18	7	1	FLANNEL	574	3	0	n/a	n/a	n/a	n/a	n/a
3423688	RECOG_RESP	n/a	LTP103	ltpFR	18	7	1	FLANNEL	574	n/a	0	n/a	n/a	n/a	n/a	n/a
3424048	RECOG_CONF	n/a	LTP103	ltpFR	18	7	1	FLANNEL	574	3	0	n/a	n/a	n/a	n/a	n/a
3425638	RECOG_LURE	n/a	LTP103	ltpFR	18	7	n/a	SCISSORS	1250	2	n/a	n/a	n/a	n/a	n/a	n/a
3426407	RECOG_RESP	n/a	LTP103	ltpFR	18	7	n/a	SCISSORS	1250	n/a	n/a	n/a	n/a	n/a	n/a	n/a
3426791	RECOG_CONF	n/a	LTP103	ltpFR	18	7	n/a	SCISSORS	1250	2	n/a	n/a	n/a	n/a	n/a	n/a
3428171	RECOG_TARGET	n/a	LTP103	ltpFR	18	7	0	PITCHFORK	1078	3	1	n/a	n/a	n/a	n/a	n/a
3428842	RECOG_RESP	n/a	LTP103	ltpFR	18	7	0	PITCHFORK	1078	n/a	1	n/a	n/a	n/a	n/a	n/a
3429206	RECOG_CONF	n/a	LTP103	ltpFR	18	7	0	PITCHFORK	1078	3	1	n/a	n/a	n/a	n/a	n/a
3430521	RECOG_TARGET	n/a	LTP103	ltpFR	18	7	0	BOMB	147	3	1	n/a	n/a	n/a	n/a	n/a
3430992	RECOG_RESP	n/a	LTP103	ltpFR	18	7	0	BOMB	147	n/a	1	n/a	n/a	n/a	n/a	n/a
3431371	RECOG_CONF	n/a	LTP103	ltpFR	18	7	0	BOMB	147	3	1	n/a	n/a	n/a	n/a	n/a
3432787	RECOG_TARGET	n/a	LTP103	ltpFR	18	7	1	CHEMIST	292	3	1	n/a	n/a	n/a	n/a	n/a
3433302	RECOG_RESP	n/a	LTP103	ltpFR	18	7	1	CHEMIST	292	n/a	1	n/a	n/a	n/a	n/a	n/a
3433646	RECOG_CONF	n/a	LTP103	ltpFR	18	7	1	CHEMIST	292	3	1	n/a	n/a	n/a	n/a	n/a
3435087	RECOG_LURE	n/a	LTP103	ltpFR	18	7	n/a	AIRCRAFT	11	3	n/a	n/a	n/a	n/a	n/a	n/a
3435711	RECOG_RESP	n/a	LTP103	ltpFR	18	7	n/a	AIRCRAFT	11	n/a	n/a	n/a	n/a	n/a	n/a	n/a
3436100	RECOG_CONF	n/a	LTP103	ltpFR	18	7	n/a	AIRCRAFT	11	3	n/a	n/a	n/a	n/a	n/a	n/a
3437320	RECOG_LURE	n/a	LTP103	ltpFR	18	7	n/a	EYELASH	546	3	n/a	n/a	n/a	n/a	n/a	n/a
3438245	RECOG_RESP	n/a	LTP103	ltpFR	18	7	n/a	EYELASH	546	n/a	n/a	n/a	n/a	n/a	n/a	n/a
3438684	RECOG_CONF	n/a	LTP103	ltpFR	18	7	n/a	EYELASH	546	3	n/a	n/a	n/a	n/a	n/a	n/a
3440187	RECOG_TARGET	n/a	LTP103	ltpFR	18	7	-1	TAR	1435	3	-1	n/a	n/a	n/a	n/a	n/a
3440820	RECOG_RESP	n/a	LTP103	ltpFR	18	7	-1	TAR	1435	n/a	-1	n/a	n/a	n/a	n/a	n/a
3441209	RECOG_CONF	n/a	LTP103	ltpFR	18	7	-1	TAR	1435	3	-1	n/a	n/a	n/a	n/a	n/a
3442503	RECOG_TARGET	n/a	LTP103	ltpFR	18	7	0	LANDSCAPE	799	3	1	n/a	n/a	n/a	n/a	n/a
3442950	RECOG_RESP	n/a	LTP103	ltpFR	18	7	0	LANDSCAPE	799	n/a	1	n/a	n/a	n/a	n/a	n/a
3443354	RECOG_CONF	n/a	LTP103	ltpFR	18	7	0	LANDSCAPE	799	3	1	n/a	n/a	n/a	n/a	n/a
3444778	RECOG_TARGET	n/a	LTP103	ltpFR	18	7	0	LETTUCE	814	3	0	n/a	n/a	n/a	n/a	n/a
3445244	RECOG_RESP	n/a	LTP103	ltpFR	18	7	0	LETTUCE	814	n/a	0	n/a	n/a	n/a	n/a	n/a
3445599	RECOG_CONF	n/a	LTP103	ltpFR	18	7	0	LETTUCE	814	3	0	n/a	n/a	n/a	n/a	n/a
3447136	RECOG_TARGET	n/a	LTP103	ltpFR	18	7	1	DAUGHTER	442	3	1	n/a	n/a	n/a	n/a	n/a
3447559	RECOG_RESP	n/a	LTP103	ltpFR	18	7	1	DAUGHTER	442	n/a	1	n/a	n/a	n/a	n/a	n/a
3447983	RECOG_CONF	n/a	LTP103	ltpFR	18	7	1	DAUGHTER	442	3	1	n/a	n/a	n/a	n/a	n/a
3449444	RECOG_TARGET	n/a	LTP103	ltpFR	18	7	1	ORCHESTRA	981	3	0	n/a	n/a	n/a	n/a	n/a
3449924	RECOG_RESP	n/a	LTP103	ltpFR	18	7	1	ORCHESTRA	981	n/a	0	n/a	n/a	n/a	n/a	n/a
3450338	RECOG_CONF	n/a	LTP103	ltpFR	18	7	1	ORCHESTRA	981	3	0	n/a	n/a	n/a	n/a	n/a
3451761	RECOG_TARGET	n/a	LTP103	ltpFR	18	7	0	OVEN	991	3	1	n/a	n/a	n/a	n/a	n/a
3452134	RECOG_RESP	n/a	LTP103	ltpFR	18	7	0	OVEN	991	n/a	1	n/a	n/a	n/a	n/a	n/a
3452533	RECOG_CONF	n/a	LTP103	ltpFR	18	7	0	OVEN	991	3	1	n/a	n/a	n/a	n/a	n/a
3453902	RECOG_TARGET	n/a	LTP103	ltpFR	18	7	1	FRIAR	605	3	0	n/a	n/a	n/a	n/a	n/a
3454219	RECOG_RESP	n/a	LTP103	ltpFR	18	7	1	FRIAR	605	n/a	0	n/a	n/a	n/a	n/a	n/a
3454678	RECOG_CONF	n/a	LTP103	ltpFR	18	7	1	FRIAR	605	3	0	n/a	n/a	n/a	n/a	n/a
3456144	RECOG_TARGET	n/a	LTP103	ltpFR	18	7	0	RECEIPT	1173	3	0	n/a	n/a	n/a	n/a	n/a
3456289	RECOG_RESP	n/a	LTP103	ltpFR	18	7	0	RECEIPT	1173	n/a	0	n/a	n/a	n/a	n/a	n/a
3456644	RECOG_CONF	n/a	LTP103	ltpFR	18	7	0	RECEIPT	1173	3	0	n/a	n/a	n/a	n/a	n/a
3458160	RECOG_LURE	n/a	LTP103	ltpFR	18	7	n/a	VET	1560	3	n/a	n/a	n/a	n/a	n/a	n/a
3458504	RECOG_RESP	n/a	LTP103	ltpFR	18	7	n/a	VET	1560	n/a	n/a	n/a	n/a	n/a	n/a	n/a
3458948	RECOG_CONF	n/a	LTP103	ltpFR	18	7	n/a	VET	1560	3	n/a	n/a	n/a	n/a	n/a	n/a
3460285	RECOG_TARGET	n/a	LTP103	ltpFR	18	7	-1	SCROLL	1257	3	-1	n/a	n/a	n/a	n/a	n/a
3460809	RECOG_RESP	n/a	LTP103	ltpFR	18	7	-1	SCROLL	1257	n/a	-1	n/a	n/a	n/a	n/a	n/a
3461243	RECOG_CONF	n/a	LTP103	ltpFR	18	7	-1	SCROLL	1257	3	-1	n/a	n/a	n/a	n/a	n/a
3462468	RECOG_TARGET	n/a	LTP103	ltpFR	18	7	-1	HIKER	708	3	-1	n/a	n/a	n/a	n/a	n/a
3462919	RECOG_RESP	n/a	LTP103	ltpFR	18	7	-1	HIKER	708	n/a	-1	n/a	n/a	n/a	n/a	n/a
3463428	RECOG_CONF	n/a	LTP103	ltpFR	18	7	-1	HIKER	708	3	-1	n/a	n/a	n/a	n/a	n/a
3464793	RECOG_TARGET	n/a	LTP103	ltpFR	18	7	1	HAYSTACK	694	3	0	n/a	n/a	n/a	n/a	n/a
3465249	RECOG_RESP	n/a	LTP103	ltpFR	18	7	1	HAYSTACK	694	n/a	0	n/a	n/a	n/a	n/a	n/a
3465813	RECOG_CONF	n/a	LTP103	ltpFR	18	7	1	HAYSTACK	694	3	0	n/a	n/a	n/a	n/a	n/a
3468455	REC_START	n/a	LTP103	ltpFR	18	8	n/a	n/a	n/a	n/a	n/a	n/a	n/a	n/a	n/a	n/a
3468484	RECOG_LURE	n/a	LTP103	ltpFR	18	8	n/a	DOLL	481	3	n/a	n/a	n/a	n/a	n/a	n/a
3468894	RECOG_RESP	n/a	LTP103	ltpFR	18	8	n/a	DOLL	481	n/a	n/a	n/a	n/a	n/a	n/a	n/a
3469268	RECOG_CONF	n/a	LTP103	ltpFR	18	8	n/a	DOLL	481	3	n/a	n/a	n/a	n/a	n/a	n/a
3470634	RECOG_LURE	n/a	LTP103	ltpFR	18	8	n/a	BUTTERFLY	206	2	n/a	n/a	n/a	n/a	n/a	n/a
3471069	RECOG_RESP	n/a	LTP103	ltpFR	18	8	n/a	BUTTERFLY	206	n/a	n/a	n/a	n/a	n/a	n/a	n/a
3471822	RECOG_CONF	n/a	LTP103	ltpFR	18	8	n/a	BUTTERFLY	206	2	n/a	n/a	n/a	n/a	n/a	n/a
3473459	RECOG_TARGET	n/a	LTP103	ltpFR	18	8	0	HANGER	687	3	0	n/a	n/a	n/a	n/a	n/a
3474297	RECOG_RESP	n/a	LTP103	ltpFR	18	8	0	HANGER	687	n/a	0	n/a	n/a	n/a	n/a	n/a
3474674	RECOG_CONF	n/a	LTP103	ltpFR	18	8	0	HANGER	687	3	0	n/a	n/a	n/a	n/a	n/a
3476034	RECOG_TARGET	n/a	LTP103	ltpFR	18	8	-1	SLOPE	1328	3	-1	n/a	n/a	n/a	n/a	n/a
3477090	RECOG_RESP	n/a	LTP103	ltpFR	18	8	-1	SLOPE	1328	n/a	-1	n/a	n/a	n/a	n/a	n/a
3477519	RECOG_CONF	n/a	LTP103	ltpFR	18	8	-1	SLOPE	1328	3	-1	n/a	n/a	n/a	n/a	n/a
3478824	RECOG_LURE	n/a	LTP103	ltpFR	18	8	n/a	STALLION	1369	1	n/a	n/a	n/a	n/a	n/a	n/a
3479410	RECOG_RESP	n/a	LTP103	ltpFR	18	8	n/a	STALLION	1369	n/a	n/a	n/a	n/a	n/a	n/a	n/a
3480034	RECOG_CONF	n/a	LTP103	ltpFR	18	8	n/a	STALLION	1369	1	n/a	n/a	n/a	n/a	n/a	n/a
3481375	RECOG_TARGET	n/a	LTP103	ltpFR	18	8	0	BEE	112	3	0	n/a	n/a	n/a	n/a	n/a
3482034	RECOG_RESP	n/a	LTP103	ltpFR	18	8	0	BEE	112	n/a	0	n/a	n/a	n/a	n/a	n/a
3482407	RECOG_CONF	n/a	LTP103	ltpFR	18	8	0	BEE	112	3	0	n/a	n/a	n/a	n/a	n/a
3483832	RECOG_TARGET	n/a	LTP103	ltpFR	18	8	0	BILL	126	4	0	n/a	n/a	n/a	n/a	n/a
3484598	RECOG_RESP	n/a	LTP103	ltpFR	18	8	0	BILL	126	n/a	0	n/a	n/a	n/a	n/a	n/a
3484866	RECOG_CONF	n/a	LTP103	ltpFR	18	8	0	BILL	126	4	0	n/a	n/a	n/a	n/a	n/a
3486425	RECOG_TARGET	n/a	LTP103	ltpFR	18	8	0	BATH	98	5	0	n/a	n/a	n/a	n/a	n/a
3487043	RECOG_RESP	n/a	LTP103	ltpFR	18	8	0	BATH	98	n/a	0	n/a	n/a	n/a	n/a	n/a
3487393	RECOG_CONF	n/a	LTP103	ltpFR	18	8	0	BATH	98	5	0	n/a	n/a	n/a	n/a	n/a
3488716	RECOG_LURE	n/a	LTP103	ltpFR	18	8	n/a	INCENSE	735	3	n/a	n/a	n/a	n/a	n/a	n/a
3489562	RECOG_RESP	n/a	LTP103	ltpFR	18	8	n/a	INCENSE	735	n/a	n/a	n/a	n/a	n/a	n/a	n/a
3490041	RECOG_CONF	n/a	LTP103	ltpFR	18	8	n/a	INCENSE	735	3	n/a	n/a	n/a	n/a	n/a	n/a
3491383	RECOG_TARGET	n/a	LTP103	ltpFR	18	8	1	FROST	609	2	0	n/a	n/a	n/a	n/a	n/a
3491936	RECOG_RESP	n/a	LTP103	ltpFR	18	8	1	FROST	609	n/a	0	n/a	n/a	n/a	n/a	n/a
3492306	RECOG_CONF	n/a	LTP103	ltpFR	18	8	1	FROST	609	2	0	n/a	n/a	n/a	n/a	n/a
3493607	RECOG_TARGET	n/a	LTP103	ltpFR	18	8	1	REFRIGERATOR	1179	5	0	n/a	n/a	n/a	n/a	n/a
3494131	RECOG_RESP	n/a	LTP103	ltpFR	18	8	1	REFRIGERATOR	1179	n/a	0	n/a	n/a	n/a	n/a	n/a
3494453	RECOG_CONF	n/a	LTP103	ltpFR	18	8	1	REFRIGERATOR	1179	5	0	n/a	n/a	n/a	n/a	n/a
3495982	RECOG_TARGET	n/a	LTP103	ltpFR	18	8	0	KEYBOARD	774	2	0	n/a	n/a	n/a	n/a	n/a
3496790	RECOG_RESP	n/a	LTP103	ltpFR	18	8	0	KEYBOARD	774	n/a	0	n/a	n/a	n/a	n/a	n/a
3497354	RECOG_CONF	n/a	LTP103	ltpFR	18	8	0	KEYBOARD	774	2	0	n/a	n/a	n/a	n/a	n/a
3498757	RECOG_LURE	n/a	LTP103	ltpFR	18	8	n/a	MOON	914	2	n/a	n/a	n/a	n/a	n/a	n/a
3499579	RECOG_RESP	n/a	LTP103	ltpFR	18	8	n/a	MOON	914	n/a	n/a	n/a	n/a	n/a	n/a	n/a
3500459	RECOG_CONF	n/a	LTP103	ltpFR	18	8	n/a	MOON	914	2	n/a	n/a	n/a	n/a	n/a	n/a
3501782	RECOG_LURE	n/a	LTP103	ltpFR	18	8	n/a	AUNT	60	3	n/a	n/a	n/a	n/a	n/a	n/a
3502547	RECOG_RESP	n/a	LTP103	ltpFR	18	8	n/a	AUNT	60	n/a	n/a	n/a	n/a	n/a	n/a	n/a
3502983	RECOG_CONF	n/a	LTP103	ltpFR	18	8	n/a	AUNT	60	3	n/a	n/a	n/a	n/a	n/a	n/a
3504290	RECOG_LURE	n/a	LTP103	ltpFR	18	8	n/a	SAPPHIRE	1234	2	n/a	n/a	n/a	n/a	n/a	n/a
3505176	RECOG_RESP	n/a	LTP103	ltpFR	18	8	n/a	SAPPHIRE	1234	n/a	n/a	n/a	n/a	n/a	n/a	n/a
3505605	RECOG_CONF	n/a	LTP103	ltpFR	18	8	n/a	SAPPHIRE	1234	2	n/a	n/a	n/a	n/a	n/a	n/a
3507006	RECOG_TARGET	n/a	LTP103	ltpFR	18	8	-1	PROFESSOR	1131	3	-1	n/a	n/a	n/a	n/a	n/a
3507706	RECOG_RESP_VV	n/a	LTP103	ltpFR	18	8	-1	PROFESSOR	1131	n/a	-1	n/a	n/a	n/a	n/a	n/a
3508170	RECOG_RESP	n/a	LTP103	ltpFR	18	8	-1	PROFESSOR	1131	n/a	-1	n/a	n/a	n/a	n/a	n/a
3508858	RECOG_CONF	n/a	LTP103	ltpFR	18	8	-1	PROFESSOR	1131	3	-1	n/a	n/a	n/a	n/a	n/a
3510223	RECOG_TARGET	n/a	LTP103	ltpFR	18	8	1	LAGOON	795	2	1	n/a	n/a	n/a	n/a	n/a
3510898	RECOG_RESP	n/a	LTP103	ltpFR	18	8	1	LAGOON	795	n/a	1	n/a	n/a	n/a	n/a	n/a
3511332	RECOG_CONF	n/a	LTP103	ltpFR	18	8	1	LAGOON	795	2	1	n/a	n/a	n/a	n/a	n/a
3512781	RECOG_LURE	n/a	LTP103	ltpFR	18	8	n/a	OBOE	969	3	n/a	n/a	n/a	n/a	n/a	n/a
3513597	RECOG_RESP	n/a	LTP103	ltpFR	18	8	n/a	OBOE	969	n/a	n/a	n/a	n/a	n/a	n/a	n/a
3513942	RECOG_CONF	n/a	LTP103	ltpFR	18	8	n/a	OBOE	969	3	n/a	n/a	n/a	n/a	n/a	n/a
3515506	RECOG_TARGET	n/a	LTP103	ltpFR	18	8	1	PONY	1102	2	0	n/a	n/a	n/a	n/a	n/a
3516241	RECOG_RESP	n/a	LTP103	ltpFR	18	8	1	PONY	1102	n/a	0	n/a	n/a	n/a	n/a	n/a
3516660	RECOG_CONF	n/a	LTP103	ltpFR	18	8	1	PONY	1102	2	0	n/a	n/a	n/a	n/a	n/a
3518031	RECOG_LURE	n/a	LTP103	ltpFR	18	8	n/a	CATTLE	261	3	n/a	n/a	n/a	n/a	n/a	n/a
3518731	RECOG_RESP	n/a	LTP103	ltpFR	18	8	n/a	CATTLE	261	n/a	n/a	n/a	n/a	n/a	n/a	n/a
3519155	RECOG_CONF	n/a	LTP103	ltpFR	18	8	n/a	CATTLE	261	3	n/a	n/a	n/a	n/a	n/a	n/a
3521900	REC_START	n/a	LTP103	ltpFR	18	9	n/a	n/a	n/a	n/a	n/a	n/a	n/a	n/a	n/a	n/a
3521939	RECOG_TARGET	n/a	LTP103	ltpFR	18	9	-1	VETERAN	1561	2	-1	n/a	n/a	n/a	n/a	n/a
3522374	RECOG_RESP	n/a	LTP103	ltpFR	18	9	-1	VETERAN	1561	n/a	-1	n/a	n/a	n/a	n/a	n/a
3522803	RECOG_CONF	n/a	LTP103	ltpFR	18	9	-1	VETERAN	1561	2	-1	n/a	n/a	n/a	n/a	n/a
3524238	RECOG_TARGET	n/a	LTP103	ltpFR	18	9	0	CART	250	2	0	n/a	n/a	n/a	n/a	n/a
3524639	RECOG_RESP	n/a	LTP103	ltpFR	18	9	0	CART	250	n/a	0	n/a	n/a	n/a	n/a	n/a
3524993	RECOG_CONF	n/a	LTP103	ltpFR	18	9	0	CART	250	2	0	n/a	n/a	n/a	n/a	n/a
3526555	RECOG_TARGET	n/a	LTP103	ltpFR	18	9	1	COD	340	2	0	n/a	n/a	n/a	n/a	n/a
3526918	RECOG_RESP	n/a	LTP103	ltpFR	18	9	1	COD	340	n/a	0	n/a	n/a	n/a	n/a	n/a
3527477	RECOG_CONF	n/a	LTP103	ltpFR	18	9	1	COD	340	2	0	n/a	n/a	n/a	n/a	n/a
3529005	RECOG_TARGET	n/a	LTP103	ltpFR	18	9	0	BREAST	171	3	0	n/a	n/a	n/a	n/a	n/a
3529308	RECOG_RESP	n/a	LTP103	ltpFR	18	9	0	BREAST	171	n/a	0	n/a	n/a	n/a	n/a	n/a
3529797	RECOG_CONF	n/a	LTP103	ltpFR	18	9	0	BREAST	171	3	0	n/a	n/a	n/a	n/a	n/a
3531180	RECOG_TARGET	n/a	LTP103	ltpFR	18	9	0	PASTRY	1022	4	0	n/a	n/a	n/a	n/a	n/a
3531528	RECOG_RESP	n/a	LTP103	ltpFR	18	9	0	PASTRY	1022	n/a	0	n/a	n/a	n/a	n/a	n/a
3531982	RECOG_CONF	n/a	LTP103	ltpFR	18	9	0	PASTRY	1022	4	0	n/a	n/a	n/a	n/a	n/a
3533338	RECOG_TARGET	n/a	LTP103	ltpFR	18	9	-1	CERAMICS	271	5	-1	n/a	n/a	n/a	n/a	n/a
3533688	RECOG_RESP	n/a	LTP103	ltpFR	18	9	-1	CERAMICS	271	n/a	-1	n/a	n/a	n/a	n/a	n/a
3534107	RECOG_CONF	n/a	LTP103	ltpFR	18	9	-1	CERAMICS	271	5	-1	n/a	n/a	n/a	n/a	n/a
3535463	RECOG_TARGET	n/a	LTP103	ltpFR	18	9	1	TANK	1432	3	0	n/a	n/a	n/a	n/a	n/a
3536003	RECOG_RESP	n/a	LTP103	ltpFR	18	9	1	TANK	1432	n/a	0	n/a	n/a	n/a	n/a	n/a
3536571	RECOG_CONF	n/a	LTP103	ltpFR	18	9	1	TANK	1432	3	0	n/a	n/a	n/a	n/a	n/a
3537904	RECOG_TARGET	n/a	LTP103	ltpFR	18	9	-1	CHEESE	289	2	-1	n/a	n/a	n/a	n/a	n/a
3538717	RECOG_RESP	n/a	LTP103	ltpFR	18	9	-1	CHEESE	289	n/a	-1	n/a	n/a	n/a	n/a	n/a
3539126	RECOG_CONF	n/a	LTP103	ltpFR	18	9	-1	CHEESE	289	2	-1	n/a	n/a	n/a	n/a	n/a
3540421	RECOG_TARGET	n/a	LTP103	ltpFR	18	9	1	STAGE	1366	1	0	n/a	n/a	n/a	n/a	n/a
3540811	RECOG_RESP	n/a	LTP103	ltpFR	18	9	1	STAGE	1366	n/a	0	n/a	n/a	n/a	n/a	n/a
3541275	RECOG_CONF	n/a	LTP103	ltpFR	18	9	1	STAGE	1366	1	0	n/a	n/a	n/a	n/a	n/a
3542612	RECOG_TARGET	n/a	LTP103	ltpFR	18	9	0	FLOUR	583	2	0	n/a	n/a	n/a	n/a	n/a
3542807	RECOG_RESP	n/a	LTP103	ltpFR	18	9	0	FLOUR	583	n/a	0	n/a	n/a	n/a	n/a	n/a
3543306	RECOG_CONF	n/a	LTP103	ltpFR	18	9	0	FLOUR	583	2	0	n/a	n/a	n/a	n/a	n/a
3544645	RECOG_TARGET	n/a	LTP103	ltpFR	18	9	1	BONE	148	3	0	n/a	n/a	n/a	n/a	n/a
3544952	RECOG_RESP	n/a	LTP103	ltpFR	18	9	1	BONE	148	n/a	0	n/a	n/a	n/a	n/a	n/a
3545481	RECOG_CONF	n/a	LTP103	ltpFR	18	9	1	BONE	148	3	0	n/a	n/a	n/a	n/a	n/a
3546778	RECOG_TARGET	n/a	LTP103	ltpFR	18	9	-1	DINOSAUR	469	4	-1	n/a	n/a	n/a	n/a	n/a
3547227	RECOG_RESP	n/a	LTP103	ltpFR	18	9	-1	DINOSAUR	469	n/a	-1	n/a	n/a	n/a	n/a	n/a
3547660	RECOG_CONF	n/a	LTP103	ltpFR	18	9	-1	DINOSAUR	469	4	-1	n/a	n/a	n/a	n/a	n/a
3549028	RECOG_TARGET	n/a	LTP103	ltpFR	18	9	1	BOYFRIEND	162	5	1	n/a	n/a	n/a	n/a	n/a
3549657	RECOG_RESP	n/a	LTP103	ltpFR	18	9	1	BOYFRIEND	162	n/a	1	n/a	n/a	n/a	n/a	n/a
3550080	RECOG_CONF	n/a	LTP103	ltpFR	18	9	1	BOYFRIEND	162	5	1	n/a	n/a	n/a	n/a	n/a
3551403	RECOG_TARGET	n/a	LTP103	ltpFR	18	9	-1	POLYESTER	1100	2	-1	n/a	n/a	n/a	n/a	n/a
3552096	RECOG_RESP	n/a	LTP103	ltpFR	18	9	-1	POLYESTER	1100	n/a	-1	n/a	n/a	n/a	n/a	n/a
3552525	RECOG_CONF	n/a	LTP103	ltpFR	18	9	-1	POLYESTER	1100	2	-1	n/a	n/a	n/a	n/a	n/a
3553961	RECOG_TARGET	n/a	LTP103	ltpFR	18	9	-1	GRAVE	658	3	-1	n/a	n/a	n/a	n/a	n/a
3554506	RECOG_RESP	n/a	LTP103	ltpFR	18	9	-1	GRAVE	658	n/a	-1	n/a	n/a	n/a	n/a	n/a
3554930	RECOG_CONF	n/a	LTP103	ltpFR	18	9	-1	GRAVE	658	3	-1	n/a	n/a	n/a	n/a	n/a
3556261	RECOG_TARGET	n/a	LTP103	ltpFR	18	9	-1	BIKE	125	2	-1	n/a	n/a	n/a	n/a	n/a
3556756	RECOG_RESP	n/a	LTP103	ltpFR	18	9	-1	BIKE	125	n/a	-1	n/a	n/a	n/a	n/a	n/a
3557135	RECOG_CONF	n/a	LTP103	ltpFR	18	9	-1	BIKE	125	2	-1	n/a	n/a	n/a	n/a	n/a
3558511	RECOG_TARGET	n/a	LTP103	ltpFR	18	9	1	TEENAGER	1444	4	1	n/a	n/a	n/a	n/a	n/a
3559025	RECOG_RESP	n/a	LTP103	ltpFR	18	9	1	TEENAGER	1444	n/a	1	n/a	n/a	n/a	n/a	n/a
3559469	RECOG_CONF	n/a	LTP103	ltpFR	18	9	1	TEENAGER	1444	4	1	n/a	n/a	n/a	n/a	n/a
3560869	RECOG_TARGET	n/a	LTP103	ltpFR	18	9	0	CLARINET	317	5	0	n/a	n/a	n/a	n/a	n/a
3561405	RECOG_RESP	n/a	LTP103	ltpFR	18	9	0	CLARINET	317	n/a	0	n/a	n/a	n/a	n/a	n/a
3561924	RECOG_CONF	n/a	LTP103	ltpFR	18	9	0	CLARINET	317	5	0	n/a	n/a	n/a	n/a	n/a
3563310	RECOG_TARGET	n/a	LTP103	ltpFR	18	9	0	NUCLEUS	961	2	0	n/a	n/a	n/a	n/a	n/a
3564004	RECOG_RESP	n/a	LTP103	ltpFR	18	9	0	NUCLEUS	961	n/a	0	n/a	n/a	n/a	n/a	n/a
3564448	RECOG_CONF	n/a	LTP103	ltpFR	18	9	0	NUCLEUS	961	2	0	n/a	n/a	n/a	n/a	n/a
3565809	RECOG_TARGET	n/a	LTP103	ltpFR	18	9	0	PEARL	1034	3	0	n/a	n/a	n/a	n/a	n/a
3566409	RECOG_RESP	n/a	LTP103	ltpFR	18	9	0	PEARL	1034	n/a	0	n/a	n/a	n/a	n/a	n/a
3566893	RECOG_CONF	n/a	LTP103	ltpFR	18	9	0	PEARL	1034	3	0	n/a	n/a	n/a	n/a	n/a
3581365	REC_START	n/a	LTP103	ltpFR	18	10	n/a	n/a	n/a	n/a	n/a	n/a	n/a	n/a	n/a	n/a
3581401	RECOG_TARGET	n/a	LTP103	ltpFR	18	10	1	KEEPER	769	2	0	n/a	n/a	n/a	n/a	n/a
3581978	RECOG_RESP	n/a	LTP103	ltpFR	18	10	1	KEEPER	769	n/a	0	n/a	n/a	n/a	n/a	n/a
3582387	RECOG_CONF	n/a	LTP103	ltpFR	18	10	1	KEEPER	769	2	0	n/a	n/a	n/a	n/a	n/a
3583824	RECOG_TARGET	n/a	LTP103	ltpFR	18	10	-1	COMB	351	3	-1	n/a	n/a	n/a	n/a	n/a
3584338	RECOG_RESP	n/a	LTP103	ltpFR	18	10	-1	COMB	351	n/a	-1	n/a	n/a	n/a	n/a	n/a
3584692	RECOG_CONF	n/a	LTP103	ltpFR	18	10	-1	COMB	351	3	-1	n/a	n/a	n/a	n/a	n/a
3586242	RECOG_TARGET	n/a	LTP103	ltpFR	18	10	1	ELF	525	4	1	n/a	n/a	n/a	n/a	n/a
3587037	RECOG_RESP	n/a	LTP103	ltpFR	18	10	1	ELF	525	n/a	1	n/a	n/a	n/a	n/a	n/a
3587385	RECOG_CONF	n/a	LTP103	ltpFR	18	10	1	ELF	525	4	1	n/a	n/a	n/a	n/a	n/a
3588867	RECOG_TARGET	n/a	LTP103	ltpFR	18	10	-1	RADIATOR	1156	2	-1	n/a	n/a	n/a	n/a	n/a
3589307	RECOG_RESP	n/a	LTP103	ltpFR	18	10	-1	RADIATOR	1156	n/a	-1	n/a	n/a	n/a	n/a	n/a
3589751	RECOG_CONF	n/a	LTP103	ltpFR	18	10	-1	RADIATOR	1156	2	-1	n/a	n/a	n/a	n/a	n/a
3591150	RECOG_TARGET	n/a	LTP103	ltpFR	18	10	0	STRANGER	1389	3	1	n/a	n/a	n/a	n/a	n/a
3591532	RECOG_RESP	n/a	LTP103	ltpFR	18	10	0	STRANGER	1389	n/a	1	n/a	n/a	n/a	n/a	n/a
3591936	RECOG_CONF	n/a	LTP103	ltpFR	18	10	0	STRANGER	1389	3	1	n/a	n/a	n/a	n/a	n/a
3593466	RECOG_TARGET	n/a	LTP103	ltpFR	18	10	1	DIGGER	464	4	1	n/a	n/a	n/a	n/a	n/a
3593762	RECOG_RESP	n/a	LTP103	ltpFR	18	10	1	DIGGER	464	n/a	1	n/a	n/a	n/a	n/a	n/a
3594251	RECOG_CONF	n/a	LTP103	ltpFR	18	10	1	DIGGER	464	4	1	n/a	n/a	n/a	n/a	n/a
3595500	RECOG_TARGET	n/a	LTP103	ltpFR	18	10	-1	PIMPLE	1071	5	-1	n/a	n/a	n/a	n/a	n/a
3595982	RECOG_RESP	n/a	LTP103	ltpFR	18	10	-1	PIMPLE	1071	n/a	-1	n/a	n/a	n/a	n/a	n/a
3596396	RECOG_CONF	n/a	LTP103	ltpFR	18	10	-1	PIMPLE	1071	5	-1	n/a	n/a	n/a	n/a	n/a
3597683	RECOG_TARGET	n/a	LTP103	ltpFR	18	10	-1	MINK	897	4	-1	n/a	n/a	n/a	n/a	n/a
3598441	RECOG_RESP	n/a	LTP103	ltpFR	18	10	-1	MINK	897	n/a	-1	n/a	n/a	n/a	n/a	n/a
3599050	RECOG_CONF	n/a	LTP103	ltpFR	18	10	-1	MINK	897	4	-1	n/a	n/a	n/a	n/a	n/a
3600374	RECOG_TARGET	n/a	LTP103	ltpFR	18	10	0	THORN	1459	5	0	n/a	n/a	n/a	n/a	n/a
3600985	RECOG_RESP	n/a	LTP103	ltpFR	18	10	0	THORN	1459	n/a	0	n/a	n/a	n/a	n/a	n/a
3601419	RECOG_CONF	n/a	LTP103	ltpFR	18	10	0	THORN	1459	5	0	n/a	n/a	n/a	n/a	n/a
3602949	RECOG_TARGET	n/a	LTP103	ltpFR	18	10	-1	HAMPER	682	2	-1	n/a	n/a	n/a	n/a	n/a
3603569	RECOG_RESP	n/a	LTP103	ltpFR	18	10	-1	HAMPER	682	n/a	-1	n/a	n/a	n/a	n/a	n/a
3603988	RECOG_CONF	n/a	LTP103	ltpFR	18	10	-1	HAMPER	682	2	-1	n/a	n/a	n/a	n/a	n/a
3605524	RECOG_TARGET	n/a	LTP103	ltpFR	18	10	1	CRAB	397	3	1	n/a	n/a	n/a	n/a	n/a
3606168	RECOG_RESP	n/a	LTP103	ltpFR	18	10	1	CRAB	397	n/a	1	n/a	n/a	n/a	n/a	n/a
3606722	RECOG_CONF	n/a	LTP103	ltpFR	18	10	1	CRAB	397	3	1	n/a	n/a	n/a	n/a	n/a
3608149	RECOG_TARGET	n/a	LTP103	ltpFR	18	10	1	DUNE	506	2	0	n/a	n/a	n/a	n/a	n/a
3608533	RECOG_RESP	n/a	LTP103	ltpFR	18	10	1	DUNE	506	n/a	0	n/a	n/a	n/a	n/a	n/a
3608967	RECOG_CONF	n/a	LTP103	ltpFR	18	10	1	DUNE	506	2	0	n/a	n/a	n/a	n/a	n/a
3610490	RECOG_LURE	n/a	LTP103	ltpFR	18	10	n/a	SAGE	1222	3	n/a	n/a	n/a	n/a	n/a	n/a
3610893	RECOG_RESP	n/a	LTP103	ltpFR	18	10	n/a	SAGE	1222	n/a	n/a	n/a	n/a	n/a	n/a	n/a
3611382	RECOG_CONF	n/a	LTP103	ltpFR	18	10	n/a	SAGE	1222	3	n/a	n/a	n/a	n/a	n/a	n/a
3612839	RECOG_TARGET	n/a	LTP103	ltpFR	18	10	1	CAR	241	1	0	n/a	n/a	n/a	n/a	n/a
3613542	RECOG_RESP	n/a	LTP103	ltpFR	18	10	1	CAR	241	n/a	0	n/a	n/a	n/a	n/a	n/a
3614000	RECOG_CONF	n/a	LTP103	ltpFR	18	10	1	CAR	241	1	0	n/a	n/a	n/a	n/a	n/a
3615515	RECOG_TARGET	n/a	LTP103	ltpFR	18	10	0	PATH	1023	3	0	n/a	n/a	n/a	n/a	n/a
3616031	RECOG_RESP	n/a	LTP103	ltpFR	18	10	0	PATH	1023	n/a	0	n/a	n/a	n/a	n/a	n/a
3616480	RECOG_CONF	n/a	LTP103	ltpFR	18	10	0	PATH	1023	3	0	n/a	n/a	n/a	n/a	n/a
3617923	RECOG_TARGET	n/a	LTP103	ltpFR	18	10	0	CASH	252	4	0	n/a	n/a	n/a	n/a	n/a
3618560	RECOG_RESP	n/a	LTP103	ltpFR	18	10	0	CASH	252	n/a	0	n/a	n/a	n/a	n/a	n/a
3618951	RECOG_CONF	n/a	LTP103	ltpFR	18	10	0	CASH	252	4	0	n/a	n/a	n/a	n/a	n/a
3620489	RECOG_LURE	n/a	LTP103	ltpFR	18	10	n/a	FLEET	578	2	n/a	n/a	n/a	n/a	n/a	n/a
3620995	RECOG_RESP	n/a	LTP103	ltpFR	18	10	n/a	FLEET	578	n/a	n/a	n/a	n/a	n/a	n/a	n/a
3621469	RECOG_CONF	n/a	LTP103	ltpFR	18	10	n/a	FLEET	578	2	n/a	n/a	n/a	n/a	n/a	n/a
3622914	RECOG_TARGET	n/a	LTP103	ltpFR	18	10	1	SNORKEL	1336	3	0	n/a	n/a	n/a	n/a	n/a
3623449	RECOG_RESP	n/a	LTP103	ltpFR	18	10	1	SNORKEL	1336	n/a	0	n/a	n/a	n/a	n/a	n/a
3623863	RECOG_CONF	n/a	LTP103	ltpFR	18	10	1	SNORKEL	1336	3	0	n/a	n/a	n/a	n/a	n/a
3625289	RECOG_TARGET	n/a	LTP103	ltpFR	18	10	-1	NAPKIN	937	2	-1	n/a	n/a	n/a	n/a	n/a
3625734	RECOG_RESP	n/a	LTP103	ltpFR	18	10	-1	NAPKIN	937	n/a	-1	n/a	n/a	n/a	n/a	n/a
3626208	RECOG_CONF	n/a	LTP103	ltpFR	18	10	-1	NAPKIN	937	2	-1	n/a	n/a	n/a	n/a	n/a
3627605	RECOG_TARGET	n/a	LTP103	ltpFR	18	10	1	VAN	1548	3	0	n/a	n/a	n/a	n/a	n/a
3628054	RECOG_RESP	n/a	LTP103	ltpFR	18	10	1	VAN	1548	n/a	0	n/a	n/a	n/a	n/a	n/a
3628403	RECOG_CONF	n/a	LTP103	ltpFR	18	10	1	VAN	1548	3	0	n/a	n/a	n/a	n/a	n/a
3631400	REC_START	n/a	LTP103	ltpFR	18	11	n/a	n/a	n/a	n/a	n/a	n/a	n/a	n/a	n/a	n/a
3631438	RECOG_TARGET	n/a	LTP103	ltpFR	18	11	1	WRIST	1626	4	0	n/a	n/a	n/a	n/a	n/a
3631964	RECOG_RESP	n/a	LTP103	ltpFR	18	11	1	WRIST	1626	n/a	0	n/a	n/a	n/a	n/a	n/a
3632702	RECOG_CONF	n/a	LTP103	ltpFR	18	11	1	WRIST	1626	4	0	n/a	n/a	n/a	n/a	n/a
3633972	RECOG_TARGET	n/a	LTP103	ltpFR	18	11	1	SPHINX	1349	5	0	n/a	n/a	n/a	n/a	n/a
3634543	RECOG_RESP	n/a	LTP103	ltpFR	18	11	1	SPHINX	1349	n/a	0	n/a	n/a	n/a	n/a	n/a
3634927	RECOG_CONF	n/a	LTP103	ltpFR	18	11	1	SPHINX	1349	5	0	n/a	n/a	n/a	n/a	n/a
3636246	RECOG_TARGET	n/a	LTP103	ltpFR	18	11	-1	MILDEW	893	3	-1	n/a	n/a	n/a	n/a	n/a
3636618	RECOG_RESP	n/a	LTP103	ltpFR	18	11	-1	MILDEW	893	n/a	-1	n/a	n/a	n/a	n/a	n/a
3637102	RECOG_CONF	n/a	LTP103	ltpFR	18	11	-1	MILDEW	893	3	-1	n/a	n/a	n/a	n/a	n/a
3638538	RECOG_TARGET	n/a	LTP103	ltpFR	18	11	0	TOWER	1490	2	0	n/a	n/a	n/a	n/a	n/a
3638858	RECOG_RESP	n/a	LTP103	ltpFR	18	11	0	TOWER	1490	n/a	0	n/a	n/a	n/a	n/a	n/a
3639281	RECOG_CONF	n/a	LTP103	ltpFR	18	11	0	TOWER	1490	2	0	n/a	n/a	n/a	n/a	n/a
3640763	RECOG_TARGET	n/a	LTP103	ltpFR	18	11	1	COAL	332	2	1	n/a	n/a	n/a	n/a	n/a
3641247	RECOG_RESP	n/a	LTP103	ltpFR	18	11	1	COAL	332	n/a	1	n/a	n/a	n/a	n/a	n/a
3641661	RECOG_CONF	n/a	LTP103	ltpFR	18	11	1	COAL	332	2	1	n/a	n/a	n/a	n/a	n/a
3643346	RECOG_LURE	n/a	LTP103	ltpFR	18	11	n/a	BAND	78	3	n/a	n/a	n/a	n/a	n/a	n/a
3643906	RECOG_RESP	n/a	LTP103	ltpFR	18	11	n/a	BAND	78	n/a	n/a	n/a	n/a	n/a	n/a	n/a
3644345	RECOG_CONF	n/a	LTP103	ltpFR	18	11	n/a	BAND	78	3	n/a	n/a	n/a	n/a	n/a	n/a
3645854	RECOG_TARGET	n/a	LTP103	ltpFR	18	11	1	HEEL	700	1	0	n/a	n/a	n/a	n/a	n/a
3646286	RECOG_RESP	n/a	LTP103	ltpFR	18	11	1	HEEL	700	n/a	0	n/a	n/a	n/a	n/a	n/a
3646780	RECOG_CONF	n/a	LTP103	ltpFR	18	11	1	HEEL	700	1	0	n/a	n/a	n/a	n/a	n/a
3648337	RECOG_LURE	n/a	LTP103	ltpFR	18	11	n/a	SCHOOL	1248	3	n/a	n/a	n/a	n/a	n/a	n/a
3649179	RECOG_RESP	n/a	LTP103	ltpFR	18	11	n/a	SCHOOL	1248	n/a	n/a	n/a	n/a	n/a	n/a	n/a
3649753	RECOG_CONF	n/a	LTP103	ltpFR	18	11	n/a	SCHOOL	1248	3	n/a	n/a	n/a	n/a	n/a	n/a
3650987	RECOG_TARGET	n/a	LTP103	ltpFR	18	11	-1	SHED	1277	2	-1	n/a	n/a	n/a	n/a	n/a
3651320	RECOG_RESP	n/a	LTP103	ltpFR	18	11	-1	SHED	1277	n/a	-1	n/a	n/a	n/a	n/a	n/a
3651798	RECOG_CONF	n/a	LTP103	ltpFR	18	11	-1	SHED	1277	2	-1	n/a	n/a	n/a	n/a	n/a
3653153	RECOG_TARGET	n/a	LTP103	ltpFR	18	11	-1	SPATULA	1348	2	-1	n/a	n/a	n/a	n/a	n/a
3653579	RECOG_RESP	n/a	LTP103	ltpFR	18	11	-1	SPATULA	1348	n/a	-1	n/a	n/a	n/a	n/a	n/a
3654133	RECOG_CONF	n/a	LTP103	ltpFR	18	11	-1	SPATULA	1348	2	-1	n/a	n/a	n/a	n/a	n/a
3655537	RECOG_TARGET	n/a	LTP103	ltpFR	18	11	1	BAY	102	2	0	n/a	n/a	n/a	n/a	n/a
3655854	RECOG_RESP	n/a	LTP103	ltpFR	18	11	1	BAY	102	n/a	0	n/a	n/a	n/a	n/a	n/a
3656338	RECOG_CONF	n/a	LTP103	ltpFR	18	11	1	BAY	102	2	0	n/a	n/a	n/a	n/a	n/a
3657761	RECOG_LURE	n/a	LTP103	ltpFR	18	11	n/a	STY	1397	2	n/a	n/a	n/a	n/a	n/a	n/a
3658164	RECOG_RESP	n/a	LTP103	ltpFR	18	11	n/a	STY	1397	n/a	n/a	n/a	n/a	n/a	n/a	n/a
3658633	RECOG_CONF	n/a	LTP103	ltpFR	18	11	n/a	STY	1397	2	n/a	n/a	n/a	n/a	n/a	n/a
3660094	RECOG_TARGET	n/a	LTP103	ltpFR	18	11	1	CREATURE	403	2	0	n/a	n/a	n/a	n/a	n/a
3660524	RECOG_RESP	n/a	LTP103	ltpFR	18	11	1	CREATURE	403	n/a	0	n/a	n/a	n/a	n/a	n/a
3661008	RECOG_CONF	n/a	LTP103	ltpFR	18	11	1	CREATURE	403	2	0	n/a	n/a	n/a	n/a	n/a
3662544	RECOG_TARGET	n/a	LTP103	ltpFR	18	11	1	CANDY	230	3	0	n/a	n/a	n/a	n/a	n/a
3663188	RECOG_RESP	n/a	LTP103	ltpFR	18	11	1	CANDY	230	n/a	0	n/a	n/a	n/a	n/a	n/a
3663771	RECOG_CONF	n/a	LTP103	ltpFR	18	11	1	CANDY	230	3	0	n/a	n/a	n/a	n/a	n/a
3665119	RECOG_LURE	n/a	LTP103	ltpFR	18	11	n/a	NUN	962	2	n/a	n/a	n/a	n/a	n/a	n/a
3665622	RECOG_RESP	n/a	LTP103	ltpFR	18	11	n/a	NUN	962	n/a	n/a	n/a	n/a	n/a	n/a	n/a
3666216	RECOG_CONF	n/a	LTP103	ltpFR	18	11	n/a	NUN	962	2	n/a	n/a	n/a	n/a	n/a	n/a
3667536	RECOG_TARGET	n/a	LTP103	ltpFR	18	11	0	MEAT	883	1	0	n/a	n/a	n/a	n/a	n/a
3668211	RECOG_RESP	n/a	LTP103	ltpFR	18	11	0	MEAT	883	n/a	0	n/a	n/a	n/a	n/a	n/a
3668830	RECOG_CONF	n/a	LTP103	ltpFR	18	11	0	MEAT	883	1	0	n/a	n/a	n/a	n/a	n/a
3670319	RECOG_TARGET	n/a	LTP103	ltpFR	18	11	1	CHEMICAL	291	2	0	n/a	n/a	n/a	n/a	n/a
3670760	RECOG_RESP	n/a	LTP103	ltpFR	18	11	1	CHEMICAL	291	n/a	0	n/a	n/a	n/a	n/a	n/a
3671374	RECOG_CONF	n/a	LTP103	ltpFR	18	11	1	CHEMICAL	291	2	0	n/a	n/a	n/a	n/a	n/a
3672660	RECOG_TARGET	n/a	LTP103	ltpFR	18	11	-1	MOUSE	925	2	-1	n/a	n/a	n/a	n/a	n/a
3673020	RECOG_RESP	n/a	LTP103	ltpFR	18	11	-1	MOUSE	925	n/a	-1	n/a	n/a	n/a	n/a	n/a
3673888	RECOG_CONF	n/a	LTP103	ltpFR	18	11	-1	MOUSE	925	2	-1	n/a	n/a	n/a	n/a	n/a
3675418	RECOG_TARGET	n/a	LTP103	ltpFR	18	11	1	MAN	862	3	1	n/a	n/a	n/a	n/a	n/a
3676248	RECOG_RESP	n/a	LTP103	ltpFR	18	11	1	MAN	862	n/a	1	n/a	n/a	n/a	n/a	n/a
3676732	RECOG_CONF	n/a	LTP103	ltpFR	18	11	1	MAN	862	3	1	n/a	n/a	n/a	n/a	n/a
3678135	RECOG_TARGET	n/a	LTP103	ltpFR	18	11	1	ZEBRA	1635	4	1	n/a	n/a	n/a	n/a	n/a
3678672	RECOG_RESP	n/a	LTP103	ltpFR	18	11	1	ZEBRA	1635	n/a	1	n/a	n/a	n/a	n/a	n/a
3679166	RECOG_CONF	n/a	LTP103	ltpFR	18	11	1	ZEBRA	1635	4	1	n/a	n/a	n/a	n/a	n/a
3686477	REC_START	n/a	LTP103	ltpFR	18	12	n/a	n/a	n/a	n/a	n/a	n/a	n/a	n/a	n/a	n/a
