mstime	trial_type	stim_file	subject	experiment	session	trial	item_name	item_num	list	answer	test_x	test_y	test_z
0	SESS_START	n/a	LTP299	ltpFR2	19	n/a	n/a	n/a	n/a	n/a	0	0	0
11962	START	n/a	LTP299	ltpFR2	19	n/a	n/a	n/a	-1	n/a	n/a	n/a	n/a
11993	PROB	n/a	LTP299	ltpFR2	19	n/a	n/a	n/a	-1	11	5	4	2
13763	PROB	n/a	LTP299	ltpFR2	19	n/a	n/a	n/a	-1	12	6	4	2
14996	PROB	n/a	LTP299	ltpFR2	19	n/a	n/a	n/a	-1	6	3	2	1
16297	PROB	n/a	LTP299	ltpFR2	19	n/a	n/a	n/a	-1	8	2	3	4
18299	PROB	n/a	LTP299	ltpFR2	19	n/a	n/a	n/a	-1	12	1	9	2
19684	PROB	n/a	LTP299	ltpFR2	19	n/a	n/a	n/a	-1	10	5	2	3
21101	PROB	n/a	LTP299	ltpFR2	19	n/a	n/a	n/a	-1	12	7	2	3
22767	STOP	n/a	LTP299	ltpFR2	19	n/a	n/a	n/a	-1	n/a	n/a	n/a	n/a
54080	DISTRACTOR	n/a	LTP299	ltpFR2	19	1	n/a	n/a	n/a	n/a	0	0	0
54080	START	n/a	LTP299	ltpFR2	19	n/a	n/a	n/a	1	n/a	n/a	n/a	n/a
54097	PROB	n/a	LTP299	ltpFR2	19	n/a	n/a	n/a	1	15	5	9	1
55264	PROB	n/a	LTP299	ltpFR2	19	n/a	n/a	n/a	1	9	5	2	2
57349	PROB	n/a	LTP299	ltpFR2	19	n/a	n/a	n/a	1	23	7	8	7
60352	PROB	n/a	LTP299	ltpFR2	19	n/a	n/a	n/a	1	25	7	9	9
62221	PROB	n/a	LTP299	ltpFR2	19	n/a	n/a	n/a	1	16	3	9	4
64473	PROB	n/a	LTP299	ltpFR2	19	n/a	n/a	n/a	1	14	5	4	5
65724	PROB	n/a	LTP299	ltpFR2	19	n/a	n/a	n/a	1	18	4	7	7
67609	PROB	n/a	LTP299	ltpFR2	19	n/a	n/a	n/a	1	1	8	3	1
69443	PROB	n/a	LTP299	ltpFR2	19	n/a	n/a	n/a	1	15	1	6	8
71295	PROB	n/a	LTP299	ltpFR2	19	n/a	n/a	n/a	1	12	2	3	7
73097	PROB	n/a	LTP299	ltpFR2	19	n/a	n/a	n/a	1	14	1	7	6
74681	PROB	n/a	LTP299	ltpFR2	19	n/a	n/a	n/a	1	15	9	3	3
77624	STOP	n/a	LTP299	ltpFR2	19	n/a	n/a	n/a	1	n/a	n/a	n/a	n/a
79052	WORD	wordpools/wasnorm_wordpool_576.txt	LTP299	ltpFR2	19	1	CREVICE	405	n/a	n/a	0	0	0
81704	WORD	wordpools/wasnorm_wordpool_576.txt	LTP299	ltpFR2	19	1	INMATE	738	n/a	n/a	0	0	0
84173	WORD	wordpools/wasnorm_wordpool_576.txt	LTP299	ltpFR2	19	1	PICTURE	1061	n/a	n/a	0	0	0
86959	WORD	wordpools/wasnorm_wordpool_576.txt	LTP299	ltpFR2	19	1	BELLY	119	n/a	n/a	0	0	0
89746	WORD	wordpools/wasnorm_wordpool_576.txt	LTP299	ltpFR2	19	1	BLADE	134	n/a	n/a	0	0	0
92547	WORD	wordpools/wasnorm_wordpool_576.txt	LTP299	ltpFR2	19	1	CRUTCH	417	n/a	n/a	0	0	0
95233	WORD	wordpools/wasnorm_wordpool_576.txt	LTP299	ltpFR2	19	1	MARINE	869	n/a	n/a	0	0	0
97736	WORD	wordpools/wasnorm_wordpool_576.txt	LTP299	ltpFR2	19	1	PADDLE	1000	n/a	n/a	0	0	0
100187	WORD	wordpools/wasnorm_wordpool_576.txt	LTP299	ltpFR2	19	1	CHAMPAGNE	278	n/a	n/a	0	0	0
102857	WORD	wordpools/wasnorm_wordpool_576.txt	LTP299	ltpFR2	19	1	JELLO	754	n/a	n/a	0	0	0
105475	WORD	wordpools/wasnorm_wordpool_576.txt	LTP299	ltpFR2	19	1	CROWN	415	n/a	n/a	0	0	0
108060	WORD	wordpools/wasnorm_wordpool_576.txt	LTP299	ltpFR2	19	1	THREAD	1460	n/a	n/a	0	0	0
110713	WORD	wordpools/wasnorm_wordpool_576.txt	LTP299	ltpFR2	19	1	YARN	1631	n/a	n/a	0	0	0
113315	WORD	wordpools/wasnorm_wordpool_576.txt	LTP299	ltpFR2	19	1	PARROT	1015	n/a	n/a	0	0	0
115902	WORD	wordpools/wasnorm_wordpool_576.txt	LTP299	ltpFR2	19	1	CHILD	299	n/a	n/a	0	0	0
118603	WORD	wordpools/wasnorm_wordpool_576.txt	LTP299	ltpFR2	19	1	CRATER	400	n/a	n/a	0	0	0
121405	WORD	wordpools/wasnorm_wordpool_576.txt	LTP299	ltpFR2	19	1	CLOCK	325	n/a	n/a	0	0	0
124058	WORD	wordpools/wasnorm_wordpool_576.txt	LTP299	ltpFR2	19	1	TREAT	1501	n/a	n/a	0	0	0
126828	WORD	wordpools/wasnorm_wordpool_576.txt	LTP299	ltpFR2	19	1	VICTIM	1562	n/a	n/a	0	0	0
129529	WORD	wordpools/wasnorm_wordpool_576.txt	LTP299	ltpFR2	19	1	ROBBER	1197	n/a	n/a	0	0	0
132298	WORD	wordpools/wasnorm_wordpool_576.txt	LTP299	ltpFR2	19	1	SUSPECT	1415	n/a	n/a	0	0	0
134984	WORD	wordpools/wasnorm_wordpool_576.txt	LTP299	ltpFR2	19	1	PLAID	1080	n/a	n/a	0	0	0
137553	WORD	wordpools/wasnorm_wordpool_576.txt	LTP299	ltpFR2	19	1	STALLION	1369	n/a	n/a	0	0	0
140188	WORD	wordpools/wasnorm_wordpool_576.txt	LTP299	ltpFR2	19	1	AUTHOR	61	n/a	n/a	0	0	0
141808	START	n/a	LTP299	ltpFR2	19	n/a	n/a	n/a	2	n/a	n/a	n/a	n/a
142879	DISTRACTOR	n/a	LTP299	ltpFR2	19	1	n/a	n/a	n/a	n/a	0	0	0
142892	PROB	n/a	LTP299	ltpFR2	19	n/a	n/a	n/a	2	20	6	5	9
145426	PROB	n/a	LTP299	ltpFR2	19	n/a	n/a	n/a	2	18	4	7	7
146795	PROB	n/a	LTP299	ltpFR2	19	n/a	n/a	n/a	2	20	6	8	6
149046	PROB	n/a	LTP299	ltpFR2	19	n/a	n/a	n/a	2	12	7	2	3
150614	PROB	n/a	LTP299	ltpFR2	19	n/a	n/a	n/a	2	9	1	5	2
152499	PROB	n/a	LTP299	ltpFR2	19	n/a	n/a	n/a	2	16	9	2	5
154968	PROB	n/a	LTP299	ltpFR2	19	n/a	n/a	n/a	2	15	3	7	5
156186	PROB	n/a	LTP299	ltpFR2	19	n/a	n/a	n/a	2	22	9	5	8
159055	PROB	n/a	LTP299	ltpFR2	19	n/a	n/a	n/a	2	12	3	6	3
160907	PROB	n/a	LTP299	ltpFR2	19	n/a	n/a	n/a	2	14	1	4	9
162474	PROB	n/a	LTP299	ltpFR2	19	n/a	n/a	n/a	2	21	5	8	8
164093	PROB	n/a	LTP299	ltpFR2	19	n/a	n/a	n/a	2	7	1	1	5
165324	STOP	n/a	LTP299	ltpFR2	19	n/a	n/a	n/a	2	n/a	n/a	n/a	n/a
167781	REC_START	n/a	LTP299	ltpFR2	19	1	n/a	n/a	n/a	n/a	0	0	0
170109	REC_WORD	wordpools/wasnorm_wordpool_576.txt	LTP299	ltpFR2	19	1	ROBBER	1197	n/a	n/a	0	0	0
171203	REC_WORD	wordpools/wasnorm_wordpool_576.txt	LTP299	ltpFR2	19	1	VICTIM	1562	n/a	n/a	0	0	0
172172	REC_WORD	wordpools/wasnorm_wordpool_576.txt	LTP299	ltpFR2	19	1	SUSPECT	1415	n/a	n/a	0	0	0
173554	REC_WORD	wordpools/wasnorm_wordpool_576.txt	LTP299	ltpFR2	19	1	PLAID	1080	n/a	n/a	0	0	0
174565	REC_WORD	wordpools/wasnorm_wordpool_576.txt	LTP299	ltpFR2	19	1	STALLION	1369	n/a	n/a	0	0	0
177650	REC_WORD	wordpools/wasnorm_wordpool_576.txt	LTP299	ltpFR2	19	1	JELLO	754	n/a	n/a	0	0	0
182114	REC_WORD	wordpools/wasnorm_wordpool_576.txt	LTP299	ltpFR2	19	1	CROWN	415	n/a	n/a	0	0	0
194399	REC_WORD	wordpools/wasnorm_wordpool_576.txt	LTP299	ltpFR2	19	1	YARN	1631	n/a	n/a	0	0	0
195284	REC_WORD	wordpools/wasnorm_wordpool_576.txt	LTP299	ltpFR2	19	1	THREAD	1460	n/a	n/a	0	0	0
196159	REC_WORD	wordpools/wasnorm_wordpool_576.txt	LTP299	ltpFR2	19	1	CHILD	299	n/a	n/a	0	0	0
197028	REC_WORD	wordpools/wasnorm_wordpool_576.txt	LTP299	ltpFR2	19	1	PARROT	1015	n/a	n/a	0	0	0
197884	REC_WORD	wordpools/wasnorm_wordpool_576.txt	LTP299	ltpFR2	19	1	CRATER	400	n/a	n/a	0	0	0
198659	REC_WORD	wordpools/wasnorm_wordpool_576.txt	LTP299	ltpFR2	19	1	CLOCK	325	n/a	n/a	0	0	0
201558	REC_WORD	wordpools/wasnorm_wordpool_576.txt	LTP299	ltpFR2	19	1	INMATE	738	n/a	n/a	0	0	0
202229	REC_WORD	wordpools/wasnorm_wordpool_576.txt	LTP299	ltpFR2	19	1	CREVICE	405	n/a	n/a	0	0	0
203244	REC_WORD	wordpools/wasnorm_wordpool_576.txt	LTP299	ltpFR2	19	1	BLADE	134	n/a	n/a	0	0	0
204029	REC_WORD	wordpools/wasnorm_wordpool_576.txt	LTP299	ltpFR2	19	1	BELLY	119	n/a	n/a	0	0	0
258441	WORD	wordpools/wasnorm_wordpool_576.txt	LTP299	ltpFR2	19	2	WAGON	1578	n/a	n/a	0	0	0
261261	WORD	wordpools/wasnorm_wordpool_576.txt	LTP299	ltpFR2	19	2	DRINK	498	n/a	n/a	0	0	0
263814	WORD	wordpools/wasnorm_wordpool_576.txt	LTP299	ltpFR2	19	2	LETTUCE	814	n/a	n/a	0	0	0
266615	WORD	wordpools/wasnorm_wordpool_576.txt	LTP299	ltpFR2	19	2	GARBAGE	622	n/a	n/a	0	0	0
269151	WORD	wordpools/wasnorm_wordpool_576.txt	LTP299	ltpFR2	19	2	PIGMENT	1066	n/a	n/a	0	0	0
271771	WORD	wordpools/wasnorm_wordpool_576.txt	LTP299	ltpFR2	19	2	MARKER	870	n/a	n/a	0	0	0
274305	WORD	wordpools/wasnorm_wordpool_576.txt	LTP299	ltpFR2	19	2	LIVER	833	n/a	n/a	0	0	0
276875	WORD	wordpools/wasnorm_wordpool_576.txt	LTP299	ltpFR2	19	2	DASHBOARD	441	n/a	n/a	0	0	0
279627	WORD	wordpools/wasnorm_wordpool_576.txt	LTP299	ltpFR2	19	2	WHISKERS	1605	n/a	n/a	0	0	0
282145	WORD	wordpools/wasnorm_wordpool_576.txt	LTP299	ltpFR2	19	2	VENUS	1557	n/a	n/a	0	0	0
284681	WORD	wordpools/wasnorm_wordpool_576.txt	LTP299	ltpFR2	19	2	SHARK	1275	n/a	n/a	0	0	0
287183	WORD	wordpools/wasnorm_wordpool_576.txt	LTP299	ltpFR2	19	2	SALMON	1227	n/a	n/a	0	0	0
289669	WORD	wordpools/wasnorm_wordpool_576.txt	LTP299	ltpFR2	19	2	CABBAGE	210	n/a	n/a	0	0	0
292371	WORD	wordpools/wasnorm_wordpool_576.txt	LTP299	ltpFR2	19	2	ISLAND	745	n/a	n/a	0	0	0
294791	WORD	wordpools/wasnorm_wordpool_576.txt	LTP299	ltpFR2	19	2	SKIRT	1319	n/a	n/a	0	0	0
297359	WORD	wordpools/wasnorm_wordpool_576.txt	LTP299	ltpFR2	19	2	HOOD	714	n/a	n/a	0	0	0
300161	WORD	wordpools/wasnorm_wordpool_576.txt	LTP299	ltpFR2	19	2	COOK	372	n/a	n/a	0	0	0
302881	WORD	wordpools/wasnorm_wordpool_576.txt	LTP299	ltpFR2	19	2	COMPASS	358	n/a	n/a	0	0	0
305633	WORD	wordpools/wasnorm_wordpool_576.txt	LTP299	ltpFR2	19	2	ATLAS	53	n/a	n/a	0	0	0
308402	WORD	wordpools/wasnorm_wordpool_576.txt	LTP299	ltpFR2	19	2	SCARF	1246	n/a	n/a	0	0	0
311087	WORD	wordpools/wasnorm_wordpool_576.txt	LTP299	ltpFR2	19	2	SCOTCH	1251	n/a	n/a	0	0	0
313706	WORD	wordpools/wasnorm_wordpool_576.txt	LTP299	ltpFR2	19	2	SKILLET	1317	n/a	n/a	0	0	0
316459	WORD	wordpools/wasnorm_wordpool_576.txt	LTP299	ltpFR2	19	2	TERMITE	1451	n/a	n/a	0	0	0
318895	WORD	wordpools/wasnorm_wordpool_576.txt	LTP299	ltpFR2	19	2	TUTU	1524	n/a	n/a	0	0	0
320512	START	n/a	LTP299	ltpFR2	19	n/a	n/a	n/a	3	n/a	n/a	n/a	n/a
321554	DISTRACTOR	n/a	LTP299	ltpFR2	19	2	n/a	n/a	n/a	n/a	0	0	0
321580	PROB	n/a	LTP299	ltpFR2	19	n/a	n/a	n/a	3	8	3	1	4
322815	PROB	n/a	LTP299	ltpFR2	19	n/a	n/a	n/a	3	20	7	4	9
324900	PROB	n/a	LTP299	ltpFR2	19	n/a	n/a	n/a	3	15	8	4	3
326434	PROB	n/a	LTP299	ltpFR2	19	n/a	n/a	n/a	3	20	6	9	5
328219	PROB	n/a	LTP299	ltpFR2	19	n/a	n/a	n/a	3	13	7	3	3
330154	PROB	n/a	LTP299	ltpFR2	19	n/a	n/a	n/a	3	20	5	7	8
332289	PROB	n/a	LTP299	ltpFR2	19	n/a	n/a	n/a	3	20	2	9	9
333775	PROB	n/a	LTP299	ltpFR2	19	n/a	n/a	n/a	3	15	5	9	1
335075	PROB	n/a	LTP299	ltpFR2	19	n/a	n/a	n/a	3	12	1	6	5
336409	PROB	n/a	LTP299	ltpFR2	19	n/a	n/a	n/a	3	13	3	6	4
338294	PROB	n/a	LTP299	ltpFR2	19	n/a	n/a	n/a	3	19	4	8	7
340396	PROB	n/a	LTP299	ltpFR2	19	n/a	n/a	n/a	3	12	1	8	3
341732	PROB	n/a	LTP299	ltpFR2	19	n/a	n/a	n/a	3	18	4	9	5
344003	STOP	n/a	LTP299	ltpFR2	19	n/a	n/a	n/a	3	n/a	n/a	n/a	n/a
346469	REC_START	n/a	LTP299	ltpFR2	19	2	n/a	n/a	n/a	n/a	0	0	0
348360	REC_WORD	wordpools/wasnorm_wordpool_576.txt	LTP299	ltpFR2	19	2	TERMITE	1451	n/a	n/a	0	0	0
349229	REC_WORD	wordpools/wasnorm_wordpool_576.txt	LTP299	ltpFR2	19	2	SCOTCH	1251	n/a	n/a	0	0	0
350257	REC_WORD	wordpools/wasnorm_wordpool_576.txt	LTP299	ltpFR2	19	2	TUTU	1524	n/a	n/a	0	0	0
351697	REC_WORD	wordpools/wasnorm_wordpool_576.txt	LTP299	ltpFR2	19	2	DASHBOARD	441	n/a	n/a	0	0	0
352938	REC_WORD	wordpools/wasnorm_wordpool_576.txt	LTP299	ltpFR2	19	2	WHISKERS	1605	n/a	n/a	0	0	0
354197	REC_WORD	wordpools/wasnorm_wordpool_576.txt	LTP299	ltpFR2	19	2	VENUS	1557	n/a	n/a	0	0	0
376858	REC_WORD	wordpools/wasnorm_wordpool_576.txt	LTP299	ltpFR2	19	2	CABBAGE	210	n/a	n/a	0	0	0
377741	REC_WORD	wordpools/wasnorm_wordpool_576.txt	LTP299	ltpFR2	19	2	ISLAND	745	n/a	n/a	0	0	0
378560	REC_WORD	wordpools/wasnorm_wordpool_576.txt	LTP299	ltpFR2	19	2	SALMON	1227	n/a	n/a	0	0	0
379886	REC_WORD	wordpools/wasnorm_wordpool_576.txt	LTP299	ltpFR2	19	2	GARBAGE	622	n/a	n/a	0	0	0
380840	REC_WORD	wordpools/wasnorm_wordpool_576.txt	LTP299	ltpFR2	19	2	LETTUCE	814	n/a	n/a	0	0	0
383455	REC_WORD	wordpools/wasnorm_wordpool_576.txt	LTP299	ltpFR2	19	2	DRINK	498	n/a	n/a	0	0	0
405773	REC_WORD	wordpools/wasnorm_wordpool_576.txt	LTP299	ltpFR2	19	2	WAGON	1578	n/a	n/a	0	0	0
437097	DISTRACTOR	n/a	LTP299	ltpFR2	19	3	n/a	n/a	n/a	n/a	0	0	0
437097	START	n/a	LTP299	ltpFR2	19	n/a	n/a	n/a	4	n/a	n/a	n/a	n/a
437130	PROB	n/a	LTP299	ltpFR2	19	n/a	n/a	n/a	4	12	2	2	8
438482	PROB	n/a	LTP299	ltpFR2	19	n/a	n/a	n/a	4	14	6	4	4
439734	PROB	n/a	LTP299	ltpFR2	19	n/a	n/a	n/a	4	18	7	3	8
441017	PROB	n/a	LTP299	ltpFR2	19	n/a	n/a	n/a	4	23	7	9	7
444387	PROB	n/a	LTP299	ltpFR2	19	n/a	n/a	n/a	4	18	2	7	9
445839	PROB	n/a	LTP299	ltpFR2	19	n/a	n/a	n/a	4	18	4	5	9
447289	PROB	n/a	LTP299	ltpFR2	19	n/a	n/a	n/a	4	20	8	7	5
449958	PROB	n/a	LTP299	ltpFR2	19	n/a	n/a	n/a	4	18	9	3	6
451576	PROB	n/a	LTP299	ltpFR2	19	n/a	n/a	n/a	4	20	5	9	6
453863	PROB	n/a	LTP299	ltpFR2	19	n/a	n/a	n/a	4	18	6	8	4
456014	PROB	n/a	LTP299	ltpFR2	19	n/a	n/a	n/a	4	9	3	5	1
457548	PROB	n/a	LTP299	ltpFR2	19	n/a	n/a	n/a	4	17	7	9	1
459133	PROB	n/a	LTP299	ltpFR2	19	n/a	n/a	n/a	4	11	9	1	1
460231	STOP	n/a	LTP299	ltpFR2	19	n/a	n/a	n/a	4	n/a	n/a	n/a	n/a
462236	WORD	wordpools/wasnorm_wordpool_576.txt	LTP299	ltpFR2	19	3	PLAZA	1088	n/a	n/a	0	0	0
464789	WORD	wordpools/wasnorm_wordpool_576.txt	LTP299	ltpFR2	19	3	ZIPPER	1636	n/a	n/a	0	0	0
467474	WORD	wordpools/wasnorm_wordpool_576.txt	LTP299	ltpFR2	19	3	SOFTBALL	1343	n/a	n/a	0	0	0
470109	WORD	wordpools/wasnorm_wordpool_576.txt	LTP299	ltpFR2	19	3	CATCHER	258	n/a	n/a	0	0	0
472695	WORD	wordpools/wasnorm_wordpool_576.txt	LTP299	ltpFR2	19	3	MONSTER	912	n/a	n/a	0	0	0
475314	WORD	wordpools/wasnorm_wordpool_576.txt	LTP299	ltpFR2	19	3	NOMAD	955	n/a	n/a	0	0	0
477817	WORD	wordpools/wasnorm_wordpool_576.txt	LTP299	ltpFR2	19	3	MAILMAN	858	n/a	n/a	0	0	0
480352	WORD	wordpools/wasnorm_wordpool_576.txt	LTP299	ltpFR2	19	3	PISTON	1076	n/a	n/a	0	0	0
483054	WORD	wordpools/wasnorm_wordpool_576.txt	LTP299	ltpFR2	19	3	LIGHTNING	820	n/a	n/a	0	0	0
485606	WORD	wordpools/wasnorm_wordpool_576.txt	LTP299	ltpFR2	19	3	GREASE	660	n/a	n/a	0	0	0
488375	WORD	wordpools/wasnorm_wordpool_576.txt	LTP299	ltpFR2	19	3	BLOCKADE	137	n/a	n/a	0	0	0
491144	WORD	wordpools/wasnorm_wordpool_576.txt	LTP299	ltpFR2	19	3	OINTMENT	974	n/a	n/a	0	0	0
493797	WORD	wordpools/wasnorm_wordpool_576.txt	LTP299	ltpFR2	19	3	HATCHET	691	n/a	n/a	0	0	0
496599	WORD	wordpools/wasnorm_wordpool_576.txt	LTP299	ltpFR2	19	3	SWORD	1423	n/a	n/a	0	0	0
499401	WORD	wordpools/wasnorm_wordpool_576.txt	LTP299	ltpFR2	19	3	POSTAGE	1113	n/a	n/a	0	0	0
501987	WORD	wordpools/wasnorm_wordpool_576.txt	LTP299	ltpFR2	19	3	JEANS	752	n/a	n/a	0	0	0
504522	WORD	wordpools/wasnorm_wordpool_576.txt	LTP299	ltpFR2	19	3	COBRA	336	n/a	n/a	0	0	0
507025	WORD	wordpools/wasnorm_wordpool_576.txt	LTP299	ltpFR2	19	3	PERCH	1048	n/a	n/a	0	0	0
509477	WORD	wordpools/wasnorm_wordpool_576.txt	LTP299	ltpFR2	19	3	GOBLIN	645	n/a	n/a	0	0	0
512313	WORD	wordpools/wasnorm_wordpool_576.txt	LTP299	ltpFR2	19	3	PLASTER	1085	n/a	n/a	0	0	0
514866	WORD	wordpools/wasnorm_wordpool_576.txt	LTP299	ltpFR2	19	3	FINGER	567	n/a	n/a	0	0	0
517500	WORD	wordpools/wasnorm_wordpool_576.txt	LTP299	ltpFR2	19	3	DAISY	435	n/a	n/a	0	0	0
520119	WORD	wordpools/wasnorm_wordpool_576.txt	LTP299	ltpFR2	19	3	DOLPHIN	483	n/a	n/a	0	0	0
522756	WORD	wordpools/wasnorm_wordpool_576.txt	LTP299	ltpFR2	19	3	BUG	187	n/a	n/a	0	0	0
524373	START	n/a	LTP299	ltpFR2	19	n/a	n/a	n/a	5	n/a	n/a	n/a	n/a
525313	DISTRACTOR	n/a	LTP299	ltpFR2	19	3	n/a	n/a	n/a	n/a	0	0	0
525341	PROB	n/a	LTP299	ltpFR2	19	n/a	n/a	n/a	5	20	9	9	2
527242	PROB	n/a	LTP299	ltpFR2	19	n/a	n/a	n/a	5	21	8	5	8
529027	PROB	n/a	LTP299	ltpFR2	19	n/a	n/a	n/a	5	25	9	9	7
530813	PROB	n/a	LTP299	ltpFR2	19	n/a	n/a	n/a	5	12	1	2	9
532380	PROB	n/a	LTP299	ltpFR2	19	n/a	n/a	n/a	5	13	2	8	3
537001	PROB	n/a	LTP299	ltpFR2	19	n/a	n/a	n/a	5	18	9	8	1
538435	PROB	n/a	LTP299	ltpFR2	19	n/a	n/a	n/a	5	15	8	2	5
540170	PROB	n/a	LTP299	ltpFR2	19	n/a	n/a	n/a	5	16	7	2	7
541672	PROB	n/a	LTP299	ltpFR2	19	n/a	n/a	n/a	5	16	8	1	7
543139	PROB	n/a	LTP299	ltpFR2	19	n/a	n/a	n/a	5	12	6	5	1
544607	PROB	n/a	LTP299	ltpFR2	19	n/a	n/a	n/a	5	16	1	7	8
548373	STOP	n/a	LTP299	ltpFR2	19	n/a	n/a	n/a	5	n/a	n/a	n/a	n/a
550263	REC_START	n/a	LTP299	ltpFR2	19	3	n/a	n/a	n/a	n/a	0	0	0
551615	REC_WORD	wordpools/wasnorm_wordpool_576.txt	LTP299	ltpFR2	19	3	PERCH	1048	n/a	n/a	0	0	0
552634	REC_WORD_VV	wordpools/wasnorm_wordpool_576.txt	LTP299	ltpFR2	19	3	<>	-1	n/a	n/a	0	0	0
553673	REC_WORD	wordpools/wasnorm_wordpool_576.txt	LTP299	ltpFR2	19	3	SWORD	1423	n/a	n/a	0	0	0
554431	REC_WORD	wordpools/wasnorm_wordpool_576.txt	LTP299	ltpFR2	19	3	HATCHET	691	n/a	n/a	0	0	0
556912	REC_WORD	wordpools/wasnorm_wordpool_576.txt	LTP299	ltpFR2	19	3	GREASE	660	n/a	n/a	0	0	0
557746	REC_WORD	wordpools/wasnorm_wordpool_576.txt	LTP299	ltpFR2	19	3	LIGHTNING	820	n/a	n/a	0	0	0
558587	REC_WORD	wordpools/wasnorm_wordpool_576.txt	LTP299	ltpFR2	19	3	BLOCKADE	137	n/a	n/a	0	0	0
562768	REC_WORD	wordpools/wasnorm_wordpool_576.txt	LTP299	ltpFR2	19	3	GOBLIN	645	n/a	n/a	0	0	0
566057	REC_WORD	wordpools/wasnorm_wordpool_576.txt	LTP299	ltpFR2	19	3	MONSTER	912	n/a	n/a	0	0	0
566834	REC_WORD	wordpools/wasnorm_wordpool_576.txt	LTP299	ltpFR2	19	3	NOMAD	955	n/a	n/a	0	0	0
570557	REC_WORD	wordpools/wasnorm_wordpool_576.txt	LTP299	ltpFR2	19	3	MAILMAN	858	n/a	n/a	0	0	0
583803	REC_WORD	wordpools/wasnorm_wordpool_576.txt	LTP299	ltpFR2	19	3	FINGER	567	n/a	n/a	0	0	0
584756	REC_WORD	wordpools/wasnorm_wordpool_576.txt	LTP299	ltpFR2	19	3	DAISY	435	n/a	n/a	0	0	0
585580	REC_WORD	wordpools/wasnorm_wordpool_576.txt	LTP299	ltpFR2	19	3	DOLPHIN	483	n/a	n/a	0	0	0
590474	REC_WORD	wordpools/wasnorm_wordpool_576.txt	LTP299	ltpFR2	19	3	BUG	187	n/a	n/a	0	0	0
640759	DISTRACTOR	n/a	LTP299	ltpFR2	19	4	n/a	n/a	n/a	n/a	0	0	0
640759	START	n/a	LTP299	ltpFR2	19	n/a	n/a	n/a	6	n/a	n/a	n/a	n/a
640792	PROB	n/a	LTP299	ltpFR2	19	n/a	n/a	n/a	6	19	5	5	9
642059	PROB	n/a	LTP299	ltpFR2	19	n/a	n/a	n/a	6	19	7	8	4
643778	PROB	n/a	LTP299	ltpFR2	19	n/a	n/a	n/a	6	19	2	8	9
645178	PROB	n/a	LTP299	ltpFR2	19	n/a	n/a	n/a	6	25	8	9	9
647597	PROB	n/a	LTP299	ltpFR2	19	n/a	n/a	n/a	6	11	2	2	7
650133	PROB	n/a	LTP299	ltpFR2	19	n/a	n/a	n/a	6	15	4	8	3
651902	PROB	n/a	LTP299	ltpFR2	19	n/a	n/a	n/a	6	19	5	7	7
653369	PROB	n/a	LTP299	ltpFR2	19	n/a	n/a	n/a	6	18	8	4	6
655270	PROB	n/a	LTP299	ltpFR2	19	n/a	n/a	n/a	6	10	1	8	1
656571	PROB	n/a	LTP299	ltpFR2	19	n/a	n/a	n/a	6	13	1	8	4
658273	PROB	n/a	LTP299	ltpFR2	19	n/a	n/a	n/a	6	11	2	8	1
659742	PROB	n/a	LTP299	ltpFR2	19	n/a	n/a	n/a	6	18	5	6	7
661292	PROB	n/a	LTP299	ltpFR2	19	n/a	n/a	n/a	6	10	1	3	6
662643	PROB	n/a	LTP299	ltpFR2	19	n/a	n/a	n/a	6	13	5	7	1
664375	STOP	n/a	LTP299	ltpFR2	19	n/a	n/a	n/a	6	n/a	n/a	n/a	n/a
665613	WORD	wordpools/wasnorm_wordpool_576.txt	LTP299	ltpFR2	19	4	CHAUFFEUR	283	n/a	n/a	0	0	0
668282	WORD	wordpools/wasnorm_wordpool_576.txt	LTP299	ltpFR2	19	4	SWAMP	1416	n/a	n/a	0	0	0
671034	WORD	wordpools/wasnorm_wordpool_576.txt	LTP299	ltpFR2	19	4	TWEEZERS	1526	n/a	n/a	0	0	0
673821	WORD	wordpools/wasnorm_wordpool_576.txt	LTP299	ltpFR2	19	4	BUBBLE	183	n/a	n/a	0	0	0
676506	WORD	wordpools/wasnorm_wordpool_576.txt	LTP299	ltpFR2	19	4	MISSILE	900	n/a	n/a	0	0	0
679091	WORD	wordpools/wasnorm_wordpool_576.txt	LTP299	ltpFR2	19	4	FRIAR	605	n/a	n/a	0	0	0
681761	WORD	wordpools/wasnorm_wordpool_576.txt	LTP299	ltpFR2	19	4	SEAFOOD	1260	n/a	n/a	0	0	0
684429	WORD	wordpools/wasnorm_wordpool_576.txt	LTP299	ltpFR2	19	4	CLOUD	328	n/a	n/a	0	0	0
687115	WORD	wordpools/wasnorm_wordpool_576.txt	LTP299	ltpFR2	19	4	SMOG	1330	n/a	n/a	0	0	0
689700	WORD	wordpools/wasnorm_wordpool_576.txt	LTP299	ltpFR2	19	4	BEAKER	104	n/a	n/a	0	0	0
692169	WORD	wordpools/wasnorm_wordpool_576.txt	LTP299	ltpFR2	19	4	REBEL	1172	n/a	n/a	0	0	0
694739	WORD	wordpools/wasnorm_wordpool_576.txt	LTP299	ltpFR2	19	4	HIGHWAY	707	n/a	n/a	0	0	0
697374	WORD	wordpools/wasnorm_wordpool_576.txt	LTP299	ltpFR2	19	4	SLOPE	1328	n/a	n/a	0	0	0
699860	WORD	wordpools/wasnorm_wordpool_576.txt	LTP299	ltpFR2	19	4	HIKER	708	n/a	n/a	0	0	0
702678	WORD	wordpools/wasnorm_wordpool_576.txt	LTP299	ltpFR2	19	4	MARSH	874	n/a	n/a	0	0	0
705397	WORD	wordpools/wasnorm_wordpool_576.txt	LTP299	ltpFR2	19	4	CAPTIVE	240	n/a	n/a	0	0	0
708233	WORD	wordpools/wasnorm_wordpool_576.txt	LTP299	ltpFR2	19	4	PERMIT	1051	n/a	n/a	0	0	0
711052	WORD	wordpools/wasnorm_wordpool_576.txt	LTP299	ltpFR2	19	4	STICKER	1382	n/a	n/a	0	0	0
713621	WORD	wordpools/wasnorm_wordpool_576.txt	LTP299	ltpFR2	19	4	WHISTLE	1606	n/a	n/a	0	0	0
716374	WORD	wordpools/wasnorm_wordpool_576.txt	LTP299	ltpFR2	19	4	FREEZER	604	n/a	n/a	0	0	0
718943	WORD	wordpools/wasnorm_wordpool_576.txt	LTP299	ltpFR2	19	4	VIRUS	1572	n/a	n/a	0	0	0
721561	WORD	wordpools/wasnorm_wordpool_576.txt	LTP299	ltpFR2	19	4	WRENCH	1625	n/a	n/a	0	0	0
724197	WORD	wordpools/wasnorm_wordpool_576.txt	LTP299	ltpFR2	19	4	BARREL	91	n/a	n/a	0	0	0
726817	WORD	wordpools/wasnorm_wordpool_576.txt	LTP299	ltpFR2	19	4	TWISTER	1530	n/a	n/a	0	0	0
728434	START	n/a	LTP299	ltpFR2	19	n/a	n/a	n/a	7	n/a	n/a	n/a	n/a
729606	DISTRACTOR	n/a	LTP299	ltpFR2	19	4	n/a	n/a	n/a	n/a	0	0	0
729635	PROB	n/a	LTP299	ltpFR2	19	n/a	n/a	n/a	7	26	8	9	9
731805	PROB	n/a	LTP299	ltpFR2	19	n/a	n/a	n/a	7	16	7	3	6
733055	PROB	n/a	LTP299	ltpFR2	19	n/a	n/a	n/a	7	19	8	3	8
735056	PROB	n/a	LTP299	ltpFR2	19	n/a	n/a	n/a	7	13	6	3	4
736792	PROB	n/a	LTP299	ltpFR2	19	n/a	n/a	n/a	7	13	8	1	4
738293	PROB	n/a	LTP299	ltpFR2	19	n/a	n/a	n/a	7	15	6	3	6
740061	PROB	n/a	LTP299	ltpFR2	19	n/a	n/a	n/a	7	14	5	5	4
741245	PROB	n/a	LTP299	ltpFR2	19	n/a	n/a	n/a	7	16	3	9	4
743865	PROB	n/a	LTP299	ltpFR2	19	n/a	n/a	n/a	7	9	1	4	4
744916	PROB	n/a	LTP299	ltpFR2	19	n/a	n/a	n/a	7	22	7	8	7
747150	PROB	n/a	LTP299	ltpFR2	19	n/a	n/a	n/a	7	9	2	2	5
748335	PROB	n/a	LTP299	ltpFR2	19	n/a	n/a	n/a	7	12	7	2	3
750437	PROB	n/a	LTP299	ltpFR2	19	n/a	n/a	n/a	7	17	7	7	3
752043	STOP	n/a	LTP299	ltpFR2	19	n/a	n/a	n/a	7	n/a	n/a	n/a	n/a
754224	REC_START	n/a	LTP299	ltpFR2	19	4	n/a	n/a	n/a	n/a	0	0	0
755604	REC_WORD	wordpools/wasnorm_wordpool_576.txt	LTP299	ltpFR2	19	4	CHAUFFEUR	283	n/a	n/a	0	0	0
756820	REC_WORD	wordpools/wasnorm_wordpool_576.txt	LTP299	ltpFR2	19	4	TWEEZERS	1526	n/a	n/a	0	0	0
757770	REC_WORD	wordpools/wasnorm_wordpool_576.txt	LTP299	ltpFR2	19	4	TWISTER	1530	n/a	n/a	0	0	0
758621	REC_WORD	wordpools/wasnorm_wordpool_576.txt	LTP299	ltpFR2	19	4	SWAMP	1416	n/a	n/a	0	0	0
760715	REC_WORD	wordpools/wasnorm_wordpool_576.txt	LTP299	ltpFR2	19	4	CLOUD	328	n/a	n/a	0	0	0
761634	REC_WORD	wordpools/wasnorm_wordpool_576.txt	LTP299	ltpFR2	19	4	SMOG	1330	n/a	n/a	0	0	0
762789	REC_WORD	wordpools/wasnorm_wordpool_576.txt	LTP299	ltpFR2	19	4	BEAKER	104	n/a	n/a	0	0	0
763682	REC_WORD	wordpools/wasnorm_wordpool_576.txt	LTP299	ltpFR2	19	4	REBEL	1172	n/a	n/a	0	0	0
764494	REC_WORD	wordpools/wasnorm_wordpool_576.txt	LTP299	ltpFR2	19	4	HIGHWAY	707	n/a	n/a	0	0	0
765880	REC_WORD	wordpools/wasnorm_wordpool_576.txt	LTP299	ltpFR2	19	4	SLOPE	1328	n/a	n/a	0	0	0
766827	REC_WORD	wordpools/wasnorm_wordpool_576.txt	LTP299	ltpFR2	19	4	HIKER	708	n/a	n/a	0	0	0
768373	REC_WORD	wordpools/wasnorm_wordpool_576.txt	LTP299	ltpFR2	19	4	MISSILE	900	n/a	n/a	0	0	0
769196	REC_WORD	wordpools/wasnorm_wordpool_576.txt	LTP299	ltpFR2	19	4	FRIAR	605	n/a	n/a	0	0	0
770169	REC_WORD	wordpools/wasnorm_wordpool_576.txt	LTP299	ltpFR2	19	4	BUBBLE	183	n/a	n/a	0	0	0
844685	WORD	wordpools/wasnorm_wordpool_576.txt	LTP299	ltpFR2	19	5	BASEMENT	94	n/a	n/a	0	0	0
847521	WORD	wordpools/wasnorm_wordpool_576.txt	LTP299	ltpFR2	19	5	CELLAR	267	n/a	n/a	0	0	0
850123	WORD	wordpools/wasnorm_wordpool_576.txt	LTP299	ltpFR2	19	5	TYPIST	1532	n/a	n/a	0	0	0
852827	WORD	wordpools/wasnorm_wordpool_576.txt	LTP299	ltpFR2	19	5	CRITIC	410	n/a	n/a	0	0	0
855294	WORD	wordpools/wasnorm_wordpool_576.txt	LTP299	ltpFR2	19	5	CRIB	407	n/a	n/a	0	0	0
857997	WORD	wordpools/wasnorm_wordpool_576.txt	LTP299	ltpFR2	19	5	ROBIN	1199	n/a	n/a	0	0	0
860750	WORD	wordpools/wasnorm_wordpool_576.txt	LTP299	ltpFR2	19	5	TURKEY	1520	n/a	n/a	0	0	0
863418	WORD	wordpools/wasnorm_wordpool_576.txt	LTP299	ltpFR2	19	5	BOYFRIEND	162	n/a	n/a	0	0	0
866204	WORD	wordpools/wasnorm_wordpool_576.txt	LTP299	ltpFR2	19	5	BIKE	125	n/a	n/a	0	0	0
868774	WORD	wordpools/wasnorm_wordpool_576.txt	LTP299	ltpFR2	19	5	SERVANT	1271	n/a	n/a	0	0	0
871375	WORD	wordpools/wasnorm_wordpool_576.txt	LTP299	ltpFR2	19	5	BRANCH	168	n/a	n/a	0	0	0
873945	WORD	wordpools/wasnorm_wordpool_576.txt	LTP299	ltpFR2	19	5	OMELET	976	n/a	n/a	0	0	0
876480	WORD	wordpools/wasnorm_wordpool_576.txt	LTP299	ltpFR2	19	5	SHOVEL	1295	n/a	n/a	0	0	0
879032	WORD	wordpools/wasnorm_wordpool_576.txt	LTP299	ltpFR2	19	5	SNAKE	1333	n/a	n/a	0	0	0
881534	WORD	wordpools/wasnorm_wordpool_576.txt	LTP299	ltpFR2	19	5	REPORT	1184	n/a	n/a	0	0	0
884019	WORD	wordpools/wasnorm_wordpool_576.txt	LTP299	ltpFR2	19	5	DOUGHNUT	490	n/a	n/a	0	0	0
886655	WORD	wordpools/wasnorm_wordpool_576.txt	LTP299	ltpFR2	19	5	LAPEL	800	n/a	n/a	0	0	0
889391	WORD	wordpools/wasnorm_wordpool_576.txt	LTP299	ltpFR2	19	5	SHIRT	1287	n/a	n/a	0	0	0
892010	WORD	wordpools/wasnorm_wordpool_576.txt	LTP299	ltpFR2	19	5	SIDEWALK	1303	n/a	n/a	0	0	0
894479	WORD	wordpools/wasnorm_wordpool_576.txt	LTP299	ltpFR2	19	5	OFFICE	972	n/a	n/a	0	0	0
897031	WORD	wordpools/wasnorm_wordpool_576.txt	LTP299	ltpFR2	19	5	TRANSPLANT	1496	n/a	n/a	0	0	0
899550	WORD	wordpools/wasnorm_wordpool_576.txt	LTP299	ltpFR2	19	5	WARDROBE	1587	n/a	n/a	0	0	0
902319	WORD	wordpools/wasnorm_wordpool_576.txt	LTP299	ltpFR2	19	5	CROSS	413	n/a	n/a	0	0	0
905038	WORD	wordpools/wasnorm_wordpool_576.txt	LTP299	ltpFR2	19	5	FLESH	579	n/a	n/a	0	0	0
906656	START	n/a	LTP299	ltpFR2	19	n/a	n/a	n/a	8	n/a	n/a	n/a	n/a
907680	DISTRACTOR	n/a	LTP299	ltpFR2	19	5	n/a	n/a	n/a	n/a	0	0	0
907707	PROB	n/a	LTP299	ltpFR2	19	n/a	n/a	n/a	8	15	3	9	3
909442	PROB	n/a	LTP299	ltpFR2	19	n/a	n/a	n/a	8	12	1	7	4
911310	PROB	n/a	LTP299	ltpFR2	19	n/a	n/a	n/a	8	14	1	4	9
913128	PROB	n/a	LTP299	ltpFR2	19	n/a	n/a	n/a	8	19	7	7	5
914679	PROB	n/a	LTP299	ltpFR2	19	n/a	n/a	n/a	8	15	8	6	1
916698	PROB	n/a	LTP299	ltpFR2	19	n/a	n/a	n/a	8	9	2	1	6
918416	PROB	n/a	LTP299	ltpFR2	19	n/a	n/a	n/a	8	19	6	7	6
920368	PROB	n/a	LTP299	ltpFR2	19	n/a	n/a	n/a	8	12	4	1	7
922403	PROB	n/a	LTP299	ltpFR2	19	n/a	n/a	n/a	8	13	5	1	7
925689	PROB	n/a	LTP299	ltpFR2	19	n/a	n/a	n/a	8	18	9	7	2
927390	PROB	n/a	LTP299	ltpFR2	19	n/a	n/a	n/a	8	16	6	3	7
928926	PROB	n/a	LTP299	ltpFR2	19	n/a	n/a	n/a	8	16	2	6	8
930546	STOP	n/a	LTP299	ltpFR2	19	n/a	n/a	n/a	8	n/a	n/a	n/a	n/a
932612	REC_START	n/a	LTP299	ltpFR2	19	5	n/a	n/a	n/a	n/a	0	0	0
934498	REC_WORD	wordpools/wasnorm_wordpool_576.txt	LTP299	ltpFR2	19	5	LAPEL	800	n/a	n/a	0	0	0
935418	REC_WORD	wordpools/wasnorm_wordpool_576.txt	LTP299	ltpFR2	19	5	SHIRT	1287	n/a	n/a	0	0	0
936428	REC_WORD	wordpools/wasnorm_wordpool_576.txt	LTP299	ltpFR2	19	5	CROSS	413	n/a	n/a	0	0	0
937446	REC_WORD	wordpools/wasnorm_wordpool_576.txt	LTP299	ltpFR2	19	5	FLESH	579	n/a	n/a	0	0	0
946579	REC_WORD	wordpools/wasnorm_wordpool_576.txt	LTP299	ltpFR2	19	5	CELLAR	267	n/a	n/a	0	0	0
947287	REC_WORD	wordpools/wasnorm_wordpool_576.txt	LTP299	ltpFR2	19	5	BASEMENT	94	n/a	n/a	0	0	0
948196	REC_WORD	wordpools/wasnorm_wordpool_576.txt	LTP299	ltpFR2	19	5	TYPIST	1532	n/a	n/a	0	0	0
951867	REC_WORD	wordpools/wasnorm_wordpool_576.txt	LTP299	ltpFR2	19	5	BRANCH	168	n/a	n/a	0	0	0
952762	REC_WORD	wordpools/wasnorm_wordpool_576.txt	LTP299	ltpFR2	19	5	OMELET	976	n/a	n/a	0	0	0
954210	REC_WORD	wordpools/wasnorm_wordpool_576.txt	LTP299	ltpFR2	19	5	OFFICE	972	n/a	n/a	0	0	0
956133	REC_WORD	wordpools/wasnorm_wordpool_576.txt	LTP299	ltpFR2	19	5	TRANSPLANT	1496	n/a	n/a	0	0	0
960668	REC_WORD	wordpools/wasnorm_wordpool_576.txt	LTP299	ltpFR2	19	5	WARDROBE	1587	n/a	n/a	0	0	0
1023124	DISTRACTOR	n/a	LTP299	ltpFR2	19	6	n/a	n/a	n/a	n/a	0	0	0
1023124	START	n/a	LTP299	ltpFR2	19	n/a	n/a	n/a	9	n/a	n/a	n/a	n/a
1023140	PROB	n/a	LTP299	ltpFR2	19	n/a	n/a	n/a	9	17	6	5	6
1024975	PROB	n/a	LTP299	ltpFR2	19	n/a	n/a	n/a	9	10	3	1	6
1026310	PROB	n/a	LTP299	ltpFR2	19	n/a	n/a	n/a	9	22	8	9	5
1028462	PROB	n/a	LTP299	ltpFR2	19	n/a	n/a	n/a	9	13	5	7	1
1030397	PROB	n/a	LTP299	ltpFR2	19	n/a	n/a	n/a	9	16	7	4	5
1034067	PROB	n/a	LTP299	ltpFR2	19	n/a	n/a	n/a	9	15	2	6	7
1035701	PROB	n/a	LTP299	ltpFR2	19	n/a	n/a	n/a	9	18	8	6	4
1036986	PROB	n/a	LTP299	ltpFR2	19	n/a	n/a	n/a	9	16	2	8	6
1038270	PROB	n/a	LTP299	ltpFR2	19	n/a	n/a	n/a	9	21	7	9	5
1040740	PROB	n/a	LTP299	ltpFR2	19	n/a	n/a	n/a	9	12	3	3	6
1041973	PROB	n/a	LTP299	ltpFR2	19	n/a	n/a	n/a	9	19	9	4	6
1043308	PROB	n/a	LTP299	ltpFR2	19	n/a	n/a	n/a	9	13	8	4	1
1045193	PROB	n/a	LTP299	ltpFR2	19	n/a	n/a	n/a	9	18	4	7	6
1046847	STOP	n/a	LTP299	ltpFR2	19	n/a	n/a	n/a	9	n/a	n/a	n/a	n/a
1048146	WORD	wordpools/wasnorm_wordpool_576.txt	LTP299	ltpFR2	19	6	COTTAGE	384	n/a	n/a	0	0	0
1050614	WORD	wordpools/wasnorm_wordpool_576.txt	LTP299	ltpFR2	19	6	TRENCH	1503	n/a	n/a	0	0	0
1053217	WORD	wordpools/wasnorm_wordpool_576.txt	LTP299	ltpFR2	19	6	APRON	35	n/a	n/a	0	0	0
1055753	WORD	wordpools/wasnorm_wordpool_576.txt	LTP299	ltpFR2	19	6	STOVE	1388	n/a	n/a	0	0	0
1058438	WORD	wordpools/wasnorm_wordpool_576.txt	LTP299	ltpFR2	19	6	LOVER	846	n/a	n/a	0	0	0
1061190	WORD	wordpools/wasnorm_wordpool_576.txt	LTP299	ltpFR2	19	6	COWBOY	395	n/a	n/a	0	0	0
1063976	WORD	wordpools/wasnorm_wordpool_576.txt	LTP299	ltpFR2	19	6	QUEEN	1149	n/a	n/a	0	0	0
1066779	WORD	wordpools/wasnorm_wordpool_576.txt	LTP299	ltpFR2	19	6	LADY	794	n/a	n/a	0	0	0
1069614	WORD	wordpools/wasnorm_wordpool_576.txt	LTP299	ltpFR2	19	6	BRAKE	166	n/a	n/a	0	0	0
1072383	WORD	wordpools/wasnorm_wordpool_576.txt	LTP299	ltpFR2	19	6	MUSTARD	935	n/a	n/a	0	0	0
1075069	WORD	wordpools/wasnorm_wordpool_576.txt	LTP299	ltpFR2	19	6	THRONE	1461	n/a	n/a	0	0	0
1077756	WORD	wordpools/wasnorm_wordpool_576.txt	LTP299	ltpFR2	19	6	BEEF	113	n/a	n/a	0	0	0
1080190	WORD	wordpools/wasnorm_wordpool_576.txt	LTP299	ltpFR2	19	6	QUARTER	1148	n/a	n/a	0	0	0
1082894	WORD	wordpools/wasnorm_wordpool_576.txt	LTP299	ltpFR2	19	6	RELISH	1183	n/a	n/a	0	0	0
1085578	WORD	wordpools/wasnorm_wordpool_576.txt	LTP299	ltpFR2	19	6	PISTOL	1075	n/a	n/a	0	0	0
1088130	WORD	wordpools/wasnorm_wordpool_576.txt	LTP299	ltpFR2	19	6	TURTLE	1522	n/a	n/a	0	0	0
1090633	WORD	wordpools/wasnorm_wordpool_576.txt	LTP299	ltpFR2	19	6	BACON	67	n/a	n/a	0	0	0
1093135	WORD	wordpools/wasnorm_wordpool_576.txt	LTP299	ltpFR2	19	6	SAUSAGE	1238	n/a	n/a	0	0	0
1095604	WORD	wordpools/wasnorm_wordpool_576.txt	LTP299	ltpFR2	19	6	GANGSTER	620	n/a	n/a	0	0	0
1098056	WORD	wordpools/wasnorm_wordpool_576.txt	LTP299	ltpFR2	19	6	CANYON	235	n/a	n/a	0	0	0
1100608	WORD	wordpools/wasnorm_wordpool_576.txt	LTP299	ltpFR2	19	6	FRIEND	606	n/a	n/a	0	0	0
1103394	WORD	wordpools/wasnorm_wordpool_576.txt	LTP299	ltpFR2	19	6	SUITCASE	1403	n/a	n/a	0	0	0
1105979	WORD	wordpools/wasnorm_wordpool_576.txt	LTP299	ltpFR2	19	6	LUNCH	849	n/a	n/a	0	0	0
1108431	WORD	wordpools/wasnorm_wordpool_576.txt	LTP299	ltpFR2	19	6	DONKEY	484	n/a	n/a	0	0	0
1110050	START	n/a	LTP299	ltpFR2	19	n/a	n/a	n/a	10	n/a	n/a	n/a	n/a
1110879	DISTRACTOR	n/a	LTP299	ltpFR2	19	6	n/a	n/a	n/a	n/a	0	0	0
1110901	PROB	n/a	LTP299	ltpFR2	19	n/a	n/a	n/a	10	24	6	9	9
1113035	PROB	n/a	LTP299	ltpFR2	19	n/a	n/a	n/a	10	9	5	2	2
1114203	PROB	n/a	LTP299	ltpFR2	19	n/a	n/a	n/a	10	10	6	1	3
1116806	PROB	n/a	LTP299	ltpFR2	19	n/a	n/a	n/a	10	10	2	7	1
1118423	PROB	n/a	LTP299	ltpFR2	19	n/a	n/a	n/a	10	9	1	4	4
1119591	PROB	n/a	LTP299	ltpFR2	19	n/a	n/a	n/a	10	8	3	3	2
1121510	PROB	n/a	LTP299	ltpFR2	19	n/a	n/a	n/a	10	11	4	3	4
1123628	PROB	n/a	LTP299	ltpFR2	19	n/a	n/a	n/a	10	25	9	8	8
1126230	PROB	n/a	LTP299	ltpFR2	19	n/a	n/a	n/a	10	11	5	5	1
1127465	PROB	n/a	LTP299	ltpFR2	19	n/a	n/a	n/a	10	18	3	7	8
1128850	PROB	n/a	LTP299	ltpFR2	19	n/a	n/a	n/a	10	7	2	4	1
1131618	PROB	n/a	LTP299	ltpFR2	19	n/a	n/a	n/a	10	15	4	8	3
1133273	STOP	n/a	LTP299	ltpFR2	19	n/a	n/a	n/a	10	n/a	n/a	n/a	n/a
1135857	REC_START	n/a	LTP299	ltpFR2	19	6	n/a	n/a	n/a	n/a	0	0	0
1137748	REC_WORD	wordpools/wasnorm_wordpool_576.txt	LTP299	ltpFR2	19	6	FRIEND	606	n/a	n/a	0	0	0
1139751	REC_WORD	wordpools/wasnorm_wordpool_576.txt	LTP299	ltpFR2	19	6	DONKEY	484	n/a	n/a	0	0	0
1146712	REC_WORD	wordpools/wasnorm_wordpool_576.txt	LTP299	ltpFR2	19	6	TURTLE	1522	n/a	n/a	0	0	0
1147596	REC_WORD	wordpools/wasnorm_wordpool_576.txt	LTP299	ltpFR2	19	6	GANGSTER	620	n/a	n/a	0	0	0
1149128	REC_WORD	wordpools/wasnorm_wordpool_576.txt	LTP299	ltpFR2	19	6	BACON	67	n/a	n/a	0	0	0
1149927	REC_WORD	wordpools/wasnorm_wordpool_576.txt	LTP299	ltpFR2	19	6	SAUSAGE	1238	n/a	n/a	0	0	0
1150974	REC_WORD	wordpools/wasnorm_wordpool_576.txt	LTP299	ltpFR2	19	6	LUNCH	849	n/a	n/a	0	0	0
1155439	REC_WORD	wordpools/wasnorm_wordpool_576.txt	LTP299	ltpFR2	19	6	BEEF	113	n/a	n/a	0	0	0
1156163	REC_WORD	wordpools/wasnorm_wordpool_576.txt	LTP299	ltpFR2	19	6	PISTOL	1075	n/a	n/a	0	0	0
1156908	REC_WORD	wordpools/wasnorm_wordpool_576.txt	LTP299	ltpFR2	19	6	RELISH	1183	n/a	n/a	0	0	0
1157656	REC_WORD	wordpools/wasnorm_wordpool_576.txt	LTP299	ltpFR2	19	6	MUSTARD	935	n/a	n/a	0	0	0
1158538	REC_WORD	wordpools/wasnorm_wordpool_576.txt	LTP299	ltpFR2	19	6	THRONE	1461	n/a	n/a	0	0	0
1162444	REC_WORD	wordpools/wasnorm_wordpool_576.txt	LTP299	ltpFR2	19	6	BRAKE	166	n/a	n/a	0	0	0
1163696	REC_WORD	wordpools/wasnorm_wordpool_576.txt	LTP299	ltpFR2	19	6	LADY	794	n/a	n/a	0	0	0
1164658	REC_WORD	wordpools/wasnorm_wordpool_576.txt	LTP299	ltpFR2	19	6	QUEEN	1149	n/a	n/a	0	0	0
1167027	REC_WORD	wordpools/wasnorm_wordpool_576.txt	LTP299	ltpFR2	19	6	COWBOY	395	n/a	n/a	0	0	0
1168022	REC_WORD	wordpools/wasnorm_wordpool_576.txt	LTP299	ltpFR2	19	6	LOVER	846	n/a	n/a	0	0	0
1170832	REC_WORD	wordpools/wasnorm_wordpool_576.txt	LTP299	ltpFR2	19	6	TRENCH	1503	n/a	n/a	0	0	0
1171735	REC_WORD	wordpools/wasnorm_wordpool_576.txt	LTP299	ltpFR2	19	6	COTTAGE	384	n/a	n/a	0	0	0
1183386	REC_WORD	wordpools/wasnorm_wordpool_576.txt	LTP299	ltpFR2	19	6	CANYON	235	n/a	n/a	0	0	0
1226518	WORD	wordpools/wasnorm_wordpool_576.txt	LTP299	ltpFR2	19	7	YACHT	1629	n/a	n/a	0	0	0
1229086	WORD	wordpools/wasnorm_wordpool_576.txt	LTP299	ltpFR2	19	7	DRIVER	499	n/a	n/a	0	0	0
1231655	WORD	wordpools/wasnorm_wordpool_576.txt	LTP299	ltpFR2	19	7	XEROX	1628	n/a	n/a	0	0	0
1234174	WORD	wordpools/wasnorm_wordpool_576.txt	LTP299	ltpFR2	19	7	GARLIC	624	n/a	n/a	0	0	0
1236744	WORD	wordpools/wasnorm_wordpool_576.txt	LTP299	ltpFR2	19	7	LEG	809	n/a	n/a	0	0	0
1239395	WORD	wordpools/wasnorm_wordpool_576.txt	LTP299	ltpFR2	19	7	HAMPER	682	n/a	n/a	0	0	0
1241998	WORD	wordpools/wasnorm_wordpool_576.txt	LTP299	ltpFR2	19	7	LACE	792	n/a	n/a	0	0	0
1244533	WORD	wordpools/wasnorm_wordpool_576.txt	LTP299	ltpFR2	19	7	GYMNAST	675	n/a	n/a	0	0	0
1247035	WORD	wordpools/wasnorm_wordpool_576.txt	LTP299	ltpFR2	19	7	RUST	1219	n/a	n/a	0	0	0
1249638	WORD	wordpools/wasnorm_wordpool_576.txt	LTP299	ltpFR2	19	7	SUNSET	1408	n/a	n/a	0	0	0
1252090	WORD	wordpools/wasnorm_wordpool_576.txt	LTP299	ltpFR2	19	7	SUNRISE	1407	n/a	n/a	0	0	0
1254542	WORD	wordpools/wasnorm_wordpool_576.txt	LTP299	ltpFR2	19	7	POPCORN	1104	n/a	n/a	0	0	0
1257328	WORD	wordpools/wasnorm_wordpool_576.txt	LTP299	ltpFR2	19	7	TROMBONE	1508	n/a	n/a	0	0	0
1259781	WORD	wordpools/wasnorm_wordpool_576.txt	LTP299	ltpFR2	19	7	PACKAGE	997	n/a	n/a	0	0	0
1262349	WORD	wordpools/wasnorm_wordpool_576.txt	LTP299	ltpFR2	19	7	ELBOW	520	n/a	n/a	0	0	0
1264802	WORD	wordpools/wasnorm_wordpool_576.txt	LTP299	ltpFR2	19	7	COUCH	386	n/a	n/a	0	0	0
1267436	WORD	wordpools/wasnorm_wordpool_576.txt	LTP299	ltpFR2	19	7	MOP	916	n/a	n/a	0	0	0
1270055	WORD	wordpools/wasnorm_wordpool_576.txt	LTP299	ltpFR2	19	7	PORK	1108	n/a	n/a	0	0	0
1272591	WORD	wordpools/wasnorm_wordpool_576.txt	LTP299	ltpFR2	19	7	GUITAR	670	n/a	n/a	0	0	0
1275260	WORD	wordpools/wasnorm_wordpool_576.txt	LTP299	ltpFR2	19	7	NAPKIN	937	n/a	n/a	0	0	0
1277796	WORD	wordpools/wasnorm_wordpool_576.txt	LTP299	ltpFR2	19	7	CUSTARD	429	n/a	n/a	0	0	0
1280498	WORD	wordpools/wasnorm_wordpool_576.txt	LTP299	ltpFR2	19	7	SUPPER	1411	n/a	n/a	0	0	0
1283334	WORD	wordpools/wasnorm_wordpool_576.txt	LTP299	ltpFR2	19	7	WAITER	1580	n/a	n/a	0	0	0
1285986	WORD	wordpools/wasnorm_wordpool_576.txt	LTP299	ltpFR2	19	7	TURNIP	1521	n/a	n/a	0	0	0
1287604	START	n/a	LTP299	ltpFR2	19	n/a	n/a	n/a	11	n/a	n/a	n/a	n/a
1288492	DISTRACTOR	n/a	LTP299	ltpFR2	19	7	n/a	n/a	n/a	n/a	0	0	0
1288505	PROB	n/a	LTP299	ltpFR2	19	n/a	n/a	n/a	11	16	2	7	7
1290090	PROB	n/a	LTP299	ltpFR2	19	n/a	n/a	n/a	11	5	1	2	2
1291190	PROB	n/a	LTP299	ltpFR2	19	n/a	n/a	n/a	11	18	4	5	9
1292692	PROB	n/a	LTP299	ltpFR2	19	n/a	n/a	n/a	11	16	7	6	3
1294276	PROB	n/a	LTP299	ltpFR2	19	n/a	n/a	n/a	11	17	6	4	7
1295594	PROB	n/a	LTP299	ltpFR2	19	n/a	n/a	n/a	11	17	7	2	8
1297329	PROB	n/a	LTP299	ltpFR2	19	n/a	n/a	n/a	11	13	5	1	7
1299147	PROB	n/a	LTP299	ltpFR2	19	n/a	n/a	n/a	11	16	4	7	5
1300599	PROB	n/a	LTP299	ltpFR2	19	n/a	n/a	n/a	11	14	3	9	2
1302484	PROB	n/a	LTP299	ltpFR2	19	n/a	n/a	n/a	11	16	5	4	7
1304002	PROB	n/a	LTP299	ltpFR2	19	n/a	n/a	n/a	11	16	2	9	5
1305520	PROB	n/a	LTP299	ltpFR2	19	n/a	n/a	n/a	11	13	4	8	1
1306988	PROB	n/a	LTP299	ltpFR2	19	n/a	n/a	n/a	11	8	4	2	2
1308105	PROB	n/a	LTP299	ltpFR2	19	n/a	n/a	n/a	11	19	9	8	2
1309506	PROB	n/a	LTP299	ltpFR2	19	n/a	n/a	n/a	11	14	2	5	7
1311416	STOP	n/a	LTP299	ltpFR2	19	n/a	n/a	n/a	11	n/a	n/a	n/a	n/a
1313427	REC_START	n/a	LTP299	ltpFR2	19	7	n/a	n/a	n/a	n/a	0	0	0
1315002	REC_WORD	wordpools/wasnorm_wordpool_576.txt	LTP299	ltpFR2	19	7	PORK	1108	n/a	n/a	0	0	0
1315914	REC_WORD	wordpools/wasnorm_wordpool_576.txt	LTP299	ltpFR2	19	7	GUITAR	670	n/a	n/a	0	0	0
1317494	REC_WORD	wordpools/wasnorm_wordpool_576.txt	LTP299	ltpFR2	19	7	TURNIP	1521	n/a	n/a	0	0	0
1318800	REC_WORD	wordpools/wasnorm_wordpool_576.txt	LTP299	ltpFR2	19	7	GARLIC	624	n/a	n/a	0	0	0
1319839	REC_WORD	wordpools/wasnorm_wordpool_576.txt	LTP299	ltpFR2	19	7	POPCORN	1104	n/a	n/a	0	0	0
1320934	REC_WORD	wordpools/wasnorm_wordpool_576.txt	LTP299	ltpFR2	19	7	SUNRISE	1407	n/a	n/a	0	0	0
1322052	REC_WORD	wordpools/wasnorm_wordpool_576.txt	LTP299	ltpFR2	19	7	SUNSET	1408	n/a	n/a	0	0	0
1334888	REC_WORD	wordpools/wasnorm_wordpool_576.txt	LTP299	ltpFR2	19	7	LACE	792	n/a	n/a	0	0	0
1335980	REC_WORD	wordpools/wasnorm_wordpool_576.txt	LTP299	ltpFR2	19	7	GYMNAST	675	n/a	n/a	0	0	0
1337353	REC_WORD	wordpools/wasnorm_wordpool_576.txt	LTP299	ltpFR2	19	7	LEG	809	n/a	n/a	0	0	0
1404072	WORD	wordpools/wasnorm_wordpool_576.txt	LTP299	ltpFR2	19	8	SCULPTURE	1258	n/a	n/a	0	0	0
1406742	WORD	wordpools/wasnorm_wordpool_576.txt	LTP299	ltpFR2	19	8	BABY	64	n/a	n/a	0	0	0
1409510	WORD	wordpools/wasnorm_wordpool_576.txt	LTP299	ltpFR2	19	8	SHOULDER	1294	n/a	n/a	0	0	0
1412279	WORD	wordpools/wasnorm_wordpool_576.txt	LTP299	ltpFR2	19	8	WRIST	1626	n/a	n/a	0	0	0
1414832	WORD	wordpools/wasnorm_wordpool_576.txt	LTP299	ltpFR2	19	8	BACKBONE	66	n/a	n/a	0	0	0
1417500	WORD	wordpools/wasnorm_wordpool_576.txt	LTP299	ltpFR2	19	8	MASK	876	n/a	n/a	0	0	0
1420069	WORD	wordpools/wasnorm_wordpool_576.txt	LTP299	ltpFR2	19	8	DRILL	497	n/a	n/a	0	0	0
1422655	WORD	wordpools/wasnorm_wordpool_576.txt	LTP299	ltpFR2	19	8	BEAVER	109	n/a	n/a	0	0	0
1425157	WORD	wordpools/wasnorm_wordpool_576.txt	LTP299	ltpFR2	19	8	HERO	706	n/a	n/a	0	0	0
1427626	WORD	wordpools/wasnorm_wordpool_576.txt	LTP299	ltpFR2	19	8	SALT	1229	n/a	n/a	0	0	0
1430195	WORD	wordpools/wasnorm_wordpool_576.txt	LTP299	ltpFR2	19	8	INFANT	737	n/a	n/a	0	0	0
1432697	WORD	wordpools/wasnorm_wordpool_576.txt	LTP299	ltpFR2	19	8	FRAME	600	n/a	n/a	0	0	0
1435383	WORD	wordpools/wasnorm_wordpool_576.txt	LTP299	ltpFR2	19	8	RAZOR	1171	n/a	n/a	0	0	0
1437968	WORD	wordpools/wasnorm_wordpool_576.txt	LTP299	ltpFR2	19	8	RABBIT	1152	n/a	n/a	0	0	0
1440772	WORD	wordpools/wasnorm_wordpool_576.txt	LTP299	ltpFR2	19	8	FOX	598	n/a	n/a	0	0	0
1443456	WORD	wordpools/wasnorm_wordpool_576.txt	LTP299	ltpFR2	19	8	MARROW	872	n/a	n/a	0	0	0
1446242	WORD	wordpools/wasnorm_wordpool_576.txt	LTP299	ltpFR2	19	8	ULCER	1533	n/a	n/a	0	0	0
1448895	WORD	wordpools/wasnorm_wordpool_576.txt	LTP299	ltpFR2	19	8	LASER	801	n/a	n/a	0	0	0
1451480	WORD	wordpools/wasnorm_wordpool_576.txt	LTP299	ltpFR2	19	8	BUGGY	188	n/a	n/a	0	0	0
1454049	WORD	wordpools/wasnorm_wordpool_576.txt	LTP299	ltpFR2	19	8	BRICK	172	n/a	n/a	0	0	0
1456534	WORD	wordpools/wasnorm_wordpool_576.txt	LTP299	ltpFR2	19	8	BLUEPRINT	142	n/a	n/a	0	0	0
1459303	WORD	wordpools/wasnorm_wordpool_576.txt	LTP299	ltpFR2	19	8	WIDOW	1608	n/a	n/a	0	0	0
1461790	WORD	wordpools/wasnorm_wordpool_576.txt	LTP299	ltpFR2	19	8	WORLD	1622	n/a	n/a	0	0	0
1464625	WORD	wordpools/wasnorm_wordpool_576.txt	LTP299	ltpFR2	19	8	WAITRESS	1581	n/a	n/a	0	0	0
1466243	START	n/a	LTP299	ltpFR2	19	n/a	n/a	n/a	12	n/a	n/a	n/a	n/a
1467245	DISTRACTOR	n/a	LTP299	ltpFR2	19	8	n/a	n/a	n/a	n/a	0	0	0
1467277	PROB	n/a	LTP299	ltpFR2	19	n/a	n/a	n/a	12	14	6	2	6
1469212	PROB	n/a	LTP299	ltpFR2	19	n/a	n/a	n/a	12	16	3	5	8
1472115	PROB	n/a	LTP299	ltpFR2	19	n/a	n/a	n/a	12	12	7	3	2
1474567	PROB	n/a	LTP299	ltpFR2	19	n/a	n/a	n/a	12	13	2	2	9
1476285	PROB	n/a	LTP299	ltpFR2	19	n/a	n/a	n/a	12	13	4	7	2
1478503	PROB	n/a	LTP299	ltpFR2	19	n/a	n/a	n/a	12	21	6	8	7
1481841	PROB	n/a	LTP299	ltpFR2	19	n/a	n/a	n/a	12	14	7	1	6
1483691	PROB	n/a	LTP299	ltpFR2	19	n/a	n/a	n/a	12	4	2	1	1
1484777	PROB	n/a	LTP299	ltpFR2	19	n/a	n/a	n/a	12	15	2	7	6
1486360	PROB	n/a	LTP299	ltpFR2	19	n/a	n/a	n/a	12	12	8	1	3
1488329	PROB	n/a	LTP299	ltpFR2	19	n/a	n/a	n/a	12	14	4	2	8
1490151	STOP	n/a	LTP299	ltpFR2	19	n/a	n/a	n/a	12	n/a	n/a	n/a	n/a
1492250	REC_START	n/a	LTP299	ltpFR2	19	8	n/a	n/a	n/a	n/a	0	0	0
1495885	REC_WORD	wordpools/wasnorm_wordpool_576.txt	LTP299	ltpFR2	19	8	BLUEPRINT	142	n/a	n/a	0	0	0
1498519	REC_WORD	wordpools/wasnorm_wordpool_576.txt	LTP299	ltpFR2	19	8	BRICK	172	n/a	n/a	0	0	0
1503291	REC_WORD	wordpools/wasnorm_wordpool_576.txt	LTP299	ltpFR2	19	8	BUGGY	188	n/a	n/a	0	0	0
1514491	REC_WORD	wordpools/wasnorm_wordpool_576.txt	LTP299	ltpFR2	19	8	LASER	801	n/a	n/a	0	0	0
1527103	REC_WORD	wordpools/wasnorm_wordpool_576.txt	LTP299	ltpFR2	19	8	WORLD	1622	n/a	n/a	0	0	0
1531213	REC_WORD	wordpools/wasnorm_wordpool_576.txt	LTP299	ltpFR2	19	8	SCULPTURE	1258	n/a	n/a	0	0	0
1532319	REC_WORD	wordpools/wasnorm_wordpool_576.txt	LTP299	ltpFR2	19	8	INFANT	737	n/a	n/a	0	0	0
1533750	REC_WORD	wordpools/wasnorm_wordpool_576.txt	LTP299	ltpFR2	19	8	WRIST	1626	n/a	n/a	0	0	0
1534840	REC_WORD	wordpools/wasnorm_wordpool_576.txt	LTP299	ltpFR2	19	8	BACKBONE	66	n/a	n/a	0	0	0
1536122	REC_WORD	wordpools/wasnorm_wordpool_576.txt	LTP299	ltpFR2	19	8	MARROW	872	n/a	n/a	0	0	0
1568800	REST_REWET	n/a	LTP299	ltpFR2	19	8	n/a	n/a	n/a	n/a	0	0	0
1917787	WORD	wordpools/wasnorm_wordpool_576.txt	LTP299	ltpFR2	19	9	BUTCHER	203	n/a	n/a	0	0	0
1920338	WORD	wordpools/wasnorm_wordpool_576.txt	LTP299	ltpFR2	19	9	NEUTRON	947	n/a	n/a	0	0	0
1922974	WORD	wordpools/wasnorm_wordpool_576.txt	LTP299	ltpFR2	19	9	BUCKET	184	n/a	n/a	0	0	0
1925609	WORD	wordpools/wasnorm_wordpool_576.txt	LTP299	ltpFR2	19	9	LABEL	790	n/a	n/a	0	0	0
1928395	WORD	wordpools/wasnorm_wordpool_576.txt	LTP299	ltpFR2	19	9	NOVEL	960	n/a	n/a	0	0	0
1931214	WORD	wordpools/wasnorm_wordpool_576.txt	LTP299	ltpFR2	19	9	BANQUET	86	n/a	n/a	0	0	0
1933983	WORD	wordpools/wasnorm_wordpool_576.txt	LTP299	ltpFR2	19	9	CUPBOARD	425	n/a	n/a	0	0	0
1936719	WORD	wordpools/wasnorm_wordpool_576.txt	LTP299	ltpFR2	19	9	CANAL	226	n/a	n/a	0	0	0
1939438	WORD	wordpools/wasnorm_wordpool_576.txt	LTP299	ltpFR2	19	9	GAVEL	627	n/a	n/a	0	0	0
1941990	WORD	wordpools/wasnorm_wordpool_576.txt	LTP299	ltpFR2	19	9	PLIERS	1089	n/a	n/a	0	0	0
1944609	WORD	wordpools/wasnorm_wordpool_576.txt	LTP299	ltpFR2	19	9	VIKING	1565	n/a	n/a	0	0	0
1947128	WORD	wordpools/wasnorm_wordpool_576.txt	LTP299	ltpFR2	19	9	ANKLE	24	n/a	n/a	0	0	0
1949947	WORD	wordpools/wasnorm_wordpool_576.txt	LTP299	ltpFR2	19	9	BANJO	82	n/a	n/a	0	0	0
1952700	WORD	wordpools/wasnorm_wordpool_576.txt	LTP299	ltpFR2	19	9	SCARECROW	1245	n/a	n/a	0	0	0
1955352	WORD	wordpools/wasnorm_wordpool_576.txt	LTP299	ltpFR2	19	9	BARLEY	88	n/a	n/a	0	0	0
1958154	WORD	wordpools/wasnorm_wordpool_576.txt	LTP299	ltpFR2	19	9	SWITCH	1422	n/a	n/a	0	0	0
1960808	WORD	wordpools/wasnorm_wordpool_576.txt	LTP299	ltpFR2	19	9	ITEM	746	n/a	n/a	0	0	0
1963342	WORD	wordpools/wasnorm_wordpool_576.txt	LTP299	ltpFR2	19	9	STAR	1373	n/a	n/a	0	0	0
1966145	WORD	wordpools/wasnorm_wordpool_576.txt	LTP299	ltpFR2	19	9	TOURIST	1488	n/a	n/a	0	0	0
1968915	WORD	wordpools/wasnorm_wordpool_576.txt	LTP299	ltpFR2	19	9	PASSAGE	1019	n/a	n/a	0	0	0
1971633	WORD	wordpools/wasnorm_wordpool_576.txt	LTP299	ltpFR2	19	9	ACTRESS	6	n/a	n/a	0	0	0
1974435	WORD	wordpools/wasnorm_wordpool_576.txt	LTP299	ltpFR2	19	9	STATUE	1374	n/a	n/a	0	0	0
1977171	WORD	wordpools/wasnorm_wordpool_576.txt	LTP299	ltpFR2	19	9	BRANDY	169	n/a	n/a	0	0	0
1979807	WORD	wordpools/wasnorm_wordpool_576.txt	LTP299	ltpFR2	19	9	COCKTAIL	338	n/a	n/a	0	0	0
1981425	START	n/a	LTP299	ltpFR2	19	n/a	n/a	n/a	13	n/a	n/a	n/a	n/a
1982519	DISTRACTOR	n/a	LTP299	ltpFR2	19	9	n/a	n/a	n/a	n/a	0	0	0
1982525	PROB	n/a	LTP299	ltpFR2	19	n/a	n/a	n/a	13	16	4	4	8
1984043	PROB	n/a	LTP299	ltpFR2	19	n/a	n/a	n/a	13	17	9	4	4
1985796	PROB	n/a	LTP299	ltpFR2	19	n/a	n/a	n/a	13	22	9	7	6
1987647	PROB	n/a	LTP299	ltpFR2	19	n/a	n/a	n/a	13	14	7	6	1
1989131	PROB	n/a	LTP299	ltpFR2	19	n/a	n/a	n/a	13	22	4	9	9
1990767	PROB	n/a	LTP299	ltpFR2	19	n/a	n/a	n/a	13	9	3	2	4
1992451	PROB	n/a	LTP299	ltpFR2	19	n/a	n/a	n/a	13	17	1	7	9
1994636	PROB	n/a	LTP299	ltpFR2	19	n/a	n/a	n/a	13	14	7	2	5
1996337	PROB	n/a	LTP299	ltpFR2	19	n/a	n/a	n/a	13	20	8	8	4
1997722	PROB	n/a	LTP299	ltpFR2	19	n/a	n/a	n/a	13	18	7	6	5
1999640	PROB	n/a	LTP299	ltpFR2	19	n/a	n/a	n/a	13	21	9	5	7
2002693	PROB	n/a	LTP299	ltpFR2	19	n/a	n/a	n/a	13	19	5	9	5
2004059	STOP	n/a	LTP299	ltpFR2	19	n/a	n/a	n/a	13	n/a	n/a	n/a	n/a
2007314	REC_START	n/a	LTP299	ltpFR2	19	9	n/a	n/a	n/a	n/a	0	0	0
2010002	REC_WORD	wordpools/wasnorm_wordpool_576.txt	LTP299	ltpFR2	19	9	STAR	1373	n/a	n/a	0	0	0
2011013	REC_WORD	wordpools/wasnorm_wordpool_576.txt	LTP299	ltpFR2	19	9	TOURIST	1488	n/a	n/a	0	0	0
2012040	REC_WORD	wordpools/wasnorm_wordpool_576.txt	LTP299	ltpFR2	19	9	ACTRESS	6	n/a	n/a	0	0	0
2013672	REC_WORD	wordpools/wasnorm_wordpool_576.txt	LTP299	ltpFR2	19	9	STATUE	1374	n/a	n/a	0	0	0
2014876	REC_WORD	wordpools/wasnorm_wordpool_576.txt	LTP299	ltpFR2	19	9	COCKTAIL	338	n/a	n/a	0	0	0
2015831	REC_WORD	wordpools/wasnorm_wordpool_576.txt	LTP299	ltpFR2	19	9	BRANDY	169	n/a	n/a	0	0	0
2063709	REC_WORD	wordpools/wasnorm_wordpool_576.txt	LTP299	ltpFR2	19	9	BARLEY	88	n/a	n/a	0	0	0
2065192	REC_WORD	wordpools/wasnorm_wordpool_576.txt	LTP299	ltpFR2	19	9	NEUTRON	947	n/a	n/a	0	0	0
2065945	REC_WORD	wordpools/wasnorm_wordpool_576.txt	LTP299	ltpFR2	19	9	BUTCHER	203	n/a	n/a	0	0	0
2066692	REC_WORD	wordpools/wasnorm_wordpool_576.txt	LTP299	ltpFR2	19	9	BUCKET	184	n/a	n/a	0	0	0
2097910	DISTRACTOR	n/a	LTP299	ltpFR2	19	10	n/a	n/a	n/a	n/a	0	0	0
2097910	START	n/a	LTP299	ltpFR2	19	n/a	n/a	n/a	14	n/a	n/a	n/a	n/a
2097944	PROB	n/a	LTP299	ltpFR2	19	n/a	n/a	n/a	14	15	3	4	8
2100829	PROB	n/a	LTP299	ltpFR2	19	n/a	n/a	n/a	14	12	4	7	1
2102781	PROB	n/a	LTP299	ltpFR2	19	n/a	n/a	n/a	14	20	8	9	3
2104800	PROB	n/a	LTP299	ltpFR2	19	n/a	n/a	n/a	14	12	4	5	3
2106751	PROB	n/a	LTP299	ltpFR2	19	n/a	n/a	n/a	14	19	9	6	4
2108051	PROB	n/a	LTP299	ltpFR2	19	n/a	n/a	n/a	14	15	4	5	6
2109686	PROB	n/a	LTP299	ltpFR2	19	n/a	n/a	n/a	14	9	4	2	2
2110888	PROB	n/a	LTP299	ltpFR2	19	n/a	n/a	n/a	14	21	4	8	9
2113089	PROB	n/a	LTP299	ltpFR2	19	n/a	n/a	n/a	14	17	9	4	4
2114842	PROB	n/a	LTP299	ltpFR2	19	n/a	n/a	n/a	14	20	5	8	7
2116659	PROB	n/a	LTP299	ltpFR2	19	n/a	n/a	n/a	14	11	6	2	3
2118327	PROB	n/a	LTP299	ltpFR2	19	n/a	n/a	n/a	14	18	4	5	9
2121910	STOP	n/a	LTP299	ltpFR2	19	n/a	n/a	n/a	14	n/a	n/a	n/a	n/a
2123048	WORD	wordpools/wasnorm_wordpool_576.txt	LTP299	ltpFR2	19	10	MACHINE	852	n/a	n/a	0	0	0
2125734	WORD	wordpools/wasnorm_wordpool_576.txt	LTP299	ltpFR2	19	10	ROD	1203	n/a	n/a	0	0	0
2128536	WORD	wordpools/wasnorm_wordpool_576.txt	LTP299	ltpFR2	19	10	LOFT	840	n/a	n/a	0	0	0
2130988	WORD	wordpools/wasnorm_wordpool_576.txt	LTP299	ltpFR2	19	10	ROCKET	1202	n/a	n/a	0	0	0
2133775	WORD	wordpools/wasnorm_wordpool_576.txt	LTP299	ltpFR2	19	10	YOLK	1633	n/a	n/a	0	0	0
2136226	WORD	wordpools/wasnorm_wordpool_576.txt	LTP299	ltpFR2	19	10	HOUND	724	n/a	n/a	0	0	0
2138812	WORD	wordpools/wasnorm_wordpool_576.txt	LTP299	ltpFR2	19	10	TILE	1468	n/a	n/a	0	0	0
2141297	WORD	wordpools/wasnorm_wordpool_576.txt	LTP299	ltpFR2	19	10	SURVEY	1414	n/a	n/a	0	0	0
2144049	WORD	wordpools/wasnorm_wordpool_576.txt	LTP299	ltpFR2	19	10	PEDAL	1037	n/a	n/a	0	0	0
2146702	WORD	wordpools/wasnorm_wordpool_576.txt	LTP299	ltpFR2	19	10	MOTEL	919	n/a	n/a	0	0	0
2149254	WORD	wordpools/wasnorm_wordpool_576.txt	LTP299	ltpFR2	19	10	MILK	895	n/a	n/a	0	0	0
2151723	WORD	wordpools/wasnorm_wordpool_576.txt	LTP299	ltpFR2	19	10	FLOWER	584	n/a	n/a	0	0	0
2154175	WORD	wordpools/wasnorm_wordpool_576.txt	LTP299	ltpFR2	19	10	GARDEN	623	n/a	n/a	0	0	0
2156878	WORD	wordpools/wasnorm_wordpool_576.txt	LTP299	ltpFR2	19	10	ARMY	39	n/a	n/a	0	0	0
2159363	WORD	wordpools/wasnorm_wordpool_576.txt	LTP299	ltpFR2	19	10	BLACKBOARD	133	n/a	n/a	0	0	0
2162149	WORD	wordpools/wasnorm_wordpool_576.txt	LTP299	ltpFR2	19	10	PROTON	1132	n/a	n/a	0	0	0
2164852	WORD	wordpools/wasnorm_wordpool_576.txt	LTP299	ltpFR2	19	10	GROUND	666	n/a	n/a	0	0	0
2167503	WORD	wordpools/wasnorm_wordpool_576.txt	LTP299	ltpFR2	19	10	TART	1436	n/a	n/a	0	0	0
2170155	WORD	wordpools/wasnorm_wordpool_576.txt	LTP299	ltpFR2	19	10	ROBOT	1200	n/a	n/a	0	0	0
2172775	WORD	wordpools/wasnorm_wordpool_576.txt	LTP299	ltpFR2	19	10	HANDBAG	684	n/a	n/a	0	0	0
2175377	WORD	wordpools/wasnorm_wordpool_576.txt	LTP299	ltpFR2	19	10	KNAPSACK	783	n/a	n/a	0	0	0
2178096	WORD	wordpools/wasnorm_wordpool_576.txt	LTP299	ltpFR2	19	10	STONE	1385	n/a	n/a	0	0	0
2180766	WORD	wordpools/wasnorm_wordpool_576.txt	LTP299	ltpFR2	19	10	CONCERT	360	n/a	n/a	0	0	0
2183500	WORD	wordpools/wasnorm_wordpool_576.txt	LTP299	ltpFR2	19	10	COLONEL	348	n/a	n/a	0	0	0
2185119	START	n/a	LTP299	ltpFR2	19	n/a	n/a	n/a	15	n/a	n/a	n/a	n/a
2186143	DISTRACTOR	n/a	LTP299	ltpFR2	19	10	n/a	n/a	n/a	n/a	0	0	0
2186169	PROB	n/a	LTP299	ltpFR2	19	n/a	n/a	n/a	15	19	1	9	9
2188054	PROB	n/a	LTP299	ltpFR2	19	n/a	n/a	n/a	15	8	2	3	3
2191257	PROB	n/a	LTP299	ltpFR2	19	n/a	n/a	n/a	15	17	6	5	6
2193659	PROB	n/a	LTP299	ltpFR2	19	n/a	n/a	n/a	15	16	6	1	9
2195527	PROB	n/a	LTP299	ltpFR2	19	n/a	n/a	n/a	15	13	7	3	3
2196913	PROB	n/a	LTP299	ltpFR2	19	n/a	n/a	n/a	15	16	9	4	3
2198932	PROB	n/a	LTP299	ltpFR2	19	n/a	n/a	n/a	15	13	7	4	2
2201099	PROB	n/a	LTP299	ltpFR2	19	n/a	n/a	n/a	15	20	2	9	9
2202634	PROB	n/a	LTP299	ltpFR2	19	n/a	n/a	n/a	15	15	4	2	9
2204202	PROB	n/a	LTP299	ltpFR2	19	n/a	n/a	n/a	15	12	1	7	4
2206304	PROB	n/a	LTP299	ltpFR2	19	n/a	n/a	n/a	15	20	8	6	6
2207659	STOP	n/a	LTP299	ltpFR2	19	n/a	n/a	n/a	15	n/a	n/a	n/a	n/a
2211058	REC_START	n/a	LTP299	ltpFR2	19	10	n/a	n/a	n/a	n/a	0	0	0
2211742	REC_WORD	wordpools/wasnorm_wordpool_576.txt	LTP299	ltpFR2	19	10	KNAPSACK	783	n/a	n/a	0	0	0
2212718	REC_WORD	wordpools/wasnorm_wordpool_576.txt	LTP299	ltpFR2	19	10	STONE	1385	n/a	n/a	0	0	0
2213776	REC_WORD	wordpools/wasnorm_wordpool_576.txt	LTP299	ltpFR2	19	10	COLONEL	348	n/a	n/a	0	0	0
2247952	REC_WORD	wordpools/wasnorm_wordpool_576.txt	LTP299	ltpFR2	19	10	PROTON	1132	n/a	n/a	0	0	0
2259137	REC_WORD	wordpools/wasnorm_wordpool_576.txt	LTP299	ltpFR2	19	10	HANDBAG	684	n/a	n/a	0	0	0
2301536	WORD	wordpools/wasnorm_wordpool_576.txt	LTP299	ltpFR2	19	11	POLICE	1098	n/a	n/a	0	0	0
2304272	WORD	wordpools/wasnorm_wordpool_576.txt	LTP299	ltpFR2	19	11	FLASK	576	n/a	n/a	0	0	0
2307025	WORD	wordpools/wasnorm_wordpool_576.txt	LTP299	ltpFR2	19	11	PERFUME	1049	n/a	n/a	0	0	0
2309745	WORD	wordpools/wasnorm_wordpool_576.txt	LTP299	ltpFR2	19	11	PUDDLE	1140	n/a	n/a	0	0	0
2312196	WORD	wordpools/wasnorm_wordpool_576.txt	LTP299	ltpFR2	19	11	GRAVEL	659	n/a	n/a	0	0	0
2314681	WORD	wordpools/wasnorm_wordpool_576.txt	LTP299	ltpFR2	19	11	ASIA	46	n/a	n/a	0	0	0
2317517	WORD	wordpools/wasnorm_wordpool_576.txt	LTP299	ltpFR2	19	11	LONDON	843	n/a	n/a	0	0	0
2320253	WORD	wordpools/wasnorm_wordpool_576.txt	LTP299	ltpFR2	19	11	BURGLAR	200	n/a	n/a	0	0	0
2323039	WORD	wordpools/wasnorm_wordpool_576.txt	LTP299	ltpFR2	19	11	TORTOISE	1486	n/a	n/a	0	0	0
2325624	WORD	wordpools/wasnorm_wordpool_576.txt	LTP299	ltpFR2	19	11	PASTA	1021	n/a	n/a	0	0	0
2328260	WORD	wordpools/wasnorm_wordpool_576.txt	LTP299	ltpFR2	19	11	ONION	977	n/a	n/a	0	0	0
2330913	WORD	wordpools/wasnorm_wordpool_576.txt	LTP299	ltpFR2	19	11	COFFEE	341	n/a	n/a	0	0	0
2333648	WORD	wordpools/wasnorm_wordpool_576.txt	LTP299	ltpFR2	19	11	HEART	697	n/a	n/a	0	0	0
2336100	WORD	wordpools/wasnorm_wordpool_576.txt	LTP299	ltpFR2	19	11	PRINCE	1124	n/a	n/a	0	0	0
2338937	WORD	wordpools/wasnorm_wordpool_576.txt	LTP299	ltpFR2	19	11	CORAL	378	n/a	n/a	0	0	0
2341555	WORD	wordpools/wasnorm_wordpool_576.txt	LTP299	ltpFR2	19	11	CASHEW	253	n/a	n/a	0	0	0
2344374	WORD	wordpools/wasnorm_wordpool_576.txt	LTP299	ltpFR2	19	11	PECAN	1036	n/a	n/a	0	0	0
2346877	WORD	wordpools/wasnorm_wordpool_576.txt	LTP299	ltpFR2	19	11	ANTLER	29	n/a	n/a	0	0	0
2349495	WORD	wordpools/wasnorm_wordpool_576.txt	LTP299	ltpFR2	19	11	CARRIAGE	248	n/a	n/a	0	0	0
2352297	WORD	wordpools/wasnorm_wordpool_576.txt	LTP299	ltpFR2	19	11	BLENDER	136	n/a	n/a	0	0	0
2354983	WORD	wordpools/wasnorm_wordpool_576.txt	LTP299	ltpFR2	19	11	HELMET	702	n/a	n/a	0	0	0
2357652	WORD	wordpools/wasnorm_wordpool_576.txt	LTP299	ltpFR2	19	11	SPARROW	1347	n/a	n/a	0	0	0
2360121	WORD	wordpools/wasnorm_wordpool_576.txt	LTP299	ltpFR2	19	11	MATCH	878	n/a	n/a	0	0	0
2362908	WORD	wordpools/wasnorm_wordpool_576.txt	LTP299	ltpFR2	19	11	GAZELLE	628	n/a	n/a	0	0	0
2364525	START	n/a	LTP299	ltpFR2	19	n/a	n/a	n/a	16	n/a	n/a	n/a	n/a
2365577	DISTRACTOR	n/a	LTP299	ltpFR2	19	11	n/a	n/a	n/a	n/a	0	0	0
2365592	PROB	n/a	LTP299	ltpFR2	19	n/a	n/a	n/a	16	16	4	8	4
2367544	PROB	n/a	LTP299	ltpFR2	19	n/a	n/a	n/a	16	17	4	8	5
2369880	PROB	n/a	LTP299	ltpFR2	19	n/a	n/a	n/a	16	11	1	6	4
2371280	PROB	n/a	LTP299	ltpFR2	19	n/a	n/a	n/a	16	16	2	9	5
2372799	PROB	n/a	LTP299	ltpFR2	19	n/a	n/a	n/a	16	18	7	9	2
2374517	PROB	n/a	LTP299	ltpFR2	19	n/a	n/a	n/a	16	12	4	2	6
2376151	PROB	n/a	LTP299	ltpFR2	19	n/a	n/a	n/a	16	15	1	8	6
2377419	PROB	n/a	LTP299	ltpFR2	19	n/a	n/a	n/a	16	18	1	9	8
2378805	PROB	n/a	LTP299	ltpFR2	19	n/a	n/a	n/a	16	18	6	9	3
2381172	PROB	n/a	LTP299	ltpFR2	19	n/a	n/a	n/a	16	14	4	9	1
2382507	PROB	n/a	LTP299	ltpFR2	19	n/a	n/a	n/a	16	12	3	4	5
2384092	PROB	n/a	LTP299	ltpFR2	19	n/a	n/a	n/a	16	10	2	4	4
2385460	PROB	n/a	LTP299	ltpFR2	19	n/a	n/a	n/a	16	13	7	1	5
2387210	STOP	n/a	LTP299	ltpFR2	19	n/a	n/a	n/a	16	n/a	n/a	n/a	n/a
2390464	REC_START	n/a	LTP299	ltpFR2	19	11	n/a	n/a	n/a	n/a	0	0	0
2391965	REC_WORD	wordpools/wasnorm_wordpool_576.txt	LTP299	ltpFR2	19	11	CORAL	378	n/a	n/a	0	0	0
2393287	REC_WORD	wordpools/wasnorm_wordpool_576.txt	LTP299	ltpFR2	19	11	MATCH	878	n/a	n/a	0	0	0
2395423	REC_WORD	wordpools/wasnorm_wordpool_576.txt	LTP299	ltpFR2	19	11	GAZELLE	628	n/a	n/a	0	0	0
2396295	REC_WORD	wordpools/wasnorm_wordpool_576.txt	LTP299	ltpFR2	19	11	ANTLER	29	n/a	n/a	0	0	0
2400389	REC_WORD	wordpools/wasnorm_wordpool_576.txt	LTP299	ltpFR2	19	11	BURGLAR	200	n/a	n/a	0	0	0
2402979	REC_WORD	wordpools/wasnorm_wordpool_576.txt	LTP299	ltpFR2	19	11	LONDON	843	n/a	n/a	0	0	0
2404349	REC_WORD	wordpools/wasnorm_wordpool_576.txt	LTP299	ltpFR2	19	11	POLICE	1098	n/a	n/a	0	0	0
2405508	REC_WORD	wordpools/wasnorm_wordpool_576.txt	LTP299	ltpFR2	19	11	ASIA	46	n/a	n/a	0	0	0
2407085	REC_WORD	wordpools/wasnorm_wordpool_576.txt	LTP299	ltpFR2	19	11	PUDDLE	1140	n/a	n/a	0	0	0
2480910	WORD	wordpools/wasnorm_wordpool_576.txt	LTP299	ltpFR2	19	12	ARM	38	n/a	n/a	0	0	0
2483512	WORD	wordpools/wasnorm_wordpool_576.txt	LTP299	ltpFR2	19	12	MEDAL	885	n/a	n/a	0	0	0
2486030	WORD	wordpools/wasnorm_wordpool_576.txt	LTP299	ltpFR2	19	12	FRECKLE	602	n/a	n/a	0	0	0
2488516	WORD	wordpools/wasnorm_wordpool_576.txt	LTP299	ltpFR2	19	12	SANDWICH	1232	n/a	n/a	0	0	0
2490968	WORD	wordpools/wasnorm_wordpool_576.txt	LTP299	ltpFR2	19	12	TUBA	1515	n/a	n/a	0	0	0
2493738	WORD	wordpools/wasnorm_wordpool_576.txt	LTP299	ltpFR2	19	12	CHAPEL	280	n/a	n/a	0	0	0
2496373	WORD	wordpools/wasnorm_wordpool_576.txt	LTP299	ltpFR2	19	12	BULLET	194	n/a	n/a	0	0	0
2499158	WORD	wordpools/wasnorm_wordpool_576.txt	LTP299	ltpFR2	19	12	HAND	683	n/a	n/a	0	0	0
2501912	WORD	wordpools/wasnorm_wordpool_576.txt	LTP299	ltpFR2	19	12	MISTER	901	n/a	n/a	0	0	0
2504663	WORD	wordpools/wasnorm_wordpool_576.txt	LTP299	ltpFR2	19	12	KNIFE	785	n/a	n/a	0	0	0
2507115	WORD	wordpools/wasnorm_wordpool_576.txt	LTP299	ltpFR2	19	12	BRACES	164	n/a	n/a	0	0	0
2509701	WORD	wordpools/wasnorm_wordpool_576.txt	LTP299	ltpFR2	19	12	BOUQUET	157	n/a	n/a	0	0	0
2512503	WORD	wordpools/wasnorm_wordpool_576.txt	LTP299	ltpFR2	19	12	PEANUT	1032	n/a	n/a	0	0	0
2515272	WORD	wordpools/wasnorm_wordpool_576.txt	LTP299	ltpFR2	19	12	CAFE	216	n/a	n/a	0	0	0
2517842	WORD	wordpools/wasnorm_wordpool_576.txt	LTP299	ltpFR2	19	12	FLIPPER	580	n/a	n/a	0	0	0
2520611	WORD	wordpools/wasnorm_wordpool_576.txt	LTP299	ltpFR2	19	12	HOOK	715	n/a	n/a	0	0	0
2523263	WORD	wordpools/wasnorm_wordpool_576.txt	LTP299	ltpFR2	19	12	CLAMP	316	n/a	n/a	0	0	0
2525899	WORD	wordpools/wasnorm_wordpool_576.txt	LTP299	ltpFR2	19	12	WASHER	1592	n/a	n/a	0	0	0
2528434	WORD	wordpools/wasnorm_wordpool_576.txt	LTP299	ltpFR2	19	12	SPOON	1357	n/a	n/a	0	0	0
2531020	WORD	wordpools/wasnorm_wordpool_576.txt	LTP299	ltpFR2	19	12	CONVICT	371	n/a	n/a	0	0	0
2533605	WORD	wordpools/wasnorm_wordpool_576.txt	LTP299	ltpFR2	19	12	DRAGON	492	n/a	n/a	0	0	0
2536358	WORD	wordpools/wasnorm_wordpool_576.txt	LTP299	ltpFR2	19	12	CURTAIN	427	n/a	n/a	0	0	0
2539043	WORD	wordpools/wasnorm_wordpool_576.txt	LTP299	ltpFR2	19	12	WINDOW	1611	n/a	n/a	0	0	0
2541495	WORD	wordpools/wasnorm_wordpool_576.txt	LTP299	ltpFR2	19	12	LAVA	804	n/a	n/a	0	0	0
2543114	START	n/a	LTP299	ltpFR2	19	n/a	n/a	n/a	17	n/a	n/a	n/a	n/a
2544003	DISTRACTOR	n/a	LTP299	ltpFR2	19	12	n/a	n/a	n/a	n/a	0	0	0
2544014	PROB	n/a	LTP299	ltpFR2	19	n/a	n/a	n/a	17	22	9	9	4
2545934	PROB	n/a	LTP299	ltpFR2	19	n/a	n/a	n/a	17	15	7	6	2
2549302	PROB	n/a	LTP299	ltpFR2	19	n/a	n/a	n/a	17	16	4	7	5
2551387	PROB	n/a	LTP299	ltpFR2	19	n/a	n/a	n/a	17	7	2	1	4
2553172	PROB	n/a	LTP299	ltpFR2	19	n/a	n/a	n/a	17	25	8	9	8
2555975	PROB	n/a	LTP299	ltpFR2	19	n/a	n/a	n/a	17	17	6	6	5
2557777	PROB	n/a	LTP299	ltpFR2	19	n/a	n/a	n/a	17	16	6	1	9
2559644	PROB	n/a	LTP299	ltpFR2	19	n/a	n/a	n/a	17	11	2	5	4
2560996	PROB	n/a	LTP299	ltpFR2	19	n/a	n/a	n/a	17	21	5	9	7
2564449	PROB	n/a	LTP299	ltpFR2	19	n/a	n/a	n/a	17	16	7	1	8
2565874	STOP	n/a	LTP299	ltpFR2	19	n/a	n/a	n/a	17	n/a	n/a	n/a	n/a
2568970	REC_START	n/a	LTP299	ltpFR2	19	12	n/a	n/a	n/a	n/a	0	0	0
2570150	REC_WORD	wordpools/wasnorm_wordpool_576.txt	LTP299	ltpFR2	19	12	SPOON	1357	n/a	n/a	0	0	0
2571167	REC_WORD	wordpools/wasnorm_wordpool_576.txt	LTP299	ltpFR2	19	12	CONVICT	371	n/a	n/a	0	0	0
2572280	REC_WORD	wordpools/wasnorm_wordpool_576.txt	LTP299	ltpFR2	19	12	WINDOW	1611	n/a	n/a	0	0	0
2573229	REC_WORD	wordpools/wasnorm_wordpool_576.txt	LTP299	ltpFR2	19	12	DRAGON	492	n/a	n/a	0	0	0
2574221	REC_WORD	wordpools/wasnorm_wordpool_576.txt	LTP299	ltpFR2	19	12	LAVA	804	n/a	n/a	0	0	0
2588889	REC_WORD	wordpools/wasnorm_wordpool_576.txt	LTP299	ltpFR2	19	12	ARM	38	n/a	n/a	0	0	0
2592524	REC_WORD	wordpools/wasnorm_wordpool_576.txt	LTP299	ltpFR2	19	12	FRECKLE	602	n/a	n/a	0	0	0
2659598	DISTRACTOR	n/a	LTP299	ltpFR2	19	13	n/a	n/a	n/a	n/a	0	0	0
2659598	START	n/a	LTP299	ltpFR2	19	n/a	n/a	n/a	18	n/a	n/a	n/a	n/a
2659632	PROB	n/a	LTP299	ltpFR2	19	n/a	n/a	n/a	18	11	4	3	4
2662300	PROB	n/a	LTP299	ltpFR2	19	n/a	n/a	n/a	18	22	6	9	8
2666070	PROB	n/a	LTP299	ltpFR2	19	n/a	n/a	n/a	18	10	3	4	3
2667572	PROB	n/a	LTP299	ltpFR2	19	n/a	n/a	n/a	18	13	2	5	6
2669273	PROB	n/a	LTP299	ltpFR2	19	n/a	n/a	n/a	18	15	9	2	4
2670792	PROB	n/a	LTP299	ltpFR2	19	n/a	n/a	n/a	18	19	8	8	3
2672426	PROB	n/a	LTP299	ltpFR2	19	n/a	n/a	n/a	18	12	5	3	4
2673878	PROB	n/a	LTP299	ltpFR2	19	n/a	n/a	n/a	18	25	7	9	9
2675512	PROB	n/a	LTP299	ltpFR2	19	n/a	n/a	n/a	18	14	2	7	5
2677013	PROB	n/a	LTP299	ltpFR2	19	n/a	n/a	n/a	18	16	9	4	3
2679299	PROB	n/a	LTP299	ltpFR2	19	n/a	n/a	n/a	18	21	7	9	5
2681317	PROB	n/a	LTP299	ltpFR2	19	n/a	n/a	n/a	18	16	4	5	9
2682782	STOP	n/a	LTP299	ltpFR2	19	n/a	n/a	n/a	18	n/a	n/a	n/a	n/a
2684720	WORD	wordpools/wasnorm_wordpool_576.txt	LTP299	ltpFR2	19	13	TRUCK	1512	n/a	n/a	0	0	0
2687489	WORD	wordpools/wasnorm_wordpool_576.txt	LTP299	ltpFR2	19	13	VALVE	1546	n/a	n/a	0	0	0
2690275	WORD	wordpools/wasnorm_wordpool_576.txt	LTP299	ltpFR2	19	13	ATOM	55	n/a	n/a	0	0	0
2692895	WORD	wordpools/wasnorm_wordpool_576.txt	LTP299	ltpFR2	19	13	MAILBOX	857	n/a	n/a	0	0	0
2695446	WORD	wordpools/wasnorm_wordpool_576.txt	LTP299	ltpFR2	19	13	SCRIBBLE	1256	n/a	n/a	0	0	0
2697933	WORD	wordpools/wasnorm_wordpool_576.txt	LTP299	ltpFR2	19	13	CHIPMUNK	304	n/a	n/a	0	0	0
2700500	WORD	wordpools/wasnorm_wordpool_576.txt	LTP299	ltpFR2	19	13	GRAPE	654	n/a	n/a	0	0	0
2702986	WORD	wordpools/wasnorm_wordpool_576.txt	LTP299	ltpFR2	19	13	PEACH	1031	n/a	n/a	0	0	0
2705421	WORD	wordpools/wasnorm_wordpool_576.txt	LTP299	ltpFR2	19	13	JOURNAL	760	n/a	n/a	0	0	0
2707924	WORD	wordpools/wasnorm_wordpool_576.txt	LTP299	ltpFR2	19	13	SUMMIT	1405	n/a	n/a	0	0	0
2710459	WORD	wordpools/wasnorm_wordpool_576.txt	LTP299	ltpFR2	19	13	LAMP	798	n/a	n/a	0	0	0
2713061	WORD	wordpools/wasnorm_wordpool_576.txt	LTP299	ltpFR2	19	13	BINDER	127	n/a	n/a	0	0	0
2715664	WORD	wordpools/wasnorm_wordpool_576.txt	LTP299	ltpFR2	19	13	CHEMIST	292	n/a	n/a	0	0	0
2718266	WORD	wordpools/wasnorm_wordpool_576.txt	LTP299	ltpFR2	19	13	TWIG	1527	n/a	n/a	0	0	0
2720736	WORD	wordpools/wasnorm_wordpool_576.txt	LTP299	ltpFR2	19	13	OUTDOORS	987	n/a	n/a	0	0	0
2723220	WORD	wordpools/wasnorm_wordpool_576.txt	LTP299	ltpFR2	19	13	SCISSORS	1250	n/a	n/a	0	0	0
2725807	WORD	wordpools/wasnorm_wordpool_576.txt	LTP299	ltpFR2	19	13	GIRL	637	n/a	n/a	0	0	0
2728625	WORD	wordpools/wasnorm_wordpool_576.txt	LTP299	ltpFR2	19	13	FILM	565	n/a	n/a	0	0	0
2731177	WORD	wordpools/wasnorm_wordpool_576.txt	LTP299	ltpFR2	19	13	COCOON	339	n/a	n/a	0	0	0
2733747	WORD	wordpools/wasnorm_wordpool_576.txt	LTP299	ltpFR2	19	13	FLASHLIGHT	575	n/a	n/a	0	0	0
2736265	WORD	wordpools/wasnorm_wordpool_576.txt	LTP299	ltpFR2	19	13	DIVER	476	n/a	n/a	0	0	0
2738735	WORD	wordpools/wasnorm_wordpool_576.txt	LTP299	ltpFR2	19	13	FEMALE	559	n/a	n/a	0	0	0
2741386	WORD	wordpools/wasnorm_wordpool_576.txt	LTP299	ltpFR2	19	13	SKETCH	1315	n/a	n/a	0	0	0
2744022	WORD	wordpools/wasnorm_wordpool_576.txt	LTP299	ltpFR2	19	13	CONTRACT	368	n/a	n/a	0	0	0
2745640	START	n/a	LTP299	ltpFR2	19	n/a	n/a	n/a	19	n/a	n/a	n/a	n/a
2746674	DISTRACTOR	n/a	LTP299	ltpFR2	19	13	n/a	n/a	n/a	n/a	0	0	0
2746691	PROB	n/a	LTP299	ltpFR2	19	n/a	n/a	n/a	19	24	8	9	7
2749928	PROB	n/a	LTP299	ltpFR2	19	n/a	n/a	n/a	19	8	4	1	3
2751428	PROB	n/a	LTP299	ltpFR2	19	n/a	n/a	n/a	19	6	4	1	1
2752562	PROB	n/a	LTP299	ltpFR2	19	n/a	n/a	n/a	19	20	7	8	5
2754581	PROB	n/a	LTP299	ltpFR2	19	n/a	n/a	n/a	19	11	2	7	2
2756516	PROB	n/a	LTP299	ltpFR2	19	n/a	n/a	n/a	19	17	3	7	7
2758034	PROB	n/a	LTP299	ltpFR2	19	n/a	n/a	n/a	19	7	1	5	1
2759235	PROB	n/a	LTP299	ltpFR2	19	n/a	n/a	n/a	19	13	7	3	3
2760503	PROB	n/a	LTP299	ltpFR2	19	n/a	n/a	n/a	19	23	5	9	9
2762721	PROB	n/a	LTP299	ltpFR2	19	n/a	n/a	n/a	19	9	6	1	2
2765040	PROB	n/a	LTP299	ltpFR2	19	n/a	n/a	n/a	19	13	6	6	1
2766424	PROB	n/a	LTP299	ltpFR2	19	n/a	n/a	n/a	19	18	7	2	9
2767843	PROB	n/a	LTP299	ltpFR2	19	n/a	n/a	n/a	19	14	8	4	2
2769321	STOP	n/a	LTP299	ltpFR2	19	n/a	n/a	n/a	19	n/a	n/a	n/a	n/a
2771429	REC_START	n/a	LTP299	ltpFR2	19	13	n/a	n/a	n/a	n/a	0	0	0
2773883	REC_WORD	wordpools/wasnorm_wordpool_576.txt	LTP299	ltpFR2	19	13	TRUCK	1512	n/a	n/a	0	0	0
2774771	REC_WORD	wordpools/wasnorm_wordpool_576.txt	LTP299	ltpFR2	19	13	SUMMIT	1405	n/a	n/a	0	0	0
2775746	REC_WORD	wordpools/wasnorm_wordpool_576.txt	LTP299	ltpFR2	19	13	BINDER	127	n/a	n/a	0	0	0
2776581	REC_WORD	wordpools/wasnorm_wordpool_576.txt	LTP299	ltpFR2	19	13	JOURNAL	760	n/a	n/a	0	0	0
2777424	REC_WORD	wordpools/wasnorm_wordpool_576.txt	LTP299	ltpFR2	19	13	LAMP	798	n/a	n/a	0	0	0
2789772	REC_WORD	wordpools/wasnorm_wordpool_576.txt	LTP299	ltpFR2	19	13	FEMALE	559	n/a	n/a	0	0	0
2862058	DISTRACTOR	n/a	LTP299	ltpFR2	19	14	n/a	n/a	n/a	n/a	0	0	0
2862058	START	n/a	LTP299	ltpFR2	19	n/a	n/a	n/a	20	n/a	n/a	n/a	n/a
2862091	PROB	n/a	LTP299	ltpFR2	19	n/a	n/a	n/a	20	15	1	7	7
2863375	PROB	n/a	LTP299	ltpFR2	19	n/a	n/a	n/a	20	6	2	2	2
2864576	PROB	n/a	LTP299	ltpFR2	19	n/a	n/a	n/a	20	21	9	8	3
2866695	PROB	n/a	LTP299	ltpFR2	19	n/a	n/a	n/a	20	20	8	8	4
2868196	PROB	n/a	LTP299	ltpFR2	19	n/a	n/a	n/a	20	10	2	2	6
2869548	PROB	n/a	LTP299	ltpFR2	19	n/a	n/a	n/a	20	12	9	2	1
2870982	PROB	n/a	LTP299	ltpFR2	19	n/a	n/a	n/a	20	16	8	6	2
2873551	PROB	n/a	LTP299	ltpFR2	19	n/a	n/a	n/a	20	22	7	6	9
2875720	PROB	n/a	LTP299	ltpFR2	19	n/a	n/a	n/a	20	20	9	5	6
2879056	PROB	n/a	LTP299	ltpFR2	19	n/a	n/a	n/a	20	15	7	3	5
2881174	PROB	n/a	LTP299	ltpFR2	19	n/a	n/a	n/a	20	21	3	9	9
2882559	PROB	n/a	LTP299	ltpFR2	19	n/a	n/a	n/a	20	13	2	3	8
2886058	STOP	n/a	LTP299	ltpFR2	19	n/a	n/a	n/a	20	n/a	n/a	n/a	n/a
2887230	WORD	wordpools/wasnorm_wordpool_576.txt	LTP299	ltpFR2	19	14	MEAT	883	n/a	n/a	0	0	0
2890015	WORD	wordpools/wasnorm_wordpool_576.txt	LTP299	ltpFR2	19	14	GLASS	639	n/a	n/a	0	0	0
2892735	WORD	wordpools/wasnorm_wordpool_576.txt	LTP299	ltpFR2	19	14	LODGE	839	n/a	n/a	0	0	0
2895220	WORD	wordpools/wasnorm_wordpool_576.txt	LTP299	ltpFR2	19	14	POISON	1096	n/a	n/a	0	0	0
2897790	WORD	wordpools/wasnorm_wordpool_576.txt	LTP299	ltpFR2	19	14	SLIDE	1326	n/a	n/a	0	0	0
2900608	WORD	wordpools/wasnorm_wordpool_576.txt	LTP299	ltpFR2	19	14	EMPIRE	530	n/a	n/a	0	0	0
2903093	WORD	wordpools/wasnorm_wordpool_576.txt	LTP299	ltpFR2	19	14	PUPPY	1144	n/a	n/a	0	0	0
2905747	WORD	wordpools/wasnorm_wordpool_576.txt	LTP299	ltpFR2	19	14	NOTEBOOK	959	n/a	n/a	0	0	0
2908398	WORD	wordpools/wasnorm_wordpool_576.txt	LTP299	ltpFR2	19	14	ACTOR	5	n/a	n/a	0	0	0
2911050	WORD	wordpools/wasnorm_wordpool_576.txt	LTP299	ltpFR2	19	14	OZONE	996	n/a	n/a	0	0	0
2913820	WORD	wordpools/wasnorm_wordpool_576.txt	LTP299	ltpFR2	19	14	SLUG	1329	n/a	n/a	0	0	0
2916305	WORD	wordpools/wasnorm_wordpool_576.txt	LTP299	ltpFR2	19	14	DRAWING	494	n/a	n/a	0	0	0
2919141	WORD	wordpools/wasnorm_wordpool_576.txt	LTP299	ltpFR2	19	14	VELVET	1555	n/a	n/a	0	0	0
2921726	WORD	wordpools/wasnorm_wordpool_576.txt	LTP299	ltpFR2	19	14	KIDNEY	776	n/a	n/a	0	0	0
2924295	WORD	wordpools/wasnorm_wordpool_576.txt	LTP299	ltpFR2	19	14	BRIEFCASE	175	n/a	n/a	0	0	0
2927064	WORD	wordpools/wasnorm_wordpool_576.txt	LTP299	ltpFR2	19	14	SILK	1307	n/a	n/a	0	0	0
2929533	WORD	wordpools/wasnorm_wordpool_576.txt	LTP299	ltpFR2	19	14	JUGGLER	763	n/a	n/a	0	0	0
2932035	WORD	wordpools/wasnorm_wordpool_576.txt	LTP299	ltpFR2	19	14	PIZZA	1079	n/a	n/a	0	0	0
2934721	WORD	wordpools/wasnorm_wordpool_576.txt	LTP299	ltpFR2	19	14	TOMBSTONE	1478	n/a	n/a	0	0	0
2937557	WORD	wordpools/wasnorm_wordpool_576.txt	LTP299	ltpFR2	19	14	BALLOON	75	n/a	n/a	0	0	0
2940109	WORD	wordpools/wasnorm_wordpool_576.txt	LTP299	ltpFR2	19	14	RECORD	1176	n/a	n/a	0	0	0
2942661	WORD	wordpools/wasnorm_wordpool_576.txt	LTP299	ltpFR2	19	14	BROOK	177	n/a	n/a	0	0	0
2945197	WORD	wordpools/wasnorm_wordpool_576.txt	LTP299	ltpFR2	19	14	KITCHEN	778	n/a	n/a	0	0	0
2947715	WORD	wordpools/wasnorm_wordpool_576.txt	LTP299	ltpFR2	19	14	COOKBOOK	373	n/a	n/a	0	0	0
2949317	START	n/a	LTP299	ltpFR2	19	n/a	n/a	n/a	21	n/a	n/a	n/a	n/a
2950431	DISTRACTOR	n/a	LTP299	ltpFR2	19	14	n/a	n/a	n/a	n/a	0	0	0
2950435	PROB	n/a	LTP299	ltpFR2	19	n/a	n/a	n/a	21	16	7	3	6
2952320	PROB	n/a	LTP299	ltpFR2	19	n/a	n/a	n/a	21	16	4	8	4
2954104	PROB	n/a	LTP299	ltpFR2	19	n/a	n/a	n/a	21	16	4	6	6
2955606	PROB	n/a	LTP299	ltpFR2	19	n/a	n/a	n/a	21	18	6	4	8
2956891	PROB	n/a	LTP299	ltpFR2	19	n/a	n/a	n/a	21	14	7	2	5
2958658	PROB	n/a	LTP299	ltpFR2	19	n/a	n/a	n/a	21	16	6	4	6
2960828	PROB	n/a	LTP299	ltpFR2	19	n/a	n/a	n/a	21	19	4	6	9
2963012	PROB	n/a	LTP299	ltpFR2	19	n/a	n/a	n/a	21	12	1	9	2
2964180	PROB	n/a	LTP299	ltpFR2	19	n/a	n/a	n/a	21	17	5	8	4
2966498	PROB	n/a	LTP299	ltpFR2	19	n/a	n/a	n/a	21	16	8	7	1
2967966	PROB	n/a	LTP299	ltpFR2	19	n/a	n/a	n/a	21	10	2	4	4
2969118	PROB	n/a	LTP299	ltpFR2	19	n/a	n/a	n/a	21	25	9	7	9
2972073	STOP	n/a	LTP299	ltpFR2	19	n/a	n/a	n/a	21	n/a	n/a	n/a	n/a
2975140	REC_START	n/a	LTP299	ltpFR2	19	14	n/a	n/a	n/a	n/a	0	0	0
2976910	REC_WORD	wordpools/wasnorm_wordpool_576.txt	LTP299	ltpFR2	19	14	BRIEFCASE	175	n/a	n/a	0	0	0
2978288	REC_WORD	wordpools/wasnorm_wordpool_576.txt	LTP299	ltpFR2	19	14	GLASS	639	n/a	n/a	0	0	0
2979256	REC_WORD	wordpools/wasnorm_wordpool_576.txt	LTP299	ltpFR2	19	14	MEAT	883	n/a	n/a	0	0	0
2980359	REC_WORD	wordpools/wasnorm_wordpool_576.txt	LTP299	ltpFR2	19	14	POISON	1096	n/a	n/a	0	0	0
2981276	REC_WORD	wordpools/wasnorm_wordpool_576.txt	LTP299	ltpFR2	19	14	SLUG	1329	n/a	n/a	0	0	0
2982373	REC_WORD	wordpools/wasnorm_wordpool_576.txt	LTP299	ltpFR2	19	14	OZONE	996	n/a	n/a	0	0	0
2983411	REC_WORD	wordpools/wasnorm_wordpool_576.txt	LTP299	ltpFR2	19	14	ACTOR	5	n/a	n/a	0	0	0
2984492	REC_WORD	wordpools/wasnorm_wordpool_576.txt	LTP299	ltpFR2	19	14	NOTEBOOK	959	n/a	n/a	0	0	0
2990441	REC_WORD	wordpools/wasnorm_wordpool_576.txt	LTP299	ltpFR2	19	14	VELVET	1555	n/a	n/a	0	0	0
2991481	REC_WORD	wordpools/wasnorm_wordpool_576.txt	LTP299	ltpFR2	19	14	KIDNEY	776	n/a	n/a	0	0	0
3065769	DISTRACTOR	n/a	LTP299	ltpFR2	19	15	n/a	n/a	n/a	n/a	0	0	0
3065770	START	n/a	LTP299	ltpFR2	19	n/a	n/a	n/a	22	n/a	n/a	n/a	n/a
3065803	PROB	n/a	LTP299	ltpFR2	19	n/a	n/a	n/a	22	10	3	1	6
3067069	PROB	n/a	LTP299	ltpFR2	19	n/a	n/a	n/a	22	11	7	2	2
3069538	PROB	n/a	LTP299	ltpFR2	19	n/a	n/a	n/a	22	22	8	8	6
3072090	PROB	n/a	LTP299	ltpFR2	19	n/a	n/a	n/a	22	14	1	8	5
3073475	PROB	n/a	LTP299	ltpFR2	19	n/a	n/a	n/a	22	10	1	4	5
3074676	PROB	n/a	LTP299	ltpFR2	19	n/a	n/a	n/a	22	7	2	3	2
3076194	PROB	n/a	LTP299	ltpFR2	19	n/a	n/a	n/a	22	14	6	7	1
3077695	PROB	n/a	LTP299	ltpFR2	19	n/a	n/a	n/a	22	11	3	2	6
3079297	PROB	n/a	LTP299	ltpFR2	19	n/a	n/a	n/a	22	21	9	8	4
3081015	PROB	n/a	LTP299	ltpFR2	19	n/a	n/a	n/a	22	17	4	7	6
3082983	PROB	n/a	LTP299	ltpFR2	19	n/a	n/a	n/a	22	13	1	8	4
3084385	PROB	n/a	LTP299	ltpFR2	19	n/a	n/a	n/a	22	14	1	5	8
3086453	PROB	n/a	LTP299	ltpFR2	19	n/a	n/a	n/a	22	9	3	5	1
3089770	STOP	n/a	LTP299	ltpFR2	19	n/a	n/a	n/a	22	n/a	n/a	n/a	n/a
3090640	WORD	wordpools/wasnorm_wordpool_576.txt	LTP299	ltpFR2	19	15	LAKE	796	n/a	n/a	0	0	0
3093226	WORD	wordpools/wasnorm_wordpool_576.txt	LTP299	ltpFR2	19	15	NECKLACE	940	n/a	n/a	0	0	0
3095711	WORD	wordpools/wasnorm_wordpool_576.txt	LTP299	ltpFR2	19	15	SHERIFF	1284	n/a	n/a	0	0	0
3098497	WORD	wordpools/wasnorm_wordpool_576.txt	LTP299	ltpFR2	19	15	SPONGE	1355	n/a	n/a	0	0	0
3101199	WORD	wordpools/wasnorm_wordpool_576.txt	LTP299	ltpFR2	19	15	CABIN	211	n/a	n/a	0	0	0
3103919	WORD	wordpools/wasnorm_wordpool_576.txt	LTP299	ltpFR2	19	15	DAUGHTER	442	n/a	n/a	0	0	0
3106387	WORD	wordpools/wasnorm_wordpool_576.txt	LTP299	ltpFR2	19	15	FOREST	593	n/a	n/a	0	0	0
3109073	WORD	wordpools/wasnorm_wordpool_576.txt	LTP299	ltpFR2	19	15	LUMBER	848	n/a	n/a	0	0	0
3111743	WORD	wordpools/wasnorm_wordpool_576.txt	LTP299	ltpFR2	19	15	JAPAN	749	n/a	n/a	0	0	0
3114344	WORD	wordpools/wasnorm_wordpool_576.txt	LTP299	ltpFR2	19	15	CRAYON	401	n/a	n/a	0	0	0
3117063	WORD	wordpools/wasnorm_wordpool_576.txt	LTP299	ltpFR2	19	15	ZEBRA	1635	n/a	n/a	0	0	0
3119833	WORD	wordpools/wasnorm_wordpool_576.txt	LTP299	ltpFR2	19	15	MAMMAL	861	n/a	n/a	0	0	0
3122318	WORD	wordpools/wasnorm_wordpool_576.txt	LTP299	ltpFR2	19	15	PATIENT	1024	n/a	n/a	0	0	0
3125120	WORD	wordpools/wasnorm_wordpool_576.txt	LTP299	ltpFR2	19	15	SHORTS	1293	n/a	n/a	0	0	0
3127656	WORD	wordpools/wasnorm_wordpool_576.txt	LTP299	ltpFR2	19	15	OUTLAW	989	n/a	n/a	0	0	0
3130174	WORD	wordpools/wasnorm_wordpool_576.txt	LTP299	ltpFR2	19	15	THIEF	1456	n/a	n/a	0	0	0
3132894	WORD	wordpools/wasnorm_wordpool_576.txt	LTP299	ltpFR2	19	15	PANTHER	1009	n/a	n/a	0	0	0
3135496	WORD	wordpools/wasnorm_wordpool_576.txt	LTP299	ltpFR2	19	15	EAGLE	512	n/a	n/a	0	0	0
3138332	WORD	wordpools/wasnorm_wordpool_576.txt	LTP299	ltpFR2	19	15	RECEIPT	1173	n/a	n/a	0	0	0
3140950	WORD	wordpools/wasnorm_wordpool_576.txt	LTP299	ltpFR2	19	15	TROUT	1511	n/a	n/a	0	0	0
3143720	WORD	wordpools/wasnorm_wordpool_576.txt	LTP299	ltpFR2	19	15	STREAM	1392	n/a	n/a	0	0	0
3146338	WORD	wordpools/wasnorm_wordpool_576.txt	LTP299	ltpFR2	19	15	PAIL	1002	n/a	n/a	0	0	0
3148991	WORD	wordpools/wasnorm_wordpool_576.txt	LTP299	ltpFR2	19	15	CLIMBER	323	n/a	n/a	0	0	0
3151593	WORD	wordpools/wasnorm_wordpool_576.txt	LTP299	ltpFR2	19	15	POSSUM	1112	n/a	n/a	0	0	0
3153211	START	n/a	LTP299	ltpFR2	19	n/a	n/a	n/a	23	n/a	n/a	n/a	n/a
3154057	DISTRACTOR	n/a	LTP299	ltpFR2	19	15	n/a	n/a	n/a	n/a	0	0	0
3154079	PROB	n/a	LTP299	ltpFR2	19	n/a	n/a	n/a	23	21	5	8	8
3155814	PROB	n/a	LTP299	ltpFR2	19	n/a	n/a	n/a	23	12	5	1	6
3157231	PROB	n/a	LTP299	ltpFR2	19	n/a	n/a	n/a	23	17	7	8	2
3158616	PROB	n/a	LTP299	ltpFR2	19	n/a	n/a	n/a	23	18	6	9	3
3160634	PROB	n/a	LTP299	ltpFR2	19	n/a	n/a	n/a	23	16	6	1	9
3162319	PROB	n/a	LTP299	ltpFR2	19	n/a	n/a	n/a	23	14	9	2	3
3164237	PROB	n/a	LTP299	ltpFR2	19	n/a	n/a	n/a	23	15	8	4	3
3166356	PROB	n/a	LTP299	ltpFR2	19	n/a	n/a	n/a	23	12	8	3	1
3167858	PROB	n/a	LTP299	ltpFR2	19	n/a	n/a	n/a	23	9	3	4	2
3170794	PROB	n/a	LTP299	ltpFR2	19	n/a	n/a	n/a	23	6	3	1	2
3172578	PROB	n/a	LTP299	ltpFR2	19	n/a	n/a	n/a	23	9	2	5	2
3173897	PROB	n/a	LTP299	ltpFR2	19	n/a	n/a	n/a	23	14	9	2	3
3177211	STOP	n/a	LTP299	ltpFR2	19	n/a	n/a	n/a	23	n/a	n/a	n/a	n/a
3179168	REC_START	n/a	LTP299	ltpFR2	19	15	n/a	n/a	n/a	n/a	0	0	0
3181657	REC_WORD	wordpools/wasnorm_wordpool_576.txt	LTP299	ltpFR2	19	15	POSSUM	1112	n/a	n/a	0	0	0
3182753	REC_WORD	wordpools/wasnorm_wordpool_576.txt	LTP299	ltpFR2	19	15	THIEF	1456	n/a	n/a	0	0	0
3187327	REC_WORD	wordpools/wasnorm_wordpool_576.txt	LTP299	ltpFR2	19	15	PANTHER	1009	n/a	n/a	0	0	0
3188069	REC_WORD	wordpools/wasnorm_wordpool_576.txt	LTP299	ltpFR2	19	15	EAGLE	512	n/a	n/a	0	0	0
3191392	REC_WORD	wordpools/wasnorm_wordpool_576.txt	LTP299	ltpFR2	19	15	ZEBRA	1635	n/a	n/a	0	0	0
3192053	REC_WORD	wordpools/wasnorm_wordpool_576.txt	LTP299	ltpFR2	19	15	CRAYON	401	n/a	n/a	0	0	0
3193351	REC_WORD	wordpools/wasnorm_wordpool_576.txt	LTP299	ltpFR2	19	15	TROUT	1511	n/a	n/a	0	0	0
3194046	REC_WORD	wordpools/wasnorm_wordpool_576.txt	LTP299	ltpFR2	19	15	STREAM	1392	n/a	n/a	0	0	0
3196586	REC_WORD	wordpools/wasnorm_wordpool_576.txt	LTP299	ltpFR2	19	15	CLIMBER	323	n/a	n/a	0	0	0
3198201	REC_WORD	wordpools/wasnorm_wordpool_576.txt	LTP299	ltpFR2	19	15	LAKE	796	n/a	n/a	0	0	0
3211100	REC_WORD	wordpools/wasnorm_wordpool_576.txt	LTP299	ltpFR2	19	15	SHERIFF	1284	n/a	n/a	0	0	0
3211968	REC_WORD	wordpools/wasnorm_wordpool_576.txt	LTP299	ltpFR2	19	15	SPONGE	1355	n/a	n/a	0	0	0
3212864	REC_WORD	wordpools/wasnorm_wordpool_576.txt	LTP299	ltpFR2	19	15	CABIN	211	n/a	n/a	0	0	0
3213649	REC_WORD	wordpools/wasnorm_wordpool_576.txt	LTP299	ltpFR2	19	15	DAUGHTER	442	n/a	n/a	0	0	0
3214618	REC_WORD	wordpools/wasnorm_wordpool_576.txt	LTP299	ltpFR2	19	15	SHORTS	1293	n/a	n/a	0	0	0
3223356	REC_WORD	wordpools/wasnorm_wordpool_576.txt	LTP299	ltpFR2	19	15	OUTLAW	989	n/a	n/a	0	0	0
3229588	REC_WORD	wordpools/wasnorm_wordpool_576.txt	LTP299	ltpFR2	19	15	JAPAN	749	n/a	n/a	0	0	0
3230432	REC_WORD	wordpools/wasnorm_wordpool_576.txt	LTP299	ltpFR2	19	15	FOREST	593	n/a	n/a	0	0	0
3232076	REC_WORD	wordpools/wasnorm_wordpool_576.txt	LTP299	ltpFR2	19	15	LUMBER	848	n/a	n/a	0	0	0
3269679	WORD	wordpools/wasnorm_wordpool_576.txt	LTP299	ltpFR2	19	16	JUNGLE	764	n/a	n/a	0	0	0
3272215	WORD	wordpools/wasnorm_wordpool_576.txt	LTP299	ltpFR2	19	16	EXPERT	543	n/a	n/a	0	0	0
3274735	WORD	wordpools/wasnorm_wordpool_576.txt	LTP299	ltpFR2	19	16	TABLET	1427	n/a	n/a	0	0	0
3277553	WORD	wordpools/wasnorm_wordpool_576.txt	LTP299	ltpFR2	19	16	CLAM	315	n/a	n/a	0	0	0
3280372	WORD	wordpools/wasnorm_wordpool_576.txt	LTP299	ltpFR2	19	16	OYSTER	995	n/a	n/a	0	0	0
3283191	WORD	wordpools/wasnorm_wordpool_576.txt	LTP299	ltpFR2	19	16	DRUG	501	n/a	n/a	0	0	0
3285960	WORD	wordpools/wasnorm_wordpool_576.txt	LTP299	ltpFR2	19	16	CRICKET	408	n/a	n/a	0	0	0
3288479	WORD	wordpools/wasnorm_wordpool_576.txt	LTP299	ltpFR2	19	16	SPACE	1345	n/a	n/a	0	0	0
3291265	WORD	wordpools/wasnorm_wordpool_576.txt	LTP299	ltpFR2	19	16	COMET	353	n/a	n/a	0	0	0
3293885	WORD	wordpools/wasnorm_wordpool_576.txt	LTP299	ltpFR2	19	16	EUROPE	541	n/a	n/a	0	0	0
3296419	WORD	wordpools/wasnorm_wordpool_576.txt	LTP299	ltpFR2	19	16	CARROT	249	n/a	n/a	0	0	0
3299021	WORD	wordpools/wasnorm_wordpool_576.txt	LTP299	ltpFR2	19	16	POET	1095	n/a	n/a	0	0	0
3301741	WORD	wordpools/wasnorm_wordpool_576.txt	LTP299	ltpFR2	19	16	LEOPARD	812	n/a	n/a	0	0	0
3304393	WORD	wordpools/wasnorm_wordpool_576.txt	LTP299	ltpFR2	19	16	RATTLE	1170	n/a	n/a	0	0	0
3307212	WORD	wordpools/wasnorm_wordpool_576.txt	LTP299	ltpFR2	19	16	AIRPLANE	12	n/a	n/a	0	0	0
3310014	WORD	wordpools/wasnorm_wordpool_576.txt	LTP299	ltpFR2	19	16	IDOL	733	n/a	n/a	0	0	0
3312617	WORD	wordpools/wasnorm_wordpool_576.txt	LTP299	ltpFR2	19	16	TUNNEL	1519	n/a	n/a	0	0	0
3315169	WORD	wordpools/wasnorm_wordpool_576.txt	LTP299	ltpFR2	19	16	BANKER	84	n/a	n/a	0	0	0
3317739	WORD	wordpools/wasnorm_wordpool_576.txt	LTP299	ltpFR2	19	16	SIBLING	1301	n/a	n/a	0	0	0
3320223	WORD	wordpools/wasnorm_wordpool_576.txt	LTP299	ltpFR2	19	16	SODA	1341	n/a	n/a	0	0	0
3322675	WORD	wordpools/wasnorm_wordpool_576.txt	LTP299	ltpFR2	19	16	PIMPLE	1071	n/a	n/a	0	0	0
3325394	WORD	wordpools/wasnorm_wordpool_576.txt	LTP299	ltpFR2	19	16	COIN	343	n/a	n/a	0	0	0
3328163	WORD	wordpools/wasnorm_wordpool_576.txt	LTP299	ltpFR2	19	16	SHELTER	1282	n/a	n/a	0	0	0
3330750	WORD	wordpools/wasnorm_wordpool_576.txt	LTP299	ltpFR2	19	16	DORM	488	n/a	n/a	0	0	0
3332367	START	n/a	LTP299	ltpFR2	19	n/a	n/a	n/a	24	n/a	n/a	n/a	n/a
3333389	DISTRACTOR	n/a	LTP299	ltpFR2	19	16	n/a	n/a	n/a	n/a	0	0	0
3333401	PROB	n/a	LTP299	ltpFR2	19	n/a	n/a	n/a	24	12	4	1	7
3335353	PROB	n/a	LTP299	ltpFR2	19	n/a	n/a	n/a	24	4	1	2	1
3336671	PROB	n/a	LTP299	ltpFR2	19	n/a	n/a	n/a	24	18	7	8	3
3338973	PROB	n/a	LTP299	ltpFR2	19	n/a	n/a	n/a	24	11	6	4	1
3340191	PROB	n/a	LTP299	ltpFR2	19	n/a	n/a	n/a	24	22	8	6	8
3342960	PROB	n/a	LTP299	ltpFR2	19	n/a	n/a	n/a	24	13	1	3	9
3344711	PROB	n/a	LTP299	ltpFR2	19	n/a	n/a	n/a	24	10	1	3	6
3346496	PROB	n/a	LTP299	ltpFR2	19	n/a	n/a	n/a	24	16	1	6	9
3348281	PROB	n/a	LTP299	ltpFR2	19	n/a	n/a	n/a	24	15	3	5	7
3349649	PROB	n/a	LTP299	ltpFR2	19	n/a	n/a	n/a	24	12	1	9	2
3350917	PROB	n/a	LTP299	ltpFR2	19	n/a	n/a	n/a	24	8	1	2	5
3352468	PROB	n/a	LTP299	ltpFR2	19	n/a	n/a	n/a	24	14	2	8	4
3353753	PROB	n/a	LTP299	ltpFR2	19	n/a	n/a	n/a	24	20	4	8	8
3355168	STOP	n/a	LTP299	ltpFR2	19	n/a	n/a	n/a	24	n/a	n/a	n/a	n/a
3358257	REC_START	n/a	LTP299	ltpFR2	19	16	n/a	n/a	n/a	n/a	0	0	0
3359590	REC_WORD	wordpools/wasnorm_wordpool_576.txt	LTP299	ltpFR2	19	16	SIBLING	1301	n/a	n/a	0	0	0
3360797	REC_WORD	wordpools/wasnorm_wordpool_576.txt	LTP299	ltpFR2	19	16	PIMPLE	1071	n/a	n/a	0	0	0
3362237	REC_WORD	wordpools/wasnorm_wordpool_576.txt	LTP299	ltpFR2	19	16	DRUG	501	n/a	n/a	0	0	0
3363244	REC_WORD	wordpools/wasnorm_wordpool_576.txt	LTP299	ltpFR2	19	16	CRICKET	408	n/a	n/a	0	0	0
3364377	REC_WORD	wordpools/wasnorm_wordpool_576.txt	LTP299	ltpFR2	19	16	TABLET	1427	n/a	n/a	0	0	0
3365382	REC_WORD	wordpools/wasnorm_wordpool_576.txt	LTP299	ltpFR2	19	16	CLAM	315	n/a	n/a	0	0	0
3366534	REC_WORD	wordpools/wasnorm_wordpool_576.txt	LTP299	ltpFR2	19	16	OYSTER	995	n/a	n/a	0	0	0
3367638	REC_WORD	wordpools/wasnorm_wordpool_576.txt	LTP299	ltpFR2	19	16	JUNGLE	764	n/a	n/a	0	0	0
3368661	REC_WORD	wordpools/wasnorm_wordpool_576.txt	LTP299	ltpFR2	19	16	EXPERT	543	n/a	n/a	0	0	0
3434791	REST_REWET	n/a	LTP299	ltpFR2	19	16	n/a	n/a	n/a	n/a	0	0	0
3758823	WORD	wordpools/wasnorm_wordpool_576.txt	LTP299	ltpFR2	19	17	CIGAR	308	n/a	n/a	0	0	0
3761607	WORD	wordpools/wasnorm_wordpool_576.txt	LTP299	ltpFR2	19	17	FRAGRANCE	599	n/a	n/a	0	0	0
3764243	WORD	wordpools/wasnorm_wordpool_576.txt	LTP299	ltpFR2	19	17	FARMER	553	n/a	n/a	0	0	0
3766896	WORD	wordpools/wasnorm_wordpool_576.txt	LTP299	ltpFR2	19	17	NURSE	963	n/a	n/a	0	0	0
3769598	WORD	wordpools/wasnorm_wordpool_576.txt	LTP299	ltpFR2	19	17	UMPIRE	1535	n/a	n/a	0	0	0
3772283	WORD	wordpools/wasnorm_wordpool_576.txt	LTP299	ltpFR2	19	17	BUNNY	198	n/a	n/a	0	0	0
3775102	WORD	wordpools/wasnorm_wordpool_576.txt	LTP299	ltpFR2	19	17	AGENT	10	n/a	n/a	0	0	0
3777571	WORD	wordpools/wasnorm_wordpool_576.txt	LTP299	ltpFR2	19	17	MATTRESS	879	n/a	n/a	0	0	0
3780390	WORD	wordpools/wasnorm_wordpool_576.txt	LTP299	ltpFR2	19	17	CATTLE	261	n/a	n/a	0	0	0
3782877	WORD	wordpools/wasnorm_wordpool_576.txt	LTP299	ltpFR2	19	17	BEAST	108	n/a	n/a	0	0	0
3785545	WORD	wordpools/wasnorm_wordpool_576.txt	LTP299	ltpFR2	19	17	CREATURE	403	n/a	n/a	0	0	0
3788197	WORD	wordpools/wasnorm_wordpool_576.txt	LTP299	ltpFR2	19	17	LIZARD	834	n/a	n/a	0	0	0
3790800	WORD	wordpools/wasnorm_wordpool_576.txt	LTP299	ltpFR2	19	17	SCALPEL	1243	n/a	n/a	0	0	0
3793252	WORD	wordpools/wasnorm_wordpool_576.txt	LTP299	ltpFR2	19	17	LION	827	n/a	n/a	0	0	0
3796021	WORD	wordpools/wasnorm_wordpool_576.txt	LTP299	ltpFR2	19	17	EGYPT	519	n/a	n/a	0	0	0
3798841	WORD	wordpools/wasnorm_wordpool_576.txt	LTP299	ltpFR2	19	17	STAKE	1368	n/a	n/a	0	0	0
3801525	WORD	wordpools/wasnorm_wordpool_576.txt	LTP299	ltpFR2	19	17	FLUTE	585	n/a	n/a	0	0	0
3804228	WORD	wordpools/wasnorm_wordpool_576.txt	LTP299	ltpFR2	19	17	COURSE	390	n/a	n/a	0	0	0
3806680	WORD	wordpools/wasnorm_wordpool_576.txt	LTP299	ltpFR2	19	17	COLLEGE	346	n/a	n/a	0	0	0
3809366	WORD	wordpools/wasnorm_wordpool_576.txt	LTP299	ltpFR2	19	17	AIRPORT	13	n/a	n/a	0	0	0
3812151	WORD	wordpools/wasnorm_wordpool_576.txt	LTP299	ltpFR2	19	17	JURY	766	n/a	n/a	0	0	0
3814888	WORD	wordpools/wasnorm_wordpool_576.txt	LTP299	ltpFR2	19	17	SPOOL	1356	n/a	n/a	0	0	0
3817489	WORD	wordpools/wasnorm_wordpool_576.txt	LTP299	ltpFR2	19	17	BUREAU	199	n/a	n/a	0	0	0
3820158	WORD	wordpools/wasnorm_wordpool_576.txt	LTP299	ltpFR2	19	17	RIFLE	1192	n/a	n/a	0	0	0
3821777	START	n/a	LTP299	ltpFR2	19	n/a	n/a	n/a	25	n/a	n/a	n/a	n/a
3822830	DISTRACTOR	n/a	LTP299	ltpFR2	19	17	n/a	n/a	n/a	n/a	0	0	0
3822845	PROB	n/a	LTP299	ltpFR2	19	n/a	n/a	n/a	25	14	9	1	4
3824345	PROB	n/a	LTP299	ltpFR2	19	n/a	n/a	n/a	25	17	8	6	3
3827531	PROB	n/a	LTP299	ltpFR2	19	n/a	n/a	n/a	25	9	3	3	3
3828632	PROB	n/a	LTP299	ltpFR2	19	n/a	n/a	n/a	25	14	2	9	3
3830317	PROB	n/a	LTP299	ltpFR2	19	n/a	n/a	n/a	25	15	6	2	7
3832754	PROB	n/a	LTP299	ltpFR2	19	n/a	n/a	n/a	25	16	8	2	6
3834054	PROB	n/a	LTP299	ltpFR2	19	n/a	n/a	n/a	25	8	1	4	3
3835555	PROB	n/a	LTP299	ltpFR2	19	n/a	n/a	n/a	25	16	9	2	5
3837090	PROB	n/a	LTP299	ltpFR2	19	n/a	n/a	n/a	25	14	1	8	5
3838558	PROB	n/a	LTP299	ltpFR2	19	n/a	n/a	n/a	25	21	8	9	4
3841878	PROB	n/a	LTP299	ltpFR2	19	n/a	n/a	n/a	25	14	4	1	9
3845777	STOP	n/a	LTP299	ltpFR2	19	n/a	n/a	n/a	25	n/a	n/a	n/a	n/a
3847566	REC_START	n/a	LTP299	ltpFR2	19	17	n/a	n/a	n/a	n/a	0	0	0
3848903	REC_WORD	wordpools/wasnorm_wordpool_576.txt	LTP299	ltpFR2	19	17	MATTRESS	879	n/a	n/a	0	0	0
3849875	REC_WORD	wordpools/wasnorm_wordpool_576.txt	LTP299	ltpFR2	19	17	BUREAU	199	n/a	n/a	0	0	0
3851581	REC_WORD	wordpools/wasnorm_wordpool_576.txt	LTP299	ltpFR2	19	17	STAKE	1368	n/a	n/a	0	0	0
3871996	REC_WORD	wordpools/wasnorm_wordpool_576.txt	LTP299	ltpFR2	19	17	CIGAR	308	n/a	n/a	0	0	0
3873556	REC_WORD	wordpools/wasnorm_wordpool_576.txt	LTP299	ltpFR2	19	17	FRAGRANCE	599	n/a	n/a	0	0	0
3875376	REC_WORD	wordpools/wasnorm_wordpool_576.txt	LTP299	ltpFR2	19	17	FARMER	553	n/a	n/a	0	0	0
3876874	REC_WORD	wordpools/wasnorm_wordpool_576.txt	LTP299	ltpFR2	19	17	NURSE	963	n/a	n/a	0	0	0
3938028	WORD	wordpools/wasnorm_wordpool_576.txt	LTP299	ltpFR2	19	18	WASP	1593	n/a	n/a	0	0	0
3940663	WORD	wordpools/wasnorm_wordpool_576.txt	LTP299	ltpFR2	19	18	FRANCE	601	n/a	n/a	0	0	0
3943282	WORD	wordpools/wasnorm_wordpool_576.txt	LTP299	ltpFR2	19	18	PRIMATE	1123	n/a	n/a	0	0	0
3945968	WORD	wordpools/wasnorm_wordpool_576.txt	LTP299	ltpFR2	19	18	MAPLE	866	n/a	n/a	0	0	0
3948720	WORD	wordpools/wasnorm_wordpool_576.txt	LTP299	ltpFR2	19	18	ROOSTER	1209	n/a	n/a	0	0	0
3951339	WORD	wordpools/wasnorm_wordpool_576.txt	LTP299	ltpFR2	19	18	DONOR	485	n/a	n/a	0	0	0
3953978	WORD	wordpools/wasnorm_wordpool_576.txt	LTP299	ltpFR2	19	18	SHRUB	1299	n/a	n/a	0	0	0
3956677	WORD	wordpools/wasnorm_wordpool_576.txt	LTP299	ltpFR2	19	18	TEACHER	1440	n/a	n/a	0	0	0
3959199	WORD	wordpools/wasnorm_wordpool_576.txt	LTP299	ltpFR2	19	18	PASTRY	1022	n/a	n/a	0	0	0
3961998	WORD	wordpools/wasnorm_wordpool_576.txt	LTP299	ltpFR2	19	18	ICING	732	n/a	n/a	0	0	0
3964666	WORD	wordpools/wasnorm_wordpool_576.txt	LTP299	ltpFR2	19	18	MARKET	871	n/a	n/a	0	0	0
3967473	WORD	wordpools/wasnorm_wordpool_576.txt	LTP299	ltpFR2	19	18	EYELASH	546	n/a	n/a	0	0	0
3969953	WORD	wordpools/wasnorm_wordpool_576.txt	LTP299	ltpFR2	19	18	LIPSTICK	829	n/a	n/a	0	0	0
3972622	WORD	wordpools/wasnorm_wordpool_576.txt	LTP299	ltpFR2	19	18	PEBBLE	1035	n/a	n/a	0	0	0
3975091	WORD	wordpools/wasnorm_wordpool_576.txt	LTP299	ltpFR2	19	18	FRUIT	610	n/a	n/a	0	0	0
3977710	WORD	wordpools/wasnorm_wordpool_576.txt	LTP299	ltpFR2	19	18	CASKET	255	n/a	n/a	0	0	0
3980329	WORD	wordpools/wasnorm_wordpool_576.txt	LTP299	ltpFR2	19	18	WOMAN	1620	n/a	n/a	0	0	0
3983086	WORD	wordpools/wasnorm_wordpool_576.txt	LTP299	ltpFR2	19	18	WORKER	1621	n/a	n/a	0	0	0
3985834	WORD	wordpools/wasnorm_wordpool_576.txt	LTP299	ltpFR2	19	18	GRAVE	658	n/a	n/a	0	0	0
3988586	WORD	wordpools/wasnorm_wordpool_576.txt	LTP299	ltpFR2	19	18	HORSE	719	n/a	n/a	0	0	0
3991071	WORD	wordpools/wasnorm_wordpool_576.txt	LTP299	ltpFR2	19	18	COSTUME	383	n/a	n/a	0	0	0
3993874	WORD	wordpools/wasnorm_wordpool_576.txt	LTP299	ltpFR2	19	18	DIME	466	n/a	n/a	0	0	0
3996415	WORD	wordpools/wasnorm_wordpool_576.txt	LTP299	ltpFR2	19	18	KEEPER	769	n/a	n/a	0	0	0
3999217	WORD	wordpools/wasnorm_wordpool_576.txt	LTP299	ltpFR2	19	18	LUGGAGE	847	n/a	n/a	0	0	0
4000831	START	n/a	LTP299	ltpFR2	19	n/a	n/a	n/a	26	n/a	n/a	n/a	n/a
4002018	DISTRACTOR	n/a	LTP299	ltpFR2	19	18	n/a	n/a	n/a	n/a	0	0	0
4002029	PROB	n/a	LTP299	ltpFR2	19	n/a	n/a	n/a	26	16	4	9	3
4004581	PROB	n/a	LTP299	ltpFR2	19	n/a	n/a	n/a	26	13	7	4	2
4006752	PROB	n/a	LTP299	ltpFR2	19	n/a	n/a	n/a	26	16	1	8	7
4008218	PROB	n/a	LTP299	ltpFR2	19	n/a	n/a	n/a	26	20	5	6	9
4010302	PROB	n/a	LTP299	ltpFR2	19	n/a	n/a	n/a	26	10	3	5	2
4013037	PROB	n/a	LTP299	ltpFR2	19	n/a	n/a	n/a	26	12	1	5	6
4014355	PROB	n/a	LTP299	ltpFR2	19	n/a	n/a	n/a	26	11	5	5	1
4015440	PROB	n/a	LTP299	ltpFR2	19	n/a	n/a	n/a	26	12	7	3	2
4016857	PROB	n/a	LTP299	ltpFR2	19	n/a	n/a	n/a	26	8	4	3	1
4018158	PROB	n/a	LTP299	ltpFR2	19	n/a	n/a	n/a	26	10	4	4	2
4019259	PROB	n/a	LTP299	ltpFR2	19	n/a	n/a	n/a	26	10	2	4	4
4020460	PROB	n/a	LTP299	ltpFR2	19	n/a	n/a	n/a	26	14	4	4	6
4021960	PROB	n/a	LTP299	ltpFR2	19	n/a	n/a	n/a	26	10	1	5	4
4023402	STOP	n/a	LTP299	ltpFR2	19	n/a	n/a	n/a	26	n/a	n/a	n/a	n/a
4026766	REC_START	n/a	LTP299	ltpFR2	19	18	n/a	n/a	n/a	n/a	0	0	0
4027726	REC_WORD	wordpools/wasnorm_wordpool_576.txt	LTP299	ltpFR2	19	18	DIME	466	n/a	n/a	0	0	0
4028713	REC_WORD	wordpools/wasnorm_wordpool_576.txt	LTP299	ltpFR2	19	18	LUGGAGE	847	n/a	n/a	0	0	0
4029773	REC_WORD	wordpools/wasnorm_wordpool_576.txt	LTP299	ltpFR2	19	18	GRAVE	658	n/a	n/a	0	0	0
4036888	REC_WORD	wordpools/wasnorm_wordpool_576.txt	LTP299	ltpFR2	19	18	KEEPER	769	n/a	n/a	0	0	0
4039966	REC_WORD	wordpools/wasnorm_wordpool_576.txt	LTP299	ltpFR2	19	18	WOMAN	1620	n/a	n/a	0	0	0
4040819	REC_WORD	wordpools/wasnorm_wordpool_576.txt	LTP299	ltpFR2	19	18	PEBBLE	1035	n/a	n/a	0	0	0
4041562	REC_WORD	wordpools/wasnorm_wordpool_576.txt	LTP299	ltpFR2	19	18	LIPSTICK	829	n/a	n/a	0	0	0
4090154	REC_WORD	wordpools/wasnorm_wordpool_576.txt	LTP299	ltpFR2	19	18	PASTRY	1022	n/a	n/a	0	0	0
4091014	REC_WORD	wordpools/wasnorm_wordpool_576.txt	LTP299	ltpFR2	19	18	ICING	732	n/a	n/a	0	0	0
4091836	REC_WORD	wordpools/wasnorm_wordpool_576.txt	LTP299	ltpFR2	19	18	FRANCE	601	n/a	n/a	0	0	0
4093331	REC_WORD	wordpools/wasnorm_wordpool_576.txt	LTP299	ltpFR2	19	18	MAPLE	866	n/a	n/a	0	0	0
4094037	REC_WORD	wordpools/wasnorm_wordpool_576.txt	LTP299	ltpFR2	19	18	SHRUB	1299	n/a	n/a	0	0	0
4117220	DISTRACTOR	n/a	LTP299	ltpFR2	19	19	n/a	n/a	n/a	n/a	0	0	0
4117220	START	n/a	LTP299	ltpFR2	19	n/a	n/a	n/a	27	n/a	n/a	n/a	n/a
4117239	PROB	n/a	LTP299	ltpFR2	19	n/a	n/a	n/a	27	17	1	9	7
4118489	PROB	n/a	LTP299	ltpFR2	19	n/a	n/a	n/a	27	13	1	6	6
4119840	PROB	n/a	LTP299	ltpFR2	19	n/a	n/a	n/a	27	17	9	3	5
4121657	PROB	n/a	LTP299	ltpFR2	19	n/a	n/a	n/a	27	15	6	4	5
4122827	PROB	n/a	LTP299	ltpFR2	19	n/a	n/a	n/a	27	11	4	4	3
4124293	PROB	n/a	LTP299	ltpFR2	19	n/a	n/a	n/a	27	11	2	2	7
4126429	PROB	n/a	LTP299	ltpFR2	19	n/a	n/a	n/a	27	20	7	6	7
4128047	PROB	n/a	LTP299	ltpFR2	19	n/a	n/a	n/a	27	8	1	4	3
4129998	PROB	n/a	LTP299	ltpFR2	19	n/a	n/a	n/a	27	18	8	3	7
4131398	PROB	n/a	LTP299	ltpFR2	19	n/a	n/a	n/a	27	14	4	3	7
4133083	PROB	n/a	LTP299	ltpFR2	19	n/a	n/a	n/a	27	22	9	7	6
4134837	PROB	n/a	LTP299	ltpFR2	19	n/a	n/a	n/a	27	20	8	8	4
4138220	PROB	n/a	LTP299	ltpFR2	19	n/a	n/a	n/a	27	21	9	6	6
4139935	STOP	n/a	LTP299	ltpFR2	19	n/a	n/a	n/a	27	n/a	n/a	n/a	n/a
4142142	WORD	wordpools/wasnorm_wordpool_576.txt	LTP299	ltpFR2	19	19	DANDRUFF	439	n/a	n/a	0	0	0
4144594	WORD	wordpools/wasnorm_wordpool_576.txt	LTP299	ltpFR2	19	19	HEADBAND	696	n/a	n/a	0	0	0
4147179	WORD	wordpools/wasnorm_wordpool_576.txt	LTP299	ltpFR2	19	19	FLAG	573	n/a	n/a	0	0	0
4149898	WORD	wordpools/wasnorm_wordpool_576.txt	LTP299	ltpFR2	19	19	TOASTER	1472	n/a	n/a	0	0	0
4152549	WORD	wordpools/wasnorm_wordpool_576.txt	LTP299	ltpFR2	19	19	RIVER	1194	n/a	n/a	0	0	0
4155202	WORD	wordpools/wasnorm_wordpool_576.txt	LTP299	ltpFR2	19	19	STAMP	1370	n/a	n/a	0	0	0
4157888	WORD	wordpools/wasnorm_wordpool_576.txt	LTP299	ltpFR2	19	19	HOSTESS	723	n/a	n/a	0	0	0
4160539	WORD	wordpools/wasnorm_wordpool_576.txt	LTP299	ltpFR2	19	19	SERVER	1272	n/a	n/a	0	0	0
4163308	WORD	wordpools/wasnorm_wordpool_576.txt	LTP299	ltpFR2	19	19	VALLEY	1545	n/a	n/a	0	0	0
4166061	WORD	wordpools/wasnorm_wordpool_576.txt	LTP299	ltpFR2	19	19	CAMEL	223	n/a	n/a	0	0	0
4168713	WORD	wordpools/wasnorm_wordpool_576.txt	LTP299	ltpFR2	19	19	MARS	873	n/a	n/a	0	0	0
4171184	WORD	wordpools/wasnorm_wordpool_576.txt	LTP299	ltpFR2	19	19	STAPLE	1371	n/a	n/a	0	0	0
4173667	WORD	wordpools/wasnorm_wordpool_576.txt	LTP299	ltpFR2	19	19	SCALLOP	1242	n/a	n/a	0	0	0
4176370	WORD	wordpools/wasnorm_wordpool_576.txt	LTP299	ltpFR2	19	19	BREAST	171	n/a	n/a	0	0	0
4179105	WORD	wordpools/wasnorm_wordpool_576.txt	LTP299	ltpFR2	19	19	MESSAGE	888	n/a	n/a	0	0	0
4181875	WORD	wordpools/wasnorm_wordpool_576.txt	LTP299	ltpFR2	19	19	TRIBE	1505	n/a	n/a	0	0	0
4184343	WORD	wordpools/wasnorm_wordpool_576.txt	LTP299	ltpFR2	19	19	PARENT	1013	n/a	n/a	0	0	0
4187061	WORD	wordpools/wasnorm_wordpool_576.txt	LTP299	ltpFR2	19	19	HUSBAND	728	n/a	n/a	0	0	0
4189814	WORD	wordpools/wasnorm_wordpool_576.txt	LTP299	ltpFR2	19	19	CITRUS	313	n/a	n/a	0	0	0
4192432	WORD	wordpools/wasnorm_wordpool_576.txt	LTP299	ltpFR2	19	19	PLUTO	1092	n/a	n/a	0	0	0
4194885	WORD	wordpools/wasnorm_wordpool_576.txt	LTP299	ltpFR2	19	19	SHORTCAKE	1292	n/a	n/a	0	0	0
4197486	WORD	wordpools/wasnorm_wordpool_576.txt	LTP299	ltpFR2	19	19	MONEY	908	n/a	n/a	0	0	0
4200172	WORD	wordpools/wasnorm_wordpool_576.txt	LTP299	ltpFR2	19	19	RADISH	1158	n/a	n/a	0	0	0
4202792	WORD	wordpools/wasnorm_wordpool_576.txt	LTP299	ltpFR2	19	19	SADDLE	1221	n/a	n/a	0	0	0
4204409	START	n/a	LTP299	ltpFR2	19	n/a	n/a	n/a	28	n/a	n/a	n/a	n/a
4205409	DISTRACTOR	n/a	LTP299	ltpFR2	19	19	n/a	n/a	n/a	n/a	0	0	0
4205414	PROB	n/a	LTP299	ltpFR2	19	n/a	n/a	n/a	28	16	4	9	3
4207844	PROB	n/a	LTP299	ltpFR2	19	n/a	n/a	n/a	28	13	4	4	5
4210413	PROB	n/a	LTP299	ltpFR2	19	n/a	n/a	n/a	28	5	2	2	1
4211629	PROB	n/a	LTP299	ltpFR2	19	n/a	n/a	n/a	28	11	3	3	5
4213047	PROB	n/a	LTP299	ltpFR2	19	n/a	n/a	n/a	28	6	2	3	1
4214448	PROB	n/a	LTP299	ltpFR2	19	n/a	n/a	n/a	28	22	6	9	7
4216717	PROB	n/a	LTP299	ltpFR2	19	n/a	n/a	n/a	28	19	6	9	4
4218485	PROB	n/a	LTP299	ltpFR2	19	n/a	n/a	n/a	28	10	1	3	6
4219703	PROB	n/a	LTP299	ltpFR2	19	n/a	n/a	n/a	28	16	3	8	5
4221706	PROB	n/a	LTP299	ltpFR2	19	n/a	n/a	n/a	28	14	2	6	6
4223122	PROB	n/a	LTP299	ltpFR2	19	n/a	n/a	n/a	28	20	8	5	7
4224974	PROB	n/a	LTP299	ltpFR2	19	n/a	n/a	n/a	28	22	9	9	4
4226914	STOP	n/a	LTP299	ltpFR2	19	n/a	n/a	n/a	28	n/a	n/a	n/a	n/a
4230295	REC_START	n/a	LTP299	ltpFR2	19	19	n/a	n/a	n/a	n/a	0	0	0
4232384	REC_WORD	wordpools/wasnorm_wordpool_576.txt	LTP299	ltpFR2	19	19	MARS	873	n/a	n/a	0	0	0
4238485	REC_WORD	wordpools/wasnorm_wordpool_576.txt	LTP299	ltpFR2	19	19	RIVER	1194	n/a	n/a	0	0	0
4239415	REC_WORD	wordpools/wasnorm_wordpool_576.txt	LTP299	ltpFR2	19	19	VALLEY	1545	n/a	n/a	0	0	0
4240362	REC_WORD	wordpools/wasnorm_wordpool_576.txt	LTP299	ltpFR2	19	19	CAMEL	223	n/a	n/a	0	0	0
4241201	REC_WORD	wordpools/wasnorm_wordpool_576.txt	LTP299	ltpFR2	19	19	STAMP	1370	n/a	n/a	0	0	0
4261043	REC_WORD	wordpools/wasnorm_wordpool_576.txt	LTP299	ltpFR2	19	19	HOSTESS	723	n/a	n/a	0	0	0
4262185	REC_WORD	wordpools/wasnorm_wordpool_576.txt	LTP299	ltpFR2	19	19	SERVER	1272	n/a	n/a	0	0	0
4263133	REC_WORD	wordpools/wasnorm_wordpool_576.txt	LTP299	ltpFR2	19	19	SCALLOP	1242	n/a	n/a	0	0	0
4264214	REC_WORD	wordpools/wasnorm_wordpool_576.txt	LTP299	ltpFR2	19	19	BREAST	171	n/a	n/a	0	0	0
4295408	REC_WORD	wordpools/wasnorm_wordpool_576.txt	LTP299	ltpFR2	19	19	HEADBAND	696	n/a	n/a	0	0	0
4296327	REC_WORD	wordpools/wasnorm_wordpool_576.txt	LTP299	ltpFR2	19	19	DANDRUFF	439	n/a	n/a	0	0	0
4320718	DISTRACTOR	n/a	LTP299	ltpFR2	19	20	n/a	n/a	n/a	n/a	0	0	0
4320718	START	n/a	LTP299	ltpFR2	19	n/a	n/a	n/a	29	n/a	n/a	n/a	n/a
4320735	PROB	n/a	LTP299	ltpFR2	19	n/a	n/a	n/a	29	22	6	8	8
4322968	PROB	n/a	LTP299	ltpFR2	19	n/a	n/a	n/a	29	23	6	9	8
4326390	PROB	n/a	LTP299	ltpFR2	19	n/a	n/a	n/a	29	10	6	2	2
4327673	PROB	n/a	LTP299	ltpFR2	19	n/a	n/a	n/a	29	17	7	3	7
4329059	PROB	n/a	LTP299	ltpFR2	19	n/a	n/a	n/a	29	24	7	9	8
4331088	PROB	n/a	LTP299	ltpFR2	19	n/a	n/a	n/a	29	13	5	2	6
4332729	PROB	n/a	LTP299	ltpFR2	19	n/a	n/a	n/a	29	19	2	8	9
4333946	PROB	n/a	LTP299	ltpFR2	19	n/a	n/a	n/a	29	9	4	2	3
4335759	PROB	n/a	LTP299	ltpFR2	19	n/a	n/a	n/a	29	21	9	5	7
4339930	PROB	n/a	LTP299	ltpFR2	19	n/a	n/a	n/a	29	11	3	1	7
4341849	PROB	n/a	LTP299	ltpFR2	19	n/a	n/a	n/a	29	13	6	1	6
4343294	STOP	n/a	LTP299	ltpFR2	19	n/a	n/a	n/a	29	n/a	n/a	n/a	n/a
4345652	WORD	wordpools/wasnorm_wordpool_576.txt	LTP299	ltpFR2	19	20	SALAD	1224	n/a	n/a	0	0	0
4348405	WORD	wordpools/wasnorm_wordpool_576.txt	LTP299	ltpFR2	19	20	KETCHUP	771	n/a	n/a	0	0	0
4350924	WORD	wordpools/wasnorm_wordpool_576.txt	LTP299	ltpFR2	19	20	LADDER	793	n/a	n/a	0	0	0
4353392	WORD	wordpools/wasnorm_wordpool_576.txt	LTP299	ltpFR2	19	20	APPLE	33	n/a	n/a	0	0	0
4356128	WORD	wordpools/wasnorm_wordpool_576.txt	LTP299	ltpFR2	19	20	DRESS	495	n/a	n/a	0	0	0
4358864	WORD	wordpools/wasnorm_wordpool_576.txt	LTP299	ltpFR2	19	20	WIFE	1609	n/a	n/a	0	0	0
4361483	WORD	wordpools/wasnorm_wordpool_576.txt	LTP299	ltpFR2	19	20	DRESSER	496	n/a	n/a	0	0	0
4364053	WORD	wordpools/wasnorm_wordpool_576.txt	LTP299	ltpFR2	19	20	PIGEON	1065	n/a	n/a	0	0	0
4366537	WORD	wordpools/wasnorm_wordpool_576.txt	LTP299	ltpFR2	19	20	BODY	145	n/a	n/a	0	0	0
4369323	WORD	wordpools/wasnorm_wordpool_576.txt	LTP299	ltpFR2	19	20	PICNIC	1060	n/a	n/a	0	0	0
4371992	WORD	wordpools/wasnorm_wordpool_576.txt	LTP299	ltpFR2	19	20	PLATE	1086	n/a	n/a	0	0	0
4374779	WORD	wordpools/wasnorm_wordpool_576.txt	LTP299	ltpFR2	19	20	DANCER	437	n/a	n/a	0	0	0
4377313	WORD	wordpools/wasnorm_wordpool_576.txt	LTP299	ltpFR2	19	20	HAWK	692	n/a	n/a	0	0	0
4379766	WORD	wordpools/wasnorm_wordpool_576.txt	LTP299	ltpFR2	19	20	FIREMAN	569	n/a	n/a	0	0	0
4382550	WORD	wordpools/wasnorm_wordpool_576.txt	LTP299	ltpFR2	19	20	GRILL	661	n/a	n/a	0	0	0
4385219	WORD	wordpools/wasnorm_wordpool_576.txt	LTP299	ltpFR2	19	20	PORTRAIT	1111	n/a	n/a	0	0	0
4387756	WORD	wordpools/wasnorm_wordpool_576.txt	LTP299	ltpFR2	19	20	VAGRANT	1544	n/a	n/a	0	0	0
4390207	WORD	wordpools/wasnorm_wordpool_576.txt	LTP299	ltpFR2	19	20	BLOUSE	139	n/a	n/a	0	0	0
4392643	WORD	wordpools/wasnorm_wordpool_576.txt	LTP299	ltpFR2	19	20	PUPIL	1143	n/a	n/a	0	0	0
4395178	WORD	wordpools/wasnorm_wordpool_576.txt	LTP299	ltpFR2	19	20	CHURCH	307	n/a	n/a	0	0	0
4397697	WORD	wordpools/wasnorm_wordpool_576.txt	LTP299	ltpFR2	19	20	CASHIER	254	n/a	n/a	0	0	0
4400182	WORD	wordpools/wasnorm_wordpool_576.txt	LTP299	ltpFR2	19	20	BANK	83	n/a	n/a	0	0	0
4402683	WORD	wordpools/wasnorm_wordpool_576.txt	LTP299	ltpFR2	19	20	CHEST	295	n/a	n/a	0	0	0
4405219	WORD	wordpools/wasnorm_wordpool_576.txt	LTP299	ltpFR2	19	20	SPOUSE	1358	n/a	n/a	0	0	0
4406839	START	n/a	LTP299	ltpFR2	19	n/a	n/a	n/a	30	n/a	n/a	n/a	n/a
4407782	DISTRACTOR	n/a	LTP299	ltpFR2	19	20	n/a	n/a	n/a	n/a	0	0	0
4407789	PROB	n/a	LTP299	ltpFR2	19	n/a	n/a	n/a	30	20	7	5	8
4410140	PROB	n/a	LTP299	ltpFR2	19	n/a	n/a	n/a	30	15	9	1	5
4411456	PROB	n/a	LTP299	ltpFR2	19	n/a	n/a	n/a	30	4	1	2	1
4412507	PROB	n/a	LTP299	ltpFR2	19	n/a	n/a	n/a	30	13	7	5	1
4414025	PROB	n/a	LTP299	ltpFR2	19	n/a	n/a	n/a	30	23	5	9	9
4416310	PROB	n/a	LTP299	ltpFR2	19	n/a	n/a	n/a	30	20	8	5	7
4418748	PROB	n/a	LTP299	ltpFR2	19	n/a	n/a	n/a	30	17	3	9	5
4420933	PROB	n/a	LTP299	ltpFR2	19	n/a	n/a	n/a	30	23	9	8	6
4423752	PROB	n/a	LTP299	ltpFR2	19	n/a	n/a	n/a	30	14	1	7	6
4425319	PROB	n/a	LTP299	ltpFR2	19	n/a	n/a	n/a	30	8	2	4	2
4426452	PROB	n/a	LTP299	ltpFR2	19	n/a	n/a	n/a	30	9	3	2	4
4427922	PROB	n/a	LTP299	ltpFR2	19	n/a	n/a	n/a	30	19	9	9	1
4429154	PROB	n/a	LTP299	ltpFR2	19	n/a	n/a	n/a	30	10	3	4	3
4430625	STOP	n/a	LTP299	ltpFR2	19	n/a	n/a	n/a	30	n/a	n/a	n/a	n/a
4432609	REC_START	n/a	LTP299	ltpFR2	19	20	n/a	n/a	n/a	n/a	0	0	0
4434869	REC_WORD	wordpools/wasnorm_wordpool_576.txt	LTP299	ltpFR2	19	20	SPOUSE	1358	n/a	n/a	0	0	0
4435890	REC_WORD	wordpools/wasnorm_wordpool_576.txt	LTP299	ltpFR2	19	20	APPLE	33	n/a	n/a	0	0	0
4436912	REC_WORD	wordpools/wasnorm_wordpool_576.txt	LTP299	ltpFR2	19	20	DRESS	495	n/a	n/a	0	0	0
4438025	REC_WORD	wordpools/wasnorm_wordpool_576.txt	LTP299	ltpFR2	19	20	WIFE	1609	n/a	n/a	0	0	0
4446291	REC_WORD	wordpools/wasnorm_wordpool_576.txt	LTP299	ltpFR2	19	20	VAGRANT	1544	n/a	n/a	0	0	0
4467803	REC_WORD	wordpools/wasnorm_wordpool_576.txt	LTP299	ltpFR2	19	20	BLOUSE	139	n/a	n/a	0	0	0
4523031	DISTRACTOR	n/a	LTP299	ltpFR2	19	21	n/a	n/a	n/a	n/a	0	0	0
4523031	START	n/a	LTP299	ltpFR2	19	n/a	n/a	n/a	31	n/a	n/a	n/a	n/a
4523045	PROB	n/a	LTP299	ltpFR2	19	n/a	n/a	n/a	31	9	2	2	5
4524081	PROB	n/a	LTP299	ltpFR2	19	n/a	n/a	n/a	31	10	4	2	4
4525632	PROB	n/a	LTP299	ltpFR2	19	n/a	n/a	n/a	31	20	9	2	9
4527734	PROB	n/a	LTP299	ltpFR2	19	n/a	n/a	n/a	31	17	9	7	1
4529770	PROB	n/a	LTP299	ltpFR2	19	n/a	n/a	n/a	31	17	5	3	9
4532171	PROB	n/a	LTP299	ltpFR2	19	n/a	n/a	n/a	31	13	3	9	1
4533472	PROB	n/a	LTP299	ltpFR2	19	n/a	n/a	n/a	31	14	2	4	8
4535205	PROB	n/a	LTP299	ltpFR2	19	n/a	n/a	n/a	31	16	2	5	9
4537156	PROB	n/a	LTP299	ltpFR2	19	n/a	n/a	n/a	31	7	3	2	2
4542061	PROB	n/a	LTP299	ltpFR2	19	n/a	n/a	n/a	31	18	9	5	3
4545131	PROB	n/a	LTP299	ltpFR2	19	n/a	n/a	n/a	31	16	1	7	8
4546783	STOP	n/a	LTP299	ltpFR2	19	n/a	n/a	n/a	31	n/a	n/a	n/a	n/a
4548029	WORD	wordpools/wasnorm_wordpool_576.txt	LTP299	ltpFR2	19	21	LEADER	807	n/a	n/a	0	0	0
4550749	WORD	wordpools/wasnorm_wordpool_576.txt	LTP299	ltpFR2	19	21	BADGE	68	n/a	n/a	0	0	0
4553437	WORD	wordpools/wasnorm_wordpool_576.txt	LTP299	ltpFR2	19	21	CEILING	265	n/a	n/a	0	0	0
4556001	WORD	wordpools/wasnorm_wordpool_576.txt	LTP299	ltpFR2	19	21	SWIMMER	1420	n/a	n/a	0	0	0
4558653	WORD	wordpools/wasnorm_wordpool_576.txt	LTP299	ltpFR2	19	21	GALLON	618	n/a	n/a	0	0	0
4561473	WORD	wordpools/wasnorm_wordpool_576.txt	LTP299	ltpFR2	19	21	HORNET	718	n/a	n/a	0	0	0
4564042	WORD	wordpools/wasnorm_wordpool_576.txt	LTP299	ltpFR2	19	21	LILY	821	n/a	n/a	0	0	0
4566615	WORD	wordpools/wasnorm_wordpool_576.txt	LTP299	ltpFR2	19	21	GLOBE	641	n/a	n/a	0	0	0
4569046	WORD	wordpools/wasnorm_wordpool_576.txt	LTP299	ltpFR2	19	21	ORCHID	982	n/a	n/a	0	0	0
4571499	WORD	wordpools/wasnorm_wordpool_576.txt	LTP299	ltpFR2	19	21	OX	994	n/a	n/a	0	0	0
4574300	WORD	wordpools/wasnorm_wordpool_576.txt	LTP299	ltpFR2	19	21	TABLE	1426	n/a	n/a	0	0	0
4576954	WORD	wordpools/wasnorm_wordpool_576.txt	LTP299	ltpFR2	19	21	PADDING	999	n/a	n/a	0	0	0
4579589	WORD	wordpools/wasnorm_wordpool_576.txt	LTP299	ltpFR2	19	21	SUBWAY	1400	n/a	n/a	0	0	0
4582040	WORD	wordpools/wasnorm_wordpool_576.txt	LTP299	ltpFR2	19	21	SEAGULL	1261	n/a	n/a	0	0	0
4584693	WORD	wordpools/wasnorm_wordpool_576.txt	LTP299	ltpFR2	19	21	RACKET	1155	n/a	n/a	0	0	0
4587215	WORD	wordpools/wasnorm_wordpool_576.txt	LTP299	ltpFR2	19	21	COUNTRY	388	n/a	n/a	0	0	0
4589781	WORD	wordpools/wasnorm_wordpool_576.txt	LTP299	ltpFR2	19	21	JUDGE	761	n/a	n/a	0	0	0
4592600	WORD	wordpools/wasnorm_wordpool_576.txt	LTP299	ltpFR2	19	21	WITNESS	1618	n/a	n/a	0	0	0
4595203	WORD	wordpools/wasnorm_wordpool_576.txt	LTP299	ltpFR2	19	21	FIREPLACE	570	n/a	n/a	0	0	0
4597805	WORD	wordpools/wasnorm_wordpool_576.txt	LTP299	ltpFR2	19	21	GUARD	667	n/a	n/a	0	0	0
4600590	WORD	wordpools/wasnorm_wordpool_576.txt	LTP299	ltpFR2	19	21	RUG	1215	n/a	n/a	0	0	0
4603125	WORD	wordpools/wasnorm_wordpool_576.txt	LTP299	ltpFR2	19	21	TRACTOR	1493	n/a	n/a	0	0	0
4605644	WORD	wordpools/wasnorm_wordpool_576.txt	LTP299	ltpFR2	19	21	COD	340	n/a	n/a	0	0	0
4608081	WORD	wordpools/wasnorm_wordpool_576.txt	LTP299	ltpFR2	19	21	OUTFIT	988	n/a	n/a	0	0	0
4609700	START	n/a	LTP299	ltpFR2	19	n/a	n/a	n/a	32	n/a	n/a	n/a	n/a
4610765	DISTRACTOR	n/a	LTP299	ltpFR2	19	21	n/a	n/a	n/a	n/a	0	0	0
4610784	PROB	n/a	LTP299	ltpFR2	19	n/a	n/a	n/a	32	11	3	7	1
4612501	PROB	n/a	LTP299	ltpFR2	19	n/a	n/a	n/a	32	17	8	6	3
4614553	PROB	n/a	LTP299	ltpFR2	19	n/a	n/a	n/a	32	5	3	1	1
4615622	PROB	n/a	LTP299	ltpFR2	19	n/a	n/a	n/a	32	18	7	2	9
4617156	PROB	n/a	LTP299	ltpFR2	19	n/a	n/a	n/a	32	14	7	2	5
4619406	PROB	n/a	LTP299	ltpFR2	19	n/a	n/a	n/a	32	15	4	5	6
4621927	PROB	n/a	LTP299	ltpFR2	19	n/a	n/a	n/a	32	12	1	8	3
4623226	PROB	n/a	LTP299	ltpFR2	19	n/a	n/a	n/a	32	16	8	1	7
4624747	PROB	n/a	LTP299	ltpFR2	19	n/a	n/a	n/a	32	8	1	5	2
4626362	PROB	n/a	LTP299	ltpFR2	19	n/a	n/a	n/a	32	12	1	9	2
4627530	PROB	n/a	LTP299	ltpFR2	19	n/a	n/a	n/a	32	11	6	1	4
4628799	PROB	n/a	LTP299	ltpFR2	19	n/a	n/a	n/a	32	14	8	5	1
4630399	PROB	n/a	LTP299	ltpFR2	19	n/a	n/a	n/a	32	11	9	1	1
4631499	PROB	n/a	LTP299	ltpFR2	19	n/a	n/a	n/a	32	15	5	8	2
4633137	STOP	n/a	LTP299	ltpFR2	19	n/a	n/a	n/a	32	n/a	n/a	n/a	n/a
4635622	REC_START	n/a	LTP299	ltpFR2	19	21	n/a	n/a	n/a	n/a	0	0	0
4638836	REC_WORD	wordpools/wasnorm_wordpool_576.txt	LTP299	ltpFR2	19	21	GUARD	667	n/a	n/a	0	0	0
4649297	REC_WORD	wordpools/wasnorm_wordpool_576.txt	LTP299	ltpFR2	19	21	HORNET	718	n/a	n/a	0	0	0
4650084	REC_WORD	wordpools/wasnorm_wordpool_576.txt	LTP299	ltpFR2	19	21	SEAGULL	1261	n/a	n/a	0	0	0
4651041	REC_WORD	wordpools/wasnorm_wordpool_576.txt	LTP299	ltpFR2	19	21	GALLON	618	n/a	n/a	0	0	0
4651897	REC_WORD	wordpools/wasnorm_wordpool_576.txt	LTP299	ltpFR2	19	21	SWIMMER	1420	n/a	n/a	0	0	0
4652988	REC_WORD	wordpools/wasnorm_wordpool_576.txt	LTP299	ltpFR2	19	21	BADGE	68	n/a	n/a	0	0	0
4660622	REC_WORD_VV	wordpools/wasnorm_wordpool_576.txt	LTP299	ltpFR2	19	21	<>	-1	n/a	n/a	0	0	0
4660822	REC_WORD	wordpools/wasnorm_wordpool_576.txt	LTP299	ltpFR2	19	21	ORCHID	982	n/a	n/a	0	0	0
4663243	REC_WORD	wordpools/wasnorm_wordpool_576.txt	LTP299	ltpFR2	19	21	GLOBE	641	n/a	n/a	0	0	0
4664003	REC_WORD	wordpools/wasnorm_wordpool_576.txt	LTP299	ltpFR2	19	21	TABLE	1426	n/a	n/a	0	0	0
