onset	duration	trial_type	sample	stim_file	subject	experiment	session	trial	task	item_name	item_num	recog_conf	resp	color_b	color_g	color_r	case	font
398.978	n/a	SESS_START	199489	n/a	LTP258	ltpFR	0	n/a	n/a	n/a	n/a	3	n/a	n/a	n/a	n/a	n/a	n/a
574.22	n/a	WORD	287110	wordpools/wasnorm_wordpool_less_exclusions.txt	LTP258	ltpFR	0	1	-1	TANK	1432	n/a	-1	1	1.0	1.0	upper	../fonts/Verdana.ttf
578.184	n/a	WORD	289092	wordpools/wasnorm_wordpool_less_exclusions.txt	LTP258	ltpFR	0	1	-1	BAY	102	n/a	-1	1	1.0	1.0	upper	../fonts/Verdana.ttf
582.408	n/a	WORD	291204	wordpools/wasnorm_wordpool_less_exclusions.txt	LTP258	ltpFR	0	1	-1	SNACK	1331	n/a	-1	1	1.0	1.0	upper	../fonts/Verdana.ttf
586.238	n/a	WORD	293119	wordpools/wasnorm_wordpool_less_exclusions.txt	LTP258	ltpFR	0	1	-1	SALT	1229	n/a	-1	1	1.0	1.0	upper	../fonts/Verdana.ttf
590.104	n/a	WORD	295052	wordpools/wasnorm_wordpool_less_exclusions.txt	LTP258	ltpFR	0	1	-1	GARLIC	624	n/a	-1	1	1.0	1.0	upper	../fonts/Verdana.ttf
594.028	n/a	WORD	297014	wordpools/wasnorm_wordpool_less_exclusions.txt	LTP258	ltpFR	0	1	-1	SPACE	1345	n/a	-1	1	1.0	1.0	upper	../fonts/Verdana.ttf
598.178	n/a	WORD	299089	wordpools/wasnorm_wordpool_less_exclusions.txt	LTP258	ltpFR	0	1	-1	RAFT	1159	n/a	-1	1	1.0	1.0	upper	../fonts/Verdana.ttf
602.058	n/a	WORD	301029	wordpools/wasnorm_wordpool_less_exclusions.txt	LTP258	ltpFR	0	1	-1	CHEESE	289	n/a	-1	1	1.0	1.0	upper	../fonts/Verdana.ttf
606.264	n/a	WORD	303132	wordpools/wasnorm_wordpool_less_exclusions.txt	LTP258	ltpFR	0	1	-1	GOAT	644	n/a	-1	1	1.0	1.0	upper	../fonts/Verdana.ttf
610.408	n/a	WORD	305204	wordpools/wasnorm_wordpool_less_exclusions.txt	LTP258	ltpFR	0	1	-1	FIN	566	n/a	-1	1	1.0	1.0	upper	../fonts/Verdana.ttf
614.288	n/a	WORD	307144	wordpools/wasnorm_wordpool_less_exclusions.txt	LTP258	ltpFR	0	1	-1	SIBLING	1301	n/a	-1	1	1.0	1.0	upper	../fonts/Verdana.ttf
618.21	n/a	WORD	309105	wordpools/wasnorm_wordpool_less_exclusions.txt	LTP258	ltpFR	0	1	-1	SISTER	1312	n/a	-1	1	1.0	1.0	upper	../fonts/Verdana.ttf
622.168	n/a	WORD	311084	wordpools/wasnorm_wordpool_less_exclusions.txt	LTP258	ltpFR	0	1	-1	SCAPEGOAT	1244	n/a	-1	1	1.0	1.0	upper	../fonts/Verdana.ttf
626.066	n/a	WORD	313033	wordpools/wasnorm_wordpool_less_exclusions.txt	LTP258	ltpFR	0	1	-1	BOWL	158	n/a	-1	1	1.0	1.0	upper	../fonts/Verdana.ttf
630.006	n/a	WORD	315003	wordpools/wasnorm_wordpool_less_exclusions.txt	LTP258	ltpFR	0	1	-1	POCKETBOOK	1094	n/a	-1	1	1.0	1.0	upper	../fonts/Verdana.ttf
633.904	n/a	WORD	316952	wordpools/wasnorm_wordpool_less_exclusions.txt	LTP258	ltpFR	0	1	-1	TYPIST	1532	n/a	-1	1	1.0	1.0	upper	../fonts/Verdana.ttf
639.86	n/a	REC_START	319930	n/a	LTP258	ltpFR	0	1	n/a	n/a	n/a	n/a	n/a	n/a	n/a	n/a	n/a	n/a
641.548	n/a	REC_WORD	320774	wordpools/wasnorm_wordpool_less_exclusions.txt	LTP258	ltpFR	0	1	-1	TYPIST	1532	n/a	-1	n/a	n/a	n/a	n/a	n/a
642.814	n/a	REC_WORD	321407	wordpools/wasnorm_wordpool_less_exclusions.txt	LTP258	ltpFR	0	1	-1	SCAPEGOAT	1244	n/a	-1	n/a	n/a	n/a	n/a	n/a
644.226	n/a	REC_WORD	322113	wordpools/wasnorm_wordpool_less_exclusions.txt	LTP258	ltpFR	0	1	-1	GOAT	644	n/a	-1	n/a	n/a	n/a	n/a	n/a
645.174	n/a	REC_WORD	322587	wordpools/wasnorm_wordpool_less_exclusions.txt	LTP258	ltpFR	0	1	-1	CHEESE	289	n/a	-1	n/a	n/a	n/a	n/a	n/a
646.75	n/a	REC_WORD	323375	wordpools/wasnorm_wordpool_less_exclusions.txt	LTP258	ltpFR	0	1	-1	TANK	1432	n/a	-1	n/a	n/a	n/a	n/a	n/a
650.068	n/a	REC_WORD	325034	wordpools/wasnorm_wordpool_less_exclusions.txt	LTP258	ltpFR	0	1	-1	SIBLING	1301	n/a	-1	n/a	n/a	n/a	n/a	n/a
651.226	n/a	REC_WORD	325613	wordpools/wasnorm_wordpool_less_exclusions.txt	LTP258	ltpFR	0	1	-1	SISTER	1312	n/a	-1	n/a	n/a	n/a	n/a	n/a
653.21	n/a	REC_WORD	326605	wordpools/wasnorm_wordpool_less_exclusions.txt	LTP258	ltpFR	0	1	-1	BAY	102	n/a	-1	n/a	n/a	n/a	n/a	n/a
656.192	n/a	REC_WORD	328096	wordpools/wasnorm_wordpool_less_exclusions.txt	LTP258	ltpFR	0	1	-1	SNACK	1331	n/a	-1	n/a	n/a	n/a	n/a	n/a
663.06	n/a	REC_WORD	331530	wordpools/wasnorm_wordpool_less_exclusions.txt	LTP258	ltpFR	0	1	-1	POCKETBOOK	1094	n/a	-1	n/a	n/a	n/a	n/a	n/a
697.322	n/a	REC_WORD	348661	wordpools/wasnorm_wordpool_less_exclusions.txt	LTP258	ltpFR	0	1	-1	CHEESE	289	n/a	-1	n/a	n/a	n/a	n/a	n/a
714.446	n/a	REC_WORD	357223	wordpools/wasnorm_wordpool_less_exclusions.txt	LTP258	ltpFR	0	1	-1	FIN	566	n/a	-1	n/a	n/a	n/a	n/a	n/a
724.694	n/a	WORD	362347	wordpools/wasnorm_wordpool_less_exclusions.txt	LTP258	ltpFR	0	2	-1	AUTOMOBILE	62	n/a	-1	1	1.0	1.0	upper	../fonts/Verdana.ttf
728.55	n/a	WORD	364275	wordpools/wasnorm_wordpool_less_exclusions.txt	LTP258	ltpFR	0	2	-1	CRUMB	416	n/a	-1	1	1.0	1.0	upper	../fonts/Verdana.ttf
732.498	n/a	WORD	366249	wordpools/wasnorm_wordpool_less_exclusions.txt	LTP258	ltpFR	0	2	-1	SAND	1230	n/a	-1	1	1.0	1.0	upper	../fonts/Verdana.ttf
736.506	n/a	WORD	368253	wordpools/wasnorm_wordpool_less_exclusions.txt	LTP258	ltpFR	0	2	-1	PADDING	999	n/a	-1	1	1.0	1.0	upper	../fonts/Verdana.ttf
740.578	n/a	WORD	370289	wordpools/wasnorm_wordpool_less_exclusions.txt	LTP258	ltpFR	0	2	-1	HEN	703	n/a	-1	1	1.0	1.0	upper	../fonts/Verdana.ttf
744.67	n/a	WORD	372335	wordpools/wasnorm_wordpool_less_exclusions.txt	LTP258	ltpFR	0	2	-1	EGG	518	n/a	-1	1	1.0	1.0	upper	../fonts/Verdana.ttf
748.758	n/a	WORD	374379	wordpools/wasnorm_wordpool_less_exclusions.txt	LTP258	ltpFR	0	2	-1	CARROT	249	n/a	-1	1	1.0	1.0	upper	../fonts/Verdana.ttf
752.608	n/a	WORD	376304	wordpools/wasnorm_wordpool_less_exclusions.txt	LTP258	ltpFR	0	2	-1	SWEATER	1419	n/a	-1	1	1.0	1.0	upper	../fonts/Verdana.ttf
756.772	n/a	WORD	378386	wordpools/wasnorm_wordpool_less_exclusions.txt	LTP258	ltpFR	0	2	-1	POOL	1103	n/a	-1	1	1.0	1.0	upper	../fonts/Verdana.ttf
760.738	n/a	WORD	380369	wordpools/wasnorm_wordpool_less_exclusions.txt	LTP258	ltpFR	0	2	-1	DAM	436	n/a	-1	1	1.0	1.0	upper	../fonts/Verdana.ttf
764.854	n/a	WORD	382427	wordpools/wasnorm_wordpool_less_exclusions.txt	LTP258	ltpFR	0	2	-1	STONE	1385	n/a	-1	1	1.0	1.0	upper	../fonts/Verdana.ttf
768.752	n/a	WORD	384376	wordpools/wasnorm_wordpool_less_exclusions.txt	LTP258	ltpFR	0	2	-1	LIME	823	n/a	-1	1	1.0	1.0	upper	../fonts/Verdana.ttf
772.65	n/a	WORD	386325	wordpools/wasnorm_wordpool_less_exclusions.txt	LTP258	ltpFR	0	2	-1	REFEREE	1178	n/a	-1	1	1.0	1.0	upper	../fonts/Verdana.ttf
776.782	n/a	WORD	388391	wordpools/wasnorm_wordpool_less_exclusions.txt	LTP258	ltpFR	0	2	-1	OCEAN	970	n/a	-1	1	1.0	1.0	upper	../fonts/Verdana.ttf
780.848	n/a	WORD	390424	wordpools/wasnorm_wordpool_less_exclusions.txt	LTP258	ltpFR	0	2	-1	TABLE	1426	n/a	-1	1	1.0	1.0	upper	../fonts/Verdana.ttf
784.74	n/a	WORD	392370	wordpools/wasnorm_wordpool_less_exclusions.txt	LTP258	ltpFR	0	2	-1	LOAF	835	n/a	-1	1	1.0	1.0	upper	../fonts/Verdana.ttf
790.52	n/a	REC_START	395260	n/a	LTP258	ltpFR	0	2	n/a	n/a	n/a	n/a	n/a	n/a	n/a	n/a	n/a	n/a
794.686	n/a	REC_WORD	397343	wordpools/wasnorm_wordpool_less_exclusions.txt	LTP258	ltpFR	0	2	-1	TABLE	1426	n/a	-1	n/a	n/a	n/a	n/a	n/a
796.172	n/a	REC_WORD	398086	wordpools/wasnorm_wordpool_less_exclusions.txt	LTP258	ltpFR	0	2	-1	LOAF	835	n/a	-1	n/a	n/a	n/a	n/a	n/a
798.088	n/a	REC_WORD	399044	wordpools/wasnorm_wordpool_less_exclusions.txt	LTP258	ltpFR	0	2	-1	SAND	1230	n/a	-1	n/a	n/a	n/a	n/a	n/a
799.976	n/a	REC_WORD	399988	wordpools/wasnorm_wordpool_less_exclusions.txt	LTP258	ltpFR	0	2	-1	STONE	1385	n/a	-1	n/a	n/a	n/a	n/a	n/a
811.648	n/a	REC_WORD	405824	wordpools/wasnorm_wordpool_less_exclusions.txt	LTP258	ltpFR	0	2	-1	DAM	436	n/a	-1	n/a	n/a	n/a	n/a	n/a
856.354	n/a	REC_WORD	428177	wordpools/wasnorm_wordpool_less_exclusions.txt	LTP258	ltpFR	0	2	-1	HEN	703	n/a	-1	n/a	n/a	n/a	n/a	n/a
879.644	n/a	WORD	439822	wordpools/wasnorm_wordpool_less_exclusions.txt	LTP258	ltpFR	0	3	-1	PENGUIN	1044	n/a	-1	1	1.0	1.0	upper	../fonts/Verdana.ttf
883.692	n/a	WORD	441846	wordpools/wasnorm_wordpool_less_exclusions.txt	LTP258	ltpFR	0	3	-1	POSSUM	1112	n/a	-1	1	1.0	1.0	upper	../fonts/Verdana.ttf
887.856	n/a	WORD	443928	wordpools/wasnorm_wordpool_less_exclusions.txt	LTP258	ltpFR	0	3	-1	ICEBERG	731	n/a	-1	1	1.0	1.0	upper	../fonts/Verdana.ttf
891.822	n/a	WORD	445911	wordpools/wasnorm_wordpool_less_exclusions.txt	LTP258	ltpFR	0	3	-1	POCKET	1093	n/a	-1	1	1.0	1.0	upper	../fonts/Verdana.ttf
895.914	n/a	WORD	447957	wordpools/wasnorm_wordpool_less_exclusions.txt	LTP258	ltpFR	0	3	-1	SACK	1220	n/a	-1	1	1.0	1.0	upper	../fonts/Verdana.ttf
899.87	n/a	WORD	449935	wordpools/wasnorm_wordpool_less_exclusions.txt	LTP258	ltpFR	0	3	-1	LETTUCE	814	n/a	-1	1	1.0	1.0	upper	../fonts/Verdana.ttf
903.928	n/a	WORD	451964	wordpools/wasnorm_wordpool_less_exclusions.txt	LTP258	ltpFR	0	3	-1	PRODUCER	1129	n/a	-1	1	1.0	1.0	upper	../fonts/Verdana.ttf
907.934	n/a	WORD	453967	wordpools/wasnorm_wordpool_less_exclusions.txt	LTP258	ltpFR	0	3	-1	VEGETABLE	1552	n/a	-1	1	1.0	1.0	upper	../fonts/Verdana.ttf
912.118	n/a	WORD	456059	wordpools/wasnorm_wordpool_less_exclusions.txt	LTP258	ltpFR	0	3	-1	HAM	678	n/a	-1	1	1.0	1.0	upper	../fonts/Verdana.ttf
916.334	n/a	WORD	458167	wordpools/wasnorm_wordpool_less_exclusions.txt	LTP258	ltpFR	0	3	-1	WAITER	1580	n/a	-1	1	1.0	1.0	upper	../fonts/Verdana.ttf
920.416	n/a	WORD	460208	wordpools/wasnorm_wordpool_less_exclusions.txt	LTP258	ltpFR	0	3	-1	SILK	1307	n/a	-1	1	1.0	1.0	upper	../fonts/Verdana.ttf
924.582	n/a	WORD	462291	wordpools/wasnorm_wordpool_less_exclusions.txt	LTP258	ltpFR	0	3	-1	PORK	1108	n/a	-1	1	1.0	1.0	upper	../fonts/Verdana.ttf
928.772	n/a	WORD	464386	wordpools/wasnorm_wordpool_less_exclusions.txt	LTP258	ltpFR	0	3	-1	COIN	343	n/a	-1	1	1.0	1.0	upper	../fonts/Verdana.ttf
932.638	n/a	WORD	466319	wordpools/wasnorm_wordpool_less_exclusions.txt	LTP258	ltpFR	0	3	-1	RECEIPT	1173	n/a	-1	1	1.0	1.0	upper	../fonts/Verdana.ttf
936.644	n/a	WORD	468322	wordpools/wasnorm_wordpool_less_exclusions.txt	LTP258	ltpFR	0	3	-1	PICKLE	1059	n/a	-1	1	1.0	1.0	upper	../fonts/Verdana.ttf
940.786	n/a	WORD	470393	wordpools/wasnorm_wordpool_less_exclusions.txt	LTP258	ltpFR	0	3	-1	PICNIC	1060	n/a	-1	1	1.0	1.0	upper	../fonts/Verdana.ttf
946.86	n/a	REC_START	473430	n/a	LTP258	ltpFR	0	3	n/a	n/a	n/a	n/a	n/a	n/a	n/a	n/a	n/a	n/a
952.6	n/a	REC_WORD	476300	wordpools/wasnorm_wordpool_less_exclusions.txt	LTP258	ltpFR	0	3	-1	PICKLE	1059	n/a	-1	n/a	n/a	n/a	n/a	n/a
953.692	n/a	REC_WORD	476846	wordpools/wasnorm_wordpool_less_exclusions.txt	LTP258	ltpFR	0	3	-1	PICNIC	1060	n/a	-1	n/a	n/a	n/a	n/a	n/a
955.316	n/a	REC_WORD	477658	wordpools/wasnorm_wordpool_less_exclusions.txt	LTP258	ltpFR	0	3	-1	PENGUIN	1044	n/a	-1	n/a	n/a	n/a	n/a	n/a
956.566	n/a	REC_WORD	478283	wordpools/wasnorm_wordpool_less_exclusions.txt	LTP258	ltpFR	0	3	-1	POSSUM	1112	n/a	-1	n/a	n/a	n/a	n/a	n/a
957.956	n/a	REC_WORD	478978	wordpools/wasnorm_wordpool_less_exclusions.txt	LTP258	ltpFR	0	3	-1	PRODUCER	1129	n/a	-1	n/a	n/a	n/a	n/a	n/a
960.538	n/a	REC_WORD	480269	wordpools/wasnorm_wordpool_less_exclusions.txt	LTP258	ltpFR	0	3	-1	HAM	678	n/a	-1	n/a	n/a	n/a	n/a	n/a
961.878	n/a	REC_WORD	480939	wordpools/wasnorm_wordpool_less_exclusions.txt	LTP258	ltpFR	0	3	-1	PORK	1108	n/a	-1	n/a	n/a	n/a	n/a	n/a
968.552	n/a	REC_WORD	484276	wordpools/wasnorm_wordpool_less_exclusions.txt	LTP258	ltpFR	0	3	-1	ICEBERG	731	n/a	-1	n/a	n/a	n/a	n/a	n/a
970.246	n/a	REC_WORD	485123	wordpools/wasnorm_wordpool_less_exclusions.txt	LTP258	ltpFR	0	3	-1	LETTUCE	814	n/a	-1	n/a	n/a	n/a	n/a	n/a
1004.388	n/a	REC_WORD	502194	wordpools/wasnorm_wordpool_less_exclusions.txt	LTP258	ltpFR	0	3	-1	WAITER	1580	n/a	-1	n/a	n/a	n/a	n/a	n/a
1031.816	n/a	WORD	515908	wordpools/wasnorm_wordpool_less_exclusions.txt	LTP258	ltpFR	0	4	-1	STAGE	1366	n/a	-1	1	1.0	1.0	upper	../fonts/Verdana.ttf
1035.782	n/a	WORD	517891	wordpools/wasnorm_wordpool_less_exclusions.txt	LTP258	ltpFR	0	4	-1	TROUT	1511	n/a	-1	1	1.0	1.0	upper	../fonts/Verdana.ttf
1039.614	n/a	WORD	519807	wordpools/wasnorm_wordpool_less_exclusions.txt	LTP258	ltpFR	0	4	-1	CRYSTAL	418	n/a	-1	1	1.0	1.0	upper	../fonts/Verdana.ttf
1043.786	n/a	WORD	521893	wordpools/wasnorm_wordpool_less_exclusions.txt	LTP258	ltpFR	0	4	-1	BLADE	134	n/a	-1	1	1.0	1.0	upper	../fonts/Verdana.ttf
1047.828	n/a	WORD	523914	wordpools/wasnorm_wordpool_less_exclusions.txt	LTP258	ltpFR	0	4	-1	STRAWBERRY	1391	n/a	-1	1	1.0	1.0	upper	../fonts/Verdana.ttf
1051.8	n/a	WORD	525900	wordpools/wasnorm_wordpool_less_exclusions.txt	LTP258	ltpFR	0	4	-1	SHINGLE	1285	n/a	-1	1	1.0	1.0	upper	../fonts/Verdana.ttf
1055.858	n/a	WORD	527929	wordpools/wasnorm_wordpool_less_exclusions.txt	LTP258	ltpFR	0	4	-1	OLIVE	975	n/a	-1	1	1.0	1.0	upper	../fonts/Verdana.ttf
1059.848	n/a	WORD	529924	wordpools/wasnorm_wordpool_less_exclusions.txt	LTP258	ltpFR	0	4	-1	CAB	209	n/a	-1	1	1.0	1.0	upper	../fonts/Verdana.ttf
1064.048	n/a	WORD	532024	wordpools/wasnorm_wordpool_less_exclusions.txt	LTP258	ltpFR	0	4	-1	SNEAKER	1334	n/a	-1	1	1.0	1.0	upper	../fonts/Verdana.ttf
1068.164	n/a	WORD	534082	wordpools/wasnorm_wordpool_less_exclusions.txt	LTP258	ltpFR	0	4	-1	HEEL	700	n/a	-1	1	1.0	1.0	upper	../fonts/Verdana.ttf
1072.346	n/a	WORD	536173	wordpools/wasnorm_wordpool_less_exclusions.txt	LTP258	ltpFR	0	4	-1	SIDING	1304	n/a	-1	1	1.0	1.0	upper	../fonts/Verdana.ttf
1076.344	n/a	WORD	538172	wordpools/wasnorm_wordpool_less_exclusions.txt	LTP258	ltpFR	0	4	-1	WAGON	1578	n/a	-1	1	1.0	1.0	upper	../fonts/Verdana.ttf
1080.192	n/a	WORD	540096	wordpools/wasnorm_wordpool_less_exclusions.txt	LTP258	ltpFR	0	4	-1	CABOOSE	214	n/a	-1	1	1.0	1.0	upper	../fonts/Verdana.ttf
1084.134	n/a	WORD	542067	wordpools/wasnorm_wordpool_less_exclusions.txt	LTP258	ltpFR	0	4	-1	LOBSTER	837	n/a	-1	1	1.0	1.0	upper	../fonts/Verdana.ttf
1088.056	n/a	WORD	544028	wordpools/wasnorm_wordpool_less_exclusions.txt	LTP258	ltpFR	0	4	-1	VALLEY	1545	n/a	-1	1	1.0	1.0	upper	../fonts/Verdana.ttf
1092.222	n/a	WORD	546111	wordpools/wasnorm_wordpool_less_exclusions.txt	LTP258	ltpFR	0	4	-1	PIKE	1067	n/a	-1	1	1.0	1.0	upper	../fonts/Verdana.ttf
1097.902	n/a	REC_START	548951	n/a	LTP258	ltpFR	0	4	n/a	n/a	n/a	n/a	n/a	n/a	n/a	n/a	n/a	n/a
1103.11	n/a	REC_WORD	551555	wordpools/wasnorm_wordpool_less_exclusions.txt	LTP258	ltpFR	0	4	-1	LOBSTER	837	n/a	-1	n/a	n/a	n/a	n/a	n/a
1104.252	n/a	REC_WORD	552126	wordpools/wasnorm_wordpool_less_exclusions.txt	LTP258	ltpFR	0	4	-1	VALLEY	1545	n/a	-1	n/a	n/a	n/a	n/a	n/a
1105.578	n/a	REC_WORD	552789	wordpools/wasnorm_wordpool_less_exclusions.txt	LTP258	ltpFR	0	4	-1	CABOOSE	214	n/a	-1	n/a	n/a	n/a	n/a	n/a
1107.372	n/a	REC_WORD	553686	wordpools/wasnorm_wordpool_less_exclusions.txt	LTP258	ltpFR	0	4	-1	HEEL	700	n/a	-1	n/a	n/a	n/a	n/a	n/a
1113.562	n/a	REC_WORD	556781	wordpools/wasnorm_wordpool_less_exclusions.txt	LTP258	ltpFR	0	4	-1	STRAWBERRY	1391	n/a	-1	n/a	n/a	n/a	n/a	n/a
1151.094	n/a	REC_WORD	575547	wordpools/wasnorm_wordpool_less_exclusions.txt	LTP258	ltpFR	0	4	-1	CRYSTAL	418	n/a	-1	n/a	n/a	n/a	n/a	n/a
1594.016	n/a	WORD	797008	wordpools/wasnorm_wordpool_less_exclusions.txt	LTP258	ltpFR	0	5	0	WATER	1594	n/a	n/a	1	0.412841796875	0.57763671875	lower	../fonts/zerothre.ttf
1597.06	n/a	SLOW_MSG	798530	n/a	LTP258	ltpFR	0	5	n/a	n/a	n/a	n/a	n/a	n/a	n/a	n/a	n/a	n/a
1599.678	n/a	WORD	799839	wordpools/wasnorm_wordpool_less_exclusions.txt	LTP258	ltpFR	0	5	0	GRADUATE	653	n/a	1	1	0.412841796875	0.57763671875	lower	../fonts/zerothre.ttf
1603.62	n/a	WORD	801810	wordpools/wasnorm_wordpool_less_exclusions.txt	LTP258	ltpFR	0	5	0	ENGINE	535	n/a	1	1	0.412841796875	0.57763671875	lower	../fonts/zerothre.ttf
1607.684	n/a	WORD	803842	wordpools/wasnorm_wordpool_less_exclusions.txt	LTP258	ltpFR	0	5	0	KLEENEX	782	n/a	0	1	0.412841796875	0.57763671875	lower	../fonts/zerothre.ttf
1611.532	n/a	WORD	805766	wordpools/wasnorm_wordpool_less_exclusions.txt	LTP258	ltpFR	0	5	0	SEAL	1262	n/a	1	1	0.412841796875	0.57763671875	lower	../fonts/zerothre.ttf
1615.69	n/a	WORD	807845	wordpools/wasnorm_wordpool_less_exclusions.txt	LTP258	ltpFR	0	5	0	NUT	965	n/a	0	1	0.412841796875	0.57763671875	lower	../fonts/zerothre.ttf
1619.822	n/a	WORD	809911	wordpools/wasnorm_wordpool_less_exclusions.txt	LTP258	ltpFR	0	5	0	ENVELOPE	537	n/a	0	1	0.412841796875	0.57763671875	lower	../fonts/zerothre.ttf
1623.904	n/a	WORD	811952	wordpools/wasnorm_wordpool_less_exclusions.txt	LTP258	ltpFR	0	5	0	CONSOLE	364	n/a	1	1	0.412841796875	0.57763671875	lower	../fonts/zerothre.ttf
1627.852	n/a	WORD	813926	wordpools/wasnorm_wordpool_less_exclusions.txt	LTP258	ltpFR	0	5	0	BROOK	177	n/a	1	1	0.412841796875	0.57763671875	lower	../fonts/zerothre.ttf
1632.01	n/a	WORD	816005	wordpools/wasnorm_wordpool_less_exclusions.txt	LTP258	ltpFR	0	5	0	SURF	1412	n/a	1	1	0.412841796875	0.57763671875	lower	../fonts/zerothre.ttf
1636.194	n/a	WORD	818097	wordpools/wasnorm_wordpool_less_exclusions.txt	LTP258	ltpFR	0	5	0	HOOK	715	n/a	0	1	0.412841796875	0.57763671875	lower	../fonts/zerothre.ttf
1640.25	n/a	WORD	820125	wordpools/wasnorm_wordpool_less_exclusions.txt	LTP258	ltpFR	0	5	0	LETTER	813	n/a	0	1	0.412841796875	0.57763671875	lower	../fonts/zerothre.ttf
1644.248	n/a	WORD	822124	wordpools/wasnorm_wordpool_less_exclusions.txt	LTP258	ltpFR	0	5	0	DRAWER	493	n/a	1	1	0.412841796875	0.57763671875	lower	../fonts/zerothre.ttf
1648.214	n/a	WORD	824107	wordpools/wasnorm_wordpool_less_exclusions.txt	LTP258	ltpFR	0	5	0	HANGER	687	n/a	0	1	0.412841796875	0.57763671875	lower	../fonts/zerothre.ttf
1652.094	n/a	WORD	826047	wordpools/wasnorm_wordpool_less_exclusions.txt	LTP258	ltpFR	0	5	0	CHEERLEADER	288	n/a	1	1	0.412841796875	0.57763671875	lower	../fonts/zerothre.ttf
1656.178	n/a	WORD	828089	wordpools/wasnorm_wordpool_less_exclusions.txt	LTP258	ltpFR	0	5	0	DICE	461	n/a	0	1	0.412841796875	0.57763671875	lower	../fonts/zerothre.ttf
1661.9	n/a	REC_START	830950	n/a	LTP258	ltpFR	0	5	n/a	n/a	n/a	n/a	n/a	n/a	n/a	n/a	n/a	n/a
1665.082	n/a	REC_WORD	832541	wordpools/wasnorm_wordpool_less_exclusions.txt	LTP258	ltpFR	0	5	0	BROOK	177	n/a	1	n/a	n/a	n/a	n/a	n/a
1666.614	n/a	REC_WORD	833307	wordpools/wasnorm_wordpool_less_exclusions.txt	LTP258	ltpFR	0	5	0	CHEERLEADER	288	n/a	1	n/a	n/a	n/a	n/a	n/a
1668.486	n/a	REC_WORD	834243	wordpools/wasnorm_wordpool_less_exclusions.txt	LTP258	ltpFR	0	5	0	HANGER	687	n/a	0	n/a	n/a	n/a	n/a	n/a
1670.74	n/a	REC_WORD	835370	wordpools/wasnorm_wordpool_less_exclusions.txt	LTP258	ltpFR	0	5	0	LETTER	813	n/a	0	n/a	n/a	n/a	n/a	n/a
1675.304	n/a	REC_WORD	837652	wordpools/wasnorm_wordpool_less_exclusions.txt	LTP258	ltpFR	0	5	0	SURF	1412	n/a	1	n/a	n/a	n/a	n/a	n/a
1677.936	n/a	REC_WORD	838968	wordpools/wasnorm_wordpool_less_exclusions.txt	LTP258	ltpFR	0	5	0	DRAWER	493	n/a	1	n/a	n/a	n/a	n/a	n/a
1683.072	n/a	REC_WORD	841536	wordpools/wasnorm_wordpool_less_exclusions.txt	LTP258	ltpFR	0	5	0	NUT	965	n/a	0	n/a	n/a	n/a	n/a	n/a
1703.122	n/a	REC_WORD	851561	wordpools/wasnorm_wordpool_less_exclusions.txt	LTP258	ltpFR	0	5	0	GRADUATE	653	n/a	1	n/a	n/a	n/a	n/a	n/a
1754.496	n/a	WORD	877248	wordpools/wasnorm_wordpool_less_exclusions.txt	LTP258	ltpFR	0	6	0	DOUGHNUT	490	n/a	0	1	0.412841796875	0.57763671875	lower	../fonts/zerothre.ttf
1758.452	n/a	WORD	879226	wordpools/wasnorm_wordpool_less_exclusions.txt	LTP258	ltpFR	0	6	0	CAFE	216	n/a	1	1	0.412841796875	0.57763671875	lower	../fonts/zerothre.ttf
1762.534	n/a	WORD	881267	wordpools/wasnorm_wordpool_less_exclusions.txt	LTP258	ltpFR	0	6	0	CENT	270	n/a	0	1	0.412841796875	0.57763671875	lower	../fonts/zerothre.ttf
1766.592	n/a	WORD	883296	wordpools/wasnorm_wordpool_less_exclusions.txt	LTP258	ltpFR	0	6	0	SALAD	1224	n/a	0	1	0.412841796875	0.57763671875	lower	../fonts/zerothre.ttf
1770.514	n/a	WORD	885257	wordpools/wasnorm_wordpool_less_exclusions.txt	LTP258	ltpFR	0	6	0	STORE	1387	n/a	1	1	0.412841796875	0.57763671875	lower	../fonts/zerothre.ttf
1774.43	n/a	WORD	887215	wordpools/wasnorm_wordpool_less_exclusions.txt	LTP258	ltpFR	0	6	0	DILL	465	n/a	0	1	0.412841796875	0.57763671875	lower	../fonts/zerothre.ttf
1778.328	n/a	WORD	889164	wordpools/wasnorm_wordpool_less_exclusions.txt	LTP258	ltpFR	0	6	0	DANDELION	438	n/a	0	1	0.412841796875	0.57763671875	lower	../fonts/zerothre.ttf
1782.208	n/a	WORD	891104	wordpools/wasnorm_wordpool_less_exclusions.txt	LTP258	ltpFR	0	6	0	ENEMY	534	n/a	1	1	0.412841796875	0.57763671875	lower	../fonts/zerothre.ttf
1786.192	n/a	WORD	893096	wordpools/wasnorm_wordpool_less_exclusions.txt	LTP258	ltpFR	0	6	0	BANK	83	n/a	1	1	0.412841796875	0.57763671875	lower	../fonts/zerothre.ttf
1790.106	n/a	WORD	895053	wordpools/wasnorm_wordpool_less_exclusions.txt	LTP258	ltpFR	0	6	0	THICKET	1455	n/a	0	1	0.412841796875	0.57763671875	lower	../fonts/zerothre.ttf
1794.322	n/a	WORD	897161	wordpools/wasnorm_wordpool_less_exclusions.txt	LTP258	ltpFR	0	6	0	OWNER	993	n/a	1	1	0.412841796875	0.57763671875	lower	../fonts/zerothre.ttf
1798.212	n/a	WORD	899106	wordpools/wasnorm_wordpool_less_exclusions.txt	LTP258	ltpFR	0	6	0	CURTAIN	427	n/a	1	1	0.412841796875	0.57763671875	lower	../fonts/zerothre.ttf
1802.336	n/a	WORD	901168	wordpools/wasnorm_wordpool_less_exclusions.txt	LTP258	ltpFR	0	6	0	WINDOW	1611	n/a	1	1	0.412841796875	0.57763671875	lower	../fonts/zerothre.ttf
1806.418	n/a	WORD	903209	wordpools/wasnorm_wordpool_less_exclusions.txt	LTP258	ltpFR	0	6	0	FOLDER	588	n/a	0	1	0.412841796875	0.57763671875	lower	../fonts/zerothre.ttf
1810.46	n/a	WORD	905230	wordpools/wasnorm_wordpool_less_exclusions.txt	LTP258	ltpFR	0	6	0	ROBOT	1200	n/a	1	1	0.412841796875	0.57763671875	lower	../fonts/zerothre.ttf
1814.45	n/a	WORD	907225	wordpools/wasnorm_wordpool_less_exclusions.txt	LTP258	ltpFR	0	6	0	SPINACH	1352	n/a	0	1	0.412841796875	0.57763671875	lower	../fonts/zerothre.ttf
1820.232	n/a	REC_START	910116	n/a	LTP258	ltpFR	0	6	n/a	n/a	n/a	n/a	n/a	n/a	n/a	n/a	n/a	n/a
1822.768	n/a	REC_WORD	911384	wordpools/wasnorm_wordpool_less_exclusions.txt	LTP258	ltpFR	0	6	0	ROBOT	1200	n/a	1	n/a	n/a	n/a	n/a	n/a
1823.718	n/a	REC_WORD	911859	wordpools/wasnorm_wordpool_less_exclusions.txt	LTP258	ltpFR	0	6	0	SPINACH	1352	n/a	0	n/a	n/a	n/a	n/a	n/a
1829.73	n/a	REC_WORD	914865	wordpools/wasnorm_wordpool_less_exclusions.txt	LTP258	ltpFR	0	6	0	STORE	1387	n/a	1	n/a	n/a	n/a	n/a	n/a
1832.352	n/a	REC_WORD	916176	wordpools/wasnorm_wordpool_less_exclusions.txt	LTP258	ltpFR	0	6	0	DOUGHNUT	490	n/a	0	n/a	n/a	n/a	n/a	n/a
1863.33	n/a	REC_WORD	931665	wordpools/wasnorm_wordpool_less_exclusions.txt	LTP258	ltpFR	0	6	0	FOLDER	588	n/a	0	n/a	n/a	n/a	n/a	n/a
1880.836	n/a	REC_WORD	940418	wordpools/wasnorm_wordpool_less_exclusions.txt	LTP258	ltpFR	0	6	0	ENEMY	534	n/a	1	n/a	n/a	n/a	n/a	n/a
1901.19	n/a	WORD	950595	wordpools/wasnorm_wordpool_less_exclusions.txt	LTP258	ltpFR	0	7	0	IDOL	733	n/a	1	1	0.412841796875	0.57763671875	lower	../fonts/zerothre.ttf
1905.372	n/a	WORD	952686	wordpools/wasnorm_wordpool_less_exclusions.txt	LTP258	ltpFR	0	7	0	GARAGE	621	n/a	1	1	0.412841796875	0.57763671875	lower	../fonts/zerothre.ttf
1909.262	n/a	WORD	954631	wordpools/wasnorm_wordpool_less_exclusions.txt	LTP258	ltpFR	0	7	0	TAPE	1433	n/a	0	1	0.412841796875	0.57763671875	lower	../fonts/zerothre.ttf
1913.336	n/a	WORD	956668	wordpools/wasnorm_wordpool_less_exclusions.txt	LTP258	ltpFR	0	7	0	TROMBONE	1508	n/a	1	1	0.412841796875	0.57763671875	lower	../fonts/zerothre.ttf
1917.486	n/a	WORD	958743	wordpools/wasnorm_wordpool_less_exclusions.txt	LTP258	ltpFR	0	7	0	VIOLA	1570	n/a	1	1	0.412841796875	0.57763671875	lower	../fonts/zerothre.ttf
1921.676	n/a	WORD	960838	wordpools/wasnorm_wordpool_less_exclusions.txt	LTP258	ltpFR	0	7	0	BRIDGE	174	n/a	1	1	0.412841796875	0.57763671875	lower	../fonts/zerothre.ttf
1925.624	n/a	WORD	962812	wordpools/wasnorm_wordpool_less_exclusions.txt	LTP258	ltpFR	0	7	0	MAGICIAN	854	n/a	1	1	0.412841796875	0.57763671875	lower	../fonts/zerothre.ttf
1929.656	n/a	WORD	964828	wordpools/wasnorm_wordpool_less_exclusions.txt	LTP258	ltpFR	0	7	0	DOORBELL	487	n/a	0	1	0.412841796875	0.57763671875	lower	../fonts/zerothre.ttf
1933.614	n/a	WORD	966807	wordpools/wasnorm_wordpool_less_exclusions.txt	LTP258	ltpFR	0	7	0	CONCRETE	361	n/a	n/a	1	0.412841796875	0.57763671875	lower	../fonts/zerothre.ttf
1936.66	n/a	SLOW_MSG	968330	n/a	LTP258	ltpFR	0	7	n/a	n/a	n/a	n/a	n/a	n/a	n/a	n/a	n/a	n/a
1939.376	n/a	WORD	969688	wordpools/wasnorm_wordpool_less_exclusions.txt	LTP258	ltpFR	0	7	0	BIOLOGIST	128	n/a	1	1	0.412841796875	0.57763671875	lower	../fonts/zerothre.ttf
1943.234	n/a	WORD	971617	wordpools/wasnorm_wordpool_less_exclusions.txt	LTP258	ltpFR	0	7	0	NITROGEN	954	n/a	0	1	0.412841796875	0.57763671875	lower	../fonts/zerothre.ttf
1947.416	n/a	WORD	973708	wordpools/wasnorm_wordpool_less_exclusions.txt	LTP258	ltpFR	0	7	0	SNORKEL	1336	n/a	0	1	0.412841796875	0.57763671875	lower	../fonts/zerothre.ttf
1951.254	n/a	WORD	975627	wordpools/wasnorm_wordpool_less_exclusions.txt	LTP258	ltpFR	0	7	0	CHILD	299	n/a	1	1	0.412841796875	0.57763671875	lower	../fonts/zerothre.ttf
1955.472	n/a	WORD	977736	wordpools/wasnorm_wordpool_less_exclusions.txt	LTP258	ltpFR	0	7	0	DOLL	481	n/a	0	1	0.412841796875	0.57763671875	lower	../fonts/zerothre.ttf
1959.38	n/a	WORD	979690	wordpools/wasnorm_wordpool_less_exclusions.txt	LTP258	ltpFR	0	7	0	FAIRY	549	n/a	0	1	0.412841796875	0.57763671875	lower	../fonts/zerothre.ttf
1963.234	n/a	WORD	981617	wordpools/wasnorm_wordpool_less_exclusions.txt	LTP258	ltpFR	0	7	0	STREET	1393	n/a	1	1	0.412841796875	0.57763671875	lower	../fonts/zerothre.ttf
1969.25	n/a	REC_START	984625	n/a	LTP258	ltpFR	0	7	n/a	n/a	n/a	n/a	n/a	n/a	n/a	n/a	n/a	n/a
1972.56	n/a	REC_WORD	986280	wordpools/wasnorm_wordpool_less_exclusions.txt	LTP258	ltpFR	0	7	0	DOLL	481	n/a	0	n/a	n/a	n/a	n/a	n/a
1973.608	n/a	REC_WORD	986804	wordpools/wasnorm_wordpool_less_exclusions.txt	LTP258	ltpFR	0	7	0	CHILD	299	n/a	1	n/a	n/a	n/a	n/a	n/a
1974.768	n/a	REC_WORD	987384	wordpools/wasnorm_wordpool_less_exclusions.txt	LTP258	ltpFR	0	7	0	FAIRY	549	n/a	0	n/a	n/a	n/a	n/a	n/a
1982.602	n/a	REC_WORD	991301	wordpools/wasnorm_wordpool_less_exclusions.txt	LTP258	ltpFR	0	7	0	SNORKEL	1336	n/a	0	n/a	n/a	n/a	n/a	n/a
1986.034	n/a	REC_WORD	993017	wordpools/wasnorm_wordpool_less_exclusions.txt	LTP258	ltpFR	0	7	0	MAGICIAN	854	n/a	1	n/a	n/a	n/a	n/a	n/a
1999.884	n/a	REC_WORD	999942	wordpools/wasnorm_wordpool_less_exclusions.txt	LTP258	ltpFR	0	7	0	NITROGEN	954	n/a	0	n/a	n/a	n/a	n/a	n/a
2006.728	n/a	REC_WORD	1003364	wordpools/wasnorm_wordpool_less_exclusions.txt	LTP258	ltpFR	0	7	0	CONCRETE	361	n/a	n/a	n/a	n/a	n/a	n/a	n/a
2029.432	n/a	REC_WORD	1014716	wordpools/wasnorm_wordpool_less_exclusions.txt	LTP258	ltpFR	0	7	0	GARAGE	621	n/a	1	n/a	n/a	n/a	n/a	n/a
2053.146	n/a	WORD	1026573	wordpools/wasnorm_wordpool_less_exclusions.txt	LTP258	ltpFR	0	8	0	NEWSPAPER	948	n/a	0	1	0.412841796875	0.57763671875	lower	../fonts/zerothre.ttf
2057.008	n/a	WORD	1028504	wordpools/wasnorm_wordpool_less_exclusions.txt	LTP258	ltpFR	0	8	0	ALMANAC	17	n/a	1	1	0.412841796875	0.57763671875	lower	../fonts/zerothre.ttf
2060.856	n/a	WORD	1030428	wordpools/wasnorm_wordpool_less_exclusions.txt	LTP258	ltpFR	0	8	0	WAIST	1579	n/a	1	1	0.412841796875	0.57763671875	lower	../fonts/zerothre.ttf
2064.706	n/a	WORD	1032353	wordpools/wasnorm_wordpool_less_exclusions.txt	LTP258	ltpFR	0	8	0	BOAT	144	n/a	1	1	0.412841796875	0.57763671875	lower	../fonts/zerothre.ttf
2068.904	n/a	WORD	1034452	wordpools/wasnorm_wordpool_less_exclusions.txt	LTP258	ltpFR	0	8	0	TOASTER	1472	n/a	1	1	0.412841796875	0.57763671875	lower	../fonts/zerothre.ttf
2072.912	n/a	WORD	1036456	wordpools/wasnorm_wordpool_less_exclusions.txt	LTP258	ltpFR	0	8	0	WHIP	1604	n/a	0	1	0.412841796875	0.57763671875	lower	../fonts/zerothre.ttf
2077.12	n/a	WORD	1038560	wordpools/wasnorm_wordpool_less_exclusions.txt	LTP258	ltpFR	0	8	0	CROCODILE	411	n/a	1	1	0.412841796875	0.57763671875	lower	../fonts/zerothre.ttf
2081.118	n/a	WORD	1040559	wordpools/wasnorm_wordpool_less_exclusions.txt	LTP258	ltpFR	0	8	0	CHEF	290	n/a	1	1	0.412841796875	0.57763671875	lower	../fonts/zerothre.ttf
2085.1	n/a	WORD	1042550	wordpools/wasnorm_wordpool_less_exclusions.txt	LTP258	ltpFR	0	8	0	STRANGER	1389	n/a	1	1	0.412841796875	0.57763671875	lower	../fonts/zerothre.ttf
2089.15	n/a	WORD	1044575	wordpools/wasnorm_wordpool_less_exclusions.txt	LTP258	ltpFR	0	8	0	PUMPKIN	1142	n/a	1	1	0.412841796875	0.57763671875	lower	../fonts/zerothre.ttf
2093.04	n/a	WORD	1046520	wordpools/wasnorm_wordpool_less_exclusions.txt	LTP258	ltpFR	0	8	0	PREACHER	1119	n/a	1	1	0.412841796875	0.57763671875	lower	../fonts/zerothre.ttf
2097.094	n/a	WORD	1048547	wordpools/wasnorm_wordpool_less_exclusions.txt	LTP258	ltpFR	0	8	0	VIKING	1565	n/a	1	1	0.412841796875	0.57763671875	lower	../fonts/zerothre.ttf
2101.254	n/a	WORD	1050627	wordpools/wasnorm_wordpool_less_exclusions.txt	LTP258	ltpFR	0	8	0	BUFFALO	186	n/a	1	1	0.412841796875	0.57763671875	lower	../fonts/zerothre.ttf
2105.194	n/a	WORD	1052597	wordpools/wasnorm_wordpool_less_exclusions.txt	LTP258	ltpFR	0	8	0	BISON	131	n/a	1	1	0.412841796875	0.57763671875	lower	../fonts/zerothre.ttf
2109.302	n/a	WORD	1054651	wordpools/wasnorm_wordpool_less_exclusions.txt	LTP258	ltpFR	0	8	0	COCOON	339	n/a	0	1	0.412841796875	0.57763671875	lower	../fonts/zerothre.ttf
2113.492	n/a	WORD	1056746	wordpools/wasnorm_wordpool_less_exclusions.txt	LTP258	ltpFR	0	8	0	SWATTER	1418	n/a	0	1	0.412841796875	0.57763671875	lower	../fonts/zerothre.ttf
2119.524	n/a	REC_START	1059762	n/a	LTP258	ltpFR	0	8	n/a	n/a	n/a	n/a	n/a	n/a	n/a	n/a	n/a	n/a
2127.196	n/a	REC_WORD	1063598	wordpools/wasnorm_wordpool_less_exclusions.txt	LTP258	ltpFR	0	8	0	BUFFALO	186	n/a	1	n/a	n/a	n/a	n/a	n/a
2128.392	n/a	REC_WORD	1064196	wordpools/wasnorm_wordpool_less_exclusions.txt	LTP258	ltpFR	0	8	0	BISON	131	n/a	1	n/a	n/a	n/a	n/a	n/a
2129.702	n/a	REC_WORD	1064851	wordpools/wasnorm_wordpool_less_exclusions.txt	LTP258	ltpFR	0	8	0	SWATTER	1418	n/a	0	n/a	n/a	n/a	n/a	n/a
2131.486	n/a	REC_WORD	1065743	wordpools/wasnorm_wordpool_less_exclusions.txt	LTP258	ltpFR	0	8	0	CROCODILE	411	n/a	1	n/a	n/a	n/a	n/a	n/a
2151.518	n/a	REC_WORD	1075759	wordpools/wasnorm_wordpool_less_exclusions.txt	LTP258	ltpFR	0	8	0	VIKING	1565	n/a	1	n/a	n/a	n/a	n/a	n/a
2159.748	n/a	REC_WORD	1079874	wordpools/wasnorm_wordpool_less_exclusions.txt	LTP258	ltpFR	0	8	0	WAIST	1579	n/a	1	n/a	n/a	n/a	n/a	n/a
2168.626	n/a	REC_WORD	1084313	wordpools/wasnorm_wordpool_less_exclusions.txt	LTP258	ltpFR	0	8	0	CHEF	290	n/a	1	n/a	n/a	n/a	n/a	n/a
2204.466	n/a	WORD	1102233	wordpools/wasnorm_wordpool_less_exclusions.txt	LTP258	ltpFR	0	9	1	CAFETERIA	217	n/a	n/a	0	0.5869140625	0.422607421875	upper	../fonts/amplitud.ttf
2207.51	n/a	SLOW_MSG	1103755	n/a	LTP258	ltpFR	0	9	n/a	n/a	n/a	n/a	n/a	n/a	n/a	n/a	n/a	n/a
2210.246	n/a	WORD	1105123	wordpools/wasnorm_wordpool_less_exclusions.txt	LTP258	ltpFR	0	9	1	STAFF	1365	n/a	1	0	0.5869140625	0.422607421875	upper	../fonts/amplitud.ttf
2214.454	n/a	WORD	1107227	wordpools/wasnorm_wordpool_less_exclusions.txt	LTP258	ltpFR	0	9	1	HERO	706	n/a	1	0	0.5869140625	0.422607421875	upper	../fonts/amplitud.ttf
2218.528	n/a	WORD	1109264	wordpools/wasnorm_wordpool_less_exclusions.txt	LTP258	ltpFR	0	9	1	SUPPER	1411	n/a	1	0	0.5869140625	0.422607421875	upper	../fonts/amplitud.ttf
2222.408	n/a	WORD	1111204	wordpools/wasnorm_wordpool_less_exclusions.txt	LTP258	ltpFR	0	9	1	NAPKIN	937	n/a	0	0	0.5869140625	0.422607421875	upper	../fonts/amplitud.ttf
2226.484	n/a	WORD	1113242	wordpools/wasnorm_wordpool_less_exclusions.txt	LTP258	ltpFR	0	9	1	LONDON	843	n/a	1	0	0.5869140625	0.422607421875	upper	../fonts/amplitud.ttf
2230.606	n/a	WORD	1115303	wordpools/wasnorm_wordpool_less_exclusions.txt	LTP258	ltpFR	0	9	1	AFRICA	9	n/a	1	0	0.5869140625	0.422607421875	upper	../fonts/amplitud.ttf
2234.772	n/a	WORD	1117386	wordpools/wasnorm_wordpool_less_exclusions.txt	LTP258	ltpFR	0	9	1	PUDDLE	1140	n/a	0	0	0.5869140625	0.422607421875	upper	../fonts/amplitud.ttf
2238.63	n/a	WORD	1119315	wordpools/wasnorm_wordpool_less_exclusions.txt	LTP258	ltpFR	0	9	1	UMBRELLA	1534	n/a	1	0	0.5869140625	0.422607421875	upper	../fonts/amplitud.ttf
2242.67	n/a	WORD	1121335	wordpools/wasnorm_wordpool_less_exclusions.txt	LTP258	ltpFR	0	9	1	LIZARD	834	n/a	0	0	0.5869140625	0.422607421875	upper	../fonts/amplitud.ttf
2246.752	n/a	WORD	1123376	wordpools/wasnorm_wordpool_less_exclusions.txt	LTP258	ltpFR	0	9	1	ENGINEER	536	n/a	n/a	0	0.5869140625	0.422607421875	upper	../fonts/amplitud.ttf
2249.796	n/a	SLOW_MSG	1124898	n/a	LTP258	ltpFR	0	9	n/a	n/a	n/a	n/a	n/a	n/a	n/a	n/a	n/a	n/a
2252.232	n/a	WORD	1126116	wordpools/wasnorm_wordpool_less_exclusions.txt	LTP258	ltpFR	0	9	1	HEATER	698	n/a	0	0	0.5869140625	0.422607421875	upper	../fonts/amplitud.ttf
2256.356	n/a	WORD	1128178	wordpools/wasnorm_wordpool_less_exclusions.txt	LTP258	ltpFR	0	9	1	DEPARTMENT	449	n/a	0	0	0.5869140625	0.422607421875	upper	../fonts/amplitud.ttf
2260.572	n/a	WORD	1130286	wordpools/wasnorm_wordpool_less_exclusions.txt	LTP258	ltpFR	0	9	1	PLAZA	1088	n/a	0	0	0.5869140625	0.422607421875	upper	../fonts/amplitud.ttf
2264.412	n/a	WORD	1132206	wordpools/wasnorm_wordpool_less_exclusions.txt	LTP258	ltpFR	0	9	1	CUP	424	n/a	0	0	0.5869140625	0.422607421875	upper	../fonts/amplitud.ttf
2268.578	n/a	WORD	1134289	wordpools/wasnorm_wordpool_less_exclusions.txt	LTP258	ltpFR	0	9	1	AUDIENCE	59	n/a	1	0	0.5869140625	0.422607421875	upper	../fonts/amplitud.ttf
2274.476	n/a	REC_START	1137238	n/a	LTP258	ltpFR	0	9	n/a	n/a	n/a	n/a	n/a	n/a	n/a	n/a	n/a	n/a
2276.388	n/a	REC_WORD	1138194	wordpools/wasnorm_wordpool_less_exclusions.txt	LTP258	ltpFR	0	9	1	AUDIENCE	59	n/a	1	n/a	n/a	n/a	n/a	n/a
2278.104	n/a	REC_WORD	1139052	wordpools/wasnorm_wordpool_less_exclusions.txt	LTP258	ltpFR	0	9	1	LIZARD	834	n/a	0	n/a	n/a	n/a	n/a	n/a
2327.678	n/a	REC_WORD	1163839	wordpools/wasnorm_wordpool_less_exclusions.txt	LTP258	ltpFR	0	9	0	STORE	1387	n/a	1	n/a	n/a	n/a	n/a	n/a
2354.238	n/a	WORD	1177119	wordpools/wasnorm_wordpool_less_exclusions.txt	LTP258	ltpFR	0	10	1	SCALLOP	1242	n/a	1	0	0.5869140625	0.422607421875	upper	../fonts/amplitud.ttf
2358.076	n/a	WORD	1179038	wordpools/wasnorm_wordpool_less_exclusions.txt	LTP258	ltpFR	0	10	1	FRECKLE	602	n/a	0	0	0.5869140625	0.422607421875	upper	../fonts/amplitud.ttf
2362.152	n/a	WORD	1181076	wordpools/wasnorm_wordpool_less_exclusions.txt	LTP258	ltpFR	0	10	1	LAPEL	800	n/a	0	0	0.5869140625	0.422607421875	upper	../fonts/amplitud.ttf
2365.972	n/a	WORD	1182986	wordpools/wasnorm_wordpool_less_exclusions.txt	LTP258	ltpFR	0	10	1	CASHEW	253	n/a	0	0	0.5869140625	0.422607421875	upper	../fonts/amplitud.ttf
2370.14	n/a	WORD	1185070	wordpools/wasnorm_wordpool_less_exclusions.txt	LTP258	ltpFR	0	10	1	SUPERVISOR	1410	n/a	1	0	0.5869140625	0.422607421875	upper	../fonts/amplitud.ttf
2374.272	n/a	WORD	1187136	wordpools/wasnorm_wordpool_less_exclusions.txt	LTP258	ltpFR	0	10	1	HEAD	695	n/a	1	0	0.5869140625	0.422607421875	upper	../fonts/amplitud.ttf
2378.136	n/a	WORD	1189068	wordpools/wasnorm_wordpool_less_exclusions.txt	LTP258	ltpFR	0	10	1	SCARF	1246	n/a	0	0	0.5869140625	0.422607421875	upper	../fonts/amplitud.ttf
2382.136	n/a	WORD	1191068	wordpools/wasnorm_wordpool_less_exclusions.txt	LTP258	ltpFR	0	10	1	PLAID	1080	n/a	0	0	0.5869140625	0.422607421875	upper	../fonts/amplitud.ttf
2386.132	n/a	WORD	1193066	wordpools/wasnorm_wordpool_less_exclusions.txt	LTP258	ltpFR	0	10	1	PERSONNEL	1053	n/a	1	0	0.5869140625	0.422607421875	upper	../fonts/amplitud.ttf
2390.042	n/a	WORD	1195021	wordpools/wasnorm_wordpool_less_exclusions.txt	LTP258	ltpFR	0	10	1	CREW	406	n/a	1	0	0.5869140625	0.422607421875	upper	../fonts/amplitud.ttf
2393.972	n/a	WORD	1196986	wordpools/wasnorm_wordpool_less_exclusions.txt	LTP258	ltpFR	0	10	1	CLARINET	317	n/a	0	0	0.5869140625	0.422607421875	upper	../fonts/amplitud.ttf
2397.994	n/a	WORD	1198997	wordpools/wasnorm_wordpool_less_exclusions.txt	LTP258	ltpFR	0	10	1	BUTTERFLY	206	n/a	1	0	0.5869140625	0.422607421875	upper	../fonts/amplitud.ttf
2401.994	n/a	WORD	1200997	wordpools/wasnorm_wordpool_less_exclusions.txt	LTP258	ltpFR	0	10	1	CAULIFLOWER	262	n/a	0	0	0.5869140625	0.422607421875	upper	../fonts/amplitud.ttf
2405.992	n/a	WORD	1202996	wordpools/wasnorm_wordpool_less_exclusions.txt	LTP258	ltpFR	0	10	1	BADGE	68	n/a	0	0	0.5869140625	0.422607421875	upper	../fonts/amplitud.ttf
2410.0	n/a	WORD	1205000	wordpools/wasnorm_wordpool_less_exclusions.txt	LTP258	ltpFR	0	10	1	DEPUTY	450	n/a	1	0	0.5869140625	0.422607421875	upper	../fonts/amplitud.ttf
2413.99	n/a	WORD	1206995	wordpools/wasnorm_wordpool_less_exclusions.txt	LTP258	ltpFR	0	10	1	RECORD	1176	n/a	0	0	0.5869140625	0.422607421875	upper	../fonts/amplitud.ttf
2419.712	n/a	REC_START	1209856	n/a	LTP258	ltpFR	0	10	n/a	n/a	n/a	n/a	n/a	n/a	n/a	n/a	n/a	n/a
2422.284	n/a	REC_WORD	1211142	wordpools/wasnorm_wordpool_less_exclusions.txt	LTP258	ltpFR	0	10	1	RECORD	1176	n/a	0	n/a	n/a	n/a	n/a	n/a
2423.882	n/a	REC_WORD	1211941	wordpools/wasnorm_wordpool_less_exclusions.txt	LTP258	ltpFR	0	10	1	BADGE	68	n/a	0	n/a	n/a	n/a	n/a	n/a
2425.414	n/a	REC_WORD	1212707	wordpools/wasnorm_wordpool_less_exclusions.txt	LTP258	ltpFR	0	10	1	PERSONNEL	1053	n/a	1	n/a	n/a	n/a	n/a	n/a
2427.06	n/a	REC_WORD	1213530	wordpools/wasnorm_wordpool_less_exclusions.txt	LTP258	ltpFR	0	10	1	CREW	406	n/a	1	n/a	n/a	n/a	n/a	n/a
2428.494	n/a	REC_WORD	1214247	wordpools/wasnorm_wordpool_less_exclusions.txt	LTP258	ltpFR	0	10	1	CAULIFLOWER	262	n/a	0	n/a	n/a	n/a	n/a	n/a
2433.53	n/a	REC_WORD	1216765	wordpools/wasnorm_wordpool_less_exclusions.txt	LTP258	ltpFR	0	10	1	SUPERVISOR	1410	n/a	1	n/a	n/a	n/a	n/a	n/a
2446.236	n/a	REC_WORD	1223118	wordpools/wasnorm_wordpool_less_exclusions.txt	LTP258	ltpFR	0	10	1	HEAD	695	n/a	1	n/a	n/a	n/a	n/a	n/a
2490.28	n/a	REC_WORD	1245140	wordpools/wasnorm_wordpool_less_exclusions.txt	LTP258	ltpFR	0	10	1	LONDON	843	n/a	1	n/a	n/a	n/a	n/a	n/a
2490.912	n/a	REC_WORD	1245456	wordpools/wasnorm_wordpool_less_exclusions.txt	LTP258	ltpFR	0	10	1	AFRICA	9	n/a	1	n/a	n/a	n/a	n/a	n/a
2500.002	n/a	WORD	1250001	wordpools/wasnorm_wordpool_less_exclusions.txt	LTP258	ltpFR	0	11	1	WOMAN	1620	n/a	1	0	0.5869140625	0.422607421875	upper	../fonts/amplitud.ttf
2504.05	n/a	WORD	1252025	wordpools/wasnorm_wordpool_less_exclusions.txt	LTP258	ltpFR	0	11	1	STATUE	1374	n/a	0	0	0.5869140625	0.422607421875	upper	../fonts/amplitud.ttf
2508.25	n/a	WORD	1254125	wordpools/wasnorm_wordpool_less_exclusions.txt	LTP258	ltpFR	0	11	1	DOCK	477	n/a	0	0	0.5869140625	0.422607421875	upper	../fonts/amplitud.ttf
2512.476	n/a	WORD	1256238	wordpools/wasnorm_wordpool_less_exclusions.txt	LTP258	ltpFR	0	11	1	ORANGE	980	n/a	0	0	0.5869140625	0.422607421875	upper	../fonts/amplitud.ttf
2516.666	n/a	WORD	1258333	wordpools/wasnorm_wordpool_less_exclusions.txt	LTP258	ltpFR	0	11	1	LIVER	833	n/a	1	0	0.5869140625	0.422607421875	upper	../fonts/amplitud.ttf
2520.532	n/a	WORD	1260266	wordpools/wasnorm_wordpool_less_exclusions.txt	LTP258	ltpFR	0	11	1	BOUILLON	154	n/a	0	0	0.5869140625	0.422607421875	upper	../fonts/amplitud.ttf
2524.564	n/a	WORD	1262282	wordpools/wasnorm_wordpool_less_exclusions.txt	LTP258	ltpFR	0	11	1	THIGH	1457	n/a	1	0	0.5869140625	0.422607421875	upper	../fonts/amplitud.ttf
2528.588	n/a	WORD	1264294	wordpools/wasnorm_wordpool_less_exclusions.txt	LTP258	ltpFR	0	11	1	SHOULDER	1294	n/a	1	0	0.5869140625	0.422607421875	upper	../fonts/amplitud.ttf
2532.476	n/a	WORD	1266238	wordpools/wasnorm_wordpool_less_exclusions.txt	LTP258	ltpFR	0	11	1	FIG	563	n/a	0	0	0.5869140625	0.422607421875	upper	../fonts/amplitud.ttf
2536.652	n/a	WORD	1268326	wordpools/wasnorm_wordpool_less_exclusions.txt	LTP258	ltpFR	0	11	1	CONTRACTOR	369	n/a	1	0	0.5869140625	0.422607421875	upper	../fonts/amplitud.ttf
2540.842	n/a	WORD	1270421	wordpools/wasnorm_wordpool_less_exclusions.txt	LTP258	ltpFR	0	11	1	ALLIGATOR	16	n/a	1	0	0.5869140625	0.422607421875	upper	../fonts/amplitud.ttf
2544.75	n/a	WORD	1272375	wordpools/wasnorm_wordpool_less_exclusions.txt	LTP258	ltpFR	0	11	1	KIDNEY	776	n/a	1	0	0.5869140625	0.422607421875	upper	../fonts/amplitud.ttf
2548.898	n/a	WORD	1274449	wordpools/wasnorm_wordpool_less_exclusions.txt	LTP258	ltpFR	0	11	1	SAILOR	1223	n/a	1	0	0.5869140625	0.422607421875	upper	../fonts/amplitud.ttf
2552.896	n/a	WORD	1276448	wordpools/wasnorm_wordpool_less_exclusions.txt	LTP258	ltpFR	0	11	1	HOSTESS	723	n/a	1	0	0.5869140625	0.422607421875	upper	../fonts/amplitud.ttf
2556.944	n/a	WORD	1278472	wordpools/wasnorm_wordpool_less_exclusions.txt	LTP258	ltpFR	0	11	1	DIVER	476	n/a	1	0	0.5869140625	0.422607421875	upper	../fonts/amplitud.ttf
2560.794	n/a	WORD	1280397	wordpools/wasnorm_wordpool_less_exclusions.txt	LTP258	ltpFR	0	11	1	BATHTUB	100	n/a	0	0	0.5869140625	0.422607421875	upper	../fonts/amplitud.ttf
2566.674	n/a	REC_START	1283337	n/a	LTP258	ltpFR	0	11	n/a	n/a	n/a	n/a	n/a	n/a	n/a	n/a	n/a	n/a
2568.97	n/a	REC_WORD	1284485	wordpools/wasnorm_wordpool_less_exclusions.txt	LTP258	ltpFR	0	11	1	BATHTUB	100	n/a	0	n/a	n/a	n/a	n/a	n/a
2570.51	n/a	REC_WORD	1285255	wordpools/wasnorm_wordpool_less_exclusions.txt	LTP258	ltpFR	0	11	1	SAILOR	1223	n/a	1	n/a	n/a	n/a	n/a	n/a
2572.07	n/a	REC_WORD	1286035	wordpools/wasnorm_wordpool_less_exclusions.txt	LTP258	ltpFR	0	11	1	CONTRACTOR	369	n/a	1	n/a	n/a	n/a	n/a	n/a
2575.596	n/a	REC_WORD	1287798	wordpools/wasnorm_wordpool_less_exclusions.txt	LTP258	ltpFR	0	11	1	THIGH	1457	n/a	1	n/a	n/a	n/a	n/a	n/a
2576.46	n/a	REC_WORD	1288230	wordpools/wasnorm_wordpool_less_exclusions.txt	LTP258	ltpFR	0	11	1	SHOULDER	1294	n/a	1	n/a	n/a	n/a	n/a	n/a
2577.712	n/a	REC_WORD	1288856	wordpools/wasnorm_wordpool_less_exclusions.txt	LTP258	ltpFR	0	11	1	LIVER	833	n/a	1	n/a	n/a	n/a	n/a	n/a
2578.726	n/a	REC_WORD	1289363	wordpools/wasnorm_wordpool_less_exclusions.txt	LTP258	ltpFR	0	11	1	KIDNEY	776	n/a	1	n/a	n/a	n/a	n/a	n/a
2587.58	n/a	REC_WORD	1293790	wordpools/wasnorm_wordpool_less_exclusions.txt	LTP258	ltpFR	0	11	1	WOMAN	1620	n/a	1	n/a	n/a	n/a	n/a	n/a
2589.704	n/a	REC_WORD	1294852	wordpools/wasnorm_wordpool_less_exclusions.txt	LTP258	ltpFR	0	11	1	STATUE	1374	n/a	0	n/a	n/a	n/a	n/a	n/a
2631.554	n/a	REC_WORD	1315777	wordpools/wasnorm_wordpool_less_exclusions.txt	LTP258	ltpFR	0	11	1	BOUILLON	154	n/a	0	n/a	n/a	n/a	n/a	n/a
2632.532	n/a	REC_WORD_VV	1316266	wordpools/wasnorm_wordpool_less_exclusions.txt	LTP258	ltpFR	0	11	n/a	<>	-1	n/a	n/a	n/a	n/a	n/a	n/a	n/a
2647.926	n/a	WORD	1323963	wordpools/wasnorm_wordpool_less_exclusions.txt	LTP258	ltpFR	0	12	1	MAMMAL	861	n/a	1	0	0.5869140625	0.422607421875	upper	../fonts/amplitud.ttf
2652.034	n/a	WORD	1326017	wordpools/wasnorm_wordpool_less_exclusions.txt	LTP258	ltpFR	0	12	1	MAN	862	n/a	1	0	0.5869140625	0.422607421875	upper	../fonts/amplitud.ttf
2656.182	n/a	WORD	1328091	wordpools/wasnorm_wordpool_less_exclusions.txt	LTP258	ltpFR	0	12	1	STABLE	1363	n/a	0	0	0.5869140625	0.422607421875	upper	../fonts/amplitud.ttf
2660.232	n/a	WORD	1330116	wordpools/wasnorm_wordpool_less_exclusions.txt	LTP258	ltpFR	0	12	1	TUNA	1518	n/a	1	0	0.5869140625	0.422607421875	upper	../fonts/amplitud.ttf
2664.374	n/a	WORD	1332187	wordpools/wasnorm_wordpool_less_exclusions.txt	LTP258	ltpFR	0	12	1	LADY	794	n/a	1	0	0.5869140625	0.422607421875	upper	../fonts/amplitud.ttf
2668.396	n/a	WORD	1334198	wordpools/wasnorm_wordpool_less_exclusions.txt	LTP258	ltpFR	0	12	1	HEART	697	n/a	1	0	0.5869140625	0.422607421875	upper	../fonts/amplitud.ttf
2672.472	n/a	WORD	1336236	wordpools/wasnorm_wordpool_less_exclusions.txt	LTP258	ltpFR	0	12	1	PECAN	1036	n/a	0	0	0.5869140625	0.422607421875	upper	../fonts/amplitud.ttf
2676.544	n/a	WORD	1338272	wordpools/wasnorm_wordpool_less_exclusions.txt	LTP258	ltpFR	0	12	1	RECIPE	1175	n/a	0	0	0.5869140625	0.422607421875	upper	../fonts/amplitud.ttf
2680.76	n/a	WORD	1340380	wordpools/wasnorm_wordpool_less_exclusions.txt	LTP258	ltpFR	0	12	1	POPCORN	1104	n/a	0	0	0.5869140625	0.422607421875	upper	../fonts/amplitud.ttf
2684.658	n/a	WORD	1342329	wordpools/wasnorm_wordpool_less_exclusions.txt	LTP258	ltpFR	0	12	1	SKATE	1313	n/a	0	0	0.5869140625	0.422607421875	upper	../fonts/amplitud.ttf
2688.74	n/a	WORD	1344370	wordpools/wasnorm_wordpool_less_exclusions.txt	LTP258	ltpFR	0	12	1	PUBLISHER	1137	n/a	1	0	0.5869140625	0.422607421875	upper	../fonts/amplitud.ttf
2692.69	n/a	WORD	1346345	wordpools/wasnorm_wordpool_less_exclusions.txt	LTP258	ltpFR	0	12	1	BINDER	127	n/a	0	0	0.5869140625	0.422607421875	upper	../fonts/amplitud.ttf
2696.554	n/a	WORD	1348277	wordpools/wasnorm_wordpool_less_exclusions.txt	LTP258	ltpFR	0	12	1	CART	250	n/a	0	0	0.5869140625	0.422607421875	upper	../fonts/amplitud.ttf
2700.652	n/a	WORD	1350326	wordpools/wasnorm_wordpool_less_exclusions.txt	LTP258	ltpFR	0	12	1	CHEDDAR	286	n/a	0	0	0.5869140625	0.422607421875	upper	../fonts/amplitud.ttf
2704.594	n/a	WORD	1352297	wordpools/wasnorm_wordpool_less_exclusions.txt	LTP258	ltpFR	0	12	1	PAINT	1003	n/a	0	0	0.5869140625	0.422607421875	upper	../fonts/amplitud.ttf
2708.71	n/a	WORD	1354355	wordpools/wasnorm_wordpool_less_exclusions.txt	LTP258	ltpFR	0	12	1	PICTURE	1061	n/a	0	0	0.5869140625	0.422607421875	upper	../fonts/amplitud.ttf
2714.606	n/a	REC_START	1357303	n/a	LTP258	ltpFR	0	12	n/a	n/a	n/a	n/a	n/a	n/a	n/a	n/a	n/a	n/a
2716.968	n/a	REC_WORD	1358484	wordpools/wasnorm_wordpool_less_exclusions.txt	LTP258	ltpFR	0	12	1	PICTURE	1061	n/a	0	n/a	n/a	n/a	n/a	n/a
2718.908	n/a	REC_WORD	1359454	wordpools/wasnorm_wordpool_less_exclusions.txt	LTP258	ltpFR	0	12	1	BINDER	127	n/a	0	n/a	n/a	n/a	n/a	n/a
2721.54	n/a	REC_WORD	1360770	wordpools/wasnorm_wordpool_less_exclusions.txt	LTP258	ltpFR	0	12	1	CHEDDAR	286	n/a	0	n/a	n/a	n/a	n/a	n/a
2725.596	n/a	REC_WORD	1362798	wordpools/wasnorm_wordpool_less_exclusions.txt	LTP258	ltpFR	0	12	1	MAN	862	n/a	1	n/a	n/a	n/a	n/a	n/a
2727.478	n/a	REC_WORD	1363739	wordpools/wasnorm_wordpool_less_exclusions.txt	LTP258	ltpFR	0	12	1	LADY	794	n/a	1	n/a	n/a	n/a	n/a	n/a
2728.628	n/a	REC_WORD	1364314	wordpools/wasnorm_wordpool_less_exclusions.txt	LTP258	ltpFR	0	12	1	HEART	697	n/a	1	n/a	n/a	n/a	n/a	n/a
2745.084	n/a	REC_WORD	1372542	wordpools/wasnorm_wordpool_less_exclusions.txt	LTP258	ltpFR	0	12	1	CART	250	n/a	0	n/a	n/a	n/a	n/a	n/a
2790.262	n/a	REST_REWET	1395131	n/a	LTP258	ltpFR	0	12	n/a	n/a	n/a	n/a	n/a	n/a	n/a	n/a	n/a	n/a
3225.424	n/a	WORD	1612712	wordpools/wasnorm_wordpool_less_exclusions.txt	LTP258	ltpFR	0	13	1	OUTLAW	989	n/a	1	0	0.5869140625	0.422607421875	upper	../fonts/amplitud.ttf
3229.424	n/a	WORD	1614712	wordpools/wasnorm_wordpool_less_exclusions.txt	LTP258	ltpFR	0	13	1	OZONE	996	n/a	0	0	0.5869140625	0.422607421875	upper	../fonts/amplitud.ttf
3233.488	n/a	WORD	1616744	wordpools/wasnorm_wordpool_less_exclusions.txt	LTP258	ltpFR	0	13	1	BALLOON	75	n/a	0	0	0.5869140625	0.422607421875	upper	../fonts/amplitud.ttf
3237.386	n/a	WORD	1618693	wordpools/wasnorm_wordpool_less_exclusions.txt	LTP258	ltpFR	0	13	1	HALL	677	n/a	0	0	0.5869140625	0.422607421875	upper	../fonts/amplitud.ttf
3241.396	n/a	WORD	1620698	wordpools/wasnorm_wordpool_less_exclusions.txt	LTP258	ltpFR	0	13	0	BURGLAR	200	n/a	1	1	0.412841796875	0.57763671875	lower	../fonts/zerothre.ttf
3245.384	n/a	WORD	1622692	wordpools/wasnorm_wordpool_less_exclusions.txt	LTP258	ltpFR	0	13	0	DUNGEON	507	n/a	1	1	0.412841796875	0.57763671875	lower	../fonts/zerothre.ttf
3249.61	n/a	WORD	1624805	wordpools/wasnorm_wordpool_less_exclusions.txt	LTP258	ltpFR	0	13	0	BARK	87	n/a	0	1	0.412841796875	0.57763671875	lower	../fonts/zerothre.ttf
3253.608	n/a	WORD	1626804	wordpools/wasnorm_wordpool_less_exclusions.txt	LTP258	ltpFR	0	13	0	CABIN	211	n/a	1	1	0.412841796875	0.57763671875	lower	../fonts/zerothre.ttf
3257.782	n/a	WORD	1628891	wordpools/wasnorm_wordpool_less_exclusions.txt	LTP258	ltpFR	0	13	0	HOUSE	725	n/a	1	1	0.412841796875	0.57763671875	lower	../fonts/zerothre.ttf
3261.824	n/a	WORD	1630912	wordpools/wasnorm_wordpool_less_exclusions.txt	LTP258	ltpFR	0	13	1	BEAD	103	n/a	0	0	0.5869140625	0.422607421875	upper	../fonts/amplitud.ttf
3265.878	n/a	WORD	1632939	wordpools/wasnorm_wordpool_less_exclusions.txt	LTP258	ltpFR	0	13	1	BRANCH	168	n/a	0	0	0.5869140625	0.422607421875	upper	../fonts/amplitud.ttf
3269.844	n/a	WORD	1634922	wordpools/wasnorm_wordpool_less_exclusions.txt	LTP258	ltpFR	0	13	1	BEE	112	n/a	1	0	0.5869140625	0.422607421875	upper	../fonts/amplitud.ttf
3273.786	n/a	WORD	1636893	wordpools/wasnorm_wordpool_less_exclusions.txt	LTP258	ltpFR	0	13	1	TRASH	1497	n/a	0	0	0.5869140625	0.422607421875	upper	../fonts/amplitud.ttf
3277.834	n/a	WORD	1638917	wordpools/wasnorm_wordpool_less_exclusions.txt	LTP258	ltpFR	0	13	0	CYLINDER	432	n/a	1	1	0.412841796875	0.57763671875	lower	../fonts/zerothre.ttf
3281.94	n/a	WORD	1640970	wordpools/wasnorm_wordpool_less_exclusions.txt	LTP258	ltpFR	0	13	0	GUARD	667	n/a	1	1	0.412841796875	0.57763671875	lower	../fonts/zerothre.ttf
3286.14	n/a	WORD	1643070	wordpools/wasnorm_wordpool_less_exclusions.txt	LTP258	ltpFR	0	13	0	CAT	257	n/a	1	1	0.412841796875	0.57763671875	lower	../fonts/zerothre.ttf
3291.772	n/a	REC_START	1645886	n/a	LTP258	ltpFR	0	13	n/a	n/a	n/a	n/a	n/a	n/a	n/a	n/a	n/a	n/a
3294.852	n/a	REC_WORD	1647426	wordpools/wasnorm_wordpool_less_exclusions.txt	LTP258	ltpFR	0	13	0	CAT	257	n/a	1	n/a	n/a	n/a	n/a	n/a
3296.152	n/a	REC_WORD	1648076	wordpools/wasnorm_wordpool_less_exclusions.txt	LTP258	ltpFR	0	13	0	CYLINDER	432	n/a	1	n/a	n/a	n/a	n/a	n/a
3297.596	n/a	REC_WORD	1648798	wordpools/wasnorm_wordpool_less_exclusions.txt	LTP258	ltpFR	0	13	1	OUTLAW	989	n/a	1	n/a	n/a	n/a	n/a	n/a
3308.842	n/a	REC_WORD	1654421	wordpools/wasnorm_wordpool_less_exclusions.txt	LTP258	ltpFR	0	13	1	BRANCH	168	n/a	0	n/a	n/a	n/a	n/a	n/a
3323.07	n/a	REC_WORD	1661535	wordpools/wasnorm_wordpool_less_exclusions.txt	LTP258	ltpFR	0	13	0	HOUSE	725	n/a	1	n/a	n/a	n/a	n/a	n/a
3383.176	n/a	WORD	1691588	wordpools/wasnorm_wordpool_less_exclusions.txt	LTP258	ltpFR	0	14	0	WELL	1600	n/a	1	1	0.412841796875	0.57763671875	lower	../fonts/zerothre.ttf
3387.008	n/a	WORD	1693504	wordpools/wasnorm_wordpool_less_exclusions.txt	LTP258	ltpFR	0	14	0	DIME	466	n/a	0	1	0.412841796875	0.57763671875	lower	../fonts/zerothre.ttf
3391.084	n/a	WORD	1695542	wordpools/wasnorm_wordpool_less_exclusions.txt	LTP258	ltpFR	0	14	0	CANOE	233	n/a	1	1	0.412841796875	0.57763671875	lower	../fonts/zerothre.ttf
3394.922	n/a	WORD	1697461	wordpools/wasnorm_wordpool_less_exclusions.txt	LTP258	ltpFR	0	14	0	JACKET	747	n/a	1	1	0.412841796875	0.57763671875	lower	../fonts/zerothre.ttf
3399.146	n/a	WORD	1699573	wordpools/wasnorm_wordpool_less_exclusions.txt	LTP258	ltpFR	0	14	1	BEAVER	109	n/a	1	0	0.5869140625	0.422607421875	upper	../fonts/amplitud.ttf
3402.978	n/a	WORD	1701489	wordpools/wasnorm_wordpool_less_exclusions.txt	LTP258	ltpFR	0	14	1	CAMEL	223	n/a	1	0	0.5869140625	0.422607421875	upper	../fonts/amplitud.ttf
3407.1	n/a	WORD	1703550	wordpools/wasnorm_wordpool_less_exclusions.txt	LTP258	ltpFR	0	14	1	NICOTINE	951	n/a	0	0	0.5869140625	0.422607421875	upper	../fonts/amplitud.ttf
3411.06	n/a	WORD	1705530	wordpools/wasnorm_wordpool_less_exclusions.txt	LTP258	ltpFR	0	14	1	CAPE	237	n/a	0	0	0.5869140625	0.422607421875	upper	../fonts/amplitud.ttf
3414.898	n/a	WORD	1707449	wordpools/wasnorm_wordpool_less_exclusions.txt	LTP258	ltpFR	0	14	0	FURNITURE	616	n/a	1	1	0.412841796875	0.57763671875	lower	../fonts/zerothre.ttf
3418.746	n/a	WORD	1709373	wordpools/wasnorm_wordpool_less_exclusions.txt	LTP258	ltpFR	0	14	0	CATTLE	261	n/a	1	1	0.412841796875	0.57763671875	lower	../fonts/zerothre.ttf
3422.654	n/a	WORD	1711327	wordpools/wasnorm_wordpool_less_exclusions.txt	LTP258	ltpFR	0	14	0	NICKEL	950	n/a	0	1	0.412841796875	0.57763671875	lower	../fonts/zerothre.ttf
3426.804	n/a	WORD	1713402	wordpools/wasnorm_wordpool_less_exclusions.txt	LTP258	ltpFR	0	14	0	WARRIOR	1589	n/a	1	1	0.412841796875	0.57763671875	lower	../fonts/zerothre.ttf
3430.968	n/a	WORD	1715484	wordpools/wasnorm_wordpool_less_exclusions.txt	LTP258	ltpFR	0	14	1	FIST	572	n/a	1	0	0.5869140625	0.422607421875	upper	../fonts/amplitud.ttf
3434.818	n/a	WORD	1717409	wordpools/wasnorm_wordpool_less_exclusions.txt	LTP258	ltpFR	0	14	1	AUTHOR	61	n/a	1	0	0.5869140625	0.422607421875	upper	../fonts/amplitud.ttf
3438.956	n/a	WORD	1719478	wordpools/wasnorm_wordpool_less_exclusions.txt	LTP258	ltpFR	0	14	1	CELERY	266	n/a	1	0	0.5869140625	0.422607421875	upper	../fonts/amplitud.ttf
3443.064	n/a	WORD	1721532	wordpools/wasnorm_wordpool_less_exclusions.txt	LTP258	ltpFR	0	14	1	GOO	648	n/a	0	0	0.5869140625	0.422607421875	upper	../fonts/amplitud.ttf
3448.722	n/a	REC_START	1724361	n/a	LTP258	ltpFR	0	14	n/a	n/a	n/a	n/a	n/a	n/a	n/a	n/a	n/a	n/a
3451.418	n/a	REC_WORD	1725709	wordpools/wasnorm_wordpool_less_exclusions.txt	LTP258	ltpFR	0	14	1	GOO	648	n/a	0	n/a	n/a	n/a	n/a	n/a
3452.242	n/a	REC_WORD	1726121	wordpools/wasnorm_wordpool_less_exclusions.txt	LTP258	ltpFR	0	14	1	CELERY	266	n/a	1	n/a	n/a	n/a	n/a	n/a
3453.694	n/a	REC_WORD	1726847	wordpools/wasnorm_wordpool_less_exclusions.txt	LTP258	ltpFR	0	14	1	AUTHOR	61	n/a	1	n/a	n/a	n/a	n/a	n/a
3458.97	n/a	REC_WORD	1729485	wordpools/wasnorm_wordpool_less_exclusions.txt	LTP258	ltpFR	0	14	0	CATTLE	261	n/a	1	n/a	n/a	n/a	n/a	n/a
3464.336	n/a	REC_WORD	1732168	wordpools/wasnorm_wordpool_less_exclusions.txt	LTP258	ltpFR	0	14	1	CAMEL	223	n/a	1	n/a	n/a	n/a	n/a	n/a
3469.86	n/a	REC_WORD	1734930	wordpools/wasnorm_wordpool_less_exclusions.txt	LTP258	ltpFR	0	14	0	DIME	466	n/a	0	n/a	n/a	n/a	n/a	n/a
3479.184	n/a	REC_WORD	1739592	wordpools/wasnorm_wordpool_less_exclusions.txt	LTP258	ltpFR	0	14	0	JACKET	747	n/a	1	n/a	n/a	n/a	n/a	n/a
3533.678	n/a	WORD	1766839	wordpools/wasnorm_wordpool_less_exclusions.txt	LTP258	ltpFR	0	15	0	BLACKBERRY	132	n/a	0	1	0.412841796875	0.57763671875	lower	../fonts/zerothre.ttf
3537.56	n/a	WORD	1768780	wordpools/wasnorm_wordpool_less_exclusions.txt	LTP258	ltpFR	0	15	0	KING	777	n/a	1	1	0.412841796875	0.57763671875	lower	../fonts/zerothre.ttf
3541.492	n/a	WORD	1770746	wordpools/wasnorm_wordpool_less_exclusions.txt	LTP258	ltpFR	0	15	0	EMPEROR	529	n/a	1	1	0.412841796875	0.57763671875	lower	../fonts/zerothre.ttf
3545.648	n/a	WORD	1772824	wordpools/wasnorm_wordpool_less_exclusions.txt	LTP258	ltpFR	0	15	1	BEER	114	n/a	0	0	0.5869140625	0.422607421875	upper	../fonts/amplitud.ttf
3549.69	n/a	WORD	1774845	wordpools/wasnorm_wordpool_less_exclusions.txt	LTP258	ltpFR	0	15	1	DOUGH	489	n/a	0	0	0.5869140625	0.422607421875	upper	../fonts/amplitud.ttf
3553.628	n/a	WORD	1776814	wordpools/wasnorm_wordpool_less_exclusions.txt	LTP258	ltpFR	0	15	0	SKI	1316	n/a	1	1	0.412841796875	0.57763671875	lower	../fonts/zerothre.ttf
3557.754	n/a	WORD	1778877	wordpools/wasnorm_wordpool_less_exclusions.txt	LTP258	ltpFR	0	15	0	CRITIC	410	n/a	1	1	0.412841796875	0.57763671875	lower	../fonts/zerothre.ttf
3561.87	n/a	WORD	1780935	wordpools/wasnorm_wordpool_less_exclusions.txt	LTP258	ltpFR	0	15	0	SCARECROW	1245	n/a	1	1	0.412841796875	0.57763671875	lower	../fonts/zerothre.ttf
3566.058	n/a	WORD	1783029	wordpools/wasnorm_wordpool_less_exclusions.txt	LTP258	ltpFR	0	15	1	BARLEY	88	n/a	0	0	0.5869140625	0.422607421875	upper	../fonts/amplitud.ttf
3569.956	n/a	WORD	1784978	wordpools/wasnorm_wordpool_less_exclusions.txt	LTP258	ltpFR	0	15	1	DRINK	498	n/a	0	0	0.5869140625	0.422607421875	upper	../fonts/amplitud.ttf
3574.072	n/a	WORD	1787036	wordpools/wasnorm_wordpool_less_exclusions.txt	LTP258	ltpFR	0	15	1	RADIATOR	1156	n/a	0	0	0.5869140625	0.422607421875	upper	../fonts/amplitud.ttf
3578.172	n/a	WORD	1789086	wordpools/wasnorm_wordpool_less_exclusions.txt	LTP258	ltpFR	0	15	1	KEY	773	n/a	0	0	0.5869140625	0.422607421875	upper	../fonts/amplitud.ttf
3582.272	n/a	WORD	1791136	wordpools/wasnorm_wordpool_less_exclusions.txt	LTP258	ltpFR	0	15	1	CHAIRPERSON	275	n/a	1	0	0.5869140625	0.422607421875	upper	../fonts/amplitud.ttf
3586.414	n/a	WORD	1793207	wordpools/wasnorm_wordpool_less_exclusions.txt	LTP258	ltpFR	0	15	1	FACE	547	n/a	1	0	0.5869140625	0.422607421875	upper	../fonts/amplitud.ttf
3590.268	n/a	WORD	1795134	wordpools/wasnorm_wordpool_less_exclusions.txt	LTP258	ltpFR	0	15	0	SLUG	1329	n/a	0	1	0.412841796875	0.57763671875	lower	../fonts/zerothre.ttf
3594.142	n/a	WORD	1797071	wordpools/wasnorm_wordpool_less_exclusions.txt	LTP258	ltpFR	0	15	0	SCREEN	1253	n/a	1	1	0.412841796875	0.57763671875	lower	../fonts/zerothre.ttf
3599.89	n/a	REC_START	1799945	n/a	LTP258	ltpFR	0	15	n/a	n/a	n/a	n/a	n/a	n/a	n/a	n/a	n/a	n/a
3603.578	n/a	REC_WORD	1801789	wordpools/wasnorm_wordpool_less_exclusions.txt	LTP258	ltpFR	0	15	0	SCREEN	1253	n/a	1	n/a	n/a	n/a	n/a	n/a
3606.22	n/a	REC_WORD	1803110	wordpools/wasnorm_wordpool_less_exclusions.txt	LTP258	ltpFR	0	15	0	SLUG	1329	n/a	0	n/a	n/a	n/a	n/a	n/a
3620.988	n/a	REC_WORD	1810494	wordpools/wasnorm_wordpool_less_exclusions.txt	LTP258	ltpFR	0	15	0	BLACKBERRY	132	n/a	0	n/a	n/a	n/a	n/a	n/a
3689.44	n/a	WORD	1844720	wordpools/wasnorm_wordpool_less_exclusions.txt	LTP258	ltpFR	0	16	1	PORCUPINE	1107	n/a	1	0	0.5869140625	0.422607421875	upper	../fonts/amplitud.ttf
3693.48	n/a	WORD	1846740	wordpools/wasnorm_wordpool_less_exclusions.txt	LTP258	ltpFR	0	16	1	HAYSTACK	694	n/a	0	0	0.5869140625	0.422607421875	upper	../fonts/amplitud.ttf
3697.454	n/a	WORD	1848727	wordpools/wasnorm_wordpool_less_exclusions.txt	LTP258	ltpFR	0	16	0	ACORN	3	n/a	0	1	0.412841796875	0.57763671875	lower	../fonts/zerothre.ttf
3701.578	n/a	WORD	1850789	wordpools/wasnorm_wordpool_less_exclusions.txt	LTP258	ltpFR	0	16	0	TAPIOCA	1434	n/a	0	1	0.412841796875	0.57763671875	lower	../fonts/zerothre.ttf
3705.592	n/a	WORD	1852796	wordpools/wasnorm_wordpool_less_exclusions.txt	LTP258	ltpFR	0	16	0	COOKIE	374	n/a	0	1	0.412841796875	0.57763671875	lower	../fonts/zerothre.ttf
3709.592	n/a	WORD	1854796	wordpools/wasnorm_wordpool_less_exclusions.txt	LTP258	ltpFR	0	16	0	STOVE	1388	n/a	1	1	0.412841796875	0.57763671875	lower	../fonts/zerothre.ttf
3713.416	n/a	WORD	1856708	wordpools/wasnorm_wordpool_less_exclusions.txt	LTP258	ltpFR	0	16	0	SPATULA	1348	n/a	0	1	0.412841796875	0.57763671875	lower	../fonts/zerothre.ttf
3717.414	n/a	WORD	1858707	wordpools/wasnorm_wordpool_less_exclusions.txt	LTP258	ltpFR	0	16	1	MECHANIC	884	n/a	1	0	0.5869140625	0.422607421875	upper	../fonts/amplitud.ttf
3721.58	n/a	WORD	1860790	wordpools/wasnorm_wordpool_less_exclusions.txt	LTP258	ltpFR	0	16	1	CAPITAL	238	n/a	0	0	0.5869140625	0.422607421875	upper	../fonts/amplitud.ttf
3725.612	n/a	WORD	1862806	wordpools/wasnorm_wordpool_less_exclusions.txt	LTP258	ltpFR	0	16	1	COBBLER	335	n/a	0	0	0.5869140625	0.422607421875	upper	../fonts/amplitud.ttf
3729.694	n/a	WORD	1864847	wordpools/wasnorm_wordpool_less_exclusions.txt	LTP258	ltpFR	0	16	1	MAPLE	866	n/a	1	0	0.5869140625	0.422607421875	upper	../fonts/amplitud.ttf
3733.644	n/a	WORD	1866822	wordpools/wasnorm_wordpool_less_exclusions.txt	LTP258	ltpFR	0	16	0	SUBURB	1399	n/a	1	1	0.412841796875	0.57763671875	lower	../fonts/zerothre.ttf
3737.558	n/a	WORD	1868779	wordpools/wasnorm_wordpool_less_exclusions.txt	LTP258	ltpFR	0	16	0	COUGAR	387	n/a	1	1	0.412841796875	0.57763671875	lower	../fonts/zerothre.ttf
3741.464	n/a	WORD	1870732	wordpools/wasnorm_wordpool_less_exclusions.txt	LTP258	ltpFR	0	16	0	ASTEROID	50	n/a	1	1	0.412841796875	0.57763671875	lower	../fonts/zerothre.ttf
3745.454	n/a	WORD	1872727	wordpools/wasnorm_wordpool_less_exclusions.txt	LTP258	ltpFR	0	16	1	POLE	1097	n/a	0	0	0.5869140625	0.422607421875	upper	../fonts/amplitud.ttf
3749.444	n/a	WORD	1874722	wordpools/wasnorm_wordpool_less_exclusions.txt	LTP258	ltpFR	0	16	1	STADIUM	1364	n/a	0	0	0.5869140625	0.422607421875	upper	../fonts/amplitud.ttf
3755.4	n/a	REC_START	1877700	n/a	LTP258	ltpFR	0	16	n/a	n/a	n/a	n/a	n/a	n/a	n/a	n/a	n/a	n/a
3759.986	n/a	REC_WORD	1879993	wordpools/wasnorm_wordpool_less_exclusions.txt	LTP258	ltpFR	0	16	0	ASTEROID	50	n/a	1	n/a	n/a	n/a	n/a	n/a
3763.008	n/a	REC_WORD	1881504	wordpools/wasnorm_wordpool_less_exclusions.txt	LTP258	ltpFR	0	16	1	POLE	1097	n/a	0	n/a	n/a	n/a	n/a	n/a
3764.716	n/a	REC_WORD	1882358	wordpools/wasnorm_wordpool_less_exclusions.txt	LTP258	ltpFR	0	16	1	STADIUM	1364	n/a	0	n/a	n/a	n/a	n/a	n/a
3770.91	n/a	REC_WORD	1885455	wordpools/wasnorm_wordpool_less_exclusions.txt	LTP258	ltpFR	0	16	1	PORCUPINE	1107	n/a	1	n/a	n/a	n/a	n/a	n/a
3816.064	n/a	REC_WORD	1908032	wordpools/wasnorm_wordpool_less_exclusions.txt	LTP258	ltpFR	0	16	0	COUGAR	387	n/a	1	n/a	n/a	n/a	n/a	n/a
3877.308	n/a	REC_START	1938654	n/a	LTP258	ltpFR	0	n/a	n/a	n/a	n/a	n/a	n/a	n/a	n/a	n/a	n/a	n/a
3880.222	n/a	FFR_REC_WORD	1940111	wordpools/wasnorm_wordpool_less_exclusions.txt	LTP258	ltpFR	0	n/a	0	COUGAR	387	n/a	1	n/a	n/a	n/a	n/a	n/a
3884.24	n/a	FFR_REC_WORD	1942120	wordpools/wasnorm_wordpool_less_exclusions.txt	LTP258	ltpFR	0	n/a	-1	STONE	1385	n/a	-1	n/a	n/a	n/a	n/a	n/a
3888.424	n/a	FFR_REC_WORD	1944212	wordpools/wasnorm_wordpool_less_exclusions.txt	LTP258	ltpFR	0	n/a	-1	PENGUIN	1044	n/a	-1	n/a	n/a	n/a	n/a	n/a
3889.338	n/a	FFR_REC_WORD	1944669	wordpools/wasnorm_wordpool_less_exclusions.txt	LTP258	ltpFR	0	n/a	0	CROCODILE	411	n/a	1	n/a	n/a	n/a	n/a	n/a
3890.584	n/a	FFR_REC_WORD	1945292	wordpools/wasnorm_wordpool_less_exclusions.txt	LTP258	ltpFR	0	n/a	1	CAMEL	223	n/a	1	n/a	n/a	n/a	n/a	n/a
3891.732	n/a	FFR_REC_WORD	1945866	wordpools/wasnorm_wordpool_less_exclusions.txt	LTP258	ltpFR	0	n/a	0	CATTLE	261	n/a	1	n/a	n/a	n/a	n/a	n/a
3896.914	n/a	FFR_REC_WORD	1948457	wordpools/wasnorm_wordpool_less_exclusions.txt	LTP258	ltpFR	0	n/a	1	LIZARD	834	n/a	0	n/a	n/a	n/a	n/a	n/a
3903.744	n/a	FFR_REC_WORD	1951872	wordpools/wasnorm_wordpool_less_exclusions.txt	LTP258	ltpFR	0	n/a	-1	HAM	678	n/a	-1	n/a	n/a	n/a	n/a	n/a
3904.75	n/a	FFR_REC_WORD	1952375	wordpools/wasnorm_wordpool_less_exclusions.txt	LTP258	ltpFR	0	n/a	-1	PORK	1108	n/a	-1	n/a	n/a	n/a	n/a	n/a
3910.472	n/a	FFR_REC_WORD	1955236	wordpools/wasnorm_wordpool_less_exclusions.txt	LTP258	ltpFR	0	n/a	1	PORCUPINE	1107	n/a	1	n/a	n/a	n/a	n/a	n/a
3924.26	n/a	FFR_REC_WORD	1962130	wordpools/wasnorm_wordpool_less_exclusions.txt	LTP258	ltpFR	0	n/a	-1	POSSUM	1112	n/a	-1	n/a	n/a	n/a	n/a	n/a
3937.466	n/a	FFR_REC_WORD	1968733	wordpools/wasnorm_wordpool_less_exclusions.txt	LTP258	ltpFR	0	n/a	1	MAN	862	n/a	1	n/a	n/a	n/a	n/a	n/a
3938.564	n/a	FFR_REC_WORD	1969282	wordpools/wasnorm_wordpool_less_exclusions.txt	LTP258	ltpFR	0	n/a	1	LADY	794	n/a	1	n/a	n/a	n/a	n/a	n/a
3939.62	n/a	FFR_REC_WORD	1969810	wordpools/wasnorm_wordpool_less_exclusions.txt	LTP258	ltpFR	0	n/a	1	WOMAN	1620	n/a	1	n/a	n/a	n/a	n/a	n/a
3941.012	n/a	FFR_REC_WORD	1970506	wordpools/wasnorm_wordpool_less_exclusions.txt	LTP258	ltpFR	0	n/a	1	STATUE	1374	n/a	0	n/a	n/a	n/a	n/a	n/a
3949.608	n/a	FFR_REC_WORD	1974804	wordpools/wasnorm_wordpool_less_exclusions.txt	LTP258	ltpFR	0	n/a	0	CHEF	290	n/a	1	n/a	n/a	n/a	n/a	n/a
3952.386	n/a	FFR_REC_WORD	1976193	wordpools/wasnorm_wordpool_less_exclusions.txt	LTP258	ltpFR	0	n/a	1	CONTRACTOR	369	n/a	1	n/a	n/a	n/a	n/a	n/a
3961.402	n/a	FFR_REC_WORD	1980701	wordpools/wasnorm_wordpool_less_exclusions.txt	LTP258	ltpFR	0	n/a	1	SUPERVISOR	1410	n/a	1	n/a	n/a	n/a	n/a	n/a
3969.988	n/a	FFR_REC_WORD	1984994	wordpools/wasnorm_wordpool_less_exclusions.txt	LTP258	ltpFR	0	n/a	0	ENEMY	534	n/a	1	n/a	n/a	n/a	n/a	n/a
3970.606	n/a	FFR_REC_WORD	1985303	wordpools/wasnorm_wordpool_less_exclusions.txt	LTP258	ltpFR	0	n/a	0	MAGICIAN	854	n/a	1	n/a	n/a	n/a	n/a	n/a
3973.514	n/a	FFR_REC_WORD	1986757	wordpools/wasnorm_wordpool_less_exclusions.txt	LTP258	ltpFR	0	n/a	1	PERSONNEL	1053	n/a	1	n/a	n/a	n/a	n/a	n/a
3982.146	n/a	FFR_REC_WORD	1991073	wordpools/wasnorm_wordpool_less_exclusions.txt	LTP258	ltpFR	0	n/a	1	BRANCH	168	n/a	0	n/a	n/a	n/a	n/a	n/a
3983.344	n/a	FFR_REC_WORD	1991672	wordpools/wasnorm_wordpool_less_exclusions.txt	LTP258	ltpFR	0	n/a	0	CONCRETE	361	n/a	n/a	n/a	n/a	n/a	n/a	n/a
3986.946	n/a	FFR_REC_WORD	1993473	wordpools/wasnorm_wordpool_less_exclusions.txt	LTP258	ltpFR	0	n/a	1	BINDER	127	n/a	0	n/a	n/a	n/a	n/a	n/a
3988.986	n/a	FFR_REC_WORD	1994493	wordpools/wasnorm_wordpool_less_exclusions.txt	LTP258	ltpFR	0	n/a	-1	STRAWBERRY	1391	n/a	-1	n/a	n/a	n/a	n/a	n/a
3997.656	n/a	FFR_REC_WORD	1998828	wordpools/wasnorm_wordpool_less_exclusions.txt	LTP258	ltpFR	0	n/a	1	CHEDDAR	286	n/a	0	n/a	n/a	n/a	n/a	n/a
4005.43	n/a	FFR_REC_WORD	2002715	wordpools/wasnorm_wordpool_less_exclusions.txt	LTP258	ltpFR	0	n/a	-1	WAITER	1580	n/a	-1	n/a	n/a	n/a	n/a	n/a
4027.05	n/a	FFR_REC_WORD	2013525	wordpools/wasnorm_wordpool_less_exclusions.txt	LTP258	ltpFR	0	n/a	-1	LETTUCE	814	n/a	-1	n/a	n/a	n/a	n/a	n/a
4028.258	n/a	FFR_REC_WORD	2014129	wordpools/wasnorm_wordpool_less_exclusions.txt	LTP258	ltpFR	0	n/a	-1	ICEBERG	731	n/a	-1	n/a	n/a	n/a	n/a	n/a
4035.192	n/a	FFR_REC_WORD	2017596	wordpools/wasnorm_wordpool_less_exclusions.txt	LTP258	ltpFR	0	n/a	-1	SIBLING	1301	n/a	-1	n/a	n/a	n/a	n/a	n/a
4036.15	n/a	FFR_REC_WORD	2018075	wordpools/wasnorm_wordpool_less_exclusions.txt	LTP258	ltpFR	0	n/a	-1	SISTER	1312	n/a	-1	n/a	n/a	n/a	n/a	n/a
4049.58	n/a	FFR_REC_WORD	2024790	wordpools/wasnorm_wordpool_less_exclusions.txt	LTP258	ltpFR	0	n/a	0	HOUSE	725	n/a	1	n/a	n/a	n/a	n/a	n/a
4057.668	n/a	FFR_REC_WORD	2028834	wordpools/wasnorm_wordpool_less_exclusions.txt	LTP258	ltpFR	0	n/a	-1	REFEREE	1178	n/a	-1	n/a	n/a	n/a	n/a	n/a
4066.21	n/a	FFR_REC_WORD	2033105	wordpools/wasnorm_wordpool_less_exclusions.txt	LTP258	ltpFR	0	n/a	-1	DAM	436	n/a	-1	n/a	n/a	n/a	n/a	n/a
4071.558	n/a	FFR_REC_WORD	2035779	wordpools/wasnorm_wordpool_less_exclusions.txt	LTP258	ltpFR	0	n/a	-1	BAY	102	n/a	-1	n/a	n/a	n/a	n/a	n/a
4091.16	n/a	FFR_REC_WORD	2045580	wordpools/wasnorm_wordpool_less_exclusions.txt	LTP258	ltpFR	0	n/a	0	HANGER	687	n/a	0	n/a	n/a	n/a	n/a	n/a
4092.286	n/a	FFR_REC_WORD	2046143	wordpools/wasnorm_wordpool_less_exclusions.txt	LTP258	ltpFR	0	n/a	0	DRAWER	493	n/a	1	n/a	n/a	n/a	n/a	n/a
4103.82	n/a	FFR_REC_WORD	2051910	wordpools/wasnorm_wordpool_less_exclusions.txt	LTP258	ltpFR	0	n/a	1	LONDON	843	n/a	1	n/a	n/a	n/a	n/a	n/a
4105.008	n/a	FFR_REC_WORD	2052504	wordpools/wasnorm_wordpool_less_exclusions.txt	LTP258	ltpFR	0	n/a	1	AFRICA	9	n/a	1	n/a	n/a	n/a	n/a	n/a
4119.322	n/a	FFR_REC_WORD	2059661	wordpools/wasnorm_wordpool_less_exclusions.txt	LTP258	ltpFR	0	n/a	0	BROOK	177	n/a	1	n/a	n/a	n/a	n/a	n/a
4146.79	n/a	FFR_REC_WORD	2073395	wordpools/wasnorm_wordpool_less_exclusions.txt	LTP258	ltpFR	0	n/a	0	DIME	466	n/a	0	n/a	n/a	n/a	n/a	n/a
4151.24	n/a	FFR_REC_WORD	2075620	wordpools/wasnorm_wordpool_less_exclusions.txt	LTP258	ltpFR	0	n/a	1	HEART	697	n/a	1	n/a	n/a	n/a	n/a	n/a
4152.392	n/a	FFR_REC_WORD	2076196	wordpools/wasnorm_wordpool_less_exclusions.txt	LTP258	ltpFR	0	n/a	1	LIVER	833	n/a	1	n/a	n/a	n/a	n/a	n/a
4153.68	n/a	FFR_REC_WORD	2076840	wordpools/wasnorm_wordpool_less_exclusions.txt	LTP258	ltpFR	0	n/a	1	KIDNEY	776	n/a	1	n/a	n/a	n/a	n/a	n/a
4154.718	n/a	FFR_REC_WORD	2077359	wordpools/wasnorm_wordpool_less_exclusions.txt	LTP258	ltpFR	0	n/a	1	THIGH	1457	n/a	1	n/a	n/a	n/a	n/a	n/a
4155.616	n/a	FFR_REC_WORD	2077808	wordpools/wasnorm_wordpool_less_exclusions.txt	LTP258	ltpFR	0	n/a	1	SHOULDER	1294	n/a	1	n/a	n/a	n/a	n/a	n/a
4160.45	n/a	FFR_REC_WORD	2080225	wordpools/wasnorm_wordpool_less_exclusions.txt	LTP258	ltpFR	0	n/a	1	FACE	547	n/a	1	n/a	n/a	n/a	n/a	n/a
4161.682	n/a	FFR_REC_WORD	2080841	wordpools/wasnorm_wordpool_less_exclusions.txt	LTP258	ltpFR	0	n/a	1	HEAD	695	n/a	1	n/a	n/a	n/a	n/a	n/a
4469.548	n/a	REC_START	2234774	n/a	LTP258	ltpFR	0	1	n/a	n/a	n/a	n/a	n/a	n/a	n/a	n/a	n/a	n/a
4469.606	n/a	RECOG_TARGET	2234803	n/a	LTP258	ltpFR	0	1	0	VIOLA	1570	5	1	n/a	n/a	n/a	n/a	n/a
4471.662	n/a	RECOG_RESP	2235831	n/a	LTP258	ltpFR	0	1	0	VIOLA	1570	n/a	1	n/a	n/a	n/a	n/a	n/a
4478.004	n/a	RECOG_CONF	2239002	n/a	LTP258	ltpFR	0	1	0	VIOLA	1570	5	1	n/a	n/a	n/a	n/a	n/a
4481.842	n/a	RECOG_LURE	2240921	n/a	LTP258	ltpFR	0	1	n/a	RANCH	1166	3	n/a	n/a	n/a	n/a	n/a	n/a
4483.924	n/a	RECOG_RESP	2241962	n/a	LTP258	ltpFR	0	1	n/a	RANCH	1166	n/a	n/a	n/a	n/a	n/a	n/a	n/a
4487.512	n/a	RECOG_CONF	2243756	n/a	LTP258	ltpFR	0	1	n/a	RANCH	1166	3	n/a	n/a	n/a	n/a	n/a	n/a
4490.066	n/a	RECOG_TARGET	2245033	n/a	LTP258	ltpFR	0	1	1	PUBLISHER	1137	3	1	n/a	n/a	n/a	n/a	n/a
4493.614	n/a	RECOG_RESP	2246807	n/a	LTP258	ltpFR	0	1	1	PUBLISHER	1137	n/a	1	n/a	n/a	n/a	n/a	n/a
4496.122	n/a	RECOG_CONF	2248061	n/a	LTP258	ltpFR	0	1	1	PUBLISHER	1137	3	1	n/a	n/a	n/a	n/a	n/a
4498.624	n/a	RECOG_TARGET	2249312	n/a	LTP258	ltpFR	0	1	0	SURF	1412	4	1	n/a	n/a	n/a	n/a	n/a
4501.61	n/a	RECOG_RESP	2250805	n/a	LTP258	ltpFR	0	1	0	SURF	1412	n/a	1	n/a	n/a	n/a	n/a	n/a
4504.304	n/a	RECOG_CONF	2252152	n/a	LTP258	ltpFR	0	1	0	SURF	1412	4	1	n/a	n/a	n/a	n/a	n/a
4506.63	n/a	RECOG_TARGET	2253315	n/a	LTP258	ltpFR	0	1	0	CABIN	211	2	1	n/a	n/a	n/a	n/a	n/a
4508.994	n/a	RECOG_RESP	2254497	n/a	LTP258	ltpFR	0	1	0	CABIN	211	n/a	1	n/a	n/a	n/a	n/a	n/a
4511.43	n/a	RECOG_CONF	2255715	n/a	LTP258	ltpFR	0	1	0	CABIN	211	2	1	n/a	n/a	n/a	n/a	n/a
4513.514	n/a	RECOG_TARGET	2256757	n/a	LTP258	ltpFR	0	1	-1	TYPIST	1532	5	-1	n/a	n/a	n/a	n/a	n/a
4515.44	n/a	RECOG_RESP	2257720	n/a	LTP258	ltpFR	0	1	-1	TYPIST	1532	n/a	-1	n/a	n/a	n/a	n/a	n/a
4517.226	n/a	RECOG_CONF	2258613	n/a	LTP258	ltpFR	0	1	-1	TYPIST	1532	5	-1	n/a	n/a	n/a	n/a	n/a
4519.436	n/a	RECOG_LURE	2259718	n/a	LTP258	ltpFR	0	1	n/a	VISITOR	1573	3	n/a	n/a	n/a	n/a	n/a	n/a
4521.206	n/a	RECOG_RESP	2260603	n/a	LTP258	ltpFR	0	1	n/a	VISITOR	1573	n/a	n/a	n/a	n/a	n/a	n/a	n/a
4523.052	n/a	RECOG_CONF	2261526	n/a	LTP258	ltpFR	0	1	n/a	VISITOR	1573	3	n/a	n/a	n/a	n/a	n/a	n/a
4525.336	n/a	RECOG_TARGET	2262668	n/a	LTP258	ltpFR	0	1	-1	CABOOSE	214	5	-1	n/a	n/a	n/a	n/a	n/a
4527.064	n/a	RECOG_RESP	2263532	n/a	LTP258	ltpFR	0	1	-1	CABOOSE	214	n/a	-1	n/a	n/a	n/a	n/a	n/a
4528.83	n/a	RECOG_CONF	2264415	n/a	LTP258	ltpFR	0	1	-1	CABOOSE	214	5	-1	n/a	n/a	n/a	n/a	n/a
4530.922	n/a	RECOG_TARGET	2265461	n/a	LTP258	ltpFR	0	1	0	BURGLAR	200	2	1	n/a	n/a	n/a	n/a	n/a
4532.736	n/a	RECOG_RESP	2266368	n/a	LTP258	ltpFR	0	1	0	BURGLAR	200	n/a	1	n/a	n/a	n/a	n/a	n/a
4534.728	n/a	RECOG_CONF	2267364	n/a	LTP258	ltpFR	0	1	0	BURGLAR	200	2	1	n/a	n/a	n/a	n/a	n/a
4536.852	n/a	RECOG_LURE	2268426	n/a	LTP258	ltpFR	0	1	n/a	TURNIP	1521	1	n/a	n/a	n/a	n/a	n/a	n/a
4543.314	n/a	RECOG_RESP	2271657	n/a	LTP258	ltpFR	0	1	n/a	TURNIP	1521	n/a	n/a	n/a	n/a	n/a	n/a	n/a
4544.756	n/a	RECOG_CONF	2272378	n/a	LTP258	ltpFR	0	1	n/a	TURNIP	1521	1	n/a	n/a	n/a	n/a	n/a	n/a
4546.958	n/a	RECOG_LURE	2273479	n/a	LTP258	ltpFR	0	1	n/a	SHORTCAKE	1292	2	n/a	n/a	n/a	n/a	n/a	n/a
4550.398	n/a	RECOG_RESP	2275199	n/a	LTP258	ltpFR	0	1	n/a	SHORTCAKE	1292	n/a	n/a	n/a	n/a	n/a	n/a	n/a
4553.086	n/a	RECOG_CONF	2276543	n/a	LTP258	ltpFR	0	1	n/a	SHORTCAKE	1292	2	n/a	n/a	n/a	n/a	n/a	n/a
4555.274	n/a	RECOG_LURE	2277637	n/a	LTP258	ltpFR	0	1	n/a	TONGUE	1479	4	n/a	n/a	n/a	n/a	n/a	n/a
4557.69	n/a	RECOG_RESP	2278845	n/a	LTP258	ltpFR	0	1	n/a	TONGUE	1479	n/a	n/a	n/a	n/a	n/a	n/a	n/a
4559.272	n/a	RECOG_CONF	2279636	n/a	LTP258	ltpFR	0	1	n/a	TONGUE	1479	4	n/a	n/a	n/a	n/a	n/a	n/a
4561.398	n/a	RECOG_TARGET	2280699	n/a	LTP258	ltpFR	0	1	-1	WAGON	1578	2	-1	n/a	n/a	n/a	n/a	n/a
4565.354	n/a	RECOG_RESP	2282677	n/a	LTP258	ltpFR	0	1	-1	WAGON	1578	n/a	-1	n/a	n/a	n/a	n/a	n/a
4566.986	n/a	RECOG_CONF	2283493	n/a	LTP258	ltpFR	0	1	-1	WAGON	1578	2	-1	n/a	n/a	n/a	n/a	n/a
4569.042	n/a	RECOG_LURE	2284521	n/a	LTP258	ltpFR	0	1	n/a	OUTFIT	988	2	n/a	n/a	n/a	n/a	n/a	n/a
4574.524	n/a	RECOG_RESP	2287262	n/a	LTP258	ltpFR	0	1	n/a	OUTFIT	988	n/a	n/a	n/a	n/a	n/a	n/a	n/a
4576.424	n/a	RECOG_CONF	2288212	n/a	LTP258	ltpFR	0	1	n/a	OUTFIT	988	2	n/a	n/a	n/a	n/a	n/a	n/a
4578.488	n/a	RECOG_TARGET	2289244	n/a	LTP258	ltpFR	0	1	-1	STAGE	1366	4	-1	n/a	n/a	n/a	n/a	n/a
4580.422	n/a	RECOG_RESP	2290211	n/a	LTP258	ltpFR	0	1	-1	STAGE	1366	n/a	-1	n/a	n/a	n/a	n/a	n/a
4581.952	n/a	RECOG_CONF	2290976	n/a	LTP258	ltpFR	0	1	-1	STAGE	1366	4	-1	n/a	n/a	n/a	n/a	n/a
4583.86	n/a	RECOG_LURE	2291930	n/a	LTP258	ltpFR	0	1	n/a	EAGLE	512	3	n/a	n/a	n/a	n/a	n/a	n/a
4587.002	n/a	RECOG_RESP	2293501	n/a	LTP258	ltpFR	0	1	n/a	EAGLE	512	n/a	n/a	n/a	n/a	n/a	n/a	n/a
4588.598	n/a	RECOG_CONF	2294299	n/a	LTP258	ltpFR	0	1	n/a	EAGLE	512	3	n/a	n/a	n/a	n/a	n/a	n/a
4590.418	n/a	RECOG_TARGET	2295209	n/a	LTP258	ltpFR	0	1	-1	SPACE	1345	3	-1	n/a	n/a	n/a	n/a	n/a
4594.176	n/a	RECOG_RESP	2297088	n/a	LTP258	ltpFR	0	1	-1	SPACE	1345	n/a	-1	n/a	n/a	n/a	n/a	n/a
4595.852	n/a	RECOG_CONF	2297926	n/a	LTP258	ltpFR	0	1	-1	SPACE	1345	3	-1	n/a	n/a	n/a	n/a	n/a
4597.794	n/a	RECOG_TARGET	2298897	n/a	LTP258	ltpFR	0	1	1	HEAD	695	5	1	n/a	n/a	n/a	n/a	n/a
4600.406	n/a	RECOG_RESP	2300203	n/a	LTP258	ltpFR	0	1	1	HEAD	695	n/a	1	n/a	n/a	n/a	n/a	n/a
4601.888	n/a	RECOG_CONF	2300944	n/a	LTP258	ltpFR	0	1	1	HEAD	695	5	1	n/a	n/a	n/a	n/a	n/a
4603.876	n/a	RECOG_LURE	2301938	n/a	LTP258	ltpFR	0	1	n/a	CREAM	402	5	n/a	n/a	n/a	n/a	n/a	n/a
4605.016	n/a	RECOG_RESP	2302508	n/a	LTP258	ltpFR	0	1	n/a	CREAM	402	n/a	n/a	n/a	n/a	n/a	n/a	n/a
4606.568	n/a	RECOG_CONF	2303284	n/a	LTP258	ltpFR	0	1	n/a	CREAM	402	5	n/a	n/a	n/a	n/a	n/a	n/a
4608.352	n/a	RECOG_LURE	2304176	n/a	LTP258	ltpFR	0	1	n/a	DRIVER	499	2	n/a	n/a	n/a	n/a	n/a	n/a
4612.55	n/a	RECOG_RESP	2306275	n/a	LTP258	ltpFR	0	1	n/a	DRIVER	499	n/a	n/a	n/a	n/a	n/a	n/a	n/a
4614.13	n/a	RECOG_CONF	2307065	n/a	LTP258	ltpFR	0	1	n/a	DRIVER	499	2	n/a	n/a	n/a	n/a	n/a	n/a
4659.166	n/a	REC_START	2329583	n/a	LTP258	ltpFR	0	2	n/a	n/a	n/a	n/a	n/a	n/a	n/a	n/a	n/a	n/a
4659.22	n/a	RECOG_TARGET	2329610	n/a	LTP258	ltpFR	0	2	1	HEATER	698	2	0	n/a	n/a	n/a	n/a	n/a
4660.382	n/a	RECOG_RESP	2330191	n/a	LTP258	ltpFR	0	2	1	HEATER	698	n/a	0	n/a	n/a	n/a	n/a	n/a
4662.384	n/a	RECOG_CONF	2331192	n/a	LTP258	ltpFR	0	2	1	HEATER	698	2	0	n/a	n/a	n/a	n/a	n/a
4664.238	n/a	RECOG_LURE	2332119	n/a	LTP258	ltpFR	0	2	n/a	SQUIRREL	1362	4	n/a	n/a	n/a	n/a	n/a	n/a
4665.58	n/a	RECOG_RESP	2332790	n/a	LTP258	ltpFR	0	2	n/a	SQUIRREL	1362	n/a	n/a	n/a	n/a	n/a	n/a	n/a
4666.902	n/a	RECOG_CONF	2333451	n/a	LTP258	ltpFR	0	2	n/a	SQUIRREL	1362	4	n/a	n/a	n/a	n/a	n/a	n/a
4668.7	n/a	RECOG_TARGET	2334350	n/a	LTP258	ltpFR	0	2	1	CELERY	266	5	1	n/a	n/a	n/a	n/a	n/a
4669.88	n/a	RECOG_RESP	2334940	n/a	LTP258	ltpFR	0	2	1	CELERY	266	n/a	1	n/a	n/a	n/a	n/a	n/a
4671.044	n/a	RECOG_CONF	2335522	n/a	LTP258	ltpFR	0	2	1	CELERY	266	5	1	n/a	n/a	n/a	n/a	n/a
4672.788	n/a	RECOG_LURE	2336394	n/a	LTP258	ltpFR	0	2	n/a	MINK	897	5	n/a	n/a	n/a	n/a	n/a	n/a
4673.622	n/a	RECOG_RESP	2336811	n/a	LTP258	ltpFR	0	2	n/a	MINK	897	n/a	n/a	n/a	n/a	n/a	n/a	n/a
4674.596	n/a	RECOG_CONF	2337298	n/a	LTP258	ltpFR	0	2	n/a	MINK	897	5	n/a	n/a	n/a	n/a	n/a	n/a
4676.688	n/a	RECOG_LURE	2338344	n/a	LTP258	ltpFR	0	2	n/a	MACHINE	852	2	n/a	n/a	n/a	n/a	n/a	n/a
4678.872	n/a	RECOG_RESP	2339436	n/a	LTP258	ltpFR	0	2	n/a	MACHINE	852	n/a	n/a	n/a	n/a	n/a	n/a	n/a
4680.354	n/a	RECOG_CONF	2340177	n/a	LTP258	ltpFR	0	2	n/a	MACHINE	852	2	n/a	n/a	n/a	n/a	n/a	n/a
4682.124	n/a	RECOG_TARGET	2341062	n/a	LTP258	ltpFR	0	2	0	GARAGE	621	5	1	n/a	n/a	n/a	n/a	n/a
4683.332	n/a	RECOG_RESP_VV	2341666	n/a	LTP258	ltpFR	0	2	0	GARAGE	621	n/a	1	n/a	n/a	n/a	n/a	n/a
4684.17	n/a	RECOG_RESP	2342085	n/a	LTP258	ltpFR	0	2	0	GARAGE	621	n/a	1	n/a	n/a	n/a	n/a	n/a
4685.252	n/a	RECOG_CONF	2342626	n/a	LTP258	ltpFR	0	2	0	GARAGE	621	5	1	n/a	n/a	n/a	n/a	n/a
4687.052	n/a	RECOG_LURE	2343526	n/a	LTP258	ltpFR	0	2	n/a	OINTMENT	974	5	n/a	n/a	n/a	n/a	n/a	n/a
4688.01	n/a	RECOG_RESP	2344005	n/a	LTP258	ltpFR	0	2	n/a	OINTMENT	974	n/a	n/a	n/a	n/a	n/a	n/a	n/a
4689.124	n/a	RECOG_CONF	2344562	n/a	LTP258	ltpFR	0	2	n/a	OINTMENT	974	5	n/a	n/a	n/a	n/a	n/a	n/a
4690.808	n/a	RECOG_LURE	2345404	n/a	LTP258	ltpFR	0	2	n/a	FLEA	577	4	n/a	n/a	n/a	n/a	n/a	n/a
4691.996	n/a	RECOG_RESP	2345998	n/a	LTP258	ltpFR	0	2	n/a	FLEA	577	n/a	n/a	n/a	n/a	n/a	n/a	n/a
4693.674	n/a	RECOG_CONF	2346837	n/a	LTP258	ltpFR	0	2	n/a	FLEA	577	4	n/a	n/a	n/a	n/a	n/a	n/a
4695.442	n/a	RECOG_LURE	2347721	n/a	LTP258	ltpFR	0	2	n/a	CONE	363	3	n/a	n/a	n/a	n/a	n/a	n/a
4697.082	n/a	RECOG_RESP	2348541	n/a	LTP258	ltpFR	0	2	n/a	CONE	363	n/a	n/a	n/a	n/a	n/a	n/a	n/a
4698.482	n/a	RECOG_CONF	2349241	n/a	LTP258	ltpFR	0	2	n/a	CONE	363	3	n/a	n/a	n/a	n/a	n/a	n/a
4700.16	n/a	RECOG_LURE	2350080	n/a	LTP258	ltpFR	0	2	n/a	APARTMENT	30	2	n/a	n/a	n/a	n/a	n/a	n/a
4701.79	n/a	RECOG_RESP	2350895	n/a	LTP258	ltpFR	0	2	n/a	APARTMENT	30	n/a	n/a	n/a	n/a	n/a	n/a	n/a
4702.982	n/a	RECOG_CONF	2351491	n/a	LTP258	ltpFR	0	2	n/a	APARTMENT	30	2	n/a	n/a	n/a	n/a	n/a	n/a
4704.694	n/a	RECOG_TARGET	2352347	n/a	LTP258	ltpFR	0	2	-1	TABLE	1426	3	-1	n/a	n/a	n/a	n/a	n/a
4706.49	n/a	RECOG_RESP	2353245	n/a	LTP258	ltpFR	0	2	-1	TABLE	1426	n/a	-1	n/a	n/a	n/a	n/a	n/a
4708.122	n/a	RECOG_CONF	2354061	n/a	LTP258	ltpFR	0	2	-1	TABLE	1426	3	-1	n/a	n/a	n/a	n/a	n/a
4709.856	n/a	RECOG_LURE	2354928	n/a	LTP258	ltpFR	0	2	n/a	PLASTER	1085	5	n/a	n/a	n/a	n/a	n/a	n/a
4710.9	n/a	RECOG_RESP	2355450	n/a	LTP258	ltpFR	0	2	n/a	PLASTER	1085	n/a	n/a	n/a	n/a	n/a	n/a	n/a
4712.202	n/a	RECOG_CONF	2356101	n/a	LTP258	ltpFR	0	2	n/a	PLASTER	1085	5	n/a	n/a	n/a	n/a	n/a	n/a
4713.98	n/a	RECOG_TARGET	2356990	n/a	LTP258	ltpFR	0	2	0	SEAL	1262	4	1	n/a	n/a	n/a	n/a	n/a
4715.006	n/a	RECOG_RESP	2357503	n/a	LTP258	ltpFR	0	2	0	SEAL	1262	n/a	1	n/a	n/a	n/a	n/a	n/a
4716.314	n/a	RECOG_CONF	2358157	n/a	LTP258	ltpFR	0	2	0	SEAL	1262	4	1	n/a	n/a	n/a	n/a	n/a
4718.172	n/a	RECOG_TARGET	2359086	n/a	LTP258	ltpFR	0	2	-1	PORK	1108	5	-1	n/a	n/a	n/a	n/a	n/a
4719.312	n/a	RECOG_RESP	2359656	n/a	LTP258	ltpFR	0	2	-1	PORK	1108	n/a	-1	n/a	n/a	n/a	n/a	n/a
4720.424	n/a	RECOG_CONF	2360212	n/a	LTP258	ltpFR	0	2	-1	PORK	1108	5	-1	n/a	n/a	n/a	n/a	n/a
4722.144	n/a	RECOG_TARGET	2361072	n/a	LTP258	ltpFR	0	2	1	CREW	406	2	1	n/a	n/a	n/a	n/a	n/a
4725.298	n/a	RECOG_RESP	2362649	n/a	LTP258	ltpFR	0	2	1	CREW	406	n/a	1	n/a	n/a	n/a	n/a	n/a
4726.65	n/a	RECOG_CONF	2363325	n/a	LTP258	ltpFR	0	2	1	CREW	406	2	1	n/a	n/a	n/a	n/a	n/a
4728.494	n/a	RECOG_TARGET	2364247	n/a	LTP258	ltpFR	0	2	1	SHOULDER	1294	5	1	n/a	n/a	n/a	n/a	n/a
4729.568	n/a	RECOG_RESP	2364784	n/a	LTP258	ltpFR	0	2	1	SHOULDER	1294	n/a	1	n/a	n/a	n/a	n/a	n/a
4730.75	n/a	RECOG_CONF	2365375	n/a	LTP258	ltpFR	0	2	1	SHOULDER	1294	5	1	n/a	n/a	n/a	n/a	n/a
4732.568	n/a	RECOG_TARGET	2366284	n/a	LTP258	ltpFR	0	2	1	MAN	862	5	1	n/a	n/a	n/a	n/a	n/a
4733.296	n/a	RECOG_RESP	2366648	n/a	LTP258	ltpFR	0	2	1	MAN	862	n/a	1	n/a	n/a	n/a	n/a	n/a
4734.592	n/a	RECOG_CONF	2367296	n/a	LTP258	ltpFR	0	2	1	MAN	862	5	1	n/a	n/a	n/a	n/a	n/a
4736.324	n/a	RECOG_TARGET	2368162	n/a	LTP258	ltpFR	0	2	-1	POOL	1103	2	-1	n/a	n/a	n/a	n/a	n/a
4737.306	n/a	RECOG_RESP	2368653	n/a	LTP258	ltpFR	0	2	-1	POOL	1103	n/a	-1	n/a	n/a	n/a	n/a	n/a
4739.032	n/a	RECOG_CONF	2369516	n/a	LTP258	ltpFR	0	2	-1	POOL	1103	2	-1	n/a	n/a	n/a	n/a	n/a
4740.682	n/a	RECOG_LURE	2370341	n/a	LTP258	ltpFR	0	2	n/a	WOLF	1619	4	n/a	n/a	n/a	n/a	n/a	n/a
4742.914	n/a	RECOG_RESP	2371457	n/a	LTP258	ltpFR	0	2	n/a	WOLF	1619	n/a	n/a	n/a	n/a	n/a	n/a	n/a
4744.42	n/a	RECOG_CONF	2372210	n/a	LTP258	ltpFR	0	2	n/a	WOLF	1619	4	n/a	n/a	n/a	n/a	n/a	n/a
4746.118	n/a	RECOG_TARGET	2373059	n/a	LTP258	ltpFR	0	2	0	STRANGER	1389	5	1	n/a	n/a	n/a	n/a	n/a
4747.05	n/a	RECOG_RESP	2373525	n/a	LTP258	ltpFR	0	2	0	STRANGER	1389	n/a	1	n/a	n/a	n/a	n/a	n/a
4748.202	n/a	RECOG_CONF	2374101	n/a	LTP258	ltpFR	0	2	0	STRANGER	1389	5	1	n/a	n/a	n/a	n/a	n/a
4752.584	n/a	REC_START	2376292	n/a	LTP258	ltpFR	0	3	n/a	n/a	n/a	n/a	n/a	n/a	n/a	n/a	n/a	n/a
4752.638	n/a	RECOG_TARGET	2376319	n/a	LTP258	ltpFR	0	3	1	OZONE	996	5	0	n/a	n/a	n/a	n/a	n/a
4753.626	n/a	RECOG_RESP	2376813	n/a	LTP258	ltpFR	0	3	1	OZONE	996	n/a	0	n/a	n/a	n/a	n/a	n/a
4754.584	n/a	RECOG_CONF	2377292	n/a	LTP258	ltpFR	0	3	1	OZONE	996	5	0	n/a	n/a	n/a	n/a	n/a
4756.25	n/a	RECOG_LURE	2378125	n/a	LTP258	ltpFR	0	3	n/a	MICROWAVE	892	4	n/a	n/a	n/a	n/a	n/a	n/a
4757.144	n/a	RECOG_RESP	2378572	n/a	LTP258	ltpFR	0	3	n/a	MICROWAVE	892	n/a	n/a	n/a	n/a	n/a	n/a	n/a
4758.056	n/a	RECOG_CONF	2379028	n/a	LTP258	ltpFR	0	3	n/a	MICROWAVE	892	4	n/a	n/a	n/a	n/a	n/a	n/a
4759.722	n/a	RECOG_TARGET	2379861	n/a	LTP258	ltpFR	0	3	1	STATUE	1374	5	0	n/a	n/a	n/a	n/a	n/a
4760.586	n/a	RECOG_RESP	2380293	n/a	LTP258	ltpFR	0	3	1	STATUE	1374	n/a	0	n/a	n/a	n/a	n/a	n/a
4761.578	n/a	RECOG_CONF	2380789	n/a	LTP258	ltpFR	0	3	1	STATUE	1374	5	0	n/a	n/a	n/a	n/a	n/a
4763.21	n/a	RECOG_TARGET	2381605	n/a	LTP258	ltpFR	0	3	-1	VEGETABLE	1552	5	-1	n/a	n/a	n/a	n/a	n/a
4763.938	n/a	RECOG_RESP	2381969	n/a	LTP258	ltpFR	0	3	-1	VEGETABLE	1552	n/a	-1	n/a	n/a	n/a	n/a	n/a
4764.752	n/a	RECOG_CONF	2382376	n/a	LTP258	ltpFR	0	3	-1	VEGETABLE	1552	5	-1	n/a	n/a	n/a	n/a	n/a
4766.764	n/a	RECOG_TARGET	2383382	n/a	LTP258	ltpFR	0	3	0	HOUSE	725	4	1	n/a	n/a	n/a	n/a	n/a
4768.254	n/a	RECOG_RESP	2384127	n/a	LTP258	ltpFR	0	3	0	HOUSE	725	n/a	1	n/a	n/a	n/a	n/a	n/a
4769.092	n/a	RECOG_CONF	2384546	n/a	LTP258	ltpFR	0	3	0	HOUSE	725	4	1	n/a	n/a	n/a	n/a	n/a
4770.94	n/a	RECOG_TARGET	2385470	n/a	LTP258	ltpFR	0	3	1	MAPLE	866	5	1	n/a	n/a	n/a	n/a	n/a
4771.992	n/a	RECOG_RESP	2385996	n/a	LTP258	ltpFR	0	3	1	MAPLE	866	n/a	1	n/a	n/a	n/a	n/a	n/a
4772.944	n/a	RECOG_CONF	2386472	n/a	LTP258	ltpFR	0	3	1	MAPLE	866	5	1	n/a	n/a	n/a	n/a	n/a
4774.688	n/a	RECOG_LURE	2387344	n/a	LTP258	ltpFR	0	3	n/a	BUCKET	184	2	n/a	n/a	n/a	n/a	n/a	n/a
4776.376	n/a	RECOG_RESP	2388188	n/a	LTP258	ltpFR	0	3	n/a	BUCKET	184	n/a	n/a	n/a	n/a	n/a	n/a	n/a
4777.374	n/a	RECOG_CONF	2388687	n/a	LTP258	ltpFR	0	3	n/a	BUCKET	184	2	n/a	n/a	n/a	n/a	n/a	n/a
4779.162	n/a	RECOG_TARGET	2389581	n/a	LTP258	ltpFR	0	3	1	BATHTUB	100	1	0	n/a	n/a	n/a	n/a	n/a
4781.22	n/a	RECOG_RESP	2390610	n/a	LTP258	ltpFR	0	3	1	BATHTUB	100	n/a	0	n/a	n/a	n/a	n/a	n/a
4782.232	n/a	RECOG_CONF	2391116	n/a	LTP258	ltpFR	0	3	1	BATHTUB	100	1	0	n/a	n/a	n/a	n/a	n/a
4783.93	n/a	RECOG_LURE	2391965	n/a	LTP258	ltpFR	0	3	n/a	CHIME	300	4	n/a	n/a	n/a	n/a	n/a	n/a
4785.646	n/a	RECOG_RESP	2392823	n/a	LTP258	ltpFR	0	3	n/a	CHIME	300	n/a	n/a	n/a	n/a	n/a	n/a	n/a
4786.692	n/a	RECOG_CONF	2393346	n/a	LTP258	ltpFR	0	3	n/a	CHIME	300	4	n/a	n/a	n/a	n/a	n/a	n/a
4788.516	n/a	RECOG_LURE	2394258	n/a	LTP258	ltpFR	0	3	n/a	PAINTER	1004	3	n/a	n/a	n/a	n/a	n/a	n/a
4789.762	n/a	RECOG_RESP	2394881	n/a	LTP258	ltpFR	0	3	n/a	PAINTER	1004	n/a	n/a	n/a	n/a	n/a	n/a	n/a
4791.004	n/a	RECOG_CONF	2395502	n/a	LTP258	ltpFR	0	3	n/a	PAINTER	1004	3	n/a	n/a	n/a	n/a	n/a	n/a
4792.648	n/a	RECOG_TARGET	2396324	n/a	LTP258	ltpFR	0	3	-1	SNACK	1331	5	-1	n/a	n/a	n/a	n/a	n/a
4793.892	n/a	RECOG_RESP_VV	2396946	n/a	LTP258	ltpFR	0	3	-1	SNACK	1331	n/a	-1	n/a	n/a	n/a	n/a	n/a
4794.956	n/a	RECOG_RESP	2397478	n/a	LTP258	ltpFR	0	3	-1	SNACK	1331	n/a	-1	n/a	n/a	n/a	n/a	n/a
4796.142	n/a	RECOG_CONF	2398071	n/a	LTP258	ltpFR	0	3	-1	SNACK	1331	5	-1	n/a	n/a	n/a	n/a	n/a
4797.95	n/a	RECOG_LURE	2398975	n/a	LTP258	ltpFR	0	3	n/a	SPHINX	1349	5	n/a	n/a	n/a	n/a	n/a	n/a
4799.016	n/a	RECOG_RESP	2399508	n/a	LTP258	ltpFR	0	3	n/a	SPHINX	1349	n/a	n/a	n/a	n/a	n/a	n/a	n/a
4800.044	n/a	RECOG_CONF	2400022	n/a	LTP258	ltpFR	0	3	n/a	SPHINX	1349	5	n/a	n/a	n/a	n/a	n/a	n/a
4801.9	n/a	RECOG_TARGET	2400950	n/a	LTP258	ltpFR	0	3	0	CHEERLEADER	288	5	1	n/a	n/a	n/a	n/a	n/a
4802.986	n/a	RECOG_RESP	2401493	n/a	LTP258	ltpFR	0	3	0	CHEERLEADER	288	n/a	1	n/a	n/a	n/a	n/a	n/a
4804.034	n/a	RECOG_CONF	2402017	n/a	LTP258	ltpFR	0	3	0	CHEERLEADER	288	5	1	n/a	n/a	n/a	n/a	n/a
4805.63	n/a	RECOG_TARGET	2402815	n/a	LTP258	ltpFR	0	3	0	KING	777	5	1	n/a	n/a	n/a	n/a	n/a
4806.384	n/a	RECOG_RESP	2403192	n/a	LTP258	ltpFR	0	3	0	KING	777	n/a	1	n/a	n/a	n/a	n/a	n/a
4807.368	n/a	RECOG_CONF	2403684	n/a	LTP258	ltpFR	0	3	0	KING	777	5	1	n/a	n/a	n/a	n/a	n/a
4809.052	n/a	RECOG_LURE	2404526	n/a	LTP258	ltpFR	0	3	n/a	BRIEFCASE	175	3	n/a	n/a	n/a	n/a	n/a	n/a
4809.996	n/a	RECOG_RESP	2404998	n/a	LTP258	ltpFR	0	3	n/a	BRIEFCASE	175	n/a	n/a	n/a	n/a	n/a	n/a	n/a
4811.518	n/a	RECOG_CONF	2405759	n/a	LTP258	ltpFR	0	3	n/a	BRIEFCASE	175	3	n/a	n/a	n/a	n/a	n/a	n/a
4813.268	n/a	RECOG_LURE	2406634	n/a	LTP258	ltpFR	0	3	n/a	COBWEB	337	4	n/a	n/a	n/a	n/a	n/a	n/a
4814.536	n/a	RECOG_RESP	2407268	n/a	LTP258	ltpFR	0	3	n/a	COBWEB	337	n/a	n/a	n/a	n/a	n/a	n/a	n/a
4816.478	n/a	RECOG_CONF	2408239	n/a	LTP258	ltpFR	0	3	n/a	COBWEB	337	4	n/a	n/a	n/a	n/a	n/a	n/a
4818.412	n/a	RECOG_TARGET	2409206	n/a	LTP258	ltpFR	0	3	0	DICE	461	5	0	n/a	n/a	n/a	n/a	n/a
4819.52	n/a	RECOG_RESP	2409760	n/a	LTP258	ltpFR	0	3	0	DICE	461	n/a	0	n/a	n/a	n/a	n/a	n/a
4820.608	n/a	RECOG_CONF	2410304	n/a	LTP258	ltpFR	0	3	0	DICE	461	5	0	n/a	n/a	n/a	n/a	n/a
4822.37	n/a	RECOG_TARGET	2411185	n/a	LTP258	ltpFR	0	3	1	GOO	648	5	0	n/a	n/a	n/a	n/a	n/a
4823.296	n/a	RECOG_RESP	2411648	n/a	LTP258	ltpFR	0	3	1	GOO	648	n/a	0	n/a	n/a	n/a	n/a	n/a
4824.478	n/a	RECOG_CONF	2412239	n/a	LTP258	ltpFR	0	3	1	GOO	648	5	0	n/a	n/a	n/a	n/a	n/a
4826.058	n/a	RECOG_TARGET	2413029	n/a	LTP258	ltpFR	0	3	-1	STRAWBERRY	1391	5	-1	n/a	n/a	n/a	n/a	n/a
4826.81	n/a	RECOG_RESP	2413405	n/a	LTP258	ltpFR	0	3	-1	STRAWBERRY	1391	n/a	-1	n/a	n/a	n/a	n/a	n/a
4827.912	n/a	RECOG_CONF	2413956	n/a	LTP258	ltpFR	0	3	-1	STRAWBERRY	1391	5	-1	n/a	n/a	n/a	n/a	n/a
4829.69	n/a	RECOG_TARGET	2414845	n/a	LTP258	ltpFR	0	3	0	PREACHER	1119	4	1	n/a	n/a	n/a	n/a	n/a
4830.91	n/a	RECOG_RESP	2415455	n/a	LTP258	ltpFR	0	3	0	PREACHER	1119	n/a	1	n/a	n/a	n/a	n/a	n/a
4832.662	n/a	RECOG_CONF	2416331	n/a	LTP258	ltpFR	0	3	0	PREACHER	1119	4	1	n/a	n/a	n/a	n/a	n/a
4909.154	n/a	REC_START	2454577	n/a	LTP258	ltpFR	0	4	n/a	n/a	n/a	n/a	n/a	n/a	n/a	n/a	n/a	n/a
4909.208	n/a	RECOG_LURE	2454604	n/a	LTP258	ltpFR	0	4	n/a	BUYER	208	3	n/a	n/a	n/a	n/a	n/a	n/a
4910.596	n/a	RECOG_RESP	2455298	n/a	LTP258	ltpFR	0	4	n/a	BUYER	208	n/a	n/a	n/a	n/a	n/a	n/a	n/a
4912.012	n/a	RECOG_CONF	2456006	n/a	LTP258	ltpFR	0	4	n/a	BUYER	208	3	n/a	n/a	n/a	n/a	n/a	n/a
4913.726	n/a	RECOG_TARGET	2456863	n/a	LTP258	ltpFR	0	4	1	KEY	773	3	0	n/a	n/a	n/a	n/a	n/a
4915.26	n/a	RECOG_RESP	2457630	n/a	LTP258	ltpFR	0	4	1	KEY	773	n/a	0	n/a	n/a	n/a	n/a	n/a
4916.442	n/a	RECOG_CONF	2458221	n/a	LTP258	ltpFR	0	4	1	KEY	773	3	0	n/a	n/a	n/a	n/a	n/a
4918.192	n/a	RECOG_LURE	2459096	n/a	LTP258	ltpFR	0	4	n/a	KETCHUP	771	2	n/a	n/a	n/a	n/a	n/a	n/a
4919.192	n/a	RECOG_RESP	2459596	n/a	LTP258	ltpFR	0	4	n/a	KETCHUP	771	n/a	n/a	n/a	n/a	n/a	n/a	n/a
4920.324	n/a	RECOG_CONF	2460162	n/a	LTP258	ltpFR	0	4	n/a	KETCHUP	771	2	n/a	n/a	n/a	n/a	n/a	n/a
4921.95	n/a	RECOG_LURE	2460975	n/a	LTP258	ltpFR	0	4	n/a	MAT	877	1	n/a	n/a	n/a	n/a	n/a	n/a
4923.468	n/a	RECOG_RESP	2461734	n/a	LTP258	ltpFR	0	4	n/a	MAT	877	n/a	n/a	n/a	n/a	n/a	n/a	n/a
4924.556	n/a	RECOG_CONF	2462278	n/a	LTP258	ltpFR	0	4	n/a	MAT	877	1	n/a	n/a	n/a	n/a	n/a	n/a
4926.392	n/a	RECOG_TARGET	2463196	n/a	LTP258	ltpFR	0	4	1	BRANCH	168	5	0	n/a	n/a	n/a	n/a	n/a
4927.314	n/a	RECOG_RESP	2463657	n/a	LTP258	ltpFR	0	4	1	BRANCH	168	n/a	0	n/a	n/a	n/a	n/a	n/a
4928.286	n/a	RECOG_CONF	2464143	n/a	LTP258	ltpFR	0	4	1	BRANCH	168	5	0	n/a	n/a	n/a	n/a	n/a
4930.148	n/a	RECOG_LURE	2465074	n/a	LTP258	ltpFR	0	4	n/a	CALENDAR	221	3	n/a	n/a	n/a	n/a	n/a	n/a
4931.236	n/a	RECOG_RESP	2465618	n/a	LTP258	ltpFR	0	4	n/a	CALENDAR	221	n/a	n/a	n/a	n/a	n/a	n/a	n/a
4932.716	n/a	RECOG_CONF	2466358	n/a	LTP258	ltpFR	0	4	n/a	CALENDAR	221	3	n/a	n/a	n/a	n/a	n/a	n/a
4934.372	n/a	RECOG_LURE	2467186	n/a	LTP258	ltpFR	0	4	n/a	BUILDING	191	5	n/a	n/a	n/a	n/a	n/a	n/a
4935.576	n/a	RECOG_RESP	2467788	n/a	LTP258	ltpFR	0	4	n/a	BUILDING	191	n/a	n/a	n/a	n/a	n/a	n/a	n/a
4936.658	n/a	RECOG_CONF	2468329	n/a	LTP258	ltpFR	0	4	n/a	BUILDING	191	5	n/a	n/a	n/a	n/a	n/a	n/a
4938.346	n/a	RECOG_TARGET	2469173	n/a	LTP258	ltpFR	0	4	0	CONCRETE	361	5	n/a	n/a	n/a	n/a	n/a	n/a
4939.378	n/a	RECOG_RESP	2469689	n/a	LTP258	ltpFR	0	4	0	CONCRETE	361	n/a	n/a	n/a	n/a	n/a	n/a	n/a
4940.33	n/a	RECOG_CONF	2470165	n/a	LTP258	ltpFR	0	4	0	CONCRETE	361	5	n/a	n/a	n/a	n/a	n/a	n/a
4942.168	n/a	RECOG_LURE	2471084	n/a	LTP258	ltpFR	0	4	n/a	COCKTAIL	338	2	n/a	n/a	n/a	n/a	n/a	n/a
4943.518	n/a	RECOG_RESP	2471759	n/a	LTP258	ltpFR	0	4	n/a	COCKTAIL	338	n/a	n/a	n/a	n/a	n/a	n/a	n/a
4944.54	n/a	RECOG_CONF	2472270	n/a	LTP258	ltpFR	0	4	n/a	COCKTAIL	338	2	n/a	n/a	n/a	n/a	n/a	n/a
4946.318	n/a	RECOG_LURE	2473159	n/a	LTP258	ltpFR	0	4	n/a	MAGNET	855	3	n/a	n/a	n/a	n/a	n/a	n/a
4947.34	n/a	RECOG_RESP	2473670	n/a	LTP258	ltpFR	0	4	n/a	MAGNET	855	n/a	n/a	n/a	n/a	n/a	n/a	n/a
4948.532	n/a	RECOG_CONF	2474266	n/a	LTP258	ltpFR	0	4	n/a	MAGNET	855	3	n/a	n/a	n/a	n/a	n/a	n/a
4950.444	n/a	RECOG_TARGET	2475222	n/a	LTP258	ltpFR	0	4	1	BOUILLON	154	5	0	n/a	n/a	n/a	n/a	n/a
4951.52	n/a	RECOG_RESP	2475760	n/a	LTP258	ltpFR	0	4	1	BOUILLON	154	n/a	0	n/a	n/a	n/a	n/a	n/a
4952.572	n/a	RECOG_CONF	2476286	n/a	LTP258	ltpFR	0	4	1	BOUILLON	154	5	0	n/a	n/a	n/a	n/a	n/a
4954.374	n/a	RECOG_TARGET	2477187	n/a	LTP258	ltpFR	0	4	-1	SISTER	1312	5	-1	n/a	n/a	n/a	n/a	n/a
4955.396	n/a	RECOG_RESP	2477698	n/a	LTP258	ltpFR	0	4	-1	SISTER	1312	n/a	-1	n/a	n/a	n/a	n/a	n/a
4956.404	n/a	RECOG_CONF	2478202	n/a	LTP258	ltpFR	0	4	-1	SISTER	1312	5	-1	n/a	n/a	n/a	n/a	n/a
4958.062	n/a	RECOG_TARGET	2479031	n/a	LTP258	ltpFR	0	4	-1	CRYSTAL	418	5	-1	n/a	n/a	n/a	n/a	n/a
4958.764	n/a	RECOG_RESP	2479382	n/a	LTP258	ltpFR	0	4	-1	CRYSTAL	418	n/a	-1	n/a	n/a	n/a	n/a	n/a
4959.818	n/a	RECOG_CONF	2479909	n/a	LTP258	ltpFR	0	4	-1	CRYSTAL	418	5	-1	n/a	n/a	n/a	n/a	n/a
4961.426	n/a	RECOG_TARGET	2480713	n/a	LTP258	ltpFR	0	4	0	CONSOLE	364	4	1	n/a	n/a	n/a	n/a	n/a
4962.556	n/a	RECOG_RESP	2481278	n/a	LTP258	ltpFR	0	4	0	CONSOLE	364	n/a	1	n/a	n/a	n/a	n/a	n/a
4963.578	n/a	RECOG_CONF	2481789	n/a	LTP258	ltpFR	0	4	0	CONSOLE	364	4	1	n/a	n/a	n/a	n/a	n/a
4965.418	n/a	RECOG_TARGET	2482709	n/a	LTP258	ltpFR	0	4	1	RADIATOR	1156	3	0	n/a	n/a	n/a	n/a	n/a
4966.506	n/a	RECOG_RESP	2483253	n/a	LTP258	ltpFR	0	4	1	RADIATOR	1156	n/a	0	n/a	n/a	n/a	n/a	n/a
4967.62	n/a	RECOG_CONF	2483810	n/a	LTP258	ltpFR	0	4	1	RADIATOR	1156	3	0	n/a	n/a	n/a	n/a	n/a
4969.366	n/a	RECOG_TARGET	2484683	n/a	LTP258	ltpFR	0	4	1	BARLEY	88	5	0	n/a	n/a	n/a	n/a	n/a
4970.264	n/a	RECOG_RESP	2485132	n/a	LTP258	ltpFR	0	4	1	BARLEY	88	n/a	0	n/a	n/a	n/a	n/a	n/a
4971.192	n/a	RECOG_CONF	2485596	n/a	LTP258	ltpFR	0	4	1	BARLEY	88	5	0	n/a	n/a	n/a	n/a	n/a
4973.136	n/a	RECOG_TARGET	2486568	n/a	LTP258	ltpFR	0	4	-1	PICKLE	1059	5	-1	n/a	n/a	n/a	n/a	n/a
4973.82	n/a	RECOG_RESP	2486910	n/a	LTP258	ltpFR	0	4	-1	PICKLE	1059	n/a	-1	n/a	n/a	n/a	n/a	n/a
4975.202	n/a	RECOG_CONF	2487601	n/a	LTP258	ltpFR	0	4	-1	PICKLE	1059	5	-1	n/a	n/a	n/a	n/a	n/a
4976.392	n/a	RECOG_LURE	2488196	n/a	LTP258	ltpFR	0	4	n/a	TRUMPET	1513	3	n/a	n/a	n/a	n/a	n/a	n/a
4978.62	n/a	RECOG_RESP	2489310	n/a	LTP258	ltpFR	0	4	n/a	TRUMPET	1513	n/a	n/a	n/a	n/a	n/a	n/a	n/a
4979.752	n/a	RECOG_CONF	2489876	n/a	LTP258	ltpFR	0	4	n/a	TRUMPET	1513	3	n/a	n/a	n/a	n/a	n/a	n/a
4981.478	n/a	RECOG_TARGET	2490739	n/a	LTP258	ltpFR	0	4	0	CHEF	290	5	1	n/a	n/a	n/a	n/a	n/a
4982.462	n/a	RECOG_RESP	2491231	n/a	LTP258	ltpFR	0	4	0	CHEF	290	n/a	1	n/a	n/a	n/a	n/a	n/a
4983.594	n/a	RECOG_CONF	2491797	n/a	LTP258	ltpFR	0	4	0	CHEF	290	5	1	n/a	n/a	n/a	n/a	n/a
4985.594	n/a	RECOG_LURE	2492797	n/a	LTP258	ltpFR	0	4	n/a	MUSTARD	935	2	n/a	n/a	n/a	n/a	n/a	n/a
4986.678	n/a	RECOG_RESP	2493339	n/a	LTP258	ltpFR	0	4	n/a	MUSTARD	935	n/a	n/a	n/a	n/a	n/a	n/a	n/a
4988.114	n/a	RECOG_CONF	2494057	n/a	LTP258	ltpFR	0	4	n/a	MUSTARD	935	2	n/a	n/a	n/a	n/a	n/a	n/a
4992.99	n/a	REC_START	2496495	n/a	LTP258	ltpFR	0	5	n/a	n/a	n/a	n/a	n/a	n/a	n/a	n/a	n/a	n/a
4993.038	n/a	RECOG_LURE	2496519	n/a	LTP258	ltpFR	0	5	n/a	BUG	187	2	n/a	n/a	n/a	n/a	n/a	n/a
4994.686	n/a	RECOG_RESP	2497343	n/a	LTP258	ltpFR	0	5	n/a	BUG	187	n/a	n/a	n/a	n/a	n/a	n/a	n/a
4995.828	n/a	RECOG_CONF	2497914	n/a	LTP258	ltpFR	0	5	n/a	BUG	187	2	n/a	n/a	n/a	n/a	n/a	n/a
4997.564	n/a	RECOG_LURE	2498782	n/a	LTP258	ltpFR	0	5	n/a	CONCERT	360	3	n/a	n/a	n/a	n/a	n/a	n/a
4999.516	n/a	RECOG_RESP	2499758	n/a	LTP258	ltpFR	0	5	n/a	CONCERT	360	n/a	n/a	n/a	n/a	n/a	n/a	n/a
5000.568	n/a	RECOG_CONF	2500284	n/a	LTP258	ltpFR	0	5	n/a	CONCERT	360	3	n/a	n/a	n/a	n/a	n/a	n/a
5002.532	n/a	RECOG_TARGET	2501266	n/a	LTP258	ltpFR	0	5	0	BUFFALO	186	5	1	n/a	n/a	n/a	n/a	n/a
5003.706	n/a	RECOG_RESP	2501853	n/a	LTP258	ltpFR	0	5	0	BUFFALO	186	n/a	1	n/a	n/a	n/a	n/a	n/a
5004.618	n/a	RECOG_CONF	2502309	n/a	LTP258	ltpFR	0	5	0	BUFFALO	186	5	1	n/a	n/a	n/a	n/a	n/a
5006.614	n/a	RECOG_TARGET	2503307	n/a	LTP258	ltpFR	0	5	-1	PIKE	1067	2	-1	n/a	n/a	n/a	n/a	n/a
5008.296	n/a	RECOG_RESP	2504148	n/a	LTP258	ltpFR	0	5	-1	PIKE	1067	n/a	-1	n/a	n/a	n/a	n/a	n/a
5009.618	n/a	RECOG_CONF	2504809	n/a	LTP258	ltpFR	0	5	-1	PIKE	1067	2	-1	n/a	n/a	n/a	n/a	n/a
5011.326	n/a	RECOG_TARGET	2505663	n/a	LTP258	ltpFR	0	5	-1	CARROT	249	5	-1	n/a	n/a	n/a	n/a	n/a
5012.186	n/a	RECOG_RESP	2506093	n/a	LTP258	ltpFR	0	5	-1	CARROT	249	n/a	-1	n/a	n/a	n/a	n/a	n/a
5013.16	n/a	RECOG_CONF	2506580	n/a	LTP258	ltpFR	0	5	-1	CARROT	249	5	-1	n/a	n/a	n/a	n/a	n/a
5014.996	n/a	RECOG_TARGET	2507498	n/a	LTP258	ltpFR	0	5	0	BARK	87	5	0	n/a	n/a	n/a	n/a	n/a
5015.85	n/a	RECOG_RESP	2507925	n/a	LTP258	ltpFR	0	5	0	BARK	87	n/a	0	n/a	n/a	n/a	n/a	n/a
5016.952	n/a	RECOG_CONF	2508476	n/a	LTP258	ltpFR	0	5	0	BARK	87	5	0	n/a	n/a	n/a	n/a	n/a
5018.788	n/a	RECOG_TARGET	2509394	n/a	LTP258	ltpFR	0	5	0	ENGINE	535	3	1	n/a	n/a	n/a	n/a	n/a
5020.204	n/a	RECOG_RESP	2510102	n/a	LTP258	ltpFR	0	5	0	ENGINE	535	n/a	1	n/a	n/a	n/a	n/a	n/a
5021.212	n/a	RECOG_CONF	2510606	n/a	LTP258	ltpFR	0	5	0	ENGINE	535	3	1	n/a	n/a	n/a	n/a	n/a
5022.97	n/a	RECOG_TARGET	2511485	n/a	LTP258	ltpFR	0	5	0	WARRIOR	1589	5	1	n/a	n/a	n/a	n/a	n/a
5023.782	n/a	RECOG_RESP	2511891	n/a	LTP258	ltpFR	0	5	0	WARRIOR	1589	n/a	1	n/a	n/a	n/a	n/a	n/a
5024.774	n/a	RECOG_CONF	2512387	n/a	LTP258	ltpFR	0	5	0	WARRIOR	1589	5	1	n/a	n/a	n/a	n/a	n/a
5026.592	n/a	RECOG_TARGET	2513296	n/a	LTP258	ltpFR	0	5	-1	SIBLING	1301	5	-1	n/a	n/a	n/a	n/a	n/a
5027.414	n/a	RECOG_RESP	2513707	n/a	LTP258	ltpFR	0	5	-1	SIBLING	1301	n/a	-1	n/a	n/a	n/a	n/a	n/a
5028.596	n/a	RECOG_CONF	2514298	n/a	LTP258	ltpFR	0	5	-1	SIBLING	1301	5	-1	n/a	n/a	n/a	n/a	n/a
5030.572	n/a	RECOG_LURE	2515286	n/a	LTP258	ltpFR	0	5	n/a	HAMMER	680	2	n/a	n/a	n/a	n/a	n/a	n/a
5033.164	n/a	RECOG_RESP	2516582	n/a	LTP258	ltpFR	0	5	n/a	HAMMER	680	n/a	n/a	n/a	n/a	n/a	n/a	n/a
5034.184	n/a	RECOG_CONF	2517092	n/a	LTP258	ltpFR	0	5	n/a	HAMMER	680	2	n/a	n/a	n/a	n/a	n/a	n/a
5035.904	n/a	RECOG_TARGET	2517952	n/a	LTP258	ltpFR	0	5	-1	TANK	1432	3	-1	n/a	n/a	n/a	n/a	n/a
5037.7	n/a	RECOG_RESP	2518850	n/a	LTP258	ltpFR	0	5	-1	TANK	1432	n/a	-1	n/a	n/a	n/a	n/a	n/a
5039.212	n/a	RECOG_CONF	2519606	n/a	LTP258	ltpFR	0	5	-1	TANK	1432	3	-1	n/a	n/a	n/a	n/a	n/a
5040.906	n/a	RECOG_LURE	2520453	n/a	LTP258	ltpFR	0	5	n/a	POTTERY	1116	1	n/a	n/a	n/a	n/a	n/a	n/a
5043.512	n/a	RECOG_RESP	2521756	n/a	LTP258	ltpFR	0	5	n/a	POTTERY	1116	n/a	n/a	n/a	n/a	n/a	n/a	n/a
5045.908	n/a	RECOG_CONF	2522954	n/a	LTP258	ltpFR	0	5	n/a	POTTERY	1116	1	n/a	n/a	n/a	n/a	n/a	n/a
5047.682	n/a	RECOG_TARGET	2523841	n/a	LTP258	ltpFR	0	5	1	HOSTESS	723	3	1	n/a	n/a	n/a	n/a	n/a
5050.248	n/a	RECOG_RESP	2525124	n/a	LTP258	ltpFR	0	5	1	HOSTESS	723	n/a	1	n/a	n/a	n/a	n/a	n/a
5051.284	n/a	RECOG_CONF	2525642	n/a	LTP258	ltpFR	0	5	1	HOSTESS	723	3	1	n/a	n/a	n/a	n/a	n/a
5053.084	n/a	RECOG_LURE	2526542	n/a	LTP258	ltpFR	0	5	n/a	VICTIM	1562	5	n/a	n/a	n/a	n/a	n/a	n/a
5054.164	n/a	RECOG_RESP	2527082	n/a	LTP258	ltpFR	0	5	n/a	VICTIM	1562	n/a	n/a	n/a	n/a	n/a	n/a	n/a
5055.108	n/a	RECOG_CONF	2527554	n/a	LTP258	ltpFR	0	5	n/a	VICTIM	1562	5	n/a	n/a	n/a	n/a	n/a	n/a
5057.058	n/a	RECOG_LURE	2528529	n/a	LTP258	ltpFR	0	5	n/a	THORN	1459	3	n/a	n/a	n/a	n/a	n/a	n/a
5058.19	n/a	RECOG_RESP	2529095	n/a	LTP258	ltpFR	0	5	n/a	THORN	1459	n/a	n/a	n/a	n/a	n/a	n/a	n/a
5059.468	n/a	RECOG_CONF	2529734	n/a	LTP258	ltpFR	0	5	n/a	THORN	1459	3	n/a	n/a	n/a	n/a	n/a	n/a
5061.206	n/a	RECOG_TARGET	2530603	n/a	LTP258	ltpFR	0	5	1	LIZARD	834	5	0	n/a	n/a	n/a	n/a	n/a
5062.046	n/a	RECOG_RESP	2531023	n/a	LTP258	ltpFR	0	5	1	LIZARD	834	n/a	0	n/a	n/a	n/a	n/a	n/a
5063.06	n/a	RECOG_CONF	2531530	n/a	LTP258	ltpFR	0	5	1	LIZARD	834	5	0	n/a	n/a	n/a	n/a	n/a
5064.68	n/a	RECOG_TARGET	2532340	n/a	LTP258	ltpFR	0	5	1	FIST	572	5	1	n/a	n/a	n/a	n/a	n/a
5065.658	n/a	RECOG_RESP	2532829	n/a	LTP258	ltpFR	0	5	1	FIST	572	n/a	1	n/a	n/a	n/a	n/a	n/a
5066.9	n/a	RECOG_CONF	2533450	n/a	LTP258	ltpFR	0	5	1	FIST	572	5	1	n/a	n/a	n/a	n/a	n/a
5068.92	n/a	RECOG_TARGET	2534460	n/a	LTP258	ltpFR	0	5	0	NICKEL	950	3	0	n/a	n/a	n/a	n/a	n/a
5071.196	n/a	RECOG_RESP	2535598	n/a	LTP258	ltpFR	0	5	0	NICKEL	950	n/a	0	n/a	n/a	n/a	n/a	n/a
5072.17	n/a	RECOG_CONF	2536085	n/a	LTP258	ltpFR	0	5	0	NICKEL	950	3	0	n/a	n/a	n/a	n/a	n/a
5074.082	n/a	RECOG_LURE	2537041	n/a	LTP258	ltpFR	0	5	n/a	SKIRT	1319	1	n/a	n/a	n/a	n/a	n/a	n/a
5076.07	n/a	RECOG_RESP	2538035	n/a	LTP258	ltpFR	0	5	n/a	SKIRT	1319	n/a	n/a	n/a	n/a	n/a	n/a	n/a
5078.534	n/a	RECOG_CONF	2539267	n/a	LTP258	ltpFR	0	5	n/a	SKIRT	1319	1	n/a	n/a	n/a	n/a	n/a	n/a
5080.254	n/a	RECOG_TARGET	2540127	n/a	LTP258	ltpFR	0	5	-1	LOAF	835	5	-1	n/a	n/a	n/a	n/a	n/a
5081.294	n/a	RECOG_RESP	2540647	n/a	LTP258	ltpFR	0	5	-1	LOAF	835	n/a	-1	n/a	n/a	n/a	n/a	n/a
5082.296	n/a	RECOG_CONF	2541148	n/a	LTP258	ltpFR	0	5	-1	LOAF	835	5	-1	n/a	n/a	n/a	n/a	n/a
5101.768	n/a	REC_START	2550884	n/a	LTP258	ltpFR	0	6	n/a	n/a	n/a	n/a	n/a	n/a	n/a	n/a	n/a	n/a
5101.822	n/a	RECOG_LURE	2550911	n/a	LTP258	ltpFR	0	6	n/a	DAISY	435	3	n/a	n/a	n/a	n/a	n/a	n/a
5102.914	n/a	RECOG_RESP	2551457	n/a	LTP258	ltpFR	0	6	n/a	DAISY	435	n/a	n/a	n/a	n/a	n/a	n/a	n/a
5104.926	n/a	RECOG_CONF	2552463	n/a	LTP258	ltpFR	0	6	n/a	DAISY	435	3	n/a	n/a	n/a	n/a	n/a	n/a
5106.806	n/a	RECOG_LURE	2553403	n/a	LTP258	ltpFR	0	6	n/a	TOMB	1477	5	n/a	n/a	n/a	n/a	n/a	n/a
5107.718	n/a	RECOG_RESP	2553859	n/a	LTP258	ltpFR	0	6	n/a	TOMB	1477	n/a	n/a	n/a	n/a	n/a	n/a	n/a
5108.786	n/a	RECOG_CONF	2554393	n/a	LTP258	ltpFR	0	6	n/a	TOMB	1477	5	n/a	n/a	n/a	n/a	n/a	n/a
5110.714	n/a	RECOG_TARGET	2555357	n/a	LTP258	ltpFR	0	6	0	OWNER	993	2	1	n/a	n/a	n/a	n/a	n/a
5112.744	n/a	RECOG_RESP	2556372	n/a	LTP258	ltpFR	0	6	0	OWNER	993	n/a	1	n/a	n/a	n/a	n/a	n/a
5113.886	n/a	RECOG_CONF	2556943	n/a	LTP258	ltpFR	0	6	0	OWNER	993	2	1	n/a	n/a	n/a	n/a	n/a
5115.648	n/a	RECOG_TARGET	2557824	n/a	LTP258	ltpFR	0	6	1	ENGINEER	536	2	n/a	n/a	n/a	n/a	n/a	n/a
5118.566	n/a	RECOG_RESP	2559283	n/a	LTP258	ltpFR	0	6	1	ENGINEER	536	n/a	n/a	n/a	n/a	n/a	n/a	n/a
5120.72	n/a	RECOG_CONF	2560360	n/a	LTP258	ltpFR	0	6	1	ENGINEER	536	2	n/a	n/a	n/a	n/a	n/a	n/a
5122.574	n/a	RECOG_LURE	2561287	n/a	LTP258	ltpFR	0	6	n/a	GIFT	635	1	n/a	n/a	n/a	n/a	n/a	n/a
5124.088	n/a	RECOG_RESP	2562044	n/a	LTP258	ltpFR	0	6	n/a	GIFT	635	n/a	n/a	n/a	n/a	n/a	n/a	n/a
5125.968	n/a	RECOG_CONF	2562984	n/a	LTP258	ltpFR	0	6	n/a	GIFT	635	1	n/a	n/a	n/a	n/a	n/a	n/a
5127.628	n/a	RECOG_LURE	2563814	n/a	LTP258	ltpFR	0	6	n/a	SADDLE	1221	5	n/a	n/a	n/a	n/a	n/a	n/a
5129.572	n/a	RECOG_RESP	2564786	n/a	LTP258	ltpFR	0	6	n/a	SADDLE	1221	n/a	n/a	n/a	n/a	n/a	n/a	n/a
5130.528	n/a	RECOG_CONF	2565264	n/a	LTP258	ltpFR	0	6	n/a	SADDLE	1221	5	n/a	n/a	n/a	n/a	n/a	n/a
5132.596	n/a	RECOG_TARGET	2566298	n/a	LTP258	ltpFR	0	6	-1	REFEREE	1178	5	-1	n/a	n/a	n/a	n/a	n/a
5133.612	n/a	RECOG_RESP	2566806	n/a	LTP258	ltpFR	0	6	-1	REFEREE	1178	n/a	-1	n/a	n/a	n/a	n/a	n/a
5134.88	n/a	RECOG_CONF	2567440	n/a	LTP258	ltpFR	0	6	-1	REFEREE	1178	5	-1	n/a	n/a	n/a	n/a	n/a
5136.722	n/a	RECOG_TARGET	2568361	n/a	LTP258	ltpFR	0	6	1	AUTHOR	61	5	1	n/a	n/a	n/a	n/a	n/a
5137.514	n/a	RECOG_RESP	2568757	n/a	LTP258	ltpFR	0	6	1	AUTHOR	61	n/a	1	n/a	n/a	n/a	n/a	n/a
5138.62	n/a	RECOG_CONF	2569310	n/a	LTP258	ltpFR	0	6	1	AUTHOR	61	5	1	n/a	n/a	n/a	n/a	n/a
5140.274	n/a	RECOG_LURE	2570137	n/a	LTP258	ltpFR	0	6	n/a	CARD	243	3	n/a	n/a	n/a	n/a	n/a	n/a
5141.354	n/a	RECOG_RESP	2570677	n/a	LTP258	ltpFR	0	6	n/a	CARD	243	n/a	n/a	n/a	n/a	n/a	n/a	n/a
5142.99	n/a	RECOG_CONF	2571495	n/a	LTP258	ltpFR	0	6	n/a	CARD	243	3	n/a	n/a	n/a	n/a	n/a	n/a
5144.602	n/a	RECOG_TARGET	2572301	n/a	LTP258	ltpFR	0	6	0	CROCODILE	411	5	1	n/a	n/a	n/a	n/a	n/a
5145.57	n/a	RECOG_RESP	2572785	n/a	LTP258	ltpFR	0	6	0	CROCODILE	411	n/a	1	n/a	n/a	n/a	n/a	n/a
5146.612	n/a	RECOG_CONF	2573306	n/a	LTP258	ltpFR	0	6	0	CROCODILE	411	5	1	n/a	n/a	n/a	n/a	n/a
5148.374	n/a	RECOG_TARGET	2574187	n/a	LTP258	ltpFR	0	6	-1	BAY	102	5	-1	n/a	n/a	n/a	n/a	n/a
5149.066	n/a	RECOG_RESP	2574533	n/a	LTP258	ltpFR	0	6	-1	BAY	102	n/a	-1	n/a	n/a	n/a	n/a	n/a
5150.186	n/a	RECOG_CONF	2575093	n/a	LTP258	ltpFR	0	6	-1	BAY	102	5	-1	n/a	n/a	n/a	n/a	n/a
5151.846	n/a	RECOG_LURE	2575923	n/a	LTP258	ltpFR	0	6	n/a	FOUNTAIN	597	1	n/a	n/a	n/a	n/a	n/a	n/a
5153.148	n/a	RECOG_RESP	2576574	n/a	LTP258	ltpFR	0	6	n/a	FOUNTAIN	597	n/a	n/a	n/a	n/a	n/a	n/a	n/a
5154.834	n/a	RECOG_CONF	2577417	n/a	LTP258	ltpFR	0	6	n/a	FOUNTAIN	597	1	n/a	n/a	n/a	n/a	n/a	n/a
5156.504	n/a	RECOG_LURE	2578252	n/a	LTP258	ltpFR	0	6	n/a	COACH	331	2	n/a	n/a	n/a	n/a	n/a	n/a
5158.73	n/a	RECOG_RESP	2579365	n/a	LTP258	ltpFR	0	6	n/a	COACH	331	n/a	n/a	n/a	n/a	n/a	n/a	n/a
5159.974	n/a	RECOG_CONF	2579987	n/a	LTP258	ltpFR	0	6	n/a	COACH	331	2	n/a	n/a	n/a	n/a	n/a	n/a
5161.808	n/a	RECOG_LURE	2580904	n/a	LTP258	ltpFR	0	6	n/a	CHOCOLATE	306	5	n/a	n/a	n/a	n/a	n/a	n/a
5163.45	n/a	RECOG_RESP	2581725	n/a	LTP258	ltpFR	0	6	n/a	CHOCOLATE	306	n/a	n/a	n/a	n/a	n/a	n/a	n/a
5164.392	n/a	RECOG_CONF	2582196	n/a	LTP258	ltpFR	0	6	n/a	CHOCOLATE	306	5	n/a	n/a	n/a	n/a	n/a	n/a
5166.302	n/a	RECOG_TARGET	2583151	n/a	LTP258	ltpFR	0	6	1	CAPE	237	4	0	n/a	n/a	n/a	n/a	n/a
5167.836	n/a	RECOG_RESP	2583918	n/a	LTP258	ltpFR	0	6	1	CAPE	237	n/a	0	n/a	n/a	n/a	n/a	n/a
5168.894	n/a	RECOG_CONF	2584447	n/a	LTP258	ltpFR	0	6	1	CAPE	237	4	0	n/a	n/a	n/a	n/a	n/a
5170.652	n/a	RECOG_LURE	2585326	n/a	LTP258	ltpFR	0	6	n/a	PUMP	1141	1	n/a	n/a	n/a	n/a	n/a	n/a
5172.156	n/a	RECOG_RESP	2586078	n/a	LTP258	ltpFR	0	6	n/a	PUMP	1141	n/a	n/a	n/a	n/a	n/a	n/a	n/a
5173.324	n/a	RECOG_CONF	2586662	n/a	LTP258	ltpFR	0	6	n/a	PUMP	1141	1	n/a	n/a	n/a	n/a	n/a	n/a
5175.008	n/a	RECOG_TARGET	2587504	n/a	LTP258	ltpFR	0	6	0	COCOON	339	4	0	n/a	n/a	n/a	n/a	n/a
5175.912	n/a	RECOG_RESP	2587956	n/a	LTP258	ltpFR	0	6	0	COCOON	339	n/a	0	n/a	n/a	n/a	n/a	n/a
5176.966	n/a	RECOG_CONF	2588483	n/a	LTP258	ltpFR	0	6	0	COCOON	339	4	0	n/a	n/a	n/a	n/a	n/a
5178.732	n/a	RECOG_TARGET	2589366	n/a	LTP258	ltpFR	0	6	0	SCREEN	1253	3	1	n/a	n/a	n/a	n/a	n/a
5180.034	n/a	RECOG_RESP	2590017	n/a	LTP258	ltpFR	0	6	0	SCREEN	1253	n/a	1	n/a	n/a	n/a	n/a	n/a
5181.226	n/a	RECOG_CONF	2590613	n/a	LTP258	ltpFR	0	6	0	SCREEN	1253	3	1	n/a	n/a	n/a	n/a	n/a
5182.906	n/a	RECOG_TARGET	2591453	n/a	LTP258	ltpFR	0	6	-1	RAFT	1159	2	-1	n/a	n/a	n/a	n/a	n/a
5185.128	n/a	RECOG_RESP	2592564	n/a	LTP258	ltpFR	0	6	-1	RAFT	1159	n/a	-1	n/a	n/a	n/a	n/a	n/a
5186.444	n/a	RECOG_CONF	2593222	n/a	LTP258	ltpFR	0	6	-1	RAFT	1159	2	-1	n/a	n/a	n/a	n/a	n/a
5188.124	n/a	RECOG_TARGET	2594062	n/a	LTP258	ltpFR	0	6	1	PORCUPINE	1107	5	1	n/a	n/a	n/a	n/a	n/a
5189.024	n/a	RECOG_RESP	2594512	n/a	LTP258	ltpFR	0	6	1	PORCUPINE	1107	n/a	1	n/a	n/a	n/a	n/a	n/a
5189.986	n/a	RECOG_CONF	2594993	n/a	LTP258	ltpFR	0	6	1	PORCUPINE	1107	5	1	n/a	n/a	n/a	n/a	n/a
