onset	duration	trial_type	sample	stim_file	subject	experiment	session	trial	task	item_name	item_num	recog_conf	resp	color_b	color_g	color_r	case	font
275.538	n/a	SESS_START	137769	n/a	LTP165	ltpFR	4	n/a	n/a	n/a	n/a	n/a	n/a	n/a	n/a	n/a	n/a	n/a
368.118	n/a	WORD	184059	wordpools/wasnorm_wordpool_less_exclusions.txt	LTP165	ltpFR	4	1	1	DOCUMENT	479	n/a	0	0	0.5869140625	0.422607421875	lower	../fonts/zerothre.ttf
372.108	n/a	WORD	186054	wordpools/wasnorm_wordpool_less_exclusions.txt	LTP165	ltpFR	4	1	1	SCRIBBLE	1256	n/a	0	0	0.5869140625	0.422607421875	lower	../fonts/zerothre.ttf
376.024	n/a	WORD	188012	wordpools/wasnorm_wordpool_less_exclusions.txt	LTP165	ltpFR	4	1	0	PUMPKIN	1142	n/a	1	1	0.412841796875	0.57763671875	upper	../fonts/amplitud.ttf
379.922	n/a	WORD	189961	wordpools/wasnorm_wordpool_less_exclusions.txt	LTP165	ltpFR	4	1	0	CUSHION	428	n/a	0	1	0.412841796875	0.57763671875	upper	../fonts/amplitud.ttf
384.088	n/a	WORD	192044	wordpools/wasnorm_wordpool_less_exclusions.txt	LTP165	ltpFR	4	1	0	LINEN	825	n/a	0	1	0.412841796875	0.57763671875	upper	../fonts/amplitud.ttf
387.978	n/a	WORD	193989	wordpools/wasnorm_wordpool_less_exclusions.txt	LTP165	ltpFR	4	1	1	WATER	1594	n/a	1	0	0.5869140625	0.422607421875	lower	../fonts/zerothre.ttf
392.01	n/a	WORD	196005	wordpools/wasnorm_wordpool_less_exclusions.txt	LTP165	ltpFR	4	1	1	SCENERY	1247	n/a	1	0	0.5869140625	0.422607421875	lower	../fonts/zerothre.ttf
395.876	n/a	WORD	197938	wordpools/wasnorm_wordpool_less_exclusions.txt	LTP165	ltpFR	4	1	0	PEANUT	1032	n/a	0	1	0.412841796875	0.57763671875	upper	../fonts/amplitud.ttf
400.024	n/a	WORD	200012	wordpools/wasnorm_wordpool_less_exclusions.txt	LTP165	ltpFR	4	1	0	ROSE	1212	n/a	0	1	0.412841796875	0.57763671875	upper	../fonts/amplitud.ttf
403.916	n/a	WORD	201958	wordpools/wasnorm_wordpool_less_exclusions.txt	LTP165	ltpFR	4	1	0	TULIP	1517	n/a	0	1	0.412841796875	0.57763671875	upper	../fonts/amplitud.ttf
407.88	n/a	WORD	203940	wordpools/wasnorm_wordpool_less_exclusions.txt	LTP165	ltpFR	4	1	0	MONGOOSE	909	n/a	0	1	0.412841796875	0.57763671875	upper	../fonts/amplitud.ttf
411.888	n/a	WORD	205944	wordpools/wasnorm_wordpool_less_exclusions.txt	LTP165	ltpFR	4	1	0	BIOLOGIST	128	n/a	1	1	0.412841796875	0.57763671875	upper	../fonts/amplitud.ttf
415.802	n/a	WORD	207901	wordpools/wasnorm_wordpool_less_exclusions.txt	LTP165	ltpFR	4	1	1	PIE	1062	n/a	0	0	0.5869140625	0.422607421875	lower	../fonts/zerothre.ttf
419.784	n/a	WORD	209892	wordpools/wasnorm_wordpool_less_exclusions.txt	LTP165	ltpFR	4	1	1	SAILOR	1223	n/a	1	0	0.5869140625	0.422607421875	lower	../fonts/zerothre.ttf
423.934	n/a	WORD	211967	wordpools/wasnorm_wordpool_less_exclusions.txt	LTP165	ltpFR	4	1	1	CROCODILE	411	n/a	1	0	0.5869140625	0.422607421875	lower	../fonts/zerothre.ttf
427.932	n/a	WORD	213966	wordpools/wasnorm_wordpool_less_exclusions.txt	LTP165	ltpFR	4	1	1	DINER	467	n/a	0	0	0.5869140625	0.422607421875	lower	../fonts/zerothre.ttf
433.732	n/a	REC_START	216866	n/a	LTP165	ltpFR	4	1	n/a	n/a	n/a	n/a	n/a	n/a	n/a	n/a	n/a	n/a
434.964	n/a	REC_WORD	217482	wordpools/wasnorm_wordpool_less_exclusions.txt	LTP165	ltpFR	4	1	1	CROCODILE	411	n/a	1	n/a	n/a	n/a	n/a	n/a
435.772	n/a	REC_WORD	217886	wordpools/wasnorm_wordpool_less_exclusions.txt	LTP165	ltpFR	4	1	0	BIOLOGIST	128	n/a	1	n/a	n/a	n/a	n/a	n/a
436.694	n/a	REC_WORD	218347	wordpools/wasnorm_wordpool_less_exclusions.txt	LTP165	ltpFR	4	1	1	DINER	467	n/a	0	n/a	n/a	n/a	n/a	n/a
438.26	n/a	REC_WORD	219130	wordpools/wasnorm_wordpool_less_exclusions.txt	LTP165	ltpFR	4	1	0	ROSE	1212	n/a	0	n/a	n/a	n/a	n/a	n/a
439.154	n/a	REC_WORD	219577	wordpools/wasnorm_wordpool_less_exclusions.txt	LTP165	ltpFR	4	1	0	TULIP	1517	n/a	0	n/a	n/a	n/a	n/a	n/a
440.276	n/a	REC_WORD	220138	wordpools/wasnorm_wordpool_less_exclusions.txt	LTP165	ltpFR	4	1	1	SCRIBBLE	1256	n/a	0	n/a	n/a	n/a	n/a	n/a
441.276	n/a	REC_WORD_VV	220638	wordpools/wasnorm_wordpool_less_exclusions.txt	LTP165	ltpFR	4	1	n/a	<>	-1	n/a	n/a	n/a	n/a	n/a	n/a	n/a
441.744	n/a	REC_WORD_VV	220872	wordpools/wasnorm_wordpool_less_exclusions.txt	LTP165	ltpFR	4	1	n/a	<>	-1	n/a	n/a	n/a	n/a	n/a	n/a	n/a
442.656	n/a	REC_WORD	221328	wordpools/wasnorm_wordpool_less_exclusions.txt	LTP165	ltpFR	4	1	1	DOCUMENT	479	n/a	0	n/a	n/a	n/a	n/a	n/a
497.436	n/a	REC_WORD	248718	wordpools/wasnorm_wordpool_less_exclusions.txt	LTP165	ltpFR	4	1	1	CROCODILE	411	n/a	1	n/a	n/a	n/a	n/a	n/a
515.648	n/a	WORD	257824	wordpools/wasnorm_wordpool_less_exclusions.txt	LTP165	ltpFR	4	2	0	SHORE	1291	n/a	1	1	0.412841796875	0.57763671875	upper	../fonts/amplitud.ttf
519.656	n/a	WORD	259828	wordpools/wasnorm_wordpool_less_exclusions.txt	LTP165	ltpFR	4	2	0	FLEA	577	n/a	0	1	0.412841796875	0.57763671875	upper	../fonts/amplitud.ttf
523.478	n/a	WORD	261739	wordpools/wasnorm_wordpool_less_exclusions.txt	LTP165	ltpFR	4	2	0	BINDER	127	n/a	0	1	0.412841796875	0.57763671875	upper	../fonts/amplitud.ttf
527.626	n/a	WORD	263813	wordpools/wasnorm_wordpool_less_exclusions.txt	LTP165	ltpFR	4	2	1	HONEY	713	n/a	1	0	0.5869140625	0.422607421875	lower	../fonts/zerothre.ttf
531.792	n/a	WORD	265896	wordpools/wasnorm_wordpool_less_exclusions.txt	LTP165	ltpFR	4	2	1	LIME	823	n/a	1	0	0.5869140625	0.422607421875	lower	../fonts/zerothre.ttf
535.692	n/a	WORD	267846	wordpools/wasnorm_wordpool_less_exclusions.txt	LTP165	ltpFR	4	2	1	PANTHER	1009	n/a	1	0	0.5869140625	0.422607421875	lower	../fonts/zerothre.ttf
539.59	n/a	WORD	269795	wordpools/wasnorm_wordpool_less_exclusions.txt	LTP165	ltpFR	4	2	1	DASHBOARD	441	n/a	0	0	0.5869140625	0.422607421875	lower	../fonts/zerothre.ttf
543.682	n/a	WORD	271841	wordpools/wasnorm_wordpool_less_exclusions.txt	LTP165	ltpFR	4	2	0	SCROLL	1257	n/a	0	1	0.412841796875	0.57763671875	upper	../fonts/amplitud.ttf
547.638	n/a	WORD	273819	wordpools/wasnorm_wordpool_less_exclusions.txt	LTP165	ltpFR	4	2	0	DAM	436	n/a	0	1	0.412841796875	0.57763671875	upper	../fonts/amplitud.ttf
551.502	n/a	WORD	275751	wordpools/wasnorm_wordpool_less_exclusions.txt	LTP165	ltpFR	4	2	1	KEG	770	n/a	2	0	0.5869140625	0.422607421875	lower	../fonts/zerothre.ttf
552.844	n/a	KEY_MSG	276422	n/a	LTP165	ltpFR	4	2	n/a	n/a	n/a	n/a	n/a	n/a	n/a	n/a	n/a	n/a
555.352	n/a	WORD	277676	wordpools/wasnorm_wordpool_less_exclusions.txt	LTP165	ltpFR	4	2	1	COOLER	375	n/a	0	0	0.5869140625	0.422607421875	lower	../fonts/zerothre.ttf
559.468	n/a	WORD	279734	wordpools/wasnorm_wordpool_less_exclusions.txt	LTP165	ltpFR	4	2	1	TWINE	1529	n/a	0	0	0.5869140625	0.422607421875	lower	../fonts/zerothre.ttf
563.55	n/a	WORD	281775	wordpools/wasnorm_wordpool_less_exclusions.txt	LTP165	ltpFR	4	2	1	SHERIFF	1284	n/a	1	0	0.5869140625	0.422607421875	lower	../fonts/zerothre.ttf
567.44	n/a	WORD	283720	wordpools/wasnorm_wordpool_less_exclusions.txt	LTP165	ltpFR	4	2	0	SPY	1360	n/a	1	1	0.412841796875	0.57763671875	upper	../fonts/amplitud.ttf
571.288	n/a	WORD	285644	wordpools/wasnorm_wordpool_less_exclusions.txt	LTP165	ltpFR	4	2	0	POOL	1103	n/a	1	1	0.412841796875	0.57763671875	upper	../fonts/amplitud.ttf
575.33	n/a	WORD	287665	wordpools/wasnorm_wordpool_less_exclusions.txt	LTP165	ltpFR	4	2	0	BARK	87	n/a	1	1	0.412841796875	0.57763671875	upper	../fonts/amplitud.ttf
581.096	n/a	REC_START	290548	n/a	LTP165	ltpFR	4	2	n/a	n/a	n/a	n/a	n/a	n/a	n/a	n/a	n/a	n/a
581.914	n/a	REC_WORD	290957	wordpools/wasnorm_wordpool_less_exclusions.txt	LTP165	ltpFR	4	2	1	SHERIFF	1284	n/a	1	n/a	n/a	n/a	n/a	n/a
582.732	n/a	REC_WORD	291366	wordpools/wasnorm_wordpool_less_exclusions.txt	LTP165	ltpFR	4	2	1	PIE	1062	n/a	0	n/a	n/a	n/a	n/a	n/a
583.494	n/a	REC_WORD	291747	wordpools/wasnorm_wordpool_less_exclusions.txt	LTP165	ltpFR	4	2	0	POOL	1103	n/a	1	n/a	n/a	n/a	n/a	n/a
584.398	n/a	REC_WORD	292199	wordpools/wasnorm_wordpool_less_exclusions.txt	LTP165	ltpFR	4	2	0	BARK	87	n/a	1	n/a	n/a	n/a	n/a	n/a
592.72	n/a	REC_WORD	296360	wordpools/wasnorm_wordpool_less_exclusions.txt	LTP165	ltpFR	4	2	1	DOCUMENT	479	n/a	0	n/a	n/a	n/a	n/a	n/a
623.87	n/a	REC_WORD	311935	wordpools/wasnorm_wordpool_less_exclusions.txt	LTP165	ltpFR	4	2	0	FLEA	577	n/a	0	n/a	n/a	n/a	n/a	n/a
629.024	n/a	REC_WORD	314512	wordpools/wasnorm_wordpool_less_exclusions.txt	LTP165	ltpFR	4	2	0	POOL	1103	n/a	1	n/a	n/a	n/a	n/a	n/a
631.968	n/a	REC_WORD	315984	wordpools/wasnorm_wordpool_less_exclusions.txt	LTP165	ltpFR	4	2	1	DASHBOARD	441	n/a	0	n/a	n/a	n/a	n/a	n/a
649.784	n/a	REC_WORD	324892	wordpools/wasnorm_wordpool_less_exclusions.txt	LTP165	ltpFR	4	2	1	HONEY	713	n/a	1	n/a	n/a	n/a	n/a	n/a
660.32	n/a	WORD	330160	wordpools/wasnorm_wordpool_less_exclusions.txt	LTP165	ltpFR	4	3	0	HIKER	708	n/a	1	1	0.412841796875	0.57763671875	upper	../fonts/amplitud.ttf
664.334	n/a	WORD	332167	wordpools/wasnorm_wordpool_less_exclusions.txt	LTP165	ltpFR	4	3	0	PALM	1007	n/a	0	1	0.412841796875	0.57763671875	upper	../fonts/amplitud.ttf
668.492	n/a	WORD	334246	wordpools/wasnorm_wordpool_less_exclusions.txt	LTP165	ltpFR	4	3	0	BLUEBERRY	140	n/a	0	1	0.412841796875	0.57763671875	upper	../fonts/amplitud.ttf
672.384	n/a	WORD	336192	wordpools/wasnorm_wordpool_less_exclusions.txt	LTP165	ltpFR	4	3	1	CANDIDATE	228	n/a	1	0	0.5869140625	0.422607421875	lower	../fonts/zerothre.ttf
676.208	n/a	WORD	338104	wordpools/wasnorm_wordpool_less_exclusions.txt	LTP165	ltpFR	4	3	1	PICKLE	1059	n/a	0	0	0.5869140625	0.422607421875	lower	../fonts/zerothre.ttf
680.346	n/a	WORD	340173	wordpools/wasnorm_wordpool_less_exclusions.txt	LTP165	ltpFR	4	3	1	RODENT	1204	n/a	1	0	0.5869140625	0.422607421875	lower	../fonts/zerothre.ttf
684.378	n/a	WORD	342189	wordpools/wasnorm_wordpool_less_exclusions.txt	LTP165	ltpFR	4	3	1	BALLOT	76	n/a	0	0	0.5869140625	0.422607421875	lower	../fonts/zerothre.ttf
688.52	n/a	WORD	344260	wordpools/wasnorm_wordpool_less_exclusions.txt	LTP165	ltpFR	4	3	1	SARDINE	1235	n/a	1	0	0.5869140625	0.422607421875	lower	../fonts/zerothre.ttf
692.72	n/a	WORD	346360	wordpools/wasnorm_wordpool_less_exclusions.txt	LTP165	ltpFR	4	3	0	TROUT	1511	n/a	1	1	0.412841796875	0.57763671875	upper	../fonts/amplitud.ttf
696.768	n/a	WORD	348384	wordpools/wasnorm_wordpool_less_exclusions.txt	LTP165	ltpFR	4	3	0	BARN	89	n/a	1	1	0.412841796875	0.57763671875	upper	../fonts/amplitud.ttf
700.924	n/a	WORD	350462	wordpools/wasnorm_wordpool_less_exclusions.txt	LTP165	ltpFR	4	3	0	HAYSTACK	694	n/a	1	1	0.412841796875	0.57763671875	upper	../fonts/amplitud.ttf
705.066	n/a	WORD	352533	wordpools/wasnorm_wordpool_less_exclusions.txt	LTP165	ltpFR	4	3	1	RIVER	1194	n/a	3	0	0.5869140625	0.422607421875	lower	../fonts/zerothre.ttf
706.158	n/a	KEY_MSG	353079	n/a	LTP165	ltpFR	4	3	n/a	n/a	n/a	n/a	n/a	n/a	n/a	n/a	n/a	n/a
709.174	n/a	WORD	354587	wordpools/wasnorm_wordpool_less_exclusions.txt	LTP165	ltpFR	4	3	1	SCALLOP	1242	n/a	1	0	0.5869140625	0.422607421875	lower	../fonts/zerothre.ttf
713.32	n/a	WORD	356660	wordpools/wasnorm_wordpool_less_exclusions.txt	LTP165	ltpFR	4	3	1	STAFF	1365	n/a	1	0	0.5869140625	0.422607421875	lower	../fonts/zerothre.ttf
717.154	n/a	WORD	358577	wordpools/wasnorm_wordpool_less_exclusions.txt	LTP165	ltpFR	4	3	0	TRUCK	1512	n/a	2	1	0.412841796875	0.57763671875	upper	../fonts/amplitud.ttf
718.268	n/a	KEY_MSG	359134	n/a	LTP165	ltpFR	4	3	n/a	n/a	n/a	n/a	n/a	n/a	n/a	n/a	n/a	n/a
721.11	n/a	WORD	360555	wordpools/wasnorm_wordpool_less_exclusions.txt	LTP165	ltpFR	4	3	0	FIG	563	n/a	0	1	0.412841796875	0.57763671875	upper	../fonts/amplitud.ttf
726.886	n/a	REC_START	363443	n/a	LTP165	ltpFR	4	3	n/a	n/a	n/a	n/a	n/a	n/a	n/a	n/a	n/a	n/a
728.612	n/a	REC_WORD	364306	wordpools/wasnorm_wordpool_less_exclusions.txt	LTP165	ltpFR	4	3	0	FIG	563	n/a	0	n/a	n/a	n/a	n/a	n/a
729.28	n/a	REC_WORD	364640	wordpools/wasnorm_wordpool_less_exclusions.txt	LTP165	ltpFR	4	3	0	TRUCK	1512	n/a	2	n/a	n/a	n/a	n/a	n/a
730.424	n/a	REC_WORD	365212	wordpools/wasnorm_wordpool_less_exclusions.txt	LTP165	ltpFR	4	3	1	SARDINE	1235	n/a	1	n/a	n/a	n/a	n/a	n/a
731.48	n/a	REC_WORD	365740	wordpools/wasnorm_wordpool_less_exclusions.txt	LTP165	ltpFR	4	3	0	TROUT	1511	n/a	1	n/a	n/a	n/a	n/a	n/a
732.228	n/a	REC_WORD	366114	wordpools/wasnorm_wordpool_less_exclusions.txt	LTP165	ltpFR	4	3	1	SCALLOP	1242	n/a	1	n/a	n/a	n/a	n/a	n/a
733.228	n/a	REC_WORD_VV	366614	wordpools/wasnorm_wordpool_less_exclusions.txt	LTP165	ltpFR	4	3	n/a	<>	-1	n/a	n/a	n/a	n/a	n/a	n/a	n/a
733.93	n/a	REC_WORD	366965	wordpools/wasnorm_wordpool_less_exclusions.txt	LTP165	ltpFR	4	3	0	BARN	89	n/a	1	n/a	n/a	n/a	n/a	n/a
734.59	n/a	REC_WORD	367295	wordpools/wasnorm_wordpool_less_exclusions.txt	LTP165	ltpFR	4	3	0	HAYSTACK	694	n/a	1	n/a	n/a	n/a	n/a	n/a
735.59	n/a	REC_WORD_VV	367795	wordpools/wasnorm_wordpool_less_exclusions.txt	LTP165	ltpFR	4	3	n/a	<>	-1	n/a	n/a	n/a	n/a	n/a	n/a	n/a
741.562	n/a	REC_WORD	370781	wordpools/wasnorm_wordpool_less_exclusions.txt	LTP165	ltpFR	4	3	0	BLUEBERRY	140	n/a	0	n/a	n/a	n/a	n/a	n/a
742.562	n/a	REC_WORD_VV	371281	wordpools/wasnorm_wordpool_less_exclusions.txt	LTP165	ltpFR	4	3	n/a	<>	-1	n/a	n/a	n/a	n/a	n/a	n/a	n/a
744.008	n/a	REC_WORD	372004	wordpools/wasnorm_wordpool_less_exclusions.txt	LTP165	ltpFR	4	3	1	CANDIDATE	228	n/a	1	n/a	n/a	n/a	n/a	n/a
750.138	n/a	REC_WORD	375069	wordpools/wasnorm_wordpool_less_exclusions.txt	LTP165	ltpFR	4	3	1	SCALLOP	1242	n/a	1	n/a	n/a	n/a	n/a	n/a
753.342	n/a	REC_WORD	376671	wordpools/wasnorm_wordpool_less_exclusions.txt	LTP165	ltpFR	4	3	1	RIVER	1194	n/a	3	n/a	n/a	n/a	n/a	n/a
772.26	n/a	REC_WORD	386130	wordpools/wasnorm_wordpool_less_exclusions.txt	LTP165	ltpFR	4	3	1	RODENT	1204	n/a	1	n/a	n/a	n/a	n/a	n/a
805.828	n/a	WORD	402914	wordpools/wasnorm_wordpool_less_exclusions.txt	LTP165	ltpFR	4	4	0	PLAID	1080	n/a	0	1	0.412841796875	0.57763671875	upper	../fonts/amplitud.ttf
809.95	n/a	WORD	404975	wordpools/wasnorm_wordpool_less_exclusions.txt	LTP165	ltpFR	4	4	0	BANDANNA	80	n/a	0	1	0.412841796875	0.57763671875	upper	../fonts/amplitud.ttf
814.108	n/a	WORD	407054	wordpools/wasnorm_wordpool_less_exclusions.txt	LTP165	ltpFR	4	4	0	UTENSIL	1542	n/a	0	1	0.412841796875	0.57763671875	upper	../fonts/amplitud.ttf
818.14	n/a	WORD	409070	wordpools/wasnorm_wordpool_less_exclusions.txt	LTP165	ltpFR	4	4	0	PILOT	1070	n/a	1	1	0.412841796875	0.57763671875	upper	../fonts/amplitud.ttf
821.972	n/a	WORD	410986	wordpools/wasnorm_wordpool_less_exclusions.txt	LTP165	ltpFR	4	4	0	HOME	712	n/a	1	1	0.412841796875	0.57763671875	upper	../fonts/amplitud.ttf
826.08	n/a	WORD	413040	wordpools/wasnorm_wordpool_less_exclusions.txt	LTP165	ltpFR	4	4	1	VIOLA	1570	n/a	0	0	0.5869140625	0.422607421875	lower	../fonts/zerothre.ttf
829.978	n/a	WORD	414989	wordpools/wasnorm_wordpool_less_exclusions.txt	LTP165	ltpFR	4	4	1	KEYBOARD	774	n/a	0	0	0.5869140625	0.422607421875	lower	../fonts/zerothre.ttf
834.068	n/a	WORD	417034	wordpools/wasnorm_wordpool_less_exclusions.txt	LTP165	ltpFR	4	4	0	MARROW	872	n/a	1	1	0.412841796875	0.57763671875	upper	../fonts/amplitud.ttf
838.134	n/a	WORD	419067	wordpools/wasnorm_wordpool_less_exclusions.txt	LTP165	ltpFR	4	4	0	ARM	38	n/a	0	1	0.412841796875	0.57763671875	upper	../fonts/amplitud.ttf
842.232	n/a	WORD	421116	wordpools/wasnorm_wordpool_less_exclusions.txt	LTP165	ltpFR	4	4	0	KITCHEN	778	n/a	1	1	0.412841796875	0.57763671875	upper	../fonts/amplitud.ttf
846.214	n/a	WORD	423107	wordpools/wasnorm_wordpool_less_exclusions.txt	LTP165	ltpFR	4	4	1	JURY	766	n/a	1	0	0.5869140625	0.422607421875	lower	../fonts/zerothre.ttf
850.046	n/a	WORD	425023	wordpools/wasnorm_wordpool_less_exclusions.txt	LTP165	ltpFR	4	4	1	HEDGE	699	n/a	1	0	0.5869140625	0.422607421875	lower	../fonts/zerothre.ttf
854.228	n/a	WORD	427114	wordpools/wasnorm_wordpool_less_exclusions.txt	LTP165	ltpFR	4	4	1	STUMP	1396	n/a	0	0	0.5869140625	0.422607421875	lower	../fonts/zerothre.ttf
858.194	n/a	WORD	429097	wordpools/wasnorm_wordpool_less_exclusions.txt	LTP165	ltpFR	4	4	1	CLOWN	330	n/a	1	0	0.5869140625	0.422607421875	lower	../fonts/zerothre.ttf
862.036	n/a	WORD	431018	wordpools/wasnorm_wordpool_less_exclusions.txt	LTP165	ltpFR	4	4	1	WITNESS	1618	n/a	1	0	0.5869140625	0.422607421875	lower	../fonts/zerothre.ttf
866.058	n/a	WORD	433029	wordpools/wasnorm_wordpool_less_exclusions.txt	LTP165	ltpFR	4	4	1	BOXER	160	n/a	1	0	0.5869140625	0.422607421875	lower	../fonts/zerothre.ttf
871.782	n/a	REC_START	435891	n/a	LTP165	ltpFR	4	4	n/a	n/a	n/a	n/a	n/a	n/a	n/a	n/a	n/a	n/a
872.99	n/a	REC_WORD	436495	wordpools/wasnorm_wordpool_less_exclusions.txt	LTP165	ltpFR	4	4	1	JURY	766	n/a	1	n/a	n/a	n/a	n/a	n/a
873.594	n/a	REC_WORD	436797	wordpools/wasnorm_wordpool_less_exclusions.txt	LTP165	ltpFR	4	4	1	HEDGE	699	n/a	1	n/a	n/a	n/a	n/a	n/a
874.152	n/a	REC_WORD	437076	wordpools/wasnorm_wordpool_less_exclusions.txt	LTP165	ltpFR	4	4	1	BOXER	160	n/a	1	n/a	n/a	n/a	n/a	n/a
875.152	n/a	REC_WORD_VV	437576	wordpools/wasnorm_wordpool_less_exclusions.txt	LTP165	ltpFR	4	4	n/a	<>	-1	n/a	n/a	n/a	n/a	n/a	n/a	n/a
875.72	n/a	REC_WORD_VV	437860	wordpools/wasnorm_wordpool_less_exclusions.txt	LTP165	ltpFR	4	4	n/a	<>	-1	n/a	n/a	n/a	n/a	n/a	n/a	n/a
950.708	n/a	WORD	475354	wordpools/wasnorm_wordpool_less_exclusions.txt	LTP165	ltpFR	4	5	0	BANK	83	n/a	1	1	0.412841796875	0.57763671875	upper	../fonts/amplitud.ttf
954.766	n/a	WORD	477383	wordpools/wasnorm_wordpool_less_exclusions.txt	LTP165	ltpFR	4	5	0	CHECK	284	n/a	0	1	0.412841796875	0.57763671875	upper	../fonts/amplitud.ttf
958.83	n/a	WORD	479415	wordpools/wasnorm_wordpool_less_exclusions.txt	LTP165	ltpFR	4	5	0	CAGE	218	n/a	0	1	0.412841796875	0.57763671875	upper	../fonts/amplitud.ttf
962.696	n/a	WORD	481348	wordpools/wasnorm_wordpool_less_exclusions.txt	LTP165	ltpFR	4	5	0	FOX	598	n/a	0	1	0.412841796875	0.57763671875	upper	../fonts/amplitud.ttf
966.736	n/a	WORD	483368	wordpools/wasnorm_wordpool_less_exclusions.txt	LTP165	ltpFR	4	5	0	PLASTER	1085	n/a	1	1	0.412841796875	0.57763671875	upper	../fonts/amplitud.ttf
970.736	n/a	WORD	485368	wordpools/wasnorm_wordpool_less_exclusions.txt	LTP165	ltpFR	4	5	0	DORM	488	n/a	1	1	0.412841796875	0.57763671875	upper	../fonts/amplitud.ttf
974.86	n/a	WORD	487430	wordpools/wasnorm_wordpool_less_exclusions.txt	LTP165	ltpFR	4	5	0	PENCIL	1042	n/a	0	1	0.412841796875	0.57763671875	upper	../fonts/amplitud.ttf
978.816	n/a	WORD	489408	wordpools/wasnorm_wordpool_less_exclusions.txt	LTP165	ltpFR	4	5	0	NAVIGATOR	938	n/a	1	1	0.412841796875	0.57763671875	upper	../fonts/amplitud.ttf
982.798	n/a	WORD	491399	wordpools/wasnorm_wordpool_less_exclusions.txt	LTP165	ltpFR	4	5	0	HAT	690	n/a	0	1	0.412841796875	0.57763671875	upper	../fonts/amplitud.ttf
986.746	n/a	WORD	493373	wordpools/wasnorm_wordpool_less_exclusions.txt	LTP165	ltpFR	4	5	0	TART	1436	n/a	0	1	0.412841796875	0.57763671875	upper	../fonts/amplitud.ttf
990.596	n/a	WORD	495298	wordpools/wasnorm_wordpool_less_exclusions.txt	LTP165	ltpFR	4	5	0	CLOSET	326	n/a	1	1	0.412841796875	0.57763671875	upper	../fonts/amplitud.ttf
994.678	n/a	WORD	497339	wordpools/wasnorm_wordpool_less_exclusions.txt	LTP165	ltpFR	4	5	0	TORCH	1484	n/a	0	1	0.412841796875	0.57763671875	upper	../fonts/amplitud.ttf
998.518	n/a	WORD	499259	wordpools/wasnorm_wordpool_less_exclusions.txt	LTP165	ltpFR	4	5	0	BASEMENT	94	n/a	1	1	0.412841796875	0.57763671875	upper	../fonts/amplitud.ttf
1002.668	n/a	WORD	501334	wordpools/wasnorm_wordpool_less_exclusions.txt	LTP165	ltpFR	4	5	0	WARDROBE	1587	n/a	1	1	0.412841796875	0.57763671875	upper	../fonts/amplitud.ttf
1006.508	n/a	WORD	503254	wordpools/wasnorm_wordpool_less_exclusions.txt	LTP165	ltpFR	4	5	0	BULB	192	n/a	0	1	0.412841796875	0.57763671875	upper	../fonts/amplitud.ttf
1010.598	n/a	WORD	505299	wordpools/wasnorm_wordpool_less_exclusions.txt	LTP165	ltpFR	4	5	0	CAVE	263	n/a	0	1	0.412841796875	0.57763671875	upper	../fonts/amplitud.ttf
1016.604	n/a	REC_START	508302	n/a	LTP165	ltpFR	4	5	n/a	n/a	n/a	n/a	n/a	n/a	n/a	n/a	n/a	n/a
1017.212	n/a	REC_WORD	508606	wordpools/wasnorm_wordpool_less_exclusions.txt	LTP165	ltpFR	4	5	0	NAVIGATOR	938	n/a	1	n/a	n/a	n/a	n/a	n/a
1018.4	n/a	REC_WORD	509200	wordpools/wasnorm_wordpool_less_exclusions.txt	LTP165	ltpFR	4	5	0	CAVE	263	n/a	0	n/a	n/a	n/a	n/a	n/a
1021.424	n/a	REC_WORD	510712	wordpools/wasnorm_wordpool_less_exclusions.txt	LTP165	ltpFR	4	5	0	BANK	83	n/a	1	n/a	n/a	n/a	n/a	n/a
1032.18	n/a	REC_WORD	516090	wordpools/wasnorm_wordpool_less_exclusions.txt	LTP165	ltpFR	4	5	1	HEDGE	699	n/a	1	n/a	n/a	n/a	n/a	n/a
1037.284	n/a	REC_WORD	518642	wordpools/wasnorm_wordpool_less_exclusions.txt	LTP165	ltpFR	4	5	0	BULB	192	n/a	0	n/a	n/a	n/a	n/a	n/a
1043.664	n/a	REC_WORD	521832	wordpools/wasnorm_wordpool_less_exclusions.txt	LTP165	ltpFR	4	5	0	HAT	690	n/a	0	n/a	n/a	n/a	n/a	n/a
1046.668	n/a	REC_WORD	523334	wordpools/wasnorm_wordpool_less_exclusions.txt	LTP165	ltpFR	4	5	0	BANK	83	n/a	1	n/a	n/a	n/a	n/a	n/a
1047.88	n/a	REC_WORD	523940	wordpools/wasnorm_wordpool_less_exclusions.txt	LTP165	ltpFR	4	5	0	CHECK	284	n/a	0	n/a	n/a	n/a	n/a	n/a
1050.574	n/a	REC_WORD	525287	wordpools/wasnorm_wordpool_less_exclusions.txt	LTP165	ltpFR	4	5	0	PENCIL	1042	n/a	0	n/a	n/a	n/a	n/a	n/a
1094.856	n/a	WORD	547428	wordpools/wasnorm_wordpool_less_exclusions.txt	LTP165	ltpFR	4	6	1	INTESTINE	742	n/a	2	0	0.5869140625	0.422607421875	lower	../fonts/zerothre.ttf
1097.428	n/a	KEY_MSG	548714	n/a	LTP165	ltpFR	4	6	n/a	n/a	n/a	n/a	n/a	n/a	n/a	n/a	n/a	n/a
1099.996	n/a	WORD	549998	wordpools/wasnorm_wordpool_less_exclusions.txt	LTP165	ltpFR	4	6	1	OAR	966	n/a	0	0	0.5869140625	0.422607421875	lower	../fonts/zerothre.ttf
1103.878	n/a	WORD	551939	wordpools/wasnorm_wordpool_less_exclusions.txt	LTP165	ltpFR	4	6	1	VINE	1568	n/a	1	0	0.5869140625	0.422607421875	lower	../fonts/zerothre.ttf
1107.76	n/a	WORD	553880	wordpools/wasnorm_wordpool_less_exclusions.txt	LTP165	ltpFR	4	6	1	WINE	1613	n/a	1	0	0.5869140625	0.422607421875	lower	../fonts/zerothre.ttf
1111.692	n/a	WORD	555846	wordpools/wasnorm_wordpool_less_exclusions.txt	LTP165	ltpFR	4	6	1	WATERFALL	1595	n/a	0	0	0.5869140625	0.422607421875	lower	../fonts/zerothre.ttf
1115.732	n/a	WORD	557866	wordpools/wasnorm_wordpool_less_exclusions.txt	LTP165	ltpFR	4	6	1	TREAD	1499	n/a	0	0	0.5869140625	0.422607421875	lower	../fonts/zerothre.ttf
1119.84	n/a	WORD	559920	wordpools/wasnorm_wordpool_less_exclusions.txt	LTP165	ltpFR	4	6	1	SKUNK	1321	n/a	1	0	0.5869140625	0.422607421875	lower	../fonts/zerothre.ttf
1123.972	n/a	WORD	561986	wordpools/wasnorm_wordpool_less_exclusions.txt	LTP165	ltpFR	4	6	1	CAMEL	223	n/a	1	0	0.5869140625	0.422607421875	lower	../fonts/zerothre.ttf
1127.854	n/a	WORD	563927	wordpools/wasnorm_wordpool_less_exclusions.txt	LTP165	ltpFR	4	6	1	STOCKING	1383	n/a	0	0	0.5869140625	0.422607421875	lower	../fonts/zerothre.ttf
1131.804	n/a	WORD	565902	wordpools/wasnorm_wordpool_less_exclusions.txt	LTP165	ltpFR	4	6	1	TREE	1502	n/a	1	0	0.5869140625	0.422607421875	lower	../fonts/zerothre.ttf
1135.926	n/a	WORD	567963	wordpools/wasnorm_wordpool_less_exclusions.txt	LTP165	ltpFR	4	6	1	CACTUS	215	n/a	1	0	0.5869140625	0.422607421875	lower	../fonts/zerothre.ttf
1140.084	n/a	WORD	570042	wordpools/wasnorm_wordpool_less_exclusions.txt	LTP165	ltpFR	4	6	1	CAR	241	n/a	0	0	0.5869140625	0.422607421875	lower	../fonts/zerothre.ttf
1144.092	n/a	WORD	572046	wordpools/wasnorm_wordpool_less_exclusions.txt	LTP165	ltpFR	4	6	1	SMOG	1330	n/a	0	0	0.5869140625	0.422607421875	lower	../fonts/zerothre.ttf
1148.014	n/a	WORD	574007	wordpools/wasnorm_wordpool_less_exclusions.txt	LTP165	ltpFR	4	6	1	UNIVERSE	1540	n/a	1	0	0.5869140625	0.422607421875	lower	../fonts/zerothre.ttf
1152.138	n/a	WORD	576069	wordpools/wasnorm_wordpool_less_exclusions.txt	LTP165	ltpFR	4	6	1	RUST	1219	n/a	0	0	0.5869140625	0.422607421875	lower	../fonts/zerothre.ttf
1156.188	n/a	WORD	578094	wordpools/wasnorm_wordpool_less_exclusions.txt	LTP165	ltpFR	4	6	1	CREW	406	n/a	1	0	0.5869140625	0.422607421875	lower	../fonts/zerothre.ttf
1162.144	n/a	REC_START	581072	n/a	LTP165	ltpFR	4	6	n/a	n/a	n/a	n/a	n/a	n/a	n/a	n/a	n/a	n/a
1163.396	n/a	REC_WORD	581698	wordpools/wasnorm_wordpool_less_exclusions.txt	LTP165	ltpFR	4	6	1	CREW	406	n/a	1	n/a	n/a	n/a	n/a	n/a
1164.36	n/a	REC_WORD	582180	wordpools/wasnorm_wordpool_less_exclusions.txt	LTP165	ltpFR	4	6	1	CACTUS	215	n/a	1	n/a	n/a	n/a	n/a	n/a
1165.602	n/a	REC_WORD	582801	wordpools/wasnorm_wordpool_less_exclusions.txt	LTP165	ltpFR	4	6	1	WATERFALL	1595	n/a	0	n/a	n/a	n/a	n/a	n/a
1166.688	n/a	REC_WORD	583344	wordpools/wasnorm_wordpool_less_exclusions.txt	LTP165	ltpFR	4	6	1	SKUNK	1321	n/a	1	n/a	n/a	n/a	n/a	n/a
1168.948	n/a	REC_WORD	584474	wordpools/wasnorm_wordpool_less_exclusions.txt	LTP165	ltpFR	4	6	1	TREE	1502	n/a	1	n/a	n/a	n/a	n/a	n/a
1188.48	n/a	REC_WORD	594240	wordpools/wasnorm_wordpool_less_exclusions.txt	LTP165	ltpFR	4	6	0	HAT	690	n/a	0	n/a	n/a	n/a	n/a	n/a
1201.772	n/a	REC_WORD	600886	wordpools/wasnorm_wordpool_less_exclusions.txt	LTP165	ltpFR	4	6	1	RIVER	1194	n/a	3	n/a	n/a	n/a	n/a	n/a
1241.402	n/a	WORD	620701	wordpools/wasnorm_wordpool_less_exclusions.txt	LTP165	ltpFR	4	7	-1	SWEATER	1419	n/a	-1	1	1.0	1.0	upper	../fonts/Verdana.ttf
1245.476	n/a	WORD	622738	wordpools/wasnorm_wordpool_less_exclusions.txt	LTP165	ltpFR	4	7	-1	POCKET	1093	n/a	-1	1	1.0	1.0	upper	../fonts/Verdana.ttf
1249.308	n/a	WORD	624654	wordpools/wasnorm_wordpool_less_exclusions.txt	LTP165	ltpFR	4	7	-1	TOTE	1487	n/a	-1	1	1.0	1.0	upper	../fonts/Verdana.ttf
1253.4	n/a	WORD	626700	wordpools/wasnorm_wordpool_less_exclusions.txt	LTP165	ltpFR	4	7	-1	CUFF	423	n/a	-1	1	1.0	1.0	upper	../fonts/Verdana.ttf
1257.44	n/a	WORD	628720	wordpools/wasnorm_wordpool_less_exclusions.txt	LTP165	ltpFR	4	7	-1	LABEL	790	n/a	-1	1	1.0	1.0	upper	../fonts/Verdana.ttf
1261.404	n/a	WORD	630702	wordpools/wasnorm_wordpool_less_exclusions.txt	LTP165	ltpFR	4	7	-1	POTTERY	1116	n/a	-1	1	1.0	1.0	upper	../fonts/Verdana.ttf
1265.354	n/a	WORD	632677	wordpools/wasnorm_wordpool_less_exclusions.txt	LTP165	ltpFR	4	7	-1	SINK	1309	n/a	-1	1	1.0	1.0	upper	../fonts/Verdana.ttf
1269.426	n/a	WORD	634713	wordpools/wasnorm_wordpool_less_exclusions.txt	LTP165	ltpFR	4	7	-1	CHIMPANZEE	302	n/a	-1	1	1.0	1.0	upper	../fonts/Verdana.ttf
1273.544	n/a	WORD	636772	wordpools/wasnorm_wordpool_less_exclusions.txt	LTP165	ltpFR	4	7	-1	APE	31	n/a	-1	1	1.0	1.0	upper	../fonts/Verdana.ttf
1277.55	n/a	WORD	638775	wordpools/wasnorm_wordpool_less_exclusions.txt	LTP165	ltpFR	4	7	-1	CELLO	268	n/a	-1	1	1.0	1.0	upper	../fonts/Verdana.ttf
1281.7	n/a	WORD	640850	wordpools/wasnorm_wordpool_less_exclusions.txt	LTP165	ltpFR	4	7	-1	PAD	998	n/a	-1	1	1.0	1.0	upper	../fonts/Verdana.ttf
1285.606	n/a	WORD	642803	wordpools/wasnorm_wordpool_less_exclusions.txt	LTP165	ltpFR	4	7	-1	ORCHESTRA	981	n/a	-1	1	1.0	1.0	upper	../fonts/Verdana.ttf
1289.538	n/a	WORD	644769	wordpools/wasnorm_wordpool_less_exclusions.txt	LTP165	ltpFR	4	7	-1	HANGER	687	n/a	-1	1	1.0	1.0	upper	../fonts/Verdana.ttf
1293.722	n/a	WORD	646861	wordpools/wasnorm_wordpool_less_exclusions.txt	LTP165	ltpFR	4	7	-1	CLAY	320	n/a	-1	1	1.0	1.0	upper	../fonts/Verdana.ttf
1297.678	n/a	WORD	648839	wordpools/wasnorm_wordpool_less_exclusions.txt	LTP165	ltpFR	4	7	-1	JUGGLER	763	n/a	-1	1	1.0	1.0	upper	../fonts/Verdana.ttf
1301.876	n/a	WORD	650938	wordpools/wasnorm_wordpool_less_exclusions.txt	LTP165	ltpFR	4	7	-1	ACTOR	5	n/a	-1	1	1.0	1.0	upper	../fonts/Verdana.ttf
1307.802	n/a	REC_START	653901	n/a	LTP165	ltpFR	4	7	n/a	n/a	n/a	n/a	n/a	n/a	n/a	n/a	n/a	n/a
1308.414	n/a	REC_WORD	654207	wordpools/wasnorm_wordpool_less_exclusions.txt	LTP165	ltpFR	4	7	-1	SWEATER	1419	n/a	-1	n/a	n/a	n/a	n/a	n/a
1309.174	n/a	REC_WORD	654587	wordpools/wasnorm_wordpool_less_exclusions.txt	LTP165	ltpFR	4	7	-1	POCKET	1093	n/a	-1	n/a	n/a	n/a	n/a	n/a
1309.844	n/a	REC_WORD	654922	wordpools/wasnorm_wordpool_less_exclusions.txt	LTP165	ltpFR	4	7	-1	LABEL	790	n/a	-1	n/a	n/a	n/a	n/a	n/a
1310.694	n/a	REC_WORD	655347	wordpools/wasnorm_wordpool_less_exclusions.txt	LTP165	ltpFR	4	7	-1	CUFF	423	n/a	-1	n/a	n/a	n/a	n/a	n/a
1311.404	n/a	REC_WORD	655702	wordpools/wasnorm_wordpool_less_exclusions.txt	LTP165	ltpFR	4	7	-1	CHIMPANZEE	302	n/a	-1	n/a	n/a	n/a	n/a	n/a
1312.404	n/a	REC_WORD_VV	656202	wordpools/wasnorm_wordpool_less_exclusions.txt	LTP165	ltpFR	4	7	n/a	<>	-1	n/a	n/a	n/a	n/a	n/a	n/a	n/a
1313.554	n/a	REC_WORD	656777	wordpools/wasnorm_wordpool_less_exclusions.txt	LTP165	ltpFR	4	7	-1	ACTOR	5	n/a	-1	n/a	n/a	n/a	n/a	n/a
1314.266	n/a	REC_WORD	657133	wordpools/wasnorm_wordpool_less_exclusions.txt	LTP165	ltpFR	4	7	-1	JUGGLER	763	n/a	-1	n/a	n/a	n/a	n/a	n/a
1315.424	n/a	REC_WORD	657712	wordpools/wasnorm_wordpool_less_exclusions.txt	LTP165	ltpFR	4	7	-1	PAD	998	n/a	-1	n/a	n/a	n/a	n/a	n/a
1324.888	n/a	REC_WORD	662444	wordpools/wasnorm_wordpool_less_exclusions.txt	LTP165	ltpFR	4	7	1	CREW	406	n/a	1	n/a	n/a	n/a	n/a	n/a
1338.114	n/a	REC_WORD	669057	wordpools/wasnorm_wordpool_less_exclusions.txt	LTP165	ltpFR	4	7	-1	LABEL	790	n/a	-1	n/a	n/a	n/a	n/a	n/a
1347.532	n/a	REC_WORD	673766	wordpools/wasnorm_wordpool_less_exclusions.txt	LTP165	ltpFR	4	7	-1	APE	31	n/a	-1	n/a	n/a	n/a	n/a	n/a
1360.674	n/a	REC_WORD	680337	wordpools/wasnorm_wordpool_less_exclusions.txt	LTP165	ltpFR	4	7	-1	ORCHESTRA	981	n/a	-1	n/a	n/a	n/a	n/a	n/a
1363.706	n/a	REC_WORD	681853	wordpools/wasnorm_wordpool_less_exclusions.txt	LTP165	ltpFR	4	7	-1	CELLO	268	n/a	-1	n/a	n/a	n/a	n/a	n/a
1386.71	n/a	WORD	693355	wordpools/wasnorm_wordpool_less_exclusions.txt	LTP165	ltpFR	4	8	-1	DESIGNER	451	n/a	-1	1	1.0	1.0	upper	../fonts/Verdana.ttf
1390.608	n/a	WORD	695304	wordpools/wasnorm_wordpool_less_exclusions.txt	LTP165	ltpFR	4	8	-1	RECEPTIONIST	1174	n/a	-1	1	1.0	1.0	upper	../fonts/Verdana.ttf
1394.464	n/a	WORD	697232	wordpools/wasnorm_wordpool_less_exclusions.txt	LTP165	ltpFR	4	8	-1	SEAGULL	1261	n/a	-1	1	1.0	1.0	upper	../fonts/Verdana.ttf
1398.304	n/a	WORD	699152	wordpools/wasnorm_wordpool_less_exclusions.txt	LTP165	ltpFR	4	8	-1	SPIT	1354	n/a	-1	1	1.0	1.0	upper	../fonts/Verdana.ttf
1402.33	n/a	WORD	701165	wordpools/wasnorm_wordpool_less_exclusions.txt	LTP165	ltpFR	4	8	-1	CUPBOARD	425	n/a	-1	1	1.0	1.0	upper	../fonts/Verdana.ttf
1406.42	n/a	WORD	703210	wordpools/wasnorm_wordpool_less_exclusions.txt	LTP165	ltpFR	4	8	-1	BAY	102	n/a	-1	1	1.0	1.0	upper	../fonts/Verdana.ttf
1410.452	n/a	WORD	705226	wordpools/wasnorm_wordpool_less_exclusions.txt	LTP165	ltpFR	4	8	-1	WAGON	1578	n/a	-1	1	1.0	1.0	upper	../fonts/Verdana.ttf
1414.624	n/a	WORD	707312	wordpools/wasnorm_wordpool_less_exclusions.txt	LTP165	ltpFR	4	8	-1	CAB	209	n/a	-1	1	1.0	1.0	upper	../fonts/Verdana.ttf
1418.682	n/a	WORD	709341	wordpools/wasnorm_wordpool_less_exclusions.txt	LTP165	ltpFR	4	8	-1	ALLIGATOR	16	n/a	-1	1	1.0	1.0	upper	../fonts/Verdana.ttf
1422.866	n/a	WORD	711433	wordpools/wasnorm_wordpool_less_exclusions.txt	LTP165	ltpFR	4	8	-1	SUN	1406	n/a	-1	1	1.0	1.0	upper	../fonts/Verdana.ttf
1426.872	n/a	WORD	713436	wordpools/wasnorm_wordpool_less_exclusions.txt	LTP165	ltpFR	4	8	-1	EARTH	515	n/a	-1	1	1.0	1.0	upper	../fonts/Verdana.ttf
1430.912	n/a	WORD	715456	wordpools/wasnorm_wordpool_less_exclusions.txt	LTP165	ltpFR	4	8	-1	RACK	1154	n/a	-1	1	1.0	1.0	upper	../fonts/Verdana.ttf
1434.928	n/a	WORD	717464	wordpools/wasnorm_wordpool_less_exclusions.txt	LTP165	ltpFR	4	8	-1	OUTFIT	988	n/a	-1	1	1.0	1.0	upper	../fonts/Verdana.ttf
1438.76	n/a	WORD	719380	wordpools/wasnorm_wordpool_less_exclusions.txt	LTP165	ltpFR	4	8	-1	SAUCER	1237	n/a	-1	1	1.0	1.0	upper	../fonts/Verdana.ttf
1442.902	n/a	WORD	721451	wordpools/wasnorm_wordpool_less_exclusions.txt	LTP165	ltpFR	4	8	-1	BAIT	70	n/a	-1	1	1.0	1.0	upper	../fonts/Verdana.ttf
1446.934	n/a	WORD	723467	wordpools/wasnorm_wordpool_less_exclusions.txt	LTP165	ltpFR	4	8	-1	NET	946	n/a	-1	1	1.0	1.0	upper	../fonts/Verdana.ttf
1452.74	n/a	REC_START	726370	n/a	LTP165	ltpFR	4	8	n/a	n/a	n/a	n/a	n/a	n/a	n/a	n/a	n/a	n/a
1453.362	n/a	REC_WORD	726681	wordpools/wasnorm_wordpool_less_exclusions.txt	LTP165	ltpFR	4	8	-1	DESIGNER	451	n/a	-1	n/a	n/a	n/a	n/a	n/a
1454.16	n/a	REC_WORD	727080	wordpools/wasnorm_wordpool_less_exclusions.txt	LTP165	ltpFR	4	8	-1	RECEPTIONIST	1174	n/a	-1	n/a	n/a	n/a	n/a	n/a
1455.16	n/a	REC_WORD_VV	727580	wordpools/wasnorm_wordpool_less_exclusions.txt	LTP165	ltpFR	4	8	n/a	<>	-1	n/a	n/a	n/a	n/a	n/a	n/a	n/a
1455.442	n/a	REC_WORD	727721	wordpools/wasnorm_wordpool_less_exclusions.txt	LTP165	ltpFR	4	8	-1	SEAGULL	1261	n/a	-1	n/a	n/a	n/a	n/a	n/a
1456.62	n/a	REC_WORD	728310	wordpools/wasnorm_wordpool_less_exclusions.txt	LTP165	ltpFR	4	8	-1	BAIT	70	n/a	-1	n/a	n/a	n/a	n/a	n/a
1495.884	n/a	REC_WORD	747942	wordpools/wasnorm_wordpool_less_exclusions.txt	LTP165	ltpFR	4	8	0	DAM	436	n/a	0	n/a	n/a	n/a	n/a	n/a
1500.898	n/a	REC_WORD	750449	wordpools/wasnorm_wordpool_less_exclusions.txt	LTP165	ltpFR	4	8	n/a	SCORE	-1	n/a	n/a	n/a	n/a	n/a	n/a	n/a
1513.704	n/a	REC_WORD	756852	wordpools/wasnorm_wordpool_less_exclusions.txt	LTP165	ltpFR	4	8	1	PANTHER	1009	n/a	1	n/a	n/a	n/a	n/a	n/a
1521.492	n/a	REC_WORD	760746	wordpools/wasnorm_wordpool_less_exclusions.txt	LTP165	ltpFR	4	8	-1	CUPBOARD	425	n/a	-1	n/a	n/a	n/a	n/a	n/a
1524.376	n/a	REC_WORD	762188	wordpools/wasnorm_wordpool_less_exclusions.txt	LTP165	ltpFR	4	8	0	KITCHEN	778	n/a	1	n/a	n/a	n/a	n/a	n/a
1530.724	n/a	WORD	765362	wordpools/wasnorm_wordpool_less_exclusions.txt	LTP165	ltpFR	4	9	-1	PIER	1063	n/a	-1	1	1.0	1.0	upper	../fonts/Verdana.ttf
1534.706	n/a	WORD	767353	wordpools/wasnorm_wordpool_less_exclusions.txt	LTP165	ltpFR	4	9	-1	RESTAURANT	1187	n/a	-1	1	1.0	1.0	upper	../fonts/Verdana.ttf
1538.798	n/a	WORD	769399	wordpools/wasnorm_wordpool_less_exclusions.txt	LTP165	ltpFR	4	9	-1	BRIDE	173	n/a	-1	1	1.0	1.0	upper	../fonts/Verdana.ttf
1542.628	n/a	WORD	771314	wordpools/wasnorm_wordpool_less_exclusions.txt	LTP165	ltpFR	4	9	-1	ROCKET	1202	n/a	-1	1	1.0	1.0	upper	../fonts/Verdana.ttf
1546.828	n/a	WORD	773414	wordpools/wasnorm_wordpool_less_exclusions.txt	LTP165	ltpFR	4	9	-1	DIVER	476	n/a	-1	1	1.0	1.0	upper	../fonts/Verdana.ttf
1550.902	n/a	WORD	775451	wordpools/wasnorm_wordpool_less_exclusions.txt	LTP165	ltpFR	4	9	-1	BANDIT	81	n/a	-1	1	1.0	1.0	upper	../fonts/Verdana.ttf
1555.068	n/a	WORD	777534	wordpools/wasnorm_wordpool_less_exclusions.txt	LTP165	ltpFR	4	9	-1	SUPPER	1411	n/a	-1	1	1.0	1.0	upper	../fonts/Verdana.ttf
1558.95	n/a	WORD	779475	wordpools/wasnorm_wordpool_less_exclusions.txt	LTP165	ltpFR	4	9	-1	TELESCOPE	1446	n/a	-1	1	1.0	1.0	upper	../fonts/Verdana.ttf
1562.964	n/a	WORD	781482	wordpools/wasnorm_wordpool_less_exclusions.txt	LTP165	ltpFR	4	9	-1	BUS	201	n/a	-1	1	1.0	1.0	upper	../fonts/Verdana.ttf
1566.864	n/a	WORD	783432	wordpools/wasnorm_wordpool_less_exclusions.txt	LTP165	ltpFR	4	9	-1	AUTOMOBILE	62	n/a	-1	1	1.0	1.0	upper	../fonts/Verdana.ttf
1571.012	n/a	WORD	785506	wordpools/wasnorm_wordpool_less_exclusions.txt	LTP165	ltpFR	4	9	-1	PRIMATE	1123	n/a	-1	1	1.0	1.0	upper	../fonts/Verdana.ttf
1575.094	n/a	WORD	787547	wordpools/wasnorm_wordpool_less_exclusions.txt	LTP165	ltpFR	4	9	-1	MAMMAL	861	n/a	-1	1	1.0	1.0	upper	../fonts/Verdana.ttf
1579.11	n/a	WORD	789555	wordpools/wasnorm_wordpool_less_exclusions.txt	LTP165	ltpFR	4	9	-1	OWL	992	n/a	-1	1	1.0	1.0	upper	../fonts/Verdana.ttf
1583.142	n/a	WORD	791571	wordpools/wasnorm_wordpool_less_exclusions.txt	LTP165	ltpFR	4	9	-1	MARGARINE	868	n/a	-1	1	1.0	1.0	upper	../fonts/Verdana.ttf
1587.14	n/a	WORD	793570	wordpools/wasnorm_wordpool_less_exclusions.txt	LTP165	ltpFR	4	9	-1	DAUGHTER	442	n/a	-1	1	1.0	1.0	upper	../fonts/Verdana.ttf
1591.348	n/a	WORD	795674	wordpools/wasnorm_wordpool_less_exclusions.txt	LTP165	ltpFR	4	9	-1	DAD	433	n/a	-1	1	1.0	1.0	upper	../fonts/Verdana.ttf
1597.214	n/a	REC_START	798607	n/a	LTP165	ltpFR	4	9	n/a	n/a	n/a	n/a	n/a	n/a	n/a	n/a	n/a	n/a
1597.812	n/a	REC_WORD	798906	wordpools/wasnorm_wordpool_less_exclusions.txt	LTP165	ltpFR	4	9	-1	DAUGHTER	442	n/a	-1	n/a	n/a	n/a	n/a	n/a
1598.366	n/a	REC_WORD	799183	wordpools/wasnorm_wordpool_less_exclusions.txt	LTP165	ltpFR	4	9	-1	DAD	433	n/a	-1	n/a	n/a	n/a	n/a	n/a
1598.96	n/a	REC_WORD	799480	wordpools/wasnorm_wordpool_less_exclusions.txt	LTP165	ltpFR	4	9	-1	PRIMATE	1123	n/a	-1	n/a	n/a	n/a	n/a	n/a
1600.332	n/a	REC_WORD	800166	wordpools/wasnorm_wordpool_less_exclusions.txt	LTP165	ltpFR	4	9	-1	PIER	1063	n/a	-1	n/a	n/a	n/a	n/a	n/a
1600.98	n/a	REC_WORD	800490	wordpools/wasnorm_wordpool_less_exclusions.txt	LTP165	ltpFR	4	9	-1	RESTAURANT	1187	n/a	-1	n/a	n/a	n/a	n/a	n/a
1601.828	n/a	REC_WORD	800914	wordpools/wasnorm_wordpool_less_exclusions.txt	LTP165	ltpFR	4	9	-1	SUPPER	1411	n/a	-1	n/a	n/a	n/a	n/a	n/a
1602.828	n/a	REC_WORD_VV	801414	wordpools/wasnorm_wordpool_less_exclusions.txt	LTP165	ltpFR	4	9	n/a	<>	-1	n/a	n/a	n/a	n/a	n/a	n/a	n/a
1604.716	n/a	REC_WORD	802358	wordpools/wasnorm_wordpool_less_exclusions.txt	LTP165	ltpFR	4	9	-1	MARGARINE	868	n/a	-1	n/a	n/a	n/a	n/a	n/a
1605.716	n/a	REC_WORD_VV	802858	wordpools/wasnorm_wordpool_less_exclusions.txt	LTP165	ltpFR	4	9	n/a	<>	-1	n/a	n/a	n/a	n/a	n/a	n/a	n/a
1615.224	n/a	REC_WORD	807612	wordpools/wasnorm_wordpool_less_exclusions.txt	LTP165	ltpFR	4	9	-1	DAUGHTER	442	n/a	-1	n/a	n/a	n/a	n/a	n/a
1628.774	n/a	REC_WORD	814387	wordpools/wasnorm_wordpool_less_exclusions.txt	LTP165	ltpFR	4	9	-1	RESTAURANT	1187	n/a	-1	n/a	n/a	n/a	n/a	n/a
1629.774	n/a	REC_WORD_VV	814887	wordpools/wasnorm_wordpool_less_exclusions.txt	LTP165	ltpFR	4	9	n/a	<>	-1	n/a	n/a	n/a	n/a	n/a	n/a	n/a
1636.146	n/a	REC_WORD	818073	wordpools/wasnorm_wordpool_less_exclusions.txt	LTP165	ltpFR	4	9	-1	BAIT	70	n/a	-1	n/a	n/a	n/a	n/a	n/a
1647.086	n/a	REC_WORD	823543	wordpools/wasnorm_wordpool_less_exclusions.txt	LTP165	ltpFR	4	9	-1	DAD	433	n/a	-1	n/a	n/a	n/a	n/a	n/a
1676.08	n/a	WORD	838040	wordpools/wasnorm_wordpool_less_exclusions.txt	LTP165	ltpFR	4	10	1	DEPUTY	450	n/a	1	0	0.5869140625	0.422607421875	lower	../fonts/zerothre.ttf
1680.188	n/a	WORD	840094	wordpools/wasnorm_wordpool_less_exclusions.txt	LTP165	ltpFR	4	10	1	GUARD	667	n/a	1	0	0.5869140625	0.422607421875	lower	../fonts/zerothre.ttf
1684.178	n/a	WORD	842089	wordpools/wasnorm_wordpool_less_exclusions.txt	LTP165	ltpFR	4	10	1	FIDDLE	561	n/a	0	0	0.5869140625	0.422607421875	lower	../fonts/zerothre.ttf
1688.028	n/a	WORD	844014	wordpools/wasnorm_wordpool_less_exclusions.txt	LTP165	ltpFR	4	10	0	WOMAN	1620	n/a	1	1	0.412841796875	0.57763671875	upper	../fonts/amplitud.ttf
1692.034	n/a	WORD	846017	wordpools/wasnorm_wordpool_less_exclusions.txt	LTP165	ltpFR	4	10	0	SHARK	1275	n/a	1	1	0.412841796875	0.57763671875	upper	../fonts/amplitud.ttf
1696.04	n/a	WORD	848020	wordpools/wasnorm_wordpool_less_exclusions.txt	LTP165	ltpFR	4	10	0	TURKEY	1520	n/a	0	1	0.412841796875	0.57763671875	upper	../fonts/amplitud.ttf
1699.99	n/a	WORD	849995	wordpools/wasnorm_wordpool_less_exclusions.txt	LTP165	ltpFR	4	10	1	WAX	1597	n/a	1	0	0.5869140625	0.422607421875	lower	../fonts/zerothre.ttf
1704.156	n/a	WORD	852078	wordpools/wasnorm_wordpool_less_exclusions.txt	LTP165	ltpFR	4	10	1	WHISKERS	1605	n/a	0	0	0.5869140625	0.422607421875	lower	../fonts/zerothre.ttf
1708.188	n/a	WORD	854094	wordpools/wasnorm_wordpool_less_exclusions.txt	LTP165	ltpFR	4	10	0	CITIZEN	312	n/a	1	1	0.412841796875	0.57763671875	upper	../fonts/amplitud.ttf
1712.262	n/a	WORD	856131	wordpools/wasnorm_wordpool_less_exclusions.txt	LTP165	ltpFR	4	10	0	PERSON	1052	n/a	1	1	0.412841796875	0.57763671875	upper	../fonts/amplitud.ttf
1716.268	n/a	WORD	858134	wordpools/wasnorm_wordpool_less_exclusions.txt	LTP165	ltpFR	4	10	0	RECEIPT	1173	n/a	0	1	0.412841796875	0.57763671875	upper	../fonts/amplitud.ttf
1720.158	n/a	WORD	860079	wordpools/wasnorm_wordpool_less_exclusions.txt	LTP165	ltpFR	4	10	0	LIST	830	n/a	0	1	0.412841796875	0.57763671875	upper	../fonts/amplitud.ttf
1724.116	n/a	WORD	862058	wordpools/wasnorm_wordpool_less_exclusions.txt	LTP165	ltpFR	4	10	0	CHEST	295	n/a	0	1	0.412841796875	0.57763671875	upper	../fonts/amplitud.ttf
1728.014	n/a	WORD	864007	wordpools/wasnorm_wordpool_less_exclusions.txt	LTP165	ltpFR	4	10	1	LIP	828	n/a	1	0	0.5869140625	0.422607421875	lower	../fonts/zerothre.ttf
1731.872	n/a	WORD	865936	wordpools/wasnorm_wordpool_less_exclusions.txt	LTP165	ltpFR	4	10	1	LADY	794	n/a	1	0	0.5869140625	0.422607421875	lower	../fonts/zerothre.ttf
1735.854	n/a	WORD	867927	wordpools/wasnorm_wordpool_less_exclusions.txt	LTP165	ltpFR	4	10	1	BRUNETTE	181	n/a	1	0	0.5869140625	0.422607421875	lower	../fonts/zerothre.ttf
1741.728	n/a	REC_START	870864	n/a	LTP165	ltpFR	4	10	n/a	n/a	n/a	n/a	n/a	n/a	n/a	n/a	n/a	n/a
1742.416	n/a	REC_WORD	871208	wordpools/wasnorm_wordpool_less_exclusions.txt	LTP165	ltpFR	4	10	1	LIP	828	n/a	1	n/a	n/a	n/a	n/a	n/a
1742.92	n/a	REC_WORD	871460	wordpools/wasnorm_wordpool_less_exclusions.txt	LTP165	ltpFR	4	10	1	LADY	794	n/a	1	n/a	n/a	n/a	n/a	n/a
1743.818	n/a	REC_WORD	871909	wordpools/wasnorm_wordpool_less_exclusions.txt	LTP165	ltpFR	4	10	1	BRUNETTE	181	n/a	1	n/a	n/a	n/a	n/a	n/a
1744.696	n/a	REC_WORD	872348	wordpools/wasnorm_wordpool_less_exclusions.txt	LTP165	ltpFR	4	10	0	PERSON	1052	n/a	1	n/a	n/a	n/a	n/a	n/a
1745.696	n/a	REC_WORD_VV	872848	wordpools/wasnorm_wordpool_less_exclusions.txt	LTP165	ltpFR	4	10	n/a	<>	-1	n/a	n/a	n/a	n/a	n/a	n/a	n/a
1757.348	n/a	REC_WORD	878674	wordpools/wasnorm_wordpool_less_exclusions.txt	LTP165	ltpFR	4	10	1	DEPUTY	450	n/a	1	n/a	n/a	n/a	n/a	n/a
1769.242	n/a	REC_WORD	884621	wordpools/wasnorm_wordpool_less_exclusions.txt	LTP165	ltpFR	4	10	1	DINER	467	n/a	0	n/a	n/a	n/a	n/a	n/a
1804.724	n/a	REC_WORD	902362	wordpools/wasnorm_wordpool_less_exclusions.txt	LTP165	ltpFR	4	10	0	RECEIPT	1173	n/a	0	n/a	n/a	n/a	n/a	n/a
1810.864	n/a	REC_WORD	905432	wordpools/wasnorm_wordpool_less_exclusions.txt	LTP165	ltpFR	4	10	0	LIST	830	n/a	0	n/a	n/a	n/a	n/a	n/a
1820.352	n/a	WORD	910176	wordpools/wasnorm_wordpool_less_exclusions.txt	LTP165	ltpFR	4	11	1	PUDDLE	1140	n/a	0	0	0.5869140625	0.422607421875	lower	../fonts/zerothre.ttf
1824.244	n/a	WORD	912122	wordpools/wasnorm_wordpool_less_exclusions.txt	LTP165	ltpFR	4	11	1	GREASE	660	n/a	0	0	0.5869140625	0.422607421875	lower	../fonts/zerothre.ttf
1828.284	n/a	WORD	914142	wordpools/wasnorm_wordpool_less_exclusions.txt	LTP165	ltpFR	4	11	1	OPERATOR	979	n/a	1	0	0.5869140625	0.422607421875	lower	../fonts/zerothre.ttf
1832.142	n/a	WORD	916071	wordpools/wasnorm_wordpool_less_exclusions.txt	LTP165	ltpFR	4	11	1	CAULIFLOWER	262	n/a	0	0	0.5869140625	0.422607421875	lower	../fonts/zerothre.ttf
1836.166	n/a	WORD	918083	wordpools/wasnorm_wordpool_less_exclusions.txt	LTP165	ltpFR	4	11	1	CHIPMUNK	304	n/a	0	0	0.5869140625	0.422607421875	lower	../fonts/zerothre.ttf
1840.33	n/a	WORD	920165	wordpools/wasnorm_wordpool_less_exclusions.txt	LTP165	ltpFR	4	11	1	DIME	466	n/a	1	0	0.5869140625	0.422607421875	lower	../fonts/zerothre.ttf
1844.18	n/a	WORD	922090	wordpools/wasnorm_wordpool_less_exclusions.txt	LTP165	ltpFR	4	11	1	TURNIP	1521	n/a	0	0	0.5869140625	0.422607421875	lower	../fonts/zerothre.ttf
1848.36	n/a	WORD	924180	wordpools/wasnorm_wordpool_less_exclusions.txt	LTP165	ltpFR	4	11	1	BEAVER	109	n/a	0	0	0.5869140625	0.422607421875	lower	../fonts/zerothre.ttf
1852.358	n/a	WORD	926179	wordpools/wasnorm_wordpool_less_exclusions.txt	LTP165	ltpFR	4	11	1	TOAST	1471	n/a	1	0	0.5869140625	0.422607421875	lower	../fonts/zerothre.ttf
1856.302	n/a	WORD	928151	wordpools/wasnorm_wordpool_less_exclusions.txt	LTP165	ltpFR	4	11	1	FARM	552	n/a	0	0	0.5869140625	0.422607421875	lower	../fonts/zerothre.ttf
1860.166	n/a	WORD	930083	wordpools/wasnorm_wordpool_less_exclusions.txt	LTP165	ltpFR	4	11	1	BISON	131	n/a	1	0	0.5869140625	0.422607421875	lower	../fonts/zerothre.ttf
1864.106	n/a	WORD	932053	wordpools/wasnorm_wordpool_less_exclusions.txt	LTP165	ltpFR	4	11	1	VEGETABLE	1552	n/a	1	0	0.5869140625	0.422607421875	lower	../fonts/zerothre.ttf
1868.046	n/a	WORD	934023	wordpools/wasnorm_wordpool_less_exclusions.txt	LTP165	ltpFR	4	11	1	BEER	114	n/a	0	0	0.5869140625	0.422607421875	lower	../fonts/zerothre.ttf
1872.054	n/a	WORD	936027	wordpools/wasnorm_wordpool_less_exclusions.txt	LTP165	ltpFR	4	11	1	COCKTAIL	338	n/a	0	0	0.5869140625	0.422607421875	lower	../fonts/zerothre.ttf
1876.196	n/a	WORD	938098	wordpools/wasnorm_wordpool_less_exclusions.txt	LTP165	ltpFR	4	11	1	RASPBERRY	1168	n/a	1	0	0.5869140625	0.422607421875	lower	../fonts/zerothre.ttf
1880.028	n/a	WORD	940014	wordpools/wasnorm_wordpool_less_exclusions.txt	LTP165	ltpFR	4	11	1	CABINET	212	n/a	0	0	0.5869140625	0.422607421875	lower	../fonts/zerothre.ttf
1885.726	n/a	REC_START	942863	n/a	LTP165	ltpFR	4	11	n/a	n/a	n/a	n/a	n/a	n/a	n/a	n/a	n/a	n/a
1886.758	n/a	REC_WORD	943379	wordpools/wasnorm_wordpool_less_exclusions.txt	LTP165	ltpFR	4	11	1	CAULIFLOWER	262	n/a	0	n/a	n/a	n/a	n/a	n/a
1887.78	n/a	REC_WORD	943890	wordpools/wasnorm_wordpool_less_exclusions.txt	LTP165	ltpFR	4	11	1	COCKTAIL	338	n/a	0	n/a	n/a	n/a	n/a	n/a
1888.884	n/a	REC_WORD	944442	wordpools/wasnorm_wordpool_less_exclusions.txt	LTP165	ltpFR	4	11	1	RASPBERRY	1168	n/a	1	n/a	n/a	n/a	n/a	n/a
1889.884	n/a	REC_WORD_VV	944942	wordpools/wasnorm_wordpool_less_exclusions.txt	LTP165	ltpFR	4	11	n/a	<>	-1	n/a	n/a	n/a	n/a	n/a	n/a	n/a
1892.096	n/a	REC_WORD	946048	wordpools/wasnorm_wordpool_less_exclusions.txt	LTP165	ltpFR	4	11	1	CABINET	212	n/a	0	n/a	n/a	n/a	n/a	n/a
1897.808	n/a	REC_WORD	948904	wordpools/wasnorm_wordpool_less_exclusions.txt	LTP165	ltpFR	4	11	1	BEER	114	n/a	0	n/a	n/a	n/a	n/a	n/a
1907.356	n/a	REC_WORD	953678	wordpools/wasnorm_wordpool_less_exclusions.txt	LTP165	ltpFR	4	11	1	PUDDLE	1140	n/a	0	n/a	n/a	n/a	n/a	n/a
1908.186	n/a	REC_WORD	954093	wordpools/wasnorm_wordpool_less_exclusions.txt	LTP165	ltpFR	4	11	1	GREASE	660	n/a	0	n/a	n/a	n/a	n/a	n/a
1912.098	n/a	REC_WORD	956049	wordpools/wasnorm_wordpool_less_exclusions.txt	LTP165	ltpFR	4	11	1	OPERATOR	979	n/a	1	n/a	n/a	n/a	n/a	n/a
1914.782	n/a	REC_WORD	957391	wordpools/wasnorm_wordpool_less_exclusions.txt	LTP165	ltpFR	4	11	1	BISON	131	n/a	1	n/a	n/a	n/a	n/a	n/a
1916.736	n/a	REC_WORD	958368	wordpools/wasnorm_wordpool_less_exclusions.txt	LTP165	ltpFR	4	11	1	CHIPMUNK	304	n/a	0	n/a	n/a	n/a	n/a	n/a
1964.126	n/a	WORD	982063	wordpools/wasnorm_wordpool_less_exclusions.txt	LTP165	ltpFR	4	12	-1	FEAST	556	n/a	-1	1	1.0	1.0	upper	../fonts/Verdana.ttf
1968.258	n/a	WORD	984129	wordpools/wasnorm_wordpool_less_exclusions.txt	LTP165	ltpFR	4	12	-1	GALAXY	617	n/a	-1	1	1.0	1.0	upper	../fonts/Verdana.ttf
1972.316	n/a	WORD	986158	wordpools/wasnorm_wordpool_less_exclusions.txt	LTP165	ltpFR	4	12	-1	ASTEROID	50	n/a	-1	1	1.0	1.0	upper	../fonts/Verdana.ttf
1976.256	n/a	WORD	988128	wordpools/wasnorm_wordpool_less_exclusions.txt	LTP165	ltpFR	4	12	-1	TUB	1514	n/a	-1	1	1.0	1.0	upper	../fonts/Verdana.ttf
1980.104	n/a	WORD	990052	wordpools/wasnorm_wordpool_less_exclusions.txt	LTP165	ltpFR	4	12	-1	MOAT	903	n/a	-1	1	1.0	1.0	upper	../fonts/Verdana.ttf
1983.962	n/a	WORD	991981	wordpools/wasnorm_wordpool_less_exclusions.txt	LTP165	ltpFR	4	12	-1	CASTLE	256	n/a	-1	1	1.0	1.0	upper	../fonts/Verdana.ttf
1987.82	n/a	WORD	993910	wordpools/wasnorm_wordpool_less_exclusions.txt	LTP165	ltpFR	4	12	-1	GUM	672	n/a	-1	1	1.0	1.0	upper	../fonts/Verdana.ttf
1991.736	n/a	WORD	995868	wordpools/wasnorm_wordpool_less_exclusions.txt	LTP165	ltpFR	4	12	-1	JAM	748	n/a	-1	1	1.0	1.0	upper	../fonts/Verdana.ttf
1995.55	n/a	WORD	997775	wordpools/wasnorm_wordpool_less_exclusions.txt	LTP165	ltpFR	4	12	-1	RIBBON	1189	n/a	-1	1	1.0	1.0	upper	../fonts/Verdana.ttf
1999.572	n/a	WORD	999786	wordpools/wasnorm_wordpool_less_exclusions.txt	LTP165	ltpFR	4	12	-1	PAINT	1003	n/a	-1	1	1.0	1.0	upper	../fonts/Verdana.ttf
2003.488	n/a	WORD	1001744	wordpools/wasnorm_wordpool_less_exclusions.txt	LTP165	ltpFR	4	12	-1	HURRICANE	727	n/a	-1	1	1.0	1.0	upper	../fonts/Verdana.ttf
2007.372	n/a	WORD	1003686	wordpools/wasnorm_wordpool_less_exclusions.txt	LTP165	ltpFR	4	12	-1	WASHCLOTH	1591	n/a	-1	1	1.0	1.0	upper	../fonts/Verdana.ttf
2011.52	n/a	WORD	1005760	wordpools/wasnorm_wordpool_less_exclusions.txt	LTP165	ltpFR	4	12	-1	JELLY	755	n/a	-1	1	1.0	1.0	upper	../fonts/Verdana.ttf
2015.402	n/a	WORD	1007701	wordpools/wasnorm_wordpool_less_exclusions.txt	LTP165	ltpFR	4	12	-1	CROOK	412	n/a	-1	1	1.0	1.0	upper	../fonts/Verdana.ttf
2019.492	n/a	WORD	1009746	wordpools/wasnorm_wordpool_less_exclusions.txt	LTP165	ltpFR	4	12	-1	ASSISTANT	48	n/a	-1	1	1.0	1.0	upper	../fonts/Verdana.ttf
2023.566	n/a	WORD	1011783	wordpools/wasnorm_wordpool_less_exclusions.txt	LTP165	ltpFR	4	12	-1	PASTRY	1022	n/a	-1	1	1.0	1.0	upper	../fonts/Verdana.ttf
2029.664	n/a	REC_START	1014832	n/a	LTP165	ltpFR	4	12	n/a	n/a	n/a	n/a	n/a	n/a	n/a	n/a	n/a	n/a
2029.914	n/a	REC_WORD	1014957	wordpools/wasnorm_wordpool_less_exclusions.txt	LTP165	ltpFR	4	12	-1	MOAT	903	n/a	-1	n/a	n/a	n/a	n/a	n/a
2030.442	n/a	REC_WORD	1015221	wordpools/wasnorm_wordpool_less_exclusions.txt	LTP165	ltpFR	4	12	-1	CASTLE	256	n/a	-1	n/a	n/a	n/a	n/a	n/a
2031.18	n/a	REC_WORD	1015590	wordpools/wasnorm_wordpool_less_exclusions.txt	LTP165	ltpFR	4	12	-1	JAM	748	n/a	-1	n/a	n/a	n/a	n/a	n/a
2031.77	n/a	REC_WORD	1015885	wordpools/wasnorm_wordpool_less_exclusions.txt	LTP165	ltpFR	4	12	-1	JELLY	755	n/a	-1	n/a	n/a	n/a	n/a	n/a
2032.642	n/a	REC_WORD	1016321	wordpools/wasnorm_wordpool_less_exclusions.txt	LTP165	ltpFR	4	12	-1	PASTRY	1022	n/a	-1	n/a	n/a	n/a	n/a	n/a
2033.566	n/a	REC_WORD	1016783	wordpools/wasnorm_wordpool_less_exclusions.txt	LTP165	ltpFR	4	12	n/a	COOK	372	n/a	n/a	n/a	n/a	n/a	n/a	n/a
2035.82	n/a	REC_WORD_VV	1017910	wordpools/wasnorm_wordpool_less_exclusions.txt	LTP165	ltpFR	4	12	n/a	<>	-1	n/a	n/a	n/a	n/a	n/a	n/a	n/a
2039.422	n/a	REC_WORD	1019711	wordpools/wasnorm_wordpool_less_exclusions.txt	LTP165	ltpFR	4	12	-1	GALAXY	617	n/a	-1	n/a	n/a	n/a	n/a	n/a
2040.34	n/a	REC_WORD	1020170	wordpools/wasnorm_wordpool_less_exclusions.txt	LTP165	ltpFR	4	12	-1	ASTEROID	50	n/a	-1	n/a	n/a	n/a	n/a	n/a
2054.064	n/a	REC_WORD	1027032	wordpools/wasnorm_wordpool_less_exclusions.txt	LTP165	ltpFR	4	12	-1	TUB	1514	n/a	-1	n/a	n/a	n/a	n/a	n/a
2062.93	n/a	REC_WORD	1031465	wordpools/wasnorm_wordpool_less_exclusions.txt	LTP165	ltpFR	4	12	-1	MOAT	903	n/a	-1	n/a	n/a	n/a	n/a	n/a
2064.342	n/a	REC_WORD	1032171	wordpools/wasnorm_wordpool_less_exclusions.txt	LTP165	ltpFR	4	12	-1	CASTLE	256	n/a	-1	n/a	n/a	n/a	n/a	n/a
2105.25	n/a	REST_REWET	1052625	n/a	LTP165	ltpFR	4	12	n/a	n/a	n/a	n/a	n/a	n/a	n/a	n/a	n/a	n/a
2467.79	n/a	WORD	1233895	wordpools/wasnorm_wordpool_less_exclusions.txt	LTP165	ltpFR	4	13	0	ENCYCLOPEDIA	533	n/a	1	1	0.412841796875	0.57763671875	upper	../fonts/amplitud.ttf
2471.622	n/a	WORD	1235811	wordpools/wasnorm_wordpool_less_exclusions.txt	LTP165	ltpFR	4	13	0	SUBMARINE	1398	n/a	1	1	0.412841796875	0.57763671875	upper	../fonts/amplitud.ttf
2475.796	n/a	WORD	1237898	wordpools/wasnorm_wordpool_less_exclusions.txt	LTP165	ltpFR	4	13	0	BROCCOLI	176	n/a	0	1	0.412841796875	0.57763671875	upper	../fonts/amplitud.ttf
2479.888	n/a	WORD	1239944	wordpools/wasnorm_wordpool_less_exclusions.txt	LTP165	ltpFR	4	13	0	CANARY	227	n/a	0	1	0.412841796875	0.57763671875	upper	../fonts/amplitud.ttf
2483.786	n/a	WORD	1241893	wordpools/wasnorm_wordpool_less_exclusions.txt	LTP165	ltpFR	4	13	0	MACHINE	852	n/a	1	1	0.412841796875	0.57763671875	upper	../fonts/amplitud.ttf
2487.726	n/a	WORD	1243863	wordpools/wasnorm_wordpool_less_exclusions.txt	LTP165	ltpFR	4	13	0	ARCHITECT	36	n/a	1	1	0.412841796875	0.57763671875	upper	../fonts/amplitud.ttf
2491.924	n/a	WORD	1245962	wordpools/wasnorm_wordpool_less_exclusions.txt	LTP165	ltpFR	4	13	0	FORK	594	n/a	0	1	0.412841796875	0.57763671875	upper	../fonts/amplitud.ttf
2495.766	n/a	WORD	1247883	wordpools/wasnorm_wordpool_less_exclusions.txt	LTP165	ltpFR	4	13	0	CABBAGE	210	n/a	0	1	0.412841796875	0.57763671875	upper	../fonts/amplitud.ttf
2499.914	n/a	WORD	1249957	wordpools/wasnorm_wordpool_less_exclusions.txt	LTP165	ltpFR	4	13	0	DOVE	491	n/a	0	1	0.412841796875	0.57763671875	upper	../fonts/amplitud.ttf
2503.814	n/a	WORD	1251907	wordpools/wasnorm_wordpool_less_exclusions.txt	LTP165	ltpFR	4	13	0	ROBIN	1199	n/a	0	1	0.412841796875	0.57763671875	upper	../fonts/amplitud.ttf
2507.928	n/a	WORD	1253964	wordpools/wasnorm_wordpool_less_exclusions.txt	LTP165	ltpFR	4	13	0	WELL	1600	n/a	1	1	0.412841796875	0.57763671875	upper	../fonts/amplitud.ttf
2511.91	n/a	WORD	1255955	wordpools/wasnorm_wordpool_less_exclusions.txt	LTP165	ltpFR	4	13	0	ROD	1203	n/a	0	1	0.412841796875	0.57763671875	upper	../fonts/amplitud.ttf
2516.034	n/a	WORD	1258017	wordpools/wasnorm_wordpool_less_exclusions.txt	LTP165	ltpFR	4	13	0	DIAMOND	458	n/a	0	1	0.412841796875	0.57763671875	upper	../fonts/amplitud.ttf
2519.926	n/a	WORD	1259963	wordpools/wasnorm_wordpool_less_exclusions.txt	LTP165	ltpFR	4	13	0	MEDAL	885	n/a	0	1	0.412841796875	0.57763671875	upper	../fonts/amplitud.ttf
2524.066	n/a	WORD	1262033	wordpools/wasnorm_wordpool_less_exclusions.txt	LTP165	ltpFR	4	13	0	THORN	1459	n/a	0	1	0.412841796875	0.57763671875	upper	../fonts/amplitud.ttf
2527.948	n/a	WORD	1263974	wordpools/wasnorm_wordpool_less_exclusions.txt	LTP165	ltpFR	4	13	0	LILY	821	n/a	0	1	0.412841796875	0.57763671875	upper	../fonts/amplitud.ttf
2533.638	n/a	REC_START	1266819	n/a	LTP165	ltpFR	4	13	n/a	n/a	n/a	n/a	n/a	n/a	n/a	n/a	n/a	n/a
2534.534	n/a	REC_WORD	1267267	wordpools/wasnorm_wordpool_less_exclusions.txt	LTP165	ltpFR	4	13	0	THORN	1459	n/a	0	n/a	n/a	n/a	n/a	n/a
2535.144	n/a	REC_WORD	1267572	wordpools/wasnorm_wordpool_less_exclusions.txt	LTP165	ltpFR	4	13	0	LILY	821	n/a	0	n/a	n/a	n/a	n/a	n/a
2535.878	n/a	REC_WORD	1267939	wordpools/wasnorm_wordpool_less_exclusions.txt	LTP165	ltpFR	4	13	0	CANARY	227	n/a	0	n/a	n/a	n/a	n/a	n/a
2536.656	n/a	REC_WORD	1268328	wordpools/wasnorm_wordpool_less_exclusions.txt	LTP165	ltpFR	4	13	0	ROBIN	1199	n/a	0	n/a	n/a	n/a	n/a	n/a
2537.688	n/a	REC_WORD	1268844	wordpools/wasnorm_wordpool_less_exclusions.txt	LTP165	ltpFR	4	13	0	DOVE	491	n/a	0	n/a	n/a	n/a	n/a	n/a
2538.62	n/a	REC_WORD	1269310	wordpools/wasnorm_wordpool_less_exclusions.txt	LTP165	ltpFR	4	13	0	DIAMOND	458	n/a	0	n/a	n/a	n/a	n/a	n/a
2539.62	n/a	REC_WORD_VV	1269810	wordpools/wasnorm_wordpool_less_exclusions.txt	LTP165	ltpFR	4	13	n/a	<>	-1	n/a	n/a	n/a	n/a	n/a	n/a	n/a
2539.762	n/a	REC_WORD	1269881	wordpools/wasnorm_wordpool_less_exclusions.txt	LTP165	ltpFR	4	13	0	WELL	1600	n/a	1	n/a	n/a	n/a	n/a	n/a
2543.406	n/a	REC_WORD	1271703	wordpools/wasnorm_wordpool_less_exclusions.txt	LTP165	ltpFR	4	13	0	ARCHITECT	36	n/a	1	n/a	n/a	n/a	n/a	n/a
2544.406	n/a	REC_WORD_VV	1272203	wordpools/wasnorm_wordpool_less_exclusions.txt	LTP165	ltpFR	4	13	n/a	<>	-1	n/a	n/a	n/a	n/a	n/a	n/a	n/a
2545.61	n/a	REC_WORD	1272805	wordpools/wasnorm_wordpool_less_exclusions.txt	LTP165	ltpFR	4	13	0	SUBMARINE	1398	n/a	1	n/a	n/a	n/a	n/a	n/a
2546.61	n/a	REC_WORD_VV	1273305	wordpools/wasnorm_wordpool_less_exclusions.txt	LTP165	ltpFR	4	13	n/a	<>	-1	n/a	n/a	n/a	n/a	n/a	n/a	n/a
2549.85	n/a	REC_WORD	1274925	wordpools/wasnorm_wordpool_less_exclusions.txt	LTP165	ltpFR	4	13	0	CABBAGE	210	n/a	0	n/a	n/a	n/a	n/a	n/a
2550.952	n/a	REC_WORD	1275476	wordpools/wasnorm_wordpool_less_exclusions.txt	LTP165	ltpFR	4	13	0	BROCCOLI	176	n/a	0	n/a	n/a	n/a	n/a	n/a
2553.928	n/a	REC_WORD	1276964	wordpools/wasnorm_wordpool_less_exclusions.txt	LTP165	ltpFR	4	13	1	CAULIFLOWER	262	n/a	0	n/a	n/a	n/a	n/a	n/a
2554.928	n/a	REC_WORD_VV	1277464	wordpools/wasnorm_wordpool_less_exclusions.txt	LTP165	ltpFR	4	13	n/a	<>	-1	n/a	n/a	n/a	n/a	n/a	n/a	n/a
2575.584	n/a	REC_WORD	1287792	wordpools/wasnorm_wordpool_less_exclusions.txt	LTP165	ltpFR	4	13	0	ENCYCLOPEDIA	533	n/a	1	n/a	n/a	n/a	n/a	n/a
2576.584	n/a	REC_WORD_VV	1288292	wordpools/wasnorm_wordpool_less_exclusions.txt	LTP165	ltpFR	4	13	n/a	<>	-1	n/a	n/a	n/a	n/a	n/a	n/a	n/a
2606.52	n/a	REC_WORD	1303260	wordpools/wasnorm_wordpool_less_exclusions.txt	LTP165	ltpFR	4	13	0	THORN	1459	n/a	0	n/a	n/a	n/a	n/a	n/a
2612.472	n/a	WORD	1306236	wordpools/wasnorm_wordpool_less_exclusions.txt	LTP165	ltpFR	4	14	1	GRILL	661	n/a	0	0	0.5869140625	0.422607421875	lower	../fonts/zerothre.ttf
2616.512	n/a	WORD	1308256	wordpools/wasnorm_wordpool_less_exclusions.txt	LTP165	ltpFR	4	14	1	CHARCOAL	281	n/a	0	0	0.5869140625	0.422607421875	lower	../fonts/zerothre.ttf
2620.618	n/a	WORD	1310309	wordpools/wasnorm_wordpool_less_exclusions.txt	LTP165	ltpFR	4	14	1	CITY	314	n/a	0	0	0.5869140625	0.422607421875	lower	../fonts/zerothre.ttf
2624.568	n/a	WORD	1312284	wordpools/wasnorm_wordpool_less_exclusions.txt	LTP165	ltpFR	4	14	1	HAMBURGER	679	n/a	0	0	0.5869140625	0.422607421875	lower	../fonts/zerothre.ttf
2628.408	n/a	WORD	1314204	wordpools/wasnorm_wordpool_less_exclusions.txt	LTP165	ltpFR	4	14	1	GUEST	669	n/a	1	0	0.5869140625	0.422607421875	lower	../fonts/zerothre.ttf
2632.466	n/a	WORD	1316233	wordpools/wasnorm_wordpool_less_exclusions.txt	LTP165	ltpFR	4	14	1	HUT	729	n/a	0	0	0.5869140625	0.422607421875	lower	../fonts/zerothre.ttf
2636.406	n/a	WORD	1318203	wordpools/wasnorm_wordpool_less_exclusions.txt	LTP165	ltpFR	4	14	1	TUXEDO	1525	n/a	0	0	0.5869140625	0.422607421875	lower	../fonts/zerothre.ttf
2640.37	n/a	WORD	1320185	wordpools/wasnorm_wordpool_less_exclusions.txt	LTP165	ltpFR	4	14	1	SUIT	1402	n/a	0	0	0.5869140625	0.422607421875	lower	../fonts/zerothre.ttf
2644.552	n/a	WORD	1322276	wordpools/wasnorm_wordpool_less_exclusions.txt	LTP165	ltpFR	4	14	1	METEOR	889	n/a	0	0	0.5869140625	0.422607421875	lower	../fonts/zerothre.ttf
2648.528	n/a	WORD	1324264	wordpools/wasnorm_wordpool_less_exclusions.txt	LTP165	ltpFR	4	14	1	STAR	1373	n/a	0	0	0.5869140625	0.422607421875	lower	../fonts/zerothre.ttf
2652.542	n/a	WORD	1326271	wordpools/wasnorm_wordpool_less_exclusions.txt	LTP165	ltpFR	4	14	1	SUGAR	1401	n/a	0	0	0.5869140625	0.422607421875	lower	../fonts/zerothre.ttf
2656.59	n/a	WORD	1328295	wordpools/wasnorm_wordpool_less_exclusions.txt	LTP165	ltpFR	4	14	1	ROOSTER	1209	n/a	1	0	0.5869140625	0.422607421875	lower	../fonts/zerothre.ttf
2660.598	n/a	WORD	1330299	wordpools/wasnorm_wordpool_less_exclusions.txt	LTP165	ltpFR	4	14	1	PELICAN	1039	n/a	1	0	0.5869140625	0.422607421875	lower	../fonts/zerothre.ttf
2664.722	n/a	WORD	1332361	wordpools/wasnorm_wordpool_less_exclusions.txt	LTP165	ltpFR	4	14	1	CINNAMON	310	n/a	0	0	0.5869140625	0.422607421875	lower	../fonts/zerothre.ttf
2668.906	n/a	WORD	1334453	wordpools/wasnorm_wordpool_less_exclusions.txt	LTP165	ltpFR	4	14	1	SUPERVISOR	1410	n/a	1	0	0.5869140625	0.422607421875	lower	../fonts/zerothre.ttf
2672.744	n/a	WORD	1336372	wordpools/wasnorm_wordpool_less_exclusions.txt	LTP165	ltpFR	4	14	1	BRACES	164	n/a	0	0	0.5869140625	0.422607421875	lower	../fonts/zerothre.ttf
2678.484	n/a	REC_START	1339242	n/a	LTP165	ltpFR	4	14	n/a	n/a	n/a	n/a	n/a	n/a	n/a	n/a	n/a	n/a
2679.282	n/a	REC_WORD	1339641	wordpools/wasnorm_wordpool_less_exclusions.txt	LTP165	ltpFR	4	14	1	SUPERVISOR	1410	n/a	1	n/a	n/a	n/a	n/a	n/a
2680.282	n/a	REC_WORD_VV	1340141	wordpools/wasnorm_wordpool_less_exclusions.txt	LTP165	ltpFR	4	14	n/a	<>	-1	n/a	n/a	n/a	n/a	n/a	n/a	n/a
2680.63	n/a	REC_WORD	1340315	wordpools/wasnorm_wordpool_less_exclusions.txt	LTP165	ltpFR	4	14	1	BRACES	164	n/a	0	n/a	n/a	n/a	n/a	n/a
2681.568	n/a	REC_WORD	1340784	wordpools/wasnorm_wordpool_less_exclusions.txt	LTP165	ltpFR	4	14	1	STAR	1373	n/a	0	n/a	n/a	n/a	n/a	n/a
2682.14	n/a	REC_WORD	1341070	wordpools/wasnorm_wordpool_less_exclusions.txt	LTP165	ltpFR	4	14	1	METEOR	889	n/a	0	n/a	n/a	n/a	n/a	n/a
2683.14	n/a	REC_WORD_VV	1341570	wordpools/wasnorm_wordpool_less_exclusions.txt	LTP165	ltpFR	4	14	n/a	<>	-1	n/a	n/a	n/a	n/a	n/a	n/a	n/a
2683.612	n/a	REC_WORD	1341806	wordpools/wasnorm_wordpool_less_exclusions.txt	LTP165	ltpFR	4	14	1	CHARCOAL	281	n/a	0	n/a	n/a	n/a	n/a	n/a
2684.786	n/a	REC_WORD	1342393	wordpools/wasnorm_wordpool_less_exclusions.txt	LTP165	ltpFR	4	14	1	GRILL	661	n/a	0	n/a	n/a	n/a	n/a	n/a
2686.102	n/a	REC_WORD	1343051	wordpools/wasnorm_wordpool_less_exclusions.txt	LTP165	ltpFR	4	14	1	GUEST	669	n/a	1	n/a	n/a	n/a	n/a	n/a
2688.926	n/a	REC_WORD	1344463	wordpools/wasnorm_wordpool_less_exclusions.txt	LTP165	ltpFR	4	14	1	HUT	729	n/a	0	n/a	n/a	n/a	n/a	n/a
2695.906	n/a	REC_WORD	1347953	wordpools/wasnorm_wordpool_less_exclusions.txt	LTP165	ltpFR	4	14	1	CITY	314	n/a	0	n/a	n/a	n/a	n/a	n/a
2713.87	n/a	REC_WORD	1356935	wordpools/wasnorm_wordpool_less_exclusions.txt	LTP165	ltpFR	4	14	1	STAR	1373	n/a	0	n/a	n/a	n/a	n/a	n/a
2715.324	n/a	REC_WORD_VV	1357662	wordpools/wasnorm_wordpool_less_exclusions.txt	LTP165	ltpFR	4	14	n/a	<>	-1	n/a	n/a	n/a	n/a	n/a	n/a	n/a
2717.292	n/a	REC_WORD	1358646	wordpools/wasnorm_wordpool_less_exclusions.txt	LTP165	ltpFR	4	14	1	CINNAMON	310	n/a	0	n/a	n/a	n/a	n/a	n/a
2727.56	n/a	REC_WORD	1363780	wordpools/wasnorm_wordpool_less_exclusions.txt	LTP165	ltpFR	4	14	1	HAMBURGER	679	n/a	0	n/a	n/a	n/a	n/a	n/a
2757.486	n/a	WORD	1378743	wordpools/wasnorm_wordpool_less_exclusions.txt	LTP165	ltpFR	4	15	1	ATTIC	56	n/a	0	0	0.5869140625	0.422607421875	lower	../fonts/zerothre.ttf
2761.344	n/a	WORD	1380672	wordpools/wasnorm_wordpool_less_exclusions.txt	LTP165	ltpFR	4	15	1	YACHT	1629	n/a	0	0	0.5869140625	0.422607421875	lower	../fonts/zerothre.ttf
2765.342	n/a	WORD	1382671	wordpools/wasnorm_wordpool_less_exclusions.txt	LTP165	ltpFR	4	15	1	SHRIMP	1297	n/a	1	0	0.5869140625	0.422607421875	lower	../fonts/zerothre.ttf
2769.548	n/a	WORD	1384774	wordpools/wasnorm_wordpool_less_exclusions.txt	LTP165	ltpFR	4	15	1	CARAVAN	242	n/a	1	0	0.5869140625	0.422607421875	lower	../fonts/zerothre.ttf
2773.556	n/a	WORD	1386778	wordpools/wasnorm_wordpool_less_exclusions.txt	LTP165	ltpFR	4	15	0	VASE	1549	n/a	0	1	0.412841796875	0.57763671875	upper	../fonts/amplitud.ttf
2777.704	n/a	WORD	1388852	wordpools/wasnorm_wordpool_less_exclusions.txt	LTP165	ltpFR	4	15	0	TOY	1492	n/a	0	1	0.412841796875	0.57763671875	upper	../fonts/amplitud.ttf
2781.654	n/a	WORD	1390827	wordpools/wasnorm_wordpool_less_exclusions.txt	LTP165	ltpFR	4	15	0	BOAT	144	n/a	0	1	0.412841796875	0.57763671875	upper	../fonts/amplitud.ttf
2785.728	n/a	WORD	1392864	wordpools/wasnorm_wordpool_less_exclusions.txt	LTP165	ltpFR	4	15	1	HALL	677	n/a	0	0	0.5869140625	0.422607421875	lower	../fonts/zerothre.ttf
2789.894	n/a	WORD	1394947	wordpools/wasnorm_wordpool_less_exclusions.txt	LTP165	ltpFR	4	15	1	GIRL	637	n/a	1	0	0.5869140625	0.422607421875	lower	../fonts/zerothre.ttf
2794.034	n/a	WORD	1397017	wordpools/wasnorm_wordpool_less_exclusions.txt	LTP165	ltpFR	4	15	1	MISTER	901	n/a	1	0	0.5869140625	0.422607421875	lower	../fonts/zerothre.ttf
2797.924	n/a	WORD	1398962	wordpools/wasnorm_wordpool_less_exclusions.txt	LTP165	ltpFR	4	15	1	WORKER	1621	n/a	1	0	0.5869140625	0.422607421875	lower	../fonts/zerothre.ttf
2801.798	n/a	WORD	1400899	wordpools/wasnorm_wordpool_less_exclusions.txt	LTP165	ltpFR	4	15	0	MANAGER	863	n/a	3	1	0.412841796875	0.57763671875	upper	../fonts/amplitud.ttf
2802.782	n/a	KEY_MSG	1401391	n/a	LTP165	ltpFR	4	15	n/a	n/a	n/a	n/a	n/a	n/a	n/a	n/a	n/a	n/a
2805.888	n/a	WORD	1402944	wordpools/wasnorm_wordpool_less_exclusions.txt	LTP165	ltpFR	4	15	0	PARROT	1015	n/a	0	1	0.412841796875	0.57763671875	upper	../fonts/amplitud.ttf
2809.838	n/a	WORD	1404919	wordpools/wasnorm_wordpool_less_exclusions.txt	LTP165	ltpFR	4	15	0	PLAYGROUND	1087	n/a	1	1	0.412841796875	0.57763671875	upper	../fonts/amplitud.ttf
2813.944	n/a	WORD	1406972	wordpools/wasnorm_wordpool_less_exclusions.txt	LTP165	ltpFR	4	15	0	LACE	792	n/a	0	1	0.412841796875	0.57763671875	upper	../fonts/amplitud.ttf
2817.768	n/a	WORD	1408884	wordpools/wasnorm_wordpool_less_exclusions.txt	LTP165	ltpFR	4	15	0	SHOELACE	1289	n/a	0	1	0.412841796875	0.57763671875	upper	../fonts/amplitud.ttf
2823.458	n/a	REC_START	1411729	n/a	LTP165	ltpFR	4	15	n/a	n/a	n/a	n/a	n/a	n/a	n/a	n/a	n/a	n/a
2824.5	n/a	REC_WORD	1412250	wordpools/wasnorm_wordpool_less_exclusions.txt	LTP165	ltpFR	4	15	0	PARROT	1015	n/a	0	n/a	n/a	n/a	n/a	n/a
2825.272	n/a	REC_WORD	1412636	wordpools/wasnorm_wordpool_less_exclusions.txt	LTP165	ltpFR	4	15	0	PLAYGROUND	1087	n/a	1	n/a	n/a	n/a	n/a	n/a
2826.106	n/a	REC_WORD	1413053	wordpools/wasnorm_wordpool_less_exclusions.txt	LTP165	ltpFR	4	15	0	LACE	792	n/a	0	n/a	n/a	n/a	n/a	n/a
2826.684	n/a	REC_WORD	1413342	wordpools/wasnorm_wordpool_less_exclusions.txt	LTP165	ltpFR	4	15	0	SHOELACE	1289	n/a	0	n/a	n/a	n/a	n/a	n/a
2827.684	n/a	REC_WORD_VV	1413842	wordpools/wasnorm_wordpool_less_exclusions.txt	LTP165	ltpFR	4	15	n/a	<>	-1	n/a	n/a	n/a	n/a	n/a	n/a	n/a
2828.086	n/a	REC_WORD	1414043	wordpools/wasnorm_wordpool_less_exclusions.txt	LTP165	ltpFR	4	15	1	YACHT	1629	n/a	0	n/a	n/a	n/a	n/a	n/a
2829.044	n/a	REC_WORD	1414522	wordpools/wasnorm_wordpool_less_exclusions.txt	LTP165	ltpFR	4	15	0	BOAT	144	n/a	0	n/a	n/a	n/a	n/a	n/a
2829.958	n/a	REC_WORD	1414979	wordpools/wasnorm_wordpool_less_exclusions.txt	LTP165	ltpFR	4	15	1	SHRIMP	1297	n/a	1	n/a	n/a	n/a	n/a	n/a
2855.396	n/a	REC_WORD	1427698	wordpools/wasnorm_wordpool_less_exclusions.txt	LTP165	ltpFR	4	15	1	HALL	677	n/a	0	n/a	n/a	n/a	n/a	n/a
2862.67	n/a	REC_WORD	1431335	wordpools/wasnorm_wordpool_less_exclusions.txt	LTP165	ltpFR	4	15	1	GIRL	637	n/a	1	n/a	n/a	n/a	n/a	n/a
2865.344	n/a	REC_WORD	1432672	wordpools/wasnorm_wordpool_less_exclusions.txt	LTP165	ltpFR	4	15	1	MISTER	901	n/a	1	n/a	n/a	n/a	n/a	n/a
2878.828	n/a	REC_WORD	1439414	wordpools/wasnorm_wordpool_less_exclusions.txt	LTP165	ltpFR	4	15	1	SUPERVISOR	1410	n/a	1	n/a	n/a	n/a	n/a	n/a
2879.828	n/a	REC_WORD_VV	1439914	wordpools/wasnorm_wordpool_less_exclusions.txt	LTP165	ltpFR	4	15	n/a	<>	-1	n/a	n/a	n/a	n/a	n/a	n/a	n/a
2891.854	n/a	REC_WORD	1445927	wordpools/wasnorm_wordpool_less_exclusions.txt	LTP165	ltpFR	4	15	1	ATTIC	56	n/a	0	n/a	n/a	n/a	n/a	n/a
2902.2	n/a	WORD	1451100	wordpools/wasnorm_wordpool_less_exclusions.txt	LTP165	ltpFR	4	16	0	CHEDDAR	286	n/a	n/a	1	0.412841796875	0.57763671875	upper	../fonts/amplitud.ttf
2905.224	n/a	SLOW_MSG	1452612	n/a	LTP165	ltpFR	4	16	n/a	n/a	n/a	n/a	n/a	n/a	n/a	n/a	n/a	n/a
2907.874	n/a	WORD	1453937	wordpools/wasnorm_wordpool_less_exclusions.txt	LTP165	ltpFR	4	16	0	LUNCH	849	n/a	2	1	0.412841796875	0.57763671875	upper	../fonts/amplitud.ttf
2909.782	n/a	KEY_MSG	1454891	n/a	LTP165	ltpFR	4	16	n/a	n/a	n/a	n/a	n/a	n/a	n/a	n/a	n/a	n/a
2912.456	n/a	WORD	1456228	wordpools/wasnorm_wordpool_less_exclusions.txt	LTP165	ltpFR	4	16	0	SISTER	1312	n/a	1	1	0.412841796875	0.57763671875	upper	../fonts/amplitud.ttf
2916.52	n/a	WORD	1458260	wordpools/wasnorm_wordpool_less_exclusions.txt	LTP165	ltpFR	4	16	0	ROCK	1201	n/a	0	1	0.412841796875	0.57763671875	upper	../fonts/amplitud.ttf
2920.712	n/a	WORD	1460356	wordpools/wasnorm_wordpool_less_exclusions.txt	LTP165	ltpFR	4	16	0	PORK	1108	n/a	0	1	0.412841796875	0.57763671875	upper	../fonts/amplitud.ttf
2924.552	n/a	WORD	1462276	wordpools/wasnorm_wordpool_less_exclusions.txt	LTP165	ltpFR	4	16	0	MARSH	874	n/a	1	1	0.412841796875	0.57763671875	upper	../fonts/amplitud.ttf
2928.592	n/a	WORD	1464296	wordpools/wasnorm_wordpool_less_exclusions.txt	LTP165	ltpFR	4	16	0	NUN	962	n/a	1	1	0.412841796875	0.57763671875	upper	../fonts/amplitud.ttf
2932.784	n/a	WORD	1466392	wordpools/wasnorm_wordpool_less_exclusions.txt	LTP165	ltpFR	4	16	0	CHEESE	289	n/a	0	1	0.412841796875	0.57763671875	upper	../fonts/amplitud.ttf
2936.84	n/a	WORD	1468420	wordpools/wasnorm_wordpool_less_exclusions.txt	LTP165	ltpFR	4	16	0	CHEF	290	n/a	1	1	0.412841796875	0.57763671875	upper	../fonts/amplitud.ttf
2940.738	n/a	WORD	1470369	wordpools/wasnorm_wordpool_less_exclusions.txt	LTP165	ltpFR	4	16	0	LEVER	815	n/a	0	1	0.412841796875	0.57763671875	upper	../fonts/amplitud.ttf
2944.938	n/a	WORD	1472469	wordpools/wasnorm_wordpool_less_exclusions.txt	LTP165	ltpFR	4	16	0	DISHWASHER	475	n/a	1	1	0.412841796875	0.57763671875	upper	../fonts/amplitud.ttf
2949.12	n/a	WORD	1474560	wordpools/wasnorm_wordpool_less_exclusions.txt	LTP165	ltpFR	4	16	0	HEN	703	n/a	0	1	0.412841796875	0.57763671875	upper	../fonts/amplitud.ttf
2953.052	n/a	WORD	1476526	wordpools/wasnorm_wordpool_less_exclusions.txt	LTP165	ltpFR	4	16	0	BREAST	171	n/a	0	1	0.412841796875	0.57763671875	upper	../fonts/amplitud.ttf
2957.06	n/a	WORD	1478530	wordpools/wasnorm_wordpool_less_exclusions.txt	LTP165	ltpFR	4	16	0	MUG	930	n/a	0	1	0.412841796875	0.57763671875	upper	../fonts/amplitud.ttf
2960.992	n/a	WORD	1480496	wordpools/wasnorm_wordpool_less_exclusions.txt	LTP165	ltpFR	4	16	0	BRAN	167	n/a	0	1	0.412841796875	0.57763671875	upper	../fonts/amplitud.ttf
2964.99	n/a	WORD	1482495	wordpools/wasnorm_wordpool_less_exclusions.txt	LTP165	ltpFR	4	16	0	WHEAT	1602	n/a	0	1	0.412841796875	0.57763671875	upper	../fonts/amplitud.ttf
2971.064	n/a	REC_START	1485532	n/a	LTP165	ltpFR	4	16	n/a	n/a	n/a	n/a	n/a	n/a	n/a	n/a	n/a	n/a
2972.122	n/a	REC_WORD	1486061	wordpools/wasnorm_wordpool_less_exclusions.txt	LTP165	ltpFR	4	16	0	WHEAT	1602	n/a	0	n/a	n/a	n/a	n/a	n/a
2972.69	n/a	REC_WORD	1486345	wordpools/wasnorm_wordpool_less_exclusions.txt	LTP165	ltpFR	4	16	0	DISHWASHER	475	n/a	1	n/a	n/a	n/a	n/a	n/a
2973.642	n/a	REC_WORD	1486821	wordpools/wasnorm_wordpool_less_exclusions.txt	LTP165	ltpFR	4	16	0	HEN	703	n/a	0	n/a	n/a	n/a	n/a	n/a
2974.318	n/a	REC_WORD	1487159	wordpools/wasnorm_wordpool_less_exclusions.txt	LTP165	ltpFR	4	16	n/a	NEST	945	n/a	n/a	n/a	n/a	n/a	n/a	n/a
2975.434	n/a	REC_WORD_VV	1487717	wordpools/wasnorm_wordpool_less_exclusions.txt	LTP165	ltpFR	4	16	n/a	<>	-1	n/a	n/a	n/a	n/a	n/a	n/a	n/a
2976.092	n/a	REC_WORD	1488046	wordpools/wasnorm_wordpool_less_exclusions.txt	LTP165	ltpFR	4	16	0	BREAST	171	n/a	0	n/a	n/a	n/a	n/a	n/a
2977.914	n/a	REC_WORD	1488957	wordpools/wasnorm_wordpool_less_exclusions.txt	LTP165	ltpFR	4	16	n/a	BIG	-1	n/a	n/a	n/a	n/a	n/a	n/a	n/a
2978.916	n/a	REC_WORD	1489458	wordpools/wasnorm_wordpool_less_exclusions.txt	LTP165	ltpFR	4	16	0	NUN	962	n/a	1	n/a	n/a	n/a	n/a	n/a
2979.584	n/a	REC_WORD	1489792	wordpools/wasnorm_wordpool_less_exclusions.txt	LTP165	ltpFR	4	16	0	SISTER	1312	n/a	1	n/a	n/a	n/a	n/a	n/a
2981.222	n/a	REC_WORD	1490611	wordpools/wasnorm_wordpool_less_exclusions.txt	LTP165	ltpFR	4	16	0	WHEAT	1602	n/a	0	n/a	n/a	n/a	n/a	n/a
3098.2	n/a	REC_START	1549100	n/a	LTP165	ltpFR	4	1	n/a	n/a	n/a	n/a	n/a	n/a	n/a	n/a	n/a	n/a
3098.242	n/a	RECOG_LURE	1549121	n/a	LTP165	ltpFR	4	1	n/a	CHEERLEADER	288	1	n/a	n/a	n/a	n/a	n/a	n/a
3100.412	n/a	RECOG_RESP	1550206	n/a	LTP165	ltpFR	4	1	n/a	CHEERLEADER	288	n/a	n/a	n/a	n/a	n/a	n/a	n/a
3107.216	n/a	RECOG_CONF	1553608	n/a	LTP165	ltpFR	4	1	n/a	CHEERLEADER	288	1	n/a	n/a	n/a	n/a	n/a	n/a
3110.504	n/a	RECOG_TARGET	1555252	n/a	LTP165	ltpFR	4	1	1	HALL	677	5	0	n/a	n/a	n/a	n/a	n/a
3113.142	n/a	RECOG_RESP	1556571	n/a	LTP165	ltpFR	4	1	1	HALL	677	n/a	0	n/a	n/a	n/a	n/a	n/a
3115.926	n/a	RECOG_CONF	1557963	n/a	LTP165	ltpFR	4	1	1	HALL	677	5	0	n/a	n/a	n/a	n/a	n/a
3118.126	n/a	RECOG_TARGET	1559063	n/a	LTP165	ltpFR	4	1	1	WINE	1613	3	1	n/a	n/a	n/a	n/a	n/a
3120.258	n/a	RECOG_RESP	1560129	n/a	LTP165	ltpFR	4	1	1	WINE	1613	n/a	1	n/a	n/a	n/a	n/a	n/a
3122.134	n/a	RECOG_CONF	1561067	n/a	LTP165	ltpFR	4	1	1	WINE	1613	3	1	n/a	n/a	n/a	n/a	n/a
3124.416	n/a	RECOG_TARGET	1562208	n/a	LTP165	ltpFR	4	1	0	MANAGER	863	4	3	n/a	n/a	n/a	n/a	n/a
3125.384	n/a	RECOG_RESP	1562692	n/a	LTP165	ltpFR	4	1	0	MANAGER	863	n/a	3	n/a	n/a	n/a	n/a	n/a
3127.222	n/a	RECOG_CONF	1563611	n/a	LTP165	ltpFR	4	1	0	MANAGER	863	4	3	n/a	n/a	n/a	n/a	n/a
3129.316	n/a	RECOG_TARGET	1564658	n/a	LTP165	ltpFR	4	1	-1	MARGARINE	868	5	-1	n/a	n/a	n/a	n/a	n/a
3130.224	n/a	RECOG_RESP	1565112	n/a	LTP165	ltpFR	4	1	-1	MARGARINE	868	n/a	-1	n/a	n/a	n/a	n/a	n/a
3131.746	n/a	RECOG_CONF	1565873	n/a	LTP165	ltpFR	4	1	-1	MARGARINE	868	5	-1	n/a	n/a	n/a	n/a	n/a
3134.512	n/a	RECOG_TARGET	1567256	n/a	LTP165	ltpFR	4	1	-1	JELLY	755	5	-1	n/a	n/a	n/a	n/a	n/a
3135.386	n/a	RECOG_RESP	1567693	n/a	LTP165	ltpFR	4	1	-1	JELLY	755	n/a	-1	n/a	n/a	n/a	n/a	n/a
3137.218	n/a	RECOG_CONF	1568609	n/a	LTP165	ltpFR	4	1	-1	JELLY	755	5	-1	n/a	n/a	n/a	n/a	n/a
3139.788	n/a	RECOG_LURE	1569894	n/a	LTP165	ltpFR	4	1	n/a	COURT	391	1	n/a	n/a	n/a	n/a	n/a	n/a
3141.116	n/a	RECOG_RESP	1570558	n/a	LTP165	ltpFR	4	1	n/a	COURT	391	n/a	n/a	n/a	n/a	n/a	n/a	n/a
3142.844	n/a	RECOG_CONF	1571422	n/a	LTP165	ltpFR	4	1	n/a	COURT	391	1	n/a	n/a	n/a	n/a	n/a	n/a
3145.052	n/a	RECOG_TARGET	1572526	n/a	LTP165	ltpFR	4	1	1	RODENT	1204	4	1	n/a	n/a	n/a	n/a	n/a
3146.14	n/a	RECOG_RESP	1573070	n/a	LTP165	ltpFR	4	1	1	RODENT	1204	n/a	1	n/a	n/a	n/a	n/a	n/a
3148.264	n/a	RECOG_CONF	1574132	n/a	LTP165	ltpFR	4	1	1	RODENT	1204	4	1	n/a	n/a	n/a	n/a	n/a
3150.25	n/a	RECOG_TARGET	1575125	n/a	LTP165	ltpFR	4	1	-1	ACTOR	5	4	-1	n/a	n/a	n/a	n/a	n/a
3151.03	n/a	RECOG_RESP	1575515	n/a	LTP165	ltpFR	4	1	-1	ACTOR	5	n/a	-1	n/a	n/a	n/a	n/a	n/a
3152.842	n/a	RECOG_CONF	1576421	n/a	LTP165	ltpFR	4	1	-1	ACTOR	5	4	-1	n/a	n/a	n/a	n/a	n/a
3154.9	n/a	RECOG_LURE	1577450	n/a	LTP165	ltpFR	4	1	n/a	FOREHEAD	592	3	n/a	n/a	n/a	n/a	n/a	n/a
3156.158	n/a	RECOG_RESP	1578079	n/a	LTP165	ltpFR	4	1	n/a	FOREHEAD	592	n/a	n/a	n/a	n/a	n/a	n/a	n/a
3158.012	n/a	RECOG_CONF	1579006	n/a	LTP165	ltpFR	4	1	n/a	FOREHEAD	592	3	n/a	n/a	n/a	n/a	n/a	n/a
3160.04	n/a	RECOG_LURE	1580020	n/a	LTP165	ltpFR	4	1	n/a	BUCKLE	185	4	n/a	n/a	n/a	n/a	n/a	n/a
3161.14	n/a	RECOG_RESP	1580570	n/a	LTP165	ltpFR	4	1	n/a	BUCKLE	185	n/a	n/a	n/a	n/a	n/a	n/a	n/a
3162.574	n/a	RECOG_CONF	1581287	n/a	LTP165	ltpFR	4	1	n/a	BUCKLE	185	4	n/a	n/a	n/a	n/a	n/a	n/a
3164.554	n/a	RECOG_LURE	1582277	n/a	LTP165	ltpFR	4	1	n/a	OVAL	990	2	n/a	n/a	n/a	n/a	n/a	n/a
3165.766	n/a	RECOG_RESP	1582883	n/a	LTP165	ltpFR	4	1	n/a	OVAL	990	n/a	n/a	n/a	n/a	n/a	n/a	n/a
3167.022	n/a	RECOG_CONF	1583511	n/a	LTP165	ltpFR	4	1	n/a	OVAL	990	2	n/a	n/a	n/a	n/a	n/a	n/a
3168.996	n/a	RECOG_TARGET	1584498	n/a	LTP165	ltpFR	4	1	0	LUNCH	849	3	2	n/a	n/a	n/a	n/a	n/a
3170.294	n/a	RECOG_RESP	1585147	n/a	LTP165	ltpFR	4	1	0	LUNCH	849	n/a	2	n/a	n/a	n/a	n/a	n/a
3171.798	n/a	RECOG_CONF	1585899	n/a	LTP165	ltpFR	4	1	0	LUNCH	849	3	2	n/a	n/a	n/a	n/a	n/a
3173.676	n/a	RECOG_LURE	1586838	n/a	LTP165	ltpFR	4	1	n/a	RACCOON	1153	2	n/a	n/a	n/a	n/a	n/a	n/a
3174.974	n/a	RECOG_RESP	1587487	n/a	LTP165	ltpFR	4	1	n/a	RACCOON	1153	n/a	n/a	n/a	n/a	n/a	n/a	n/a
3176.412	n/a	RECOG_CONF	1588206	n/a	LTP165	ltpFR	4	1	n/a	RACCOON	1153	2	n/a	n/a	n/a	n/a	n/a	n/a
3178.384	n/a	RECOG_TARGET	1589192	n/a	LTP165	ltpFR	4	1	-1	APE	31	5	-1	n/a	n/a	n/a	n/a	n/a
3179.322	n/a	RECOG_RESP	1589661	n/a	LTP165	ltpFR	4	1	-1	APE	31	n/a	-1	n/a	n/a	n/a	n/a	n/a
3181.052	n/a	RECOG_CONF	1590526	n/a	LTP165	ltpFR	4	1	-1	APE	31	5	-1	n/a	n/a	n/a	n/a	n/a
3183.2	n/a	RECOG_TARGET	1591600	n/a	LTP165	ltpFR	4	1	-1	FEAST	556	5	-1	n/a	n/a	n/a	n/a	n/a
3184.5	n/a	RECOG_RESP	1592250	n/a	LTP165	ltpFR	4	1	-1	FEAST	556	n/a	-1	n/a	n/a	n/a	n/a	n/a
3186.12	n/a	RECOG_CONF	1593060	n/a	LTP165	ltpFR	4	1	-1	FEAST	556	5	-1	n/a	n/a	n/a	n/a	n/a
3188.198	n/a	RECOG_TARGET	1594099	n/a	LTP165	ltpFR	4	1	-1	PAD	998	5	-1	n/a	n/a	n/a	n/a	n/a
3189.066	n/a	RECOG_RESP	1594533	n/a	LTP165	ltpFR	4	1	-1	PAD	998	n/a	-1	n/a	n/a	n/a	n/a	n/a
3190.442	n/a	RECOG_CONF	1595221	n/a	LTP165	ltpFR	4	1	-1	PAD	998	5	-1	n/a	n/a	n/a	n/a	n/a
3192.712	n/a	RECOG_LURE	1596356	n/a	LTP165	ltpFR	4	1	n/a	BUILDER	190	2	n/a	n/a	n/a	n/a	n/a	n/a
3194.678	n/a	RECOG_RESP	1597339	n/a	LTP165	ltpFR	4	1	n/a	BUILDER	190	n/a	n/a	n/a	n/a	n/a	n/a	n/a
3196.276	n/a	RECOG_CONF	1598138	n/a	LTP165	ltpFR	4	1	n/a	BUILDER	190	2	n/a	n/a	n/a	n/a	n/a	n/a
3198.528	n/a	RECOG_TARGET	1599264	n/a	LTP165	ltpFR	4	1	0	PLAID	1080	5	0	n/a	n/a	n/a	n/a	n/a
3199.516	n/a	RECOG_RESP	1599758	n/a	LTP165	ltpFR	4	1	0	PLAID	1080	n/a	0	n/a	n/a	n/a	n/a	n/a
3200.868	n/a	RECOG_CONF	1600434	n/a	LTP165	ltpFR	4	1	0	PLAID	1080	5	0	n/a	n/a	n/a	n/a	n/a
3203.034	n/a	RECOG_TARGET	1601517	n/a	LTP165	ltpFR	4	1	1	METEOR	889	5	0	n/a	n/a	n/a	n/a	n/a
3203.902	n/a	RECOG_RESP	1601951	n/a	LTP165	ltpFR	4	1	1	METEOR	889	n/a	0	n/a	n/a	n/a	n/a	n/a
3205.114	n/a	RECOG_CONF	1602557	n/a	LTP165	ltpFR	4	1	1	METEOR	889	5	0	n/a	n/a	n/a	n/a	n/a
3211.192	n/a	REC_START	1605596	n/a	LTP165	ltpFR	4	2	n/a	n/a	n/a	n/a	n/a	n/a	n/a	n/a	n/a	n/a
3211.224	n/a	RECOG_LURE	1605612	n/a	LTP165	ltpFR	4	2	n/a	CENT	270	3	n/a	n/a	n/a	n/a	n/a	n/a
3212.676	n/a	RECOG_RESP	1606338	n/a	LTP165	ltpFR	4	2	n/a	CENT	270	n/a	n/a	n/a	n/a	n/a	n/a	n/a
3214.358	n/a	RECOG_CONF	1607179	n/a	LTP165	ltpFR	4	2	n/a	CENT	270	3	n/a	n/a	n/a	n/a	n/a	n/a
3216.464	n/a	RECOG_TARGET	1608232	n/a	LTP165	ltpFR	4	2	1	CLOWN	330	2	1	n/a	n/a	n/a	n/a	n/a
3219.534	n/a	RECOG_RESP	1609767	n/a	LTP165	ltpFR	4	2	1	CLOWN	330	n/a	1	n/a	n/a	n/a	n/a	n/a
3220.848	n/a	RECOG_CONF	1610424	n/a	LTP165	ltpFR	4	2	1	CLOWN	330	2	1	n/a	n/a	n/a	n/a	n/a
3222.904	n/a	RECOG_TARGET	1611452	n/a	LTP165	ltpFR	4	2	-1	PASTRY	1022	5	-1	n/a	n/a	n/a	n/a	n/a
3223.898	n/a	RECOG_RESP	1611949	n/a	LTP165	ltpFR	4	2	-1	PASTRY	1022	n/a	-1	n/a	n/a	n/a	n/a	n/a
3225.262	n/a	RECOG_CONF	1612631	n/a	LTP165	ltpFR	4	2	-1	PASTRY	1022	5	-1	n/a	n/a	n/a	n/a	n/a
3227.302	n/a	RECOG_LURE	1613651	n/a	LTP165	ltpFR	4	2	n/a	LID	817	2	n/a	n/a	n/a	n/a	n/a	n/a
3228.426	n/a	RECOG_RESP	1614213	n/a	LTP165	ltpFR	4	2	n/a	LID	817	n/a	n/a	n/a	n/a	n/a	n/a	n/a
3230.096	n/a	RECOG_CONF	1615048	n/a	LTP165	ltpFR	4	2	n/a	LID	817	2	n/a	n/a	n/a	n/a	n/a	n/a
3231.976	n/a	RECOG_TARGET	1615988	n/a	LTP165	ltpFR	4	2	1	KEYBOARD	774	2	0	n/a	n/a	n/a	n/a	n/a
3234.896	n/a	RECOG_RESP	1617448	n/a	LTP165	ltpFR	4	2	1	KEYBOARD	774	n/a	0	n/a	n/a	n/a	n/a	n/a
3236.18	n/a	RECOG_CONF	1618090	n/a	LTP165	ltpFR	4	2	1	KEYBOARD	774	2	0	n/a	n/a	n/a	n/a	n/a
3238.2	n/a	RECOG_TARGET	1619100	n/a	LTP165	ltpFR	4	2	-1	BANDIT	81	1	-1	n/a	n/a	n/a	n/a	n/a
3240.83	n/a	RECOG_RESP	1620415	n/a	LTP165	ltpFR	4	2	-1	BANDIT	81	n/a	-1	n/a	n/a	n/a	n/a	n/a
3241.95	n/a	RECOG_CONF	1620975	n/a	LTP165	ltpFR	4	2	-1	BANDIT	81	1	-1	n/a	n/a	n/a	n/a	n/a
3244.222	n/a	RECOG_TARGET	1622111	n/a	LTP165	ltpFR	4	2	-1	SAUCER	1237	4	-1	n/a	n/a	n/a	n/a	n/a
3245.372	n/a	RECOG_RESP	1622686	n/a	LTP165	ltpFR	4	2	-1	SAUCER	1237	n/a	-1	n/a	n/a	n/a	n/a	n/a
3246.816	n/a	RECOG_CONF	1623408	n/a	LTP165	ltpFR	4	2	-1	SAUCER	1237	4	-1	n/a	n/a	n/a	n/a	n/a
3248.988	n/a	RECOG_LURE	1624494	n/a	LTP165	ltpFR	4	2	n/a	PECAN	1036	2	n/a	n/a	n/a	n/a	n/a	n/a
3250.436	n/a	RECOG_RESP	1625218	n/a	LTP165	ltpFR	4	2	n/a	PECAN	1036	n/a	n/a	n/a	n/a	n/a	n/a	n/a
3251.602	n/a	RECOG_CONF	1625801	n/a	LTP165	ltpFR	4	2	n/a	PECAN	1036	2	n/a	n/a	n/a	n/a	n/a	n/a
3253.52	n/a	RECOG_TARGET	1626760	n/a	LTP165	ltpFR	4	2	0	PALM	1007	5	0	n/a	n/a	n/a	n/a	n/a
3254.478	n/a	RECOG_RESP	1627239	n/a	LTP165	ltpFR	4	2	0	PALM	1007	n/a	0	n/a	n/a	n/a	n/a	n/a
3255.838	n/a	RECOG_CONF	1627919	n/a	LTP165	ltpFR	4	2	0	PALM	1007	5	0	n/a	n/a	n/a	n/a	n/a
3258.036	n/a	RECOG_TARGET	1629018	n/a	LTP165	ltpFR	4	2	1	SKUNK	1321	4	1	n/a	n/a	n/a	n/a	n/a
3258.918	n/a	RECOG_RESP	1629459	n/a	LTP165	ltpFR	4	2	1	SKUNK	1321	n/a	1	n/a	n/a	n/a	n/a	n/a
3260.714	n/a	RECOG_CONF	1630357	n/a	LTP165	ltpFR	4	2	1	SKUNK	1321	4	1	n/a	n/a	n/a	n/a	n/a
3262.926	n/a	RECOG_LURE	1631463	n/a	LTP165	ltpFR	4	2	n/a	CRIB	407	3	n/a	n/a	n/a	n/a	n/a	n/a
3264.236	n/a	RECOG_RESP	1632118	n/a	LTP165	ltpFR	4	2	n/a	CRIB	407	n/a	n/a	n/a	n/a	n/a	n/a	n/a
3265.974	n/a	RECOG_CONF	1632987	n/a	LTP165	ltpFR	4	2	n/a	CRIB	407	3	n/a	n/a	n/a	n/a	n/a	n/a
3267.94	n/a	RECOG_TARGET	1633970	n/a	LTP165	ltpFR	4	2	1	TWINE	1529	2	0	n/a	n/a	n/a	n/a	n/a
3272.632	n/a	RECOG_RESP	1636316	n/a	LTP165	ltpFR	4	2	1	TWINE	1529	n/a	0	n/a	n/a	n/a	n/a	n/a
3274.544	n/a	RECOG_CONF	1637272	n/a	LTP165	ltpFR	4	2	1	TWINE	1529	2	0	n/a	n/a	n/a	n/a	n/a
3276.67	n/a	RECOG_TARGET	1638335	n/a	LTP165	ltpFR	4	2	0	CHEF	290	3	1	n/a	n/a	n/a	n/a	n/a
3278.774	n/a	RECOG_RESP	1639387	n/a	LTP165	ltpFR	4	2	0	CHEF	290	n/a	1	n/a	n/a	n/a	n/a	n/a
3280.176	n/a	RECOG_CONF	1640088	n/a	LTP165	ltpFR	4	2	0	CHEF	290	3	1	n/a	n/a	n/a	n/a	n/a
3282.734	n/a	RECOG_LURE	1641367	n/a	LTP165	ltpFR	4	2	n/a	CHISEL	305	3	n/a	n/a	n/a	n/a	n/a	n/a
3283.974	n/a	RECOG_RESP	1641987	n/a	LTP165	ltpFR	4	2	n/a	CHISEL	305	n/a	n/a	n/a	n/a	n/a	n/a	n/a
3285.588	n/a	RECOG_CONF	1642794	n/a	LTP165	ltpFR	4	2	n/a	CHISEL	305	3	n/a	n/a	n/a	n/a	n/a	n/a
3287.624	n/a	RECOG_TARGET	1643812	n/a	LTP165	ltpFR	4	2	-1	TELESCOPE	1446	3	-1	n/a	n/a	n/a	n/a	n/a
3289.13	n/a	RECOG_RESP	1644565	n/a	LTP165	ltpFR	4	2	-1	TELESCOPE	1446	n/a	-1	n/a	n/a	n/a	n/a	n/a
3290.552	n/a	RECOG_CONF	1645276	n/a	LTP165	ltpFR	4	2	-1	TELESCOPE	1446	3	-1	n/a	n/a	n/a	n/a	n/a
3292.69	n/a	RECOG_LURE	1646345	n/a	LTP165	ltpFR	4	2	n/a	BUBBLE	183	4	n/a	n/a	n/a	n/a	n/a	n/a
3293.766	n/a	RECOG_RESP	1646883	n/a	LTP165	ltpFR	4	2	n/a	BUBBLE	183	n/a	n/a	n/a	n/a	n/a	n/a	n/a
3295.644	n/a	RECOG_CONF	1647822	n/a	LTP165	ltpFR	4	2	n/a	BUBBLE	183	4	n/a	n/a	n/a	n/a	n/a	n/a
3297.872	n/a	RECOG_LURE	1648936	n/a	LTP165	ltpFR	4	2	n/a	TABLET	1427	1	n/a	n/a	n/a	n/a	n/a	n/a
3299.53	n/a	RECOG_RESP	1649765	n/a	LTP165	ltpFR	4	2	n/a	TABLET	1427	n/a	n/a	n/a	n/a	n/a	n/a	n/a
3301.466	n/a	RECOG_CONF	1650733	n/a	LTP165	ltpFR	4	2	n/a	TABLET	1427	1	n/a	n/a	n/a	n/a	n/a	n/a
3303.47	n/a	RECOG_TARGET	1651735	n/a	LTP165	ltpFR	4	2	0	CITIZEN	312	2	1	n/a	n/a	n/a	n/a	n/a
3305.858	n/a	RECOG_RESP	1652929	n/a	LTP165	ltpFR	4	2	0	CITIZEN	312	n/a	1	n/a	n/a	n/a	n/a	n/a
3307.634	n/a	RECOG_CONF	1653817	n/a	LTP165	ltpFR	4	2	0	CITIZEN	312	2	1	n/a	n/a	n/a	n/a	n/a
3309.736	n/a	RECOG_TARGET	1654868	n/a	LTP165	ltpFR	4	2	0	TULIP	1517	5	0	n/a	n/a	n/a	n/a	n/a
3310.722	n/a	RECOG_RESP	1655361	n/a	LTP165	ltpFR	4	2	0	TULIP	1517	n/a	0	n/a	n/a	n/a	n/a	n/a
3312.086	n/a	RECOG_CONF	1656043	n/a	LTP165	ltpFR	4	2	0	TULIP	1517	5	0	n/a	n/a	n/a	n/a	n/a
3314.376	n/a	RECOG_TARGET	1657188	n/a	LTP165	ltpFR	4	2	1	SHRIMP	1297	5	1	n/a	n/a	n/a	n/a	n/a
3315.134	n/a	RECOG_RESP	1657567	n/a	LTP165	ltpFR	4	2	1	SHRIMP	1297	n/a	1	n/a	n/a	n/a	n/a	n/a
3316.622	n/a	RECOG_CONF	1658311	n/a	LTP165	ltpFR	4	2	1	SHRIMP	1297	5	1	n/a	n/a	n/a	n/a	n/a
3322.052	n/a	REC_START	1661026	n/a	LTP165	ltpFR	4	3	n/a	n/a	n/a	n/a	n/a	n/a	n/a	n/a	n/a	n/a
3322.082	n/a	RECOG_TARGET	1661041	n/a	LTP165	ltpFR	4	3	-1	DAD	433	5	-1	n/a	n/a	n/a	n/a	n/a
3323.102	n/a	RECOG_RESP	1661551	n/a	LTP165	ltpFR	4	3	-1	DAD	433	n/a	-1	n/a	n/a	n/a	n/a	n/a
3325.318	n/a	RECOG_CONF	1662659	n/a	LTP165	ltpFR	4	3	-1	DAD	433	5	-1	n/a	n/a	n/a	n/a	n/a
3327.572	n/a	RECOG_TARGET	1663786	n/a	LTP165	ltpFR	4	3	0	ROCK	1201	1	0	n/a	n/a	n/a	n/a	n/a
3331.236	n/a	RECOG_RESP	1665618	n/a	LTP165	ltpFR	4	3	0	ROCK	1201	n/a	0	n/a	n/a	n/a	n/a	n/a
3332.37	n/a	RECOG_CONF	1666185	n/a	LTP165	ltpFR	4	3	0	ROCK	1201	1	0	n/a	n/a	n/a	n/a	n/a
3334.396	n/a	RECOG_TARGET	1667198	n/a	LTP165	ltpFR	4	3	1	SUIT	1402	1	0	n/a	n/a	n/a	n/a	n/a
3337.006	n/a	RECOG_RESP	1668503	n/a	LTP165	ltpFR	4	3	1	SUIT	1402	n/a	0	n/a	n/a	n/a	n/a	n/a
3338.092	n/a	RECOG_CONF	1669046	n/a	LTP165	ltpFR	4	3	1	SUIT	1402	1	0	n/a	n/a	n/a	n/a	n/a
3339.96	n/a	RECOG_TARGET	1669980	n/a	LTP165	ltpFR	4	3	1	STAR	1373	5	0	n/a	n/a	n/a	n/a	n/a
3341.102	n/a	RECOG_RESP	1670551	n/a	LTP165	ltpFR	4	3	1	STAR	1373	n/a	0	n/a	n/a	n/a	n/a	n/a
3342.536	n/a	RECOG_CONF	1671268	n/a	LTP165	ltpFR	4	3	1	STAR	1373	5	0	n/a	n/a	n/a	n/a	n/a
3345.06	n/a	RECOG_TARGET	1672530	n/a	LTP165	ltpFR	4	3	1	BEAVER	109	2	0	n/a	n/a	n/a	n/a	n/a
3346.186	n/a	RECOG_RESP	1673093	n/a	LTP165	ltpFR	4	3	1	BEAVER	109	n/a	0	n/a	n/a	n/a	n/a	n/a
3347.846	n/a	RECOG_CONF	1673923	n/a	LTP165	ltpFR	4	3	1	BEAVER	109	2	0	n/a	n/a	n/a	n/a	n/a
3349.756	n/a	RECOG_TARGET	1674878	n/a	LTP165	ltpFR	4	3	1	TREE	1502	5	1	n/a	n/a	n/a	n/a	n/a
3350.52	n/a	RECOG_RESP	1675260	n/a	LTP165	ltpFR	4	3	1	TREE	1502	n/a	1	n/a	n/a	n/a	n/a	n/a
3352.198	n/a	RECOG_CONF	1676099	n/a	LTP165	ltpFR	4	3	1	TREE	1502	5	1	n/a	n/a	n/a	n/a	n/a
3354.438	n/a	RECOG_TARGET	1677219	n/a	LTP165	ltpFR	4	3	1	CANDIDATE	228	3	1	n/a	n/a	n/a	n/a	n/a
3355.53	n/a	RECOG_RESP	1677765	n/a	LTP165	ltpFR	4	3	1	CANDIDATE	228	n/a	1	n/a	n/a	n/a	n/a	n/a
3357.628	n/a	RECOG_CONF	1678814	n/a	LTP165	ltpFR	4	3	1	CANDIDATE	228	3	1	n/a	n/a	n/a	n/a	n/a
3359.652	n/a	RECOG_TARGET	1679826	n/a	LTP165	ltpFR	4	3	-1	BRIDE	173	5	-1	n/a	n/a	n/a	n/a	n/a
3360.608	n/a	RECOG_RESP	1680304	n/a	LTP165	ltpFR	4	3	-1	BRIDE	173	n/a	-1	n/a	n/a	n/a	n/a	n/a
3362.088	n/a	RECOG_CONF	1681044	n/a	LTP165	ltpFR	4	3	-1	BRIDE	173	5	-1	n/a	n/a	n/a	n/a	n/a
3364.186	n/a	RECOG_TARGET	1682093	n/a	LTP165	ltpFR	4	3	1	HONEY	713	5	1	n/a	n/a	n/a	n/a	n/a
3364.898	n/a	RECOG_RESP	1682449	n/a	LTP165	ltpFR	4	3	1	HONEY	713	n/a	1	n/a	n/a	n/a	n/a	n/a
3366.388	n/a	RECOG_CONF	1683194	n/a	LTP165	ltpFR	4	3	1	HONEY	713	5	1	n/a	n/a	n/a	n/a	n/a
3368.61	n/a	RECOG_TARGET	1684305	n/a	LTP165	ltpFR	4	3	-1	SEAGULL	1261	2	-1	n/a	n/a	n/a	n/a	n/a
3371.546	n/a	RECOG_RESP	1685773	n/a	LTP165	ltpFR	4	3	-1	SEAGULL	1261	n/a	-1	n/a	n/a	n/a	n/a	n/a
3373.114	n/a	RECOG_CONF	1686557	n/a	LTP165	ltpFR	4	3	-1	SEAGULL	1261	2	-1	n/a	n/a	n/a	n/a	n/a
3375.05	n/a	RECOG_TARGET	1687525	n/a	LTP165	ltpFR	4	3	1	STAFF	1365	5	1	n/a	n/a	n/a	n/a	n/a
3375.972	n/a	RECOG_RESP	1687986	n/a	LTP165	ltpFR	4	3	1	STAFF	1365	n/a	1	n/a	n/a	n/a	n/a	n/a
3377.304	n/a	RECOG_CONF	1688652	n/a	LTP165	ltpFR	4	3	1	STAFF	1365	5	1	n/a	n/a	n/a	n/a	n/a
3379.382	n/a	RECOG_TARGET	1689691	n/a	LTP165	ltpFR	4	3	0	DOVE	491	5	0	n/a	n/a	n/a	n/a	n/a
3380.2	n/a	RECOG_RESP	1690100	n/a	LTP165	ltpFR	4	3	0	DOVE	491	n/a	0	n/a	n/a	n/a	n/a	n/a
3381.502	n/a	RECOG_CONF	1690751	n/a	LTP165	ltpFR	4	3	0	DOVE	491	5	0	n/a	n/a	n/a	n/a	n/a
3383.464	n/a	RECOG_LURE	1691732	n/a	LTP165	ltpFR	4	3	n/a	EYE	545	2	n/a	n/a	n/a	n/a	n/a	n/a
3384.636	n/a	RECOG_RESP	1692318	n/a	LTP165	ltpFR	4	3	n/a	EYE	545	n/a	n/a	n/a	n/a	n/a	n/a	n/a
3385.936	n/a	RECOG_CONF	1692968	n/a	LTP165	ltpFR	4	3	n/a	EYE	545	2	n/a	n/a	n/a	n/a	n/a	n/a
3387.896	n/a	RECOG_TARGET	1693948	n/a	LTP165	ltpFR	4	3	1	RIVER	1194	3	3	n/a	n/a	n/a	n/a	n/a
3389.06	n/a	RECOG_RESP	1694530	n/a	LTP165	ltpFR	4	3	1	RIVER	1194	n/a	3	n/a	n/a	n/a	n/a	n/a
3390.446	n/a	RECOG_CONF	1695223	n/a	LTP165	ltpFR	4	3	1	RIVER	1194	3	3	n/a	n/a	n/a	n/a	n/a
3392.294	n/a	RECOG_TARGET	1696147	n/a	LTP165	ltpFR	4	3	0	HIKER	708	4	1	n/a	n/a	n/a	n/a	n/a
3393.254	n/a	RECOG_RESP	1696627	n/a	LTP165	ltpFR	4	3	0	HIKER	708	n/a	1	n/a	n/a	n/a	n/a	n/a
3394.612	n/a	RECOG_CONF	1697306	n/a	LTP165	ltpFR	4	3	0	HIKER	708	4	1	n/a	n/a	n/a	n/a	n/a
3396.758	n/a	RECOG_TARGET	1698379	n/a	LTP165	ltpFR	4	3	1	OPERATOR	979	2	1	n/a	n/a	n/a	n/a	n/a
3398.324	n/a	RECOG_RESP	1699162	n/a	LTP165	ltpFR	4	3	1	OPERATOR	979	n/a	1	n/a	n/a	n/a	n/a	n/a
3399.752	n/a	RECOG_CONF	1699876	n/a	LTP165	ltpFR	4	3	1	OPERATOR	979	2	1	n/a	n/a	n/a	n/a	n/a
3401.766	n/a	RECOG_TARGET	1700883	n/a	LTP165	ltpFR	4	3	0	SISTER	1312	5	1	n/a	n/a	n/a	n/a	n/a
3402.568	n/a	RECOG_RESP	1701284	n/a	LTP165	ltpFR	4	3	0	SISTER	1312	n/a	1	n/a	n/a	n/a	n/a	n/a
3403.882	n/a	RECOG_CONF	1701941	n/a	LTP165	ltpFR	4	3	0	SISTER	1312	5	1	n/a	n/a	n/a	n/a	n/a
3406.132	n/a	RECOG_TARGET	1703066	n/a	LTP165	ltpFR	4	3	1	STOCKING	1383	2	0	n/a	n/a	n/a	n/a	n/a
3407.608	n/a	RECOG_RESP	1703804	n/a	LTP165	ltpFR	4	3	1	STOCKING	1383	n/a	0	n/a	n/a	n/a	n/a	n/a
3408.744	n/a	RECOG_CONF	1704372	n/a	LTP165	ltpFR	4	3	1	STOCKING	1383	2	0	n/a	n/a	n/a	n/a	n/a
3410.864	n/a	RECOG_LURE	1705432	n/a	LTP165	ltpFR	4	3	n/a	CONTINENT	367	1	n/a	n/a	n/a	n/a	n/a	n/a
3412.564	n/a	RECOG_RESP	1706282	n/a	LTP165	ltpFR	4	3	n/a	CONTINENT	367	n/a	n/a	n/a	n/a	n/a	n/a	n/a
3413.948	n/a	RECOG_CONF	1706974	n/a	LTP165	ltpFR	4	3	n/a	CONTINENT	367	1	n/a	n/a	n/a	n/a	n/a	n/a
3416.046	n/a	RECOG_TARGET	1708023	n/a	LTP165	ltpFR	4	3	1	WATERFALL	1595	5	0	n/a	n/a	n/a	n/a	n/a
3417.0	n/a	RECOG_RESP	1708500	n/a	LTP165	ltpFR	4	3	1	WATERFALL	1595	n/a	0	n/a	n/a	n/a	n/a	n/a
3418.392	n/a	RECOG_CONF	1709196	n/a	LTP165	ltpFR	4	3	1	WATERFALL	1595	5	0	n/a	n/a	n/a	n/a	n/a
3422.45	n/a	REC_START	1711225	n/a	LTP165	ltpFR	4	4	n/a	n/a	n/a	n/a	n/a	n/a	n/a	n/a	n/a	n/a
3422.484	n/a	RECOG_LURE	1711242	n/a	LTP165	ltpFR	4	4	n/a	TERMITE	1451	1	n/a	n/a	n/a	n/a	n/a	n/a
3424.66	n/a	RECOG_RESP	1712330	n/a	LTP165	ltpFR	4	4	n/a	TERMITE	1451	n/a	n/a	n/a	n/a	n/a	n/a	n/a
3426.066	n/a	RECOG_CONF	1713033	n/a	LTP165	ltpFR	4	4	n/a	TERMITE	1451	1	n/a	n/a	n/a	n/a	n/a	n/a
3428.342	n/a	RECOG_LURE	1714171	n/a	LTP165	ltpFR	4	4	n/a	BOWL	158	2	n/a	n/a	n/a	n/a	n/a	n/a
3429.884	n/a	RECOG_RESP	1714942	n/a	LTP165	ltpFR	4	4	n/a	BOWL	158	n/a	n/a	n/a	n/a	n/a	n/a	n/a
3431.458	n/a	RECOG_CONF	1715729	n/a	LTP165	ltpFR	4	4	n/a	BOWL	158	2	n/a	n/a	n/a	n/a	n/a	n/a
3433.224	n/a	RECOG_LURE	1716612	n/a	LTP165	ltpFR	4	4	n/a	SIBLING	1301	2	n/a	n/a	n/a	n/a	n/a	n/a
3434.458	n/a	RECOG_RESP	1717229	n/a	LTP165	ltpFR	4	4	n/a	SIBLING	1301	n/a	n/a	n/a	n/a	n/a	n/a	n/a
3436.256	n/a	RECOG_CONF	1718128	n/a	LTP165	ltpFR	4	4	n/a	SIBLING	1301	2	n/a	n/a	n/a	n/a	n/a	n/a
3438.106	n/a	RECOG_TARGET	1719053	n/a	LTP165	ltpFR	4	4	1	DASHBOARD	441	5	0	n/a	n/a	n/a	n/a	n/a
3439.368	n/a	RECOG_RESP	1719684	n/a	LTP165	ltpFR	4	4	1	DASHBOARD	441	n/a	0	n/a	n/a	n/a	n/a	n/a
3440.72	n/a	RECOG_CONF	1720360	n/a	LTP165	ltpFR	4	4	1	DASHBOARD	441	5	0	n/a	n/a	n/a	n/a	n/a
3442.678	n/a	RECOG_LURE	1721339	n/a	LTP165	ltpFR	4	4	n/a	DUST	508	3	n/a	n/a	n/a	n/a	n/a	n/a
3443.984	n/a	RECOG_RESP	1721992	n/a	LTP165	ltpFR	4	4	n/a	DUST	508	n/a	n/a	n/a	n/a	n/a	n/a	n/a
3446.114	n/a	RECOG_CONF	1723057	n/a	LTP165	ltpFR	4	4	n/a	DUST	508	3	n/a	n/a	n/a	n/a	n/a	n/a
3448.036	n/a	RECOG_LURE	1724018	n/a	LTP165	ltpFR	4	4	n/a	LITTER	832	1	n/a	n/a	n/a	n/a	n/a	n/a
3450.112	n/a	RECOG_RESP	1725056	n/a	LTP165	ltpFR	4	4	n/a	LITTER	832	n/a	n/a	n/a	n/a	n/a	n/a	n/a
3454.698	n/a	RECOG_CONF	1727349	n/a	LTP165	ltpFR	4	4	n/a	LITTER	832	1	n/a	n/a	n/a	n/a	n/a	n/a
3456.706	n/a	RECOG_TARGET	1728353	n/a	LTP165	ltpFR	4	4	-1	PAINT	1003	5	-1	n/a	n/a	n/a	n/a	n/a
3457.88	n/a	RECOG_RESP	1728940	n/a	LTP165	ltpFR	4	4	-1	PAINT	1003	n/a	-1	n/a	n/a	n/a	n/a	n/a
3459.894	n/a	RECOG_CONF	1729947	n/a	LTP165	ltpFR	4	4	-1	PAINT	1003	5	-1	n/a	n/a	n/a	n/a	n/a
3462.016	n/a	RECOG_TARGET	1731008	n/a	LTP165	ltpFR	4	4	0	FLEA	577	3	0	n/a	n/a	n/a	n/a	n/a
3463.058	n/a	RECOG_RESP	1731529	n/a	LTP165	ltpFR	4	4	0	FLEA	577	n/a	0	n/a	n/a	n/a	n/a	n/a
3464.944	n/a	RECOG_CONF	1732472	n/a	LTP165	ltpFR	4	4	0	FLEA	577	3	0	n/a	n/a	n/a	n/a	n/a
3467.072	n/a	RECOG_TARGET	1733536	n/a	LTP165	ltpFR	4	4	0	TURKEY	1520	3	0	n/a	n/a	n/a	n/a	n/a
3468.454	n/a	RECOG_RESP	1734227	n/a	LTP165	ltpFR	4	4	0	TURKEY	1520	n/a	0	n/a	n/a	n/a	n/a	n/a
3470.552	n/a	RECOG_CONF	1735276	n/a	LTP165	ltpFR	4	4	0	TURKEY	1520	3	0	n/a	n/a	n/a	n/a	n/a
3472.628	n/a	RECOG_TARGET	1736314	n/a	LTP165	ltpFR	4	4	0	CHEDDAR	286	5	n/a	n/a	n/a	n/a	n/a	n/a
3473.422	n/a	RECOG_RESP	1736711	n/a	LTP165	ltpFR	4	4	0	CHEDDAR	286	n/a	n/a	n/a	n/a	n/a	n/a	n/a
3474.782	n/a	RECOG_CONF	1737391	n/a	LTP165	ltpFR	4	4	0	CHEDDAR	286	5	n/a	n/a	n/a	n/a	n/a	n/a
3477.07	n/a	RECOG_LURE	1738535	n/a	LTP165	ltpFR	4	4	n/a	MINER	896	1	n/a	n/a	n/a	n/a	n/a	n/a
3478.484	n/a	RECOG_RESP	1739242	n/a	LTP165	ltpFR	4	4	n/a	MINER	896	n/a	n/a	n/a	n/a	n/a	n/a	n/a
3480.576	n/a	RECOG_CONF	1740288	n/a	LTP165	ltpFR	4	4	n/a	MINER	896	1	n/a	n/a	n/a	n/a	n/a	n/a
3482.45	n/a	RECOG_TARGET	1741225	n/a	LTP165	ltpFR	4	4	1	GRILL	661	5	0	n/a	n/a	n/a	n/a	n/a
3483.372	n/a	RECOG_RESP	1741686	n/a	LTP165	ltpFR	4	4	1	GRILL	661	n/a	0	n/a	n/a	n/a	n/a	n/a
3484.766	n/a	RECOG_CONF	1742383	n/a	LTP165	ltpFR	4	4	1	GRILL	661	5	0	n/a	n/a	n/a	n/a	n/a
3486.89	n/a	RECOG_LURE	1743445	n/a	LTP165	ltpFR	4	4	n/a	KITE	779	3	n/a	n/a	n/a	n/a	n/a	n/a
3488.902	n/a	RECOG_RESP	1744451	n/a	LTP165	ltpFR	4	4	n/a	KITE	779	n/a	n/a	n/a	n/a	n/a	n/a	n/a
3490.36	n/a	RECOG_CONF	1745180	n/a	LTP165	ltpFR	4	4	n/a	KITE	779	3	n/a	n/a	n/a	n/a	n/a	n/a
3492.256	n/a	RECOG_TARGET	1746128	n/a	LTP165	ltpFR	4	4	0	SHOELACE	1289	5	0	n/a	n/a	n/a	n/a	n/a
3493.08	n/a	RECOG_RESP	1746540	n/a	LTP165	ltpFR	4	4	0	SHOELACE	1289	n/a	0	n/a	n/a	n/a	n/a	n/a
3494.354	n/a	RECOG_CONF	1747177	n/a	LTP165	ltpFR	4	4	0	SHOELACE	1289	5	0	n/a	n/a	n/a	n/a	n/a
3496.406	n/a	RECOG_TARGET	1748203	n/a	LTP165	ltpFR	4	4	0	PENCIL	1042	5	0	n/a	n/a	n/a	n/a	n/a
3497.182	n/a	RECOG_RESP	1748591	n/a	LTP165	ltpFR	4	4	0	PENCIL	1042	n/a	0	n/a	n/a	n/a	n/a	n/a
3498.616	n/a	RECOG_CONF	1749308	n/a	LTP165	ltpFR	4	4	0	PENCIL	1042	5	0	n/a	n/a	n/a	n/a	n/a
3500.678	n/a	RECOG_LURE	1750339	n/a	LTP165	ltpFR	4	4	n/a	RAILROAD	1162	2	n/a	n/a	n/a	n/a	n/a	n/a
3502.506	n/a	RECOG_RESP	1751253	n/a	LTP165	ltpFR	4	4	n/a	RAILROAD	1162	n/a	n/a	n/a	n/a	n/a	n/a	n/a
3504.246	n/a	RECOG_CONF	1752123	n/a	LTP165	ltpFR	4	4	n/a	RAILROAD	1162	2	n/a	n/a	n/a	n/a	n/a	n/a
3506.252	n/a	RECOG_TARGET	1753126	n/a	LTP165	ltpFR	4	4	-1	JAM	748	5	-1	n/a	n/a	n/a	n/a	n/a
3507.124	n/a	RECOG_RESP	1753562	n/a	LTP165	ltpFR	4	4	-1	JAM	748	n/a	-1	n/a	n/a	n/a	n/a	n/a
3508.406	n/a	RECOG_CONF	1754203	n/a	LTP165	ltpFR	4	4	-1	JAM	748	5	-1	n/a	n/a	n/a	n/a	n/a
3510.358	n/a	RECOG_TARGET	1755179	n/a	LTP165	ltpFR	4	4	-1	ASTEROID	50	5	-1	n/a	n/a	n/a	n/a	n/a
3511.192	n/a	RECOG_RESP	1755596	n/a	LTP165	ltpFR	4	4	-1	ASTEROID	50	n/a	-1	n/a	n/a	n/a	n/a	n/a
3512.532	n/a	RECOG_CONF	1756266	n/a	LTP165	ltpFR	4	4	-1	ASTEROID	50	5	-1	n/a	n/a	n/a	n/a	n/a
3514.666	n/a	RECOG_TARGET	1757333	n/a	LTP165	ltpFR	4	4	0	CHEST	295	2	0	n/a	n/a	n/a	n/a	n/a
3516.522	n/a	RECOG_RESP	1758261	n/a	LTP165	ltpFR	4	4	0	CHEST	295	n/a	0	n/a	n/a	n/a	n/a	n/a
3519.278	n/a	RECOG_CONF	1759639	n/a	LTP165	ltpFR	4	4	0	CHEST	295	2	0	n/a	n/a	n/a	n/a	n/a
3521.172	n/a	RECOG_TARGET	1760586	n/a	LTP165	ltpFR	4	4	1	SMOG	1330	5	0	n/a	n/a	n/a	n/a	n/a
3522.208	n/a	RECOG_RESP	1761104	n/a	LTP165	ltpFR	4	4	1	SMOG	1330	n/a	0	n/a	n/a	n/a	n/a	n/a
3523.55	n/a	RECOG_CONF	1761775	n/a	LTP165	ltpFR	4	4	1	SMOG	1330	5	0	n/a	n/a	n/a	n/a	n/a
3527.656	n/a	REC_START	1763828	n/a	LTP165	ltpFR	4	5	n/a	n/a	n/a	n/a	n/a	n/a	n/a	n/a	n/a	n/a
3527.686	n/a	RECOG_LURE	1763843	n/a	LTP165	ltpFR	4	5	n/a	PIG	1064	1	n/a	n/a	n/a	n/a	n/a	n/a
3530.066	n/a	RECOG_RESP	1765033	n/a	LTP165	ltpFR	4	5	n/a	PIG	1064	n/a	n/a	n/a	n/a	n/a	n/a	n/a
3532.572	n/a	RECOG_CONF	1766286	n/a	LTP165	ltpFR	4	5	n/a	PIG	1064	1	n/a	n/a	n/a	n/a	n/a	n/a
3534.91	n/a	RECOG_TARGET	1767455	n/a	LTP165	ltpFR	4	5	1	BEER	114	5	0	n/a	n/a	n/a	n/a	n/a
3535.88	n/a	RECOG_RESP	1767940	n/a	LTP165	ltpFR	4	5	1	BEER	114	n/a	0	n/a	n/a	n/a	n/a	n/a
3537.074	n/a	RECOG_CONF	1768537	n/a	LTP165	ltpFR	4	5	1	BEER	114	5	0	n/a	n/a	n/a	n/a	n/a
3538.984	n/a	RECOG_TARGET	1769492	n/a	LTP165	ltpFR	4	5	0	BANK	83	5	1	n/a	n/a	n/a	n/a	n/a
3539.808	n/a	RECOG_RESP	1769904	n/a	LTP165	ltpFR	4	5	0	BANK	83	n/a	1	n/a	n/a	n/a	n/a	n/a
3541.112	n/a	RECOG_CONF	1770556	n/a	LTP165	ltpFR	4	5	0	BANK	83	5	1	n/a	n/a	n/a	n/a	n/a
3543.182	n/a	RECOG_LURE	1771591	n/a	LTP165	ltpFR	4	5	n/a	VITAMIN	1574	1	n/a	n/a	n/a	n/a	n/a	n/a
3546.22	n/a	RECOG_RESP	1773110	n/a	LTP165	ltpFR	4	5	n/a	VITAMIN	1574	n/a	n/a	n/a	n/a	n/a	n/a	n/a
3547.624	n/a	RECOG_CONF	1773812	n/a	LTP165	ltpFR	4	5	n/a	VITAMIN	1574	1	n/a	n/a	n/a	n/a	n/a	n/a
3549.688	n/a	RECOG_LURE	1774844	n/a	LTP165	ltpFR	4	5	n/a	CEILING	265	1	n/a	n/a	n/a	n/a	n/a	n/a
3551.74	n/a	RECOG_RESP	1775870	n/a	LTP165	ltpFR	4	5	n/a	CEILING	265	n/a	n/a	n/a	n/a	n/a	n/a	n/a
3553.12	n/a	RECOG_CONF	1776560	n/a	LTP165	ltpFR	4	5	n/a	CEILING	265	1	n/a	n/a	n/a	n/a	n/a	n/a
3555.096	n/a	RECOG_TARGET	1777548	n/a	LTP165	ltpFR	4	5	0	WOMAN	1620	2	1	n/a	n/a	n/a	n/a	n/a
3557.274	n/a	RECOG_RESP	1778637	n/a	LTP165	ltpFR	4	5	0	WOMAN	1620	n/a	1	n/a	n/a	n/a	n/a	n/a
3559.22	n/a	RECOG_CONF	1779610	n/a	LTP165	ltpFR	4	5	0	WOMAN	1620	2	1	n/a	n/a	n/a	n/a	n/a
3561.65	n/a	RECOG_TARGET	1780825	n/a	LTP165	ltpFR	4	5	1	VEGETABLE	1552	3	1	n/a	n/a	n/a	n/a	n/a
3562.856	n/a	RECOG_RESP	1781428	n/a	LTP165	ltpFR	4	5	1	VEGETABLE	1552	n/a	1	n/a	n/a	n/a	n/a	n/a
3564.168	n/a	RECOG_CONF	1782084	n/a	LTP165	ltpFR	4	5	1	VEGETABLE	1552	3	1	n/a	n/a	n/a	n/a	n/a
3566.15	n/a	RECOG_TARGET	1783075	n/a	LTP165	ltpFR	4	5	-1	ORCHESTRA	981	5	-1	n/a	n/a	n/a	n/a	n/a
3567.044	n/a	RECOG_RESP	1783522	n/a	LTP165	ltpFR	4	5	-1	ORCHESTRA	981	n/a	-1	n/a	n/a	n/a	n/a	n/a
3568.718	n/a	RECOG_CONF	1784359	n/a	LTP165	ltpFR	4	5	-1	ORCHESTRA	981	5	-1	n/a	n/a	n/a	n/a	n/a
3570.764	n/a	RECOG_LURE	1785382	n/a	LTP165	ltpFR	4	5	n/a	WINDSHIELD	1612	2	n/a	n/a	n/a	n/a	n/a	n/a
3572.624	n/a	RECOG_RESP	1786312	n/a	LTP165	ltpFR	4	5	n/a	WINDSHIELD	1612	n/a	n/a	n/a	n/a	n/a	n/a	n/a
3574.022	n/a	RECOG_CONF	1787011	n/a	LTP165	ltpFR	4	5	n/a	WINDSHIELD	1612	2	n/a	n/a	n/a	n/a	n/a	n/a
3575.98	n/a	RECOG_TARGET	1787990	n/a	LTP165	ltpFR	4	5	1	VINE	1568	5	1	n/a	n/a	n/a	n/a	n/a
3576.942	n/a	RECOG_RESP	1788471	n/a	LTP165	ltpFR	4	5	1	VINE	1568	n/a	1	n/a	n/a	n/a	n/a	n/a
3578.358	n/a	RECOG_CONF	1789179	n/a	LTP165	ltpFR	4	5	1	VINE	1568	5	1	n/a	n/a	n/a	n/a	n/a
3580.536	n/a	RECOG_LURE	1790268	n/a	LTP165	ltpFR	4	5	n/a	SHOWER	1296	1	n/a	n/a	n/a	n/a	n/a	n/a
3583.236	n/a	RECOG_RESP	1791618	n/a	LTP165	ltpFR	4	5	n/a	SHOWER	1296	n/a	n/a	n/a	n/a	n/a	n/a	n/a
3584.52	n/a	RECOG_CONF	1792260	n/a	LTP165	ltpFR	4	5	n/a	SHOWER	1296	1	n/a	n/a	n/a	n/a	n/a	n/a
3586.518	n/a	RECOG_TARGET	1793259	n/a	LTP165	ltpFR	4	5	0	PLASTER	1085	3	1	n/a	n/a	n/a	n/a	n/a
3587.904	n/a	RECOG_RESP	1793952	n/a	LTP165	ltpFR	4	5	0	PLASTER	1085	n/a	1	n/a	n/a	n/a	n/a	n/a
3589.816	n/a	RECOG_CONF	1794908	n/a	LTP165	ltpFR	4	5	0	PLASTER	1085	3	1	n/a	n/a	n/a	n/a	n/a
3591.802	n/a	RECOG_TARGET	1795901	n/a	LTP165	ltpFR	4	5	1	SAILOR	1223	4	1	n/a	n/a	n/a	n/a	n/a
3593.0	n/a	RECOG_RESP	1796500	n/a	LTP165	ltpFR	4	5	1	SAILOR	1223	n/a	1	n/a	n/a	n/a	n/a	n/a
3594.31	n/a	RECOG_CONF	1797155	n/a	LTP165	ltpFR	4	5	1	SAILOR	1223	4	1	n/a	n/a	n/a	n/a	n/a
3596.874	n/a	RECOG_TARGET	1798437	n/a	LTP165	ltpFR	4	5	1	PUDDLE	1140	5	0	n/a	n/a	n/a	n/a	n/a
3597.754	n/a	RECOG_RESP	1798877	n/a	LTP165	ltpFR	4	5	1	PUDDLE	1140	n/a	0	n/a	n/a	n/a	n/a	n/a
3599.166	n/a	RECOG_CONF	1799583	n/a	LTP165	ltpFR	4	5	1	PUDDLE	1140	5	0	n/a	n/a	n/a	n/a	n/a
3601.58	n/a	RECOG_TARGET	1800790	n/a	LTP165	ltpFR	4	5	-1	MOAT	903	4	-1	n/a	n/a	n/a	n/a	n/a
3603.176	n/a	RECOG_RESP	1801588	n/a	LTP165	ltpFR	4	5	-1	MOAT	903	n/a	-1	n/a	n/a	n/a	n/a	n/a
3605.138	n/a	RECOG_CONF	1802569	n/a	LTP165	ltpFR	4	5	-1	MOAT	903	4	-1	n/a	n/a	n/a	n/a	n/a
3606.962	n/a	RECOG_LURE	1803481	n/a	LTP165	ltpFR	4	5	n/a	DONOR	485	1	n/a	n/a	n/a	n/a	n/a	n/a
3609.608	n/a	RECOG_RESP	1804804	n/a	LTP165	ltpFR	4	5	n/a	DONOR	485	n/a	n/a	n/a	n/a	n/a	n/a	n/a
3611.856	n/a	RECOG_CONF	1805928	n/a	LTP165	ltpFR	4	5	n/a	DONOR	485	1	n/a	n/a	n/a	n/a	n/a	n/a
3613.71	n/a	RECOG_TARGET	1806855	n/a	LTP165	ltpFR	4	5	-1	BUS	201	3	-1	n/a	n/a	n/a	n/a	n/a
3614.838	n/a	RECOG_RESP	1807419	n/a	LTP165	ltpFR	4	5	-1	BUS	201	n/a	-1	n/a	n/a	n/a	n/a	n/a
3618.536	n/a	RECOG_CONF	1809268	n/a	LTP165	ltpFR	4	5	-1	BUS	201	3	-1	n/a	n/a	n/a	n/a	n/a
3620.358	n/a	RECOG_TARGET	1810179	n/a	LTP165	ltpFR	4	5	1	UNIVERSE	1540	2	1	n/a	n/a	n/a	n/a	n/a
3622.0	n/a	RECOG_RESP	1811000	n/a	LTP165	ltpFR	4	5	1	UNIVERSE	1540	n/a	1	n/a	n/a	n/a	n/a	n/a
3623.656	n/a	RECOG_CONF	1811828	n/a	LTP165	ltpFR	4	5	1	UNIVERSE	1540	2	1	n/a	n/a	n/a	n/a	n/a
3625.864	n/a	RECOG_TARGET	1812932	n/a	LTP165	ltpFR	4	5	1	PICKLE	1059	1	0	n/a	n/a	n/a	n/a	n/a
3628.722	n/a	RECOG_RESP	1814361	n/a	LTP165	ltpFR	4	5	1	PICKLE	1059	n/a	0	n/a	n/a	n/a	n/a	n/a
3630.4	n/a	RECOG_CONF	1815200	n/a	LTP165	ltpFR	4	5	1	PICKLE	1059	1	0	n/a	n/a	n/a	n/a	n/a
3632.562	n/a	RECOG_LURE	1816281	n/a	LTP165	ltpFR	4	5	n/a	BELT	120	1	n/a	n/a	n/a	n/a	n/a	n/a
3635.55	n/a	RECOG_RESP	1817775	n/a	LTP165	ltpFR	4	5	n/a	BELT	120	n/a	n/a	n/a	n/a	n/a	n/a	n/a
3636.838	n/a	RECOG_CONF	1818419	n/a	LTP165	ltpFR	4	5	n/a	BELT	120	1	n/a	n/a	n/a	n/a	n/a	n/a
3641.362	n/a	REC_START	1820681	n/a	LTP165	ltpFR	4	6	n/a	n/a	n/a	n/a	n/a	n/a	n/a	n/a	n/a	n/a
3641.402	n/a	RECOG_TARGET	1820701	n/a	LTP165	ltpFR	4	6	-1	DESIGNER	451	5	-1	n/a	n/a	n/a	n/a	n/a
3642.668	n/a	RECOG_RESP	1821334	n/a	LTP165	ltpFR	4	6	-1	DESIGNER	451	n/a	-1	n/a	n/a	n/a	n/a	n/a
3644.142	n/a	RECOG_CONF	1822071	n/a	LTP165	ltpFR	4	6	-1	DESIGNER	451	5	-1	n/a	n/a	n/a	n/a	n/a
3646.226	n/a	RECOG_LURE	1823113	n/a	LTP165	ltpFR	4	6	n/a	CYCLONE	431	4	n/a	n/a	n/a	n/a	n/a	n/a
3647.442	n/a	RECOG_RESP	1823721	n/a	LTP165	ltpFR	4	6	n/a	CYCLONE	431	n/a	n/a	n/a	n/a	n/a	n/a	n/a
3649.39	n/a	RECOG_CONF	1824695	n/a	LTP165	ltpFR	4	6	n/a	CYCLONE	431	4	n/a	n/a	n/a	n/a	n/a	n/a
3651.482	n/a	RECOG_TARGET	1825741	n/a	LTP165	ltpFR	4	6	-1	SWEATER	1419	5	-1	n/a	n/a	n/a	n/a	n/a
3652.474	n/a	RECOG_RESP	1826237	n/a	LTP165	ltpFR	4	6	-1	SWEATER	1419	n/a	-1	n/a	n/a	n/a	n/a	n/a
3653.89	n/a	RECOG_CONF	1826945	n/a	LTP165	ltpFR	4	6	-1	SWEATER	1419	5	-1	n/a	n/a	n/a	n/a	n/a
3655.898	n/a	RECOG_TARGET	1827949	n/a	LTP165	ltpFR	4	6	1	TURNIP	1521	5	0	n/a	n/a	n/a	n/a	n/a
3656.856	n/a	RECOG_RESP	1828428	n/a	LTP165	ltpFR	4	6	1	TURNIP	1521	n/a	0	n/a	n/a	n/a	n/a	n/a
3658.154	n/a	RECOG_CONF	1829077	n/a	LTP165	ltpFR	4	6	1	TURNIP	1521	5	0	n/a	n/a	n/a	n/a	n/a
3660.238	n/a	RECOG_TARGET	1830119	n/a	LTP165	ltpFR	4	6	1	WAX	1597	5	1	n/a	n/a	n/a	n/a	n/a
3661.268	n/a	RECOG_RESP	1830634	n/a	LTP165	ltpFR	4	6	1	WAX	1597	n/a	1	n/a	n/a	n/a	n/a	n/a
3662.456	n/a	RECOG_CONF	1831228	n/a	LTP165	ltpFR	4	6	1	WAX	1597	5	1	n/a	n/a	n/a	n/a	n/a
3664.602	n/a	RECOG_TARGET	1832301	n/a	LTP165	ltpFR	4	6	-1	PRIMATE	1123	5	-1	n/a	n/a	n/a	n/a	n/a
3665.456	n/a	RECOG_RESP	1832728	n/a	LTP165	ltpFR	4	6	-1	PRIMATE	1123	n/a	-1	n/a	n/a	n/a	n/a	n/a
3666.716	n/a	RECOG_CONF	1833358	n/a	LTP165	ltpFR	4	6	-1	PRIMATE	1123	5	-1	n/a	n/a	n/a	n/a	n/a
3668.928	n/a	RECOG_TARGET	1834464	n/a	LTP165	ltpFR	4	6	0	LIST	830	2	0	n/a	n/a	n/a	n/a	n/a
3672.088	n/a	RECOG_RESP	1836044	n/a	LTP165	ltpFR	4	6	0	LIST	830	n/a	0	n/a	n/a	n/a	n/a	n/a
3673.492	n/a	RECOG_CONF	1836746	n/a	LTP165	ltpFR	4	6	0	LIST	830	2	0	n/a	n/a	n/a	n/a	n/a
3675.416	n/a	RECOG_TARGET	1837708	n/a	LTP165	ltpFR	4	6	1	BRACES	164	1	0	n/a	n/a	n/a	n/a	n/a
3676.74	n/a	RECOG_RESP	1838370	n/a	LTP165	ltpFR	4	6	1	BRACES	164	n/a	0	n/a	n/a	n/a	n/a	n/a
3678.848	n/a	RECOG_CONF	1839424	n/a	LTP165	ltpFR	4	6	1	BRACES	164	1	0	n/a	n/a	n/a	n/a	n/a
3681.024	n/a	RECOG_TARGET	1840512	n/a	LTP165	ltpFR	4	6	1	CAMEL	223	5	1	n/a	n/a	n/a	n/a	n/a
3682.45	n/a	RECOG_RESP	1841225	n/a	LTP165	ltpFR	4	6	1	CAMEL	223	n/a	1	n/a	n/a	n/a	n/a	n/a
3683.73	n/a	RECOG_CONF	1841865	n/a	LTP165	ltpFR	4	6	1	CAMEL	223	5	1	n/a	n/a	n/a	n/a	n/a
3685.772	n/a	RECOG_TARGET	1842886	n/a	LTP165	ltpFR	4	6	-1	CHIMPANZEE	302	5	-1	n/a	n/a	n/a	n/a	n/a
3686.658	n/a	RECOG_RESP	1843329	n/a	LTP165	ltpFR	4	6	-1	CHIMPANZEE	302	n/a	-1	n/a	n/a	n/a	n/a	n/a
3688.062	n/a	RECOG_CONF	1844031	n/a	LTP165	ltpFR	4	6	-1	CHIMPANZEE	302	5	-1	n/a	n/a	n/a	n/a	n/a
3690.204	n/a	RECOG_TARGET	1845102	n/a	LTP165	ltpFR	4	6	-1	GALAXY	617	5	-1	n/a	n/a	n/a	n/a	n/a
3691.058	n/a	RECOG_RESP	1845529	n/a	LTP165	ltpFR	4	6	-1	GALAXY	617	n/a	-1	n/a	n/a	n/a	n/a	n/a
3692.404	n/a	RECOG_CONF	1846202	n/a	LTP165	ltpFR	4	6	-1	GALAXY	617	5	-1	n/a	n/a	n/a	n/a	n/a
3694.386	n/a	RECOG_TARGET	1847193	n/a	LTP165	ltpFR	4	6	0	CLOSET	326	4	1	n/a	n/a	n/a	n/a	n/a
3696.71	n/a	RECOG_RESP	1848355	n/a	LTP165	ltpFR	4	6	0	CLOSET	326	n/a	1	n/a	n/a	n/a	n/a	n/a
3697.898	n/a	RECOG_CONF	1848949	n/a	LTP165	ltpFR	4	6	0	CLOSET	326	4	1	n/a	n/a	n/a	n/a	n/a
