mstime	trial_type	stim_file	subject	experiment	session	trial	task	item_name	item_num	recog_resp	recog_conf	resp	answer	test_x	test_y	test_z	color_r	color_g	color_b	case	font
0	SESS_START	n/a	LTP135	ltpFR	12	n/a	n/a	n/a	n/a	1	5	n/a	n/a	0	0	0	n/a	n/a	n/a	n/a	n/a
29702	START	n/a	LTP135	ltpFR	12	n/a	n/a	n/a	n/a	n/a	n/a	n/a	n/a	n/a	n/a	n/a	n/a	n/a	n/a	n/a	n/a
29727	PROB	n/a	LTP135	ltpFR	12	n/a	n/a	n/a	n/a	n/a	n/a	n/a	18	6	3	9	n/a	n/a	n/a	n/a	n/a
32010	PROB	n/a	LTP135	ltpFR	12	n/a	n/a	n/a	n/a	n/a	n/a	n/a	17	5	8	4	n/a	n/a	n/a	n/a	n/a
34001	PROB	n/a	LTP135	ltpFR	12	n/a	n/a	n/a	n/a	n/a	n/a	n/a	17	7	7	3	n/a	n/a	n/a	n/a	n/a
36117	PROB	n/a	LTP135	ltpFR	12	n/a	n/a	n/a	n/a	n/a	n/a	n/a	21	9	6	6	n/a	n/a	n/a	n/a	n/a
41082	PROB	n/a	LTP135	ltpFR	12	n/a	n/a	n/a	n/a	n/a	n/a	n/a	18	4	6	8	n/a	n/a	n/a	n/a	n/a
42714	PROB	n/a	LTP135	ltpFR	12	n/a	n/a	n/a	n/a	n/a	n/a	n/a	12	5	5	2	n/a	n/a	n/a	n/a	n/a
43981	PROB	n/a	LTP135	ltpFR	12	n/a	n/a	n/a	n/a	n/a	n/a	n/a	19	9	8	2	n/a	n/a	n/a	n/a	n/a
45630	PROB	n/a	LTP135	ltpFR	12	n/a	n/a	n/a	n/a	n/a	n/a	n/a	18	6	8	4	n/a	n/a	n/a	n/a	n/a
47071	PROB	n/a	LTP135	ltpFR	12	n/a	n/a	n/a	n/a	n/a	n/a	n/a	14	3	4	7	n/a	n/a	n/a	n/a	n/a
48882	STOP	n/a	LTP135	ltpFR	12	n/a	n/a	n/a	n/a	n/a	n/a	n/a	n/a	n/a	n/a	n/a	n/a	n/a	n/a	n/a	n/a
84341	WORD	wordpools/wasnorm_wordpool.txt	LTP135	ltpFR	12	1	1	VIRUS	1572	1	n/a	0	n/a	0	0	0	0.422607421875	0.5869140625	0	upper	amplitud.ttf
88457	WORD	wordpools/wasnorm_wordpool.txt	LTP135	ltpFR	12	1	1	WELL	1600	n/a	n/a	0	n/a	0	0	0	0.422607421875	0.5869140625	0	upper	amplitud.ttf
92280	WORD	wordpools/wasnorm_wordpool.txt	LTP135	ltpFR	12	1	1	MOTOR	922	n/a	n/a	0	n/a	0	0	0	0.422607421875	0.5869140625	0	upper	amplitud.ttf
96096	WORD	wordpools/wasnorm_wordpool.txt	LTP135	ltpFR	12	1	1	CARAVAN	242	n/a	n/a	0	n/a	0	0	0	0.422607421875	0.5869140625	0	upper	amplitud.ttf
100252	WORD	wordpools/wasnorm_wordpool.txt	LTP135	ltpFR	12	1	0	KNAPSACK	783	n/a	n/a	1	n/a	0	0	0	0.57763671875	0.412841796875	1	lower	zerothre.ttf
104234	WORD	wordpools/wasnorm_wordpool.txt	LTP135	ltpFR	12	1	0	DAD	433	n/a	n/a	1	n/a	0	0	0	0.57763671875	0.412841796875	1	lower	zerothre.ttf
108441	WORD	wordpools/wasnorm_wordpool.txt	LTP135	ltpFR	12	1	0	PALACE	1006	n/a	n/a	1	n/a	0	0	0	0.57763671875	0.412841796875	1	lower	zerothre.ttf
112356	WORD	wordpools/wasnorm_wordpool.txt	LTP135	ltpFR	12	1	0	FEAST	556	n/a	n/a	1	n/a	0	0	0	0.57763671875	0.412841796875	1	lower	zerothre.ttf
116538	WORD	wordpools/wasnorm_wordpool.txt	LTP135	ltpFR	12	1	0	GRASS	655	n/a	n/a	0	n/a	0	0	0	0.57763671875	0.412841796875	1	lower	zerothre.ttf
120620	WORD	wordpools/wasnorm_wordpool.txt	LTP135	ltpFR	12	1	0	EMPEROR	529	n/a	n/a	1	n/a	0	0	0	0.57763671875	0.412841796875	1	lower	zerothre.ttf
124819	WORD	wordpools/wasnorm_wordpool.txt	LTP135	ltpFR	12	1	1	TURTLE	1522	n/a	n/a	1	n/a	0	0	0	0.422607421875	0.5869140625	0	upper	amplitud.ttf
128942	WORD	wordpools/wasnorm_wordpool.txt	LTP135	ltpFR	12	1	1	OYSTER	995	n/a	n/a	1	n/a	0	0	0	0.422607421875	0.5869140625	0	upper	amplitud.ttf
132982	WORD	wordpools/wasnorm_wordpool.txt	LTP135	ltpFR	12	1	1	SKUNK	1321	n/a	n/a	1	n/a	0	0	0	0.422607421875	0.5869140625	0	upper	amplitud.ttf
137073	WORD	wordpools/wasnorm_wordpool.txt	LTP135	ltpFR	12	1	1	ARCHITECT	36	n/a	n/a	1	n/a	0	0	0	0.422607421875	0.5869140625	0	upper	amplitud.ttf
140955	WORD	wordpools/wasnorm_wordpool.txt	LTP135	ltpFR	12	1	0	BUNNY	198	n/a	n/a	1	n/a	0	0	0	0.57763671875	0.412841796875	1	lower	zerothre.ttf
144828	WORD	wordpools/wasnorm_wordpool.txt	LTP135	ltpFR	12	1	0	SLIME	1327	n/a	n/a	0	n/a	0	0	0	0.57763671875	0.412841796875	1	lower	zerothre.ttf
147836	START	n/a	LTP135	ltpFR	12	n/a	n/a	n/a	n/a	n/a	n/a	n/a	n/a	n/a	n/a	n/a	n/a	n/a	n/a	n/a	n/a
148701	PROB	n/a	LTP135	ltpFR	12	n/a	n/a	n/a	n/a	n/a	n/a	n/a	15	9	1	5	n/a	n/a	n/a	n/a	n/a
150610	PROB	n/a	LTP135	ltpFR	12	n/a	n/a	n/a	n/a	n/a	n/a	n/a	16	5	4	7	n/a	n/a	n/a	n/a	n/a
152142	PROB	n/a	LTP135	ltpFR	12	n/a	n/a	n/a	n/a	n/a	n/a	n/a	14	2	7	5	n/a	n/a	n/a	n/a	n/a
153908	PROB	n/a	LTP135	ltpFR	12	n/a	n/a	n/a	n/a	n/a	n/a	n/a	14	2	5	7	n/a	n/a	n/a	n/a	n/a
155266	STOP	n/a	LTP135	ltpFR	12	n/a	n/a	n/a	n/a	n/a	n/a	n/a	n/a	n/a	n/a	n/a	n/a	n/a	n/a	n/a	n/a
157641	REC_START	n/a	LTP135	ltpFR	12	1	n/a	n/a	n/a	n/a	n/a	n/a	n/a	0	0	0	n/a	n/a	n/a	n/a	n/a
158623	REC_WORD	wordpools/wasnorm_wordpool.txt	LTP135	ltpFR	12	1	0	SLIME	1327	n/a	n/a	0	n/a	0	0	0	n/a	n/a	n/a	n/a	n/a
160170	REC_WORD	wordpools/wasnorm_wordpool.txt	LTP135	ltpFR	12	1	0	BUNNY	198	n/a	n/a	1	n/a	0	0	0	n/a	n/a	n/a	n/a	n/a
162081	REC_WORD	wordpools/wasnorm_wordpool.txt	LTP135	ltpFR	12	1	1	OYSTER	995	n/a	n/a	1	n/a	0	0	0	n/a	n/a	n/a	n/a	n/a
164385	REC_WORD	wordpools/wasnorm_wordpool.txt	LTP135	ltpFR	12	1	1	TURTLE	1522	n/a	n/a	1	n/a	0	0	0	n/a	n/a	n/a	n/a	n/a
167668	REC_WORD	wordpools/wasnorm_wordpool.txt	LTP135	ltpFR	12	1	0	GRASS	655	n/a	n/a	0	n/a	0	0	0	n/a	n/a	n/a	n/a	n/a
171249	REC_WORD	wordpools/wasnorm_wordpool.txt	LTP135	ltpFR	12	1	0	FEAST	556	n/a	n/a	1	n/a	0	0	0	n/a	n/a	n/a	n/a	n/a
173520	REC_WORD	wordpools/wasnorm_wordpool.txt	LTP135	ltpFR	12	1	0	DAD	433	n/a	n/a	1	n/a	0	0	0	n/a	n/a	n/a	n/a	n/a
175091	REC_WORD	wordpools/wasnorm_wordpool.txt	LTP135	ltpFR	12	1	0	EMPEROR	529	n/a	n/a	1	n/a	0	0	0	n/a	n/a	n/a	n/a	n/a
176668	REC_WORD	wordpools/wasnorm_wordpool.txt	LTP135	ltpFR	12	1	0	PALACE	1006	n/a	n/a	1	n/a	0	0	0	n/a	n/a	n/a	n/a	n/a
178314	REC_WORD	wordpools/wasnorm_wordpool.txt	LTP135	ltpFR	12	1	1	ARCHITECT	36	n/a	n/a	1	n/a	0	0	0	n/a	n/a	n/a	n/a	n/a
181082	REC_WORD	wordpools/wasnorm_wordpool.txt	LTP135	ltpFR	12	1	1	VIRUS	1572	n/a	n/a	0	n/a	0	0	0	n/a	n/a	n/a	n/a	n/a
183517	REC_WORD	wordpools/wasnorm_wordpool.txt	LTP135	ltpFR	12	1	1	WELL	1600	n/a	n/a	0	n/a	0	0	0	n/a	n/a	n/a	n/a	n/a
190531	REC_WORD	wordpools/wasnorm_wordpool.txt	LTP135	ltpFR	12	1	1	CARAVAN	242	n/a	n/a	0	n/a	0	0	0	n/a	n/a	n/a	n/a	n/a
236446	START	n/a	LTP135	ltpFR	12	n/a	n/a	n/a	n/a	n/a	n/a	n/a	n/a	n/a	n/a	n/a	n/a	n/a	n/a	n/a	n/a
237953	PROB	n/a	LTP135	ltpFR	12	n/a	n/a	n/a	n/a	n/a	n/a	n/a	11	4	1	6	n/a	n/a	n/a	n/a	n/a
240086	PROB	n/a	LTP135	ltpFR	12	n/a	n/a	n/a	n/a	n/a	n/a	n/a	16	5	2	9	n/a	n/a	n/a	n/a	n/a
242027	PROB	n/a	LTP135	ltpFR	12	n/a	n/a	n/a	n/a	n/a	n/a	n/a	11	8	2	1	n/a	n/a	n/a	n/a	n/a
243586	STOP	n/a	LTP135	ltpFR	12	n/a	n/a	n/a	n/a	n/a	n/a	n/a	n/a	n/a	n/a	n/a	n/a	n/a	n/a	n/a	n/a
245409	WORD	wordpools/wasnorm_wordpool.txt	LTP135	ltpFR	12	2	1	LIVER	833	n/a	n/a	0	n/a	0	0	0	0.422607421875	0.5869140625	0	upper	amplitud.ttf
248417	START	n/a	LTP135	ltpFR	12	n/a	n/a	n/a	n/a	n/a	n/a	n/a	n/a	n/a	n/a	n/a	n/a	n/a	n/a	n/a	n/a
249316	PROB	n/a	LTP135	ltpFR	12	n/a	n/a	n/a	n/a	n/a	n/a	n/a	16	3	5	8	n/a	n/a	n/a	n/a	n/a
252057	PROB	n/a	LTP135	ltpFR	12	n/a	n/a	n/a	n/a	n/a	n/a	n/a	8	4	3	1	n/a	n/a	n/a	n/a	n/a
253481	PROB	n/a	LTP135	ltpFR	12	n/a	n/a	n/a	n/a	n/a	n/a	n/a	14	7	4	3	n/a	n/a	n/a	n/a	n/a
255194	STOP	n/a	LTP135	ltpFR	12	n/a	n/a	n/a	n/a	n/a	n/a	n/a	n/a	n/a	n/a	n/a	n/a	n/a	n/a	n/a	n/a
257596	WORD	wordpools/wasnorm_wordpool.txt	LTP135	ltpFR	12	2	1	MICROWAVE	892	n/a	n/a	0	n/a	0	0	0	0.422607421875	0.5869140625	0	upper	amplitud.ttf
260604	START	n/a	LTP135	ltpFR	12	n/a	n/a	n/a	n/a	n/a	n/a	n/a	n/a	n/a	n/a	n/a	n/a	n/a	n/a	n/a	n/a
261803	PROB	n/a	LTP135	ltpFR	12	n/a	n/a	n/a	n/a	n/a	n/a	n/a	14	9	4	1	n/a	n/a	n/a	n/a	n/a
264776	PROB	n/a	LTP135	ltpFR	12	n/a	n/a	n/a	n/a	n/a	n/a	n/a	16	4	7	5	n/a	n/a	n/a	n/a	n/a
267745	STOP	n/a	LTP135	ltpFR	12	n/a	n/a	n/a	n/a	n/a	n/a	n/a	n/a	n/a	n/a	n/a	n/a	n/a	n/a	n/a	n/a
269551	WORD	wordpools/wasnorm_wordpool.txt	LTP135	ltpFR	12	2	1	MULE	931	n/a	n/a	1	n/a	0	0	0	0.422607421875	0.5869140625	0	upper	amplitud.ttf
272558	START	n/a	LTP135	ltpFR	12	n/a	n/a	n/a	n/a	n/a	n/a	n/a	n/a	n/a	n/a	n/a	n/a	n/a	n/a	n/a	n/a
273449	PROB	n/a	LTP135	ltpFR	12	n/a	n/a	n/a	n/a	n/a	n/a	n/a	12	1	4	7	n/a	n/a	n/a	n/a	n/a
275507	PROB	n/a	LTP135	ltpFR	12	n/a	n/a	n/a	n/a	n/a	n/a	n/a	18	5	4	9	n/a	n/a	n/a	n/a	n/a
277314	PROB	n/a	LTP135	ltpFR	12	n/a	n/a	n/a	n/a	n/a	n/a	n/a	17	5	6	6	n/a	n/a	n/a	n/a	n/a
279290	STOP	n/a	LTP135	ltpFR	12	n/a	n/a	n/a	n/a	n/a	n/a	n/a	n/a	n/a	n/a	n/a	n/a	n/a	n/a	n/a	n/a
281695	WORD	wordpools/wasnorm_wordpool.txt	LTP135	ltpFR	12	2	1	HUT	729	n/a	n/a	0	n/a	0	0	0	0.422607421875	0.5869140625	0	upper	amplitud.ttf
284703	START	n/a	LTP135	ltpFR	12	n/a	n/a	n/a	n/a	n/a	n/a	n/a	n/a	n/a	n/a	n/a	n/a	n/a	n/a	n/a	n/a
285545	PROB	n/a	LTP135	ltpFR	12	n/a	n/a	n/a	n/a	n/a	n/a	n/a	21	8	9	4	n/a	n/a	n/a	n/a	n/a
287244	PROB	n/a	LTP135	ltpFR	12	n/a	n/a	n/a	n/a	n/a	n/a	n/a	8	4	1	3	n/a	n/a	n/a	n/a	n/a
288676	PROB	n/a	LTP135	ltpFR	12	n/a	n/a	n/a	n/a	n/a	n/a	n/a	11	5	1	5	n/a	n/a	n/a	n/a	n/a
289792	PROB	n/a	LTP135	ltpFR	12	n/a	n/a	n/a	n/a	n/a	n/a	n/a	19	9	4	6	n/a	n/a	n/a	n/a	n/a
292703	STOP	n/a	LTP135	ltpFR	12	n/a	n/a	n/a	n/a	n/a	n/a	n/a	n/a	n/a	n/a	n/a	n/a	n/a	n/a	n/a	n/a
293733	WORD	wordpools/wasnorm_wordpool.txt	LTP135	ltpFR	12	2	1	SHARK	1275	n/a	n/a	1	n/a	0	0	0	0.422607421875	0.5869140625	0	upper	amplitud.ttf
296740	START	n/a	LTP135	ltpFR	12	n/a	n/a	n/a	n/a	n/a	n/a	n/a	n/a	n/a	n/a	n/a	n/a	n/a	n/a	n/a	n/a
297689	PROB	n/a	LTP135	ltpFR	12	n/a	n/a	n/a	n/a	n/a	n/a	n/a	13	6	3	4	n/a	n/a	n/a	n/a	n/a
299848	PROB	n/a	LTP135	ltpFR	12	n/a	n/a	n/a	n/a	n/a	n/a	n/a	12	5	5	2	n/a	n/a	n/a	n/a	n/a
301123	PROB	n/a	LTP135	ltpFR	12	n/a	n/a	n/a	n/a	n/a	n/a	n/a	18	6	7	5	n/a	n/a	n/a	n/a	n/a
302729	PROB	n/a	LTP135	ltpFR	12	n/a	n/a	n/a	n/a	n/a	n/a	n/a	17	3	5	9	n/a	n/a	n/a	n/a	n/a
304194	STOP	n/a	LTP135	ltpFR	12	n/a	n/a	n/a	n/a	n/a	n/a	n/a	n/a	n/a	n/a	n/a	n/a	n/a	n/a	n/a	n/a
305854	WORD	wordpools/wasnorm_wordpool.txt	LTP135	ltpFR	12	2	1	CHERRY	293	n/a	n/a	0	n/a	0	0	0	0.422607421875	0.5869140625	0	upper	amplitud.ttf
308862	START	n/a	LTP135	ltpFR	12	n/a	n/a	n/a	n/a	n/a	n/a	n/a	n/a	n/a	n/a	n/a	n/a	n/a	n/a	n/a	n/a
309795	PROB	n/a	LTP135	ltpFR	12	n/a	n/a	n/a	n/a	n/a	n/a	n/a	10	5	2	3	n/a	n/a	n/a	n/a	n/a
311169	PROB	n/a	LTP135	ltpFR	12	n/a	n/a	n/a	n/a	n/a	n/a	n/a	16	3	7	6	n/a	n/a	n/a	n/a	n/a
313168	PROB	n/a	LTP135	ltpFR	12	n/a	n/a	n/a	n/a	n/a	n/a	n/a	16	6	7	3	n/a	n/a	n/a	n/a	n/a
314783	PROB	n/a	LTP135	ltpFR	12	n/a	n/a	n/a	n/a	n/a	n/a	n/a	19	8	2	9	n/a	n/a	n/a	n/a	n/a
316151	STOP	n/a	LTP135	ltpFR	12	n/a	n/a	n/a	n/a	n/a	n/a	n/a	n/a	n/a	n/a	n/a	n/a	n/a	n/a	n/a	n/a
318042	WORD	wordpools/wasnorm_wordpool.txt	LTP135	ltpFR	12	2	1	ROOSTER	1209	n/a	n/a	1	n/a	0	0	0	0.422607421875	0.5869140625	0	upper	amplitud.ttf
321049	START	n/a	LTP135	ltpFR	12	n/a	n/a	n/a	n/a	n/a	n/a	n/a	n/a	n/a	n/a	n/a	n/a	n/a	n/a	n/a	n/a
322107	PROB	n/a	LTP135	ltpFR	12	n/a	n/a	n/a	n/a	n/a	n/a	n/a	10	4	3	3	n/a	n/a	n/a	n/a	n/a
323798	PROB	n/a	LTP135	ltpFR	12	n/a	n/a	n/a	n/a	n/a	n/a	n/a	20	9	7	4	n/a	n/a	n/a	n/a	n/a
326064	PROB	n/a	LTP135	ltpFR	12	n/a	n/a	n/a	n/a	n/a	n/a	n/a	13	6	2	5	n/a	n/a	n/a	n/a	n/a
328242	STOP	n/a	LTP135	ltpFR	12	n/a	n/a	n/a	n/a	n/a	n/a	n/a	n/a	n/a	n/a	n/a	n/a	n/a	n/a	n/a	n/a
330237	WORD	wordpools/wasnorm_wordpool.txt	LTP135	ltpFR	12	2	1	SKIRT	1319	n/a	n/a	0	n/a	0	0	0	0.422607421875	0.5869140625	0	upper	amplitud.ttf
333245	START	n/a	LTP135	ltpFR	12	n/a	n/a	n/a	n/a	n/a	n/a	n/a	n/a	n/a	n/a	n/a	n/a	n/a	n/a	n/a	n/a
334152	PROB	n/a	LTP135	ltpFR	12	n/a	n/a	n/a	n/a	n/a	n/a	n/a	7	2	3	2	n/a	n/a	n/a	n/a	n/a
337135	PROB	n/a	LTP135	ltpFR	12	n/a	n/a	n/a	n/a	n/a	n/a	n/a	15	5	3	7	n/a	n/a	n/a	n/a	n/a
340506	STOP	n/a	LTP135	ltpFR	12	n/a	n/a	n/a	n/a	n/a	n/a	n/a	n/a	n/a	n/a	n/a	n/a	n/a	n/a	n/a	n/a
342058	WORD	wordpools/wasnorm_wordpool.txt	LTP135	ltpFR	12	2	1	AGENT	10	n/a	n/a	1	n/a	0	0	0	0.422607421875	0.5869140625	0	upper	amplitud.ttf
345066	START	n/a	LTP135	ltpFR	12	n/a	n/a	n/a	n/a	n/a	n/a	n/a	n/a	n/a	n/a	n/a	n/a	n/a	n/a	n/a	n/a
346207	PROB	n/a	LTP135	ltpFR	12	n/a	n/a	n/a	n/a	n/a	n/a	n/a	18	8	6	4	n/a	n/a	n/a	n/a	n/a
347998	PROB	n/a	LTP135	ltpFR	12	n/a	n/a	n/a	n/a	n/a	n/a	n/a	4	1	1	2	n/a	n/a	n/a	n/a	n/a
349480	PROB	n/a	LTP135	ltpFR	12	n/a	n/a	n/a	n/a	n/a	n/a	n/a	12	3	7	2	n/a	n/a	n/a	n/a	n/a
351263	PROB	n/a	LTP135	ltpFR	12	n/a	n/a	n/a	n/a	n/a	n/a	n/a	17	7	4	6	n/a	n/a	n/a	n/a	n/a
352745	STOP	n/a	LTP135	ltpFR	12	n/a	n/a	n/a	n/a	n/a	n/a	n/a	n/a	n/a	n/a	n/a	n/a	n/a	n/a	n/a	n/a
354079	WORD	wordpools/wasnorm_wordpool.txt	LTP135	ltpFR	12	2	1	SHERIFF	1284	n/a	n/a	1	n/a	0	0	0	0.422607421875	0.5869140625	0	upper	amplitud.ttf
357086	START	n/a	LTP135	ltpFR	12	n/a	n/a	n/a	n/a	n/a	n/a	n/a	n/a	n/a	n/a	n/a	n/a	n/a	n/a	n/a	n/a
357944	PROB	n/a	LTP135	ltpFR	12	n/a	n/a	n/a	n/a	n/a	n/a	n/a	8	1	1	6	n/a	n/a	n/a	n/a	n/a
359302	PROB	n/a	LTP135	ltpFR	12	n/a	n/a	n/a	n/a	n/a	n/a	n/a	8	2	2	4	n/a	n/a	n/a	n/a	n/a
362326	PROB	n/a	LTP135	ltpFR	12	n/a	n/a	n/a	n/a	n/a	n/a	n/a	19	9	2	8	n/a	n/a	n/a	n/a	n/a
363874	STOP	n/a	LTP135	ltpFR	12	n/a	n/a	n/a	n/a	n/a	n/a	n/a	n/a	n/a	n/a	n/a	n/a	n/a	n/a	n/a	n/a
366074	WORD	wordpools/wasnorm_wordpool.txt	LTP135	ltpFR	12	2	1	SHELTER	1282	n/a	n/a	0	n/a	0	0	0	0.422607421875	0.5869140625	0	upper	amplitud.ttf
369082	START	n/a	LTP135	ltpFR	12	n/a	n/a	n/a	n/a	n/a	n/a	n/a	n/a	n/a	n/a	n/a	n/a	n/a	n/a	n/a	n/a
370106	PROB	n/a	LTP135	ltpFR	12	n/a	n/a	n/a	n/a	n/a	n/a	n/a	14	4	9	1	n/a	n/a	n/a	n/a	n/a
371498	PROB	n/a	LTP135	ltpFR	12	n/a	n/a	n/a	n/a	n/a	n/a	n/a	9	3	2	4	n/a	n/a	n/a	n/a	n/a
373122	PROB	n/a	LTP135	ltpFR	12	n/a	n/a	n/a	n/a	n/a	n/a	n/a	11	3	2	6	n/a	n/a	n/a	n/a	n/a
374871	PROB	n/a	LTP135	ltpFR	12	n/a	n/a	n/a	n/a	n/a	n/a	n/a	15	9	5	1	n/a	n/a	n/a	n/a	n/a
376210	STOP	n/a	LTP135	ltpFR	12	n/a	n/a	n/a	n/a	n/a	n/a	n/a	n/a	n/a	n/a	n/a	n/a	n/a	n/a	n/a	n/a
377912	WORD	wordpools/wasnorm_wordpool.txt	LTP135	ltpFR	12	2	1	RECIPE	1175	n/a	n/a	0	n/a	0	0	0	0.422607421875	0.5869140625	0	upper	amplitud.ttf
380920	START	n/a	LTP135	ltpFR	12	n/a	n/a	n/a	n/a	n/a	n/a	n/a	n/a	n/a	n/a	n/a	n/a	n/a	n/a	n/a	n/a
382094	PROB	n/a	LTP135	ltpFR	12	n/a	n/a	n/a	n/a	n/a	n/a	n/a	9	4	4	1	n/a	n/a	n/a	n/a	n/a
383775	PROB	n/a	LTP135	ltpFR	12	n/a	n/a	n/a	n/a	n/a	n/a	n/a	16	7	5	4	n/a	n/a	n/a	n/a	n/a
385775	PROB	n/a	LTP135	ltpFR	12	n/a	n/a	n/a	n/a	n/a	n/a	n/a	9	6	2	1	n/a	n/a	n/a	n/a	n/a
388920	STOP	n/a	LTP135	ltpFR	12	n/a	n/a	n/a	n/a	n/a	n/a	n/a	n/a	n/a	n/a	n/a	n/a	n/a	n/a	n/a	n/a
389790	WORD	wordpools/wasnorm_wordpool.txt	LTP135	ltpFR	12	2	1	MEAL	882	n/a	n/a	0	n/a	0	0	0	0.422607421875	0.5869140625	0	upper	amplitud.ttf
392799	START	n/a	LTP135	ltpFR	12	n/a	n/a	n/a	n/a	n/a	n/a	n/a	n/a	n/a	n/a	n/a	n/a	n/a	n/a	n/a	n/a
393973	PROB	n/a	LTP135	ltpFR	12	n/a	n/a	n/a	n/a	n/a	n/a	n/a	14	2	4	8	n/a	n/a	n/a	n/a	n/a
395489	PROB	n/a	LTP135	ltpFR	12	n/a	n/a	n/a	n/a	n/a	n/a	n/a	18	4	5	9	n/a	n/a	n/a	n/a	n/a
397263	PROB	n/a	LTP135	ltpFR	12	n/a	n/a	n/a	n/a	n/a	n/a	n/a	15	8	5	2	n/a	n/a	n/a	n/a	n/a
398605	PROB	n/a	LTP135	ltpFR	12	n/a	n/a	n/a	n/a	n/a	n/a	n/a	12	2	4	6	n/a	n/a	n/a	n/a	n/a
399930	STOP	n/a	LTP135	ltpFR	12	n/a	n/a	n/a	n/a	n/a	n/a	n/a	n/a	n/a	n/a	n/a	n/a	n/a	n/a	n/a	n/a
401903	WORD	wordpools/wasnorm_wordpool.txt	LTP135	ltpFR	12	2	1	RADISH	1158	n/a	n/a	0	n/a	0	0	0	0.422607421875	0.5869140625	0	upper	amplitud.ttf
404911	START	n/a	LTP135	ltpFR	12	n/a	n/a	n/a	n/a	n/a	n/a	n/a	n/a	n/a	n/a	n/a	n/a	n/a	n/a	n/a	n/a
406019	PROB	n/a	LTP135	ltpFR	12	n/a	n/a	n/a	n/a	n/a	n/a	n/a	23	6	8	9	n/a	n/a	n/a	n/a	n/a
409209	PROB	n/a	LTP135	ltpFR	12	n/a	n/a	n/a	n/a	n/a	n/a	n/a	16	6	4	6	n/a	n/a	n/a	n/a	n/a
410783	PROB	n/a	LTP135	ltpFR	12	n/a	n/a	n/a	n/a	n/a	n/a	n/a	10	2	4	4	n/a	n/a	n/a	n/a	n/a
412506	STOP	n/a	LTP135	ltpFR	12	n/a	n/a	n/a	n/a	n/a	n/a	n/a	n/a	n/a	n/a	n/a	n/a	n/a	n/a	n/a	n/a
414049	WORD	wordpools/wasnorm_wordpool.txt	LTP135	ltpFR	12	2	1	STRAWBERRY	1391	n/a	n/a	0	n/a	0	0	0	0.422607421875	0.5869140625	0	upper	amplitud.ttf
417057	START	n/a	LTP135	ltpFR	12	n/a	n/a	n/a	n/a	n/a	n/a	n/a	n/a	n/a	n/a	n/a	n/a	n/a	n/a	n/a	n/a
417889	PROB	n/a	LTP135	ltpFR	12	n/a	n/a	n/a	n/a	n/a	n/a	n/a	19	7	4	8	n/a	n/a	n/a	n/a	n/a
420488	PROB	n/a	LTP135	ltpFR	12	n/a	n/a	n/a	n/a	n/a	n/a	n/a	9	1	2	6	n/a	n/a	n/a	n/a	n/a
425057	STOP	n/a	LTP135	ltpFR	12	n/a	n/a	n/a	n/a	n/a	n/a	n/a	n/a	n/a	n/a	n/a	n/a	n/a	n/a	n/a	n/a
426136	WORD	wordpools/wasnorm_wordpool.txt	LTP135	ltpFR	12	2	1	ENVELOPE	537	n/a	n/a	0	n/a	0	0	0	0.422607421875	0.5869140625	0	upper	amplitud.ttf
429144	START	n/a	LTP135	ltpFR	12	n/a	n/a	n/a	n/a	n/a	n/a	n/a	n/a	n/a	n/a	n/a	n/a	n/a	n/a	n/a	n/a
430268	PROB	n/a	LTP135	ltpFR	12	n/a	n/a	n/a	n/a	n/a	n/a	n/a	7	1	4	2	n/a	n/a	n/a	n/a	n/a
431943	PROB	n/a	LTP135	ltpFR	12	n/a	n/a	n/a	n/a	n/a	n/a	n/a	6	2	1	3	n/a	n/a	n/a	n/a	n/a
433367	PROB	n/a	LTP135	ltpFR	12	n/a	n/a	n/a	n/a	n/a	n/a	n/a	11	4	6	1	n/a	n/a	n/a	n/a	n/a
434550	PROB	n/a	LTP135	ltpFR	12	n/a	n/a	n/a	n/a	n/a	n/a	n/a	21	8	6	7	n/a	n/a	n/a	n/a	n/a
436713	STOP	n/a	LTP135	ltpFR	12	n/a	n/a	n/a	n/a	n/a	n/a	n/a	n/a	n/a	n/a	n/a	n/a	n/a	n/a	n/a	n/a
438891	REC_START	n/a	LTP135	ltpFR	12	2	n/a	n/a	n/a	n/a	n/a	n/a	n/a	0	0	0	n/a	n/a	n/a	n/a	n/a
441684	REC_WORD	wordpools/wasnorm_wordpool.txt	LTP135	ltpFR	12	2	1	STRAWBERRY	1391	n/a	n/a	0	n/a	0	0	0	n/a	n/a	n/a	n/a	n/a
443580	REC_WORD	wordpools/wasnorm_wordpool.txt	LTP135	ltpFR	12	2	1	CHERRY	293	n/a	n/a	0	n/a	0	0	0	n/a	n/a	n/a	n/a	n/a
445336	REC_WORD	wordpools/wasnorm_wordpool.txt	LTP135	ltpFR	12	2	1	SHERIFF	1284	n/a	n/a	1	n/a	0	0	0	n/a	n/a	n/a	n/a	n/a
446997	REC_WORD	wordpools/wasnorm_wordpool.txt	LTP135	ltpFR	12	2	1	SKIRT	1319	n/a	n/a	0	n/a	0	0	0	n/a	n/a	n/a	n/a	n/a
449601	REC_WORD	wordpools/wasnorm_wordpool.txt	LTP135	ltpFR	12	2	1	AGENT	10	n/a	n/a	1	n/a	0	0	0	n/a	n/a	n/a	n/a	n/a
451622	REC_WORD	wordpools/wasnorm_wordpool.txt	LTP135	ltpFR	12	2	1	MEAL	882	n/a	n/a	0	n/a	0	0	0	n/a	n/a	n/a	n/a	n/a
462183	REC_WORD	wordpools/wasnorm_wordpool.txt	LTP135	ltpFR	12	2	1	MULE	931	n/a	n/a	1	n/a	0	0	0	n/a	n/a	n/a	n/a	n/a
476994	REC_WORD	wordpools/wasnorm_wordpool.txt	LTP135	ltpFR	12	2	1	SHELTER	1282	n/a	n/a	0	n/a	0	0	0	n/a	n/a	n/a	n/a	n/a
487735	REC_WORD	wordpools/wasnorm_wordpool.txt	LTP135	ltpFR	12	2	1	ROOSTER	1209	n/a	n/a	1	n/a	0	0	0	n/a	n/a	n/a	n/a	n/a
498660	REC_WORD	wordpools/wasnorm_wordpool.txt	LTP135	ltpFR	12	2	1	RADISH	1158	n/a	n/a	0	n/a	0	0	0	n/a	n/a	n/a	n/a	n/a
518929	START	n/a	LTP135	ltpFR	12	n/a	n/a	n/a	n/a	n/a	n/a	n/a	n/a	n/a	n/a	n/a	n/a	n/a	n/a	n/a	n/a
520436	PROB	n/a	LTP135	ltpFR	12	n/a	n/a	n/a	n/a	n/a	n/a	n/a	21	9	9	3	n/a	n/a	n/a	n/a	n/a
522569	PROB	n/a	LTP135	ltpFR	12	n/a	n/a	n/a	n/a	n/a	n/a	n/a	14	7	5	2	n/a	n/a	n/a	n/a	n/a
524377	PROB	n/a	LTP135	ltpFR	12	n/a	n/a	n/a	n/a	n/a	n/a	n/a	16	2	6	8	n/a	n/a	n/a	n/a	n/a
525976	PROB	n/a	LTP135	ltpFR	12	n/a	n/a	n/a	n/a	n/a	n/a	n/a	22	5	9	8	n/a	n/a	n/a	n/a	n/a
528817	PROB	n/a	LTP135	ltpFR	12	n/a	n/a	n/a	n/a	n/a	n/a	n/a	13	5	4	3	n/a	n/a	n/a	n/a	n/a
530849	PROB	n/a	LTP135	ltpFR	12	n/a	n/a	n/a	n/a	n/a	n/a	n/a	20	9	8	3	n/a	n/a	n/a	n/a	n/a
534929	STOP	n/a	LTP135	ltpFR	12	n/a	n/a	n/a	n/a	n/a	n/a	n/a	n/a	n/a	n/a	n/a	n/a	n/a	n/a	n/a	n/a
535872	WORD	wordpools/wasnorm_wordpool.txt	LTP135	ltpFR	12	3	1	CASH	252	n/a	n/a	0	n/a	0	0	0	0.422607421875	0.5869140625	0	upper	amplitud.ttf
538880	START	n/a	LTP135	ltpFR	12	n/a	n/a	n/a	n/a	n/a	n/a	n/a	n/a	n/a	n/a	n/a	n/a	n/a	n/a	n/a	n/a
540079	PROB	n/a	LTP135	ltpFR	12	n/a	n/a	n/a	n/a	n/a	n/a	n/a	13	1	4	8	n/a	n/a	n/a	n/a	n/a
541887	PROB	n/a	LTP135	ltpFR	12	n/a	n/a	n/a	n/a	n/a	n/a	n/a	21	8	6	7	n/a	n/a	n/a	n/a	n/a
543553	PROB	n/a	LTP135	ltpFR	12	n/a	n/a	n/a	n/a	n/a	n/a	n/a	13	1	5	7	n/a	n/a	n/a	n/a	n/a
545402	PROB	n/a	LTP135	ltpFR	12	n/a	n/a	n/a	n/a	n/a	n/a	n/a	17	5	8	4	n/a	n/a	n/a	n/a	n/a
547968	PROB	n/a	LTP135	ltpFR	12	n/a	n/a	n/a	n/a	n/a	n/a	n/a	11	3	4	4	n/a	n/a	n/a	n/a	n/a
550051	PROB	n/a	LTP135	ltpFR	12	n/a	n/a	n/a	n/a	n/a	n/a	n/a	20	7	7	6	n/a	n/a	n/a	n/a	n/a
553386	STOP	n/a	LTP135	ltpFR	12	n/a	n/a	n/a	n/a	n/a	n/a	n/a	n/a	n/a	n/a	n/a	n/a	n/a	n/a	n/a	n/a
555689	WORD	wordpools/wasnorm_wordpool.txt	LTP135	ltpFR	12	3	1	EAR	513	n/a	n/a	0	n/a	0	0	0	0.422607421875	0.5869140625	0	upper	amplitud.ttf
558697	START	n/a	LTP135	ltpFR	12	n/a	n/a	n/a	n/a	n/a	n/a	n/a	n/a	n/a	n/a	n/a	n/a	n/a	n/a	n/a	n/a
559779	PROB	n/a	LTP135	ltpFR	12	n/a	n/a	n/a	n/a	n/a	n/a	n/a	20	6	5	9	n/a	n/a	n/a	n/a	n/a
563171	PROB	n/a	LTP135	ltpFR	12	n/a	n/a	n/a	n/a	n/a	n/a	n/a	16	8	3	5	n/a	n/a	n/a	n/a	n/a
565412	PROB	n/a	LTP135	ltpFR	12	n/a	n/a	n/a	n/a	n/a	n/a	n/a	16	6	8	2	n/a	n/a	n/a	n/a	n/a
566795	PROB	n/a	LTP135	ltpFR	12	n/a	n/a	n/a	n/a	n/a	n/a	n/a	20	8	8	4	n/a	n/a	n/a	n/a	n/a
568902	PROB	n/a	LTP135	ltpFR	12	n/a	n/a	n/a	n/a	n/a	n/a	n/a	11	5	5	1	n/a	n/a	n/a	n/a	n/a
569985	PROB	n/a	LTP135	ltpFR	12	n/a	n/a	n/a	n/a	n/a	n/a	n/a	16	6	6	4	n/a	n/a	n/a	n/a	n/a
571934	PROB	n/a	LTP135	ltpFR	12	n/a	n/a	n/a	n/a	n/a	n/a	n/a	19	9	1	9	n/a	n/a	n/a	n/a	n/a
573737	STOP	n/a	LTP135	ltpFR	12	n/a	n/a	n/a	n/a	n/a	n/a	n/a	n/a	n/a	n/a	n/a	n/a	n/a	n/a	n/a	n/a
575825	WORD	wordpools/wasnorm_wordpool.txt	LTP135	ltpFR	12	3	1	BOUILLON	154	n/a	n/a	0	n/a	0	0	0	0.422607421875	0.5869140625	0	upper	amplitud.ttf
578833	START	n/a	LTP135	ltpFR	12	n/a	n/a	n/a	n/a	n/a	n/a	n/a	n/a	n/a	n/a	n/a	n/a	n/a	n/a	n/a	n/a
579656	PROB	n/a	LTP135	ltpFR	12	n/a	n/a	n/a	n/a	n/a	n/a	n/a	13	5	3	5	n/a	n/a	n/a	n/a	n/a
582914	PROB	n/a	LTP135	ltpFR	12	n/a	n/a	n/a	n/a	n/a	n/a	n/a	14	2	9	3	n/a	n/a	n/a	n/a	n/a
585255	PROB	n/a	LTP135	ltpFR	12	n/a	n/a	n/a	n/a	n/a	n/a	n/a	9	1	6	2	n/a	n/a	n/a	n/a	n/a
586538	PROB	n/a	LTP135	ltpFR	12	n/a	n/a	n/a	n/a	n/a	n/a	n/a	15	3	3	9	n/a	n/a	n/a	n/a	n/a
588137	PROB	n/a	LTP135	ltpFR	12	n/a	n/a	n/a	n/a	n/a	n/a	n/a	24	9	7	8	n/a	n/a	n/a	n/a	n/a
590395	PROB	n/a	LTP135	ltpFR	12	n/a	n/a	n/a	n/a	n/a	n/a	n/a	19	2	8	9	n/a	n/a	n/a	n/a	n/a
591911	PROB	n/a	LTP135	ltpFR	12	n/a	n/a	n/a	n/a	n/a	n/a	n/a	12	4	7	1	n/a	n/a	n/a	n/a	n/a
594402	STOP	n/a	LTP135	ltpFR	12	n/a	n/a	n/a	n/a	n/a	n/a	n/a	n/a	n/a	n/a	n/a	n/a	n/a	n/a	n/a	n/a
595968	WORD	wordpools/wasnorm_wordpool.txt	LTP135	ltpFR	12	3	1	DIME	466	n/a	n/a	0	n/a	0	0	0	0.422607421875	0.5869140625	0	upper	amplitud.ttf
598975	START	n/a	LTP135	ltpFR	12	n/a	n/a	n/a	n/a	n/a	n/a	n/a	n/a	n/a	n/a	n/a	n/a	n/a	n/a	n/a	n/a
599782	PROB	n/a	LTP135	ltpFR	12	n/a	n/a	n/a	n/a	n/a	n/a	n/a	16	4	4	8	n/a	n/a	n/a	n/a	n/a
601765	PROB	n/a	LTP135	ltpFR	12	n/a	n/a	n/a	n/a	n/a	n/a	n/a	19	8	7	4	n/a	n/a	n/a	n/a	n/a
603398	PROB	n/a	LTP135	ltpFR	12	n/a	n/a	n/a	n/a	n/a	n/a	n/a	9	5	2	2	n/a	n/a	n/a	n/a	n/a
605281	PROB	n/a	LTP135	ltpFR	12	n/a	n/a	n/a	n/a	n/a	n/a	n/a	7	3	2	2	n/a	n/a	n/a	n/a	n/a
606746	PROB	n/a	LTP135	ltpFR	12	n/a	n/a	n/a	n/a	n/a	n/a	n/a	11	2	2	7	n/a	n/a	n/a	n/a	n/a
608796	PROB	n/a	LTP135	ltpFR	12	n/a	n/a	n/a	n/a	n/a	n/a	n/a	17	3	7	7	n/a	n/a	n/a	n/a	n/a
610512	PROB	n/a	LTP135	ltpFR	12	n/a	n/a	n/a	n/a	n/a	n/a	n/a	16	6	8	2	n/a	n/a	n/a	n/a	n/a
612079	PROB	n/a	LTP135	ltpFR	12	n/a	n/a	n/a	n/a	n/a	n/a	n/a	13	3	6	4	n/a	n/a	n/a	n/a	n/a
613745	STOP	n/a	LTP135	ltpFR	12	n/a	n/a	n/a	n/a	n/a	n/a	n/a	n/a	n/a	n/a	n/a	n/a	n/a	n/a	n/a	n/a
616110	WORD	wordpools/wasnorm_wordpool.txt	LTP135	ltpFR	12	3	0	DICTATOR	462	n/a	n/a	1	n/a	0	0	0	0.57763671875	0.412841796875	1	lower	zerothre.ttf
619118	START	n/a	LTP135	ltpFR	12	n/a	n/a	n/a	n/a	n/a	n/a	n/a	n/a	n/a	n/a	n/a	n/a	n/a	n/a	n/a	n/a
619951	PROB	n/a	LTP135	ltpFR	12	n/a	n/a	n/a	n/a	n/a	n/a	n/a	20	9	9	2	n/a	n/a	n/a	n/a	n/a
621732	PROB	n/a	LTP135	ltpFR	12	n/a	n/a	n/a	n/a	n/a	n/a	n/a	16	5	5	6	n/a	n/a	n/a	n/a	n/a
622991	PROB	n/a	LTP135	ltpFR	12	n/a	n/a	n/a	n/a	n/a	n/a	n/a	20	8	3	9	n/a	n/a	n/a	n/a	n/a
624899	PROB	n/a	LTP135	ltpFR	12	n/a	n/a	n/a	n/a	n/a	n/a	n/a	16	5	3	8	n/a	n/a	n/a	n/a	n/a
626898	PROB	n/a	LTP135	ltpFR	12	n/a	n/a	n/a	n/a	n/a	n/a	n/a	17	7	6	4	n/a	n/a	n/a	n/a	n/a
628231	PROB	n/a	LTP135	ltpFR	12	n/a	n/a	n/a	n/a	n/a	n/a	n/a	16	4	6	6	n/a	n/a	n/a	n/a	n/a
629597	PROB	n/a	LTP135	ltpFR	12	n/a	n/a	n/a	n/a	n/a	n/a	n/a	9	5	2	2	n/a	n/a	n/a	n/a	n/a
631505	PROB	n/a	LTP135	ltpFR	12	n/a	n/a	n/a	n/a	n/a	n/a	n/a	9	4	1	4	n/a	n/a	n/a	n/a	n/a
632729	PROB	n/a	LTP135	ltpFR	12	n/a	n/a	n/a	n/a	n/a	n/a	n/a	18	5	4	7	n/a	n/a	n/a	n/a	n/a
634506	STOP	n/a	LTP135	ltpFR	12	n/a	n/a	n/a	n/a	n/a	n/a	n/a	n/a	n/a	n/a	n/a	n/a	n/a	n/a	n/a	n/a
636245	WORD	wordpools/wasnorm_wordpool.txt	LTP135	ltpFR	12	3	0	CASHIER	254	n/a	n/a	1	n/a	0	0	0	0.57763671875	0.412841796875	1	lower	zerothre.ttf
639253	START	n/a	LTP135	ltpFR	12	n/a	n/a	n/a	n/a	n/a	n/a	n/a	n/a	n/a	n/a	n/a	n/a	n/a	n/a	n/a	n/a
640418	PROB	n/a	LTP135	ltpFR	12	n/a	n/a	n/a	n/a	n/a	n/a	n/a	6	2	1	3	n/a	n/a	n/a	n/a	n/a
641985	PROB	n/a	LTP135	ltpFR	12	n/a	n/a	n/a	n/a	n/a	n/a	n/a	20	2	9	9	n/a	n/a	n/a	n/a	n/a
643401	PROB	n/a	LTP135	ltpFR	12	n/a	n/a	n/a	n/a	n/a	n/a	n/a	15	6	2	7	n/a	n/a	n/a	n/a	n/a
645575	PROB	n/a	LTP135	ltpFR	12	n/a	n/a	n/a	n/a	n/a	n/a	n/a	21	5	7	9	n/a	n/a	n/a	n/a	n/a
647916	PROB	n/a	LTP135	ltpFR	12	n/a	n/a	n/a	n/a	n/a	n/a	n/a	10	3	3	4	n/a	n/a	n/a	n/a	n/a
649474	PROB	n/a	LTP135	ltpFR	12	n/a	n/a	n/a	n/a	n/a	n/a	n/a	18	8	5	5	n/a	n/a	n/a	n/a	n/a
650873	PROB	n/a	LTP135	ltpFR	12	n/a	n/a	n/a	n/a	n/a	n/a	n/a	14	5	2	7	n/a	n/a	n/a	n/a	n/a
652331	PROB	n/a	LTP135	ltpFR	12	n/a	n/a	n/a	n/a	n/a	n/a	n/a	11	5	1	5	n/a	n/a	n/a	n/a	n/a
655253	STOP	n/a	LTP135	ltpFR	12	n/a	n/a	n/a	n/a	n/a	n/a	n/a	n/a	n/a	n/a	n/a	n/a	n/a	n/a	n/a	n/a
656063	WORD	wordpools/wasnorm_wordpool.txt	LTP135	ltpFR	12	3	0	CONTRACTOR	369	n/a	n/a	1	n/a	0	0	0	0.57763671875	0.412841796875	1	lower	zerothre.ttf
659071	START	n/a	LTP135	ltpFR	12	n/a	n/a	n/a	n/a	n/a	n/a	n/a	n/a	n/a	n/a	n/a	n/a	n/a	n/a	n/a	n/a
659903	PROB	n/a	LTP135	ltpFR	12	n/a	n/a	n/a	n/a	n/a	n/a	n/a	18	5	4	9	n/a	n/a	n/a	n/a	n/a
661244	PROB	n/a	LTP135	ltpFR	12	n/a	n/a	n/a	n/a	n/a	n/a	n/a	3	1	1	1	n/a	n/a	n/a	n/a	n/a
662511	PROB	n/a	LTP135	ltpFR	12	n/a	n/a	n/a	n/a	n/a	n/a	n/a	15	2	9	4	n/a	n/a	n/a	n/a	n/a
665310	PROB	n/a	LTP135	ltpFR	12	n/a	n/a	n/a	n/a	n/a	n/a	n/a	11	1	5	5	n/a	n/a	n/a	n/a	n/a
666567	PROB	n/a	LTP135	ltpFR	12	n/a	n/a	n/a	n/a	n/a	n/a	n/a	9	6	2	1	n/a	n/a	n/a	n/a	n/a
667875	PROB	n/a	LTP135	ltpFR	12	n/a	n/a	n/a	n/a	n/a	n/a	n/a	8	6	1	1	n/a	n/a	n/a	n/a	n/a
669175	PROB	n/a	LTP135	ltpFR	12	n/a	n/a	n/a	n/a	n/a	n/a	n/a	11	4	2	5	n/a	n/a	n/a	n/a	n/a
672748	PROB	n/a	LTP135	ltpFR	12	n/a	n/a	n/a	n/a	n/a	n/a	n/a	5	3	1	1	n/a	n/a	n/a	n/a	n/a
673802	STOP	n/a	LTP135	ltpFR	12	n/a	n/a	n/a	n/a	n/a	n/a	n/a	n/a	n/a	n/a	n/a	n/a	n/a	n/a	n/a	n/a
676006	WORD	wordpools/wasnorm_wordpool.txt	LTP135	ltpFR	12	3	1	COURT	391	n/a	n/a	0	n/a	0	0	0	0.422607421875	0.5869140625	0	upper	amplitud.ttf
679014	START	n/a	LTP135	ltpFR	12	n/a	n/a	n/a	n/a	n/a	n/a	n/a	n/a	n/a	n/a	n/a	n/a	n/a	n/a	n/a	n/a
680096	PROB	n/a	LTP135	ltpFR	12	n/a	n/a	n/a	n/a	n/a	n/a	n/a	9	3	4	2	n/a	n/a	n/a	n/a	n/a
682711	PROB	n/a	LTP135	ltpFR	12	n/a	n/a	n/a	n/a	n/a	n/a	n/a	17	7	5	5	n/a	n/a	n/a	n/a	n/a
684619	PROB	n/a	LTP135	ltpFR	12	n/a	n/a	n/a	n/a	n/a	n/a	n/a	24	9	6	9	n/a	n/a	n/a	n/a	n/a
686810	PROB	n/a	LTP135	ltpFR	12	n/a	n/a	n/a	n/a	n/a	n/a	n/a	24	9	6	9	n/a	n/a	n/a	n/a	n/a
688127	PROB	n/a	LTP135	ltpFR	12	n/a	n/a	n/a	n/a	n/a	n/a	n/a	10	4	5	1	n/a	n/a	n/a	n/a	n/a
689634	PROB	n/a	LTP135	ltpFR	12	n/a	n/a	n/a	n/a	n/a	n/a	n/a	19	9	4	6	n/a	n/a	n/a	n/a	n/a
690942	PROB	n/a	LTP135	ltpFR	12	n/a	n/a	n/a	n/a	n/a	n/a	n/a	18	6	7	5	n/a	n/a	n/a	n/a	n/a
695014	STOP	n/a	LTP135	ltpFR	12	n/a	n/a	n/a	n/a	n/a	n/a	n/a	n/a	n/a	n/a	n/a	n/a	n/a	n/a	n/a	n/a
695890	WORD	wordpools/wasnorm_wordpool.txt	LTP135	ltpFR	12	3	1	CRAB	397	n/a	n/a	1	n/a	0	0	0	0.422607421875	0.5869140625	0	upper	amplitud.ttf
698898	START	n/a	LTP135	ltpFR	12	n/a	n/a	n/a	n/a	n/a	n/a	n/a	n/a	n/a	n/a	n/a	n/a	n/a	n/a	n/a	n/a
699897	PROB	n/a	LTP135	ltpFR	12	n/a	n/a	n/a	n/a	n/a	n/a	n/a	16	6	2	8	n/a	n/a	n/a	n/a	n/a
701647	PROB	n/a	LTP135	ltpFR	12	n/a	n/a	n/a	n/a	n/a	n/a	n/a	16	8	2	6	n/a	n/a	n/a	n/a	n/a
703288	PROB	n/a	LTP135	ltpFR	12	n/a	n/a	n/a	n/a	n/a	n/a	n/a	22	6	7	9	n/a	n/a	n/a	n/a	n/a
707020	PROB	n/a	LTP135	ltpFR	12	n/a	n/a	n/a	n/a	n/a	n/a	n/a	16	1	7	8	n/a	n/a	n/a	n/a	n/a
708453	PROB	n/a	LTP135	ltpFR	12	n/a	n/a	n/a	n/a	n/a	n/a	n/a	15	5	7	3	n/a	n/a	n/a	n/a	n/a
710219	PROB	n/a	LTP135	ltpFR	12	n/a	n/a	n/a	n/a	n/a	n/a	n/a	12	2	4	6	n/a	n/a	n/a	n/a	n/a
711918	PROB	n/a	LTP135	ltpFR	12	n/a	n/a	n/a	n/a	n/a	n/a	n/a	18	5	5	8	n/a	n/a	n/a	n/a	n/a
714898	STOP	n/a	LTP135	ltpFR	12	n/a	n/a	n/a	n/a	n/a	n/a	n/a	n/a	n/a	n/a	n/a	n/a	n/a	n/a	n/a	n/a
716008	WORD	wordpools/wasnorm_wordpool.txt	LTP135	ltpFR	12	3	1	POTATO	1115	n/a	n/a	0	n/a	0	0	0	0.422607421875	0.5869140625	0	upper	amplitud.ttf
719016	START	n/a	LTP135	ltpFR	12	n/a	n/a	n/a	n/a	n/a	n/a	n/a	n/a	n/a	n/a	n/a	n/a	n/a	n/a	n/a	n/a
719957	PROB	n/a	LTP135	ltpFR	12	n/a	n/a	n/a	n/a	n/a	n/a	n/a	23	9	5	9	n/a	n/a	n/a	n/a	n/a
722339	PROB	n/a	LTP135	ltpFR	12	n/a	n/a	n/a	n/a	n/a	n/a	n/a	18	6	4	8	n/a	n/a	n/a	n/a	n/a
724389	PROB	n/a	LTP135	ltpFR	12	n/a	n/a	n/a	n/a	n/a	n/a	n/a	14	9	2	3	n/a	n/a	n/a	n/a	n/a
726030	PROB	n/a	LTP135	ltpFR	12	n/a	n/a	n/a	n/a	n/a	n/a	n/a	16	2	8	6	n/a	n/a	n/a	n/a	n/a
727288	PROB	n/a	LTP135	ltpFR	12	n/a	n/a	n/a	n/a	n/a	n/a	n/a	25	9	9	7	n/a	n/a	n/a	n/a	n/a
729137	PROB	n/a	LTP135	ltpFR	12	n/a	n/a	n/a	n/a	n/a	n/a	n/a	13	7	4	2	n/a	n/a	n/a	n/a	n/a
731428	PROB	n/a	LTP135	ltpFR	12	n/a	n/a	n/a	n/a	n/a	n/a	n/a	22	5	9	8	n/a	n/a	n/a	n/a	n/a
734410	STOP	n/a	LTP135	ltpFR	12	n/a	n/a	n/a	n/a	n/a	n/a	n/a	n/a	n/a	n/a	n/a	n/a	n/a	n/a	n/a	n/a
735968	WORD	wordpools/wasnorm_wordpool.txt	LTP135	ltpFR	12	3	1	BRICK	172	n/a	n/a	0	n/a	0	0	0	0.422607421875	0.5869140625	0	upper	amplitud.ttf
738975	START	n/a	LTP135	ltpFR	12	n/a	n/a	n/a	n/a	n/a	n/a	n/a	n/a	n/a	n/a	n/a	n/a	n/a	n/a	n/a	n/a
740133	PROB	n/a	LTP135	ltpFR	12	n/a	n/a	n/a	n/a	n/a	n/a	n/a	17	9	3	5	n/a	n/a	n/a	n/a	n/a
741807	PROB	n/a	LTP135	ltpFR	12	n/a	n/a	n/a	n/a	n/a	n/a	n/a	13	2	7	4	n/a	n/a	n/a	n/a	n/a
743957	PROB	n/a	LTP135	ltpFR	12	n/a	n/a	n/a	n/a	n/a	n/a	n/a	8	4	1	3	n/a	n/a	n/a	n/a	n/a
745598	PROB	n/a	LTP135	ltpFR	12	n/a	n/a	n/a	n/a	n/a	n/a	n/a	17	4	8	5	n/a	n/a	n/a	n/a	n/a
747713	PROB	n/a	LTP135	ltpFR	12	n/a	n/a	n/a	n/a	n/a	n/a	n/a	13	2	9	2	n/a	n/a	n/a	n/a	n/a
750171	PROB	n/a	LTP135	ltpFR	12	n/a	n/a	n/a	n/a	n/a	n/a	n/a	10	2	4	4	n/a	n/a	n/a	n/a	n/a
752104	PROB	n/a	LTP135	ltpFR	12	n/a	n/a	n/a	n/a	n/a	n/a	n/a	14	6	3	5	n/a	n/a	n/a	n/a	n/a
754026	STOP	n/a	LTP135	ltpFR	12	n/a	n/a	n/a	n/a	n/a	n/a	n/a	n/a	n/a	n/a	n/a	n/a	n/a	n/a	n/a	n/a
756127	WORD	wordpools/wasnorm_wordpool.txt	LTP135	ltpFR	12	3	0	GENERAL	630	n/a	n/a	1	n/a	0	0	0	0.57763671875	0.412841796875	1	lower	zerothre.ttf
759135	START	n/a	LTP135	ltpFR	12	n/a	n/a	n/a	n/a	n/a	n/a	n/a	n/a	n/a	n/a	n/a	n/a	n/a	n/a	n/a	n/a
760076	PROB	n/a	LTP135	ltpFR	12	n/a	n/a	n/a	n/a	n/a	n/a	n/a	13	3	2	8	n/a	n/a	n/a	n/a	n/a
762125	PROB	n/a	LTP135	ltpFR	12	n/a	n/a	n/a	n/a	n/a	n/a	n/a	17	8	6	3	n/a	n/a	n/a	n/a	n/a
764849	PROB	n/a	LTP135	ltpFR	12	n/a	n/a	n/a	n/a	n/a	n/a	n/a	18	9	6	3	n/a	n/a	n/a	n/a	n/a
766615	PROB	n/a	LTP135	ltpFR	12	n/a	n/a	n/a	n/a	n/a	n/a	n/a	13	8	2	3	n/a	n/a	n/a	n/a	n/a
768006	PROB	n/a	LTP135	ltpFR	12	n/a	n/a	n/a	n/a	n/a	n/a	n/a	15	9	2	4	n/a	n/a	n/a	n/a	n/a
769964	PROB	n/a	LTP135	ltpFR	12	n/a	n/a	n/a	n/a	n/a	n/a	n/a	11	9	1	1	n/a	n/a	n/a	n/a	n/a
771197	PROB	n/a	LTP135	ltpFR	12	n/a	n/a	n/a	n/a	n/a	n/a	n/a	15	8	4	3	n/a	n/a	n/a	n/a	n/a
773329	PROB	n/a	LTP135	ltpFR	12	n/a	n/a	n/a	n/a	n/a	n/a	n/a	20	7	4	9	n/a	n/a	n/a	n/a	n/a
774810	STOP	n/a	LTP135	ltpFR	12	n/a	n/a	n/a	n/a	n/a	n/a	n/a	n/a	n/a	n/a	n/a	n/a	n/a	n/a	n/a	n/a
776170	WORD	wordpools/wasnorm_wordpool.txt	LTP135	ltpFR	12	3	0	CLASS	318	n/a	n/a	1	n/a	0	0	0	0.57763671875	0.412841796875	1	lower	zerothre.ttf
779178	START	n/a	LTP135	ltpFR	12	n/a	n/a	n/a	n/a	n/a	n/a	n/a	n/a	n/a	n/a	n/a	n/a	n/a	n/a	n/a	n/a
780360	PROB	n/a	LTP135	ltpFR	12	n/a	n/a	n/a	n/a	n/a	n/a	n/a	16	4	4	8	n/a	n/a	n/a	n/a	n/a
782635	PROB	n/a	LTP135	ltpFR	12	n/a	n/a	n/a	n/a	n/a	n/a	n/a	20	8	3	9	n/a	n/a	n/a	n/a	n/a
784625	PROB	n/a	LTP135	ltpFR	12	n/a	n/a	n/a	n/a	n/a	n/a	n/a	18	8	9	1	n/a	n/a	n/a	n/a	n/a
786975	PROB	n/a	LTP135	ltpFR	12	n/a	n/a	n/a	n/a	n/a	n/a	n/a	25	7	9	9	n/a	n/a	n/a	n/a	n/a
789739	PROB	n/a	LTP135	ltpFR	12	n/a	n/a	n/a	n/a	n/a	n/a	n/a	14	3	9	2	n/a	n/a	n/a	n/a	n/a
792073	PROB	n/a	LTP135	ltpFR	12	n/a	n/a	n/a	n/a	n/a	n/a	n/a	17	5	9	3	n/a	n/a	n/a	n/a	n/a
794018	STOP	n/a	LTP135	ltpFR	12	n/a	n/a	n/a	n/a	n/a	n/a	n/a	n/a	n/a	n/a	n/a	n/a	n/a	n/a	n/a	n/a
796113	WORD	wordpools/wasnorm_wordpool.txt	LTP135	ltpFR	12	3	0	UNIVERSITY	1541	n/a	n/a	1	n/a	0	0	0	0.57763671875	0.412841796875	1	lower	zerothre.ttf
799121	START	n/a	LTP135	ltpFR	12	n/a	n/a	n/a	n/a	n/a	n/a	n/a	n/a	n/a	n/a	n/a	n/a	n/a	n/a	n/a	n/a
800012	PROB	n/a	LTP135	ltpFR	12	n/a	n/a	n/a	n/a	n/a	n/a	n/a	19	9	3	7	n/a	n/a	n/a	n/a	n/a
801619	PROB	n/a	LTP135	ltpFR	12	n/a	n/a	n/a	n/a	n/a	n/a	n/a	14	4	8	2	n/a	n/a	n/a	n/a	n/a
803659	PROB	n/a	LTP135	ltpFR	12	n/a	n/a	n/a	n/a	n/a	n/a	n/a	15	6	8	1	n/a	n/a	n/a	n/a	n/a
805251	PROB	n/a	LTP135	ltpFR	12	n/a	n/a	n/a	n/a	n/a	n/a	n/a	10	7	1	2	n/a	n/a	n/a	n/a	n/a
806876	PROB	n/a	LTP135	ltpFR	12	n/a	n/a	n/a	n/a	n/a	n/a	n/a	14	1	6	7	n/a	n/a	n/a	n/a	n/a
808683	PROB	n/a	LTP135	ltpFR	12	n/a	n/a	n/a	n/a	n/a	n/a	n/a	9	5	2	2	n/a	n/a	n/a	n/a	n/a
809941	PROB	n/a	LTP135	ltpFR	12	n/a	n/a	n/a	n/a	n/a	n/a	n/a	16	5	9	2	n/a	n/a	n/a	n/a	n/a
813586	STOP	n/a	LTP135	ltpFR	12	n/a	n/a	n/a	n/a	n/a	n/a	n/a	n/a	n/a	n/a	n/a	n/a	n/a	n/a	n/a	n/a
816198	WORD	wordpools/wasnorm_wordpool.txt	LTP135	ltpFR	12	3	0	COUGAR	387	n/a	n/a	1	n/a	0	0	0	0.57763671875	0.412841796875	1	lower	zerothre.ttf
819205	START	n/a	LTP135	ltpFR	12	n/a	n/a	n/a	n/a	n/a	n/a	n/a	n/a	n/a	n/a	n/a	n/a	n/a	n/a	n/a	n/a
820188	PROB	n/a	LTP135	ltpFR	12	n/a	n/a	n/a	n/a	n/a	n/a	n/a	18	4	9	5	n/a	n/a	n/a	n/a	n/a
822270	PROB	n/a	LTP135	ltpFR	12	n/a	n/a	n/a	n/a	n/a	n/a	n/a	19	6	7	6	n/a	n/a	n/a	n/a	n/a
824378	PROB	n/a	LTP135	ltpFR	12	n/a	n/a	n/a	n/a	n/a	n/a	n/a	9	1	1	7	n/a	n/a	n/a	n/a	n/a
825628	PROB	n/a	LTP135	ltpFR	12	n/a	n/a	n/a	n/a	n/a	n/a	n/a	10	1	6	3	n/a	n/a	n/a	n/a	n/a
826860	PROB	n/a	LTP135	ltpFR	12	n/a	n/a	n/a	n/a	n/a	n/a	n/a	10	4	5	1	n/a	n/a	n/a	n/a	n/a
827985	PROB	n/a	LTP135	ltpFR	12	n/a	n/a	n/a	n/a	n/a	n/a	n/a	14	1	9	4	n/a	n/a	n/a	n/a	n/a
829725	PROB	n/a	LTP135	ltpFR	12	n/a	n/a	n/a	n/a	n/a	n/a	n/a	8	1	4	3	n/a	n/a	n/a	n/a	n/a
832774	PROB	n/a	LTP135	ltpFR	12	n/a	n/a	n/a	n/a	n/a	n/a	n/a	19	5	9	5	n/a	n/a	n/a	n/a	n/a
834058	STOP	n/a	LTP135	ltpFR	12	n/a	n/a	n/a	n/a	n/a	n/a	n/a	n/a	n/a	n/a	n/a	n/a	n/a	n/a	n/a	n/a
836157	WORD	wordpools/wasnorm_wordpool.txt	LTP135	ltpFR	12	3	0	AFRICA	9	n/a	n/a	1	n/a	0	0	0	0.57763671875	0.412841796875	1	lower	zerothre.ttf
839165	START	n/a	LTP135	ltpFR	12	n/a	n/a	n/a	n/a	n/a	n/a	n/a	n/a	n/a	n/a	n/a	n/a	n/a	n/a	n/a	n/a
840264	PROB	n/a	LTP135	ltpFR	12	n/a	n/a	n/a	n/a	n/a	n/a	n/a	14	3	7	4	n/a	n/a	n/a	n/a	n/a
842063	PROB	n/a	LTP135	ltpFR	12	n/a	n/a	n/a	n/a	n/a	n/a	n/a	20	9	3	8	n/a	n/a	n/a	n/a	n/a
843988	PROB	n/a	LTP135	ltpFR	12	n/a	n/a	n/a	n/a	n/a	n/a	n/a	14	4	1	9	n/a	n/a	n/a	n/a	n/a
845437	PROB	n/a	LTP135	ltpFR	12	n/a	n/a	n/a	n/a	n/a	n/a	n/a	11	1	7	3	n/a	n/a	n/a	n/a	n/a
846587	PROB	n/a	LTP135	ltpFR	12	n/a	n/a	n/a	n/a	n/a	n/a	n/a	13	7	5	1	n/a	n/a	n/a	n/a	n/a
848219	PROB	n/a	LTP135	ltpFR	12	n/a	n/a	n/a	n/a	n/a	n/a	n/a	17	8	3	6	n/a	n/a	n/a	n/a	n/a
849902	PROB	n/a	LTP135	ltpFR	12	n/a	n/a	n/a	n/a	n/a	n/a	n/a	16	5	5	6	n/a	n/a	n/a	n/a	n/a
851168	PROB	n/a	LTP135	ltpFR	12	n/a	n/a	n/a	n/a	n/a	n/a	n/a	15	6	1	9	n/a	n/a	n/a	n/a	n/a
855165	STOP	n/a	LTP135	ltpFR	12	n/a	n/a	n/a	n/a	n/a	n/a	n/a	n/a	n/a	n/a	n/a	n/a	n/a	n/a	n/a	n/a
856942	REC_START	n/a	LTP135	ltpFR	12	3	n/a	n/a	n/a	n/a	n/a	n/a	n/a	0	0	0	n/a	n/a	n/a	n/a	n/a
858533	REC_WORD	wordpools/wasnorm_wordpool.txt	LTP135	ltpFR	12	3	0	UNIVERSITY	1541	n/a	n/a	1	n/a	0	0	0	n/a	n/a	n/a	n/a	n/a
860993	REC_WORD	wordpools/wasnorm_wordpool.txt	LTP135	ltpFR	12	3	0	AFRICA	9	n/a	n/a	1	n/a	0	0	0	n/a	n/a	n/a	n/a	n/a
863332	REC_WORD	wordpools/wasnorm_wordpool.txt	LTP135	ltpFR	12	3	0	DICTATOR	462	n/a	n/a	1	n/a	0	0	0	n/a	n/a	n/a	n/a	n/a
873784	REC_WORD	wordpools/wasnorm_wordpool.txt	LTP135	ltpFR	12	3	0	COUGAR	387	n/a	n/a	1	n/a	0	0	0	n/a	n/a	n/a	n/a	n/a
876747	REC_WORD	wordpools/wasnorm_wordpool.txt	LTP135	ltpFR	12	3	0	CLASS	318	n/a	n/a	1	n/a	0	0	0	n/a	n/a	n/a	n/a	n/a
926005	REC_WORD	wordpools/wasnorm_wordpool.txt	LTP135	ltpFR	12	3	1	CASH	252	n/a	n/a	0	n/a	0	0	0	n/a	n/a	n/a	n/a	n/a
952841	WORD	wordpools/wasnorm_wordpool.txt	LTP135	ltpFR	12	4	1	DAM	436	n/a	n/a	0	n/a	0	0	0	0.422607421875	0.5869140625	0	upper	amplitud.ttf
956964	WORD	wordpools/wasnorm_wordpool.txt	LTP135	ltpFR	12	4	1	UNIFORM	1539	n/a	n/a	0	n/a	0	0	0	0.422607421875	0.5869140625	0	upper	amplitud.ttf
960904	WORD	wordpools/wasnorm_wordpool.txt	LTP135	ltpFR	12	4	0	VEHICLE	1553	n/a	n/a	1	n/a	0	0	0	0.57763671875	0.412841796875	1	lower	zerothre.ttf
964719	WORD	wordpools/wasnorm_wordpool.txt	LTP135	ltpFR	12	4	0	BAY	102	n/a	n/a	1	n/a	0	0	0	0.57763671875	0.412841796875	1	lower	zerothre.ttf
968659	WORD	wordpools/wasnorm_wordpool.txt	LTP135	ltpFR	12	4	0	SUBMARINE	1398	n/a	n/a	1	n/a	0	0	0	0.57763671875	0.412841796875	1	lower	zerothre.ttf
972550	WORD	wordpools/wasnorm_wordpool.txt	LTP135	ltpFR	12	4	0	HANGER	687	n/a	n/a	1	n/a	0	0	0	0.57763671875	0.412841796875	1	lower	zerothre.ttf
976440	WORD	wordpools/wasnorm_wordpool.txt	LTP135	ltpFR	12	4	0	CACTUS	215	n/a	n/a	1	n/a	0	0	0	0.57763671875	0.412841796875	1	lower	zerothre.ttf
980522	WORD	wordpools/wasnorm_wordpool.txt	LTP135	ltpFR	12	4	1	STEM	1376	n/a	n/a	0	n/a	0	0	0	0.422607421875	0.5869140625	0	upper	amplitud.ttf
984413	WORD	wordpools/wasnorm_wordpool.txt	LTP135	ltpFR	12	4	1	WALLET	1583	n/a	n/a	0	n/a	0	0	0	0.422607421875	0.5869140625	0	upper	amplitud.ttf
988245	WORD	wordpools/wasnorm_wordpool.txt	LTP135	ltpFR	12	4	1	BOUQUET	157	n/a	n/a	0	n/a	0	0	0	0.422607421875	0.5869140625	0	upper	amplitud.ttf
992168	WORD	wordpools/wasnorm_wordpool.txt	LTP135	ltpFR	12	4	0	REFRIGERATOR	1179	n/a	n/a	1	n/a	0	0	0	0.57763671875	0.412841796875	1	lower	zerothre.ttf
996258	WORD	wordpools/wasnorm_wordpool.txt	LTP135	ltpFR	12	4	0	VETERAN	1561	n/a	n/a	1	n/a	0	0	0	0.57763671875	0.412841796875	1	lower	zerothre.ttf
1000090	WORD	wordpools/wasnorm_wordpool.txt	LTP135	ltpFR	12	4	0	MAJOR	859	n/a	n/a	1	n/a	0	0	0	0.57763671875	0.412841796875	1	lower	zerothre.ttf
1003972	WORD	wordpools/wasnorm_wordpool.txt	LTP135	ltpFR	12	4	1	TUBE	1516	n/a	n/a	0	n/a	0	0	0	0.422607421875	0.5869140625	0	upper	amplitud.ttf
1008138	WORD	wordpools/wasnorm_wordpool.txt	LTP135	ltpFR	12	4	1	HOSTESS	723	n/a	n/a	1	n/a	0	0	0	0.422607421875	0.5869140625	0	upper	amplitud.ttf
1012094	WORD	wordpools/wasnorm_wordpool.txt	LTP135	ltpFR	12	4	1	WAITER	1580	n/a	n/a	1	n/a	0	0	0	0.422607421875	0.5869140625	0	upper	amplitud.ttf
1018151	REC_START	n/a	LTP135	ltpFR	12	4	n/a	n/a	n/a	n/a	n/a	n/a	n/a	0	0	0	n/a	n/a	n/a	n/a	n/a
1020301	REC_WORD	wordpools/wasnorm_wordpool.txt	LTP135	ltpFR	12	4	1	HOSTESS	723	n/a	n/a	1	n/a	0	0	0	n/a	n/a	n/a	n/a	n/a
1022316	REC_WORD	wordpools/wasnorm_wordpool.txt	LTP135	ltpFR	12	4	1	WAITER	1580	n/a	n/a	1	n/a	0	0	0	n/a	n/a	n/a	n/a	n/a
1024601	REC_WORD	wordpools/wasnorm_wordpool.txt	LTP135	ltpFR	12	4	0	SUBMARINE	1398	n/a	n/a	1	n/a	0	0	0	n/a	n/a	n/a	n/a	n/a
1028437	REC_WORD	wordpools/wasnorm_wordpool.txt	LTP135	ltpFR	12	4	0	BAY	102	n/a	n/a	1	n/a	0	0	0	n/a	n/a	n/a	n/a	n/a
1033306	REC_WORD	wordpools/wasnorm_wordpool.txt	LTP135	ltpFR	12	4	1	DAM	436	n/a	n/a	0	n/a	0	0	0	n/a	n/a	n/a	n/a	n/a
1046197	REC_WORD	wordpools/wasnorm_wordpool.txt	LTP135	ltpFR	12	4	0	CACTUS	215	n/a	n/a	1	n/a	0	0	0	n/a	n/a	n/a	n/a	n/a
1049250	REC_WORD	wordpools/wasnorm_wordpool.txt	LTP135	ltpFR	12	4	0	HANGER	687	n/a	n/a	1	n/a	0	0	0	n/a	n/a	n/a	n/a	n/a
1050393	REC_WORD	wordpools/wasnorm_wordpool.txt	LTP135	ltpFR	12	4	0	REFRIGERATOR	1179	n/a	n/a	1	n/a	0	0	0	n/a	n/a	n/a	n/a	n/a
1089423	REC_WORD	wordpools/wasnorm_wordpool.txt	LTP135	ltpFR	12	4	1	STEM	1376	n/a	n/a	0	n/a	0	0	0	n/a	n/a	n/a	n/a	n/a
1105685	WORD	wordpools/wasnorm_wordpool.txt	LTP135	ltpFR	12	5	0	LAMP	798	n/a	n/a	1	n/a	0	0	0	0.57763671875	0.412841796875	1	lower	zerothre.ttf
1109709	WORD	wordpools/wasnorm_wordpool.txt	LTP135	ltpFR	12	5	0	BANANA	77	n/a	n/a	0	n/a	0	0	0	0.57763671875	0.412841796875	1	lower	zerothre.ttf
1113633	WORD	wordpools/wasnorm_wordpool.txt	LTP135	ltpFR	12	5	0	INVENTOR	743	n/a	n/a	1	n/a	0	0	0	0.57763671875	0.412841796875	1	lower	zerothre.ttf
1117565	WORD	wordpools/wasnorm_wordpool.txt	LTP135	ltpFR	12	5	0	COTTAGE	384	n/a	n/a	1	n/a	0	0	0	0.57763671875	0.412841796875	1	lower	zerothre.ttf
1121704	WORD	wordpools/wasnorm_wordpool.txt	LTP135	ltpFR	12	5	0	OLIVE	975	n/a	n/a	0	n/a	0	0	0	0.57763671875	0.412841796875	1	lower	zerothre.ttf
1125554	WORD	wordpools/wasnorm_wordpool.txt	LTP135	ltpFR	12	5	0	WICK	1607	n/a	n/a	0	n/a	0	0	0	0.57763671875	0.412841796875	1	lower	zerothre.ttf
1129693	WORD	wordpools/wasnorm_wordpool.txt	LTP135	ltpFR	12	5	0	CRATER	400	n/a	n/a	1	n/a	0	0	0	0.57763671875	0.412841796875	1	lower	zerothre.ttf
1133733	WORD	wordpools/wasnorm_wordpool.txt	LTP135	ltpFR	12	5	0	BEAN	105	n/a	n/a	0	n/a	0	0	0	0.57763671875	0.412841796875	1	lower	zerothre.ttf
1137550	WORD	wordpools/wasnorm_wordpool.txt	LTP135	ltpFR	12	5	0	PAN	1008	n/a	n/a	1	n/a	0	0	0	0.57763671875	0.412841796875	1	lower	zerothre.ttf
1141382	WORD	wordpools/wasnorm_wordpool.txt	LTP135	ltpFR	12	5	0	ASPIRIN	47	n/a	n/a	0	n/a	0	0	0	0.57763671875	0.412841796875	1	lower	zerothre.ttf
1145305	WORD	wordpools/wasnorm_wordpool.txt	LTP135	ltpFR	12	5	0	PILL	1068	n/a	n/a	0	n/a	0	0	0	0.57763671875	0.412841796875	1	lower	zerothre.ttf
1149229	WORD	wordpools/wasnorm_wordpool.txt	LTP135	ltpFR	12	5	0	METEOR	889	n/a	n/a	1	n/a	0	0	0	0.57763671875	0.412841796875	1	lower	zerothre.ttf
1153311	WORD	wordpools/wasnorm_wordpool.txt	LTP135	ltpFR	12	5	0	PLATE	1086	n/a	n/a	0	n/a	0	0	0	0.57763671875	0.412841796875	1	lower	zerothre.ttf
1157501	WORD	wordpools/wasnorm_wordpool.txt	LTP135	ltpFR	12	5	0	DINER	467	n/a	n/a	1	n/a	0	0	0	0.57763671875	0.412841796875	1	lower	zerothre.ttf
1161416	WORD	wordpools/wasnorm_wordpool.txt	LTP135	ltpFR	12	5	0	GROCERY	664	n/a	n/a	1	n/a	0	0	0	0.57763671875	0.412841796875	1	lower	zerothre.ttf
1165332	WORD	wordpools/wasnorm_wordpool.txt	LTP135	ltpFR	12	5	0	TACK	1428	n/a	n/a	0	n/a	0	0	0	0.57763671875	0.412841796875	1	lower	zerothre.ttf
1168339	START	n/a	LTP135	ltpFR	12	n/a	n/a	n/a	n/a	n/a	n/a	n/a	n/a	n/a	n/a	n/a	n/a	n/a	n/a	n/a	n/a
1169505	PROB	n/a	LTP135	ltpFR	12	n/a	n/a	n/a	n/a	n/a	n/a	n/a	16	9	6	1	n/a	n/a	n/a	n/a	n/a
1171263	PROB	n/a	LTP135	ltpFR	12	n/a	n/a	n/a	n/a	n/a	n/a	n/a	17	4	4	9	n/a	n/a	n/a	n/a	n/a
1172812	PROB	n/a	LTP135	ltpFR	12	n/a	n/a	n/a	n/a	n/a	n/a	n/a	21	9	9	3	n/a	n/a	n/a	n/a	n/a
1174826	STOP	n/a	LTP135	ltpFR	12	n/a	n/a	n/a	n/a	n/a	n/a	n/a	n/a	n/a	n/a	n/a	n/a	n/a	n/a	n/a	n/a
1178186	REC_START	n/a	LTP135	ltpFR	12	5	n/a	n/a	n/a	n/a	n/a	n/a	n/a	0	0	0	n/a	n/a	n/a	n/a	n/a
1179772	REC_WORD	wordpools/wasnorm_wordpool.txt	LTP135	ltpFR	12	5	0	TACK	1428	n/a	n/a	0	n/a	0	0	0	n/a	n/a	n/a	n/a	n/a
1180964	REC_WORD	wordpools/wasnorm_wordpool.txt	LTP135	ltpFR	12	5	0	DINER	467	n/a	n/a	1	n/a	0	0	0	n/a	n/a	n/a	n/a	n/a
1182486	REC_WORD	wordpools/wasnorm_wordpool.txt	LTP135	ltpFR	12	5	0	PLATE	1086	n/a	n/a	0	n/a	0	0	0	n/a	n/a	n/a	n/a	n/a
1184990	REC_WORD	wordpools/wasnorm_wordpool.txt	LTP135	ltpFR	12	5	0	GROCERY	664	n/a	n/a	1	n/a	0	0	0	n/a	n/a	n/a	n/a	n/a
1187944	REC_WORD	wordpools/wasnorm_wordpool.txt	LTP135	ltpFR	12	5	0	PILL	1068	n/a	n/a	0	n/a	0	0	0	n/a	n/a	n/a	n/a	n/a
1189500	REC_WORD	wordpools/wasnorm_wordpool.txt	LTP135	ltpFR	12	5	0	ASPIRIN	47	n/a	n/a	0	n/a	0	0	0	n/a	n/a	n/a	n/a	n/a
1191311	REC_WORD	wordpools/wasnorm_wordpool.txt	LTP135	ltpFR	12	5	0	OLIVE	975	n/a	n/a	0	n/a	0	0	0	n/a	n/a	n/a	n/a	n/a
1192862	REC_WORD	wordpools/wasnorm_wordpool.txt	LTP135	ltpFR	12	5	0	BEAN	105	n/a	n/a	0	n/a	0	0	0	n/a	n/a	n/a	n/a	n/a
1194553	REC_WORD	wordpools/wasnorm_wordpool.txt	LTP135	ltpFR	12	5	0	WICK	1607	n/a	n/a	0	n/a	0	0	0	n/a	n/a	n/a	n/a	n/a
1229250	REC_WORD	wordpools/wasnorm_wordpool.txt	LTP135	ltpFR	12	5	0	METEOR	889	n/a	n/a	1	n/a	0	0	0	n/a	n/a	n/a	n/a	n/a
1230751	REC_WORD	wordpools/wasnorm_wordpool.txt	LTP135	ltpFR	12	5	0	CRATER	400	n/a	n/a	1	n/a	0	0	0	n/a	n/a	n/a	n/a	n/a
1269444	WORD	wordpools/wasnorm_wordpool.txt	LTP135	ltpFR	12	6	0	WASHER	1592	n/a	n/a	1	n/a	0	0	0	0.57763671875	0.412841796875	1	lower	zerothre.ttf
1273368	WORD	wordpools/wasnorm_wordpool.txt	LTP135	ltpFR	12	6	0	MACHINE	852	n/a	n/a	1	n/a	0	0	0	0.57763671875	0.412841796875	1	lower	zerothre.ttf
1277367	WORD	wordpools/wasnorm_wordpool.txt	LTP135	ltpFR	12	6	0	MASCARA	875	n/a	n/a	0	n/a	0	0	0	0.57763671875	0.412841796875	1	lower	zerothre.ttf
1281374	WORD	wordpools/wasnorm_wordpool.txt	LTP135	ltpFR	12	6	0	FIG	563	n/a	n/a	0	n/a	0	0	0	0.57763671875	0.412841796875	1	lower	zerothre.ttf
1285214	WORD	wordpools/wasnorm_wordpool.txt	LTP135	ltpFR	12	6	0	CHARCOAL	281	n/a	n/a	0	n/a	0	0	0	0.57763671875	0.412841796875	1	lower	zerothre.ttf
1289212	WORD	wordpools/wasnorm_wordpool.txt	LTP135	ltpFR	12	6	0	CONSOLE	364	n/a	n/a	1	n/a	0	0	0	0.57763671875	0.412841796875	1	lower	zerothre.ttf
1293069	WORD	wordpools/wasnorm_wordpool.txt	LTP135	ltpFR	12	6	0	SAILOR	1223	n/a	n/a	1	n/a	0	0	0	0.57763671875	0.412841796875	1	lower	zerothre.ttf
1297201	WORD	wordpools/wasnorm_wordpool.txt	LTP135	ltpFR	12	6	0	PEOPLE	1046	n/a	n/a	1	n/a	0	0	0	0.57763671875	0.412841796875	1	lower	zerothre.ttf
1301150	WORD	wordpools/wasnorm_wordpool.txt	LTP135	ltpFR	12	6	0	SOCIETY	1338	n/a	n/a	1	n/a	0	0	0	0.57763671875	0.412841796875	1	lower	zerothre.ttf
1305123	WORD	wordpools/wasnorm_wordpool.txt	LTP135	ltpFR	12	6	0	HEATER	698	n/a	n/a	1	n/a	0	0	0	0.57763671875	0.412841796875	1	lower	zerothre.ttf
1309330	WORD	wordpools/wasnorm_wordpool.txt	LTP135	ltpFR	12	6	0	GOOSE	649	n/a	n/a	1	n/a	0	0	0	0.57763671875	0.412841796875	1	lower	zerothre.ttf
1313204	WORD	wordpools/wasnorm_wordpool.txt	LTP135	ltpFR	12	6	0	SALT	1229	n/a	n/a	0	n/a	0	0	0	0.57763671875	0.412841796875	1	lower	zerothre.ttf
1317077	WORD	wordpools/wasnorm_wordpool.txt	LTP135	ltpFR	12	6	0	PLASTER	1085	n/a	n/a	1	n/a	0	0	0	0.57763671875	0.412841796875	1	lower	zerothre.ttf
1321043	WORD	wordpools/wasnorm_wordpool.txt	LTP135	ltpFR	12	6	0	SKYSCRAPER	1322	n/a	n/a	1	n/a	0	0	0	0.57763671875	0.412841796875	1	lower	zerothre.ttf
1325241	WORD	wordpools/wasnorm_wordpool.txt	LTP135	ltpFR	12	6	0	ANTENNA	28	n/a	n/a	1	n/a	0	0	0	0.57763671875	0.412841796875	1	lower	zerothre.ttf
1329256	WORD	wordpools/wasnorm_wordpool.txt	LTP135	ltpFR	12	6	0	FACE	547	n/a	n/a	1	n/a	0	0	0	0.57763671875	0.412841796875	1	lower	zerothre.ttf
1332264	START	n/a	LTP135	ltpFR	12	n/a	n/a	n/a	n/a	n/a	n/a	n/a	n/a	n/a	n/a	n/a	n/a	n/a	n/a	n/a	n/a
1333130	PROB	n/a	LTP135	ltpFR	12	n/a	n/a	n/a	n/a	n/a	n/a	n/a	17	6	7	4	n/a	n/a	n/a	n/a	n/a
1335221	PROB	n/a	LTP135	ltpFR	12	n/a	n/a	n/a	n/a	n/a	n/a	n/a	10	3	3	4	n/a	n/a	n/a	n/a	n/a
1336512	PROB	n/a	LTP135	ltpFR	12	n/a	n/a	n/a	n/a	n/a	n/a	n/a	16	3	7	6	n/a	n/a	n/a	n/a	n/a
1337837	PROB	n/a	LTP135	ltpFR	12	n/a	n/a	n/a	n/a	n/a	n/a	n/a	6	2	1	3	n/a	n/a	n/a	n/a	n/a
1339561	PROB	n/a	LTP135	ltpFR	12	n/a	n/a	n/a	n/a	n/a	n/a	n/a	19	9	4	6	n/a	n/a	n/a	n/a	n/a
1341219	PROB	n/a	LTP135	ltpFR	12	n/a	n/a	n/a	n/a	n/a	n/a	n/a	13	5	7	1	n/a	n/a	n/a	n/a	n/a
1343435	PROB	n/a	LTP135	ltpFR	12	n/a	n/a	n/a	n/a	n/a	n/a	n/a	14	1	9	4	n/a	n/a	n/a	n/a	n/a
1344667	PROB	n/a	LTP135	ltpFR	12	n/a	n/a	n/a	n/a	n/a	n/a	n/a	13	5	3	5	n/a	n/a	n/a	n/a	n/a
1346009	PROB	n/a	LTP135	ltpFR	12	n/a	n/a	n/a	n/a	n/a	n/a	n/a	15	1	9	5	n/a	n/a	n/a	n/a	n/a
1347162	STOP	n/a	LTP135	ltpFR	12	n/a	n/a	n/a	n/a	n/a	n/a	n/a	n/a	n/a	n/a	n/a	n/a	n/a	n/a	n/a	n/a
1350041	REC_START	n/a	LTP135	ltpFR	12	6	n/a	n/a	n/a	n/a	n/a	n/a	n/a	0	0	0	n/a	n/a	n/a	n/a	n/a
1351123	REC_WORD	wordpools/wasnorm_wordpool.txt	LTP135	ltpFR	12	6	0	FACE	547	n/a	n/a	1	n/a	0	0	0	n/a	n/a	n/a	n/a	n/a
1353742	REC_WORD	wordpools/wasnorm_wordpool.txt	LTP135	ltpFR	12	6	0	PLASTER	1085	n/a	n/a	1	n/a	0	0	0	n/a	n/a	n/a	n/a	n/a
1355218	REC_WORD	wordpools/wasnorm_wordpool.txt	LTP135	ltpFR	12	6	0	SKYSCRAPER	1322	n/a	n/a	1	n/a	0	0	0	n/a	n/a	n/a	n/a	n/a
1361076	REC_WORD	wordpools/wasnorm_wordpool.txt	LTP135	ltpFR	12	6	0	PEOPLE	1046	n/a	n/a	1	n/a	0	0	0	n/a	n/a	n/a	n/a	n/a
1361717	REC_WORD	wordpools/wasnorm_wordpool.txt	LTP135	ltpFR	12	6	0	SOCIETY	1338	n/a	n/a	1	n/a	0	0	0	n/a	n/a	n/a	n/a	n/a
1370320	REC_WORD	wordpools/wasnorm_wordpool.txt	LTP135	ltpFR	12	6	0	MASCARA	875	n/a	n/a	0	n/a	0	0	0	n/a	n/a	n/a	n/a	n/a
1381210	REC_WORD	wordpools/wasnorm_wordpool.txt	LTP135	ltpFR	12	6	0	GOOSE	649	n/a	n/a	1	n/a	0	0	0	n/a	n/a	n/a	n/a	n/a
1393392	REC_WORD	wordpools/wasnorm_wordpool.txt	LTP135	ltpFR	12	6	0	FIG	563	n/a	n/a	0	n/a	0	0	0	n/a	n/a	n/a	n/a	n/a
1439775	START	n/a	LTP135	ltpFR	12	n/a	n/a	n/a	n/a	n/a	n/a	n/a	n/a	n/a	n/a	n/a	n/a	n/a	n/a	n/a	n/a
1441275	PROB	n/a	LTP135	ltpFR	12	n/a	n/a	n/a	n/a	n/a	n/a	n/a	25	9	7	9	n/a	n/a	n/a	n/a	n/a
1443382	PROB	n/a	LTP135	ltpFR	12	n/a	n/a	n/a	n/a	n/a	n/a	n/a	23	8	6	9	n/a	n/a	n/a	n/a	n/a
1445074	PROB	n/a	LTP135	ltpFR	12	n/a	n/a	n/a	n/a	n/a	n/a	n/a	11	2	2	9	n/a	n/a	n/a	n/a	n/a
1446554	STOP	n/a	LTP135	ltpFR	12	n/a	n/a	n/a	n/a	n/a	n/a	n/a	n/a	n/a	n/a	n/a	n/a	n/a	n/a	n/a	n/a
1448713	WORD	wordpools/wasnorm_wordpool.txt	LTP135	ltpFR	12	7	1	BUS	201	n/a	n/a	0	n/a	0	0	0	0.422607421875	0.5869140625	0	upper	amplitud.ttf
1451721	START	n/a	LTP135	ltpFR	12	n/a	n/a	n/a	n/a	n/a	n/a	n/a	n/a	n/a	n/a	n/a	n/a	n/a	n/a	n/a	n/a
1452786	PROB	n/a	LTP135	ltpFR	12	n/a	n/a	n/a	n/a	n/a	n/a	n/a	21	3	9	9	n/a	n/a	n/a	n/a	n/a
1454362	PROB	n/a	LTP135	ltpFR	12	n/a	n/a	n/a	n/a	n/a	n/a	n/a	19	9	3	7	n/a	n/a	n/a	n/a	n/a
1455970	PROB	n/a	LTP135	ltpFR	12	n/a	n/a	n/a	n/a	n/a	n/a	n/a	18	4	9	5	n/a	n/a	n/a	n/a	n/a
1457619	PROB	n/a	LTP135	ltpFR	12	n/a	n/a	n/a	n/a	n/a	n/a	n/a	6	1	4	1	n/a	n/a	n/a	n/a	n/a
1458810	STOP	n/a	LTP135	ltpFR	12	n/a	n/a	n/a	n/a	n/a	n/a	n/a	n/a	n/a	n/a	n/a	n/a	n/a	n/a	n/a	n/a
1460826	WORD	wordpools/wasnorm_wordpool.txt	LTP135	ltpFR	12	7	1	RAILROAD	1162	n/a	n/a	0	n/a	0	0	0	0.422607421875	0.5869140625	0	upper	amplitud.ttf
1463834	START	n/a	LTP135	ltpFR	12	n/a	n/a	n/a	n/a	n/a	n/a	n/a	n/a	n/a	n/a	n/a	n/a	n/a	n/a	n/a	n/a
1465025	PROB	n/a	LTP135	ltpFR	12	n/a	n/a	n/a	n/a	n/a	n/a	n/a	20	4	7	9	n/a	n/a	n/a	n/a	n/a
1467415	PROB	n/a	LTP135	ltpFR	12	n/a	n/a	n/a	n/a	n/a	n/a	n/a	12	5	5	2	n/a	n/a	n/a	n/a	n/a
1468648	PROB	n/a	LTP135	ltpFR	12	n/a	n/a	n/a	n/a	n/a	n/a	n/a	21	5	8	9	n/a	n/a	n/a	n/a	n/a
1471002	STOP	n/a	LTP135	ltpFR	12	n/a	n/a	n/a	n/a	n/a	n/a	n/a	n/a	n/a	n/a	n/a	n/a	n/a	n/a	n/a	n/a
1472814	WORD	wordpools/wasnorm_wordpool.txt	LTP135	ltpFR	12	7	1	CHEF	290	n/a	n/a	1	n/a	0	0	0	0.422607421875	0.5869140625	0	upper	amplitud.ttf
1475821	START	n/a	LTP135	ltpFR	12	n/a	n/a	n/a	n/a	n/a	n/a	n/a	n/a	n/a	n/a	n/a	n/a	n/a	n/a	n/a	n/a
1476829	PROB	n/a	LTP135	ltpFR	12	n/a	n/a	n/a	n/a	n/a	n/a	n/a	19	9	5	5	n/a	n/a	n/a	n/a	n/a
1478212	PROB	n/a	LTP135	ltpFR	12	n/a	n/a	n/a	n/a	n/a	n/a	n/a	11	8	2	1	n/a	n/a	n/a	n/a	n/a
1479570	PROB	n/a	LTP135	ltpFR	12	n/a	n/a	n/a	n/a	n/a	n/a	n/a	17	7	5	5	n/a	n/a	n/a	n/a	n/a
1481019	PROB	n/a	LTP135	ltpFR	12	n/a	n/a	n/a	n/a	n/a	n/a	n/a	6	3	1	2	n/a	n/a	n/a	n/a	n/a
1483820	STOP	n/a	LTP135	ltpFR	12	n/a	n/a	n/a	n/a	n/a	n/a	n/a	n/a	n/a	n/a	n/a	n/a	n/a	n/a	n/a	n/a
1485001	WORD	wordpools/wasnorm_wordpool.txt	LTP135	ltpFR	12	7	1	PICNIC	1060	n/a	n/a	0	n/a	0	0	0	0.422607421875	0.5869140625	0	upper	amplitud.ttf
1488009	START	n/a	LTP135	ltpFR	12	n/a	n/a	n/a	n/a	n/a	n/a	n/a	n/a	n/a	n/a	n/a	n/a	n/a	n/a	n/a	n/a
1489174	PROB	n/a	LTP135	ltpFR	12	n/a	n/a	n/a	n/a	n/a	n/a	n/a	10	1	7	2	n/a	n/a	n/a	n/a	n/a
1490424	PROB	n/a	LTP135	ltpFR	12	n/a	n/a	n/a	n/a	n/a	n/a	n/a	12	6	3	3	n/a	n/a	n/a	n/a	n/a
1492390	PROB	n/a	LTP135	ltpFR	12	n/a	n/a	n/a	n/a	n/a	n/a	n/a	11	2	8	1	n/a	n/a	n/a	n/a	n/a
1496009	STOP	n/a	LTP135	ltpFR	12	n/a	n/a	n/a	n/a	n/a	n/a	n/a	n/a	n/a	n/a	n/a	n/a	n/a	n/a	n/a	n/a
1496847	WORD	wordpools/wasnorm_wordpool.txt	LTP135	ltpFR	12	7	1	ACORN	3	n/a	n/a	0	n/a	0	0	0	0.422607421875	0.5869140625	0	upper	amplitud.ttf
1499855	START	n/a	LTP135	ltpFR	12	n/a	n/a	n/a	n/a	n/a	n/a	n/a	n/a	n/a	n/a	n/a	n/a	n/a	n/a	n/a	n/a
1500970	PROB	n/a	LTP135	ltpFR	12	n/a	n/a	n/a	n/a	n/a	n/a	n/a	13	7	2	4	n/a	n/a	n/a	n/a	n/a
1502669	PROB	n/a	LTP135	ltpFR	12	n/a	n/a	n/a	n/a	n/a	n/a	n/a	9	5	2	2	n/a	n/a	n/a	n/a	n/a
1504211	PROB	n/a	LTP135	ltpFR	12	n/a	n/a	n/a	n/a	n/a	n/a	n/a	17	9	5	3	n/a	n/a	n/a	n/a	n/a
1506327	PROB	n/a	LTP135	ltpFR	12	n/a	n/a	n/a	n/a	n/a	n/a	n/a	19	6	4	9	n/a	n/a	n/a	n/a	n/a
1507650	STOP	n/a	LTP135	ltpFR	12	n/a	n/a	n/a	n/a	n/a	n/a	n/a	n/a	n/a	n/a	n/a	n/a	n/a	n/a	n/a	n/a
1508892	WORD	wordpools/wasnorm_wordpool.txt	LTP135	ltpFR	12	7	1	TWIG	1527	n/a	n/a	0	n/a	0	0	0	0.422607421875	0.5869140625	0	upper	amplitud.ttf
1511900	START	n/a	LTP135	ltpFR	12	n/a	n/a	n/a	n/a	n/a	n/a	n/a	n/a	n/a	n/a	n/a	n/a	n/a	n/a	n/a	n/a
1513074	PROB	n/a	LTP135	ltpFR	12	n/a	n/a	n/a	n/a	n/a	n/a	n/a	18	6	9	3	n/a	n/a	n/a	n/a	n/a
1515982	PROB	n/a	LTP135	ltpFR	12	n/a	n/a	n/a	n/a	n/a	n/a	n/a	7	1	3	3	n/a	n/a	n/a	n/a	n/a
1519900	STOP	n/a	LTP135	ltpFR	12	n/a	n/a	n/a	n/a	n/a	n/a	n/a	n/a	n/a	n/a	n/a	n/a	n/a	n/a	n/a	n/a
1520921	WORD	wordpools/wasnorm_wordpool.txt	LTP135	ltpFR	12	7	1	LIP	828	n/a	n/a	0	n/a	0	0	0	0.422607421875	0.5869140625	0	upper	amplitud.ttf
1523929	START	n/a	LTP135	ltpFR	12	n/a	n/a	n/a	n/a	n/a	n/a	n/a	n/a	n/a	n/a	n/a	n/a	n/a	n/a	n/a	n/a
1524744	PROB	n/a	LTP135	ltpFR	12	n/a	n/a	n/a	n/a	n/a	n/a	n/a	19	5	8	6	n/a	n/a	n/a	n/a	n/a
1527194	PROB	n/a	LTP135	ltpFR	12	n/a	n/a	n/a	n/a	n/a	n/a	n/a	14	7	1	6	n/a	n/a	n/a	n/a	n/a
1528835	PROB	n/a	LTP135	ltpFR	12	n/a	n/a	n/a	n/a	n/a	n/a	n/a	17	5	8	4	n/a	n/a	n/a	n/a	n/a
1531146	STOP	n/a	LTP135	ltpFR	12	n/a	n/a	n/a	n/a	n/a	n/a	n/a	n/a	n/a	n/a	n/a	n/a	n/a	n/a	n/a	n/a
1532817	WORD	wordpools/wasnorm_wordpool.txt	LTP135	ltpFR	12	7	1	TANK	1432	n/a	n/a	0	n/a	0	0	0	0.422607421875	0.5869140625	0	upper	amplitud.ttf
1535825	START	n/a	LTP135	ltpFR	12	n/a	n/a	n/a	n/a	n/a	n/a	n/a	n/a	n/a	n/a	n/a	n/a	n/a	n/a	n/a	n/a
1536991	PROB	n/a	LTP135	ltpFR	12	n/a	n/a	n/a	n/a	n/a	n/a	n/a	11	2	8	1	n/a	n/a	n/a	n/a	n/a
1538374	PROB	n/a	LTP135	ltpFR	12	n/a	n/a	n/a	n/a	n/a	n/a	n/a	16	3	9	4	n/a	n/a	n/a	n/a	n/a
1542514	STOP	n/a	LTP135	ltpFR	12	n/a	n/a	n/a	n/a	n/a	n/a	n/a	n/a	n/a	n/a	n/a	n/a	n/a	n/a	n/a	n/a
1544946	WORD	wordpools/wasnorm_wordpool.txt	LTP135	ltpFR	12	7	1	ARENA	37	n/a	n/a	0	n/a	0	0	0	0.422607421875	0.5869140625	0	upper	amplitud.ttf
1547954	START	n/a	LTP135	ltpFR	12	n/a	n/a	n/a	n/a	n/a	n/a	n/a	n/a	n/a	n/a	n/a	n/a	n/a	n/a	n/a	n/a
1549145	PROB	n/a	LTP135	ltpFR	12	n/a	n/a	n/a	n/a	n/a	n/a	n/a	12	2	7	3	n/a	n/a	n/a	n/a	n/a
1551427	PROB	n/a	LTP135	ltpFR	12	n/a	n/a	n/a	n/a	n/a	n/a	n/a	15	3	9	3	n/a	n/a	n/a	n/a	n/a
1555953	STOP	n/a	LTP135	ltpFR	12	n/a	n/a	n/a	n/a	n/a	n/a	n/a	n/a	n/a	n/a	n/a	n/a	n/a	n/a	n/a	n/a
1556925	WORD	wordpools/wasnorm_wordpool.txt	LTP135	ltpFR	12	7	1	VICTIM	1562	n/a	n/a	1	n/a	0	0	0	0.422607421875	0.5869140625	0	upper	amplitud.ttf
1559933	START	n/a	LTP135	ltpFR	12	n/a	n/a	n/a	n/a	n/a	n/a	n/a	n/a	n/a	n/a	n/a	n/a	n/a	n/a	n/a	n/a
1560949	PROB	n/a	LTP135	ltpFR	12	n/a	n/a	n/a	n/a	n/a	n/a	n/a	8	5	1	2	n/a	n/a	n/a	n/a	n/a
1562915	PROB	n/a	LTP135	ltpFR	12	n/a	n/a	n/a	n/a	n/a	n/a	n/a	13	6	3	4	n/a	n/a	n/a	n/a	n/a
1565980	PROB	n/a	LTP135	ltpFR	12	n/a	n/a	n/a	n/a	n/a	n/a	n/a	12	2	4	6	n/a	n/a	n/a	n/a	n/a
1567226	STOP	n/a	LTP135	ltpFR	12	n/a	n/a	n/a	n/a	n/a	n/a	n/a	n/a	n/a	n/a	n/a	n/a	n/a	n/a	n/a	n/a
1568846	WORD	wordpools/wasnorm_wordpool.txt	LTP135	ltpFR	12	7	1	COD	340	n/a	n/a	1	n/a	0	0	0	0.422607421875	0.5869140625	0	upper	amplitud.ttf
1571854	START	n/a	LTP135	ltpFR	12	n/a	n/a	n/a	n/a	n/a	n/a	n/a	n/a	n/a	n/a	n/a	n/a	n/a	n/a	n/a	n/a
1572920	PROB	n/a	LTP135	ltpFR	12	n/a	n/a	n/a	n/a	n/a	n/a	n/a	15	7	7	1	n/a	n/a	n/a	n/a	n/a
1574726	PROB	n/a	LTP135	ltpFR	12	n/a	n/a	n/a	n/a	n/a	n/a	n/a	21	9	9	3	n/a	n/a	n/a	n/a	n/a
1579854	STOP	n/a	LTP135	ltpFR	12	n/a	n/a	n/a	n/a	n/a	n/a	n/a	n/a	n/a	n/a	n/a	n/a	n/a	n/a	n/a	n/a
1580749	WORD	wordpools/wasnorm_wordpool.txt	LTP135	ltpFR	12	7	1	STADIUM	1364	n/a	n/a	0	n/a	0	0	0	0.422607421875	0.5869140625	0	upper	amplitud.ttf
1583757	START	n/a	LTP135	ltpFR	12	n/a	n/a	n/a	n/a	n/a	n/a	n/a	n/a	n/a	n/a	n/a	n/a	n/a	n/a	n/a	n/a
1584957	PROB	n/a	LTP135	ltpFR	12	n/a	n/a	n/a	n/a	n/a	n/a	n/a	12	2	6	4	n/a	n/a	n/a	n/a	n/a
1586481	PROB	n/a	LTP135	ltpFR	12	n/a	n/a	n/a	n/a	n/a	n/a	n/a	14	7	3	4	n/a	n/a	n/a	n/a	n/a
1588073	PROB	n/a	LTP135	ltpFR	12	n/a	n/a	n/a	n/a	n/a	n/a	n/a	11	1	9	1	n/a	n/a	n/a	n/a	n/a
1591757	STOP	n/a	LTP135	ltpFR	12	n/a	n/a	n/a	n/a	n/a	n/a	n/a	n/a	n/a	n/a	n/a	n/a	n/a	n/a	n/a	n/a
1592812	WORD	wordpools/wasnorm_wordpool.txt	LTP135	ltpFR	12	7	1	WALRUS	1585	n/a	n/a	1	n/a	0	0	0	0.422607421875	0.5869140625	0	upper	amplitud.ttf
1595820	START	n/a	LTP135	ltpFR	12	n/a	n/a	n/a	n/a	n/a	n/a	n/a	n/a	n/a	n/a	n/a	n/a	n/a	n/a	n/a	n/a
1596693	PROB	n/a	LTP135	ltpFR	12	n/a	n/a	n/a	n/a	n/a	n/a	n/a	19	8	4	7	n/a	n/a	n/a	n/a	n/a
1598977	PROB	n/a	LTP135	ltpFR	12	n/a	n/a	n/a	n/a	n/a	n/a	n/a	16	6	4	6	n/a	n/a	n/a	n/a	n/a
1600535	PROB	n/a	LTP135	ltpFR	12	n/a	n/a	n/a	n/a	n/a	n/a	n/a	11	1	1	9	n/a	n/a	n/a	n/a	n/a
1601593	PROB	n/a	LTP135	ltpFR	12	n/a	n/a	n/a	n/a	n/a	n/a	n/a	11	6	2	3	n/a	n/a	n/a	n/a	n/a
1602970	STOP	n/a	LTP135	ltpFR	12	n/a	n/a	n/a	n/a	n/a	n/a	n/a	n/a	n/a	n/a	n/a	n/a	n/a	n/a	n/a	n/a
1604917	WORD	wordpools/wasnorm_wordpool.txt	LTP135	ltpFR	12	7	1	ANTEATER	26	n/a	n/a	1	n/a	0	0	0	0.422607421875	0.5869140625	0	upper	amplitud.ttf
1607924	START	n/a	LTP135	ltpFR	12	n/a	n/a	n/a	n/a	n/a	n/a	n/a	n/a	n/a	n/a	n/a	n/a	n/a	n/a	n/a	n/a
1608998	PROB	n/a	LTP135	ltpFR	12	n/a	n/a	n/a	n/a	n/a	n/a	n/a	9	1	6	2	n/a	n/a	n/a	n/a	n/a
1611081	PROB	n/a	LTP135	ltpFR	12	n/a	n/a	n/a	n/a	n/a	n/a	n/a	7	5	1	1	n/a	n/a	n/a	n/a	n/a
1612530	PROB	n/a	LTP135	ltpFR	12	n/a	n/a	n/a	n/a	n/a	n/a	n/a	13	6	4	3	n/a	n/a	n/a	n/a	n/a
1613997	PROB	n/a	LTP135	ltpFR	12	n/a	n/a	n/a	n/a	n/a	n/a	n/a	17	7	3	7	n/a	n/a	n/a	n/a	n/a
1615721	STOP	n/a	LTP135	ltpFR	12	n/a	n/a	n/a	n/a	n/a	n/a	n/a	n/a	n/a	n/a	n/a	n/a	n/a	n/a	n/a	n/a
1616871	WORD	wordpools/wasnorm_wordpool.txt	LTP135	ltpFR	12	7	1	SIDING	1304	n/a	n/a	0	n/a	0	0	0	0.422607421875	0.5869140625	0	upper	amplitud.ttf
1619878	START	n/a	LTP135	ltpFR	12	n/a	n/a	n/a	n/a	n/a	n/a	n/a	n/a	n/a	n/a	n/a	n/a	n/a	n/a	n/a	n/a
1620869	PROB	n/a	LTP135	ltpFR	12	n/a	n/a	n/a	n/a	n/a	n/a	n/a	18	4	6	8	n/a	n/a	n/a	n/a	n/a
1622235	PROB	n/a	LTP135	ltpFR	12	n/a	n/a	n/a	n/a	n/a	n/a	n/a	15	3	9	3	n/a	n/a	n/a	n/a	n/a
1624035	PROB	n/a	LTP135	ltpFR	12	n/a	n/a	n/a	n/a	n/a	n/a	n/a	10	6	2	2	n/a	n/a	n/a	n/a	n/a
1625592	PROB	n/a	LTP135	ltpFR	12	n/a	n/a	n/a	n/a	n/a	n/a	n/a	17	6	4	7	n/a	n/a	n/a	n/a	n/a
1627330	STOP	n/a	LTP135	ltpFR	12	n/a	n/a	n/a	n/a	n/a	n/a	n/a	n/a	n/a	n/a	n/a	n/a	n/a	n/a	n/a	n/a
1629033	WORD	wordpools/wasnorm_wordpool.txt	LTP135	ltpFR	12	7	1	WASHCLOTH	1591	n/a	n/a	0	n/a	0	0	0	0.422607421875	0.5869140625	0	upper	amplitud.ttf
1632040	START	n/a	LTP135	ltpFR	12	n/a	n/a	n/a	n/a	n/a	n/a	n/a	n/a	n/a	n/a	n/a	n/a	n/a	n/a	n/a	n/a
1632857	PROB	n/a	LTP135	ltpFR	12	n/a	n/a	n/a	n/a	n/a	n/a	n/a	11	2	6	3	n/a	n/a	n/a	n/a	n/a
1634639	PROB	n/a	LTP135	ltpFR	12	n/a	n/a	n/a	n/a	n/a	n/a	n/a	17	6	4	7	n/a	n/a	n/a	n/a	n/a
1636047	PROB	n/a	LTP135	ltpFR	12	n/a	n/a	n/a	n/a	n/a	n/a	n/a	7	3	2	2	n/a	n/a	n/a	n/a	n/a
1638538	STOP	n/a	LTP135	ltpFR	12	n/a	n/a	n/a	n/a	n/a	n/a	n/a	n/a	n/a	n/a	n/a	n/a	n/a	n/a	n/a	n/a
1641879	REC_START	n/a	LTP135	ltpFR	12	7	n/a	n/a	n/a	n/a	n/a	n/a	n/a	0	0	0	n/a	n/a	n/a	n/a	n/a
1643430	REC_WORD	wordpools/wasnorm_wordpool.txt	LTP135	ltpFR	12	7	1	WASHCLOTH	1591	n/a	n/a	0	n/a	0	0	0	n/a	n/a	n/a	n/a	n/a
1645061	REC_WORD	wordpools/wasnorm_wordpool.txt	LTP135	ltpFR	12	7	1	SIDING	1304	n/a	n/a	0	n/a	0	0	0	n/a	n/a	n/a	n/a	n/a
1646947	REC_WORD	wordpools/wasnorm_wordpool.txt	LTP135	ltpFR	12	7	1	ANTEATER	26	n/a	n/a	1	n/a	0	0	0	n/a	n/a	n/a	n/a	n/a
1650793	REC_WORD	wordpools/wasnorm_wordpool.txt	LTP135	ltpFR	12	7	1	STADIUM	1364	n/a	n/a	0	n/a	0	0	0	n/a	n/a	n/a	n/a	n/a
1651641	REC_WORD	wordpools/wasnorm_wordpool.txt	LTP135	ltpFR	12	7	1	ARENA	37	n/a	n/a	0	n/a	0	0	0	n/a	n/a	n/a	n/a	n/a
1657538	REC_WORD	wordpools/wasnorm_wordpool.txt	LTP135	ltpFR	12	7	1	WALRUS	1585	n/a	n/a	1	n/a	0	0	0	n/a	n/a	n/a	n/a	n/a
1675383	REC_WORD	wordpools/wasnorm_wordpool.txt	LTP135	ltpFR	12	7	1	ACORN	3	n/a	n/a	0	n/a	0	0	0	n/a	n/a	n/a	n/a	n/a
1692803	REC_WORD	wordpools/wasnorm_wordpool.txt	LTP135	ltpFR	12	7	1	TWIG	1527	n/a	n/a	0	n/a	0	0	0	n/a	n/a	n/a	n/a	n/a
1712453	REC_WORD	wordpools/wasnorm_wordpool.txt	LTP135	ltpFR	12	7	1	VICTIM	1562	n/a	n/a	1	n/a	0	0	0	n/a	n/a	n/a	n/a	n/a
1730314	WORD	wordpools/wasnorm_wordpool.txt	LTP135	ltpFR	12	8	1	FIDDLE	561	n/a	n/a	0	n/a	0	0	0	0.422607421875	0.5869140625	0	upper	amplitud.ttf
1734145	WORD	wordpools/wasnorm_wordpool.txt	LTP135	ltpFR	12	8	1	OBOE	969	n/a	n/a	0	n/a	0	0	0	0.422607421875	0.5869140625	0	upper	amplitud.ttf
1738011	WORD	wordpools/wasnorm_wordpool.txt	LTP135	ltpFR	12	8	1	PATIENT	1024	n/a	n/a	1	n/a	0	0	0	0.422607421875	0.5869140625	0	upper	amplitud.ttf
1742209	WORD	wordpools/wasnorm_wordpool.txt	LTP135	ltpFR	12	8	1	LAWYER	806	n/a	n/a	1	n/a	0	0	0	0.422607421875	0.5869140625	0	upper	amplitud.ttf
1746108	WORD	wordpools/wasnorm_wordpool.txt	LTP135	ltpFR	12	8	1	AUTHOR	61	n/a	n/a	1	n/a	0	0	0	0.422607421875	0.5869140625	0	upper	amplitud.ttf
1749931	WORD	wordpools/wasnorm_wordpool.txt	LTP135	ltpFR	12	8	1	BUTLER	204	n/a	n/a	1	n/a	0	0	0	0.422607421875	0.5869140625	0	upper	amplitud.ttf
1754022	WORD	wordpools/wasnorm_wordpool.txt	LTP135	ltpFR	12	8	1	COP	376	n/a	n/a	1	n/a	0	0	0	0.422607421875	0.5869140625	0	upper	amplitud.ttf
1757954	WORD	wordpools/wasnorm_wordpool.txt	LTP135	ltpFR	12	8	1	APPLE	33	n/a	n/a	0	n/a	0	0	0	0.422607421875	0.5869140625	0	upper	amplitud.ttf
1762135	WORD	wordpools/wasnorm_wordpool.txt	LTP135	ltpFR	12	8	1	MANAGER	863	n/a	n/a	1	n/a	0	0	0	0.422607421875	0.5869140625	0	upper	amplitud.ttf
1766017	WORD	wordpools/wasnorm_wordpool.txt	LTP135	ltpFR	12	8	1	TAPE	1433	n/a	n/a	0	n/a	0	0	0	0.422607421875	0.5869140625	0	upper	amplitud.ttf
1770133	WORD	wordpools/wasnorm_wordpool.txt	LTP135	ltpFR	12	8	1	PUZZLE	1146	n/a	n/a	0	n/a	0	0	0	0.422607421875	0.5869140625	0	upper	amplitud.ttf
1774231	WORD	wordpools/wasnorm_wordpool.txt	LTP135	ltpFR	12	8	1	PARTNER	1017	n/a	n/a	1	n/a	0	0	0	0.422607421875	0.5869140625	0	upper	amplitud.ttf
1778255	WORD	wordpools/wasnorm_wordpool.txt	LTP135	ltpFR	12	8	1	POET	1095	n/a	n/a	1	n/a	0	0	0	0.422607421875	0.5869140625	0	upper	amplitud.ttf
1782378	WORD	wordpools/wasnorm_wordpool.txt	LTP135	ltpFR	12	8	1	PLUM	1090	n/a	n/a	0	n/a	0	0	0	0.422607421875	0.5869140625	0	upper	amplitud.ttf
1786477	WORD	wordpools/wasnorm_wordpool.txt	LTP135	ltpFR	12	8	1	MILK	895	n/a	n/a	0	n/a	0	0	0	0.422607421875	0.5869140625	0	upper	amplitud.ttf
1790359	WORD	wordpools/wasnorm_wordpool.txt	LTP135	ltpFR	12	8	1	CATTLE	261	n/a	n/a	1	n/a	0	0	0	0.422607421875	0.5869140625	0	upper	amplitud.ttf
1793366	START	n/a	LTP135	ltpFR	12	n/a	n/a	n/a	n/a	n/a	n/a	n/a	n/a	n/a	n/a	n/a	n/a	n/a	n/a	n/a	n/a
1794191	PROB	n/a	LTP135	ltpFR	12	n/a	n/a	n/a	n/a	n/a	n/a	n/a	14	2	3	9	n/a	n/a	n/a	n/a	n/a
1797290	PROB	n/a	LTP135	ltpFR	12	n/a	n/a	n/a	n/a	n/a	n/a	n/a	9	1	4	4	n/a	n/a	n/a	n/a	n/a
1798547	PROB	n/a	LTP135	ltpFR	12	n/a	n/a	n/a	n/a	n/a	n/a	n/a	17	7	4	6	n/a	n/a	n/a	n/a	n/a
1800430	PROB	n/a	LTP135	ltpFR	12	n/a	n/a	n/a	n/a	n/a	n/a	n/a	12	6	2	4	n/a	n/a	n/a	n/a	n/a
1802396	PROB	n/a	LTP135	ltpFR	12	n/a	n/a	n/a	n/a	n/a	n/a	n/a	8	6	1	1	n/a	n/a	n/a	n/a	n/a
1803661	PROB	n/a	LTP135	ltpFR	12	n/a	n/a	n/a	n/a	n/a	n/a	n/a	19	9	8	2	n/a	n/a	n/a	n/a	n/a
1805412	PROB	n/a	LTP135	ltpFR	12	n/a	n/a	n/a	n/a	n/a	n/a	n/a	14	9	4	1	n/a	n/a	n/a	n/a	n/a
1807228	PROB	n/a	LTP135	ltpFR	12	n/a	n/a	n/a	n/a	n/a	n/a	n/a	9	3	3	3	n/a	n/a	n/a	n/a	n/a
1808290	STOP	n/a	LTP135	ltpFR	12	n/a	n/a	n/a	n/a	n/a	n/a	n/a	n/a	n/a	n/a	n/a	n/a	n/a	n/a	n/a	n/a
1811227	REC_START	n/a	LTP135	ltpFR	12	8	n/a	n/a	n/a	n/a	n/a	n/a	n/a	0	0	0	n/a	n/a	n/a	n/a	n/a
1812105	REC_WORD	wordpools/wasnorm_wordpool.txt	LTP135	ltpFR	12	8	1	PLUM	1090	n/a	n/a	0	n/a	0	0	0	n/a	n/a	n/a	n/a	n/a
1813392	REC_WORD	wordpools/wasnorm_wordpool.txt	LTP135	ltpFR	12	8	1	MILK	895	n/a	n/a	0	n/a	0	0	0	n/a	n/a	n/a	n/a	n/a
1814719	REC_WORD	wordpools/wasnorm_wordpool.txt	LTP135	ltpFR	12	8	1	APPLE	33	n/a	n/a	0	n/a	0	0	0	n/a	n/a	n/a	n/a	n/a
1815866	REC_WORD	wordpools/wasnorm_wordpool.txt	LTP135	ltpFR	12	8	1	CATTLE	261	n/a	n/a	1	n/a	0	0	0	n/a	n/a	n/a	n/a	n/a
1817293	REC_WORD	wordpools/wasnorm_wordpool.txt	LTP135	ltpFR	12	8	1	POET	1095	n/a	n/a	1	n/a	0	0	0	n/a	n/a	n/a	n/a	n/a
1818615	REC_WORD	wordpools/wasnorm_wordpool.txt	LTP135	ltpFR	12	8	1	AUTHOR	61	n/a	n/a	1	n/a	0	0	0	n/a	n/a	n/a	n/a	n/a
1819857	REC_WORD	wordpools/wasnorm_wordpool.txt	LTP135	ltpFR	12	8	1	COP	376	n/a	n/a	1	n/a	0	0	0	n/a	n/a	n/a	n/a	n/a
1821084	REC_WORD	wordpools/wasnorm_wordpool.txt	LTP135	ltpFR	12	8	1	MANAGER	863	n/a	n/a	1	n/a	0	0	0	n/a	n/a	n/a	n/a	n/a
1823100	REC_WORD	wordpools/wasnorm_wordpool.txt	LTP135	ltpFR	12	8	1	BUTLER	204	n/a	n/a	1	n/a	0	0	0	n/a	n/a	n/a	n/a	n/a
1824561	REC_WORD	wordpools/wasnorm_wordpool.txt	LTP135	ltpFR	12	8	1	LAWYER	806	n/a	n/a	1	n/a	0	0	0	n/a	n/a	n/a	n/a	n/a
1903069	WORD	wordpools/wasnorm_wordpool.txt	LTP135	ltpFR	12	9	0	BLACKBOARD	133	n/a	n/a	1	n/a	0	0	0	0.57763671875	0.412841796875	1	lower	zerothre.ttf
1906892	WORD	wordpools/wasnorm_wordpool.txt	LTP135	ltpFR	12	9	0	SKATE	1313	n/a	n/a	1	n/a	0	0	0	0.57763671875	0.412841796875	1	lower	zerothre.ttf
1910790	WORD	wordpools/wasnorm_wordpool.txt	LTP135	ltpFR	12	9	0	VIKING	1565	n/a	n/a	1	n/a	0	0	0	0.57763671875	0.412841796875	1	lower	zerothre.ttf
1914964	WORD	wordpools/wasnorm_wordpool.txt	LTP135	ltpFR	12	9	1	QUEEN	1149	n/a	n/a	1	n/a	0	0	0	0.422607421875	0.5869140625	0	upper	amplitud.ttf
1918779	WORD	wordpools/wasnorm_wordpool.txt	LTP135	ltpFR	12	9	1	PRUNE	1134	n/a	n/a	0	n/a	0	0	0	0.422607421875	0.5869140625	0	upper	amplitud.ttf
1922820	WORD	wordpools/wasnorm_wordpool.txt	LTP135	ltpFR	12	9	1	ARMY	39	n/a	n/a	1	n/a	0	0	0	0.422607421875	0.5869140625	0	upper	amplitud.ttf
1926927	WORD	wordpools/wasnorm_wordpool.txt	LTP135	ltpFR	12	9	1	SAUSAGE	1238	n/a	n/a	0	n/a	0	0	0	0.422607421875	0.5869140625	0	upper	amplitud.ttf
1931125	WORD	wordpools/wasnorm_wordpool.txt	LTP135	ltpFR	12	9	0	COOKIE	374	n/a	n/a	0	n/a	0	0	0	0.57763671875	0.412841796875	1	lower	zerothre.ttf
1935232	WORD	wordpools/wasnorm_wordpool.txt	LTP135	ltpFR	12	9	0	MARINE	869	n/a	n/a	1	n/a	0	0	0	0.57763671875	0.412841796875	1	lower	zerothre.ttf
1939097	WORD	wordpools/wasnorm_wordpool.txt	LTP135	ltpFR	12	9	1	CAPTAIN	239	n/a	n/a	1	n/a	0	0	0	0.422607421875	0.5869140625	0	upper	amplitud.ttf
1943196	WORD	wordpools/wasnorm_wordpool.txt	LTP135	ltpFR	12	9	1	PICKLE	1059	n/a	n/a	0	n/a	0	0	0	0.422607421875	0.5869140625	0	upper	amplitud.ttf
1947394	WORD	wordpools/wasnorm_wordpool.txt	LTP135	ltpFR	12	9	1	SPINACH	1352	n/a	n/a	0	n/a	0	0	0	0.422607421875	0.5869140625	0	upper	amplitud.ttf
1951585	WORD	wordpools/wasnorm_wordpool.txt	LTP135	ltpFR	12	9	1	TROPHY	1509	n/a	n/a	0	n/a	0	0	0	0.422607421875	0.5869140625	0	upper	amplitud.ttf
1955707	WORD	wordpools/wasnorm_wordpool.txt	LTP135	ltpFR	12	9	0	NAVIGATOR	938	n/a	n/a	1	n/a	0	0	0	0.57763671875	0.412841796875	1	lower	zerothre.ttf
1959823	WORD	wordpools/wasnorm_wordpool.txt	LTP135	ltpFR	12	9	0	AIRCRAFT	11	n/a	n/a	1	n/a	0	0	0	0.57763671875	0.412841796875	1	lower	zerothre.ttf
1963822	WORD	wordpools/wasnorm_wordpool.txt	LTP135	ltpFR	12	9	0	SEED	1266	n/a	n/a	0	n/a	0	0	0	0.57763671875	0.412841796875	1	lower	zerothre.ttf
1966829	START	n/a	LTP135	ltpFR	12	n/a	n/a	n/a	n/a	n/a	n/a	n/a	n/a	n/a	n/a	n/a	n/a	n/a	n/a	n/a	n/a
1967745	PROB	n/a	LTP135	ltpFR	12	n/a	n/a	n/a	n/a	n/a	n/a	n/a	16	4	7	5	n/a	n/a	n/a	n/a	n/a
1971161	PROB	n/a	LTP135	ltpFR	12	n/a	n/a	n/a	n/a	n/a	n/a	n/a	21	7	8	6	n/a	n/a	n/a	n/a	n/a
1973269	PROB	n/a	LTP135	ltpFR	12	n/a	n/a	n/a	n/a	n/a	n/a	n/a	16	7	4	5	n/a	n/a	n/a	n/a	n/a
1974753	STOP	n/a	LTP135	ltpFR	12	n/a	n/a	n/a	n/a	n/a	n/a	n/a	n/a	n/a	n/a	n/a	n/a	n/a	n/a	n/a	n/a
1976700	REC_START	n/a	LTP135	ltpFR	12	9	n/a	n/a	n/a	n/a	n/a	n/a	n/a	0	0	0	n/a	n/a	n/a	n/a	n/a
1977812	REC_WORD	wordpools/wasnorm_wordpool.txt	LTP135	ltpFR	12	9	0	SEED	1266	n/a	n/a	0	n/a	0	0	0	n/a	n/a	n/a	n/a	n/a
1979384	REC_WORD	wordpools/wasnorm_wordpool.txt	LTP135	ltpFR	12	9	1	QUEEN	1149	n/a	n/a	1	n/a	0	0	0	n/a	n/a	n/a	n/a	n/a
1981688	REC_WORD	wordpools/wasnorm_wordpool.txt	LTP135	ltpFR	12	9	1	ARMY	39	n/a	n/a	1	n/a	0	0	0	n/a	n/a	n/a	n/a	n/a
1984712	REC_WORD	wordpools/wasnorm_wordpool.txt	LTP135	ltpFR	12	9	1	CAPTAIN	239	n/a	n/a	1	n/a	0	0	0	n/a	n/a	n/a	n/a	n/a
1985864	REC_WORD	wordpools/wasnorm_wordpool.txt	LTP135	ltpFR	12	9	0	MARINE	869	n/a	n/a	1	n/a	0	0	0	n/a	n/a	n/a	n/a	n/a
1990449	REC_WORD	wordpools/wasnorm_wordpool.txt	LTP135	ltpFR	12	9	0	AIRCRAFT	11	n/a	n/a	1	n/a	0	0	0	n/a	n/a	n/a	n/a	n/a
1991621	REC_WORD	wordpools/wasnorm_wordpool.txt	LTP135	ltpFR	12	9	0	NAVIGATOR	938	n/a	n/a	1	n/a	0	0	0	n/a	n/a	n/a	n/a	n/a
1999258	REC_WORD	wordpools/wasnorm_wordpool.txt	LTP135	ltpFR	12	9	1	PLUM	1090	n/a	n/a	0	n/a	0	0	0	n/a	n/a	n/a	n/a	n/a
1999926	REC_WORD	wordpools/wasnorm_wordpool.txt	LTP135	ltpFR	12	9	1	SPINACH	1352	n/a	n/a	0	n/a	0	0	0	n/a	n/a	n/a	n/a	n/a
2019717	REC_WORD	wordpools/wasnorm_wordpool.txt	LTP135	ltpFR	12	9	0	VIKING	1565	n/a	n/a	1	n/a	0	0	0	n/a	n/a	n/a	n/a	n/a
2023777	REC_WORD	wordpools/wasnorm_wordpool.txt	LTP135	ltpFR	12	9	0	SKATE	1313	n/a	n/a	1	n/a	0	0	0	n/a	n/a	n/a	n/a	n/a
2064644	WORD	wordpools/wasnorm_wordpool.txt	LTP135	ltpFR	12	10	0	REINDEER	1181	n/a	n/a	1	n/a	0	0	0	0.57763671875	0.412841796875	1	lower	zerothre.ttf
2068510	WORD	wordpools/wasnorm_wordpool.txt	LTP135	ltpFR	12	10	0	STOCKING	1383	n/a	n/a	0	n/a	0	0	0	0.57763671875	0.412841796875	1	lower	zerothre.ttf
2072533	WORD	wordpools/wasnorm_wordpool.txt	LTP135	ltpFR	12	10	0	TREE	1502	n/a	n/a	1	n/a	0	0	0	0.57763671875	0.412841796875	1	lower	zerothre.ttf
2076632	WORD	wordpools/wasnorm_wordpool.txt	LTP135	ltpFR	12	10	1	HOUND	724	n/a	n/a	1	n/a	0	0	0	0.422607421875	0.5869140625	0	upper	amplitud.ttf
2080630	WORD	wordpools/wasnorm_wordpool.txt	LTP135	ltpFR	12	10	1	TAG	1429	n/a	n/a	0	n/a	0	0	0	0.422607421875	0.5869140625	0	upper	amplitud.ttf
2084845	WORD	wordpools/wasnorm_wordpool.txt	LTP135	ltpFR	12	10	1	CIGAR	308	n/a	n/a	0	n/a	0	0	0	0.422607421875	0.5869140625	0	upper	amplitud.ttf
2088977	WORD	wordpools/wasnorm_wordpool.txt	LTP135	ltpFR	12	10	1	THICKET	1455	n/a	n/a	0	n/a	0	0	0	0.422607421875	0.5869140625	0	upper	amplitud.ttf
2092959	WORD	wordpools/wasnorm_wordpool.txt	LTP135	ltpFR	12	10	0	HUMAN	726	n/a	n/a	1	n/a	0	0	0	0.57763671875	0.412841796875	1	lower	zerothre.ttf
2097024	WORD	wordpools/wasnorm_wordpool.txt	LTP135	ltpFR	12	10	0	YARD	1630	n/a	n/a	1	n/a	0	0	0	0.57763671875	0.412841796875	1	lower	zerothre.ttf
2100865	WORD	wordpools/wasnorm_wordpool.txt	LTP135	ltpFR	12	10	0	RULER	1216	n/a	n/a	0	n/a	0	0	0	0.57763671875	0.412841796875	1	lower	zerothre.ttf
2104872	WORD	wordpools/wasnorm_wordpool.txt	LTP135	ltpFR	12	10	0	GOBLIN	645	n/a	n/a	1	n/a	0	0	0	0.57763671875	0.412841796875	1	lower	zerothre.ttf
2108719	WORD	wordpools/wasnorm_wordpool.txt	LTP135	ltpFR	12	10	0	VILLAIN	1567	n/a	n/a	1	n/a	0	0	0	0.57763671875	0.412841796875	1	lower	zerothre.ttf
2112627	WORD	wordpools/wasnorm_wordpool.txt	LTP135	ltpFR	12	10	1	SACK	1220	n/a	n/a	0	n/a	0	0	0	0.422607421875	0.5869140625	0	upper	amplitud.ttf
2116584	WORD	wordpools/wasnorm_wordpool.txt	LTP135	ltpFR	12	10	1	POCKETBOOK	1094	n/a	n/a	0	n/a	0	0	0	0.422607421875	0.5869140625	0	upper	amplitud.ttf
2120491	WORD	wordpools/wasnorm_wordpool.txt	LTP135	ltpFR	12	10	1	CONCERT	360	n/a	n/a	0	n/a	0	0	0	0.422607421875	0.5869140625	0	upper	amplitud.ttf
2124365	WORD	wordpools/wasnorm_wordpool.txt	LTP135	ltpFR	12	10	1	TAIL	1430	n/a	n/a	0	n/a	0	0	0	0.422607421875	0.5869140625	0	upper	amplitud.ttf
2130130	REC_START	n/a	LTP135	ltpFR	12	10	n/a	n/a	n/a	n/a	n/a	n/a	n/a	0	0	0	n/a	n/a	n/a	n/a	n/a
2130703	REC_WORD	wordpools/wasnorm_wordpool.txt	LTP135	ltpFR	12	10	1	TAIL	1430	n/a	n/a	0	n/a	0	0	0	n/a	n/a	n/a	n/a	n/a
2131347	REC_WORD	wordpools/wasnorm_wordpool.txt	LTP135	ltpFR	12	10	1	CONCERT	360	n/a	n/a	0	n/a	0	0	0	n/a	n/a	n/a	n/a	n/a
2132130	REC_WORD	wordpools/wasnorm_wordpool.txt	LTP135	ltpFR	12	10	1	THICKET	1455	n/a	n/a	0	n/a	0	0	0	n/a	n/a	n/a	n/a	n/a
2133038	REC_WORD	wordpools/wasnorm_wordpool.txt	LTP135	ltpFR	12	10	1	POCKETBOOK	1094	n/a	n/a	0	n/a	0	0	0	n/a	n/a	n/a	n/a	n/a
2133846	REC_WORD	wordpools/wasnorm_wordpool.txt	LTP135	ltpFR	12	10	1	SACK	1220	n/a	n/a	0	n/a	0	0	0	n/a	n/a	n/a	n/a	n/a
2138845	REC_WORD	wordpools/wasnorm_wordpool.txt	LTP135	ltpFR	12	10	0	RULER	1216	n/a	n/a	0	n/a	0	0	0	n/a	n/a	n/a	n/a	n/a
2183484	REC_WORD	wordpools/wasnorm_wordpool.txt	LTP135	ltpFR	12	10	1	TAIL	1430	n/a	n/a	0	n/a	0	0	0	n/a	n/a	n/a	n/a	n/a
2205710	REST_REWET	n/a	LTP135	ltpFR	12	10	n/a	n/a	n/a	n/a	n/a	n/a	n/a	0	0	0	n/a	n/a	n/a	n/a	n/a
2506071	START	n/a	LTP135	ltpFR	12	n/a	n/a	n/a	n/a	n/a	n/a	n/a	n/a	n/a	n/a	n/a	n/a	n/a	n/a	n/a	n/a
2507578	PROB	n/a	LTP135	ltpFR	12	n/a	n/a	n/a	n/a	n/a	n/a	n/a	19	8	4	7	n/a	n/a	n/a	n/a	n/a
2509461	PROB	n/a	LTP135	ltpFR	12	n/a	n/a	n/a	n/a	n/a	n/a	n/a	18	6	8	4	n/a	n/a	n/a	n/a	n/a
2511443	PROB	n/a	LTP135	ltpFR	12	n/a	n/a	n/a	n/a	n/a	n/a	n/a	15	5	5	5	n/a	n/a	n/a	n/a	n/a
2512626	STOP	n/a	LTP135	ltpFR	12	n/a	n/a	n/a	n/a	n/a	n/a	n/a	n/a	n/a	n/a	n/a	n/a	n/a	n/a	n/a	n/a
2515000	WORD	wordpools/wasnorm_wordpool.txt	LTP135	ltpFR	12	11	0	ULCER	1533	n/a	n/a	1	n/a	0	0	0	0.57763671875	0.412841796875	1	lower	zerothre.ttf
2518008	START	n/a	LTP135	ltpFR	12	n/a	n/a	n/a	n/a	n/a	n/a	n/a	n/a	n/a	n/a	n/a	n/a	n/a	n/a	n/a	n/a
2519141	PROB	n/a	LTP135	ltpFR	12	n/a	n/a	n/a	n/a	n/a	n/a	n/a	21	8	7	6	n/a	n/a	n/a	n/a	n/a
2521590	PROB	n/a	LTP135	ltpFR	12	n/a	n/a	n/a	n/a	n/a	n/a	n/a	14	2	6	6	n/a	n/a	n/a	n/a	n/a
2523497	PROB	n/a	LTP135	ltpFR	12	n/a	n/a	n/a	n/a	n/a	n/a	n/a	16	2	9	5	n/a	n/a	n/a	n/a	n/a
2525362	STOP	n/a	LTP135	ltpFR	12	n/a	n/a	n/a	n/a	n/a	n/a	n/a	n/a	n/a	n/a	n/a	n/a	n/a	n/a	n/a	n/a
2527154	WORD	wordpools/wasnorm_wordpool.txt	LTP135	ltpFR	12	11	0	WOUND	1624	n/a	n/a	0	n/a	0	0	0	0.57763671875	0.412841796875	1	lower	zerothre.ttf
2530162	START	n/a	LTP135	ltpFR	12	n/a	n/a	n/a	n/a	n/a	n/a	n/a	n/a	n/a	n/a	n/a	n/a	n/a	n/a	n/a	n/a
2531195	PROB	n/a	LTP135	ltpFR	12	n/a	n/a	n/a	n/a	n/a	n/a	n/a	16	5	6	5	n/a	n/a	n/a	n/a	n/a
2532660	PROB	n/a	LTP135	ltpFR	12	n/a	n/a	n/a	n/a	n/a	n/a	n/a	20	9	3	8	n/a	n/a	n/a	n/a	n/a
2535775	PROB	n/a	LTP135	ltpFR	12	n/a	n/a	n/a	n/a	n/a	n/a	n/a	7	4	1	2	n/a	n/a	n/a	n/a	n/a
2537866	STOP	n/a	LTP135	ltpFR	12	n/a	n/a	n/a	n/a	n/a	n/a	n/a	n/a	n/a	n/a	n/a	n/a	n/a	n/a	n/a	n/a
2538984	WORD	wordpools/wasnorm_wordpool.txt	LTP135	ltpFR	12	11	0	MARGARINE	868	n/a	n/a	0	n/a	0	0	0	0.57763671875	0.412841796875	1	lower	zerothre.ttf
2541991	START	n/a	LTP135	ltpFR	12	n/a	n/a	n/a	n/a	n/a	n/a	n/a	n/a	n/a	n/a	n/a	n/a	n/a	n/a	n/a	n/a
2542916	PROB	n/a	LTP135	ltpFR	12	n/a	n/a	n/a	n/a	n/a	n/a	n/a	12	2	2	8	n/a	n/a	n/a	n/a	n/a
2545697	PROB	n/a	LTP135	ltpFR	12	n/a	n/a	n/a	n/a	n/a	n/a	n/a	19	8	4	7	n/a	n/a	n/a	n/a	n/a
2547972	PROB	n/a	LTP135	ltpFR	12	n/a	n/a	n/a	n/a	n/a	n/a	n/a	21	5	8	8	n/a	n/a	n/a	n/a	n/a
2549665	STOP	n/a	LTP135	ltpFR	12	n/a	n/a	n/a	n/a	n/a	n/a	n/a	n/a	n/a	n/a	n/a	n/a	n/a	n/a	n/a	n/a
2551096	WORD	wordpools/wasnorm_wordpool.txt	LTP135	ltpFR	12	11	0	SHRUB	1299	n/a	n/a	1	n/a	0	0	0	0.57763671875	0.412841796875	1	lower	zerothre.ttf
2554104	START	n/a	LTP135	ltpFR	12	n/a	n/a	n/a	n/a	n/a	n/a	n/a	n/a	n/a	n/a	n/a	n/a	n/a	n/a	n/a	n/a
2555211	PROB	n/a	LTP135	ltpFR	12	n/a	n/a	n/a	n/a	n/a	n/a	n/a	17	4	8	5	n/a	n/a	n/a	n/a	n/a
2557035	PROB	n/a	LTP135	ltpFR	12	n/a	n/a	n/a	n/a	n/a	n/a	n/a	20	8	8	4	n/a	n/a	n/a	n/a	n/a
2558667	PROB	n/a	LTP135	ltpFR	12	n/a	n/a	n/a	n/a	n/a	n/a	n/a	15	6	8	1	n/a	n/a	n/a	n/a	n/a
2560359	PROB	n/a	LTP135	ltpFR	12	n/a	n/a	n/a	n/a	n/a	n/a	n/a	20	6	7	7	n/a	n/a	n/a	n/a	n/a
2561866	STOP	n/a	LTP135	ltpFR	12	n/a	n/a	n/a	n/a	n/a	n/a	n/a	n/a	n/a	n/a	n/a	n/a	n/a	n/a	n/a	n/a
2563117	WORD	wordpools/wasnorm_wordpool.txt	LTP135	ltpFR	12	11	0	TRAITOR	1495	n/a	n/a	1	n/a	0	0	0	0.57763671875	0.412841796875	1	lower	zerothre.ttf
2566124	START	n/a	LTP135	ltpFR	12	n/a	n/a	n/a	n/a	n/a	n/a	n/a	n/a	n/a	n/a	n/a	n/a	n/a	n/a	n/a	n/a
2567290	PROB	n/a	LTP135	ltpFR	12	n/a	n/a	n/a	n/a	n/a	n/a	n/a	13	6	5	2	n/a	n/a	n/a	n/a	n/a
2569106	PROB	n/a	LTP135	ltpFR	12	n/a	n/a	n/a	n/a	n/a	n/a	n/a	18	9	5	4	n/a	n/a	n/a	n/a	n/a
2570771	PROB	n/a	LTP135	ltpFR	12	n/a	n/a	n/a	n/a	n/a	n/a	n/a	11	3	6	2	n/a	n/a	n/a	n/a	n/a
2573386	STOP	n/a	LTP135	ltpFR	12	n/a	n/a	n/a	n/a	n/a	n/a	n/a	n/a	n/a	n/a	n/a	n/a	n/a	n/a	n/a	n/a
2575121	WORD	wordpools/wasnorm_wordpool.txt	LTP135	ltpFR	12	11	0	TOASTER	1472	n/a	n/a	1	n/a	0	0	0	0.57763671875	0.412841796875	1	lower	zerothre.ttf
2578128	START	n/a	LTP135	ltpFR	12	n/a	n/a	n/a	n/a	n/a	n/a	n/a	n/a	n/a	n/a	n/a	n/a	n/a	n/a	n/a	n/a
2579136	PROB	n/a	LTP135	ltpFR	12	n/a	n/a	n/a	n/a	n/a	n/a	n/a	13	7	1	5	n/a	n/a	n/a	n/a	n/a
2580902	PROB	n/a	LTP135	ltpFR	12	n/a	n/a	n/a	n/a	n/a	n/a	n/a	13	2	6	5	n/a	n/a	n/a	n/a	n/a
2583593	PROB	n/a	LTP135	ltpFR	12	n/a	n/a	n/a	n/a	n/a	n/a	n/a	20	7	6	7	n/a	n/a	n/a	n/a	n/a
2586074	STOP	n/a	LTP135	ltpFR	12	n/a	n/a	n/a	n/a	n/a	n/a	n/a	n/a	n/a	n/a	n/a	n/a	n/a	n/a	n/a	n/a
2587233	WORD	wordpools/wasnorm_wordpool.txt	LTP135	ltpFR	12	11	1	ROOT	1210	n/a	n/a	0	n/a	0	0	0	0.422607421875	0.5869140625	0	upper	amplitud.ttf
2590241	START	n/a	LTP135	ltpFR	12	n/a	n/a	n/a	n/a	n/a	n/a	n/a	n/a	n/a	n/a	n/a	n/a	n/a	n/a	n/a	n/a
2591265	PROB	n/a	LTP135	ltpFR	12	n/a	n/a	n/a	n/a	n/a	n/a	n/a	14	2	3	9	n/a	n/a	n/a	n/a	n/a
2593956	PROB	n/a	LTP135	ltpFR	12	n/a	n/a	n/a	n/a	n/a	n/a	n/a	9	1	7	1	n/a	n/a	n/a	n/a	n/a
2595139	PROB	n/a	LTP135	ltpFR	12	n/a	n/a	n/a	n/a	n/a	n/a	n/a	16	5	6	5	n/a	n/a	n/a	n/a	n/a
2596713	STOP	n/a	LTP135	ltpFR	12	n/a	n/a	n/a	n/a	n/a	n/a	n/a	n/a	n/a	n/a	n/a	n/a	n/a	n/a	n/a	n/a
2599312	WORD	wordpools/wasnorm_wordpool.txt	LTP135	ltpFR	12	11	1	NUN	962	n/a	n/a	1	n/a	0	0	0	0.422607421875	0.5869140625	0	upper	amplitud.ttf
2602320	START	n/a	LTP135	ltpFR	12	n/a	n/a	n/a	n/a	n/a	n/a	n/a	n/a	n/a	n/a	n/a	n/a	n/a	n/a	n/a	n/a
2603486	PROB	n/a	LTP135	ltpFR	12	n/a	n/a	n/a	n/a	n/a	n/a	n/a	20	8	9	3	n/a	n/a	n/a	n/a	n/a
2605742	PROB	n/a	LTP135	ltpFR	12	n/a	n/a	n/a	n/a	n/a	n/a	n/a	7	2	3	2	n/a	n/a	n/a	n/a	n/a
2607434	PROB	n/a	LTP135	ltpFR	12	n/a	n/a	n/a	n/a	n/a	n/a	n/a	12	6	2	4	n/a	n/a	n/a	n/a	n/a
2609010	STOP	n/a	LTP135	ltpFR	12	n/a	n/a	n/a	n/a	n/a	n/a	n/a	n/a	n/a	n/a	n/a	n/a	n/a	n/a	n/a	n/a
2611233	WORD	wordpools/wasnorm_wordpool.txt	LTP135	ltpFR	12	11	1	PRIEST	1122	n/a	n/a	1	n/a	0	0	0	0.422607421875	0.5869140625	0	upper	amplitud.ttf
2614241	START	n/a	LTP135	ltpFR	12	n/a	n/a	n/a	n/a	n/a	n/a	n/a	n/a	n/a	n/a	n/a	n/a	n/a	n/a	n/a	n/a
2615398	PROB	n/a	LTP135	ltpFR	12	n/a	n/a	n/a	n/a	n/a	n/a	n/a	9	6	2	1	n/a	n/a	n/a	n/a	n/a
2616956	PROB	n/a	LTP135	ltpFR	12	n/a	n/a	n/a	n/a	n/a	n/a	n/a	19	6	5	8	n/a	n/a	n/a	n/a	n/a
2618787	PROB	n/a	LTP135	ltpFR	12	n/a	n/a	n/a	n/a	n/a	n/a	n/a	18	9	4	5	n/a	n/a	n/a	n/a	n/a
2620221	PROB	n/a	LTP135	ltpFR	12	n/a	n/a	n/a	n/a	n/a	n/a	n/a	5	1	3	1	n/a	n/a	n/a	n/a	n/a
2621258	STOP	n/a	LTP135	ltpFR	12	n/a	n/a	n/a	n/a	n/a	n/a	n/a	n/a	n/a	n/a	n/a	n/a	n/a	n/a	n/a	n/a
2623370	WORD	wordpools/wasnorm_wordpool.txt	LTP135	ltpFR	12	11	1	LUNCH	849	n/a	n/a	0	n/a	0	0	0	0.422607421875	0.5869140625	0	upper	amplitud.ttf
2626378	START	n/a	LTP135	ltpFR	12	n/a	n/a	n/a	n/a	n/a	n/a	n/a	n/a	n/a	n/a	n/a	n/a	n/a	n/a	n/a	n/a
2627194	PROB	n/a	LTP135	ltpFR	12	n/a	n/a	n/a	n/a	n/a	n/a	n/a	18	9	6	3	n/a	n/a	n/a	n/a	n/a
2628843	PROB	n/a	LTP135	ltpFR	12	n/a	n/a	n/a	n/a	n/a	n/a	n/a	10	3	2	5	n/a	n/a	n/a	n/a	n/a
2630568	PROB	n/a	LTP135	ltpFR	12	n/a	n/a	n/a	n/a	n/a	n/a	n/a	12	2	7	3	n/a	n/a	n/a	n/a	n/a
2631892	PROB	n/a	LTP135	ltpFR	12	n/a	n/a	n/a	n/a	n/a	n/a	n/a	8	1	3	4	n/a	n/a	n/a	n/a	n/a
2633354	STOP	n/a	LTP135	ltpFR	12	n/a	n/a	n/a	n/a	n/a	n/a	n/a	n/a	n/a	n/a	n/a	n/a	n/a	n/a	n/a	n/a
2635324	WORD	wordpools/wasnorm_wordpool.txt	LTP135	ltpFR	12	11	1	COLUMN	350	n/a	n/a	0	n/a	0	0	0	0.422607421875	0.5869140625	0	upper	amplitud.ttf
2638332	START	n/a	LTP135	ltpFR	12	n/a	n/a	n/a	n/a	n/a	n/a	n/a	n/a	n/a	n/a	n/a	n/a	n/a	n/a	n/a	n/a
2639414	PROB	n/a	LTP135	ltpFR	12	n/a	n/a	n/a	n/a	n/a	n/a	n/a	19	1	9	9	n/a	n/a	n/a	n/a	n/a
2641272	PROB	n/a	LTP135	ltpFR	12	n/a	n/a	n/a	n/a	n/a	n/a	n/a	18	6	5	7	n/a	n/a	n/a	n/a	n/a
2642671	PROB	n/a	LTP135	ltpFR	12	n/a	n/a	n/a	n/a	n/a	n/a	n/a	15	9	4	2	n/a	n/a	n/a	n/a	n/a
2646332	STOP	n/a	LTP135	ltpFR	12	n/a	n/a	n/a	n/a	n/a	n/a	n/a	n/a	n/a	n/a	n/a	n/a	n/a	n/a	n/a	n/a
2647162	WORD	wordpools/wasnorm_wordpool.txt	LTP135	ltpFR	12	11	0	COMPANION	357	n/a	n/a	1	n/a	0	0	0	0.57763671875	0.412841796875	1	lower	zerothre.ttf
2650169	START	n/a	LTP135	ltpFR	12	n/a	n/a	n/a	n/a	n/a	n/a	n/a	n/a	n/a	n/a	n/a	n/a	n/a	n/a	n/a	n/a
2651368	PROB	n/a	LTP135	ltpFR	12	n/a	n/a	n/a	n/a	n/a	n/a	n/a	19	8	7	4	n/a	n/a	n/a	n/a	n/a
2654642	PROB	n/a	LTP135	ltpFR	12	n/a	n/a	n/a	n/a	n/a	n/a	n/a	14	4	8	2	n/a	n/a	n/a	n/a	n/a
2657330	STOP	n/a	LTP135	ltpFR	12	n/a	n/a	n/a	n/a	n/a	n/a	n/a	n/a	n/a	n/a	n/a	n/a	n/a	n/a	n/a	n/a
2659116	WORD	wordpools/wasnorm_wordpool.txt	LTP135	ltpFR	12	11	0	SPIT	1354	n/a	n/a	0	n/a	0	0	0	0.57763671875	0.412841796875	1	lower	zerothre.ttf
2662123	START	n/a	LTP135	ltpFR	12	n/a	n/a	n/a	n/a	n/a	n/a	n/a	n/a	n/a	n/a	n/a	n/a	n/a	n/a	n/a	n/a
2662981	PROB	n/a	LTP135	ltpFR	12	n/a	n/a	n/a	n/a	n/a	n/a	n/a	14	5	6	3	n/a	n/a	n/a	n/a	n/a
2665130	PROB	n/a	LTP135	ltpFR	12	n/a	n/a	n/a	n/a	n/a	n/a	n/a	6	2	1	3	n/a	n/a	n/a	n/a	n/a
2668204	PROB	n/a	LTP135	ltpFR	12	n/a	n/a	n/a	n/a	n/a	n/a	n/a	9	7	1	1	n/a	n/a	n/a	n/a	n/a
2669642	STOP	n/a	LTP135	ltpFR	12	n/a	n/a	n/a	n/a	n/a	n/a	n/a	n/a	n/a	n/a	n/a	n/a	n/a	n/a	n/a	n/a
2671320	WORD	wordpools/wasnorm_wordpool.txt	LTP135	ltpFR	12	11	1	WATER	1594	n/a	n/a	0	n/a	0	0	0	0.422607421875	0.5869140625	0	upper	amplitud.ttf
2674328	START	n/a	LTP135	ltpFR	12	n/a	n/a	n/a	n/a	n/a	n/a	n/a	n/a	n/a	n/a	n/a	n/a	n/a	n/a	n/a	n/a
2675318	PROB	n/a	LTP135	ltpFR	12	n/a	n/a	n/a	n/a	n/a	n/a	n/a	15	5	6	4	n/a	n/a	n/a	n/a	n/a
2676643	PROB	n/a	LTP135	ltpFR	12	n/a	n/a	n/a	n/a	n/a	n/a	n/a	11	4	4	3	n/a	n/a	n/a	n/a	n/a
2678800	PROB	n/a	LTP135	ltpFR	12	n/a	n/a	n/a	n/a	n/a	n/a	n/a	19	3	8	8	n/a	n/a	n/a	n/a	n/a
2680842	STOP	n/a	LTP135	ltpFR	12	n/a	n/a	n/a	n/a	n/a	n/a	n/a	n/a	n/a	n/a	n/a	n/a	n/a	n/a	n/a	n/a
2683499	WORD	wordpools/wasnorm_wordpool.txt	LTP135	ltpFR	12	11	1	HUSBAND	728	n/a	n/a	1	n/a	0	0	0	0.422607421875	0.5869140625	0	upper	amplitud.ttf
2686506	START	n/a	LTP135	ltpFR	12	n/a	n/a	n/a	n/a	n/a	n/a	n/a	n/a	n/a	n/a	n/a	n/a	n/a	n/a	n/a	n/a
2687397	PROB	n/a	LTP135	ltpFR	12	n/a	n/a	n/a	n/a	n/a	n/a	n/a	11	4	2	5	n/a	n/a	n/a	n/a	n/a
2689205	PROB	n/a	LTP135	ltpFR	12	n/a	n/a	n/a	n/a	n/a	n/a	n/a	7	3	3	1	n/a	n/a	n/a	n/a	n/a
2690471	PROB	n/a	LTP135	ltpFR	12	n/a	n/a	n/a	n/a	n/a	n/a	n/a	19	5	9	5	n/a	n/a	n/a	n/a	n/a
2691829	PROB	n/a	LTP135	ltpFR	12	n/a	n/a	n/a	n/a	n/a	n/a	n/a	14	5	5	4	n/a	n/a	n/a	n/a	n/a
2693074	STOP	n/a	LTP135	ltpFR	12	n/a	n/a	n/a	n/a	n/a	n/a	n/a	n/a	n/a	n/a	n/a	n/a	n/a	n/a	n/a	n/a
2695578	WORD	wordpools/wasnorm_wordpool.txt	LTP135	ltpFR	12	11	1	LIME	823	n/a	n/a	0	n/a	0	0	0	0.422607421875	0.5869140625	0	upper	amplitud.ttf
2698585	START	n/a	LTP135	ltpFR	12	n/a	n/a	n/a	n/a	n/a	n/a	n/a	n/a	n/a	n/a	n/a	n/a	n/a	n/a	n/a	n/a
2699667	PROB	n/a	LTP135	ltpFR	12	n/a	n/a	n/a	n/a	n/a	n/a	n/a	19	6	7	6	n/a	n/a	n/a	n/a	n/a
2701367	PROB	n/a	LTP135	ltpFR	12	n/a	n/a	n/a	n/a	n/a	n/a	n/a	19	8	4	7	n/a	n/a	n/a	n/a	n/a
2704641	PROB	n/a	LTP135	ltpFR	12	n/a	n/a	n/a	n/a	n/a	n/a	n/a	18	9	6	3	n/a	n/a	n/a	n/a	n/a
2705914	STOP	n/a	LTP135	ltpFR	12	n/a	n/a	n/a	n/a	n/a	n/a	n/a	n/a	n/a	n/a	n/a	n/a	n/a	n/a	n/a	n/a
2708507	REC_START	n/a	LTP135	ltpFR	12	11	n/a	n/a	n/a	n/a	n/a	n/a	n/a	0	0	0	n/a	n/a	n/a	n/a	n/a
2709908	REC_WORD	wordpools/wasnorm_wordpool.txt	LTP135	ltpFR	12	11	1	LIME	823	n/a	n/a	0	n/a	0	0	0	n/a	n/a	n/a	n/a	n/a
2711804	REC_WORD	wordpools/wasnorm_wordpool.txt	LTP135	ltpFR	12	11	1	HUSBAND	728	n/a	n/a	1	n/a	0	0	0	n/a	n/a	n/a	n/a	n/a
2713266	REC_WORD	wordpools/wasnorm_wordpool.txt	LTP135	ltpFR	12	11	1	PRIEST	1122	n/a	n/a	1	n/a	0	0	0	n/a	n/a	n/a	n/a	n/a
2714279	REC_WORD	wordpools/wasnorm_wordpool.txt	LTP135	ltpFR	12	11	1	NUN	962	n/a	n/a	1	n/a	0	0	0	n/a	n/a	n/a	n/a	n/a
2718070	REC_WORD	wordpools/wasnorm_wordpool.txt	LTP135	ltpFR	12	11	0	SHRUB	1299	n/a	n/a	1	n/a	0	0	0	n/a	n/a	n/a	n/a	n/a
2719637	REC_WORD	wordpools/wasnorm_wordpool.txt	LTP135	ltpFR	12	11	1	ROOT	1210	n/a	n/a	0	n/a	0	0	0	n/a	n/a	n/a	n/a	n/a
2733535	REC_WORD	wordpools/wasnorm_wordpool.txt	LTP135	ltpFR	12	11	1	COLUMN	350	n/a	n/a	0	n/a	0	0	0	n/a	n/a	n/a	n/a	n/a
2763507	REC_WORD	wordpools/wasnorm_wordpool.txt	LTP135	ltpFR	12	11	0	WOUND	1624	n/a	n/a	0	n/a	0	0	0	n/a	n/a	n/a	n/a	n/a
2764260	REC_WORD	wordpools/wasnorm_wordpool.txt	LTP135	ltpFR	12	11	0	ULCER	1533	n/a	n/a	1	n/a	0	0	0	n/a	n/a	n/a	n/a	n/a
2826923	START	n/a	LTP135	ltpFR	12	n/a	n/a	n/a	n/a	n/a	n/a	n/a	n/a	n/a	n/a	n/a	n/a	n/a	n/a	n/a	n/a
2828430	PROB	n/a	LTP135	ltpFR	12	n/a	n/a	n/a	n/a	n/a	n/a	n/a	21	8	7	6	n/a	n/a	n/a	n/a	n/a
2831346	PROB	n/a	LTP135	ltpFR	12	n/a	n/a	n/a	n/a	n/a	n/a	n/a	8	1	1	6	n/a	n/a	n/a	n/a	n/a
2832546	PROB	n/a	LTP135	ltpFR	12	n/a	n/a	n/a	n/a	n/a	n/a	n/a	24	7	8	9	n/a	n/a	n/a	n/a	n/a
2835161	PROB	n/a	LTP135	ltpFR	12	n/a	n/a	n/a	n/a	n/a	n/a	n/a	11	2	3	6	n/a	n/a	n/a	n/a	n/a
2836811	PROB	n/a	LTP135	ltpFR	12	n/a	n/a	n/a	n/a	n/a	n/a	n/a	9	5	1	3	n/a	n/a	n/a	n/a	n/a
2838767	PROB	n/a	LTP135	ltpFR	12	n/a	n/a	n/a	n/a	n/a	n/a	n/a	7	4	2	1	n/a	n/a	n/a	n/a	n/a
2842923	STOP	n/a	LTP135	ltpFR	12	n/a	n/a	n/a	n/a	n/a	n/a	n/a	n/a	n/a	n/a	n/a	n/a	n/a	n/a	n/a	n/a
2844025	WORD	wordpools/wasnorm_wordpool.txt	LTP135	ltpFR	12	12	0	PAIL	1002	n/a	n/a	1	n/a	0	0	0	0.57763671875	0.412841796875	1	lower	zerothre.ttf
2847033	START	n/a	LTP135	ltpFR	12	n/a	n/a	n/a	n/a	n/a	n/a	n/a	n/a	n/a	n/a	n/a	n/a	n/a	n/a	n/a	n/a
2847840	PROB	n/a	LTP135	ltpFR	12	n/a	n/a	n/a	n/a	n/a	n/a	n/a	22	7	9	6	n/a	n/a	n/a	n/a	n/a
2852022	PROB	n/a	LTP135	ltpFR	12	n/a	n/a	n/a	n/a	n/a	n/a	n/a	14	7	2	5	n/a	n/a	n/a	n/a	n/a
2853546	PROB	n/a	LTP135	ltpFR	12	n/a	n/a	n/a	n/a	n/a	n/a	n/a	9	3	4	2	n/a	n/a	n/a	n/a	n/a
2855437	PROB	n/a	LTP135	ltpFR	12	n/a	n/a	n/a	n/a	n/a	n/a	n/a	20	4	9	7	n/a	n/a	n/a	n/a	n/a
2859061	PROB	n/a	LTP135	ltpFR	12	n/a	n/a	n/a	n/a	n/a	n/a	n/a	16	4	9	3	n/a	n/a	n/a	n/a	n/a
2861490	STOP	n/a	LTP135	ltpFR	12	n/a	n/a	n/a	n/a	n/a	n/a	n/a	n/a	n/a	n/a	n/a	n/a	n/a	n/a	n/a	n/a
2863951	WORD	wordpools/wasnorm_wordpool.txt	LTP135	ltpFR	12	12	0	SILVERWARE	1308	n/a	n/a	0	n/a	0	0	0	0.57763671875	0.412841796875	1	lower	zerothre.ttf
2866959	START	n/a	LTP135	ltpFR	12	n/a	n/a	n/a	n/a	n/a	n/a	n/a	n/a	n/a	n/a	n/a	n/a	n/a	n/a	n/a	n/a
2867875	PROB	n/a	LTP135	ltpFR	12	n/a	n/a	n/a	n/a	n/a	n/a	n/a	20	6	7	7	n/a	n/a	n/a	n/a	n/a
2869358	PROB	n/a	LTP135	ltpFR	12	n/a	n/a	n/a	n/a	n/a	n/a	n/a	17	9	2	6	n/a	n/a	n/a	n/a	n/a
2871915	PROB	n/a	LTP135	ltpFR	12	n/a	n/a	n/a	n/a	n/a	n/a	n/a	13	1	7	5	n/a	n/a	n/a	n/a	n/a
2874705	PROB	n/a	LTP135	ltpFR	12	n/a	n/a	n/a	n/a	n/a	n/a	n/a	12	7	2	3	n/a	n/a	n/a	n/a	n/a
2876921	PROB	n/a	LTP135	ltpFR	12	n/a	n/a	n/a	n/a	n/a	n/a	n/a	15	5	7	3	n/a	n/a	n/a	n/a	n/a
2878579	PROB	n/a	LTP135	ltpFR	12	n/a	n/a	n/a	n/a	n/a	n/a	n/a	8	4	3	1	n/a	n/a	n/a	n/a	n/a
2880404	PROB	n/a	LTP135	ltpFR	12	n/a	n/a	n/a	n/a	n/a	n/a	n/a	21	9	6	6	n/a	n/a	n/a	n/a	n/a
2882826	STOP	n/a	LTP135	ltpFR	12	n/a	n/a	n/a	n/a	n/a	n/a	n/a	n/a	n/a	n/a	n/a	n/a	n/a	n/a	n/a	n/a
2883877	WORD	wordpools/wasnorm_wordpool.txt	LTP135	ltpFR	12	12	0	KNIFE	785	n/a	n/a	0	n/a	0	0	0	0.57763671875	0.412841796875	1	lower	zerothre.ttf
2886885	START	n/a	LTP135	ltpFR	12	n/a	n/a	n/a	n/a	n/a	n/a	n/a	n/a	n/a	n/a	n/a	n/a	n/a	n/a	n/a	n/a
2887926	PROB	n/a	LTP135	ltpFR	12	n/a	n/a	n/a	n/a	n/a	n/a	n/a	17	3	9	5	n/a	n/a	n/a	n/a	n/a
2890991	PROB	n/a	LTP135	ltpFR	12	n/a	n/a	n/a	n/a	n/a	n/a	n/a	15	5	7	3	n/a	n/a	n/a	n/a	n/a
2892715	PROB	n/a	LTP135	ltpFR	12	n/a	n/a	n/a	n/a	n/a	n/a	n/a	12	6	3	3	n/a	n/a	n/a	n/a	n/a
2894672	PROB	n/a	LTP135	ltpFR	12	n/a	n/a	n/a	n/a	n/a	n/a	n/a	12	6	2	4	n/a	n/a	n/a	n/a	n/a
2896914	PROB	n/a	LTP135	ltpFR	12	n/a	n/a	n/a	n/a	n/a	n/a	n/a	12	5	3	4	n/a	n/a	n/a	n/a	n/a
2899872	PROB	n/a	LTP135	ltpFR	12	n/a	n/a	n/a	n/a	n/a	n/a	n/a	13	1	8	4	n/a	n/a	n/a	n/a	n/a
2901634	STOP	n/a	LTP135	ltpFR	12	n/a	n/a	n/a	n/a	n/a	n/a	n/a	n/a	n/a	n/a	n/a	n/a	n/a	n/a	n/a	n/a
2903987	WORD	wordpools/wasnorm_wordpool.txt	LTP135	ltpFR	12	12	0	HOSE	720	n/a	n/a	1	n/a	0	0	0	0.57763671875	0.412841796875	1	lower	zerothre.ttf
2906995	START	n/a	LTP135	ltpFR	12	n/a	n/a	n/a	n/a	n/a	n/a	n/a	n/a	n/a	n/a	n/a	n/a	n/a	n/a	n/a	n/a
2907869	PROB	n/a	LTP135	ltpFR	12	n/a	n/a	n/a	n/a	n/a	n/a	n/a	21	8	8	5	n/a	n/a	n/a	n/a	n/a
2912791	PROB	n/a	LTP135	ltpFR	12	n/a	n/a	n/a	n/a	n/a	n/a	n/a	17	2	7	8	n/a	n/a	n/a	n/a	n/a
2915016	PROB	n/a	LTP135	ltpFR	12	n/a	n/a	n/a	n/a	n/a	n/a	n/a	8	2	3	3	n/a	n/a	n/a	n/a	n/a
2917282	PROB	n/a	LTP135	ltpFR	12	n/a	n/a	n/a	n/a	n/a	n/a	n/a	11	3	7	1	n/a	n/a	n/a	n/a	n/a
2918498	PROB	n/a	LTP135	ltpFR	12	n/a	n/a	n/a	n/a	n/a	n/a	n/a	10	3	1	6	n/a	n/a	n/a	n/a	n/a
2920089	PROB	n/a	LTP135	ltpFR	12	n/a	n/a	n/a	n/a	n/a	n/a	n/a	16	5	9	2	n/a	n/a	n/a	n/a	n/a
2922090	STOP	n/a	LTP135	ltpFR	12	n/a	n/a	n/a	n/a	n/a	n/a	n/a	n/a	n/a	n/a	n/a	n/a	n/a	n/a	n/a	n/a
2924196	WORD	wordpools/wasnorm_wordpool.txt	LTP135	ltpFR	12	12	0	LAGOON	795	n/a	n/a	1	n/a	0	0	0	0.57763671875	0.412841796875	1	lower	zerothre.ttf
2927204	START	n/a	LTP135	ltpFR	12	n/a	n/a	n/a	n/a	n/a	n/a	n/a	n/a	n/a	n/a	n/a	n/a	n/a	n/a	n/a	n/a
2928128	PROB	n/a	LTP135	ltpFR	12	n/a	n/a	n/a	n/a	n/a	n/a	n/a	13	4	4	5	n/a	n/a	n/a	n/a	n/a
2931052	PROB	n/a	LTP135	ltpFR	12	n/a	n/a	n/a	n/a	n/a	n/a	n/a	20	3	9	8	n/a	n/a	n/a	n/a	n/a
2933185	PROB	n/a	LTP135	ltpFR	12	n/a	n/a	n/a	n/a	n/a	n/a	n/a	16	3	6	7	n/a	n/a	n/a	n/a	n/a
2935576	PROB	n/a	LTP135	ltpFR	12	n/a	n/a	n/a	n/a	n/a	n/a	n/a	16	4	9	3	n/a	n/a	n/a	n/a	n/a
2938665	PROB	n/a	LTP135	ltpFR	12	n/a	n/a	n/a	n/a	n/a	n/a	n/a	20	5	7	8	n/a	n/a	n/a	n/a	n/a
2942777	STOP	n/a	LTP135	ltpFR	12	n/a	n/a	n/a	n/a	n/a	n/a	n/a	n/a	n/a	n/a	n/a	n/a	n/a	n/a	n/a	n/a
2944073	WORD	wordpools/wasnorm_wordpool.txt	LTP135	ltpFR	12	12	0	SPOON	1357	n/a	n/a	0	n/a	0	0	0	0.57763671875	0.412841796875	1	lower	zerothre.ttf
2947080	START	n/a	LTP135	ltpFR	12	n/a	n/a	n/a	n/a	n/a	n/a	n/a	n/a	n/a	n/a	n/a	n/a	n/a	n/a	n/a	n/a
2947913	PROB	n/a	LTP135	ltpFR	12	n/a	n/a	n/a	n/a	n/a	n/a	n/a	20	6	9	5	n/a	n/a	n/a	n/a	n/a
2949887	PROB	n/a	LTP135	ltpFR	12	n/a	n/a	n/a	n/a	n/a	n/a	n/a	17	8	3	6	n/a	n/a	n/a	n/a	n/a
2951652	PROB	n/a	LTP135	ltpFR	12	n/a	n/a	n/a	n/a	n/a	n/a	n/a	12	4	5	3	n/a	n/a	n/a	n/a	n/a
2953477	PROB	n/a	LTP135	ltpFR	12	n/a	n/a	n/a	n/a	n/a	n/a	n/a	12	2	1	9	n/a	n/a	n/a	n/a	n/a
2955252	PROB	n/a	LTP135	ltpFR	12	n/a	n/a	n/a	n/a	n/a	n/a	n/a	19	9	9	1	n/a	n/a	n/a	n/a	n/a
2956901	PROB	n/a	LTP135	ltpFR	12	n/a	n/a	n/a	n/a	n/a	n/a	n/a	17	8	5	4	n/a	n/a	n/a	n/a	n/a
2958451	PROB	n/a	LTP135	ltpFR	12	n/a	n/a	n/a	n/a	n/a	n/a	n/a	19	9	7	3	n/a	n/a	n/a	n/a	n/a
2959800	PROB	n/a	LTP135	ltpFR	12	n/a	n/a	n/a	n/a	n/a	n/a	n/a	19	9	2	8	n/a	n/a	n/a	n/a	n/a
2961058	PROB	n/a	LTP135	ltpFR	12	n/a	n/a	n/a	n/a	n/a	n/a	n/a	11	5	5	1	n/a	n/a	n/a	n/a	n/a
2962010	STOP	n/a	LTP135	ltpFR	12	n/a	n/a	n/a	n/a	n/a	n/a	n/a	n/a	n/a	n/a	n/a	n/a	n/a	n/a	n/a	n/a
2963940	WORD	wordpools/wasnorm_wordpool.txt	LTP135	ltpFR	12	12	0	STONE	1385	n/a	n/a	0	n/a	0	0	0	0.57763671875	0.412841796875	1	lower	zerothre.ttf
2966948	START	n/a	LTP135	ltpFR	12	n/a	n/a	n/a	n/a	n/a	n/a	n/a	n/a	n/a	n/a	n/a	n/a	n/a	n/a	n/a	n/a
2968039	PROB	n/a	LTP135	ltpFR	12	n/a	n/a	n/a	n/a	n/a	n/a	n/a	14	5	1	8	n/a	n/a	n/a	n/a	n/a
2970013	PROB	n/a	LTP135	ltpFR	12	n/a	n/a	n/a	n/a	n/a	n/a	n/a	17	7	6	4	n/a	n/a	n/a	n/a	n/a
2971762	PROB	n/a	LTP135	ltpFR	12	n/a	n/a	n/a	n/a	n/a	n/a	n/a	16	1	7	8	n/a	n/a	n/a	n/a	n/a
2973395	PROB	n/a	LTP135	ltpFR	12	n/a	n/a	n/a	n/a	n/a	n/a	n/a	18	7	6	5	n/a	n/a	n/a	n/a	n/a
2974962	PROB	n/a	LTP135	ltpFR	12	n/a	n/a	n/a	n/a	n/a	n/a	n/a	12	5	6	1	n/a	n/a	n/a	n/a	n/a
2976894	PROB	n/a	LTP135	ltpFR	12	n/a	n/a	n/a	n/a	n/a	n/a	n/a	11	3	6	2	n/a	n/a	n/a	n/a	n/a
2978935	PROB	n/a	LTP135	ltpFR	12	n/a	n/a	n/a	n/a	n/a	n/a	n/a	11	3	6	2	n/a	n/a	n/a	n/a	n/a
2979935	PROB	n/a	LTP135	ltpFR	12	n/a	n/a	n/a	n/a	n/a	n/a	n/a	11	1	9	1	n/a	n/a	n/a	n/a	n/a
2982948	STOP	n/a	LTP135	ltpFR	12	n/a	n/a	n/a	n/a	n/a	n/a	n/a	n/a	n/a	n/a	n/a	n/a	n/a	n/a	n/a	n/a
2983858	WORD	wordpools/wasnorm_wordpool.txt	LTP135	ltpFR	12	12	0	KIDNEY	776	n/a	n/a	0	n/a	0	0	0	0.57763671875	0.412841796875	1	lower	zerothre.ttf
2986866	START	n/a	LTP135	ltpFR	12	n/a	n/a	n/a	n/a	n/a	n/a	n/a	n/a	n/a	n/a	n/a	n/a	n/a	n/a	n/a	n/a
2987748	PROB	n/a	LTP135	ltpFR	12	n/a	n/a	n/a	n/a	n/a	n/a	n/a	18	8	1	9	n/a	n/a	n/a	n/a	n/a
2989198	PROB	n/a	LTP135	ltpFR	12	n/a	n/a	n/a	n/a	n/a	n/a	n/a	12	1	4	7	n/a	n/a	n/a	n/a	n/a
2991464	PROB	n/a	LTP135	ltpFR	12	n/a	n/a	n/a	n/a	n/a	n/a	n/a	20	9	8	3	n/a	n/a	n/a	n/a	n/a
2995063	PROB	n/a	LTP135	ltpFR	12	n/a	n/a	n/a	n/a	n/a	n/a	n/a	20	5	6	9	n/a	n/a	n/a	n/a	n/a
2997045	PROB	n/a	LTP135	ltpFR	12	n/a	n/a	n/a	n/a	n/a	n/a	n/a	15	1	5	9	n/a	n/a	n/a	n/a	n/a
2998595	PROB	n/a	LTP135	ltpFR	12	n/a	n/a	n/a	n/a	n/a	n/a	n/a	21	7	8	6	n/a	n/a	n/a	n/a	n/a
3002866	STOP	n/a	LTP135	ltpFR	12	n/a	n/a	n/a	n/a	n/a	n/a	n/a	n/a	n/a	n/a	n/a	n/a	n/a	n/a	n/a	n/a
3003901	WORD	wordpools/wasnorm_wordpool.txt	LTP135	ltpFR	12	12	0	MERMAID	887	n/a	n/a	1	n/a	0	0	0	0.57763671875	0.412841796875	1	lower	zerothre.ttf
3006909	START	n/a	LTP135	ltpFR	12	n/a	n/a	n/a	n/a	n/a	n/a	n/a	n/a	n/a	n/a	n/a	n/a	n/a	n/a	n/a	n/a
3007850	PROB	n/a	LTP135	ltpFR	12	n/a	n/a	n/a	n/a	n/a	n/a	n/a	12	3	6	3	n/a	n/a	n/a	n/a	n/a
3010099	PROB	n/a	LTP135	ltpFR	12	n/a	n/a	n/a	n/a	n/a	n/a	n/a	13	8	1	4	n/a	n/a	n/a	n/a	n/a
3012532	PROB	n/a	LTP135	ltpFR	12	n/a	n/a	n/a	n/a	n/a	n/a	n/a	23	7	7	9	n/a	n/a	n/a	n/a	n/a
3014539	PROB	n/a	LTP135	ltpFR	12	n/a	n/a	n/a	n/a	n/a	n/a	n/a	10	1	6	3	n/a	n/a	n/a	n/a	n/a
3015914	PROB	n/a	LTP135	ltpFR	12	n/a	n/a	n/a	n/a	n/a	n/a	n/a	11	5	3	3	n/a	n/a	n/a	n/a	n/a
3017213	PROB	n/a	LTP135	ltpFR	12	n/a	n/a	n/a	n/a	n/a	n/a	n/a	18	6	7	5	n/a	n/a	n/a	n/a	n/a
3019429	PROB	n/a	LTP135	ltpFR	12	n/a	n/a	n/a	n/a	n/a	n/a	n/a	15	8	1	6	n/a	n/a	n/a	n/a	n/a
3021466	STOP	n/a	LTP135	ltpFR	12	n/a	n/a	n/a	n/a	n/a	n/a	n/a	n/a	n/a	n/a	n/a	n/a	n/a	n/a	n/a	n/a
3023902	WORD	wordpools/wasnorm_wordpool.txt	LTP135	ltpFR	12	12	0	NEPTUNE	943	n/a	n/a	1	n/a	0	0	0	0.57763671875	0.412841796875	1	lower	zerothre.ttf
3026910	START	n/a	LTP135	ltpFR	12	n/a	n/a	n/a	n/a	n/a	n/a	n/a	n/a	n/a	n/a	n/a	n/a	n/a	n/a	n/a	n/a
3027809	PROB	n/a	LTP135	ltpFR	12	n/a	n/a	n/a	n/a	n/a	n/a	n/a	6	2	3	1	n/a	n/a	n/a	n/a	n/a
3029167	PROB	n/a	LTP135	ltpFR	12	n/a	n/a	n/a	n/a	n/a	n/a	n/a	15	4	6	5	n/a	n/a	n/a	n/a	n/a
3031058	PROB	n/a	LTP135	ltpFR	12	n/a	n/a	n/a	n/a	n/a	n/a	n/a	19	1	9	9	n/a	n/a	n/a	n/a	n/a
3032341	PROB	n/a	LTP135	ltpFR	12	n/a	n/a	n/a	n/a	n/a	n/a	n/a	16	7	7	2	n/a	n/a	n/a	n/a	n/a
3033799	PROB	n/a	LTP135	ltpFR	12	n/a	n/a	n/a	n/a	n/a	n/a	n/a	9	4	1	4	n/a	n/a	n/a	n/a	n/a
3035215	PROB	n/a	LTP135	ltpFR	12	n/a	n/a	n/a	n/a	n/a	n/a	n/a	10	8	1	1	n/a	n/a	n/a	n/a	n/a
3036806	PROB	n/a	LTP135	ltpFR	12	n/a	n/a	n/a	n/a	n/a	n/a	n/a	13	5	5	3	n/a	n/a	n/a	n/a	n/a
3037981	PROB	n/a	LTP135	ltpFR	12	n/a	n/a	n/a	n/a	n/a	n/a	n/a	15	4	2	9	n/a	n/a	n/a	n/a	n/a
3039622	PROB	n/a	LTP135	ltpFR	12	n/a	n/a	n/a	n/a	n/a	n/a	n/a	15	4	7	4	n/a	n/a	n/a	n/a	n/a
3042090	STOP	n/a	LTP135	ltpFR	12	n/a	n/a	n/a	n/a	n/a	n/a	n/a	n/a	n/a	n/a	n/a	n/a	n/a	n/a	n/a	n/a
3043995	WORD	wordpools/wasnorm_wordpool.txt	LTP135	ltpFR	12	12	0	HATCHET	691	n/a	n/a	0	n/a	0	0	0	0.57763671875	0.412841796875	1	lower	zerothre.ttf
3047003	START	n/a	LTP135	ltpFR	12	n/a	n/a	n/a	n/a	n/a	n/a	n/a	n/a	n/a	n/a	n/a	n/a	n/a	n/a	n/a	n/a
3047861	PROB	n/a	LTP135	ltpFR	12	n/a	n/a	n/a	n/a	n/a	n/a	n/a	6	3	1	2	n/a	n/a	n/a	n/a	n/a
3049068	PROB	n/a	LTP135	ltpFR	12	n/a	n/a	n/a	n/a	n/a	n/a	n/a	10	2	5	3	n/a	n/a	n/a	n/a	n/a
3050543	PROB	n/a	LTP135	ltpFR	12	n/a	n/a	n/a	n/a	n/a	n/a	n/a	21	9	4	8	n/a	n/a	n/a	n/a	n/a
3052942	PROB	n/a	LTP135	ltpFR	12	n/a	n/a	n/a	n/a	n/a	n/a	n/a	14	1	7	6	n/a	n/a	n/a	n/a	n/a
3054833	PROB	n/a	LTP135	ltpFR	12	n/a	n/a	n/a	n/a	n/a	n/a	n/a	19	2	9	8	n/a	n/a	n/a	n/a	n/a
3056274	PROB	n/a	LTP135	ltpFR	12	n/a	n/a	n/a	n/a	n/a	n/a	n/a	10	3	4	3	n/a	n/a	n/a	n/a	n/a
3057607	PROB	n/a	LTP135	ltpFR	12	n/a	n/a	n/a	n/a	n/a	n/a	n/a	17	5	9	3	n/a	n/a	n/a	n/a	n/a
3060581	PROB	n/a	LTP135	ltpFR	12	n/a	n/a	n/a	n/a	n/a	n/a	n/a	12	4	2	6	n/a	n/a	n/a	n/a	n/a
3062713	STOP	n/a	LTP135	ltpFR	12	n/a	n/a	n/a	n/a	n/a	n/a	n/a	n/a	n/a	n/a	n/a	n/a	n/a	n/a	n/a	n/a
3063971	WORD	wordpools/wasnorm_wordpool.txt	LTP135	ltpFR	12	12	0	PRESIDENT	1121	n/a	n/a	1	n/a	0	0	0	0.57763671875	0.412841796875	1	lower	zerothre.ttf
3066979	START	n/a	LTP135	ltpFR	12	n/a	n/a	n/a	n/a	n/a	n/a	n/a	n/a	n/a	n/a	n/a	n/a	n/a	n/a	n/a	n/a
3068078	PROB	n/a	LTP135	ltpFR	12	n/a	n/a	n/a	n/a	n/a	n/a	n/a	3	1	1	1	n/a	n/a	n/a	n/a	n/a
3069170	PROB	n/a	LTP135	ltpFR	12	n/a	n/a	n/a	n/a	n/a	n/a	n/a	16	5	7	4	n/a	n/a	n/a	n/a	n/a
3071577	PROB	n/a	LTP135	ltpFR	12	n/a	n/a	n/a	n/a	n/a	n/a	n/a	15	6	6	3	n/a	n/a	n/a	n/a	n/a
3073700	PROB	n/a	LTP135	ltpFR	12	n/a	n/a	n/a	n/a	n/a	n/a	n/a	18	9	6	3	n/a	n/a	n/a	n/a	n/a
3075234	PROB	n/a	LTP135	ltpFR	12	n/a	n/a	n/a	n/a	n/a	n/a	n/a	24	9	7	8	n/a	n/a	n/a	n/a	n/a
3078665	PROB	n/a	LTP135	ltpFR	12	n/a	n/a	n/a	n/a	n/a	n/a	n/a	12	5	6	1	n/a	n/a	n/a	n/a	n/a
3080681	PROB	n/a	LTP135	ltpFR	12	n/a	n/a	n/a	n/a	n/a	n/a	n/a	8	1	4	3	n/a	n/a	n/a	n/a	n/a
3082058	STOP	n/a	LTP135	ltpFR	12	n/a	n/a	n/a	n/a	n/a	n/a	n/a	n/a	n/a	n/a	n/a	n/a	n/a	n/a	n/a	n/a
3083889	WORD	wordpools/wasnorm_wordpool.txt	LTP135	ltpFR	12	12	0	ENGINEER	536	n/a	n/a	1	n/a	0	0	0	0.57763671875	0.412841796875	1	lower	zerothre.ttf
3086897	START	n/a	LTP135	ltpFR	12	n/a	n/a	n/a	n/a	n/a	n/a	n/a	n/a	n/a	n/a	n/a	n/a	n/a	n/a	n/a	n/a
3087830	PROB	n/a	LTP135	ltpFR	12	n/a	n/a	n/a	n/a	n/a	n/a	n/a	13	5	1	7	n/a	n/a	n/a	n/a	n/a
3090354	PROB	n/a	LTP135	ltpFR	12	n/a	n/a	n/a	n/a	n/a	n/a	n/a	16	8	2	6	n/a	n/a	n/a	n/a	n/a
3091719	PROB	n/a	LTP135	ltpFR	12	n/a	n/a	n/a	n/a	n/a	n/a	n/a	17	3	8	6	n/a	n/a	n/a	n/a	n/a
3093478	PROB	n/a	LTP135	ltpFR	12	n/a	n/a	n/a	n/a	n/a	n/a	n/a	5	2	2	1	n/a	n/a	n/a	n/a	n/a
3094944	PROB	n/a	LTP135	ltpFR	12	n/a	n/a	n/a	n/a	n/a	n/a	n/a	21	5	7	9	n/a	n/a	n/a	n/a	n/a
3097859	PROB	n/a	LTP135	ltpFR	12	n/a	n/a	n/a	n/a	n/a	n/a	n/a	7	2	4	1	n/a	n/a	n/a	n/a	n/a
3102034	STOP	n/a	LTP135	ltpFR	12	n/a	n/a	n/a	n/a	n/a	n/a	n/a	n/a	n/a	n/a	n/a	n/a	n/a	n/a	n/a	n/a
3103765	WORD	wordpools/wasnorm_wordpool.txt	LTP135	ltpFR	12	12	0	CRUMB	416	n/a	n/a	0	n/a	0	0	0	0.57763671875	0.412841796875	1	lower	zerothre.ttf
3106772	START	n/a	LTP135	ltpFR	12	n/a	n/a	n/a	n/a	n/a	n/a	n/a	n/a	n/a	n/a	n/a	n/a	n/a	n/a	n/a	n/a
3107763	PROB	n/a	LTP135	ltpFR	12	n/a	n/a	n/a	n/a	n/a	n/a	n/a	20	9	8	3	n/a	n/a	n/a	n/a	n/a
3110172	PROB	n/a	LTP135	ltpFR	12	n/a	n/a	n/a	n/a	n/a	n/a	n/a	20	8	9	3	n/a	n/a	n/a	n/a	n/a
3112063	PROB	n/a	LTP135	ltpFR	12	n/a	n/a	n/a	n/a	n/a	n/a	n/a	6	2	1	3	n/a	n/a	n/a	n/a	n/a
3113479	PROB	n/a	LTP135	ltpFR	12	n/a	n/a	n/a	n/a	n/a	n/a	n/a	16	6	8	2	n/a	n/a	n/a	n/a	n/a
3114995	PROB	n/a	LTP135	ltpFR	12	n/a	n/a	n/a	n/a	n/a	n/a	n/a	15	2	5	8	n/a	n/a	n/a	n/a	n/a
3116420	PROB	n/a	LTP135	ltpFR	12	n/a	n/a	n/a	n/a	n/a	n/a	n/a	11	4	1	6	n/a	n/a	n/a	n/a	n/a
3117652	PROB	n/a	LTP135	ltpFR	12	n/a	n/a	n/a	n/a	n/a	n/a	n/a	16	4	9	3	n/a	n/a	n/a	n/a	n/a
3120468	PROB	n/a	LTP135	ltpFR	12	n/a	n/a	n/a	n/a	n/a	n/a	n/a	14	6	5	3	n/a	n/a	n/a	n/a	n/a
3122226	STOP	n/a	LTP135	ltpFR	12	n/a	n/a	n/a	n/a	n/a	n/a	n/a	n/a	n/a	n/a	n/a	n/a	n/a	n/a	n/a	n/a
3123834	WORD	wordpools/wasnorm_wordpool.txt	LTP135	ltpFR	12	12	0	DAISY	435	n/a	n/a	0	n/a	0	0	0	0.57763671875	0.412841796875	1	lower	zerothre.ttf
3126841	START	n/a	LTP135	ltpFR	12	n/a	n/a	n/a	n/a	n/a	n/a	n/a	n/a	n/a	n/a	n/a	n/a	n/a	n/a	n/a	n/a
3127874	PROB	n/a	LTP135	ltpFR	12	n/a	n/a	n/a	n/a	n/a	n/a	n/a	17	5	4	8	n/a	n/a	n/a	n/a	n/a
3130423	PROB	n/a	LTP135	ltpFR	12	n/a	n/a	n/a	n/a	n/a	n/a	n/a	14	6	1	7	n/a	n/a	n/a	n/a	n/a
3132122	PROB	n/a	LTP135	ltpFR	12	n/a	n/a	n/a	n/a	n/a	n/a	n/a	21	9	3	9	n/a	n/a	n/a	n/a	n/a
3133721	PROB	n/a	LTP135	ltpFR	12	n/a	n/a	n/a	n/a	n/a	n/a	n/a	12	5	2	5	n/a	n/a	n/a	n/a	n/a
3135238	PROB	n/a	LTP135	ltpFR	12	n/a	n/a	n/a	n/a	n/a	n/a	n/a	16	5	7	4	n/a	n/a	n/a	n/a	n/a
3136945	PROB	n/a	LTP135	ltpFR	12	n/a	n/a	n/a	n/a	n/a	n/a	n/a	25	7	9	9	n/a	n/a	n/a	n/a	n/a
3138669	PROB	n/a	LTP135	ltpFR	12	n/a	n/a	n/a	n/a	n/a	n/a	n/a	16	8	5	3	n/a	n/a	n/a	n/a	n/a
3140519	PROB	n/a	LTP135	ltpFR	12	n/a	n/a	n/a	n/a	n/a	n/a	n/a	8	3	4	1	n/a	n/a	n/a	n/a	n/a
3142154	STOP	n/a	LTP135	ltpFR	12	n/a	n/a	n/a	n/a	n/a	n/a	n/a	n/a	n/a	n/a	n/a	n/a	n/a	n/a	n/a	n/a
3143943	WORD	wordpools/wasnorm_wordpool.txt	LTP135	ltpFR	12	12	0	RAKE	1164	n/a	n/a	1	n/a	0	0	0	0.57763671875	0.412841796875	1	lower	zerothre.ttf
3146950	START	n/a	LTP135	ltpFR	12	n/a	n/a	n/a	n/a	n/a	n/a	n/a	n/a	n/a	n/a	n/a	n/a	n/a	n/a	n/a	n/a
3147766	PROB	n/a	LTP135	ltpFR	12	n/a	n/a	n/a	n/a	n/a	n/a	n/a	9	2	2	5	n/a	n/a	n/a	n/a	n/a
3149125	PROB	n/a	LTP135	ltpFR	12	n/a	n/a	n/a	n/a	n/a	n/a	n/a	13	4	7	2	n/a	n/a	n/a	n/a	n/a
3151024	PROB	n/a	LTP135	ltpFR	12	n/a	n/a	n/a	n/a	n/a	n/a	n/a	15	2	5	8	n/a	n/a	n/a	n/a	n/a
3152697	PROB	n/a	LTP135	ltpFR	12	n/a	n/a	n/a	n/a	n/a	n/a	n/a	6	2	2	2	n/a	n/a	n/a	n/a	n/a
3153747	PROB	n/a	LTP135	ltpFR	12	n/a	n/a	n/a	n/a	n/a	n/a	n/a	18	8	6	2	n/a	n/a	n/a	n/a	n/a
3156105	PROB	n/a	LTP135	ltpFR	12	n/a	n/a	n/a	n/a	n/a	n/a	n/a	14	5	5	4	n/a	n/a	n/a	n/a	n/a
3157605	PROB	n/a	LTP135	ltpFR	12	n/a	n/a	n/a	n/a	n/a	n/a	n/a	11	1	3	7	n/a	n/a	n/a	n/a	n/a
3158720	PROB	n/a	LTP135	ltpFR	12	n/a	n/a	n/a	n/a	n/a	n/a	n/a	5	3	1	1	n/a	n/a	n/a	n/a	n/a
3159846	PROB	n/a	LTP135	ltpFR	12	n/a	n/a	n/a	n/a	n/a	n/a	n/a	15	2	5	8	n/a	n/a	n/a	n/a	n/a
3162949	STOP	n/a	LTP135	ltpFR	12	n/a	n/a	n/a	n/a	n/a	n/a	n/a	n/a	n/a	n/a	n/a	n/a	n/a	n/a	n/a	n/a
3164803	REC_START	n/a	LTP135	ltpFR	12	12	n/a	n/a	n/a	n/a	n/a	n/a	n/a	0	0	0	n/a	n/a	n/a	n/a	n/a
3166708	REC_WORD	wordpools/wasnorm_wordpool.txt	LTP135	ltpFR	12	12	0	RAKE	1164	n/a	n/a	1	n/a	0	0	0	n/a	n/a	n/a	n/a	n/a
3168549	REC_WORD	wordpools/wasnorm_wordpool.txt	LTP135	ltpFR	12	12	0	LAGOON	795	n/a	n/a	1	n/a	0	0	0	n/a	n/a	n/a	n/a	n/a
3170909	REC_WORD	wordpools/wasnorm_wordpool.txt	LTP135	ltpFR	12	12	0	HOSE	720	n/a	n/a	1	n/a	0	0	0	n/a	n/a	n/a	n/a	n/a
3173259	REC_WORD	wordpools/wasnorm_wordpool.txt	LTP135	ltpFR	12	12	0	SILVERWARE	1308	n/a	n/a	0	n/a	0	0	0	n/a	n/a	n/a	n/a	n/a
3174970	REC_WORD	wordpools/wasnorm_wordpool.txt	LTP135	ltpFR	12	12	0	KNIFE	785	n/a	n/a	0	n/a	0	0	0	n/a	n/a	n/a	n/a	n/a
3175723	REC_WORD	wordpools/wasnorm_wordpool.txt	LTP135	ltpFR	12	12	0	SPOON	1357	n/a	n/a	0	n/a	0	0	0	n/a	n/a	n/a	n/a	n/a
3184523	REC_WORD	wordpools/wasnorm_wordpool.txt	LTP135	ltpFR	12	12	0	HATCHET	691	n/a	n/a	0	n/a	0	0	0	n/a	n/a	n/a	n/a	n/a
3191028	REC_WORD	wordpools/wasnorm_wordpool.txt	LTP135	ltpFR	12	12	0	MERMAID	887	n/a	n/a	1	n/a	0	0	0	n/a	n/a	n/a	n/a	n/a
3302762	REC_START	n/a	LTP135	ltpFR	12	1	n/a	n/a	n/a	n/a	n/a	n/a	n/a	0	0	0	n/a	n/a	n/a	n/a	n/a
3302803	RECOG_LURE	n/a	LTP135	ltpFR	12	1	n/a	DYNAMITE	511	0	1	n/a	n/a	0	0	0	n/a	n/a	n/a	n/a	n/a
3304722	RECOG_RESP	n/a	LTP135	ltpFR	12	1	n/a	DYNAMITE	511	0	n/a	n/a	n/a	0	0	0	n/a	n/a	n/a	n/a	n/a
