mstime	trial_type	stim_file	subject	experiment	session	trial	task	item_name	item_num	recog_resp	recog_conf	resp	color_r	color_g	color_b	case	font
0	SESS_START	n/a	LTP289	ltpFR	6	n/a	n/a	n/a	n/a	1	2	n/a	n/a	n/a	n/a	n/a	n/a
93102	WORD	wordpools/wasnorm_wordpool_less_exclusions.txt	LTP289	ltpFR	6	1	0	EMPLOYER	532	0	n/a	1	0.422607421875	0.5869140625	0	lower	amplitud.ttf
97001	WORD	wordpools/wasnorm_wordpool_less_exclusions.txt	LTP289	ltpFR	6	1	0	TUB	1514	n/a	n/a	1	0.422607421875	0.5869140625	0	lower	amplitud.ttf
100989	WORD	wordpools/wasnorm_wordpool_less_exclusions.txt	LTP289	ltpFR	6	1	0	LEADER	807	n/a	n/a	1	0.422607421875	0.5869140625	0	lower	amplitud.ttf
105087	WORD	wordpools/wasnorm_wordpool_less_exclusions.txt	LTP289	ltpFR	6	1	0	MAN	862	n/a	n/a	1	0.422607421875	0.5869140625	0	lower	amplitud.ttf
109269	WORD	wordpools/wasnorm_wordpool_less_exclusions.txt	LTP289	ltpFR	6	1	1	POTATO	1115	n/a	n/a	0	0.57763671875	0.412841796875	1	upper	zerothre.ttf
113395	WORD	wordpools/wasnorm_wordpool_less_exclusions.txt	LTP289	ltpFR	6	1	1	MEAT	883	n/a	n/a	0	0.57763671875	0.412841796875	1	upper	zerothre.ttf
117410	WORD	wordpools/wasnorm_wordpool_less_exclusions.txt	LTP289	ltpFR	6	1	1	APPLICATION	34	n/a	n/a	0	0.57763671875	0.412841796875	1	upper	zerothre.ttf
121358	WORD	wordpools/wasnorm_wordpool_less_exclusions.txt	LTP289	ltpFR	6	1	1	LAGOON	795	n/a	n/a	0	0.57763671875	0.412841796875	1	upper	zerothre.ttf
125474	WORD	wordpools/wasnorm_wordpool_less_exclusions.txt	LTP289	ltpFR	6	1	0	APARTMENT	30	n/a	n/a	1	0.422607421875	0.5869140625	0	lower	amplitud.ttf
129322	WORD	wordpools/wasnorm_wordpool_less_exclusions.txt	LTP289	ltpFR	6	1	0	PAINTER	1004	n/a	n/a	1	0.422607421875	0.5869140625	0	lower	amplitud.ttf
133310	WORD	wordpools/wasnorm_wordpool_less_exclusions.txt	LTP289	ltpFR	6	1	0	BONE	148	n/a	n/a	1	0.422607421875	0.5869140625	0	lower	amplitud.ttf
137151	WORD	wordpools/wasnorm_wordpool_less_exclusions.txt	LTP289	ltpFR	6	1	0	LIME	823	n/a	n/a	0	0.422607421875	0.5869140625	0	lower	amplitud.ttf
141267	WORD	wordpools/wasnorm_wordpool_less_exclusions.txt	LTP289	ltpFR	6	1	1	MOB	904	n/a	n/a	1	0.57763671875	0.412841796875	1	upper	zerothre.ttf
145416	WORD	wordpools/wasnorm_wordpool_less_exclusions.txt	LTP289	ltpFR	6	1	1	SOCIETY	1338	n/a	n/a	1	0.57763671875	0.412841796875	1	upper	zerothre.ttf
149632	WORD	wordpools/wasnorm_wordpool_less_exclusions.txt	LTP289	ltpFR	6	1	1	WORKER	1621	n/a	n/a	1	0.57763671875	0.412841796875	1	upper	zerothre.ttf
153687	WORD	wordpools/wasnorm_wordpool_less_exclusions.txt	LTP289	ltpFR	6	1	1	FACTORY	548	n/a	n/a	0	0.57763671875	0.412841796875	1	upper	zerothre.ttf
159537	REC_START	n/a	LTP289	ltpFR	6	1	n/a	n/a	n/a	n/a	n/a	n/a	n/a	n/a	n/a	n/a	n/a
160155	REC_WORD	wordpools/wasnorm_wordpool_less_exclusions.txt	LTP289	ltpFR	6	1	1	MOB	904	n/a	n/a	1	n/a	n/a	n/a	n/a	n/a
160873	REC_WORD	wordpools/wasnorm_wordpool_less_exclusions.txt	LTP289	ltpFR	6	1	1	SOCIETY	1338	n/a	n/a	1	n/a	n/a	n/a	n/a	n/a
162416	REC_WORD	wordpools/wasnorm_wordpool_less_exclusions.txt	LTP289	ltpFR	6	1	1	WORKER	1621	n/a	n/a	1	n/a	n/a	n/a	n/a	n/a
163581	REC_WORD	wordpools/wasnorm_wordpool_less_exclusions.txt	LTP289	ltpFR	6	1	1	FACTORY	548	n/a	n/a	0	n/a	n/a	n/a	n/a	n/a
165231	REC_WORD	wordpools/wasnorm_wordpool_less_exclusions.txt	LTP289	ltpFR	6	1	0	TUB	1514	n/a	n/a	1	n/a	n/a	n/a	n/a	n/a
166731	REC_WORD	wordpools/wasnorm_wordpool_less_exclusions.txt	LTP289	ltpFR	6	1	0	BONE	148	n/a	n/a	1	n/a	n/a	n/a	n/a	n/a
167854	REC_WORD	wordpools/wasnorm_wordpool_less_exclusions.txt	LTP289	ltpFR	6	1	0	LIME	823	n/a	n/a	0	n/a	n/a	n/a	n/a	n/a
190156	REC_WORD	wordpools/wasnorm_wordpool_less_exclusions.txt	LTP289	ltpFR	6	1	0	LEADER	807	n/a	n/a	1	n/a	n/a	n/a	n/a	n/a
193292	REC_WORD	wordpools/wasnorm_wordpool_less_exclusions.txt	LTP289	ltpFR	6	1	0	MAN	862	n/a	n/a	1	n/a	n/a	n/a	n/a	n/a
208153	REC_WORD	wordpools/wasnorm_wordpool_less_exclusions.txt	LTP289	ltpFR	6	1	1	POTATO	1115	n/a	n/a	0	n/a	n/a	n/a	n/a	n/a
251868	WORD	wordpools/wasnorm_wordpool_less_exclusions.txt	LTP289	ltpFR	6	2	1	SHELF	1280	n/a	n/a	0	0.57763671875	0.412841796875	1	upper	zerothre.ttf
256040	WORD	wordpools/wasnorm_wordpool_less_exclusions.txt	LTP289	ltpFR	6	2	1	SKUNK	1321	n/a	n/a	1	0.57763671875	0.412841796875	1	upper	zerothre.ttf
260032	WORD	wordpools/wasnorm_wordpool_less_exclusions.txt	LTP289	ltpFR	6	2	1	ICEBERG	731	n/a	n/a	0	0.57763671875	0.412841796875	1	upper	zerothre.ttf
263937	WORD	wordpools/wasnorm_wordpool_less_exclusions.txt	LTP289	ltpFR	6	2	0	HAWK	692	n/a	n/a	1	0.422607421875	0.5869140625	0	lower	amplitud.ttf
267828	WORD	wordpools/wasnorm_wordpool_less_exclusions.txt	LTP289	ltpFR	6	2	0	CUBE	420	n/a	n/a	0	0.422607421875	0.5869140625	0	lower	amplitud.ttf
272011	WORD	wordpools/wasnorm_wordpool_less_exclusions.txt	LTP289	ltpFR	6	2	0	DESK	452	n/a	n/a	1	0.422607421875	0.5869140625	0	lower	amplitud.ttf
276165	WORD	wordpools/wasnorm_wordpool_less_exclusions.txt	LTP289	ltpFR	6	2	0	TABLE	1426	n/a	n/a	1	0.422607421875	0.5869140625	0	lower	amplitud.ttf
280147	WORD	wordpools/wasnorm_wordpool_less_exclusions.txt	LTP289	ltpFR	6	2	0	FLY	586	n/a	n/a	0	0.422607421875	0.5869140625	0	lower	amplitud.ttf
284306	WORD	wordpools/wasnorm_wordpool_less_exclusions.txt	LTP289	ltpFR	6	2	1	REFRIGERATOR	1179	n/a	n/a	0	0.57763671875	0.412841796875	1	upper	zerothre.ttf
288495	WORD	wordpools/wasnorm_wordpool_less_exclusions.txt	LTP289	ltpFR	6	2	1	RUST	1219	n/a	n/a	0	0.57763671875	0.412841796875	1	upper	zerothre.ttf
292319	WORD	wordpools/wasnorm_wordpool_less_exclusions.txt	LTP289	ltpFR	6	2	1	HOOD	714	n/a	n/a	0	0.57763671875	0.412841796875	1	upper	zerothre.ttf
296151	WORD	wordpools/wasnorm_wordpool_less_exclusions.txt	LTP289	ltpFR	6	2	1	TIE	1466	n/a	n/a	0	0.57763671875	0.412841796875	1	upper	zerothre.ttf
300099	WORD	wordpools/wasnorm_wordpool_less_exclusions.txt	LTP289	ltpFR	6	2	1	DANDRUFF	439	n/a	n/a	0	0.57763671875	0.412841796875	1	upper	zerothre.ttf
304104	WORD	wordpools/wasnorm_wordpool_less_exclusions.txt	LTP289	ltpFR	6	2	0	CHAIRPERSON	275	n/a	n/a	1	0.422607421875	0.5869140625	0	lower	amplitud.ttf
308070	WORD	wordpools/wasnorm_wordpool_less_exclusions.txt	LTP289	ltpFR	6	2	0	GOVERNOR	651	n/a	n/a	1	0.422607421875	0.5869140625	0	lower	amplitud.ttf
312234	WORD	wordpools/wasnorm_wordpool_less_exclusions.txt	LTP289	ltpFR	6	2	0	INCENSE	735	n/a	n/a	0	0.422607421875	0.5869140625	0	lower	amplitud.ttf
318241	REC_START	n/a	LTP289	ltpFR	6	2	n/a	n/a	n/a	n/a	n/a	n/a	n/a	n/a	n/a	n/a	n/a
318988	REC_WORD	wordpools/wasnorm_wordpool_less_exclusions.txt	LTP289	ltpFR	6	2	0	INCENSE	735	n/a	n/a	0	n/a	n/a	n/a	n/a	n/a
320934	REC_WORD	wordpools/wasnorm_wordpool_less_exclusions.txt	LTP289	ltpFR	6	2	0	CHAIRPERSON	275	n/a	n/a	1	n/a	n/a	n/a	n/a	n/a
322224	REC_WORD	wordpools/wasnorm_wordpool_less_exclusions.txt	LTP289	ltpFR	6	2	1	REFRIGERATOR	1179	n/a	n/a	0	n/a	n/a	n/a	n/a	n/a
323893	REC_WORD	wordpools/wasnorm_wordpool_less_exclusions.txt	LTP289	ltpFR	6	2	1	DANDRUFF	439	n/a	n/a	0	n/a	n/a	n/a	n/a	n/a
325671	REC_WORD	wordpools/wasnorm_wordpool_less_exclusions.txt	LTP289	ltpFR	6	2	0	TABLE	1426	n/a	n/a	1	n/a	n/a	n/a	n/a	n/a
327061	REC_WORD	wordpools/wasnorm_wordpool_less_exclusions.txt	LTP289	ltpFR	6	2	0	DESK	452	n/a	n/a	1	n/a	n/a	n/a	n/a	n/a
367014	REC_WORD	wordpools/wasnorm_wordpool_less_exclusions.txt	LTP289	ltpFR	6	2	0	INCENSE	735	n/a	n/a	0	n/a	n/a	n/a	n/a	n/a
417548	WORD	wordpools/wasnorm_wordpool_less_exclusions.txt	LTP289	ltpFR	6	3	0	INTESTINE	742	n/a	n/a	0	0.422607421875	0.5869140625	0	lower	amplitud.ttf
421663	WORD	wordpools/wasnorm_wordpool_less_exclusions.txt	LTP289	ltpFR	6	3	0	SINK	1309	n/a	n/a	1	0.422607421875	0.5869140625	0	lower	amplitud.ttf
425578	WORD	wordpools/wasnorm_wordpool_less_exclusions.txt	LTP289	ltpFR	6	3	1	WALNUT	1584	n/a	n/a	0	0.57763671875	0.412841796875	1	upper	zerothre.ttf
429728	WORD	wordpools/wasnorm_wordpool_less_exclusions.txt	LTP289	ltpFR	6	3	1	MEDAL	885	n/a	n/a	0	0.57763671875	0.412841796875	1	upper	zerothre.ttf
433854	WORD	wordpools/wasnorm_wordpool_less_exclusions.txt	LTP289	ltpFR	6	3	1	MICROPHONE	890	n/a	n/a	0	0.57763671875	0.412841796875	1	upper	zerothre.ttf
437707	WORD	wordpools/wasnorm_wordpool_less_exclusions.txt	LTP289	ltpFR	6	3	1	MESSAGE	888	n/a	n/a	0	0.57763671875	0.412841796875	1	upper	zerothre.ttf
441891	WORD	wordpools/wasnorm_wordpool_less_exclusions.txt	LTP289	ltpFR	6	3	1	MERMAID	887	n/a	n/a	1	0.57763671875	0.412841796875	1	upper	zerothre.ttf
445916	WORD	wordpools/wasnorm_wordpool_less_exclusions.txt	LTP289	ltpFR	6	3	0	GORILLA	650	n/a	n/a	1	0.422607421875	0.5869140625	0	lower	amplitud.ttf
450055	WORD	wordpools/wasnorm_wordpool_less_exclusions.txt	LTP289	ltpFR	6	3	0	VAMPIRE	1547	n/a	n/a	1	0.422607421875	0.5869140625	0	lower	amplitud.ttf
454047	WORD	wordpools/wasnorm_wordpool_less_exclusions.txt	LTP289	ltpFR	6	3	0	SALMON	1227	n/a	n/a	1	0.422607421875	0.5869140625	0	lower	amplitud.ttf
458118	WORD	wordpools/wasnorm_wordpool_less_exclusions.txt	LTP289	ltpFR	6	3	0	CRAB	397	n/a	n/a	0	0.422607421875	0.5869140625	0	lower	amplitud.ttf
462017	WORD	wordpools/wasnorm_wordpool_less_exclusions.txt	LTP289	ltpFR	6	3	1	HAY	693	n/a	n/a	0	0.57763671875	0.412841796875	1	upper	zerothre.ttf
466049	WORD	wordpools/wasnorm_wordpool_less_exclusions.txt	LTP289	ltpFR	6	3	1	CROW	414	n/a	n/a	1	0.57763671875	0.412841796875	1	upper	zerothre.ttf
470007	WORD	wordpools/wasnorm_wordpool_less_exclusions.txt	LTP289	ltpFR	6	3	1	QUAIL	1147	n/a	n/a	1	0.57763671875	0.412841796875	1	upper	zerothre.ttf
474005	WORD	wordpools/wasnorm_wordpool_less_exclusions.txt	LTP289	ltpFR	6	3	0	HEART	697	n/a	n/a	0	0.422607421875	0.5869140625	0	lower	amplitud.ttf
477953	WORD	wordpools/wasnorm_wordpool_less_exclusions.txt	LTP289	ltpFR	6	3	0	ABDOMEN	1	n/a	n/a	1	0.422607421875	0.5869140625	0	lower	amplitud.ttf
483726	REC_START	n/a	LTP289	ltpFR	6	3	n/a	n/a	n/a	n/a	n/a	n/a	n/a	n/a	n/a	n/a	n/a
484578	REC_WORD	wordpools/wasnorm_wordpool_less_exclusions.txt	LTP289	ltpFR	6	3	0	HEART	697	n/a	n/a	0	n/a	n/a	n/a	n/a	n/a
485675	REC_WORD	wordpools/wasnorm_wordpool_less_exclusions.txt	LTP289	ltpFR	6	3	0	ABDOMEN	1	n/a	n/a	1	n/a	n/a	n/a	n/a	n/a
487153	REC_WORD	wordpools/wasnorm_wordpool_less_exclusions.txt	LTP289	ltpFR	6	3	1	QUAIL	1147	n/a	n/a	1	n/a	n/a	n/a	n/a	n/a
488896	REC_WORD	wordpools/wasnorm_wordpool_less_exclusions.txt	LTP289	ltpFR	6	3	1	CROW	414	n/a	n/a	1	n/a	n/a	n/a	n/a	n/a
490216	REC_WORD	wordpools/wasnorm_wordpool_less_exclusions.txt	LTP289	ltpFR	6	3	1	HAY	693	n/a	n/a	0	n/a	n/a	n/a	n/a	n/a
494941	REC_WORD	wordpools/wasnorm_wordpool_less_exclusions.txt	LTP289	ltpFR	6	3	0	SALMON	1227	n/a	n/a	1	n/a	n/a	n/a	n/a	n/a
496511	REC_WORD	wordpools/wasnorm_wordpool_less_exclusions.txt	LTP289	ltpFR	6	3	0	CRAB	397	n/a	n/a	0	n/a	n/a	n/a	n/a	n/a
497932	REC_WORD	wordpools/wasnorm_wordpool_less_exclusions.txt	LTP289	ltpFR	6	3	1	MESSAGE	888	n/a	n/a	0	n/a	n/a	n/a	n/a	n/a
503590	REC_WORD	wordpools/wasnorm_wordpool_less_exclusions.txt	LTP289	ltpFR	6	3	0	INTESTINE	742	n/a	n/a	0	n/a	n/a	n/a	n/a	n/a
506927	REC_WORD	wordpools/wasnorm_wordpool_less_exclusions.txt	LTP289	ltpFR	6	3	0	GORILLA	650	n/a	n/a	1	n/a	n/a	n/a	n/a	n/a
527933	REC_WORD	wordpools/wasnorm_wordpool_less_exclusions.txt	LTP289	ltpFR	6	3	1	MERMAID	887	n/a	n/a	1	n/a	n/a	n/a	n/a	n/a
535225	REC_WORD	wordpools/wasnorm_wordpool_less_exclusions.txt	LTP289	ltpFR	6	3	0	VAMPIRE	1547	n/a	n/a	1	n/a	n/a	n/a	n/a	n/a
598564	WORD	wordpools/wasnorm_wordpool_less_exclusions.txt	LTP289	ltpFR	6	4	-1	ROCK	1201	n/a	n/a	-1	1.0	1.0	1	upper	Verdana.ttf
602662	WORD	wordpools/wasnorm_wordpool_less_exclusions.txt	LTP289	ltpFR	6	4	-1	FRIAR	605	n/a	n/a	-1	1.0	1.0	1	upper	Verdana.ttf
606644	WORD	wordpools/wasnorm_wordpool_less_exclusions.txt	LTP289	ltpFR	6	4	-1	SUPPER	1411	n/a	n/a	-1	1.0	1.0	1	upper	Verdana.ttf
610653	WORD	wordpools/wasnorm_wordpool_less_exclusions.txt	LTP289	ltpFR	6	4	-1	HAMBURGER	679	n/a	n/a	-1	1.0	1.0	1	upper	Verdana.ttf
614591	WORD	wordpools/wasnorm_wordpool_less_exclusions.txt	LTP289	ltpFR	6	4	-1	TIMBER	1469	n/a	n/a	-1	1.0	1.0	1	upper	Verdana.ttf
618774	WORD	wordpools/wasnorm_wordpool_less_exclusions.txt	LTP289	ltpFR	6	4	-1	CHAPEL	280	n/a	n/a	-1	1.0	1.0	1	upper	Verdana.ttf
622739	WORD	wordpools/wasnorm_wordpool_less_exclusions.txt	LTP289	ltpFR	6	4	-1	SHEET	1279	n/a	n/a	-1	1.0	1.0	1	upper	Verdana.ttf
626855	WORD	wordpools/wasnorm_wordpool_less_exclusions.txt	LTP289	ltpFR	6	4	-1	CRATER	400	n/a	n/a	-1	1.0	1.0	1	upper	Verdana.ttf
631020	WORD	wordpools/wasnorm_wordpool_less_exclusions.txt	LTP289	ltpFR	6	4	-1	POLICE	1098	n/a	n/a	-1	1.0	1.0	1	upper	Verdana.ttf
635228	WORD	wordpools/wasnorm_wordpool_less_exclusions.txt	LTP289	ltpFR	6	4	-1	SCREWDRIVER	1255	n/a	n/a	-1	1.0	1.0	1	upper	Verdana.ttf
639067	WORD	wordpools/wasnorm_wordpool_less_exclusions.txt	LTP289	ltpFR	6	4	-1	PEAR	1033	n/a	n/a	-1	1.0	1.0	1	upper	Verdana.ttf
643066	WORD	wordpools/wasnorm_wordpool_less_exclusions.txt	LTP289	ltpFR	6	4	-1	PRUNE	1134	n/a	n/a	-1	1.0	1.0	1	upper	Verdana.ttf
647130	WORD	wordpools/wasnorm_wordpool_less_exclusions.txt	LTP289	ltpFR	6	4	-1	STAKE	1368	n/a	n/a	-1	1.0	1.0	1	upper	Verdana.ttf
651312	WORD	wordpools/wasnorm_wordpool_less_exclusions.txt	LTP289	ltpFR	6	4	-1	COTTON	385	n/a	n/a	-1	1.0	1.0	1	upper	Verdana.ttf
655154	WORD	wordpools/wasnorm_wordpool_less_exclusions.txt	LTP289	ltpFR	6	4	-1	ANTEATER	26	n/a	n/a	-1	1.0	1.0	1	upper	Verdana.ttf
659152	WORD	wordpools/wasnorm_wordpool_less_exclusions.txt	LTP289	ltpFR	6	4	-1	FARM	552	n/a	n/a	-1	1.0	1.0	1	upper	Verdana.ttf
665209	REC_START	n/a	LTP289	ltpFR	6	4	n/a	n/a	n/a	n/a	n/a	n/a	n/a	n/a	n/a	n/a	n/a
666284	REC_WORD	wordpools/wasnorm_wordpool_less_exclusions.txt	LTP289	ltpFR	6	4	-1	STAKE	1368	n/a	n/a	-1	n/a	n/a	n/a	n/a	n/a
667814	REC_WORD	wordpools/wasnorm_wordpool_less_exclusions.txt	LTP289	ltpFR	6	4	-1	COTTON	385	n/a	n/a	-1	n/a	n/a	n/a	n/a	n/a
668994	REC_WORD	wordpools/wasnorm_wordpool_less_exclusions.txt	LTP289	ltpFR	6	4	-1	ANTEATER	26	n/a	n/a	-1	n/a	n/a	n/a	n/a	n/a
670335	REC_WORD	wordpools/wasnorm_wordpool_less_exclusions.txt	LTP289	ltpFR	6	4	-1	FARM	552	n/a	n/a	-1	n/a	n/a	n/a	n/a	n/a
674247	REC_WORD	wordpools/wasnorm_wordpool_less_exclusions.txt	LTP289	ltpFR	6	4	-1	SCREWDRIVER	1255	n/a	n/a	-1	n/a	n/a	n/a	n/a	n/a
675247	REC_WORD_VV	wordpools/wasnorm_wordpool_less_exclusions.txt	LTP289	ltpFR	6	4	n/a	<>	-1	n/a	n/a	n/a	n/a	n/a	n/a	n/a	n/a
676768	REC_WORD	wordpools/wasnorm_wordpool_less_exclusions.txt	LTP289	ltpFR	6	4	-1	PEAR	1033	n/a	n/a	-1	n/a	n/a	n/a	n/a	n/a
679636	REC_WORD	wordpools/wasnorm_wordpool_less_exclusions.txt	LTP289	ltpFR	6	4	-1	ROCK	1201	n/a	n/a	-1	n/a	n/a	n/a	n/a	n/a
680704	REC_WORD	wordpools/wasnorm_wordpool_less_exclusions.txt	LTP289	ltpFR	6	4	-1	FRIAR	605	n/a	n/a	-1	n/a	n/a	n/a	n/a	n/a
684812	REC_WORD	wordpools/wasnorm_wordpool_less_exclusions.txt	LTP289	ltpFR	6	4	-1	HAMBURGER	679	n/a	n/a	-1	n/a	n/a	n/a	n/a	n/a
686260	REC_WORD	wordpools/wasnorm_wordpool_less_exclusions.txt	LTP289	ltpFR	6	4	-1	SUPPER	1411	n/a	n/a	-1	n/a	n/a	n/a	n/a	n/a
692665	REC_WORD	wordpools/wasnorm_wordpool_less_exclusions.txt	LTP289	ltpFR	6	4	-1	SCREWDRIVER	1255	n/a	n/a	-1	n/a	n/a	n/a	n/a	n/a
693665	REC_WORD_VV	wordpools/wasnorm_wordpool_less_exclusions.txt	LTP289	ltpFR	6	4	n/a	<>	-1	n/a	n/a	n/a	n/a	n/a	n/a	n/a	n/a
696894	REC_WORD	wordpools/wasnorm_wordpool_less_exclusions.txt	LTP289	ltpFR	6	4	-1	POLICE	1098	n/a	n/a	-1	n/a	n/a	n/a	n/a	n/a
698409	REC_WORD	wordpools/wasnorm_wordpool_less_exclusions.txt	LTP289	ltpFR	6	4	-1	CHAPEL	280	n/a	n/a	-1	n/a	n/a	n/a	n/a	n/a
699877	REC_WORD	wordpools/wasnorm_wordpool_less_exclusions.txt	LTP289	ltpFR	6	4	-1	CRATER	400	n/a	n/a	-1	n/a	n/a	n/a	n/a	n/a
709331	REC_WORD	wordpools/wasnorm_wordpool_less_exclusions.txt	LTP289	ltpFR	6	4	-1	TIMBER	1469	n/a	n/a	-1	n/a	n/a	n/a	n/a	n/a
759687	WORD	wordpools/wasnorm_wordpool_less_exclusions.txt	LTP289	ltpFR	6	5	1	SCOUT	1252	n/a	n/a	1	0.57763671875	0.412841796875	1	upper	zerothre.ttf
763754	WORD	wordpools/wasnorm_wordpool_less_exclusions.txt	LTP289	ltpFR	6	5	1	WILDERNESS	1610	n/a	n/a	0	0.57763671875	0.412841796875	1	upper	zerothre.ttf
767634	WORD	wordpools/wasnorm_wordpool_less_exclusions.txt	LTP289	ltpFR	6	5	1	RAM	1165	n/a	n/a	1	0.57763671875	0.412841796875	1	upper	zerothre.ttf
771482	WORD	wordpools/wasnorm_wordpool_less_exclusions.txt	LTP289	ltpFR	6	5	1	HERD	705	n/a	n/a	1	0.57763671875	0.412841796875	1	upper	zerothre.ttf
775597	WORD	wordpools/wasnorm_wordpool_less_exclusions.txt	LTP289	ltpFR	6	5	1	PAINTING	1005	n/a	n/a	0	0.57763671875	0.412841796875	1	upper	zerothre.ttf
779706	WORD	wordpools/wasnorm_wordpool_less_exclusions.txt	LTP289	ltpFR	6	5	1	ANIMAL	23	n/a	n/a	0	0.57763671875	0.412841796875	1	upper	zerothre.ttf
783721	WORD	wordpools/wasnorm_wordpool_less_exclusions.txt	LTP289	ltpFR	6	5	1	PALACE	1006	n/a	n/a	0	0.57763671875	0.412841796875	1	upper	zerothre.ttf
787878	WORD	wordpools/wasnorm_wordpool_less_exclusions.txt	LTP289	ltpFR	6	5	1	BAG	69	n/a	n/a	0	0.57763671875	0.412841796875	1	upper	zerothre.ttf
791759	WORD	wordpools/wasnorm_wordpool_less_exclusions.txt	LTP289	ltpFR	6	5	1	PAW	1029	n/a	n/a	1	0.57763671875	0.412841796875	1	upper	zerothre.ttf
795875	WORD	wordpools/wasnorm_wordpool_less_exclusions.txt	LTP289	ltpFR	6	5	1	EWE	542	n/a	n/a	1	0.57763671875	0.412841796875	1	upper	zerothre.ttf
799756	WORD	wordpools/wasnorm_wordpool_less_exclusions.txt	LTP289	ltpFR	6	5	1	SCRIBBLE	1256	n/a	n/a	0	0.57763671875	0.412841796875	1	upper	zerothre.ttf
803613	WORD	wordpools/wasnorm_wordpool_less_exclusions.txt	LTP289	ltpFR	6	5	1	SHARK	1275	n/a	n/a	1	0.57763671875	0.412841796875	1	upper	zerothre.ttf
807685	WORD	wordpools/wasnorm_wordpool_less_exclusions.txt	LTP289	ltpFR	6	5	1	DECK	443	n/a	n/a	0	0.57763671875	0.412841796875	1	upper	zerothre.ttf
811627	WORD	wordpools/wasnorm_wordpool_less_exclusions.txt	LTP289	ltpFR	6	5	1	SHIP	1286	n/a	n/a	0	0.57763671875	0.412841796875	1	upper	zerothre.ttf
815810	WORD	wordpools/wasnorm_wordpool_less_exclusions.txt	LTP289	ltpFR	6	5	1	KANGAROO	768	n/a	n/a	1	0.57763671875	0.412841796875	1	upper	zerothre.ttf
819782	WORD	wordpools/wasnorm_wordpool_less_exclusions.txt	LTP289	ltpFR	6	5	1	PORTRAIT	1111	n/a	n/a	0	0.57763671875	0.412841796875	1	upper	zerothre.ttf
825546	REC_START	n/a	LTP289	ltpFR	6	5	n/a	n/a	n/a	n/a	n/a	n/a	n/a	n/a	n/a	n/a	n/a
826856	REC_WORD	wordpools/wasnorm_wordpool_less_exclusions.txt	LTP289	ltpFR	6	5	1	PORTRAIT	1111	n/a	n/a	0	n/a	n/a	n/a	n/a	n/a
827707	REC_WORD	wordpools/wasnorm_wordpool_less_exclusions.txt	LTP289	ltpFR	6	5	1	KANGAROO	768	n/a	n/a	1	n/a	n/a	n/a	n/a	n/a
830545	REC_WORD	wordpools/wasnorm_wordpool_less_exclusions.txt	LTP289	ltpFR	6	5	1	EWE	542	n/a	n/a	1	n/a	n/a	n/a	n/a	n/a
831484	REC_WORD	wordpools/wasnorm_wordpool_less_exclusions.txt	LTP289	ltpFR	6	5	1	SCRIBBLE	1256	n/a	n/a	0	n/a	n/a	n/a	n/a	n/a
833373	REC_WORD	wordpools/wasnorm_wordpool_less_exclusions.txt	LTP289	ltpFR	6	5	1	DECK	443	n/a	n/a	0	n/a	n/a	n/a	n/a	n/a
834416	REC_WORD	wordpools/wasnorm_wordpool_less_exclusions.txt	LTP289	ltpFR	6	5	1	SHARK	1275	n/a	n/a	1	n/a	n/a	n/a	n/a	n/a
839984	REC_WORD	wordpools/wasnorm_wordpool_less_exclusions.txt	LTP289	ltpFR	6	5	1	SCOUT	1252	n/a	n/a	1	n/a	n/a	n/a	n/a	n/a
841466	REC_WORD	wordpools/wasnorm_wordpool_less_exclusions.txt	LTP289	ltpFR	6	5	1	WILDERNESS	1610	n/a	n/a	0	n/a	n/a	n/a	n/a	n/a
843180	REC_WORD	wordpools/wasnorm_wordpool_less_exclusions.txt	LTP289	ltpFR	6	5	1	RAM	1165	n/a	n/a	1	n/a	n/a	n/a	n/a	n/a
844469	REC_WORD	wordpools/wasnorm_wordpool_less_exclusions.txt	LTP289	ltpFR	6	5	1	HERD	705	n/a	n/a	1	n/a	n/a	n/a	n/a	n/a
847347	REC_WORD	wordpools/wasnorm_wordpool_less_exclusions.txt	LTP289	ltpFR	6	5	1	PAINTING	1005	n/a	n/a	0	n/a	n/a	n/a	n/a	n/a
914790	WORD	wordpools/wasnorm_wordpool_less_exclusions.txt	LTP289	ltpFR	6	6	0	CRITIC	410	n/a	n/a	1	0.422607421875	0.5869140625	0	lower	amplitud.ttf
918755	WORD	wordpools/wasnorm_wordpool_less_exclusions.txt	LTP289	ltpFR	6	6	0	AUDIENCE	59	n/a	n/a	1	0.422607421875	0.5869140625	0	lower	amplitud.ttf
922797	WORD	wordpools/wasnorm_wordpool_less_exclusions.txt	LTP289	ltpFR	6	6	0	CLOWN	330	n/a	n/a	1	0.422607421875	0.5869140625	0	lower	amplitud.ttf
926684	WORD	wordpools/wasnorm_wordpool_less_exclusions.txt	LTP289	ltpFR	6	6	0	PERSON	1052	n/a	n/a	1	0.422607421875	0.5869140625	0	lower	amplitud.ttf
930733	WORD	wordpools/wasnorm_wordpool_less_exclusions.txt	LTP289	ltpFR	6	6	1	POCKETBOOK	1094	n/a	n/a	0	0.57763671875	0.412841796875	1	upper	zerothre.ttf
934782	WORD	wordpools/wasnorm_wordpool_less_exclusions.txt	LTP289	ltpFR	6	6	1	WARRIOR	1589	n/a	n/a	1	0.57763671875	0.412841796875	1	upper	zerothre.ttf
938947	WORD	wordpools/wasnorm_wordpool_less_exclusions.txt	LTP289	ltpFR	6	6	1	BOXER	160	n/a	n/a	1	0.57763671875	0.412841796875	1	upper	zerothre.ttf
943080	WORD	wordpools/wasnorm_wordpool_less_exclusions.txt	LTP289	ltpFR	6	6	1	CONCERT	360	n/a	n/a	0	0.57763671875	0.412841796875	1	upper	zerothre.ttf
947144	WORD	wordpools/wasnorm_wordpool_less_exclusions.txt	LTP289	ltpFR	6	6	1	SUPERVISOR	1410	n/a	n/a	1	0.57763671875	0.412841796875	1	upper	zerothre.ttf
951169	WORD	wordpools/wasnorm_wordpool_less_exclusions.txt	LTP289	ltpFR	6	6	0	ITEM	746	n/a	n/a	0	0.422607421875	0.5869140625	0	lower	amplitud.ttf
955184	WORD	wordpools/wasnorm_wordpool_less_exclusions.txt	LTP289	ltpFR	6	6	0	DOORBELL	487	n/a	n/a	0	0.422607421875	0.5869140625	0	lower	amplitud.ttf
959273	WORD	wordpools/wasnorm_wordpool_less_exclusions.txt	LTP289	ltpFR	6	6	0	RING	1193	n/a	n/a	0	0.422607421875	0.5869140625	0	lower	amplitud.ttf
963322	WORD	wordpools/wasnorm_wordpool_less_exclusions.txt	LTP289	ltpFR	6	6	0	OBOE	969	n/a	n/a	0	0.422607421875	0.5869140625	0	lower	amplitud.ttf
967287	WORD	wordpools/wasnorm_wordpool_less_exclusions.txt	LTP289	ltpFR	6	6	1	TOTE	1487	n/a	n/a	0	0.57763671875	0.412841796875	1	upper	zerothre.ttf
971419	WORD	wordpools/wasnorm_wordpool_less_exclusions.txt	LTP289	ltpFR	6	6	1	PUDDING	1139	n/a	n/a	0	0.57763671875	0.412841796875	1	upper	zerothre.ttf
975635	WORD	wordpools/wasnorm_wordpool_less_exclusions.txt	LTP289	ltpFR	6	6	1	SEAFOOD	1260	n/a	n/a	0	0.57763671875	0.412841796875	1	upper	zerothre.ttf
981324	REC_START	n/a	LTP289	ltpFR	6	6	n/a	n/a	n/a	n/a	n/a	n/a	n/a	n/a	n/a	n/a	n/a
982150	REC_WORD	wordpools/wasnorm_wordpool_less_exclusions.txt	LTP289	ltpFR	6	6	1	SEAFOOD	1260	n/a	n/a	0	n/a	n/a	n/a	n/a	n/a
990591	REC_WORD	wordpools/wasnorm_wordpool_less_exclusions.txt	LTP289	ltpFR	6	6	0	CRITIC	410	n/a	n/a	1	n/a	n/a	n/a	n/a	n/a
991955	REC_WORD	wordpools/wasnorm_wordpool_less_exclusions.txt	LTP289	ltpFR	6	6	0	AUDIENCE	59	n/a	n/a	1	n/a	n/a	n/a	n/a	n/a
993464	REC_WORD	wordpools/wasnorm_wordpool_less_exclusions.txt	LTP289	ltpFR	6	6	0	PERSON	1052	n/a	n/a	1	n/a	n/a	n/a	n/a	n/a
998060	REC_WORD	wordpools/wasnorm_wordpool_less_exclusions.txt	LTP289	ltpFR	6	6	1	WARRIOR	1589	n/a	n/a	1	n/a	n/a	n/a	n/a	n/a
999587	REC_WORD	wordpools/wasnorm_wordpool_less_exclusions.txt	LTP289	ltpFR	6	6	1	BOXER	160	n/a	n/a	1	n/a	n/a	n/a	n/a	n/a
1000990	REC_WORD	wordpools/wasnorm_wordpool_less_exclusions.txt	LTP289	ltpFR	6	6	1	POCKETBOOK	1094	n/a	n/a	0	n/a	n/a	n/a	n/a	n/a
1005375	REC_WORD	wordpools/wasnorm_wordpool_less_exclusions.txt	LTP289	ltpFR	6	6	1	CONCERT	360	n/a	n/a	0	n/a	n/a	n/a	n/a	n/a
1011915	REC_WORD	wordpools/wasnorm_wordpool_less_exclusions.txt	LTP289	ltpFR	6	6	0	ITEM	746	n/a	n/a	0	n/a	n/a	n/a	n/a	n/a
1012977	REC_WORD	wordpools/wasnorm_wordpool_less_exclusions.txt	LTP289	ltpFR	6	6	1	SUPERVISOR	1410	n/a	n/a	1	n/a	n/a	n/a	n/a	n/a
1013977	REC_WORD_VV	wordpools/wasnorm_wordpool_less_exclusions.txt	LTP289	ltpFR	6	6	n/a	<>	-1	n/a	n/a	n/a	n/a	n/a	n/a	n/a	n/a
1025139	REC_WORD	wordpools/wasnorm_wordpool_less_exclusions.txt	LTP289	ltpFR	6	6	0	DOORBELL	487	n/a	n/a	0	n/a	n/a	n/a	n/a	n/a
1026440	REC_WORD	wordpools/wasnorm_wordpool_less_exclusions.txt	LTP289	ltpFR	6	6	0	RING	1193	n/a	n/a	0	n/a	n/a	n/a	n/a	n/a
1028370	REC_WORD	wordpools/wasnorm_wordpool_less_exclusions.txt	LTP289	ltpFR	6	6	0	OBOE	969	n/a	n/a	0	n/a	n/a	n/a	n/a	n/a
1034671	REC_WORD	wordpools/wasnorm_wordpool_less_exclusions.txt	LTP289	ltpFR	6	6	1	SEAFOOD	1260	n/a	n/a	0	n/a	n/a	n/a	n/a	n/a
1087305	WORD	wordpools/wasnorm_wordpool_less_exclusions.txt	LTP289	ltpFR	6	7	0	BEAVER	109	n/a	n/a	0	0.422607421875	0.5869140625	0	lower	amplitud.ttf
1091271	WORD	wordpools/wasnorm_wordpool_less_exclusions.txt	LTP289	ltpFR	6	7	0	DRESSER	496	n/a	n/a	1	0.422607421875	0.5869140625	0	lower	amplitud.ttf
1095252	WORD	wordpools/wasnorm_wordpool_less_exclusions.txt	LTP289	ltpFR	6	7	0	RACK	1154	n/a	n/a	1	0.422607421875	0.5869140625	0	lower	amplitud.ttf
1099461	WORD	wordpools/wasnorm_wordpool_less_exclusions.txt	LTP289	ltpFR	6	7	0	PIKE	1067	n/a	n/a	1	0.422607421875	0.5869140625	0	lower	amplitud.ttf
1103667	WORD	wordpools/wasnorm_wordpool_less_exclusions.txt	LTP289	ltpFR	6	7	0	STICKER	1382	n/a	n/a	0	0.422607421875	0.5869140625	0	lower	amplitud.ttf
1107734	WORD	wordpools/wasnorm_wordpool_less_exclusions.txt	LTP289	ltpFR	6	7	0	ROOST	1208	n/a	n/a	1	0.422607421875	0.5869140625	0	lower	amplitud.ttf
1111776	WORD	wordpools/wasnorm_wordpool_less_exclusions.txt	LTP289	ltpFR	6	7	0	CARDINAL	244	n/a	n/a	0	0.422607421875	0.5869140625	0	lower	amplitud.ttf
1115713	WORD	wordpools/wasnorm_wordpool_less_exclusions.txt	LTP289	ltpFR	6	7	0	VITAMIN	1574	n/a	n/a	0	0.422607421875	0.5869140625	0	lower	amplitud.ttf
1119940	WORD	wordpools/wasnorm_wordpool_less_exclusions.txt	LTP289	ltpFR	6	7	0	JUPITER	765	n/a	n/a	1	0.422607421875	0.5869140625	0	lower	amplitud.ttf
1123854	WORD	wordpools/wasnorm_wordpool_less_exclusions.txt	LTP289	ltpFR	6	7	0	POSSUM	1112	n/a	n/a	1	0.422607421875	0.5869140625	0	lower	amplitud.ttf
1128077	WORD	wordpools/wasnorm_wordpool_less_exclusions.txt	LTP289	ltpFR	6	7	0	CAB	209	n/a	n/a	1	0.422607421875	0.5869140625	0	lower	amplitud.ttf
1132008	WORD	wordpools/wasnorm_wordpool_less_exclusions.txt	LTP289	ltpFR	6	7	0	CANDIDATE	228	n/a	n/a	1	0.422607421875	0.5869140625	0	lower	amplitud.ttf
1136166	WORD	wordpools/wasnorm_wordpool_less_exclusions.txt	LTP289	ltpFR	6	7	0	TUBE	1516	n/a	n/a	0	0.422607421875	0.5869140625	0	lower	amplitud.ttf
1140182	WORD	wordpools/wasnorm_wordpool_less_exclusions.txt	LTP289	ltpFR	6	7	0	RECORD	1176	n/a	n/a	0	0.422607421875	0.5869140625	0	lower	amplitud.ttf
1144220	WORD	wordpools/wasnorm_wordpool_less_exclusions.txt	LTP289	ltpFR	6	7	0	TAPE	1433	n/a	n/a	0	0.422607421875	0.5869140625	0	lower	amplitud.ttf
1148352	WORD	wordpools/wasnorm_wordpool_less_exclusions.txt	LTP289	ltpFR	6	7	0	BUCKET	184	n/a	n/a	0	0.422607421875	0.5869140625	0	lower	amplitud.ttf
1154026	REC_START	n/a	LTP289	ltpFR	6	7	n/a	n/a	n/a	n/a	n/a	n/a	n/a	n/a	n/a	n/a	n/a
1155463	REC_WORD	wordpools/wasnorm_wordpool_less_exclusions.txt	LTP289	ltpFR	6	7	0	RECORD	1176	n/a	n/a	0	n/a	n/a	n/a	n/a	n/a
1156581	REC_WORD	wordpools/wasnorm_wordpool_less_exclusions.txt	LTP289	ltpFR	6	7	0	TAPE	1433	n/a	n/a	0	n/a	n/a	n/a	n/a	n/a
1158268	REC_WORD	wordpools/wasnorm_wordpool_less_exclusions.txt	LTP289	ltpFR	6	7	0	BUCKET	184	n/a	n/a	0	n/a	n/a	n/a	n/a	n/a
1163079	REC_WORD	wordpools/wasnorm_wordpool_less_exclusions.txt	LTP289	ltpFR	6	7	0	TUBE	1516	n/a	n/a	0	n/a	n/a	n/a	n/a	n/a
1167277	REC_WORD	wordpools/wasnorm_wordpool_less_exclusions.txt	LTP289	ltpFR	6	7	0	STICKER	1382	n/a	n/a	0	n/a	n/a	n/a	n/a	n/a
1168979	REC_WORD	wordpools/wasnorm_wordpool_less_exclusions.txt	LTP289	ltpFR	6	7	0	PIKE	1067	n/a	n/a	1	n/a	n/a	n/a	n/a	n/a
1170091	REC_WORD	wordpools/wasnorm_wordpool_less_exclusions.txt	LTP289	ltpFR	6	7	0	ROOST	1208	n/a	n/a	1	n/a	n/a	n/a	n/a	n/a
1179677	REC_WORD	wordpools/wasnorm_wordpool_less_exclusions.txt	LTP289	ltpFR	6	7	0	VITAMIN	1574	n/a	n/a	0	n/a	n/a	n/a	n/a	n/a
1191312	REC_WORD	wordpools/wasnorm_wordpool_less_exclusions.txt	LTP289	ltpFR	6	7	0	CARDINAL	244	n/a	n/a	0	n/a	n/a	n/a	n/a	n/a
1280159	WORD	wordpools/wasnorm_wordpool_less_exclusions.txt	LTP289	ltpFR	6	8	1	RIB	1188	n/a	n/a	0	0.57763671875	0.412841796875	1	upper	zerothre.ttf
1284214	WORD	wordpools/wasnorm_wordpool_less_exclusions.txt	LTP289	ltpFR	6	8	1	SHOULDER	1294	n/a	n/a	0	0.57763671875	0.412841796875	1	upper	zerothre.ttf
1288073	WORD	wordpools/wasnorm_wordpool_less_exclusions.txt	LTP289	ltpFR	6	8	1	MATCH	878	n/a	n/a	0	0.57763671875	0.412841796875	1	upper	zerothre.ttf
1292255	WORD	wordpools/wasnorm_wordpool_less_exclusions.txt	LTP289	ltpFR	6	8	1	STEREO	1378	n/a	n/a	0	0.57763671875	0.412841796875	1	upper	zerothre.ttf
1296303	WORD	wordpools/wasnorm_wordpool_less_exclusions.txt	LTP289	ltpFR	6	8	1	SQUID	1361	n/a	n/a	1	0.57763671875	0.412841796875	1	upper	zerothre.ttf
1300385	WORD	wordpools/wasnorm_wordpool_less_exclusions.txt	LTP289	ltpFR	6	8	1	FISH	571	n/a	n/a	1	0.57763671875	0.412841796875	1	upper	zerothre.ttf
1304558	WORD	wordpools/wasnorm_wordpool_less_exclusions.txt	LTP289	ltpFR	6	8	1	ANCHOR	21	n/a	n/a	0	0.57763671875	0.412841796875	1	upper	zerothre.ttf
1308583	WORD	wordpools/wasnorm_wordpool_less_exclusions.txt	LTP289	ltpFR	6	8	1	BENCH	121	n/a	n/a	0	0.57763671875	0.412841796875	1	upper	zerothre.ttf
1312571	WORD	wordpools/wasnorm_wordpool_less_exclusions.txt	LTP289	ltpFR	6	8	1	MOSS	918	n/a	n/a	1	0.57763671875	0.412841796875	1	upper	zerothre.ttf
1316513	WORD	wordpools/wasnorm_wordpool_less_exclusions.txt	LTP289	ltpFR	6	8	1	THICKET	1455	n/a	n/a	0	0.57763671875	0.412841796875	1	upper	zerothre.ttf
1320702	WORD	wordpools/wasnorm_wordpool_less_exclusions.txt	LTP289	ltpFR	6	8	1	BRIDE	173	n/a	n/a	1	0.57763671875	0.412841796875	1	upper	zerothre.ttf
1324677	WORD	wordpools/wasnorm_wordpool_less_exclusions.txt	LTP289	ltpFR	6	8	1	MEAL	882	n/a	n/a	0	0.57763671875	0.412841796875	1	upper	zerothre.ttf
1328515	WORD	wordpools/wasnorm_wordpool_less_exclusions.txt	LTP289	ltpFR	6	8	1	BALLERINA	74	n/a	n/a	1	0.57763671875	0.412841796875	1	upper	zerothre.ttf
1332674	WORD	wordpools/wasnorm_wordpool_less_exclusions.txt	LTP289	ltpFR	6	8	1	DRESS	495	n/a	n/a	0	0.57763671875	0.412841796875	1	upper	zerothre.ttf
1336880	WORD	wordpools/wasnorm_wordpool_less_exclusions.txt	LTP289	ltpFR	6	8	1	PATIO	1025	n/a	n/a	0	0.57763671875	0.412841796875	1	upper	zerothre.ttf
1340711	WORD	wordpools/wasnorm_wordpool_less_exclusions.txt	LTP289	ltpFR	6	8	1	CHAMBER	277	n/a	n/a	0	0.57763671875	0.412841796875	1	upper	zerothre.ttf
1346383	REC_START	n/a	LTP289	ltpFR	6	8	n/a	n/a	n/a	n/a	n/a	n/a	n/a	n/a	n/a	n/a	n/a
1347475	REC_WORD	wordpools/wasnorm_wordpool_less_exclusions.txt	LTP289	ltpFR	6	8	1	CHAMBER	277	n/a	n/a	0	n/a	n/a	n/a	n/a	n/a
1348872	REC_WORD	wordpools/wasnorm_wordpool_less_exclusions.txt	LTP289	ltpFR	6	8	1	PATIO	1025	n/a	n/a	0	n/a	n/a	n/a	n/a	n/a
1350380	REC_WORD	wordpools/wasnorm_wordpool_less_exclusions.txt	LTP289	ltpFR	6	8	1	DRESS	495	n/a	n/a	0	n/a	n/a	n/a	n/a	n/a
1352093	REC_WORD	wordpools/wasnorm_wordpool_less_exclusions.txt	LTP289	ltpFR	6	8	1	BALLERINA	74	n/a	n/a	1	n/a	n/a	n/a	n/a	n/a
1361452	REC_WORD	wordpools/wasnorm_wordpool_less_exclusions.txt	LTP289	ltpFR	6	8	1	RIB	1188	n/a	n/a	0	n/a	n/a	n/a	n/a	n/a
1362618	REC_WORD	wordpools/wasnorm_wordpool_less_exclusions.txt	LTP289	ltpFR	6	8	1	SHOULDER	1294	n/a	n/a	0	n/a	n/a	n/a	n/a	n/a
1364843	REC_WORD	wordpools/wasnorm_wordpool_less_exclusions.txt	LTP289	ltpFR	6	8	1	MATCH	878	n/a	n/a	0	n/a	n/a	n/a	n/a	n/a
1366662	REC_WORD	wordpools/wasnorm_wordpool_less_exclusions.txt	LTP289	ltpFR	6	8	1	STEREO	1378	n/a	n/a	0	n/a	n/a	n/a	n/a	n/a
1368516	REC_WORD	wordpools/wasnorm_wordpool_less_exclusions.txt	LTP289	ltpFR	6	8	1	SQUID	1361	n/a	n/a	1	n/a	n/a	n/a	n/a	n/a
1370280	REC_WORD	wordpools/wasnorm_wordpool_less_exclusions.txt	LTP289	ltpFR	6	8	1	FISH	571	n/a	n/a	1	n/a	n/a	n/a	n/a	n/a
1384087	REC_WORD	wordpools/wasnorm_wordpool_less_exclusions.txt	LTP289	ltpFR	6	8	1	CHAMBER	277	n/a	n/a	0	n/a	n/a	n/a	n/a	n/a
1385125	REC_WORD	wordpools/wasnorm_wordpool_less_exclusions.txt	LTP289	ltpFR	6	8	1	PATIO	1025	n/a	n/a	0	n/a	n/a	n/a	n/a	n/a
1396294	REC_WORD	wordpools/wasnorm_wordpool_less_exclusions.txt	LTP289	ltpFR	6	8	1	ANCHOR	21	n/a	n/a	0	n/a	n/a	n/a	n/a	n/a
1405923	REC_WORD	wordpools/wasnorm_wordpool_less_exclusions.txt	LTP289	ltpFR	6	8	1	BENCH	121	n/a	n/a	0	n/a	n/a	n/a	n/a	n/a
1407617	REC_WORD	wordpools/wasnorm_wordpool_less_exclusions.txt	LTP289	ltpFR	6	8	1	MOSS	918	n/a	n/a	1	n/a	n/a	n/a	n/a	n/a
1410279	REC_WORD	wordpools/wasnorm_wordpool_less_exclusions.txt	LTP289	ltpFR	6	8	1	THICKET	1455	n/a	n/a	0	n/a	n/a	n/a	n/a	n/a
1412794	REC_WORD	wordpools/wasnorm_wordpool_less_exclusions.txt	LTP289	ltpFR	6	8	1	BRIDE	173	n/a	n/a	1	n/a	n/a	n/a	n/a	n/a
1422035	REST_REWET	n/a	LTP289	ltpFR	6	8	n/a	n/a	n/a	n/a	n/a	n/a	n/a	n/a	n/a	n/a	n/a
1930560	WORD	wordpools/wasnorm_wordpool_less_exclusions.txt	LTP289	ltpFR	6	9	-1	APPLE	33	n/a	n/a	-1	1.0	1.0	1	upper	Verdana.ttf
1934408	WORD	wordpools/wasnorm_wordpool_less_exclusions.txt	LTP289	ltpFR	6	9	-1	FELLOW	558	n/a	n/a	-1	1.0	1.0	1	upper	Verdana.ttf
1938256	WORD	wordpools/wasnorm_wordpool_less_exclusions.txt	LTP289	ltpFR	6	9	-1	MULE	931	n/a	n/a	-1	1.0	1.0	1	upper	Verdana.ttf
1942194	WORD	wordpools/wasnorm_wordpool_less_exclusions.txt	LTP289	ltpFR	6	9	-1	HANDBAG	684	n/a	n/a	-1	1.0	1.0	1	upper	Verdana.ttf
1946060	WORD	wordpools/wasnorm_wordpool_less_exclusions.txt	LTP289	ltpFR	6	9	-1	QUARTER	1148	n/a	n/a	-1	1.0	1.0	1	upper	Verdana.ttf
1949958	WORD	wordpools/wasnorm_wordpool_less_exclusions.txt	LTP289	ltpFR	6	9	-1	DILL	465	n/a	n/a	-1	1.0	1.0	1	upper	Verdana.ttf
1954023	WORD	wordpools/wasnorm_wordpool_less_exclusions.txt	LTP289	ltpFR	6	9	-1	MISTER	901	n/a	n/a	-1	1.0	1.0	1	upper	Verdana.ttf
1958021	WORD	wordpools/wasnorm_wordpool_less_exclusions.txt	LTP289	ltpFR	6	9	-1	COBBLER	335	n/a	n/a	-1	1.0	1.0	1	upper	Verdana.ttf
1962246	WORD	wordpools/wasnorm_wordpool_less_exclusions.txt	LTP289	ltpFR	6	9	-1	SUBWAY	1400	n/a	n/a	-1	1.0	1.0	1	upper	Verdana.ttf
1966278	WORD	wordpools/wasnorm_wordpool_less_exclusions.txt	LTP289	ltpFR	6	9	-1	LIST	830	n/a	n/a	-1	1.0	1.0	1	upper	Verdana.ttf
1970384	WORD	wordpools/wasnorm_wordpool_less_exclusions.txt	LTP289	ltpFR	6	9	-1	NEWSSTAND	949	n/a	n/a	-1	1.0	1.0	1	upper	Verdana.ttf
1974248	WORD	wordpools/wasnorm_wordpool_less_exclusions.txt	LTP289	ltpFR	6	9	-1	VEHICLE	1553	n/a	n/a	-1	1.0	1.0	1	upper	Verdana.ttf
1978263	WORD	wordpools/wasnorm_wordpool_less_exclusions.txt	LTP289	ltpFR	6	9	-1	BILL	126	n/a	n/a	-1	1.0	1.0	1	upper	Verdana.ttf
1982489	WORD	wordpools/wasnorm_wordpool_less_exclusions.txt	LTP289	ltpFR	6	9	-1	PENNY	1045	n/a	n/a	-1	1.0	1.0	1	upper	Verdana.ttf
1986377	WORD	wordpools/wasnorm_wordpool_less_exclusions.txt	LTP289	ltpFR	6	9	-1	TOY	1492	n/a	n/a	-1	1.0	1.0	1	upper	Verdana.ttf
1990342	WORD	wordpools/wasnorm_wordpool_less_exclusions.txt	LTP289	ltpFR	6	9	-1	NOTE	958	n/a	n/a	-1	1.0	1.0	1	upper	Verdana.ttf
1996165	REC_START	n/a	LTP289	ltpFR	6	9	n/a	n/a	n/a	n/a	n/a	n/a	n/a	n/a	n/a	n/a	n/a
1997462	REC_WORD	wordpools/wasnorm_wordpool_less_exclusions.txt	LTP289	ltpFR	6	9	-1	BILL	126	n/a	n/a	-1	n/a	n/a	n/a	n/a	n/a
1998432	REC_WORD	wordpools/wasnorm_wordpool_less_exclusions.txt	LTP289	ltpFR	6	9	-1	PENNY	1045	n/a	n/a	-1	n/a	n/a	n/a	n/a	n/a
1999547	REC_WORD	wordpools/wasnorm_wordpool_less_exclusions.txt	LTP289	ltpFR	6	9	-1	NOTE	958	n/a	n/a	-1	n/a	n/a	n/a	n/a	n/a
2006505	REC_WORD	wordpools/wasnorm_wordpool_less_exclusions.txt	LTP289	ltpFR	6	9	-1	APPLE	33	n/a	n/a	-1	n/a	n/a	n/a	n/a	n/a
2007587	REC_WORD	wordpools/wasnorm_wordpool_less_exclusions.txt	LTP289	ltpFR	6	9	-1	FELLOW	558	n/a	n/a	-1	n/a	n/a	n/a	n/a	n/a
2009059	REC_WORD	wordpools/wasnorm_wordpool_less_exclusions.txt	LTP289	ltpFR	6	9	-1	MULE	931	n/a	n/a	-1	n/a	n/a	n/a	n/a	n/a
2010954	REC_WORD	wordpools/wasnorm_wordpool_less_exclusions.txt	LTP289	ltpFR	6	9	-1	HANDBAG	684	n/a	n/a	-1	n/a	n/a	n/a	n/a	n/a
2012704	REC_WORD	wordpools/wasnorm_wordpool_less_exclusions.txt	LTP289	ltpFR	6	9	-1	QUARTER	1148	n/a	n/a	-1	n/a	n/a	n/a	n/a	n/a
2014304	REC_WORD	wordpools/wasnorm_wordpool_less_exclusions.txt	LTP289	ltpFR	6	9	-1	DILL	465	n/a	n/a	-1	n/a	n/a	n/a	n/a	n/a
2018256	REC_WORD	wordpools/wasnorm_wordpool_less_exclusions.txt	LTP289	ltpFR	6	9	-1	MISTER	901	n/a	n/a	-1	n/a	n/a	n/a	n/a	n/a
2019818	REC_WORD	wordpools/wasnorm_wordpool_less_exclusions.txt	LTP289	ltpFR	6	9	-1	COBBLER	335	n/a	n/a	-1	n/a	n/a	n/a	n/a	n/a
2027382	REC_WORD	wordpools/wasnorm_wordpool_less_exclusions.txt	LTP289	ltpFR	6	9	-1	SUBWAY	1400	n/a	n/a	-1	n/a	n/a	n/a	n/a	n/a
2029378	REC_WORD	wordpools/wasnorm_wordpool_less_exclusions.txt	LTP289	ltpFR	6	9	-1	NEWSSTAND	949	n/a	n/a	-1	n/a	n/a	n/a	n/a	n/a
2030930	REC_WORD	wordpools/wasnorm_wordpool_less_exclusions.txt	LTP289	ltpFR	6	9	-1	VEHICLE	1553	n/a	n/a	-1	n/a	n/a	n/a	n/a	n/a
2110941	WORD	wordpools/wasnorm_wordpool_less_exclusions.txt	LTP289	ltpFR	6	10	0	SECRETARY	1265	n/a	n/a	1	0.422607421875	0.5869140625	0	lower	amplitud.ttf
2114980	WORD	wordpools/wasnorm_wordpool_less_exclusions.txt	LTP289	ltpFR	6	10	0	DOG	480	n/a	n/a	1	0.422607421875	0.5869140625	0	lower	amplitud.ttf
2119028	WORD	wordpools/wasnorm_wordpool_less_exclusions.txt	LTP289	ltpFR	6	10	0	DIARY	460	n/a	n/a	0	0.422607421875	0.5869140625	0	lower	amplitud.ttf
2123119	WORD	wordpools/wasnorm_wordpool_less_exclusions.txt	LTP289	ltpFR	6	10	0	CARPET	247	n/a	n/a	1	0.422607421875	0.5869140625	0	lower	amplitud.ttf
2127141	WORD	wordpools/wasnorm_wordpool_less_exclusions.txt	LTP289	ltpFR	6	10	0	GROUND	666	n/a	n/a	1	0.422607421875	0.5869140625	0	lower	amplitud.ttf
2131324	WORD	wordpools/wasnorm_wordpool_less_exclusions.txt	LTP289	ltpFR	6	10	0	COLLAR	345	n/a	n/a	0	0.422607421875	0.5869140625	0	lower	amplitud.ttf
2135449	WORD	wordpools/wasnorm_wordpool_less_exclusions.txt	LTP289	ltpFR	6	10	0	PAINT	1003	n/a	n/a	1	0.422607421875	0.5869140625	0	lower	amplitud.ttf
2139665	WORD	wordpools/wasnorm_wordpool_less_exclusions.txt	LTP289	ltpFR	6	10	0	ROOF	1205	n/a	n/a	1	0.422607421875	0.5869140625	0	lower	amplitud.ttf
2143570	WORD	wordpools/wasnorm_wordpool_less_exclusions.txt	LTP289	ltpFR	6	10	0	TWINE	1529	n/a	n/a	0	0.422607421875	0.5869140625	0	lower	amplitud.ttf
2147434	WORD	wordpools/wasnorm_wordpool_less_exclusions.txt	LTP289	ltpFR	6	10	0	SKETCH	1315	n/a	n/a	0	0.422607421875	0.5869140625	0	lower	amplitud.ttf
2151282	WORD	wordpools/wasnorm_wordpool_less_exclusions.txt	LTP289	ltpFR	6	10	0	CATTLE	261	n/a	n/a	1	0.422607421875	0.5869140625	0	lower	amplitud.ttf
2155498	WORD	wordpools/wasnorm_wordpool_less_exclusions.txt	LTP289	ltpFR	6	10	0	PRAIRIE	1118	n/a	n/a	1	0.422607421875	0.5869140625	0	lower	amplitud.ttf
2159630	WORD	wordpools/wasnorm_wordpool_less_exclusions.txt	LTP289	ltpFR	6	10	0	LIMOUSINE	824	n/a	n/a	1	0.422607421875	0.5869140625	0	lower	amplitud.ttf
2163774	WORD	wordpools/wasnorm_wordpool_less_exclusions.txt	LTP289	ltpFR	6	10	0	WHEEL	1603	n/a	n/a	1	0.422607421875	0.5869140625	0	lower	amplitud.ttf
2167822	WORD	wordpools/wasnorm_wordpool_less_exclusions.txt	LTP289	ltpFR	6	10	0	WAITRESS	1581	n/a	n/a	1	0.422607421875	0.5869140625	0	lower	amplitud.ttf
2171871	WORD	wordpools/wasnorm_wordpool_less_exclusions.txt	LTP289	ltpFR	6	10	0	GUEST	669	n/a	n/a	1	0.422607421875	0.5869140625	0	lower	amplitud.ttf
2177767	REC_START	n/a	LTP289	ltpFR	6	10	n/a	n/a	n/a	n/a	n/a	n/a	n/a	n/a	n/a	n/a	n/a
2178610	REC_WORD	wordpools/wasnorm_wordpool_less_exclusions.txt	LTP289	ltpFR	6	10	0	LIMOUSINE	824	n/a	n/a	1	n/a	n/a	n/a	n/a	n/a
2180010	REC_WORD	wordpools/wasnorm_wordpool_less_exclusions.txt	LTP289	ltpFR	6	10	0	WAITRESS	1581	n/a	n/a	1	n/a	n/a	n/a	n/a	n/a
2181261	REC_WORD	wordpools/wasnorm_wordpool_less_exclusions.txt	LTP289	ltpFR	6	10	0	GUEST	669	n/a	n/a	1	n/a	n/a	n/a	n/a	n/a
2182707	REC_WORD	wordpools/wasnorm_wordpool_less_exclusions.txt	LTP289	ltpFR	6	10	0	PRAIRIE	1118	n/a	n/a	1	n/a	n/a	n/a	n/a	n/a
2184012	REC_WORD	wordpools/wasnorm_wordpool_less_exclusions.txt	LTP289	ltpFR	6	10	0	CATTLE	261	n/a	n/a	1	n/a	n/a	n/a	n/a	n/a
2185470	REC_WORD	wordpools/wasnorm_wordpool_less_exclusions.txt	LTP289	ltpFR	6	10	0	ROOF	1205	n/a	n/a	1	n/a	n/a	n/a	n/a	n/a
2192596	REC_WORD	wordpools/wasnorm_wordpool_less_exclusions.txt	LTP289	ltpFR	6	10	0	DOG	480	n/a	n/a	1	n/a	n/a	n/a	n/a	n/a
2193870	REC_WORD	wordpools/wasnorm_wordpool_less_exclusions.txt	LTP289	ltpFR	6	10	0	COLLAR	345	n/a	n/a	0	n/a	n/a	n/a	n/a	n/a
2195301	REC_WORD	wordpools/wasnorm_wordpool_less_exclusions.txt	LTP289	ltpFR	6	10	0	DIARY	460	n/a	n/a	0	n/a	n/a	n/a	n/a	n/a
2196828	REC_WORD	wordpools/wasnorm_wordpool_less_exclusions.txt	LTP289	ltpFR	6	10	0	CARPET	247	n/a	n/a	1	n/a	n/a	n/a	n/a	n/a
2198202	REC_WORD	wordpools/wasnorm_wordpool_less_exclusions.txt	LTP289	ltpFR	6	10	0	GROUND	666	n/a	n/a	1	n/a	n/a	n/a	n/a	n/a
2199593	REC_WORD	wordpools/wasnorm_wordpool_less_exclusions.txt	LTP289	ltpFR	6	10	0	PAINT	1003	n/a	n/a	1	n/a	n/a	n/a	n/a	n/a
2208243	REC_WORD	wordpools/wasnorm_wordpool_less_exclusions.txt	LTP289	ltpFR	6	10	0	SECRETARY	1265	n/a	n/a	1	n/a	n/a	n/a	n/a	n/a
2223596	REC_WORD	wordpools/wasnorm_wordpool_less_exclusions.txt	LTP289	ltpFR	6	10	0	SKETCH	1315	n/a	n/a	0	n/a	n/a	n/a	n/a	n/a
2224596	REC_WORD_VV	wordpools/wasnorm_wordpool_less_exclusions.txt	LTP289	ltpFR	6	10	n/a	<>	-1	n/a	n/a	n/a	n/a	n/a	n/a	n/a	n/a
2232224	REC_WORD	wordpools/wasnorm_wordpool_less_exclusions.txt	LTP289	ltpFR	6	10	0	ROOF	1205	n/a	n/a	1	n/a	n/a	n/a	n/a	n/a
2282142	WORD	wordpools/wasnorm_wordpool_less_exclusions.txt	LTP289	ltpFR	6	11	1	SCARECROW	1245	n/a	n/a	0	0.57763671875	0.412841796875	1	upper	zerothre.ttf
2286107	WORD	wordpools/wasnorm_wordpool_less_exclusions.txt	LTP289	ltpFR	6	11	1	PAIL	1002	n/a	n/a	0	0.57763671875	0.412841796875	1	upper	zerothre.ttf
2290182	WORD	wordpools/wasnorm_wordpool_less_exclusions.txt	LTP289	ltpFR	6	11	0	WELL	1600	n/a	n/a	0	0.422607421875	0.5869140625	0	lower	amplitud.ttf
2294298	WORD	wordpools/wasnorm_wordpool_less_exclusions.txt	LTP289	ltpFR	6	11	0	METEOR	889	n/a	n/a	1	0.422607421875	0.5869140625	0	lower	amplitud.ttf
2298363	WORD	wordpools/wasnorm_wordpool_less_exclusions.txt	LTP289	ltpFR	6	11	0	OYSTER	995	n/a	n/a	0	0.422607421875	0.5869140625	0	lower	amplitud.ttf
2302535	WORD	wordpools/wasnorm_wordpool_less_exclusions.txt	LTP289	ltpFR	6	11	0	BOSS	152	n/a	n/a	1	0.422607421875	0.5869140625	0	lower	amplitud.ttf
2306460	WORD	wordpools/wasnorm_wordpool_less_exclusions.txt	LTP289	ltpFR	6	11	1	CELERY	266	n/a	n/a	0	0.57763671875	0.412841796875	1	upper	zerothre.ttf
2310566	WORD	wordpools/wasnorm_wordpool_less_exclusions.txt	LTP289	ltpFR	6	11	1	EMERALD	528	n/a	n/a	0	0.57763671875	0.412841796875	1	upper	zerothre.ttf
2314507	WORD	wordpools/wasnorm_wordpool_less_exclusions.txt	LTP289	ltpFR	6	11	1	BRUSH	182	n/a	n/a	0	0.57763671875	0.412841796875	1	upper	zerothre.ttf
2318523	WORD	wordpools/wasnorm_wordpool_less_exclusions.txt	LTP289	ltpFR	6	11	1	EARRING	514	n/a	n/a	0	0.57763671875	0.412841796875	1	upper	zerothre.ttf
2322454	WORD	wordpools/wasnorm_wordpool_less_exclusions.txt	LTP289	ltpFR	6	11	0	WINGS	1614	n/a	n/a	1	0.422607421875	0.5869140625	0	lower	amplitud.ttf
2326442	WORD	wordpools/wasnorm_wordpool_less_exclusions.txt	LTP289	ltpFR	6	11	0	PERISCOPE	1050	n/a	n/a	1	0.422607421875	0.5869140625	0	lower	amplitud.ttf
2330390	WORD	wordpools/wasnorm_wordpool_less_exclusions.txt	LTP289	ltpFR	6	11	0	ROBIN	1199	n/a	n/a	0	0.422607421875	0.5869140625	0	lower	amplitud.ttf
2334516	WORD	wordpools/wasnorm_wordpool_less_exclusions.txt	LTP289	ltpFR	6	11	0	BLUEJAY	141	n/a	n/a	0	0.422607421875	0.5869140625	0	lower	amplitud.ttf
2338621	WORD	wordpools/wasnorm_wordpool_less_exclusions.txt	LTP289	ltpFR	6	11	1	BUGLE	189	n/a	n/a	0	0.57763671875	0.412841796875	1	upper	zerothre.ttf
2342513	WORD	wordpools/wasnorm_wordpool_less_exclusions.txt	LTP289	ltpFR	6	11	1	CLAM	315	n/a	n/a	1	0.57763671875	0.412841796875	1	upper	zerothre.ttf
2348309	REC_START	n/a	LTP289	ltpFR	6	11	n/a	n/a	n/a	n/a	n/a	n/a	n/a	n/a	n/a	n/a	n/a
2349448	REC_WORD	wordpools/wasnorm_wordpool_less_exclusions.txt	LTP289	ltpFR	6	11	1	BUGLE	189	n/a	n/a	0	n/a	n/a	n/a	n/a	n/a
2350551	REC_WORD	wordpools/wasnorm_wordpool_less_exclusions.txt	LTP289	ltpFR	6	11	1	CLAM	315	n/a	n/a	1	n/a	n/a	n/a	n/a	n/a
2352002	REC_WORD	wordpools/wasnorm_wordpool_less_exclusions.txt	LTP289	ltpFR	6	11	0	OYSTER	995	n/a	n/a	0	n/a	n/a	n/a	n/a	n/a
2353968	REC_WORD	wordpools/wasnorm_wordpool_less_exclusions.txt	LTP289	ltpFR	6	11	0	METEOR	889	n/a	n/a	1	n/a	n/a	n/a	n/a	n/a
2355293	REC_WORD	wordpools/wasnorm_wordpool_less_exclusions.txt	LTP289	ltpFR	6	11	0	BOSS	152	n/a	n/a	1	n/a	n/a	n/a	n/a	n/a
2356520	REC_WORD	wordpools/wasnorm_wordpool_less_exclusions.txt	LTP289	ltpFR	6	11	0	WELL	1600	n/a	n/a	0	n/a	n/a	n/a	n/a	n/a
2357873	REC_WORD	wordpools/wasnorm_wordpool_less_exclusions.txt	LTP289	ltpFR	6	11	1	PAIL	1002	n/a	n/a	0	n/a	n/a	n/a	n/a	n/a
2359691	REC_WORD	wordpools/wasnorm_wordpool_less_exclusions.txt	LTP289	ltpFR	6	11	0	PERISCOPE	1050	n/a	n/a	1	n/a	n/a	n/a	n/a	n/a
2368468	REC_WORD	wordpools/wasnorm_wordpool_less_exclusions.txt	LTP289	ltpFR	6	11	0	ROBIN	1199	n/a	n/a	0	n/a	n/a	n/a	n/a	n/a
2369809	REC_WORD	wordpools/wasnorm_wordpool_less_exclusions.txt	LTP289	ltpFR	6	11	0	BLUEJAY	141	n/a	n/a	0	n/a	n/a	n/a	n/a	n/a
2436853	WORD	wordpools/wasnorm_wordpool_less_exclusions.txt	LTP289	ltpFR	6	12	-1	LENS	811	n/a	n/a	-1	1.0	1.0	1	upper	Verdana.ttf
2441042	WORD	wordpools/wasnorm_wordpool_less_exclusions.txt	LTP289	ltpFR	6	12	-1	KEEPER	769	n/a	n/a	-1	1.0	1.0	1	upper	Verdana.ttf
2444983	WORD	wordpools/wasnorm_wordpool_less_exclusions.txt	LTP289	ltpFR	6	12	-1	SAP	1233	n/a	n/a	-1	1.0	1.0	1	upper	Verdana.ttf
2449115	WORD	wordpools/wasnorm_wordpool_less_exclusions.txt	LTP289	ltpFR	6	12	-1	KETTLE	772	n/a	n/a	-1	1.0	1.0	1	upper	Verdana.ttf
2453230	WORD	wordpools/wasnorm_wordpool_less_exclusions.txt	LTP289	ltpFR	6	12	-1	GROCERIES	663	n/a	n/a	-1	1.0	1.0	1	upper	Verdana.ttf
2457319	WORD	wordpools/wasnorm_wordpool_less_exclusions.txt	LTP289	ltpFR	6	12	-1	BEEF	113	n/a	n/a	-1	1.0	1.0	1	upper	Verdana.ttf
2461528	WORD	wordpools/wasnorm_wordpool_less_exclusions.txt	LTP289	ltpFR	6	12	-1	BEAN	105	n/a	n/a	-1	1.0	1.0	1	upper	Verdana.ttf
2465735	WORD	wordpools/wasnorm_wordpool_less_exclusions.txt	LTP289	ltpFR	6	12	-1	WITCH	1617	n/a	n/a	-1	1.0	1.0	1	upper	Verdana.ttf
2469598	WORD	wordpools/wasnorm_wordpool_less_exclusions.txt	LTP289	ltpFR	6	12	-1	SPONGE	1355	n/a	n/a	-1	1.0	1.0	1	upper	Verdana.ttf
2473446	WORD	wordpools/wasnorm_wordpool_less_exclusions.txt	LTP289	ltpFR	6	12	-1	LAKE	796	n/a	n/a	-1	1.0	1.0	1	upper	Verdana.ttf
2477321	WORD	wordpools/wasnorm_wordpool_less_exclusions.txt	LTP289	ltpFR	6	12	-1	LUNCH	849	n/a	n/a	-1	1.0	1.0	1	upper	Verdana.ttf
2481393	WORD	wordpools/wasnorm_wordpool_less_exclusions.txt	LTP289	ltpFR	6	12	-1	MUG	930	n/a	n/a	-1	1.0	1.0	1	upper	Verdana.ttf
2485318	WORD	wordpools/wasnorm_wordpool_less_exclusions.txt	LTP289	ltpFR	6	12	-1	BROOM	178	n/a	n/a	-1	1.0	1.0	1	upper	Verdana.ttf
2489356	WORD	wordpools/wasnorm_wordpool_less_exclusions.txt	LTP289	ltpFR	6	12	-1	POLYESTER	1100	n/a	n/a	-1	1.0	1.0	1	upper	Verdana.ttf
2493422	WORD	wordpools/wasnorm_wordpool_less_exclusions.txt	LTP289	ltpFR	6	12	-1	ACORN	3	n/a	n/a	-1	1.0	1.0	1	upper	Verdana.ttf
2497263	WORD	wordpools/wasnorm_wordpool_less_exclusions.txt	LTP289	ltpFR	6	12	-1	LEAF	808	n/a	n/a	-1	1.0	1.0	1	upper	Verdana.ttf
2503070	REC_START	n/a	LTP289	ltpFR	6	12	n/a	n/a	n/a	n/a	n/a	n/a	n/a	n/a	n/a	n/a	n/a
2503882	REC_WORD	wordpools/wasnorm_wordpool_less_exclusions.txt	LTP289	ltpFR	6	12	-1	ACORN	3	n/a	n/a	-1	n/a	n/a	n/a	n/a	n/a
2505032	REC_WORD	wordpools/wasnorm_wordpool_less_exclusions.txt	LTP289	ltpFR	6	12	-1	LEAF	808	n/a	n/a	-1	n/a	n/a	n/a	n/a	n/a
2506501	REC_WORD	wordpools/wasnorm_wordpool_less_exclusions.txt	LTP289	ltpFR	6	12	-1	LUNCH	849	n/a	n/a	-1	n/a	n/a	n/a	n/a	n/a
2507873	REC_WORD	wordpools/wasnorm_wordpool_less_exclusions.txt	LTP289	ltpFR	6	12	-1	MUG	930	n/a	n/a	-1	n/a	n/a	n/a	n/a	n/a
2509803	REC_WORD	wordpools/wasnorm_wordpool_less_exclusions.txt	LTP289	ltpFR	6	12	-1	GROCERIES	663	n/a	n/a	-1	n/a	n/a	n/a	n/a	n/a
2511348	REC_WORD	wordpools/wasnorm_wordpool_less_exclusions.txt	LTP289	ltpFR	6	12	-1	KETTLE	772	n/a	n/a	-1	n/a	n/a	n/a	n/a	n/a
2515399	REC_WORD	wordpools/wasnorm_wordpool_less_exclusions.txt	LTP289	ltpFR	6	12	-1	LENS	811	n/a	n/a	-1	n/a	n/a	n/a	n/a	n/a
2521470	REC_WORD	wordpools/wasnorm_wordpool_less_exclusions.txt	LTP289	ltpFR	6	12	-1	KEEPER	769	n/a	n/a	-1	n/a	n/a	n/a	n/a	n/a
2572640	REC_WORD	wordpools/wasnorm_wordpool_less_exclusions.txt	LTP289	ltpFR	6	12	-1	POLYESTER	1100	n/a	n/a	-1	n/a	n/a	n/a	n/a	n/a
2635685	WORD	wordpools/wasnorm_wordpool_less_exclusions.txt	LTP289	ltpFR	6	13	1	PILL	1068	n/a	n/a	0	0.57763671875	0.412841796875	1	upper	zerothre.ttf
2639824	WORD	wordpools/wasnorm_wordpool_less_exclusions.txt	LTP289	ltpFR	6	13	1	WEED	1599	n/a	n/a	0	0.57763671875	0.412841796875	1	upper	zerothre.ttf
2643883	WORD	wordpools/wasnorm_wordpool_less_exclusions.txt	LTP289	ltpFR	6	13	1	TICKET	1464	n/a	n/a	0	0.57763671875	0.412841796875	1	upper	zerothre.ttf
2648015	WORD	wordpools/wasnorm_wordpool_less_exclusions.txt	LTP289	ltpFR	6	13	1	PILOT	1070	n/a	n/a	1	0.57763671875	0.412841796875	1	upper	zerothre.ttf
2652213	WORD	wordpools/wasnorm_wordpool_less_exclusions.txt	LTP289	ltpFR	6	13	1	DAD	433	n/a	n/a	1	0.57763671875	0.412841796875	1	upper	zerothre.ttf
2656396	WORD	wordpools/wasnorm_wordpool_less_exclusions.txt	LTP289	ltpFR	6	13	1	MARSH	874	n/a	n/a	0	0.57763671875	0.412841796875	1	upper	zerothre.ttf
2660411	WORD	wordpools/wasnorm_wordpool_less_exclusions.txt	LTP289	ltpFR	6	13	0	WASHCLOTH	1591	n/a	n/a	0	0.422607421875	0.5869140625	0	lower	amplitud.ttf
2664316	WORD	wordpools/wasnorm_wordpool_less_exclusions.txt	LTP289	ltpFR	6	13	0	PENGUIN	1044	n/a	n/a	1	0.422607421875	0.5869140625	0	lower	amplitud.ttf
2668297	WORD	wordpools/wasnorm_wordpool_less_exclusions.txt	LTP289	ltpFR	6	13	1	OMELET	976	n/a	n/a	0	0.57763671875	0.412841796875	1	upper	zerothre.ttf
2672513	WORD	wordpools/wasnorm_wordpool_less_exclusions.txt	LTP289	ltpFR	6	13	1	LIPSTICK	829	n/a	n/a	0	0.57763671875	0.412841796875	1	upper	zerothre.ttf
2676662	WORD	wordpools/wasnorm_wordpool_less_exclusions.txt	LTP289	ltpFR	6	13	0	DAUGHTER	442	n/a	n/a	1	0.422607421875	0.5869140625	0	lower	amplitud.ttf
2680503	WORD	wordpools/wasnorm_wordpool_less_exclusions.txt	LTP289	ltpFR	6	13	0	PERSONNEL	1053	n/a	n/a	1	0.422607421875	0.5869140625	0	lower	amplitud.ttf
2684575	WORD	wordpools/wasnorm_wordpool_less_exclusions.txt	LTP289	ltpFR	6	13	0	TURNIP	1521	n/a	n/a	0	0.422607421875	0.5869140625	0	lower	amplitud.ttf
2688657	WORD	wordpools/wasnorm_wordpool_less_exclusions.txt	LTP289	ltpFR	6	13	0	PARROT	1015	n/a	n/a	0	0.422607421875	0.5869140625	0	lower	amplitud.ttf
2692566	WORD	wordpools/wasnorm_wordpool_less_exclusions.txt	LTP289	ltpFR	6	13	0	YOLK	1633	n/a	n/a	0	0.422607421875	0.5869140625	0	lower	amplitud.ttf
2696447	WORD	wordpools/wasnorm_wordpool_less_exclusions.txt	LTP289	ltpFR	6	13	0	EGG	518	n/a	n/a	0	0.422607421875	0.5869140625	0	lower	amplitud.ttf
2702119	REC_START	n/a	LTP289	ltpFR	6	13	n/a	n/a	n/a	n/a	n/a	n/a	n/a	n/a	n/a	n/a	n/a
2703016	REC_WORD	wordpools/wasnorm_wordpool_less_exclusions.txt	LTP289	ltpFR	6	13	0	YOLK	1633	n/a	n/a	0	n/a	n/a	n/a	n/a	n/a
2703936	REC_WORD	wordpools/wasnorm_wordpool_less_exclusions.txt	LTP289	ltpFR	6	13	0	EGG	518	n/a	n/a	0	n/a	n/a	n/a	n/a	n/a
2704954	REC_WORD	wordpools/wasnorm_wordpool_less_exclusions.txt	LTP289	ltpFR	6	13	1	OMELET	976	n/a	n/a	0	n/a	n/a	n/a	n/a	n/a
2706928	REC_WORD	wordpools/wasnorm_wordpool_less_exclusions.txt	LTP289	ltpFR	6	13	1	LIPSTICK	829	n/a	n/a	0	n/a	n/a	n/a	n/a	n/a
2708395	REC_WORD	wordpools/wasnorm_wordpool_less_exclusions.txt	LTP289	ltpFR	6	13	0	PERSONNEL	1053	n/a	n/a	1	n/a	n/a	n/a	n/a	n/a
2711849	REC_WORD	wordpools/wasnorm_wordpool_less_exclusions.txt	LTP289	ltpFR	6	13	1	TICKET	1464	n/a	n/a	0	n/a	n/a	n/a	n/a	n/a
2712759	REC_WORD	wordpools/wasnorm_wordpool_less_exclusions.txt	LTP289	ltpFR	6	13	1	WEED	1599	n/a	n/a	0	n/a	n/a	n/a	n/a	n/a
2715330	REC_WORD	wordpools/wasnorm_wordpool_less_exclusions.txt	LTP289	ltpFR	6	13	1	MARSH	874	n/a	n/a	0	n/a	n/a	n/a	n/a	n/a
2716728	REC_WORD	wordpools/wasnorm_wordpool_less_exclusions.txt	LTP289	ltpFR	6	13	1	PILL	1068	n/a	n/a	0	n/a	n/a	n/a	n/a	n/a
2718043	REC_WORD	wordpools/wasnorm_wordpool_less_exclusions.txt	LTP289	ltpFR	6	13	1	PILOT	1070	n/a	n/a	1	n/a	n/a	n/a	n/a	n/a
2719199	REC_WORD	wordpools/wasnorm_wordpool_less_exclusions.txt	LTP289	ltpFR	6	13	1	DAD	433	n/a	n/a	1	n/a	n/a	n/a	n/a	n/a
2720332	REC_WORD	wordpools/wasnorm_wordpool_less_exclusions.txt	LTP289	ltpFR	6	13	0	DAUGHTER	442	n/a	n/a	1	n/a	n/a	n/a	n/a	n/a
2774571	REC_WORD	wordpools/wasnorm_wordpool_less_exclusions.txt	LTP289	ltpFR	6	13	0	TURNIP	1521	n/a	n/a	0	n/a	n/a	n/a	n/a	n/a
2802463	WORD	wordpools/wasnorm_wordpool_less_exclusions.txt	LTP289	ltpFR	6	14	-1	WINE	1613	n/a	n/a	-1	1.0	1.0	1	upper	Verdana.ttf
2806311	WORD	wordpools/wasnorm_wordpool_less_exclusions.txt	LTP289	ltpFR	6	14	-1	HOOP	716	n/a	n/a	-1	1.0	1.0	1	upper	Verdana.ttf
2810343	WORD	wordpools/wasnorm_wordpool_less_exclusions.txt	LTP289	ltpFR	6	14	-1	ROSE	1212	n/a	n/a	-1	1.0	1.0	1	upper	Verdana.ttf
2814348	WORD	wordpools/wasnorm_wordpool_less_exclusions.txt	LTP289	ltpFR	6	14	-1	POET	1095	n/a	n/a	-1	1.0	1.0	1	upper	Verdana.ttf
2818390	WORD	wordpools/wasnorm_wordpool_less_exclusions.txt	LTP289	ltpFR	6	14	-1	BOOK	149	n/a	n/a	-1	1.0	1.0	1	upper	Verdana.ttf
2822595	WORD	wordpools/wasnorm_wordpool_less_exclusions.txt	LTP289	ltpFR	6	14	-1	SEA	1259	n/a	n/a	-1	1.0	1.0	1	upper	Verdana.ttf
2826460	WORD	wordpools/wasnorm_wordpool_less_exclusions.txt	LTP289	ltpFR	6	14	-1	SARDINE	1235	n/a	n/a	-1	1.0	1.0	1	upper	Verdana.ttf
2830502	WORD	wordpools/wasnorm_wordpool_less_exclusions.txt	LTP289	ltpFR	6	14	-1	BEAD	103	n/a	n/a	-1	1.0	1.0	1	upper	Verdana.ttf
2834350	WORD	wordpools/wasnorm_wordpool_less_exclusions.txt	LTP289	ltpFR	6	14	-1	RUM	1217	n/a	n/a	-1	1.0	1.0	1	upper	Verdana.ttf
2838489	WORD	wordpools/wasnorm_wordpool_less_exclusions.txt	LTP289	ltpFR	6	14	-1	STAMP	1370	n/a	n/a	-1	1.0	1.0	1	upper	Verdana.ttf
2842547	WORD	wordpools/wasnorm_wordpool_less_exclusions.txt	LTP289	ltpFR	6	14	-1	ENGINEER	536	n/a	n/a	-1	1.0	1.0	1	upper	Verdana.ttf
2846485	WORD	wordpools/wasnorm_wordpool_less_exclusions.txt	LTP289	ltpFR	6	14	-1	SHOWER	1296	n/a	n/a	-1	1.0	1.0	1	upper	Verdana.ttf
2850634	WORD	wordpools/wasnorm_wordpool_less_exclusions.txt	LTP289	ltpFR	6	14	-1	DIME	466	n/a	n/a	-1	1.0	1.0	1	upper	Verdana.ttf
2854811	WORD	wordpools/wasnorm_wordpool_less_exclusions.txt	LTP289	ltpFR	6	14	-1	BANK	83	n/a	n/a	-1	1.0	1.0	1	upper	Verdana.ttf
2858967	WORD	wordpools/wasnorm_wordpool_less_exclusions.txt	LTP289	ltpFR	6	14	-1	TOURIST	1488	n/a	n/a	-1	1.0	1.0	1	upper	Verdana.ttf
2862949	WORD	wordpools/wasnorm_wordpool_less_exclusions.txt	LTP289	ltpFR	6	14	-1	BATHTUB	100	n/a	n/a	-1	1.0	1.0	1	upper	Verdana.ttf
2868720	REC_START	n/a	LTP289	ltpFR	6	14	n/a	n/a	n/a	n/a	n/a	n/a	n/a	n/a	n/a	n/a	n/a
2869522	REC_WORD	wordpools/wasnorm_wordpool_less_exclusions.txt	LTP289	ltpFR	6	14	-1	TOURIST	1488	n/a	n/a	-1	n/a	n/a	n/a	n/a	n/a
2870757	REC_WORD	wordpools/wasnorm_wordpool_less_exclusions.txt	LTP289	ltpFR	6	14	-1	BATHTUB	100	n/a	n/a	-1	n/a	n/a	n/a	n/a	n/a
2872340	REC_WORD	wordpools/wasnorm_wordpool_less_exclusions.txt	LTP289	ltpFR	6	14	-1	POET	1095	n/a	n/a	-1	n/a	n/a	n/a	n/a	n/a
2873709	REC_WORD	wordpools/wasnorm_wordpool_less_exclusions.txt	LTP289	ltpFR	6	14	-1	BOOK	149	n/a	n/a	-1	n/a	n/a	n/a	n/a	n/a
2874812	REC_WORD	wordpools/wasnorm_wordpool_less_exclusions.txt	LTP289	ltpFR	6	14	-1	HOOP	716	n/a	n/a	-1	n/a	n/a	n/a	n/a	n/a
2876413	REC_WORD	wordpools/wasnorm_wordpool_less_exclusions.txt	LTP289	ltpFR	6	14	-1	ROSE	1212	n/a	n/a	-1	n/a	n/a	n/a	n/a	n/a
2878532	REC_WORD	wordpools/wasnorm_wordpool_less_exclusions.txt	LTP289	ltpFR	6	14	-1	SARDINE	1235	n/a	n/a	-1	n/a	n/a	n/a	n/a	n/a
2880235	REC_WORD	wordpools/wasnorm_wordpool_less_exclusions.txt	LTP289	ltpFR	6	14	-1	SEA	1259	n/a	n/a	-1	n/a	n/a	n/a	n/a	n/a
2883085	REC_WORD	wordpools/wasnorm_wordpool_less_exclusions.txt	LTP289	ltpFR	6	14	-1	ENGINEER	536	n/a	n/a	-1	n/a	n/a	n/a	n/a	n/a
2885180	REC_WORD	wordpools/wasnorm_wordpool_less_exclusions.txt	LTP289	ltpFR	6	14	-1	BEAD	103	n/a	n/a	-1	n/a	n/a	n/a	n/a	n/a
2929065	REC_WORD	wordpools/wasnorm_wordpool_less_exclusions.txt	LTP289	ltpFR	6	14	-1	WINE	1613	n/a	n/a	-1	n/a	n/a	n/a	n/a	n/a
2966481	WORD	wordpools/wasnorm_wordpool_less_exclusions.txt	LTP289	ltpFR	6	15	0	COP	376	n/a	n/a	1	0.422607421875	0.5869140625	0	lower	amplitud.ttf
2970336	WORD	wordpools/wasnorm_wordpool_less_exclusions.txt	LTP289	ltpFR	6	15	0	PARCEL	1012	n/a	n/a	0	0.422607421875	0.5869140625	0	lower	amplitud.ttf
2974227	WORD	wordpools/wasnorm_wordpool_less_exclusions.txt	LTP289	ltpFR	6	15	0	MAILMAN	858	n/a	n/a	1	0.422607421875	0.5869140625	0	lower	amplitud.ttf
2978332	WORD	wordpools/wasnorm_wordpool_less_exclusions.txt	LTP289	ltpFR	6	15	0	ROOMMATE	1207	n/a	n/a	1	0.422607421875	0.5869140625	0	lower	amplitud.ttf
2982331	WORD	wordpools/wasnorm_wordpool_less_exclusions.txt	LTP289	ltpFR	6	15	0	PEOPLE	1046	n/a	n/a	1	0.422607421875	0.5869140625	0	lower	amplitud.ttf
2986339	WORD	wordpools/wasnorm_wordpool_less_exclusions.txt	LTP289	ltpFR	6	15	0	RULER	1216	n/a	n/a	0	0.422607421875	0.5869140625	0	lower	amplitud.ttf
2990354	WORD	wordpools/wasnorm_wordpool_less_exclusions.txt	LTP289	ltpFR	6	15	0	STAFF	1365	n/a	n/a	1	0.422607421875	0.5869140625	0	lower	amplitud.ttf
2994443	WORD	wordpools/wasnorm_wordpool_less_exclusions.txt	LTP289	ltpFR	6	15	0	BANJO	82	n/a	n/a	1	0.422607421875	0.5869140625	0	lower	amplitud.ttf
2998425	WORD	wordpools/wasnorm_wordpool_less_exclusions.txt	LTP289	ltpFR	6	15	0	GAVEL	627	n/a	n/a	1	0.422607421875	0.5869140625	0	lower	amplitud.ttf
3002617	WORD	wordpools/wasnorm_wordpool_less_exclusions.txt	LTP289	ltpFR	6	15	0	COMMITTEE	355	n/a	n/a	1	0.422607421875	0.5869140625	0	lower	amplitud.ttf
3006632	WORD	wordpools/wasnorm_wordpool_less_exclusions.txt	LTP289	ltpFR	6	15	0	TICK	1463	n/a	n/a	0	0.422607421875	0.5869140625	0	lower	amplitud.ttf
3010554	WORD	wordpools/wasnorm_wordpool_less_exclusions.txt	LTP289	ltpFR	6	15	0	BLACKBERRY	132	n/a	n/a	0	0.422607421875	0.5869140625	0	lower	amplitud.ttf
3014713	WORD	wordpools/wasnorm_wordpool_less_exclusions.txt	LTP289	ltpFR	6	15	0	FRUIT	610	n/a	n/a	0	0.422607421875	0.5869140625	0	lower	amplitud.ttf
3018561	WORD	wordpools/wasnorm_wordpool_less_exclusions.txt	LTP289	ltpFR	6	15	0	FOOT	590	n/a	n/a	0	0.422607421875	0.5869140625	0	lower	amplitud.ttf
3022784	WORD	wordpools/wasnorm_wordpool_less_exclusions.txt	LTP289	ltpFR	6	15	0	CANARY	227	n/a	n/a	0	0.422607421875	0.5869140625	0	lower	amplitud.ttf
3026631	WORD	wordpools/wasnorm_wordpool_less_exclusions.txt	LTP289	ltpFR	6	15	0	SHERIFF	1284	n/a	n/a	1	0.422607421875	0.5869140625	0	lower	amplitud.ttf
3032297	REC_START	n/a	LTP289	ltpFR	6	15	n/a	n/a	n/a	n/a	n/a	n/a	n/a	n/a	n/a	n/a	n/a
3033263	REC_WORD	wordpools/wasnorm_wordpool_less_exclusions.txt	LTP289	ltpFR	6	15	0	SHERIFF	1284	n/a	n/a	1	n/a	n/a	n/a	n/a	n/a
3034743	REC_WORD	wordpools/wasnorm_wordpool_less_exclusions.txt	LTP289	ltpFR	6	15	0	COP	376	n/a	n/a	1	n/a	n/a	n/a	n/a	n/a
3035711	REC_WORD	wordpools/wasnorm_wordpool_less_exclusions.txt	LTP289	ltpFR	6	15	0	PARCEL	1012	n/a	n/a	0	n/a	n/a	n/a	n/a	n/a
3037127	REC_WORD	wordpools/wasnorm_wordpool_less_exclusions.txt	LTP289	ltpFR	6	15	0	MAILMAN	858	n/a	n/a	1	n/a	n/a	n/a	n/a	n/a
3038435	REC_WORD	wordpools/wasnorm_wordpool_less_exclusions.txt	LTP289	ltpFR	6	15	0	ROOMMATE	1207	n/a	n/a	1	n/a	n/a	n/a	n/a	n/a
3039853	REC_WORD	wordpools/wasnorm_wordpool_less_exclusions.txt	LTP289	ltpFR	6	15	0	PEOPLE	1046	n/a	n/a	1	n/a	n/a	n/a	n/a	n/a
3042800	REC_WORD	wordpools/wasnorm_wordpool_less_exclusions.txt	LTP289	ltpFR	6	15	0	TICK	1463	n/a	n/a	0	n/a	n/a	n/a	n/a	n/a
3045167	REC_WORD	wordpools/wasnorm_wordpool_less_exclusions.txt	LTP289	ltpFR	6	15	0	FOOT	590	n/a	n/a	0	n/a	n/a	n/a	n/a	n/a
3049647	REC_WORD	wordpools/wasnorm_wordpool_less_exclusions.txt	LTP289	ltpFR	6	15	0	BANJO	82	n/a	n/a	1	n/a	n/a	n/a	n/a	n/a
3054034	REC_WORD	wordpools/wasnorm_wordpool_less_exclusions.txt	LTP289	ltpFR	6	15	0	BLACKBERRY	132	n/a	n/a	0	n/a	n/a	n/a	n/a	n/a
3055335	REC_WORD	wordpools/wasnorm_wordpool_less_exclusions.txt	LTP289	ltpFR	6	15	0	FRUIT	610	n/a	n/a	0	n/a	n/a	n/a	n/a	n/a
3135150	WORD	wordpools/wasnorm_wordpool_less_exclusions.txt	LTP289	ltpFR	6	16	1	SNAKE	1333	n/a	n/a	1	0.57763671875	0.412841796875	1	upper	zerothre.ttf
3139049	WORD	wordpools/wasnorm_wordpool_less_exclusions.txt	LTP289	ltpFR	6	16	1	CUSHION	428	n/a	n/a	0	0.57763671875	0.412841796875	1	upper	zerothre.ttf
3143071	WORD	wordpools/wasnorm_wordpool_less_exclusions.txt	LTP289	ltpFR	6	16	1	REPORT	1184	n/a	n/a	0	0.57763671875	0.412841796875	1	upper	zerothre.ttf
3147286	WORD	wordpools/wasnorm_wordpool_less_exclusions.txt	LTP289	ltpFR	6	16	1	GARDEN	623	n/a	n/a	0	0.57763671875	0.412841796875	1	upper	zerothre.ttf
3151401	WORD	wordpools/wasnorm_wordpool_less_exclusions.txt	LTP289	ltpFR	6	16	1	STOMACH	1384	n/a	n/a	0	0.57763671875	0.412841796875	1	upper	zerothre.ttf
3155376	WORD	wordpools/wasnorm_wordpool_less_exclusions.txt	LTP289	ltpFR	6	16	1	KIDNEY	776	n/a	n/a	0	0.57763671875	0.412841796875	1	upper	zerothre.ttf
3159214	WORD	wordpools/wasnorm_wordpool_less_exclusions.txt	LTP289	ltpFR	6	16	1	GEM	629	n/a	n/a	0	0.57763671875	0.412841796875	1	upper	zerothre.ttf
3163089	WORD	wordpools/wasnorm_wordpool_less_exclusions.txt	LTP289	ltpFR	6	16	1	REFEREE	1178	n/a	n/a	1	0.57763671875	0.412841796875	1	upper	zerothre.ttf
3167161	WORD	wordpools/wasnorm_wordpool_less_exclusions.txt	LTP289	ltpFR	6	16	1	RAISIN	1163	n/a	n/a	0	0.57763671875	0.412841796875	1	upper	zerothre.ttf
3171176	WORD	wordpools/wasnorm_wordpool_less_exclusions.txt	LTP289	ltpFR	6	16	1	CEREAL	272	n/a	n/a	0	0.57763671875	0.412841796875	1	upper	zerothre.ttf
3175035	WORD	wordpools/wasnorm_wordpool_less_exclusions.txt	LTP289	ltpFR	6	16	1	CHEF	290	n/a	n/a	1	0.57763671875	0.412841796875	1	upper	zerothre.ttf
3179206	WORD	wordpools/wasnorm_wordpool_less_exclusions.txt	LTP289	ltpFR	6	16	1	BANNER	85	n/a	n/a	0	0.57763671875	0.412841796875	1	upper	zerothre.ttf
3183231	WORD	wordpools/wasnorm_wordpool_less_exclusions.txt	LTP289	ltpFR	6	16	1	PATRIOT	1026	n/a	n/a	1	0.57763671875	0.412841796875	1	upper	zerothre.ttf
3187220	WORD	wordpools/wasnorm_wordpool_less_exclusions.txt	LTP289	ltpFR	6	16	1	VOLLEYBALL	1576	n/a	n/a	0	0.57763671875	0.412841796875	1	upper	zerothre.ttf
3191329	WORD	wordpools/wasnorm_wordpool_less_exclusions.txt	LTP289	ltpFR	6	16	1	RICE	1190	n/a	n/a	0	0.57763671875	0.412841796875	1	upper	zerothre.ttf
3195334	WORD	wordpools/wasnorm_wordpool_less_exclusions.txt	LTP289	ltpFR	6	16	1	BULLETIN	195	n/a	n/a	0	0.57763671875	0.412841796875	1	upper	zerothre.ttf
3201133	REC_START	n/a	LTP289	ltpFR	6	16	n/a	n/a	n/a	n/a	n/a	n/a	n/a	n/a	n/a	n/a	n/a
3202135	REC_WORD	wordpools/wasnorm_wordpool_less_exclusions.txt	LTP289	ltpFR	6	16	1	SNAKE	1333	n/a	n/a	1	n/a	n/a	n/a	n/a	n/a
3203612	REC_WORD	wordpools/wasnorm_wordpool_less_exclusions.txt	LTP289	ltpFR	6	16	1	CUSHION	428	n/a	n/a	0	n/a	n/a	n/a	n/a	n/a
3204692	REC_WORD	wordpools/wasnorm_wordpool_less_exclusions.txt	LTP289	ltpFR	6	16	1	REPORT	1184	n/a	n/a	0	n/a	n/a	n/a	n/a	n/a
3206254	REC_WORD	wordpools/wasnorm_wordpool_less_exclusions.txt	LTP289	ltpFR	6	16	1	GARDEN	623	n/a	n/a	0	n/a	n/a	n/a	n/a	n/a
3208069	REC_WORD	wordpools/wasnorm_wordpool_less_exclusions.txt	LTP289	ltpFR	6	16	1	STOMACH	1384	n/a	n/a	0	n/a	n/a	n/a	n/a	n/a
3209654	REC_WORD	wordpools/wasnorm_wordpool_less_exclusions.txt	LTP289	ltpFR	6	16	1	KIDNEY	776	n/a	n/a	0	n/a	n/a	n/a	n/a	n/a
3211319	REC_WORD	wordpools/wasnorm_wordpool_less_exclusions.txt	LTP289	ltpFR	6	16	1	REFEREE	1178	n/a	n/a	1	n/a	n/a	n/a	n/a	n/a
3221398	REC_WORD	wordpools/wasnorm_wordpool_less_exclusions.txt	LTP289	ltpFR	6	16	1	GEM	629	n/a	n/a	0	n/a	n/a	n/a	n/a	n/a
3225479	REC_WORD	wordpools/wasnorm_wordpool_less_exclusions.txt	LTP289	ltpFR	6	16	1	RAISIN	1163	n/a	n/a	0	n/a	n/a	n/a	n/a	n/a
3231655	REC_WORD	wordpools/wasnorm_wordpool_less_exclusions.txt	LTP289	ltpFR	6	16	1	CEREAL	272	n/a	n/a	0	n/a	n/a	n/a	n/a	n/a
3650953	REC_START	n/a	LTP289	ltpFR	6	1	n/a	n/a	n/a	n/a	n/a	n/a	n/a	n/a	n/a	n/a	n/a
3651012	RECOG_TARGET	n/a	LTP289	ltpFR	6	1	-1	BEAN	105	0	1	-1	n/a	n/a	n/a	n/a	n/a
3652998	RECOG_RESP	n/a	LTP289	ltpFR	6	1	-1	BEAN	105	0	n/a	-1	n/a	n/a	n/a	n/a	n/a
3654293	RECOG_CONF	n/a	LTP289	ltpFR	6	1	-1	BEAN	105	n/a	1	-1	n/a	n/a	n/a	n/a	n/a
3656807	RECOG_TARGET	n/a	LTP289	ltpFR	6	1	0	WHEEL	1603	1	4	1	n/a	n/a	n/a	n/a	n/a
3657473	RECOG_RESP	n/a	LTP289	ltpFR	6	1	0	WHEEL	1603	1	n/a	1	n/a	n/a	n/a	n/a	n/a
3658993	RECOG_CONF	n/a	LTP289	ltpFR	6	1	0	WHEEL	1603	n/a	4	1	n/a	n/a	n/a	n/a	n/a
3661040	RECOG_TARGET	n/a	LTP289	ltpFR	6	1	-1	DIME	466	1	2	-1	n/a	n/a	n/a	n/a	n/a
3662148	RECOG_RESP	n/a	LTP289	ltpFR	6	1	-1	DIME	466	1	n/a	-1	n/a	n/a	n/a	n/a	n/a
3663513	RECOG_CONF	n/a	LTP289	ltpFR	6	1	-1	DIME	466	n/a	2	-1	n/a	n/a	n/a	n/a	n/a
3665683	RECOG_LURE	n/a	LTP289	ltpFR	6	1	n/a	BREAD	170	0	2	n/a	n/a	n/a	n/a	n/a	n/a
3666663	RECOG_RESP	n/a	LTP289	ltpFR	6	1	n/a	BREAD	170	0	n/a	n/a	n/a	n/a	n/a	n/a	n/a
3668303	RECOG_CONF	n/a	LTP289	ltpFR	6	1	n/a	BREAD	170	n/a	2	n/a	n/a	n/a	n/a	n/a	n/a
3670417	RECOG_TARGET	n/a	LTP289	ltpFR	6	1	0	PERISCOPE	1050	1	5	1	n/a	n/a	n/a	n/a	n/a
3671213	RECOG_RESP	n/a	LTP289	ltpFR	6	1	0	PERISCOPE	1050	1	n/a	1	n/a	n/a	n/a	n/a	n/a
3672543	RECOG_CONF	n/a	LTP289	ltpFR	6	1	0	PERISCOPE	1050	n/a	5	1	n/a	n/a	n/a	n/a	n/a
3674791	RECOG_TARGET	n/a	LTP289	ltpFR	6	1	-1	BILL	126	1	5	-1	n/a	n/a	n/a	n/a	n/a
3675538	RECOG_RESP	n/a	LTP289	ltpFR	6	1	-1	BILL	126	1	n/a	-1	n/a	n/a	n/a	n/a	n/a
3677013	RECOG_CONF	n/a	LTP289	ltpFR	6	1	-1	BILL	126	n/a	5	-1	n/a	n/a	n/a	n/a	n/a
3679241	RECOG_TARGET	n/a	LTP289	ltpFR	6	1	0	CHAIRPERSON	275	1	4	1	n/a	n/a	n/a	n/a	n/a
3680103	RECOG_RESP	n/a	LTP289	ltpFR	6	1	0	CHAIRPERSON	275	1	n/a	1	n/a	n/a	n/a	n/a	n/a
3681343	RECOG_CONF	n/a	LTP289	ltpFR	6	1	0	CHAIRPERSON	275	n/a	4	1	n/a	n/a	n/a	n/a	n/a
3683574	RECOG_LURE	n/a	LTP289	ltpFR	6	1	n/a	TYPIST	1532	0	3	n/a	n/a	n/a	n/a	n/a	n/a
3684418	RECOG_RESP	n/a	LTP289	ltpFR	6	1	n/a	TYPIST	1532	0	n/a	n/a	n/a	n/a	n/a	n/a	n/a
3685723	RECOG_CONF	n/a	LTP289	ltpFR	6	1	n/a	TYPIST	1532	n/a	3	n/a	n/a	n/a	n/a	n/a	n/a
3687868	RECOG_LURE	n/a	LTP289	ltpFR	6	1	n/a	SPICE	1350	0	2	n/a	n/a	n/a	n/a	n/a	n/a
3688798	RECOG_RESP	n/a	LTP289	ltpFR	6	1	n/a	SPICE	1350	0	n/a	n/a	n/a	n/a	n/a	n/a	n/a
3690263	RECOG_CONF	n/a	LTP289	ltpFR	6	1	n/a	SPICE	1350	n/a	2	n/a	n/a	n/a	n/a	n/a	n/a
3692333	RECOG_LURE	n/a	LTP289	ltpFR	6	1	n/a	DEER	444	0	1	n/a	n/a	n/a	n/a	n/a	n/a
3693603	RECOG_RESP	n/a	LTP289	ltpFR	6	1	n/a	DEER	444	0	n/a	n/a	n/a	n/a	n/a	n/a	n/a
3695063	RECOG_CONF	n/a	LTP289	ltpFR	6	1	n/a	DEER	444	n/a	1	n/a	n/a	n/a	n/a	n/a	n/a
3697285	RECOG_TARGET	n/a	LTP289	ltpFR	6	1	1	CLAM	315	1	4	1	n/a	n/a	n/a	n/a	n/a
3697953	RECOG_RESP	n/a	LTP289	ltpFR	6	1	1	CLAM	315	1	n/a	1	n/a	n/a	n/a	n/a	n/a
3699503	RECOG_CONF	n/a	LTP289	ltpFR	6	1	1	CLAM	315	n/a	4	1	n/a	n/a	n/a	n/a	n/a
3701726	RECOG_TARGET	n/a	LTP289	ltpFR	6	1	1	KANGAROO	768	1	5	1	n/a	n/a	n/a	n/a	n/a
3702383	RECOG_RESP	n/a	LTP289	ltpFR	6	1	1	KANGAROO	768	1	n/a	1	n/a	n/a	n/a	n/a	n/a
3703563	RECOG_CONF	n/a	LTP289	ltpFR	6	1	1	KANGAROO	768	n/a	5	1	n/a	n/a	n/a	n/a	n/a
3705835	RECOG_TARGET	n/a	LTP289	ltpFR	6	1	0	CRAB	397	1	4	0	n/a	n/a	n/a	n/a	n/a
3706613	RECOG_RESP	n/a	LTP289	ltpFR	6	1	0	CRAB	397	1	n/a	0	n/a	n/a	n/a	n/a	n/a
3707993	RECOG_CONF	n/a	LTP289	ltpFR	6	1	0	CRAB	397	n/a	4	0	n/a	n/a	n/a	n/a	n/a
3710124	RECOG_TARGET	n/a	LTP289	ltpFR	6	1	1	HERD	705	1	5	1	n/a	n/a	n/a	n/a	n/a
3710788	RECOG_RESP	n/a	LTP289	ltpFR	6	1	1	HERD	705	1	n/a	1	n/a	n/a	n/a	n/a	n/a
3712353	RECOG_CONF	n/a	LTP289	ltpFR	6	1	1	HERD	705	n/a	5	1	n/a	n/a	n/a	n/a	n/a
3714607	RECOG_TARGET	n/a	LTP289	ltpFR	6	1	1	REPORT	1184	1	3	0	n/a	n/a	n/a	n/a	n/a
3716093	RECOG_RESP	n/a	LTP289	ltpFR	6	1	1	REPORT	1184	1	n/a	0	n/a	n/a	n/a	n/a	n/a
3717623	RECOG_CONF	n/a	LTP289	ltpFR	6	1	1	REPORT	1184	n/a	3	0	n/a	n/a	n/a	n/a	n/a
3719636	RECOG_TARGET	n/a	LTP289	ltpFR	6	1	1	WEED	1599	1	4	0	n/a	n/a	n/a	n/a	n/a
3720413	RECOG_RESP	n/a	LTP289	ltpFR	6	1	1	WEED	1599	1	n/a	0	n/a	n/a	n/a	n/a	n/a
3721723	RECOG_CONF	n/a	LTP289	ltpFR	6	1	1	WEED	1599	n/a	4	0	n/a	n/a	n/a	n/a	n/a
3723903	RECOG_LURE	n/a	LTP289	ltpFR	6	1	n/a	LADDER	793	0	4	n/a	n/a	n/a	n/a	n/a	n/a
3724778	RECOG_RESP	n/a	LTP289	ltpFR	6	1	n/a	LADDER	793	0	n/a	n/a	n/a	n/a	n/a	n/a	n/a
3726163	RECOG_CONF	n/a	LTP289	ltpFR	6	1	n/a	LADDER	793	n/a	4	n/a	n/a	n/a	n/a	n/a	n/a
3728208	RECOG_TARGET	n/a	LTP289	ltpFR	6	1	0	STAFF	1365	0	1	1	n/a	n/a	n/a	n/a	n/a
3729538	RECOG_RESP	n/a	LTP289	ltpFR	6	1	0	STAFF	1365	0	n/a	1	n/a	n/a	n/a	n/a	n/a
3730923	RECOG_CONF	n/a	LTP289	ltpFR	6	1	0	STAFF	1365	n/a	1	1	n/a	n/a	n/a	n/a	n/a
3733227	RECOG_TARGET	n/a	LTP289	ltpFR	6	1	0	LIMOUSINE	824	1	3	1	n/a	n/a	n/a	n/a	n/a
3734023	RECOG_RESP	n/a	LTP289	ltpFR	6	1	0	LIMOUSINE	824	1	n/a	1	n/a	n/a	n/a	n/a	n/a
3735463	RECOG_CONF	n/a	LTP289	ltpFR	6	1	0	LIMOUSINE	824	n/a	3	1	n/a	n/a	n/a	n/a	n/a
3737470	RECOG_LURE	n/a	LTP289	ltpFR	6	1	n/a	LAMB	797	0	1	n/a	n/a	n/a	n/a	n/a	n/a
3738893	RECOG_RESP	n/a	LTP289	ltpFR	6	1	n/a	LAMB	797	0	n/a	n/a	n/a	n/a	n/a	n/a	n/a
3740433	RECOG_CONF	n/a	LTP289	ltpFR	6	1	n/a	LAMB	797	n/a	1	n/a	n/a	n/a	n/a	n/a	n/a
3758594	REC_START	n/a	LTP289	ltpFR	6	2	n/a	n/a	n/a	n/a	n/a	n/a	n/a	n/a	n/a	n/a	n/a
3758657	RECOG_TARGET	n/a	LTP289	ltpFR	6	2	0	EMPLOYER	532	1	3	1	n/a	n/a	n/a	n/a	n/a
3759909	RECOG_RESP	n/a	LTP289	ltpFR	6	2	0	EMPLOYER	532	1	n/a	1	n/a	n/a	n/a	n/a	n/a
3761314	RECOG_CONF	n/a	LTP289	ltpFR	6	2	0	EMPLOYER	532	n/a	3	1	n/a	n/a	n/a	n/a	n/a
3763475	RECOG_TARGET	n/a	LTP289	ltpFR	6	2	1	LAGOON	795	1	2	0	n/a	n/a	n/a	n/a	n/a
3764419	RECOG_RESP	n/a	LTP289	ltpFR	6	2	1	LAGOON	795	1	n/a	0	n/a	n/a	n/a	n/a	n/a
3765874	RECOG_CONF	n/a	LTP289	ltpFR	6	2	1	LAGOON	795	n/a	2	0	n/a	n/a	n/a	n/a	n/a
3768020	RECOG_TARGET	n/a	LTP289	ltpFR	6	2	1	HOOD	714	1	4	0	n/a	n/a	n/a	n/a	n/a
3768689	RECOG_RESP	n/a	LTP289	ltpFR	6	2	1	HOOD	714	1	n/a	0	n/a	n/a	n/a	n/a	n/a
3769944	RECOG_CONF	n/a	LTP289	ltpFR	6	2	1	HOOD	714	n/a	4	0	n/a	n/a	n/a	n/a	n/a
3772051	RECOG_TARGET	n/a	LTP289	ltpFR	6	2	0	CARDINAL	244	1	4	0	n/a	n/a	n/a	n/a	n/a
3772729	RECOG_RESP	n/a	LTP289	ltpFR	6	2	0	CARDINAL	244	1	n/a	0	n/a	n/a	n/a	n/a	n/a
3774074	RECOG_CONF	n/a	LTP289	ltpFR	6	2	0	CARDINAL	244	n/a	4	0	n/a	n/a	n/a	n/a	n/a
3776106	RECOG_LURE	n/a	LTP289	ltpFR	6	2	n/a	KEYBOARD	774	0	1	n/a	n/a	n/a	n/a	n/a	n/a
3777574	RECOG_RESP	n/a	LTP289	ltpFR	6	2	n/a	KEYBOARD	774	0	n/a	n/a	n/a	n/a	n/a	n/a	n/a
3778964	RECOG_CONF	n/a	LTP289	ltpFR	6	2	n/a	KEYBOARD	774	n/a	1	n/a	n/a	n/a	n/a	n/a	n/a
3781019	RECOG_TARGET	n/a	LTP289	ltpFR	6	2	1	ANCHOR	21	1	5	0	n/a	n/a	n/a	n/a	n/a
3781794	RECOG_RESP	n/a	LTP289	ltpFR	6	2	1	ANCHOR	21	1	n/a	0	n/a	n/a	n/a	n/a	n/a
3782924	RECOG_CONF	n/a	LTP289	ltpFR	6	2	1	ANCHOR	21	n/a	5	0	n/a	n/a	n/a	n/a	n/a
3785156	RECOG_LURE	n/a	LTP289	ltpFR	6	2	n/a	FOREST	593	0	2	n/a	n/a	n/a	n/a	n/a	n/a
3786254	RECOG_RESP	n/a	LTP289	ltpFR	6	2	n/a	FOREST	593	0	n/a	n/a	n/a	n/a	n/a	n/a	n/a
3787654	RECOG_CONF	n/a	LTP289	ltpFR	6	2	n/a	FOREST	593	n/a	2	n/a	n/a	n/a	n/a	n/a	n/a
3789792	RECOG_TARGET	n/a	LTP289	ltpFR	6	2	0	LEADER	807	0	1	1	n/a	n/a	n/a	n/a	n/a
3790894	RECOG_RESP	n/a	LTP289	ltpFR	6	2	0	LEADER	807	0	n/a	1	n/a	n/a	n/a	n/a	n/a
3792294	RECOG_CONF	n/a	LTP289	ltpFR	6	2	0	LEADER	807	n/a	1	1	n/a	n/a	n/a	n/a	n/a
3794458	RECOG_TARGET	n/a	LTP289	ltpFR	6	2	-1	SHOWER	1296	0	4	-1	n/a	n/a	n/a	n/a	n/a
3795409	RECOG_RESP	n/a	LTP289	ltpFR	6	2	-1	SHOWER	1296	0	n/a	-1	n/a	n/a	n/a	n/a	n/a
3796644	RECOG_CONF	n/a	LTP289	ltpFR	6	2	-1	SHOWER	1296	n/a	4	-1	n/a	n/a	n/a	n/a	n/a
3798819	RECOG_TARGET	n/a	LTP289	ltpFR	6	2	1	SEAFOOD	1260	1	3	0	n/a	n/a	n/a	n/a	n/a
3799529	RECOG_RESP	n/a	LTP289	ltpFR	6	2	1	SEAFOOD	1260	1	n/a	0	n/a	n/a	n/a	n/a	n/a
3801174	RECOG_CONF	n/a	LTP289	ltpFR	6	2	1	SEAFOOD	1260	n/a	3	0	n/a	n/a	n/a	n/a	n/a
3803151	RECOG_TARGET	n/a	LTP289	ltpFR	6	2	0	DOORBELL	487	1	5	0	n/a	n/a	n/a	n/a	n/a
3803814	RECOG_RESP	n/a	LTP289	ltpFR	6	2	0	DOORBELL	487	1	n/a	0	n/a	n/a	n/a	n/a	n/a
3805114	RECOG_CONF	n/a	LTP289	ltpFR	6	2	0	DOORBELL	487	n/a	5	0	n/a	n/a	n/a	n/a	n/a
3807333	RECOG_LURE	n/a	LTP289	ltpFR	6	2	n/a	RASPBERRY	1168	0	5	n/a	n/a	n/a	n/a	n/a	n/a
3808079	RECOG_RESP	n/a	LTP289	ltpFR	6	2	n/a	RASPBERRY	1168	0	n/a	n/a	n/a	n/a	n/a	n/a	n/a
3809254	RECOG_CONF	n/a	LTP289	ltpFR	6	2	n/a	RASPBERRY	1168	n/a	5	n/a	n/a	n/a	n/a	n/a	n/a
3811623	RECOG_LURE	n/a	LTP289	ltpFR	6	2	n/a	HOSTESS	723	1	2	n/a	n/a	n/a	n/a	n/a	n/a
3812699	RECOG_RESP	n/a	LTP289	ltpFR	6	2	n/a	HOSTESS	723	1	n/a	n/a	n/a	n/a	n/a	n/a	n/a
3814264	RECOG_CONF	n/a	LTP289	ltpFR	6	2	n/a	HOSTESS	723	n/a	2	n/a	n/a	n/a	n/a	n/a	n/a
3816474	RECOG_LURE	n/a	LTP289	ltpFR	6	2	n/a	CANOE	233	0	1	n/a	n/a	n/a	n/a	n/a	n/a
3817394	RECOG_RESP	n/a	LTP289	ltpFR	6	2	n/a	CANOE	233	0	n/a	n/a	n/a	n/a	n/a	n/a	n/a
3818694	RECOG_CONF	n/a	LTP289	ltpFR	6	2	n/a	CANOE	233	n/a	1	n/a	n/a	n/a	n/a	n/a	n/a
3820700	RECOG_LURE	n/a	LTP289	ltpFR	6	2	n/a	ORCHESTRA	981	0	3	n/a	n/a	n/a	n/a	n/a	n/a
3821574	RECOG_RESP	n/a	LTP289	ltpFR	6	2	n/a	ORCHESTRA	981	0	n/a	n/a	n/a	n/a	n/a	n/a	n/a
3822994	RECOG_CONF	n/a	LTP289	ltpFR	6	2	n/a	ORCHESTRA	981	n/a	3	n/a	n/a	n/a	n/a	n/a	n/a
3825024	RECOG_LURE	n/a	LTP289	ltpFR	6	2	n/a	PLANE	1081	1	1	n/a	n/a	n/a	n/a	n/a	n/a
3826504	RECOG_RESP	n/a	LTP289	ltpFR	6	2	n/a	PLANE	1081	1	n/a	n/a	n/a	n/a	n/a	n/a	n/a
3828044	RECOG_CONF	n/a	LTP289	ltpFR	6	2	n/a	PLANE	1081	n/a	1	n/a	n/a	n/a	n/a	n/a	n/a
3830203	RECOG_TARGET	n/a	LTP289	ltpFR	6	2	-1	SAP	1233	0	2	-1	n/a	n/a	n/a	n/a	n/a
3831834	RECOG_RESP	n/a	LTP289	ltpFR	6	2	-1	SAP	1233	0	n/a	-1	n/a	n/a	n/a	n/a	n/a
3833434	RECOG_CONF	n/a	LTP289	ltpFR	6	2	-1	SAP	1233	n/a	2	-1	n/a	n/a	n/a	n/a	n/a
3835563	RECOG_TARGET	n/a	LTP289	ltpFR	6	2	1	MATCH	878	1	4	0	n/a	n/a	n/a	n/a	n/a
3836224	RECOG_RESP	n/a	LTP289	ltpFR	6	2	1	MATCH	878	1	n/a	0	n/a	n/a	n/a	n/a	n/a
3837524	RECOG_CONF	n/a	LTP289	ltpFR	6	2	1	MATCH	878	n/a	4	0	n/a	n/a	n/a	n/a	n/a
3839622	RECOG_LURE	n/a	LTP289	ltpFR	6	2	n/a	RAG	1160	1	3	n/a	n/a	n/a	n/a	n/a	n/a
3840554	RECOG_RESP	n/a	LTP289	ltpFR	6	2	n/a	RAG	1160	1	n/a	n/a	n/a	n/a	n/a	n/a	n/a
3841934	RECOG_CONF	n/a	LTP289	ltpFR	6	2	n/a	RAG	1160	n/a	3	n/a	n/a	n/a	n/a	n/a	n/a
3843929	RECOG_LURE	n/a	LTP289	ltpFR	6	2	n/a	PILLOW	1069	0	1	n/a	n/a	n/a	n/a	n/a	n/a
3845204	RECOG_RESP	n/a	LTP289	ltpFR	6	2	n/a	PILLOW	1069	0	n/a	n/a	n/a	n/a	n/a	n/a	n/a
3847264	RECOG_CONF	n/a	LTP289	ltpFR	6	2	n/a	PILLOW	1069	n/a	1	n/a	n/a	n/a	n/a	n/a	n/a
3870554	REC_START	n/a	LTP289	ltpFR	6	3	n/a	n/a	n/a	n/a	n/a	n/a	n/a	n/a	n/a	n/a	n/a
3870612	RECOG_LURE	n/a	LTP289	ltpFR	6	3	n/a	CAMEL	223	0	2	n/a	n/a	n/a	n/a	n/a	n/a
3871979	RECOG_RESP	n/a	LTP289	ltpFR	6	3	n/a	CAMEL	223	0	n/a	n/a	n/a	n/a	n/a	n/a	n/a
3873564	RECOG_CONF	n/a	LTP289	ltpFR	6	3	n/a	CAMEL	223	n/a	2	n/a	n/a	n/a	n/a	n/a	n/a
3875681	RECOG_LURE	n/a	LTP289	ltpFR	6	3	n/a	GRAVE	658	0	3	n/a	n/a	n/a	n/a	n/a	n/a
3877084	RECOG_RESP	n/a	LTP289	ltpFR	6	3	n/a	GRAVE	658	0	n/a	n/a	n/a	n/a	n/a	n/a	n/a
3878584	RECOG_CONF	n/a	LTP289	ltpFR	6	3	n/a	GRAVE	658	n/a	3	n/a	n/a	n/a	n/a	n/a	n/a
3880734	RECOG_TARGET	n/a	LTP289	ltpFR	6	3	1	VOLLEYBALL	1576	1	5	0	n/a	n/a	n/a	n/a	n/a
3881364	RECOG_RESP	n/a	LTP289	ltpFR	6	3	1	VOLLEYBALL	1576	1	n/a	0	n/a	n/a	n/a	n/a	n/a
3882784	RECOG_CONF	n/a	LTP289	ltpFR	6	3	1	VOLLEYBALL	1576	n/a	5	0	n/a	n/a	n/a	n/a	n/a
3884933	RECOG_LURE	n/a	LTP289	ltpFR	6	3	n/a	SURVEY	1414	1	2	n/a	n/a	n/a	n/a	n/a	n/a
3886084	RECOG_RESP	n/a	LTP289	ltpFR	6	3	n/a	SURVEY	1414	1	n/a	n/a	n/a	n/a	n/a	n/a	n/a
3887434	RECOG_CONF	n/a	LTP289	ltpFR	6	3	n/a	SURVEY	1414	n/a	2	n/a	n/a	n/a	n/a	n/a	n/a
3889533	RECOG_TARGET	n/a	LTP289	ltpFR	6	3	-1	BOOK	149	0	1	-1	n/a	n/a	n/a	n/a	n/a
3890849	RECOG_RESP	n/a	LTP289	ltpFR	6	3	-1	BOOK	149	0	n/a	-1	n/a	n/a	n/a	n/a	n/a
3892404	RECOG_CONF	n/a	LTP289	ltpFR	6	3	-1	BOOK	149	n/a	1	-1	n/a	n/a	n/a	n/a	n/a
3894535	RECOG_TARGET	n/a	LTP289	ltpFR	6	3	0	VITAMIN	1574	1	4	0	n/a	n/a	n/a	n/a	n/a
3895254	RECOG_RESP	n/a	LTP289	ltpFR	6	3	0	VITAMIN	1574	1	n/a	0	n/a	n/a	n/a	n/a	n/a
3896614	RECOG_CONF	n/a	LTP289	ltpFR	6	3	0	VITAMIN	1574	n/a	4	0	n/a	n/a	n/a	n/a	n/a
3898786	RECOG_TARGET	n/a	LTP289	ltpFR	6	3	-1	LIST	830	0	2	-1	n/a	n/a	n/a	n/a	n/a
3900089	RECOG_RESP	n/a	LTP289	ltpFR	6	3	-1	LIST	830	0	n/a	-1	n/a	n/a	n/a	n/a	n/a
3901384	RECOG_CONF	n/a	LTP289	ltpFR	6	3	-1	LIST	830	n/a	2	-1	n/a	n/a	n/a	n/a	n/a
3903546	RECOG_LURE	n/a	LTP289	ltpFR	6	3	n/a	LOG	841	1	1	n/a	n/a	n/a	n/a	n/a	n/a
3904644	RECOG_RESP	n/a	LTP289	ltpFR	6	3	n/a	LOG	841	1	n/a	n/a	n/a	n/a	n/a	n/a	n/a
3906084	RECOG_CONF	n/a	LTP289	ltpFR	6	3	n/a	LOG	841	n/a	1	n/a	n/a	n/a	n/a	n/a	n/a
3908270	RECOG_LURE	n/a	LTP289	ltpFR	6	3	n/a	FILM	565	0	5	n/a	n/a	n/a	n/a	n/a	n/a
3909389	RECOG_RESP	n/a	LTP289	ltpFR	6	3	n/a	FILM	565	0	n/a	n/a	n/a	n/a	n/a	n/a	n/a
3910544	RECOG_CONF	n/a	LTP289	ltpFR	6	3	n/a	FILM	565	n/a	5	n/a	n/a	n/a	n/a	n/a	n/a
3912805	RECOG_TARGET	n/a	LTP289	ltpFR	6	3	0	GOVERNOR	651	0	1	1	n/a	n/a	n/a	n/a	n/a
3914274	RECOG_RESP	n/a	LTP289	ltpFR	6	3	0	GOVERNOR	651	0	n/a	1	n/a	n/a	n/a	n/a	n/a
3915854	RECOG_CONF	n/a	LTP289	ltpFR	6	3	0	GOVERNOR	651	n/a	1	1	n/a	n/a	n/a	n/a	n/a
3917858	RECOG_TARGET	n/a	LTP289	ltpFR	6	3	-1	BATHTUB	100	1	1	-1	n/a	n/a	n/a	n/a	n/a
3919609	RECOG_RESP	n/a	LTP289	ltpFR	6	3	-1	BATHTUB	100	1	n/a	-1	n/a	n/a	n/a	n/a	n/a
3921284	RECOG_CONF	n/a	LTP289	ltpFR	6	3	-1	BATHTUB	100	n/a	1	-1	n/a	n/a	n/a	n/a	n/a
3923254	RECOG_LURE	n/a	LTP289	ltpFR	6	3	n/a	SLIDE	1326	0	2	n/a	n/a	n/a	n/a	n/a	n/a
3924364	RECOG_RESP	n/a	LTP289	ltpFR	6	3	n/a	SLIDE	1326	0	n/a	n/a	n/a	n/a	n/a	n/a	n/a
3925934	RECOG_CONF	n/a	LTP289	ltpFR	6	3	n/a	SLIDE	1326	n/a	2	n/a	n/a	n/a	n/a	n/a	n/a
3928229	RECOG_TARGET	n/a	LTP289	ltpFR	6	3	1	DANDRUFF	439	1	4	0	n/a	n/a	n/a	n/a	n/a
3928914	RECOG_RESP	n/a	LTP289	ltpFR	6	3	1	DANDRUFF	439	1	n/a	0	n/a	n/a	n/a	n/a	n/a
3930344	RECOG_CONF	n/a	LTP289	ltpFR	6	3	1	DANDRUFF	439	n/a	4	0	n/a	n/a	n/a	n/a	n/a
3932539	RECOG_TARGET	n/a	LTP289	ltpFR	6	3	1	DAD	433	1	5	1	n/a	n/a	n/a	n/a	n/a
3933134	RECOG_RESP	n/a	LTP289	ltpFR	6	3	1	DAD	433	1	n/a	1	n/a	n/a	n/a	n/a	n/a
3934294	RECOG_CONF	n/a	LTP289	ltpFR	6	3	1	DAD	433	n/a	5	1	n/a	n/a	n/a	n/a	n/a
3936789	RECOG_LURE	n/a	LTP289	ltpFR	6	3	n/a	WEB	1598	0	3	n/a	n/a	n/a	n/a	n/a	n/a
3938154	RECOG_RESP	n/a	LTP289	ltpFR	6	3	n/a	WEB	1598	0	n/a	n/a	n/a	n/a	n/a	n/a	n/a
3939494	RECOG_CONF	n/a	LTP289	ltpFR	6	3	n/a	WEB	1598	n/a	3	n/a	n/a	n/a	n/a	n/a	n/a
3941748	RECOG_TARGET	n/a	LTP289	ltpFR	6	3	0	CLOWN	330	1	4	1	n/a	n/a	n/a	n/a	n/a
3942434	RECOG_RESP	n/a	LTP289	ltpFR	6	3	0	CLOWN	330	1	n/a	1	n/a	n/a	n/a	n/a	n/a
3943854	RECOG_CONF	n/a	LTP289	ltpFR	6	3	0	CLOWN	330	n/a	4	1	n/a	n/a	n/a	n/a	n/a
3946041	RECOG_TARGET	n/a	LTP289	ltpFR	6	3	1	ANIMAL	23	1	1	0	n/a	n/a	n/a	n/a	n/a
3947604	RECOG_RESP	n/a	LTP289	ltpFR	6	3	1	ANIMAL	23	1	n/a	0	n/a	n/a	n/a	n/a	n/a
3948954	RECOG_CONF	n/a	LTP289	ltpFR	6	3	1	ANIMAL	23	n/a	1	0	n/a	n/a	n/a	n/a	n/a
3951009	RECOG_LURE	n/a	LTP289	ltpFR	6	3	n/a	CHISEL	305	0	1	n/a	n/a	n/a	n/a	n/a	n/a
3952534	RECOG_RESP	n/a	LTP289	ltpFR	6	3	n/a	CHISEL	305	0	n/a	n/a	n/a	n/a	n/a	n/a	n/a
3954084	RECOG_CONF	n/a	LTP289	ltpFR	6	3	n/a	CHISEL	305	n/a	1	n/a	n/a	n/a	n/a	n/a	n/a
3956068	RECOG_TARGET	n/a	LTP289	ltpFR	6	3	1	PUDDING	1139	1	3	0	n/a	n/a	n/a	n/a	n/a
3956794	RECOG_RESP	n/a	LTP289	ltpFR	6	3	1	PUDDING	1139	1	n/a	0	n/a	n/a	n/a	n/a	n/a
3958454	RECOG_CONF	n/a	LTP289	ltpFR	6	3	1	PUDDING	1139	n/a	3	0	n/a	n/a	n/a	n/a	n/a
3960551	RECOG_LURE	n/a	LTP289	ltpFR	6	3	n/a	CARAVAN	242	1	2	n/a	n/a	n/a	n/a	n/a	n/a
3961929	RECOG_RESP	n/a	LTP289	ltpFR	6	3	n/a	CARAVAN	242	1	n/a	n/a	n/a	n/a	n/a	n/a	n/a
3963374	RECOG_CONF	n/a	LTP289	ltpFR	6	3	n/a	CARAVAN	242	n/a	2	n/a	n/a	n/a	n/a	n/a	n/a
3975199	REC_START	n/a	LTP289	ltpFR	6	4	n/a	n/a	n/a	n/a	n/a	n/a	n/a	n/a	n/a	n/a	n/a
3975250	RECOG_TARGET	n/a	LTP289	ltpFR	6	4	-1	POET	1095	1	5	-1	n/a	n/a	n/a	n/a	n/a
3975984	RECOG_RESP	n/a	LTP289	ltpFR	6	4	-1	POET	1095	1	n/a	-1	n/a	n/a	n/a	n/a	n/a
3977249	RECOG_CONF	n/a	LTP289	ltpFR	6	4	-1	POET	1095	n/a	5	-1	n/a	n/a	n/a	n/a	n/a
3979472	RECOG_TARGET	n/a	LTP289	ltpFR	6	4	0	COMMITTEE	355	1	4	1	n/a	n/a	n/a	n/a	n/a
3980149	RECOG_RESP	n/a	LTP289	ltpFR	6	4	0	COMMITTEE	355	1	n/a	1	n/a	n/a	n/a	n/a	n/a
3981509	RECOG_CONF	n/a	LTP289	ltpFR	6	4	0	COMMITTEE	355	n/a	4	1	n/a	n/a	n/a	n/a	n/a
3983548	RECOG_TARGET	n/a	LTP289	ltpFR	6	4	-1	SEA	1259	1	5	-1	n/a	n/a	n/a	n/a	n/a
3984164	RECOG_RESP	n/a	LTP289	ltpFR	6	4	-1	SEA	1259	1	n/a	-1	n/a	n/a	n/a	n/a	n/a
3985619	RECOG_CONF	n/a	LTP289	ltpFR	6	4	-1	SEA	1259	n/a	5	-1	n/a	n/a	n/a	n/a	n/a
3987663	RECOG_LURE	n/a	LTP289	ltpFR	6	4	n/a	DISC	473	0	4	n/a	n/a	n/a	n/a	n/a	n/a
3988529	RECOG_RESP	n/a	LTP289	ltpFR	6	4	n/a	DISC	473	0	n/a	n/a	n/a	n/a	n/a	n/a	n/a
3989849	RECOG_CONF	n/a	LTP289	ltpFR	6	4	n/a	DISC	473	n/a	4	n/a	n/a	n/a	n/a	n/a	n/a
3992120	RECOG_TARGET	n/a	LTP289	ltpFR	6	4	0	GAVEL	627	1	5	1	n/a	n/a	n/a	n/a	n/a
3992909	RECOG_RESP	n/a	LTP289	ltpFR	6	4	0	GAVEL	627	1	n/a	1	n/a	n/a	n/a	n/a	n/a
3994089	RECOG_CONF	n/a	LTP289	ltpFR	6	4	0	GAVEL	627	n/a	5	1	n/a	n/a	n/a	n/a	n/a
3996419	RECOG_LURE	n/a	LTP289	ltpFR	6	4	n/a	FARMER	553	0	3	n/a	n/a	n/a	n/a	n/a	n/a
3997559	RECOG_RESP	n/a	LTP289	ltpFR	6	4	n/a	FARMER	553	0	n/a	n/a	n/a	n/a	n/a	n/a	n/a
3998999	RECOG_CONF	n/a	LTP289	ltpFR	6	4	n/a	FARMER	553	n/a	3	n/a	n/a	n/a	n/a	n/a	n/a
4001187	RECOG_LURE	n/a	LTP289	ltpFR	6	4	n/a	TELEPHONE	1445	0	2	n/a	n/a	n/a	n/a	n/a	n/a
4002729	RECOG_RESP	n/a	LTP289	ltpFR	6	4	n/a	TELEPHONE	1445	0	n/a	n/a	n/a	n/a	n/a	n/a	n/a
4004439	RECOG_CONF	n/a	LTP289	ltpFR	6	4	n/a	TELEPHONE	1445	n/a	2	n/a	n/a	n/a	n/a	n/a	n/a
4006557	RECOG_TARGET	n/a	LTP289	ltpFR	6	4	0	BOSS	152	0	1	1	n/a	n/a	n/a	n/a	n/a
4007554	RECOG_RESP	n/a	LTP289	ltpFR	6	4	0	BOSS	152	0	n/a	1	n/a	n/a	n/a	n/a	n/a
4008979	RECOG_CONF	n/a	LTP289	ltpFR	6	4	0	BOSS	152	n/a	1	1	n/a	n/a	n/a	n/a	n/a
4010891	RECOG_LURE	n/a	LTP289	ltpFR	6	4	n/a	WAND	1586	0	2	n/a	n/a	n/a	n/a	n/a	n/a
4011949	RECOG_RESP	n/a	LTP289	ltpFR	6	4	n/a	WAND	1586	0	n/a	n/a	n/a	n/a	n/a	n/a	n/a
4013389	RECOG_CONF	n/a	LTP289	ltpFR	6	4	n/a	WAND	1586	n/a	2	n/a	n/a	n/a	n/a	n/a	n/a
4015458	RECOG_LURE	n/a	LTP289	ltpFR	6	4	n/a	PRODUCER	1129	0	4	n/a	n/a	n/a	n/a	n/a	n/a
4016319	RECOG_RESP	n/a	LTP289	ltpFR	6	4	n/a	PRODUCER	1129	0	n/a	n/a	n/a	n/a	n/a	n/a	n/a
4017479	RECOG_CONF	n/a	LTP289	ltpFR	6	4	n/a	PRODUCER	1129	n/a	4	n/a	n/a	n/a	n/a	n/a	n/a
4019523	RECOG_LURE	n/a	LTP289	ltpFR	6	4	n/a	SLEEVE	1324	0	2	n/a	n/a	n/a	n/a	n/a	n/a
4020849	RECOG_RESP	n/a	LTP289	ltpFR	6	4	n/a	SLEEVE	1324	0	n/a	n/a	n/a	n/a	n/a	n/a	n/a
4022219	RECOG_CONF	n/a	LTP289	ltpFR	6	4	n/a	SLEEVE	1324	n/a	2	n/a	n/a	n/a	n/a	n/a	n/a
4024224	RECOG_TARGET	n/a	LTP289	ltpFR	6	4	0	RECORD	1176	1	4	0	n/a	n/a	n/a	n/a	n/a
4025164	RECOG_RESP	n/a	LTP289	ltpFR	6	4	0	RECORD	1176	1	n/a	0	n/a	n/a	n/a	n/a	n/a
4026909	RECOG_CONF	n/a	LTP289	ltpFR	6	4	0	RECORD	1176	n/a	4	0	n/a	n/a	n/a	n/a	n/a
4028976	RECOG_LURE	n/a	LTP289	ltpFR	6	4	n/a	SCOTCH	1251	0	5	n/a	n/a	n/a	n/a	n/a	n/a
4030039	RECOG_RESP	n/a	LTP289	ltpFR	6	4	n/a	SCOTCH	1251	0	n/a	n/a	n/a	n/a	n/a	n/a	n/a
4031239	RECOG_CONF	n/a	LTP289	ltpFR	6	4	n/a	SCOTCH	1251	n/a	5	n/a	n/a	n/a	n/a	n/a	n/a
4033720	RECOG_LURE	n/a	LTP289	ltpFR	6	4	n/a	SLEIGH	1325	1	1	n/a	n/a	n/a	n/a	n/a	n/a
4034779	RECOG_RESP	n/a	LTP289	ltpFR	6	4	n/a	SLEIGH	1325	1	n/a	n/a	n/a	n/a	n/a	n/a	n/a
4036199	RECOG_CONF	n/a	LTP289	ltpFR	6	4	n/a	SLEIGH	1325	n/a	1	n/a	n/a	n/a	n/a	n/a	n/a
4038321	RECOG_TARGET	n/a	LTP289	ltpFR	6	4	1	PALACE	1006	1	2	0	n/a	n/a	n/a	n/a	n/a
4039449	RECOG_RESP	n/a	LTP289	ltpFR	6	4	1	PALACE	1006	1	n/a	0	n/a	n/a	n/a	n/a	n/a
4040969	RECOG_CONF	n/a	LTP289	ltpFR	6	4	1	PALACE	1006	n/a	2	0	n/a	n/a	n/a	n/a	n/a
4043013	RECOG_LURE	n/a	LTP289	ltpFR	6	4	n/a	TOOTHBRUSH	1482	0	4	n/a	n/a	n/a	n/a	n/a	n/a
4043929	RECOG_RESP	n/a	LTP289	ltpFR	6	4	n/a	TOOTHBRUSH	1482	0	n/a	n/a	n/a	n/a	n/a	n/a	n/a
4045189	RECOG_CONF	n/a	LTP289	ltpFR	6	4	n/a	TOOTHBRUSH	1482	n/a	4	n/a	n/a	n/a	n/a	n/a	n/a
4047278	RECOG_TARGET	n/a	LTP289	ltpFR	6	4	1	STOMACH	1384	1	3	0	n/a	n/a	n/a	n/a	n/a
4048149	RECOG_RESP	n/a	LTP289	ltpFR	6	4	1	STOMACH	1384	1	n/a	0	n/a	n/a	n/a	n/a	n/a
4049539	RECOG_CONF	n/a	LTP289	ltpFR	6	4	1	STOMACH	1384	n/a	3	0	n/a	n/a	n/a	n/a	n/a
4051638	RECOG_TARGET	n/a	LTP289	ltpFR	6	4	-1	POLICE	1098	1	2	-1	n/a	n/a	n/a	n/a	n/a
4052349	RECOG_RESP	n/a	LTP289	ltpFR	6	4	-1	POLICE	1098	1	n/a	-1	n/a	n/a	n/a	n/a	n/a
4053839	RECOG_CONF	n/a	LTP289	ltpFR	6	4	-1	POLICE	1098	n/a	2	-1	n/a	n/a	n/a	n/a	n/a
4055978	RECOG_LURE	n/a	LTP289	ltpFR	6	4	n/a	TRICYCLE	1506	0	5	n/a	n/a	n/a	n/a	n/a	n/a
4056714	RECOG_RESP	n/a	LTP289	ltpFR	6	4	n/a	TRICYCLE	1506	0	n/a	n/a	n/a	n/a	n/a	n/a	n/a
4057939	RECOG_CONF	n/a	LTP289	ltpFR	6	4	n/a	TRICYCLE	1506	n/a	5	n/a	n/a	n/a	n/a	n/a	n/a
4060210	RECOG_TARGET	n/a	LTP289	ltpFR	6	4	-1	MISTER	901	1	4	-1	n/a	n/a	n/a	n/a	n/a
4060909	RECOG_RESP	n/a	LTP289	ltpFR	6	4	-1	MISTER	901	1	n/a	-1	n/a	n/a	n/a	n/a	n/a
4062599	RECOG_CONF	n/a	LTP289	ltpFR	6	4	-1	MISTER	901	n/a	4	-1	n/a	n/a	n/a	n/a	n/a
4098282	REC_START	n/a	LTP289	ltpFR	6	5	n/a	n/a	n/a	n/a	n/a	n/a	n/a	n/a	n/a	n/a	n/a
4098337	RECOG_TARGET	n/a	LTP289	ltpFR	6	5	-1	APPLE	33	0	1	-1	n/a	n/a	n/a	n/a	n/a
4100172	RECOG_RESP	n/a	LTP289	ltpFR	6	5	-1	APPLE	33	0	n/a	-1	n/a	n/a	n/a	n/a	n/a
4101502	RECOG_CONF	n/a	LTP289	ltpFR	6	5	-1	APPLE	33	n/a	1	-1	n/a	n/a	n/a	n/a	n/a
4103640	RECOG_LURE	n/a	LTP289	ltpFR	6	5	n/a	GERM	632	0	4	n/a	n/a	n/a	n/a	n/a	n/a
4104762	RECOG_RESP	n/a	LTP289	ltpFR	6	5	n/a	GERM	632	0	n/a	n/a	n/a	n/a	n/a	n/a	n/a
4105842	RECOG_CONF	n/a	LTP289	ltpFR	6	5	n/a	GERM	632	n/a	4	n/a	n/a	n/a	n/a	n/a	n/a
4108001	RECOG_TARGET	n/a	LTP289	ltpFR	6	5	0	EGG	518	1	5	0	n/a	n/a	n/a	n/a	n/a
4108717	RECOG_RESP	n/a	LTP289	ltpFR	6	5	0	EGG	518	1	n/a	0	n/a	n/a	n/a	n/a	n/a
4109862	RECOG_CONF	n/a	LTP289	ltpFR	6	5	0	EGG	518	n/a	5	0	n/a	n/a	n/a	n/a	n/a
4112206	RECOG_TARGET	n/a	LTP289	ltpFR	6	5	0	METEOR	889	1	5	1	n/a	n/a	n/a	n/a	n/a
4112982	RECOG_RESP	n/a	LTP289	ltpFR	6	5	0	METEOR	889	1	n/a	1	n/a	n/a	n/a	n/a	n/a
4114282	RECOG_CONF	n/a	LTP289	ltpFR	6	5	0	METEOR	889	n/a	5	1	n/a	n/a	n/a	n/a	n/a
4116582	RECOG_LURE	n/a	LTP289	ltpFR	6	5	n/a	ROBOT	1200	1	1	n/a	n/a	n/a	n/a	n/a	n/a
4118007	RECOG_RESP	n/a	LTP289	ltpFR	6	5	n/a	ROBOT	1200	1	n/a	n/a	n/a	n/a	n/a	n/a	n/a
4119322	RECOG_CONF	n/a	LTP289	ltpFR	6	5	n/a	ROBOT	1200	n/a	1	n/a	n/a	n/a	n/a	n/a	n/a
4121457	RECOG_TARGET	n/a	LTP289	ltpFR	6	5	1	RIB	1188	1	4	0	n/a	n/a	n/a	n/a	n/a
4122127	RECOG_RESP	n/a	LTP289	ltpFR	6	5	1	RIB	1188	1	n/a	0	n/a	n/a	n/a	n/a	n/a
4123472	RECOG_CONF	n/a	LTP289	ltpFR	6	5	1	RIB	1188	n/a	4	0	n/a	n/a	n/a	n/a	n/a
4125858	RECOG_TARGET	n/a	LTP289	ltpFR	6	5	0	SALMON	1227	1	3	1	n/a	n/a	n/a	n/a	n/a
4127712	RECOG_RESP	n/a	LTP289	ltpFR	6	5	0	SALMON	1227	1	n/a	1	n/a	n/a	n/a	n/a	n/a
4129212	RECOG_CONF	n/a	LTP289	ltpFR	6	5	0	SALMON	1227	n/a	3	1	n/a	n/a	n/a	n/a	n/a
4131078	RECOG_LURE	n/a	LTP289	ltpFR	6	5	n/a	GIRAFFE	636	0	4	n/a	n/a	n/a	n/a	n/a	n/a
4131922	RECOG_RESP	n/a	LTP289	ltpFR	6	5	n/a	GIRAFFE	636	0	n/a	n/a	n/a	n/a	n/a	n/a	n/a
4133192	RECOG_CONF	n/a	LTP289	ltpFR	6	5	n/a	GIRAFFE	636	n/a	4	n/a	n/a	n/a	n/a	n/a	n/a
4135253	RECOG_LURE	n/a	LTP289	ltpFR	6	5	n/a	APE	31	0	2	n/a	n/a	n/a	n/a	n/a	n/a
4136052	RECOG_RESP	n/a	LTP289	ltpFR	6	5	n/a	APE	31	0	n/a	n/a	n/a	n/a	n/a	n/a	n/a
4137542	RECOG_CONF	n/a	LTP289	ltpFR	6	5	n/a	APE	31	n/a	2	n/a	n/a	n/a	n/a	n/a	n/a
4139636	RECOG_TARGET	n/a	LTP289	ltpFR	6	5	1	SCOUT	1252	1	5	1	n/a	n/a	n/a	n/a	n/a
4140392	RECOG_RESP	n/a	LTP289	ltpFR	6	5	1	SCOUT	1252	1	n/a	1	n/a	n/a	n/a	n/a	n/a
4141682	RECOG_CONF	n/a	LTP289	ltpFR	6	5	1	SCOUT	1252	n/a	5	1	n/a	n/a	n/a	n/a	n/a
4143926	RECOG_TARGET	n/a	LTP289	ltpFR	6	5	-1	ROCK	1201	1	2	-1	n/a	n/a	n/a	n/a	n/a
4145732	RECOG_RESP	n/a	LTP289	ltpFR	6	5	-1	ROCK	1201	1	n/a	-1	n/a	n/a	n/a	n/a	n/a
4147132	RECOG_CONF	n/a	LTP289	ltpFR	6	5	-1	ROCK	1201	n/a	2	-1	n/a	n/a	n/a	n/a	n/a
4149245	RECOG_TARGET	n/a	LTP289	ltpFR	6	5	0	HEART	697	1	5	0	n/a	n/a	n/a	n/a	n/a
4150042	RECOG_RESP	n/a	LTP289	ltpFR	6	5	0	HEART	697	1	n/a	0	n/a	n/a	n/a	n/a	n/a
4151432	RECOG_CONF	n/a	LTP289	ltpFR	6	5	0	HEART	697	n/a	5	0	n/a	n/a	n/a	n/a	n/a
4153404	RECOG_TARGET	n/a	LTP289	ltpFR	6	5	0	PARCEL	1012	1	4	0	n/a	n/a	n/a	n/a	n/a
4154137	RECOG_RESP	n/a	LTP289	ltpFR	6	5	0	PARCEL	1012	1	n/a	0	n/a	n/a	n/a	n/a	n/a
4155732	RECOG_CONF	n/a	LTP289	ltpFR	6	5	0	PARCEL	1012	n/a	4	0	n/a	n/a	n/a	n/a	n/a
4157879	RECOG_TARGET	n/a	LTP289	ltpFR	6	5	-1	HOOP	716	1	3	-1	n/a	n/a	n/a	n/a	n/a
4159012	RECOG_RESP	n/a	LTP289	ltpFR	6	5	-1	HOOP	716	1	n/a	-1	n/a	n/a	n/a	n/a	n/a
4160952	RECOG_CONF	n/a	LTP289	ltpFR	6	5	-1	HOOP	716	n/a	3	-1	n/a	n/a	n/a	n/a	n/a
4162858	RECOG_LURE	n/a	LTP289	ltpFR	6	5	n/a	CAFETERIA	217	0	1	n/a	n/a	n/a	n/a	n/a	n/a
4163907	RECOG_RESP	n/a	LTP289	ltpFR	6	5	n/a	CAFETERIA	217	0	n/a	n/a	n/a	n/a	n/a	n/a	n/a
4165282	RECOG_CONF	n/a	LTP289	ltpFR	6	5	n/a	CAFETERIA	217	n/a	1	n/a	n/a	n/a	n/a	n/a	n/a
4167330	RECOG_TARGET	n/a	LTP289	ltpFR	6	5	-1	SPONGE	1355	0	2	-1	n/a	n/a	n/a	n/a	n/a
4168247	RECOG_RESP	n/a	LTP289	ltpFR	6	5	-1	SPONGE	1355	0	n/a	-1	n/a	n/a	n/a	n/a	n/a
4170002	RECOG_CONF	n/a	LTP289	ltpFR	6	5	-1	SPONGE	1355	n/a	2	-1	n/a	n/a	n/a	n/a	n/a
4172108	RECOG_LURE	n/a	LTP289	ltpFR	6	5	n/a	INFANT	737	0	4	n/a	n/a	n/a	n/a	n/a	n/a
4173102	RECOG_RESP	n/a	LTP289	ltpFR	6	5	n/a	INFANT	737	0	n/a	n/a	n/a	n/a	n/a	n/a	n/a
4174572	RECOG_CONF	n/a	LTP289	ltpFR	6	5	n/a	INFANT	737	n/a	4	n/a	n/a	n/a	n/a	n/a	n/a
4176760	RECOG_LURE	n/a	LTP289	ltpFR	6	5	n/a	CONCRETE	361	0	1	n/a	n/a	n/a	n/a	n/a	n/a
4177982	RECOG_RESP	n/a	LTP289	ltpFR	6	5	n/a	CONCRETE	361	0	n/a	n/a	n/a	n/a	n/a	n/a	n/a
4179412	RECOG_CONF	n/a	LTP289	ltpFR	6	5	n/a	CONCRETE	361	n/a	1	n/a	n/a	n/a	n/a	n/a	n/a
4181393	RECOG_LURE	n/a	LTP289	ltpFR	6	5	n/a	CUB	419	0	3	n/a	n/a	n/a	n/a	n/a	n/a
4182732	RECOG_RESP	n/a	LTP289	ltpFR	6	5	n/a	CUB	419	0	n/a	n/a	n/a	n/a	n/a	n/a	n/a
4185012	RECOG_CONF	n/a	LTP289	ltpFR	6	5	n/a	CUB	419	n/a	3	n/a	n/a	n/a	n/a	n/a	n/a
4186938	RECOG_LURE	n/a	LTP289	ltpFR	6	5	n/a	APPENDAGE	32	0	1	n/a	n/a	n/a	n/a	n/a	n/a
4188097	RECOG_RESP	n/a	LTP289	ltpFR	6	5	n/a	APPENDAGE	32	0	n/a	n/a	n/a	n/a	n/a	n/a	n/a
4189512	RECOG_CONF	n/a	LTP289	ltpFR	6	5	n/a	APPENDAGE	32	n/a	1	n/a	n/a	n/a	n/a	n/a	n/a
4211596	REC_START	n/a	LTP289	ltpFR	6	6	n/a	n/a	n/a	n/a	n/a	n/a	n/a	n/a	n/a	n/a	n/a
4211657	RECOG_TARGET	n/a	LTP289	ltpFR	6	6	1	PATRIOT	1026	1	5	1	n/a	n/a	n/a	n/a	n/a
4212571	RECOG_RESP	n/a	LTP289	ltpFR	6	6	1	PATRIOT	1026	1	n/a	1	n/a	n/a	n/a	n/a	n/a
4213966	RECOG_CONF	n/a	LTP289	ltpFR	6	6	1	PATRIOT	1026	n/a	5	1	n/a	n/a	n/a	n/a	n/a
4216107	RECOG_LURE	n/a	LTP289	ltpFR	6	6	n/a	SNOB	1335	0	2	n/a	n/a	n/a	n/a	n/a	n/a
4217071	RECOG_RESP	n/a	LTP289	ltpFR	6	6	n/a	SNOB	1335	0	n/a	n/a	n/a	n/a	n/a	n/a	n/a
4218726	RECOG_CONF	n/a	LTP289	ltpFR	6	6	n/a	SNOB	1335	n/a	2	n/a	n/a	n/a	n/a	n/a	n/a
4220793	RECOG_TARGET	n/a	LTP289	ltpFR	6	6	1	BOXER	160	1	4	1	n/a	n/a	n/a	n/a	n/a
4221501	RECOG_RESP	n/a	LTP289	ltpFR	6	6	1	BOXER	160	1	n/a	1	n/a	n/a	n/a	n/a	n/a
4222856	RECOG_CONF	n/a	LTP289	ltpFR	6	6	1	BOXER	160	n/a	4	1	n/a	n/a	n/a	n/a	n/a
4225091	RECOG_TARGET	n/a	LTP289	ltpFR	6	6	0	SECRETARY	1265	1	3	1	n/a	n/a	n/a	n/a	n/a
4226176	RECOG_RESP	n/a	LTP289	ltpFR	6	6	0	SECRETARY	1265	1	n/a	1	n/a	n/a	n/a	n/a	n/a
4227656	RECOG_CONF	n/a	LTP289	ltpFR	6	6	0	SECRETARY	1265	n/a	3	1	n/a	n/a	n/a	n/a	n/a
4229682	RECOG_TARGET	n/a	LTP289	ltpFR	6	6	-1	LEAF	808	1	1	-1	n/a	n/a	n/a	n/a	n/a
4230931	RECOG_RESP	n/a	LTP289	ltpFR	6	6	-1	LEAF	808	1	n/a	-1	n/a	n/a	n/a	n/a	n/a
4232216	RECOG_CONF	n/a	LTP289	ltpFR	6	6	-1	LEAF	808	n/a	1	-1	n/a	n/a	n/a	n/a	n/a
4234125	RECOG_TARGET	n/a	LTP289	ltpFR	6	6	-1	FARM	552	1	1	-1	n/a	n/a	n/a	n/a	n/a
4235656	RECOG_RESP	n/a	LTP289	ltpFR	6	6	-1	FARM	552	1	n/a	-1	n/a	n/a	n/a	n/a	n/a
4237374	RECOG_CONF	n/a	LTP289	ltpFR	6	6	-1	FARM	552	n/a	1	-1	n/a	n/a	n/a	n/a	n/a
4239268	RECOG_TARGET	n/a	LTP289	ltpFR	6	6	1	EARRING	514	1	3	0	n/a	n/a	n/a	n/a	n/a
4240576	RECOG_RESP	n/a	LTP289	ltpFR	6	6	1	EARRING	514	1	n/a	0	n/a	n/a	n/a	n/a	n/a
4241986	RECOG_CONF	n/a	LTP289	ltpFR	6	6	1	EARRING	514	n/a	3	0	n/a	n/a	n/a	n/a	n/a
4243987	RECOG_TARGET	n/a	LTP289	ltpFR	6	6	1	WORKER	1621	0	2	1	n/a	n/a	n/a	n/a	n/a
4245206	RECOG_RESP	n/a	LTP289	ltpFR	6	6	1	WORKER	1621	0	n/a	1	n/a	n/a	n/a	n/a	n/a
4246646	RECOG_CONF	n/a	LTP289	ltpFR	6	6	1	WORKER	1621	n/a	2	1	n/a	n/a	n/a	n/a	n/a
4248798	RECOG_LURE	n/a	LTP289	ltpFR	6	6	n/a	MEADOW	881	0	1	n/a	n/a	n/a	n/a	n/a	n/a
4249906	RECOG_RESP	n/a	LTP289	ltpFR	6	6	n/a	MEADOW	881	0	n/a	n/a	n/a	n/a	n/a	n/a	n/a
4251596	RECOG_CONF	n/a	LTP289	ltpFR	6	6	n/a	MEADOW	881	n/a	1	n/a	n/a	n/a	n/a	n/a	n/a
4253555	RECOG_TARGET	n/a	LTP289	ltpFR	6	6	0	PAINTER	1004	1	2	1	n/a	n/a	n/a	n/a	n/a
4254461	RECOG_RESP	n/a	LTP289	ltpFR	6	6	0	PAINTER	1004	1	n/a	1	n/a	n/a	n/a	n/a	n/a
4256146	RECOG_CONF	n/a	LTP289	ltpFR	6	6	0	PAINTER	1004	n/a	2	1	n/a	n/a	n/a	n/a	n/a
4258199	RECOG_TARGET	n/a	LTP289	ltpFR	6	6	0	JUPITER	765	1	5	1	n/a	n/a	n/a	n/a	n/a
4258951	RECOG_RESP	n/a	LTP289	ltpFR	6	6	0	JUPITER	765	1	n/a	1	n/a	n/a	n/a	n/a	n/a
4260206	RECOG_CONF	n/a	LTP289	ltpFR	6	6	0	JUPITER	765	n/a	5	1	n/a	n/a	n/a	n/a	n/a
4262355	RECOG_LURE	n/a	LTP289	ltpFR	6	6	n/a	JUVENILE	767	0	4	n/a	n/a	n/a	n/a	n/a	n/a
4263336	RECOG_RESP	n/a	LTP289	ltpFR	6	6	n/a	JUVENILE	767	0	n/a	n/a	n/a	n/a	n/a	n/a	n/a
4264716	RECOG_CONF	n/a	LTP289	ltpFR	6	6	n/a	JUVENILE	767	n/a	4	n/a	n/a	n/a	n/a	n/a	n/a
4266839	RECOG_TARGET	n/a	LTP289	ltpFR	6	6	1	MEDAL	885	0	2	0	n/a	n/a	n/a	n/a	n/a
4267886	RECOG_RESP	n/a	LTP289	ltpFR	6	6	1	MEDAL	885	0	n/a	0	n/a	n/a	n/a	n/a	n/a
4269376	RECOG_CONF	n/a	LTP289	ltpFR	6	6	1	MEDAL	885	n/a	2	0	n/a	n/a	n/a	n/a	n/a
4271623	RECOG_LURE	n/a	LTP289	ltpFR	6	6	n/a	HERB	704	0	1	n/a	n/a	n/a	n/a	n/a	n/a
4273071	RECOG_RESP	n/a	LTP289	ltpFR	6	6	n/a	HERB	704	0	n/a	n/a	n/a	n/a	n/a	n/a	n/a
4274466	RECOG_CONF	n/a	LTP289	ltpFR	6	6	n/a	HERB	704	n/a	1	n/a	n/a	n/a	n/a	n/a	n/a
4276358	RECOG_LURE	n/a	LTP289	ltpFR	6	6	n/a	HOSTAGE	722	0	3	n/a	n/a	n/a	n/a	n/a	n/a
4277426	RECOG_RESP	n/a	LTP289	ltpFR	6	6	n/a	HOSTAGE	722	0	n/a	n/a	n/a	n/a	n/a	n/a	n/a
4279176	RECOG_CONF	n/a	LTP289	ltpFR	6	6	n/a	HOSTAGE	722	n/a	3	n/a	n/a	n/a	n/a	n/a	n/a
4281336	RECOG_TARGET	n/a	LTP289	ltpFR	6	6	1	MEAL	882	1	4	0	n/a	n/a	n/a	n/a	n/a
4282106	RECOG_RESP	n/a	LTP289	ltpFR	6	6	1	MEAL	882	1	n/a	0	n/a	n/a	n/a	n/a	n/a
4283416	RECOG_CONF	n/a	LTP289	ltpFR	6	6	1	MEAL	882	n/a	4	0	n/a	n/a	n/a	n/a	n/a
4285475	RECOG_LURE	n/a	LTP289	ltpFR	6	6	n/a	PECAN	1036	0	1	n/a	n/a	n/a	n/a	n/a	n/a
4287176	RECOG_RESP	n/a	LTP289	ltpFR	6	6	n/a	PECAN	1036	0	n/a	n/a	n/a	n/a	n/a	n/a	n/a
4288606	RECOG_CONF	n/a	LTP289	ltpFR	6	6	n/a	PECAN	1036	n/a	1	n/a	n/a	n/a	n/a	n/a	n/a
4290688	RECOG_TARGET	n/a	LTP289	ltpFR	6	6	-1	ENGINEER	536	1	5	-1	n/a	n/a	n/a	n/a	n/a
4291426	RECOG_RESP	n/a	LTP289	ltpFR	6	6	-1	ENGINEER	536	1	n/a	-1	n/a	n/a	n/a	n/a	n/a
4292696	RECOG_CONF	n/a	LTP289	ltpFR	6	6	-1	ENGINEER	536	n/a	5	-1	n/a	n/a	n/a	n/a	n/a
4294795	RECOG_LURE	n/a	LTP289	ltpFR	6	6	n/a	VOLCANO	1575	0	5	n/a	n/a	n/a	n/a	n/a	n/a
4295606	RECOG_RESP	n/a	LTP289	ltpFR	6	6	n/a	VOLCANO	1575	0	n/a	n/a	n/a	n/a	n/a	n/a	n/a
4296628	RECOG_CONF	n/a	LTP289	ltpFR	6	6	n/a	VOLCANO	1575	n/a	5	n/a	n/a	n/a	n/a	n/a	n/a
4298793	RECOG_LURE	n/a	LTP289	ltpFR	6	6	n/a	HARE	688	0	4	n/a	n/a	n/a	n/a	n/a	n/a
4299866	RECOG_RESP	n/a	LTP289	ltpFR	6	6	n/a	HARE	688	0	n/a	n/a	n/a	n/a	n/a	n/a	n/a
4301176	RECOG_CONF	n/a	LTP289	ltpFR	6	6	n/a	HARE	688	n/a	4	n/a	n/a	n/a	n/a	n/a	n/a
4322085	REC_START	n/a	LTP289	ltpFR	6	7	n/a	n/a	n/a	n/a	n/a	n/a	n/a	n/a	n/a	n/a	n/a
4322147	RECOG_TARGET	n/a	LTP289	ltpFR	6	7	1	MICROPHONE	890	0	1	0	n/a	n/a	n/a	n/a	n/a
4323495	RECOG_RESP	n/a	LTP289	ltpFR	6	7	1	MICROPHONE	890	0	n/a	0	n/a	n/a	n/a	n/a	n/a
4324785	RECOG_CONF	n/a	LTP289	ltpFR	6	7	1	MICROPHONE	890	n/a	1	0	n/a	n/a	n/a	n/a	n/a
4326775	RECOG_TARGET	n/a	LTP289	ltpFR	6	7	1	WARRIOR	1589	1	5	1	n/a	n/a	n/a	n/a	n/a
4327485	RECOG_RESP	n/a	LTP289	ltpFR	6	7	1	WARRIOR	1589	1	n/a	1	n/a	n/a	n/a	n/a	n/a
4328735	RECOG_CONF	n/a	LTP289	ltpFR	6	7	1	WARRIOR	1589	n/a	5	1	n/a	n/a	n/a	n/a	n/a
4330689	RECOG_LURE	n/a	LTP289	ltpFR	6	7	n/a	KEG	770	0	3	n/a	n/a	n/a	n/a	n/a	n/a
4331585	RECOG_RESP	n/a	LTP289	ltpFR	6	7	n/a	KEG	770	0	n/a	n/a	n/a	n/a	n/a	n/a	n/a
4332765	RECOG_CONF	n/a	LTP289	ltpFR	6	7	n/a	KEG	770	n/a	3	n/a	n/a	n/a	n/a	n/a	n/a
4334846	RECOG_LURE	n/a	LTP289	ltpFR	6	7	n/a	COWARD	394	0	4	n/a	n/a	n/a	n/a	n/a	n/a
4335810	RECOG_RESP	n/a	LTP289	ltpFR	6	7	n/a	COWARD	394	0	n/a	n/a	n/a	n/a	n/a	n/a	n/a
4337265	RECOG_CONF	n/a	LTP289	ltpFR	6	7	n/a	COWARD	394	n/a	4	n/a	n/a	n/a	n/a	n/a	n/a
4339372	RECOG_TARGET	n/a	LTP289	ltpFR	6	7	0	TUB	1514	1	3	1	n/a	n/a	n/a	n/a	n/a
4340380	RECOG_RESP	n/a	LTP289	ltpFR	6	7	0	TUB	1514	1	n/a	1	n/a	n/a	n/a	n/a	n/a
4341725	RECOG_CONF	n/a	LTP289	ltpFR	6	7	0	TUB	1514	n/a	3	1	n/a	n/a	n/a	n/a	n/a
4343756	RECOG_TARGET	n/a	LTP289	ltpFR	6	7	-1	COBBLER	335	1	5	-1	n/a	n/a	n/a	n/a	n/a
4344500	RECOG_RESP	n/a	LTP289	ltpFR	6	7	-1	COBBLER	335	1	n/a	-1	n/a	n/a	n/a	n/a	n/a
4345755	RECOG_CONF	n/a	LTP289	ltpFR	6	7	-1	COBBLER	335	n/a	5	-1	n/a	n/a	n/a	n/a	n/a
4347855	RECOG_TARGET	n/a	LTP289	ltpFR	6	7	1	SQUID	1361	1	5	1	n/a	n/a	n/a	n/a	n/a
4348645	RECOG_RESP	n/a	LTP289	ltpFR	6	7	1	SQUID	1361	1	n/a	1	n/a	n/a	n/a	n/a	n/a
4350025	RECOG_CONF	n/a	LTP289	ltpFR	6	7	1	SQUID	1361	n/a	5	1	n/a	n/a	n/a	n/a	n/a
4352160	RECOG_TARGET	n/a	LTP289	ltpFR	6	7	-1	SUPPER	1411	1	4	-1	n/a	n/a	n/a	n/a	n/a
4352900	RECOG_RESP	n/a	LTP289	ltpFR	6	7	-1	SUPPER	1411	1	n/a	-1	n/a	n/a	n/a	n/a	n/a
4354095	RECOG_CONF	n/a	LTP289	ltpFR	6	7	-1	SUPPER	1411	n/a	4	-1	n/a	n/a	n/a	n/a	n/a
4356242	RECOG_LURE	n/a	LTP289	ltpFR	6	7	n/a	BISCUIT	130	0	2	n/a	n/a	n/a	n/a	n/a	n/a
4357275	RECOG_RESP	n/a	LTP289	ltpFR	6	7	n/a	BISCUIT	130	0	n/a	n/a	n/a	n/a	n/a	n/a	n/a
4358985	RECOG_CONF	n/a	LTP289	ltpFR	6	7	n/a	BISCUIT	130	n/a	2	n/a	n/a	n/a	n/a	n/a	n/a
4361044	RECOG_LURE	n/a	LTP289	ltpFR	6	7	n/a	COURSE	390	0	3	n/a	n/a	n/a	n/a	n/a	n/a
4361915	RECOG_RESP	n/a	LTP289	ltpFR	6	7	n/a	COURSE	390	0	n/a	n/a	n/a	n/a	n/a	n/a	n/a
4363215	RECOG_CONF	n/a	LTP289	ltpFR	6	7	n/a	COURSE	390	n/a	3	n/a	n/a	n/a	n/a	n/a	n/a
4365259	RECOG_LURE	n/a	LTP289	ltpFR	6	7	n/a	AWARD	63	0	1	n/a	n/a	n/a	n/a	n/a	n/a
4366445	RECOG_RESP	n/a	LTP289	ltpFR	6	7	n/a	AWARD	63	0	n/a	n/a	n/a	n/a	n/a	n/a	n/a
4367838	RECOG_CONF	n/a	LTP289	ltpFR	6	7	n/a	AWARD	63	n/a	1	n/a	n/a	n/a	n/a	n/a	n/a
4369794	RECOG_LURE	n/a	LTP289	ltpFR	6	7	n/a	NEST	945	1	2	n/a	n/a	n/a	n/a	n/a	n/a
4370820	RECOG_RESP	n/a	LTP289	ltpFR	6	7	n/a	NEST	945	1	n/a	n/a	n/a	n/a	n/a	n/a	n/a
4372275	RECOG_CONF	n/a	LTP289	ltpFR	6	7	n/a	NEST	945	n/a	2	n/a	n/a	n/a	n/a	n/a	n/a
4374377	RECOG_LURE	n/a	LTP289	ltpFR	6	7	n/a	JUG	762	1	1	n/a	n/a	n/a	n/a	n/a	n/a
4375180	RECOG_RESP	n/a	LTP289	ltpFR	6	7	n/a	JUG	762	1	n/a	n/a	n/a	n/a	n/a	n/a	n/a
4376385	RECOG_CONF	n/a	LTP289	ltpFR	6	7	n/a	JUG	762	n/a	1	n/a	n/a	n/a	n/a	n/a	n/a
4378258	RECOG_LURE	n/a	LTP289	ltpFR	6	7	n/a	VIDEO	1564	0	1	n/a	n/a	n/a	n/a	n/a	n/a
4379835	RECOG_RESP	n/a	LTP289	ltpFR	6	7	n/a	VIDEO	1564	0	n/a	n/a	n/a	n/a	n/a	n/a	n/a
4381195	RECOG_CONF	n/a	LTP289	ltpFR	6	7	n/a	VIDEO	1564	n/a	1	n/a	n/a	n/a	n/a	n/a	n/a
4383210	RECOG_LURE	n/a	LTP289	ltpFR	6	7	n/a	WRENCH	1625	0	3	n/a	n/a	n/a	n/a	n/a	n/a
4384035	RECOG_RESP	n/a	LTP289	ltpFR	6	7	n/a	WRENCH	1625	0	n/a	n/a	n/a	n/a	n/a	n/a	n/a
4385395	RECOG_CONF	n/a	LTP289	ltpFR	6	7	n/a	WRENCH	1625	n/a	3	n/a	n/a	n/a	n/a	n/a	n/a
4387470	RECOG_LURE	n/a	LTP289	ltpFR	6	7	n/a	BISON	131	0	3	n/a	n/a	n/a	n/a	n/a	n/a
4388335	RECOG_RESP	n/a	LTP289	ltpFR	6	7	n/a	BISON	131	0	n/a	n/a	n/a	n/a	n/a	n/a	n/a
4389895	RECOG_CONF	n/a	LTP289	ltpFR	6	7	n/a	BISON	131	n/a	3	n/a	n/a	n/a	n/a	n/a	n/a
4391871	RECOG_LURE	n/a	LTP289	ltpFR	6	7	n/a	PRIEST	1122	0	5	n/a	n/a	n/a	n/a	n/a	n/a
4392680	RECOG_RESP	n/a	LTP289	ltpFR	6	7	n/a	PRIEST	1122	0	n/a	n/a	n/a	n/a	n/a	n/a	n/a
4393965	RECOG_CONF	n/a	LTP289	ltpFR	6	7	n/a	PRIEST	1122	n/a	5	n/a	n/a	n/a	n/a	n/a	n/a
4396043	RECOG_TARGET	n/a	LTP289	ltpFR	6	7	-1	SUBWAY	1400	0	1	-1	n/a	n/a	n/a	n/a	n/a
4397475	RECOG_RESP	n/a	LTP289	ltpFR	6	7	-1	SUBWAY	1400	0	n/a	-1	n/a	n/a	n/a	n/a	n/a
4398855	RECOG_CONF	n/a	LTP289	ltpFR	6	7	-1	SUBWAY	1400	n/a	1	-1	n/a	n/a	n/a	n/a	n/a
4400744	RECOG_TARGET	n/a	LTP289	ltpFR	6	7	-1	BEEF	113	1	4	-1	n/a	n/a	n/a	n/a	n/a
4401675	RECOG_RESP	n/a	LTP289	ltpFR	6	7	-1	BEEF	113	1	n/a	-1	n/a	n/a	n/a	n/a	n/a
4403285	RECOG_CONF	n/a	LTP289	ltpFR	6	7	-1	BEEF	113	n/a	4	-1	n/a	n/a	n/a	n/a	n/a
4405461	RECOG_TARGET	n/a	LTP289	ltpFR	6	7	0	CANDIDATE	228	1	2	1	n/a	n/a	n/a	n/a	n/a
4406950	RECOG_RESP	n/a	LTP289	ltpFR	6	7	0	CANDIDATE	228	1	n/a	1	n/a	n/a	n/a	n/a	n/a
4408505	RECOG_CONF	n/a	LTP289	ltpFR	6	7	0	CANDIDATE	228	n/a	2	1	n/a	n/a	n/a	n/a	n/a
4435161	REC_START	n/a	LTP289	ltpFR	6	8	n/a	n/a	n/a	n/a	n/a	n/a	n/a	n/a	n/a	n/a	n/a
4435223	RECOG_TARGET	n/a	LTP289	ltpFR	6	8	0	BLACKBERRY	132	1	5	0	n/a	n/a	n/a	n/a	n/a
4436086	RECOG_RESP	n/a	LTP289	ltpFR	6	8	0	BLACKBERRY	132	1	n/a	0	n/a	n/a	n/a	n/a	n/a
4436781	RECOG_CONF	n/a	LTP289	ltpFR	6	8	0	BLACKBERRY	132	n/a	5	0	n/a	n/a	n/a	n/a	n/a
4439449	RECOG_LURE	n/a	LTP289	ltpFR	6	8	n/a	TOMBSTONE	1478	0	4	n/a	n/a	n/a	n/a	n/a	n/a
4440171	RECOG_RESP	n/a	LTP289	ltpFR	6	8	n/a	TOMBSTONE	1478	0	n/a	n/a	n/a	n/a	n/a	n/a	n/a
4441571	RECOG_CONF	n/a	LTP289	ltpFR	6	8	n/a	TOMBSTONE	1478	n/a	4	n/a	n/a	n/a	n/a	n/a	n/a
4443890	RECOG_TARGET	n/a	LTP289	ltpFR	6	8	1	SHOULDER	1294	1	1	0	n/a	n/a	n/a	n/a	n/a
4446056	RECOG_RESP	n/a	LTP289	ltpFR	6	8	1	SHOULDER	1294	1	n/a	0	n/a	n/a	n/a	n/a	n/a
4447281	RECOG_CONF	n/a	LTP289	ltpFR	6	8	1	SHOULDER	1294	n/a	1	0	n/a	n/a	n/a	n/a	n/a
4449310	RECOG_LURE	n/a	LTP289	ltpFR	6	8	n/a	ORCHID	982	0	4	n/a	n/a	n/a	n/a	n/a	n/a
4450131	RECOG_RESP	n/a	LTP289	ltpFR	6	8	n/a	ORCHID	982	0	n/a	n/a	n/a	n/a	n/a	n/a	n/a
4451371	RECOG_CONF	n/a	LTP289	ltpFR	6	8	n/a	ORCHID	982	n/a	4	n/a	n/a	n/a	n/a	n/a	n/a
4453559	RECOG_LURE	n/a	LTP289	ltpFR	6	8	n/a	TWIN	1528	0	5	n/a	n/a	n/a	n/a	n/a	n/a
4454391	RECOG_RESP	n/a	LTP289	ltpFR	6	8	n/a	TWIN	1528	0	n/a	n/a	n/a	n/a	n/a	n/a	n/a
4455811	RECOG_CONF	n/a	LTP289	ltpFR	6	8	n/a	TWIN	1528	n/a	5	n/a	n/a	n/a	n/a	n/a	n/a
4457836	RECOG_TARGET	n/a	LTP289	ltpFR	6	8	0	TAPE	1433	1	3	0	n/a	n/a	n/a	n/a	n/a
4459056	RECOG_RESP	n/a	LTP289	ltpFR	6	8	0	TAPE	1433	1	n/a	0	n/a	n/a	n/a	n/a	n/a
4460244	RECOG_CONF	n/a	LTP289	ltpFR	6	8	0	TAPE	1433	n/a	3	0	n/a	n/a	n/a	n/a	n/a
4462375	RECOG_TARGET	n/a	LTP289	ltpFR	6	8	0	DOG	480	1	4	1	n/a	n/a	n/a	n/a	n/a
4463056	RECOG_RESP	n/a	LTP289	ltpFR	6	8	0	DOG	480	1	n/a	1	n/a	n/a	n/a	n/a	n/a
4464401	RECOG_CONF	n/a	LTP289	ltpFR	6	8	0	DOG	480	n/a	4	1	n/a	n/a	n/a	n/a	n/a
