onset	duration	trial_type	sample	stim_file	subject	experiment	session	trial	item_name	item_num	list	answer	test_x	test_y	test_z
210.936	n/a	SESS_START	105468	n/a	LTP325	ltpFR2	8	n/a	n/a	n/a	n/a	n/a	0	0	0
221.29	n/a	START	110645	n/a	LTP325	ltpFR2	8	n/a	n/a	n/a	-1	n/a	n/a	n/a	n/a
221.304	n/a	PROB	110652	n/a	LTP325	ltpFR2	8	n/a	n/a	n/a	-1	16	5	6	5
223.838	n/a	PROB	111919	n/a	LTP325	ltpFR2	8	n/a	n/a	n/a	-1	14	1	9	4
225.106	n/a	PROB	112553	n/a	LTP325	ltpFR2	8	n/a	n/a	n/a	-1	15	4	3	8
228.792	n/a	PROB	114396	n/a	LTP325	ltpFR2	8	n/a	n/a	n/a	-1	17	5	7	5
230.294	n/a	PROB	115147	n/a	LTP325	ltpFR2	8	n/a	n/a	n/a	-1	14	1	5	8
232.752	n/a	STOP	116376	n/a	LTP325	ltpFR2	8	n/a	n/a	n/a	-1	n/a	n/a	n/a	n/a
260.222	n/a	DISTRACTOR	130111	n/a	LTP325	ltpFR2	8	1	n/a	n/a	n/a	n/a	0	0	0
260.224	n/a	START	130112	n/a	LTP325	ltpFR2	8	n/a	n/a	n/a	1	n/a	n/a	n/a	n/a
260.238	n/a	PROB	130119	n/a	LTP325	ltpFR2	8	n/a	n/a	n/a	1	12	1	3	8
263.156	n/a	PROB	131578	n/a	LTP325	ltpFR2	8	n/a	n/a	n/a	1	19	7	5	7
265.042	n/a	PROB	132521	n/a	LTP325	ltpFR2	8	n/a	n/a	n/a	1	20	6	9	5
267.762	n/a	PROB	133881	n/a	LTP325	ltpFR2	8	n/a	n/a	n/a	1	16	6	7	3
269.296	n/a	PROB	134648	n/a	LTP325	ltpFR2	8	n/a	n/a	n/a	1	16	2	7	7
271.046	n/a	PROB	135523	n/a	LTP325	ltpFR2	8	n/a	n/a	n/a	1	12	1	5	6
272.698	n/a	PROB	136349	n/a	LTP325	ltpFR2	8	n/a	n/a	n/a	1	22	7	7	8
277.92	n/a	PROB	138960	n/a	LTP325	ltpFR2	8	n/a	n/a	n/a	1	19	8	9	2
280.088	n/a	PROB	140044	n/a	LTP325	ltpFR2	8	n/a	n/a	n/a	1	14	6	1	8
282.866	n/a	STOP	141433	n/a	LTP325	ltpFR2	8	n/a	n/a	n/a	1	n/a	n/a	n/a	n/a
285.06	n/a	WORD	142530	wordpools/wasnorm_wordpool_576.txt	LTP325	ltpFR2	8	1	LASER	801	n/a	n/a	0	0	0
287.578	n/a	WORD	143789	wordpools/wasnorm_wordpool_576.txt	LTP325	ltpFR2	8	1	LIZARD	834	n/a	n/a	0	0	0
290.262	n/a	WORD	145131	wordpools/wasnorm_wordpool_576.txt	LTP325	ltpFR2	8	1	FRANCE	601	n/a	n/a	0	0	0
293.034	n/a	WORD	146517	wordpools/wasnorm_wordpool_576.txt	LTP325	ltpFR2	8	1	BULLET	194	n/a	n/a	0	0	0
295.736	n/a	WORD	147868	wordpools/wasnorm_wordpool_576.txt	LTP325	ltpFR2	8	1	RIFLE	1192	n/a	n/a	0	0	0
298.172	n/a	WORD	149086	wordpools/wasnorm_wordpool_576.txt	LTP325	ltpFR2	8	1	PISTON	1076	n/a	n/a	0	0	0
300.806	n/a	WORD	150403	wordpools/wasnorm_wordpool_576.txt	LTP325	ltpFR2	8	1	FUNGUS	614	n/a	n/a	0	0	0
303.558	n/a	WORD	151779	wordpools/wasnorm_wordpool_576.txt	LTP325	ltpFR2	8	1	HOOD	714	n/a	n/a	0	0	0
306.36	n/a	WORD	153180	wordpools/wasnorm_wordpool_576.txt	LTP325	ltpFR2	8	1	GUARD	667	n/a	n/a	0	0	0
308.796	n/a	WORD	154398	wordpools/wasnorm_wordpool_576.txt	LTP325	ltpFR2	8	1	TAXI	1438	n/a	n/a	0	0	0
311.582	n/a	WORD	155791	wordpools/wasnorm_wordpool_576.txt	LTP325	ltpFR2	8	1	PEDAL	1037	n/a	n/a	0	0	0
314.218	n/a	WORD	157109	wordpools/wasnorm_wordpool_576.txt	LTP325	ltpFR2	8	1	LAPEL	800	n/a	n/a	0	0	0
316.736	n/a	WORD	158368	wordpools/wasnorm_wordpool_576.txt	LTP325	ltpFR2	8	1	PIMPLE	1071	n/a	n/a	0	0	0
319.388	n/a	WORD	159694	wordpools/wasnorm_wordpool_576.txt	LTP325	ltpFR2	8	1	NECKLACE	940	n/a	n/a	0	0	0
322.04	n/a	WORD	161020	wordpools/wasnorm_wordpool_576.txt	LTP325	ltpFR2	8	1	VALVE	1546	n/a	n/a	0	0	0
324.66	n/a	WORD	162330	wordpools/wasnorm_wordpool_576.txt	LTP325	ltpFR2	8	1	HANDBAG	684	n/a	n/a	0	0	0
327.164	n/a	WORD	163582	wordpools/wasnorm_wordpool_576.txt	LTP325	ltpFR2	8	1	MACHINE	852	n/a	n/a	0	0	0
329.68	n/a	WORD	164840	wordpools/wasnorm_wordpool_576.txt	LTP325	ltpFR2	8	1	GARBAGE	622	n/a	n/a	0	0	0
332.432	n/a	WORD	166216	wordpools/wasnorm_wordpool_576.txt	LTP325	ltpFR2	8	1	QUARTER	1148	n/a	n/a	0	0	0
334.952	n/a	WORD	167476	wordpools/wasnorm_wordpool_576.txt	LTP325	ltpFR2	8	1	DORM	488	n/a	n/a	0	0	0
337.702	n/a	WORD	168851	wordpools/wasnorm_wordpool_576.txt	LTP325	ltpFR2	8	1	COBRA	336	n/a	n/a	0	0	0
340.44	n/a	WORD	170220	wordpools/wasnorm_wordpool_576.txt	LTP325	ltpFR2	8	1	FLEET	578	n/a	n/a	0	0	0
342.958	n/a	WORD	171479	wordpools/wasnorm_wordpool_576.txt	LTP325	ltpFR2	8	1	FREEZER	604	n/a	n/a	0	0	0
345.608	n/a	WORD	172804	wordpools/wasnorm_wordpool_576.txt	LTP325	ltpFR2	8	1	KLEENEX	782	n/a	n/a	0	0	0
347.214	n/a	START	173607	n/a	LTP325	ltpFR2	8	n/a	n/a	n/a	2	n/a	n/a	n/a	n/a
348.016	n/a	DISTRACTOR	174008	n/a	LTP325	ltpFR2	8	1	n/a	n/a	n/a	n/a	0	0	0
348.028	n/a	PROB	174014	n/a	LTP325	ltpFR2	8	n/a	n/a	n/a	2	13	6	6	1
349.962	n/a	PROB	174981	n/a	LTP325	ltpFR2	8	n/a	n/a	n/a	2	8	1	4	3
351.948	n/a	PROB	175974	n/a	LTP325	ltpFR2	8	n/a	n/a	n/a	2	17	5	8	4
354.682	n/a	PROB	177341	n/a	LTP325	ltpFR2	8	n/a	n/a	n/a	2	13	5	3	5
356.3	n/a	PROB	178150	n/a	LTP325	ltpFR2	8	n/a	n/a	n/a	2	16	3	5	8
358.838	n/a	PROB	179419	n/a	LTP325	ltpFR2	8	n/a	n/a	n/a	2	13	3	4	6
362.974	n/a	PROB	181487	n/a	LTP325	ltpFR2	8	n/a	n/a	n/a	2	17	8	1	8
364.84	n/a	PROB	182420	n/a	LTP325	ltpFR2	8	n/a	n/a	n/a	2	7	3	4	2
366.978	n/a	PROB	183489	n/a	LTP325	ltpFR2	8	n/a	n/a	n/a	2	7	2	4	1
368.832	n/a	PROB	184416	n/a	LTP325	ltpFR2	8	n/a	n/a	n/a	2	14	8	2	4
370.316	n/a	STOP	185158	n/a	LTP325	ltpFR2	8	n/a	n/a	n/a	2	n/a	n/a	n/a	n/a
373.152	n/a	REC_START	186576	n/a	LTP325	ltpFR2	8	1	n/a	n/a	n/a	n/a	0	0	0
374.686	n/a	REC_WORD	187343	wordpools/wasnorm_wordpool_576.txt	LTP325	ltpFR2	8	1	FLEET	578	n/a	n/a	0	0	0
376.366	n/a	REC_WORD	188183	wordpools/wasnorm_wordpool_576.txt	LTP325	ltpFR2	8	1	COBRA	336	n/a	n/a	0	0	0
377.994	n/a	REC_WORD	188997	wordpools/wasnorm_wordpool_576.txt	LTP325	ltpFR2	8	1	HANDBAG	684	n/a	n/a	0	0	0
379.918	n/a	REC_WORD	189959	wordpools/wasnorm_wordpool_576.txt	LTP325	ltpFR2	8	1	DORM	488	n/a	n/a	0	0	0
381.55	n/a	REC_WORD	190775	wordpools/wasnorm_wordpool_576.txt	LTP325	ltpFR2	8	1	FREEZER	604	n/a	n/a	0	0	0
383.76	n/a	REC_WORD	191880	wordpools/wasnorm_wordpool_576.txt	LTP325	ltpFR2	8	1	KLEENEX	782	n/a	n/a	0	0	0
386.784	n/a	REC_WORD	193392	wordpools/wasnorm_wordpool_576.txt	LTP325	ltpFR2	8	1	LASER	801	n/a	n/a	0	0	0
389.504	n/a	REC_WORD	194752	wordpools/wasnorm_wordpool_576.txt	LTP325	ltpFR2	8	1	LIZARD	834	n/a	n/a	0	0	0
391.468	n/a	REC_WORD	195734	wordpools/wasnorm_wordpool_576.txt	LTP325	ltpFR2	8	1	FRANCE	601	n/a	n/a	0	0	0
394.96	n/a	REC_WORD	197480	wordpools/wasnorm_wordpool_576.txt	LTP325	ltpFR2	8	1	FUNGUS	614	n/a	n/a	0	0	0
401.082	n/a	REC_WORD	200541	wordpools/wasnorm_wordpool_576.txt	LTP325	ltpFR2	8	1	BULLET	194	n/a	n/a	0	0	0
402.51	n/a	REC_WORD	201255	wordpools/wasnorm_wordpool_576.txt	LTP325	ltpFR2	8	1	RIFLE	1192	n/a	n/a	0	0	0
404.116	n/a	REC_WORD	202058	wordpools/wasnorm_wordpool_576.txt	LTP325	ltpFR2	8	1	PISTON	1076	n/a	n/a	0	0	0
405.908	n/a	REC_WORD	202954	wordpools/wasnorm_wordpool_576.txt	LTP325	ltpFR2	8	1	HOOD	714	n/a	n/a	0	0	0
407.708	n/a	REC_WORD	203854	wordpools/wasnorm_wordpool_576.txt	LTP325	ltpFR2	8	1	GUARD	667	n/a	n/a	0	0	0
421.816	n/a	REC_WORD	210908	wordpools/wasnorm_wordpool_576.txt	LTP325	ltpFR2	8	1	LAPEL	800	n/a	n/a	0	0	0
442.504	n/a	REC_WORD	221252	wordpools/wasnorm_wordpool_576.txt	LTP325	ltpFR2	8	1	TAXI	1438	n/a	n/a	0	0	0
444.144	n/a	REC_WORD	222072	wordpools/wasnorm_wordpool_576.txt	LTP325	ltpFR2	8	1	PEDAL	1037	n/a	n/a	0	0	0
463.586	n/a	DISTRACTOR	231793	n/a	LTP325	ltpFR2	8	2	n/a	n/a	n/a	n/a	0	0	0
463.586	n/a	START	231793	n/a	LTP325	ltpFR2	8	n/a	n/a	n/a	3	n/a	n/a	n/a	n/a
463.604	n/a	PROB	231802	n/a	LTP325	ltpFR2	8	n/a	n/a	n/a	3	7	5	1	1
465.246	n/a	PROB	232623	n/a	LTP325	ltpFR2	8	n/a	n/a	n/a	3	10	6	3	1
467.048	n/a	PROB	233524	n/a	LTP325	ltpFR2	8	n/a	n/a	n/a	3	23	9	8	6
470.704	n/a	PROB	235352	n/a	LTP325	ltpFR2	8	n/a	n/a	n/a	3	14	8	2	4
471.954	n/a	PROB	235977	n/a	LTP325	ltpFR2	8	n/a	n/a	n/a	3	16	9	3	4
474.738	n/a	PROB	237369	n/a	LTP325	ltpFR2	8	n/a	n/a	n/a	3	19	5	9	5
476.14	n/a	PROB	238070	n/a	LTP325	ltpFR2	8	n/a	n/a	n/a	3	18	4	5	9
478.574	n/a	PROB	239287	n/a	LTP325	ltpFR2	8	n/a	n/a	n/a	3	14	6	3	3
480.494	n/a	PROB	240247	n/a	LTP325	ltpFR2	8	n/a	n/a	n/a	3	12	4	4	3
487.586	n/a	STOP	243793	n/a	LTP325	ltpFR2	8	n/a	n/a	n/a	3	n/a	n/a	n/a	n/a
488.734	n/a	WORD	244367	wordpools/wasnorm_wordpool_576.txt	LTP325	ltpFR2	8	2	CEILING	265	n/a	n/a	0	0	0
491.154	n/a	WORD	245577	wordpools/wasnorm_wordpool_576.txt	LTP325	ltpFR2	8	2	CLAM	315	n/a	n/a	0	0	0
493.878	n/a	WORD	246939	wordpools/wasnorm_wordpool_576.txt	LTP325	ltpFR2	8	2	YARN	1631	n/a	n/a	0	0	0
496.51	n/a	WORD	248255	wordpools/wasnorm_wordpool_576.txt	LTP325	ltpFR2	8	2	SKIRT	1319	n/a	n/a	0	0	0
499.116	n/a	WORD	249558	wordpools/wasnorm_wordpool_576.txt	LTP325	ltpFR2	8	2	BANQUET	86	n/a	n/a	0	0	0
501.88	n/a	WORD	250940	wordpools/wasnorm_wordpool_576.txt	LTP325	ltpFR2	8	2	MONEY	908	n/a	n/a	0	0	0
504.516	n/a	WORD	252258	wordpools/wasnorm_wordpool_576.txt	LTP325	ltpFR2	8	2	PARENT	1013	n/a	n/a	0	0	0
507.0	n/a	WORD	253500	wordpools/wasnorm_wordpool_576.txt	LTP325	ltpFR2	8	2	BEEF	113	n/a	n/a	0	0	0
509.62	n/a	WORD	254810	wordpools/wasnorm_wordpool_576.txt	LTP325	ltpFR2	8	2	LIVER	833	n/a	n/a	0	0	0
512.192	n/a	WORD	256096	wordpools/wasnorm_wordpool_576.txt	LTP325	ltpFR2	8	2	HUSBAND	728	n/a	n/a	0	0	0
514.924	n/a	WORD	257462	wordpools/wasnorm_wordpool_576.txt	LTP325	ltpFR2	8	2	HOOK	715	n/a	n/a	0	0	0
517.43	n/a	WORD	258715	wordpools/wasnorm_wordpool_576.txt	LTP325	ltpFR2	8	2	CLOTHES	327	n/a	n/a	0	0	0
520.128	n/a	WORD	260064	wordpools/wasnorm_wordpool_576.txt	LTP325	ltpFR2	8	2	CREVICE	405	n/a	n/a	0	0	0
522.714	n/a	WORD	261357	wordpools/wasnorm_wordpool_576.txt	LTP325	ltpFR2	8	2	LIPSTICK	829	n/a	n/a	0	0	0
525.5	n/a	WORD	262750	wordpools/wasnorm_wordpool_576.txt	LTP325	ltpFR2	8	2	NEUTRON	947	n/a	n/a	0	0	0
528.236	n/a	WORD	264118	wordpools/wasnorm_wordpool_576.txt	LTP325	ltpFR2	8	2	LEG	809	n/a	n/a	0	0	0
531.006	n/a	WORD	265503	wordpools/wasnorm_wordpool_576.txt	LTP325	ltpFR2	8	2	SIDEWALK	1303	n/a	n/a	0	0	0
533.708	n/a	WORD	266854	wordpools/wasnorm_wordpool_576.txt	LTP325	ltpFR2	8	2	BUCKET	184	n/a	n/a	0	0	0
536.392	n/a	WORD	268196	wordpools/wasnorm_wordpool_576.txt	LTP325	ltpFR2	8	2	SISTER	1312	n/a	n/a	0	0	0
538.828	n/a	WORD	269414	wordpools/wasnorm_wordpool_576.txt	LTP325	ltpFR2	8	2	BROTHER	179	n/a	n/a	0	0	0
541.314	n/a	WORD	270657	wordpools/wasnorm_wordpool_576.txt	LTP325	ltpFR2	8	2	SCALLOP	1242	n/a	n/a	0	0	0
543.982	n/a	WORD	271991	wordpools/wasnorm_wordpool_576.txt	LTP325	ltpFR2	8	2	EYELASH	546	n/a	n/a	0	0	0
546.568	n/a	WORD	273284	wordpools/wasnorm_wordpool_576.txt	LTP325	ltpFR2	8	2	BALLOON	75	n/a	n/a	0	0	0
549.204	n/a	WORD	274602	wordpools/wasnorm_wordpool_576.txt	LTP325	ltpFR2	8	2	AWARD	63	n/a	n/a	0	0	0
550.822	n/a	START	275411	n/a	LTP325	ltpFR2	8	n/a	n/a	n/a	4	n/a	n/a	n/a	n/a
551.98	n/a	DISTRACTOR	275990	n/a	LTP325	ltpFR2	8	2	n/a	n/a	n/a	n/a	0	0	0
551.988	n/a	PROB	275994	n/a	LTP325	ltpFR2	8	n/a	n/a	n/a	4	22	8	6	8
554.89	n/a	PROB	277445	n/a	LTP325	ltpFR2	8	n/a	n/a	n/a	4	9	1	6	2
556.708	n/a	PROB	278354	n/a	LTP325	ltpFR2	8	n/a	n/a	n/a	4	16	6	2	8
558.444	n/a	PROB	279222	n/a	LTP325	ltpFR2	8	n/a	n/a	n/a	4	17	5	7	5
559.98	n/a	PROB	279990	n/a	LTP325	ltpFR2	8	n/a	n/a	n/a	4	14	8	4	2
561.516	n/a	PROB	280758	n/a	LTP325	ltpFR2	8	n/a	n/a	n/a	4	14	9	1	4
562.948	n/a	PROB	281474	n/a	LTP325	ltpFR2	8	n/a	n/a	n/a	4	17	5	7	5
564.384	n/a	PROB	282192	n/a	LTP325	ltpFR2	8	n/a	n/a	n/a	4	15	3	5	7
565.934	n/a	PROB	282967	n/a	LTP325	ltpFR2	8	n/a	n/a	n/a	4	16	2	9	5
567.768	n/a	PROB	283884	n/a	LTP325	ltpFR2	8	n/a	n/a	n/a	4	17	3	8	6
570.222	n/a	PROB	285111	n/a	LTP325	ltpFR2	8	n/a	n/a	n/a	4	15	6	4	5
574.824	n/a	STOP	287412	n/a	LTP325	ltpFR2	8	n/a	n/a	n/a	4	n/a	n/a	n/a	n/a
576.778	n/a	REC_START	288389	n/a	LTP325	ltpFR2	8	2	n/a	n/a	n/a	n/a	0	0	0
584.036	n/a	REC_WORD	292018	wordpools/wasnorm_wordpool_576.txt	LTP325	ltpFR2	8	2	EYELASH	546	n/a	n/a	0	0	0
586.546	n/a	REC_WORD	293273	wordpools/wasnorm_wordpool_576.txt	LTP325	ltpFR2	8	2	LIPSTICK	829	n/a	n/a	0	0	0
589.072	n/a	REC_WORD	294536	wordpools/wasnorm_wordpool_576.txt	LTP325	ltpFR2	8	2	BANQUET	86	n/a	n/a	0	0	0
591.108	n/a	REC_WORD	295554	wordpools/wasnorm_wordpool_576.txt	LTP325	ltpFR2	8	2	MONEY	908	n/a	n/a	0	0	0
594.114	n/a	REC_WORD	297057	wordpools/wasnorm_wordpool_576.txt	LTP325	ltpFR2	8	2	BEEF	113	n/a	n/a	0	0	0
595.992	n/a	REC_WORD	297996	wordpools/wasnorm_wordpool_576.txt	LTP325	ltpFR2	8	2	LIVER	833	n/a	n/a	0	0	0
598.63	n/a	REC_WORD	299315	wordpools/wasnorm_wordpool_576.txt	LTP325	ltpFR2	8	2	SCALLOP	1242	n/a	n/a	0	0	0
603.122	n/a	REC_WORD	301561	wordpools/wasnorm_wordpool_576.txt	LTP325	ltpFR2	8	2	PARENT	1013	n/a	n/a	0	0	0
605.13	n/a	REC_WORD	302565	wordpools/wasnorm_wordpool_576.txt	LTP325	ltpFR2	8	2	HUSBAND	728	n/a	n/a	0	0	0
607.522	n/a	REC_WORD	303761	wordpools/wasnorm_wordpool_576.txt	LTP325	ltpFR2	8	2	SISTER	1312	n/a	n/a	0	0	0
609.26	n/a	REC_WORD	304630	wordpools/wasnorm_wordpool_576.txt	LTP325	ltpFR2	8	2	BROTHER	179	n/a	n/a	0	0	0
614.994	n/a	REC_WORD	307497	wordpools/wasnorm_wordpool_576.txt	LTP325	ltpFR2	8	2	LEG	809	n/a	n/a	0	0	0
617.244	n/a	REC_WORD	308622	wordpools/wasnorm_wordpool_576.txt	LTP325	ltpFR2	8	2	SIDEWALK	1303	n/a	n/a	0	0	0
619.588	n/a	REC_WORD	309794	wordpools/wasnorm_wordpool_576.txt	LTP325	ltpFR2	8	2	BUCKET	184	n/a	n/a	0	0	0
622.518	n/a	REC_WORD	311259	wordpools/wasnorm_wordpool_576.txt	LTP325	ltpFR2	8	2	CEILING	265	n/a	n/a	0	0	0
624.472	n/a	REC_WORD	312236	wordpools/wasnorm_wordpool_576.txt	LTP325	ltpFR2	8	2	OYSTER	995	n/a	n/a	0	0	0
626.562	n/a	REC_WORD	313281	wordpools/wasnorm_wordpool_576.txt	LTP325	ltpFR2	8	2	YARN	1631	n/a	n/a	0	0	0
629.898	n/a	REC_WORD	314949	wordpools/wasnorm_wordpool_576.txt	LTP325	ltpFR2	8	2	SKIRT	1319	n/a	n/a	0	0	0
632.716	n/a	REC_WORD	316358	wordpools/wasnorm_wordpool_576.txt	LTP325	ltpFR2	8	2	CLOTHING	-1	n/a	n/a	0	0	0
651.302	n/a	REC_WORD	325651	wordpools/wasnorm_wordpool_576.txt	LTP325	ltpFR2	8	2	NEUTRON	947	n/a	n/a	0	0	0
667.222	n/a	WORD	333611	wordpools/wasnorm_wordpool_576.txt	LTP325	ltpFR2	8	3	COUSIN	392	n/a	n/a	0	0	0
669.842	n/a	WORD	334921	wordpools/wasnorm_wordpool_576.txt	LTP325	ltpFR2	8	3	PUPIL	1143	n/a	n/a	0	0	0
672.594	n/a	WORD	336297	wordpools/wasnorm_wordpool_576.txt	LTP325	ltpFR2	8	3	SUNSET	1408	n/a	n/a	0	0	0
675.278	n/a	WORD	337639	wordpools/wasnorm_wordpool_576.txt	LTP325	ltpFR2	8	3	BEAVER	109	n/a	n/a	0	0	0
677.756	n/a	WORD	338878	wordpools/wasnorm_wordpool_576.txt	LTP325	ltpFR2	8	3	CASKET	255	n/a	n/a	0	0	0
680.534	n/a	WORD	340267	wordpools/wasnorm_wordpool_576.txt	LTP325	ltpFR2	8	3	MUSTARD	935	n/a	n/a	0	0	0
683.344	n/a	WORD	341672	wordpools/wasnorm_wordpool_576.txt	LTP325	ltpFR2	8	3	SHERIFF	1284	n/a	n/a	0	0	0
686.03	n/a	WORD	343015	wordpools/wasnorm_wordpool_576.txt	LTP325	ltpFR2	8	3	DOUGHNUT	490	n/a	n/a	0	0	0
688.814	n/a	WORD	344407	wordpools/wasnorm_wordpool_576.txt	LTP325	ltpFR2	8	3	INFANT	737	n/a	n/a	0	0	0
691.474	n/a	WORD	345737	wordpools/wasnorm_wordpool_576.txt	LTP325	ltpFR2	8	3	GIRL	637	n/a	n/a	0	0	0
694.212	n/a	WORD	347106	wordpools/wasnorm_wordpool_576.txt	LTP325	ltpFR2	8	3	SHORTS	1293	n/a	n/a	0	0	0
696.738	n/a	WORD	348369	wordpools/wasnorm_wordpool_576.txt	LTP325	ltpFR2	8	3	FOX	598	n/a	n/a	0	0	0
699.332	n/a	WORD	349666	wordpools/wasnorm_wordpool_576.txt	LTP325	ltpFR2	8	3	MARSH	874	n/a	n/a	0	0	0
701.96	n/a	WORD	350980	wordpools/wasnorm_wordpool_576.txt	LTP325	ltpFR2	8	3	NURSE	963	n/a	n/a	0	0	0
704.67	n/a	WORD	352335	wordpools/wasnorm_wordpool_576.txt	LTP325	ltpFR2	8	3	TEACHER	1440	n/a	n/a	0	0	0
707.328	n/a	WORD	353664	wordpools/wasnorm_wordpool_576.txt	LTP325	ltpFR2	8	3	ORANGE	980	n/a	n/a	0	0	0
709.758	n/a	WORD	354879	wordpools/wasnorm_wordpool_576.txt	LTP325	ltpFR2	8	3	CHAMPAGNE	278	n/a	n/a	0	0	0
712.284	n/a	WORD	356142	wordpools/wasnorm_wordpool_576.txt	LTP325	ltpFR2	8	3	SPARROW	1347	n/a	n/a	0	0	0
714.902	n/a	WORD	357451	wordpools/wasnorm_wordpool_576.txt	LTP325	ltpFR2	8	3	WINDOW	1611	n/a	n/a	0	0	0
717.582	n/a	WORD	358791	wordpools/wasnorm_wordpool_576.txt	LTP325	ltpFR2	8	3	WORKER	1621	n/a	n/a	0	0	0
720.202	n/a	WORD	360101	wordpools/wasnorm_wordpool_576.txt	LTP325	ltpFR2	8	3	OFFICE	972	n/a	n/a	0	0	0
722.936	n/a	WORD	361468	wordpools/wasnorm_wordpool_576.txt	LTP325	ltpFR2	8	3	PADDING	999	n/a	n/a	0	0	0
725.556	n/a	WORD	362778	wordpools/wasnorm_wordpool_576.txt	LTP325	ltpFR2	8	3	VELVET	1555	n/a	n/a	0	0	0
728.242	n/a	WORD	364121	wordpools/wasnorm_wordpool_576.txt	LTP325	ltpFR2	8	3	AIRPORT	13	n/a	n/a	0	0	0
729.848	n/a	START	364924	n/a	LTP325	ltpFR2	8	n/a	n/a	n/a	5	n/a	n/a	n/a	n/a
730.904	n/a	DISTRACTOR	365452	n/a	LTP325	ltpFR2	8	3	n/a	n/a	n/a	n/a	0	0	0
730.91	n/a	PROB	365455	n/a	LTP325	ltpFR2	8	n/a	n/a	n/a	5	9	3	5	1
733.146	n/a	PROB	366573	n/a	LTP325	ltpFR2	8	n/a	n/a	n/a	5	15	3	4	8
735.746	n/a	PROB	367873	n/a	LTP325	ltpFR2	8	n/a	n/a	n/a	5	10	2	2	6
737.932	n/a	PROB	368966	n/a	LTP325	ltpFR2	8	n/a	n/a	n/a	5	6	1	4	1
739.816	n/a	PROB	369908	n/a	LTP325	ltpFR2	8	n/a	n/a	n/a	5	10	3	2	5
741.752	n/a	PROB	370876	n/a	LTP325	ltpFR2	8	n/a	n/a	n/a	5	20	8	3	9
743.77	n/a	PROB	371885	n/a	LTP325	ltpFR2	8	n/a	n/a	n/a	5	13	6	5	2
747.64	n/a	PROB	373820	n/a	LTP325	ltpFR2	8	n/a	n/a	n/a	5	20	4	7	9
753.08	n/a	STOP	376540	n/a	LTP325	ltpFR2	8	n/a	n/a	n/a	5	n/a	n/a	n/a	n/a
755.698	n/a	REC_START	377849	n/a	LTP325	ltpFR2	8	3	n/a	n/a	n/a	n/a	0	0	0
757.814	n/a	REC_WORD	378907	wordpools/wasnorm_wordpool_576.txt	LTP325	ltpFR2	8	3	INFANT	737	n/a	n/a	0	0	0
759.708	n/a	REC_WORD	379854	wordpools/wasnorm_wordpool_576.txt	LTP325	ltpFR2	8	3	GIRL	637	n/a	n/a	0	0	0
767.472	n/a	REC_WORD	383736	wordpools/wasnorm_wordpool_576.txt	LTP325	ltpFR2	8	3	SHERIFF	1284	n/a	n/a	0	0	0
769.116	n/a	REC_WORD	384558	wordpools/wasnorm_wordpool_576.txt	LTP325	ltpFR2	8	3	DOUGHNUT	490	n/a	n/a	0	0	0
770.722	n/a	REC_WORD	385361	wordpools/wasnorm_wordpool_576.txt	LTP325	ltpFR2	8	3	SPARROW	1347	n/a	n/a	0	0	0
772.538	n/a	REC_WORD	386269	wordpools/wasnorm_wordpool_576.txt	LTP325	ltpFR2	8	3	WINDOW	1611	n/a	n/a	0	0	0
785.694	n/a	REC_WORD	392847	wordpools/wasnorm_wordpool_576.txt	LTP325	ltpFR2	8	3	CASKET	255	n/a	n/a	0	0	0
787.128	n/a	REC_WORD	393564	wordpools/wasnorm_wordpool_576.txt	LTP325	ltpFR2	8	3	MUSTARD	935	n/a	n/a	0	0	0
793.322	n/a	REC_WORD	396661	wordpools/wasnorm_wordpool_576.txt	LTP325	ltpFR2	8	3	PADDING	999	n/a	n/a	0	0	0
794.702	n/a	REC_WORD	397351	wordpools/wasnorm_wordpool_576.txt	LTP325	ltpFR2	8	3	VELVET	1555	n/a	n/a	0	0	0
796.298	n/a	REC_WORD	398149	wordpools/wasnorm_wordpool_576.txt	LTP325	ltpFR2	8	3	AIRPORT	13	n/a	n/a	0	0	0
801.87	n/a	REC_WORD	400935	wordpools/wasnorm_wordpool_576.txt	LTP325	ltpFR2	8	3	AIRPLANE	12	n/a	n/a	0	0	0
809.05	n/a	REC_WORD	404525	wordpools/wasnorm_wordpool_576.txt	LTP325	ltpFR2	8	3	COUSIN	392	n/a	n/a	0	0	0
810.648	n/a	REC_WORD	405324	wordpools/wasnorm_wordpool_576.txt	LTP325	ltpFR2	8	3	PUPIL	1143	n/a	n/a	0	0	0
812.458	n/a	REC_WORD	406229	wordpools/wasnorm_wordpool_576.txt	LTP325	ltpFR2	8	3	SUNSET	1408	n/a	n/a	0	0	0
823.308	n/a	REC_WORD	411654	wordpools/wasnorm_wordpool_576.txt	LTP325	ltpFR2	8	3	BEAVER	109	n/a	n/a	0	0	0
846.126	n/a	DISTRACTOR	423063	n/a	LTP325	ltpFR2	8	4	n/a	n/a	n/a	n/a	0	0	0
846.126	n/a	START	423063	n/a	LTP325	ltpFR2	8	n/a	n/a	n/a	6	n/a	n/a	n/a	n/a
846.142	n/a	PROB	423071	n/a	LTP325	ltpFR2	8	n/a	n/a	n/a	6	13	3	1	9
847.59	n/a	PROB	423795	n/a	LTP325	ltpFR2	8	n/a	n/a	n/a	6	21	8	7	5
851.144	n/a	PROB	425572	n/a	LTP325	ltpFR2	8	n/a	n/a	n/a	6	17	2	9	6
853.278	n/a	PROB	426639	n/a	LTP325	ltpFR2	8	n/a	n/a	n/a	6	9	2	5	2
855.684	n/a	PROB	427842	n/a	LTP325	ltpFR2	8	n/a	n/a	n/a	6	20	4	7	9
860.054	n/a	PROB	430027	n/a	LTP325	ltpFR2	8	n/a	n/a	n/a	6	6	2	3	1
861.572	n/a	PROB	430786	n/a	LTP325	ltpFR2	8	n/a	n/a	n/a	6	11	6	4	1
862.824	n/a	PROB	431412	n/a	LTP325	ltpFR2	8	n/a	n/a	n/a	6	17	2	9	6
864.892	n/a	PROB	432446	n/a	LTP325	ltpFR2	8	n/a	n/a	n/a	6	20	9	5	6
866.96	n/a	PROB	433480	n/a	LTP325	ltpFR2	8	n/a	n/a	n/a	6	14	5	5	4
870.128	n/a	STOP	435064	n/a	LTP325	ltpFR2	8	n/a	n/a	n/a	6	n/a	n/a	n/a	n/a
870.982	n/a	WORD	435491	wordpools/wasnorm_wordpool_576.txt	LTP325	ltpFR2	8	4	LABEL	790	n/a	n/a	0	0	0
873.494	n/a	WORD	436747	wordpools/wasnorm_wordpool_576.txt	LTP325	ltpFR2	8	4	THREAD	1460	n/a	n/a	0	0	0
876.198	n/a	WORD	438099	wordpools/wasnorm_wordpool_576.txt	LTP325	ltpFR2	8	4	MONSTER	912	n/a	n/a	0	0	0
878.932	n/a	WORD	439466	wordpools/wasnorm_wordpool_576.txt	LTP325	ltpFR2	8	4	ARMY	39	n/a	n/a	0	0	0
881.374	n/a	WORD	440687	wordpools/wasnorm_wordpool_576.txt	LTP325	ltpFR2	8	4	COLLEGE	346	n/a	n/a	0	0	0
884.086	n/a	WORD	442043	wordpools/wasnorm_wordpool_576.txt	LTP325	ltpFR2	8	4	CONTRACT	368	n/a	n/a	0	0	0
886.728	n/a	WORD	443364	wordpools/wasnorm_wordpool_576.txt	LTP325	ltpFR2	8	4	SCRIBBLE	1256	n/a	n/a	0	0	0
889.174	n/a	WORD	444587	wordpools/wasnorm_wordpool_576.txt	LTP325	ltpFR2	8	4	PAPER	1011	n/a	n/a	0	0	0
891.724	n/a	WORD	445862	wordpools/wasnorm_wordpool_576.txt	LTP325	ltpFR2	8	4	PERMIT	1051	n/a	n/a	0	0	0
894.328	n/a	WORD	447164	wordpools/wasnorm_wordpool_576.txt	LTP325	ltpFR2	8	4	MILDEW	893	n/a	n/a	0	0	0
896.996	n/a	WORD	448498	wordpools/wasnorm_wordpool_576.txt	LTP325	ltpFR2	8	4	SALAD	1224	n/a	n/a	0	0	0
899.79	n/a	WORD	449895	wordpools/wasnorm_wordpool_576.txt	LTP325	ltpFR2	8	4	STAPLE	1371	n/a	n/a	0	0	0
902.458	n/a	WORD	451229	wordpools/wasnorm_wordpool_576.txt	LTP325	ltpFR2	8	4	SODA	1341	n/a	n/a	0	0	0
905.27	n/a	WORD	452635	wordpools/wasnorm_wordpool_576.txt	LTP325	ltpFR2	8	4	MARINE	869	n/a	n/a	0	0	0
907.862	n/a	WORD	453931	wordpools/wasnorm_wordpool_576.txt	LTP325	ltpFR2	8	4	SURVEY	1414	n/a	n/a	0	0	0
910.464	n/a	WORD	455232	wordpools/wasnorm_wordpool_576.txt	LTP325	ltpFR2	8	4	OUTDOORS	987	n/a	n/a	0	0	0
912.916	n/a	WORD	456458	wordpools/wasnorm_wordpool_576.txt	LTP325	ltpFR2	8	4	TYPIST	1532	n/a	n/a	0	0	0
915.418	n/a	WORD	457709	wordpools/wasnorm_wordpool_576.txt	LTP325	ltpFR2	8	4	RADISH	1158	n/a	n/a	0	0	0
917.954	n/a	WORD	458977	wordpools/wasnorm_wordpool_576.txt	LTP325	ltpFR2	8	4	NOMAD	955	n/a	n/a	0	0	0
920.714	n/a	WORD	460357	wordpools/wasnorm_wordpool_576.txt	LTP325	ltpFR2	8	4	CHURCH	307	n/a	n/a	0	0	0
923.466	n/a	WORD	461733	wordpools/wasnorm_wordpool_576.txt	LTP325	ltpFR2	8	4	PRINCE	1124	n/a	n/a	0	0	0
926.214	n/a	WORD	463107	wordpools/wasnorm_wordpool_576.txt	LTP325	ltpFR2	8	4	BANJO	82	n/a	n/a	0	0	0
929.022	n/a	WORD	464511	wordpools/wasnorm_wordpool_576.txt	LTP325	ltpFR2	8	4	TUBA	1515	n/a	n/a	0	0	0
931.666	n/a	WORD	465833	wordpools/wasnorm_wordpool_576.txt	LTP325	ltpFR2	8	4	HORNET	718	n/a	n/a	0	0	0
933.276	n/a	START	466638	n/a	LTP325	ltpFR2	8	n/a	n/a	n/a	7	n/a	n/a	n/a	n/a
934.446	n/a	DISTRACTOR	467223	n/a	LTP325	ltpFR2	8	4	n/a	n/a	n/a	n/a	0	0	0
934.452	n/a	PROB	467226	n/a	LTP325	ltpFR2	8	n/a	n/a	n/a	7	17	7	7	3
936.172	n/a	PROB	468086	n/a	LTP325	ltpFR2	8	n/a	n/a	n/a	7	9	1	1	7
937.704	n/a	PROB	468852	n/a	LTP325	ltpFR2	8	n/a	n/a	n/a	7	15	9	2	4
939.272	n/a	PROB	469636	n/a	LTP325	ltpFR2	8	n/a	n/a	n/a	7	17	7	9	1
940.974	n/a	PROB	470487	n/a	LTP325	ltpFR2	8	n/a	n/a	n/a	7	17	5	6	6
942.926	n/a	PROB	471463	n/a	LTP325	ltpFR2	8	n/a	n/a	n/a	7	14	7	1	6
945.51	n/a	PROB	472755	n/a	LTP325	ltpFR2	8	n/a	n/a	n/a	7	9	6	2	1
947.562	n/a	PROB	473781	n/a	LTP325	ltpFR2	8	n/a	n/a	n/a	7	18	3	8	7
949.164	n/a	PROB	474582	n/a	LTP325	ltpFR2	8	n/a	n/a	n/a	7	20	7	7	6
950.914	n/a	PROB	475457	n/a	LTP325	ltpFR2	8	n/a	n/a	n/a	7	12	3	1	8
952.684	n/a	PROB	476342	n/a	LTP325	ltpFR2	8	n/a	n/a	n/a	7	10	6	1	3
954.502	n/a	PROB	477251	n/a	LTP325	ltpFR2	8	n/a	n/a	n/a	7	17	8	4	5
956.966	n/a	STOP	478483	n/a	LTP325	ltpFR2	8	n/a	n/a	n/a	7	n/a	n/a	n/a	n/a
959.142	n/a	REC_START	479571	n/a	LTP325	ltpFR2	8	4	n/a	n/a	n/a	n/a	0	0	0
963.106	n/a	REC_WORD	481553	wordpools/wasnorm_wordpool_576.txt	LTP325	ltpFR2	8	4	PRINCE	1124	n/a	n/a	0	0	0
965.616	n/a	REC_WORD	482808	wordpools/wasnorm_wordpool_576.txt	LTP325	ltpFR2	8	4	NOMAD	955	n/a	n/a	0	0	0
967.982	n/a	REC_WORD	483991	wordpools/wasnorm_wordpool_576.txt	LTP325	ltpFR2	8	4	CHURCH	307	n/a	n/a	0	0	0
970.118	n/a	REC_WORD	485059	wordpools/wasnorm_wordpool_576.txt	LTP325	ltpFR2	8	4	BANJO	82	n/a	n/a	0	0	0
992.042	n/a	REC_WORD	496021	wordpools/wasnorm_wordpool_576.txt	LTP325	ltpFR2	8	4	STAPLE	1371	n/a	n/a	0	0	0
993.926	n/a	REC_WORD	496963	wordpools/wasnorm_wordpool_576.txt	LTP325	ltpFR2	8	4	SODA	1341	n/a	n/a	0	0	0
1002.472	n/a	REC_WORD	501236	wordpools/wasnorm_wordpool_576.txt	LTP325	ltpFR2	8	4	MILDEW	893	n/a	n/a	0	0	0
1003.776	n/a	REC_WORD	501888	wordpools/wasnorm_wordpool_576.txt	LTP325	ltpFR2	8	4	SALAD	1224	n/a	n/a	0	0	0
1033.27	n/a	REC_WORD	516635	wordpools/wasnorm_wordpool_576.txt	LTP325	ltpFR2	8	4	SCRIBBLE	1256	n/a	n/a	0	0	0
1049.616	n/a	WORD	524808	wordpools/wasnorm_wordpool_576.txt	LTP325	ltpFR2	8	5	DOLPHIN	483	n/a	n/a	0	0	0
1052.336	n/a	WORD	526168	wordpools/wasnorm_wordpool_576.txt	LTP325	ltpFR2	8	5	MEDAL	885	n/a	n/a	0	0	0
1054.904	n/a	WORD	527452	wordpools/wasnorm_wordpool_576.txt	LTP325	ltpFR2	8	5	ITEM	746	n/a	n/a	0	0	0
1057.356	n/a	WORD	528678	wordpools/wasnorm_wordpool_576.txt	LTP325	ltpFR2	8	5	WAITRESS	1581	n/a	n/a	0	0	0
1060.076	n/a	WORD	530038	wordpools/wasnorm_wordpool_576.txt	LTP325	ltpFR2	8	5	STREAM	1392	n/a	n/a	0	0	0
1062.628	n/a	WORD	531314	wordpools/wasnorm_wordpool_576.txt	LTP325	ltpFR2	8	5	CHEST	295	n/a	n/a	0	0	0
1065.214	n/a	WORD	532607	wordpools/wasnorm_wordpool_576.txt	LTP325	ltpFR2	8	5	MISTER	901	n/a	n/a	0	0	0
1067.798	n/a	WORD	533899	wordpools/wasnorm_wordpool_576.txt	LTP325	ltpFR2	8	5	SLIME	1327	n/a	n/a	0	0	0
1070.552	n/a	WORD	535276	wordpools/wasnorm_wordpool_576.txt	LTP325	ltpFR2	8	5	GARDEN	623	n/a	n/a	0	0	0
1073.236	n/a	WORD	536618	wordpools/wasnorm_wordpool_576.txt	LTP325	ltpFR2	8	5	FARMER	553	n/a	n/a	0	0	0
1075.672	n/a	WORD	537836	wordpools/wasnorm_wordpool_576.txt	LTP325	ltpFR2	8	5	ROBIN	1199	n/a	n/a	0	0	0
1078.49	n/a	WORD	539245	wordpools/wasnorm_wordpool_576.txt	LTP325	ltpFR2	8	5	TURNIP	1521	n/a	n/a	0	0	0
1081.092	n/a	WORD	540546	wordpools/wasnorm_wordpool_576.txt	LTP325	ltpFR2	8	5	LILY	821	n/a	n/a	0	0	0
1083.694	n/a	WORD	541847	wordpools/wasnorm_wordpool_576.txt	LTP325	ltpFR2	8	5	JAPAN	749	n/a	n/a	0	0	0
1086.262	n/a	WORD	543131	wordpools/wasnorm_wordpool_576.txt	LTP325	ltpFR2	8	5	EUROPE	541	n/a	n/a	0	0	0
1089.048	n/a	WORD	544524	wordpools/wasnorm_wordpool_576.txt	LTP325	ltpFR2	8	5	WARDROBE	1587	n/a	n/a	0	0	0
1091.656	n/a	WORD	545828	wordpools/wasnorm_wordpool_576.txt	LTP325	ltpFR2	8	5	GRILL	661	n/a	n/a	0	0	0
1094.108	n/a	WORD	547054	wordpools/wasnorm_wordpool_576.txt	LTP325	ltpFR2	8	5	WIDOW	1608	n/a	n/a	0	0	0
1096.654	n/a	WORD	548327	wordpools/wasnorm_wordpool_576.txt	LTP325	ltpFR2	8	5	CANAL	226	n/a	n/a	0	0	0
1099.162	n/a	WORD	549581	wordpools/wasnorm_wordpool_576.txt	LTP325	ltpFR2	8	5	CATTLE	261	n/a	n/a	0	0	0
1101.796	n/a	WORD	550898	wordpools/wasnorm_wordpool_576.txt	LTP325	ltpFR2	8	5	DAISY	435	n/a	n/a	0	0	0
1104.46	n/a	WORD	552230	wordpools/wasnorm_wordpool_576.txt	LTP325	ltpFR2	8	5	LADDER	793	n/a	n/a	0	0	0
1107.23	n/a	WORD	553615	wordpools/wasnorm_wordpool_576.txt	LTP325	ltpFR2	8	5	ICING	732	n/a	n/a	0	0	0
1110.032	n/a	WORD	555016	wordpools/wasnorm_wordpool_576.txt	LTP325	ltpFR2	8	5	CHAPEL	280	n/a	n/a	0	0	0
1111.638	n/a	START	555819	n/a	LTP325	ltpFR2	8	n/a	n/a	n/a	8	n/a	n/a	n/a	n/a
1112.636	n/a	DISTRACTOR	556318	n/a	LTP325	ltpFR2	8	5	n/a	n/a	n/a	n/a	0	0	0
1112.65	n/a	PROB	556325	n/a	LTP325	ltpFR2	8	n/a	n/a	n/a	8	8	3	2	3
1115.224	n/a	PROB	557612	n/a	LTP325	ltpFR2	8	n/a	n/a	n/a	8	12	3	7	2
1117.074	n/a	PROB	558537	n/a	LTP325	ltpFR2	8	n/a	n/a	n/a	8	17	3	5	9
1120.446	n/a	PROB	560223	n/a	LTP325	ltpFR2	8	n/a	n/a	n/a	8	15	8	5	2
1121.88	n/a	PROB	560940	n/a	LTP325	ltpFR2	8	n/a	n/a	n/a	8	16	5	2	9
1123.648	n/a	PROB	561824	n/a	LTP325	ltpFR2	8	n/a	n/a	n/a	8	18	6	6	6
1126.518	n/a	PROB	563259	n/a	LTP325	ltpFR2	8	n/a	n/a	n/a	8	10	1	2	7
1128.368	n/a	PROB	564184	n/a	LTP325	ltpFR2	8	n/a	n/a	n/a	8	19	7	5	7
1130.304	n/a	PROB	565152	n/a	LTP325	ltpFR2	8	n/a	n/a	n/a	8	15	5	4	6
1132.04	n/a	PROB	566020	n/a	LTP325	ltpFR2	8	n/a	n/a	n/a	8	19	5	9	5
1135.638	n/a	STOP	567819	n/a	LTP325	ltpFR2	8	n/a	n/a	n/a	8	n/a	n/a	n/a	n/a
1137.478	n/a	REC_START	568739	n/a	LTP325	ltpFR2	8	5	n/a	n/a	n/a	n/a	0	0	0
1139.788	n/a	REC_WORD	569894	wordpools/wasnorm_wordpool_576.txt	LTP325	ltpFR2	8	5	CHAPEL	280	n/a	n/a	0	0	0
1142.67	n/a	REC_WORD	571335	wordpools/wasnorm_wordpool_576.txt	LTP325	ltpFR2	8	5	DAISY	435	n/a	n/a	0	0	0
1144.272	n/a	REC_WORD	572136	wordpools/wasnorm_wordpool_576.txt	LTP325	ltpFR2	8	5	LILY	821	n/a	n/a	0	0	0
1146.0	n/a	REC_WORD	573000	wordpools/wasnorm_wordpool_576.txt	LTP325	ltpFR2	8	5	TURNIP	1521	n/a	n/a	0	0	0
1147.914	n/a	REC_WORD	573957	wordpools/wasnorm_wordpool_576.txt	LTP325	ltpFR2	8	5	ROBIN	1199	n/a	n/a	0	0	0
1149.638	n/a	REC_WORD	574819	wordpools/wasnorm_wordpool_576.txt	LTP325	ltpFR2	8	5	FARMER	553	n/a	n/a	0	0	0
1156.212	n/a	REC_WORD	578106	wordpools/wasnorm_wordpool_576.txt	LTP325	ltpFR2	8	5	OUTDOORS	987	n/a	n/a	0	0	0
1163.718	n/a	REC_WORD	581859	wordpools/wasnorm_wordpool_576.txt	LTP325	ltpFR2	8	5	DOLPHIN	483	n/a	n/a	0	0	0
1165.306	n/a	REC_WORD	582653	wordpools/wasnorm_wordpool_576.txt	LTP325	ltpFR2	8	5	MEDAL	885	n/a	n/a	0	0	0
1168.316	n/a	REC_WORD	584158	wordpools/wasnorm_wordpool_576.txt	LTP325	ltpFR2	8	5	WAITRESS	1581	n/a	n/a	0	0	0
1185.402	n/a	REC_WORD	592701	wordpools/wasnorm_wordpool_576.txt	LTP325	ltpFR2	8	5	CHEST	295	n/a	n/a	0	0	0
1227.922	n/a	WORD	613961	wordpools/wasnorm_wordpool_576.txt	LTP325	ltpFR2	8	6	STAR	1373	n/a	n/a	0	0	0
1230.51	n/a	WORD	615255	wordpools/wasnorm_wordpool_576.txt	LTP325	ltpFR2	8	6	SPACE	1345	n/a	n/a	0	0	0
1233.26	n/a	WORD	616630	wordpools/wasnorm_wordpool_576.txt	LTP325	ltpFR2	8	6	GAVEL	627	n/a	n/a	0	0	0
1235.728	n/a	WORD	617864	wordpools/wasnorm_wordpool_576.txt	LTP325	ltpFR2	8	6	RAZOR	1171	n/a	n/a	0	0	0
1238.518	n/a	WORD	619259	wordpools/wasnorm_wordpool_576.txt	LTP325	ltpFR2	8	6	ORCHID	982	n/a	n/a	0	0	0
1240.982	n/a	WORD	620491	wordpools/wasnorm_wordpool_576.txt	LTP325	ltpFR2	8	6	DRAWING	494	n/a	n/a	0	0	0
1243.768	n/a	WORD	621884	wordpools/wasnorm_wordpool_576.txt	LTP325	ltpFR2	8	6	BISON	131	n/a	n/a	0	0	0
1246.438	n/a	WORD	623219	wordpools/wasnorm_wordpool_576.txt	LTP325	ltpFR2	8	6	CREATURE	403	n/a	n/a	0	0	0
1249.04	n/a	WORD	624520	wordpools/wasnorm_wordpool_576.txt	LTP325	ltpFR2	8	6	DUSTPAN	509	n/a	n/a	0	0	0
1251.758	n/a	WORD	625879	wordpools/wasnorm_wordpool_576.txt	LTP325	ltpFR2	8	6	LEOPARD	812	n/a	n/a	0	0	0
1254.512	n/a	WORD	627256	wordpools/wasnorm_wordpool_576.txt	LTP325	ltpFR2	8	6	BACON	67	n/a	n/a	0	0	0
1257.13	n/a	WORD	628565	wordpools/wasnorm_wordpool_576.txt	LTP325	ltpFR2	8	6	SKILLET	1317	n/a	n/a	0	0	0
1259.8	n/a	WORD	629900	wordpools/wasnorm_wordpool_576.txt	LTP325	ltpFR2	8	6	SERVANT	1271	n/a	n/a	0	0	0
1262.468	n/a	WORD	631234	wordpools/wasnorm_wordpool_576.txt	LTP325	ltpFR2	8	6	SERVER	1272	n/a	n/a	0	0	0
1265.004	n/a	WORD	632502	wordpools/wasnorm_wordpool_576.txt	LTP325	ltpFR2	8	6	PALACE	1006	n/a	n/a	0	0	0
1267.44	n/a	WORD	633720	wordpools/wasnorm_wordpool_576.txt	LTP325	ltpFR2	8	6	QUEEN	1149	n/a	n/a	0	0	0
1269.924	n/a	WORD	634962	wordpools/wasnorm_wordpool_576.txt	LTP325	ltpFR2	8	6	BUBBLE	183	n/a	n/a	0	0	0
1272.376	n/a	WORD	636188	wordpools/wasnorm_wordpool_576.txt	LTP325	ltpFR2	8	6	SCALPEL	1243	n/a	n/a	0	0	0
1274.862	n/a	WORD	637431	wordpools/wasnorm_wordpool_576.txt	LTP325	ltpFR2	8	6	SPIDER	1351	n/a	n/a	0	0	0
1277.664	n/a	WORD	638832	wordpools/wasnorm_wordpool_576.txt	LTP325	ltpFR2	8	6	WRENCH	1625	n/a	n/a	0	0	0
1280.416	n/a	WORD	640208	wordpools/wasnorm_wordpool_576.txt	LTP325	ltpFR2	8	6	BURGLAR	200	n/a	n/a	0	0	0
1283.02	n/a	WORD	641510	wordpools/wasnorm_wordpool_576.txt	LTP325	ltpFR2	8	6	HIGHWAY	707	n/a	n/a	0	0	0
1285.704	n/a	WORD	642852	wordpools/wasnorm_wordpool_576.txt	LTP325	ltpFR2	8	6	PASTA	1021	n/a	n/a	0	0	0
1288.406	n/a	WORD	644203	wordpools/wasnorm_wordpool_576.txt	LTP325	ltpFR2	8	6	ROBBER	1197	n/a	n/a	0	0	0
1290.026	n/a	START	645013	n/a	LTP325	ltpFR2	8	n/a	n/a	n/a	9	n/a	n/a	n/a	n/a
1291.218	n/a	DISTRACTOR	645609	n/a	LTP325	ltpFR2	8	6	n/a	n/a	n/a	n/a	0	0	0
1291.226	n/a	PROB	645613	n/a	LTP325	ltpFR2	8	n/a	n/a	n/a	9	19	3	9	7
1292.994	n/a	PROB	646497	n/a	LTP325	ltpFR2	8	n/a	n/a	n/a	9	20	6	8	6
1294.996	n/a	PROB	647498	n/a	LTP325	ltpFR2	8	n/a	n/a	n/a	9	5	1	2	2
1296.646	n/a	PROB	648323	n/a	LTP325	ltpFR2	8	n/a	n/a	n/a	9	23	9	6	8
1300.784	n/a	PROB	650392	n/a	LTP325	ltpFR2	8	n/a	n/a	n/a	9	9	3	5	1
1303.352	n/a	PROB	651676	n/a	LTP325	ltpFR2	8	n/a	n/a	n/a	9	14	4	3	7
1304.752	n/a	PROB	652376	n/a	LTP325	ltpFR2	8	n/a	n/a	n/a	9	11	7	2	2
1306.536	n/a	PROB	653268	n/a	LTP325	ltpFR2	8	n/a	n/a	n/a	9	8	3	1	4
1309.124	n/a	PROB	654562	n/a	LTP325	ltpFR2	8	n/a	n/a	n/a	9	18	3	6	9
1314.026	n/a	STOP	657013	n/a	LTP325	ltpFR2	8	n/a	n/a	n/a	9	n/a	n/a	n/a	n/a
1315.944	n/a	REC_START	657972	n/a	LTP325	ltpFR2	8	6	n/a	n/a	n/a	n/a	0	0	0
1317.582	n/a	REC_WORD	658791	wordpools/wasnorm_wordpool_576.txt	LTP325	ltpFR2	8	6	ROBBER	1197	n/a	n/a	0	0	0
1319.214	n/a	REC_WORD	659607	wordpools/wasnorm_wordpool_576.txt	LTP325	ltpFR2	8	6	BURGLAR	200	n/a	n/a	0	0	0
1321.658	n/a	REC_WORD	660829	wordpools/wasnorm_wordpool_576.txt	LTP325	ltpFR2	8	6	HIGHWAY	707	n/a	n/a	0	0	0
1324.502	n/a	REC_WORD	662251	wordpools/wasnorm_wordpool_576.txt	LTP325	ltpFR2	8	6	STAR	1373	n/a	n/a	0	0	0
1326.362	n/a	REC_WORD	663181	wordpools/wasnorm_wordpool_576.txt	LTP325	ltpFR2	8	6	SPACE	1345	n/a	n/a	0	0	0
1331.116	n/a	REC_WORD	665558	wordpools/wasnorm_wordpool_576.txt	LTP325	ltpFR2	8	6	CREATURE	403	n/a	n/a	0	0	0
1332.94	n/a	REC_WORD	666470	wordpools/wasnorm_wordpool_576.txt	LTP325	ltpFR2	8	6	BUBBLE	183	n/a	n/a	0	0	0
1335.698	n/a	REC_WORD	667849	wordpools/wasnorm_wordpool_576.txt	LTP325	ltpFR2	8	6	QUEEN	1149	n/a	n/a	0	0	0
1339.966	n/a	REC_WORD	669983	wordpools/wasnorm_wordpool_576.txt	LTP325	ltpFR2	8	6	PALACE	1006	n/a	n/a	0	0	0
1343.986	n/a	REC_WORD	671993	wordpools/wasnorm_wordpool_576.txt	LTP325	ltpFR2	8	6	DRAWING	494	n/a	n/a	0	0	0
1346.254	n/a	REC_WORD	673127	wordpools/wasnorm_wordpool_576.txt	LTP325	ltpFR2	8	6	ORCHID	982	n/a	n/a	0	0	0
1348.252	n/a	REC_WORD	674126	wordpools/wasnorm_wordpool_576.txt	LTP325	ltpFR2	8	6	BISON	131	n/a	n/a	0	0	0
1350.108	n/a	REC_WORD	675054	wordpools/wasnorm_wordpool_576.txt	LTP325	ltpFR2	8	6	LEOPARD	812	n/a	n/a	0	0	0
1354.162	n/a	REC_WORD	677081	wordpools/wasnorm_wordpool_576.txt	LTP325	ltpFR2	8	6	BACON	67	n/a	n/a	0	0	0
1355.718	n/a	REC_WORD	677859	wordpools/wasnorm_wordpool_576.txt	LTP325	ltpFR2	8	6	SKILLET	1317	n/a	n/a	0	0	0
1358.302	n/a	REC_WORD	679151	wordpools/wasnorm_wordpool_576.txt	LTP325	ltpFR2	8	6	SERVER	1272	n/a	n/a	0	0	0
1361.778	n/a	REC_WORD	680889	wordpools/wasnorm_wordpool_576.txt	LTP325	ltpFR2	8	6	SERVANT	1271	n/a	n/a	0	0	0
1370.254	n/a	REC_WORD	685127	wordpools/wasnorm_wordpool_576.txt	LTP325	ltpFR2	8	6	WRENCH	1625	n/a	n/a	0	0	0
1406.374	n/a	WORD	703187	wordpools/wasnorm_wordpool_576.txt	LTP325	ltpFR2	8	7	COTTAGE	384	n/a	n/a	0	0	0
1409.094	n/a	WORD	704547	wordpools/wasnorm_wordpool_576.txt	LTP325	ltpFR2	8	7	BUTCHER	203	n/a	n/a	0	0	0
1411.746	n/a	WORD	705873	wordpools/wasnorm_wordpool_576.txt	LTP325	ltpFR2	8	7	BOX	159	n/a	n/a	0	0	0
1414.4	n/a	WORD	707200	wordpools/wasnorm_wordpool_576.txt	LTP325	ltpFR2	8	7	KNAPSACK	783	n/a	n/a	0	0	0
1416.818	n/a	WORD	708409	wordpools/wasnorm_wordpool_576.txt	LTP325	ltpFR2	8	7	PECAN	1036	n/a	n/a	0	0	0
1419.536	n/a	WORD	709768	wordpools/wasnorm_wordpool_576.txt	LTP325	ltpFR2	8	7	WAITER	1580	n/a	n/a	0	0	0
1422.164	n/a	WORD	711082	wordpools/wasnorm_wordpool_576.txt	LTP325	ltpFR2	8	7	LETTUCE	814	n/a	n/a	0	0	0
1424.814	n/a	WORD	712407	wordpools/wasnorm_wordpool_576.txt	LTP325	ltpFR2	8	7	CABBAGE	210	n/a	n/a	0	0	0
1427.244	n/a	WORD	713622	wordpools/wasnorm_wordpool_576.txt	LTP325	ltpFR2	8	7	BARREL	91	n/a	n/a	0	0	0
1429.736	n/a	WORD	714868	wordpools/wasnorm_wordpool_576.txt	LTP325	ltpFR2	8	7	FRIEND	606	n/a	n/a	0	0	0
1432.372	n/a	WORD	716186	wordpools/wasnorm_wordpool_576.txt	LTP325	ltpFR2	8	7	BOYFRIEND	162	n/a	n/a	0	0	0
1434.924	n/a	WORD	717462	wordpools/wasnorm_wordpool_576.txt	LTP325	ltpFR2	8	7	HUMAN	726	n/a	n/a	0	0	0
1437.536	n/a	WORD	718768	wordpools/wasnorm_wordpool_576.txt	LTP325	ltpFR2	8	7	BRANCH	168	n/a	n/a	0	0	0
1440.128	n/a	WORD	720064	wordpools/wasnorm_wordpool_576.txt	LTP325	ltpFR2	8	7	SWIMMER	1420	n/a	n/a	0	0	0
1442.722	n/a	WORD	721361	wordpools/wasnorm_wordpool_576.txt	LTP325	ltpFR2	8	7	POSSUM	1112	n/a	n/a	0	0	0
1445.392	n/a	WORD	722696	wordpools/wasnorm_wordpool_576.txt	LTP325	ltpFR2	8	7	TROUT	1511	n/a	n/a	0	0	0
1448.168	n/a	WORD	724084	wordpools/wasnorm_wordpool_576.txt	LTP325	ltpFR2	8	7	EGYPT	519	n/a	n/a	0	0	0
1450.668	n/a	WORD	725334	wordpools/wasnorm_wordpool_576.txt	LTP325	ltpFR2	8	7	SWITCH	1422	n/a	n/a	0	0	0
1453.284	n/a	WORD	726642	wordpools/wasnorm_wordpool_576.txt	LTP325	ltpFR2	8	7	SPOUSE	1358	n/a	n/a	0	0	0
1455.984	n/a	WORD	727992	wordpools/wasnorm_wordpool_576.txt	LTP325	ltpFR2	8	7	GAZELLE	628	n/a	n/a	0	0	0
1458.558	n/a	WORD	729279	wordpools/wasnorm_wordpool_576.txt	LTP325	ltpFR2	8	7	PANTHER	1009	n/a	n/a	0	0	0
1461.356	n/a	WORD	730678	wordpools/wasnorm_wordpool_576.txt	LTP325	ltpFR2	8	7	SCOTCH	1251	n/a	n/a	0	0	0
1463.908	n/a	WORD	731954	wordpools/wasnorm_wordpool_576.txt	LTP325	ltpFR2	8	7	PUDDLE	1140	n/a	n/a	0	0	0
1466.528	n/a	WORD	733264	wordpools/wasnorm_wordpool_576.txt	LTP325	ltpFR2	8	7	LAVA	804	n/a	n/a	0	0	0
1468.134	n/a	START	734067	n/a	LTP325	ltpFR2	8	n/a	n/a	n/a	10	n/a	n/a	n/a	n/a
1469.156	n/a	DISTRACTOR	734578	n/a	LTP325	ltpFR2	8	7	n/a	n/a	n/a	n/a	0	0	0
1469.164	n/a	PROB	734582	n/a	LTP325	ltpFR2	8	n/a	n/a	n/a	10	16	3	8	5
1471.264	n/a	PROB	735632	n/a	LTP325	ltpFR2	8	n/a	n/a	n/a	10	22	5	8	9
1476.484	n/a	PROB	738242	n/a	LTP325	ltpFR2	8	n/a	n/a	n/a	10	7	2	1	4
1478.438	n/a	PROB	739219	n/a	LTP325	ltpFR2	8	n/a	n/a	n/a	10	13	5	2	6
1481.006	n/a	PROB	740503	n/a	LTP325	ltpFR2	8	n/a	n/a	n/a	10	11	1	4	6
1482.288	n/a	PROB	741144	n/a	LTP325	ltpFR2	8	n/a	n/a	n/a	10	15	9	4	2
1484.924	n/a	PROB	742462	n/a	LTP325	ltpFR2	8	n/a	n/a	n/a	10	11	4	2	5
1487.276	n/a	PROB	743638	n/a	LTP325	ltpFR2	8	n/a	n/a	n/a	10	20	3	9	8
1489.412	n/a	PROB	744706	n/a	LTP325	ltpFR2	8	n/a	n/a	n/a	10	14	1	6	7
1491.214	n/a	STOP	745607	n/a	LTP325	ltpFR2	8	n/a	n/a	n/a	10	n/a	n/a	n/a	n/a
1494.086	n/a	REC_START	747043	n/a	LTP325	ltpFR2	8	7	n/a	n/a	n/a	n/a	0	0	0
1497.896	n/a	REC_WORD	748948	wordpools/wasnorm_wordpool_576.txt	LTP325	ltpFR2	8	7	SWIMMER	1420	n/a	n/a	0	0	0
1508.454	n/a	REC_WORD	754227	wordpools/wasnorm_wordpool_576.txt	LTP325	ltpFR2	8	7	FRIEND	606	n/a	n/a	0	0	0
1510.1	n/a	REC_WORD	755050	wordpools/wasnorm_wordpool_576.txt	LTP325	ltpFR2	8	7	BOYFRIEND	162	n/a	n/a	0	0	0
1511.868	n/a	REC_WORD	755934	wordpools/wasnorm_wordpool_576.txt	LTP325	ltpFR2	8	7	SPOUSE	1358	n/a	n/a	0	0	0
1537.394	n/a	REC_WORD	768697	wordpools/wasnorm_wordpool_576.txt	LTP325	ltpFR2	8	7	EGYPT	519	n/a	n/a	0	0	0
1538.774	n/a	REC_WORD	769387	wordpools/wasnorm_wordpool_576.txt	LTP325	ltpFR2	8	7	SWITCH	1422	n/a	n/a	0	0	0
1584.524	n/a	DISTRACTOR	792262	n/a	LTP325	ltpFR2	8	8	n/a	n/a	n/a	n/a	0	0	0
1584.526	n/a	START	792263	n/a	LTP325	ltpFR2	8	n/a	n/a	n/a	11	n/a	n/a	n/a	n/a
1584.54	n/a	PROB	792270	n/a	LTP325	ltpFR2	8	n/a	n/a	n/a	11	10	2	3	5
1586.714	n/a	PROB	793357	n/a	LTP325	ltpFR2	8	n/a	n/a	n/a	11	16	2	7	7
1588.314	n/a	PROB	794157	n/a	LTP325	ltpFR2	8	n/a	n/a	n/a	11	18	8	1	9
1590.35	n/a	PROB	795175	n/a	LTP325	ltpFR2	8	n/a	n/a	n/a	11	8	5	1	2
1592.252	n/a	PROB	796126	n/a	LTP325	ltpFR2	8	n/a	n/a	n/a	11	4	1	2	1
1593.688	n/a	PROB	796844	n/a	LTP325	ltpFR2	8	n/a	n/a	n/a	11	12	2	7	3
1595.19	n/a	PROB	797595	n/a	LTP325	ltpFR2	8	n/a	n/a	n/a	11	15	6	6	3
1596.722	n/a	PROB	798361	n/a	LTP325	ltpFR2	8	n/a	n/a	n/a	11	12	1	3	8
1598.458	n/a	PROB	799229	n/a	LTP325	ltpFR2	8	n/a	n/a	n/a	11	12	8	2	2
1599.942	n/a	PROB	799971	n/a	LTP325	ltpFR2	8	n/a	n/a	n/a	11	8	3	1	4
1601.926	n/a	PROB	800963	n/a	LTP325	ltpFR2	8	n/a	n/a	n/a	11	27	9	9	9
1605.096	n/a	PROB	802548	n/a	LTP325	ltpFR2	8	n/a	n/a	n/a	11	8	5	2	1
1607.442	n/a	STOP	803721	n/a	LTP325	ltpFR2	8	n/a	n/a	n/a	11	n/a	n/a	n/a	n/a
1609.518	n/a	WORD	804759	wordpools/wasnorm_wordpool_576.txt	LTP325	ltpFR2	8	8	LONDON	843	n/a	n/a	0	0	0
1612.246	n/a	WORD	806123	wordpools/wasnorm_wordpool_576.txt	LTP325	ltpFR2	8	8	PACKAGE	997	n/a	n/a	0	0	0
1614.972	n/a	WORD	807486	wordpools/wasnorm_wordpool_576.txt	LTP325	ltpFR2	8	8	HIKER	708	n/a	n/a	0	0	0
1617.568	n/a	WORD	808784	wordpools/wasnorm_wordpool_576.txt	LTP325	ltpFR2	8	8	DASHBOARD	441	n/a	n/a	0	0	0
1620.002	n/a	WORD	810001	wordpools/wasnorm_wordpool_576.txt	LTP325	ltpFR2	8	8	WASP	1593	n/a	n/a	0	0	0
1622.472	n/a	WORD	811236	wordpools/wasnorm_wordpool_576.txt	LTP325	ltpFR2	8	8	FOREHEAD	592	n/a	n/a	0	0	0
1625.114	n/a	WORD	812557	wordpools/wasnorm_wordpool_576.txt	LTP325	ltpFR2	8	8	PLIERS	1089	n/a	n/a	0	0	0
1627.766	n/a	WORD	813883	wordpools/wasnorm_wordpool_576.txt	LTP325	ltpFR2	8	8	TORTOISE	1486	n/a	n/a	0	0	0
1630.51	n/a	WORD	815255	wordpools/wasnorm_wordpool_576.txt	LTP325	ltpFR2	8	8	CROWN	415	n/a	n/a	0	0	0
1633.08	n/a	WORD	816540	wordpools/wasnorm_wordpool_576.txt	LTP325	ltpFR2	8	8	HOUND	724	n/a	n/a	0	0	0
1635.682	n/a	WORD	817841	wordpools/wasnorm_wordpool_576.txt	LTP325	ltpFR2	8	8	HEADBAND	696	n/a	n/a	0	0	0
1638.308	n/a	WORD	819154	wordpools/wasnorm_wordpool_576.txt	LTP325	ltpFR2	8	8	SNACK	1331	n/a	n/a	0	0	0
1640.886	n/a	WORD	820443	wordpools/wasnorm_wordpool_576.txt	LTP325	ltpFR2	8	8	STATUE	1374	n/a	n/a	0	0	0
1643.514	n/a	WORD	821757	wordpools/wasnorm_wordpool_576.txt	LTP325	ltpFR2	8	8	SLUG	1329	n/a	n/a	0	0	0
1645.956	n/a	WORD	822978	wordpools/wasnorm_wordpool_576.txt	LTP325	ltpFR2	8	8	GIFT	635	n/a	n/a	0	0	0
1648.726	n/a	WORD	824363	wordpools/wasnorm_wordpool_576.txt	LTP325	ltpFR2	8	8	PENGUIN	1044	n/a	n/a	0	0	0
1651.294	n/a	WORD	825647	wordpools/wasnorm_wordpool_576.txt	LTP325	ltpFR2	8	8	CANYON	235	n/a	n/a	0	0	0
1653.914	n/a	WORD	826957	wordpools/wasnorm_wordpool_576.txt	LTP325	ltpFR2	8	8	VALLEY	1545	n/a	n/a	0	0	0
1656.624	n/a	WORD	828312	wordpools/wasnorm_wordpool_576.txt	LTP325	ltpFR2	8	8	POISON	1096	n/a	n/a	0	0	0
1659.05	n/a	WORD	829525	wordpools/wasnorm_wordpool_576.txt	LTP325	ltpFR2	8	8	TOMBSTONE	1478	n/a	n/a	0	0	0
1661.612	n/a	WORD	830806	wordpools/wasnorm_wordpool_576.txt	LTP325	ltpFR2	8	8	REBEL	1172	n/a	n/a	0	0	0
1664.054	n/a	WORD	832027	wordpools/wasnorm_wordpool_576.txt	LTP325	ltpFR2	8	8	BIKE	125	n/a	n/a	0	0	0
1666.532	n/a	WORD	833266	wordpools/wasnorm_wordpool_576.txt	LTP325	ltpFR2	8	8	SNAKE	1333	n/a	n/a	0	0	0
1669.292	n/a	WORD	834646	wordpools/wasnorm_wordpool_576.txt	LTP325	ltpFR2	8	8	OUTLAW	989	n/a	n/a	0	0	0
1670.904	n/a	START	835452	n/a	LTP325	ltpFR2	8	n/a	n/a	n/a	12	n/a	n/a	n/a	n/a
1671.738	n/a	DISTRACTOR	835869	n/a	LTP325	ltpFR2	8	8	n/a	n/a	n/a	n/a	0	0	0
1671.744	n/a	PROB	835872	n/a	LTP325	ltpFR2	8	n/a	n/a	n/a	12	19	8	7	4
1677.274	n/a	PROB	838637	n/a	LTP325	ltpFR2	8	n/a	n/a	n/a	12	9	6	1	2
1679.592	n/a	PROB	839796	n/a	LTP325	ltpFR2	8	n/a	n/a	n/a	12	13	2	2	9
1681.844	n/a	PROB	840922	n/a	LTP325	ltpFR2	8	n/a	n/a	n/a	12	14	4	3	7
1683.63	n/a	PROB	841815	n/a	LTP325	ltpFR2	8	n/a	n/a	n/a	12	18	3	8	7
1685.132	n/a	PROB	842566	n/a	LTP325	ltpFR2	8	n/a	n/a	n/a	12	12	2	7	3
1686.398	n/a	PROB	843199	n/a	LTP325	ltpFR2	8	n/a	n/a	n/a	12	14	5	8	1
1688.6	n/a	PROB	844300	n/a	LTP325	ltpFR2	8	n/a	n/a	n/a	12	13	3	6	4
1690.086	n/a	PROB	845043	n/a	LTP325	ltpFR2	8	n/a	n/a	n/a	12	10	1	3	6
1691.954	n/a	PROB	845977	n/a	LTP325	ltpFR2	8	n/a	n/a	n/a	12	1	3	5	2
1694.668	n/a	STOP	847334	n/a	LTP325	ltpFR2	8	n/a	n/a	n/a	12	n/a	n/a	n/a	n/a
1696.66	n/a	REC_START	848330	n/a	LTP325	ltpFR2	8	8	n/a	n/a	n/a	n/a	0	0	0
1714.672	n/a	REC_WORD	857336	wordpools/wasnorm_wordpool_576.txt	LTP325	ltpFR2	8	8	TORTOISE	1486	n/a	n/a	0	0	0
1716.586	n/a	REC_WORD	858293	wordpools/wasnorm_wordpool_576.txt	LTP325	ltpFR2	8	8	CROWN	415	n/a	n/a	0	0	0
1718.518	n/a	REC_WORD	859259	wordpools/wasnorm_wordpool_576.txt	LTP325	ltpFR2	8	8	HOUND	724	n/a	n/a	0	0	0
1720.428	n/a	REC_WORD	860214	wordpools/wasnorm_wordpool_576.txt	LTP325	ltpFR2	8	8	SNACK	1331	n/a	n/a	0	0	0
1723.138	n/a	REC_WORD	861569	wordpools/wasnorm_wordpool_576.txt	LTP325	ltpFR2	8	8	POISON	1096	n/a	n/a	0	0	0
1725.174	n/a	REC_WORD	862587	wordpools/wasnorm_wordpool_576.txt	LTP325	ltpFR2	8	8	VALLEY	1545	n/a	n/a	0	0	0
1727.114	n/a	REC_WORD	863557	wordpools/wasnorm_wordpool_576.txt	LTP325	ltpFR2	8	8	CANYON	235	n/a	n/a	0	0	0
1729.344	n/a	REC_WORD	864672	wordpools/wasnorm_wordpool_576.txt	LTP325	ltpFR2	8	8	TOMBSTONE	1478	n/a	n/a	0	0	0
1731.298	n/a	REC_WORD	865649	wordpools/wasnorm_wordpool_576.txt	LTP325	ltpFR2	8	8	REBEL	1172	n/a	n/a	0	0	0
1733.168	n/a	REC_WORD	866584	wordpools/wasnorm_wordpool_576.txt	LTP325	ltpFR2	8	8	BIKE	125	n/a	n/a	0	0	0
1735.028	n/a	REC_WORD	867514	wordpools/wasnorm_wordpool_576.txt	LTP325	ltpFR2	8	8	OUTLAW	989	n/a	n/a	0	0	0
1739.384	n/a	REC_WORD	869692	wordpools/wasnorm_wordpool_576.txt	LTP325	ltpFR2	8	8	HIKER	708	n/a	n/a	0	0	0
1741.58	n/a	REC_WORD	870790	wordpools/wasnorm_wordpool_576.txt	LTP325	ltpFR2	8	8	WASP	1593	n/a	n/a	0	0	0
1744.546	n/a	REC_WORD	872273	wordpools/wasnorm_wordpool_576.txt	LTP325	ltpFR2	8	8	FOREHEAD	592	n/a	n/a	0	0	0
1773.208	n/a	REST_REWET	886604	n/a	LTP325	ltpFR2	8	8	n/a	n/a	n/a	n/a	0	0	0
2075.93	n/a	WORD	1037965	wordpools/wasnorm_wordpool_576.txt	LTP325	ltpFR2	8	9	WOMAN	1620	n/a	n/a	0	0	0
2078.666	n/a	WORD	1039333	wordpools/wasnorm_wordpool_576.txt	LTP325	ltpFR2	8	9	WITNESS	1618	n/a	n/a	0	0	0
2081.436	n/a	WORD	1040718	wordpools/wasnorm_wordpool_576.txt	LTP325	ltpFR2	8	9	SCARF	1246	n/a	n/a	0	0	0
2083.936	n/a	WORD	1041968	wordpools/wasnorm_wordpool_576.txt	LTP325	ltpFR2	8	9	BEAKER	104	n/a	n/a	0	0	0
2086.71	n/a	WORD	1043355	wordpools/wasnorm_wordpool_576.txt	LTP325	ltpFR2	8	9	CHEMIST	292	n/a	n/a	0	0	0
2089.28	n/a	WORD	1044640	wordpools/wasnorm_wordpool_576.txt	LTP325	ltpFR2	8	9	JEANS	752	n/a	n/a	0	0	0
2091.894	n/a	WORD	1045947	wordpools/wasnorm_wordpool_576.txt	LTP325	ltpFR2	8	9	BREAST	171	n/a	n/a	0	0	0
2094.646	n/a	WORD	1047323	wordpools/wasnorm_wordpool_576.txt	LTP325	ltpFR2	8	9	MATCH	878	n/a	n/a	0	0	0
2097.404	n/a	WORD	1048702	wordpools/wasnorm_wordpool_576.txt	LTP325	ltpFR2	8	9	BARLEY	88	n/a	n/a	0	0	0
2100.024	n/a	WORD	1050012	wordpools/wasnorm_wordpool_576.txt	LTP325	ltpFR2	8	9	LUMBER	848	n/a	n/a	0	0	0
2102.702	n/a	WORD	1051351	wordpools/wasnorm_wordpool_576.txt	LTP325	ltpFR2	8	9	CABIN	211	n/a	n/a	0	0	0
2105.504	n/a	WORD	1052752	wordpools/wasnorm_wordpool_576.txt	LTP325	ltpFR2	8	9	CHILD	299	n/a	n/a	0	0	0
2108.28	n/a	WORD	1054140	wordpools/wasnorm_wordpool_576.txt	LTP325	ltpFR2	8	9	DRESSER	496	n/a	n/a	0	0	0
2110.916	n/a	WORD	1055458	wordpools/wasnorm_wordpool_576.txt	LTP325	ltpFR2	8	9	AIRPLANE	12	n/a	n/a	0	0	0
2113.678	n/a	WORD	1056839	wordpools/wasnorm_wordpool_576.txt	LTP325	ltpFR2	8	9	CITRUS	313	n/a	n/a	0	0	0
2116.12	n/a	WORD	1058060	wordpools/wasnorm_wordpool_576.txt	LTP325	ltpFR2	8	9	HEDGE	699	n/a	n/a	0	0	0
2118.898	n/a	WORD	1059449	wordpools/wasnorm_wordpool_576.txt	LTP325	ltpFR2	8	9	COURSE	390	n/a	n/a	0	0	0
2121.668	n/a	WORD	1060834	wordpools/wasnorm_wordpool_576.txt	LTP325	ltpFR2	8	9	OZONE	996	n/a	n/a	0	0	0
2124.204	n/a	WORD	1062102	wordpools/wasnorm_wordpool_576.txt	LTP325	ltpFR2	8	9	LAKE	796	n/a	n/a	0	0	0
2126.698	n/a	WORD	1063349	wordpools/wasnorm_wordpool_576.txt	LTP325	ltpFR2	8	9	TURKEY	1520	n/a	n/a	0	0	0
2129.316	n/a	WORD	1064658	wordpools/wasnorm_wordpool_576.txt	LTP325	ltpFR2	8	9	SHOULDER	1294	n/a	n/a	0	0	0
2132.092	n/a	WORD	1066046	wordpools/wasnorm_wordpool_576.txt	LTP325	ltpFR2	8	9	BODY	145	n/a	n/a	0	0	0
2134.636	n/a	WORD	1067318	wordpools/wasnorm_wordpool_576.txt	LTP325	ltpFR2	8	9	BUREAU	199	n/a	n/a	0	0	0
2137.23	n/a	WORD	1068615	wordpools/wasnorm_wordpool_576.txt	LTP325	ltpFR2	8	9	COMPASS	358	n/a	n/a	0	0	0
2138.84	n/a	START	1069420	n/a	LTP325	ltpFR2	8	n/a	n/a	n/a	13	n/a	n/a	n/a	n/a
2139.742	n/a	DISTRACTOR	1069871	n/a	LTP325	ltpFR2	8	9	n/a	n/a	n/a	n/a	0	0	0
2139.748	n/a	PROB	1069874	n/a	LTP325	ltpFR2	8	n/a	n/a	n/a	13	22	8	7	7
2142.076	n/a	PROB	1071038	n/a	LTP325	ltpFR2	8	n/a	n/a	n/a	13	17	6	4	7
2143.726	n/a	PROB	1071863	n/a	LTP325	ltpFR2	8	n/a	n/a	n/a	13	17	9	4	4
2146.196	n/a	PROB	1073098	n/a	LTP325	ltpFR2	8	n/a	n/a	n/a	13	7	1	2	4
2148.446	n/a	PROB	1074223	n/a	LTP325	ltpFR2	8	n/a	n/a	n/a	13	11	5	3	3
2150.798	n/a	PROB	1075399	n/a	LTP325	ltpFR2	8	n/a	n/a	n/a	13	23	6	8	9
2156.188	n/a	PROB	1078094	n/a	LTP325	ltpFR2	8	n/a	n/a	n/a	13	14	4	2	8
2157.656	n/a	PROB	1078828	n/a	LTP325	ltpFR2	8	n/a	n/a	n/a	13	20	8	6	6
2159.39	n/a	PROB	1079695	n/a	LTP325	ltpFR2	8	n/a	n/a	n/a	13	10	2	1	7
2162.842	n/a	STOP	1081421	n/a	LTP325	ltpFR2	8	n/a	n/a	n/a	13	n/a	n/a	n/a	n/a
2164.63	n/a	REC_START	1082315	n/a	LTP325	ltpFR2	8	9	n/a	n/a	n/a	n/a	0	0	0
2166.454	n/a	REC_WORD	1083227	wordpools/wasnorm_wordpool_576.txt	LTP325	ltpFR2	8	9	AIRPLANE	12	n/a	n/a	0	0	0
2169.026	n/a	REC_WORD	1084513	wordpools/wasnorm_wordpool_576.txt	LTP325	ltpFR2	8	9	WOMAN	1620	n/a	n/a	0	0	0
2170.914	n/a	REC_WORD	1085457	wordpools/wasnorm_wordpool_576.txt	LTP325	ltpFR2	8	9	DRESSER	496	n/a	n/a	0	0	0
2173.12	n/a	REC_WORD	1086560	wordpools/wasnorm_wordpool_576.txt	LTP325	ltpFR2	8	9	CHILD	299	n/a	n/a	0	0	0
2175.982	n/a	REC_WORD	1087991	wordpools/wasnorm_wordpool_576.txt	LTP325	ltpFR2	8	9	JEANS	752	n/a	n/a	0	0	0
2177.932	n/a	REC_WORD	1088966	wordpools/wasnorm_wordpool_576.txt	LTP325	ltpFR2	8	9	BREAST	171	n/a	n/a	0	0	0
2179.57	n/a	REC_WORD	1089785	wordpools/wasnorm_wordpool_576.txt	LTP325	ltpFR2	8	9	BARLEY	88	n/a	n/a	0	0	0
2184.808	n/a	REC_WORD	1092404	wordpools/wasnorm_wordpool_576.txt	LTP325	ltpFR2	8	9	LUMBER	848	n/a	n/a	0	0	0
2186.514	n/a	REC_WORD	1093257	wordpools/wasnorm_wordpool_576.txt	LTP325	ltpFR2	8	9	CABIN	211	n/a	n/a	0	0	0
2212.572	n/a	REC_WORD	1106286	wordpools/wasnorm_wordpool_576.txt	LTP325	ltpFR2	8	9	WITNESS	1618	n/a	n/a	0	0	0
2255.088	n/a	DISTRACTOR	1127544	n/a	LTP325	ltpFR2	8	10	n/a	n/a	n/a	n/a	0	0	0
2255.09	n/a	START	1127545	n/a	LTP325	ltpFR2	8	n/a	n/a	n/a	14	n/a	n/a	n/a	n/a
2255.106	n/a	PROB	1127553	n/a	LTP325	ltpFR2	8	n/a	n/a	n/a	14	12	2	1	9
2256.608	n/a	PROB	1128304	n/a	LTP325	ltpFR2	8	n/a	n/a	n/a	14	17	9	1	7
2258.458	n/a	PROB	1129229	n/a	LTP325	ltpFR2	8	n/a	n/a	n/a	14	19	9	8	2
2260.812	n/a	PROB	1130406	n/a	LTP325	ltpFR2	8	n/a	n/a	n/a	14	11	4	5	2
2264.13	n/a	PROB	1132065	n/a	LTP325	ltpFR2	8	n/a	n/a	n/a	14	10	7	1	2
2265.816	n/a	PROB	1132908	n/a	LTP325	ltpFR2	8	n/a	n/a	n/a	14	7	2	2	3
2267.966	n/a	PROB	1133983	n/a	LTP325	ltpFR2	8	n/a	n/a	n/a	14	15	8	4	3
2269.784	n/a	PROB	1134892	n/a	LTP325	ltpFR2	8	n/a	n/a	n/a	14	14	1	9	4
2271.086	n/a	PROB	1135543	n/a	LTP325	ltpFR2	8	n/a	n/a	n/a	14	9	2	1	6
2273.406	n/a	PROB	1136703	n/a	LTP325	ltpFR2	8	n/a	n/a	n/a	14	14	3	3	8
2276.622	n/a	PROB	1138311	n/a	LTP325	ltpFR2	8	n/a	n/a	n/a	14	19	5	5	9
2278.222	n/a	STOP	1139111	n/a	LTP325	ltpFR2	8	n/a	n/a	n/a	14	n/a	n/a	n/a	n/a
2280.308	n/a	WORD	1140154	wordpools/wasnorm_wordpool_576.txt	LTP325	ltpFR2	8	10	GRAVE	658	n/a	n/a	0	0	0
2282.844	n/a	WORD	1141422	wordpools/wasnorm_wordpool_576.txt	LTP325	ltpFR2	8	10	CELLAR	267	n/a	n/a	0	0	0
2285.43	n/a	WORD	1142715	wordpools/wasnorm_wordpool_576.txt	LTP325	ltpFR2	8	10	GREASE	660	n/a	n/a	0	0	0
2288.082	n/a	WORD	1144041	wordpools/wasnorm_wordpool_576.txt	LTP325	ltpFR2	8	10	GALLON	618	n/a	n/a	0	0	0
2290.868	n/a	WORD	1145434	wordpools/wasnorm_wordpool_576.txt	LTP325	ltpFR2	8	10	SWORD	1423	n/a	n/a	0	0	0
2293.306	n/a	WORD	1146653	wordpools/wasnorm_wordpool_576.txt	LTP325	ltpFR2	8	10	MAPLE	866	n/a	n/a	0	0	0
2295.776	n/a	WORD	1147888	wordpools/wasnorm_wordpool_576.txt	LTP325	ltpFR2	8	10	BROOK	177	n/a	n/a	0	0	0
2298.59	n/a	WORD	1149295	wordpools/wasnorm_wordpool_576.txt	LTP325	ltpFR2	8	10	CRITIC	410	n/a	n/a	0	0	0
2301.314	n/a	WORD	1150657	wordpools/wasnorm_wordpool_576.txt	LTP325	ltpFR2	8	10	MEAT	883	n/a	n/a	0	0	0
2303.878	n/a	WORD	1151939	wordpools/wasnorm_wordpool_576.txt	LTP325	ltpFR2	8	10	SAUSAGE	1238	n/a	n/a	0	0	0
2306.418	n/a	WORD	1153209	wordpools/wasnorm_wordpool_576.txt	LTP325	ltpFR2	8	10	BUGGY	188	n/a	n/a	0	0	0
2309.048	n/a	WORD	1154524	wordpools/wasnorm_wordpool_576.txt	LTP325	ltpFR2	8	10	ACTRESS	6	n/a	n/a	0	0	0
2311.55	n/a	WORD	1155775	wordpools/wasnorm_wordpool_576.txt	LTP325	ltpFR2	8	10	GOBLIN	645	n/a	n/a	0	0	0
2313.99	n/a	WORD	1156995	wordpools/wasnorm_wordpool_576.txt	LTP325	ltpFR2	8	10	DRAGON	492	n/a	n/a	0	0	0
2316.738	n/a	WORD	1158369	wordpools/wasnorm_wordpool_576.txt	LTP325	ltpFR2	8	10	CURTAIN	427	n/a	n/a	0	0	0
2319.478	n/a	WORD	1159739	wordpools/wasnorm_wordpool_576.txt	LTP325	ltpFR2	8	10	BUG	187	n/a	n/a	0	0	0
2321.926	n/a	WORD	1160963	wordpools/wasnorm_wordpool_576.txt	LTP325	ltpFR2	8	10	CRICKET	408	n/a	n/a	0	0	0
2324.728	n/a	WORD	1162364	wordpools/wasnorm_wordpool_576.txt	LTP325	ltpFR2	8	10	MAILBOX	857	n/a	n/a	0	0	0
2327.33	n/a	WORD	1163665	wordpools/wasnorm_wordpool_576.txt	LTP325	ltpFR2	8	10	BRAKE	166	n/a	n/a	0	0	0
2329.816	n/a	WORD	1164908	wordpools/wasnorm_wordpool_576.txt	LTP325	ltpFR2	8	10	TWIG	1527	n/a	n/a	0	0	0
2332.584	n/a	WORD	1166292	wordpools/wasnorm_wordpool_576.txt	LTP325	ltpFR2	8	10	FOREST	593	n/a	n/a	0	0	0
2335.086	n/a	WORD	1167543	wordpools/wasnorm_wordpool_576.txt	LTP325	ltpFR2	8	10	SUBWAY	1400	n/a	n/a	0	0	0
2337.538	n/a	WORD	1168769	wordpools/wasnorm_wordpool_576.txt	LTP325	ltpFR2	8	10	ATOM	55	n/a	n/a	0	0	0
2340.14	n/a	WORD	1170070	wordpools/wasnorm_wordpool_576.txt	LTP325	ltpFR2	8	10	ACTOR	5	n/a	n/a	0	0	0
2341.748	n/a	START	1170874	n/a	LTP325	ltpFR2	8	n/a	n/a	n/a	15	n/a	n/a	n/a	n/a
2342.85	n/a	DISTRACTOR	1171425	n/a	LTP325	ltpFR2	8	10	n/a	n/a	n/a	n/a	0	0	0
2342.858	n/a	PROB	1171429	n/a	LTP325	ltpFR2	8	n/a	n/a	n/a	15	20	7	7	6
2345.016	n/a	PROB	1172508	n/a	LTP325	ltpFR2	8	n/a	n/a	n/a	15	15	4	8	3
2346.968	n/a	PROB	1173484	n/a	LTP325	ltpFR2	8	n/a	n/a	n/a	15	15	2	9	4
2348.602	n/a	PROB	1174301	n/a	LTP325	ltpFR2	8	n/a	n/a	n/a	15	18	7	7	4
2350.422	n/a	PROB	1175211	n/a	LTP325	ltpFR2	8	n/a	n/a	n/a	15	17	5	6	6
2352.356	n/a	PROB	1176178	n/a	LTP325	ltpFR2	8	n/a	n/a	n/a	15	14	6	4	4
2353.774	n/a	PROB	1176887	n/a	LTP325	ltpFR2	8	n/a	n/a	n/a	15	11	1	8	2
2355.09	n/a	PROB	1177545	n/a	LTP325	ltpFR2	8	n/a	n/a	n/a	15	17	5	9	3
2358.044	n/a	PROB	1179022	n/a	LTP325	ltpFR2	8	n/a	n/a	n/a	15	12	2	8	2
2359.48	n/a	PROB	1179740	n/a	LTP325	ltpFR2	8	n/a	n/a	n/a	15	7	4	2	1
2361.698	n/a	PROB	1180849	n/a	LTP325	ltpFR2	8	n/a	n/a	n/a	15	12	1	4	7
2365.75	n/a	STOP	1182875	n/a	LTP325	ltpFR2	8	n/a	n/a	n/a	15	n/a	n/a	n/a	n/a
2367.586	n/a	REC_START	1183793	n/a	LTP325	ltpFR2	8	10	n/a	n/a	n/a	n/a	0	0	0
2369.34	n/a	REC_WORD	1184670	wordpools/wasnorm_wordpool_576.txt	LTP325	ltpFR2	8	10	ACTOR	5	n/a	n/a	0	0	0
2370.628	n/a	REC_WORD	1185314	wordpools/wasnorm_wordpool_576.txt	LTP325	ltpFR2	8	10	ACTRESS	6	n/a	n/a	0	0	0
2372.646	n/a	REC_WORD	1186323	wordpools/wasnorm_wordpool_576.txt	LTP325	ltpFR2	8	10	MEAT	883	n/a	n/a	0	0	0
2374.154	n/a	REC_WORD	1187077	wordpools/wasnorm_wordpool_576.txt	LTP325	ltpFR2	8	10	SAUSAGE	1238	n/a	n/a	0	0	0
2376.006	n/a	REC_WORD	1188003	wordpools/wasnorm_wordpool_576.txt	LTP325	ltpFR2	8	10	BUGGY	188	n/a	n/a	0	0	0
2378.578	n/a	REC_WORD	1189289	wordpools/wasnorm_wordpool_576.txt	LTP325	ltpFR2	8	10	BUG	187	n/a	n/a	0	0	0
2379.788	n/a	REC_WORD	1189894	wordpools/wasnorm_wordpool_576.txt	LTP325	ltpFR2	8	10	CURTAIN	427	n/a	n/a	0	0	0
2381.8	n/a	REC_WORD	1190900	wordpools/wasnorm_wordpool_576.txt	LTP325	ltpFR2	8	10	GOBLIN	645	n/a	n/a	0	0	0
2383.436	n/a	REC_WORD	1191718	wordpools/wasnorm_wordpool_576.txt	LTP325	ltpFR2	8	10	DRAGON	492	n/a	n/a	0	0	0
2401.678	n/a	REC_WORD	1200839	wordpools/wasnorm_wordpool_576.txt	LTP325	ltpFR2	8	10	FOREST	593	n/a	n/a	0	0	0
2403.34	n/a	REC_WORD	1201670	wordpools/wasnorm_wordpool_576.txt	LTP325	ltpFR2	8	10	ATOM	55	n/a	n/a	0	0	0
2420.744	n/a	REC_WORD	1210372	wordpools/wasnorm_wordpool_576.txt	LTP325	ltpFR2	8	10	BROOK	177	n/a	n/a	0	0	0
2458.032	n/a	DISTRACTOR	1229016	n/a	LTP325	ltpFR2	8	11	n/a	n/a	n/a	n/a	0	0	0
2458.032	n/a	START	1229016	n/a	LTP325	ltpFR2	8	n/a	n/a	n/a	16	n/a	n/a	n/a	n/a
2458.046	n/a	PROB	1229023	n/a	LTP325	ltpFR2	8	n/a	n/a	n/a	16	12	1	7	4
2459.984	n/a	PROB	1229992	n/a	LTP325	ltpFR2	8	n/a	n/a	n/a	16	12	6	3	3
2461.95	n/a	PROB	1230975	n/a	LTP325	ltpFR2	8	n/a	n/a	n/a	16	13	2	6	5
2463.686	n/a	PROB	1231843	n/a	LTP325	ltpFR2	8	n/a	n/a	n/a	16	16	5	3	8
2466.856	n/a	PROB	1233428	n/a	LTP325	ltpFR2	8	n/a	n/a	n/a	16	17	7	9	1
2468.674	n/a	PROB	1234337	n/a	LTP325	ltpFR2	8	n/a	n/a	n/a	16	19	8	4	7
2471.292	n/a	PROB	1235646	n/a	LTP325	ltpFR2	8	n/a	n/a	n/a	16	13	2	8	3
2472.726	n/a	PROB	1236363	n/a	LTP325	ltpFR2	8	n/a	n/a	n/a	16	19	6	6	7
2475.43	n/a	PROB	1237715	n/a	LTP325	ltpFR2	8	n/a	n/a	n/a	16	12	6	5	1
2482.032	n/a	STOP	1241016	n/a	LTP325	ltpFR2	8	n/a	n/a	n/a	16	n/a	n/a	n/a	n/a
2483.136	n/a	WORD	1241568	wordpools/wasnorm_wordpool_576.txt	LTP325	ltpFR2	8	11	PADDLE	1000	n/a	n/a	0	0	0
2485.672	n/a	WORD	1242836	wordpools/wasnorm_wordpool_576.txt	LTP325	ltpFR2	8	11	CRAB	397	n/a	n/a	0	0	0
2488.458	n/a	WORD	1244229	wordpools/wasnorm_wordpool_576.txt	LTP325	ltpFR2	8	11	BATHTUB	100	n/a	n/a	0	0	0
2490.91	n/a	WORD	1245455	wordpools/wasnorm_wordpool_576.txt	LTP325	ltpFR2	8	11	SIBLING	1301	n/a	n/a	0	0	0
2493.496	n/a	WORD	1246748	wordpools/wasnorm_wordpool_576.txt	LTP325	ltpFR2	8	11	BEAST	108	n/a	n/a	0	0	0
2496.148	n/a	WORD	1248074	wordpools/wasnorm_wordpool_576.txt	LTP325	ltpFR2	8	11	HELMET	702	n/a	n/a	0	0	0
2498.766	n/a	WORD	1249383	wordpools/wasnorm_wordpool_576.txt	LTP325	ltpFR2	8	11	SUNRISE	1407	n/a	n/a	0	0	0
2501.268	n/a	WORD	1250634	wordpools/wasnorm_wordpool_576.txt	LTP325	ltpFR2	8	11	REPORT	1184	n/a	n/a	0	0	0
2503.888	n/a	WORD	1251944	wordpools/wasnorm_wordpool_576.txt	LTP325	ltpFR2	8	11	CIGAR	308	n/a	n/a	0	0	0
2506.388	n/a	WORD	1253194	wordpools/wasnorm_wordpool_576.txt	LTP325	ltpFR2	8	11	CAMEL	223	n/a	n/a	0	0	0
2509.174	n/a	WORD	1254587	wordpools/wasnorm_wordpool_576.txt	LTP325	ltpFR2	8	11	OYSTER	995	n/a	n/a	0	0	0
2511.776	n/a	WORD	1255888	wordpools/wasnorm_wordpool_576.txt	LTP325	ltpFR2	8	11	NOTEBOOK	959	n/a	n/a	0	0	0
2514.596	n/a	WORD	1257298	wordpools/wasnorm_wordpool_576.txt	LTP325	ltpFR2	8	11	TWEEZERS	1526	n/a	n/a	0	0	0
2517.114	n/a	WORD	1258557	wordpools/wasnorm_wordpool_576.txt	LTP325	ltpFR2	8	11	ZIPPER	1636	n/a	n/a	0	0	0
2519.732	n/a	WORD	1259866	wordpools/wasnorm_wordpool_576.txt	LTP325	ltpFR2	8	11	ISLAND	745	n/a	n/a	0	0	0
2522.268	n/a	WORD	1261134	wordpools/wasnorm_wordpool_576.txt	LTP325	ltpFR2	8	11	VENUS	1557	n/a	n/a	0	0	0
2524.768	n/a	WORD	1262384	wordpools/wasnorm_wordpool_576.txt	LTP325	ltpFR2	8	11	BLENDER	136	n/a	n/a	0	0	0
2527.404	n/a	WORD	1263702	wordpools/wasnorm_wordpool_576.txt	LTP325	ltpFR2	8	11	JOURNAL	760	n/a	n/a	0	0	0
2529.956	n/a	WORD	1264978	wordpools/wasnorm_wordpool_576.txt	LTP325	ltpFR2	8	11	DRUG	501	n/a	n/a	0	0	0
2532.726	n/a	WORD	1266363	wordpools/wasnorm_wordpool_576.txt	LTP325	ltpFR2	8	11	HERO	706	n/a	n/a	0	0	0
2535.262	n/a	WORD	1267631	wordpools/wasnorm_wordpool_576.txt	LTP325	ltpFR2	8	11	SOFTBALL	1343	n/a	n/a	0	0	0
2537.764	n/a	WORD	1268882	wordpools/wasnorm_wordpool_576.txt	LTP325	ltpFR2	8	11	BLUEPRINT	142	n/a	n/a	0	0	0
2540.186	n/a	WORD	1270093	wordpools/wasnorm_wordpool_576.txt	LTP325	ltpFR2	8	11	SHELTER	1282	n/a	n/a	0	0	0
2542.984	n/a	WORD	1271492	wordpools/wasnorm_wordpool_576.txt	LTP325	ltpFR2	8	11	PORK	1108	n/a	n/a	0	0	0
2544.59	n/a	START	1272295	n/a	LTP325	ltpFR2	8	n/a	n/a	n/a	17	n/a	n/a	n/a	n/a
2545.472	n/a	DISTRACTOR	1272736	n/a	LTP325	ltpFR2	8	11	n/a	n/a	n/a	n/a	0	0	0
2545.486	n/a	PROB	1272743	n/a	LTP325	ltpFR2	8	n/a	n/a	n/a	17	8	1	1	6
2547.492	n/a	PROB	1273746	n/a	LTP325	ltpFR2	8	n/a	n/a	n/a	17	14	9	3	2
2549.826	n/a	PROB	1274913	n/a	LTP325	ltpFR2	8	n/a	n/a	n/a	17	11	4	4	3
2551.712	n/a	PROB	1275856	n/a	LTP325	ltpFR2	8	n/a	n/a	n/a	17	22	9	8	5
2554.232	n/a	PROB	1277116	n/a	LTP325	ltpFR2	8	n/a	n/a	n/a	17	17	9	2	6
2557.7	n/a	PROB	1278850	n/a	LTP325	ltpFR2	8	n/a	n/a	n/a	17	9	3	2	4
2559.568	n/a	PROB	1279784	n/a	LTP325	ltpFR2	8	n/a	n/a	n/a	17	6	1	1	4
2561.054	n/a	PROB	1280527	n/a	LTP325	ltpFR2	8	n/a	n/a	n/a	17	15	4	3	8
2563.54	n/a	PROB	1281770	n/a	LTP325	ltpFR2	8	n/a	n/a	n/a	17	22	7	8	7
2565.324	n/a	PROB	1282662	n/a	LTP325	ltpFR2	8	n/a	n/a	n/a	17	12	3	5	4
2568.086	n/a	STOP	1284043	n/a	LTP325	ltpFR2	8	n/a	n/a	n/a	17	n/a	n/a	n/a	n/a
2570.412	n/a	REC_START	1285206	n/a	LTP325	ltpFR2	8	11	n/a	n/a	n/a	n/a	0	0	0
2573.392	n/a	REC_WORD	1286696	wordpools/wasnorm_wordpool_576.txt	LTP325	ltpFR2	8	11	OYSTER	995	n/a	n/a	0	0	0
2581.556	n/a	REC_WORD	1290778	wordpools/wasnorm_wordpool_576.txt	LTP325	ltpFR2	8	11	JOURNAL	760	n/a	n/a	0	0	0
2583.23	n/a	REC_WORD	1291615	wordpools/wasnorm_wordpool_576.txt	LTP325	ltpFR2	8	11	BLENDER	136	n/a	n/a	0	0	0
2595.336	n/a	REC_WORD	1297668	wordpools/wasnorm_wordpool_576.txt	LTP325	ltpFR2	8	11	CIGAR	308	n/a	n/a	0	0	0
2597.664	n/a	REC_WORD	1298832	wordpools/wasnorm_wordpool_576.txt	LTP325	ltpFR2	8	11	SUNRISE	1407	n/a	n/a	0	0	0
2599.356	n/a	REC_WORD	1299678	wordpools/wasnorm_wordpool_576.txt	LTP325	ltpFR2	8	11	REPORT	1184	n/a	n/a	0	0	0
2604.912	n/a	REC_WORD	1302456	wordpools/wasnorm_wordpool_576.txt	LTP325	ltpFR2	8	11	VENUS	1557	n/a	n/a	0	0	0
2614.502	n/a	REC_WORD	1307251	wordpools/wasnorm_wordpool_576.txt	LTP325	ltpFR2	8	11	HELMET	702	n/a	n/a	0	0	0
2624.604	n/a	REC_WORD	1312302	wordpools/wasnorm_wordpool_576.txt	LTP325	ltpFR2	8	11	SIBLING	1301	n/a	n/a	0	0	0
2626.214	n/a	REC_WORD	1313107	wordpools/wasnorm_wordpool_576.txt	LTP325	ltpFR2	8	11	BATHTUB	100	n/a	n/a	0	0	0
2628.146	n/a	REC_WORD	1314073	wordpools/wasnorm_wordpool_576.txt	LTP325	ltpFR2	8	11	CRAB	397	n/a	n/a	0	0	0
2638.776	n/a	REC_WORD	1319388	wordpools/wasnorm_wordpool_576.txt	LTP325	ltpFR2	8	11	PADDLE	1000	n/a	n/a	0	0	0
2660.84	n/a	DISTRACTOR	1330420	n/a	LTP325	ltpFR2	8	12	n/a	n/a	n/a	n/a	0	0	0
2660.84	n/a	START	1330420	n/a	LTP325	ltpFR2	8	n/a	n/a	n/a	18	n/a	n/a	n/a	n/a
2660.856	n/a	PROB	1330428	n/a	LTP325	ltpFR2	8	n/a	n/a	n/a	18	18	1	8	9
2662.606	n/a	PROB	1331303	n/a	LTP325	ltpFR2	8	n/a	n/a	n/a	18	19	6	8	5
2665.076	n/a	PROB	1332538	n/a	LTP325	ltpFR2	8	n/a	n/a	n/a	18	13	8	1	4
2667.212	n/a	PROB	1333606	n/a	LTP325	ltpFR2	8	n/a	n/a	n/a	18	7	1	2	3
2669.864	n/a	PROB	1334932	n/a	LTP325	ltpFR2	8	n/a	n/a	n/a	18	13	1	6	6
2671.514	n/a	PROB	1335757	n/a	LTP325	ltpFR2	8	n/a	n/a	n/a	18	17	6	8	3
2674.85	n/a	PROB	1337425	n/a	LTP325	ltpFR2	8	n/a	n/a	n/a	18	16	2	5	9
2677.404	n/a	PROB	1338702	n/a	LTP325	ltpFR2	8	n/a	n/a	n/a	18	18	5	4	9
2679.954	n/a	PROB	1339977	n/a	LTP325	ltpFR2	8	n/a	n/a	n/a	18	13	4	5	4
2682.506	n/a	PROB	1341253	n/a	LTP325	ltpFR2	8	n/a	n/a	n/a	18	19	4	6	9
2684.122	n/a	STOP	1342061	n/a	LTP325	ltpFR2	8	n/a	n/a	n/a	18	n/a	n/a	n/a	n/a
2685.946	n/a	WORD	1342973	wordpools/wasnorm_wordpool_576.txt	LTP325	ltpFR2	8	12	STAMP	1370	n/a	n/a	0	0	0
2688.43	n/a	WORD	1344215	wordpools/wasnorm_wordpool_576.txt	LTP325	ltpFR2	8	12	SLOPE	1328	n/a	n/a	0	0	0
2691.148	n/a	WORD	1345574	wordpools/wasnorm_wordpool_576.txt	LTP325	ltpFR2	8	12	PROTON	1132	n/a	n/a	0	0	0
2693.838	n/a	WORD	1346919	wordpools/wasnorm_wordpool_576.txt	LTP325	ltpFR2	8	12	SEAL	1262	n/a	n/a	0	0	0
2696.44	n/a	WORD	1348220	wordpools/wasnorm_wordpool_576.txt	LTP325	ltpFR2	8	12	PLASTER	1085	n/a	n/a	0	0	0
2699.04	n/a	WORD	1349520	wordpools/wasnorm_wordpool_576.txt	LTP325	ltpFR2	8	12	TRIBE	1505	n/a	n/a	0	0	0
2701.808	n/a	WORD	1350904	wordpools/wasnorm_wordpool_576.txt	LTP325	ltpFR2	8	12	MESSAGE	888	n/a	n/a	0	0	0
2704.43	n/a	WORD	1352215	wordpools/wasnorm_wordpool_576.txt	LTP325	ltpFR2	8	12	JURY	766	n/a	n/a	0	0	0
2706.896	n/a	WORD	1353448	wordpools/wasnorm_wordpool_576.txt	LTP325	ltpFR2	8	12	MILK	895	n/a	n/a	0	0	0
2709.432	n/a	WORD	1354716	wordpools/wasnorm_wordpool_576.txt	LTP325	ltpFR2	8	12	OX	994	n/a	n/a	0	0	0
2712.018	n/a	WORD	1356009	wordpools/wasnorm_wordpool_576.txt	LTP325	ltpFR2	8	12	TABLE	1426	n/a	n/a	0	0	0
2714.804	n/a	WORD	1357402	wordpools/wasnorm_wordpool_576.txt	LTP325	ltpFR2	8	12	PIGEON	1065	n/a	n/a	0	0	0
2717.538	n/a	WORD	1358769	wordpools/wasnorm_wordpool_576.txt	LTP325	ltpFR2	8	12	PORTRAIT	1111	n/a	n/a	0	0	0
2720.274	n/a	WORD	1360137	wordpools/wasnorm_wordpool_576.txt	LTP325	ltpFR2	8	12	LADY	794	n/a	n/a	0	0	0
2722.926	n/a	WORD	1361463	wordpools/wasnorm_wordpool_576.txt	LTP325	ltpFR2	8	12	TEMPLE	1448	n/a	n/a	0	0	0
2725.544	n/a	WORD	1362772	wordpools/wasnorm_wordpool_576.txt	LTP325	ltpFR2	8	12	IDOL	733	n/a	n/a	0	0	0
2728.348	n/a	WORD	1364174	wordpools/wasnorm_wordpool_576.txt	LTP325	ltpFR2	8	12	HARP	689	n/a	n/a	0	0	0
2731.166	n/a	WORD	1365583	wordpools/wasnorm_wordpool_576.txt	LTP325	ltpFR2	8	12	RACKET	1155	n/a	n/a	0	0	0
2733.636	n/a	WORD	1366818	wordpools/wasnorm_wordpool_576.txt	LTP325	ltpFR2	8	12	CRIB	407	n/a	n/a	0	0	0
2736.354	n/a	WORD	1368177	wordpools/wasnorm_wordpool_576.txt	LTP325	ltpFR2	8	12	GANGSTER	620	n/a	n/a	0	0	0
2739.006	n/a	WORD	1369503	wordpools/wasnorm_wordpool_576.txt	LTP325	ltpFR2	8	12	ARM	38	n/a	n/a	0	0	0
2741.608	n/a	WORD	1370804	wordpools/wasnorm_wordpool_576.txt	LTP325	ltpFR2	8	12	ELBOW	520	n/a	n/a	0	0	0
2744.326	n/a	WORD	1372163	wordpools/wasnorm_wordpool_576.txt	LTP325	ltpFR2	8	12	COUCH	386	n/a	n/a	0	0	0
2747.08	n/a	WORD	1373540	wordpools/wasnorm_wordpool_576.txt	LTP325	ltpFR2	8	12	ONION	977	n/a	n/a	0	0	0
2748.698	n/a	START	1374349	n/a	LTP325	ltpFR2	8	n/a	n/a	n/a	19	n/a	n/a	n/a	n/a
2749.636	n/a	DISTRACTOR	1374818	n/a	LTP325	ltpFR2	8	12	n/a	n/a	n/a	n/a	0	0	0
2749.648	n/a	PROB	1374824	n/a	LTP325	ltpFR2	8	n/a	n/a	n/a	19	15	8	3	4
2751.75	n/a	PROB	1375875	n/a	LTP325	ltpFR2	8	n/a	n/a	n/a	19	16	8	3	5
2753.75	n/a	PROB	1376875	n/a	LTP325	ltpFR2	8	n/a	n/a	n/a	19	18	9	5	4
2755.638	n/a	PROB	1377819	n/a	LTP325	ltpFR2	8	n/a	n/a	n/a	19	12	6	4	2
2756.986	n/a	PROB	1378493	n/a	LTP325	ltpFR2	8	n/a	n/a	n/a	19	17	7	4	6
2760.092	n/a	PROB	1380046	n/a	LTP325	ltpFR2	8	n/a	n/a	n/a	19	15	6	8	1
2762.058	n/a	PROB	1381029	n/a	LTP325	ltpFR2	8	n/a	n/a	n/a	19	9	4	4	1
2764.028	n/a	PROB	1382014	n/a	LTP325	ltpFR2	8	n/a	n/a	n/a	19	17	5	5	7
2765.31	n/a	PROB	1382655	n/a	LTP325	ltpFR2	8	n/a	n/a	n/a	19	14	9	4	1
2767.844	n/a	PROB	1383922	n/a	LTP325	ltpFR2	8	n/a	n/a	n/a	19	8	4	3	1
2769.598	n/a	PROB	1384799	n/a	LTP325	ltpFR2	8	n/a	n/a	n/a	19	6	3	2	1
2771.388	n/a	STOP	1385694	n/a	LTP325	ltpFR2	8	n/a	n/a	n/a	19	n/a	n/a	n/a	n/a
2774.506	n/a	REC_START	1387253	n/a	LTP325	ltpFR2	8	12	n/a	n/a	n/a	n/a	0	0	0
2776.122	n/a	REC_WORD	1388061	wordpools/wasnorm_wordpool_576.txt	LTP325	ltpFR2	8	12	ARM	38	n/a	n/a	0	0	0
2777.772	n/a	REC_WORD	1388886	wordpools/wasnorm_wordpool_576.txt	LTP325	ltpFR2	8	12	ELBOW	520	n/a	n/a	0	0	0
2779.538	n/a	REC_WORD	1389769	wordpools/wasnorm_wordpool_576.txt	LTP325	ltpFR2	8	12	CRIB	407	n/a	n/a	0	0	0
2794.33	n/a	REC_WORD	1397165	wordpools/wasnorm_wordpool_576.txt	LTP325	ltpFR2	8	12	LADY	794	n/a	n/a	0	0	0
2864.948	n/a	WORD	1432474	wordpools/wasnorm_wordpool_576.txt	LTP325	ltpFR2	8	13	FRUIT	610	n/a	n/a	0	0	0
2867.568	n/a	WORD	1433784	wordpools/wasnorm_wordpool_576.txt	LTP325	ltpFR2	8	13	WAGON	1578	n/a	n/a	0	0	0
2870.328	n/a	WORD	1435164	wordpools/wasnorm_wordpool_576.txt	LTP325	ltpFR2	8	13	LUNCH	849	n/a	n/a	0	0	0
2872.756	n/a	WORD	1436378	wordpools/wasnorm_wordpool_576.txt	LTP325	ltpFR2	8	13	SALT	1229	n/a	n/a	0	0	0
2875.374	n/a	WORD	1437687	wordpools/wasnorm_wordpool_576.txt	LTP325	ltpFR2	8	13	RATTLE	1170	n/a	n/a	0	0	0
2878.01	n/a	WORD	1439005	wordpools/wasnorm_wordpool_576.txt	LTP325	ltpFR2	8	13	DIME	466	n/a	n/a	0	0	0
2880.662	n/a	WORD	1440331	wordpools/wasnorm_wordpool_576.txt	LTP325	ltpFR2	8	13	FLIPPER	580	n/a	n/a	0	0	0
2883.098	n/a	WORD	1441549	wordpools/wasnorm_wordpool_576.txt	LTP325	ltpFR2	8	13	CONVICT	371	n/a	n/a	0	0	0
2885.65	n/a	WORD	1442825	wordpools/wasnorm_wordpool_576.txt	LTP325	ltpFR2	8	13	SHELF	1280	n/a	n/a	0	0	0
2888.386	n/a	WORD	1444193	wordpools/wasnorm_wordpool_576.txt	LTP325	ltpFR2	8	13	PARSLEY	1016	n/a	n/a	0	0	0
2890.988	n/a	WORD	1445494	wordpools/wasnorm_wordpool_576.txt	LTP325	ltpFR2	8	13	STOMACH	1384	n/a	n/a	0	0	0
2893.708	n/a	WORD	1446854	wordpools/wasnorm_wordpool_576.txt	LTP325	ltpFR2	8	13	CAFE	216	n/a	n/a	0	0	0
2896.36	n/a	WORD	1448180	wordpools/wasnorm_wordpool_576.txt	LTP325	ltpFR2	8	13	ROCKET	1202	n/a	n/a	0	0	0
2898.882	n/a	WORD	1449441	wordpools/wasnorm_wordpool_576.txt	LTP325	ltpFR2	8	13	PREACHER	1119	n/a	n/a	0	0	0
2901.43	n/a	WORD	1450715	wordpools/wasnorm_wordpool_576.txt	LTP325	ltpFR2	8	13	PERCH	1048	n/a	n/a	0	0	0
2903.986	n/a	WORD	1451993	wordpools/wasnorm_wordpool_576.txt	LTP325	ltpFR2	8	13	PEACH	1031	n/a	n/a	0	0	0
2906.79	n/a	WORD	1453395	wordpools/wasnorm_wordpool_576.txt	LTP325	ltpFR2	8	13	GYMNAST	675	n/a	n/a	0	0	0
2909.458	n/a	WORD	1454729	wordpools/wasnorm_wordpool_576.txt	LTP325	ltpFR2	8	13	ULCER	1533	n/a	n/a	0	0	0
2912.106	n/a	WORD	1456053	wordpools/wasnorm_wordpool_576.txt	LTP325	ltpFR2	8	13	FINGER	567	n/a	n/a	0	0	0
2914.624	n/a	WORD	1457312	wordpools/wasnorm_wordpool_576.txt	LTP325	ltpFR2	8	13	GLOVE	642	n/a	n/a	0	0	0
2917.264	n/a	WORD	1458632	wordpools/wasnorm_wordpool_576.txt	LTP325	ltpFR2	8	13	POPCORN	1104	n/a	n/a	0	0	0
2919.846	n/a	WORD	1459923	wordpools/wasnorm_wordpool_576.txt	LTP325	ltpFR2	8	13	COCOON	339	n/a	n/a	0	0	0
2922.448	n/a	WORD	1461224	wordpools/wasnorm_wordpool_576.txt	LTP325	ltpFR2	8	13	SEAGULL	1261	n/a	n/a	0	0	0
2925.0	n/a	WORD	1462500	wordpools/wasnorm_wordpool_576.txt	LTP325	ltpFR2	8	13	PASTRY	1022	n/a	n/a	0	0	0
2926.62	n/a	START	1463310	n/a	LTP325	ltpFR2	8	n/a	n/a	n/a	20	n/a	n/a	n/a	n/a
2927.748	n/a	DISTRACTOR	1463874	n/a	LTP325	ltpFR2	8	13	n/a	n/a	n/a	n/a	0	0	0
2927.754	n/a	PROB	1463877	n/a	LTP325	ltpFR2	8	n/a	n/a	n/a	20	13	6	6	1
2929.286	n/a	PROB	1464643	n/a	LTP325	ltpFR2	8	n/a	n/a	n/a	20	6	1	4	1
2930.722	n/a	PROB	1465361	n/a	LTP325	ltpFR2	8	n/a	n/a	n/a	20	20	8	9	3
2933.39	n/a	PROB	1466695	n/a	LTP325	ltpFR2	8	n/a	n/a	n/a	20	15	1	9	5
2934.708	n/a	PROB	1467354	n/a	LTP325	ltpFR2	8	n/a	n/a	n/a	20	12	6	2	3
2937.644	n/a	PROB	1468822	n/a	LTP325	ltpFR2	8	n/a	n/a	n/a	20	17	7	4	6
2940.764	n/a	PROB	1470382	n/a	LTP325	ltpFR2	8	n/a	n/a	n/a	20	14	9	3	2
2943.9	n/a	PROB	1471950	n/a	LTP325	ltpFR2	8	n/a	n/a	n/a	20	13	3	6	4
2946.3	n/a	PROB	1473150	n/a	LTP325	ltpFR2	8	n/a	n/a	n/a	20	16	1	6	9
2948.07	n/a	PROB	1474035	n/a	LTP325	ltpFR2	8	n/a	n/a	n/a	20	14	6	1	7
2950.346	n/a	STOP	1475173	n/a	LTP325	ltpFR2	8	n/a	n/a	n/a	20	n/a	n/a	n/a	n/a
2952.572	n/a	REC_START	1476286	n/a	LTP325	ltpFR2	8	13	n/a	n/a	n/a	n/a	0	0	0
2960.766	n/a	REC_WORD	1480383	wordpools/wasnorm_wordpool_576.txt	LTP325	ltpFR2	8	13	RATTLE	1170	n/a	n/a	0	0	0
2968.396	n/a	REC_WORD	1484198	wordpools/wasnorm_wordpool_576.txt	LTP325	ltpFR2	8	13	DIME	466	n/a	n/a	0	0	0
2974.254	n/a	REC_WORD	1487127	wordpools/wasnorm_wordpool_576.txt	LTP325	ltpFR2	8	13	WAGON	1578	n/a	n/a	0	0	0
2976.174	n/a	REC_WORD	1488087	wordpools/wasnorm_wordpool_576.txt	LTP325	ltpFR2	8	13	FRUIT	610	n/a	n/a	0	0	0
2977.906	n/a	REC_WORD	1488953	wordpools/wasnorm_wordpool_576.txt	LTP325	ltpFR2	8	13	SALT	1229	n/a	n/a	0	0	0
2979.544	n/a	REC_WORD	1489772	wordpools/wasnorm_wordpool_576.txt	LTP325	ltpFR2	8	13	LUNCH	849	n/a	n/a	0	0	0
2987.678	n/a	REC_WORD	1493839	wordpools/wasnorm_wordpool_576.txt	LTP325	ltpFR2	8	13	SHELF	1280	n/a	n/a	0	0	0
2989.118	n/a	REC_WORD	1494559	wordpools/wasnorm_wordpool_576.txt	LTP325	ltpFR2	8	13	PARSLEY	1016	n/a	n/a	0	0	0
2991.07	n/a	REC_WORD	1495535	wordpools/wasnorm_wordpool_576.txt	LTP325	ltpFR2	8	13	PEACH	1031	n/a	n/a	0	0	0
2996.292	n/a	REC_WORD	1498146	wordpools/wasnorm_wordpool_576.txt	LTP325	ltpFR2	8	13	CONVICT	371	n/a	n/a	0	0	0
3000.634	n/a	REC_WORD	1500317	wordpools/wasnorm_wordpool_576.txt	LTP325	ltpFR2	8	13	FLIPPER	580	n/a	n/a	0	0	0
3011.592	n/a	REC_WORD	1505796	wordpools/wasnorm_wordpool_576.txt	LTP325	ltpFR2	8	13	STOMACH	1384	n/a	n/a	0	0	0
3043.014	n/a	DISTRACTOR	1521507	n/a	LTP325	ltpFR2	8	14	n/a	n/a	n/a	n/a	0	0	0
3043.014	n/a	START	1521507	n/a	LTP325	ltpFR2	8	n/a	n/a	n/a	21	n/a	n/a	n/a	n/a
3043.03	n/a	PROB	1521515	n/a	LTP325	ltpFR2	8	n/a	n/a	n/a	21	18	4	9	5
3045.654	n/a	PROB	1522827	n/a	LTP325	ltpFR2	8	n/a	n/a	n/a	21	10	8	1	1
3047.088	n/a	PROB	1523544	n/a	LTP325	ltpFR2	8	n/a	n/a	n/a	21	14	6	4	4
3048.39	n/a	PROB	1524195	n/a	LTP325	ltpFR2	8	n/a	n/a	n/a	21	9	1	5	3
3051.158	n/a	PROB	1525579	n/a	LTP325	ltpFR2	8	n/a	n/a	n/a	21	15	2	5	8
3052.992	n/a	PROB	1526496	n/a	LTP325	ltpFR2	8	n/a	n/a	n/a	21	9	5	2	2
3054.912	n/a	PROB	1527456	n/a	LTP325	ltpFR2	8	n/a	n/a	n/a	21	6	1	2	3
3056.614	n/a	PROB	1528307	n/a	LTP325	ltpFR2	8	n/a	n/a	n/a	21	11	4	4	3
3059.416	n/a	PROB	1529708	n/a	LTP325	ltpFR2	8	n/a	n/a	n/a	21	14	5	7	2
3062.434	n/a	PROB	1531217	n/a	LTP325	ltpFR2	8	n/a	n/a	n/a	21	16	6	4	6
3064.386	n/a	PROB	1532193	n/a	LTP325	ltpFR2	8	n/a	n/a	n/a	21	17	7	8	2
3065.798	n/a	STOP	1532899	n/a	LTP325	ltpFR2	8	n/a	n/a	n/a	21	n/a	n/a	n/a	n/a
3067.992	n/a	WORD	1533996	wordpools/wasnorm_wordpool_576.txt	LTP325	ltpFR2	8	14	LODGE	839	n/a	n/a	0	0	0
3070.786	n/a	WORD	1535393	wordpools/wasnorm_wordpool_576.txt	LTP325	ltpFR2	8	14	OMELET	976	n/a	n/a	0	0	0
3073.396	n/a	WORD	1536698	wordpools/wasnorm_wordpool_576.txt	LTP325	ltpFR2	8	14	YOLK	1633	n/a	n/a	0	0	0
3076.198	n/a	WORD	1538099	wordpools/wasnorm_wordpool_576.txt	LTP325	ltpFR2	8	14	HOSTESS	723	n/a	n/a	0	0	0
3078.666	n/a	WORD	1539333	wordpools/wasnorm_wordpool_576.txt	LTP325	ltpFR2	8	14	BELLY	119	n/a	n/a	0	0	0
3081.418	n/a	WORD	1540709	wordpools/wasnorm_wordpool_576.txt	LTP325	ltpFR2	8	14	SUITCASE	1403	n/a	n/a	0	0	0
3084.172	n/a	WORD	1542086	wordpools/wasnorm_wordpool_576.txt	LTP325	ltpFR2	8	14	BRIEFCASE	175	n/a	n/a	0	0	0
3086.956	n/a	WORD	1543478	wordpools/wasnorm_wordpool_576.txt	LTP325	ltpFR2	8	14	COUNTY	389	n/a	n/a	0	0	0
3089.442	n/a	WORD	1544721	wordpools/wasnorm_wordpool_576.txt	LTP325	ltpFR2	8	14	PERFUME	1049	n/a	n/a	0	0	0
3091.91	n/a	WORD	1545955	wordpools/wasnorm_wordpool_576.txt	LTP325	ltpFR2	8	14	SCULPTURE	1258	n/a	n/a	0	0	0
3094.406	n/a	WORD	1547203	wordpools/wasnorm_wordpool_576.txt	LTP325	ltpFR2	8	14	RUG	1215	n/a	n/a	0	0	0
3096.932	n/a	WORD	1548466	wordpools/wasnorm_wordpool_576.txt	LTP325	ltpFR2	8	14	POLICE	1098	n/a	n/a	0	0	0
3099.476	n/a	WORD	1549738	wordpools/wasnorm_wordpool_576.txt	LTP325	ltpFR2	8	14	MOTEL	919	n/a	n/a	0	0	0
3102.004	n/a	WORD	1551002	wordpools/wasnorm_wordpool_576.txt	LTP325	ltpFR2	8	14	LAGOON	795	n/a	n/a	0	0	0
3104.806	n/a	WORD	1552403	wordpools/wasnorm_wordpool_576.txt	LTP325	ltpFR2	8	14	JUDGE	761	n/a	n/a	0	0	0
3107.308	n/a	WORD	1553654	wordpools/wasnorm_wordpool_576.txt	LTP325	ltpFR2	8	14	FIDDLE	561	n/a	n/a	0	0	0
3110.06	n/a	WORD	1555030	wordpools/wasnorm_wordpool_576.txt	LTP325	ltpFR2	8	14	EAGLE	512	n/a	n/a	0	0	0
3112.662	n/a	WORD	1556331	wordpools/wasnorm_wordpool_576.txt	LTP325	ltpFR2	8	14	FIREPLACE	570	n/a	n/a	0	0	0
3115.086	n/a	WORD	1557543	wordpools/wasnorm_wordpool_576.txt	LTP325	ltpFR2	8	14	HAND	683	n/a	n/a	0	0	0
3117.856	n/a	WORD	1558928	wordpools/wasnorm_wordpool_576.txt	LTP325	ltpFR2	8	14	RIVER	1194	n/a	n/a	0	0	0
3120.352	n/a	WORD	1560176	wordpools/wasnorm_wordpool_576.txt	LTP325	ltpFR2	8	14	WHISKERS	1605	n/a	n/a	0	0	0
3123.028	n/a	WORD	1561514	wordpools/wasnorm_wordpool_576.txt	LTP325	ltpFR2	8	14	STAKE	1368	n/a	n/a	0	0	0
3125.49	n/a	WORD	1562745	wordpools/wasnorm_wordpool_576.txt	LTP325	ltpFR2	8	14	MOTOR	922	n/a	n/a	0	0	0
3127.926	n/a	WORD	1563963	wordpools/wasnorm_wordpool_576.txt	LTP325	ltpFR2	8	14	TRUCK	1512	n/a	n/a	0	0	0
3129.534	n/a	START	1564767	n/a	LTP325	ltpFR2	8	n/a	n/a	n/a	22	n/a	n/a	n/a	n/a
3130.552	n/a	DISTRACTOR	1565276	n/a	LTP325	ltpFR2	8	14	n/a	n/a	n/a	n/a	0	0	0
3130.562	n/a	PROB	1565281	n/a	LTP325	ltpFR2	8	n/a	n/a	n/a	22	19	5	6	8
3133.464	n/a	PROB	1566732	n/a	LTP325	ltpFR2	8	n/a	n/a	n/a	22	14	4	5	5
3134.914	n/a	PROB	1567457	n/a	LTP325	ltpFR2	8	n/a	n/a	n/a	22	18	8	1	9
3136.884	n/a	PROB	1568442	n/a	LTP325	ltpFR2	8	n/a	n/a	n/a	22	17	1	9	7
3138.332	n/a	PROB	1569166	n/a	LTP325	ltpFR2	8	n/a	n/a	n/a	22	19	4	7	8
3140.686	n/a	PROB	1570343	n/a	LTP325	ltpFR2	8	n/a	n/a	n/a	22	11	7	2	2
3142.888	n/a	PROB	1571444	n/a	LTP325	ltpFR2	8	n/a	n/a	n/a	22	13	7	3	3
3145.004	n/a	PROB	1572502	n/a	LTP325	ltpFR2	8	n/a	n/a	n/a	22	21	8	4	9
3148.474	n/a	PROB	1574237	n/a	LTP325	ltpFR2	8	n/a	n/a	n/a	22	16	5	6	5
3149.81	n/a	PROB	1574905	n/a	LTP325	ltpFR2	8	n/a	n/a	n/a	22	16	9	3	4
3152.872	n/a	STOP	1576436	n/a	LTP325	ltpFR2	8	n/a	n/a	n/a	22	n/a	n/a	n/a	n/a
3155.432	n/a	REC_START	1577716	n/a	LTP325	ltpFR2	8	14	n/a	n/a	n/a	n/a	0	0	0
3166.512	n/a	REC_WORD	1583256	wordpools/wasnorm_wordpool_576.txt	LTP325	ltpFR2	8	14	HOSTESS	723	n/a	n/a	0	0	0
3174.692	n/a	REC_WORD	1587346	wordpools/wasnorm_wordpool_576.txt	LTP325	ltpFR2	8	14	JUDGE	761	n/a	n/a	0	0	0
3176.148	n/a	REC_WORD	1588074	wordpools/wasnorm_wordpool_576.txt	LTP325	ltpFR2	8	14	FIDDLE	561	n/a	n/a	0	0	0
3177.964	n/a	REC_WORD	1588982	wordpools/wasnorm_wordpool_576.txt	LTP325	ltpFR2	8	14	EAGLE	512	n/a	n/a	0	0	0
3179.288	n/a	REC_WORD	1589644	wordpools/wasnorm_wordpool_576.txt	LTP325	ltpFR2	8	14	FIREPLACE	570	n/a	n/a	0	0	0
3245.91	n/a	WORD	1622955	wordpools/wasnorm_wordpool_576.txt	LTP325	ltpFR2	8	15	TABLET	1427	n/a	n/a	0	0	0
3248.394	n/a	WORD	1624197	wordpools/wasnorm_wordpool_576.txt	LTP325	ltpFR2	8	15	CORAL	378	n/a	n/a	0	0	0
3251.012	n/a	WORD	1625506	wordpools/wasnorm_wordpool_576.txt	LTP325	ltpFR2	8	15	GHETTO	633	n/a	n/a	0	0	0
3253.564	n/a	WORD	1626782	wordpools/wasnorm_wordpool_576.txt	LTP325	ltpFR2	8	15	POCKET	1093	n/a	n/a	0	0	0
3256.066	n/a	WORD	1628033	wordpools/wasnorm_wordpool_576.txt	LTP325	ltpFR2	8	15	RECEIPT	1173	n/a	n/a	0	0	0
3258.568	n/a	WORD	1629284	wordpools/wasnorm_wordpool_576.txt	LTP325	ltpFR2	8	15	KNIFE	785	n/a	n/a	0	0	0
3261.27	n/a	WORD	1630635	wordpools/wasnorm_wordpool_576.txt	LTP325	ltpFR2	8	15	TROMBONE	1508	n/a	n/a	0	0	0
3264.026	n/a	WORD	1632013	wordpools/wasnorm_wordpool_576.txt	LTP325	ltpFR2	8	15	CONCERT	360	n/a	n/a	0	0	0
3266.474	n/a	WORD	1633237	wordpools/wasnorm_wordpool_576.txt	LTP325	ltpFR2	8	15	GRAPE	654	n/a	n/a	0	0	0
3269.294	n/a	WORD	1634647	wordpools/wasnorm_wordpool_576.txt	LTP325	ltpFR2	8	15	SHOVEL	1295	n/a	n/a	0	0	0
3271.796	n/a	WORD	1635898	wordpools/wasnorm_wordpool_576.txt	LTP325	ltpFR2	8	15	TERMITE	1451	n/a	n/a	0	0	0
3274.552	n/a	WORD	1637276	wordpools/wasnorm_wordpool_576.txt	LTP325	ltpFR2	8	15	POSTAGE	1113	n/a	n/a	0	0	0
3276.982	n/a	WORD	1638491	wordpools/wasnorm_wordpool_576.txt	LTP325	ltpFR2	8	15	BLOCKADE	137	n/a	n/a	0	0	0
3279.468	n/a	WORD	1639734	wordpools/wasnorm_wordpool_576.txt	LTP325	ltpFR2	8	15	NIGHTGOWN	953	n/a	n/a	0	0	0
3281.886	n/a	WORD	1640943	wordpools/wasnorm_wordpool_576.txt	LTP325	ltpFR2	8	15	PLATE	1086	n/a	n/a	0	0	0
3284.572	n/a	WORD	1642286	wordpools/wasnorm_wordpool_576.txt	LTP325	ltpFR2	8	15	KITCHEN	778	n/a	n/a	0	0	0
3287.374	n/a	WORD	1643687	wordpools/wasnorm_wordpool_576.txt	LTP325	ltpFR2	8	15	CASHEW	253	n/a	n/a	0	0	0
3289.942	n/a	WORD	1644971	wordpools/wasnorm_wordpool_576.txt	LTP325	ltpFR2	8	15	PLAYGROUND	1087	n/a	n/a	0	0	0
3292.444	n/a	WORD	1646222	wordpools/wasnorm_wordpool_576.txt	LTP325	ltpFR2	8	15	PEBBLE	1035	n/a	n/a	0	0	0
3294.914	n/a	WORD	1647457	wordpools/wasnorm_wordpool_576.txt	LTP325	ltpFR2	8	15	HATCHET	691	n/a	n/a	0	0	0
3297.522	n/a	WORD	1648761	wordpools/wasnorm_wordpool_576.txt	LTP325	ltpFR2	8	15	MATTRESS	879	n/a	n/a	0	0	0
3299.99	n/a	WORD	1649995	wordpools/wasnorm_wordpool_576.txt	LTP325	ltpFR2	8	15	FEMALE	559	n/a	n/a	0	0	0
3302.526	n/a	WORD	1651263	wordpools/wasnorm_wordpool_576.txt	LTP325	ltpFR2	8	15	VICTIM	1562	n/a	n/a	0	0	0
3305.178	n/a	WORD	1652589	wordpools/wasnorm_wordpool_576.txt	LTP325	ltpFR2	8	15	PEANUT	1032	n/a	n/a	0	0	0
3306.79	n/a	START	1653395	n/a	LTP325	ltpFR2	8	n/a	n/a	n/a	23	n/a	n/a	n/a	n/a
3307.974	n/a	DISTRACTOR	1653987	n/a	LTP325	ltpFR2	8	15	n/a	n/a	n/a	n/a	0	0	0
3307.98	n/a	PROB	1653990	n/a	LTP325	ltpFR2	8	n/a	n/a	n/a	23	12	1	9	2
3309.498	n/a	PROB	1654749	n/a	LTP325	ltpFR2	8	n/a	n/a	n/a	23	22	6	7	8
3313.834	n/a	PROB	1656917	n/a	LTP325	ltpFR2	8	n/a	n/a	n/a	23	6	2	1	1
3315.504	n/a	PROB	1657752	n/a	LTP325	ltpFR2	8	n/a	n/a	n/a	23	15	6	5	4
3316.988	n/a	PROB	1658494	n/a	LTP325	ltpFR2	8	n/a	n/a	n/a	23	9	1	4	4
3318.706	n/a	PROB	1659353	n/a	LTP325	ltpFR2	8	n/a	n/a	n/a	23	9	4	2	3
3320.992	n/a	PROB	1660496	n/a	LTP325	ltpFR2	8	n/a	n/a	n/a	23	14	3	6	5
3323.292	n/a	PROB	1661646	n/a	LTP325	ltpFR2	8	n/a	n/a	n/a	23	17	7	6	4
3325.28	n/a	PROB	1662640	n/a	LTP325	ltpFR2	8	n/a	n/a	n/a	23	14	3	4	7
3326.862	n/a	PROB	1663431	n/a	LTP325	ltpFR2	8	n/a	n/a	n/a	23	15	7	2	6
3329.742	n/a	STOP	1664871	n/a	LTP325	ltpFR2	8	n/a	n/a	n/a	23	n/a	n/a	n/a	n/a
3332.534	n/a	REC_START	1666267	n/a	LTP325	ltpFR2	8	15	n/a	n/a	n/a	n/a	0	0	0
3333.642	n/a	REC_WORD	1666821	wordpools/wasnorm_wordpool_576.txt	LTP325	ltpFR2	8	15	CASHEW	253	n/a	n/a	0	0	0
3335.496	n/a	REC_WORD	1667748	wordpools/wasnorm_wordpool_576.txt	LTP325	ltpFR2	8	15	PEANUT	1032	n/a	n/a	0	0	0
3337.904	n/a	REC_WORD	1668952	wordpools/wasnorm_wordpool_576.txt	LTP325	ltpFR2	8	15	TABLET	1427	n/a	n/a	0	0	0
3339.56	n/a	REC_WORD	1669780	wordpools/wasnorm_wordpool_576.txt	LTP325	ltpFR2	8	15	CORAL	378	n/a	n/a	0	0	0
3341.672	n/a	REC_WORD	1670836	wordpools/wasnorm_wordpool_576.txt	LTP325	ltpFR2	8	15	POCKET	1093	n/a	n/a	0	0	0
3343.312	n/a	REC_WORD	1671656	wordpools/wasnorm_wordpool_576.txt	LTP325	ltpFR2	8	15	RECEIPT	1173	n/a	n/a	0	0	0
3355.596	n/a	REC_WORD	1677798	wordpools/wasnorm_wordpool_576.txt	LTP325	ltpFR2	8	15	HATCHET	691	n/a	n/a	0	0	0
3358.014	n/a	REC_WORD	1679007	wordpools/wasnorm_wordpool_576.txt	LTP325	ltpFR2	8	15	GRAPE	654	n/a	n/a	0	0	0
3359.414	n/a	REC_WORD	1679707	wordpools/wasnorm_wordpool_576.txt	LTP325	ltpFR2	8	15	SHOVEL	1295	n/a	n/a	0	0	0
3361.446	n/a	REC_WORD	1680723	wordpools/wasnorm_wordpool_576.txt	LTP325	ltpFR2	8	15	TERMITE	1451	n/a	n/a	0	0	0
3365.354	n/a	REC_WORD	1682677	wordpools/wasnorm_wordpool_576.txt	LTP325	ltpFR2	8	15	KNIFE	785	n/a	n/a	0	0	0
3422.994	n/a	WORD	1711497	wordpools/wasnorm_wordpool_576.txt	LTP325	ltpFR2	8	16	SPONGE	1355	n/a	n/a	0	0	0
3425.798	n/a	WORD	1712899	wordpools/wasnorm_wordpool_576.txt	LTP325	ltpFR2	8	16	STOVE	1388	n/a	n/a	0	0	0
3428.384	n/a	WORD	1714192	wordpools/wasnorm_wordpool_576.txt	LTP325	ltpFR2	8	16	BOUQUET	157	n/a	n/a	0	0	0
3430.836	n/a	WORD	1715418	wordpools/wasnorm_wordpool_576.txt	LTP325	ltpFR2	8	16	COOK	372	n/a	n/a	0	0	0
3433.522	n/a	WORD	1716761	wordpools/wasnorm_wordpool_576.txt	LTP325	ltpFR2	8	16	PIGMENT	1066	n/a	n/a	0	0	0
3436.324	n/a	WORD	1718162	wordpools/wasnorm_wordpool_576.txt	LTP325	ltpFR2	8	16	PLAID	1080	n/a	n/a	0	0	0
3439.11	n/a	WORD	1719555	wordpools/wasnorm_wordpool_576.txt	LTP325	ltpFR2	8	16	APRON	35	n/a	n/a	0	0	0
3441.628	n/a	WORD	1720814	wordpools/wasnorm_wordpool_576.txt	LTP325	ltpFR2	8	16	KEEPER	769	n/a	n/a	0	0	0
3444.332	n/a	WORD	1722166	wordpools/wasnorm_wordpool_576.txt	LTP325	ltpFR2	8	16	DAUGHTER	442	n/a	n/a	0	0	0
3447.116	n/a	WORD	1723558	wordpools/wasnorm_wordpool_576.txt	LTP325	ltpFR2	8	16	CANDY	230	n/a	n/a	0	0	0
3449.836	n/a	WORD	1724918	wordpools/wasnorm_wordpool_576.txt	LTP325	ltpFR2	8	16	BRICK	172	n/a	n/a	0	0	0
3452.57	n/a	WORD	1726285	wordpools/wasnorm_wordpool_576.txt	LTP325	ltpFR2	8	16	CLIMBER	323	n/a	n/a	0	0	0
3455.006	n/a	WORD	1727503	wordpools/wasnorm_wordpool_576.txt	LTP325	ltpFR2	8	16	DONOR	485	n/a	n/a	0	0	0
3457.676	n/a	WORD	1728838	wordpools/wasnorm_wordpool_576.txt	LTP325	ltpFR2	8	16	MUFFIN	929	n/a	n/a	0	0	0
3460.396	n/a	WORD	1730198	wordpools/wasnorm_wordpool_576.txt	LTP325	ltpFR2	8	16	UNCLE	1536	n/a	n/a	0	0	0
3462.93	n/a	WORD	1731465	wordpools/wasnorm_wordpool_576.txt	LTP325	ltpFR2	8	16	THIEF	1456	n/a	n/a	0	0	0
3465.414	n/a	WORD	1732707	wordpools/wasnorm_wordpool_576.txt	LTP325	ltpFR2	8	16	NOVEL	960	n/a	n/a	0	0	0
3468.102	n/a	WORD	1734051	wordpools/wasnorm_wordpool_576.txt	LTP325	ltpFR2	8	16	INMATE	738	n/a	n/a	0	0	0
3470.72	n/a	WORD	1735360	wordpools/wasnorm_wordpool_576.txt	LTP325	ltpFR2	8	16	CAPTIVE	240	n/a	n/a	0	0	0
3473.356	n/a	WORD	1736678	wordpools/wasnorm_wordpool_576.txt	LTP325	ltpFR2	8	16	CARRIAGE	248	n/a	n/a	0	0	0
3475.822	n/a	WORD	1737911	wordpools/wasnorm_wordpool_576.txt	LTP325	ltpFR2	8	16	GRIZZLY	662	n/a	n/a	0	0	0
3478.508	n/a	WORD	1739254	wordpools/wasnorm_wordpool_576.txt	LTP325	ltpFR2	8	16	SUSPECT	1415	n/a	n/a	0	0	0
3481.076	n/a	WORD	1740538	wordpools/wasnorm_wordpool_576.txt	LTP325	ltpFR2	8	16	CRATER	400	n/a	n/a	0	0	0
3483.764	n/a	WORD	1741882	wordpools/wasnorm_wordpool_576.txt	LTP325	ltpFR2	8	16	FOOT	590	n/a	n/a	0	0	0
3485.382	n/a	START	1742691	n/a	LTP325	ltpFR2	8	n/a	n/a	n/a	24	n/a	n/a	n/a	n/a
3486.198	n/a	DISTRACTOR	1743099	n/a	LTP325	ltpFR2	8	16	n/a	n/a	n/a	n/a	0	0	0
3486.214	n/a	PROB	1743107	n/a	LTP325	ltpFR2	8	n/a	n/a	n/a	24	9	4	3	2
3490.684	n/a	PROB	1745342	n/a	LTP325	ltpFR2	8	n/a	n/a	n/a	24	8	3	1	4
3492.32	n/a	PROB	1746160	n/a	LTP325	ltpFR2	8	n/a	n/a	n/a	24	11	5	1	5
3493.586	n/a	PROB	1746793	n/a	LTP325	ltpFR2	8	n/a	n/a	n/a	24	22	7	8	7
3495.688	n/a	PROB	1747844	n/a	LTP325	ltpFR2	8	n/a	n/a	n/a	24	19	5	5	9
3497.122	n/a	PROB	1748561	n/a	LTP325	ltpFR2	8	n/a	n/a	n/a	24	20	6	5	9
3499.09	n/a	PROB	1749545	n/a	LTP325	ltpFR2	8	n/a	n/a	n/a	24	9	4	3	4
3502.782	n/a	PROB	1751391	n/a	LTP325	ltpFR2	8	n/a	n/a	n/a	24	17	2	7	8
3505.062	n/a	PROB	1752531	n/a	LTP325	ltpFR2	8	n/a	n/a	n/a	24	13	6	2	5
3509.382	n/a	STOP	1754691	n/a	LTP325	ltpFR2	8	n/a	n/a	n/a	24	n/a	n/a	n/a	n/a
3511.258	n/a	REC_START	1755629	n/a	LTP325	ltpFR2	8	16	n/a	n/a	n/a	n/a	0	0	0
3514.486	n/a	REC_WORD	1757243	wordpools/wasnorm_wordpool_576.txt	LTP325	ltpFR2	8	16	KEEPER	769	n/a	n/a	0	0	0
3516.018	n/a	REC_WORD	1758009	wordpools/wasnorm_wordpool_576.txt	LTP325	ltpFR2	8	16	DAUGHTER	442	n/a	n/a	0	0	0
3537.728	n/a	REC_WORD	1768864	wordpools/wasnorm_wordpool_576.txt	LTP325	ltpFR2	8	16	CLIMBER	323	n/a	n/a	0	0	0
3587.788	n/a	REST_REWET	1793894	n/a	LTP325	ltpFR2	8	16	n/a	n/a	n/a	n/a	0	0	0
3824.76	n/a	DISTRACTOR	1912380	n/a	LTP325	ltpFR2	8	17	n/a	n/a	n/a	n/a	0	0	0
3824.76	n/a	START	1912380	n/a	LTP325	ltpFR2	8	n/a	n/a	n/a	25	n/a	n/a	n/a	n/a
3824.774	n/a	PROB	1912387	n/a	LTP325	ltpFR2	8	n/a	n/a	n/a	25	5	2	2	1
3826.294	n/a	PROB	1913147	n/a	LTP325	ltpFR2	8	n/a	n/a	n/a	25	14	5	8	1
3829.346	n/a	PROB	1914673	n/a	LTP325	ltpFR2	8	n/a	n/a	n/a	25	15	1	6	8
3833.632	n/a	PROB	1916816	n/a	LTP325	ltpFR2	8	n/a	n/a	n/a	25	20	7	5	8
3836.602	n/a	PROB	1918301	n/a	LTP325	ltpFR2	8	n/a	n/a	n/a	25	9	1	1	7
3838.554	n/a	PROB	1919277	n/a	LTP325	ltpFR2	8	n/a	n/a	n/a	25	12	4	4	3
3841.306	n/a	PROB	1920653	n/a	LTP325	ltpFR2	8	n/a	n/a	n/a	25	12	3	1	8
3843.79	n/a	PROB	1921895	n/a	LTP325	ltpFR2	8	n/a	n/a	n/a	25	15	2	6	7
3846.56	n/a	PROB	1923280	n/a	LTP325	ltpFR2	8	n/a	n/a	n/a	25	18	1	8	9
3848.34	n/a	STOP	1924170	n/a	LTP325	ltpFR2	8	n/a	n/a	n/a	25	n/a	n/a	n/a	n/a
3849.736	n/a	WORD	1924868	wordpools/wasnorm_wordpool_576.txt	LTP325	ltpFR2	8	17	STICKER	1382	n/a	n/a	0	0	0
3852.216	n/a	WORD	1926108	wordpools/wasnorm_wordpool_576.txt	LTP325	ltpFR2	8	17	FRAGRANCE	599	n/a	n/a	0	0	0
3855.018	n/a	WORD	1927509	wordpools/wasnorm_wordpool_576.txt	LTP325	ltpFR2	8	17	OINTMENT	974	n/a	n/a	0	0	0
3857.77	n/a	WORD	1928885	wordpools/wasnorm_wordpool_576.txt	LTP325	ltpFR2	8	17	COUNTRY	388	n/a	n/a	0	0	0
3860.212	n/a	WORD	1930106	wordpools/wasnorm_wordpool_576.txt	LTP325	ltpFR2	8	17	SPHINX	1349	n/a	n/a	0	0	0
3862.996	n/a	WORD	1931498	wordpools/wasnorm_wordpool_576.txt	LTP325	ltpFR2	8	17	SCARECROW	1245	n/a	n/a	0	0	0
3865.744	n/a	WORD	1932872	wordpools/wasnorm_wordpool_576.txt	LTP325	ltpFR2	8	17	PEPPER	1047	n/a	n/a	0	0	0
3868.502	n/a	WORD	1934251	wordpools/wasnorm_wordpool_576.txt	LTP325	ltpFR2	8	17	ASIA	46	n/a	n/a	0	0	0
3871.098	n/a	WORD	1935549	wordpools/wasnorm_wordpool_576.txt	LTP325	ltpFR2	8	17	TILE	1468	n/a	n/a	0	0	0
3873.884	n/a	WORD	1936942	wordpools/wasnorm_wordpool_576.txt	LTP325	ltpFR2	8	17	GROUND	666	n/a	n/a	0	0	0
3876.536	n/a	WORD	1938268	wordpools/wasnorm_wordpool_576.txt	LTP325	ltpFR2	8	17	STUDENT	1395	n/a	n/a	0	0	0
3879.34	n/a	WORD	1939670	wordpools/wasnorm_wordpool_576.txt	LTP325	ltpFR2	8	17	FILM	565	n/a	n/a	0	0	0
3882.142	n/a	WORD	1941071	wordpools/wasnorm_wordpool_576.txt	LTP325	ltpFR2	8	17	SCISSORS	1250	n/a	n/a	0	0	0
3884.81	n/a	WORD	1942405	wordpools/wasnorm_wordpool_576.txt	LTP325	ltpFR2	8	17	SALMON	1227	n/a	n/a	0	0	0
3887.378	n/a	WORD	1943689	wordpools/wasnorm_wordpool_576.txt	LTP325	ltpFR2	8	17	EMPIRE	530	n/a	n/a	0	0	0
3889.814	n/a	WORD	1944907	wordpools/wasnorm_wordpool_576.txt	LTP325	ltpFR2	8	17	FLASHLIGHT	575	n/a	n/a	0	0	0
3892.436	n/a	WORD	1946218	wordpools/wasnorm_wordpool_576.txt	LTP325	ltpFR2	8	17	LAMP	798	n/a	n/a	0	0	0
3895.106	n/a	WORD	1947553	wordpools/wasnorm_wordpool_576.txt	LTP325	ltpFR2	8	17	CHAUFFEUR	283	n/a	n/a	0	0	0
3897.908	n/a	WORD	1948954	wordpools/wasnorm_wordpool_576.txt	LTP325	ltpFR2	8	17	PASSAGE	1019	n/a	n/a	0	0	0
3900.592	n/a	WORD	1950296	wordpools/wasnorm_wordpool_576.txt	LTP325	ltpFR2	8	17	RECORD	1176	n/a	n/a	0	0	0
3903.06	n/a	WORD	1951530	wordpools/wasnorm_wordpool_576.txt	LTP325	ltpFR2	8	17	CARROT	249	n/a	n/a	0	0	0
3905.596	n/a	WORD	1952798	wordpools/wasnorm_wordpool_576.txt	LTP325	ltpFR2	8	17	TRACTOR	1493	n/a	n/a	0	0	0
3908.38	n/a	WORD	1954190	wordpools/wasnorm_wordpool_576.txt	LTP325	ltpFR2	8	17	FRECKLE	602	n/a	n/a	0	0	0
3911.0	n/a	WORD	1955500	wordpools/wasnorm_wordpool_576.txt	LTP325	ltpFR2	8	17	PICTURE	1061	n/a	n/a	0	0	0
3912.618	n/a	START	1956309	n/a	LTP325	ltpFR2	8	n/a	n/a	n/a	26	n/a	n/a	n/a	n/a
3913.71	n/a	DISTRACTOR	1956855	n/a	LTP325	ltpFR2	8	17	n/a	n/a	n/a	n/a	0	0	0
3913.718	n/a	PROB	1956859	n/a	LTP325	ltpFR2	8	n/a	n/a	n/a	26	19	9	2	8
3919.222	n/a	PROB	1959611	n/a	LTP325	ltpFR2	8	n/a	n/a	n/a	26	20	9	3	8
3922.892	n/a	PROB	1961446	n/a	LTP325	ltpFR2	8	n/a	n/a	n/a	26	20	9	2	9
3924.994	n/a	PROB	1962497	n/a	LTP325	ltpFR2	8	n/a	n/a	n/a	26	12	5	4	3
3927.964	n/a	PROB	1963982	n/a	LTP325	ltpFR2	8	n/a	n/a	n/a	26	17	2	7	8
3930.098	n/a	PROB	1965049	n/a	LTP325	ltpFR2	8	n/a	n/a	n/a	26	14	2	9	3
3933.104	n/a	PROB	1966552	n/a	LTP325	ltpFR2	8	n/a	n/a	n/a	26	14	1	6	7
3936.62	n/a	STOP	1968310	n/a	LTP325	ltpFR2	8	n/a	n/a	n/a	26	n/a	n/a	n/a	n/a
3938.406	n/a	REC_START	1969203	n/a	LTP325	ltpFR2	8	17	n/a	n/a	n/a	n/a	0	0	0
3941.222	n/a	REC_WORD	1970611	wordpools/wasnorm_wordpool_576.txt	LTP325	ltpFR2	8	17	RECORD	1176	n/a	n/a	0	0	0
3942.944	n/a	REC_WORD	1971472	wordpools/wasnorm_wordpool_576.txt	LTP325	ltpFR2	8	17	CARROT	249	n/a	n/a	0	0	0
3944.322	n/a	REC_WORD	1972161	wordpools/wasnorm_wordpool_576.txt	LTP325	ltpFR2	8	17	CHAUFFEUR	283	n/a	n/a	0	0	0
3949.168	n/a	REC_WORD	1974584	wordpools/wasnorm_wordpool_576.txt	LTP325	ltpFR2	8	17	STICKER	1382	n/a	n/a	0	0	0
3950.78	n/a	REC_WORD	1975390	wordpools/wasnorm_wordpool_576.txt	LTP325	ltpFR2	8	17	FRAGRANCE	599	n/a	n/a	0	0	0
3952.818	n/a	REC_WORD	1976409	wordpools/wasnorm_wordpool_576.txt	LTP325	ltpFR2	8	17	PASSAGE	1019	n/a	n/a	0	0	0
4060.438	n/a	DISTRACTOR	2030219	n/a	LTP325	ltpFR2	8	18	n/a	n/a	n/a	n/a	0	0	0
4060.438	n/a	START	2030219	n/a	LTP325	ltpFR2	8	n/a	n/a	n/a	27	n/a	n/a	n/a	n/a
4060.454	n/a	PROB	2030227	n/a	LTP325	ltpFR2	8	n/a	n/a	n/a	27	14	5	4	5
4061.896	n/a	PROB	2030948	n/a	LTP325	ltpFR2	8	n/a	n/a	n/a	27	23	9	5	9
4064.366	n/a	PROB	2032183	n/a	LTP325	ltpFR2	8	n/a	n/a	n/a	27	18	2	8	8
4066.068	n/a	PROB	2033034	n/a	LTP325	ltpFR2	8	n/a	n/a	n/a	27	15	2	9	4
4067.984	n/a	PROB	2033992	n/a	LTP325	ltpFR2	8	n/a	n/a	n/a	27	7	3	1	3
4069.518	n/a	PROB	2034759	n/a	LTP325	ltpFR2	8	n/a	n/a	n/a	27	19	5	9	5
4071.088	n/a	PROB	2035544	n/a	LTP325	ltpFR2	8	n/a	n/a	n/a	27	17	9	5	3
4073.522	n/a	PROB	2036761	n/a	LTP325	ltpFR2	8	n/a	n/a	n/a	27	17	7	8	2
4075.106	n/a	PROB	2037553	n/a	LTP325	ltpFR2	8	n/a	n/a	n/a	27	9	1	4	4
4076.81	n/a	PROB	2038405	n/a	LTP325	ltpFR2	8	n/a	n/a	n/a	27	16	5	4	7
4079.21	n/a	PROB	2039605	n/a	LTP325	ltpFR2	8	n/a	n/a	n/a	27	13	1	7	5
4081.398	n/a	PROB	2040699	n/a	LTP325	ltpFR2	8	n/a	n/a	n/a	27	17	9	6	2
4083.212	n/a	STOP	2041606	n/a	LTP325	ltpFR2	8	n/a	n/a	n/a	27	n/a	n/a	n/a	n/a
4085.268	n/a	WORD	2042634	wordpools/wasnorm_wordpool_576.txt	LTP325	ltpFR2	8	18	SUPPER	1411	n/a	n/a	0	0	0
4087.808	n/a	WORD	2043904	wordpools/wasnorm_wordpool_576.txt	LTP325	ltpFR2	8	18	CUSTARD	429	n/a	n/a	0	0	0
4090.422	n/a	WORD	2045211	wordpools/wasnorm_wordpool_576.txt	LTP325	ltpFR2	8	18	TREAT	1501	n/a	n/a	0	0	0
4092.98	n/a	WORD	2046490	wordpools/wasnorm_wordpool_576.txt	LTP325	ltpFR2	8	18	KETCHUP	771	n/a	n/a	0	0	0
4095.642	n/a	WORD	2047821	wordpools/wasnorm_wordpool_576.txt	LTP325	ltpFR2	8	18	BANK	83	n/a	n/a	0	0	0
4098.162	n/a	WORD	2049081	wordpools/wasnorm_wordpool_576.txt	LTP325	ltpFR2	8	18	HEART	697	n/a	n/a	0	0	0
4100.768	n/a	WORD	2050384	wordpools/wasnorm_wordpool_576.txt	LTP325	ltpFR2	8	18	FLESH	579	n/a	n/a	0	0	0
4103.284	n/a	WORD	2051642	wordpools/wasnorm_wordpool_576.txt	LTP325	ltpFR2	8	18	LUGGAGE	847	n/a	n/a	0	0	0
4106.018	n/a	WORD	2053009	wordpools/wasnorm_wordpool_576.txt	LTP325	ltpFR2	8	18	COLONEL	348	n/a	n/a	0	0	0
4108.786	n/a	WORD	2054393	wordpools/wasnorm_wordpool_576.txt	LTP325	ltpFR2	8	18	COOKBOOK	373	n/a	n/a	0	0	0
4111.506	n/a	WORD	2055753	wordpools/wasnorm_wordpool_576.txt	LTP325	ltpFR2	8	18	AUTHOR	61	n/a	n/a	0	0	0
4114.124	n/a	WORD	2057062	wordpools/wasnorm_wordpool_576.txt	LTP325	ltpFR2	8	18	COMET	353	n/a	n/a	0	0	0
4116.744	n/a	WORD	2058372	wordpools/wasnorm_wordpool_576.txt	LTP325	ltpFR2	8	18	DINER	467	n/a	n/a	0	0	0
4119.196	n/a	WORD	2059598	wordpools/wasnorm_wordpool_576.txt	LTP325	ltpFR2	8	18	ATLAS	53	n/a	n/a	0	0	0
4121.814	n/a	WORD	2060907	wordpools/wasnorm_wordpool_576.txt	LTP325	ltpFR2	8	18	SNAIL	1332	n/a	n/a	0	0	0
4124.488	n/a	WORD	2062244	wordpools/wasnorm_wordpool_576.txt	LTP325	ltpFR2	8	18	TURTLE	1522	n/a	n/a	0	0	0
4126.954	n/a	WORD	2063477	wordpools/wasnorm_wordpool_576.txt	LTP325	ltpFR2	8	18	SANDWICH	1232	n/a	n/a	0	0	0
4129.388	n/a	WORD	2064694	wordpools/wasnorm_wordpool_576.txt	LTP325	ltpFR2	8	18	CASHIER	254	n/a	n/a	0	0	0
4132.174	n/a	WORD	2066087	wordpools/wasnorm_wordpool_576.txt	LTP325	ltpFR2	8	18	JELLO	754	n/a	n/a	0	0	0
4134.994	n/a	WORD	2067497	wordpools/wasnorm_wordpool_576.txt	LTP325	ltpFR2	8	18	RUST	1219	n/a	n/a	0	0	0
4137.496	n/a	WORD	2068748	wordpools/wasnorm_wordpool_576.txt	LTP325	ltpFR2	8	18	SPOON	1357	n/a	n/a	0	0	0
4140.114	n/a	WORD	2070057	wordpools/wasnorm_wordpool_576.txt	LTP325	ltpFR2	8	18	SPOOL	1356	n/a	n/a	0	0	0
4142.866	n/a	WORD	2071433	wordpools/wasnorm_wordpool_576.txt	LTP325	ltpFR2	8	18	PILOT	1070	n/a	n/a	0	0	0
4145.386	n/a	WORD	2072693	wordpools/wasnorm_wordpool_576.txt	LTP325	ltpFR2	8	18	FLUTE	585	n/a	n/a	0	0	0
4147.004	n/a	START	2073502	n/a	LTP325	ltpFR2	8	n/a	n/a	n/a	28	n/a	n/a	n/a	n/a
4147.856	n/a	DISTRACTOR	2073928	n/a	LTP325	ltpFR2	8	18	n/a	n/a	n/a	n/a	0	0	0
4147.872	n/a	PROB	2073936	n/a	LTP325	ltpFR2	8	n/a	n/a	n/a	28	18	5	4	9
4149.92	n/a	PROB	2074960	n/a	LTP325	ltpFR2	8	n/a	n/a	n/a	28	20	8	5	7
4153.158	n/a	PROB	2076579	n/a	LTP325	ltpFR2	8	n/a	n/a	n/a	28	9	7	1	1
4155.71	n/a	PROB	2077855	n/a	LTP325	ltpFR2	8	n/a	n/a	n/a	28	15	6	7	2
4159.08	n/a	PROB	2079540	n/a	LTP325	ltpFR2	8	n/a	n/a	n/a	28	13	5	5	3
4160.448	n/a	PROB	2080224	n/a	LTP325	ltpFR2	8	n/a	n/a	n/a	28	8	1	3	4
4162.284	n/a	PROB	2081142	n/a	LTP325	ltpFR2	8	n/a	n/a	n/a	28	15	7	3	5
4163.866	n/a	PROB	2081933	n/a	LTP325	ltpFR2	8	n/a	n/a	n/a	28	11	3	7	1
4165.218	n/a	PROB	2082609	n/a	LTP325	ltpFR2	8	n/a	n/a	n/a	28	12	1	8	3
4167.204	n/a	PROB	2083602	n/a	LTP325	ltpFR2	8	n/a	n/a	n/a	28	9	6	2	1
4171.006	n/a	STOP	2085503	n/a	LTP325	ltpFR2	8	n/a	n/a	n/a	28	n/a	n/a	n/a	n/a
4172.808	n/a	REC_START	2086404	n/a	LTP325	ltpFR2	8	18	n/a	n/a	n/a	n/a	0	0	0
4174.492	n/a	REC_WORD	2087246	wordpools/wasnorm_wordpool_576.txt	LTP325	ltpFR2	8	18	SPOON	1357	n/a	n/a	0	0	0
4175.806	n/a	REC_WORD	2087903	wordpools/wasnorm_wordpool_576.txt	LTP325	ltpFR2	8	18	SPOOL	1356	n/a	n/a	0	0	0
4177.502	n/a	REC_WORD	2088751	wordpools/wasnorm_wordpool_576.txt	LTP325	ltpFR2	8	18	PILOT	1070	n/a	n/a	0	0	0
4180.81	n/a	REC_WORD	2090405	wordpools/wasnorm_wordpool_576.txt	LTP325	ltpFR2	8	18	SUPPER	1411	n/a	n/a	0	0	0
4182.498	n/a	REC_WORD	2091249	wordpools/wasnorm_wordpool_576.txt	LTP325	ltpFR2	8	18	CUSTARD	429	n/a	n/a	0	0	0
4184.272	n/a	REC_WORD	2092136	wordpools/wasnorm_wordpool_576.txt	LTP325	ltpFR2	8	18	KETCHUP	771	n/a	n/a	0	0	0
4201.39	n/a	REC_WORD	2100695	wordpools/wasnorm_wordpool_576.txt	LTP325	ltpFR2	8	18	HEART	697	n/a	n/a	0	0	0
4202.826	n/a	REC_WORD	2101413	wordpools/wasnorm_wordpool_576.txt	LTP325	ltpFR2	8	18	FLESH	579	n/a	n/a	0	0	0
4209.646	n/a	REC_WORD	2104823	wordpools/wasnorm_wordpool_576.txt	LTP325	ltpFR2	8	18	SANDWICH	1232	n/a	n/a	0	0	0
4211.526	n/a	REC_WORD	2105763	wordpools/wasnorm_wordpool_576.txt	LTP325	ltpFR2	8	18	BANK	83	n/a	n/a	0	0	0
4212.692	n/a	REC_WORD	2106346	wordpools/wasnorm_wordpool_576.txt	LTP325	ltpFR2	8	18	CASHIER	254	n/a	n/a	0	0	0
4263.254	n/a	WORD	2131627	wordpools/wasnorm_wordpool_576.txt	LTP325	ltpFR2	8	19	WHISTLE	1606	n/a	n/a	0	0	0
4266.016	n/a	WORD	2133008	wordpools/wasnorm_wordpool_576.txt	LTP325	ltpFR2	8	19	IGLOO	734	n/a	n/a	0	0	0
4268.542	n/a	WORD	2134271	wordpools/wasnorm_wordpool_576.txt	LTP325	ltpFR2	8	19	DUST	508	n/a	n/a	0	0	0
4271.07	n/a	WORD	2135535	wordpools/wasnorm_wordpool_576.txt	LTP325	ltpFR2	8	19	PISTOL	1075	n/a	n/a	0	0	0
4273.73	n/a	WORD	2136865	wordpools/wasnorm_wordpool_576.txt	LTP325	ltpFR2	8	19	PLUTO	1092	n/a	n/a	0	0	0
4276.482	n/a	WORD	2138241	wordpools/wasnorm_wordpool_576.txt	LTP325	ltpFR2	8	19	MISSILE	900	n/a	n/a	0	0	0
4279.252	n/a	WORD	2139626	wordpools/wasnorm_wordpool_576.txt	LTP325	ltpFR2	8	19	RELISH	1183	n/a	n/a	0	0	0
4281.828	n/a	WORD	2140914	wordpools/wasnorm_wordpool_576.txt	LTP325	ltpFR2	8	19	TART	1436	n/a	n/a	0	0	0
4284.472	n/a	WORD	2142236	wordpools/wasnorm_wordpool_576.txt	LTP325	ltpFR2	8	19	FLOWER	584	n/a	n/a	0	0	0
4287.216	n/a	WORD	2143608	wordpools/wasnorm_wordpool_576.txt	LTP325	ltpFR2	8	19	LACE	792	n/a	n/a	0	0	0
4289.884	n/a	WORD	2144942	wordpools/wasnorm_wordpool_576.txt	LTP325	ltpFR2	8	19	FRIAR	605	n/a	n/a	0	0	0
4292.436	n/a	WORD	2146218	wordpools/wasnorm_wordpool_576.txt	LTP325	ltpFR2	8	19	WRIST	1626	n/a	n/a	0	0	0
4295.048	n/a	WORD	2147524	wordpools/wasnorm_wordpool_576.txt	LTP325	ltpFR2	8	19	DANDRUFF	439	n/a	n/a	0	0	0
4297.818	n/a	WORD	2148909	wordpools/wasnorm_wordpool_576.txt	LTP325	ltpFR2	8	19	SHRUB	1299	n/a	n/a	0	0	0
4300.578	n/a	WORD	2150289	wordpools/wasnorm_wordpool_576.txt	LTP325	ltpFR2	8	19	MARS	873	n/a	n/a	0	0	0
4303.08	n/a	WORD	2151540	wordpools/wasnorm_wordpool_576.txt	LTP325	ltpFR2	8	19	VIKING	1565	n/a	n/a	0	0	0
4305.882	n/a	WORD	2152941	wordpools/wasnorm_wordpool_576.txt	LTP325	ltpFR2	8	19	YACHT	1629	n/a	n/a	0	0	0
4308.41	n/a	WORD	2154205	wordpools/wasnorm_wordpool_576.txt	LTP325	ltpFR2	8	19	BADGE	68	n/a	n/a	0	0	0
4311.212	n/a	WORD	2155606	wordpools/wasnorm_wordpool_576.txt	LTP325	ltpFR2	8	19	AGENT	10	n/a	n/a	0	0	0
4313.87	n/a	WORD	2156935	wordpools/wasnorm_wordpool_576.txt	LTP325	ltpFR2	8	19	SADDLE	1221	n/a	n/a	0	0	0
4316.456	n/a	WORD	2158228	wordpools/wasnorm_wordpool_576.txt	LTP325	ltpFR2	8	19	ROBOT	1200	n/a	n/a	0	0	0
4319.226	n/a	WORD	2159613	wordpools/wasnorm_wordpool_576.txt	LTP325	ltpFR2	8	19	BLADE	134	n/a	n/a	0	0	0
4321.77	n/a	WORD	2160885	wordpools/wasnorm_wordpool_576.txt	LTP325	ltpFR2	8	19	GLOBE	641	n/a	n/a	0	0	0
4324.274	n/a	WORD	2162137	wordpools/wasnorm_wordpool_576.txt	LTP325	ltpFR2	8	19	ANKLE	24	n/a	n/a	0	0	0
4325.882	n/a	START	2162941	n/a	LTP325	ltpFR2	8	n/a	n/a	n/a	29	n/a	n/a	n/a	n/a
4326.92	n/a	DISTRACTOR	2163460	n/a	LTP325	ltpFR2	8	19	n/a	n/a	n/a	n/a	0	0	0
4326.926	n/a	PROB	2163463	n/a	LTP325	ltpFR2	8	n/a	n/a	n/a	29	17	6	4	7
4328.526	n/a	PROB	2164263	n/a	LTP325	ltpFR2	8	n/a	n/a	n/a	29	13	1	9	3
4329.826	n/a	PROB	2164913	n/a	LTP325	ltpFR2	8	n/a	n/a	n/a	29	16	6	6	4
4332.162	n/a	PROB	2166081	n/a	LTP325	ltpFR2	8	n/a	n/a	n/a	29	16	5	5	6
4333.48	n/a	PROB	2166740	n/a	LTP325	ltpFR2	8	n/a	n/a	n/a	29	12	2	4	6
4335.198	n/a	PROB	2167599	n/a	LTP325	ltpFR2	8	n/a	n/a	n/a	29	20	7	9	4
4339.254	n/a	PROB	2169627	n/a	LTP325	ltpFR2	8	n/a	n/a	n/a	29	15	3	4	8
4345.74	n/a	PROB	2172870	n/a	LTP325	ltpFR2	8	n/a	n/a	n/a	29	18	7	5	6
4348.372	n/a	STOP	2174186	n/a	LTP325	ltpFR2	8	n/a	n/a	n/a	29	n/a	n/a	n/a	n/a
4351.68	n/a	REC_START	2175840	n/a	LTP325	ltpFR2	8	19	n/a	n/a	n/a	n/a	0	0	0
4357.326	n/a	REC_WORD	2178663	wordpools/wasnorm_wordpool_576.txt	LTP325	ltpFR2	8	19	FRIAR	605	n/a	n/a	0	0	0
4359.236	n/a	REC_WORD	2179618	wordpools/wasnorm_wordpool_576.txt	LTP325	ltpFR2	8	19	YACHT	1629	n/a	n/a	0	0	0
4368.664	n/a	REC_WORD	2184332	wordpools/wasnorm_wordpool_576.txt	LTP325	ltpFR2	8	19	FLOWER	584	n/a	n/a	0	0	0
4370.458	n/a	REC_WORD	2185229	wordpools/wasnorm_wordpool_576.txt	LTP325	ltpFR2	8	19	LACE	792	n/a	n/a	0	0	0
4373.47	n/a	REC_WORD	2186735	wordpools/wasnorm_wordpool_576.txt	LTP325	ltpFR2	8	19	TART	1436	n/a	n/a	0	0	0
4375.41	n/a	REC_WORD	2187705	wordpools/wasnorm_wordpool_576.txt	LTP325	ltpFR2	8	19	RELISH	1183	n/a	n/a	0	0	0
4378.106	n/a	REC_WORD	2189053	wordpools/wasnorm_wordpool_576.txt	LTP325	ltpFR2	8	19	ELBOW	520	n/a	n/a	0	0	0
4379.642	n/a	REC_WORD	2189821	wordpools/wasnorm_wordpool_576.txt	LTP325	ltpFR2	8	19	WRIST	1626	n/a	n/a	0	0	0
4391.28	n/a	REC_WORD	2195640	wordpools/wasnorm_wordpool_576.txt	LTP325	ltpFR2	8	19	MARS	873	n/a	n/a	0	0	0
4392.658	n/a	REC_WORD	2196329	wordpools/wasnorm_wordpool_576.txt	LTP325	ltpFR2	8	19	PLUTO	1092	n/a	n/a	0	0	0
4394.906	n/a	REC_WORD	2197453	wordpools/wasnorm_wordpool_576.txt	LTP325	ltpFR2	8	19	MISSILE	900	n/a	n/a	0	0	0
4471.364	n/a	DISTRACTOR	2235682	n/a	LTP325	ltpFR2	8	20	n/a	n/a	n/a	n/a	0	0	0
4471.364	n/a	START	2235682	n/a	LTP325	ltpFR2	8	n/a	n/a	n/a	30	n/a	n/a	n/a	n/a
4471.378	n/a	PROB	2235689	n/a	LTP325	ltpFR2	8	n/a	n/a	n/a	30	5	2	1	2
4472.884	n/a	PROB	2236442	n/a	LTP325	ltpFR2	8	n/a	n/a	n/a	30	10	7	2	1
4476.248	n/a	PROB	2238124	n/a	LTP325	ltpFR2	8	n/a	n/a	n/a	30	18	4	9	5
4479.256	n/a	PROB	2239628	n/a	LTP325	ltpFR2	8	n/a	n/a	n/a	30	11	1	1	9
4480.506	n/a	PROB	2240253	n/a	LTP325	ltpFR2	8	n/a	n/a	n/a	30	14	3	4	7
4482.276	n/a	PROB	2241138	n/a	LTP325	ltpFR2	8	n/a	n/a	n/a	30	14	2	7	5
4484.51	n/a	PROB	2242255	n/a	LTP325	ltpFR2	8	n/a	n/a	n/a	30	9	4	1	4
4486.28	n/a	PROB	2243140	n/a	LTP325	ltpFR2	8	n/a	n/a	n/a	30	17	9	6	2
4488.548	n/a	PROB	2244274	n/a	LTP325	ltpFR2	8	n/a	n/a	n/a	30	5	2	2	1
4490.432	n/a	PROB	2245216	n/a	LTP325	ltpFR2	8	n/a	n/a	n/a	30	14	1	9	4
4491.784	n/a	PROB	2245892	n/a	LTP325	ltpFR2	8	n/a	n/a	n/a	30	13	2	2	9
4495.104	n/a	STOP	2247552	n/a	LTP325	ltpFR2	8	n/a	n/a	n/a	30	n/a	n/a	n/a	n/a
4496.5	n/a	WORD	2248250	wordpools/wasnorm_wordpool_576.txt	LTP325	ltpFR2	8	20	ZEBRA	1635	n/a	n/a	0	0	0
4499.292	n/a	WORD	2249646	wordpools/wasnorm_wordpool_576.txt	LTP325	ltpFR2	8	20	TWISTER	1530	n/a	n/a	0	0	0
4501.854	n/a	WORD	2250927	wordpools/wasnorm_wordpool_576.txt	LTP325	ltpFR2	8	20	COWBOY	395	n/a	n/a	0	0	0
4504.412	n/a	WORD	2252206	wordpools/wasnorm_wordpool_576.txt	LTP325	ltpFR2	8	20	BASEMENT	94	n/a	n/a	0	0	0
4507.196	n/a	WORD	2253598	wordpools/wasnorm_wordpool_576.txt	LTP325	ltpFR2	8	20	DANCER	437	n/a	n/a	0	0	0
