onset	duration	trial_type	sample	stim_file	subject	experiment	session	trial	task	item_name	item_num	recog_resp	recog_conf	resp	color_r	color_g	color_b	case	font
285.378	n/a	SESS_START	142689	n/a	LTP092	ltpFR	0	n/a	n/a	n/a	n/a	1	1	n/a	n/a	n/a	n/a	n/a	n/a
343.42	n/a	WORD	171710	wordpools/wasnorm_wordpool.txt	LTP092	ltpFR	0	1	-1	FARM	552	0	n/a	-1	1.0	1.0	1	upper	Verdana.ttf
347.286	n/a	WORD	173643	wordpools/wasnorm_wordpool.txt	LTP092	ltpFR	0	1	-1	RACCOON	1153	1	n/a	-1	1.0	1.0	1	upper	Verdana.ttf
351.312	n/a	WORD	175656	wordpools/wasnorm_wordpool.txt	LTP092	ltpFR	0	1	-1	GROCERY	664	n/a	n/a	-1	1.0	1.0	1	upper	Verdana.ttf
355.454	n/a	WORD	177727	wordpools/wasnorm_wordpool.txt	LTP092	ltpFR	0	1	-1	HAMBURGER	679	n/a	n/a	-1	1.0	1.0	1	upper	Verdana.ttf
359.478	n/a	WORD	179739	wordpools/wasnorm_wordpool.txt	LTP092	ltpFR	0	1	-1	RUNNER	1218	n/a	n/a	-1	1.0	1.0	1	upper	Verdana.ttf
363.586	n/a	WORD	181793	wordpools/wasnorm_wordpool.txt	LTP092	ltpFR	0	1	-1	CAR	241	n/a	n/a	-1	1.0	1.0	1	upper	Verdana.ttf
367.702	n/a	WORD	183851	wordpools/wasnorm_wordpool.txt	LTP092	ltpFR	0	1	-1	BANQUET	86	n/a	n/a	-1	1.0	1.0	1	upper	Verdana.ttf
371.544	n/a	WORD	185772	wordpools/wasnorm_wordpool.txt	LTP092	ltpFR	0	1	-1	ANKLE	24	n/a	n/a	-1	1.0	1.0	1	upper	Verdana.ttf
375.636	n/a	WORD	187818	wordpools/wasnorm_wordpool.txt	LTP092	ltpFR	0	1	-1	HAND	683	n/a	n/a	-1	1.0	1.0	1	upper	Verdana.ttf
379.786	n/a	WORD	189893	wordpools/wasnorm_wordpool.txt	LTP092	ltpFR	0	1	-1	NOMAD	955	n/a	n/a	-1	1.0	1.0	1	upper	Verdana.ttf
383.744	n/a	WORD	191872	wordpools/wasnorm_wordpool.txt	LTP092	ltpFR	0	1	-1	DRIVER	499	n/a	n/a	-1	1.0	1.0	1	upper	Verdana.ttf
387.628	n/a	WORD	193814	wordpools/wasnorm_wordpool.txt	LTP092	ltpFR	0	1	-1	DUMP	505	n/a	n/a	-1	1.0	1.0	1	upper	Verdana.ttf
391.51	n/a	WORD	195755	wordpools/wasnorm_wordpool.txt	LTP092	ltpFR	0	1	-1	GHOST	634	n/a	n/a	-1	1.0	1.0	1	upper	Verdana.ttf
395.562	n/a	WORD	197781	wordpools/wasnorm_wordpool.txt	LTP092	ltpFR	0	1	-1	ENGINE	535	n/a	n/a	-1	1.0	1.0	1	upper	Verdana.ttf
399.51	n/a	WORD	199755	wordpools/wasnorm_wordpool.txt	LTP092	ltpFR	0	1	-1	NOTEBOOK	959	n/a	n/a	-1	1.0	1.0	1	upper	Verdana.ttf
403.386	n/a	WORD	201693	wordpools/wasnorm_wordpool.txt	LTP092	ltpFR	0	1	-1	PAPER	1011	n/a	n/a	-1	1.0	1.0	1	upper	Verdana.ttf
409.394	n/a	REC_START	204697	n/a	LTP092	ltpFR	0	1	n/a	n/a	n/a	n/a	n/a	n/a	n/a	n/a	n/a	n/a	n/a
410.506	n/a	REC_WORD	205253	wordpools/wasnorm_wordpool.txt	LTP092	ltpFR	0	1	-1	HAMBURGER	679	n/a	n/a	-1	n/a	n/a	n/a	n/a	n/a
411.574	n/a	REC_WORD	205787	wordpools/wasnorm_wordpool.txt	LTP092	ltpFR	0	1	-1	RACCOON	1153	n/a	n/a	-1	n/a	n/a	n/a	n/a	n/a
412.922	n/a	REC_WORD	206461	wordpools/wasnorm_wordpool.txt	LTP092	ltpFR	0	1	-1	FARM	552	n/a	n/a	-1	n/a	n/a	n/a	n/a	n/a
414.338	n/a	REC_WORD	207169	wordpools/wasnorm_wordpool.txt	LTP092	ltpFR	0	1	-1	CAR	241	n/a	n/a	-1	n/a	n/a	n/a	n/a	n/a
415.232	n/a	REC_WORD	207616	wordpools/wasnorm_wordpool.txt	LTP092	ltpFR	0	1	-1	DRIVER	499	n/a	n/a	-1	n/a	n/a	n/a	n/a	n/a
416.698	n/a	REC_WORD	208349	wordpools/wasnorm_wordpool.txt	LTP092	ltpFR	0	1	-1	ENGINE	535	n/a	n/a	-1	n/a	n/a	n/a	n/a	n/a
421.88	n/a	REC_WORD	210940	wordpools/wasnorm_wordpool.txt	LTP092	ltpFR	0	1	-1	NOTEBOOK	959	n/a	n/a	-1	n/a	n/a	n/a	n/a	n/a
423.832	n/a	REC_WORD	211916	wordpools/wasnorm_wordpool.txt	LTP092	ltpFR	0	1	-1	PAPER	1011	n/a	n/a	-1	n/a	n/a	n/a	n/a	n/a
425.008	n/a	REC_WORD	212504	wordpools/wasnorm_wordpool.txt	LTP092	ltpFR	0	1	-1	ANKLE	24	n/a	n/a	-1	n/a	n/a	n/a	n/a	n/a
426.32	n/a	REC_WORD	213160	wordpools/wasnorm_wordpool.txt	LTP092	ltpFR	0	1	-1	HAND	683	n/a	n/a	-1	n/a	n/a	n/a	n/a	n/a
429.338	n/a	REC_WORD	214669	wordpools/wasnorm_wordpool.txt	LTP092	ltpFR	0	1	-1	GHOST	634	n/a	n/a	-1	n/a	n/a	n/a	n/a	n/a
439.308	n/a	REC_WORD	219654	wordpools/wasnorm_wordpool.txt	LTP092	ltpFR	0	1	-1	BANQUET	86	n/a	n/a	-1	n/a	n/a	n/a	n/a	n/a
461.508	n/a	REC_WORD	230754	wordpools/wasnorm_wordpool.txt	LTP092	ltpFR	0	1	-1	RUNNER	1218	n/a	n/a	-1	n/a	n/a	n/a	n/a	n/a
496.758	n/a	WORD	248379	wordpools/wasnorm_wordpool.txt	LTP092	ltpFR	0	2	-1	RADIATOR	1156	n/a	n/a	-1	1.0	1.0	1	upper	Verdana.ttf
500.874	n/a	WORD	250437	wordpools/wasnorm_wordpool.txt	LTP092	ltpFR	0	2	-1	LADY	794	n/a	n/a	-1	1.0	1.0	1	upper	Verdana.ttf
505.082	n/a	WORD	252541	wordpools/wasnorm_wordpool.txt	LTP092	ltpFR	0	2	-1	AUTOMOBILE	62	n/a	n/a	-1	1.0	1.0	1	upper	Verdana.ttf
509.258	n/a	WORD	254629	wordpools/wasnorm_wordpool.txt	LTP092	ltpFR	0	2	-1	RASPBERRY	1168	n/a	n/a	-1	1.0	1.0	1	upper	Verdana.ttf
513.458	n/a	WORD	256729	wordpools/wasnorm_wordpool.txt	LTP092	ltpFR	0	2	-1	CHERRY	293	n/a	n/a	-1	1.0	1.0	1	upper	Verdana.ttf
517.666	n/a	WORD	258833	wordpools/wasnorm_wordpool.txt	LTP092	ltpFR	0	2	-1	LUNCH	849	n/a	n/a	-1	1.0	1.0	1	upper	Verdana.ttf
521.574	n/a	WORD	260787	wordpools/wasnorm_wordpool.txt	LTP092	ltpFR	0	2	-1	KANGAROO	768	n/a	n/a	-1	1.0	1.0	1	upper	Verdana.ttf
525.598	n/a	WORD	262799	wordpools/wasnorm_wordpool.txt	LTP092	ltpFR	0	2	-1	ACTOR	5	n/a	n/a	-1	1.0	1.0	1	upper	Verdana.ttf
529.574	n/a	WORD	264787	wordpools/wasnorm_wordpool.txt	LTP092	ltpFR	0	2	-1	PUDDING	1139	n/a	n/a	-1	1.0	1.0	1	upper	Verdana.ttf
533.39	n/a	WORD	266695	wordpools/wasnorm_wordpool.txt	LTP092	ltpFR	0	2	-1	CONSOLE	364	n/a	n/a	-1	1.0	1.0	1	upper	Verdana.ttf
537.25	n/a	WORD	268625	wordpools/wasnorm_wordpool.txt	LTP092	ltpFR	0	2	-1	GARAGE	621	n/a	n/a	-1	1.0	1.0	1	upper	Verdana.ttf
541.182	n/a	WORD	270591	wordpools/wasnorm_wordpool.txt	LTP092	ltpFR	0	2	-1	THIEF	1456	n/a	n/a	-1	1.0	1.0	1	upper	Verdana.ttf
545.29	n/a	WORD	272645	wordpools/wasnorm_wordpool.txt	LTP092	ltpFR	0	2	-1	SIDEWALK	1303	n/a	n/a	-1	1.0	1.0	1	upper	Verdana.ttf
549.498	n/a	WORD	274749	wordpools/wasnorm_wordpool.txt	LTP092	ltpFR	0	2	-1	SCIENTIST	1249	n/a	n/a	-1	1.0	1.0	1	upper	Verdana.ttf
553.34	n/a	WORD	276670	wordpools/wasnorm_wordpool.txt	LTP092	ltpFR	0	2	-1	CANDY	230	n/a	n/a	-1	1.0	1.0	1	upper	Verdana.ttf
557.266	n/a	WORD	278633	wordpools/wasnorm_wordpool.txt	LTP092	ltpFR	0	2	-1	GUM	672	n/a	n/a	-1	1.0	1.0	1	upper	Verdana.ttf
563.164	n/a	REC_START	281582	n/a	LTP092	ltpFR	0	2	n/a	n/a	n/a	n/a	n/a	n/a	n/a	n/a	n/a	n/a	n/a
564.626	n/a	REC_WORD	282313	wordpools/wasnorm_wordpool.txt	LTP092	ltpFR	0	2	-1	LADY	794	n/a	n/a	-1	n/a	n/a	n/a	n/a	n/a
565.276	n/a	REC_WORD	282638	wordpools/wasnorm_wordpool.txt	LTP092	ltpFR	0	2	-1	RADIATOR	1156	n/a	n/a	-1	n/a	n/a	n/a	n/a	n/a
566.626	n/a	REC_WORD	283313	wordpools/wasnorm_wordpool.txt	LTP092	ltpFR	0	2	-1	LUNCH	849	n/a	n/a	-1	n/a	n/a	n/a	n/a	n/a
567.27	n/a	REC_WORD	283635	wordpools/wasnorm_wordpool.txt	LTP092	ltpFR	0	2	-1	PUDDING	1139	n/a	n/a	-1	n/a	n/a	n/a	n/a	n/a
567.934	n/a	REC_WORD	283967	wordpools/wasnorm_wordpool.txt	LTP092	ltpFR	0	2	-1	RASPBERRY	1168	n/a	n/a	-1	n/a	n/a	n/a	n/a	n/a
569.176	n/a	REC_WORD	284588	wordpools/wasnorm_wordpool.txt	LTP092	ltpFR	0	2	-1	CHERRY	293	n/a	n/a	-1	n/a	n/a	n/a	n/a	n/a
569.9	n/a	REC_WORD	284950	wordpools/wasnorm_wordpool.txt	LTP092	ltpFR	0	2	-1	GUM	672	n/a	n/a	-1	n/a	n/a	n/a	n/a	n/a
571.512	n/a	REC_WORD	285756	wordpools/wasnorm_wordpool.txt	LTP092	ltpFR	0	2	-1	THIEF	1456	n/a	n/a	-1	n/a	n/a	n/a	n/a	n/a
572.5	n/a	REC_WORD	286250	wordpools/wasnorm_wordpool.txt	LTP092	ltpFR	0	2	-1	SIDEWALK	1303	n/a	n/a	-1	n/a	n/a	n/a	n/a	n/a
574.314	n/a	REC_WORD	287157	wordpools/wasnorm_wordpool.txt	LTP092	ltpFR	0	2	-1	CONSOLE	364	n/a	n/a	-1	n/a	n/a	n/a	n/a	n/a
575.872	n/a	REC_WORD	287936	wordpools/wasnorm_wordpool.txt	LTP092	ltpFR	0	2	-1	GARAGE	621	n/a	n/a	-1	n/a	n/a	n/a	n/a	n/a
595.018	n/a	REC_WORD	297509	wordpools/wasnorm_wordpool.txt	LTP092	ltpFR	0	2	-1	KANGAROO	768	n/a	n/a	-1	n/a	n/a	n/a	n/a	n/a
652.296	n/a	WORD	326148	wordpools/wasnorm_wordpool.txt	LTP092	ltpFR	0	3	-1	SLEEVE	1324	n/a	n/a	-1	1.0	1.0	1	upper	Verdana.ttf
656.112	n/a	WORD	328056	wordpools/wasnorm_wordpool.txt	LTP092	ltpFR	0	3	-1	DRINK	498	n/a	n/a	-1	1.0	1.0	1	upper	Verdana.ttf
660.162	n/a	WORD	330081	wordpools/wasnorm_wordpool.txt	LTP092	ltpFR	0	3	-1	SECRETARY	1265	n/a	n/a	-1	1.0	1.0	1	upper	Verdana.ttf
663.986	n/a	WORD	331993	wordpools/wasnorm_wordpool.txt	LTP092	ltpFR	0	3	-1	LION	827	n/a	n/a	-1	1.0	1.0	1	upper	Verdana.ttf
668.06	n/a	WORD	334030	wordpools/wasnorm_wordpool.txt	LTP092	ltpFR	0	3	-1	YACHT	1629	n/a	n/a	-1	1.0	1.0	1	upper	Verdana.ttf
672.196	n/a	WORD	336098	wordpools/wasnorm_wordpool.txt	LTP092	ltpFR	0	3	-1	MESSAGE	888	n/a	n/a	-1	1.0	1.0	1	upper	Verdana.ttf
676.32	n/a	WORD	338160	wordpools/wasnorm_wordpool.txt	LTP092	ltpFR	0	3	-1	MAILMAN	858	n/a	n/a	-1	1.0	1.0	1	upper	Verdana.ttf
680.246	n/a	WORD	340123	wordpools/wasnorm_wordpool.txt	LTP092	ltpFR	0	3	-1	IRON	744	n/a	n/a	-1	1.0	1.0	1	upper	Verdana.ttf
684.454	n/a	WORD	342227	wordpools/wasnorm_wordpool.txt	LTP092	ltpFR	0	3	-1	RAG	1160	n/a	n/a	-1	1.0	1.0	1	upper	Verdana.ttf
688.494	n/a	WORD	344247	wordpools/wasnorm_wordpool.txt	LTP092	ltpFR	0	3	-1	CHAMPAGNE	278	n/a	n/a	-1	1.0	1.0	1	upper	Verdana.ttf
692.62	n/a	WORD	346310	wordpools/wasnorm_wordpool.txt	LTP092	ltpFR	0	3	-1	VAULT	1550	n/a	n/a	-1	1.0	1.0	1	upper	Verdana.ttf
696.52	n/a	WORD	348260	wordpools/wasnorm_wordpool.txt	LTP092	ltpFR	0	3	-1	DIME	466	n/a	n/a	-1	1.0	1.0	1	upper	Verdana.ttf
700.42	n/a	WORD	350210	wordpools/wasnorm_wordpool.txt	LTP092	ltpFR	0	3	-1	COLLAR	345	n/a	n/a	-1	1.0	1.0	1	upper	Verdana.ttf
704.344	n/a	WORD	352172	wordpools/wasnorm_wordpool.txt	LTP092	ltpFR	0	3	-1	CUP	424	n/a	n/a	-1	1.0	1.0	1	upper	Verdana.ttf
708.202	n/a	WORD	354101	wordpools/wasnorm_wordpool.txt	LTP092	ltpFR	0	3	-1	CANNON	232	n/a	n/a	-1	1.0	1.0	1	upper	Verdana.ttf
712.044	n/a	WORD	356022	wordpools/wasnorm_wordpool.txt	LTP092	ltpFR	0	3	-1	LOUNGE	845	n/a	n/a	-1	1.0	1.0	1	upper	Verdana.ttf
717.918	n/a	REC_START	358959	n/a	LTP092	ltpFR	0	3	n/a	n/a	n/a	n/a	n/a	n/a	n/a	n/a	n/a	n/a	n/a
719.136	n/a	REC_WORD	359568	wordpools/wasnorm_wordpool.txt	LTP092	ltpFR	0	3	-1	DRINK	498	n/a	n/a	-1	n/a	n/a	n/a	n/a	n/a
719.78	n/a	REC_WORD	359890	wordpools/wasnorm_wordpool.txt	LTP092	ltpFR	0	3	-1	CUP	424	n/a	n/a	-1	n/a	n/a	n/a	n/a	n/a
720.602	n/a	REC_WORD	360301	wordpools/wasnorm_wordpool.txt	LTP092	ltpFR	0	3	-1	CHAMPAGNE	278	n/a	n/a	-1	n/a	n/a	n/a	n/a	n/a
721.75	n/a	REC_WORD	360875	wordpools/wasnorm_wordpool.txt	LTP092	ltpFR	0	3	-1	YACHT	1629	n/a	n/a	-1	n/a	n/a	n/a	n/a	n/a
723.292	n/a	REC_WORD	361646	wordpools/wasnorm_wordpool.txt	LTP092	ltpFR	0	3	-1	SLEEVE	1324	n/a	n/a	-1	n/a	n/a	n/a	n/a	n/a
724.354	n/a	REC_WORD	362177	wordpools/wasnorm_wordpool.txt	LTP092	ltpFR	0	3	-1	COLLAR	345	n/a	n/a	-1	n/a	n/a	n/a	n/a	n/a
725.452	n/a	REC_WORD	362726	wordpools/wasnorm_wordpool.txt	LTP092	ltpFR	0	3	-1	SECRETARY	1265	n/a	n/a	-1	n/a	n/a	n/a	n/a	n/a
727.142	n/a	REC_WORD	363571	wordpools/wasnorm_wordpool.txt	LTP092	ltpFR	0	3	-1	RAG	1160	n/a	n/a	-1	n/a	n/a	n/a	n/a	n/a
729.122	n/a	REC_WORD	364561	wordpools/wasnorm_wordpool.txt	LTP092	ltpFR	0	3	-1	LION	827	n/a	n/a	-1	n/a	n/a	n/a	n/a	n/a
731.712	n/a	REC_WORD	365856	wordpools/wasnorm_wordpool.txt	LTP092	ltpFR	0	3	-1	MESSAGE	888	n/a	n/a	-1	n/a	n/a	n/a	n/a	n/a
749.842	n/a	REC_WORD	374921	wordpools/wasnorm_wordpool.txt	LTP092	ltpFR	0	3	-1	LOUNGE	845	n/a	n/a	-1	n/a	n/a	n/a	n/a	n/a
810.826	n/a	WORD	405413	wordpools/wasnorm_wordpool.txt	LTP092	ltpFR	0	4	-1	GROCERIES	663	n/a	n/a	-1	1.0	1.0	1	upper	Verdana.ttf
814.95	n/a	WORD	407475	wordpools/wasnorm_wordpool.txt	LTP092	ltpFR	0	4	-1	CLERK	321	n/a	n/a	-1	1.0	1.0	1	upper	Verdana.ttf
818.916	n/a	WORD	409458	wordpools/wasnorm_wordpool.txt	LTP092	ltpFR	0	4	-1	ROBE	1198	n/a	n/a	-1	1.0	1.0	1	upper	Verdana.ttf
822.982	n/a	WORD	411491	wordpools/wasnorm_wordpool.txt	LTP092	ltpFR	0	4	-1	CARPENTER	246	n/a	n/a	-1	1.0	1.0	1	upper	Verdana.ttf
827.048	n/a	WORD	413524	wordpools/wasnorm_wordpool.txt	LTP092	ltpFR	0	4	-1	RUG	1215	n/a	n/a	-1	1.0	1.0	1	upper	Verdana.ttf
830.94	n/a	WORD	415470	wordpools/wasnorm_wordpool.txt	LTP092	ltpFR	0	4	-1	CHAIRPERSON	275	n/a	n/a	-1	1.0	1.0	1	upper	Verdana.ttf
834.924	n/a	WORD	417462	wordpools/wasnorm_wordpool.txt	LTP092	ltpFR	0	4	-1	COMMANDER	354	n/a	n/a	-1	1.0	1.0	1	upper	Verdana.ttf
839.024	n/a	WORD	419512	wordpools/wasnorm_wordpool.txt	LTP092	ltpFR	0	4	-1	STRANGER	1389	n/a	n/a	-1	1.0	1.0	1	upper	Verdana.ttf
842.898	n/a	WORD	421449	wordpools/wasnorm_wordpool.txt	LTP092	ltpFR	0	4	-1	JAR	750	n/a	n/a	-1	1.0	1.0	1	upper	Verdana.ttf
847.114	n/a	WORD	423557	wordpools/wasnorm_wordpool.txt	LTP092	ltpFR	0	4	-1	SAUSAGE	1238	n/a	n/a	-1	1.0	1.0	1	upper	Verdana.ttf
851.308	n/a	WORD	425654	wordpools/wasnorm_wordpool.txt	LTP092	ltpFR	0	4	-1	SAW	1239	n/a	n/a	-1	1.0	1.0	1	upper	Verdana.ttf
855.508	n/a	WORD	427754	wordpools/wasnorm_wordpool.txt	LTP092	ltpFR	0	4	-1	KEG	770	n/a	n/a	-1	1.0	1.0	1	upper	Verdana.ttf
859.39	n/a	WORD	429695	wordpools/wasnorm_wordpool.txt	LTP092	ltpFR	0	4	-1	SPONGE	1355	n/a	n/a	-1	1.0	1.0	1	upper	Verdana.ttf
863.432	n/a	WORD	431716	wordpools/wasnorm_wordpool.txt	LTP092	ltpFR	0	4	-1	ISLAND	745	n/a	n/a	-1	1.0	1.0	1	upper	Verdana.ttf
867.406	n/a	WORD	433703	wordpools/wasnorm_wordpool.txt	LTP092	ltpFR	0	4	-1	CABINET	212	n/a	n/a	-1	1.0	1.0	1	upper	Verdana.ttf
871.466	n/a	WORD	435733	wordpools/wasnorm_wordpool.txt	LTP092	ltpFR	0	4	-1	FLASK	576	n/a	n/a	-1	1.0	1.0	1	upper	Verdana.ttf
877.064	n/a	REC_START	438532	n/a	LTP092	ltpFR	0	4	n/a	n/a	n/a	n/a	n/a	n/a	n/a	n/a	n/a	n/a	n/a
879.066	n/a	REC_WORD	439533	wordpools/wasnorm_wordpool.txt	LTP092	ltpFR	0	4	-1	GROCERIES	663	n/a	n/a	-1	n/a	n/a	n/a	n/a	n/a
881.514	n/a	REC_WORD	440757	wordpools/wasnorm_wordpool.txt	LTP092	ltpFR	0	4	-1	CARPENTER	246	n/a	n/a	-1	n/a	n/a	n/a	n/a	n/a
883.186	n/a	REC_WORD	441593	wordpools/wasnorm_wordpool.txt	LTP092	ltpFR	0	4	-1	ROBE	1198	n/a	n/a	-1	n/a	n/a	n/a	n/a	n/a
884.608	n/a	REC_WORD	442304	wordpools/wasnorm_wordpool.txt	LTP092	ltpFR	0	4	-1	RUG	1215	n/a	n/a	-1	n/a	n/a	n/a	n/a	n/a
886.158	n/a	REC_WORD	443079	wordpools/wasnorm_wordpool.txt	LTP092	ltpFR	0	4	-1	SAW	1239	n/a	n/a	-1	n/a	n/a	n/a	n/a	n/a
889.116	n/a	REC_WORD	444558	wordpools/wasnorm_wordpool.txt	LTP092	ltpFR	0	4	-1	CHAIRPERSON	275	n/a	n/a	-1	n/a	n/a	n/a	n/a	n/a
892.406	n/a	REC_WORD	446203	wordpools/wasnorm_wordpool.txt	LTP092	ltpFR	0	4	-1	COMMANDER	354	n/a	n/a	-1	n/a	n/a	n/a	n/a	n/a
918.054	n/a	REC_WORD	459027	wordpools/wasnorm_wordpool.txt	LTP092	ltpFR	0	4	-1	FLASK	576	n/a	n/a	-1	n/a	n/a	n/a	n/a	n/a
1193.172	n/a	WORD	596586	wordpools/wasnorm_wordpool.txt	LTP092	ltpFR	0	5	0	NEPHEW	942	n/a	n/a	n/a	0.422607421875	0.5869140625	0	lower	amplitud.ttf
1196.198	n/a	SLOW_MSG	598099	n/a	LTP092	ltpFR	0	5	n/a	n/a	n/a	n/a	n/a	n/a	n/a	n/a	n/a	n/a	n/a
1198.816	n/a	WORD	599408	wordpools/wasnorm_wordpool.txt	LTP092	ltpFR	0	5	0	OFFICER	973	n/a	n/a	1	0.422607421875	0.5869140625	0	lower	amplitud.ttf
1202.764	n/a	WORD	601382	wordpools/wasnorm_wordpool.txt	LTP092	ltpFR	0	5	0	PICNIC	1060	n/a	n/a	1	0.422607421875	0.5869140625	0	lower	amplitud.ttf
1206.706	n/a	WORD	603353	wordpools/wasnorm_wordpool.txt	LTP092	ltpFR	0	5	0	COUSIN	392	n/a	n/a	1	0.422607421875	0.5869140625	0	lower	amplitud.ttf
1210.84	n/a	WORD	605420	wordpools/wasnorm_wordpool.txt	LTP092	ltpFR	0	5	0	COD	340	n/a	n/a	1	0.422607421875	0.5869140625	0	lower	amplitud.ttf
1214.806	n/a	WORD	607403	wordpools/wasnorm_wordpool.txt	LTP092	ltpFR	0	5	0	FLIPPER	580	n/a	n/a	0	0.422607421875	0.5869140625	0	lower	amplitud.ttf
1218.946	n/a	WORD	609473	wordpools/wasnorm_wordpool.txt	LTP092	ltpFR	0	5	0	LACE	792	n/a	n/a	0	0.422607421875	0.5869140625	0	lower	amplitud.ttf
1222.89	n/a	WORD	611445	wordpools/wasnorm_wordpool.txt	LTP092	ltpFR	0	5	0	FOOT	590	n/a	n/a	0	0.422607421875	0.5869140625	0	lower	amplitud.ttf
1226.764	n/a	WORD	613382	wordpools/wasnorm_wordpool.txt	LTP092	ltpFR	0	5	0	CHEF	290	n/a	n/a	1	0.422607421875	0.5869140625	0	lower	amplitud.ttf
1230.632	n/a	WORD	615316	wordpools/wasnorm_wordpool.txt	LTP092	ltpFR	0	5	0	RECIPE	1175	n/a	n/a	0	0.422607421875	0.5869140625	0	lower	amplitud.ttf
1234.448	n/a	WORD	617224	wordpools/wasnorm_wordpool.txt	LTP092	ltpFR	0	5	0	ROBBER	1197	n/a	n/a	1	0.422607421875	0.5869140625	0	lower	amplitud.ttf
1238.264	n/a	WORD	619132	wordpools/wasnorm_wordpool.txt	LTP092	ltpFR	0	5	0	COP	376	n/a	n/a	1	0.422607421875	0.5869140625	0	lower	amplitud.ttf
1242.222	n/a	WORD	621111	wordpools/wasnorm_wordpool.txt	LTP092	ltpFR	0	5	0	COURSE	390	n/a	n/a	1	0.422607421875	0.5869140625	0	lower	amplitud.ttf
1246.154	n/a	WORD	623077	wordpools/wasnorm_wordpool.txt	LTP092	ltpFR	0	5	0	MACHINE	852	n/a	n/a	1	0.422607421875	0.5869140625	0	lower	amplitud.ttf
1250.146	n/a	WORD	625073	wordpools/wasnorm_wordpool.txt	LTP092	ltpFR	0	5	0	YARN	1631	n/a	n/a	0	0.422607421875	0.5869140625	0	lower	amplitud.ttf
1254.046	n/a	WORD	627023	wordpools/wasnorm_wordpool.txt	LTP092	ltpFR	0	5	0	PROFESSOR	1131	n/a	n/a	n/a	0.422607421875	0.5869140625	0	lower	amplitud.ttf
1257.072	n/a	SLOW_MSG	628536	n/a	LTP092	ltpFR	0	5	n/a	n/a	n/a	n/a	n/a	n/a	n/a	n/a	n/a	n/a	n/a
1261.564	n/a	REC_START	630782	n/a	LTP092	ltpFR	0	5	n/a	n/a	n/a	n/a	n/a	n/a	n/a	n/a	n/a	n/a	n/a
1262.766	n/a	REC_WORD	631383	wordpools/wasnorm_wordpool.txt	LTP092	ltpFR	0	5	0	NEPHEW	942	n/a	n/a	n/a	n/a	n/a	n/a	n/a	n/a
1264.422	n/a	REC_WORD	632211	wordpools/wasnorm_wordpool.txt	LTP092	ltpFR	0	5	0	COUSIN	392	n/a	n/a	1	n/a	n/a	n/a	n/a	n/a
1265.566	n/a	REC_WORD	632783	wordpools/wasnorm_wordpool.txt	LTP092	ltpFR	0	5	0	PICNIC	1060	n/a	n/a	1	n/a	n/a	n/a	n/a	n/a
1266.802	n/a	REC_WORD	633401	wordpools/wasnorm_wordpool.txt	LTP092	ltpFR	0	5	0	COURSE	390	n/a	n/a	1	n/a	n/a	n/a	n/a	n/a
1268.752	n/a	REC_WORD	634376	wordpools/wasnorm_wordpool.txt	LTP092	ltpFR	0	5	0	COD	340	n/a	n/a	1	n/a	n/a	n/a	n/a	n/a
1270.286	n/a	REC_WORD	635143	wordpools/wasnorm_wordpool.txt	LTP092	ltpFR	0	5	0	LACE	792	n/a	n/a	0	n/a	n/a	n/a	n/a	n/a
1271.962	n/a	REC_WORD	635981	wordpools/wasnorm_wordpool.txt	LTP092	ltpFR	0	5	0	OFFICER	973	n/a	n/a	1	n/a	n/a	n/a	n/a	n/a
1274.262	n/a	REC_WORD	637131	wordpools/wasnorm_wordpool.txt	LTP092	ltpFR	0	5	0	PROFESSOR	1131	n/a	n/a	n/a	n/a	n/a	n/a	n/a	n/a
1276.416	n/a	REC_WORD	638208	wordpools/wasnorm_wordpool.txt	LTP092	ltpFR	0	5	0	FOOT	590	n/a	n/a	0	n/a	n/a	n/a	n/a	n/a
1278.092	n/a	REC_WORD	639046	wordpools/wasnorm_wordpool.txt	LTP092	ltpFR	0	5	0	MACHINE	852	n/a	n/a	1	n/a	n/a	n/a	n/a	n/a
1291.668	n/a	REC_WORD	645834	wordpools/wasnorm_wordpool.txt	LTP092	ltpFR	0	5	0	PICNIC	1060	n/a	n/a	1	n/a	n/a	n/a	n/a	n/a
1381.802	n/a	WORD	690901	wordpools/wasnorm_wordpool.txt	LTP092	ltpFR	0	6	0	TAPE	1433	n/a	n/a	0	0.422607421875	0.5869140625	0	lower	amplitud.ttf
1385.71	n/a	WORD	692855	wordpools/wasnorm_wordpool.txt	LTP092	ltpFR	0	6	0	OPERA	978	n/a	n/a	1	0.422607421875	0.5869140625	0	lower	amplitud.ttf
1389.744	n/a	WORD	694872	wordpools/wasnorm_wordpool.txt	LTP092	ltpFR	0	6	0	CUFF	423	n/a	n/a	0	0.422607421875	0.5869140625	0	lower	amplitud.ttf
1393.61	n/a	WORD	696805	wordpools/wasnorm_wordpool.txt	LTP092	ltpFR	0	6	0	TREE	1502	n/a	n/a	1	0.422607421875	0.5869140625	0	lower	amplitud.ttf
1397.66	n/a	WORD	698830	wordpools/wasnorm_wordpool.txt	LTP092	ltpFR	0	6	0	STUMP	1396	n/a	n/a	0	0.422607421875	0.5869140625	0	lower	amplitud.ttf
1401.502	n/a	WORD	700751	wordpools/wasnorm_wordpool.txt	LTP092	ltpFR	0	6	0	STEW	1380	n/a	n/a	1	0.422607421875	0.5869140625	0	lower	amplitud.ttf
1405.36	n/a	WORD	702680	wordpools/wasnorm_wordpool.txt	LTP092	ltpFR	0	6	0	RAIL	1161	n/a	n/a	1	0.422607421875	0.5869140625	0	lower	amplitud.ttf
1409.31	n/a	WORD	704655	wordpools/wasnorm_wordpool.txt	LTP092	ltpFR	0	6	0	HIGHWAY	707	n/a	n/a	1	0.422607421875	0.5869140625	0	lower	amplitud.ttf
1413.168	n/a	WORD	706584	wordpools/wasnorm_wordpool.txt	LTP092	ltpFR	0	6	0	SKIRT	1319	n/a	n/a	1	0.422607421875	0.5869140625	0	lower	amplitud.ttf
1417.026	n/a	WORD	708513	wordpools/wasnorm_wordpool.txt	LTP092	ltpFR	0	6	0	PATROL	1027	n/a	n/a	1	0.422607421875	0.5869140625	0	lower	amplitud.ttf
1421.05	n/a	WORD	710525	wordpools/wasnorm_wordpool.txt	LTP092	ltpFR	0	6	0	AMBULANCE	19	n/a	n/a	1	0.422607421875	0.5869140625	0	lower	amplitud.ttf
1425.158	n/a	WORD	712579	wordpools/wasnorm_wordpool.txt	LTP092	ltpFR	0	6	0	TAR	1435	n/a	n/a	1	0.422607421875	0.5869140625	0	lower	amplitud.ttf
1429.31	n/a	WORD	714655	wordpools/wasnorm_wordpool.txt	LTP092	ltpFR	0	6	0	BANANA	77	n/a	n/a	0	0.422607421875	0.5869140625	0	lower	amplitud.ttf
1433.31	n/a	WORD	716655	wordpools/wasnorm_wordpool.txt	LTP092	ltpFR	0	6	0	FIREPLACE	570	n/a	n/a	1	0.422607421875	0.5869140625	0	lower	amplitud.ttf
1437.2	n/a	WORD	718600	wordpools/wasnorm_wordpool.txt	LTP092	ltpFR	0	6	0	BEDROOM	111	n/a	n/a	1	0.422607421875	0.5869140625	0	lower	amplitud.ttf
1441.224	n/a	WORD	720612	wordpools/wasnorm_wordpool.txt	LTP092	ltpFR	0	6	0	SHEET	1279	n/a	n/a	1	0.422607421875	0.5869140625	0	lower	amplitud.ttf
1446.924	n/a	REC_START	723462	n/a	LTP092	ltpFR	0	6	n/a	n/a	n/a	n/a	n/a	n/a	n/a	n/a	n/a	n/a	n/a
1448.406	n/a	REC_WORD	724203	wordpools/wasnorm_wordpool.txt	LTP092	ltpFR	0	6	0	OPERA	978	n/a	n/a	1	n/a	n/a	n/a	n/a	n/a
1450.272	n/a	REC_WORD	725136	wordpools/wasnorm_wordpool.txt	LTP092	ltpFR	0	6	0	TAPE	1433	n/a	n/a	0	n/a	n/a	n/a	n/a	n/a
1451.914	n/a	REC_WORD	725957	wordpools/wasnorm_wordpool.txt	LTP092	ltpFR	0	6	0	CUFF	423	n/a	n/a	0	n/a	n/a	n/a	n/a	n/a
1453.21	n/a	REC_WORD	726605	wordpools/wasnorm_wordpool.txt	LTP092	ltpFR	0	6	0	STEW	1380	n/a	n/a	1	n/a	n/a	n/a	n/a	n/a
1456.16	n/a	REC_WORD	728080	wordpools/wasnorm_wordpool.txt	LTP092	ltpFR	0	6	0	TAR	1435	n/a	n/a	1	n/a	n/a	n/a	n/a	n/a
1458.006	n/a	REC_WORD	729003	wordpools/wasnorm_wordpool.txt	LTP092	ltpFR	0	6	0	SKIRT	1319	n/a	n/a	1	n/a	n/a	n/a	n/a	n/a
1459.612	n/a	REC_WORD	729806	wordpools/wasnorm_wordpool.txt	LTP092	ltpFR	0	6	0	BEDROOM	111	n/a	n/a	1	n/a	n/a	n/a	n/a	n/a
1462.096	n/a	REC_WORD	731048	wordpools/wasnorm_wordpool.txt	LTP092	ltpFR	0	6	0	SHEET	1279	n/a	n/a	1	n/a	n/a	n/a	n/a	n/a
1466.282	n/a	REC_WORD	733141	wordpools/wasnorm_wordpool.txt	LTP092	ltpFR	0	6	0	HIGHWAY	707	n/a	n/a	1	n/a	n/a	n/a	n/a	n/a
1528.18	n/a	WORD	764090	wordpools/wasnorm_wordpool.txt	LTP092	ltpFR	0	7	0	QUAIL	1147	n/a	n/a	0	0.422607421875	0.5869140625	0	lower	amplitud.ttf
1532.222	n/a	WORD	766111	wordpools/wasnorm_wordpool.txt	LTP092	ltpFR	0	7	0	PICK	1058	n/a	n/a	1	0.422607421875	0.5869140625	0	lower	amplitud.ttf
1536.29	n/a	WORD	768145	wordpools/wasnorm_wordpool.txt	LTP092	ltpFR	0	7	0	BEAKER	104	n/a	n/a	1	0.422607421875	0.5869140625	0	lower	amplitud.ttf
1540.214	n/a	WORD	770107	wordpools/wasnorm_wordpool.txt	LTP092	ltpFR	0	7	0	GULL	671	n/a	n/a	0	0.422607421875	0.5869140625	0	lower	amplitud.ttf
1544.272	n/a	WORD	772136	wordpools/wasnorm_wordpool.txt	LTP092	ltpFR	0	7	0	COAT	333	n/a	n/a	1	0.422607421875	0.5869140625	0	lower	amplitud.ttf
1548.39	n/a	WORD	774195	wordpools/wasnorm_wordpool.txt	LTP092	ltpFR	0	7	0	PERISCOPE	1050	n/a	n/a	0	0.422607421875	0.5869140625	0	lower	amplitud.ttf
1552.482	n/a	WORD	776241	wordpools/wasnorm_wordpool.txt	LTP092	ltpFR	0	7	0	SPOOL	1356	n/a	n/a	0	0.422607421875	0.5869140625	0	lower	amplitud.ttf
1556.456	n/a	WORD	778228	wordpools/wasnorm_wordpool.txt	LTP092	ltpFR	0	7	0	LIMB	822	n/a	n/a	0	0.422607421875	0.5869140625	0	lower	amplitud.ttf
1560.406	n/a	WORD	780203	wordpools/wasnorm_wordpool.txt	LTP092	ltpFR	0	7	0	ASTEROID	50	n/a	n/a	1	0.422607421875	0.5869140625	0	lower	amplitud.ttf
1564.43	n/a	WORD	782215	wordpools/wasnorm_wordpool.txt	LTP092	ltpFR	0	7	0	PELT	1040	n/a	n/a	1	0.422607421875	0.5869140625	0	lower	amplitud.ttf
1568.546	n/a	WORD	784273	wordpools/wasnorm_wordpool.txt	LTP092	ltpFR	0	7	0	CAP	236	n/a	n/a	0	0.422607421875	0.5869140625	0	lower	amplitud.ttf
1572.648	n/a	WORD	786324	wordpools/wasnorm_wordpool.txt	LTP092	ltpFR	0	7	0	PIG	1064	n/a	n/a	1	0.422607421875	0.5869140625	0	lower	amplitud.ttf
1576.598	n/a	WORD	788299	wordpools/wasnorm_wordpool.txt	LTP092	ltpFR	0	7	0	CHIME	300	n/a	n/a	0	0.422607421875	0.5869140625	0	lower	amplitud.ttf
1580.706	n/a	WORD	790353	wordpools/wasnorm_wordpool.txt	LTP092	ltpFR	0	7	0	SAPPHIRE	1234	n/a	n/a	0	0.422607421875	0.5869140625	0	lower	amplitud.ttf
1584.796	n/a	WORD	792398	wordpools/wasnorm_wordpool.txt	LTP092	ltpFR	0	7	0	STREAM	1392	n/a	n/a	1	0.422607421875	0.5869140625	0	lower	amplitud.ttf
1588.922	n/a	WORD	794461	wordpools/wasnorm_wordpool.txt	LTP092	ltpFR	0	7	0	LAGOON	795	n/a	n/a	1	0.422607421875	0.5869140625	0	lower	amplitud.ttf
1594.54	n/a	REC_START	797270	n/a	LTP092	ltpFR	0	7	n/a	n/a	n/a	n/a	n/a	n/a	n/a	n/a	n/a	n/a	n/a
1596.4	n/a	REC_WORD	798200	wordpools/wasnorm_wordpool.txt	LTP092	ltpFR	0	7	0	STREAM	1392	n/a	n/a	1	n/a	n/a	n/a	n/a	n/a
1598.162	n/a	REC_WORD	799081	wordpools/wasnorm_wordpool.txt	LTP092	ltpFR	0	7	0	LAGOON	795	n/a	n/a	1	n/a	n/a	n/a	n/a	n/a
1599.628	n/a	REC_WORD	799814	wordpools/wasnorm_wordpool.txt	LTP092	ltpFR	0	7	0	SAPPHIRE	1234	n/a	n/a	0	n/a	n/a	n/a	n/a	n/a
1601.714	n/a	REC_WORD	800857	wordpools/wasnorm_wordpool.txt	LTP092	ltpFR	0	7	0	GULL	671	n/a	n/a	0	n/a	n/a	n/a	n/a	n/a
1603.124	n/a	REC_WORD	801562	wordpools/wasnorm_wordpool.txt	LTP092	ltpFR	0	7	0	QUAIL	1147	n/a	n/a	0	n/a	n/a	n/a	n/a	n/a
1607.306	n/a	REC_WORD	803653	wordpools/wasnorm_wordpool.txt	LTP092	ltpFR	0	7	0	COAT	333	n/a	n/a	1	n/a	n/a	n/a	n/a	n/a
1613.014	n/a	REC_WORD	806507	wordpools/wasnorm_wordpool.txt	LTP092	ltpFR	0	7	0	CAP	236	n/a	n/a	0	n/a	n/a	n/a	n/a	n/a
1617.034	n/a	REC_WORD	808517	wordpools/wasnorm_wordpool.txt	LTP092	ltpFR	0	7	0	SPOOL	1356	n/a	n/a	0	n/a	n/a	n/a	n/a	n/a
1621.37	n/a	REC_WORD	810685	wordpools/wasnorm_wordpool.txt	LTP092	ltpFR	0	7	0	PICK	1058	n/a	n/a	1	n/a	n/a	n/a	n/a	n/a
1679.662	n/a	WORD	839831	wordpools/wasnorm_wordpool.txt	LTP092	ltpFR	0	8	0	FOREHEAD	592	n/a	n/a	0	0.422607421875	0.5869140625	0	lower	amplitud.ttf
1683.52	n/a	WORD	841760	wordpools/wasnorm_wordpool.txt	LTP092	ltpFR	0	8	0	MEAT	883	n/a	n/a	0	0.422607421875	0.5869140625	0	lower	amplitud.ttf
1687.686	n/a	WORD	843843	wordpools/wasnorm_wordpool.txt	LTP092	ltpFR	0	8	0	COACH	331	n/a	n/a	1	0.422607421875	0.5869140625	0	lower	amplitud.ttf
1691.686	n/a	WORD	845843	wordpools/wasnorm_wordpool.txt	LTP092	ltpFR	0	8	0	DRYER	503	n/a	n/a	1	0.422607421875	0.5869140625	0	lower	amplitud.ttf
1695.778	n/a	WORD	847889	wordpools/wasnorm_wordpool.txt	LTP092	ltpFR	0	8	0	FIN	566	n/a	n/a	0	0.422607421875	0.5869140625	0	lower	amplitud.ttf
1699.686	n/a	WORD	849843	wordpools/wasnorm_wordpool.txt	LTP092	ltpFR	0	8	0	BIOLOGIST	128	n/a	n/a	1	0.422607421875	0.5869140625	0	lower	amplitud.ttf
1703.676	n/a	WORD	851838	wordpools/wasnorm_wordpool.txt	LTP092	ltpFR	0	8	0	GENERAL	630	n/a	n/a	1	0.422607421875	0.5869140625	0	lower	amplitud.ttf
1707.552	n/a	WORD	853776	wordpools/wasnorm_wordpool.txt	LTP092	ltpFR	0	8	0	JOINT	758	n/a	n/a	0	0.422607421875	0.5869140625	0	lower	amplitud.ttf
1711.67	n/a	WORD	855835	wordpools/wasnorm_wordpool.txt	LTP092	ltpFR	0	8	0	ELBOW	520	n/a	n/a	0	0.422607421875	0.5869140625	0	lower	amplitud.ttf
1715.802	n/a	WORD	857901	wordpools/wasnorm_wordpool.txt	LTP092	ltpFR	0	8	0	BABY	64	n/a	n/a	1	0.422607421875	0.5869140625	0	lower	amplitud.ttf
1719.968	n/a	WORD	859984	wordpools/wasnorm_wordpool.txt	LTP092	ltpFR	0	8	0	RIB	1188	n/a	n/a	0	0.422607421875	0.5869140625	0	lower	amplitud.ttf
1723.918	n/a	WORD	861959	wordpools/wasnorm_wordpool.txt	LTP092	ltpFR	0	8	0	FIELD	562	n/a	n/a	1	0.422607421875	0.5869140625	0	lower	amplitud.ttf
1728.092	n/a	WORD	864046	wordpools/wasnorm_wordpool.txt	LTP092	ltpFR	0	8	0	ATMOSPHERE	54	n/a	n/a	1	0.422607421875	0.5869140625	0	lower	amplitud.ttf
1732.126	n/a	WORD	866063	wordpools/wasnorm_wordpool.txt	LTP092	ltpFR	0	8	0	BALLOON	75	n/a	n/a	0	0.422607421875	0.5869140625	0	lower	amplitud.ttf
1736.26	n/a	WORD	868130	wordpools/wasnorm_wordpool.txt	LTP092	ltpFR	0	8	0	CHICK	296	n/a	n/a	0	0.422607421875	0.5869140625	0	lower	amplitud.ttf
1740.076	n/a	WORD	870038	wordpools/wasnorm_wordpool.txt	LTP092	ltpFR	0	8	0	PELICAN	1039	n/a	n/a	1	0.422607421875	0.5869140625	0	lower	amplitud.ttf
1745.926	n/a	REC_START	872963	n/a	LTP092	ltpFR	0	8	n/a	n/a	n/a	n/a	n/a	n/a	n/a	n/a	n/a	n/a	n/a
1747.062	n/a	REC_WORD	873531	wordpools/wasnorm_wordpool.txt	LTP092	ltpFR	0	8	0	COACH	331	n/a	n/a	1	n/a	n/a	n/a	n/a	n/a
1748.096	n/a	REC_WORD	874048	wordpools/wasnorm_wordpool.txt	LTP092	ltpFR	0	8	0	FOREHEAD	592	n/a	n/a	0	n/a	n/a	n/a	n/a	n/a
1749.244	n/a	REC_WORD	874622	wordpools/wasnorm_wordpool.txt	LTP092	ltpFR	0	8	0	FIELD	562	n/a	n/a	1	n/a	n/a	n/a	n/a	n/a
1750.9	n/a	REC_WORD	875450	wordpools/wasnorm_wordpool.txt	LTP092	ltpFR	0	8	0	JOINT	758	n/a	n/a	0	n/a	n/a	n/a	n/a	n/a
1753.16	n/a	REC_WORD	876580	wordpools/wasnorm_wordpool.txt	LTP092	ltpFR	0	8	0	ELBOW	520	n/a	n/a	0	n/a	n/a	n/a	n/a	n/a
1754.812	n/a	REC_WORD	877406	wordpools/wasnorm_wordpool.txt	LTP092	ltpFR	0	8	0	BABY	64	n/a	n/a	1	n/a	n/a	n/a	n/a	n/a
1758.358	n/a	REC_WORD	879179	wordpools/wasnorm_wordpool.txt	LTP092	ltpFR	0	8	0	PELICAN	1039	n/a	n/a	1	n/a	n/a	n/a	n/a	n/a
1767.164	n/a	REC_WORD	883582	wordpools/wasnorm_wordpool.txt	LTP092	ltpFR	0	8	0	BIOLOGIST	128	n/a	n/a	1	n/a	n/a	n/a	n/a	n/a
1773.984	n/a	REC_WORD	886992	wordpools/wasnorm_wordpool.txt	LTP092	ltpFR	0	8	0	GENERAL	630	n/a	n/a	1	n/a	n/a	n/a	n/a	n/a
1785.118	n/a	REC_WORD	892559	wordpools/wasnorm_wordpool.txt	LTP092	ltpFR	0	8	0	JOINT	758	n/a	n/a	0	n/a	n/a	n/a	n/a	n/a
1812.832	n/a	REC_WORD	906416	wordpools/wasnorm_wordpool.txt	LTP092	ltpFR	0	8	0	RIB	1188	n/a	n/a	0	n/a	n/a	n/a	n/a	n/a
1834.574	n/a	WORD	917287	wordpools/wasnorm_wordpool.txt	LTP092	ltpFR	0	9	1	PLUM	1090	n/a	n/a	1	0.57763671875	0.412841796875	1	upper	zerothre.ttf
1838.466	n/a	WORD	919233	wordpools/wasnorm_wordpool.txt	LTP092	ltpFR	0	9	1	RADIO	1157	n/a	n/a	0	0.57763671875	0.412841796875	1	upper	zerothre.ttf
1842.548	n/a	WORD	921274	wordpools/wasnorm_wordpool.txt	LTP092	ltpFR	0	9	1	SIREN	1310	n/a	n/a	0	0.57763671875	0.412841796875	1	upper	zerothre.ttf
1846.682	n/a	WORD	923341	wordpools/wasnorm_wordpool.txt	LTP092	ltpFR	0	9	1	PERSONNEL	1053	n/a	n/a	1	0.57763671875	0.412841796875	1	upper	zerothre.ttf
1850.866	n/a	WORD	925433	wordpools/wasnorm_wordpool.txt	LTP092	ltpFR	0	9	1	OWNER	993	n/a	n/a	1	0.57763671875	0.412841796875	1	upper	zerothre.ttf
1854.816	n/a	WORD	927408	wordpools/wasnorm_wordpool.txt	LTP092	ltpFR	0	9	1	FEATHER	557	n/a	n/a	0	0.57763671875	0.412841796875	1	upper	zerothre.ttf
1858.656	n/a	WORD	929328	wordpools/wasnorm_wordpool.txt	LTP092	ltpFR	0	9	1	BUTTERFLY	206	n/a	n/a	1	0.57763671875	0.412841796875	1	upper	zerothre.ttf
1862.556	n/a	WORD	931278	wordpools/wasnorm_wordpool.txt	LTP092	ltpFR	0	9	1	EMPEROR	529	n/a	n/a	1	0.57763671875	0.412841796875	1	upper	zerothre.ttf
1866.74	n/a	WORD	933370	wordpools/wasnorm_wordpool.txt	LTP092	ltpFR	0	9	1	CUSHION	428	n/a	n/a	0	0.57763671875	0.412841796875	1	upper	zerothre.ttf
1870.782	n/a	WORD	935391	wordpools/wasnorm_wordpool.txt	LTP092	ltpFR	0	9	1	EMPLOYER	532	n/a	n/a	1	0.57763671875	0.412841796875	1	upper	zerothre.ttf
1874.748	n/a	WORD	937374	wordpools/wasnorm_wordpool.txt	LTP092	ltpFR	0	9	1	WHEAT	1602	n/a	n/a	1	0.57763671875	0.412841796875	1	upper	zerothre.ttf
1878.698	n/a	WORD	939349	wordpools/wasnorm_wordpool.txt	LTP092	ltpFR	0	9	1	SCARECROW	1245	n/a	n/a	1	0.57763671875	0.412841796875	1	upper	zerothre.ttf
1882.906	n/a	WORD	941453	wordpools/wasnorm_wordpool.txt	LTP092	ltpFR	0	9	1	TART	1436	n/a	n/a	0	0.57763671875	0.412841796875	1	upper	zerothre.ttf
1887.07	n/a	WORD	943535	wordpools/wasnorm_wordpool.txt	LTP092	ltpFR	0	9	1	DETECTIVE	454	n/a	n/a	1	0.57763671875	0.412841796875	1	upper	zerothre.ttf
1891.014	n/a	WORD	945507	wordpools/wasnorm_wordpool.txt	LTP092	ltpFR	0	9	1	OAR	966	n/a	n/a	0	0.57763671875	0.412841796875	1	upper	zerothre.ttf
1895.072	n/a	WORD	947536	wordpools/wasnorm_wordpool.txt	LTP092	ltpFR	0	9	1	BOAT	144	n/a	n/a	1	0.57763671875	0.412841796875	1	upper	zerothre.ttf
1900.732	n/a	REC_START	950366	n/a	LTP092	ltpFR	0	9	n/a	n/a	n/a	n/a	n/a	n/a	n/a	n/a	n/a	n/a	n/a
1902.412	n/a	REC_WORD	951206	wordpools/wasnorm_wordpool.txt	LTP092	ltpFR	0	9	1	PLUM	1090	n/a	n/a	1	n/a	n/a	n/a	n/a	n/a
1903.266	n/a	REC_WORD	951633	wordpools/wasnorm_wordpool.txt	LTP092	ltpFR	0	9	1	BOAT	144	n/a	n/a	1	n/a	n/a	n/a	n/a	n/a
1904.552	n/a	REC_WORD	952276	wordpools/wasnorm_wordpool.txt	LTP092	ltpFR	0	9	1	RADIO	1157	n/a	n/a	0	n/a	n/a	n/a	n/a	n/a
1905.64	n/a	REC_WORD	952820	wordpools/wasnorm_wordpool.txt	LTP092	ltpFR	0	9	1	PERSONNEL	1053	n/a	n/a	1	n/a	n/a	n/a	n/a	n/a
1907.436	n/a	REC_WORD	953718	wordpools/wasnorm_wordpool.txt	LTP092	ltpFR	0	9	1	EMPLOYER	532	n/a	n/a	1	n/a	n/a	n/a	n/a	n/a
1909.916	n/a	REC_WORD	954958	wordpools/wasnorm_wordpool.txt	LTP092	ltpFR	0	9	1	DETECTIVE	454	n/a	n/a	1	n/a	n/a	n/a	n/a	n/a
1912.396	n/a	REC_WORD	956198	wordpools/wasnorm_wordpool.txt	LTP092	ltpFR	0	9	1	FEATHER	557	n/a	n/a	0	n/a	n/a	n/a	n/a	n/a
1915.598	n/a	REC_WORD	957799	wordpools/wasnorm_wordpool.txt	LTP092	ltpFR	0	9	1	BUTTERFLY	206	n/a	n/a	1	n/a	n/a	n/a	n/a	n/a
1918.802	n/a	REC_WORD	959401	wordpools/wasnorm_wordpool.txt	LTP092	ltpFR	0	9	1	OWNER	993	n/a	n/a	1	n/a	n/a	n/a	n/a	n/a
1925.966	n/a	REC_WORD	962983	wordpools/wasnorm_wordpool.txt	LTP092	ltpFR	0	9	1	WHEAT	1602	n/a	n/a	1	n/a	n/a	n/a	n/a	n/a
1939.724	n/a	REC_WORD	969862	wordpools/wasnorm_wordpool.txt	LTP092	ltpFR	0	9	1	RADIO	1157	n/a	n/a	0	n/a	n/a	n/a	n/a	n/a
1991.546	n/a	WORD	995773	wordpools/wasnorm_wordpool.txt	LTP092	ltpFR	0	10	1	CAPTAIN	239	n/a	n/a	1	0.57763671875	0.412841796875	1	upper	zerothre.ttf
1995.37	n/a	WORD	997685	wordpools/wasnorm_wordpool.txt	LTP092	ltpFR	0	10	1	SKILLET	1317	n/a	n/a	0	0.57763671875	0.412841796875	1	upper	zerothre.ttf
1999.42	n/a	WORD	999710	wordpools/wasnorm_wordpool.txt	LTP092	ltpFR	0	10	1	LUMBER	848	n/a	n/a	0	0.57763671875	0.412841796875	1	upper	zerothre.ttf
2003.26	n/a	WORD	1001630	wordpools/wasnorm_wordpool.txt	LTP092	ltpFR	0	10	1	SAP	1233	n/a	n/a	0	0.57763671875	0.412841796875	1	upper	zerothre.ttf
2007.436	n/a	WORD	1003718	wordpools/wasnorm_wordpool.txt	LTP092	ltpFR	0	10	1	HALL	677	n/a	n/a	0	0.57763671875	0.412841796875	1	upper	zerothre.ttf
2011.362	n/a	WORD	1005681	wordpools/wasnorm_wordpool.txt	LTP092	ltpFR	0	10	1	COWARD	394	n/a	n/a	1	0.57763671875	0.412841796875	1	upper	zerothre.ttf
2015.302	n/a	WORD	1007651	wordpools/wasnorm_wordpool.txt	LTP092	ltpFR	0	10	1	BOSS	152	n/a	n/a	1	0.57763671875	0.412841796875	1	upper	zerothre.ttf
2019.42	n/a	WORD	1009710	wordpools/wasnorm_wordpool.txt	LTP092	ltpFR	0	10	1	ROACH	1195	n/a	n/a	1	0.57763671875	0.412841796875	1	upper	zerothre.ttf
2023.528	n/a	WORD	1011764	wordpools/wasnorm_wordpool.txt	LTP092	ltpFR	0	10	1	DIRECTOR	471	n/a	n/a	1	0.57763671875	0.412841796875	1	upper	zerothre.ttf
2027.51	n/a	WORD	1013755	wordpools/wasnorm_wordpool.txt	LTP092	ltpFR	0	10	1	CORPORATION	382	n/a	n/a	1	0.57763671875	0.412841796875	1	upper	zerothre.ttf
2031.644	n/a	WORD	1015822	wordpools/wasnorm_wordpool.txt	LTP092	ltpFR	0	10	1	SHIP	1286	n/a	n/a	0	0.57763671875	0.412841796875	1	upper	zerothre.ttf
2035.668	n/a	WORD	1017834	wordpools/wasnorm_wordpool.txt	LTP092	ltpFR	0	10	1	CANOE	233	n/a	n/a	0	0.57763671875	0.412841796875	1	upper	zerothre.ttf
2039.486	n/a	WORD	1019743	wordpools/wasnorm_wordpool.txt	LTP092	ltpFR	0	10	1	GRASSHOPPER	656	n/a	n/a	1	0.57763671875	0.412841796875	1	upper	zerothre.ttf
2043.352	n/a	WORD	1021676	wordpools/wasnorm_wordpool.txt	LTP092	ltpFR	0	10	1	HANDCUFFS	685	n/a	n/a	0	0.57763671875	0.412841796875	1	upper	zerothre.ttf
2047.166	n/a	WORD	1023583	wordpools/wasnorm_wordpool.txt	LTP092	ltpFR	0	10	1	PAGE	1001	n/a	n/a	0	0.57763671875	0.412841796875	1	upper	zerothre.ttf
2051.302	n/a	WORD	1025651	wordpools/wasnorm_wordpool.txt	LTP092	ltpFR	0	10	1	PAD	998	n/a	n/a	0	0.57763671875	0.412841796875	1	upper	zerothre.ttf
2057.118	n/a	REC_START	1028559	n/a	LTP092	ltpFR	0	10	n/a	n/a	n/a	n/a	n/a	n/a	n/a	n/a	n/a	n/a	n/a
2058.744	n/a	REC_WORD	1029372	wordpools/wasnorm_wordpool.txt	LTP092	ltpFR	0	10	1	LUMBER	848	n/a	n/a	0	n/a	n/a	n/a	n/a	n/a
2060.748	n/a	REC_WORD	1030374	wordpools/wasnorm_wordpool.txt	LTP092	ltpFR	0	10	1	SKILLET	1317	n/a	n/a	0	n/a	n/a	n/a	n/a	n/a
2063.966	n/a	REC_WORD	1031983	wordpools/wasnorm_wordpool.txt	LTP092	ltpFR	0	10	1	CORPORATION	382	n/a	n/a	1	n/a	n/a	n/a	n/a	n/a
2065.364	n/a	REC_WORD	1032682	wordpools/wasnorm_wordpool.txt	LTP092	ltpFR	0	10	1	BOSS	152	n/a	n/a	1	n/a	n/a	n/a	n/a	n/a
2066.462	n/a	REC_WORD	1033231	wordpools/wasnorm_wordpool.txt	LTP092	ltpFR	0	10	1	DIRECTOR	471	n/a	n/a	1	n/a	n/a	n/a	n/a	n/a
2072.564	n/a	REC_WORD	1036282	wordpools/wasnorm_wordpool.txt	LTP092	ltpFR	0	10	1	SAP	1233	n/a	n/a	0	n/a	n/a	n/a	n/a	n/a
2078.394	n/a	REC_WORD	1039197	wordpools/wasnorm_wordpool.txt	LTP092	ltpFR	0	10	1	BOAT	144	n/a	n/a	1	n/a	n/a	n/a	n/a	n/a
2078.74	n/a	REC_WORD	1039370	wordpools/wasnorm_wordpool.txt	LTP092	ltpFR	0	10	1	CANOE	233	n/a	n/a	0	n/a	n/a	n/a	n/a	n/a
2082.052	n/a	REC_WORD	1041026	wordpools/wasnorm_wordpool.txt	LTP092	ltpFR	0	10	1	SHIP	1286	n/a	n/a	0	n/a	n/a	n/a	n/a	n/a
2083.608	n/a	REC_WORD_VV	1041804	wordpools/wasnorm_wordpool.txt	LTP092	ltpFR	0	10	n/a	<>	-1	n/a	n/a	n/a	n/a	n/a	n/a	n/a	n/a
2118.066	n/a	REC_WORD	1059033	wordpools/wasnorm_wordpool.txt	LTP092	ltpFR	0	10	1	GRASSHOPPER	656	n/a	n/a	1	n/a	n/a	n/a	n/a	n/a
2202.356	n/a	WORD	1101178	wordpools/wasnorm_wordpool.txt	LTP092	ltpFR	0	11	1	LAKE	796	n/a	n/a	0	0.57763671875	0.412841796875	1	upper	zerothre.ttf
2206.488	n/a	WORD	1103244	wordpools/wasnorm_wordpool.txt	LTP092	ltpFR	0	11	1	CART	250	n/a	n/a	0	0.57763671875	0.412841796875	1	upper	zerothre.ttf
2210.372	n/a	WORD	1105186	wordpools/wasnorm_wordpool.txt	LTP092	ltpFR	0	11	1	SKETCH	1315	n/a	n/a	0	0.57763671875	0.412841796875	1	upper	zerothre.ttf
2214.238	n/a	WORD	1107119	wordpools/wasnorm_wordpool.txt	LTP092	ltpFR	0	11	1	FAUCET	555	n/a	n/a	0	0.57763671875	0.412841796875	1	upper	zerothre.ttf
2218.272	n/a	WORD	1109136	wordpools/wasnorm_wordpool.txt	LTP092	ltpFR	0	11	1	BLACKBOARD	133	n/a	n/a	0	0.57763671875	0.412841796875	1	upper	zerothre.ttf
2222.446	n/a	WORD	1111223	wordpools/wasnorm_wordpool.txt	LTP092	ltpFR	0	11	1	MANAGER	863	n/a	n/a	1	0.57763671875	0.412841796875	1	upper	zerothre.ttf
2226.438	n/a	WORD	1113219	wordpools/wasnorm_wordpool.txt	LTP092	ltpFR	0	11	1	SKATE	1313	n/a	n/a	0	0.57763671875	0.412841796875	1	upper	zerothre.ttf
2230.398	n/a	WORD	1115199	wordpools/wasnorm_wordpool.txt	LTP092	ltpFR	0	11	1	HORSE	719	n/a	n/a	1	0.57763671875	0.412841796875	1	upper	zerothre.ttf
2234.272	n/a	WORD	1117136	wordpools/wasnorm_wordpool.txt	LTP092	ltpFR	0	11	1	FAIRY	549	n/a	n/a	1	0.57763671875	0.412841796875	1	upper	zerothre.ttf
2238.262	n/a	WORD	1119131	wordpools/wasnorm_wordpool.txt	LTP092	ltpFR	0	11	1	REFRIGERATOR	1179	n/a	n/a	0	0.57763671875	0.412841796875	1	upper	zerothre.ttf
2242.272	n/a	WORD	1121136	wordpools/wasnorm_wordpool.txt	LTP092	ltpFR	0	11	1	TURKEY	1520	n/a	n/a	1	0.57763671875	0.412841796875	1	upper	zerothre.ttf
2246.412	n/a	WORD	1123206	wordpools/wasnorm_wordpool.txt	LTP092	ltpFR	0	11	1	COMMITTEE	355	n/a	n/a	0	0.57763671875	0.412841796875	1	upper	zerothre.ttf
2250.464	n/a	WORD	1125232	wordpools/wasnorm_wordpool.txt	LTP092	ltpFR	0	11	1	TAIL	1430	n/a	n/a	0	0.57763671875	0.412841796875	1	upper	zerothre.ttf
2254.296	n/a	WORD	1127148	wordpools/wasnorm_wordpool.txt	LTP092	ltpFR	0	11	1	ANTEATER	26	n/a	n/a	1	0.57763671875	0.412841796875	1	upper	zerothre.ttf
2258.28	n/a	WORD	1129140	wordpools/wasnorm_wordpool.txt	LTP092	ltpFR	0	11	1	MOTHER	921	n/a	n/a	1	0.57763671875	0.412841796875	1	upper	zerothre.ttf
2262.244	n/a	WORD	1131122	wordpools/wasnorm_wordpool.txt	LTP092	ltpFR	0	11	1	DAD	433	n/a	n/a	1	0.57763671875	0.412841796875	1	upper	zerothre.ttf
2268.104	n/a	REC_START	1134052	n/a	LTP092	ltpFR	0	11	n/a	n/a	n/a	n/a	n/a	n/a	n/a	n/a	n/a	n/a	n/a
2269.946	n/a	REC_WORD	1134973	wordpools/wasnorm_wordpool.txt	LTP092	ltpFR	0	11	1	LAKE	796	n/a	n/a	0	n/a	n/a	n/a	n/a	n/a
2271.156	n/a	REC_WORD	1135578	wordpools/wasnorm_wordpool.txt	LTP092	ltpFR	0	11	1	SKETCH	1315	n/a	n/a	0	n/a	n/a	n/a	n/a	n/a
2272.55	n/a	REC_WORD	1136275	wordpools/wasnorm_wordpool.txt	LTP092	ltpFR	0	11	1	HORSE	719	n/a	n/a	1	n/a	n/a	n/a	n/a	n/a
2273.626	n/a	REC_WORD	1136813	wordpools/wasnorm_wordpool.txt	LTP092	ltpFR	0	11	1	TAIL	1430	n/a	n/a	0	n/a	n/a	n/a	n/a	n/a
2274.964	n/a	REC_WORD	1137482	wordpools/wasnorm_wordpool.txt	LTP092	ltpFR	0	11	1	ANTEATER	26	n/a	n/a	1	n/a	n/a	n/a	n/a	n/a
2276.546	n/a	REC_WORD	1138273	wordpools/wasnorm_wordpool.txt	LTP092	ltpFR	0	11	1	COMMITTEE	355	n/a	n/a	0	n/a	n/a	n/a	n/a	n/a
2277.842	n/a	REC_WORD	1138921	wordpools/wasnorm_wordpool.txt	LTP092	ltpFR	0	11	1	MOTHER	921	n/a	n/a	1	n/a	n/a	n/a	n/a	n/a
2279.892	n/a	REC_WORD	1139946	wordpools/wasnorm_wordpool.txt	LTP092	ltpFR	0	11	1	DAD	433	n/a	n/a	1	n/a	n/a	n/a	n/a	n/a
2282.002	n/a	REC_WORD	1141001	wordpools/wasnorm_wordpool.txt	LTP092	ltpFR	0	11	1	FAUCET	555	n/a	n/a	0	n/a	n/a	n/a	n/a	n/a
2284.766	n/a	REC_WORD	1142383	wordpools/wasnorm_wordpool.txt	LTP092	ltpFR	0	11	1	REFRIGERATOR	1179	n/a	n/a	0	n/a	n/a	n/a	n/a	n/a
2293.672	n/a	REC_WORD	1146836	wordpools/wasnorm_wordpool.txt	LTP092	ltpFR	0	11	-1	DRIVER	499	n/a	n/a	-1	n/a	n/a	n/a	n/a	n/a
2297.358	n/a	REC_WORD	1148679	wordpools/wasnorm_wordpool.txt	LTP092	ltpFR	0	11	-1	DRIVER	499	n/a	n/a	-1	n/a	n/a	n/a	n/a	n/a
2348.844	n/a	WORD	1174422	wordpools/wasnorm_wordpool.txt	LTP092	ltpFR	0	12	1	INCENSE	735	n/a	n/a	0	0.57763671875	0.412841796875	1	upper	zerothre.ttf
2352.81	n/a	WORD	1176405	wordpools/wasnorm_wordpool.txt	LTP092	ltpFR	0	12	1	MAGNET	855	n/a	n/a	0	0.57763671875	0.412841796875	1	upper	zerothre.ttf
2356.768	n/a	WORD	1178384	wordpools/wasnorm_wordpool.txt	LTP092	ltpFR	0	12	1	GRIZZLY	662	n/a	n/a	0	0.57763671875	0.412841796875	1	upper	zerothre.ttf
2360.776	n/a	WORD	1180388	wordpools/wasnorm_wordpool.txt	LTP092	ltpFR	0	12	1	CHIMNEY	301	n/a	n/a	0	0.57763671875	0.412841796875	1	upper	zerothre.ttf
2364.626	n/a	WORD	1182313	wordpools/wasnorm_wordpool.txt	LTP092	ltpFR	0	12	1	CATHEDRAL	260	n/a	n/a	0	0.57763671875	0.412841796875	1	upper	zerothre.ttf
2368.728	n/a	WORD	1184364	wordpools/wasnorm_wordpool.txt	LTP092	ltpFR	0	12	1	DIAGRAM	456	n/a	n/a	0	0.57763671875	0.412841796875	1	upper	zerothre.ttf
2372.686	n/a	WORD	1186343	wordpools/wasnorm_wordpool.txt	LTP092	ltpFR	0	12	1	SCENERY	1247	n/a	n/a	1	0.57763671875	0.412841796875	1	upper	zerothre.ttf
2376.568	n/a	WORD	1188284	wordpools/wasnorm_wordpool.txt	LTP092	ltpFR	0	12	1	POSSUM	1112	n/a	n/a	1	0.57763671875	0.412841796875	1	upper	zerothre.ttf
2380.584	n/a	WORD	1190292	wordpools/wasnorm_wordpool.txt	LTP092	ltpFR	0	12	1	ANIMAL	23	n/a	n/a	1	0.57763671875	0.412841796875	1	upper	zerothre.ttf
2384.75	n/a	WORD	1192375	wordpools/wasnorm_wordpool.txt	LTP092	ltpFR	0	12	1	SCREWDRIVER	1255	n/a	n/a	0	0.57763671875	0.412841796875	1	upper	zerothre.ttf
2388.86	n/a	WORD	1194430	wordpools/wasnorm_wordpool.txt	LTP092	ltpFR	0	12	1	CROSS	413	n/a	n/a	0	0.57763671875	0.412841796875	1	upper	zerothre.ttf
2392.818	n/a	WORD	1196409	wordpools/wasnorm_wordpool.txt	LTP092	ltpFR	0	12	1	PITCHFORK	1078	n/a	n/a	0	0.57763671875	0.412841796875	1	upper	zerothre.ttf
2396.842	n/a	WORD	1198421	wordpools/wasnorm_wordpool.txt	LTP092	ltpFR	0	12	1	BEAVER	109	n/a	n/a	1	0.57763671875	0.412841796875	1	upper	zerothre.ttf
2400.776	n/a	WORD	1200388	wordpools/wasnorm_wordpool.txt	LTP092	ltpFR	0	12	1	CAMEL	223	n/a	n/a	1	0.57763671875	0.412841796875	1	upper	zerothre.ttf
2404.868	n/a	WORD	1202434	wordpools/wasnorm_wordpool.txt	LTP092	ltpFR	0	12	1	SALOON	1228	n/a	n/a	0	0.57763671875	0.412841796875	1	upper	zerothre.ttf
2408.826	n/a	WORD	1204413	wordpools/wasnorm_wordpool.txt	LTP092	ltpFR	0	12	1	CATTLE	261	n/a	n/a	1	0.57763671875	0.412841796875	1	upper	zerothre.ttf
2414.518	n/a	REC_START	1207259	n/a	LTP092	ltpFR	0	12	n/a	n/a	n/a	n/a	n/a	n/a	n/a	n/a	n/a	n/a	n/a
2415.81	n/a	REC_WORD	1207905	wordpools/wasnorm_wordpool.txt	LTP092	ltpFR	0	12	1	ANIMAL	23	n/a	n/a	1	n/a	n/a	n/a	n/a	n/a
2416.514	n/a	REC_WORD	1208257	wordpools/wasnorm_wordpool.txt	LTP092	ltpFR	0	12	1	GRIZZLY	662	n/a	n/a	0	n/a	n/a	n/a	n/a	n/a
2418.14	n/a	REC_WORD	1209070	wordpools/wasnorm_wordpool.txt	LTP092	ltpFR	0	12	1	CATTLE	261	n/a	n/a	1	n/a	n/a	n/a	n/a	n/a
2421.536	n/a	REC_WORD_VV	1210768	wordpools/wasnorm_wordpool.txt	LTP092	ltpFR	0	12	n/a	<>	-1	n/a	n/a	n/a	n/a	n/a	n/a	n/a	n/a
2422.26	n/a	REC_WORD	1211130	wordpools/wasnorm_wordpool.txt	LTP092	ltpFR	0	12	1	BEAVER	109	n/a	n/a	1	n/a	n/a	n/a	n/a	n/a
2423.646	n/a	REC_WORD	1211823	wordpools/wasnorm_wordpool.txt	LTP092	ltpFR	0	12	1	CATHEDRAL	260	n/a	n/a	0	n/a	n/a	n/a	n/a	n/a
2426.53	n/a	REC_WORD	1213265	wordpools/wasnorm_wordpool.txt	LTP092	ltpFR	0	12	1	CHIMNEY	301	n/a	n/a	0	n/a	n/a	n/a	n/a	n/a
2429.18	n/a	REC_WORD	1214590	wordpools/wasnorm_wordpool.txt	LTP092	ltpFR	0	12	1	SCREWDRIVER	1255	n/a	n/a	0	n/a	n/a	n/a	n/a	n/a
2434.198	n/a	REC_WORD	1217099	wordpools/wasnorm_wordpool.txt	LTP092	ltpFR	0	12	1	SCENERY	1247	n/a	n/a	1	n/a	n/a	n/a	n/a	n/a
2442.006	n/a	REC_WORD	1221003	wordpools/wasnorm_wordpool.txt	LTP092	ltpFR	0	12	1	MAGNET	855	n/a	n/a	0	n/a	n/a	n/a	n/a	n/a
2490.114	n/a	REST_REWET	1245057	n/a	LTP092	ltpFR	0	12	n/a	n/a	n/a	n/a	n/a	n/a	n/a	n/a	n/a	n/a	n/a
3042.984	n/a	WORD	1521492	wordpools/wasnorm_wordpool.txt	LTP092	ltpFR	0	13	1	BEAST	108	n/a	n/a	1	0.57763671875	0.412841796875	1	upper	zerothre.ttf
3046.902	n/a	WORD	1523451	wordpools/wasnorm_wordpool.txt	LTP092	ltpFR	0	13	1	INSECT	740	n/a	n/a	1	0.57763671875	0.412841796875	1	upper	zerothre.ttf
3051.05	n/a	WORD	1525525	wordpools/wasnorm_wordpool.txt	LTP092	ltpFR	0	13	0	BUN	197	n/a	n/a	0	0.422607421875	0.5869140625	0	lower	amplitud.ttf
3055.1	n/a	WORD	1527550	wordpools/wasnorm_wordpool.txt	LTP092	ltpFR	0	13	0	SEAL	1262	n/a	n/a	1	0.422607421875	0.5869140625	0	lower	amplitud.ttf
3059.25	n/a	WORD	1529625	wordpools/wasnorm_wordpool.txt	LTP092	ltpFR	0	13	0	FARMER	553	n/a	n/a	1	0.422607421875	0.5869140625	0	lower	amplitud.ttf
3063.174	n/a	WORD	1531587	wordpools/wasnorm_wordpool.txt	LTP092	ltpFR	0	13	0	GOBLIN	645	n/a	n/a	1	0.422607421875	0.5869140625	0	lower	amplitud.ttf
3067.0	n/a	WORD	1533500	wordpools/wasnorm_wordpool.txt	LTP092	ltpFR	0	13	1	MONSTER	912	n/a	n/a	1	0.57763671875	0.412841796875	1	upper	zerothre.ttf
3071.05	n/a	WORD	1535525	wordpools/wasnorm_wordpool.txt	LTP092	ltpFR	0	13	1	WALL	1582	n/a	n/a	1	0.57763671875	0.412841796875	1	upper	zerothre.ttf
3075.092	n/a	WORD	1537546	wordpools/wasnorm_wordpool.txt	LTP092	ltpFR	0	13	0	ALBUM	14	n/a	n/a	0	0.422607421875	0.5869140625	0	lower	amplitud.ttf
3078.984	n/a	WORD	1539492	wordpools/wasnorm_wordpool.txt	LTP092	ltpFR	0	13	0	SCROLL	1257	n/a	n/a	0	0.422607421875	0.5869140625	0	lower	amplitud.ttf
3083.024	n/a	WORD	1541512	wordpools/wasnorm_wordpool.txt	LTP092	ltpFR	0	13	0	DIAL	457	n/a	n/a	0	0.422607421875	0.5869140625	0	lower	amplitud.ttf
3087.166	n/a	WORD	1543583	wordpools/wasnorm_wordpool.txt	LTP092	ltpFR	0	13	0	MOTH	920	n/a	n/a	0	0.422607421875	0.5869140625	0	lower	amplitud.ttf
3091.25	n/a	WORD	1545625	wordpools/wasnorm_wordpool.txt	LTP092	ltpFR	0	13	1	VET	1560	n/a	n/a	1	0.57763671875	0.412841796875	1	upper	zerothre.ttf
3095.334	n/a	WORD	1547667	wordpools/wasnorm_wordpool.txt	LTP092	ltpFR	0	13	1	WAIST	1579	n/a	n/a	0	0.57763671875	0.412841796875	1	upper	zerothre.ttf
3099.206	n/a	WORD	1549603	wordpools/wasnorm_wordpool.txt	LTP092	ltpFR	0	13	1	BUCKLE	185	n/a	n/a	0	0.57763671875	0.412841796875	1	upper	zerothre.ttf
3103.156	n/a	WORD	1551578	wordpools/wasnorm_wordpool.txt	LTP092	ltpFR	0	13	1	CHAIN	273	n/a	n/a	0	0.57763671875	0.412841796875	1	upper	zerothre.ttf
3109.092	n/a	REC_START	1554546	n/a	LTP092	ltpFR	0	13	n/a	n/a	n/a	n/a	n/a	n/a	n/a	n/a	n/a	n/a	n/a
3110.06	n/a	REC_WORD	1555030	wordpools/wasnorm_wordpool.txt	LTP092	ltpFR	0	13	1	CHAIN	273	n/a	n/a	0	n/a	n/a	n/a	n/a	n/a
3111.246	n/a	REC_WORD	1555623	wordpools/wasnorm_wordpool.txt	LTP092	ltpFR	0	13	1	BEAST	108	n/a	n/a	1	n/a	n/a	n/a	n/a	n/a
3113.092	n/a	REC_WORD	1556546	wordpools/wasnorm_wordpool.txt	LTP092	ltpFR	0	13	1	INSECT	740	n/a	n/a	1	n/a	n/a	n/a	n/a	n/a
3113.95	n/a	REC_WORD	1556975	wordpools/wasnorm_wordpool.txt	LTP092	ltpFR	0	13	1	MONSTER	912	n/a	n/a	1	n/a	n/a	n/a	n/a	n/a
3115.078	n/a	REC_WORD	1557539	wordpools/wasnorm_wordpool.txt	LTP092	ltpFR	0	13	0	SEAL	1262	n/a	n/a	1	n/a	n/a	n/a	n/a	n/a
3116.998	n/a	REC_WORD	1558499	wordpools/wasnorm_wordpool.txt	LTP092	ltpFR	0	13	0	FARMER	553	n/a	n/a	1	n/a	n/a	n/a	n/a	n/a
3119.622	n/a	REC_WORD	1559811	wordpools/wasnorm_wordpool.txt	LTP092	ltpFR	0	13	0	SCROLL	1257	n/a	n/a	0	n/a	n/a	n/a	n/a	n/a
3129.456	n/a	REC_WORD	1564728	wordpools/wasnorm_wordpool.txt	LTP092	ltpFR	0	13	1	WAIST	1579	n/a	n/a	0	n/a	n/a	n/a	n/a	n/a
3148.484	n/a	REC_WORD	1574242	wordpools/wasnorm_wordpool.txt	LTP092	ltpFR	0	13	1	VET	1560	n/a	n/a	1	n/a	n/a	n/a	n/a	n/a
3155.652	n/a	REC_WORD	1577826	wordpools/wasnorm_wordpool.txt	LTP092	ltpFR	0	13	0	BUN	197	n/a	n/a	0	n/a	n/a	n/a	n/a	n/a
3182.846	n/a	REC_WORD	1591423	wordpools/wasnorm_wordpool.txt	LTP092	ltpFR	0	13	0	MOTH	920	n/a	n/a	0	n/a	n/a	n/a	n/a	n/a
3199.496	n/a	WORD	1599748	wordpools/wasnorm_wordpool.txt	LTP092	ltpFR	0	14	0	KNEE	784	n/a	n/a	0	0.422607421875	0.5869140625	0	lower	amplitud.ttf
3203.614	n/a	WORD	1601807	wordpools/wasnorm_wordpool.txt	LTP092	ltpFR	0	14	0	TUB	1514	n/a	n/a	1	0.422607421875	0.5869140625	0	lower	amplitud.ttf
3207.638	n/a	WORD	1603819	wordpools/wasnorm_wordpool.txt	LTP092	ltpFR	0	14	1	CREEK	404	n/a	n/a	0	0.57763671875	0.412841796875	1	upper	zerothre.ttf
3211.514	n/a	WORD	1605757	wordpools/wasnorm_wordpool.txt	LTP092	ltpFR	0	14	1	RADISH	1158	n/a	n/a	1	0.57763671875	0.412841796875	1	upper	zerothre.ttf
3215.68	n/a	WORD	1607840	wordpools/wasnorm_wordpool.txt	LTP092	ltpFR	0	14	1	SANDWICH	1232	n/a	n/a	0	0.57763671875	0.412841796875	1	upper	zerothre.ttf
3219.704	n/a	WORD	1609852	wordpools/wasnorm_wordpool.txt	LTP092	ltpFR	0	14	1	APPENDAGE	32	n/a	n/a	1	0.57763671875	0.412841796875	1	upper	zerothre.ttf
3223.546	n/a	WORD	1611773	wordpools/wasnorm_wordpool.txt	LTP092	ltpFR	0	14	0	SURGEON	1413	n/a	n/a	1	0.422607421875	0.5869140625	0	lower	amplitud.ttf
3227.622	n/a	WORD	1613811	wordpools/wasnorm_wordpool.txt	LTP092	ltpFR	0	14	0	HOSPITAL	721	n/a	n/a	1	0.422607421875	0.5869140625	0	lower	amplitud.ttf
3231.53	n/a	WORD	1615765	wordpools/wasnorm_wordpool.txt	LTP092	ltpFR	0	14	1	VILLAGE	1566	n/a	n/a	0	0.57763671875	0.412841796875	1	upper	zerothre.ttf
3235.654	n/a	WORD	1617827	wordpools/wasnorm_wordpool.txt	LTP092	ltpFR	0	14	1	OCEAN	970	n/a	n/a	1	0.57763671875	0.412841796875	1	upper	zerothre.ttf
3239.57	n/a	WORD	1619785	wordpools/wasnorm_wordpool.txt	LTP092	ltpFR	0	14	1	BUILDER	190	n/a	n/a	1	0.57763671875	0.412841796875	1	upper	zerothre.ttf
3243.488	n/a	WORD	1621744	wordpools/wasnorm_wordpool.txt	LTP092	ltpFR	0	14	1	BROOK	177	n/a	n/a	0	0.57763671875	0.412841796875	1	upper	zerothre.ttf
3247.338	n/a	WORD	1623669	wordpools/wasnorm_wordpool.txt	LTP092	ltpFR	0	14	0	SISTER	1312	n/a	n/a	1	0.422607421875	0.5869140625	0	lower	amplitud.ttf
3251.496	n/a	WORD	1625748	wordpools/wasnorm_wordpool.txt	LTP092	ltpFR	0	14	0	DORM	488	n/a	n/a	1	0.422607421875	0.5869140625	0	lower	amplitud.ttf
3255.52	n/a	WORD	1627760	wordpools/wasnorm_wordpool.txt	LTP092	ltpFR	0	14	0	PASSAGE	1019	n/a	n/a	1	0.422607421875	0.5869140625	0	lower	amplitud.ttf
3259.57	n/a	WORD	1629785	wordpools/wasnorm_wordpool.txt	LTP092	ltpFR	0	14	0	SHELL	1281	n/a	n/a	0	0.422607421875	0.5869140625	0	lower	amplitud.ttf
3265.646	n/a	REC_START	1632823	n/a	LTP092	ltpFR	0	14	n/a	n/a	n/a	n/a	n/a	n/a	n/a	n/a	n/a	n/a	n/a
3267.018	n/a	REC_WORD	1633509	wordpools/wasnorm_wordpool.txt	LTP092	ltpFR	0	14	0	KNEE	784	n/a	n/a	0	n/a	n/a	n/a	n/a	n/a
3267.926	n/a	REC_WORD	1633963	wordpools/wasnorm_wordpool.txt	LTP092	ltpFR	0	14	1	APPENDAGE	32	n/a	n/a	1	n/a	n/a	n/a	n/a	n/a
3269.462	n/a	REC_WORD	1634731	wordpools/wasnorm_wordpool.txt	LTP092	ltpFR	0	14	0	TUB	1514	n/a	n/a	1	n/a	n/a	n/a	n/a	n/a
3270.46	n/a	REC_WORD	1635230	wordpools/wasnorm_wordpool.txt	LTP092	ltpFR	0	14	0	SURGEON	1413	n/a	n/a	1	n/a	n/a	n/a	n/a	n/a
3272.056	n/a	REC_WORD	1636028	wordpools/wasnorm_wordpool.txt	LTP092	ltpFR	0	14	0	HOSPITAL	721	n/a	n/a	1	n/a	n/a	n/a	n/a	n/a
3272.958	n/a	REC_WORD	1636479	wordpools/wasnorm_wordpool.txt	LTP092	ltpFR	0	14	1	CREEK	404	n/a	n/a	0	n/a	n/a	n/a	n/a	n/a
3273.778	n/a	REC_WORD	1636889	wordpools/wasnorm_wordpool.txt	LTP092	ltpFR	0	14	0	STREAM	1392	n/a	n/a	1	n/a	n/a	n/a	n/a	n/a
3276.856	n/a	REC_WORD	1638428	wordpools/wasnorm_wordpool.txt	LTP092	ltpFR	0	14	1	OCEAN	970	n/a	n/a	1	n/a	n/a	n/a	n/a	n/a
3290.716	n/a	REC_WORD	1645358	wordpools/wasnorm_wordpool.txt	LTP092	ltpFR	0	14	1	SANDWICH	1232	n/a	n/a	0	n/a	n/a	n/a	n/a	n/a
3302.28	n/a	REC_WORD	1651140	wordpools/wasnorm_wordpool.txt	LTP092	ltpFR	0	14	0	SISTER	1312	n/a	n/a	1	n/a	n/a	n/a	n/a	n/a
3302.818	n/a	REC_WORD	1651409	wordpools/wasnorm_wordpool.txt	LTP092	ltpFR	0	14	0	DORM	488	n/a	n/a	1	n/a	n/a	n/a	n/a	n/a
3350.976	n/a	WORD	1675488	wordpools/wasnorm_wordpool.txt	LTP092	ltpFR	0	15	0	SUIT	1402	n/a	n/a	1	0.422607421875	0.5869140625	0	lower	amplitud.ttf
3354.91	n/a	WORD	1677455	wordpools/wasnorm_wordpool.txt	LTP092	ltpFR	0	15	0	CINNAMON	310	n/a	n/a	0	0.422607421875	0.5869140625	0	lower	amplitud.ttf
3358.826	n/a	WORD	1679413	wordpools/wasnorm_wordpool.txt	LTP092	ltpFR	0	15	0	SNORKEL	1336	n/a	n/a	0	0.422607421875	0.5869140625	0	lower	amplitud.ttf
3362.8	n/a	WORD	1681400	wordpools/wasnorm_wordpool.txt	LTP092	ltpFR	0	15	1	SCHOOL	1248	n/a	n/a	0	0.57763671875	0.412841796875	1	upper	zerothre.ttf
3366.844	n/a	WORD	1683422	wordpools/wasnorm_wordpool.txt	LTP092	ltpFR	0	15	1	REPORT	1184	n/a	n/a	0	0.57763671875	0.412841796875	1	upper	zerothre.ttf
3370.884	n/a	WORD	1685442	wordpools/wasnorm_wordpool.txt	LTP092	ltpFR	0	15	1	GENTLEMAN	631	n/a	n/a	1	0.57763671875	0.412841796875	1	upper	zerothre.ttf
3375.042	n/a	WORD	1687521	wordpools/wasnorm_wordpool.txt	LTP092	ltpFR	0	15	1	JOURNAL	760	n/a	n/a	0	0.57763671875	0.412841796875	1	upper	zerothre.ttf
3378.984	n/a	WORD	1689492	wordpools/wasnorm_wordpool.txt	LTP092	ltpFR	0	15	0	MAN	862	n/a	n/a	1	0.422607421875	0.5869140625	0	lower	amplitud.ttf
3383.024	n/a	WORD	1691512	wordpools/wasnorm_wordpool.txt	LTP092	ltpFR	0	15	0	WOMAN	1620	n/a	n/a	1	0.422607421875	0.5869140625	0	lower	amplitud.ttf
3386.868	n/a	WORD	1693434	wordpools/wasnorm_wordpool.txt	LTP092	ltpFR	0	15	0	BUCKET	184	n/a	n/a	1	0.422607421875	0.5869140625	0	lower	amplitud.ttf
3390.684	n/a	WORD	1695342	wordpools/wasnorm_wordpool.txt	LTP092	ltpFR	0	15	0	CROWN	415	n/a	n/a	0	0.422607421875	0.5869140625	0	lower	amplitud.ttf
3394.826	n/a	WORD	1697413	wordpools/wasnorm_wordpool.txt	LTP092	ltpFR	0	15	0	KITTEN	780	n/a	n/a	0	0.422607421875	0.5869140625	0	lower	amplitud.ttf
3398.692	n/a	WORD	1699346	wordpools/wasnorm_wordpool.txt	LTP092	ltpFR	0	15	1	MOUSE	925	n/a	n/a	1	0.57763671875	0.412841796875	1	upper	zerothre.ttf
3402.608	n/a	WORD	1701304	wordpools/wasnorm_wordpool.txt	LTP092	ltpFR	0	15	1	POET	1095	n/a	n/a	1	0.57763671875	0.412841796875	1	upper	zerothre.ttf
3406.768	n/a	WORD	1703384	wordpools/wasnorm_wordpool.txt	LTP092	ltpFR	0	15	1	COW	393	n/a	n/a	1	0.57763671875	0.412841796875	1	upper	zerothre.ttf
3410.966	n/a	WORD	1705483	wordpools/wasnorm_wordpool.txt	LTP092	ltpFR	0	15	1	OUTFIT	988	n/a	n/a	0	0.57763671875	0.412841796875	1	upper	zerothre.ttf
3416.992	n/a	REC_START	1708496	n/a	LTP092	ltpFR	0	15	n/a	n/a	n/a	n/a	n/a	n/a	n/a	n/a	n/a	n/a	n/a
3418.328	n/a	REC_WORD	1709164	wordpools/wasnorm_wordpool.txt	LTP092	ltpFR	0	15	0	MAN	862	n/a	n/a	1	n/a	n/a	n/a	n/a	n/a
3418.848	n/a	REC_WORD	1709424	wordpools/wasnorm_wordpool.txt	LTP092	ltpFR	0	15	0	WOMAN	1620	n/a	n/a	1	n/a	n/a	n/a	n/a	n/a
3419.39	n/a	REC_WORD	1709695	wordpools/wasnorm_wordpool.txt	LTP092	ltpFR	0	15	1	SCHOOL	1248	n/a	n/a	0	n/a	n/a	n/a	n/a	n/a
3420.338	n/a	REC_WORD	1710169	wordpools/wasnorm_wordpool.txt	LTP092	ltpFR	0	15	1	REPORT	1184	n/a	n/a	0	n/a	n/a	n/a	n/a	n/a
3421.856	n/a	REC_WORD	1710928	wordpools/wasnorm_wordpool.txt	LTP092	ltpFR	0	15	1	OUTFIT	988	n/a	n/a	0	n/a	n/a	n/a	n/a	n/a
3427.304	n/a	REC_WORD	1713652	wordpools/wasnorm_wordpool.txt	LTP092	ltpFR	0	15	1	GENTLEMAN	631	n/a	n/a	1	n/a	n/a	n/a	n/a	n/a
3431.614	n/a	REC_WORD	1715807	wordpools/wasnorm_wordpool.txt	LTP092	ltpFR	0	15	0	SUIT	1402	n/a	n/a	1	n/a	n/a	n/a	n/a	n/a
3436.892	n/a	REC_WORD	1718446	wordpools/wasnorm_wordpool.txt	LTP092	ltpFR	0	15	1	MOUSE	925	n/a	n/a	1	n/a	n/a	n/a	n/a	n/a
3438.438	n/a	REC_WORD	1719219	wordpools/wasnorm_wordpool.txt	LTP092	ltpFR	0	15	0	KITTEN	780	n/a	n/a	0	n/a	n/a	n/a	n/a	n/a
3501.43	n/a	WORD	1750715	wordpools/wasnorm_wordpool.txt	LTP092	ltpFR	0	16	1	DOUGHNUT	490	n/a	n/a	0	0.57763671875	0.412841796875	1	upper	zerothre.ttf
3505.614	n/a	WORD	1752807	wordpools/wasnorm_wordpool.txt	LTP092	ltpFR	0	16	1	YOUTH	1634	n/a	n/a	1	0.57763671875	0.412841796875	1	upper	zerothre.ttf
3509.614	n/a	WORD	1754807	wordpools/wasnorm_wordpool.txt	LTP092	ltpFR	0	16	1	SCALLOP	1242	n/a	n/a	0	0.57763671875	0.412841796875	1	upper	zerothre.ttf
3513.606	n/a	WORD	1756803	wordpools/wasnorm_wordpool.txt	LTP092	ltpFR	0	16	1	GALLON	618	n/a	n/a	0	0.57763671875	0.412841796875	1	upper	zerothre.ttf
3517.538	n/a	WORD	1758769	wordpools/wasnorm_wordpool.txt	LTP092	ltpFR	0	16	1	GUN	673	n/a	n/a	0	0.57763671875	0.412841796875	1	upper	zerothre.ttf
3521.388	n/a	WORD	1760694	wordpools/wasnorm_wordpool.txt	LTP092	ltpFR	0	16	1	CRAB	397	n/a	n/a	1	0.57763671875	0.412841796875	1	upper	zerothre.ttf
3525.398	n/a	WORD	1762699	wordpools/wasnorm_wordpool.txt	LTP092	ltpFR	0	16	0	AGENT	10	n/a	n/a	1	0.422607421875	0.5869140625	0	lower	amplitud.ttf
3529.538	n/a	WORD	1764769	wordpools/wasnorm_wordpool.txt	LTP092	ltpFR	0	16	0	GROUND	666	n/a	n/a	1	0.422607421875	0.5869140625	0	lower	amplitud.ttf
3533.438	n/a	WORD	1766719	wordpools/wasnorm_wordpool.txt	LTP092	ltpFR	0	16	1	CUCUMBER	421	n/a	n/a	1	0.57763671875	0.412841796875	1	upper	zerothre.ttf
3537.606	n/a	WORD	1768803	wordpools/wasnorm_wordpool.txt	LTP092	ltpFR	0	16	1	PLANE	1081	n/a	n/a	0	0.57763671875	0.412841796875	1	upper	zerothre.ttf
3541.812	n/a	WORD	1770906	wordpools/wasnorm_wordpool.txt	LTP092	ltpFR	0	16	0	STEWARDESS	1381	n/a	n/a	1	0.422607421875	0.5869140625	0	lower	amplitud.ttf
3545.888	n/a	WORD	1772944	wordpools/wasnorm_wordpool.txt	LTP092	ltpFR	0	16	0	OLIVE	975	n/a	n/a	3	0.422607421875	0.5869140625	0	lower	amplitud.ttf
3548.054	n/a	KEY_MSG	1774027	n/a	LTP092	ltpFR	0	16	n/a	n/a	n/a	n/a	n/a	n/a	n/a	n/a	n/a	n/a	n/a
3550.38	n/a	WORD	1775190	wordpools/wasnorm_wordpool.txt	LTP092	ltpFR	0	16	0	HERB	704	n/a	n/a	0	0.422607421875	0.5869140625	0	lower	amplitud.ttf
3554.43	n/a	WORD	1777215	wordpools/wasnorm_wordpool.txt	LTP092	ltpFR	0	16	0	PARSLEY	1016	n/a	n/a	0	0.422607421875	0.5869140625	0	lower	amplitud.ttf
3558.454	n/a	WORD	1779227	wordpools/wasnorm_wordpool.txt	LTP092	ltpFR	0	16	0	CARDINAL	244	n/a	n/a	1	0.422607421875	0.5869140625	0	lower	amplitud.ttf
3562.488	n/a	WORD	1781244	wordpools/wasnorm_wordpool.txt	LTP092	ltpFR	0	16	0	SWATTER	1418	n/a	n/a	0	0.422607421875	0.5869140625	0	lower	amplitud.ttf
3568.246	n/a	REC_START	1784123	n/a	LTP092	ltpFR	0	16	n/a	n/a	n/a	n/a	n/a	n/a	n/a	n/a	n/a	n/a	n/a
3569.208	n/a	REC_WORD	1784604	wordpools/wasnorm_wordpool.txt	LTP092	ltpFR	0	16	0	SWATTER	1418	n/a	n/a	0	n/a	n/a	n/a	n/a	n/a
3570.396	n/a	REC_WORD	1785198	wordpools/wasnorm_wordpool.txt	LTP092	ltpFR	0	16	1	YOUTH	1634	n/a	n/a	1	n/a	n/a	n/a	n/a	n/a
3571.354	n/a	REC_WORD	1785677	wordpools/wasnorm_wordpool.txt	LTP092	ltpFR	0	16	1	PLANE	1081	n/a	n/a	0	n/a	n/a	n/a	n/a	n/a
3572.148	n/a	REC_WORD	1786074	wordpools/wasnorm_wordpool.txt	LTP092	ltpFR	0	16	0	STEWARDESS	1381	n/a	n/a	1	n/a	n/a	n/a	n/a	n/a
3574.696	n/a	REC_WORD	1787348	wordpools/wasnorm_wordpool.txt	LTP092	ltpFR	0	16	1	SCALLOP	1242	n/a	n/a	0	n/a	n/a	n/a	n/a	n/a
3577.092	n/a	REC_WORD	1788546	wordpools/wasnorm_wordpool.txt	LTP092	ltpFR	0	16	1	CUCUMBER	421	n/a	n/a	1	n/a	n/a	n/a	n/a	n/a
3589.4	n/a	REC_WORD	1794700	wordpools/wasnorm_wordpool.txt	LTP092	ltpFR	0	16	0	GROUND	666	n/a	n/a	1	n/a	n/a	n/a	n/a	n/a
3598.08	n/a	REC_WORD	1799040	wordpools/wasnorm_wordpool.txt	LTP092	ltpFR	0	16	0	CARDINAL	244	n/a	n/a	1	n/a	n/a	n/a	n/a	n/a
3693.976	n/a	REC_START	1846988	n/a	LTP092	ltpFR	0	n/a	n/a	n/a	n/a	n/a	n/a	n/a	n/a	n/a	n/a	n/a	n/a
3696.91	n/a	FFR_REC_WORD	1848455	wordpools/wasnorm_wordpool.txt	LTP092	ltpFR	0	n/a	0	COACH	331	n/a	n/a	1	n/a	n/a	n/a	n/a	n/a
3697.594	n/a	FFR_REC_WORD	1848797	wordpools/wasnorm_wordpool.txt	LTP092	ltpFR	0	n/a	0	JOINT	758	n/a	n/a	0	n/a	n/a	n/a	n/a	n/a
3698.52	n/a	FFR_REC_WORD	1849260	wordpools/wasnorm_wordpool.txt	LTP092	ltpFR	0	n/a	0	ELBOW	520	n/a	n/a	0	n/a	n/a	n/a	n/a	n/a
3699.3	n/a	FFR_REC_WORD	1849650	wordpools/wasnorm_wordpool.txt	LTP092	ltpFR	0	n/a	0	FOREHEAD	592	n/a	n/a	0	n/a	n/a	n/a	n/a	n/a
3700.726	n/a	FFR_REC_WORD	1850363	wordpools/wasnorm_wordpool.txt	LTP092	ltpFR	0	n/a	0	FIELD	562	n/a	n/a	1	n/a	n/a	n/a	n/a	n/a
3702.002	n/a	FFR_REC_WORD	1851001	wordpools/wasnorm_wordpool.txt	LTP092	ltpFR	0	n/a	0	SURGEON	1413	n/a	n/a	1	n/a	n/a	n/a	n/a	n/a
3702.878	n/a	FFR_REC_WORD	1851439	wordpools/wasnorm_wordpool.txt	LTP092	ltpFR	0	n/a	0	HOSPITAL	721	n/a	n/a	1	n/a	n/a	n/a	n/a	n/a
3704.204	n/a	FFR_REC_WORD	1852102	wordpools/wasnorm_wordpool.txt	LTP092	ltpFR	0	n/a	1	PLANE	1081	n/a	n/a	0	n/a	n/a	n/a	n/a	n/a
3704.926	n/a	FFR_REC_WORD	1852463	wordpools/wasnorm_wordpool.txt	LTP092	ltpFR	0	n/a	0	STEWARDESS	1381	n/a	n/a	1	n/a	n/a	n/a	n/a	n/a
3705.97	n/a	FFR_REC_WORD	1852985	wordpools/wasnorm_wordpool.txt	LTP092	ltpFR	0	n/a	0	KNEE	784	n/a	n/a	0	n/a	n/a	n/a	n/a	n/a
3706.644	n/a	FFR_REC_WORD	1853322	wordpools/wasnorm_wordpool.txt	LTP092	ltpFR	0	n/a	0	TUB	1514	n/a	n/a	1	n/a	n/a	n/a	n/a	n/a
3707.322	n/a	FFR_REC_WORD	1853661	wordpools/wasnorm_wordpool.txt	LTP092	ltpFR	0	n/a	1	CREEK	404	n/a	n/a	0	n/a	n/a	n/a	n/a	n/a
3707.666	n/a	FFR_REC_WORD	1853833	wordpools/wasnorm_wordpool.txt	LTP092	ltpFR	0	n/a	0	STREAM	1392	n/a	n/a	1	n/a	n/a	n/a	n/a	n/a
3708.314	n/a	FFR_REC_WORD	1854157	wordpools/wasnorm_wordpool.txt	LTP092	ltpFR	0	n/a	1	CANOE	233	n/a	n/a	0	n/a	n/a	n/a	n/a	n/a
3709.486	n/a	FFR_REC_WORD	1854743	wordpools/wasnorm_wordpool.txt	LTP092	ltpFR	0	n/a	1	BOAT	144	n/a	n/a	1	n/a	n/a	n/a	n/a	n/a
3712.26	n/a	FFR_REC_WORD	1856130	wordpools/wasnorm_wordpool.txt	LTP092	ltpFR	0	n/a	1	MOUSE	925	n/a	n/a	1	n/a	n/a	n/a	n/a	n/a
3713.044	n/a	FFR_REC_WORD	1856522	wordpools/wasnorm_wordpool.txt	LTP092	ltpFR	0	n/a	0	KITTEN	780	n/a	n/a	0	n/a	n/a	n/a	n/a	n/a
3716.82	n/a	FFR_REC_WORD_VV	1858410	wordpools/wasnorm_wordpool.txt	LTP092	ltpFR	0	n/a	n/a	<>	-1	n/a	n/a	n/a	n/a	n/a	n/a	n/a	n/a
3717.828	n/a	FFR_REC_WORD	1858914	wordpools/wasnorm_wordpool.txt	LTP092	ltpFR	0	n/a	1	CUCUMBER	421	n/a	n/a	1	n/a	n/a	n/a	n/a	n/a
3719.644	n/a	FFR_REC_WORD	1859822	wordpools/wasnorm_wordpool.txt	LTP092	ltpFR	0	n/a	1	PLUM	1090	n/a	n/a	1	n/a	n/a	n/a	n/a	n/a
3720.802	n/a	FFR_REC_WORD	1860401	wordpools/wasnorm_wordpool.txt	LTP092	ltpFR	0	n/a	-1	RASPBERRY	1168	n/a	n/a	-1	n/a	n/a	n/a	n/a	n/a
3721.426	n/a	FFR_REC_WORD	1860713	wordpools/wasnorm_wordpool.txt	LTP092	ltpFR	0	n/a	-1	CHERRY	293	n/a	n/a	-1	n/a	n/a	n/a	n/a	n/a
3722.422	n/a	FFR_REC_WORD	1861211	wordpools/wasnorm_wordpool.txt	LTP092	ltpFR	0	n/a	-1	GUM	672	n/a	n/a	-1	n/a	n/a	n/a	n/a	n/a
3726.0	n/a	FFR_REC_WORD	1863000	wordpools/wasnorm_wordpool.txt	LTP092	ltpFR	0	n/a	-1	GARAGE	621	n/a	n/a	-1	n/a	n/a	n/a	n/a	n/a
3727.432	n/a	FFR_REC_WORD	1863716	wordpools/wasnorm_wordpool.txt	LTP092	ltpFR	0	n/a	-1	THIEF	1456	n/a	n/a	-1	n/a	n/a	n/a	n/a	n/a
3728.914	n/a	FFR_REC_WORD	1864457	wordpools/wasnorm_wordpool.txt	LTP092	ltpFR	0	n/a	-1	SIDEWALK	1303	n/a	n/a	-1	n/a	n/a	n/a	n/a	n/a
3730.236	n/a	FFR_REC_WORD	1865118	wordpools/wasnorm_wordpool.txt	LTP092	ltpFR	0	n/a	-1	RADIATOR	1156	n/a	n/a	-1	n/a	n/a	n/a	n/a	n/a
3731.144	n/a	FFR_REC_WORD	1865572	wordpools/wasnorm_wordpool.txt	LTP092	ltpFR	0	n/a	1	RADIO	1157	n/a	n/a	0	n/a	n/a	n/a	n/a	n/a
3734.116	n/a	FFR_REC_WORD	1867058	wordpools/wasnorm_wordpool.txt	LTP092	ltpFR	0	n/a	-1	AUTOMOBILE	62	n/a	n/a	-1	n/a	n/a	n/a	n/a	n/a
3736.158	n/a	FFR_REC_WORD	1868079	wordpools/wasnorm_wordpool.txt	LTP092	ltpFR	0	n/a	-1	AUTOMOBILE	62	n/a	n/a	-1	n/a	n/a	n/a	n/a	n/a
3741.834	n/a	FFR_REC_WORD	1870917	wordpools/wasnorm_wordpool.txt	LTP092	ltpFR	0	n/a	1	MONSTER	912	n/a	n/a	1	n/a	n/a	n/a	n/a	n/a
3743.896	n/a	FFR_REC_WORD	1871948	wordpools/wasnorm_wordpool.txt	LTP092	ltpFR	0	n/a	1	GRIZZLY	662	n/a	n/a	0	n/a	n/a	n/a	n/a	n/a
3745.402	n/a	FFR_REC_WORD	1872701	wordpools/wasnorm_wordpool.txt	LTP092	ltpFR	0	n/a	1	INSECT	740	n/a	n/a	1	n/a	n/a	n/a	n/a	n/a
3748.336	n/a	FFR_REC_WORD	1874168	wordpools/wasnorm_wordpool.txt	LTP092	ltpFR	0	n/a	-1	FARM	552	n/a	n/a	-1	n/a	n/a	n/a	n/a	n/a
3750.516	n/a	FFR_REC_WORD	1875258	wordpools/wasnorm_wordpool.txt	LTP092	ltpFR	0	n/a	0	PIG	1064	n/a	n/a	1	n/a	n/a	n/a	n/a	n/a
3752.206	n/a	FFR_REC_WORD	1876103	wordpools/wasnorm_wordpool.txt	LTP092	ltpFR	0	n/a	0	PICNIC	1060	n/a	n/a	1	n/a	n/a	n/a	n/a	n/a
3753.628	n/a	FFR_REC_WORD	1876814	wordpools/wasnorm_wordpool.txt	LTP092	ltpFR	0	n/a	0	GROUND	666	n/a	n/a	1	n/a	n/a	n/a	n/a	n/a
3760.802	n/a	FFR_REC_WORD	1880401	wordpools/wasnorm_wordpool.txt	LTP092	ltpFR	0	n/a	0	MAN	862	n/a	n/a	1	n/a	n/a	n/a	n/a	n/a
3761.376	n/a	FFR_REC_WORD	1880688	wordpools/wasnorm_wordpool.txt	LTP092	ltpFR	0	n/a	0	WOMAN	1620	n/a	n/a	1	n/a	n/a	n/a	n/a	n/a
3761.814	n/a	FFR_REC_WORD	1880907	wordpools/wasnorm_wordpool.txt	LTP092	ltpFR	0	n/a	1	MOTHER	921	n/a	n/a	1	n/a	n/a	n/a	n/a	n/a
3762.296	n/a	FFR_REC_WORD	1881148	wordpools/wasnorm_wordpool.txt	LTP092	ltpFR	0	n/a	1	DAD	433	n/a	n/a	1	n/a	n/a	n/a	n/a	n/a
3762.93	n/a	FFR_REC_WORD	1881465	wordpools/wasnorm_wordpool.txt	LTP092	ltpFR	0	n/a	0	SISTER	1312	n/a	n/a	1	n/a	n/a	n/a	n/a	n/a
3763.956	n/a	FFR_REC_WORD	1881978	wordpools/wasnorm_wordpool.txt	LTP092	ltpFR	0	n/a	0	DORM	488	n/a	n/a	1	n/a	n/a	n/a	n/a	n/a
3777.276	n/a	FFR_REC_WORD	1888638	wordpools/wasnorm_wordpool.txt	LTP092	ltpFR	0	n/a	1	YOUTH	1634	n/a	n/a	1	n/a	n/a	n/a	n/a	n/a
3781.876	n/a	FFR_REC_WORD	1890938	wordpools/wasnorm_wordpool.txt	LTP092	ltpFR	0	n/a	0	OFFICER	973	n/a	n/a	1	n/a	n/a	n/a	n/a	n/a
3788.366	n/a	FFR_REC_WORD	1894183	wordpools/wasnorm_wordpool.txt	LTP092	ltpFR	0	n/a	1	COMMITTEE	355	n/a	n/a	0	n/a	n/a	n/a	n/a	n/a
3790.352	n/a	FFR_REC_WORD	1895176	wordpools/wasnorm_wordpool.txt	LTP092	ltpFR	0	n/a	1	DIRECTOR	471	n/a	n/a	1	n/a	n/a	n/a	n/a	n/a
3792.492	n/a	FFR_REC_WORD	1896246	wordpools/wasnorm_wordpool.txt	LTP092	ltpFR	0	n/a	1	VET	1560	n/a	n/a	1	n/a	n/a	n/a	n/a	n/a
3795.286	n/a	FFR_REC_WORD	1897643	wordpools/wasnorm_wordpool.txt	LTP092	ltpFR	0	n/a	0	GULL	671	n/a	n/a	0	n/a	n/a	n/a	n/a	n/a
3796.482	n/a	FFR_REC_WORD	1898241	wordpools/wasnorm_wordpool.txt	LTP092	ltpFR	0	n/a	0	SPOOL	1356	n/a	n/a	0	n/a	n/a	n/a	n/a	n/a
3800.294	n/a	FFR_REC_WORD	1900147	wordpools/wasnorm_wordpool.txt	LTP092	ltpFR	0	n/a	-1	CANDY	230	n/a	n/a	-1	n/a	n/a	n/a	n/a	n/a
3806.696	n/a	FFR_REC_WORD	1903348	wordpools/wasnorm_wordpool.txt	LTP092	ltpFR	0	n/a	1	FAUCET	555	n/a	n/a	0	n/a	n/a	n/a	n/a	n/a
3807.52	n/a	FFR_REC_WORD	1903760	wordpools/wasnorm_wordpool.txt	LTP092	ltpFR	0	n/a	1	REFRIGERATOR	1179	n/a	n/a	0	n/a	n/a	n/a	n/a	n/a
3809.52	n/a	FFR_REC_WORD	1904760	wordpools/wasnorm_wordpool.txt	LTP092	ltpFR	0	n/a	1	SKETCH	1315	n/a	n/a	0	n/a	n/a	n/a	n/a	n/a
3810.254	n/a	FFR_REC_WORD	1905127	wordpools/wasnorm_wordpool.txt	LTP092	ltpFR	0	n/a	1	HORSE	719	n/a	n/a	1	n/a	n/a	n/a	n/a	n/a
3811.072	n/a	FFR_REC_WORD	1905536	wordpools/wasnorm_wordpool.txt	LTP092	ltpFR	0	n/a	1	TAIL	1430	n/a	n/a	0	n/a	n/a	n/a	n/a	n/a
3816.468	n/a	FFR_REC_WORD	1908234	wordpools/wasnorm_wordpool.txt	LTP092	ltpFR	0	n/a	1	LAKE	796	n/a	n/a	0	n/a	n/a	n/a	n/a	n/a
3819.038	n/a	FFR_REC_WORD	1909519	wordpools/wasnorm_wordpool.txt	LTP092	ltpFR	0	n/a	1	ANTEATER	26	n/a	n/a	1	n/a	n/a	n/a	n/a	n/a
3840.59	n/a	FFR_REC_WORD	1920295	wordpools/wasnorm_wordpool.txt	LTP092	ltpFR	0	n/a	-1	SECRETARY	1265	n/a	n/a	-1	n/a	n/a	n/a	n/a	n/a
3842.096	n/a	FFR_REC_WORD	1921048	wordpools/wasnorm_wordpool.txt	LTP092	ltpFR	0	n/a	-1	YACHT	1629	n/a	n/a	-1	n/a	n/a	n/a	n/a	n/a
3843.394	n/a	FFR_REC_WORD	1921697	wordpools/wasnorm_wordpool.txt	LTP092	ltpFR	0	n/a	-1	LOUNGE	845	n/a	n/a	-1	n/a	n/a	n/a	n/a	n/a
3844.816	n/a	FFR_REC_WORD	1922408	wordpools/wasnorm_wordpool.txt	LTP092	ltpFR	0	n/a	0	CUFF	423	n/a	n/a	0	n/a	n/a	n/a	n/a	n/a
3845.73	n/a	FFR_REC_WORD	1922865	wordpools/wasnorm_wordpool.txt	LTP092	ltpFR	0	n/a	-1	SLEEVE	1324	n/a	n/a	-1	n/a	n/a	n/a	n/a	n/a
3846.782	n/a	FFR_REC_WORD	1923391	wordpools/wasnorm_wordpool.txt	LTP092	ltpFR	0	n/a	-1	CHAMPAGNE	278	n/a	n/a	-1	n/a	n/a	n/a	n/a	n/a
3848.128	n/a	FFR_REC_WORD	1924064	wordpools/wasnorm_wordpool.txt	LTP092	ltpFR	0	n/a	0	COP	376	n/a	n/a	1	n/a	n/a	n/a	n/a	n/a
3849.332	n/a	FFR_REC_WORD	1924666	wordpools/wasnorm_wordpool.txt	LTP092	ltpFR	0	n/a	0	OPERA	978	n/a	n/a	1	n/a	n/a	n/a	n/a	n/a
3850.648	n/a	FFR_REC_WORD	1925324	wordpools/wasnorm_wordpool.txt	LTP092	ltpFR	0	n/a	-1	CAR	241	n/a	n/a	-1	n/a	n/a	n/a	n/a	n/a
3857.718	n/a	FFR_REC_WORD	1928859	wordpools/wasnorm_wordpool.txt	LTP092	ltpFR	0	n/a	0	PELICAN	1039	n/a	n/a	1	n/a	n/a	n/a	n/a	n/a
3862.316	n/a	FFR_REC_WORD	1931158	wordpools/wasnorm_wordpool.txt	LTP092	ltpFR	0	n/a	0	BABY	64	n/a	n/a	1	n/a	n/a	n/a	n/a	n/a
3863.226	n/a	FFR_REC_WORD	1931613	wordpools/wasnorm_wordpool.txt	LTP092	ltpFR	0	n/a	0	FOOT	590	n/a	n/a	0	n/a	n/a	n/a	n/a	n/a
3868.15	n/a	FFR_REC_WORD	1934075	wordpools/wasnorm_wordpool.txt	LTP092	ltpFR	0	n/a	1	ANIMAL	23	n/a	n/a	1	n/a	n/a	n/a	n/a	n/a
3880.532	n/a	FFR_REC_WORD	1940266	wordpools/wasnorm_wordpool.txt	LTP092	ltpFR	0	n/a	1	OCEAN	970	n/a	n/a	1	n/a	n/a	n/a	n/a	n/a
3888.674	n/a	FFR_REC_WORD	1944337	wordpools/wasnorm_wordpool.txt	LTP092	ltpFR	0	n/a	1	RADISH	1158	n/a	n/a	1	n/a	n/a	n/a	n/a	n/a
3892.38	n/a	FFR_REC_WORD	1946190	wordpools/wasnorm_wordpool.txt	LTP092	ltpFR	0	n/a	1	TURKEY	1520	n/a	n/a	1	n/a	n/a	n/a	n/a	n/a
3926.056	n/a	FFR_REC_WORD	1963028	wordpools/wasnorm_wordpool.txt	LTP092	ltpFR	0	n/a	1	GRASSHOPPER	656	n/a	n/a	1	n/a	n/a	n/a	n/a	n/a
3938.826	n/a	FFR_REC_WORD	1969413	wordpools/wasnorm_wordpool.txt	LTP092	ltpFR	0	n/a	0	PICK	1058	n/a	n/a	1	n/a	n/a	n/a	n/a	n/a
3948.75	n/a	FFR_REC_WORD	1974375	wordpools/wasnorm_wordpool.txt	LTP092	ltpFR	0	n/a	1	LUMBER	848	n/a	n/a	0	n/a	n/a	n/a	n/a	n/a
3951.488	n/a	FFR_REC_WORD	1975744	wordpools/wasnorm_wordpool.txt	LTP092	ltpFR	0	n/a	1	SKILLET	1317	n/a	n/a	0	n/a	n/a	n/a	n/a	n/a
3990.078	n/a	FFR_REC_WORD	1995039	wordpools/wasnorm_wordpool.txt	LTP092	ltpFR	0	n/a	0	SUIT	1402	n/a	n/a	1	n/a	n/a	n/a	n/a	n/a
4101.708	n/a	REC_START	2050854	n/a	LTP092	ltpFR	0	1	n/a	n/a	n/a	n/a	n/a	n/a	n/a	n/a	n/a	n/a	n/a
4101.74	n/a	RECOG_TARGET	2050870	n/a	LTP092	ltpFR	0	1	-1	SPONGE	1355	1	5	-1	n/a	n/a	n/a	n/a	n/a
4103.854	n/a	RECOG_RESP	2051927	n/a	LTP092	ltpFR	0	1	-1	SPONGE	1355	1	n/a	-1	n/a	n/a	n/a	n/a	n/a
4110.278	n/a	RECOG_CONF	2055139	n/a	LTP092	ltpFR	0	1	-1	SPONGE	1355	n/a	5	-1	n/a	n/a	n/a	n/a	n/a
4114.532	n/a	RECOG_TARGET	2057266	n/a	LTP092	ltpFR	0	1	1	JOURNAL	760	1	5	0	n/a	n/a	n/a	n/a	n/a
4116.404	n/a	RECOG_RESP	2058202	n/a	LTP092	ltpFR	0	1	1	JOURNAL	760	1	n/a	0	n/a	n/a	n/a	n/a	n/a
4121.958	n/a	RECOG_RESP_VV	2060979	n/a	LTP092	ltpFR	0	1	1	JOURNAL	760	n/a	1	0	n/a	n/a	n/a	n/a	n/a
4123.402	n/a	RECOG_RESP_VV	2061701	n/a	LTP092	ltpFR	0	1	1	JOURNAL	760	n/a	5	0	n/a	n/a	n/a	n/a	n/a
4126.128	n/a	RECOG_CONF	2063064	n/a	LTP092	ltpFR	0	1	1	JOURNAL	760	n/a	5	0	n/a	n/a	n/a	n/a	n/a
4128.348	n/a	RECOG_LURE	2064174	n/a	LTP092	ltpFR	0	1	n/a	ARCHITECT	36	0	5	n/a	n/a	n/a	n/a	n/a	n/a
4129.9	n/a	RECOG_RESP	2064950	n/a	LTP092	ltpFR	0	1	n/a	ARCHITECT	36	0	n/a	n/a	n/a	n/a	n/a	n/a	n/a
4134.22	n/a	RECOG_CONF	2067110	n/a	LTP092	ltpFR	0	1	n/a	ARCHITECT	36	n/a	5	n/a	n/a	n/a	n/a	n/a	n/a
4138.382	n/a	RECOG_TARGET	2069191	n/a	LTP092	ltpFR	0	1	0	BUN	197	1	5	0	n/a	n/a	n/a	n/a	n/a
4140.008	n/a	RECOG_RESP	2070004	n/a	LTP092	ltpFR	0	1	0	BUN	197	1	n/a	0	n/a	n/a	n/a	n/a	n/a
4142.232	n/a	RECOG_CONF	2071116	n/a	LTP092	ltpFR	0	1	0	BUN	197	n/a	5	0	n/a	n/a	n/a	n/a	n/a
4144.056	n/a	RECOG_TARGET	2072028	n/a	LTP092	ltpFR	0	1	0	ELBOW	520	1	5	0	n/a	n/a	n/a	n/a	n/a
4145.066	n/a	RECOG_RESP	2072533	n/a	LTP092	ltpFR	0	1	0	ELBOW	520	1	n/a	0	n/a	n/a	n/a	n/a	n/a
4146.294	n/a	RECOG_CONF	2073147	n/a	LTP092	ltpFR	0	1	0	ELBOW	520	n/a	5	0	n/a	n/a	n/a	n/a	n/a
4147.956	n/a	RECOG_LURE	2073978	n/a	LTP092	ltpFR	0	1	n/a	BUFFALO	186	0	5	n/a	n/a	n/a	n/a	n/a	n/a
4148.718	n/a	RECOG_RESP	2074359	n/a	LTP092	ltpFR	0	1	n/a	BUFFALO	186	0	n/a	n/a	n/a	n/a	n/a	n/a	n/a
4150.036	n/a	RECOG_CONF	2075018	n/a	LTP092	ltpFR	0	1	n/a	BUFFALO	186	n/a	5	n/a	n/a	n/a	n/a	n/a	n/a
4151.614	n/a	RECOG_TARGET	2075807	n/a	LTP092	ltpFR	0	1	0	CHICK	296	1	5	0	n/a	n/a	n/a	n/a	n/a
4152.65	n/a	RECOG_RESP	2076325	n/a	LTP092	ltpFR	0	1	0	CHICK	296	1	n/a	0	n/a	n/a	n/a	n/a	n/a
4155.324	n/a	RECOG_CONF	2077662	n/a	LTP092	ltpFR	0	1	0	CHICK	296	n/a	5	0	n/a	n/a	n/a	n/a	n/a
4156.864	n/a	RECOG_TARGET	2078432	n/a	LTP092	ltpFR	0	1	1	REPORT	1184	1	5	0	n/a	n/a	n/a	n/a	n/a
4158.062	n/a	RECOG_RESP	2079031	n/a	LTP092	ltpFR	0	1	1	REPORT	1184	1	n/a	0	n/a	n/a	n/a	n/a	n/a
4159.504	n/a	RECOG_CONF	2079752	n/a	LTP092	ltpFR	0	1	1	REPORT	1184	n/a	5	0	n/a	n/a	n/a	n/a	n/a
4161.112	n/a	RECOG_TARGET	2080556	n/a	LTP092	ltpFR	0	1	0	STEWARDESS	1381	1	5	1	n/a	n/a	n/a	n/a	n/a
4161.854	n/a	RECOG_RESP	2080927	n/a	LTP092	ltpFR	0	1	0	STEWARDESS	1381	1	n/a	1	n/a	n/a	n/a	n/a	n/a
4163.316	n/a	RECOG_CONF	2081658	n/a	LTP092	ltpFR	0	1	0	STEWARDESS	1381	n/a	5	1	n/a	n/a	n/a	n/a	n/a
4164.864	n/a	RECOG_TARGET	2082432	n/a	LTP092	ltpFR	0	1	0	COUSIN	392	1	5	1	n/a	n/a	n/a	n/a	n/a
4165.636	n/a	RECOG_RESP	2082818	n/a	LTP092	ltpFR	0	1	0	COUSIN	392	1	n/a	1	n/a	n/a	n/a	n/a	n/a
4167.566	n/a	RECOG_CONF	2083783	n/a	LTP092	ltpFR	0	1	0	COUSIN	392	n/a	5	1	n/a	n/a	n/a	n/a	n/a
4169.172	n/a	RECOG_LURE	2084586	n/a	LTP092	ltpFR	0	1	n/a	BLUEBERRY	140	0	2	n/a	n/a	n/a	n/a	n/a	n/a
4171.354	n/a	RECOG_RESP	2085677	n/a	LTP092	ltpFR	0	1	n/a	BLUEBERRY	140	0	n/a	n/a	n/a	n/a	n/a	n/a	n/a
4174.022	n/a	RECOG_CONF	2087011	n/a	LTP092	ltpFR	0	1	n/a	BLUEBERRY	140	n/a	2	n/a	n/a	n/a	n/a	n/a	n/a
4175.822	n/a	RECOG_TARGET	2087911	n/a	LTP092	ltpFR	0	1	0	MOTH	920	1	5	0	n/a	n/a	n/a	n/a	n/a
4177.608	n/a	RECOG_RESP	2088804	n/a	LTP092	ltpFR	0	1	0	MOTH	920	1	n/a	0	n/a	n/a	n/a	n/a	n/a
4178.832	n/a	RECOG_CONF	2089416	n/a	LTP092	ltpFR	0	1	0	MOTH	920	n/a	5	0	n/a	n/a	n/a	n/a	n/a
4180.288	n/a	RECOG_TARGET	2090144	n/a	LTP092	ltpFR	0	1	1	DIRECTOR	471	1	5	1	n/a	n/a	n/a	n/a	n/a
4181.236	n/a	RECOG_RESP	2090618	n/a	LTP092	ltpFR	0	1	1	DIRECTOR	471	1	n/a	1	n/a	n/a	n/a	n/a	n/a
4182.264	n/a	RECOG_CONF	2091132	n/a	LTP092	ltpFR	0	1	1	DIRECTOR	471	n/a	5	1	n/a	n/a	n/a	n/a	n/a
4183.764	n/a	RECOG_TARGET	2091882	n/a	LTP092	ltpFR	0	1	-1	JAR	750	0	2	-1	n/a	n/a	n/a	n/a	n/a
4185.626	n/a	RECOG_RESP	2092813	n/a	LTP092	ltpFR	0	1	-1	JAR	750	0	n/a	-1	n/a	n/a	n/a	n/a	n/a
4188.032	n/a	RECOG_CONF	2094016	n/a	LTP092	ltpFR	0	1	-1	JAR	750	n/a	2	-1	n/a	n/a	n/a	n/a	n/a
4189.964	n/a	RECOG_LURE	2094982	n/a	LTP092	ltpFR	0	1	n/a	WICK	1607	0	5	n/a	n/a	n/a	n/a	n/a	n/a
4191.424	n/a	RECOG_RESP	2095712	n/a	LTP092	ltpFR	0	1	n/a	WICK	1607	0	n/a	n/a	n/a	n/a	n/a	n/a	n/a
4192.51	n/a	RECOG_CONF	2096255	n/a	LTP092	ltpFR	0	1	n/a	WICK	1607	n/a	5	n/a	n/a	n/a	n/a	n/a	n/a
4194.004	n/a	RECOG_TARGET	2097002	n/a	LTP092	ltpFR	0	1	1	COW	393	1	5	1	n/a	n/a	n/a	n/a	n/a
4194.706	n/a	RECOG_RESP_VV	2097353	n/a	LTP092	ltpFR	0	1	1	COW	393	0	n/a	1	n/a	n/a	n/a	n/a	n/a
4195.926	n/a	RECOG_RESP	2097963	n/a	LTP092	ltpFR	0	1	1	COW	393	1	n/a	1	n/a	n/a	n/a	n/a	n/a
4198.788	n/a	RECOG_CONF	2099394	n/a	LTP092	ltpFR	0	1	1	COW	393	n/a	5	1	n/a	n/a	n/a	n/a	n/a
4200.162	n/a	RECOG_LURE	2100081	n/a	LTP092	ltpFR	0	1	n/a	TOOTH	1481	0	2	n/a	n/a	n/a	n/a	n/a	n/a
4202.678	n/a	RECOG_RESP	2101339	n/a	LTP092	ltpFR	0	1	n/a	TOOTH	1481	0	n/a	n/a	n/a	n/a	n/a	n/a	n/a
4203.736	n/a	RECOG_CONF	2101868	n/a	LTP092	ltpFR	0	1	n/a	TOOTH	1481	n/a	2	n/a	n/a	n/a	n/a	n/a	n/a
4205.304	n/a	RECOG_TARGET	2102652	n/a	LTP092	ltpFR	0	1	0	HIGHWAY	707	1	5	1	n/a	n/a	n/a	n/a	n/a
4206.166	n/a	RECOG_RESP	2103083	n/a	LTP092	ltpFR	0	1	0	HIGHWAY	707	1	n/a	1	n/a	n/a	n/a	n/a	n/a
4207.388	n/a	RECOG_CONF	2103694	n/a	LTP092	ltpFR	0	1	0	HIGHWAY	707	n/a	5	1	n/a	n/a	n/a	n/a	n/a
4209.078	n/a	RECOG_TARGET	2104539	n/a	LTP092	ltpFR	0	1	0	TUB	1514	1	5	1	n/a	n/a	n/a	n/a	n/a
4209.992	n/a	RECOG_RESP	2104996	n/a	LTP092	ltpFR	0	1	0	TUB	1514	1	n/a	1	n/a	n/a	n/a	n/a	n/a
4211.498	n/a	RECOG_CONF	2105749	n/a	LTP092	ltpFR	0	1	0	TUB	1514	n/a	5	1	n/a	n/a	n/a	n/a	n/a
4212.88	n/a	RECOG_TARGET	2106440	n/a	LTP092	ltpFR	0	1	1	SCENERY	1247	1	5	1	n/a	n/a	n/a	n/a	n/a
4213.748	n/a	RECOG_RESP	2106874	n/a	LTP092	ltpFR	0	1	1	SCENERY	1247	1	n/a	1	n/a	n/a	n/a	n/a	n/a
4215.25	n/a	RECOG_CONF	2107625	n/a	LTP092	ltpFR	0	1	1	SCENERY	1247	n/a	5	1	n/a	n/a	n/a	n/a	n/a
4280.766	n/a	REC_START	2140383	n/a	LTP092	ltpFR	0	2	n/a	n/a	n/a	n/a	n/a	n/a	n/a	n/a	n/a	n/a	n/a
4280.802	n/a	RECOG_TARGET	2140401	n/a	LTP092	ltpFR	0	2	-1	CLERK	321	1	5	-1	n/a	n/a	n/a	n/a	n/a
4282.838	n/a	RECOG_RESP	2141419	n/a	LTP092	ltpFR	0	2	-1	CLERK	321	1	n/a	-1	n/a	n/a	n/a	n/a	n/a
4284.534	n/a	RECOG_CONF	2142267	n/a	LTP092	ltpFR	0	2	-1	CLERK	321	n/a	5	-1	n/a	n/a	n/a	n/a	n/a
4286.11	n/a	RECOG_TARGET	2143055	n/a	LTP092	ltpFR	0	2	0	PASSAGE	1019	1	5	1	n/a	n/a	n/a	n/a	n/a
4287.138	n/a	RECOG_RESP	2143569	n/a	LTP092	ltpFR	0	2	0	PASSAGE	1019	1	n/a	1	n/a	n/a	n/a	n/a	n/a
4288.604	n/a	RECOG_CONF	2144302	n/a	LTP092	ltpFR	0	2	0	PASSAGE	1019	n/a	5	1	n/a	n/a	n/a	n/a	n/a
4290.01	n/a	RECOG_TARGET	2145005	n/a	LTP092	ltpFR	0	2	1	PITCHFORK	1078	1	5	0	n/a	n/a	n/a	n/a	n/a
4290.82	n/a	RECOG_RESP	2145410	n/a	LTP092	ltpFR	0	2	1	PITCHFORK	1078	1	n/a	0	n/a	n/a	n/a	n/a	n/a
4292.296	n/a	RECOG_CONF	2146148	n/a	LTP092	ltpFR	0	2	1	PITCHFORK	1078	n/a	5	0	n/a	n/a	n/a	n/a	n/a
4293.728	n/a	RECOG_TARGET	2146864	n/a	LTP092	ltpFR	0	2	1	CORPORATION	382	1	5	1	n/a	n/a	n/a	n/a	n/a
4294.452	n/a	RECOG_RESP	2147226	n/a	LTP092	ltpFR	0	2	1	CORPORATION	382	1	n/a	1	n/a	n/a	n/a	n/a	n/a
4295.888	n/a	RECOG_CONF	2147944	n/a	LTP092	ltpFR	0	2	1	CORPORATION	382	n/a	5	1	n/a	n/a	n/a	n/a	n/a
4297.268	n/a	RECOG_TARGET	2148634	n/a	LTP092	ltpFR	0	2	-1	FARM	552	1	5	-1	n/a	n/a	n/a	n/a	n/a
4297.824	n/a	RECOG_RESP	2148912	n/a	LTP092	ltpFR	0	2	-1	FARM	552	1	n/a	-1	n/a	n/a	n/a	n/a	n/a
4299.4	n/a	RECOG_CONF	2149700	n/a	LTP092	ltpFR	0	2	-1	FARM	552	n/a	5	-1	n/a	n/a	n/a	n/a	n/a
4300.686	n/a	RECOG_TARGET	2150343	n/a	LTP092	ltpFR	0	2	0	SAPPHIRE	1234	1	5	0	n/a	n/a	n/a	n/a	n/a
4301.566	n/a	RECOG_RESP	2150783	n/a	LTP092	ltpFR	0	2	0	SAPPHIRE	1234	1	n/a	0	n/a	n/a	n/a	n/a	n/a
4303.042	n/a	RECOG_CONF	2151521	n/a	LTP092	ltpFR	0	2	0	SAPPHIRE	1234	n/a	5	0	n/a	n/a	n/a	n/a	n/a
4304.394	n/a	RECOG_TARGET	2152197	n/a	LTP092	ltpFR	0	2	1	DIAGRAM	456	1	5	0	n/a	n/a	n/a	n/a	n/a
4305.596	n/a	RECOG_RESP	2152798	n/a	LTP092	ltpFR	0	2	1	DIAGRAM	456	1	n/a	0	n/a	n/a	n/a	n/a	n/a
4307.274	n/a	RECOG_CONF	2153637	n/a	LTP092	ltpFR	0	2	1	DIAGRAM	456	n/a	5	0	n/a	n/a	n/a	n/a	n/a
4308.91	n/a	RECOG_TARGET	2154455	n/a	LTP092	ltpFR	0	2	0	ATMOSPHERE	54	1	5	1	n/a	n/a	n/a	n/a	n/a
4309.966	n/a	RECOG_RESP	2154983	n/a	LTP092	ltpFR	0	2	0	ATMOSPHERE	54	1	n/a	1	n/a	n/a	n/a	n/a	n/a
4311.564	n/a	RECOG_CONF	2155782	n/a	LTP092	ltpFR	0	2	0	ATMOSPHERE	54	n/a	5	1	n/a	n/a	n/a	n/a	n/a
4312.952	n/a	RECOG_LURE	2156476	n/a	LTP092	ltpFR	0	2	n/a	STOCKING	1383	0	5	n/a	n/a	n/a	n/a	n/a	n/a
4314.238	n/a	RECOG_RESP	2157119	n/a	LTP092	ltpFR	0	2	n/a	STOCKING	1383	0	n/a	n/a	n/a	n/a	n/a	n/a	n/a
4315.504	n/a	RECOG_CONF	2157752	n/a	LTP092	ltpFR	0	2	n/a	STOCKING	1383	n/a	5	n/a	n/a	n/a	n/a	n/a	n/a
4316.952	n/a	RECOG_TARGET	2158476	n/a	LTP092	ltpFR	0	2	-1	LION	827	1	5	-1	n/a	n/a	n/a	n/a	n/a
4319.894	n/a	RECOG_RESP	2159947	n/a	LTP092	ltpFR	0	2	-1	LION	827	1	n/a	-1	n/a	n/a	n/a	n/a	n/a
4321.372	n/a	RECOG_CONF	2160686	n/a	LTP092	ltpFR	0	2	-1	LION	827	n/a	5	-1	n/a	n/a	n/a	n/a	n/a
4322.878	n/a	RECOG_TARGET	2161439	n/a	LTP092	ltpFR	0	2	1	POSSUM	1112	1	5	1	n/a	n/a	n/a	n/a	n/a
4323.966	n/a	RECOG_RESP	2161983	n/a	LTP092	ltpFR	0	2	1	POSSUM	1112	1	n/a	1	n/a	n/a	n/a	n/a	n/a
4325.264	n/a	RECOG_CONF	2162632	n/a	LTP092	ltpFR	0	2	1	POSSUM	1112	n/a	5	1	n/a	n/a	n/a	n/a	n/a
4326.626	n/a	RECOG_TARGET	2163313	n/a	LTP092	ltpFR	0	2	-1	CONSOLE	364	1	5	-1	n/a	n/a	n/a	n/a	n/a
4327.812	n/a	RECOG_RESP	2163906	n/a	LTP092	ltpFR	0	2	-1	CONSOLE	364	1	n/a	-1	n/a	n/a	n/a	n/a	n/a
4329.234	n/a	RECOG_CONF	2164617	n/a	LTP092	ltpFR	0	2	-1	CONSOLE	364	n/a	5	-1	n/a	n/a	n/a	n/a	n/a
4330.634	n/a	RECOG_TARGET	2165317	n/a	LTP092	ltpFR	0	2	-1	CABINET	212	1	5	-1	n/a	n/a	n/a	n/a	n/a
4331.49	n/a	RECOG_RESP	2165745	n/a	LTP092	ltpFR	0	2	-1	CABINET	212	1	n/a	-1	n/a	n/a	n/a	n/a	n/a
4332.906	n/a	RECOG_CONF	2166453	n/a	LTP092	ltpFR	0	2	-1	CABINET	212	n/a	5	-1	n/a	n/a	n/a	n/a	n/a
4334.158	n/a	RECOG_TARGET	2167079	n/a	LTP092	ltpFR	0	2	1	GUN	673	1	5	0	n/a	n/a	n/a	n/a	n/a
4334.912	n/a	RECOG_RESP	2167456	n/a	LTP092	ltpFR	0	2	1	GUN	673	1	n/a	0	n/a	n/a	n/a	n/a	n/a
4336.248	n/a	RECOG_CONF	2168124	n/a	LTP092	ltpFR	0	2	1	GUN	673	n/a	5	0	n/a	n/a	n/a	n/a	n/a
4337.792	n/a	RECOG_TARGET	2168896	n/a	LTP092	ltpFR	0	2	0	NEPHEW	942	0	5	n/a	n/a	n/a	n/a	n/a	n/a
4339.112	n/a	RECOG_RESP	2169556	n/a	LTP092	ltpFR	0	2	0	NEPHEW	942	0	n/a	n/a	n/a	n/a	n/a	n/a	n/a
4340.618	n/a	RECOG_CONF	2170309	n/a	LTP092	ltpFR	0	2	0	NEPHEW	942	n/a	5	n/a	n/a	n/a	n/a	n/a	n/a
4342.118	n/a	RECOG_TARGET	2171059	n/a	LTP092	ltpFR	0	2	1	ANTEATER	26	1	5	1	n/a	n/a	n/a	n/a	n/a
4342.984	n/a	RECOG_RESP	2171492	n/a	LTP092	ltpFR	0	2	1	ANTEATER	26	1	n/a	1	n/a	n/a	n/a	n/a	n/a
4345.06	n/a	RECOG_CONF	2172530	n/a	LTP092	ltpFR	0	2	1	ANTEATER	26	n/a	5	1	n/a	n/a	n/a	n/a	n/a
4346.426	n/a	RECOG_LURE	2173213	n/a	LTP092	ltpFR	0	2	n/a	SWING	1421	0	3	n/a	n/a	n/a	n/a	n/a	n/a
4347.334	n/a	RECOG_RESP	2173667	n/a	LTP092	ltpFR	0	2	n/a	SWING	1421	0	n/a	n/a	n/a	n/a	n/a	n/a	n/a
4348.92	n/a	RECOG_CONF	2174460	n/a	LTP092	ltpFR	0	2	n/a	SWING	1421	n/a	3	n/a	n/a	n/a	n/a	n/a	n/a
4350.284	n/a	RECOG_TARGET	2175142	n/a	LTP092	ltpFR	0	2	0	HERB	704	1	5	0	n/a	n/a	n/a	n/a	n/a
4351.504	n/a	RECOG_RESP	2175752	n/a	LTP092	ltpFR	0	2	0	HERB	704	1	n/a	0	n/a	n/a	n/a	n/a	n/a
4353.1	n/a	RECOG_CONF	2176550	n/a	LTP092	ltpFR	0	2	0	HERB	704	n/a	5	0	n/a	n/a	n/a	n/a	n/a
4354.584	n/a	RECOG_TARGET	2177292	n/a	LTP092	ltpFR	0	2	1	EMPLOYER	532	1	5	1	n/a	n/a	n/a	n/a	n/a
4355.586	n/a	RECOG_RESP	2177793	n/a	LTP092	ltpFR	0	2	1	EMPLOYER	532	1	n/a	1	n/a	n/a	n/a	n/a	n/a
4357.132	n/a	RECOG_CONF	2178566	n/a	LTP092	ltpFR	0	2	1	EMPLOYER	532	n/a	5	1	n/a	n/a	n/a	n/a	n/a
4358.584	n/a	RECOG_TARGET	2179292	n/a	LTP092	ltpFR	0	2	1	OWNER	993	1	5	1	n/a	n/a	n/a	n/a	n/a
4359.77	n/a	RECOG_RESP	2179885	n/a	LTP092	ltpFR	0	2	1	OWNER	993	1	n/a	1	n/a	n/a	n/a	n/a	n/a
4361.462	n/a	RECOG_CONF	2180731	n/a	LTP092	ltpFR	0	2	1	OWNER	993	n/a	5	1	n/a	n/a	n/a	n/a	n/a
4369.216	n/a	REC_START	2184608	n/a	LTP092	ltpFR	0	3	n/a	n/a	n/a	n/a	n/a	n/a	n/a	n/a	n/a	n/a	n/a
4369.258	n/a	RECOG_LURE	2184629	n/a	LTP092	ltpFR	0	3	n/a	CAULIFLOWER	262	0	5	n/a	n/a	n/a	n/a	n/a	n/a
4370.414	n/a	RECOG_RESP	2185207	n/a	LTP092	ltpFR	0	3	n/a	CAULIFLOWER	262	0	n/a	n/a	n/a	n/a	n/a	n/a	n/a
4371.476	n/a	RECOG_CONF	2185738	n/a	LTP092	ltpFR	0	3	n/a	CAULIFLOWER	262	n/a	5	n/a	n/a	n/a	n/a	n/a	n/a
4373.026	n/a	RECOG_TARGET	2186513	n/a	LTP092	ltpFR	0	3	0	FIELD	562	1	5	1	n/a	n/a	n/a	n/a	n/a
4373.79	n/a	RECOG_RESP	2186895	n/a	LTP092	ltpFR	0	3	0	FIELD	562	1	n/a	1	n/a	n/a	n/a	n/a	n/a
4375.836	n/a	RECOG_CONF	2187918	n/a	LTP092	ltpFR	0	3	0	FIELD	562	n/a	5	1	n/a	n/a	n/a	n/a	n/a
4377.248	n/a	RECOG_TARGET	2188624	n/a	LTP092	ltpFR	0	3	1	SALOON	1228	1	5	0	n/a	n/a	n/a	n/a	n/a
4378.002	n/a	RECOG_RESP	2189001	n/a	LTP092	ltpFR	0	3	1	SALOON	1228	1	n/a	0	n/a	n/a	n/a	n/a	n/a
4379.568	n/a	RECOG_CONF	2189784	n/a	LTP092	ltpFR	0	3	1	SALOON	1228	n/a	5	0	n/a	n/a	n/a	n/a	n/a
4381.056	n/a	RECOG_TARGET	2190528	n/a	LTP092	ltpFR	0	3	-1	GROCERY	664	1	5	-1	n/a	n/a	n/a	n/a	n/a
4381.818	n/a	RECOG_RESP	2190909	n/a	LTP092	ltpFR	0	3	-1	GROCERY	664	1	n/a	-1	n/a	n/a	n/a	n/a	n/a
4383.77	n/a	RECOG_CONF	2191885	n/a	LTP092	ltpFR	0	3	-1	GROCERY	664	n/a	5	-1	n/a	n/a	n/a	n/a	n/a
4385.2	n/a	RECOG_LURE	2192600	n/a	LTP092	ltpFR	0	3	n/a	CELERY	266	1	5	n/a	n/a	n/a	n/a	n/a	n/a
4385.84	n/a	RECOG_RESP	2192920	n/a	LTP092	ltpFR	0	3	n/a	CELERY	266	1	n/a	n/a	n/a	n/a	n/a	n/a	n/a
4387.392	n/a	RECOG_CONF	2193696	n/a	LTP092	ltpFR	0	3	n/a	CELERY	266	n/a	5	n/a	n/a	n/a	n/a	n/a	n/a
4389.074	n/a	RECOG_TARGET	2194537	n/a	LTP092	ltpFR	0	3	0	FLIPPER	580	1	5	0	n/a	n/a	n/a	n/a	n/a
4390.304	n/a	RECOG_RESP	2195152	n/a	LTP092	ltpFR	0	3	0	FLIPPER	580	1	n/a	0	n/a	n/a	n/a	n/a	n/a
4391.86	n/a	RECOG_CONF	2195930	n/a	LTP092	ltpFR	0	3	0	FLIPPER	580	n/a	5	0	n/a	n/a	n/a	n/a	n/a
4393.466	n/a	RECOG_TARGET	2196733	n/a	LTP092	ltpFR	0	3	0	PIG	1064	1	5	1	n/a	n/a	n/a	n/a	n/a
4394.166	n/a	RECOG_RESP	2197083	n/a	LTP092	ltpFR	0	3	0	PIG	1064	1	n/a	1	n/a	n/a	n/a	n/a	n/a
4396.2	n/a	RECOG_CONF	2198100	n/a	LTP092	ltpFR	0	3	0	PIG	1064	n/a	5	1	n/a	n/a	n/a	n/a	n/a
4397.79	n/a	RECOG_TARGET	2198895	n/a	LTP092	ltpFR	0	3	0	QUAIL	1147	1	5	0	n/a	n/a	n/a	n/a	n/a
4398.71	n/a	RECOG_RESP	2199355	n/a	LTP092	ltpFR	0	3	0	QUAIL	1147	1	n/a	0	n/a	n/a	n/a	n/a	n/a
4400.402	n/a	RECOG_CONF	2200201	n/a	LTP092	ltpFR	0	3	0	QUAIL	1147	n/a	5	0	n/a	n/a	n/a	n/a	n/a
4401.942	n/a	RECOG_TARGET	2200971	n/a	LTP092	ltpFR	0	3	0	TAR	1435	1	5	1	n/a	n/a	n/a	n/a	n/a
4402.628	n/a	RECOG_RESP	2201314	n/a	LTP092	ltpFR	0	3	0	TAR	1435	1	n/a	1	n/a	n/a	n/a	n/a	n/a
4404.114	n/a	RECOG_CONF	2202057	n/a	LTP092	ltpFR	0	3	0	TAR	1435	n/a	5	1	n/a	n/a	n/a	n/a	n/a
4405.792	n/a	RECOG_TARGET	2202896	n/a	LTP092	ltpFR	0	3	0	KITTEN	780	1	5	0	n/a	n/a	n/a	n/a	n/a
4406.464	n/a	RECOG_RESP	2203232	n/a	LTP092	ltpFR	0	3	0	KITTEN	780	1	n/a	0	n/a	n/a	n/a	n/a	n/a
4408.076	n/a	RECOG_CONF	2204038	n/a	LTP092	ltpFR	0	3	0	KITTEN	780	n/a	5	0	n/a	n/a	n/a	n/a	n/a
4409.974	n/a	RECOG_TARGET	2204987	n/a	LTP092	ltpFR	0	3	0	AMBULANCE	19	1	5	1	n/a	n/a	n/a	n/a	n/a
4410.738	n/a	RECOG_RESP	2205369	n/a	LTP092	ltpFR	0	3	0	AMBULANCE	19	1	n/a	1	n/a	n/a	n/a	n/a	n/a
4412.416	n/a	RECOG_CONF	2206208	n/a	LTP092	ltpFR	0	3	0	AMBULANCE	19	n/a	5	1	n/a	n/a	n/a	n/a	n/a
4413.99	n/a	RECOG_TARGET	2206995	n/a	LTP092	ltpFR	0	3	-1	GUM	672	1	5	-1	n/a	n/a	n/a	n/a	n/a
4415.004	n/a	RECOG_RESP	2207502	n/a	LTP092	ltpFR	0	3	-1	GUM	672	1	n/a	-1	n/a	n/a	n/a	n/a	n/a
4416.806	n/a	RECOG_CONF	2208403	n/a	LTP092	ltpFR	0	3	-1	GUM	672	n/a	5	-1	n/a	n/a	n/a	n/a	n/a
4418.466	n/a	RECOG_TARGET	2209233	n/a	LTP092	ltpFR	0	3	1	LUMBER	848	1	5	0	n/a	n/a	n/a	n/a	n/a
4419.494	n/a	RECOG_RESP	2209747	n/a	LTP092	ltpFR	0	3	1	LUMBER	848	1	n/a	0	n/a	n/a	n/a	n/a	n/a
4421.046	n/a	RECOG_CONF	2210523	n/a	LTP092	ltpFR	0	3	1	LUMBER	848	n/a	5	0	n/a	n/a	n/a	n/a	n/a
4422.542	n/a	RECOG_TARGET	2211271	n/a	LTP092	ltpFR	0	3	1	OAR	966	1	5	0	n/a	n/a	n/a	n/a	n/a
4423.412	n/a	RECOG_RESP	2211706	n/a	LTP092	ltpFR	0	3	1	OAR	966	1	n/a	0	n/a	n/a	n/a	n/a	n/a
4425.148	n/a	RECOG_CONF	2212574	n/a	LTP092	ltpFR	0	3	1	OAR	966	n/a	5	0	n/a	n/a	n/a	n/a	n/a
4426.782	n/a	RECOG_TARGET	2213391	n/a	LTP092	ltpFR	0	3	0	GOBLIN	645	1	5	1	n/a	n/a	n/a	n/a	n/a
4427.786	n/a	RECOG_RESP	2213893	n/a	LTP092	ltpFR	0	3	0	GOBLIN	645	1	n/a	1	n/a	n/a	n/a	n/a	n/a
4429.208	n/a	RECOG_CONF	2214604	n/a	LTP092	ltpFR	0	3	0	GOBLIN	645	n/a	5	1	n/a	n/a	n/a	n/a	n/a
4430.482	n/a	RECOG_TARGET	2215241	n/a	LTP092	ltpFR	0	3	0	PICK	1058	1	5	1	n/a	n/a	n/a	n/a	n/a
4431.184	n/a	RECOG_RESP	2215592	n/a	LTP092	ltpFR	0	3	0	PICK	1058	1	n/a	1	n/a	n/a	n/a	n/a	n/a
4433.16	n/a	RECOG_CONF	2216580	n/a	LTP092	ltpFR	0	3	0	PICK	1058	n/a	5	1	n/a	n/a	n/a	n/a	n/a
4434.732	n/a	RECOG_TARGET	2217366	n/a	LTP092	ltpFR	0	3	1	MOTHER	921	1	5	1	n/a	n/a	n/a	n/a	n/a
4435.408	n/a	RECOG_RESP	2217704	n/a	LTP092	ltpFR	0	3	1	MOTHER	921	1	n/a	1	n/a	n/a	n/a	n/a	n/a
4437.14	n/a	RECOG_CONF	2218570	n/a	LTP092	ltpFR	0	3	1	MOTHER	921	n/a	5	1	n/a	n/a	n/a	n/a	n/a
4438.732	n/a	RECOG_TARGET	2219366	n/a	LTP092	ltpFR	0	3	-1	ISLAND	745	0	2	-1	n/a	n/a	n/a	n/a	n/a
4440.154	n/a	RECOG_RESP	2220077	n/a	LTP092	ltpFR	0	3	-1	ISLAND	745	0	n/a	-1	n/a	n/a	n/a	n/a	n/a
4441.48	n/a	RECOG_CONF	2220740	n/a	LTP092	ltpFR	0	3	-1	ISLAND	745	n/a	2	-1	n/a	n/a	n/a	n/a	n/a
4443.132	n/a	RECOG_TARGET	2221566	n/a	LTP092	ltpFR	0	3	1	YOUTH	1634	1	5	1	n/a	n/a	n/a	n/a	n/a
4446.11	n/a	RECOG_RESP	2223055	n/a	LTP092	ltpFR	0	3	1	YOUTH	1634	1	n/a	1	n/a	n/a	n/a	n/a	n/a
4447.678	n/a	RECOG_CONF	2223839	n/a	LTP092	ltpFR	0	3	1	YOUTH	1634	n/a	5	1	n/a	n/a	n/a	n/a	n/a
4449.298	n/a	RECOG_TARGET	2224649	n/a	LTP092	ltpFR	0	3	-1	CANDY	230	1	5	-1	n/a	n/a	n/a	n/a	n/a
4450.182	n/a	RECOG_RESP	2225091	n/a	LTP092	ltpFR	0	3	-1	CANDY	230	1	n/a	-1	n/a	n/a	n/a	n/a	n/a
4452.018	n/a	RECOG_CONF	2226009	n/a	LTP092	ltpFR	0	3	-1	CANDY	230	n/a	5	-1	n/a	n/a	n/a	n/a	n/a
4459.618	n/a	REC_START	2229809	n/a	LTP092	ltpFR	0	4	n/a	n/a	n/a	n/a	n/a	n/a	n/a	n/a	n/a	n/a	n/a
4459.648	n/a	RECOG_TARGET	2229824	n/a	LTP092	ltpFR	0	4	0	MAN	862	1	5	1	n/a	n/a	n/a	n/a	n/a
4461.24	n/a	RECOG_RESP	2230620	n/a	LTP092	ltpFR	0	4	0	MAN	862	1	n/a	1	n/a	n/a	n/a	n/a	n/a
4462.438	n/a	RECOG_CONF	2231219	n/a	LTP092	ltpFR	0	4	0	MAN	862	n/a	5	1	n/a	n/a	n/a	n/a	n/a
4463.916	n/a	RECOG_TARGET	2231958	n/a	LTP092	ltpFR	0	4	0	TAPE	1433	1	5	0	n/a	n/a	n/a	n/a	n/a
4465.022	n/a	RECOG_RESP	2232511	n/a	LTP092	ltpFR	0	4	0	TAPE	1433	1	n/a	0	n/a	n/a	n/a	n/a	n/a
4466.458	n/a	RECOG_CONF	2233229	n/a	LTP092	ltpFR	0	4	0	TAPE	1433	n/a	5	0	n/a	n/a	n/a	n/a	n/a
4467.89	n/a	RECOG_TARGET	2233945	n/a	LTP092	ltpFR	0	4	1	RADIO	1157	1	5	0	n/a	n/a	n/a	n/a	n/a
4468.584	n/a	RECOG_RESP	2234292	n/a	LTP092	ltpFR	0	4	1	RADIO	1157	1	n/a	0	n/a	n/a	n/a	n/a	n/a
4470.32	n/a	RECOG_CONF	2235160	n/a	LTP092	ltpFR	0	4	1	RADIO	1157	n/a	5	0	n/a	n/a	n/a	n/a	n/a
4471.798	n/a	RECOG_TARGET	2235899	n/a	LTP092	ltpFR	0	4	-1	CANNON	232	0	2	-1	n/a	n/a	n/a	n/a	n/a
4473.862	n/a	RECOG_RESP	2236931	n/a	LTP092	ltpFR	0	4	-1	CANNON	232	0	n/a	-1	n/a	n/a	n/a	n/a	n/a
4475.05	n/a	RECOG_CONF	2237525	n/a	LTP092	ltpFR	0	4	-1	CANNON	232	n/a	2	-1	n/a	n/a	n/a	n/a	n/a
4476.672	n/a	RECOG_LURE	2238336	n/a	LTP092	ltpFR	0	4	n/a	BANDANNA	80	0	4	n/a	n/a	n/a	n/a	n/a	n/a
4477.822	n/a	RECOG_RESP	2238911	n/a	LTP092	ltpFR	0	4	n/a	BANDANNA	80	0	n/a	n/a	n/a	n/a	n/a	n/a	n/a
4479.07	n/a	RECOG_CONF	2239535	n/a	LTP092	ltpFR	0	4	n/a	BANDANNA	80	n/a	4	n/a	n/a	n/a	n/a	n/a	n/a
4480.58	n/a	RECOG_LURE	2240290	n/a	LTP092	ltpFR	0	4	n/a	ACID	2	0	4	n/a	n/a	n/a	n/a	n/a	n/a
4481.464	n/a	RECOG_RESP	2240732	n/a	LTP092	ltpFR	0	4	n/a	ACID	2	0	n/a	n/a	n/a	n/a	n/a	n/a	n/a
4482.712	n/a	RECOG_CONF	2241356	n/a	LTP092	ltpFR	0	4	n/a	ACID	2	n/a	4	n/a	n/a	n/a	n/a	n/a	n/a
4484.146	n/a	RECOG_TARGET	2242073	n/a	LTP092	ltpFR	0	4	0	COAT	333	1	5	1	n/a	n/a	n/a	n/a	n/a
4485.342	n/a	RECOG_RESP	2242671	n/a	LTP092	ltpFR	0	4	0	COAT	333	1	n/a	1	n/a	n/a	n/a	n/a	n/a
4487.072	n/a	RECOG_CONF	2243536	n/a	LTP092	ltpFR	0	4	0	COAT	333	n/a	5	1	n/a	n/a	n/a	n/a	n/a
4488.73	n/a	RECOG_TARGET	2244365	n/a	LTP092	ltpFR	0	4	0	KNEE	784	1	5	0	n/a	n/a	n/a	n/a	n/a
4489.598	n/a	RECOG_RESP	2244799	n/a	LTP092	ltpFR	0	4	0	KNEE	784	1	n/a	0	n/a	n/a	n/a	n/a	n/a
4491.014	n/a	RECOG_CONF	2245507	n/a	LTP092	ltpFR	0	4	0	KNEE	784	n/a	5	0	n/a	n/a	n/a	n/a	n/a
4492.362	n/a	RECOG_TARGET	2246181	n/a	LTP092	ltpFR	0	4	0	COURSE	390	1	5	1	n/a	n/a	n/a	n/a	n/a
4493.228	n/a	RECOG_RESP	2246614	n/a	LTP092	ltpFR	0	4	0	COURSE	390	1	n/a	1	n/a	n/a	n/a	n/a	n/a
4494.746	n/a	RECOG_CONF	2247373	n/a	LTP092	ltpFR	0	4	0	COURSE	390	n/a	5	1	n/a	n/a	n/a	n/a	n/a
4496.388	n/a	RECOG_TARGET	2248194	n/a	LTP092	ltpFR	0	4	1	WAIST	1579	1	5	0	n/a	n/a	n/a	n/a	n/a
4497.11	n/a	RECOG_RESP	2248555	n/a	LTP092	ltpFR	0	4	1	WAIST	1579	1	n/a	0	n/a	n/a	n/a	n/a	n/a
4498.428	n/a	RECOG_CONF	2249214	n/a	LTP092	ltpFR	0	4	1	WAIST	1579	n/a	5	0	n/a	n/a	n/a	n/a	n/a
4499.814	n/a	RECOG_TARGET	2249907	n/a	LTP092	ltpFR	0	4	0	SHELL	1281	1	5	0	n/a	n/a	n/a	n/a	n/a
4500.982	n/a	RECOG_RESP	2250491	n/a	LTP092	ltpFR	0	4	0	SHELL	1281	1	n/a	0	n/a	n/a	n/a	n/a	n/a
4502.458	n/a	RECOG_CONF	2251229	n/a	LTP092	ltpFR	0	4	0	SHELL	1281	n/a	5	0	n/a	n/a	n/a	n/a	n/a
4504.172	n/a	RECOG_TARGET	2252086	n/a	LTP092	ltpFR	0	4	1	FEATHER	557	1	5	0	n/a	n/a	n/a	n/a	n/a
4504.978	n/a	RECOG_RESP	2252489	n/a	LTP092	ltpFR	0	4	1	FEATHER	557	1	n/a	0	n/a	n/a	n/a	n/a	n/a
4506.2	n/a	RECOG_CONF	2253100	n/a	LTP092	ltpFR	0	4	1	FEATHER	557	n/a	5	0	n/a	n/a	n/a	n/a	n/a
4507.956	n/a	RECOG_TARGET	2253978	n/a	LTP092	ltpFR	0	4	0	COP	376	1	2	1	n/a	n/a	n/a	n/a	n/a
4510.36	n/a	RECOG_RESP	2255180	n/a	LTP092	ltpFR	0	4	0	COP	376	1	n/a	1	n/a	n/a	n/a	n/a	n/a
4511.488	n/a	RECOG_CONF	2255744	n/a	LTP092	ltpFR	0	4	0	COP	376	n/a	2	1	n/a	n/a	n/a	n/a	n/a
4513.046	n/a	RECOG_TARGET	2256523	n/a	LTP092	ltpFR	0	4	0	STEW	1380	1	5	1	n/a	n/a	n/a	n/a	n/a
4513.902	n/a	RECOG_RESP	2256951	n/a	LTP092	ltpFR	0	4	0	STEW	1380	1	n/a	1	n/a	n/a	n/a	n/a	n/a
4514.89	n/a	RECOG_CONF	2257445	n/a	LTP092	ltpFR	0	4	0	STEW	1380	n/a	5	1	n/a	n/a	n/a	n/a	n/a
4516.554	n/a	RECOG_TARGET	2258277	n/a	LTP092	ltpFR	0	4	1	ANIMAL	23	1	5	1	n/a	n/a	n/a	n/a	n/a
4517.286	n/a	RECOG_RESP	2258643	n/a	LTP092	ltpFR	0	4	1	ANIMAL	23	1	n/a	1	n/a	n/a	n/a	n/a	n/a
4519.39	n/a	RECOG_CONF	2259695	n/a	LTP092	ltpFR	0	4	1	ANIMAL	23	n/a	5	1	n/a	n/a	n/a	n/a	n/a
4520.746	n/a	RECOG_TARGET	2260373	n/a	LTP092	ltpFR	0	4	-1	KEG	770	1	5	-1	n/a	n/a	n/a	n/a	n/a
4521.93	n/a	RECOG_RESP	2260965	n/a	LTP092	ltpFR	0	4	-1	KEG	770	1	n/a	-1	n/a	n/a	n/a	n/a	n/a
4523.292	n/a	RECOG_CONF	2261646	n/a	LTP092	ltpFR	0	4	-1	KEG	770	n/a	5	-1	n/a	n/a	n/a	n/a	n/a
4524.83	n/a	RECOG_TARGET	2262415	n/a	LTP092	ltpFR	0	4	-1	PUDDING	1139	1	5	-1	n/a	n/a	n/a	n/a	n/a
4525.698	n/a	RECOG_RESP	2262849	n/a	LTP092	ltpFR	0	4	-1	PUDDING	1139	1	n/a	-1	n/a	n/a	n/a	n/a	n/a
4526.854	n/a	RECOG_CONF	2263427	n/a	LTP092	ltpFR	0	4	-1	PUDDING	1139	n/a	5	-1	n/a	n/a	n/a	n/a	n/a
4528.212	n/a	RECOG_TARGET	2264106	n/a	LTP092	ltpFR	0	4	0	ROBBER	1197	0	4	1	n/a	n/a	n/a	n/a	n/a
4529.828	n/a	RECOG_RESP	2264914	n/a	LTP092	ltpFR	0	4	0	ROBBER	1197	0	n/a	1	n/a	n/a	n/a	n/a	n/a
4531.214	n/a	RECOG_CONF	2265607	n/a	LTP092	ltpFR	0	4	0	ROBBER	1197	n/a	4	1	n/a	n/a	n/a	n/a	n/a
4532.73	n/a	RECOG_TARGET	2266365	n/a	LTP092	ltpFR	0	4	1	PERSONNEL	1053	1	5	1	n/a	n/a	n/a	n/a	n/a
4533.948	n/a	RECOG_RESP	2266974	n/a	LTP092	ltpFR	0	4	1	PERSONNEL	1053	1	n/a	1	n/a	n/a	n/a	n/a	n/a
4535.436	n/a	RECOG_CONF	2267718	n/a	LTP092	ltpFR	0	4	1	PERSONNEL	1053	n/a	5	1	n/a	n/a	n/a	n/a	n/a
4537.062	n/a	RECOG_TARGET	2268531	n/a	LTP092	ltpFR	0	4	1	APPENDAGE	32	1	5	1	n/a	n/a	n/a	n/a	n/a
4537.854	n/a	RECOG_RESP	2268927	n/a	LTP092	ltpFR	0	4	1	APPENDAGE	32	1	n/a	1	n/a	n/a	n/a	n/a	n/a
4539.046	n/a	RECOG_CONF	2269523	n/a	LTP092	ltpFR	0	4	1	APPENDAGE	32	n/a	5	1	n/a	n/a	n/a	n/a	n/a
4543.074	n/a	REC_START	2271537	n/a	LTP092	ltpFR	0	5	n/a	n/a	n/a	n/a	n/a	n/a	n/a	n/a	n/a	n/a	n/a
4543.112	n/a	RECOG_LURE	2271556	n/a	LTP092	ltpFR	0	5	n/a	MOTOR	922	0	2	n/a	n/a	n/a	n/a	n/a	n/a
4545.344	n/a	RECOG_RESP	2272672	n/a	LTP092	ltpFR	0	5	n/a	MOTOR	922	0	n/a	n/a	n/a	n/a	n/a	n/a	n/a
4546.99	n/a	RECOG_CONF	2273495	n/a	LTP092	ltpFR	0	5	n/a	MOTOR	922	n/a	2	n/a	n/a	n/a	n/a	n/a	n/a
4548.354	n/a	RECOG_TARGET	2274177	n/a	LTP092	ltpFR	0	5	0	BABY	64	1	5	1	n/a	n/a	n/a	n/a	n/a
4549.13	n/a	RECOG_RESP	2274565	n/a	LTP092	ltpFR	0	5	0	BABY	64	1	n/a	1	n/a	n/a	n/a	n/a	n/a
4550.392	n/a	RECOG_CONF	2275196	n/a	LTP092	ltpFR	0	5	0	BABY	64	n/a	5	1	n/a	n/a	n/a	n/a	n/a
4552.012	n/a	RECOG_TARGET	2276006	n/a	LTP092	ltpFR	0	5	0	SEAL	1262	1	5	1	n/a	n/a	n/a	n/a	n/a
4552.916	n/a	RECOG_RESP	2276458	n/a	LTP092	ltpFR	0	5	0	SEAL	1262	1	n/a	1	n/a	n/a	n/a	n/a	n/a
4554.494	n/a	RECOG_CONF	2277247	n/a	LTP092	ltpFR	0	5	0	SEAL	1262	n/a	5	1	n/a	n/a	n/a	n/a	n/a
4556.152	n/a	RECOG_LURE	2278076	n/a	LTP092	ltpFR	0	5	n/a	LEG	809	0	5	n/a	n/a	n/a	n/a	n/a	n/a
4557.566	n/a	RECOG_RESP	2278783	n/a	LTP092	ltpFR	0	5	n/a	LEG	809	0	n/a	n/a	n/a	n/a	n/a	n/a	n/a
4558.994	n/a	RECOG_CONF	2279497	n/a	LTP092	ltpFR	0	5	n/a	LEG	809	n/a	5	n/a	n/a	n/a	n/a	n/a	n/a
4560.436	n/a	RECOG_TARGET	2280218	n/a	LTP092	ltpFR	0	5	0	SISTER	1312	1	5	1	n/a	n/a	n/a	n/a	n/a
4562.082	n/a	RECOG_RESP	2281041	n/a	LTP092	ltpFR	0	5	0	SISTER	1312	1	n/a	1	n/a	n/a	n/a	n/a	n/a
4563.624	n/a	RECOG_CONF	2281812	n/a	LTP092	ltpFR	0	5	0	SISTER	1312	n/a	5	1	n/a	n/a	n/a	n/a	n/a
4565.212	n/a	RECOG_TARGET	2282606	n/a	LTP092	ltpFR	0	5	0	WOMAN	1620	1	5	1	n/a	n/a	n/a	n/a	n/a
4565.918	n/a	RECOG_RESP	2282959	n/a	LTP092	ltpFR	0	5	0	WOMAN	1620	1	n/a	1	n/a	n/a	n/a	n/a	n/a
4567.534	n/a	RECOG_CONF	2283767	n/a	LTP092	ltpFR	0	5	0	WOMAN	1620	n/a	5	1	n/a	n/a	n/a	n/a	n/a
4568.904	n/a	RECOG_TARGET	2284452	n/a	LTP092	ltpFR	0	5	1	SKILLET	1317	1	5	0	n/a	n/a	n/a	n/a	n/a
4569.71	n/a	RECOG_RESP	2284855	n/a	LTP092	ltpFR	0	5	1	SKILLET	1317	1	n/a	0	n/a	n/a	n/a	n/a	n/a
4571.366	n/a	RECOG_CONF	2285683	n/a	LTP092	ltpFR	0	5	1	SKILLET	1317	n/a	5	0	n/a	n/a	n/a	n/a	n/a
4572.878	n/a	RECOG_TARGET	2286439	n/a	LTP092	ltpFR	0	5	1	CANOE	233	1	5	0	n/a	n/a	n/a	n/a	n/a
4573.75	n/a	RECOG_RESP	2286875	n/a	LTP092	ltpFR	0	5	1	CANOE	233	1	n/a	0	n/a	n/a	n/a	n/a	n/a
4575.426	n/a	RECOG_CONF	2287713	n/a	LTP092	ltpFR	0	5	1	CANOE	233	n/a	5	0	n/a	n/a	n/a	n/a	n/a
4576.92	n/a	RECOG_TARGET	2288460	n/a	LTP092	ltpFR	0	5	-1	DIME	466	1	2	-1	n/a	n/a	n/a	n/a	n/a
4578.24	n/a	RECOG_RESP	2289120	n/a	LTP092	ltpFR	0	5	-1	DIME	466	1	n/a	-1	n/a	n/a	n/a	n/a	n/a
4579.338	n/a	RECOG_CONF	2289669	n/a	LTP092	ltpFR	0	5	-1	DIME	466	n/a	2	-1	n/a	n/a	n/a	n/a	n/a
4580.944	n/a	RECOG_TARGET	2290472	n/a	LTP092	ltpFR	0	5	1	GALLON	618	1	5	0	n/a	n/a	n/a	n/a	n/a
4582.032	n/a	RECOG_RESP	2291016	n/a	LTP092	ltpFR	0	5	1	GALLON	618	1	n/a	0	n/a	n/a	n/a	n/a	n/a
4583.36	n/a	RECOG_CONF	2291680	n/a	LTP092	ltpFR	0	5	1	GALLON	618	n/a	5	0	n/a	n/a	n/a	n/a	n/a
4584.862	n/a	RECOG_TARGET	2292431	n/a	LTP092	ltpFR	0	5	1	BEAVER	109	1	5	1	n/a	n/a	n/a	n/a	n/a
4586.034	n/a	RECOG_RESP	2293017	n/a	LTP092	ltpFR	0	5	1	BEAVER	109	1	n/a	1	n/a	n/a	n/a	n/a	n/a
4587.52	n/a	RECOG_CONF	2293760	n/a	LTP092	ltpFR	0	5	1	BEAVER	109	n/a	5	1	n/a	n/a	n/a	n/a	n/a
4589.06	n/a	RECOG_TARGET	2294530	n/a	LTP092	ltpFR	0	5	0	AGENT	10	1	2	1	n/a	n/a	n/a	n/a	n/a
4590.718	n/a	RECOG_RESP	2295359	n/a	LTP092	ltpFR	0	5	0	AGENT	10	1	n/a	1	n/a	n/a	n/a	n/a	n/a
4592.41	n/a	RECOG_CONF	2296205	n/a	LTP092	ltpFR	0	5	0	AGENT	10	n/a	2	1	n/a	n/a	n/a	n/a	n/a
4593.886	n/a	RECOG_LURE	2296943	n/a	LTP092	ltpFR	0	5	n/a	SOFTBALL	1343	0	5	n/a	n/a	n/a	n/a	n/a	n/a
4594.874	n/a	RECOG_RESP	2297437	n/a	LTP092	ltpFR	0	5	n/a	SOFTBALL	1343	0	n/a	n/a	n/a	n/a	n/a	n/a	n/a
4596.32	n/a	RECOG_CONF	2298160	n/a	LTP092	ltpFR	0	5	n/a	SOFTBALL	1343	n/a	5	n/a	n/a	n/a	n/a	n/a	n/a
4597.82	n/a	RECOG_TARGET	2298910	n/a	LTP092	ltpFR	0	5	-1	ROBE	1198	1	5	-1	n/a	n/a	n/a	n/a	n/a
4599.214	n/a	RECOG_RESP	2299607	n/a	LTP092	ltpFR	0	5	-1	ROBE	1198	1	n/a	-1	n/a	n/a	n/a	n/a	n/a
4601.0	n/a	RECOG_CONF	2300500	n/a	LTP092	ltpFR	0	5	-1	ROBE	1198	n/a	5	-1	n/a	n/a	n/a	n/a	n/a
4602.404	n/a	RECOG_LURE	2301202	n/a	LTP092	ltpFR	0	5	n/a	SUITCASE	1403	0	5	n/a	n/a	n/a	n/a	n/a	n/a
4603.226	n/a	RECOG_RESP	2301613	n/a	LTP092	ltpFR	0	5	n/a	SUITCASE	1403	0	n/a	n/a	n/a	n/a	n/a	n/a	n/a
4604.872	n/a	RECOG_CONF	2302436	n/a	LTP092	ltpFR	0	5	n/a	SUITCASE	1403	n/a	5	n/a	n/a	n/a	n/a	n/a	n/a
4606.386	n/a	RECOG_TARGET	2303193	n/a	LTP092	ltpFR	0	5	0	FARMER	553	1	5	1	n/a	n/a	n/a	n/a	n/a
4608.12	n/a	RECOG_RESP	2304060	n/a	LTP092	ltpFR	0	5	0	FARMER	553	1	n/a	1	n/a	n/a	n/a	n/a	n/a
4610.13	n/a	RECOG_CONF	2305065	n/a	LTP092	ltpFR	0	5	0	FARMER	553	n/a	5	1	n/a	n/a	n/a	n/a	n/a
4611.678	n/a	RECOG_TARGET	2305839	n/a	LTP092	ltpFR	0	5	1	BROOK	177	0	5	0	n/a	n/a	n/a	n/a	n/a
4612.914	n/a	RECOG_RESP	2306457	n/a	LTP092	ltpFR	0	5	1	BROOK	177	0	n/a	0	n/a	n/a	n/a	n/a	n/a
4615.458	n/a	RECOG_CONF	2307729	n/a	LTP092	ltpFR	0	5	1	BROOK	177	n/a	5	0	n/a	n/a	n/a	n/a	n/a
4616.836	n/a	RECOG_TARGET	2308418	n/a	LTP092	ltpFR	0	5	0	BALLOON	75	1	5	0	n/a	n/a	n/a	n/a	n/a
4618.052	n/a	RECOG_RESP	2309026	n/a	LTP092	ltpFR	0	5	0	BALLOON	75	1	n/a	0	n/a	n/a	n/a	n/a	n/a
4620.706	n/a	RECOG_CONF	2310353	n/a	LTP092	ltpFR	0	5	0	BALLOON	75	n/a	5	0	n/a	n/a	n/a	n/a	n/a
4622.136	n/a	RECOG_LURE	2311068	n/a	LTP092	ltpFR	0	5	n/a	CREW	406	1	2	n/a	n/a	n/a	n/a	n/a	n/a
4623.29	n/a	RECOG_RESP	2311645	n/a	LTP092	ltpFR	0	5	n/a	CREW	406	1	n/a	n/a	n/a	n/a	n/a	n/a	n/a
4624.398	n/a	RECOG_CONF	2312199	n/a	LTP092	ltpFR	0	5	n/a	CREW	406	n/a	2	n/a	n/a	n/a	n/a	n/a	n/a
4625.802	n/a	RECOG_TARGET	2312901	n/a	LTP092	ltpFR	0	5	-1	HAMBURGER	679	1	2	-1	n/a	n/a	n/a	n/a	n/a
4626.744	n/a	RECOG_RESP	2313372	n/a	LTP092	ltpFR	0	5	-1	HAMBURGER	679	1	n/a	-1	n/a	n/a	n/a	n/a	n/a
4628.08	n/a	RECOG_CONF	2314040	n/a	LTP092	ltpFR	0	5	-1	HAMBURGER	679	n/a	2	-1	n/a	n/a	n/a	n/a	n/a
4635.954	n/a	REC_START	2317977	n/a	LTP092	ltpFR	0	6	n/a	n/a	n/a	n/a	n/a	n/a	n/a	n/a	n/a	n/a	n/a
4635.986	n/a	RECOG_TARGET	2317993	n/a	LTP092	ltpFR	0	6	1	INCENSE	735	1	5	0	n/a	n/a	n/a	n/a	n/a
4637.126	n/a	RECOG_RESP	2318563	n/a	LTP092	ltpFR	0	6	1	INCENSE	735	1	n/a	0	n/a	n/a	n/a	n/a	n/a
4638.284	n/a	RECOG_CONF	2319142	n/a	LTP092	ltpFR	0	6	1	INCENSE	735	n/a	5	0	n/a	n/a	n/a	n/a	n/a
4639.694	n/a	RECOG_TARGET	2319847	n/a	LTP092	ltpFR	0	6	0	OLIVE	975	1	5	3	n/a	n/a	n/a	n/a	n/a
4640.38	n/a	RECOG_RESP	2320190	n/a	LTP092	ltpFR	0	6	0	OLIVE	975	1	n/a	3	n/a	n/a	n/a	n/a	n/a
4641.538	n/a	RECOG_CONF	2320769	n/a	LTP092	ltpFR	0	6	0	OLIVE	975	n/a	5	3	n/a	n/a	n/a	n/a	n/a
4643.018	n/a	RECOG_TARGET	2321509	n/a	LTP092	ltpFR	0	6	1	CATTLE	261	1	5	1	n/a	n/a	n/a	n/a	n/a
4643.728	n/a	RECOG_RESP	2321864	n/a	LTP092	ltpFR	0	6	1	CATTLE	261	1	n/a	1	n/a	n/a	n/a	n/a	n/a
4645.3	n/a	RECOG_CONF	2322650	n/a	LTP092	ltpFR	0	6	1	CATTLE	261	n/a	5	1	n/a	n/a	n/a	n/a	n/a
4646.794	n/a	RECOG_LURE	2323397	n/a	LTP092	ltpFR	0	6	n/a	LOAF	835	0	2	n/a	n/a	n/a	n/a	n/a	n/a
4648.512	n/a	RECOG_RESP_VV	2324256	n/a	LTP092	ltpFR	0	6	n/a	LOAF	835	1	n/a	n/a	n/a	n/a	n/a	n/a	n/a
4649.868	n/a	RECOG_RESP	2324934	n/a	LTP092	ltpFR	0	6	n/a	LOAF	835	0	n/a	n/a	n/a	n/a	n/a	n/a	n/a
4651.016	n/a	RECOG_CONF	2325508	n/a	LTP092	ltpFR	0	6	n/a	LOAF	835	n/a	2	n/a	n/a	n/a	n/a	n/a	n/a
4652.502	n/a	RECOG_TARGET	2326251	n/a	LTP092	ltpFR	0	6	1	GENTLEMAN	631	1	5	1	n/a	n/a	n/a	n/a	n/a
4654.988	n/a	RECOG_RESP	2327494	n/a	LTP092	ltpFR	0	6	1	GENTLEMAN	631	1	n/a	1	n/a	n/a	n/a	n/a	n/a
4657.152	n/a	RECOG_CONF	2328576	n/a	LTP092	ltpFR	0	6	1	GENTLEMAN	631	n/a	5	1	n/a	n/a	n/a	n/a	n/a
4658.86	n/a	RECOG_LURE	2329430	n/a	LTP092	ltpFR	0	6	n/a	BLOCKADE	137	0	5	n/a	n/a	n/a	n/a	n/a	n/a
4659.89	n/a	RECOG_RESP	2329945	n/a	LTP092	ltpFR	0	6	n/a	BLOCKADE	137	0	n/a	n/a	n/a	n/a	n/a	n/a	n/a
4661.334	n/a	RECOG_CONF	2330667	n/a	LTP092	ltpFR	0	6	n/a	BLOCKADE	137	n/a	5	n/a	n/a	n/a	n/a	n/a	n/a
4663.61	n/a	RECOG_TARGET	2331805	n/a	LTP092	ltpFR	0	6	0	RAIL	1161	1	2	1	n/a	n/a	n/a	n/a	n/a
4664.606	n/a	RECOG_RESP	2332303	n/a	LTP092	ltpFR	0	6	0	RAIL	1161	1	n/a	1	n/a	n/a	n/a	n/a	n/a
