onset	duration	trial_type	sample	stim_file	subject	experiment	session	trial	item_name	item_num	list	answer	test_x	test_y	test_z
242.88232421875	n/a	SESS_START	497423	n/a	LTP365	ltpFR2	17	n/a	n/a	n/a	n/a	n/a	0	0	0
258.56103515625	n/a	START	529533	n/a	LTP365	ltpFR2	17	n/a	n/a	n/a	-1	n/a	n/a	n/a	n/a
258.591796875	n/a	PROB	529596	n/a	LTP365	ltpFR2	17	n/a	n/a	n/a	-1	20	6	7	7
260.6240234375	n/a	PROB	533758	n/a	LTP365	ltpFR2	17	n/a	n/a	n/a	-1	21	7	6	8
262.02392578125	n/a	PROB	536625	n/a	LTP365	ltpFR2	17	n/a	n/a	n/a	-1	13	8	1	4
264.5224609375	n/a	PROB	541742	n/a	LTP365	ltpFR2	17	n/a	n/a	n/a	-1	14	5	1	8
265.87158203125	n/a	PROB	544505	n/a	LTP365	ltpFR2	17	n/a	n/a	n/a	-1	24	8	9	7
267.73779296875	n/a	PROB	548327	n/a	LTP365	ltpFR2	17	n/a	n/a	n/a	-1	14	2	8	4
270.560546875	n/a	STOP	554108	n/a	LTP365	ltpFR2	17	n/a	n/a	n/a	-1	n/a	n/a	n/a	n/a
303.435546875	n/a	DISTRACTOR	621436	n/a	LTP365	ltpFR2	17	1	n/a	n/a	n/a	n/a	0	0	0
303.435546875	n/a	START	621436	n/a	LTP365	ltpFR2	17	n/a	n/a	n/a	1	n/a	n/a	n/a	n/a
303.45361328125	n/a	PROB	621473	n/a	LTP365	ltpFR2	17	n/a	n/a	n/a	1	18	1	8	9
304.71923828125	n/a	PROB	624065	n/a	LTP365	ltpFR2	17	n/a	n/a	n/a	1	12	6	5	1
306.03515625	n/a	PROB	626760	n/a	LTP365	ltpFR2	17	n/a	n/a	n/a	1	14	7	5	2
307.26806640625	n/a	PROB	629285	n/a	LTP365	ltpFR2	17	n/a	n/a	n/a	1	14	3	9	2
309.10009765625	n/a	PROB	633037	n/a	LTP365	ltpFR2	17	n/a	n/a	n/a	1	17	3	5	9
311.73193359375	n/a	PROB	638427	n/a	LTP365	ltpFR2	17	n/a	n/a	n/a	1	21	9	5	7
314.498046875	n/a	PROB	644092	n/a	LTP365	ltpFR2	17	n/a	n/a	n/a	1	12	1	8	3
315.78125	n/a	PROB	646720	n/a	LTP365	ltpFR2	17	n/a	n/a	n/a	1	15	4	8	3
317.546875	n/a	PROB	650336	n/a	LTP365	ltpFR2	17	n/a	n/a	n/a	1	14	4	1	9
318.69580078125	n/a	PROB	652689	n/a	LTP365	ltpFR2	17	n/a	n/a	n/a	1	24	6	9	9
321.74462890625	n/a	PROB	658933	n/a	LTP365	ltpFR2	17	n/a	n/a	n/a	1	14	1	4	9
322.876953125	n/a	PROB	661252	n/a	LTP365	ltpFR2	17	n/a	n/a	n/a	1	13	3	9	1
323.9599609375	n/a	PROB	663470	n/a	LTP365	ltpFR2	17	n/a	n/a	n/a	1	24	9	8	7
325.74267578125	n/a	PROB	667121	n/a	LTP365	ltpFR2	17	n/a	n/a	n/a	1	6	1	2	3
326.9794921875	n/a	STOP	669654	n/a	LTP365	ltpFR2	17	n/a	n/a	n/a	1	n/a	n/a	n/a	n/a
328.3076171875	n/a	WORD	672374	wordpools/wasnorm_wordpool_576.txt	LTP365	ltpFR2	17	1	PLAID	1080	n/a	n/a	0	0	0
330.79052734375	n/a	WORD	677459	wordpools/wasnorm_wordpool_576.txt	LTP365	ltpFR2	17	1	DRESS	495	n/a	n/a	0	0	0
333.42138671875	n/a	WORD	682847	wordpools/wasnorm_wordpool_576.txt	LTP365	ltpFR2	17	1	HORSE	719	n/a	n/a	0	0	0
336.021484375	n/a	WORD	688172	wordpools/wasnorm_wordpool_576.txt	LTP365	ltpFR2	17	1	LAMP	798	n/a	n/a	0	0	0
338.5361328125	n/a	WORD	693322	wordpools/wasnorm_wordpool_576.txt	LTP365	ltpFR2	17	1	TUNNEL	1519	n/a	n/a	0	0	0
340.9853515625	n/a	WORD	698338	wordpools/wasnorm_wordpool_576.txt	LTP365	ltpFR2	17	1	PATIENT	1024	n/a	n/a	0	0	0
343.5673828125	n/a	WORD	703626	wordpools/wasnorm_wordpool_576.txt	LTP365	ltpFR2	17	1	PADDING	999	n/a	n/a	0	0	0
346.3818359375	n/a	WORD	709390	wordpools/wasnorm_wordpool_576.txt	LTP365	ltpFR2	17	1	SPACE	1345	n/a	n/a	0	0	0
349.06494140625	n/a	WORD	714885	wordpools/wasnorm_wordpool_576.txt	LTP365	ltpFR2	17	1	THRONE	1461	n/a	n/a	0	0	0
351.8798828125	n/a	WORD	720650	wordpools/wasnorm_wordpool_576.txt	LTP365	ltpFR2	17	1	AWARD	63	n/a	n/a	0	0	0
354.32861328125	n/a	WORD	725665	wordpools/wasnorm_wordpool_576.txt	LTP365	ltpFR2	17	1	DRAWING	494	n/a	n/a	0	0	0
356.7607421875	n/a	WORD	730646	wordpools/wasnorm_wordpool_576.txt	LTP365	ltpFR2	17	1	JELLY	755	n/a	n/a	0	0	0
359.509765625	n/a	WORD	736276	wordpools/wasnorm_wordpool_576.txt	LTP365	ltpFR2	17	1	TABLE	1426	n/a	n/a	0	0	0
361.99169921875	n/a	WORD	741359	wordpools/wasnorm_wordpool_576.txt	LTP365	ltpFR2	17	1	TEACHER	1440	n/a	n/a	0	0	0
364.7236328125	n/a	WORD	746954	wordpools/wasnorm_wordpool_576.txt	LTP365	ltpFR2	17	1	PICTURE	1061	n/a	n/a	0	0	0
367.4892578125	n/a	WORD	752618	wordpools/wasnorm_wordpool_576.txt	LTP365	ltpFR2	17	1	MUSTARD	935	n/a	n/a	0	0	0
370.287109375	n/a	WORD	758348	wordpools/wasnorm_wordpool_576.txt	LTP365	ltpFR2	17	1	DENTIST	447	n/a	n/a	0	0	0
372.736328125	n/a	WORD	763364	wordpools/wasnorm_wordpool_576.txt	LTP365	ltpFR2	17	1	POPCORN	1104	n/a	n/a	0	0	0
375.35107421875	n/a	WORD	768719	wordpools/wasnorm_wordpool_576.txt	LTP365	ltpFR2	17	1	BLOUSE	139	n/a	n/a	0	0	0
377.833984375	n/a	WORD	773804	wordpools/wasnorm_wordpool_576.txt	LTP365	ltpFR2	17	1	QUEEN	1149	n/a	n/a	0	0	0
380.4990234375	n/a	WORD	779262	wordpools/wasnorm_wordpool_576.txt	LTP365	ltpFR2	17	1	CYCLONE	431	n/a	n/a	0	0	0
383.23193359375	n/a	WORD	784859	wordpools/wasnorm_wordpool_576.txt	LTP365	ltpFR2	17	1	COIN	343	n/a	n/a	0	0	0
385.91357421875	n/a	WORD	790351	wordpools/wasnorm_wordpool_576.txt	LTP365	ltpFR2	17	1	SHELTER	1282	n/a	n/a	0	0	0
388.61279296875	n/a	WORD	795879	wordpools/wasnorm_wordpool_576.txt	LTP365	ltpFR2	17	1	BLUEPRINT	142	n/a	n/a	0	0	0
390.228515625	n/a	START	799188	n/a	LTP365	ltpFR2	17	n/a	n/a	n/a	2	n/a	n/a	n/a	n/a
391.06982421875	n/a	DISTRACTOR	800911	n/a	LTP365	ltpFR2	17	1	n/a	n/a	n/a	n/a	0	0	0
391.07763671875	n/a	PROB	800927	n/a	LTP365	ltpFR2	17	n/a	n/a	n/a	2	12	5	3	4
393.859375	n/a	PROB	806624	n/a	LTP365	ltpFR2	17	n/a	n/a	n/a	2	15	7	3	5
395.1083984375	n/a	PROB	809182	n/a	LTP365	ltpFR2	17	n/a	n/a	n/a	2	14	4	6	4
396.357421875	n/a	PROB	811740	n/a	LTP365	ltpFR2	17	n/a	n/a	n/a	2	14	9	4	1
397.8076171875	n/a	PROB	814710	n/a	LTP365	ltpFR2	17	n/a	n/a	n/a	2	24	8	9	9
399.92333984375	n/a	PROB	819043	n/a	LTP365	ltpFR2	17	n/a	n/a	n/a	2	11	3	2	6
403.00537109375	n/a	PROB	825355	n/a	LTP365	ltpFR2	17	n/a	n/a	n/a	2	19	4	6	9
404.33837890625	n/a	PROB	828085	n/a	LTP365	ltpFR2	17	n/a	n/a	n/a	2	23	7	7	9
406.0703125	n/a	PROB	831632	n/a	LTP365	ltpFR2	17	n/a	n/a	n/a	2	7	1	3	3
407.30322265625	n/a	PROB	834157	n/a	LTP365	ltpFR2	17	n/a	n/a	n/a	2	21	3	9	9
408.85205078125	n/a	PROB	837329	n/a	LTP365	ltpFR2	17	n/a	n/a	n/a	2	24	8	8	8
410.1181640625	n/a	PROB	839922	n/a	LTP365	ltpFR2	17	n/a	n/a	n/a	2	18	9	1	8
411.91796875	n/a	PROB	843608	n/a	LTP365	ltpFR2	17	n/a	n/a	n/a	2	17	2	9	6
414.02001953125	n/a	STOP	847913	n/a	LTP365	ltpFR2	17	n/a	n/a	n/a	2	n/a	n/a	n/a	n/a
416.099609375	n/a	REC_START	852172	n/a	LTP365	ltpFR2	17	1	n/a	n/a	n/a	n/a	0	0	0
417.4609375	n/a	REC_WORD	854960	wordpools/wasnorm_wordpool_576.txt	LTP365	ltpFR2	17	1	PADDING	999	n/a	n/a	0	0	0
418.19287109375	n/a	REC_WORD	856459	wordpools/wasnorm_wordpool_576.txt	LTP365	ltpFR2	17	1	SHELTER	1282	n/a	n/a	0	0	0
419.07763671875	n/a	REC_WORD	858271	wordpools/wasnorm_wordpool_576.txt	LTP365	ltpFR2	17	1	QUEEN	1149	n/a	n/a	0	0	0
419.82958984375	n/a	REC_WORD	859811	wordpools/wasnorm_wordpool_576.txt	LTP365	ltpFR2	17	1	THRONE	1461	n/a	n/a	0	0	0
420.78857421875	n/a	REC_WORD	861775	wordpools/wasnorm_wordpool_576.txt	LTP365	ltpFR2	17	1	DRAWING	494	n/a	n/a	0	0	0
422.0048828125	n/a	REC_WORD	864266	wordpools/wasnorm_wordpool_576.txt	LTP365	ltpFR2	17	1	PICTURE	1061	n/a	n/a	0	0	0
428.3916015625	n/a	REC_WORD	877346	wordpools/wasnorm_wordpool_576.txt	LTP365	ltpFR2	17	1	PLAID	1080	n/a	n/a	0	0	0
429.25244140625	n/a	REC_WORD	879109	wordpools/wasnorm_wordpool_576.txt	LTP365	ltpFR2	17	1	TUNNEL	1519	n/a	n/a	0	0	0
430.0986328125	n/a	REC_WORD	880842	wordpools/wasnorm_wordpool_576.txt	LTP365	ltpFR2	17	1	DRESS	495	n/a	n/a	0	0	0
431.00244140625	n/a	REC_WORD	882693	wordpools/wasnorm_wordpool_576.txt	LTP365	ltpFR2	17	1	BLOUSE	139	n/a	n/a	0	0	0
440.8408203125	n/a	REC_WORD	902842	wordpools/wasnorm_wordpool_576.txt	LTP365	ltpFR2	17	1	BLUEPRINT	142	n/a	n/a	0	0	0
442.705078125	n/a	REC_WORD	906660	wordpools/wasnorm_wordpool_576.txt	LTP365	ltpFR2	17	1	BLUEPRINT	142	n/a	n/a	0	0	0
466.443359375	n/a	REC_WORD	955276	wordpools/wasnorm_wordpool_576.txt	LTP365	ltpFR2	17	1	AWARD	63	n/a	n/a	0	0	0
506.55517578125	n/a	WORD	1037425	wordpools/wasnorm_wordpool_576.txt	LTP365	ltpFR2	17	2	XEROX	1628	n/a	n/a	0	0	0
509.3359375	n/a	WORD	1043120	wordpools/wasnorm_wordpool_576.txt	LTP365	ltpFR2	17	2	DIME	466	n/a	n/a	0	0	0
512.1357421875	n/a	WORD	1048854	wordpools/wasnorm_wordpool_576.txt	LTP365	ltpFR2	17	2	HANDBAG	684	n/a	n/a	0	0	0
514.95068359375	n/a	WORD	1054619	wordpools/wasnorm_wordpool_576.txt	LTP365	ltpFR2	17	2	BACKBONE	66	n/a	n/a	0	0	0
517.74951171875	n/a	WORD	1060351	wordpools/wasnorm_wordpool_576.txt	LTP365	ltpFR2	17	2	LIVER	833	n/a	n/a	0	0	0
520.4306640625	n/a	WORD	1065842	wordpools/wasnorm_wordpool_576.txt	LTP365	ltpFR2	17	2	COLONEL	348	n/a	n/a	0	0	0
523.11328125	n/a	WORD	1071336	wordpools/wasnorm_wordpool_576.txt	LTP365	ltpFR2	17	2	ARMY	39	n/a	n/a	0	0	0
525.87939453125	n/a	WORD	1077001	wordpools/wasnorm_wordpool_576.txt	LTP365	ltpFR2	17	2	BLADE	134	n/a	n/a	0	0	0
528.67724609375	n/a	WORD	1082731	wordpools/wasnorm_wordpool_576.txt	LTP365	ltpFR2	17	2	TILE	1468	n/a	n/a	0	0	0
531.16015625	n/a	WORD	1087816	wordpools/wasnorm_wordpool_576.txt	LTP365	ltpFR2	17	2	PUPIL	1143	n/a	n/a	0	0	0
533.75927734375	n/a	WORD	1093139	wordpools/wasnorm_wordpool_576.txt	LTP365	ltpFR2	17	2	FUNGUS	614	n/a	n/a	0	0	0
536.47412109375	n/a	WORD	1098699	wordpools/wasnorm_wordpool_576.txt	LTP365	ltpFR2	17	2	MACHINE	852	n/a	n/a	0	0	0
539.10595703125	n/a	WORD	1104089	wordpools/wasnorm_wordpool_576.txt	LTP365	ltpFR2	17	2	HEADBAND	696	n/a	n/a	0	0	0
541.7548828125	n/a	WORD	1109514	wordpools/wasnorm_wordpool_576.txt	LTP365	ltpFR2	17	2	INFANT	737	n/a	n/a	0	0	0
544.4697265625	n/a	WORD	1115074	wordpools/wasnorm_wordpool_576.txt	LTP365	ltpFR2	17	2	SERVER	1272	n/a	n/a	0	0	0
547.185546875	n/a	WORD	1120636	wordpools/wasnorm_wordpool_576.txt	LTP365	ltpFR2	17	2	GAZELLE	628	n/a	n/a	0	0	0
549.83447265625	n/a	WORD	1126061	wordpools/wasnorm_wordpool_576.txt	LTP365	ltpFR2	17	2	BEAST	108	n/a	n/a	0	0	0
552.482421875	n/a	WORD	1131484	wordpools/wasnorm_wordpool_576.txt	LTP365	ltpFR2	17	2	PEANUT	1032	n/a	n/a	0	0	0
555.24853515625	n/a	WORD	1137149	wordpools/wasnorm_wordpool_576.txt	LTP365	ltpFR2	17	2	PARROT	1015	n/a	n/a	0	0	0
557.76318359375	n/a	WORD	1142299	wordpools/wasnorm_wordpool_576.txt	LTP365	ltpFR2	17	2	FRIAR	605	n/a	n/a	0	0	0
560.4111328125	n/a	WORD	1147722	wordpools/wasnorm_wordpool_576.txt	LTP365	ltpFR2	17	2	RUG	1215	n/a	n/a	0	0	0
562.9443359375	n/a	WORD	1152910	wordpools/wasnorm_wordpool_576.txt	LTP365	ltpFR2	17	2	GLASS	639	n/a	n/a	0	0	0
565.67626953125	n/a	WORD	1158505	wordpools/wasnorm_wordpool_576.txt	LTP365	ltpFR2	17	2	ROBIN	1199	n/a	n/a	0	0	0
568.47509765625	n/a	WORD	1164237	wordpools/wasnorm_wordpool_576.txt	LTP365	ltpFR2	17	2	SERVANT	1271	n/a	n/a	0	0	0
570.0908203125	n/a	START	1167546	n/a	LTP365	ltpFR2	17	n/a	n/a	n/a	3	n/a	n/a	n/a	n/a
571.18896484375	n/a	DISTRACTOR	1169795	n/a	LTP365	ltpFR2	17	2	n/a	n/a	n/a	n/a	0	0	0
571.19091796875	n/a	PROB	1169799	n/a	LTP365	ltpFR2	17	n/a	n/a	n/a	3	13	2	3	8
572.90576171875	n/a	PROB	1173311	n/a	LTP365	ltpFR2	17	n/a	n/a	n/a	3	14	5	7	1
574.68896484375	n/a	PROB	1176963	n/a	LTP365	ltpFR2	17	n/a	n/a	n/a	3	20	7	4	9
576.38671875	n/a	PROB	1180440	n/a	LTP365	ltpFR2	17	n/a	n/a	n/a	3	18	4	6	8
577.6376953125	n/a	PROB	1183002	n/a	LTP365	ltpFR2	17	n/a	n/a	n/a	3	12	1	7	4
579.06982421875	n/a	PROB	1185935	n/a	LTP365	ltpFR2	17	n/a	n/a	n/a	3	5	1	1	3
580.302734375	n/a	PROB	1188460	n/a	LTP365	ltpFR2	17	n/a	n/a	n/a	3	13	4	7	2
581.96875	n/a	PROB	1191872	n/a	LTP365	ltpFR2	17	n/a	n/a	n/a	3	11	1	3	7
583.1015625	n/a	PROB	1194192	n/a	LTP365	ltpFR2	17	n/a	n/a	n/a	3	24	8	9	7
585.38232421875	n/a	PROB	1198863	n/a	LTP365	ltpFR2	17	n/a	n/a	n/a	3	18	7	3	8
586.6162109375	n/a	PROB	1201390	n/a	LTP365	ltpFR2	17	n/a	n/a	n/a	3	19	5	7	7
588.29931640625	n/a	PROB	1204837	n/a	LTP365	ltpFR2	17	n/a	n/a	n/a	3	14	6	6	2
589.63134765625	n/a	PROB	1207565	n/a	LTP365	ltpFR2	17	n/a	n/a	n/a	3	15	5	5	5
590.6484375	n/a	PROB	1209648	n/a	LTP365	ltpFR2	17	n/a	n/a	n/a	3	14	9	2	3
592.13037109375	n/a	PROB	1212683	n/a	LTP365	ltpFR2	17	n/a	n/a	n/a	3	12	6	1	5
593.39404296875	n/a	STOP	1215271	n/a	LTP365	ltpFR2	17	n/a	n/a	n/a	3	n/a	n/a	n/a	n/a
595.9453125	n/a	REC_START	1220496	n/a	LTP365	ltpFR2	17	2	n/a	n/a	n/a	n/a	0	0	0
596.4111328125	n/a	REC_WORD	1221450	wordpools/wasnorm_wordpool_576.txt	LTP365	ltpFR2	17	2	SERVER	1272	n/a	n/a	0	0	0
597.244140625	n/a	REC_WORD	1223156	wordpools/wasnorm_wordpool_576.txt	LTP365	ltpFR2	17	2	SERVANT	1271	n/a	n/a	0	0	0
599.0341796875	n/a	REC_WORD	1226822	wordpools/wasnorm_wordpool_576.txt	LTP365	ltpFR2	17	2	ROBIN	1199	n/a	n/a	0	0	0
600.0048828125	n/a	REC_WORD	1228810	wordpools/wasnorm_wordpool_576.txt	LTP365	ltpFR2	17	2	MACHINE	852	n/a	n/a	0	0	0
601.078125	n/a	REC_WORD	1231008	wordpools/wasnorm_wordpool_576.txt	LTP365	ltpFR2	17	2	XEROX	1628	n/a	n/a	0	0	0
602.19384765625	n/a	REC_WORD	1233293	wordpools/wasnorm_wordpool_576.txt	LTP365	ltpFR2	17	2	INFANT	737	n/a	n/a	0	0	0
603.2099609375	n/a	REC_WORD	1235374	wordpools/wasnorm_wordpool_576.txt	LTP365	ltpFR2	17	2	PARROT	1015	n/a	n/a	0	0	0
605.08984375	n/a	REC_WORD	1239224	wordpools/wasnorm_wordpool_576.txt	LTP365	ltpFR2	17	2	TILE	1468	n/a	n/a	0	0	0
605.90771484375	n/a	REC_WORD	1240899	wordpools/wasnorm_wordpool_576.txt	LTP365	ltpFR2	17	2	GLASS	639	n/a	n/a	0	0	0
606.78173828125	n/a	REC_WORD	1242689	wordpools/wasnorm_wordpool_576.txt	LTP365	ltpFR2	17	2	RUG	1215	n/a	n/a	0	0	0
610.548828125	n/a	REC_WORD	1250404	wordpools/wasnorm_wordpool_576.txt	LTP365	ltpFR2	17	2	FRIAR	605	n/a	n/a	0	0	0
611.57080078125	n/a	REC_WORD	1252497	wordpools/wasnorm_wordpool_576.txt	LTP365	ltpFR2	17	2	COLONEL	348	n/a	n/a	0	0	0
612.517578125	n/a	REC_WORD	1254436	wordpools/wasnorm_wordpool_576.txt	LTP365	ltpFR2	17	2	ARMY	39	n/a	n/a	0	0	0
614.3193359375	n/a	REC_WORD	1258126	wordpools/wasnorm_wordpool_576.txt	LTP365	ltpFR2	17	2	FUNGUS	614	n/a	n/a	0	0	0
616.3076171875	n/a	REC_WORD	1262198	wordpools/wasnorm_wordpool_576.txt	LTP365	ltpFR2	17	2	BLADE	134	n/a	n/a	0	0	0
618.49560546875	n/a	REC_WORD	1266679	wordpools/wasnorm_wordpool_576.txt	LTP365	ltpFR2	17	2	BACKBONE	66	n/a	n/a	0	0	0
619.83154296875	n/a	REC_WORD	1269415	wordpools/wasnorm_wordpool_576.txt	LTP365	ltpFR2	17	2	LIVER	833	n/a	n/a	0	0	0
620.9775390625	n/a	REC_WORD	1271762	wordpools/wasnorm_wordpool_576.txt	LTP365	ltpFR2	17	2	PUPIL	1143	n/a	n/a	0	0	0
633.5419921875	n/a	REC_WORD	1297494	wordpools/wasnorm_wordpool_576.txt	LTP365	ltpFR2	17	2	HANDBAG	684	n/a	n/a	0	0	0
638.12353515625	n/a	REC_WORD	1306877	wordpools/wasnorm_wordpool_576.txt	LTP365	ltpFR2	17	2	HEADBAND	696	n/a	n/a	0	0	0
686.38427734375	n/a	WORD	1405715	wordpools/wasnorm_wordpool_576.txt	LTP365	ltpFR2	17	3	NAPKIN	937	n/a	n/a	0	0	0
688.8173828125	n/a	WORD	1410698	wordpools/wasnorm_wordpool_576.txt	LTP365	ltpFR2	17	3	GROUND	666	n/a	n/a	0	0	0
691.46630859375	n/a	WORD	1416123	wordpools/wasnorm_wordpool_576.txt	LTP365	ltpFR2	17	3	SPOUSE	1358	n/a	n/a	0	0	0
694.01416015625	n/a	WORD	1421341	wordpools/wasnorm_wordpool_576.txt	LTP365	ltpFR2	17	3	WAITER	1580	n/a	n/a	0	0	0
696.580078125	n/a	WORD	1426596	wordpools/wasnorm_wordpool_576.txt	LTP365	ltpFR2	17	3	BANQUET	86	n/a	n/a	0	0	0
699.27880859375	n/a	WORD	1432123	wordpools/wasnorm_wordpool_576.txt	LTP365	ltpFR2	17	3	HAMPER	682	n/a	n/a	0	0	0
701.7275390625	n/a	WORD	1437138	wordpools/wasnorm_wordpool_576.txt	LTP365	ltpFR2	17	3	FOOT	590	n/a	n/a	0	0	0
704.44287109375	n/a	WORD	1442699	wordpools/wasnorm_wordpool_576.txt	LTP365	ltpFR2	17	3	UMPIRE	1535	n/a	n/a	0	0	0
707.04150390625	n/a	WORD	1448021	wordpools/wasnorm_wordpool_576.txt	LTP365	ltpFR2	17	3	RACKET	1155	n/a	n/a	0	0	0
709.59033203125	n/a	WORD	1453241	wordpools/wasnorm_wordpool_576.txt	LTP365	ltpFR2	17	3	POET	1095	n/a	n/a	0	0	0
712.33740234375	n/a	WORD	1458867	wordpools/wasnorm_wordpool_576.txt	LTP365	ltpFR2	17	3	WASHER	1592	n/a	n/a	0	0	0
714.9873046875	n/a	WORD	1464294	wordpools/wasnorm_wordpool_576.txt	LTP365	ltpFR2	17	3	TRIBE	1505	n/a	n/a	0	0	0
717.71923828125	n/a	WORD	1469889	wordpools/wasnorm_wordpool_576.txt	LTP365	ltpFR2	17	3	FOX	598	n/a	n/a	0	0	0
720.43408203125	n/a	WORD	1475449	wordpools/wasnorm_wordpool_576.txt	LTP365	ltpFR2	17	3	PIMPLE	1071	n/a	n/a	0	0	0
723.2001953125	n/a	WORD	1481114	wordpools/wasnorm_wordpool_576.txt	LTP365	ltpFR2	17	3	POCKET	1093	n/a	n/a	0	0	0
726.01611328125	n/a	WORD	1486881	wordpools/wasnorm_wordpool_576.txt	LTP365	ltpFR2	17	3	MONSTER	912	n/a	n/a	0	0	0
728.59765625	n/a	WORD	1492168	wordpools/wasnorm_wordpool_576.txt	LTP365	ltpFR2	17	3	PARTNER	1017	n/a	n/a	0	0	0
731.212890625	n/a	WORD	1497524	wordpools/wasnorm_wordpool_576.txt	LTP365	ltpFR2	17	3	ATOM	55	n/a	n/a	0	0	0
733.74462890625	n/a	WORD	1502709	wordpools/wasnorm_wordpool_576.txt	LTP365	ltpFR2	17	3	PROTON	1132	n/a	n/a	0	0	0
736.5107421875	n/a	WORD	1508374	wordpools/wasnorm_wordpool_576.txt	LTP365	ltpFR2	17	3	PORTRAIT	1111	n/a	n/a	0	0	0
739.1923828125	n/a	WORD	1513866	wordpools/wasnorm_wordpool_576.txt	LTP365	ltpFR2	17	3	JEANS	752	n/a	n/a	0	0	0
741.95751953125	n/a	WORD	1519529	wordpools/wasnorm_wordpool_576.txt	LTP365	ltpFR2	17	3	TART	1436	n/a	n/a	0	0	0
744.5732421875	n/a	WORD	1524886	wordpools/wasnorm_wordpool_576.txt	LTP365	ltpFR2	17	3	MEAT	883	n/a	n/a	0	0	0
747.03955078125	n/a	WORD	1529937	wordpools/wasnorm_wordpool_576.txt	LTP365	ltpFR2	17	3	GIRL	637	n/a	n/a	0	0	0
748.6552734375	n/a	START	1533246	n/a	LTP365	ltpFR2	17	n/a	n/a	n/a	4	n/a	n/a	n/a	n/a
749.75244140625	n/a	DISTRACTOR	1535493	n/a	LTP365	ltpFR2	17	3	n/a	n/a	n/a	n/a	0	0	0
749.75439453125	n/a	PROB	1535497	n/a	LTP365	ltpFR2	17	n/a	n/a	n/a	4	20	5	6	9
751.6533203125	n/a	PROB	1539386	n/a	LTP365	ltpFR2	17	n/a	n/a	n/a	4	24	8	8	8
753.119140625	n/a	PROB	1542388	n/a	LTP365	ltpFR2	17	n/a	n/a	n/a	4	8	1	3	4
754.56787109375	n/a	PROB	1545355	n/a	LTP365	ltpFR2	17	n/a	n/a	n/a	4	12	3	2	7
755.951171875	n/a	PROB	1548188	n/a	LTP365	ltpFR2	17	n/a	n/a	n/a	4	13	8	2	3
757.26708984375	n/a	PROB	1550883	n/a	LTP365	ltpFR2	17	n/a	n/a	n/a	4	7	1	2	4
759.18310546875	n/a	PROB	1554807	n/a	LTP365	ltpFR2	17	n/a	n/a	n/a	4	9	1	7	1
760.548828125	n/a	PROB	1557604	n/a	LTP365	ltpFR2	17	n/a	n/a	n/a	4	22	7	6	9
763.3466796875	n/a	PROB	1563334	n/a	LTP365	ltpFR2	17	n/a	n/a	n/a	4	14	3	2	9
764.77978515625	n/a	PROB	1566269	n/a	LTP365	ltpFR2	17	n/a	n/a	n/a	4	13	6	5	2
766.32861328125	n/a	PROB	1569441	n/a	LTP365	ltpFR2	17	n/a	n/a	n/a	4	14	8	3	3
767.77880859375	n/a	PROB	1572411	n/a	LTP365	ltpFR2	17	n/a	n/a	n/a	4	17	3	6	8
769.64453125	n/a	PROB	1576232	n/a	LTP365	ltpFR2	17	n/a	n/a	n/a	4	15	6	1	8
771.3623046875	n/a	STOP	1579750	n/a	LTP365	ltpFR2	17	n/a	n/a	n/a	4	n/a	n/a	n/a	n/a
774.4755859375	n/a	REC_START	1586126	n/a	LTP365	ltpFR2	17	3	n/a	n/a	n/a	n/a	0	0	0
775.8642578125	n/a	REC_WORD	1588970	wordpools/wasnorm_wordpool_576.txt	LTP365	ltpFR2	17	3	TRIBE	1505	n/a	n/a	0	0	0
777.0224609375	n/a	REC_WORD	1591342	wordpools/wasnorm_wordpool_576.txt	LTP365	ltpFR2	17	3	PORTRAIT	1111	n/a	n/a	0	0	0
777.99853515625	n/a	REC_WORD	1593341	wordpools/wasnorm_wordpool_576.txt	LTP365	ltpFR2	17	3	MONSTER	912	n/a	n/a	0	0	0
779.58642578125	n/a	REC_WORD	1596593	wordpools/wasnorm_wordpool_576.txt	LTP365	ltpFR2	17	3	WASHER	1592	n/a	n/a	0	0	0
780.75341796875	n/a	REC_WORD	1598983	wordpools/wasnorm_wordpool_576.txt	LTP365	ltpFR2	17	3	HAMPER	682	n/a	n/a	0	0	0
782.9853515625	n/a	REC_WORD	1603554	wordpools/wasnorm_wordpool_576.txt	LTP365	ltpFR2	17	3	WAITER	1580	n/a	n/a	0	0	0
784.080078125	n/a	REC_WORD	1605796	wordpools/wasnorm_wordpool_576.txt	LTP365	ltpFR2	17	3	BANQUET	86	n/a	n/a	0	0	0
784.92822265625	n/a	REC_WORD	1607533	wordpools/wasnorm_wordpool_576.txt	LTP365	ltpFR2	17	3	NAPKIN	937	n/a	n/a	0	0	0
785.98486328125	n/a	REC_WORD	1609697	wordpools/wasnorm_wordpool_576.txt	LTP365	ltpFR2	17	3	GROUND	666	n/a	n/a	0	0	0
786.9111328125	n/a	REC_WORD	1611594	wordpools/wasnorm_wordpool_576.txt	LTP365	ltpFR2	17	3	SPOUSE	1358	n/a	n/a	0	0	0
789.6328125	n/a	REC_WORD	1617168	wordpools/wasnorm_wordpool_576.txt	LTP365	ltpFR2	17	3	PARTNER	1017	n/a	n/a	0	0	0
792.48095703125	n/a	REC_WORD	1623001	wordpools/wasnorm_wordpool_576.txt	LTP365	ltpFR2	17	3	UMPIRE	1535	n/a	n/a	0	0	0
796.255859375	n/a	REC_WORD	1630732	wordpools/wasnorm_wordpool_576.txt	LTP365	ltpFR2	17	3	POET	1095	n/a	n/a	0	0	0
797.27880859375	n/a	REC_WORD	1632827	wordpools/wasnorm_wordpool_576.txt	LTP365	ltpFR2	17	3	ATOM	55	n/a	n/a	0	0	0
798.7548828125	n/a	REC_WORD	1635850	wordpools/wasnorm_wordpool_576.txt	LTP365	ltpFR2	17	3	PROTON	1132	n/a	n/a	0	0	0
804.59228515625	n/a	REC_WORD	1647805	wordpools/wasnorm_wordpool_576.txt	LTP365	ltpFR2	17	3	RACKET	1155	n/a	n/a	0	0	0
864.931640625	n/a	WORD	1771380	wordpools/wasnorm_wordpool_576.txt	LTP365	ltpFR2	17	4	CURTAIN	427	n/a	n/a	0	0	0
867.4296875	n/a	WORD	1776496	wordpools/wasnorm_wordpool_576.txt	LTP365	ltpFR2	17	4	ROD	1203	n/a	n/a	0	0	0
870.1455078125	n/a	WORD	1782058	wordpools/wasnorm_wordpool_576.txt	LTP365	ltpFR2	17	4	QUARTER	1148	n/a	n/a	0	0	0
872.7783203125	n/a	WORD	1787450	wordpools/wasnorm_wordpool_576.txt	LTP365	ltpFR2	17	4	KLEENEX	782	n/a	n/a	0	0	0
875.4091796875	n/a	WORD	1792838	wordpools/wasnorm_wordpool_576.txt	LTP365	ltpFR2	17	4	SODA	1341	n/a	n/a	0	0	0
878.00927734375	n/a	WORD	1798163	wordpools/wasnorm_wordpool_576.txt	LTP365	ltpFR2	17	4	SHARK	1275	n/a	n/a	0	0	0
880.60693359375	n/a	WORD	1803483	wordpools/wasnorm_wordpool_576.txt	LTP365	ltpFR2	17	4	HOSTESS	723	n/a	n/a	0	0	0
883.1728515625	n/a	WORD	1808738	wordpools/wasnorm_wordpool_576.txt	LTP365	ltpFR2	17	4	BUREAU	199	n/a	n/a	0	0	0
885.68798828125	n/a	WORD	1813889	wordpools/wasnorm_wordpool_576.txt	LTP365	ltpFR2	17	4	NIGHTGOWN	953	n/a	n/a	0	0	0
888.12060546875	n/a	WORD	1818871	wordpools/wasnorm_wordpool_576.txt	LTP365	ltpFR2	17	4	POWDER	1117	n/a	n/a	0	0	0
890.61865234375	n/a	WORD	1823987	wordpools/wasnorm_wordpool_576.txt	LTP365	ltpFR2	17	4	OINTMENT	974	n/a	n/a	0	0	0
893.267578125	n/a	WORD	1829412	wordpools/wasnorm_wordpool_576.txt	LTP365	ltpFR2	17	4	LEOPARD	812	n/a	n/a	0	0	0
895.8505859375	n/a	WORD	1834702	wordpools/wasnorm_wordpool_576.txt	LTP365	ltpFR2	17	4	LIGHTNING	820	n/a	n/a	0	0	0
898.515625	n/a	WORD	1840160	wordpools/wasnorm_wordpool_576.txt	LTP365	ltpFR2	17	4	CRICKET	408	n/a	n/a	0	0	0
901.314453125	n/a	WORD	1845892	wordpools/wasnorm_wordpool_576.txt	LTP365	ltpFR2	17	4	SPIDER	1351	n/a	n/a	0	0	0
904.0625	n/a	WORD	1851520	wordpools/wasnorm_wordpool_576.txt	LTP365	ltpFR2	17	4	COSTUME	383	n/a	n/a	0	0	0
906.6953125	n/a	WORD	1856912	wordpools/wasnorm_wordpool_576.txt	LTP365	ltpFR2	17	4	BISON	131	n/a	n/a	0	0	0
909.3759765625	n/a	WORD	1862402	wordpools/wasnorm_wordpool_576.txt	LTP365	ltpFR2	17	4	LOFT	840	n/a	n/a	0	0	0
911.9921875	n/a	WORD	1867760	wordpools/wasnorm_wordpool_576.txt	LTP365	ltpFR2	17	4	SIDEWALK	1303	n/a	n/a	0	0	0
914.69091796875	n/a	WORD	1873287	wordpools/wasnorm_wordpool_576.txt	LTP365	ltpFR2	17	4	STUDENT	1395	n/a	n/a	0	0	0
917.4560546875	n/a	WORD	1878950	wordpools/wasnorm_wordpool_576.txt	LTP365	ltpFR2	17	4	FILM	565	n/a	n/a	0	0	0
919.921875	n/a	WORD	1884000	wordpools/wasnorm_wordpool_576.txt	LTP365	ltpFR2	17	4	CONVICT	371	n/a	n/a	0	0	0
922.4365234375	n/a	WORD	1889150	wordpools/wasnorm_wordpool_576.txt	LTP365	ltpFR2	17	4	VICTIM	1562	n/a	n/a	0	0	0
925.15283203125	n/a	WORD	1894713	wordpools/wasnorm_wordpool_576.txt	LTP365	ltpFR2	17	4	WITNESS	1618	n/a	n/a	0	0	0
926.7685546875	n/a	START	1898022	n/a	LTP365	ltpFR2	17	n/a	n/a	n/a	5	n/a	n/a	n/a	n/a
927.69775390625	n/a	DISTRACTOR	1899925	n/a	LTP365	ltpFR2	17	4	n/a	n/a	n/a	n/a	0	0	0
927.70166015625	n/a	PROB	1899933	n/a	LTP365	ltpFR2	17	n/a	n/a	n/a	5	16	4	3	9
930.18359375	n/a	PROB	1905016	n/a	LTP365	ltpFR2	17	n/a	n/a	n/a	5	17	8	3	6
933.2822265625	n/a	PROB	1911362	n/a	LTP365	ltpFR2	17	n/a	n/a	n/a	5	12	2	1	9
935.396484375	n/a	PROB	1915692	n/a	LTP365	ltpFR2	17	n/a	n/a	n/a	5	11	8	1	2
936.697265625	n/a	PROB	1918356	n/a	LTP365	ltpFR2	17	n/a	n/a	n/a	5	9	6	1	2
938.34521484375	n/a	PROB	1921731	n/a	LTP365	ltpFR2	17	n/a	n/a	n/a	5	25	9	9	7
941.06103515625	n/a	PROB	1927293	n/a	LTP365	ltpFR2	17	n/a	n/a	n/a	5	21	3	9	9
942.86083984375	n/a	PROB	1930979	n/a	LTP365	ltpFR2	17	n/a	n/a	n/a	5	14	8	4	2
944.54296875	n/a	PROB	1934424	n/a	LTP365	ltpFR2	17	n/a	n/a	n/a	5	18	8	2	8
945.7587890625	n/a	PROB	1936914	n/a	LTP365	ltpFR2	17	n/a	n/a	n/a	5	12	7	1	4
947.32373046875	n/a	PROB	1940119	n/a	LTP365	ltpFR2	17	n/a	n/a	n/a	5	8	4	2	2
948.74072265625	n/a	PROB	1943021	n/a	LTP365	ltpFR2	17	n/a	n/a	n/a	5	19	6	6	7
950.259765625	n/a	STOP	1946132	n/a	LTP365	ltpFR2	17	n/a	n/a	n/a	5	n/a	n/a	n/a	n/a
952.60693359375	n/a	REC_START	1950939	n/a	LTP365	ltpFR2	17	4	n/a	n/a	n/a	n/a	0	0	0
952.94873046875	n/a	REC_WORD	1951639	wordpools/wasnorm_wordpool_576.txt	LTP365	ltpFR2	17	4	CONVICT	371	n/a	n/a	0	0	0
953.78857421875	n/a	REC_WORD	1953359	wordpools/wasnorm_wordpool_576.txt	LTP365	ltpFR2	17	4	VICTIM	1562	n/a	n/a	0	0	0
955.2177734375	n/a	REC_WORD	1956286	wordpools/wasnorm_wordpool_576.txt	LTP365	ltpFR2	17	4	WITNESS	1618	n/a	n/a	0	0	0
956.78173828125	n/a	REC_WORD	1959489	wordpools/wasnorm_wordpool_576.txt	LTP365	ltpFR2	17	4	COSTUME	383	n/a	n/a	0	0	0
957.70556640625	n/a	REC_WORD	1961381	wordpools/wasnorm_wordpool_576.txt	LTP365	ltpFR2	17	4	QUARTER	1148	n/a	n/a	0	0	0
958.46337890625	n/a	REC_WORD	1962933	wordpools/wasnorm_wordpool_576.txt	LTP365	ltpFR2	17	4	CURTAIN	427	n/a	n/a	0	0	0
959.21337890625	n/a	REC_WORD	1964469	wordpools/wasnorm_wordpool_576.txt	LTP365	ltpFR2	17	4	ROD	1203	n/a	n/a	0	0	0
960.021484375	n/a	REC_WORD	1966124	wordpools/wasnorm_wordpool_576.txt	LTP365	ltpFR2	17	4	POWDER	1117	n/a	n/a	0	0	0
960.87060546875	n/a	REC_WORD	1967863	wordpools/wasnorm_wordpool_576.txt	LTP365	ltpFR2	17	4	BISON	131	n/a	n/a	0	0	0
961.51953125	n/a	REC_WORD	1969192	wordpools/wasnorm_wordpool_576.txt	LTP365	ltpFR2	17	4	SHARK	1275	n/a	n/a	0	0	0
963.53955078125	n/a	REC_WORD	1973329	wordpools/wasnorm_wordpool_576.txt	LTP365	ltpFR2	17	4	HOSTESS	723	n/a	n/a	0	0	0
964.58935546875	n/a	REC_WORD	1975479	wordpools/wasnorm_wordpool_576.txt	LTP365	ltpFR2	17	4	COSTUME	383	n/a	n/a	0	0	0
974.87890625	n/a	REC_WORD	1996552	wordpools/wasnorm_wordpool_576.txt	LTP365	ltpFR2	17	4	BUREAU	199	n/a	n/a	0	0	0
976.619140625	n/a	REC_WORD	2000116	wordpools/wasnorm_wordpool_576.txt	LTP365	ltpFR2	17	4	FILM	565	n/a	n/a	0	0	0
979.5078125	n/a	REC_WORD	2006032	wordpools/wasnorm_wordpool_576.txt	LTP365	ltpFR2	17	4	LIGHTNING	820	n/a	n/a	0	0	0
1017.599609375	n/a	REC_WORD	2084044	wordpools/wasnorm_wordpool_576.txt	LTP365	ltpFR2	17	4	SODA	1341	n/a	n/a	0	0	0
1019.9814453125	n/a	REC_WORD	2088922	wordpools/wasnorm_wordpool_576.txt	LTP365	ltpFR2	17	4	KLEENEX	782	n/a	n/a	0	0	0
1043.0458984375	n/a	WORD	2136158	wordpools/wasnorm_wordpool_576.txt	LTP365	ltpFR2	17	5	MATCH	878	n/a	n/a	0	0	0
1045.81103515625	n/a	WORD	2141821	wordpools/wasnorm_wordpool_576.txt	LTP365	ltpFR2	17	5	CELLAR	267	n/a	n/a	0	0	0
1048.42578125	n/a	WORD	2147176	wordpools/wasnorm_wordpool_576.txt	LTP365	ltpFR2	17	5	SNAKE	1333	n/a	n/a	0	0	0
1051.15869140625	n/a	WORD	2152773	wordpools/wasnorm_wordpool_576.txt	LTP365	ltpFR2	17	5	ICING	732	n/a	n/a	0	0	0
1053.806640625	n/a	WORD	2158196	wordpools/wasnorm_wordpool_576.txt	LTP365	ltpFR2	17	5	RAFT	1159	n/a	n/a	0	0	0
1056.3212890625	n/a	WORD	2163346	wordpools/wasnorm_wordpool_576.txt	LTP365	ltpFR2	17	5	DANDRUFF	439	n/a	n/a	0	0	0
1058.904296875	n/a	WORD	2168636	wordpools/wasnorm_wordpool_576.txt	LTP365	ltpFR2	17	5	SKIRT	1319	n/a	n/a	0	0	0
1061.6865234375	n/a	WORD	2174334	wordpools/wasnorm_wordpool_576.txt	LTP365	ltpFR2	17	5	CHEST	295	n/a	n/a	0	0	0
1064.2021484375	n/a	WORD	2179486	wordpools/wasnorm_wordpool_576.txt	LTP365	ltpFR2	17	5	DRESSER	496	n/a	n/a	0	0	0
1066.8671875	n/a	WORD	2184944	wordpools/wasnorm_wordpool_576.txt	LTP365	ltpFR2	17	5	PASSAGE	1019	n/a	n/a	0	0	0
1069.4658203125	n/a	WORD	2190266	wordpools/wasnorm_wordpool_576.txt	LTP365	ltpFR2	17	5	PEPPER	1047	n/a	n/a	0	0	0
1072.248046875	n/a	WORD	2195964	wordpools/wasnorm_wordpool_576.txt	LTP365	ltpFR2	17	5	DRUG	501	n/a	n/a	0	0	0
1074.81396484375	n/a	WORD	2201219	wordpools/wasnorm_wordpool_576.txt	LTP365	ltpFR2	17	5	LILY	821	n/a	n/a	0	0	0
1077.61181640625	n/a	WORD	2206949	wordpools/wasnorm_wordpool_576.txt	LTP365	ltpFR2	17	5	SHIRT	1287	n/a	n/a	0	0	0
1080.1435546875	n/a	WORD	2212134	wordpools/wasnorm_wordpool_576.txt	LTP365	ltpFR2	17	5	COLLEGE	346	n/a	n/a	0	0	0
1082.65966796875	n/a	WORD	2217287	wordpools/wasnorm_wordpool_576.txt	LTP365	ltpFR2	17	5	ZEBRA	1635	n/a	n/a	0	0	0
1085.32470703125	n/a	WORD	2222745	wordpools/wasnorm_wordpool_576.txt	LTP365	ltpFR2	17	5	COTTAGE	384	n/a	n/a	0	0	0
1087.84033203125	n/a	WORD	2227897	wordpools/wasnorm_wordpool_576.txt	LTP365	ltpFR2	17	5	MESSAGE	888	n/a	n/a	0	0	0
1090.50537109375	n/a	WORD	2233355	wordpools/wasnorm_wordpool_576.txt	LTP365	ltpFR2	17	5	BRIEFCASE	175	n/a	n/a	0	0	0
1092.9541015625	n/a	WORD	2238370	wordpools/wasnorm_wordpool_576.txt	LTP365	ltpFR2	17	5	CARRIAGE	248	n/a	n/a	0	0	0
1095.43701171875	n/a	WORD	2243455	wordpools/wasnorm_wordpool_576.txt	LTP365	ltpFR2	17	5	SHORTCAKE	1292	n/a	n/a	0	0	0
1097.93603515625	n/a	WORD	2248573	wordpools/wasnorm_wordpool_576.txt	LTP365	ltpFR2	17	5	ROOSTER	1209	n/a	n/a	0	0	0
1100.6181640625	n/a	WORD	2254066	wordpools/wasnorm_wordpool_576.txt	LTP365	ltpFR2	17	5	BREAST	171	n/a	n/a	0	0	0
1103.23291015625	n/a	WORD	2259421	wordpools/wasnorm_wordpool_576.txt	LTP365	ltpFR2	17	5	PISTON	1076	n/a	n/a	0	0	0
1104.84912109375	n/a	START	2262731	n/a	LTP365	ltpFR2	17	n/a	n/a	n/a	6	n/a	n/a	n/a	n/a
1105.85693359375	n/a	DISTRACTOR	2264795	n/a	LTP365	ltpFR2	17	5	n/a	n/a	n/a	n/a	0	0	0
1105.86474609375	n/a	PROB	2264811	n/a	LTP365	ltpFR2	17	n/a	n/a	n/a	6	23	9	8	6
1108.36279296875	n/a	PROB	2269927	n/a	LTP365	ltpFR2	17	n/a	n/a	n/a	6	5	1	1	3
1109.64697265625	n/a	PROB	2272557	n/a	LTP365	ltpFR2	17	n/a	n/a	n/a	6	21	7	7	7
1111.1455078125	n/a	PROB	2275626	n/a	LTP365	ltpFR2	17	n/a	n/a	n/a	6	15	4	7	4
1112.87890625	n/a	PROB	2279176	n/a	LTP365	ltpFR2	17	n/a	n/a	n/a	6	10	5	1	4
1114.677734375	n/a	PROB	2282860	n/a	LTP365	ltpFR2	17	n/a	n/a	n/a	6	19	9	2	8
1116.443359375	n/a	PROB	2286476	n/a	LTP365	ltpFR2	17	n/a	n/a	n/a	6	18	6	5	7
1119.1923828125	n/a	PROB	2292106	n/a	LTP365	ltpFR2	17	n/a	n/a	n/a	6	16	1	7	8
1121.04150390625	n/a	PROB	2295893	n/a	LTP365	ltpFR2	17	n/a	n/a	n/a	6	19	9	9	1
1122.47314453125	n/a	PROB	2298825	n/a	LTP365	ltpFR2	17	n/a	n/a	n/a	6	24	9	6	9
1125.0224609375	n/a	PROB	2304046	n/a	LTP365	ltpFR2	17	n/a	n/a	n/a	6	14	4	7	3
1126.38720703125	n/a	PROB	2306841	n/a	LTP365	ltpFR2	17	n/a	n/a	n/a	6	6	3	1	2
1128.123046875	n/a	STOP	2310396	n/a	LTP365	ltpFR2	17	n/a	n/a	n/a	6	n/a	n/a	n/a	n/a
1130.703125	n/a	REC_START	2315680	n/a	LTP365	ltpFR2	17	5	n/a	n/a	n/a	n/a	0	0	0
1132.3369140625	n/a	REC_WORD	2319026	wordpools/wasnorm_wordpool_576.txt	LTP365	ltpFR2	17	5	COTTAGE	384	n/a	n/a	0	0	0
1133.287109375	n/a	REC_WORD	2320972	wordpools/wasnorm_wordpool_576.txt	LTP365	ltpFR2	17	5	PASSAGE	1019	n/a	n/a	0	0	0
1134.32080078125	n/a	REC_WORD	2323089	wordpools/wasnorm_wordpool_576.txt	LTP365	ltpFR2	17	5	CARRIAGE	248	n/a	n/a	0	0	0
1135.009765625	n/a	REC_WORD	2324500	wordpools/wasnorm_wordpool_576.txt	LTP365	ltpFR2	17	5	CELLAR	267	n/a	n/a	0	0	0
1136.21484375	n/a	REC_WORD	2326968	wordpools/wasnorm_wordpool_576.txt	LTP365	ltpFR2	17	5	COLLEGE	346	n/a	n/a	0	0	0
1137.74365234375	n/a	REC_WORD	2330099	wordpools/wasnorm_wordpool_576.txt	LTP365	ltpFR2	17	5	BREAST	171	n/a	n/a	0	0	0
1138.58203125	n/a	REC_WORD	2331816	wordpools/wasnorm_wordpool_576.txt	LTP365	ltpFR2	17	5	CHEST	295	n/a	n/a	0	0	0
1142.4306640625	n/a	REC_WORD	2339698	wordpools/wasnorm_wordpool_576.txt	LTP365	ltpFR2	17	5	DANDRUFF	439	n/a	n/a	0	0	0
1143.37548828125	n/a	REC_WORD	2341633	wordpools/wasnorm_wordpool_576.txt	LTP365	ltpFR2	17	5	PEPPER	1047	n/a	n/a	0	0	0
1144.0068359375	n/a	REC_WORD	2342926	wordpools/wasnorm_wordpool_576.txt	LTP365	ltpFR2	17	5	SHORTCAKE	1292	n/a	n/a	0	0	0
1147.275390625	n/a	REC_WORD	2349620	wordpools/wasnorm_wordpool_576.txt	LTP365	ltpFR2	17	5	SKIRT	1319	n/a	n/a	0	0	0
1148.37744140625	n/a	REC_WORD	2351877	wordpools/wasnorm_wordpool_576.txt	LTP365	ltpFR2	17	5	SHIRT	1287	n/a	n/a	0	0	0
1162.7939453125	n/a	REC_WORD	2381402	wordpools/wasnorm_wordpool_576.txt	LTP365	ltpFR2	17	5	DRESSER	496	n/a	n/a	0	0	0
1181.20751953125	n/a	REC_WORD	2419113	wordpools/wasnorm_wordpool_576.txt	LTP365	ltpFR2	17	5	DRUG	501	n/a	n/a	0	0	0
1187.97509765625	n/a	REC_WORD	2432973	wordpools/wasnorm_wordpool_576.txt	LTP365	ltpFR2	17	5	MATCH	878	n/a	n/a	0	0	0
1221.14208984375	n/a	WORD	2500899	wordpools/wasnorm_wordpool_576.txt	LTP365	ltpFR2	17	6	WOMAN	1620	n/a	n/a	0	0	0
1223.775390625	n/a	WORD	2506292	wordpools/wasnorm_wordpool_576.txt	LTP365	ltpFR2	17	6	HELMET	702	n/a	n/a	0	0	0
1226.22412109375	n/a	WORD	2511307	wordpools/wasnorm_wordpool_576.txt	LTP365	ltpFR2	17	6	WAGON	1578	n/a	n/a	0	0	0
1228.7890625	n/a	WORD	2516560	wordpools/wasnorm_wordpool_576.txt	LTP365	ltpFR2	17	6	DONKEY	484	n/a	n/a	0	0	0
1231.5537109375	n/a	WORD	2522222	wordpools/wasnorm_wordpool_576.txt	LTP365	ltpFR2	17	6	TREAT	1501	n/a	n/a	0	0	0
1234.10302734375	n/a	WORD	2527443	wordpools/wasnorm_wordpool_576.txt	LTP365	ltpFR2	17	6	PLIERS	1089	n/a	n/a	0	0	0
1236.53466796875	n/a	WORD	2532423	wordpools/wasnorm_wordpool_576.txt	LTP365	ltpFR2	17	6	TORTOISE	1486	n/a	n/a	0	0	0
1239.16748046875	n/a	WORD	2537815	wordpools/wasnorm_wordpool_576.txt	LTP365	ltpFR2	17	6	FLASHLIGHT	575	n/a	n/a	0	0	0
1241.71533203125	n/a	WORD	2543033	wordpools/wasnorm_wordpool_576.txt	LTP365	ltpFR2	17	6	MASK	876	n/a	n/a	0	0	0
1244.181640625	n/a	WORD	2548084	wordpools/wasnorm_wordpool_576.txt	LTP365	ltpFR2	17	6	HEDGE	699	n/a	n/a	0	0	0
1246.96337890625	n/a	WORD	2553781	wordpools/wasnorm_wordpool_576.txt	LTP365	ltpFR2	17	6	FOREST	593	n/a	n/a	0	0	0
1249.4111328125	n/a	WORD	2558794	wordpools/wasnorm_wordpool_576.txt	LTP365	ltpFR2	17	6	MISTER	901	n/a	n/a	0	0	0
1252.14404296875	n/a	WORD	2564391	wordpools/wasnorm_wordpool_576.txt	LTP365	ltpFR2	17	6	CEILING	265	n/a	n/a	0	0	0
1254.81005859375	n/a	WORD	2569851	wordpools/wasnorm_wordpool_576.txt	LTP365	ltpFR2	17	6	PLASTER	1085	n/a	n/a	0	0	0
1257.39111328125	n/a	WORD	2575137	wordpools/wasnorm_wordpool_576.txt	LTP365	ltpFR2	17	6	CLOCK	325	n/a	n/a	0	0	0
1260.08984375	n/a	WORD	2580664	wordpools/wasnorm_wordpool_576.txt	LTP365	ltpFR2	17	6	BUG	187	n/a	n/a	0	0	0
1262.5888671875	n/a	WORD	2585782	wordpools/wasnorm_wordpool_576.txt	LTP365	ltpFR2	17	6	COBRA	336	n/a	n/a	0	0	0
1265.27197265625	n/a	WORD	2591277	wordpools/wasnorm_wordpool_576.txt	LTP365	ltpFR2	17	6	SWITCH	1422	n/a	n/a	0	0	0
1267.78662109375	n/a	WORD	2596427	wordpools/wasnorm_wordpool_576.txt	LTP365	ltpFR2	17	6	DASHBOARD	441	n/a	n/a	0	0	0
1270.2685546875	n/a	WORD	2601510	wordpools/wasnorm_wordpool_576.txt	LTP365	ltpFR2	17	6	GRILL	661	n/a	n/a	0	0	0
1272.734375	n/a	WORD	2606560	wordpools/wasnorm_wordpool_576.txt	LTP365	ltpFR2	17	6	COMPASS	358	n/a	n/a	0	0	0
1275.2666015625	n/a	WORD	2611746	wordpools/wasnorm_wordpool_576.txt	LTP365	ltpFR2	17	6	HOOK	715	n/a	n/a	0	0	0
1277.79833984375	n/a	WORD	2616931	wordpools/wasnorm_wordpool_576.txt	LTP365	ltpFR2	17	6	COUSIN	392	n/a	n/a	0	0	0
1280.46435546875	n/a	WORD	2622391	wordpools/wasnorm_wordpool_576.txt	LTP365	ltpFR2	17	6	GOBLIN	645	n/a	n/a	0	0	0
1282.080078125	n/a	START	2625700	n/a	LTP365	ltpFR2	17	n/a	n/a	n/a	7	n/a	n/a	n/a	n/a
1282.96240234375	n/a	DISTRACTOR	2627507	n/a	LTP365	ltpFR2	17	6	n/a	n/a	n/a	n/a	0	0	0
1282.9794921875	n/a	PROB	2627542	n/a	LTP365	ltpFR2	17	n/a	n/a	n/a	7	19	9	6	4
1284.76220703125	n/a	PROB	2631193	n/a	LTP365	ltpFR2	17	n/a	n/a	n/a	7	6	3	2	1
1285.89404296875	n/a	PROB	2633511	n/a	LTP365	ltpFR2	17	n/a	n/a	n/a	7	15	4	9	2
1287.34326171875	n/a	PROB	2636479	n/a	LTP365	ltpFR2	17	n/a	n/a	n/a	7	19	7	7	5
1288.7099609375	n/a	PROB	2639278	n/a	LTP365	ltpFR2	17	n/a	n/a	n/a	7	7	3	2	2
1290.52587890625	n/a	PROB	2642997	n/a	LTP365	ltpFR2	17	n/a	n/a	n/a	7	7	3	2	2
1291.52490234375	n/a	PROB	2645043	n/a	LTP365	ltpFR2	17	n/a	n/a	n/a	7	15	8	3	4
1293.35693359375	n/a	PROB	2648795	n/a	LTP365	ltpFR2	17	n/a	n/a	n/a	7	17	2	6	9
1295.23974609375	n/a	PROB	2652651	n/a	LTP365	ltpFR2	17	n/a	n/a	n/a	7	14	4	9	1
1296.4228515625	n/a	PROB	2655074	n/a	LTP365	ltpFR2	17	n/a	n/a	n/a	7	18	8	9	1
1297.70556640625	n/a	PROB	2657701	n/a	LTP365	ltpFR2	17	n/a	n/a	n/a	7	20	9	5	6
1300.65380859375	n/a	PROB	2663739	n/a	LTP365	ltpFR2	17	n/a	n/a	n/a	7	18	3	6	8
1302.91943359375	n/a	PROB	2668379	n/a	LTP365	ltpFR2	17	n/a	n/a	n/a	7	14	6	5	3
1304.771484375	n/a	STOP	2672172	n/a	LTP365	ltpFR2	17	n/a	n/a	n/a	7	n/a	n/a	n/a	n/a
1308.017578125	n/a	REC_START	2678820	n/a	LTP365	ltpFR2	17	6	n/a	n/a	n/a	n/a	0	0	0
1309.650390625	n/a	REC_WORD	2682164	wordpools/wasnorm_wordpool_576.txt	LTP365	ltpFR2	17	6	WOMAN	1620	n/a	n/a	0	0	0
1310.5595703125	n/a	REC_WORD	2684026	wordpools/wasnorm_wordpool_576.txt	LTP365	ltpFR2	17	6	MISTER	901	n/a	n/a	0	0	0
1311.4072265625	n/a	REC_WORD	2685762	wordpools/wasnorm_wordpool_576.txt	LTP365	ltpFR2	17	6	HEDGE	699	n/a	n/a	0	0	0
1313.01025390625	n/a	REC_WORD	2689045	wordpools/wasnorm_wordpool_576.txt	LTP365	ltpFR2	17	6	CEILING	265	n/a	n/a	0	0	0
1314.0693359375	n/a	REC_WORD	2691214	wordpools/wasnorm_wordpool_576.txt	LTP365	ltpFR2	17	6	PLASTER	1085	n/a	n/a	0	0	0
1316.201171875	n/a	REC_WORD	2695580	wordpools/wasnorm_wordpool_576.txt	LTP365	ltpFR2	17	6	SWITCH	1422	n/a	n/a	0	0	0
1318.25390625	n/a	REC_WORD	2699784	wordpools/wasnorm_wordpool_576.txt	LTP365	ltpFR2	17	6	DONKEY	484	n/a	n/a	0	0	0
1326.25390625	n/a	REC_WORD	2716168	wordpools/wasnorm_wordpool_576.txt	LTP365	ltpFR2	17	6	CARRIAGE	248	n/a	n/a	0	0	0
1329.18359375	n/a	REC_WORD	2722168	wordpools/wasnorm_wordpool_576.txt	LTP365	ltpFR2	17	6	HELMET	702	n/a	n/a	0	0	0
1332.591796875	n/a	REC_WORD	2729148	wordpools/wasnorm_wordpool_576.txt	LTP365	ltpFR2	17	6	MASK	876	n/a	n/a	0	0	0
1337.21875	n/a	REC_WORD	2738624	wordpools/wasnorm_wordpool_576.txt	LTP365	ltpFR2	17	6	CLOCK	325	n/a	n/a	0	0	0
1340.92138671875	n/a	REC_WORD	2746207	wordpools/wasnorm_wordpool_576.txt	LTP365	ltpFR2	17	6	BUG	187	n/a	n/a	0	0	0
1343.79541015625	n/a	REC_WORD	2752093	wordpools/wasnorm_wordpool_576.txt	LTP365	ltpFR2	17	6	FOREST	593	n/a	n/a	0	0	0
1356.8779296875	n/a	REC_WORD	2778886	wordpools/wasnorm_wordpool_576.txt	LTP365	ltpFR2	17	6	PLIERS	1089	n/a	n/a	0	0	0
1359.5537109375	n/a	REC_WORD	2784366	wordpools/wasnorm_wordpool_576.txt	LTP365	ltpFR2	17	6	FLASHLIGHT	575	n/a	n/a	0	0	0
1363.720703125	n/a	REC_WORD	2792900	wordpools/wasnorm_wordpool_576.txt	LTP365	ltpFR2	17	6	DASHBOARD	441	n/a	n/a	0	0	0
1398.4404296875	n/a	DISTRACTOR	2864006	n/a	LTP365	ltpFR2	17	7	n/a	n/a	n/a	n/a	0	0	0
1398.4404296875	n/a	START	2864006	n/a	LTP365	ltpFR2	17	n/a	n/a	n/a	8	n/a	n/a	n/a	n/a
1398.45654296875	n/a	PROB	2864039	n/a	LTP365	ltpFR2	17	n/a	n/a	n/a	8	14	5	4	5
1399.72265625	n/a	PROB	2866632	n/a	LTP365	ltpFR2	17	n/a	n/a	n/a	8	16	7	1	8
1401.138671875	n/a	PROB	2869532	n/a	LTP365	ltpFR2	17	n/a	n/a	n/a	8	15	4	2	9
1402.9384765625	n/a	PROB	2873218	n/a	LTP365	ltpFR2	17	n/a	n/a	n/a	8	15	3	8	4
1404.853515625	n/a	PROB	2877140	n/a	LTP365	ltpFR2	17	n/a	n/a	n/a	8	20	5	6	9
1406.66943359375	n/a	PROB	2880859	n/a	LTP365	ltpFR2	17	n/a	n/a	n/a	8	19	8	6	5
1408.85205078125	n/a	PROB	2885329	n/a	LTP365	ltpFR2	17	n/a	n/a	n/a	8	13	3	9	1
1410.1181640625	n/a	PROB	2887922	n/a	LTP365	ltpFR2	17	n/a	n/a	n/a	8	24	9	8	7
1412.150390625	n/a	PROB	2892084	n/a	LTP365	ltpFR2	17	n/a	n/a	n/a	8	14	3	2	9
1413.88330078125	n/a	PROB	2895633	n/a	LTP365	ltpFR2	17	n/a	n/a	n/a	8	13	4	7	2
1415.44921875	n/a	PROB	2898840	n/a	LTP365	ltpFR2	17	n/a	n/a	n/a	8	14	1	8	5
1416.9150390625	n/a	PROB	2901842	n/a	LTP365	ltpFR2	17	n/a	n/a	n/a	8	24	9	7	9
1422.43994140625	n/a	STOP	2913157	n/a	LTP365	ltpFR2	17	n/a	n/a	n/a	8	n/a	n/a	n/a	n/a
1423.64501953125	n/a	WORD	2915625	wordpools/wasnorm_wordpool_576.txt	LTP365	ltpFR2	17	7	GYMNAST	675	n/a	n/a	0	0	0
1426.40869140625	n/a	WORD	2921285	wordpools/wasnorm_wordpool_576.txt	LTP365	ltpFR2	17	7	FLOWER	584	n/a	n/a	0	0	0
1429.05859375	n/a	WORD	2926712	wordpools/wasnorm_wordpool_576.txt	LTP365	ltpFR2	17	7	CLAMP	316	n/a	n/a	0	0	0
1431.724609375	n/a	WORD	2932172	wordpools/wasnorm_wordpool_576.txt	LTP365	ltpFR2	17	7	TABLET	1427	n/a	n/a	0	0	0
1434.17333984375	n/a	WORD	2937187	wordpools/wasnorm_wordpool_576.txt	LTP365	ltpFR2	17	7	SWAMP	1416	n/a	n/a	0	0	0
1436.83837890625	n/a	WORD	2942645	wordpools/wasnorm_wordpool_576.txt	LTP365	ltpFR2	17	7	CRATER	400	n/a	n/a	0	0	0
1439.38623046875	n/a	WORD	2947863	wordpools/wasnorm_wordpool_576.txt	LTP365	ltpFR2	17	7	COMET	353	n/a	n/a	0	0	0
1441.986328125	n/a	WORD	2953188	wordpools/wasnorm_wordpool_576.txt	LTP365	ltpFR2	17	7	NECKLACE	940	n/a	n/a	0	0	0
1444.7841796875	n/a	WORD	2958918	wordpools/wasnorm_wordpool_576.txt	LTP365	ltpFR2	17	7	SHORTS	1293	n/a	n/a	0	0	0
1447.23291015625	n/a	WORD	2963933	wordpools/wasnorm_wordpool_576.txt	LTP365	ltpFR2	17	7	FOOTBALL	591	n/a	n/a	0	0	0
1449.86474609375	n/a	WORD	2969323	wordpools/wasnorm_wordpool_576.txt	LTP365	ltpFR2	17	7	LAVA	804	n/a	n/a	0	0	0
1452.3466796875	n/a	WORD	2974406	wordpools/wasnorm_wordpool_576.txt	LTP365	ltpFR2	17	7	OUTFIT	988	n/a	n/a	0	0	0
1454.97998046875	n/a	WORD	2979799	wordpools/wasnorm_wordpool_576.txt	LTP365	ltpFR2	17	7	TOASTER	1472	n/a	n/a	0	0	0
1457.77783203125	n/a	WORD	2985529	wordpools/wasnorm_wordpool_576.txt	LTP365	ltpFR2	17	7	DRAGON	492	n/a	n/a	0	0	0
1460.4267578125	n/a	WORD	2990954	wordpools/wasnorm_wordpool_576.txt	LTP365	ltpFR2	17	7	STAKE	1368	n/a	n/a	0	0	0
1463.05859375	n/a	WORD	2996344	wordpools/wasnorm_wordpool_576.txt	LTP365	ltpFR2	17	7	JUGGLER	763	n/a	n/a	0	0	0
1465.69140625	n/a	WORD	3001736	wordpools/wasnorm_wordpool_576.txt	LTP365	ltpFR2	17	7	STAR	1373	n/a	n/a	0	0	0
1468.37255859375	n/a	WORD	3007227	wordpools/wasnorm_wordpool_576.txt	LTP365	ltpFR2	17	7	SMOG	1330	n/a	n/a	0	0	0
1471.021484375	n/a	WORD	3012652	wordpools/wasnorm_wordpool_576.txt	LTP365	ltpFR2	17	7	TEMPLE	1448	n/a	n/a	0	0	0
1473.68701171875	n/a	WORD	3018111	wordpools/wasnorm_wordpool_576.txt	LTP365	ltpFR2	17	7	SPHINX	1349	n/a	n/a	0	0	0
1476.35107421875	n/a	WORD	3023567	wordpools/wasnorm_wordpool_576.txt	LTP365	ltpFR2	17	7	BURGLAR	200	n/a	n/a	0	0	0
1478.8349609375	n/a	WORD	3028654	wordpools/wasnorm_wordpool_576.txt	LTP365	ltpFR2	17	7	THIEF	1456	n/a	n/a	0	0	0
1481.53271484375	n/a	WORD	3034179	wordpools/wasnorm_wordpool_576.txt	LTP365	ltpFR2	17	7	ATLAS	53	n/a	n/a	0	0	0
1484.03173828125	n/a	WORD	3039297	wordpools/wasnorm_wordpool_576.txt	LTP365	ltpFR2	17	7	KEEPER	769	n/a	n/a	0	0	0
1485.64794921875	n/a	START	3042607	n/a	LTP365	ltpFR2	17	n/a	n/a	n/a	9	n/a	n/a	n/a	n/a
1486.78662109375	n/a	DISTRACTOR	3044939	n/a	LTP365	ltpFR2	17	7	n/a	n/a	n/a	n/a	0	0	0
1486.7978515625	n/a	PROB	3044962	n/a	LTP365	ltpFR2	17	n/a	n/a	n/a	9	12	1	3	8
1488.4638671875	n/a	PROB	3048374	n/a	LTP365	ltpFR2	17	n/a	n/a	n/a	9	15	1	8	6
1491.728515625	n/a	PROB	3055060	n/a	LTP365	ltpFR2	17	n/a	n/a	n/a	9	14	8	1	5
1493.2275390625	n/a	PROB	3058130	n/a	LTP365	ltpFR2	17	n/a	n/a	n/a	9	14	6	7	1
1495.37548828125	n/a	PROB	3062529	n/a	LTP365	ltpFR2	17	n/a	n/a	n/a	9	13	6	1	6
1496.75927734375	n/a	PROB	3065363	n/a	LTP365	ltpFR2	17	n/a	n/a	n/a	9	17	6	3	8
1498.357421875	n/a	PROB	3068636	n/a	LTP365	ltpFR2	17	n/a	n/a	n/a	9	19	7	6	6
1500.14111328125	n/a	PROB	3072289	n/a	LTP365	ltpFR2	17	n/a	n/a	n/a	9	11	8	2	1
1501.240234375	n/a	PROB	3074540	n/a	LTP365	ltpFR2	17	n/a	n/a	n/a	9	18	6	4	8
1502.55615234375	n/a	PROB	3077235	n/a	LTP365	ltpFR2	17	n/a	n/a	n/a	9	16	4	5	7
1504.8720703125	n/a	PROB	3081978	n/a	LTP365	ltpFR2	17	n/a	n/a	n/a	9	14	4	4	6
1506.0712890625	n/a	PROB	3084434	n/a	LTP365	ltpFR2	17	n/a	n/a	n/a	9	14	6	5	3
1508.05419921875	n/a	PROB	3088495	n/a	LTP365	ltpFR2	17	n/a	n/a	n/a	9	8	1	2	5
1509.25927734375	n/a	STOP	3090963	n/a	LTP365	ltpFR2	17	n/a	n/a	n/a	9	n/a	n/a	n/a	n/a
1511.4189453125	n/a	REC_START	3095386	n/a	LTP365	ltpFR2	17	7	n/a	n/a	n/a	n/a	0	0	0
1512.08984375	n/a	REC_WORD	3096760	wordpools/wasnorm_wordpool_576.txt	LTP365	ltpFR2	17	7	GYMNAST	675	n/a	n/a	0	0	0
1514.11572265625	n/a	REC_WORD	3100909	wordpools/wasnorm_wordpool_576.txt	LTP365	ltpFR2	17	7	ATLAS	53	n/a	n/a	0	0	0
1515.962890625	n/a	REC_WORD	3104692	wordpools/wasnorm_wordpool_576.txt	LTP365	ltpFR2	17	7	SPHINX	1349	n/a	n/a	0	0	0
1521.5224609375	n/a	REC_WORD	3116078	wordpools/wasnorm_wordpool_576.txt	LTP365	ltpFR2	17	7	THIEF	1456	n/a	n/a	0	0	0
1522.9697265625	n/a	REC_WORD	3119042	wordpools/wasnorm_wordpool_576.txt	LTP365	ltpFR2	17	7	BURGLAR	200	n/a	n/a	0	0	0
1524.49658203125	n/a	REC_WORD	3122169	wordpools/wasnorm_wordpool_576.txt	LTP365	ltpFR2	17	7	TEMPLE	1448	n/a	n/a	0	0	0
1525.79150390625	n/a	REC_WORD	3124821	wordpools/wasnorm_wordpool_576.txt	LTP365	ltpFR2	17	7	SMOG	1330	n/a	n/a	0	0	0
1529.685546875	n/a	REC_WORD	3132796	wordpools/wasnorm_wordpool_576.txt	LTP365	ltpFR2	17	7	NECKLACE	940	n/a	n/a	0	0	0
1545.8427734375	n/a	REC_WORD	3165886	wordpools/wasnorm_wordpool_576.txt	LTP365	ltpFR2	17	7	TABLET	1427	n/a	n/a	0	0	0
1547.60595703125	n/a	REC_WORD	3169497	wordpools/wasnorm_wordpool_576.txt	LTP365	ltpFR2	17	7	STAR	1373	n/a	n/a	0	0	0
1548.8818359375	n/a	REC_WORD	3172110	wordpools/wasnorm_wordpool_576.txt	LTP365	ltpFR2	17	7	COMET	353	n/a	n/a	0	0	0
1549.97998046875	n/a	REC_WORD	3174359	wordpools/wasnorm_wordpool_576.txt	LTP365	ltpFR2	17	7	CRATER	400	n/a	n/a	0	0	0
1550.9638671875	n/a	REC_WORD	3176374	wordpools/wasnorm_wordpool_576.txt	LTP365	ltpFR2	17	7	SWAMP	1416	n/a	n/a	0	0	0
1601.908203125	n/a	WORD	3280708	wordpools/wasnorm_wordpool_576.txt	LTP365	ltpFR2	17	8	VALVE	1546	n/a	n/a	0	0	0
1604.70703125	n/a	WORD	3286440	wordpools/wasnorm_wordpool_576.txt	LTP365	ltpFR2	17	8	CAFE	216	n/a	n/a	0	0	0
1607.3720703125	n/a	WORD	3291898	wordpools/wasnorm_wordpool_576.txt	LTP365	ltpFR2	17	8	CLOTHES	327	n/a	n/a	0	0	0
1610.1708984375	n/a	WORD	3297630	wordpools/wasnorm_wordpool_576.txt	LTP365	ltpFR2	17	8	WARDROBE	1587	n/a	n/a	0	0	0
1612.65380859375	n/a	WORD	3302715	wordpools/wasnorm_wordpool_576.txt	LTP365	ltpFR2	17	8	CITRUS	313	n/a	n/a	0	0	0
1615.45166015625	n/a	WORD	3308445	wordpools/wasnorm_wordpool_576.txt	LTP365	ltpFR2	17	8	SUPPER	1411	n/a	n/a	0	0	0
1618.05078125	n/a	WORD	3313768	wordpools/wasnorm_wordpool_576.txt	LTP365	ltpFR2	17	8	LAPEL	800	n/a	n/a	0	0	0
1620.599609375	n/a	WORD	3318988	wordpools/wasnorm_wordpool_576.txt	LTP365	ltpFR2	17	8	FRIEND	606	n/a	n/a	0	0	0
1623.3974609375	n/a	WORD	3324718	wordpools/wasnorm_wordpool_576.txt	LTP365	ltpFR2	17	8	TOURIST	1488	n/a	n/a	0	0	0
1625.84619140625	n/a	WORD	3329733	wordpools/wasnorm_wordpool_576.txt	LTP365	ltpFR2	17	8	HIGHWAY	707	n/a	n/a	0	0	0
1628.529296875	n/a	WORD	3335228	wordpools/wasnorm_wordpool_576.txt	LTP365	ltpFR2	17	8	IDOL	733	n/a	n/a	0	0	0
1631.244140625	n/a	WORD	3340788	wordpools/wasnorm_wordpool_576.txt	LTP365	ltpFR2	17	8	ORCHID	982	n/a	n/a	0	0	0
1633.7431640625	n/a	WORD	3345906	wordpools/wasnorm_wordpool_576.txt	LTP365	ltpFR2	17	8	EAGLE	512	n/a	n/a	0	0	0
1636.2421875	n/a	WORD	3351024	wordpools/wasnorm_wordpool_576.txt	LTP365	ltpFR2	17	8	MOP	916	n/a	n/a	0	0	0
1638.99072265625	n/a	WORD	3356653	wordpools/wasnorm_wordpool_576.txt	LTP365	ltpFR2	17	8	STICKER	1382	n/a	n/a	0	0	0
1641.57275390625	n/a	WORD	3361941	wordpools/wasnorm_wordpool_576.txt	LTP365	ltpFR2	17	8	CASHIER	254	n/a	n/a	0	0	0
1644.2548828125	n/a	WORD	3367434	wordpools/wasnorm_wordpool_576.txt	LTP365	ltpFR2	17	8	LUNCH	849	n/a	n/a	0	0	0
1647.00390625	n/a	WORD	3373064	wordpools/wasnorm_wordpool_576.txt	LTP365	ltpFR2	17	8	CREVICE	405	n/a	n/a	0	0	0
1649.66845703125	n/a	WORD	3378521	wordpools/wasnorm_wordpool_576.txt	LTP365	ltpFR2	17	8	WINDOW	1611	n/a	n/a	0	0	0
1652.50048828125	n/a	WORD	3384321	wordpools/wasnorm_wordpool_576.txt	LTP365	ltpFR2	17	8	REPORT	1184	n/a	n/a	0	0	0
1654.99951171875	n/a	WORD	3389439	wordpools/wasnorm_wordpool_576.txt	LTP365	ltpFR2	17	8	CHIPMUNK	304	n/a	n/a	0	0	0
1657.54833984375	n/a	WORD	3394659	wordpools/wasnorm_wordpool_576.txt	LTP365	ltpFR2	17	8	MAMMAL	861	n/a	n/a	0	0	0
1659.98046875	n/a	WORD	3399640	wordpools/wasnorm_wordpool_576.txt	LTP365	ltpFR2	17	8	CREATURE	403	n/a	n/a	0	0	0
1662.64599609375	n/a	WORD	3405099	wordpools/wasnorm_wordpool_576.txt	LTP365	ltpFR2	17	8	COFFEE	341	n/a	n/a	0	0	0
1664.26220703125	n/a	START	3408409	n/a	LTP365	ltpFR2	17	n/a	n/a	n/a	10	n/a	n/a	n/a	n/a
1665.43017578125	n/a	DISTRACTOR	3410801	n/a	LTP365	ltpFR2	17	8	n/a	n/a	n/a	n/a	0	0	0
1665.4443359375	n/a	PROB	3410830	n/a	LTP365	ltpFR2	17	n/a	n/a	n/a	10	18	4	7	7
1667.2099609375	n/a	PROB	3414446	n/a	LTP365	ltpFR2	17	n/a	n/a	n/a	10	13	4	4	5
1669.9921875	n/a	PROB	3420144	n/a	LTP365	ltpFR2	17	n/a	n/a	n/a	10	19	6	9	4
1671.47509765625	n/a	PROB	3423181	n/a	LTP365	ltpFR2	17	n/a	n/a	n/a	10	15	2	6	7
1673.4736328125	n/a	PROB	3427274	n/a	LTP365	ltpFR2	17	n/a	n/a	n/a	10	16	4	8	4
1675.5556640625	n/a	PROB	3431538	n/a	LTP365	ltpFR2	17	n/a	n/a	n/a	10	17	6	2	9
1677.40478515625	n/a	PROB	3435325	n/a	LTP365	ltpFR2	17	n/a	n/a	n/a	10	14	9	1	4
1678.587890625	n/a	PROB	3437748	n/a	LTP365	ltpFR2	17	n/a	n/a	n/a	10	19	8	7	4
1680.220703125	n/a	PROB	3441092	n/a	LTP365	ltpFR2	17	n/a	n/a	n/a	10	11	3	1	7
1681.33544921875	n/a	PROB	3443375	n/a	LTP365	ltpFR2	17	n/a	n/a	n/a	10	22	7	9	6
1684.45166015625	n/a	PROB	3449757	n/a	LTP365	ltpFR2	17	n/a	n/a	n/a	10	12	6	1	5
1685.71826171875	n/a	PROB	3452351	n/a	LTP365	ltpFR2	17	n/a	n/a	n/a	10	16	6	7	3
1687.13134765625	n/a	STOP	3455245	n/a	LTP365	ltpFR2	17	n/a	n/a	n/a	10	n/a	n/a	n/a	n/a
1690.09912109375	n/a	REC_START	3461323	n/a	LTP365	ltpFR2	17	8	n/a	n/a	n/a	n/a	0	0	0
1691.73046875	n/a	REC_WORD	3464664	wordpools/wasnorm_wordpool_576.txt	LTP365	ltpFR2	17	8	CASHIER	254	n/a	n/a	0	0	0
1692.80029296875	n/a	REC_WORD	3466855	wordpools/wasnorm_wordpool_576.txt	LTP365	ltpFR2	17	8	CHIPMUNK	304	n/a	n/a	0	0	0
1693.6572265625	n/a	REC_WORD	3468610	wordpools/wasnorm_wordpool_576.txt	LTP365	ltpFR2	17	8	MAMMAL	861	n/a	n/a	0	0	0
1694.50537109375	n/a	REC_WORD	3470347	wordpools/wasnorm_wordpool_576.txt	LTP365	ltpFR2	17	8	CREATURE	403	n/a	n/a	0	0	0
1695.35107421875	n/a	REC_WORD	3472079	wordpools/wasnorm_wordpool_576.txt	LTP365	ltpFR2	17	8	FRIEND	606	n/a	n/a	0	0	0
1696.17529296875	n/a	REC_WORD	3473767	wordpools/wasnorm_wordpool_576.txt	LTP365	ltpFR2	17	8	TOURIST	1488	n/a	n/a	0	0	0
1696.97509765625	n/a	REC_WORD	3475405	wordpools/wasnorm_wordpool_576.txt	LTP365	ltpFR2	17	8	HIGHWAY	707	n/a	n/a	0	0	0
1697.94091796875	n/a	REC_WORD	3477383	wordpools/wasnorm_wordpool_576.txt	LTP365	ltpFR2	17	8	WINDOW	1611	n/a	n/a	0	0	0
1698.82421875	n/a	REC_WORD	3479192	wordpools/wasnorm_wordpool_576.txt	LTP365	ltpFR2	17	8	VALVE	1546	n/a	n/a	0	0	0
1699.81689453125	n/a	REC_WORD	3481225	wordpools/wasnorm_wordpool_576.txt	LTP365	ltpFR2	17	8	COFFEE	341	n/a	n/a	0	0	0
1700.68212890625	n/a	REC_WORD	3482997	wordpools/wasnorm_wordpool_576.txt	LTP365	ltpFR2	17	8	CAFE	216	n/a	n/a	0	0	0
1704.48095703125	n/a	REC_WORD	3490777	wordpools/wasnorm_wordpool_576.txt	LTP365	ltpFR2	17	8	LAPEL	800	n/a	n/a	0	0	0
1705.37890625	n/a	REC_WORD	3492616	wordpools/wasnorm_wordpool_576.txt	LTP365	ltpFR2	17	8	STICKER	1382	n/a	n/a	0	0	0
1706.49072265625	n/a	REC_WORD	3494893	wordpools/wasnorm_wordpool_576.txt	LTP365	ltpFR2	17	8	FRIEND	606	n/a	n/a	0	0	0
1714.8603515625	n/a	REC_WORD	3512034	wordpools/wasnorm_wordpool_576.txt	LTP365	ltpFR2	17	8	SUPPER	1411	n/a	n/a	0	0	0
1717.25048828125	n/a	REC_WORD	3516929	wordpools/wasnorm_wordpool_576.txt	LTP365	ltpFR2	17	8	LUNCH	849	n/a	n/a	0	0	0
1724.14599609375	n/a	REC_WORD	3531051	wordpools/wasnorm_wordpool_576.txt	LTP365	ltpFR2	17	8	REPORT	1184	n/a	n/a	0	0	0
1766.62890625	n/a	REST_REWET	3618056	n/a	LTP365	ltpFR2	17	8	n/a	n/a	n/a	n/a	0	0	0
1947.85791015625	n/a	DISTRACTOR	3989213	n/a	LTP365	ltpFR2	17	9	n/a	n/a	n/a	n/a	0	0	0
1947.85791015625	n/a	START	3989213	n/a	LTP365	ltpFR2	17	n/a	n/a	n/a	11	n/a	n/a	n/a	n/a
1947.8740234375	n/a	PROB	3989246	n/a	LTP365	ltpFR2	17	n/a	n/a	n/a	11	23	8	7	8
1951.73876953125	n/a	PROB	3997161	n/a	LTP365	ltpFR2	17	n/a	n/a	n/a	11	13	5	3	5
1953.05517578125	n/a	PROB	3999857	n/a	LTP365	ltpFR2	17	n/a	n/a	n/a	11	20	4	7	9
1955.25390625	n/a	PROB	4004360	n/a	LTP365	ltpFR2	17	n/a	n/a	n/a	11	14	9	1	4
1956.4697265625	n/a	PROB	4006850	n/a	LTP365	ltpFR2	17	n/a	n/a	n/a	11	23	7	7	9
1958.73583984375	n/a	PROB	4011491	n/a	LTP365	ltpFR2	17	n/a	n/a	n/a	11	18	7	6	5
1961.06787109375	n/a	PROB	4016267	n/a	LTP365	ltpFR2	17	n/a	n/a	n/a	11	23	8	8	7
1964.11669921875	n/a	PROB	4022511	n/a	LTP365	ltpFR2	17	n/a	n/a	n/a	11	15	5	9	1
1965.9326171875	n/a	PROB	4026230	n/a	LTP365	ltpFR2	17	n/a	n/a	n/a	11	11	3	2	6
1967.54833984375	n/a	PROB	4029539	n/a	LTP365	ltpFR2	17	n/a	n/a	n/a	11	19	7	8	4
1968.98046875	n/a	PROB	4032472	n/a	LTP365	ltpFR2	17	n/a	n/a	n/a	11	17	8	6	3
1970.83544921875	n/a	STOP	4036271	n/a	LTP365	ltpFR2	17	n/a	n/a	n/a	11	n/a	n/a	n/a	n/a
1973.0625	n/a	WORD	4040832	wordpools/wasnorm_wordpool_576.txt	LTP365	ltpFR2	17	9	ANKLE	24	n/a	n/a	0	0	0
1975.5771484375	n/a	WORD	4045982	wordpools/wasnorm_wordpool_576.txt	LTP365	ltpFR2	17	9	PLAZA	1088	n/a	n/a	0	0	0
1978.375	n/a	WORD	4051712	wordpools/wasnorm_wordpool_576.txt	LTP365	ltpFR2	17	9	WORKER	1621	n/a	n/a	0	0	0
1980.89208984375	n/a	WORD	4056867	wordpools/wasnorm_wordpool_576.txt	LTP365	ltpFR2	17	9	RABBIT	1152	n/a	n/a	0	0	0
1983.55712890625	n/a	WORD	4062325	wordpools/wasnorm_wordpool_576.txt	LTP365	ltpFR2	17	9	LUGGAGE	847	n/a	n/a	0	0	0
1986.0390625	n/a	WORD	4067408	wordpools/wasnorm_wordpool_576.txt	LTP365	ltpFR2	17	9	BANKER	84	n/a	n/a	0	0	0
1988.8046875	n/a	WORD	4073072	wordpools/wasnorm_wordpool_576.txt	LTP365	ltpFR2	17	9	BADGE	68	n/a	n/a	0	0	0
1991.31884765625	n/a	WORD	4078221	wordpools/wasnorm_wordpool_576.txt	LTP365	ltpFR2	17	9	SUSPECT	1415	n/a	n/a	0	0	0
1993.802734375	n/a	WORD	4083308	wordpools/wasnorm_wordpool_576.txt	LTP365	ltpFR2	17	9	INMATE	738	n/a	n/a	0	0	0
1996.3837890625	n/a	WORD	4088594	wordpools/wasnorm_wordpool_576.txt	LTP365	ltpFR2	17	9	CHAMPAGNE	278	n/a	n/a	0	0	0
1999.1494140625	n/a	WORD	4094258	wordpools/wasnorm_wordpool_576.txt	LTP365	ltpFR2	17	9	PICNIC	1060	n/a	n/a	0	0	0
2001.78125	n/a	WORD	4099648	wordpools/wasnorm_wordpool_576.txt	LTP365	ltpFR2	17	9	OZONE	996	n/a	n/a	0	0	0
2004.24755859375	n/a	WORD	4104699	wordpools/wasnorm_wordpool_576.txt	LTP365	ltpFR2	17	9	MARKET	871	n/a	n/a	0	0	0
2007.01220703125	n/a	WORD	4110361	wordpools/wasnorm_wordpool_576.txt	LTP365	ltpFR2	17	9	BELLY	119	n/a	n/a	0	0	0
2009.56103515625	n/a	WORD	4115581	wordpools/wasnorm_wordpool_576.txt	LTP365	ltpFR2	17	9	PRINCESS	1125	n/a	n/a	0	0	0
2012.375	n/a	WORD	4121344	wordpools/wasnorm_wordpool_576.txt	LTP365	ltpFR2	17	9	HORNET	718	n/a	n/a	0	0	0
2015.14208984375	n/a	WORD	4127011	wordpools/wasnorm_wordpool_576.txt	LTP365	ltpFR2	17	9	SHRUB	1299	n/a	n/a	0	0	0
2017.57373046875	n/a	WORD	4131991	wordpools/wasnorm_wordpool_576.txt	LTP365	ltpFR2	17	9	CANAL	226	n/a	n/a	0	0	0
2020.02294921875	n/a	WORD	4137007	wordpools/wasnorm_wordpool_576.txt	LTP365	ltpFR2	17	9	CIGAR	308	n/a	n/a	0	0	0
2022.62158203125	n/a	WORD	4142329	wordpools/wasnorm_wordpool_576.txt	LTP365	ltpFR2	17	9	AGENT	10	n/a	n/a	0	0	0
2025.4365234375	n/a	WORD	4148094	wordpools/wasnorm_wordpool_576.txt	LTP365	ltpFR2	17	9	BRACES	164	n/a	n/a	0	0	0
2028.0185546875	n/a	WORD	4153382	wordpools/wasnorm_wordpool_576.txt	LTP365	ltpFR2	17	9	BEAVER	109	n/a	n/a	0	0	0
2030.734375	n/a	WORD	4158944	wordpools/wasnorm_wordpool_576.txt	LTP365	ltpFR2	17	9	APRON	35	n/a	n/a	0	0	0
2033.3154296875	n/a	WORD	4164230	wordpools/wasnorm_wordpool_576.txt	LTP365	ltpFR2	17	9	SKILLET	1317	n/a	n/a	0	0	0
2034.93212890625	n/a	START	4167541	n/a	LTP365	ltpFR2	17	n/a	n/a	n/a	12	n/a	n/a	n/a	n/a
2035.9912109375	n/a	DISTRACTOR	4169710	n/a	LTP365	ltpFR2	17	9	n/a	n/a	n/a	n/a	0	0	0
2035.99853515625	n/a	PROB	4169725	n/a	LTP365	ltpFR2	17	n/a	n/a	n/a	12	7	4	1	2
2037.59716796875	n/a	PROB	4172999	n/a	LTP365	ltpFR2	17	n/a	n/a	n/a	12	13	1	6	6
2038.89697265625	n/a	PROB	4175661	n/a	LTP365	ltpFR2	17	n/a	n/a	n/a	12	17	9	7	1
2040.51318359375	n/a	PROB	4178971	n/a	LTP365	ltpFR2	17	n/a	n/a	n/a	12	19	5	5	9
2041.64599609375	n/a	PROB	4181291	n/a	LTP365	ltpFR2	17	n/a	n/a	n/a	12	12	5	2	5
2043.17822265625	n/a	PROB	4184429	n/a	LTP365	ltpFR2	17	n/a	n/a	n/a	12	23	8	7	8
2047.259765625	n/a	PROB	4192788	n/a	LTP365	ltpFR2	17	n/a	n/a	n/a	12	12	2	9	1
2049.2587890625	n/a	PROB	4196882	n/a	LTP365	ltpFR2	17	n/a	n/a	n/a	12	11	1	1	9
2050.291015625	n/a	PROB	4198996	n/a	LTP365	ltpFR2	17	n/a	n/a	n/a	12	20	8	4	8
2051.57373046875	n/a	PROB	4201623	n/a	LTP365	ltpFR2	17	n/a	n/a	n/a	12	10	5	4	1
2052.82373046875	n/a	PROB	4204183	n/a	LTP365	ltpFR2	17	n/a	n/a	n/a	12	11	1	9	1
2054.10693359375	n/a	PROB	4206811	n/a	LTP365	ltpFR2	17	n/a	n/a	n/a	12	13	5	4	4
2056.888671875	n/a	PROB	4212508	n/a	LTP365	ltpFR2	17	n/a	n/a	n/a	12	17	7	8	2
2058.23583984375	n/a	STOP	4215267	n/a	LTP365	ltpFR2	17	n/a	n/a	n/a	12	n/a	n/a	n/a	n/a
2060.78662109375	n/a	REC_START	4220491	n/a	LTP365	ltpFR2	17	9	n/a	n/a	n/a	n/a	0	0	0
2062.17333984375	n/a	REC_WORD	4223331	wordpools/wasnorm_wordpool_576.txt	LTP365	ltpFR2	17	9	SKILLET	1317	n/a	n/a	0	0	0
2063.16064453125	n/a	REC_WORD	4225353	wordpools/wasnorm_wordpool_576.txt	LTP365	ltpFR2	17	9	BEAVER	109	n/a	n/a	0	0	0
2066.1103515625	n/a	REC_WORD	4231394	wordpools/wasnorm_wordpool_576.txt	LTP365	ltpFR2	17	9	SUSPECT	1415	n/a	n/a	0	0	0
2070.31298828125	n/a	REC_WORD	4240001	wordpools/wasnorm_wordpool_576.txt	LTP365	ltpFR2	17	9	VICTIM	1562	n/a	n/a	0	0	0
2072.958984375	n/a	REC_WORD	4245420	wordpools/wasnorm_wordpool_576.txt	LTP365	ltpFR2	17	9	SHRUB	1299	n/a	n/a	0	0	0
2074.5361328125	n/a	REC_WORD	4248650	wordpools/wasnorm_wordpool_576.txt	LTP365	ltpFR2	17	9	MARKET	871	n/a	n/a	0	0	0
2077.22802734375	n/a	REC_WORD	4254163	wordpools/wasnorm_wordpool_576.txt	LTP365	ltpFR2	17	9	WORKER	1621	n/a	n/a	0	0	0
2078.3251953125	n/a	REC_WORD	4256410	wordpools/wasnorm_wordpool_576.txt	LTP365	ltpFR2	17	9	ANKLE	24	n/a	n/a	0	0	0
2079.759765625	n/a	REC_WORD	4259348	wordpools/wasnorm_wordpool_576.txt	LTP365	ltpFR2	17	9	PRINCESS	1125	n/a	n/a	0	0	0
2081.81494140625	n/a	REC_WORD	4263557	wordpools/wasnorm_wordpool_576.txt	LTP365	ltpFR2	17	9	RABBIT	1152	n/a	n/a	0	0	0
2086.3017578125	n/a	REC_WORD	4272746	wordpools/wasnorm_wordpool_576.txt	LTP365	ltpFR2	17	9	PICNIC	1060	n/a	n/a	0	0	0
2113.86083984375	n/a	REC_WORD	4329187	wordpools/wasnorm_wordpool_576.txt	LTP365	ltpFR2	17	9	BRACES	164	n/a	n/a	0	0	0
2151.2255859375	n/a	DISTRACTOR	4405710	n/a	LTP365	ltpFR2	17	10	n/a	n/a	n/a	n/a	0	0	0
2151.2265625	n/a	START	4405712	n/a	LTP365	ltpFR2	17	n/a	n/a	n/a	13	n/a	n/a	n/a	n/a
2151.24267578125	n/a	PROB	4405745	n/a	LTP365	ltpFR2	17	n/a	n/a	n/a	13	11	2	4	5
2153.44140625	n/a	PROB	4410248	n/a	LTP365	ltpFR2	17	n/a	n/a	n/a	13	20	5	9	6
2155.07470703125	n/a	PROB	4413593	n/a	LTP365	ltpFR2	17	n/a	n/a	n/a	13	19	9	3	7
2156.4736328125	n/a	PROB	4416458	n/a	LTP365	ltpFR2	17	n/a	n/a	n/a	13	17	6	4	7
2157.7236328125	n/a	PROB	4419018	n/a	LTP365	ltpFR2	17	n/a	n/a	n/a	13	16	1	9	6
2158.939453125	n/a	PROB	4421508	n/a	LTP365	ltpFR2	17	n/a	n/a	n/a	13	16	8	7	1
2160.3203125	n/a	PROB	4424336	n/a	LTP365	ltpFR2	17	n/a	n/a	n/a	13	10	2	3	5
2161.654296875	n/a	PROB	4427068	n/a	LTP365	ltpFR2	17	n/a	n/a	n/a	13	24	9	7	8
2163.58740234375	n/a	PROB	4431027	n/a	LTP365	ltpFR2	17	n/a	n/a	n/a	13	7	1	3	3
2164.96923828125	n/a	PROB	4433857	n/a	LTP365	ltpFR2	17	n/a	n/a	n/a	13	19	9	3	7
2166.333984375	n/a	PROB	4436652	n/a	LTP365	ltpFR2	17	n/a	n/a	n/a	13	20	7	5	8
2168.0009765625	n/a	PROB	4440066	n/a	LTP365	ltpFR2	17	n/a	n/a	n/a	13	15	6	4	5
2169.68408203125	n/a	PROB	4443513	n/a	LTP365	ltpFR2	17	n/a	n/a	n/a	13	18	8	9	1
2170.98291015625	n/a	PROB	4446173	n/a	LTP365	ltpFR2	17	n/a	n/a	n/a	13	13	4	2	7
2175.21875	n/a	STOP	4454848	n/a	LTP365	ltpFR2	17	n/a	n/a	n/a	13	n/a	n/a	n/a	n/a
2176.23095703125	n/a	WORD	4456921	wordpools/wasnorm_wordpool_576.txt	LTP365	ltpFR2	17	10	CANDY	230	n/a	n/a	0	0	0
2178.77978515625	n/a	WORD	4462141	wordpools/wasnorm_wordpool_576.txt	LTP365	ltpFR2	17	10	COD	340	n/a	n/a	0	0	0
2181.51171875	n/a	WORD	4467736	wordpools/wasnorm_wordpool_576.txt	LTP365	ltpFR2	17	10	SUBWAY	1400	n/a	n/a	0	0	0
2184.20947265625	n/a	WORD	4473261	wordpools/wasnorm_wordpool_576.txt	LTP365	ltpFR2	17	10	ACTOR	5	n/a	n/a	0	0	0
2186.8583984375	n/a	WORD	4478686	wordpools/wasnorm_wordpool_576.txt	LTP365	ltpFR2	17	10	PORK	1108	n/a	n/a	0	0	0
2189.474609375	n/a	WORD	4484044	wordpools/wasnorm_wordpool_576.txt	LTP365	ltpFR2	17	10	SCRIBBLE	1256	n/a	n/a	0	0	0
2192.03955078125	n/a	WORD	4489297	wordpools/wasnorm_wordpool_576.txt	LTP365	ltpFR2	17	10	PLAYGROUND	1087	n/a	n/a	0	0	0
2194.7880859375	n/a	WORD	4494926	wordpools/wasnorm_wordpool_576.txt	LTP365	ltpFR2	17	10	SLIDE	1326	n/a	n/a	0	0	0
2197.60302734375	n/a	WORD	4500691	wordpools/wasnorm_wordpool_576.txt	LTP365	ltpFR2	17	10	NOMAD	955	n/a	n/a	0	0	0
2200.10205078125	n/a	WORD	4505809	wordpools/wasnorm_wordpool_576.txt	LTP365	ltpFR2	17	10	PUDDING	1139	n/a	n/a	0	0	0
2202.5849609375	n/a	WORD	4510894	wordpools/wasnorm_wordpool_576.txt	LTP365	ltpFR2	17	10	JELLO	754	n/a	n/a	0	0	0
2205.34912109375	n/a	WORD	4516555	wordpools/wasnorm_wordpool_576.txt	LTP365	ltpFR2	17	10	BUNNY	198	n/a	n/a	0	0	0
2208.1650390625	n/a	WORD	4522322	wordpools/wasnorm_wordpool_576.txt	LTP365	ltpFR2	17	10	SHOULDER	1294	n/a	n/a	0	0	0
2210.61376953125	n/a	WORD	4527337	wordpools/wasnorm_wordpool_576.txt	LTP365	ltpFR2	17	10	PATROL	1027	n/a	n/a	0	0	0
2213.095703125	n/a	WORD	4532420	wordpools/wasnorm_wordpool_576.txt	LTP365	ltpFR2	17	10	DOLPHIN	483	n/a	n/a	0	0	0
2215.5947265625	n/a	WORD	4537538	wordpools/wasnorm_wordpool_576.txt	LTP365	ltpFR2	17	10	SAUSAGE	1238	n/a	n/a	0	0	0
2218.17626953125	n/a	WORD	4542825	wordpools/wasnorm_wordpool_576.txt	LTP365	ltpFR2	17	10	TRANSPLANT	1496	n/a	n/a	0	0	0
2220.84228515625	n/a	WORD	4548285	wordpools/wasnorm_wordpool_576.txt	LTP365	ltpFR2	17	10	DENIM	446	n/a	n/a	0	0	0
2223.3564453125	n/a	WORD	4553434	wordpools/wasnorm_wordpool_576.txt	LTP365	ltpFR2	17	10	ACTRESS	6	n/a	n/a	0	0	0
2225.90625	n/a	WORD	4558656	wordpools/wasnorm_wordpool_576.txt	LTP365	ltpFR2	17	10	CARROT	249	n/a	n/a	0	0	0
2228.38720703125	n/a	WORD	4563737	wordpools/wasnorm_wordpool_576.txt	LTP365	ltpFR2	17	10	PASTA	1021	n/a	n/a	0	0	0
2231.02099609375	n/a	WORD	4569131	wordpools/wasnorm_wordpool_576.txt	LTP365	ltpFR2	17	10	SANDWICH	1232	n/a	n/a	0	0	0
2233.71923828125	n/a	WORD	4574657	wordpools/wasnorm_wordpool_576.txt	LTP365	ltpFR2	17	10	BARREL	91	n/a	n/a	0	0	0
2236.30078125	n/a	WORD	4579944	wordpools/wasnorm_wordpool_576.txt	LTP365	ltpFR2	17	10	TRENCH	1503	n/a	n/a	0	0	0
2237.91796875	n/a	START	4583256	n/a	LTP365	ltpFR2	17	n/a	n/a	n/a	14	n/a	n/a	n/a	n/a
2238.94189453125	n/a	DISTRACTOR	4585353	n/a	LTP365	ltpFR2	17	10	n/a	n/a	n/a	n/a	0	0	0
2238.94970703125	n/a	PROB	4585369	n/a	LTP365	ltpFR2	17	n/a	n/a	n/a	14	13	5	6	2
2241.8818359375	n/a	PROB	4591374	n/a	LTP365	ltpFR2	17	n/a	n/a	n/a	14	17	6	6	5
2243.6474609375	n/a	PROB	4594990	n/a	LTP365	ltpFR2	17	n/a	n/a	n/a	14	14	6	3	5
2245.5966796875	n/a	PROB	4598982	n/a	LTP365	ltpFR2	17	n/a	n/a	n/a	14	21	6	6	9
2247.396484375	n/a	PROB	4602668	n/a	LTP365	ltpFR2	17	n/a	n/a	n/a	14	17	1	7	9
2249.228515625	n/a	PROB	4606420	n/a	LTP365	ltpFR2	17	n/a	n/a	n/a	14	17	9	6	2
2250.99462890625	n/a	PROB	4610037	n/a	LTP365	ltpFR2	17	n/a	n/a	n/a	14	9	5	2	2
2252.66064453125	n/a	PROB	4613449	n/a	LTP365	ltpFR2	17	n/a	n/a	n/a	14	14	5	5	4
2253.7431640625	n/a	PROB	4615666	n/a	LTP365	ltpFR2	17	n/a	n/a	n/a	14	17	4	5	8
2255.37451171875	n/a	PROB	4619007	n/a	LTP365	ltpFR2	17	n/a	n/a	n/a	14	14	2	6	6
2256.775390625	n/a	PROB	4621876	n/a	LTP365	ltpFR2	17	n/a	n/a	n/a	14	16	3	5	8
2258.45703125	n/a	PROB	4625320	n/a	LTP365	ltpFR2	17	n/a	n/a	n/a	14	11	1	3	7
2259.6572265625	n/a	PROB	4627778	n/a	LTP365	ltpFR2	17	n/a	n/a	n/a	14	15	5	8	2
2260.91015625	n/a	STOP	4630344	n/a	LTP365	ltpFR2	17	n/a	n/a	n/a	14	n/a	n/a	n/a	n/a
2263.7890625	n/a	REC_START	4636240	n/a	LTP365	ltpFR2	17	10	n/a	n/a	n/a	n/a	0	0	0
2265.048828125	n/a	REC_WORD	4638820	wordpools/wasnorm_wordpool_576.txt	LTP365	ltpFR2	17	10	SUBWAY	1400	n/a	n/a	0	0	0
2266.0361328125	n/a	REC_WORD	4640842	wordpools/wasnorm_wordpool_576.txt	LTP365	ltpFR2	17	10	NOMAD	955	n/a	n/a	0	0	0
2267.02783203125	n/a	REC_WORD	4642873	wordpools/wasnorm_wordpool_576.txt	LTP365	ltpFR2	17	10	ACTOR	5	n/a	n/a	0	0	0
2267.9140625	n/a	REC_WORD	4644688	wordpools/wasnorm_wordpool_576.txt	LTP365	ltpFR2	17	10	ACTRESS	6	n/a	n/a	0	0	0
2268.8876953125	n/a	REC_WORD	4646682	wordpools/wasnorm_wordpool_576.txt	LTP365	ltpFR2	17	10	PORK	1108	n/a	n/a	0	0	0
2269.6396484375	n/a	REC_WORD	4648222	wordpools/wasnorm_wordpool_576.txt	LTP365	ltpFR2	17	10	SAUSAGE	1238	n/a	n/a	0	0	0
2271.4150390625	n/a	REC_WORD	4651858	wordpools/wasnorm_wordpool_576.txt	LTP365	ltpFR2	17	10	PASTA	1021	n/a	n/a	0	0	0
2272.57666015625	n/a	REC_WORD	4654237	wordpools/wasnorm_wordpool_576.txt	LTP365	ltpFR2	17	10	BARREL	91	n/a	n/a	0	0	0
2273.4208984375	n/a	REC_WORD	4655966	wordpools/wasnorm_wordpool_576.txt	LTP365	ltpFR2	17	10	CARROT	249	n/a	n/a	0	0	0
2274.376953125	n/a	REC_WORD	4657924	wordpools/wasnorm_wordpool_576.txt	LTP365	ltpFR2	17	10	SANDWICH	1232	n/a	n/a	0	0	0
2277.49462890625	n/a	REC_WORD	4664309	wordpools/wasnorm_wordpool_576.txt	LTP365	ltpFR2	17	10	COD	340	n/a	n/a	0	0	0
2279.21044921875	n/a	REC_WORD	4667823	wordpools/wasnorm_wordpool_576.txt	LTP365	ltpFR2	17	10	CANDY	230	n/a	n/a	0	0	0
2289.94921875	n/a	REC_WORD	4689816	wordpools/wasnorm_wordpool_576.txt	LTP365	ltpFR2	17	10	PLAYGROUND	1087	n/a	n/a	0	0	0
2290.92431640625	n/a	REC_WORD	4691813	wordpools/wasnorm_wordpool_576.txt	LTP365	ltpFR2	17	10	SLIDE	1326	n/a	n/a	0	0	0
2291.8759765625	n/a	REC_WORD	4693762	wordpools/wasnorm_wordpool_576.txt	LTP365	ltpFR2	17	10	SCRIBBLE	1256	n/a	n/a	0	0	0
2354.22802734375	n/a	WORD	4821459	wordpools/wasnorm_wordpool_576.txt	LTP365	ltpFR2	17	11	GIFT	635	n/a	n/a	0	0	0
2356.76025390625	n/a	WORD	4826645	wordpools/wasnorm_wordpool_576.txt	LTP365	ltpFR2	17	11	POSTAGE	1113	n/a	n/a	0	0	0
2359.47509765625	n/a	WORD	4832205	wordpools/wasnorm_wordpool_576.txt	LTP365	ltpFR2	17	11	TROMBONE	1508	n/a	n/a	0	0	0
2362.2900390625	n/a	WORD	4837970	wordpools/wasnorm_wordpool_576.txt	LTP365	ltpFR2	17	11	WRENCH	1625	n/a	n/a	0	0	0
2364.98876953125	n/a	WORD	4843497	wordpools/wasnorm_wordpool_576.txt	LTP365	ltpFR2	17	11	WORLD	1622	n/a	n/a	0	0	0
2367.65478515625	n/a	WORD	4848957	wordpools/wasnorm_wordpool_576.txt	LTP365	ltpFR2	17	11	BIKE	125	n/a	n/a	0	0	0
2370.26953125	n/a	WORD	4854312	wordpools/wasnorm_wordpool_576.txt	LTP365	ltpFR2	17	11	PEDAL	1037	n/a	n/a	0	0	0
2372.935546875	n/a	WORD	4859772	wordpools/wasnorm_wordpool_576.txt	LTP365	ltpFR2	17	11	GLOBE	641	n/a	n/a	0	0	0
2375.484375	n/a	WORD	4864992	wordpools/wasnorm_wordpool_576.txt	LTP365	ltpFR2	17	11	BUBBLE	183	n/a	n/a	0	0	0
2378.29833984375	n/a	WORD	4870755	wordpools/wasnorm_wordpool_576.txt	LTP365	ltpFR2	17	11	TERMITE	1451	n/a	n/a	0	0	0
2380.7314453125	n/a	WORD	4875738	wordpools/wasnorm_wordpool_576.txt	LTP365	ltpFR2	17	11	GRIZZLY	662	n/a	n/a	0	0	0
2383.37939453125	n/a	WORD	4881161	wordpools/wasnorm_wordpool_576.txt	LTP365	ltpFR2	17	11	FLAG	573	n/a	n/a	0	0	0
2385.8623046875	n/a	WORD	4886246	wordpools/wasnorm_wordpool_576.txt	LTP365	ltpFR2	17	11	HAND	683	n/a	n/a	0	0	0
2388.2939453125	n/a	WORD	4891226	wordpools/wasnorm_wordpool_576.txt	LTP365	ltpFR2	17	11	CONCERT	360	n/a	n/a	0	0	0
2391.02685546875	n/a	WORD	4896823	wordpools/wasnorm_wordpool_576.txt	LTP365	ltpFR2	17	11	TWISTER	1530	n/a	n/a	0	0	0
2393.55908203125	n/a	WORD	4902009	wordpools/wasnorm_wordpool_576.txt	LTP365	ltpFR2	17	11	HARP	689	n/a	n/a	0	0	0
2396.140625	n/a	WORD	4907296	wordpools/wasnorm_wordpool_576.txt	LTP365	ltpFR2	17	11	OMELET	976	n/a	n/a	0	0	0
2398.90673828125	n/a	WORD	4912961	wordpools/wasnorm_wordpool_576.txt	LTP365	ltpFR2	17	11	ELBOW	520	n/a	n/a	0	0	0
2401.40478515625	n/a	WORD	4918077	wordpools/wasnorm_wordpool_576.txt	LTP365	ltpFR2	17	11	FLEET	578	n/a	n/a	0	0	0
2404.13671875	n/a	WORD	4923672	wordpools/wasnorm_wordpool_576.txt	LTP365	ltpFR2	17	11	PRINCE	1124	n/a	n/a	0	0	0
2406.61962890625	n/a	WORD	4928757	wordpools/wasnorm_wordpool_576.txt	LTP365	ltpFR2	17	11	PALACE	1006	n/a	n/a	0	0	0
2409.30029296875	n/a	WORD	4934247	wordpools/wasnorm_wordpool_576.txt	LTP365	ltpFR2	17	11	PLUTO	1092	n/a	n/a	0	0	0
2411.76611328125	n/a	WORD	4939297	wordpools/wasnorm_wordpool_576.txt	LTP365	ltpFR2	17	11	DRILL	497	n/a	n/a	0	0	0
2414.46533203125	n/a	WORD	4944825	wordpools/wasnorm_wordpool_576.txt	LTP365	ltpFR2	17	11	RATTLE	1170	n/a	n/a	0	0	0
2416.0810546875	n/a	START	4948134	n/a	LTP365	ltpFR2	17	n/a	n/a	n/a	15	n/a	n/a	n/a	n/a
2416.96533203125	n/a	DISTRACTOR	4949945	n/a	LTP365	ltpFR2	17	11	n/a	n/a	n/a	n/a	0	0	0
2416.98095703125	n/a	PROB	4949977	n/a	LTP365	ltpFR2	17	n/a	n/a	n/a	15	8	1	3	4
2418.4970703125	n/a	PROB	4953082	n/a	LTP365	ltpFR2	17	n/a	n/a	n/a	15	22	9	7	6
2421.17919921875	n/a	PROB	4958575	n/a	LTP365	ltpFR2	17	n/a	n/a	n/a	15	12	8	2	2
2422.7451171875	n/a	PROB	4961782	n/a	LTP365	ltpFR2	17	n/a	n/a	n/a	15	19	9	7	3
2424.0107421875	n/a	PROB	4964374	n/a	LTP365	ltpFR2	17	n/a	n/a	n/a	15	10	4	4	2
2425.22705078125	n/a	PROB	4966865	n/a	LTP365	ltpFR2	17	n/a	n/a	n/a	15	23	9	9	5
2427.17578125	n/a	PROB	4970856	n/a	LTP365	ltpFR2	17	n/a	n/a	n/a	15	17	1	7	9
2428.958984375	n/a	PROB	4974508	n/a	LTP365	ltpFR2	17	n/a	n/a	n/a	15	15	4	6	5
2430.62353515625	n/a	PROB	4977917	n/a	LTP365	ltpFR2	17	n/a	n/a	n/a	15	14	1	5	8
2432.1396484375	n/a	PROB	4981022	n/a	LTP365	ltpFR2	17	n/a	n/a	n/a	15	14	5	8	1
2433.5556640625	n/a	PROB	4983922	n/a	LTP365	ltpFR2	17	n/a	n/a	n/a	15	2	4	9	9
2435.78857421875	n/a	PROB	4988495	n/a	LTP365	ltpFR2	17	n/a	n/a	n/a	15	14	7	1	6
2440.07958984375	n/a	STOP	4997283	n/a	LTP365	ltpFR2	17	n/a	n/a	n/a	15	n/a	n/a	n/a	n/a
2442.01953125	n/a	REC_START	5001256	n/a	LTP365	ltpFR2	17	11	n/a	n/a	n/a	n/a	0	0	0
2443.6943359375	n/a	REC_WORD	5004686	wordpools/wasnorm_wordpool_576.txt	LTP365	ltpFR2	17	11	PEDAL	1037	n/a	n/a	0	0	0
2444.50244140625	n/a	REC_WORD	5006341	wordpools/wasnorm_wordpool_576.txt	LTP365	ltpFR2	17	11	BIKE	125	n/a	n/a	0	0	0
2445.283203125	n/a	REC_WORD	5007940	wordpools/wasnorm_wordpool_576.txt	LTP365	ltpFR2	17	11	POSTAGE	1113	n/a	n/a	0	0	0
2448.201171875	n/a	REC_WORD	5013916	wordpools/wasnorm_wordpool_576.txt	LTP365	ltpFR2	17	11	WORLD	1622	n/a	n/a	0	0	0
2449.119140625	n/a	REC_WORD	5015796	wordpools/wasnorm_wordpool_576.txt	LTP365	ltpFR2	17	11	GLOBE	641	n/a	n/a	0	0	0
2449.92919921875	n/a	REC_WORD	5017455	wordpools/wasnorm_wordpool_576.txt	LTP365	ltpFR2	17	11	PLUTO	1092	n/a	n/a	0	0	0
2450.828125	n/a	REC_WORD	5019296	wordpools/wasnorm_wordpool_576.txt	LTP365	ltpFR2	17	11	PRINCE	1124	n/a	n/a	0	0	0
2451.6640625	n/a	REC_WORD	5021008	wordpools/wasnorm_wordpool_576.txt	LTP365	ltpFR2	17	11	PALACE	1006	n/a	n/a	0	0	0
2452.5791015625	n/a	REC_WORD	5022882	wordpools/wasnorm_wordpool_576.txt	LTP365	ltpFR2	17	11	WRENCH	1625	n/a	n/a	0	0	0
2453.4921875	n/a	REC_WORD	5024752	wordpools/wasnorm_wordpool_576.txt	LTP365	ltpFR2	17	11	DRILL	497	n/a	n/a	0	0	0
2455.259765625	n/a	REC_WORD	5028372	wordpools/wasnorm_wordpool_576.txt	LTP365	ltpFR2	17	11	RATTLE	1170	n/a	n/a	0	0	0
2456.966796875	n/a	REC_WORD	5031868	wordpools/wasnorm_wordpool_576.txt	LTP365	ltpFR2	17	11	TROMBONE	1508	n/a	n/a	0	0	0
2457.9599609375	n/a	REC_WORD	5033902	wordpools/wasnorm_wordpool_576.txt	LTP365	ltpFR2	17	11	HARP	689	n/a	n/a	0	0	0
2459.22705078125	n/a	REC_WORD	5036497	wordpools/wasnorm_wordpool_576.txt	LTP365	ltpFR2	17	11	CONCERT	360	n/a	n/a	0	0	0
2461.31787109375	n/a	REC_WORD	5040779	wordpools/wasnorm_wordpool_576.txt	LTP365	ltpFR2	17	11	OMELET	976	n/a	n/a	0	0	0
2466.78759765625	n/a	REC_WORD	5051981	wordpools/wasnorm_wordpool_576.txt	LTP365	ltpFR2	17	11	GIFT	635	n/a	n/a	0	0	0
2469.59228515625	n/a	REC_WORD	5057725	wordpools/wasnorm_wordpool_576.txt	LTP365	ltpFR2	17	11	HAND	683	n/a	n/a	0	0	0
2474.57421875	n/a	REC_WORD	5067928	wordpools/wasnorm_wordpool_576.txt	LTP365	ltpFR2	17	11	GRIZZLY	662	n/a	n/a	0	0	0
2475.6103515625	n/a	REC_WORD	5070050	wordpools/wasnorm_wordpool_576.txt	LTP365	ltpFR2	17	11	FLAG	573	n/a	n/a	0	0	0
2494.03173828125	n/a	REC_WORD	5107777	wordpools/wasnorm_wordpool_576.txt	LTP365	ltpFR2	17	11	TERMITE	1451	n/a	n/a	0	0	0
2532.44140625	n/a	DISTRACTOR	5186440	n/a	LTP365	ltpFR2	17	12	n/a	n/a	n/a	n/a	0	0	0
2532.44140625	n/a	START	5186440	n/a	LTP365	ltpFR2	17	n/a	n/a	n/a	16	n/a	n/a	n/a	n/a
2532.45849609375	n/a	PROB	5186475	n/a	LTP365	ltpFR2	17	n/a	n/a	n/a	16	13	3	2	8
2534.1572265625	n/a	PROB	5189954	n/a	LTP365	ltpFR2	17	n/a	n/a	n/a	16	14	9	9	6
2535.8564453125	n/a	PROB	5193434	n/a	LTP365	ltpFR2	17	n/a	n/a	n/a	16	15	2	5	8
2537.75537109375	n/a	PROB	5197323	n/a	LTP365	ltpFR2	17	n/a	n/a	n/a	16	16	5	6	5
2539.521484375	n/a	PROB	5200940	n/a	LTP365	ltpFR2	17	n/a	n/a	n/a	16	15	6	5	4
2540.9541015625	n/a	PROB	5203874	n/a	LTP365	ltpFR2	17	n/a	n/a	n/a	16	18	7	7	4
2543.236328125	n/a	PROB	5208548	n/a	LTP365	ltpFR2	17	n/a	n/a	n/a	16	15	9	3	3
2544.85205078125	n/a	PROB	5211857	n/a	LTP365	ltpFR2	17	n/a	n/a	n/a	16	13	2	7	4
2546.63525390625	n/a	PROB	5215509	n/a	LTP365	ltpFR2	17	n/a	n/a	n/a	16	24	9	7	8
2549.1669921875	n/a	PROB	5220694	n/a	LTP365	ltpFR2	17	n/a	n/a	n/a	16	14	4	1	9
2550.36474609375	n/a	PROB	5223147	n/a	LTP365	ltpFR2	17	n/a	n/a	n/a	16	17	4	9	4
2552.23193359375	n/a	PROB	5226971	n/a	LTP365	ltpFR2	17	n/a	n/a	n/a	16	16	3	7	6
2553.98095703125	n/a	PROB	5230553	n/a	LTP365	ltpFR2	17	n/a	n/a	n/a	16	12	3	4	5
2555.77880859375	n/a	STOP	5234235	n/a	LTP365	ltpFR2	17	n/a	n/a	n/a	16	n/a	n/a	n/a	n/a
2557.2958984375	n/a	WORD	5237342	wordpools/wasnorm_wordpool_576.txt	LTP365	ltpFR2	17	12	PUDDLE	1140	n/a	n/a	0	0	0
2559.91162109375	n/a	WORD	5242699	wordpools/wasnorm_wordpool_576.txt	LTP365	ltpFR2	17	12	FLASK	576	n/a	n/a	0	0	0
2562.66064453125	n/a	WORD	5248329	wordpools/wasnorm_wordpool_576.txt	LTP365	ltpFR2	17	12	OUTLAW	989	n/a	n/a	0	0	0
2565.12548828125	n/a	WORD	5253377	wordpools/wasnorm_wordpool_576.txt	LTP365	ltpFR2	17	12	LION	827	n/a	n/a	0	0	0
2567.55859375	n/a	WORD	5258360	wordpools/wasnorm_wordpool_576.txt	LTP365	ltpFR2	17	12	WASP	1593	n/a	n/a	0	0	0
2570.09033203125	n/a	WORD	5263545	wordpools/wasnorm_wordpool_576.txt	LTP365	ltpFR2	17	12	UNCLE	1536	n/a	n/a	0	0	0
2572.6220703125	n/a	WORD	5268730	wordpools/wasnorm_wordpool_576.txt	LTP365	ltpFR2	17	12	PANTHER	1009	n/a	n/a	0	0	0
2575.17138671875	n/a	WORD	5273951	wordpools/wasnorm_wordpool_576.txt	LTP365	ltpFR2	17	12	CLIMBER	323	n/a	n/a	0	0	0
2577.88623046875	n/a	WORD	5279511	wordpools/wasnorm_wordpool_576.txt	LTP365	ltpFR2	17	12	GANGSTER	620	n/a	n/a	0	0	0
2580.3671875	n/a	WORD	5284592	wordpools/wasnorm_wordpool_576.txt	LTP365	ltpFR2	17	12	CHILD	299	n/a	n/a	0	0	0
2582.81689453125	n/a	WORD	5289609	wordpools/wasnorm_wordpool_576.txt	LTP365	ltpFR2	17	12	LIPSTICK	829	n/a	n/a	0	0	0
2585.39892578125	n/a	WORD	5294897	wordpools/wasnorm_wordpool_576.txt	LTP365	ltpFR2	17	12	SEAGULL	1261	n/a	n/a	0	0	0
2588.06494140625	n/a	WORD	5300357	wordpools/wasnorm_wordpool_576.txt	LTP365	ltpFR2	17	12	JOURNAL	760	n/a	n/a	0	0	0
2590.82958984375	n/a	WORD	5306019	wordpools/wasnorm_wordpool_576.txt	LTP365	ltpFR2	17	12	COCOON	339	n/a	n/a	0	0	0
2593.32763671875	n/a	WORD	5311135	wordpools/wasnorm_wordpool_576.txt	LTP365	ltpFR2	17	12	MARKER	870	n/a	n/a	0	0	0
2595.79443359375	n/a	WORD	5316187	wordpools/wasnorm_wordpool_576.txt	LTP365	ltpFR2	17	12	PIGMENT	1066	n/a	n/a	0	0	0
2598.2265625	n/a	WORD	5321168	wordpools/wasnorm_wordpool_576.txt	LTP365	ltpFR2	17	12	FRECKLE	602	n/a	n/a	0	0	0
2600.67529296875	n/a	WORD	5326183	wordpools/wasnorm_wordpool_576.txt	LTP365	ltpFR2	17	12	SCALLOP	1242	n/a	n/a	0	0	0
2603.1240234375	n/a	WORD	5331198	wordpools/wasnorm_wordpool_576.txt	LTP365	ltpFR2	17	12	CLAM	315	n/a	n/a	0	0	0
2605.77294921875	n/a	WORD	5336623	wordpools/wasnorm_wordpool_576.txt	LTP365	ltpFR2	17	12	FOREHEAD	592	n/a	n/a	0	0	0
2608.5380859375	n/a	WORD	5342286	wordpools/wasnorm_wordpool_576.txt	LTP365	ltpFR2	17	12	SUNRISE	1407	n/a	n/a	0	0	0
2611.05419921875	n/a	WORD	5347439	wordpools/wasnorm_wordpool_576.txt	LTP365	ltpFR2	17	12	VIRUS	1572	n/a	n/a	0	0	0
2613.869140625	n/a	WORD	5353204	wordpools/wasnorm_wordpool_576.txt	LTP365	ltpFR2	17	12	VAGRANT	1544	n/a	n/a	0	0	0
2616.55078125	n/a	WORD	5358696	wordpools/wasnorm_wordpool_576.txt	LTP365	ltpFR2	17	12	AUTHOR	61	n/a	n/a	0	0	0
2618.1669921875	n/a	START	5362006	n/a	LTP365	ltpFR2	17	n/a	n/a	n/a	17	n/a	n/a	n/a	n/a
2619.17578125	n/a	DISTRACTOR	5364072	n/a	LTP365	ltpFR2	17	12	n/a	n/a	n/a	n/a	0	0	0
2619.1826171875	n/a	PROB	5364086	n/a	LTP365	ltpFR2	17	n/a	n/a	n/a	17	17	5	5	7
2620.7158203125	n/a	PROB	5367226	n/a	LTP365	ltpFR2	17	n/a	n/a	n/a	17	12	1	7	4
2622.24853515625	n/a	PROB	5370365	n/a	LTP365	ltpFR2	17	n/a	n/a	n/a	17	8	2	1	5
2623.63037109375	n/a	PROB	5373195	n/a	LTP365	ltpFR2	17	n/a	n/a	n/a	17	20	6	6	8
2625.04638671875	n/a	PROB	5376095	n/a	LTP365	ltpFR2	17	n/a	n/a	n/a	17	20	3	9	8
2626.66259765625	n/a	PROB	5379405	n/a	LTP365	ltpFR2	17	n/a	n/a	n/a	17	23	7	9	7
2628.9453125	n/a	PROB	5384080	n/a	LTP365	ltpFR2	17	n/a	n/a	n/a	17	19	8	7	4
2630.59423828125	n/a	PROB	5387457	n/a	LTP365	ltpFR2	17	n/a	n/a	n/a	17	17	5	6	6
2632.826171875	n/a	PROB	5392028	n/a	LTP365	ltpFR2	17	n/a	n/a	n/a	17	15	6	6	3
2634.72509765625	n/a	PROB	5395917	n/a	LTP365	ltpFR2	17	n/a	n/a	n/a	17	17	8	3	6
2636.50830078125	n/a	PROB	5399569	n/a	LTP365	ltpFR2	17	n/a	n/a	n/a	17	9	3	4	2
2638.18994140625	n/a	PROB	5403013	n/a	LTP365	ltpFR2	17	n/a	n/a	n/a	17	18	6	3	9
2640.30517578125	n/a	PROB	5407345	n/a	LTP365	ltpFR2	17	n/a	n/a	n/a	17	19	4	9	6
2641.77880859375	n/a	STOP	5410363	n/a	LTP365	ltpFR2	17	n/a	n/a	n/a	17	n/a	n/a	n/a	n/a
2644.0380859375	n/a	REC_START	5414990	n/a	LTP365	ltpFR2	17	12	n/a	n/a	n/a	n/a	0	0	0
2644.68212890625	n/a	REC_WORD	5416309	wordpools/wasnorm_wordpool_576.txt	LTP365	ltpFR2	17	12	VAGRANT	1544	n/a	n/a	0	0	0
2645.64599609375	n/a	REC_WORD	5418283	wordpools/wasnorm_wordpool_576.txt	LTP365	ltpFR2	17	12	LIPSTICK	829	n/a	n/a	0	0	0
2647.40087890625	n/a	REC_WORD	5421877	wordpools/wasnorm_wordpool_576.txt	LTP365	ltpFR2	17	12	UNCLE	1536	n/a	n/a	0	0	0
2648.69677734375	n/a	REC_WORD	5424531	wordpools/wasnorm_wordpool_576.txt	LTP365	ltpFR2	17	12	PANTHER	1009	n/a	n/a	0	0	0
2650.07275390625	n/a	REC_WORD	5427349	wordpools/wasnorm_wordpool_576.txt	LTP365	ltpFR2	17	12	LION	827	n/a	n/a	0	0	0
2651.7197265625	n/a	REC_WORD	5430722	wordpools/wasnorm_wordpool_576.txt	LTP365	ltpFR2	17	12	HORNET	718	n/a	n/a	0	0	0
2653.439453125	n/a	REC_WORD	5434244	wordpools/wasnorm_wordpool_576.txt	LTP365	ltpFR2	17	12	FLASK	576	n/a	n/a	0	0	0
2655.42236328125	n/a	REC_WORD	5438305	wordpools/wasnorm_wordpool_576.txt	LTP365	ltpFR2	17	12	PUDDLE	1140	n/a	n/a	0	0	0
2657.103515625	n/a	REC_WORD	5441748	wordpools/wasnorm_wordpool_576.txt	LTP365	ltpFR2	17	12	OUTLAW	989	n/a	n/a	0	0	0
2660.8935546875	n/a	REC_WORD	5449510	wordpools/wasnorm_wordpool_576.txt	LTP365	ltpFR2	17	12	CLIMBER	323	n/a	n/a	0	0	0
2734.47705078125	n/a	WORD	5600209	wordpools/wasnorm_wordpool_576.txt	LTP365	ltpFR2	17	13	SUNSET	1408	n/a	n/a	0	0	0
2737.291015625	n/a	WORD	5605972	wordpools/wasnorm_wordpool_576.txt	LTP365	ltpFR2	17	13	AIRPORT	13	n/a	n/a	0	0	0
2739.875	n/a	WORD	5611264	wordpools/wasnorm_wordpool_576.txt	LTP365	ltpFR2	17	13	PERMIT	1051	n/a	n/a	0	0	0
2742.52392578125	n/a	WORD	5616689	wordpools/wasnorm_wordpool_576.txt	LTP365	ltpFR2	17	13	FEMALE	559	n/a	n/a	0	0	0
2745.2705078125	n/a	WORD	5622314	wordpools/wasnorm_wordpool_576.txt	LTP365	ltpFR2	17	13	HOOD	714	n/a	n/a	0	0	0
2747.70458984375	n/a	WORD	5627299	wordpools/wasnorm_wordpool_576.txt	LTP365	ltpFR2	17	13	JUDGE	761	n/a	n/a	0	0	0
2750.45263671875	n/a	WORD	5632927	wordpools/wasnorm_wordpool_576.txt	LTP365	ltpFR2	17	13	COCKTAIL	338	n/a	n/a	0	0	0
2753.11865234375	n/a	WORD	5638387	wordpools/wasnorm_wordpool_576.txt	LTP365	ltpFR2	17	13	BROOK	177	n/a	n/a	0	0	0
2755.8662109375	n/a	WORD	5644014	wordpools/wasnorm_wordpool_576.txt	LTP365	ltpFR2	17	13	MARSH	874	n/a	n/a	0	0	0
2758.68212890625	n/a	WORD	5649781	wordpools/wasnorm_wordpool_576.txt	LTP365	ltpFR2	17	13	LOVER	846	n/a	n/a	0	0	0
2761.3974609375	n/a	WORD	5655342	wordpools/wasnorm_wordpool_576.txt	LTP365	ltpFR2	17	13	PERCH	1048	n/a	n/a	0	0	0
2764.1630859375	n/a	WORD	5661006	wordpools/wasnorm_wordpool_576.txt	LTP365	ltpFR2	17	13	ANTLER	29	n/a	n/a	0	0	0
2766.8779296875	n/a	WORD	5666566	wordpools/wasnorm_wordpool_576.txt	LTP365	ltpFR2	17	13	MUFFIN	929	n/a	n/a	0	0	0
2769.4267578125	n/a	WORD	5671786	wordpools/wasnorm_wordpool_576.txt	LTP365	ltpFR2	17	13	SISTER	1312	n/a	n/a	0	0	0
2771.958984375	n/a	WORD	5676972	wordpools/wasnorm_wordpool_576.txt	LTP365	ltpFR2	17	13	PARENT	1013	n/a	n/a	0	0	0
2774.474609375	n/a	WORD	5682124	wordpools/wasnorm_wordpool_576.txt	LTP365	ltpFR2	17	13	SWORD	1423	n/a	n/a	0	0	0
2777.056640625	n/a	WORD	5687412	wordpools/wasnorm_wordpool_576.txt	LTP365	ltpFR2	17	13	BRAKE	166	n/a	n/a	0	0	0
2779.65576171875	n/a	WORD	5692735	wordpools/wasnorm_wordpool_576.txt	LTP365	ltpFR2	17	13	WHISTLE	1606	n/a	n/a	0	0	0
2782.1875	n/a	WORD	5697920	wordpools/wasnorm_wordpool_576.txt	LTP365	ltpFR2	17	13	DAUGHTER	442	n/a	n/a	0	0	0
2784.96923828125	n/a	WORD	5703617	wordpools/wasnorm_wordpool_576.txt	LTP365	ltpFR2	17	13	SCOTCH	1251	n/a	n/a	0	0	0
2787.71826171875	n/a	WORD	5709247	wordpools/wasnorm_wordpool_576.txt	LTP365	ltpFR2	17	13	TROUT	1511	n/a	n/a	0	0	0
2790.150390625	n/a	WORD	5714228	wordpools/wasnorm_wordpool_576.txt	LTP365	ltpFR2	17	13	LAKE	796	n/a	n/a	0	0	0
2792.84912109375	n/a	WORD	5719755	wordpools/wasnorm_wordpool_576.txt	LTP365	ltpFR2	17	13	PAIL	1002	n/a	n/a	0	0	0
2795.4140625	n/a	WORD	5725008	wordpools/wasnorm_wordpool_576.txt	LTP365	ltpFR2	17	13	TRUCK	1512	n/a	n/a	0	0	0
2797.0302734375	n/a	START	5728318	n/a	LTP365	ltpFR2	17	n/a	n/a	n/a	18	n/a	n/a	n/a	n/a
2798.01513671875	n/a	DISTRACTOR	5730335	n/a	LTP365	ltpFR2	17	13	n/a	n/a	n/a	n/a	0	0	0
2798.0302734375	n/a	PROB	5730366	n/a	LTP365	ltpFR2	17	n/a	n/a	n/a	18	8	2	2	4
2799.37890625	n/a	PROB	5733128	n/a	LTP365	ltpFR2	17	n/a	n/a	n/a	18	17	8	5	4
2801.162109375	n/a	PROB	5736780	n/a	LTP365	ltpFR2	17	n/a	n/a	n/a	18	23	7	7	8
2807.27490234375	n/a	PROB	5749299	n/a	LTP365	ltpFR2	17	n/a	n/a	n/a	18	17	7	8	2
2810.90673828125	n/a	PROB	5756737	n/a	LTP365	ltpFR2	17	n/a	n/a	n/a	18	17	9	6	2
2812.939453125	n/a	PROB	5760900	n/a	LTP365	ltpFR2	17	n/a	n/a	n/a	18	14	3	4	7
2814.4716796875	n/a	PROB	5764038	n/a	LTP365	ltpFR2	17	n/a	n/a	n/a	18	7	5	1	1
2816.95458984375	n/a	PROB	5769123	n/a	LTP365	ltpFR2	17	n/a	n/a	n/a	18	8	3	1	4
2818.58642578125	n/a	PROB	5772465	n/a	LTP365	ltpFR2	17	n/a	n/a	n/a	18	15	9	5	1
2819.947265625	n/a	STOP	5775252	n/a	LTP365	ltpFR2	17	n/a	n/a	n/a	18	n/a	n/a	n/a	n/a
2822.9013671875	n/a	REC_START	5781302	n/a	LTP365	ltpFR2	17	13	n/a	n/a	n/a	n/a	0	0	0
2823.50634765625	n/a	REC_WORD	5782541	wordpools/wasnorm_wordpool_576.txt	LTP365	ltpFR2	17	13	TRUCK	1512	n/a	n/a	0	0	0
2825.740234375	n/a	REC_WORD	5787116	wordpools/wasnorm_wordpool_576.txt	LTP365	ltpFR2	17	13	BRAKE	166	n/a	n/a	0	0	0
2827.64794921875	n/a	REC_WORD	5791023	wordpools/wasnorm_wordpool_576.txt	LTP365	ltpFR2	17	13	PERCH	1048	n/a	n/a	0	0	0
2829.51513671875	n/a	REC_WORD	5794847	wordpools/wasnorm_wordpool_576.txt	LTP365	ltpFR2	17	13	ANTLER	29	n/a	n/a	0	0	0
2831.02294921875	n/a	REC_WORD	5797935	wordpools/wasnorm_wordpool_576.txt	LTP365	ltpFR2	17	13	SWORD	1423	n/a	n/a	0	0	0
2832.93896484375	n/a	REC_WORD	5801859	wordpools/wasnorm_wordpool_576.txt	LTP365	ltpFR2	17	13	COCKTAIL	338	n/a	n/a	0	0	0
2834.763671875	n/a	REC_WORD	5805596	wordpools/wasnorm_wordpool_576.txt	LTP365	ltpFR2	17	13	SCOTCH	1251	n/a	n/a	0	0	0
2836.7099609375	n/a	REC_WORD	5809582	wordpools/wasnorm_wordpool_576.txt	LTP365	ltpFR2	17	13	WHISTLE	1606	n/a	n/a	0	0	0
2839.27978515625	n/a	REC_WORD	5814845	wordpools/wasnorm_wordpool_576.txt	LTP365	ltpFR2	17	13	LOVER	846	n/a	n/a	0	0	0
2841.48779296875	n/a	REC_WORD	5819367	wordpools/wasnorm_wordpool_576.txt	LTP365	ltpFR2	17	13	JUDGE	761	n/a	n/a	0	0	0
2848.57861328125	n/a	REC_WORD	5833889	wordpools/wasnorm_wordpool_576.txt	LTP365	ltpFR2	17	13	SUNSET	1408	n/a	n/a	0	0	0
2850.3984375	n/a	REC_WORD	5837616	wordpools/wasnorm_wordpool_576.txt	LTP365	ltpFR2	17	13	AIRPORT	13	n/a	n/a	0	0	0
2864.09375	n/a	REC_WORD	5865664	wordpools/wasnorm_wordpool_576.txt	LTP365	ltpFR2	17	13	HOOD	714	n/a	n/a	0	0	0
2867.10009765625	n/a	REC_WORD	5871821	wordpools/wasnorm_wordpool_576.txt	LTP365	ltpFR2	17	13	FEMALE	559	n/a	n/a	0	0	0
2876.2353515625	n/a	REC_WORD	5890530	wordpools/wasnorm_wordpool_576.txt	LTP365	ltpFR2	17	13	PAIL	1002	n/a	n/a	0	0	0
2913.3232421875	n/a	DISTRACTOR	5966486	n/a	LTP365	ltpFR2	17	14	n/a	n/a	n/a	n/a	0	0	0
2913.3232421875	n/a	START	5966486	n/a	LTP365	ltpFR2	17	n/a	n/a	n/a	19	n/a	n/a	n/a	n/a
2913.33935546875	n/a	PROB	5966519	n/a	LTP365	ltpFR2	17	n/a	n/a	n/a	19	13	5	7	1
2915.92333984375	n/a	PROB	5971811	n/a	LTP365	ltpFR2	17	n/a	n/a	n/a	19	21	6	6	9
2917.47216796875	n/a	PROB	5974983	n/a	LTP365	ltpFR2	17	n/a	n/a	n/a	19	19	8	2	9
2918.88818359375	n/a	PROB	5977883	n/a	LTP365	ltpFR2	17	n/a	n/a	n/a	19	21	9	9	3
2921.0703125	n/a	PROB	5982352	n/a	LTP365	ltpFR2	17	n/a	n/a	n/a	19	13	5	6	2
2926.18408203125	n/a	PROB	5992825	n/a	LTP365	ltpFR2	17	n/a	n/a	n/a	19	9	2	2	5
2927.40087890625	n/a	PROB	5995317	n/a	LTP365	ltpFR2	17	n/a	n/a	n/a	19	15	2	4	9
2929.3828125	n/a	PROB	5999376	n/a	LTP365	ltpFR2	17	n/a	n/a	n/a	19	10	1	5	4
2930.7158203125	n/a	PROB	6002106	n/a	LTP365	ltpFR2	17	n/a	n/a	n/a	19	19	2	8	9
2932.048828125	n/a	PROB	6004836	n/a	LTP365	ltpFR2	17	n/a	n/a	n/a	19	13	3	5	5
2933.23095703125	n/a	PROB	6007257	n/a	LTP365	ltpFR2	17	n/a	n/a	n/a	19	10	1	8	1
2934.32958984375	n/a	PROB	6009507	n/a	LTP365	ltpFR2	17	n/a	n/a	n/a	19	18	5	8	5
2937.32275390625	n/a	STOP	6015637	n/a	LTP365	ltpFR2	17	n/a	n/a	n/a	19	n/a	n/a	n/a	n/a
2938.4287109375	n/a	WORD	6017902	wordpools/wasnorm_wordpool_576.txt	LTP365	ltpFR2	17	14	TURNIP	1521	n/a	n/a	0	0	0
2941.2275390625	n/a	WORD	6023634	wordpools/wasnorm_wordpool_576.txt	LTP365	ltpFR2	17	14	CABBAGE	210	n/a	n/a	0	0	0
2943.87646484375	n/a	WORD	6029059	wordpools/wasnorm_wordpool_576.txt	LTP365	ltpFR2	17	14	GHETTO	633	n/a	n/a	0	0	0
2946.45849609375	n/a	WORD	6034347	wordpools/wasnorm_wordpool_576.txt	LTP365	ltpFR2	17	14	LEG	809	n/a	n/a	0	0	0
2949.2060546875	n/a	WORD	6039974	wordpools/wasnorm_wordpool_576.txt	LTP365	ltpFR2	17	14	CRUTCH	417	n/a	n/a	0	0	0
2951.98828125	n/a	WORD	6045672	wordpools/wasnorm_wordpool_576.txt	LTP365	ltpFR2	17	14	BEAKER	104	n/a	n/a	0	0	0
2954.52099609375	n/a	WORD	6050859	wordpools/wasnorm_wordpool_576.txt	LTP365	ltpFR2	17	14	BOUQUET	157	n/a	n/a	0	0	0
2957.3349609375	n/a	WORD	6056622	wordpools/wasnorm_wordpool_576.txt	LTP365	ltpFR2	17	14	DIVER	476	n/a	n/a	0	0	0
2959.81787109375	n/a	WORD	6061707	wordpools/wasnorm_wordpool_576.txt	LTP365	ltpFR2	17	14	NEUTRON	947	n/a	n/a	0	0	0
2962.28271484375	n/a	WORD	6066755	wordpools/wasnorm_wordpool_576.txt	LTP365	ltpFR2	17	14	SALT	1229	n/a	n/a	0	0	0
2964.99853515625	n/a	WORD	6072317	wordpools/wasnorm_wordpool_576.txt	LTP365	ltpFR2	17	14	GUARD	667	n/a	n/a	0	0	0
2967.7978515625	n/a	WORD	6078050	wordpools/wasnorm_wordpool_576.txt	LTP365	ltpFR2	17	14	COUNTRY	388	n/a	n/a	0	0	0
2970.49658203125	n/a	WORD	6083577	wordpools/wasnorm_wordpool_576.txt	LTP365	ltpFR2	17	14	PERFUME	1049	n/a	n/a	0	0	0
2972.978515625	n/a	WORD	6088660	wordpools/wasnorm_wordpool_576.txt	LTP365	ltpFR2	17	14	MAILBOX	857	n/a	n/a	0	0	0
2975.49462890625	n/a	WORD	6093813	wordpools/wasnorm_wordpool_576.txt	LTP365	ltpFR2	17	14	NURSE	963	n/a	n/a	0	0	0
2978.0595703125	n/a	WORD	6099066	wordpools/wasnorm_wordpool_576.txt	LTP365	ltpFR2	17	14	SNAIL	1332	n/a	n/a	0	0	0
2980.658203125	n/a	WORD	6104388	wordpools/wasnorm_wordpool_576.txt	LTP365	ltpFR2	17	14	PIANO	1057	n/a	n/a	0	0	0
2983.43994140625	n/a	WORD	6110085	wordpools/wasnorm_wordpool_576.txt	LTP365	ltpFR2	17	14	SALMON	1227	n/a	n/a	0	0	0
2986.171875	n/a	WORD	6115680	wordpools/wasnorm_wordpool_576.txt	LTP365	ltpFR2	17	14	GALLON	618	n/a	n/a	0	0	0
2988.7041015625	n/a	WORD	6120866	wordpools/wasnorm_wordpool_576.txt	LTP365	ltpFR2	17	14	LAGOON	795	n/a	n/a	0	0	0
2991.2529296875	n/a	WORD	6126086	wordpools/wasnorm_wordpool_576.txt	LTP365	ltpFR2	17	14	EUROPE	541	n/a	n/a	0	0	0
2993.90185546875	n/a	WORD	6131511	wordpools/wasnorm_wordpool_576.txt	LTP365	ltpFR2	17	14	BULLET	194	n/a	n/a	0	0	0
2996.3837890625	n/a	WORD	6136594	wordpools/wasnorm_wordpool_576.txt	LTP365	ltpFR2	17	14	MAILMAN	858	n/a	n/a	0	0	0
2998.8828125	n/a	WORD	6141712	wordpools/wasnorm_wordpool_576.txt	LTP365	ltpFR2	17	14	DUSTPAN	509	n/a	n/a	0	0	0
3000.49853515625	n/a	START	6145021	n/a	LTP365	ltpFR2	17	n/a	n/a	n/a	20	n/a	n/a	n/a	n/a
3001.6357421875	n/a	DISTRACTOR	6147350	n/a	LTP365	ltpFR2	17	14	n/a	n/a	n/a	n/a	0	0	0
3001.6474609375	n/a	PROB	6147374	n/a	LTP365	ltpFR2	17	n/a	n/a	n/a	20	13	3	4	6
3003.3974609375	n/a	PROB	6150958	n/a	LTP365	ltpFR2	17	n/a	n/a	n/a	20	18	8	8	2
3004.87939453125	n/a	PROB	6153993	n/a	LTP365	ltpFR2	17	n/a	n/a	n/a	20	12	3	5	4
3006.54541015625	n/a	PROB	6157405	n/a	LTP365	ltpFR2	17	n/a	n/a	n/a	20	15	5	3	7
3007.89453125	n/a	PROB	6160168	n/a	LTP365	ltpFR2	17	n/a	n/a	n/a	20	16	1	8	7
3009.51025390625	n/a	PROB	6163477	n/a	LTP365	ltpFR2	17	n/a	n/a	n/a	20	18	9	8	1
3010.8603515625	n/a	PROB	6166242	n/a	LTP365	ltpFR2	17	n/a	n/a	n/a	20	8	5	1	2
3012.20947265625	n/a	PROB	6169005	n/a	LTP365	ltpFR2	17	n/a	n/a	n/a	20	13	1	7	5
3015.1083984375	n/a	PROB	6174942	n/a	LTP365	ltpFR2	17	n/a	n/a	n/a	20	11	5	2	4
3017.1240234375	n/a	PROB	6179070	n/a	LTP365	ltpFR2	17	n/a	n/a	n/a	20	9	1	2	6
3018.4560546875	n/a	PROB	6181798	n/a	LTP365	ltpFR2	17	n/a	n/a	n/a	20	17	9	2	6
3020.38916015625	n/a	PROB	6185757	n/a	LTP365	ltpFR2	17	n/a	n/a	n/a	20	15	2	4	9
3023.0830078125	n/a	STOP	6191274	n/a	LTP365	ltpFR2	17	n/a	n/a	n/a	20	n/a	n/a	n/a	n/a
3026.31884765625	n/a	REC_START	6197901	n/a	LTP365	ltpFR2	17	14	n/a	n/a	n/a	n/a	0	0	0
3028.64453125	n/a	REC_WORD	6202664	wordpools/wasnorm_wordpool_576.txt	LTP365	ltpFR2	17	14	BULLET	194	n/a	n/a	0	0	0
3030.009765625	n/a	REC_WORD	6205460	wordpools/wasnorm_wordpool_576.txt	LTP365	ltpFR2	17	14	GUARD	667	n/a	n/a	0	0	0
3030.8955078125	n/a	REC_WORD	6207274	wordpools/wasnorm_wordpool_576.txt	LTP365	ltpFR2	17	14	MAILMAN	858	n/a	n/a	0	0	0
3032.61083984375	n/a	REC_WORD	6210787	wordpools/wasnorm_wordpool_576.txt	LTP365	ltpFR2	17	14	NURSE	963	n/a	n/a	0	0	0
3033.7724609375	n/a	REC_WORD	6213166	wordpools/wasnorm_wordpool_576.txt	LTP365	ltpFR2	17	14	DUSTPAN	509	n/a	n/a	0	0	0
3035.1123046875	n/a	REC_WORD	6215910	wordpools/wasnorm_wordpool_576.txt	LTP365	ltpFR2	17	14	DIVER	476	n/a	n/a	0	0	0
3036.5693359375	n/a	REC_WORD	6218894	wordpools/wasnorm_wordpool_576.txt	LTP365	ltpFR2	17	14	BOUQUET	157	n/a	n/a	0	0	0
3038.13818359375	n/a	REC_WORD	6222107	wordpools/wasnorm_wordpool_576.txt	LTP365	ltpFR2	17	14	GHETTO	633	n/a	n/a	0	0	0
3039.18115234375	n/a	REC_WORD	6224243	wordpools/wasnorm_wordpool_576.txt	LTP365	ltpFR2	17	14	BEAKER	104	n/a	n/a	0	0	0
3040.9794921875	n/a	REC_WORD	6227926	wordpools/wasnorm_wordpool_576.txt	LTP365	ltpFR2	17	14	CABBAGE	210	n/a	n/a	0	0	0
3042.8125	n/a	REC_WORD	6231680	wordpools/wasnorm_wordpool_576.txt	LTP365	ltpFR2	17	14	TURNIP	1521	n/a	n/a	0	0	0
3044.42236328125	n/a	REC_WORD	6234977	wordpools/wasnorm_wordpool_576.txt	LTP365	ltpFR2	17	14	SALMON	1227	n/a	n/a	0	0	0
3098.9345703125	n/a	REC_WORD	6346618	wordpools/wasnorm_wordpool_576.txt	LTP365	ltpFR2	17	14	COUNTRY	388	n/a	n/a	0	0	0
3116.7587890625	n/a	WORD	6383122	wordpools/wasnorm_wordpool_576.txt	LTP365	ltpFR2	17	15	CAMEL	223	n/a	n/a	0	0	0
3119.19091796875	n/a	WORD	6388103	wordpools/wasnorm_wordpool_576.txt	LTP365	ltpFR2	17	15	VALLEY	1545	n/a	n/a	0	0	0
3121.87255859375	n/a	WORD	6393595	wordpools/wasnorm_wordpool_576.txt	LTP365	ltpFR2	17	15	HUSBAND	728	n/a	n/a	0	0	0
3124.421875	n/a	WORD	6398816	wordpools/wasnorm_wordpool_576.txt	LTP365	ltpFR2	17	15	DOUGHNUT	490	n/a	n/a	0	0	0
3127.1875	n/a	WORD	6404480	wordpools/wasnorm_wordpool_576.txt	LTP365	ltpFR2	17	15	DRINK	498	n/a	n/a	0	0	0
3129.78564453125	n/a	WORD	6409801	wordpools/wasnorm_wordpool_576.txt	LTP365	ltpFR2	17	15	STATUE	1374	n/a	n/a	0	0	0
3132.21826171875	n/a	WORD	6414783	wordpools/wasnorm_wordpool_576.txt	LTP365	ltpFR2	17	15	KITCHEN	778	n/a	n/a	0	0	0
3134.68359375	n/a	WORD	6419832	wordpools/wasnorm_wordpool_576.txt	LTP365	ltpFR2	17	15	LABEL	790	n/a	n/a	0	0	0
3137.24951171875	n/a	WORD	6425087	wordpools/wasnorm_wordpool_576.txt	LTP365	ltpFR2	17	15	BRANDY	169	n/a	n/a	0	0	0
3140.04736328125	n/a	WORD	6430817	wordpools/wasnorm_wordpool_576.txt	LTP365	ltpFR2	17	15	BROTHER	179	n/a	n/a	0	0	0
3142.830078125	n/a	WORD	6436516	wordpools/wasnorm_wordpool_576.txt	LTP365	ltpFR2	17	15	CRITIC	410	n/a	n/a	0	0	0
3145.544921875	n/a	WORD	6442076	wordpools/wasnorm_wordpool_576.txt	LTP365	ltpFR2	17	15	BACON	67	n/a	n/a	0	0	0
3148.14404296875	n/a	WORD	6447399	wordpools/wasnorm_wordpool_576.txt	LTP365	ltpFR2	17	15	TURKEY	1520	n/a	n/a	0	0	0
3150.72607421875	n/a	WORD	6452687	wordpools/wasnorm_wordpool_576.txt	LTP365	ltpFR2	17	15	BANK	83	n/a	n/a	0	0	0
3153.5078125	n/a	WORD	6458384	wordpools/wasnorm_wordpool_576.txt	LTP365	ltpFR2	17	15	SLUG	1329	n/a	n/a	0	0	0
3155.98974609375	n/a	WORD	6463467	wordpools/wasnorm_wordpool_576.txt	LTP365	ltpFR2	17	15	TURTLE	1522	n/a	n/a	0	0	0
3158.638671875	n/a	WORD	6468892	wordpools/wasnorm_wordpool_576.txt	LTP365	ltpFR2	17	15	FLESH	579	n/a	n/a	0	0	0
3161.37060546875	n/a	WORD	6474487	wordpools/wasnorm_wordpool_576.txt	LTP365	ltpFR2	17	15	GARBAGE	622	n/a	n/a	0	0	0
3163.88623046875	n/a	WORD	6479639	wordpools/wasnorm_wordpool_576.txt	LTP365	ltpFR2	17	15	GREASE	660	n/a	n/a	0	0	0
3166.58447265625	n/a	WORD	6485165	wordpools/wasnorm_wordpool_576.txt	LTP365	ltpFR2	17	15	TAXI	1438	n/a	n/a	0	0	0
3169.18310546875	n/a	WORD	6490487	wordpools/wasnorm_wordpool_576.txt	LTP365	ltpFR2	17	15	CASHEW	253	n/a	n/a	0	0	0
3171.98193359375	n/a	WORD	6496219	wordpools/wasnorm_wordpool_576.txt	LTP365	ltpFR2	17	15	CONTRACT	368	n/a	n/a	0	0	0
3174.630859375	n/a	WORD	6501644	wordpools/wasnorm_wordpool_576.txt	LTP365	ltpFR2	17	15	MEDAL	885	n/a	n/a	0	0	0
3177.39599609375	n/a	WORD	6507307	wordpools/wasnorm_wordpool_576.txt	LTP365	ltpFR2	17	15	CRAYON	401	n/a	n/a	0	0	0
3179.01171875	n/a	START	6510616	n/a	LTP365	ltpFR2	17	n/a	n/a	n/a	21	n/a	n/a	n/a	n/a
3180.19287109375	n/a	DISTRACTOR	6513035	n/a	LTP365	ltpFR2	17	15	n/a	n/a	n/a	n/a	0	0	0
3180.19482421875	n/a	PROB	6513039	n/a	LTP365	ltpFR2	17	n/a	n/a	n/a	21	11	3	6	2
3182.22705078125	n/a	PROB	6517201	n/a	LTP365	ltpFR2	17	n/a	n/a	n/a	21	16	5	4	7
3184.2099609375	n/a	PROB	6521262	n/a	LTP365	ltpFR2	17	n/a	n/a	n/a	21	13	9	7	7
3186.841796875	n/a	PROB	6526652	n/a	LTP365	ltpFR2	17	n/a	n/a	n/a	21	16	5	5	6
3189.28955078125	n/a	PROB	6531665	n/a	LTP365	ltpFR2	17	n/a	n/a	n/a	21	14	3	8	3
3190.95654296875	n/a	PROB	6535079	n/a	LTP365	ltpFR2	17	n/a	n/a	n/a	21	12	2	1	9
3192.7724609375	n/a	PROB	6538798	n/a	LTP365	ltpFR2	17	n/a	n/a	n/a	21	20	2	9	9
3194.25341796875	n/a	PROB	6541831	n/a	LTP365	ltpFR2	17	n/a	n/a	n/a	21	19	5	9	5
3195.75439453125	n/a	PROB	6544905	n/a	LTP365	ltpFR2	17	n/a	n/a	n/a	21	25	8	8	9
3198.00341796875	n/a	PROB	6549511	n/a	LTP365	ltpFR2	17	n/a	n/a	n/a	21	13	4	6	3
3199.4521484375	n/a	PROB	6552478	n/a	LTP365	ltpFR2	17	n/a	n/a	n/a	21	18	2	9	7
3201.41845703125	n/a	PROB	6556505	n/a	LTP365	ltpFR2	17	n/a	n/a	n/a	21	7	5	1	1
3202.54736328125	n/a	STOP	6558817	n/a	LTP365	ltpFR2	17	n/a	n/a	n/a	21	n/a	n/a	n/a	n/a
3204.9501953125	n/a	REC_START	6563738	n/a	LTP365	ltpFR2	17	15	n/a	n/a	n/a	n/a	0	0	0
3206.7978515625	n/a	REC_WORD	6567522	wordpools/wasnorm_wordpool_576.txt	LTP365	ltpFR2	17	15	VALLEY	1545	n/a	n/a	0	0	0
3207.98681640625	n/a	REC_WORD	6569957	wordpools/wasnorm_wordpool_576.txt	LTP365	ltpFR2	17	15	DESERT	-1	n/a	n/a	0	0	0
3208.7490234375	n/a	REC_WORD	6571518	wordpools/wasnorm_wordpool_576.txt	LTP365	ltpFR2	17	15	STATUE	1374	n/a	n/a	0	0	0
3210.2587890625	n/a	REC_WORD	6574610	wordpools/wasnorm_wordpool_576.txt	LTP365	ltpFR2	17	15	HUSBAND	728	n/a	n/a	0	0	0
3212.47705078125	n/a	REC_WORD	6579153	wordpools/wasnorm_wordpool_576.txt	LTP365	ltpFR2	17	15	KITCHEN	778	n/a	n/a	0	0	0
3213.56884765625	n/a	REC_WORD	6581389	wordpools/wasnorm_wordpool_576.txt	LTP365	ltpFR2	17	15	DOUGHNUT	490	n/a	n/a	0	0	0
3216.37060546875	n/a	REC_WORD	6587127	wordpools/wasnorm_wordpool_576.txt	LTP365	ltpFR2	17	15	DRINK	498	n/a	n/a	0	0	0
3218.90478515625	n/a	REC_WORD	6592317	wordpools/wasnorm_wordpool_576.txt	LTP365	ltpFR2	17	15	BRANDY	169	n/a	n/a	0	0	0
3222.28857421875	n/a	REC_WORD	6599247	wordpools/wasnorm_wordpool_576.txt	LTP365	ltpFR2	17	15	TAXI	1438	n/a	n/a	0	0	0
3245.62158203125	n/a	REC_WORD	6647033	wordpools/wasnorm_wordpool_576.txt	LTP365	ltpFR2	17	15	CASHEW	253	n/a	n/a	0	0	0
3250.44580078125	n/a	REC_WORD	6656913	wordpools/wasnorm_wordpool_576.txt	LTP365	ltpFR2	17	15	CONTRACT	368	n/a	n/a	0	0	0
3268.166015625	n/a	REC_WORD	6693204	wordpools/wasnorm_wordpool_576.txt	LTP365	ltpFR2	17	15	JOURNAL	760	n/a	n/a	0	0	0
3295.38916015625	n/a	WORD	6748957	wordpools/wasnorm_wordpool_576.txt	LTP365	ltpFR2	17	16	FLIPPER	580	n/a	n/a	0	0	0
3298.18798828125	n/a	WORD	6754689	wordpools/wasnorm_wordpool_576.txt	LTP365	ltpFR2	17	16	MUMMY	932	n/a	n/a	0	0	0
3300.93603515625	n/a	WORD	6760317	wordpools/wasnorm_wordpool_576.txt	LTP365	ltpFR2	17	16	FIREPLACE	570	n/a	n/a	0	0	0
3303.53515625	n/a	WORD	6765640	wordpools/wasnorm_wordpool_576.txt	LTP365	ltpFR2	17	16	CHAUFFEUR	283	n/a	n/a	0	0	0
3306.05078125	n/a	WORD	6770792	wordpools/wasnorm_wordpool_576.txt	LTP365	ltpFR2	17	16	PEACH	1031	n/a	n/a	0	0	0
3308.7490234375	n/a	WORD	6776318	wordpools/wasnorm_wordpool_576.txt	LTP365	ltpFR2	17	16	SEAL	1262	n/a	n/a	0	0	0
3311.28076171875	n/a	WORD	6781503	wordpools/wasnorm_wordpool_576.txt	LTP365	ltpFR2	17	16	FIREMAN	569	n/a	n/a	0	0	0
3313.7138671875	n/a	WORD	6786486	wordpools/wasnorm_wordpool_576.txt	LTP365	ltpFR2	17	16	ITEM	746	n/a	n/a	0	0	0
3316.19580078125	n/a	WORD	6791569	wordpools/wasnorm_wordpool_576.txt	LTP365	ltpFR2	17	16	RUST	1219	n/a	n/a	0	0	0
3318.8447265625	n/a	WORD	6796994	wordpools/wasnorm_wordpool_576.txt	LTP365	ltpFR2	17	16	SCARF	1246	n/a	n/a	0	0	0
3321.576171875	n/a	WORD	6802588	wordpools/wasnorm_wordpool_576.txt	LTP365	ltpFR2	17	16	LEADER	807	n/a	n/a	0	0	0
3324.32421875	n/a	WORD	6808216	wordpools/wasnorm_wordpool_576.txt	LTP365	ltpFR2	17	16	NOVEL	960	n/a	n/a	0	0	0
3327.123046875	n/a	WORD	6813948	wordpools/wasnorm_wordpool_576.txt	LTP365	ltpFR2	17	16	RELISH	1183	n/a	n/a	0	0	0
3329.83935546875	n/a	WORD	6819511	wordpools/wasnorm_wordpool_576.txt	LTP365	ltpFR2	17	16	KETCHUP	771	n/a	n/a	0	0	0
3332.287109375	n/a	WORD	6824524	wordpools/wasnorm_wordpool_576.txt	LTP365	ltpFR2	17	16	CORAL	378	n/a	n/a	0	0	0
3334.8369140625	n/a	WORD	6829746	wordpools/wasnorm_wordpool_576.txt	LTP365	ltpFR2	17	16	LETTUCE	814	n/a	n/a	0	0	0
3337.65185546875	n/a	WORD	6835511	wordpools/wasnorm_wordpool_576.txt	LTP365	ltpFR2	17	16	COUCH	386	n/a	n/a	0	0	0
3340.1337890625	n/a	WORD	6840594	wordpools/wasnorm_wordpool_576.txt	LTP365	ltpFR2	17	16	SILK	1307	n/a	n/a	0	0	0
3342.64990234375	n/a	WORD	6845747	wordpools/wasnorm_wordpool_576.txt	LTP365	ltpFR2	17	16	MATTRESS	879	n/a	n/a	0	0	0
3345.36474609375	n/a	WORD	6851307	wordpools/wasnorm_wordpool_576.txt	LTP365	ltpFR2	17	16	BUCKET	184	n/a	n/a	0	0	0
3348.013671875	n/a	WORD	6856732	wordpools/wasnorm_wordpool_576.txt	LTP365	ltpFR2	17	16	LUMBER	848	n/a	n/a	0	0	0
3350.529296875	n/a	WORD	6861884	wordpools/wasnorm_wordpool_576.txt	LTP365	ltpFR2	17	16	LIZARD	834	n/a	n/a	0	0	0
3353.0615234375	n/a	WORD	6867070	wordpools/wasnorm_wordpool_576.txt	LTP365	ltpFR2	17	16	POISON	1096	n/a	n/a	0	0	0
3355.560546875	n/a	WORD	6872188	wordpools/wasnorm_wordpool_576.txt	LTP365	ltpFR2	17	16	MARROW	872	n/a	n/a	0	0	0
3357.17626953125	n/a	START	6875497	n/a	LTP365	ltpFR2	17	n/a	n/a	n/a	22	n/a	n/a	n/a	n/a
3358.283203125	n/a	DISTRACTOR	6877764	n/a	LTP365	ltpFR2	17	16	n/a	n/a	n/a	n/a	0	0	0
3358.291015625	n/a	PROB	6877780	n/a	LTP365	ltpFR2	17	n/a	n/a	n/a	22	24	8	8	8
3359.82421875	n/a	PROB	6880920	n/a	LTP365	ltpFR2	17	n/a	n/a	n/a	22	9	3	2	4
3362.740234375	n/a	PROB	6886892	n/a	LTP365	ltpFR2	17	n/a	n/a	n/a	22	12	1	7	4
3364.8720703125	n/a	PROB	6891258	n/a	LTP365	ltpFR2	17	n/a	n/a	n/a	22	19	7	4	8
3367.0380859375	n/a	PROB	6895694	n/a	LTP365	ltpFR2	17	n/a	n/a	n/a	22	9	5	1	3
3368.60400390625	n/a	PROB	6898901	n/a	LTP365	ltpFR2	17	n/a	n/a	n/a	22	13	4	8	1
3370.3349609375	n/a	PROB	6902446	n/a	LTP365	ltpFR2	17	n/a	n/a	n/a	22	21	7	5	9
3374.11767578125	n/a	PROB	6910193	n/a	LTP365	ltpFR2	17	n/a	n/a	n/a	22	20	9	9	2
3375.53369140625	n/a	PROB	6913093	n/a	LTP365	ltpFR2	17	n/a	n/a	n/a	22	18	7	9	2
3377.49951171875	n/a	PROB	6917119	n/a	LTP365	ltpFR2	17	n/a	n/a	n/a	22	14	3	2	9
3379.11572265625	n/a	PROB	6920429	n/a	LTP365	ltpFR2	17	n/a	n/a	n/a	22	5	3	1	1
3380.75439453125	n/a	STOP	6923785	n/a	LTP365	ltpFR2	17	n/a	n/a	n/a	22	n/a	n/a	n/a	n/a
3382.9306640625	n/a	REC_START	6928242	n/a	LTP365	ltpFR2	17	16	n/a	n/a	n/a	n/a	0	0	0
3383.447265625	n/a	REC_WORD	6929300	wordpools/wasnorm_wordpool_576.txt	LTP365	ltpFR2	17	16	MARROW	872	n/a	n/a	0	0	0
3384.24658203125	n/a	REC_WORD	6930937	wordpools/wasnorm_wordpool_576.txt	LTP365	ltpFR2	17	16	POISON	1096	n/a	n/a	0	0	0
3385.0654296875	n/a	REC_WORD	6932614	wordpools/wasnorm_wordpool_576.txt	LTP365	ltpFR2	17	16	LIZARD	834	n/a	n/a	0	0	0
3385.70458984375	n/a	REC_WORD	6933923	wordpools/wasnorm_wordpool_576.txt	LTP365	ltpFR2	17	16	CHAUFFEUR	283	n/a	n/a	0	0	0
3386.80712890625	n/a	REC_WORD	6936181	wordpools/wasnorm_wordpool_576.txt	LTP365	ltpFR2	17	16	SILK	1307	n/a	n/a	0	0	0
3387.87646484375	n/a	REC_WORD	6938371	wordpools/wasnorm_wordpool_576.txt	LTP365	ltpFR2	17	16	MATTRESS	879	n/a	n/a	0	0	0
3400.8740234375	n/a	REC_WORD	6964990	wordpools/wasnorm_wordpool_576.txt	LTP365	ltpFR2	17	16	RUST	1219	n/a	n/a	0	0	0
3406.91259765625	n/a	REC_WORD	6977357	wordpools/wasnorm_wordpool_576.txt	LTP365	ltpFR2	17	16	MEDAL	885	n/a	n/a	0	0	0
3414.13037109375	n/a	REC_WORD	6992139	wordpools/wasnorm_wordpool_576.txt	LTP365	ltpFR2	17	16	PEACH	1031	n/a	n/a	0	0	0
3415.3193359375	n/a	REC_WORD	6994574	wordpools/wasnorm_wordpool_576.txt	LTP365	ltpFR2	17	16	SEAL	1262	n/a	n/a	0	0	0
3438.88671875	n/a	REC_WORD	7042840	wordpools/wasnorm_wordpool_576.txt	LTP365	ltpFR2	17	16	MUMMY	932	n/a	n/a	0	0	0
3442.32763671875	n/a	REC_WORD	7049887	wordpools/wasnorm_wordpool_576.txt	LTP365	ltpFR2	17	16	FLIPPER	580	n/a	n/a	0	0	0
3459.4599609375	n/a	REST_REWET	7084974	n/a	LTP365	ltpFR2	17	16	n/a	n/a	n/a	n/a	0	0	0
3583.2001953125	n/a	WORD	7338394	wordpools/wasnorm_wordpool_576.txt	LTP365	ltpFR2	17	17	BALLOON	75	n/a	n/a	0	0	0
3585.998046875	n/a	WORD	7344124	wordpools/wasnorm_wordpool_576.txt	LTP365	ltpFR2	17	17	RAZOR	1171	n/a	n/a	0	0	0
