onset	duration	trial_type	sample	stim_file	subject	experiment	session	trial	task	item_name	item_num	recog_conf	resp	color_b	color_g	color_r	case	font
262.39	n/a	SESS_START	131195	n/a	LTP210	ltpFR	16	n/a	n/a	n/a	n/a	1	n/a	n/a	n/a	n/a	n/a	n/a
358.3	n/a	WORD	179150	wordpools/wasnorm_wordpool_less_exclusions.txt	LTP210	ltpFR	16	1	1	EMERALD	528	n/a	0	1	0.412841796875	0.57763671875	lower	../fonts/zerothre.ttf
362.344	n/a	WORD	181172	wordpools/wasnorm_wordpool_less_exclusions.txt	LTP210	ltpFR	16	1	1	TURNIP	1521	n/a	1	1	0.412841796875	0.57763671875	lower	../fonts/zerothre.ttf
366.238	n/a	WORD	183119	wordpools/wasnorm_wordpool_less_exclusions.txt	LTP210	ltpFR	16	1	1	TUBE	1516	n/a	0	1	0.412841796875	0.57763671875	lower	../fonts/zerothre.ttf
370.198	n/a	WORD	185099	wordpools/wasnorm_wordpool_less_exclusions.txt	LTP210	ltpFR	16	1	0	SWEATER	1419	n/a	1	0	0.5869140625	0.422607421875	upper	../fonts/amplitud.ttf
374.176	n/a	WORD	187088	wordpools/wasnorm_wordpool_less_exclusions.txt	LTP210	ltpFR	16	1	0	CHAIRPERSON	275	n/a	1	0	0.5869140625	0.422607421875	upper	../fonts/amplitud.ttf
378.202	n/a	WORD	189101	wordpools/wasnorm_wordpool_less_exclusions.txt	LTP210	ltpFR	16	1	0	TURKEY	1520	n/a	1	0	0.5869140625	0.422607421875	upper	../fonts/amplitud.ttf
382.264	n/a	WORD	191132	wordpools/wasnorm_wordpool_less_exclusions.txt	LTP210	ltpFR	16	1	1	LIVER	833	n/a	0	1	0.412841796875	0.57763671875	lower	../fonts/zerothre.ttf
386.19	n/a	WORD	193095	wordpools/wasnorm_wordpool_less_exclusions.txt	LTP210	ltpFR	16	1	1	PRUNE	1134	n/a	0	1	0.412841796875	0.57763671875	lower	../fonts/zerothre.ttf
390.168	n/a	WORD	195084	wordpools/wasnorm_wordpool_less_exclusions.txt	LTP210	ltpFR	16	1	1	FOLLOWER	589	n/a	1	1	0.412841796875	0.57763671875	lower	../fonts/zerothre.ttf
394.378	n/a	WORD	197189	wordpools/wasnorm_wordpool_less_exclusions.txt	LTP210	ltpFR	16	1	1	ATHLETE	52	n/a	1	1	0.412841796875	0.57763671875	lower	../fonts/zerothre.ttf
398.39	n/a	WORD	199195	wordpools/wasnorm_wordpool_less_exclusions.txt	LTP210	ltpFR	16	1	1	TELEVISION	1447	n/a	0	1	0.412841796875	0.57763671875	lower	../fonts/zerothre.ttf
402.234	n/a	WORD	201117	wordpools/wasnorm_wordpool_less_exclusions.txt	LTP210	ltpFR	16	1	0	HAT	690	n/a	0	0	0.5869140625	0.422607421875	upper	../fonts/amplitud.ttf
406.394	n/a	WORD	203197	wordpools/wasnorm_wordpool_less_exclusions.txt	LTP210	ltpFR	16	1	0	TIDE	1465	n/a	1	0	0.5869140625	0.422607421875	upper	../fonts/amplitud.ttf
410.406	n/a	WORD	205203	wordpools/wasnorm_wordpool_less_exclusions.txt	LTP210	ltpFR	16	1	0	LAGOON	795	n/a	1	0	0.5869140625	0.422607421875	upper	../fonts/amplitud.ttf
414.618	n/a	WORD	207309	wordpools/wasnorm_wordpool_less_exclusions.txt	LTP210	ltpFR	16	1	0	DEPARTMENT	449	n/a	1	0	0.5869140625	0.422607421875	upper	../fonts/amplitud.ttf
418.71	n/a	WORD	209355	wordpools/wasnorm_wordpool_less_exclusions.txt	LTP210	ltpFR	16	1	0	MALL	860	n/a	1	0	0.5869140625	0.422607421875	upper	../fonts/amplitud.ttf
424.62	n/a	REC_START	212310	n/a	LTP210	ltpFR	16	1	n/a	n/a	n/a	n/a	n/a	n/a	n/a	n/a	n/a	n/a
425.3	n/a	REC_WORD	212650	wordpools/wasnorm_wordpool_less_exclusions.txt	LTP210	ltpFR	16	1	0	DEPARTMENT	449	n/a	1	n/a	n/a	n/a	n/a	n/a
426.734	n/a	REC_WORD	213367	wordpools/wasnorm_wordpool_less_exclusions.txt	LTP210	ltpFR	16	1	0	MALL	860	n/a	1	n/a	n/a	n/a	n/a	n/a
428.126	n/a	REC_WORD	214063	wordpools/wasnorm_wordpool_less_exclusions.txt	LTP210	ltpFR	16	1	0	CHAIRPERSON	275	n/a	1	n/a	n/a	n/a	n/a	n/a
429.554	n/a	REC_WORD	214777	wordpools/wasnorm_wordpool_less_exclusions.txt	LTP210	ltpFR	16	1	0	TIDE	1465	n/a	1	n/a	n/a	n/a	n/a	n/a
430.816	n/a	REC_WORD	215408	wordpools/wasnorm_wordpool_less_exclusions.txt	LTP210	ltpFR	16	1	1	TURNIP	1521	n/a	1	n/a	n/a	n/a	n/a	n/a
432.112	n/a	REC_WORD	216056	wordpools/wasnorm_wordpool_less_exclusions.txt	LTP210	ltpFR	16	1	1	LIVER	833	n/a	0	n/a	n/a	n/a	n/a	n/a
440.552	n/a	REC_WORD	220276	wordpools/wasnorm_wordpool_less_exclusions.txt	LTP210	ltpFR	16	1	0	HAT	690	n/a	0	n/a	n/a	n/a	n/a	n/a
463.802	n/a	REC_WORD	231901	wordpools/wasnorm_wordpool_less_exclusions.txt	LTP210	ltpFR	16	1	1	PRUNE	1134	n/a	0	n/a	n/a	n/a	n/a	n/a
474.506	n/a	REC_WORD	237253	wordpools/wasnorm_wordpool_less_exclusions.txt	LTP210	ltpFR	16	1	1	ATHLETE	52	n/a	1	n/a	n/a	n/a	n/a	n/a
476.21	n/a	REC_WORD	238105	wordpools/wasnorm_wordpool_less_exclusions.txt	LTP210	ltpFR	16	1	1	FOLLOWER	589	n/a	1	n/a	n/a	n/a	n/a	n/a
532.576	n/a	WORD	266288	wordpools/wasnorm_wordpool_less_exclusions.txt	LTP210	ltpFR	16	2	0	PREACHER	1119	n/a	1	0	0.5869140625	0.422607421875	upper	../fonts/amplitud.ttf
536.736	n/a	WORD	268368	wordpools/wasnorm_wordpool_less_exclusions.txt	LTP210	ltpFR	16	2	0	POPE	1105	n/a	1	0	0.5869140625	0.422607421875	upper	../fonts/amplitud.ttf
540.648	n/a	WORD	270324	wordpools/wasnorm_wordpool_less_exclusions.txt	LTP210	ltpFR	16	2	0	NECK	939	n/a	0	0	0.5869140625	0.422607421875	upper	../fonts/amplitud.ttf
544.592	n/a	WORD	272296	wordpools/wasnorm_wordpool_less_exclusions.txt	LTP210	ltpFR	16	2	0	CAP	236	n/a	0	0	0.5869140625	0.422607421875	upper	../fonts/amplitud.ttf
548.668	n/a	WORD	274334	wordpools/wasnorm_wordpool_less_exclusions.txt	LTP210	ltpFR	16	2	1	RABBIT	1152	n/a	1	1	0.412841796875	0.57763671875	lower	../fonts/zerothre.ttf
552.812	n/a	WORD	276406	wordpools/wasnorm_wordpool_less_exclusions.txt	LTP210	ltpFR	16	2	1	SEAGULL	1261	n/a	1	1	0.412841796875	0.57763671875	lower	../fonts/zerothre.ttf
556.64	n/a	WORD	278320	wordpools/wasnorm_wordpool_less_exclusions.txt	LTP210	ltpFR	16	2	1	CLAM	315	n/a	1	1	0.412841796875	0.57763671875	lower	../fonts/zerothre.ttf
560.834	n/a	WORD	280417	wordpools/wasnorm_wordpool_less_exclusions.txt	LTP210	ltpFR	16	2	1	SNAIL	1332	n/a	1	1	0.412841796875	0.57763671875	lower	../fonts/zerothre.ttf
564.744	n/a	WORD	282372	wordpools/wasnorm_wordpool_less_exclusions.txt	LTP210	ltpFR	16	2	0	SHINGLE	1285	n/a	0	0	0.5869140625	0.422607421875	upper	../fonts/amplitud.ttf
568.888	n/a	WORD	284444	wordpools/wasnorm_wordpool_less_exclusions.txt	LTP210	ltpFR	16	2	0	WALL	1582	n/a	1	0	0.5869140625	0.422607421875	upper	../fonts/amplitud.ttf
572.716	n/a	WORD	286358	wordpools/wasnorm_wordpool_less_exclusions.txt	LTP210	ltpFR	16	2	0	HOSE	720	n/a	0	0	0.5869140625	0.422607421875	upper	../fonts/amplitud.ttf
576.61	n/a	WORD	288305	wordpools/wasnorm_wordpool_less_exclusions.txt	LTP210	ltpFR	16	2	0	SISTER	1312	n/a	1	0	0.5869140625	0.422607421875	upper	../fonts/amplitud.ttf
580.736	n/a	WORD	290368	wordpools/wasnorm_wordpool_less_exclusions.txt	LTP210	ltpFR	16	2	1	BUNNY	198	n/a	1	1	0.412841796875	0.57763671875	lower	../fonts/zerothre.ttf
584.666	n/a	WORD	292333	wordpools/wasnorm_wordpool_less_exclusions.txt	LTP210	ltpFR	16	2	1	BASKETBALL	96	n/a	0	1	0.412841796875	0.57763671875	lower	../fonts/zerothre.ttf
588.492	n/a	WORD	294246	wordpools/wasnorm_wordpool_less_exclusions.txt	LTP210	ltpFR	16	2	1	WAIST	1579	n/a	0	1	0.412841796875	0.57763671875	lower	../fonts/zerothre.ttf
592.536	n/a	WORD	296268	wordpools/wasnorm_wordpool_less_exclusions.txt	LTP210	ltpFR	16	2	1	BANDANNA	80	n/a	0	1	0.412841796875	0.57763671875	lower	../fonts/zerothre.ttf
598.612	n/a	REC_START	299306	n/a	LTP210	ltpFR	16	2	n/a	n/a	n/a	n/a	n/a	n/a	n/a	n/a	n/a	n/a
599.446	n/a	REC_WORD	299723	wordpools/wasnorm_wordpool_less_exclusions.txt	LTP210	ltpFR	16	2	1	BANDANNA	80	n/a	0	n/a	n/a	n/a	n/a	n/a
601.096	n/a	REC_WORD	300548	wordpools/wasnorm_wordpool_less_exclusions.txt	LTP210	ltpFR	16	2	1	BASKETBALL	96	n/a	0	n/a	n/a	n/a	n/a	n/a
602.408	n/a	REC_WORD	301204	wordpools/wasnorm_wordpool_less_exclusions.txt	LTP210	ltpFR	16	2	1	WAIST	1579	n/a	0	n/a	n/a	n/a	n/a	n/a
603.542	n/a	REC_WORD	301771	wordpools/wasnorm_wordpool_less_exclusions.txt	LTP210	ltpFR	16	2	0	SISTER	1312	n/a	1	n/a	n/a	n/a	n/a	n/a
605.092	n/a	REC_WORD	302546	wordpools/wasnorm_wordpool_less_exclusions.txt	LTP210	ltpFR	16	2	1	BUNNY	198	n/a	1	n/a	n/a	n/a	n/a	n/a
606.08	n/a	REC_WORD	303040	wordpools/wasnorm_wordpool_less_exclusions.txt	LTP210	ltpFR	16	2	1	RABBIT	1152	n/a	1	n/a	n/a	n/a	n/a	n/a
607.356	n/a	REC_WORD	303678	wordpools/wasnorm_wordpool_less_exclusions.txt	LTP210	ltpFR	16	2	1	SEAGULL	1261	n/a	1	n/a	n/a	n/a	n/a	n/a
608.624	n/a	REC_WORD	304312	wordpools/wasnorm_wordpool_less_exclusions.txt	LTP210	ltpFR	16	2	1	CLAM	315	n/a	1	n/a	n/a	n/a	n/a	n/a
609.692	n/a	REC_WORD	304846	wordpools/wasnorm_wordpool_less_exclusions.txt	LTP210	ltpFR	16	2	1	SNAIL	1332	n/a	1	n/a	n/a	n/a	n/a	n/a
612.94	n/a	REC_WORD	306470	wordpools/wasnorm_wordpool_less_exclusions.txt	LTP210	ltpFR	16	2	0	CAP	236	n/a	0	n/a	n/a	n/a	n/a	n/a
615.41	n/a	REC_WORD	307705	wordpools/wasnorm_wordpool_less_exclusions.txt	LTP210	ltpFR	16	2	0	HOSE	720	n/a	0	n/a	n/a	n/a	n/a	n/a
617.514	n/a	REC_WORD	308757	wordpools/wasnorm_wordpool_less_exclusions.txt	LTP210	ltpFR	16	2	0	PREACHER	1119	n/a	1	n/a	n/a	n/a	n/a	n/a
618.842	n/a	REC_WORD	309421	wordpools/wasnorm_wordpool_less_exclusions.txt	LTP210	ltpFR	16	2	0	POPE	1105	n/a	1	n/a	n/a	n/a	n/a	n/a
656.062	n/a	REC_WORD	328031	wordpools/wasnorm_wordpool_less_exclusions.txt	LTP210	ltpFR	16	2	0	SHINGLE	1285	n/a	0	n/a	n/a	n/a	n/a	n/a
723.276	n/a	WORD	361638	wordpools/wasnorm_wordpool_less_exclusions.txt	LTP210	ltpFR	16	3	1	DUNE	506	n/a	0	1	0.412841796875	0.57763671875	lower	../fonts/zerothre.ttf
727.188	n/a	WORD	363594	wordpools/wasnorm_wordpool_less_exclusions.txt	LTP210	ltpFR	16	3	1	GREASE	660	n/a	0	1	0.412841796875	0.57763671875	lower	../fonts/zerothre.ttf
731.298	n/a	WORD	365649	wordpools/wasnorm_wordpool_less_exclusions.txt	LTP210	ltpFR	16	3	1	CHOCOLATE	306	n/a	0	1	0.412841796875	0.57763671875	lower	../fonts/zerothre.ttf
735.426	n/a	WORD	367713	wordpools/wasnorm_wordpool_less_exclusions.txt	LTP210	ltpFR	16	3	1	DETECTIVE	454	n/a	1	1	0.412841796875	0.57763671875	lower	../fonts/zerothre.ttf
739.386	n/a	WORD	369693	wordpools/wasnorm_wordpool_less_exclusions.txt	LTP210	ltpFR	16	3	1	ROOST	1208	n/a	0	1	0.412841796875	0.57763671875	lower	../fonts/zerothre.ttf
743.498	n/a	WORD	371749	wordpools/wasnorm_wordpool_less_exclusions.txt	LTP210	ltpFR	16	3	1	PUBLICATION	1136	n/a	0	1	0.412841796875	0.57763671875	lower	../fonts/zerothre.ttf
747.474	n/a	WORD	373737	wordpools/wasnorm_wordpool_less_exclusions.txt	LTP210	ltpFR	16	3	1	PATROL	1027	n/a	0	1	0.412841796875	0.57763671875	lower	../fonts/zerothre.ttf
751.352	n/a	WORD	375676	wordpools/wasnorm_wordpool_less_exclusions.txt	LTP210	ltpFR	16	3	1	PRIEST	1122	n/a	1	1	0.412841796875	0.57763671875	lower	../fonts/zerothre.ttf
755.53	n/a	WORD	377765	wordpools/wasnorm_wordpool_less_exclusions.txt	LTP210	ltpFR	16	3	1	MONK	910	n/a	1	1	0.412841796875	0.57763671875	lower	../fonts/zerothre.ttf
759.656	n/a	WORD	379828	wordpools/wasnorm_wordpool_less_exclusions.txt	LTP210	ltpFR	16	3	1	BIRD	129	n/a	1	1	0.412841796875	0.57763671875	lower	../fonts/zerothre.ttf
763.8	n/a	WORD	381900	wordpools/wasnorm_wordpool_less_exclusions.txt	LTP210	ltpFR	16	3	1	STAPLER	1372	n/a	0	1	0.412841796875	0.57763671875	lower	../fonts/zerothre.ttf
767.826	n/a	WORD	383913	wordpools/wasnorm_wordpool_less_exclusions.txt	LTP210	ltpFR	16	3	1	ARM	38	n/a	0	1	0.412841796875	0.57763671875	lower	../fonts/zerothre.ttf
771.788	n/a	WORD	385894	wordpools/wasnorm_wordpool_less_exclusions.txt	LTP210	ltpFR	16	3	1	MAPLE	866	n/a	1	1	0.412841796875	0.57763671875	lower	../fonts/zerothre.ttf
775.864	n/a	WORD	387932	wordpools/wasnorm_wordpool_less_exclusions.txt	LTP210	ltpFR	16	3	1	BOUQUET	157	n/a	0	1	0.412841796875	0.57763671875	lower	../fonts/zerothre.ttf
780.008	n/a	WORD	390004	wordpools/wasnorm_wordpool_less_exclusions.txt	LTP210	ltpFR	16	3	1	WATER	1594	n/a	0	1	0.412841796875	0.57763671875	lower	../fonts/zerothre.ttf
784.202	n/a	WORD	392101	wordpools/wasnorm_wordpool_less_exclusions.txt	LTP210	ltpFR	16	3	1	STEAM	1375	n/a	0	1	0.412841796875	0.57763671875	lower	../fonts/zerothre.ttf
790.044	n/a	REC_START	395022	n/a	LTP210	ltpFR	16	3	n/a	n/a	n/a	n/a	n/a	n/a	n/a	n/a	n/a	n/a
790.772	n/a	REC_WORD	395386	wordpools/wasnorm_wordpool_less_exclusions.txt	LTP210	ltpFR	16	3	1	WATER	1594	n/a	0	n/a	n/a	n/a	n/a	n/a
791.78	n/a	REC_WORD	395890	wordpools/wasnorm_wordpool_less_exclusions.txt	LTP210	ltpFR	16	3	1	STEAM	1375	n/a	0	n/a	n/a	n/a	n/a	n/a
792.874	n/a	REC_WORD	396437	wordpools/wasnorm_wordpool_less_exclusions.txt	LTP210	ltpFR	16	3	1	BOUQUET	157	n/a	0	n/a	n/a	n/a	n/a	n/a
801.35	n/a	REC_WORD	400675	wordpools/wasnorm_wordpool_less_exclusions.txt	LTP210	ltpFR	16	3	1	BIRD	129	n/a	1	n/a	n/a	n/a	n/a	n/a
802.218	n/a	REC_WORD	401109	wordpools/wasnorm_wordpool_less_exclusions.txt	LTP210	ltpFR	16	3	1	PRIEST	1122	n/a	1	n/a	n/a	n/a	n/a	n/a
803.13	n/a	REC_WORD	401565	wordpools/wasnorm_wordpool_less_exclusions.txt	LTP210	ltpFR	16	3	1	MONK	910	n/a	1	n/a	n/a	n/a	n/a	n/a
807.416	n/a	REC_WORD	403708	wordpools/wasnorm_wordpool_less_exclusions.txt	LTP210	ltpFR	16	3	1	DUNE	506	n/a	0	n/a	n/a	n/a	n/a	n/a
810.304	n/a	REC_WORD	405152	wordpools/wasnorm_wordpool_less_exclusions.txt	LTP210	ltpFR	16	3	1	PUBLICATION	1136	n/a	0	n/a	n/a	n/a	n/a	n/a
811.84	n/a	REC_WORD	405920	wordpools/wasnorm_wordpool_less_exclusions.txt	LTP210	ltpFR	16	3	1	DETECTIVE	454	n/a	1	n/a	n/a	n/a	n/a	n/a
822.172	n/a	REC_WORD	411086	wordpools/wasnorm_wordpool_less_exclusions.txt	LTP210	ltpFR	16	3	1	GREASE	660	n/a	0	n/a	n/a	n/a	n/a	n/a
916.89	n/a	WORD	458445	wordpools/wasnorm_wordpool_less_exclusions.txt	LTP210	ltpFR	16	4	-1	CHEESE	289	n/a	-1	1	1.0	1.0	upper	../fonts/Verdana.ttf
920.85	n/a	WORD	460425	wordpools/wasnorm_wordpool_less_exclusions.txt	LTP210	ltpFR	16	4	-1	RAG	1160	n/a	-1	1	1.0	1.0	upper	../fonts/Verdana.ttf
925.062	n/a	WORD	462531	wordpools/wasnorm_wordpool_less_exclusions.txt	LTP210	ltpFR	16	4	-1	VACUUM	1543	n/a	-1	1	1.0	1.0	upper	../fonts/Verdana.ttf
929.056	n/a	WORD	464528	wordpools/wasnorm_wordpool_less_exclusions.txt	LTP210	ltpFR	16	4	-1	VAN	1548	n/a	-1	1	1.0	1.0	upper	../fonts/Verdana.ttf
933.282	n/a	WORD	466641	wordpools/wasnorm_wordpool_less_exclusions.txt	LTP210	ltpFR	16	4	-1	LIMOUSINE	824	n/a	-1	1	1.0	1.0	upper	../fonts/Verdana.ttf
937.478	n/a	WORD	468739	wordpools/wasnorm_wordpool_less_exclusions.txt	LTP210	ltpFR	16	4	-1	WILDERNESS	1610	n/a	-1	1	1.0	1.0	upper	../fonts/Verdana.ttf
941.654	n/a	WORD	470827	wordpools/wasnorm_wordpool_less_exclusions.txt	LTP210	ltpFR	16	4	-1	CAULIFLOWER	262	n/a	-1	1	1.0	1.0	upper	../fonts/Verdana.ttf
945.532	n/a	WORD	472766	wordpools/wasnorm_wordpool_less_exclusions.txt	LTP210	ltpFR	16	4	-1	FENCE	560	n/a	-1	1	1.0	1.0	upper	../fonts/Verdana.ttf
949.542	n/a	WORD	474771	wordpools/wasnorm_wordpool_less_exclusions.txt	LTP210	ltpFR	16	4	-1	CHEDDAR	286	n/a	-1	1	1.0	1.0	upper	../fonts/Verdana.ttf
953.72	n/a	WORD	476860	wordpools/wasnorm_wordpool_less_exclusions.txt	LTP210	ltpFR	16	4	-1	LEAF	808	n/a	-1	1	1.0	1.0	upper	../fonts/Verdana.ttf
957.564	n/a	WORD	478782	wordpools/wasnorm_wordpool_less_exclusions.txt	LTP210	ltpFR	16	4	-1	CORN	381	n/a	-1	1	1.0	1.0	upper	../fonts/Verdana.ttf
961.608	n/a	WORD	480804	wordpools/wasnorm_wordpool_less_exclusions.txt	LTP210	ltpFR	16	4	-1	VINE	1568	n/a	-1	1	1.0	1.0	upper	../fonts/Verdana.ttf
965.784	n/a	WORD	482892	wordpools/wasnorm_wordpool_less_exclusions.txt	LTP210	ltpFR	16	4	-1	CRITIC	410	n/a	-1	1	1.0	1.0	upper	../fonts/Verdana.ttf
969.646	n/a	WORD	484823	wordpools/wasnorm_wordpool_less_exclusions.txt	LTP210	ltpFR	16	4	-1	KETTLE	772	n/a	-1	1	1.0	1.0	upper	../fonts/Verdana.ttf
973.656	n/a	WORD	486828	wordpools/wasnorm_wordpool_less_exclusions.txt	LTP210	ltpFR	16	4	-1	BEAN	105	n/a	-1	1	1.0	1.0	upper	../fonts/Verdana.ttf
977.7	n/a	WORD	488850	wordpools/wasnorm_wordpool_less_exclusions.txt	LTP210	ltpFR	16	4	-1	TOTE	1487	n/a	-1	1	1.0	1.0	upper	../fonts/Verdana.ttf
983.326	n/a	REC_START	491663	n/a	LTP210	ltpFR	16	4	n/a	n/a	n/a	n/a	n/a	n/a	n/a	n/a	n/a	n/a
984.054	n/a	REC_WORD	492027	wordpools/wasnorm_wordpool_less_exclusions.txt	LTP210	ltpFR	16	4	-1	TOTE	1487	n/a	-1	n/a	n/a	n/a	n/a	n/a
985.38	n/a	REC_WORD	492690	wordpools/wasnorm_wordpool_less_exclusions.txt	LTP210	ltpFR	16	4	-1	CRITIC	410	n/a	-1	n/a	n/a	n/a	n/a	n/a
987.8	n/a	REC_WORD	493900	wordpools/wasnorm_wordpool_less_exclusions.txt	LTP210	ltpFR	16	4	-1	BEAN	105	n/a	-1	n/a	n/a	n/a	n/a	n/a
995.752	n/a	REC_WORD	497876	wordpools/wasnorm_wordpool_less_exclusions.txt	LTP210	ltpFR	16	4	-1	VAN	1548	n/a	-1	n/a	n/a	n/a	n/a	n/a
997.06	n/a	REC_WORD	498530	wordpools/wasnorm_wordpool_less_exclusions.txt	LTP210	ltpFR	16	4	-1	LIMOUSINE	824	n/a	-1	n/a	n/a	n/a	n/a	n/a
998.426	n/a	REC_WORD	499213	wordpools/wasnorm_wordpool_less_exclusions.txt	LTP210	ltpFR	16	4	-1	VACUUM	1543	n/a	-1	n/a	n/a	n/a	n/a	n/a
1019.578	n/a	REC_WORD	509789	wordpools/wasnorm_wordpool_less_exclusions.txt	LTP210	ltpFR	16	4	-1	TOTE	1487	n/a	-1	n/a	n/a	n/a	n/a	n/a
1068.65	n/a	WORD	534325	wordpools/wasnorm_wordpool_less_exclusions.txt	LTP210	ltpFR	16	5	-1	SANDWICH	1232	n/a	-1	1	1.0	1.0	upper	../fonts/Verdana.ttf
1072.826	n/a	WORD	536413	wordpools/wasnorm_wordpool_less_exclusions.txt	LTP210	ltpFR	16	5	-1	WAITRESS	1581	n/a	-1	1	1.0	1.0	upper	../fonts/Verdana.ttf
1076.936	n/a	WORD	538468	wordpools/wasnorm_wordpool_less_exclusions.txt	LTP210	ltpFR	16	5	-1	DOCUMENT	479	n/a	-1	1	1.0	1.0	upper	../fonts/Verdana.ttf
1080.798	n/a	WORD	540399	wordpools/wasnorm_wordpool_less_exclusions.txt	LTP210	ltpFR	16	5	-1	CENT	270	n/a	-1	1	1.0	1.0	upper	../fonts/Verdana.ttf
1084.626	n/a	WORD	542313	wordpools/wasnorm_wordpool_less_exclusions.txt	LTP210	ltpFR	16	5	-1	STAMP	1370	n/a	-1	1	1.0	1.0	upper	../fonts/Verdana.ttf
1088.488	n/a	WORD	544244	wordpools/wasnorm_wordpool_less_exclusions.txt	LTP210	ltpFR	16	5	-1	NOTE	958	n/a	-1	1	1.0	1.0	upper	../fonts/Verdana.ttf
1092.514	n/a	WORD	546257	wordpools/wasnorm_wordpool_less_exclusions.txt	LTP210	ltpFR	16	5	-1	FURNITURE	616	n/a	-1	1	1.0	1.0	upper	../fonts/Verdana.ttf
1096.374	n/a	WORD	548187	wordpools/wasnorm_wordpool_less_exclusions.txt	LTP210	ltpFR	16	5	-1	BLACKBOARD	133	n/a	-1	1	1.0	1.0	upper	../fonts/Verdana.ttf
1100.368	n/a	WORD	550184	wordpools/wasnorm_wordpool_less_exclusions.txt	LTP210	ltpFR	16	5	-1	DART	440	n/a	-1	1	1.0	1.0	upper	../fonts/Verdana.ttf
1104.196	n/a	WORD	552098	wordpools/wasnorm_wordpool_less_exclusions.txt	LTP210	ltpFR	16	5	-1	ATMOSPHERE	54	n/a	-1	1	1.0	1.0	upper	../fonts/Verdana.ttf
1108.39	n/a	WORD	554195	wordpools/wasnorm_wordpool_less_exclusions.txt	LTP210	ltpFR	16	5	-1	BLUEPRINT	142	n/a	-1	1	1.0	1.0	upper	../fonts/Verdana.ttf
1112.418	n/a	WORD	556209	wordpools/wasnorm_wordpool_less_exclusions.txt	LTP210	ltpFR	16	5	-1	BRICK	172	n/a	-1	1	1.0	1.0	upper	../fonts/Verdana.ttf
1116.444	n/a	WORD	558222	wordpools/wasnorm_wordpool_less_exclusions.txt	LTP210	ltpFR	16	5	-1	PAPER	1011	n/a	-1	1	1.0	1.0	upper	../fonts/Verdana.ttf
1120.438	n/a	WORD	560219	wordpools/wasnorm_wordpool_less_exclusions.txt	LTP210	ltpFR	16	5	-1	BANJO	82	n/a	-1	1	1.0	1.0	upper	../fonts/Verdana.ttf
1124.6	n/a	WORD	562300	wordpools/wasnorm_wordpool_less_exclusions.txt	LTP210	ltpFR	16	5	-1	SPOON	1357	n/a	-1	1	1.0	1.0	upper	../fonts/Verdana.ttf
1128.462	n/a	WORD	564231	wordpools/wasnorm_wordpool_less_exclusions.txt	LTP210	ltpFR	16	5	-1	FOX	598	n/a	-1	1	1.0	1.0	upper	../fonts/Verdana.ttf
1134.37	n/a	REC_START	567185	n/a	LTP210	ltpFR	16	5	n/a	n/a	n/a	n/a	n/a	n/a	n/a	n/a	n/a	n/a
1134.998	n/a	REC_WORD	567499	wordpools/wasnorm_wordpool_less_exclusions.txt	LTP210	ltpFR	16	5	-1	SPOON	1357	n/a	-1	n/a	n/a	n/a	n/a	n/a
1136.268	n/a	REC_WORD	568134	wordpools/wasnorm_wordpool_less_exclusions.txt	LTP210	ltpFR	16	5	-1	FOX	598	n/a	-1	n/a	n/a	n/a	n/a	n/a
1137.782	n/a	REC_WORD	568891	wordpools/wasnorm_wordpool_less_exclusions.txt	LTP210	ltpFR	16	5	-1	BANJO	82	n/a	-1	n/a	n/a	n/a	n/a	n/a
1139.034	n/a	REC_WORD	569517	wordpools/wasnorm_wordpool_less_exclusions.txt	LTP210	ltpFR	16	5	-1	PAPER	1011	n/a	-1	n/a	n/a	n/a	n/a	n/a
1142.252	n/a	REC_WORD	571126	wordpools/wasnorm_wordpool_less_exclusions.txt	LTP210	ltpFR	16	5	-1	SANDWICH	1232	n/a	-1	n/a	n/a	n/a	n/a	n/a
1143.484	n/a	REC_WORD	571742	wordpools/wasnorm_wordpool_less_exclusions.txt	LTP210	ltpFR	16	5	-1	WAITRESS	1581	n/a	-1	n/a	n/a	n/a	n/a	n/a
1186.126	n/a	REC_WORD	593063	wordpools/wasnorm_wordpool_less_exclusions.txt	LTP210	ltpFR	16	5	-1	BLUEPRINT	142	n/a	-1	n/a	n/a	n/a	n/a	n/a
1187.646	n/a	REC_WORD	593823	wordpools/wasnorm_wordpool_less_exclusions.txt	LTP210	ltpFR	16	5	-1	BLACKBOARD	133	n/a	-1	n/a	n/a	n/a	n/a	n/a
1188.982	n/a	REC_WORD	594491	wordpools/wasnorm_wordpool_less_exclusions.txt	LTP210	ltpFR	16	5	-1	DART	440	n/a	-1	n/a	n/a	n/a	n/a	n/a
1264.742	n/a	WORD	632371	wordpools/wasnorm_wordpool_less_exclusions.txt	LTP210	ltpFR	16	6	0	FISH	571	n/a	0	0	0.5869140625	0.422607421875	upper	../fonts/amplitud.ttf
1268.638	n/a	WORD	634319	wordpools/wasnorm_wordpool_less_exclusions.txt	LTP210	ltpFR	16	6	0	SQUID	1361	n/a	0	0	0.5869140625	0.422607421875	upper	../fonts/amplitud.ttf
1272.648	n/a	WORD	636324	wordpools/wasnorm_wordpool_less_exclusions.txt	LTP210	ltpFR	16	6	0	RESTAURANT	1187	n/a	1	0	0.5869140625	0.422607421875	upper	../fonts/amplitud.ttf
1276.708	n/a	WORD	638354	wordpools/wasnorm_wordpool_less_exclusions.txt	LTP210	ltpFR	16	6	0	MAID	856	n/a	1	0	0.5869140625	0.422607421875	upper	../fonts/amplitud.ttf
1280.604	n/a	WORD	640302	wordpools/wasnorm_wordpool_less_exclusions.txt	LTP210	ltpFR	16	6	0	SALESMAN	1225	n/a	1	0	0.5869140625	0.422607421875	upper	../fonts/amplitud.ttf
1284.48	n/a	WORD	642240	wordpools/wasnorm_wordpool_less_exclusions.txt	LTP210	ltpFR	16	6	0	JEEP	753	n/a	1	0	0.5869140625	0.422607421875	upper	../fonts/amplitud.ttf
1288.508	n/a	WORD	644254	wordpools/wasnorm_wordpool_less_exclusions.txt	LTP210	ltpFR	16	6	0	LOCK	838	n/a	0	0	0.5869140625	0.422607421875	upper	../fonts/amplitud.ttf
1292.418	n/a	WORD	646209	wordpools/wasnorm_wordpool_less_exclusions.txt	LTP210	ltpFR	16	6	0	LITTER	832	n/a	1	0	0.5869140625	0.422607421875	upper	../fonts/amplitud.ttf
1296.612	n/a	WORD	648306	wordpools/wasnorm_wordpool_less_exclusions.txt	LTP210	ltpFR	16	6	0	SCISSORS	1250	n/a	0	0	0.5869140625	0.422607421875	upper	../fonts/amplitud.ttf
1300.69	n/a	WORD	650345	wordpools/wasnorm_wordpool_less_exclusions.txt	LTP210	ltpFR	16	6	0	SHOE	1288	n/a	0	0	0.5869140625	0.422607421875	upper	../fonts/amplitud.ttf
1304.55	n/a	WORD	652275	wordpools/wasnorm_wordpool_less_exclusions.txt	LTP210	ltpFR	16	6	0	SMOG	1330	n/a	0	0	0.5869140625	0.422607421875	upper	../fonts/amplitud.ttf
1308.712	n/a	WORD	654356	wordpools/wasnorm_wordpool_less_exclusions.txt	LTP210	ltpFR	16	6	0	COPIER	377	n/a	1	0	0.5869140625	0.422607421875	upper	../fonts/amplitud.ttf
1312.672	n/a	WORD	656336	wordpools/wasnorm_wordpool_less_exclusions.txt	LTP210	ltpFR	16	6	0	BOX	159	n/a	0	0	0.5869140625	0.422607421875	upper	../fonts/amplitud.ttf
1316.882	n/a	WORD	658441	wordpools/wasnorm_wordpool_less_exclusions.txt	LTP210	ltpFR	16	6	0	GARBAGE	622	n/a	1	0	0.5869140625	0.422607421875	upper	../fonts/amplitud.ttf
1321.026	n/a	WORD	660513	wordpools/wasnorm_wordpool_less_exclusions.txt	LTP210	ltpFR	16	6	0	SAW	1239	n/a	1	0	0.5869140625	0.422607421875	upper	../fonts/amplitud.ttf
1325.186	n/a	WORD	662593	wordpools/wasnorm_wordpool_less_exclusions.txt	LTP210	ltpFR	16	6	0	BELL	118	n/a	0	0	0.5869140625	0.422607421875	upper	../fonts/amplitud.ttf
1331.046	n/a	REC_START	665523	n/a	LTP210	ltpFR	16	6	n/a	n/a	n/a	n/a	n/a	n/a	n/a	n/a	n/a	n/a
1331.948	n/a	REC_WORD	665974	wordpools/wasnorm_wordpool_less_exclusions.txt	LTP210	ltpFR	16	6	0	GARBAGE	622	n/a	1	n/a	n/a	n/a	n/a	n/a
1333.146	n/a	REC_WORD	666573	wordpools/wasnorm_wordpool_less_exclusions.txt	LTP210	ltpFR	16	6	0	SAW	1239	n/a	1	n/a	n/a	n/a	n/a	n/a
1334.642	n/a	REC_WORD	667321	wordpools/wasnorm_wordpool_less_exclusions.txt	LTP210	ltpFR	16	6	0	BELL	118	n/a	0	n/a	n/a	n/a	n/a	n/a
1336.632	n/a	REC_WORD	668316	wordpools/wasnorm_wordpool_less_exclusions.txt	LTP210	ltpFR	16	6	0	COPIER	377	n/a	1	n/a	n/a	n/a	n/a	n/a
1344.336	n/a	REC_WORD	672168	wordpools/wasnorm_wordpool_less_exclusions.txt	LTP210	ltpFR	16	6	0	SMOG	1330	n/a	0	n/a	n/a	n/a	n/a	n/a
1350.966	n/a	REC_WORD	675483	wordpools/wasnorm_wordpool_less_exclusions.txt	LTP210	ltpFR	16	6	-1	ATMOSPHERE	54	n/a	-1	n/a	n/a	n/a	n/a	n/a
1464.448	n/a	WORD	732224	wordpools/wasnorm_wordpool_less_exclusions.txt	LTP210	ltpFR	16	7	1	ELK	526	n/a	1	1	0.412841796875	0.57763671875	lower	../fonts/zerothre.ttf
1468.442	n/a	WORD	734221	wordpools/wasnorm_wordpool_less_exclusions.txt	LTP210	ltpFR	16	7	1	DEER	444	n/a	1	1	0.412841796875	0.57763671875	lower	../fonts/zerothre.ttf
1472.552	n/a	WORD	736276	wordpools/wasnorm_wordpool_less_exclusions.txt	LTP210	ltpFR	16	7	1	DRESSER	496	n/a	0	1	0.412841796875	0.57763671875	lower	../fonts/zerothre.ttf
1476.746	n/a	WORD	738373	wordpools/wasnorm_wordpool_less_exclusions.txt	LTP210	ltpFR	16	7	0	CACTUS	215	n/a	1	0	0.5869140625	0.422607421875	upper	../fonts/amplitud.ttf
1480.756	n/a	WORD	740378	wordpools/wasnorm_wordpool_less_exclusions.txt	LTP210	ltpFR	16	7	0	PENGUIN	1044	n/a	1	0	0.5869140625	0.422607421875	upper	../fonts/amplitud.ttf
1484.916	n/a	WORD	742458	wordpools/wasnorm_wordpool_less_exclusions.txt	LTP210	ltpFR	16	7	0	BATTERY	101	n/a	0	0	0.5869140625	0.422607421875	upper	../fonts/amplitud.ttf
1489.094	n/a	WORD	744547	wordpools/wasnorm_wordpool_less_exclusions.txt	LTP210	ltpFR	16	7	0	STICKER	1382	n/a	0	0	0.5869140625	0.422607421875	upper	../fonts/amplitud.ttf
1493.088	n/a	WORD	746544	wordpools/wasnorm_wordpool_less_exclusions.txt	LTP210	ltpFR	16	7	1	IGLOO	734	n/a	0	1	0.412841796875	0.57763671875	lower	../fonts/zerothre.ttf
1496.932	n/a	WORD	748466	wordpools/wasnorm_wordpool_less_exclusions.txt	LTP210	ltpFR	16	7	1	HELICOPTER	701	n/a	0	1	0.412841796875	0.57763671875	lower	../fonts/zerothre.ttf
1500.926	n/a	WORD	750463	wordpools/wasnorm_wordpool_less_exclusions.txt	LTP210	ltpFR	16	7	0	HAIL	676	n/a	0	0	0.5869140625	0.422607421875	upper	../fonts/amplitud.ttf
1504.886	n/a	WORD	752443	wordpools/wasnorm_wordpool_less_exclusions.txt	LTP210	ltpFR	16	7	0	ROD	1203	n/a	0	0	0.5869140625	0.422607421875	upper	../fonts/amplitud.ttf
1509.08	n/a	WORD	754540	wordpools/wasnorm_wordpool_less_exclusions.txt	LTP210	ltpFR	16	7	0	SENATOR	1268	n/a	1	0	0.5869140625	0.422607421875	upper	../fonts/amplitud.ttf
1512.992	n/a	WORD	756496	wordpools/wasnorm_wordpool_less_exclusions.txt	LTP210	ltpFR	16	7	0	HURRICANE	727	n/a	1	0	0.5869140625	0.422607421875	upper	../fonts/amplitud.ttf
1516.918	n/a	WORD	758459	wordpools/wasnorm_wordpool_less_exclusions.txt	LTP210	ltpFR	16	7	1	CROW	414	n/a	1	1	0.412841796875	0.57763671875	lower	../fonts/zerothre.ttf
1521.114	n/a	WORD	760557	wordpools/wasnorm_wordpool_less_exclusions.txt	LTP210	ltpFR	16	7	1	CRUMB	416	n/a	0	1	0.412841796875	0.57763671875	lower	../fonts/zerothre.ttf
1525.024	n/a	WORD	762512	wordpools/wasnorm_wordpool_less_exclusions.txt	LTP210	ltpFR	16	7	1	ICING	732	n/a	0	1	0.412841796875	0.57763671875	lower	../fonts/zerothre.ttf
1530.8	n/a	REC_START	765400	n/a	LTP210	ltpFR	16	7	n/a	n/a	n/a	n/a	n/a	n/a	n/a	n/a	n/a	n/a
1532.132	n/a	REC_WORD	766066	wordpools/wasnorm_wordpool_less_exclusions.txt	LTP210	ltpFR	16	7	1	ICING	732	n/a	0	n/a	n/a	n/a	n/a	n/a
1533.278	n/a	REC_WORD	766639	wordpools/wasnorm_wordpool_less_exclusions.txt	LTP210	ltpFR	16	7	0	SENATOR	1268	n/a	1	n/a	n/a	n/a	n/a	n/a
1536.91	n/a	REC_WORD	768455	wordpools/wasnorm_wordpool_less_exclusions.txt	LTP210	ltpFR	16	7	1	CROW	414	n/a	1	n/a	n/a	n/a	n/a	n/a
1585.586	n/a	REC_WORD	792793	wordpools/wasnorm_wordpool_less_exclusions.txt	LTP210	ltpFR	16	7	1	ELK	526	n/a	1	n/a	n/a	n/a	n/a	n/a
1586.558	n/a	REC_WORD	793279	wordpools/wasnorm_wordpool_less_exclusions.txt	LTP210	ltpFR	16	7	1	DEER	444	n/a	1	n/a	n/a	n/a	n/a	n/a
1655.532	n/a	WORD	827766	wordpools/wasnorm_wordpool_less_exclusions.txt	LTP210	ltpFR	16	8	0	SICKLE	1302	n/a	1	0	0.5869140625	0.422607421875	upper	../fonts/amplitud.ttf
1659.46	n/a	WORD	829730	wordpools/wasnorm_wordpool_less_exclusions.txt	LTP210	ltpFR	16	8	0	TOOL	1480	n/a	0	0	0.5869140625	0.422607421875	upper	../fonts/amplitud.ttf
1663.688	n/a	WORD	831844	wordpools/wasnorm_wordpool_less_exclusions.txt	LTP210	ltpFR	16	8	0	NOMAD	955	n/a	1	0	0.5869140625	0.422607421875	upper	../fonts/amplitud.ttf
1667.632	n/a	WORD	833816	wordpools/wasnorm_wordpool_less_exclusions.txt	LTP210	ltpFR	16	8	0	BANK	83	n/a	1	0	0.5869140625	0.422607421875	upper	../fonts/amplitud.ttf
1671.458	n/a	WORD	835729	wordpools/wasnorm_wordpool_less_exclusions.txt	LTP210	ltpFR	16	8	0	OWNER	993	n/a	1	0	0.5869140625	0.422607421875	upper	../fonts/amplitud.ttf
1675.502	n/a	WORD	837751	wordpools/wasnorm_wordpool_less_exclusions.txt	LTP210	ltpFR	16	8	0	YOLK	1633	n/a	0	0	0.5869140625	0.422607421875	upper	../fonts/amplitud.ttf
1679.43	n/a	WORD	839715	wordpools/wasnorm_wordpool_less_exclusions.txt	LTP210	ltpFR	16	8	0	WARRIOR	1589	n/a	1	0	0.5869140625	0.422607421875	upper	../fonts/amplitud.ttf
1683.558	n/a	WORD	841779	wordpools/wasnorm_wordpool_less_exclusions.txt	LTP210	ltpFR	16	8	0	MOVIE	927	n/a	0	0	0.5869140625	0.422607421875	upper	../fonts/amplitud.ttf
1687.468	n/a	WORD	843734	wordpools/wasnorm_wordpool_less_exclusions.txt	LTP210	ltpFR	16	8	0	JAW	751	n/a	0	0	0.5869140625	0.422607421875	upper	../fonts/amplitud.ttf
1691.462	n/a	WORD	845731	wordpools/wasnorm_wordpool_less_exclusions.txt	LTP210	ltpFR	16	8	0	COLUMN	350	n/a	1	0	0.5869140625	0.422607421875	upper	../fonts/amplitud.ttf
1695.422	n/a	WORD	847711	wordpools/wasnorm_wordpool_less_exclusions.txt	LTP210	ltpFR	16	8	0	ARCHITECT	36	n/a	1	0	0.5869140625	0.422607421875	upper	../fonts/amplitud.ttf
1699.55	n/a	WORD	849775	wordpools/wasnorm_wordpool_less_exclusions.txt	LTP210	ltpFR	16	8	0	FUDGE	611	n/a	0	0	0.5869140625	0.422607421875	upper	../fonts/amplitud.ttf
1703.61	n/a	WORD	851805	wordpools/wasnorm_wordpool_less_exclusions.txt	LTP210	ltpFR	16	8	0	DESSERT	453	n/a	0	0	0.5869140625	0.422607421875	upper	../fonts/amplitud.ttf
1707.654	n/a	WORD	853827	wordpools/wasnorm_wordpool_less_exclusions.txt	LTP210	ltpFR	16	8	0	REGISTER	1180	n/a	1	0	0.5869140625	0.422607421875	upper	../fonts/amplitud.ttf
1711.83	n/a	WORD	855915	wordpools/wasnorm_wordpool_less_exclusions.txt	LTP210	ltpFR	16	8	0	CARPENTER	246	n/a	1	0	0.5869140625	0.422607421875	upper	../fonts/amplitud.ttf
1715.992	n/a	WORD	857996	wordpools/wasnorm_wordpool_less_exclusions.txt	LTP210	ltpFR	16	8	0	BUYER	208	n/a	1	0	0.5869140625	0.422607421875	upper	../fonts/amplitud.ttf
1721.85	n/a	REC_START	860925	n/a	LTP210	ltpFR	16	8	n/a	n/a	n/a	n/a	n/a	n/a	n/a	n/a	n/a	n/a
1722.714	n/a	REC_WORD	861357	wordpools/wasnorm_wordpool_less_exclusions.txt	LTP210	ltpFR	16	8	0	BUYER	208	n/a	1	n/a	n/a	n/a	n/a	n/a
1724.066	n/a	REC_WORD	862033	wordpools/wasnorm_wordpool_less_exclusions.txt	LTP210	ltpFR	16	8	0	OWNER	993	n/a	1	n/a	n/a	n/a	n/a	n/a
1725.278	n/a	REC_WORD	862639	wordpools/wasnorm_wordpool_less_exclusions.txt	LTP210	ltpFR	16	8	0	ARCHITECT	36	n/a	1	n/a	n/a	n/a	n/a	n/a
1729.384	n/a	REC_WORD	864692	wordpools/wasnorm_wordpool_less_exclusions.txt	LTP210	ltpFR	16	8	0	CARPENTER	246	n/a	1	n/a	n/a	n/a	n/a	n/a
1741.096	n/a	REC_WORD	870548	wordpools/wasnorm_wordpool_less_exclusions.txt	LTP210	ltpFR	16	8	0	JAW	751	n/a	0	n/a	n/a	n/a	n/a	n/a
1748.664	n/a	REC_WORD	874332	wordpools/wasnorm_wordpool_less_exclusions.txt	LTP210	ltpFR	16	8	0	COLUMN	350	n/a	1	n/a	n/a	n/a	n/a	n/a
1873.36	n/a	WORD	936680	wordpools/wasnorm_wordpool_less_exclusions.txt	LTP210	ltpFR	16	9	1	PROTON	1132	n/a	0	1	0.412841796875	0.57763671875	lower	../fonts/zerothre.ttf
1877.236	n/a	WORD	938618	wordpools/wasnorm_wordpool_less_exclusions.txt	LTP210	ltpFR	16	9	1	PICNIC	1060	n/a	0	1	0.412841796875	0.57763671875	lower	../fonts/zerothre.ttf
1881.198	n/a	WORD	940599	wordpools/wasnorm_wordpool_less_exclusions.txt	LTP210	ltpFR	16	9	1	TENT	1449	n/a	0	1	0.412841796875	0.57763671875	lower	../fonts/zerothre.ttf
1885.408	n/a	WORD	942704	wordpools/wasnorm_wordpool_less_exclusions.txt	LTP210	ltpFR	16	9	1	TWIG	1527	n/a	0	1	0.412841796875	0.57763671875	lower	../fonts/zerothre.ttf
1889.386	n/a	WORD	944693	wordpools/wasnorm_wordpool_less_exclusions.txt	LTP210	ltpFR	16	9	1	ELM	527	n/a	1	1	0.412841796875	0.57763671875	lower	../fonts/zerothre.ttf
1893.362	n/a	WORD	946681	wordpools/wasnorm_wordpool_less_exclusions.txt	LTP210	ltpFR	16	9	1	WALRUS	1585	n/a	1	1	0.412841796875	0.57763671875	lower	../fonts/zerothre.ttf
1897.324	n/a	WORD	948662	wordpools/wasnorm_wordpool_less_exclusions.txt	LTP210	ltpFR	16	9	1	SQUIRREL	1362	n/a	1	1	0.412841796875	0.57763671875	lower	../fonts/zerothre.ttf
1901.25	n/a	WORD	950625	wordpools/wasnorm_wordpool_less_exclusions.txt	LTP210	ltpFR	16	9	1	CUB	419	n/a	1	1	0.412841796875	0.57763671875	lower	../fonts/zerothre.ttf
1905.228	n/a	WORD	952614	wordpools/wasnorm_wordpool_less_exclusions.txt	LTP210	ltpFR	16	9	1	CEILING	265	n/a	0	1	0.412841796875	0.57763671875	lower	../fonts/zerothre.ttf
1909.272	n/a	WORD	954636	wordpools/wasnorm_wordpool_less_exclusions.txt	LTP210	ltpFR	16	9	1	MOAT	903	n/a	0	1	0.412841796875	0.57763671875	lower	../fonts/zerothre.ttf
1913.266	n/a	WORD	956633	wordpools/wasnorm_wordpool_less_exclusions.txt	LTP210	ltpFR	16	9	1	OCEAN	970	n/a	0	1	0.412841796875	0.57763671875	lower	../fonts/zerothre.ttf
1917.162	n/a	WORD	958581	wordpools/wasnorm_wordpool_less_exclusions.txt	LTP210	ltpFR	16	9	1	CHILD	299	n/a	1	1	0.412841796875	0.57763671875	lower	../fonts/zerothre.ttf
1921.038	n/a	WORD	960519	wordpools/wasnorm_wordpool_less_exclusions.txt	LTP210	ltpFR	16	9	1	SAUSAGE	1238	n/a	0	1	0.412841796875	0.57763671875	lower	../fonts/zerothre.ttf
1924.9	n/a	WORD	962450	wordpools/wasnorm_wordpool_less_exclusions.txt	LTP210	ltpFR	16	9	1	DRAWING	494	n/a	0	1	0.412841796875	0.57763671875	lower	../fonts/zerothre.ttf
1928.928	n/a	WORD	964464	wordpools/wasnorm_wordpool_less_exclusions.txt	LTP210	ltpFR	16	9	1	NUCLEUS	961	n/a	0	1	0.412841796875	0.57763671875	lower	../fonts/zerothre.ttf
1932.972	n/a	WORD	966486	wordpools/wasnorm_wordpool_less_exclusions.txt	LTP210	ltpFR	16	9	1	CALENDAR	221	n/a	0	1	0.412841796875	0.57763671875	lower	../fonts/zerothre.ttf
1938.946	n/a	REC_START	969473	n/a	LTP210	ltpFR	16	9	n/a	n/a	n/a	n/a	n/a	n/a	n/a	n/a	n/a	n/a
1940.124	n/a	REC_WORD	970062	wordpools/wasnorm_wordpool_less_exclusions.txt	LTP210	ltpFR	16	9	1	CALENDAR	221	n/a	0	n/a	n/a	n/a	n/a	n/a
1941.456	n/a	REC_WORD	970728	wordpools/wasnorm_wordpool_less_exclusions.txt	LTP210	ltpFR	16	9	1	NUCLEUS	961	n/a	0	n/a	n/a	n/a	n/a	n/a
1945.386	n/a	REC_WORD	972693	wordpools/wasnorm_wordpool_less_exclusions.txt	LTP210	ltpFR	16	9	1	ELM	527	n/a	1	n/a	n/a	n/a	n/a	n/a
1946.664	n/a	REC_WORD	973332	wordpools/wasnorm_wordpool_less_exclusions.txt	LTP210	ltpFR	16	9	1	TWIG	1527	n/a	0	n/a	n/a	n/a	n/a	n/a
1952.85	n/a	REC_WORD	976425	wordpools/wasnorm_wordpool_less_exclusions.txt	LTP210	ltpFR	16	9	1	CUB	419	n/a	1	n/a	n/a	n/a	n/a	n/a
1954.106	n/a	REC_WORD	977053	wordpools/wasnorm_wordpool_less_exclusions.txt	LTP210	ltpFR	16	9	1	CHILD	299	n/a	1	n/a	n/a	n/a	n/a	n/a
1960.442	n/a	REC_WORD	980221	wordpools/wasnorm_wordpool_less_exclusions.txt	LTP210	ltpFR	16	9	1	OCEAN	970	n/a	0	n/a	n/a	n/a	n/a	n/a
1974.894	n/a	REC_WORD	987447	wordpools/wasnorm_wordpool_less_exclusions.txt	LTP210	ltpFR	16	9	1	WALRUS	1585	n/a	1	n/a	n/a	n/a	n/a	n/a
1982.768	n/a	REC_WORD	991384	wordpools/wasnorm_wordpool_less_exclusions.txt	LTP210	ltpFR	16	9	1	SAUSAGE	1238	n/a	0	n/a	n/a	n/a	n/a	n/a
2074.496	n/a	WORD	1037248	wordpools/wasnorm_wordpool_less_exclusions.txt	LTP210	ltpFR	16	10	1	SERVANT	1271	n/a	1	1	0.412841796875	0.57763671875	lower	../fonts/zerothre.ttf
2078.574	n/a	WORD	1039287	wordpools/wasnorm_wordpool_less_exclusions.txt	LTP210	ltpFR	16	10	1	TROMBONE	1508	n/a	0	1	0.412841796875	0.57763671875	lower	../fonts/zerothre.ttf
2082.668	n/a	WORD	1041334	wordpools/wasnorm_wordpool_less_exclusions.txt	LTP210	ltpFR	16	10	1	CLARINET	317	n/a	0	1	0.412841796875	0.57763671875	lower	../fonts/zerothre.ttf
2086.544	n/a	WORD	1043272	wordpools/wasnorm_wordpool_less_exclusions.txt	LTP210	ltpFR	16	10	1	DINER	467	n/a	0	1	0.412841796875	0.57763671875	lower	../fonts/zerothre.ttf
2090.588	n/a	WORD	1045294	wordpools/wasnorm_wordpool_less_exclusions.txt	LTP210	ltpFR	16	10	1	PEN	1041	n/a	0	1	0.412841796875	0.57763671875	lower	../fonts/zerothre.ttf
2094.65	n/a	WORD	1047325	wordpools/wasnorm_wordpool_less_exclusions.txt	LTP210	ltpFR	16	10	1	POLYESTER	1100	n/a	0	1	0.412841796875	0.57763671875	lower	../fonts/zerothre.ttf
2098.66	n/a	WORD	1049330	wordpools/wasnorm_wordpool_less_exclusions.txt	LTP210	ltpFR	16	10	1	TROUSERS	1510	n/a	0	1	0.412841796875	0.57763671875	lower	../fonts/zerothre.ttf
2102.588	n/a	WORD	1051294	wordpools/wasnorm_wordpool_less_exclusions.txt	LTP210	ltpFR	16	10	1	CABINET	212	n/a	0	1	0.412841796875	0.57763671875	lower	../fonts/zerothre.ttf
2106.664	n/a	WORD	1053332	wordpools/wasnorm_wordpool_less_exclusions.txt	LTP210	ltpFR	16	10	1	COWBOY	395	n/a	1	1	0.412841796875	0.57763671875	lower	../fonts/zerothre.ttf
2110.626	n/a	WORD	1055313	wordpools/wasnorm_wordpool_less_exclusions.txt	LTP210	ltpFR	16	10	1	PERISCOPE	1050	n/a	0	1	0.412841796875	0.57763671875	lower	../fonts/zerothre.ttf
2114.654	n/a	WORD	1057327	wordpools/wasnorm_wordpool_less_exclusions.txt	LTP210	ltpFR	16	10	1	LASH	802	n/a	0	1	0.412841796875	0.57763671875	lower	../fonts/zerothre.ttf
2118.78	n/a	WORD	1059390	wordpools/wasnorm_wordpool_less_exclusions.txt	LTP210	ltpFR	16	10	1	WAITER	1580	n/a	1	1	0.412841796875	0.57763671875	lower	../fonts/zerothre.ttf
2122.608	n/a	WORD	1061304	wordpools/wasnorm_wordpool_less_exclusions.txt	LTP210	ltpFR	16	10	1	CHEF	290	n/a	1	1	0.412841796875	0.57763671875	lower	../fonts/zerothre.ttf
2126.452	n/a	WORD	1063226	wordpools/wasnorm_wordpool_less_exclusions.txt	LTP210	ltpFR	16	10	1	TAG	1429	n/a	0	1	0.412841796875	0.57763671875	lower	../fonts/zerothre.ttf
2130.346	n/a	WORD	1065173	wordpools/wasnorm_wordpool_less_exclusions.txt	LTP210	ltpFR	16	10	1	CRICKET	408	n/a	1	1	0.412841796875	0.57763671875	lower	../fonts/zerothre.ttf
2134.24	n/a	WORD	1067120	wordpools/wasnorm_wordpool_less_exclusions.txt	LTP210	ltpFR	16	10	1	GALAXY	617	n/a	0	1	0.412841796875	0.57763671875	lower	../fonts/zerothre.ttf
2140.098	n/a	REC_START	1070049	n/a	LTP210	ltpFR	16	10	n/a	n/a	n/a	n/a	n/a	n/a	n/a	n/a	n/a	n/a
2141.236	n/a	REC_WORD	1070618	wordpools/wasnorm_wordpool_less_exclusions.txt	LTP210	ltpFR	16	10	1	GALAXY	617	n/a	0	n/a	n/a	n/a	n/a	n/a
2142.722	n/a	REC_WORD	1071361	wordpools/wasnorm_wordpool_less_exclusions.txt	LTP210	ltpFR	16	10	1	WAITER	1580	n/a	1	n/a	n/a	n/a	n/a	n/a
2144.324	n/a	REC_WORD	1072162	wordpools/wasnorm_wordpool_less_exclusions.txt	LTP210	ltpFR	16	10	1	SERVANT	1271	n/a	1	n/a	n/a	n/a	n/a	n/a
2146.28	n/a	REC_WORD	1073140	wordpools/wasnorm_wordpool_less_exclusions.txt	LTP210	ltpFR	16	10	1	DINER	467	n/a	0	n/a	n/a	n/a	n/a	n/a
2151.198	n/a	REC_WORD	1075599	wordpools/wasnorm_wordpool_less_exclusions.txt	LTP210	ltpFR	16	10	1	PEN	1041	n/a	0	n/a	n/a	n/a	n/a	n/a
2159.444	n/a	REC_WORD	1079722	wordpools/wasnorm_wordpool_less_exclusions.txt	LTP210	ltpFR	16	10	1	LASH	802	n/a	0	n/a	n/a	n/a	n/a	n/a
2170.484	n/a	REC_WORD	1085242	wordpools/wasnorm_wordpool_less_exclusions.txt	LTP210	ltpFR	16	10	1	TROMBONE	1508	n/a	0	n/a	n/a	n/a	n/a	n/a
2177.24	n/a	REC_WORD	1088620	wordpools/wasnorm_wordpool_less_exclusions.txt	LTP210	ltpFR	16	10	1	CLARINET	317	n/a	0	n/a	n/a	n/a	n/a	n/a
2179.39	n/a	REC_WORD	1089695	wordpools/wasnorm_wordpool_less_exclusions.txt	LTP210	ltpFR	16	10	1	CABINET	212	n/a	0	n/a	n/a	n/a	n/a	n/a
2276.796	n/a	WORD	1138398	wordpools/wasnorm_wordpool_less_exclusions.txt	LTP210	ltpFR	16	11	0	WICK	1607	n/a	0	0	0.5869140625	0.422607421875	upper	../fonts/amplitud.ttf
2280.824	n/a	WORD	1140412	wordpools/wasnorm_wordpool_less_exclusions.txt	LTP210	ltpFR	16	11	0	BATHTUB	100	n/a	1	0	0.5869140625	0.422607421875	upper	../fonts/amplitud.ttf
2284.684	n/a	WORD	1142342	wordpools/wasnorm_wordpool_less_exclusions.txt	LTP210	ltpFR	16	11	1	PLUMBER	1091	n/a	1	1	0.412841796875	0.57763671875	lower	../fonts/zerothre.ttf
2288.828	n/a	WORD	1144414	wordpools/wasnorm_wordpool_less_exclusions.txt	LTP210	ltpFR	16	11	1	CABLE	213	n/a	0	1	0.412841796875	0.57763671875	lower	../fonts/zerothre.ttf
2292.772	n/a	WORD	1146386	wordpools/wasnorm_wordpool_less_exclusions.txt	LTP210	ltpFR	16	11	1	COD	340	n/a	1	1	0.412841796875	0.57763671875	lower	../fonts/zerothre.ttf
2296.932	n/a	WORD	1148466	wordpools/wasnorm_wordpool_less_exclusions.txt	LTP210	ltpFR	16	11	1	DIVER	476	n/a	1	1	0.412841796875	0.57763671875	lower	../fonts/zerothre.ttf
2300.81	n/a	WORD	1150405	wordpools/wasnorm_wordpool_less_exclusions.txt	LTP210	ltpFR	16	11	1	GRASS	655	n/a	1	1	0.412841796875	0.57763671875	lower	../fonts/zerothre.ttf
2304.97	n/a	WORD	1152485	wordpools/wasnorm_wordpool_less_exclusions.txt	LTP210	ltpFR	16	11	0	LAWN	805	n/a	1	0	0.5869140625	0.422607421875	upper	../fonts/amplitud.ttf
2308.898	n/a	WORD	1154449	wordpools/wasnorm_wordpool_less_exclusions.txt	LTP210	ltpFR	16	11	0	FIREMAN	569	n/a	1	0	0.5869140625	0.422607421875	upper	../fonts/amplitud.ttf
2312.776	n/a	WORD	1156388	wordpools/wasnorm_wordpool_less_exclusions.txt	LTP210	ltpFR	16	11	1	GUEST	669	n/a	1	1	0.412841796875	0.57763671875	lower	../fonts/zerothre.ttf
2316.606	n/a	WORD	1158303	wordpools/wasnorm_wordpool_less_exclusions.txt	LTP210	ltpFR	16	11	1	KEYBOARD	774	n/a	0	1	0.412841796875	0.57763671875	lower	../fonts/zerothre.ttf
2320.616	n/a	WORD	1160308	wordpools/wasnorm_wordpool_less_exclusions.txt	LTP210	ltpFR	16	11	1	PELICAN	1039	n/a	1	1	0.412841796875	0.57763671875	lower	../fonts/zerothre.ttf
2324.626	n/a	WORD	1162313	wordpools/wasnorm_wordpool_less_exclusions.txt	LTP210	ltpFR	16	11	0	MICROSCOPE	891	n/a	1	0	0.5869140625	0.422607421875	upper	../fonts/amplitud.ttf
2328.704	n/a	WORD	1164352	wordpools/wasnorm_wordpool_less_exclusions.txt	LTP210	ltpFR	16	11	0	PLUTO	1092	n/a	1	0	0.5869140625	0.422607421875	upper	../fonts/amplitud.ttf
2332.648	n/a	WORD	1166324	wordpools/wasnorm_wordpool_less_exclusions.txt	LTP210	ltpFR	16	11	0	ENEMY	534	n/a	1	0	0.5869140625	0.422607421875	upper	../fonts/amplitud.ttf
2336.724	n/a	WORD	1168362	wordpools/wasnorm_wordpool_less_exclusions.txt	LTP210	ltpFR	16	11	0	PILLOW	1069	n/a	1	0	0.5869140625	0.422607421875	upper	../fonts/amplitud.ttf
2342.55	n/a	REC_START	1171275	n/a	LTP210	ltpFR	16	11	n/a	n/a	n/a	n/a	n/a	n/a	n/a	n/a	n/a	n/a
2343.47	n/a	REC_WORD	1171735	wordpools/wasnorm_wordpool_less_exclusions.txt	LTP210	ltpFR	16	11	0	PLUTO	1092	n/a	1	n/a	n/a	n/a	n/a	n/a
2344.954	n/a	REC_WORD	1172477	wordpools/wasnorm_wordpool_less_exclusions.txt	LTP210	ltpFR	16	11	0	ENEMY	534	n/a	1	n/a	n/a	n/a	n/a	n/a
2346.252	n/a	REC_WORD	1173126	wordpools/wasnorm_wordpool_less_exclusions.txt	LTP210	ltpFR	16	11	0	PILLOW	1069	n/a	1	n/a	n/a	n/a	n/a	n/a
2348.902	n/a	REC_WORD	1174451	wordpools/wasnorm_wordpool_less_exclusions.txt	LTP210	ltpFR	16	11	1	PLUMBER	1091	n/a	1	n/a	n/a	n/a	n/a	n/a
2350.378	n/a	REC_WORD	1175189	wordpools/wasnorm_wordpool_less_exclusions.txt	LTP210	ltpFR	16	11	1	DIVER	476	n/a	1	n/a	n/a	n/a	n/a	n/a
2351.784	n/a	REC_WORD	1175892	wordpools/wasnorm_wordpool_less_exclusions.txt	LTP210	ltpFR	16	11	1	COD	340	n/a	1	n/a	n/a	n/a	n/a	n/a
2377.028	n/a	REC_WORD	1188514	wordpools/wasnorm_wordpool_less_exclusions.txt	LTP210	ltpFR	16	11	0	FIREMAN	569	n/a	1	n/a	n/a	n/a	n/a	n/a
2381.852	n/a	REC_WORD	1190926	wordpools/wasnorm_wordpool_less_exclusions.txt	LTP210	ltpFR	16	11	1	PELICAN	1039	n/a	1	n/a	n/a	n/a	n/a	n/a
2465.25	n/a	WORD	1232625	wordpools/wasnorm_wordpool_less_exclusions.txt	LTP210	ltpFR	16	12	1	DIRECTOR	471	n/a	1	1	0.412841796875	0.57763671875	lower	../fonts/zerothre.ttf
2469.278	n/a	WORD	1234639	wordpools/wasnorm_wordpool_less_exclusions.txt	LTP210	ltpFR	16	12	1	BISON	131	n/a	1	1	0.412841796875	0.57763671875	lower	../fonts/zerothre.ttf
2473.472	n/a	WORD	1236736	wordpools/wasnorm_wordpool_less_exclusions.txt	LTP210	ltpFR	16	12	1	PEACH	1031	n/a	1	1	0.412841796875	0.57763671875	lower	../fonts/zerothre.ttf
2477.466	n/a	WORD	1238733	wordpools/wasnorm_wordpool_less_exclusions.txt	LTP210	ltpFR	16	12	1	TANGERINE	1431	n/a	1	1	0.412841796875	0.57763671875	lower	../fonts/zerothre.ttf
2481.31	n/a	WORD	1240655	wordpools/wasnorm_wordpool_less_exclusions.txt	LTP210	ltpFR	16	12	0	PECAN	1036	n/a	0	0	0.5869140625	0.422607421875	upper	../fonts/amplitud.ttf
2485.22	n/a	WORD	1242610	wordpools/wasnorm_wordpool_less_exclusions.txt	LTP210	ltpFR	16	12	0	PELT	1040	n/a	0	0	0.5869140625	0.422607421875	upper	../fonts/amplitud.ttf
2489.132	n/a	WORD	1244566	wordpools/wasnorm_wordpool_less_exclusions.txt	LTP210	ltpFR	16	12	0	FLANNEL	574	n/a	0	0	0.5869140625	0.422607421875	upper	../fonts/amplitud.ttf
2493.042	n/a	WORD	1246521	wordpools/wasnorm_wordpool_less_exclusions.txt	LTP210	ltpFR	16	12	0	PARENT	1013	n/a	1	0	0.5869140625	0.422607421875	upper	../fonts/amplitud.ttf
2497.202	n/a	WORD	1248601	wordpools/wasnorm_wordpool_less_exclusions.txt	LTP210	ltpFR	16	12	0	DAUGHTER	442	n/a	1	0	0.5869140625	0.422607421875	upper	../fonts/amplitud.ttf
2501.296	n/a	WORD	1250648	wordpools/wasnorm_wordpool_less_exclusions.txt	LTP210	ltpFR	16	12	1	VIDEO	1564	n/a	0	1	0.412841796875	0.57763671875	lower	../fonts/zerothre.ttf
2505.34	n/a	WORD	1252670	wordpools/wasnorm_wordpool_less_exclusions.txt	LTP210	ltpFR	16	12	1	PIE	1062	n/a	0	1	0.412841796875	0.57763671875	lower	../fonts/zerothre.ttf
2509.284	n/a	WORD	1254642	wordpools/wasnorm_wordpool_less_exclusions.txt	LTP210	ltpFR	16	12	1	FLASHLIGHT	575	n/a	0	1	0.412841796875	0.57763671875	lower	../fonts/zerothre.ttf
2513.146	n/a	WORD	1256573	wordpools/wasnorm_wordpool_less_exclusions.txt	LTP210	ltpFR	16	12	1	TOY	1492	n/a	0	1	0.412841796875	0.57763671875	lower	../fonts/zerothre.ttf
2517.04	n/a	WORD	1258520	wordpools/wasnorm_wordpool_less_exclusions.txt	LTP210	ltpFR	16	12	0	GUARDIAN	668	n/a	1	0	0.5869140625	0.422607421875	upper	../fonts/amplitud.ttf
2521.168	n/a	WORD	1260584	wordpools/wasnorm_wordpool_less_exclusions.txt	LTP210	ltpFR	16	12	0	DIPLOMA	470	n/a	0	0	0.5869140625	0.422607421875	upper	../fonts/amplitud.ttf
2525.112	n/a	WORD	1262556	wordpools/wasnorm_wordpool_less_exclusions.txt	LTP210	ltpFR	16	12	0	LUMBER	848	n/a	1	0	0.5869140625	0.422607421875	upper	../fonts/amplitud.ttf
2530.838	n/a	REC_START	1265419	n/a	LTP210	ltpFR	16	12	n/a	n/a	n/a	n/a	n/a	n/a	n/a	n/a	n/a	n/a
2531.944	n/a	REC_WORD	1265972	wordpools/wasnorm_wordpool_less_exclusions.txt	LTP210	ltpFR	16	12	0	LUMBER	848	n/a	1	n/a	n/a	n/a	n/a	n/a
2533.134	n/a	REC_WORD	1266567	wordpools/wasnorm_wordpool_less_exclusions.txt	LTP210	ltpFR	16	12	0	DIPLOMA	470	n/a	0	n/a	n/a	n/a	n/a	n/a
2534.784	n/a	REC_WORD	1267392	wordpools/wasnorm_wordpool_less_exclusions.txt	LTP210	ltpFR	16	12	0	GUARDIAN	668	n/a	1	n/a	n/a	n/a	n/a	n/a
2535.98	n/a	REC_WORD	1267990	wordpools/wasnorm_wordpool_less_exclusions.txt	LTP210	ltpFR	16	12	0	PARENT	1013	n/a	1	n/a	n/a	n/a	n/a	n/a
2537.268	n/a	REC_WORD	1268634	wordpools/wasnorm_wordpool_less_exclusions.txt	LTP210	ltpFR	16	12	0	DAUGHTER	442	n/a	1	n/a	n/a	n/a	n/a	n/a
2539.402	n/a	REC_WORD	1269701	wordpools/wasnorm_wordpool_less_exclusions.txt	LTP210	ltpFR	16	12	1	PEACH	1031	n/a	1	n/a	n/a	n/a	n/a	n/a
2540.566	n/a	REC_WORD	1270283	wordpools/wasnorm_wordpool_less_exclusions.txt	LTP210	ltpFR	16	12	0	PECAN	1036	n/a	0	n/a	n/a	n/a	n/a	n/a
2541.982	n/a	REC_WORD	1270991	wordpools/wasnorm_wordpool_less_exclusions.txt	LTP210	ltpFR	16	12	1	PIE	1062	n/a	0	n/a	n/a	n/a	n/a	n/a
2548.262	n/a	REC_WORD	1274131	wordpools/wasnorm_wordpool_less_exclusions.txt	LTP210	ltpFR	16	12	1	DIRECTOR	471	n/a	1	n/a	n/a	n/a	n/a	n/a
2606.458	n/a	REST_REWET	1303229	n/a	LTP210	ltpFR	16	12	n/a	n/a	n/a	n/a	n/a	n/a	n/a	n/a	n/a	n/a
2894.998	n/a	WORD	1447499	wordpools/wasnorm_wordpool_less_exclusions.txt	LTP210	ltpFR	16	13	-1	ANTLER	29	n/a	-1	1	1.0	1.0	upper	../fonts/Verdana.ttf
2899.108	n/a	WORD	1449554	wordpools/wasnorm_wordpool_less_exclusions.txt	LTP210	ltpFR	16	13	-1	LIME	823	n/a	-1	1	1.0	1.0	upper	../fonts/Verdana.ttf
2903.086	n/a	WORD	1451543	wordpools/wasnorm_wordpool_less_exclusions.txt	LTP210	ltpFR	16	13	-1	SALAD	1224	n/a	-1	1	1.0	1.0	upper	../fonts/Verdana.ttf
2906.914	n/a	WORD	1453457	wordpools/wasnorm_wordpool_less_exclusions.txt	LTP210	ltpFR	16	13	-1	GROCERIES	663	n/a	-1	1	1.0	1.0	upper	../fonts/Verdana.ttf
2911.026	n/a	WORD	1455513	wordpools/wasnorm_wordpool_less_exclusions.txt	LTP210	ltpFR	16	13	-1	UNIVERSE	1540	n/a	-1	1	1.0	1.0	upper	../fonts/Verdana.ttf
2915.218	n/a	WORD	1457609	wordpools/wasnorm_wordpool_less_exclusions.txt	LTP210	ltpFR	16	13	-1	EARTH	515	n/a	-1	1	1.0	1.0	upper	../fonts/Verdana.ttf
2919.28	n/a	WORD	1459640	wordpools/wasnorm_wordpool_less_exclusions.txt	LTP210	ltpFR	16	13	-1	SPINACH	1352	n/a	-1	1	1.0	1.0	upper	../fonts/Verdana.ttf
2923.34	n/a	WORD	1461670	wordpools/wasnorm_wordpool_less_exclusions.txt	LTP210	ltpFR	16	13	-1	ALLIGATOR	16	n/a	-1	1	1.0	1.0	upper	../fonts/Verdana.ttf
2927.384	n/a	WORD	1463692	wordpools/wasnorm_wordpool_less_exclusions.txt	LTP210	ltpFR	16	13	-1	FRIES	607	n/a	-1	1	1.0	1.0	upper	../fonts/Verdana.ttf
2931.562	n/a	WORD	1465781	wordpools/wasnorm_wordpool_less_exclusions.txt	LTP210	ltpFR	16	13	-1	WART	1590	n/a	-1	1	1.0	1.0	upper	../fonts/Verdana.ttf
2935.722	n/a	WORD	1467861	wordpools/wasnorm_wordpool_less_exclusions.txt	LTP210	ltpFR	16	13	-1	SUBMARINE	1398	n/a	-1	1	1.0	1.0	upper	../fonts/Verdana.ttf
2939.684	n/a	WORD	1469842	wordpools/wasnorm_wordpool_less_exclusions.txt	LTP210	ltpFR	16	13	-1	APRON	35	n/a	-1	1	1.0	1.0	upper	../fonts/Verdana.ttf
2943.628	n/a	WORD	1471814	wordpools/wasnorm_wordpool_less_exclusions.txt	LTP210	ltpFR	16	13	-1	COOKBOOK	373	n/a	-1	1	1.0	1.0	upper	../fonts/Verdana.ttf
2947.77	n/a	WORD	1473885	wordpools/wasnorm_wordpool_less_exclusions.txt	LTP210	ltpFR	16	13	-1	GRILL	661	n/a	-1	1	1.0	1.0	upper	../fonts/Verdana.ttf
2951.598	n/a	WORD	1475799	wordpools/wasnorm_wordpool_less_exclusions.txt	LTP210	ltpFR	16	13	-1	SHEET	1279	n/a	-1	1	1.0	1.0	upper	../fonts/Verdana.ttf
2955.61	n/a	WORD	1477805	wordpools/wasnorm_wordpool_less_exclusions.txt	LTP210	ltpFR	16	13	-1	EDITOR	516	n/a	-1	1	1.0	1.0	upper	../fonts/Verdana.ttf
2961.602	n/a	REC_START	1480801	n/a	LTP210	ltpFR	16	13	n/a	n/a	n/a	n/a	n/a	n/a	n/a	n/a	n/a	n/a
2962.464	n/a	REC_WORD	1481232	wordpools/wasnorm_wordpool_less_exclusions.txt	LTP210	ltpFR	16	13	-1	GRILL	661	n/a	-1	n/a	n/a	n/a	n/a	n/a
2963.652	n/a	REC_WORD	1481826	wordpools/wasnorm_wordpool_less_exclusions.txt	LTP210	ltpFR	16	13	-1	SHEET	1279	n/a	-1	n/a	n/a	n/a	n/a	n/a
2964.978	n/a	REC_WORD	1482489	wordpools/wasnorm_wordpool_less_exclusions.txt	LTP210	ltpFR	16	13	-1	COOKBOOK	373	n/a	-1	n/a	n/a	n/a	n/a	n/a
2966.406	n/a	REC_WORD	1483203	wordpools/wasnorm_wordpool_less_exclusions.txt	LTP210	ltpFR	16	13	-1	EDITOR	516	n/a	-1	n/a	n/a	n/a	n/a	n/a
2971.24	n/a	REC_WORD	1485620	wordpools/wasnorm_wordpool_less_exclusions.txt	LTP210	ltpFR	16	13	-1	ANTLER	29	n/a	-1	n/a	n/a	n/a	n/a	n/a
2984.506	n/a	REC_WORD	1492253	wordpools/wasnorm_wordpool_less_exclusions.txt	LTP210	ltpFR	16	13	-1	UNIVERSE	1540	n/a	-1	n/a	n/a	n/a	n/a	n/a
3015.594	n/a	REC_WORD	1507797	wordpools/wasnorm_wordpool_less_exclusions.txt	LTP210	ltpFR	16	13	-1	SUBMARINE	1398	n/a	-1	n/a	n/a	n/a	n/a	n/a
3099.696	n/a	WORD	1549848	wordpools/wasnorm_wordpool_less_exclusions.txt	LTP210	ltpFR	16	14	-1	BACKBONE	66	n/a	-1	1	1.0	1.0	upper	../fonts/Verdana.ttf
3103.872	n/a	WORD	1551936	wordpools/wasnorm_wordpool_less_exclusions.txt	LTP210	ltpFR	16	14	-1	BUREAU	199	n/a	-1	1	1.0	1.0	upper	../fonts/Verdana.ttf
3107.752	n/a	WORD	1553876	wordpools/wasnorm_wordpool_less_exclusions.txt	LTP210	ltpFR	16	14	-1	AGENT	10	n/a	-1	1	1.0	1.0	upper	../fonts/Verdana.ttf
3111.762	n/a	WORD	1555881	wordpools/wasnorm_wordpool_less_exclusions.txt	LTP210	ltpFR	16	14	-1	BEER	114	n/a	-1	1	1.0	1.0	upper	../fonts/Verdana.ttf
3115.938	n/a	WORD	1557969	wordpools/wasnorm_wordpool_less_exclusions.txt	LTP210	ltpFR	16	14	-1	GLASS	639	n/a	-1	1	1.0	1.0	upper	../fonts/Verdana.ttf
3119.832	n/a	WORD	1559916	wordpools/wasnorm_wordpool_less_exclusions.txt	LTP210	ltpFR	16	14	-1	SPINE	1353	n/a	-1	1	1.0	1.0	upper	../fonts/Verdana.ttf
3123.91	n/a	WORD	1561955	wordpools/wasnorm_wordpool_less_exclusions.txt	LTP210	ltpFR	16	14	-1	EXPLOSION	544	n/a	-1	1	1.0	1.0	upper	../fonts/Verdana.ttf
3128.004	n/a	WORD	1564002	wordpools/wasnorm_wordpool_less_exclusions.txt	LTP210	ltpFR	16	14	-1	FIDDLE	561	n/a	-1	1	1.0	1.0	upper	../fonts/Verdana.ttf
3132.082	n/a	WORD	1566041	wordpools/wasnorm_wordpool_less_exclusions.txt	LTP210	ltpFR	16	14	-1	DOUGHNUT	490	n/a	-1	1	1.0	1.0	upper	../fonts/Verdana.ttf
3136.176	n/a	WORD	1568088	wordpools/wasnorm_wordpool_less_exclusions.txt	LTP210	ltpFR	16	14	-1	SILVERWARE	1308	n/a	-1	1	1.0	1.0	upper	../fonts/Verdana.ttf
3140.152	n/a	WORD	1570076	wordpools/wasnorm_wordpool_less_exclusions.txt	LTP210	ltpFR	16	14	-1	HOUND	724	n/a	-1	1	1.0	1.0	upper	../fonts/Verdana.ttf
3144.23	n/a	WORD	1572115	wordpools/wasnorm_wordpool_less_exclusions.txt	LTP210	ltpFR	16	14	-1	BOYFRIEND	162	n/a	-1	1	1.0	1.0	upper	../fonts/Verdana.ttf
3148.19	n/a	WORD	1574095	wordpools/wasnorm_wordpool_less_exclusions.txt	LTP210	ltpFR	16	14	-1	WHISTLE	1606	n/a	-1	1	1.0	1.0	upper	../fonts/Verdana.ttf
3152.352	n/a	WORD	1576176	wordpools/wasnorm_wordpool_less_exclusions.txt	LTP210	ltpFR	16	14	-1	CRYSTAL	418	n/a	-1	1	1.0	1.0	upper	../fonts/Verdana.ttf
3156.212	n/a	WORD	1578106	wordpools/wasnorm_wordpool_less_exclusions.txt	LTP210	ltpFR	16	14	-1	SOAP	1337	n/a	-1	1	1.0	1.0	upper	../fonts/Verdana.ttf
3160.04	n/a	WORD	1580020	wordpools/wasnorm_wordpool_less_exclusions.txt	LTP210	ltpFR	16	14	-1	DETERGENT	455	n/a	-1	1	1.0	1.0	upper	../fonts/Verdana.ttf
3165.948	n/a	REC_START	1582974	n/a	LTP210	ltpFR	16	14	n/a	n/a	n/a	n/a	n/a	n/a	n/a	n/a	n/a	n/a
3166.612	n/a	REC_WORD	1583306	wordpools/wasnorm_wordpool_less_exclusions.txt	LTP210	ltpFR	16	14	-1	SOAP	1337	n/a	-1	n/a	n/a	n/a	n/a	n/a
3167.854	n/a	REC_WORD	1583927	wordpools/wasnorm_wordpool_less_exclusions.txt	LTP210	ltpFR	16	14	-1	DETERGENT	455	n/a	-1	n/a	n/a	n/a	n/a	n/a
3169.38	n/a	REC_WORD	1584690	wordpools/wasnorm_wordpool_less_exclusions.txt	LTP210	ltpFR	16	14	-1	CRYSTAL	418	n/a	-1	n/a	n/a	n/a	n/a	n/a
3170.982	n/a	REC_WORD	1585491	wordpools/wasnorm_wordpool_less_exclusions.txt	LTP210	ltpFR	16	14	-1	BEER	114	n/a	-1	n/a	n/a	n/a	n/a	n/a
3172.114	n/a	REC_WORD	1586057	wordpools/wasnorm_wordpool_less_exclusions.txt	LTP210	ltpFR	16	14	-1	GLASS	639	n/a	-1	n/a	n/a	n/a	n/a	n/a
3173.448	n/a	REC_WORD	1586724	wordpools/wasnorm_wordpool_less_exclusions.txt	LTP210	ltpFR	16	14	-1	BACKBONE	66	n/a	-1	n/a	n/a	n/a	n/a	n/a
3174.666	n/a	REC_WORD	1587333	wordpools/wasnorm_wordpool_less_exclusions.txt	LTP210	ltpFR	16	14	-1	SPINE	1353	n/a	-1	n/a	n/a	n/a	n/a	n/a
3176.48	n/a	REC_WORD	1588240	wordpools/wasnorm_wordpool_less_exclusions.txt	LTP210	ltpFR	16	14	-1	EXPLOSION	544	n/a	-1	n/a	n/a	n/a	n/a	n/a
3180.452	n/a	REC_WORD	1590226	wordpools/wasnorm_wordpool_less_exclusions.txt	LTP210	ltpFR	16	14	-1	BUREAU	199	n/a	-1	n/a	n/a	n/a	n/a	n/a
3181.724	n/a	REC_WORD	1590862	wordpools/wasnorm_wordpool_less_exclusions.txt	LTP210	ltpFR	16	14	-1	AGENT	10	n/a	-1	n/a	n/a	n/a	n/a	n/a
3317.124	n/a	WORD	1658562	wordpools/wasnorm_wordpool_less_exclusions.txt	LTP210	ltpFR	16	15	0	FUR	615	n/a	0	0	0.5869140625	0.422607421875	upper	../fonts/amplitud.ttf
3321.252	n/a	WORD	1660626	wordpools/wasnorm_wordpool_less_exclusions.txt	LTP210	ltpFR	16	15	0	SKETCH	1315	n/a	0	0	0.5869140625	0.422607421875	upper	../fonts/amplitud.ttf
3325.196	n/a	WORD	1662598	wordpools/wasnorm_wordpool_less_exclusions.txt	LTP210	ltpFR	16	15	0	HAM	678	n/a	0	0	0.5869140625	0.422607421875	upper	../fonts/amplitud.ttf
3329.29	n/a	WORD	1664645	wordpools/wasnorm_wordpool_less_exclusions.txt	LTP210	ltpFR	16	15	0	MINK	897	n/a	0	0	0.5869140625	0.422607421875	upper	../fonts/amplitud.ttf
3333.416	n/a	WORD	1666708	wordpools/wasnorm_wordpool_less_exclusions.txt	LTP210	ltpFR	16	15	0	SUIT	1402	n/a	1	0	0.5869140625	0.422607421875	upper	../fonts/amplitud.ttf
3337.546	n/a	WORD	1668773	wordpools/wasnorm_wordpool_less_exclusions.txt	LTP210	ltpFR	16	15	0	GRADUATE	653	n/a	1	0	0.5869140625	0.422607421875	upper	../fonts/amplitud.ttf
3341.756	n/a	WORD	1670878	wordpools/wasnorm_wordpool_less_exclusions.txt	LTP210	ltpFR	16	15	0	CINNAMON	310	n/a	0	0	0.5869140625	0.422607421875	upper	../fonts/amplitud.ttf
3345.666	n/a	WORD	1672833	wordpools/wasnorm_wordpool_less_exclusions.txt	LTP210	ltpFR	16	15	0	ASH	44	n/a	0	0	0.5869140625	0.422607421875	upper	../fonts/amplitud.ttf
3349.544	n/a	WORD	1674772	wordpools/wasnorm_wordpool_less_exclusions.txt	LTP210	ltpFR	16	15	0	LOG	841	n/a	1	0	0.5869140625	0.422607421875	upper	../fonts/amplitud.ttf
3353.704	n/a	WORD	1676852	wordpools/wasnorm_wordpool_less_exclusions.txt	LTP210	ltpFR	16	15	0	PAWN	1030	n/a	0	0	0.5869140625	0.422607421875	upper	../fonts/amplitud.ttf
3357.764	n/a	WORD	1678882	wordpools/wasnorm_wordpool_less_exclusions.txt	LTP210	ltpFR	16	15	0	FELLOW	558	n/a	1	0	0.5869140625	0.422607421875	upper	../fonts/amplitud.ttf
3361.842	n/a	WORD	1680921	wordpools/wasnorm_wordpool_less_exclusions.txt	LTP210	ltpFR	16	15	0	ROOMMATE	1207	n/a	1	0	0.5869140625	0.422607421875	upper	../fonts/amplitud.ttf
3365.786	n/a	WORD	1682893	wordpools/wasnorm_wordpool_less_exclusions.txt	LTP210	ltpFR	16	15	0	STUDENT	1395	n/a	1	0	0.5869140625	0.422607421875	upper	../fonts/amplitud.ttf
3369.746	n/a	WORD	1684873	wordpools/wasnorm_wordpool_less_exclusions.txt	LTP210	ltpFR	16	15	0	CARDINAL	244	n/a	0	0	0.5869140625	0.422607421875	upper	../fonts/amplitud.ttf
3373.742	n/a	WORD	1686871	wordpools/wasnorm_wordpool_less_exclusions.txt	LTP210	ltpFR	16	15	0	DRUM	502	n/a	1	0	0.5869140625	0.422607421875	upper	../fonts/amplitud.ttf
3377.636	n/a	WORD	1688818	wordpools/wasnorm_wordpool_less_exclusions.txt	LTP210	ltpFR	16	15	0	QUARTER	1148	n/a	0	0	0.5869140625	0.422607421875	upper	../fonts/amplitud.ttf
3383.612	n/a	REC_START	1691806	n/a	LTP210	ltpFR	16	15	n/a	n/a	n/a	n/a	n/a	n/a	n/a	n/a	n/a	n/a
3384.308	n/a	REC_WORD	1692154	wordpools/wasnorm_wordpool_less_exclusions.txt	LTP210	ltpFR	16	15	0	QUARTER	1148	n/a	0	n/a	n/a	n/a	n/a	n/a
3385.382	n/a	REC_WORD	1692691	wordpools/wasnorm_wordpool_less_exclusions.txt	LTP210	ltpFR	16	15	0	STUDENT	1395	n/a	1	n/a	n/a	n/a	n/a	n/a
3389.488	n/a	REC_WORD	1694744	wordpools/wasnorm_wordpool_less_exclusions.txt	LTP210	ltpFR	16	15	0	FELLOW	558	n/a	1	n/a	n/a	n/a	n/a	n/a
3390.954	n/a	REC_WORD	1695477	wordpools/wasnorm_wordpool_less_exclusions.txt	LTP210	ltpFR	16	15	0	GRADUATE	653	n/a	1	n/a	n/a	n/a	n/a	n/a
3394.866	n/a	REC_WORD	1697433	wordpools/wasnorm_wordpool_less_exclusions.txt	LTP210	ltpFR	16	15	0	SKETCH	1315	n/a	0	n/a	n/a	n/a	n/a	n/a
3396.492	n/a	REC_WORD	1698246	wordpools/wasnorm_wordpool_less_exclusions.txt	LTP210	ltpFR	16	15	0	LOG	841	n/a	1	n/a	n/a	n/a	n/a	n/a
3409.068	n/a	REC_WORD	1704534	wordpools/wasnorm_wordpool_less_exclusions.txt	LTP210	ltpFR	16	15	0	PAWN	1030	n/a	0	n/a	n/a	n/a	n/a	n/a
3413.76	n/a	REC_WORD	1706880	wordpools/wasnorm_wordpool_less_exclusions.txt	LTP210	ltpFR	16	15	0	DRUM	502	n/a	1	n/a	n/a	n/a	n/a	n/a
3485.576	n/a	WORD	1742788	wordpools/wasnorm_wordpool_less_exclusions.txt	LTP210	ltpFR	16	16	0	COUSIN	392	n/a	1	0	0.5869140625	0.422607421875	upper	../fonts/amplitud.ttf
3489.67	n/a	WORD	1744835	wordpools/wasnorm_wordpool_less_exclusions.txt	LTP210	ltpFR	16	16	0	LOAF	835	n/a	0	0	0.5869140625	0.422607421875	upper	../fonts/amplitud.ttf
3493.514	n/a	WORD	1746757	wordpools/wasnorm_wordpool_less_exclusions.txt	LTP210	ltpFR	16	16	0	JAR	750	n/a	0	0	0.5869140625	0.422607421875	upper	../fonts/amplitud.ttf
3497.658	n/a	WORD	1748829	wordpools/wasnorm_wordpool_less_exclusions.txt	LTP210	ltpFR	16	16	0	TICK	1463	n/a	0	0	0.5869140625	0.422607421875	upper	../fonts/amplitud.ttf
3501.784	n/a	WORD	1750892	wordpools/wasnorm_wordpool_less_exclusions.txt	LTP210	ltpFR	16	16	0	FAMILY	550	n/a	1	0	0.5869140625	0.422607421875	upper	../fonts/amplitud.ttf
3505.696	n/a	WORD	1752848	wordpools/wasnorm_wordpool_less_exclusions.txt	LTP210	ltpFR	16	16	1	JELLY	755	n/a	0	1	0.412841796875	0.57763671875	lower	../fonts/zerothre.ttf
3509.724	n/a	WORD	1754862	wordpools/wasnorm_wordpool_less_exclusions.txt	LTP210	ltpFR	16	16	1	SINK	1309	n/a	0	1	0.412841796875	0.57763671875	lower	../fonts/zerothre.ttf
3513.784	n/a	WORD	1756892	wordpools/wasnorm_wordpool_less_exclusions.txt	LTP210	ltpFR	16	16	1	SAILOR	1223	n/a	1	1	0.412841796875	0.57763671875	lower	../fonts/zerothre.ttf
3517.812	n/a	WORD	1758906	wordpools/wasnorm_wordpool_less_exclusions.txt	LTP210	ltpFR	16	16	0	BEDROOM	111	n/a	1	0	0.5869140625	0.422607421875	upper	../fonts/amplitud.ttf
3521.772	n/a	WORD	1760886	wordpools/wasnorm_wordpool_less_exclusions.txt	LTP210	ltpFR	16	16	0	BUGLE	189	n/a	1	0	0.5869140625	0.422607421875	upper	../fonts/amplitud.ttf
3525.9	n/a	WORD	1762950	wordpools/wasnorm_wordpool_less_exclusions.txt	LTP210	ltpFR	16	16	0	TRUMPET	1513	n/a	1	0	0.5869140625	0.422607421875	upper	../fonts/amplitud.ttf
3530.092	n/a	WORD	1765046	wordpools/wasnorm_wordpool_less_exclusions.txt	LTP210	ltpFR	16	16	1	CONCERT	360	n/a	0	1	0.412841796875	0.57763671875	lower	../fonts/zerothre.ttf
3534.186	n/a	WORD	1767093	wordpools/wasnorm_wordpool_less_exclusions.txt	LTP210	ltpFR	16	16	1	SHORE	1291	n/a	0	1	0.412841796875	0.57763671875	lower	../fonts/zerothre.ttf
3538.314	n/a	WORD	1769157	wordpools/wasnorm_wordpool_less_exclusions.txt	LTP210	ltpFR	16	16	1	COLLAR	345	n/a	0	1	0.412841796875	0.57763671875	lower	../fonts/zerothre.ttf
3542.292	n/a	WORD	1771146	wordpools/wasnorm_wordpool_less_exclusions.txt	LTP210	ltpFR	16	16	1	DEPUTY	450	n/a	1	1	0.412841796875	0.57763671875	lower	../fonts/zerothre.ttf
3546.136	n/a	WORD	1773068	wordpools/wasnorm_wordpool_less_exclusions.txt	LTP210	ltpFR	16	16	1	COP	376	n/a	1	1	0.412841796875	0.57763671875	lower	../fonts/zerothre.ttf
3551.994	n/a	REC_START	1775997	n/a	LTP210	ltpFR	16	16	n/a	n/a	n/a	n/a	n/a	n/a	n/a	n/a	n/a	n/a
3552.882	n/a	REC_WORD	1776441	wordpools/wasnorm_wordpool_less_exclusions.txt	LTP210	ltpFR	16	16	1	DEPUTY	450	n/a	1	n/a	n/a	n/a	n/a	n/a
3554.418	n/a	REC_WORD	1777209	wordpools/wasnorm_wordpool_less_exclusions.txt	LTP210	ltpFR	16	16	1	COP	376	n/a	1	n/a	n/a	n/a	n/a	n/a
3557.49	n/a	REC_WORD	1778745	wordpools/wasnorm_wordpool_less_exclusions.txt	LTP210	ltpFR	16	16	1	JELLY	755	n/a	0	n/a	n/a	n/a	n/a	n/a
3562.394	n/a	REC_WORD	1781197	wordpools/wasnorm_wordpool_less_exclusions.txt	LTP210	ltpFR	16	16	0	TRUMPET	1513	n/a	1	n/a	n/a	n/a	n/a	n/a
3563.736	n/a	REC_WORD	1781868	wordpools/wasnorm_wordpool_less_exclusions.txt	LTP210	ltpFR	16	16	0	BUGLE	189	n/a	1	n/a	n/a	n/a	n/a	n/a
3577.11	n/a	REC_WORD	1788555	wordpools/wasnorm_wordpool_less_exclusions.txt	LTP210	ltpFR	16	16	0	FUR	615	n/a	0	n/a	n/a	n/a	n/a	n/a
3578.38	n/a	REC_WORD	1789190	wordpools/wasnorm_wordpool_less_exclusions.txt	LTP210	ltpFR	16	16	0	MINK	897	n/a	0	n/a	n/a	n/a	n/a	n/a
3659.868	n/a	REC_START	1829934	n/a	LTP210	ltpFR	16	n/a	n/a	n/a	n/a	n/a	n/a	n/a	n/a	n/a	n/a	n/a
3660.662	n/a	FFR_REC_WORD	1830331	wordpools/wasnorm_wordpool_less_exclusions.txt	LTP210	ltpFR	16	n/a	1	OCEAN	970	n/a	0	n/a	n/a	n/a	n/a	n/a
3661.704	n/a	FFR_REC_WORD	1830852	wordpools/wasnorm_wordpool_less_exclusions.txt	LTP210	ltpFR	16	n/a	n/a	MOLECULE	905	n/a	n/a	n/a	n/a	n/a	n/a	n/a
3663.052	n/a	FFR_REC_WORD	1831526	wordpools/wasnorm_wordpool_less_exclusions.txt	LTP210	ltpFR	16	n/a	n/a	ATOM	55	n/a	n/a	n/a	n/a	n/a	n/a	n/a
3664.492	n/a	FFR_REC_WORD	1832246	wordpools/wasnorm_wordpool_less_exclusions.txt	LTP210	ltpFR	16	n/a	1	NUCLEUS	961	n/a	0	n/a	n/a	n/a	n/a	n/a
3665.884	n/a	FFR_REC_WORD	1832942	wordpools/wasnorm_wordpool_less_exclusions.txt	LTP210	ltpFR	16	n/a	1	GALAXY	617	n/a	0	n/a	n/a	n/a	n/a	n/a
3667.166	n/a	FFR_REC_WORD	1833583	wordpools/wasnorm_wordpool_less_exclusions.txt	LTP210	ltpFR	16	n/a	-1	UNIVERSE	1540	n/a	-1	n/a	n/a	n/a	n/a	n/a
3670.294	n/a	FFR_REC_WORD	1835147	wordpools/wasnorm_wordpool_less_exclusions.txt	LTP210	ltpFR	16	n/a	0	DAUGHTER	442	n/a	1	n/a	n/a	n/a	n/a	n/a
3671.328	n/a	FFR_REC_WORD	1835664	wordpools/wasnorm_wordpool_less_exclusions.txt	LTP210	ltpFR	16	n/a	0	PARENT	1013	n/a	1	n/a	n/a	n/a	n/a	n/a
3672.334	n/a	FFR_REC_WORD	1836167	wordpools/wasnorm_wordpool_less_exclusions.txt	LTP210	ltpFR	16	n/a	0	GUARDIAN	668	n/a	1	n/a	n/a	n/a	n/a	n/a
3673.412	n/a	FFR_REC_WORD	1836706	wordpools/wasnorm_wordpool_less_exclusions.txt	LTP210	ltpFR	16	n/a	1	PRIEST	1122	n/a	1	n/a	n/a	n/a	n/a	n/a
3674.416	n/a	FFR_REC_WORD	1837208	wordpools/wasnorm_wordpool_less_exclusions.txt	LTP210	ltpFR	16	n/a	0	PREACHER	1119	n/a	1	n/a	n/a	n/a	n/a	n/a
3675.512	n/a	FFR_REC_WORD	1837756	wordpools/wasnorm_wordpool_less_exclusions.txt	LTP210	ltpFR	16	n/a	0	POPE	1105	n/a	1	n/a	n/a	n/a	n/a	n/a
3676.56	n/a	FFR_REC_WORD	1838280	wordpools/wasnorm_wordpool_less_exclusions.txt	LTP210	ltpFR	16	n/a	1	FOLLOWER	589	n/a	1	n/a	n/a	n/a	n/a	n/a
3677.662	n/a	FFR_REC_WORD	1838831	wordpools/wasnorm_wordpool_less_exclusions.txt	LTP210	ltpFR	16	n/a	0	FELLOW	558	n/a	1	n/a	n/a	n/a	n/a	n/a
3678.886	n/a	FFR_REC_WORD	1839443	wordpools/wasnorm_wordpool_less_exclusions.txt	LTP210	ltpFR	16	n/a	0	GRADUATE	653	n/a	1	n/a	n/a	n/a	n/a	n/a
3679.858	n/a	FFR_REC_WORD	1839929	wordpools/wasnorm_wordpool_less_exclusions.txt	LTP210	ltpFR	16	n/a	0	STUDENT	1395	n/a	1	n/a	n/a	n/a	n/a	n/a
3682.582	n/a	FFR_REC_WORD	1841291	wordpools/wasnorm_wordpool_less_exclusions.txt	LTP210	ltpFR	16	n/a	1	COP	376	n/a	1	n/a	n/a	n/a	n/a	n/a
3683.594	n/a	FFR_REC_WORD	1841797	wordpools/wasnorm_wordpool_less_exclusions.txt	LTP210	ltpFR	16	n/a	1	DEPUTY	450	n/a	1	n/a	n/a	n/a	n/a	n/a
3684.766	n/a	FFR_REC_WORD	1842383	wordpools/wasnorm_wordpool_less_exclusions.txt	LTP210	ltpFR	16	n/a	-1	AGENT	10	n/a	-1	n/a	n/a	n/a	n/a	n/a
3685.73	n/a	FFR_REC_WORD	1842865	wordpools/wasnorm_wordpool_less_exclusions.txt	LTP210	ltpFR	16	n/a	-1	BUREAU	199	n/a	-1	n/a	n/a	n/a	n/a	n/a
3687.858	n/a	FFR_REC_WORD	1843929	wordpools/wasnorm_wordpool_less_exclusions.txt	LTP210	ltpFR	16	n/a	0	BUGLE	189	n/a	1	n/a	n/a	n/a	n/a	n/a
3688.912	n/a	FFR_REC_WORD	1844456	wordpools/wasnorm_wordpool_less_exclusions.txt	LTP210	ltpFR	16	n/a	0	TRUMPET	1513	n/a	1	n/a	n/a	n/a	n/a	n/a
3689.88	n/a	FFR_REC_WORD	1844940	wordpools/wasnorm_wordpool_less_exclusions.txt	LTP210	ltpFR	16	n/a	1	TROMBONE	1508	n/a	0	n/a	n/a	n/a	n/a	n/a
3691.108	n/a	FFR_REC_WORD	1845554	wordpools/wasnorm_wordpool_less_exclusions.txt	LTP210	ltpFR	16	n/a	1	CLARINET	317	n/a	0	n/a	n/a	n/a	n/a	n/a
3692.674	n/a	FFR_REC_WORD	1846337	wordpools/wasnorm_wordpool_less_exclusions.txt	LTP210	ltpFR	16	n/a	1	SEAGULL	1261	n/a	1	n/a	n/a	n/a	n/a	n/a
3693.816	n/a	FFR_REC_WORD	1846908	wordpools/wasnorm_wordpool_less_exclusions.txt	LTP210	ltpFR	16	n/a	1	BIRD	129	n/a	1	n/a	n/a	n/a	n/a	n/a
3694.744	n/a	FFR_REC_WORD	1847372	wordpools/wasnorm_wordpool_less_exclusions.txt	LTP210	ltpFR	16	n/a	1	CROW	414	n/a	1	n/a	n/a	n/a	n/a	n/a
3695.866	n/a	FFR_REC_WORD	1847933	wordpools/wasnorm_wordpool_less_exclusions.txt	LTP210	ltpFR	16	n/a	0	CARDINAL	244	n/a	0	n/a	n/a	n/a	n/a	n/a
3697.508	n/a	FFR_REC_WORD	1848754	wordpools/wasnorm_wordpool_less_exclusions.txt	LTP210	ltpFR	16	n/a	1	CLAM	315	n/a	1	n/a	n/a	n/a	n/a	n/a
3698.85	n/a	FFR_REC_WORD	1849425	wordpools/wasnorm_wordpool_less_exclusions.txt	LTP210	ltpFR	16	n/a	0	FISH	571	n/a	0	n/a	n/a	n/a	n/a	n/a
3700.182	n/a	FFR_REC_WORD	1850091	wordpools/wasnorm_wordpool_less_exclusions.txt	LTP210	ltpFR	16	n/a	1	COD	340	n/a	1	n/a	n/a	n/a	n/a	n/a
3703.24	n/a	FFR_REC_WORD	1851620	wordpools/wasnorm_wordpool_less_exclusions.txt	LTP210	ltpFR	16	n/a	1	PLUMBER	1091	n/a	1	n/a	n/a	n/a	n/a	n/a
3704.718	n/a	FFR_REC_WORD	1852359	wordpools/wasnorm_wordpool_less_exclusions.txt	LTP210	ltpFR	16	n/a	0	ARCHITECT	36	n/a	1	n/a	n/a	n/a	n/a	n/a
3706.094	n/a	FFR_REC_WORD	1853047	wordpools/wasnorm_wordpool_less_exclusions.txt	LTP210	ltpFR	16	n/a	0	CARPENTER	246	n/a	1	n/a	n/a	n/a	n/a	n/a
3708.354	n/a	FFR_REC_WORD	1854177	wordpools/wasnorm_wordpool_less_exclusions.txt	LTP210	ltpFR	16	n/a	0	LOG	841	n/a	1	n/a	n/a	n/a	n/a	n/a
3710.884	n/a	FFR_REC_WORD	1855442	wordpools/wasnorm_wordpool_less_exclusions.txt	LTP210	ltpFR	16	n/a	0	COLUMN	350	n/a	1	n/a	n/a	n/a	n/a	n/a
3712.524	n/a	FFR_REC_WORD	1856262	wordpools/wasnorm_wordpool_less_exclusions.txt	LTP210	ltpFR	16	n/a	0	LUMBER	848	n/a	1	n/a	n/a	n/a	n/a	n/a
3717.624	n/a	FFR_REC_WORD	1858812	wordpools/wasnorm_wordpool_less_exclusions.txt	LTP210	ltpFR	16	n/a	1	JELLY	755	n/a	0	n/a	n/a	n/a	n/a	n/a
3719.428	n/a	FFR_REC_WORD	1859714	wordpools/wasnorm_wordpool_less_exclusions.txt	LTP210	ltpFR	16	n/a	0	FUR	615	n/a	0	n/a	n/a	n/a	n/a	n/a
3720.626	n/a	FFR_REC_WORD	1860313	wordpools/wasnorm_wordpool_less_exclusions.txt	LTP210	ltpFR	16	n/a	0	MINK	897	n/a	0	n/a	n/a	n/a	n/a	n/a
3722.048	n/a	FFR_REC_WORD	1861024	wordpools/wasnorm_wordpool_less_exclusions.txt	LTP210	ltpFR	16	n/a	1	SQUIRREL	1362	n/a	1	n/a	n/a	n/a	n/a	n/a
3724.158	n/a	FFR_REC_WORD	1862079	wordpools/wasnorm_wordpool_less_exclusions.txt	LTP210	ltpFR	16	n/a	1	WALRUS	1585	n/a	1	n/a	n/a	n/a	n/a	n/a
3726.458	n/a	FFR_REC_WORD	1863229	wordpools/wasnorm_wordpool_less_exclusions.txt	LTP210	ltpFR	16	n/a	1	PEACH	1031	n/a	1	n/a	n/a	n/a	n/a	n/a
3727.67	n/a	FFR_REC_WORD	1863835	wordpools/wasnorm_wordpool_less_exclusions.txt	LTP210	ltpFR	16	n/a	1	PIE	1062	n/a	0	n/a	n/a	n/a	n/a	n/a
3737.482	n/a	FFR_REC_WORD	1868741	wordpools/wasnorm_wordpool_less_exclusions.txt	LTP210	ltpFR	16	n/a	0	SHINGLE	1285	n/a	0	n/a	n/a	n/a	n/a	n/a
3740.336	n/a	FFR_REC_WORD	1870168	wordpools/wasnorm_wordpool_less_exclusions.txt	LTP210	ltpFR	16	n/a	0	NECK	939	n/a	0	n/a	n/a	n/a	n/a	n/a
3743.414	n/a	FFR_REC_WORD	1871707	wordpools/wasnorm_wordpool_less_exclusions.txt	LTP210	ltpFR	16	n/a	1	LASH	802	n/a	0	n/a	n/a	n/a	n/a	n/a
3748.056	n/a	FFR_REC_WORD	1874028	wordpools/wasnorm_wordpool_less_exclusions.txt	LTP210	ltpFR	16	n/a	1	GREASE	660	n/a	0	n/a	n/a	n/a	n/a	n/a
3749.386	n/a	FFR_REC_WORD	1874693	wordpools/wasnorm_wordpool_less_exclusions.txt	LTP210	ltpFR	16	n/a	1	WATER	1594	n/a	0	n/a	n/a	n/a	n/a	n/a
3754.07	n/a	FFR_REC_WORD	1877035	wordpools/wasnorm_wordpool_less_exclusions.txt	LTP210	ltpFR	16	n/a	-1	COOKBOOK	373	n/a	-1	n/a	n/a	n/a	n/a	n/a
3755.282	n/a	FFR_REC_WORD	1877641	wordpools/wasnorm_wordpool_less_exclusions.txt	LTP210	ltpFR	16	n/a	-1	GRILL	661	n/a	-1	n/a	n/a	n/a	n/a	n/a
3761.258	n/a	FFR_REC_WORD	1880629	wordpools/wasnorm_wordpool_less_exclusions.txt	LTP210	ltpFR	16	n/a	0	BELL	118	n/a	0	n/a	n/a	n/a	n/a	n/a
3765.888	n/a	FFR_REC_WORD	1882944	wordpools/wasnorm_wordpool_less_exclusions.txt	LTP210	ltpFR	16	n/a	0	PLUTO	1092	n/a	1	n/a	n/a	n/a	n/a	n/a
3774.434	n/a	FFR_REC_WORD	1887217	wordpools/wasnorm_wordpool_less_exclusions.txt	LTP210	ltpFR	16	n/a	-1	LIMOUSINE	824	n/a	-1	n/a	n/a	n/a	n/a	n/a
3776.152	n/a	FFR_REC_WORD	1888076	wordpools/wasnorm_wordpool_less_exclusions.txt	LTP210	ltpFR	16	n/a	-1	VAN	1548	n/a	-1	n/a	n/a	n/a	n/a	n/a
3777.204	n/a	FFR_REC_WORD	1888602	wordpools/wasnorm_wordpool_less_exclusions.txt	LTP210	ltpFR	16	n/a	-1	VACUUM	1543	n/a	-1	n/a	n/a	n/a	n/a	n/a
3780.482	n/a	FFR_REC_WORD	1890241	wordpools/wasnorm_wordpool_less_exclusions.txt	LTP210	ltpFR	16	n/a	0	MICROSCOPE	891	n/a	1	n/a	n/a	n/a	n/a	n/a
3784.278	n/a	FFR_REC_WORD	1892139	wordpools/wasnorm_wordpool_less_exclusions.txt	LTP210	ltpFR	16	n/a	0	SHOE	1288	n/a	0	n/a	n/a	n/a	n/a	n/a
3785.61	n/a	FFR_REC_WORD	1892805	wordpools/wasnorm_wordpool_less_exclusions.txt	LTP210	ltpFR	16	n/a	0	BOX	159	n/a	0	n/a	n/a	n/a	n/a	n/a
3789.002	n/a	FFR_REC_WORD	1894501	wordpools/wasnorm_wordpool_less_exclusions.txt	LTP210	ltpFR	16	n/a	1	DIRECTOR	471	n/a	1	n/a	n/a	n/a	n/a	n/a
3792.264	n/a	FFR_REC_WORD	1896132	wordpools/wasnorm_wordpool_less_exclusions.txt	LTP210	ltpFR	16	n/a	n/a	EDITORIAL	517	n/a	n/a	n/a	n/a	n/a	n/a	n/a
3795.722	n/a	FFR_REC_WORD	1897861	wordpools/wasnorm_wordpool_less_exclusions.txt	LTP210	ltpFR	16	n/a	-1	PAPER	1011	n/a	-1	n/a	n/a	n/a	n/a	n/a
3802.132	n/a	FFR_REC_WORD	1901066	wordpools/wasnorm_wordpool_less_exclusions.txt	LTP210	ltpFR	16	n/a	1	KEYBOARD	774	n/a	0	n/a	n/a	n/a	n/a	n/a
3807.266	n/a	FFR_REC_WORD	1903633	wordpools/wasnorm_wordpool_less_exclusions.txt	LTP210	ltpFR	16	n/a	-1	FOX	598	n/a	-1	n/a	n/a	n/a	n/a	n/a
3826.278	n/a	FFR_REC_WORD	1913139	wordpools/wasnorm_wordpool_less_exclusions.txt	LTP210	ltpFR	16	n/a	-1	SANDWICH	1232	n/a	-1	n/a	n/a	n/a	n/a	n/a
3827.784	n/a	FFR_REC_WORD	1913892	wordpools/wasnorm_wordpool_less_exclusions.txt	LTP210	ltpFR	16	n/a	1	WAITER	1580	n/a	1	n/a	n/a	n/a	n/a	n/a
3828.932	n/a	FFR_REC_WORD	1914466	wordpools/wasnorm_wordpool_less_exclusions.txt	LTP210	ltpFR	16	n/a	1	SERVANT	1271	n/a	1	n/a	n/a	n/a	n/a	n/a
3830.418	n/a	FFR_REC_WORD	1915209	wordpools/wasnorm_wordpool_less_exclusions.txt	LTP210	ltpFR	16	n/a	1	DINER	467	n/a	0	n/a	n/a	n/a	n/a	n/a
3831.456	n/a	FFR_REC_WORD	1915728	wordpools/wasnorm_wordpool_less_exclusions.txt	LTP210	ltpFR	16	n/a	0	RESTAURANT	1187	n/a	1	n/a	n/a	n/a	n/a	n/a
3841.668	n/a	FFR_REC_WORD	1920834	wordpools/wasnorm_wordpool_less_exclusions.txt	LTP210	ltpFR	16	n/a	0	CHAIRPERSON	275	n/a	1	n/a	n/a	n/a	n/a	n/a
3847.784	n/a	FFR_REC_WORD	1923892	wordpools/wasnorm_wordpool_less_exclusions.txt	LTP210	ltpFR	16	n/a	n/a	YARD	1630	n/a	n/a	n/a	n/a	n/a	n/a	n/a
3848.776	n/a	FFR_REC_WORD	1924388	wordpools/wasnorm_wordpool_less_exclusions.txt	LTP210	ltpFR	16	n/a	1	GRASS	655	n/a	1	n/a	n/a	n/a	n/a	n/a
3850.04	n/a	FFR_REC_WORD	1925020	wordpools/wasnorm_wordpool_less_exclusions.txt	LTP210	ltpFR	16	n/a	1	TURNIP	1521	n/a	1	n/a	n/a	n/a	n/a	n/a
3881.214	n/a	FFR_REC_WORD	1940607	wordpools/wasnorm_wordpool_less_exclusions.txt	LTP210	ltpFR	16	n/a	1	CUB	419	n/a	1	n/a	n/a	n/a	n/a	n/a
3882.156	n/a	FFR_REC_WORD	1941078	wordpools/wasnorm_wordpool_less_exclusions.txt	LTP210	ltpFR	16	n/a	1	CHILD	299	n/a	1	n/a	n/a	n/a	n/a	n/a
3899.132	n/a	FFR_REC_WORD	1949566	wordpools/wasnorm_wordpool_less_exclusions.txt	LTP210	ltpFR	16	n/a	0	SMOG	1330	n/a	0	n/a	n/a	n/a	n/a	n/a
3904.946	n/a	FFR_REC_WORD	1952473	wordpools/wasnorm_wordpool_less_exclusions.txt	LTP210	ltpFR	16	n/a	0	HOSE	720	n/a	0	n/a	n/a	n/a	n/a	n/a
3905.838	n/a	FFR_REC_WORD	1952919	wordpools/wasnorm_wordpool_less_exclusions.txt	LTP210	ltpFR	16	n/a	0	FIREMAN	569	n/a	1	n/a	n/a	n/a	n/a	n/a
3906.786	n/a	FFR_REC_WORD	1953393	wordpools/wasnorm_wordpool_less_exclusions.txt	LTP210	ltpFR	16	n/a	1	COWBOY	395	n/a	1	n/a	n/a	n/a	n/a	n/a
3952.936	n/a	FFR_REC_WORD	1976468	wordpools/wasnorm_wordpool_less_exclusions.txt	LTP210	ltpFR	16	n/a	1	CRICKET	408	n/a	1	n/a	n/a	n/a	n/a	n/a
4028.106	n/a	REC_START	2014053	n/a	LTP210	ltpFR	16	1	n/a	n/a	n/a	n/a	n/a	n/a	n/a	n/a	n/a	n/a
4028.14	n/a	RECOG_LURE	2014070	n/a	LTP210	ltpFR	16	1	n/a	POLITICIAN	1099	2	n/a	n/a	n/a	n/a	n/a	n/a
4029.748	n/a	RECOG_RESP	2014874	n/a	LTP210	ltpFR	16	1	n/a	POLITICIAN	1099	n/a	n/a	n/a	n/a	n/a	n/a	n/a
4030.964	n/a	RECOG_CONF	2015482	n/a	LTP210	ltpFR	16	1	n/a	POLITICIAN	1099	2	n/a	n/a	n/a	n/a	n/a	n/a
4032.684	n/a	RECOG_TARGET	2016342	n/a	LTP210	ltpFR	16	1	1	ROOST	1208	5	0	n/a	n/a	n/a	n/a	n/a
4033.372	n/a	RECOG_RESP	2016686	n/a	LTP210	ltpFR	16	1	1	ROOST	1208	n/a	0	n/a	n/a	n/a	n/a	n/a
4034.378	n/a	RECOG_CONF	2017189	n/a	LTP210	ltpFR	16	1	1	ROOST	1208	5	0	n/a	n/a	n/a	n/a	n/a
4036.144	n/a	RECOG_TARGET	2018072	n/a	LTP210	ltpFR	16	1	0	DRUM	502	5	1	n/a	n/a	n/a	n/a	n/a
4036.682	n/a	RECOG_RESP	2018341	n/a	LTP210	ltpFR	16	1	0	DRUM	502	n/a	1	n/a	n/a	n/a	n/a	n/a
4037.57	n/a	RECOG_CONF	2018785	n/a	LTP210	ltpFR	16	1	0	DRUM	502	5	1	n/a	n/a	n/a	n/a	n/a
4039.424	n/a	RECOG_TARGET	2019712	n/a	LTP210	ltpFR	16	1	1	WAIST	1579	5	0	n/a	n/a	n/a	n/a	n/a
4039.97	n/a	RECOG_RESP	2019985	n/a	LTP210	ltpFR	16	1	1	WAIST	1579	n/a	0	n/a	n/a	n/a	n/a	n/a
4040.884	n/a	RECOG_CONF	2020442	n/a	LTP210	ltpFR	16	1	1	WAIST	1579	5	0	n/a	n/a	n/a	n/a	n/a
4042.62	n/a	RECOG_TARGET	2021310	n/a	LTP210	ltpFR	16	1	0	PLUTO	1092	5	1	n/a	n/a	n/a	n/a	n/a
4043.206	n/a	RECOG_RESP	2021603	n/a	LTP210	ltpFR	16	1	0	PLUTO	1092	n/a	1	n/a	n/a	n/a	n/a	n/a
4044.066	n/a	RECOG_CONF	2022033	n/a	LTP210	ltpFR	16	1	0	PLUTO	1092	5	1	n/a	n/a	n/a	n/a	n/a
4045.698	n/a	RECOG_TARGET	2022849	n/a	LTP210	ltpFR	16	1	1	TANGERINE	1431	3	1	n/a	n/a	n/a	n/a	n/a
4048.636	n/a	RECOG_RESP	2024318	n/a	LTP210	ltpFR	16	1	1	TANGERINE	1431	n/a	1	n/a	n/a	n/a	n/a	n/a
4049.65	n/a	RECOG_CONF	2024825	n/a	LTP210	ltpFR	16	1	1	TANGERINE	1431	3	1	n/a	n/a	n/a	n/a	n/a
4051.388	n/a	RECOG_TARGET	2025694	n/a	LTP210	ltpFR	16	1	1	CHOCOLATE	306	5	0	n/a	n/a	n/a	n/a	n/a
4052.14	n/a	RECOG_RESP	2026070	n/a	LTP210	ltpFR	16	1	1	CHOCOLATE	306	n/a	0	n/a	n/a	n/a	n/a	n/a
4052.996	n/a	RECOG_CONF	2026498	n/a	LTP210	ltpFR	16	1	1	CHOCOLATE	306	5	0	n/a	n/a	n/a	n/a	n/a
4054.602	n/a	RECOG_TARGET	2027301	n/a	LTP210	ltpFR	16	1	-1	KETTLE	772	5	-1	n/a	n/a	n/a	n/a	n/a
4055.57	n/a	RECOG_RESP	2027785	n/a	LTP210	ltpFR	16	1	-1	KETTLE	772	n/a	-1	n/a	n/a	n/a	n/a	n/a
4056.328	n/a	RECOG_CONF	2028164	n/a	LTP210	ltpFR	16	1	-1	KETTLE	772	5	-1	n/a	n/a	n/a	n/a	n/a
4058.246	n/a	RECOG_LURE	2029123	n/a	LTP210	ltpFR	16	1	n/a	GUITAR	670	4	n/a	n/a	n/a	n/a	n/a	n/a
4059.102	n/a	RECOG_RESP	2029551	n/a	LTP210	ltpFR	16	1	n/a	GUITAR	670	n/a	n/a	n/a	n/a	n/a	n/a	n/a
4059.98	n/a	RECOG_CONF	2029990	n/a	LTP210	ltpFR	16	1	n/a	GUITAR	670	4	n/a	n/a	n/a	n/a	n/a	n/a
4061.674	n/a	RECOG_TARGET	2030837	n/a	LTP210	ltpFR	16	1	1	DEPUTY	450	5	1	n/a	n/a	n/a	n/a	n/a
4062.476	n/a	RECOG_RESP	2031238	n/a	LTP210	ltpFR	16	1	1	DEPUTY	450	n/a	1	n/a	n/a	n/a	n/a	n/a
4063.19	n/a	RECOG_CONF	2031595	n/a	LTP210	ltpFR	16	1	1	DEPUTY	450	5	1	n/a	n/a	n/a	n/a	n/a
4065.002	n/a	RECOG_LURE	2032501	n/a	LTP210	ltpFR	16	1	n/a	PEDESTRIAN	1038	2	n/a	n/a	n/a	n/a	n/a	n/a
4066.052	n/a	RECOG_RESP	2033026	n/a	LTP210	ltpFR	16	1	n/a	PEDESTRIAN	1038	n/a	n/a	n/a	n/a	n/a	n/a	n/a
4066.926	n/a	RECOG_CONF	2033463	n/a	LTP210	ltpFR	16	1	n/a	PEDESTRIAN	1038	2	n/a	n/a	n/a	n/a	n/a	n/a
4068.598	n/a	RECOG_TARGET	2034299	n/a	LTP210	ltpFR	16	1	0	ENEMY	534	5	1	n/a	n/a	n/a	n/a	n/a
4069.322	n/a	RECOG_RESP	2034661	n/a	LTP210	ltpFR	16	1	0	ENEMY	534	n/a	1	n/a	n/a	n/a	n/a	n/a
4070.156	n/a	RECOG_CONF	2035078	n/a	LTP210	ltpFR	16	1	0	ENEMY	534	5	1	n/a	n/a	n/a	n/a	n/a
4071.924	n/a	RECOG_TARGET	2035962	n/a	LTP210	ltpFR	16	1	0	SQUID	1361	5	0	n/a	n/a	n/a	n/a	n/a
4072.818	n/a	RECOG_RESP	2036409	n/a	LTP210	ltpFR	16	1	0	SQUID	1361	n/a	0	n/a	n/a	n/a	n/a	n/a
4073.698	n/a	RECOG_CONF	2036849	n/a	LTP210	ltpFR	16	1	0	SQUID	1361	5	0	n/a	n/a	n/a	n/a	n/a
4075.32	n/a	RECOG_LURE	2037660	n/a	LTP210	ltpFR	16	1	n/a	PIER	1063	3	n/a	n/a	n/a	n/a	n/a	n/a
4076.094	n/a	RECOG_RESP	2038047	n/a	LTP210	ltpFR	16	1	n/a	PIER	1063	n/a	n/a	n/a	n/a	n/a	n/a	n/a
4076.956	n/a	RECOG_CONF	2038478	n/a	LTP210	ltpFR	16	1	n/a	PIER	1063	3	n/a	n/a	n/a	n/a	n/a	n/a
4078.582	n/a	RECOG_LURE	2039291	n/a	LTP210	ltpFR	16	1	n/a	FOLDER	588	3	n/a	n/a	n/a	n/a	n/a	n/a
4079.332	n/a	RECOG_RESP	2039666	n/a	LTP210	ltpFR	16	1	n/a	FOLDER	588	n/a	n/a	n/a	n/a	n/a	n/a	n/a
4080.226	n/a	RECOG_CONF	2040113	n/a	LTP210	ltpFR	16	1	n/a	FOLDER	588	3	n/a	n/a	n/a	n/a	n/a	n/a
4081.876	n/a	RECOG_LURE	2040938	n/a	LTP210	ltpFR	16	1	n/a	PEBBLE	1035	2	n/a	n/a	n/a	n/a	n/a	n/a
4082.68	n/a	RECOG_RESP	2041340	n/a	LTP210	ltpFR	16	1	n/a	PEBBLE	1035	n/a	n/a	n/a	n/a	n/a	n/a	n/a
4083.548	n/a	RECOG_CONF	2041774	n/a	LTP210	ltpFR	16	1	n/a	PEBBLE	1035	2	n/a	n/a	n/a	n/a	n/a	n/a
4085.172	n/a	RECOG_LURE	2042586	n/a	LTP210	ltpFR	16	1	n/a	BALLOON	75	5	n/a	n/a	n/a	n/a	n/a	n/a
4085.97	n/a	RECOG_RESP	2042985	n/a	LTP210	ltpFR	16	1	n/a	BALLOON	75	n/a	n/a	n/a	n/a	n/a	n/a	n/a
4086.868	n/a	RECOG_CONF	2043434	n/a	LTP210	ltpFR	16	1	n/a	BALLOON	75	5	n/a	n/a	n/a	n/a	n/a	n/a
4088.65	n/a	RECOG_TARGET	2044325	n/a	LTP210	ltpFR	16	1	-1	SALAD	1224	5	-1	n/a	n/a	n/a	n/a	n/a
4089.228	n/a	RECOG_RESP	2044614	n/a	LTP210	ltpFR	16	1	-1	SALAD	1224	n/a	-1	n/a	n/a	n/a	n/a	n/a
4089.99	n/a	RECOG_CONF	2044995	n/a	LTP210	ltpFR	16	1	-1	SALAD	1224	5	-1	n/a	n/a	n/a	n/a	n/a
4091.846	n/a	RECOG_TARGET	2045923	n/a	LTP210	ltpFR	16	1	-1	ATMOSPHERE	54	5	-1	n/a	n/a	n/a	n/a	n/a
4092.418	n/a	RECOG_RESP	2046209	n/a	LTP210	ltpFR	16	1	-1	ATMOSPHERE	54	n/a	-1	n/a	n/a	n/a	n/a	n/a
4093.244	n/a	RECOG_CONF	2046622	n/a	LTP210	ltpFR	16	1	-1	ATMOSPHERE	54	5	-1	n/a	n/a	n/a	n/a	n/a
4094.99	n/a	RECOG_LURE	2047495	n/a	LTP210	ltpFR	16	1	n/a	POET	1095	3	n/a	n/a	n/a	n/a	n/a	n/a
4095.63	n/a	RECOG_RESP	2047815	n/a	LTP210	ltpFR	16	1	n/a	POET	1095	n/a	n/a	n/a	n/a	n/a	n/a	n/a
4096.49	n/a	RECOG_CONF	2048245	n/a	LTP210	ltpFR	16	1	n/a	POET	1095	3	n/a	n/a	n/a	n/a	n/a	n/a
4134.318	n/a	REC_START	2067159	n/a	LTP210	ltpFR	16	2	n/a	n/a	n/a	n/a	n/a	n/a	n/a	n/a	n/a	n/a
4134.35	n/a	RECOG_TARGET	2067175	n/a	LTP210	ltpFR	16	2	0	PECAN	1036	5	0	n/a	n/a	n/a	n/a	n/a
4135.188	n/a	RECOG_RESP	2067594	n/a	LTP210	ltpFR	16	2	0	PECAN	1036	n/a	0	n/a	n/a	n/a	n/a	n/a
4136.1	n/a	RECOG_CONF	2068050	n/a	LTP210	ltpFR	16	2	0	PECAN	1036	5	0	n/a	n/a	n/a	n/a	n/a
4137.844	n/a	RECOG_TARGET	2068922	n/a	LTP210	ltpFR	16	2	1	NUCLEUS	961	5	0	n/a	n/a	n/a	n/a	n/a
4138.386	n/a	RECOG_RESP	2069193	n/a	LTP210	ltpFR	16	2	1	NUCLEUS	961	n/a	0	n/a	n/a	n/a	n/a	n/a
4139.164	n/a	RECOG_CONF	2069582	n/a	LTP210	ltpFR	16	2	1	NUCLEUS	961	5	0	n/a	n/a	n/a	n/a	n/a
4140.89	n/a	RECOG_TARGET	2070445	n/a	LTP210	ltpFR	16	2	0	HAIL	676	5	0	n/a	n/a	n/a	n/a	n/a
4141.486	n/a	RECOG_RESP	2070743	n/a	LTP210	ltpFR	16	2	0	HAIL	676	n/a	0	n/a	n/a	n/a	n/a	n/a
4142.366	n/a	RECOG_CONF	2071183	n/a	LTP210	ltpFR	16	2	0	HAIL	676	5	0	n/a	n/a	n/a	n/a	n/a
4143.984	n/a	RECOG_TARGET	2071992	n/a	LTP210	ltpFR	16	2	0	STICKER	1382	5	0	n/a	n/a	n/a	n/a	n/a
4144.602	n/a	RECOG_RESP	2072301	n/a	LTP210	ltpFR	16	2	0	STICKER	1382	n/a	0	n/a	n/a	n/a	n/a	n/a
4145.43	n/a	RECOG_CONF	2072715	n/a	LTP210	ltpFR	16	2	0	STICKER	1382	5	0	n/a	n/a	n/a	n/a	n/a
4147.214	n/a	RECOG_TARGET	2073607	n/a	LTP210	ltpFR	16	2	-1	HOUND	724	2	-1	n/a	n/a	n/a	n/a	n/a
4147.888	n/a	RECOG_RESP	2073944	n/a	LTP210	ltpFR	16	2	-1	HOUND	724	n/a	-1	n/a	n/a	n/a	n/a	n/a
4148.792	n/a	RECOG_CONF	2074396	n/a	LTP210	ltpFR	16	2	-1	HOUND	724	2	-1	n/a	n/a	n/a	n/a	n/a
4150.458	n/a	RECOG_TARGET	2075229	n/a	LTP210	ltpFR	16	2	1	SERVANT	1271	5	1	n/a	n/a	n/a	n/a	n/a
4151.15	n/a	RECOG_RESP	2075575	n/a	LTP210	ltpFR	16	2	1	SERVANT	1271	n/a	1	n/a	n/a	n/a	n/a	n/a
4151.908	n/a	RECOG_CONF	2075954	n/a	LTP210	ltpFR	16	2	1	SERVANT	1271	5	1	n/a	n/a	n/a	n/a	n/a
4153.772	n/a	RECOG_TARGET	2076886	n/a	LTP210	ltpFR	16	2	-1	DOCUMENT	479	1	-1	n/a	n/a	n/a	n/a	n/a
4154.512	n/a	RECOG_RESP_VV	2077256	n/a	LTP210	ltpFR	16	2	-1	DOCUMENT	479	n/a	-1	n/a	n/a	n/a	n/a	n/a
4156.194	n/a	RECOG_RESP	2078097	n/a	LTP210	ltpFR	16	2	-1	DOCUMENT	479	n/a	-1	n/a	n/a	n/a	n/a	n/a
4157.078	n/a	RECOG_CONF	2078539	n/a	LTP210	ltpFR	16	2	-1	DOCUMENT	479	1	-1	n/a	n/a	n/a	n/a	n/a
4158.88	n/a	RECOG_TARGET	2079440	n/a	LTP210	ltpFR	16	2	1	STAPLER	1372	5	0	n/a	n/a	n/a	n/a	n/a
4159.478	n/a	RECOG_RESP	2079739	n/a	LTP210	ltpFR	16	2	1	STAPLER	1372	n/a	0	n/a	n/a	n/a	n/a	n/a
4160.274	n/a	RECOG_CONF	2080137	n/a	LTP210	ltpFR	16	2	1	STAPLER	1372	5	0	n/a	n/a	n/a	n/a	n/a
4162.092	n/a	RECOG_LURE	2081046	n/a	LTP210	ltpFR	16	2	n/a	TROPHY	1509	1	n/a	n/a	n/a	n/a	n/a	n/a
4162.964	n/a	RECOG_RESP	2081482	n/a	LTP210	ltpFR	16	2	n/a	TROPHY	1509	n/a	n/a	n/a	n/a	n/a	n/a	n/a
4163.756	n/a	RECOG_CONF	2081878	n/a	LTP210	ltpFR	16	2	n/a	TROPHY	1509	1	n/a	n/a	n/a	n/a	n/a	n/a
4165.572	n/a	RECOG_LURE	2082786	n/a	LTP210	ltpFR	16	2	n/a	CRIMINAL	409	3	n/a	n/a	n/a	n/a	n/a	n/a
4166.282	n/a	RECOG_RESP	2083141	n/a	LTP210	ltpFR	16	2	n/a	CRIMINAL	409	n/a	n/a	n/a	n/a	n/a	n/a	n/a
4167.174	n/a	RECOG_CONF	2083587	n/a	LTP210	ltpFR	16	2	n/a	CRIMINAL	409	3	n/a	n/a	n/a	n/a	n/a	n/a
4168.966	n/a	RECOG_LURE	2084483	n/a	LTP210	ltpFR	16	2	n/a	DRIVEWAY	500	5	n/a	n/a	n/a	n/a	n/a	n/a
4169.648	n/a	RECOG_RESP	2084824	n/a	LTP210	ltpFR	16	2	n/a	DRIVEWAY	500	n/a	n/a	n/a	n/a	n/a	n/a	n/a
4170.472	n/a	RECOG_CONF	2085236	n/a	LTP210	ltpFR	16	2	n/a	DRIVEWAY	500	5	n/a	n/a	n/a	n/a	n/a	n/a
4172.194	n/a	RECOG_TARGET	2086097	n/a	LTP210	ltpFR	16	2	1	BASKETBALL	96	5	0	n/a	n/a	n/a	n/a	n/a
4172.832	n/a	RECOG_RESP	2086416	n/a	LTP210	ltpFR	16	2	1	BASKETBALL	96	n/a	0	n/a	n/a	n/a	n/a	n/a
4173.512	n/a	RECOG_CONF	2086756	n/a	LTP210	ltpFR	16	2	1	BASKETBALL	96	5	0	n/a	n/a	n/a	n/a	n/a
4175.356	n/a	RECOG_LURE	2087678	n/a	LTP210	ltpFR	16	2	n/a	KLEENEX	782	5	n/a	n/a	n/a	n/a	n/a	n/a
4176.114	n/a	RECOG_RESP	2088057	n/a	LTP210	ltpFR	16	2	n/a	KLEENEX	782	n/a	n/a	n/a	n/a	n/a	n/a	n/a
4176.968	n/a	RECOG_CONF	2088484	n/a	LTP210	ltpFR	16	2	n/a	KLEENEX	782	5	n/a	n/a	n/a	n/a	n/a	n/a
4178.618	n/a	RECOG_TARGET	2089309	n/a	LTP210	ltpFR	16	2	0	DIPLOMA	470	5	0	n/a	n/a	n/a	n/a	n/a
4179.278	n/a	RECOG_RESP	2089639	n/a	LTP210	ltpFR	16	2	0	DIPLOMA	470	n/a	0	n/a	n/a	n/a	n/a	n/a
4180.06	n/a	RECOG_CONF	2090030	n/a	LTP210	ltpFR	16	2	0	DIPLOMA	470	5	0	n/a	n/a	n/a	n/a	n/a
4181.862	n/a	RECOG_LURE	2090931	n/a	LTP210	ltpFR	16	2	n/a	FOSSIL	596	2	n/a	n/a	n/a	n/a	n/a	n/a
4183.128	n/a	RECOG_RESP	2091564	n/a	LTP210	ltpFR	16	2	n/a	FOSSIL	596	n/a	n/a	n/a	n/a	n/a	n/a	n/a
4184.092	n/a	RECOG_CONF	2092046	n/a	LTP210	ltpFR	16	2	n/a	FOSSIL	596	2	n/a	n/a	n/a	n/a	n/a	n/a
4185.84	n/a	RECOG_TARGET	2092920	n/a	LTP210	ltpFR	16	2	1	MONK	910	5	1	n/a	n/a	n/a	n/a	n/a
4186.378	n/a	RECOG_RESP	2093189	n/a	LTP210	ltpFR	16	2	1	MONK	910	n/a	1	n/a	n/a	n/a	n/a	n/a
4187.186	n/a	RECOG_CONF	2093593	n/a	LTP210	ltpFR	16	2	1	MONK	910	5	1	n/a	n/a	n/a	n/a	n/a
4189.036	n/a	RECOG_TARGET	2094518	n/a	LTP210	ltpFR	16	2	0	CHAIRPERSON	275	5	1	n/a	n/a	n/a	n/a	n/a
4189.648	n/a	RECOG_RESP	2094824	n/a	LTP210	ltpFR	16	2	0	CHAIRPERSON	275	n/a	1	n/a	n/a	n/a	n/a	n/a
4190.428	n/a	RECOG_CONF	2095214	n/a	LTP210	ltpFR	16	2	0	CHAIRPERSON	275	5	1	n/a	n/a	n/a	n/a	n/a
4192.13	n/a	RECOG_TARGET	2096065	n/a	LTP210	ltpFR	16	2	1	BISON	131	5	1	n/a	n/a	n/a	n/a	n/a
4192.852	n/a	RECOG_RESP	2096426	n/a	LTP210	ltpFR	16	2	1	BISON	131	n/a	1	n/a	n/a	n/a	n/a	n/a
4193.632	n/a	RECOG_CONF	2096816	n/a	LTP210	ltpFR	16	2	1	BISON	131	5	1	n/a	n/a	n/a	n/a	n/a
4195.276	n/a	RECOG_TARGET	2097638	n/a	LTP210	ltpFR	16	2	0	PILLOW	1069	5	1	n/a	n/a	n/a	n/a	n/a
4195.808	n/a	RECOG_RESP	2097904	n/a	LTP210	ltpFR	16	2	0	PILLOW	1069	n/a	1	n/a	n/a	n/a	n/a	n/a
4196.652	n/a	RECOG_CONF	2098326	n/a	LTP210	ltpFR	16	2	0	PILLOW	1069	5	1	n/a	n/a	n/a	n/a	n/a
4198.438	n/a	RECOG_TARGET	2099219	n/a	LTP210	ltpFR	16	2	1	DETECTIVE	454	5	1	n/a	n/a	n/a	n/a	n/a
4198.946	n/a	RECOG_RESP	2099473	n/a	LTP210	ltpFR	16	2	1	DETECTIVE	454	n/a	1	n/a	n/a	n/a	n/a	n/a
4199.752	n/a	RECOG_CONF	2099876	n/a	LTP210	ltpFR	16	2	1	DETECTIVE	454	5	1	n/a	n/a	n/a	n/a	n/a
4203.642	n/a	REC_START	2101821	n/a	LTP210	ltpFR	16	3	n/a	n/a	n/a	n/a	n/a	n/a	n/a	n/a	n/a	n/a
4203.682	n/a	RECOG_TARGET	2101841	n/a	LTP210	ltpFR	16	3	0	ROD	1203	4	0	n/a	n/a	n/a	n/a	n/a
4204.414	n/a	RECOG_RESP_VV	2102207	n/a	LTP210	ltpFR	16	3	0	ROD	1203	n/a	0	n/a	n/a	n/a	n/a	n/a
4205.704	n/a	RECOG_RESP	2102852	n/a	LTP210	ltpFR	16	3	0	ROD	1203	n/a	0	n/a	n/a	n/a	n/a	n/a
4206.72	n/a	RECOG_CONF	2103360	n/a	LTP210	ltpFR	16	3	0	ROD	1203	4	0	n/a	n/a	n/a	n/a	n/a
4208.422	n/a	RECOG_LURE	2104211	n/a	LTP210	ltpFR	16	3	n/a	BODY	145	4	n/a	n/a	n/a	n/a	n/a	n/a
4209.08	n/a	RECOG_RESP	2104540	n/a	LTP210	ltpFR	16	3	n/a	BODY	145	n/a	n/a	n/a	n/a	n/a	n/a	n/a
4209.942	n/a	RECOG_CONF	2104971	n/a	LTP210	ltpFR	16	3	n/a	BODY	145	4	n/a	n/a	n/a	n/a	n/a	n/a
4211.52	n/a	RECOG_TARGET	2105760	n/a	LTP210	ltpFR	16	3	1	OCEAN	970	5	0	n/a	n/a	n/a	n/a	n/a
4212.11	n/a	RECOG_RESP	2106055	n/a	LTP210	ltpFR	16	3	1	OCEAN	970	n/a	0	n/a	n/a	n/a	n/a	n/a
4212.936	n/a	RECOG_CONF	2106468	n/a	LTP210	ltpFR	16	3	1	OCEAN	970	5	0	n/a	n/a	n/a	n/a	n/a
4214.632	n/a	RECOG_TARGET	2107316	n/a	LTP210	ltpFR	16	3	1	PLUMBER	1091	5	1	n/a	n/a	n/a	n/a	n/a
4215.338	n/a	RECOG_RESP	2107669	n/a	LTP210	ltpFR	16	3	1	PLUMBER	1091	n/a	1	n/a	n/a	n/a	n/a	n/a
4216.108	n/a	RECOG_CONF	2108054	n/a	LTP210	ltpFR	16	3	1	PLUMBER	1091	5	1	n/a	n/a	n/a	n/a	n/a
4217.826	n/a	RECOG_TARGET	2108913	n/a	LTP210	ltpFR	16	3	-1	SPINE	1353	5	-1	n/a	n/a	n/a	n/a	n/a
4218.416	n/a	RECOG_RESP	2109208	n/a	LTP210	ltpFR	16	3	-1	SPINE	1353	n/a	-1	n/a	n/a	n/a	n/a	n/a
4219.23	n/a	RECOG_CONF	2109615	n/a	LTP210	ltpFR	16	3	-1	SPINE	1353	5	-1	n/a	n/a	n/a	n/a	n/a
4220.97	n/a	RECOG_TARGET	2110485	n/a	LTP210	ltpFR	16	3	1	CHILD	299	5	1	n/a	n/a	n/a	n/a	n/a
4221.576	n/a	RECOG_RESP	2110788	n/a	LTP210	ltpFR	16	3	1	CHILD	299	n/a	1	n/a	n/a	n/a	n/a	n/a
4222.38	n/a	RECOG_CONF	2111190	n/a	LTP210	ltpFR	16	3	1	CHILD	299	5	1	n/a	n/a	n/a	n/a	n/a
4224.166	n/a	RECOG_LURE	2112083	n/a	LTP210	ltpFR	16	3	n/a	OUTLAW	989	2	n/a	n/a	n/a	n/a	n/a	n/a
4225.314	n/a	RECOG_RESP	2112657	n/a	LTP210	ltpFR	16	3	n/a	OUTLAW	989	n/a	n/a	n/a	n/a	n/a	n/a	n/a
4226.18	n/a	RECOG_CONF	2113090	n/a	LTP210	ltpFR	16	3	n/a	OUTLAW	989	2	n/a	n/a	n/a	n/a	n/a	n/a
4227.794	n/a	RECOG_TARGET	2113897	n/a	LTP210	ltpFR	16	3	-1	BEAN	105	5	-1	n/a	n/a	n/a	n/a	n/a
4228.438	n/a	RECOG_RESP	2114219	n/a	LTP210	ltpFR	16	3	-1	BEAN	105	n/a	-1	n/a	n/a	n/a	n/a	n/a
4229.22	n/a	RECOG_CONF	2114610	n/a	LTP210	ltpFR	16	3	-1	BEAN	105	5	-1	n/a	n/a	n/a	n/a	n/a
4230.974	n/a	RECOG_TARGET	2115487	n/a	LTP210	ltpFR	16	3	1	TENT	1449	5	0	n/a	n/a	n/a	n/a	n/a
4231.644	n/a	RECOG_RESP	2115822	n/a	LTP210	ltpFR	16	3	1	TENT	1449	n/a	0	n/a	n/a	n/a	n/a	n/a
4232.39	n/a	RECOG_CONF	2116195	n/a	LTP210	ltpFR	16	3	1	TENT	1449	5	0	n/a	n/a	n/a	n/a	n/a
4234.02	n/a	RECOG_TARGET	2117010	n/a	LTP210	ltpFR	16	3	0	GUARDIAN	668	5	1	n/a	n/a	n/a	n/a	n/a
4234.654	n/a	RECOG_RESP	2117327	n/a	LTP210	ltpFR	16	3	0	GUARDIAN	668	n/a	1	n/a	n/a	n/a	n/a	n/a
4235.416	n/a	RECOG_CONF	2117708	n/a	LTP210	ltpFR	16	3	0	GUARDIAN	668	5	1	n/a	n/a	n/a	n/a	n/a
4237.164	n/a	RECOG_TARGET	2118582	n/a	LTP210	ltpFR	16	3	1	ELM	527	5	1	n/a	n/a	n/a	n/a	n/a
4237.744	n/a	RECOG_RESP	2118872	n/a	LTP210	ltpFR	16	3	1	ELM	527	n/a	1	n/a	n/a	n/a	n/a	n/a
4238.662	n/a	RECOG_CONF	2119331	n/a	LTP210	ltpFR	16	3	1	ELM	527	5	1	n/a	n/a	n/a	n/a	n/a
4240.31	n/a	RECOG_LURE	2120155	n/a	LTP210	ltpFR	16	3	n/a	CONVENT	370	4	n/a	n/a	n/a	n/a	n/a	n/a
4241.342	n/a	RECOG_RESP	2120671	n/a	LTP210	ltpFR	16	3	n/a	CONVENT	370	n/a	n/a	n/a	n/a	n/a	n/a	n/a
4242.22	n/a	RECOG_CONF	2121110	n/a	LTP210	ltpFR	16	3	n/a	CONVENT	370	4	n/a	n/a	n/a	n/a	n/a	n/a
4243.988	n/a	RECOG_TARGET	2121994	n/a	LTP210	ltpFR	16	3	-1	PAPER	1011	5	-1	n/a	n/a	n/a	n/a	n/a
4244.564	n/a	RECOG_RESP	2122282	n/a	LTP210	ltpFR	16	3	-1	PAPER	1011	n/a	-1	n/a	n/a	n/a	n/a	n/a
4245.34	n/a	RECOG_CONF	2122670	n/a	LTP210	ltpFR	16	3	-1	PAPER	1011	5	-1	n/a	n/a	n/a	n/a	n/a
4247.066	n/a	RECOG_TARGET	2123533	n/a	LTP210	ltpFR	16	3	0	BANK	83	5	1	n/a	n/a	n/a	n/a	n/a
4247.61	n/a	RECOG_RESP	2123805	n/a	LTP210	ltpFR	16	3	0	BANK	83	n/a	1	n/a	n/a	n/a	n/a	n/a
4248.446	n/a	RECOG_CONF	2124223	n/a	LTP210	ltpFR	16	3	0	BANK	83	5	1	n/a	n/a	n/a	n/a	n/a
4250.112	n/a	RECOG_TARGET	2125056	n/a	LTP210	ltpFR	16	3	0	CARPENTER	246	5	1	n/a	n/a	n/a	n/a	n/a
4250.692	n/a	RECOG_RESP	2125346	n/a	LTP210	ltpFR	16	3	0	CARPENTER	246	n/a	1	n/a	n/a	n/a	n/a	n/a
4251.462	n/a	RECOG_CONF	2125731	n/a	LTP210	ltpFR	16	3	0	CARPENTER	246	5	1	n/a	n/a	n/a	n/a	n/a
4253.224	n/a	RECOG_TARGET	2126612	n/a	LTP210	ltpFR	16	3	-1	UNIVERSE	1540	5	-1	n/a	n/a	n/a	n/a	n/a
4253.716	n/a	RECOG_RESP	2126858	n/a	LTP210	ltpFR	16	3	-1	UNIVERSE	1540	n/a	-1	n/a	n/a	n/a	n/a	n/a
4254.462	n/a	RECOG_CONF	2127231	n/a	LTP210	ltpFR	16	3	-1	UNIVERSE	1540	5	-1	n/a	n/a	n/a	n/a	n/a
4256.186	n/a	RECOG_TARGET	2128093	n/a	LTP210	ltpFR	16	3	-1	BACKBONE	66	5	-1	n/a	n/a	n/a	n/a	n/a
4256.722	n/a	RECOG_RESP	2128361	n/a	LTP210	ltpFR	16	3	-1	BACKBONE	66	n/a	-1	n/a	n/a	n/a	n/a	n/a
4257.494	n/a	RECOG_CONF	2128747	n/a	LTP210	ltpFR	16	3	-1	BACKBONE	66	5	-1	n/a	n/a	n/a	n/a	n/a
4259.214	n/a	RECOG_LURE	2129607	n/a	LTP210	ltpFR	16	3	n/a	SPOOL	1356	1	n/a	n/a	n/a	n/a	n/a	n/a
4259.96	n/a	RECOG_RESP	2129980	n/a	LTP210	ltpFR	16	3	n/a	SPOOL	1356	n/a	n/a	n/a	n/a	n/a	n/a	n/a
4260.782	n/a	RECOG_CONF	2130391	n/a	LTP210	ltpFR	16	3	n/a	SPOOL	1356	1	n/a	n/a	n/a	n/a	n/a	n/a
4262.528	n/a	RECOG_LURE	2131264	n/a	LTP210	ltpFR	16	3	n/a	NURSERY	964	2	n/a	n/a	n/a	n/a	n/a	n/a
4263.186	n/a	RECOG_RESP	2131593	n/a	LTP210	ltpFR	16	3	n/a	NURSERY	964	n/a	n/a	n/a	n/a	n/a	n/a	n/a
4264.104	n/a	RECOG_CONF	2132052	n/a	LTP210	ltpFR	16	3	n/a	NURSERY	964	2	n/a	n/a	n/a	n/a	n/a	n/a
4265.672	n/a	RECOG_TARGET	2132836	n/a	LTP210	ltpFR	16	3	0	PREACHER	1119	5	1	n/a	n/a	n/a	n/a	n/a
4266.22	n/a	RECOG_RESP	2133110	n/a	LTP210	ltpFR	16	3	0	PREACHER	1119	n/a	1	n/a	n/a	n/a	n/a	n/a
4267.064	n/a	RECOG_CONF	2133532	n/a	LTP210	ltpFR	16	3	0	PREACHER	1119	5	1	n/a	n/a	n/a	n/a	n/a
4311.84	n/a	REC_START	2155920	n/a	LTP210	ltpFR	16	4	n/a	n/a	n/a	n/a	n/a	n/a	n/a	n/a	n/a	n/a
4311.87	n/a	RECOG_LURE	2155935	n/a	LTP210	ltpFR	16	4	n/a	PORTRAIT	1111	1	n/a	n/a	n/a	n/a	n/a	n/a
4312.692	n/a	RECOG_RESP	2156346	n/a	LTP210	ltpFR	16	4	n/a	PORTRAIT	1111	n/a	n/a	n/a	n/a	n/a	n/a	n/a
4313.488	n/a	RECOG_CONF	2156744	n/a	LTP210	ltpFR	16	4	n/a	PORTRAIT	1111	1	n/a	n/a	n/a	n/a	n/a	n/a
4315.248	n/a	RECOG_TARGET	2157624	n/a	LTP210	ltpFR	16	4	-1	DETERGENT	455	1	-1	n/a	n/a	n/a	n/a	n/a
4318.32	n/a	RECOG_RESP	2159160	n/a	LTP210	ltpFR	16	4	-1	DETERGENT	455	n/a	-1	n/a	n/a	n/a	n/a	n/a
4319.158	n/a	RECOG_CONF	2159579	n/a	LTP210	ltpFR	16	4	-1	DETERGENT	455	1	-1	n/a	n/a	n/a	n/a	n/a
4320.89	n/a	RECOG_LURE	2160445	n/a	LTP210	ltpFR	16	4	n/a	ZEBRA	1635	5	n/a	n/a	n/a	n/a	n/a	n/a
4321.582	n/a	RECOG_RESP	2160791	n/a	LTP210	ltpFR	16	4	n/a	ZEBRA	1635	n/a	n/a	n/a	n/a	n/a	n/a	n/a
4322.352	n/a	RECOG_CONF	2161176	n/a	LTP210	ltpFR	16	4	n/a	ZEBRA	1635	5	n/a	n/a	n/a	n/a	n/a	n/a
4323.92	n/a	RECOG_TARGET	2161960	n/a	LTP210	ltpFR	16	4	0	MAID	856	5	1	n/a	n/a	n/a	n/a	n/a
4324.542	n/a	RECOG_RESP	2162271	n/a	LTP210	ltpFR	16	4	0	MAID	856	n/a	1	n/a	n/a	n/a	n/a	n/a
4325.274	n/a	RECOG_CONF	2162637	n/a	LTP210	ltpFR	16	4	0	MAID	856	5	1	n/a	n/a	n/a	n/a	n/a
4326.948	n/a	RECOG_TARGET	2163474	n/a	LTP210	ltpFR	16	4	0	COLUMN	350	5	1	n/a	n/a	n/a	n/a	n/a
4327.602	n/a	RECOG_RESP	2163801	n/a	LTP210	ltpFR	16	4	0	COLUMN	350	n/a	1	n/a	n/a	n/a	n/a	n/a
4328.378	n/a	RECOG_CONF	2164189	n/a	LTP210	ltpFR	16	4	0	COLUMN	350	5	1	n/a	n/a	n/a	n/a	n/a
4329.91	n/a	RECOG_LURE	2164955	n/a	LTP210	ltpFR	16	4	n/a	RACKET	1155	3	n/a	n/a	n/a	n/a	n/a	n/a
4330.744	n/a	RECOG_RESP	2165372	n/a	LTP210	ltpFR	16	4	n/a	RACKET	1155	n/a	n/a	n/a	n/a	n/a	n/a	n/a
4331.534	n/a	RECOG_CONF	2165767	n/a	LTP210	ltpFR	16	4	n/a	RACKET	1155	3	n/a	n/a	n/a	n/a	n/a	n/a
4333.206	n/a	RECOG_LURE	2166603	n/a	LTP210	ltpFR	16	4	n/a	TOENAIL	1474	5	n/a	n/a	n/a	n/a	n/a	n/a
4333.854	n/a	RECOG_RESP	2166927	n/a	LTP210	ltpFR	16	4	n/a	TOENAIL	1474	n/a	n/a	n/a	n/a	n/a	n/a	n/a
4334.634	n/a	RECOG_CONF	2167317	n/a	LTP210	ltpFR	16	4	n/a	TOENAIL	1474	5	n/a	n/a	n/a	n/a	n/a	n/a
4336.2	n/a	RECOG_LURE	2168100	n/a	LTP210	ltpFR	16	4	n/a	CHIEF	298	2	n/a	n/a	n/a	n/a	n/a	n/a
4337.002	n/a	RECOG_RESP	2168501	n/a	LTP210	ltpFR	16	4	n/a	CHIEF	298	n/a	n/a	n/a	n/a	n/a	n/a	n/a
4337.784	n/a	RECOG_CONF	2168892	n/a	LTP210	ltpFR	16	4	n/a	CHIEF	298	2	n/a	n/a	n/a	n/a	n/a	n/a
4339.38	n/a	RECOG_TARGET	2169690	n/a	LTP210	ltpFR	16	4	0	BATHTUB	100	5	1	n/a	n/a	n/a	n/a	n/a
4340.004	n/a	RECOG_RESP	2170002	n/a	LTP210	ltpFR	16	4	0	BATHTUB	100	n/a	1	n/a	n/a	n/a	n/a	n/a
4340.77	n/a	RECOG_CONF	2170385	n/a	LTP210	ltpFR	16	4	0	BATHTUB	100	5	1	n/a	n/a	n/a	n/a	n/a
4342.308	n/a	RECOG_TARGET	2171154	n/a	LTP210	ltpFR	16	4	1	GREASE	660	5	0	n/a	n/a	n/a	n/a	n/a
4342.842	n/a	RECOG_RESP	2171421	n/a	LTP210	ltpFR	16	4	1	GREASE	660	n/a	0	n/a	n/a	n/a	n/a	n/a
4343.614	n/a	RECOG_CONF	2171807	n/a	LTP210	ltpFR	16	4	1	GREASE	660	5	0	n/a	n/a	n/a	n/a	n/a
4345.338	n/a	RECOG_LURE	2172669	n/a	LTP210	ltpFR	16	4	n/a	VITAMIN	1574	5	n/a	n/a	n/a	n/a	n/a	n/a
4346.034	n/a	RECOG_RESP	2173017	n/a	LTP210	ltpFR	16	4	n/a	VITAMIN	1574	n/a	n/a	n/a	n/a	n/a	n/a	n/a
4346.804	n/a	RECOG_CONF	2173402	n/a	LTP210	ltpFR	16	4	n/a	VITAMIN	1574	5	n/a	n/a	n/a	n/a	n/a	n/a
4348.432	n/a	RECOG_TARGET	2174216	n/a	LTP210	ltpFR	16	4	1	BUNNY	198	5	1	n/a	n/a	n/a	n/a	n/a
4349.082	n/a	RECOG_RESP	2174541	n/a	LTP210	ltpFR	16	4	1	BUNNY	198	n/a	1	n/a	n/a	n/a	n/a	n/a
4349.718	n/a	RECOG_CONF	2174859	n/a	LTP210	ltpFR	16	4	1	BUNNY	198	5	1	n/a	n/a	n/a	n/a	n/a
4351.612	n/a	RECOG_LURE	2175806	n/a	LTP210	ltpFR	16	4	n/a	SOFA	1342	1	n/a	n/a	n/a	n/a	n/a	n/a
4352.356	n/a	RECOG_RESP	2176178	n/a	LTP210	ltpFR	16	4	n/a	SOFA	1342	n/a	n/a	n/a	n/a	n/a	n/a	n/a
4353.146	n/a	RECOG_CONF	2176573	n/a	LTP210	ltpFR	16	4	n/a	SOFA	1342	1	n/a	n/a	n/a	n/a	n/a	n/a
4354.806	n/a	RECOG_TARGET	2177403	n/a	LTP210	ltpFR	16	4	1	DUNE	506	5	0	n/a	n/a	n/a	n/a	n/a
4355.42	n/a	RECOG_RESP	2177710	n/a	LTP210	ltpFR	16	4	1	DUNE	506	n/a	0	n/a	n/a	n/a	n/a	n/a
4356.116	n/a	RECOG_CONF	2178058	n/a	LTP210	ltpFR	16	4	1	DUNE	506	5	0	n/a	n/a	n/a	n/a	n/a
4357.752	n/a	RECOG_LURE	2178876	n/a	LTP210	ltpFR	16	4	n/a	STRAW	1390	4	n/a	n/a	n/a	n/a	n/a	n/a
4358.498	n/a	RECOG_RESP	2179249	n/a	LTP210	ltpFR	16	4	n/a	STRAW	1390	n/a	n/a	n/a	n/a	n/a	n/a	n/a
4359.226	n/a	RECOG_CONF	2179613	n/a	LTP210	ltpFR	16	4	n/a	STRAW	1390	4	n/a	n/a	n/a	n/a	n/a	n/a
4360.782	n/a	RECOG_TARGET	2180391	n/a	LTP210	ltpFR	16	4	0	GRADUATE	653	5	1	n/a	n/a	n/a	n/a	n/a
4361.33	n/a	RECOG_RESP	2180665	n/a	LTP210	ltpFR	16	4	0	GRADUATE	653	n/a	1	n/a	n/a	n/a	n/a	n/a
4361.96	n/a	RECOG_CONF	2180980	n/a	LTP210	ltpFR	16	4	0	GRADUATE	653	5	1	n/a	n/a	n/a	n/a	n/a
4363.696	n/a	RECOG_LURE	2181848	n/a	LTP210	ltpFR	16	4	n/a	PRODUCER	1129	2	n/a	n/a	n/a	n/a	n/a	n/a
4364.698	n/a	RECOG_RESP	2182349	n/a	LTP210	ltpFR	16	4	n/a	PRODUCER	1129	n/a	n/a	n/a	n/a	n/a	n/a	n/a
4365.456	n/a	RECOG_CONF	2182728	n/a	LTP210	ltpFR	16	4	n/a	PRODUCER	1129	2	n/a	n/a	n/a	n/a	n/a	n/a
4367.022	n/a	RECOG_LURE	2183511	n/a	LTP210	ltpFR	16	4	n/a	PAD	998	4	n/a	n/a	n/a	n/a	n/a	n/a
4367.758	n/a	RECOG_RESP	2183879	n/a	LTP210	ltpFR	16	4	n/a	PAD	998	n/a	n/a	n/a	n/a	n/a	n/a	n/a
4368.44	n/a	RECOG_CONF	2184220	n/a	LTP210	ltpFR	16	4	n/a	PAD	998	4	n/a	n/a	n/a	n/a	n/a	n/a
4370.2	n/a	RECOG_LURE	2185100	n/a	LTP210	ltpFR	16	4	n/a	OTTER	986	4	n/a	n/a	n/a	n/a	n/a	n/a
4370.938	n/a	RECOG_RESP	2185469	n/a	LTP210	ltpFR	16	4	n/a	OTTER	986	n/a	n/a	n/a	n/a	n/a	n/a	n/a
4371.69	n/a	RECOG_CONF	2185845	n/a	LTP210	ltpFR	16	4	n/a	OTTER	986	4	n/a	n/a	n/a	n/a	n/a	n/a
4373.296	n/a	RECOG_LURE	2186648	n/a	LTP210	ltpFR	16	4	n/a	STAFF	1365	3	n/a	n/a	n/a	n/a	n/a	n/a
4373.964	n/a	RECOG_RESP	2186982	n/a	LTP210	ltpFR	16	4	n/a	STAFF	1365	n/a	n/a	n/a	n/a	n/a	n/a	n/a
4374.708	n/a	RECOG_CONF	2187354	n/a	LTP210	ltpFR	16	4	n/a	STAFF	1365	3	n/a	n/a	n/a	n/a	n/a	n/a
4378.01	n/a	REC_START	2189005	n/a	LTP210	ltpFR	16	5	n/a	n/a	n/a	n/a	n/a	n/a	n/a	n/a	n/a	n/a
4378.04	n/a	RECOG_TARGET	2189020	n/a	LTP210	ltpFR	16	5	1	EMERALD	528	5	0	n/a	n/a	n/a	n/a	n/a
4378.696	n/a	RECOG_RESP	2189348	n/a	LTP210	ltpFR	16	5	1	EMERALD	528	n/a	0	n/a	n/a	n/a	n/a	n/a
4379.41	n/a	RECOG_CONF	2189705	n/a	LTP210	ltpFR	16	5	1	EMERALD	528	5	0	n/a	n/a	n/a	n/a	n/a
4381.102	n/a	RECOG_LURE	2190551	n/a	LTP210	ltpFR	16	5	n/a	COURT	391	3	n/a	n/a	n/a	n/a	n/a	n/a
4381.798	n/a	RECOG_RESP	2190899	n/a	LTP210	ltpFR	16	5	n/a	COURT	391	n/a	n/a	n/a	n/a	n/a	n/a	n/a
4382.558	n/a	RECOG_CONF	2191279	n/a	LTP210	ltpFR	16	5	n/a	COURT	391	3	n/a	n/a	n/a	n/a	n/a	n/a
4384.046	n/a	RECOG_TARGET	2192023	n/a	LTP210	ltpFR	16	5	0	JAR	750	5	0	n/a	n/a	n/a	n/a	n/a
4385.546	n/a	RECOG_RESP	2192773	n/a	LTP210	ltpFR	16	5	0	JAR	750	n/a	0	n/a	n/a	n/a	n/a	n/a
4386.246	n/a	RECOG_CONF	2193123	n/a	LTP210	ltpFR	16	5	0	JAR	750	5	0	n/a	n/a	n/a	n/a	n/a
4388.09	n/a	RECOG_TARGET	2194045	n/a	LTP210	ltpFR	16	5	-1	WART	1590	1	-1	n/a	n/a	n/a	n/a	n/a
4388.822	n/a	RECOG_RESP	2194411	n/a	LTP210	ltpFR	16	5	-1	WART	1590	n/a	-1	n/a	n/a	n/a	n/a	n/a
4389.516	n/a	RECOG_CONF	2194758	n/a	LTP210	ltpFR	16	5	-1	WART	1590	1	-1	n/a	n/a	n/a	n/a	n/a
4391.22	n/a	RECOG_TARGET	2195610	n/a	LTP210	ltpFR	16	5	1	PELICAN	1039	5	1	n/a	n/a	n/a	n/a	n/a
4391.92	n/a	RECOG_RESP	2195960	n/a	LTP210	ltpFR	16	5	1	PELICAN	1039	n/a	1	n/a	n/a	n/a	n/a	n/a
4392.6	n/a	RECOG_CONF	2196300	n/a	LTP210	ltpFR	16	5	1	PELICAN	1039	5	1	n/a	n/a	n/a	n/a	n/a
4394.414	n/a	RECOG_LURE	2197207	n/a	LTP210	ltpFR	16	5	n/a	FRAME	600	2	n/a	n/a	n/a	n/a	n/a	n/a
4395.412	n/a	RECOG_RESP	2197706	n/a	LTP210	ltpFR	16	5	n/a	FRAME	600	n/a	n/a	n/a	n/a	n/a	n/a	n/a
4396.258	n/a	RECOG_CONF	2198129	n/a	LTP210	ltpFR	16	5	n/a	FRAME	600	2	n/a	n/a	n/a	n/a	n/a	n/a
4397.892	n/a	RECOG_TARGET	2198946	n/a	LTP210	ltpFR	16	5	-1	BUREAU	199	5	-1	n/a	n/a	n/a	n/a	n/a
4398.57	n/a	RECOG_RESP	2199285	n/a	LTP210	ltpFR	16	5	-1	BUREAU	199	n/a	-1	n/a	n/a	n/a	n/a	n/a
4399.386	n/a	RECOG_CONF	2199693	n/a	LTP210	ltpFR	16	5	-1	BUREAU	199	5	-1	n/a	n/a	n/a	n/a	n/a
4401.154	n/a	RECOG_TARGET	2200577	n/a	LTP210	ltpFR	16	5	1	PERISCOPE	1050	5	0	n/a	n/a	n/a	n/a	n/a
4401.868	n/a	RECOG_RESP	2200934	n/a	LTP210	ltpFR	16	5	1	PERISCOPE	1050	n/a	0	n/a	n/a	n/a	n/a	n/a
4402.63	n/a	RECOG_CONF	2201315	n/a	LTP210	ltpFR	16	5	1	PERISCOPE	1050	5	0	n/a	n/a	n/a	n/a	n/a
4404.3	n/a	RECOG_TARGET	2202150	n/a	LTP210	ltpFR	16	5	-1	AGENT	10	5	-1	n/a	n/a	n/a	n/a	n/a
4404.854	n/a	RECOG_RESP	2202427	n/a	LTP210	ltpFR	16	5	-1	AGENT	10	n/a	-1	n/a	n/a	n/a	n/a	n/a
4405.584	n/a	RECOG_CONF	2202792	n/a	LTP210	ltpFR	16	5	-1	AGENT	10	5	-1	n/a	n/a	n/a	n/a	n/a
4407.262	n/a	RECOG_LURE	2203631	n/a	LTP210	ltpFR	16	5	n/a	CONTRACTOR	369	3	n/a	n/a	n/a	n/a	n/a	n/a
4408.068	n/a	RECOG_RESP	2204034	n/a	LTP210	ltpFR	16	5	n/a	CONTRACTOR	369	n/a	n/a	n/a	n/a	n/a	n/a	n/a
4408.916	n/a	RECOG_CONF	2204458	n/a	LTP210	ltpFR	16	5	n/a	CONTRACTOR	369	3	n/a	n/a	n/a	n/a	n/a	n/a
4410.49	n/a	RECOG_TARGET	2205245	n/a	LTP210	ltpFR	16	5	1	POLYESTER	1100	5	0	n/a	n/a	n/a	n/a	n/a
4411.192	n/a	RECOG_RESP	2205596	n/a	LTP210	ltpFR	16	5	1	POLYESTER	1100	n/a	0	n/a	n/a	n/a	n/a	n/a
4411.832	n/a	RECOG_CONF	2205916	n/a	LTP210	ltpFR	16	5	1	POLYESTER	1100	5	0	n/a	n/a	n/a	n/a	n/a
4413.588	n/a	RECOG_LURE	2206794	n/a	LTP210	ltpFR	16	5	n/a	PISTOL	1075	5	n/a	n/a	n/a	n/a	n/a	n/a
4414.274	n/a	RECOG_RESP	2207137	n/a	LTP210	ltpFR	16	5	n/a	PISTOL	1075	n/a	n/a	n/a	n/a	n/a	n/a	n/a
4414.992	n/a	RECOG_CONF	2207496	n/a	LTP210	ltpFR	16	5	n/a	PISTOL	1075	5	n/a	n/a	n/a	n/a	n/a	n/a
4416.716	n/a	RECOG_LURE	2208358	n/a	LTP210	ltpFR	16	5	n/a	NAPKIN	937	5	n/a	n/a	n/a	n/a	n/a	n/a
4417.386	n/a	RECOG_RESP	2208693	n/a	LTP210	ltpFR	16	5	n/a	NAPKIN	937	n/a	n/a	n/a	n/a	n/a	n/a	n/a
4418.054	n/a	RECOG_CONF	2209027	n/a	LTP210	ltpFR	16	5	n/a	NAPKIN	937	5	n/a	n/a	n/a	n/a	n/a	n/a
4419.744	n/a	RECOG_TARGET	2209872	n/a	LTP210	ltpFR	16	5	-1	GLASS	639	3	-1	n/a	n/a	n/a	n/a	n/a
