onset	duration	trial_type	sample	stim_file	subject	experiment	session	trial	item_name	item_num	list	answer	test_x	test_y	test_z
245.096	n/a	SESS_START	122548	n/a	LTP138	ltpFR2	4	n/a	n/a	n/a	n/a	n/a	0	0	0
275.07	n/a	START	137535	n/a	LTP138	ltpFR2	4	n/a	n/a	n/a	-1	n/a	n/a	n/a	n/a
275.12	n/a	PROB	137560	n/a	LTP138	ltpFR2	4	n/a	n/a	n/a	-1	7	5	1	1
276.726	n/a	PROB	138363	n/a	LTP138	ltpFR2	4	n/a	n/a	n/a	-1	25	9	8	8
280.424	n/a	PROB	140212	n/a	LTP138	ltpFR2	4	n/a	n/a	n/a	-1	9	5	2	2
281.778	n/a	PROB	140889	n/a	LTP138	ltpFR2	4	n/a	n/a	n/a	-1	12	9	2	1
282.982	n/a	PROB	141491	n/a	LTP138	ltpFR2	4	n/a	n/a	n/a	-1	7	2	3	2
284.89	n/a	PROB	142445	n/a	LTP138	ltpFR2	4	n/a	n/a	n/a	-1	24	8	7	9
286.41	n/a	STOP	143205	n/a	LTP138	ltpFR2	4	n/a	n/a	n/a	-1	n/a	n/a	n/a	n/a
334.33	n/a	DISTRACTOR	167165	n/a	LTP138	ltpFR2	4	1	n/a	n/a	n/a	n/a	0	0	0
334.33	n/a	START	167165	n/a	LTP138	ltpFR2	4	n/a	n/a	n/a	1	n/a	n/a	n/a	n/a
334.38	n/a	PROB	167190	n/a	LTP138	ltpFR2	4	n/a	n/a	n/a	1	18	4	5	9
336.086	n/a	PROB	168043	n/a	LTP138	ltpFR2	4	n/a	n/a	n/a	1	18	4	9	5
337.792	n/a	PROB	168896	n/a	LTP138	ltpFR2	4	n/a	n/a	n/a	1	14	8	3	3
339.232	n/a	PROB	169616	n/a	LTP138	ltpFR2	4	n/a	n/a	n/a	1	10	1	8	1
341.306	n/a	PROB	170653	n/a	LTP138	ltpFR2	4	n/a	n/a	n/a	1	14	6	5	3
343.364	n/a	PROB	171682	n/a	LTP138	ltpFR2	4	n/a	n/a	n/a	1	12	2	7	3
344.936	n/a	PROB	172468	n/a	LTP138	ltpFR2	4	n/a	n/a	n/a	1	19	4	6	9
346.844	n/a	PROB	173422	n/a	LTP138	ltpFR2	4	n/a	n/a	n/a	1	15	4	6	5
348.418	n/a	PROB	174209	n/a	LTP138	ltpFR2	4	n/a	n/a	n/a	1	12	3	7	2
349.754	n/a	PROB	174877	n/a	LTP138	ltpFR2	4	n/a	n/a	n/a	1	8	4	3	1
351.558	n/a	PROB	175779	n/a	LTP138	ltpFR2	4	n/a	n/a	n/a	1	13	2	6	5
353.348	n/a	PROB	176674	n/a	LTP138	ltpFR2	4	n/a	n/a	n/a	1	13	7	1	5
355.142	n/a	PROB	177571	n/a	LTP138	ltpFR2	4	n/a	n/a	n/a	1	18	7	3	8
358.33	n/a	STOP	179165	n/a	LTP138	ltpFR2	4	n/a	n/a	n/a	1	n/a	n/a	n/a	n/a
359.508	n/a	WORD	179754	wordpools/wasnorm_wordpool_576.txt	LTP138	ltpFR2	4	1	PASTA	1021	n/a	n/a	0	0	0
362.168	n/a	WORD	181084	wordpools/wasnorm_wordpool_576.txt	LTP138	ltpFR2	4	1	TOASTER	1472	n/a	n/a	0	0	0
364.93	n/a	WORD	182465	wordpools/wasnorm_wordpool_576.txt	LTP138	ltpFR2	4	1	WITNESS	1618	n/a	n/a	0	0	0
367.608	n/a	WORD	183804	wordpools/wasnorm_wordpool_576.txt	LTP138	ltpFR2	4	1	PUDDLE	1140	n/a	n/a	0	0	0
370.098	n/a	WORD	185049	wordpools/wasnorm_wordpool_576.txt	LTP138	ltpFR2	4	1	JELLO	754	n/a	n/a	0	0	0
372.642	n/a	WORD	186321	wordpools/wasnorm_wordpool_576.txt	LTP138	ltpFR2	4	1	EYELASH	546	n/a	n/a	0	0	0
375.436	n/a	WORD	187718	wordpools/wasnorm_wordpool_576.txt	LTP138	ltpFR2	4	1	MARKET	871	n/a	n/a	0	0	0
378.112	n/a	WORD	189056	wordpools/wasnorm_wordpool_576.txt	LTP138	ltpFR2	4	1	COOKBOOK	373	n/a	n/a	0	0	0
380.874	n/a	WORD	190437	wordpools/wasnorm_wordpool_576.txt	LTP138	ltpFR2	4	1	GAVEL	627	n/a	n/a	0	0	0
383.502	n/a	WORD	191751	wordpools/wasnorm_wordpool_576.txt	LTP138	ltpFR2	4	1	LUMBER	848	n/a	n/a	0	0	0
386.296	n/a	WORD	193148	wordpools/wasnorm_wordpool_576.txt	LTP138	ltpFR2	4	1	AUTHOR	61	n/a	n/a	0	0	0
388.87	n/a	WORD	194435	wordpools/wasnorm_wordpool_576.txt	LTP138	ltpFR2	4	1	JUGGLER	763	n/a	n/a	0	0	0
391.532	n/a	WORD	195766	wordpools/wasnorm_wordpool_576.txt	LTP138	ltpFR2	4	1	POSSUM	1112	n/a	n/a	0	0	0
394.14	n/a	WORD	197070	wordpools/wasnorm_wordpool_576.txt	LTP138	ltpFR2	4	1	ROBBER	1197	n/a	n/a	0	0	0
396.934	n/a	WORD	198467	wordpools/wasnorm_wordpool_576.txt	LTP138	ltpFR2	4	1	THIEF	1456	n/a	n/a	0	0	0
399.378	n/a	WORD	199689	wordpools/wasnorm_wordpool_576.txt	LTP138	ltpFR2	4	1	CELLAR	267	n/a	n/a	0	0	0
402.122	n/a	WORD	201061	wordpools/wasnorm_wordpool_576.txt	LTP138	ltpFR2	4	1	WAITRESS	1581	n/a	n/a	0	0	0
404.798	n/a	WORD	202399	wordpools/wasnorm_wordpool_576.txt	LTP138	ltpFR2	4	1	STREAM	1392	n/a	n/a	0	0	0
407.61	n/a	WORD	203805	wordpools/wasnorm_wordpool_576.txt	LTP138	ltpFR2	4	1	FOREST	593	n/a	n/a	0	0	0
410.186	n/a	WORD	205093	wordpools/wasnorm_wordpool_576.txt	LTP138	ltpFR2	4	1	LEADER	807	n/a	n/a	0	0	0
412.896	n/a	WORD	206448	wordpools/wasnorm_wordpool_576.txt	LTP138	ltpFR2	4	1	SPONGE	1355	n/a	n/a	0	0	0
415.472	n/a	WORD	207736	wordpools/wasnorm_wordpool_576.txt	LTP138	ltpFR2	4	1	WASHER	1592	n/a	n/a	0	0	0
418.016	n/a	WORD	209008	wordpools/wasnorm_wordpool_576.txt	LTP138	ltpFR2	4	1	SWIMMER	1420	n/a	n/a	0	0	0
420.692	n/a	WORD	210346	wordpools/wasnorm_wordpool_576.txt	LTP138	ltpFR2	4	1	ICEBERG	731	n/a	n/a	0	0	0
422.3	n/a	START	211150	n/a	LTP138	ltpFR2	4	n/a	n/a	n/a	2	n/a	n/a	n/a	n/a
423.496	n/a	DISTRACTOR	211748	n/a	LTP138	ltpFR2	4	1	n/a	n/a	n/a	n/a	0	0	0
423.504	n/a	PROB	211752	n/a	LTP138	ltpFR2	4	n/a	n/a	n/a	2	16	2	5	9
425.474	n/a	PROB	212737	n/a	LTP138	ltpFR2	4	n/a	n/a	n/a	2	12	6	4	2
426.662	n/a	PROB	213331	n/a	LTP138	ltpFR2	4	n/a	n/a	n/a	2	12	8	2	2
428.05	n/a	PROB	214025	n/a	LTP138	ltpFR2	4	n/a	n/a	n/a	2	13	6	6	1
429.874	n/a	PROB	214937	n/a	LTP138	ltpFR2	4	n/a	n/a	n/a	2	12	3	7	2
431.094	n/a	PROB	215547	n/a	LTP138	ltpFR2	4	n/a	n/a	n/a	2	18	4	6	8
432.434	n/a	PROB	216217	n/a	LTP138	ltpFR2	4	n/a	n/a	n/a	2	16	6	6	4
434.072	n/a	PROB	217036	n/a	LTP138	ltpFR2	4	n/a	n/a	n/a	2	8	4	2	2
435.45	n/a	PROB	217725	n/a	LTP138	ltpFR2	4	n/a	n/a	n/a	2	11	6	1	4
439.21	n/a	PROB	219605	n/a	LTP138	ltpFR2	4	n/a	n/a	n/a	2	16	1	9	6
440.364	n/a	PROB	220182	n/a	LTP138	ltpFR2	4	n/a	n/a	n/a	2	18	2	9	7
443.676	n/a	PROB	221838	n/a	LTP138	ltpFR2	4	n/a	n/a	n/a	2	12	2	4	6
444.864	n/a	STOP	222432	n/a	LTP138	ltpFR2	4	n/a	n/a	n/a	2	n/a	n/a	n/a	n/a
448.232	n/a	REC_START	224116	n/a	LTP138	ltpFR2	4	1	n/a	n/a	n/a	n/a	0	0	0
449.25	n/a	REC_WORD	224625	wordpools/wasnorm_wordpool_576.txt	LTP138	ltpFR2	4	1	ICEBERG	731	n/a	n/a	0	0	0
450.202	n/a	REC_WORD	225101	wordpools/wasnorm_wordpool_576.txt	LTP138	ltpFR2	4	1	SWIMMER	1420	n/a	n/a	0	0	0
451.624	n/a	REC_WORD	225812	wordpools/wasnorm_wordpool_576.txt	LTP138	ltpFR2	4	1	WASHER	1592	n/a	n/a	0	0	0
452.484	n/a	REC_WORD	226242	wordpools/wasnorm_wordpool_576.txt	LTP138	ltpFR2	4	1	SPONGE	1355	n/a	n/a	0	0	0
453.896	n/a	REC_WORD	226948	wordpools/wasnorm_wordpool_576.txt	LTP138	ltpFR2	4	1	PUDDLE	1140	n/a	n/a	0	0	0
455.862	n/a	REC_WORD	227931	wordpools/wasnorm_wordpool_576.txt	LTP138	ltpFR2	4	1	STREAM	1392	n/a	n/a	0	0	0
456.862	n/a	REC_WORD_VV	228431	wordpools/wasnorm_wordpool_576.txt	LTP138	ltpFR2	4	1	<>	-1	n/a	n/a	0	0	0
457.998	n/a	REC_WORD	228999	wordpools/wasnorm_wordpool_576.txt	LTP138	ltpFR2	4	1	LUMBER	848	n/a	n/a	0	0	0
461.56	n/a	REC_WORD	230780	wordpools/wasnorm_wordpool_576.txt	LTP138	ltpFR2	4	1	CELLAR	267	n/a	n/a	0	0	0
463.018	n/a	REC_WORD	231509	wordpools/wasnorm_wordpool_576.txt	LTP138	ltpFR2	4	1	WITNESS	1618	n/a	n/a	0	0	0
464.372	n/a	REC_WORD	232186	wordpools/wasnorm_wordpool_576.txt	LTP138	ltpFR2	4	1	GAVEL	627	n/a	n/a	0	0	0
465.796	n/a	REC_WORD	232898	wordpools/wasnorm_wordpool_576.txt	LTP138	ltpFR2	4	1	ROBBER	1197	n/a	n/a	0	0	0
466.92	n/a	REC_WORD	233460	wordpools/wasnorm_wordpool_576.txt	LTP138	ltpFR2	4	1	THIEF	1456	n/a	n/a	0	0	0
468.55	n/a	REC_WORD	234275	wordpools/wasnorm_wordpool_576.txt	LTP138	ltpFR2	4	1	WAITRESS	1581	n/a	n/a	0	0	0
469.788	n/a	REC_WORD	234894	wordpools/wasnorm_wordpool_576.txt	LTP138	ltpFR2	4	1	COOKBOOK	373	n/a	n/a	0	0	0
471.83	n/a	REC_WORD	235915	wordpools/wasnorm_wordpool_576.txt	LTP138	ltpFR2	4	1	PASTA	1021	n/a	n/a	0	0	0
473.662	n/a	REC_WORD	236831	wordpools/wasnorm_wordpool_576.txt	LTP138	ltpFR2	4	1	JELLO	754	n/a	n/a	0	0	0
539.33	n/a	WORD	269665	wordpools/wasnorm_wordpool_576.txt	LTP138	ltpFR2	4	2	PERFUME	1049	n/a	n/a	0	0	0
542.106	n/a	WORD	271053	wordpools/wasnorm_wordpool_576.txt	LTP138	ltpFR2	4	2	FRAGRANCE	599	n/a	n/a	0	0	0
544.9	n/a	WORD	272450	wordpools/wasnorm_wordpool_576.txt	LTP138	ltpFR2	4	2	STAR	1373	n/a	n/a	0	0	0
547.478	n/a	WORD	273739	wordpools/wasnorm_wordpool_576.txt	LTP138	ltpFR2	4	2	MEDAL	885	n/a	n/a	0	0	0
549.916	n/a	WORD	274958	wordpools/wasnorm_wordpool_576.txt	LTP138	ltpFR2	4	2	CATCHER	258	n/a	n/a	0	0	0
552.346	n/a	WORD	276173	wordpools/wasnorm_wordpool_576.txt	LTP138	ltpFR2	4	2	BLUEPRINT	142	n/a	n/a	0	0	0
555.006	n/a	WORD	277503	wordpools/wasnorm_wordpool_576.txt	LTP138	ltpFR2	4	2	DUSTPAN	509	n/a	n/a	0	0	0
557.666	n/a	WORD	278833	wordpools/wasnorm_wordpool_576.txt	LTP138	ltpFR2	4	2	BELLY	119	n/a	n/a	0	0	0
560.192	n/a	WORD	280096	wordpools/wasnorm_wordpool_576.txt	LTP138	ltpFR2	4	2	CATTLE	261	n/a	n/a	0	0	0
562.632	n/a	WORD	281316	wordpools/wasnorm_wordpool_576.txt	LTP138	ltpFR2	4	2	LASER	801	n/a	n/a	0	0	0
565.412	n/a	WORD	282706	wordpools/wasnorm_wordpool_576.txt	LTP138	ltpFR2	4	2	HOOK	715	n/a	n/a	0	0	0
567.856	n/a	WORD	283928	wordpools/wasnorm_wordpool_576.txt	LTP138	ltpFR2	4	2	BATHTUB	100	n/a	n/a	0	0	0
570.562	n/a	WORD	285281	wordpools/wasnorm_wordpool_576.txt	LTP138	ltpFR2	4	2	STUDENT	1395	n/a	n/a	0	0	0
573.326	n/a	WORD	286663	wordpools/wasnorm_wordpool_576.txt	LTP138	ltpFR2	4	2	ATLAS	53	n/a	n/a	0	0	0
575.836	n/a	WORD	287918	wordpools/wasnorm_wordpool_576.txt	LTP138	ltpFR2	4	2	BLOCKADE	137	n/a	n/a	0	0	0
578.646	n/a	WORD	289323	wordpools/wasnorm_wordpool_576.txt	LTP138	ltpFR2	4	2	STOMACH	1384	n/a	n/a	0	0	0
581.256	n/a	WORD	290628	wordpools/wasnorm_wordpool_576.txt	LTP138	ltpFR2	4	2	BUTCHER	203	n/a	n/a	0	0	0
583.678	n/a	WORD	291839	wordpools/wasnorm_wordpool_576.txt	LTP138	ltpFR2	4	2	HOUND	724	n/a	n/a	0	0	0
586.122	n/a	WORD	293061	wordpools/wasnorm_wordpool_576.txt	LTP138	ltpFR2	4	2	VALVE	1546	n/a	n/a	0	0	0
588.548	n/a	WORD	294274	wordpools/wasnorm_wordpool_576.txt	LTP138	ltpFR2	4	2	MILDEW	893	n/a	n/a	0	0	0
591.06	n/a	WORD	295530	wordpools/wasnorm_wordpool_576.txt	LTP138	ltpFR2	4	2	CARROT	249	n/a	n/a	0	0	0
593.854	n/a	WORD	296927	wordpools/wasnorm_wordpool_576.txt	LTP138	ltpFR2	4	2	GRAVE	658	n/a	n/a	0	0	0
596.414	n/a	WORD	298207	wordpools/wasnorm_wordpool_576.txt	LTP138	ltpFR2	4	2	BULLET	194	n/a	n/a	0	0	0
599.226	n/a	WORD	299613	wordpools/wasnorm_wordpool_576.txt	LTP138	ltpFR2	4	2	GANGSTER	620	n/a	n/a	0	0	0
600.83	n/a	START	300415	n/a	LTP138	ltpFR2	4	n/a	n/a	n/a	3	n/a	n/a	n/a	n/a
601.744	n/a	DISTRACTOR	300872	n/a	LTP138	ltpFR2	4	2	n/a	n/a	n/a	n/a	0	0	0
601.75	n/a	PROB	300875	n/a	LTP138	ltpFR2	4	n/a	n/a	n/a	3	7	4	1	2
603.554	n/a	PROB	301777	n/a	LTP138	ltpFR2	4	n/a	n/a	n/a	3	13	5	3	5
604.91	n/a	PROB	302455	n/a	LTP138	ltpFR2	4	n/a	n/a	n/a	3	8	5	2	1
606.734	n/a	PROB	303367	n/a	LTP138	ltpFR2	4	n/a	n/a	n/a	3	14	7	2	5
609.394	n/a	PROB	304697	n/a	LTP138	ltpFR2	4	n/a	n/a	n/a	3	18	9	8	1
610.65	n/a	PROB	305325	n/a	LTP138	ltpFR2	4	n/a	n/a	n/a	3	21	5	8	8
612.59	n/a	PROB	306295	n/a	LTP138	ltpFR2	4	n/a	n/a	n/a	3	12	1	7	4
613.93	n/a	PROB	306965	n/a	LTP138	ltpFR2	4	n/a	n/a	n/a	3	9	1	1	7
615.334	n/a	PROB	307667	n/a	LTP138	ltpFR2	4	n/a	n/a	n/a	3	25	9	8	8
621.36	n/a	PROB	310680	n/a	LTP138	ltpFR2	4	n/a	n/a	n/a	3	5	2	2	1
622.632	n/a	PROB	311316	n/a	LTP138	ltpFR2	4	n/a	n/a	n/a	3	12	4	4	5
624.22	n/a	STOP	312110	n/a	LTP138	ltpFR2	4	n/a	n/a	n/a	3	n/a	n/a	n/a	n/a
626.782	n/a	REC_START	313391	n/a	LTP138	ltpFR2	4	2	n/a	n/a	n/a	n/a	0	0	0
628.064	n/a	REC_WORD	314032	wordpools/wasnorm_wordpool_576.txt	LTP138	ltpFR2	4	2	VALVE	1546	n/a	n/a	0	0	0
628.956	n/a	REC_WORD	314478	wordpools/wasnorm_wordpool_576.txt	LTP138	ltpFR2	4	2	MILDEW	893	n/a	n/a	0	0	0
629.956	n/a	REC_WORD	314978	wordpools/wasnorm_wordpool_576.txt	LTP138	ltpFR2	4	2	CARROT	249	n/a	n/a	0	0	0
631.6	n/a	REC_WORD	315800	wordpools/wasnorm_wordpool_576.txt	LTP138	ltpFR2	4	2	GANGSTER	620	n/a	n/a	0	0	0
632.614	n/a	REC_WORD	316307	wordpools/wasnorm_wordpool_576.txt	LTP138	ltpFR2	4	2	BULLET	194	n/a	n/a	0	0	0
633.642	n/a	REC_WORD	316821	wordpools/wasnorm_wordpool_576.txt	LTP138	ltpFR2	4	2	GRAVE	658	n/a	n/a	0	0	0
635.936	n/a	REC_WORD	317968	wordpools/wasnorm_wordpool_576.txt	LTP138	ltpFR2	4	2	HOUND	724	n/a	n/a	0	0	0
639.344	n/a	REC_WORD	319672	wordpools/wasnorm_wordpool_576.txt	LTP138	ltpFR2	4	2	DUSTPAN	509	n/a	n/a	0	0	0
642.172	n/a	REC_WORD	321086	wordpools/wasnorm_wordpool_576.txt	LTP138	ltpFR2	4	2	STOMACH	1384	n/a	n/a	0	0	0
643.784	n/a	REC_WORD	321892	wordpools/wasnorm_wordpool_576.txt	LTP138	ltpFR2	4	2	BELLY	119	n/a	n/a	0	0	0
646.77	n/a	REC_WORD	323385	wordpools/wasnorm_wordpool_576.txt	LTP138	ltpFR2	4	2	BUTCHER	203	n/a	n/a	0	0	0
649.006	n/a	REC_WORD	324503	wordpools/wasnorm_wordpool_576.txt	LTP138	ltpFR2	4	2	CATCHER	258	n/a	n/a	0	0	0
650.712	n/a	REC_WORD	325356	wordpools/wasnorm_wordpool_576.txt	LTP138	ltpFR2	4	2	BLUEPRINT	142	n/a	n/a	0	0	0
652.504	n/a	REC_WORD	326252	wordpools/wasnorm_wordpool_576.txt	LTP138	ltpFR2	4	2	STAR	1373	n/a	n/a	0	0	0
655.148	n/a	REC_WORD	327574	wordpools/wasnorm_wordpool_576.txt	LTP138	ltpFR2	4	2	PERFUME	1049	n/a	n/a	0	0	0
656.59	n/a	REC_WORD	328295	wordpools/wasnorm_wordpool_576.txt	LTP138	ltpFR2	4	2	FRAGRANCE	599	n/a	n/a	0	0	0
665.708	n/a	REC_WORD	332854	wordpools/wasnorm_wordpool_576.txt	LTP138	ltpFR2	4	2	ATLAS	53	n/a	n/a	0	0	0
717.828	n/a	WORD	358914	wordpools/wasnorm_wordpool_576.txt	LTP138	ltpFR2	4	3	RUG	1215	n/a	n/a	0	0	0
720.356	n/a	WORD	360178	wordpools/wasnorm_wordpool_576.txt	LTP138	ltpFR2	4	3	GROUND	666	n/a	n/a	0	0	0
722.96	n/a	WORD	361480	wordpools/wasnorm_wordpool_576.txt	LTP138	ltpFR2	4	3	ACTRESS	6	n/a	n/a	0	0	0
725.558	n/a	WORD	362779	wordpools/wasnorm_wordpool_576.txt	LTP138	ltpFR2	4	3	KEEPER	769	n/a	n/a	0	0	0
728.066	n/a	WORD	364033	wordpools/wasnorm_wordpool_576.txt	LTP138	ltpFR2	4	3	LABEL	790	n/a	n/a	0	0	0
730.56	n/a	WORD	365280	wordpools/wasnorm_wordpool_576.txt	LTP138	ltpFR2	4	3	FRIEND	606	n/a	n/a	0	0	0
733.12	n/a	WORD	366560	wordpools/wasnorm_wordpool_576.txt	LTP138	ltpFR2	4	3	COTTAGE	384	n/a	n/a	0	0	0
735.73	n/a	WORD	367865	wordpools/wasnorm_wordpool_576.txt	LTP138	ltpFR2	4	3	AIRPLANE	12	n/a	n/a	0	0	0
738.354	n/a	WORD	369177	wordpools/wasnorm_wordpool_576.txt	LTP138	ltpFR2	4	3	CLOCK	325	n/a	n/a	0	0	0
740.882	n/a	WORD	370441	wordpools/wasnorm_wordpool_576.txt	LTP138	ltpFR2	4	3	PERCH	1048	n/a	n/a	0	0	0
743.694	n/a	WORD	371847	wordpools/wasnorm_wordpool_576.txt	LTP138	ltpFR2	4	3	FLIPPER	580	n/a	n/a	0	0	0
746.22	n/a	WORD	373110	wordpools/wasnorm_wordpool_576.txt	LTP138	ltpFR2	4	3	LAVA	804	n/a	n/a	0	0	0
748.896	n/a	WORD	374448	wordpools/wasnorm_wordpool_576.txt	LTP138	ltpFR2	4	3	GYMNAST	675	n/a	n/a	0	0	0
751.608	n/a	WORD	375804	wordpools/wasnorm_wordpool_576.txt	LTP138	ltpFR2	4	3	ICING	732	n/a	n/a	0	0	0
754.302	n/a	WORD	377151	wordpools/wasnorm_wordpool_576.txt	LTP138	ltpFR2	4	3	NEUTRON	947	n/a	n/a	0	0	0
756.724	n/a	WORD	378362	wordpools/wasnorm_wordpool_576.txt	LTP138	ltpFR2	4	3	GRAPE	654	n/a	n/a	0	0	0
759.22	n/a	WORD	379610	wordpools/wasnorm_wordpool_576.txt	LTP138	ltpFR2	4	3	EUROPE	541	n/a	n/a	0	0	0
761.914	n/a	WORD	380957	wordpools/wasnorm_wordpool_576.txt	LTP138	ltpFR2	4	3	SUNRISE	1407	n/a	n/a	0	0	0
764.658	n/a	WORD	382329	wordpools/wasnorm_wordpool_576.txt	LTP138	ltpFR2	4	3	FRUIT	610	n/a	n/a	0	0	0
767.402	n/a	WORD	383701	wordpools/wasnorm_wordpool_576.txt	LTP138	ltpFR2	4	3	PUDDING	1139	n/a	n/a	0	0	0
770.01	n/a	WORD	385005	wordpools/wasnorm_wordpool_576.txt	LTP138	ltpFR2	4	3	STAMP	1370	n/a	n/a	0	0	0
772.454	n/a	WORD	386227	wordpools/wasnorm_wordpool_576.txt	LTP138	ltpFR2	4	3	POSTAGE	1113	n/a	n/a	0	0	0
775.03	n/a	WORD	387515	wordpools/wasnorm_wordpool_576.txt	LTP138	ltpFR2	4	3	SHOVEL	1295	n/a	n/a	0	0	0
777.458	n/a	WORD	388729	wordpools/wasnorm_wordpool_576.txt	LTP138	ltpFR2	4	3	CUSTARD	429	n/a	n/a	0	0	0
779.062	n/a	START	389531	n/a	LTP138	ltpFR2	4	n/a	n/a	n/a	4	n/a	n/a	n/a	n/a
780.042	n/a	DISTRACTOR	390021	n/a	LTP138	ltpFR2	4	3	n/a	n/a	n/a	n/a	0	0	0
780.05	n/a	PROB	390025	n/a	LTP138	ltpFR2	4	n/a	n/a	n/a	4	17	4	9	4
781.772	n/a	PROB	390886	n/a	LTP138	ltpFR2	4	n/a	n/a	n/a	4	15	9	3	3
783.358	n/a	PROB	391679	n/a	LTP138	ltpFR2	4	n/a	n/a	n/a	4	15	5	3	7
785.488	n/a	PROB	392744	n/a	LTP138	ltpFR2	4	n/a	n/a	n/a	4	14	7	1	6
786.924	n/a	PROB	393462	n/a	LTP138	ltpFR2	4	n/a	n/a	n/a	4	7	1	5	1
788.21	n/a	PROB	394105	n/a	LTP138	ltpFR2	4	n/a	n/a	n/a	4	7	1	4	2
789.686	n/a	PROB	394843	n/a	LTP138	ltpFR2	4	n/a	n/a	n/a	4	15	6	5	4
791.612	n/a	PROB	395806	n/a	LTP138	ltpFR2	4	n/a	n/a	n/a	4	15	5	2	8
794.254	n/a	PROB	397127	n/a	LTP138	ltpFR2	4	n/a	n/a	n/a	4	18	7	3	8
795.672	n/a	PROB	397836	n/a	LTP138	ltpFR2	4	n/a	n/a	n/a	4	10	2	2	6
797.148	n/a	PROB	398574	n/a	LTP138	ltpFR2	4	n/a	n/a	n/a	4	11	5	3	3
798.5	n/a	PROB	399250	n/a	LTP138	ltpFR2	4	n/a	n/a	n/a	4	15	7	1	7
800.224	n/a	PROB	400112	n/a	LTP138	ltpFR2	4	n/a	n/a	n/a	4	15	5	6	4
801.956	n/a	STOP	400978	n/a	LTP138	ltpFR2	4	n/a	n/a	n/a	4	n/a	n/a	n/a	n/a
804.86	n/a	REC_START	402430	n/a	LTP138	ltpFR2	4	3	n/a	n/a	n/a	n/a	0	0	0
805.916	n/a	REC_WORD	402958	wordpools/wasnorm_wordpool_576.txt	LTP138	ltpFR2	4	3	LAVA	804	n/a	n/a	0	0	0
806.844	n/a	REC_WORD	403422	wordpools/wasnorm_wordpool_576.txt	LTP138	ltpFR2	4	3	SHOVEL	1295	n/a	n/a	0	0	0
808.324	n/a	REC_WORD	404162	wordpools/wasnorm_wordpool_576.txt	LTP138	ltpFR2	4	3	AIRPLANE	12	n/a	n/a	0	0	0
809.318	n/a	REC_WORD	404659	wordpools/wasnorm_wordpool_576.txt	LTP138	ltpFR2	4	3	SUNRISE	1407	n/a	n/a	0	0	0
811.04	n/a	REC_WORD	405520	wordpools/wasnorm_wordpool_576.txt	LTP138	ltpFR2	4	3	COTTAGE	384	n/a	n/a	0	0	0
812.222	n/a	REC_WORD	406111	wordpools/wasnorm_wordpool_576.txt	LTP138	ltpFR2	4	3	GROUND	666	n/a	n/a	0	0	0
813.504	n/a	REC_WORD	406752	wordpools/wasnorm_wordpool_576.txt	LTP138	ltpFR2	4	3	RUG	1215	n/a	n/a	0	0	0
814.928	n/a	REC_WORD	407464	wordpools/wasnorm_wordpool_576.txt	LTP138	ltpFR2	4	3	PERCH	1048	n/a	n/a	0	0	0
815.9	n/a	REC_WORD	407950	wordpools/wasnorm_wordpool_576.txt	LTP138	ltpFR2	4	3	FLIPPER	580	n/a	n/a	0	0	0
817.022	n/a	REC_WORD	408511	wordpools/wasnorm_wordpool_576.txt	LTP138	ltpFR2	4	3	CLOCK	325	n/a	n/a	0	0	0
818.394	n/a	REC_WORD	409197	wordpools/wasnorm_wordpool_576.txt	LTP138	ltpFR2	4	3	LABEL	790	n/a	n/a	0	0	0
819.548	n/a	REC_WORD	409774	wordpools/wasnorm_wordpool_576.txt	LTP138	ltpFR2	4	3	ACTRESS	6	n/a	n/a	0	0	0
820.754	n/a	REC_WORD	410377	wordpools/wasnorm_wordpool_576.txt	LTP138	ltpFR2	4	3	FRIEND	606	n/a	n/a	0	0	0
822.204	n/a	REC_WORD	411102	wordpools/wasnorm_wordpool_576.txt	LTP138	ltpFR2	4	3	GYMNAST	675	n/a	n/a	0	0	0
828.05	n/a	REC_WORD	414025	wordpools/wasnorm_wordpool_576.txt	LTP138	ltpFR2	4	3	NEUTRON	947	n/a	n/a	0	0	0
835.146	n/a	REC_WORD	417573	wordpools/wasnorm_wordpool_576.txt	LTP138	ltpFR2	4	3	PUDDING	1139	n/a	n/a	0	0	0
836.046	n/a	REC_WORD	418023	wordpools/wasnorm_wordpool_576.txt	LTP138	ltpFR2	4	3	CUSTARD	429	n/a	n/a	0	0	0
837.166	n/a	REC_WORD	418583	wordpools/wasnorm_wordpool_576.txt	LTP138	ltpFR2	4	3	GRAPE	654	n/a	n/a	0	0	0
838.392	n/a	REC_WORD	419196	wordpools/wasnorm_wordpool_576.txt	LTP138	ltpFR2	4	3	FRUIT	610	n/a	n/a	0	0	0
856.576	n/a	REC_WORD	428288	wordpools/wasnorm_wordpool_576.txt	LTP138	ltpFR2	4	3	AIRPLANE	12	n/a	n/a	0	0	0
936.348	n/a	WORD	468174	wordpools/wasnorm_wordpool_576.txt	LTP138	ltpFR2	4	4	PEDAL	1037	n/a	n/a	0	0	0
938.89	n/a	WORD	469445	wordpools/wasnorm_wordpool_576.txt	LTP138	ltpFR2	4	4	CABIN	211	n/a	n/a	0	0	0
941.7	n/a	WORD	470850	wordpools/wasnorm_wordpool_576.txt	LTP138	ltpFR2	4	4	CEILING	265	n/a	n/a	0	0	0
944.362	n/a	WORD	472181	wordpools/wasnorm_wordpool_576.txt	LTP138	ltpFR2	4	4	VELVET	1555	n/a	n/a	0	0	0
947.004	n/a	WORD	473502	wordpools/wasnorm_wordpool_576.txt	LTP138	ltpFR2	4	4	PEANUT	1032	n/a	n/a	0	0	0
949.598	n/a	WORD	474799	wordpools/wasnorm_wordpool_576.txt	LTP138	ltpFR2	4	4	COLLEGE	346	n/a	n/a	0	0	0
952.206	n/a	WORD	476103	wordpools/wasnorm_wordpool_576.txt	LTP138	ltpFR2	4	4	TYPIST	1532	n/a	n/a	0	0	0
954.766	n/a	WORD	477383	wordpools/wasnorm_wordpool_576.txt	LTP138	ltpFR2	4	4	WORKER	1621	n/a	n/a	0	0	0
957.192	n/a	WORD	478596	wordpools/wasnorm_wordpool_576.txt	LTP138	ltpFR2	4	4	SWORD	1423	n/a	n/a	0	0	0
959.936	n/a	WORD	479968	wordpools/wasnorm_wordpool_576.txt	LTP138	ltpFR2	4	4	PLUTO	1092	n/a	n/a	0	0	0
962.548	n/a	WORD	481274	wordpools/wasnorm_wordpool_576.txt	LTP138	ltpFR2	4	4	CRITIC	410	n/a	n/a	0	0	0
965.156	n/a	WORD	482578	wordpools/wasnorm_wordpool_576.txt	LTP138	ltpFR2	4	4	APPLE	33	n/a	n/a	0	0	0
967.716	n/a	WORD	483858	wordpools/wasnorm_wordpool_576.txt	LTP138	ltpFR2	4	4	BRAKE	166	n/a	n/a	0	0	0
970.26	n/a	WORD	485130	wordpools/wasnorm_wordpool_576.txt	LTP138	ltpFR2	4	4	LOFT	840	n/a	n/a	0	0	0
972.97	n/a	WORD	486485	wordpools/wasnorm_wordpool_576.txt	LTP138	ltpFR2	4	4	SPACE	1345	n/a	n/a	0	0	0
975.696	n/a	WORD	487848	wordpools/wasnorm_wordpool_576.txt	LTP138	ltpFR2	4	4	CORAL	378	n/a	n/a	0	0	0
978.156	n/a	WORD	489078	wordpools/wasnorm_wordpool_576.txt	LTP138	ltpFR2	4	4	FEMALE	559	n/a	n/a	0	0	0
980.866	n/a	WORD	490433	wordpools/wasnorm_wordpool_576.txt	LTP138	ltpFR2	4	4	DRESS	495	n/a	n/a	0	0	0
983.662	n/a	WORD	491831	wordpools/wasnorm_wordpool_576.txt	LTP138	ltpFR2	4	4	JAPAN	749	n/a	n/a	0	0	0
986.322	n/a	WORD	493161	wordpools/wasnorm_wordpool_576.txt	LTP138	ltpFR2	4	4	ASIA	46	n/a	n/a	0	0	0
988.914	n/a	WORD	494457	wordpools/wasnorm_wordpool_576.txt	LTP138	ltpFR2	4	4	RECORD	1176	n/a	n/a	0	0	0
991.676	n/a	WORD	495838	wordpools/wasnorm_wordpool_576.txt	LTP138	ltpFR2	4	4	DAISY	435	n/a	n/a	0	0	0
994.452	n/a	WORD	497226	wordpools/wasnorm_wordpool_576.txt	LTP138	ltpFR2	4	4	MARS	873	n/a	n/a	0	0	0
997.094	n/a	WORD	498547	wordpools/wasnorm_wordpool_576.txt	LTP138	ltpFR2	4	4	MUFFIN	929	n/a	n/a	0	0	0
998.702	n/a	START	499351	n/a	LTP138	ltpFR2	4	n/a	n/a	n/a	5	n/a	n/a	n/a	n/a
999.52	n/a	DISTRACTOR	499760	n/a	LTP138	ltpFR2	4	4	n/a	n/a	n/a	n/a	0	0	0
999.536	n/a	PROB	499768	n/a	LTP138	ltpFR2	4	n/a	n/a	n/a	5	17	2	9	6
1002.078	n/a	PROB	501039	n/a	LTP138	ltpFR2	4	n/a	n/a	n/a	5	13	3	7	3
1003.622	n/a	PROB	501811	n/a	LTP138	ltpFR2	4	n/a	n/a	n/a	5	8	2	1	5
1004.992	n/a	PROB	502496	n/a	LTP138	ltpFR2	4	n/a	n/a	n/a	5	16	7	1	8
1006.68	n/a	PROB	503340	n/a	LTP138	ltpFR2	4	n/a	n/a	n/a	5	20	4	9	7
1009.51	n/a	PROB	504755	n/a	LTP138	ltpFR2	4	n/a	n/a	n/a	5	12	9	1	2
1010.714	n/a	PROB	505357	n/a	LTP138	ltpFR2	4	n/a	n/a	n/a	5	15	7	6	2
1012.7	n/a	PROB	506350	n/a	LTP138	ltpFR2	4	n/a	n/a	n/a	5	13	2	7	4
1015.01	n/a	PROB	507505	n/a	LTP138	ltpFR2	4	n/a	n/a	n/a	5	16	6	2	8
1016.72	n/a	PROB	508360	n/a	LTP138	ltpFR2	4	n/a	n/a	n/a	5	9	4	3	2
1018.308	n/a	PROB	509154	n/a	LTP138	ltpFR2	4	n/a	n/a	n/a	5	22	9	6	6
1022.704	n/a	STOP	511352	n/a	LTP138	ltpFR2	4	n/a	n/a	n/a	5	n/a	n/a	n/a	n/a
1024.468	n/a	REC_START	512234	n/a	LTP138	ltpFR2	4	4	n/a	n/a	n/a	n/a	0	0	0
1025.278	n/a	REC_WORD	512639	wordpools/wasnorm_wordpool_576.txt	LTP138	ltpFR2	4	4	MUFFIN	929	n/a	n/a	0	0	0
1026.292	n/a	REC_WORD	513146	wordpools/wasnorm_wordpool_576.txt	LTP138	ltpFR2	4	4	MARS	873	n/a	n/a	0	0	0
1027.682	n/a	REC_WORD	513841	wordpools/wasnorm_wordpool_576.txt	LTP138	ltpFR2	4	4	PLUTO	1092	n/a	n/a	0	0	0
1029.384	n/a	REC_WORD_VV	514692	wordpools/wasnorm_wordpool_576.txt	LTP138	ltpFR2	4	4	<>	-1	n/a	n/a	0	0	0
1029.794	n/a	REC_WORD	514897	wordpools/wasnorm_wordpool_576.txt	LTP138	ltpFR2	4	4	ASIA	46	n/a	n/a	0	0	0
1030.552	n/a	REC_WORD	515276	wordpools/wasnorm_wordpool_576.txt	LTP138	ltpFR2	4	4	JAPAN	749	n/a	n/a	0	0	0
1036.82	n/a	REC_WORD	518410	wordpools/wasnorm_wordpool_576.txt	LTP138	ltpFR2	4	4	APPLE	33	n/a	n/a	0	0	0
1037.656	n/a	REC_WORD	518828	wordpools/wasnorm_wordpool_576.txt	LTP138	ltpFR2	4	4	SWORD	1423	n/a	n/a	0	0	0
1040.514	n/a	REC_WORD	520257	wordpools/wasnorm_wordpool_576.txt	LTP138	ltpFR2	4	4	CABIN	211	n/a	n/a	0	0	0
1041.51	n/a	REC_WORD	520755	wordpools/wasnorm_wordpool_576.txt	LTP138	ltpFR2	4	4	SPACE	1345	n/a	n/a	0	0	0
1042.682	n/a	REC_WORD	521341	wordpools/wasnorm_wordpool_576.txt	LTP138	ltpFR2	4	4	CEILING	265	n/a	n/a	0	0	0
1044.28	n/a	REC_WORD	522140	wordpools/wasnorm_wordpool_576.txt	LTP138	ltpFR2	4	4	PEDAL	1037	n/a	n/a	0	0	0
1045.602	n/a	REC_WORD	522801	wordpools/wasnorm_wordpool_576.txt	LTP138	ltpFR2	4	4	BRAKE	166	n/a	n/a	0	0	0
1049.504	n/a	REC_WORD	524752	wordpools/wasnorm_wordpool_576.txt	LTP138	ltpFR2	4	4	DAISY	435	n/a	n/a	0	0	0
1052.688	n/a	REC_WORD	526344	wordpools/wasnorm_wordpool_576.txt	LTP138	ltpFR2	4	4	TYPIST	1532	n/a	n/a	0	0	0
1057.4	n/a	REC_WORD	528700	wordpools/wasnorm_wordpool_576.txt	LTP138	ltpFR2	4	4	FEMALE	559	n/a	n/a	0	0	0
1058.812	n/a	REC_WORD	529406	wordpools/wasnorm_wordpool_576.txt	LTP138	ltpFR2	4	4	STUDENT	1395	n/a	n/a	0	0	0
1065.202	n/a	REC_WORD	532601	wordpools/wasnorm_wordpool_576.txt	LTP138	ltpFR2	4	4	VELVET	1555	n/a	n/a	0	0	0
1066.188	n/a	REC_WORD	533094	wordpools/wasnorm_wordpool_576.txt	LTP138	ltpFR2	4	4	PEANUT	1032	n/a	n/a	0	0	0
1088.11	n/a	REC_WORD	544055	wordpools/wasnorm_wordpool_576.txt	LTP138	ltpFR2	4	4	JOURNAL	760	n/a	n/a	0	0	0
1115.498	n/a	DISTRACTOR	557749	n/a	LTP138	ltpFR2	4	5	n/a	n/a	n/a	n/a	0	0	0
1115.5	n/a	START	557750	n/a	LTP138	ltpFR2	4	n/a	n/a	n/a	6	n/a	n/a	n/a	n/a
1115.55	n/a	PROB	557775	n/a	LTP138	ltpFR2	4	n/a	n/a	n/a	6	18	3	8	7
1117.268	n/a	PROB	558634	n/a	LTP138	ltpFR2	4	n/a	n/a	n/a	6	12	6	5	1
1119.094	n/a	PROB	559547	n/a	LTP138	ltpFR2	4	n/a	n/a	n/a	6	13	4	2	7
1120.764	n/a	PROB	560382	n/a	LTP138	ltpFR2	4	n/a	n/a	n/a	6	20	9	7	4
1123.072	n/a	PROB	561536	n/a	LTP138	ltpFR2	4	n/a	n/a	n/a	6	14	4	3	7
1124.88	n/a	PROB	562440	n/a	LTP138	ltpFR2	4	n/a	n/a	n/a	6	16	1	8	7
1126.27	n/a	PROB	563135	n/a	LTP138	ltpFR2	4	n/a	n/a	n/a	6	17	4	7	6
1128.326	n/a	PROB	564163	n/a	LTP138	ltpFR2	4	n/a	n/a	n/a	6	24	8	9	7
1129.932	n/a	PROB	564966	n/a	LTP138	ltpFR2	4	n/a	n/a	n/a	6	15	5	4	6
1131.36	n/a	PROB	565680	n/a	LTP138	ltpFR2	4	n/a	n/a	n/a	6	14	3	8	3
1132.81	n/a	PROB	566405	n/a	LTP138	ltpFR2	4	n/a	n/a	n/a	6	14	8	2	4
1134.25	n/a	PROB	567125	n/a	LTP138	ltpFR2	4	n/a	n/a	n/a	6	11	3	4	4
1136.174	n/a	PROB	568087	n/a	LTP138	ltpFR2	4	n/a	n/a	n/a	6	24	9	9	6
1139.35	n/a	STOP	569675	n/a	LTP138	ltpFR2	4	n/a	n/a	n/a	6	n/a	n/a	n/a	n/a
1140.528	n/a	WORD	570264	wordpools/wasnorm_wordpool_576.txt	LTP138	ltpFR2	4	5	SALAD	1224	n/a	n/a	0	0	0
1143.204	n/a	WORD	571602	wordpools/wasnorm_wordpool_576.txt	LTP138	ltpFR2	4	5	RADISH	1158	n/a	n/a	0	0	0
1145.764	n/a	WORD	572882	wordpools/wasnorm_wordpool_576.txt	LTP138	ltpFR2	4	5	NURSE	963	n/a	n/a	0	0	0
1148.526	n/a	WORD	574263	wordpools/wasnorm_wordpool_576.txt	LTP138	ltpFR2	4	5	JEANS	752	n/a	n/a	0	0	0
1151.15	n/a	WORD	575575	wordpools/wasnorm_wordpool_576.txt	LTP138	ltpFR2	4	5	SPHINX	1349	n/a	n/a	0	0	0
1153.678	n/a	WORD	576839	wordpools/wasnorm_wordpool_576.txt	LTP138	ltpFR2	4	5	CAPTIVE	240	n/a	n/a	0	0	0
1156.322	n/a	WORD	578161	wordpools/wasnorm_wordpool_576.txt	LTP138	ltpFR2	4	5	CAFE	216	n/a	n/a	0	0	0
1159.132	n/a	WORD	579566	wordpools/wasnorm_wordpool_576.txt	LTP138	ltpFR2	4	5	COUCH	386	n/a	n/a	0	0	0
1161.758	n/a	WORD	580879	wordpools/wasnorm_wordpool_576.txt	LTP138	ltpFR2	4	5	PADDING	999	n/a	n/a	0	0	0
1164.418	n/a	WORD	582209	wordpools/wasnorm_wordpool_576.txt	LTP138	ltpFR2	4	5	STATUE	1374	n/a	n/a	0	0	0
1167.23	n/a	WORD	583615	wordpools/wasnorm_wordpool_576.txt	LTP138	ltpFR2	4	5	CASHEW	253	n/a	n/a	0	0	0
1169.872	n/a	WORD	584936	wordpools/wasnorm_wordpool_576.txt	LTP138	ltpFR2	4	5	FLASHLIGHT	575	n/a	n/a	0	0	0
1172.618	n/a	WORD	586309	wordpools/wasnorm_wordpool_576.txt	LTP138	ltpFR2	4	5	TUNNEL	1519	n/a	n/a	0	0	0
1175.108	n/a	WORD	587554	wordpools/wasnorm_wordpool_576.txt	LTP138	ltpFR2	4	5	BROTHER	179	n/a	n/a	0	0	0
1177.902	n/a	WORD	588951	wordpools/wasnorm_wordpool_576.txt	LTP138	ltpFR2	4	5	PORK	1108	n/a	n/a	0	0	0
1180.38	n/a	WORD	590190	wordpools/wasnorm_wordpool_576.txt	LTP138	ltpFR2	4	5	PECAN	1036	n/a	n/a	0	0	0
1182.972	n/a	WORD	591486	wordpools/wasnorm_wordpool_576.txt	LTP138	ltpFR2	4	5	GUITAR	670	n/a	n/a	0	0	0
1185.514	n/a	WORD	592757	wordpools/wasnorm_wordpool_576.txt	LTP138	ltpFR2	4	5	SPOOL	1356	n/a	n/a	0	0	0
1188.076	n/a	WORD	594038	wordpools/wasnorm_wordpool_576.txt	LTP138	ltpFR2	4	5	SERVER	1272	n/a	n/a	0	0	0
1190.832	n/a	WORD	595416	wordpools/wasnorm_wordpool_576.txt	LTP138	ltpFR2	4	5	SWAMP	1416	n/a	n/a	0	0	0
1193.326	n/a	WORD	596663	wordpools/wasnorm_wordpool_576.txt	LTP138	ltpFR2	4	5	WRENCH	1625	n/a	n/a	0	0	0
1196.09	n/a	WORD	598045	wordpools/wasnorm_wordpool_576.txt	LTP138	ltpFR2	4	5	DIVER	476	n/a	n/a	0	0	0
1198.716	n/a	WORD	599358	wordpools/wasnorm_wordpool_576.txt	LTP138	ltpFR2	4	5	DENTIST	447	n/a	n/a	0	0	0
1201.49	n/a	WORD	600745	wordpools/wasnorm_wordpool_576.txt	LTP138	ltpFR2	4	5	COD	340	n/a	n/a	0	0	0
1203.1	n/a	START	601550	n/a	LTP138	ltpFR2	4	n/a	n/a	n/a	7	n/a	n/a	n/a	n/a
1204.046	n/a	DISTRACTOR	602023	n/a	LTP138	ltpFR2	4	5	n/a	n/a	n/a	n/a	0	0	0
1204.054	n/a	PROB	602027	n/a	LTP138	ltpFR2	4	n/a	n/a	n/a	7	21	7	6	8
1207.58	n/a	PROB	603790	n/a	LTP138	ltpFR2	4	n/a	n/a	n/a	7	15	7	2	6
1209.572	n/a	PROB	604786	n/a	LTP138	ltpFR2	4	n/a	n/a	n/a	7	19	1	9	9
1211.316	n/a	PROB	605658	n/a	LTP138	ltpFR2	4	n/a	n/a	n/a	7	22	8	9	5
1214.608	n/a	PROB	607304	n/a	LTP138	ltpFR2	4	n/a	n/a	n/a	7	25	8	8	9
1219.242	n/a	PROB	609621	n/a	LTP138	ltpFR2	4	n/a	n/a	n/a	7	14	2	6	6
1221.168	n/a	PROB	610584	n/a	LTP138	ltpFR2	4	n/a	n/a	n/a	7	14	3	2	9
1223.038	n/a	PROB	611519	n/a	LTP138	ltpFR2	4	n/a	n/a	n/a	7	17	7	8	2
1225.398	n/a	PROB	612699	n/a	LTP138	ltpFR2	4	n/a	n/a	n/a	7	12	3	6	3
1226.668	n/a	STOP	613334	n/a	LTP138	ltpFR2	4	n/a	n/a	n/a	7	n/a	n/a	n/a	n/a
1228.932	n/a	REC_START	614466	n/a	LTP138	ltpFR2	4	5	n/a	n/a	n/a	n/a	0	0	0
1229.984	n/a	REC_WORD	614992	wordpools/wasnorm_wordpool_576.txt	LTP138	ltpFR2	4	5	COD	340	n/a	n/a	0	0	0
1231.084	n/a	REC_WORD	615542	wordpools/wasnorm_wordpool_576.txt	LTP138	ltpFR2	4	5	BROTHER	179	n/a	n/a	0	0	0
1231.926	n/a	REC_WORD	615963	wordpools/wasnorm_wordpool_576.txt	LTP138	ltpFR2	4	5	DIVER	476	n/a	n/a	0	0	0
1232.876	n/a	REC_WORD	616438	wordpools/wasnorm_wordpool_576.txt	LTP138	ltpFR2	4	5	DENTIST	447	n/a	n/a	0	0	0
1234.504	n/a	REC_WORD	617252	wordpools/wasnorm_wordpool_576.txt	LTP138	ltpFR2	4	5	TUNNEL	1519	n/a	n/a	0	0	0
1235.684	n/a	REC_WORD	617842	wordpools/wasnorm_wordpool_576.txt	LTP138	ltpFR2	4	5	SWAMP	1416	n/a	n/a	0	0	0
1236.684	n/a	REC_WORD_VV	618342	wordpools/wasnorm_wordpool_576.txt	LTP138	ltpFR2	4	5	<>	-1	n/a	n/a	0	0	0
1237.93	n/a	REC_WORD	618965	wordpools/wasnorm_wordpool_576.txt	LTP138	ltpFR2	4	5	FLASHLIGHT	575	n/a	n/a	0	0	0
1238.93	n/a	REC_WORD_VV	619465	wordpools/wasnorm_wordpool_576.txt	LTP138	ltpFR2	4	5	<>	-1	n/a	n/a	0	0	0
1242.234	n/a	REC_WORD	621117	wordpools/wasnorm_wordpool_576.txt	LTP138	ltpFR2	4	5	SERVER	1272	n/a	n/a	0	0	0
1244.412	n/a	REC_WORD	622206	wordpools/wasnorm_wordpool_576.txt	LTP138	ltpFR2	4	5	CASHEW	253	n/a	n/a	0	0	0
1245.34	n/a	REC_WORD	622670	wordpools/wasnorm_wordpool_576.txt	LTP138	ltpFR2	4	5	PECAN	1036	n/a	n/a	0	0	0
1246.976	n/a	REC_WORD	623488	wordpools/wasnorm_wordpool_576.txt	LTP138	ltpFR2	4	5	SALAD	1224	n/a	n/a	0	0	0
1248.228	n/a	REC_WORD	624114	wordpools/wasnorm_wordpool_576.txt	LTP138	ltpFR2	4	5	RADISH	1158	n/a	n/a	0	0	0
1250.006	n/a	REC_WORD	625003	wordpools/wasnorm_wordpool_576.txt	LTP138	ltpFR2	4	5	COUCH	386	n/a	n/a	0	0	0
1250.808	n/a	REC_WORD	625404	wordpools/wasnorm_wordpool_576.txt	LTP138	ltpFR2	4	5	PADDING	999	n/a	n/a	0	0	0
1251.736	n/a	REC_WORD	625868	wordpools/wasnorm_wordpool_576.txt	LTP138	ltpFR2	4	5	CAFE	216	n/a	n/a	0	0	0
1254.902	n/a	REC_WORD	627451	wordpools/wasnorm_wordpool_576.txt	LTP138	ltpFR2	4	5	STATUE	1374	n/a	n/a	0	0	0
1255.902	n/a	REC_WORD_VV	627951	wordpools/wasnorm_wordpool_576.txt	LTP138	ltpFR2	4	5	<>	-1	n/a	n/a	0	0	0
1257.022	n/a	REC_WORD	628511	wordpools/wasnorm_wordpool_576.txt	LTP138	ltpFR2	4	5	SPHINX	1349	n/a	n/a	0	0	0
1262.86	n/a	REC_WORD	631430	wordpools/wasnorm_wordpool_576.txt	LTP138	ltpFR2	4	5	EUROPE	541	n/a	n/a	0	0	0
1275.338	n/a	REC_WORD	637669	wordpools/wasnorm_wordpool_576.txt	LTP138	ltpFR2	4	5	WAITRESS	1581	n/a	n/a	0	0	0
1319.996	n/a	DISTRACTOR	659998	n/a	LTP138	ltpFR2	4	6	n/a	n/a	n/a	n/a	0	0	0
1319.996	n/a	START	659998	n/a	LTP138	ltpFR2	4	n/a	n/a	n/a	8	n/a	n/a	n/a	n/a
1320.046	n/a	PROB	660023	n/a	LTP138	ltpFR2	4	n/a	n/a	n/a	8	17	4	6	7
1321.934	n/a	PROB	660967	n/a	LTP138	ltpFR2	4	n/a	n/a	n/a	8	9	5	2	2
1323.154	n/a	PROB	661577	n/a	LTP138	ltpFR2	4	n/a	n/a	n/a	8	14	9	3	2
1325.886	n/a	PROB	662943	n/a	LTP138	ltpFR2	4	n/a	n/a	n/a	8	13	2	7	4
1327.876	n/a	PROB	663938	n/a	LTP138	ltpFR2	4	n/a	n/a	n/a	8	12	2	8	2
1329.328	n/a	PROB	664664	n/a	LTP138	ltpFR2	4	n/a	n/a	n/a	8	24	5	9	9
1332.104	n/a	PROB	666052	n/a	LTP138	ltpFR2	4	n/a	n/a	n/a	8	6	2	1	3
1334.85	n/a	PROB	667425	n/a	LTP138	ltpFR2	4	n/a	n/a	n/a	8	6	1	2	3
1336.708	n/a	PROB	668354	n/a	LTP138	ltpFR2	4	n/a	n/a	n/a	8	17	6	7	4
1339.132	n/a	PROB	669566	n/a	LTP138	ltpFR2	4	n/a	n/a	n/a	8	12	3	2	7
1341.86	n/a	PROB	670930	n/a	LTP138	ltpFR2	4	n/a	n/a	n/a	8	5	1	3	1
1343.088	n/a	STOP	671544	n/a	LTP138	ltpFR2	4	n/a	n/a	n/a	8	n/a	n/a	n/a	n/a
1344.924	n/a	WORD	672462	wordpools/wasnorm_wordpool_576.txt	LTP138	ltpFR2	4	6	PUPIL	1143	n/a	n/a	0	0	0
1347.502	n/a	WORD	673751	wordpools/wasnorm_wordpool_576.txt	LTP138	ltpFR2	4	6	SMOG	1330	n/a	n/a	0	0	0
1350.194	n/a	WORD	675097	wordpools/wasnorm_wordpool_576.txt	LTP138	ltpFR2	4	6	DONOR	485	n/a	n/a	0	0	0
1352.672	n/a	WORD	676336	wordpools/wasnorm_wordpool_576.txt	LTP138	ltpFR2	4	6	SEAFOOD	1260	n/a	n/a	0	0	0
1355.4	n/a	WORD	677700	wordpools/wasnorm_wordpool_576.txt	LTP138	ltpFR2	4	6	DINER	467	n/a	n/a	0	0	0
1357.858	n/a	WORD	678929	wordpools/wasnorm_wordpool_576.txt	LTP138	ltpFR2	4	6	ELBOW	520	n/a	n/a	0	0	0
1360.67	n/a	WORD	680335	wordpools/wasnorm_wordpool_576.txt	LTP138	ltpFR2	4	6	FIREPLACE	570	n/a	n/a	0	0	0
1363.48	n/a	WORD	681740	wordpools/wasnorm_wordpool_576.txt	LTP138	ltpFR2	4	6	IGLOO	734	n/a	n/a	0	0	0
1366.156	n/a	WORD	683078	wordpools/wasnorm_wordpool_576.txt	LTP138	ltpFR2	4	6	FRAME	600	n/a	n/a	0	0	0
1368.6	n/a	WORD	684300	wordpools/wasnorm_wordpool_576.txt	LTP138	ltpFR2	4	6	HAMPER	682	n/a	n/a	0	0	0
1371.174	n/a	WORD	685587	wordpools/wasnorm_wordpool_576.txt	LTP138	ltpFR2	4	6	DRAGON	492	n/a	n/a	0	0	0
1373.782	n/a	WORD	686891	wordpools/wasnorm_wordpool_576.txt	LTP138	ltpFR2	4	6	COMET	353	n/a	n/a	0	0	0
1376.228	n/a	WORD	688114	wordpools/wasnorm_wordpool_576.txt	LTP138	ltpFR2	4	6	CLOUD	328	n/a	n/a	0	0	0
1378.672	n/a	WORD	689336	wordpools/wasnorm_wordpool_576.txt	LTP138	ltpFR2	4	6	COUNTRY	388	n/a	n/a	0	0	0
1381.264	n/a	WORD	690632	wordpools/wasnorm_wordpool_576.txt	LTP138	ltpFR2	4	6	CRIB	407	n/a	n/a	0	0	0
1384.058	n/a	WORD	692029	wordpools/wasnorm_wordpool_576.txt	LTP138	ltpFR2	4	6	DENIM	446	n/a	n/a	0	0	0
1386.768	n/a	WORD	693384	wordpools/wasnorm_wordpool_576.txt	LTP138	ltpFR2	4	6	SHORTS	1293	n/a	n/a	0	0	0
1389.478	n/a	WORD	694739	wordpools/wasnorm_wordpool_576.txt	LTP138	ltpFR2	4	6	MISSILE	900	n/a	n/a	0	0	0
1392.156	n/a	WORD	696078	wordpools/wasnorm_wordpool_576.txt	LTP138	ltpFR2	4	6	LIGHTNING	820	n/a	n/a	0	0	0
1394.866	n/a	WORD	697433	wordpools/wasnorm_wordpool_576.txt	LTP138	ltpFR2	4	6	SPARROW	1347	n/a	n/a	0	0	0
1397.628	n/a	WORD	698814	wordpools/wasnorm_wordpool_576.txt	LTP138	ltpFR2	4	6	FIREMAN	569	n/a	n/a	0	0	0
1400.152	n/a	WORD	700076	wordpools/wasnorm_wordpool_576.txt	LTP138	ltpFR2	4	6	HUMAN	726	n/a	n/a	0	0	0
1402.63	n/a	WORD	701315	wordpools/wasnorm_wordpool_576.txt	LTP138	ltpFR2	4	6	BODY	145	n/a	n/a	0	0	0
1405.336	n/a	WORD	702668	wordpools/wasnorm_wordpool_576.txt	LTP138	ltpFR2	4	6	SURVEY	1414	n/a	n/a	0	0	0
1406.944	n/a	START	703472	n/a	LTP138	ltpFR2	4	n/a	n/a	n/a	9	n/a	n/a	n/a	n/a
1407.792	n/a	DISTRACTOR	703896	n/a	LTP138	ltpFR2	4	6	n/a	n/a	n/a	n/a	0	0	0
1407.798	n/a	PROB	703899	n/a	LTP138	ltpFR2	4	n/a	n/a	n/a	9	11	5	5	1
1409.22	n/a	PROB	704610	n/a	LTP138	ltpFR2	4	n/a	n/a	n/a	9	19	5	9	5
1410.708	n/a	PROB	705354	n/a	LTP138	ltpFR2	4	n/a	n/a	n/a	9	16	4	6	6
1412.396	n/a	PROB	706198	n/a	LTP138	ltpFR2	4	n/a	n/a	n/a	9	12	1	4	8
1414.576	n/a	PROB	707288	n/a	LTP138	ltpFR2	4	n/a	n/a	n/a	9	7	4	2	1
1416.144	n/a	PROB	708072	n/a	LTP138	ltpFR2	4	n/a	n/a	n/a	9	15	2	9	4
1419.574	n/a	PROB	709787	n/a	LTP138	ltpFR2	4	n/a	n/a	n/a	9	22	6	9	7
1424.156	n/a	PROB	712078	n/a	LTP138	ltpFR2	4	n/a	n/a	n/a	9	16	8	7	1
1425.762	n/a	PROB	712881	n/a	LTP138	ltpFR2	4	n/a	n/a	n/a	9	11	4	2	5
1427.286	n/a	PROB	713643	n/a	LTP138	ltpFR2	4	n/a	n/a	n/a	9	15	3	8	4
1428.63	n/a	PROB	714315	n/a	LTP138	ltpFR2	4	n/a	n/a	n/a	9	12	8	1	3
1430.262	n/a	STOP	715131	n/a	LTP138	ltpFR2	4	n/a	n/a	n/a	9	n/a	n/a	n/a	n/a
1432.762	n/a	REC_START	716381	n/a	LTP138	ltpFR2	4	6	n/a	n/a	n/a	n/a	0	0	0
1433.72	n/a	REC_WORD	716860	wordpools/wasnorm_wordpool_576.txt	LTP138	ltpFR2	4	6	BODY	145	n/a	n/a	0	0	0
1434.878	n/a	REC_WORD	717439	wordpools/wasnorm_wordpool_576.txt	LTP138	ltpFR2	4	6	ELBOW	520	n/a	n/a	0	0	0
1436.58	n/a	REC_WORD_VV	718290	wordpools/wasnorm_wordpool_576.txt	LTP138	ltpFR2	4	6	<>	-1	n/a	n/a	0	0	0
1436.95	n/a	REC_WORD	718475	wordpools/wasnorm_wordpool_576.txt	LTP138	ltpFR2	4	6	HUMAN	726	n/a	n/a	0	0	0
1439.32	n/a	REC_WORD	719660	wordpools/wasnorm_wordpool_576.txt	LTP138	ltpFR2	4	6	TRANSPLANT	1496	n/a	n/a	0	0	0
1440.484	n/a	REC_WORD	720242	wordpools/wasnorm_wordpool_576.txt	LTP138	ltpFR2	4	6	FIREMAN	569	n/a	n/a	0	0	0
1443.382	n/a	REC_WORD	721691	wordpools/wasnorm_wordpool_576.txt	LTP138	ltpFR2	4	6	PUPIL	1143	n/a	n/a	0	0	0
1444.696	n/a	REC_WORD	722348	wordpools/wasnorm_wordpool_576.txt	LTP138	ltpFR2	4	6	CLOUD	328	n/a	n/a	0	0	0
1446.086	n/a	REC_WORD	723043	wordpools/wasnorm_wordpool_576.txt	LTP138	ltpFR2	4	6	SMOG	1330	n/a	n/a	0	0	0
1447.402	n/a	REC_WORD	723701	wordpools/wasnorm_wordpool_576.txt	LTP138	ltpFR2	4	6	COMET	353	n/a	n/a	0	0	0
1448.462	n/a	REC_WORD	724231	wordpools/wasnorm_wordpool_576.txt	LTP138	ltpFR2	4	6	MISSILE	900	n/a	n/a	0	0	0
1449.958	n/a	REC_WORD	724979	wordpools/wasnorm_wordpool_576.txt	LTP138	ltpFR2	4	6	LIGHTNING	820	n/a	n/a	0	0	0
1454.146	n/a	REC_WORD	727073	wordpools/wasnorm_wordpool_576.txt	LTP138	ltpFR2	4	6	SURVEY	1414	n/a	n/a	0	0	0
1456.728	n/a	REC_WORD	728364	wordpools/wasnorm_wordpool_576.txt	LTP138	ltpFR2	4	6	HAMPER	682	n/a	n/a	0	0	0
1457.884	n/a	REC_WORD	728942	wordpools/wasnorm_wordpool_576.txt	LTP138	ltpFR2	4	6	DRAGON	492	n/a	n/a	0	0	0
1459.034	n/a	REC_WORD	729517	wordpools/wasnorm_wordpool_576.txt	LTP138	ltpFR2	4	6	JEANS	752	n/a	n/a	0	0	0
1461.646	n/a	REC_WORD_VV	730823	wordpools/wasnorm_wordpool_576.txt	LTP138	ltpFR2	4	6	<>	-1	n/a	n/a	0	0	0
1462.16	n/a	REC_WORD	731080	wordpools/wasnorm_wordpool_576.txt	LTP138	ltpFR2	4	6	DENIM	446	n/a	n/a	0	0	0
1463.542	n/a	REC_WORD	731771	wordpools/wasnorm_wordpool_576.txt	LTP138	ltpFR2	4	6	SHORTS	1293	n/a	n/a	0	0	0
1484.044	n/a	REC_WORD	742022	wordpools/wasnorm_wordpool_576.txt	LTP138	ltpFR2	4	6	SPARROW	1347	n/a	n/a	0	0	0
1523.808	n/a	DISTRACTOR	761904	n/a	LTP138	ltpFR2	4	7	n/a	n/a	n/a	n/a	0	0	0
1523.808	n/a	START	761904	n/a	LTP138	ltpFR2	4	n/a	n/a	n/a	10	n/a	n/a	n/a	n/a
1523.858	n/a	PROB	761929	n/a	LTP138	ltpFR2	4	n/a	n/a	n/a	10	13	6	5	2
1526.03	n/a	PROB	763015	n/a	LTP138	ltpFR2	4	n/a	n/a	n/a	10	21	8	9	4
1528.088	n/a	PROB	764044	n/a	LTP138	ltpFR2	4	n/a	n/a	n/a	10	10	4	2	4
1530.162	n/a	PROB	765081	n/a	LTP138	ltpFR2	4	n/a	n/a	n/a	10	10	4	4	2
1532.136	n/a	PROB	766068	n/a	LTP138	ltpFR2	4	n/a	n/a	n/a	10	17	3	5	9
1533.842	n/a	PROB	766921	n/a	LTP138	ltpFR2	4	n/a	n/a	n/a	10	11	1	1	9
1535.434	n/a	PROB	767717	n/a	LTP138	ltpFR2	4	n/a	n/a	n/a	10	24	8	7	9
1536.838	n/a	PROB	768419	n/a	LTP138	ltpFR2	4	n/a	n/a	n/a	10	16	4	9	3
1539.08	n/a	PROB	769540	n/a	LTP138	ltpFR2	4	n/a	n/a	n/a	10	15	3	4	8
1540.52	n/a	PROB	770260	n/a	LTP138	ltpFR2	4	n/a	n/a	n/a	10	24	6	9	9
1544.484	n/a	PROB	772242	n/a	LTP138	ltpFR2	4	n/a	n/a	n/a	10	12	2	2	8
1547.81	n/a	STOP	773905	n/a	LTP138	ltpFR2	4	n/a	n/a	n/a	10	n/a	n/a	n/a	n/a
1548.87	n/a	WORD	774435	wordpools/wasnorm_wordpool_576.txt	LTP138	ltpFR2	4	7	SUNSET	1408	n/a	n/a	0	0	0
1551.598	n/a	WORD	775799	wordpools/wasnorm_wordpool_576.txt	LTP138	ltpFR2	4	7	PENGUIN	1044	n/a	n/a	0	0	0
1554.14	n/a	WORD	777070	wordpools/wasnorm_wordpool_576.txt	LTP138	ltpFR2	4	7	COCOON	339	n/a	n/a	0	0	0
1556.6	n/a	WORD	778300	wordpools/wasnorm_wordpool_576.txt	LTP138	ltpFR2	4	7	FILM	565	n/a	n/a	0	0	0
1559.226	n/a	WORD	779613	wordpools/wasnorm_wordpool_576.txt	LTP138	ltpFR2	4	7	RUST	1219	n/a	n/a	0	0	0
1561.7	n/a	WORD	780850	wordpools/wasnorm_wordpool_576.txt	LTP138	ltpFR2	4	7	POWDER	1117	n/a	n/a	0	0	0
1564.398	n/a	WORD	782199	wordpools/wasnorm_wordpool_576.txt	LTP138	ltpFR2	4	7	BLOUSE	139	n/a	n/a	0	0	0
1566.822	n/a	WORD	783411	wordpools/wasnorm_wordpool_576.txt	LTP138	ltpFR2	4	7	CRATER	400	n/a	n/a	0	0	0
1569.4	n/a	WORD	784700	wordpools/wasnorm_wordpool_576.txt	LTP138	ltpFR2	4	7	CITRUS	313	n/a	n/a	0	0	0
1572.14	n/a	WORD	786070	wordpools/wasnorm_wordpool_576.txt	LTP138	ltpFR2	4	7	CURTAIN	427	n/a	n/a	0	0	0
1574.954	n/a	WORD	787477	wordpools/wasnorm_wordpool_576.txt	LTP138	ltpFR2	4	7	WINDOW	1611	n/a	n/a	0	0	0
1577.43	n/a	WORD	788715	wordpools/wasnorm_wordpool_576.txt	LTP138	ltpFR2	4	7	LOVER	846	n/a	n/a	0	0	0
1579.874	n/a	WORD	789937	wordpools/wasnorm_wordpool_576.txt	LTP138	ltpFR2	4	7	WOMAN	1620	n/a	n/a	0	0	0
1582.468	n/a	WORD	791234	wordpools/wasnorm_wordpool_576.txt	LTP138	ltpFR2	4	7	LAGOON	795	n/a	n/a	0	0	0
1585.076	n/a	WORD	792538	wordpools/wasnorm_wordpool_576.txt	LTP138	ltpFR2	4	7	GARBAGE	622	n/a	n/a	0	0	0
1587.636	n/a	WORD	793818	wordpools/wasnorm_wordpool_576.txt	LTP138	ltpFR2	4	7	GIRL	637	n/a	n/a	0	0	0
1590.314	n/a	WORD	795157	wordpools/wasnorm_wordpool_576.txt	LTP138	ltpFR2	4	7	DONKEY	484	n/a	n/a	0	0	0
1592.906	n/a	WORD	796453	wordpools/wasnorm_wordpool_576.txt	LTP138	ltpFR2	4	7	LAPEL	800	n/a	n/a	0	0	0
1595.396	n/a	WORD	797698	wordpools/wasnorm_wordpool_576.txt	LTP138	ltpFR2	4	7	TRUCK	1512	n/a	n/a	0	0	0
1597.938	n/a	WORD	798969	wordpools/wasnorm_wordpool_576.txt	LTP138	ltpFR2	4	7	ORANGE	980	n/a	n/a	0	0	0
1600.486	n/a	WORD	800243	wordpools/wasnorm_wordpool_576.txt	LTP138	ltpFR2	4	7	BABY	64	n/a	n/a	0	0	0
1603.296	n/a	WORD	801648	wordpools/wasnorm_wordpool_576.txt	LTP138	ltpFR2	4	7	DRILL	497	n/a	n/a	0	0	0
1605.986	n/a	WORD	802993	wordpools/wasnorm_wordpool_576.txt	LTP138	ltpFR2	4	7	DIME	466	n/a	n/a	0	0	0
1608.7	n/a	WORD	804350	wordpools/wasnorm_wordpool_576.txt	LTP138	ltpFR2	4	7	SHERIFF	1284	n/a	n/a	0	0	0
1610.306	n/a	START	805153	n/a	LTP138	ltpFR2	4	n/a	n/a	n/a	11	n/a	n/a	n/a	n/a
1611.38	n/a	DISTRACTOR	805690	n/a	LTP138	ltpFR2	4	7	n/a	n/a	n/a	n/a	0	0	0
1611.394	n/a	PROB	805697	n/a	LTP138	ltpFR2	4	n/a	n/a	n/a	11	13	4	7	2
1613.452	n/a	PROB	806726	n/a	LTP138	ltpFR2	4	n/a	n/a	n/a	11	6	1	1	4
1615.002	n/a	PROB	807501	n/a	LTP138	ltpFR2	4	n/a	n/a	n/a	11	9	3	5	1
1616.678	n/a	PROB	808339	n/a	LTP138	ltpFR2	4	n/a	n/a	n/a	11	17	8	1	8
1618.502	n/a	PROB	809251	n/a	LTP138	ltpFR2	4	n/a	n/a	n/a	11	14	2	3	9
1620.174	n/a	PROB	810087	n/a	LTP138	ltpFR2	4	n/a	n/a	n/a	11	22	8	9	5
1623.954	n/a	PROB	811977	n/a	LTP138	ltpFR2	4	n/a	n/a	n/a	11	20	5	7	8
1626.046	n/a	PROB	813023	n/a	LTP138	ltpFR2	4	n/a	n/a	n/a	11	10	3	2	5
1628.07	n/a	PROB	814035	n/a	LTP138	ltpFR2	4	n/a	n/a	n/a	11	16	5	6	5
1630.948	n/a	PROB	815474	n/a	LTP138	ltpFR2	4	n/a	n/a	n/a	11	13	3	7	3
1632.172	n/a	PROB	816086	n/a	LTP138	ltpFR2	4	n/a	n/a	n/a	11	15	4	3	8
1633.32	n/a	STOP	816660	n/a	LTP138	ltpFR2	4	n/a	n/a	n/a	11	n/a	n/a	n/a	n/a
1636.138	n/a	REC_START	818069	n/a	LTP138	ltpFR2	4	7	n/a	n/a	n/a	n/a	0	0	0
1637.304	n/a	REC_WORD	818652	wordpools/wasnorm_wordpool_576.txt	LTP138	ltpFR2	4	7	ORANGE	980	n/a	n/a	0	0	0
1638.42	n/a	REC_WORD_VV	819210	wordpools/wasnorm_wordpool_576.txt	LTP138	ltpFR2	4	7	<>	-1	n/a	n/a	0	0	0
1638.76	n/a	REC_WORD	819380	wordpools/wasnorm_wordpool_576.txt	LTP138	ltpFR2	4	7	CITRUS	313	n/a	n/a	0	0	0
1643.244	n/a	REC_WORD	821622	wordpools/wasnorm_wordpool_576.txt	LTP138	ltpFR2	4	7	GIRL	637	n/a	n/a	0	0	0
1644.07	n/a	REC_WORD	822035	wordpools/wasnorm_wordpool_576.txt	LTP138	ltpFR2	4	7	WOMAN	1620	n/a	n/a	0	0	0
1645.094	n/a	REC_WORD	822547	wordpools/wasnorm_wordpool_576.txt	LTP138	ltpFR2	4	7	LOVER	846	n/a	n/a	0	0	0
1646.592	n/a	REC_WORD	823296	wordpools/wasnorm_wordpool_576.txt	LTP138	ltpFR2	4	7	COCOON	339	n/a	n/a	0	0	0
1648.068	n/a	REC_WORD	824034	wordpools/wasnorm_wordpool_576.txt	LTP138	ltpFR2	4	7	FILM	565	n/a	n/a	0	0	0
1649.994	n/a	REC_WORD	824997	wordpools/wasnorm_wordpool_576.txt	LTP138	ltpFR2	4	7	RUST	1219	n/a	n/a	0	0	0
1651.032	n/a	REC_WORD	825516	wordpools/wasnorm_wordpool_576.txt	LTP138	ltpFR2	4	7	POWDER	1117	n/a	n/a	0	0	0
1652.226	n/a	REC_WORD	826113	wordpools/wasnorm_wordpool_576.txt	LTP138	ltpFR2	4	7	BLOUSE	139	n/a	n/a	0	0	0
1653.738	n/a	REC_WORD	826869	wordpools/wasnorm_wordpool_576.txt	LTP138	ltpFR2	4	7	DRILL	497	n/a	n/a	0	0	0
1654.812	n/a	REC_WORD	827406	wordpools/wasnorm_wordpool_576.txt	LTP138	ltpFR2	4	7	DIME	466	n/a	n/a	0	0	0
1658.464	n/a	REC_WORD	829232	wordpools/wasnorm_wordpool_576.txt	LTP138	ltpFR2	4	7	INFANT	737	n/a	n/a	0	0	0
1663.588	n/a	REC_WORD	831794	wordpools/wasnorm_wordpool_576.txt	LTP138	ltpFR2	4	7	CRATER	400	n/a	n/a	0	0	0
1668.388	n/a	REC_WORD	834194	wordpools/wasnorm_wordpool_576.txt	LTP138	ltpFR2	4	7	SUNSET	1408	n/a	n/a	0	0	0
1669.388	n/a	REC_WORD_VV	834694	wordpools/wasnorm_wordpool_576.txt	LTP138	ltpFR2	4	7	<>	-1	n/a	n/a	0	0	0
1674.236	n/a	REC_WORD	837118	wordpools/wasnorm_wordpool_576.txt	LTP138	ltpFR2	4	7	CURTAIN	427	n/a	n/a	0	0	0
1679.632	n/a	REC_WORD	839816	wordpools/wasnorm_wordpool_576.txt	LTP138	ltpFR2	4	7	WINDOW	1611	n/a	n/a	0	0	0
1689.012	n/a	REC_WORD	844506	wordpools/wasnorm_wordpool_576.txt	LTP138	ltpFR2	4	7	GARBAGE	622	n/a	n/a	0	0	0
1727.202	n/a	WORD	863601	wordpools/wasnorm_wordpool_576.txt	LTP138	ltpFR2	4	8	TURNIP	1521	n/a	n/a	0	0	0
1729.96	n/a	WORD	864980	wordpools/wasnorm_wordpool_576.txt	LTP138	ltpFR2	4	8	ORCHID	982	n/a	n/a	0	0	0
1732.608	n/a	WORD	866304	wordpools/wasnorm_wordpool_576.txt	LTP138	ltpFR2	4	8	OZONE	996	n/a	n/a	0	0	0
1735.212	n/a	WORD	867606	wordpools/wasnorm_wordpool_576.txt	LTP138	ltpFR2	4	8	CYCLONE	431	n/a	n/a	0	0	0
1737.96	n/a	WORD	868980	wordpools/wasnorm_wordpool_576.txt	LTP138	ltpFR2	4	8	VENUS	1557	n/a	n/a	0	0	0
1740.668	n/a	WORD	870334	wordpools/wasnorm_wordpool_576.txt	LTP138	ltpFR2	4	8	COMPASS	358	n/a	n/a	0	0	0
1743.332	n/a	WORD	871666	wordpools/wasnorm_wordpool_576.txt	LTP138	ltpFR2	4	8	BALLOON	75	n/a	n/a	0	0	0
1745.802	n/a	WORD	872901	wordpools/wasnorm_wordpool_576.txt	LTP138	ltpFR2	4	8	GIFT	635	n/a	n/a	0	0	0
1748.518	n/a	WORD	874259	wordpools/wasnorm_wordpool_576.txt	LTP138	ltpFR2	4	8	TABLET	1427	n/a	n/a	0	0	0
1751.178	n/a	WORD	875589	wordpools/wasnorm_wordpool_576.txt	LTP138	ltpFR2	4	8	BRANCH	168	n/a	n/a	0	0	0
1753.968	n/a	WORD	876984	wordpools/wasnorm_wordpool_576.txt	LTP138	ltpFR2	4	8	PEACH	1031	n/a	n/a	0	0	0
1756.416	n/a	WORD	878208	wordpools/wasnorm_wordpool_576.txt	LTP138	ltpFR2	4	8	BLACKBOARD	133	n/a	n/a	0	0	0
1759.108	n/a	WORD	879554	wordpools/wasnorm_wordpool_576.txt	LTP138	ltpFR2	4	8	TWISTER	1530	n/a	n/a	0	0	0
1761.768	n/a	WORD	880884	wordpools/wasnorm_wordpool_576.txt	LTP138	ltpFR2	4	8	SCRIBBLE	1256	n/a	n/a	0	0	0
1764.546	n/a	WORD	882273	wordpools/wasnorm_wordpool_576.txt	LTP138	ltpFR2	4	8	PICTURE	1061	n/a	n/a	0	0	0
1767.156	n/a	WORD	883578	wordpools/wasnorm_wordpool_576.txt	LTP138	ltpFR2	4	8	TOMBSTONE	1478	n/a	n/a	0	0	0
1769.966	n/a	WORD	884983	wordpools/wasnorm_wordpool_576.txt	LTP138	ltpFR2	4	8	FARMER	553	n/a	n/a	0	0	0
1772.728	n/a	WORD	886364	wordpools/wasnorm_wordpool_576.txt	LTP138	ltpFR2	4	8	HOSTESS	723	n/a	n/a	0	0	0
1775.438	n/a	WORD	887719	wordpools/wasnorm_wordpool_576.txt	LTP138	ltpFR2	4	8	COSTUME	383	n/a	n/a	0	0	0
1777.942	n/a	WORD	888971	wordpools/wasnorm_wordpool_576.txt	LTP138	ltpFR2	4	8	JURY	766	n/a	n/a	0	0	0
1780.44	n/a	WORD	890220	wordpools/wasnorm_wordpool_576.txt	LTP138	ltpFR2	4	8	GAZELLE	628	n/a	n/a	0	0	0
1782.982	n/a	WORD	891491	wordpools/wasnorm_wordpool_576.txt	LTP138	ltpFR2	4	8	SCISSORS	1250	n/a	n/a	0	0	0
1785.476	n/a	WORD	892738	wordpools/wasnorm_wordpool_576.txt	LTP138	ltpFR2	4	8	TERMITE	1451	n/a	n/a	0	0	0
1788.27	n/a	WORD	894135	wordpools/wasnorm_wordpool_576.txt	LTP138	ltpFR2	4	8	GRIZZLY	662	n/a	n/a	0	0	0
1789.876	n/a	START	894938	n/a	LTP138	ltpFR2	4	n/a	n/a	n/a	12	n/a	n/a	n/a	n/a
1790.846	n/a	DISTRACTOR	895423	n/a	LTP138	ltpFR2	4	8	n/a	n/a	n/a	n/a	0	0	0
1790.862	n/a	PROB	895431	n/a	LTP138	ltpFR2	4	n/a	n/a	n/a	12	8	2	4	2
1792.62	n/a	PROB	896310	n/a	LTP138	ltpFR2	4	n/a	n/a	n/a	12	20	9	7	4
1796.246	n/a	PROB	898123	n/a	LTP138	ltpFR2	4	n/a	n/a	n/a	12	16	5	5	6
1797.468	n/a	PROB	898734	n/a	LTP138	ltpFR2	4	n/a	n/a	n/a	12	22	8	6	8
1800.446	n/a	PROB	900223	n/a	LTP138	ltpFR2	4	n/a	n/a	n/a	12	13	7	3	3
1802.218	n/a	PROB	901109	n/a	LTP138	ltpFR2	4	n/a	n/a	n/a	12	12	5	7	1
1804.68	n/a	PROB	902340	n/a	LTP138	ltpFR2	4	n/a	n/a	n/a	12	18	3	6	9
1809.666	n/a	PROB	904833	n/a	LTP138	ltpFR2	4	n/a	n/a	n/a	12	17	5	9	3
1813.85	n/a	STOP	906925	n/a	LTP138	ltpFR2	4	n/a	n/a	n/a	12	n/a	n/a	n/a	n/a
1815.676	n/a	REC_START	907838	n/a	LTP138	ltpFR2	4	8	n/a	n/a	n/a	n/a	0	0	0
1817.172	n/a	REC_WORD	908586	wordpools/wasnorm_wordpool_576.txt	LTP138	ltpFR2	4	8	TURNIP	1521	n/a	n/a	0	0	0
1818.656	n/a	REC_WORD	909328	wordpools/wasnorm_wordpool_576.txt	LTP138	ltpFR2	4	8	GRIZZLY	662	n/a	n/a	0	0	0
1820.588	n/a	REC_WORD	910294	wordpools/wasnorm_wordpool_576.txt	LTP138	ltpFR2	4	8	CYCLONE	431	n/a	n/a	0	0	0
1825.99	n/a	REC_WORD	912995	wordpools/wasnorm_wordpool_576.txt	LTP138	ltpFR2	4	8	TWISTER	1530	n/a	n/a	0	0	0
1826.99	n/a	REC_WORD_VV	913495	wordpools/wasnorm_wordpool_576.txt	LTP138	ltpFR2	4	8	<>	-1	n/a	n/a	0	0	0
1828.496	n/a	REC_WORD	914248	wordpools/wasnorm_wordpool_576.txt	LTP138	ltpFR2	4	8	FARMER	553	n/a	n/a	0	0	0
1831.056	n/a	REC_WORD	915528	wordpools/wasnorm_wordpool_576.txt	LTP138	ltpFR2	4	8	OZONE	996	n/a	n/a	0	0	0
1838.35	n/a	REC_WORD	919175	wordpools/wasnorm_wordpool_576.txt	LTP138	ltpFR2	4	8	BLACKBOARD	133	n/a	n/a	0	0	0
1839.856	n/a	REC_WORD	919928	wordpools/wasnorm_wordpool_576.txt	LTP138	ltpFR2	4	8	TOMBSTONE	1478	n/a	n/a	0	0	0
1865.778	n/a	REC_WORD	932889	wordpools/wasnorm_wordpool_576.txt	LTP138	ltpFR2	4	8	SCISSORS	1250	n/a	n/a	0	0	0
1868.272	n/a	REC_WORD	934136	wordpools/wasnorm_wordpool_576.txt	LTP138	ltpFR2	4	8	GAZELLE	628	n/a	n/a	0	0	0
1892.452	n/a	REST_REWET	946226	n/a	LTP138	ltpFR2	4	8	n/a	n/a	n/a	n/a	0	0	0
2485.116	n/a	DISTRACTOR	1242558	n/a	LTP138	ltpFR2	4	9	n/a	n/a	n/a	n/a	0	0	0
2485.116	n/a	START	1242558	n/a	LTP138	ltpFR2	4	n/a	n/a	n/a	13	n/a	n/a	n/a	n/a
2485.166	n/a	PROB	1242583	n/a	LTP138	ltpFR2	4	n/a	n/a	n/a	13	13	6	2	5
2487.372	n/a	PROB	1243686	n/a	LTP138	ltpFR2	4	n/a	n/a	n/a	13	11	1	8	2
2489.026	n/a	PROB	1244513	n/a	LTP138	ltpFR2	4	n/a	n/a	n/a	13	21	5	7	9
2492.692	n/a	PROB	1246346	n/a	LTP138	ltpFR2	4	n/a	n/a	n/a	13	21	9	3	9
2495.136	n/a	PROB	1247568	n/a	LTP138	ltpFR2	4	n/a	n/a	n/a	13	14	1	9	4
2496.474	n/a	PROB	1248237	n/a	LTP138	ltpFR2	4	n/a	n/a	n/a	13	25	7	9	9
2499.384	n/a	PROB	1249692	n/a	LTP138	ltpFR2	4	n/a	n/a	n/a	13	11	4	1	6
2500.756	n/a	PROB	1250378	n/a	LTP138	ltpFR2	4	n/a	n/a	n/a	13	15	1	9	5
2501.944	n/a	PROB	1250972	n/a	LTP138	ltpFR2	4	n/a	n/a	n/a	13	11	2	8	1
2503.8	n/a	PROB	1251900	n/a	LTP138	ltpFR2	4	n/a	n/a	n/a	13	18	3	7	8
2505.256	n/a	PROB	1252628	n/a	LTP138	ltpFR2	4	n/a	n/a	n/a	13	16	8	3	5
2506.928	n/a	PROB	1253464	n/a	LTP138	ltpFR2	4	n/a	n/a	n/a	13	12	2	9	1
2508.086	n/a	STOP	1254043	n/a	LTP138	ltpFR2	4	n/a	n/a	n/a	13	n/a	n/a	n/a	n/a
2510.162	n/a	WORD	1255081	wordpools/wasnorm_wordpool_576.txt	LTP138	ltpFR2	4	9	SCALPEL	1243	n/a	n/a	0	0	0
2512.622	n/a	WORD	1256311	wordpools/wasnorm_wordpool_576.txt	LTP138	ltpFR2	4	9	BEAKER	104	n/a	n/a	0	0	0
2515.312	n/a	WORD	1257656	wordpools/wasnorm_wordpool_576.txt	LTP138	ltpFR2	4	9	CHILD	299	n/a	n/a	0	0	0
2518.076	n/a	WORD	1259038	wordpools/wasnorm_wordpool_576.txt	LTP138	ltpFR2	4	9	CHURCH	307	n/a	n/a	0	0	0
2520.57	n/a	WORD	1260285	wordpools/wasnorm_wordpool_576.txt	LTP138	ltpFR2	4	9	PUPPY	1144	n/a	n/a	0	0	0
2523.33	n/a	WORD	1261665	wordpools/wasnorm_wordpool_576.txt	LTP138	ltpFR2	4	9	PLAZA	1088	n/a	n/a	0	0	0
2526.14	n/a	WORD	1263070	wordpools/wasnorm_wordpool_576.txt	LTP138	ltpFR2	4	9	RAFT	1159	n/a	n/a	0	0	0
2528.696	n/a	WORD	1264348	wordpools/wasnorm_wordpool_576.txt	LTP138	ltpFR2	4	9	CLOTHES	327	n/a	n/a	0	0	0
2531.426	n/a	WORD	1265713	wordpools/wasnorm_wordpool_576.txt	LTP138	ltpFR2	4	9	PRINCE	1124	n/a	n/a	0	0	0
2533.868	n/a	WORD	1266934	wordpools/wasnorm_wordpool_576.txt	LTP138	ltpFR2	4	9	INFANT	737	n/a	n/a	0	0	0
2536.296	n/a	WORD	1268148	wordpools/wasnorm_wordpool_576.txt	LTP138	ltpFR2	4	9	SLIME	1327	n/a	n/a	0	0	0
2538.804	n/a	WORD	1269402	wordpools/wasnorm_wordpool_576.txt	LTP138	ltpFR2	4	9	FUNGUS	614	n/a	n/a	0	0	0
2541.432	n/a	WORD	1270716	wordpools/wasnorm_wordpool_576.txt	LTP138	ltpFR2	4	9	CRUTCH	417	n/a	n/a	0	0	0
2544.224	n/a	WORD	1272112	wordpools/wasnorm_wordpool_576.txt	LTP138	ltpFR2	4	9	SWITCH	1422	n/a	n/a	0	0	0
2547.036	n/a	WORD	1273518	wordpools/wasnorm_wordpool_576.txt	LTP138	ltpFR2	4	9	CHEMIST	292	n/a	n/a	0	0	0
2549.692	n/a	WORD	1274846	wordpools/wasnorm_wordpool_576.txt	LTP138	ltpFR2	4	9	CROWN	415	n/a	n/a	0	0	0
2552.474	n/a	WORD	1276237	wordpools/wasnorm_wordpool_576.txt	LTP138	ltpFR2	4	9	MAPLE	866	n/a	n/a	0	0	0
2555.084	n/a	WORD	1277542	wordpools/wasnorm_wordpool_576.txt	LTP138	ltpFR2	4	9	MATCH	878	n/a	n/a	0	0	0
2557.608	n/a	WORD	1278804	wordpools/wasnorm_wordpool_576.txt	LTP138	ltpFR2	4	9	TEACHER	1440	n/a	n/a	0	0	0
2560.304	n/a	WORD	1280152	wordpools/wasnorm_wordpool_576.txt	LTP138	ltpFR2	4	9	EXPERT	543	n/a	n/a	0	0	0
2562.876	n/a	WORD	1281438	wordpools/wasnorm_wordpool_576.txt	LTP138	ltpFR2	4	9	LAKE	796	n/a	n/a	0	0	0
2565.692	n/a	WORD	1282846	wordpools/wasnorm_wordpool_576.txt	LTP138	ltpFR2	4	9	MARSH	874	n/a	n/a	0	0	0
2568.182	n/a	WORD	1284091	wordpools/wasnorm_wordpool_576.txt	LTP138	ltpFR2	4	9	BOX	159	n/a	n/a	0	0	0
2570.91	n/a	WORD	1285455	wordpools/wasnorm_wordpool_576.txt	LTP138	ltpFR2	4	9	GRILL	661	n/a	n/a	0	0	0
2572.518	n/a	START	1286259	n/a	LTP138	ltpFR2	4	n/a	n/a	n/a	14	n/a	n/a	n/a	n/a
2573.514	n/a	DISTRACTOR	1286757	n/a	LTP138	ltpFR2	4	9	n/a	n/a	n/a	n/a	0	0	0
2573.522	n/a	PROB	1286761	n/a	LTP138	ltpFR2	4	n/a	n/a	n/a	14	16	6	6	4
2575.274	n/a	PROB	1287637	n/a	LTP138	ltpFR2	4	n/a	n/a	n/a	14	22	9	9	4
2577.516	n/a	PROB	1288758	n/a	LTP138	ltpFR2	4	n/a	n/a	n/a	14	19	9	5	5
2579.424	n/a	PROB	1289712	n/a	LTP138	ltpFR2	4	n/a	n/a	n/a	14	15	4	4	7
2580.812	n/a	PROB	1290406	n/a	LTP138	ltpFR2	4	n/a	n/a	n/a	14	23	7	9	7
2584.106	n/a	PROB	1292053	n/a	LTP138	ltpFR2	4	n/a	n/a	n/a	14	9	2	2	5
2585.462	n/a	PROB	1292731	n/a	LTP138	ltpFR2	4	n/a	n/a	n/a	14	18	8	2	8
2588.842	n/a	PROB	1294421	n/a	LTP138	ltpFR2	4	n/a	n/a	n/a	14	17	6	3	8
2590.816	n/a	PROB	1295408	n/a	LTP138	ltpFR2	4	n/a	n/a	n/a	14	12	7	3	2
2592.004	n/a	PROB	1296002	n/a	LTP138	ltpFR2	4	n/a	n/a	n/a	14	13	1	6	6
2593.762	n/a	PROB	1296881	n/a	LTP138	ltpFR2	4	n/a	n/a	n/a	14	11	2	4	5
2595.38	n/a	STOP	1297690	n/a	LTP138	ltpFR2	4	n/a	n/a	n/a	14	n/a	n/a	n/a	n/a
2598.45	n/a	REC_START	1299225	n/a	LTP138	ltpFR2	4	9	n/a	n/a	n/a	n/a	0	0	0
2599.724	n/a	REC_WORD	1299862	wordpools/wasnorm_wordpool_576.txt	LTP138	ltpFR2	4	9	BOX	159	n/a	n/a	0	0	0
2600.552	n/a	REC_WORD	1300276	wordpools/wasnorm_wordpool_576.txt	LTP138	ltpFR2	4	9	GRILL	661	n/a	n/a	0	0	0
2601.532	n/a	REC_WORD	1300766	wordpools/wasnorm_wordpool_576.txt	LTP138	ltpFR2	4	9	PUPPY	1144	n/a	n/a	0	0	0
2604.54	n/a	REC_WORD	1302270	wordpools/wasnorm_wordpool_576.txt	LTP138	ltpFR2	4	9	CHURCH	307	n/a	n/a	0	0	0
2605.762	n/a	REC_WORD	1302881	wordpools/wasnorm_wordpool_576.txt	LTP138	ltpFR2	4	9	EXPERT	543	n/a	n/a	0	0	0
2606.818	n/a	REC_WORD	1303409	wordpools/wasnorm_wordpool_576.txt	LTP138	ltpFR2	4	9	CHEMIST	292	n/a	n/a	0	0	0
2608.608	n/a	REC_WORD	1304304	wordpools/wasnorm_wordpool_576.txt	LTP138	ltpFR2	4	9	BEAKER	104	n/a	n/a	0	0	0
2609.26	n/a	REC_WORD	1304630	wordpools/wasnorm_wordpool_576.txt	LTP138	ltpFR2	4	9	SCALPEL	1243	n/a	n/a	0	0	0
2612.384	n/a	REC_WORD	1306192	wordpools/wasnorm_wordpool_576.txt	LTP138	ltpFR2	4	9	INFANT	737	n/a	n/a	0	0	0
2617.352	n/a	REC_WORD	1308676	wordpools/wasnorm_wordpool_576.txt	LTP138	ltpFR2	4	9	BABY	64	n/a	n/a	0	0	0
2620.678	n/a	REC_WORD	1310339	wordpools/wasnorm_wordpool_576.txt	LTP138	ltpFR2	4	9	RAFT	1159	n/a	n/a	0	0	0
2621.642	n/a	REC_WORD	1310821	wordpools/wasnorm_wordpool_576.txt	LTP138	ltpFR2	4	9	CLOTHES	327	n/a	n/a	0	0	0
2623.142	n/a	REC_WORD	1311571	wordpools/wasnorm_wordpool_576.txt	LTP138	ltpFR2	4	9	SLIME	1327	n/a	n/a	0	0	0
2625.186	n/a	REC_WORD	1312593	wordpools/wasnorm_wordpool_576.txt	LTP138	ltpFR2	4	9	MILDEW	893	n/a	n/a	0	0	0
2628.004	n/a	REC_WORD	1314002	wordpools/wasnorm_wordpool_576.txt	LTP138	ltpFR2	4	9	MARSH	874	n/a	n/a	0	0	0
2629.196	n/a	REC_WORD	1314598	wordpools/wasnorm_wordpool_576.txt	LTP138	ltpFR2	4	9	LAKE	796	n/a	n/a	0	0	0
2671.398	n/a	REC_WORD	1335699	wordpools/wasnorm_wordpool_576.txt	LTP138	ltpFR2	4	9	MATCH	878	n/a	n/a	0	0	0
2672.362	n/a	REC_WORD	1336181	wordpools/wasnorm_wordpool_576.txt	LTP138	ltpFR2	4	9	MAPLE	866	n/a	n/a	0	0	0
2718.392	n/a	WORD	1359196	wordpools/wasnorm_wordpool_576.txt	LTP138	ltpFR2	4	10	BANJO	82	n/a	n/a	0	0	0
2720.832	n/a	WORD	1360416	wordpools/wasnorm_wordpool_576.txt	LTP138	ltpFR2	4	10	DRESSER	496	n/a	n/a	0	0	0
2723.596	n/a	WORD	1361798	wordpools/wasnorm_wordpool_576.txt	LTP138	ltpFR2	4	10	BIKE	125	n/a	n/a	0	0	0
2726.268	n/a	WORD	1363134	wordpools/wasnorm_wordpool_576.txt	LTP138	ltpFR2	4	10	SKETCH	1315	n/a	n/a	0	0	0
2728.964	n/a	WORD	1364482	wordpools/wasnorm_wordpool_576.txt	LTP138	ltpFR2	4	10	DRAWING	494	n/a	n/a	0	0	0
2731.776	n/a	WORD	1365888	wordpools/wasnorm_wordpool_576.txt	LTP138	ltpFR2	4	10	APRON	35	n/a	n/a	0	0	0
2734.32	n/a	WORD	1367160	wordpools/wasnorm_wordpool_576.txt	LTP138	ltpFR2	4	10	LAMP	798	n/a	n/a	0	0	0
2737.112	n/a	WORD	1368556	wordpools/wasnorm_wordpool_576.txt	LTP138	ltpFR2	4	10	MAILBOX	857	n/a	n/a	0	0	0
2739.788	n/a	WORD	1369894	wordpools/wasnorm_wordpool_576.txt	LTP138	ltpFR2	4	10	MOTOR	922	n/a	n/a	0	0	0
2742.334	n/a	WORD	1371167	wordpools/wasnorm_wordpool_576.txt	LTP138	ltpFR2	4	10	BUGGY	188	n/a	n/a	0	0	0
2745.076	n/a	WORD	1372538	wordpools/wasnorm_wordpool_576.txt	LTP138	ltpFR2	4	10	LIVER	833	n/a	n/a	0	0	0
2747.654	n/a	WORD	1373827	wordpools/wasnorm_wordpool_576.txt	LTP138	ltpFR2	4	10	NOTEBOOK	959	n/a	n/a	0	0	0
2750.142	n/a	WORD	1375071	wordpools/wasnorm_wordpool_576.txt	LTP138	ltpFR2	4	10	HONEY	713	n/a	n/a	0	0	0
2752.64	n/a	WORD	1376320	wordpools/wasnorm_wordpool_576.txt	LTP138	ltpFR2	4	10	TREAT	1501	n/a	n/a	0	0	0
2755.08	n/a	WORD	1377540	wordpools/wasnorm_wordpool_576.txt	LTP138	ltpFR2	4	10	BUREAU	199	n/a	n/a	0	0	0
2757.54	n/a	WORD	1378770	wordpools/wasnorm_wordpool_576.txt	LTP138	ltpFR2	4	10	JUDGE	761	n/a	n/a	0	0	0
2760.034	n/a	WORD	1380017	wordpools/wasnorm_wordpool_576.txt	LTP138	ltpFR2	4	10	MEAT	883	n/a	n/a	0	0	0
2762.478	n/a	WORD	1381239	wordpools/wasnorm_wordpool_576.txt	LTP138	ltpFR2	4	10	JELLY	755	n/a	n/a	0	0	0
2765.048	n/a	WORD	1382524	wordpools/wasnorm_wordpool_576.txt	LTP138	ltpFR2	4	10	SUSPECT	1415	n/a	n/a	0	0	0
2767.596	n/a	WORD	1383798	wordpools/wasnorm_wordpool_576.txt	LTP138	ltpFR2	4	10	VICTIM	1562	n/a	n/a	0	0	0
2770.138	n/a	WORD	1385069	wordpools/wasnorm_wordpool_576.txt	LTP138	ltpFR2	4	10	MACHINE	852	n/a	n/a	0	0	0
2772.728	n/a	WORD	1386364	wordpools/wasnorm_wordpool_576.txt	LTP138	ltpFR2	4	10	LADY	794	n/a	n/a	0	0	0
2775.472	n/a	WORD	1387736	wordpools/wasnorm_wordpool_576.txt	LTP138	ltpFR2	4	10	HELMET	702	n/a	n/a	0	0	0
2778.286	n/a	WORD	1389143	wordpools/wasnorm_wordpool_576.txt	LTP138	ltpFR2	4	10	BACON	67	n/a	n/a	0	0	0
2779.894	n/a	START	1389947	n/a	LTP138	ltpFR2	4	n/a	n/a	n/a	15	n/a	n/a	n/a	n/a
2780.816	n/a	DISTRACTOR	1390408	n/a	LTP138	ltpFR2	4	10	n/a	n/a	n/a	n/a	0	0	0
2780.83	n/a	PROB	1390415	n/a	LTP138	ltpFR2	4	n/a	n/a	n/a	15	9	1	2	6
2782.866	n/a	PROB	1391433	n/a	LTP138	ltpFR2	4	n/a	n/a	n/a	15	22	7	9	6
2786.532	n/a	PROB	1393266	n/a	LTP138	ltpFR2	4	n/a	n/a	n/a	15	14	1	4	9
2788.12	n/a	PROB	1394060	n/a	LTP138	ltpFR2	4	n/a	n/a	n/a	15	13	3	9	1
2789.46	n/a	PROB	1394730	n/a	LTP138	ltpFR2	4	n/a	n/a	n/a	15	26	9	9	8
2792.052	n/a	PROB	1396026	n/a	LTP138	ltpFR2	4	n/a	n/a	n/a	15	9	2	3	4
2794.142	n/a	PROB	1397071	n/a	LTP138	ltpFR2	4	n/a	n/a	n/a	15	12	6	5	1
2795.482	n/a	PROB	1397741	n/a	LTP138	ltpFR2	4	n/a	n/a	n/a	15	18	4	5	9
2796.824	n/a	PROB	1398412	n/a	LTP138	ltpFR2	4	n/a	n/a	n/a	15	13	3	6	4
2798.058	n/a	PROB	1399029	n/a	LTP138	ltpFR2	4	n/a	n/a	n/a	15	9	2	1	6
2799.364	n/a	PROB	1399682	n/a	LTP138	ltpFR2	4	n/a	n/a	n/a	15	20	9	4	7
2803.688	n/a	STOP	1401844	n/a	LTP138	ltpFR2	4	n/a	n/a	n/a	15	n/a	n/a	n/a	n/a
2805.772	n/a	REC_START	1402886	n/a	LTP138	ltpFR2	4	10	n/a	n/a	n/a	n/a	0	0	0
2809.276	n/a	REC_WORD	1404638	wordpools/wasnorm_wordpool_576.txt	LTP138	ltpFR2	4	10	BUREAU	199	n/a	n/a	0	0	0
2810.124	n/a	REC_WORD	1405062	wordpools/wasnorm_wordpool_576.txt	LTP138	ltpFR2	4	10	DRESSER	496	n/a	n/a	0	0	0
2812.076	n/a	REC_WORD	1406038	wordpools/wasnorm_wordpool_576.txt	LTP138	ltpFR2	4	10	SKETCH	1315	n/a	n/a	0	0	0
2816.448	n/a	REC_WORD	1408224	wordpools/wasnorm_wordpool_576.txt	LTP138	ltpFR2	4	10	NOTEBOOK	959	n/a	n/a	0	0	0
2818.61	n/a	REC_WORD	1409305	wordpools/wasnorm_wordpool_576.txt	LTP138	ltpFR2	4	10	DRAWING	494	n/a	n/a	0	0	0
2819.736	n/a	REC_WORD	1409868	wordpools/wasnorm_wordpool_576.txt	LTP138	ltpFR2	4	10	LAMP	798	n/a	n/a	0	0	0
2823.208	n/a	REC_WORD	1411604	wordpools/wasnorm_wordpool_576.txt	LTP138	ltpFR2	4	10	SUSPECT	1415	n/a	n/a	0	0	0
2824.208	n/a	REC_WORD_VV	1412104	wordpools/wasnorm_wordpool_576.txt	LTP138	ltpFR2	4	10	<>	-1	n/a	n/a	0	0	0
2825.542	n/a	REC_WORD	1412771	wordpools/wasnorm_wordpool_576.txt	LTP138	ltpFR2	4	10	JUDGE	761	n/a	n/a	0	0	0
2827.566	n/a	REC_WORD	1413783	wordpools/wasnorm_wordpool_576.txt	LTP138	ltpFR2	4	10	VICTIM	1562	n/a	n/a	0	0	0
2830.672	n/a	REC_WORD	1415336	wordpools/wasnorm_wordpool_576.txt	LTP138	ltpFR2	4	10	HONEY	713	n/a	n/a	0	0	0
2832.022	n/a	REC_WORD	1416011	wordpools/wasnorm_wordpool_576.txt	LTP138	ltpFR2	4	10	TREAT	1501	n/a	n/a	0	0	0
2851.606	n/a	REC_WORD	1425803	wordpools/wasnorm_wordpool_576.txt	LTP138	ltpFR2	4	10	BACON	67	n/a	n/a	0	0	0
2852.774	n/a	REC_WORD	1426387	wordpools/wasnorm_wordpool_576.txt	LTP138	ltpFR2	4	10	MEAT	883	n/a	n/a	0	0	0
2896.822	n/a	DISTRACTOR	1448411	n/a	LTP138	ltpFR2	4	11	n/a	n/a	n/a	n/a	0	0	0
2896.822	n/a	START	1448411	n/a	LTP138	ltpFR2	4	n/a	n/a	n/a	16	n/a	n/a	n/a	n/a
2896.872	n/a	PROB	1448436	n/a	LTP138	ltpFR2	4	n/a	n/a	n/a	16	8	2	2	4
2898.19	n/a	PROB	1449095	n/a	LTP138	ltpFR2	4	n/a	n/a	n/a	16	18	2	8	8
2899.732	n/a	PROB	1449866	n/a	LTP138	ltpFR2	4	n/a	n/a	n/a	16	15	1	6	8
2900.888	n/a	PROB	1450444	n/a	LTP138	ltpFR2	4	n/a	n/a	n/a	16	19	7	6	6
2904.6	n/a	PROB	1452300	n/a	LTP138	ltpFR2	4	n/a	n/a	n/a	16	15	2	7	6
2906.322	n/a	PROB	1453161	n/a	LTP138	ltpFR2	4	n/a	n/a	n/a	16	12	4	6	2
2907.844	n/a	PROB	1453922	n/a	LTP138	ltpFR2	4	n/a	n/a	n/a	16	8	3	3	2
2910.004	n/a	PROB	1455002	n/a	LTP138	ltpFR2	4	n/a	n/a	n/a	16	11	8	1	2
2911.66	n/a	PROB	1455830	n/a	LTP138	ltpFR2	4	n/a	n/a	n/a	16	11	1	6	4
2913.4	n/a	PROB	1456700	n/a	LTP138	ltpFR2	4	n/a	n/a	n/a	16	12	3	3	6
2914.706	n/a	PROB	1457353	n/a	LTP138	ltpFR2	4	n/a	n/a	n/a	16	3	1	1	1
2915.842	n/a	PROB	1457921	n/a	LTP138	ltpFR2	4	n/a	n/a	n/a	16	10	1	4	5
2917.366	n/a	PROB	1458683	n/a	LTP138	ltpFR2	4	n/a	n/a	n/a	16	16	1	6	9
2920.82	n/a	STOP	1460410	n/a	LTP138	ltpFR2	4	n/a	n/a	n/a	16	n/a	n/a	n/a	n/a
2921.964	n/a	WORD	1460982	wordpools/wasnorm_wordpool_576.txt	LTP138	ltpFR2	4	11	PAPER	1011	n/a	n/a	0	0	0
2924.776	n/a	WORD	1462388	wordpools/wasnorm_wordpool_576.txt	LTP138	ltpFR2	4	11	KLEENEX	782	n/a	n/a	0	0	0
2927.238	n/a	WORD	1463619	wordpools/wasnorm_wordpool_576.txt	LTP138	ltpFR2	4	11	BANK	83	n/a	n/a	0	0	0
2929.716	n/a	WORD	1464858	wordpools/wasnorm_wordpool_576.txt	LTP138	ltpFR2	4	11	CASHIER	254	n/a	n/a	0	0	0
2932.356	n/a	WORD	1466178	wordpools/wasnorm_wordpool_576.txt	LTP138	ltpFR2	4	11	WHISTLE	1606	n/a	n/a	0	0	0
2935.12	n/a	WORD	1467560	wordpools/wasnorm_wordpool_576.txt	LTP138	ltpFR2	4	11	TROMBONE	1508	n/a	n/a	0	0	0
2937.812	n/a	WORD	1468906	wordpools/wasnorm_wordpool_576.txt	LTP138	ltpFR2	4	11	SIDEWALK	1303	n/a	n/a	0	0	0
2940.374	n/a	WORD	1470187	wordpools/wasnorm_wordpool_576.txt	LTP138	ltpFR2	4	11	POLICE	1098	n/a	n/a	0	0	0
2942.798	n/a	WORD	1471399	wordpools/wasnorm_wordpool_576.txt	LTP138	ltpFR2	4	11	CARRIAGE	248	n/a	n/a	0	0	0
2945.556	n/a	WORD	1472778	wordpools/wasnorm_wordpool_576.txt	LTP138	ltpFR2	4	11	DOUGHNUT	490	n/a	n/a	0	0	0
2948.27	n/a	WORD	1474135	wordpools/wasnorm_wordpool_576.txt	LTP138	ltpFR2	4	11	VIRUS	1572	n/a	n/a	0	0	0
2950.78	n/a	WORD	1475390	wordpools/wasnorm_wordpool_576.txt	LTP138	ltpFR2	4	11	PARSLEY	1016	n/a	n/a	0	0	0
2953.288	n/a	WORD	1476644	wordpools/wasnorm_wordpool_576.txt	LTP138	ltpFR2	4	11	HORNET	718	n/a	n/a	0	0	0
2955.832	n/a	WORD	1477916	wordpools/wasnorm_wordpool_576.txt	LTP138	ltpFR2	4	11	SCULPTURE	1258	n/a	n/a	0	0	0
2958.542	n/a	WORD	1479271	wordpools/wasnorm_wordpool_576.txt	LTP138	ltpFR2	4	11	SPOUSE	1358	n/a	n/a	0	0	0
2960.984	n/a	WORD	1480492	wordpools/wasnorm_wordpool_576.txt	LTP138	ltpFR2	4	11	SOFTBALL	1343	n/a	n/a	0	0	0
2963.524	n/a	WORD	1481762	wordpools/wasnorm_wordpool_576.txt	LTP138	ltpFR2	4	11	CAMEL	223	n/a	n/a	0	0	0
2966.234	n/a	WORD	1483117	wordpools/wasnorm_wordpool_576.txt	LTP138	ltpFR2	4	11	PATROL	1027	n/a	n/a	0	0	0
2968.932	n/a	WORD	1484466	wordpools/wasnorm_wordpool_576.txt	LTP138	ltpFR2	4	11	FLAG	573	n/a	n/a	0	0	0
2971.61	n/a	WORD	1485805	wordpools/wasnorm_wordpool_576.txt	LTP138	ltpFR2	4	11	SCALLOP	1242	n/a	n/a	0	0	0
2974.218	n/a	WORD	1487109	wordpools/wasnorm_wordpool_576.txt	LTP138	ltpFR2	4	11	MUSTARD	935	n/a	n/a	0	0	0
2976.946	n/a	WORD	1488473	wordpools/wasnorm_wordpool_576.txt	LTP138	ltpFR2	4	11	RACKET	1155	n/a	n/a	0	0	0
2979.704	n/a	WORD	1489852	wordpools/wasnorm_wordpool_576.txt	LTP138	ltpFR2	4	11	BARLEY	88	n/a	n/a	0	0	0
2982.366	n/a	WORD	1491183	wordpools/wasnorm_wordpool_576.txt	LTP138	ltpFR2	4	11	SAUSAGE	1238	n/a	n/a	0	0	0
2983.974	n/a	START	1491987	n/a	LTP138	ltpFR2	4	n/a	n/a	n/a	17	n/a	n/a	n/a	n/a
2984.89	n/a	DISTRACTOR	1492445	n/a	LTP138	ltpFR2	4	11	n/a	n/a	n/a	n/a	0	0	0
2984.906	n/a	PROB	1492453	n/a	LTP138	ltpFR2	4	n/a	n/a	n/a	17	16	4	7	5
2986.846	n/a	PROB	1493423	n/a	LTP138	ltpFR2	4	n/a	n/a	n/a	17	18	9	6	3
2988.488	n/a	PROB	1494244	n/a	LTP138	ltpFR2	4	n/a	n/a	n/a	17	5	1	1	3
2989.708	n/a	PROB	1494854	n/a	LTP138	ltpFR2	4	n/a	n/a	n/a	17	19	4	6	9
2991.214	n/a	PROB	1495607	n/a	LTP138	ltpFR2	4	n/a	n/a	n/a	17	13	3	1	9
2992.82	n/a	PROB	1496410	n/a	LTP138	ltpFR2	4	n/a	n/a	n/a	17	16	6	5	5
2994.074	n/a	PROB	1497037	n/a	LTP138	ltpFR2	4	n/a	n/a	n/a	17	21	7	7	7
2995.564	n/a	PROB	1497782	n/a	LTP138	ltpFR2	4	n/a	n/a	n/a	17	14	1	9	4
2996.884	n/a	PROB	1498442	n/a	LTP138	ltpFR2	4	n/a	n/a	n/a	17	21	5	8	8
2998.558	n/a	PROB	1499279	n/a	LTP138	ltpFR2	4	n/a	n/a	n/a	17	8	5	2	1
2999.934	n/a	PROB	1499967	n/a	LTP138	ltpFR2	4	n/a	n/a	n/a	17	9	1	4	4
3001.788	n/a	PROB	1500894	n/a	LTP138	ltpFR2	4	n/a	n/a	n/a	17	21	6	6	9
3004.046	n/a	PROB	1502023	n/a	LTP138	ltpFR2	4	n/a	n/a	n/a	17	5	3	1	1
3005.15	n/a	PROB	1502575	n/a	LTP138	ltpFR2	4	n/a	n/a	n/a	17	16	6	2	8
3007.154	n/a	STOP	1503577	n/a	LTP138	ltpFR2	4	n/a	n/a	n/a	17	n/a	n/a	n/a	n/a
3009.794	n/a	REC_START	1504897	n/a	LTP138	ltpFR2	4	11	n/a	n/a	n/a	n/a	0	0	0
3010.884	n/a	REC_WORD	1505442	wordpools/wasnorm_wordpool_576.txt	LTP138	ltpFR2	4	11	PAPER	1011	n/a	n/a	0	0	0
3011.794	n/a	REC_WORD	1505897	wordpools/wasnorm_wordpool_576.txt	LTP138	ltpFR2	4	11	KLEENEX	782	n/a	n/a	0	0	0
3013.668	n/a	REC_WORD	1506834	wordpools/wasnorm_wordpool_576.txt	LTP138	ltpFR2	4	11	BANK	83	n/a	n/a	0	0	0
3014.414	n/a	REC_WORD	1507207	wordpools/wasnorm_wordpool_576.txt	LTP138	ltpFR2	4	11	FLAG	573	n/a	n/a	0	0	0
3019.362	n/a	REC_WORD	1509681	wordpools/wasnorm_wordpool_576.txt	LTP138	ltpFR2	4	11	WHISTLE	1606	n/a	n/a	0	0	0
3022.09	n/a	REC_WORD	1511045	wordpools/wasnorm_wordpool_576.txt	LTP138	ltpFR2	4	11	TRUMPET	1513	n/a	n/a	0	0	0
3026.836	n/a	REC_WORD	1513418	wordpools/wasnorm_wordpool_576.txt	LTP138	ltpFR2	4	11	CASHIER	254	n/a	n/a	0	0	0
3043.06	n/a	REC_WORD	1521530	wordpools/wasnorm_wordpool_576.txt	LTP138	ltpFR2	4	11	BARLEY	88	n/a	n/a	0	0	0
3044.612	n/a	REC_WORD	1522306	wordpools/wasnorm_wordpool_576.txt	LTP138	ltpFR2	4	11	PARSLEY	1016	n/a	n/a	0	0	0
3046.086	n/a	REC_WORD	1523043	wordpools/wasnorm_wordpool_576.txt	LTP138	ltpFR2	4	11	MUSTARD	935	n/a	n/a	0	0	0
3048.53	n/a	REC_WORD	1524265	wordpools/wasnorm_wordpool_576.txt	LTP138	ltpFR2	4	11	SCALLOP	1242	n/a	n/a	0	0	0
3051.372	n/a	REC_WORD	1525686	wordpools/wasnorm_wordpool_576.txt	LTP138	ltpFR2	4	11	SHERIFF	1284	n/a	n/a	0	0	0
3100.836	n/a	DISTRACTOR	1550418	n/a	LTP138	ltpFR2	4	12	n/a	n/a	n/a	n/a	0	0	0
3100.836	n/a	START	1550418	n/a	LTP138	ltpFR2	4	n/a	n/a	n/a	18	n/a	n/a	n/a	n/a
3100.886	n/a	PROB	1550443	n/a	LTP138	ltpFR2	4	n/a	n/a	n/a	18	18	7	2	9
3103.108	n/a	PROB	1551554	n/a	LTP138	ltpFR2	4	n/a	n/a	n/a	18	19	9	4	6
3104.414	n/a	PROB	1552207	n/a	LTP138	ltpFR2	4	n/a	n/a	n/a	18	27	9	9	9
3107.776	n/a	PROB	1553888	n/a	LTP138	ltpFR2	4	n/a	n/a	n/a	18	14	9	3	2
3109.784	n/a	PROB	1554892	n/a	LTP138	ltpFR2	4	n/a	n/a	n/a	18	14	9	4	1
3111.226	n/a	PROB	1555613	n/a	LTP138	ltpFR2	4	n/a	n/a	n/a	18	22	9	9	4
3113.864	n/a	PROB	1556932	n/a	LTP138	ltpFR2	4	n/a	n/a	n/a	18	12	4	1	7
3115.708	n/a	PROB	1557854	n/a	LTP138	ltpFR2	4	n/a	n/a	n/a	18	20	2	9	9
3117.518	n/a	PROB	1558759	n/a	LTP138	ltpFR2	4	n/a	n/a	n/a	18	14	7	2	5
3119.872	n/a	PROB	1559936	n/a	LTP138	ltpFR2	4	n/a	n/a	n/a	18	14	1	9	4
3121.06	n/a	PROB	1560530	n/a	LTP138	ltpFR2	4	n/a	n/a	n/a	18	14	4	3	7
3122.482	n/a	PROB	1561241	n/a	LTP138	ltpFR2	4	n/a	n/a	n/a	18	18	2	7	9
3124.632	n/a	STOP	1562316	n/a	LTP138	ltpFR2	4	n/a	n/a	n/a	18	n/a	n/a	n/a	n/a
3125.898	n/a	WORD	1562949	wordpools/wasnorm_wordpool_576.txt	LTP138	ltpFR2	4	12	FLUTE	585	n/a	n/a	0	0	0
3128.71	n/a	WORD	1564355	wordpools/wasnorm_wordpool_576.txt	LTP138	ltpFR2	4	12	PROTON	1132	n/a	n/a	0	0	0
3131.486	n/a	WORD	1565743	wordpools/wasnorm_wordpool_576.txt	LTP138	ltpFR2	4	12	PRINCESS	1125	n/a	n/a	0	0	0
3134.064	n/a	WORD	1567032	wordpools/wasnorm_wordpool_576.txt	LTP138	ltpFR2	4	12	SIBLING	1301	n/a	n/a	0	0	0
3136.854	n/a	WORD	1568427	wordpools/wasnorm_wordpool_576.txt	LTP138	ltpFR2	4	12	PORTRAIT	1111	n/a	n/a	0	0	0
3139.35	n/a	WORD	1569675	wordpools/wasnorm_wordpool_576.txt	LTP138	ltpFR2	4	12	TOURIST	1488	n/a	n/a	0	0	0
3141.776	n/a	WORD	1570888	wordpools/wasnorm_wordpool_576.txt	LTP138	ltpFR2	4	12	PALACE	1006	n/a	n/a	0	0	0
3144.314	n/a	WORD	1572157	wordpools/wasnorm_wordpool_576.txt	LTP138	ltpFR2	4	12	HEART	697	n/a	n/a	0	0	0
3146.974	n/a	WORD	1573487	wordpools/wasnorm_wordpool_576.txt	LTP138	ltpFR2	4	12	OX	994	n/a	n/a	0	0	0
3149.456	n/a	WORD	1574728	wordpools/wasnorm_wordpool_576.txt	LTP138	ltpFR2	4	12	GUARD	667	n/a	n/a	0	0	0
3151.914	n/a	WORD	1575957	wordpools/wasnorm_wordpool_576.txt	LTP138	ltpFR2	4	12	DRIVER	499	n/a	n/a	0	0	0
3154.358	n/a	WORD	1577179	wordpools/wasnorm_wordpool_576.txt	LTP138	ltpFR2	4	12	QUAIL	1147	n/a	n/a	0	0	0
3157.034	n/a	WORD	1578517	wordpools/wasnorm_wordpool_576.txt	LTP138	ltpFR2	4	12	ZIPPER	1636	n/a	n/a	0	0	0
3159.662	n/a	WORD	1579831	wordpools/wasnorm_wordpool_576.txt	LTP138	ltpFR2	4	12	LEG	809	n/a	n/a	0	0	0
3162.22	n/a	WORD	1581110	wordpools/wasnorm_wordpool_576.txt	LTP138	ltpFR2	4	12	TRACTOR	1493	n/a	n/a	0	0	0
3164.926	n/a	WORD	1582463	wordpools/wasnorm_wordpool_576.txt	LTP138	ltpFR2	4	12	TRANSPLANT	1496	n/a	n/a	0	0	0
3167.592	n/a	WORD	1583796	wordpools/wasnorm_wordpool_576.txt	LTP138	ltpFR2	4	12	PATIENT	1024	n/a	n/a	0	0	0
3170.314	n/a	WORD	1585157	wordpools/wasnorm_wordpool_576.txt	LTP138	ltpFR2	4	12	SERVANT	1271	n/a	n/a	0	0	0
3172.778	n/a	WORD	1586389	wordpools/wasnorm_wordpool_576.txt	LTP138	ltpFR2	4	12	CONTRACT	368	n/a	n/a	0	0	0
3175.422	n/a	WORD	1587711	wordpools/wasnorm_wordpool_576.txt	LTP138	ltpFR2	4	12	KITCHEN	778	n/a	n/a	0	0	0
3178.232	n/a	WORD	1589116	wordpools/wasnorm_wordpool_576.txt	LTP138	ltpFR2	4	12	COOK	372	n/a	n/a	0	0	0
3180.838	n/a	WORD	1590419	wordpools/wasnorm_wordpool_576.txt	LTP138	ltpFR2	4	12	STONE	1385	n/a	n/a	0	0	0
3183.62	n/a	WORD	1591810	wordpools/wasnorm_wordpool_576.txt	LTP138	ltpFR2	4	12	KIDNEY	776	n/a	n/a	0	0	0
3186.246	n/a	WORD	1593123	wordpools/wasnorm_wordpool_576.txt	LTP138	ltpFR2	4	12	GHETTO	633	n/a	n/a	0	0	0
3187.852	n/a	START	1593926	n/a	LTP138	ltpFR2	4	n/a	n/a	n/a	19	n/a	n/a	n/a	n/a
3188.686	n/a	DISTRACTOR	1594343	n/a	LTP138	ltpFR2	4	12	n/a	n/a	n/a	n/a	0	0	0
3188.702	n/a	PROB	1594351	n/a	LTP138	ltpFR2	4	n/a	n/a	n/a	19	21	7	9	5
3191.55	n/a	PROB	1595775	n/a	LTP138	ltpFR2	4	n/a	n/a	n/a	19	8	3	1	4
3192.888	n/a	PROB	1596444	n/a	LTP138	ltpFR2	4	n/a	n/a	n/a	19	15	4	8	3
3194.558	n/a	PROB	1597279	n/a	LTP138	ltpFR2	4	n/a	n/a	n/a	19	15	7	7	1
3196.13	n/a	PROB	1598065	n/a	LTP138	ltpFR2	4	n/a	n/a	n/a	19	23	7	8	8
3199.464	n/a	PROB	1599732	n/a	LTP138	ltpFR2	4	n/a	n/a	n/a	19	17	1	7	9
3201.166	n/a	PROB	1600583	n/a	LTP138	ltpFR2	4	n/a	n/a	n/a	19	13	6	6	1
3202.522	n/a	PROB	1601261	n/a	LTP138	ltpFR2	4	n/a	n/a	n/a	19	21	7	7	7
3203.81	n/a	PROB	1601905	n/a	LTP138	ltpFR2	4	n/a	n/a	n/a	19	15	1	5	9
3205.366	n/a	PROB	1602683	n/a	LTP138	ltpFR2	4	n/a	n/a	n/a	19	17	8	2	7
3207.742	n/a	PROB	1603871	n/a	LTP138	ltpFR2	4	n/a	n/a	n/a	19	18	8	7	3
3209.096	n/a	PROB	1604548	n/a	LTP138	ltpFR2	4	n/a	n/a	n/a	19	15	6	3	6
3210.63	n/a	STOP	1605315	n/a	LTP138	ltpFR2	4	n/a	n/a	n/a	19	n/a	n/a	n/a	n/a
3213.636	n/a	REC_START	1606818	n/a	LTP138	ltpFR2	4	12	n/a	n/a	n/a	n/a	0	0	0
3214.312	n/a	REC_WORD	1607156	wordpools/wasnorm_wordpool_576.txt	LTP138	ltpFR2	4	12	LEG	809	n/a	n/a	0	0	0
3215.86	n/a	REC_WORD	1607930	wordpools/wasnorm_wordpool_576.txt	LTP138	ltpFR2	4	12	TRANSPLANT	1496	n/a	n/a	0	0	0
3217.376	n/a	REC_WORD	1608688	wordpools/wasnorm_wordpool_576.txt	LTP138	ltpFR2	4	12	LIVER	833	n/a	n/a	0	0	0
3218.584	n/a	REC_WORD	1609292	wordpools/wasnorm_wordpool_576.txt	LTP138	ltpFR2	4	12	COOK	372	n/a	n/a	0	0	0
3219.49	n/a	REC_WORD	1609745	wordpools/wasnorm_wordpool_576.txt	LTP138	ltpFR2	4	12	KITCHEN	778	n/a	n/a	0	0	0
3222.124	n/a	REC_WORD	1611062	wordpools/wasnorm_wordpool_576.txt	LTP138	ltpFR2	4	12	SERVANT	1271	n/a	n/a	0	0	0
3223.418	n/a	REC_WORD	1611709	wordpools/wasnorm_wordpool_576.txt	LTP138	ltpFR2	4	12	DRIVER	499	n/a	n/a	0	0	0
3225.47	n/a	REC_WORD	1612735	wordpools/wasnorm_wordpool_576.txt	LTP138	ltpFR2	4	12	GHETTO	633	n/a	n/a	0	0	0
3233.822	n/a	REC_WORD	1616911	wordpools/wasnorm_wordpool_576.txt	LTP138	ltpFR2	4	12	HEART	697	n/a	n/a	0	0	0
3235.588	n/a	REC_WORD	1617794	wordpools/wasnorm_wordpool_576.txt	LTP138	ltpFR2	4	12	PROTON	1132	n/a	n/a	0	0	0
3238.042	n/a	REC_WORD	1619021	wordpools/wasnorm_wordpool_576.txt	LTP138	ltpFR2	4	12	OX	994	n/a	n/a	0	0	0
3240.684	n/a	REC_WORD	1620342	wordpools/wasnorm_wordpool_576.txt	LTP138	ltpFR2	4	12	GUARD	667	n/a	n/a	0	0	0
3248.17	n/a	REC_WORD	1624085	wordpools/wasnorm_wordpool_576.txt	LTP138	ltpFR2	4	12	FLUTE	585	n/a	n/a	0	0	0
3251.288	n/a	REC_WORD	1625644	wordpools/wasnorm_wordpool_576.txt	LTP138	ltpFR2	4	12	SIBLING	1301	n/a	n/a	0	0	0
3252.288	n/a	REC_WORD_VV	1626144	wordpools/wasnorm_wordpool_576.txt	LTP138	ltpFR2	4	12	<>	-1	n/a	n/a	0	0	0
3262.578	n/a	REC_WORD	1631289	wordpools/wasnorm_wordpool_576.txt	LTP138	ltpFR2	4	12	SISTER	1312	n/a	n/a	0	0	0
3268.48	n/a	REC_WORD	1634240	wordpools/wasnorm_wordpool_576.txt	LTP138	ltpFR2	4	12	PORTRAIT	1111	n/a	n/a	0	0	0
3271.17	n/a	REC_WORD	1635585	wordpools/wasnorm_wordpool_576.txt	LTP138	ltpFR2	4	12	PRINCESS	1125	n/a	n/a	0	0	0
3279.362	n/a	REC_WORD	1639681	wordpools/wasnorm_wordpool_576.txt	LTP138	ltpFR2	4	12	ACTOR	5	n/a	n/a	0	0	0
3329.878	n/a	WORD	1664939	wordpools/wasnorm_wordpool_576.txt	LTP138	ltpFR2	4	13	WRIST	1626	n/a	n/a	0	0	0
3332.304	n/a	WORD	1666152	wordpools/wasnorm_wordpool_576.txt	LTP138	ltpFR2	4	13	COURSE	390	n/a	n/a	0	0	0
3334.798	n/a	WORD	1667399	wordpools/wasnorm_wordpool_576.txt	LTP138	ltpFR2	4	13	SUPPER	1411	n/a	n/a	0	0	0
3337.524	n/a	WORD	1668762	wordpools/wasnorm_wordpool_576.txt	LTP138	ltpFR2	4	13	LUNCH	849	n/a	n/a	0	0	0
3339.966	n/a	WORD	1669983	wordpools/wasnorm_wordpool_576.txt	LTP138	ltpFR2	4	13	SCOTCH	1251	n/a	n/a	0	0	0
3342.728	n/a	WORD	1671364	wordpools/wasnorm_wordpool_576.txt	LTP138	ltpFR2	4	13	CANAL	226	n/a	n/a	0	0	0
3345.538	n/a	WORD	1672769	wordpools/wasnorm_wordpool_576.txt	LTP138	ltpFR2	4	13	OUTFIT	988	n/a	n/a	0	0	0
3348.08	n/a	WORD	1674040	wordpools/wasnorm_wordpool_576.txt	LTP138	ltpFR2	4	13	PIZZA	1079	n/a	n/a	0	0	0
3350.658	n/a	WORD	1675329	wordpools/wasnorm_wordpool_576.txt	LTP138	ltpFR2	4	13	PEBBLE	1035	n/a	n/a	0	0	0
3353.318	n/a	WORD	1676659	wordpools/wasnorm_wordpool_576.txt	LTP138	ltpFR2	4	13	CROSS	413	n/a	n/a	0	0	0
3355.99	n/a	WORD	1677995	wordpools/wasnorm_wordpool_576.txt	LTP138	ltpFR2	4	13	TART	1436	n/a	n/a	0	0	0
3358.572	n/a	WORD	1679286	wordpools/wasnorm_wordpool_576.txt	LTP138	ltpFR2	4	13	ARMY	39	n/a	n/a	0	0	0
3361.132	n/a	WORD	1680566	wordpools/wasnorm_wordpool_576.txt	LTP138	ltpFR2	4	13	SCARF	1246	n/a	n/a	0	0	0
3363.892	n/a	WORD	1681946	wordpools/wasnorm_wordpool_576.txt	LTP138	ltpFR2	4	13	SHOULDER	1294	n/a	n/a	0	0	0
3366.486	n/a	WORD	1683243	wordpools/wasnorm_wordpool_576.txt	LTP138	ltpFR2	4	13	MOP	916	n/a	n/a	0	0	0
3369.212	n/a	WORD	1684606	wordpools/wasnorm_wordpool_576.txt	LTP138	ltpFR2	4	13	FRIAR	605	n/a	n/a	0	0	0
3372.002	n/a	WORD	1686001	wordpools/wasnorm_wordpool_576.txt	LTP138	ltpFR2	4	13	CHAUFFEUR	283	n/a	n/a	0	0	0
3374.466	n/a	WORD	1687233	wordpools/wasnorm_wordpool_576.txt	LTP138	ltpFR2	4	13	CONVICT	371	n/a	n/a	0	0	0
3377.054	n/a	WORD	1688527	wordpools/wasnorm_wordpool_576.txt	LTP138	ltpFR2	4	13	OUTLAW	989	n/a	n/a	0	0	0
3379.77	n/a	WORD	1689885	wordpools/wasnorm_wordpool_576.txt	LTP138	ltpFR2	4	13	ARM	38	n/a	n/a	0	0	0
3382.442	n/a	WORD	1691221	wordpools/wasnorm_wordpool_576.txt	LTP138	ltpFR2	4	13	BRACES	164	n/a	n/a	0	0	0
3385.19	n/a	WORD	1692595	wordpools/wasnorm_wordpool_576.txt	LTP138	ltpFR2	4	13	GRAVEL	659	n/a	n/a	0	0	0
3387.984	n/a	WORD	1693992	wordpools/wasnorm_wordpool_576.txt	LTP138	ltpFR2	4	13	NOVEL	960	n/a	n/a	0	0	0
3390.41	n/a	WORD	1695205	wordpools/wasnorm_wordpool_576.txt	LTP138	ltpFR2	4	13	COLONEL	348	n/a	n/a	0	0	0
3392.016	n/a	START	1696008	n/a	LTP138	ltpFR2	4	n/a	n/a	n/a	20	n/a	n/a	n/a	n/a
3393.026	n/a	DISTRACTOR	1696513	n/a	LTP138	ltpFR2	4	13	n/a	n/a	n/a	n/a	0	0	0
3393.036	n/a	PROB	1696518	n/a	LTP138	ltpFR2	4	n/a	n/a	n/a	20	8	5	1	2
3394.938	n/a	PROB	1697469	n/a	LTP138	ltpFR2	4	n/a	n/a	n/a	20	10	5	4	1
3396.88	n/a	PROB	1698440	n/a	LTP138	ltpFR2	4	n/a	n/a	n/a	20	20	8	5	7
3398.922	n/a	PROB	1699461	n/a	LTP138	ltpFR2	4	n/a	n/a	n/a	20	17	2	6	9
3401.096	n/a	PROB	1700548	n/a	LTP138	ltpFR2	4	n/a	n/a	n/a	20	18	6	9	3
3403.574	n/a	PROB	1701787	n/a	LTP138	ltpFR2	4	n/a	n/a	n/a	20	14	8	3	3
3404.878	n/a	PROB	1702439	n/a	LTP138	ltpFR2	4	n/a	n/a	n/a	20	13	6	4	3
3407.872	n/a	PROB	1703936	n/a	LTP138	ltpFR2	4	n/a	n/a	n/a	20	16	5	9	2
3410.184	n/a	PROB	1705092	n/a	LTP138	ltpFR2	4	n/a	n/a	n/a	20	26	9	9	8
3416.018	n/a	STOP	1708009	n/a	LTP138	ltpFR2	4	n/a	n/a	n/a	20	n/a	n/a	n/a	n/a
3417.916	n/a	REC_START	1708958	n/a	LTP138	ltpFR2	4	13	n/a	n/a	n/a	n/a	0	0	0
3419.36	n/a	REC_WORD	1709680	wordpools/wasnorm_wordpool_576.txt	LTP138	ltpFR2	4	13	WRIST	1626	n/a	n/a	0	0	0
3420.592	n/a	REC_WORD	1710296	wordpools/wasnorm_wordpool_576.txt	LTP138	ltpFR2	4	13	ARM	38	n/a	n/a	0	0	0
3422.866	n/a	REC_WORD	1711433	wordpools/wasnorm_wordpool_576.txt	LTP138	ltpFR2	4	13	BRACES	164	n/a	n/a	0	0	0
3425.072	n/a	REC_WORD	1712536	wordpools/wasnorm_wordpool_576.txt	LTP138	ltpFR2	4	13	TART	1436	n/a	n/a	0	0	0
3426.254	n/a	REC_WORD	1713127	wordpools/wasnorm_wordpool_576.txt	LTP138	ltpFR2	4	13	PEBBLE	1035	n/a	n/a	0	0	0
3427.312	n/a	REC_WORD	1713656	wordpools/wasnorm_wordpool_576.txt	LTP138	ltpFR2	4	13	GRAVEL	659	n/a	n/a	0	0	0
3429.106	n/a	REC_WORD	1714553	wordpools/wasnorm_wordpool_576.txt	LTP138	ltpFR2	4	13	MOP	916	n/a	n/a	0	0	0
3437.908	n/a	REC_WORD	1718954	wordpools/wasnorm_wordpool_576.txt	LTP138	ltpFR2	4	13	COLONEL	348	n/a	n/a	0	0	0
3467.414	n/a	REC_WORD	1733707	wordpools/wasnorm_wordpool_576.txt	LTP138	ltpFR2	4	13	PICNIC	1060	n/a	n/a	0	0	0
3487.4	n/a	REC_WORD	1743700	wordpools/wasnorm_wordpool_576.txt	LTP138	ltpFR2	4	13	CROSS	413	n/a	n/a	0	0	0
3508.946	n/a	DISTRACTOR	1754473	n/a	LTP138	ltpFR2	4	14	n/a	n/a	n/a	n/a	0	0	0
3508.946	n/a	START	1754473	n/a	LTP138	ltpFR2	4	n/a	n/a	n/a	21	n/a	n/a	n/a	n/a
3508.996	n/a	PROB	1754498	n/a	LTP138	ltpFR2	4	n/a	n/a	n/a	21	21	4	8	9
3512.808	n/a	PROB	1756404	n/a	LTP138	ltpFR2	4	n/a	n/a	n/a	21	16	5	9	2
3514.716	n/a	PROB	1757358	n/a	LTP138	ltpFR2	4	n/a	n/a	n/a	21	12	2	2	8
3515.918	n/a	PROB	1757959	n/a	LTP138	ltpFR2	4	n/a	n/a	n/a	21	12	2	6	4
3517.09	n/a	PROB	1758545	n/a	LTP138	ltpFR2	4	n/a	n/a	n/a	21	16	8	2	6
3518.512	n/a	PROB	1759256	n/a	LTP138	ltpFR2	4	n/a	n/a	n/a	21	16	3	7	6
3520.37	n/a	PROB	1760185	n/a	LTP138	ltpFR2	4	n/a	n/a	n/a	21	8	4	3	1
3522.058	n/a	PROB	1761029	n/a	LTP138	ltpFR2	4	n/a	n/a	n/a	21	19	7	7	5
3523.766	n/a	PROB	1761883	n/a	LTP138	ltpFR2	4	n/a	n/a	n/a	21	12	4	2	6
3525.522	n/a	PROB	1762761	n/a	LTP138	ltpFR2	4	n/a	n/a	n/a	21	17	1	9	7
3526.894	n/a	PROB	1763447	n/a	LTP138	ltpFR2	4	n/a	n/a	n/a	21	16	5	5	6
3528.082	n/a	PROB	1764041	n/a	LTP138	ltpFR2	4	n/a	n/a	n/a	21	17	2	8	7
3532.948	n/a	STOP	1766474	n/a	LTP138	ltpFR2	4	n/a	n/a	n/a	21	n/a	n/a	n/a	n/a
3534.108	n/a	WORD	1767054	wordpools/wasnorm_wordpool_576.txt	LTP138	ltpFR2	4	14	BREAST	171	n/a	n/a	0	0	0
3536.598	n/a	WORD	1768299	wordpools/wasnorm_wordpool_576.txt	LTP138	ltpFR2	4	14	FLOWER	584	n/a	n/a	0	0	0
3539.178	n/a	WORD	1769589	wordpools/wasnorm_wordpool_576.txt	LTP138	ltpFR2	4	14	FREEZER	604	n/a	n/a	0	0	0
3541.738	n/a	WORD	1770869	wordpools/wasnorm_wordpool_576.txt	LTP138	ltpFR2	4	14	COWBOY	395	n/a	n/a	0	0	0
3544.394	n/a	WORD	1772197	wordpools/wasnorm_wordpool_576.txt	LTP138	ltpFR2	4	14	MAMMAL	861	n/a	n/a	0	0	0
3546.826	n/a	WORD	1773413	wordpools/wasnorm_wordpool_576.txt	LTP138	ltpFR2	4	14	KNAPSACK	783	n/a	n/a	0	0	0
3549.552	n/a	WORD	1774776	wordpools/wasnorm_wordpool_576.txt	LTP138	ltpFR2	4	14	TRIBE	1505	n/a	n/a	0	0	0
3552.044	n/a	WORD	1776022	wordpools/wasnorm_wordpool_576.txt	LTP138	ltpFR2	4	14	BISON	131	n/a	n/a	0	0	0
3554.818	n/a	WORD	1777409	wordpools/wasnorm_wordpool_576.txt	LTP138	ltpFR2	4	14	JUNGLE	764	n/a	n/a	0	0	0
3557.582	n/a	WORD	1778791	wordpools/wasnorm_wordpool_576.txt	LTP138	ltpFR2	4	14	PADDLE	1000	n/a	n/a	0	0	0
3560.242	n/a	WORD	1780121	wordpools/wasnorm_wordpool_576.txt	LTP138	ltpFR2	4	14	PANTHER	1009	n/a	n/a	0	0	0
3562.968	n/a	WORD	1781484	wordpools/wasnorm_wordpool_576.txt	LTP138	ltpFR2	4	14	LEOPARD	812	n/a	n/a	0	0	0
3565.514	n/a	WORD	1782757	wordpools/wasnorm_wordpool_576.txt	LTP138	ltpFR2	4	14	ROBOT	1200	n/a	n/a	0	0	0
3568.088	n/a	WORD	1784044	wordpools/wasnorm_wordpool_576.txt	LTP138	ltpFR2	4	14	PAIL	1002	n/a	n/a	0	0	0
3570.516	n/a	WORD	1785258	wordpools/wasnorm_wordpool_576.txt	LTP138	ltpFR2	4	14	SLIDE	1326	n/a	n/a	0	0	0
3573.04	n/a	WORD	1786520	wordpools/wasnorm_wordpool_576.txt	LTP138	ltpFR2	4	14	PASTRY	1022	n/a	n/a	0	0	0
3575.5	n/a	WORD	1787750	wordpools/wasnorm_wordpool_576.txt	LTP138	ltpFR2	4	14	WIFE	1609	n/a	n/a	0	0	0
3577.992	n/a	WORD	1788996	wordpools/wasnorm_wordpool_576.txt	LTP138	ltpFR2	4	14	PRIMATE	1123	n/a	n/a	0	0	0
3580.688	n/a	WORD	1790344	wordpools/wasnorm_wordpool_576.txt	LTP138	ltpFR2	4	14	GOBLIN	645	n/a	n/a	0	0	0
3583.112	n/a	WORD	1791556	wordpools/wasnorm_wordpool_576.txt	LTP138	ltpFR2	4	14	STOVE	1388	n/a	n/a	0	0	0
3585.79	n/a	WORD	1792895	wordpools/wasnorm_wordpool_576.txt	LTP138	ltpFR2	4	14	CLAMP	316	n/a	n/a	0	0	0
3588.316	n/a	WORD	1794158	wordpools/wasnorm_wordpool_576.txt	LTP138	ltpFR2	4	14	OUTDOORS	987	n/a	n/a	0	0	0
3590.942	n/a	WORD	1795471	wordpools/wasnorm_wordpool_576.txt	LTP138	ltpFR2	4	14	EMPIRE	530	n/a	n/a	0	0	0
3593.57	n/a	WORD	1796785	wordpools/wasnorm_wordpool_576.txt	LTP138	ltpFR2	4	14	MARINE	869	n/a	n/a	0	0	0
3595.176	n/a	START	1797588	n/a	LTP138	ltpFR2	4	n/a	n/a	n/a	22	n/a	n/a	n/a	n/a
3596.104	n/a	DISTRACTOR	1798052	n/a	LTP138	ltpFR2	4	14	n/a	n/a	n/a	n/a	0	0	0
3596.112	n/a	PROB	1798056	n/a	LTP138	ltpFR2	4	n/a	n/a	n/a	22	18	7	2	9
3598.082	n/a	PROB	1799041	n/a	LTP138	ltpFR2	4	n/a	n/a	n/a	22	19	7	3	9
3599.472	n/a	PROB	1799736	n/a	LTP138	ltpFR2	4	n/a	n/a	n/a	22	23	9	7	7
3601.964	n/a	PROB	1800982	n/a	LTP138	ltpFR2	4	n/a	n/a	n/a	22	21	9	9	3
3604.858	n/a	PROB	1802429	n/a	LTP138	ltpFR2	4	n/a	n/a	n/a	22	6	3	2	1
3606.516	n/a	PROB	1803258	n/a	LTP138	ltpFR2	4	n/a	n/a	n/a	22	14	7	3	4
3607.958	n/a	PROB	1803979	n/a	LTP138	ltpFR2	4	n/a	n/a	n/a	22	14	1	8	5
3609.428	n/a	PROB	1804714	n/a	LTP138	ltpFR2	4	n/a	n/a	n/a	22	19	8	9	2
3611.35	n/a	PROB	1805675	n/a	LTP138	ltpFR2	4	n/a	n/a	n/a	22	11	5	2	4
3613.542	n/a	PROB	1806771	n/a	LTP138	ltpFR2	4	n/a	n/a	n/a	22	12	7	1	4
3614.946	n/a	PROB	1807473	n/a	LTP138	ltpFR2	4	n/a	n/a	n/a	22	16	7	5	4
3616.742	n/a	PROB	1808371	n/a	LTP138	ltpFR2	4	n/a	n/a	n/a	22	17	5	7	5
3618.258	n/a	STOP	1809129	n/a	LTP138	ltpFR2	4	n/a	n/a	n/a	22	n/a	n/a	n/a	n/a
3621.05	n/a	REC_START	1810525	n/a	LTP138	ltpFR2	4	14	n/a	n/a	n/a	n/a	0	0	0
3622.284	n/a	REC_WORD	1811142	wordpools/wasnorm_wordpool_576.txt	LTP138	ltpFR2	4	14	OUTDOORS	987	n/a	n/a	0	0	0
3623.94	n/a	REC_WORD	1811970	wordpools/wasnorm_wordpool_576.txt	LTP138	ltpFR2	4	14	STOVE	1388	n/a	n/a	0	0	0
3624.854	n/a	REC_WORD	1812427	wordpools/wasnorm_wordpool_576.txt	LTP138	ltpFR2	4	14	FREEZER	604	n/a	n/a	0	0	0
3627.104	n/a	REC_WORD	1813552	wordpools/wasnorm_wordpool_576.txt	LTP138	ltpFR2	4	14	BREAST	171	n/a	n/a	0	0	0
3628.016	n/a	REC_WORD	1814008	wordpools/wasnorm_wordpool_576.txt	LTP138	ltpFR2	4	14	DAISY	435	n/a	n/a	0	0	0
3628.942	n/a	REC_WORD	1814471	wordpools/wasnorm_wordpool_576.txt	LTP138	ltpFR2	4	14	KNAPSACK	783	n/a	n/a	0	0	0
3631.938	n/a	REC_WORD	1815969	wordpools/wasnorm_wordpool_576.txt	LTP138	ltpFR2	4	14	MAMMAL	861	n/a	n/a	0	0	0
3634.228	n/a	REC_WORD	1817114	wordpools/wasnorm_wordpool_576.txt	LTP138	ltpFR2	4	14	PRIMATE	1123	n/a	n/a	0	0	0
3637.788	n/a	REC_WORD	1818894	wordpools/wasnorm_wordpool_576.txt	LTP138	ltpFR2	4	14	PANTHER	1009	n/a	n/a	0	0	0
3641.486	n/a	REC_WORD	1820743	wordpools/wasnorm_wordpool_576.txt	LTP138	ltpFR2	4	14	BISON	131	n/a	n/a	0	0	0
3642.964	n/a	REC_WORD	1821482	wordpools/wasnorm_wordpool_576.txt	LTP138	ltpFR2	4	14	TRIBE	1505	n/a	n/a	0	0	0
3684.072	n/a	REC_WORD	1842036	wordpools/wasnorm_wordpool_576.txt	LTP138	ltpFR2	4	14	LEOPARD	812	n/a	n/a	0	0	0
3688.05	n/a	REC_WORD	1844025	wordpools/wasnorm_wordpool_576.txt	LTP138	ltpFR2	4	14	PAIL	1002	n/a	n/a	0	0	0
3694.17	n/a	REC_WORD	1847085	wordpools/wasnorm_wordpool_576.txt	LTP138	ltpFR2	4	14	WIFE	1609	n/a	n/a	0	0	0
3694.834	n/a	REC_WORD	1847417	wordpools/wasnorm_wordpool_576.txt	LTP138	ltpFR2	4	14	SLIDE	1326	n/a	n/a	0	0	0
3695.902	n/a	REC_WORD_VV	1847951	wordpools/wasnorm_wordpool_576.txt	LTP138	ltpFR2	4	14	<>	-1	n/a	n/a	0	0	0
3712.088	n/a	DISTRACTOR	1856044	n/a	LTP138	ltpFR2	4	15	n/a	n/a	n/a	n/a	0	0	0
3712.088	n/a	START	1856044	n/a	LTP138	ltpFR2	4	n/a	n/a	n/a	23	n/a	n/a	n/a	n/a
3712.138	n/a	PROB	1856069	n/a	LTP138	ltpFR2	4	n/a	n/a	n/a	23	13	6	2	5
3714.78	n/a	PROB	1857390	n/a	LTP138	ltpFR2	4	n/a	n/a	n/a	23	10	7	1	2
3716.524	n/a	PROB	1858262	n/a	LTP138	ltpFR2	4	n/a	n/a	n/a	23	22	6	8	8
3719.162	n/a	PROB	1859581	n/a	LTP138	ltpFR2	4	n/a	n/a	n/a	23	15	1	9	5
3720.384	n/a	PROB	1860192	n/a	LTP138	ltpFR2	4	n/a	n/a	n/a	23	13	1	9	3
3721.676	n/a	PROB	1860838	n/a	LTP138	ltpFR2	4	n/a	n/a	n/a	23	16	7	1	8
3723.344	n/a	PROB	1861672	n/a	LTP138	ltpFR2	4	n/a	n/a	n/a	23	7	1	2	4
3724.684	n/a	PROB	1862342	n/a	LTP138	ltpFR2	4	n/a	n/a	n/a	23	13	2	5	6
3727.444	n/a	PROB	1863722	n/a	LTP138	ltpFR2	4	n/a	n/a	n/a	23	18	4	8	6
3729.94	n/a	PROB	1864970	n/a	LTP138	ltpFR2	4	n/a	n/a	n/a	23	12	3	2	7
3731.396	n/a	PROB	1865698	n/a	LTP138	ltpFR2	4	n/a	n/a	n/a	23	21	5	8	8
3733.034	n/a	PROB	1866517	n/a	LTP138	ltpFR2	4	n/a	n/a	n/a	23	9	1	7	1
3736.09	n/a	STOP	1868045	n/a	LTP138	ltpFR2	4	n/a	n/a	n/a	23	n/a	n/a	n/a	n/a
3736.934	n/a	WORD	1868467	wordpools/wasnorm_wordpool_576.txt	LTP138	ltpFR2	4	15	CRAB	397	n/a	n/a	0	0	0
3739.578	n/a	WORD	1869789	wordpools/wasnorm_wordpool_576.txt	LTP138	ltpFR2	4	15	DASHBOARD	441	n/a	n/a	0	0	0
3742.304	n/a	WORD	1871152	wordpools/wasnorm_wordpool_576.txt	LTP138	ltpFR2	4	15	STICKER	1382	n/a	n/a	0	0	0
3744.764	n/a	WORD	1872382	wordpools/wasnorm_wordpool_576.txt	LTP138	ltpFR2	4	15	SEAL	1262	n/a	n/a	0	0	0
3747.34	n/a	WORD	1873670	wordpools/wasnorm_wordpool_576.txt	LTP138	ltpFR2	4	15	HARP	689	n/a	n/a	0	0	0
3750.1	n/a	WORD	1875050	wordpools/wasnorm_wordpool_576.txt	LTP138	ltpFR2	4	15	HEADBAND	696	n/a	n/a	0	0	0
3752.678	n/a	WORD	1876339	wordpools/wasnorm_wordpool_576.txt	LTP138	ltpFR2	4	15	BEEF	113	n/a	n/a	0	0	0
3755.104	n/a	WORD	1877552	wordpools/wasnorm_wordpool_576.txt	LTP138	ltpFR2	4	15	KETCHUP	771	n/a	n/a	0	0	0
3757.814	n/a	WORD	1878907	wordpools/wasnorm_wordpool_576.txt	LTP138	ltpFR2	4	15	WHISKERS	1605	n/a	n/a	0	0	0
3760.442	n/a	WORD	1880221	wordpools/wasnorm_wordpool_576.txt	LTP138	ltpFR2	4	15	LION	827	n/a	n/a	0	0	0
3763.248	n/a	WORD	1881624	wordpools/wasnorm_wordpool_576.txt	LTP138	ltpFR2	4	15	LUGGAGE	847	n/a	n/a	0	0	0
3765.878	n/a	WORD	1882939	wordpools/wasnorm_wordpool_576.txt	LTP138	ltpFR2	4	15	SUITCASE	1403	n/a	n/a	0	0	0
3768.488	n/a	WORD	1884244	wordpools/wasnorm_wordpool_576.txt	LTP138	ltpFR2	4	15	ATOM	55	n/a	n/a	0	0	0
3771.262	n/a	WORD	1885631	wordpools/wasnorm_wordpool_576.txt	LTP138	ltpFR2	4	15	SALMON	1227	n/a	n/a	0	0	0
3773.742	n/a	WORD	1886871	wordpools/wasnorm_wordpool_576.txt	LTP138	ltpFR2	4	15	GLOVE	642	n/a	n/a	0	0	0
3776.482	n/a	WORD	1888241	wordpools/wasnorm_wordpool_576.txt	LTP138	ltpFR2	4	15	PERMIT	1051	n/a	n/a	0	0	0
3779.212	n/a	WORD	1889606	wordpools/wasnorm_wordpool_576.txt	LTP138	ltpFR2	4	15	WARDROBE	1587	n/a	n/a	0	0	0
3781.906	n/a	WORD	1890953	wordpools/wasnorm_wordpool_576.txt	LTP138	ltpFR2	4	15	CABBAGE	210	n/a	n/a	0	0	0
3784.546	n/a	WORD	1892273	wordpools/wasnorm_wordpool_576.txt	LTP138	ltpFR2	4	15	POCKET	1093	n/a	n/a	0	0	0
3786.974	n/a	WORD	1893487	wordpools/wasnorm_wordpool_576.txt	LTP138	ltpFR2	4	15	HANDBAG	684	n/a	n/a	0	0	0
3789.57	n/a	WORD	1894785	wordpools/wasnorm_wordpool_576.txt	LTP138	ltpFR2	4	15	PISTOL	1075	n/a	n/a	0	0	0
3792.38	n/a	WORD	1896190	wordpools/wasnorm_wordpool_576.txt	LTP138	ltpFR2	4	15	MISTER	901	n/a	n/a	0	0	0
3794.972	n/a	WORD	1897486	wordpools/wasnorm_wordpool_576.txt	LTP138	ltpFR2	4	15	RECEIPT	1173	n/a	n/a	0	0	0
3797.532	n/a	WORD	1898766	wordpools/wasnorm_wordpool_576.txt	LTP138	ltpFR2	4	15	FINGER	567	n/a	n/a	0	0	0
3799.138	n/a	START	1899569	n/a	LTP138	ltpFR2	4	n/a	n/a	n/a	24	n/a	n/a	n/a	n/a
3800.258	n/a	DISTRACTOR	1900129	n/a	LTP138	ltpFR2	4	15	n/a	n/a	n/a	n/a	0	0	0
3800.276	n/a	PROB	1900138	n/a	LTP138	ltpFR2	4	n/a	n/a	n/a	24	14	2	4	8
3802.314	n/a	PROB	1901157	n/a	LTP138	ltpFR2	4	n/a	n/a	n/a	24	16	3	8	5
3804.254	n/a	PROB	1902127	n/a	LTP138	ltpFR2	4	n/a	n/a	n/a	24	9	3	3	3
3805.63	n/a	PROB	1902815	n/a	LTP138	ltpFR2	4	n/a	n/a	n/a	24	9	3	2	4
3807.768	n/a	PROB	1903884	n/a	LTP138	ltpFR2	4	n/a	n/a	n/a	24	10	1	2	7
3809.642	n/a	PROB	1904821	n/a	LTP138	ltpFR2	4	n/a	n/a	n/a	24	15	4	4	7
3810.914	n/a	PROB	1905457	n/a	LTP138	ltpFR2	4	n/a	n/a	n/a	24	14	2	7	5
3813.562	n/a	PROB	1906781	n/a	LTP138	ltpFR2	4	n/a	n/a	n/a	24	8	5	1	2
3815.146	n/a	PROB	1907573	n/a	LTP138	ltpFR2	4	n/a	n/a	n/a	24	15	6	5	4
3817.07	n/a	PROB	1908535	n/a	LTP138	ltpFR2	4	n/a	n/a	n/a	24	15	7	3	5
3818.274	n/a	PROB	1909137	n/a	LTP138	ltpFR2	4	n/a	n/a	n/a	24	15	3	7	5
3819.88	n/a	PROB	1909940	n/a	LTP138	ltpFR2	4	n/a	n/a	n/a	24	10	6	2	2
3821.624	n/a	PROB	1910812	n/a	LTP138	ltpFR2	4	n/a	n/a	n/a	24	19	7	3	9
3822.974	n/a	STOP	1911487	n/a	LTP138	ltpFR2	4	n/a	n/a	n/a	24	n/a	n/a	n/a	n/a
3825.02	n/a	REC_START	1912510	n/a	LTP138	ltpFR2	4	15	n/a	n/a	n/a	n/a	0	0	0
3825.932	n/a	REC_WORD	1912966	wordpools/wasnorm_wordpool_576.txt	LTP138	ltpFR2	4	15	MISTER	901	n/a	n/a	0	0	0
3827.374	n/a	REC_WORD	1913687	wordpools/wasnorm_wordpool_576.txt	LTP138	ltpFR2	4	15	PISTOL	1075	n/a	n/a	0	0	0
3828.35	n/a	REC_WORD	1914175	wordpools/wasnorm_wordpool_576.txt	LTP138	ltpFR2	4	15	FINGER	567	n/a	n/a	0	0	0
3829.662	n/a	REC_WORD	1914831	wordpools/wasnorm_wordpool_576.txt	LTP138	ltpFR2	4	15	POCKET	1093	n/a	n/a	0	0	0
3830.876	n/a	REC_WORD	1915438	wordpools/wasnorm_wordpool_576.txt	LTP138	ltpFR2	4	15	HANDBAG	684	n/a	n/a	0	0	0
3832.848	n/a	REC_WORD	1916424	wordpools/wasnorm_wordpool_576.txt	LTP138	ltpFR2	4	15	LUGGAGE	847	n/a	n/a	0	0	0
3834.442	n/a	REC_WORD	1917221	wordpools/wasnorm_wordpool_576.txt	LTP138	ltpFR2	4	15	SUITCASE	1403	n/a	n/a	0	0	0
3835.442	n/a	REC_WORD_VV	1917721	wordpools/wasnorm_wordpool_576.txt	LTP138	ltpFR2	4	15	<>	-1	n/a	n/a	0	0	0
3835.762	n/a	REC_WORD	1917881	wordpools/wasnorm_wordpool_576.txt	LTP138	ltpFR2	4	15	WARDROBE	1587	n/a	n/a	0	0	0
3844.872	n/a	REC_WORD	1922436	wordpools/wasnorm_wordpool_576.txt	LTP138	ltpFR2	4	15	LION	827	n/a	n/a	0	0	0
3846.056	n/a	REC_WORD	1923028	wordpools/wasnorm_wordpool_576.txt	LTP138	ltpFR2	4	15	WHISKERS	1605	n/a	n/a	0	0	0
3848.962	n/a	REC_WORD	1924481	wordpools/wasnorm_wordpool_576.txt	LTP138	ltpFR2	4	15	BEEF	113	n/a	n/a	0	0	0
3849.85	n/a	REC_WORD	1924925	wordpools/wasnorm_wordpool_576.txt	LTP138	ltpFR2	4	15	HEADBAND	696	n/a	n/a	0	0	0
3856.392	n/a	REC_WORD	1928196	wordpools/wasnorm_wordpool_576.txt	LTP138	ltpFR2	4	15	SEAL	1262	n/a	n/a	0	0	0
3861.562	n/a	REC_WORD	1930781	wordpools/wasnorm_wordpool_576.txt	LTP138	ltpFR2	4	15	HARP	689	n/a	n/a	0	0	0
3870.836	n/a	REC_WORD	1935418	wordpools/wasnorm_wordpool_576.txt	LTP138	ltpFR2	4	15	ATOM	55	n/a	n/a	0	0	0
3916.052	n/a	WORD	1958026	wordpools/wasnorm_wordpool_576.txt	LTP138	ltpFR2	4	16	BURGLAR	200	n/a	n/a	0	0	0
3918.846	n/a	WORD	1959423	wordpools/wasnorm_wordpool_576.txt	LTP138	ltpFR2	4	16	SALT	1229	n/a	n/a	0	0	0
3921.524	n/a	WORD	1960762	wordpools/wasnorm_wordpool_576.txt	LTP138	ltpFR2	4	16	ZEBRA	1635	n/a	n/a	0	0	0
3924.182	n/a	WORD	1962091	wordpools/wasnorm_wordpool_576.txt	LTP138	ltpFR2	4	16	DANDRUFF	439	n/a	n/a	0	0	0
3926.976	n/a	WORD	1963488	wordpools/wasnorm_wordpool_576.txt	LTP138	ltpFR2	4	16	TWEEZERS	1526	n/a	n/a	0	0	0
3929.5	n/a	WORD	1964750	wordpools/wasnorm_wordpool_576.txt	LTP138	ltpFR2	4	16	DORM	488	n/a	n/a	0	0	0
3932.214	n/a	WORD	1966107	wordpools/wasnorm_wordpool_576.txt	LTP138	ltpFR2	4	16	LODGE	839	n/a	n/a	0	0	0
3934.956	n/a	WORD	1967478	wordpools/wasnorm_wordpool_576.txt	LTP138	ltpFR2	4	16	PILOT	1070	n/a	n/a	0	0	0
3937.702	n/a	WORD	1968851	wordpools/wasnorm_wordpool_576.txt	LTP138	ltpFR2	4	16	AWARD	63	n/a	n/a	0	0	0
3940.51	n/a	WORD	1970255	wordpools/wasnorm_wordpool_576.txt	LTP138	ltpFR2	4	16	PLIERS	1089	n/a	n/a	0	0	0
3943.302	n/a	WORD	1971651	wordpools/wasnorm_wordpool_576.txt	LTP138	ltpFR2	4	16	BEAVER	109	n/a	n/a	0	0	0
3945.982	n/a	WORD	1972991	wordpools/wasnorm_wordpool_576.txt	LTP138	ltpFR2	4	16	CHIPMUNK	304	n/a	n/a	0	0	0
3948.678	n/a	WORD	1974339	wordpools/wasnorm_wordpool_576.txt	LTP138	ltpFR2	4	16	BOARD	143	n/a	n/a	0	0	0
3951.37	n/a	WORD	1975685	wordpools/wasnorm_wordpool_576.txt	LTP138	ltpFR2	4	16	SODA	1341	n/a	n/a	0	0	0
3953.796	n/a	WORD	1976898	wordpools/wasnorm_wordpool_576.txt	LTP138	ltpFR2	4	16	THREAD	1460	n/a	n/a	0	0	0
3956.474	n/a	WORD	1978237	wordpools/wasnorm_wordpool_576.txt	LTP138	ltpFR2	4	16	TURTLE	1522	n/a	n/a	0	0	0
3959.25	n/a	WORD	1979625	wordpools/wasnorm_wordpool_576.txt	LTP138	ltpFR2	4	16	TUTU	1524	n/a	n/a	0	0	0
3961.824	n/a	WORD	1980912	wordpools/wasnorm_wordpool_576.txt	LTP138	ltpFR2	4	16	EAGLE	512	n/a	n/a	0	0	0
3964.634	n/a	WORD	1982317	wordpools/wasnorm_wordpool_576.txt	LTP138	ltpFR2	4	16	PEPPER	1047	n/a	n/a	0	0	0
3967.314	n/a	WORD	1983657	wordpools/wasnorm_wordpool_576.txt	LTP138	ltpFR2	4	16	REPORT	1184	n/a	n/a	0	0	0
3969.958	n/a	WORD	1984979	wordpools/wasnorm_wordpool_576.txt	LTP138	ltpFR2	4	16	BEAST	108	n/a	n/a	0	0	0
3972.552	n/a	WORD	1986276	wordpools/wasnorm_wordpool_576.txt	LTP138	ltpFR2	4	16	OYSTER	995	n/a	n/a	0	0	0
3975.244	n/a	WORD	1987622	wordpools/wasnorm_wordpool_576.txt	LTP138	ltpFR2	4	16	DOLPHIN	483	n/a	n/a	0	0	0
3977.722	n/a	WORD	1988861	wordpools/wasnorm_wordpool_576.txt	LTP138	ltpFR2	4	16	CANYON	235	n/a	n/a	0	0	0
3979.328	n/a	START	1989664	n/a	LTP138	ltpFR2	4	n/a	n/a	n/a	25	n/a	n/a	n/a	n/a
3980.506	n/a	DISTRACTOR	1990253	n/a	LTP138	ltpFR2	4	16	n/a	n/a	n/a	n/a	0	0	0
3980.516	n/a	PROB	1990258	n/a	LTP138	ltpFR2	4	n/a	n/a	n/a	25	20	7	8	5
3982.738	n/a	PROB	1991369	n/a	LTP138	ltpFR2	4	n/a	n/a	n/a	25	15	9	5	1
3984.008	n/a	PROB	1992004	n/a	LTP138	ltpFR2	4	n/a	n/a	n/a	25	9	1	5	3
3985.498	n/a	PROB	1992749	n/a	LTP138	ltpFR2	4	n/a	n/a	n/a	25	9	1	4	4
3987.27	n/a	PROB	1993635	n/a	LTP138	ltpFR2	4	n/a	n/a	n/a	25	14	2	9	3
3989.16	n/a	PROB	1994580	n/a	LTP138	ltpFR2	4	n/a	n/a	n/a	25	16	9	5	2
3991.252	n/a	PROB	1995626	n/a	LTP138	ltpFR2	4	n/a	n/a	n/a	25	18	8	2	8
3992.742	n/a	PROB	1996371	n/a	LTP138	ltpFR2	4	n/a	n/a	n/a	25	16	9	3	4
3994.062	n/a	PROB	1997031	n/a	LTP138	ltpFR2	4	n/a	n/a	n/a	25	14	2	6	6
3995.54	n/a	PROB	1997770	n/a	LTP138	ltpFR2	4	n/a	n/a	n/a	25	17	2	8	7
3997.712	n/a	PROB	1998856	n/a	LTP138	ltpFR2	4	n/a	n/a	n/a	25	14	2	8	4
3999.906	n/a	PROB	1999953	n/a	LTP138	ltpFR2	4	n/a	n/a	n/a	25	16	7	7	2
4001.878	n/a	STOP	2000939	n/a	LTP138	ltpFR2	4	n/a	n/a	n/a	25	n/a	n/a	n/a	n/a
4005.244	n/a	REC_START	2002622	n/a	LTP138	ltpFR2	4	16	n/a	n/a	n/a	n/a	0	0	0
4007.048	n/a	REC_WORD	2003524	wordpools/wasnorm_wordpool_576.txt	LTP138	ltpFR2	4	16	LODGE	839	n/a	n/a	0	0	0
4008.354	n/a	REC_WORD	2004177	wordpools/wasnorm_wordpool_576.txt	LTP138	ltpFR2	4	16	DORM	488	n/a	n/a	0	0	0
4011.554	n/a	REC_WORD	2005777	wordpools/wasnorm_wordpool_576.txt	LTP138	ltpFR2	4	16	TWEEZERS	1526	n/a	n/a	0	0	0
4012.914	n/a	REC_WORD	2006457	wordpools/wasnorm_wordpool_576.txt	LTP138	ltpFR2	4	16	PLIERS	1089	n/a	n/a	0	0	0
4014.604	n/a	REC_WORD	2007302	wordpools/wasnorm_wordpool_576.txt	LTP138	ltpFR2	4	16	TUTU	1524	n/a	n/a	0	0	0
4017.098	n/a	REC_WORD	2008549	wordpools/wasnorm_wordpool_576.txt	LTP138	ltpFR2	4	16	EAGLE	512	n/a	n/a	0	0	0
4020.19	n/a	REC_WORD	2010095	wordpools/wasnorm_wordpool_576.txt	LTP138	ltpFR2	4	16	OYSTER	995	n/a	n/a	0	0	0
4024.438	n/a	REC_WORD	2012219	wordpools/wasnorm_wordpool_576.txt	LTP138	ltpFR2	4	16	BEAVER	109	n/a	n/a	0	0	0
4032.672	n/a	REC_WORD	2016336	wordpools/wasnorm_wordpool_576.txt	LTP138	ltpFR2	4	16	ZEBRA	1635	n/a	n/a	0	0	0
4034.118	n/a	REC_WORD	2017059	wordpools/wasnorm_wordpool_576.txt	LTP138	ltpFR2	4	16	SALT	1229	n/a	n/a	0	0	0
4035.12	n/a	REC_WORD	2017560	wordpools/wasnorm_wordpool_576.txt	LTP138	ltpFR2	4	16	PEPPER	1047	n/a	n/a	0	0	0
4036.266	n/a	REC_WORD	2018133	wordpools/wasnorm_wordpool_576.txt	LTP138	ltpFR2	4	16	DANDRUFF	439	n/a	n/a	0	0	0
4039.768	n/a	REC_WORD	2019884	wordpools/wasnorm_wordpool_576.txt	LTP138	ltpFR2	4	16	COURSE	390	n/a	n/a	0	0	0
4062.682	n/a	REC_WORD	2031341	wordpools/wasnorm_wordpool_576.txt	LTP138	ltpFR2	4	16	CREATURE	403	n/a	n/a	0	0	0
4064.772	n/a	REC_WORD	2032386	wordpools/wasnorm_wordpool_576.txt	LTP138	ltpFR2	4	16	DOLPHIN	483	n/a	n/a	0	0	0
4082.02	n/a	REST_REWET	2041010	n/a	LTP138	ltpFR2	4	16	n/a	n/a	n/a	n/a	0	0	0
4446.564	n/a	WORD	2223282	wordpools/wasnorm_wordpool_576.txt	LTP138	ltpFR2	4	17	HAND	683	n/a	n/a	0	0	0
4449.37	n/a	WORD	2224685	wordpools/wasnorm_wordpool_576.txt	LTP138	ltpFR2	4	17	MARROW	872	n/a	n/a	0	0	0
4452.134	n/a	WORD	2226067	wordpools/wasnorm_wordpool_576.txt	LTP138	ltpFR2	4	17	SPOON	1357	n/a	n/a	0	0	0
4454.778	n/a	WORD	2227389	wordpools/wasnorm_wordpool_576.txt	LTP138	ltpFR2	4	17	STAPLE	1371	n/a	n/a	0	0	0
4457.354	n/a	WORD	2228677	wordpools/wasnorm_wordpool_576.txt	LTP138	ltpFR2	4	17	NAPKIN	937	n/a	n/a	0	0	0
4460.11	n/a	WORD	2230055	wordpools/wasnorm_wordpool_576.txt	LTP138	ltpFR2	4	17	PACKAGE	997	n/a	n/a	0	0	0
4462.708	n/a	WORD	2231354	wordpools/wasnorm_wordpool_576.txt	LTP138	ltpFR2	4	17	CLIMBER	323	n/a	n/a	0	0	0
4465.168	n/a	WORD	2232584	wordpools/wasnorm_wordpool_576.txt	LTP138	ltpFR2	4	17	COFFEE	341	n/a	n/a	0	0	0
4467.94	n/a	WORD	2233970	wordpools/wasnorm_wordpool_576.txt	LTP138	ltpFR2	4	17	BUG	187	n/a	n/a	0	0	0
4470.718	n/a	WORD	2235359	wordpools/wasnorm_wordpool_576.txt	LTP138	ltpFR2	4	17	MASK	876	n/a	n/a	0	0	0
4473.5	n/a	WORD	2236750	wordpools/wasnorm_wordpool_576.txt	LTP138	ltpFR2	4	17	FOREHEAD	592	n/a	n/a	0	0	0
4476.126	n/a	WORD	2238063	wordpools/wasnorm_wordpool_576.txt	LTP138	ltpFR2	4	17	SKILLET	1317	n/a	n/a	0	0	0
4478.568	n/a	WORD	2239284	wordpools/wasnorm_wordpool_576.txt	LTP138	ltpFR2	4	17	ANKLE	24	n/a	n/a	0	0	0
4481.346	n/a	WORD	2240673	wordpools/wasnorm_wordpool_576.txt	LTP138	ltpFR2	4	17	BACKBONE	66	n/a	n/a	0	0	0
4483.986	n/a	WORD	2241993	wordpools/wasnorm_wordpool_576.txt	LTP138	ltpFR2	4	17	BARREL	91	n/a	n/a	0	0	0
4486.718	n/a	WORD	2243359	wordpools/wasnorm_wordpool_576.txt	LTP138	ltpFR2	4	17	REBEL	1172	n/a	n/a	0	0	0
4489.444	n/a	WORD	2244722	wordpools/wasnorm_wordpool_576.txt	LTP138	ltpFR2	4	17	GARDEN	623	n/a	n/a	0	0	0
4492.17	n/a	WORD	2246085	wordpools/wasnorm_wordpool_576.txt	LTP138	ltpFR2	4	17	LILY	821	n/a	n/a	0	0	0
4494.748	n/a	WORD	2247374	wordpools/wasnorm_wordpool_576.txt	LTP138	ltpFR2	4	17	BRANDY	169	n/a	n/a	0	0	0
4497.474	n/a	WORD	2248737	wordpools/wasnorm_wordpool_576.txt	LTP138	ltpFR2	4	17	ONION	977	n/a	n/a	0	0	0
4500.134	n/a	WORD	2250067	wordpools/wasnorm_wordpool_576.txt	LTP138	ltpFR2	4	17	COUNTY	389	n/a	n/a	0	0	0
4502.846	n/a	WORD	2251423	wordpools/wasnorm_wordpool_576.txt	LTP138	ltpFR2	4	17	RAZOR	1171	n/a	n/a	0	0	0
4505.3	n/a	WORD	2252650	wordpools/wasnorm_wordpool_576.txt	LTP138	ltpFR2	4	17	HEDGE	699	n/a	n/a	0	0	0
4507.898	n/a	WORD	2253949	wordpools/wasnorm_wordpool_576.txt	LTP138	ltpFR2	4	17	YOLK	1633	n/a	n/a	0	0	0
4509.504	n/a	START	2254752	n/a	LTP138	ltpFR2	4	n/a	n/a	n/a	26	n/a	n/a	n/a	n/a
4510.582	n/a	DISTRACTOR	2255291	n/a	LTP138	ltpFR2	4	17	n/a	n/a	n/a	n/a	0	0	0
4510.592	n/a	PROB	2255296	n/a	LTP138	ltpFR2	4	n/a	n/a	n/a	26	10	5	3	2
4512.546	n/a	PROB	2256273	n/a	LTP138	ltpFR2	4	n/a	n/a	n/a	26	25	7	9	9
4515.906	n/a	PROB	2257953	n/a	LTP138	ltpFR2	4	n/a	n/a	n/a	26	18	5	5	8
4517.3	n/a	PROB	2258650	n/a	LTP138	ltpFR2	4	n/a	n/a	n/a	26	22	5	8	9
4520.894	n/a	PROB	2260447	n/a	LTP138	ltpFR2	4	n/a	n/a	n/a	26	11	1	5	5
4522.298	n/a	PROB	2261149	n/a	LTP138	ltpFR2	4	n/a	n/a	n/a	26	10	4	4	2
4524.276	n/a	PROB	2262138	n/a	LTP138	ltpFR2	4	n/a	n/a	n/a	26	15	6	5	4
4528.254	n/a	PROB	2264127	n/a	LTP138	ltpFR2	4	n/a	n/a	n/a	26	5	1	1	3
4529.444	n/a	PROB	2264722	n/a	LTP138	ltpFR2	4	n/a	n/a	n/a	26	9	3	4	2
4530.982	n/a	PROB	2265491	n/a	LTP138	ltpFR2	4	n/a	n/a	n/a	26	10	5	2	3
4532.916	n/a	STOP	2266458	n/a	LTP138	ltpFR2	4	n/a	n/a	n/a	26	n/a	n/a	n/a	n/a
4535.402	n/a	REC_START	2267701	n/a	LTP138	ltpFR2	4	17	n/a	n/a	n/a	n/a	0	0	0
4536.74	n/a	REC_WORD	2268370	wordpools/wasnorm_wordpool_576.txt	LTP138	ltpFR2	4	17	GARDEN	623	n/a	n/a	0	0	0
4537.72	n/a	REC_WORD	2268860	wordpools/wasnorm_wordpool_576.txt	LTP138	ltpFR2	4	17	LILY	821	n/a	n/a	0	0	0
4539.46	n/a	REC_WORD	2269730	wordpools/wasnorm_wordpool_576.txt	LTP138	ltpFR2	4	17	SKILLET	1317	n/a	n/a	0	0	0
