onset	duration	trial_type	sample	stim_file	subject	experiment	session	trial	task	item_name	item_num	recog_conf	resp	color_b	color_g	color_r	case	font
464.246	n/a	SESS_START	232123	n/a	LTP266	ltpFR	1	n/a	n/a	n/a	n/a	n/a	n/a	n/a	n/a	n/a	n/a	n/a
632.276	n/a	WORD	316138	wordpools/wasnorm_wordpool_less_exclusions.txt	LTP266	ltpFR	1	1	1	POPCORN	1104	n/a	2	0	0.5869140625	0.422607421875	upper	../fonts/amplitud.ttf
633.564	n/a	KEY_MSG	316782	n/a	LTP266	ltpFR	1	1	n/a	n/a	n/a	n/a	n/a	n/a	n/a	n/a	n/a	n/a
636.24	n/a	WORD	318120	wordpools/wasnorm_wordpool_less_exclusions.txt	LTP266	ltpFR	1	1	1	ZEBRA	1635	n/a	1	0	0.5869140625	0.422607421875	upper	../fonts/amplitud.ttf
640.138	n/a	WORD	320069	wordpools/wasnorm_wordpool_less_exclusions.txt	LTP266	ltpFR	1	1	1	OX	994	n/a	1	0	0.5869140625	0.422607421875	upper	../fonts/amplitud.ttf
644.302	n/a	WORD	322151	wordpools/wasnorm_wordpool_less_exclusions.txt	LTP266	ltpFR	1	1	0	SPIDER	1351	n/a	1	1	0.412841796875	0.57763671875	lower	../fonts/zerothre.ttf
648.37	n/a	WORD	324185	wordpools/wasnorm_wordpool_less_exclusions.txt	LTP266	ltpFR	1	1	0	CREATURE	403	n/a	0	1	0.412841796875	0.57763671875	lower	../fonts/zerothre.ttf
652.318	n/a	WORD	326159	wordpools/wasnorm_wordpool_less_exclusions.txt	LTP266	ltpFR	1	1	0	OLIVE	975	n/a	0	1	0.412841796875	0.57763671875	lower	../fonts/zerothre.ttf
656.434	n/a	WORD	328217	wordpools/wasnorm_wordpool_less_exclusions.txt	LTP266	ltpFR	1	1	0	SHRUB	1299	n/a	1	1	0.412841796875	0.57763671875	lower	../fonts/zerothre.ttf
660.45	n/a	WORD	330225	wordpools/wasnorm_wordpool_less_exclusions.txt	LTP266	ltpFR	1	1	0	SCOUT	1252	n/a	0	1	0.412841796875	0.57763671875	lower	../fonts/zerothre.ttf
664.55	n/a	WORD	332275	wordpools/wasnorm_wordpool_less_exclusions.txt	LTP266	ltpFR	1	1	0	FLIPPER	580	n/a	1	1	0.412841796875	0.57763671875	lower	../fonts/zerothre.ttf
668.632	n/a	WORD	334316	wordpools/wasnorm_wordpool_less_exclusions.txt	LTP266	ltpFR	1	1	1	EXPLOSION	544	n/a	0	0	0.5869140625	0.422607421875	upper	../fonts/amplitud.ttf
672.83	n/a	WORD	336415	wordpools/wasnorm_wordpool_less_exclusions.txt	LTP266	ltpFR	1	1	1	STEM	1376	n/a	0	0	0.5869140625	0.422607421875	upper	../fonts/amplitud.ttf
676.712	n/a	WORD	338356	wordpools/wasnorm_wordpool_less_exclusions.txt	LTP266	ltpFR	1	1	0	FISH	571	n/a	0	1	0.412841796875	0.57763671875	lower	../fonts/zerothre.ttf
680.726	n/a	WORD	340363	wordpools/wasnorm_wordpool_less_exclusions.txt	LTP266	ltpFR	1	1	0	WINDOW	1611	n/a	1	1	0.412841796875	0.57763671875	lower	../fonts/zerothre.ttf
684.808	n/a	WORD	342404	wordpools/wasnorm_wordpool_less_exclusions.txt	LTP266	ltpFR	1	1	1	GIRL	637	n/a	1	0	0.5869140625	0.422607421875	upper	../fonts/amplitud.ttf
688.672	n/a	WORD	344336	wordpools/wasnorm_wordpool_less_exclusions.txt	LTP266	ltpFR	1	1	1	ANKLE	24	n/a	1	0	0.5869140625	0.422607421875	upper	../fonts/amplitud.ttf
692.854	n/a	WORD	346427	wordpools/wasnorm_wordpool_less_exclusions.txt	LTP266	ltpFR	1	1	1	TOE	1473	n/a	1	0	0.5869140625	0.422607421875	upper	../fonts/amplitud.ttf
698.848	n/a	REC_START	349424	n/a	LTP266	ltpFR	1	1	n/a	n/a	n/a	n/a	n/a	n/a	n/a	n/a	n/a	n/a
700.52	n/a	REC_WORD	350260	wordpools/wasnorm_wordpool_less_exclusions.txt	LTP266	ltpFR	1	1	0	FISH	571	n/a	0	n/a	n/a	n/a	n/a	n/a
701.932	n/a	REC_WORD	350966	wordpools/wasnorm_wordpool_less_exclusions.txt	LTP266	ltpFR	1	1	1	ANKLE	24	n/a	1	n/a	n/a	n/a	n/a	n/a
703.272	n/a	REC_WORD	351636	wordpools/wasnorm_wordpool_less_exclusions.txt	LTP266	ltpFR	1	1	1	TOE	1473	n/a	1	n/a	n/a	n/a	n/a	n/a
704.89	n/a	REC_WORD	352445	wordpools/wasnorm_wordpool_less_exclusions.txt	LTP266	ltpFR	1	1	1	OX	994	n/a	1	n/a	n/a	n/a	n/a	n/a
715.278	n/a	REC_WORD	357639	wordpools/wasnorm_wordpool_less_exclusions.txt	LTP266	ltpFR	1	1	0	SHRUB	1299	n/a	1	n/a	n/a	n/a	n/a	n/a
718.37	n/a	REC_WORD	359185	wordpools/wasnorm_wordpool_less_exclusions.txt	LTP266	ltpFR	1	1	1	POPCORN	1104	n/a	2	n/a	n/a	n/a	n/a	n/a
721.766	n/a	REC_WORD	360883	wordpools/wasnorm_wordpool_less_exclusions.txt	LTP266	ltpFR	1	1	1	TOE	1473	n/a	1	n/a	n/a	n/a	n/a	n/a
742.338	n/a	REC_WORD	371169	wordpools/wasnorm_wordpool_less_exclusions.txt	LTP266	ltpFR	1	1	0	SCOUT	1252	n/a	0	n/a	n/a	n/a	n/a	n/a
755.742	n/a	REC_WORD	377871	wordpools/wasnorm_wordpool_less_exclusions.txt	LTP266	ltpFR	1	1	1	ANKLE	24	n/a	1	n/a	n/a	n/a	n/a	n/a
790.582	n/a	WORD	395291	wordpools/wasnorm_wordpool_less_exclusions.txt	LTP266	ltpFR	1	2	0	DONOR	485	n/a	1	1	0.412841796875	0.57763671875	lower	../fonts/zerothre.ttf
794.692	n/a	WORD	397346	wordpools/wasnorm_wordpool_less_exclusions.txt	LTP266	ltpFR	1	2	0	MONEY	908	n/a	0	1	0.412841796875	0.57763671875	lower	../fonts/zerothre.ttf
798.762	n/a	WORD	399381	wordpools/wasnorm_wordpool_less_exclusions.txt	LTP266	ltpFR	1	2	1	STOOL	1386	n/a	0	0	0.5869140625	0.422607421875	upper	../fonts/amplitud.ttf
802.662	n/a	WORD	401331	wordpools/wasnorm_wordpool_less_exclusions.txt	LTP266	ltpFR	1	2	1	TICK	1463	n/a	1	0	0.5869140625	0.422607421875	upper	../fonts/amplitud.ttf
806.876	n/a	WORD	403438	wordpools/wasnorm_wordpool_less_exclusions.txt	LTP266	ltpFR	1	2	1	COMMANDER	354	n/a	0	0	0.5869140625	0.422607421875	upper	../fonts/amplitud.ttf
810.858	n/a	WORD	405429	wordpools/wasnorm_wordpool_less_exclusions.txt	LTP266	ltpFR	1	2	0	PRESIDENT	1121	n/a	1	1	0.412841796875	0.57763671875	lower	../fonts/zerothre.ttf
814.856	n/a	WORD	407428	wordpools/wasnorm_wordpool_less_exclusions.txt	LTP266	ltpFR	1	2	0	CIRCUS	311	n/a	1	1	0.412841796875	0.57763671875	lower	../fonts/zerothre.ttf
818.788	n/a	WORD	409394	wordpools/wasnorm_wordpool_less_exclusions.txt	LTP266	ltpFR	1	2	0	JUGGLER	763	n/a	1	1	0.412841796875	0.57763671875	lower	../fonts/zerothre.ttf
822.92	n/a	WORD	411460	wordpools/wasnorm_wordpool_less_exclusions.txt	LTP266	ltpFR	1	2	0	TOILET	1475	n/a	1	1	0.412841796875	0.57763671875	lower	../fonts/zerothre.ttf
827.136	n/a	WORD	413568	wordpools/wasnorm_wordpool_less_exclusions.txt	LTP266	ltpFR	1	2	0	ARTERY	41	n/a	1	1	0.412841796875	0.57763671875	lower	../fonts/zerothre.ttf
831.218	n/a	WORD	415609	wordpools/wasnorm_wordpool_less_exclusions.txt	LTP266	ltpFR	1	2	0	SIRLOIN	1311	n/a	0	1	0.412841796875	0.57763671875	lower	../fonts/zerothre.ttf
835.05	n/a	WORD	417525	wordpools/wasnorm_wordpool_less_exclusions.txt	LTP266	ltpFR	1	2	1	TWIN	1528	n/a	1	0	0.5869140625	0.422607421875	upper	../fonts/amplitud.ttf
839.23	n/a	WORD	419615	wordpools/wasnorm_wordpool_less_exclusions.txt	LTP266	ltpFR	1	2	1	REGISTER	1180	n/a	0	0	0.5869140625	0.422607421875	upper	../fonts/amplitud.ttf
843.432	n/a	WORD	421716	wordpools/wasnorm_wordpool_less_exclusions.txt	LTP266	ltpFR	1	2	1	BOX	159	n/a	0	0	0.5869140625	0.422607421875	upper	../fonts/amplitud.ttf
847.498	n/a	WORD	423749	wordpools/wasnorm_wordpool_less_exclusions.txt	LTP266	ltpFR	1	2	1	POCKETBOOK	1094	n/a	0	0	0.5869140625	0.422607421875	upper	../fonts/amplitud.ttf
851.548	n/a	WORD	425774	wordpools/wasnorm_wordpool_less_exclusions.txt	LTP266	ltpFR	1	2	1	LOCK	838	n/a	0	0	0.5869140625	0.422607421875	upper	../fonts/amplitud.ttf
857.452	n/a	REC_START	428726	n/a	LTP266	ltpFR	1	2	n/a	n/a	n/a	n/a	n/a	n/a	n/a	n/a	n/a	n/a
859.172	n/a	REC_WORD	429586	wordpools/wasnorm_wordpool_less_exclusions.txt	LTP266	ltpFR	1	2	0	CIRCUS	311	n/a	1	n/a	n/a	n/a	n/a	n/a
860.62	n/a	REC_WORD	430310	wordpools/wasnorm_wordpool_less_exclusions.txt	LTP266	ltpFR	1	2	0	JUGGLER	763	n/a	1	n/a	n/a	n/a	n/a	n/a
861.924	n/a	REC_WORD	430962	wordpools/wasnorm_wordpool_less_exclusions.txt	LTP266	ltpFR	1	2	1	BOX	159	n/a	0	n/a	n/a	n/a	n/a	n/a
864.766	n/a	REC_WORD	432383	wordpools/wasnorm_wordpool_less_exclusions.txt	LTP266	ltpFR	1	2	1	POCKETBOOK	1094	n/a	0	n/a	n/a	n/a	n/a	n/a
901.744	n/a	REC_WORD	450872	wordpools/wasnorm_wordpool_less_exclusions.txt	LTP266	ltpFR	1	2	1	OX	994	n/a	1	n/a	n/a	n/a	n/a	n/a
963.49	n/a	WORD	481745	wordpools/wasnorm_wordpool_less_exclusions.txt	LTP266	ltpFR	1	3	1	MISTER	901	n/a	1	0	0.5869140625	0.422607421875	upper	../fonts/amplitud.ttf
967.356	n/a	WORD	483678	wordpools/wasnorm_wordpool_less_exclusions.txt	LTP266	ltpFR	1	3	1	LAKE	796	n/a	0	0	0.5869140625	0.422607421875	upper	../fonts/amplitud.ttf
971.286	n/a	WORD	485643	wordpools/wasnorm_wordpool_less_exclusions.txt	LTP266	ltpFR	1	3	0	MUG	930	n/a	0	1	0.412841796875	0.57763671875	lower	../fonts/zerothre.ttf
975.504	n/a	WORD	487752	wordpools/wasnorm_wordpool_less_exclusions.txt	LTP266	ltpFR	1	3	0	CLIMBER	323	n/a	1	1	0.412841796875	0.57763671875	lower	../fonts/zerothre.ttf
979.5	n/a	WORD	489750	wordpools/wasnorm_wordpool_less_exclusions.txt	LTP266	ltpFR	1	3	1	HEEL	700	n/a	1	0	0.5869140625	0.422607421875	upper	../fonts/amplitud.ttf
983.5	n/a	WORD	491750	wordpools/wasnorm_wordpool_less_exclusions.txt	LTP266	ltpFR	1	3	1	BUTTER	205	n/a	0	0	0.5869140625	0.422607421875	upper	../fonts/amplitud.ttf
987.6	n/a	WORD	493800	wordpools/wasnorm_wordpool_less_exclusions.txt	LTP266	ltpFR	1	3	0	BISCUIT	130	n/a	0	1	0.412841796875	0.57763671875	lower	../fonts/zerothre.ttf
991.498	n/a	WORD	495749	wordpools/wasnorm_wordpool_less_exclusions.txt	LTP266	ltpFR	1	3	0	SILVERWARE	1308	n/a	0	1	0.412841796875	0.57763671875	lower	../fonts/zerothre.ttf
995.628	n/a	WORD	497814	wordpools/wasnorm_wordpool_less_exclusions.txt	LTP266	ltpFR	1	3	0	SWORD	1423	n/a	0	1	0.412841796875	0.57763671875	lower	../fonts/zerothre.ttf
999.78	n/a	WORD	499890	wordpools/wasnorm_wordpool_less_exclusions.txt	LTP266	ltpFR	1	3	0	CIGARETTE	309	n/a	0	1	0.412841796875	0.57763671875	lower	../fonts/zerothre.ttf
1003.962	n/a	WORD	501981	wordpools/wasnorm_wordpool_less_exclusions.txt	LTP266	ltpFR	1	3	0	FIREMAN	569	n/a	1	1	0.412841796875	0.57763671875	lower	../fonts/zerothre.ttf
1008.128	n/a	WORD	504064	wordpools/wasnorm_wordpool_less_exclusions.txt	LTP266	ltpFR	1	3	0	DINNER	468	n/a	0	1	0.412841796875	0.57763671875	lower	../fonts/zerothre.ttf
1012.078	n/a	WORD	506039	wordpools/wasnorm_wordpool_less_exclusions.txt	LTP266	ltpFR	1	3	1	SINK	1309	n/a	0	0	0.5869140625	0.422607421875	upper	../fonts/amplitud.ttf
1016.242	n/a	WORD	508121	wordpools/wasnorm_wordpool_less_exclusions.txt	LTP266	ltpFR	1	3	1	SAUCER	1237	n/a	0	0	0.5869140625	0.422607421875	upper	../fonts/amplitud.ttf
1020.388	n/a	WORD	510194	wordpools/wasnorm_wordpool_less_exclusions.txt	LTP266	ltpFR	1	3	1	SURF	1412	n/a	0	0	0.5869140625	0.422607421875	upper	../fonts/amplitud.ttf
1024.39	n/a	WORD	512195	wordpools/wasnorm_wordpool_less_exclusions.txt	LTP266	ltpFR	1	3	1	OTTER	986	n/a	1	0	0.5869140625	0.422607421875	upper	../fonts/amplitud.ttf
1030.046	n/a	REC_START	515023	n/a	LTP266	ltpFR	1	3	n/a	n/a	n/a	n/a	n/a	n/a	n/a	n/a	n/a	n/a
1031.942	n/a	REC_WORD	515971	wordpools/wasnorm_wordpool_less_exclusions.txt	LTP266	ltpFR	1	3	0	SILVERWARE	1308	n/a	0	n/a	n/a	n/a	n/a	n/a
1033.56	n/a	REC_WORD	516780	wordpools/wasnorm_wordpool_less_exclusions.txt	LTP266	ltpFR	1	3	0	DINNER	468	n/a	0	n/a	n/a	n/a	n/a	n/a
1035.226	n/a	REC_WORD	517613	wordpools/wasnorm_wordpool_less_exclusions.txt	LTP266	ltpFR	1	3	1	OTTER	986	n/a	1	n/a	n/a	n/a	n/a	n/a
1038.554	n/a	REC_WORD	519277	wordpools/wasnorm_wordpool_less_exclusions.txt	LTP266	ltpFR	1	3	1	SURF	1412	n/a	0	n/a	n/a	n/a	n/a	n/a
1051.156	n/a	REC_WORD	525578	wordpools/wasnorm_wordpool_less_exclusions.txt	LTP266	ltpFR	1	3	1	HEEL	700	n/a	1	n/a	n/a	n/a	n/a	n/a
1077.232	n/a	REC_WORD	538616	wordpools/wasnorm_wordpool_less_exclusions.txt	LTP266	ltpFR	1	3	0	DINNER	468	n/a	0	n/a	n/a	n/a	n/a	n/a
1129.944	n/a	WORD	564972	wordpools/wasnorm_wordpool_less_exclusions.txt	LTP266	ltpFR	1	4	1	COCOON	339	n/a	1	0	0.5869140625	0.422607421875	upper	../fonts/amplitud.ttf
1134.16	n/a	WORD	567080	wordpools/wasnorm_wordpool_less_exclusions.txt	LTP266	ltpFR	1	4	1	SPATULA	1348	n/a	0	0	0.5869140625	0.422607421875	upper	../fonts/amplitud.ttf
1138.042	n/a	WORD	569021	wordpools/wasnorm_wordpool_less_exclusions.txt	LTP266	ltpFR	1	4	1	HAM	678	n/a	0	0	0.5869140625	0.422607421875	upper	../fonts/amplitud.ttf
1141.906	n/a	WORD	570953	wordpools/wasnorm_wordpool_less_exclusions.txt	LTP266	ltpFR	1	4	1	MONUMENT	913	n/a	0	0	0.5869140625	0.422607421875	upper	../fonts/amplitud.ttf
1145.754	n/a	WORD	572877	wordpools/wasnorm_wordpool_less_exclusions.txt	LTP266	ltpFR	1	4	0	PATROL	1027	n/a	0	1	0.412841796875	0.57763671875	lower	../fonts/zerothre.ttf
1149.736	n/a	WORD	574868	wordpools/wasnorm_wordpool_less_exclusions.txt	LTP266	ltpFR	1	4	0	DOLPHIN	483	n/a	n/a	1	0.412841796875	0.57763671875	lower	../fonts/zerothre.ttf
1152.782	n/a	SLOW_MSG	576391	n/a	LTP266	ltpFR	1	4	n/a	n/a	n/a	n/a	n/a	n/a	n/a	n/a	n/a	n/a
1155.408	n/a	WORD	577704	wordpools/wasnorm_wordpool_less_exclusions.txt	LTP266	ltpFR	1	4	0	SCULPTURE	1258	n/a	1	1	0.412841796875	0.57763671875	lower	../fonts/zerothre.ttf
1159.49	n/a	WORD	579745	wordpools/wasnorm_wordpool_less_exclusions.txt	LTP266	ltpFR	1	4	0	JOINT	758	n/a	1	1	0.412841796875	0.57763671875	lower	../fonts/zerothre.ttf
1163.572	n/a	WORD	581786	wordpools/wasnorm_wordpool_less_exclusions.txt	LTP266	ltpFR	1	4	0	APPENDAGE	32	n/a	1	1	0.412841796875	0.57763671875	lower	../fonts/zerothre.ttf
1167.786	n/a	WORD	583893	wordpools/wasnorm_wordpool_less_exclusions.txt	LTP266	ltpFR	1	4	1	ELECTRICIAN	521	n/a	1	0	0.5869140625	0.422607421875	upper	../fonts/amplitud.ttf
1171.654	n/a	WORD	585827	wordpools/wasnorm_wordpool_less_exclusions.txt	LTP266	ltpFR	1	4	1	WEED	1599	n/a	1	0	0.5869140625	0.422607421875	upper	../fonts/amplitud.ttf
1175.518	n/a	WORD	587759	wordpools/wasnorm_wordpool_less_exclusions.txt	LTP266	ltpFR	1	4	1	COMEDIAN	352	n/a	1	0	0.5869140625	0.422607421875	upper	../fonts/amplitud.ttf
1179.482	n/a	WORD	589741	wordpools/wasnorm_wordpool_less_exclusions.txt	LTP266	ltpFR	1	4	1	GYMNAST	675	n/a	1	0	0.5869140625	0.422607421875	upper	../fonts/amplitud.ttf
1183.516	n/a	WORD	591758	wordpools/wasnorm_wordpool_less_exclusions.txt	LTP266	ltpFR	1	4	0	ARENA	37	n/a	1	1	0.412841796875	0.57763671875	lower	../fonts/zerothre.ttf
1187.38	n/a	WORD	593690	wordpools/wasnorm_wordpool_less_exclusions.txt	LTP266	ltpFR	1	4	0	TURNIP	1521	n/a	0	1	0.412841796875	0.57763671875	lower	../fonts/zerothre.ttf
1191.262	n/a	WORD	595631	wordpools/wasnorm_wordpool_less_exclusions.txt	LTP266	ltpFR	1	4	0	CATERPILLAR	259	n/a	0	1	0.412841796875	0.57763671875	lower	../fonts/zerothre.ttf
1196.95	n/a	REC_START	598475	n/a	LTP266	ltpFR	1	4	n/a	n/a	n/a	n/a	n/a	n/a	n/a	n/a	n/a	n/a
1198.638	n/a	REC_WORD	599319	wordpools/wasnorm_wordpool_less_exclusions.txt	LTP266	ltpFR	1	4	0	CATERPILLAR	259	n/a	0	n/a	n/a	n/a	n/a	n/a
1200.53	n/a	REC_WORD	600265	wordpools/wasnorm_wordpool_less_exclusions.txt	LTP266	ltpFR	1	4	1	GYMNAST	675	n/a	1	n/a	n/a	n/a	n/a	n/a
1201.302	n/a	REC_WORD	600651	wordpools/wasnorm_wordpool_less_exclusions.txt	LTP266	ltpFR	1	4	1	ELECTRICIAN	521	n/a	1	n/a	n/a	n/a	n/a	n/a
1203.16	n/a	REC_WORD	601580	wordpools/wasnorm_wordpool_less_exclusions.txt	LTP266	ltpFR	1	4	1	HAM	678	n/a	0	n/a	n/a	n/a	n/a	n/a
1214.758	n/a	REC_WORD	607379	wordpools/wasnorm_wordpool_less_exclusions.txt	LTP266	ltpFR	1	4	1	WEED	1599	n/a	1	n/a	n/a	n/a	n/a	n/a
1220.23	n/a	REC_WORD	610115	wordpools/wasnorm_wordpool_less_exclusions.txt	LTP266	ltpFR	1	4	0	APPENDAGE	32	n/a	1	n/a	n/a	n/a	n/a	n/a
1288.114	n/a	WORD	644057	wordpools/wasnorm_wordpool_less_exclusions.txt	LTP266	ltpFR	1	5	0	GUARD	667	n/a	1	1	0.412841796875	0.57763671875	lower	../fonts/zerothre.ttf
1292.298	n/a	WORD	646149	wordpools/wasnorm_wordpool_less_exclusions.txt	LTP266	ltpFR	1	5	0	BULLETIN	195	n/a	0	1	0.412841796875	0.57763671875	lower	../fonts/zerothre.ttf
1296.228	n/a	WORD	648114	wordpools/wasnorm_wordpool_less_exclusions.txt	LTP266	ltpFR	1	5	0	BRAKE	166	n/a	0	1	0.412841796875	0.57763671875	lower	../fonts/zerothre.ttf
1300.278	n/a	WORD	650139	wordpools/wasnorm_wordpool_less_exclusions.txt	LTP266	ltpFR	1	5	0	TOOTH	1481	n/a	0	1	0.412841796875	0.57763671875	lower	../fonts/zerothre.ttf
1304.176	n/a	WORD	652088	wordpools/wasnorm_wordpool_less_exclusions.txt	LTP266	ltpFR	1	5	0	VALVE	1546	n/a	0	1	0.412841796875	0.57763671875	lower	../fonts/zerothre.ttf
1308.108	n/a	WORD	654054	wordpools/wasnorm_wordpool_less_exclusions.txt	LTP266	ltpFR	1	5	0	ENGINE	535	n/a	1	1	0.412841796875	0.57763671875	lower	../fonts/zerothre.ttf
1312.136	n/a	WORD	656068	wordpools/wasnorm_wordpool_less_exclusions.txt	LTP266	ltpFR	1	5	0	GUITAR	670	n/a	1	1	0.412841796875	0.57763671875	lower	../fonts/zerothre.ttf
1316.068	n/a	WORD	658034	wordpools/wasnorm_wordpool_less_exclusions.txt	LTP266	ltpFR	1	5	0	RADIO	1157	n/a	0	1	0.412841796875	0.57763671875	lower	../fonts/zerothre.ttf
1319.954	n/a	WORD	659977	wordpools/wasnorm_wordpool_less_exclusions.txt	LTP266	ltpFR	1	5	0	PLANT	1083	n/a	0	1	0.412841796875	0.57763671875	lower	../fonts/zerothre.ttf
1323.952	n/a	WORD	661976	wordpools/wasnorm_wordpool_less_exclusions.txt	LTP266	ltpFR	1	5	0	PORCUPINE	1107	n/a	1	1	0.412841796875	0.57763671875	lower	../fonts/zerothre.ttf
1327.8	n/a	WORD	663900	wordpools/wasnorm_wordpool_less_exclusions.txt	LTP266	ltpFR	1	5	0	BEAN	105	n/a	0	1	0.412841796875	0.57763671875	lower	../fonts/zerothre.ttf
1331.848	n/a	WORD	665924	wordpools/wasnorm_wordpool_less_exclusions.txt	LTP266	ltpFR	1	5	0	BOYFRIEND	162	n/a	1	1	0.412841796875	0.57763671875	lower	../fonts/zerothre.ttf
1335.744	n/a	WORD	667872	wordpools/wasnorm_wordpool_less_exclusions.txt	LTP266	ltpFR	1	5	0	VAN	1548	n/a	1	1	0.412841796875	0.57763671875	lower	../fonts/zerothre.ttf
1339.88	n/a	WORD	669940	wordpools/wasnorm_wordpool_less_exclusions.txt	LTP266	ltpFR	1	5	0	SKATE	1313	n/a	0	1	0.412841796875	0.57763671875	lower	../fonts/zerothre.ttf
1343.728	n/a	WORD	671864	wordpools/wasnorm_wordpool_less_exclusions.txt	LTP266	ltpFR	1	5	0	SOAP	1337	n/a	0	1	0.412841796875	0.57763671875	lower	../fonts/zerothre.ttf
1347.876	n/a	WORD	673938	wordpools/wasnorm_wordpool_less_exclusions.txt	LTP266	ltpFR	1	5	0	BOXER	160	n/a	1	1	0.412841796875	0.57763671875	lower	../fonts/zerothre.ttf
1353.666	n/a	REC_START	676833	n/a	LTP266	ltpFR	1	5	n/a	n/a	n/a	n/a	n/a	n/a	n/a	n/a	n/a	n/a
1355.564	n/a	REC_WORD	677782	wordpools/wasnorm_wordpool_less_exclusions.txt	LTP266	ltpFR	1	5	0	BOXER	160	n/a	1	n/a	n/a	n/a	n/a	n/a
1356.918	n/a	REC_WORD	678459	wordpools/wasnorm_wordpool_less_exclusions.txt	LTP266	ltpFR	1	5	0	PORCUPINE	1107	n/a	1	n/a	n/a	n/a	n/a	n/a
1358.906	n/a	REC_WORD	679453	wordpools/wasnorm_wordpool_less_exclusions.txt	LTP266	ltpFR	1	5	0	ENGINE	535	n/a	1	n/a	n/a	n/a	n/a	n/a
1360.64	n/a	REC_WORD	680320	wordpools/wasnorm_wordpool_less_exclusions.txt	LTP266	ltpFR	1	5	0	VALVE	1546	n/a	0	n/a	n/a	n/a	n/a	n/a
1372.376	n/a	REC_WORD	686188	wordpools/wasnorm_wordpool_less_exclusions.txt	LTP266	ltpFR	1	5	0	BOYFRIEND	162	n/a	1	n/a	n/a	n/a	n/a	n/a
1382.51	n/a	REC_WORD	691255	wordpools/wasnorm_wordpool_less_exclusions.txt	LTP266	ltpFR	1	5	0	SKATE	1313	n/a	0	n/a	n/a	n/a	n/a	n/a
1387.406	n/a	REC_WORD	693703	wordpools/wasnorm_wordpool_less_exclusions.txt	LTP266	ltpFR	1	5	0	PLANT	1083	n/a	0	n/a	n/a	n/a	n/a	n/a
1426.282	n/a	REC_WORD	713141	wordpools/wasnorm_wordpool_less_exclusions.txt	LTP266	ltpFR	1	5	0	CIRCUS	311	n/a	1	n/a	n/a	n/a	n/a	n/a
1443.56	n/a	WORD	721780	wordpools/wasnorm_wordpool_less_exclusions.txt	LTP266	ltpFR	1	6	1	HANDBAG	684	n/a	0	0	0.5869140625	0.422607421875	upper	../fonts/amplitud.ttf
1447.456	n/a	WORD	723728	wordpools/wasnorm_wordpool_less_exclusions.txt	LTP266	ltpFR	1	6	1	DIME	466	n/a	0	0	0.5869140625	0.422607421875	upper	../fonts/amplitud.ttf
1451.658	n/a	WORD	725829	wordpools/wasnorm_wordpool_less_exclusions.txt	LTP266	ltpFR	1	6	1	BOULDER	155	n/a	0	0	0.5869140625	0.422607421875	upper	../fonts/amplitud.ttf
1455.522	n/a	WORD	727761	wordpools/wasnorm_wordpool_less_exclusions.txt	LTP266	ltpFR	1	6	1	LIZARD	834	n/a	1	0	0.5869140625	0.422607421875	upper	../fonts/amplitud.ttf
1459.37	n/a	WORD	729685	wordpools/wasnorm_wordpool_less_exclusions.txt	LTP266	ltpFR	1	6	1	ROOF	1205	n/a	0	0	0.5869140625	0.422607421875	upper	../fonts/amplitud.ttf
1463.468	n/a	WORD	731734	wordpools/wasnorm_wordpool_less_exclusions.txt	LTP266	ltpFR	1	6	1	ROOT	1210	n/a	1	0	0.5869140625	0.422607421875	upper	../fonts/amplitud.ttf
1467.652	n/a	WORD	733826	wordpools/wasnorm_wordpool_less_exclusions.txt	LTP266	ltpFR	1	6	1	THIMBLE	1458	n/a	0	0	0.5869140625	0.422607421875	upper	../fonts/amplitud.ttf
1471.7	n/a	WORD	735850	wordpools/wasnorm_wordpool_less_exclusions.txt	LTP266	ltpFR	1	6	1	ALLIGATOR	16	n/a	1	0	0.5869140625	0.422607421875	upper	../fonts/amplitud.ttf
1475.616	n/a	WORD	737808	wordpools/wasnorm_wordpool_less_exclusions.txt	LTP266	ltpFR	1	6	1	MAILMAN	858	n/a	1	0	0.5869140625	0.422607421875	upper	../fonts/amplitud.ttf
1479.698	n/a	WORD	739849	wordpools/wasnorm_wordpool_less_exclusions.txt	LTP266	ltpFR	1	6	1	TWINE	1529	n/a	0	0	0.5869140625	0.422607421875	upper	../fonts/amplitud.ttf
1483.912	n/a	WORD	741956	wordpools/wasnorm_wordpool_less_exclusions.txt	LTP266	ltpFR	1	6	1	ATLAS	53	n/a	0	0	0.5869140625	0.422607421875	upper	../fonts/amplitud.ttf
1487.894	n/a	WORD	743947	wordpools/wasnorm_wordpool_less_exclusions.txt	LTP266	ltpFR	1	6	1	TEAM	1441	n/a	1	0	0.5869140625	0.422607421875	upper	../fonts/amplitud.ttf
1492.01	n/a	WORD	746005	wordpools/wasnorm_wordpool_less_exclusions.txt	LTP266	ltpFR	1	6	1	REFEREE	1178	n/a	1	0	0.5869140625	0.422607421875	upper	../fonts/amplitud.ttf
1496.156	n/a	WORD	748078	wordpools/wasnorm_wordpool_less_exclusions.txt	LTP266	ltpFR	1	6	1	YOLK	1633	n/a	1	0	0.5869140625	0.422607421875	upper	../fonts/amplitud.ttf
1500.074	n/a	WORD	750037	wordpools/wasnorm_wordpool_less_exclusions.txt	LTP266	ltpFR	1	6	1	ROOSTER	1209	n/a	1	0	0.5869140625	0.422607421875	upper	../fonts/amplitud.ttf
1504.19	n/a	WORD	752095	wordpools/wasnorm_wordpool_less_exclusions.txt	LTP266	ltpFR	1	6	1	GLOBE	641	n/a	0	0	0.5869140625	0.422607421875	upper	../fonts/amplitud.ttf
1510.132	n/a	REC_START	755066	n/a	LTP266	ltpFR	1	6	n/a	n/a	n/a	n/a	n/a	n/a	n/a	n/a	n/a	n/a
1511.95	n/a	REC_WORD	755975	wordpools/wasnorm_wordpool_less_exclusions.txt	LTP266	ltpFR	1	6	1	YOLK	1633	n/a	1	n/a	n/a	n/a	n/a	n/a
1513.242	n/a	REC_WORD	756621	wordpools/wasnorm_wordpool_less_exclusions.txt	LTP266	ltpFR	1	6	1	ROOSTER	1209	n/a	1	n/a	n/a	n/a	n/a	n/a
1515.154	n/a	REC_WORD	757577	wordpools/wasnorm_wordpool_less_exclusions.txt	LTP266	ltpFR	1	6	1	GLOBE	641	n/a	0	n/a	n/a	n/a	n/a	n/a
1517.874	n/a	REC_WORD	758937	wordpools/wasnorm_wordpool_less_exclusions.txt	LTP266	ltpFR	1	6	1	TEAM	1441	n/a	1	n/a	n/a	n/a	n/a	n/a
1531.224	n/a	REC_WORD	765612	wordpools/wasnorm_wordpool_less_exclusions.txt	LTP266	ltpFR	1	6	1	ROOF	1205	n/a	0	n/a	n/a	n/a	n/a	n/a
1557.57	n/a	REC_WORD	778785	wordpools/wasnorm_wordpool_less_exclusions.txt	LTP266	ltpFR	1	6	1	ALLIGATOR	16	n/a	1	n/a	n/a	n/a	n/a	n/a
1606.114	n/a	WORD	803057	wordpools/wasnorm_wordpool_less_exclusions.txt	LTP266	ltpFR	1	7	0	PAWN	1030	n/a	0	1	0.412841796875	0.57763671875	lower	../fonts/zerothre.ttf
1610.26	n/a	WORD	805130	wordpools/wasnorm_wordpool_less_exclusions.txt	LTP266	ltpFR	1	7	0	PUMP	1141	n/a	1	1	0.412841796875	0.57763671875	lower	../fonts/zerothre.ttf
1614.126	n/a	WORD	807063	wordpools/wasnorm_wordpool_less_exclusions.txt	LTP266	ltpFR	1	7	0	TUB	1514	n/a	1	1	0.412841796875	0.57763671875	lower	../fonts/zerothre.ttf
1618.026	n/a	WORD	809013	wordpools/wasnorm_wordpool_less_exclusions.txt	LTP266	ltpFR	1	7	0	PASSAGE	1019	n/a	1	1	0.412841796875	0.57763671875	lower	../fonts/zerothre.ttf
1621.89	n/a	WORD	810945	wordpools/wasnorm_wordpool_less_exclusions.txt	LTP266	ltpFR	1	7	0	NET	946	n/a	0	1	0.412841796875	0.57763671875	lower	../fonts/zerothre.ttf
1625.972	n/a	WORD	812986	wordpools/wasnorm_wordpool_less_exclusions.txt	LTP266	ltpFR	1	7	0	TAXI	1438	n/a	1	1	0.412841796875	0.57763671875	lower	../fonts/zerothre.ttf
1630.038	n/a	WORD	815019	wordpools/wasnorm_wordpool_less_exclusions.txt	LTP266	ltpFR	1	7	0	POET	1095	n/a	1	1	0.412841796875	0.57763671875	lower	../fonts/zerothre.ttf
1633.966	n/a	WORD	816983	wordpools/wasnorm_wordpool_less_exclusions.txt	LTP266	ltpFR	1	7	0	HOSTESS	723	n/a	1	1	0.412841796875	0.57763671875	lower	../fonts/zerothre.ttf
1638.034	n/a	WORD	819017	wordpools/wasnorm_wordpool_less_exclusions.txt	LTP266	ltpFR	1	7	0	GATE	625	n/a	1	1	0.412841796875	0.57763671875	lower	../fonts/zerothre.ttf
1642.152	n/a	WORD	821076	wordpools/wasnorm_wordpool_less_exclusions.txt	LTP266	ltpFR	1	7	0	TRAY	1498	n/a	1	1	0.412841796875	0.57763671875	lower	../fonts/zerothre.ttf
1646.284	n/a	WORD	823142	wordpools/wasnorm_wordpool_less_exclusions.txt	LTP266	ltpFR	1	7	0	PLATE	1086	n/a	0	1	0.412841796875	0.57763671875	lower	../fonts/zerothre.ttf
1650.296	n/a	WORD	825148	wordpools/wasnorm_wordpool_less_exclusions.txt	LTP266	ltpFR	1	7	0	CYLINDER	432	n/a	0	1	0.412841796875	0.57763671875	lower	../fonts/zerothre.ttf
1654.414	n/a	WORD	827207	wordpools/wasnorm_wordpool_less_exclusions.txt	LTP266	ltpFR	1	7	0	CUSTOMER	430	n/a	1	1	0.412841796875	0.57763671875	lower	../fonts/zerothre.ttf
1658.346	n/a	WORD	829173	wordpools/wasnorm_wordpool_less_exclusions.txt	LTP266	ltpFR	1	7	0	CAN	225	n/a	0	1	0.412841796875	0.57763671875	lower	../fonts/zerothre.ttf
1662.396	n/a	WORD	831198	wordpools/wasnorm_wordpool_less_exclusions.txt	LTP266	ltpFR	1	7	0	BOTTLE	153	n/a	0	1	0.412841796875	0.57763671875	lower	../fonts/zerothre.ttf
1666.562	n/a	WORD	833281	wordpools/wasnorm_wordpool_less_exclusions.txt	LTP266	ltpFR	1	7	0	MERMAID	887	n/a	1	1	0.412841796875	0.57763671875	lower	../fonts/zerothre.ttf
1672.318	n/a	REC_START	836159	n/a	LTP266	ltpFR	1	7	n/a	n/a	n/a	n/a	n/a	n/a	n/a	n/a	n/a	n/a
1674.068	n/a	REC_WORD	837034	wordpools/wasnorm_wordpool_less_exclusions.txt	LTP266	ltpFR	1	7	0	CUSTOMER	430	n/a	1	n/a	n/a	n/a	n/a	n/a
1675.362	n/a	REC_WORD	837681	wordpools/wasnorm_wordpool_less_exclusions.txt	LTP266	ltpFR	1	7	0	CAN	225	n/a	0	n/a	n/a	n/a	n/a	n/a
1676.704	n/a	REC_WORD	838352	wordpools/wasnorm_wordpool_less_exclusions.txt	LTP266	ltpFR	1	7	0	MERMAID	887	n/a	1	n/a	n/a	n/a	n/a	n/a
1678.728	n/a	REC_WORD	839364	wordpools/wasnorm_wordpool_less_exclusions.txt	LTP266	ltpFR	1	7	0	POET	1095	n/a	1	n/a	n/a	n/a	n/a	n/a
1679.704	n/a	REC_WORD	839852	wordpools/wasnorm_wordpool_less_exclusions.txt	LTP266	ltpFR	1	7	0	PUMP	1141	n/a	1	n/a	n/a	n/a	n/a	n/a
1680.852	n/a	REC_WORD	840426	wordpools/wasnorm_wordpool_less_exclusions.txt	LTP266	ltpFR	1	7	0	BOTTLE	153	n/a	0	n/a	n/a	n/a	n/a	n/a
1712.164	n/a	REC_WORD	856082	wordpools/wasnorm_wordpool_less_exclusions.txt	LTP266	ltpFR	1	7	0	TRAY	1498	n/a	1	n/a	n/a	n/a	n/a	n/a
1726.302	n/a	REC_WORD	863151	wordpools/wasnorm_wordpool_less_exclusions.txt	LTP266	ltpFR	1	7	0	PAWN	1030	n/a	0	n/a	n/a	n/a	n/a	n/a
1765.456	n/a	WORD	882728	wordpools/wasnorm_wordpool_less_exclusions.txt	LTP266	ltpFR	1	8	-1	VEHICLE	1553	n/a	-1	1	1.0	1.0	upper	../fonts/Verdana.ttf
1769.386	n/a	WORD	884693	wordpools/wasnorm_wordpool_less_exclusions.txt	LTP266	ltpFR	1	8	-1	GODDESS	646	n/a	-1	1	1.0	1.0	upper	../fonts/Verdana.ttf
1773.318	n/a	WORD	886659	wordpools/wasnorm_wordpool_less_exclusions.txt	LTP266	ltpFR	1	8	-1	BANDANNA	80	n/a	-1	1	1.0	1.0	upper	../fonts/Verdana.ttf
1777.452	n/a	WORD	888726	wordpools/wasnorm_wordpool_less_exclusions.txt	LTP266	ltpFR	1	8	-1	HANDKERCHIEF	686	n/a	-1	1	1.0	1.0	upper	../fonts/Verdana.ttf
1781.618	n/a	WORD	890809	wordpools/wasnorm_wordpool_less_exclusions.txt	LTP266	ltpFR	1	8	-1	SPRINKLE	1359	n/a	-1	1	1.0	1.0	upper	../fonts/Verdana.ttf
1785.796	n/a	WORD	892898	wordpools/wasnorm_wordpool_less_exclusions.txt	LTP266	ltpFR	1	8	-1	STEAM	1375	n/a	-1	1	1.0	1.0	upper	../fonts/Verdana.ttf
1789.682	n/a	WORD	894841	wordpools/wasnorm_wordpool_less_exclusions.txt	LTP266	ltpFR	1	8	-1	GOWN	652	n/a	-1	1	1.0	1.0	upper	../fonts/Verdana.ttf
1793.798	n/a	WORD	896899	wordpools/wasnorm_wordpool_less_exclusions.txt	LTP266	ltpFR	1	8	-1	RABBIT	1152	n/a	-1	1	1.0	1.0	upper	../fonts/Verdana.ttf
1797.662	n/a	WORD	898831	wordpools/wasnorm_wordpool_less_exclusions.txt	LTP266	ltpFR	1	8	-1	PHILOSOPHER	1054	n/a	-1	1	1.0	1.0	upper	../fonts/Verdana.ttf
1801.862	n/a	WORD	900931	wordpools/wasnorm_wordpool_less_exclusions.txt	LTP266	ltpFR	1	8	-1	TUXEDO	1525	n/a	-1	1	1.0	1.0	upper	../fonts/Verdana.ttf
1806.06	n/a	WORD	903030	wordpools/wasnorm_wordpool_less_exclusions.txt	LTP266	ltpFR	1	8	-1	PIER	1063	n/a	-1	1	1.0	1.0	upper	../fonts/Verdana.ttf
1809.942	n/a	WORD	904971	wordpools/wasnorm_wordpool_less_exclusions.txt	LTP266	ltpFR	1	8	-1	TURTLE	1522	n/a	-1	1	1.0	1.0	upper	../fonts/Verdana.ttf
1814.142	n/a	WORD	907071	wordpools/wasnorm_wordpool_less_exclusions.txt	LTP266	ltpFR	1	8	-1	THORN	1459	n/a	-1	1	1.0	1.0	upper	../fonts/Verdana.ttf
1818.056	n/a	WORD	909028	wordpools/wasnorm_wordpool_less_exclusions.txt	LTP266	ltpFR	1	8	-1	FLOWER	584	n/a	-1	1	1.0	1.0	upper	../fonts/Verdana.ttf
1822.122	n/a	WORD	911061	wordpools/wasnorm_wordpool_less_exclusions.txt	LTP266	ltpFR	1	8	-1	HAMMER	680	n/a	-1	1	1.0	1.0	upper	../fonts/Verdana.ttf
1826.27	n/a	WORD	913135	wordpools/wasnorm_wordpool_less_exclusions.txt	LTP266	ltpFR	1	8	-1	NAIL	936	n/a	-1	1	1.0	1.0	upper	../fonts/Verdana.ttf
1831.96	n/a	REC_START	915980	n/a	LTP266	ltpFR	1	8	n/a	n/a	n/a	n/a	n/a	n/a	n/a	n/a	n/a	n/a
1833.208	n/a	REC_WORD	916604	wordpools/wasnorm_wordpool_less_exclusions.txt	LTP266	ltpFR	1	8	-1	HAMMER	680	n/a	-1	n/a	n/a	n/a	n/a	n/a
1834.274	n/a	REC_WORD	917137	wordpools/wasnorm_wordpool_less_exclusions.txt	LTP266	ltpFR	1	8	-1	NAIL	936	n/a	-1	n/a	n/a	n/a	n/a	n/a
1835.778	n/a	REC_WORD	917889	wordpools/wasnorm_wordpool_less_exclusions.txt	LTP266	ltpFR	1	8	-1	FLOWER	584	n/a	-1	n/a	n/a	n/a	n/a	n/a
1836.848	n/a	REC_WORD	918424	wordpools/wasnorm_wordpool_less_exclusions.txt	LTP266	ltpFR	1	8	-1	THORN	1459	n/a	-1	n/a	n/a	n/a	n/a	n/a
1838.238	n/a	REC_WORD	919119	wordpools/wasnorm_wordpool_less_exclusions.txt	LTP266	ltpFR	1	8	-1	TUXEDO	1525	n/a	-1	n/a	n/a	n/a	n/a	n/a
1842.012	n/a	REC_WORD	921006	wordpools/wasnorm_wordpool_less_exclusions.txt	LTP266	ltpFR	1	8	-1	GODDESS	646	n/a	-1	n/a	n/a	n/a	n/a	n/a
1844.896	n/a	REC_WORD	922448	wordpools/wasnorm_wordpool_less_exclusions.txt	LTP266	ltpFR	1	8	-1	HANDKERCHIEF	686	n/a	-1	n/a	n/a	n/a	n/a	n/a
1847.296	n/a	REC_WORD	923648	wordpools/wasnorm_wordpool_less_exclusions.txt	LTP266	ltpFR	1	8	-1	BANDANNA	80	n/a	-1	n/a	n/a	n/a	n/a	n/a
1893.384	n/a	REC_WORD	946692	wordpools/wasnorm_wordpool_less_exclusions.txt	LTP266	ltpFR	1	8	0	PASSAGE	1019	n/a	1	n/a	n/a	n/a	n/a	n/a
1923.576	n/a	WORD	961788	wordpools/wasnorm_wordpool_less_exclusions.txt	LTP266	ltpFR	1	9	0	COLESLAW	344	n/a	0	1	0.412841796875	0.57763671875	lower	../fonts/zerothre.ttf
1927.594	n/a	WORD	963797	wordpools/wasnorm_wordpool_less_exclusions.txt	LTP266	ltpFR	1	9	0	HEN	703	n/a	0	1	0.412841796875	0.57763671875	lower	../fonts/zerothre.ttf
1931.708	n/a	WORD	965854	wordpools/wasnorm_wordpool_less_exclusions.txt	LTP266	ltpFR	1	9	1	DECK	443	n/a	0	0	0.5869140625	0.422607421875	upper	../fonts/amplitud.ttf
1935.84	n/a	WORD	967920	wordpools/wasnorm_wordpool_less_exclusions.txt	LTP266	ltpFR	1	9	1	TUNA	1518	n/a	1	0	0.5869140625	0.422607421875	upper	../fonts/amplitud.ttf
1940.038	n/a	WORD	970019	wordpools/wasnorm_wordpool_less_exclusions.txt	LTP266	ltpFR	1	9	1	CLAM	315	n/a	1	0	0.5869140625	0.422607421875	upper	../fonts/amplitud.ttf
1943.936	n/a	WORD	971968	wordpools/wasnorm_wordpool_less_exclusions.txt	LTP266	ltpFR	1	9	0	CACTUS	215	n/a	1	1	0.412841796875	0.57763671875	lower	../fonts/zerothre.ttf
1947.82	n/a	WORD	973910	wordpools/wasnorm_wordpool_less_exclusions.txt	LTP266	ltpFR	1	9	0	ENGINEER	536	n/a	1	1	0.412841796875	0.57763671875	lower	../fonts/zerothre.ttf
1951.868	n/a	WORD	975934	wordpools/wasnorm_wordpool_less_exclusions.txt	LTP266	ltpFR	1	9	1	TENT	1449	n/a	0	0	0.5869140625	0.422607421875	upper	../fonts/amplitud.ttf
1955.75	n/a	WORD	977875	wordpools/wasnorm_wordpool_less_exclusions.txt	LTP266	ltpFR	1	9	1	PRIEST	1122	n/a	1	0	0.5869140625	0.422607421875	upper	../fonts/amplitud.ttf
1959.662	n/a	WORD	979831	wordpools/wasnorm_wordpool_less_exclusions.txt	LTP266	ltpFR	1	9	1	CATHEDRAL	260	n/a	0	0	0.5869140625	0.422607421875	upper	../fonts/amplitud.ttf
1963.68	n/a	WORD	981840	wordpools/wasnorm_wordpool_less_exclusions.txt	LTP266	ltpFR	1	9	1	LUMBER	848	n/a	0	0	0.5869140625	0.422607421875	upper	../fonts/amplitud.ttf
1967.812	n/a	WORD	983906	wordpools/wasnorm_wordpool_less_exclusions.txt	LTP266	ltpFR	1	9	1	PADDLE	1000	n/a	0	0	0.5869140625	0.422607421875	upper	../fonts/amplitud.ttf
1971.678	n/a	WORD	985839	wordpools/wasnorm_wordpool_less_exclusions.txt	LTP266	ltpFR	1	9	0	CINNAMON	310	n/a	0	1	0.412841796875	0.57763671875	lower	../fonts/zerothre.ttf
1975.508	n/a	WORD	987754	wordpools/wasnorm_wordpool_less_exclusions.txt	LTP266	ltpFR	1	9	0	FRIEND	606	n/a	1	1	0.412841796875	0.57763671875	lower	../fonts/zerothre.ttf
1979.608	n/a	WORD	989804	wordpools/wasnorm_wordpool_less_exclusions.txt	LTP266	ltpFR	1	9	0	SUPPER	1411	n/a	1	1	0.412841796875	0.57763671875	lower	../fonts/zerothre.ttf
1983.654	n/a	WORD	991827	wordpools/wasnorm_wordpool_less_exclusions.txt	LTP266	ltpFR	1	9	0	STAKE	1368	n/a	0	1	0.412841796875	0.57763671875	lower	../fonts/zerothre.ttf
1989.328	n/a	REC_START	994664	n/a	LTP266	ltpFR	1	9	n/a	n/a	n/a	n/a	n/a	n/a	n/a	n/a	n/a	n/a
1993.244	n/a	REC_WORD	996622	wordpools/wasnorm_wordpool_less_exclusions.txt	LTP266	ltpFR	1	9	0	COLESLAW	344	n/a	0	n/a	n/a	n/a	n/a	n/a
1994.844	n/a	REC_WORD	997422	wordpools/wasnorm_wordpool_less_exclusions.txt	LTP266	ltpFR	1	9	0	HEN	703	n/a	0	n/a	n/a	n/a	n/a	n/a
2000.022	n/a	REC_WORD	1000011	wordpools/wasnorm_wordpool_less_exclusions.txt	LTP266	ltpFR	1	9	0	STAKE	1368	n/a	0	n/a	n/a	n/a	n/a	n/a
2002.634	n/a	REC_WORD	1001317	wordpools/wasnorm_wordpool_less_exclusions.txt	LTP266	ltpFR	1	9	0	SUPPER	1411	n/a	1	n/a	n/a	n/a	n/a	n/a
2009.762	n/a	REC_WORD	1004881	wordpools/wasnorm_wordpool_less_exclusions.txt	LTP266	ltpFR	1	9	0	CACTUS	215	n/a	1	n/a	n/a	n/a	n/a	n/a
2020.61	n/a	REC_WORD	1010305	wordpools/wasnorm_wordpool_less_exclusions.txt	LTP266	ltpFR	1	9	1	LUMBER	848	n/a	0	n/a	n/a	n/a	n/a	n/a
2021.814	n/a	REC_WORD	1010907	wordpools/wasnorm_wordpool_less_exclusions.txt	LTP266	ltpFR	1	9	1	PADDLE	1000	n/a	0	n/a	n/a	n/a	n/a	n/a
2024.728	n/a	REC_WORD	1012364	wordpools/wasnorm_wordpool_less_exclusions.txt	LTP266	ltpFR	1	9	-1	HAMMER	680	n/a	-1	n/a	n/a	n/a	n/a	n/a
2025.45	n/a	REC_WORD	1012725	wordpools/wasnorm_wordpool_less_exclusions.txt	LTP266	ltpFR	1	9	-1	NAIL	936	n/a	-1	n/a	n/a	n/a	n/a	n/a
2047.472	n/a	REC_WORD	1023736	wordpools/wasnorm_wordpool_less_exclusions.txt	LTP266	ltpFR	1	9	0	FRIEND	606	n/a	1	n/a	n/a	n/a	n/a	n/a
2078.0	n/a	WORD	1039000	wordpools/wasnorm_wordpool_less_exclusions.txt	LTP266	ltpFR	1	10	-1	FOLDER	588	n/a	-1	1	1.0	1.0	upper	../fonts/Verdana.ttf
2082.048	n/a	WORD	1041024	wordpools/wasnorm_wordpool_less_exclusions.txt	LTP266	ltpFR	1	10	-1	BROOM	178	n/a	-1	1	1.0	1.0	upper	../fonts/Verdana.ttf
2086.232	n/a	WORD	1043116	wordpools/wasnorm_wordpool_less_exclusions.txt	LTP266	ltpFR	1	10	-1	MACARONI	851	n/a	-1	1	1.0	1.0	upper	../fonts/Verdana.ttf
2090.246	n/a	WORD	1045123	wordpools/wasnorm_wordpool_less_exclusions.txt	LTP266	ltpFR	1	10	-1	FIST	572	n/a	-1	1	1.0	1.0	upper	../fonts/Verdana.ttf
2094.396	n/a	WORD	1047198	wordpools/wasnorm_wordpool_less_exclusions.txt	LTP266	ltpFR	1	10	-1	EAGLE	512	n/a	-1	1	1.0	1.0	upper	../fonts/Verdana.ttf
2098.528	n/a	WORD	1049264	wordpools/wasnorm_wordpool_less_exclusions.txt	LTP266	ltpFR	1	10	-1	TIMBER	1469	n/a	-1	1	1.0	1.0	upper	../fonts/Verdana.ttf
2102.444	n/a	WORD	1051222	wordpools/wasnorm_wordpool_less_exclusions.txt	LTP266	ltpFR	1	10	-1	BED	110	n/a	-1	1	1.0	1.0	upper	../fonts/Verdana.ttf
2106.526	n/a	WORD	1053263	wordpools/wasnorm_wordpool_less_exclusions.txt	LTP266	ltpFR	1	10	-1	CLERK	321	n/a	-1	1	1.0	1.0	upper	../fonts/Verdana.ttf
2110.742	n/a	WORD	1055371	wordpools/wasnorm_wordpool_less_exclusions.txt	LTP266	ltpFR	1	10	-1	WINE	1613	n/a	-1	1	1.0	1.0	upper	../fonts/Verdana.ttf
2114.94	n/a	WORD	1057470	wordpools/wasnorm_wordpool_less_exclusions.txt	LTP266	ltpFR	1	10	-1	DRINK	498	n/a	-1	1	1.0	1.0	upper	../fonts/Verdana.ttf
2118.786	n/a	WORD	1059393	wordpools/wasnorm_wordpool_less_exclusions.txt	LTP266	ltpFR	1	10	-1	DUSTPAN	509	n/a	-1	1	1.0	1.0	upper	../fonts/Verdana.ttf
2122.922	n/a	WORD	1061461	wordpools/wasnorm_wordpool_less_exclusions.txt	LTP266	ltpFR	1	10	-1	CABIN	211	n/a	-1	1	1.0	1.0	upper	../fonts/Verdana.ttf
2127.138	n/a	WORD	1063569	wordpools/wasnorm_wordpool_less_exclusions.txt	LTP266	ltpFR	1	10	-1	MESSAGE	888	n/a	-1	1	1.0	1.0	upper	../fonts/Verdana.ttf
2131.22	n/a	WORD	1065610	wordpools/wasnorm_wordpool_less_exclusions.txt	LTP266	ltpFR	1	10	-1	TELEPHONE	1445	n/a	-1	1	1.0	1.0	upper	../fonts/Verdana.ttf
2135.284	n/a	WORD	1067642	wordpools/wasnorm_wordpool_less_exclusions.txt	LTP266	ltpFR	1	10	-1	SHOE	1288	n/a	-1	1	1.0	1.0	upper	../fonts/Verdana.ttf
2139.368	n/a	WORD	1069684	wordpools/wasnorm_wordpool_less_exclusions.txt	LTP266	ltpFR	1	10	-1	HAND	683	n/a	-1	1	1.0	1.0	upper	../fonts/Verdana.ttf
2145.258	n/a	REC_START	1072629	n/a	LTP266	ltpFR	1	10	n/a	n/a	n/a	n/a	n/a	n/a	n/a	n/a	n/a	n/a
2146.74	n/a	REC_WORD	1073370	wordpools/wasnorm_wordpool_less_exclusions.txt	LTP266	ltpFR	1	10	-1	MACARONI	851	n/a	-1	n/a	n/a	n/a	n/a	n/a
2148.012	n/a	REC_WORD	1074006	wordpools/wasnorm_wordpool_less_exclusions.txt	LTP266	ltpFR	1	10	-1	FIST	572	n/a	-1	n/a	n/a	n/a	n/a	n/a
2149.516	n/a	REC_WORD	1074758	wordpools/wasnorm_wordpool_less_exclusions.txt	LTP266	ltpFR	1	10	-1	MESSAGE	888	n/a	-1	n/a	n/a	n/a	n/a	n/a
2150.464	n/a	REC_WORD	1075232	wordpools/wasnorm_wordpool_less_exclusions.txt	LTP266	ltpFR	1	10	-1	WINE	1613	n/a	-1	n/a	n/a	n/a	n/a	n/a
2152.322	n/a	REC_WORD	1076161	wordpools/wasnorm_wordpool_less_exclusions.txt	LTP266	ltpFR	1	10	-1	TELEPHONE	1445	n/a	-1	n/a	n/a	n/a	n/a	n/a
2250.526	n/a	WORD	1125263	wordpools/wasnorm_wordpool_less_exclusions.txt	LTP266	ltpFR	1	11	1	SOCKET	1340	n/a	0	0	0.5869140625	0.422607421875	upper	../fonts/amplitud.ttf
2254.676	n/a	WORD	1127338	wordpools/wasnorm_wordpool_less_exclusions.txt	LTP266	ltpFR	1	11	1	GALAXY	617	n/a	1	0	0.5869140625	0.422607421875	upper	../fonts/amplitud.ttf
2258.858	n/a	WORD	1129429	wordpools/wasnorm_wordpool_less_exclusions.txt	LTP266	ltpFR	1	11	1	UNIVERSE	1540	n/a	1	0	0.5869140625	0.422607421875	upper	../fonts/amplitud.ttf
2262.972	n/a	WORD	1131486	wordpools/wasnorm_wordpool_less_exclusions.txt	LTP266	ltpFR	1	11	1	BLUEPRINT	142	n/a	0	0	0.5869140625	0.422607421875	upper	../fonts/amplitud.ttf
2267.018	n/a	WORD	1133509	wordpools/wasnorm_wordpool_less_exclusions.txt	LTP266	ltpFR	1	11	1	BEAVER	109	n/a	1	0	0.5869140625	0.422607421875	upper	../fonts/amplitud.ttf
2271.122	n/a	WORD	1135561	wordpools/wasnorm_wordpool_less_exclusions.txt	LTP266	ltpFR	1	11	1	RAM	1165	n/a	1	0	0.5869140625	0.422607421875	upper	../fonts/amplitud.ttf
2275.334	n/a	WORD	1137667	wordpools/wasnorm_wordpool_less_exclusions.txt	LTP266	ltpFR	1	11	1	BAND	78	n/a	1	0	0.5869140625	0.422607421875	upper	../fonts/amplitud.ttf
2279.436	n/a	WORD	1139718	wordpools/wasnorm_wordpool_less_exclusions.txt	LTP266	ltpFR	1	11	1	CORK	380	n/a	1	0	0.5869140625	0.422607421875	upper	../fonts/amplitud.ttf
2283.468	n/a	WORD	1141734	wordpools/wasnorm_wordpool_less_exclusions.txt	LTP266	ltpFR	1	11	1	RECEIPT	1173	n/a	0	0	0.5869140625	0.422607421875	upper	../fonts/amplitud.ttf
2287.366	n/a	WORD	1143683	wordpools/wasnorm_wordpool_less_exclusions.txt	LTP266	ltpFR	1	11	1	PLASTER	1085	n/a	0	0	0.5869140625	0.422607421875	upper	../fonts/amplitud.ttf
2291.482	n/a	WORD	1145741	wordpools/wasnorm_wordpool_less_exclusions.txt	LTP266	ltpFR	1	11	1	TRUMPET	1513	n/a	0	0	0.5869140625	0.422607421875	upper	../fonts/amplitud.ttf
2295.38	n/a	WORD	1147690	wordpools/wasnorm_wordpool_less_exclusions.txt	LTP266	ltpFR	1	11	1	BARTENDER	92	n/a	1	0	0.5869140625	0.422607421875	upper	../fonts/amplitud.ttf
2299.412	n/a	WORD	1149706	wordpools/wasnorm_wordpool_less_exclusions.txt	LTP266	ltpFR	1	11	1	SHEEP	1278	n/a	1	0	0.5869140625	0.422607421875	upper	../fonts/amplitud.ttf
2303.244	n/a	WORD	1151622	wordpools/wasnorm_wordpool_less_exclusions.txt	LTP266	ltpFR	1	11	1	BATTERY	101	n/a	0	0	0.5869140625	0.422607421875	upper	../fonts/amplitud.ttf
2307.176	n/a	WORD	1153588	wordpools/wasnorm_wordpool_less_exclusions.txt	LTP266	ltpFR	1	11	1	YARN	1631	n/a	0	0	0.5869140625	0.422607421875	upper	../fonts/amplitud.ttf
2311.124	n/a	WORD	1155562	wordpools/wasnorm_wordpool_less_exclusions.txt	LTP266	ltpFR	1	11	1	KNOT	788	n/a	0	0	0.5869140625	0.422607421875	upper	../fonts/amplitud.ttf
2316.996	n/a	REC_START	1158498	n/a	LTP266	ltpFR	1	11	n/a	n/a	n/a	n/a	n/a	n/a	n/a	n/a	n/a	n/a
2319.144	n/a	REC_WORD	1159572	wordpools/wasnorm_wordpool_less_exclusions.txt	LTP266	ltpFR	1	11	1	GALAXY	617	n/a	1	n/a	n/a	n/a	n/a	n/a
2320.428	n/a	REC_WORD	1160214	wordpools/wasnorm_wordpool_less_exclusions.txt	LTP266	ltpFR	1	11	1	UNIVERSE	1540	n/a	1	n/a	n/a	n/a	n/a	n/a
2322.836	n/a	REC_WORD	1161418	wordpools/wasnorm_wordpool_less_exclusions.txt	LTP266	ltpFR	1	11	1	SHEEP	1278	n/a	1	n/a	n/a	n/a	n/a	n/a
2323.78	n/a	REC_WORD	1161890	wordpools/wasnorm_wordpool_less_exclusions.txt	LTP266	ltpFR	1	11	1	RAM	1165	n/a	1	n/a	n/a	n/a	n/a	n/a
2324.822	n/a	REC_WORD	1162411	wordpools/wasnorm_wordpool_less_exclusions.txt	LTP266	ltpFR	1	11	1	YARN	1631	n/a	0	n/a	n/a	n/a	n/a	n/a
2331.5	n/a	REC_WORD	1165750	wordpools/wasnorm_wordpool_less_exclusions.txt	LTP266	ltpFR	1	11	1	BEAVER	109	n/a	1	n/a	n/a	n/a	n/a	n/a
2343.158	n/a	REC_WORD	1171579	wordpools/wasnorm_wordpool_less_exclusions.txt	LTP266	ltpFR	1	11	1	KNOT	788	n/a	0	n/a	n/a	n/a	n/a	n/a
2404.7	n/a	WORD	1202350	wordpools/wasnorm_wordpool_less_exclusions.txt	LTP266	ltpFR	1	12	-1	SHIP	1286	n/a	-1	1	1.0	1.0	upper	../fonts/Verdana.ttf
2408.598	n/a	WORD	1204299	wordpools/wasnorm_wordpool_less_exclusions.txt	LTP266	ltpFR	1	12	-1	NAVIGATOR	938	n/a	-1	1	1.0	1.0	upper	../fonts/Verdana.ttf
2412.444	n/a	WORD	1206222	wordpools/wasnorm_wordpool_less_exclusions.txt	LTP266	ltpFR	1	12	-1	TOOTHPASTE	1483	n/a	-1	1	1.0	1.0	upper	../fonts/Verdana.ttf
2416.276	n/a	WORD	1208138	wordpools/wasnorm_wordpool_less_exclusions.txt	LTP266	ltpFR	1	12	-1	VINEGAR	1569	n/a	-1	1	1.0	1.0	upper	../fonts/Verdana.ttf
2420.408	n/a	WORD	1210204	wordpools/wasnorm_wordpool_less_exclusions.txt	LTP266	ltpFR	1	12	-1	RUM	1217	n/a	-1	1	1.0	1.0	upper	../fonts/Verdana.ttf
2424.406	n/a	WORD	1212203	wordpools/wasnorm_wordpool_less_exclusions.txt	LTP266	ltpFR	1	12	-1	BARREL	91	n/a	-1	1	1.0	1.0	upper	../fonts/Verdana.ttf
2428.238	n/a	WORD	1214119	wordpools/wasnorm_wordpool_less_exclusions.txt	LTP266	ltpFR	1	12	-1	BLACKBERRY	132	n/a	-1	1	1.0	1.0	upper	../fonts/Verdana.ttf
2432.136	n/a	WORD	1216068	wordpools/wasnorm_wordpool_less_exclusions.txt	LTP266	ltpFR	1	12	-1	BRACES	164	n/a	-1	1	1.0	1.0	upper	../fonts/Verdana.ttf
2436.252	n/a	WORD	1218126	wordpools/wasnorm_wordpool_less_exclusions.txt	LTP266	ltpFR	1	12	-1	HURRICANE	727	n/a	-1	1	1.0	1.0	upper	../fonts/Verdana.ttf
2440.368	n/a	WORD	1220184	wordpools/wasnorm_wordpool_less_exclusions.txt	LTP266	ltpFR	1	12	-1	GRAPE	654	n/a	-1	1	1.0	1.0	upper	../fonts/Verdana.ttf
2444.334	n/a	WORD	1222167	wordpools/wasnorm_wordpool_less_exclusions.txt	LTP266	ltpFR	1	12	-1	RIVER	1194	n/a	-1	1	1.0	1.0	upper	../fonts/Verdana.ttf
2448.332	n/a	WORD	1224166	wordpools/wasnorm_wordpool_less_exclusions.txt	LTP266	ltpFR	1	12	-1	BRANDY	169	n/a	-1	1	1.0	1.0	upper	../fonts/Verdana.ttf
2452.18	n/a	WORD	1226090	wordpools/wasnorm_wordpool_less_exclusions.txt	LTP266	ltpFR	1	12	-1	GRASSHOPPER	656	n/a	-1	1	1.0	1.0	upper	../fonts/Verdana.ttf
2456.244	n/a	WORD	1228122	wordpools/wasnorm_wordpool_less_exclusions.txt	LTP266	ltpFR	1	12	-1	SKI	1316	n/a	-1	1	1.0	1.0	upper	../fonts/Verdana.ttf
2460.362	n/a	WORD	1230181	wordpools/wasnorm_wordpool_less_exclusions.txt	LTP266	ltpFR	1	12	-1	RUBY	1214	n/a	-1	1	1.0	1.0	upper	../fonts/Verdana.ttf
2464.56	n/a	WORD	1232280	wordpools/wasnorm_wordpool_less_exclusions.txt	LTP266	ltpFR	1	12	-1	DOORBELL	487	n/a	-1	1	1.0	1.0	upper	../fonts/Verdana.ttf
2470.266	n/a	REC_START	1235133	n/a	LTP266	ltpFR	1	12	n/a	n/a	n/a	n/a	n/a	n/a	n/a	n/a	n/a	n/a
2471.938	n/a	REC_WORD	1235969	wordpools/wasnorm_wordpool_less_exclusions.txt	LTP266	ltpFR	1	12	-1	SHIP	1286	n/a	-1	n/a	n/a	n/a	n/a	n/a
2473.08	n/a	REC_WORD	1236540	wordpools/wasnorm_wordpool_less_exclusions.txt	LTP266	ltpFR	1	12	-1	NAVIGATOR	938	n/a	-1	n/a	n/a	n/a	n/a	n/a
2476.874	n/a	REC_WORD	1238437	wordpools/wasnorm_wordpool_less_exclusions.txt	LTP266	ltpFR	1	12	-1	BLACKBERRY	132	n/a	-1	n/a	n/a	n/a	n/a	n/a
2481.418	n/a	REC_WORD	1240709	wordpools/wasnorm_wordpool_less_exclusions.txt	LTP266	ltpFR	1	12	-1	DOORBELL	487	n/a	-1	n/a	n/a	n/a	n/a	n/a
2504.144	n/a	REC_WORD	1252072	wordpools/wasnorm_wordpool_less_exclusions.txt	LTP266	ltpFR	1	12	-1	SKI	1316	n/a	-1	n/a	n/a	n/a	n/a	n/a
2530.456	n/a	REC_WORD	1265228	wordpools/wasnorm_wordpool_less_exclusions.txt	LTP266	ltpFR	1	12	-1	VINEGAR	1569	n/a	-1	n/a	n/a	n/a	n/a	n/a
2545.954	n/a	REST_REWET	1272977	n/a	LTP266	ltpFR	1	12	n/a	n/a	n/a	n/a	n/a	n/a	n/a	n/a	n/a	n/a
2867.818	n/a	WORD	1433909	wordpools/wasnorm_wordpool_less_exclusions.txt	LTP266	ltpFR	1	13	0	CROWN	415	n/a	0	1	0.412841796875	0.57763671875	lower	../fonts/zerothre.ttf
2871.75	n/a	WORD	1435875	wordpools/wasnorm_wordpool_less_exclusions.txt	LTP266	ltpFR	1	13	0	THRONE	1461	n/a	0	1	0.412841796875	0.57763671875	lower	../fonts/zerothre.ttf
2875.662	n/a	WORD	1437831	wordpools/wasnorm_wordpool_less_exclusions.txt	LTP266	ltpFR	1	13	0	DRYER	503	n/a	1	1	0.412841796875	0.57763671875	lower	../fonts/zerothre.ttf
2879.594	n/a	WORD	1439797	wordpools/wasnorm_wordpool_less_exclusions.txt	LTP266	ltpFR	1	13	1	VASE	1549	n/a	0	0	0.5869140625	0.422607421875	upper	../fonts/amplitud.ttf
2883.544	n/a	WORD	1441772	wordpools/wasnorm_wordpool_less_exclusions.txt	LTP266	ltpFR	1	13	1	BALL	73	n/a	0	0	0.5869140625	0.422607421875	upper	../fonts/amplitud.ttf
2887.51	n/a	WORD	1443755	wordpools/wasnorm_wordpool_less_exclusions.txt	LTP266	ltpFR	1	13	0	TONGUE	1479	n/a	0	1	0.412841796875	0.57763671875	lower	../fonts/zerothre.ttf
2891.676	n/a	WORD	1445838	wordpools/wasnorm_wordpool_less_exclusions.txt	LTP266	ltpFR	1	13	0	CHEEK	287	n/a	0	1	0.412841796875	0.57763671875	lower	../fonts/zerothre.ttf
2895.79	n/a	WORD	1447895	wordpools/wasnorm_wordpool_less_exclusions.txt	LTP266	ltpFR	1	13	0	BANQUET	86	n/a	1	1	0.412841796875	0.57763671875	lower	../fonts/zerothre.ttf
2899.758	n/a	WORD	1449879	wordpools/wasnorm_wordpool_less_exclusions.txt	LTP266	ltpFR	1	13	0	MEAT	883	n/a	0	1	0.412841796875	0.57763671875	lower	../fonts/zerothre.ttf
2903.622	n/a	WORD	1451811	wordpools/wasnorm_wordpool_less_exclusions.txt	LTP266	ltpFR	1	13	0	CHIPMUNK	304	n/a	0	1	0.412841796875	0.57763671875	lower	../fonts/zerothre.ttf
2907.754	n/a	WORD	1453877	wordpools/wasnorm_wordpool_less_exclusions.txt	LTP266	ltpFR	1	13	1	GARDEN	623	n/a	1	0	0.5869140625	0.422607421875	upper	../fonts/amplitud.ttf
2911.868	n/a	WORD	1455934	wordpools/wasnorm_wordpool_less_exclusions.txt	LTP266	ltpFR	1	13	1	NUCLEUS	961	n/a	1	0	0.5869140625	0.422607421875	upper	../fonts/amplitud.ttf
2915.9	n/a	WORD	1457950	wordpools/wasnorm_wordpool_less_exclusions.txt	LTP266	ltpFR	1	13	1	WALRUS	1585	n/a	1	0	0.5869140625	0.422607421875	upper	../fonts/amplitud.ttf
2919.784	n/a	WORD	1459892	wordpools/wasnorm_wordpool_less_exclusions.txt	LTP266	ltpFR	1	13	1	CHAMPION	279	n/a	1	0	0.5869140625	0.422607421875	upper	../fonts/amplitud.ttf
2923.73	n/a	WORD	1461865	wordpools/wasnorm_wordpool_less_exclusions.txt	LTP266	ltpFR	1	13	1	REINDEER	1181	n/a	1	0	0.5869140625	0.422607421875	upper	../fonts/amplitud.ttf
2927.612	n/a	WORD	1463806	wordpools/wasnorm_wordpool_less_exclusions.txt	LTP266	ltpFR	1	13	1	KEYBOARD	774	n/a	0	0	0.5869140625	0.422607421875	upper	../fonts/amplitud.ttf
2933.536	n/a	REC_START	1466768	n/a	LTP266	ltpFR	1	13	n/a	n/a	n/a	n/a	n/a	n/a	n/a	n/a	n/a	n/a
2935.272	n/a	REC_WORD	1467636	wordpools/wasnorm_wordpool_less_exclusions.txt	LTP266	ltpFR	1	13	1	KEYBOARD	774	n/a	0	n/a	n/a	n/a	n/a	n/a
2936.5	n/a	REC_WORD	1468250	wordpools/wasnorm_wordpool_less_exclusions.txt	LTP266	ltpFR	1	13	1	REINDEER	1181	n/a	1	n/a	n/a	n/a	n/a	n/a
2938.048	n/a	REC_WORD	1469024	wordpools/wasnorm_wordpool_less_exclusions.txt	LTP266	ltpFR	1	13	1	WALRUS	1585	n/a	1	n/a	n/a	n/a	n/a	n/a
2939.892	n/a	REC_WORD	1469946	wordpools/wasnorm_wordpool_less_exclusions.txt	LTP266	ltpFR	1	13	0	THRONE	1461	n/a	0	n/a	n/a	n/a	n/a	n/a
2941.486	n/a	REC_WORD	1470743	wordpools/wasnorm_wordpool_less_exclusions.txt	LTP266	ltpFR	1	13	n/a	KING	777	n/a	n/a	n/a	n/a	n/a	n/a	n/a
2944.262	n/a	REC_WORD	1472131	wordpools/wasnorm_wordpool_less_exclusions.txt	LTP266	ltpFR	1	13	0	TONGUE	1479	n/a	0	n/a	n/a	n/a	n/a	n/a
2945.326	n/a	REC_WORD	1472663	wordpools/wasnorm_wordpool_less_exclusions.txt	LTP266	ltpFR	1	13	0	CHEEK	287	n/a	0	n/a	n/a	n/a	n/a	n/a
2957.8	n/a	REC_WORD	1478900	wordpools/wasnorm_wordpool_less_exclusions.txt	LTP266	ltpFR	1	13	0	CHIPMUNK	304	n/a	0	n/a	n/a	n/a	n/a	n/a
3039.976	n/a	WORD	1519988	wordpools/wasnorm_wordpool_less_exclusions.txt	LTP266	ltpFR	1	14	1	PARROT	1015	n/a	1	0	0.5869140625	0.422607421875	upper	../fonts/amplitud.ttf
3043.938	n/a	WORD	1521969	wordpools/wasnorm_wordpool_less_exclusions.txt	LTP266	ltpFR	1	14	1	QUAIL	1147	n/a	1	0	0.5869140625	0.422607421875	upper	../fonts/amplitud.ttf
3048.156	n/a	WORD	1524078	wordpools/wasnorm_wordpool_less_exclusions.txt	LTP266	ltpFR	1	14	1	CEREAL	272	n/a	0	0	0.5869140625	0.422607421875	upper	../fonts/amplitud.ttf
3052.322	n/a	WORD	1526161	wordpools/wasnorm_wordpool_less_exclusions.txt	LTP266	ltpFR	1	14	1	WHEAT	1602	n/a	0	0	0.5869140625	0.422607421875	upper	../fonts/amplitud.ttf
3056.272	n/a	WORD	1528136	wordpools/wasnorm_wordpool_less_exclusions.txt	LTP266	ltpFR	1	14	1	CONCERT	360	n/a	0	0	0.5869140625	0.422607421875	upper	../fonts/amplitud.ttf
3060.136	n/a	WORD	1530068	wordpools/wasnorm_wordpool_less_exclusions.txt	LTP266	ltpFR	1	14	1	CRITIC	410	n/a	0	0	0.5869140625	0.422607421875	upper	../fonts/amplitud.ttf
3064.0	n/a	WORD	1532000	wordpools/wasnorm_wordpool_less_exclusions.txt	LTP266	ltpFR	1	14	1	XEROX	1628	n/a	0	0	0.5869140625	0.422607421875	upper	../fonts/amplitud.ttf
3068.166	n/a	WORD	1534083	wordpools/wasnorm_wordpool_less_exclusions.txt	LTP266	ltpFR	1	14	1	RECORD	1176	n/a	0	0	0.5869140625	0.422607421875	upper	../fonts/amplitud.ttf
3072.098	n/a	WORD	1536049	wordpools/wasnorm_wordpool_less_exclusions.txt	LTP266	ltpFR	1	14	1	ACTRESS	6	n/a	1	0	0.5869140625	0.422607421875	upper	../fonts/amplitud.ttf
3076.18	n/a	WORD	1538090	wordpools/wasnorm_wordpool_less_exclusions.txt	LTP266	ltpFR	1	14	1	SPACE	1345	n/a	0	0	0.5869140625	0.422607421875	upper	../fonts/amplitud.ttf
3080.044	n/a	WORD	1540022	wordpools/wasnorm_wordpool_less_exclusions.txt	LTP266	ltpFR	1	14	1	BANKER	84	n/a	1	0	0.5869140625	0.422607421875	upper	../fonts/amplitud.ttf
3084.244	n/a	WORD	1542122	wordpools/wasnorm_wordpool_less_exclusions.txt	LTP266	ltpFR	1	14	1	VENUS	1557	n/a	1	0	0.5869140625	0.422607421875	upper	../fonts/amplitud.ttf
3088.176	n/a	WORD	1544088	wordpools/wasnorm_wordpool_less_exclusions.txt	LTP266	ltpFR	1	14	1	PIANO	1057	n/a	0	0	0.5869140625	0.422607421875	upper	../fonts/amplitud.ttf
3092.208	n/a	WORD	1546104	wordpools/wasnorm_wordpool_less_exclusions.txt	LTP266	ltpFR	1	14	1	TORTOISE	1486	n/a	1	0	0.5869140625	0.422607421875	upper	../fonts/amplitud.ttf
3096.274	n/a	WORD	1548137	wordpools/wasnorm_wordpool_less_exclusions.txt	LTP266	ltpFR	1	14	1	MAGICIAN	854	n/a	1	0	0.5869140625	0.422607421875	upper	../fonts/amplitud.ttf
3100.49	n/a	WORD	1550245	wordpools/wasnorm_wordpool_less_exclusions.txt	LTP266	ltpFR	1	14	1	ROBOT	1200	n/a	0	0	0.5869140625	0.422607421875	upper	../fonts/amplitud.ttf
3106.212	n/a	REC_START	1553106	n/a	LTP266	ltpFR	1	14	n/a	n/a	n/a	n/a	n/a	n/a	n/a	n/a	n/a	n/a
3107.674	n/a	REC_WORD	1553837	wordpools/wasnorm_wordpool_less_exclusions.txt	LTP266	ltpFR	1	14	1	ROBOT	1200	n/a	0	n/a	n/a	n/a	n/a	n/a
3109.146	n/a	REC_WORD	1554573	wordpools/wasnorm_wordpool_less_exclusions.txt	LTP266	ltpFR	1	14	1	MAGICIAN	854	n/a	1	n/a	n/a	n/a	n/a	n/a
3111.456	n/a	REC_WORD	1555728	wordpools/wasnorm_wordpool_less_exclusions.txt	LTP266	ltpFR	1	14	1	QUAIL	1147	n/a	1	n/a	n/a	n/a	n/a	n/a
3118.352	n/a	REC_WORD	1559176	wordpools/wasnorm_wordpool_less_exclusions.txt	LTP266	ltpFR	1	14	1	PARROT	1015	n/a	1	n/a	n/a	n/a	n/a	n/a
3128.33	n/a	REC_WORD	1564165	wordpools/wasnorm_wordpool_less_exclusions.txt	LTP266	ltpFR	1	14	1	ACTRESS	6	n/a	1	n/a	n/a	n/a	n/a	n/a
3129.52	n/a	REC_WORD	1564760	wordpools/wasnorm_wordpool_less_exclusions.txt	LTP266	ltpFR	1	14	1	CRITIC	410	n/a	0	n/a	n/a	n/a	n/a	n/a
3134.918	n/a	REC_WORD	1567459	wordpools/wasnorm_wordpool_less_exclusions.txt	LTP266	ltpFR	1	14	1	ROBOT	1200	n/a	0	n/a	n/a	n/a	n/a	n/a
3149.906	n/a	REC_WORD	1574953	wordpools/wasnorm_wordpool_less_exclusions.txt	LTP266	ltpFR	1	14	1	CEREAL	272	n/a	0	n/a	n/a	n/a	n/a	n/a
3152.198	n/a	REC_WORD	1576099	wordpools/wasnorm_wordpool_less_exclusions.txt	LTP266	ltpFR	1	14	1	WHEAT	1602	n/a	0	n/a	n/a	n/a	n/a	n/a
3191.922	n/a	WORD	1595961	wordpools/wasnorm_wordpool_less_exclusions.txt	LTP266	ltpFR	1	15	-1	TAG	1429	n/a	-1	1	1.0	1.0	upper	../fonts/Verdana.ttf
3195.922	n/a	WORD	1597961	wordpools/wasnorm_wordpool_less_exclusions.txt	LTP266	ltpFR	1	15	-1	VILLAGE	1566	n/a	-1	1	1.0	1.0	upper	../fonts/Verdana.ttf
3200.07	n/a	WORD	1600035	wordpools/wasnorm_wordpool_less_exclusions.txt	LTP266	ltpFR	1	15	-1	SARDINE	1235	n/a	-1	1	1.0	1.0	upper	../fonts/Verdana.ttf
3204.2	n/a	WORD	1602100	wordpools/wasnorm_wordpool_less_exclusions.txt	LTP266	ltpFR	1	15	-1	SHRIMP	1297	n/a	-1	1	1.0	1.0	upper	../fonts/Verdana.ttf
3208.302	n/a	WORD	1604151	wordpools/wasnorm_wordpool_less_exclusions.txt	LTP266	ltpFR	1	15	-1	STUDENT	1395	n/a	-1	1	1.0	1.0	upper	../fonts/Verdana.ttf
3212.35	n/a	WORD	1606175	wordpools/wasnorm_wordpool_less_exclusions.txt	LTP266	ltpFR	1	15	-1	CLASS	318	n/a	-1	1	1.0	1.0	upper	../fonts/Verdana.ttf
3216.246	n/a	WORD	1608123	wordpools/wasnorm_wordpool_less_exclusions.txt	LTP266	ltpFR	1	15	-1	CLOSET	326	n/a	-1	1	1.0	1.0	upper	../fonts/Verdana.ttf
3220.33	n/a	WORD	1610165	wordpools/wasnorm_wordpool_less_exclusions.txt	LTP266	ltpFR	1	15	-1	RASPBERRY	1168	n/a	-1	1	1.0	1.0	upper	../fonts/Verdana.ttf
3224.346	n/a	WORD	1612173	wordpools/wasnorm_wordpool_less_exclusions.txt	LTP266	ltpFR	1	15	-1	CANAL	226	n/a	-1	1	1.0	1.0	upper	../fonts/Verdana.ttf
3228.194	n/a	WORD	1614097	wordpools/wasnorm_wordpool_less_exclusions.txt	LTP266	ltpFR	1	15	-1	KNUCKLE	789	n/a	-1	1	1.0	1.0	upper	../fonts/Verdana.ttf
3232.36	n/a	WORD	1616180	wordpools/wasnorm_wordpool_less_exclusions.txt	LTP266	ltpFR	1	15	-1	DENIM	446	n/a	-1	1	1.0	1.0	upper	../fonts/Verdana.ttf
3236.208	n/a	WORD	1618104	wordpools/wasnorm_wordpool_less_exclusions.txt	LTP266	ltpFR	1	15	-1	PEACH	1031	n/a	-1	1	1.0	1.0	upper	../fonts/Verdana.ttf
3240.04	n/a	WORD	1620020	wordpools/wasnorm_wordpool_less_exclusions.txt	LTP266	ltpFR	1	15	-1	TOURIST	1488	n/a	-1	1	1.0	1.0	upper	../fonts/Verdana.ttf
3244.24	n/a	WORD	1622120	wordpools/wasnorm_wordpool_less_exclusions.txt	LTP266	ltpFR	1	15	-1	DISC	473	n/a	-1	1	1.0	1.0	upper	../fonts/Verdana.ttf
3248.304	n/a	WORD	1624152	wordpools/wasnorm_wordpool_less_exclusions.txt	LTP266	ltpFR	1	15	-1	VACUUM	1543	n/a	-1	1	1.0	1.0	upper	../fonts/Verdana.ttf
3252.252	n/a	WORD	1626126	wordpools/wasnorm_wordpool_less_exclusions.txt	LTP266	ltpFR	1	15	-1	BUBBLE	183	n/a	-1	1	1.0	1.0	upper	../fonts/Verdana.ttf
3258.26	n/a	REC_START	1629130	n/a	LTP266	ltpFR	1	15	n/a	n/a	n/a	n/a	n/a	n/a	n/a	n/a	n/a	n/a
3259.854	n/a	REC_WORD	1629927	wordpools/wasnorm_wordpool_less_exclusions.txt	LTP266	ltpFR	1	15	-1	VILLAGE	1566	n/a	-1	n/a	n/a	n/a	n/a	n/a
3262.132	n/a	REC_WORD	1631066	wordpools/wasnorm_wordpool_less_exclusions.txt	LTP266	ltpFR	1	15	-1	PEACH	1031	n/a	-1	n/a	n/a	n/a	n/a	n/a
3264.638	n/a	REC_WORD	1632319	wordpools/wasnorm_wordpool_less_exclusions.txt	LTP266	ltpFR	1	15	-1	RASPBERRY	1168	n/a	-1	n/a	n/a	n/a	n/a	n/a
3267.43	n/a	REC_WORD	1633715	wordpools/wasnorm_wordpool_less_exclusions.txt	LTP266	ltpFR	1	15	-1	STUDENT	1395	n/a	-1	n/a	n/a	n/a	n/a	n/a
3268.198	n/a	REC_WORD	1634099	wordpools/wasnorm_wordpool_less_exclusions.txt	LTP266	ltpFR	1	15	n/a	SCHOOL	1248	n/a	n/a	n/a	n/a	n/a	n/a	n/a
3352.302	n/a	WORD	1676151	wordpools/wasnorm_wordpool_less_exclusions.txt	LTP266	ltpFR	1	16	0	SCROLL	1257	n/a	1	1	0.412841796875	0.57763671875	lower	../fonts/zerothre.ttf
3356.418	n/a	WORD	1678209	wordpools/wasnorm_wordpool_less_exclusions.txt	LTP266	ltpFR	1	16	0	STEREO	1378	n/a	1	1	0.412841796875	0.57763671875	lower	../fonts/zerothre.ttf
3360.35	n/a	WORD	1680175	wordpools/wasnorm_wordpool_less_exclusions.txt	LTP266	ltpFR	1	16	0	WHISTLE	1606	n/a	0	1	0.412841796875	0.57763671875	lower	../fonts/zerothre.ttf
3364.23	n/a	WORD	1682115	wordpools/wasnorm_wordpool_less_exclusions.txt	LTP266	ltpFR	1	16	0	WALL	1582	n/a	1	1	0.412841796875	0.57763671875	lower	../fonts/zerothre.ttf
3368.28	n/a	WORD	1684140	wordpools/wasnorm_wordpool_less_exclusions.txt	LTP266	ltpFR	1	16	0	TERMITE	1451	n/a	0	1	0.412841796875	0.57763671875	lower	../fonts/zerothre.ttf
3372.194	n/a	WORD	1686097	wordpools/wasnorm_wordpool_less_exclusions.txt	LTP266	ltpFR	1	16	0	KNAPSACK	783	n/a	1	1	0.412841796875	0.57763671875	lower	../fonts/zerothre.ttf
3376.294	n/a	WORD	1688147	wordpools/wasnorm_wordpool_less_exclusions.txt	LTP266	ltpFR	1	16	0	STRAWBERRY	1391	n/a	0	1	0.412841796875	0.57763671875	lower	../fonts/zerothre.ttf
3380.394	n/a	WORD	1690197	wordpools/wasnorm_wordpool_less_exclusions.txt	LTP266	ltpFR	1	16	0	COYOTE	396	n/a	1	1	0.412841796875	0.57763671875	lower	../fonts/zerothre.ttf
3384.392	n/a	WORD	1692196	wordpools/wasnorm_wordpool_less_exclusions.txt	LTP266	ltpFR	1	16	0	CAT	257	n/a	1	1	0.412841796875	0.57763671875	lower	../fonts/zerothre.ttf
3388.374	n/a	WORD	1694187	wordpools/wasnorm_wordpool_less_exclusions.txt	LTP266	ltpFR	1	16	0	CLIFF	322	n/a	1	1	0.412841796875	0.57763671875	lower	../fonts/zerothre.ttf
3392.54	n/a	WORD	1696270	wordpools/wasnorm_wordpool_less_exclusions.txt	LTP266	ltpFR	1	16	0	APPLE	33	n/a	0	1	0.412841796875	0.57763671875	lower	../fonts/zerothre.ttf
3396.588	n/a	WORD	1698294	wordpools/wasnorm_wordpool_less_exclusions.txt	LTP266	ltpFR	1	16	0	LION	827	n/a	1	1	0.412841796875	0.57763671875	lower	../fonts/zerothre.ttf
3400.704	n/a	WORD	1700352	wordpools/wasnorm_wordpool_less_exclusions.txt	LTP266	ltpFR	1	16	0	WHISKERS	1605	n/a	1	1	0.412841796875	0.57763671875	lower	../fonts/zerothre.ttf
3404.886	n/a	WORD	1702443	wordpools/wasnorm_wordpool_less_exclusions.txt	LTP266	ltpFR	1	16	0	INCENSE	735	n/a	0	1	0.412841796875	0.57763671875	lower	../fonts/zerothre.ttf
3408.752	n/a	WORD	1704376	wordpools/wasnorm_wordpool_less_exclusions.txt	LTP266	ltpFR	1	16	0	STAPLE	1371	n/a	0	1	0.412841796875	0.57763671875	lower	../fonts/zerothre.ttf
3412.718	n/a	WORD	1706359	wordpools/wasnorm_wordpool_less_exclusions.txt	LTP266	ltpFR	1	16	0	CAFETERIA	217	n/a	1	1	0.412841796875	0.57763671875	lower	../fonts/zerothre.ttf
3418.372	n/a	REC_START	1709186	n/a	LTP266	ltpFR	1	16	n/a	n/a	n/a	n/a	n/a	n/a	n/a	n/a	n/a	n/a
3420.12	n/a	REC_WORD	1710060	wordpools/wasnorm_wordpool_less_exclusions.txt	LTP266	ltpFR	1	16	0	COYOTE	396	n/a	1	n/a	n/a	n/a	n/a	n/a
3421.404	n/a	REC_WORD	1710702	wordpools/wasnorm_wordpool_less_exclusions.txt	LTP266	ltpFR	1	16	0	CAT	257	n/a	1	n/a	n/a	n/a	n/a	n/a
3422.706	n/a	REC_WORD	1711353	wordpools/wasnorm_wordpool_less_exclusions.txt	LTP266	ltpFR	1	16	0	LION	827	n/a	1	n/a	n/a	n/a	n/a	n/a
3423.764	n/a	REC_WORD	1711882	wordpools/wasnorm_wordpool_less_exclusions.txt	LTP266	ltpFR	1	16	0	WHISKERS	1605	n/a	1	n/a	n/a	n/a	n/a	n/a
3425.926	n/a	REC_WORD	1712963	wordpools/wasnorm_wordpool_less_exclusions.txt	LTP266	ltpFR	1	16	0	CAFETERIA	217	n/a	1	n/a	n/a	n/a	n/a	n/a
3432.182	n/a	REC_WORD	1716091	wordpools/wasnorm_wordpool_less_exclusions.txt	LTP266	ltpFR	1	16	0	STRAWBERRY	1391	n/a	0	n/a	n/a	n/a	n/a	n/a
3578.986	n/a	REC_START	1789493	n/a	LTP266	ltpFR	1	1	n/a	n/a	n/a	n/a	n/a	n/a	n/a	n/a	n/a	n/a
3579.052	n/a	RECOG_TARGET	1789526	n/a	LTP266	ltpFR	1	1	-1	TOOTHPASTE	1483	3	-1	n/a	n/a	n/a	n/a	n/a
3580.75	n/a	RECOG_RESP	1790375	n/a	LTP266	ltpFR	1	1	-1	TOOTHPASTE	1483	n/a	-1	n/a	n/a	n/a	n/a	n/a
3583.366	n/a	RECOG_CONF	1791683	n/a	LTP266	ltpFR	1	1	-1	TOOTHPASTE	1483	3	-1	n/a	n/a	n/a	n/a	n/a
3585.978	n/a	RECOG_TARGET	1792989	n/a	LTP266	ltpFR	1	1	1	POCKETBOOK	1094	5	0	n/a	n/a	n/a	n/a	n/a
3588.262	n/a	RECOG_RESP	1794131	n/a	LTP266	ltpFR	1	1	1	POCKETBOOK	1094	n/a	0	n/a	n/a	n/a	n/a	n/a
3589.896	n/a	RECOG_CONF	1794948	n/a	LTP266	ltpFR	1	1	1	POCKETBOOK	1094	5	0	n/a	n/a	n/a	n/a	n/a
3592.018	n/a	RECOG_TARGET	1796009	n/a	LTP266	ltpFR	1	1	1	GALAXY	617	5	1	n/a	n/a	n/a	n/a	n/a
3594.116	n/a	RECOG_RESP	1797058	n/a	LTP266	ltpFR	1	1	1	GALAXY	617	n/a	1	n/a	n/a	n/a	n/a	n/a
3596.156	n/a	RECOG_CONF	1798078	n/a	LTP266	ltpFR	1	1	1	GALAXY	617	5	1	n/a	n/a	n/a	n/a	n/a
3598.092	n/a	RECOG_TARGET	1799046	n/a	LTP266	ltpFR	1	1	1	SAUCER	1237	3	0	n/a	n/a	n/a	n/a	n/a
3600.252	n/a	RECOG_RESP	1800126	n/a	LTP266	ltpFR	1	1	1	SAUCER	1237	n/a	0	n/a	n/a	n/a	n/a	n/a
3601.796	n/a	RECOG_CONF	1800898	n/a	LTP266	ltpFR	1	1	1	SAUCER	1237	3	0	n/a	n/a	n/a	n/a	n/a
3603.88	n/a	RECOG_LURE	1801940	n/a	LTP266	ltpFR	1	1	n/a	SEED	1266	4	n/a	n/a	n/a	n/a	n/a	n/a
3606.002	n/a	RECOG_RESP	1803001	n/a	LTP266	ltpFR	1	1	n/a	SEED	1266	n/a	n/a	n/a	n/a	n/a	n/a	n/a
3607.988	n/a	RECOG_CONF	1803994	n/a	LTP266	ltpFR	1	1	n/a	SEED	1266	4	n/a	n/a	n/a	n/a	n/a	n/a
3609.986	n/a	RECOG_TARGET	1804993	n/a	LTP266	ltpFR	1	1	0	RADIO	1157	3	0	n/a	n/a	n/a	n/a	n/a
3611.558	n/a	RECOG_RESP	1805779	n/a	LTP266	ltpFR	1	1	0	RADIO	1157	n/a	0	n/a	n/a	n/a	n/a	n/a
3613.168	n/a	RECOG_CONF	1806584	n/a	LTP266	ltpFR	1	1	0	RADIO	1157	3	0	n/a	n/a	n/a	n/a	n/a
3615.338	n/a	RECOG_TARGET	1807669	n/a	LTP266	ltpFR	1	1	0	MEAT	883	5	0	n/a	n/a	n/a	n/a	n/a
3617.078	n/a	RECOG_RESP	1808539	n/a	LTP266	ltpFR	1	1	0	MEAT	883	n/a	0	n/a	n/a	n/a	n/a	n/a
3618.278	n/a	RECOG_CONF	1809139	n/a	LTP266	ltpFR	1	1	0	MEAT	883	5	0	n/a	n/a	n/a	n/a	n/a
3620.222	n/a	RECOG_TARGET	1810111	n/a	LTP266	ltpFR	1	1	1	ACTRESS	6	5	1	n/a	n/a	n/a	n/a	n/a
3621.174	n/a	RECOG_RESP	1810587	n/a	LTP266	ltpFR	1	1	1	ACTRESS	6	n/a	1	n/a	n/a	n/a	n/a	n/a
3622.398	n/a	RECOG_CONF	1811199	n/a	LTP266	ltpFR	1	1	1	ACTRESS	6	5	1	n/a	n/a	n/a	n/a	n/a
3624.272	n/a	RECOG_TARGET	1812136	n/a	LTP266	ltpFR	1	1	0	SUPPER	1411	5	1	n/a	n/a	n/a	n/a	n/a
3625.118	n/a	RECOG_RESP	1812559	n/a	LTP266	ltpFR	1	1	0	SUPPER	1411	n/a	1	n/a	n/a	n/a	n/a	n/a
3626.338	n/a	RECOG_CONF	1813169	n/a	LTP266	ltpFR	1	1	0	SUPPER	1411	5	1	n/a	n/a	n/a	n/a	n/a
3628.122	n/a	RECOG_TARGET	1814061	n/a	LTP266	ltpFR	1	1	0	CLIMBER	323	5	1	n/a	n/a	n/a	n/a	n/a
3629.084	n/a	RECOG_RESP	1814542	n/a	LTP266	ltpFR	1	1	0	CLIMBER	323	n/a	1	n/a	n/a	n/a	n/a	n/a
3630.368	n/a	RECOG_CONF	1815184	n/a	LTP266	ltpFR	1	1	0	CLIMBER	323	5	1	n/a	n/a	n/a	n/a	n/a
3632.306	n/a	RECOG_TARGET	1816153	n/a	LTP266	ltpFR	1	1	1	ROOSTER	1209	3	1	n/a	n/a	n/a	n/a	n/a
3634.378	n/a	RECOG_RESP	1817189	n/a	LTP266	ltpFR	1	1	1	ROOSTER	1209	n/a	1	n/a	n/a	n/a	n/a	n/a
3635.818	n/a	RECOG_CONF	1817909	n/a	LTP266	ltpFR	1	1	1	ROOSTER	1209	3	1	n/a	n/a	n/a	n/a	n/a
3637.69	n/a	RECOG_TARGET	1818845	n/a	LTP266	ltpFR	1	1	1	LIZARD	834	5	1	n/a	n/a	n/a	n/a	n/a
3638.518	n/a	RECOG_RESP	1819259	n/a	LTP266	ltpFR	1	1	1	LIZARD	834	n/a	1	n/a	n/a	n/a	n/a	n/a
3639.598	n/a	RECOG_CONF	1819799	n/a	LTP266	ltpFR	1	1	1	LIZARD	834	5	1	n/a	n/a	n/a	n/a	n/a
3641.274	n/a	RECOG_LURE	1820637	n/a	LTP266	ltpFR	1	1	n/a	DIAGRAM	456	2	n/a	n/a	n/a	n/a	n/a	n/a
3642.944	n/a	RECOG_RESP	1821472	n/a	LTP266	ltpFR	1	1	n/a	DIAGRAM	456	n/a	n/a	n/a	n/a	n/a	n/a	n/a
3644.38	n/a	RECOG_CONF	1822190	n/a	LTP266	ltpFR	1	1	n/a	DIAGRAM	456	2	n/a	n/a	n/a	n/a	n/a	n/a
3646.074	n/a	RECOG_LURE	1823037	n/a	LTP266	ltpFR	1	1	n/a	ACTOR	5	5	n/a	n/a	n/a	n/a	n/a	n/a
3647.024	n/a	RECOG_RESP	1823512	n/a	LTP266	ltpFR	1	1	n/a	ACTOR	5	n/a	n/a	n/a	n/a	n/a	n/a	n/a
3648.21	n/a	RECOG_CONF	1824105	n/a	LTP266	ltpFR	1	1	n/a	ACTOR	5	5	n/a	n/a	n/a	n/a	n/a	n/a
3649.922	n/a	RECOG_TARGET	1824961	n/a	LTP266	ltpFR	1	1	1	TRUMPET	1513	5	0	n/a	n/a	n/a	n/a	n/a
3651.05	n/a	RECOG_RESP	1825525	n/a	LTP266	ltpFR	1	1	1	TRUMPET	1513	n/a	0	n/a	n/a	n/a	n/a	n/a
3652.57	n/a	RECOG_CONF	1826285	n/a	LTP266	ltpFR	1	1	1	TRUMPET	1513	5	0	n/a	n/a	n/a	n/a	n/a
3654.322	n/a	RECOG_TARGET	1827161	n/a	LTP266	ltpFR	1	1	-1	NAVIGATOR	938	5	-1	n/a	n/a	n/a	n/a	n/a
3655.25	n/a	RECOG_RESP	1827625	n/a	LTP266	ltpFR	1	1	-1	NAVIGATOR	938	n/a	-1	n/a	n/a	n/a	n/a	n/a
3656.57	n/a	RECOG_CONF	1828285	n/a	LTP266	ltpFR	1	1	-1	NAVIGATOR	938	5	-1	n/a	n/a	n/a	n/a	n/a
3658.422	n/a	RECOG_LURE	1829211	n/a	LTP266	ltpFR	1	1	n/a	LOOP	844	2	n/a	n/a	n/a	n/a	n/a	n/a
3660.416	n/a	RECOG_RESP	1830208	n/a	LTP266	ltpFR	1	1	n/a	LOOP	844	n/a	n/a	n/a	n/a	n/a	n/a	n/a
3662.03	n/a	RECOG_CONF	1831015	n/a	LTP266	ltpFR	1	1	n/a	LOOP	844	2	n/a	n/a	n/a	n/a	n/a	n/a
3663.744	n/a	RECOG_TARGET	1831872	n/a	LTP266	ltpFR	1	1	-1	SHIP	1286	5	-1	n/a	n/a	n/a	n/a	n/a
3664.68	n/a	RECOG_RESP	1832340	n/a	LTP266	ltpFR	1	1	-1	SHIP	1286	n/a	-1	n/a	n/a	n/a	n/a	n/a
3665.84	n/a	RECOG_CONF	1832920	n/a	LTP266	ltpFR	1	1	-1	SHIP	1286	5	-1	n/a	n/a	n/a	n/a	n/a
3667.59	n/a	RECOG_TARGET	1833795	n/a	LTP266	ltpFR	1	1	-1	BANDANNA	80	5	-1	n/a	n/a	n/a	n/a	n/a
3668.51	n/a	RECOG_RESP	1834255	n/a	LTP266	ltpFR	1	1	-1	BANDANNA	80	n/a	-1	n/a	n/a	n/a	n/a	n/a
3669.65	n/a	RECOG_CONF	1834825	n/a	LTP266	ltpFR	1	1	-1	BANDANNA	80	5	-1	n/a	n/a	n/a	n/a	n/a
3671.504	n/a	RECOG_TARGET	1835752	n/a	LTP266	ltpFR	1	1	1	CLAM	315	5	1	n/a	n/a	n/a	n/a	n/a
3672.366	n/a	RECOG_RESP	1836183	n/a	LTP266	ltpFR	1	1	1	CLAM	315	n/a	1	n/a	n/a	n/a	n/a	n/a
3673.47	n/a	RECOG_CONF	1836735	n/a	LTP266	ltpFR	1	1	1	CLAM	315	5	1	n/a	n/a	n/a	n/a	n/a
3685.022	n/a	REC_START	1842511	n/a	LTP266	ltpFR	1	2	n/a	n/a	n/a	n/a	n/a	n/a	n/a	n/a	n/a	n/a
3685.074	n/a	RECOG_TARGET	1842537	n/a	LTP266	ltpFR	1	2	0	STRAWBERRY	1391	5	0	n/a	n/a	n/a	n/a	n/a
3686.238	n/a	RECOG_RESP	1843119	n/a	LTP266	ltpFR	1	2	0	STRAWBERRY	1391	n/a	0	n/a	n/a	n/a	n/a	n/a
3687.562	n/a	RECOG_CONF	1843781	n/a	LTP266	ltpFR	1	2	0	STRAWBERRY	1391	5	0	n/a	n/a	n/a	n/a	n/a
3689.356	n/a	RECOG_TARGET	1844678	n/a	LTP266	ltpFR	1	2	1	BOULDER	155	5	0	n/a	n/a	n/a	n/a	n/a
3690.158	n/a	RECOG_RESP	1845079	n/a	LTP266	ltpFR	1	2	1	BOULDER	155	n/a	0	n/a	n/a	n/a	n/a	n/a
3691.292	n/a	RECOG_CONF	1845646	n/a	LTP266	ltpFR	1	2	1	BOULDER	155	5	0	n/a	n/a	n/a	n/a	n/a
3693.138	n/a	RECOG_TARGET	1846569	n/a	LTP266	ltpFR	1	2	1	STEM	1376	5	0	n/a	n/a	n/a	n/a	n/a
3694.072	n/a	RECOG_RESP	1847036	n/a	LTP266	ltpFR	1	2	1	STEM	1376	n/a	0	n/a	n/a	n/a	n/a	n/a
3695.542	n/a	RECOG_CONF	1847771	n/a	LTP266	ltpFR	1	2	1	STEM	1376	5	0	n/a	n/a	n/a	n/a	n/a
3697.372	n/a	RECOG_TARGET	1848686	n/a	LTP266	ltpFR	1	2	-1	HAND	683	3	-1	n/a	n/a	n/a	n/a	n/a
3698.868	n/a	RECOG_RESP	1849434	n/a	LTP266	ltpFR	1	2	-1	HAND	683	n/a	-1	n/a	n/a	n/a	n/a	n/a
3700.234	n/a	RECOG_CONF	1850117	n/a	LTP266	ltpFR	1	2	-1	HAND	683	3	-1	n/a	n/a	n/a	n/a	n/a
3702.156	n/a	RECOG_LURE	1851078	n/a	LTP266	ltpFR	1	2	n/a	FUGITIVE	612	4	n/a	n/a	n/a	n/a	n/a	n/a
3703.698	n/a	RECOG_RESP	1851849	n/a	LTP266	ltpFR	1	2	n/a	FUGITIVE	612	n/a	n/a	n/a	n/a	n/a	n/a	n/a
3705.144	n/a	RECOG_CONF	1852572	n/a	LTP266	ltpFR	1	2	n/a	FUGITIVE	612	4	n/a	n/a	n/a	n/a	n/a	n/a
3707.054	n/a	RECOG_TARGET	1853527	n/a	LTP266	ltpFR	1	2	-1	WINE	1613	5	-1	n/a	n/a	n/a	n/a	n/a
3707.948	n/a	RECOG_RESP	1853974	n/a	LTP266	ltpFR	1	2	-1	WINE	1613	n/a	-1	n/a	n/a	n/a	n/a	n/a
3709.124	n/a	RECOG_CONF	1854562	n/a	LTP266	ltpFR	1	2	-1	WINE	1613	5	-1	n/a	n/a	n/a	n/a	n/a
3711.09	n/a	RECOG_TARGET	1855545	n/a	LTP266	ltpFR	1	2	-1	STEAM	1375	4	-1	n/a	n/a	n/a	n/a	n/a
3712.204	n/a	RECOG_RESP	1856102	n/a	LTP266	ltpFR	1	2	-1	STEAM	1375	n/a	-1	n/a	n/a	n/a	n/a	n/a
3713.684	n/a	RECOG_CONF	1856842	n/a	LTP266	ltpFR	1	2	-1	STEAM	1375	4	-1	n/a	n/a	n/a	n/a	n/a
3715.506	n/a	RECOG_TARGET	1857753	n/a	LTP266	ltpFR	1	2	0	APPLE	33	5	0	n/a	n/a	n/a	n/a	n/a
3716.334	n/a	RECOG_RESP	1858167	n/a	LTP266	ltpFR	1	2	0	APPLE	33	n/a	0	n/a	n/a	n/a	n/a	n/a
3717.654	n/a	RECOG_CONF	1858827	n/a	LTP266	ltpFR	1	2	0	APPLE	33	5	0	n/a	n/a	n/a	n/a	n/a
3719.538	n/a	RECOG_LURE	1859769	n/a	LTP266	ltpFR	1	2	n/a	CUE	422	2	n/a	n/a	n/a	n/a	n/a	n/a
3721.19	n/a	RECOG_RESP	1860595	n/a	LTP266	ltpFR	1	2	n/a	CUE	422	n/a	n/a	n/a	n/a	n/a	n/a	n/a
3722.414	n/a	RECOG_CONF	1861207	n/a	LTP266	ltpFR	1	2	n/a	CUE	422	2	n/a	n/a	n/a	n/a	n/a	n/a
3724.29	n/a	RECOG_TARGET	1862145	n/a	LTP266	ltpFR	1	2	-1	FIST	572	4	-1	n/a	n/a	n/a	n/a	n/a
3725.36	n/a	RECOG_RESP	1862680	n/a	LTP266	ltpFR	1	2	-1	FIST	572	n/a	-1	n/a	n/a	n/a	n/a	n/a
3726.454	n/a	RECOG_CONF	1863227	n/a	LTP266	ltpFR	1	2	-1	FIST	572	4	-1	n/a	n/a	n/a	n/a	n/a
3728.472	n/a	RECOG_TARGET	1864236	n/a	LTP266	ltpFR	1	2	0	BANQUET	86	5	1	n/a	n/a	n/a	n/a	n/a
3729.24	n/a	RECOG_RESP	1864620	n/a	LTP266	ltpFR	1	2	0	BANQUET	86	n/a	1	n/a	n/a	n/a	n/a	n/a
3730.364	n/a	RECOG_CONF	1865182	n/a	LTP266	ltpFR	1	2	0	BANQUET	86	5	1	n/a	n/a	n/a	n/a	n/a
3732.354	n/a	RECOG_TARGET	1866177	n/a	LTP266	ltpFR	1	2	0	CACTUS	215	5	1	n/a	n/a	n/a	n/a	n/a
3733.15	n/a	RECOG_RESP	1866575	n/a	LTP266	ltpFR	1	2	0	CACTUS	215	n/a	1	n/a	n/a	n/a	n/a	n/a
3734.324	n/a	RECOG_CONF	1867162	n/a	LTP266	ltpFR	1	2	0	CACTUS	215	5	1	n/a	n/a	n/a	n/a	n/a
3736.102	n/a	RECOG_TARGET	1868051	n/a	LTP266	ltpFR	1	2	1	QUAIL	1147	5	1	n/a	n/a	n/a	n/a	n/a
3736.906	n/a	RECOG_RESP	1868453	n/a	LTP266	ltpFR	1	2	1	QUAIL	1147	n/a	1	n/a	n/a	n/a	n/a	n/a
3738.146	n/a	RECOG_CONF	1869073	n/a	LTP266	ltpFR	1	2	1	QUAIL	1147	5	1	n/a	n/a	n/a	n/a	n/a
3739.914	n/a	RECOG_TARGET	1869957	n/a	LTP266	ltpFR	1	2	0	SPIDER	1351	3	1	n/a	n/a	n/a	n/a	n/a
3741.096	n/a	RECOG_RESP	1870548	n/a	LTP266	ltpFR	1	2	0	SPIDER	1351	n/a	1	n/a	n/a	n/a	n/a	n/a
3742.676	n/a	RECOG_CONF	1871338	n/a	LTP266	ltpFR	1	2	0	SPIDER	1351	3	1	n/a	n/a	n/a	n/a	n/a
3744.5	n/a	RECOG_TARGET	1872250	n/a	LTP266	ltpFR	1	2	1	HEEL	700	3	1	n/a	n/a	n/a	n/a	n/a
3745.82	n/a	RECOG_RESP	1872910	n/a	LTP266	ltpFR	1	2	1	HEEL	700	n/a	1	n/a	n/a	n/a	n/a	n/a
3746.936	n/a	RECOG_CONF	1873468	n/a	LTP266	ltpFR	1	2	1	HEEL	700	3	1	n/a	n/a	n/a	n/a	n/a
3748.864	n/a	RECOG_TARGET	1874432	n/a	LTP266	ltpFR	1	2	0	SIRLOIN	1311	3	0	n/a	n/a	n/a	n/a	n/a
3750.056	n/a	RECOG_RESP	1875028	n/a	LTP266	ltpFR	1	2	0	SIRLOIN	1311	n/a	0	n/a	n/a	n/a	n/a	n/a
3751.666	n/a	RECOG_CONF	1875833	n/a	LTP266	ltpFR	1	2	0	SIRLOIN	1311	3	0	n/a	n/a	n/a	n/a	n/a
3753.67	n/a	RECOG_TARGET	1876835	n/a	LTP266	ltpFR	1	2	-1	DRINK	498	3	-1	n/a	n/a	n/a	n/a	n/a
3755.772	n/a	RECOG_RESP	1877886	n/a	LTP266	ltpFR	1	2	-1	DRINK	498	n/a	-1	n/a	n/a	n/a	n/a	n/a
3757.046	n/a	RECOG_CONF	1878523	n/a	LTP266	ltpFR	1	2	-1	DRINK	498	3	-1	n/a	n/a	n/a	n/a	n/a
3758.906	n/a	RECOG_TARGET	1879453	n/a	LTP266	ltpFR	1	2	1	EXPLOSION	544	2	0	n/a	n/a	n/a	n/a	n/a
3760.576	n/a	RECOG_RESP	1880288	n/a	LTP266	ltpFR	1	2	1	EXPLOSION	544	n/a	0	n/a	n/a	n/a	n/a	n/a
3762.076	n/a	RECOG_CONF	1881038	n/a	LTP266	ltpFR	1	2	1	EXPLOSION	544	2	0	n/a	n/a	n/a	n/a	n/a
3763.924	n/a	RECOG_TARGET	1881962	n/a	LTP266	ltpFR	1	2	1	VENUS	1557	5	1	n/a	n/a	n/a	n/a	n/a
3764.842	n/a	RECOG_RESP	1882421	n/a	LTP266	ltpFR	1	2	1	VENUS	1557	n/a	1	n/a	n/a	n/a	n/a	n/a
3765.856	n/a	RECOG_CONF	1882928	n/a	LTP266	ltpFR	1	2	1	VENUS	1557	5	1	n/a	n/a	n/a	n/a	n/a
3767.572	n/a	RECOG_TARGET	1883786	n/a	LTP266	ltpFR	1	2	0	FRIEND	606	5	1	n/a	n/a	n/a	n/a	n/a
3768.666	n/a	RECOG_RESP	1884333	n/a	LTP266	ltpFR	1	2	0	FRIEND	606	n/a	1	n/a	n/a	n/a	n/a	n/a
3769.666	n/a	RECOG_CONF	1884833	n/a	LTP266	ltpFR	1	2	0	FRIEND	606	5	1	n/a	n/a	n/a	n/a	n/a
3781.836	n/a	REC_START	1890918	n/a	LTP266	ltpFR	1	3	n/a	n/a	n/a	n/a	n/a	n/a	n/a	n/a	n/a	n/a
3781.876	n/a	RECOG_TARGET	1890938	n/a	LTP266	ltpFR	1	3	-1	SHOE	1288	2	-1	n/a	n/a	n/a	n/a	n/a
3783.596	n/a	RECOG_RESP	1891798	n/a	LTP266	ltpFR	1	3	-1	SHOE	1288	n/a	-1	n/a	n/a	n/a	n/a	n/a
3784.676	n/a	RECOG_CONF	1892338	n/a	LTP266	ltpFR	1	3	-1	SHOE	1288	2	-1	n/a	n/a	n/a	n/a	n/a
3786.612	n/a	RECOG_LURE	1893306	n/a	LTP266	ltpFR	1	3	n/a	CHAIN	273	1	n/a	n/a	n/a	n/a	n/a	n/a
3788.096	n/a	RECOG_RESP	1894048	n/a	LTP266	ltpFR	1	3	n/a	CHAIN	273	n/a	n/a	n/a	n/a	n/a	n/a	n/a
3789.802	n/a	RECOG_CONF	1894901	n/a	LTP266	ltpFR	1	3	n/a	CHAIN	273	1	n/a	n/a	n/a	n/a	n/a	n/a
3791.614	n/a	RECOG_TARGET	1895807	n/a	LTP266	ltpFR	1	3	1	CORK	380	5	1	n/a	n/a	n/a	n/a	n/a
3793.092	n/a	RECOG_RESP	1896546	n/a	LTP266	ltpFR	1	3	1	CORK	380	n/a	1	n/a	n/a	n/a	n/a	n/a
3794.326	n/a	RECOG_CONF	1897163	n/a	LTP266	ltpFR	1	3	1	CORK	380	5	1	n/a	n/a	n/a	n/a	n/a
3796.248	n/a	RECOG_TARGET	1898124	n/a	LTP266	ltpFR	1	3	0	GUARD	667	4	1	n/a	n/a	n/a	n/a	n/a
3797.412	n/a	RECOG_RESP	1898706	n/a	LTP266	ltpFR	1	3	0	GUARD	667	n/a	1	n/a	n/a	n/a	n/a	n/a
3799.166	n/a	RECOG_CONF	1899583	n/a	LTP266	ltpFR	1	3	0	GUARD	667	4	1	n/a	n/a	n/a	n/a	n/a
3801.066	n/a	RECOG_TARGET	1900533	n/a	LTP266	ltpFR	1	3	0	TUB	1514	5	1	n/a	n/a	n/a	n/a	n/a
3802.146	n/a	RECOG_RESP	1901073	n/a	LTP266	ltpFR	1	3	0	TUB	1514	n/a	1	n/a	n/a	n/a	n/a	n/a
3803.386	n/a	RECOG_CONF	1901693	n/a	LTP266	ltpFR	1	3	0	TUB	1514	5	1	n/a	n/a	n/a	n/a	n/a
3805.35	n/a	RECOG_TARGET	1902675	n/a	LTP266	ltpFR	1	3	1	MAILMAN	858	4	1	n/a	n/a	n/a	n/a	n/a
3806.382	n/a	RECOG_RESP	1903191	n/a	LTP266	ltpFR	1	3	1	MAILMAN	858	n/a	1	n/a	n/a	n/a	n/a	n/a
3807.516	n/a	RECOG_CONF	1903758	n/a	LTP266	ltpFR	1	3	1	MAILMAN	858	4	1	n/a	n/a	n/a	n/a	n/a
3809.378	n/a	RECOG_TARGET	1904689	n/a	LTP266	ltpFR	1	3	1	ANKLE	24	5	1	n/a	n/a	n/a	n/a	n/a
3810.352	n/a	RECOG_RESP	1905176	n/a	LTP266	ltpFR	1	3	1	ANKLE	24	n/a	1	n/a	n/a	n/a	n/a	n/a
3811.286	n/a	RECOG_CONF	1905643	n/a	LTP266	ltpFR	1	3	1	ANKLE	24	5	1	n/a	n/a	n/a	n/a	n/a
3812.962	n/a	RECOG_LURE	1906481	n/a	LTP266	ltpFR	1	3	n/a	WRENCH	1625	4	n/a	n/a	n/a	n/a	n/a	n/a
3814.128	n/a	RECOG_RESP	1907064	n/a	LTP266	ltpFR	1	3	n/a	WRENCH	1625	n/a	n/a	n/a	n/a	n/a	n/a	n/a
3815.488	n/a	RECOG_CONF	1907744	n/a	LTP266	ltpFR	1	3	n/a	WRENCH	1625	4	n/a	n/a	n/a	n/a	n/a	n/a
3817.376	n/a	RECOG_TARGET	1908688	n/a	LTP266	ltpFR	1	3	-1	CLERK	321	3	-1	n/a	n/a	n/a	n/a	n/a
3818.792	n/a	RECOG_RESP	1909396	n/a	LTP266	ltpFR	1	3	-1	CLERK	321	n/a	-1	n/a	n/a	n/a	n/a	n/a
3819.928	n/a	RECOG_CONF	1909964	n/a	LTP266	ltpFR	1	3	-1	CLERK	321	3	-1	n/a	n/a	n/a	n/a	n/a
3821.862	n/a	RECOG_TARGET	1910931	n/a	LTP266	ltpFR	1	3	1	CHAMPION	279	5	1	n/a	n/a	n/a	n/a	n/a
3822.818	n/a	RECOG_RESP	1911409	n/a	LTP266	ltpFR	1	3	1	CHAMPION	279	n/a	1	n/a	n/a	n/a	n/a	n/a
3823.848	n/a	RECOG_CONF	1911924	n/a	LTP266	ltpFR	1	3	1	CHAMPION	279	5	1	n/a	n/a	n/a	n/a	n/a
3825.678	n/a	RECOG_TARGET	1912839	n/a	LTP266	ltpFR	1	3	0	POET	1095	5	1	n/a	n/a	n/a	n/a	n/a
3826.472	n/a	RECOG_RESP	1913236	n/a	LTP266	ltpFR	1	3	0	POET	1095	n/a	1	n/a	n/a	n/a	n/a	n/a
3827.508	n/a	RECOG_CONF	1913754	n/a	LTP266	ltpFR	1	3	0	POET	1095	5	1	n/a	n/a	n/a	n/a	n/a
3829.342	n/a	RECOG_TARGET	1914671	n/a	LTP266	ltpFR	1	3	1	TUNA	1518	5	1	n/a	n/a	n/a	n/a	n/a
3830.058	n/a	RECOG_RESP	1915029	n/a	LTP266	ltpFR	1	3	1	TUNA	1518	n/a	1	n/a	n/a	n/a	n/a	n/a
3830.918	n/a	RECOG_CONF	1915459	n/a	LTP266	ltpFR	1	3	1	TUNA	1518	5	1	n/a	n/a	n/a	n/a	n/a
3832.438	n/a	RECOG_TARGET	1916219	n/a	LTP266	ltpFR	1	3	0	KNAPSACK	783	5	1	n/a	n/a	n/a	n/a	n/a
3833.288	n/a	RECOG_RESP	1916644	n/a	LTP266	ltpFR	1	3	0	KNAPSACK	783	n/a	1	n/a	n/a	n/a	n/a	n/a
3834.318	n/a	RECOG_CONF	1917159	n/a	LTP266	ltpFR	1	3	0	KNAPSACK	783	5	1	n/a	n/a	n/a	n/a	n/a
3836.034	n/a	RECOG_TARGET	1918017	n/a	LTP266	ltpFR	1	3	1	DIME	466	3	0	n/a	n/a	n/a	n/a	n/a
3837.194	n/a	RECOG_RESP	1918597	n/a	LTP266	ltpFR	1	3	1	DIME	466	n/a	0	n/a	n/a	n/a	n/a	n/a
3838.218	n/a	RECOG_CONF	1919109	n/a	LTP266	ltpFR	1	3	1	DIME	466	3	0	n/a	n/a	n/a	n/a	n/a
3840.164	n/a	RECOG_TARGET	1920082	n/a	LTP266	ltpFR	1	3	1	PIANO	1057	5	0	n/a	n/a	n/a	n/a	n/a
3840.934	n/a	RECOG_RESP	1920467	n/a	LTP266	ltpFR	1	3	1	PIANO	1057	n/a	0	n/a	n/a	n/a	n/a	n/a
3841.958	n/a	RECOG_CONF	1920979	n/a	LTP266	ltpFR	1	3	1	PIANO	1057	5	0	n/a	n/a	n/a	n/a	n/a
3843.798	n/a	RECOG_TARGET	1921899	n/a	LTP266	ltpFR	1	3	0	SCROLL	1257	5	1	n/a	n/a	n/a	n/a	n/a
3844.508	n/a	RECOG_RESP	1922254	n/a	LTP266	ltpFR	1	3	0	SCROLL	1257	n/a	1	n/a	n/a	n/a	n/a	n/a
3845.528	n/a	RECOG_CONF	1922764	n/a	LTP266	ltpFR	1	3	0	SCROLL	1257	5	1	n/a	n/a	n/a	n/a	n/a
3847.46	n/a	RECOG_TARGET	1923730	n/a	LTP266	ltpFR	1	3	-1	TUXEDO	1525	5	-1	n/a	n/a	n/a	n/a	n/a
3848.164	n/a	RECOG_RESP	1924082	n/a	LTP266	ltpFR	1	3	-1	TUXEDO	1525	n/a	-1	n/a	n/a	n/a	n/a	n/a
3849.158	n/a	RECOG_CONF	1924579	n/a	LTP266	ltpFR	1	3	-1	TUXEDO	1525	5	-1	n/a	n/a	n/a	n/a	n/a
3850.89	n/a	RECOG_TARGET	1925445	n/a	LTP266	ltpFR	1	3	1	KNOT	788	5	0	n/a	n/a	n/a	n/a	n/a
3851.55	n/a	RECOG_RESP	1925775	n/a	LTP266	ltpFR	1	3	1	KNOT	788	n/a	0	n/a	n/a	n/a	n/a	n/a
3852.59	n/a	RECOG_CONF	1926295	n/a	LTP266	ltpFR	1	3	1	KNOT	788	5	0	n/a	n/a	n/a	n/a	n/a
3854.518	n/a	RECOG_TARGET	1927259	n/a	LTP266	ltpFR	1	3	0	CREATURE	403	3	0	n/a	n/a	n/a	n/a	n/a
3855.78	n/a	RECOG_RESP	1927890	n/a	LTP266	ltpFR	1	3	0	CREATURE	403	n/a	0	n/a	n/a	n/a	n/a	n/a
3857.11	n/a	RECOG_CONF	1928555	n/a	LTP266	ltpFR	1	3	0	CREATURE	403	3	0	n/a	n/a	n/a	n/a	n/a
3858.968	n/a	RECOG_TARGET	1929484	n/a	LTP266	ltpFR	1	3	-1	MACARONI	851	5	-1	n/a	n/a	n/a	n/a	n/a
3859.81	n/a	RECOG_RESP	1929905	n/a	LTP266	ltpFR	1	3	-1	MACARONI	851	n/a	-1	n/a	n/a	n/a	n/a	n/a
3861.01	n/a	RECOG_CONF	1930505	n/a	LTP266	ltpFR	1	3	-1	MACARONI	851	5	-1	n/a	n/a	n/a	n/a	n/a
3879.538	n/a	REC_START	1939769	n/a	LTP266	ltpFR	1	4	n/a	n/a	n/a	n/a	n/a	n/a	n/a	n/a	n/a	n/a
3879.598	n/a	RECOG_TARGET	1939799	n/a	LTP266	ltpFR	1	4	0	LION	827	5	1	n/a	n/a	n/a	n/a	n/a
3880.684	n/a	RECOG_RESP	1940342	n/a	LTP266	ltpFR	1	4	0	LION	827	n/a	1	n/a	n/a	n/a	n/a	n/a
3881.768	n/a	RECOG_CONF	1940884	n/a	LTP266	ltpFR	1	4	0	LION	827	5	1	n/a	n/a	n/a	n/a	n/a
3883.598	n/a	RECOG_TARGET	1941799	n/a	LTP266	ltpFR	1	4	1	PARROT	1015	5	1	n/a	n/a	n/a	n/a	n/a
3884.368	n/a	RECOG_RESP	1942184	n/a	LTP266	ltpFR	1	4	1	PARROT	1015	n/a	1	n/a	n/a	n/a	n/a	n/a
3885.478	n/a	RECOG_CONF	1942739	n/a	LTP266	ltpFR	1	4	1	PARROT	1015	5	1	n/a	n/a	n/a	n/a	n/a
3887.412	n/a	RECOG_LURE	1943706	n/a	LTP266	ltpFR	1	4	n/a	WINNER	1615	2	n/a	n/a	n/a	n/a	n/a	n/a
3888.61	n/a	RECOG_RESP	1944305	n/a	LTP266	ltpFR	1	4	n/a	WINNER	1615	n/a	n/a	n/a	n/a	n/a	n/a	n/a
3890.38	n/a	RECOG_CONF	1945190	n/a	LTP266	ltpFR	1	4	n/a	WINNER	1615	2	n/a	n/a	n/a	n/a	n/a	n/a
3892.3	n/a	RECOG_TARGET	1946150	n/a	LTP266	ltpFR	1	4	-1	DISC	473	5	-1	n/a	n/a	n/a	n/a	n/a
3893.81	n/a	RECOG_RESP	1946905	n/a	LTP266	ltpFR	1	4	-1	DISC	473	n/a	-1	n/a	n/a	n/a	n/a	n/a
3895.08	n/a	RECOG_CONF	1947540	n/a	LTP266	ltpFR	1	4	-1	DISC	473	5	-1	n/a	n/a	n/a	n/a	n/a
3897.0	n/a	RECOG_TARGET	1948500	n/a	LTP266	ltpFR	1	4	1	WALRUS	1585	5	1	n/a	n/a	n/a	n/a	n/a
3898.024	n/a	RECOG_RESP	1949012	n/a	LTP266	ltpFR	1	4	1	WALRUS	1585	n/a	1	n/a	n/a	n/a	n/a	n/a
3899.17	n/a	RECOG_CONF	1949585	n/a	LTP266	ltpFR	1	4	1	WALRUS	1585	5	1	n/a	n/a	n/a	n/a	n/a
3901.082	n/a	RECOG_TARGET	1950541	n/a	LTP266	ltpFR	1	4	0	TAXI	1438	4	1	n/a	n/a	n/a	n/a	n/a
3902.22	n/a	RECOG_RESP	1951110	n/a	LTP266	ltpFR	1	4	0	TAXI	1438	n/a	1	n/a	n/a	n/a	n/a	n/a
3903.41	n/a	RECOG_CONF	1951705	n/a	LTP266	ltpFR	1	4	0	TAXI	1438	4	1	n/a	n/a	n/a	n/a	n/a
3905.382	n/a	RECOG_TARGET	1952691	n/a	LTP266	ltpFR	1	4	0	SCOUT	1252	3	0	n/a	n/a	n/a	n/a	n/a
3906.374	n/a	RECOG_RESP	1953187	n/a	LTP266	ltpFR	1	4	0	SCOUT	1252	n/a	0	n/a	n/a	n/a	n/a	n/a
3907.73	n/a	RECOG_CONF	1953865	n/a	LTP266	ltpFR	1	4	0	SCOUT	1252	3	0	n/a	n/a	n/a	n/a	n/a
3909.532	n/a	RECOG_LURE	1954766	n/a	LTP266	ltpFR	1	4	n/a	TERMINAL	1450	3	n/a	n/a	n/a	n/a	n/a	n/a
3910.896	n/a	RECOG_RESP	1955448	n/a	LTP266	ltpFR	1	4	n/a	TERMINAL	1450	n/a	n/a	n/a	n/a	n/a	n/a	n/a
3912.07	n/a	RECOG_CONF	1956035	n/a	LTP266	ltpFR	1	4	n/a	TERMINAL	1450	3	n/a	n/a	n/a	n/a	n/a	n/a
3914.032	n/a	RECOG_LURE	1957016	n/a	LTP266	ltpFR	1	4	n/a	PROFESSOR	1131	2	n/a	n/a	n/a	n/a	n/a	n/a
3915.99	n/a	RECOG_RESP	1957995	n/a	LTP266	ltpFR	1	4	n/a	PROFESSOR	1131	n/a	n/a	n/a	n/a	n/a	n/a	n/a
3917.21	n/a	RECOG_CONF	1958605	n/a	LTP266	ltpFR	1	4	n/a	PROFESSOR	1131	2	n/a	n/a	n/a	n/a	n/a	n/a
3919.05	n/a	RECOG_TARGET	1959525	n/a	LTP266	ltpFR	1	4	1	BANKER	84	5	1	n/a	n/a	n/a	n/a	n/a
3919.966	n/a	RECOG_RESP	1959983	n/a	LTP266	ltpFR	1	4	1	BANKER	84	n/a	1	n/a	n/a	n/a	n/a	n/a
3921.21	n/a	RECOG_CONF	1960605	n/a	LTP266	ltpFR	1	4	1	BANKER	84	5	1	n/a	n/a	n/a	n/a	n/a
3923.082	n/a	RECOG_TARGET	1961541	n/a	LTP266	ltpFR	1	4	1	SURF	1412	4	0	n/a	n/a	n/a	n/a	n/a
3923.866	n/a	RECOG_RESP	1961933	n/a	LTP266	ltpFR	1	4	1	SURF	1412	n/a	0	n/a	n/a	n/a	n/a	n/a
3925.892	n/a	RECOG_CONF	1962946	n/a	LTP266	ltpFR	1	4	1	SURF	1412	4	0	n/a	n/a	n/a	n/a	n/a
3927.618	n/a	RECOG_LURE	1963809	n/a	LTP266	ltpFR	1	4	n/a	RADIATOR	1156	3	n/a	n/a	n/a	n/a	n/a	n/a
3928.782	n/a	RECOG_RESP	1964391	n/a	LTP266	ltpFR	1	4	n/a	RADIATOR	1156	n/a	n/a	n/a	n/a	n/a	n/a	n/a
3930.322	n/a	RECOG_CONF	1965161	n/a	LTP266	ltpFR	1	4	n/a	RADIATOR	1156	3	n/a	n/a	n/a	n/a	n/a	n/a
3932.234	n/a	RECOG_TARGET	1966117	n/a	LTP266	ltpFR	1	4	1	CATHEDRAL	260	5	0	n/a	n/a	n/a	n/a	n/a
3933.196	n/a	RECOG_RESP	1966598	n/a	LTP266	ltpFR	1	4	1	CATHEDRAL	260	n/a	0	n/a	n/a	n/a	n/a	n/a
3934.242	n/a	RECOG_CONF	1967121	n/a	LTP266	ltpFR	1	4	1	CATHEDRAL	260	5	0	n/a	n/a	n/a	n/a	n/a
3936.066	n/a	RECOG_TARGET	1968033	n/a	LTP266	ltpFR	1	4	1	BUTTER	205	2	0	n/a	n/a	n/a	n/a	n/a
3937.442	n/a	RECOG_RESP	1968721	n/a	LTP266	ltpFR	1	4	1	BUTTER	205	n/a	0	n/a	n/a	n/a	n/a	n/a
3938.942	n/a	RECOG_CONF	1969471	n/a	LTP266	ltpFR	1	4	1	BUTTER	205	2	0	n/a	n/a	n/a	n/a	n/a
3940.9	n/a	RECOG_TARGET	1970450	n/a	LTP266	ltpFR	1	4	0	WHISKERS	1605	5	1	n/a	n/a	n/a	n/a	n/a
3942.312	n/a	RECOG_RESP	1971156	n/a	LTP266	ltpFR	1	4	0	WHISKERS	1605	n/a	1	n/a	n/a	n/a	n/a	n/a
3943.272	n/a	RECOG_CONF	1971636	n/a	LTP266	ltpFR	1	4	0	WHISKERS	1605	5	1	n/a	n/a	n/a	n/a	n/a
3945.132	n/a	RECOG_LURE	1972566	n/a	LTP266	ltpFR	1	4	n/a	LIGHTNING	820	4	n/a	n/a	n/a	n/a	n/a	n/a
3946.232	n/a	RECOG_RESP	1973116	n/a	LTP266	ltpFR	1	4	n/a	LIGHTNING	820	n/a	n/a	n/a	n/a	n/a	n/a	n/a
3947.692	n/a	RECOG_CONF	1973846	n/a	LTP266	ltpFR	1	4	n/a	LIGHTNING	820	4	n/a	n/a	n/a	n/a	n/a	n/a
3949.484	n/a	RECOG_TARGET	1974742	n/a	LTP266	ltpFR	1	4	1	GYMNAST	675	4	1	n/a	n/a	n/a	n/a	n/a
3950.532	n/a	RECOG_RESP	1975266	n/a	LTP266	ltpFR	1	4	1	GYMNAST	675	n/a	1	n/a	n/a	n/a	n/a	n/a
3951.682	n/a	RECOG_CONF	1975841	n/a	LTP266	ltpFR	1	4	1	GYMNAST	675	4	1	n/a	n/a	n/a	n/a	n/a
3953.666	n/a	RECOG_TARGET	1976833	n/a	LTP266	ltpFR	1	4	0	TOOTH	1481	5	0	n/a	n/a	n/a	n/a	n/a
3954.982	n/a	RECOG_RESP	1977491	n/a	LTP266	ltpFR	1	4	0	TOOTH	1481	n/a	0	n/a	n/a	n/a	n/a	n/a
3956.012	n/a	RECOG_CONF	1978006	n/a	LTP266	ltpFR	1	4	0	TOOTH	1481	5	0	n/a	n/a	n/a	n/a	n/a
3957.732	n/a	RECOG_TARGET	1978866	n/a	LTP266	ltpFR	1	4	1	HAM	678	5	0	n/a	n/a	n/a	n/a	n/a
3958.562	n/a	RECOG_RESP	1979281	n/a	LTP266	ltpFR	1	4	1	HAM	678	n/a	0	n/a	n/a	n/a	n/a	n/a
3959.502	n/a	RECOG_CONF	1979751	n/a	LTP266	ltpFR	1	4	1	HAM	678	5	0	n/a	n/a	n/a	n/a	n/a
3961.262	n/a	RECOG_TARGET	1980631	n/a	LTP266	ltpFR	1	4	-1	RABBIT	1152	2	-1	n/a	n/a	n/a	n/a	n/a
3962.938	n/a	RECOG_RESP	1981469	n/a	LTP266	ltpFR	1	4	-1	RABBIT	1152	n/a	-1	n/a	n/a	n/a	n/a	n/a
3964.154	n/a	RECOG_CONF	1982077	n/a	LTP266	ltpFR	1	4	-1	RABBIT	1152	2	-1	n/a	n/a	n/a	n/a	n/a
3973.798	n/a	REC_START	1986899	n/a	LTP266	ltpFR	1	5	n/a	n/a	n/a	n/a	n/a	n/a	n/a	n/a	n/a	n/a
3973.844	n/a	RECOG_TARGET	1986922	n/a	LTP266	ltpFR	1	5	0	PAWN	1030	5	0	n/a	n/a	n/a	n/a	n/a
3975.074	n/a	RECOG_RESP	1987537	n/a	LTP266	ltpFR	1	5	0	PAWN	1030	n/a	0	n/a	n/a	n/a	n/a	n/a
3976.328	n/a	RECOG_CONF	1988164	n/a	LTP266	ltpFR	1	5	0	PAWN	1030	5	0	n/a	n/a	n/a	n/a	n/a
3978.176	n/a	RECOG_TARGET	1989088	n/a	LTP266	ltpFR	1	5	1	BALL	73	5	0	n/a	n/a	n/a	n/a	n/a
3979.574	n/a	RECOG_RESP	1989787	n/a	LTP266	ltpFR	1	5	1	BALL	73	n/a	0	n/a	n/a	n/a	n/a	n/a
3980.688	n/a	RECOG_CONF	1990344	n/a	LTP266	ltpFR	1	5	1	BALL	73	5	0	n/a	n/a	n/a	n/a	n/a
3982.644	n/a	RECOG_TARGET	1991322	n/a	LTP266	ltpFR	1	5	0	THRONE	1461	5	0	n/a	n/a	n/a	n/a	n/a
3983.554	n/a	RECOG_RESP	1991777	n/a	LTP266	ltpFR	1	5	0	THRONE	1461	n/a	0	n/a	n/a	n/a	n/a	n/a
3984.54	n/a	RECOG_CONF	1992270	n/a	LTP266	ltpFR	1	5	0	THRONE	1461	5	0	n/a	n/a	n/a	n/a	n/a
3986.44	n/a	RECOG_LURE	1993220	n/a	LTP266	ltpFR	1	5	n/a	HEAD	695	2	n/a	n/a	n/a	n/a	n/a	n/a
3988.28	n/a	RECOG_RESP	1994140	n/a	LTP266	ltpFR	1	5	n/a	HEAD	695	n/a	n/a	n/a	n/a	n/a	n/a	n/a
3989.48	n/a	RECOG_CONF	1994740	n/a	LTP266	ltpFR	1	5	n/a	HEAD	695	2	n/a	n/a	n/a	n/a	n/a	n/a
3991.328	n/a	RECOG_TARGET	1995664	n/a	LTP266	ltpFR	1	5	0	PLATE	1086	5	0	n/a	n/a	n/a	n/a	n/a
3992.374	n/a	RECOG_RESP	1996187	n/a	LTP266	ltpFR	1	5	0	PLATE	1086	n/a	0	n/a	n/a	n/a	n/a	n/a
3993.39	n/a	RECOG_CONF	1996695	n/a	LTP266	ltpFR	1	5	0	PLATE	1086	5	0	n/a	n/a	n/a	n/a	n/a
3995.176	n/a	RECOG_TARGET	1997588	n/a	LTP266	ltpFR	1	5	0	DOLPHIN	483	4	n/a	n/a	n/a	n/a	n/a	n/a
3996.85	n/a	RECOG_RESP	1998425	n/a	LTP266	ltpFR	1	5	0	DOLPHIN	483	n/a	n/a	n/a	n/a	n/a	n/a	n/a
3998.11	n/a	RECOG_CONF	1999055	n/a	LTP266	ltpFR	1	5	0	DOLPHIN	483	4	n/a	n/a	n/a	n/a	n/a	n/a
3999.976	n/a	RECOG_LURE	1999988	n/a	LTP266	ltpFR	1	5	n/a	LIMB	822	3	n/a	n/a	n/a	n/a	n/a	n/a
4001.624	n/a	RECOG_RESP	2000812	n/a	LTP266	ltpFR	1	5	n/a	LIMB	822	n/a	n/a	n/a	n/a	n/a	n/a	n/a
4002.83	n/a	RECOG_CONF	2001415	n/a	LTP266	ltpFR	1	5	n/a	LIMB	822	3	n/a	n/a	n/a	n/a	n/a	n/a
4004.71	n/a	RECOG_TARGET	2002355	n/a	LTP266	ltpFR	1	5	1	TENT	1449	2	0	n/a	n/a	n/a	n/a	n/a
4006.36	n/a	RECOG_RESP	2003180	n/a	LTP266	ltpFR	1	5	1	TENT	1449	n/a	0	n/a	n/a	n/a	n/a	n/a
4007.76	n/a	RECOG_CONF	2003880	n/a	LTP266	ltpFR	1	5	1	TENT	1449	2	0	n/a	n/a	n/a	n/a	n/a
4009.514	n/a	RECOG_LURE	2004757	n/a	LTP266	ltpFR	1	5	n/a	PHYSICIAN	1056	2	n/a	n/a	n/a	n/a	n/a	n/a
4011.306	n/a	RECOG_RESP	2005653	n/a	LTP266	ltpFR	1	5	n/a	PHYSICIAN	1056	n/a	n/a	n/a	n/a	n/a	n/a	n/a
4012.45	n/a	RECOG_CONF	2006225	n/a	LTP266	ltpFR	1	5	n/a	PHYSICIAN	1056	2	n/a	n/a	n/a	n/a	n/a	n/a
4014.428	n/a	RECOG_LURE	2007214	n/a	LTP266	ltpFR	1	5	n/a	YARD	1630	1	n/a	n/a	n/a	n/a	n/a	n/a
4015.99	n/a	RECOG_RESP	2007995	n/a	LTP266	ltpFR	1	5	n/a	YARD	1630	n/a	n/a	n/a	n/a	n/a	n/a	n/a
4017.378	n/a	RECOG_CONF	2008689	n/a	LTP266	ltpFR	1	5	n/a	YARD	1630	1	n/a	n/a	n/a	n/a	n/a	n/a
4019.116	n/a	RECOG_TARGET	2009558	n/a	LTP266	ltpFR	1	5	0	MUG	930	5	0	n/a	n/a	n/a	n/a	n/a
4019.996	n/a	RECOG_RESP	2009998	n/a	LTP266	ltpFR	1	5	0	MUG	930	n/a	0	n/a	n/a	n/a	n/a	n/a
4021.102	n/a	RECOG_CONF	2010551	n/a	LTP266	ltpFR	1	5	0	MUG	930	5	0	n/a	n/a	n/a	n/a	n/a
4022.948	n/a	RECOG_TARGET	2011474	n/a	LTP266	ltpFR	1	5	0	BRAKE	166	5	0	n/a	n/a	n/a	n/a	n/a
4023.836	n/a	RECOG_RESP	2011918	n/a	LTP266	ltpFR	1	5	0	BRAKE	166	n/a	0	n/a	n/a	n/a	n/a	n/a
4024.892	n/a	RECOG_CONF	2012446	n/a	LTP266	ltpFR	1	5	0	BRAKE	166	5	0	n/a	n/a	n/a	n/a	n/a
4026.596	n/a	RECOG_TARGET	2013298	n/a	LTP266	ltpFR	1	5	1	GLOBE	641	5	0	n/a	n/a	n/a	n/a	n/a
4027.402	n/a	RECOG_RESP	2013701	n/a	LTP266	ltpFR	1	5	1	GLOBE	641	n/a	0	n/a	n/a	n/a	n/a	n/a
4028.582	n/a	RECOG_CONF	2014291	n/a	LTP266	ltpFR	1	5	1	GLOBE	641	5	0	n/a	n/a	n/a	n/a	n/a
4030.644	n/a	RECOG_TARGET	2015322	n/a	LTP266	ltpFR	1	5	1	SINK	1309	3	0	n/a	n/a	n/a	n/a	n/a
4032.202	n/a	RECOG_RESP	2016101	n/a	LTP266	ltpFR	1	5	1	SINK	1309	n/a	0	n/a	n/a	n/a	n/a	n/a
4033.622	n/a	RECOG_CONF	2016811	n/a	LTP266	ltpFR	1	5	1	SINK	1309	3	0	n/a	n/a	n/a	n/a	n/a
4035.462	n/a	RECOG_TARGET	2017731	n/a	LTP266	ltpFR	1	5	0	PORCUPINE	1107	5	1	n/a	n/a	n/a	n/a	n/a
4036.362	n/a	RECOG_RESP	2018181	n/a	LTP266	ltpFR	1	5	0	PORCUPINE	1107	n/a	1	n/a	n/a	n/a	n/a	n/a
4037.462	n/a	RECOG_CONF	2018731	n/a	LTP266	ltpFR	1	5	0	PORCUPINE	1107	5	1	n/a	n/a	n/a	n/a	n/a
4039.46	n/a	RECOG_TARGET	2019730	n/a	LTP266	ltpFR	1	5	-1	VINEGAR	1569	5	-1	n/a	n/a	n/a	n/a	n/a
4040.302	n/a	RECOG_RESP	2020151	n/a	LTP266	ltpFR	1	5	-1	VINEGAR	1569	n/a	-1	n/a	n/a	n/a	n/a	n/a
4041.512	n/a	RECOG_CONF	2020756	n/a	LTP266	ltpFR	1	5	-1	VINEGAR	1569	5	-1	n/a	n/a	n/a	n/a	n/a
4043.46	n/a	RECOG_TARGET	2021730	n/a	LTP266	ltpFR	1	5	0	SWORD	1423	5	0	n/a	n/a	n/a	n/a	n/a
4044.272	n/a	RECOG_RESP	2022136	n/a	LTP266	ltpFR	1	5	0	SWORD	1423	n/a	0	n/a	n/a	n/a	n/a	n/a
4045.322	n/a	RECOG_CONF	2022661	n/a	LTP266	ltpFR	1	5	0	SWORD	1423	5	0	n/a	n/a	n/a	n/a	n/a
4047.124	n/a	RECOG_TARGET	2023562	n/a	LTP266	ltpFR	1	5	1	POPCORN	1104	3	2	n/a	n/a	n/a	n/a	n/a
4048.044	n/a	RECOG_RESP	2024022	n/a	LTP266	ltpFR	1	5	1	POPCORN	1104	n/a	2	n/a	n/a	n/a	n/a	n/a
4049.302	n/a	RECOG_CONF	2024651	n/a	LTP266	ltpFR	1	5	1	POPCORN	1104	3	2	n/a	n/a	n/a	n/a	n/a
4051.17	n/a	RECOG_TARGET	2025585	n/a	LTP266	ltpFR	1	5	0	GATE	625	5	1	n/a	n/a	n/a	n/a	n/a
4051.918	n/a	RECOG_RESP	2025959	n/a	LTP266	ltpFR	1	5	0	GATE	625	n/a	1	n/a	n/a	n/a	n/a	n/a
4052.932	n/a	RECOG_CONF	2026466	n/a	LTP266	ltpFR	1	5	0	GATE	625	5	1	n/a	n/a	n/a	n/a	n/a
4054.602	n/a	RECOG_TARGET	2027301	n/a	LTP266	ltpFR	1	5	0	DRYER	503	4	1	n/a	n/a	n/a	n/a	n/a
4055.778	n/a	RECOG_RESP	2027889	n/a	LTP266	ltpFR	1	5	0	DRYER	503	n/a	1	n/a	n/a	n/a	n/a	n/a
4057.462	n/a	RECOG_CONF	2028731	n/a	LTP266	ltpFR	1	5	0	DRYER	503	4	1	n/a	n/a	n/a	n/a	n/a
4070.244	n/a	REC_START	2035122	n/a	LTP266	ltpFR	1	6	n/a	n/a	n/a	n/a	n/a	n/a	n/a	n/a	n/a	n/a
4070.296	n/a	RECOG_TARGET	2035148	n/a	LTP266	ltpFR	1	6	0	VALVE	1546	1	0	n/a	n/a	n/a	n/a	n/a
4071.384	n/a	RECOG_RESP	2035692	n/a	LTP266	ltpFR	1	6	0	VALVE	1546	n/a	0	n/a	n/a	n/a	n/a	n/a
4072.71	n/a	RECOG_CONF	2036355	n/a	LTP266	ltpFR	1	6	0	VALVE	1546	1	0	n/a	n/a	n/a	n/a	n/a
4074.578	n/a	RECOG_TARGET	2037289	n/a	LTP266	ltpFR	1	6	0	FISH	571	5	0	n/a	n/a	n/a	n/a	n/a
4075.34	n/a	RECOG_RESP	2037670	n/a	LTP266	ltpFR	1	6	0	FISH	571	n/a	0	n/a	n/a	n/a	n/a	n/a
4076.624	n/a	RECOG_CONF	2038312	n/a	LTP266	ltpFR	1	6	0	FISH	571	5	0	n/a	n/a	n/a	n/a	n/a
4078.378	n/a	RECOG_LURE	2039189	n/a	LTP266	ltpFR	1	6	n/a	DAUGHTER	442	2	n/a	n/a	n/a	n/a	n/a	n/a
4079.66	n/a	RECOG_RESP	2039830	n/a	LTP266	ltpFR	1	6	n/a	DAUGHTER	442	n/a	n/a	n/a	n/a	n/a	n/a	n/a
4080.856	n/a	RECOG_CONF	2040428	n/a	LTP266	ltpFR	1	6	n/a	DAUGHTER	442	2	n/a	n/a	n/a	n/a	n/a	n/a
4082.762	n/a	RECOG_LURE	2041381	n/a	LTP266	ltpFR	1	6	n/a	COAL	332	3	n/a	n/a	n/a	n/a	n/a	n/a
4083.906	n/a	RECOG_RESP	2041953	n/a	LTP266	ltpFR	1	6	n/a	COAL	332	n/a	n/a	n/a	n/a	n/a	n/a	n/a
4085.306	n/a	RECOG_CONF	2042653	n/a	LTP266	ltpFR	1	6	n/a	COAL	332	3	n/a	n/a	n/a	n/a	n/a	n/a
4087.074	n/a	RECOG_TARGET	2043537	n/a	LTP266	ltpFR	1	6	0	ENGINE	535	5	1	n/a	n/a	n/a	n/a	n/a
4088.126	n/a	RECOG_RESP	2044063	n/a	LTP266	ltpFR	1	6	0	ENGINE	535	n/a	1	n/a	n/a	n/a	n/a	n/a
4089.256	n/a	RECOG_CONF	2044628	n/a	LTP266	ltpFR	1	6	0	ENGINE	535	5	1	n/a	n/a	n/a	n/a	n/a
4091.058	n/a	RECOG_LURE	2045529	n/a	LTP266	ltpFR	1	6	n/a	DISHWASHER	475	4	n/a	n/a	n/a	n/a	n/a	n/a
4092.046	n/a	RECOG_RESP	2046023	n/a	LTP266	ltpFR	1	6	n/a	DISHWASHER	475	n/a	n/a	n/a	n/a	n/a	n/a	n/a
4093.146	n/a	RECOG_CONF	2046573	n/a	LTP266	ltpFR	1	6	n/a	DISHWASHER	475	4	n/a	n/a	n/a	n/a	n/a	n/a
4095.056	n/a	RECOG_TARGET	2047528	n/a	LTP266	ltpFR	1	6	0	SOAP	1337	2	0	n/a	n/a	n/a	n/a	n/a
4097.472	n/a	RECOG_RESP	2048736	n/a	LTP266	ltpFR	1	6	0	SOAP	1337	n/a	0	n/a	n/a	n/a	n/a	n/a
4098.976	n/a	RECOG_CONF	2049488	n/a	LTP266	ltpFR	1	6	0	SOAP	1337	2	0	n/a	n/a	n/a	n/a	n/a
4100.78	n/a	RECOG_TARGET	2050390	n/a	LTP266	ltpFR	1	6	1	OTTER	986	2	1	n/a	n/a	n/a	n/a	n/a
4101.926	n/a	RECOG_RESP	2050963	n/a	LTP266	ltpFR	1	6	1	OTTER	986	n/a	1	n/a	n/a	n/a	n/a	n/a
4103.496	n/a	RECOG_CONF	2051748	n/a	LTP266	ltpFR	1	6	1	OTTER	986	2	1	n/a	n/a	n/a	n/a	n/a
4105.38	n/a	RECOG_LURE	2052690	n/a	LTP266	ltpFR	1	6	n/a	DIRECTOR	471	2	n/a	n/a	n/a	n/a	n/a	n/a
4106.916	n/a	RECOG_RESP	2053458	n/a	LTP266	ltpFR	1	6	n/a	DIRECTOR	471	n/a	n/a	n/a	n/a	n/a	n/a	n/a
4108.146	n/a	RECOG_CONF	2054073	n/a	LTP266	ltpFR	1	6	n/a	DIRECTOR	471	2	n/a	n/a	n/a	n/a	n/a	n/a
4109.964	n/a	RECOG_TARGET	2054982	n/a	LTP266	ltpFR	1	6	1	BARTENDER	92	5	1	n/a	n/a	n/a	n/a	n/a
4110.832	n/a	RECOG_RESP	2055416	n/a	LTP266	ltpFR	1	6	1	BARTENDER	92	n/a	1	n/a	n/a	n/a	n/a	n/a
4111.866	n/a	RECOG_CONF	2055933	n/a	LTP266	ltpFR	1	6	1	BARTENDER	92	5	1	n/a	n/a	n/a	n/a	n/a
4113.674	n/a	RECOG_TARGET	2056837	n/a	LTP266	ltpFR	1	6	-1	TOURIST	1488	2	-1	n/a	n/a	n/a	n/a	n/a
4115.002	n/a	RECOG_RESP	2057501	n/a	LTP266	ltpFR	1	6	-1	TOURIST	1488	n/a	-1	n/a	n/a	n/a	n/a	n/a
4116.178	n/a	RECOG_CONF	2058089	n/a	LTP266	ltpFR	1	6	-1	TOURIST	1488	2	-1	n/a	n/a	n/a	n/a	n/a
4118.062	n/a	RECOG_TARGET	2059031	n/a	LTP266	ltpFR	1	6	1	BOX	159	3	0	n/a	n/a	n/a	n/a	n/a
4119.402	n/a	RECOG_RESP	2059701	n/a	LTP266	ltpFR	1	6	1	BOX	159	n/a	0	n/a	n/a	n/a	n/a	n/a
4120.778	n/a	RECOG_CONF	2060389	n/a	LTP266	ltpFR	1	6	1	BOX	159	3	0	n/a	n/a	n/a	n/a	n/a
4122.696	n/a	RECOG_TARGET	2061348	n/a	LTP266	ltpFR	1	6	0	CAN	225	5	0	n/a	n/a	n/a	n/a	n/a
4123.408	n/a	RECOG_RESP	2061704	n/a	LTP266	ltpFR	1	6	0	CAN	225	n/a	0	n/a	n/a	n/a	n/a	n/a
4124.378	n/a	RECOG_CONF	2062189	n/a	LTP266	ltpFR	1	6	0	CAN	225	5	0	n/a	n/a	n/a	n/a	n/a
4125.958	n/a	RECOG_TARGET	2062979	n/a	LTP266	ltpFR	1	6	-1	MESSAGE	888	5	-1	n/a	n/a	n/a	n/a	n/a
4127.292	n/a	RECOG_RESP	2063646	n/a	LTP266	ltpFR	1	6	-1	MESSAGE	888	n/a	-1	n/a	n/a	n/a	n/a	n/a
4128.428	n/a	RECOG_CONF	2064214	n/a	LTP266	ltpFR	1	6	-1	MESSAGE	888	5	-1	n/a	n/a	n/a	n/a	n/a
4130.222	n/a	RECOG_TARGET	2065111	n/a	LTP266	ltpFR	1	6	1	OX	994	5	1	n/a	n/a	n/a	n/a	n/a
4131.238	n/a	RECOG_RESP	2065619	n/a	LTP266	ltpFR	1	6	1	OX	994	n/a	1	n/a	n/a	n/a	n/a	n/a
4132.388	n/a	RECOG_CONF	2066194	n/a	LTP266	ltpFR	1	6	1	OX	994	5	1	n/a	n/a	n/a	n/a	n/a
4134.088	n/a	RECOG_LURE	2067044	n/a	LTP266	ltpFR	1	6	n/a	CIGAR	308	3	n/a	n/a	n/a	n/a	n/a	n/a
4135.142	n/a	RECOG_RESP	2067571	n/a	LTP266	ltpFR	1	6	n/a	CIGAR	308	n/a	n/a	n/a	n/a	n/a	n/a	n/a
4136.368	n/a	RECOG_CONF	2068184	n/a	LTP266	ltpFR	1	6	n/a	CIGAR	308	3	n/a	n/a	n/a	n/a	n/a	n/a
4138.152	n/a	RECOG_TARGET	2069076	n/a	LTP266	ltpFR	1	6	0	CHEEK	287	5	0	n/a	n/a	n/a	n/a	n/a
4139.118	n/a	RECOG_RESP	2069559	n/a	LTP266	ltpFR	1	6	0	CHEEK	287	n/a	0	n/a	n/a	n/a	n/a	n/a
4140.668	n/a	RECOG_CONF	2070334	n/a	LTP266	ltpFR	1	6	0	CHEEK	287	5	0	n/a	n/a	n/a	n/a	n/a
4142.27	n/a	RECOG_TARGET	2071135	n/a	LTP266	ltpFR	1	6	-1	SHRIMP	1297	5	-1	n/a	n/a	n/a	n/a	n/a
4143.464	n/a	RECOG_RESP	2071732	n/a	LTP266	ltpFR	1	6	-1	SHRIMP	1297	n/a	-1	n/a	n/a	n/a	n/a	n/a
4145.338	n/a	RECOG_CONF	2072669	n/a	LTP266	ltpFR	1	6	-1	SHRIMP	1297	5	-1	n/a	n/a	n/a	n/a	n/a
4147.122	n/a	RECOG_TARGET	2073561	n/a	LTP266	ltpFR	1	6	0	SILVERWARE	1308	5	0	n/a	n/a	n/a	n/a	n/a
4147.878	n/a	RECOG_RESP	2073939	n/a	LTP266	ltpFR	1	6	0	SILVERWARE	1308	n/a	0	n/a	n/a	n/a	n/a	n/a
4149.168	n/a	RECOG_CONF	2074584	n/a	LTP266	ltpFR	1	6	0	SILVERWARE	1308	5	0	n/a	n/a	n/a	n/a	n/a
4151.05	n/a	RECOG_TARGET	2075525	n/a	LTP266	ltpFR	1	6	1	COMEDIAN	352	5	1	n/a	n/a	n/a	n/a	n/a
4151.764	n/a	RECOG_RESP	2075882	n/a	LTP266	ltpFR	1	6	1	COMEDIAN	352	n/a	1	n/a	n/a	n/a	n/a	n/a
4152.808	n/a	RECOG_CONF	2076404	n/a	LTP266	ltpFR	1	6	1	COMEDIAN	352	5	1	n/a	n/a	n/a	n/a	n/a
4169.148	n/a	REC_START	2084574	n/a	LTP266	ltpFR	1	7	n/a	n/a	n/a	n/a	n/a	n/a	n/a	n/a	n/a	n/a
4169.206	n/a	RECOG_TARGET	2084603	n/a	LTP266	ltpFR	1	7	-1	DOORBELL	487	2	-1	n/a	n/a	n/a	n/a	n/a
4170.494	n/a	RECOG_RESP	2085247	n/a	LTP266	ltpFR	1	7	-1	DOORBELL	487	n/a	-1	n/a	n/a	n/a	n/a	n/a
4172.148	n/a	RECOG_CONF	2086074	n/a	LTP266	ltpFR	1	7	-1	DOORBELL	487	2	-1	n/a	n/a	n/a	n/a	n/a
4173.94	n/a	RECOG_TARGET	2086970	n/a	LTP266	ltpFR	1	7	0	WHISTLE	1606	5	0	n/a	n/a	n/a	n/a	n/a
4175.22	n/a	RECOG_RESP	2087610	n/a	LTP266	ltpFR	1	7	0	WHISTLE	1606	n/a	0	n/a	n/a	n/a	n/a	n/a
4176.4	n/a	RECOG_CONF	2088200	n/a	LTP266	ltpFR	1	7	0	WHISTLE	1606	5	0	n/a	n/a	n/a	n/a	n/a
4178.124	n/a	RECOG_TARGET	2089062	n/a	LTP266	ltpFR	1	7	1	PRIEST	1122	5	1	n/a	n/a	n/a	n/a	n/a
4179.094	n/a	RECOG_RESP	2089547	n/a	LTP266	ltpFR	1	7	1	PRIEST	1122	n/a	1	n/a	n/a	n/a	n/a	n/a
4180.44	n/a	RECOG_CONF	2090220	n/a	LTP266	ltpFR	1	7	1	PRIEST	1122	5	1	n/a	n/a	n/a	n/a	n/a
4182.204	n/a	RECOG_TARGET	2091102	n/a	LTP266	ltpFR	1	7	1	WEED	1599	5	1	n/a	n/a	n/a	n/a	n/a
4183.1	n/a	RECOG_RESP	2091550	n/a	LTP266	ltpFR	1	7	1	WEED	1599	n/a	1	n/a	n/a	n/a	n/a	n/a
4184.25	n/a	RECOG_CONF	2092125	n/a	LTP266	ltpFR	1	7	1	WEED	1599	5	1	n/a	n/a	n/a	n/a	n/a
4186.004	n/a	RECOG_TARGET	2093002	n/a	LTP266	ltpFR	1	7	-1	PHILOSOPHER	1054	2	-1	n/a	n/a	n/a	n/a	n/a
4187.234	n/a	RECOG_RESP	2093617	n/a	LTP266	ltpFR	1	7	-1	PHILOSOPHER	1054	n/a	-1	n/a	n/a	n/a	n/a	n/a
4188.51	n/a	RECOG_CONF	2094255	n/a	LTP266	ltpFR	1	7	-1	PHILOSOPHER	1054	2	-1	n/a	n/a	n/a	n/a	n/a
4190.318	n/a	RECOG_TARGET	2095159	n/a	LTP266	ltpFR	1	7	1	TEAM	1441	5	1	n/a	n/a	n/a	n/a	n/a
4191.18	n/a	RECOG_RESP	2095590	n/a	LTP266	ltpFR	1	7	1	TEAM	1441	n/a	1	n/a	n/a	n/a	n/a	n/a
4192.39	n/a	RECOG_CONF	2096195	n/a	LTP266	ltpFR	1	7	1	TEAM	1441	5	1	n/a	n/a	n/a	n/a	n/a
4194.286	n/a	RECOG_TARGET	2097143	n/a	LTP266	ltpFR	1	7	0	STAPLE	1371	5	0	n/a	n/a	n/a	n/a	n/a
4195.13	n/a	RECOG_RESP	2097565	n/a	LTP266	ltpFR	1	7	0	STAPLE	1371	n/a	0	n/a	n/a	n/a	n/a	n/a
4196.13	n/a	RECOG_CONF	2098065	n/a	LTP266	ltpFR	1	7	0	STAPLE	1371	5	0	n/a	n/a	n/a	n/a	n/a
4197.8	n/a	RECOG_LURE	2098900	n/a	LTP266	ltpFR	1	7	n/a	CASHEW	253	4	n/a	n/a	n/a	n/a	n/a	n/a
4198.98	n/a	RECOG_RESP	2099490	n/a	LTP266	ltpFR	1	7	n/a	CASHEW	253	n/a	n/a	n/a	n/a	n/a	n/a	n/a
4200.24	n/a	RECOG_CONF	2100120	n/a	LTP266	ltpFR	1	7	n/a	CASHEW	253	4	n/a	n/a	n/a	n/a	n/a	n/a
4201.966	n/a	RECOG_TARGET	2100983	n/a	LTP266	ltpFR	1	7	1	GIRL	637	3	1	n/a	n/a	n/a	n/a	n/a
4203.236	n/a	RECOG_RESP	2101618	n/a	LTP266	ltpFR	1	7	1	GIRL	637	n/a	1	n/a	n/a	n/a	n/a	n/a
4204.49	n/a	RECOG_CONF	2102245	n/a	LTP266	ltpFR	1	7	1	GIRL	637	3	1	n/a	n/a	n/a	n/a	n/a
4206.214	n/a	RECOG_TARGET	2103107	n/a	LTP266	ltpFR	1	7	0	STEREO	1378	3	1	n/a	n/a	n/a	n/a	n/a
4208.37	n/a	RECOG_RESP	2104185	n/a	LTP266	ltpFR	1	7	0	STEREO	1378	n/a	1	n/a	n/a	n/a	n/a	n/a
4209.65	n/a	RECOG_CONF	2104825	n/a	LTP266	ltpFR	1	7	0	STEREO	1378	3	1	n/a	n/a	n/a	n/a	n/a
4211.52	n/a	RECOG_TARGET	2105760	n/a	LTP266	ltpFR	1	7	1	VASE	1549	5	0	n/a	n/a	n/a	n/a	n/a
4212.502	n/a	RECOG_RESP	2106251	n/a	LTP266	ltpFR	1	7	1	VASE	1549	n/a	0	n/a	n/a	n/a	n/a	n/a
4213.782	n/a	RECOG_CONF	2106891	n/a	LTP266	ltpFR	1	7	1	VASE	1549	5	0	n/a	n/a	n/a	n/a	n/a
4215.468	n/a	RECOG_TARGET	2107734	n/a	LTP266	ltpFR	1	7	-1	CABIN	211	4	-1	n/a	n/a	n/a	n/a	n/a
4216.622	n/a	RECOG_RESP	2108311	n/a	LTP266	ltpFR	1	7	-1	CABIN	211	n/a	-1	n/a	n/a	n/a	n/a	n/a
4217.802	n/a	RECOG_CONF	2108901	n/a	LTP266	ltpFR	1	7	-1	CABIN	211	4	-1	n/a	n/a	n/a	n/a	n/a
4219.68	n/a	RECOG_TARGET	2109840	n/a	LTP266	ltpFR	1	7	-1	BUBBLE	183	2	-1	n/a	n/a	n/a	n/a	n/a
4221.012	n/a	RECOG_RESP	2110506	n/a	LTP266	ltpFR	1	7	-1	BUBBLE	183	n/a	-1	n/a	n/a	n/a	n/a	n/a
4222.262	n/a	RECOG_CONF	2111131	n/a	LTP266	ltpFR	1	7	-1	BUBBLE	183	2	-1	n/a	n/a	n/a	n/a	n/a
4223.932	n/a	RECOG_LURE	2111966	n/a	LTP266	ltpFR	1	7	n/a	ELK	526	3	n/a	n/a	n/a	n/a	n/a	n/a
4225.422	n/a	RECOG_RESP	2112711	n/a	LTP266	ltpFR	1	7	n/a	ELK	526	n/a	n/a	n/a	n/a	n/a	n/a	n/a
4226.902	n/a	RECOG_CONF	2113451	n/a	LTP266	ltpFR	1	7	n/a	ELK	526	3	n/a	n/a	n/a	n/a	n/a	n/a
4228.836	n/a	RECOG_LURE	2114418	n/a	LTP266	ltpFR	1	7	n/a	BUTTERFLY	206	3	n/a	n/a	n/a	n/a	n/a	n/a
4230.232	n/a	RECOG_RESP	2115116	n/a	LTP266	ltpFR	1	7	n/a	BUTTERFLY	206	n/a	n/a	n/a	n/a	n/a	n/a	n/a
4231.602	n/a	RECOG_CONF	2115801	n/a	LTP266	ltpFR	1	7	n/a	BUTTERFLY	206	3	n/a	n/a	n/a	n/a	n/a	n/a
4233.436	n/a	RECOG_LURE	2116718	n/a	LTP266	ltpFR	1	7	n/a	JET	756	5	n/a	n/a	n/a	n/a	n/a	n/a
4234.588	n/a	RECOG_RESP	2117294	n/a	LTP266	ltpFR	1	7	n/a	JET	756	n/a	n/a	n/a	n/a	n/a	n/a	n/a
4235.812	n/a	RECOG_CONF	2117906	n/a	LTP266	ltpFR	1	7	n/a	JET	756	5	n/a	n/a	n/a	n/a	n/a	n/a
4237.668	n/a	RECOG_TARGET	2118834	n/a	LTP266	ltpFR	1	7	1	SPATULA	1348	3	0	n/a	n/a	n/a	n/a	n/a
4239.472	n/a	RECOG_RESP	2119736	n/a	LTP266	ltpFR	1	7	1	SPATULA	1348	n/a	0	n/a	n/a	n/a	n/a	n/a
4240.772	n/a	RECOG_CONF	2120386	n/a	LTP266	ltpFR	1	7	1	SPATULA	1348	3	0	n/a	n/a	n/a	n/a	n/a
4242.788	n/a	RECOG_TARGET	2121394	n/a	LTP266	ltpFR	1	7	0	TONGUE	1479	5	0	n/a	n/a	n/a	n/a	n/a
4243.642	n/a	RECOG_RESP	2121821	n/a	LTP266	ltpFR	1	7	0	TONGUE	1479	n/a	0	n/a	n/a	n/a	n/a	n/a
4244.632	n/a	RECOG_CONF	2122316	n/a	LTP266	ltpFR	1	7	0	TONGUE	1479	5	0	n/a	n/a	n/a	n/a	n/a
4246.482	n/a	RECOG_TARGET	2123241	n/a	LTP266	ltpFR	1	7	1	SHEEP	1278	5	1	n/a	n/a	n/a	n/a	n/a
4247.268	n/a	RECOG_RESP	2123634	n/a	LTP266	ltpFR	1	7	1	SHEEP	1278	n/a	1	n/a	n/a	n/a	n/a	n/a
4248.322	n/a	RECOG_CONF	2124161	n/a	LTP266	ltpFR	1	7	1	SHEEP	1278	5	1	n/a	n/a	n/a	n/a	n/a
4250.1	n/a	RECOG_TARGET	2125050	n/a	LTP266	ltpFR	1	7	0	INCENSE	735	3	0	n/a	n/a	n/a	n/a	n/a
4251.198	n/a	RECOG_RESP	2125599	n/a	LTP266	ltpFR	1	7	0	INCENSE	735	n/a	0	n/a	n/a	n/a	n/a	n/a
4252.584	n/a	RECOG_CONF	2126292	n/a	LTP266	ltpFR	1	7	0	INCENSE	735	3	0	n/a	n/a	n/a	n/a	n/a
4269.04	n/a	REC_START	2134520	n/a	LTP266	ltpFR	1	8	n/a	n/a	n/a	n/a	n/a	n/a	n/a	n/a	n/a	n/a
4269.088	n/a	RECOG_LURE	2134544	n/a	LTP266	ltpFR	1	8	n/a	DEPARTMENT	449	3	n/a	n/a	n/a	n/a	n/a	n/a
4271.034	n/a	RECOG_RESP	2135517	n/a	LTP266	ltpFR	1	8	n/a	DEPARTMENT	449	n/a	n/a	n/a	n/a	n/a	n/a	n/a
4272.49	n/a	RECOG_CONF	2136245	n/a	LTP266	ltpFR	1	8	n/a	DEPARTMENT	449	3	n/a	n/a	n/a	n/a	n/a	n/a
4274.326	n/a	RECOG_TARGET	2137163	n/a	LTP266	ltpFR	1	8	1	MISTER	901	3	1	n/a	n/a	n/a	n/a	n/a
4275.534	n/a	RECOG_RESP	2137767	n/a	LTP266	ltpFR	1	8	1	MISTER	901	n/a	1	n/a	n/a	n/a	n/a	n/a
4277.05	n/a	RECOG_CONF	2138525	n/a	LTP266	ltpFR	1	8	1	MISTER	901	3	1	n/a	n/a	n/a	n/a	n/a
4278.81	n/a	RECOG_TARGET	2139405	n/a	LTP266	ltpFR	1	8	0	PATROL	1027	5	0	n/a	n/a	n/a	n/a	n/a
4280.17	n/a	RECOG_RESP	2140085	n/a	LTP266	ltpFR	1	8	0	PATROL	1027	n/a	0	n/a	n/a	n/a	n/a	n/a
4281.53	n/a	RECOG_CONF	2140765	n/a	LTP266	ltpFR	1	8	0	PATROL	1027	5	0	n/a	n/a	n/a	n/a	n/a
4283.41	n/a	RECOG_TARGET	2141705	n/a	LTP266	ltpFR	1	8	-1	PIER	1063	1	-1	n/a	n/a	n/a	n/a	n/a
4284.774	n/a	RECOG_RESP	2142387	n/a	LTP266	ltpFR	1	8	-1	PIER	1063	n/a	-1	n/a	n/a	n/a	n/a	n/a
4287.404	n/a	RECOG_CONF	2143702	n/a	LTP266	ltpFR	1	8	-1	PIER	1063	1	-1	n/a	n/a	n/a	n/a	n/a
4289.266	n/a	RECOG_TARGET	2144633	n/a	LTP266	ltpFR	1	8	-1	RUBY	1214	3	-1	n/a	n/a	n/a	n/a	n/a
4290.966	n/a	RECOG_RESP	2145483	n/a	LTP266	ltpFR	1	8	-1	RUBY	1214	n/a	-1	n/a	n/a	n/a	n/a	n/a
4292.48	n/a	RECOG_CONF	2146240	n/a	LTP266	ltpFR	1	8	-1	RUBY	1214	3	-1	n/a	n/a	n/a	n/a	n/a
4294.92	n/a	RECOG_TARGET	2147460	n/a	LTP266	ltpFR	1	8	-1	TURTLE	1522	4	-1	n/a	n/a	n/a	n/a	n/a
4296.346	n/a	RECOG_RESP	2148173	n/a	LTP266	ltpFR	1	8	-1	TURTLE	1522	n/a	-1	n/a	n/a	n/a	n/a	n/a
4297.8	n/a	RECOG_CONF	2148900	n/a	LTP266	ltpFR	1	8	-1	TURTLE	1522	4	-1	n/a	n/a	n/a	n/a	n/a
4299.79	n/a	RECOG_TARGET	2149895	n/a	LTP266	ltpFR	1	8	1	TICK	1463	4	1	n/a	n/a	n/a	n/a	n/a
4300.77	n/a	RECOG_RESP	2150385	n/a	LTP266	ltpFR	1	8	1	TICK	1463	n/a	1	n/a	n/a	n/a	n/a	n/a
