onset	duration	trial_type	sample	stim_file	subject	experiment	session	trial	task	item_name	item_num	recog_conf	resp	color_b	color_g	color_r	case	font
240.67	n/a	SESS_START	120335	n/a	LTP075	ltpFR	3	n/a	n/a	n/a	n/a	n/a	n/a	n/a	n/a	n/a	n/a	n/a
304.04	n/a	WORD	152020	wordpools/wasnorm_wordpool.txt	LTP075	ltpFR	3	1	0	BRAN	167	n/a	0	0	0.5869140625	0.422607421875	lower	../fonts/zerothre.ttf
308.048	n/a	WORD	154024	wordpools/wasnorm_wordpool.txt	LTP075	ltpFR	3	1	0	STEP	1377	n/a	1	0	0.5869140625	0.422607421875	lower	../fonts/zerothre.ttf
311.882	n/a	WORD	155941	wordpools/wasnorm_wordpool.txt	LTP075	ltpFR	3	1	1	JUG	762	n/a	0	1	0.412841796875	0.57763671875	upper	../fonts/amplitud.ttf
315.748	n/a	WORD	157874	wordpools/wasnorm_wordpool.txt	LTP075	ltpFR	3	1	1	TREAD	1499	n/a	0	1	0.412841796875	0.57763671875	upper	../fonts/amplitud.ttf
319.672	n/a	WORD	159836	wordpools/wasnorm_wordpool.txt	LTP075	ltpFR	3	1	1	FORK	594	n/a	0	1	0.412841796875	0.57763671875	upper	../fonts/amplitud.ttf
323.514	n/a	WORD	161757	wordpools/wasnorm_wordpool.txt	LTP075	ltpFR	3	1	1	PASTRY	1022	n/a	0	1	0.412841796875	0.57763671875	upper	../fonts/amplitud.ttf
327.372	n/a	WORD	163686	wordpools/wasnorm_wordpool.txt	LTP075	ltpFR	3	1	0	SHRIMP	1297	n/a	0	0	0.5869140625	0.422607421875	lower	../fonts/zerothre.ttf
331.514	n/a	WORD	165757	wordpools/wasnorm_wordpool.txt	LTP075	ltpFR	3	1	0	PAGE	1001	n/a	0	0	0.5869140625	0.422607421875	lower	../fonts/zerothre.ttf
335.714	n/a	WORD	167857	wordpools/wasnorm_wordpool.txt	LTP075	ltpFR	3	1	0	SQUIRREL	1362	n/a	0	0	0.5869140625	0.422607421875	lower	../fonts/zerothre.ttf
339.53	n/a	WORD	169765	wordpools/wasnorm_wordpool.txt	LTP075	ltpFR	3	1	1	SPARROW	1347	n/a	1	1	0.412841796875	0.57763671875	upper	../fonts/amplitud.ttf
343.63	n/a	WORD	171815	wordpools/wasnorm_wordpool.txt	LTP075	ltpFR	3	1	1	STRANGER	1389	n/a	1	1	0.412841796875	0.57763671875	upper	../fonts/amplitud.ttf
347.654	n/a	WORD	173827	wordpools/wasnorm_wordpool.txt	LTP075	ltpFR	3	1	1	FOE	587	n/a	1	1	0.412841796875	0.57763671875	upper	../fonts/amplitud.ttf
351.488	n/a	WORD	175744	wordpools/wasnorm_wordpool.txt	LTP075	ltpFR	3	1	1	SPATULA	1348	n/a	0	1	0.412841796875	0.57763671875	upper	../fonts/amplitud.ttf
355.646	n/a	WORD	177823	wordpools/wasnorm_wordpool.txt	LTP075	ltpFR	3	1	0	HAWK	692	n/a	1	0	0.5869140625	0.422607421875	lower	../fonts/zerothre.ttf
359.546	n/a	WORD	179773	wordpools/wasnorm_wordpool.txt	LTP075	ltpFR	3	1	0	CANNON	232	n/a	1	0	0.5869140625	0.422607421875	lower	../fonts/zerothre.ttf
363.764	n/a	WORD	181882	wordpools/wasnorm_wordpool.txt	LTP075	ltpFR	3	1	0	SEAL	1262	n/a	1	0	0.5869140625	0.422607421875	lower	../fonts/zerothre.ttf
369.554	n/a	REC_START	184777	n/a	LTP075	ltpFR	3	1	n/a	n/a	n/a	n/a	n/a	n/a	n/a	n/a	n/a	n/a
370.594	n/a	REC_WORD	185297	wordpools/wasnorm_wordpool.txt	LTP075	ltpFR	3	1	0	SEAL	1262	n/a	1	n/a	n/a	n/a	n/a	n/a
371.94	n/a	REC_WORD	185970	wordpools/wasnorm_wordpool.txt	LTP075	ltpFR	3	1	0	CANNON	232	n/a	1	n/a	n/a	n/a	n/a	n/a
373.072	n/a	REC_WORD	186536	wordpools/wasnorm_wordpool.txt	LTP075	ltpFR	3	1	0	HAWK	692	n/a	1	n/a	n/a	n/a	n/a	n/a
374.174	n/a	REC_WORD	187087	wordpools/wasnorm_wordpool.txt	LTP075	ltpFR	3	1	1	SPARROW	1347	n/a	1	n/a	n/a	n/a	n/a	n/a
376.15	n/a	REC_WORD	188075	wordpools/wasnorm_wordpool.txt	LTP075	ltpFR	3	1	0	BRAN	167	n/a	0	n/a	n/a	n/a	n/a	n/a
378.788	n/a	REC_WORD	189394	wordpools/wasnorm_wordpool.txt	LTP075	ltpFR	3	1	0	SQUIRREL	1362	n/a	0	n/a	n/a	n/a	n/a	n/a
380.326	n/a	REC_WORD	190163	wordpools/wasnorm_wordpool.txt	LTP075	ltpFR	3	1	1	FORK	594	n/a	0	n/a	n/a	n/a	n/a	n/a
382.716	n/a	REC_WORD	191358	wordpools/wasnorm_wordpool.txt	LTP075	ltpFR	3	1	1	STRANGER	1389	n/a	1	n/a	n/a	n/a	n/a	n/a
385.47	n/a	REC_WORD	192735	wordpools/wasnorm_wordpool.txt	LTP075	ltpFR	3	1	1	FOE	587	n/a	1	n/a	n/a	n/a	n/a	n/a
401.51	n/a	REC_WORD	200755	wordpools/wasnorm_wordpool.txt	LTP075	ltpFR	3	1	0	CANNON	232	n/a	1	n/a	n/a	n/a	n/a	n/a
448.728	n/a	WORD	224364	wordpools/wasnorm_wordpool.txt	LTP075	ltpFR	3	2	1	OTTER	986	n/a	1	1	0.412841796875	0.57763671875	upper	../fonts/amplitud.ttf
452.92	n/a	WORD	226460	wordpools/wasnorm_wordpool.txt	LTP075	ltpFR	3	2	1	WATER	1594	n/a	0	1	0.412841796875	0.57763671875	upper	../fonts/amplitud.ttf
457.094	n/a	WORD	228547	wordpools/wasnorm_wordpool.txt	LTP075	ltpFR	3	2	1	DETERGENT	455	n/a	0	1	0.412841796875	0.57763671875	upper	../fonts/amplitud.ttf
461.236	n/a	WORD	230618	wordpools/wasnorm_wordpool.txt	LTP075	ltpFR	3	2	0	COUNTRY	388	n/a	1	0	0.5869140625	0.422607421875	lower	../fonts/zerothre.ttf
465.228	n/a	WORD	232614	wordpools/wasnorm_wordpool.txt	LTP075	ltpFR	3	2	0	GENERAL	630	n/a	1	0	0.5869140625	0.422607421875	lower	../fonts/zerothre.ttf
469.112	n/a	WORD	234556	wordpools/wasnorm_wordpool.txt	LTP075	ltpFR	3	2	1	PANTHER	1009	n/a	1	1	0.412841796875	0.57763671875	upper	../fonts/amplitud.ttf
473.028	n/a	WORD	236514	wordpools/wasnorm_wordpool.txt	LTP075	ltpFR	3	2	1	VEIN	1554	n/a	0	1	0.412841796875	0.57763671875	upper	../fonts/amplitud.ttf
476.936	n/a	WORD	238468	wordpools/wasnorm_wordpool.txt	LTP075	ltpFR	3	2	0	ARTERY	41	n/a	1	0	0.5869140625	0.422607421875	lower	../fonts/zerothre.ttf
481.144	n/a	WORD	240572	wordpools/wasnorm_wordpool.txt	LTP075	ltpFR	3	2	0	MILITARY	894	n/a	1	0	0.5869140625	0.422607421875	lower	../fonts/zerothre.ttf
485.186	n/a	WORD	242593	wordpools/wasnorm_wordpool.txt	LTP075	ltpFR	3	2	0	ROBE	1198	n/a	0	0	0.5869140625	0.422607421875	lower	../fonts/zerothre.ttf
489.26	n/a	WORD	244630	wordpools/wasnorm_wordpool.txt	LTP075	ltpFR	3	2	0	MISSILE	900	n/a	1	0	0.5869140625	0.422607421875	lower	../fonts/zerothre.ttf
493.268	n/a	WORD	246634	wordpools/wasnorm_wordpool.txt	LTP075	ltpFR	3	2	0	BULLET	194	n/a	0	0	0.5869140625	0.422607421875	lower	../fonts/zerothre.ttf
497.386	n/a	WORD	248693	wordpools/wasnorm_wordpool.txt	LTP075	ltpFR	3	2	0	FARM	552	n/a	1	0	0.5869140625	0.422607421875	lower	../fonts/zerothre.ttf
501.418	n/a	WORD	250709	wordpools/wasnorm_wordpool.txt	LTP075	ltpFR	3	2	1	BANQUET	86	n/a	0	1	0.412841796875	0.57763671875	upper	../fonts/amplitud.ttf
505.236	n/a	WORD	252618	wordpools/wasnorm_wordpool.txt	LTP075	ltpFR	3	2	1	MARROW	872	n/a	0	1	0.412841796875	0.57763671875	upper	../fonts/amplitud.ttf
509.352	n/a	WORD	254676	wordpools/wasnorm_wordpool.txt	LTP075	ltpFR	3	2	1	MUSHROOM	934	n/a	1	1	0.412841796875	0.57763671875	upper	../fonts/amplitud.ttf
515.302	n/a	REC_START	257651	n/a	LTP075	ltpFR	3	2	n/a	n/a	n/a	n/a	n/a	n/a	n/a	n/a	n/a	n/a
515.862	n/a	REC_WORD	257931	wordpools/wasnorm_wordpool.txt	LTP075	ltpFR	3	2	1	MUSHROOM	934	n/a	1	n/a	n/a	n/a	n/a	n/a
517.458	n/a	REC_WORD	258729	wordpools/wasnorm_wordpool.txt	LTP075	ltpFR	3	2	1	MARROW	872	n/a	0	n/a	n/a	n/a	n/a	n/a
519.81	n/a	REC_WORD	259905	wordpools/wasnorm_wordpool.txt	LTP075	ltpFR	3	2	1	VEIN	1554	n/a	0	n/a	n/a	n/a	n/a	n/a
521.656	n/a	REC_WORD	260828	wordpools/wasnorm_wordpool.txt	LTP075	ltpFR	3	2	0	ARTERY	41	n/a	1	n/a	n/a	n/a	n/a	n/a
524.002	n/a	REC_WORD	262001	wordpools/wasnorm_wordpool.txt	LTP075	ltpFR	3	2	1	BANQUET	86	n/a	0	n/a	n/a	n/a	n/a	n/a
534.842	n/a	REC_WORD	267421	wordpools/wasnorm_wordpool.txt	LTP075	ltpFR	3	2	0	MILITARY	894	n/a	1	n/a	n/a	n/a	n/a	n/a
545.606	n/a	REC_WORD	272803	wordpools/wasnorm_wordpool.txt	LTP075	ltpFR	3	2	1	MARROW	872	n/a	0	n/a	n/a	n/a	n/a	n/a
555.164	n/a	REC_WORD	277582	wordpools/wasnorm_wordpool.txt	LTP075	ltpFR	3	2	0	ROBE	1198	n/a	0	n/a	n/a	n/a	n/a	n/a
593.958	n/a	WORD	296979	wordpools/wasnorm_wordpool.txt	LTP075	ltpFR	3	3	-1	CAT	257	n/a	-1	1	1.0	1.0	upper	../fonts/Verdana.ttf
597.9	n/a	WORD	298950	wordpools/wasnorm_wordpool.txt	LTP075	ltpFR	3	3	-1	LITTER	832	n/a	-1	1	1.0	1.0	upper	../fonts/Verdana.ttf
601.756	n/a	WORD	300878	wordpools/wasnorm_wordpool.txt	LTP075	ltpFR	3	3	-1	ASH	44	n/a	-1	1	1.0	1.0	upper	../fonts/Verdana.ttf
605.882	n/a	WORD	302941	wordpools/wasnorm_wordpool.txt	LTP075	ltpFR	3	3	-1	LEOPARD	812	n/a	-1	1	1.0	1.0	upper	../fonts/Verdana.ttf
610.082	n/a	WORD	305041	wordpools/wasnorm_wordpool.txt	LTP075	ltpFR	3	3	-1	GIRL	637	n/a	-1	1	1.0	1.0	upper	../fonts/Verdana.ttf
613.932	n/a	WORD	306966	wordpools/wasnorm_wordpool.txt	LTP075	ltpFR	3	3	-1	CEREAL	272	n/a	-1	1	1.0	1.0	upper	../fonts/Verdana.ttf
617.882	n/a	WORD	308941	wordpools/wasnorm_wordpool.txt	LTP075	ltpFR	3	3	-1	COB	334	n/a	-1	1	1.0	1.0	upper	../fonts/Verdana.ttf
622.024	n/a	WORD	311012	wordpools/wasnorm_wordpool.txt	LTP075	ltpFR	3	3	-1	NIECE	952	n/a	-1	1	1.0	1.0	upper	../fonts/Verdana.ttf
625.84	n/a	WORD	312920	wordpools/wasnorm_wordpool.txt	LTP075	ltpFR	3	3	-1	CAMEL	223	n/a	-1	1	1.0	1.0	upper	../fonts/Verdana.ttf
629.738	n/a	WORD	314869	wordpools/wasnorm_wordpool.txt	LTP075	ltpFR	3	3	-1	GAVEL	627	n/a	-1	1	1.0	1.0	upper	../fonts/Verdana.ttf
633.908	n/a	WORD	316954	wordpools/wasnorm_wordpool.txt	LTP075	ltpFR	3	3	-1	BASKETBALL	96	n/a	-1	1	1.0	1.0	upper	../fonts/Verdana.ttf
637.89	n/a	WORD	318945	wordpools/wasnorm_wordpool.txt	LTP075	ltpFR	3	3	-1	STEREO	1378	n/a	-1	1	1.0	1.0	upper	../fonts/Verdana.ttf
641.78	n/a	WORD	320890	wordpools/wasnorm_wordpool.txt	LTP075	ltpFR	3	3	-1	RADIO	1157	n/a	-1	1	1.0	1.0	upper	../fonts/Verdana.ttf
645.922	n/a	WORD	322961	wordpools/wasnorm_wordpool.txt	LTP075	ltpFR	3	3	-1	REFRIGERATOR	1179	n/a	-1	1	1.0	1.0	upper	../fonts/Verdana.ttf
649.88	n/a	WORD	324940	wordpools/wasnorm_wordpool.txt	LTP075	ltpFR	3	3	-1	GYM	674	n/a	-1	1	1.0	1.0	upper	../fonts/Verdana.ttf
654.014	n/a	WORD	327007	wordpools/wasnorm_wordpool.txt	LTP075	ltpFR	3	3	-1	CONVICT	371	n/a	-1	1	1.0	1.0	upper	../fonts/Verdana.ttf
659.94	n/a	REC_START	329970	n/a	LTP075	ltpFR	3	3	n/a	n/a	n/a	n/a	n/a	n/a	n/a	n/a	n/a	n/a
660.628	n/a	REC_WORD	330314	wordpools/wasnorm_wordpool.txt	LTP075	ltpFR	3	3	-1	CONVICT	371	n/a	-1	n/a	n/a	n/a	n/a	n/a
661.878	n/a	REC_WORD	330939	wordpools/wasnorm_wordpool.txt	LTP075	ltpFR	3	3	-1	GYM	674	n/a	-1	n/a	n/a	n/a	n/a	n/a
663.042	n/a	REC_WORD	331521	wordpools/wasnorm_wordpool.txt	LTP075	ltpFR	3	3	-1	REFRIGERATOR	1179	n/a	-1	n/a	n/a	n/a	n/a	n/a
664.738	n/a	REC_WORD	332369	wordpools/wasnorm_wordpool.txt	LTP075	ltpFR	3	3	-1	STEREO	1378	n/a	-1	n/a	n/a	n/a	n/a	n/a
666.466	n/a	REC_WORD	333233	wordpools/wasnorm_wordpool.txt	LTP075	ltpFR	3	3	-1	RADIO	1157	n/a	-1	n/a	n/a	n/a	n/a	n/a
668.626	n/a	REC_WORD	334313	wordpools/wasnorm_wordpool.txt	LTP075	ltpFR	3	3	-1	NIECE	952	n/a	-1	n/a	n/a	n/a	n/a	n/a
676.698	n/a	REC_WORD	338349	wordpools/wasnorm_wordpool.txt	LTP075	ltpFR	3	3	-1	GAVEL	627	n/a	-1	n/a	n/a	n/a	n/a	n/a
686.214	n/a	REC_WORD	343107	wordpools/wasnorm_wordpool.txt	LTP075	ltpFR	3	3	-1	CAT	257	n/a	-1	n/a	n/a	n/a	n/a	n/a
687.782	n/a	REC_WORD	343891	wordpools/wasnorm_wordpool.txt	LTP075	ltpFR	3	3	-1	LITTER	832	n/a	-1	n/a	n/a	n/a	n/a	n/a
690.776	n/a	REC_WORD	345388	wordpools/wasnorm_wordpool.txt	LTP075	ltpFR	3	3	-1	ASH	44	n/a	-1	n/a	n/a	n/a	n/a	n/a
748.304	n/a	WORD	374152	wordpools/wasnorm_wordpool.txt	LTP075	ltpFR	3	4	0	POET	1095	n/a	3	0	0.5869140625	0.422607421875	lower	../fonts/zerothre.ttf
749.912	n/a	KEY_MSG	374956	n/a	LTP075	ltpFR	3	4	n/a	n/a	n/a	n/a	n/a	n/a	n/a	n/a	n/a	n/a
752.386	n/a	WORD	376193	wordpools/wasnorm_wordpool.txt	LTP075	ltpFR	3	4	0	BATH	98	n/a	1	0	0.5869140625	0.422607421875	lower	../fonts/zerothre.ttf
756.22	n/a	WORD	378110	wordpools/wasnorm_wordpool.txt	LTP075	ltpFR	3	4	1	FUDGE	611	n/a	0	1	0.412841796875	0.57763671875	upper	../fonts/amplitud.ttf
760.196	n/a	WORD	380098	wordpools/wasnorm_wordpool.txt	LTP075	ltpFR	3	4	1	KNOT	788	n/a	0	1	0.412841796875	0.57763671875	upper	../fonts/amplitud.ttf
764.404	n/a	WORD	382202	wordpools/wasnorm_wordpool.txt	LTP075	ltpFR	3	4	1	MAGAZINE	853	n/a	0	1	0.412841796875	0.57763671875	upper	../fonts/amplitud.ttf
768.47	n/a	WORD	384235	wordpools/wasnorm_wordpool.txt	LTP075	ltpFR	3	4	0	CANDY	230	n/a	0	0	0.5869140625	0.422607421875	lower	../fonts/zerothre.ttf
772.286	n/a	WORD	386143	wordpools/wasnorm_wordpool.txt	LTP075	ltpFR	3	4	0	ROOSTER	1209	n/a	1	0	0.5869140625	0.422607421875	lower	../fonts/zerothre.ttf
776.476	n/a	WORD	388238	wordpools/wasnorm_wordpool.txt	LTP075	ltpFR	3	4	1	LAUNDRY	803	n/a	0	1	0.412841796875	0.57763671875	upper	../fonts/amplitud.ttf
780.494	n/a	WORD	390247	wordpools/wasnorm_wordpool.txt	LTP075	ltpFR	3	4	1	TOAD	1470	n/a	1	1	0.412841796875	0.57763671875	upper	../fonts/amplitud.ttf
784.476	n/a	WORD	392238	wordpools/wasnorm_wordpool.txt	LTP075	ltpFR	3	4	1	DRINK	498	n/a	0	1	0.412841796875	0.57763671875	upper	../fonts/amplitud.ttf
788.378	n/a	WORD	394189	wordpools/wasnorm_wordpool.txt	LTP075	ltpFR	3	4	1	MEAL	882	n/a	0	1	0.412841796875	0.57763671875	upper	../fonts/amplitud.ttf
792.494	n/a	WORD	396247	wordpools/wasnorm_wordpool.txt	LTP075	ltpFR	3	4	1	TRAY	1498	n/a	0	1	0.412841796875	0.57763671875	upper	../fonts/amplitud.ttf
796.576	n/a	WORD	398288	wordpools/wasnorm_wordpool.txt	LTP075	ltpFR	3	4	0	WORM	1623	n/a	0	0	0.5869140625	0.422607421875	lower	../fonts/zerothre.ttf
800.56	n/a	WORD	400280	wordpools/wasnorm_wordpool.txt	LTP075	ltpFR	3	4	0	REPTILE	1185	n/a	1	0	0.5869140625	0.422607421875	lower	../fonts/zerothre.ttf
804.56	n/a	WORD	402280	wordpools/wasnorm_wordpool.txt	LTP075	ltpFR	3	4	0	BUTTER	205	n/a	0	0	0.5869140625	0.422607421875	lower	../fonts/zerothre.ttf
808.652	n/a	WORD	404326	wordpools/wasnorm_wordpool.txt	LTP075	ltpFR	3	4	0	BARLEY	88	n/a	0	0	0.5869140625	0.422607421875	lower	../fonts/zerothre.ttf
814.352	n/a	REC_START	407176	n/a	LTP075	ltpFR	3	4	n/a	n/a	n/a	n/a	n/a	n/a	n/a	n/a	n/a	n/a
815.246	n/a	REC_WORD	407623	wordpools/wasnorm_wordpool.txt	LTP075	ltpFR	3	4	0	BARLEY	88	n/a	0	n/a	n/a	n/a	n/a	n/a
816.522	n/a	REC_WORD	408261	wordpools/wasnorm_wordpool.txt	LTP075	ltpFR	3	4	0	BUTTER	205	n/a	0	n/a	n/a	n/a	n/a	n/a
818.404	n/a	REC_WORD	409202	wordpools/wasnorm_wordpool.txt	LTP075	ltpFR	3	4	0	WORM	1623	n/a	0	n/a	n/a	n/a	n/a	n/a
820.146	n/a	REC_WORD	410073	wordpools/wasnorm_wordpool.txt	LTP075	ltpFR	3	4	0	REPTILE	1185	n/a	1	n/a	n/a	n/a	n/a	n/a
823.366	n/a	REC_WORD	411683	wordpools/wasnorm_wordpool.txt	LTP075	ltpFR	3	4	1	TRAY	1498	n/a	0	n/a	n/a	n/a	n/a	n/a
832.746	n/a	REC_WORD	416373	wordpools/wasnorm_wordpool.txt	LTP075	ltpFR	3	4	0	CANDY	230	n/a	0	n/a	n/a	n/a	n/a	n/a
834.552	n/a	REC_WORD	417276	wordpools/wasnorm_wordpool.txt	LTP075	ltpFR	3	4	1	FUDGE	611	n/a	0	n/a	n/a	n/a	n/a	n/a
839.014	n/a	REC_WORD	419507	wordpools/wasnorm_wordpool.txt	LTP075	ltpFR	3	4	1	LAUNDRY	803	n/a	0	n/a	n/a	n/a	n/a	n/a
841.23	n/a	REC_WORD	420615	wordpools/wasnorm_wordpool.txt	LTP075	ltpFR	3	4	1	DETERGENT	455	n/a	0	n/a	n/a	n/a	n/a	n/a
846.444	n/a	REC_WORD	423222	wordpools/wasnorm_wordpool.txt	LTP075	ltpFR	3	4	1	MEAL	882	n/a	0	n/a	n/a	n/a	n/a	n/a
894.724	n/a	WORD	447362	wordpools/wasnorm_wordpool.txt	LTP075	ltpFR	3	5	0	VEGETABLE	1552	n/a	0	0	0.5869140625	0.422607421875	lower	../fonts/zerothre.ttf
898.59	n/a	WORD	449295	wordpools/wasnorm_wordpool.txt	LTP075	ltpFR	3	5	0	DEODORANT	448	n/a	0	0	0.5869140625	0.422607421875	lower	../fonts/zerothre.ttf
902.764	n/a	WORD	451382	wordpools/wasnorm_wordpool.txt	LTP075	ltpFR	3	5	0	BUS	201	n/a	1	0	0.5869140625	0.422607421875	lower	../fonts/zerothre.ttf
906.908	n/a	WORD	453454	wordpools/wasnorm_wordpool.txt	LTP075	ltpFR	3	5	0	CABINET	212	n/a	1	0	0.5869140625	0.422607421875	lower	../fonts/zerothre.ttf
910.942	n/a	WORD	455471	wordpools/wasnorm_wordpool.txt	LTP075	ltpFR	3	5	0	CUB	419	n/a	1	0	0.5869140625	0.422607421875	lower	../fonts/zerothre.ttf
915.1	n/a	WORD	457550	wordpools/wasnorm_wordpool.txt	LTP075	ltpFR	3	5	0	ESSAY	540	n/a	0	0	0.5869140625	0.422607421875	lower	../fonts/zerothre.ttf
919.266	n/a	WORD	459633	wordpools/wasnorm_wordpool.txt	LTP075	ltpFR	3	5	0	JELLO	754	n/a	0	0	0.5869140625	0.422607421875	lower	../fonts/zerothre.ttf
923.466	n/a	WORD	461733	wordpools/wasnorm_wordpool.txt	LTP075	ltpFR	3	5	0	SLIME	1327	n/a	0	0	0.5869140625	0.422607421875	lower	../fonts/zerothre.ttf
927.358	n/a	WORD	463679	wordpools/wasnorm_wordpool.txt	LTP075	ltpFR	3	5	0	ASSISTANT	48	n/a	1	0	0.5869140625	0.422607421875	lower	../fonts/zerothre.ttf
931.424	n/a	WORD	465712	wordpools/wasnorm_wordpool.txt	LTP075	ltpFR	3	5	0	CUE	422	n/a	n/a	0	0.5869140625	0.422607421875	lower	../fonts/zerothre.ttf
934.448	n/a	SLOW_MSG	467224	n/a	LTP075	ltpFR	3	5	n/a	n/a	n/a	n/a	n/a	n/a	n/a	n/a	n/a	n/a
937.066	n/a	WORD	468533	wordpools/wasnorm_wordpool.txt	LTP075	ltpFR	3	5	0	THREAD	1460	n/a	0	0	0.5869140625	0.422607421875	lower	../fonts/zerothre.ttf
941.032	n/a	WORD	470516	wordpools/wasnorm_wordpool.txt	LTP075	ltpFR	3	5	0	THIMBLE	1458	n/a	0	0	0.5869140625	0.422607421875	lower	../fonts/zerothre.ttf
944.914	n/a	WORD	472457	wordpools/wasnorm_wordpool.txt	LTP075	ltpFR	3	5	0	SHINGLE	1285	n/a	1	0	0.5869140625	0.422607421875	lower	../fonts/zerothre.ttf
948.814	n/a	WORD	474407	wordpools/wasnorm_wordpool.txt	LTP075	ltpFR	3	5	0	SHACK	1273	n/a	1	0	0.5869140625	0.422607421875	lower	../fonts/zerothre.ttf
952.748	n/a	WORD	476374	wordpools/wasnorm_wordpool.txt	LTP075	ltpFR	3	5	0	LOG	841	n/a	1	0	0.5869140625	0.422607421875	lower	../fonts/zerothre.ttf
956.672	n/a	WORD	478336	wordpools/wasnorm_wordpool.txt	LTP075	ltpFR	3	5	0	MECHANIC	884	n/a	1	0	0.5869140625	0.422607421875	lower	../fonts/zerothre.ttf
962.498	n/a	REC_START	481249	n/a	LTP075	ltpFR	3	5	n/a	n/a	n/a	n/a	n/a	n/a	n/a	n/a	n/a	n/a
963.628	n/a	REC_WORD	481814	wordpools/wasnorm_wordpool.txt	LTP075	ltpFR	3	5	0	MECHANIC	884	n/a	1	n/a	n/a	n/a	n/a	n/a
964.766	n/a	REC_WORD	482383	wordpools/wasnorm_wordpool.txt	LTP075	ltpFR	3	5	0	LOG	841	n/a	1	n/a	n/a	n/a	n/a	n/a
966.29	n/a	REC_WORD	483145	wordpools/wasnorm_wordpool.txt	LTP075	ltpFR	3	5	0	SHINGLE	1285	n/a	1	n/a	n/a	n/a	n/a	n/a
967.726	n/a	REC_WORD	483863	wordpools/wasnorm_wordpool.txt	LTP075	ltpFR	3	5	0	SHACK	1273	n/a	1	n/a	n/a	n/a	n/a	n/a
969.544	n/a	REC_WORD	484772	wordpools/wasnorm_wordpool.txt	LTP075	ltpFR	3	5	1	TREAD	1499	n/a	0	n/a	n/a	n/a	n/a	n/a
971.548	n/a	REC_WORD	485774	wordpools/wasnorm_wordpool.txt	LTP075	ltpFR	3	5	0	THIMBLE	1458	n/a	0	n/a	n/a	n/a	n/a	n/a
974.064	n/a	REC_WORD	487032	wordpools/wasnorm_wordpool.txt	LTP075	ltpFR	3	5	0	CUE	422	n/a	n/a	n/a	n/a	n/a	n/a	n/a
978.732	n/a	REC_WORD	489366	wordpools/wasnorm_wordpool.txt	LTP075	ltpFR	3	5	0	JELLO	754	n/a	0	n/a	n/a	n/a	n/a	n/a
999.174	n/a	REC_WORD	499587	wordpools/wasnorm_wordpool.txt	LTP075	ltpFR	3	5	0	MECHANIC	884	n/a	1	n/a	n/a	n/a	n/a	n/a
1041.32	n/a	WORD	520660	wordpools/wasnorm_wordpool.txt	LTP075	ltpFR	3	6	-1	TEMPLE	1448	n/a	-1	1	1.0	1.0	upper	../fonts/Verdana.ttf
1045.38	n/a	WORD	522690	wordpools/wasnorm_wordpool.txt	LTP075	ltpFR	3	6	-1	GARBAGE	622	n/a	-1	1	1.0	1.0	upper	../fonts/Verdana.ttf
1049.438	n/a	WORD	524719	wordpools/wasnorm_wordpool.txt	LTP075	ltpFR	3	6	-1	KETTLE	772	n/a	-1	1	1.0	1.0	upper	../fonts/Verdana.ttf
1053.546	n/a	WORD	526773	wordpools/wasnorm_wordpool.txt	LTP075	ltpFR	3	6	-1	SHORTS	1293	n/a	-1	1	1.0	1.0	upper	../fonts/Verdana.ttf
1057.694	n/a	WORD	528847	wordpools/wasnorm_wordpool.txt	LTP075	ltpFR	3	6	-1	SERVER	1272	n/a	-1	1	1.0	1.0	upper	../fonts/Verdana.ttf
1061.578	n/a	WORD	530789	wordpools/wasnorm_wordpool.txt	LTP075	ltpFR	3	6	-1	RODENT	1204	n/a	-1	1	1.0	1.0	upper	../fonts/Verdana.ttf
1065.428	n/a	WORD	532714	wordpools/wasnorm_wordpool.txt	LTP075	ltpFR	3	6	-1	PLAID	1080	n/a	-1	1	1.0	1.0	upper	../fonts/Verdana.ttf
1069.278	n/a	WORD	534639	wordpools/wasnorm_wordpool.txt	LTP075	ltpFR	3	6	-1	COOLER	375	n/a	-1	1	1.0	1.0	upper	../fonts/Verdana.ttf
1073.112	n/a	WORD	536556	wordpools/wasnorm_wordpool.txt	LTP075	ltpFR	3	6	-1	BEER	114	n/a	-1	1	1.0	1.0	upper	../fonts/Verdana.ttf
1077.138	n/a	WORD	538569	wordpools/wasnorm_wordpool.txt	LTP075	ltpFR	3	6	-1	ANTELOPE	27	n/a	-1	1	1.0	1.0	upper	../fonts/Verdana.ttf
1081.254	n/a	WORD	540627	wordpools/wasnorm_wordpool.txt	LTP075	ltpFR	3	6	-1	ZOO	1637	n/a	-1	1	1.0	1.0	upper	../fonts/Verdana.ttf
1085.22	n/a	WORD	542610	wordpools/wasnorm_wordpool.txt	LTP075	ltpFR	3	6	-1	BEAR	106	n/a	-1	1	1.0	1.0	upper	../fonts/Verdana.ttf
1089.344	n/a	WORD	544672	wordpools/wasnorm_wordpool.txt	LTP075	ltpFR	3	6	-1	VET	1560	n/a	-1	1	1.0	1.0	upper	../fonts/Verdana.ttf
1093.526	n/a	WORD	546763	wordpools/wasnorm_wordpool.txt	LTP075	ltpFR	3	6	-1	APRON	35	n/a	-1	1	1.0	1.0	upper	../fonts/Verdana.ttf
1097.578	n/a	WORD	548789	wordpools/wasnorm_wordpool.txt	LTP075	ltpFR	3	6	-1	CHEEK	287	n/a	-1	1	1.0	1.0	upper	../fonts/Verdana.ttf
1101.428	n/a	WORD	550714	wordpools/wasnorm_wordpool.txt	LTP075	ltpFR	3	6	-1	BIBLE	124	n/a	-1	1	1.0	1.0	upper	../fonts/Verdana.ttf
1107.436	n/a	REC_START	553718	n/a	LTP075	ltpFR	3	6	n/a	n/a	n/a	n/a	n/a	n/a	n/a	n/a	n/a	n/a
1108.65	n/a	REC_WORD	554325	wordpools/wasnorm_wordpool.txt	LTP075	ltpFR	3	6	-1	APRON	35	n/a	-1	n/a	n/a	n/a	n/a	n/a
1110.03	n/a	REC_WORD	555015	wordpools/wasnorm_wordpool.txt	LTP075	ltpFR	3	6	-1	BIBLE	124	n/a	-1	n/a	n/a	n/a	n/a	n/a
1112.216	n/a	REC_WORD	556108	wordpools/wasnorm_wordpool.txt	LTP075	ltpFR	3	6	-1	CHEEK	287	n/a	-1	n/a	n/a	n/a	n/a	n/a
1113.572	n/a	REC_WORD	556786	wordpools/wasnorm_wordpool.txt	LTP075	ltpFR	3	6	-1	ANTELOPE	27	n/a	-1	n/a	n/a	n/a	n/a	n/a
1114.912	n/a	REC_WORD	557456	wordpools/wasnorm_wordpool.txt	LTP075	ltpFR	3	6	-1	ZOO	1637	n/a	-1	n/a	n/a	n/a	n/a	n/a
1116.708	n/a	REC_WORD	558354	wordpools/wasnorm_wordpool.txt	LTP075	ltpFR	3	6	-1	BEAR	106	n/a	-1	n/a	n/a	n/a	n/a	n/a
1194.674	n/a	WORD	597337	wordpools/wasnorm_wordpool.txt	LTP075	ltpFR	3	7	-1	FISH	571	n/a	-1	1	1.0	1.0	upper	../fonts/Verdana.ttf
1198.524	n/a	WORD	599262	wordpools/wasnorm_wordpool.txt	LTP075	ltpFR	3	7	-1	SANDPAPER	1231	n/a	-1	1	1.0	1.0	upper	../fonts/Verdana.ttf
1202.674	n/a	WORD	601337	wordpools/wasnorm_wordpool.txt	LTP075	ltpFR	3	7	-1	VETERAN	1561	n/a	-1	1	1.0	1.0	upper	../fonts/Verdana.ttf
1206.7	n/a	WORD	603350	wordpools/wasnorm_wordpool.txt	LTP075	ltpFR	3	7	-1	COPIER	377	n/a	-1	1	1.0	1.0	upper	../fonts/Verdana.ttf
1210.624	n/a	WORD	605312	wordpools/wasnorm_wordpool.txt	LTP075	ltpFR	3	7	-1	HAYSTACK	694	n/a	-1	1	1.0	1.0	upper	../fonts/Verdana.ttf
1214.582	n/a	WORD	607291	wordpools/wasnorm_wordpool.txt	LTP075	ltpFR	3	7	-1	PAINTING	1005	n/a	-1	1	1.0	1.0	upper	../fonts/Verdana.ttf
1218.724	n/a	WORD	609362	wordpools/wasnorm_wordpool.txt	LTP075	ltpFR	3	7	-1	CROWN	415	n/a	-1	1	1.0	1.0	upper	../fonts/Verdana.ttf
1222.608	n/a	WORD	611304	wordpools/wasnorm_wordpool.txt	LTP075	ltpFR	3	7	-1	CASTLE	256	n/a	-1	1	1.0	1.0	upper	../fonts/Verdana.ttf
1226.54	n/a	WORD	613270	wordpools/wasnorm_wordpool.txt	LTP075	ltpFR	3	7	-1	LOFT	840	n/a	-1	1	1.0	1.0	upper	../fonts/Verdana.ttf
1230.582	n/a	WORD	615291	wordpools/wasnorm_wordpool.txt	LTP075	ltpFR	3	7	-1	MUSEUM	933	n/a	-1	1	1.0	1.0	upper	../fonts/Verdana.ttf
1234.54	n/a	WORD	617270	wordpools/wasnorm_wordpool.txt	LTP075	ltpFR	3	7	-1	HEDGE	699	n/a	-1	1	1.0	1.0	upper	../fonts/Verdana.ttf
1238.482	n/a	WORD	619241	wordpools/wasnorm_wordpool.txt	LTP075	ltpFR	3	7	-1	PLANT	1083	n/a	-1	1	1.0	1.0	upper	../fonts/Verdana.ttf
1242.374	n/a	WORD	621187	wordpools/wasnorm_wordpool.txt	LTP075	ltpFR	3	7	-1	LAMP	798	n/a	-1	1	1.0	1.0	upper	../fonts/Verdana.ttf
1246.308	n/a	WORD	623154	wordpools/wasnorm_wordpool.txt	LTP075	ltpFR	3	7	-1	TUNNEL	1519	n/a	-1	1	1.0	1.0	upper	../fonts/Verdana.ttf
1250.474	n/a	WORD	625237	wordpools/wasnorm_wordpool.txt	LTP075	ltpFR	3	7	-1	NEWSPAPER	948	n/a	-1	1	1.0	1.0	upper	../fonts/Verdana.ttf
1254.556	n/a	WORD	627278	wordpools/wasnorm_wordpool.txt	LTP075	ltpFR	3	7	-1	PAPER	1011	n/a	-1	1	1.0	1.0	upper	../fonts/Verdana.ttf
1260.116	n/a	REC_START	630058	n/a	LTP075	ltpFR	3	7	n/a	n/a	n/a	n/a	n/a	n/a	n/a	n/a	n/a	n/a
1260.804	n/a	REC_WORD	630402	wordpools/wasnorm_wordpool.txt	LTP075	ltpFR	3	7	-1	NEWSPAPER	948	n/a	-1	n/a	n/a	n/a	n/a	n/a
1262.74	n/a	REC_WORD	631370	wordpools/wasnorm_wordpool.txt	LTP075	ltpFR	3	7	-1	PAPER	1011	n/a	-1	n/a	n/a	n/a	n/a	n/a
1264.668	n/a	REC_WORD	632334	wordpools/wasnorm_wordpool.txt	LTP075	ltpFR	3	7	-1	TUNNEL	1519	n/a	-1	n/a	n/a	n/a	n/a	n/a
1267.364	n/a	REC_WORD	633682	wordpools/wasnorm_wordpool.txt	LTP075	ltpFR	3	7	-1	CROWN	415	n/a	-1	n/a	n/a	n/a	n/a	n/a
1269.38	n/a	REC_WORD	634690	wordpools/wasnorm_wordpool.txt	LTP075	ltpFR	3	7	-1	CASTLE	256	n/a	-1	n/a	n/a	n/a	n/a	n/a
1340.08	n/a	WORD	670040	wordpools/wasnorm_wordpool.txt	LTP075	ltpFR	3	8	1	SHOP	1290	n/a	0	1	0.412841796875	0.57763671875	upper	../fonts/amplitud.ttf
1344.038	n/a	WORD	672019	wordpools/wasnorm_wordpool.txt	LTP075	ltpFR	3	8	1	TWEEZERS	1526	n/a	0	1	0.412841796875	0.57763671875	upper	../fonts/amplitud.ttf
1348.13	n/a	WORD	674065	wordpools/wasnorm_wordpool.txt	LTP075	ltpFR	3	8	1	CLIPPERS	324	n/a	0	1	0.412841796875	0.57763671875	upper	../fonts/amplitud.ttf
1352.196	n/a	WORD	676098	wordpools/wasnorm_wordpool.txt	LTP075	ltpFR	3	8	1	FLUTE	585	n/a	0	1	0.412841796875	0.57763671875	upper	../fonts/amplitud.ttf
1356.338	n/a	WORD	678169	wordpools/wasnorm_wordpool.txt	LTP075	ltpFR	3	8	1	FIDDLE	561	n/a	0	1	0.412841796875	0.57763671875	upper	../fonts/amplitud.ttf
1360.504	n/a	WORD	680252	wordpools/wasnorm_wordpool.txt	LTP075	ltpFR	3	8	1	RECEIPT	1173	n/a	0	1	0.412841796875	0.57763671875	upper	../fonts/amplitud.ttf
1364.428	n/a	WORD	682214	wordpools/wasnorm_wordpool.txt	LTP075	ltpFR	3	8	1	CARPET	247	n/a	0	1	0.412841796875	0.57763671875	upper	../fonts/amplitud.ttf
1368.62	n/a	WORD	684310	wordpools/wasnorm_wordpool.txt	LTP075	ltpFR	3	8	1	UNIVERSE	1540	n/a	0	1	0.412841796875	0.57763671875	upper	../fonts/amplitud.ttf
1372.62	n/a	WORD	686310	wordpools/wasnorm_wordpool.txt	LTP075	ltpFR	3	8	1	HUMAN	726	n/a	1	1	0.412841796875	0.57763671875	upper	../fonts/amplitud.ttf
1376.552	n/a	WORD	688276	wordpools/wasnorm_wordpool.txt	LTP075	ltpFR	3	8	1	BISON	131	n/a	1	1	0.412841796875	0.57763671875	upper	../fonts/amplitud.ttf
1380.578	n/a	WORD	690289	wordpools/wasnorm_wordpool.txt	LTP075	ltpFR	3	8	1	BIOLOGIST	128	n/a	1	1	0.412841796875	0.57763671875	upper	../fonts/amplitud.ttf
1384.528	n/a	WORD	692264	wordpools/wasnorm_wordpool.txt	LTP075	ltpFR	3	8	1	JAW	751	n/a	0	1	0.412841796875	0.57763671875	upper	../fonts/amplitud.ttf
1388.536	n/a	WORD	694268	wordpools/wasnorm_wordpool.txt	LTP075	ltpFR	3	8	1	NUN	962	n/a	1	1	0.412841796875	0.57763671875	upper	../fonts/amplitud.ttf
1392.562	n/a	WORD	696281	wordpools/wasnorm_wordpool.txt	LTP075	ltpFR	3	8	1	CACTUS	215	n/a	1	1	0.412841796875	0.57763671875	upper	../fonts/amplitud.ttf
1396.728	n/a	WORD	698364	wordpools/wasnorm_wordpool.txt	LTP075	ltpFR	3	8	1	PERISCOPE	1050	n/a	0	1	0.412841796875	0.57763671875	upper	../fonts/amplitud.ttf
1400.844	n/a	WORD	700422	wordpools/wasnorm_wordpool.txt	LTP075	ltpFR	3	8	1	MONK	910	n/a	1	1	0.412841796875	0.57763671875	upper	../fonts/amplitud.ttf
1406.568	n/a	REC_START	703284	n/a	LTP075	ltpFR	3	8	n/a	n/a	n/a	n/a	n/a	n/a	n/a	n/a	n/a	n/a
1407.736	n/a	REC_WORD	703868	wordpools/wasnorm_wordpool.txt	LTP075	ltpFR	3	8	1	BISON	131	n/a	1	n/a	n/a	n/a	n/a	n/a
1408.64	n/a	REC_WORD	704320	wordpools/wasnorm_wordpool.txt	LTP075	ltpFR	3	8	1	PERISCOPE	1050	n/a	0	n/a	n/a	n/a	n/a	n/a
1410.416	n/a	REC_WORD	705208	wordpools/wasnorm_wordpool.txt	LTP075	ltpFR	3	8	1	MONK	910	n/a	1	n/a	n/a	n/a	n/a	n/a
1411.74	n/a	REC_WORD	705870	wordpools/wasnorm_wordpool.txt	LTP075	ltpFR	3	8	1	HUMAN	726	n/a	1	n/a	n/a	n/a	n/a	n/a
1413.42	n/a	REC_WORD	706710	wordpools/wasnorm_wordpool.txt	LTP075	ltpFR	3	8	1	UNIVERSE	1540	n/a	0	n/a	n/a	n/a	n/a	n/a
1415.846	n/a	REC_WORD	707923	wordpools/wasnorm_wordpool.txt	LTP075	ltpFR	3	8	1	CLIPPERS	324	n/a	0	n/a	n/a	n/a	n/a	n/a
1491.35	n/a	WORD	745675	wordpools/wasnorm_wordpool.txt	LTP075	ltpFR	3	9	0	FINGERNAIL	568	n/a	0	0	0.5869140625	0.422607421875	lower	../fonts/zerothre.ttf
1495.168	n/a	WORD	747584	wordpools/wasnorm_wordpool.txt	LTP075	ltpFR	3	9	0	BERRY	122	n/a	0	0	0.5869140625	0.422607421875	lower	../fonts/zerothre.ttf
1499.25	n/a	WORD	749625	wordpools/wasnorm_wordpool.txt	LTP075	ltpFR	3	9	0	MATCH	878	n/a	0	0	0.5869140625	0.422607421875	lower	../fonts/zerothre.ttf
1503.168	n/a	WORD	751584	wordpools/wasnorm_wordpool.txt	LTP075	ltpFR	3	9	0	WRITER	1627	n/a	1	0	0.5869140625	0.422607421875	lower	../fonts/zerothre.ttf
1507.126	n/a	WORD	753563	wordpools/wasnorm_wordpool.txt	LTP075	ltpFR	3	9	0	AUTHOR	61	n/a	1	0	0.5869140625	0.422607421875	lower	../fonts/zerothre.ttf
1511.284	n/a	WORD	755642	wordpools/wasnorm_wordpool.txt	LTP075	ltpFR	3	9	0	WRIST	1626	n/a	0	0	0.5869140625	0.422607421875	lower	../fonts/zerothre.ttf
1515.11	n/a	WORD	757555	wordpools/wasnorm_wordpool.txt	LTP075	ltpFR	3	9	0	SUGAR	1401	n/a	0	0	0.5869140625	0.422607421875	lower	../fonts/zerothre.ttf
1518.976	n/a	WORD	759488	wordpools/wasnorm_wordpool.txt	LTP075	ltpFR	3	9	0	VINEGAR	1569	n/a	0	0	0.5869140625	0.422607421875	lower	../fonts/zerothre.ttf
1522.866	n/a	WORD	761433	wordpools/wasnorm_wordpool.txt	LTP075	ltpFR	3	9	0	DIARY	460	n/a	0	0	0.5869140625	0.422607421875	lower	../fonts/zerothre.ttf
1527.05	n/a	WORD	763525	wordpools/wasnorm_wordpool.txt	LTP075	ltpFR	3	9	0	BOXER	160	n/a	1	0	0.5869140625	0.422607421875	lower	../fonts/zerothre.ttf
1530.856	n/a	WORD	765428	wordpools/wasnorm_wordpool.txt	LTP075	ltpFR	3	9	0	EXPLOSION	544	n/a	1	0	0.5869140625	0.422607421875	lower	../fonts/zerothre.ttf
1534.966	n/a	WORD	767483	wordpools/wasnorm_wordpool.txt	LTP075	ltpFR	3	9	0	TROMBONE	1508	n/a	1	0	0.5869140625	0.422607421875	lower	../fonts/zerothre.ttf
1538.95	n/a	WORD	769475	wordpools/wasnorm_wordpool.txt	LTP075	ltpFR	3	9	0	PROFESSOR	1131	n/a	1	0	0.5869140625	0.422607421875	lower	../fonts/zerothre.ttf
1542.832	n/a	WORD	771416	wordpools/wasnorm_wordpool.txt	LTP075	ltpFR	3	9	0	DIRECTOR	471	n/a	1	0	0.5869140625	0.422607421875	lower	../fonts/zerothre.ttf
1546.698	n/a	WORD	773349	wordpools/wasnorm_wordpool.txt	LTP075	ltpFR	3	9	0	BOY	161	n/a	1	0	0.5869140625	0.422607421875	lower	../fonts/zerothre.ttf
1550.632	n/a	WORD	775316	wordpools/wasnorm_wordpool.txt	LTP075	ltpFR	3	9	0	TRUMPET	1513	n/a	1	0	0.5869140625	0.422607421875	lower	../fonts/zerothre.ttf
1556.532	n/a	REC_START	778266	n/a	LTP075	ltpFR	3	9	n/a	n/a	n/a	n/a	n/a	n/a	n/a	n/a	n/a	n/a
1557.174	n/a	REC_WORD	778587	wordpools/wasnorm_wordpool.txt	LTP075	ltpFR	3	9	0	TRUMPET	1513	n/a	1	n/a	n/a	n/a	n/a	n/a
1558.284	n/a	REC_WORD	779142	wordpools/wasnorm_wordpool.txt	LTP075	ltpFR	3	9	0	PROFESSOR	1131	n/a	1	n/a	n/a	n/a	n/a	n/a
1560.266	n/a	REC_WORD	780133	wordpools/wasnorm_wordpool.txt	LTP075	ltpFR	3	9	0	BOY	161	n/a	1	n/a	n/a	n/a	n/a	n/a
1563.472	n/a	REC_WORD	781736	wordpools/wasnorm_wordpool.txt	LTP075	ltpFR	3	9	0	TROMBONE	1508	n/a	1	n/a	n/a	n/a	n/a	n/a
1566.666	n/a	REC_WORD	783333	wordpools/wasnorm_wordpool.txt	LTP075	ltpFR	3	9	0	FINGERNAIL	568	n/a	0	n/a	n/a	n/a	n/a	n/a
1569.734	n/a	REC_WORD	784867	wordpools/wasnorm_wordpool.txt	LTP075	ltpFR	3	9	0	WRIST	1626	n/a	0	n/a	n/a	n/a	n/a	n/a
1577.3	n/a	REC_WORD	788650	wordpools/wasnorm_wordpool.txt	LTP075	ltpFR	3	9	0	BOXER	160	n/a	1	n/a	n/a	n/a	n/a	n/a
1585.452	n/a	REC_WORD	792726	wordpools/wasnorm_wordpool.txt	LTP075	ltpFR	3	9	0	PROFESSOR	1131	n/a	1	n/a	n/a	n/a	n/a	n/a
1588.448	n/a	REC_WORD	794224	wordpools/wasnorm_wordpool.txt	LTP075	ltpFR	3	9	0	WRITER	1627	n/a	1	n/a	n/a	n/a	n/a	n/a
1589.456	n/a	REC_WORD	794728	wordpools/wasnorm_wordpool.txt	LTP075	ltpFR	3	9	0	AUTHOR	61	n/a	1	n/a	n/a	n/a	n/a	n/a
1592.942	n/a	REC_WORD	796471	wordpools/wasnorm_wordpool.txt	LTP075	ltpFR	3	9	0	BOY	161	n/a	1	n/a	n/a	n/a	n/a	n/a
1635.414	n/a	WORD	817707	wordpools/wasnorm_wordpool.txt	LTP075	ltpFR	3	10	1	BAIT	70	n/a	1	1	0.412841796875	0.57763671875	upper	../fonts/amplitud.ttf
1639.496	n/a	WORD	819748	wordpools/wasnorm_wordpool.txt	LTP075	ltpFR	3	10	1	CUSTARD	429	n/a	0	1	0.412841796875	0.57763671875	upper	../fonts/amplitud.ttf
1643.414	n/a	WORD	821707	wordpools/wasnorm_wordpool.txt	LTP075	ltpFR	3	10	1	CHOCOLATE	306	n/a	0	1	0.412841796875	0.57763671875	upper	../fonts/amplitud.ttf
1647.438	n/a	WORD	823719	wordpools/wasnorm_wordpool.txt	LTP075	ltpFR	3	10	1	SUN	1406	n/a	1	1	0.412841796875	0.57763671875	upper	../fonts/amplitud.ttf
1651.588	n/a	WORD	825794	wordpools/wasnorm_wordpool.txt	LTP075	ltpFR	3	10	1	FUGITIVE	612	n/a	1	1	0.412841796875	0.57763671875	upper	../fonts/amplitud.ttf
1655.728	n/a	WORD	827864	wordpools/wasnorm_wordpool.txt	LTP075	ltpFR	3	10	1	MINK	897	n/a	0	1	0.412841796875	0.57763671875	upper	../fonts/amplitud.ttf
1659.794	n/a	WORD	829897	wordpools/wasnorm_wordpool.txt	LTP075	ltpFR	3	10	1	CONTAINER	366	n/a	0	1	0.412841796875	0.57763671875	upper	../fonts/amplitud.ttf
1663.964	n/a	WORD	831982	wordpools/wasnorm_wordpool.txt	LTP075	ltpFR	3	10	1	STEAM	1375	n/a	0	1	0.412841796875	0.57763671875	upper	../fonts/amplitud.ttf
1667.82	n/a	WORD	833910	wordpools/wasnorm_wordpool.txt	LTP075	ltpFR	3	10	1	NOOSE	956	n/a	0	1	0.412841796875	0.57763671875	upper	../fonts/amplitud.ttf
1671.686	n/a	WORD	835843	wordpools/wasnorm_wordpool.txt	LTP075	ltpFR	3	10	1	SHOELACE	1289	n/a	0	1	0.412841796875	0.57763671875	upper	../fonts/amplitud.ttf
1675.644	n/a	WORD	837822	wordpools/wasnorm_wordpool.txt	LTP075	ltpFR	3	10	1	PATIO	1025	n/a	0	1	0.412841796875	0.57763671875	upper	../fonts/amplitud.ttf
1679.678	n/a	WORD	839839	wordpools/wasnorm_wordpool.txt	LTP075	ltpFR	3	10	1	COD	340	n/a	1	1	0.412841796875	0.57763671875	upper	../fonts/amplitud.ttf
1683.712	n/a	WORD	841856	wordpools/wasnorm_wordpool.txt	LTP075	ltpFR	3	10	1	HANDCUFFS	685	n/a	0	1	0.412841796875	0.57763671875	upper	../fonts/amplitud.ttf
1687.844	n/a	WORD	843922	wordpools/wasnorm_wordpool.txt	LTP075	ltpFR	3	10	1	PLUTO	1092	n/a	0	1	0.412841796875	0.57763671875	upper	../fonts/amplitud.ttf
1692.046	n/a	WORD	846023	wordpools/wasnorm_wordpool.txt	LTP075	ltpFR	3	10	1	LADY	794	n/a	1	1	0.412841796875	0.57763671875	upper	../fonts/amplitud.ttf
1695.912	n/a	WORD	847956	wordpools/wasnorm_wordpool.txt	LTP075	ltpFR	3	10	1	COLT	349	n/a	1	1	0.412841796875	0.57763671875	upper	../fonts/amplitud.ttf
1701.836	n/a	REC_START	850918	n/a	LTP075	ltpFR	3	10	n/a	n/a	n/a	n/a	n/a	n/a	n/a	n/a	n/a	n/a
1702.3	n/a	REC_WORD	851150	wordpools/wasnorm_wordpool.txt	LTP075	ltpFR	3	10	1	COLT	349	n/a	1	n/a	n/a	n/a	n/a	n/a
1703.378	n/a	REC_WORD	851689	wordpools/wasnorm_wordpool.txt	LTP075	ltpFR	3	10	1	HANDCUFFS	685	n/a	0	n/a	n/a	n/a	n/a	n/a
1704.792	n/a	REC_WORD	852396	wordpools/wasnorm_wordpool.txt	LTP075	ltpFR	3	10	1	LADY	794	n/a	1	n/a	n/a	n/a	n/a	n/a
1706.174	n/a	REC_WORD	853087	wordpools/wasnorm_wordpool.txt	LTP075	ltpFR	3	10	1	PLUTO	1092	n/a	0	n/a	n/a	n/a	n/a	n/a
1707.584	n/a	REC_WORD	853792	wordpools/wasnorm_wordpool.txt	LTP075	ltpFR	3	10	1	SUN	1406	n/a	1	n/a	n/a	n/a	n/a	n/a
1715.742	n/a	REC_WORD	857871	wordpools/wasnorm_wordpool.txt	LTP075	ltpFR	3	10	1	COD	340	n/a	1	n/a	n/a	n/a	n/a	n/a
1717.02	n/a	REC_WORD	858510	wordpools/wasnorm_wordpool.txt	LTP075	ltpFR	3	10	1	FUGITIVE	612	n/a	1	n/a	n/a	n/a	n/a	n/a
1721.132	n/a	REC_WORD	860566	wordpools/wasnorm_wordpool.txt	LTP075	ltpFR	3	10	1	MINK	897	n/a	0	n/a	n/a	n/a	n/a	n/a
1725.112	n/a	REC_WORD	862556	wordpools/wasnorm_wordpool.txt	LTP075	ltpFR	3	10	1	NOOSE	956	n/a	0	n/a	n/a	n/a	n/a	n/a
1782.352	n/a	WORD	891176	wordpools/wasnorm_wordpool.txt	LTP075	ltpFR	3	11	0	JEEP	753	n/a	1	0	0.5869140625	0.422607421875	lower	../fonts/zerothre.ttf
1786.434	n/a	WORD	893217	wordpools/wasnorm_wordpool.txt	LTP075	ltpFR	3	11	0	JURY	766	n/a	1	0	0.5869140625	0.422607421875	lower	../fonts/zerothre.ttf
1790.252	n/a	WORD	895126	wordpools/wasnorm_wordpool.txt	LTP075	ltpFR	3	11	0	RABBIT	1152	n/a	0	0	0.5869140625	0.422607421875	lower	../fonts/zerothre.ttf
1794.202	n/a	WORD	897101	wordpools/wasnorm_wordpool.txt	LTP075	ltpFR	3	11	0	PATROL	1027	n/a	1	0	0.5869140625	0.422607421875	lower	../fonts/zerothre.ttf
1798.11	n/a	WORD	899055	wordpools/wasnorm_wordpool.txt	LTP075	ltpFR	3	11	0	WHALE	1601	n/a	1	0	0.5869140625	0.422607421875	lower	../fonts/zerothre.ttf
1802.26	n/a	WORD	901130	wordpools/wasnorm_wordpool.txt	LTP075	ltpFR	3	11	1	CLAY	320	n/a	0	1	0.412841796875	0.57763671875	upper	../fonts/amplitud.ttf
1806.326	n/a	WORD	903163	wordpools/wasnorm_wordpool.txt	LTP075	ltpFR	3	11	1	THORN	1459	n/a	0	1	0.412841796875	0.57763671875	upper	../fonts/amplitud.ttf
1810.426	n/a	WORD	905213	wordpools/wasnorm_wordpool.txt	LTP075	ltpFR	3	11	1	WOUND	1624	n/a	0	1	0.412841796875	0.57763671875	upper	../fonts/amplitud.ttf
1814.492	n/a	WORD	907246	wordpools/wasnorm_wordpool.txt	LTP075	ltpFR	3	11	1	MARINE	869	n/a	1	1	0.412841796875	0.57763671875	upper	../fonts/amplitud.ttf
1818.392	n/a	WORD	909196	wordpools/wasnorm_wordpool.txt	LTP075	ltpFR	3	11	0	SPINACH	1352	n/a	0	0	0.5869140625	0.422607421875	lower	../fonts/zerothre.ttf
1822.59	n/a	WORD	911295	wordpools/wasnorm_wordpool.txt	LTP075	ltpFR	3	11	0	CABBAGE	210	n/a	0	0	0.5869140625	0.422607421875	lower	../fonts/zerothre.ttf
1826.7	n/a	WORD	913350	wordpools/wasnorm_wordpool.txt	LTP075	ltpFR	3	11	0	GRILL	661	n/a	1	0	0.5869140625	0.422607421875	lower	../fonts/zerothre.ttf
1830.808	n/a	WORD	915404	wordpools/wasnorm_wordpool.txt	LTP075	ltpFR	3	11	1	TURKEY	1520	n/a	1	1	0.412841796875	0.57763671875	upper	../fonts/amplitud.ttf
1834.926	n/a	WORD	917463	wordpools/wasnorm_wordpool.txt	LTP075	ltpFR	3	11	1	MACARONI	851	n/a	0	1	0.412841796875	0.57763671875	upper	../fonts/amplitud.ttf
1839.042	n/a	WORD	919521	wordpools/wasnorm_wordpool.txt	LTP075	ltpFR	3	11	1	FIREPLACE	570	n/a	0	1	0.412841796875	0.57763671875	upper	../fonts/amplitud.ttf
1843.05	n/a	WORD	921525	wordpools/wasnorm_wordpool.txt	LTP075	ltpFR	3	11	1	WITNESS	1618	n/a	1	1	0.412841796875	0.57763671875	upper	../fonts/amplitud.ttf
1848.942	n/a	REC_START	924471	n/a	LTP075	ltpFR	3	11	n/a	n/a	n/a	n/a	n/a	n/a	n/a	n/a	n/a	n/a
1849.646	n/a	REC_WORD	924823	wordpools/wasnorm_wordpool.txt	LTP075	ltpFR	3	11	1	WITNESS	1618	n/a	1	n/a	n/a	n/a	n/a	n/a
1851.198	n/a	REC_WORD	925599	wordpools/wasnorm_wordpool.txt	LTP075	ltpFR	3	11	1	FIREPLACE	570	n/a	0	n/a	n/a	n/a	n/a	n/a
1853.854	n/a	REC_WORD	926927	wordpools/wasnorm_wordpool.txt	LTP075	ltpFR	3	11	0	GRILL	661	n/a	1	n/a	n/a	n/a	n/a	n/a
1859.53	n/a	REC_WORD	929765	wordpools/wasnorm_wordpool.txt	LTP075	ltpFR	3	11	0	CABBAGE	210	n/a	0	n/a	n/a	n/a	n/a	n/a
1870.952	n/a	REC_WORD	935476	wordpools/wasnorm_wordpool.txt	LTP075	ltpFR	3	11	0	JURY	766	n/a	1	n/a	n/a	n/a	n/a	n/a
1884.742	n/a	REC_WORD	942371	wordpools/wasnorm_wordpool.txt	LTP075	ltpFR	3	11	0	WHALE	1601	n/a	1	n/a	n/a	n/a	n/a	n/a
1894.78	n/a	REC_WORD	947390	wordpools/wasnorm_wordpool.txt	LTP075	ltpFR	3	11	1	FIREPLACE	570	n/a	0	n/a	n/a	n/a	n/a	n/a
1934.03	n/a	WORD	967015	wordpools/wasnorm_wordpool.txt	LTP075	ltpFR	3	12	1	COW	393	n/a	1	1	0.412841796875	0.57763671875	upper	../fonts/amplitud.ttf
1938.214	n/a	WORD	969107	wordpools/wasnorm_wordpool.txt	LTP075	ltpFR	3	12	1	DOORBELL	487	n/a	0	1	0.412841796875	0.57763671875	upper	../fonts/amplitud.ttf
1942.29	n/a	WORD	971145	wordpools/wasnorm_wordpool.txt	LTP075	ltpFR	3	12	1	PAW	1029	n/a	0	1	0.412841796875	0.57763671875	upper	../fonts/amplitud.ttf
1946.33	n/a	WORD	973165	wordpools/wasnorm_wordpool.txt	LTP075	ltpFR	3	12	1	GOAT	644	n/a	1	1	0.412841796875	0.57763671875	upper	../fonts/amplitud.ttf
1950.472	n/a	WORD	975236	wordpools/wasnorm_wordpool.txt	LTP075	ltpFR	3	12	1	TECHNICIAN	1443	n/a	1	1	0.412841796875	0.57763671875	upper	../fonts/amplitud.ttf
1954.33	n/a	WORD	977165	wordpools/wasnorm_wordpool.txt	LTP075	ltpFR	3	12	1	CHAMPAGNE	278	n/a	0	1	0.412841796875	0.57763671875	upper	../fonts/amplitud.ttf
1958.214	n/a	WORD	979107	wordpools/wasnorm_wordpool.txt	LTP075	ltpFR	3	12	1	TAVERN	1437	n/a	0	1	0.412841796875	0.57763671875	upper	../fonts/amplitud.ttf
1962.072	n/a	WORD	981036	wordpools/wasnorm_wordpool.txt	LTP075	ltpFR	3	12	1	HOOP	716	n/a	0	1	0.412841796875	0.57763671875	upper	../fonts/amplitud.ttf
1966.006	n/a	WORD	983003	wordpools/wasnorm_wordpool.txt	LTP075	ltpFR	3	12	1	SAPPHIRE	1234	n/a	0	1	0.412841796875	0.57763671875	upper	../fonts/amplitud.ttf
1969.938	n/a	WORD	984969	wordpools/wasnorm_wordpool.txt	LTP075	ltpFR	3	12	1	DIAL	457	n/a	0	1	0.412841796875	0.57763671875	upper	../fonts/amplitud.ttf
1973.996	n/a	WORD	986998	wordpools/wasnorm_wordpool.txt	LTP075	ltpFR	3	12	1	WAGON	1578	n/a	0	1	0.412841796875	0.57763671875	upper	../fonts/amplitud.ttf
1977.846	n/a	WORD	988923	wordpools/wasnorm_wordpool.txt	LTP075	ltpFR	3	12	1	DIAMOND	458	n/a	0	1	0.412841796875	0.57763671875	upper	../fonts/amplitud.ttf
1981.878	n/a	WORD	990939	wordpools/wasnorm_wordpool.txt	LTP075	ltpFR	3	12	1	NEPHEW	942	n/a	1	1	0.412841796875	0.57763671875	upper	../fonts/amplitud.ttf
1985.938	n/a	WORD	992969	wordpools/wasnorm_wordpool.txt	LTP075	ltpFR	3	12	1	PUPPY	1144	n/a	1	1	0.412841796875	0.57763671875	upper	../fonts/amplitud.ttf
1989.794	n/a	WORD	994897	wordpools/wasnorm_wordpool.txt	LTP075	ltpFR	3	12	1	CANE	231	n/a	0	1	0.412841796875	0.57763671875	upper	../fonts/amplitud.ttf
1993.97	n/a	WORD	996985	wordpools/wasnorm_wordpool.txt	LTP075	ltpFR	3	12	1	ANCESTOR	20	n/a	1	1	0.412841796875	0.57763671875	upper	../fonts/amplitud.ttf
1999.98	n/a	REC_START	999990	n/a	LTP075	ltpFR	3	12	n/a	n/a	n/a	n/a	n/a	n/a	n/a	n/a	n/a	n/a
2000.736	n/a	REC_WORD	1000368	wordpools/wasnorm_wordpool.txt	LTP075	ltpFR	3	12	1	ANCESTOR	20	n/a	1	n/a	n/a	n/a	n/a	n/a
2002.844	n/a	REC_WORD	1001422	wordpools/wasnorm_wordpool.txt	LTP075	ltpFR	3	12	1	CANE	231	n/a	0	n/a	n/a	n/a	n/a	n/a
2010.028	n/a	REC_WORD	1005014	wordpools/wasnorm_wordpool.txt	LTP075	ltpFR	3	12	n/a	UNCLE	1536	n/a	n/a	n/a	n/a	n/a	n/a	n/a
2021.62	n/a	REC_WORD_VV	1010810	wordpools/wasnorm_wordpool.txt	LTP075	ltpFR	3	12	n/a	<>	-1	n/a	n/a	n/a	n/a	n/a	n/a	n/a
2075.568	n/a	REST_REWET	1037784	n/a	LTP075	ltpFR	3	12	n/a	n/a	n/a	n/a	n/a	n/a	n/a	n/a	n/a	n/a
2502.556	n/a	WORD	1251278	wordpools/wasnorm_wordpool.txt	LTP075	ltpFR	3	13	-1	CORAL	378	n/a	-1	1	1.0	1.0	upper	../fonts/Verdana.ttf
2506.732	n/a	WORD	1253366	wordpools/wasnorm_wordpool.txt	LTP075	ltpFR	3	13	-1	TORTOISE	1486	n/a	-1	1	1.0	1.0	upper	../fonts/Verdana.ttf
2510.874	n/a	WORD	1255437	wordpools/wasnorm_wordpool.txt	LTP075	ltpFR	3	13	-1	BEAVER	109	n/a	-1	1	1.0	1.0	upper	../fonts/Verdana.ttf
2514.832	n/a	WORD	1257416	wordpools/wasnorm_wordpool.txt	LTP075	ltpFR	3	13	-1	FUNGUS	614	n/a	-1	1	1.0	1.0	upper	../fonts/Verdana.ttf
2518.906	n/a	WORD	1259453	wordpools/wasnorm_wordpool.txt	LTP075	ltpFR	3	13	-1	CARD	243	n/a	-1	1	1.0	1.0	upper	../fonts/Verdana.ttf
2523.048	n/a	WORD	1261524	wordpools/wasnorm_wordpool.txt	LTP075	ltpFR	3	13	-1	JOKER	759	n/a	-1	1	1.0	1.0	upper	../fonts/Verdana.ttf
2527.116	n/a	WORD	1263558	wordpools/wasnorm_wordpool.txt	LTP075	ltpFR	3	13	-1	RAILROAD	1162	n/a	-1	1	1.0	1.0	upper	../fonts/Verdana.ttf
2531.156	n/a	WORD	1265578	wordpools/wasnorm_wordpool.txt	LTP075	ltpFR	3	13	-1	SUBWAY	1400	n/a	-1	1	1.0	1.0	upper	../fonts/Verdana.ttf
2535.09	n/a	WORD	1267545	wordpools/wasnorm_wordpool.txt	LTP075	ltpFR	3	13	-1	WEED	1599	n/a	-1	1	1.0	1.0	upper	../fonts/Verdana.ttf
2538.93	n/a	WORD	1269465	wordpools/wasnorm_wordpool.txt	LTP075	ltpFR	3	13	-1	DOCTOR	478	n/a	-1	1	1.0	1.0	upper	../fonts/Verdana.ttf
2543.03	n/a	WORD	1271515	wordpools/wasnorm_wordpool.txt	LTP075	ltpFR	3	13	-1	AIRPLANE	12	n/a	-1	1	1.0	1.0	upper	../fonts/Verdana.ttf
2546.94	n/a	WORD	1273470	wordpools/wasnorm_wordpool.txt	LTP075	ltpFR	3	13	-1	JACKET	747	n/a	-1	1	1.0	1.0	upper	../fonts/Verdana.ttf
2551.024	n/a	WORD	1275512	wordpools/wasnorm_wordpool.txt	LTP075	ltpFR	3	13	-1	HOE	711	n/a	-1	1	1.0	1.0	upper	../fonts/Verdana.ttf
2554.99	n/a	WORD	1277495	wordpools/wasnorm_wordpool.txt	LTP075	ltpFR	3	13	-1	HELICOPTER	701	n/a	-1	1	1.0	1.0	upper	../fonts/Verdana.ttf
2558.846	n/a	WORD	1279423	wordpools/wasnorm_wordpool.txt	LTP075	ltpFR	3	13	-1	FORT	595	n/a	-1	1	1.0	1.0	upper	../fonts/Verdana.ttf
2562.722	n/a	WORD	1281361	wordpools/wasnorm_wordpool.txt	LTP075	ltpFR	3	13	-1	ANIMAL	23	n/a	-1	1	1.0	1.0	upper	../fonts/Verdana.ttf
2568.298	n/a	REC_START	1284149	n/a	LTP075	ltpFR	3	13	n/a	n/a	n/a	n/a	n/a	n/a	n/a	n/a	n/a	n/a
2569.03	n/a	REC_WORD	1284515	wordpools/wasnorm_wordpool.txt	LTP075	ltpFR	3	13	-1	DOCTOR	478	n/a	-1	n/a	n/a	n/a	n/a	n/a
2569.994	n/a	REC_WORD	1284997	wordpools/wasnorm_wordpool.txt	LTP075	ltpFR	3	13	-1	AIRPLANE	12	n/a	-1	n/a	n/a	n/a	n/a	n/a
2571.224	n/a	REC_WORD	1285612	wordpools/wasnorm_wordpool.txt	LTP075	ltpFR	3	13	-1	HELICOPTER	701	n/a	-1	n/a	n/a	n/a	n/a	n/a
2572.942	n/a	REC_WORD	1286471	wordpools/wasnorm_wordpool.txt	LTP075	ltpFR	3	13	-1	ANIMAL	23	n/a	-1	n/a	n/a	n/a	n/a	n/a
2574.104	n/a	REC_WORD	1287052	wordpools/wasnorm_wordpool.txt	LTP075	ltpFR	3	13	-1	FORT	595	n/a	-1	n/a	n/a	n/a	n/a	n/a
2576.516	n/a	REC_WORD	1288258	wordpools/wasnorm_wordpool.txt	LTP075	ltpFR	3	13	-1	TORTOISE	1486	n/a	-1	n/a	n/a	n/a	n/a	n/a
2647.736	n/a	WORD	1323868	wordpools/wasnorm_wordpool.txt	LTP075	ltpFR	3	14	1	BALL	73	n/a	1	1	0.412841796875	0.57763671875	upper	../fonts/amplitud.ttf
2651.928	n/a	WORD	1325964	wordpools/wasnorm_wordpool.txt	LTP075	ltpFR	3	14	1	PENGUIN	1044	n/a	1	1	0.412841796875	0.57763671875	upper	../fonts/amplitud.ttf
2656.078	n/a	WORD	1328039	wordpools/wasnorm_wordpool.txt	LTP075	ltpFR	3	14	1	LILY	821	n/a	1	1	0.412841796875	0.57763671875	upper	../fonts/amplitud.ttf
2659.97	n/a	WORD	1329985	wordpools/wasnorm_wordpool.txt	LTP075	ltpFR	3	14	0	GARDEN	623	n/a	1	0	0.5869140625	0.422607421875	lower	../fonts/zerothre.ttf
2664.094	n/a	WORD	1332047	wordpools/wasnorm_wordpool.txt	LTP075	ltpFR	3	14	0	SNORKEL	1336	n/a	0	0	0.5869140625	0.422607421875	lower	../fonts/zerothre.ttf
2668.236	n/a	WORD	1334118	wordpools/wasnorm_wordpool.txt	LTP075	ltpFR	3	14	0	BONE	148	n/a	0	0	0.5869140625	0.422607421875	lower	../fonts/zerothre.ttf
2672.304	n/a	WORD	1336152	wordpools/wasnorm_wordpool.txt	LTP075	ltpFR	3	14	0	BACKBONE	66	n/a	0	0	0.5869140625	0.422607421875	lower	../fonts/zerothre.ttf
2676.336	n/a	WORD	1338168	wordpools/wasnorm_wordpool.txt	LTP075	ltpFR	3	14	0	SEED	1266	n/a	0	0	0.5869140625	0.422607421875	lower	../fonts/zerothre.ttf
2680.386	n/a	WORD	1340193	wordpools/wasnorm_wordpool.txt	LTP075	ltpFR	3	14	1	GRASSHOPPER	656	n/a	1	1	0.412841796875	0.57763671875	upper	../fonts/amplitud.ttf
2684.41	n/a	WORD	1342205	wordpools/wasnorm_wordpool.txt	LTP075	ltpFR	3	14	1	POISON	1096	n/a	0	1	0.412841796875	0.57763671875	upper	../fonts/amplitud.ttf
2688.518	n/a	WORD	1344259	wordpools/wasnorm_wordpool.txt	LTP075	ltpFR	3	14	1	BLUEJAY	141	n/a	1	1	0.412841796875	0.57763671875	upper	../fonts/amplitud.ttf
2692.462	n/a	WORD	1346231	wordpools/wasnorm_wordpool.txt	LTP075	ltpFR	3	14	0	SPRINKLE	1359	n/a	0	0	0.5869140625	0.422607421875	lower	../fonts/zerothre.ttf
2696.626	n/a	WORD	1348313	wordpools/wasnorm_wordpool.txt	LTP075	ltpFR	3	14	0	COACH	331	n/a	1	0	0.5869140625	0.422607421875	lower	../fonts/zerothre.ttf
2700.834	n/a	WORD	1350417	wordpools/wasnorm_wordpool.txt	LTP075	ltpFR	3	14	0	TOE	1473	n/a	0	0	0.5869140625	0.422607421875	lower	../fonts/zerothre.ttf
2704.852	n/a	WORD	1352426	wordpools/wasnorm_wordpool.txt	LTP075	ltpFR	3	14	1	SCALE	1241	n/a	0	1	0.412841796875	0.57763671875	upper	../fonts/amplitud.ttf
2708.918	n/a	WORD	1354459	wordpools/wasnorm_wordpool.txt	LTP075	ltpFR	3	14	1	BELL	118	n/a	0	1	0.412841796875	0.57763671875	upper	../fonts/amplitud.ttf
2714.844	n/a	REC_START	1357422	n/a	LTP075	ltpFR	3	14	n/a	n/a	n/a	n/a	n/a	n/a	n/a	n/a	n/a	n/a
2715.6	n/a	REC_WORD	1357800	wordpools/wasnorm_wordpool.txt	LTP075	ltpFR	3	14	1	BELL	118	n/a	0	n/a	n/a	n/a	n/a	n/a
2716.552	n/a	REC_WORD	1358276	wordpools/wasnorm_wordpool.txt	LTP075	ltpFR	3	14	1	SCALE	1241	n/a	0	n/a	n/a	n/a	n/a	n/a
2718.006	n/a	REC_WORD	1359003	wordpools/wasnorm_wordpool.txt	LTP075	ltpFR	3	14	0	COACH	331	n/a	1	n/a	n/a	n/a	n/a	n/a
2719.452	n/a	REC_WORD	1359726	wordpools/wasnorm_wordpool.txt	LTP075	ltpFR	3	14	0	TOE	1473	n/a	0	n/a	n/a	n/a	n/a	n/a
2737.512	n/a	REC_WORD	1368756	wordpools/wasnorm_wordpool.txt	LTP075	ltpFR	3	14	0	BACKBONE	66	n/a	0	n/a	n/a	n/a	n/a	n/a
2739.524	n/a	REC_WORD	1369762	wordpools/wasnorm_wordpool.txt	LTP075	ltpFR	3	14	0	BONE	148	n/a	0	n/a	n/a	n/a	n/a	n/a
2794.948	n/a	WORD	1397474	wordpools/wasnorm_wordpool.txt	LTP075	ltpFR	3	15	1	POT	1114	n/a	0	1	0.412841796875	0.57763671875	upper	../fonts/amplitud.ttf
2798.95	n/a	WORD	1399475	wordpools/wasnorm_wordpool.txt	LTP075	ltpFR	3	15	1	SENATOR	1268	n/a	1	1	0.412841796875	0.57763671875	upper	../fonts/amplitud.ttf
2803.108	n/a	WORD	1401554	wordpools/wasnorm_wordpool.txt	LTP075	ltpFR	3	15	0	MAMMAL	861	n/a	1	0	0.5869140625	0.422607421875	lower	../fonts/zerothre.ttf
2807.174	n/a	WORD	1403587	wordpools/wasnorm_wordpool.txt	LTP075	ltpFR	3	15	0	ANKLE	24	n/a	0	0	0.5869140625	0.422607421875	lower	../fonts/zerothre.ttf
2811.05	n/a	WORD	1405525	wordpools/wasnorm_wordpool.txt	LTP075	ltpFR	3	15	0	BILL	126	n/a	0	0	0.5869140625	0.422607421875	lower	../fonts/zerothre.ttf
2814.948	n/a	WORD	1407474	wordpools/wasnorm_wordpool.txt	LTP075	ltpFR	3	15	0	WINGS	1614	n/a	1	0	0.5869140625	0.422607421875	lower	../fonts/zerothre.ttf
2819.058	n/a	WORD	1409529	wordpools/wasnorm_wordpool.txt	LTP075	ltpFR	3	15	0	CANARY	227	n/a	0	0	0.5869140625	0.422607421875	lower	../fonts/zerothre.ttf
2823.182	n/a	WORD	1411591	wordpools/wasnorm_wordpool.txt	LTP075	ltpFR	3	15	1	PHYSICIAN	1056	n/a	1	1	0.412841796875	0.57763671875	upper	../fonts/amplitud.ttf
2827.15	n/a	WORD	1413575	wordpools/wasnorm_wordpool.txt	LTP075	ltpFR	3	15	1	FREEWAY	603	n/a	0	1	0.412841796875	0.57763671875	upper	../fonts/amplitud.ttf
2831.174	n/a	WORD	1415587	wordpools/wasnorm_wordpool.txt	LTP075	ltpFR	3	15	1	NICKEL	950	n/a	0	1	0.412841796875	0.57763671875	upper	../fonts/amplitud.ttf
2835.306	n/a	WORD	1417653	wordpools/wasnorm_wordpool.txt	LTP075	ltpFR	3	15	1	SCIENTIST	1249	n/a	1	1	0.412841796875	0.57763671875	upper	../fonts/amplitud.ttf
2839.3	n/a	WORD	1419650	wordpools/wasnorm_wordpool.txt	LTP075	ltpFR	3	15	1	COUNTY	389	n/a	0	1	0.412841796875	0.57763671875	upper	../fonts/amplitud.ttf
2843.44	n/a	WORD	1421720	wordpools/wasnorm_wordpool.txt	LTP075	ltpFR	3	15	1	DOOR	486	n/a	0	1	0.412841796875	0.57763671875	upper	../fonts/amplitud.ttf
2847.548	n/a	WORD	1423774	wordpools/wasnorm_wordpool.txt	LTP075	ltpFR	3	15	0	HALL	677	n/a	1	0	0.5869140625	0.422607421875	lower	../fonts/zerothre.ttf
2851.614	n/a	WORD	1425807	wordpools/wasnorm_wordpool.txt	LTP075	ltpFR	3	15	0	LUMBER	848	n/a	1	0	0.5869140625	0.422607421875	lower	../fonts/zerothre.ttf
2855.788	n/a	WORD	1427894	wordpools/wasnorm_wordpool.txt	LTP075	ltpFR	3	15	0	PALM	1007	n/a	0	0	0.5869140625	0.422607421875	lower	../fonts/zerothre.ttf
2861.748	n/a	REC_START	1430874	n/a	LTP075	ltpFR	3	15	n/a	n/a	n/a	n/a	n/a	n/a	n/a	n/a	n/a	n/a
2862.428	n/a	REC_WORD	1431214	wordpools/wasnorm_wordpool.txt	LTP075	ltpFR	3	15	0	PALM	1007	n/a	0	n/a	n/a	n/a	n/a	n/a
2863.298	n/a	REC_WORD	1431649	wordpools/wasnorm_wordpool.txt	LTP075	ltpFR	3	15	0	HALL	677	n/a	1	n/a	n/a	n/a	n/a	n/a
2864.526	n/a	REC_WORD	1432263	wordpools/wasnorm_wordpool.txt	LTP075	ltpFR	3	15	0	LUMBER	848	n/a	1	n/a	n/a	n/a	n/a	n/a
2870.278	n/a	REC_WORD	1435139	wordpools/wasnorm_wordpool.txt	LTP075	ltpFR	3	15	0	ANKLE	24	n/a	0	n/a	n/a	n/a	n/a	n/a
2876.318	n/a	REC_WORD	1438159	wordpools/wasnorm_wordpool.txt	LTP075	ltpFR	3	15	0	BILL	126	n/a	0	n/a	n/a	n/a	n/a	n/a
2889.65	n/a	REC_WORD	1444825	wordpools/wasnorm_wordpool.txt	LTP075	ltpFR	3	15	1	PHYSICIAN	1056	n/a	1	n/a	n/a	n/a	n/a	n/a
2890.87	n/a	REC_WORD	1445435	wordpools/wasnorm_wordpool.txt	LTP075	ltpFR	3	15	1	SCIENTIST	1249	n/a	1	n/a	n/a	n/a	n/a	n/a
2897.34	n/a	REC_WORD	1448670	wordpools/wasnorm_wordpool.txt	LTP075	ltpFR	3	15	0	CANARY	227	n/a	0	n/a	n/a	n/a	n/a	n/a
2941.438	n/a	WORD	1470719	wordpools/wasnorm_wordpool.txt	LTP075	ltpFR	3	16	0	UNIFORM	1539	n/a	0	0	0.5869140625	0.422607421875	lower	../fonts/zerothre.ttf
2945.48	n/a	WORD	1472740	wordpools/wasnorm_wordpool.txt	LTP075	ltpFR	3	16	0	CERAMICS	271	n/a	1	0	0.5869140625	0.422607421875	lower	../fonts/zerothre.ttf
2949.594	n/a	WORD	1474797	wordpools/wasnorm_wordpool.txt	LTP075	ltpFR	3	16	0	SEASHORE	1263	n/a	1	0	0.5869140625	0.422607421875	lower	../fonts/zerothre.ttf
2953.678	n/a	WORD	1476839	wordpools/wasnorm_wordpool.txt	LTP075	ltpFR	3	16	0	TRACTOR	1493	n/a	1	0	0.5869140625	0.422607421875	lower	../fonts/zerothre.ttf
2957.496	n/a	WORD	1478748	wordpools/wasnorm_wordpool.txt	LTP075	ltpFR	3	16	0	DICE	461	n/a	0	0	0.5869140625	0.422607421875	lower	../fonts/zerothre.ttf
2961.702	n/a	WORD	1480851	wordpools/wasnorm_wordpool.txt	LTP075	ltpFR	3	16	0	OUTFIT	988	n/a	0	0	0.5869140625	0.422607421875	lower	../fonts/zerothre.ttf
2965.52	n/a	WORD	1482760	wordpools/wasnorm_wordpool.txt	LTP075	ltpFR	3	16	0	BASEMENT	94	n/a	1	0	0.5869140625	0.422607421875	lower	../fonts/zerothre.ttf
2969.636	n/a	WORD	1484818	wordpools/wasnorm_wordpool.txt	LTP075	ltpFR	3	16	0	SAUCER	1237	n/a	0	0	0.5869140625	0.422607421875	lower	../fonts/zerothre.ttf
2973.47	n/a	WORD	1486735	wordpools/wasnorm_wordpool.txt	LTP075	ltpFR	3	16	0	CIGARETTE	309	n/a	0	0	0.5869140625	0.422607421875	lower	../fonts/zerothre.ttf
2977.668	n/a	WORD	1488834	wordpools/wasnorm_wordpool.txt	LTP075	ltpFR	3	16	0	LIGHTER	819	n/a	0	0	0.5869140625	0.422607421875	lower	../fonts/zerothre.ttf
2981.802	n/a	WORD	1490901	wordpools/wasnorm_wordpool.txt	LTP075	ltpFR	3	16	0	ATTIRE	57	n/a	0	0	0.5869140625	0.422607421875	lower	../fonts/zerothre.ttf
2985.818	n/a	WORD	1492909	wordpools/wasnorm_wordpool.txt	LTP075	ltpFR	3	16	0	TUXEDO	1525	n/a	0	0	0.5869140625	0.422607421875	lower	../fonts/zerothre.ttf
2990.02	n/a	WORD	1495010	wordpools/wasnorm_wordpool.txt	LTP075	ltpFR	3	16	0	LIST	830	n/a	0	0	0.5869140625	0.422607421875	lower	../fonts/zerothre.ttf
2993.878	n/a	WORD	1496939	wordpools/wasnorm_wordpool.txt	LTP075	ltpFR	3	16	0	CLASS	318	n/a	1	0	0.5869140625	0.422607421875	lower	../fonts/zerothre.ttf
2997.786	n/a	WORD	1498893	wordpools/wasnorm_wordpool.txt	LTP075	ltpFR	3	16	0	SAND	1230	n/a	0	0	0.5869140625	0.422607421875	lower	../fonts/zerothre.ttf
3001.944	n/a	WORD	1500972	wordpools/wasnorm_wordpool.txt	LTP075	ltpFR	3	16	0	PLIERS	1089	n/a	0	0	0.5869140625	0.422607421875	lower	../fonts/zerothre.ttf
3007.978	n/a	REC_START	1503989	n/a	LTP075	ltpFR	3	16	n/a	n/a	n/a	n/a	n/a	n/a	n/a	n/a	n/a	n/a
3008.488	n/a	REC_WORD	1504244	wordpools/wasnorm_wordpool.txt	LTP075	ltpFR	3	16	0	PLIERS	1089	n/a	0	n/a	n/a	n/a	n/a	n/a
3009.596	n/a	REC_WORD	1504798	wordpools/wasnorm_wordpool.txt	LTP075	ltpFR	3	16	0	SAND	1230	n/a	0	n/a	n/a	n/a	n/a	n/a
3010.89	n/a	REC_WORD	1505445	wordpools/wasnorm_wordpool.txt	LTP075	ltpFR	3	16	0	LIST	830	n/a	0	n/a	n/a	n/a	n/a	n/a
3012.218	n/a	REC_WORD	1506109	wordpools/wasnorm_wordpool.txt	LTP075	ltpFR	3	16	0	CLASS	318	n/a	1	n/a	n/a	n/a	n/a	n/a
3013.424	n/a	REC_WORD	1506712	wordpools/wasnorm_wordpool.txt	LTP075	ltpFR	3	16	0	UNIFORM	1539	n/a	0	n/a	n/a	n/a	n/a	n/a
3014.892	n/a	REC_WORD	1507446	wordpools/wasnorm_wordpool.txt	LTP075	ltpFR	3	16	0	OUTFIT	988	n/a	0	n/a	n/a	n/a	n/a	n/a
3024.144	n/a	REC_WORD	1512072	wordpools/wasnorm_wordpool.txt	LTP075	ltpFR	3	16	0	ATTIRE	57	n/a	0	n/a	n/a	n/a	n/a	n/a
3030.62	n/a	REC_WORD	1515310	wordpools/wasnorm_wordpool.txt	LTP075	ltpFR	3	16	0	CIGARETTE	309	n/a	0	n/a	n/a	n/a	n/a	n/a
3033.178	n/a	REC_WORD	1516589	wordpools/wasnorm_wordpool.txt	LTP075	ltpFR	3	16	0	LIGHTER	819	n/a	0	n/a	n/a	n/a	n/a	n/a
3102.724	n/a	REC_START	1551362	n/a	LTP075	ltpFR	3	n/a	n/a	n/a	n/a	n/a	n/a	n/a	n/a	n/a	n/a	n/a
3103.75	n/a	FFR_REC_WORD	1551875	wordpools/wasnorm_wordpool.txt	LTP075	ltpFR	3	n/a	0	CANARY	227	n/a	0	n/a	n/a	n/a	n/a	n/a
3105.408	n/a	FFR_REC_WORD	1552704	wordpools/wasnorm_wordpool.txt	LTP075	ltpFR	3	n/a	0	UNIFORM	1539	n/a	0	n/a	n/a	n/a	n/a	n/a
3106.752	n/a	FFR_REC_WORD	1553376	wordpools/wasnorm_wordpool.txt	LTP075	ltpFR	3	n/a	0	ATTIRE	57	n/a	0	n/a	n/a	n/a	n/a	n/a
3108.272	n/a	FFR_REC_WORD	1554136	wordpools/wasnorm_wordpool.txt	LTP075	ltpFR	3	n/a	0	OUTFIT	988	n/a	0	n/a	n/a	n/a	n/a	n/a
3109.618	n/a	FFR_REC_WORD	1554809	wordpools/wasnorm_wordpool.txt	LTP075	ltpFR	3	n/a	0	FARM	552	n/a	1	n/a	n/a	n/a	n/a	n/a
3110.846	n/a	FFR_REC_WORD	1555423	wordpools/wasnorm_wordpool.txt	LTP075	ltpFR	3	n/a	1	SUN	1406	n/a	1	n/a	n/a	n/a	n/a	n/a
3112.638	n/a	FFR_REC_WORD	1556319	wordpools/wasnorm_wordpool.txt	LTP075	ltpFR	3	n/a	1	PLUTO	1092	n/a	0	n/a	n/a	n/a	n/a	n/a
3114.176	n/a	FFR_REC_WORD	1557088	wordpools/wasnorm_wordpool.txt	LTP075	ltpFR	3	n/a	0	ANKLE	24	n/a	0	n/a	n/a	n/a	n/a	n/a
3115.682	n/a	FFR_REC_WORD	1557841	wordpools/wasnorm_wordpool.txt	LTP075	ltpFR	3	n/a	0	PALM	1007	n/a	0	n/a	n/a	n/a	n/a	n/a
3117.09	n/a	FFR_REC_WORD	1558545	wordpools/wasnorm_wordpool.txt	LTP075	ltpFR	3	n/a	n/a	FINGER	567	n/a	n/a	n/a	n/a	n/a	n/a	n/a
3118.664	n/a	FFR_REC_WORD	1559332	wordpools/wasnorm_wordpool.txt	LTP075	ltpFR	3	n/a	0	TOE	1473	n/a	0	n/a	n/a	n/a	n/a	n/a
3120.12	n/a	FFR_REC_WORD	1560060	wordpools/wasnorm_wordpool.txt	LTP075	ltpFR	3	n/a	0	CIGARETTE	309	n/a	0	n/a	n/a	n/a	n/a	n/a
3122.342	n/a	FFR_REC_WORD	1561171	wordpools/wasnorm_wordpool.txt	LTP075	ltpFR	3	n/a	0	LIGHTER	819	n/a	0	n/a	n/a	n/a	n/a	n/a
3123.578	n/a	FFR_REC_WORD	1561789	wordpools/wasnorm_wordpool.txt	LTP075	ltpFR	3	n/a	1	SCIENTIST	1249	n/a	1	n/a	n/a	n/a	n/a	n/a
3125.366	n/a	FFR_REC_WORD	1562683	wordpools/wasnorm_wordpool.txt	LTP075	ltpFR	3	n/a	1	PHYSICIAN	1056	n/a	1	n/a	n/a	n/a	n/a	n/a
3134.874	n/a	FFR_REC_WORD	1567437	wordpools/wasnorm_wordpool.txt	LTP075	ltpFR	3	n/a	0	WHALE	1601	n/a	1	n/a	n/a	n/a	n/a	n/a
3140.29	n/a	FFR_REC_WORD	1570145	wordpools/wasnorm_wordpool.txt	LTP075	ltpFR	3	n/a	1	VEIN	1554	n/a	0	n/a	n/a	n/a	n/a	n/a
3141.492	n/a	FFR_REC_WORD	1570746	wordpools/wasnorm_wordpool.txt	LTP075	ltpFR	3	n/a	0	ARTERY	41	n/a	1	n/a	n/a	n/a	n/a	n/a
3142.974	n/a	FFR_REC_WORD	1571487	wordpools/wasnorm_wordpool.txt	LTP075	ltpFR	3	n/a	0	BONE	148	n/a	0	n/a	n/a	n/a	n/a	n/a
3144.454	n/a	FFR_REC_WORD	1572227	wordpools/wasnorm_wordpool.txt	LTP075	ltpFR	3	n/a	0	BACKBONE	66	n/a	0	n/a	n/a	n/a	n/a	n/a
3154.058	n/a	FFR_REC_WORD	1577029	wordpools/wasnorm_wordpool.txt	LTP075	ltpFR	3	n/a	0	CLASS	318	n/a	1	n/a	n/a	n/a	n/a	n/a
3160.916	n/a	FFR_REC_WORD	1580458	wordpools/wasnorm_wordpool.txt	LTP075	ltpFR	3	n/a	0	COACH	331	n/a	1	n/a	n/a	n/a	n/a	n/a
3179.534	n/a	FFR_REC_WORD	1589767	wordpools/wasnorm_wordpool.txt	LTP075	ltpFR	3	n/a	n/a	YARN	1631	n/a	n/a	n/a	n/a	n/a	n/a	n/a
3181.398	n/a	FFR_REC_WORD	1590699	wordpools/wasnorm_wordpool.txt	LTP075	ltpFR	3	n/a	0	THIMBLE	1458	n/a	0	n/a	n/a	n/a	n/a	n/a
3184.452	n/a	FFR_REC_WORD	1592226	wordpools/wasnorm_wordpool.txt	LTP075	ltpFR	3	n/a	0	THREAD	1460	n/a	0	n/a	n/a	n/a	n/a	n/a
3187.02	n/a	FFR_REC_WORD	1593510	wordpools/wasnorm_wordpool.txt	LTP075	ltpFR	3	n/a	0	PLIERS	1089	n/a	0	n/a	n/a	n/a	n/a	n/a
3188.254	n/a	FFR_REC_WORD	1594127	wordpools/wasnorm_wordpool.txt	LTP075	ltpFR	3	n/a	0	TROMBONE	1508	n/a	1	n/a	n/a	n/a	n/a	n/a
3190.908	n/a	FFR_REC_WORD	1595454	wordpools/wasnorm_wordpool.txt	LTP075	ltpFR	3	n/a	n/a	VIOLIN	1571	n/a	n/a	n/a	n/a	n/a	n/a	n/a
3197.022	n/a	FFR_REC_WORD	1598511	wordpools/wasnorm_wordpool.txt	LTP075	ltpFR	3	n/a	n/a	GUY	-1	n/a	n/a	n/a	n/a	n/a	n/a	n/a
3199.306	n/a	FFR_REC_WORD	1599653	wordpools/wasnorm_wordpool.txt	LTP075	ltpFR	3	n/a	0	BOY	161	n/a	1	n/a	n/a	n/a	n/a	n/a
3200.754	n/a	FFR_REC_WORD	1600377	wordpools/wasnorm_wordpool.txt	LTP075	ltpFR	3	n/a	-1	GIRL	637	n/a	-1	n/a	n/a	n/a	n/a	n/a
3202.042	n/a	FFR_REC_WORD	1601021	wordpools/wasnorm_wordpool.txt	LTP075	ltpFR	3	n/a	n/a	PERSON	1052	n/a	n/a	n/a	n/a	n/a	n/a	n/a
3203.18	n/a	FFR_REC_WORD	1601590	wordpools/wasnorm_wordpool.txt	LTP075	ltpFR	3	n/a	1	HUMAN	726	n/a	1	n/a	n/a	n/a	n/a	n/a
3207.188	n/a	FFR_REC_WORD	1603594	wordpools/wasnorm_wordpool.txt	LTP075	ltpFR	3	n/a	n/a	PLANET	1082	n/a	n/a	n/a	n/a	n/a	n/a	n/a
3210.122	n/a	FFR_REC_WORD	1605061	wordpools/wasnorm_wordpool.txt	LTP075	ltpFR	3	n/a	n/a	ATMOSPHERE	54	n/a	n/a	n/a	n/a	n/a	n/a	n/a
3218.708	n/a	FFR_REC_WORD	1609354	wordpools/wasnorm_wordpool.txt	LTP075	ltpFR	3	n/a	-1	TORTOISE	1486	n/a	-1	n/a	n/a	n/a	n/a	n/a
3222.148	n/a	FFR_REC_WORD	1611074	wordpools/wasnorm_wordpool.txt	LTP075	ltpFR	3	n/a	1	COD	340	n/a	1	n/a	n/a	n/a	n/a	n/a
3227.57	n/a	FFR_REC_WORD	1613785	wordpools/wasnorm_wordpool.txt	LTP075	ltpFR	3	n/a	0	WINGS	1614	n/a	1	n/a	n/a	n/a	n/a	n/a
3230.192	n/a	FFR_REC_WORD	1615096	wordpools/wasnorm_wordpool.txt	LTP075	ltpFR	3	n/a	0	HAWK	692	n/a	1	n/a	n/a	n/a	n/a	n/a
3237.626	n/a	FFR_REC_WORD	1618813	wordpools/wasnorm_wordpool.txt	LTP075	ltpFR	3	n/a	0	BILL	126	n/a	0	n/a	n/a	n/a	n/a	n/a
3241.784	n/a	FFR_REC_WORD	1620892	wordpools/wasnorm_wordpool.txt	LTP075	ltpFR	3	n/a	0	CERAMICS	271	n/a	1	n/a	n/a	n/a	n/a	n/a
3245.128	n/a	FFR_REC_WORD	1622564	wordpools/wasnorm_wordpool.txt	LTP075	ltpFR	3	n/a	0	SAUCER	1237	n/a	0	n/a	n/a	n/a	n/a	n/a
3261.66	n/a	FFR_REC_WORD	1630830	wordpools/wasnorm_wordpool.txt	LTP075	ltpFR	3	n/a	-1	WEED	1599	n/a	-1	n/a	n/a	n/a	n/a	n/a
3275.922	n/a	FFR_REC_WORD	1637961	wordpools/wasnorm_wordpool.txt	LTP075	ltpFR	3	n/a	0	CABBAGE	210	n/a	0	n/a	n/a	n/a	n/a	n/a
3290.828	n/a	FFR_REC_WORD	1645414	wordpools/wasnorm_wordpool.txt	LTP075	ltpFR	3	n/a	0	PROFESSOR	1131	n/a	1	n/a	n/a	n/a	n/a	n/a
3396.376	n/a	FFR_REC_WORD	1698188	wordpools/wasnorm_wordpool.txt	LTP075	ltpFR	3	n/a	0	WORM	1623	n/a	0	n/a	n/a	n/a	n/a	n/a
3427.026	n/a	REC_START	1713513	n/a	LTP075	ltpFR	3	1	n/a	n/a	n/a	n/a	n/a	n/a	n/a	n/a	n/a	n/a
3427.058	n/a	RECOG_TARGET	1713529	n/a	LTP075	ltpFR	3	1	1	FUGITIVE	612	5	1	n/a	n/a	n/a	n/a	n/a
3429.242	n/a	RECOG_RESP	1714621	n/a	LTP075	ltpFR	3	1	1	FUGITIVE	612	n/a	1	n/a	n/a	n/a	n/a	n/a
3430.962	n/a	RECOG_CONF	1715481	n/a	LTP075	ltpFR	3	1	1	FUGITIVE	612	5	1	n/a	n/a	n/a	n/a	n/a
3432.45	n/a	RECOG_TARGET	1716225	n/a	LTP075	ltpFR	3	1	0	REPTILE	1185	5	1	n/a	n/a	n/a	n/a	n/a
3433.258	n/a	RECOG_RESP	1716629	n/a	LTP075	ltpFR	3	1	0	REPTILE	1185	n/a	1	n/a	n/a	n/a	n/a	n/a
3434.484	n/a	RECOG_CONF	1717242	n/a	LTP075	ltpFR	3	1	0	REPTILE	1185	5	1	n/a	n/a	n/a	n/a	n/a
3435.906	n/a	RECOG_LURE	1717953	n/a	LTP075	ltpFR	3	1	n/a	PUMP	1141	3	n/a	n/a	n/a	n/a	n/a	n/a
3437.592	n/a	RECOG_RESP	1718796	n/a	LTP075	ltpFR	3	1	n/a	PUMP	1141	n/a	n/a	n/a	n/a	n/a	n/a	n/a
3438.714	n/a	RECOG_CONF	1719357	n/a	LTP075	ltpFR	3	1	n/a	PUMP	1141	3	n/a	n/a	n/a	n/a	n/a	n/a
3440.258	n/a	RECOG_TARGET	1720129	n/a	LTP075	ltpFR	3	1	0	GARDEN	623	5	1	n/a	n/a	n/a	n/a	n/a
3441.254	n/a	RECOG_RESP	1720627	n/a	LTP075	ltpFR	3	1	0	GARDEN	623	n/a	1	n/a	n/a	n/a	n/a	n/a
3442.376	n/a	RECOG_CONF	1721188	n/a	LTP075	ltpFR	3	1	0	GARDEN	623	5	1	n/a	n/a	n/a	n/a	n/a
3443.79	n/a	RECOG_LURE	1721895	n/a	LTP075	ltpFR	3	1	n/a	COBWEB	337	3	n/a	n/a	n/a	n/a	n/a	n/a
3444.85	n/a	RECOG_RESP	1722425	n/a	LTP075	ltpFR	3	1	n/a	COBWEB	337	n/a	n/a	n/a	n/a	n/a	n/a	n/a
3446.078	n/a	RECOG_CONF	1723039	n/a	LTP075	ltpFR	3	1	n/a	COBWEB	337	3	n/a	n/a	n/a	n/a	n/a	n/a
3447.532	n/a	RECOG_LURE	1723766	n/a	LTP075	ltpFR	3	1	n/a	SALESMAN	1225	4	n/a	n/a	n/a	n/a	n/a	n/a
3448.472	n/a	RECOG_RESP	1724236	n/a	LTP075	ltpFR	3	1	n/a	SALESMAN	1225	n/a	n/a	n/a	n/a	n/a	n/a	n/a
3449.602	n/a	RECOG_CONF	1724801	n/a	LTP075	ltpFR	3	1	n/a	SALESMAN	1225	4	n/a	n/a	n/a	n/a	n/a	n/a
3450.982	n/a	RECOG_LURE	1725491	n/a	LTP075	ltpFR	3	1	n/a	TWINE	1529	3	n/a	n/a	n/a	n/a	n/a	n/a
3451.886	n/a	RECOG_RESP	1725943	n/a	LTP075	ltpFR	3	1	n/a	TWINE	1529	n/a	n/a	n/a	n/a	n/a	n/a	n/a
3452.964	n/a	RECOG_CONF	1726482	n/a	LTP075	ltpFR	3	1	n/a	TWINE	1529	3	n/a	n/a	n/a	n/a	n/a	n/a
3454.408	n/a	RECOG_TARGET	1727204	n/a	LTP075	ltpFR	3	1	1	OTTER	986	4	1	n/a	n/a	n/a	n/a	n/a
3455.362	n/a	RECOG_RESP	1727681	n/a	LTP075	ltpFR	3	1	1	OTTER	986	n/a	1	n/a	n/a	n/a	n/a	n/a
3456.406	n/a	RECOG_CONF	1728203	n/a	LTP075	ltpFR	3	1	1	OTTER	986	4	1	n/a	n/a	n/a	n/a	n/a
3457.864	n/a	RECOG_TARGET	1728932	n/a	LTP075	ltpFR	3	1	1	STEAM	1375	5	0	n/a	n/a	n/a	n/a	n/a
3458.836	n/a	RECOG_RESP	1729418	n/a	LTP075	ltpFR	3	1	1	STEAM	1375	n/a	0	n/a	n/a	n/a	n/a	n/a
3459.938	n/a	RECOG_CONF	1729969	n/a	LTP075	ltpFR	3	1	1	STEAM	1375	5	0	n/a	n/a	n/a	n/a	n/a
3461.316	n/a	RECOG_TARGET	1730658	n/a	LTP075	ltpFR	3	1	0	ATTIRE	57	5	0	n/a	n/a	n/a	n/a	n/a
3462.142	n/a	RECOG_RESP	1731071	n/a	LTP075	ltpFR	3	1	0	ATTIRE	57	n/a	0	n/a	n/a	n/a	n/a	n/a
3463.21	n/a	RECOG_CONF	1731605	n/a	LTP075	ltpFR	3	1	0	ATTIRE	57	5	0	n/a	n/a	n/a	n/a	n/a
3464.532	n/a	RECOG_LURE	1732266	n/a	LTP075	ltpFR	3	1	n/a	QUILL	1150	4	n/a	n/a	n/a	n/a	n/a	n/a
3465.474	n/a	RECOG_RESP	1732737	n/a	LTP075	ltpFR	3	1	n/a	QUILL	1150	n/a	n/a	n/a	n/a	n/a	n/a	n/a
3466.532	n/a	RECOG_CONF	1733266	n/a	LTP075	ltpFR	3	1	n/a	QUILL	1150	4	n/a	n/a	n/a	n/a	n/a	n/a
3467.948	n/a	RECOG_LURE	1733974	n/a	LTP075	ltpFR	3	1	n/a	SUBMARINE	1398	2	n/a	n/a	n/a	n/a	n/a	n/a
3469.576	n/a	RECOG_RESP	1734788	n/a	LTP075	ltpFR	3	1	n/a	SUBMARINE	1398	n/a	n/a	n/a	n/a	n/a	n/a	n/a
3470.724	n/a	RECOG_CONF	1735362	n/a	LTP075	ltpFR	3	1	n/a	SUBMARINE	1398	2	n/a	n/a	n/a	n/a	n/a	n/a
3472.174	n/a	RECOG_TARGET	1736087	n/a	LTP075	ltpFR	3	1	1	HOOP	716	5	0	n/a	n/a	n/a	n/a	n/a
3472.958	n/a	RECOG_RESP	1736479	n/a	LTP075	ltpFR	3	1	1	HOOP	716	n/a	0	n/a	n/a	n/a	n/a	n/a
3473.996	n/a	RECOG_CONF	1736998	n/a	LTP075	ltpFR	3	1	1	HOOP	716	5	0	n/a	n/a	n/a	n/a	n/a
3475.474	n/a	RECOG_TARGET	1737737	n/a	LTP075	ltpFR	3	1	0	ROOSTER	1209	5	1	n/a	n/a	n/a	n/a	n/a
3476.312	n/a	RECOG_RESP	1738156	n/a	LTP075	ltpFR	3	1	0	ROOSTER	1209	n/a	1	n/a	n/a	n/a	n/a	n/a
3477.338	n/a	RECOG_CONF	1738669	n/a	LTP075	ltpFR	3	1	0	ROOSTER	1209	5	1	n/a	n/a	n/a	n/a	n/a
3478.714	n/a	RECOG_TARGET	1739357	n/a	LTP075	ltpFR	3	1	0	SUGAR	1401	5	0	n/a	n/a	n/a	n/a	n/a
3479.51	n/a	RECOG_RESP	1739755	n/a	LTP075	ltpFR	3	1	0	SUGAR	1401	n/a	0	n/a	n/a	n/a	n/a	n/a
3480.522	n/a	RECOG_CONF	1740261	n/a	LTP075	ltpFR	3	1	0	SUGAR	1401	5	0	n/a	n/a	n/a	n/a	n/a
3482.04	n/a	RECOG_LURE	1741020	n/a	LTP075	ltpFR	3	1	n/a	BLACKBOARD	133	4	n/a	n/a	n/a	n/a	n/a	n/a
3483.022	n/a	RECOG_RESP	1741511	n/a	LTP075	ltpFR	3	1	n/a	BLACKBOARD	133	n/a	n/a	n/a	n/a	n/a	n/a	n/a
3484.114	n/a	RECOG_CONF	1742057	n/a	LTP075	ltpFR	3	1	n/a	BLACKBOARD	133	4	n/a	n/a	n/a	n/a	n/a	n/a
3485.522	n/a	RECOG_LURE	1742761	n/a	LTP075	ltpFR	3	1	n/a	STABLE	1363	5	n/a	n/a	n/a	n/a	n/a	n/a
3486.414	n/a	RECOG_RESP	1743207	n/a	LTP075	ltpFR	3	1	n/a	STABLE	1363	n/a	n/a	n/a	n/a	n/a	n/a	n/a
3487.576	n/a	RECOG_CONF	1743788	n/a	LTP075	ltpFR	3	1	n/a	STABLE	1363	5	n/a	n/a	n/a	n/a	n/a	n/a
3489.048	n/a	RECOG_LURE	1744524	n/a	LTP075	ltpFR	3	1	n/a	FIELD	562	3	n/a	n/a	n/a	n/a	n/a	n/a
3490.668	n/a	RECOG_RESP	1745334	n/a	LTP075	ltpFR	3	1	n/a	FIELD	562	n/a	n/a	n/a	n/a	n/a	n/a	n/a
3491.708	n/a	RECOG_CONF	1745854	n/a	LTP075	ltpFR	3	1	n/a	FIELD	562	3	n/a	n/a	n/a	n/a	n/a	n/a
3493.066	n/a	RECOG_TARGET	1746533	n/a	LTP075	ltpFR	3	1	0	BATH	98	5	1	n/a	n/a	n/a	n/a	n/a
3494.332	n/a	RECOG_RESP	1747166	n/a	LTP075	ltpFR	3	1	0	BATH	98	n/a	1	n/a	n/a	n/a	n/a	n/a
3495.398	n/a	RECOG_CONF	1747699	n/a	LTP075	ltpFR	3	1	0	BATH	98	5	1	n/a	n/a	n/a	n/a	n/a
3496.898	n/a	RECOG_TARGET	1748449	n/a	LTP075	ltpFR	3	1	1	SPATULA	1348	5	0	n/a	n/a	n/a	n/a	n/a
3497.924	n/a	RECOG_RESP	1748962	n/a	LTP075	ltpFR	3	1	1	SPATULA	1348	n/a	0	n/a	n/a	n/a	n/a	n/a
3499.22	n/a	RECOG_CONF	1749610	n/a	LTP075	ltpFR	3	1	1	SPATULA	1348	5	0	n/a	n/a	n/a	n/a	n/a
3505.024	n/a	REC_START	1752512	n/a	LTP075	ltpFR	3	2	n/a	n/a	n/a	n/a	n/a	n/a	n/a	n/a	n/a	n/a
3505.056	n/a	RECOG_LURE	1752528	n/a	LTP075	ltpFR	3	2	n/a	UTENSIL	1542	4	n/a	n/a	n/a	n/a	n/a	n/a
3506.022	n/a	RECOG_RESP	1753011	n/a	LTP075	ltpFR	3	2	n/a	UTENSIL	1542	n/a	n/a	n/a	n/a	n/a	n/a	n/a
3507.162	n/a	RECOG_CONF	1753581	n/a	LTP075	ltpFR	3	2	n/a	UTENSIL	1542	4	n/a	n/a	n/a	n/a	n/a	n/a
3508.638	n/a	RECOG_LURE	1754319	n/a	LTP075	ltpFR	3	2	n/a	CREW	406	4	n/a	n/a	n/a	n/a	n/a	n/a
3509.54	n/a	RECOG_RESP	1754770	n/a	LTP075	ltpFR	3	2	n/a	CREW	406	n/a	n/a	n/a	n/a	n/a	n/a	n/a
3510.686	n/a	RECOG_CONF	1755343	n/a	LTP075	ltpFR	3	2	n/a	CREW	406	4	n/a	n/a	n/a	n/a	n/a	n/a
3512.032	n/a	RECOG_TARGET	1756016	n/a	LTP075	ltpFR	3	2	1	WITNESS	1618	4	1	n/a	n/a	n/a	n/a	n/a
3513.232	n/a	RECOG_RESP	1756616	n/a	LTP075	ltpFR	3	2	1	WITNESS	1618	n/a	1	n/a	n/a	n/a	n/a	n/a
3514.37	n/a	RECOG_CONF	1757185	n/a	LTP075	ltpFR	3	2	1	WITNESS	1618	4	1	n/a	n/a	n/a	n/a	n/a
3515.88	n/a	RECOG_TARGET	1757940	n/a	LTP075	ltpFR	3	2	1	PUPPY	1144	5	1	n/a	n/a	n/a	n/a	n/a
3517.122	n/a	RECOG_RESP	1758561	n/a	LTP075	ltpFR	3	2	1	PUPPY	1144	n/a	1	n/a	n/a	n/a	n/a	n/a
3518.27	n/a	RECOG_CONF	1759135	n/a	LTP075	ltpFR	3	2	1	PUPPY	1144	5	1	n/a	n/a	n/a	n/a	n/a
3519.746	n/a	RECOG_LURE	1759873	n/a	LTP075	ltpFR	3	2	n/a	SIRLOIN	1311	4	n/a	n/a	n/a	n/a	n/a	n/a
3520.604	n/a	RECOG_RESP	1760302	n/a	LTP075	ltpFR	3	2	n/a	SIRLOIN	1311	n/a	n/a	n/a	n/a	n/a	n/a	n/a
3521.732	n/a	RECOG_CONF	1760866	n/a	LTP075	ltpFR	3	2	n/a	SIRLOIN	1311	4	n/a	n/a	n/a	n/a	n/a	n/a
3523.164	n/a	RECOG_TARGET	1761582	n/a	LTP075	ltpFR	3	2	1	COUNTY	389	5	0	n/a	n/a	n/a	n/a	n/a
3524.09	n/a	RECOG_RESP	1762045	n/a	LTP075	ltpFR	3	2	1	COUNTY	389	n/a	0	n/a	n/a	n/a	n/a	n/a
3525.244	n/a	RECOG_CONF	1762622	n/a	LTP075	ltpFR	3	2	1	COUNTY	389	5	0	n/a	n/a	n/a	n/a	n/a
3526.754	n/a	RECOG_TARGET	1763377	n/a	LTP075	ltpFR	3	2	-1	JACKET	747	3	-1	n/a	n/a	n/a	n/a	n/a
3528.218	n/a	RECOG_RESP	1764109	n/a	LTP075	ltpFR	3	2	-1	JACKET	747	n/a	-1	n/a	n/a	n/a	n/a	n/a
3529.644	n/a	RECOG_CONF	1764822	n/a	LTP075	ltpFR	3	2	-1	JACKET	747	3	-1	n/a	n/a	n/a	n/a	n/a
3531.238	n/a	RECOG_TARGET	1765619	n/a	LTP075	ltpFR	3	2	-1	RAILROAD	1162	5	-1	n/a	n/a	n/a	n/a	n/a
3532.138	n/a	RECOG_RESP	1766069	n/a	LTP075	ltpFR	3	2	-1	RAILROAD	1162	n/a	-1	n/a	n/a	n/a	n/a	n/a
3533.258	n/a	RECOG_CONF	1766629	n/a	LTP075	ltpFR	3	2	-1	RAILROAD	1162	5	-1	n/a	n/a	n/a	n/a	n/a
3534.73	n/a	RECOG_LURE	1767365	n/a	LTP075	ltpFR	3	2	n/a	ONION	977	3	n/a	n/a	n/a	n/a	n/a	n/a
3535.882	n/a	RECOG_RESP	1767941	n/a	LTP075	ltpFR	3	2	n/a	ONION	977	n/a	n/a	n/a	n/a	n/a	n/a	n/a
3537.048	n/a	RECOG_CONF	1768524	n/a	LTP075	ltpFR	3	2	n/a	ONION	977	3	n/a	n/a	n/a	n/a	n/a	n/a
3538.464	n/a	RECOG_LURE	1769232	n/a	LTP075	ltpFR	3	2	n/a	VIKING	1565	4	n/a	n/a	n/a	n/a	n/a	n/a
3539.438	n/a	RECOG_RESP	1769719	n/a	LTP075	ltpFR	3	2	n/a	VIKING	1565	n/a	n/a	n/a	n/a	n/a	n/a	n/a
3540.58	n/a	RECOG_CONF	1770290	n/a	LTP075	ltpFR	3	2	n/a	VIKING	1565	4	n/a	n/a	n/a	n/a	n/a	n/a
3542.056	n/a	RECOG_LURE	1771028	n/a	LTP075	ltpFR	3	2	n/a	OAR	966	4	n/a	n/a	n/a	n/a	n/a	n/a
3542.93	n/a	RECOG_RESP	1771465	n/a	LTP075	ltpFR	3	2	n/a	OAR	966	n/a	n/a	n/a	n/a	n/a	n/a	n/a
3544.172	n/a	RECOG_CONF	1772086	n/a	LTP075	ltpFR	3	2	n/a	OAR	966	4	n/a	n/a	n/a	n/a	n/a	n/a
3545.588	n/a	RECOG_LURE	1772794	n/a	LTP075	ltpFR	3	2	n/a	SAUSAGE	1238	2	n/a	n/a	n/a	n/a	n/a	n/a
3546.542	n/a	RECOG_RESP	1773271	n/a	LTP075	ltpFR	3	2	n/a	SAUSAGE	1238	n/a	n/a	n/a	n/a	n/a	n/a	n/a
3547.784	n/a	RECOG_CONF	1773892	n/a	LTP075	ltpFR	3	2	n/a	SAUSAGE	1238	2	n/a	n/a	n/a	n/a	n/a	n/a
3549.288	n/a	RECOG_LURE	1774644	n/a	LTP075	ltpFR	3	2	n/a	ALMOND	18	3	n/a	n/a	n/a	n/a	n/a	n/a
3550.204	n/a	RECOG_RESP	1775102	n/a	LTP075	ltpFR	3	2	n/a	ALMOND	18	n/a	n/a	n/a	n/a	n/a	n/a	n/a
3551.406	n/a	RECOG_CONF	1775703	n/a	LTP075	ltpFR	3	2	n/a	ALMOND	18	3	n/a	n/a	n/a	n/a	n/a	n/a
3552.762	n/a	RECOG_TARGET	1776381	n/a	LTP075	ltpFR	3	2	0	PLIERS	1089	5	0	n/a	n/a	n/a	n/a	n/a
3553.556	n/a	RECOG_RESP	1776778	n/a	LTP075	ltpFR	3	2	0	PLIERS	1089	n/a	0	n/a	n/a	n/a	n/a	n/a
3554.75	n/a	RECOG_CONF	1777375	n/a	LTP075	ltpFR	3	2	0	PLIERS	1089	5	0	n/a	n/a	n/a	n/a	n/a
3556.264	n/a	RECOG_LURE	1778132	n/a	LTP075	ltpFR	3	2	n/a	BOMB	147	3	n/a	n/a	n/a	n/a	n/a	n/a
3557.088	n/a	RECOG_RESP	1778544	n/a	LTP075	ltpFR	3	2	n/a	BOMB	147	n/a	n/a	n/a	n/a	n/a	n/a	n/a
3558.392	n/a	RECOG_CONF	1779196	n/a	LTP075	ltpFR	3	2	n/a	BOMB	147	3	n/a	n/a	n/a	n/a	n/a	n/a
3559.97	n/a	RECOG_TARGET	1779985	n/a	LTP075	ltpFR	3	2	-1	COOLER	375	2	-1	n/a	n/a	n/a	n/a	n/a
3561.918	n/a	RECOG_RESP	1780959	n/a	LTP075	ltpFR	3	2	-1	COOLER	375	n/a	-1	n/a	n/a	n/a	n/a	n/a
3563.01	n/a	RECOG_CONF	1781505	n/a	LTP075	ltpFR	3	2	-1	COOLER	375	2	-1	n/a	n/a	n/a	n/a	n/a
3564.354	n/a	RECOG_TARGET	1782177	n/a	LTP075	ltpFR	3	2	0	UNIFORM	1539	5	0	n/a	n/a	n/a	n/a	n/a
3565.11	n/a	RECOG_RESP	1782555	n/a	LTP075	ltpFR	3	2	0	UNIFORM	1539	n/a	0	n/a	n/a	n/a	n/a	n/a
3566.134	n/a	RECOG_CONF	1783067	n/a	LTP075	ltpFR	3	2	0	UNIFORM	1539	5	0	n/a	n/a	n/a	n/a	n/a
3567.404	n/a	RECOG_TARGET	1783702	n/a	LTP075	ltpFR	3	2	1	CLIPPERS	324	5	0	n/a	n/a	n/a	n/a	n/a
3568.148	n/a	RECOG_RESP	1784074	n/a	LTP075	ltpFR	3	2	1	CLIPPERS	324	n/a	0	n/a	n/a	n/a	n/a	n/a
3569.266	n/a	RECOG_CONF	1784633	n/a	LTP075	ltpFR	3	2	1	CLIPPERS	324	5	0	n/a	n/a	n/a	n/a	n/a
3570.62	n/a	RECOG_TARGET	1785310	n/a	LTP075	ltpFR	3	2	-1	ANIMAL	23	5	-1	n/a	n/a	n/a	n/a	n/a
3571.422	n/a	RECOG_RESP	1785711	n/a	LTP075	ltpFR	3	2	-1	ANIMAL	23	n/a	-1	n/a	n/a	n/a	n/a	n/a
3572.628	n/a	RECOG_CONF	1786314	n/a	LTP075	ltpFR	3	2	-1	ANIMAL	23	5	-1	n/a	n/a	n/a	n/a	n/a
3574.104	n/a	RECOG_TARGET	1787052	n/a	LTP075	ltpFR	3	2	1	CUSTARD	429	5	0	n/a	n/a	n/a	n/a	n/a
3575.04	n/a	RECOG_RESP	1787520	n/a	LTP075	ltpFR	3	2	1	CUSTARD	429	n/a	0	n/a	n/a	n/a	n/a	n/a
3576.172	n/a	RECOG_CONF	1788086	n/a	LTP075	ltpFR	3	2	1	CUSTARD	429	5	0	n/a	n/a	n/a	n/a	n/a
3579.798	n/a	REC_START	1789899	n/a	LTP075	ltpFR	3	3	n/a	n/a	n/a	n/a	n/a	n/a	n/a	n/a	n/a	n/a
3579.836	n/a	RECOG_TARGET	1789918	n/a	LTP075	ltpFR	3	3	1	SENATOR	1268	3	1	n/a	n/a	n/a	n/a	n/a
3581.05	n/a	RECOG_RESP	1790525	n/a	LTP075	ltpFR	3	3	1	SENATOR	1268	n/a	1	n/a	n/a	n/a	n/a	n/a
3582.098	n/a	RECOG_CONF	1791049	n/a	LTP075	ltpFR	3	3	1	SENATOR	1268	3	1	n/a	n/a	n/a	n/a	n/a
3583.496	n/a	RECOG_TARGET	1791748	n/a	LTP075	ltpFR	3	3	-1	VETERAN	1561	5	-1	n/a	n/a	n/a	n/a	n/a
3584.222	n/a	RECOG_RESP	1792111	n/a	LTP075	ltpFR	3	3	-1	VETERAN	1561	n/a	-1	n/a	n/a	n/a	n/a	n/a
3585.45	n/a	RECOG_CONF	1792725	n/a	LTP075	ltpFR	3	3	-1	VETERAN	1561	5	-1	n/a	n/a	n/a	n/a	n/a
3586.928	n/a	RECOG_TARGET	1793464	n/a	LTP075	ltpFR	3	3	1	HUMAN	726	5	1	n/a	n/a	n/a	n/a	n/a
3587.634	n/a	RECOG_RESP	1793817	n/a	LTP075	ltpFR	3	3	1	HUMAN	726	n/a	1	n/a	n/a	n/a	n/a	n/a
3588.732	n/a	RECOG_CONF	1794366	n/a	LTP075	ltpFR	3	3	1	HUMAN	726	5	1	n/a	n/a	n/a	n/a	n/a
3590.17	n/a	RECOG_LURE	1795085	n/a	LTP075	ltpFR	3	3	n/a	FLOOR	581	5	n/a	n/a	n/a	n/a	n/a	n/a
3591.496	n/a	RECOG_RESP	1795748	n/a	LTP075	ltpFR	3	3	n/a	FLOOR	581	n/a	n/a	n/a	n/a	n/a	n/a	n/a
3592.594	n/a	RECOG_CONF	1796297	n/a	LTP075	ltpFR	3	3	n/a	FLOOR	581	5	n/a	n/a	n/a	n/a	n/a	n/a
3594.12	n/a	RECOG_TARGET	1797060	n/a	LTP075	ltpFR	3	3	0	CABINET	212	3	1	n/a	n/a	n/a	n/a	n/a
3595.132	n/a	RECOG_RESP	1797566	n/a	LTP075	ltpFR	3	3	0	CABINET	212	n/a	1	n/a	n/a	n/a	n/a	n/a
3596.236	n/a	RECOG_CONF	1798118	n/a	LTP075	ltpFR	3	3	0	CABINET	212	3	1	n/a	n/a	n/a	n/a	n/a
3597.67	n/a	RECOG_TARGET	1798835	n/a	LTP075	ltpFR	3	3	-1	CONVICT	371	5	-1	n/a	n/a	n/a	n/a	n/a
3598.56	n/a	RECOG_RESP	1799280	n/a	LTP075	ltpFR	3	3	-1	CONVICT	371	n/a	-1	n/a	n/a	n/a	n/a	n/a
3599.588	n/a	RECOG_CONF	1799794	n/a	LTP075	ltpFR	3	3	-1	CONVICT	371	5	-1	n/a	n/a	n/a	n/a	n/a
3601.112	n/a	RECOG_TARGET	1800556	n/a	LTP075	ltpFR	3	3	-1	SHORTS	1293	5	-1	n/a	n/a	n/a	n/a	n/a
3601.972	n/a	RECOG_RESP	1800986	n/a	LTP075	ltpFR	3	3	-1	SHORTS	1293	n/a	-1	n/a	n/a	n/a	n/a	n/a
3603.06	n/a	RECOG_CONF	1801530	n/a	LTP075	ltpFR	3	3	-1	SHORTS	1293	5	-1	n/a	n/a	n/a	n/a	n/a
3604.61	n/a	RECOG_LURE	1802305	n/a	LTP075	ltpFR	3	3	n/a	WART	1590	4	n/a	n/a	n/a	n/a	n/a	n/a
3605.654	n/a	RECOG_RESP	1802827	n/a	LTP075	ltpFR	3	3	n/a	WART	1590	n/a	n/a	n/a	n/a	n/a	n/a	n/a
3606.742	n/a	RECOG_CONF	1803371	n/a	LTP075	ltpFR	3	3	n/a	WART	1590	4	n/a	n/a	n/a	n/a	n/a	n/a
3608.22	n/a	RECOG_TARGET	1804110	n/a	LTP075	ltpFR	3	3	0	CERAMICS	271	5	1	n/a	n/a	n/a	n/a	n/a
3609.046	n/a	RECOG_RESP	1804523	n/a	LTP075	ltpFR	3	3	0	CERAMICS	271	n/a	1	n/a	n/a	n/a	n/a	n/a
3610.174	n/a	RECOG_CONF	1805087	n/a	LTP075	ltpFR	3	3	0	CERAMICS	271	5	1	n/a	n/a	n/a	n/a	n/a
3611.644	n/a	RECOG_TARGET	1805822	n/a	LTP075	ltpFR	3	3	0	SLIME	1327	5	0	n/a	n/a	n/a	n/a	n/a
3612.394	n/a	RECOG_RESP	1806197	n/a	LTP075	ltpFR	3	3	0	SLIME	1327	n/a	0	n/a	n/a	n/a	n/a	n/a
3613.516	n/a	RECOG_CONF	1806758	n/a	LTP075	ltpFR	3	3	0	SLIME	1327	5	0	n/a	n/a	n/a	n/a	n/a
3615.028	n/a	RECOG_LURE	1807514	n/a	LTP075	ltpFR	3	3	n/a	RACKET	1155	3	n/a	n/a	n/a	n/a	n/a	n/a
3616.45	n/a	RECOG_RESP	1808225	n/a	LTP075	ltpFR	3	3	n/a	RACKET	1155	n/a	n/a	n/a	n/a	n/a	n/a	n/a
3617.588	n/a	RECOG_CONF	1808794	n/a	LTP075	ltpFR	3	3	n/a	RACKET	1155	3	n/a	n/a	n/a	n/a	n/a	n/a
3619.096	n/a	RECOG_TARGET	1809548	n/a	LTP075	ltpFR	3	3	0	MISSILE	900	3	1	n/a	n/a	n/a	n/a	n/a
3620.148	n/a	RECOG_RESP	1810074	n/a	LTP075	ltpFR	3	3	0	MISSILE	900	n/a	1	n/a	n/a	n/a	n/a	n/a
3621.26	n/a	RECOG_CONF	1810630	n/a	LTP075	ltpFR	3	3	0	MISSILE	900	3	1	n/a	n/a	n/a	n/a	n/a
3622.628	n/a	RECOG_LURE	1811314	n/a	LTP075	ltpFR	3	3	n/a	CHAMPION	279	4	n/a	n/a	n/a	n/a	n/a	n/a
3623.634	n/a	RECOG_RESP	1811817	n/a	LTP075	ltpFR	3	3	n/a	CHAMPION	279	n/a	n/a	n/a	n/a	n/a	n/a	n/a
3624.682	n/a	RECOG_CONF	1812341	n/a	LTP075	ltpFR	3	3	n/a	CHAMPION	279	4	n/a	n/a	n/a	n/a	n/a	n/a
3626.112	n/a	RECOG_TARGET	1813056	n/a	LTP075	ltpFR	3	3	-1	CORAL	378	5	-1	n/a	n/a	n/a	n/a	n/a
3626.958	n/a	RECOG_RESP	1813479	n/a	LTP075	ltpFR	3	3	-1	CORAL	378	n/a	-1	n/a	n/a	n/a	n/a	n/a
3628.044	n/a	RECOG_CONF	1814022	n/a	LTP075	ltpFR	3	3	-1	CORAL	378	5	-1	n/a	n/a	n/a	n/a	n/a
3629.626	n/a	RECOG_LURE	1814813	n/a	LTP075	ltpFR	3	3	n/a	GORILLA	650	3	n/a	n/a	n/a	n/a	n/a	n/a
3630.608	n/a	RECOG_RESP	1815304	n/a	LTP075	ltpFR	3	3	n/a	GORILLA	650	n/a	n/a	n/a	n/a	n/a	n/a	n/a
3631.736	n/a	RECOG_CONF	1815868	n/a	LTP075	ltpFR	3	3	n/a	GORILLA	650	3	n/a	n/a	n/a	n/a	n/a	n/a
3633.17	n/a	RECOG_TARGET	1816585	n/a	LTP075	ltpFR	3	3	0	LOG	841	5	1	n/a	n/a	n/a	n/a	n/a
3634.046	n/a	RECOG_RESP	1817023	n/a	LTP075	ltpFR	3	3	0	LOG	841	n/a	1	n/a	n/a	n/a	n/a	n/a
3635.128	n/a	RECOG_CONF	1817564	n/a	LTP075	ltpFR	3	3	0	LOG	841	5	1	n/a	n/a	n/a	n/a	n/a
3636.652	n/a	RECOG_TARGET	1818326	n/a	LTP075	ltpFR	3	3	1	CHAMPAGNE	278	5	0	n/a	n/a	n/a	n/a	n/a
3637.444	n/a	RECOG_RESP	1818722	n/a	LTP075	ltpFR	3	3	1	CHAMPAGNE	278	n/a	0	n/a	n/a	n/a	n/a	n/a
3638.562	n/a	RECOG_CONF	1819281	n/a	LTP075	ltpFR	3	3	1	CHAMPAGNE	278	5	0	n/a	n/a	n/a	n/a	n/a
3640.136	n/a	RECOG_TARGET	1820068	n/a	LTP075	ltpFR	3	3	-1	GYM	674	3	-1	n/a	n/a	n/a	n/a	n/a
3641.316	n/a	RECOG_RESP	1820658	n/a	LTP075	ltpFR	3	3	-1	GYM	674	n/a	-1	n/a	n/a	n/a	n/a	n/a
3642.404	n/a	RECOG_CONF	1821202	n/a	LTP075	ltpFR	3	3	-1	GYM	674	3	-1	n/a	n/a	n/a	n/a	n/a
3643.884	n/a	RECOG_LURE	1821942	n/a	LTP075	ltpFR	3	3	n/a	BEET	115	4	n/a	n/a	n/a	n/a	n/a	n/a
3644.798	n/a	RECOG_RESP	1822399	n/a	LTP075	ltpFR	3	3	n/a	BEET	115	n/a	n/a	n/a	n/a	n/a	n/a	n/a
3645.936	n/a	RECOG_CONF	1822968	n/a	LTP075	ltpFR	3	3	n/a	BEET	115	4	n/a	n/a	n/a	n/a	n/a	n/a
3647.352	n/a	RECOG_TARGET	1823676	n/a	LTP075	ltpFR	3	3	1	BALL	73	5	1	n/a	n/a	n/a	n/a	n/a
3648.324	n/a	RECOG_RESP	1824162	n/a	LTP075	ltpFR	3	3	1	BALL	73	n/a	1	n/a	n/a	n/a	n/a	n/a
3649.526	n/a	RECOG_CONF	1824763	n/a	LTP075	ltpFR	3	3	1	BALL	73	5	1	n/a	n/a	n/a	n/a	n/a
3658.38	n/a	REC_START	1829190	n/a	LTP075	ltpFR	3	4	n/a	n/a	n/a	n/a	n/a	n/a	n/a	n/a	n/a	n/a
3658.41	n/a	RECOG_TARGET	1829205	n/a	LTP075	ltpFR	3	4	-1	BIBLE	124	3	-1	n/a	n/a	n/a	n/a	n/a
3659.768	n/a	RECOG_RESP	1829884	n/a	LTP075	ltpFR	3	4	-1	BIBLE	124	n/a	-1	n/a	n/a	n/a	n/a	n/a
3660.93	n/a	RECOG_CONF	1830465	n/a	LTP075	ltpFR	3	4	-1	BIBLE	124	3	-1	n/a	n/a	n/a	n/a	n/a
3662.46	n/a	RECOG_LURE	1831230	n/a	LTP075	ltpFR	3	4	n/a	DRESSER	496	4	n/a	n/a	n/a	n/a	n/a	n/a
3663.324	n/a	RECOG_RESP	1831662	n/a	LTP075	ltpFR	3	4	n/a	DRESSER	496	n/a	n/a	n/a	n/a	n/a	n/a	n/a
3664.382	n/a	RECOG_CONF	1832191	n/a	LTP075	ltpFR	3	4	n/a	DRESSER	496	4	n/a	n/a	n/a	n/a	n/a	n/a
3665.842	n/a	RECOG_TARGET	1832921	n/a	LTP075	ltpFR	3	4	0	THIMBLE	1458	5	0	n/a	n/a	n/a	n/a	n/a
3666.616	n/a	RECOG_RESP	1833308	n/a	LTP075	ltpFR	3	4	0	THIMBLE	1458	n/a	0	n/a	n/a	n/a	n/a	n/a
3667.704	n/a	RECOG_CONF	1833852	n/a	LTP075	ltpFR	3	4	0	THIMBLE	1458	5	0	n/a	n/a	n/a	n/a	n/a
3669.16	n/a	RECOG_TARGET	1834580	n/a	LTP075	ltpFR	3	4	1	COD	340	5	1	n/a	n/a	n/a	n/a	n/a
3669.85	n/a	RECOG_RESP	1834925	n/a	LTP075	ltpFR	3	4	1	COD	340	n/a	1	n/a	n/a	n/a	n/a	n/a
3671.136	n/a	RECOG_CONF	1835568	n/a	LTP075	ltpFR	3	4	1	COD	340	5	1	n/a	n/a	n/a	n/a	n/a
3672.494	n/a	RECOG_TARGET	1836247	n/a	LTP075	ltpFR	3	4	0	SNORKEL	1336	5	0	n/a	n/a	n/a	n/a	n/a
3673.526	n/a	RECOG_RESP	1836763	n/a	LTP075	ltpFR	3	4	0	SNORKEL	1336	n/a	0	n/a	n/a	n/a	n/a	n/a
3674.688	n/a	RECOG_CONF	1837344	n/a	LTP075	ltpFR	3	4	0	SNORKEL	1336	5	0	n/a	n/a	n/a	n/a	n/a
3676.102	n/a	RECOG_LURE	1838051	n/a	LTP075	ltpFR	3	4	n/a	FACE	547	4	n/a	n/a	n/a	n/a	n/a	n/a
3677.312	n/a	RECOG_RESP	1838656	n/a	LTP075	ltpFR	3	4	n/a	FACE	547	n/a	n/a	n/a	n/a	n/a	n/a	n/a
3678.46	n/a	RECOG_CONF	1839230	n/a	LTP075	ltpFR	3	4	n/a	FACE	547	4	n/a	n/a	n/a	n/a	n/a	n/a
3679.942	n/a	RECOG_TARGET	1839971	n/a	LTP075	ltpFR	3	4	-1	KETTLE	772	3	-1	n/a	n/a	n/a	n/a	n/a
3681.27	n/a	RECOG_RESP	1840635	n/a	LTP075	ltpFR	3	4	-1	KETTLE	772	n/a	-1	n/a	n/a	n/a	n/a	n/a
3682.372	n/a	RECOG_CONF	1841186	n/a	LTP075	ltpFR	3	4	-1	KETTLE	772	3	-1	n/a	n/a	n/a	n/a	n/a
3683.85	n/a	RECOG_LURE	1841925	n/a	LTP075	ltpFR	3	4	n/a	MAGNET	855	4	n/a	n/a	n/a	n/a	n/a	n/a
3684.776	n/a	RECOG_RESP	1842388	n/a	LTP075	ltpFR	3	4	n/a	MAGNET	855	n/a	n/a	n/a	n/a	n/a	n/a	n/a
3685.844	n/a	RECOG_CONF	1842922	n/a	LTP075	ltpFR	3	4	n/a	MAGNET	855	4	n/a	n/a	n/a	n/a	n/a	n/a
3687.334	n/a	RECOG_TARGET	1843667	n/a	LTP075	ltpFR	3	4	0	BULLET	194	3	0	n/a	n/a	n/a	n/a	n/a
3688.188	n/a	RECOG_RESP	1844094	n/a	LTP075	ltpFR	3	4	0	BULLET	194	n/a	0	n/a	n/a	n/a	n/a	n/a
3689.356	n/a	RECOG_CONF	1844678	n/a	LTP075	ltpFR	3	4	0	BULLET	194	3	0	n/a	n/a	n/a	n/a	n/a
3690.826	n/a	RECOG_TARGET	1845413	n/a	LTP075	ltpFR	3	4	0	MATCH	878	2	0	n/a	n/a	n/a	n/a	n/a
3691.686	n/a	RECOG_RESP	1845843	n/a	LTP075	ltpFR	3	4	0	MATCH	878	n/a	0	n/a	n/a	n/a	n/a	n/a
3692.798	n/a	RECOG_CONF	1846399	n/a	LTP075	ltpFR	3	4	0	MATCH	878	2	0	n/a	n/a	n/a	n/a	n/a
3694.376	n/a	RECOG_TARGET	1847188	n/a	LTP075	ltpFR	3	4	1	KNOT	788	3	0	n/a	n/a	n/a	n/a	n/a
3695.782	n/a	RECOG_RESP	1847891	n/a	LTP075	ltpFR	3	4	1	KNOT	788	n/a	0	n/a	n/a	n/a	n/a	n/a
3696.8	n/a	RECOG_CONF	1848400	n/a	LTP075	ltpFR	3	4	1	KNOT	788	3	0	n/a	n/a	n/a	n/a	n/a
3698.184	n/a	RECOG_LURE	1849092	n/a	LTP075	ltpFR	3	4	n/a	SHORTCAKE	1292	5	n/a	n/a	n/a	n/a	n/a	n/a
3699.084	n/a	RECOG_RESP	1849542	n/a	LTP075	ltpFR	3	4	n/a	SHORTCAKE	1292	n/a	n/a	n/a	n/a	n/a	n/a	n/a
3700.152	n/a	RECOG_CONF	1850076	n/a	LTP075	ltpFR	3	4	n/a	SHORTCAKE	1292	5	n/a	n/a	n/a	n/a	n/a	n/a
3701.602	n/a	RECOG_TARGET	1850801	n/a	LTP075	ltpFR	3	4	1	SCALE	1241	5	0	n/a	n/a	n/a	n/a	n/a
3702.448	n/a	RECOG_RESP	1851224	n/a	LTP075	ltpFR	3	4	1	SCALE	1241	n/a	0	n/a	n/a	n/a	n/a	n/a
3703.744	n/a	RECOG_CONF	1851872	n/a	LTP075	ltpFR	3	4	1	SCALE	1241	5	0	n/a	n/a	n/a	n/a	n/a
3705.16	n/a	RECOG_TARGET	1852580	n/a	LTP075	ltpFR	3	4	0	EXPLOSION	544	5	1	n/a	n/a	n/a	n/a	n/a
3705.924	n/a	RECOG_RESP	1852962	n/a	LTP075	ltpFR	3	4	0	EXPLOSION	544	n/a	1	n/a	n/a	n/a	n/a	n/a
3707.086	n/a	RECOG_CONF	1853543	n/a	LTP075	ltpFR	3	4	0	EXPLOSION	544	5	1	n/a	n/a	n/a	n/a	n/a
3708.6	n/a	RECOG_TARGET	1854300	n/a	LTP075	ltpFR	3	4	0	TOE	1473	5	0	n/a	n/a	n/a	n/a	n/a
3709.392	n/a	RECOG_RESP	1854696	n/a	LTP075	ltpFR	3	4	0	TOE	1473	n/a	0	n/a	n/a	n/a	n/a	n/a
3710.448	n/a	RECOG_CONF	1855224	n/a	LTP075	ltpFR	3	4	0	TOE	1473	5	0	n/a	n/a	n/a	n/a	n/a
3711.932	n/a	RECOG_TARGET	1855966	n/a	LTP075	ltpFR	3	4	0	BUS	201	2	1	n/a	n/a	n/a	n/a	n/a
3712.888	n/a	RECOG_RESP	1856444	n/a	LTP075	ltpFR	3	4	0	BUS	201	n/a	1	n/a	n/a	n/a	n/a	n/a
3714.02	n/a	RECOG_CONF	1857010	n/a	LTP075	ltpFR	3	4	0	BUS	201	2	1	n/a	n/a	n/a	n/a	n/a
3715.45	n/a	RECOG_LURE	1857725	n/a	LTP075	ltpFR	3	4	n/a	ALLEY	15	5	n/a	n/a	n/a	n/a	n/a	n/a
3716.5	n/a	RECOG_RESP	1858250	n/a	LTP075	ltpFR	3	4	n/a	ALLEY	15	n/a	n/a	n/a	n/a	n/a	n/a	n/a
3717.752	n/a	RECOG_CONF	1858876	n/a	LTP075	ltpFR	3	4	n/a	ALLEY	15	5	n/a	n/a	n/a	n/a	n/a	n/a
3719.142	n/a	RECOG_LURE	1859571	n/a	LTP075	ltpFR	3	4	n/a	LANDSCAPE	799	4	n/a	n/a	n/a	n/a	n/a	n/a
3720.226	n/a	RECOG_RESP	1860113	n/a	LTP075	ltpFR	3	4	n/a	LANDSCAPE	799	n/a	n/a	n/a	n/a	n/a	n/a	n/a
3721.134	n/a	RECOG_CONF	1860567	n/a	LTP075	ltpFR	3	4	n/a	LANDSCAPE	799	4	n/a	n/a	n/a	n/a	n/a	n/a
3722.568	n/a	RECOG_TARGET	1861284	n/a	LTP075	ltpFR	3	4	0	BOXER	160	5	1	n/a	n/a	n/a	n/a	n/a
3723.31	n/a	RECOG_RESP	1861655	n/a	LTP075	ltpFR	3	4	0	BOXER	160	n/a	1	n/a	n/a	n/a	n/a	n/a
3724.358	n/a	RECOG_CONF	1862179	n/a	LTP075	ltpFR	3	4	0	BOXER	160	5	1	n/a	n/a	n/a	n/a	n/a
3725.824	n/a	RECOG_LURE	1862912	n/a	LTP075	ltpFR	3	4	n/a	TENT	1449	3	n/a	n/a	n/a	n/a	n/a	n/a
3726.664	n/a	RECOG_RESP	1863332	n/a	LTP075	ltpFR	3	4	n/a	TENT	1449	n/a	n/a	n/a	n/a	n/a	n/a	n/a
3727.77	n/a	RECOG_CONF	1863885	n/a	LTP075	ltpFR	3	4	n/a	TENT	1449	3	n/a	n/a	n/a	n/a	n/a	n/a
3733.632	n/a	REC_START	1866816	n/a	LTP075	ltpFR	3	5	n/a	n/a	n/a	n/a	n/a	n/a	n/a	n/a	n/a	n/a
3733.666	n/a	RECOG_TARGET	1866833	n/a	LTP075	ltpFR	3	5	0	CANDY	230	5	0	n/a	n/a	n/a	n/a	n/a
3734.37	n/a	RECOG_RESP	1867185	n/a	LTP075	ltpFR	3	5	0	CANDY	230	n/a	0	n/a	n/a	n/a	n/a	n/a
3735.314	n/a	RECOG_CONF	1867657	n/a	LTP075	ltpFR	3	5	0	CANDY	230	5	0	n/a	n/a	n/a	n/a	n/a
3736.558	n/a	RECOG_TARGET	1868279	n/a	LTP075	ltpFR	3	5	0	WINGS	1614	5	1	n/a	n/a	n/a	n/a	n/a
3737.114	n/a	RECOG_RESP	1868557	n/a	LTP075	ltpFR	3	5	0	WINGS	1614	n/a	1	n/a	n/a	n/a	n/a	n/a
3738.108	n/a	RECOG_CONF	1869054	n/a	LTP075	ltpFR	3	5	0	WINGS	1614	5	1	n/a	n/a	n/a	n/a	n/a
3739.682	n/a	RECOG_TARGET	1869841	n/a	LTP075	ltpFR	3	5	1	GRASSHOPPER	656	5	1	n/a	n/a	n/a	n/a	n/a
3740.496	n/a	RECOG_RESP	1870248	n/a	LTP075	ltpFR	3	5	1	GRASSHOPPER	656	n/a	1	n/a	n/a	n/a	n/a	n/a
3741.57	n/a	RECOG_CONF	1870785	n/a	LTP075	ltpFR	3	5	1	GRASSHOPPER	656	5	1	n/a	n/a	n/a	n/a	n/a
3743.032	n/a	RECOG_LURE	1871516	n/a	LTP075	ltpFR	3	5	n/a	LAPEL	800	5	n/a	n/a	n/a	n/a	n/a	n/a
3743.904	n/a	RECOG_RESP	1871952	n/a	LTP075	ltpFR	3	5	n/a	LAPEL	800	n/a	n/a	n/a	n/a	n/a	n/a	n/a
3744.912	n/a	RECOG_CONF	1872456	n/a	LTP075	ltpFR	3	5	n/a	LAPEL	800	5	n/a	n/a	n/a	n/a	n/a	n/a
3746.334	n/a	RECOG_LURE	1873167	n/a	LTP075	ltpFR	3	5	n/a	POLITICIAN	1099	5	n/a	n/a	n/a	n/a	n/a	n/a
3747.112	n/a	RECOG_RESP	1873556	n/a	LTP075	ltpFR	3	5	n/a	POLITICIAN	1099	n/a	n/a	n/a	n/a	n/a	n/a	n/a
3748.136	n/a	RECOG_CONF	1874068	n/a	LTP075	ltpFR	3	5	n/a	POLITICIAN	1099	5	n/a	n/a	n/a	n/a	n/a	n/a
3749.508	n/a	RECOG_LURE	1874754	n/a	LTP075	ltpFR	3	5	n/a	JELLY	755	4	n/a	n/a	n/a	n/a	n/a	n/a
3750.54	n/a	RECOG_RESP	1875270	n/a	LTP075	ltpFR	3	5	n/a	JELLY	755	n/a	n/a	n/a	n/a	n/a	n/a	n/a
3751.478	n/a	RECOG_CONF	1875739	n/a	LTP075	ltpFR	3	5	n/a	JELLY	755	4	n/a	n/a	n/a	n/a	n/a	n/a
3752.89	n/a	RECOG_TARGET	1876445	n/a	LTP075	ltpFR	3	5	1	MARROW	872	5	0	n/a	n/a	n/a	n/a	n/a
3753.752	n/a	RECOG_RESP	1876876	n/a	LTP075	ltpFR	3	5	1	MARROW	872	n/a	0	n/a	n/a	n/a	n/a	n/a
3754.81	n/a	RECOG_CONF	1877405	n/a	LTP075	ltpFR	3	5	1	MARROW	872	5	0	n/a	n/a	n/a	n/a	n/a
3756.25	n/a	RECOG_TARGET	1878125	n/a	LTP075	ltpFR	3	5	1	SPARROW	1347	5	1	n/a	n/a	n/a	n/a	n/a
3757.11	n/a	RECOG_RESP	1878555	n/a	LTP075	ltpFR	3	5	1	SPARROW	1347	n/a	1	n/a	n/a	n/a	n/a	n/a
3758.142	n/a	RECOG_CONF	1879071	n/a	LTP075	ltpFR	3	5	1	SPARROW	1347	5	1	n/a	n/a	n/a	n/a	n/a
3759.6	n/a	RECOG_TARGET	1879800	n/a	LTP075	ltpFR	3	5	0	CANARY	227	5	0	n/a	n/a	n/a	n/a	n/a
3761.28	n/a	RECOG_RESP	1880640	n/a	LTP075	ltpFR	3	5	0	CANARY	227	n/a	0	n/a	n/a	n/a	n/a	n/a
3762.392	n/a	RECOG_CONF	1881196	n/a	LTP075	ltpFR	3	5	0	CANARY	227	5	0	n/a	n/a	n/a	n/a	n/a
3763.798	n/a	RECOG_LURE	1881899	n/a	LTP075	ltpFR	3	5	n/a	VILLAIN	1567	3	n/a	n/a	n/a	n/a	n/a	n/a
3765.586	n/a	RECOG_RESP	1882793	n/a	LTP075	ltpFR	3	5	n/a	VILLAIN	1567	n/a	n/a	n/a	n/a	n/a	n/a	n/a
3766.694	n/a	RECOG_CONF	1883347	n/a	LTP075	ltpFR	3	5	n/a	VILLAIN	1567	3	n/a	n/a	n/a	n/a	n/a	n/a
3768.1	n/a	RECOG_LURE	1884050	n/a	LTP075	ltpFR	3	5	n/a	TOY	1492	5	n/a	n/a	n/a	n/a	n/a	n/a
3769.318	n/a	RECOG_RESP	1884659	n/a	LTP075	ltpFR	3	5	n/a	TOY	1492	n/a	n/a	n/a	n/a	n/a	n/a	n/a
3770.466	n/a	RECOG_CONF	1885233	n/a	LTP075	ltpFR	3	5	n/a	TOY	1492	5	n/a	n/a	n/a	n/a	n/a	n/a
3772.008	n/a	RECOG_TARGET	1886004	n/a	LTP075	ltpFR	3	5	-1	AIRPLANE	12	5	-1	n/a	n/a	n/a	n/a	n/a
3773.02	n/a	RECOG_RESP	1886510	n/a	LTP075	ltpFR	3	5	-1	AIRPLANE	12	n/a	-1	n/a	n/a	n/a	n/a	n/a
3774.068	n/a	RECOG_CONF	1887034	n/a	LTP075	ltpFR	3	5	-1	AIRPLANE	12	5	-1	n/a	n/a	n/a	n/a	n/a
3775.508	n/a	RECOG_LURE	1887754	n/a	LTP075	ltpFR	3	5	n/a	CONSOLE	364	3	n/a	n/a	n/a	n/a	n/a	n/a
3776.476	n/a	RECOG_RESP	1888238	n/a	LTP075	ltpFR	3	5	n/a	CONSOLE	364	n/a	n/a	n/a	n/a	n/a	n/a	n/a
3777.54	n/a	RECOG_CONF	1888770	n/a	LTP075	ltpFR	3	5	n/a	CONSOLE	364	3	n/a	n/a	n/a	n/a	n/a	n/a
3778.898	n/a	RECOG_LURE	1889449	n/a	LTP075	ltpFR	3	5	n/a	MONARCH	906	3	n/a	n/a	n/a	n/a	n/a	n/a
3780.064	n/a	RECOG_RESP	1890032	n/a	LTP075	ltpFR	3	5	n/a	MONARCH	906	n/a	n/a	n/a	n/a	n/a	n/a	n/a
3781.152	n/a	RECOG_CONF	1890576	n/a	LTP075	ltpFR	3	5	n/a	MONARCH	906	3	n/a	n/a	n/a	n/a	n/a	n/a
3782.664	n/a	RECOG_LURE	1891332	n/a	LTP075	ltpFR	3	5	n/a	LIVER	833	3	n/a	n/a	n/a	n/a	n/a	n/a
3783.77	n/a	RECOG_RESP	1891885	n/a	LTP075	ltpFR	3	5	n/a	LIVER	833	n/a	n/a	n/a	n/a	n/a	n/a	n/a
3784.852	n/a	RECOG_CONF	1892426	n/a	LTP075	ltpFR	3	5	n/a	LIVER	833	3	n/a	n/a	n/a	n/a	n/a	n/a
3786.29	n/a	RECOG_LURE	1893145	n/a	LTP075	ltpFR	3	5	n/a	TRASH	1497	4	n/a	n/a	n/a	n/a	n/a	n/a
3787.598	n/a	RECOG_RESP	1893799	n/a	LTP075	ltpFR	3	5	n/a	TRASH	1497	n/a	n/a	n/a	n/a	n/a	n/a	n/a
3788.706	n/a	RECOG_CONF	1894353	n/a	LTP075	ltpFR	3	5	n/a	TRASH	1497	4	n/a	n/a	n/a	n/a	n/a	n/a
3790.224	n/a	RECOG_LURE	1895112	n/a	LTP075	ltpFR	3	5	n/a	MOTEL	919	5	n/a	n/a	n/a	n/a	n/a	n/a
3792.332	n/a	RECOG_RESP	1896166	n/a	LTP075	ltpFR	3	5	n/a	MOTEL	919	n/a	n/a	n/a	n/a	n/a	n/a	n/a
3793.484	n/a	RECOG_CONF	1896742	n/a	LTP075	ltpFR	3	5	n/a	MOTEL	919	5	n/a	n/a	n/a	n/a	n/a	n/a
3794.898	n/a	RECOG_LURE	1897449	n/a	LTP075	ltpFR	3	5	n/a	POCKETBOOK	1094	2	n/a	n/a	n/a	n/a	n/a	n/a
3795.838	n/a	RECOG_RESP	1897919	n/a	LTP075	ltpFR	3	5	n/a	POCKETBOOK	1094	n/a	n/a	n/a	n/a	n/a	n/a	n/a
3796.826	n/a	RECOG_CONF	1898413	n/a	LTP075	ltpFR	3	5	n/a	POCKETBOOK	1094	2	n/a	n/a	n/a	n/a	n/a	n/a
3798.214	n/a	RECOG_TARGET	1899107	n/a	LTP075	ltpFR	3	5	0	MAMMAL	861	5	1	n/a	n/a	n/a	n/a	n/a
3799.41	n/a	RECOG_RESP	1899705	n/a	LTP075	ltpFR	3	5	0	MAMMAL	861	n/a	1	n/a	n/a	n/a	n/a	n/a
3800.548	n/a	RECOG_CONF	1900274	n/a	LTP075	ltpFR	3	5	0	MAMMAL	861	5	1	n/a	n/a	n/a	n/a	n/a
3802.172	n/a	RECOG_TARGET	1901086	n/a	LTP075	ltpFR	3	5	-1	SANDPAPER	1231	3	-1	n/a	n/a	n/a	n/a	n/a
3804.1	n/a	RECOG_RESP	1902050	n/a	LTP075	ltpFR	3	5	-1	SANDPAPER	1231	n/a	-1	n/a	n/a	n/a	n/a	n/a
3805.188	n/a	RECOG_CONF	1902594	n/a	LTP075	ltpFR	3	5	-1	SANDPAPER	1231	3	-1	n/a	n/a	n/a	n/a	n/a
3816.416	n/a	REC_START	1908208	n/a	LTP075	ltpFR	3	6	n/a	n/a	n/a	n/a	n/a	n/a	n/a	n/a	n/a	n/a
3816.456	n/a	RECOG_LURE	1908228	n/a	LTP075	ltpFR	3	6	n/a	NURSERY	964	4	n/a	n/a	n/a	n/a	n/a	n/a
3817.574	n/a	RECOG_RESP	1908787	n/a	LTP075	ltpFR	3	6	n/a	NURSERY	964	n/a	n/a	n/a	n/a	n/a	n/a	n/a
3818.846	n/a	RECOG_CONF	1909423	n/a	LTP075	ltpFR	3	6	n/a	NURSERY	964	4	n/a	n/a	n/a	n/a	n/a	n/a
3820.372	n/a	RECOG_TARGET	1910186	n/a	LTP075	ltpFR	3	6	-1	CEREAL	272	3	-1	n/a	n/a	n/a	n/a	n/a
3821.49	n/a	RECOG_RESP	1910745	n/a	LTP075	ltpFR	3	6	-1	CEREAL	272	n/a	-1	n/a	n/a	n/a	n/a	n/a
3822.658	n/a	RECOG_CONF	1911329	n/a	LTP075	ltpFR	3	6	-1	CEREAL	272	3	-1	n/a	n/a	n/a	n/a	n/a
3824.138	n/a	RECOG_TARGET	1912069	n/a	LTP075	ltpFR	3	6	1	JUG	762	3	0	n/a	n/a	n/a	n/a	n/a
3824.982	n/a	RECOG_RESP	1912491	n/a	LTP075	ltpFR	3	6	1	JUG	762	n/a	0	n/a	n/a	n/a	n/a	n/a
3826.418	n/a	RECOG_CONF	1913209	n/a	LTP075	ltpFR	3	6	1	JUG	762	3	0	n/a	n/a	n/a	n/a	n/a
3827.93	n/a	RECOG_TARGET	1913965	n/a	LTP075	ltpFR	3	6	1	FLUTE	585	4	0	n/a	n/a	n/a	n/a	n/a
3828.684	n/a	RECOG_RESP	1914342	n/a	LTP075	ltpFR	3	6	1	FLUTE	585	n/a	0	n/a	n/a	n/a	n/a	n/a
3829.982	n/a	RECOG_CONF	1914991	n/a	LTP075	ltpFR	3	6	1	FLUTE	585	4	0	n/a	n/a	n/a	n/a	n/a
3831.456	n/a	RECOG_LURE	1915728	n/a	LTP075	ltpFR	3	6	n/a	VINE	1568	2	n/a	n/a	n/a	n/a	n/a	n/a
3832.496	n/a	RECOG_RESP	1916248	n/a	LTP075	ltpFR	3	6	n/a	VINE	1568	n/a	n/a	n/a	n/a	n/a	n/a	n/a
3833.892	n/a	RECOG_CONF	1916946	n/a	LTP075	ltpFR	3	6	n/a	VINE	1568	2	n/a	n/a	n/a	n/a	n/a	n/a
3835.406	n/a	RECOG_TARGET	1917703	n/a	LTP075	ltpFR	3	6	-1	CROWN	415	5	-1	n/a	n/a	n/a	n/a	n/a
3836.168	n/a	RECOG_RESP	1918084	n/a	LTP075	ltpFR	3	6	-1	CROWN	415	n/a	-1	n/a	n/a	n/a	n/a	n/a
3837.444	n/a	RECOG_CONF	1918722	n/a	LTP075	ltpFR	3	6	-1	CROWN	415	5	-1	n/a	n/a	n/a	n/a	n/a
3838.938	n/a	RECOG_TARGET	1919469	n/a	LTP075	ltpFR	3	6	1	TURKEY	1520	3	1	n/a	n/a	n/a	n/a	n/a
3839.868	n/a	RECOG_RESP	1919934	n/a	LTP075	ltpFR	3	6	1	TURKEY	1520	n/a	1	n/a	n/a	n/a	n/a	n/a
3841.316	n/a	RECOG_CONF	1920658	n/a	LTP075	ltpFR	3	6	1	TURKEY	1520	3	1	n/a	n/a	n/a	n/a	n/a
3842.962	n/a	RECOG_LURE	1921481	n/a	LTP075	ltpFR	3	6	n/a	PRESIDENT	1121	2	n/a	n/a	n/a	n/a	n/a	n/a
3844.264	n/a	RECOG_RESP	1922132	n/a	LTP075	ltpFR	3	6	n/a	PRESIDENT	1121	n/a	n/a	n/a	n/a	n/a	n/a	n/a
3845.436	n/a	RECOG_CONF	1922718	n/a	LTP075	ltpFR	3	6	n/a	PRESIDENT	1121	2	n/a	n/a	n/a	n/a	n/a	n/a
3846.904	n/a	RECOG_TARGET	1923452	n/a	LTP075	ltpFR	3	6	0	RABBIT	1152	5	0	n/a	n/a	n/a	n/a	n/a
3847.626	n/a	RECOG_RESP	1923813	n/a	LTP075	ltpFR	3	6	0	RABBIT	1152	n/a	0	n/a	n/a	n/a	n/a	n/a
3848.91	n/a	RECOG_CONF	1924455	n/a	LTP075	ltpFR	3	6	0	RABBIT	1152	5	0	n/a	n/a	n/a	n/a	n/a
3850.638	n/a	RECOG_TARGET	1925319	n/a	LTP075	ltpFR	3	6	-1	NIECE	952	5	-1	n/a	n/a	n/a	n/a	n/a
3851.484	n/a	RECOG_RESP	1925742	n/a	LTP075	ltpFR	3	6	-1	NIECE	952	n/a	-1	n/a	n/a	n/a	n/a	n/a
3852.85	n/a	RECOG_CONF	1926425	n/a	LTP075	ltpFR	3	6	-1	NIECE	952	5	-1	n/a	n/a	n/a	n/a	n/a
3854.496	n/a	RECOG_LURE	1927248	n/a	LTP075	ltpFR	3	6	n/a	CRAB	397	2	n/a	n/a	n/a	n/a	n/a	n/a
3855.55	n/a	RECOG_RESP	1927775	n/a	LTP075	ltpFR	3	6	n/a	CRAB	397	n/a	n/a	n/a	n/a	n/a	n/a	n/a
3856.772	n/a	RECOG_CONF	1928386	n/a	LTP075	ltpFR	3	6	n/a	CRAB	397	2	n/a	n/a	n/a	n/a	n/a	n/a
3858.172	n/a	RECOG_TARGET	1929086	n/a	LTP075	ltpFR	3	6	0	MECHANIC	884	5	1	n/a	n/a	n/a	n/a	n/a
3858.962	n/a	RECOG_RESP	1929481	n/a	LTP075	ltpFR	3	6	0	MECHANIC	884	n/a	1	n/a	n/a	n/a	n/a	n/a
3860.124	n/a	RECOG_CONF	1930062	n/a	LTP075	ltpFR	3	6	0	MECHANIC	884	5	1	n/a	n/a	n/a	n/a	n/a
3861.662	n/a	RECOG_TARGET	1930831	n/a	LTP075	ltpFR	3	6	0	WORM	1623	5	0	n/a	n/a	n/a	n/a	n/a
3862.378	n/a	RECOG_RESP	1931189	n/a	LTP075	ltpFR	3	6	0	WORM	1623	n/a	0	n/a	n/a	n/a	n/a	n/a
3863.446	n/a	RECOG_CONF	1931723	n/a	LTP075	ltpFR	3	6	0	WORM	1623	5	0	n/a	n/a	n/a	n/a	n/a
3864.996	n/a	RECOG_TARGET	1932498	n/a	LTP075	ltpFR	3	6	1	RECEIPT	1173	5	0	n/a	n/a	n/a	n/a	n/a
3865.89	n/a	RECOG_RESP	1932945	n/a	LTP075	ltpFR	3	6	1	RECEIPT	1173	n/a	0	n/a	n/a	n/a	n/a	n/a
3867.018	n/a	RECOG_CONF	1933509	n/a	LTP075	ltpFR	3	6	1	RECEIPT	1173	5	0	n/a	n/a	n/a	n/a	n/a
3868.47	n/a	RECOG_TARGET	1934235	n/a	LTP075	ltpFR	3	6	1	DETERGENT	455	5	0	n/a	n/a	n/a	n/a	n/a
3869.334	n/a	RECOG_RESP	1934667	n/a	LTP075	ltpFR	3	6	1	DETERGENT	455	n/a	0	n/a	n/a	n/a	n/a	n/a
3870.632	n/a	RECOG_CONF	1935316	n/a	LTP075	ltpFR	3	6	1	DETERGENT	455	5	0	n/a	n/a	n/a	n/a	n/a
3872.056	n/a	RECOG_TARGET	1936028	n/a	LTP075	ltpFR	3	6	1	DRINK	498	2	0	n/a	n/a	n/a	n/a	n/a
3872.956	n/a	RECOG_RESP	1936478	n/a	LTP075	ltpFR	3	6	1	DRINK	498	n/a	0	n/a	n/a	n/a	n/a	n/a
3874.218	n/a	RECOG_CONF	1937109	n/a	LTP075	ltpFR	3	6	1	DRINK	498	2	0	n/a	n/a	n/a	n/a	n/a
3875.58	n/a	RECOG_TARGET	1937790	n/a	LTP075	ltpFR	3	6	0	CIGARETTE	309	5	0	n/a	n/a	n/a	n/a	n/a
3876.428	n/a	RECOG_RESP	1938214	n/a	LTP075	ltpFR	3	6	0	CIGARETTE	309	n/a	0	n/a	n/a	n/a	n/a	n/a
3877.546	n/a	RECOG_CONF	1938773	n/a	LTP075	ltpFR	3	6	0	CIGARETTE	309	5	0	n/a	n/a	n/a	n/a	n/a
3878.896	n/a	RECOG_TARGET	1939448	n/a	LTP075	ltpFR	3	6	-1	DOCTOR	478	5	-1	n/a	n/a	n/a	n/a	n/a
3879.55	n/a	RECOG_RESP	1939775	n/a	LTP075	ltpFR	3	6	-1	DOCTOR	478	n/a	-1	n/a	n/a	n/a	n/a	n/a
3880.748	n/a	RECOG_CONF	1940374	n/a	LTP075	ltpFR	3	6	-1	DOCTOR	478	5	-1	n/a	n/a	n/a	n/a	n/a
3882.212	n/a	RECOG_LURE	1941106	n/a	LTP075	ltpFR	3	6	n/a	SCAPEGOAT	1244	5	n/a	n/a	n/a	n/a	n/a	n/a
3883.118	n/a	RECOG_RESP	1941559	n/a	LTP075	ltpFR	3	6	n/a	SCAPEGOAT	1244	n/a	n/a	n/a	n/a	n/a	n/a	n/a
3884.21	n/a	RECOG_CONF	1942105	n/a	LTP075	ltpFR	3	6	n/a	SCAPEGOAT	1244	5	n/a	n/a	n/a	n/a	n/a	n/a
3885.694	n/a	RECOG_TARGET	1942847	n/a	LTP075	ltpFR	3	6	0	DIARY	460	5	0	n/a	n/a	n/a	n/a	n/a
3886.68	n/a	RECOG_RESP	1943340	n/a	LTP075	ltpFR	3	6	0	DIARY	460	n/a	0	n/a	n/a	n/a	n/a	n/a
3887.872	n/a	RECOG_CONF	1943936	n/a	LTP075	ltpFR	3	6	0	DIARY	460	5	0	n/a	n/a	n/a	n/a	n/a
3897.466	n/a	REC_START	1948733	n/a	LTP075	ltpFR	3	7	n/a	n/a	n/a	n/a	n/a	n/a	n/a	n/a	n/a	n/a
3897.496	n/a	RECOG_TARGET	1948748	n/a	LTP075	ltpFR	3	7	1	DIAL	457	3	0	n/a	n/a	n/a	n/a	n/a
3898.718	n/a	RECOG_RESP	1949359	n/a	LTP075	ltpFR	3	7	1	DIAL	457	n/a	0	n/a	n/a	n/a	n/a	n/a
3900.226	n/a	RECOG_CONF	1950113	n/a	LTP075	ltpFR	3	7	1	DIAL	457	3	0	n/a	n/a	n/a	n/a	n/a
3901.678	n/a	RECOG_TARGET	1950839	n/a	LTP075	ltpFR	3	7	-1	CAT	257	4	-1	n/a	n/a	n/a	n/a	n/a
3902.64	n/a	RECOG_RESP	1951320	n/a	LTP075	ltpFR	3	7	-1	CAT	257	n/a	-1	n/a	n/a	n/a	n/a	n/a
3903.846	n/a	RECOG_CONF	1951923	n/a	LTP075	ltpFR	3	7	-1	CAT	257	4	-1	n/a	n/a	n/a	n/a	n/a
3905.17	n/a	RECOG_LURE	1952585	n/a	LTP075	ltpFR	3	7	n/a	FACTORY	548	2	n/a	n/a	n/a	n/a	n/a	n/a
3906.062	n/a	RECOG_RESP	1953031	n/a	LTP075	ltpFR	3	7	n/a	FACTORY	548	n/a	n/a	n/a	n/a	n/a	n/a	n/a
3907.17	n/a	RECOG_CONF	1953585	n/a	LTP075	ltpFR	3	7	n/a	FACTORY	548	2	n/a	n/a	n/a	n/a	n/a	n/a
3908.57	n/a	RECOG_TARGET	1954285	n/a	LTP075	ltpFR	3	7	1	PASTRY	1022	3	0	n/a	n/a	n/a	n/a	n/a
3909.764	n/a	RECOG_RESP	1954882	n/a	LTP075	ltpFR	3	7	1	PASTRY	1022	n/a	0	n/a	n/a	n/a	n/a	n/a
3910.98	n/a	RECOG_CONF	1955490	n/a	LTP075	ltpFR	3	7	1	PASTRY	1022	3	0	n/a	n/a	n/a	n/a	n/a
3912.388	n/a	RECOG_LURE	1956194	n/a	LTP075	ltpFR	3	7	n/a	FEATHER	557	4	n/a	n/a	n/a	n/a	n/a	n/a
3913.156	n/a	RECOG_RESP	1956578	n/a	LTP075	ltpFR	3	7	n/a	FEATHER	557	n/a	n/a	n/a	n/a	n/a	n/a	n/a
3914.314	n/a	RECOG_CONF	1957157	n/a	LTP075	ltpFR	3	7	n/a	FEATHER	557	4	n/a	n/a	n/a	n/a	n/a	n/a
3915.736	n/a	RECOG_LURE	1957868	n/a	LTP075	ltpFR	3	7	n/a	ROBIN	1199	5	n/a	n/a	n/a	n/a	n/a	n/a
3916.614	n/a	RECOG_RESP	1958307	n/a	LTP075	ltpFR	3	7	n/a	ROBIN	1199	n/a	n/a	n/a	n/a	n/a	n/a	n/a
3917.966	n/a	RECOG_CONF	1958983	n/a	LTP075	ltpFR	3	7	n/a	ROBIN	1199	5	n/a	n/a	n/a	n/a	n/a	n/a
3919.304	n/a	RECOG_LURE	1959652	n/a	LTP075	ltpFR	3	7	n/a	SCARF	1246	3	n/a	n/a	n/a	n/a	n/a	n/a
3920.58	n/a	RECOG_RESP	1960290	n/a	LTP075	ltpFR	3	7	n/a	SCARF	1246	n/a	n/a	n/a	n/a	n/a	n/a	n/a
3921.708	n/a	RECOG_CONF	1960854	n/a	LTP075	ltpFR	3	7	n/a	SCARF	1246	3	n/a	n/a	n/a	n/a	n/a	n/a
3923.104	n/a	RECOG_TARGET	1961552	n/a	LTP075	ltpFR	3	7	-1	LEOPARD	812	3	-1	n/a	n/a	n/a	n/a	n/a
3924.096	n/a	RECOG_RESP	1962048	n/a	LTP075	ltpFR	3	7	-1	LEOPARD	812	n/a	-1	n/a	n/a	n/a	n/a	n/a
3925.378	n/a	RECOG_CONF	1962689	n/a	LTP075	ltpFR	3	7	-1	LEOPARD	812	3	-1	n/a	n/a	n/a	n/a	n/a
3926.86	n/a	RECOG_TARGET	1963430	n/a	LTP075	ltpFR	3	7	0	SHRIMP	1297	4	0	n/a	n/a	n/a	n/a	n/a
3927.634	n/a	RECOG_RESP	1963817	n/a	LTP075	ltpFR	3	7	0	SHRIMP	1297	n/a	0	n/a	n/a	n/a	n/a	n/a
3929.1	n/a	RECOG_CONF	1964550	n/a	LTP075	ltpFR	3	7	0	SHRIMP	1297	4	0	n/a	n/a	n/a	n/a	n/a
3930.502	n/a	RECOG_TARGET	1965251	n/a	LTP075	ltpFR	3	7	1	SCIENTIST	1249	5	1	n/a	n/a	n/a	n/a	n/a
3931.236	n/a	RECOG_RESP	1965618	n/a	LTP075	ltpFR	3	7	1	SCIENTIST	1249	n/a	1	n/a	n/a	n/a	n/a	n/a
3932.784	n/a	RECOG_CONF	1966392	n/a	LTP075	ltpFR	3	7	1	SCIENTIST	1249	5	1	n/a	n/a	n/a	n/a	n/a
3934.22	n/a	RECOG_TARGET	1967110	n/a	LTP075	ltpFR	3	7	0	CABBAGE	210	5	0	n/a	n/a	n/a	n/a	n/a
3934.958	n/a	RECOG_RESP	1967479	n/a	LTP075	ltpFR	3	7	0	CABBAGE	210	n/a	0	n/a	n/a	n/a	n/a	n/a
3936.206	n/a	RECOG_CONF	1968103	n/a	LTP075	ltpFR	3	7	0	CABBAGE	210	5	0	n/a	n/a	n/a	n/a	n/a
3937.636	n/a	RECOG_LURE	1968818	n/a	LTP075	ltpFR	3	7	n/a	AMBULANCE	19	3	n/a	n/a	n/a	n/a	n/a	n/a
3938.47	n/a	RECOG_RESP	1969235	n/a	LTP075	ltpFR	3	7	n/a	AMBULANCE	19	n/a	n/a	n/a	n/a	n/a	n/a	n/a
3939.648	n/a	RECOG_CONF	1969824	n/a	LTP075	ltpFR	3	7	n/a	AMBULANCE	19	3	n/a	n/a	n/a	n/a	n/a	n/a
3941.154	n/a	RECOG_TARGET	1970577	n/a	LTP075	ltpFR	3	7	-1	GIRL	637	5	-1	n/a	n/a	n/a	n/a	n/a
3941.898	n/a	RECOG_RESP	1970949	n/a	LTP075	ltpFR	3	7	-1	GIRL	637	n/a	-1	n/a	n/a	n/a	n/a	n/a
3943.23	n/a	RECOG_CONF	1971615	n/a	LTP075	ltpFR	3	7	-1	GIRL	637	5	-1	n/a	n/a	n/a	n/a	n/a
3944.86	n/a	RECOG_LURE	1972430	n/a	LTP075	ltpFR	3	7	n/a	LIEUTENANT	818	3	n/a	n/a	n/a	n/a	n/a	n/a
3945.838	n/a	RECOG_RESP	1972919	n/a	LTP075	ltpFR	3	7	n/a	LIEUTENANT	818	n/a	n/a	n/a	n/a	n/a	n/a	n/a
3947.01	n/a	RECOG_CONF	1973505	n/a	LTP075	ltpFR	3	7	n/a	LIEUTENANT	818	3	n/a	n/a	n/a	n/a	n/a	n/a
3948.378	n/a	RECOG_LURE	1974189	n/a	LTP075	ltpFR	3	7	n/a	HOSE	720	3	n/a	n/a	n/a	n/a	n/a	n/a
3949.516	n/a	RECOG_RESP	1974758	n/a	LTP075	ltpFR	3	7	n/a	HOSE	720	n/a	n/a	n/a	n/a	n/a	n/a	n/a
3950.622	n/a	RECOG_CONF	1975311	n/a	LTP075	ltpFR	3	7	n/a	HOSE	720	3	n/a	n/a	n/a	n/a	n/a	n/a
3952.11	n/a	RECOG_LURE	1976055	n/a	LTP075	ltpFR	3	7	n/a	RUG	1215	3	n/a	n/a	n/a	n/a	n/a	n/a
3953.032	n/a	RECOG_RESP	1976516	n/a	LTP075	ltpFR	3	7	n/a	RUG	1215	n/a	n/a	n/a	n/a	n/a	n/a	n/a
3954.286	n/a	RECOG_CONF	1977143	n/a	LTP075	ltpFR	3	7	n/a	RUG	1215	3	n/a	n/a	n/a	n/a	n/a	n/a
3955.694	n/a	RECOG_LURE	1977847	n/a	LTP075	ltpFR	3	7	n/a	INCENSE	735	3	n/a	n/a	n/a	n/a	n/a	n/a
3956.764	n/a	RECOG_RESP	1978382	n/a	LTP075	ltpFR	3	7	n/a	INCENSE	735	n/a	n/a	n/a	n/a	n/a	n/a	n/a
3958.066	n/a	RECOG_CONF	1979033	n/a	LTP075	ltpFR	3	7	n/a	INCENSE	735	3	n/a	n/a	n/a	n/a	n/a	n/a
3959.51	n/a	RECOG_TARGET	1979755	n/a	LTP075	ltpFR	3	7	-1	ZOO	1637	5	-1	n/a	n/a	n/a	n/a	n/a
3960.282	n/a	RECOG_RESP	1980141	n/a	LTP075	ltpFR	3	7	-1	ZOO	1637	n/a	-1	n/a	n/a	n/a	n/a	n/a
3961.578	n/a	RECOG_CONF	1980789	n/a	LTP075	ltpFR	3	7	-1	ZOO	1637	5	-1	n/a	n/a	n/a	n/a	n/a
3962.984	n/a	RECOG_TARGET	1981492	n/a	LTP075	ltpFR	3	7	-1	APRON	35	5	-1	n/a	n/a	n/a	n/a	n/a
3964.506	n/a	RECOG_RESP	1982253	n/a	LTP075	ltpFR	3	7	-1	APRON	35	n/a	-1	n/a	n/a	n/a	n/a	n/a
3965.73	n/a	RECOG_CONF	1982865	n/a	LTP075	ltpFR	3	7	-1	APRON	35	5	-1	n/a	n/a	n/a	n/a	n/a
3967.26	n/a	RECOG_TARGET	1983630	n/a	LTP075	ltpFR	3	7	1	TAVERN	1437	5	0	n/a	n/a	n/a	n/a	n/a
3968.424	n/a	RECOG_RESP	1984212	n/a	LTP075	ltpFR	3	7	1	TAVERN	1437	n/a	0	n/a	n/a	n/a	n/a	n/a
3969.72	n/a	RECOG_CONF	1984860	n/a	LTP075	ltpFR	3	7	1	TAVERN	1437	5	0	n/a	n/a	n/a	n/a	n/a
3974.824	n/a	REC_START	1987412	n/a	LTP075	ltpFR	3	8	n/a	n/a	n/a	n/a	n/a	n/a	n/a	n/a	n/a	n/a
3974.86	n/a	RECOG_TARGET	1987430	n/a	LTP075	ltpFR	3	8	1	STRANGER	1389	5	1	n/a	n/a	n/a	n/a	n/a
3975.778	n/a	RECOG_RESP	1987889	n/a	LTP075	ltpFR	3	8	1	STRANGER	1389	n/a	1	n/a	n/a	n/a	n/a	n/a
3976.924	n/a	RECOG_CONF	1988462	n/a	LTP075	ltpFR	3	8	1	STRANGER	1389	5	1	n/a	n/a	n/a	n/a	n/a
3978.46	n/a	RECOG_TARGET	1989230	n/a	LTP075	ltpFR	3	8	-1	FUNGUS	614	3	-1	n/a	n/a	n/a	n/a	n/a
3979.384	n/a	RECOG_RESP	1989692	n/a	LTP075	ltpFR	3	8	-1	FUNGUS	614	n/a	-1	n/a	n/a	n/a	n/a	n/a
3980.476	n/a	RECOG_CONF	1990238	n/a	LTP075	ltpFR	3	8	-1	FUNGUS	614	3	-1	n/a	n/a	n/a	n/a	n/a
