mstime	trial_type	stim_file	subject	experiment	session	trial	item_name	item_num	list	answer	test_x	test_y	test_z
0	SESS_START	n/a	LTP322	ltpFR2	11	n/a	n/a	n/a	n/a	n/a	0	0	0
16035	START	n/a	LTP322	ltpFR2	11	n/a	n/a	n/a	-1	n/a	n/a	n/a	n/a
16050	PROB	n/a	LTP322	ltpFR2	11	n/a	n/a	n/a	-1	10	2	6	2
17951	PROB	n/a	LTP322	ltpFR2	11	n/a	n/a	n/a	-1	9	7	1	1
19199	PROB	n/a	LTP322	ltpFR2	11	n/a	n/a	n/a	-1	18	2	7	9
20934	PROB	n/a	LTP322	ltpFR2	11	n/a	n/a	n/a	-1	14	4	9	1
22668	PROB	n/a	LTP322	ltpFR2	11	n/a	n/a	n/a	-1	10	1	7	2
23903	PROB	n/a	LTP322	ltpFR2	11	n/a	n/a	n/a	-1	15	2	5	8
25336	PROB	n/a	LTP322	ltpFR2	11	n/a	n/a	n/a	-1	8	1	4	3
27445	STOP	n/a	LTP322	ltpFR2	11	n/a	n/a	n/a	-1	n/a	n/a	n/a	n/a
79633	WORD	wordpools/wasnorm_wordpool_576.txt	LTP322	ltpFR2	11	1	HOUND	724	n/a	n/a	0	0	0
82154	WORD	wordpools/wasnorm_wordpool_576.txt	LTP322	ltpFR2	11	1	PATIENT	1024	n/a	n/a	0	0	0
84923	WORD	wordpools/wasnorm_wordpool_576.txt	LTP322	ltpFR2	11	1	FRIAR	605	n/a	n/a	0	0	0
87607	WORD	wordpools/wasnorm_wordpool_576.txt	LTP322	ltpFR2	11	1	CROSS	413	n/a	n/a	0	0	0
90343	WORD	wordpools/wasnorm_wordpool_576.txt	LTP322	ltpFR2	11	1	LABEL	790	n/a	n/a	0	0	0
93079	WORD	wordpools/wasnorm_wordpool_576.txt	LTP322	ltpFR2	11	1	CATCHER	258	n/a	n/a	0	0	0
95796	WORD	wordpools/wasnorm_wordpool_576.txt	LTP322	ltpFR2	11	1	COURSE	390	n/a	n/a	0	0	0
98450	WORD	wordpools/wasnorm_wordpool_576.txt	LTP322	ltpFR2	11	1	NOVEL	960	n/a	n/a	0	0	0
101188	WORD	wordpools/wasnorm_wordpool_576.txt	LTP322	ltpFR2	11	1	JOURNAL	760	n/a	n/a	0	0	0
103870	WORD	wordpools/wasnorm_wordpool_576.txt	LTP322	ltpFR2	11	1	JAPAN	749	n/a	n/a	0	0	0
106590	WORD	wordpools/wasnorm_wordpool_576.txt	LTP322	ltpFR2	11	1	DASHBOARD	441	n/a	n/a	0	0	0
109342	WORD	wordpools/wasnorm_wordpool_576.txt	LTP322	ltpFR2	11	1	TRANSPLANT	1496	n/a	n/a	0	0	0
111777	WORD	wordpools/wasnorm_wordpool_576.txt	LTP322	ltpFR2	11	1	MARINE	869	n/a	n/a	0	0	0
114579	WORD	wordpools/wasnorm_wordpool_576.txt	LTP322	ltpFR2	11	1	PADDLE	1000	n/a	n/a	0	0	0
117065	WORD	wordpools/wasnorm_wordpool_576.txt	LTP322	ltpFR2	11	1	BATHTUB	100	n/a	n/a	0	0	0
119784	WORD	wordpools/wasnorm_wordpool_576.txt	LTP322	ltpFR2	11	1	AUTHOR	61	n/a	n/a	0	0	0
122352	WORD	wordpools/wasnorm_wordpool_576.txt	LTP322	ltpFR2	11	1	SMOG	1330	n/a	n/a	0	0	0
124971	WORD	wordpools/wasnorm_wordpool_576.txt	LTP322	ltpFR2	11	1	POCKET	1093	n/a	n/a	0	0	0
127522	WORD	wordpools/wasnorm_wordpool_576.txt	LTP322	ltpFR2	11	1	POSSUM	1112	n/a	n/a	0	0	0
130225	WORD	wordpools/wasnorm_wordpool_576.txt	LTP322	ltpFR2	11	1	SIDEWALK	1303	n/a	n/a	0	0	0
132798	WORD	wordpools/wasnorm_wordpool_576.txt	LTP322	ltpFR2	11	1	SLUG	1329	n/a	n/a	0	0	0
135383	WORD	wordpools/wasnorm_wordpool_576.txt	LTP322	ltpFR2	11	1	LAGOON	795	n/a	n/a	0	0	0
137982	WORD	wordpools/wasnorm_wordpool_576.txt	LTP322	ltpFR2	11	1	LODGE	839	n/a	n/a	0	0	0
140733	WORD	wordpools/wasnorm_wordpool_576.txt	LTP322	ltpFR2	11	1	CLIMBER	323	n/a	n/a	0	0	0
142341	START	n/a	LTP322	ltpFR2	11	n/a	n/a	n/a	1	n/a	n/a	n/a	n/a
143339	DISTRACTOR	n/a	LTP322	ltpFR2	11	1	n/a	n/a	n/a	n/a	0	0	0
143352	PROB	n/a	LTP322	ltpFR2	11	n/a	n/a	n/a	1	12	1	2	9
145369	PROB	n/a	LTP322	ltpFR2	11	n/a	n/a	n/a	1	17	4	8	5
147055	PROB	n/a	LTP322	ltpFR2	11	n/a	n/a	n/a	1	16	4	9	3
148523	PROB	n/a	LTP322	ltpFR2	11	n/a	n/a	n/a	1	16	4	3	9
150123	PROB	n/a	LTP322	ltpFR2	11	n/a	n/a	n/a	1	20	9	5	6
151874	PROB	n/a	LTP322	ltpFR2	11	n/a	n/a	n/a	1	24	9	7	8
154193	PROB	n/a	LTP322	ltpFR2	11	n/a	n/a	n/a	1	14	6	5	3
156129	PROB	n/a	LTP322	ltpFR2	11	n/a	n/a	n/a	1	16	5	2	9
157463	PROB	n/a	LTP322	ltpFR2	11	n/a	n/a	n/a	1	13	6	2	5
158981	PROB	n/a	LTP322	ltpFR2	11	n/a	n/a	n/a	1	12	7	3	2
160216	PROB	n/a	LTP322	ltpFR2	11	n/a	n/a	n/a	1	8	4	3	1
161565	PROB	n/a	LTP322	ltpFR2	11	n/a	n/a	n/a	1	19	7	5	7
163684	PROB	n/a	LTP322	ltpFR2	11	n/a	n/a	n/a	1	16	5	9	2
165419	STOP	n/a	LTP322	ltpFR2	11	n/a	n/a	n/a	1	n/a	n/a	n/a	n/a
168190	REC_START	n/a	LTP322	ltpFR2	11	1	n/a	n/a	n/a	n/a	0	0	0
170942	REC_WORD	wordpools/wasnorm_wordpool_576.txt	LTP322	ltpFR2	11	1	CATCHER	258	n/a	n/a	0	0	0
172051	REC_WORD	wordpools/wasnorm_wordpool_576.txt	LTP322	ltpFR2	11	1	JOURNAL	760	n/a	n/a	0	0	0
173390	REC_WORD	wordpools/wasnorm_wordpool_576.txt	LTP322	ltpFR2	11	1	NOVEL	960	n/a	n/a	0	0	0
174528	REC_WORD	wordpools/wasnorm_wordpool_576.txt	LTP322	ltpFR2	11	1	FRIAR	605	n/a	n/a	0	0	0
175938	REC_WORD	wordpools/wasnorm_wordpool_576.txt	LTP322	ltpFR2	11	1	CROSS	413	n/a	n/a	0	0	0
183924	REC_WORD	wordpools/wasnorm_wordpool_576.txt	LTP322	ltpFR2	11	1	LAPEL	800	n/a	n/a	0	0	0
190014	REC_WORD	wordpools/wasnorm_wordpool_576.txt	LTP322	ltpFR2	11	1	JAPAN	749	n/a	n/a	0	0	0
192770	REC_WORD	wordpools/wasnorm_wordpool_576.txt	LTP322	ltpFR2	11	1	LAGOON	795	n/a	n/a	0	0	0
194007	REC_WORD	wordpools/wasnorm_wordpool_576.txt	LTP322	ltpFR2	11	1	SMOG	1330	n/a	n/a	0	0	0
195615	REC_WORD	wordpools/wasnorm_wordpool_576.txt	LTP322	ltpFR2	11	1	POCKET	1093	n/a	n/a	0	0	0
201337	REC_WORD	wordpools/wasnorm_wordpool_576.txt	LTP322	ltpFR2	11	1	PATIENT	1024	n/a	n/a	0	0	0
202874	REC_WORD	wordpools/wasnorm_wordpool_576.txt	LTP322	ltpFR2	11	1	POUND	-1	n/a	n/a	0	0	0
258625	DISTRACTOR	n/a	LTP322	ltpFR2	11	2	n/a	n/a	n/a	n/a	0	0	0
258625	START	n/a	LTP322	ltpFR2	11	n/a	n/a	n/a	2	n/a	n/a	n/a	n/a
258640	PROB	n/a	LTP322	ltpFR2	11	n/a	n/a	n/a	2	17	4	6	7
260912	PROB	n/a	LTP322	ltpFR2	11	n/a	n/a	n/a	2	15	9	1	5
262231	PROB	n/a	LTP322	ltpFR2	11	n/a	n/a	n/a	2	5	1	3	1
263295	PROB	n/a	LTP322	ltpFR2	11	n/a	n/a	n/a	2	16	7	6	3
264746	PROB	n/a	LTP322	ltpFR2	11	n/a	n/a	n/a	2	17	6	9	2
266366	PROB	n/a	LTP322	ltpFR2	11	n/a	n/a	n/a	2	21	5	7	9
268381	PROB	n/a	LTP322	ltpFR2	11	n/a	n/a	n/a	2	13	8	1	4
269801	PROB	n/a	LTP322	ltpFR2	11	n/a	n/a	n/a	2	19	7	4	8
271369	PROB	n/a	LTP322	ltpFR2	11	n/a	n/a	n/a	2	16	5	5	6
272769	PROB	n/a	LTP322	ltpFR2	11	n/a	n/a	n/a	2	14	9	3	2
274339	PROB	n/a	LTP322	ltpFR2	11	n/a	n/a	n/a	2	21	3	9	9
276057	PROB	n/a	LTP322	ltpFR2	11	n/a	n/a	n/a	2	13	6	4	3
277490	PROB	n/a	LTP322	ltpFR2	11	n/a	n/a	n/a	2	11	1	3	7
278759	PROB	n/a	LTP322	ltpFR2	11	n/a	n/a	n/a	2	10	2	4	4
280929	PROB	n/a	LTP322	ltpFR2	11	n/a	n/a	n/a	2	19	7	7	5
282303	STOP	n/a	LTP322	ltpFR2	11	n/a	n/a	n/a	2	n/a	n/a	n/a	n/a
283445	WORD	wordpools/wasnorm_wordpool_576.txt	LTP322	ltpFR2	11	2	MOTEL	919	n/a	n/a	0	0	0
286233	WORD	wordpools/wasnorm_wordpool_576.txt	LTP322	ltpFR2	11	2	GAVEL	627	n/a	n/a	0	0	0
288717	WORD	wordpools/wasnorm_wordpool_576.txt	LTP322	ltpFR2	11	2	COBRA	336	n/a	n/a	0	0	0
291154	WORD	wordpools/wasnorm_wordpool_576.txt	LTP322	ltpFR2	11	2	LIZARD	834	n/a	n/a	0	0	0
293923	WORD	wordpools/wasnorm_wordpool_576.txt	LTP322	ltpFR2	11	2	PLASTER	1085	n/a	n/a	0	0	0
296375	WORD	wordpools/wasnorm_wordpool_576.txt	LTP322	ltpFR2	11	2	LONDON	843	n/a	n/a	0	0	0
299044	WORD	wordpools/wasnorm_wordpool_576.txt	LTP322	ltpFR2	11	2	SAUSAGE	1238	n/a	n/a	0	0	0
301845	WORD	wordpools/wasnorm_wordpool_576.txt	LTP322	ltpFR2	11	2	SHELTER	1282	n/a	n/a	0	0	0
304664	WORD	wordpools/wasnorm_wordpool_576.txt	LTP322	ltpFR2	11	2	CRICKET	408	n/a	n/a	0	0	0
307418	WORD	wordpools/wasnorm_wordpool_576.txt	LTP322	ltpFR2	11	2	OFFICE	972	n/a	n/a	0	0	0
310053	WORD	wordpools/wasnorm_wordpool_576.txt	LTP322	ltpFR2	11	2	SALT	1229	n/a	n/a	0	0	0
312570	WORD	wordpools/wasnorm_wordpool_576.txt	LTP322	ltpFR2	11	2	PIMPLE	1071	n/a	n/a	0	0	0
315174	WORD	wordpools/wasnorm_wordpool_576.txt	LTP322	ltpFR2	11	2	TERMITE	1451	n/a	n/a	0	0	0
317943	WORD	wordpools/wasnorm_wordpool_576.txt	LTP322	ltpFR2	11	2	DUSTPAN	509	n/a	n/a	0	0	0
320561	WORD	wordpools/wasnorm_wordpool_576.txt	LTP322	ltpFR2	11	2	BRIEFCASE	175	n/a	n/a	0	0	0
323313	WORD	wordpools/wasnorm_wordpool_576.txt	LTP322	ltpFR2	11	2	RIVER	1194	n/a	n/a	0	0	0
325865	WORD	wordpools/wasnorm_wordpool_576.txt	LTP322	ltpFR2	11	2	VALLEY	1545	n/a	n/a	0	0	0
328634	WORD	wordpools/wasnorm_wordpool_576.txt	LTP322	ltpFR2	11	2	CANAL	226	n/a	n/a	0	0	0
331402	WORD	wordpools/wasnorm_wordpool_576.txt	LTP322	ltpFR2	11	2	PAIL	1002	n/a	n/a	0	0	0
334105	WORD	wordpools/wasnorm_wordpool_576.txt	LTP322	ltpFR2	11	2	BEAVER	109	n/a	n/a	0	0	0
336925	WORD	wordpools/wasnorm_wordpool_576.txt	LTP322	ltpFR2	11	2	AWARD	63	n/a	n/a	0	0	0
339493	WORD	wordpools/wasnorm_wordpool_576.txt	LTP322	ltpFR2	11	2	BODY	145	n/a	n/a	0	0	0
341929	WORD	wordpools/wasnorm_wordpool_576.txt	LTP322	ltpFR2	11	2	DONOR	485	n/a	n/a	0	0	0
344430	WORD	wordpools/wasnorm_wordpool_576.txt	LTP322	ltpFR2	11	2	IGLOO	734	n/a	n/a	0	0	0
346036	START	n/a	LTP322	ltpFR2	11	n/a	n/a	n/a	3	n/a	n/a	n/a	n/a
347168	DISTRACTOR	n/a	LTP322	ltpFR2	11	2	n/a	n/a	n/a	n/a	0	0	0
347184	PROB	n/a	LTP322	ltpFR2	11	n/a	n/a	n/a	3	18	8	2	8
349267	PROB	n/a	LTP322	ltpFR2	11	n/a	n/a	n/a	3	12	1	7	4
351219	PROB	n/a	LTP322	ltpFR2	11	n/a	n/a	n/a	3	7	1	1	5
352352	PROB	n/a	LTP322	ltpFR2	11	n/a	n/a	n/a	3	11	2	4	5
354338	PROB	n/a	LTP322	ltpFR2	11	n/a	n/a	n/a	3	16	4	9	3
356023	PROB	n/a	LTP322	ltpFR2	11	n/a	n/a	n/a	3	10	4	2	4
357607	PROB	n/a	LTP322	ltpFR2	11	n/a	n/a	n/a	3	12	8	2	2
358891	PROB	n/a	LTP322	ltpFR2	11	n/a	n/a	n/a	3	20	2	9	9
360577	PROB	n/a	LTP322	ltpFR2	11	n/a	n/a	n/a	3	9	2	6	1
361912	PROB	n/a	LTP322	ltpFR2	11	n/a	n/a	n/a	3	17	1	7	9
363811	PROB	n/a	LTP322	ltpFR2	11	n/a	n/a	n/a	3	23	8	9	6
365563	PROB	n/a	LTP322	ltpFR2	11	n/a	n/a	n/a	3	13	2	7	4
368483	PROB	n/a	LTP322	ltpFR2	11	n/a	n/a	n/a	3	17	1	9	7
369787	STOP	n/a	LTP322	ltpFR2	11	n/a	n/a	n/a	3	n/a	n/a	n/a	n/a
371852	REC_START	n/a	LTP322	ltpFR2	11	2	n/a	n/a	n/a	n/a	0	0	0
373111	REC_WORD	wordpools/wasnorm_wordpool_576.txt	LTP322	ltpFR2	11	2	BEAVER	109	n/a	n/a	0	0	0
374567	REC_WORD	wordpools/wasnorm_wordpool_576.txt	LTP322	ltpFR2	11	2	BODY	145	n/a	n/a	0	0	0
375973	REC_WORD	wordpools/wasnorm_wordpool_576.txt	LTP322	ltpFR2	11	2	IGLOO	734	n/a	n/a	0	0	0
377549	REC_WORD	wordpools/wasnorm_wordpool_576.txt	LTP322	ltpFR2	11	2	RIVER	1194	n/a	n/a	0	0	0
379033	REC_WORD	wordpools/wasnorm_wordpool_576.txt	LTP322	ltpFR2	11	2	VALLEY	1545	n/a	n/a	0	0	0
380519	REC_WORD	wordpools/wasnorm_wordpool_576.txt	LTP322	ltpFR2	11	2	CANAL	226	n/a	n/a	0	0	0
382194	REC_WORD	wordpools/wasnorm_wordpool_576.txt	LTP322	ltpFR2	11	2	BRIEFCASE	175	n/a	n/a	0	0	0
383863	REC_WORD	wordpools/wasnorm_wordpool_576.txt	LTP322	ltpFR2	11	2	DUSTPAN	509	n/a	n/a	0	0	0
389168	REC_WORD	wordpools/wasnorm_wordpool_576.txt	LTP322	ltpFR2	11	2	COBRA	336	n/a	n/a	0	0	0
391436	REC_WORD	wordpools/wasnorm_wordpool_576.txt	LTP322	ltpFR2	11	2	PLASTER	1085	n/a	n/a	0	0	0
393148	REC_WORD	wordpools/wasnorm_wordpool_576.txt	LTP322	ltpFR2	11	2	LONDON	843	n/a	n/a	0	0	0
413592	REC_WORD	wordpools/wasnorm_wordpool_576.txt	LTP322	ltpFR2	11	2	PIMPLE	1071	n/a	n/a	0	0	0
415797	REC_WORD	wordpools/wasnorm_wordpool_576.txt	LTP322	ltpFR2	11	2	TERMITE	1451	n/a	n/a	0	0	0
421521	REC_WORD	wordpools/wasnorm_wordpool_576.txt	LTP322	ltpFR2	11	2	GAVEL	627	n/a	n/a	0	0	0
424425	REC_WORD	wordpools/wasnorm_wordpool_576.txt	LTP322	ltpFR2	11	2	MOTEL	919	n/a	n/a	0	0	0
462287	DISTRACTOR	n/a	LTP322	ltpFR2	11	3	n/a	n/a	n/a	n/a	0	0	0
462287	START	n/a	LTP322	ltpFR2	11	n/a	n/a	n/a	4	n/a	n/a	n/a	n/a
462302	PROB	n/a	LTP322	ltpFR2	11	n/a	n/a	n/a	4	21	5	9	7
463977	PROB	n/a	LTP322	ltpFR2	11	n/a	n/a	n/a	4	21	7	6	8
466644	PROB	n/a	LTP322	ltpFR2	11	n/a	n/a	n/a	4	9	6	2	1
467963	PROB	n/a	LTP322	ltpFR2	11	n/a	n/a	n/a	4	20	9	6	5
469479	PROB	n/a	LTP322	ltpFR2	11	n/a	n/a	n/a	4	13	7	1	5
471115	PROB	n/a	LTP322	ltpFR2	11	n/a	n/a	n/a	4	6	1	2	3
472615	PROB	n/a	LTP322	ltpFR2	11	n/a	n/a	n/a	4	12	3	2	7
474002	PROB	n/a	LTP322	ltpFR2	11	n/a	n/a	n/a	4	7	3	1	3
476003	PROB	n/a	LTP322	ltpFR2	11	n/a	n/a	n/a	4	24	7	8	9
477920	PROB	n/a	LTP322	ltpFR2	11	n/a	n/a	n/a	4	26	9	7	9
480224	PROB	n/a	LTP322	ltpFR2	11	n/a	n/a	n/a	4	17	6	7	4
482724	PROB	n/a	LTP322	ltpFR2	11	n/a	n/a	n/a	4	16	8	7	1
484325	PROB	n/a	LTP322	ltpFR2	11	n/a	n/a	n/a	4	12	1	2	9
485968	STOP	n/a	LTP322	ltpFR2	11	n/a	n/a	n/a	4	n/a	n/a	n/a	n/a
487391	WORD	wordpools/wasnorm_wordpool_576.txt	LTP322	ltpFR2	11	3	BUTCHER	203	n/a	n/a	0	0	0
490077	WORD	wordpools/wasnorm_wordpool_576.txt	LTP322	ltpFR2	11	3	WRENCH	1625	n/a	n/a	0	0	0
492695	WORD	wordpools/wasnorm_wordpool_576.txt	LTP322	ltpFR2	11	3	POISON	1096	n/a	n/a	0	0	0
495165	WORD	wordpools/wasnorm_wordpool_576.txt	LTP322	ltpFR2	11	3	PIGEON	1065	n/a	n/a	0	0	0
497716	WORD	wordpools/wasnorm_wordpool_576.txt	LTP322	ltpFR2	11	3	PASTA	1021	n/a	n/a	0	0	0
500302	WORD	wordpools/wasnorm_wordpool_576.txt	LTP322	ltpFR2	11	3	GLOVE	642	n/a	n/a	0	0	0
502803	WORD	wordpools/wasnorm_wordpool_576.txt	LTP322	ltpFR2	11	3	SUNSET	1408	n/a	n/a	0	0	0
505257	WORD	wordpools/wasnorm_wordpool_576.txt	LTP322	ltpFR2	11	3	PARTNER	1017	n/a	n/a	0	0	0
507775	WORD	wordpools/wasnorm_wordpool_576.txt	LTP322	ltpFR2	11	3	PLAYGROUND	1087	n/a	n/a	0	0	0
510444	WORD	wordpools/wasnorm_wordpool_576.txt	LTP322	ltpFR2	11	3	CLOCK	325	n/a	n/a	0	0	0
513081	WORD	wordpools/wasnorm_wordpool_576.txt	LTP322	ltpFR2	11	3	LION	827	n/a	n/a	0	0	0
515582	WORD	wordpools/wasnorm_wordpool_576.txt	LTP322	ltpFR2	11	3	CITRUS	313	n/a	n/a	0	0	0
518189	WORD	wordpools/wasnorm_wordpool_576.txt	LTP322	ltpFR2	11	3	ROBIN	1199	n/a	n/a	0	0	0
520703	WORD	wordpools/wasnorm_wordpool_576.txt	LTP322	ltpFR2	11	3	DANCER	437	n/a	n/a	0	0	0
523205	WORD	wordpools/wasnorm_wordpool_576.txt	LTP322	ltpFR2	11	3	GRAVE	658	n/a	n/a	0	0	0
525824	WORD	wordpools/wasnorm_wordpool_576.txt	LTP322	ltpFR2	11	3	GIRL	637	n/a	n/a	0	0	0
528642	WORD	wordpools/wasnorm_wordpool_576.txt	LTP322	ltpFR2	11	3	DRAGON	492	n/a	n/a	0	0	0
531446	WORD	wordpools/wasnorm_wordpool_576.txt	LTP322	ltpFR2	11	3	FIREMAN	569	n/a	n/a	0	0	0
533916	WORD	wordpools/wasnorm_wordpool_576.txt	LTP322	ltpFR2	11	3	OUTDOORS	987	n/a	n/a	0	0	0
536733	WORD	wordpools/wasnorm_wordpool_576.txt	LTP322	ltpFR2	11	3	BLOUSE	139	n/a	n/a	0	0	0
539170	WORD	wordpools/wasnorm_wordpool_576.txt	LTP322	ltpFR2	11	3	CELLAR	267	n/a	n/a	0	0	0
541871	WORD	wordpools/wasnorm_wordpool_576.txt	LTP322	ltpFR2	11	3	BASEMENT	94	n/a	n/a	0	0	0
544406	WORD	wordpools/wasnorm_wordpool_576.txt	LTP322	ltpFR2	11	3	PENGUIN	1044	n/a	n/a	0	0	0
546876	WORD	wordpools/wasnorm_wordpool_576.txt	LTP322	ltpFR2	11	3	CHEMIST	292	n/a	n/a	0	0	0
548495	START	n/a	LTP322	ltpFR2	11	n/a	n/a	n/a	5	n/a	n/a	n/a	n/a
549371	DISTRACTOR	n/a	LTP322	ltpFR2	11	3	n/a	n/a	n/a	n/a	0	0	0
549377	PROB	n/a	LTP322	ltpFR2	11	n/a	n/a	n/a	5	15	1	5	9
551146	PROB	n/a	LTP322	ltpFR2	11	n/a	n/a	n/a	5	13	8	3	1
554015	PROB	n/a	LTP322	ltpFR2	11	n/a	n/a	n/a	5	14	9	3	2
556416	PROB	n/a	LTP322	ltpFR2	11	n/a	n/a	n/a	5	13	5	2	6
558252	PROB	n/a	LTP322	ltpFR2	11	n/a	n/a	n/a	5	20	3	8	9
560069	PROB	n/a	LTP322	ltpFR2	11	n/a	n/a	n/a	5	12	5	1	6
561320	PROB	n/a	LTP322	ltpFR2	11	n/a	n/a	n/a	5	19	9	7	3
563072	PROB	n/a	LTP322	ltpFR2	11	n/a	n/a	n/a	5	5	2	1	4
564890	PROB	n/a	LTP322	ltpFR2	11	n/a	n/a	n/a	5	11	2	7	2
567475	PROB	n/a	LTP322	ltpFR2	11	n/a	n/a	n/a	5	9	2	6	1
568960	PROB	n/a	LTP322	ltpFR2	11	n/a	n/a	n/a	5	12	1	4	7
572495	STOP	n/a	LTP322	ltpFR2	11	n/a	n/a	n/a	5	n/a	n/a	n/a	n/a
574331	REC_START	n/a	LTP322	ltpFR2	11	3	n/a	n/a	n/a	n/a	0	0	0
577733	REC_WORD	wordpools/wasnorm_wordpool_576.txt	LTP322	ltpFR2	11	3	ROBIN	1199	n/a	n/a	0	0	0
578815	REC_WORD	wordpools/wasnorm_wordpool_576.txt	LTP322	ltpFR2	11	3	PENGUIN	1044	n/a	n/a	0	0	0
579901	REC_WORD	wordpools/wasnorm_wordpool_576.txt	LTP322	ltpFR2	11	3	GIRL	637	n/a	n/a	0	0	0
581122	REC_WORD	wordpools/wasnorm_wordpool_576.txt	LTP322	ltpFR2	11	3	BLOUSE	139	n/a	n/a	0	0	0
582559	REC_WORD	wordpools/wasnorm_wordpool_576.txt	LTP322	ltpFR2	11	3	BUTCHER	203	n/a	n/a	0	0	0
583761	REC_WORD	wordpools/wasnorm_wordpool_576.txt	LTP322	ltpFR2	11	3	GLOVE	642	n/a	n/a	0	0	0
585127	REC_WORD	wordpools/wasnorm_wordpool_576.txt	LTP322	ltpFR2	11	3	WRENCH	1625	n/a	n/a	0	0	0
592484	REC_WORD	wordpools/wasnorm_wordpool_576.txt	LTP322	ltpFR2	11	3	PIGEON	1065	n/a	n/a	0	0	0
593575	REC_WORD	wordpools/wasnorm_wordpool_576.txt	LTP322	ltpFR2	11	3	PARTNER	1017	n/a	n/a	0	0	0
594663	REC_WORD	wordpools/wasnorm_wordpool_576.txt	LTP322	ltpFR2	11	3	PASTA	1021	n/a	n/a	0	0	0
595835	REC_WORD	wordpools/wasnorm_wordpool_576.txt	LTP322	ltpFR2	11	3	PLAYGROUND	1087	n/a	n/a	0	0	0
597972	REC_WORD	wordpools/wasnorm_wordpool_576.txt	LTP322	ltpFR2	11	3	CLOCK	325	n/a	n/a	0	0	0
599190	REC_WORD	wordpools/wasnorm_wordpool_576.txt	LTP322	ltpFR2	11	3	CELLAR	267	n/a	n/a	0	0	0
600558	REC_WORD	wordpools/wasnorm_wordpool_576.txt	LTP322	ltpFR2	11	3	BASEMENT	94	n/a	n/a	0	0	0
601796	REC_WORD	wordpools/wasnorm_wordpool_576.txt	LTP322	ltpFR2	11	3	CHEMIST	292	n/a	n/a	0	0	0
606841	REC_WORD	wordpools/wasnorm_wordpool_576.txt	LTP322	ltpFR2	11	3	DRAGON	492	n/a	n/a	0	0	0
608203	REC_WORD	wordpools/wasnorm_wordpool_576.txt	LTP322	ltpFR2	11	3	PENGUIN	1044	n/a	n/a	0	0	0
609790	REC_WORD	wordpools/wasnorm_wordpool_576.txt	LTP322	ltpFR2	11	3	LION	827	n/a	n/a	0	0	0
664769	WORD	wordpools/wasnorm_wordpool_576.txt	LTP322	ltpFR2	11	4	FLUTE	585	n/a	n/a	0	0	0
667313	WORD	wordpools/wasnorm_wordpool_576.txt	LTP322	ltpFR2	11	4	PILOT	1070	n/a	n/a	0	0	0
670050	WORD	wordpools/wasnorm_wordpool_576.txt	LTP322	ltpFR2	11	4	VENUS	1557	n/a	n/a	0	0	0
672751	WORD	wordpools/wasnorm_wordpool_576.txt	LTP322	ltpFR2	11	4	COUSIN	392	n/a	n/a	0	0	0
675504	WORD	wordpools/wasnorm_wordpool_576.txt	LTP322	ltpFR2	11	4	AIRPORT	13	n/a	n/a	0	0	0
678248	WORD	wordpools/wasnorm_wordpool_576.txt	LTP322	ltpFR2	11	4	STUDENT	1395	n/a	n/a	0	0	0
681017	WORD	wordpools/wasnorm_wordpool_576.txt	LTP322	ltpFR2	11	4	SALMON	1227	n/a	n/a	0	0	0
683629	WORD	wordpools/wasnorm_wordpool_576.txt	LTP322	ltpFR2	11	4	SCRIBBLE	1256	n/a	n/a	0	0	0
686122	WORD	wordpools/wasnorm_wordpool_576.txt	LTP322	ltpFR2	11	4	TILE	1468	n/a	n/a	0	0	0
688599	WORD	wordpools/wasnorm_wordpool_576.txt	LTP322	ltpFR2	11	4	TUBA	1515	n/a	n/a	0	0	0
691401	WORD	wordpools/wasnorm_wordpool_576.txt	LTP322	ltpFR2	11	4	UNCLE	1536	n/a	n/a	0	0	0
694044	WORD	wordpools/wasnorm_wordpool_576.txt	LTP322	ltpFR2	11	4	MATCH	878	n/a	n/a	0	0	0
696472	WORD	wordpools/wasnorm_wordpool_576.txt	LTP322	ltpFR2	11	4	SHOULDER	1294	n/a	n/a	0	0	0
699059	WORD	wordpools/wasnorm_wordpool_576.txt	LTP322	ltpFR2	11	4	GRILL	661	n/a	n/a	0	0	0
701777	WORD	wordpools/wasnorm_wordpool_576.txt	LTP322	ltpFR2	11	4	PICNIC	1060	n/a	n/a	0	0	0
704569	WORD	wordpools/wasnorm_wordpool_576.txt	LTP322	ltpFR2	11	4	COOKBOOK	373	n/a	n/a	0	0	0
707337	WORD	wordpools/wasnorm_wordpool_576.txt	LTP322	ltpFR2	11	4	CAFE	216	n/a	n/a	0	0	0
709924	WORD	wordpools/wasnorm_wordpool_576.txt	LTP322	ltpFR2	11	4	COLLEGE	346	n/a	n/a	0	0	0
712604	WORD	wordpools/wasnorm_wordpool_576.txt	LTP322	ltpFR2	11	4	SNAIL	1332	n/a	n/a	0	0	0
715389	WORD	wordpools/wasnorm_wordpool_576.txt	LTP322	ltpFR2	11	4	TABLE	1426	n/a	n/a	0	0	0
717959	WORD	wordpools/wasnorm_wordpool_576.txt	LTP322	ltpFR2	11	4	GREASE	660	n/a	n/a	0	0	0
720711	WORD	wordpools/wasnorm_wordpool_576.txt	LTP322	ltpFR2	11	4	BARREL	91	n/a	n/a	0	0	0
723297	WORD	wordpools/wasnorm_wordpool_576.txt	LTP322	ltpFR2	11	4	PIGMENT	1066	n/a	n/a	0	0	0
725731	WORD	wordpools/wasnorm_wordpool_576.txt	LTP322	ltpFR2	11	4	FRIEND	606	n/a	n/a	0	0	0
727338	START	n/a	LTP322	ltpFR2	11	n/a	n/a	n/a	6	n/a	n/a	n/a	n/a
728196	DISTRACTOR	n/a	LTP322	ltpFR2	11	4	n/a	n/a	n/a	n/a	0	0	0
728201	PROB	n/a	LTP322	ltpFR2	11	n/a	n/a	n/a	6	8	4	1	3
729940	PROB	n/a	LTP322	ltpFR2	11	n/a	n/a	n/a	6	19	5	8	6
732594	PROB	n/a	LTP322	ltpFR2	11	n/a	n/a	n/a	6	15	2	5	8
733910	PROB	n/a	LTP322	ltpFR2	11	n/a	n/a	n/a	6	21	7	7	7
735392	PROB	n/a	LTP322	ltpFR2	11	n/a	n/a	n/a	6	9	3	5	1
736774	PROB	n/a	LTP322	ltpFR2	11	n/a	n/a	n/a	6	25	8	8	9
738563	PROB	n/a	LTP322	ltpFR2	11	n/a	n/a	n/a	6	11	3	6	2
740011	PROB	n/a	LTP322	ltpFR2	11	n/a	n/a	n/a	6	10	1	8	1
741128	PROB	n/a	LTP322	ltpFR2	11	n/a	n/a	n/a	6	11	4	5	2
742830	PROB	n/a	LTP322	ltpFR2	11	n/a	n/a	n/a	6	27	9	9	9
744798	PROB	n/a	LTP322	ltpFR2	11	n/a	n/a	n/a	6	20	9	5	6
746765	PROB	n/a	LTP322	ltpFR2	11	n/a	n/a	n/a	6	14	8	3	3
748268	PROB	n/a	LTP322	ltpFR2	11	n/a	n/a	n/a	6	12	1	8	3
750562	STOP	n/a	LTP322	ltpFR2	11	n/a	n/a	n/a	6	n/a	n/a	n/a	n/a
753240	REC_START	n/a	LTP322	ltpFR2	11	4	n/a	n/a	n/a	n/a	0	0	0
754822	REC_WORD	wordpools/wasnorm_wordpool_576.txt	LTP322	ltpFR2	11	4	PICNIC	1060	n/a	n/a	0	0	0
755969	REC_WORD	wordpools/wasnorm_wordpool_576.txt	LTP322	ltpFR2	11	4	BARREL	91	n/a	n/a	0	0	0
756901	REC_WORD	wordpools/wasnorm_wordpool_576.txt	LTP322	ltpFR2	11	4	GREASE	660	n/a	n/a	0	0	0
758115	REC_WORD	wordpools/wasnorm_wordpool_576.txt	LTP322	ltpFR2	11	4	TUBA	1515	n/a	n/a	0	0	0
759682	REC_WORD	wordpools/wasnorm_wordpool_576.txt	LTP322	ltpFR2	11	4	COUSIN	392	n/a	n/a	0	0	0
760958	REC_WORD	wordpools/wasnorm_wordpool_576.txt	LTP322	ltpFR2	11	4	UNCLE	1536	n/a	n/a	0	0	0
763222	REC_WORD	wordpools/wasnorm_wordpool_576.txt	LTP322	ltpFR2	11	4	AIRPORT	13	n/a	n/a	0	0	0
764375	REC_WORD	wordpools/wasnorm_wordpool_576.txt	LTP322	ltpFR2	11	4	SALMON	1227	n/a	n/a	0	0	0
767041	REC_WORD	wordpools/wasnorm_wordpool_576.txt	LTP322	ltpFR2	11	4	GRILL	661	n/a	n/a	0	0	0
768586	REC_WORD	wordpools/wasnorm_wordpool_576.txt	LTP322	ltpFR2	11	4	COOKBOOK	373	n/a	n/a	0	0	0
772550	REC_WORD	wordpools/wasnorm_wordpool_576.txt	LTP322	ltpFR2	11	4	PILOT	1070	n/a	n/a	0	0	0
773824	REC_WORD	wordpools/wasnorm_wordpool_576.txt	LTP322	ltpFR2	11	4	FLUTE	585	n/a	n/a	0	0	0
775292	REC_WORD	wordpools/wasnorm_wordpool_576.txt	LTP322	ltpFR2	11	4	VENUS	1557	n/a	n/a	0	0	0
782121	REC_WORD	wordpools/wasnorm_wordpool_576.txt	LTP322	ltpFR2	11	4	STUDENT	1395	n/a	n/a	0	0	0
789353	REC_WORD	wordpools/wasnorm_wordpool_576.txt	LTP322	ltpFR2	11	4	CAFE	216	n/a	n/a	0	0	0
843680	DISTRACTOR	n/a	LTP322	ltpFR2	11	5	n/a	n/a	n/a	n/a	0	0	0
843681	START	n/a	LTP322	ltpFR2	11	n/a	n/a	n/a	7	n/a	n/a	n/a	n/a
843698	PROB	n/a	LTP322	ltpFR2	11	n/a	n/a	n/a	7	13	1	6	6
845132	PROB	n/a	LTP322	ltpFR2	11	n/a	n/a	n/a	7	16	4	8	4
846514	PROB	n/a	LTP322	ltpFR2	11	n/a	n/a	n/a	7	24	9	7	8
849618	PROB	n/a	LTP322	ltpFR2	11	n/a	n/a	n/a	7	9	7	1	1
850718	PROB	n/a	LTP322	ltpFR2	11	n/a	n/a	n/a	7	22	9	9	4
852436	PROB	n/a	LTP322	ltpFR2	11	n/a	n/a	n/a	7	11	6	3	2
853821	PROB	n/a	LTP322	ltpFR2	11	n/a	n/a	n/a	7	8	2	2	4
855321	PROB	n/a	LTP322	ltpFR2	11	n/a	n/a	n/a	7	11	4	1	6
857958	PROB	n/a	LTP322	ltpFR2	11	n/a	n/a	n/a	7	16	1	8	7
859475	PROB	n/a	LTP322	ltpFR2	11	n/a	n/a	n/a	7	20	9	8	3
861044	PROB	n/a	LTP322	ltpFR2	11	n/a	n/a	n/a	7	11	1	4	6
862662	PROB	n/a	LTP322	ltpFR2	11	n/a	n/a	n/a	7	111	1	5	5
863728	PROB	n/a	LTP322	ltpFR2	11	n/a	n/a	n/a	7	17	5	9	3
866231	STOP	n/a	LTP322	ltpFR2	11	n/a	n/a	n/a	7	n/a	n/a	n/a	n/a
868756	WORD	wordpools/wasnorm_wordpool_576.txt	LTP322	ltpFR2	11	5	TYPIST	1532	n/a	n/a	0	0	0
871303	WORD	wordpools/wasnorm_wordpool_576.txt	LTP322	ltpFR2	11	5	TART	1436	n/a	n/a	0	0	0
874005	WORD	wordpools/wasnorm_wordpool_576.txt	LTP322	ltpFR2	11	5	PLUTO	1092	n/a	n/a	0	0	0
876773	WORD	wordpools/wasnorm_wordpool_576.txt	LTP322	ltpFR2	11	5	LUNCH	849	n/a	n/a	0	0	0
879442	WORD	wordpools/wasnorm_wordpool_576.txt	LTP322	ltpFR2	11	5	TURKEY	1520	n/a	n/a	0	0	0
881885	WORD	wordpools/wasnorm_wordpool_576.txt	LTP322	ltpFR2	11	5	NECKLACE	940	n/a	n/a	0	0	0
884680	WORD	wordpools/wasnorm_wordpool_576.txt	LTP322	ltpFR2	11	5	FIREPLACE	570	n/a	n/a	0	0	0
887439	WORD	wordpools/wasnorm_wordpool_576.txt	LTP322	ltpFR2	11	5	HERO	706	n/a	n/a	0	0	0
890102	WORD	wordpools/wasnorm_wordpool_576.txt	LTP322	ltpFR2	11	5	MISTER	901	n/a	n/a	0	0	0
892710	WORD	wordpools/wasnorm_wordpool_576.txt	LTP322	ltpFR2	11	5	CHEST	295	n/a	n/a	0	0	0
895505	WORD	wordpools/wasnorm_wordpool_576.txt	LTP322	ltpFR2	11	5	PATROL	1027	n/a	n/a	0	0	0
898133	WORD	wordpools/wasnorm_wordpool_576.txt	LTP322	ltpFR2	11	5	CYCLONE	431	n/a	n/a	0	0	0
900709	WORD	wordpools/wasnorm_wordpool_576.txt	LTP322	ltpFR2	11	5	TWISTER	1530	n/a	n/a	0	0	0
903254	WORD	wordpools/wasnorm_wordpool_576.txt	LTP322	ltpFR2	11	5	CREATURE	403	n/a	n/a	0	0	0
905713	WORD	wordpools/wasnorm_wordpool_576.txt	LTP322	ltpFR2	11	5	ASIA	46	n/a	n/a	0	0	0
908490	WORD	wordpools/wasnorm_wordpool_576.txt	LTP322	ltpFR2	11	5	RAFT	1159	n/a	n/a	0	0	0
910943	WORD	wordpools/wasnorm_wordpool_576.txt	LTP322	ltpFR2	11	5	MAPLE	866	n/a	n/a	0	0	0
913578	WORD	wordpools/wasnorm_wordpool_576.txt	LTP322	ltpFR2	11	5	CRITIC	410	n/a	n/a	0	0	0
916257	WORD	wordpools/wasnorm_wordpool_576.txt	LTP322	ltpFR2	11	5	FRAME	600	n/a	n/a	0	0	0
919017	WORD	wordpools/wasnorm_wordpool_576.txt	LTP322	ltpFR2	11	5	SHRUB	1299	n/a	n/a	0	0	0
921752	WORD	wordpools/wasnorm_wordpool_576.txt	LTP322	ltpFR2	11	5	DANDRUFF	439	n/a	n/a	0	0	0
924247	WORD	wordpools/wasnorm_wordpool_576.txt	LTP322	ltpFR2	11	5	BULLET	194	n/a	n/a	0	0	0
926790	WORD	wordpools/wasnorm_wordpool_576.txt	LTP322	ltpFR2	11	5	EUROPE	541	n/a	n/a	0	0	0
929259	WORD	wordpools/wasnorm_wordpool_576.txt	LTP322	ltpFR2	11	5	PUPIL	1143	n/a	n/a	0	0	0
930868	START	n/a	LTP322	ltpFR2	11	n/a	n/a	n/a	8	n/a	n/a	n/a	n/a
931686	DISTRACTOR	n/a	LTP322	ltpFR2	11	5	n/a	n/a	n/a	n/a	0	0	0
931695	PROB	n/a	LTP322	ltpFR2	11	n/a	n/a	n/a	8	9	1	4	4
933220	PROB	n/a	LTP322	ltpFR2	11	n/a	n/a	n/a	8	16	8	5	3
935137	PROB	n/a	LTP322	ltpFR2	11	n/a	n/a	n/a	8	16	1	7	8
937071	PROB	n/a	LTP322	ltpFR2	11	n/a	n/a	n/a	8	12	7	4	1
938405	PROB	n/a	LTP322	ltpFR2	11	n/a	n/a	n/a	8	12	4	7	1
939524	PROB	n/a	LTP322	ltpFR2	11	n/a	n/a	n/a	8	14	1	9	4
940826	PROB	n/a	LTP322	ltpFR2	11	n/a	n/a	n/a	8	12	1	5	6
942060	PROB	n/a	LTP322	ltpFR2	11	n/a	n/a	n/a	8	15	6	8	1
943478	PROB	n/a	LTP322	ltpFR2	11	n/a	n/a	n/a	8	9	1	7	1
945195	PROB	n/a	LTP322	ltpFR2	11	n/a	n/a	n/a	8	14	2	7	5
946862	PROB	n/a	LTP322	ltpFR2	11	n/a	n/a	n/a	8	14	4	2	8
948715	PROB	n/a	LTP322	ltpFR2	11	n/a	n/a	n/a	8	1	2	5	8
950033	PROB	n/a	LTP322	ltpFR2	11	n/a	n/a	n/a	8	9	2	6	1
951717	PROB	n/a	LTP322	ltpFR2	11	n/a	n/a	n/a	8	8	4	1	3
954868	STOP	n/a	LTP322	ltpFR2	11	n/a	n/a	n/a	8	n/a	n/a	n/a	n/a
956637	REC_START	n/a	LTP322	ltpFR2	11	5	n/a	n/a	n/a	n/a	0	0	0
958853	REC_WORD	wordpools/wasnorm_wordpool_576.txt	LTP322	ltpFR2	11	5	MISTER	901	n/a	n/a	0	0	0
960052	REC_WORD	wordpools/wasnorm_wordpool_576.txt	LTP322	ltpFR2	11	5	HERO	706	n/a	n/a	0	0	0
961352	REC_WORD	wordpools/wasnorm_wordpool_576.txt	LTP322	ltpFR2	11	5	CHEST	295	n/a	n/a	0	0	0
962474	REC_WORD	wordpools/wasnorm_wordpool_576.txt	LTP322	ltpFR2	11	5	PATROL	1027	n/a	n/a	0	0	0
963818	REC_WORD	wordpools/wasnorm_wordpool_576.txt	LTP322	ltpFR2	11	5	FIREPLACE	570	n/a	n/a	0	0	0
965666	REC_WORD	wordpools/wasnorm_wordpool_576.txt	LTP322	ltpFR2	11	5	TWISTER	1530	n/a	n/a	0	0	0
966938	REC_WORD	wordpools/wasnorm_wordpool_576.txt	LTP322	ltpFR2	11	5	CYCLONE	431	n/a	n/a	0	0	0
968484	REC_WORD	wordpools/wasnorm_wordpool_576.txt	LTP322	ltpFR2	11	5	CREATURE	403	n/a	n/a	0	0	0
969956	REC_WORD	wordpools/wasnorm_wordpool_576.txt	LTP322	ltpFR2	11	5	RAFT	1159	n/a	n/a	0	0	0
971341	REC_WORD	wordpools/wasnorm_wordpool_576.txt	LTP322	ltpFR2	11	5	ASIA	46	n/a	n/a	0	0	0
973811	REC_WORD	wordpools/wasnorm_wordpool_576.txt	LTP322	ltpFR2	11	5	EUROPE	541	n/a	n/a	0	0	0
975182	REC_WORD	wordpools/wasnorm_wordpool_576.txt	LTP322	ltpFR2	11	5	PUPIL	1143	n/a	n/a	0	0	0
1013392	REC_WORD	wordpools/wasnorm_wordpool_576.txt	LTP322	ltpFR2	11	5	SHRUB	1299	n/a	n/a	0	0	0
1014802	REC_WORD	wordpools/wasnorm_wordpool_576.txt	LTP322	ltpFR2	11	5	DANDRUFF	439	n/a	n/a	0	0	0
1017457	REC_WORD	wordpools/wasnorm_wordpool_576.txt	LTP322	ltpFR2	11	5	BULLET	194	n/a	n/a	0	0	0
1047111	DISTRACTOR	n/a	LTP322	ltpFR2	11	6	n/a	n/a	n/a	n/a	0	0	0
1047112	START	n/a	LTP322	ltpFR2	11	n/a	n/a	n/a	9	n/a	n/a	n/a	n/a
1047127	PROB	n/a	LTP322	ltpFR2	11	n/a	n/a	n/a	9	11	7	1	3
1048494	PROB	n/a	LTP322	ltpFR2	11	n/a	n/a	n/a	9	10	2	2	6
1049680	PROB	n/a	LTP322	ltpFR2	11	n/a	n/a	n/a	9	12	2	5	5
1051312	PROB	n/a	LTP322	ltpFR2	11	n/a	n/a	n/a	9	19	4	9	6
1053215	PROB	n/a	LTP322	ltpFR2	11	n/a	n/a	n/a	9	17	8	4	5
1054951	PROB	n/a	LTP322	ltpFR2	11	n/a	n/a	n/a	9	24	7	8	9
1056901	PROB	n/a	LTP322	ltpFR2	11	n/a	n/a	n/a	9	16	1	8	7
1058870	PROB	n/a	LTP322	ltpFR2	11	n/a	n/a	n/a	9	13	8	3	2
1060737	PROB	n/a	LTP322	ltpFR2	11	n/a	n/a	n/a	9	19	8	7	4
1062272	PROB	n/a	LTP322	ltpFR2	11	n/a	n/a	n/a	9	14	7	2	5
1064073	PROB	n/a	LTP322	ltpFR2	11	n/a	n/a	n/a	9	23	7	9	7
1066025	PROB	n/a	LTP322	ltpFR2	11	n/a	n/a	n/a	9	15	3	6	6
1067493	PROB	n/a	LTP322	ltpFR2	11	n/a	n/a	n/a	9	24	8	8	8
1069012	PROB	n/a	LTP322	ltpFR2	11	n/a	n/a	n/a	9	10	2	1	7
1070534	STOP	n/a	LTP322	ltpFR2	11	n/a	n/a	n/a	9	n/a	n/a	n/a	n/a
1072236	WORD	wordpools/wasnorm_wordpool_576.txt	LTP322	ltpFR2	11	6	DRESSER	496	n/a	n/a	0	0	0
1075051	WORD	wordpools/wasnorm_wordpool_576.txt	LTP322	ltpFR2	11	6	OINTMENT	974	n/a	n/a	0	0	0
1077868	WORD	wordpools/wasnorm_wordpool_576.txt	LTP322	ltpFR2	11	6	HOOK	715	n/a	n/a	0	0	0
1080470	WORD	wordpools/wasnorm_wordpool_576.txt	LTP322	ltpFR2	11	6	BLUEPRINT	142	n/a	n/a	0	0	0
1083075	WORD	wordpools/wasnorm_wordpool_576.txt	LTP322	ltpFR2	11	6	BOARD	143	n/a	n/a	0	0	0
1085791	WORD	wordpools/wasnorm_wordpool_576.txt	LTP322	ltpFR2	11	6	RAZOR	1171	n/a	n/a	0	0	0
1088497	WORD	wordpools/wasnorm_wordpool_576.txt	LTP322	ltpFR2	11	6	RUG	1215	n/a	n/a	0	0	0
1091214	WORD	wordpools/wasnorm_wordpool_576.txt	LTP322	ltpFR2	11	6	CANYON	235	n/a	n/a	0	0	0
1093665	WORD	wordpools/wasnorm_wordpool_576.txt	LTP322	ltpFR2	11	6	SUMMIT	1405	n/a	n/a	0	0	0
1096400	WORD	wordpools/wasnorm_wordpool_576.txt	LTP322	ltpFR2	11	6	BUGGY	188	n/a	n/a	0	0	0
1099108	WORD	wordpools/wasnorm_wordpool_576.txt	LTP322	ltpFR2	11	6	CARRIAGE	248	n/a	n/a	0	0	0
1101738	WORD	wordpools/wasnorm_wordpool_576.txt	LTP322	ltpFR2	11	6	SEAFOOD	1260	n/a	n/a	0	0	0
1104179	WORD	wordpools/wasnorm_wordpool_576.txt	LTP322	ltpFR2	11	6	EXPERT	543	n/a	n/a	0	0	0
1106880	WORD	wordpools/wasnorm_wordpool_576.txt	LTP322	ltpFR2	11	6	COTTAGE	384	n/a	n/a	0	0	0
1109343	WORD	wordpools/wasnorm_wordpool_576.txt	LTP322	ltpFR2	11	6	PALACE	1006	n/a	n/a	0	0	0
1111896	WORD	wordpools/wasnorm_wordpool_576.txt	LTP322	ltpFR2	11	6	PIZZA	1079	n/a	n/a	0	0	0
1114665	WORD	wordpools/wasnorm_wordpool_576.txt	LTP322	ltpFR2	11	6	TURTLE	1522	n/a	n/a	0	0	0
1117456	WORD	wordpools/wasnorm_wordpool_576.txt	LTP322	ltpFR2	11	6	LAVA	804	n/a	n/a	0	0	0
1119926	WORD	wordpools/wasnorm_wordpool_576.txt	LTP322	ltpFR2	11	6	TUNNEL	1519	n/a	n/a	0	0	0
1122371	WORD	wordpools/wasnorm_wordpool_576.txt	LTP322	ltpFR2	11	6	FLASHLIGHT	575	n/a	n/a	0	0	0
1125007	WORD	wordpools/wasnorm_wordpool_576.txt	LTP322	ltpFR2	11	6	RACKET	1155	n/a	n/a	0	0	0
1127774	WORD	wordpools/wasnorm_wordpool_576.txt	LTP322	ltpFR2	11	6	CRATER	400	n/a	n/a	0	0	0
1130560	WORD	wordpools/wasnorm_wordpool_576.txt	LTP322	ltpFR2	11	6	TROUT	1511	n/a	n/a	0	0	0
1132997	WORD	wordpools/wasnorm_wordpool_576.txt	LTP322	ltpFR2	11	6	BACKBONE	66	n/a	n/a	0	0	0
1134606	START	n/a	LTP322	ltpFR2	11	n/a	n/a	n/a	10	n/a	n/a	n/a	n/a
1135439	DISTRACTOR	n/a	LTP322	ltpFR2	11	6	n/a	n/a	n/a	n/a	0	0	0
1135447	PROB	n/a	LTP322	ltpFR2	11	n/a	n/a	n/a	10	14	3	5	6
1137549	PROB	n/a	LTP322	ltpFR2	11	n/a	n/a	n/a	10	13	5	6	2
1139467	PROB	n/a	LTP322	ltpFR2	11	n/a	n/a	n/a	10	17	5	5	7
1140686	PROB	n/a	LTP322	ltpFR2	11	n/a	n/a	n/a	10	23	6	8	9
1142570	PROB	n/a	LTP322	ltpFR2	11	n/a	n/a	n/a	10	17	6	2	9
1144606	PROB	n/a	LTP322	ltpFR2	11	n/a	n/a	n/a	10	21	4	8	9
1146440	PROB	n/a	LTP322	ltpFR2	11	n/a	n/a	n/a	10	22	7	6	9
1147992	PROB	n/a	LTP322	ltpFR2	11	n/a	n/a	n/a	10	7	2	4	1
1149624	PROB	n/a	LTP322	ltpFR2	11	n/a	n/a	n/a	10	14	3	8	3
1151193	PROB	n/a	LTP322	ltpFR2	11	n/a	n/a	n/a	10	20	5	8	7
1153280	PROB	n/a	LTP322	ltpFR2	11	n/a	n/a	n/a	10	17	7	8	2
1155046	PROB	n/a	LTP322	ltpFR2	11	n/a	n/a	n/a	10	10	2	3	5
1156249	PROB	n/a	LTP322	ltpFR2	11	n/a	n/a	n/a	10	15	2	9	4
1157762	STOP	n/a	LTP322	ltpFR2	11	n/a	n/a	n/a	10	n/a	n/a	n/a	n/a
1160486	REC_START	n/a	LTP322	ltpFR2	11	6	n/a	n/a	n/a	n/a	0	0	0
1161680	REC_WORD	wordpools/wasnorm_wordpool_576.txt	LTP322	ltpFR2	11	6	DRESSER	496	n/a	n/a	0	0	0
1162870	REC_WORD	wordpools/wasnorm_wordpool_576.txt	LTP322	ltpFR2	11	6	OINTMENT	974	n/a	n/a	0	0	0
1164526	REC_WORD	wordpools/wasnorm_wordpool_576.txt	LTP322	ltpFR2	11	6	BLUEPRINT	142	n/a	n/a	0	0	0
1166768	REC_WORD	wordpools/wasnorm_wordpool_576.txt	LTP322	ltpFR2	11	6	SUMMIT	1405	n/a	n/a	0	0	0
1168844	REC_WORD	wordpools/wasnorm_wordpool_576.txt	LTP322	ltpFR2	11	6	CANYON	235	n/a	n/a	0	0	0
1170023	REC_WORD	wordpools/wasnorm_wordpool_576.txt	LTP322	ltpFR2	11	6	EXPERT	543	n/a	n/a	0	0	0
1171832	REC_WORD	wordpools/wasnorm_wordpool_576.txt	LTP322	ltpFR2	11	6	COTTAGE	384	n/a	n/a	0	0	0
1173098	REC_WORD	wordpools/wasnorm_wordpool_576.txt	LTP322	ltpFR2	11	6	PALACE	1006	n/a	n/a	0	0	0
1180036	REC_WORD	wordpools/wasnorm_wordpool_576.txt	LTP322	ltpFR2	11	6	SEAFOOD	1260	n/a	n/a	0	0	0
1181210	REC_WORD	wordpools/wasnorm_wordpool_576.txt	LTP322	ltpFR2	11	6	RUG	1215	n/a	n/a	0	0	0
1182012	REC_WORD	wordpools/wasnorm_wordpool_576.txt	LTP322	ltpFR2	11	6	FLASHLIGHT	575	n/a	n/a	0	0	0
1183874	REC_WORD	wordpools/wasnorm_wordpool_576.txt	LTP322	ltpFR2	11	6	RACKET	1155	n/a	n/a	0	0	0
1185814	REC_WORD	wordpools/wasnorm_wordpool_576.txt	LTP322	ltpFR2	11	6	PIZZA	1079	n/a	n/a	0	0	0
1189870	REC_WORD	wordpools/wasnorm_wordpool_576.txt	LTP322	ltpFR2	11	6	TURTLE	1522	n/a	n/a	0	0	0
1198548	REC_WORD	wordpools/wasnorm_wordpool_576.txt	LTP322	ltpFR2	11	6	LAVA	804	n/a	n/a	0	0	0
1199545	REC_WORD	wordpools/wasnorm_wordpool_576.txt	LTP322	ltpFR2	11	6	CRATER	400	n/a	n/a	0	0	0
1203593	REC_WORD	wordpools/wasnorm_wordpool_576.txt	LTP322	ltpFR2	11	6	BOARD	143	n/a	n/a	0	0	0
1204675	REC_WORD	wordpools/wasnorm_wordpool_576.txt	LTP322	ltpFR2	11	6	RAZOR	1171	n/a	n/a	0	0	0
1250941	WORD	wordpools/wasnorm_wordpool_576.txt	LTP322	ltpFR2	11	7	HUMAN	726	n/a	n/a	0	0	0
1253508	WORD	wordpools/wasnorm_wordpool_576.txt	LTP322	ltpFR2	11	7	DRIVER	499	n/a	n/a	0	0	0
1256310	WORD	wordpools/wasnorm_wordpool_576.txt	LTP322	ltpFR2	11	7	LIVER	833	n/a	n/a	0	0	0
1258980	WORD	wordpools/wasnorm_wordpool_576.txt	LTP322	ltpFR2	11	7	KIDNEY	776	n/a	n/a	0	0	0
1261448	WORD	wordpools/wasnorm_wordpool_576.txt	LTP322	ltpFR2	11	7	PROTON	1132	n/a	n/a	0	0	0
1263917	WORD	wordpools/wasnorm_wordpool_576.txt	LTP322	ltpFR2	11	7	BELLY	119	n/a	n/a	0	0	0
1266553	WORD	wordpools/wasnorm_wordpool_576.txt	LTP322	ltpFR2	11	7	ULCER	1533	n/a	n/a	0	0	0
1269173	WORD	wordpools/wasnorm_wordpool_576.txt	LTP322	ltpFR2	11	7	SODA	1341	n/a	n/a	0	0	0
1271874	WORD	wordpools/wasnorm_wordpool_576.txt	LTP322	ltpFR2	11	7	PISTON	1076	n/a	n/a	0	0	0
1274410	WORD	wordpools/wasnorm_wordpool_576.txt	LTP322	ltpFR2	11	7	SUSPECT	1415	n/a	n/a	0	0	0
1276861	WORD	wordpools/wasnorm_wordpool_576.txt	LTP322	ltpFR2	11	7	MARS	873	n/a	n/a	0	0	0
1279513	WORD	wordpools/wasnorm_wordpool_576.txt	LTP322	ltpFR2	11	7	SNAKE	1333	n/a	n/a	0	0	0
1282315	WORD	wordpools/wasnorm_wordpool_576.txt	LTP322	ltpFR2	11	7	DINER	467	n/a	n/a	0	0	0
1284985	WORD	wordpools/wasnorm_wordpool_576.txt	LTP322	ltpFR2	11	7	CHURCH	307	n/a	n/a	0	0	0
1287420	WORD	wordpools/wasnorm_wordpool_576.txt	LTP322	ltpFR2	11	7	IDOL	733	n/a	n/a	0	0	0
1289872	WORD	wordpools/wasnorm_wordpool_576.txt	LTP322	ltpFR2	11	7	TUTU	1524	n/a	n/a	0	0	0
1292524	WORD	wordpools/wasnorm_wordpool_576.txt	LTP322	ltpFR2	11	7	STAMP	1370	n/a	n/a	0	0	0
1294995	WORD	wordpools/wasnorm_wordpool_576.txt	LTP322	ltpFR2	11	7	BOX	159	n/a	n/a	0	0	0
1297812	WORD	wordpools/wasnorm_wordpool_576.txt	LTP322	ltpFR2	11	7	ROBBER	1197	n/a	n/a	0	0	0
1300432	WORD	wordpools/wasnorm_wordpool_576.txt	LTP322	ltpFR2	11	7	WIFE	1609	n/a	n/a	0	0	0
1302950	WORD	wordpools/wasnorm_wordpool_576.txt	LTP322	ltpFR2	11	7	SCALLOP	1242	n/a	n/a	0	0	0
1305535	WORD	wordpools/wasnorm_wordpool_576.txt	LTP322	ltpFR2	11	7	SHIRT	1287	n/a	n/a	0	0	0
1308156	WORD	wordpools/wasnorm_wordpool_576.txt	LTP322	ltpFR2	11	7	BUBBLE	183	n/a	n/a	0	0	0
1310624	WORD	wordpools/wasnorm_wordpool_576.txt	LTP322	ltpFR2	11	7	NOTEBOOK	959	n/a	n/a	0	0	0
1312242	START	n/a	LTP322	ltpFR2	11	n/a	n/a	n/a	11	n/a	n/a	n/a	n/a
1313227	DISTRACTOR	n/a	LTP322	ltpFR2	11	7	n/a	n/a	n/a	n/a	0	0	0
1313242	PROB	n/a	LTP322	ltpFR2	11	n/a	n/a	n/a	11	10	2	1	7
1315142	PROB	n/a	LTP322	ltpFR2	11	n/a	n/a	n/a	11	17	6	3	8
1317194	PROB	n/a	LTP322	ltpFR2	11	n/a	n/a	n/a	11	14	2	5	7
1318393	PROB	n/a	LTP322	ltpFR2	11	n/a	n/a	n/a	11	18	6	8	4
1320778	PROB	n/a	LTP322	ltpFR2	11	n/a	n/a	n/a	11	19	9	4	6
1322363	PROB	n/a	LTP322	ltpFR2	11	n/a	n/a	n/a	11	11	3	6	2
1324333	PROB	n/a	LTP322	ltpFR2	11	n/a	n/a	n/a	11	24	8	8	8
1325551	PROB	n/a	LTP322	ltpFR2	11	n/a	n/a	n/a	11	15	2	9	4
1326886	PROB	n/a	LTP322	ltpFR2	11	n/a	n/a	n/a	11	15	9	5	1
1328419	PROB	n/a	LTP322	ltpFR2	11	n/a	n/a	n/a	11	11	5	1	5
1329854	PROB	n/a	LTP322	ltpFR2	11	n/a	n/a	n/a	11	15	7	4	4
1331855	PROB	n/a	LTP322	ltpFR2	11	n/a	n/a	n/a	11	15	5	7	3
1333455	PROB	n/a	LTP322	ltpFR2	11	n/a	n/a	n/a	11	7	1	5	1
1334922	STOP	n/a	LTP322	ltpFR2	11	n/a	n/a	n/a	11	n/a	n/a	n/a	n/a
1337978	REC_START	n/a	LTP322	ltpFR2	11	7	n/a	n/a	n/a	n/a	0	0	0
1339282	REC_WORD	wordpools/wasnorm_wordpool_576.txt	LTP322	ltpFR2	11	7	DRIVER	499	n/a	n/a	0	0	0
1340592	REC_WORD	wordpools/wasnorm_wordpool_576.txt	LTP322	ltpFR2	11	7	WIFE	1609	n/a	n/a	0	0	0
1342773	REC_WORD	wordpools/wasnorm_wordpool_576.txt	LTP322	ltpFR2	11	7	ROBBER	1197	n/a	n/a	0	0	0
1346018	REC_WORD	wordpools/wasnorm_wordpool_576.txt	LTP322	ltpFR2	11	7	HUMAN	726	n/a	n/a	0	0	0
1353958	REC_WORD	wordpools/wasnorm_wordpool_576.txt	LTP322	ltpFR2	11	7	SODA	1341	n/a	n/a	0	0	0
1355324	REC_WORD	wordpools/wasnorm_wordpool_576.txt	LTP322	ltpFR2	11	7	KIDNEY	776	n/a	n/a	0	0	0
1357016	REC_WORD	wordpools/wasnorm_wordpool_576.txt	LTP322	ltpFR2	11	7	LIVER	833	n/a	n/a	0	0	0
1364577	REC_WORD	wordpools/wasnorm_wordpool_576.txt	LTP322	ltpFR2	11	7	MARS	873	n/a	n/a	0	0	0
1367216	REC_WORD	wordpools/wasnorm_wordpool_576.txt	LTP322	ltpFR2	11	7	SNAKE	1333	n/a	n/a	0	0	0
1368842	REC_WORD	wordpools/wasnorm_wordpool_576.txt	LTP322	ltpFR2	11	7	SHIRT	1287	n/a	n/a	0	0	0
1372374	REC_WORD	wordpools/wasnorm_wordpool_576.txt	LTP322	ltpFR2	11	7	SCALLOP	1242	n/a	n/a	0	0	0
1428416	WORD	wordpools/wasnorm_wordpool_576.txt	LTP322	ltpFR2	11	8	KNIFE	785	n/a	n/a	0	0	0
1431064	WORD	wordpools/wasnorm_wordpool_576.txt	LTP322	ltpFR2	11	8	SPOON	1357	n/a	n/a	0	0	0
1433587	WORD	wordpools/wasnorm_wordpool_576.txt	LTP322	ltpFR2	11	8	LEOPARD	812	n/a	n/a	0	0	0
1436006	WORD	wordpools/wasnorm_wordpool_576.txt	LTP322	ltpFR2	11	8	GIFT	635	n/a	n/a	0	0	0
1438490	WORD	wordpools/wasnorm_wordpool_576.txt	LTP322	ltpFR2	11	8	TOURIST	1488	n/a	n/a	0	0	0
1441094	WORD	wordpools/wasnorm_wordpool_576.txt	LTP322	ltpFR2	11	8	PERMIT	1051	n/a	n/a	0	0	0
1443673	WORD	wordpools/wasnorm_wordpool_576.txt	LTP322	ltpFR2	11	8	CATTLE	261	n/a	n/a	0	0	0
1446193	WORD	wordpools/wasnorm_wordpool_576.txt	LTP322	ltpFR2	11	8	BURGLAR	200	n/a	n/a	0	0	0
1448866	WORD	wordpools/wasnorm_wordpool_576.txt	LTP322	ltpFR2	11	8	TRUCK	1512	n/a	n/a	0	0	0
1451564	WORD	wordpools/wasnorm_wordpool_576.txt	LTP322	ltpFR2	11	8	FINGER	567	n/a	n/a	0	0	0
1454184	WORD	wordpools/wasnorm_wordpool_576.txt	LTP322	ltpFR2	11	8	DONKEY	484	n/a	n/a	0	0	0
1456986	WORD	wordpools/wasnorm_wordpool_576.txt	LTP322	ltpFR2	11	8	CANDY	230	n/a	n/a	0	0	0
1459520	WORD	wordpools/wasnorm_wordpool_576.txt	LTP322	ltpFR2	11	8	DRESS	495	n/a	n/a	0	0	0
1462290	WORD	wordpools/wasnorm_wordpool_576.txt	LTP322	ltpFR2	11	8	HOOD	714	n/a	n/a	0	0	0
1465077	WORD	wordpools/wasnorm_wordpool_576.txt	LTP322	ltpFR2	11	8	HOSTESS	723	n/a	n/a	0	0	0
1467728	WORD	wordpools/wasnorm_wordpool_576.txt	LTP322	ltpFR2	11	8	PUDDING	1139	n/a	n/a	0	0	0
1470148	WORD	wordpools/wasnorm_wordpool_576.txt	LTP322	ltpFR2	11	8	ROD	1203	n/a	n/a	0	0	0
1472632	WORD	wordpools/wasnorm_wordpool_576.txt	LTP322	ltpFR2	11	8	LIGHTNING	820	n/a	n/a	0	0	0
1475302	WORD	wordpools/wasnorm_wordpool_576.txt	LTP322	ltpFR2	11	8	GAZELLE	628	n/a	n/a	0	0	0
1477907	WORD	wordpools/wasnorm_wordpool_576.txt	LTP322	ltpFR2	11	8	THIEF	1456	n/a	n/a	0	0	0
1480540	WORD	wordpools/wasnorm_wordpool_576.txt	LTP322	ltpFR2	11	8	CONCERT	360	n/a	n/a	0	0	0
1483009	WORD	wordpools/wasnorm_wordpool_576.txt	LTP322	ltpFR2	11	8	DRUG	501	n/a	n/a	0	0	0
1485694	WORD	wordpools/wasnorm_wordpool_576.txt	LTP322	ltpFR2	11	8	CREVICE	405	n/a	n/a	0	0	0
1488380	WORD	wordpools/wasnorm_wordpool_576.txt	LTP322	ltpFR2	11	8	MAILMAN	858	n/a	n/a	0	0	0
1489999	START	n/a	LTP322	ltpFR2	11	n/a	n/a	n/a	12	n/a	n/a	n/a	n/a
1491173	DISTRACTOR	n/a	LTP322	ltpFR2	11	8	n/a	n/a	n/a	n/a	0	0	0
1491183	PROB	n/a	LTP322	ltpFR2	11	n/a	n/a	n/a	12	15	1	4	8
1493153	PROB	n/a	LTP322	ltpFR2	11	n/a	n/a	n/a	12	12	6	1	5
1495434	PROB	n/a	LTP322	ltpFR2	11	n/a	n/a	n/a	12	6	1	1	4
1496654	PROB	n/a	LTP322	ltpFR2	11	n/a	n/a	n/a	12	13	6	4	3
1498506	PROB	n/a	LTP322	ltpFR2	11	n/a	n/a	n/a	12	16	4	8	4
1500306	PROB	n/a	LTP322	ltpFR2	11	n/a	n/a	n/a	12	18	4	9	5
1501824	PROB	n/a	LTP322	ltpFR2	11	n/a	n/a	n/a	12	15	5	8	2
1503342	PROB	n/a	LTP322	ltpFR2	11	n/a	n/a	n/a	12	12	2	4	6
1504610	PROB	n/a	LTP322	ltpFR2	11	n/a	n/a	n/a	12	17	6	7	4
1506064	PROB	n/a	LTP322	ltpFR2	11	n/a	n/a	n/a	12	12	2	7	3
1508015	PROB	n/a	LTP322	ltpFR2	11	n/a	n/a	n/a	12	15	7	5	3
1511116	PROB	n/a	LTP322	ltpFR2	11	n/a	n/a	n/a	12	16	5	6	6
1513472	STOP	n/a	LTP322	ltpFR2	11	n/a	n/a	n/a	12	n/a	n/a	n/a	n/a
1515819	REC_START	n/a	LTP322	ltpFR2	11	8	n/a	n/a	n/a	n/a	0	0	0
1517147	REC_WORD	wordpools/wasnorm_wordpool_576.txt	LTP322	ltpFR2	11	8	LIGHTNING	820	n/a	n/a	0	0	0
1518445	REC_WORD	wordpools/wasnorm_wordpool_576.txt	LTP322	ltpFR2	11	8	ROD	1203	n/a	n/a	0	0	0
1519556	REC_WORD	wordpools/wasnorm_wordpool_576.txt	LTP322	ltpFR2	11	8	TRUCK	1512	n/a	n/a	0	0	0
1520671	REC_WORD	wordpools/wasnorm_wordpool_576.txt	LTP322	ltpFR2	11	8	HOOD	714	n/a	n/a	0	0	0
1521980	REC_WORD	wordpools/wasnorm_wordpool_576.txt	LTP322	ltpFR2	11	8	CONCERT	360	n/a	n/a	0	0	0
1523204	REC_WORD	wordpools/wasnorm_wordpool_576.txt	LTP322	ltpFR2	11	8	DRUG	501	n/a	n/a	0	0	0
1526383	REC_WORD	wordpools/wasnorm_wordpool_576.txt	LTP322	ltpFR2	11	8	HOSTESS	723	n/a	n/a	0	0	0
1527790	REC_WORD	wordpools/wasnorm_wordpool_576.txt	LTP322	ltpFR2	11	8	PUDDING	1139	n/a	n/a	0	0	0
1529121	REC_WORD	wordpools/wasnorm_wordpool_576.txt	LTP322	ltpFR2	11	8	KNIFE	785	n/a	n/a	0	0	0
1530370	REC_WORD	wordpools/wasnorm_wordpool_576.txt	LTP322	ltpFR2	11	8	SPOON	1357	n/a	n/a	0	0	0
1532018	REC_WORD	wordpools/wasnorm_wordpool_576.txt	LTP322	ltpFR2	11	8	LEOPARD	812	n/a	n/a	0	0	0
1533644	REC_WORD	wordpools/wasnorm_wordpool_576.txt	LTP322	ltpFR2	11	8	GAZELLE	628	n/a	n/a	0	0	0
1541172	REC_WORD	wordpools/wasnorm_wordpool_576.txt	LTP322	ltpFR2	11	8	THIEF	1456	n/a	n/a	0	0	0
1549441	REC_WORD	wordpools/wasnorm_wordpool_576.txt	LTP322	ltpFR2	11	8	DONKEY	484	n/a	n/a	0	0	0
1574898	REC_WORD	wordpools/wasnorm_wordpool_576.txt	LTP322	ltpFR2	11	8	TOURIST	1488	n/a	n/a	0	0	0
1592347	REST_REWET	n/a	LTP322	ltpFR2	11	8	n/a	n/a	n/a	n/a	0	0	0
2283687	DISTRACTOR	n/a	LTP322	ltpFR2	11	9	n/a	n/a	n/a	n/a	0	0	0
2283687	START	n/a	LTP322	ltpFR2	11	n/a	n/a	n/a	13	n/a	n/a	n/a	n/a
2283701	PROB	n/a	LTP322	ltpFR2	11	n/a	n/a	n/a	13	10	1	3	6
2285519	PROB	n/a	LTP322	ltpFR2	11	n/a	n/a	n/a	13	12	5	1	6
2287088	PROB	n/a	LTP322	ltpFR2	11	n/a	n/a	n/a	13	13	4	3	6
2289356	PROB	n/a	LTP322	ltpFR2	11	n/a	n/a	n/a	13	18	7	4	7
2291277	PROB	n/a	LTP322	ltpFR2	11	n/a	n/a	n/a	13	8	4	3	1
2293146	PROB	n/a	LTP322	ltpFR2	11	n/a	n/a	n/a	13	21	5	9	7
2294928	PROB	n/a	LTP322	ltpFR2	11	n/a	n/a	n/a	13	18	6	6	6
2296544	PROB	n/a	LTP322	ltpFR2	11	n/a	n/a	n/a	13	17	7	8	2
2298114	PROB	n/a	LTP322	ltpFR2	11	n/a	n/a	n/a	13	15	8	2	5
2299413	PROB	n/a	LTP322	ltpFR2	11	n/a	n/a	n/a	13	13	9	2	2
2301018	PROB	n/a	LTP322	ltpFR2	11	n/a	n/a	n/a	13	8	1	6	1
2302150	PROB	n/a	LTP322	ltpFR2	11	n/a	n/a	n/a	13	9	1	5	3
2303635	PROB	n/a	LTP322	ltpFR2	11	n/a	n/a	n/a	13	15	4	4	7
2305119	PROB	n/a	LTP322	ltpFR2	11	n/a	n/a	n/a	13	16	7	4	5
2306776	STOP	n/a	LTP322	ltpFR2	11	n/a	n/a	n/a	13	n/a	n/a	n/a	n/a
2308639	WORD	wordpools/wasnorm_wordpool_576.txt	LTP322	ltpFR2	11	9	WAITRESS	1581	n/a	n/a	0	0	0
2311441	WORD	wordpools/wasnorm_wordpool_576.txt	LTP322	ltpFR2	11	9	SPHINX	1349	n/a	n/a	0	0	0
2314078	WORD	wordpools/wasnorm_wordpool_576.txt	LTP322	ltpFR2	11	9	MATTRESS	879	n/a	n/a	0	0	0
2316712	WORD	wordpools/wasnorm_wordpool_576.txt	LTP322	ltpFR2	11	9	SHOVEL	1295	n/a	n/a	0	0	0
2319431	WORD	wordpools/wasnorm_wordpool_576.txt	LTP322	ltpFR2	11	9	BUG	187	n/a	n/a	0	0	0
2322051	WORD	wordpools/wasnorm_wordpool_576.txt	LTP322	ltpFR2	11	9	TOMBSTONE	1478	n/a	n/a	0	0	0
2324536	WORD	wordpools/wasnorm_wordpool_576.txt	LTP322	ltpFR2	11	9	OYSTER	995	n/a	n/a	0	0	0
2326955	WORD	wordpools/wasnorm_wordpool_576.txt	LTP322	ltpFR2	11	9	SCARF	1246	n/a	n/a	0	0	0
2329739	WORD	wordpools/wasnorm_wordpool_576.txt	LTP322	ltpFR2	11	9	SPOOL	1356	n/a	n/a	0	0	0
2332176	WORD	wordpools/wasnorm_wordpool_576.txt	LTP322	ltpFR2	11	9	LIPSTICK	829	n/a	n/a	0	0	0
2334660	WORD	wordpools/wasnorm_wordpool_576.txt	LTP322	ltpFR2	11	9	CHAMPAGNE	278	n/a	n/a	0	0	0
2337080	WORD	wordpools/wasnorm_wordpool_576.txt	LTP322	ltpFR2	11	9	NIGHTGOWN	953	n/a	n/a	0	0	0
2339547	WORD	wordpools/wasnorm_wordpool_576.txt	LTP322	ltpFR2	11	9	WINDOW	1611	n/a	n/a	0	0	0
2341990	WORD	wordpools/wasnorm_wordpool_576.txt	LTP322	ltpFR2	11	9	CORAL	378	n/a	n/a	0	0	0
2344491	WORD	wordpools/wasnorm_wordpool_576.txt	LTP322	ltpFR2	11	9	FUNGUS	614	n/a	n/a	0	0	0
2347005	WORD	wordpools/wasnorm_wordpool_576.txt	LTP322	ltpFR2	11	9	WOMAN	1620	n/a	n/a	0	0	0
2349539	WORD	wordpools/wasnorm_wordpool_576.txt	LTP322	ltpFR2	11	9	FEMALE	559	n/a	n/a	0	0	0
2352299	WORD	wordpools/wasnorm_wordpool_576.txt	LTP322	ltpFR2	11	9	BREAST	171	n/a	n/a	0	0	0
2354743	WORD	wordpools/wasnorm_wordpool_576.txt	LTP322	ltpFR2	11	9	THREAD	1460	n/a	n/a	0	0	0
2357179	WORD	wordpools/wasnorm_wordpool_576.txt	LTP322	ltpFR2	11	9	FOREHEAD	592	n/a	n/a	0	0	0
2359747	WORD	wordpools/wasnorm_wordpool_576.txt	LTP322	ltpFR2	11	9	MILDEW	893	n/a	n/a	0	0	0
2362565	WORD	wordpools/wasnorm_wordpool_576.txt	LTP322	ltpFR2	11	9	TOASTER	1472	n/a	n/a	0	0	0
2365218	WORD	wordpools/wasnorm_wordpool_576.txt	LTP322	ltpFR2	11	9	CHAUFFEUR	283	n/a	n/a	0	0	0
2367980	WORD	wordpools/wasnorm_wordpool_576.txt	LTP322	ltpFR2	11	9	TAXI	1438	n/a	n/a	0	0	0
2369588	START	n/a	LTP322	ltpFR2	11	n/a	n/a	n/a	14	n/a	n/a	n/a	n/a
2370459	DISTRACTOR	n/a	LTP322	ltpFR2	11	9	n/a	n/a	n/a	n/a	0	0	0
2370465	PROB	n/a	LTP322	ltpFR2	11	n/a	n/a	n/a	14	16	6	3	7
2372789	PROB	n/a	LTP322	ltpFR2	11	n/a	n/a	n/a	14	16	6	1	9
2375642	PROB	n/a	LTP322	ltpFR2	11	n/a	n/a	n/a	14	12	6	4	2
2376927	PROB	n/a	LTP322	ltpFR2	11	n/a	n/a	n/a	14	12	1	9	2
2378095	PROB	n/a	LTP322	ltpFR2	11	n/a	n/a	n/a	14	10	2	2	6
2379344	PROB	n/a	LTP322	ltpFR2	11	n/a	n/a	n/a	14	18	9	3	6
2381630	PROB	n/a	LTP322	ltpFR2	11	n/a	n/a	n/a	14	12	9	2	1
2383531	PROB	n/a	LTP322	ltpFR2	11	n/a	n/a	n/a	14	14	4	8	2
2384850	PROB	n/a	LTP322	ltpFR2	11	n/a	n/a	n/a	14	20	6	7	7
2388120	PROB	n/a	LTP322	ltpFR2	11	n/a	n/a	n/a	14	17	6	9	2
2389971	PROB	n/a	LTP322	ltpFR2	11	n/a	n/a	n/a	14	20	4	9	7
2392347	STOP	n/a	LTP322	ltpFR2	11	n/a	n/a	n/a	14	n/a	n/a	n/a	n/a
2395474	REC_START	n/a	LTP322	ltpFR2	11	9	n/a	n/a	n/a	n/a	0	0	0
2397727	REC_WORD	wordpools/wasnorm_wordpool_576.txt	LTP322	ltpFR2	11	9	SPHINX	1349	n/a	n/a	0	0	0
2399341	REC_WORD	wordpools/wasnorm_wordpool_576.txt	LTP322	ltpFR2	11	9	GRAVE	658	n/a	n/a	0	0	0
2401656	REC_WORD	wordpools/wasnorm_wordpool_576.txt	LTP322	ltpFR2	11	9	WAITRESS	1581	n/a	n/a	0	0	0
2402958	REC_WORD	wordpools/wasnorm_wordpool_576.txt	LTP322	ltpFR2	11	9	MATTRESS	879	n/a	n/a	0	0	0
2404619	REC_WORD	wordpools/wasnorm_wordpool_576.txt	LTP322	ltpFR2	11	9	NIGHTGOWN	953	n/a	n/a	0	0	0
2405799	REC_WORD	wordpools/wasnorm_wordpool_576.txt	LTP322	ltpFR2	11	9	WINDOW	1611	n/a	n/a	0	0	0
2408321	REC_WORD	wordpools/wasnorm_wordpool_576.txt	LTP322	ltpFR2	11	9	WOMAN	1620	n/a	n/a	0	0	0
2409430	REC_WORD	wordpools/wasnorm_wordpool_576.txt	LTP322	ltpFR2	11	9	FEMALE	559	n/a	n/a	0	0	0
2410713	REC_WORD	wordpools/wasnorm_wordpool_576.txt	LTP322	ltpFR2	11	9	BREAST	171	n/a	n/a	0	0	0
2411843	REC_WORD	wordpools/wasnorm_wordpool_576.txt	LTP322	ltpFR2	11	9	THREAD	1460	n/a	n/a	0	0	0
2415752	REC_WORD	wordpools/wasnorm_wordpool_576.txt	LTP322	ltpFR2	11	9	CHAUFFEUR	283	n/a	n/a	0	0	0
2417751	REC_WORD	wordpools/wasnorm_wordpool_576.txt	LTP322	ltpFR2	11	9	TAXI	1438	n/a	n/a	0	0	0
2419963	REC_WORD	wordpools/wasnorm_wordpool_576.txt	LTP322	ltpFR2	11	9	CHAMPAGNE	278	n/a	n/a	0	0	0
2421745	REC_WORD	wordpools/wasnorm_wordpool_576.txt	LTP322	ltpFR2	11	9	LIPSTICK	829	n/a	n/a	0	0	0
2423331	REC_WORD	wordpools/wasnorm_wordpool_576.txt	LTP322	ltpFR2	11	9	CORAL	378	n/a	n/a	0	0	0
2427604	REC_WORD	wordpools/wasnorm_wordpool_576.txt	LTP322	ltpFR2	11	9	SCARF	1246	n/a	n/a	0	0	0
2452998	REC_WORD	wordpools/wasnorm_wordpool_576.txt	LTP322	ltpFR2	11	9	BUG	187	n/a	n/a	0	0	0
2485933	DISTRACTOR	n/a	LTP322	ltpFR2	11	10	n/a	n/a	n/a	n/a	0	0	0
2485933	START	n/a	LTP322	ltpFR2	11	n/a	n/a	n/a	15	n/a	n/a	n/a	n/a
2485948	PROB	n/a	LTP322	ltpFR2	11	n/a	n/a	n/a	15	12	6	5	1
2488083	PROB	n/a	LTP322	ltpFR2	11	n/a	n/a	n/a	15	19	4	6	9
2489666	PROB	n/a	LTP322	ltpFR2	11	n/a	n/a	n/a	15	19	7	4	8
2491919	PROB	n/a	LTP322	ltpFR2	11	n/a	n/a	n/a	15	20	7	7	6
2493554	PROB	n/a	LTP322	ltpFR2	11	n/a	n/a	n/a	15	10	4	1	5
2494837	PROB	n/a	LTP322	ltpFR2	11	n/a	n/a	n/a	15	16	2	6	8
2496156	PROB	n/a	LTP322	ltpFR2	11	n/a	n/a	n/a	15	17	2	7	8
2497975	PROB	n/a	LTP322	ltpFR2	11	n/a	n/a	n/a	15	17	4	6	7
2499358	PROB	n/a	LTP322	ltpFR2	11	n/a	n/a	n/a	15	20	9	4	7
2500910	PROB	n/a	LTP322	ltpFR2	11	n/a	n/a	n/a	15	13	7	5	1
2502510	PROB	n/a	LTP322	ltpFR2	11	n/a	n/a	n/a	15	19	6	7	6
2504063	PROB	n/a	LTP322	ltpFR2	11	n/a	n/a	n/a	15	9	3	1	5
2505431	PROB	n/a	LTP322	ltpFR2	11	n/a	n/a	n/a	15	18	1	9	8
2506630	PROB	n/a	LTP322	ltpFR2	11	n/a	n/a	n/a	15	7	3	1	3
2507966	PROB	n/a	LTP322	ltpFR2	11	n/a	n/a	n/a	15	21	4	8	9
2509504	STOP	n/a	LTP322	ltpFR2	11	n/a	n/a	n/a	15	n/a	n/a	n/a	n/a
2510834	WORD	wordpools/wasnorm_wordpool_576.txt	LTP322	ltpFR2	11	10	CUPBOARD	425	n/a	n/a	0	0	0
2513519	WORD	wordpools/wasnorm_wordpool_576.txt	LTP322	ltpFR2	11	10	PLATE	1086	n/a	n/a	0	0	0
2516173	WORD	wordpools/wasnorm_wordpool_576.txt	LTP322	ltpFR2	11	10	REPORT	1184	n/a	n/a	0	0	0
2518690	WORD	wordpools/wasnorm_wordpool_576.txt	LTP322	ltpFR2	11	10	BINDER	127	n/a	n/a	0	0	0
2521476	WORD	wordpools/wasnorm_wordpool_576.txt	LTP322	ltpFR2	11	10	BANJO	82	n/a	n/a	0	0	0
2524182	WORD	wordpools/wasnorm_wordpool_576.txt	LTP322	ltpFR2	11	10	OUTFIT	988	n/a	n/a	0	0	0
2526664	WORD	wordpools/wasnorm_wordpool_576.txt	LTP322	ltpFR2	11	10	LAPEL	800	n/a	n/a	0	0	0
2529350	WORD	wordpools/wasnorm_wordpool_576.txt	LTP322	ltpFR2	11	10	RIFLE	1192	n/a	n/a	0	0	0
2531785	WORD	wordpools/wasnorm_wordpool_576.txt	LTP322	ltpFR2	11	10	SLOPE	1328	n/a	n/a	0	0	0
2534604	WORD	wordpools/wasnorm_wordpool_576.txt	LTP322	ltpFR2	11	10	GRAVEL	659	n/a	n/a	0	0	0
2537322	WORD	wordpools/wasnorm_wordpool_576.txt	LTP322	ltpFR2	11	10	FLOWER	584	n/a	n/a	0	0	0
2540026	WORD	wordpools/wasnorm_wordpool_576.txt	LTP322	ltpFR2	11	10	SHERIFF	1284	n/a	n/a	0	0	0
2542593	WORD	wordpools/wasnorm_wordpool_576.txt	LTP322	ltpFR2	11	10	SPARROW	1347	n/a	n/a	0	0	0
2545329	WORD	wordpools/wasnorm_wordpool_576.txt	LTP322	ltpFR2	11	10	DIME	466	n/a	n/a	0	0	0
2548038	WORD	wordpools/wasnorm_wordpool_576.txt	LTP322	ltpFR2	11	10	AGENT	10	n/a	n/a	0	0	0
2550767	WORD	wordpools/wasnorm_wordpool_576.txt	LTP322	ltpFR2	11	10	DOLPHIN	483	n/a	n/a	0	0	0
2553219	WORD	wordpools/wasnorm_wordpool_576.txt	LTP322	ltpFR2	11	10	FRANCE	601	n/a	n/a	0	0	0
2555788	WORD	wordpools/wasnorm_wordpool_576.txt	LTP322	ltpFR2	11	10	UMPIRE	1535	n/a	n/a	0	0	0
2558306	WORD	wordpools/wasnorm_wordpool_576.txt	LTP322	ltpFR2	11	10	SCARECROW	1245	n/a	n/a	0	0	0
2560880	WORD	wordpools/wasnorm_wordpool_576.txt	LTP322	ltpFR2	11	10	STAR	1373	n/a	n/a	0	0	0
2563549	WORD	wordpools/wasnorm_wordpool_576.txt	LTP322	ltpFR2	11	10	FIDDLE	561	n/a	n/a	0	0	0
2565979	WORD	wordpools/wasnorm_wordpool_576.txt	LTP322	ltpFR2	11	10	SHELF	1280	n/a	n/a	0	0	0
2568454	WORD	wordpools/wasnorm_wordpool_576.txt	LTP322	ltpFR2	11	10	COFFEE	341	n/a	n/a	0	0	0
2570968	WORD	wordpools/wasnorm_wordpool_576.txt	LTP322	ltpFR2	11	10	JELLY	755	n/a	n/a	0	0	0
2572574	START	n/a	LTP322	ltpFR2	11	n/a	n/a	n/a	16	n/a	n/a	n/a	n/a
2573692	DISTRACTOR	n/a	LTP322	ltpFR2	11	10	n/a	n/a	n/a	n/a	0	0	0
2573702	PROB	n/a	LTP322	ltpFR2	11	n/a	n/a	n/a	16	13	1	8	4
2575286	PROB	n/a	LTP322	ltpFR2	11	n/a	n/a	n/a	16	13	5	7	1
2576736	PROB	n/a	LTP322	ltpFR2	11	n/a	n/a	n/a	16	15	4	7	1
2578188	PROB	n/a	LTP322	ltpFR2	11	n/a	n/a	n/a	16	19	8	6	5
2579940	PROB	n/a	LTP322	ltpFR2	11	n/a	n/a	n/a	16	16	2	5	9
2581506	PROB	n/a	LTP322	ltpFR2	11	n/a	n/a	n/a	16	14	9	2	3
2583209	PROB	n/a	LTP322	ltpFR2	11	n/a	n/a	n/a	16	15	9	2	4
2584409	PROB	n/a	LTP322	ltpFR2	11	n/a	n/a	n/a	16	13	4	7	2
2586295	PROB	n/a	LTP322	ltpFR2	11	n/a	n/a	n/a	16	17	7	9	1
2588048	PROB	n/a	LTP322	ltpFR2	11	n/a	n/a	n/a	16	16	3	6	7
2590265	PROB	n/a	LTP322	ltpFR2	11	n/a	n/a	n/a	16	13	1	5	7
2591949	PROB	n/a	LTP322	ltpFR2	11	n/a	n/a	n/a	16	12	8	2	2
2593202	PROB	n/a	LTP322	ltpFR2	11	n/a	n/a	n/a	16	12	9	2	1
2595252	STOP	n/a	LTP322	ltpFR2	11	n/a	n/a	n/a	16	n/a	n/a	n/a	n/a
2598504	REC_START	n/a	LTP322	ltpFR2	11	10	n/a	n/a	n/a	n/a	0	0	0
2601426	REC_WORD	wordpools/wasnorm_wordpool_576.txt	LTP322	ltpFR2	11	10	CUPBOARD	425	n/a	n/a	0	0	0
2602984	REC_WORD	wordpools/wasnorm_wordpool_576.txt	LTP322	ltpFR2	11	10	PLATE	1086	n/a	n/a	0	0	0
2605521	REC_WORD	wordpools/wasnorm_wordpool_576.txt	LTP322	ltpFR2	11	10	REPORT	1184	n/a	n/a	0	0	0
2607137	REC_WORD	wordpools/wasnorm_wordpool_576.txt	LTP322	ltpFR2	11	10	BINDER	127	n/a	n/a	0	0	0
2609486	REC_WORD	wordpools/wasnorm_wordpool_576.txt	LTP322	ltpFR2	11	10	BANJO	82	n/a	n/a	0	0	0
2611017	REC_WORD	wordpools/wasnorm_wordpool_576.txt	LTP322	ltpFR2	11	10	FIDDLE	561	n/a	n/a	0	0	0
2612833	REC_WORD	wordpools/wasnorm_wordpool_576.txt	LTP322	ltpFR2	11	10	OUTFIT	988	n/a	n/a	0	0	0
2614514	REC_WORD	wordpools/wasnorm_wordpool_576.txt	LTP322	ltpFR2	11	10	LAPEL	800	n/a	n/a	0	0	0
2617381	REC_WORD	wordpools/wasnorm_wordpool_576.txt	LTP322	ltpFR2	11	10	SLOPE	1328	n/a	n/a	0	0	0
2619076	REC_WORD	wordpools/wasnorm_wordpool_576.txt	LTP322	ltpFR2	11	10	RIFLE	1192	n/a	n/a	0	0	0
2620796	REC_WORD	wordpools/wasnorm_wordpool_576.txt	LTP322	ltpFR2	11	10	FLOWER	584	n/a	n/a	0	0	0
2622441	REC_WORD	wordpools/wasnorm_wordpool_576.txt	LTP322	ltpFR2	11	10	GARDEN	623	n/a	n/a	0	0	0
2626773	REC_WORD	wordpools/wasnorm_wordpool_576.txt	LTP322	ltpFR2	11	10	SPARROW	1347	n/a	n/a	0	0	0
2631649	REC_WORD	wordpools/wasnorm_wordpool_576.txt	LTP322	ltpFR2	11	10	SHERIFF	1284	n/a	n/a	0	0	0
2633836	REC_WORD	wordpools/wasnorm_wordpool_576.txt	LTP322	ltpFR2	11	10	DIME	466	n/a	n/a	0	0	0
2635304	REC_WORD	wordpools/wasnorm_wordpool_576.txt	LTP322	ltpFR2	11	10	DOLPHIN	483	n/a	n/a	0	0	0
2636694	REC_WORD	wordpools/wasnorm_wordpool_576.txt	LTP322	ltpFR2	11	10	FRANCE	601	n/a	n/a	0	0	0
2638395	REC_WORD	wordpools/wasnorm_wordpool_576.txt	LTP322	ltpFR2	11	10	STAR	1373	n/a	n/a	0	0	0
2640229	REC_WORD	wordpools/wasnorm_wordpool_576.txt	LTP322	ltpFR2	11	10	AGENT	10	n/a	n/a	0	0	0
2642376	REC_WORD	wordpools/wasnorm_wordpool_576.txt	LTP322	ltpFR2	11	10	SCARECROW	1245	n/a	n/a	0	0	0
2653076	REC_WORD	wordpools/wasnorm_wordpool_576.txt	LTP322	ltpFR2	11	10	FIDDLE	561	n/a	n/a	0	0	0
2655189	REC_WORD	wordpools/wasnorm_wordpool_576.txt	LTP322	ltpFR2	11	10	COFFEE	341	n/a	n/a	0	0	0
2656895	REC_WORD	wordpools/wasnorm_wordpool_576.txt	LTP322	ltpFR2	11	10	JELLY	755	n/a	n/a	0	0	0
2688961	WORD	wordpools/wasnorm_wordpool_576.txt	LTP322	ltpFR2	11	11	TABLET	1427	n/a	n/a	0	0	0
2691512	WORD	wordpools/wasnorm_wordpool_576.txt	LTP322	ltpFR2	11	11	SIBLING	1301	n/a	n/a	0	0	0
2694281	WORD	wordpools/wasnorm_wordpool_576.txt	LTP322	ltpFR2	11	11	SHORTS	1293	n/a	n/a	0	0	0
2696866	WORD	wordpools/wasnorm_wordpool_576.txt	LTP322	ltpFR2	11	11	NAPKIN	937	n/a	n/a	0	0	0
2699401	WORD	wordpools/wasnorm_wordpool_576.txt	LTP322	ltpFR2	11	11	STAPLE	1371	n/a	n/a	0	0	0
2702189	WORD	wordpools/wasnorm_wordpool_576.txt	LTP322	ltpFR2	11	11	CONTRACT	368	n/a	n/a	0	0	0
2704739	WORD	wordpools/wasnorm_wordpool_576.txt	LTP322	ltpFR2	11	11	XEROX	1628	n/a	n/a	0	0	0
2707275	WORD	wordpools/wasnorm_wordpool_576.txt	LTP322	ltpFR2	11	11	BISON	131	n/a	n/a	0	0	0
2709794	WORD	wordpools/wasnorm_wordpool_576.txt	LTP322	ltpFR2	11	11	PARENT	1013	n/a	n/a	0	0	0
2712545	WORD	wordpools/wasnorm_wordpool_576.txt	LTP322	ltpFR2	11	11	MAILBOX	857	n/a	n/a	0	0	0
2715117	WORD	wordpools/wasnorm_wordpool_576.txt	LTP322	ltpFR2	11	11	BEAKER	104	n/a	n/a	0	0	0
2717784	WORD	wordpools/wasnorm_wordpool_576.txt	LTP322	ltpFR2	11	11	SURVEY	1414	n/a	n/a	0	0	0
2720436	WORD	wordpools/wasnorm_wordpool_576.txt	LTP322	ltpFR2	11	11	STALLION	1369	n/a	n/a	0	0	0
2722973	WORD	wordpools/wasnorm_wordpool_576.txt	LTP322	ltpFR2	11	11	BEEF	113	n/a	n/a	0	0	0
2725757	WORD	wordpools/wasnorm_wordpool_576.txt	LTP322	ltpFR2	11	11	MEAT	883	n/a	n/a	0	0	0
2728326	WORD	wordpools/wasnorm_wordpool_576.txt	LTP322	ltpFR2	11	11	GALLON	618	n/a	n/a	0	0	0
2731129	WORD	wordpools/wasnorm_wordpool_576.txt	LTP322	ltpFR2	11	11	BACON	67	n/a	n/a	0	0	0
2733579	WORD	wordpools/wasnorm_wordpool_576.txt	LTP322	ltpFR2	11	11	PAPER	1011	n/a	n/a	0	0	0
2736049	WORD	wordpools/wasnorm_wordpool_576.txt	LTP322	ltpFR2	11	11	CAMEL	223	n/a	n/a	0	0	0
2738650	WORD	wordpools/wasnorm_wordpool_576.txt	LTP322	ltpFR2	11	11	SLIDE	1326	n/a	n/a	0	0	0
2741436	WORD	wordpools/wasnorm_wordpool_576.txt	LTP322	ltpFR2	11	11	CASHIER	254	n/a	n/a	0	0	0
2743871	WORD	wordpools/wasnorm_wordpool_576.txt	LTP322	ltpFR2	11	11	CIGAR	308	n/a	n/a	0	0	0
2746474	WORD	wordpools/wasnorm_wordpool_576.txt	LTP322	ltpFR2	11	11	LEADER	807	n/a	n/a	0	0	0
2749077	WORD	wordpools/wasnorm_wordpool_576.txt	LTP322	ltpFR2	11	11	PISTOL	1075	n/a	n/a	0	0	0
2750695	START	n/a	LTP322	ltpFR2	11	n/a	n/a	n/a	17	n/a	n/a	n/a	n/a
2751791	DISTRACTOR	n/a	LTP322	ltpFR2	11	11	n/a	n/a	n/a	n/a	0	0	0
2751797	PROB	n/a	LTP322	ltpFR2	11	n/a	n/a	n/a	17	23	8	7	8
2755714	PROB	n/a	LTP322	ltpFR2	11	n/a	n/a	n/a	17	14	9	2	3
2757234	PROB	n/a	LTP322	ltpFR2	11	n/a	n/a	n/a	17	15	5	8	2
2758866	PROB	n/a	LTP322	ltpFR2	11	n/a	n/a	n/a	17	13	3	4	6
2760550	PROB	n/a	LTP322	ltpFR2	11	n/a	n/a	n/a	17	16	8	2	6
2761635	PROB	n/a	LTP322	ltpFR2	11	n/a	n/a	n/a	17	16	8	5	3
2763822	PROB	n/a	LTP322	ltpFR2	11	n/a	n/a	n/a	17	8	1	6	1
2764922	PROB	n/a	LTP322	ltpFR2	11	n/a	n/a	n/a	17	7	2	2	3
2767142	PROB	n/a	LTP322	ltpFR2	11	n/a	n/a	n/a	17	13	5	6	2
2768709	PROB	n/a	LTP322	ltpFR2	11	n/a	n/a	n/a	17	11	8	2	1
2769742	PROB	n/a	LTP322	ltpFR2	11	n/a	n/a	n/a	17	12	1	2	9
2771442	PROB	n/a	LTP322	ltpFR2	11	n/a	n/a	n/a	17	14	2	8	4
2772877	PROB	n/a	LTP322	ltpFR2	11	n/a	n/a	n/a	17	20	5	6	9
2774442	STOP	n/a	LTP322	ltpFR2	11	n/a	n/a	n/a	17	n/a	n/a	n/a	n/a
2776565	REC_START	n/a	LTP322	ltpFR2	11	11	n/a	n/a	n/a	n/a	0	0	0
2778917	REC_WORD	wordpools/wasnorm_wordpool_576.txt	LTP322	ltpFR2	11	11	TABLET	1427	n/a	n/a	0	0	0
2782550	REC_WORD	wordpools/wasnorm_wordpool_576.txt	LTP322	ltpFR2	11	11	BISON	131	n/a	n/a	0	0	0
2783822	REC_WORD	wordpools/wasnorm_wordpool_576.txt	LTP322	ltpFR2	11	11	SIBLING	1301	n/a	n/a	0	0	0
2785143	REC_WORD	wordpools/wasnorm_wordpool_576.txt	LTP322	ltpFR2	11	11	SHORTS	1293	n/a	n/a	0	0	0
2787321	REC_WORD	wordpools/wasnorm_wordpool_576.txt	LTP322	ltpFR2	11	11	PARENT	1013	n/a	n/a	0	0	0
2790011	REC_WORD	wordpools/wasnorm_wordpool_576.txt	LTP322	ltpFR2	11	11	MEAT	883	n/a	n/a	0	0	0
2791781	REC_WORD	wordpools/wasnorm_wordpool_576.txt	LTP322	ltpFR2	11	11	GALLON	618	n/a	n/a	0	0	0
2793360	REC_WORD	wordpools/wasnorm_wordpool_576.txt	LTP322	ltpFR2	11	11	BACON	67	n/a	n/a	0	0	0
2800244	REC_WORD	wordpools/wasnorm_wordpool_576.txt	LTP322	ltpFR2	11	11	PORK	1108	n/a	n/a	0	0	0
2802707	REC_WORD	wordpools/wasnorm_wordpool_576.txt	LTP322	ltpFR2	11	11	STALLION	1369	n/a	n/a	0	0	0
2804493	REC_WORD	wordpools/wasnorm_wordpool_576.txt	LTP322	ltpFR2	11	11	MAILBOX	857	n/a	n/a	0	0	0
2805493	REC_WORD_VV	wordpools/wasnorm_wordpool_576.txt	LTP322	ltpFR2	11	11	<>	-1	n/a	n/a	0	0	0
2807146	REC_WORD	wordpools/wasnorm_wordpool_576.txt	LTP322	ltpFR2	11	11	SURVEY	1414	n/a	n/a	0	0	0
2808621	REC_WORD	wordpools/wasnorm_wordpool_576.txt	LTP322	ltpFR2	11	11	CONTRACT	368	n/a	n/a	0	0	0
2810378	REC_WORD	wordpools/wasnorm_wordpool_576.txt	LTP322	ltpFR2	11	11	BEAKER	104	n/a	n/a	0	0	0
2815588	REC_WORD	wordpools/wasnorm_wordpool_576.txt	LTP322	ltpFR2	11	11	CAMEL	223	n/a	n/a	0	0	0
2823105	REC_WORD	wordpools/wasnorm_wordpool_576.txt	LTP322	ltpFR2	11	11	XEROX	1628	n/a	n/a	0	0	0
2824832	REC_WORD	wordpools/wasnorm_wordpool_576.txt	LTP322	ltpFR2	11	11	PAPER	1011	n/a	n/a	0	0	0
2867004	WORD	wordpools/wasnorm_wordpool_576.txt	LTP322	ltpFR2	11	12	JURY	766	n/a	n/a	0	0	0
2869732	WORD	wordpools/wasnorm_wordpool_576.txt	LTP322	ltpFR2	11	12	EMPIRE	530	n/a	n/a	0	0	0
2872424	WORD	wordpools/wasnorm_wordpool_576.txt	LTP322	ltpFR2	11	12	YOLK	1633	n/a	n/a	0	0	0
2874876	WORD	wordpools/wasnorm_wordpool_576.txt	LTP322	ltpFR2	11	12	GYMNAST	675	n/a	n/a	0	0	0
2877540	WORD	wordpools/wasnorm_wordpool_576.txt	LTP322	ltpFR2	11	12	FOOTBALL	591	n/a	n/a	0	0	0
2879960	WORD	wordpools/wasnorm_wordpool_576.txt	LTP322	ltpFR2	11	12	ELBOW	520	n/a	n/a	0	0	0
2882532	WORD	wordpools/wasnorm_wordpool_576.txt	LTP322	ltpFR2	11	12	OMELET	976	n/a	n/a	0	0	0
2885346	WORD	wordpools/wasnorm_wordpool_576.txt	LTP322	ltpFR2	11	12	BLOCKADE	137	n/a	n/a	0	0	0
2888072	WORD	wordpools/wasnorm_wordpool_576.txt	LTP322	ltpFR2	11	12	STICKER	1382	n/a	n/a	0	0	0
2890702	WORD	wordpools/wasnorm_wordpool_576.txt	LTP322	ltpFR2	11	12	CABIN	211	n/a	n/a	0	0	0
2893254	WORD	wordpools/wasnorm_wordpool_576.txt	LTP322	ltpFR2	11	12	EGYPT	519	n/a	n/a	0	0	0
2895957	WORD	wordpools/wasnorm_wordpool_576.txt	LTP322	ltpFR2	11	12	BRAKE	166	n/a	n/a	0	0	0
2898591	WORD	wordpools/wasnorm_wordpool_576.txt	LTP322	ltpFR2	11	12	RUST	1219	n/a	n/a	0	0	0
2901027	WORD	wordpools/wasnorm_wordpool_576.txt	LTP322	ltpFR2	11	12	FILM	565	n/a	n/a	0	0	0
2903449	WORD	wordpools/wasnorm_wordpool_576.txt	LTP322	ltpFR2	11	12	POPCORN	1104	n/a	n/a	0	0	0
2906200	WORD	wordpools/wasnorm_wordpool_576.txt	LTP322	ltpFR2	11	12	RECORD	1176	n/a	n/a	0	0	0
2908985	WORD	wordpools/wasnorm_wordpool_576.txt	LTP322	ltpFR2	11	12	GUITAR	670	n/a	n/a	0	0	0
2911706	WORD	wordpools/wasnorm_wordpool_576.txt	LTP322	ltpFR2	11	12	FLIPPER	580	n/a	n/a	0	0	0
2914372	WORD	wordpools/wasnorm_wordpool_576.txt	LTP322	ltpFR2	11	12	CURTAIN	427	n/a	n/a	0	0	0
2916858	WORD	wordpools/wasnorm_wordpool_576.txt	LTP322	ltpFR2	11	12	ARM	38	n/a	n/a	0	0	0
2919442	WORD	wordpools/wasnorm_wordpool_576.txt	LTP322	ltpFR2	11	12	SEAL	1262	n/a	n/a	0	0	0
2922215	WORD	wordpools/wasnorm_wordpool_576.txt	LTP322	ltpFR2	11	12	COUCH	386	n/a	n/a	0	0	0
2924664	WORD	wordpools/wasnorm_wordpool_576.txt	LTP322	ltpFR2	11	12	HAND	683	n/a	n/a	0	0	0
2927168	WORD	wordpools/wasnorm_wordpool_576.txt	LTP322	ltpFR2	11	12	ATLAS	53	n/a	n/a	0	0	0
2928786	START	n/a	LTP322	ltpFR2	11	n/a	n/a	n/a	18	n/a	n/a	n/a	n/a
2929634	DISTRACTOR	n/a	LTP322	ltpFR2	11	12	n/a	n/a	n/a	n/a	0	0	0
2929652	PROB	n/a	LTP322	ltpFR2	11	n/a	n/a	n/a	18	12	1	6	5
2931453	PROB	n/a	LTP322	ltpFR2	11	n/a	n/a	n/a	18	14	3	9	2
2933006	PROB	n/a	LTP322	ltpFR2	11	n/a	n/a	n/a	18	15	1	9	5
2934091	PROB	n/a	LTP322	ltpFR2	11	n/a	n/a	n/a	18	19	6	5	8
2935474	PROB	n/a	LTP322	ltpFR2	11	n/a	n/a	n/a	18	16	3	5	8
2936808	PROB	n/a	LTP322	ltpFR2	11	n/a	n/a	n/a	18	21	9	7	5
2938343	PROB	n/a	LTP322	ltpFR2	11	n/a	n/a	n/a	18	4	1	2	1
2939312	PROB	n/a	LTP322	ltpFR2	11	n/a	n/a	n/a	18	14	1	6	7
2940680	PROB	n/a	LTP322	ltpFR2	11	n/a	n/a	n/a	18	19	9	8	2
2942397	PROB	n/a	LTP322	ltpFR2	11	n/a	n/a	n/a	18	24	9	9	6
2943866	PROB	n/a	LTP322	ltpFR2	11	n/a	n/a	n/a	18	13	6	3	4
2946333	PROB	n/a	LTP322	ltpFR2	11	n/a	n/a	n/a	18	5	2	2	1
2947417	PROB	n/a	LTP322	ltpFR2	11	n/a	n/a	n/a	18	19	8	6	5
2948753	PROB	n/a	LTP322	ltpFR2	11	n/a	n/a	n/a	18	14	4	3	7
2949987	PROB	n/a	LTP322	ltpFR2	11	n/a	n/a	n/a	18	20	4	7	9
2951513	STOP	n/a	LTP322	ltpFR2	11	n/a	n/a	n/a	18	n/a	n/a	n/a	n/a
2954608	REC_START	n/a	LTP322	ltpFR2	11	12	n/a	n/a	n/a	n/a	0	0	0
2956547	REC_WORD	wordpools/wasnorm_wordpool_576.txt	LTP322	ltpFR2	11	12	FLIPPER	580	n/a	n/a	0	0	0
2958219	REC_WORD	wordpools/wasnorm_wordpool_576.txt	LTP322	ltpFR2	11	12	CURTAIN	427	n/a	n/a	0	0	0
2960548	REC_WORD	wordpools/wasnorm_wordpool_576.txt	LTP322	ltpFR2	11	12	FILM	565	n/a	n/a	0	0	0
2961929	REC_WORD	wordpools/wasnorm_wordpool_576.txt	LTP322	ltpFR2	11	12	POPCORN	1104	n/a	n/a	0	0	0
2964202	REC_WORD	wordpools/wasnorm_wordpool_576.txt	LTP322	ltpFR2	11	12	EGYPT	519	n/a	n/a	0	0	0
2965803	REC_WORD	wordpools/wasnorm_wordpool_576.txt	LTP322	ltpFR2	11	12	JURY	766	n/a	n/a	0	0	0
2967485	REC_WORD	wordpools/wasnorm_wordpool_576.txt	LTP322	ltpFR2	11	12	BRAKE	166	n/a	n/a	0	0	0
2968956	REC_WORD	wordpools/wasnorm_wordpool_576.txt	LTP322	ltpFR2	11	12	ARM	38	n/a	n/a	0	0	0
2971313	REC_WORD	wordpools/wasnorm_wordpool_576.txt	LTP322	ltpFR2	11	12	ELBOW	520	n/a	n/a	0	0	0
2972954	REC_WORD	wordpools/wasnorm_wordpool_576.txt	LTP322	ltpFR2	11	12	RUST	1219	n/a	n/a	0	0	0
2976598	REC_WORD	wordpools/wasnorm_wordpool_576.txt	LTP322	ltpFR2	11	12	FOOTBALL	591	n/a	n/a	0	0	0
2978165	REC_WORD	wordpools/wasnorm_wordpool_576.txt	LTP322	ltpFR2	11	12	GYMNAST	675	n/a	n/a	0	0	0
2983651	REC_WORD	wordpools/wasnorm_wordpool_576.txt	LTP322	ltpFR2	11	12	BLOCKADE	137	n/a	n/a	0	0	0
2989573	REC_WORD	wordpools/wasnorm_wordpool_576.txt	LTP322	ltpFR2	11	12	STICKER	1382	n/a	n/a	0	0	0
3045047	WORD	wordpools/wasnorm_wordpool_576.txt	LTP322	ltpFR2	11	13	MAMMAL	861	n/a	n/a	0	0	0
3047783	WORD	wordpools/wasnorm_wordpool_576.txt	LTP322	ltpFR2	11	13	CHIPMUNK	304	n/a	n/a	0	0	0
3050585	WORD	wordpools/wasnorm_wordpool_576.txt	LTP322	ltpFR2	11	13	SCOTCH	1251	n/a	n/a	0	0	0
3053337	WORD	wordpools/wasnorm_wordpool_576.txt	LTP322	ltpFR2	11	13	SWAMP	1416	n/a	n/a	0	0	0
3056090	WORD	wordpools/wasnorm_wordpool_576.txt	LTP322	ltpFR2	11	13	HUSBAND	728	n/a	n/a	0	0	0
3058714	WORD	wordpools/wasnorm_wordpool_576.txt	LTP322	ltpFR2	11	13	SPOUSE	1358	n/a	n/a	0	0	0
3061384	WORD	wordpools/wasnorm_wordpool_576.txt	LTP322	ltpFR2	11	13	ANTLER	29	n/a	n/a	0	0	0
3064153	WORD	wordpools/wasnorm_wordpool_576.txt	LTP322	ltpFR2	11	13	CROWN	415	n/a	n/a	0	0	0
3066680	WORD	wordpools/wasnorm_wordpool_576.txt	LTP322	ltpFR2	11	13	BRANCH	168	n/a	n/a	0	0	0
3069400	WORD	wordpools/wasnorm_wordpool_576.txt	LTP322	ltpFR2	11	13	KITCHEN	778	n/a	n/a	0	0	0
3071919	WORD	wordpools/wasnorm_wordpool_576.txt	LTP322	ltpFR2	11	13	BLENDER	136	n/a	n/a	0	0	0
3074395	WORD	wordpools/wasnorm_wordpool_576.txt	LTP322	ltpFR2	11	13	PLAZA	1088	n/a	n/a	0	0	0
3076830	WORD	wordpools/wasnorm_wordpool_576.txt	LTP322	ltpFR2	11	13	PORTRAIT	1111	n/a	n/a	0	0	0
3079366	WORD	wordpools/wasnorm_wordpool_576.txt	LTP322	ltpFR2	11	13	GARBAGE	622	n/a	n/a	0	0	0
3082036	WORD	wordpools/wasnorm_wordpool_576.txt	LTP322	ltpFR2	11	13	GARDEN	623	n/a	n/a	0	0	0
3084838	WORD	wordpools/wasnorm_wordpool_576.txt	LTP322	ltpFR2	11	13	SANDWICH	1232	n/a	n/a	0	0	0
3087406	WORD	wordpools/wasnorm_wordpool_576.txt	LTP322	ltpFR2	11	13	SERVANT	1271	n/a	n/a	0	0	0
3089909	WORD	wordpools/wasnorm_wordpool_576.txt	LTP322	ltpFR2	11	13	PEDAL	1037	n/a	n/a	0	0	0
3092668	WORD	wordpools/wasnorm_wordpool_576.txt	LTP322	ltpFR2	11	13	DUST	508	n/a	n/a	0	0	0
3095164	WORD	wordpools/wasnorm_wordpool_576.txt	LTP322	ltpFR2	11	13	TWIG	1527	n/a	n/a	0	0	0
3097890	WORD	wordpools/wasnorm_wordpool_576.txt	LTP322	ltpFR2	11	13	COCKTAIL	338	n/a	n/a	0	0	0
3100574	WORD	wordpools/wasnorm_wordpool_576.txt	LTP322	ltpFR2	11	13	SUITCASE	1403	n/a	n/a	0	0	0
3103204	WORD	wordpools/wasnorm_wordpool_576.txt	LTP322	ltpFR2	11	13	ISLAND	745	n/a	n/a	0	0	0
3105929	WORD	wordpools/wasnorm_wordpool_576.txt	LTP322	ltpFR2	11	13	CHILD	299	n/a	n/a	0	0	0
3107541	START	n/a	LTP322	ltpFR2	11	n/a	n/a	n/a	19	n/a	n/a	n/a	n/a
3108369	DISTRACTOR	n/a	LTP322	ltpFR2	11	13	n/a	n/a	n/a	n/a	0	0	0
3108375	PROB	n/a	LTP322	ltpFR2	11	n/a	n/a	n/a	19	12	6	5	1
3110200	PROB	n/a	LTP322	ltpFR2	11	n/a	n/a	n/a	19	22	6	8	8
3111952	PROB	n/a	LTP322	ltpFR2	11	n/a	n/a	n/a	19	19	5	7	7
3113937	PROB	n/a	LTP322	ltpFR2	11	n/a	n/a	n/a	19	14	5	1	8
3115570	PROB	n/a	LTP322	ltpFR2	11	n/a	n/a	n/a	19	18	3	7	8
3117171	PROB	n/a	LTP322	ltpFR2	11	n/a	n/a	n/a	19	20	2	9	9
3119456	PROB	n/a	LTP322	ltpFR2	11	n/a	n/a	n/a	19	13	5	2	6
3120790	PROB	n/a	LTP322	ltpFR2	11	n/a	n/a	n/a	19	6	2	1	3
3122725	PROB	n/a	LTP322	ltpFR2	11	n/a	n/a	n/a	19	22	5	9	8
3124228	PROB	n/a	LTP322	ltpFR2	11	n/a	n/a	n/a	19	7	4	2	1
3125662	PROB	n/a	LTP322	ltpFR2	11	n/a	n/a	n/a	19	23	9	5	9
3127497	PROB	n/a	LTP322	ltpFR2	11	n/a	n/a	n/a	19	9	2	3	4
3130033	STOP	n/a	LTP322	ltpFR2	11	n/a	n/a	n/a	19	n/a	n/a	n/a	n/a
3133436	REC_START	n/a	LTP322	ltpFR2	11	13	n/a	n/a	n/a	n/a	0	0	0
3134897	REC_WORD	wordpools/wasnorm_wordpool_576.txt	LTP322	ltpFR2	11	13	MAMMAL	861	n/a	n/a	0	0	0
3136051	REC_WORD	wordpools/wasnorm_wordpool_576.txt	LTP322	ltpFR2	11	13	CHIPMUNK	304	n/a	n/a	0	0	0
3138096	REC_WORD	wordpools/wasnorm_wordpool_576.txt	LTP322	ltpFR2	11	13	HUSBAND	728	n/a	n/a	0	0	0
3139182	REC_WORD	wordpools/wasnorm_wordpool_576.txt	LTP322	ltpFR2	11	13	SPOUSE	1358	n/a	n/a	0	0	0
3140594	REC_WORD	wordpools/wasnorm_wordpool_576.txt	LTP322	ltpFR2	11	13	CROWN	415	n/a	n/a	0	0	0
3141784	REC_WORD	wordpools/wasnorm_wordpool_576.txt	LTP322	ltpFR2	11	13	SWAMP	1416	n/a	n/a	0	0	0
3143171	REC_WORD	wordpools/wasnorm_wordpool_576.txt	LTP322	ltpFR2	11	13	BRANCH	168	n/a	n/a	0	0	0
3144531	REC_WORD	wordpools/wasnorm_wordpool_576.txt	LTP322	ltpFR2	11	13	TWIG	1527	n/a	n/a	0	0	0
3146498	REC_WORD	wordpools/wasnorm_wordpool_576.txt	LTP322	ltpFR2	11	13	KITCHEN	778	n/a	n/a	0	0	0
3147697	REC_WORD	wordpools/wasnorm_wordpool_576.txt	LTP322	ltpFR2	11	13	BLENDER	136	n/a	n/a	0	0	0
3148795	REC_WORD	wordpools/wasnorm_wordpool_576.txt	LTP322	ltpFR2	11	13	CHILD	299	n/a	n/a	0	0	0
3149869	REC_WORD	wordpools/wasnorm_wordpool_576.txt	LTP322	ltpFR2	11	13	SERVANT	1271	n/a	n/a	0	0	0
3151149	REC_WORD	wordpools/wasnorm_wordpool_576.txt	LTP322	ltpFR2	11	13	SANDWICH	1232	n/a	n/a	0	0	0
3152629	REC_WORD	wordpools/wasnorm_wordpool_576.txt	LTP322	ltpFR2	11	13	PADDLE	1000	n/a	n/a	0	0	0
3162874	REC_WORD	wordpools/wasnorm_wordpool_576.txt	LTP322	ltpFR2	11	13	COCKTAIL	338	n/a	n/a	0	0	0
3169978	REC_WORD	wordpools/wasnorm_wordpool_576.txt	LTP322	ltpFR2	11	13	SUITCASE	1403	n/a	n/a	0	0	0
3223906	WORD	wordpools/wasnorm_wordpool_576.txt	LTP322	ltpFR2	11	14	DAUGHTER	442	n/a	n/a	0	0	0
3226459	WORD	wordpools/wasnorm_wordpool_576.txt	LTP322	ltpFR2	11	14	TREAT	1501	n/a	n/a	0	0	0
3229045	WORD	wordpools/wasnorm_wordpool_576.txt	LTP322	ltpFR2	11	14	BABY	64	n/a	n/a	0	0	0
3231746	WORD	wordpools/wasnorm_wordpool_576.txt	LTP322	ltpFR2	11	14	COCOON	339	n/a	n/a	0	0	0
3234315	WORD	wordpools/wasnorm_wordpool_576.txt	LTP322	ltpFR2	11	14	STONE	1385	n/a	n/a	0	0	0
3237084	WORD	wordpools/wasnorm_wordpool_576.txt	LTP322	ltpFR2	11	14	ROBOT	1200	n/a	n/a	0	0	0
3239887	WORD	wordpools/wasnorm_wordpool_576.txt	LTP322	ltpFR2	11	14	MACHINE	852	n/a	n/a	0	0	0
3242538	WORD	wordpools/wasnorm_wordpool_576.txt	LTP322	ltpFR2	11	14	REBEL	1172	n/a	n/a	0	0	0
3245024	WORD	wordpools/wasnorm_wordpool_576.txt	LTP322	ltpFR2	11	14	ONION	977	n/a	n/a	0	0	0
3247792	WORD	wordpools/wasnorm_wordpool_576.txt	LTP322	ltpFR2	11	14	LOVER	846	n/a	n/a	0	0	0
3250595	WORD	wordpools/wasnorm_wordpool_576.txt	LTP322	ltpFR2	11	14	ICEBERG	731	n/a	n/a	0	0	0
3253281	WORD	wordpools/wasnorm_wordpool_576.txt	LTP322	ltpFR2	11	14	SEAGULL	1261	n/a	n/a	0	0	0
3256038	WORD	wordpools/wasnorm_wordpool_576.txt	LTP322	ltpFR2	11	14	PEBBLE	1035	n/a	n/a	0	0	0
3258655	WORD	wordpools/wasnorm_wordpool_576.txt	LTP322	ltpFR2	11	14	LADDER	793	n/a	n/a	0	0	0
3261453	WORD	wordpools/wasnorm_wordpool_576.txt	LTP322	ltpFR2	11	14	ZIPPER	1636	n/a	n/a	0	0	0
3264123	WORD	wordpools/wasnorm_wordpool_576.txt	LTP322	ltpFR2	11	14	CLOTHES	327	n/a	n/a	0	0	0
3266829	WORD	wordpools/wasnorm_wordpool_576.txt	LTP322	ltpFR2	11	14	TEACHER	1440	n/a	n/a	0	0	0
3269393	WORD	wordpools/wasnorm_wordpool_576.txt	LTP322	ltpFR2	11	14	VIKING	1565	n/a	n/a	0	0	0
3271996	WORD	wordpools/wasnorm_wordpool_576.txt	LTP322	ltpFR2	11	14	BARLEY	88	n/a	n/a	0	0	0
3274597	WORD	wordpools/wasnorm_wordpool_576.txt	LTP322	ltpFR2	11	14	BANQUET	86	n/a	n/a	0	0	0
3277389	WORD	wordpools/wasnorm_wordpool_576.txt	LTP322	ltpFR2	11	14	COOK	372	n/a	n/a	0	0	0
3280153	WORD	wordpools/wasnorm_wordpool_576.txt	LTP322	ltpFR2	11	14	SPIDER	1351	n/a	n/a	0	0	0
3282787	WORD	wordpools/wasnorm_wordpool_576.txt	LTP322	ltpFR2	11	14	KLEENEX	782	n/a	n/a	0	0	0
3285345	WORD	wordpools/wasnorm_wordpool_576.txt	LTP322	ltpFR2	11	14	NOMAD	955	n/a	n/a	0	0	0
3286959	START	n/a	LTP322	ltpFR2	11	n/a	n/a	n/a	20	n/a	n/a	n/a	n/a
3288109	DISTRACTOR	n/a	LTP322	ltpFR2	11	14	n/a	n/a	n/a	n/a	0	0	0
3288116	PROB	n/a	LTP322	ltpFR2	11	n/a	n/a	n/a	20	11	1	4	6
3289725	PROB	n/a	LTP322	ltpFR2	11	n/a	n/a	n/a	20	13	5	7	1
3291077	PROB	n/a	LTP322	ltpFR2	11	n/a	n/a	n/a	20	20	5	8	7
3292611	PROB	n/a	LTP322	ltpFR2	11	n/a	n/a	n/a	20	17	6	2	9
3294796	PROB	n/a	LTP322	ltpFR2	11	n/a	n/a	n/a	20	14	1	5	8
3296199	PROB	n/a	LTP322	ltpFR2	11	n/a	n/a	n/a	20	15	7	6	1
3298199	PROB	n/a	LTP322	ltpFR2	11	n/a	n/a	n/a	20	9	3	1	5
3300601	PROB	n/a	LTP322	ltpFR2	11	n/a	n/a	n/a	20	14	1	9	4
3301835	PROB	n/a	LTP322	ltpFR2	11	n/a	n/a	n/a	20	16	6	5	5
3303020	PROB	n/a	LTP322	ltpFR2	11	n/a	n/a	n/a	20	12	6	5	1
3304188	PROB	n/a	LTP322	ltpFR2	11	n/a	n/a	n/a	20	17	1	7	9
3306873	PROB	n/a	LTP322	ltpFR2	11	n/a	n/a	n/a	20	14	1	8	5
3309308	PROB	n/a	LTP322	ltpFR2	11	n/a	n/a	n/a	20	15	5	9	1
3310776	STOP	n/a	LTP322	ltpFR2	11	n/a	n/a	n/a	20	n/a	n/a	n/a	n/a
3312710	REC_START	n/a	LTP322	ltpFR2	11	14	n/a	n/a	n/a	n/a	0	0	0
3314072	REC_WORD	wordpools/wasnorm_wordpool_576.txt	LTP322	ltpFR2	11	14	ROBOT	1200	n/a	n/a	0	0	0
3315221	REC_WORD	wordpools/wasnorm_wordpool_576.txt	LTP322	ltpFR2	11	14	STONE	1385	n/a	n/a	0	0	0
3316392	REC_WORD	wordpools/wasnorm_wordpool_576.txt	LTP322	ltpFR2	11	14	PEBBLE	1035	n/a	n/a	0	0	0
3317665	REC_WORD	wordpools/wasnorm_wordpool_576.txt	LTP322	ltpFR2	11	14	KLEENEX	782	n/a	n/a	0	0	0
3320240	REC_WORD	wordpools/wasnorm_wordpool_576.txt	LTP322	ltpFR2	11	14	DAUGHTER	442	n/a	n/a	0	0	0
3321533	REC_WORD	wordpools/wasnorm_wordpool_576.txt	LTP322	ltpFR2	11	14	BABY	64	n/a	n/a	0	0	0
3322752	REC_WORD	wordpools/wasnorm_wordpool_576.txt	LTP322	ltpFR2	11	14	REBEL	1172	n/a	n/a	0	0	0
3323947	REC_WORD	wordpools/wasnorm_wordpool_576.txt	LTP322	ltpFR2	11	14	VIKING	1565	n/a	n/a	0	0	0
3325447	REC_WORD	wordpools/wasnorm_wordpool_576.txt	LTP322	ltpFR2	11	14	TEACHER	1440	n/a	n/a	0	0	0
3329096	REC_WORD	wordpools/wasnorm_wordpool_576.txt	LTP322	ltpFR2	11	14	CLOTHES	327	n/a	n/a	0	0	0
3330238	REC_WORD	wordpools/wasnorm_wordpool_576.txt	LTP322	ltpFR2	11	14	ZIPPER	1636	n/a	n/a	0	0	0
3334952	REC_WORD	wordpools/wasnorm_wordpool_576.txt	LTP322	ltpFR2	11	14	MACHINE	852	n/a	n/a	0	0	0
3337008	REC_WORD	wordpools/wasnorm_wordpool_576.txt	LTP322	ltpFR2	11	14	LADDER	793	n/a	n/a	0	0	0
3345560	REC_WORD	wordpools/wasnorm_wordpool_576.txt	LTP322	ltpFR2	11	14	NOMAD	955	n/a	n/a	0	0	0
3403135	DISTRACTOR	n/a	LTP322	ltpFR2	11	15	n/a	n/a	n/a	n/a	0	0	0
3403135	START	n/a	LTP322	ltpFR2	11	n/a	n/a	n/a	21	n/a	n/a	n/a	n/a
3403151	PROB	n/a	LTP322	ltpFR2	11	n/a	n/a	n/a	21	23	8	9	7
3404933	PROB	n/a	LTP322	ltpFR2	11	n/a	n/a	n/a	21	15	4	8	3
3406333	PROB	n/a	LTP322	ltpFR2	11	n/a	n/a	n/a	21	10	5	4	1
3407684	PROB	n/a	LTP322	ltpFR2	11	n/a	n/a	n/a	21	16	3	6	7
3409103	PROB	n/a	LTP322	ltpFR2	11	n/a	n/a	n/a	21	18	7	9	2
3410671	PROB	n/a	LTP322	ltpFR2	11	n/a	n/a	n/a	21	23	8	6	9
3412722	PROB	n/a	LTP322	ltpFR2	11	n/a	n/a	n/a	21	13	4	3	6
3414326	PROB	n/a	LTP322	ltpFR2	11	n/a	n/a	n/a	21	10	4	5	1
3415875	PROB	n/a	LTP322	ltpFR2	11	n/a	n/a	n/a	21	4	1	1	2
3416994	PROB	n/a	LTP322	ltpFR2	11	n/a	n/a	n/a	21	10	1	8	1
3418810	PROB	n/a	LTP322	ltpFR2	11	n/a	n/a	n/a	21	12	3	2	7
3420479	PROB	n/a	LTP322	ltpFR2	11	n/a	n/a	n/a	21	21	7	7	7
3421880	PROB	n/a	LTP322	ltpFR2	11	n/a	n/a	n/a	21	11	1	9	1
3423084	PROB	n/a	LTP322	ltpFR2	11	n/a	n/a	n/a	21	12	2	5	5
3424384	PROB	n/a	LTP322	ltpFR2	11	n/a	n/a	n/a	21	13	6	3	4
3426380	STOP	n/a	LTP322	ltpFR2	11	n/a	n/a	n/a	21	n/a	n/a	n/a	n/a
3428104	WORD	wordpools/wasnorm_wordpool_576.txt	LTP322	ltpFR2	11	15	TRENCH	1503	n/a	n/a	0	0	0
3430639	WORD	wordpools/wasnorm_wordpool_576.txt	LTP322	ltpFR2	11	15	TRACTOR	1493	n/a	n/a	0	0	0
3433324	WORD	wordpools/wasnorm_wordpool_576.txt	LTP322	ltpFR2	11	15	SCALPEL	1243	n/a	n/a	0	0	0
3436144	WORD	wordpools/wasnorm_wordpool_576.txt	LTP322	ltpFR2	11	15	POWDER	1117	n/a	n/a	0	0	0
3438729	WORD	wordpools/wasnorm_wordpool_576.txt	LTP322	ltpFR2	11	15	OZONE	996	n/a	n/a	0	0	0
3441481	WORD	wordpools/wasnorm_wordpool_576.txt	LTP322	ltpFR2	11	15	FARMER	553	n/a	n/a	0	0	0
3443917	WORD	wordpools/wasnorm_wordpool_576.txt	LTP322	ltpFR2	11	15	INMATE	738	n/a	n/a	0	0	0
3446386	WORD	wordpools/wasnorm_wordpool_576.txt	LTP322	ltpFR2	11	15	OUTLAW	989	n/a	n/a	0	0	0
3449072	WORD	wordpools/wasnorm_wordpool_576.txt	LTP322	ltpFR2	11	15	PARROT	1015	n/a	n/a	0	0	0
3451891	WORD	wordpools/wasnorm_wordpool_576.txt	LTP322	ltpFR2	11	15	CASHEW	253	n/a	n/a	0	0	0
3454359	WORD	wordpools/wasnorm_wordpool_576.txt	LTP322	ltpFR2	11	15	PECAN	1036	n/a	n/a	0	0	0
3457078	WORD	wordpools/wasnorm_wordpool_576.txt	LTP322	ltpFR2	11	15	KEEPER	769	n/a	n/a	0	0	0
3459730	WORD	wordpools/wasnorm_wordpool_576.txt	LTP322	ltpFR2	11	15	SPACE	1345	n/a	n/a	0	0	0
3462431	WORD	wordpools/wasnorm_wordpool_576.txt	LTP322	ltpFR2	11	15	ORCHID	982	n/a	n/a	0	0	0
3465101	WORD	wordpools/wasnorm_wordpool_576.txt	LTP322	ltpFR2	11	15	PLAID	1080	n/a	n/a	0	0	0
3467903	WORD	wordpools/wasnorm_wordpool_576.txt	LTP322	ltpFR2	11	15	COLONEL	348	n/a	n/a	0	0	0
3470472	WORD	wordpools/wasnorm_wordpool_576.txt	LTP322	ltpFR2	11	15	ICING	732	n/a	n/a	0	0	0
3473226	WORD	wordpools/wasnorm_wordpool_576.txt	LTP322	ltpFR2	11	15	ROOSTER	1209	n/a	n/a	0	0	0
3475709	WORD	wordpools/wasnorm_wordpool_576.txt	LTP322	ltpFR2	11	15	CHAPEL	280	n/a	n/a	0	0	0
3478229	WORD	wordpools/wasnorm_wordpool_576.txt	LTP322	ltpFR2	11	15	ITEM	746	n/a	n/a	0	0	0
3480797	WORD	wordpools/wasnorm_wordpool_576.txt	LTP322	ltpFR2	11	15	FLAG	573	n/a	n/a	0	0	0
3483484	WORD	wordpools/wasnorm_wordpool_576.txt	LTP322	ltpFR2	11	15	NURSE	963	n/a	n/a	0	0	0
3486054	WORD	wordpools/wasnorm_wordpool_576.txt	LTP322	ltpFR2	11	15	JUDGE	761	n/a	n/a	0	0	0
3488806	WORD	wordpools/wasnorm_wordpool_576.txt	LTP322	ltpFR2	11	15	VICTIM	1562	n/a	n/a	0	0	0
3490421	START	n/a	LTP322	ltpFR2	11	n/a	n/a	n/a	22	n/a	n/a	n/a	n/a
3491601	DISTRACTOR	n/a	LTP322	ltpFR2	11	15	n/a	n/a	n/a	n/a	0	0	0
3491608	PROB	n/a	LTP322	ltpFR2	11	n/a	n/a	n/a	22	18	9	1	8
3493639	PROB	n/a	LTP322	ltpFR2	11	n/a	n/a	n/a	22	19	9	7	3
3495508	PROB	n/a	LTP322	ltpFR2	11	n/a	n/a	n/a	22	18	9	4	5
3497909	PROB	n/a	LTP322	ltpFR2	11	n/a	n/a	n/a	22	15	7	2	6
3499395	PROB	n/a	LTP322	ltpFR2	11	n/a	n/a	n/a	22	9	4	3	2
3501713	PROB	n/a	LTP322	ltpFR2	11	n/a	n/a	n/a	22	18	9	1	8
3502880	PROB	n/a	LTP322	ltpFR2	11	n/a	n/a	n/a	22	14	5	5	4
3503915	PROB	n/a	LTP322	ltpFR2	11	n/a	n/a	n/a	22	18	7	3	8
3505166	PROB	n/a	LTP322	ltpFR2	11	n/a	n/a	n/a	22	12	7	2	3
3506765	PROB	n/a	LTP322	ltpFR2	11	n/a	n/a	n/a	22	23	6	8	9
3508419	PROB	n/a	LTP322	ltpFR2	11	n/a	n/a	n/a	22	19	7	3	9
3509552	PROB	n/a	LTP322	ltpFR2	11	n/a	n/a	n/a	22	17	2	6	9
3511271	PROB	n/a	LTP322	ltpFR2	11	n/a	n/a	n/a	22	14	4	8	2
3513169	STOP	n/a	LTP322	ltpFR2	11	n/a	n/a	n/a	22	n/a	n/a	n/a	n/a
3516309	REC_START	n/a	LTP322	ltpFR2	11	15	n/a	n/a	n/a	n/a	0	0	0
3517404	REC_WORD	wordpools/wasnorm_wordpool_576.txt	LTP322	ltpFR2	11	15	PLAID	1080	n/a	n/a	0	0	0
3518580	REC_WORD	wordpools/wasnorm_wordpool_576.txt	LTP322	ltpFR2	11	15	FARMER	553	n/a	n/a	0	0	0
3519947	REC_WORD	wordpools/wasnorm_wordpool_576.txt	LTP322	ltpFR2	11	15	TRACTOR	1493	n/a	n/a	0	0	0
3521328	REC_WORD	wordpools/wasnorm_wordpool_576.txt	LTP322	ltpFR2	11	15	TRENCH	1503	n/a	n/a	0	0	0
3522769	REC_WORD	wordpools/wasnorm_wordpool_576.txt	LTP322	ltpFR2	11	15	OUTLAW	989	n/a	n/a	0	0	0
3524157	REC_WORD	wordpools/wasnorm_wordpool_576.txt	LTP322	ltpFR2	11	15	INMATE	738	n/a	n/a	0	0	0
3526524	REC_WORD	wordpools/wasnorm_wordpool_576.txt	LTP322	ltpFR2	11	15	JUDGE	761	n/a	n/a	0	0	0
3529314	REC_WORD	wordpools/wasnorm_wordpool_576.txt	LTP322	ltpFR2	11	15	OZONE	996	n/a	n/a	0	0	0
3530441	REC_WORD	wordpools/wasnorm_wordpool_576.txt	LTP322	ltpFR2	11	15	SPACE	1345	n/a	n/a	0	0	0
3531653	REC_WORD	wordpools/wasnorm_wordpool_576.txt	LTP322	ltpFR2	11	15	SCALPEL	1243	n/a	n/a	0	0	0
3533052	REC_WORD	wordpools/wasnorm_wordpool_576.txt	LTP322	ltpFR2	11	15	POWDER	1117	n/a	n/a	0	0	0
3546724	REC_WORD	wordpools/wasnorm_wordpool_576.txt	LTP322	ltpFR2	11	15	FLAG	573	n/a	n/a	0	0	0
3575933	REC_WORD	wordpools/wasnorm_wordpool_576.txt	LTP322	ltpFR2	11	15	CHAPEL	280	n/a	n/a	0	0	0
3579084	REC_WORD	wordpools/wasnorm_wordpool_576.txt	LTP322	ltpFR2	11	15	ROOSTER	1209	n/a	n/a	0	0	0
3606726	DISTRACTOR	n/a	LTP322	ltpFR2	11	16	n/a	n/a	n/a	n/a	0	0	0
3606726	START	n/a	LTP322	ltpFR2	11	n/a	n/a	n/a	23	n/a	n/a	n/a	n/a
3606740	PROB	n/a	LTP322	ltpFR2	11	n/a	n/a	n/a	23	23	9	5	9
3608431	PROB	n/a	LTP322	ltpFR2	11	n/a	n/a	n/a	23	9	7	1	1
3609431	PROB	n/a	LTP322	ltpFR2	11	n/a	n/a	n/a	23	23	7	8	8
3611017	PROB	n/a	LTP322	ltpFR2	11	n/a	n/a	n/a	23	7	3	2	2
3612684	PROB	n/a	LTP322	ltpFR2	11	n/a	n/a	n/a	23	13	6	1	6
3614653	PROB	n/a	LTP322	ltpFR2	11	n/a	n/a	n/a	23	21	8	8	5
3616089	PROB	n/a	LTP322	ltpFR2	11	n/a	n/a	n/a	23	9	5	3	1
3617406	PROB	n/a	LTP322	ltpFR2	11	n/a	n/a	n/a	23	19	9	9	1
3618707	PROB	n/a	LTP322	ltpFR2	11	n/a	n/a	n/a	23	18	1	8	7
3621659	PROB	n/a	LTP322	ltpFR2	11	n/a	n/a	n/a	23	26	8	9	9
3623377	PROB	n/a	LTP322	ltpFR2	11	n/a	n/a	n/a	23	22	9	7	6
3625246	PROB	n/a	LTP322	ltpFR2	11	n/a	n/a	n/a	23	14	1	4	9
3627232	PROB	n/a	LTP322	ltpFR2	11	n/a	n/a	n/a	23	1	7	8	2
3628726	PROB	n/a	LTP322	ltpFR2	11	n/a	n/a	n/a	23	10	1	8	1
3630037	STOP	n/a	LTP322	ltpFR2	11	n/a	n/a	n/a	23	n/a	n/a	n/a	n/a
3631898	WORD	wordpools/wasnorm_wordpool_576.txt	LTP322	ltpFR2	11	16	WHISTLE	1606	n/a	n/a	0	0	0
3634634	WORD	wordpools/wasnorm_wordpool_576.txt	LTP322	ltpFR2	11	16	PORK	1108	n/a	n/a	0	0	0
3637452	WORD	wordpools/wasnorm_wordpool_576.txt	LTP322	ltpFR2	11	16	GLOBE	641	n/a	n/a	0	0	0
3640272	WORD	wordpools/wasnorm_wordpool_576.txt	LTP322	ltpFR2	11	16	PEANUT	1032	n/a	n/a	0	0	0
3643074	WORD	wordpools/wasnorm_wordpool_576.txt	LTP322	ltpFR2	11	16	TORTOISE	1486	n/a	n/a	0	0	0
3645709	WORD	wordpools/wasnorm_wordpool_576.txt	LTP322	ltpFR2	11	16	GARLIC	624	n/a	n/a	0	0	0
3648512	WORD	wordpools/wasnorm_wordpool_576.txt	LTP322	ltpFR2	11	16	BANKER	84	n/a	n/a	0	0	0
3651164	WORD	wordpools/wasnorm_wordpool_576.txt	LTP322	ltpFR2	11	16	INFANT	737	n/a	n/a	0	0	0
3653867	WORD	wordpools/wasnorm_wordpool_576.txt	LTP322	ltpFR2	11	16	PERCH	1048	n/a	n/a	0	0	0
3656619	WORD	wordpools/wasnorm_wordpool_576.txt	LTP322	ltpFR2	11	16	WORKER	1621	n/a	n/a	0	0	0
3659288	WORD	wordpools/wasnorm_wordpool_576.txt	LTP322	ltpFR2	11	16	HARP	689	n/a	n/a	0	0	0
3661941	WORD	wordpools/wasnorm_wordpool_576.txt	LTP322	ltpFR2	11	16	SERVER	1272	n/a	n/a	0	0	0
3664559	WORD	wordpools/wasnorm_wordpool_576.txt	LTP322	ltpFR2	11	16	WAITER	1580	n/a	n/a	0	0	0
3667279	WORD	wordpools/wasnorm_wordpool_576.txt	LTP322	ltpFR2	11	16	BLACKBOARD	133	n/a	n/a	0	0	0
3669898	WORD	wordpools/wasnorm_wordpool_576.txt	LTP322	ltpFR2	11	16	GOBLIN	645	n/a	n/a	0	0	0
3672515	WORD	wordpools/wasnorm_wordpool_576.txt	LTP322	ltpFR2	11	16	COSTUME	383	n/a	n/a	0	0	0
3675136	WORD	wordpools/wasnorm_wordpool_576.txt	LTP322	ltpFR2	11	16	LAMP	798	n/a	n/a	0	0	0
3677939	WORD	wordpools/wasnorm_wordpool_576.txt	LTP322	ltpFR2	11	16	RABBIT	1152	n/a	n/a	0	0	0
3680540	WORD	wordpools/wasnorm_wordpool_576.txt	LTP322	ltpFR2	11	16	PANTHER	1009	n/a	n/a	0	0	0
3683026	WORD	wordpools/wasnorm_wordpool_576.txt	LTP322	ltpFR2	11	16	CABBAGE	210	n/a	n/a	0	0	0
3685493	WORD	wordpools/wasnorm_wordpool_576.txt	LTP322	ltpFR2	11	16	HORNET	718	n/a	n/a	0	0	0
3687980	WORD	wordpools/wasnorm_wordpool_576.txt	LTP322	ltpFR2	11	16	LASER	801	n/a	n/a	0	0	0
3690681	WORD	wordpools/wasnorm_wordpool_576.txt	LTP322	ltpFR2	11	16	PEPPER	1047	n/a	n/a	0	0	0
3693251	WORD	wordpools/wasnorm_wordpool_576.txt	LTP322	ltpFR2	11	16	PARSLEY	1016	n/a	n/a	0	0	0
3694869	START	n/a	LTP322	ltpFR2	11	n/a	n/a	n/a	24	n/a	n/a	n/a	n/a
3695993	DISTRACTOR	n/a	LTP322	ltpFR2	11	16	n/a	n/a	n/a	n/a	0	0	0
3696004	PROB	n/a	LTP322	ltpFR2	11	n/a	n/a	n/a	24	20	6	7	6
3698054	PROB	n/a	LTP322	ltpFR2	11	n/a	n/a	n/a	24	7	9	9	9
3701422	PROB	n/a	LTP322	ltpFR2	11	n/a	n/a	n/a	24	14	9	2	3
3703559	PROB	n/a	LTP322	ltpFR2	11	n/a	n/a	n/a	24	14	3	4	7
3705576	PROB	n/a	LTP322	ltpFR2	11	n/a	n/a	n/a	24	17	9	3	5
3706977	PROB	n/a	LTP322	ltpFR2	11	n/a	n/a	n/a	24	17	8	5	4
3708712	PROB	n/a	LTP322	ltpFR2	11	n/a	n/a	n/a	24	23	7	9	7
3711664	PROB	n/a	LTP322	ltpFR2	11	n/a	n/a	n/a	24	14	7	4	3
3713133	PROB	n/a	LTP322	ltpFR2	11	n/a	n/a	n/a	24	13	6	3	4
3714750	PROB	n/a	LTP322	ltpFR2	11	n/a	n/a	n/a	24	12	5	4	3
3716101	PROB	n/a	LTP322	ltpFR2	11	n/a	n/a	n/a	24	13	1	4	8
3717552	STOP	n/a	LTP322	ltpFR2	11	n/a	n/a	n/a	24	n/a	n/a	n/a	n/a
3720639	REC_START	n/a	LTP322	ltpFR2	11	16	n/a	n/a	n/a	n/a	0	0	0
3726787	REC_WORD	wordpools/wasnorm_wordpool_576.txt	LTP322	ltpFR2	11	16	BLACKBOARD	133	n/a	n/a	0	0	0
3728905	REC_WORD	wordpools/wasnorm_wordpool_576.txt	LTP322	ltpFR2	11	16	GOBLIN	645	n/a	n/a	0	0	0
3731890	REC_WORD	wordpools/wasnorm_wordpool_576.txt	LTP322	ltpFR2	11	16	LASER	801	n/a	n/a	0	0	0
3735329	REC_WORD	wordpools/wasnorm_wordpool_576.txt	LTP322	ltpFR2	11	16	SERVER	1272	n/a	n/a	0	0	0
3737394	REC_WORD	wordpools/wasnorm_wordpool_576.txt	LTP322	ltpFR2	11	16	WAITER	1580	n/a	n/a	0	0	0
3740904	REC_WORD	wordpools/wasnorm_wordpool_576.txt	LTP322	ltpFR2	11	16	PEPPER	1047	n/a	n/a	0	0	0
3742686	REC_WORD	wordpools/wasnorm_wordpool_576.txt	LTP322	ltpFR2	11	16	RABBIT	1152	n/a	n/a	0	0	0
3744449	REC_WORD	wordpools/wasnorm_wordpool_576.txt	LTP322	ltpFR2	11	16	PANTHER	1009	n/a	n/a	0	0	0
3747130	REC_WORD	wordpools/wasnorm_wordpool_576.txt	LTP322	ltpFR2	11	16	LAMP	798	n/a	n/a	0	0	0
3750494	REC_WORD	wordpools/wasnorm_wordpool_576.txt	LTP322	ltpFR2	11	16	COSTUME	383	n/a	n/a	0	0	0
3754049	REC_WORD	wordpools/wasnorm_wordpool_576.txt	LTP322	ltpFR2	11	16	HORNET	718	n/a	n/a	0	0	0
3797168	REST_REWET	n/a	LTP322	ltpFR2	11	16	n/a	n/a	n/a	n/a	0	0	0
4048801	WORD	wordpools/wasnorm_wordpool_576.txt	LTP322	ltpFR2	11	17	WASHER	1592	n/a	n/a	0	0	0
4051530	WORD	wordpools/wasnorm_wordpool_576.txt	LTP322	ltpFR2	11	17	DENTIST	447	n/a	n/a	0	0	0
4054217	WORD	wordpools/wasnorm_wordpool_576.txt	LTP322	ltpFR2	11	17	WAGON	1578	n/a	n/a	0	0	0
4057002	WORD	wordpools/wasnorm_wordpool_576.txt	LTP322	ltpFR2	11	17	CASKET	255	n/a	n/a	0	0	0
4059570	WORD	wordpools/wasnorm_wordpool_576.txt	LTP322	ltpFR2	11	17	TWEEZERS	1526	n/a	n/a	0	0	0
4062057	WORD	wordpools/wasnorm_wordpool_576.txt	LTP322	ltpFR2	11	17	HEDGE	699	n/a	n/a	0	0	0
4064624	WORD	wordpools/wasnorm_wordpool_576.txt	LTP322	ltpFR2	11	17	FOREST	593	n/a	n/a	0	0	0
4067061	WORD	wordpools/wasnorm_wordpool_576.txt	LTP322	ltpFR2	11	17	ACTRESS	6	n/a	n/a	0	0	0
4069828	WORD	wordpools/wasnorm_wordpool_576.txt	LTP322	ltpFR2	11	17	BALLOON	75	n/a	n/a	0	0	0
4072315	WORD	wordpools/wasnorm_wordpool_576.txt	LTP322	ltpFR2	11	17	PACKAGE	997	n/a	n/a	0	0	0
4074885	WORD	wordpools/wasnorm_wordpool_576.txt	LTP322	ltpFR2	11	17	MESSAGE	888	n/a	n/a	0	0	0
4077542	WORD	wordpools/wasnorm_wordpool_576.txt	LTP322	ltpFR2	11	17	LETTUCE	814	n/a	n/a	0	0	0
4080195	WORD	wordpools/wasnorm_wordpool_576.txt	LTP322	ltpFR2	11	17	FLEET	578	n/a	n/a	0	0	0
4082958	WORD	wordpools/wasnorm_wordpool_576.txt	LTP322	ltpFR2	11	17	JUNGLE	764	n/a	n/a	0	0	0
4085576	WORD	wordpools/wasnorm_wordpool_576.txt	LTP322	ltpFR2	11	17	WASP	1593	n/a	n/a	0	0	0
4088378	WORD	wordpools/wasnorm_wordpool_576.txt	LTP322	ltpFR2	11	17	PUPPY	1144	n/a	n/a	0	0	0
4090835	WORD	wordpools/wasnorm_wordpool_576.txt	LTP322	ltpFR2	11	17	FOX	598	n/a	n/a	0	0	0
4093482	WORD	wordpools/wasnorm_wordpool_576.txt	LTP322	ltpFR2	11	17	SCISSORS	1250	n/a	n/a	0	0	0
4096087	WORD	wordpools/wasnorm_wordpool_576.txt	LTP322	ltpFR2	11	17	HEADBAND	696	n/a	n/a	0	0	0
4098588	WORD	wordpools/wasnorm_wordpool_576.txt	LTP322	ltpFR2	11	17	SHARK	1275	n/a	n/a	0	0	0
4101073	WORD	wordpools/wasnorm_wordpool_576.txt	LTP322	ltpFR2	11	17	PRINCE	1124	n/a	n/a	0	0	0
4103591	WORD	wordpools/wasnorm_wordpool_576.txt	LTP322	ltpFR2	11	17	STAKE	1368	n/a	n/a	0	0	0
4106327	WORD	wordpools/wasnorm_wordpool_576.txt	LTP322	ltpFR2	11	17	MOTOR	922	n/a	n/a	0	0	0
4109064	WORD	wordpools/wasnorm_wordpool_576.txt	LTP322	ltpFR2	11	17	COD	340	n/a	n/a	0	0	0
4110669	START	n/a	LTP322	ltpFR2	11	n/a	n/a	n/a	25	n/a	n/a	n/a	n/a
4111602	DISTRACTOR	n/a	LTP322	ltpFR2	11	17	n/a	n/a	n/a	n/a	0	0	0
4111615	PROB	n/a	LTP322	ltpFR2	11	n/a	n/a	n/a	25	12	3	3	6
4113532	PROB	n/a	LTP322	ltpFR2	11	n/a	n/a	n/a	25	7	3	2	2
4115486	PROB	n/a	LTP322	ltpFR2	11	n/a	n/a	n/a	25	9	5	3	1
4116672	PROB	n/a	LTP322	ltpFR2	11	n/a	n/a	n/a	25	12	2	3	7
4117937	PROB	n/a	LTP322	ltpFR2	11	n/a	n/a	n/a	25	14	5	5	4
4119022	PROB	n/a	LTP322	ltpFR2	11	n/a	n/a	n/a	25	14	7	5	2
4121425	PROB	n/a	LTP322	ltpFR2	11	n/a	n/a	n/a	25	10	3	4	4
4123292	PROB	n/a	LTP322	ltpFR2	11	n/a	n/a	n/a	25	13	4	8	1
4125294	PROB	n/a	LTP322	ltpFR2	11	n/a	n/a	n/a	25	13	4	8	1
4126296	PROB	n/a	LTP322	ltpFR2	11	n/a	n/a	n/a	25	9	1	6	2
4127729	PROB	n/a	LTP322	ltpFR2	11	n/a	n/a	n/a	25	15	5	2	8
4129379	PROB	n/a	LTP322	ltpFR2	11	n/a	n/a	n/a	25	17	7	6	4
4131134	PROB	n/a	LTP322	ltpFR2	11	n/a	n/a	n/a	25	11	5	1	5
4132166	PROB	n/a	LTP322	ltpFR2	11	n/a	n/a	n/a	25	10	2	1	7
4133304	STOP	n/a	LTP322	ltpFR2	11	n/a	n/a	n/a	25	n/a	n/a	n/a	n/a
4136538	REC_START	n/a	LTP322	ltpFR2	11	17	n/a	n/a	n/a	n/a	0	0	0
4144477	REC_WORD	wordpools/wasnorm_wordpool_576.txt	LTP322	ltpFR2	11	17	SHARK	1275	n/a	n/a	0	0	0
4146503	REC_WORD	wordpools/wasnorm_wordpool_576.txt	LTP322	ltpFR2	11	17	COD	340	n/a	n/a	0	0	0
4152327	REC_WORD	wordpools/wasnorm_wordpool_576.txt	LTP322	ltpFR2	11	17	FLEET	578	n/a	n/a	0	0	0
4226963	DISTRACTOR	n/a	LTP322	ltpFR2	11	18	n/a	n/a	n/a	n/a	0	0	0
4226963	START	n/a	LTP322	ltpFR2	11	n/a	n/a	n/a	26	n/a	n/a	n/a	n/a
4226978	PROB	n/a	LTP322	ltpFR2	11	n/a	n/a	n/a	26	8	2	2	4
4228463	PROB	n/a	LTP322	ltpFR2	11	n/a	n/a	n/a	26	9	5	2	2
4229932	PROB	n/a	LTP322	ltpFR2	11	n/a	n/a	n/a	26	15	6	1	8
4231550	PROB	n/a	LTP322	ltpFR2	11	n/a	n/a	n/a	26	22	8	8	6
4233649	PROB	n/a	LTP322	ltpFR2	11	n/a	n/a	n/a	26	12	5	6	1
4236135	PROB	n/a	LTP322	ltpFR2	11	n/a	n/a	n/a	26	23	8	6	9
4238320	PROB	n/a	LTP322	ltpFR2	11	n/a	n/a	n/a	26	19	7	7	5
4239754	PROB	n/a	LTP322	ltpFR2	11	n/a	n/a	n/a	26	20	7	5	8
4241507	PROB	n/a	LTP322	ltpFR2	11	n/a	n/a	n/a	26	16	4	8	4
4243224	PROB	n/a	LTP322	ltpFR2	11	n/a	n/a	n/a	26	21	9	4	8
4244859	PROB	n/a	LTP322	ltpFR2	11	n/a	n/a	n/a	26	21	7	6	8
4246260	PROB	n/a	LTP322	ltpFR2	11	n/a	n/a	n/a	26	9	1	6	2
4248045	PROB	n/a	LTP322	ltpFR2	11	n/a	n/a	n/a	26	17	5	8	4
4250942	STOP	n/a	LTP322	ltpFR2	11	n/a	n/a	n/a	26	n/a	n/a	n/a	n/a
4251849	WORD	wordpools/wasnorm_wordpool_576.txt	LTP322	ltpFR2	11	18	KETCHUP	771	n/a	n/a	0	0	0
4254639	WORD	wordpools/wasnorm_wordpool_576.txt	LTP322	ltpFR2	11	18	SCULPTURE	1258	n/a	n/a	0	0	0
4257336	WORD	wordpools/wasnorm_wordpool_576.txt	LTP322	ltpFR2	11	18	DRAWING	494	n/a	n/a	0	0	0
4260022	WORD	wordpools/wasnorm_wordpool_576.txt	LTP322	ltpFR2	11	18	HONEY	713	n/a	n/a	0	0	0
4262457	WORD	wordpools/wasnorm_wordpool_576.txt	LTP322	ltpFR2	11	18	JUGGLER	763	n/a	n/a	0	0	0
4265110	WORD	wordpools/wasnorm_wordpool_576.txt	LTP322	ltpFR2	11	18	HATCHET	691	n/a	n/a	0	0	0
4267861	WORD	wordpools/wasnorm_wordpool_576.txt	LTP322	ltpFR2	11	18	CEILING	265	n/a	n/a	0	0	0
4270613	WORD	wordpools/wasnorm_wordpool_576.txt	LTP322	ltpFR2	11	18	DIVER	476	n/a	n/a	0	0	0
4273049	WORD	wordpools/wasnorm_wordpool_576.txt	LTP322	ltpFR2	11	18	TROMBONE	1508	n/a	n/a	0	0	0
4275809	WORD	wordpools/wasnorm_wordpool_576.txt	LTP322	ltpFR2	11	18	SPONGE	1355	n/a	n/a	0	0	0
4278320	WORD	wordpools/wasnorm_wordpool_576.txt	LTP322	ltpFR2	11	18	EAGLE	512	n/a	n/a	0	0	0
4280897	WORD	wordpools/wasnorm_wordpool_576.txt	LTP322	ltpFR2	11	18	AIRPLANE	12	n/a	n/a	0	0	0
4283499	WORD	wordpools/wasnorm_wordpool_576.txt	LTP322	ltpFR2	11	18	WIDOW	1608	n/a	n/a	0	0	0
4286185	WORD	wordpools/wasnorm_wordpool_576.txt	LTP322	ltpFR2	11	18	ORANGE	980	n/a	n/a	0	0	0
4288912	WORD	wordpools/wasnorm_wordpool_576.txt	LTP322	ltpFR2	11	18	SWORD	1423	n/a	n/a	0	0	0
4291538	WORD	wordpools/wasnorm_wordpool_576.txt	LTP322	ltpFR2	11	18	PUDDLE	1140	n/a	n/a	0	0	0
4294083	WORD	wordpools/wasnorm_wordpool_576.txt	LTP322	ltpFR2	11	18	DAISY	435	n/a	n/a	0	0	0
4296760	WORD	wordpools/wasnorm_wordpool_576.txt	LTP322	ltpFR2	11	18	MILK	895	n/a	n/a	0	0	0
4299495	WORD	wordpools/wasnorm_wordpool_576.txt	LTP322	ltpFR2	11	18	OX	994	n/a	n/a	0	0	0
4301998	WORD	wordpools/wasnorm_wordpool_576.txt	LTP322	ltpFR2	11	18	BLADE	134	n/a	n/a	0	0	0
4304550	WORD	wordpools/wasnorm_wordpool_576.txt	LTP322	ltpFR2	11	18	POSTAGE	1113	n/a	n/a	0	0	0
4307325	WORD	wordpools/wasnorm_wordpool_576.txt	LTP322	ltpFR2	11	18	VALVE	1546	n/a	n/a	0	0	0
4309845	WORD	wordpools/wasnorm_wordpool_576.txt	LTP322	ltpFR2	11	18	RADISH	1158	n/a	n/a	0	0	0
4312607	WORD	wordpools/wasnorm_wordpool_576.txt	LTP322	ltpFR2	11	18	MOP	916	n/a	n/a	0	0	0
4314217	START	n/a	LTP322	ltpFR2	11	n/a	n/a	n/a	27	n/a	n/a	n/a	n/a
4315113	DISTRACTOR	n/a	LTP322	ltpFR2	11	18	n/a	n/a	n/a	n/a	0	0	0
4315127	PROB	n/a	LTP322	ltpFR2	11	n/a	n/a	n/a	27	10	4	2	4
4317035	PROB	n/a	LTP322	ltpFR2	11	n/a	n/a	n/a	27	11	4	2	5
4318969	PROB	n/a	LTP322	ltpFR2	11	n/a	n/a	n/a	27	14	5	1	8
4320452	PROB	n/a	LTP322	ltpFR2	11	n/a	n/a	n/a	27	20	7	6	7
4322105	PROB	n/a	LTP322	ltpFR2	11	n/a	n/a	n/a	27	10	1	8	1
4323290	PROB	n/a	LTP322	ltpFR2	11	n/a	n/a	n/a	27	18	6	7	5
4324572	PROB	n/a	LTP322	ltpFR2	11	n/a	n/a	n/a	27	12	9	1	2
4326790	PROB	n/a	LTP322	ltpFR2	11	n/a	n/a	n/a	27	14	5	4	5
4327927	PROB	n/a	LTP322	ltpFR2	11	n/a	n/a	n/a	27	19	8	4	7
4329478	PROB	n/a	LTP322	ltpFR2	11	n/a	n/a	n/a	27	9	5	3	1
4330678	PROB	n/a	LTP322	ltpFR2	11	n/a	n/a	n/a	27	11	5	1	5
4331745	PROB	n/a	LTP322	ltpFR2	11	n/a	n/a	n/a	27	13	5	5	3
4333081	PROB	n/a	LTP322	ltpFR2	11	n/a	n/a	n/a	27	18	3	6	9
4334397	PROB	n/a	LTP322	ltpFR2	11	n/a	n/a	n/a	27	13	7	2	4
4336721	STOP	n/a	LTP322	ltpFR2	11	n/a	n/a	n/a	27	n/a	n/a	n/a	n/a
4340002	REC_START	n/a	LTP322	ltpFR2	11	18	n/a	n/a	n/a	n/a	0	0	0
4342117	REC_WORD	wordpools/wasnorm_wordpool_576.txt	LTP322	ltpFR2	11	18	JUGGLER	763	n/a	n/a	0	0	0
4343300	REC_WORD	wordpools/wasnorm_wordpool_576.txt	LTP322	ltpFR2	11	18	BLADE	134	n/a	n/a	0	0	0
4344535	REC_WORD	wordpools/wasnorm_wordpool_576.txt	LTP322	ltpFR2	11	18	SWORD	1423	n/a	n/a	0	0	0
4345863	REC_WORD	wordpools/wasnorm_wordpool_576.txt	LTP322	ltpFR2	11	18	HATCHET	691	n/a	n/a	0	0	0
4347222	REC_WORD	wordpools/wasnorm_wordpool_576.txt	LTP322	ltpFR2	11	18	CEILING	265	n/a	n/a	0	0	0
4348657	REC_WORD	wordpools/wasnorm_wordpool_576.txt	LTP322	ltpFR2	11	18	PUDDLE	1140	n/a	n/a	0	0	0
4350045	REC_WORD	wordpools/wasnorm_wordpool_576.txt	LTP322	ltpFR2	11	18	MILK	895	n/a	n/a	0	0	0
4351844	REC_WORD	wordpools/wasnorm_wordpool_576.txt	LTP322	ltpFR2	11	18	AIRPLANE	12	n/a	n/a	0	0	0
4353191	REC_WORD	wordpools/wasnorm_wordpool_576.txt	LTP322	ltpFR2	11	18	WINDOW	1611	n/a	n/a	0	0	0
4354571	REC_WORD	wordpools/wasnorm_wordpool_576.txt	LTP322	ltpFR2	11	18	EAGLE	512	n/a	n/a	0	0	0
4355971	REC_WORD	wordpools/wasnorm_wordpool_576.txt	LTP322	ltpFR2	11	18	ORANGE	980	n/a	n/a	0	0	0
4360115	REC_WORD	wordpools/wasnorm_wordpool_576.txt	LTP322	ltpFR2	11	18	MOP	916	n/a	n/a	0	0	0
4362770	REC_WORD	wordpools/wasnorm_wordpool_576.txt	LTP322	ltpFR2	11	18	KETCHUP	771	n/a	n/a	0	0	0
4363981	REC_WORD	wordpools/wasnorm_wordpool_576.txt	LTP322	ltpFR2	11	18	SCULPTURE	1258	n/a	n/a	0	0	0
4365600	REC_WORD	wordpools/wasnorm_wordpool_576.txt	LTP322	ltpFR2	11	18	HONEY	713	n/a	n/a	0	0	0
4366919	REC_WORD	wordpools/wasnorm_wordpool_576.txt	LTP322	ltpFR2	11	18	DRAWING	494	n/a	n/a	0	0	0
4373988	REC_WORD	wordpools/wasnorm_wordpool_576.txt	LTP322	ltpFR2	11	18	DIVER	476	n/a	n/a	0	0	0
4375118	REC_WORD	wordpools/wasnorm_wordpool_576.txt	LTP322	ltpFR2	11	18	TROMBONE	1508	n/a	n/a	0	0	0
4376469	REC_WORD	wordpools/wasnorm_wordpool_576.txt	LTP322	ltpFR2	11	18	SPONGE	1355	n/a	n/a	0	0	0
4430459	DISTRACTOR	n/a	LTP322	ltpFR2	11	19	n/a	n/a	n/a	n/a	0	0	0
4430459	START	n/a	LTP322	ltpFR2	11	n/a	n/a	n/a	28	n/a	n/a	n/a	n/a
4430474	PROB	n/a	LTP322	ltpFR2	11	n/a	n/a	n/a	28	13	7	4	2
4432110	PROB	n/a	LTP322	ltpFR2	11	n/a	n/a	n/a	28	13	1	6	6
4433409	PROB	n/a	LTP322	ltpFR2	11	n/a	n/a	n/a	28	16	3	8	5
4435229	PROB	n/a	LTP322	ltpFR2	11	n/a	n/a	n/a	28	12	7	4	1
4436545	PROB	n/a	LTP322	ltpFR2	11	n/a	n/a	n/a	28	5	1	3	1
4437530	PROB	n/a	LTP322	ltpFR2	11	n/a	n/a	n/a	28	14	1	6	7
4439249	PROB	n/a	LTP322	ltpFR2	11	n/a	n/a	n/a	28	11	1	6	4
4441099	PROB	n/a	LTP322	ltpFR2	11	n/a	n/a	n/a	28	20	6	8	6
4443118	PROB	n/a	LTP322	ltpFR2	11	n/a	n/a	n/a	28	13	2	2	9
4444619	PROB	n/a	LTP322	ltpFR2	11	n/a	n/a	n/a	28	17	7	5	6
4446989	PROB	n/a	LTP322	ltpFR2	11	n/a	n/a	n/a	28	8	3	1	4
4448339	PROB	n/a	LTP322	ltpFR2	11	n/a	n/a	n/a	28	19	4	7	8
4450040	PROB	n/a	LTP322	ltpFR2	11	n/a	n/a	n/a	28	9	1	2	6
4454459	STOP	n/a	LTP322	ltpFR2	11	n/a	n/a	n/a	28	n/a	n/a	n/a	n/a
4455461	WORD	wordpools/wasnorm_wordpool_576.txt	LTP322	ltpFR2	11	19	GROUND	666	n/a	n/a	0	0	0
4457918	WORD	wordpools/wasnorm_wordpool_576.txt	LTP322	ltpFR2	11	19	TURNIP	1521	n/a	n/a	0	0	0
4460482	WORD	wordpools/wasnorm_wordpool_576.txt	LTP322	ltpFR2	11	19	STREAM	1392	n/a	n/a	0	0	0
4463289	WORD	wordpools/wasnorm_wordpool_576.txt	LTP322	ltpFR2	11	19	LUGGAGE	847	n/a	n/a	0	0	0
4465858	WORD	wordpools/wasnorm_wordpool_576.txt	LTP322	ltpFR2	11	19	HAMPER	682	n/a	n/a	0	0	0
4468655	WORD	wordpools/wasnorm_wordpool_576.txt	LTP322	ltpFR2	11	19	BROOK	177	n/a	n/a	0	0	0
4471296	WORD	wordpools/wasnorm_wordpool_576.txt	LTP322	ltpFR2	11	19	WITNESS	1618	n/a	n/a	0	0	0
4473842	WORD	wordpools/wasnorm_wordpool_576.txt	LTP322	ltpFR2	11	19	GANGSTER	620	n/a	n/a	0	0	0
4476462	WORD	wordpools/wasnorm_wordpool_576.txt	LTP322	ltpFR2	11	19	ATOM	55	n/a	n/a	0	0	0
4479070	WORD	wordpools/wasnorm_wordpool_576.txt	LTP322	ltpFR2	11	19	SWIMMER	1420	n/a	n/a	0	0	0
4481750	WORD	wordpools/wasnorm_wordpool_576.txt	LTP322	ltpFR2	11	19	MARSH	874	n/a	n/a	0	0	0
4484323	WORD	wordpools/wasnorm_wordpool_576.txt	LTP322	ltpFR2	11	19	CUSTARD	429	n/a	n/a	0	0	0
4486803	WORD	wordpools/wasnorm_wordpool_576.txt	LTP322	ltpFR2	11	19	BROTHER	179	n/a	n/a	0	0	0
4489545	WORD	wordpools/wasnorm_wordpool_576.txt	LTP322	ltpFR2	11	19	SISTER	1312	n/a	n/a	0	0	0
4492109	WORD	wordpools/wasnorm_wordpool_576.txt	LTP322	ltpFR2	11	19	BUCKET	184	n/a	n/a	0	0	0
4494559	WORD	wordpools/wasnorm_wordpool_576.txt	LTP322	ltpFR2	11	19	QUEEN	1149	n/a	n/a	0	0	0
4497345	WORD	wordpools/wasnorm_wordpool_576.txt	LTP322	ltpFR2	11	19	CAPTIVE	240	n/a	n/a	0	0	0
4499786	WORD	wordpools/wasnorm_wordpool_576.txt	LTP322	ltpFR2	11	19	LACE	792	n/a	n/a	0	0	0
4502423	WORD	wordpools/wasnorm_wordpool_576.txt	LTP322	ltpFR2	11	19	CLAMP	316	n/a	n/a	0	0	0
4504902	WORD	wordpools/wasnorm_wordpool_576.txt	LTP322	ltpFR2	11	19	YACHT	1629	n/a	n/a	0	0	0
4507560	WORD	wordpools/wasnorm_wordpool_576.txt	LTP322	ltpFR2	11	19	SALAD	1224	n/a	n/a	0	0	0
4510214	WORD	wordpools/wasnorm_wordpool_576.txt	LTP322	ltpFR2	11	19	NEUTRON	947	n/a	n/a	0	0	0
4512881	WORD	wordpools/wasnorm_wordpool_576.txt	LTP322	ltpFR2	11	19	CONVICT	371	n/a	n/a	0	0	0
4515460	WORD	wordpools/wasnorm_wordpool_576.txt	LTP322	ltpFR2	11	19	QUARTER	1148	n/a	n/a	0	0	0
4517071	START	n/a	LTP322	ltpFR2	11	n/a	n/a	n/a	29	n/a	n/a	n/a	n/a
4518182	DISTRACTOR	n/a	LTP322	ltpFR2	11	19	n/a	n/a	n/a	n/a	0	0	0
4518186	PROB	n/a	LTP322	ltpFR2	11	n/a	n/a	n/a	29	19	9	6	4
4520680	PROB	n/a	LTP322	ltpFR2	11	n/a	n/a	n/a	29	8	5	1	2
4522615	PROB	n/a	LTP322	ltpFR2	11	n/a	n/a	n/a	29	17	9	6	2
4524332	PROB	n/a	LTP322	ltpFR2	11	n/a	n/a	n/a	29	18	1	9	8
4525500	PROB	n/a	LTP322	ltpFR2	11	n/a	n/a	n/a	29	14	5	5	4
4526600	PROB	n/a	LTP322	ltpFR2	11	n/a	n/a	n/a	29	20	8	7	5
4528155	PROB	n/a	LTP322	ltpFR2	11	n/a	n/a	n/a	29	14	7	1	6
4529955	PROB	n/a	LTP322	ltpFR2	11	n/a	n/a	n/a	29	14	8	2	4
4531521	PROB	n/a	LTP322	ltpFR2	11	n/a	n/a	n/a	29	19	7	5	7
4533025	PROB	n/a	LTP322	ltpFR2	11	n/a	n/a	n/a	29	16	5	2	9
4534857	PROB	n/a	LTP322	ltpFR2	11	n/a	n/a	n/a	29	16	5	4	7
4536541	PROB	n/a	LTP322	ltpFR2	11	n/a	n/a	n/a	29	22	8	5	9
4538544	PROB	n/a	LTP322	ltpFR2	11	n/a	n/a	n/a	29	21	9	7	5
4540441	STOP	n/a	LTP322	ltpFR2	11	n/a	n/a	n/a	29	n/a	n/a	n/a	n/a
4542816	REC_START	n/a	LTP322	ltpFR2	11	19	n/a	n/a	n/a	n/a	0	0	0
4547290	REC_WORD	wordpools/wasnorm_wordpool_576.txt	LTP322	ltpFR2	11	19	BROOK	177	n/a	n/a	0	0	0
4549034	REC_WORD	wordpools/wasnorm_wordpool_576.txt	LTP322	ltpFR2	11	19	RIVER	1194	n/a	n/a	0	0	0
4550962	REC_WORD	wordpools/wasnorm_wordpool_576.txt	LTP322	ltpFR2	11	19	WAITRESS	1581	n/a	n/a	0	0	0
4553014	REC_WORD	wordpools/wasnorm_wordpool_576.txt	LTP322	ltpFR2	11	19	HAMPER	682	n/a	n/a	0	0	0
4554752	REC_WORD	wordpools/wasnorm_wordpool_576.txt	LTP322	ltpFR2	11	19	LUGGAGE	847	n/a	n/a	0	0	0
4559559	REC_WORD	wordpools/wasnorm_wordpool_576.txt	LTP322	ltpFR2	11	19	TURNIP	1521	n/a	n/a	0	0	0
4561223	REC_WORD	wordpools/wasnorm_wordpool_576.txt	LTP322	ltpFR2	11	19	GROUND	666	n/a	n/a	0	0	0
4565854	REC_WORD	wordpools/wasnorm_wordpool_576.txt	LTP322	ltpFR2	11	19	CUSTARD	429	n/a	n/a	0	0	0
4567777	REC_WORD	wordpools/wasnorm_wordpool_576.txt	LTP322	ltpFR2	11	19	QUEEN	1149	n/a	n/a	0	0	0
4569293	REC_WORD	wordpools/wasnorm_wordpool_576.txt	LTP322	ltpFR2	11	19	CLAMP	316	n/a	n/a	0	0	0
4571005	REC_WORD	wordpools/wasnorm_wordpool_576.txt	LTP322	ltpFR2	11	19	QUARTER	1148	n/a	n/a	0	0	0
4572863	REC_WORD	wordpools/wasnorm_wordpool_576.txt	LTP322	ltpFR2	11	19	NEUTRON	947	n/a	n/a	0	0	0
4574783	REC_WORD	wordpools/wasnorm_wordpool_576.txt	LTP322	ltpFR2	11	19	PROTON	1132	n/a	n/a	0	0	0
4593303	REC_WORD	wordpools/wasnorm_wordpool_576.txt	LTP322	ltpFR2	11	19	BROTHER	179	n/a	n/a	0	0	0
4594429	REC_WORD	wordpools/wasnorm_wordpool_576.txt	LTP322	ltpFR2	11	19	SISTER	1312	n/a	n/a	0	0	0
4633256	DISTRACTOR	n/a	LTP322	ltpFR2	11	20	n/a	n/a	n/a	n/a	0	0	0
4633256	START	n/a	LTP322	ltpFR2	11	n/a	n/a	n/a	30	n/a	n/a	n/a	n/a
4633271	PROB	n/a	LTP322	ltpFR2	11	n/a	n/a	n/a	30	8	5	1	2
4634388	PROB	n/a	LTP322	ltpFR2	11	n/a	n/a	n/a	30	11	2	3	6
4635989	PROB	n/a	LTP322	ltpFR2	11	n/a	n/a	n/a	30	17	6	8	3
4637508	PROB	n/a	LTP322	ltpFR2	11	n/a	n/a	n/a	30	13	2	4	7
4639392	PROB	n/a	LTP322	ltpFR2	11	n/a	n/a	n/a	30	19	7	9	3
4640843	PROB	n/a	LTP322	ltpFR2	11	n/a	n/a	n/a	30	12	5	3	4
4642429	PROB	n/a	LTP322	ltpFR2	11	n/a	n/a	n/a	30	17	6	9	2
4643812	PROB	n/a	LTP322	ltpFR2	11	n/a	n/a	n/a	30	13	9	1	3
4645047	PROB	n/a	LTP322	ltpFR2	11	n/a	n/a	n/a	30	18	8	8	2
4647714	PROB	n/a	LTP322	ltpFR2	11	n/a	n/a	n/a	30	9	1	6	2
4649284	PROB	n/a	LTP322	ltpFR2	11	n/a	n/a	n/a	30	20	3	9	8
4651052	PROB	n/a	LTP322	ltpFR2	11	n/a	n/a	n/a	30	7	1	5	1
4652235	PROB	n/a	LTP322	ltpFR2	11	n/a	n/a	n/a	30	13	3	8	2
