onset	duration	trial_type	sample	stim_file	subject	experiment	session	trial	item_name	item_num	list	answer	test_x	test_y	test_z
420.28515625	n/a	SESS_START	860744	n/a	LTP366	ltpFR2	0	n/a	n/a	n/a	n/a	n/a	0	0	0
468.40966796875	n/a	START	959303	n/a	LTP366	ltpFR2	0	n/a	n/a	n/a	-1	n/a	n/a	n/a	n/a
468.423828125	n/a	PROB	959332	n/a	LTP366	ltpFR2	0	n/a	n/a	n/a	-1	22	6	8	8
470.7138671875	n/a	PROB	964022	n/a	LTP366	ltpFR2	0	n/a	n/a	n/a	-1	13	7	4	2
472.5537109375	n/a	PROB	967790	n/a	LTP366	ltpFR2	0	n/a	n/a	n/a	-1	14	3	6	5
475.99853515625	n/a	PROB	974845	n/a	LTP366	ltpFR2	0	n/a	n/a	n/a	-1	14	6	4	4
477.65380859375	n/a	PROB	978235	n/a	LTP366	ltpFR2	0	n/a	n/a	n/a	-1	9	3	4	2
479.2734375	n/a	STOP	981552	n/a	LTP366	ltpFR2	0	n/a	n/a	n/a	-1	n/a	n/a	n/a	n/a
522.38037109375	n/a	WORD	1069835	wordpools/wasnorm_wordpool_576.txt	LTP366	ltpFR2	0	1	LIGHTNING	820	n/a	n/a	0	0	0
525.00634765625	n/a	WORD	1075213	wordpools/wasnorm_wordpool_576.txt	LTP366	ltpFR2	0	1	FLUTE	585	n/a	n/a	0	0	0
527.51318359375	n/a	WORD	1080347	wordpools/wasnorm_wordpool_576.txt	LTP366	ltpFR2	0	1	HEDGE	699	n/a	n/a	0	0	0
530.2392578125	n/a	WORD	1085930	wordpools/wasnorm_wordpool_576.txt	LTP366	ltpFR2	0	1	WOMAN	1620	n/a	n/a	0	0	0
532.88037109375	n/a	WORD	1091339	wordpools/wasnorm_wordpool_576.txt	LTP366	ltpFR2	0	1	TYPIST	1532	n/a	n/a	0	0	0
535.337890625	n/a	WORD	1096372	wordpools/wasnorm_wordpool_576.txt	LTP366	ltpFR2	0	1	PENGUIN	1044	n/a	n/a	0	0	0
538.01513671875	n/a	WORD	1101855	wordpools/wasnorm_wordpool_576.txt	LTP366	ltpFR2	0	1	MOTEL	919	n/a	n/a	0	0	0
540.5888671875	n/a	WORD	1107126	wordpools/wasnorm_wordpool_576.txt	LTP366	ltpFR2	0	1	CABIN	211	n/a	n/a	0	0	0
543.31396484375	n/a	WORD	1112707	wordpools/wasnorm_wordpool_576.txt	LTP366	ltpFR2	0	1	KNIFE	785	n/a	n/a	0	0	0
545.8056640625	n/a	WORD	1117810	wordpools/wasnorm_wordpool_576.txt	LTP366	ltpFR2	0	1	GANGSTER	620	n/a	n/a	0	0	0
548.396484375	n/a	WORD	1123116	wordpools/wasnorm_wordpool_576.txt	LTP366	ltpFR2	0	1	GRILL	661	n/a	n/a	0	0	0
550.888671875	n/a	WORD	1128220	wordpools/wasnorm_wordpool_576.txt	LTP366	ltpFR2	0	1	LOVER	846	n/a	n/a	0	0	0
553.32958984375	n/a	WORD	1133219	wordpools/wasnorm_wordpool_576.txt	LTP366	ltpFR2	0	1	ROD	1203	n/a	n/a	0	0	0
556.0556640625	n/a	WORD	1138802	wordpools/wasnorm_wordpool_576.txt	LTP366	ltpFR2	0	1	PORK	1108	n/a	n/a	0	0	0
558.6806640625	n/a	WORD	1144178	wordpools/wasnorm_wordpool_576.txt	LTP366	ltpFR2	0	1	AIRPORT	13	n/a	n/a	0	0	0
561.45556640625	n/a	WORD	1149861	wordpools/wasnorm_wordpool_576.txt	LTP366	ltpFR2	0	1	RACKET	1155	n/a	n/a	0	0	0
564.01513671875	n/a	WORD	1155103	wordpools/wasnorm_wordpool_576.txt	LTP366	ltpFR2	0	1	CURTAIN	427	n/a	n/a	0	0	0
566.5224609375	n/a	WORD	1160238	wordpools/wasnorm_wordpool_576.txt	LTP366	ltpFR2	0	1	GLASS	639	n/a	n/a	0	0	0
569.080078125	n/a	WORD	1165476	wordpools/wasnorm_wordpool_576.txt	LTP366	ltpFR2	0	1	MEAT	883	n/a	n/a	0	0	0
571.77197265625	n/a	WORD	1170989	wordpools/wasnorm_wordpool_576.txt	LTP366	ltpFR2	0	1	SPOON	1357	n/a	n/a	0	0	0
574.26318359375	n/a	WORD	1176091	wordpools/wasnorm_wordpool_576.txt	LTP366	ltpFR2	0	1	EAGLE	512	n/a	n/a	0	0	0
576.7548828125	n/a	WORD	1181194	wordpools/wasnorm_wordpool_576.txt	LTP366	ltpFR2	0	1	TROMBONE	1508	n/a	n/a	0	0	0
579.24609375	n/a	WORD	1186296	wordpools/wasnorm_wordpool_576.txt	LTP366	ltpFR2	0	1	BRACES	164	n/a	n/a	0	0	0
581.78759765625	n/a	WORD	1191501	wordpools/wasnorm_wordpool_576.txt	LTP366	ltpFR2	0	1	DENTIST	447	n/a	n/a	0	0	0
583.392578125	n/a	START	1194788	n/a	LTP366	ltpFR2	0	n/a	n/a	n/a	1	n/a	n/a	n/a	n/a
584.44189453125	n/a	DISTRACTOR	1196937	n/a	LTP366	ltpFR2	0	1	n/a	n/a	n/a	n/a	0	0	0
584.44580078125	n/a	PROB	1196945	n/a	LTP366	ltpFR2	0	n/a	n/a	n/a	1	6	1	3	2
586.435546875	n/a	PROB	1201020	n/a	LTP366	ltpFR2	0	n/a	n/a	n/a	1	24	8	8	8
588.107421875	n/a	PROB	1204444	n/a	LTP366	ltpFR2	0	n/a	n/a	n/a	1	15	7	4	4
589.7294921875	n/a	PROB	1207766	n/a	LTP366	ltpFR2	0	n/a	n/a	n/a	1	14	3	7	4
591.134765625	n/a	PROB	1210644	n/a	LTP366	ltpFR2	0	n/a	n/a	n/a	1	17	9	4	4
593.0244140625	n/a	PROB	1214514	n/a	LTP366	ltpFR2	0	n/a	n/a	n/a	1	18	3	5	9
594.6796875	n/a	PROB	1217904	n/a	LTP366	ltpFR2	0	n/a	n/a	n/a	1	22	9	9	4
596.28466796875	n/a	PROB	1221191	n/a	LTP366	ltpFR2	0	n/a	n/a	n/a	1	18	3	7	8
598.1904296875	n/a	PROB	1225094	n/a	LTP366	ltpFR2	0	n/a	n/a	n/a	1	21	6	9	6
600.6142578125	n/a	PROB	1230058	n/a	LTP366	ltpFR2	0	n/a	n/a	n/a	1	15	5	9	1
604.17626953125	n/a	PROB	1237353	n/a	LTP366	ltpFR2	0	n/a	n/a	n/a	1	21	9	7	5
606.7861328125	n/a	STOP	1242698	n/a	LTP366	ltpFR2	0	n/a	n/a	n/a	1	n/a	n/a	n/a	n/a
609.2431640625	n/a	REC_START	1247730	n/a	LTP366	ltpFR2	0	1	n/a	n/a	n/a	n/a	0	0	0
617.80908203125	n/a	REC_WORD_VV	1265273	wordpools/wasnorm_wordpool_576.txt	LTP366	ltpFR2	0	1	<>	-1	n/a	n/a	0	0	0
618.80859375	n/a	REC_WORD_VV	1267320	wordpools/wasnorm_wordpool_576.txt	LTP366	ltpFR2	0	1	<>	-1	n/a	n/a	0	0	0
619.80859375	n/a	REC_WORD_VV	1269368	wordpools/wasnorm_wordpool_576.txt	LTP366	ltpFR2	0	1	<>	-1	n/a	n/a	0	0	0
620.53955078125	n/a	REC_WORD	1270865	wordpools/wasnorm_wordpool_576.txt	LTP366	ltpFR2	0	1	TROMBONE	1508	n/a	n/a	0	0	0
621.81787109375	n/a	REC_WORD	1273483	wordpools/wasnorm_wordpool_576.txt	LTP366	ltpFR2	0	1	DENTIST	447	n/a	n/a	0	0	0
623.048828125	n/a	REC_WORD	1276004	wordpools/wasnorm_wordpool_576.txt	LTP366	ltpFR2	0	1	BRACES	164	n/a	n/a	0	0	0
624.3544921875	n/a	REC_WORD	1278678	wordpools/wasnorm_wordpool_576.txt	LTP366	ltpFR2	0	1	WOMAN	1620	n/a	n/a	0	0	0
625.4755859375	n/a	REC_WORD	1280974	wordpools/wasnorm_wordpool_576.txt	LTP366	ltpFR2	0	1	GRILL	661	n/a	n/a	0	0	0
627.0634765625	n/a	REC_WORD	1284226	wordpools/wasnorm_wordpool_576.txt	LTP366	ltpFR2	0	1	TYPIST	1532	n/a	n/a	0	0	0
649.39501953125	n/a	REC_WORD	1329961	wordpools/wasnorm_wordpool_576.txt	LTP366	ltpFR2	0	1	FLUTE	585	n/a	n/a	0	0	0
661.88671875	n/a	REC_WORD	1355544	wordpools/wasnorm_wordpool_576.txt	LTP366	ltpFR2	0	1	PENGUIN	1044	n/a	n/a	0	0	0
678.46044921875	n/a	REC_WORD	1389487	wordpools/wasnorm_wordpool_576.txt	LTP366	ltpFR2	0	1	MEAT	883	n/a	n/a	0	0	0
758.85595703125	n/a	DISTRACTOR	1554137	n/a	LTP366	ltpFR2	0	2	n/a	n/a	n/a	n/a	0	0	0
758.85595703125	n/a	START	1554137	n/a	LTP366	ltpFR2	0	n/a	n/a	n/a	2	n/a	n/a	n/a	n/a
758.873046875	n/a	PROB	1554172	n/a	LTP366	ltpFR2	0	n/a	n/a	n/a	2	22	8	6	8
762.65185546875	n/a	PROB	1561911	n/a	LTP366	ltpFR2	0	n/a	n/a	n/a	2	14	2	7	5
764.3408203125	n/a	PROB	1565370	n/a	LTP366	ltpFR2	0	n/a	n/a	n/a	2	8	8	7	3
766.1630859375	n/a	PROB	1569102	n/a	LTP366	ltpFR2	0	n/a	n/a	n/a	2	18	2	9	7
768.87158203125	n/a	PROB	1574649	n/a	LTP366	ltpFR2	0	n/a	n/a	n/a	2	14	6	7	1
770.29296875	n/a	PROB	1577560	n/a	LTP366	ltpFR2	0	n/a	n/a	n/a	2	13	3	3	7
771.86474609375	n/a	PROB	1580779	n/a	LTP366	ltpFR2	0	n/a	n/a	n/a	2	14	4	5	5
773.57080078125	n/a	PROB	1584273	n/a	LTP366	ltpFR2	0	n/a	n/a	n/a	2	14	2	8	2
774.94189453125	n/a	PROB	1587081	n/a	LTP366	ltpFR2	0	n/a	n/a	n/a	2	17	9	4	4
778.63671875	n/a	PROB	1594648	n/a	LTP366	ltpFR2	0	n/a	n/a	n/a	2	23	8	9	6
780.79345703125	n/a	PROB	1599065	n/a	LTP366	ltpFR2	0	n/a	n/a	n/a	2	21	8	7	6
782.40234375	n/a	STOP	1602360	n/a	LTP366	ltpFR2	0	n/a	n/a	n/a	2	n/a	n/a	n/a	n/a
784.05517578125	n/a	WORD	1605745	wordpools/wasnorm_wordpool_576.txt	LTP366	ltpFR2	0	2	GLOVE	642	n/a	n/a	0	0	0
786.79638671875	n/a	WORD	1611359	wordpools/wasnorm_wordpool_576.txt	LTP366	ltpFR2	0	2	WASHER	1592	n/a	n/a	0	0	0
789.22021484375	n/a	WORD	1616323	wordpools/wasnorm_wordpool_576.txt	LTP366	ltpFR2	0	2	BLADE	134	n/a	n/a	0	0	0
791.912109375	n/a	WORD	1621836	wordpools/wasnorm_wordpool_576.txt	LTP366	ltpFR2	0	2	SCISSORS	1250	n/a	n/a	0	0	0
794.6708984375	n/a	WORD	1627486	wordpools/wasnorm_wordpool_576.txt	LTP366	ltpFR2	0	2	BALLOON	75	n/a	n/a	0	0	0
797.36328125	n/a	WORD	1633000	wordpools/wasnorm_wordpool_576.txt	LTP366	ltpFR2	0	2	OZONE	996	n/a	n/a	0	0	0
799.80517578125	n/a	WORD	1638001	wordpools/wasnorm_wordpool_576.txt	LTP366	ltpFR2	0	2	BABY	64	n/a	n/a	0	0	0
802.44580078125	n/a	WORD	1643409	wordpools/wasnorm_wordpool_576.txt	LTP366	ltpFR2	0	2	CAMEL	223	n/a	n/a	0	0	0
804.93798828125	n/a	WORD	1648513	wordpools/wasnorm_wordpool_576.txt	LTP366	ltpFR2	0	2	BADGE	68	n/a	n/a	0	0	0
807.6298828125	n/a	WORD	1654026	wordpools/wasnorm_wordpool_576.txt	LTP366	ltpFR2	0	2	PATROL	1027	n/a	n/a	0	0	0
810.388671875	n/a	WORD	1659676	wordpools/wasnorm_wordpool_576.txt	LTP366	ltpFR2	0	2	ELBOW	520	n/a	n/a	0	0	0
812.9638671875	n/a	WORD	1664950	wordpools/wasnorm_wordpool_576.txt	LTP366	ltpFR2	0	2	PRINCE	1124	n/a	n/a	0	0	0
815.4384765625	n/a	WORD	1670018	wordpools/wasnorm_wordpool_576.txt	LTP366	ltpFR2	0	2	HUMAN	726	n/a	n/a	0	0	0
817.9296875	n/a	WORD	1675120	wordpools/wasnorm_wordpool_576.txt	LTP366	ltpFR2	0	2	PUPIL	1143	n/a	n/a	0	0	0
820.404296875	n/a	WORD	1680188	wordpools/wasnorm_wordpool_576.txt	LTP366	ltpFR2	0	2	ICEBERG	731	n/a	n/a	0	0	0
822.82861328125	n/a	WORD	1685153	wordpools/wasnorm_wordpool_576.txt	LTP366	ltpFR2	0	2	ANKLE	24	n/a	n/a	0	0	0
825.55419921875	n/a	WORD	1690735	wordpools/wasnorm_wordpool_576.txt	LTP366	ltpFR2	0	2	FILM	565	n/a	n/a	0	0	0
828.3291015625	n/a	WORD	1696418	wordpools/wasnorm_wordpool_576.txt	LTP366	ltpFR2	0	2	FREEZER	604	n/a	n/a	0	0	0
831.0390625	n/a	WORD	1701968	wordpools/wasnorm_wordpool_576.txt	LTP366	ltpFR2	0	2	VICTIM	1562	n/a	n/a	0	0	0
833.84716796875	n/a	WORD	1707719	wordpools/wasnorm_wordpool_576.txt	LTP366	ltpFR2	0	2	PICNIC	1060	n/a	n/a	0	0	0
836.52294921875	n/a	WORD	1713199	wordpools/wasnorm_wordpool_576.txt	LTP366	ltpFR2	0	2	DOLPHIN	483	n/a	n/a	0	0	0
839.14794921875	n/a	WORD	1718575	wordpools/wasnorm_wordpool_576.txt	LTP366	ltpFR2	0	2	FLASHLIGHT	575	n/a	n/a	0	0	0
841.65576171875	n/a	WORD	1723711	wordpools/wasnorm_wordpool_576.txt	LTP366	ltpFR2	0	2	LION	827	n/a	n/a	0	0	0
844.28076171875	n/a	WORD	1729087	wordpools/wasnorm_wordpool_576.txt	LTP366	ltpFR2	0	2	PIZZA	1079	n/a	n/a	0	0	0
845.8857421875	n/a	START	1732374	n/a	LTP366	ltpFR2	0	n/a	n/a	n/a	3	n/a	n/a	n/a	n/a
846.8017578125	n/a	DISTRACTOR	1734250	n/a	LTP366	ltpFR2	0	2	n/a	n/a	n/a	n/a	0	0	0
846.8056640625	n/a	PROB	1734258	n/a	LTP366	ltpFR2	0	n/a	n/a	n/a	3	13	3	8	2
848.82861328125	n/a	PROB	1738401	n/a	LTP366	ltpFR2	0	n/a	n/a	n/a	3	15	3	6	6
850.28369140625	n/a	PROB	1741381	n/a	LTP366	ltpFR2	0	n/a	n/a	n/a	3	9	6	1	2
851.90576171875	n/a	PROB	1744703	n/a	LTP366	ltpFR2	0	n/a	n/a	n/a	3	17	4	8	5
853.49365234375	n/a	PROB	1747955	n/a	LTP366	ltpFR2	0	n/a	n/a	n/a	3	26	8	9	9
855.8173828125	n/a	PROB	1752714	n/a	LTP366	ltpFR2	0	n/a	n/a	n/a	3	15	6	6	3
857.22265625	n/a	PROB	1755592	n/a	LTP366	ltpFR2	0	n/a	n/a	n/a	3	14	7	3	4
858.34228515625	n/a	PROB	1757885	n/a	LTP366	ltpFR2	0	n/a	n/a	n/a	3	14	1	8	4
860.68359375	n/a	PROB	1762680	n/a	LTP366	ltpFR2	0	n/a	n/a	n/a	3	18	9	6	3
862.1884765625	n/a	PROB	1765762	n/a	LTP366	ltpFR2	0	n/a	n/a	n/a	3	17	6	1	9
863.6591796875	n/a	PROB	1768774	n/a	LTP366	ltpFR2	0	n/a	n/a	n/a	3	19	1	9	9
866.7861328125	n/a	PROB	1775178	n/a	LTP366	ltpFR2	0	n/a	n/a	n/a	3	24	5	9	7
868.98828125	n/a	STOP	1779688	n/a	LTP366	ltpFR2	0	n/a	n/a	n/a	3	n/a	n/a	n/a	n/a
871.71923828125	n/a	REC_START	1785281	n/a	LTP366	ltpFR2	0	2	n/a	n/a	n/a	n/a	0	0	0
874.994140625	n/a	REC_WORD	1791988	wordpools/wasnorm_wordpool_576.txt	LTP366	ltpFR2	0	2	GLOVE	642	n/a	n/a	0	0	0
875.94873046875	n/a	REC_WORD	1793943	wordpools/wasnorm_wordpool_576.txt	LTP366	ltpFR2	0	2	BABY	64	n/a	n/a	0	0	0
878.97607421875	n/a	REC_WORD	1800143	wordpools/wasnorm_wordpool_576.txt	LTP366	ltpFR2	0	2	HUMAN	726	n/a	n/a	0	0	0
881.57958984375	n/a	REC_WORD	1805475	wordpools/wasnorm_wordpool_576.txt	LTP366	ltpFR2	0	2	SCISSORS	1250	n/a	n/a	0	0	0
888.74365234375	n/a	REC_WORD	1820147	wordpools/wasnorm_wordpool_576.txt	LTP366	ltpFR2	0	2	ELBOW	520	n/a	n/a	0	0	0
894.00634765625	n/a	REC_WORD	1830925	wordpools/wasnorm_wordpool_576.txt	LTP366	ltpFR2	0	2	ICEBERG	731	n/a	n/a	0	0	0
912.05615234375	n/a	REC_WORD	1867891	wordpools/wasnorm_wordpool_576.txt	LTP366	ltpFR2	0	2	FLASHLIGHT	575	n/a	n/a	0	0	0
927.55859375	n/a	REC_WORD	1899640	wordpools/wasnorm_wordpool_576.txt	LTP366	ltpFR2	0	2	PIZZA	1079	n/a	n/a	0	0	0
977.50830078125	n/a	WORD	2001937	wordpools/wasnorm_wordpool_576.txt	LTP366	ltpFR2	0	3	CLOUD	328	n/a	n/a	0	0	0
980.21728515625	n/a	WORD	2007485	wordpools/wasnorm_wordpool_576.txt	LTP366	ltpFR2	0	3	CHILD	299	n/a	n/a	0	0	0
982.75927734375	n/a	WORD	2012691	wordpools/wasnorm_wordpool_576.txt	LTP366	ltpFR2	0	3	UMPIRE	1535	n/a	n/a	0	0	0
985.43408203125	n/a	WORD	2018169	wordpools/wasnorm_wordpool_576.txt	LTP366	ltpFR2	0	3	SUBWAY	1400	n/a	n/a	0	0	0
988.0927734375	n/a	WORD	2023614	wordpools/wasnorm_wordpool_576.txt	LTP366	ltpFR2	0	3	BLENDER	136	n/a	n/a	0	0	0
990.6337890625	n/a	WORD	2028818	wordpools/wasnorm_wordpool_576.txt	LTP366	ltpFR2	0	3	MISTER	901	n/a	n/a	0	0	0
993.4267578125	n/a	WORD	2034538	wordpools/wasnorm_wordpool_576.txt	LTP366	ltpFR2	0	3	PARSLEY	1016	n/a	n/a	0	0	0
995.9345703125	n/a	WORD	2039674	wordpools/wasnorm_wordpool_576.txt	LTP366	ltpFR2	0	3	HIGHWAY	707	n/a	n/a	0	0	0
998.7265625	n/a	WORD	2045392	wordpools/wasnorm_wordpool_576.txt	LTP366	ltpFR2	0	3	TROUT	1511	n/a	n/a	0	0	0
1001.16748046875	n/a	WORD	2050391	wordpools/wasnorm_wordpool_576.txt	LTP366	ltpFR2	0	3	SCALLOP	1242	n/a	n/a	0	0	0
1003.67529296875	n/a	WORD	2055527	wordpools/wasnorm_wordpool_576.txt	LTP366	ltpFR2	0	3	SOFTBALL	1343	n/a	n/a	0	0	0
1006.150390625	n/a	WORD	2060596	wordpools/wasnorm_wordpool_576.txt	LTP366	ltpFR2	0	3	BACON	67	n/a	n/a	0	0	0
1008.9091796875	n/a	WORD	2066246	wordpools/wasnorm_wordpool_576.txt	LTP366	ltpFR2	0	3	AGENT	10	n/a	n/a	0	0	0
1011.58447265625	n/a	WORD	2071725	wordpools/wasnorm_wordpool_576.txt	LTP366	ltpFR2	0	3	SHELTER	1282	n/a	n/a	0	0	0
1014.14306640625	n/a	WORD	2076965	wordpools/wasnorm_wordpool_576.txt	LTP366	ltpFR2	0	3	INFANT	737	n/a	n/a	0	0	0
1016.80126953125	n/a	WORD	2082409	wordpools/wasnorm_wordpool_576.txt	LTP366	ltpFR2	0	3	MUMMY	932	n/a	n/a	0	0	0
1019.29296875	n/a	WORD	2087512	wordpools/wasnorm_wordpool_576.txt	LTP366	ltpFR2	0	3	TWISTER	1530	n/a	n/a	0	0	0
1021.7841796875	n/a	WORD	2092614	wordpools/wasnorm_wordpool_576.txt	LTP366	ltpFR2	0	3	EXPERT	543	n/a	n/a	0	0	0
1024.47607421875	n/a	WORD	2098127	wordpools/wasnorm_wordpool_576.txt	LTP366	ltpFR2	0	3	LASER	801	n/a	n/a	0	0	0
1026.90087890625	n/a	WORD	2103093	wordpools/wasnorm_wordpool_576.txt	LTP366	ltpFR2	0	3	RIFLE	1192	n/a	n/a	0	0	0
1029.6259765625	n/a	WORD	2108674	wordpools/wasnorm_wordpool_576.txt	LTP366	ltpFR2	0	3	FLIPPER	580	n/a	n/a	0	0	0
1032.18359375	n/a	WORD	2113912	wordpools/wasnorm_wordpool_576.txt	LTP366	ltpFR2	0	3	MAMMAL	861	n/a	n/a	0	0	0
1034.87646484375	n/a	WORD	2119427	wordpools/wasnorm_wordpool_576.txt	LTP366	ltpFR2	0	3	BUREAU	199	n/a	n/a	0	0	0
1037.3505859375	n/a	WORD	2124494	wordpools/wasnorm_wordpool_576.txt	LTP366	ltpFR2	0	3	SWIMMER	1420	n/a	n/a	0	0	0
1038.95654296875	n/a	START	2127783	n/a	LTP366	ltpFR2	0	n/a	n/a	n/a	4	n/a	n/a	n/a	n/a
1039.89453125	n/a	DISTRACTOR	2129704	n/a	LTP366	ltpFR2	0	3	n/a	n/a	n/a	n/a	0	0	0
1039.90869140625	n/a	PROB	2129733	n/a	LTP366	ltpFR2	0	n/a	n/a	n/a	4	17	6	3	8
1042.24951171875	n/a	PROB	2134527	n/a	LTP366	ltpFR2	0	n/a	n/a	n/a	4	18	4	9	5
1043.9384765625	n/a	PROB	2137986	n/a	LTP366	ltpFR2	0	n/a	n/a	n/a	4	21	9	4	8
1045.59423828125	n/a	PROB	2141377	n/a	LTP366	ltpFR2	0	n/a	n/a	n/a	4	10	1	1	8
1047.349609375	n/a	PROB	2144972	n/a	LTP366	ltpFR2	0	n/a	n/a	n/a	4	17	9	3	5
1049.072265625	n/a	PROB	2148500	n/a	LTP366	ltpFR2	0	n/a	n/a	n/a	4	18	6	6	6
1051.029296875	n/a	PROB	2152508	n/a	LTP366	ltpFR2	0	n/a	n/a	n/a	4	20	9	8	3
1053.60302734375	n/a	PROB	2157779	n/a	LTP366	ltpFR2	0	n/a	n/a	n/a	4	13	7	4	2
1054.95703125	n/a	PROB	2160552	n/a	LTP366	ltpFR2	0	n/a	n/a	n/a	4	16	2	6	8
1056.76318359375	n/a	PROB	2164251	n/a	LTP366	ltpFR2	0	n/a	n/a	n/a	4	17	3	8	6
1058.38525390625	n/a	PROB	2167573	n/a	LTP366	ltpFR2	0	n/a	n/a	n/a	4	9	4	3	2
1059.671875	n/a	PROB	2170208	n/a	LTP366	ltpFR2	0	n/a	n/a	n/a	4	13	6	3	4
1061.875	n/a	STOP	2174720	n/a	LTP366	ltpFR2	0	n/a	n/a	n/a	4	n/a	n/a	n/a	n/a
1064.85693359375	n/a	REC_START	2180827	n/a	LTP366	ltpFR2	0	3	n/a	n/a	n/a	n/a	0	0	0
1066.66064453125	n/a	REC_WORD	2184521	wordpools/wasnorm_wordpool_576.txt	LTP366	ltpFR2	0	3	FLIPPER	580	n/a	n/a	0	0	0
1067.6806640625	n/a	REC_WORD	2186610	wordpools/wasnorm_wordpool_576.txt	LTP366	ltpFR2	0	3	MAMMAL	861	n/a	n/a	0	0	0
1068.8876953125	n/a	REC_WORD	2189082	wordpools/wasnorm_wordpool_576.txt	LTP366	ltpFR2	0	3	BUREAU	199	n/a	n/a	0	0	0
1072.41357421875	n/a	REC_WORD	2196303	wordpools/wasnorm_wordpool_576.txt	LTP366	ltpFR2	0	3	BACON	67	n/a	n/a	0	0	0
1075.45751953125	n/a	REC_WORD	2202537	wordpools/wasnorm_wordpool_576.txt	LTP366	ltpFR2	0	3	SWIMMER	1420	n/a	n/a	0	0	0
1084.4365234375	n/a	REC_WORD	2220926	wordpools/wasnorm_wordpool_576.txt	LTP366	ltpFR2	0	3	MUMMY	932	n/a	n/a	0	0	0
1086.4853515625	n/a	REC_WORD	2225122	wordpools/wasnorm_wordpool_576.txt	LTP366	ltpFR2	0	3	INFANT	737	n/a	n/a	0	0	0
1112.27978515625	n/a	REC_WORD	2277949	wordpools/wasnorm_wordpool_576.txt	LTP366	ltpFR2	0	3	HIGHWAY	707	n/a	n/a	0	0	0
1116.07861328125	n/a	REC_WORD	2285729	wordpools/wasnorm_wordpool_576.txt	LTP366	ltpFR2	0	3	PARSLEY	1016	n/a	n/a	0	0	0
1155.3134765625	n/a	WORD	2366082	wordpools/wasnorm_wordpool_576.txt	LTP366	ltpFR2	0	4	PALACE	1006	n/a	n/a	0	0	0
1158.10546875	n/a	WORD	2371800	wordpools/wasnorm_wordpool_576.txt	LTP366	ltpFR2	0	4	PRINCESS	1125	n/a	n/a	0	0	0
1160.51318359375	n/a	WORD	2376731	wordpools/wasnorm_wordpool_576.txt	LTP366	ltpFR2	0	4	GRIZZLY	662	n/a	n/a	0	0	0
1163.05419921875	n/a	WORD	2381935	wordpools/wasnorm_wordpool_576.txt	LTP366	ltpFR2	0	4	BANKER	84	n/a	n/a	0	0	0
1165.74609375	n/a	WORD	2387448	wordpools/wasnorm_wordpool_576.txt	LTP366	ltpFR2	0	4	MONSTER	912	n/a	n/a	0	0	0
1168.35498046875	n/a	WORD	2392791	wordpools/wasnorm_wordpool_576.txt	LTP366	ltpFR2	0	4	COMET	353	n/a	n/a	0	0	0
1171.1298828125	n/a	WORD	2398474	wordpools/wasnorm_wordpool_576.txt	LTP366	ltpFR2	0	4	WORLD	1622	n/a	n/a	0	0	0
1173.80615234375	n/a	WORD	2403955	wordpools/wasnorm_wordpool_576.txt	LTP366	ltpFR2	0	4	CROSS	413	n/a	n/a	0	0	0
1176.4140625	n/a	WORD	2409296	wordpools/wasnorm_wordpool_576.txt	LTP366	ltpFR2	0	4	FOREST	593	n/a	n/a	0	0	0
1179.10595703125	n/a	WORD	2414809	wordpools/wasnorm_wordpool_576.txt	LTP366	ltpFR2	0	4	LIZARD	834	n/a	n/a	0	0	0
1181.8818359375	n/a	WORD	2420494	wordpools/wasnorm_wordpool_576.txt	LTP366	ltpFR2	0	4	LADDER	793	n/a	n/a	0	0	0
1184.5908203125	n/a	WORD	2426042	wordpools/wasnorm_wordpool_576.txt	LTP366	ltpFR2	0	4	BLOUSE	139	n/a	n/a	0	0	0
1187.3154296875	n/a	WORD	2431622	wordpools/wasnorm_wordpool_576.txt	LTP366	ltpFR2	0	4	WAITER	1580	n/a	n/a	0	0	0
1189.75634765625	n/a	WORD	2436621	wordpools/wasnorm_wordpool_576.txt	LTP366	ltpFR2	0	4	PASTRY	1022	n/a	n/a	0	0	0
1192.2314453125	n/a	WORD	2441690	wordpools/wasnorm_wordpool_576.txt	LTP366	ltpFR2	0	4	ICING	732	n/a	n/a	0	0	0
1194.90625	n/a	WORD	2447168	wordpools/wasnorm_wordpool_576.txt	LTP366	ltpFR2	0	4	IDOL	733	n/a	n/a	0	0	0
1197.58251953125	n/a	WORD	2452649	wordpools/wasnorm_wordpool_576.txt	LTP366	ltpFR2	0	4	UNCLE	1536	n/a	n/a	0	0	0
1200.20703125	n/a	WORD	2458024	wordpools/wasnorm_wordpool_576.txt	LTP366	ltpFR2	0	4	DRINK	498	n/a	n/a	0	0	0
1202.68212890625	n/a	WORD	2463093	wordpools/wasnorm_wordpool_576.txt	LTP366	ltpFR2	0	4	CIGAR	308	n/a	n/a	0	0	0
1205.32421875	n/a	WORD	2468504	wordpools/wasnorm_wordpool_576.txt	LTP366	ltpFR2	0	4	DONOR	485	n/a	n/a	0	0	0
1207.865234375	n/a	WORD	2473708	wordpools/wasnorm_wordpool_576.txt	LTP366	ltpFR2	0	4	LEOPARD	812	n/a	n/a	0	0	0
1210.490234375	n/a	WORD	2479084	wordpools/wasnorm_wordpool_576.txt	LTP366	ltpFR2	0	4	WRENCH	1625	n/a	n/a	0	0	0
1212.94775390625	n/a	WORD	2484117	wordpools/wasnorm_wordpool_576.txt	LTP366	ltpFR2	0	4	HOUND	724	n/a	n/a	0	0	0
1215.4560546875	n/a	WORD	2489254	wordpools/wasnorm_wordpool_576.txt	LTP366	ltpFR2	0	4	COUSIN	392	n/a	n/a	0	0	0
1217.06201171875	n/a	START	2492543	n/a	LTP366	ltpFR2	0	n/a	n/a	n/a	5	n/a	n/a	n/a	n/a
1218.08056640625	n/a	DISTRACTOR	2494629	n/a	LTP366	ltpFR2	0	4	n/a	n/a	n/a	n/a	0	0	0
1218.09765625	n/a	PROB	2494664	n/a	LTP366	ltpFR2	0	n/a	n/a	n/a	5	10	2	5	3
1219.78662109375	n/a	PROB	2498123	n/a	LTP366	ltpFR2	0	n/a	n/a	n/a	5	16	8	3	5
1221.69287109375	n/a	PROB	2502027	n/a	LTP366	ltpFR2	0	n/a	n/a	n/a	5	12	1	4	7
1223.048828125	n/a	PROB	2504804	n/a	LTP366	ltpFR2	0	n/a	n/a	n/a	5	18	9	1	8
1224.73583984375	n/a	PROB	2508259	n/a	LTP366	ltpFR2	0	n/a	n/a	n/a	5	22	7	6	9
1226.474609375	n/a	PROB	2511820	n/a	LTP366	ltpFR2	0	n/a	n/a	n/a	5	20	8	8	4
1227.8125	n/a	PROB	2514560	n/a	LTP366	ltpFR2	0	n/a	n/a	n/a	5	13	6	1	6
1229.18359375	n/a	PROB	2517368	n/a	LTP366	ltpFR2	0	n/a	n/a	n/a	5	13	2	8	3
1230.42138671875	n/a	PROB	2519903	n/a	LTP366	ltpFR2	0	n/a	n/a	n/a	5	7	1	4	2
1231.775390625	n/a	PROB	2522676	n/a	LTP366	ltpFR2	0	n/a	n/a	n/a	5	15	7	3	5
1233.16357421875	n/a	PROB	2525519	n/a	LTP366	ltpFR2	0	n/a	n/a	n/a	5	15	7	6	2
1234.50048828125	n/a	PROB	2528257	n/a	LTP366	ltpFR2	0	n/a	n/a	n/a	5	13	5	6	2
1236.89111328125	n/a	PROB	2533153	n/a	LTP366	ltpFR2	0	n/a	n/a	n/a	5	23	8	7	8
1239.75537109375	n/a	STOP	2539019	n/a	LTP366	ltpFR2	0	n/a	n/a	n/a	5	n/a	n/a	n/a	n/a
1242.828125	n/a	REC_START	2545312	n/a	LTP366	ltpFR2	0	4	n/a	n/a	n/a	n/a	0	0	0
1246.60791015625	n/a	REC_WORD	2553053	wordpools/wasnorm_wordpool_576.txt	LTP366	ltpFR2	0	4	TROUT	1511	n/a	n/a	0	0	0
1257.517578125	n/a	REC_WORD	2575396	wordpools/wasnorm_wordpool_576.txt	LTP366	ltpFR2	0	4	COMET	353	n/a	n/a	0	0	0
1258.712890625	n/a	REC_WORD	2577844	wordpools/wasnorm_wordpool_576.txt	LTP366	ltpFR2	0	4	WORLD	1622	n/a	n/a	0	0	0
1259.86572265625	n/a	REC_WORD	2580205	wordpools/wasnorm_wordpool_576.txt	LTP366	ltpFR2	0	4	UNCLE	1536	n/a	n/a	0	0	0
1261.66748046875	n/a	REC_WORD	2583895	wordpools/wasnorm_wordpool_576.txt	LTP366	ltpFR2	0	4	COUSIN	392	n/a	n/a	0	0	0
1262.86962890625	n/a	REC_WORD	2586357	wordpools/wasnorm_wordpool_576.txt	LTP366	ltpFR2	0	4	IDOL	733	n/a	n/a	0	0	0
1265.24267578125	n/a	REC_WORD	2591217	wordpools/wasnorm_wordpool_576.txt	LTP366	ltpFR2	0	4	ICING	732	n/a	n/a	0	0	0
1267.73046875	n/a	REC_WORD	2596312	wordpools/wasnorm_wordpool_576.txt	LTP366	ltpFR2	0	4	PASTRY	1022	n/a	n/a	0	0	0
1269.00244140625	n/a	REC_WORD	2598917	wordpools/wasnorm_wordpool_576.txt	LTP366	ltpFR2	0	4	WAITER	1580	n/a	n/a	0	0	0
1270.990234375	n/a	REC_WORD	2602988	wordpools/wasnorm_wordpool_576.txt	LTP366	ltpFR2	0	4	PALACE	1006	n/a	n/a	0	0	0
1274.1630859375	n/a	REC_WORD	2609486	wordpools/wasnorm_wordpool_576.txt	LTP366	ltpFR2	0	4	PRINCESS	1125	n/a	n/a	0	0	0
1276.14306640625	n/a	REC_WORD	2613541	wordpools/wasnorm_wordpool_576.txt	LTP366	ltpFR2	0	4	PRINCE	1124	n/a	n/a	0	0	0
1293.708984375	n/a	REC_WORD	2649516	wordpools/wasnorm_wordpool_576.txt	LTP366	ltpFR2	0	4	CROSS	413	n/a	n/a	0	0	0
1314.56298828125	n/a	REC_WORD	2692225	wordpools/wasnorm_wordpool_576.txt	LTP366	ltpFR2	0	4	GRIZZLY	662	n/a	n/a	0	0	0
1333.28466796875	n/a	DISTRACTOR	2730567	n/a	LTP366	ltpFR2	0	5	n/a	n/a	n/a	n/a	0	0	0
1333.28466796875	n/a	START	2730567	n/a	LTP366	ltpFR2	0	n/a	n/a	n/a	6	n/a	n/a	n/a	n/a
1333.3017578125	n/a	PROB	2730602	n/a	LTP366	ltpFR2	0	n/a	n/a	n/a	6	25	8	9	8
1335.357421875	n/a	PROB	2734812	n/a	LTP366	ltpFR2	0	n/a	n/a	n/a	6	22	9	9	4
1337.86572265625	n/a	PROB	2739949	n/a	LTP366	ltpFR2	0	n/a	n/a	n/a	6	12	6	2	4
1339.13671875	n/a	PROB	2742552	n/a	LTP366	ltpFR2	0	n/a	n/a	n/a	6	22	8	9	5
1341.21044921875	n/a	PROB	2746799	n/a	LTP366	ltpFR2	0	n/a	n/a	n/a	6	14	4	3	7
1343.283203125	n/a	PROB	2751044	n/a	LTP366	ltpFR2	0	n/a	n/a	n/a	6	14	9	1	4
1344.80517578125	n/a	PROB	2754161	n/a	LTP366	ltpFR2	0	n/a	n/a	n/a	6	13	1	6	6
1345.9931640625	n/a	PROB	2756594	n/a	LTP366	ltpFR2	0	n/a	n/a	n/a	6	19	6	5	8
1347.51318359375	n/a	PROB	2759707	n/a	LTP366	ltpFR2	0	n/a	n/a	n/a	6	15	1	9	5
1348.8681640625	n/a	PROB	2762482	n/a	LTP366	ltpFR2	0	n/a	n/a	n/a	6	19	7	5	7
1351.443359375	n/a	PROB	2767756	n/a	LTP366	ltpFR2	0	n/a	n/a	n/a	6	11	3	1	7
1353.1650390625	n/a	PROB	2771282	n/a	LTP366	ltpFR2	0	n/a	n/a	n/a	6	17	7	2	8
1357.2841796875	n/a	STOP	2779718	n/a	LTP366	ltpFR2	0	n/a	n/a	n/a	6	n/a	n/a	n/a	n/a
1358.4150390625	n/a	WORD	2782034	wordpools/wasnorm_wordpool_576.txt	LTP366	ltpFR2	0	5	ROBIN	1199	n/a	n/a	0	0	0
1361.041015625	n/a	WORD	2787412	wordpools/wasnorm_wordpool_576.txt	LTP366	ltpFR2	0	5	DENIM	446	n/a	n/a	0	0	0
1363.78271484375	n/a	WORD	2793027	wordpools/wasnorm_wordpool_576.txt	LTP366	ltpFR2	0	5	HIKER	708	n/a	n/a	0	0	0
1366.4580078125	n/a	WORD	2798506	wordpools/wasnorm_wordpool_576.txt	LTP366	ltpFR2	0	5	SCULPTURE	1258	n/a	n/a	0	0	0
1369.1669921875	n/a	WORD	2804054	wordpools/wasnorm_wordpool_576.txt	LTP366	ltpFR2	0	5	DRAWING	494	n/a	n/a	0	0	0
1371.92578125	n/a	WORD	2809704	wordpools/wasnorm_wordpool_576.txt	LTP366	ltpFR2	0	5	SCARF	1246	n/a	n/a	0	0	0
1374.634765625	n/a	WORD	2815252	wordpools/wasnorm_wordpool_576.txt	LTP366	ltpFR2	0	5	JEANS	752	n/a	n/a	0	0	0
1377.142578125	n/a	WORD	2820388	wordpools/wasnorm_wordpool_576.txt	LTP366	ltpFR2	0	5	SEAGULL	1261	n/a	n/a	0	0	0
1379.80029296875	n/a	WORD	2825831	wordpools/wasnorm_wordpool_576.txt	LTP366	ltpFR2	0	5	HAND	683	n/a	n/a	0	0	0
1382.359375	n/a	WORD	2831072	wordpools/wasnorm_wordpool_576.txt	LTP366	ltpFR2	0	5	SLIDE	1326	n/a	n/a	0	0	0
1384.83349609375	n/a	WORD	2836139	wordpools/wasnorm_wordpool_576.txt	LTP366	ltpFR2	0	5	SPIDER	1351	n/a	n/a	0	0	0
1387.47509765625	n/a	WORD	2841549	wordpools/wasnorm_wordpool_576.txt	LTP366	ltpFR2	0	5	CLAMP	316	n/a	n/a	0	0	0
1389.984375	n/a	WORD	2846688	wordpools/wasnorm_wordpool_576.txt	LTP366	ltpFR2	0	5	VELVET	1555	n/a	n/a	0	0	0
1392.7421875	n/a	WORD	2852336	wordpools/wasnorm_wordpool_576.txt	LTP366	ltpFR2	0	5	JELLY	755	n/a	n/a	0	0	0
1395.55126953125	n/a	WORD	2858089	wordpools/wasnorm_wordpool_576.txt	LTP366	ltpFR2	0	5	GALLON	618	n/a	n/a	0	0	0
1398.05908203125	n/a	WORD	2863225	wordpools/wasnorm_wordpool_576.txt	LTP366	ltpFR2	0	5	PADDLE	1000	n/a	n/a	0	0	0
1400.73486328125	n/a	WORD	2868705	wordpools/wasnorm_wordpool_576.txt	LTP366	ltpFR2	0	5	LABEL	790	n/a	n/a	0	0	0
1403.27587890625	n/a	WORD	2873909	wordpools/wasnorm_wordpool_576.txt	LTP366	ltpFR2	0	5	POCKET	1093	n/a	n/a	0	0	0
1405.98583984375	n/a	WORD	2879459	wordpools/wasnorm_wordpool_576.txt	LTP366	ltpFR2	0	5	REBEL	1172	n/a	n/a	0	0	0
1408.52685546875	n/a	WORD	2884663	wordpools/wasnorm_wordpool_576.txt	LTP366	ltpFR2	0	5	DASHBOARD	441	n/a	n/a	0	0	0
1410.95068359375	n/a	WORD	2889627	wordpools/wasnorm_wordpool_576.txt	LTP366	ltpFR2	0	5	DUST	508	n/a	n/a	0	0	0
1413.5595703125	n/a	WORD	2894970	wordpools/wasnorm_wordpool_576.txt	LTP366	ltpFR2	0	5	DUSTPAN	509	n/a	n/a	0	0	0
1416.36865234375	n/a	WORD	2900723	wordpools/wasnorm_wordpool_576.txt	LTP366	ltpFR2	0	5	FOREHEAD	592	n/a	n/a	0	0	0
1418.99462890625	n/a	WORD	2906101	wordpools/wasnorm_wordpool_576.txt	LTP366	ltpFR2	0	5	EYELASH	546	n/a	n/a	0	0	0
1420.59814453125	n/a	START	2909385	n/a	LTP366	ltpFR2	0	n/a	n/a	n/a	7	n/a	n/a	n/a	n/a
1421.54833984375	n/a	DISTRACTOR	2911331	n/a	LTP366	ltpFR2	0	5	n/a	n/a	n/a	n/a	0	0	0
1421.55126953125	n/a	PROB	2911337	n/a	LTP366	ltpFR2	0	n/a	n/a	n/a	7	7	2	4	1
1423.08935546875	n/a	PROB	2914487	n/a	LTP366	ltpFR2	0	n/a	n/a	n/a	7	16	6	6	4
1424.47705078125	n/a	PROB	2917329	n/a	LTP366	ltpFR2	0	n/a	n/a	n/a	7	16	6	5	5
1426.08203125	n/a	PROB	2920616	n/a	LTP366	ltpFR2	0	n/a	n/a	n/a	7	21	8	7	6
1428.02294921875	n/a	PROB	2924591	n/a	LTP366	ltpFR2	0	n/a	n/a	n/a	7	18	8	1	9
1430.17919921875	n/a	PROB	2929007	n/a	LTP366	ltpFR2	0	n/a	n/a	n/a	7	12	2	2	8
1431.55029296875	n/a	PROB	2931815	n/a	LTP366	ltpFR2	0	n/a	n/a	n/a	7	16	7	1	8
1432.955078125	n/a	PROB	2934692	n/a	LTP366	ltpFR2	0	n/a	n/a	n/a	7	16	4	8	4
1434.81103515625	n/a	PROB	2938493	n/a	LTP366	ltpFR2	0	n/a	n/a	n/a	7	15	4	9	2
1436.298828125	n/a	PROB	2941540	n/a	LTP366	ltpFR2	0	n/a	n/a	n/a	7	15	7	5	3
1437.81982421875	n/a	PROB	2944655	n/a	LTP366	ltpFR2	0	n/a	n/a	n/a	7	13	7	2	4
1439.60986328125	n/a	PROB	2948321	n/a	LTP366	ltpFR2	0	n/a	n/a	n/a	7	12	9	2	1
1441.2978515625	n/a	PROB	2951778	n/a	LTP366	ltpFR2	0	n/a	n/a	n/a	7	13	4	8	1
1443.931640625	n/a	STOP	2957172	n/a	LTP366	ltpFR2	0	n/a	n/a	n/a	7	n/a	n/a	n/a	n/a
1446.49853515625	n/a	REC_START	2962429	n/a	LTP366	ltpFR2	0	5	n/a	n/a	n/a	n/a	0	0	0
1447.41259765625	n/a	REC_WORD	2964301	wordpools/wasnorm_wordpool_576.txt	LTP366	ltpFR2	0	5	SCARF	1246	n/a	n/a	0	0	0
1448.32568359375	n/a	REC_WORD	2966171	wordpools/wasnorm_wordpool_576.txt	LTP366	ltpFR2	0	5	HAND	683	n/a	n/a	0	0	0
1449.29345703125	n/a	REC_WORD	2968153	wordpools/wasnorm_wordpool_576.txt	LTP366	ltpFR2	0	5	FOREHEAD	592	n/a	n/a	0	0	0
1450.40380859375	n/a	REC_WORD	2970427	wordpools/wasnorm_wordpool_576.txt	LTP366	ltpFR2	0	5	EYELASH	546	n/a	n/a	0	0	0
1453.025390625	n/a	REC_WORD	2975796	wordpools/wasnorm_wordpool_576.txt	LTP366	ltpFR2	0	5	DUST	508	n/a	n/a	0	0	0
1453.95751953125	n/a	REC_WORD	2977705	wordpools/wasnorm_wordpool_576.txt	LTP366	ltpFR2	0	5	DUSTPAN	509	n/a	n/a	0	0	0
1455.9365234375	n/a	REC_WORD	2981758	wordpools/wasnorm_wordpool_576.txt	LTP366	ltpFR2	0	5	SEAGULL	1261	n/a	n/a	0	0	0
1479.45458984375	n/a	REC_WORD	3029923	wordpools/wasnorm_wordpool_576.txt	LTP366	ltpFR2	0	5	DASHBOARD	441	n/a	n/a	0	0	0
1497.39453125	n/a	REC_WORD	3066664	wordpools/wasnorm_wordpool_576.txt	LTP366	ltpFR2	0	5	SLIDE	1326	n/a	n/a	0	0	0
1499.64501953125	n/a	REC_WORD	3071273	wordpools/wasnorm_wordpool_576.txt	LTP366	ltpFR2	0	5	SPIDER	1351	n/a	n/a	0	0	0
1536.939453125	n/a	DISTRACTOR	3147652	n/a	LTP366	ltpFR2	0	6	n/a	n/a	n/a	n/a	0	0	0
1536.939453125	n/a	START	3147652	n/a	LTP366	ltpFR2	0	n/a	n/a	n/a	8	n/a	n/a	n/a	n/a
1536.955078125	n/a	PROB	3147684	n/a	LTP366	ltpFR2	0	n/a	n/a	n/a	8	17	8	3	6
1539.17919921875	n/a	PROB	3152239	n/a	LTP366	ltpFR2	0	n/a	n/a	n/a	8	17	6	3	8
1540.6513671875	n/a	PROB	3155254	n/a	LTP366	ltpFR2	0	n/a	n/a	n/a	8	10	5	1	4
1542.59033203125	n/a	PROB	3159225	n/a	LTP366	ltpFR2	0	n/a	n/a	n/a	8	21	8	7	6
1543.99609375	n/a	PROB	3162104	n/a	LTP366	ltpFR2	0	n/a	n/a	n/a	8	12	6	3	3
1545.8837890625	n/a	PROB	3165970	n/a	LTP366	ltpFR2	0	n/a	n/a	n/a	8	8	2	5	1
1548.19189453125	n/a	PROB	3170697	n/a	LTP366	ltpFR2	0	n/a	n/a	n/a	8	15	1	8	6
1549.5126953125	n/a	PROB	3173402	n/a	LTP366	ltpFR2	0	n/a	n/a	n/a	8	12	6	1	5
1550.78271484375	n/a	PROB	3176003	n/a	LTP366	ltpFR2	0	n/a	n/a	n/a	8	14	1	9	4
1553.40771484375	n/a	PROB	3181379	n/a	LTP366	ltpFR2	0	n/a	n/a	n/a	8	21	9	8	4
1556.16650390625	n/a	PROB	3187029	n/a	LTP366	ltpFR2	0	n/a	n/a	n/a	8	18	6	4	8
1557.32080078125	n/a	PROB	3189393	n/a	LTP366	ltpFR2	0	n/a	n/a	n/a	8	8	1	3	4
1558.45751953125	n/a	PROB	3191721	n/a	LTP366	ltpFR2	0	n/a	n/a	n/a	8	19	2	9	8
1559.86865234375	n/a	STOP	3194611	n/a	LTP366	ltpFR2	0	n/a	n/a	n/a	8	n/a	n/a	n/a	n/a
1561.9697265625	n/a	WORD	3198914	wordpools/wasnorm_wordpool_576.txt	LTP366	ltpFR2	0	6	BOX	159	n/a	n/a	0	0	0
1564.728515625	n/a	WORD	3204564	wordpools/wasnorm_wordpool_576.txt	LTP366	ltpFR2	0	6	STOMACH	1384	n/a	n/a	0	0	0
1567.20263671875	n/a	WORD	3209631	wordpools/wasnorm_wordpool_576.txt	LTP366	ltpFR2	0	6	VALVE	1546	n/a	n/a	0	0	0
1569.8271484375	n/a	WORD	3215006	wordpools/wasnorm_wordpool_576.txt	LTP366	ltpFR2	0	6	HEADBAND	696	n/a	n/a	0	0	0
1572.6201171875	n/a	WORD	3220726	wordpools/wasnorm_wordpool_576.txt	LTP366	ltpFR2	0	6	CRITIC	410	n/a	n/a	0	0	0
1575.17822265625	n/a	WORD	3225965	wordpools/wasnorm_wordpool_576.txt	LTP366	ltpFR2	0	6	STUDENT	1395	n/a	n/a	0	0	0
1577.8203125	n/a	WORD	3231376	wordpools/wasnorm_wordpool_576.txt	LTP366	ltpFR2	0	6	MATCH	878	n/a	n/a	0	0	0
1580.328125	n/a	WORD	3236512	wordpools/wasnorm_wordpool_576.txt	LTP366	ltpFR2	0	6	SMOG	1330	n/a	n/a	0	0	0
1582.919921875	n/a	WORD	3241820	wordpools/wasnorm_wordpool_576.txt	LTP366	ltpFR2	0	6	SCOTCH	1251	n/a	n/a	0	0	0
1585.52783203125	n/a	WORD	3247161	wordpools/wasnorm_wordpool_576.txt	LTP366	ltpFR2	0	6	DIVER	476	n/a	n/a	0	0	0
1588.18701171875	n/a	WORD	3252607	wordpools/wasnorm_wordpool_576.txt	LTP366	ltpFR2	0	6	CANDY	230	n/a	n/a	0	0	0
1590.97998046875	n/a	WORD	3258327	wordpools/wasnorm_wordpool_576.txt	LTP366	ltpFR2	0	6	TOASTER	1472	n/a	n/a	0	0	0
1593.720703125	n/a	WORD	3263940	wordpools/wasnorm_wordpool_576.txt	LTP366	ltpFR2	0	6	YACHT	1629	n/a	n/a	0	0	0
1596.36279296875	n/a	WORD	3269351	wordpools/wasnorm_wordpool_576.txt	LTP366	ltpFR2	0	6	DRESS	495	n/a	n/a	0	0	0
1599.138671875	n/a	WORD	3275036	wordpools/wasnorm_wordpool_576.txt	LTP366	ltpFR2	0	6	PLIERS	1089	n/a	n/a	0	0	0
1601.57958984375	n/a	WORD	3280035	wordpools/wasnorm_wordpool_576.txt	LTP366	ltpFR2	0	6	HATCHET	691	n/a	n/a	0	0	0
1604.271484375	n/a	WORD	3285548	wordpools/wasnorm_wordpool_576.txt	LTP366	ltpFR2	0	6	ACTOR	5	n/a	n/a	0	0	0
1606.947265625	n/a	WORD	3291028	wordpools/wasnorm_wordpool_576.txt	LTP366	ltpFR2	0	6	MARKET	871	n/a	n/a	0	0	0
1609.5224609375	n/a	WORD	3296302	wordpools/wasnorm_wordpool_576.txt	LTP366	ltpFR2	0	6	PLAZA	1088	n/a	n/a	0	0	0
1611.9970703125	n/a	WORD	3301370	wordpools/wasnorm_wordpool_576.txt	LTP366	ltpFR2	0	6	GIFT	635	n/a	n/a	0	0	0
1614.5380859375	n/a	WORD	3306574	wordpools/wasnorm_wordpool_576.txt	LTP366	ltpFR2	0	6	PEPPER	1047	n/a	n/a	0	0	0
1617.2470703125	n/a	WORD	3312122	wordpools/wasnorm_wordpool_576.txt	LTP366	ltpFR2	0	6	TEACHER	1440	n/a	n/a	0	0	0
1619.73828125	n/a	WORD	3317224	wordpools/wasnorm_wordpool_576.txt	LTP366	ltpFR2	0	6	NOMAD	955	n/a	n/a	0	0	0
1622.47998046875	n/a	WORD	3322839	wordpools/wasnorm_wordpool_576.txt	LTP366	ltpFR2	0	6	JURY	766	n/a	n/a	0	0	0
1624.0859375	n/a	START	3326128	n/a	LTP366	ltpFR2	0	n/a	n/a	n/a	9	n/a	n/a	n/a	n/a
1625.15380859375	n/a	DISTRACTOR	3328315	n/a	LTP366	ltpFR2	0	6	n/a	n/a	n/a	n/a	0	0	0
1625.15478515625	n/a	PROB	3328317	n/a	LTP366	ltpFR2	0	n/a	n/a	n/a	9	14	9	3	2
1628.73388671875	n/a	PROB	3335647	n/a	LTP366	ltpFR2	0	n/a	n/a	n/a	9	11	3	7	1
1629.73681640625	n/a	PROB	3337701	n/a	LTP366	ltpFR2	0	n/a	n/a	n/a	9	24	7	8	9
1632.2119140625	n/a	PROB	3342770	n/a	LTP366	ltpFR2	0	n/a	n/a	n/a	9	24	7	9	8
1635.103515625	n/a	PROB	3348692	n/a	LTP366	ltpFR2	0	n/a	n/a	n/a	9	6	1	3	2
1636.37451171875	n/a	PROB	3351295	n/a	LTP366	ltpFR2	0	n/a	n/a	n/a	9	25	7	9	9
1638.53173828125	n/a	PROB	3355713	n/a	LTP366	ltpFR2	0	n/a	n/a	n/a	9	11	2	6	3
1640.03759765625	n/a	PROB	3358797	n/a	LTP366	ltpFR2	0	n/a	n/a	n/a	9	14	2	6	6
1641.474609375	n/a	PROB	3361740	n/a	LTP366	ltpFR2	0	n/a	n/a	n/a	9	7	4	2	1
1642.8955078125	n/a	PROB	3364650	n/a	LTP366	ltpFR2	0	n/a	n/a	n/a	9	21	9	4	8
1644.21630859375	n/a	PROB	3367355	n/a	LTP366	ltpFR2	0	n/a	n/a	n/a	9	20	9	2	9
1646.1064453125	n/a	PROB	3371226	n/a	LTP366	ltpFR2	0	n/a	n/a	n/a	9	8	1	1	6
1647.15625	n/a	STOP	3373376	n/a	LTP366	ltpFR2	0	n/a	n/a	n/a	9	n/a	n/a	n/a	n/a
1649.93505859375	n/a	REC_START	3379067	n/a	LTP366	ltpFR2	0	6	n/a	n/a	n/a	n/a	0	0	0
1650.9580078125	n/a	REC_WORD	3381162	wordpools/wasnorm_wordpool_576.txt	LTP366	ltpFR2	0	6	HEADBAND	696	n/a	n/a	0	0	0
1651.9453125	n/a	REC_WORD	3383184	wordpools/wasnorm_wordpool_576.txt	LTP366	ltpFR2	0	6	STOMACH	1384	n/a	n/a	0	0	0
1653.1943359375	n/a	REC_WORD	3385742	wordpools/wasnorm_wordpool_576.txt	LTP366	ltpFR2	0	6	ACTOR	5	n/a	n/a	0	0	0
1654.13330078125	n/a	REC_WORD	3387665	wordpools/wasnorm_wordpool_576.txt	LTP366	ltpFR2	0	6	TEACHER	1440	n/a	n/a	0	0	0
1657.5380859375	n/a	REC_WORD	3394638	wordpools/wasnorm_wordpool_576.txt	LTP366	ltpFR2	0	6	NOMAD	955	n/a	n/a	0	0	0
1660.541015625	n/a	REC_WORD	3400788	wordpools/wasnorm_wordpool_576.txt	LTP366	ltpFR2	0	6	MARKET	871	n/a	n/a	0	0	0
1665.1650390625	n/a	REC_WORD	3410258	wordpools/wasnorm_wordpool_576.txt	LTP366	ltpFR2	0	6	HATCHET	691	n/a	n/a	0	0	0
1671.02783203125	n/a	REC_WORD	3422265	wordpools/wasnorm_wordpool_576.txt	LTP366	ltpFR2	0	6	DRESS	495	n/a	n/a	0	0	0
1673.61474609375	n/a	REC_WORD	3427563	wordpools/wasnorm_wordpool_576.txt	LTP366	ltpFR2	0	6	MATCH	878	n/a	n/a	0	0	0
1674.57373046875	n/a	REC_WORD	3429527	wordpools/wasnorm_wordpool_576.txt	LTP366	ltpFR2	0	6	STUDENT	1395	n/a	n/a	0	0	0
1684.76220703125	n/a	REC_WORD	3450393	wordpools/wasnorm_wordpool_576.txt	LTP366	ltpFR2	0	6	CANDY	230	n/a	n/a	0	0	0
1693.7958984375	n/a	REC_WORD	3468894	wordpools/wasnorm_wordpool_576.txt	LTP366	ltpFR2	0	6	PEPPER	1047	n/a	n/a	0	0	0
1699.1201171875	n/a	REC_WORD	3479798	wordpools/wasnorm_wordpool_576.txt	LTP366	ltpFR2	0	6	CRITIC	410	n/a	n/a	0	0	0
1740.3916015625	n/a	WORD	3564322	wordpools/wasnorm_wordpool_576.txt	LTP366	ltpFR2	0	7	EUROPE	541	n/a	n/a	0	0	0
1742.95068359375	n/a	WORD	3569563	wordpools/wasnorm_wordpool_576.txt	LTP366	ltpFR2	0	7	CONVICT	371	n/a	n/a	0	0	0
1745.52587890625	n/a	WORD	3574837	wordpools/wasnorm_wordpool_576.txt	LTP366	ltpFR2	0	7	SPARROW	1347	n/a	n/a	0	0	0
1748.234375	n/a	WORD	3580384	wordpools/wasnorm_wordpool_576.txt	LTP366	ltpFR2	0	7	BELLY	119	n/a	n/a	0	0	0
1750.8427734375	n/a	WORD	3585726	wordpools/wasnorm_wordpool_576.txt	LTP366	ltpFR2	0	7	LIVER	833	n/a	n/a	0	0	0
1753.58447265625	n/a	WORD	3591341	wordpools/wasnorm_wordpool_576.txt	LTP366	ltpFR2	0	7	PILOT	1070	n/a	n/a	0	0	0
1756.0595703125	n/a	WORD	3596410	wordpools/wasnorm_wordpool_576.txt	LTP366	ltpFR2	0	7	TRUCK	1512	n/a	n/a	0	0	0
1758.734375	n/a	WORD	3601888	wordpools/wasnorm_wordpool_576.txt	LTP366	ltpFR2	0	7	LUMBER	848	n/a	n/a	0	0	0
1761.41015625	n/a	WORD	3607368	wordpools/wasnorm_wordpool_576.txt	LTP366	ltpFR2	0	7	REPORT	1184	n/a	n/a	0	0	0
1763.9853515625	n/a	WORD	3612642	wordpools/wasnorm_wordpool_576.txt	LTP366	ltpFR2	0	7	WORKER	1621	n/a	n/a	0	0	0
1766.77734375	n/a	WORD	3618360	wordpools/wasnorm_wordpool_576.txt	LTP366	ltpFR2	0	7	GIRL	637	n/a	n/a	0	0	0
1769.56884765625	n/a	WORD	3624077	wordpools/wasnorm_wordpool_576.txt	LTP366	ltpFR2	0	7	ROBBER	1197	n/a	n/a	0	0	0
1772.14404296875	n/a	WORD	3629351	wordpools/wasnorm_wordpool_576.txt	LTP366	ltpFR2	0	7	PEACH	1031	n/a	n/a	0	0	0
1774.8359375	n/a	WORD	3634864	wordpools/wasnorm_wordpool_576.txt	LTP366	ltpFR2	0	7	COTTAGE	384	n/a	n/a	0	0	0
1777.32763671875	n/a	WORD	3639967	wordpools/wasnorm_wordpool_576.txt	LTP366	ltpFR2	0	7	FLESH	579	n/a	n/a	0	0	0
1780.11962890625	n/a	WORD	3645685	wordpools/wasnorm_wordpool_576.txt	LTP366	ltpFR2	0	7	WIDOW	1608	n/a	n/a	0	0	0
1782.91162109375	n/a	WORD	3651403	wordpools/wasnorm_wordpool_576.txt	LTP366	ltpFR2	0	7	TABLET	1427	n/a	n/a	0	0	0
1785.50341796875	n/a	WORD	3656711	wordpools/wasnorm_wordpool_576.txt	LTP366	ltpFR2	0	7	JOURNAL	760	n/a	n/a	0	0	0
1788.279296875	n/a	WORD	3662396	wordpools/wasnorm_wordpool_576.txt	LTP366	ltpFR2	0	7	FLOWER	584	n/a	n/a	0	0	0
1790.8046875	n/a	WORD	3667568	wordpools/wasnorm_wordpool_576.txt	LTP366	ltpFR2	0	7	BRIEFCASE	175	n/a	n/a	0	0	0
1793.529296875	n/a	WORD	3673148	wordpools/wasnorm_wordpool_576.txt	LTP366	ltpFR2	0	7	MUSTARD	935	n/a	n/a	0	0	0
1796.12109375	n/a	WORD	3678456	wordpools/wasnorm_wordpool_576.txt	LTP366	ltpFR2	0	7	RELISH	1183	n/a	n/a	0	0	0
1798.88037109375	n/a	WORD	3684107	wordpools/wasnorm_wordpool_576.txt	LTP366	ltpFR2	0	7	CHAUFFEUR	283	n/a	n/a	0	0	0
1801.52197265625	n/a	WORD	3689517	wordpools/wasnorm_wordpool_576.txt	LTP366	ltpFR2	0	7	SUITCASE	1403	n/a	n/a	0	0	0
1803.126953125	n/a	START	3692804	n/a	LTP366	ltpFR2	0	n/a	n/a	n/a	10	n/a	n/a	n/a	n/a
1804.0888671875	n/a	DISTRACTOR	3694774	n/a	LTP366	ltpFR2	0	7	n/a	n/a	n/a	n/a	0	0	0
1804.09716796875	n/a	PROB	3694791	n/a	LTP366	ltpFR2	0	n/a	n/a	n/a	10	16	8	5	3
1805.80224609375	n/a	PROB	3698283	n/a	LTP366	ltpFR2	0	n/a	n/a	n/a	10	6	1	3	2
1807.39111328125	n/a	PROB	3701537	n/a	LTP366	ltpFR2	0	n/a	n/a	n/a	10	18	8	3	7
1808.962890625	n/a	PROB	3704756	n/a	LTP366	ltpFR2	0	n/a	n/a	n/a	10	22	5	8	9
1810.66796875	n/a	PROB	3708248	n/a	LTP366	ltpFR2	0	n/a	n/a	n/a	10	17	3	7	7
1812.30712890625	n/a	PROB	3711605	n/a	LTP366	ltpFR2	0	n/a	n/a	n/a	10	12	1	6	5
1813.4599609375	n/a	PROB	3713966	n/a	LTP366	ltpFR2	0	n/a	n/a	n/a	10	12	5	5	2
1814.47998046875	n/a	PROB	3716055	n/a	LTP366	ltpFR2	0	n/a	n/a	n/a	10	18	2	7	9
1815.8505859375	n/a	PROB	3718862	n/a	LTP366	ltpFR2	0	n/a	n/a	n/a	10	16	2	9	5
1817.138671875	n/a	PROB	3721500	n/a	LTP366	ltpFR2	0	n/a	n/a	n/a	10	22	7	8	6
1818.89453125	n/a	PROB	3725096	n/a	LTP366	ltpFR2	0	n/a	n/a	n/a	10	12	5	3	4
1820.3154296875	n/a	PROB	3728006	n/a	LTP366	ltpFR2	0	n/a	n/a	n/a	10	19	7	3	9
1821.63671875	n/a	PROB	3730712	n/a	LTP366	ltpFR2	0	n/a	n/a	n/a	10	17	6	6	9
1823.509765625	n/a	PROB	3734548	n/a	LTP366	ltpFR2	0	n/a	n/a	n/a	10	19	9	4	6
1826.74072265625	n/a	STOP	3741165	n/a	LTP366	ltpFR2	0	n/a	n/a	n/a	10	n/a	n/a	n/a	n/a
1828.943359375	n/a	REC_START	3745676	n/a	LTP366	ltpFR2	0	7	n/a	n/a	n/a	n/a	0	0	0
1830.09423828125	n/a	REC_WORD	3748033	wordpools/wasnorm_wordpool_576.txt	LTP366	ltpFR2	0	7	WIDOW	1608	n/a	n/a	0	0	0
1831.033203125	n/a	REC_WORD	3749956	wordpools/wasnorm_wordpool_576.txt	LTP366	ltpFR2	0	7	GIRL	637	n/a	n/a	0	0	0
1832.4013671875	n/a	REC_WORD	3752758	wordpools/wasnorm_wordpool_576.txt	LTP366	ltpFR2	0	7	CHAUFFEUR	283	n/a	n/a	0	0	0
1834.3671875	n/a	REC_WORD	3756784	wordpools/wasnorm_wordpool_576.txt	LTP366	ltpFR2	0	7	BRIEFCASE	175	n/a	n/a	0	0	0
1835.26025390625	n/a	REC_WORD	3758613	wordpools/wasnorm_wordpool_576.txt	LTP366	ltpFR2	0	7	SUITCASE	1403	n/a	n/a	0	0	0
1843.18798828125	n/a	REC_WORD	3774849	wordpools/wasnorm_wordpool_576.txt	LTP366	ltpFR2	0	7	MUSTARD	935	n/a	n/a	0	0	0
1844.1630859375	n/a	REC_WORD	3776846	wordpools/wasnorm_wordpool_576.txt	LTP366	ltpFR2	0	7	RELISH	1183	n/a	n/a	0	0	0
1853.2646484375	n/a	REC_WORD	3795486	wordpools/wasnorm_wordpool_576.txt	LTP366	ltpFR2	0	7	TRUCK	1512	n/a	n/a	0	0	0
1863.67333984375	n/a	REC_WORD	3816803	wordpools/wasnorm_wordpool_576.txt	LTP366	ltpFR2	0	7	LUMBER	848	n/a	n/a	0	0	0
1866.70458984375	n/a	REC_WORD	3823011	wordpools/wasnorm_wordpool_576.txt	LTP366	ltpFR2	0	7	CONVICT	371	n/a	n/a	0	0	0
1919.39990234375	n/a	WORD	3930931	wordpools/wasnorm_wordpool_576.txt	LTP366	ltpFR2	0	8	COCOON	339	n/a	n/a	0	0	0
1922.10888671875	n/a	WORD	3936479	wordpools/wasnorm_wordpool_576.txt	LTP366	ltpFR2	0	8	RUST	1219	n/a	n/a	0	0	0
1924.61669921875	n/a	WORD	3941615	wordpools/wasnorm_wordpool_576.txt	LTP366	ltpFR2	0	8	THREAD	1460	n/a	n/a	0	0	0
1927.30859375	n/a	WORD	3947128	wordpools/wasnorm_wordpool_576.txt	LTP366	ltpFR2	0	8	CEILING	265	n/a	n/a	0	0	0
1929.83349609375	n/a	WORD	3952299	wordpools/wasnorm_wordpool_576.txt	LTP366	ltpFR2	0	8	WRIST	1626	n/a	n/a	0	0	0
1932.509765625	n/a	WORD	3957780	wordpools/wasnorm_wordpool_576.txt	LTP366	ltpFR2	0	8	ROOSTER	1209	n/a	n/a	0	0	0
1935.25146484375	n/a	WORD	3963395	wordpools/wasnorm_wordpool_576.txt	LTP366	ltpFR2	0	8	ACTRESS	6	n/a	n/a	0	0	0
1937.943359375	n/a	WORD	3968908	wordpools/wasnorm_wordpool_576.txt	LTP366	ltpFR2	0	8	STAMP	1370	n/a	n/a	0	0	0
1940.61865234375	n/a	WORD	3974387	wordpools/wasnorm_wordpool_576.txt	LTP366	ltpFR2	0	8	HAMPER	682	n/a	n/a	0	0	0
1943.16015625	n/a	WORD	3979592	wordpools/wasnorm_wordpool_576.txt	LTP366	ltpFR2	0	8	CARRIAGE	248	n/a	n/a	0	0	0
1945.75244140625	n/a	WORD	3984901	wordpools/wasnorm_wordpool_576.txt	LTP366	ltpFR2	0	8	MASK	876	n/a	n/a	0	0	0
1948.4443359375	n/a	WORD	3990414	wordpools/wasnorm_wordpool_576.txt	LTP366	ltpFR2	0	8	HARP	689	n/a	n/a	0	0	0
1950.953125	n/a	WORD	3995552	wordpools/wasnorm_wordpool_576.txt	LTP366	ltpFR2	0	8	LACE	792	n/a	n/a	0	0	0
1953.51025390625	n/a	WORD	4000789	wordpools/wasnorm_wordpool_576.txt	LTP366	ltpFR2	0	8	PIANO	1057	n/a	n/a	0	0	0
1955.96923828125	n/a	WORD	4005825	wordpools/wasnorm_wordpool_576.txt	LTP366	ltpFR2	0	8	SILK	1307	n/a	n/a	0	0	0
1958.54296875	n/a	WORD	4011096	wordpools/wasnorm_wordpool_576.txt	LTP366	ltpFR2	0	8	BUG	187	n/a	n/a	0	0	0
1961.16796875	n/a	WORD	4016472	wordpools/wasnorm_wordpool_576.txt	LTP366	ltpFR2	0	8	OUTFIT	988	n/a	n/a	0	0	0
1963.81005859375	n/a	WORD	4021883	wordpools/wasnorm_wordpool_576.txt	LTP366	ltpFR2	0	8	CLOTHES	327	n/a	n/a	0	0	0
1966.2509765625	n/a	WORD	4026882	wordpools/wasnorm_wordpool_576.txt	LTP366	ltpFR2	0	8	OX	994	n/a	n/a	0	0	0
1968.82568359375	n/a	WORD	4032155	wordpools/wasnorm_wordpool_576.txt	LTP366	ltpFR2	0	8	CHIPMUNK	304	n/a	n/a	0	0	0
1971.400390625	n/a	WORD	4037428	wordpools/wasnorm_wordpool_576.txt	LTP366	ltpFR2	0	8	BREAST	171	n/a	n/a	0	0	0
1974.07666015625	n/a	WORD	4042909	wordpools/wasnorm_wordpool_576.txt	LTP366	ltpFR2	0	8	PAPER	1011	n/a	n/a	0	0	0
1976.818359375	n/a	WORD	4048524	wordpools/wasnorm_wordpool_576.txt	LTP366	ltpFR2	0	8	MARKER	870	n/a	n/a	0	0	0
1979.2763671875	n/a	WORD	4053558	wordpools/wasnorm_wordpool_576.txt	LTP366	ltpFR2	0	8	VALLEY	1545	n/a	n/a	0	0	0
1980.88134765625	n/a	START	4056845	n/a	LTP366	ltpFR2	0	n/a	n/a	n/a	11	n/a	n/a	n/a	n/a
1981.9091796875	n/a	DISTRACTOR	4058950	n/a	LTP366	ltpFR2	0	8	n/a	n/a	n/a	n/a	0	0	0
1981.91845703125	n/a	PROB	4058969	n/a	LTP366	ltpFR2	0	n/a	n/a	n/a	11	15	3	6	6
1984.77734375	n/a	PROB	4064824	n/a	LTP366	ltpFR2	0	n/a	n/a	n/a	11	15	8	5	2
1987.1513671875	n/a	PROB	4069686	n/a	LTP366	ltpFR2	0	n/a	n/a	n/a	11	19	3	8	8
1988.740234375	n/a	PROB	4072940	n/a	LTP366	ltpFR2	0	n/a	n/a	n/a	11	12	1	7	4
1990.06103515625	n/a	PROB	4075645	n/a	LTP366	ltpFR2	0	n/a	n/a	n/a	11	6	1	3	2
1991.31494140625	n/a	PROB	4078213	n/a	LTP366	ltpFR2	0	n/a	n/a	n/a	11	14	5	3	6
1992.6689453125	n/a	PROB	4080986	n/a	LTP366	ltpFR2	0	n/a	n/a	n/a	11	13	6	5	2
1993.9580078125	n/a	PROB	4083626	n/a	LTP366	ltpFR2	0	n/a	n/a	n/a	11	15	6	8	1
1995.09375	n/a	PROB	4085952	n/a	LTP366	ltpFR2	0	n/a	n/a	n/a	11	15	5	3	6
1996.73193359375	n/a	PROB	4089307	n/a	LTP366	ltpFR2	0	n/a	n/a	n/a	11	21	7	6	8
1998.35400390625	n/a	PROB	4092629	n/a	LTP366	ltpFR2	0	n/a	n/a	n/a	11	12	4	3	5
2000.49365234375	n/a	PROB	4097011	n/a	LTP366	ltpFR2	0	n/a	n/a	n/a	11	9	1	1	7
2001.513671875	n/a	PROB	4099100	n/a	LTP366	ltpFR2	0	n/a	n/a	n/a	11	19	9	4	6
2002.9189453125	n/a	PROB	4101978	n/a	LTP366	ltpFR2	0	n/a	n/a	n/a	11	18	2	7	9
2004.29296875	n/a	STOP	4104792	n/a	LTP366	ltpFR2	0	n/a	n/a	n/a	11	n/a	n/a	n/a	n/a
2006.74853515625	n/a	REC_START	4109821	n/a	LTP366	ltpFR2	0	8	n/a	n/a	n/a	n/a	0	0	0
2009.07568359375	n/a	REC_WORD	4114587	wordpools/wasnorm_wordpool_576.txt	LTP366	ltpFR2	0	8	BREAST	171	n/a	n/a	0	0	0
2010.56640625	n/a	REC_WORD	4117640	wordpools/wasnorm_wordpool_576.txt	LTP366	ltpFR2	0	8	CHIPMUNK	304	n/a	n/a	0	0	0
2011.50244140625	n/a	REC_WORD	4119557	wordpools/wasnorm_wordpool_576.txt	LTP366	ltpFR2	0	8	ROOSTER	1209	n/a	n/a	0	0	0
2012.50634765625	n/a	REC_WORD	4121613	wordpools/wasnorm_wordpool_576.txt	LTP366	ltpFR2	0	8	OX	994	n/a	n/a	0	0	0
2017.66015625	n/a	REC_WORD	4132168	wordpools/wasnorm_wordpool_576.txt	LTP366	ltpFR2	0	8	VALLEY	1545	n/a	n/a	0	0	0
2021.30615234375	n/a	REC_WORD	4139635	wordpools/wasnorm_wordpool_576.txt	LTP366	ltpFR2	0	8	MASK	876	n/a	n/a	0	0	0
2054.9453125	n/a	REC_WORD	4208528	wordpools/wasnorm_wordpool_576.txt	LTP366	ltpFR2	0	8	OUTFIT	988	n/a	n/a	0	0	0
2055.75830078125	n/a	REC_WORD	4210193	wordpools/wasnorm_wordpool_576.txt	LTP366	ltpFR2	0	8	CLOTHES	327	n/a	n/a	0	0	0
2058.78515625	n/a	REC_WORD	4216392	wordpools/wasnorm_wordpool_576.txt	LTP366	ltpFR2	0	8	SILK	1307	n/a	n/a	0	0	0
2083.27685546875	n/a	REST_REWET	4266551	n/a	LTP366	ltpFR2	0	8	n/a	n/a	n/a	n/a	0	0	0
2173.6171875	n/a	DISTRACTOR	4451568	n/a	LTP366	ltpFR2	0	9	n/a	n/a	n/a	n/a	0	0	0
2173.6171875	n/a	START	4451568	n/a	LTP366	ltpFR2	0	n/a	n/a	n/a	12	n/a	n/a	n/a	n/a
2173.63427734375	n/a	PROB	4451603	n/a	LTP366	ltpFR2	0	n/a	n/a	n/a	12	11	5	1	5
2174.9892578125	n/a	PROB	4454378	n/a	LTP366	ltpFR2	0	n/a	n/a	n/a	12	18	1	9	7
2176.4931640625	n/a	PROB	4457458	n/a	LTP366	ltpFR2	0	n/a	n/a	n/a	12	14	4	7	3
2178.98486328125	n/a	PROB	4462561	n/a	LTP366	ltpFR2	0	n/a	n/a	n/a	12	21	6	6	9
2180.97509765625	n/a	PROB	4466637	n/a	LTP366	ltpFR2	0	n/a	n/a	n/a	12	21	5	7	9
2182.5458984375	n/a	PROB	4469854	n/a	LTP366	ltpFR2	0	n/a	n/a	n/a	12	16	9	3	4
2185.27099609375	n/a	PROB	4475435	n/a	LTP366	ltpFR2	0	n/a	n/a	n/a	12	12	7	4	1
2186.44189453125	n/a	PROB	4477833	n/a	LTP366	ltpFR2	0	n/a	n/a	n/a	12	19	9	4	6
2187.7958984375	n/a	PROB	4480606	n/a	LTP366	ltpFR2	0	n/a	n/a	n/a	12	22	7	7	8
2189.40087890625	n/a	PROB	4483893	n/a	LTP366	ltpFR2	0	n/a	n/a	n/a	12	18	9	4	5
2190.77197265625	n/a	PROB	4486701	n/a	LTP366	ltpFR2	0	n/a	n/a	n/a	12	18	5	7	6
2192.7119140625	n/a	PROB	4490674	n/a	LTP366	ltpFR2	0	n/a	n/a	n/a	12	10	7	2	1
2193.966796875	n/a	PROB	4493244	n/a	LTP366	ltpFR2	0	n/a	n/a	n/a	12	12	2	3	7
2195.38671875	n/a	PROB	4496152	n/a	LTP366	ltpFR2	0	n/a	n/a	n/a	12	12	2	2	8
2196.79736328125	n/a	STOP	4499041	n/a	LTP366	ltpFR2	0	n/a	n/a	n/a	12	n/a	n/a	n/a	n/a
2198.66455078125	n/a	WORD	4502865	wordpools/wasnorm_wordpool_576.txt	LTP366	ltpFR2	0	9	GARBAGE	622	n/a	n/a	0	0	0
2201.10546875	n/a	WORD	4507864	wordpools/wasnorm_wordpool_576.txt	LTP366	ltpFR2	0	9	HELMET	702	n/a	n/a	0	0	0
2203.59619140625	n/a	WORD	4512965	wordpools/wasnorm_wordpool_576.txt	LTP366	ltpFR2	0	9	PEBBLE	1035	n/a	n/a	0	0	0
2206.1884765625	n/a	WORD	4518274	wordpools/wasnorm_wordpool_576.txt	LTP366	ltpFR2	0	9	BOYFRIEND	162	n/a	n/a	0	0	0
2208.93017578125	n/a	WORD	4523889	wordpools/wasnorm_wordpool_576.txt	LTP366	ltpFR2	0	9	DOUGHNUT	490	n/a	n/a	0	0	0
2211.35498046875	n/a	WORD	4528855	wordpools/wasnorm_wordpool_576.txt	LTP366	ltpFR2	0	9	TART	1436	n/a	n/a	0	0	0
2213.87890625	n/a	WORD	4534024	wordpools/wasnorm_wordpool_576.txt	LTP366	ltpFR2	0	9	BANQUET	86	n/a	n/a	0	0	0
2216.37109375	n/a	WORD	4539128	wordpools/wasnorm_wordpool_576.txt	LTP366	ltpFR2	0	9	COOK	372	n/a	n/a	0	0	0
2218.86181640625	n/a	WORD	4544229	wordpools/wasnorm_wordpool_576.txt	LTP366	ltpFR2	0	9	LAVA	804	n/a	n/a	0	0	0
2221.50390625	n/a	WORD	4549640	wordpools/wasnorm_wordpool_576.txt	LTP366	ltpFR2	0	9	HAWK	692	n/a	n/a	0	0	0
2223.97998046875	n/a	WORD	4554711	wordpools/wasnorm_wordpool_576.txt	LTP366	ltpFR2	0	9	CORAL	378	n/a	n/a	0	0	0
2226.52001953125	n/a	WORD	4559913	wordpools/wasnorm_wordpool_576.txt	LTP366	ltpFR2	0	9	JELLO	754	n/a	n/a	0	0	0
2229.0615234375	n/a	WORD	4565118	wordpools/wasnorm_wordpool_576.txt	LTP366	ltpFR2	0	9	PUDDING	1139	n/a	n/a	0	0	0
2231.552734375	n/a	WORD	4570220	wordpools/wasnorm_wordpool_576.txt	LTP366	ltpFR2	0	9	TUNNEL	1519	n/a	n/a	0	0	0
2234.228515625	n/a	WORD	4575700	wordpools/wasnorm_wordpool_576.txt	LTP366	ltpFR2	0	9	TRENCH	1503	n/a	n/a	0	0	0
2236.83642578125	n/a	WORD	4581041	wordpools/wasnorm_wordpool_576.txt	LTP366	ltpFR2	0	9	ZIPPER	1636	n/a	n/a	0	0	0
2239.57861328125	n/a	WORD	4586657	wordpools/wasnorm_wordpool_576.txt	LTP366	ltpFR2	0	9	BATHTUB	100	n/a	n/a	0	0	0
2242.1533203125	n/a	WORD	4591930	wordpools/wasnorm_wordpool_576.txt	LTP366	ltpFR2	0	9	PADDING	999	n/a	n/a	0	0	0
2244.67822265625	n/a	WORD	4597101	wordpools/wasnorm_wordpool_576.txt	LTP366	ltpFR2	0	9	FRIEND	606	n/a	n/a	0	0	0
2247.17041015625	n/a	WORD	4602205	wordpools/wasnorm_wordpool_576.txt	LTP366	ltpFR2	0	9	TUBA	1515	n/a	n/a	0	0	0
2249.8623046875	n/a	WORD	4607718	wordpools/wasnorm_wordpool_576.txt	LTP366	ltpFR2	0	9	JAPAN	749	n/a	n/a	0	0	0
2252.5869140625	n/a	WORD	4613298	wordpools/wasnorm_wordpool_576.txt	LTP366	ltpFR2	0	9	PIMPLE	1071	n/a	n/a	0	0	0
2255.11181640625	n/a	WORD	4618469	wordpools/wasnorm_wordpool_576.txt	LTP366	ltpFR2	0	9	SPONGE	1355	n/a	n/a	0	0	0
2257.65380859375	n/a	WORD	4623675	wordpools/wasnorm_wordpool_576.txt	LTP366	ltpFR2	0	9	DORM	488	n/a	n/a	0	0	0
2259.2587890625	n/a	START	4626962	n/a	LTP366	ltpFR2	0	n/a	n/a	n/a	13	n/a	n/a	n/a	n/a
2260.39501953125	n/a	DISTRACTOR	4629289	n/a	LTP366	ltpFR2	0	9	n/a	n/a	n/a	n/a	0	0	0
2260.39599609375	n/a	PROB	4629291	n/a	LTP366	ltpFR2	0	n/a	n/a	n/a	13	10	4	4	2
2262.3349609375	n/a	PROB	4633262	n/a	LTP366	ltpFR2	0	n/a	n/a	n/a	13	19	4	9	6
2263.90673828125	n/a	PROB	4636481	n/a	LTP366	ltpFR2	0	n/a	n/a	n/a	13	10	6	1	3
2265.2275390625	n/a	PROB	4639186	n/a	LTP366	ltpFR2	0	n/a	n/a	n/a	13	12	1	7	4
2266.515625	n/a	PROB	4641824	n/a	LTP366	ltpFR2	0	n/a	n/a	n/a	13	14	2	5	7
2268.12060546875	n/a	PROB	4645111	n/a	LTP366	ltpFR2	0	n/a	n/a	n/a	13	12	1	8	3
2269.6416015625	n/a	PROB	4648226	n/a	LTP366	ltpFR2	0	n/a	n/a	n/a	13	19	9	5	5
2271.146484375	n/a	PROB	4651308	n/a	LTP366	ltpFR2	0	n/a	n/a	n/a	13	24	8	8	8
2272.4677734375	n/a	PROB	4654014	n/a	LTP366	ltpFR2	0	n/a	n/a	n/a	13	6	1	4	1
2273.82275390625	n/a	PROB	4656789	n/a	LTP366	ltpFR2	0	n/a	n/a	n/a	13	19	6	7	6
2275.62744140625	n/a	PROB	4660485	n/a	LTP366	ltpFR2	0	n/a	n/a	n/a	13	11	7	3	1
2276.74853515625	n/a	PROB	4662781	n/a	LTP366	ltpFR2	0	n/a	n/a	n/a	13	24	6	9	9
2278.72119140625	n/a	PROB	4666821	n/a	LTP366	ltpFR2	0	n/a	n/a	n/a	13	13	1	5	7
2279.908203125	n/a	PROB	4669252	n/a	LTP366	ltpFR2	0	n/a	n/a	n/a	13	14	5	3	6
2281.87744140625	n/a	STOP	4673285	n/a	LTP366	ltpFR2	0	n/a	n/a	n/a	13	n/a	n/a	n/a	n/a
2285.025390625	n/a	REC_START	4679732	n/a	LTP366	ltpFR2	0	9	n/a	n/a	n/a	n/a	0	0	0
2286.50634765625	n/a	REC_WORD	4682765	wordpools/wasnorm_wordpool_576.txt	LTP366	ltpFR2	0	9	BOYFRIEND	162	n/a	n/a	0	0	0
2287.36328125	n/a	REC_WORD	4684520	wordpools/wasnorm_wordpool_576.txt	LTP366	ltpFR2	0	9	FRIEND	606	n/a	n/a	0	0	0
2288.35302734375	n/a	REC_WORD	4686547	wordpools/wasnorm_wordpool_576.txt	LTP366	ltpFR2	0	9	PIMPLE	1071	n/a	n/a	0	0	0
2290.033203125	n/a	REC_WORD	4689988	wordpools/wasnorm_wordpool_576.txt	LTP366	ltpFR2	0	9	TART	1436	n/a	n/a	0	0	0
2291.8759765625	n/a	REC_WORD	4693762	wordpools/wasnorm_wordpool_576.txt	LTP366	ltpFR2	0	9	BANQUET	86	n/a	n/a	0	0	0
2292.90087890625	n/a	REC_WORD	4695861	wordpools/wasnorm_wordpool_576.txt	LTP366	ltpFR2	0	9	DOUGHNUT	490	n/a	n/a	0	0	0
2294.9208984375	n/a	REC_WORD	4699998	wordpools/wasnorm_wordpool_576.txt	LTP366	ltpFR2	0	9	JELLO	754	n/a	n/a	0	0	0
2295.90576171875	n/a	REC_WORD	4702015	wordpools/wasnorm_wordpool_576.txt	LTP366	ltpFR2	0	9	PUDDING	1139	n/a	n/a	0	0	0
2310.45556640625	n/a	REC_WORD	4731813	wordpools/wasnorm_wordpool_576.txt	LTP366	ltpFR2	0	9	JAPAN	749	n/a	n/a	0	0	0
2315.88037109375	n/a	REC_WORD	4742923	wordpools/wasnorm_wordpool_576.txt	LTP366	ltpFR2	0	9	SPONGE	1355	n/a	n/a	0	0	0
2325.873046875	n/a	REC_WORD	4763388	wordpools/wasnorm_wordpool_576.txt	LTP366	ltpFR2	0	9	COCOON	339	n/a	n/a	0	0	0
2346.12939453125	n/a	REC_WORD	4804873	wordpools/wasnorm_wordpool_576.txt	LTP366	ltpFR2	0	9	DRAFT	-1	n/a	n/a	0	0	0
2375.46484375	n/a	DISTRACTOR	4864952	n/a	LTP366	ltpFR2	0	10	n/a	n/a	n/a	n/a	0	0	0
2375.4658203125	n/a	START	4864954	n/a	LTP366	ltpFR2	0	n/a	n/a	n/a	14	n/a	n/a	n/a	n/a
2375.48193359375	n/a	PROB	4864987	n/a	LTP366	ltpFR2	0	n/a	n/a	n/a	14	11	3	6	2
2377.03662109375	n/a	PROB	4868171	n/a	LTP366	ltpFR2	0	n/a	n/a	n/a	14	9	1	2	5
2378.32470703125	n/a	PROB	4870809	n/a	LTP366	ltpFR2	0	n/a	n/a	n/a	14	17	7	2	8
2380.66552734375	n/a	PROB	4875603	n/a	LTP366	ltpFR2	0	n/a	n/a	n/a	14	16	6	3	7
2382.40478515625	n/a	PROB	4879165	n/a	LTP366	ltpFR2	0	n/a	n/a	n/a	14	15	4	2	9
2384.3935546875	n/a	PROB	4883238	n/a	LTP366	ltpFR2	0	n/a	n/a	n/a	14	11	1	3	7
2385.46435546875	n/a	PROB	4885431	n/a	LTP366	ltpFR2	0	n/a	n/a	n/a	14	7	2	2	3
2387.5546875	n/a	PROB	4889712	n/a	LTP366	ltpFR2	0	n/a	n/a	n/a	14	17	6	4	7
2388.70751953125	n/a	PROB	4892073	n/a	LTP366	ltpFR2	0	n/a	n/a	n/a	14	20	4	7	9
2391.4501953125	n/a	PROB	4897690	n/a	LTP366	ltpFR2	0	n/a	n/a	n/a	14	18	8	9	1
2393.10546875	n/a	PROB	4901080	n/a	LTP366	ltpFR2	0	n/a	n/a	n/a	14	14	4	5	5
2394.744140625	n/a	PROB	4904436	n/a	LTP366	ltpFR2	0	n/a	n/a	n/a	14	22	7	7	8
2397.28515625	n/a	PROB	4909640	n/a	LTP366	ltpFR2	0	n/a	n/a	n/a	14	15	9	5	1
2399.2939453125	n/a	STOP	4913754	n/a	LTP366	ltpFR2	0	n/a	n/a	n/a	14	n/a	n/a	n/a	n/a
2400.2783203125	n/a	WORD	4915770	wordpools/wasnorm_wordpool_576.txt	LTP366	ltpFR2	0	10	LAPEL	800	n/a	n/a	0	0	0
2402.8701171875	n/a	WORD	4921078	wordpools/wasnorm_wordpool_576.txt	LTP366	ltpFR2	0	10	TREAT	1501	n/a	n/a	0	0	0
2405.31103515625	n/a	WORD	4926077	wordpools/wasnorm_wordpool_576.txt	LTP366	ltpFR2	0	10	STAPLE	1371	n/a	n/a	0	0	0
2407.751953125	n/a	WORD	4931076	wordpools/wasnorm_wordpool_576.txt	LTP366	ltpFR2	0	10	OYSTER	995	n/a	n/a	0	0	0
2410.4609375	n/a	WORD	4936624	wordpools/wasnorm_wordpool_576.txt	LTP366	ltpFR2	0	10	CLAM	315	n/a	n/a	0	0	0
2413.15283203125	n/a	WORD	4942137	wordpools/wasnorm_wordpool_576.txt	LTP366	ltpFR2	0	10	SEAFOOD	1260	n/a	n/a	0	0	0
2415.89453125	n/a	WORD	4947752	wordpools/wasnorm_wordpool_576.txt	LTP366	ltpFR2	0	10	HUSBAND	728	n/a	n/a	0	0	0
2418.45361328125	n/a	WORD	4952993	wordpools/wasnorm_wordpool_576.txt	LTP366	ltpFR2	0	10	MOP	916	n/a	n/a	0	0	0
2421.228515625	n/a	WORD	4958676	wordpools/wasnorm_wordpool_576.txt	LTP366	ltpFR2	0	10	FIREMAN	569	n/a	n/a	0	0	0
2424.00537109375	n/a	WORD	4964363	wordpools/wasnorm_wordpool_576.txt	LTP366	ltpFR2	0	10	INMATE	738	n/a	n/a	0	0	0
2426.5625	n/a	WORD	4969600	wordpools/wasnorm_wordpool_576.txt	LTP366	ltpFR2	0	10	CELLAR	267	n/a	n/a	0	0	0
2429.28857421875	n/a	WORD	4975183	wordpools/wasnorm_wordpool_576.txt	LTP366	ltpFR2	0	10	MATTRESS	879	n/a	n/a	0	0	0
2432.0302734375	n/a	WORD	4980798	wordpools/wasnorm_wordpool_576.txt	LTP366	ltpFR2	0	10	DINER	467	n/a	n/a	0	0	0
2434.822265625	n/a	WORD	4986516	wordpools/wasnorm_wordpool_576.txt	LTP366	ltpFR2	0	10	CUSTARD	429	n/a	n/a	0	0	0
2437.63134765625	n/a	WORD	4992269	wordpools/wasnorm_wordpool_576.txt	LTP366	ltpFR2	0	10	POSSUM	1112	n/a	n/a	0	0	0
2440.0888671875	n/a	WORD	4997302	wordpools/wasnorm_wordpool_576.txt	LTP366	ltpFR2	0	10	MAILMAN	858	n/a	n/a	0	0	0
2442.865234375	n/a	WORD	5002988	wordpools/wasnorm_wordpool_576.txt	LTP366	ltpFR2	0	10	MESSAGE	888	n/a	n/a	0	0	0
2445.39013671875	n/a	WORD	5008159	wordpools/wasnorm_wordpool_576.txt	LTP366	ltpFR2	0	10	CLOCK	325	n/a	n/a	0	0	0
2447.89794921875	n/a	WORD	5013295	wordpools/wasnorm_wordpool_576.txt	LTP366	ltpFR2	0	10	GAZELLE	628	n/a	n/a	0	0	0
2450.673828125	n/a	WORD	5018980	wordpools/wasnorm_wordpool_576.txt	LTP366	ltpFR2	0	10	SNACK	1331	n/a	n/a	0	0	0
2453.36572265625	n/a	WORD	5024493	wordpools/wasnorm_wordpool_576.txt	LTP366	ltpFR2	0	10	SISTER	1312	n/a	n/a	0	0	0
2456.1748046875	n/a	WORD	5030246	wordpools/wasnorm_wordpool_576.txt	LTP366	ltpFR2	0	10	POWDER	1117	n/a	n/a	0	0	0
2458.7666015625	n/a	WORD	5035554	wordpools/wasnorm_wordpool_576.txt	LTP366	ltpFR2	0	10	TWEEZERS	1526	n/a	n/a	0	0	0
2461.357421875	n/a	WORD	5040860	wordpools/wasnorm_wordpool_576.txt	LTP366	ltpFR2	0	10	WHISKERS	1605	n/a	n/a	0	0	0
2462.96435546875	n/a	START	5044151	n/a	LTP366	ltpFR2	0	n/a	n/a	n/a	15	n/a	n/a	n/a	n/a
2464.09130859375	n/a	DISTRACTOR	5046459	n/a	LTP366	ltpFR2	0	10	n/a	n/a	n/a	n/a	0	0	0
2464.1005859375	n/a	PROB	5046478	n/a	LTP366	ltpFR2	0	n/a	n/a	n/a	15	8	4	1	3
2465.85546875	n/a	PROB	5050072	n/a	LTP366	ltpFR2	0	n/a	n/a	n/a	15	19	9	8	1
2467.494140625	n/a	PROB	5053428	n/a	LTP366	ltpFR2	0	n/a	n/a	n/a	15	9	2	6	1
2469.18310546875	n/a	PROB	5056887	n/a	LTP366	ltpFR2	0	n/a	n/a	n/a	15	11	1	3	7
2470.33642578125	n/a	PROB	5059249	n/a	LTP366	ltpFR2	0	n/a	n/a	n/a	15	20	7	7	6
2471.69140625	n/a	PROB	5062024	n/a	LTP366	ltpFR2	0	n/a	n/a	n/a	15	16	4	7	5
2473.09521484375	n/a	PROB	5064899	n/a	LTP366	ltpFR2	0	n/a	n/a	n/a	15	19	4	7	8
2475.38623046875	n/a	PROB	5069591	n/a	LTP366	ltpFR2	0	n/a	n/a	n/a	15	11	1	3	7
2476.40625	n/a	PROB	5071680	n/a	LTP366	ltpFR2	0	n/a	n/a	n/a	15	18	9	7	2
2477.69384765625	n/a	PROB	5074317	n/a	LTP366	ltpFR2	0	n/a	n/a	n/a	15	12	3	6	3
2479.298828125	n/a	PROB	5077604	n/a	LTP366	ltpFR2	0	n/a	n/a	n/a	15	12	1	7	4
2480.46923828125	n/a	PROB	5080001	n/a	LTP366	ltpFR2	0	n/a	n/a	n/a	15	21	7	5	9
2482.39208984375	n/a	PROB	5083939	n/a	LTP366	ltpFR2	0	n/a	n/a	n/a	15	20	9	9	2
2484.1640625	n/a	PROB	5087568	n/a	LTP366	ltpFR2	0	n/a	n/a	n/a	15	24	7	8	9
2485.90966796875	n/a	STOP	5091143	n/a	LTP366	ltpFR2	0	n/a	n/a	n/a	15	n/a	n/a	n/a	n/a
2488.77978515625	n/a	REC_START	5097021	n/a	LTP366	ltpFR2	0	10	n/a	n/a	n/a	n/a	0	0	0
2489.82080078125	n/a	REC_WORD	5099153	wordpools/wasnorm_wordpool_576.txt	LTP366	ltpFR2	0	10	SISTER	1312	n/a	n/a	0	0	0
2490.6337890625	n/a	REC_WORD	5100818	wordpools/wasnorm_wordpool_576.txt	LTP366	ltpFR2	0	10	SNACK	1331	n/a	n/a	0	0	0
2491.7626953125	n/a	REC_WORD	5103130	wordpools/wasnorm_wordpool_576.txt	LTP366	ltpFR2	0	10	HUSBAND	728	n/a	n/a	0	0	0
2496.36669921875	n/a	REC_WORD	5112559	wordpools/wasnorm_wordpool_576.txt	LTP366	ltpFR2	0	10	OYSTER	995	n/a	n/a	0	0	0
2497.259765625	n/a	REC_WORD	5114388	wordpools/wasnorm_wordpool_576.txt	LTP366	ltpFR2	0	10	CLAM	315	n/a	n/a	0	0	0
2499.29541015625	n/a	REC_WORD	5118557	wordpools/wasnorm_wordpool_576.txt	LTP366	ltpFR2	0	10	SEAFOOD	1260	n/a	n/a	0	0	0
2517.76611328125	n/a	REC_WORD	5156385	wordpools/wasnorm_wordpool_576.txt	LTP366	ltpFR2	0	10	CLOCK	325	n/a	n/a	0	0	0
2520.02978515625	n/a	REC_WORD	5161021	wordpools/wasnorm_wordpool_576.txt	LTP366	ltpFR2	0	10	MESSAGE	888	n/a	n/a	0	0	0
2579.236328125	n/a	WORD	5282276	wordpools/wasnorm_wordpool_576.txt	LTP366	ltpFR2	0	11	ROCKET	1202	n/a	n/a	0	0	0
2581.9794921875	n/a	WORD	5287894	wordpools/wasnorm_wordpool_576.txt	LTP366	ltpFR2	0	11	CROWN	415	n/a	n/a	0	0	0
2584.486328125	n/a	WORD	5293028	wordpools/wasnorm_wordpool_576.txt	LTP366	ltpFR2	0	11	GARLIC	624	n/a	n/a	0	0	0
2587.0283203125	n/a	WORD	5298234	wordpools/wasnorm_wordpool_576.txt	LTP366	ltpFR2	0	11	DRAGON	492	n/a	n/a	0	0	0
2589.4521484375	n/a	WORD	5303198	wordpools/wasnorm_wordpool_576.txt	LTP366	ltpFR2	0	11	FIREPLACE	570	n/a	n/a	0	0	0
2591.9951171875	n/a	WORD	5308406	wordpools/wasnorm_wordpool_576.txt	LTP366	ltpFR2	0	11	MARSH	874	n/a	n/a	0	0	0
2594.51904296875	n/a	WORD	5313575	wordpools/wasnorm_wordpool_576.txt	LTP366	ltpFR2	0	11	GREASE	660	n/a	n/a	0	0	0
2597.1767578125	n/a	WORD	5319018	wordpools/wasnorm_wordpool_576.txt	LTP366	ltpFR2	0	11	EMPIRE	530	n/a	n/a	0	0	0
2599.6689453125	n/a	WORD	5324122	wordpools/wasnorm_wordpool_576.txt	LTP366	ltpFR2	0	11	BEAVER	109	n/a	n/a	0	0	0
2602.126953125	n/a	WORD	5329156	wordpools/wasnorm_wordpool_576.txt	LTP366	ltpFR2	0	11	SEAL	1262	n/a	n/a	0	0	0
2604.91845703125	n/a	WORD	5334873	wordpools/wasnorm_wordpool_576.txt	LTP366	ltpFR2	0	11	RADISH	1158	n/a	n/a	0	0	0
2607.54345703125	n/a	WORD	5340249	wordpools/wasnorm_wordpool_576.txt	LTP366	ltpFR2	0	11	SALMON	1227	n/a	n/a	0	0	0
2610.26953125	n/a	WORD	5345832	wordpools/wasnorm_wordpool_576.txt	LTP366	ltpFR2	0	11	PORTRAIT	1111	n/a	n/a	0	0	0
2612.67724609375	n/a	WORD	5350763	wordpools/wasnorm_wordpool_576.txt	LTP366	ltpFR2	0	11	SUPPER	1411	n/a	n/a	0	0	0
2615.4365234375	n/a	WORD	5356414	wordpools/wasnorm_wordpool_576.txt	LTP366	ltpFR2	0	11	PICTURE	1061	n/a	n/a	0	0	0
2618.09423828125	n/a	WORD	5361857	wordpools/wasnorm_wordpool_576.txt	LTP366	ltpFR2	0	11	CHAPEL	280	n/a	n/a	0	0	0
2620.53515625	n/a	WORD	5366856	wordpools/wasnorm_wordpool_576.txt	LTP366	ltpFR2	0	11	RIVER	1194	n/a	n/a	0	0	0
2623.01123046875	n/a	WORD	5371927	wordpools/wasnorm_wordpool_576.txt	LTP366	ltpFR2	0	11	SLIME	1327	n/a	n/a	0	0	0
2625.76904296875	n/a	WORD	5377575	wordpools/wasnorm_wordpool_576.txt	LTP366	ltpFR2	0	11	BRANDY	169	n/a	n/a	0	0	0
2628.19384765625	n/a	WORD	5382541	wordpools/wasnorm_wordpool_576.txt	LTP366	ltpFR2	0	11	AIRPLANE	12	n/a	n/a	0	0	0
2630.8017578125	n/a	WORD	5387882	wordpools/wasnorm_wordpool_576.txt	LTP366	ltpFR2	0	11	BASEMENT	94	n/a	n/a	0	0	0
2633.2099609375	n/a	WORD	5392814	wordpools/wasnorm_wordpool_576.txt	LTP366	ltpFR2	0	11	FLASK	576	n/a	n/a	0	0	0
2635.78466796875	n/a	WORD	5398087	wordpools/wasnorm_wordpool_576.txt	LTP366	ltpFR2	0	11	FRIAR	605	n/a	n/a	0	0	0
2638.3095703125	n/a	WORD	5403258	wordpools/wasnorm_wordpool_576.txt	LTP366	ltpFR2	0	11	NIGHTGOWN	953	n/a	n/a	0	0	0
2639.91455078125	n/a	START	5406545	n/a	LTP366	ltpFR2	0	n/a	n/a	n/a	16	n/a	n/a	n/a	n/a
2640.7685546875	n/a	DISTRACTOR	5408294	n/a	LTP366	ltpFR2	0	11	n/a	n/a	n/a	n/a	0	0	0
2640.78369140625	n/a	PROB	5408325	n/a	LTP366	ltpFR2	0	n/a	n/a	n/a	16	18	1	8	9
2642.35546875	n/a	PROB	5411544	n/a	LTP366	ltpFR2	0	n/a	n/a	n/a	16	13	6	2	5
2643.9287109375	n/a	PROB	5414766	n/a	LTP366	ltpFR2	0	n/a	n/a	n/a	16	13	2	8	3
2645.4326171875	n/a	PROB	5417846	n/a	LTP366	ltpFR2	0	n/a	n/a	n/a	16	14	4	3	7
2647.806640625	n/a	PROB	5422708	n/a	LTP366	ltpFR2	0	n/a	n/a	n/a	16	20	7	8	5
2650.46533203125	n/a	PROB	5428153	n/a	LTP366	ltpFR2	0	n/a	n/a	n/a	16	17	6	8	3
2651.83642578125	n/a	PROB	5430961	n/a	LTP366	ltpFR2	0	n/a	n/a	n/a	16	15	2	8	5
2653.6923828125	n/a	PROB	5434762	n/a	LTP366	ltpFR2	0	n/a	n/a	n/a	16	14	4	8	4
2655.732421875	n/a	PROB	5438940	n/a	LTP366	ltpFR2	0	n/a	n/a	n/a	16	10	2	6	2
2658.7080078125	n/a	PROB	5445034	n/a	LTP366	ltpFR2	0	n/a	n/a	n/a	16	20	7	4	9
2660.12939453125	n/a	PROB	5447945	n/a	LTP366	ltpFR2	0	n/a	n/a	n/a	16	11	7	1	3
2661.5341796875	n/a	PROB	5450822	n/a	LTP366	ltpFR2	0	n/a	n/a	n/a	16	10	4	2	2
2663.30322265625	n/a	STOP	5454445	n/a	LTP366	ltpFR2	0	n/a	n/a	n/a	16	n/a	n/a	n/a	n/a
2665.64794921875	n/a	REC_START	5459247	n/a	LTP366	ltpFR2	0	11	n/a	n/a	n/a	n/a	0	0	0
2666.55419921875	n/a	REC_WORD	5461103	wordpools/wasnorm_wordpool_576.txt	LTP366	ltpFR2	0	11	FLASK	576	n/a	n/a	0	0	0
2667.634765625	n/a	REC_WORD	5463316	wordpools/wasnorm_wordpool_576.txt	LTP366	ltpFR2	0	11	BRANDY	169	n/a	n/a	0	0	0
2670.5771484375	n/a	REC_WORD	5469342	wordpools/wasnorm_wordpool_576.txt	LTP366	ltpFR2	0	11	BEAVER	109	n/a	n/a	0	0	0
2680.0166015625	n/a	REC_WORD	5488674	wordpools/wasnorm_wordpool_576.txt	LTP366	ltpFR2	0	11	FRIAR	605	n/a	n/a	0	0	0
2687.5986328125	n/a	REC_WORD	5504202	wordpools/wasnorm_wordpool_576.txt	LTP366	ltpFR2	0	11	RIVER	1194	n/a	n/a	0	0	0
2693.1220703125	n/a	REC_WORD	5515514	wordpools/wasnorm_wordpool_576.txt	LTP366	ltpFR2	0	11	FIREPLACE	570	n/a	n/a	0	0	0
2694.1220703125	n/a	REC_WORD_VV	5517562	wordpools/wasnorm_wordpool_576.txt	LTP366	ltpFR2	0	11	<>	-1	n/a	n/a	0	0	0
2725.6015625	n/a	REC_WORD	5582032	wordpools/wasnorm_wordpool_576.txt	LTP366	ltpFR2	0	11	NIGHTGOWN	953	n/a	n/a	0	0	0
2729.1552734375	n/a	REC_WORD	5589310	wordpools/wasnorm_wordpool_576.txt	LTP366	ltpFR2	0	11	BASEMENT	94	n/a	n/a	0	0	0
2731.6611328125	n/a	REC_WORD	5594442	wordpools/wasnorm_wordpool_576.txt	LTP366	ltpFR2	0	11	AIRPLANE	12	n/a	n/a	0	0	0
2756.08740234375	n/a	DISTRACTOR	5644467	n/a	LTP366	ltpFR2	0	12	n/a	n/a	n/a	n/a	0	0	0
2756.08740234375	n/a	START	5644467	n/a	LTP366	ltpFR2	0	n/a	n/a	n/a	17	n/a	n/a	n/a	n/a
2756.1044921875	n/a	PROB	5644502	n/a	LTP366	ltpFR2	0	n/a	n/a	n/a	17	18	5	6	7
2758.87939453125	n/a	PROB	5650185	n/a	LTP366	ltpFR2	0	n/a	n/a	n/a	17	11	2	1	8
2760.05029296875	n/a	PROB	5652583	n/a	LTP366	ltpFR2	0	n/a	n/a	n/a	17	17	5	3	9
2761.4384765625	n/a	PROB	5655426	n/a	LTP366	ltpFR2	0	n/a	n/a	n/a	17	20	5	8	7
2763.74560546875	n/a	PROB	5660151	n/a	LTP366	ltpFR2	0	n/a	n/a	n/a	17	15	9	2	4
2765.16650390625	n/a	PROB	5663061	n/a	LTP366	ltpFR2	0	n/a	n/a	n/a	17	7	3	3	1
2766.822265625	n/a	PROB	5666452	n/a	LTP366	ltpFR2	0	n/a	n/a	n/a	17	19	7	5	6
2768.494140625	n/a	PROB	5669876	n/a	LTP366	ltpFR2	0	n/a	n/a	n/a	17	21	9	8	4
2770.0322265625	n/a	PROB	5673026	n/a	LTP366	ltpFR2	0	n/a	n/a	n/a	17	16	5	4	7
2772.2060546875	n/a	PROB	5677478	n/a	LTP366	ltpFR2	0	n/a	n/a	n/a	17	12	9	1	2
2773.30908203125	n/a	PROB	5679737	n/a	LTP366	ltpFR2	0	n/a	n/a	n/a	17	27	9	9	9
2775.23193359375	n/a	PROB	5683675	n/a	LTP366	ltpFR2	0	n/a	n/a	n/a	17	21	3	9	7
2780.0869140625	n/a	STOP	5693618	n/a	LTP366	ltpFR2	0	n/a	n/a	n/a	17	n/a	n/a	n/a	n/a
2781.3017578125	n/a	WORD	5696106	wordpools/wasnorm_wordpool_576.txt	LTP366	ltpFR2	0	12	VAGRANT	1544	n/a	n/a	0	0	0
2783.94482421875	n/a	WORD	5701519	wordpools/wasnorm_wordpool_576.txt	LTP366	ltpFR2	0	12	LUNCH	849	n/a	n/a	0	0	0
2786.7197265625	n/a	WORD	5707202	wordpools/wasnorm_wordpool_576.txt	LTP366	ltpFR2	0	12	CATTLE	261	n/a	n/a	0	0	0
2789.3779296875	n/a	WORD	5712646	wordpools/wasnorm_wordpool_576.txt	LTP366	ltpFR2	0	12	BUNNY	198	n/a	n/a	0	0	0
2792.03662109375	n/a	WORD	5718091	wordpools/wasnorm_wordpool_576.txt	LTP366	ltpFR2	0	12	TORTOISE	1486	n/a	n/a	0	0	0
2794.49462890625	n/a	WORD	5723125	wordpools/wasnorm_wordpool_576.txt	LTP366	ltpFR2	0	12	FEMALE	559	n/a	n/a	0	0	0
2796.986328125	n/a	WORD	5728228	wordpools/wasnorm_wordpool_576.txt	LTP366	ltpFR2	0	12	RABBIT	1152	n/a	n/a	0	0	0
2799.6943359375	n/a	WORD	5733774	wordpools/wasnorm_wordpool_576.txt	LTP366	ltpFR2	0	12	DRUG	501	n/a	n/a	0	0	0
2802.4365234375	n/a	WORD	5739390	wordpools/wasnorm_wordpool_576.txt	LTP366	ltpFR2	0	12	BARREL	91	n/a	n/a	0	0	0
2805.21240234375	n/a	WORD	5745075	wordpools/wasnorm_wordpool_576.txt	LTP366	ltpFR2	0	12	MARROW	872	n/a	n/a	0	0	0
2807.88720703125	n/a	WORD	5750553	wordpools/wasnorm_wordpool_576.txt	LTP366	ltpFR2	0	12	LOFT	840	n/a	n/a	0	0	0
2810.412109375	n/a	WORD	5755724	wordpools/wasnorm_wordpool_576.txt	LTP366	ltpFR2	0	12	LUGGAGE	847	n/a	n/a	0	0	0
2812.9033203125	n/a	WORD	5760826	wordpools/wasnorm_wordpool_576.txt	LTP366	ltpFR2	0	12	KEEPER	769	n/a	n/a	0	0	0
2815.39501953125	n/a	WORD	5765929	wordpools/wasnorm_wordpool_576.txt	LTP366	ltpFR2	0	12	WARDROBE	1587	n/a	n/a	0	0	0
2818.1708984375	n/a	WORD	5771614	wordpools/wasnorm_wordpool_576.txt	LTP366	ltpFR2	0	12	SHIRT	1287	n/a	n/a	0	0	0
2820.7451171875	n/a	WORD	5776886	wordpools/wasnorm_wordpool_576.txt	LTP366	ltpFR2	0	12	HORSE	719	n/a	n/a	0	0	0
2823.37060546875	n/a	WORD	5782263	wordpools/wasnorm_wordpool_576.txt	LTP366	ltpFR2	0	12	PARENT	1013	n/a	n/a	0	0	0
2826.1796875	n/a	WORD	5788016	wordpools/wasnorm_wordpool_576.txt	LTP366	ltpFR2	0	12	CANAL	226	n/a	n/a	0	0	0
2828.62060546875	n/a	WORD	5793015	wordpools/wasnorm_wordpool_576.txt	LTP366	ltpFR2	0	12	ASIA	46	n/a	n/a	0	0	0
2831.21240234375	n/a	WORD	5798323	wordpools/wasnorm_wordpool_576.txt	LTP366	ltpFR2	0	12	AWARD	63	n/a	n/a	0	0	0
2833.92041015625	n/a	WORD	5803869	wordpools/wasnorm_wordpool_576.txt	LTP366	ltpFR2	0	12	MEDAL	885	n/a	n/a	0	0	0
2836.61328125	n/a	WORD	5809384	wordpools/wasnorm_wordpool_576.txt	LTP366	ltpFR2	0	12	THRONE	1461	n/a	n/a	0	0	0
2839.33837890625	n/a	WORD	5814965	wordpools/wasnorm_wordpool_576.txt	LTP366	ltpFR2	0	12	WINDOW	1611	n/a	n/a	0	0	0
2841.96435546875	n/a	WORD	5820343	wordpools/wasnorm_wordpool_576.txt	LTP366	ltpFR2	0	12	MARINE	869	n/a	n/a	0	0	0
2843.5693359375	n/a	START	5823630	n/a	LTP366	ltpFR2	0	n/a	n/a	n/a	18	n/a	n/a	n/a	n/a
2844.64306640625	n/a	DISTRACTOR	5825829	n/a	LTP366	ltpFR2	0	12	n/a	n/a	n/a	n/a	0	0	0
2844.6552734375	n/a	PROB	5825854	n/a	LTP366	ltpFR2	0	n/a	n/a	n/a	18	10	1	7	2
2846.12744140625	n/a	PROB	5828869	n/a	LTP366	ltpFR2	0	n/a	n/a	n/a	18	19	9	9	1
2847.9501953125	n/a	PROB	5832602	n/a	LTP366	ltpFR2	0	n/a	n/a	n/a	18	15	4	4	7
2849.72216796875	n/a	PROB	5836231	n/a	LTP366	ltpFR2	0	n/a	n/a	n/a	18	12	3	3	6
2851.1259765625	n/a	PROB	5839106	n/a	LTP366	ltpFR2	0	n/a	n/a	n/a	18	15	6	8	1
2852.2802734375	n/a	PROB	5841470	n/a	LTP366	ltpFR2	0	n/a	n/a	n/a	18	8	4	3	1
2853.5341796875	n/a	PROB	5844038	n/a	LTP366	ltpFR2	0	n/a	n/a	n/a	18	21	7	5	9
2854.9228515625	n/a	PROB	5846882	n/a	LTP366	ltpFR2	0	n/a	n/a	n/a	18	17	6	8	3
2856.509765625	n/a	PROB	5850132	n/a	LTP366	ltpFR2	0	n/a	n/a	n/a	18	11	7	3	1
2858.298828125	n/a	PROB	5853796	n/a	LTP366	ltpFR2	0	n/a	n/a	n/a	18	15	3	8	4
2859.87060546875	n/a	PROB	5857015	n/a	LTP366	ltpFR2	0	n/a	n/a	n/a	18	22	5	8	9
2861.27587890625	n/a	PROB	5859893	n/a	LTP366	ltpFR2	0	n/a	n/a	n/a	18	15	3	3	9
2863.09765625	n/a	PROB	5863624	n/a	LTP366	ltpFR2	0	n/a	n/a	n/a	18	16	8	4	4
2864.65283203125	n/a	PROB	5866809	n/a	LTP366	ltpFR2	0	n/a	n/a	n/a	18	11	6	3	4
2867.56787109375	n/a	STOP	5872779	n/a	LTP366	ltpFR2	0	n/a	n/a	n/a	18	n/a	n/a	n/a	n/a
2869.50244140625	n/a	REC_START	5876741	n/a	LTP366	ltpFR2	0	12	n/a	n/a	n/a	n/a	0	0	0
2870.25537109375	n/a	REC_WORD	5878283	wordpools/wasnorm_wordpool_576.txt	LTP366	ltpFR2	0	12	AWARD	63	n/a	n/a	0	0	0
2871.20458984375	n/a	REC_WORD	5880227	wordpools/wasnorm_wordpool_576.txt	LTP366	ltpFR2	0	12	MEDAL	885	n/a	n/a	0	0	0
2872.0625	n/a	REC_WORD	5881984	wordpools/wasnorm_wordpool_576.txt	LTP366	ltpFR2	0	12	HORSE	719	n/a	n/a	0	0	0
2876.734375	n/a	REC_WORD	5891552	wordpools/wasnorm_wordpool_576.txt	LTP366	ltpFR2	0	12	TORTOISE	1486	n/a	n/a	0	0	0
2878.63818359375	n/a	REC_WORD	5895451	wordpools/wasnorm_wordpool_576.txt	LTP366	ltpFR2	0	12	RABBIT	1152	n/a	n/a	0	0	0
2879.63818359375	n/a	REC_WORD	5897499	wordpools/wasnorm_wordpool_576.txt	LTP366	ltpFR2	0	12	BUNNY	198	n/a	n/a	0	0	0
2881.2734375	n/a	REC_WORD	5900848	wordpools/wasnorm_wordpool_576.txt	LTP366	ltpFR2	0	12	CATTLE	261	n/a	n/a	0	0	0
2882.64599609375	n/a	REC_WORD	5903659	wordpools/wasnorm_wordpool_576.txt	LTP366	ltpFR2	0	12	LUNCH	849	n/a	n/a	0	0	0
2886.0	n/a	REC_WORD	5910528	wordpools/wasnorm_wordpool_576.txt	LTP366	ltpFR2	0	12	VAGRANT	1544	n/a	n/a	0	0	0
2888.43798828125	n/a	REC_WORD	5915521	wordpools/wasnorm_wordpool_576.txt	LTP366	ltpFR2	0	12	CANAL	226	n/a	n/a	0	0	0
2904.640625	n/a	REC_WORD	5948704	wordpools/wasnorm_wordpool_576.txt	LTP366	ltpFR2	0	12	ASIA	46	n/a	n/a	0	0	0
2911.71142578125	n/a	REC_WORD	5963185	wordpools/wasnorm_wordpool_576.txt	LTP366	ltpFR2	0	12	FEMALE	559	n/a	n/a	0	0	0
2943.11181640625	n/a	REC_WORD	6027493	wordpools/wasnorm_wordpool_576.txt	LTP366	ltpFR2	0	12	PARROT	1015	n/a	n/a	0	0	0
2959.9599609375	n/a	WORD	6061998	wordpools/wasnorm_wordpool_576.txt	LTP366	ltpFR2	0	13	SPOOL	1356	n/a	n/a	0	0	0
2962.63427734375	n/a	WORD	6067475	wordpools/wasnorm_wordpool_576.txt	LTP366	ltpFR2	0	13	ORCHID	982	n/a	n/a	0	0	0
2965.17578125	n/a	WORD	6072680	wordpools/wasnorm_wordpool_576.txt	LTP366	ltpFR2	0	13	COCKTAIL	338	n/a	n/a	0	0	0
2967.8681640625	n/a	WORD	6078194	wordpools/wasnorm_wordpool_576.txt	LTP366	ltpFR2	0	13	FRUIT	610	n/a	n/a	0	0	0
2970.47607421875	n/a	WORD	6083535	wordpools/wasnorm_wordpool_576.txt	LTP366	ltpFR2	0	13	COLLEGE	346	n/a	n/a	0	0	0
2972.91796875	n/a	WORD	6088536	wordpools/wasnorm_wordpool_576.txt	LTP366	ltpFR2	0	13	CRATER	400	n/a	n/a	0	0	0
2975.57568359375	n/a	WORD	6093979	wordpools/wasnorm_wordpool_576.txt	LTP366	ltpFR2	0	13	SHORTCAKE	1292	n/a	n/a	0	0	0
2978.33447265625	n/a	WORD	6099629	wordpools/wasnorm_wordpool_576.txt	LTP366	ltpFR2	0	13	ORANGE	980	n/a	n/a	0	0	0
2980.8095703125	n/a	WORD	6104698	wordpools/wasnorm_wordpool_576.txt	LTP366	ltpFR2	0	13	CONTRACT	368	n/a	n/a	0	0	0
2983.6015625	n/a	WORD	6110416	wordpools/wasnorm_wordpool_576.txt	LTP366	ltpFR2	0	13	SCRIBBLE	1256	n/a	n/a	0	0	0
2986.15966796875	n/a	WORD	6115655	wordpools/wasnorm_wordpool_576.txt	LTP366	ltpFR2	0	13	PLAID	1080	n/a	n/a	0	0	0
2988.78515625	n/a	WORD	6121032	wordpools/wasnorm_wordpool_576.txt	LTP366	ltpFR2	0	13	SHRUB	1299	n/a	n/a	0	0	0
2991.2265625	n/a	WORD	6126032	wordpools/wasnorm_wordpool_576.txt	LTP366	ltpFR2	0	13	GARDEN	623	n/a	n/a	0	0	0
2994.00244140625	n/a	WORD	6131717	wordpools/wasnorm_wordpool_576.txt	LTP366	ltpFR2	0	13	SLOPE	1328	n/a	n/a	0	0	0
2996.5263671875	n/a	WORD	6136886	wordpools/wasnorm_wordpool_576.txt	LTP366	ltpFR2	0	13	SIBLING	1301	n/a	n/a	0	0	0
2998.9521484375	n/a	WORD	6141854	wordpools/wasnorm_wordpool_576.txt	LTP366	ltpFR2	0	13	BROTHER	179	n/a	n/a	0	0	0
3001.60986328125	n/a	WORD	6147297	wordpools/wasnorm_wordpool_576.txt	LTP366	ltpFR2	0	13	QUARTER	1148	n/a	n/a	0	0	0
3004.1181640625	n/a	WORD	6152434	wordpools/wasnorm_wordpool_576.txt	LTP366	ltpFR2	0	13	TOURIST	1488	n/a	n/a	0	0	0
3006.81005859375	n/a	WORD	6157947	wordpools/wasnorm_wordpool_576.txt	LTP366	ltpFR2	0	13	SKETCH	1315	n/a	n/a	0	0	0
3009.31787109375	n/a	WORD	6163083	wordpools/wasnorm_wordpool_576.txt	LTP366	ltpFR2	0	13	SWAMP	1416	n/a	n/a	0	0	0
3012.009765625	n/a	WORD	6168596	wordpools/wasnorm_wordpool_576.txt	LTP366	ltpFR2	0	13	PREACHER	1119	n/a	n/a	0	0	0
3014.53466796875	n/a	WORD	6173767	wordpools/wasnorm_wordpool_576.txt	LTP366	ltpFR2	0	13	VENUS	1557	n/a	n/a	0	0	0
3017.27685546875	n/a	WORD	6179383	wordpools/wasnorm_wordpool_576.txt	LTP366	ltpFR2	0	13	LODGE	839	n/a	n/a	0	0	0
3019.8515625	n/a	WORD	6184656	wordpools/wasnorm_wordpool_576.txt	LTP366	ltpFR2	0	13	STATUE	1374	n/a	n/a	0	0	0
3021.45654296875	n/a	START	6187943	n/a	LTP366	ltpFR2	0	n/a	n/a	n/a	19	n/a	n/a	n/a	n/a
3022.62158203125	n/a	DISTRACTOR	6190329	n/a	LTP366	ltpFR2	0	13	n/a	n/a	n/a	n/a	0	0	0
3022.62744140625	n/a	PROB	6190341	n/a	LTP366	ltpFR2	0	n/a	n/a	n/a	19	12	7	1	4
3024.03125	n/a	PROB	6193216	n/a	LTP366	ltpFR2	0	n/a	n/a	n/a	19	14	1	9	4
3025.13525390625	n/a	PROB	6195477	n/a	LTP366	ltpFR2	0	n/a	n/a	n/a	19	15	1	9	5
3026.08837890625	n/a	PROB	6197429	n/a	LTP366	ltpFR2	0	n/a	n/a	n/a	19	6	1	3	2
3027.25830078125	n/a	PROB	6199825	n/a	LTP366	ltpFR2	0	n/a	n/a	n/a	19	9	1	5	3
3028.412109375	n/a	PROB	6202188	n/a	LTP366	ltpFR2	0	n/a	n/a	n/a	19	14	8	3	3
3030.4521484375	n/a	PROB	6206366	n/a	LTP366	ltpFR2	0	n/a	n/a	n/a	19	18	7	2	9
3032.0244140625	n/a	PROB	6209586	n/a	LTP366	ltpFR2	0	n/a	n/a	n/a	19	18	6	9	3
3033.39501953125	n/a	PROB	6212393	n/a	LTP366	ltpFR2	0	n/a	n/a	n/a	19	18	5	9	4
3034.76611328125	n/a	PROB	6215201	n/a	LTP366	ltpFR2	0	n/a	n/a	n/a	19	9	2	5	2
3036.169921875	n/a	PROB	6218076	n/a	LTP366	ltpFR2	0	n/a	n/a	n/a	19	17	6	7	4
3037.47509765625	n/a	PROB	6220749	n/a	LTP366	ltpFR2	0	n/a	n/a	n/a	19	19	2	8	9
3039.2138671875	n/a	PROB	6224310	n/a	LTP366	ltpFR2	0	n/a	n/a	n/a	19	12	1	3	8
3040.3671875	n/a	PROB	6226672	n/a	LTP366	ltpFR2	0	n/a	n/a	n/a	19	17	6	2	9
3042.08984375	n/a	PROB	6230200	n/a	LTP366	ltpFR2	0	n/a	n/a	n/a	19	19	9	7	3
3044.03076171875	n/a	STOP	6234175	n/a	LTP366	ltpFR2	0	n/a	n/a	n/a	19	n/a	n/a	n/a	n/a
3047.291015625	n/a	REC_START	6240852	n/a	LTP366	ltpFR2	0	13	n/a	n/a	n/a	n/a	0	0	0
3048.11083984375	n/a	REC_WORD	6242531	wordpools/wasnorm_wordpool_576.txt	LTP366	ltpFR2	0	13	PREACHER	1119	n/a	n/a	0	0	0
3049.05078125	n/a	REC_WORD	6244456	wordpools/wasnorm_wordpool_576.txt	LTP366	ltpFR2	0	13	ORCHID	982	n/a	n/a	0	0	0
3054.40478515625	n/a	REC_WORD	6255421	wordpools/wasnorm_wordpool_576.txt	LTP366	ltpFR2	0	13	SHORTBREAD	-1	n/a	n/a	0	0	0
3056.48681640625	n/a	REC_WORD	6259685	wordpools/wasnorm_wordpool_576.txt	LTP366	ltpFR2	0	13	SIBLING	1301	n/a	n/a	0	0	0
3060.45849609375	n/a	REC_WORD	6267819	wordpools/wasnorm_wordpool_576.txt	LTP366	ltpFR2	0	13	SLOPE	1328	n/a	n/a	0	0	0
3063.05419921875	n/a	REC_WORD	6273135	wordpools/wasnorm_wordpool_576.txt	LTP366	ltpFR2	0	13	PLAID	1080	n/a	n/a	0	0	0
3087.11474609375	n/a	REC_WORD	6322411	wordpools/wasnorm_wordpool_576.txt	LTP366	ltpFR2	0	13	SHORTCAKE	1292	n/a	n/a	0	0	0
3137.73046875	n/a	DISTRACTOR	6426072	n/a	LTP366	ltpFR2	0	14	n/a	n/a	n/a	n/a	0	0	0
3137.73046875	n/a	START	6426072	n/a	LTP366	ltpFR2	0	n/a	n/a	n/a	20	n/a	n/a	n/a	n/a
3137.74658203125	n/a	PROB	6426105	n/a	LTP366	ltpFR2	0	n/a	n/a	n/a	20	18	6	3	9
3139.51953125	n/a	PROB	6429736	n/a	LTP366	ltpFR2	0	n/a	n/a	n/a	20	20	6	7	7
3141.2412109375	n/a	PROB	6433262	n/a	LTP366	ltpFR2	0	n/a	n/a	n/a	20	12	5	1	6
3142.3955078125	n/a	PROB	6435626	n/a	LTP366	ltpFR2	0	n/a	n/a	n/a	20	10	3	2	5
3143.984375	n/a	PROB	6438880	n/a	LTP366	ltpFR2	0	n/a	n/a	n/a	20	17	7	5	5
3146.80908203125	n/a	PROB	6444665	n/a	LTP366	ltpFR2	0	n/a	n/a	n/a	20	9	6	1	2
3147.9970703125	n/a	PROB	6447098	n/a	LTP366	ltpFR2	0	n/a	n/a	n/a	20	12	5	1	6
3149.21728515625	n/a	PROB	6449597	n/a	LTP366	ltpFR2	0	n/a	n/a	n/a	20	23	6	9	8
3151.1572265625	n/a	PROB	6453570	n/a	LTP366	ltpFR2	0	n/a	n/a	n/a	20	14	5	6	3
3152.51123046875	n/a	PROB	6456343	n/a	LTP366	ltpFR2	0	n/a	n/a	n/a	20	7	2	4	1
3154.033203125	n/a	PROB	6459460	n/a	LTP366	ltpFR2	0	n/a	n/a	n/a	20	14	5	5	4
3155.1357421875	n/a	PROB	6461718	n/a	LTP366	ltpFR2	0	n/a	n/a	n/a	20	12	8	3	1
3156.32275390625	n/a	PROB	6464149	n/a	LTP366	ltpFR2	0	n/a	n/a	n/a	20	11	6	3	2
3158.44677734375	n/a	PROB	6468499	n/a	LTP366	ltpFR2	0	n/a	n/a	n/a	20	4	2	1	1
3159.3828125	n/a	PROB	6470416	n/a	LTP366	ltpFR2	0	n/a	n/a	n/a	20	13	2	6	5
3161.431640625	n/a	STOP	6474612	n/a	LTP366	ltpFR2	0	n/a	n/a	n/a	20	n/a	n/a	n/a	n/a
3162.5595703125	n/a	WORD	6476922	wordpools/wasnorm_wordpool_576.txt	LTP366	ltpFR2	0	14	GOBLIN	645	n/a	n/a	0	0	0
3165.05078125	n/a	WORD	6482024	wordpools/wasnorm_wordpool_576.txt	LTP366	ltpFR2	0	14	RECEIPT	1173	n/a	n/a	0	0	0
3167.79345703125	n/a	WORD	6487641	wordpools/wasnorm_wordpool_576.txt	LTP366	ltpFR2	0	14	NAPKIN	937	n/a	n/a	0	0	0
3170.435546875	n/a	WORD	6493052	wordpools/wasnorm_wordpool_576.txt	LTP366	ltpFR2	0	14	LADY	794	n/a	n/a	0	0	0
3172.90966796875	n/a	WORD	6498119	wordpools/wasnorm_wordpool_576.txt	LTP366	ltpFR2	0	14	HERO	706	n/a	n/a	0	0	0
3175.7021484375	n/a	WORD	6503838	wordpools/wasnorm_wordpool_576.txt	LTP366	ltpFR2	0	14	COFFEE	341	n/a	n/a	0	0	0
3178.27734375	n/a	WORD	6509112	wordpools/wasnorm_wordpool_576.txt	LTP366	ltpFR2	0	14	JUNGLE	764	n/a	n/a	0	0	0
3181.01904296875	n/a	WORD	6514727	wordpools/wasnorm_wordpool_576.txt	LTP366	ltpFR2	0	14	NECKLACE	940	n/a	n/a	0	0	0
3183.52734375	n/a	WORD	6519864	wordpools/wasnorm_wordpool_576.txt	LTP366	ltpFR2	0	14	DONKEY	484	n/a	n/a	0	0	0
3186.05224609375	n/a	WORD	6525035	wordpools/wasnorm_wordpool_576.txt	LTP366	ltpFR2	0	14	BOARD	143	n/a	n/a	0	0	0
3188.64404296875	n/a	WORD	6530343	wordpools/wasnorm_wordpool_576.txt	LTP366	ltpFR2	0	14	SKIRT	1319	n/a	n/a	0	0	0
3191.0849609375	n/a	WORD	6535342	wordpools/wasnorm_wordpool_576.txt	LTP366	ltpFR2	0	14	HANDBAG	684	n/a	n/a	0	0	0
3193.60986328125	n/a	WORD	6540513	wordpools/wasnorm_wordpool_576.txt	LTP366	ltpFR2	0	14	BARLEY	88	n/a	n/a	0	0	0
3196.23486328125	n/a	WORD	6545889	wordpools/wasnorm_wordpool_576.txt	LTP366	ltpFR2	0	14	SALT	1229	n/a	n/a	0	0	0
3198.94482421875	n/a	WORD	6551439	wordpools/wasnorm_wordpool_576.txt	LTP366	ltpFR2	0	14	COLONEL	348	n/a	n/a	0	0	0
3201.66845703125	n/a	WORD	6557017	wordpools/wasnorm_wordpool_576.txt	LTP366	ltpFR2	0	14	PATIENT	1024	n/a	n/a	0	0	0
3204.27783203125	n/a	WORD	6562361	wordpools/wasnorm_wordpool_576.txt	LTP366	ltpFR2	0	14	TAXI	1438	n/a	n/a	0	0	0
3207.03662109375	n/a	WORD	6568011	wordpools/wasnorm_wordpool_576.txt	LTP366	ltpFR2	0	14	BIKE	125	n/a	n/a	0	0	0
3209.62744140625	n/a	WORD	6573317	wordpools/wasnorm_wordpool_576.txt	LTP366	ltpFR2	0	14	BUGGY	188	n/a	n/a	0	0	0
3212.26953125	n/a	WORD	6578728	wordpools/wasnorm_wordpool_576.txt	LTP366	ltpFR2	0	14	STREAM	1392	n/a	n/a	0	0	0
3214.87841796875	n/a	WORD	6584071	wordpools/wasnorm_wordpool_576.txt	LTP366	ltpFR2	0	14	RAFT	1159	n/a	n/a	0	0	0
3217.43603515625	n/a	WORD	6589309	wordpools/wasnorm_wordpool_576.txt	LTP366	ltpFR2	0	14	ARMY	39	n/a	n/a	0	0	0
3220.1953125	n/a	WORD	6594960	wordpools/wasnorm_wordpool_576.txt	LTP366	ltpFR2	0	14	PISTOL	1075	n/a	n/a	0	0	0
3222.93798828125	n/a	WORD	6600577	wordpools/wasnorm_wordpool_576.txt	LTP366	ltpFR2	0	14	STALLION	1369	n/a	n/a	0	0	0
3224.54296875	n/a	START	6603864	n/a	LTP366	ltpFR2	0	n/a	n/a	n/a	21	n/a	n/a	n/a	n/a
3225.34423828125	n/a	DISTRACTOR	6605505	n/a	LTP366	ltpFR2	0	14	n/a	n/a	n/a	n/a	0	0	0
3225.34521484375	n/a	PROB	6605507	n/a	LTP366	ltpFR2	0	n/a	n/a	n/a	21	10	1	3	6
3226.81591796875	n/a	PROB	6608519	n/a	LTP366	ltpFR2	0	n/a	n/a	n/a	21	7	2	2	3
3228.30419921875	n/a	PROB	6611567	n/a	LTP366	ltpFR2	0	n/a	n/a	n/a	21	12	5	1	6
3229.64208984375	n/a	PROB	6614307	n/a	LTP366	ltpFR2	0	n/a	n/a	n/a	21	14	5	2	7
3232.45068359375	n/a	PROB	6620059	n/a	LTP366	ltpFR2	0	n/a	n/a	n/a	21	14	4	8	2
3234.005859375	n/a	PROB	6623244	n/a	LTP366	ltpFR2	0	n/a	n/a	n/a	21	17	6	8	3
3235.4609375	n/a	PROB	6626224	n/a	LTP366	ltpFR2	0	n/a	n/a	n/a	21	4	1	1	2
3236.380859375	n/a	PROB	6628108	n/a	LTP366	ltpFR2	0	n/a	n/a	n/a	21	19	5	5	9
3238.78759765625	n/a	PROB	6633037	n/a	LTP366	ltpFR2	0	n/a	n/a	n/a	21	26	9	7	9
3240.9296875	n/a	PROB	6637424	n/a	LTP366	ltpFR2	0	n/a	n/a	n/a	21	14	5	3	6
3243.28564453125	n/a	PROB	6642249	n/a	LTP366	ltpFR2	0	n/a	n/a	n/a	21	13	3	4	3
3245.40966796875	n/a	PROB	6646599	n/a	LTP366	ltpFR2	0	n/a	n/a	n/a	21	12	2	7	3
3247.57568359375	n/a	STOP	6651035	n/a	LTP366	ltpFR2	0	n/a	n/a	n/a	21	n/a	n/a	n/a	n/a
3250.42626953125	n/a	REC_START	6656873	n/a	LTP366	ltpFR2	0	14	n/a	n/a	n/a	n/a	0	0	0
3251.38916015625	n/a	REC_WORD	6658845	wordpools/wasnorm_wordpool_576.txt	LTP366	ltpFR2	0	14	BOARD	143	n/a	n/a	0	0	0
3252.4072265625	n/a	REC_WORD	6660930	wordpools/wasnorm_wordpool_576.txt	LTP366	ltpFR2	0	14	STALLION	1369	n/a	n/a	0	0	0
3253.29833984375	n/a	REC_WORD	6662755	wordpools/wasnorm_wordpool_576.txt	LTP366	ltpFR2	0	14	PISTOL	1075	n/a	n/a	0	0	0
3255.7451171875	n/a	REC_WORD	6667766	wordpools/wasnorm_wordpool_576.txt	LTP366	ltpFR2	0	14	ARMY	39	n/a	n/a	0	0	0
3257.79931640625	n/a	REC_WORD	6671973	wordpools/wasnorm_wordpool_576.txt	LTP366	ltpFR2	0	14	LADY	794	n/a	n/a	0	0	0
3259.0849609375	n/a	REC_WORD	6674606	wordpools/wasnorm_wordpool_576.txt	LTP366	ltpFR2	0	14	HANDBAG	684	n/a	n/a	0	0	0
3260.3740234375	n/a	REC_WORD	6677246	wordpools/wasnorm_wordpool_576.txt	LTP366	ltpFR2	0	14	SKIRT	1319	n/a	n/a	0	0	0
3275.48291015625	n/a	REC_WORD	6708189	wordpools/wasnorm_wordpool_576.txt	LTP366	ltpFR2	0	14	BARLEY	88	n/a	n/a	0	0	0
3276.9306640625	n/a	REC_WORD	6711154	wordpools/wasnorm_wordpool_576.txt	LTP366	ltpFR2	0	14	SALT	1229	n/a	n/a	0	0	0
3286.04638671875	n/a	REC_WORD	6729823	wordpools/wasnorm_wordpool_576.txt	LTP366	ltpFR2	0	14	COLONEL	348	n/a	n/a	0	0	0
3340.8828125	n/a	WORD	6842128	wordpools/wasnorm_wordpool_576.txt	LTP366	ltpFR2	0	15	SHERIFF	1284	n/a	n/a	0	0	0
3343.5908203125	n/a	WORD	6847674	wordpools/wasnorm_wordpool_576.txt	LTP366	ltpFR2	0	15	BODY	145	n/a	n/a	0	0	0
3346.06591796875	n/a	WORD	6852743	wordpools/wasnorm_wordpool_576.txt	LTP366	ltpFR2	0	15	PLATE	1086	n/a	n/a	0	0	0
3348.62353515625	n/a	WORD	6857981	wordpools/wasnorm_wordpool_576.txt	LTP366	ltpFR2	0	15	HOSTESS	723	n/a	n/a	0	0	0
3351.14892578125	n/a	WORD	6863153	wordpools/wasnorm_wordpool_576.txt	LTP366	ltpFR2	0	15	TURKEY	1520	n/a	n/a	0	0	0
3353.673828125	n/a	WORD	6868324	wordpools/wasnorm_wordpool_576.txt	LTP366	ltpFR2	0	15	CRIB	407	n/a	n/a	0	0	0
3356.24853515625	n/a	WORD	6873597	wordpools/wasnorm_wordpool_576.txt	LTP366	ltpFR2	0	15	YARN	1631	n/a	n/a	0	0	0
3358.7392578125	n/a	WORD	6878698	wordpools/wasnorm_wordpool_576.txt	LTP366	ltpFR2	0	15	PROTON	1132	n/a	n/a	0	0	0
3361.3486328125	n/a	WORD	6884042	wordpools/wasnorm_wordpool_576.txt	LTP366	ltpFR2	0	15	VIRUS	1572	n/a	n/a	0	0	0
3363.78955078125	n/a	WORD	6889041	wordpools/wasnorm_wordpool_576.txt	LTP366	ltpFR2	0	15	BRAKE	166	n/a	n/a	0	0	0
3366.43115234375	n/a	WORD	6894451	wordpools/wasnorm_wordpool_576.txt	LTP366	ltpFR2	0	15	BLOCKADE	137	n/a	n/a	0	0	0
3369.0732421875	n/a	WORD	6899862	wordpools/wasnorm_wordpool_576.txt	LTP366	ltpFR2	0	15	TERMITE	1451	n/a	n/a	0	0	0
3371.81494140625	n/a	WORD	6905477	wordpools/wasnorm_wordpool_576.txt	LTP366	ltpFR2	0	15	FRAGRANCE	599	n/a	n/a	0	0	0
3374.5068359375	n/a	WORD	6910990	wordpools/wasnorm_wordpool_576.txt	LTP366	ltpFR2	0	15	MILDEW	893	n/a	n/a	0	0	0
3376.9658203125	n/a	WORD	6916026	wordpools/wasnorm_wordpool_576.txt	LTP366	ltpFR2	0	15	WHISTLE	1606	n/a	n/a	0	0	0
3379.5068359375	n/a	WORD	6921230	wordpools/wasnorm_wordpool_576.txt	LTP366	ltpFR2	0	15	DAISY	435	n/a	n/a	0	0	0
3382.1318359375	n/a	WORD	6926606	wordpools/wasnorm_wordpool_576.txt	LTP366	ltpFR2	0	15	FINGER	567	n/a	n/a	0	0	0
3384.94189453125	n/a	WORD	6932361	wordpools/wasnorm_wordpool_576.txt	LTP366	ltpFR2	0	15	BROOK	177	n/a	n/a	0	0	0
3387.4658203125	n/a	WORD	6937530	wordpools/wasnorm_wordpool_576.txt	LTP366	ltpFR2	0	15	LEADER	807	n/a	n/a	0	0	0
3390.0576171875	n/a	WORD	6942838	wordpools/wasnorm_wordpool_576.txt	LTP366	ltpFR2	0	15	CABBAGE	210	n/a	n/a	0	0	0
3392.5654296875	n/a	WORD	6947974	wordpools/wasnorm_wordpool_576.txt	LTP366	ltpFR2	0	15	LAKE	796	n/a	n/a	0	0	0
3395.1904296875	n/a	WORD	6953350	wordpools/wasnorm_wordpool_576.txt	LTP366	ltpFR2	0	15	ISLAND	745	n/a	n/a	0	0	0
3397.8994140625	n/a	WORD	6958898	wordpools/wasnorm_wordpool_576.txt	LTP366	ltpFR2	0	15	NEUTRON	947	n/a	n/a	0	0	0
3400.4404296875	n/a	WORD	6964102	wordpools/wasnorm_wordpool_576.txt	LTP366	ltpFR2	0	15	PARROT	1015	n/a	n/a	0	0	0
3402.04638671875	n/a	START	6967391	n/a	LTP366	ltpFR2	0	n/a	n/a	n/a	22	n/a	n/a	n/a	n/a
3402.85546875	n/a	DISTRACTOR	6969048	n/a	LTP366	ltpFR2	0	15	n/a	n/a	n/a	n/a	0	0	0
3402.865234375	n/a	PROB	6969068	n/a	LTP366	ltpFR2	0	n/a	n/a	n/a	22	19	8	3	8
3404.43603515625	n/a	PROB	6972285	n/a	LTP366	ltpFR2	0	n/a	n/a	n/a	22	9	1	3	5
3405.67431640625	n/a	PROB	6974821	n/a	LTP366	ltpFR2	0	n/a	n/a	n/a	22	17	4	4	9
3407.3291015625	n/a	PROB	6978210	n/a	LTP366	ltpFR2	0	n/a	n/a	n/a	22	19	8	7	4
3408.7841796875	n/a	PROB	6981190	n/a	LTP366	ltpFR2	0	n/a	n/a	n/a	22	12	6	1	5
3410.13818359375	n/a	PROB	6983963	n/a	LTP366	ltpFR2	0	n/a	n/a	n/a	22	4	1	1	2
3411.05810546875	n/a	PROB	6985847	n/a	LTP366	ltpFR2	0	n/a	n/a	n/a	22	22	9	8	5
3412.37890625	n/a	PROB	6988552	n/a	LTP366	ltpFR2	0	n/a	n/a	n/a	22	13	3	9	1
3413.91796875	n/a	PROB	6991704	n/a	LTP366	ltpFR2	0	n/a	n/a	n/a	22	22	4	9	9
3416.5419921875	n/a	PROB	6997078	n/a	LTP366	ltpFR2	0	n/a	n/a	n/a	22	14	2	9	3
3417.81298828125	n/a	PROB	6999681	n/a	LTP366	ltpFR2	0	n/a	n/a	n/a	22	15	6	8	1
3419.03369140625	n/a	PROB	7002181	n/a	LTP366	ltpFR2	0	n/a	n/a	n/a	22	20	9	6	5
3421.40771484375	n/a	PROB	7007043	n/a	LTP366	ltpFR2	0	n/a	n/a	n/a	22	8	4	1	3
3422.6787109375	n/a	PROB	7009646	n/a	LTP366	ltpFR2	0	n/a	n/a	n/a	22	11	3	7	1
3423.765625	n/a	PROB	7011872	n/a	LTP366	ltpFR2	0	n/a	n/a	n/a	22	16	1	7	8
3425.27978515625	n/a	STOP	7014973	n/a	LTP366	ltpFR2	0	n/a	n/a	n/a	22	n/a	n/a	n/a	n/a
3427.9638671875	n/a	REC_START	7020470	n/a	LTP366	ltpFR2	0	15	n/a	n/a	n/a	n/a	0	0	0
3430.75341796875	n/a	REC_WORD	7026183	wordpools/wasnorm_wordpool_576.txt	LTP366	ltpFR2	0	15	PARROT	1015	n/a	n/a	0	0	0
3434.6162109375	n/a	REC_WORD	7034094	wordpools/wasnorm_wordpool_576.txt	LTP366	ltpFR2	0	15	HOSTESS	723	n/a	n/a	0	0	0
3439.17236328125	n/a	REC_WORD	7043425	wordpools/wasnorm_wordpool_576.txt	LTP366	ltpFR2	0	15	CABBAGE	210	n/a	n/a	0	0	0
3440.2724609375	n/a	REC_WORD	7045678	wordpools/wasnorm_wordpool_576.txt	LTP366	ltpFR2	0	15	LAKE	796	n/a	n/a	0	0	0
3444.47998046875	n/a	REC_WORD	7054295	wordpools/wasnorm_wordpool_576.txt	LTP366	ltpFR2	0	15	ISLAND	745	n/a	n/a	0	0	0
3449.4072265625	n/a	REC_WORD	7064386	wordpools/wasnorm_wordpool_576.txt	LTP366	ltpFR2	0	15	MILDEW	893	n/a	n/a	0	0	0
3450.85205078125	n/a	REC_WORD	7067345	wordpools/wasnorm_wordpool_576.txt	LTP366	ltpFR2	0	15	FRAGRANCE	599	n/a	n/a	0	0	0
3476.162109375	n/a	REC_WORD	7119180	wordpools/wasnorm_wordpool_576.txt	LTP366	ltpFR2	0	15	TURKEY	1520	n/a	n/a	0	0	0
3488.1171875	n/a	REC_WORD	7143664	wordpools/wasnorm_wordpool_576.txt	LTP366	ltpFR2	0	15	PARROT	1015	n/a	n/a	0	0	0
3493.6279296875	n/a	REC_WORD	7154950	wordpools/wasnorm_wordpool_576.txt	LTP366	ltpFR2	0	15	DINER	467	n/a	n/a	0	0	0
3501.638671875	n/a	REC_WORD	7171356	wordpools/wasnorm_wordpool_576.txt	LTP366	ltpFR2	0	15	CRIB	407	n/a	n/a	0	0	0
3518.4033203125	n/a	DISTRACTOR	7205690	n/a	LTP366	ltpFR2	0	16	n/a	n/a	n/a	n/a	0	0	0
3518.4033203125	n/a	START	7205690	n/a	LTP366	ltpFR2	0	n/a	n/a	n/a	23	n/a	n/a	n/a	n/a
3518.41943359375	n/a	PROB	7205723	n/a	LTP366	ltpFR2	0	n/a	n/a	n/a	23	11	1	7	3
3519.72314453125	n/a	PROB	7208393	n/a	LTP366	ltpFR2	0	n/a	n/a	n/a	23	9	1	6	2
3520.912109375	n/a	PROB	7210828	n/a	LTP366	ltpFR2	0	n/a	n/a	n/a	23	12	1	7	4
3522.03125	n/a	PROB	7213120	n/a	LTP366	ltpFR2	0	n/a	n/a	n/a	23	16	3	6	7
3524.322265625	n/a	PROB	7217812	n/a	LTP366	ltpFR2	0	n/a	n/a	n/a	23	8	1	1	6
3525.35791015625	n/a	PROB	7219933	n/a	LTP366	ltpFR2	0	n/a	n/a	n/a	23	17	6	4	7
3526.67919921875	n/a	PROB	7222639	n/a	LTP366	ltpFR2	0	n/a	n/a	n/a	23	14	8	2	4
3528.2177734375	n/a	PROB	7225790	n/a	LTP366	ltpFR2	0	n/a	n/a	n/a	23	16	4	4	8
3530.22412109375	n/a	PROB	7229899	n/a	LTP366	ltpFR2	0	n/a	n/a	n/a	23	13	5	3	5
3531.5947265625	n/a	PROB	7232706	n/a	LTP366	ltpFR2	0	n/a	n/a	n/a	23	16	1	8	7
3532.966796875	n/a	PROB	7235516	n/a	LTP366	ltpFR2	0	n/a	n/a	n/a	23	26	9	9	8
3534.45361328125	n/a	PROB	7238561	n/a	LTP366	ltpFR2	0	n/a	n/a	n/a	23	11	3	1	7
3535.5078125	n/a	PROB	7240720	n/a	LTP366	ltpFR2	0	n/a	n/a	n/a	23	25	9	9	7
3537.19677734375	n/a	PROB	7244179	n/a	LTP366	ltpFR2	0	n/a	n/a	n/a	23	14	3	3	8
3538.8017578125	n/a	PROB	7247466	n/a	LTP366	ltpFR2	0	n/a	n/a	n/a	23	14	3	2	8
3542.40234375	n/a	STOP	7254840	n/a	LTP366	ltpFR2	0	n/a	n/a	n/a	23	n/a	n/a	n/a	n/a
3543.31640625	n/a	WORD	7256712	wordpools/wasnorm_wordpool_576.txt	LTP366	ltpFR2	0	16	HONEY	713	n/a	n/a	0	0	0
3545.8076171875	n/a	WORD	7261814	wordpools/wasnorm_wordpool_576.txt	LTP366	ltpFR2	0	16	COIN	343	n/a	n/a	0	0	0
3548.29833984375	n/a	WORD	7266915	wordpools/wasnorm_wordpool_576.txt	LTP366	ltpFR2	0	16	SWITCH	1422	n/a	n/a	0	0	0
3550.84033203125	n/a	WORD	7272121	wordpools/wasnorm_wordpool_576.txt	LTP366	ltpFR2	0	16	COBRA	336	n/a	n/a	0	0	0
3553.46533203125	n/a	WORD	7277497	wordpools/wasnorm_wordpool_576.txt	LTP366	ltpFR2	0	16	STONE	1385	n/a	n/a	0	0	0
3555.9072265625	n/a	WORD	7282498	wordpools/wasnorm_wordpool_576.txt	LTP366	ltpFR2	0	16	KIDNEY	776	n/a	n/a	0	0	0
3558.46533203125	n/a	WORD	7287737	wordpools/wasnorm_wordpool_576.txt	LTP366	ltpFR2	0	16	JUDGE	761	n/a	n/a	0	0	0
3560.95703125	n/a	WORD	7292840	wordpools/wasnorm_wordpool_576.txt	LTP366	ltpFR2	0	16	WITNESS	1618	n/a	n/a	0	0	0
3563.630859375	n/a	WORD	7298316	wordpools/wasnorm_wordpool_576.txt	LTP366	ltpFR2	0	16	TOMBSTONE	1478	n/a	n/a	0	0	0
3566.0888671875	n/a	WORD	7303350	wordpools/wasnorm_wordpool_576.txt	LTP366	ltpFR2	0	16	PIGEON	1065	n/a	n/a	0	0	0
3568.81494140625	n/a	WORD	7308933	wordpools/wasnorm_wordpool_576.txt	LTP366	ltpFR2	0	16	BLACKBOARD	133	n/a	n/a	0	0	0
3571.52392578125	n/a	WORD	7314481	wordpools/wasnorm_wordpool_576.txt	LTP366	ltpFR2	0	16	SPACE	1345	n/a	n/a	0	0	0
3574.0478515625	n/a	WORD	7319650	wordpools/wasnorm_wordpool_576.txt	LTP366	ltpFR2	0	16	WASP	1593	n/a	n/a	0	0	0
3576.8564453125	n/a	WORD	7325402	wordpools/wasnorm_wordpool_576.txt	LTP366	ltpFR2	0	16	CASKET	255	n/a	n/a	0	0	0
3579.314453125	n/a	WORD	7330436	wordpools/wasnorm_wordpool_576.txt	LTP366	ltpFR2	0	16	PASTA	1021	n/a	n/a	0	0	0
3581.94140625	n/a	WORD	7335816	wordpools/wasnorm_wordpool_576.txt	LTP366	ltpFR2	0	16	TABLE	1426	n/a	n/a	0	0	0
3584.38134765625	n/a	WORD	7340813	wordpools/wasnorm_wordpool_576.txt	LTP366	ltpFR2	0	16	COD	340	n/a	n/a	0	0	0
3586.95751953125	n/a	WORD	7346089	wordpools/wasnorm_wordpool_576.txt	LTP366	ltpFR2	0	16	STAR	1373	n/a	n/a	0	0	0
3589.41455078125	n/a	WORD	7351121	wordpools/wasnorm_wordpool_576.txt	LTP366	ltpFR2	0	16	EGYPT	519	n/a	n/a	0	0	0
3592.00634765625	n/a	WORD	7356429	wordpools/wasnorm_wordpool_576.txt	LTP366	ltpFR2	0	16	LETTUCE	814	n/a	n/a	0	0	0
3594.6982421875	n/a	WORD	7361942	wordpools/wasnorm_wordpool_576.txt	LTP366	ltpFR2	0	16	NURSE	963	n/a	n/a	0	0	0
3597.18896484375	n/a	WORD	7367043	wordpools/wasnorm_wordpool_576.txt	LTP366	ltpFR2	0	16	CHEST	295	n/a	n/a	0	0	0
3599.84814453125	n/a	WORD	7372489	wordpools/wasnorm_wordpool_576.txt	LTP366	ltpFR2	0	16	PISTON	1076	n/a	n/a	0	0	0
3602.3388671875	n/a	WORD	7377590	wordpools/wasnorm_wordpool_576.txt	LTP366	ltpFR2	0	16	CATCHER	258	n/a	n/a	0	0	0
3603.94580078125	n/a	START	7380881	n/a	LTP366	ltpFR2	0	n/a	n/a	n/a	24	n/a	n/a	n/a	n/a
3604.8017578125	n/a	DISTRACTOR	7382634	n/a	LTP366	ltpFR2	0	16	n/a	n/a	n/a	n/a	0	0	0
3604.830078125	n/a	PROB	7382692	n/a	LTP366	ltpFR2	0	n/a	n/a	n/a	24	11	1	4	6
3606.31884765625	n/a	PROB	7385741	n/a	LTP366	ltpFR2	0	n/a	n/a	n/a	24	14	3	8	3
3608.458984375	n/a	PROB	7390124	n/a	LTP366	ltpFR2	0	n/a	n/a	n/a	24	18	3	9	6
3611.05078125	n/a	PROB	7395432	n/a	LTP366	ltpFR2	0	n/a	n/a	n/a	24	15	5	2	8
3613.70849609375	n/a	PROB	7400875	n/a	LTP366	ltpFR2	0	n/a	n/a	n/a	24	16	8	1	7
3616.41748046875	n/a	PROB	7406423	n/a	LTP366	ltpFR2	0	n/a	n/a	n/a	24	8	1	2	5
3617.638671875	n/a	PROB	7408924	n/a	LTP366	ltpFR2	0	n/a	n/a	n/a	24	14	3	2	9
3619.025390625	n/a	PROB	7411764	n/a	LTP366	ltpFR2	0	n/a	n/a	n/a	24	22	9	9	4
3622.72119140625	n/a	PROB	7419333	n/a	LTP366	ltpFR2	0	n/a	n/a	n/a	24	18	9	2	7
3624.2421875	n/a	PROB	7422448	n/a	LTP366	ltpFR2	0	n/a	n/a	n/a	24	12	1	7	4
3625.4462890625	n/a	PROB	7424914	n/a	LTP366	ltpFR2	0	n/a	n/a	n/a	24	15	8	1	6
3626.6962890625	n/a	STOP	7427474	n/a	LTP366	ltpFR2	0	n/a	n/a	n/a	24	n/a	n/a	n/a	n/a
3629.81103515625	n/a	REC_START	7433853	n/a	LTP366	ltpFR2	0	16	n/a	n/a	n/a	n/a	0	0	0
3631.447265625	n/a	REC_WORD	7437204	wordpools/wasnorm_wordpool_576.txt	LTP366	ltpFR2	0	16	PISTON	1076	n/a	n/a	0	0	0
3633.494140625	n/a	REC_WORD	7441396	wordpools/wasnorm_wordpool_576.txt	LTP366	ltpFR2	0	16	NURSE	963	n/a	n/a	0	0	0
3636.68994140625	n/a	REC_WORD	7447941	wordpools/wasnorm_wordpool_576.txt	LTP366	ltpFR2	0	16	LETTUCE	814	n/a	n/a	0	0	0
3643.4697265625	n/a	REC_WORD	7461826	wordpools/wasnorm_wordpool_576.txt	LTP366	ltpFR2	0	16	COD	340	n/a	n/a	0	0	0
3649.513671875	n/a	REC_WORD	7474204	wordpools/wasnorm_wordpool_576.txt	LTP366	ltpFR2	0	16	COBRA	336	n/a	n/a	0	0	0
3657.0625	n/a	REC_WORD	7489664	wordpools/wasnorm_wordpool_576.txt	LTP366	ltpFR2	0	16	CASKET	255	n/a	n/a	0	0	0
3659.529296875	n/a	REC_WORD	7494716	wordpools/wasnorm_wordpool_576.txt	LTP366	ltpFR2	0	16	WHISPER	-1	n/a	n/a	0	0	0
3670.53515625	n/a	REC_WORD	7517256	wordpools/wasnorm_wordpool_576.txt	LTP366	ltpFR2	0	16	TOMBSTONE	1478	n/a	n/a	0	0	0
3700.697265625	n/a	REC_WORD	7579028	wordpools/wasnorm_wordpool_576.txt	LTP366	ltpFR2	0	16	COIN	343	n/a	n/a	0	0	0
3706.34033203125	n/a	REST_REWET	7590585	n/a	LTP366	ltpFR2	0	16	n/a	n/a	n/a	n/a	0	0	0
3807.13037109375	n/a	DISTRACTOR	7797003	n/a	LTP366	ltpFR2	0	17	n/a	n/a	n/a	n/a	0	0	0
3807.13037109375	n/a	START	7797003	n/a	LTP366	ltpFR2	0	n/a	n/a	n/a	25	n/a	n/a	n/a	n/a
3807.146484375	n/a	PROB	7797036	n/a	LTP366	ltpFR2	0	n/a	n/a	n/a	25	16	1	9	6
3808.75244140625	n/a	PROB	7800325	n/a	LTP366	ltpFR2	0	n/a	n/a	n/a	25	18	6	4	8
3810.00634765625	n/a	PROB	7802893	n/a	LTP366	ltpFR2	0	n/a	n/a	n/a	25	15	7	2	6
3813.701171875	n/a	PROB	7810460	n/a	LTP366	ltpFR2	0	n/a	n/a	n/a	25	10	2	3	5
3815.17236328125	n/a	PROB	7813473	n/a	LTP366	ltpFR2	0	n/a	n/a	n/a	25	14	2	8	4
3816.81103515625	n/a	PROB	7816829	n/a	LTP366	ltpFR2	0	n/a	n/a	n/a	25	15	7	7	1
3817.96630859375	n/a	PROB	7819195	n/a	LTP366	ltpFR2	0	n/a	n/a	n/a	25	13	6	1	6
3819.669921875	n/a	PROB	7822684	n/a	LTP366	ltpFR2	0	n/a	n/a	n/a	25	12	5	2	5
3820.8740234375	n/a	PROB	7825150	n/a	LTP366	ltpFR2	0	n/a	n/a	n/a	25	14	1	8	5
3822.11083984375	n/a	PROB	7827683	n/a	LTP366	ltpFR2	0	n/a	n/a	n/a	25	16	3	7	6
3823.34912109375	n/a	PROB	7830219	n/a	LTP366	ltpFR2	0	n/a	n/a	n/a	25	12	1	2	9
3824.5859375	n/a	PROB	7832752	n/a	LTP366	ltpFR2	0	n/a	n/a	n/a	25	20	5	8	7
3827.11083984375	n/a	PROB	7837923	n/a	LTP366	ltpFR2	0	n/a	n/a	n/a	25	9	3	1	5
3828.248046875	n/a	PROB	7840252	n/a	LTP366	ltpFR2	0	n/a	n/a	n/a	25	15	4	2	7
3829.90576171875	n/a	STOP	7843647	n/a	LTP366	ltpFR2	0	n/a	n/a	n/a	25	n/a	n/a	n/a	n/a
3831.9609375	n/a	WORD	7847856	wordpools/wasnorm_wordpool_576.txt	LTP366	ltpFR2	0	17	CARROT	249	n/a	n/a	0	0	0
3834.73583984375	n/a	WORD	7853539	wordpools/wasnorm_wordpool_576.txt	LTP366	ltpFR2	0	17	DIME	466	n/a	n/a	0	0	0
3837.427734375	n/a	WORD	7859052	wordpools/wasnorm_wordpool_576.txt	LTP366	ltpFR2	0	17	COWBOY	395	n/a	n/a	0	0	0
3840.1025390625	n/a	WORD	7864530	wordpools/wasnorm_wordpool_576.txt	LTP366	ltpFR2	0	17	BURGLAR	200	n/a	n/a	0	0	0
3842.66064453125	n/a	WORD	7869769	wordpools/wasnorm_wordpool_576.txt	LTP366	ltpFR2	0	17	DAUGHTER	442	n/a	n/a	0	0	0
3845.11865234375	n/a	WORD	7874803	wordpools/wasnorm_wordpool_576.txt	LTP366	ltpFR2	0	17	TRIBE	1505	n/a	n/a	0	0	0
3847.71044921875	n/a	WORD	7880111	wordpools/wasnorm_wordpool_576.txt	LTP366	ltpFR2	0	17	CRUTCH	417	n/a	n/a	0	0	0
3850.50244140625	n/a	WORD	7885829	wordpools/wasnorm_wordpool_576.txt	LTP366	ltpFR2	0	17	LIPSTICK	829	n/a	n/a	0	0	0
3853.22802734375	n/a	WORD	7891411	wordpools/wasnorm_wordpool_576.txt	LTP366	ltpFR2	0	17	POPCORN	1104	n/a	n/a	0	0	0
3855.85302734375	n/a	WORD	7896787	wordpools/wasnorm_wordpool_576.txt	LTP366	ltpFR2	0	17	CASHEW	253	n/a	n/a	0	0	0
3858.2939453125	n/a	WORD	7901786	wordpools/wasnorm_wordpool_576.txt	LTP366	ltpFR2	0	17	SUMMIT	1405	n/a	n/a	0	0	0
3860.81884765625	n/a	WORD	7906957	wordpools/wasnorm_wordpool_576.txt	LTP366	ltpFR2	0	17	SHELF	1280	n/a	n/a	0	0	0
3863.578125	n/a	WORD	7912608	wordpools/wasnorm_wordpool_576.txt	LTP366	ltpFR2	0	17	KITCHEN	778	n/a	n/a	0	0	0
3866.15283203125	n/a	WORD	7917881	wordpools/wasnorm_wordpool_576.txt	LTP366	ltpFR2	0	17	MOTOR	922	n/a	n/a	0	0	0
3868.7109375	n/a	WORD	7923120	wordpools/wasnorm_wordpool_576.txt	LTP366	ltpFR2	0	17	WAGON	1578	n/a	n/a	0	0	0
3871.51953125	n/a	WORD	7928872	wordpools/wasnorm_wordpool_576.txt	LTP366	ltpFR2	0	17	NOTEBOOK	959	n/a	n/a	0	0	0
3874.0947265625	n/a	WORD	7934146	wordpools/wasnorm_wordpool_576.txt	LTP366	ltpFR2	0	17	BINDER	127	n/a	n/a	0	0	0
3876.82080078125	n/a	WORD	7939729	wordpools/wasnorm_wordpool_576.txt	LTP366	ltpFR2	0	17	SERVANT	1271	n/a	n/a	0	0	0
3879.24462890625	n/a	WORD	7944693	wordpools/wasnorm_wordpool_576.txt	LTP366	ltpFR2	0	17	GUITAR	670	n/a	n/a	0	0	0
3881.8203125	n/a	WORD	7949968	wordpools/wasnorm_wordpool_576.txt	LTP366	ltpFR2	0	17	PLAYGROUND	1087	n/a	n/a	0	0	0
3884.51123046875	n/a	WORD	7955479	wordpools/wasnorm_wordpool_576.txt	LTP366	ltpFR2	0	17	COOKBOOK	373	n/a	n/a	0	0	0
3887.103515625	n/a	WORD	7960788	wordpools/wasnorm_wordpool_576.txt	LTP366	ltpFR2	0	17	BANK	83	n/a	n/a	0	0	0
3889.5283203125	n/a	WORD	7965754	wordpools/wasnorm_wordpool_576.txt	LTP366	ltpFR2	0	17	CASHIER	254	n/a	n/a	0	0	0
3891.986328125	n/a	WORD	7970788	wordpools/wasnorm_wordpool_576.txt	LTP366	ltpFR2	0	17	PUPPY	1144	n/a	n/a	0	0	0
3893.59130859375	n/a	START	7974075	n/a	LTP366	ltpFR2	0	n/a	n/a	n/a	26	n/a	n/a	n/a	n/a
3894.42822265625	n/a	DISTRACTOR	7975789	n/a	LTP366	ltpFR2	0	17	n/a	n/a	n/a	n/a	0	0	0
3894.4443359375	n/a	PROB	7975822	n/a	LTP366	ltpFR2	0	n/a	n/a	n/a	26	12	6	2	4
3897.13623046875	n/a	PROB	7981335	n/a	LTP366	ltpFR2	0	n/a	n/a	n/a	26	12	3	2	7
3898.60693359375	n/a	PROB	7984347	n/a	LTP366	ltpFR2	0	n/a	n/a	n/a	26	15	1	5	9
3900.09521484375	n/a	PROB	7987395	n/a	LTP366	ltpFR2	0	n/a	n/a	n/a	26	15	7	3	5
3901.64990234375	n/a	PROB	7990579	n/a	LTP366	ltpFR2	0	n/a	n/a	n/a	26	16	2	8	6
3903.3388671875	n/a	PROB	7994038	n/a	LTP366	ltpFR2	0	n/a	n/a	n/a	26	21	9	3	9
3905.02783203125	n/a	PROB	7997497	n/a	LTP366	ltpFR2	0	n/a	n/a	n/a	26	13	4	3	6
3906.3486328125	n/a	PROB	8000202	n/a	LTP366	ltpFR2	0	n/a	n/a	n/a	26	9	3	3	3
3907.36865234375	n/a	PROB	8002291	n/a	LTP366	ltpFR2	0	n/a	n/a	n/a	26	13	8	4	1
3908.82373046875	n/a	PROB	8005271	n/a	LTP366	ltpFR2	0	n/a	n/a	n/a	26	17	4	7	6
3910.44580078125	n/a	PROB	8008593	n/a	LTP366	ltpFR2	0	n/a	n/a	n/a	26	21	2	9	9
3913.521484375	n/a	PROB	8014892	n/a	LTP366	ltpFR2	0	n/a	n/a	n/a	26	18	3	8	7
3916.48876953125	n/a	STOP	8020969	n/a	LTP366	ltpFR2	0	n/a	n/a	n/a	26	n/a	n/a	n/a	n/a
3919.4755859375	n/a	REC_START	8027086	n/a	LTP366	ltpFR2	0	17	n/a	n/a	n/a	n/a	0	0	0
3920.3095703125	n/a	REC_WORD	8028794	wordpools/wasnorm_wordpool_576.txt	LTP366	ltpFR2	0	17	CASHEW	253	n/a	n/a	0	0	0
3923.619140625	n/a	REC_WORD	8035572	wordpools/wasnorm_wordpool_576.txt	LTP366	ltpFR2	0	17	GUITAR	670	n/a	n/a	0	0	0
3924.37646484375	n/a	REC_WORD	8037123	wordpools/wasnorm_wordpool_576.txt	LTP366	ltpFR2	0	17	SERVANT	1271	n/a	n/a	0	0	0
3926.58740234375	n/a	REC_WORD	8041651	wordpools/wasnorm_wordpool_576.txt	LTP366	ltpFR2	0	17	DAUGHTER	442	n/a	n/a	0	0	0
3963.50244140625	n/a	REC_WORD	8117253	wordpools/wasnorm_wordpool_576.txt	LTP366	ltpFR2	0	17	COOKBOOK	373	n/a	n/a	0	0	0
