mstime	trial_type	stim_file	subject	experiment	session	trial	task	item_name	item_num	recog_resp	recog_conf	resp	answer	test_x	test_y	test_z	color_r	color_g	color_b	case	font
0	SESS_START	n/a	LTP193	ltpFR	10	n/a	n/a	n/a	n/a	0	1	n/a	n/a	0	0	0	n/a	n/a	n/a	n/a	n/a
18289	START	n/a	LTP193	ltpFR	10	n/a	n/a	n/a	n/a	n/a	n/a	n/a	n/a	n/a	n/a	n/a	n/a	n/a	n/a	n/a	n/a
18321	PROB	n/a	LTP193	ltpFR	10	n/a	n/a	n/a	n/a	n/a	n/a	n/a	9	6	2	1	n/a	n/a	n/a	n/a	n/a
19868	PROB	n/a	LTP193	ltpFR	10	n/a	n/a	n/a	n/a	n/a	n/a	n/a	20	9	3	8	n/a	n/a	n/a	n/a	n/a
21948	PROB	n/a	LTP193	ltpFR	10	n/a	n/a	n/a	n/a	n/a	n/a	n/a	16	1	6	9	n/a	n/a	n/a	n/a	n/a
23148	PROB	n/a	LTP193	ltpFR	10	n/a	n/a	n/a	n/a	n/a	n/a	n/a	21	9	4	8	n/a	n/a	n/a	n/a	n/a
24777	PROB	n/a	LTP193	ltpFR	10	n/a	n/a	n/a	n/a	n/a	n/a	n/a	19	7	4	8	n/a	n/a	n/a	n/a	n/a
26077	PROB	n/a	LTP193	ltpFR	10	n/a	n/a	n/a	n/a	n/a	n/a	n/a	12	3	1	8	n/a	n/a	n/a	n/a	n/a
28006	PROB	n/a	LTP193	ltpFR	10	n/a	n/a	n/a	n/a	n/a	n/a	n/a	11	2	4	5	n/a	n/a	n/a	n/a	n/a
29355	PROB	n/a	LTP193	ltpFR	10	n/a	n/a	n/a	n/a	n/a	n/a	n/a	21	4	9	8	n/a	n/a	n/a	n/a	n/a
30868	PROB	n/a	LTP193	ltpFR	10	n/a	n/a	n/a	n/a	n/a	n/a	n/a	22	8	5	9	n/a	n/a	n/a	n/a	n/a
33432	PROB	n/a	LTP193	ltpFR	10	n/a	n/a	n/a	n/a	n/a	n/a	n/a	13	7	4	2	n/a	n/a	n/a	n/a	n/a
35012	PROB	n/a	LTP193	ltpFR	10	n/a	n/a	n/a	n/a	n/a	n/a	n/a	18	9	6	3	n/a	n/a	n/a	n/a	n/a
37166	STOP	n/a	LTP193	ltpFR	10	n/a	n/a	n/a	n/a	n/a	n/a	n/a	n/a	n/a	n/a	n/a	n/a	n/a	n/a	n/a	n/a
60243	START	n/a	LTP193	ltpFR	10	n/a	n/a	n/a	n/a	n/a	n/a	n/a	n/a	n/a	n/a	n/a	n/a	n/a	n/a	n/a	n/a
61756	PROB	n/a	LTP193	ltpFR	10	n/a	n/a	n/a	n/a	n/a	n/a	n/a	7	3	1	3	n/a	n/a	n/a	n/a	n/a
63486	PROB	n/a	LTP193	ltpFR	10	n/a	n/a	n/a	n/a	n/a	n/a	n/a	17	1	9	7	n/a	n/a	n/a	n/a	n/a
64685	PROB	n/a	LTP193	ltpFR	10	n/a	n/a	n/a	n/a	n/a	n/a	n/a	13	3	3	7	n/a	n/a	n/a	n/a	n/a
65866	PROB	n/a	LTP193	ltpFR	10	n/a	n/a	n/a	n/a	n/a	n/a	n/a	12	1	9	2	n/a	n/a	n/a	n/a	n/a
66861	STOP	n/a	LTP193	ltpFR	10	n/a	n/a	n/a	n/a	n/a	n/a	n/a	n/a	n/a	n/a	n/a	n/a	n/a	n/a	n/a	n/a
69279	WORD	wordpools/wasnorm_wordpool_less_exclusions.txt	LTP193	ltpFR	10	1	1	HANDKERCHIEF	686	0	n/a	0	n/a	0	0	0	0.57763671875	0.412841796875	1	upper	amplitud.ttf
72291	START	n/a	LTP193	ltpFR	10	n/a	n/a	n/a	n/a	n/a	n/a	n/a	n/a	n/a	n/a	n/a	n/a	n/a	n/a	n/a	n/a
73406	PROB	n/a	LTP193	ltpFR	10	n/a	n/a	n/a	n/a	n/a	n/a	n/a	16	6	1	9	n/a	n/a	n/a	n/a	n/a
74670	PROB	n/a	LTP193	ltpFR	10	n/a	n/a	n/a	n/a	n/a	n/a	n/a	12	8	1	3	n/a	n/a	n/a	n/a	n/a
76302	PROB	n/a	LTP193	ltpFR	10	n/a	n/a	n/a	n/a	n/a	n/a	n/a	12	4	3	5	n/a	n/a	n/a	n/a	n/a
77748	PROB	n/a	LTP193	ltpFR	10	n/a	n/a	n/a	n/a	n/a	n/a	n/a	20	9	3	8	n/a	n/a	n/a	n/a	n/a
79581	STOP	n/a	LTP193	ltpFR	10	n/a	n/a	n/a	n/a	n/a	n/a	n/a	n/a	n/a	n/a	n/a	n/a	n/a	n/a	n/a	n/a
81344	WORD	wordpools/wasnorm_wordpool_less_exclusions.txt	LTP193	ltpFR	10	1	1	NOSE	957	n/a	n/a	0	n/a	0	0	0	0.57763671875	0.412841796875	1	upper	amplitud.ttf
84357	START	n/a	LTP193	ltpFR	10	n/a	n/a	n/a	n/a	n/a	n/a	n/a	n/a	n/a	n/a	n/a	n/a	n/a	n/a	n/a	n/a
85221	PROB	n/a	LTP193	ltpFR	10	n/a	n/a	n/a	n/a	n/a	n/a	n/a	19	9	4	6	n/a	n/a	n/a	n/a	n/a
86685	PROB	n/a	LTP193	ltpFR	10	n/a	n/a	n/a	n/a	n/a	n/a	n/a	16	6	8	2	n/a	n/a	n/a	n/a	n/a
88117	PROB	n/a	LTP193	ltpFR	10	n/a	n/a	n/a	n/a	n/a	n/a	n/a	9	1	3	5	n/a	n/a	n/a	n/a	n/a
89432	PROB	n/a	LTP193	ltpFR	10	n/a	n/a	n/a	n/a	n/a	n/a	n/a	22	8	7	9	n/a	n/a	n/a	n/a	n/a
91254	STOP	n/a	LTP193	ltpFR	10	n/a	n/a	n/a	n/a	n/a	n/a	n/a	n/a	n/a	n/a	n/a	n/a	n/a	n/a	n/a	n/a
93458	WORD	wordpools/wasnorm_wordpool_less_exclusions.txt	LTP193	ltpFR	10	1	1	REGISTER	1180	n/a	n/a	0	n/a	0	0	0	0.57763671875	0.412841796875	1	upper	amplitud.ttf
96471	START	n/a	LTP193	ltpFR	10	n/a	n/a	n/a	n/a	n/a	n/a	n/a	n/a	n/a	n/a	n/a	n/a	n/a	n/a	n/a	n/a
97602	PROB	n/a	LTP193	ltpFR	10	n/a	n/a	n/a	n/a	n/a	n/a	n/a	13	5	4	4	n/a	n/a	n/a	n/a	n/a
99716	PROB	n/a	LTP193	ltpFR	10	n/a	n/a	n/a	n/a	n/a	n/a	n/a	18	2	7	9	n/a	n/a	n/a	n/a	n/a
100980	PROB	n/a	LTP193	ltpFR	10	n/a	n/a	n/a	n/a	n/a	n/a	n/a	19	8	8	3	n/a	n/a	n/a	n/a	n/a
102461	PROB	n/a	LTP193	ltpFR	10	n/a	n/a	n/a	n/a	n/a	n/a	n/a	16	6	3	7	n/a	n/a	n/a	n/a	n/a
103557	STOP	n/a	LTP193	ltpFR	10	n/a	n/a	n/a	n/a	n/a	n/a	n/a	n/a	n/a	n/a	n/a	n/a	n/a	n/a	n/a	n/a
105308	WORD	wordpools/wasnorm_wordpool_less_exclusions.txt	LTP193	ltpFR	10	1	1	CHEDDAR	286	n/a	n/a	0	n/a	0	0	0	0.57763671875	0.412841796875	1	upper	amplitud.ttf
108321	START	n/a	LTP193	ltpFR	10	n/a	n/a	n/a	n/a	n/a	n/a	n/a	n/a	n/a	n/a	n/a	n/a	n/a	n/a	n/a	n/a
109352	PROB	n/a	LTP193	ltpFR	10	n/a	n/a	n/a	n/a	n/a	n/a	n/a	10	1	3	6	n/a	n/a	n/a	n/a	n/a
110516	PROB	n/a	LTP193	ltpFR	10	n/a	n/a	n/a	n/a	n/a	n/a	n/a	8	1	2	5	n/a	n/a	n/a	n/a	n/a
111864	PROB	n/a	LTP193	ltpFR	10	n/a	n/a	n/a	n/a	n/a	n/a	n/a	14	7	6	1	n/a	n/a	n/a	n/a	n/a
113330	PROB	n/a	LTP193	ltpFR	10	n/a	n/a	n/a	n/a	n/a	n/a	n/a	15	3	4	8	n/a	n/a	n/a	n/a	n/a
115414	STOP	n/a	LTP193	ltpFR	10	n/a	n/a	n/a	n/a	n/a	n/a	n/a	n/a	n/a	n/a	n/a	n/a	n/a	n/a	n/a	n/a
117357	WORD	wordpools/wasnorm_wordpool_less_exclusions.txt	LTP193	ltpFR	10	1	1	LOBSTER	837	n/a	n/a	1	n/a	0	0	0	0.57763671875	0.412841796875	1	upper	amplitud.ttf
120370	START	n/a	LTP193	ltpFR	10	n/a	n/a	n/a	n/a	n/a	n/a	n/a	n/a	n/a	n/a	n/a	n/a	n/a	n/a	n/a	n/a
121401	PROB	n/a	LTP193	ltpFR	10	n/a	n/a	n/a	n/a	n/a	n/a	n/a	17	8	4	5	n/a	n/a	n/a	n/a	n/a
122981	PROB	n/a	LTP193	ltpFR	10	n/a	n/a	n/a	n/a	n/a	n/a	n/a	23	8	7	8	n/a	n/a	n/a	n/a	n/a
125477	PROB	n/a	LTP193	ltpFR	10	n/a	n/a	n/a	n/a	n/a	n/a	n/a	11	2	8	1	n/a	n/a	n/a	n/a	n/a
126759	PROB	n/a	LTP193	ltpFR	10	n/a	n/a	n/a	n/a	n/a	n/a	n/a	17	9	5	3	n/a	n/a	n/a	n/a	n/a
128222	STOP	n/a	LTP193	ltpFR	10	n/a	n/a	n/a	n/a	n/a	n/a	n/a	n/a	n/a	n/a	n/a	n/a	n/a	n/a	n/a	n/a
129256	WORD	wordpools/wasnorm_wordpool_less_exclusions.txt	LTP193	ltpFR	10	1	1	CLIMBER	323	n/a	n/a	0	n/a	0	0	0	0.57763671875	0.412841796875	1	upper	amplitud.ttf
132268	START	n/a	LTP193	ltpFR	10	n/a	n/a	n/a	n/a	n/a	n/a	n/a	n/a	n/a	n/a	n/a	n/a	n/a	n/a	n/a	n/a
133233	PROB	n/a	LTP193	ltpFR	10	n/a	n/a	n/a	n/a	n/a	n/a	n/a	22	9	4	9	n/a	n/a	n/a	n/a	n/a
135213	PROB	n/a	LTP193	ltpFR	10	n/a	n/a	n/a	n/a	n/a	n/a	n/a	24	8	7	9	n/a	n/a	n/a	n/a	n/a
137725	PROB	n/a	LTP193	ltpFR	10	n/a	n/a	n/a	n/a	n/a	n/a	n/a	19	8	4	7	n/a	n/a	n/a	n/a	n/a
139029	STOP	n/a	LTP193	ltpFR	10	n/a	n/a	n/a	n/a	n/a	n/a	n/a	n/a	n/a	n/a	n/a	n/a	n/a	n/a	n/a	n/a
141238	WORD	wordpools/wasnorm_wordpool_less_exclusions.txt	LTP193	ltpFR	10	1	1	OFFICE	972	n/a	n/a	0	n/a	0	0	0	0.57763671875	0.412841796875	1	upper	amplitud.ttf
144250	START	n/a	LTP193	ltpFR	10	n/a	n/a	n/a	n/a	n/a	n/a	n/a	n/a	n/a	n/a	n/a	n/a	n/a	n/a	n/a	n/a
145415	PROB	n/a	LTP193	ltpFR	10	n/a	n/a	n/a	n/a	n/a	n/a	n/a	11	4	3	4	n/a	n/a	n/a	n/a	n/a
147262	PROB	n/a	LTP193	ltpFR	10	n/a	n/a	n/a	n/a	n/a	n/a	n/a	23	5	9	9	n/a	n/a	n/a	n/a	n/a
149807	PROB	n/a	LTP193	ltpFR	10	n/a	n/a	n/a	n/a	n/a	n/a	n/a	14	2	5	6	n/a	n/a	n/a	n/a	n/a
151334	STOP	n/a	LTP193	ltpFR	10	n/a	n/a	n/a	n/a	n/a	n/a	n/a	n/a	n/a	n/a	n/a	n/a	n/a	n/a	n/a	n/a
153386	WORD	wordpools/wasnorm_wordpool_less_exclusions.txt	LTP193	ltpFR	10	1	1	ORANGE	980	n/a	n/a	0	n/a	0	0	0	0.57763671875	0.412841796875	1	upper	amplitud.ttf
156399	START	n/a	LTP193	ltpFR	10	n/a	n/a	n/a	n/a	n/a	n/a	n/a	n/a	n/a	n/a	n/a	n/a	n/a	n/a	n/a	n/a
157513	PROB	n/a	LTP193	ltpFR	10	n/a	n/a	n/a	n/a	n/a	n/a	n/a	19	6	7	6	n/a	n/a	n/a	n/a	n/a
159842	PROB	n/a	LTP193	ltpFR	10	n/a	n/a	n/a	n/a	n/a	n/a	n/a	4	1	1	2	n/a	n/a	n/a	n/a	n/a
160891	PROB	n/a	LTP193	ltpFR	10	n/a	n/a	n/a	n/a	n/a	n/a	n/a	6	2	3	1	n/a	n/a	n/a	n/a	n/a
161823	PROB	n/a	LTP193	ltpFR	10	n/a	n/a	n/a	n/a	n/a	n/a	n/a	11	3	5	2	n/a	n/a	n/a	n/a	n/a
163677	STOP	n/a	LTP193	ltpFR	10	n/a	n/a	n/a	n/a	n/a	n/a	n/a	n/a	n/a	n/a	n/a	n/a	n/a	n/a	n/a	n/a
165319	WORD	wordpools/wasnorm_wordpool_less_exclusions.txt	LTP193	ltpFR	10	1	1	KIWI	781	n/a	n/a	0	n/a	0	0	0	0.57763671875	0.412841796875	1	upper	amplitud.ttf
168331	START	n/a	LTP193	ltpFR	10	n/a	n/a	n/a	n/a	n/a	n/a	n/a	n/a	n/a	n/a	n/a	n/a	n/a	n/a	n/a	n/a
169528	PROB	n/a	LTP193	ltpFR	10	n/a	n/a	n/a	n/a	n/a	n/a	n/a	18	7	8	3	n/a	n/a	n/a	n/a	n/a
172425	PROB	n/a	LTP193	ltpFR	10	n/a	n/a	n/a	n/a	n/a	n/a	n/a	10	3	2	5	n/a	n/a	n/a	n/a	n/a
173672	PROB	n/a	LTP193	ltpFR	10	n/a	n/a	n/a	n/a	n/a	n/a	n/a	12	4	2	6	n/a	n/a	n/a	n/a	n/a
175685	STOP	n/a	LTP193	ltpFR	10	n/a	n/a	n/a	n/a	n/a	n/a	n/a	n/a	n/a	n/a	n/a	n/a	n/a	n/a	n/a	n/a
177317	WORD	wordpools/wasnorm_wordpool_less_exclusions.txt	LTP193	ltpFR	10	1	1	SUSPECT	1415	n/a	n/a	1	n/a	0	0	0	0.57763671875	0.412841796875	1	upper	amplitud.ttf
180330	START	n/a	LTP193	ltpFR	10	n/a	n/a	n/a	n/a	n/a	n/a	n/a	n/a	n/a	n/a	n/a	n/a	n/a	n/a	n/a	n/a
181261	PROB	n/a	LTP193	ltpFR	10	n/a	n/a	n/a	n/a	n/a	n/a	n/a	18	5	8	5	n/a	n/a	n/a	n/a	n/a
182492	PROB	n/a	LTP193	ltpFR	10	n/a	n/a	n/a	n/a	n/a	n/a	n/a	13	4	1	8	n/a	n/a	n/a	n/a	n/a
183940	PROB	n/a	LTP193	ltpFR	10	n/a	n/a	n/a	n/a	n/a	n/a	n/a	19	2	8	9	n/a	n/a	n/a	n/a	n/a
185139	PROB	n/a	LTP193	ltpFR	10	n/a	n/a	n/a	n/a	n/a	n/a	n/a	13	8	3	2	n/a	n/a	n/a	n/a	n/a
186602	PROB	n/a	LTP193	ltpFR	10	n/a	n/a	n/a	n/a	n/a	n/a	n/a	6	1	4	1	n/a	n/a	n/a	n/a	n/a
187693	STOP	n/a	LTP193	ltpFR	10	n/a	n/a	n/a	n/a	n/a	n/a	n/a	n/a	n/a	n/a	n/a	n/a	n/a	n/a	n/a	n/a
189498	WORD	wordpools/wasnorm_wordpool_less_exclusions.txt	LTP193	ltpFR	10	1	1	SLOPE	1328	n/a	n/a	0	n/a	0	0	0	0.57763671875	0.412841796875	1	upper	amplitud.ttf
192511	START	n/a	LTP193	ltpFR	10	n/a	n/a	n/a	n/a	n/a	n/a	n/a	n/a	n/a	n/a	n/a	n/a	n/a	n/a	n/a	n/a
193709	PROB	n/a	LTP193	ltpFR	10	n/a	n/a	n/a	n/a	n/a	n/a	n/a	13	8	1	4	n/a	n/a	n/a	n/a	n/a
195091	PROB	n/a	LTP193	ltpFR	10	n/a	n/a	n/a	n/a	n/a	n/a	n/a	15	6	7	2	n/a	n/a	n/a	n/a	n/a
197886	PROB	n/a	LTP193	ltpFR	10	n/a	n/a	n/a	n/a	n/a	n/a	n/a	13	3	7	3	n/a	n/a	n/a	n/a	n/a
198917	PROB	n/a	LTP193	ltpFR	10	n/a	n/a	n/a	n/a	n/a	n/a	n/a	9	2	2	5	n/a	n/a	n/a	n/a	n/a
200013	STOP	n/a	LTP193	ltpFR	10	n/a	n/a	n/a	n/a	n/a	n/a	n/a	n/a	n/a	n/a	n/a	n/a	n/a	n/a	n/a	n/a
201480	WORD	wordpools/wasnorm_wordpool_less_exclusions.txt	LTP193	ltpFR	10	1	1	SEA	1259	n/a	n/a	0	n/a	0	0	0	0.57763671875	0.412841796875	1	upper	amplitud.ttf
204493	START	n/a	LTP193	ltpFR	10	n/a	n/a	n/a	n/a	n/a	n/a	n/a	n/a	n/a	n/a	n/a	n/a	n/a	n/a	n/a	n/a
205674	PROB	n/a	LTP193	ltpFR	10	n/a	n/a	n/a	n/a	n/a	n/a	n/a	15	1	7	7	n/a	n/a	n/a	n/a	n/a
206922	PROB	n/a	LTP193	ltpFR	10	n/a	n/a	n/a	n/a	n/a	n/a	n/a	6	1	4	3	n/a	n/a	n/a	n/a	n/a
208338	PROB	n/a	LTP193	ltpFR	10	n/a	n/a	n/a	n/a	n/a	n/a	n/a	17	9	5	3	n/a	n/a	n/a	n/a	n/a
210251	PROB	n/a	LTP193	ltpFR	10	n/a	n/a	n/a	n/a	n/a	n/a	n/a	12	8	3	1	n/a	n/a	n/a	n/a	n/a
211613	STOP	n/a	LTP193	ltpFR	10	n/a	n/a	n/a	n/a	n/a	n/a	n/a	n/a	n/a	n/a	n/a	n/a	n/a	n/a	n/a	n/a
213562	WORD	wordpools/wasnorm_wordpool_less_exclusions.txt	LTP193	ltpFR	10	1	1	CREEK	404	n/a	n/a	0	n/a	0	0	0	0.57763671875	0.412841796875	1	upper	amplitud.ttf
216575	START	n/a	LTP193	ltpFR	10	n/a	n/a	n/a	n/a	n/a	n/a	n/a	n/a	n/a	n/a	n/a	n/a	n/a	n/a	n/a	n/a
217623	PROB	n/a	LTP193	ltpFR	10	n/a	n/a	n/a	n/a	n/a	n/a	n/a	10	1	1	8	n/a	n/a	n/a	n/a	n/a
218821	PROB	n/a	LTP193	ltpFR	10	n/a	n/a	n/a	n/a	n/a	n/a	n/a	8	1	1	6	n/a	n/a	n/a	n/a	n/a
220751	PROB	n/a	LTP193	ltpFR	10	n/a	n/a	n/a	n/a	n/a	n/a	n/a	8	1	4	3	n/a	n/a	n/a	n/a	n/a
221733	PROB	n/a	LTP193	ltpFR	10	n/a	n/a	n/a	n/a	n/a	n/a	n/a	5	3	1	1	n/a	n/a	n/a	n/a	n/a
224575	STOP	n/a	LTP193	ltpFR	10	n/a	n/a	n/a	n/a	n/a	n/a	n/a	n/a	n/a	n/a	n/a	n/a	n/a	n/a	n/a	n/a
225777	WORD	wordpools/wasnorm_wordpool_less_exclusions.txt	LTP193	ltpFR	10	1	1	CRACKER	398	n/a	n/a	0	n/a	0	0	0	0.57763671875	0.412841796875	1	upper	amplitud.ttf
228790	START	n/a	LTP193	ltpFR	10	n/a	n/a	n/a	n/a	n/a	n/a	n/a	n/a	n/a	n/a	n/a	n/a	n/a	n/a	n/a	n/a
229771	PROB	n/a	LTP193	ltpFR	10	n/a	n/a	n/a	n/a	n/a	n/a	n/a	15	2	5	8	n/a	n/a	n/a	n/a	n/a
231353	PROB	n/a	LTP193	ltpFR	10	n/a	n/a	n/a	n/a	n/a	n/a	n/a	18	9	7	2	n/a	n/a	n/a	n/a	n/a
232600	PROB	n/a	LTP193	ltpFR	10	n/a	n/a	n/a	n/a	n/a	n/a	n/a	16	2	5	9	n/a	n/a	n/a	n/a	n/a
233998	PROB	n/a	LTP193	ltpFR	10	n/a	n/a	n/a	n/a	n/a	n/a	n/a	13	3	2	8	n/a	n/a	n/a	n/a	n/a
235081	PROB	n/a	LTP193	ltpFR	10	n/a	n/a	n/a	n/a	n/a	n/a	n/a	6	1	4	1	n/a	n/a	n/a	n/a	n/a
236469	STOP	n/a	LTP193	ltpFR	10	n/a	n/a	n/a	n/a	n/a	n/a	n/a	n/a	n/a	n/a	n/a	n/a	n/a	n/a	n/a	n/a
237793	WORD	wordpools/wasnorm_wordpool_less_exclusions.txt	LTP193	ltpFR	10	1	1	LION	827	n/a	n/a	1	n/a	0	0	0	0.57763671875	0.412841796875	1	upper	amplitud.ttf
240805	START	n/a	LTP193	ltpFR	10	n/a	n/a	n/a	n/a	n/a	n/a	n/a	n/a	n/a	n/a	n/a	n/a	n/a	n/a	n/a	n/a
241787	PROB	n/a	LTP193	ltpFR	10	n/a	n/a	n/a	n/a	n/a	n/a	n/a	17	5	9	3	n/a	n/a	n/a	n/a	n/a
244184	PROB	n/a	LTP193	ltpFR	10	n/a	n/a	n/a	n/a	n/a	n/a	n/a	14	2	5	7	n/a	n/a	n/a	n/a	n/a
245831	PROB	n/a	LTP193	ltpFR	10	n/a	n/a	n/a	n/a	n/a	n/a	n/a	16	4	6	6	n/a	n/a	n/a	n/a	n/a
247213	PROB	n/a	LTP193	ltpFR	10	n/a	n/a	n/a	n/a	n/a	n/a	n/a	18	4	5	9	n/a	n/a	n/a	n/a	n/a
248374	STOP	n/a	LTP193	ltpFR	10	n/a	n/a	n/a	n/a	n/a	n/a	n/a	n/a	n/a	n/a	n/a	n/a	n/a	n/a	n/a	n/a
249941	WORD	wordpools/wasnorm_wordpool_less_exclusions.txt	LTP193	ltpFR	10	1	1	WHISKERS	1605	n/a	n/a	0	n/a	0	0	0	0.57763671875	0.412841796875	1	upper	amplitud.ttf
252954	START	n/a	LTP193	ltpFR	10	n/a	n/a	n/a	n/a	n/a	n/a	n/a	n/a	n/a	n/a	n/a	n/a	n/a	n/a	n/a	n/a
253952	PROB	n/a	LTP193	ltpFR	10	n/a	n/a	n/a	n/a	n/a	n/a	n/a	17	9	6	2	n/a	n/a	n/a	n/a	n/a
255268	PROB	n/a	LTP193	ltpFR	10	n/a	n/a	n/a	n/a	n/a	n/a	n/a	5	1	1	3	n/a	n/a	n/a	n/a	n/a
256631	PROB	n/a	LTP193	ltpFR	10	n/a	n/a	n/a	n/a	n/a	n/a	n/a	12	3	8	1	n/a	n/a	n/a	n/a	n/a
257929	PROB	n/a	LTP193	ltpFR	10	n/a	n/a	n/a	n/a	n/a	n/a	n/a	16	8	4	4	n/a	n/a	n/a	n/a	n/a
259525	STOP	n/a	LTP193	ltpFR	10	n/a	n/a	n/a	n/a	n/a	n/a	n/a	n/a	n/a	n/a	n/a	n/a	n/a	n/a	n/a	n/a
262889	REC_START	n/a	LTP193	ltpFR	10	1	n/a	n/a	n/a	n/a	n/a	n/a	n/a	0	0	0	n/a	n/a	n/a	n/a	n/a
264026	REC_WORD	wordpools/wasnorm_wordpool_less_exclusions.txt	LTP193	ltpFR	10	1	1	LION	827	n/a	n/a	1	n/a	0	0	0	n/a	n/a	n/a	n/a	n/a
264719	REC_WORD	wordpools/wasnorm_wordpool_less_exclusions.txt	LTP193	ltpFR	10	1	1	WHISKERS	1605	n/a	n/a	0	n/a	0	0	0	n/a	n/a	n/a	n/a	n/a
265667	REC_WORD	wordpools/wasnorm_wordpool_less_exclusions.txt	LTP193	ltpFR	10	1	1	CREEK	404	n/a	n/a	0	n/a	0	0	0	n/a	n/a	n/a	n/a	n/a
266311	REC_WORD	wordpools/wasnorm_wordpool_less_exclusions.txt	LTP193	ltpFR	10	1	1	SEA	1259	n/a	n/a	0	n/a	0	0	0	n/a	n/a	n/a	n/a	n/a
267209	REC_WORD	wordpools/wasnorm_wordpool_less_exclusions.txt	LTP193	ltpFR	10	1	1	SLOPE	1328	n/a	n/a	0	n/a	0	0	0	n/a	n/a	n/a	n/a	n/a
268805	REC_WORD	wordpools/wasnorm_wordpool_less_exclusions.txt	LTP193	ltpFR	10	1	1	ORANGE	980	n/a	n/a	0	n/a	0	0	0	n/a	n/a	n/a	n/a	n/a
269853	REC_WORD	wordpools/wasnorm_wordpool_less_exclusions.txt	LTP193	ltpFR	10	1	1	KIWI	781	n/a	n/a	0	n/a	0	0	0	n/a	n/a	n/a	n/a	n/a
270906	REC_WORD	wordpools/wasnorm_wordpool_less_exclusions.txt	LTP193	ltpFR	10	1	1	CHEDDAR	286	n/a	n/a	0	n/a	0	0	0	n/a	n/a	n/a	n/a	n/a
272098	REC_WORD	wordpools/wasnorm_wordpool_less_exclusions.txt	LTP193	ltpFR	10	1	1	REGISTER	1180	n/a	n/a	0	n/a	0	0	0	n/a	n/a	n/a	n/a	n/a
273350	REC_WORD	wordpools/wasnorm_wordpool_less_exclusions.txt	LTP193	ltpFR	10	1	1	SUSPECT	1415	n/a	n/a	1	n/a	0	0	0	n/a	n/a	n/a	n/a	n/a
274552	REC_WORD	wordpools/wasnorm_wordpool_less_exclusions.txt	LTP193	ltpFR	10	1	1	CLIMBER	323	n/a	n/a	0	n/a	0	0	0	n/a	n/a	n/a	n/a	n/a
275794	REC_WORD	wordpools/wasnorm_wordpool_less_exclusions.txt	LTP193	ltpFR	10	1	1	OFFICE	972	n/a	n/a	0	n/a	0	0	0	n/a	n/a	n/a	n/a	n/a
281252	REC_WORD	wordpools/wasnorm_wordpool_less_exclusions.txt	LTP193	ltpFR	10	1	1	LOBSTER	837	n/a	n/a	1	n/a	0	0	0	n/a	n/a	n/a	n/a	n/a
284704	REC_WORD	wordpools/wasnorm_wordpool_less_exclusions.txt	LTP193	ltpFR	10	1	1	HANDKERCHIEF	686	n/a	n/a	0	n/a	0	0	0	n/a	n/a	n/a	n/a	n/a
285704	REC_WORD_VV	wordpools/wasnorm_wordpool_less_exclusions.txt	LTP193	ltpFR	10	1	n/a	<>	-1	n/a	n/a	n/a	n/a	0	0	0	n/a	n/a	n/a	n/a	n/a
286285	REC_WORD	wordpools/wasnorm_wordpool_less_exclusions.txt	LTP193	ltpFR	10	1	1	NOSE	957	n/a	n/a	0	n/a	0	0	0	n/a	n/a	n/a	n/a	n/a
288361	REC_WORD_VV	wordpools/wasnorm_wordpool_less_exclusions.txt	LTP193	ltpFR	10	1	n/a	<>	-1	n/a	n/a	n/a	n/a	0	0	0	n/a	n/a	n/a	n/a	n/a
370412	WORD	wordpools/wasnorm_wordpool_less_exclusions.txt	LTP193	ltpFR	10	2	0	DISH	474	n/a	n/a	0	n/a	0	0	0	0.422607421875	0.5869140625	0	lower	zerothre.ttf
374572	WORD	wordpools/wasnorm_wordpool_less_exclusions.txt	LTP193	ltpFR	10	2	0	STRAWBERRY	1391	n/a	n/a	0	n/a	0	0	0	0.422607421875	0.5869140625	0	lower	zerothre.ttf
378549	WORD	wordpools/wasnorm_wordpool_less_exclusions.txt	LTP193	ltpFR	10	2	0	ELM	527	n/a	n/a	1	n/a	0	0	0	0.422607421875	0.5869140625	0	lower	zerothre.ttf
382759	WORD	wordpools/wasnorm_wordpool_less_exclusions.txt	LTP193	ltpFR	10	2	0	PLANT	1083	n/a	n/a	1	n/a	0	0	0	0.422607421875	0.5869140625	0	lower	zerothre.ttf
386604	WORD	wordpools/wasnorm_wordpool_less_exclusions.txt	LTP193	ltpFR	10	2	1	JAR	750	n/a	n/a	0	n/a	0	0	0	0.57763671875	0.412841796875	1	upper	amplitud.ttf
390465	WORD	wordpools/wasnorm_wordpool_less_exclusions.txt	LTP193	ltpFR	10	2	1	BUSH	202	n/a	n/a	1	n/a	0	0	0	0.57763671875	0.412841796875	1	upper	amplitud.ttf
394658	WORD	wordpools/wasnorm_wordpool_less_exclusions.txt	LTP193	ltpFR	10	2	1	SENATOR	1268	n/a	n/a	1	n/a	0	0	0	0.57763671875	0.412841796875	1	upper	amplitud.ttf
398536	WORD	wordpools/wasnorm_wordpool_less_exclusions.txt	LTP193	ltpFR	10	2	1	CATTLE	261	n/a	n/a	1	n/a	0	0	0	0.57763671875	0.412841796875	1	upper	amplitud.ttf
402530	WORD	wordpools/wasnorm_wordpool_less_exclusions.txt	LTP193	ltpFR	10	2	0	ANGEL	22	n/a	n/a	1	n/a	0	0	0	0.422607421875	0.5869140625	0	lower	zerothre.ttf
406457	WORD	wordpools/wasnorm_wordpool_less_exclusions.txt	LTP193	ltpFR	10	2	0	PITCHFORK	1078	n/a	n/a	0	n/a	0	0	0	0.422607421875	0.5869140625	0	lower	zerothre.ttf
410568	WORD	wordpools/wasnorm_wordpool_less_exclusions.txt	LTP193	ltpFR	10	2	0	VEHICLE	1553	n/a	n/a	1	n/a	0	0	0	0.422607421875	0.5869140625	0	lower	zerothre.ttf
414413	WORD	wordpools/wasnorm_wordpool_less_exclusions.txt	LTP193	ltpFR	10	2	0	PECAN	1036	n/a	n/a	0	n/a	0	0	0	0.422607421875	0.5869140625	0	lower	zerothre.ttf
418556	WORD	wordpools/wasnorm_wordpool_less_exclusions.txt	LTP193	ltpFR	10	2	1	RAISIN	1163	n/a	n/a	0	n/a	0	0	0	0.57763671875	0.412841796875	1	upper	amplitud.ttf
422683	WORD	wordpools/wasnorm_wordpool_less_exclusions.txt	LTP193	ltpFR	10	2	1	TRUCK	1512	n/a	n/a	1	n/a	0	0	0	0.57763671875	0.412841796875	1	upper	amplitud.ttf
426744	WORD	wordpools/wasnorm_wordpool_less_exclusions.txt	LTP193	ltpFR	10	2	1	BUG	187	n/a	n/a	0	n/a	0	0	0	0.57763671875	0.412841796875	1	upper	amplitud.ttf
430804	WORD	wordpools/wasnorm_wordpool_less_exclusions.txt	LTP193	ltpFR	10	2	1	JOINT	758	n/a	n/a	0	n/a	0	0	0	0.57763671875	0.412841796875	1	upper	amplitud.ttf
433817	START	n/a	LTP193	ltpFR	10	n/a	n/a	n/a	n/a	n/a	n/a	n/a	n/a	n/a	n/a	n/a	n/a	n/a	n/a	n/a	n/a
434948	PROB	n/a	LTP193	ltpFR	10	n/a	n/a	n/a	n/a	n/a	n/a	n/a	18	1	8	9	n/a	n/a	n/a	n/a	n/a
436612	PROB	n/a	LTP193	ltpFR	10	n/a	n/a	n/a	n/a	n/a	n/a	n/a	21	9	3	9	n/a	n/a	n/a	n/a	n/a
438094	PROB	n/a	LTP193	ltpFR	10	n/a	n/a	n/a	n/a	n/a	n/a	n/a	11	9	1	1	n/a	n/a	n/a	n/a	n/a
439210	PROB	n/a	LTP193	ltpFR	10	n/a	n/a	n/a	n/a	n/a	n/a	n/a	11	2	7	2	n/a	n/a	n/a	n/a	n/a
440757	STOP	n/a	LTP193	ltpFR	10	n/a	n/a	n/a	n/a	n/a	n/a	n/a	n/a	n/a	n/a	n/a	n/a	n/a	n/a	n/a	n/a
443669	REC_START	n/a	LTP193	ltpFR	10	2	n/a	n/a	n/a	n/a	n/a	n/a	n/a	0	0	0	n/a	n/a	n/a	n/a	n/a
444656	REC_WORD	wordpools/wasnorm_wordpool_less_exclusions.txt	LTP193	ltpFR	10	2	0	ANGEL	22	n/a	n/a	1	n/a	0	0	0	n/a	n/a	n/a	n/a	n/a
445884	REC_WORD	wordpools/wasnorm_wordpool_less_exclusions.txt	LTP193	ltpFR	10	2	1	JOINT	758	n/a	n/a	0	n/a	0	0	0	n/a	n/a	n/a	n/a	n/a
446802	REC_WORD	wordpools/wasnorm_wordpool_less_exclusions.txt	LTP193	ltpFR	10	2	0	PLANT	1083	n/a	n/a	1	n/a	0	0	0	n/a	n/a	n/a	n/a	n/a
447819	REC_WORD	wordpools/wasnorm_wordpool_less_exclusions.txt	LTP193	ltpFR	10	2	1	JAR	750	n/a	n/a	0	n/a	0	0	0	n/a	n/a	n/a	n/a	n/a
448817	REC_WORD	wordpools/wasnorm_wordpool_less_exclusions.txt	LTP193	ltpFR	10	2	1	RAISIN	1163	n/a	n/a	0	n/a	0	0	0	n/a	n/a	n/a	n/a	n/a
449750	REC_WORD	wordpools/wasnorm_wordpool_less_exclusions.txt	LTP193	ltpFR	10	2	0	STRAWBERRY	1391	n/a	n/a	0	n/a	0	0	0	n/a	n/a	n/a	n/a	n/a
450927	REC_WORD	wordpools/wasnorm_wordpool_less_exclusions.txt	LTP193	ltpFR	10	2	0	PECAN	1036	n/a	n/a	0	n/a	0	0	0	n/a	n/a	n/a	n/a	n/a
452189	REC_WORD	wordpools/wasnorm_wordpool_less_exclusions.txt	LTP193	ltpFR	10	2	0	DISH	474	n/a	n/a	0	n/a	0	0	0	n/a	n/a	n/a	n/a	n/a
453911	REC_WORD	wordpools/wasnorm_wordpool_less_exclusions.txt	LTP193	ltpFR	10	2	0	ELM	527	n/a	n/a	1	n/a	0	0	0	n/a	n/a	n/a	n/a	n/a
454993	REC_WORD	wordpools/wasnorm_wordpool_less_exclusions.txt	LTP193	ltpFR	10	2	1	BUSH	202	n/a	n/a	1	n/a	0	0	0	n/a	n/a	n/a	n/a	n/a
457128	REC_WORD	wordpools/wasnorm_wordpool_less_exclusions.txt	LTP193	ltpFR	10	2	1	CATTLE	261	n/a	n/a	1	n/a	0	0	0	n/a	n/a	n/a	n/a	n/a
458350	REC_WORD	wordpools/wasnorm_wordpool_less_exclusions.txt	LTP193	ltpFR	10	2	0	PITCHFORK	1078	n/a	n/a	0	n/a	0	0	0	n/a	n/a	n/a	n/a	n/a
459548	REC_WORD	wordpools/wasnorm_wordpool_less_exclusions.txt	LTP193	ltpFR	10	2	0	VEHICLE	1553	n/a	n/a	1	n/a	0	0	0	n/a	n/a	n/a	n/a	n/a
460805	REC_WORD	wordpools/wasnorm_wordpool_less_exclusions.txt	LTP193	ltpFR	10	2	1	TRUCK	1512	n/a	n/a	1	n/a	0	0	0	n/a	n/a	n/a	n/a	n/a
474703	REC_WORD	wordpools/wasnorm_wordpool_less_exclusions.txt	LTP193	ltpFR	10	2	1	BUG	187	n/a	n/a	0	n/a	0	0	0	n/a	n/a	n/a	n/a	n/a
528526	START	n/a	LTP193	ltpFR	10	n/a	n/a	n/a	n/a	n/a	n/a	n/a	n/a	n/a	n/a	n/a	n/a	n/a	n/a	n/a	n/a
530040	PROB	n/a	LTP193	ltpFR	10	n/a	n/a	n/a	n/a	n/a	n/a	n/a	9	1	3	5	n/a	n/a	n/a	n/a	n/a
531005	PROB	n/a	LTP193	ltpFR	10	n/a	n/a	n/a	n/a	n/a	n/a	n/a	18	2	7	9	n/a	n/a	n/a	n/a	n/a
532586	PROB	n/a	LTP193	ltpFR	10	n/a	n/a	n/a	n/a	n/a	n/a	n/a	16	2	8	6	n/a	n/a	n/a	n/a	n/a
533767	PROB	n/a	LTP193	ltpFR	10	n/a	n/a	n/a	n/a	n/a	n/a	n/a	11	1	7	3	n/a	n/a	n/a	n/a	n/a
535302	STOP	n/a	LTP193	ltpFR	10	n/a	n/a	n/a	n/a	n/a	n/a	n/a	n/a	n/a	n/a	n/a	n/a	n/a	n/a	n/a	n/a
537612	WORD	wordpools/wasnorm_wordpool_less_exclusions.txt	LTP193	ltpFR	10	3	1	PILL	1068	n/a	n/a	0	n/a	0	0	0	0.57763671875	0.412841796875	1	upper	amplitud.ttf
540624	START	n/a	LTP193	ltpFR	10	n/a	n/a	n/a	n/a	n/a	n/a	n/a	n/a	n/a	n/a	n/a	n/a	n/a	n/a	n/a	n/a
541622	PROB	n/a	LTP193	ltpFR	10	n/a	n/a	n/a	n/a	n/a	n/a	n/a	16	8	1	7	n/a	n/a	n/a	n/a	n/a
543171	PROB	n/a	LTP193	ltpFR	10	n/a	n/a	n/a	n/a	n/a	n/a	n/a	16	9	4	3	n/a	n/a	n/a	n/a	n/a
544402	PROB	n/a	LTP193	ltpFR	10	n/a	n/a	n/a	n/a	n/a	n/a	n/a	16	6	7	3	n/a	n/a	n/a	n/a	n/a
546050	PROB	n/a	LTP193	ltpFR	10	n/a	n/a	n/a	n/a	n/a	n/a	n/a	13	7	3	2	n/a	n/a	n/a	n/a	n/a
548054	STOP	n/a	LTP193	ltpFR	10	n/a	n/a	n/a	n/a	n/a	n/a	n/a	n/a	n/a	n/a	n/a	n/a	n/a	n/a	n/a	n/a
549644	WORD	wordpools/wasnorm_wordpool_less_exclusions.txt	LTP193	ltpFR	10	3	1	CHOCOLATE	306	n/a	n/a	0	n/a	0	0	0	0.57763671875	0.412841796875	1	upper	amplitud.ttf
552656	START	n/a	LTP193	ltpFR	10	n/a	n/a	n/a	n/a	n/a	n/a	n/a	n/a	n/a	n/a	n/a	n/a	n/a	n/a	n/a	n/a
553654	PROB	n/a	LTP193	ltpFR	10	n/a	n/a	n/a	n/a	n/a	n/a	n/a	20	2	9	9	n/a	n/a	n/a	n/a	n/a
555568	PROB	n/a	LTP193	ltpFR	10	n/a	n/a	n/a	n/a	n/a	n/a	n/a	18	4	5	9	n/a	n/a	n/a	n/a	n/a
556750	PROB	n/a	LTP193	ltpFR	10	n/a	n/a	n/a	n/a	n/a	n/a	n/a	14	4	9	1	n/a	n/a	n/a	n/a	n/a
558564	PROB	n/a	LTP193	ltpFR	10	n/a	n/a	n/a	n/a	n/a	n/a	n/a	24	9	9	6	n/a	n/a	n/a	n/a	n/a
560254	STOP	n/a	LTP193	ltpFR	10	n/a	n/a	n/a	n/a	n/a	n/a	n/a	n/a	n/a	n/a	n/a	n/a	n/a	n/a	n/a	n/a
561626	WORD	wordpools/wasnorm_wordpool_less_exclusions.txt	LTP193	ltpFR	10	3	1	COBWEB	337	n/a	n/a	0	n/a	0	0	0	0.57763671875	0.412841796875	1	upper	amplitud.ttf
564638	START	n/a	LTP193	ltpFR	10	n/a	n/a	n/a	n/a	n/a	n/a	n/a	n/a	n/a	n/a	n/a	n/a	n/a	n/a	n/a	n/a
565803	PROB	n/a	LTP193	ltpFR	10	n/a	n/a	n/a	n/a	n/a	n/a	n/a	12	6	4	2	n/a	n/a	n/a	n/a	n/a
567567	PROB	n/a	LTP193	ltpFR	10	n/a	n/a	n/a	n/a	n/a	n/a	n/a	20	8	6	6	n/a	n/a	n/a	n/a	n/a
570247	PROB	n/a	LTP193	ltpFR	10	n/a	n/a	n/a	n/a	n/a	n/a	n/a	10	6	3	1	n/a	n/a	n/a	n/a	n/a
572366	STOP	n/a	LTP193	ltpFR	10	n/a	n/a	n/a	n/a	n/a	n/a	n/a	n/a	n/a	n/a	n/a	n/a	n/a	n/a	n/a	n/a
573691	WORD	wordpools/wasnorm_wordpool_less_exclusions.txt	LTP193	ltpFR	10	3	1	JUNGLE	764	n/a	n/a	0	n/a	0	0	0	0.57763671875	0.412841796875	1	upper	amplitud.ttf
576704	START	n/a	LTP193	ltpFR	10	n/a	n/a	n/a	n/a	n/a	n/a	n/a	n/a	n/a	n/a	n/a	n/a	n/a	n/a	n/a	n/a
577735	PROB	n/a	LTP193	ltpFR	10	n/a	n/a	n/a	n/a	n/a	n/a	n/a	12	4	1	7	n/a	n/a	n/a	n/a	n/a
579499	PROB	n/a	LTP193	ltpFR	10	n/a	n/a	n/a	n/a	n/a	n/a	n/a	19	7	6	6	n/a	n/a	n/a	n/a	n/a
582927	PROB	n/a	LTP193	ltpFR	10	n/a	n/a	n/a	n/a	n/a	n/a	n/a	5	3	1	1	n/a	n/a	n/a	n/a	n/a
583853	STOP	n/a	LTP193	ltpFR	10	n/a	n/a	n/a	n/a	n/a	n/a	n/a	n/a	n/a	n/a	n/a	n/a	n/a	n/a	n/a	n/a
585590	WORD	wordpools/wasnorm_wordpool_less_exclusions.txt	LTP193	ltpFR	10	3	1	ZEBRA	1635	n/a	n/a	1	n/a	0	0	0	0.57763671875	0.412841796875	1	upper	amplitud.ttf
588602	START	n/a	LTP193	ltpFR	10	n/a	n/a	n/a	n/a	n/a	n/a	n/a	n/a	n/a	n/a	n/a	n/a	n/a	n/a	n/a	n/a
589817	PROB	n/a	LTP193	ltpFR	10	n/a	n/a	n/a	n/a	n/a	n/a	n/a	19	4	8	7	n/a	n/a	n/a	n/a	n/a
592530	PROB	n/a	LTP193	ltpFR	10	n/a	n/a	n/a	n/a	n/a	n/a	n/a	11	6	2	3	n/a	n/a	n/a	n/a	n/a
594510	PROB	n/a	LTP193	ltpFR	10	n/a	n/a	n/a	n/a	n/a	n/a	n/a	10	4	4	2	n/a	n/a	n/a	n/a	n/a
595685	STOP	n/a	LTP193	ltpFR	10	n/a	n/a	n/a	n/a	n/a	n/a	n/a	n/a	n/a	n/a	n/a	n/a	n/a	n/a	n/a	n/a
597605	WORD	wordpools/wasnorm_wordpool_less_exclusions.txt	LTP193	ltpFR	10	3	1	CHIMPANZEE	302	n/a	n/a	1	n/a	0	0	0	0.57763671875	0.412841796875	1	upper	amplitud.ttf
600618	START	n/a	LTP193	ltpFR	10	n/a	n/a	n/a	n/a	n/a	n/a	n/a	n/a	n/a	n/a	n/a	n/a	n/a	n/a	n/a	n/a
601666	PROB	n/a	LTP193	ltpFR	10	n/a	n/a	n/a	n/a	n/a	n/a	n/a	16	4	8	4	n/a	n/a	n/a	n/a	n/a
603231	PROB	n/a	LTP193	ltpFR	10	n/a	n/a	n/a	n/a	n/a	n/a	n/a	16	9	2	5	n/a	n/a	n/a	n/a	n/a
604711	PROB	n/a	LTP193	ltpFR	10	n/a	n/a	n/a	n/a	n/a	n/a	n/a	23	7	7	9	n/a	n/a	n/a	n/a	n/a
607517	STOP	n/a	LTP193	ltpFR	10	n/a	n/a	n/a	n/a	n/a	n/a	n/a	n/a	n/a	n/a	n/a	n/a	n/a	n/a	n/a	n/a
609587	WORD	wordpools/wasnorm_wordpool_less_exclusions.txt	LTP193	ltpFR	10	3	1	SCENERY	1247	n/a	n/a	0	n/a	0	0	0	0.57763671875	0.412841796875	1	upper	amplitud.ttf
612600	START	n/a	LTP193	ltpFR	10	n/a	n/a	n/a	n/a	n/a	n/a	n/a	n/a	n/a	n/a	n/a	n/a	n/a	n/a	n/a	n/a
613565	PROB	n/a	LTP193	ltpFR	10	n/a	n/a	n/a	n/a	n/a	n/a	n/a	14	7	5	2	n/a	n/a	n/a	n/a	n/a
614929	PROB	n/a	LTP193	ltpFR	10	n/a	n/a	n/a	n/a	n/a	n/a	n/a	10	4	5	1	n/a	n/a	n/a	n/a	n/a
616926	PROB	n/a	LTP193	ltpFR	10	n/a	n/a	n/a	n/a	n/a	n/a	n/a	16	5	7	4	n/a	n/a	n/a	n/a	n/a
619302	STOP	n/a	LTP193	ltpFR	10	n/a	n/a	n/a	n/a	n/a	n/a	n/a	n/a	n/a	n/a	n/a	n/a	n/a	n/a	n/a	n/a
621569	WORD	wordpools/wasnorm_wordpool_less_exclusions.txt	LTP193	ltpFR	10	3	1	ALBUM	14	n/a	n/a	0	n/a	0	0	0	0.57763671875	0.412841796875	1	upper	amplitud.ttf
624582	START	n/a	LTP193	ltpFR	10	n/a	n/a	n/a	n/a	n/a	n/a	n/a	n/a	n/a	n/a	n/a	n/a	n/a	n/a	n/a	n/a
625630	PROB	n/a	LTP193	ltpFR	10	n/a	n/a	n/a	n/a	n/a	n/a	n/a	15	3	3	9	n/a	n/a	n/a	n/a	n/a
626862	PROB	n/a	LTP193	ltpFR	10	n/a	n/a	n/a	n/a	n/a	n/a	n/a	17	2	8	7	n/a	n/a	n/a	n/a	n/a
628010	PROB	n/a	LTP193	ltpFR	10	n/a	n/a	n/a	n/a	n/a	n/a	n/a	15	3	5	7	n/a	n/a	n/a	n/a	n/a
629508	PROB	n/a	LTP193	ltpFR	10	n/a	n/a	n/a	n/a	n/a	n/a	n/a	13	2	3	8	n/a	n/a	n/a	n/a	n/a
632581	STOP	n/a	LTP193	ltpFR	10	n/a	n/a	n/a	n/a	n/a	n/a	n/a	n/a	n/a	n/a	n/a	n/a	n/a	n/a	n/a	n/a
633618	WORD	wordpools/wasnorm_wordpool_less_exclusions.txt	LTP193	ltpFR	10	3	1	ELEPHANT	523	n/a	n/a	1	n/a	0	0	0	0.57763671875	0.412841796875	1	upper	amplitud.ttf
636631	START	n/a	LTP193	ltpFR	10	n/a	n/a	n/a	n/a	n/a	n/a	n/a	n/a	n/a	n/a	n/a	n/a	n/a	n/a	n/a	n/a
637828	PROB	n/a	LTP193	ltpFR	10	n/a	n/a	n/a	n/a	n/a	n/a	n/a	20	7	6	7	n/a	n/a	n/a	n/a	n/a
639992	PROB	n/a	LTP193	ltpFR	10	n/a	n/a	n/a	n/a	n/a	n/a	n/a	20	9	3	8	n/a	n/a	n/a	n/a	n/a
641473	PROB	n/a	LTP193	ltpFR	10	n/a	n/a	n/a	n/a	n/a	n/a	n/a	18	1	9	8	n/a	n/a	n/a	n/a	n/a
642871	PROB	n/a	LTP193	ltpFR	10	n/a	n/a	n/a	n/a	n/a	n/a	n/a	16	2	5	9	n/a	n/a	n/a	n/a	n/a
644374	STOP	n/a	LTP193	ltpFR	10	n/a	n/a	n/a	n/a	n/a	n/a	n/a	n/a	n/a	n/a	n/a	n/a	n/a	n/a	n/a	n/a
645767	WORD	wordpools/wasnorm_wordpool_less_exclusions.txt	LTP193	ltpFR	10	3	1	BIOLOGIST	128	n/a	n/a	1	n/a	0	0	0	0.57763671875	0.412841796875	1	upper	amplitud.ttf
648779	START	n/a	LTP193	ltpFR	10	n/a	n/a	n/a	n/a	n/a	n/a	n/a	n/a	n/a	n/a	n/a	n/a	n/a	n/a	n/a	n/a
649628	PROB	n/a	LTP193	ltpFR	10	n/a	n/a	n/a	n/a	n/a	n/a	n/a	20	9	7	4	n/a	n/a	n/a	n/a	n/a
651293	PROB	n/a	LTP193	ltpFR	10	n/a	n/a	n/a	n/a	n/a	n/a	n/a	20	7	5	8	n/a	n/a	n/a	n/a	n/a
654820	PROB	n/a	LTP193	ltpFR	10	n/a	n/a	n/a	n/a	n/a	n/a	n/a	24	9	7	8	n/a	n/a	n/a	n/a	n/a
656653	STOP	n/a	LTP193	ltpFR	10	n/a	n/a	n/a	n/a	n/a	n/a	n/a	n/a	n/a	n/a	n/a	n/a	n/a	n/a	n/a	n/a
657815	WORD	wordpools/wasnorm_wordpool_less_exclusions.txt	LTP193	ltpFR	10	3	1	NOTEBOOK	959	n/a	n/a	0	n/a	0	0	0	0.57763671875	0.412841796875	1	upper	amplitud.ttf
660828	START	n/a	LTP193	ltpFR	10	n/a	n/a	n/a	n/a	n/a	n/a	n/a	n/a	n/a	n/a	n/a	n/a	n/a	n/a	n/a	n/a
661709	PROB	n/a	LTP193	ltpFR	10	n/a	n/a	n/a	n/a	n/a	n/a	n/a	16	1	7	9	n/a	n/a	n/a	n/a	n/a
663408	PROB	n/a	LTP193	ltpFR	10	n/a	n/a	n/a	n/a	n/a	n/a	n/a	19	8	9	2	n/a	n/a	n/a	n/a	n/a
664955	PROB	n/a	LTP193	ltpFR	10	n/a	n/a	n/a	n/a	n/a	n/a	n/a	10	4	5	1	n/a	n/a	n/a	n/a	n/a
665970	PROB	n/a	LTP193	ltpFR	10	n/a	n/a	n/a	n/a	n/a	n/a	n/a	9	3	3	3	n/a	n/a	n/a	n/a	n/a
666902	PROB	n/a	LTP193	ltpFR	10	n/a	n/a	n/a	n/a	n/a	n/a	n/a	21	8	8	5	n/a	n/a	n/a	n/a	n/a
668294	STOP	n/a	LTP193	ltpFR	10	n/a	n/a	n/a	n/a	n/a	n/a	n/a	n/a	n/a	n/a	n/a	n/a	n/a	n/a	n/a	n/a
669681	WORD	wordpools/wasnorm_wordpool_less_exclusions.txt	LTP193	ltpFR	10	3	1	SCROLL	1257	n/a	n/a	0	n/a	0	0	0	0.57763671875	0.412841796875	1	upper	amplitud.ttf
672694	START	n/a	LTP193	ltpFR	10	n/a	n/a	n/a	n/a	n/a	n/a	n/a	n/a	n/a	n/a	n/a	n/a	n/a	n/a	n/a	n/a
673792	PROB	n/a	LTP193	ltpFR	10	n/a	n/a	n/a	n/a	n/a	n/a	n/a	17	3	7	7	n/a	n/a	n/a	n/a	n/a
675922	PROB	n/a	LTP193	ltpFR	10	n/a	n/a	n/a	n/a	n/a	n/a	n/a	16	5	5	6	n/a	n/a	n/a	n/a	n/a
676937	PROB	n/a	LTP193	ltpFR	10	n/a	n/a	n/a	n/a	n/a	n/a	n/a	14	2	6	6	n/a	n/a	n/a	n/a	n/a
679118	PROB	n/a	LTP193	ltpFR	10	n/a	n/a	n/a	n/a	n/a	n/a	n/a	11	4	4	3	n/a	n/a	n/a	n/a	n/a
680342	STOP	n/a	LTP193	ltpFR	10	n/a	n/a	n/a	n/a	n/a	n/a	n/a	n/a	n/a	n/a	n/a	n/a	n/a	n/a	n/a	n/a
681896	WORD	wordpools/wasnorm_wordpool_less_exclusions.txt	LTP193	ltpFR	10	3	1	ZOO	1637	n/a	n/a	0	n/a	0	0	0	0.57763671875	0.412841796875	1	upper	amplitud.ttf
684909	START	n/a	LTP193	ltpFR	10	n/a	n/a	n/a	n/a	n/a	n/a	n/a	n/a	n/a	n/a	n/a	n/a	n/a	n/a	n/a	n/a
686040	PROB	n/a	LTP193	ltpFR	10	n/a	n/a	n/a	n/a	n/a	n/a	n/a	21	7	6	8	n/a	n/a	n/a	n/a	n/a
688936	PROB	n/a	LTP193	ltpFR	10	n/a	n/a	n/a	n/a	n/a	n/a	n/a	20	8	3	9	n/a	n/a	n/a	n/a	n/a
690533	PROB	n/a	LTP193	ltpFR	10	n/a	n/a	n/a	n/a	n/a	n/a	n/a	17	4	4	9	n/a	n/a	n/a	n/a	n/a
691869	STOP	n/a	LTP193	ltpFR	10	n/a	n/a	n/a	n/a	n/a	n/a	n/a	n/a	n/a	n/a	n/a	n/a	n/a	n/a	n/a	n/a
693978	WORD	wordpools/wasnorm_wordpool_less_exclusions.txt	LTP193	ltpFR	10	3	1	OINTMENT	974	n/a	n/a	0	n/a	0	0	0	0.57763671875	0.412841796875	1	upper	amplitud.ttf
696991	START	n/a	LTP193	ltpFR	10	n/a	n/a	n/a	n/a	n/a	n/a	n/a	n/a	n/a	n/a	n/a	n/a	n/a	n/a	n/a	n/a
698022	PROB	n/a	LTP193	ltpFR	10	n/a	n/a	n/a	n/a	n/a	n/a	n/a	8	2	1	5	n/a	n/a	n/a	n/a	n/a
699703	PROB	n/a	LTP193	ltpFR	10	n/a	n/a	n/a	n/a	n/a	n/a	n/a	8	4	1	3	n/a	n/a	n/a	n/a	n/a
701235	PROB	n/a	LTP193	ltpFR	10	n/a	n/a	n/a	n/a	n/a	n/a	n/a	14	8	2	4	n/a	n/a	n/a	n/a	n/a
702433	PROB	n/a	LTP193	ltpFR	10	n/a	n/a	n/a	n/a	n/a	n/a	n/a	10	1	3	6	n/a	n/a	n/a	n/a	n/a
704990	STOP	n/a	LTP193	ltpFR	10	n/a	n/a	n/a	n/a	n/a	n/a	n/a	n/a	n/a	n/a	n/a	n/a	n/a	n/a	n/a	n/a
706227	WORD	wordpools/wasnorm_wordpool_less_exclusions.txt	LTP193	ltpFR	10	3	1	BLENDER	136	n/a	n/a	0	n/a	0	0	0	0.57763671875	0.412841796875	1	upper	amplitud.ttf
709240	START	n/a	LTP193	ltpFR	10	n/a	n/a	n/a	n/a	n/a	n/a	n/a	n/a	n/a	n/a	n/a	n/a	n/a	n/a	n/a	n/a
710138	PROB	n/a	LTP193	ltpFR	10	n/a	n/a	n/a	n/a	n/a	n/a	n/a	18	2	7	9	n/a	n/a	n/a	n/a	n/a
712034	PROB	n/a	LTP193	ltpFR	10	n/a	n/a	n/a	n/a	n/a	n/a	n/a	20	9	7	4	n/a	n/a	n/a	n/a	n/a
713599	PROB	n/a	LTP193	ltpFR	10	n/a	n/a	n/a	n/a	n/a	n/a	n/a	8	4	2	2	n/a	n/a	n/a	n/a	n/a
717240	STOP	n/a	LTP193	ltpFR	10	n/a	n/a	n/a	n/a	n/a	n/a	n/a	n/a	n/a	n/a	n/a	n/a	n/a	n/a	n/a	n/a
718259	WORD	wordpools/wasnorm_wordpool_less_exclusions.txt	LTP193	ltpFR	10	3	1	MOLECULE	905	n/a	n/a	0	n/a	0	0	0	0.57763671875	0.412841796875	1	upper	amplitud.ttf
721272	START	n/a	LTP193	ltpFR	10	n/a	n/a	n/a	n/a	n/a	n/a	n/a	n/a	n/a	n/a	n/a	n/a	n/a	n/a	n/a	n/a
722320	PROB	n/a	LTP193	ltpFR	10	n/a	n/a	n/a	n/a	n/a	n/a	n/a	20	6	7	7	n/a	n/a	n/a	n/a	n/a
724799	PROB	n/a	LTP193	ltpFR	10	n/a	n/a	n/a	n/a	n/a	n/a	n/a	17	6	6	5	n/a	n/a	n/a	n/a	n/a
726746	PROB	n/a	LTP193	ltpFR	10	n/a	n/a	n/a	n/a	n/a	n/a	n/a	12	3	2	7	n/a	n/a	n/a	n/a	n/a
728294	STOP	n/a	LTP193	ltpFR	10	n/a	n/a	n/a	n/a	n/a	n/a	n/a	n/a	n/a	n/a	n/a	n/a	n/a	n/a	n/a	n/a
731191	REC_START	n/a	LTP193	ltpFR	10	3	n/a	n/a	n/a	n/a	n/a	n/a	n/a	0	0	0	n/a	n/a	n/a	n/a	n/a
733380	REC_WORD	wordpools/wasnorm_wordpool_less_exclusions.txt	LTP193	ltpFR	10	3	1	MOLECULE	905	n/a	n/a	0	n/a	0	0	0	n/a	n/a	n/a	n/a	n/a
735421	REC_WORD	wordpools/wasnorm_wordpool_less_exclusions.txt	LTP193	ltpFR	10	3	1	PILL	1068	n/a	n/a	0	n/a	0	0	0	n/a	n/a	n/a	n/a	n/a
736788	REC_WORD	wordpools/wasnorm_wordpool_less_exclusions.txt	LTP193	ltpFR	10	3	1	CHOCOLATE	306	n/a	n/a	0	n/a	0	0	0	n/a	n/a	n/a	n/a	n/a
738075	REC_WORD	wordpools/wasnorm_wordpool_less_exclusions.txt	LTP193	ltpFR	10	3	1	SCROLL	1257	n/a	n/a	0	n/a	0	0	0	n/a	n/a	n/a	n/a	n/a
739706	REC_WORD	wordpools/wasnorm_wordpool_less_exclusions.txt	LTP193	ltpFR	10	3	1	NOTEBOOK	959	n/a	n/a	0	n/a	0	0	0	n/a	n/a	n/a	n/a	n/a
743463	REC_WORD	wordpools/wasnorm_wordpool_less_exclusions.txt	LTP193	ltpFR	10	3	1	SCENERY	1247	n/a	n/a	0	n/a	0	0	0	n/a	n/a	n/a	n/a	n/a
746032	REC_WORD	wordpools/wasnorm_wordpool_less_exclusions.txt	LTP193	ltpFR	10	3	1	JUNGLE	764	n/a	n/a	0	n/a	0	0	0	n/a	n/a	n/a	n/a	n/a
747863	REC_WORD	wordpools/wasnorm_wordpool_less_exclusions.txt	LTP193	ltpFR	10	3	1	ELEPHANT	523	n/a	n/a	1	n/a	0	0	0	n/a	n/a	n/a	n/a	n/a
748521	REC_WORD	wordpools/wasnorm_wordpool_less_exclusions.txt	LTP193	ltpFR	10	3	1	ZEBRA	1635	n/a	n/a	1	n/a	0	0	0	n/a	n/a	n/a	n/a	n/a
749414	REC_WORD	wordpools/wasnorm_wordpool_less_exclusions.txt	LTP193	ltpFR	10	3	1	CHIMPANZEE	302	n/a	n/a	1	n/a	0	0	0	n/a	n/a	n/a	n/a	n/a
751370	REC_WORD	wordpools/wasnorm_wordpool_less_exclusions.txt	LTP193	ltpFR	10	3	1	ZOO	1637	n/a	n/a	0	n/a	0	0	0	n/a	n/a	n/a	n/a	n/a
754992	REC_WORD	wordpools/wasnorm_wordpool_less_exclusions.txt	LTP193	ltpFR	10	3	1	ALBUM	14	n/a	n/a	0	n/a	0	0	0	n/a	n/a	n/a	n/a	n/a
771199	REC_WORD	wordpools/wasnorm_wordpool_less_exclusions.txt	LTP193	ltpFR	10	3	1	NOTEBOOK	959	n/a	n/a	0	n/a	0	0	0	n/a	n/a	n/a	n/a	n/a
771559	REC_WORD	wordpools/wasnorm_wordpool_less_exclusions.txt	LTP193	ltpFR	10	3	1	SCROLL	1257	n/a	n/a	0	n/a	0	0	0	n/a	n/a	n/a	n/a	n/a
818559	WORD	wordpools/wasnorm_wordpool_less_exclusions.txt	LTP193	ltpFR	10	4	0	SICKLE	1302	n/a	n/a	1	n/a	0	0	0	0.422607421875	0.5869140625	0	lower	zerothre.ttf
822536	WORD	wordpools/wasnorm_wordpool_less_exclusions.txt	LTP193	ltpFR	10	4	0	FIELD	562	n/a	n/a	1	n/a	0	0	0	0.422607421875	0.5869140625	0	lower	zerothre.ttf
826530	WORD	wordpools/wasnorm_wordpool_less_exclusions.txt	LTP193	ltpFR	10	4	1	BUILDER	190	n/a	n/a	1	n/a	0	0	0	0.57763671875	0.412841796875	1	upper	amplitud.ttf
830524	WORD	wordpools/wasnorm_wordpool_less_exclusions.txt	LTP193	ltpFR	10	4	1	EUROPE	541	n/a	n/a	1	n/a	0	0	0	0.57763671875	0.412841796875	1	upper	amplitud.ttf
834369	WORD	wordpools/wasnorm_wordpool_less_exclusions.txt	LTP193	ltpFR	10	4	1	POTATO	1115	n/a	n/a	0	n/a	0	0	0	0.57763671875	0.412841796875	1	upper	amplitud.ttf
838529	WORD	wordpools/wasnorm_wordpool_less_exclusions.txt	LTP193	ltpFR	10	4	0	BARK	87	n/a	n/a	0	n/a	0	0	0	0.422607421875	0.5869140625	0	lower	zerothre.ttf
842407	WORD	wordpools/wasnorm_wordpool_less_exclusions.txt	LTP193	ltpFR	10	4	0	BEETLE	116	n/a	n/a	0	n/a	0	0	0	0.422607421875	0.5869140625	0	lower	zerothre.ttf
846351	WORD	wordpools/wasnorm_wordpool_less_exclusions.txt	LTP193	ltpFR	10	4	0	FACTORY	548	n/a	n/a	1	n/a	0	0	0	0.422607421875	0.5869140625	0	lower	zerothre.ttf
850212	WORD	wordpools/wasnorm_wordpool_less_exclusions.txt	LTP193	ltpFR	10	4	1	CORN	381	n/a	n/a	0	n/a	0	0	0	0.57763671875	0.412841796875	1	upper	amplitud.ttf
854206	WORD	wordpools/wasnorm_wordpool_less_exclusions.txt	LTP193	ltpFR	10	4	1	FRANCE	601	n/a	n/a	1	n/a	0	0	0	0.57763671875	0.412841796875	1	upper	amplitud.ttf
858350	WORD	wordpools/wasnorm_wordpool_less_exclusions.txt	LTP193	ltpFR	10	4	1	NIECE	952	n/a	n/a	1	n/a	0	0	0	0.57763671875	0.412841796875	1	upper	amplitud.ttf
862194	WORD	wordpools/wasnorm_wordpool_less_exclusions.txt	LTP193	ltpFR	10	4	1	PIGMENT	1066	n/a	n/a	0	n/a	0	0	0	0.57763671875	0.412841796875	1	upper	amplitud.ttf
866021	WORD	wordpools/wasnorm_wordpool_less_exclusions.txt	LTP193	ltpFR	10	4	1	SKIN	1318	n/a	n/a	0	n/a	0	0	0	0.57763671875	0.412841796875	1	upper	amplitud.ttf
870066	WORD	wordpools/wasnorm_wordpool_less_exclusions.txt	LTP193	ltpFR	10	4	0	INSECT	740	n/a	n/a	0	n/a	0	0	0	0.422607421875	0.5869140625	0	lower	zerothre.ttf
873943	WORD	wordpools/wasnorm_wordpool_less_exclusions.txt	LTP193	ltpFR	10	4	0	BUTTERFLY	206	n/a	n/a	0	n/a	0	0	0	0.422607421875	0.5869140625	0	lower	zerothre.ttf
878054	WORD	wordpools/wasnorm_wordpool_less_exclusions.txt	LTP193	ltpFR	10	4	0	LAVA	804	n/a	n/a	1	n/a	0	0	0	0.422607421875	0.5869140625	0	lower	zerothre.ttf
883629	REC_START	n/a	LTP193	ltpFR	10	4	n/a	n/a	n/a	n/a	n/a	n/a	n/a	0	0	0	n/a	n/a	n/a	n/a	n/a
884457	REC_WORD	wordpools/wasnorm_wordpool_less_exclusions.txt	LTP193	ltpFR	10	4	0	LAVA	804	n/a	n/a	1	n/a	0	0	0	n/a	n/a	n/a	n/a	n/a
885090	REC_WORD	wordpools/wasnorm_wordpool_less_exclusions.txt	LTP193	ltpFR	10	4	0	BUTTERFLY	206	n/a	n/a	0	n/a	0	0	0	n/a	n/a	n/a	n/a	n/a
885899	REC_WORD	wordpools/wasnorm_wordpool_less_exclusions.txt	LTP193	ltpFR	10	4	0	BEETLE	116	n/a	n/a	0	n/a	0	0	0	n/a	n/a	n/a	n/a	n/a
886597	REC_WORD	wordpools/wasnorm_wordpool_less_exclusions.txt	LTP193	ltpFR	10	4	0	INSECT	740	n/a	n/a	0	n/a	0	0	0	n/a	n/a	n/a	n/a	n/a
887355	REC_WORD	wordpools/wasnorm_wordpool_less_exclusions.txt	LTP193	ltpFR	10	4	1	NIECE	952	n/a	n/a	1	n/a	0	0	0	n/a	n/a	n/a	n/a	n/a
888074	REC_WORD	wordpools/wasnorm_wordpool_less_exclusions.txt	LTP193	ltpFR	10	4	1	FRANCE	601	n/a	n/a	1	n/a	0	0	0	n/a	n/a	n/a	n/a	n/a
889002	REC_WORD	wordpools/wasnorm_wordpool_less_exclusions.txt	LTP193	ltpFR	10	4	1	EUROPE	541	n/a	n/a	1	n/a	0	0	0	n/a	n/a	n/a	n/a	n/a
889824	REC_WORD	wordpools/wasnorm_wordpool_less_exclusions.txt	LTP193	ltpFR	10	4	1	POTATO	1115	n/a	n/a	0	n/a	0	0	0	n/a	n/a	n/a	n/a	n/a
890772	REC_WORD	wordpools/wasnorm_wordpool_less_exclusions.txt	LTP193	ltpFR	10	4	1	CORN	381	n/a	n/a	0	n/a	0	0	0	n/a	n/a	n/a	n/a	n/a
891621	REC_WORD	wordpools/wasnorm_wordpool_less_exclusions.txt	LTP193	ltpFR	10	4	0	SICKLE	1302	n/a	n/a	1	n/a	0	0	0	n/a	n/a	n/a	n/a	n/a
892713	REC_WORD	wordpools/wasnorm_wordpool_less_exclusions.txt	LTP193	ltpFR	10	4	0	BARK	87	n/a	n/a	0	n/a	0	0	0	n/a	n/a	n/a	n/a	n/a
896788	REC_WORD	wordpools/wasnorm_wordpool_less_exclusions.txt	LTP193	ltpFR	10	4	1	SKIN	1318	n/a	n/a	0	n/a	0	0	0	n/a	n/a	n/a	n/a	n/a
897871	REC_WORD	wordpools/wasnorm_wordpool_less_exclusions.txt	LTP193	ltpFR	10	4	1	PIGMENT	1066	n/a	n/a	0	n/a	0	0	0	n/a	n/a	n/a	n/a	n/a
903374	REC_WORD	wordpools/wasnorm_wordpool_less_exclusions.txt	LTP193	ltpFR	10	4	0	FIELD	562	n/a	n/a	1	n/a	0	0	0	n/a	n/a	n/a	n/a	n/a
916609	REC_WORD	wordpools/wasnorm_wordpool_less_exclusions.txt	LTP193	ltpFR	10	4	0	BUTTERFLY	206	n/a	n/a	0	n/a	0	0	0	n/a	n/a	n/a	n/a	n/a
918290	REC_WORD	wordpools/wasnorm_wordpool_less_exclusions.txt	LTP193	ltpFR	10	4	0	LAVA	804	n/a	n/a	1	n/a	0	0	0	n/a	n/a	n/a	n/a	n/a
945952	REC_WORD	wordpools/wasnorm_wordpool_less_exclusions.txt	LTP193	ltpFR	10	4	0	SICKLE	1302	n/a	n/a	1	n/a	0	0	0	n/a	n/a	n/a	n/a	n/a
967121	WORD	wordpools/wasnorm_wordpool_less_exclusions.txt	LTP193	ltpFR	10	5	0	WAGON	1578	n/a	n/a	1	n/a	0	0	0	0.422607421875	0.5869140625	0	lower	zerothre.ttf
971331	WORD	wordpools/wasnorm_wordpool_less_exclusions.txt	LTP193	ltpFR	10	5	0	PEARL	1034	n/a	n/a	0	n/a	0	0	0	0.422607421875	0.5869140625	0	lower	zerothre.ttf
975458	WORD	wordpools/wasnorm_wordpool_less_exclusions.txt	LTP193	ltpFR	10	5	0	TREASURE	1500	n/a	n/a	1	n/a	0	0	0	0.422607421875	0.5869140625	0	lower	zerothre.ttf
979436	WORD	wordpools/wasnorm_wordpool_less_exclusions.txt	LTP193	ltpFR	10	5	0	COMMUNITY	356	n/a	n/a	1	n/a	0	0	0	0.422607421875	0.5869140625	0	lower	zerothre.ttf
983629	WORD	wordpools/wasnorm_wordpool_less_exclusions.txt	LTP193	ltpFR	10	5	0	NUT	965	n/a	n/a	0	n/a	0	0	0	0.422607421875	0.5869140625	0	lower	zerothre.ttf
987822	WORD	wordpools/wasnorm_wordpool_less_exclusions.txt	LTP193	ltpFR	10	5	0	PUPIL	1143	n/a	n/a	1	n/a	0	0	0	0.422607421875	0.5869140625	0	lower	zerothre.ttf
992000	WORD	wordpools/wasnorm_wordpool_less_exclusions.txt	LTP193	ltpFR	10	5	0	MOTOR	922	n/a	n/a	1	n/a	0	0	0	0.422607421875	0.5869140625	0	lower	zerothre.ttf
996211	WORD	wordpools/wasnorm_wordpool_less_exclusions.txt	LTP193	ltpFR	10	5	0	DUST	508	n/a	n/a	0	n/a	0	0	0	0.422607421875	0.5869140625	0	lower	zerothre.ttf
1000272	WORD	wordpools/wasnorm_wordpool_less_exclusions.txt	LTP193	ltpFR	10	5	0	WINDSHIELD	1612	n/a	n/a	1	n/a	0	0	0	0.422607421875	0.5869140625	0	lower	zerothre.ttf
1004464	WORD	wordpools/wasnorm_wordpool_less_exclusions.txt	LTP193	ltpFR	10	5	0	MOVIE	927	n/a	n/a	1	n/a	0	0	0	0.422607421875	0.5869140625	0	lower	zerothre.ttf
1008608	WORD	wordpools/wasnorm_wordpool_less_exclusions.txt	LTP193	ltpFR	10	5	0	TENT	1449	n/a	n/a	1	n/a	0	0	0	0.422607421875	0.5869140625	0	lower	zerothre.ttf
1012752	WORD	wordpools/wasnorm_wordpool_less_exclusions.txt	LTP193	ltpFR	10	5	0	JUGGLER	763	n/a	n/a	1	n/a	0	0	0	0.422607421875	0.5869140625	0	lower	zerothre.ttf
1016946	WORD	wordpools/wasnorm_wordpool_less_exclusions.txt	LTP193	ltpFR	10	5	0	CLOWN	330	n/a	n/a	1	n/a	0	0	0	0.422607421875	0.5869140625	0	lower	zerothre.ttf
1021140	WORD	wordpools/wasnorm_wordpool_less_exclusions.txt	LTP193	ltpFR	10	5	0	DIRT	472	n/a	n/a	0	n/a	0	0	0	0.422607421875	0.5869140625	0	lower	zerothre.ttf
1025034	WORD	wordpools/wasnorm_wordpool_less_exclusions.txt	LTP193	ltpFR	10	5	0	PASSENGER	1020	n/a	n/a	1	n/a	0	0	0	0.422607421875	0.5869140625	0	lower	zerothre.ttf
1029228	WORD	wordpools/wasnorm_wordpool_less_exclusions.txt	LTP193	ltpFR	10	5	0	TRICYCLE	1506	n/a	n/a	1	n/a	0	0	0	0.422607421875	0.5869140625	0	lower	zerothre.ttf
1032241	START	n/a	LTP193	ltpFR	10	n/a	n/a	n/a	n/a	n/a	n/a	n/a	n/a	n/a	n/a	n/a	n/a	n/a	n/a	n/a	n/a
1033239	PROB	n/a	LTP193	ltpFR	10	n/a	n/a	n/a	n/a	n/a	n/a	n/a	20	9	6	5	n/a	n/a	n/a	n/a	n/a
1035336	PROB	n/a	LTP193	ltpFR	10	n/a	n/a	n/a	n/a	n/a	n/a	n/a	23	8	6	9	n/a	n/a	n/a	n/a	n/a
1037715	PROB	n/a	LTP193	ltpFR	10	n/a	n/a	n/a	n/a	n/a	n/a	n/a	11	2	5	4	n/a	n/a	n/a	n/a	n/a
1039147	PROB	n/a	LTP193	ltpFR	10	n/a	n/a	n/a	n/a	n/a	n/a	n/a	14	4	2	8	n/a	n/a	n/a	n/a	n/a
1040312	PROB	n/a	LTP193	ltpFR	10	n/a	n/a	n/a	n/a	n/a	n/a	n/a	15	9	3	3	n/a	n/a	n/a	n/a	n/a
1041327	PROB	n/a	LTP193	ltpFR	10	n/a	n/a	n/a	n/a	n/a	n/a	n/a	13	4	2	7	n/a	n/a	n/a	n/a	n/a
1042907	PROB	n/a	LTP193	ltpFR	10	n/a	n/a	n/a	n/a	n/a	n/a	n/a	18	7	7	4	n/a	n/a	n/a	n/a	n/a
1044554	PROB	n/a	LTP193	ltpFR	10	n/a	n/a	n/a	n/a	n/a	n/a	n/a	20	6	7	7	n/a	n/a	n/a	n/a	n/a
1046186	PROB	n/a	LTP193	ltpFR	10	n/a	n/a	n/a	n/a	n/a	n/a	n/a	15	9	5	1	n/a	n/a	n/a	n/a	n/a
1047629	STOP	n/a	LTP193	ltpFR	10	n/a	n/a	n/a	n/a	n/a	n/a	n/a	n/a	n/a	n/a	n/a	n/a	n/a	n/a	n/a	n/a
1050013	REC_START	n/a	LTP193	ltpFR	10	5	n/a	n/a	n/a	n/a	n/a	n/a	n/a	0	0	0	n/a	n/a	n/a	n/a	n/a
1051110	REC_WORD	wordpools/wasnorm_wordpool_less_exclusions.txt	LTP193	ltpFR	10	5	0	PUPIL	1143	n/a	n/a	1	n/a	0	0	0	n/a	n/a	n/a	n/a	n/a
1052702	REC_WORD	wordpools/wasnorm_wordpool_less_exclusions.txt	LTP193	ltpFR	10	5	0	JUGGLER	763	n/a	n/a	1	n/a	0	0	0	n/a	n/a	n/a	n/a	n/a
1053929	REC_WORD	wordpools/wasnorm_wordpool_less_exclusions.txt	LTP193	ltpFR	10	5	0	CLOWN	330	n/a	n/a	1	n/a	0	0	0	n/a	n/a	n/a	n/a	n/a
1055266	REC_WORD	wordpools/wasnorm_wordpool_less_exclusions.txt	LTP193	ltpFR	10	5	0	PEARL	1034	n/a	n/a	0	n/a	0	0	0	n/a	n/a	n/a	n/a	n/a
1056393	REC_WORD	wordpools/wasnorm_wordpool_less_exclusions.txt	LTP193	ltpFR	10	5	0	TREASURE	1500	n/a	n/a	1	n/a	0	0	0	n/a	n/a	n/a	n/a	n/a
1057695	REC_WORD	wordpools/wasnorm_wordpool_less_exclusions.txt	LTP193	ltpFR	10	5	0	WAGON	1578	n/a	n/a	1	n/a	0	0	0	n/a	n/a	n/a	n/a	n/a
1060349	REC_WORD	wordpools/wasnorm_wordpool_less_exclusions.txt	LTP193	ltpFR	10	5	0	TRICYCLE	1506	n/a	n/a	1	n/a	0	0	0	n/a	n/a	n/a	n/a	n/a
1061846	REC_WORD	wordpools/wasnorm_wordpool_less_exclusions.txt	LTP193	ltpFR	10	5	0	DUST	508	n/a	n/a	0	n/a	0	0	0	n/a	n/a	n/a	n/a	n/a
1062988	REC_WORD	wordpools/wasnorm_wordpool_less_exclusions.txt	LTP193	ltpFR	10	5	0	DIRT	472	n/a	n/a	0	n/a	0	0	0	n/a	n/a	n/a	n/a	n/a
1066600	REC_WORD	wordpools/wasnorm_wordpool_less_exclusions.txt	LTP193	ltpFR	10	5	0	COMMUNITY	356	n/a	n/a	1	n/a	0	0	0	n/a	n/a	n/a	n/a	n/a
1072167	REC_WORD	wordpools/wasnorm_wordpool_less_exclusions.txt	LTP193	ltpFR	10	5	0	PASSENGER	1020	n/a	n/a	1	n/a	0	0	0	n/a	n/a	n/a	n/a	n/a
1075265	REC_WORD	wordpools/wasnorm_wordpool_less_exclusions.txt	LTP193	ltpFR	10	5	0	NUT	965	n/a	n/a	0	n/a	0	0	0	n/a	n/a	n/a	n/a	n/a
1081551	REC_WORD	wordpools/wasnorm_wordpool_less_exclusions.txt	LTP193	ltpFR	10	5	0	WINDSHIELD	1612	n/a	n/a	1	n/a	0	0	0	n/a	n/a	n/a	n/a	n/a
1117868	REC_WORD	wordpools/wasnorm_wordpool_less_exclusions.txt	LTP193	ltpFR	10	5	0	MOTOR	922	n/a	n/a	1	n/a	0	0	0	n/a	n/a	n/a	n/a	n/a
1133539	START	n/a	LTP193	ltpFR	10	n/a	n/a	n/a	n/a	n/a	n/a	n/a	n/a	n/a	n/a	n/a	n/a	n/a	n/a	n/a	n/a
1135054	PROB	n/a	LTP193	ltpFR	10	n/a	n/a	n/a	n/a	n/a	n/a	n/a	13	2	7	4	n/a	n/a	n/a	n/a	n/a
1138265	PROB	n/a	LTP193	ltpFR	10	n/a	n/a	n/a	n/a	n/a	n/a	n/a	20	6	7	7	n/a	n/a	n/a	n/a	n/a
1139463	PROB	n/a	LTP193	ltpFR	10	n/a	n/a	n/a	n/a	n/a	n/a	n/a	11	3	5	8	n/a	n/a	n/a	n/a	n/a
1140811	PROB	n/a	LTP193	ltpFR	10	n/a	n/a	n/a	n/a	n/a	n/a	n/a	15	3	5	7	n/a	n/a	n/a	n/a	n/a
1142376	PROB	n/a	LTP193	ltpFR	10	n/a	n/a	n/a	n/a	n/a	n/a	n/a	14	7	6	1	n/a	n/a	n/a	n/a	n/a
1143806	PROB	n/a	LTP193	ltpFR	10	n/a	n/a	n/a	n/a	n/a	n/a	n/a	12	4	6	2	n/a	n/a	n/a	n/a	n/a
1145105	PROB	n/a	LTP193	ltpFR	10	n/a	n/a	n/a	n/a	n/a	n/a	n/a	11	4	5	2	n/a	n/a	n/a	n/a	n/a
1146403	PROB	n/a	LTP193	ltpFR	10	n/a	n/a	n/a	n/a	n/a	n/a	n/a	11	5	3	3	n/a	n/a	n/a	n/a	n/a
1147600	PROB	n/a	LTP193	ltpFR	10	n/a	n/a	n/a	n/a	n/a	n/a	n/a	14	5	4	4	n/a	n/a	n/a	n/a	n/a
1149198	STOP	n/a	LTP193	ltpFR	10	n/a	n/a	n/a	n/a	n/a	n/a	n/a	n/a	n/a	n/a	n/a	n/a	n/a	n/a	n/a	n/a
1150529	WORD	wordpools/wasnorm_wordpool_less_exclusions.txt	LTP193	ltpFR	10	6	1	CRAB	397	n/a	n/a	0	n/a	0	0	0	0.57763671875	0.412841796875	1	upper	amplitud.ttf
1153542	START	n/a	LTP193	ltpFR	10	n/a	n/a	n/a	n/a	n/a	n/a	n/a	n/a	n/a	n/a	n/a	n/a	n/a	n/a	n/a	n/a
1154474	PROB	n/a	LTP193	ltpFR	10	n/a	n/a	n/a	n/a	n/a	n/a	n/a	14	1	6	7	n/a	n/a	n/a	n/a	n/a
1156305	PROB	n/a	LTP193	ltpFR	10	n/a	n/a	n/a	n/a	n/a	n/a	n/a	10	5	1	4	n/a	n/a	n/a	n/a	n/a
1157586	PROB	n/a	LTP193	ltpFR	10	n/a	n/a	n/a	n/a	n/a	n/a	n/a	17	5	7	5	n/a	n/a	n/a	n/a	n/a
1159168	PROB	n/a	LTP193	ltpFR	10	n/a	n/a	n/a	n/a	n/a	n/a	n/a	17	1	9	7	n/a	n/a	n/a	n/a	n/a
1160731	PROB	n/a	LTP193	ltpFR	10	n/a	n/a	n/a	n/a	n/a	n/a	n/a	16	9	1	6	n/a	n/a	n/a	n/a	n/a
1162213	PROB	n/a	LTP193	ltpFR	10	n/a	n/a	n/a	n/a	n/a	n/a	n/a	7	1	2	4	n/a	n/a	n/a	n/a	n/a
1163345	PROB	n/a	LTP193	ltpFR	10	n/a	n/a	n/a	n/a	n/a	n/a	n/a	21	8	7	6	n/a	n/a	n/a	n/a	n/a
1165092	PROB	n/a	LTP193	ltpFR	10	n/a	n/a	n/a	n/a	n/a	n/a	n/a	15	4	2	9	n/a	n/a	n/a	n/a	n/a
1166357	PROB	n/a	LTP193	ltpFR	10	n/a	n/a	n/a	n/a	n/a	n/a	n/a	16	2	9	5	n/a	n/a	n/a	n/a	n/a
1167438	PROB	n/a	LTP193	ltpFR	10	n/a	n/a	n/a	n/a	n/a	n/a	n/a	19	9	2	8	n/a	n/a	n/a	n/a	n/a
1168549	STOP	n/a	LTP193	ltpFR	10	n/a	n/a	n/a	n/a	n/a	n/a	n/a	n/a	n/a	n/a	n/a	n/a	n/a	n/a	n/a	n/a
1170633	WORD	wordpools/wasnorm_wordpool_less_exclusions.txt	LTP193	ltpFR	10	6	1	BAIT	70	n/a	n/a	0	n/a	0	0	0	0.57763671875	0.412841796875	1	upper	amplitud.ttf
1173645	START	n/a	LTP193	ltpFR	10	n/a	n/a	n/a	n/a	n/a	n/a	n/a	n/a	n/a	n/a	n/a	n/a	n/a	n/a	n/a	n/a
1174560	PROB	n/a	LTP193	ltpFR	10	n/a	n/a	n/a	n/a	n/a	n/a	n/a	11	7	3	1	n/a	n/a	n/a	n/a	n/a
1175842	PROB	n/a	LTP193	ltpFR	10	n/a	n/a	n/a	n/a	n/a	n/a	n/a	16	6	9	1	n/a	n/a	n/a	n/a	n/a
1177091	PROB	n/a	LTP193	ltpFR	10	n/a	n/a	n/a	n/a	n/a	n/a	n/a	17	9	7	1	n/a	n/a	n/a	n/a	n/a
1178754	PROB	n/a	LTP193	ltpFR	10	n/a	n/a	n/a	n/a	n/a	n/a	n/a	17	7	1	9	n/a	n/a	n/a	n/a	n/a
1181168	PROB	n/a	LTP193	ltpFR	10	n/a	n/a	n/a	n/a	n/a	n/a	n/a	22	9	8	7	n/a	n/a	n/a	n/a	n/a
1184512	PROB	n/a	LTP193	ltpFR	10	n/a	n/a	n/a	n/a	n/a	n/a	n/a	10	1	1	8	n/a	n/a	n/a	n/a	n/a
1185627	PROB	n/a	LTP193	ltpFR	10	n/a	n/a	n/a	n/a	n/a	n/a	n/a	210	7	9	4	n/a	n/a	n/a	n/a	n/a
1187259	PROB	n/a	LTP193	ltpFR	10	n/a	n/a	n/a	n/a	n/a	n/a	n/a	15	5	5	5	n/a	n/a	n/a	n/a	n/a
1188302	STOP	n/a	LTP193	ltpFR	10	n/a	n/a	n/a	n/a	n/a	n/a	n/a	n/a	n/a	n/a	n/a	n/a	n/a	n/a	n/a	n/a
1190853	WORD	wordpools/wasnorm_wordpool_less_exclusions.txt	LTP193	ltpFR	10	6	1	GANG	619	n/a	n/a	1	n/a	0	0	0	0.57763671875	0.412841796875	1	upper	amplitud.ttf
1193865	START	n/a	LTP193	ltpFR	10	n/a	n/a	n/a	n/a	n/a	n/a	n/a	n/a	n/a	n/a	n/a	n/a	n/a	n/a	n/a	n/a
1194697	PROB	n/a	LTP193	ltpFR	10	n/a	n/a	n/a	n/a	n/a	n/a	n/a	17	9	1	7	n/a	n/a	n/a	n/a	n/a
1196129	PROB	n/a	LTP193	ltpFR	10	n/a	n/a	n/a	n/a	n/a	n/a	n/a	18	7	4	7	n/a	n/a	n/a	n/a	n/a
1198474	PROB	n/a	LTP193	ltpFR	10	n/a	n/a	n/a	n/a	n/a	n/a	n/a	11	1	4	6	n/a	n/a	n/a	n/a	n/a
1199706	PROB	n/a	LTP193	ltpFR	10	n/a	n/a	n/a	n/a	n/a	n/a	n/a	14	4	5	5	n/a	n/a	n/a	n/a	n/a
1200971	PROB	n/a	LTP193	ltpFR	10	n/a	n/a	n/a	n/a	n/a	n/a	n/a	15	5	3	7	n/a	n/a	n/a	n/a	n/a
1202187	PROB	n/a	LTP193	ltpFR	10	n/a	n/a	n/a	n/a	n/a	n/a	n/a	24	9	9	9	n/a	n/a	n/a	n/a	n/a
1204466	PROB	n/a	LTP193	ltpFR	10	n/a	n/a	n/a	n/a	n/a	n/a	n/a	15	7	1	7	n/a	n/a	n/a	n/a	n/a
1205764	PROB	n/a	LTP193	ltpFR	10	n/a	n/a	n/a	n/a	n/a	n/a	n/a	12	5	5	2	n/a	n/a	n/a	n/a	n/a
1206895	PROB	n/a	LTP193	ltpFR	10	n/a	n/a	n/a	n/a	n/a	n/a	n/a	17	7	2	8	n/a	n/a	n/a	n/a	n/a
1208144	PROB	n/a	LTP193	ltpFR	10	n/a	n/a	n/a	n/a	n/a	n/a	n/a	9	1	3	5	n/a	n/a	n/a	n/a	n/a
1209190	STOP	n/a	LTP193	ltpFR	10	n/a	n/a	n/a	n/a	n/a	n/a	n/a	n/a	n/a	n/a	n/a	n/a	n/a	n/a	n/a	n/a
1210889	WORD	wordpools/wasnorm_wordpool_less_exclusions.txt	LTP193	ltpFR	10	6	1	GROCERIES	663	n/a	n/a	0	n/a	0	0	0	0.57763671875	0.412841796875	1	upper	amplitud.ttf
1213902	START	n/a	LTP193	ltpFR	10	n/a	n/a	n/a	n/a	n/a	n/a	n/a	n/a	n/a	n/a	n/a	n/a	n/a	n/a	n/a	n/a
1214800	PROB	n/a	LTP193	ltpFR	10	n/a	n/a	n/a	n/a	n/a	n/a	n/a	20	6	5	9	n/a	n/a	n/a	n/a	n/a
1217198	PROB	n/a	LTP193	ltpFR	10	n/a	n/a	n/a	n/a	n/a	n/a	n/a	15	5	6	4	n/a	n/a	n/a	n/a	n/a
1218263	PROB	n/a	LTP193	ltpFR	10	n/a	n/a	n/a	n/a	n/a	n/a	n/a	14	1	5	8	n/a	n/a	n/a	n/a	n/a
1219976	PROB	n/a	LTP193	ltpFR	10	n/a	n/a	n/a	n/a	n/a	n/a	n/a	23	9	5	9	n/a	n/a	n/a	n/a	n/a
1222107	PROB	n/a	LTP193	ltpFR	10	n/a	n/a	n/a	n/a	n/a	n/a	n/a	22	6	8	7	n/a	n/a	n/a	n/a	n/a
1228342	STOP	n/a	LTP193	ltpFR	10	n/a	n/a	n/a	n/a	n/a	n/a	n/a	n/a	n/a	n/a	n/a	n/a	n/a	n/a	n/a	n/a
1231026	WORD	wordpools/wasnorm_wordpool_less_exclusions.txt	LTP193	ltpFR	10	6	0	PRINCESS	1125	n/a	n/a	0	n/a	0	0	0	0.422607421875	0.5869140625	0	lower	zerothre.ttf
1234038	START	n/a	LTP193	ltpFR	10	n/a	n/a	n/a	n/a	n/a	n/a	n/a	n/a	n/a	n/a	n/a	n/a	n/a	n/a	n/a	n/a
1235187	PROB	n/a	LTP193	ltpFR	10	n/a	n/a	n/a	n/a	n/a	n/a	n/a	20	5	6	9	n/a	n/a	n/a	n/a	n/a
1236817	PROB	n/a	LTP193	ltpFR	10	n/a	n/a	n/a	n/a	n/a	n/a	n/a	18	3	7	8	n/a	n/a	n/a	n/a	n/a
1238432	PROB	n/a	LTP193	ltpFR	10	n/a	n/a	n/a	n/a	n/a	n/a	n/a	12	7	3	2	n/a	n/a	n/a	n/a	n/a
1239779	PROB	n/a	LTP193	ltpFR	10	n/a	n/a	n/a	n/a	n/a	n/a	n/a	17	7	6	4	n/a	n/a	n/a	n/a	n/a
1240978	PROB	n/a	LTP193	ltpFR	10	n/a	n/a	n/a	n/a	n/a	n/a	n/a	16	8	6	2	n/a	n/a	n/a	n/a	n/a
1242410	PROB	n/a	LTP193	ltpFR	10	n/a	n/a	n/a	n/a	n/a	n/a	n/a	25	9	7	9	n/a	n/a	n/a	n/a	n/a
1245837	PROB	n/a	LTP193	ltpFR	10	n/a	n/a	n/a	n/a	n/a	n/a	n/a	15	8	1	6	n/a	n/a	n/a	n/a	n/a
1247485	PROB	n/a	LTP193	ltpFR	10	n/a	n/a	n/a	n/a	n/a	n/a	n/a	8	2	4	2	n/a	n/a	n/a	n/a	n/a
1248533	STOP	n/a	LTP193	ltpFR	10	n/a	n/a	n/a	n/a	n/a	n/a	n/a	n/a	n/a	n/a	n/a	n/a	n/a	n/a	n/a	n/a
1251230	WORD	wordpools/wasnorm_wordpool_less_exclusions.txt	LTP193	ltpFR	10	6	0	BALCONY	72	n/a	n/a	1	n/a	0	0	0	0.422607421875	0.5869140625	0	lower	zerothre.ttf
1254243	START	n/a	LTP193	ltpFR	10	n/a	n/a	n/a	n/a	n/a	n/a	n/a	n/a	n/a	n/a	n/a	n/a	n/a	n/a	n/a	n/a
1255424	PROB	n/a	LTP193	ltpFR	10	n/a	n/a	n/a	n/a	n/a	n/a	n/a	20	4	9	7	n/a	n/a	n/a	n/a	n/a
1257071	PROB	n/a	LTP193	ltpFR	10	n/a	n/a	n/a	n/a	n/a	n/a	n/a	18	7	2	9	n/a	n/a	n/a	n/a	n/a
1258734	PROB	n/a	LTP193	ltpFR	10	n/a	n/a	n/a	n/a	n/a	n/a	n/a	8	5	2	1	n/a	n/a	n/a	n/a	n/a
1259850	PROB	n/a	LTP193	ltpFR	10	n/a	n/a	n/a	n/a	n/a	n/a	n/a	18	7	6	5	n/a	n/a	n/a	n/a	n/a
1261365	PROB	n/a	LTP193	ltpFR	10	n/a	n/a	n/a	n/a	n/a	n/a	n/a	18	4	6	8	n/a	n/a	n/a	n/a	n/a
1262347	PROB	n/a	LTP193	ltpFR	10	n/a	n/a	n/a	n/a	n/a	n/a	n/a	17	5	5	7	n/a	n/a	n/a	n/a	n/a
1263461	PROB	n/a	LTP193	ltpFR	10	n/a	n/a	n/a	n/a	n/a	n/a	n/a	9	1	1	7	n/a	n/a	n/a	n/a	n/a
1264726	PROB	n/a	LTP193	ltpFR	10	n/a	n/a	n/a	n/a	n/a	n/a	n/a	20	8	6	6	n/a	n/a	n/a	n/a	n/a
1267156	PROB	n/a	LTP193	ltpFR	10	n/a	n/a	n/a	n/a	n/a	n/a	n/a	14	4	9	1	n/a	n/a	n/a	n/a	n/a
1268749	STOP	n/a	LTP193	ltpFR	10	n/a	n/a	n/a	n/a	n/a	n/a	n/a	n/a	n/a	n/a	n/a	n/a	n/a	n/a	n/a	n/a
1271134	WORD	wordpools/wasnorm_wordpool_less_exclusions.txt	LTP193	ltpFR	10	6	0	ARROW	40	n/a	n/a	0	n/a	0	0	0	0.422607421875	0.5869140625	0	lower	zerothre.ttf
1274146	START	n/a	LTP193	ltpFR	10	n/a	n/a	n/a	n/a	n/a	n/a	n/a	n/a	n/a	n/a	n/a	n/a	n/a	n/a	n/a	n/a
1275078	PROB	n/a	LTP193	ltpFR	10	n/a	n/a	n/a	n/a	n/a	n/a	n/a	10	3	5	2	n/a	n/a	n/a	n/a	n/a
1276558	PROB	n/a	LTP193	ltpFR	10	n/a	n/a	n/a	n/a	n/a	n/a	n/a	8	4	2	2	n/a	n/a	n/a	n/a	n/a
1277856	PROB	n/a	LTP193	ltpFR	10	n/a	n/a	n/a	n/a	n/a	n/a	n/a	16	5	9	2	n/a	n/a	n/a	n/a	n/a
1279138	PROB	n/a	LTP193	ltpFR	10	n/a	n/a	n/a	n/a	n/a	n/a	n/a	18	8	9	1	n/a	n/a	n/a	n/a	n/a
1280386	PROB	n/a	LTP193	ltpFR	10	n/a	n/a	n/a	n/a	n/a	n/a	n/a	14	8	3	3	n/a	n/a	n/a	n/a	n/a
1282749	PROB	n/a	LTP193	ltpFR	10	n/a	n/a	n/a	n/a	n/a	n/a	n/a	18	7	6	5	n/a	n/a	n/a	n/a	n/a
1284030	PROB	n/a	LTP193	ltpFR	10	n/a	n/a	n/a	n/a	n/a	n/a	n/a	21	9	6	6	n/a	n/a	n/a	n/a	n/a
1286759	PROB	n/a	LTP193	ltpFR	10	n/a	n/a	n/a	n/a	n/a	n/a	n/a	23	9	6	8	n/a	n/a	n/a	n/a	n/a
1290005	STOP	n/a	LTP193	ltpFR	10	n/a	n/a	n/a	n/a	n/a	n/a	n/a	n/a	n/a	n/a	n/a	n/a	n/a	n/a	n/a	n/a
1290986	WORD	wordpools/wasnorm_wordpool_less_exclusions.txt	LTP193	ltpFR	10	6	0	SPINACH	1352	n/a	n/a	0	n/a	0	0	0	0.422607421875	0.5869140625	0	lower	zerothre.ttf
1293999	START	n/a	LTP193	ltpFR	10	n/a	n/a	n/a	n/a	n/a	n/a	n/a	n/a	n/a	n/a	n/a	n/a	n/a	n/a	n/a	n/a
1295114	PROB	n/a	LTP193	ltpFR	10	n/a	n/a	n/a	n/a	n/a	n/a	n/a	8	2	2	4	n/a	n/a	n/a	n/a	n/a
1297245	PROB	n/a	LTP193	ltpFR	10	n/a	n/a	n/a	n/a	n/a	n/a	n/a	13	1	3	9	n/a	n/a	n/a	n/a	n/a
1298791	PROB	n/a	LTP193	ltpFR	10	n/a	n/a	n/a	n/a	n/a	n/a	n/a	14	6	2	6	n/a	n/a	n/a	n/a	n/a
1300290	PROB	n/a	LTP193	ltpFR	10	n/a	n/a	n/a	n/a	n/a	n/a	n/a	21	9	6	6	n/a	n/a	n/a	n/a	n/a
1302902	PROB	n/a	LTP193	ltpFR	10	n/a	n/a	n/a	n/a	n/a	n/a	n/a	11	4	4	3	n/a	n/a	n/a	n/a	n/a
1306165	PROB	n/a	LTP193	ltpFR	10	n/a	n/a	n/a	n/a	n/a	n/a	n/a	15	4	7	4	n/a	n/a	n/a	n/a	n/a
1308395	PROB	n/a	LTP193	ltpFR	10	n/a	n/a	n/a	n/a	n/a	n/a	n/a	15	2	8	5	n/a	n/a	n/a	n/a	n/a
1309342	STOP	n/a	LTP193	ltpFR	10	n/a	n/a	n/a	n/a	n/a	n/a	n/a	n/a	n/a	n/a	n/a	n/a	n/a	n/a	n/a	n/a
1310890	WORD	wordpools/wasnorm_wordpool_less_exclusions.txt	LTP193	ltpFR	10	6	0	QUEEN	1149	n/a	n/a	1	n/a	0	0	0	0.422607421875	0.5869140625	0	lower	zerothre.ttf
1313903	START	n/a	LTP193	ltpFR	10	n/a	n/a	n/a	n/a	n/a	n/a	n/a	n/a	n/a	n/a	n/a	n/a	n/a	n/a	n/a	n/a
1315034	PROB	n/a	LTP193	ltpFR	10	n/a	n/a	n/a	n/a	n/a	n/a	n/a	8	2	2	4	n/a	n/a	n/a	n/a	n/a
1316216	PROB	n/a	LTP193	ltpFR	10	n/a	n/a	n/a	n/a	n/a	n/a	n/a	14	5	7	2	n/a	n/a	n/a	n/a	n/a
1317713	PROB	n/a	LTP193	ltpFR	10	n/a	n/a	n/a	n/a	n/a	n/a	n/a	4	1	2	1	n/a	n/a	n/a	n/a	n/a
1318762	PROB	n/a	LTP193	ltpFR	10	n/a	n/a	n/a	n/a	n/a	n/a	n/a	18	3	7	8	n/a	n/a	n/a	n/a	n/a
1320010	PROB	n/a	LTP193	ltpFR	10	n/a	n/a	n/a	n/a	n/a	n/a	n/a	14	9	4	1	n/a	n/a	n/a	n/a	n/a
1321591	PROB	n/a	LTP193	ltpFR	10	n/a	n/a	n/a	n/a	n/a	n/a	n/a	18	3	6	9	n/a	n/a	n/a	n/a	n/a
1323038	PROB	n/a	LTP193	ltpFR	10	n/a	n/a	n/a	n/a	n/a	n/a	n/a	11	8	2	1	n/a	n/a	n/a	n/a	n/a
1324819	PROB	n/a	LTP193	ltpFR	10	n/a	n/a	n/a	n/a	n/a	n/a	n/a	12	4	6	2	n/a	n/a	n/a	n/a	n/a
1325984	PROB	n/a	LTP193	ltpFR	10	n/a	n/a	n/a	n/a	n/a	n/a	n/a	23	5	9	9	n/a	n/a	n/a	n/a	n/a
1327698	PROB	n/a	LTP193	ltpFR	10	n/a	n/a	n/a	n/a	n/a	n/a	n/a	9	2	4	3	n/a	n/a	n/a	n/a	n/a
1329701	STOP	n/a	LTP193	ltpFR	10	n/a	n/a	n/a	n/a	n/a	n/a	n/a	n/a	n/a	n/a	n/a	n/a	n/a	n/a	n/a	n/a
1330727	WORD	wordpools/wasnorm_wordpool_less_exclusions.txt	LTP193	ltpFR	10	6	1	STEP	1377	n/a	n/a	0	n/a	0	0	0	0.57763671875	0.412841796875	1	upper	amplitud.ttf
1333740	START	n/a	LTP193	ltpFR	10	n/a	n/a	n/a	n/a	n/a	n/a	n/a	n/a	n/a	n/a	n/a	n/a	n/a	n/a	n/a	n/a
1334854	PROB	n/a	LTP193	ltpFR	10	n/a	n/a	n/a	n/a	n/a	n/a	n/a	9	4	1	4	n/a	n/a	n/a	n/a	n/a
1335986	PROB	n/a	LTP193	ltpFR	10	n/a	n/a	n/a	n/a	n/a	n/a	n/a	20	7	4	9	n/a	n/a	n/a	n/a	n/a
1337567	PROB	n/a	LTP193	ltpFR	10	n/a	n/a	n/a	n/a	n/a	n/a	n/a	20	6	5	9	n/a	n/a	n/a	n/a	n/a
1339116	PROB	n/a	LTP193	ltpFR	10	n/a	n/a	n/a	n/a	n/a	n/a	n/a	14	1	4	9	n/a	n/a	n/a	n/a	n/a
1340729	PROB	n/a	LTP193	ltpFR	10	n/a	n/a	n/a	n/a	n/a	n/a	n/a	17	8	7	2	n/a	n/a	n/a	n/a	n/a
1342294	PROB	n/a	LTP193	ltpFR	10	n/a	n/a	n/a	n/a	n/a	n/a	n/a	9	5	2	2	n/a	n/a	n/a	n/a	n/a
1343708	PROB	n/a	LTP193	ltpFR	10	n/a	n/a	n/a	n/a	n/a	n/a	n/a	8	2	2	4	n/a	n/a	n/a	n/a	n/a
1345190	PROB	n/a	LTP193	ltpFR	10	n/a	n/a	n/a	n/a	n/a	n/a	n/a	14	2	4	8	n/a	n/a	n/a	n/a	n/a
1346836	PROB	n/a	LTP193	ltpFR	10	n/a	n/a	n/a	n/a	n/a	n/a	n/a	14	5	2	7	n/a	n/a	n/a	n/a	n/a
1349740	STOP	n/a	LTP193	ltpFR	10	n/a	n/a	n/a	n/a	n/a	n/a	n/a	n/a	n/a	n/a	n/a	n/a	n/a	n/a	n/a	n/a
1350697	WORD	wordpools/wasnorm_wordpool_less_exclusions.txt	LTP193	ltpFR	10	6	1	MESSAGE	888	n/a	n/a	0	n/a	0	0	0	0.57763671875	0.412841796875	1	upper	amplitud.ttf
1353710	START	n/a	LTP193	ltpFR	10	n/a	n/a	n/a	n/a	n/a	n/a	n/a	n/a	n/a	n/a	n/a	n/a	n/a	n/a	n/a	n/a
1354841	PROB	n/a	LTP193	ltpFR	10	n/a	n/a	n/a	n/a	n/a	n/a	n/a	8	6	1	1	n/a	n/a	n/a	n/a	n/a
1356373	PROB	n/a	LTP193	ltpFR	10	n/a	n/a	n/a	n/a	n/a	n/a	n/a	24	8	9	7	n/a	n/a	n/a	n/a	n/a
1358403	PROB	n/a	LTP193	ltpFR	10	n/a	n/a	n/a	n/a	n/a	n/a	n/a	19	3	9	7	n/a	n/a	n/a	n/a	n/a
1360716	PROB	n/a	LTP193	ltpFR	10	n/a	n/a	n/a	n/a	n/a	n/a	n/a	13	6	4	3	n/a	n/a	n/a	n/a	n/a
1362530	PROB	n/a	LTP193	ltpFR	10	n/a	n/a	n/a	n/a	n/a	n/a	n/a	21	4	9	9	n/a	n/a	n/a	n/a	n/a
1365625	PROB	n/a	LTP193	ltpFR	10	n/a	n/a	n/a	n/a	n/a	n/a	n/a	21	9	9	3	n/a	n/a	n/a	n/a	n/a
1368973	STOP	n/a	LTP193	ltpFR	10	n/a	n/a	n/a	n/a	n/a	n/a	n/a	n/a	n/a	n/a	n/a	n/a	n/a	n/a	n/a	n/a
1370651	WORD	wordpools/wasnorm_wordpool_less_exclusions.txt	LTP193	ltpFR	10	6	1	TILE	1468	n/a	n/a	0	n/a	0	0	0	0.57763671875	0.412841796875	1	upper	amplitud.ttf
1373663	START	n/a	LTP193	ltpFR	10	n/a	n/a	n/a	n/a	n/a	n/a	n/a	n/a	n/a	n/a	n/a	n/a	n/a	n/a	n/a	n/a
1374828	PROB	n/a	LTP193	ltpFR	10	n/a	n/a	n/a	n/a	n/a	n/a	n/a	16	2	9	5	n/a	n/a	n/a	n/a	n/a
1376310	PROB	n/a	LTP193	ltpFR	10	n/a	n/a	n/a	n/a	n/a	n/a	n/a	15	7	5	3	n/a	n/a	n/a	n/a	n/a
1377574	PROB	n/a	LTP193	ltpFR	10	n/a	n/a	n/a	n/a	n/a	n/a	n/a	14	8	5	1	n/a	n/a	n/a	n/a	n/a
1378972	PROB	n/a	LTP193	ltpFR	10	n/a	n/a	n/a	n/a	n/a	n/a	n/a	15	6	5	4	n/a	n/a	n/a	n/a	n/a
1380071	PROB	n/a	LTP193	ltpFR	10	n/a	n/a	n/a	n/a	n/a	n/a	n/a	16	1	7	8	n/a	n/a	n/a	n/a	n/a
1381169	PROB	n/a	LTP193	ltpFR	10	n/a	n/a	n/a	n/a	n/a	n/a	n/a	4	2	1	1	n/a	n/a	n/a	n/a	n/a
1382085	PROB	n/a	LTP193	ltpFR	10	n/a	n/a	n/a	n/a	n/a	n/a	n/a	14	5	3	6	n/a	n/a	n/a	n/a	n/a
1383798	PROB	n/a	LTP193	ltpFR	10	n/a	n/a	n/a	n/a	n/a	n/a	n/a	12	3	8	1	n/a	n/a	n/a	n/a	n/a
1385745	PROB	n/a	LTP193	ltpFR	10	n/a	n/a	n/a	n/a	n/a	n/a	n/a	5	1	1	3	n/a	n/a	n/a	n/a	n/a
1387492	PROB	n/a	LTP193	ltpFR	10	n/a	n/a	n/a	n/a	n/a	n/a	n/a	18	8	9	1	n/a	n/a	n/a	n/a	n/a
1388805	STOP	n/a	LTP193	ltpFR	10	n/a	n/a	n/a	n/a	n/a	n/a	n/a	n/a	n/a	n/a	n/a	n/a	n/a	n/a	n/a	n/a
1390687	WORD	wordpools/wasnorm_wordpool_less_exclusions.txt	LTP193	ltpFR	10	6	1	CARPET	247	n/a	n/a	0	n/a	0	0	0	0.57763671875	0.412841796875	1	upper	amplitud.ttf
1393700	START	n/a	LTP193	ltpFR	10	n/a	n/a	n/a	n/a	n/a	n/a	n/a	n/a	n/a	n/a	n/a	n/a	n/a	n/a	n/a	n/a
1394715	PROB	n/a	LTP193	ltpFR	10	n/a	n/a	n/a	n/a	n/a	n/a	n/a	13	7	1	5	n/a	n/a	n/a	n/a	n/a
1396579	PROB	n/a	LTP193	ltpFR	10	n/a	n/a	n/a	n/a	n/a	n/a	n/a	11	1	8	2	n/a	n/a	n/a	n/a	n/a
1398194	PROB	n/a	LTP193	ltpFR	10	n/a	n/a	n/a	n/a	n/a	n/a	n/a	16	3	7	9	n/a	n/a	n/a	n/a	n/a
1399442	PROB	n/a	LTP193	ltpFR	10	n/a	n/a	n/a	n/a	n/a	n/a	n/a	19	7	6	6	n/a	n/a	n/a	n/a	n/a
1401854	PROB	n/a	LTP193	ltpFR	10	n/a	n/a	n/a	n/a	n/a	n/a	n/a	9	6	1	2	n/a	n/a	n/a	n/a	n/a
1403353	PROB	n/a	LTP193	ltpFR	10	n/a	n/a	n/a	n/a	n/a	n/a	n/a	8	4	1	3	n/a	n/a	n/a	n/a	n/a
1405150	PROB	n/a	LTP193	ltpFR	10	n/a	n/a	n/a	n/a	n/a	n/a	n/a	18	9	5	4	n/a	n/a	n/a	n/a	n/a
1406365	PROB	n/a	LTP193	ltpFR	10	n/a	n/a	n/a	n/a	n/a	n/a	n/a	17	3	6	8	n/a	n/a	n/a	n/a	n/a
1409700	STOP	n/a	LTP193	ltpFR	10	n/a	n/a	n/a	n/a	n/a	n/a	n/a	n/a	n/a	n/a	n/a	n/a	n/a	n/a	n/a	n/a
1410824	WORD	wordpools/wasnorm_wordpool_less_exclusions.txt	LTP193	ltpFR	10	6	0	SENATE	1267	n/a	n/a	1	n/a	0	0	0	0.422607421875	0.5869140625	0	lower	zerothre.ttf
1413837	START	n/a	LTP193	ltpFR	10	n/a	n/a	n/a	n/a	n/a	n/a	n/a	n/a	n/a	n/a	n/a	n/a	n/a	n/a	n/a	n/a
1414918	PROB	n/a	LTP193	ltpFR	10	n/a	n/a	n/a	n/a	n/a	n/a	n/a	13	9	1	3	n/a	n/a	n/a	n/a	n/a
1416400	PROB	n/a	LTP193	ltpFR	10	n/a	n/a	n/a	n/a	n/a	n/a	n/a	22	9	4	9	n/a	n/a	n/a	n/a	n/a
1418264	PROB	n/a	LTP193	ltpFR	10	n/a	n/a	n/a	n/a	n/a	n/a	n/a	11	6	4	1	n/a	n/a	n/a	n/a	n/a
1419561	PROB	n/a	LTP193	ltpFR	10	n/a	n/a	n/a	n/a	n/a	n/a	n/a	19	8	6	5	n/a	n/a	n/a	n/a	n/a
1420892	PROB	n/a	LTP193	ltpFR	10	n/a	n/a	n/a	n/a	n/a	n/a	n/a	15	6	7	1	n/a	n/a	n/a	n/a	n/a
1423488	PROB	n/a	LTP193	ltpFR	10	n/a	n/a	n/a	n/a	n/a	n/a	n/a	11	1	8	2	n/a	n/a	n/a	n/a	n/a
1425237	PROB	n/a	LTP193	ltpFR	10	n/a	n/a	n/a	n/a	n/a	n/a	n/a	15	7	3	5	n/a	n/a	n/a	n/a	n/a
1426219	PROB	n/a	LTP193	ltpFR	10	n/a	n/a	n/a	n/a	n/a	n/a	n/a	16	9	2	5	n/a	n/a	n/a	n/a	n/a
1427417	PROB	n/a	LTP193	ltpFR	10	n/a	n/a	n/a	n/a	n/a	n/a	n/a	12	5	1	6	n/a	n/a	n/a	n/a	n/a
1428725	STOP	n/a	LTP193	ltpFR	10	n/a	n/a	n/a	n/a	n/a	n/a	n/a	n/a	n/a	n/a	n/a	n/a	n/a	n/a	n/a	n/a
1431011	WORD	wordpools/wasnorm_wordpool_less_exclusions.txt	LTP193	ltpFR	10	6	0	CANDIDATE	228	n/a	n/a	1	n/a	0	0	0	0.422607421875	0.5869140625	0	lower	zerothre.ttf
1434023	START	n/a	LTP193	ltpFR	10	n/a	n/a	n/a	n/a	n/a	n/a	n/a	n/a	n/a	n/a	n/a	n/a	n/a	n/a	n/a	n/a
1435021	PROB	n/a	LTP193	ltpFR	10	n/a	n/a	n/a	n/a	n/a	n/a	n/a	20	8	6	6	n/a	n/a	n/a	n/a	n/a
1436387	PROB	n/a	LTP193	ltpFR	10	n/a	n/a	n/a	n/a	n/a	n/a	n/a	17	9	6	2	n/a	n/a	n/a	n/a	n/a
1438317	PROB	n/a	LTP193	ltpFR	10	n/a	n/a	n/a	n/a	n/a	n/a	n/a	23	8	9	6	n/a	n/a	n/a	n/a	n/a
1441196	PROB	n/a	LTP193	ltpFR	10	n/a	n/a	n/a	n/a	n/a	n/a	n/a	11	6	2	3	n/a	n/a	n/a	n/a	n/a
1442493	PROB	n/a	LTP193	ltpFR	10	n/a	n/a	n/a	n/a	n/a	n/a	n/a	16	7	2	9	n/a	n/a	n/a	n/a	n/a
1444790	PROB	n/a	LTP193	ltpFR	10	n/a	n/a	n/a	n/a	n/a	n/a	n/a	14	9	2	3	n/a	n/a	n/a	n/a	n/a
1447586	PROB	n/a	LTP193	ltpFR	10	n/a	n/a	n/a	n/a	n/a	n/a	n/a	18	7	5	6	n/a	n/a	n/a	n/a	n/a
1448861	STOP	n/a	LTP193	ltpFR	10	n/a	n/a	n/a	n/a	n/a	n/a	n/a	n/a	n/a	n/a	n/a	n/a	n/a	n/a	n/a	n/a
1451198	WORD	wordpools/wasnorm_wordpool_less_exclusions.txt	LTP193	ltpFR	10	6	0	CABBAGE	210	n/a	n/a	0	n/a	0	0	0	0.422607421875	0.5869140625	0	lower	zerothre.ttf
1454210	START	n/a	LTP193	ltpFR	10	n/a	n/a	n/a	n/a	n/a	n/a	n/a	n/a	n/a	n/a	n/a	n/a	n/a	n/a	n/a	n/a
1455325	PROB	n/a	LTP193	ltpFR	10	n/a	n/a	n/a	n/a	n/a	n/a	n/a	22	6	8	8	n/a	n/a	n/a	n/a	n/a
1458404	PROB	n/a	LTP193	ltpFR	10	n/a	n/a	n/a	n/a	n/a	n/a	n/a	17	9	4	4	n/a	n/a	n/a	n/a	n/a
1460716	PROB	n/a	LTP193	ltpFR	10	n/a	n/a	n/a	n/a	n/a	n/a	n/a	9	2	1	6	n/a	n/a	n/a	n/a	n/a
1462630	PROB	n/a	LTP193	ltpFR	10	n/a	n/a	n/a	n/a	n/a	n/a	n/a	18	7	9	2	n/a	n/a	n/a	n/a	n/a
1464112	PROB	n/a	LTP193	ltpFR	10	n/a	n/a	n/a	n/a	n/a	n/a	n/a	13	3	5	5	n/a	n/a	n/a	n/a	n/a
1465294	PROB	n/a	LTP193	ltpFR	10	n/a	n/a	n/a	n/a	n/a	n/a	n/a	14	5	1	8	n/a	n/a	n/a	n/a	n/a
1467424	PROB	n/a	LTP193	ltpFR	10	n/a	n/a	n/a	n/a	n/a	n/a	n/a	22	8	5	9	n/a	n/a	n/a	n/a	n/a
1470037	STOP	n/a	LTP193	ltpFR	10	n/a	n/a	n/a	n/a	n/a	n/a	n/a	n/a	n/a	n/a	n/a	n/a	n/a	n/a	n/a	n/a
1472017	REC_START	n/a	LTP193	ltpFR	10	6	n/a	n/a	n/a	n/a	n/a	n/a	n/a	0	0	0	n/a	n/a	n/a	n/a	n/a
1473069	REC_WORD	wordpools/wasnorm_wordpool_less_exclusions.txt	LTP193	ltpFR	10	6	0	CABBAGE	210	n/a	n/a	0	n/a	0	0	0	n/a	n/a	n/a	n/a	n/a
1473917	REC_WORD	wordpools/wasnorm_wordpool_less_exclusions.txt	LTP193	ltpFR	10	6	0	SPINACH	1352	n/a	n/a	0	n/a	0	0	0	n/a	n/a	n/a	n/a	n/a
1475120	REC_WORD	wordpools/wasnorm_wordpool_less_exclusions.txt	LTP193	ltpFR	10	6	1	GROCERIES	663	n/a	n/a	0	n/a	0	0	0	n/a	n/a	n/a	n/a	n/a
1476347	REC_WORD	wordpools/wasnorm_wordpool_less_exclusions.txt	LTP193	ltpFR	10	6	1	CRAB	397	n/a	n/a	0	n/a	0	0	0	n/a	n/a	n/a	n/a	n/a
1477674	REC_WORD	wordpools/wasnorm_wordpool_less_exclusions.txt	LTP193	ltpFR	10	6	1	BAIT	70	n/a	n/a	0	n/a	0	0	0	n/a	n/a	n/a	n/a	n/a
1478811	REC_WORD	wordpools/wasnorm_wordpool_less_exclusions.txt	LTP193	ltpFR	10	6	1	TILE	1468	n/a	n/a	0	n/a	0	0	0	n/a	n/a	n/a	n/a	n/a
1479974	REC_WORD	wordpools/wasnorm_wordpool_less_exclusions.txt	LTP193	ltpFR	10	6	1	CARPET	247	n/a	n/a	0	n/a	0	0	0	n/a	n/a	n/a	n/a	n/a
1481156	REC_WORD	wordpools/wasnorm_wordpool_less_exclusions.txt	LTP193	ltpFR	10	6	0	PRINCESS	1125	n/a	n/a	0	n/a	0	0	0	n/a	n/a	n/a	n/a	n/a
1482154	REC_WORD	wordpools/wasnorm_wordpool_less_exclusions.txt	LTP193	ltpFR	10	6	0	QUEEN	1149	n/a	n/a	1	n/a	0	0	0	n/a	n/a	n/a	n/a	n/a
1483376	REC_WORD	wordpools/wasnorm_wordpool_less_exclusions.txt	LTP193	ltpFR	10	6	0	BALCONY	72	n/a	n/a	1	n/a	0	0	0	n/a	n/a	n/a	n/a	n/a
1484643	REC_WORD	wordpools/wasnorm_wordpool_less_exclusions.txt	LTP193	ltpFR	10	6	0	ARROW	40	n/a	n/a	0	n/a	0	0	0	n/a	n/a	n/a	n/a	n/a
1485571	REC_WORD	wordpools/wasnorm_wordpool_less_exclusions.txt	LTP193	ltpFR	10	6	1	MESSAGE	888	n/a	n/a	0	n/a	0	0	0	n/a	n/a	n/a	n/a	n/a
1486808	REC_WORD	wordpools/wasnorm_wordpool_less_exclusions.txt	LTP193	ltpFR	10	6	1	GANG	619	n/a	n/a	1	n/a	0	0	0	n/a	n/a	n/a	n/a	n/a
1490864	REC_WORD	wordpools/wasnorm_wordpool_less_exclusions.txt	LTP193	ltpFR	10	6	0	SENATE	1267	n/a	n/a	1	n/a	0	0	0	n/a	n/a	n/a	n/a	n/a
1492755	REC_WORD	wordpools/wasnorm_wordpool_less_exclusions.txt	LTP193	ltpFR	10	6	n/a	TOURIST	1488	n/a	n/a	n/a	n/a	0	0	0	n/a	n/a	n/a	n/a	n/a
1494132	REC_WORD	wordpools/wasnorm_wordpool_less_exclusions.txt	LTP193	ltpFR	10	6	0	CANDIDATE	228	n/a	n/a	1	n/a	0	0	0	n/a	n/a	n/a	n/a	n/a
1556856	WORD	wordpools/wasnorm_wordpool_less_exclusions.txt	LTP193	ltpFR	10	7	1	TICKET	1464	n/a	n/a	0	n/a	0	0	0	0.57763671875	0.412841796875	1	upper	amplitud.ttf
1560900	WORD	wordpools/wasnorm_wordpool_less_exclusions.txt	LTP193	ltpFR	10	7	1	COTTON	385	n/a	n/a	0	n/a	0	0	0	0.57763671875	0.412841796875	1	upper	amplitud.ttf
1565044	WORD	wordpools/wasnorm_wordpool_less_exclusions.txt	LTP193	ltpFR	10	7	1	ROOT	1210	n/a	n/a	0	n/a	0	0	0	0.57763671875	0.412841796875	1	upper	amplitud.ttf
1569004	WORD	wordpools/wasnorm_wordpool_less_exclusions.txt	LTP193	ltpFR	10	7	0	GORILLA	650	n/a	n/a	1	n/a	0	0	0	0.422607421875	0.5869140625	0	lower	zerothre.ttf
1573199	WORD	wordpools/wasnorm_wordpool_less_exclusions.txt	LTP193	ltpFR	10	7	0	POLYESTER	1100	n/a	n/a	1	n/a	0	0	0	0.422607421875	0.5869140625	0	lower	zerothre.ttf
1577260	WORD	wordpools/wasnorm_wordpool_less_exclusions.txt	LTP193	ltpFR	10	7	0	SUPPER	1411	n/a	n/a	1	n/a	0	0	0	0.422607421875	0.5869140625	0	lower	zerothre.ttf
1581221	WORD	wordpools/wasnorm_wordpool_less_exclusions.txt	LTP193	ltpFR	10	7	0	SCALE	1241	n/a	n/a	1	n/a	0	0	0	0.422607421875	0.5869140625	0	lower	zerothre.ttf
1585414	WORD	wordpools/wasnorm_wordpool_less_exclusions.txt	LTP193	ltpFR	10	7	1	THICKET	1455	n/a	n/a	0	n/a	0	0	0	0.57763671875	0.412841796875	1	upper	amplitud.ttf
1589557	WORD	wordpools/wasnorm_wordpool_less_exclusions.txt	LTP193	ltpFR	10	7	1	BRIDGE	174	n/a	n/a	0	n/a	0	0	0	0.57763671875	0.412841796875	1	upper	amplitud.ttf
1593651	WORD	wordpools/wasnorm_wordpool_less_exclusions.txt	LTP193	ltpFR	10	7	1	CORAL	378	n/a	n/a	0	n/a	0	0	0	0.57763671875	0.412841796875	1	upper	amplitud.ttf
1597495	WORD	wordpools/wasnorm_wordpool_less_exclusions.txt	LTP193	ltpFR	10	7	1	CURB	426	n/a	n/a	0	n/a	0	0	0	0.57763671875	0.412841796875	1	upper	amplitud.ttf
1601656	WORD	wordpools/wasnorm_wordpool_less_exclusions.txt	LTP193	ltpFR	10	7	1	BISON	131	n/a	n/a	1	n/a	0	0	0	0.57763671875	0.412841796875	1	upper	amplitud.ttf
1605500	WORD	wordpools/wasnorm_wordpool_less_exclusions.txt	LTP193	ltpFR	10	7	0	ALLIGATOR	16	n/a	n/a	1	n/a	0	0	0	0.422607421875	0.5869140625	0	lower	zerothre.ttf
1609494	WORD	wordpools/wasnorm_wordpool_less_exclusions.txt	LTP193	ltpFR	10	7	0	SALESMAN	1225	n/a	n/a	1	n/a	0	0	0	0.422607421875	0.5869140625	0	lower	zerothre.ttf
1613422	WORD	wordpools/wasnorm_wordpool_less_exclusions.txt	LTP193	ltpFR	10	7	0	FOOT	590	n/a	n/a	0	n/a	0	0	0	0.422607421875	0.5869140625	0	lower	zerothre.ttf
1617549	WORD	wordpools/wasnorm_wordpool_less_exclusions.txt	LTP193	ltpFR	10	7	0	TOENAIL	1474	n/a	n/a	0	n/a	0	0	0	0.422607421875	0.5869140625	0	lower	zerothre.ttf
1620561	START	n/a	LTP193	ltpFR	10	n/a	n/a	n/a	n/a	n/a	n/a	n/a	n/a	n/a	n/a	n/a	n/a	n/a	n/a	n/a	n/a
1621659	PROB	n/a	LTP193	ltpFR	10	n/a	n/a	n/a	n/a	n/a	n/a	n/a	12	3	5	4	n/a	n/a	n/a	n/a	n/a
1624190	PROB	n/a	LTP193	ltpFR	10	n/a	n/a	n/a	n/a	n/a	n/a	n/a	13	4	5	4	n/a	n/a	n/a	n/a	n/a
1626968	PROB	n/a	LTP193	ltpFR	10	n/a	n/a	n/a	n/a	n/a	n/a	n/a	8	2	4	2	n/a	n/a	n/a	n/a	n/a
1628094	STOP	n/a	LTP193	ltpFR	10	n/a	n/a	n/a	n/a	n/a	n/a	n/a	n/a	n/a	n/a	n/a	n/a	n/a	n/a	n/a	n/a
1630398	REC_START	n/a	LTP193	ltpFR	10	7	n/a	n/a	n/a	n/a	n/a	n/a	n/a	0	0	0	n/a	n/a	n/a	n/a	n/a
1632064	REC_WORD_VV	wordpools/wasnorm_wordpool_less_exclusions.txt	LTP193	ltpFR	10	7	n/a	<>	-1	n/a	n/a	n/a	n/a	0	0	0	n/a	n/a	n/a	n/a	n/a
1633431	REC_WORD	wordpools/wasnorm_wordpool_less_exclusions.txt	LTP193	ltpFR	10	7	n/a	CUT	-1	n/a	n/a	n/a	n/a	0	0	0	n/a	n/a	n/a	n/a	n/a
1634503	REC_WORD	wordpools/wasnorm_wordpool_less_exclusions.txt	LTP193	ltpFR	10	7	1	COTTON	385	n/a	n/a	0	n/a	0	0	0	n/a	n/a	n/a	n/a	n/a
1635681	REC_WORD	wordpools/wasnorm_wordpool_less_exclusions.txt	LTP193	ltpFR	10	7	1	TICKET	1464	n/a	n/a	0	n/a	0	0	0	n/a	n/a	n/a	n/a	n/a
1636703	REC_WORD	wordpools/wasnorm_wordpool_less_exclusions.txt	LTP193	ltpFR	10	7	1	THICKET	1455	n/a	n/a	0	n/a	0	0	0	n/a	n/a	n/a	n/a	n/a
1639187	REC_WORD	wordpools/wasnorm_wordpool_less_exclusions.txt	LTP193	ltpFR	10	7	0	SCALE	1241	n/a	n/a	1	n/a	0	0	0	n/a	n/a	n/a	n/a	n/a
1641029	REC_WORD	wordpools/wasnorm_wordpool_less_exclusions.txt	LTP193	ltpFR	10	7	0	GORILLA	650	n/a	n/a	1	n/a	0	0	0	n/a	n/a	n/a	n/a	n/a
1642835	REC_WORD	wordpools/wasnorm_wordpool_less_exclusions.txt	LTP193	ltpFR	10	7	1	BISON	131	n/a	n/a	1	n/a	0	0	0	n/a	n/a	n/a	n/a	n/a
1645798	REC_WORD	wordpools/wasnorm_wordpool_less_exclusions.txt	LTP193	ltpFR	10	7	1	BRIDGE	174	n/a	n/a	0	n/a	0	0	0	n/a	n/a	n/a	n/a	n/a
1653700	REC_WORD	wordpools/wasnorm_wordpool_less_exclusions.txt	LTP193	ltpFR	10	7	0	SUPPER	1411	n/a	n/a	1	n/a	0	0	0	n/a	n/a	n/a	n/a	n/a
1654827	REC_WORD	wordpools/wasnorm_wordpool_less_exclusions.txt	LTP193	ltpFR	10	7	0	SCALE	1241	n/a	n/a	1	n/a	0	0	0	n/a	n/a	n/a	n/a	n/a
1658479	REC_WORD	wordpools/wasnorm_wordpool_less_exclusions.txt	LTP193	ltpFR	10	7	1	CORAL	378	n/a	n/a	0	n/a	0	0	0	n/a	n/a	n/a	n/a	n/a
1672223	REC_WORD	wordpools/wasnorm_wordpool_less_exclusions.txt	LTP193	ltpFR	10	7	0	POLYESTER	1100	n/a	n/a	1	n/a	0	0	0	n/a	n/a	n/a	n/a	n/a
1680050	REC_WORD	wordpools/wasnorm_wordpool_less_exclusions.txt	LTP193	ltpFR	10	7	0	ALLIGATOR	16	n/a	n/a	1	n/a	0	0	0	n/a	n/a	n/a	n/a	n/a
1702569	REC_WORD	wordpools/wasnorm_wordpool_less_exclusions.txt	LTP193	ltpFR	10	7	1	BRIDGE	174	n/a	n/a	0	n/a	0	0	0	n/a	n/a	n/a	n/a	n/a
1709644	WORD	wordpools/wasnorm_wordpool_less_exclusions.txt	LTP193	ltpFR	10	8	0	BANJO	82	n/a	n/a	1	n/a	0	0	0	0.422607421875	0.5869140625	0	lower	zerothre.ttf
1713472	WORD	wordpools/wasnorm_wordpool_less_exclusions.txt	LTP193	ltpFR	10	8	0	CHAUFFEUR	283	n/a	n/a	1	n/a	0	0	0	0.422607421875	0.5869140625	0	lower	zerothre.ttf
1717334	WORD	wordpools/wasnorm_wordpool_less_exclusions.txt	LTP193	ltpFR	10	8	0	HOOK	715	n/a	n/a	0	n/a	0	0	0	0.422607421875	0.5869140625	0	lower	zerothre.ttf
1721378	WORD	wordpools/wasnorm_wordpool_less_exclusions.txt	LTP193	ltpFR	10	8	0	FIN	566	n/a	n/a	0	n/a	0	0	0	0.422607421875	0.5869140625	0	lower	zerothre.ttf
1725239	WORD	wordpools/wasnorm_wordpool_less_exclusions.txt	LTP193	ltpFR	10	8	1	KEYBOARD	774	n/a	n/a	0	n/a	0	0	0	0.57763671875	0.412841796875	1	upper	amplitud.ttf
1729383	WORD	wordpools/wasnorm_wordpool_less_exclusions.txt	LTP193	ltpFR	10	8	1	CARDINAL	244	n/a	n/a	0	n/a	0	0	0	0.57763671875	0.412841796875	1	upper	amplitud.ttf
1733393	WORD	wordpools/wasnorm_wordpool_less_exclusions.txt	LTP193	ltpFR	10	8	1	FREEWAY	603	n/a	n/a	0	n/a	0	0	0	0.57763671875	0.412841796875	1	upper	amplitud.ttf
1737503	WORD	wordpools/wasnorm_wordpool_less_exclusions.txt	LTP193	ltpFR	10	8	1	RECEPTIONIST	1174	n/a	n/a	1	n/a	0	0	0	0.57763671875	0.412841796875	1	upper	amplitud.ttf
1741597	WORD	wordpools/wasnorm_wordpool_less_exclusions.txt	LTP193	ltpFR	10	8	1	BEDROOM	111	n/a	n/a	0	n/a	0	0	0	0.57763671875	0.412841796875	1	upper	amplitud.ttf
1745641	WORD	wordpools/wasnorm_wordpool_less_exclusions.txt	LTP193	ltpFR	10	8	1	QUILL	1150	n/a	n/a	0	n/a	0	0	0	0.57763671875	0.412841796875	1	upper	amplitud.ttf
1749701	WORD	wordpools/wasnorm_wordpool_less_exclusions.txt	LTP193	ltpFR	10	8	0	PAD	998	n/a	n/a	0	n/a	0	0	0	0.422607421875	0.5869140625	0	lower	zerothre.ttf
1753845	WORD	wordpools/wasnorm_wordpool_less_exclusions.txt	LTP193	ltpFR	10	8	0	BLUEBERRY	140	n/a	n/a	0	n/a	0	0	0	0.422607421875	0.5869140625	0	lower	zerothre.ttf
1757856	WORD	wordpools/wasnorm_wordpool_less_exclusions.txt	LTP193	ltpFR	10	8	0	REEF	1177	n/a	n/a	1	n/a	0	0	0	0.422607421875	0.5869140625	0	lower	zerothre.ttf
1761916	WORD	wordpools/wasnorm_wordpool_less_exclusions.txt	LTP193	ltpFR	10	8	0	SINK	1309	n/a	n/a	1	n/a	0	0	0	0.422607421875	0.5869140625	0	lower	zerothre.ttf
1766111	WORD	wordpools/wasnorm_wordpool_less_exclusions.txt	LTP193	ltpFR	10	8	1	SWIMMER	1420	n/a	n/a	1	n/a	0	0	0	0.57763671875	0.412841796875	1	upper	amplitud.ttf
1770238	WORD	wordpools/wasnorm_wordpool_less_exclusions.txt	LTP193	ltpFR	10	8	1	TOASTER	1472	n/a	n/a	0	n/a	0	0	0	0.57763671875	0.412841796875	1	upper	amplitud.ttf
1775830	REC_START	n/a	LTP193	ltpFR	10	8	n/a	n/a	n/a	n/a	n/a	n/a	n/a	0	0	0	n/a	n/a	n/a	n/a	n/a
1776922	REC_WORD	wordpools/wasnorm_wordpool_less_exclusions.txt	LTP193	ltpFR	10	8	1	TOASTER	1472	n/a	n/a	0	n/a	0	0	0	n/a	n/a	n/a	n/a	n/a
1777423	REC_WORD	wordpools/wasnorm_wordpool_less_exclusions.txt	LTP193	ltpFR	10	8	0	SINK	1309	n/a	n/a	1	n/a	0	0	0	n/a	n/a	n/a	n/a	n/a
1778224	REC_WORD	wordpools/wasnorm_wordpool_less_exclusions.txt	LTP193	ltpFR	10	8	1	SWIMMER	1420	n/a	n/a	1	n/a	0	0	0	n/a	n/a	n/a	n/a	n/a
1781138	REC_WORD	wordpools/wasnorm_wordpool_less_exclusions.txt	LTP193	ltpFR	10	8	0	FIN	566	n/a	n/a	0	n/a	0	0	0	n/a	n/a	n/a	n/a	n/a
1782021	REC_WORD	wordpools/wasnorm_wordpool_less_exclusions.txt	LTP193	ltpFR	10	8	0	HOOK	715	n/a	n/a	0	n/a	0	0	0	n/a	n/a	n/a	n/a	n/a
1782949	REC_WORD	wordpools/wasnorm_wordpool_less_exclusions.txt	LTP193	ltpFR	10	8	1	CARDINAL	244	n/a	n/a	0	n/a	0	0	0	n/a	n/a	n/a	n/a	n/a
1784560	REC_WORD	wordpools/wasnorm_wordpool_less_exclusions.txt	LTP193	ltpFR	10	8	0	CHAUFFEUR	283	n/a	n/a	1	n/a	0	0	0	n/a	n/a	n/a	n/a	n/a
1785548	REC_WORD	wordpools/wasnorm_wordpool_less_exclusions.txt	LTP193	ltpFR	10	8	1	RECEPTIONIST	1174	n/a	n/a	1	n/a	0	0	0	n/a	n/a	n/a	n/a	n/a
1787733	REC_WORD	wordpools/wasnorm_wordpool_less_exclusions.txt	LTP193	ltpFR	10	8	1	FREEWAY	603	n/a	n/a	0	n/a	0	0	0	n/a	n/a	n/a	n/a	n/a
1789404	REC_WORD	wordpools/wasnorm_wordpool_less_exclusions.txt	LTP193	ltpFR	10	8	0	BANJO	82	n/a	n/a	1	n/a	0	0	0	n/a	n/a	n/a	n/a	n/a
1790731	REC_WORD	wordpools/wasnorm_wordpool_less_exclusions.txt	LTP193	ltpFR	10	8	1	KEYBOARD	774	n/a	n/a	0	n/a	0	0	0	n/a	n/a	n/a	n/a	n/a
1792183	REC_WORD	wordpools/wasnorm_wordpool_less_exclusions.txt	LTP193	ltpFR	10	8	1	BEDROOM	111	n/a	n/a	0	n/a	0	0	0	n/a	n/a	n/a	n/a	n/a
1858988	WORD	wordpools/wasnorm_wordpool_less_exclusions.txt	LTP193	ltpFR	10	9	0	OVAL	990	n/a	n/a	0	n/a	0	0	0	0.422607421875	0.5869140625	0	lower	zerothre.ttf
1863133	WORD	wordpools/wasnorm_wordpool_less_exclusions.txt	LTP193	ltpFR	10	9	0	DOUGH	489	n/a	n/a	1	n/a	0	0	0	0.422607421875	0.5869140625	0	lower	zerothre.ttf
1867277	WORD	wordpools/wasnorm_wordpool_less_exclusions.txt	LTP193	ltpFR	10	9	0	SPY	1360	n/a	n/a	1	n/a	0	0	0	0.422607421875	0.5869140625	0	lower	zerothre.ttf
1871387	WORD	wordpools/wasnorm_wordpool_less_exclusions.txt	LTP193	ltpFR	10	9	0	LAKE	796	n/a	n/a	1	n/a	0	0	0	0.422607421875	0.5869140625	0	lower	zerothre.ttf
1875348	WORD	wordpools/wasnorm_wordpool_less_exclusions.txt	LTP193	ltpFR	10	9	0	TRENCH	1503	n/a	n/a	1	n/a	0	0	0	0.422607421875	0.5869140625	0	lower	zerothre.ttf
1879392	WORD	wordpools/wasnorm_wordpool_less_exclusions.txt	LTP193	ltpFR	10	9	0	FORK	594	n/a	n/a	0	n/a	0	0	0	0.422607421875	0.5869140625	0	lower	zerothre.ttf
1883585	WORD	wordpools/wasnorm_wordpool_less_exclusions.txt	LTP193	ltpFR	10	9	0	LAMP	798	n/a	n/a	1	n/a	0	0	0	0.422607421875	0.5869140625	0	lower	zerothre.ttf
1887545	WORD	wordpools/wasnorm_wordpool_less_exclusions.txt	LTP193	ltpFR	10	9	0	WICK	1607	n/a	n/a	0	n/a	0	0	0	0.422607421875	0.5869140625	0	lower	zerothre.ttf
1891441	WORD	wordpools/wasnorm_wordpool_less_exclusions.txt	LTP193	ltpFR	10	9	0	DIAPER	459	n/a	n/a	0	n/a	0	0	0	0.422607421875	0.5869140625	0	lower	zerothre.ttf
1895500	WORD	wordpools/wasnorm_wordpool_less_exclusions.txt	LTP193	ltpFR	10	9	0	DOLL	481	n/a	n/a	0	n/a	0	0	0	0.422607421875	0.5869140625	0	lower	zerothre.ttf
1899444	WORD	wordpools/wasnorm_wordpool_less_exclusions.txt	LTP193	ltpFR	10	9	0	APRON	35	n/a	n/a	1	n/a	0	0	0	0.422607421875	0.5869140625	0	lower	zerothre.ttf
1903373	WORD	wordpools/wasnorm_wordpool_less_exclusions.txt	LTP193	ltpFR	10	9	0	DOUGHNUT	490	n/a	n/a	0	n/a	0	0	0	0.422607421875	0.5869140625	0	lower	zerothre.ttf
1907334	WORD	wordpools/wasnorm_wordpool_less_exclusions.txt	LTP193	ltpFR	10	9	0	SCALPEL	1243	n/a	n/a	0	n/a	0	0	0	0.422607421875	0.5869140625	0	lower	zerothre.ttf
1911559	WORD	wordpools/wasnorm_wordpool_less_exclusions.txt	LTP193	ltpFR	10	9	0	FORT	595	n/a	n/a	1	n/a	0	0	0	0.422607421875	0.5869140625	0	lower	zerothre.ttf
1915454	WORD	wordpools/wasnorm_wordpool_less_exclusions.txt	LTP193	ltpFR	10	9	0	TYPEWRITER	1531	n/a	n/a	1	n/a	0	0	0	0.422607421875	0.5869140625	0	lower	zerothre.ttf
1919647	WORD	wordpools/wasnorm_wordpool_less_exclusions.txt	LTP193	ltpFR	10	9	0	MARINE	869	n/a	n/a	0	n/a	0	0	0	0.422607421875	0.5869140625	0	lower	zerothre.ttf
1922660	START	n/a	LTP193	ltpFR	10	n/a	n/a	n/a	n/a	n/a	n/a	n/a	n/a	n/a	n/a	n/a	n/a	n/a	n/a	n/a	n/a
1923808	PROB	n/a	LTP193	ltpFR	10	n/a	n/a	n/a	n/a	n/a	n/a	n/a	15	3	6	6	n/a	n/a	n/a	n/a	n/a
1926021	PROB	n/a	LTP193	ltpFR	10	n/a	n/a	n/a	n/a	n/a	n/a	n/a	21	8	4	9	n/a	n/a	n/a	n/a	n/a
1928069	PROB	n/a	LTP193	ltpFR	10	n/a	n/a	n/a	n/a	n/a	n/a	n/a	17	9	2	6	n/a	n/a	n/a	n/a	n/a
1929866	PROB	n/a	LTP193	ltpFR	10	n/a	n/a	n/a	n/a	n/a	n/a	n/a	16	5	6	6	n/a	n/a	n/a	n/a	n/a
1931746	PROB	n/a	LTP193	ltpFR	10	n/a	n/a	n/a	n/a	n/a	n/a	n/a	5	3	1	3	n/a	n/a	n/a	n/a	n/a
1932911	PROB	n/a	LTP193	ltpFR	10	n/a	n/a	n/a	n/a	n/a	n/a	n/a	17	6	6	5	n/a	n/a	n/a	n/a	n/a
1934575	PROB	n/a	LTP193	ltpFR	10	n/a	n/a	n/a	n/a	n/a	n/a	n/a	19	9	4	6	n/a	n/a	n/a	n/a	n/a
1935823	PROB	n/a	LTP193	ltpFR	10	n/a	n/a	n/a	n/a	n/a	n/a	n/a	21	8	7	5	n/a	n/a	n/a	n/a	n/a
1938174	STOP	n/a	LTP193	ltpFR	10	n/a	n/a	n/a	n/a	n/a	n/a	n/a	n/a	n/a	n/a	n/a	n/a	n/a	n/a	n/a	n/a
1940617	REC_START	n/a	LTP193	ltpFR	10	9	n/a	n/a	n/a	n/a	n/a	n/a	n/a	0	0	0	n/a	n/a	n/a	n/a	n/a
1942542	REC_WORD	wordpools/wasnorm_wordpool_less_exclusions.txt	LTP193	ltpFR	10	9	0	SPY	1360	n/a	n/a	1	n/a	0	0	0	n/a	n/a	n/a	n/a	n/a
1944054	REC_WORD	wordpools/wasnorm_wordpool_less_exclusions.txt	LTP193	ltpFR	10	9	0	DOUGH	489	n/a	n/a	1	n/a	0	0	0	n/a	n/a	n/a	n/a	n/a
1945151	REC_WORD	wordpools/wasnorm_wordpool_less_exclusions.txt	LTP193	ltpFR	10	9	0	OVAL	990	n/a	n/a	0	n/a	0	0	0	n/a	n/a	n/a	n/a	n/a
1946159	REC_WORD	wordpools/wasnorm_wordpool_less_exclusions.txt	LTP193	ltpFR	10	9	0	DOUGHNUT	490	n/a	n/a	0	n/a	0	0	0	n/a	n/a	n/a	n/a	n/a
1947152	REC_WORD	wordpools/wasnorm_wordpool_less_exclusions.txt	LTP193	ltpFR	10	9	0	FORT	595	n/a	n/a	1	n/a	0	0	0	n/a	n/a	n/a	n/a	n/a
1948229	REC_WORD	wordpools/wasnorm_wordpool_less_exclusions.txt	LTP193	ltpFR	10	9	0	SCALPEL	1243	n/a	n/a	0	n/a	0	0	0	n/a	n/a	n/a	n/a	n/a
1949427	REC_WORD	wordpools/wasnorm_wordpool_less_exclusions.txt	LTP193	ltpFR	10	9	0	LAKE	796	n/a	n/a	1	n/a	0	0	0	n/a	n/a	n/a	n/a	n/a
1950679	REC_WORD	wordpools/wasnorm_wordpool_less_exclusions.txt	LTP193	ltpFR	10	9	0	TRENCH	1503	n/a	n/a	1	n/a	0	0	0	n/a	n/a	n/a	n/a	n/a
1951746	REC_WORD	wordpools/wasnorm_wordpool_less_exclusions.txt	LTP193	ltpFR	10	9	0	FORT	595	n/a	n/a	1	n/a	0	0	0	n/a	n/a	n/a	n/a	n/a
1953383	REC_WORD	wordpools/wasnorm_wordpool_less_exclusions.txt	LTP193	ltpFR	10	9	0	DIAPER	459	n/a	n/a	0	n/a	0	0	0	n/a	n/a	n/a	n/a	n/a
1964228	REC_WORD	wordpools/wasnorm_wordpool_less_exclusions.txt	LTP193	ltpFR	10	9	0	LAMP	798	n/a	n/a	1	n/a	0	0	0	n/a	n/a	n/a	n/a	n/a
1965809	REC_WORD	wordpools/wasnorm_wordpool_less_exclusions.txt	LTP193	ltpFR	10	9	0	WICK	1607	n/a	n/a	0	n/a	0	0	0	n/a	n/a	n/a	n/a	n/a
1993606	REC_WORD	wordpools/wasnorm_wordpool_less_exclusions.txt	LTP193	ltpFR	10	9	0	TYPEWRITER	1531	n/a	n/a	1	n/a	0	0	0	n/a	n/a	n/a	n/a	n/a
2010393	REC_WORD	wordpools/wasnorm_wordpool_less_exclusions.txt	LTP193	ltpFR	10	9	0	APRON	35	n/a	n/a	1	n/a	0	0	0	n/a	n/a	n/a	n/a	n/a
2023759	START	n/a	LTP193	ltpFR	10	n/a	n/a	n/a	n/a	n/a	n/a	n/a	n/a	n/a	n/a	n/a	n/a	n/a	n/a	n/a	n/a
2025274	PROB	n/a	LTP193	ltpFR	10	n/a	n/a	n/a	n/a	n/a	n/a	n/a	13	1	9	2	n/a	n/a	n/a	n/a	n/a
2026754	PROB	n/a	LTP193	ltpFR	10	n/a	n/a	n/a	n/a	n/a	n/a	n/a	18	2	7	9	n/a	n/a	n/a	n/a	n/a
2029052	PROB	n/a	LTP193	ltpFR	10	n/a	n/a	n/a	n/a	n/a	n/a	n/a	18	8	6	4	n/a	n/a	n/a	n/a	n/a
2030083	PROB	n/a	LTP193	ltpFR	10	n/a	n/a	n/a	n/a	n/a	n/a	n/a	21	9	6	6	n/a	n/a	n/a	n/a	n/a
2031530	PROB	n/a	LTP193	ltpFR	10	n/a	n/a	n/a	n/a	n/a	n/a	n/a	24	8	9	7	n/a	n/a	n/a	n/a	n/a
2033461	PROB	n/a	LTP193	ltpFR	10	n/a	n/a	n/a	n/a	n/a	n/a	n/a	10	5	2	3	n/a	n/a	n/a	n/a	n/a
2035442	PROB	n/a	LTP193	ltpFR	10	n/a	n/a	n/a	n/a	n/a	n/a	n/a	14	7	5	3	n/a	n/a	n/a	n/a	n/a
2037937	PROB	n/a	LTP193	ltpFR	10	n/a	n/a	n/a	n/a	n/a	n/a	n/a	15	9	2	4	n/a	n/a	n/a	n/a	n/a
2039005	STOP	n/a	LTP193	ltpFR	10	n/a	n/a	n/a	n/a	n/a	n/a	n/a	n/a	n/a	n/a	n/a	n/a	n/a	n/a	n/a	n/a
2040633	WORD	wordpools/wasnorm_wordpool_less_exclusions.txt	LTP193	ltpFR	10	10	1	CASHIER	254	n/a	n/a	1	n/a	0	0	0	0.57763671875	0.412841796875	1	upper	amplitud.ttf
2043646	START	n/a	LTP193	ltpFR	10	n/a	n/a	n/a	n/a	n/a	n/a	n/a	n/a	n/a	n/a	n/a	n/a	n/a	n/a	n/a	n/a
2044578	PROB	n/a	LTP193	ltpFR	10	n/a	n/a	n/a	n/a	n/a	n/a	n/a	15	6	8	1	n/a	n/a	n/a	n/a	n/a
2045975	PROB	n/a	LTP193	ltpFR	10	n/a	n/a	n/a	n/a	n/a	n/a	n/a	9	5	2	2	n/a	n/a	n/a	n/a	n/a
2047258	PROB	n/a	LTP193	ltpFR	10	n/a	n/a	n/a	n/a	n/a	n/a	n/a	25	9	7	9	n/a	n/a	n/a	n/a	n/a
2049820	PROB	n/a	LTP193	ltpFR	10	n/a	n/a	n/a	n/a	n/a	n/a	n/a	13	3	6	4	n/a	n/a	n/a	n/a	n/a
2051018	PROB	n/a	LTP193	ltpFR	10	n/a	n/a	n/a	n/a	n/a	n/a	n/a	17	9	1	7	n/a	n/a	n/a	n/a	n/a
2052284	PROB	n/a	LTP193	ltpFR	10	n/a	n/a	n/a	n/a	n/a	n/a	n/a	19	6	9	4	n/a	n/a	n/a	n/a	n/a
2054331	PROB	n/a	LTP193	ltpFR	10	n/a	n/a	n/a	n/a	n/a	n/a	n/a	17	7	5	5	n/a	n/a	n/a	n/a	n/a
2055511	PROB	n/a	LTP193	ltpFR	10	n/a	n/a	n/a	n/a	n/a	n/a	n/a	11	8	2	1	n/a	n/a	n/a	n/a	n/a
2056660	PROB	n/a	LTP193	ltpFR	10	n/a	n/a	n/a	n/a	n/a	n/a	n/a	16	1	6	9	n/a	n/a	n/a	n/a	n/a
2058414	STOP	n/a	LTP193	ltpFR	10	n/a	n/a	n/a	n/a	n/a	n/a	n/a	n/a	n/a	n/a	n/a	n/a	n/a	n/a	n/a	n/a
2060554	WORD	wordpools/wasnorm_wordpool_less_exclusions.txt	LTP193	ltpFR	10	10	1	RADISH	1158	n/a	n/a	0	n/a	0	0	0	0.57763671875	0.412841796875	1	upper	amplitud.ttf
2063566	START	n/a	LTP193	ltpFR	10	n/a	n/a	n/a	n/a	n/a	n/a	n/a	n/a	n/a	n/a	n/a	n/a	n/a	n/a	n/a	n/a
2064714	PROB	n/a	LTP193	ltpFR	10	n/a	n/a	n/a	n/a	n/a	n/a	n/a	18	6	3	9	n/a	n/a	n/a	n/a	n/a
2067228	PROB	n/a	LTP193	ltpFR	10	n/a	n/a	n/a	n/a	n/a	n/a	n/a	13	3	5	5	n/a	n/a	n/a	n/a	n/a
2068227	PROB	n/a	LTP193	ltpFR	10	n/a	n/a	n/a	n/a	n/a	n/a	n/a	18	9	2	7	n/a	n/a	n/a	n/a	n/a
2069840	PROB	n/a	LTP193	ltpFR	10	n/a	n/a	n/a	n/a	n/a	n/a	n/a	18	5	4	9	n/a	n/a	n/a	n/a	n/a
2070888	PROB	n/a	LTP193	ltpFR	10	n/a	n/a	n/a	n/a	n/a	n/a	n/a	13	6	5	2	n/a	n/a	n/a	n/a	n/a
2072669	PROB	n/a	LTP193	ltpFR	10	n/a	n/a	n/a	n/a	n/a	n/a	n/a	13	1	4	8	n/a	n/a	n/a	n/a	n/a
2074084	PROB	n/a	LTP193	ltpFR	10	n/a	n/a	n/a	n/a	n/a	n/a	n/a	8	6	1	1	n/a	n/a	n/a	n/a	n/a
2075216	PROB	n/a	LTP193	ltpFR	10	n/a	n/a	n/a	n/a	n/a	n/a	n/a	18	5	9	4	n/a	n/a	n/a	n/a	n/a
2077012	PROB	n/a	LTP193	ltpFR	10	n/a	n/a	n/a	n/a	n/a	n/a	n/a	21	2	9	9	n/a	n/a	n/a	n/a	n/a
2078557	STOP	n/a	LTP193	ltpFR	10	n/a	n/a	n/a	n/a	n/a	n/a	n/a	n/a	n/a	n/a	n/a	n/a	n/a	n/a	n/a	n/a
2080425	WORD	wordpools/wasnorm_wordpool_less_exclusions.txt	LTP193	ltpFR	10	10	1	RACCOON	1153	n/a	n/a	1	n/a	0	0	0	0.57763671875	0.412841796875	1	upper	amplitud.ttf
2083438	START	n/a	LTP193	ltpFR	10	n/a	n/a	n/a	n/a	n/a	n/a	n/a	n/a	n/a	n/a	n/a	n/a	n/a	n/a	n/a	n/a
2084286	PROB	n/a	LTP193	ltpFR	10	n/a	n/a	n/a	n/a	n/a	n/a	n/a	12	1	7	4	n/a	n/a	n/a	n/a	n/a
2086083	PROB	n/a	LTP193	ltpFR	10	n/a	n/a	n/a	n/a	n/a	n/a	n/a	19	7	4	8	n/a	n/a	n/a	n/a	n/a
2087613	PROB	n/a	LTP193	ltpFR	10	n/a	n/a	n/a	n/a	n/a	n/a	n/a	16	3	7	6	n/a	n/a	n/a	n/a	n/a
2089827	PROB	n/a	LTP193	ltpFR	10	n/a	n/a	n/a	n/a	n/a	n/a	n/a	12	2	5	5	n/a	n/a	n/a	n/a	n/a
2090892	PROB	n/a	LTP193	ltpFR	10	n/a	n/a	n/a	n/a	n/a	n/a	n/a	14	6	3	5	n/a	n/a	n/a	n/a	n/a
2092307	PROB	n/a	LTP193	ltpFR	10	n/a	n/a	n/a	n/a	n/a	n/a	n/a	6	2	2	2	n/a	n/a	n/a	n/a	n/a
2093504	PROB	n/a	LTP193	ltpFR	10	n/a	n/a	n/a	n/a	n/a	n/a	n/a	15	2	4	9	n/a	n/a	n/a	n/a	n/a
2095236	PROB	n/a	LTP193	ltpFR	10	n/a	n/a	n/a	n/a	n/a	n/a	n/a	18	5	9	4	n/a	n/a	n/a	n/a	n/a
2097383	PROB	n/a	LTP193	ltpFR	10	n/a	n/a	n/a	n/a	n/a	n/a	n/a	17	9	3	5	n/a	n/a	n/a	n/a	n/a
2099005	STOP	n/a	LTP193	ltpFR	10	n/a	n/a	n/a	n/a	n/a	n/a	n/a	n/a	n/a	n/a	n/a	n/a	n/a	n/a	n/a	n/a
2100461	WORD	wordpools/wasnorm_wordpool_less_exclusions.txt	LTP193	ltpFR	10	10	0	EDITOR	516	n/a	n/a	1	n/a	0	0	0	0.422607421875	0.5869140625	0	lower	zerothre.ttf
2103473	START	n/a	LTP193	ltpFR	10	n/a	n/a	n/a	n/a	n/a	n/a	n/a	n/a	n/a	n/a	n/a	n/a	n/a	n/a	n/a	n/a
2104406	PROB	n/a	LTP193	ltpFR	10	n/a	n/a	n/a	n/a	n/a	n/a	n/a	9	3	1	5	n/a	n/a	n/a	n/a	n/a
2106220	PROB	n/a	LTP193	ltpFR	10	n/a	n/a	n/a	n/a	n/a	n/a	n/a	20	5	9	6	n/a	n/a	n/a	n/a	n/a
2108682	PROB	n/a	LTP193	ltpFR	10	n/a	n/a	n/a	n/a	n/a	n/a	n/a	16	6	8	2	n/a	n/a	n/a	n/a	n/a
2109813	PROB	n/a	LTP193	ltpFR	10	n/a	n/a	n/a	n/a	n/a	n/a	n/a	18	2	8	8	n/a	n/a	n/a	n/a	n/a
2110995	PROB	n/a	LTP193	ltpFR	10	n/a	n/a	n/a	n/a	n/a	n/a	n/a	24	7	8	9	n/a	n/a	n/a	n/a	n/a
2114706	PROB	n/a	LTP193	ltpFR	10	n/a	n/a	n/a	n/a	n/a	n/a	n/a	9	5	2	2	n/a	n/a	n/a	n/a	n/a
2116271	PROB	n/a	LTP193	ltpFR	10	n/a	n/a	n/a	n/a	n/a	n/a	n/a	18	6	5	7	n/a	n/a	n/a	n/a	n/a
2117997	STOP	n/a	LTP193	ltpFR	10	n/a	n/a	n/a	n/a	n/a	n/a	n/a	n/a	n/a	n/a	n/a	n/a	n/a	n/a	n/a	n/a
2120365	WORD	wordpools/wasnorm_wordpool_less_exclusions.txt	LTP193	ltpFR	10	10	0	BEAN	105	n/a	n/a	0	n/a	0	0	0	0.422607421875	0.5869140625	0	lower	zerothre.ttf
2123378	START	n/a	LTP193	ltpFR	10	n/a	n/a	n/a	n/a	n/a	n/a	n/a	n/a	n/a	n/a	n/a	n/a	n/a	n/a	n/a	n/a
2124508	PROB	n/a	LTP193	ltpFR	10	n/a	n/a	n/a	n/a	n/a	n/a	n/a	10	3	3	4	n/a	n/a	n/a	n/a	n/a
2126821	PROB	n/a	LTP193	ltpFR	10	n/a	n/a	n/a	n/a	n/a	n/a	n/a	16	7	2	7	n/a	n/a	n/a	n/a	n/a
2128535	PROB	n/a	LTP193	ltpFR	10	n/a	n/a	n/a	n/a	n/a	n/a	n/a	11	4	3	4	n/a	n/a	n/a	n/a	n/a
2130234	PROB	n/a	LTP193	ltpFR	10	n/a	n/a	n/a	n/a	n/a	n/a	n/a	13	1	7	5	n/a	n/a	n/a	n/a	n/a
2131997	PROB	n/a	LTP193	ltpFR	10	n/a	n/a	n/a	n/a	n/a	n/a	n/a	19	7	6	6	n/a	n/a	n/a	n/a	n/a
2133511	PROB	n/a	LTP193	ltpFR	10	n/a	n/a	n/a	n/a	n/a	n/a	n/a	5	1	2	2	n/a	n/a	n/a	n/a	n/a
2134460	PROB	n/a	LTP193	ltpFR	10	n/a	n/a	n/a	n/a	n/a	n/a	n/a	19	5	8	6	n/a	n/a	n/a	n/a	n/a
2136192	PROB	n/a	LTP193	ltpFR	10	n/a	n/a	n/a	n/a	n/a	n/a	n/a	11	4	6	1	n/a	n/a	n/a	n/a	n/a
2139374	STOP	n/a	LTP193	ltpFR	10	n/a	n/a	n/a	n/a	n/a	n/a	n/a	n/a	n/a	n/a	n/a	n/a	n/a	n/a	n/a	n/a
2140352	WORD	wordpools/wasnorm_wordpool_less_exclusions.txt	LTP193	ltpFR	10	10	1	DIME	466	n/a	n/a	0	n/a	0	0	0	0.57763671875	0.412841796875	1	upper	amplitud.ttf
2143365	START	n/a	LTP193	ltpFR	10	n/a	n/a	n/a	n/a	n/a	n/a	n/a	n/a	n/a	n/a	n/a	n/a	n/a	n/a	n/a	n/a
2144363	PROB	n/a	LTP193	ltpFR	10	n/a	n/a	n/a	n/a	n/a	n/a	n/a	11	4	3	4	n/a	n/a	n/a	n/a	n/a
2146708	PROB	n/a	LTP193	ltpFR	10	n/a	n/a	n/a	n/a	n/a	n/a	n/a	23	8	9	5	n/a	n/a	n/a	n/a	n/a
2149156	PROB	n/a	LTP193	ltpFR	10	n/a	n/a	n/a	n/a	n/a	n/a	n/a	23	9	9	5	n/a	n/a	n/a	n/a	n/a
2151302	PROB	n/a	LTP193	ltpFR	10	n/a	n/a	n/a	n/a	n/a	n/a	n/a	16	6	2	8	n/a	n/a	n/a	n/a	n/a
2152450	PROB	n/a	LTP193	ltpFR	10	n/a	n/a	n/a	n/a	n/a	n/a	n/a	19	6	9	4	n/a	n/a	n/a	n/a	n/a
2154315	PROB	n/a	LTP193	ltpFR	10	n/a	n/a	n/a	n/a	n/a	n/a	n/a	20	8	9	2	n/a	n/a	n/a	n/a	n/a
2156212	PROB	n/a	LTP193	ltpFR	10	n/a	n/a	n/a	n/a	n/a	n/a	n/a	20	6	6	8	n/a	n/a	n/a	n/a	n/a
2157675	PROB	n/a	LTP193	ltpFR	10	n/a	n/a	n/a	n/a	n/a	n/a	n/a	15	9	4	2	n/a	n/a	n/a	n/a	n/a
2158853	STOP	n/a	LTP193	ltpFR	10	n/a	n/a	n/a	n/a	n/a	n/a	n/a	n/a	n/a	n/a	n/a	n/a	n/a	n/a	n/a	n/a
2160356	WORD	wordpools/wasnorm_wordpool_less_exclusions.txt	LTP193	ltpFR	10	10	1	SMOG	1330	n/a	n/a	0	n/a	0	0	0	0.57763671875	0.412841796875	1	upper	amplitud.ttf
2163368	START	n/a	LTP193	ltpFR	10	n/a	n/a	n/a	n/a	n/a	n/a	n/a	n/a	n/a	n/a	n/a	n/a	n/a	n/a	n/a	n/a
2164283	PROB	n/a	LTP193	ltpFR	10	n/a	n/a	n/a	n/a	n/a	n/a	n/a	10	2	2	6	n/a	n/a	n/a	n/a	n/a
2165597	PROB	n/a	LTP193	ltpFR	10	n/a	n/a	n/a	n/a	n/a	n/a	n/a	16	5	3	8	n/a	n/a	n/a	n/a	n/a
2168394	PROB	n/a	LTP193	ltpFR	10	n/a	n/a	n/a	n/a	n/a	n/a	n/a	25	9	9	7	n/a	n/a	n/a	n/a	n/a
2170639	PROB	n/a	LTP193	ltpFR	10	n/a	n/a	n/a	n/a	n/a	n/a	n/a	17	9	6	2	n/a	n/a	n/a	n/a	n/a
2172952	PROB	n/a	LTP193	ltpFR	10	n/a	n/a	n/a	n/a	n/a	n/a	n/a	20	9	8	3	n/a	n/a	n/a	n/a	n/a
2175400	PROB	n/a	LTP193	ltpFR	10	n/a	n/a	n/a	n/a	n/a	n/a	n/a	22	9	6	7	n/a	n/a	n/a	n/a	n/a
2177812	PROB	n/a	LTP193	ltpFR	10	n/a	n/a	n/a	n/a	n/a	n/a	n/a	8	4	2	2	n/a	n/a	n/a	n/a	n/a
2179342	STOP	n/a	LTP193	ltpFR	10	n/a	n/a	n/a	n/a	n/a	n/a	n/a	n/a	n/a	n/a	n/a	n/a	n/a	n/a	n/a	n/a
2180524	WORD	wordpools/wasnorm_wordpool_less_exclusions.txt	LTP193	ltpFR	10	10	0	ACORN	3	n/a	n/a	0	n/a	0	0	0	0.422607421875	0.5869140625	0	lower	zerothre.ttf
2183537	START	n/a	LTP193	ltpFR	10	n/a	n/a	n/a	n/a	n/a	n/a	n/a	n/a	n/a	n/a	n/a	n/a	n/a	n/a	n/a	n/a
2184519	PROB	n/a	LTP193	ltpFR	10	n/a	n/a	n/a	n/a	n/a	n/a	n/a	196	6	8	5	n/a	n/a	n/a	n/a	n/a
2187547	PROB	n/a	LTP193	ltpFR	10	n/a	n/a	n/a	n/a	n/a	n/a	n/a	13	6	1	6	n/a	n/a	n/a	n/a	n/a
2189196	PROB	n/a	LTP193	ltpFR	10	n/a	n/a	n/a	n/a	n/a	n/a	n/a	21	8	9	4	n/a	n/a	n/a	n/a	n/a
2190826	PROB	n/a	LTP193	ltpFR	10	n/a	n/a	n/a	n/a	n/a	n/a	n/a	18	4	6	8	n/a	n/a	n/a	n/a	n/a
2191874	PROB	n/a	LTP193	ltpFR	10	n/a	n/a	n/a	n/a	n/a	n/a	n/a	13	9	2	2	n/a	n/a	n/a	n/a	n/a
2193273	PROB	n/a	LTP193	ltpFR	10	n/a	n/a	n/a	n/a	n/a	n/a	n/a	15	9	3	3	n/a	n/a	n/a	n/a	n/a
2194520	PROB	n/a	LTP193	ltpFR	10	n/a	n/a	n/a	n/a	n/a	n/a	n/a	16	7	7	2	n/a	n/a	n/a	n/a	n/a
2195735	PROB	n/a	LTP193	ltpFR	10	n/a	n/a	n/a	n/a	n/a	n/a	n/a	18	2	8	8	n/a	n/a	n/a	n/a	n/a
2196833	PROB	n/a	LTP193	ltpFR	10	n/a	n/a	n/a	n/a	n/a	n/a	n/a	9	2	4	3	n/a	n/a	n/a	n/a	n/a
2198174	STOP	n/a	LTP193	ltpFR	10	n/a	n/a	n/a	n/a	n/a	n/a	n/a	n/a	n/a	n/a	n/a	n/a	n/a	n/a	n/a	n/a
2200511	WORD	wordpools/wasnorm_wordpool_less_exclusions.txt	LTP193	ltpFR	10	10	0	LETTUCE	814	n/a	n/a	0	n/a	0	0	0	0.422607421875	0.5869140625	0	lower	zerothre.ttf
2203524	START	n/a	LTP193	ltpFR	10	n/a	n/a	n/a	n/a	n/a	n/a	n/a	n/a	n/a	n/a	n/a	n/a	n/a	n/a	n/a	n/a
2204373	PROB	n/a	LTP193	ltpFR	10	n/a	n/a	n/a	n/a	n/a	n/a	n/a	22	9	6	7	n/a	n/a	n/a	n/a	n/a
2207967	PROB	n/a	LTP193	ltpFR	10	n/a	n/a	n/a	n/a	n/a	n/a	n/a	22	8	7	7	n/a	n/a	n/a	n/a	n/a
2210198	PROB	n/a	LTP193	ltpFR	10	n/a	n/a	n/a	n/a	n/a	n/a	n/a	21	8	6	7	n/a	n/a	n/a	n/a	n/a
2213775	PROB	n/a	LTP193	ltpFR	10	n/a	n/a	n/a	n/a	n/a	n/a	n/a	6	4	1	1	n/a	n/a	n/a	n/a	n/a
2214890	PROB	n/a	LTP193	ltpFR	10	n/a	n/a	n/a	n/a	n/a	n/a	n/a	13	3	1	9	n/a	n/a	n/a	n/a	n/a
2216206	PROB	n/a	LTP193	ltpFR	10	n/a	n/a	n/a	n/a	n/a	n/a	n/a	15	4	3	8	n/a	n/a	n/a	n/a	n/a
2217469	PROB	n/a	LTP193	ltpFR	10	n/a	n/a	n/a	n/a	n/a	n/a	n/a	20	3	9	8	n/a	n/a	n/a	n/a	n/a
2219390	STOP	n/a	LTP193	ltpFR	10	n/a	n/a	n/a	n/a	n/a	n/a	n/a	n/a	n/a	n/a	n/a	n/a	n/a	n/a	n/a	n/a
2220665	WORD	wordpools/wasnorm_wordpool_less_exclusions.txt	LTP193	ltpFR	10	10	0	CAULIFLOWER	262	n/a	n/a	0	n/a	0	0	0	0.422607421875	0.5869140625	0	lower	zerothre.ttf
2223677	START	n/a	LTP193	ltpFR	10	n/a	n/a	n/a	n/a	n/a	n/a	n/a	n/a	n/a	n/a	n/a	n/a	n/a	n/a	n/a	n/a
2224559	PROB	n/a	LTP193	ltpFR	10	n/a	n/a	n/a	n/a	n/a	n/a	n/a	16	1	9	6	n/a	n/a	n/a	n/a	n/a
2225890	PROB	n/a	LTP193	ltpFR	10	n/a	n/a	n/a	n/a	n/a	n/a	n/a	16	6	6	4	n/a	n/a	n/a	n/a	n/a
2228553	PROB	n/a	LTP193	ltpFR	10	n/a	n/a	n/a	n/a	n/a	n/a	n/a	17	8	8	1	n/a	n/a	n/a	n/a	n/a
2229851	PROB	n/a	LTP193	ltpFR	10	n/a	n/a	n/a	n/a	n/a	n/a	n/a	18	5	6	7	n/a	n/a	n/a	n/a	n/a
2231100	PROB	n/a	LTP193	ltpFR	10	n/a	n/a	n/a	n/a	n/a	n/a	n/a	8	1	4	3	n/a	n/a	n/a	n/a	n/a
2232182	PROB	n/a	LTP193	ltpFR	10	n/a	n/a	n/a	n/a	n/a	n/a	n/a	18	6	8	4	n/a	n/a	n/a	n/a	n/a
2234677	PROB	n/a	LTP193	ltpFR	10	n/a	n/a	n/a	n/a	n/a	n/a	n/a	13	6	5	2	n/a	n/a	n/a	n/a	n/a
2236458	PROB	n/a	LTP193	ltpFR	10	n/a	n/a	n/a	n/a	n/a	n/a	n/a	19	8	8	3	n/a	n/a	n/a	n/a	n/a
2239677	STOP	n/a	LTP193	ltpFR	10	n/a	n/a	n/a	n/a	n/a	n/a	n/a	n/a	n/a	n/a	n/a	n/a	n/a	n/a	n/a	n/a
2240884	WORD	wordpools/wasnorm_wordpool_less_exclusions.txt	LTP193	ltpFR	10	10	0	PONY	1102	n/a	n/a	1	n/a	0	0	0	0.422607421875	0.5869140625	0	lower	zerothre.ttf
2243897	START	n/a	LTP193	ltpFR	10	n/a	n/a	n/a	n/a	n/a	n/a	n/a	n/a	n/a	n/a	n/a	n/a	n/a	n/a	n/a	n/a
2245028	PROB	n/a	LTP193	ltpFR	10	n/a	n/a	n/a	n/a	n/a	n/a	n/a	12	3	1	8	n/a	n/a	n/a	n/a	n/a
2246825	PROB	n/a	LTP193	ltpFR	10	n/a	n/a	n/a	n/a	n/a	n/a	n/a	17	3	5	9	n/a	n/a	n/a	n/a	n/a
2248456	PROB	n/a	LTP193	ltpFR	10	n/a	n/a	n/a	n/a	n/a	n/a	n/a	10	5	3	2	n/a	n/a	n/a	n/a	n/a
2249971	PROB	n/a	LTP193	ltpFR	10	n/a	n/a	n/a	n/a	n/a	n/a	n/a	13	4	3	6	n/a	n/a	n/a	n/a	n/a
2251253	PROB	n/a	LTP193	ltpFR	10	n/a	n/a	n/a	n/a	n/a	n/a	n/a	121	1	5	6	n/a	n/a	n/a	n/a	n/a
2252700	PROB	n/a	LTP193	ltpFR	10	n/a	n/a	n/a	n/a	n/a	n/a	n/a	19	6	7	6	n/a	n/a	n/a	n/a	n/a
2254897	PROB	n/a	LTP193	ltpFR	10	n/a	n/a	n/a	n/a	n/a	n/a	n/a	21	9	9	2	n/a	n/a	n/a	n/a	n/a
2256429	PROB	n/a	LTP193	ltpFR	10	n/a	n/a	n/a	n/a	n/a	n/a	n/a	16	9	3	4	n/a	n/a	n/a	n/a	n/a
2257609	PROB	n/a	LTP193	ltpFR	10	n/a	n/a	n/a	n/a	n/a	n/a	n/a	9	1	1	7	n/a	n/a	n/a	n/a	n/a
2258701	STOP	n/a	LTP193	ltpFR	10	n/a	n/a	n/a	n/a	n/a	n/a	n/a	n/a	n/a	n/a	n/a	n/a	n/a	n/a	n/a	n/a
2261089	WORD	wordpools/wasnorm_wordpool_less_exclusions.txt	LTP193	ltpFR	10	10	0	MONSTER	912	n/a	n/a	1	n/a	0	0	0	0.422607421875	0.5869140625	0	lower	zerothre.ttf
2264101	START	n/a	LTP193	ltpFR	10	n/a	n/a	n/a	n/a	n/a	n/a	n/a	n/a	n/a	n/a	n/a	n/a	n/a	n/a	n/a	n/a
2265316	PROB	n/a	LTP193	ltpFR	10	n/a	n/a	n/a	n/a	n/a	n/a	n/a	13	8	4	1	n/a	n/a	n/a	n/a	n/a
2266663	PROB	n/a	LTP193	ltpFR	10	n/a	n/a	n/a	n/a	n/a	n/a	n/a	13	3	1	9	n/a	n/a	n/a	n/a	n/a
2268061	PROB	n/a	LTP193	ltpFR	10	n/a	n/a	n/a	n/a	n/a	n/a	n/a	12	7	4	1	n/a	n/a	n/a	n/a	n/a
2269326	PROB	n/a	LTP193	ltpFR	10	n/a	n/a	n/a	n/a	n/a	n/a	n/a	17	4	9	4	n/a	n/a	n/a	n/a	n/a
2270889	PROB	n/a	LTP193	ltpFR	10	n/a	n/a	n/a	n/a	n/a	n/a	n/a	8	4	1	3	n/a	n/a	n/a	n/a	n/a
2272504	PROB	n/a	LTP193	ltpFR	10	n/a	n/a	n/a	n/a	n/a	n/a	n/a	11	1	5	5	n/a	n/a	n/a	n/a	n/a
2273552	PROB	n/a	LTP193	ltpFR	10	n/a	n/a	n/a	n/a	n/a	n/a	n/a	20	4	9	7	n/a	n/a	n/a	n/a	n/a
2275682	PROB	n/a	LTP193	ltpFR	10	n/a	n/a	n/a	n/a	n/a	n/a	n/a	17	1	8	8	n/a	n/a	n/a	n/a	n/a
2276814	PROB	n/a	LTP193	ltpFR	10	n/a	n/a	n/a	n/a	n/a	n/a	n/a	23	9	5	8	n/a	n/a	n/a	n/a	n/a
2278861	STOP	n/a	LTP193	ltpFR	10	n/a	n/a	n/a	n/a	n/a	n/a	n/a	n/a	n/a	n/a	n/a	n/a	n/a	n/a	n/a	n/a
2281208	WORD	wordpools/wasnorm_wordpool_less_exclusions.txt	LTP193	ltpFR	10	10	0	DETERGENT	455	n/a	n/a	1	n/a	0	0	0	0.422607421875	0.5869140625	0	lower	zerothre.ttf
2284221	START	n/a	LTP193	ltpFR	10	n/a	n/a	n/a	n/a	n/a	n/a	n/a	n/a	n/a	n/a	n/a	n/a	n/a	n/a	n/a	n/a
2285336	PROB	n/a	LTP193	ltpFR	10	n/a	n/a	n/a	n/a	n/a	n/a	n/a	9	2	1	6	n/a	n/a	n/a	n/a	n/a
2288131	PROB	n/a	LTP193	ltpFR	10	n/a	n/a	n/a	n/a	n/a	n/a	n/a	7	1	1	5	n/a	n/a	n/a	n/a	n/a
2289661	PROB	n/a	LTP193	ltpFR	10	n/a	n/a	n/a	n/a	n/a	n/a	n/a	20	4	8	8	n/a	n/a	n/a	n/a	n/a
2291144	PROB	n/a	LTP193	ltpFR	10	n/a	n/a	n/a	n/a	n/a	n/a	n/a	15	1	7	7	n/a	n/a	n/a	n/a	n/a
2292175	PROB	n/a	LTP193	ltpFR	10	n/a	n/a	n/a	n/a	n/a	n/a	n/a	20	8	6	6	n/a	n/a	n/a	n/a	n/a
2295437	PROB	n/a	LTP193	ltpFR	10	n/a	n/a	n/a	n/a	n/a	n/a	n/a	9	3	1	5	n/a	n/a	n/a	n/a	n/a
2298498	PROB	n/a	LTP193	ltpFR	10	n/a	n/a	n/a	n/a	n/a	n/a	n/a	18	4	5	9	n/a	n/a	n/a	n/a	n/a
2299733	STOP	n/a	LTP193	ltpFR	10	n/a	n/a	n/a	n/a	n/a	n/a	n/a	n/a	n/a	n/a	n/a	n/a	n/a	n/a	n/a	n/a
2301378	WORD	wordpools/wasnorm_wordpool_less_exclusions.txt	LTP193	ltpFR	10	10	1	WASHER	1592	n/a	n/a	3	n/a	0	0	0	0.57763671875	0.412841796875	1	upper	amplitud.ttf
2303359	KEY_MSG	n/a	LTP193	ltpFR	10	10	n/a	n/a	n/a	n/a	n/a	n/a	n/a	0	0	0	n/a	n/a	n/a	n/a	n/a
2304889	START	n/a	LTP193	ltpFR	10	n/a	n/a	n/a	n/a	n/a	n/a	n/a	n/a	n/a	n/a	n/a	n/a	n/a	n/a	n/a	n/a
2305754	PROB	n/a	LTP193	ltpFR	10	n/a	n/a	n/a	n/a	n/a	n/a	n/a	11	1	8	2	n/a	n/a	n/a	n/a	n/a
2307002	PROB	n/a	LTP193	ltpFR	10	n/a	n/a	n/a	n/a	n/a	n/a	n/a	8	1	6	1	n/a	n/a	n/a	n/a	n/a
2308434	PROB	n/a	LTP193	ltpFR	10	n/a	n/a	n/a	n/a	n/a	n/a	n/a	18	3	6	9	n/a	n/a	n/a	n/a	n/a
2310613	PROB	n/a	LTP193	ltpFR	10	n/a	n/a	n/a	n/a	n/a	n/a	n/a	15	1	9	5	n/a	n/a	n/a	n/a	n/a
2311778	PROB	n/a	LTP193	ltpFR	10	n/a	n/a	n/a	n/a	n/a	n/a	n/a	18	7	6	5	n/a	n/a	n/a	n/a	n/a
2313410	PROB	n/a	LTP193	ltpFR	10	n/a	n/a	n/a	n/a	n/a	n/a	n/a	14	6	7	1	n/a	n/a	n/a	n/a	n/a
2315556	PROB	n/a	LTP193	ltpFR	10	n/a	n/a	n/a	n/a	n/a	n/a	n/a	14	2	5	7	n/a	n/a	n/a	n/a	n/a
2316954	PROB	n/a	LTP193	ltpFR	10	n/a	n/a	n/a	n/a	n/a	n/a	n/a	21	6	6	9	n/a	n/a	n/a	n/a	n/a
2318353	PROB	n/a	LTP193	ltpFR	10	n/a	n/a	n/a	n/a	n/a	n/a	n/a	13	2	3	8	n/a	n/a	n/a	n/a	n/a
2319757	STOP	n/a	LTP193	ltpFR	10	n/a	n/a	n/a	n/a	n/a	n/a	n/a	n/a	n/a	n/a	n/a	n/a	n/a	n/a	n/a	n/a
2321747	WORD	wordpools/wasnorm_wordpool_less_exclusions.txt	LTP193	ltpFR	10	10	1	WORM	1623	n/a	n/a	1	n/a	0	0	0	0.57763671875	0.412841796875	1	upper	amplitud.ttf
2324760	START	n/a	LTP193	ltpFR	10	n/a	n/a	n/a	n/a	n/a	n/a	n/a	n/a	n/a	n/a	n/a	n/a	n/a	n/a	n/a	n/a
2325941	PROB	n/a	LTP193	ltpFR	10	n/a	n/a	n/a	n/a	n/a	n/a	n/a	17	4	7	6	n/a	n/a	n/a	n/a	n/a
2328172	PROB	n/a	LTP193	ltpFR	10	n/a	n/a	n/a	n/a	n/a	n/a	n/a	16	4	6	6	n/a	n/a	n/a	n/a	n/a
2329502	PROB	n/a	LTP193	ltpFR	10	n/a	n/a	n/a	n/a	n/a	n/a	n/a	14	6	4	4	n/a	n/a	n/a	n/a	n/a
2330783	PROB	n/a	LTP193	ltpFR	10	n/a	n/a	n/a	n/a	n/a	n/a	n/a	5	3	1	1	n/a	n/a	n/a	n/a	n/a
2331799	PROB	n/a	LTP193	ltpFR	10	n/a	n/a	n/a	n/a	n/a	n/a	n/a	4	1	2	1	n/a	n/a	n/a	n/a	n/a
2333380	PROB	n/a	LTP193	ltpFR	10	n/a	n/a	n/a	n/a	n/a	n/a	n/a	8	2	2	4	n/a	n/a	n/a	n/a	n/a
2335443	PROB	n/a	LTP193	ltpFR	10	n/a	n/a	n/a	n/a	n/a	n/a	n/a	20	8	5	7	n/a	n/a	n/a	n/a	n/a
2338257	PROB	n/a	LTP193	ltpFR	10	n/a	n/a	n/a	n/a	n/a	n/a	n/a	17	4	7	6	n/a	n/a	n/a	n/a	n/a
2340158	STOP	n/a	LTP193	ltpFR	10	n/a	n/a	n/a	n/a	n/a	n/a	n/a	n/a	n/a	n/a	n/a	n/a	n/a	n/a	n/a	n/a
2341584	WORD	wordpools/wasnorm_wordpool_less_exclusions.txt	LTP193	ltpFR	10	10	1	POLE	1097	n/a	n/a	0	n/a	0	0	0	0.57763671875	0.412841796875	1	upper	amplitud.ttf
2344596	START	n/a	LTP193	ltpFR	10	n/a	n/a	n/a	n/a	n/a	n/a	n/a	n/a	n/a	n/a	n/a	n/a	n/a	n/a	n/a	n/a
2345611	PROB	n/a	LTP193	ltpFR	10	n/a	n/a	n/a	n/a	n/a	n/a	n/a	13	4	5	3	n/a	n/a	n/a	n/a	n/a
2347658	PROB	n/a	LTP193	ltpFR	10	n/a	n/a	n/a	n/a	n/a	n/a	n/a	11	2	5	4	n/a	n/a	n/a	n/a	n/a
2349006	PROB	n/a	LTP193	ltpFR	10	n/a	n/a	n/a	n/a	n/a	n/a	n/a	15	4	5	6	n/a	n/a	n/a	n/a	n/a
2350422	PROB	n/a	LTP193	ltpFR	10	n/a	n/a	n/a	n/a	n/a	n/a	n/a	13	8	2	3	n/a	n/a	n/a	n/a	n/a
2351985	PROB	n/a	LTP193	ltpFR	10	n/a	n/a	n/a	n/a	n/a	n/a	n/a	18	8	2	8	n/a	n/a	n/a	n/a	n/a
2353017	PROB	n/a	LTP193	ltpFR	10	n/a	n/a	n/a	n/a	n/a	n/a	n/a	14	8	4	2	n/a	n/a	n/a	n/a	n/a
2354515	PROB	n/a	LTP193	ltpFR	10	n/a	n/a	n/a	n/a	n/a	n/a	n/a	13	8	4	1	n/a	n/a	n/a	n/a	n/a
2356213	PROB	n/a	LTP193	ltpFR	10	n/a	n/a	n/a	n/a	n/a	n/a	n/a	5	2	1	2	n/a	n/a	n/a	n/a	n/a
2357145	PROB	n/a	LTP193	ltpFR	10	n/a	n/a	n/a	n/a	n/a	n/a	n/a	20	6	6	8	n/a	n/a	n/a	n/a	n/a
2360596	STOP	n/a	LTP193	ltpFR	10	n/a	n/a	n/a	n/a	n/a	n/a	n/a	n/a	n/a	n/a	n/a	n/a	n/a	n/a	n/a	n/a
2362355	REC_START	n/a	LTP193	ltpFR	10	10	n/a	n/a	n/a	n/a	n/a	n/a	n/a	0	0	0	n/a	n/a	n/a	n/a	n/a
2363637	REC_WORD	wordpools/wasnorm_wordpool_less_exclusions.txt	LTP193	ltpFR	10	10	1	POLE	1097	n/a	n/a	0	n/a	0	0	0	n/a	n/a	n/a	n/a	n/a
2364749	REC_WORD	wordpools/wasnorm_wordpool_less_exclusions.txt	LTP193	ltpFR	10	10	1	WORM	1623	n/a	n/a	1	n/a	0	0	0	n/a	n/a	n/a	n/a	n/a
2367273	REC_WORD	wordpools/wasnorm_wordpool_less_exclusions.txt	LTP193	ltpFR	10	10	0	LETTUCE	814	n/a	n/a	0	n/a	0	0	0	n/a	n/a	n/a	n/a	n/a
2368640	REC_WORD	wordpools/wasnorm_wordpool_less_exclusions.txt	LTP193	ltpFR	10	10	0	BEAN	105	n/a	n/a	0	n/a	0	0	0	n/a	n/a	n/a	n/a	n/a
2370441	REC_WORD	wordpools/wasnorm_wordpool_less_exclusions.txt	LTP193	ltpFR	10	10	1	RADISH	1158	n/a	n/a	0	n/a	0	0	0	n/a	n/a	n/a	n/a	n/a
2373475	REC_WORD	wordpools/wasnorm_wordpool_less_exclusions.txt	LTP193	ltpFR	10	10	1	CASHIER	254	n/a	n/a	1	n/a	0	0	0	n/a	n/a	n/a	n/a	n/a
2375689	REC_WORD	wordpools/wasnorm_wordpool_less_exclusions.txt	LTP193	ltpFR	10	10	0	PONY	1102	n/a	n/a	1	n/a	0	0	0	n/a	n/a	n/a	n/a	n/a
2376697	REC_WORD	wordpools/wasnorm_wordpool_less_exclusions.txt	LTP193	ltpFR	10	10	1	SMOG	1330	n/a	n/a	0	n/a	0	0	0	n/a	n/a	n/a	n/a	n/a
2378079	REC_WORD	wordpools/wasnorm_wordpool_less_exclusions.txt	LTP193	ltpFR	10	10	0	MONSTER	912	n/a	n/a	1	n/a	0	0	0	n/a	n/a	n/a	n/a	n/a
