onset	duration	trial_type	sample	stim_file	subject	experiment	session	trial	item_name	item_num	list	answer	test_x	test_y	test_z
224.508	n/a	SESS_START	112254	n/a	LTP279	ltpFR2	5	n/a	n/a	n/a	n/a	n/a	0	0	0
242.252	n/a	START	121126	n/a	LTP279	ltpFR2	5	n/a	n/a	n/a	-1	n/a	n/a	n/a	n/a
242.288	n/a	PROB	121144	n/a	LTP279	ltpFR2	5	n/a	n/a	n/a	-1	15	4	8	3
243.838	n/a	PROB	121919	n/a	LTP279	ltpFR2	5	n/a	n/a	n/a	-1	11	4	5	3
245.64	n/a	PROB	122820	n/a	LTP279	ltpFR2	5	n/a	n/a	n/a	-1	17	7	6	4
247.174	n/a	PROB	123587	n/a	LTP279	ltpFR2	5	n/a	n/a	n/a	-1	15	3	8	3
248.576	n/a	PROB	124288	n/a	LTP279	ltpFR2	5	n/a	n/a	n/a	-1	12	6	4	2
250.178	n/a	PROB	125089	n/a	LTP279	ltpFR2	5	n/a	n/a	n/a	-1	18	2	9	7
254.252	n/a	STOP	127126	n/a	LTP279	ltpFR2	5	n/a	n/a	n/a	-1	n/a	n/a	n/a	n/a
288.256	n/a	WORD	144128	wordpools/wasnorm_wordpool_576.txt	LTP279	ltpFR2	5	1	WITNESS	1618	n/a	n/a	0	0	0
290.694	n/a	WORD	145347	wordpools/wasnorm_wordpool_576.txt	LTP279	ltpFR2	5	1	BINDER	127	n/a	n/a	0	0	0
293.528	n/a	WORD	146764	wordpools/wasnorm_wordpool_576.txt	LTP279	ltpFR2	5	1	DRAWING	494	n/a	n/a	0	0	0
295.998	n/a	WORD	147999	wordpools/wasnorm_wordpool_576.txt	LTP279	ltpFR2	5	1	CAPTIVE	240	n/a	n/a	0	0	0
298.798	n/a	WORD	149399	wordpools/wasnorm_wordpool_576.txt	LTP279	ltpFR2	5	1	XEROX	1628	n/a	n/a	0	0	0
301.552	n/a	WORD	150776	wordpools/wasnorm_wordpool_576.txt	LTP279	ltpFR2	5	1	PISTOL	1075	n/a	n/a	0	0	0
304.174	n/a	WORD	152087	wordpools/wasnorm_wordpool_576.txt	LTP279	ltpFR2	5	1	CASHIER	254	n/a	n/a	0	0	0
307.006	n/a	WORD	153503	wordpools/wasnorm_wordpool_576.txt	LTP279	ltpFR2	5	1	ONION	977	n/a	n/a	0	0	0
309.574	n/a	WORD	154787	wordpools/wasnorm_wordpool_576.txt	LTP279	ltpFR2	5	1	PEDAL	1037	n/a	n/a	0	0	0
312.328	n/a	WORD	156164	wordpools/wasnorm_wordpool_576.txt	LTP279	ltpFR2	5	1	GREASE	660	n/a	n/a	0	0	0
314.812	n/a	WORD	157406	wordpools/wasnorm_wordpool_576.txt	LTP279	ltpFR2	5	1	STAMP	1370	n/a	n/a	0	0	0
317.582	n/a	WORD	158791	wordpools/wasnorm_wordpool_576.txt	LTP279	ltpFR2	5	1	POSTAGE	1113	n/a	n/a	0	0	0
320.048	n/a	WORD	160024	wordpools/wasnorm_wordpool_576.txt	LTP279	ltpFR2	5	1	FOREST	593	n/a	n/a	0	0	0
322.784	n/a	WORD	161392	wordpools/wasnorm_wordpool_576.txt	LTP279	ltpFR2	5	1	CLIMBER	323	n/a	n/a	0	0	0
325.27	n/a	WORD	162635	wordpools/wasnorm_wordpool_576.txt	LTP279	ltpFR2	5	1	DRILL	497	n/a	n/a	0	0	0
327.772	n/a	WORD	163886	wordpools/wasnorm_wordpool_576.txt	LTP279	ltpFR2	5	1	CANDY	230	n/a	n/a	0	0	0
330.474	n/a	WORD	165237	wordpools/wasnorm_wordpool_576.txt	LTP279	ltpFR2	5	1	GLOVE	642	n/a	n/a	0	0	0
333.096	n/a	WORD	166548	wordpools/wasnorm_wordpool_576.txt	LTP279	ltpFR2	5	1	CABIN	211	n/a	n/a	0	0	0
335.694	n/a	WORD	167847	wordpools/wasnorm_wordpool_576.txt	LTP279	ltpFR2	5	1	CARRIAGE	248	n/a	n/a	0	0	0
338.28	n/a	WORD	169140	wordpools/wasnorm_wordpool_576.txt	LTP279	ltpFR2	5	1	CRIB	407	n/a	n/a	0	0	0
340.932	n/a	WORD	170466	wordpools/wasnorm_wordpool_576.txt	LTP279	ltpFR2	5	1	PASTA	1021	n/a	n/a	0	0	0
343.416	n/a	WORD	171708	wordpools/wasnorm_wordpool_576.txt	LTP279	ltpFR2	5	1	VALVE	1546	n/a	n/a	0	0	0
345.986	n/a	WORD	172993	wordpools/wasnorm_wordpool_576.txt	LTP279	ltpFR2	5	1	BULLET	194	n/a	n/a	0	0	0
348.688	n/a	WORD	174344	wordpools/wasnorm_wordpool_576.txt	LTP279	ltpFR2	5	1	FREEZER	604	n/a	n/a	0	0	0
350.308	n/a	START	175154	n/a	LTP279	ltpFR2	5	n/a	n/a	n/a	1	n/a	n/a	n/a	n/a
351.386	n/a	DISTRACTOR	175693	n/a	LTP279	ltpFR2	5	1	n/a	n/a	n/a	n/a	0	0	0
351.408	n/a	PROB	175704	n/a	LTP279	ltpFR2	5	n/a	n/a	n/a	1	14	5	7	2
353.174	n/a	PROB	176587	n/a	LTP279	ltpFR2	5	n/a	n/a	n/a	1	20	9	7	5
355.058	n/a	PROB	177529	n/a	LTP279	ltpFR2	5	n/a	n/a	n/a	1	17	3	5	9
357.662	n/a	PROB	178831	n/a	LTP279	ltpFR2	5	n/a	n/a	n/a	1	17	1	8	8
358.962	n/a	PROB	179481	n/a	LTP279	ltpFR2	5	n/a	n/a	n/a	1	13	2	2	9
360.348	n/a	PROB	180174	n/a	LTP279	ltpFR2	5	n/a	n/a	n/a	1	14	7	2	5
361.732	n/a	PROB	180866	n/a	LTP279	ltpFR2	5	n/a	n/a	n/a	1	14	5	4	5
363.35	n/a	PROB	181675	n/a	LTP279	ltpFR2	5	n/a	n/a	n/a	1	6	4	1	1
364.472	n/a	PROB	182236	n/a	LTP279	ltpFR2	5	n/a	n/a	n/a	1	9	3	2	4
366.536	n/a	PROB	183268	n/a	LTP279	ltpFR2	5	n/a	n/a	n/a	1	13	7	1	5
368.004	n/a	PROB	184002	n/a	LTP279	ltpFR2	5	n/a	n/a	n/a	1	19	6	7	6
369.822	n/a	PROB	184911	n/a	LTP279	ltpFR2	5	n/a	n/a	n/a	1	13	9	1	3
371.724	n/a	PROB	185862	n/a	LTP279	ltpFR2	5	n/a	n/a	n/a	1	18	8	7	3
373.67	n/a	STOP	186835	n/a	LTP279	ltpFR2	5	n/a	n/a	n/a	1	n/a	n/a	n/a	n/a
376.212	n/a	REC_START	188106	n/a	LTP279	ltpFR2	5	1	n/a	n/a	n/a	n/a	0	0	0
376.896	n/a	REC_WORD	188448	wordpools/wasnorm_wordpool_576.txt	LTP279	ltpFR2	5	1	VALVE	1546	n/a	n/a	0	0	0
377.828	n/a	REC_WORD	188914	wordpools/wasnorm_wordpool_576.txt	LTP279	ltpFR2	5	1	BULLET	194	n/a	n/a	0	0	0
378.418	n/a	REC_WORD	189209	wordpools/wasnorm_wordpool_576.txt	LTP279	ltpFR2	5	1	FREEZER	604	n/a	n/a	0	0	0
380.078	n/a	REC_WORD	190039	wordpools/wasnorm_wordpool_576.txt	LTP279	ltpFR2	5	1	PASTA	1021	n/a	n/a	0	0	0
380.89	n/a	REC_WORD	190445	wordpools/wasnorm_wordpool_576.txt	LTP279	ltpFR2	5	1	CRIB	407	n/a	n/a	0	0	0
382.33	n/a	REC_WORD	191165	wordpools/wasnorm_wordpool_576.txt	LTP279	ltpFR2	5	1	CARRIAGE	248	n/a	n/a	0	0	0
384.292	n/a	REC_WORD	192146	wordpools/wasnorm_wordpool_576.txt	LTP279	ltpFR2	5	1	DRILL	497	n/a	n/a	0	0	0
385.67	n/a	REC_WORD	192835	wordpools/wasnorm_wordpool_576.txt	LTP279	ltpFR2	5	1	CANDY	230	n/a	n/a	0	0	0
386.34	n/a	REC_WORD	193170	wordpools/wasnorm_wordpool_576.txt	LTP279	ltpFR2	5	1	GLOVE	642	n/a	n/a	0	0	0
387.016	n/a	REC_WORD	193508	wordpools/wasnorm_wordpool_576.txt	LTP279	ltpFR2	5	1	POSTAGE	1113	n/a	n/a	0	0	0
387.856	n/a	REC_WORD	193928	wordpools/wasnorm_wordpool_576.txt	LTP279	ltpFR2	5	1	STAMP	1370	n/a	n/a	0	0	0
389.94	n/a	REC_WORD	194970	wordpools/wasnorm_wordpool_576.txt	LTP279	ltpFR2	5	1	FOREST	593	n/a	n/a	0	0	0
390.882	n/a	REC_WORD	195441	wordpools/wasnorm_wordpool_576.txt	LTP279	ltpFR2	5	1	CLIMBER	323	n/a	n/a	0	0	0
391.754	n/a	REC_WORD	195877	wordpools/wasnorm_wordpool_576.txt	LTP279	ltpFR2	5	1	GREASE	660	n/a	n/a	0	0	0
395.102	n/a	REC_WORD	197551	wordpools/wasnorm_wordpool_576.txt	LTP279	ltpFR2	5	1	WITNESS	1618	n/a	n/a	0	0	0
395.888	n/a	REC_WORD	197944	wordpools/wasnorm_wordpool_576.txt	LTP279	ltpFR2	5	1	BINDER	127	n/a	n/a	0	0	0
396.55	n/a	REC_WORD	198275	wordpools/wasnorm_wordpool_576.txt	LTP279	ltpFR2	5	1	DRAWING	494	n/a	n/a	0	0	0
397.27	n/a	REC_WORD	198635	wordpools/wasnorm_wordpool_576.txt	LTP279	ltpFR2	5	1	CAPTIVE	240	n/a	n/a	0	0	0
399.506	n/a	REC_WORD	199753	wordpools/wasnorm_wordpool_576.txt	LTP279	ltpFR2	5	1	XEROX	1628	n/a	n/a	0	0	0
400.478	n/a	REC_WORD	200239	wordpools/wasnorm_wordpool_576.txt	LTP279	ltpFR2	5	1	PISTOL	1075	n/a	n/a	0	0	0
401.21	n/a	REC_WORD	200605	wordpools/wasnorm_wordpool_576.txt	LTP279	ltpFR2	5	1	CASHIER	254	n/a	n/a	0	0	0
402.07	n/a	REC_WORD	201035	wordpools/wasnorm_wordpool_576.txt	LTP279	ltpFR2	5	1	ONION	977	n/a	n/a	0	0	0
403.43	n/a	REC_WORD	201715	wordpools/wasnorm_wordpool_576.txt	LTP279	ltpFR2	5	1	PEDAL	1037	n/a	n/a	0	0	0
466.864	n/a	WORD	233432	wordpools/wasnorm_wordpool_576.txt	LTP279	ltpFR2	5	2	PERCH	1048	n/a	n/a	0	0	0
469.368	n/a	WORD	234684	wordpools/wasnorm_wordpool_576.txt	LTP279	ltpFR2	5	2	PEANUT	1032	n/a	n/a	0	0	0
472.202	n/a	WORD	236101	wordpools/wasnorm_wordpool_576.txt	LTP279	ltpFR2	5	2	PRINCESS	1125	n/a	n/a	0	0	0
474.87	n/a	WORD	237435	wordpools/wasnorm_wordpool_576.txt	LTP279	ltpFR2	5	2	COD	340	n/a	n/a	0	0	0
477.608	n/a	WORD	238804	wordpools/wasnorm_wordpool_576.txt	LTP279	ltpFR2	5	2	ACTRESS	6	n/a	n/a	0	0	0
480.092	n/a	WORD	240046	wordpools/wasnorm_wordpool_576.txt	LTP279	ltpFR2	5	2	POPCORN	1104	n/a	n/a	0	0	0
482.812	n/a	WORD	241406	wordpools/wasnorm_wordpool_576.txt	LTP279	ltpFR2	5	2	SUPPER	1411	n/a	n/a	0	0	0
485.53	n/a	WORD	242765	wordpools/wasnorm_wordpool_576.txt	LTP279	ltpFR2	5	2	SILK	1307	n/a	n/a	0	0	0
488.318	n/a	WORD	244159	wordpools/wasnorm_wordpool_576.txt	LTP279	ltpFR2	5	2	MESSAGE	888	n/a	n/a	0	0	0
490.952	n/a	WORD	245476	wordpools/wasnorm_wordpool_576.txt	LTP279	ltpFR2	5	2	FIREMAN	569	n/a	n/a	0	0	0
493.77	n/a	WORD	246885	wordpools/wasnorm_wordpool_576.txt	LTP279	ltpFR2	5	2	HERO	706	n/a	n/a	0	0	0
496.372	n/a	WORD	248186	wordpools/wasnorm_wordpool_576.txt	LTP279	ltpFR2	5	2	YOLK	1633	n/a	n/a	0	0	0
498.858	n/a	WORD	249429	wordpools/wasnorm_wordpool_576.txt	LTP279	ltpFR2	5	2	TURKEY	1520	n/a	n/a	0	0	0
501.494	n/a	WORD	250747	wordpools/wasnorm_wordpool_576.txt	LTP279	ltpFR2	5	2	HORSE	719	n/a	n/a	0	0	0
504.262	n/a	WORD	252131	wordpools/wasnorm_wordpool_576.txt	LTP279	ltpFR2	5	2	ZEBRA	1635	n/a	n/a	0	0	0
507.03	n/a	WORD	253515	wordpools/wasnorm_wordpool_576.txt	LTP279	ltpFR2	5	2	SHARK	1275	n/a	n/a	0	0	0
509.816	n/a	WORD	254908	wordpools/wasnorm_wordpool_576.txt	LTP279	ltpFR2	5	2	QUEEN	1149	n/a	n/a	0	0	0
512.438	n/a	WORD	256219	wordpools/wasnorm_wordpool_576.txt	LTP279	ltpFR2	5	2	COWBOY	395	n/a	n/a	0	0	0
515.004	n/a	WORD	257502	wordpools/wasnorm_wordpool_576.txt	LTP279	ltpFR2	5	2	SCOTCH	1251	n/a	n/a	0	0	0
517.806	n/a	WORD	258903	wordpools/wasnorm_wordpool_576.txt	LTP279	ltpFR2	5	2	MACHINE	852	n/a	n/a	0	0	0
520.474	n/a	WORD	260237	wordpools/wasnorm_wordpool_576.txt	LTP279	ltpFR2	5	2	FIREPLACE	570	n/a	n/a	0	0	0
523.21	n/a	WORD	261605	wordpools/wasnorm_wordpool_576.txt	LTP279	ltpFR2	5	2	MAMMAL	861	n/a	n/a	0	0	0
525.962	n/a	WORD	262981	wordpools/wasnorm_wordpool_576.txt	LTP279	ltpFR2	5	2	MISTER	901	n/a	n/a	0	0	0
528.714	n/a	WORD	264357	wordpools/wasnorm_wordpool_576.txt	LTP279	ltpFR2	5	2	SLIDE	1326	n/a	n/a	0	0	0
530.334	n/a	START	265167	n/a	LTP279	ltpFR2	5	n/a	n/a	n/a	2	n/a	n/a	n/a	n/a
531.33	n/a	DISTRACTOR	265665	n/a	LTP279	ltpFR2	5	2	n/a	n/a	n/a	n/a	0	0	0
531.35	n/a	PROB	265675	n/a	LTP279	ltpFR2	5	n/a	n/a	n/a	2	16	2	6	8
533.19	n/a	PROB	266595	n/a	LTP279	ltpFR2	5	n/a	n/a	n/a	2	13	6	2	5
534.836	n/a	PROB	267418	n/a	LTP279	ltpFR2	5	n/a	n/a	n/a	2	19	9	3	7
536.388	n/a	PROB	268194	n/a	LTP279	ltpFR2	5	n/a	n/a	n/a	2	16	9	5	2
538.154	n/a	PROB	269077	n/a	LTP279	ltpFR2	5	n/a	n/a	n/a	2	22	9	7	6
541.008	n/a	PROB	270504	n/a	LTP279	ltpFR2	5	n/a	n/a	n/a	2	17	4	9	4
543.442	n/a	PROB	271721	n/a	LTP279	ltpFR2	5	n/a	n/a	n/a	2	15	5	4	6
545.06	n/a	PROB	272530	n/a	LTP279	ltpFR2	5	n/a	n/a	n/a	2	11	2	5	4
546.396	n/a	PROB	273198	n/a	LTP279	ltpFR2	5	n/a	n/a	n/a	2	13	8	2	3
548.08	n/a	PROB	274040	n/a	LTP279	ltpFR2	5	n/a	n/a	n/a	2	10	7	1	2
549.748	n/a	PROB	274874	n/a	LTP279	ltpFR2	5	n/a	n/a	n/a	2	18	8	5	5
551.116	n/a	PROB	275558	n/a	LTP279	ltpFR2	5	n/a	n/a	n/a	2	23	9	6	6
553.794	n/a	STOP	276897	n/a	LTP279	ltpFR2	5	n/a	n/a	n/a	2	n/a	n/a	n/a	n/a
556.302	n/a	REC_START	278151	n/a	LTP279	ltpFR2	5	2	n/a	n/a	n/a	n/a	0	0	0
569.228	n/a	REC_WORD	284614	wordpools/wasnorm_wordpool_576.txt	LTP279	ltpFR2	5	2	QUEEN	1149	n/a	n/a	0	0	0
570.052	n/a	REC_WORD	285026	wordpools/wasnorm_wordpool_576.txt	LTP279	ltpFR2	5	2	COWBOY	395	n/a	n/a	0	0	0
571.03	n/a	REC_WORD	285515	wordpools/wasnorm_wordpool_576.txt	LTP279	ltpFR2	5	2	WHISKEY	-1	n/a	n/a	0	0	0
571.78	n/a	REC_WORD	285890	wordpools/wasnorm_wordpool_576.txt	LTP279	ltpFR2	5	2	MACHINE	852	n/a	n/a	0	0	0
573.288	n/a	REC_WORD	286644	wordpools/wasnorm_wordpool_576.txt	LTP279	ltpFR2	5	2	FIREPLACE	570	n/a	n/a	0	0	0
574.288	n/a	REC_WORD_VV	287144	wordpools/wasnorm_wordpool_576.txt	LTP279	ltpFR2	5	2	<>	-1	n/a	n/a	0	0	0
576.698	n/a	REC_WORD	288349	wordpools/wasnorm_wordpool_576.txt	LTP279	ltpFR2	5	2	SLIDE	1326	n/a	n/a	0	0	0
584.522	n/a	REC_WORD_VV	292261	wordpools/wasnorm_wordpool_576.txt	LTP279	ltpFR2	5	2	<>	-1	n/a	n/a	0	0	0
587.522	n/a	REC_WORD	293761	wordpools/wasnorm_wordpool_576.txt	LTP279	ltpFR2	5	2	SHARK	1275	n/a	n/a	0	0	0
590.036	n/a	REC_WORD	295018	wordpools/wasnorm_wordpool_576.txt	LTP279	ltpFR2	5	2	ZEBRA	1635	n/a	n/a	0	0	0
590.736	n/a	REC_WORD	295368	wordpools/wasnorm_wordpool_576.txt	LTP279	ltpFR2	5	2	HORSE	719	n/a	n/a	0	0	0
595.42	n/a	REC_WORD	297710	wordpools/wasnorm_wordpool_576.txt	LTP279	ltpFR2	5	2	TURKEY	1520	n/a	n/a	0	0	0
596.438	n/a	REC_WORD	298219	wordpools/wasnorm_wordpool_576.txt	LTP279	ltpFR2	5	2	YOLK	1633	n/a	n/a	0	0	0
598.29	n/a	REC_WORD	299145	wordpools/wasnorm_wordpool_576.txt	LTP279	ltpFR2	5	2	MESSAGE	888	n/a	n/a	0	0	0
599.314	n/a	REC_WORD	299657	wordpools/wasnorm_wordpool_576.txt	LTP279	ltpFR2	5	2	FIREFIGHTER	-1	n/a	n/a	0	0	0
600.412	n/a	REC_WORD	300206	wordpools/wasnorm_wordpool_576.txt	LTP279	ltpFR2	5	2	HERO	706	n/a	n/a	0	0	0
610.36	n/a	REC_WORD	305180	wordpools/wasnorm_wordpool_576.txt	LTP279	ltpFR2	5	2	PERCH	1048	n/a	n/a	0	0	0
610.952	n/a	REC_WORD	305476	wordpools/wasnorm_wordpool_576.txt	LTP279	ltpFR2	5	2	PEANUT	1032	n/a	n/a	0	0	0
611.836	n/a	REC_WORD	305918	wordpools/wasnorm_wordpool_576.txt	LTP279	ltpFR2	5	2	PRINCESS	1125	n/a	n/a	0	0	0
612.672	n/a	REC_WORD	306336	wordpools/wasnorm_wordpool_576.txt	LTP279	ltpFR2	5	2	COD	340	n/a	n/a	0	0	0
613.37	n/a	REC_WORD	306685	wordpools/wasnorm_wordpool_576.txt	LTP279	ltpFR2	5	2	ACTRESS	6	n/a	n/a	0	0	0
614.042	n/a	REC_WORD	307021	wordpools/wasnorm_wordpool_576.txt	LTP279	ltpFR2	5	2	POPCORN	1104	n/a	n/a	0	0	0
614.676	n/a	REC_WORD	307338	wordpools/wasnorm_wordpool_576.txt	LTP279	ltpFR2	5	2	SUPPER	1411	n/a	n/a	0	0	0
646.926	n/a	DISTRACTOR	323463	n/a	LTP279	ltpFR2	5	3	n/a	n/a	n/a	n/a	0	0	0
646.926	n/a	START	323463	n/a	LTP279	ltpFR2	5	n/a	n/a	n/a	3	n/a	n/a	n/a	n/a
646.958	n/a	PROB	323479	n/a	LTP279	ltpFR2	5	n/a	n/a	n/a	3	18	3	9	6
649.244	n/a	PROB	324622	n/a	LTP279	ltpFR2	5	n/a	n/a	n/a	3	14	6	2	6
650.678	n/a	PROB	325339	n/a	LTP279	ltpFR2	5	n/a	n/a	n/a	3	16	8	7	1
652.73	n/a	PROB	326365	n/a	LTP279	ltpFR2	5	n/a	n/a	n/a	3	10	1	8	1
654.146	n/a	PROB	327073	n/a	LTP279	ltpFR2	5	n/a	n/a	n/a	3	9	2	5	2
656.016	n/a	PROB	328008	n/a	LTP279	ltpFR2	5	n/a	n/a	n/a	3	14	9	2	3
657.582	n/a	PROB	328791	n/a	LTP279	ltpFR2	5	n/a	n/a	n/a	3	6	1	3	2
659.302	n/a	PROB	329651	n/a	LTP279	ltpFR2	5	n/a	n/a	n/a	3	12	1	7	4
661.018	n/a	PROB	330509	n/a	LTP279	ltpFR2	5	n/a	n/a	n/a	3	16	5	7	4
663.538	n/a	PROB	331769	n/a	LTP279	ltpFR2	5	n/a	n/a	n/a	3	11	2	2	7
665.106	n/a	PROB	332553	n/a	LTP279	ltpFR2	5	n/a	n/a	n/a	3	15	4	5	6
667.008	n/a	PROB	333504	n/a	LTP279	ltpFR2	5	n/a	n/a	n/a	3	19	7	3	9
668.976	n/a	PROB	334488	n/a	LTP279	ltpFR2	5	n/a	n/a	n/a	3	18	8	6	4
670.502	n/a	STOP	335251	n/a	LTP279	ltpFR2	5	n/a	n/a	n/a	3	n/a	n/a	n/a	n/a
672.01	n/a	WORD	336005	wordpools/wasnorm_wordpool_576.txt	LTP279	ltpFR2	5	3	DRUG	501	n/a	n/a	0	0	0
674.53	n/a	WORD	337265	wordpools/wasnorm_wordpool_576.txt	LTP279	ltpFR2	5	3	CRAYON	401	n/a	n/a	0	0	0
677.182	n/a	WORD	338591	wordpools/wasnorm_wordpool_576.txt	LTP279	ltpFR2	5	3	EUROPE	541	n/a	n/a	0	0	0
679.9	n/a	WORD	339950	wordpools/wasnorm_wordpool_576.txt	LTP279	ltpFR2	5	3	CRICKET	408	n/a	n/a	0	0	0
682.42	n/a	WORD	341210	wordpools/wasnorm_wordpool_576.txt	LTP279	ltpFR2	5	3	COUNTY	389	n/a	n/a	0	0	0
685.172	n/a	WORD	342586	wordpools/wasnorm_wordpool_576.txt	LTP279	ltpFR2	5	3	CANAL	226	n/a	n/a	0	0	0
687.756	n/a	WORD	343878	wordpools/wasnorm_wordpool_576.txt	LTP279	ltpFR2	5	3	HAND	683	n/a	n/a	0	0	0
690.242	n/a	WORD	345121	wordpools/wasnorm_wordpool_576.txt	LTP279	ltpFR2	5	3	WOMAN	1620	n/a	n/a	0	0	0
692.794	n/a	WORD	346397	wordpools/wasnorm_wordpool_576.txt	LTP279	ltpFR2	5	3	BIKE	125	n/a	n/a	0	0	0
695.314	n/a	WORD	347657	wordpools/wasnorm_wordpool_576.txt	LTP279	ltpFR2	5	3	PADDLE	1000	n/a	n/a	0	0	0
697.914	n/a	WORD	348957	wordpools/wasnorm_wordpool_576.txt	LTP279	ltpFR2	5	3	GIFT	635	n/a	n/a	0	0	0
700.616	n/a	WORD	350308	wordpools/wasnorm_wordpool_576.txt	LTP279	ltpFR2	5	3	MAILBOX	857	n/a	n/a	0	0	0
703.288	n/a	WORD	351644	wordpools/wasnorm_wordpool_576.txt	LTP279	ltpFR2	5	3	SOFTBALL	1343	n/a	n/a	0	0	0
705.97	n/a	WORD	352985	wordpools/wasnorm_wordpool_576.txt	LTP279	ltpFR2	5	3	ULCER	1533	n/a	n/a	0	0	0
708.64	n/a	WORD	354320	wordpools/wasnorm_wordpool_576.txt	LTP279	ltpFR2	5	3	SHOULDER	1294	n/a	n/a	0	0	0
711.192	n/a	WORD	355596	wordpools/wasnorm_wordpool_576.txt	LTP279	ltpFR2	5	3	CATCHER	258	n/a	n/a	0	0	0
713.944	n/a	WORD	356972	wordpools/wasnorm_wordpool_576.txt	LTP279	ltpFR2	5	3	COCOON	339	n/a	n/a	0	0	0
716.762	n/a	WORD	358381	wordpools/wasnorm_wordpool_576.txt	LTP279	ltpFR2	5	3	EMPIRE	530	n/a	n/a	0	0	0
719.432	n/a	WORD	359716	wordpools/wasnorm_wordpool_576.txt	LTP279	ltpFR2	5	3	TROUT	1511	n/a	n/a	0	0	0
722.034	n/a	WORD	361017	wordpools/wasnorm_wordpool_576.txt	LTP279	ltpFR2	5	3	BROOK	177	n/a	n/a	0	0	0
724.802	n/a	WORD	362401	wordpools/wasnorm_wordpool_576.txt	LTP279	ltpFR2	5	3	FRIAR	605	n/a	n/a	0	0	0
727.622	n/a	WORD	363811	wordpools/wasnorm_wordpool_576.txt	LTP279	ltpFR2	5	3	CROSS	413	n/a	n/a	0	0	0
730.34	n/a	WORD	365170	wordpools/wasnorm_wordpool_576.txt	LTP279	ltpFR2	5	3	BRICK	172	n/a	n/a	0	0	0
733.076	n/a	WORD	366538	wordpools/wasnorm_wordpool_576.txt	LTP279	ltpFR2	5	3	SHELTER	1282	n/a	n/a	0	0	0
734.696	n/a	START	367348	n/a	LTP279	ltpFR2	5	n/a	n/a	n/a	4	n/a	n/a	n/a	n/a
735.52	n/a	DISTRACTOR	367760	n/a	LTP279	ltpFR2	5	3	n/a	n/a	n/a	n/a	0	0	0
735.544	n/a	PROB	367772	n/a	LTP279	ltpFR2	5	n/a	n/a	n/a	4	12	5	6	1
738.28	n/a	PROB	369140	n/a	LTP279	ltpFR2	5	n/a	n/a	n/a	4	18	6	4	8
740.316	n/a	PROB	370158	n/a	LTP279	ltpFR2	5	n/a	n/a	n/a	4	15	4	2	9
741.816	n/a	PROB	370908	n/a	LTP279	ltpFR2	5	n/a	n/a	n/a	4	8	2	3	3
744.452	n/a	PROB	372226	n/a	LTP279	ltpFR2	5	n/a	n/a	n/a	4	12	4	3	5
747.138	n/a	PROB	373569	n/a	LTP279	ltpFR2	5	n/a	n/a	n/a	4	19	4	6	9
749.188	n/a	PROB	374594	n/a	LTP279	ltpFR2	5	n/a	n/a	n/a	4	17	6	7	4
750.79	n/a	PROB	375395	n/a	LTP279	ltpFR2	5	n/a	n/a	n/a	4	13	5	6	2
753.242	n/a	PROB	376621	n/a	LTP279	ltpFR2	5	n/a	n/a	n/a	4	16	4	8	4
755.244	n/a	PROB	377622	n/a	LTP279	ltpFR2	5	n/a	n/a	n/a	4	13	2	6	5
758.696	n/a	STOP	379348	n/a	LTP279	ltpFR2	5	n/a	n/a	n/a	4	n/a	n/a	n/a	n/a
760.498	n/a	REC_START	380249	n/a	LTP279	ltpFR2	5	3	n/a	n/a	n/a	n/a	0	0	0
760.794	n/a	REC_WORD	380397	wordpools/wasnorm_wordpool_576.txt	LTP279	ltpFR2	5	3	FRIAR	605	n/a	n/a	0	0	0
761.556	n/a	REC_WORD	380778	wordpools/wasnorm_wordpool_576.txt	LTP279	ltpFR2	5	3	CROSS	413	n/a	n/a	0	0	0
762.51	n/a	REC_WORD	381255	wordpools/wasnorm_wordpool_576.txt	LTP279	ltpFR2	5	3	BRICK	172	n/a	n/a	0	0	0
763.144	n/a	REC_WORD	381572	wordpools/wasnorm_wordpool_576.txt	LTP279	ltpFR2	5	3	SHELTER	1282	n/a	n/a	0	0	0
765.642	n/a	REC_WORD	382821	wordpools/wasnorm_wordpool_576.txt	LTP279	ltpFR2	5	3	TROUT	1511	n/a	n/a	0	0	0
766.512	n/a	REC_WORD	383256	wordpools/wasnorm_wordpool_576.txt	LTP279	ltpFR2	5	3	EMPIRE	530	n/a	n/a	0	0	0
767.256	n/a	REC_WORD	383628	wordpools/wasnorm_wordpool_576.txt	LTP279	ltpFR2	5	3	SOFTBALL	1343	n/a	n/a	0	0	0
768.9	n/a	REC_WORD	384450	wordpools/wasnorm_wordpool_576.txt	LTP279	ltpFR2	5	3	ULCER	1533	n/a	n/a	0	0	0
769.58	n/a	REC_WORD	384790	wordpools/wasnorm_wordpool_576.txt	LTP279	ltpFR2	5	3	SHOULDER	1294	n/a	n/a	0	0	0
770.632	n/a	REC_WORD	385316	wordpools/wasnorm_wordpool_576.txt	LTP279	ltpFR2	5	3	CATCHER	258	n/a	n/a	0	0	0
789.38	n/a	REC_WORD	394690	wordpools/wasnorm_wordpool_576.txt	LTP279	ltpFR2	5	3	CRAYON	401	n/a	n/a	0	0	0
790.384	n/a	REC_WORD	395192	wordpools/wasnorm_wordpool_576.txt	LTP279	ltpFR2	5	3	CRICKET	408	n/a	n/a	0	0	0
791.166	n/a	REC_WORD	395583	wordpools/wasnorm_wordpool_576.txt	LTP279	ltpFR2	5	3	COUNTRY	388	n/a	n/a	0	0	0
792.852	n/a	REC_WORD	396426	wordpools/wasnorm_wordpool_576.txt	LTP279	ltpFR2	5	3	DRUG	501	n/a	n/a	0	0	0
798.512	n/a	REC_WORD	399256	wordpools/wasnorm_wordpool_576.txt	LTP279	ltpFR2	5	3	HAND	683	n/a	n/a	0	0	0
799.398	n/a	REC_WORD	399699	wordpools/wasnorm_wordpool_576.txt	LTP279	ltpFR2	5	3	WOMAN	1620	n/a	n/a	0	0	0
800.78	n/a	REC_WORD	400390	wordpools/wasnorm_wordpool_576.txt	LTP279	ltpFR2	5	3	BIKE	125	n/a	n/a	0	0	0
801.686	n/a	REC_WORD	400843	wordpools/wasnorm_wordpool_576.txt	LTP279	ltpFR2	5	3	PADDLE	1000	n/a	n/a	0	0	0
803.644	n/a	REC_WORD	401822	wordpools/wasnorm_wordpool_576.txt	LTP279	ltpFR2	5	3	GIFT	635	n/a	n/a	0	0	0
851.12	n/a	DISTRACTOR	425560	n/a	LTP279	ltpFR2	5	4	n/a	n/a	n/a	n/a	0	0	0
851.12	n/a	START	425560	n/a	LTP279	ltpFR2	5	n/a	n/a	n/a	5	n/a	n/a	n/a	n/a
851.152	n/a	PROB	425576	n/a	LTP279	ltpFR2	5	n/a	n/a	n/a	5	16	6	3	7
852.904	n/a	PROB	426452	n/a	LTP279	ltpFR2	5	n/a	n/a	n/a	5	21	4	8	9
855.038	n/a	PROB	427519	n/a	LTP279	ltpFR2	5	n/a	n/a	n/a	5	21	9	5	7
857.406	n/a	PROB	428703	n/a	LTP279	ltpFR2	5	n/a	n/a	n/a	5	11	4	4	3
858.874	n/a	PROB	429437	n/a	LTP279	ltpFR2	5	n/a	n/a	n/a	5	16	2	6	8
860.444	n/a	PROB	430222	n/a	LTP279	ltpFR2	5	n/a	n/a	n/a	5	7	2	2	3
862.744	n/a	PROB	431372	n/a	LTP279	ltpFR2	5	n/a	n/a	n/a	5	12	1	9	2
864.514	n/a	PROB	432257	n/a	LTP279	ltpFR2	5	n/a	n/a	n/a	5	8	6	1	1
865.948	n/a	PROB	432974	n/a	LTP279	ltpFR2	5	n/a	n/a	n/a	5	9	1	6	2
867.398	n/a	PROB	433699	n/a	LTP279	ltpFR2	5	n/a	n/a	n/a	5	19	8	7	4
869.65	n/a	PROB	434825	n/a	LTP279	ltpFR2	5	n/a	n/a	n/a	5	12	3	5	4
871.236	n/a	PROB	435618	n/a	LTP279	ltpFR2	5	n/a	n/a	n/a	5	15	9	4	2
872.954	n/a	PROB	436477	n/a	LTP279	ltpFR2	5	n/a	n/a	n/a	5	9	3	4	2
874.732	n/a	STOP	437366	n/a	LTP279	ltpFR2	5	n/a	n/a	n/a	5	n/a	n/a	n/a	n/a
876.224	n/a	WORD	438112	wordpools/wasnorm_wordpool_576.txt	LTP279	ltpFR2	5	4	FLOWER	584	n/a	n/a	0	0	0
878.974	n/a	WORD	439487	wordpools/wasnorm_wordpool_576.txt	LTP279	ltpFR2	5	4	PUPPY	1144	n/a	n/a	0	0	0
881.51	n/a	WORD	440755	wordpools/wasnorm_wordpool_576.txt	LTP279	ltpFR2	5	4	REBEL	1172	n/a	n/a	0	0	0
884.112	n/a	WORD	442056	wordpools/wasnorm_wordpool_576.txt	LTP279	ltpFR2	5	4	SERVER	1272	n/a	n/a	0	0	0
886.748	n/a	WORD	443374	wordpools/wasnorm_wordpool_576.txt	LTP279	ltpFR2	5	4	SKIRT	1319	n/a	n/a	0	0	0
889.332	n/a	WORD	444666	wordpools/wasnorm_wordpool_576.txt	LTP279	ltpFR2	5	4	GRIZZLY	662	n/a	n/a	0	0	0
892.152	n/a	WORD	446076	wordpools/wasnorm_wordpool_576.txt	LTP279	ltpFR2	5	4	CASKET	255	n/a	n/a	0	0	0
894.654	n/a	WORD	447327	wordpools/wasnorm_wordpool_576.txt	LTP279	ltpFR2	5	4	KLEENEX	782	n/a	n/a	0	0	0
897.29	n/a	WORD	448645	wordpools/wasnorm_wordpool_576.txt	LTP279	ltpFR2	5	4	FLESH	579	n/a	n/a	0	0	0
899.858	n/a	WORD	449929	wordpools/wasnorm_wordpool_576.txt	LTP279	ltpFR2	5	4	FOX	598	n/a	n/a	0	0	0
902.694	n/a	WORD	451347	wordpools/wasnorm_wordpool_576.txt	LTP279	ltpFR2	5	4	MAPLE	866	n/a	n/a	0	0	0
905.328	n/a	WORD	452664	wordpools/wasnorm_wordpool_576.txt	LTP279	ltpFR2	5	4	SHRUB	1299	n/a	n/a	0	0	0
908.114	n/a	WORD	454057	wordpools/wasnorm_wordpool_576.txt	LTP279	ltpFR2	5	4	SHELF	1280	n/a	n/a	0	0	0
910.798	n/a	WORD	455399	wordpools/wasnorm_wordpool_576.txt	LTP279	ltpFR2	5	4	NOVEL	960	n/a	n/a	0	0	0
913.402	n/a	WORD	456701	wordpools/wasnorm_wordpool_576.txt	LTP279	ltpFR2	5	4	RAZOR	1171	n/a	n/a	0	0	0
916.17	n/a	WORD	458085	wordpools/wasnorm_wordpool_576.txt	LTP279	ltpFR2	5	4	CLOTHES	327	n/a	n/a	0	0	0
918.69	n/a	WORD	459345	wordpools/wasnorm_wordpool_576.txt	LTP279	ltpFR2	5	4	AUTHOR	61	n/a	n/a	0	0	0
921.442	n/a	WORD	460721	wordpools/wasnorm_wordpool_576.txt	LTP279	ltpFR2	5	4	TAXI	1438	n/a	n/a	0	0	0
924.194	n/a	WORD	462097	wordpools/wasnorm_wordpool_576.txt	LTP279	ltpFR2	5	4	ACTOR	5	n/a	n/a	0	0	0
926.696	n/a	WORD	463348	wordpools/wasnorm_wordpool_576.txt	LTP279	ltpFR2	5	4	HOSTESS	723	n/a	n/a	0	0	0
929.164	n/a	WORD	464582	wordpools/wasnorm_wordpool_576.txt	LTP279	ltpFR2	5	4	TRACTOR	1493	n/a	n/a	0	0	0
931.598	n/a	WORD	465799	wordpools/wasnorm_wordpool_576.txt	LTP279	ltpFR2	5	4	SPOUSE	1358	n/a	n/a	0	0	0
934.402	n/a	WORD	467201	wordpools/wasnorm_wordpool_576.txt	LTP279	ltpFR2	5	4	KEEPER	769	n/a	n/a	0	0	0
936.904	n/a	WORD	468452	wordpools/wasnorm_wordpool_576.txt	LTP279	ltpFR2	5	4	FRECKLE	602	n/a	n/a	0	0	0
938.522	n/a	START	469261	n/a	LTP279	ltpFR2	5	n/a	n/a	n/a	6	n/a	n/a	n/a	n/a
939.368	n/a	DISTRACTOR	469684	n/a	LTP279	ltpFR2	5	4	n/a	n/a	n/a	n/a	0	0	0
939.388	n/a	PROB	469694	n/a	LTP279	ltpFR2	5	n/a	n/a	n/a	6	8	3	3	2
941.308	n/a	PROB	470654	n/a	LTP279	ltpFR2	5	n/a	n/a	n/a	6	17	7	2	8
942.974	n/a	PROB	471487	n/a	LTP279	ltpFR2	5	n/a	n/a	n/a	6	19	9	2	8
944.426	n/a	PROB	472213	n/a	LTP279	ltpFR2	5	n/a	n/a	n/a	6	21	7	5	9
947.562	n/a	PROB	473781	n/a	LTP279	ltpFR2	5	n/a	n/a	n/a	6	15	6	1	8
949.546	n/a	PROB	474773	n/a	LTP279	ltpFR2	5	n/a	n/a	n/a	6	7	2	4	1
951.164	n/a	PROB	475582	n/a	LTP279	ltpFR2	5	n/a	n/a	n/a	6	12	2	5	5
952.286	n/a	PROB	476143	n/a	LTP279	ltpFR2	5	n/a	n/a	n/a	6	5	3	1	1
953.4	n/a	PROB	476700	n/a	LTP279	ltpFR2	5	n/a	n/a	n/a	6	23	7	9	6
954.9	n/a	PROB	477450	n/a	LTP279	ltpFR2	5	n/a	n/a	n/a	6	15	5	5	5
955.968	n/a	PROB	477984	n/a	LTP279	ltpFR2	5	n/a	n/a	n/a	6	15	6	8	1
957.954	n/a	PROB	478977	n/a	LTP279	ltpFR2	5	n/a	n/a	n/a	6	14	4	8	2
959.588	n/a	PROB	479794	n/a	LTP279	ltpFR2	5	n/a	n/a	n/a	6	19	8	6	5
961.446	n/a	STOP	480723	n/a	LTP279	ltpFR2	5	n/a	n/a	n/a	6	n/a	n/a	n/a	n/a
964.392	n/a	REC_START	482196	n/a	LTP279	ltpFR2	5	4	n/a	n/a	n/a	n/a	0	0	0
965.25	n/a	REC_WORD	482625	wordpools/wasnorm_wordpool_576.txt	LTP279	ltpFR2	5	4	ACTOR	5	n/a	n/a	0	0	0
966.092	n/a	REC_WORD	483046	wordpools/wasnorm_wordpool_576.txt	LTP279	ltpFR2	5	4	HOSTESS	723	n/a	n/a	0	0	0
967.138	n/a	REC_WORD	483569	wordpools/wasnorm_wordpool_576.txt	LTP279	ltpFR2	5	4	TRACTOR	1493	n/a	n/a	0	0	0
968.23	n/a	REC_WORD	484115	wordpools/wasnorm_wordpool_576.txt	LTP279	ltpFR2	5	4	SPOUSE	1358	n/a	n/a	0	0	0
969.804	n/a	REC_WORD	484902	wordpools/wasnorm_wordpool_576.txt	LTP279	ltpFR2	5	4	KEEPER	769	n/a	n/a	0	0	0
970.596	n/a	REC_WORD	485298	wordpools/wasnorm_wordpool_576.txt	LTP279	ltpFR2	5	4	FRECKLE	602	n/a	n/a	0	0	0
981.686	n/a	REC_WORD	490843	wordpools/wasnorm_wordpool_576.txt	LTP279	ltpFR2	5	4	AUTHOR	61	n/a	n/a	0	0	0
1036.688	n/a	REC_WORD	518344	wordpools/wasnorm_wordpool_576.txt	LTP279	ltpFR2	5	4	GRIZZLY	662	n/a	n/a	0	0	0
1037.27	n/a	REC_WORD	518635	wordpools/wasnorm_wordpool_576.txt	LTP279	ltpFR2	5	4	REBEL	1172	n/a	n/a	0	0	0
1037.758	n/a	REC_WORD	518879	wordpools/wasnorm_wordpool_576.txt	LTP279	ltpFR2	5	4	SERVER	1272	n/a	n/a	0	0	0
1055.046	n/a	WORD	527523	wordpools/wasnorm_wordpool_576.txt	LTP279	ltpFR2	5	5	MUSTARD	935	n/a	n/a	0	0	0
1057.67	n/a	WORD	528835	wordpools/wasnorm_wordpool_576.txt	LTP279	ltpFR2	5	5	FLIPPER	580	n/a	n/a	0	0	0
1060.502	n/a	WORD	530251	wordpools/wasnorm_wordpool_576.txt	LTP279	ltpFR2	5	5	GROUND	666	n/a	n/a	0	0	0
1063.288	n/a	WORD	531644	wordpools/wasnorm_wordpool_576.txt	LTP279	ltpFR2	5	5	DASHBOARD	441	n/a	n/a	0	0	0
1065.806	n/a	WORD	532903	wordpools/wasnorm_wordpool_576.txt	LTP279	ltpFR2	5	5	CANYON	235	n/a	n/a	0	0	0
1068.54	n/a	WORD	534270	wordpools/wasnorm_wordpool_576.txt	LTP279	ltpFR2	5	5	SUMMIT	1405	n/a	n/a	0	0	0
1071.076	n/a	WORD	535538	wordpools/wasnorm_wordpool_576.txt	LTP279	ltpFR2	5	5	STALLION	1369	n/a	n/a	0	0	0
1073.762	n/a	WORD	536881	wordpools/wasnorm_wordpool_576.txt	LTP279	ltpFR2	5	5	BLENDER	136	n/a	n/a	0	0	0
1076.414	n/a	WORD	538207	wordpools/wasnorm_wordpool_576.txt	LTP279	ltpFR2	5	5	OUTDOORS	987	n/a	n/a	0	0	0
1078.916	n/a	WORD	539458	wordpools/wasnorm_wordpool_576.txt	LTP279	ltpFR2	5	5	DOLPHIN	483	n/a	n/a	0	0	0
1081.4	n/a	WORD	540700	wordpools/wasnorm_wordpool_576.txt	LTP279	ltpFR2	5	5	AGENT	10	n/a	n/a	0	0	0
1083.92	n/a	WORD	541960	wordpools/wasnorm_wordpool_576.txt	LTP279	ltpFR2	5	5	SEAFOOD	1260	n/a	n/a	0	0	0
1086.554	n/a	WORD	543277	wordpools/wasnorm_wordpool_576.txt	LTP279	ltpFR2	5	5	LAGOON	795	n/a	n/a	0	0	0
1089.074	n/a	WORD	544537	wordpools/wasnorm_wordpool_576.txt	LTP279	ltpFR2	5	5	PUDDLE	1140	n/a	n/a	0	0	0
1091.696	n/a	WORD	545848	wordpools/wasnorm_wordpool_576.txt	LTP279	ltpFR2	5	5	COTTAGE	384	n/a	n/a	0	0	0
1094.18	n/a	WORD	547090	wordpools/wasnorm_wordpool_576.txt	LTP279	ltpFR2	5	5	SCALLOP	1242	n/a	n/a	0	0	0
1096.73	n/a	WORD	548365	wordpools/wasnorm_wordpool_576.txt	LTP279	ltpFR2	5	5	LAKE	796	n/a	n/a	0	0	0
1099.166	n/a	WORD	549583	wordpools/wasnorm_wordpool_576.txt	LTP279	ltpFR2	5	5	TEMPLE	1448	n/a	n/a	0	0	0
1101.834	n/a	WORD	550917	wordpools/wasnorm_wordpool_576.txt	LTP279	ltpFR2	5	5	BLOCKADE	137	n/a	n/a	0	0	0
1104.586	n/a	WORD	552293	wordpools/wasnorm_wordpool_576.txt	LTP279	ltpFR2	5	5	GARBAGE	622	n/a	n/a	0	0	0
1107.324	n/a	WORD	553662	wordpools/wasnorm_wordpool_576.txt	LTP279	ltpFR2	5	5	PUPIL	1143	n/a	n/a	0	0	0
1110.108	n/a	WORD	555054	wordpools/wasnorm_wordpool_576.txt	LTP279	ltpFR2	5	5	SHERIFF	1284	n/a	n/a	0	0	0
1112.61	n/a	WORD	556305	wordpools/wasnorm_wordpool_576.txt	LTP279	ltpFR2	5	5	JUDGE	761	n/a	n/a	0	0	0
1115.412	n/a	WORD	557706	wordpools/wasnorm_wordpool_576.txt	LTP279	ltpFR2	5	5	EGYPT	519	n/a	n/a	0	0	0
1117.03	n/a	START	558515	n/a	LTP279	ltpFR2	5	n/a	n/a	n/a	7	n/a	n/a	n/a	n/a
1118.12	n/a	DISTRACTOR	559060	n/a	LTP279	ltpFR2	5	5	n/a	n/a	n/a	n/a	0	0	0
1118.13	n/a	PROB	559065	n/a	LTP279	ltpFR2	5	n/a	n/a	n/a	7	14	5	8	1
1120.316	n/a	PROB	560158	n/a	LTP279	ltpFR2	5	n/a	n/a	n/a	7	17	6	3	8
1122.0	n/a	PROB	561000	n/a	LTP279	ltpFR2	5	n/a	n/a	n/a	7	14	4	4	6
1123.968	n/a	PROB	561984	n/a	LTP279	ltpFR2	5	n/a	n/a	n/a	7	18	4	6	7
1126.638	n/a	PROB	563319	n/a	LTP279	ltpFR2	5	n/a	n/a	n/a	7	12	1	5	6
1128.094	n/a	PROB	564047	n/a	LTP279	ltpFR2	5	n/a	n/a	n/a	7	12	6	2	4
1129.674	n/a	PROB	564837	n/a	LTP279	ltpFR2	5	n/a	n/a	n/a	7	22	9	5	8
1132.66	n/a	PROB	566330	n/a	LTP279	ltpFR2	5	n/a	n/a	n/a	7	18	9	4	5
1134.494	n/a	PROB	567247	n/a	LTP279	ltpFR2	5	n/a	n/a	n/a	7	16	9	6	1
1136.094	n/a	PROB	568047	n/a	LTP279	ltpFR2	5	n/a	n/a	n/a	7	15	5	3	7
1137.496	n/a	PROB	568748	n/a	LTP279	ltpFR2	5	n/a	n/a	n/a	7	11	3	1	7
1138.964	n/a	PROB	569482	n/a	LTP279	ltpFR2	5	n/a	n/a	n/a	7	16	6	4	6
1140.932	n/a	STOP	570466	n/a	LTP279	ltpFR2	5	n/a	n/a	n/a	7	n/a	n/a	n/a	n/a
1142.952	n/a	REC_START	571476	n/a	LTP279	ltpFR2	5	5	n/a	n/a	n/a	n/a	0	0	0
1143.47	n/a	REC_WORD	571735	wordpools/wasnorm_wordpool_576.txt	LTP279	ltpFR2	5	5	JUDGE	761	n/a	n/a	0	0	0
1144.422	n/a	REC_WORD	572211	wordpools/wasnorm_wordpool_576.txt	LTP279	ltpFR2	5	5	EGYPT	519	n/a	n/a	0	0	0
1145.146	n/a	REC_WORD	572573	wordpools/wasnorm_wordpool_576.txt	LTP279	ltpFR2	5	5	SHERIFF	1284	n/a	n/a	0	0	0
1146.268	n/a	REC_WORD	573134	wordpools/wasnorm_wordpool_576.txt	LTP279	ltpFR2	5	5	MUSTARD	935	n/a	n/a	0	0	0
1147.086	n/a	REC_WORD	573543	wordpools/wasnorm_wordpool_576.txt	LTP279	ltpFR2	5	5	FLIPPER	580	n/a	n/a	0	0	0
1170.68	n/a	REC_WORD	585340	wordpools/wasnorm_wordpool_576.txt	LTP279	ltpFR2	5	5	CANYON	235	n/a	n/a	0	0	0
1171.31	n/a	REC_WORD	585655	wordpools/wasnorm_wordpool_576.txt	LTP279	ltpFR2	5	5	DASHBOARD	441	n/a	n/a	0	0	0
1176.222	n/a	REC_WORD	588111	wordpools/wasnorm_wordpool_576.txt	LTP279	ltpFR2	5	5	DOLPHIN	483	n/a	n/a	0	0	0
1179.574	n/a	REC_WORD	589787	wordpools/wasnorm_wordpool_576.txt	LTP279	ltpFR2	5	5	PUPIL	1143	n/a	n/a	0	0	0
1186.074	n/a	REC_WORD	593037	wordpools/wasnorm_wordpool_576.txt	LTP279	ltpFR2	5	5	SEAFOOD	1260	n/a	n/a	0	0	0
1216.31	n/a	REC_WORD	608155	wordpools/wasnorm_wordpool_576.txt	LTP279	ltpFR2	5	5	JUDGE	761	n/a	n/a	0	0	0
1233.572	n/a	DISTRACTOR	616786	n/a	LTP279	ltpFR2	5	6	n/a	n/a	n/a	n/a	0	0	0
1233.572	n/a	START	616786	n/a	LTP279	ltpFR2	5	n/a	n/a	n/a	8	n/a	n/a	n/a	n/a
1233.604	n/a	PROB	616802	n/a	LTP279	ltpFR2	5	n/a	n/a	n/a	8	18	6	3	9
1235.49	n/a	PROB	617745	n/a	LTP279	ltpFR2	5	n/a	n/a	n/a	8	20	9	5	6
1237.062	n/a	PROB	618531	n/a	LTP279	ltpFR2	5	n/a	n/a	n/a	8	18	9	3	6
1238.86	n/a	PROB	619430	n/a	LTP279	ltpFR2	5	n/a	n/a	n/a	8	21	8	7	6
1241.194	n/a	PROB	620597	n/a	LTP279	ltpFR2	5	n/a	n/a	n/a	8	12	5	6	1
1242.664	n/a	PROB	621332	n/a	LTP279	ltpFR2	5	n/a	n/a	n/a	8	9	2	4	3
1244.618	n/a	PROB	622309	n/a	LTP279	ltpFR2	5	n/a	n/a	n/a	8	16	6	6	4
1246.132	n/a	PROB	623066	n/a	LTP279	ltpFR2	5	n/a	n/a	n/a	8	6	2	1	3
1247.716	n/a	PROB	623858	n/a	LTP279	ltpFR2	5	n/a	n/a	n/a	8	11	1	8	2
1248.968	n/a	PROB	624484	n/a	LTP279	ltpFR2	5	n/a	n/a	n/a	8	18	7	8	3
1250.486	n/a	PROB	625243	n/a	LTP279	ltpFR2	5	n/a	n/a	n/a	8	19	2	8	9
1252.07	n/a	PROB	626035	n/a	LTP279	ltpFR2	5	n/a	n/a	n/a	8	14	2	3	9
1253.488	n/a	PROB	626744	n/a	LTP279	ltpFR2	5	n/a	n/a	n/a	8	11	7	3	1
1254.772	n/a	PROB	627386	n/a	LTP279	ltpFR2	5	n/a	n/a	n/a	8	17	4	8	5
1256.328	n/a	STOP	628164	n/a	LTP279	ltpFR2	5	n/a	n/a	n/a	8	n/a	n/a	n/a	n/a
1258.574	n/a	WORD	629287	wordpools/wasnorm_wordpool_576.txt	LTP279	ltpFR2	5	6	KETCHUP	771	n/a	n/a	0	0	0
1261.026	n/a	WORD	630513	wordpools/wasnorm_wordpool_576.txt	LTP279	ltpFR2	5	6	PIGMENT	1066	n/a	n/a	0	0	0
1263.494	n/a	WORD	631747	wordpools/wasnorm_wordpool_576.txt	LTP279	ltpFR2	5	6	MONSTER	912	n/a	n/a	0	0	0
1266.282	n/a	WORD	633141	wordpools/wasnorm_wordpool_576.txt	LTP279	ltpFR2	5	6	JURY	766	n/a	n/a	0	0	0
1269.116	n/a	WORD	634558	wordpools/wasnorm_wordpool_576.txt	LTP279	ltpFR2	5	6	VICTIM	1562	n/a	n/a	0	0	0
1271.718	n/a	WORD	635859	wordpools/wasnorm_wordpool_576.txt	LTP279	ltpFR2	5	6	RADISH	1158	n/a	n/a	0	0	0
1274.386	n/a	WORD	637193	wordpools/wasnorm_wordpool_576.txt	LTP279	ltpFR2	5	6	LETTUCE	814	n/a	n/a	0	0	0
1276.822	n/a	WORD	638411	wordpools/wasnorm_wordpool_576.txt	LTP279	ltpFR2	5	6	BOYFRIEND	162	n/a	n/a	0	0	0
1279.342	n/a	WORD	639671	wordpools/wasnorm_wordpool_576.txt	LTP279	ltpFR2	5	6	GANGSTER	620	n/a	n/a	0	0	0
1282.026	n/a	WORD	641013	wordpools/wasnorm_wordpool_576.txt	LTP279	ltpFR2	5	6	DRESS	495	n/a	n/a	0	0	0
1284.562	n/a	WORD	642281	wordpools/wasnorm_wordpool_576.txt	LTP279	ltpFR2	5	6	PIMPLE	1071	n/a	n/a	0	0	0
1287.346	n/a	WORD	643673	wordpools/wasnorm_wordpool_576.txt	LTP279	ltpFR2	5	6	SWIMMER	1420	n/a	n/a	0	0	0
1290.0	n/a	WORD	645000	wordpools/wasnorm_wordpool_576.txt	LTP279	ltpFR2	5	6	DIME	466	n/a	n/a	0	0	0
1292.684	n/a	WORD	646342	wordpools/wasnorm_wordpool_576.txt	LTP279	ltpFR2	5	6	LEOPARD	812	n/a	n/a	0	0	0
1295.154	n/a	WORD	647577	wordpools/wasnorm_wordpool_576.txt	LTP279	ltpFR2	5	6	TUNNEL	1519	n/a	n/a	0	0	0
1297.956	n/a	WORD	648978	wordpools/wasnorm_wordpool_576.txt	LTP279	ltpFR2	5	6	FRANCE	601	n/a	n/a	0	0	0
1300.774	n/a	WORD	650387	wordpools/wasnorm_wordpool_576.txt	LTP279	ltpFR2	5	6	CLAM	315	n/a	n/a	0	0	0
1303.544	n/a	WORD	651772	wordpools/wasnorm_wordpool_576.txt	LTP279	ltpFR2	5	6	BANKER	84	n/a	n/a	0	0	0
1306.296	n/a	WORD	653148	wordpools/wasnorm_wordpool_576.txt	LTP279	ltpFR2	5	6	RECEIPT	1173	n/a	n/a	0	0	0
1308.88	n/a	WORD	654440	wordpools/wasnorm_wordpool_576.txt	LTP279	ltpFR2	5	6	SHOVEL	1295	n/a	n/a	0	0	0
1311.584	n/a	WORD	655792	wordpools/wasnorm_wordpool_576.txt	LTP279	ltpFR2	5	6	TRENCH	1503	n/a	n/a	0	0	0
1314.236	n/a	WORD	657118	wordpools/wasnorm_wordpool_576.txt	LTP279	ltpFR2	5	6	MARSH	874	n/a	n/a	0	0	0
1316.738	n/a	WORD	658369	wordpools/wasnorm_wordpool_576.txt	LTP279	ltpFR2	5	6	LASER	801	n/a	n/a	0	0	0
1319.308	n/a	WORD	659654	wordpools/wasnorm_wordpool_576.txt	LTP279	ltpFR2	5	6	TUTU	1524	n/a	n/a	0	0	0
1320.926	n/a	START	660463	n/a	LTP279	ltpFR2	5	n/a	n/a	n/a	9	n/a	n/a	n/a	n/a
1322.06	n/a	DISTRACTOR	661030	n/a	LTP279	ltpFR2	5	6	n/a	n/a	n/a	n/a	0	0	0
1322.076	n/a	PROB	661038	n/a	LTP279	ltpFR2	5	n/a	n/a	n/a	9	19	7	6	6
1324.676	n/a	PROB	662338	n/a	LTP279	ltpFR2	5	n/a	n/a	n/a	9	15	4	6	5
1326.096	n/a	PROB	663048	n/a	LTP279	ltpFR2	5	n/a	n/a	n/a	9	18	5	5	8
1327.53	n/a	PROB	663765	n/a	LTP279	ltpFR2	5	n/a	n/a	n/a	9	21	9	6	6
1329.498	n/a	PROB	664749	n/a	LTP279	ltpFR2	5	n/a	n/a	n/a	9	16	5	9	2
1331.198	n/a	PROB	665599	n/a	LTP279	ltpFR2	5	n/a	n/a	n/a	9	14	6	2	6
1332.432	n/a	PROB	666216	n/a	LTP279	ltpFR2	5	n/a	n/a	n/a	9	15	6	2	7
1334.368	n/a	PROB	667184	n/a	LTP279	ltpFR2	5	n/a	n/a	n/a	9	5	1	2	2
1335.418	n/a	PROB	667709	n/a	LTP279	ltpFR2	5	n/a	n/a	n/a	9	5	1	1	3
1336.502	n/a	PROB	668251	n/a	LTP279	ltpFR2	5	n/a	n/a	n/a	9	7	1	1	5
1337.704	n/a	PROB	668852	n/a	LTP279	ltpFR2	5	n/a	n/a	n/a	9	16	1	6	9
1340.722	n/a	PROB	670361	n/a	LTP279	ltpFR2	5	n/a	n/a	n/a	9	18	8	4	6
1342.508	n/a	PROB	671254	n/a	LTP279	ltpFR2	5	n/a	n/a	n/a	9	11	5	4	2
1343.698	n/a	STOP	671849	n/a	LTP279	ltpFR2	5	n/a	n/a	n/a	9	n/a	n/a	n/a	n/a
1346.83	n/a	REC_START	673415	n/a	LTP279	ltpFR2	5	6	n/a	n/a	n/a	n/a	0	0	0
1347.218	n/a	REC_WORD	673609	wordpools/wasnorm_wordpool_576.txt	LTP279	ltpFR2	5	6	LASER	801	n/a	n/a	0	0	0
1348.512	n/a	REC_WORD	674256	wordpools/wasnorm_wordpool_576.txt	LTP279	ltpFR2	5	6	TUTU	1524	n/a	n/a	0	0	0
1351.624	n/a	REC_WORD	675812	wordpools/wasnorm_wordpool_576.txt	LTP279	ltpFR2	5	6	TUNNEL	1519	n/a	n/a	0	0	0
1352.444	n/a	REC_WORD	676222	wordpools/wasnorm_wordpool_576.txt	LTP279	ltpFR2	5	6	FRANCE	601	n/a	n/a	0	0	0
1354.542	n/a	REC_WORD	677271	wordpools/wasnorm_wordpool_576.txt	LTP279	ltpFR2	5	6	CLAM	315	n/a	n/a	0	0	0
1355.588	n/a	REC_WORD	677794	wordpools/wasnorm_wordpool_576.txt	LTP279	ltpFR2	5	6	BANKER	84	n/a	n/a	0	0	0
1356.766	n/a	REC_WORD	678383	wordpools/wasnorm_wordpool_576.txt	LTP279	ltpFR2	5	6	RECEIPT	1173	n/a	n/a	0	0	0
1357.824	n/a	REC_WORD	678912	wordpools/wasnorm_wordpool_576.txt	LTP279	ltpFR2	5	6	SHOVEL	1295	n/a	n/a	0	0	0
1359.594	n/a	REC_WORD	679797	wordpools/wasnorm_wordpool_576.txt	LTP279	ltpFR2	5	6	MARSH	874	n/a	n/a	0	0	0
1382.41	n/a	REC_WORD	691205	wordpools/wasnorm_wordpool_576.txt	LTP279	ltpFR2	5	6	PIGMENT	1066	n/a	n/a	0	0	0
1383.918	n/a	REC_WORD	691959	wordpools/wasnorm_wordpool_576.txt	LTP279	ltpFR2	5	6	KETCHUP	771	n/a	n/a	0	0	0
1385.262	n/a	REC_WORD	692631	wordpools/wasnorm_wordpool_576.txt	LTP279	ltpFR2	5	6	MONSTER	912	n/a	n/a	0	0	0
1392.454	n/a	REC_WORD	696227	wordpools/wasnorm_wordpool_576.txt	LTP279	ltpFR2	5	6	VICTIM	1562	n/a	n/a	0	0	0
1396.454	n/a	REC_WORD	698227	wordpools/wasnorm_wordpool_576.txt	LTP279	ltpFR2	5	6	JURY	766	n/a	n/a	0	0	0
1398.88	n/a	REC_WORD	699440	wordpools/wasnorm_wordpool_576.txt	LTP279	ltpFR2	5	6	RADISH	1158	n/a	n/a	0	0	0
1399.864	n/a	REC_WORD	699932	wordpools/wasnorm_wordpool_576.txt	LTP279	ltpFR2	5	6	LETTUCE	814	n/a	n/a	0	0	0
1404.09	n/a	REC_WORD	702045	wordpools/wasnorm_wordpool_576.txt	LTP279	ltpFR2	5	6	GANGSTER	620	n/a	n/a	0	0	0
1405.408	n/a	REC_WORD	702704	wordpools/wasnorm_wordpool_576.txt	LTP279	ltpFR2	5	6	DRESS	495	n/a	n/a	0	0	0
1406.942	n/a	REC_WORD	703471	wordpools/wasnorm_wordpool_576.txt	LTP279	ltpFR2	5	6	PIMPLE	1071	n/a	n/a	0	0	0
1407.538	n/a	REC_WORD	703769	wordpools/wasnorm_wordpool_576.txt	LTP279	ltpFR2	5	6	SWIMMER	1420	n/a	n/a	0	0	0
1437.466	n/a	DISTRACTOR	718733	n/a	LTP279	ltpFR2	5	7	n/a	n/a	n/a	n/a	0	0	0
1437.466	n/a	START	718733	n/a	LTP279	ltpFR2	5	n/a	n/a	n/a	10	n/a	n/a	n/a	n/a
1437.5	n/a	PROB	718750	n/a	LTP279	ltpFR2	5	n/a	n/a	n/a	10	18	5	8	5
1439.034	n/a	PROB	719517	n/a	LTP279	ltpFR2	5	n/a	n/a	n/a	10	12	7	3	2
1440.32	n/a	PROB	720160	n/a	LTP279	ltpFR2	5	n/a	n/a	n/a	10	12	2	1	9
1441.852	n/a	PROB	720926	n/a	LTP279	ltpFR2	5	n/a	n/a	n/a	10	14	8	2	4
1443.238	n/a	PROB	721619	n/a	LTP279	ltpFR2	5	n/a	n/a	n/a	10	12	1	3	9
1444.788	n/a	PROB	722394	n/a	LTP279	ltpFR2	5	n/a	n/a	n/a	10	19	2	9	8
1446.456	n/a	PROB	723228	n/a	LTP279	ltpFR2	5	n/a	n/a	n/a	10	9	1	4	4
1447.842	n/a	PROB	723921	n/a	LTP279	ltpFR2	5	n/a	n/a	n/a	10	11	3	4	3
1449.458	n/a	PROB	724729	n/a	LTP279	ltpFR2	5	n/a	n/a	n/a	10	14	6	6	2
1450.994	n/a	PROB	725497	n/a	LTP279	ltpFR2	5	n/a	n/a	n/a	10	16	4	8	4
1453.162	n/a	PROB	726581	n/a	LTP279	ltpFR2	5	n/a	n/a	n/a	10	22	8	8	6
1455.18	n/a	PROB	727590	n/a	LTP279	ltpFR2	5	n/a	n/a	n/a	10	15	3	4	8
1456.932	n/a	PROB	728466	n/a	LTP279	ltpFR2	5	n/a	n/a	n/a	10	16	3	9	4
1458.532	n/a	PROB	729266	n/a	LTP279	ltpFR2	5	n/a	n/a	n/a	10	11	2	4	5
1459.834	n/a	PROB	729917	n/a	LTP279	ltpFR2	5	n/a	n/a	n/a	10	18	2	7	9
1461.358	n/a	STOP	730679	n/a	LTP279	ltpFR2	5	n/a	n/a	n/a	10	n/a	n/a	n/a	n/a
1462.57	n/a	WORD	731285	wordpools/wasnorm_wordpool_576.txt	LTP279	ltpFR2	5	7	PLAZA	1088	n/a	n/a	0	0	0
1465.322	n/a	WORD	732661	wordpools/wasnorm_wordpool_576.txt	LTP279	ltpFR2	5	7	STOMACH	1384	n/a	n/a	0	0	0
1467.908	n/a	WORD	733954	wordpools/wasnorm_wordpool_576.txt	LTP279	ltpFR2	5	7	LAVA	804	n/a	n/a	0	0	0
1470.744	n/a	WORD	735372	wordpools/wasnorm_wordpool_576.txt	LTP279	ltpFR2	5	7	ISLAND	745	n/a	n/a	0	0	0
1473.366	n/a	WORD	736683	wordpools/wasnorm_wordpool_576.txt	LTP279	ltpFR2	5	7	STAPLE	1371	n/a	n/a	0	0	0
1476.13	n/a	WORD	738065	wordpools/wasnorm_wordpool_576.txt	LTP279	ltpFR2	5	7	PASTRY	1022	n/a	n/a	0	0	0
1478.598	n/a	WORD	739299	wordpools/wasnorm_wordpool_576.txt	LTP279	ltpFR2	5	7	MARKET	871	n/a	n/a	0	0	0
1481.068	n/a	WORD	740534	wordpools/wasnorm_wordpool_576.txt	LTP279	ltpFR2	5	7	COLLEGE	346	n/a	n/a	0	0	0
1483.886	n/a	WORD	741943	wordpools/wasnorm_wordpool_576.txt	LTP279	ltpFR2	5	7	COOK	372	n/a	n/a	0	0	0
1486.64	n/a	WORD	743320	wordpools/wasnorm_wordpool_576.txt	LTP279	ltpFR2	5	7	HUMAN	726	n/a	n/a	0	0	0
1489.358	n/a	WORD	744679	wordpools/wasnorm_wordpool_576.txt	LTP279	ltpFR2	5	7	LEADER	807	n/a	n/a	0	0	0
1492.176	n/a	WORD	746088	wordpools/wasnorm_wordpool_576.txt	LTP279	ltpFR2	5	7	FIDDLE	561	n/a	n/a	0	0	0
1494.778	n/a	WORD	747389	wordpools/wasnorm_wordpool_576.txt	LTP279	ltpFR2	5	7	DENTIST	447	n/a	n/a	0	0	0
1497.48	n/a	WORD	748740	wordpools/wasnorm_wordpool_576.txt	LTP279	ltpFR2	5	7	DOUGHNUT	490	n/a	n/a	0	0	0
1500.05	n/a	WORD	750025	wordpools/wasnorm_wordpool_576.txt	LTP279	ltpFR2	5	7	PLUTO	1092	n/a	n/a	0	0	0
1502.702	n/a	WORD	751351	wordpools/wasnorm_wordpool_576.txt	LTP279	ltpFR2	5	7	STUDENT	1395	n/a	n/a	0	0	0
1505.27	n/a	WORD	752635	wordpools/wasnorm_wordpool_576.txt	LTP279	ltpFR2	5	7	BEAST	108	n/a	n/a	0	0	0
1508.056	n/a	WORD	754028	wordpools/wasnorm_wordpool_576.txt	LTP279	ltpFR2	5	7	OX	994	n/a	n/a	0	0	0
1510.69	n/a	WORD	755345	wordpools/wasnorm_wordpool_576.txt	LTP279	ltpFR2	5	7	CLOCK	325	n/a	n/a	0	0	0
1513.342	n/a	WORD	756671	wordpools/wasnorm_wordpool_576.txt	LTP279	ltpFR2	5	7	IGLOO	734	n/a	n/a	0	0	0
1516.028	n/a	WORD	758014	wordpools/wasnorm_wordpool_576.txt	LTP279	ltpFR2	5	7	ICEBERG	731	n/a	n/a	0	0	0
1518.614	n/a	WORD	759307	wordpools/wasnorm_wordpool_576.txt	LTP279	ltpFR2	5	7	BRACES	164	n/a	n/a	0	0	0
1521.45	n/a	WORD	760725	wordpools/wasnorm_wordpool_576.txt	LTP279	ltpFR2	5	7	FLASHLIGHT	575	n/a	n/a	0	0	0
1524.084	n/a	WORD	762042	wordpools/wasnorm_wordpool_576.txt	LTP279	ltpFR2	5	7	TYPIST	1532	n/a	n/a	0	0	0
1525.704	n/a	START	762852	n/a	LTP279	ltpFR2	5	n/a	n/a	n/a	11	n/a	n/a	n/a	n/a
1526.9	n/a	DISTRACTOR	763450	n/a	LTP279	ltpFR2	5	7	n/a	n/a	n/a	n/a	0	0	0
1526.92	n/a	PROB	763460	n/a	LTP279	ltpFR2	5	n/a	n/a	n/a	11	17	4	6	7
1530.256	n/a	PROB	765128	n/a	LTP279	ltpFR2	5	n/a	n/a	n/a	11	20	9	7	4
1532.624	n/a	PROB	766312	n/a	LTP279	ltpFR2	5	n/a	n/a	n/a	11	9	1	4	4
1534.076	n/a	PROB	767038	n/a	LTP279	ltpFR2	5	n/a	n/a	n/a	11	13	1	8	4
1535.494	n/a	PROB	767747	n/a	LTP279	ltpFR2	5	n/a	n/a	n/a	11	21	9	9	3
1537.912	n/a	PROB	768956	n/a	LTP279	ltpFR2	5	n/a	n/a	n/a	11	17	9	4	4
1539.898	n/a	PROB	769949	n/a	LTP279	ltpFR2	5	n/a	n/a	n/a	11	16	5	5	6
1541.232	n/a	PROB	770616	n/a	LTP279	ltpFR2	5	n/a	n/a	n/a	11	17	7	7	3
1542.832	n/a	PROB	771416	n/a	LTP279	ltpFR2	5	n/a	n/a	n/a	11	14	2	6	6
1544.134	n/a	PROB	772067	n/a	LTP279	ltpFR2	5	n/a	n/a	n/a	11	14	3	7	4
1545.852	n/a	PROB	772926	n/a	LTP279	ltpFR2	5	n/a	n/a	n/a	11	17	4	4	9
1547.336	n/a	PROB	773668	n/a	LTP279	ltpFR2	5	n/a	n/a	n/a	11	13	8	3	2
1548.744	n/a	STOP	774372	n/a	LTP279	ltpFR2	5	n/a	n/a	n/a	11	n/a	n/a	n/a	n/a
1551.558	n/a	REC_START	775779	n/a	LTP279	ltpFR2	5	7	n/a	n/a	n/a	n/a	0	0	0
1555.922	n/a	REC_WORD	777961	wordpools/wasnorm_wordpool_576.txt	LTP279	ltpFR2	5	7	TYPIST	1532	n/a	n/a	0	0	0
1563.57	n/a	REC_WORD	781785	wordpools/wasnorm_wordpool_576.txt	LTP279	ltpFR2	5	7	STUDENT	1395	n/a	n/a	0	0	0
1566.394	n/a	REC_WORD	783197	wordpools/wasnorm_wordpool_576.txt	LTP279	ltpFR2	5	7	COLLEGE	346	n/a	n/a	0	0	0
1567.374	n/a	REC_WORD	783687	wordpools/wasnorm_wordpool_576.txt	LTP279	ltpFR2	5	7	COOK	372	n/a	n/a	0	0	0
1570.144	n/a	REC_WORD	785072	wordpools/wasnorm_wordpool_576.txt	LTP279	ltpFR2	5	7	HUMAN	726	n/a	n/a	0	0	0
1579.432	n/a	REC_WORD_VV	789716	wordpools/wasnorm_wordpool_576.txt	LTP279	ltpFR2	5	7	<>	-1	n/a	n/a	0	0	0
1642.18	n/a	DISTRACTOR	821090	n/a	LTP279	ltpFR2	5	8	n/a	n/a	n/a	n/a	0	0	0
1642.18	n/a	START	821090	n/a	LTP279	ltpFR2	5	n/a	n/a	n/a	12	n/a	n/a	n/a	n/a
1642.212	n/a	PROB	821106	n/a	LTP279	ltpFR2	5	n/a	n/a	n/a	12	14	5	8	1
1643.83	n/a	PROB	821915	n/a	LTP279	ltpFR2	5	n/a	n/a	n/a	12	12	8	2	2
1645.314	n/a	PROB	822657	n/a	LTP279	ltpFR2	5	n/a	n/a	n/a	12	15	4	5	6
1647.766	n/a	PROB	823883	n/a	LTP279	ltpFR2	5	n/a	n/a	n/a	12	17	7	4	6
1649.35	n/a	PROB	824675	n/a	LTP279	ltpFR2	5	n/a	n/a	n/a	12	16	2	7	6
1651.286	n/a	PROB	825643	n/a	LTP279	ltpFR2	5	n/a	n/a	n/a	12	28	1	9	8
1652.804	n/a	PROB	826402	n/a	LTP279	ltpFR2	5	n/a	n/a	n/a	12	15	1	9	5
1655.838	n/a	PROB	827919	n/a	LTP279	ltpFR2	5	n/a	n/a	n/a	12	16	1	6	9
1657.706	n/a	PROB	828853	n/a	LTP279	ltpFR2	5	n/a	n/a	n/a	12	16	7	1	8
1659.992	n/a	PROB	829996	n/a	LTP279	ltpFR2	5	n/a	n/a	n/a	12	19	5	6	8
1661.726	n/a	PROB	830863	n/a	LTP279	ltpFR2	5	n/a	n/a	n/a	12	10	3	3	4
1663.548	n/a	PROB	831774	n/a	LTP279	ltpFR2	5	n/a	n/a	n/a	12	12	2	9	1
1664.906	n/a	STOP	832453	n/a	LTP279	ltpFR2	5	n/a	n/a	n/a	12	n/a	n/a	n/a	n/a
1667.316	n/a	WORD	833658	wordpools/wasnorm_wordpool_576.txt	LTP279	ltpFR2	5	8	KNAPSACK	783	n/a	n/a	0	0	0
1670.134	n/a	WORD	835067	wordpools/wasnorm_wordpool_576.txt	LTP279	ltpFR2	5	8	WINDOW	1611	n/a	n/a	0	0	0
1672.902	n/a	WORD	836451	wordpools/wasnorm_wordpool_576.txt	LTP279	ltpFR2	5	8	STREAM	1392	n/a	n/a	0	0	0
1675.488	n/a	WORD	837744	wordpools/wasnorm_wordpool_576.txt	LTP279	ltpFR2	5	8	HOOD	714	n/a	n/a	0	0	0
1678.024	n/a	WORD	839012	wordpools/wasnorm_wordpool_576.txt	LTP279	ltpFR2	5	8	HANDBAG	684	n/a	n/a	0	0	0
1680.576	n/a	WORD	840288	wordpools/wasnorm_wordpool_576.txt	LTP279	ltpFR2	5	8	LOVER	846	n/a	n/a	0	0	0
1683.078	n/a	WORD	841539	wordpools/wasnorm_wordpool_576.txt	LTP279	ltpFR2	5	8	COLONEL	348	n/a	n/a	0	0	0
1685.58	n/a	WORD	842790	wordpools/wasnorm_wordpool_576.txt	LTP279	ltpFR2	5	8	BUBBLE	183	n/a	n/a	0	0	0
1688.316	n/a	WORD	844158	wordpools/wasnorm_wordpool_576.txt	LTP279	ltpFR2	5	8	BATHTUB	100	n/a	n/a	0	0	0
1690.818	n/a	WORD	845409	wordpools/wasnorm_wordpool_576.txt	LTP279	ltpFR2	5	8	COURSE	390	n/a	n/a	0	0	0
1693.37	n/a	WORD	846685	wordpools/wasnorm_wordpool_576.txt	LTP279	ltpFR2	5	8	BROTHER	179	n/a	n/a	0	0	0
1695.954	n/a	WORD	847977	wordpools/wasnorm_wordpool_576.txt	LTP279	ltpFR2	5	8	FRAGRANCE	599	n/a	n/a	0	0	0
1698.406	n/a	WORD	849203	wordpools/wasnorm_wordpool_576.txt	LTP279	ltpFR2	5	8	CIGAR	308	n/a	n/a	0	0	0
1700.842	n/a	WORD	850421	wordpools/wasnorm_wordpool_576.txt	LTP279	ltpFR2	5	8	JELLO	754	n/a	n/a	0	0	0
1703.66	n/a	WORD	851830	wordpools/wasnorm_wordpool_576.txt	LTP279	ltpFR2	5	8	ARM	38	n/a	n/a	0	0	0
1706.196	n/a	WORD	853098	wordpools/wasnorm_wordpool_576.txt	LTP279	ltpFR2	5	8	TURNIP	1521	n/a	n/a	0	0	0
1708.882	n/a	WORD	854441	wordpools/wasnorm_wordpool_576.txt	LTP279	ltpFR2	5	8	CASHEW	253	n/a	n/a	0	0	0
1711.7	n/a	WORD	855850	wordpools/wasnorm_wordpool_576.txt	LTP279	ltpFR2	5	8	PECAN	1036	n/a	n/a	0	0	0
1714.47	n/a	WORD	857235	wordpools/wasnorm_wordpool_576.txt	LTP279	ltpFR2	5	8	THIEF	1456	n/a	n/a	0	0	0
1717.238	n/a	WORD	858619	wordpools/wasnorm_wordpool_576.txt	LTP279	ltpFR2	5	8	BOX	159	n/a	n/a	0	0	0
1719.824	n/a	WORD	859912	wordpools/wasnorm_wordpool_576.txt	LTP279	ltpFR2	5	8	HAWK	692	n/a	n/a	0	0	0
1722.56	n/a	WORD	861280	wordpools/wasnorm_wordpool_576.txt	LTP279	ltpFR2	5	8	AIRPLANE	12	n/a	n/a	0	0	0
1725.112	n/a	WORD	862556	wordpools/wasnorm_wordpool_576.txt	LTP279	ltpFR2	5	8	PACKAGE	997	n/a	n/a	0	0	0
1727.846	n/a	WORD	863923	wordpools/wasnorm_wordpool_576.txt	LTP279	ltpFR2	5	8	CELLAR	267	n/a	n/a	0	0	0
1729.464	n/a	START	864732	n/a	LTP279	ltpFR2	5	n/a	n/a	n/a	13	n/a	n/a	n/a	n/a
1730.59	n/a	DISTRACTOR	865295	n/a	LTP279	ltpFR2	5	8	n/a	n/a	n/a	n/a	0	0	0
1730.614	n/a	PROB	865307	n/a	LTP279	ltpFR2	5	n/a	n/a	n/a	13	11	7	2	2
1732.4	n/a	PROB	866200	n/a	LTP279	ltpFR2	5	n/a	n/a	n/a	13	19	7	4	8
1734.384	n/a	PROB	867192	n/a	LTP279	ltpFR2	5	n/a	n/a	n/a	13	10	3	1	6
1736.792	n/a	PROB	868396	n/a	LTP279	ltpFR2	5	n/a	n/a	n/a	13	12	4	3	5
1738.904	n/a	PROB	869452	n/a	LTP279	ltpFR2	5	n/a	n/a	n/a	13	22	9	9	4
1740.888	n/a	PROB	870444	n/a	LTP279	ltpFR2	5	n/a	n/a	n/a	13	23	6	9	7
1742.706	n/a	PROB	871353	n/a	LTP279	ltpFR2	5	n/a	n/a	n/a	13	15	4	4	7
1744.26	n/a	PROB	872130	n/a	LTP279	ltpFR2	5	n/a	n/a	n/a	13	13	6	2	5
1746.176	n/a	PROB	873088	n/a	LTP279	ltpFR2	5	n/a	n/a	n/a	13	13	5	4	4
1747.912	n/a	PROB	873956	n/a	LTP279	ltpFR2	5	n/a	n/a	n/a	13	22	6	9	7
1749.93	n/a	PROB	874965	n/a	LTP279	ltpFR2	5	n/a	n/a	n/a	13	20	7	6	7
1752.302	n/a	STOP	876151	n/a	LTP279	ltpFR2	5	n/a	n/a	n/a	13	n/a	n/a	n/a	n/a
1755.354	n/a	REC_START	877677	n/a	LTP279	ltpFR2	5	8	n/a	n/a	n/a	n/a	0	0	0
1755.65	n/a	REC_WORD	877825	wordpools/wasnorm_wordpool_576.txt	LTP279	ltpFR2	5	8	HAWK	692	n/a	n/a	0	0	0
1756.69	n/a	REC_WORD	878345	wordpools/wasnorm_wordpool_576.txt	LTP279	ltpFR2	5	8	BOX	159	n/a	n/a	0	0	0
1757.812	n/a	REC_WORD	878906	wordpools/wasnorm_wordpool_576.txt	LTP279	ltpFR2	5	8	AIRLINE	-1	n/a	n/a	0	0	0
1758.848	n/a	REC_WORD	879424	wordpools/wasnorm_wordpool_576.txt	LTP279	ltpFR2	5	8	PACKAGE	997	n/a	n/a	0	0	0
1773.046	n/a	REC_WORD	886523	wordpools/wasnorm_wordpool_576.txt	LTP279	ltpFR2	5	8	PLAZA	1088	n/a	n/a	0	0	0
1774.204	n/a	REC_WORD	887102	wordpools/wasnorm_wordpool_576.txt	LTP279	ltpFR2	5	8	STOMACH	1384	n/a	n/a	0	0	0
1780.046	n/a	REC_WORD	890023	wordpools/wasnorm_wordpool_576.txt	LTP279	ltpFR2	5	8	ISLAND	745	n/a	n/a	0	0	0
1802.076	n/a	REC_WORD	901038	wordpools/wasnorm_wordpool_576.txt	LTP279	ltpFR2	5	8	LOVER	846	n/a	n/a	0	0	0
1803.652	n/a	REC_WORD	901826	wordpools/wasnorm_wordpool_576.txt	LTP279	ltpFR2	5	8	COLONEL	348	n/a	n/a	0	0	0
1804.802	n/a	REC_WORD	902401	wordpools/wasnorm_wordpool_576.txt	LTP279	ltpFR2	5	8	BUBBLE	183	n/a	n/a	0	0	0
1806.276	n/a	REC_WORD	903138	wordpools/wasnorm_wordpool_576.txt	LTP279	ltpFR2	5	8	BATHTUB	100	n/a	n/a	0	0	0
1818.962	n/a	REC_WORD	909481	wordpools/wasnorm_wordpool_576.txt	LTP279	ltpFR2	5	8	CELLAR	267	n/a	n/a	0	0	0
1831.896	n/a	REST_REWET	915948	n/a	LTP279	ltpFR2	5	8	n/a	n/a	n/a	n/a	0	0	0
2066.898	n/a	WORD	1033449	wordpools/wasnorm_wordpool_576.txt	LTP279	ltpFR2	5	9	WIFE	1609	n/a	n/a	0	0	0
2069.7	n/a	WORD	1034850	wordpools/wasnorm_wordpool_576.txt	LTP279	ltpFR2	5	9	PALACE	1006	n/a	n/a	0	0	0
2072.402	n/a	WORD	1036201	wordpools/wasnorm_wordpool_576.txt	LTP279	ltpFR2	5	9	PRINCE	1124	n/a	n/a	0	0	0
2074.904	n/a	WORD	1037452	wordpools/wasnorm_wordpool_576.txt	LTP279	ltpFR2	5	9	DRAGON	492	n/a	n/a	0	0	0
2077.458	n/a	WORD	1038729	wordpools/wasnorm_wordpool_576.txt	LTP279	ltpFR2	5	9	HARP	689	n/a	n/a	0	0	0
2080.276	n/a	WORD	1040138	wordpools/wasnorm_wordpool_576.txt	LTP279	ltpFR2	5	9	SALAD	1224	n/a	n/a	0	0	0
2083.06	n/a	WORD	1041530	wordpools/wasnorm_wordpool_576.txt	LTP279	ltpFR2	5	9	SPHINX	1349	n/a	n/a	0	0	0
2085.58	n/a	WORD	1042790	wordpools/wasnorm_wordpool_576.txt	LTP279	ltpFR2	5	9	JUNGLE	764	n/a	n/a	0	0	0
2088.298	n/a	WORD	1044149	wordpools/wasnorm_wordpool_576.txt	LTP279	ltpFR2	5	9	LADY	794	n/a	n/a	0	0	0
2091.05	n/a	WORD	1045525	wordpools/wasnorm_wordpool_576.txt	LTP279	ltpFR2	5	9	CUSTARD	429	n/a	n/a	0	0	0
2093.752	n/a	WORD	1046876	wordpools/wasnorm_wordpool_576.txt	LTP279	ltpFR2	5	9	TORTOISE	1486	n/a	n/a	0	0	0
2096.204	n/a	WORD	1048102	wordpools/wasnorm_wordpool_576.txt	LTP279	ltpFR2	5	9	CORAL	378	n/a	n/a	0	0	0
2098.922	n/a	WORD	1049461	wordpools/wasnorm_wordpool_576.txt	LTP279	ltpFR2	5	9	MATCH	878	n/a	n/a	0	0	0
2101.642	n/a	WORD	1050821	wordpools/wasnorm_wordpool_576.txt	LTP279	ltpFR2	5	9	SNAKE	1333	n/a	n/a	0	0	0
2104.344	n/a	WORD	1052172	wordpools/wasnorm_wordpool_576.txt	LTP279	ltpFR2	5	9	MUMMY	932	n/a	n/a	0	0	0
2106.98	n/a	WORD	1053490	wordpools/wasnorm_wordpool_576.txt	LTP279	ltpFR2	5	9	MUFFIN	929	n/a	n/a	0	0	0
2109.532	n/a	WORD	1054766	wordpools/wasnorm_wordpool_576.txt	LTP279	ltpFR2	5	9	RIVER	1194	n/a	n/a	0	0	0
2112.25	n/a	WORD	1056125	wordpools/wasnorm_wordpool_576.txt	LTP279	ltpFR2	5	9	NOMAD	955	n/a	n/a	0	0	0
2114.818	n/a	WORD	1057409	wordpools/wasnorm_wordpool_576.txt	LTP279	ltpFR2	5	9	ROD	1203	n/a	n/a	0	0	0
2117.306	n/a	WORD	1058653	wordpools/wasnorm_wordpool_576.txt	LTP279	ltpFR2	5	9	GAZELLE	628	n/a	n/a	0	0	0
2119.738	n/a	WORD	1059869	wordpools/wasnorm_wordpool_576.txt	LTP279	ltpFR2	5	9	SKETCH	1315	n/a	n/a	0	0	0
2122.362	n/a	WORD	1061181	wordpools/wasnorm_wordpool_576.txt	LTP279	ltpFR2	5	9	PICTURE	1061	n/a	n/a	0	0	0
2125.144	n/a	WORD	1062572	wordpools/wasnorm_wordpool_576.txt	LTP279	ltpFR2	5	9	BELLY	119	n/a	n/a	0	0	0
2127.596	n/a	WORD	1063798	wordpools/wasnorm_wordpool_576.txt	LTP279	ltpFR2	5	9	TWISTER	1530	n/a	n/a	0	0	0
2129.214	n/a	START	1064607	n/a	LTP279	ltpFR2	5	n/a	n/a	n/a	14	n/a	n/a	n/a	n/a
2130.044	n/a	DISTRACTOR	1065022	n/a	LTP279	ltpFR2	5	9	n/a	n/a	n/a	n/a	0	0	0
2130.064	n/a	PROB	1065032	n/a	LTP279	ltpFR2	5	n/a	n/a	n/a	14	17	7	6	4
2132.048	n/a	PROB	1066024	n/a	LTP279	ltpFR2	5	n/a	n/a	n/a	14	18	7	5	6
2133.5	n/a	PROB	1066750	n/a	LTP279	ltpFR2	5	n/a	n/a	n/a	14	18	7	9	3
2135.168	n/a	PROB	1067584	n/a	LTP279	ltpFR2	5	n/a	n/a	n/a	14	18	8	9	1
2136.97	n/a	PROB	1068485	n/a	LTP279	ltpFR2	5	n/a	n/a	n/a	14	14	8	3	3
2139.288	n/a	PROB	1069644	n/a	LTP279	ltpFR2	5	n/a	n/a	n/a	14	13	6	6	1
2140.788	n/a	PROB	1070394	n/a	LTP279	ltpFR2	5	n/a	n/a	n/a	14	20	4	8	8
2142.43	n/a	PROB	1071215	n/a	LTP279	ltpFR2	5	n/a	n/a	n/a	14	23	9	5	9
2144.608	n/a	PROB	1072304	n/a	LTP279	ltpFR2	5	n/a	n/a	n/a	14	3	1	1	1
2145.776	n/a	PROB	1072888	n/a	LTP279	ltpFR2	5	n/a	n/a	n/a	14	9	4	3	2
2147.712	n/a	PROB	1073856	n/a	LTP279	ltpFR2	5	n/a	n/a	n/a	14	13	8	1	4
2149.596	n/a	PROB	1074798	n/a	LTP279	ltpFR2	5	n/a	n/a	n/a	14	15	5	5	5
2150.714	n/a	PROB	1075357	n/a	LTP279	ltpFR2	5	n/a	n/a	n/a	14	16	3	4	9
2152.224	n/a	STOP	1076112	n/a	LTP279	ltpFR2	5	n/a	n/a	n/a	14	n/a	n/a	n/a	n/a
2155.136	n/a	REC_START	1077568	n/a	LTP279	ltpFR2	5	9	n/a	n/a	n/a	n/a	0	0	0
2155.944	n/a	REC_WORD	1077972	wordpools/wasnorm_wordpool_576.txt	LTP279	ltpFR2	5	9	BELLY	119	n/a	n/a	0	0	0
2156.946	n/a	REC_WORD	1078473	wordpools/wasnorm_wordpool_576.txt	LTP279	ltpFR2	5	9	TWISTER	1530	n/a	n/a	0	0	0
2159.466	n/a	REC_WORD	1079733	wordpools/wasnorm_wordpool_576.txt	LTP279	ltpFR2	5	9	SALAD	1224	n/a	n/a	0	0	0
2160.338	n/a	REC_WORD	1080169	wordpools/wasnorm_wordpool_576.txt	LTP279	ltpFR2	5	9	SPHINX	1349	n/a	n/a	0	0	0
2163.422	n/a	REC_WORD	1081711	wordpools/wasnorm_wordpool_576.txt	LTP279	ltpFR2	5	9	MATCH	878	n/a	n/a	0	0	0
2164.032	n/a	REC_WORD	1082016	wordpools/wasnorm_wordpool_576.txt	LTP279	ltpFR2	5	9	SNAKE	1333	n/a	n/a	0	0	0
2167.87	n/a	REC_WORD	1083935	wordpools/wasnorm_wordpool_576.txt	LTP279	ltpFR2	5	9	JUNGLE	764	n/a	n/a	0	0	0
2172.992	n/a	REC_WORD	1086496	wordpools/wasnorm_wordpool_576.txt	LTP279	ltpFR2	5	9	MUMMY	932	n/a	n/a	0	0	0
2173.95	n/a	REC_WORD	1086975	wordpools/wasnorm_wordpool_576.txt	LTP279	ltpFR2	5	9	MUFFIN	929	n/a	n/a	0	0	0
2175.074	n/a	REC_WORD	1087537	wordpools/wasnorm_wordpool_576.txt	LTP279	ltpFR2	5	9	RIVER	1194	n/a	n/a	0	0	0
2177.154	n/a	REC_WORD	1088577	wordpools/wasnorm_wordpool_576.txt	LTP279	ltpFR2	5	9	NOMAD	955	n/a	n/a	0	0	0
2178.374	n/a	REC_WORD	1089187	wordpools/wasnorm_wordpool_576.txt	LTP279	ltpFR2	5	9	ROD	1203	n/a	n/a	0	0	0
2245.788	n/a	WORD	1122894	wordpools/wasnorm_wordpool_576.txt	LTP279	ltpFR2	5	10	COUCH	386	n/a	n/a	0	0	0
2248.574	n/a	WORD	1124287	wordpools/wasnorm_wordpool_576.txt	LTP279	ltpFR2	5	10	SERVANT	1271	n/a	n/a	0	0	0
2251.344	n/a	WORD	1125672	wordpools/wasnorm_wordpool_576.txt	LTP279	ltpFR2	5	10	BASEMENT	94	n/a	n/a	0	0	0
2254.062	n/a	WORD	1127031	wordpools/wasnorm_wordpool_576.txt	LTP279	ltpFR2	5	10	POSSUM	1112	n/a	n/a	0	0	0
2256.898	n/a	WORD	1128449	wordpools/wasnorm_wordpool_576.txt	LTP279	ltpFR2	5	10	JOURNAL	760	n/a	n/a	0	0	0
2259.52	n/a	WORD	1129760	wordpools/wasnorm_wordpool_576.txt	LTP279	ltpFR2	5	10	NAPKIN	937	n/a	n/a	0	0	0
2262.102	n/a	WORD	1131051	wordpools/wasnorm_wordpool_576.txt	LTP279	ltpFR2	5	10	TUBA	1515	n/a	n/a	0	0	0
2264.854	n/a	WORD	1132427	wordpools/wasnorm_wordpool_576.txt	LTP279	ltpFR2	5	10	BRIEFCASE	175	n/a	n/a	0	0	0
2267.674	n/a	WORD	1133837	wordpools/wasnorm_wordpool_576.txt	LTP279	ltpFR2	5	10	EYELASH	546	n/a	n/a	0	0	0
2270.376	n/a	WORD	1135188	wordpools/wasnorm_wordpool_576.txt	LTP279	ltpFR2	5	10	THRONE	1461	n/a	n/a	0	0	0
2273.112	n/a	WORD	1136556	wordpools/wasnorm_wordpool_576.txt	LTP279	ltpFR2	5	10	GRAPE	654	n/a	n/a	0	0	0
2275.646	n/a	WORD	1137823	wordpools/wasnorm_wordpool_576.txt	LTP279	ltpFR2	5	10	CHAMPAGNE	278	n/a	n/a	0	0	0
2278.166	n/a	WORD	1139083	wordpools/wasnorm_wordpool_576.txt	LTP279	ltpFR2	5	10	PAIL	1002	n/a	n/a	0	0	0
2280.7	n/a	WORD	1140350	wordpools/wasnorm_wordpool_576.txt	LTP279	ltpFR2	5	10	INMATE	738	n/a	n/a	0	0	0
2283.352	n/a	WORD	1141676	wordpools/wasnorm_wordpool_576.txt	LTP279	ltpFR2	5	10	LUMBER	848	n/a	n/a	0	0	0
2285.888	n/a	WORD	1142944	wordpools/wasnorm_wordpool_576.txt	LTP279	ltpFR2	5	10	KIDNEY	776	n/a	n/a	0	0	0
2288.608	n/a	WORD	1144304	wordpools/wasnorm_wordpool_576.txt	LTP279	ltpFR2	5	10	PORTRAIT	1111	n/a	n/a	0	0	0
2291.392	n/a	WORD	1145696	wordpools/wasnorm_wordpool_576.txt	LTP279	ltpFR2	5	10	FRAME	600	n/a	n/a	0	0	0
2294.178	n/a	WORD	1147089	wordpools/wasnorm_wordpool_576.txt	LTP279	ltpFR2	5	10	BANJO	82	n/a	n/a	0	0	0
2296.964	n/a	WORD	1148482	wordpools/wasnorm_wordpool_576.txt	LTP279	ltpFR2	5	10	WAITER	1580	n/a	n/a	0	0	0
2299.566	n/a	WORD	1149783	wordpools/wasnorm_wordpool_576.txt	LTP279	ltpFR2	5	10	LONDON	843	n/a	n/a	0	0	0
2302.318	n/a	WORD	1151159	wordpools/wasnorm_wordpool_576.txt	LTP279	ltpFR2	5	10	MEAT	883	n/a	n/a	0	0	0
2305.12	n/a	WORD	1152560	wordpools/wasnorm_wordpool_576.txt	LTP279	ltpFR2	5	10	LEG	809	n/a	n/a	0	0	0
2307.572	n/a	WORD	1153786	wordpools/wasnorm_wordpool_576.txt	LTP279	ltpFR2	5	10	OINTMENT	974	n/a	n/a	0	0	0
2309.19	n/a	START	1154595	n/a	LTP279	ltpFR2	5	n/a	n/a	n/a	15	n/a	n/a	n/a	n/a
2310.04	n/a	DISTRACTOR	1155020	n/a	LTP279	ltpFR2	5	10	n/a	n/a	n/a	n/a	0	0	0
2310.058	n/a	PROB	1155029	n/a	LTP279	ltpFR2	5	n/a	n/a	n/a	15	12	3	4	5
2311.758	n/a	PROB	1155879	n/a	LTP279	ltpFR2	5	n/a	n/a	n/a	15	6	1	1	4
2313.174	n/a	PROB	1156587	n/a	LTP279	ltpFR2	5	n/a	n/a	n/a	15	18	7	4	7
2315.144	n/a	PROB	1157572	n/a	LTP279	ltpFR2	5	n/a	n/a	n/a	15	21	4	9	8
2316.612	n/a	PROB	1158306	n/a	LTP279	ltpFR2	5	n/a	n/a	n/a	15	12	2	4	6
2317.996	n/a	PROB	1158998	n/a	LTP279	ltpFR2	5	n/a	n/a	n/a	15	13	4	6	3
2319.314	n/a	PROB	1159657	n/a	LTP279	ltpFR2	5	n/a	n/a	n/a	15	13	6	1	6
2320.632	n/a	PROB	1160316	n/a	LTP279	ltpFR2	5	n/a	n/a	n/a	15	7	3	3	2
2321.998	n/a	PROB	1160999	n/a	LTP279	ltpFR2	5	n/a	n/a	n/a	15	10	3	4	3
2324.554	n/a	PROB	1162277	n/a	LTP279	ltpFR2	5	n/a	n/a	n/a	15	6	4	1	1
2325.986	n/a	PROB	1162993	n/a	LTP279	ltpFR2	5	n/a	n/a	n/a	15	8	4	3	1
2327.52	n/a	PROB	1163760	n/a	LTP279	ltpFR2	5	n/a	n/a	n/a	15	21	7	5	9
2329.306	n/a	PROB	1164653	n/a	LTP279	ltpFR2	5	n/a	n/a	n/a	15	18	6	3	9
2331.372	n/a	PROB	1165686	n/a	LTP279	ltpFR2	5	n/a	n/a	n/a	15	14	9	1	4
2332.83	n/a	STOP	1166415	n/a	LTP279	ltpFR2	5	n/a	n/a	n/a	15	n/a	n/a	n/a	n/a
2335.06	n/a	REC_START	1167530	n/a	LTP279	ltpFR2	5	10	n/a	n/a	n/a	n/a	0	0	0
2335.488	n/a	REC_WORD	1167744	wordpools/wasnorm_wordpool_576.txt	LTP279	ltpFR2	5	10	OINTMENT	974	n/a	n/a	0	0	0
2336.426	n/a	REC_WORD	1168213	wordpools/wasnorm_wordpool_576.txt	LTP279	ltpFR2	5	10	LEG	809	n/a	n/a	0	0	0
2337.66	n/a	REC_WORD	1168830	wordpools/wasnorm_wordpool_576.txt	LTP279	ltpFR2	5	10	MEAT	883	n/a	n/a	0	0	0
2356.13	n/a	REC_WORD	1178065	wordpools/wasnorm_wordpool_576.txt	LTP279	ltpFR2	5	10	SERVANT	1271	n/a	n/a	0	0	0
2357.484	n/a	REC_WORD	1178742	wordpools/wasnorm_wordpool_576.txt	LTP279	ltpFR2	5	10	COUCH	386	n/a	n/a	0	0	0
2359.838	n/a	REC_WORD	1179919	wordpools/wasnorm_wordpool_576.txt	LTP279	ltpFR2	5	10	BASEMENT	94	n/a	n/a	0	0	0
2365.946	n/a	REC_WORD	1182973	wordpools/wasnorm_wordpool_576.txt	LTP279	ltpFR2	5	10	THRONE	1461	n/a	n/a	0	0	0
2367.17	n/a	REC_WORD	1183585	wordpools/wasnorm_wordpool_576.txt	LTP279	ltpFR2	5	10	GRAPE	654	n/a	n/a	0	0	0
2382.256	n/a	REC_WORD	1191128	wordpools/wasnorm_wordpool_576.txt	LTP279	ltpFR2	5	10	JOURNAL	760	n/a	n/a	0	0	0
2383.594	n/a	REC_WORD	1191797	wordpools/wasnorm_wordpool_576.txt	LTP279	ltpFR2	5	10	NAPKIN	937	n/a	n/a	0	0	0
2384.944	n/a	REC_WORD	1192472	wordpools/wasnorm_wordpool_576.txt	LTP279	ltpFR2	5	10	TUBA	1515	n/a	n/a	0	0	0
2387.37	n/a	REC_WORD	1193685	wordpools/wasnorm_wordpool_576.txt	LTP279	ltpFR2	5	10	BRIEFCASE	175	n/a	n/a	0	0	0
2425.716	n/a	WORD	1212858	wordpools/wasnorm_wordpool_576.txt	LTP279	ltpFR2	5	11	OMELET	976	n/a	n/a	0	0	0
2428.534	n/a	WORD	1214267	wordpools/wasnorm_wordpool_576.txt	LTP279	ltpFR2	5	11	CREATURE	403	n/a	n/a	0	0	0
2431.218	n/a	WORD	1215609	wordpools/wasnorm_wordpool_576.txt	LTP279	ltpFR2	5	11	LIZARD	834	n/a	n/a	0	0	0
2433.92	n/a	WORD	1216960	wordpools/wasnorm_wordpool_576.txt	LTP279	ltpFR2	5	11	BOARD	143	n/a	n/a	0	0	0
2436.44	n/a	WORD	1218220	wordpools/wasnorm_wordpool_576.txt	LTP279	ltpFR2	5	11	MEDAL	885	n/a	n/a	0	0	0
2439.074	n/a	WORD	1219537	wordpools/wasnorm_wordpool_576.txt	LTP279	ltpFR2	5	11	LAMP	798	n/a	n/a	0	0	0
2441.844	n/a	WORD	1220922	wordpools/wasnorm_wordpool_576.txt	LTP279	ltpFR2	5	11	LIPSTICK	829	n/a	n/a	0	0	0
2444.496	n/a	WORD	1222248	wordpools/wasnorm_wordpool_576.txt	LTP279	ltpFR2	5	11	LUGGAGE	847	n/a	n/a	0	0	0
2446.998	n/a	WORD	1223499	wordpools/wasnorm_wordpool_576.txt	LTP279	ltpFR2	5	11	SWAMP	1416	n/a	n/a	0	0	0
2449.684	n/a	WORD	1224842	wordpools/wasnorm_wordpool_576.txt	LTP279	ltpFR2	5	11	CLOUD	328	n/a	n/a	0	0	0
2452.202	n/a	WORD	1226101	wordpools/wasnorm_wordpool_576.txt	LTP279	ltpFR2	5	11	COUSIN	392	n/a	n/a	0	0	0
2454.754	n/a	WORD	1227377	wordpools/wasnorm_wordpool_576.txt	LTP279	ltpFR2	5	11	NECKLACE	940	n/a	n/a	0	0	0
2457.222	n/a	WORD	1228611	wordpools/wasnorm_wordpool_576.txt	LTP279	ltpFR2	5	11	WAGON	1578	n/a	n/a	0	0	0
2459.926	n/a	WORD	1229963	wordpools/wasnorm_wordpool_576.txt	LTP279	ltpFR2	5	11	SALMON	1227	n/a	n/a	0	0	0
2462.41	n/a	WORD	1231205	wordpools/wasnorm_wordpool_576.txt	LTP279	ltpFR2	5	11	OYSTER	995	n/a	n/a	0	0	0
2465.162	n/a	WORD	1232581	wordpools/wasnorm_wordpool_576.txt	LTP279	ltpFR2	5	11	SHORTCAKE	1292	n/a	n/a	0	0	0
2467.766	n/a	WORD	1233883	wordpools/wasnorm_wordpool_576.txt	LTP279	ltpFR2	5	11	SNACK	1331	n/a	n/a	0	0	0
2470.468	n/a	WORD	1235234	wordpools/wasnorm_wordpool_576.txt	LTP279	ltpFR2	5	11	SNAIL	1332	n/a	n/a	0	0	0
2473.152	n/a	WORD	1236576	wordpools/wasnorm_wordpool_576.txt	LTP279	ltpFR2	5	11	TURTLE	1522	n/a	n/a	0	0	0
2475.754	n/a	WORD	1237877	wordpools/wasnorm_wordpool_576.txt	LTP279	ltpFR2	5	11	LACE	792	n/a	n/a	0	0	0
2478.44	n/a	WORD	1239220	wordpools/wasnorm_wordpool_576.txt	LTP279	ltpFR2	5	11	SMOG	1330	n/a	n/a	0	0	0
2481.142	n/a	WORD	1240571	wordpools/wasnorm_wordpool_576.txt	LTP279	ltpFR2	5	11	DONKEY	484	n/a	n/a	0	0	0
2483.912	n/a	WORD	1241956	wordpools/wasnorm_wordpool_576.txt	LTP279	ltpFR2	5	11	BLACKBOARD	133	n/a	n/a	0	0	0
2486.496	n/a	WORD	1243248	wordpools/wasnorm_wordpool_576.txt	LTP279	ltpFR2	5	11	SCARF	1246	n/a	n/a	0	0	0
2488.114	n/a	START	1244057	n/a	LTP279	ltpFR2	5	n/a	n/a	n/a	16	n/a	n/a	n/a	n/a
2489.18	n/a	DISTRACTOR	1244590	n/a	LTP279	ltpFR2	5	11	n/a	n/a	n/a	n/a	0	0	0
2489.198	n/a	PROB	1244599	n/a	LTP279	ltpFR2	5	n/a	n/a	n/a	16	24	9	7	8
2492.134	n/a	PROB	1246067	n/a	LTP279	ltpFR2	5	n/a	n/a	n/a	16	14	5	7	2
2493.686	n/a	PROB	1246843	n/a	LTP279	ltpFR2	5	n/a	n/a	n/a	16	13	3	2	8
2495.586	n/a	PROB	1247793	n/a	LTP279	ltpFR2	5	n/a	n/a	n/a	16	14	3	8	3
2497.222	n/a	PROB	1248611	n/a	LTP279	ltpFR2	5	n/a	n/a	n/a	16	19	7	3	9
2499.224	n/a	PROB	1249612	n/a	LTP279	ltpFR2	5	n/a	n/a	n/a	16	18	9	4	5
2500.758	n/a	PROB	1250379	n/a	LTP279	ltpFR2	5	n/a	n/a	n/a	16	13	6	6	1
2502.276	n/a	PROB	1251138	n/a	LTP279	ltpFR2	5	n/a	n/a	n/a	16	7	1	5	1
2503.776	n/a	PROB	1251888	n/a	LTP279	ltpFR2	5	n/a	n/a	n/a	16	10	3	6	1
2506.178	n/a	PROB	1253089	n/a	LTP279	ltpFR2	5	n/a	n/a	n/a	16	14	1	7	6
2507.83	n/a	PROB	1253915	n/a	LTP279	ltpFR2	5	n/a	n/a	n/a	16	11	3	1	7
2509.682	n/a	PROB	1254841	n/a	LTP279	ltpFR2	5	n/a	n/a	n/a	16	17	5	7	5
2511.476	n/a	STOP	1255738	n/a	LTP279	ltpFR2	5	n/a	n/a	n/a	16	n/a	n/a	n/a	n/a
2513.97	n/a	REC_START	1256985	n/a	LTP279	ltpFR2	5	11	n/a	n/a	n/a	n/a	0	0	0
2514.232	n/a	REC_WORD	1257116	wordpools/wasnorm_wordpool_576.txt	LTP279	ltpFR2	5	11	SMOG	1330	n/a	n/a	0	0	0
2515.568	n/a	REC_WORD	1257784	wordpools/wasnorm_wordpool_576.txt	LTP279	ltpFR2	5	11	DONKEY	484	n/a	n/a	0	0	0
2516.632	n/a	REC_WORD	1258316	wordpools/wasnorm_wordpool_576.txt	LTP279	ltpFR2	5	11	BLACKBOARD	133	n/a	n/a	0	0	0
2517.89	n/a	REC_WORD	1258945	wordpools/wasnorm_wordpool_576.txt	LTP279	ltpFR2	5	11	OYSTER	995	n/a	n/a	0	0	0
2519.036	n/a	REC_WORD	1259518	wordpools/wasnorm_wordpool_576.txt	LTP279	ltpFR2	5	11	SHORTCAKE	1292	n/a	n/a	0	0	0
2520.162	n/a	REC_WORD	1260081	wordpools/wasnorm_wordpool_576.txt	LTP279	ltpFR2	5	11	SNACK	1331	n/a	n/a	0	0	0
2604.622	n/a	WORD	1302311	wordpools/wasnorm_wordpool_576.txt	LTP279	ltpFR2	5	12	DONOR	485	n/a	n/a	0	0	0
2607.326	n/a	WORD	1303663	wordpools/wasnorm_wordpool_576.txt	LTP279	ltpFR2	5	12	CHURCH	307	n/a	n/a	0	0	0
2609.96	n/a	WORD	1304980	wordpools/wasnorm_wordpool_576.txt	LTP279	ltpFR2	5	12	HUSBAND	728	n/a	n/a	0	0	0
2612.646	n/a	WORD	1306323	wordpools/wasnorm_wordpool_576.txt	LTP279	ltpFR2	5	12	EAGLE	512	n/a	n/a	0	0	0
2615.332	n/a	WORD	1307666	wordpools/wasnorm_wordpool_576.txt	LTP279	ltpFR2	5	12	TWEEZERS	1526	n/a	n/a	0	0	0
2617.834	n/a	WORD	1308917	wordpools/wasnorm_wordpool_576.txt	LTP279	ltpFR2	5	12	NURSE	963	n/a	n/a	0	0	0
2620.536	n/a	WORD	1310268	wordpools/wasnorm_wordpool_576.txt	LTP279	ltpFR2	5	12	MATTRESS	879	n/a	n/a	0	0	0
2623.172	n/a	WORD	1311586	wordpools/wasnorm_wordpool_576.txt	LTP279	ltpFR2	5	12	SODA	1341	n/a	n/a	0	0	0
2625.99	n/a	WORD	1312995	wordpools/wasnorm_wordpool_576.txt	LTP279	ltpFR2	5	12	BALLOON	75	n/a	n/a	0	0	0
2628.526	n/a	WORD	1314263	wordpools/wasnorm_wordpool_576.txt	LTP279	ltpFR2	5	12	WORKER	1621	n/a	n/a	0	0	0
2631.046	n/a	WORD	1315523	wordpools/wasnorm_wordpool_576.txt	LTP279	ltpFR2	5	12	PLAID	1080	n/a	n/a	0	0	0
2633.68	n/a	WORD	1316840	wordpools/wasnorm_wordpool_576.txt	LTP279	ltpFR2	5	12	SHIRT	1287	n/a	n/a	0	0	0
2636.432	n/a	WORD	1318216	wordpools/wasnorm_wordpool_576.txt	LTP279	ltpFR2	5	12	JEANS	752	n/a	n/a	0	0	0
2639.218	n/a	WORD	1319609	wordpools/wasnorm_wordpool_576.txt	LTP279	ltpFR2	5	12	PLAYGROUND	1087	n/a	n/a	0	0	0
2641.702	n/a	WORD	1320851	wordpools/wasnorm_wordpool_576.txt	LTP279	ltpFR2	5	12	QUAIL	1147	n/a	n/a	0	0	0
2644.222	n/a	WORD	1322111	wordpools/wasnorm_wordpool_576.txt	LTP279	ltpFR2	5	12	ROOSTER	1209	n/a	n/a	0	0	0
2646.856	n/a	WORD	1323428	wordpools/wasnorm_wordpool_576.txt	LTP279	ltpFR2	5	12	CROWN	415	n/a	n/a	0	0	0
2649.526	n/a	WORD	1324763	wordpools/wasnorm_wordpool_576.txt	LTP279	ltpFR2	5	12	LIVER	833	n/a	n/a	0	0	0
2652.094	n/a	WORD	1326047	wordpools/wasnorm_wordpool_576.txt	LTP279	ltpFR2	5	12	SCALPEL	1243	n/a	n/a	0	0	0
2654.814	n/a	WORD	1327407	wordpools/wasnorm_wordpool_576.txt	LTP279	ltpFR2	5	12	LIGHTNING	820	n/a	n/a	0	0	0
2657.266	n/a	WORD	1328633	wordpools/wasnorm_wordpool_576.txt	LTP279	ltpFR2	5	12	FEMALE	559	n/a	n/a	0	0	0
2659.718	n/a	WORD	1329859	wordpools/wasnorm_wordpool_576.txt	LTP279	ltpFR2	5	12	GHETTO	633	n/a	n/a	0	0	0
2662.502	n/a	WORD	1331251	wordpools/wasnorm_wordpool_576.txt	LTP279	ltpFR2	5	12	HIKER	708	n/a	n/a	0	0	0
2665.256	n/a	WORD	1332628	wordpools/wasnorm_wordpool_576.txt	LTP279	ltpFR2	5	12	INFANT	737	n/a	n/a	0	0	0
2666.872	n/a	START	1333436	n/a	LTP279	ltpFR2	5	n/a	n/a	n/a	17	n/a	n/a	n/a	n/a
2668.006	n/a	DISTRACTOR	1334003	n/a	LTP279	ltpFR2	5	12	n/a	n/a	n/a	n/a	0	0	0
2668.024	n/a	PROB	1334012	n/a	LTP279	ltpFR2	5	n/a	n/a	n/a	17	15	8	3	4
2670.208	n/a	PROB	1335104	n/a	LTP279	ltpFR2	5	n/a	n/a	n/a	17	14	5	4	5
2672.226	n/a	PROB	1336113	n/a	LTP279	ltpFR2	5	n/a	n/a	n/a	17	12	7	2	3
2673.694	n/a	PROB	1336847	n/a	LTP279	ltpFR2	5	n/a	n/a	n/a	17	16	8	5	3
2675.85	n/a	PROB	1337925	n/a	LTP279	ltpFR2	5	n/a	n/a	n/a	17	13	1	7	5
2677.23	n/a	PROB	1338615	n/a	LTP279	ltpFR2	5	n/a	n/a	n/a	17	10	5	3	2
2679.148	n/a	PROB	1339574	n/a	LTP279	ltpFR2	5	n/a	n/a	n/a	17	12	2	7	4
2680.966	n/a	PROB	1340483	n/a	LTP279	ltpFR2	5	n/a	n/a	n/a	17	13	2	6	5
2682.302	n/a	PROB	1341151	n/a	LTP279	ltpFR2	5	n/a	n/a	n/a	17	13	8	4	1
2684.27	n/a	PROB	1342135	n/a	LTP279	ltpFR2	5	n/a	n/a	n/a	17	16	5	9	2
2686.392	n/a	PROB	1343196	n/a	LTP279	ltpFR2	5	n/a	n/a	n/a	17	21	8	7	6
2688.722	n/a	PROB	1344361	n/a	LTP279	ltpFR2	5	n/a	n/a	n/a	17	21	6	8	7
2690.712	n/a	STOP	1345356	n/a	LTP279	ltpFR2	5	n/a	n/a	n/a	17	n/a	n/a	n/a	n/a
2692.86	n/a	REC_START	1346430	n/a	LTP279	ltpFR2	5	12	n/a	n/a	n/a	n/a	0	0	0
2693.386	n/a	REC_WORD	1346693	wordpools/wasnorm_wordpool_576.txt	LTP279	ltpFR2	5	12	GHETTO	633	n/a	n/a	0	0	0
2694.148	n/a	REC_WORD	1347074	wordpools/wasnorm_wordpool_576.txt	LTP279	ltpFR2	5	12	HIKER	708	n/a	n/a	0	0	0
2695.438	n/a	REC_WORD	1347719	wordpools/wasnorm_wordpool_576.txt	LTP279	ltpFR2	5	12	INFANT	737	n/a	n/a	0	0	0
2696.158	n/a	REC_WORD	1348079	wordpools/wasnorm_wordpool_576.txt	LTP279	ltpFR2	5	12	ROOSTER	1209	n/a	n/a	0	0	0
2697.22	n/a	REC_WORD	1348610	wordpools/wasnorm_wordpool_576.txt	LTP279	ltpFR2	5	12	CROWN	415	n/a	n/a	0	0	0
2698.158	n/a	REC_WORD	1349079	wordpools/wasnorm_wordpool_576.txt	LTP279	ltpFR2	5	12	LIVER	833	n/a	n/a	0	0	0
2699.03	n/a	REC_WORD	1349515	wordpools/wasnorm_wordpool_576.txt	LTP279	ltpFR2	5	12	SCALPEL	1243	n/a	n/a	0	0	0
2700.066	n/a	REC_WORD	1350033	wordpools/wasnorm_wordpool_576.txt	LTP279	ltpFR2	5	12	LIGHTNING	820	n/a	n/a	0	0	0
2783.514	n/a	WORD	1391757	wordpools/wasnorm_wordpool_576.txt	LTP279	ltpFR2	5	13	HEDGE	699	n/a	n/a	0	0	0
2786.066	n/a	WORD	1393033	wordpools/wasnorm_wordpool_576.txt	LTP279	ltpFR2	5	13	FRUIT	610	n/a	n/a	0	0	0
2788.634	n/a	WORD	1394317	wordpools/wasnorm_wordpool_576.txt	LTP279	ltpFR2	5	13	ORANGE	980	n/a	n/a	0	0	0
2791.304	n/a	WORD	1395652	wordpools/wasnorm_wordpool_576.txt	LTP279	ltpFR2	5	13	PAPER	1011	n/a	n/a	0	0	0
2794.072	n/a	WORD	1397036	wordpools/wasnorm_wordpool_576.txt	LTP279	ltpFR2	5	13	HEART	697	n/a	n/a	0	0	0
2796.558	n/a	WORD	1398279	wordpools/wasnorm_wordpool_576.txt	LTP279	ltpFR2	5	13	ROBOT	1200	n/a	n/a	0	0	0
2799.092	n/a	WORD	1399546	wordpools/wasnorm_wordpool_576.txt	LTP279	ltpFR2	5	13	COFFEE	341	n/a	n/a	0	0	0
2801.73	n/a	WORD	1400865	wordpools/wasnorm_wordpool_576.txt	LTP279	ltpFR2	5	13	PEPPER	1047	n/a	n/a	0	0	0
2804.38	n/a	WORD	1402190	wordpools/wasnorm_wordpool_576.txt	LTP279	ltpFR2	5	13	VIKING	1565	n/a	n/a	0	0	0
2807.082	n/a	WORD	1403541	wordpools/wasnorm_wordpool_576.txt	LTP279	ltpFR2	5	13	RAFT	1159	n/a	n/a	0	0	0
2809.706	n/a	WORD	1404853	wordpools/wasnorm_wordpool_576.txt	LTP279	ltpFR2	5	13	REPORT	1184	n/a	n/a	0	0	0
2812.154	n/a	WORD	1406077	wordpools/wasnorm_wordpool_576.txt	LTP279	ltpFR2	5	13	CONVICT	371	n/a	n/a	0	0	0
2814.79	n/a	WORD	1407395	wordpools/wasnorm_wordpool_576.txt	LTP279	ltpFR2	5	13	RELISH	1183	n/a	n/a	0	0	0
2817.458	n/a	WORD	1408729	wordpools/wasnorm_wordpool_576.txt	LTP279	ltpFR2	5	13	LADDER	793	n/a	n/a	0	0	0
2819.96	n/a	WORD	1409980	wordpools/wasnorm_wordpool_576.txt	LTP279	ltpFR2	5	13	BLUEPRINT	142	n/a	n/a	0	0	0
2822.562	n/a	WORD	1411281	wordpools/wasnorm_wordpool_576.txt	LTP279	ltpFR2	5	13	SCISSORS	1250	n/a	n/a	0	0	0
2825.248	n/a	WORD	1412624	wordpools/wasnorm_wordpool_576.txt	LTP279	ltpFR2	5	13	GOBLIN	645	n/a	n/a	0	0	0
2828.066	n/a	WORD	1414033	wordpools/wasnorm_wordpool_576.txt	LTP279	ltpFR2	5	13	SLIME	1327	n/a	n/a	0	0	0
2830.852	n/a	WORD	1415426	wordpools/wasnorm_wordpool_576.txt	LTP279	ltpFR2	5	13	SISTER	1312	n/a	n/a	0	0	0
2833.52	n/a	WORD	1416760	wordpools/wasnorm_wordpool_576.txt	LTP279	ltpFR2	5	13	STOVE	1388	n/a	n/a	0	0	0
2836.122	n/a	WORD	1418061	wordpools/wasnorm_wordpool_576.txt	LTP279	ltpFR2	5	13	FUNGUS	614	n/a	n/a	0	0	0
2838.842	n/a	WORD	1419421	wordpools/wasnorm_wordpool_576.txt	LTP279	ltpFR2	5	13	PREACHER	1119	n/a	n/a	0	0	0
2841.312	n/a	WORD	1420656	wordpools/wasnorm_wordpool_576.txt	LTP279	ltpFR2	5	13	BISON	131	n/a	n/a	0	0	0
2844.128	n/a	WORD	1422064	wordpools/wasnorm_wordpool_576.txt	LTP279	ltpFR2	5	13	GARLIC	624	n/a	n/a	0	0	0
2845.748	n/a	START	1422874	n/a	LTP279	ltpFR2	5	n/a	n/a	n/a	18	n/a	n/a	n/a	n/a
2846.832	n/a	DISTRACTOR	1423416	n/a	LTP279	ltpFR2	5	13	n/a	n/a	n/a	n/a	0	0	0
2846.848	n/a	PROB	1423424	n/a	LTP279	ltpFR2	5	n/a	n/a	n/a	18	22	8	6	8
2850.934	n/a	PROB	1425467	n/a	LTP279	ltpFR2	5	n/a	n/a	n/a	18	9	1	3	5
2852.506	n/a	PROB	1426253	n/a	LTP279	ltpFR2	5	n/a	n/a	n/a	18	14	5	5	4
2853.62	n/a	PROB	1426810	n/a	LTP279	ltpFR2	5	n/a	n/a	n/a	18	19	6	6	7
2855.922	n/a	PROB	1427961	n/a	LTP279	ltpFR2	5	n/a	n/a	n/a	18	10	4	3	3
2858.34	n/a	PROB	1429170	n/a	LTP279	ltpFR2	5	n/a	n/a	n/a	18	24	8	9	7
2861.876	n/a	PROB	1430938	n/a	LTP279	ltpFR2	5	n/a	n/a	n/a	18	19	8	3	8
2863.512	n/a	PROB	1431756	n/a	LTP279	ltpFR2	5	n/a	n/a	n/a	18	6	1	4	1
2864.762	n/a	PROB	1432381	n/a	LTP279	ltpFR2	5	n/a	n/a	n/a	18	16	3	7	6
2866.714	n/a	PROB	1433357	n/a	LTP279	ltpFR2	5	n/a	n/a	n/a	18	10	2	1	7
2868.234	n/a	PROB	1434117	n/a	LTP279	ltpFR2	5	n/a	n/a	n/a	18	13	6	4	3
2869.526	n/a	STOP	1434763	n/a	LTP279	ltpFR2	5	n/a	n/a	n/a	18	n/a	n/a	n/a	n/a
2871.57	n/a	REC_START	1435785	n/a	LTP279	ltpFR2	5	13	n/a	n/a	n/a	n/a	0	0	0
2871.934	n/a	REC_WORD	1435967	wordpools/wasnorm_wordpool_576.txt	LTP279	ltpFR2	5	13	BISON	131	n/a	n/a	0	0	0
2873.048	n/a	REC_WORD	1436524	wordpools/wasnorm_wordpool_576.txt	LTP279	ltpFR2	5	13	PREACHER	1119	n/a	n/a	0	0	0
2874.394	n/a	REC_WORD	1437197	wordpools/wasnorm_wordpool_576.txt	LTP279	ltpFR2	5	13	GARLIC	624	n/a	n/a	0	0	0
2875.122	n/a	REC_WORD	1437561	wordpools/wasnorm_wordpool_576.txt	LTP279	ltpFR2	5	13	SISTER	1312	n/a	n/a	0	0	0
2876.054	n/a	REC_WORD	1438027	wordpools/wasnorm_wordpool_576.txt	LTP279	ltpFR2	5	13	SLIME	1327	n/a	n/a	0	0	0
2876.98	n/a	REC_WORD	1438490	wordpools/wasnorm_wordpool_576.txt	LTP279	ltpFR2	5	13	STOVE	1388	n/a	n/a	0	0	0
2878.514	n/a	REC_WORD	1439257	wordpools/wasnorm_wordpool_576.txt	LTP279	ltpFR2	5	13	FUNGUS	614	n/a	n/a	0	0	0
2882.278	n/a	REC_WORD	1441139	wordpools/wasnorm_wordpool_576.txt	LTP279	ltpFR2	5	13	BLUEPRINT	142	n/a	n/a	0	0	0
2883.536	n/a	REC_WORD	1441768	wordpools/wasnorm_wordpool_576.txt	LTP279	ltpFR2	5	13	SCISSORS	1250	n/a	n/a	0	0	0
2884.536	n/a	REC_WORD_VV	1442268	wordpools/wasnorm_wordpool_576.txt	LTP279	ltpFR2	5	13	<>	-1	n/a	n/a	0	0	0
2962.19	n/a	DISTRACTOR	1481095	n/a	LTP279	ltpFR2	5	14	n/a	n/a	n/a	n/a	0	0	0
2962.19	n/a	START	1481095	n/a	LTP279	ltpFR2	5	n/a	n/a	n/a	19	n/a	n/a	n/a	n/a
2962.222	n/a	PROB	1481111	n/a	LTP279	ltpFR2	5	n/a	n/a	n/a	19	11	4	1	6
2963.64	n/a	PROB	1481820	n/a	LTP279	ltpFR2	5	n/a	n/a	n/a	19	17	3	6	8
2965.292	n/a	PROB	1482646	n/a	LTP279	ltpFR2	5	n/a	n/a	n/a	19	14	6	4	4
2966.61	n/a	PROB	1483305	n/a	LTP279	ltpFR2	5	n/a	n/a	n/a	19	15	4	6	5
2967.91	n/a	PROB	1483955	n/a	LTP279	ltpFR2	5	n/a	n/a	n/a	19	13	1	9	3
2969.378	n/a	PROB	1484689	n/a	LTP279	ltpFR2	5	n/a	n/a	n/a	19	12	2	5	5
2970.928	n/a	PROB	1485464	n/a	LTP279	ltpFR2	5	n/a	n/a	n/a	19	13	6	3	4
2972.614	n/a	PROB	1486307	n/a	LTP279	ltpFR2	5	n/a	n/a	n/a	19	7	1	1	5
2973.832	n/a	PROB	1486916	n/a	LTP279	ltpFR2	5	n/a	n/a	n/a	19	11	4	3	4
2975.65	n/a	PROB	1487825	n/a	LTP279	ltpFR2	5	n/a	n/a	n/a	19	4	2	1	1
2977.134	n/a	PROB	1488567	n/a	LTP279	ltpFR2	5	n/a	n/a	n/a	19	21	7	9	5
2978.952	n/a	PROB	1489476	n/a	LTP279	ltpFR2	5	n/a	n/a	n/a	19	20	8	5	7
2980.854	n/a	PROB	1490427	n/a	LTP279	ltpFR2	5	n/a	n/a	n/a	19	21	9	5	7
2982.604	n/a	PROB	1491302	n/a	LTP279	ltpFR2	5	n/a	n/a	n/a	19	18	2	7	9
2984.64	n/a	STOP	1492320	n/a	LTP279	ltpFR2	5	n/a	n/a	n/a	19	n/a	n/a	n/a	n/a
2987.26	n/a	WORD	1493630	wordpools/wasnorm_wordpool_576.txt	LTP279	ltpFR2	5	14	GUARD	667	n/a	n/a	0	0	0
2990.094	n/a	WORD	1495047	wordpools/wasnorm_wordpool_576.txt	LTP279	ltpFR2	5	14	TRIBE	1505	n/a	n/a	0	0	0
2992.664	n/a	WORD	1496332	wordpools/wasnorm_wordpool_576.txt	LTP279	ltpFR2	5	14	PORK	1108	n/a	n/a	0	0	0
2995.132	n/a	WORD	1497566	wordpools/wasnorm_wordpool_576.txt	LTP279	ltpFR2	5	14	WARDROBE	1587	n/a	n/a	0	0	0
2997.602	n/a	WORD	1498801	wordpools/wasnorm_wordpool_576.txt	LTP279	ltpFR2	5	14	MARINE	869	n/a	n/a	0	0	0
3000.202	n/a	WORD	1500101	wordpools/wasnorm_wordpool_576.txt	LTP279	ltpFR2	5	14	CAMEL	223	n/a	n/a	0	0	0
3002.772	n/a	WORD	1501386	wordpools/wasnorm_wordpool_576.txt	LTP279	ltpFR2	5	14	DAUGHTER	442	n/a	n/a	0	0	0
3005.524	n/a	WORD	1502762	wordpools/wasnorm_wordpool_576.txt	LTP279	ltpFR2	5	14	PASSAGE	1019	n/a	n/a	0	0	0
3008.126	n/a	WORD	1504063	wordpools/wasnorm_wordpool_576.txt	LTP279	ltpFR2	5	14	SIDEWALK	1303	n/a	n/a	0	0	0
3010.912	n/a	WORD	1505456	wordpools/wasnorm_wordpool_576.txt	LTP279	ltpFR2	5	14	SUBWAY	1400	n/a	n/a	0	0	0
3013.534	n/a	WORD	1506767	wordpools/wasnorm_wordpool_576.txt	LTP279	ltpFR2	5	14	SANDWICH	1232	n/a	n/a	0	0	0
3016.116	n/a	WORD	1508058	wordpools/wasnorm_wordpool_576.txt	LTP279	ltpFR2	5	14	PERMIT	1051	n/a	n/a	0	0	0
3018.634	n/a	WORD	1509317	wordpools/wasnorm_wordpool_576.txt	LTP279	ltpFR2	5	14	RUG	1215	n/a	n/a	0	0	0
3021.102	n/a	WORD	1510551	wordpools/wasnorm_wordpool_576.txt	LTP279	ltpFR2	5	14	SUITCASE	1403	n/a	n/a	0	0	0
3023.854	n/a	WORD	1511927	wordpools/wasnorm_wordpool_576.txt	LTP279	ltpFR2	5	14	OUTFIT	988	n/a	n/a	0	0	0
3026.59	n/a	WORD	1513295	wordpools/wasnorm_wordpool_576.txt	LTP279	ltpFR2	5	14	STONE	1385	n/a	n/a	0	0	0
3029.376	n/a	WORD	1514688	wordpools/wasnorm_wordpool_576.txt	LTP279	ltpFR2	5	14	SPARROW	1347	n/a	n/a	0	0	0
3032.128	n/a	WORD	1516064	wordpools/wasnorm_wordpool_576.txt	LTP279	ltpFR2	5	14	BEEF	113	n/a	n/a	0	0	0
3034.93	n/a	WORD	1517465	wordpools/wasnorm_wordpool_576.txt	LTP279	ltpFR2	5	14	POLICE	1098	n/a	n/a	0	0	0
3037.598	n/a	WORD	1518799	wordpools/wasnorm_wordpool_576.txt	LTP279	ltpFR2	5	14	PANTHER	1009	n/a	n/a	0	0	0
3040.334	n/a	WORD	1520167	wordpools/wasnorm_wordpool_576.txt	LTP279	ltpFR2	5	14	DUSTPAN	509	n/a	n/a	0	0	0
3042.786	n/a	WORD	1521393	wordpools/wasnorm_wordpool_576.txt	LTP279	ltpFR2	5	14	MOP	916	n/a	n/a	0	0	0
3045.488	n/a	WORD	1522744	wordpools/wasnorm_wordpool_576.txt	LTP279	ltpFR2	5	14	LION	827	n/a	n/a	0	0	0
3047.99	n/a	WORD	1523995	wordpools/wasnorm_wordpool_576.txt	LTP279	ltpFR2	5	14	VAGRANT	1544	n/a	n/a	0	0	0
3049.61	n/a	START	1524805	n/a	LTP279	ltpFR2	5	n/a	n/a	n/a	20	n/a	n/a	n/a	n/a
3050.77	n/a	DISTRACTOR	1525385	n/a	LTP279	ltpFR2	5	14	n/a	n/a	n/a	n/a	0	0	0
3050.792	n/a	PROB	1525396	n/a	LTP279	ltpFR2	5	n/a	n/a	n/a	20	12	3	1	8
3052.71	n/a	PROB	1526355	n/a	LTP279	ltpFR2	5	n/a	n/a	n/a	20	21	8	5	8
3054.362	n/a	PROB	1527181	n/a	LTP279	ltpFR2	5	n/a	n/a	n/a	20	13	4	3	6
3055.962	n/a	PROB	1527981	n/a	LTP279	ltpFR2	5	n/a	n/a	n/a	20	17	4	8	5
3057.736	n/a	PROB	1528868	n/a	LTP279	ltpFR2	5	n/a	n/a	n/a	20	23	7	8	8
3060.316	n/a	PROB	1530158	n/a	LTP279	ltpFR2	5	n/a	n/a	n/a	20	6	1	3	2
3061.9	n/a	PROB	1530950	n/a	LTP279	ltpFR2	5	n/a	n/a	n/a	20	21	5	7	9
3063.386	n/a	PROB	1531693	n/a	LTP279	ltpFR2	5	n/a	n/a	n/a	20	10	2	2	6
3064.986	n/a	PROB	1532493	n/a	LTP279	ltpFR2	5	n/a	n/a	n/a	20	16	6	8	2
3066.638	n/a	PROB	1533319	n/a	LTP279	ltpFR2	5	n/a	n/a	n/a	20	16	8	5	3
3068.44	n/a	PROB	1534220	n/a	LTP279	ltpFR2	5	n/a	n/a	n/a	20	21	9	3	8
3070.292	n/a	PROB	1535146	n/a	LTP279	ltpFR2	5	n/a	n/a	n/a	20	14	3	3	8
3073.61	n/a	STOP	1536805	n/a	LTP279	ltpFR2	5	n/a	n/a	n/a	20	n/a	n/a	n/a	n/a
3075.498	n/a	REC_START	1537749	n/a	LTP279	ltpFR2	5	14	n/a	n/a	n/a	n/a	0	0	0
3077.038	n/a	REC_WORD	1538519	wordpools/wasnorm_wordpool_576.txt	LTP279	ltpFR2	5	14	VAGRANT	1544	n/a	n/a	0	0	0
3078.422	n/a	REC_WORD	1539211	wordpools/wasnorm_wordpool_576.txt	LTP279	ltpFR2	5	14	LION	827	n/a	n/a	0	0	0
3079.25	n/a	REC_WORD	1539625	wordpools/wasnorm_wordpool_576.txt	LTP279	ltpFR2	5	14	MOP	916	n/a	n/a	0	0	0
3080.512	n/a	REC_WORD	1540256	wordpools/wasnorm_wordpool_576.txt	LTP279	ltpFR2	5	14	DUSTPAN	509	n/a	n/a	0	0	0
3082.284	n/a	REC_WORD	1541142	wordpools/wasnorm_wordpool_576.txt	LTP279	ltpFR2	5	14	PANTHER	1009	n/a	n/a	0	0	0
3082.936	n/a	REC_WORD	1541468	wordpools/wasnorm_wordpool_576.txt	LTP279	ltpFR2	5	14	POLICE	1098	n/a	n/a	0	0	0
3084.308	n/a	REC_WORD_VV	1542154	wordpools/wasnorm_wordpool_576.txt	LTP279	ltpFR2	5	14	<>	-1	n/a	n/a	0	0	0
3086.514	n/a	REC_WORD	1543257	wordpools/wasnorm_wordpool_576.txt	LTP279	ltpFR2	5	14	STONE	1385	n/a	n/a	0	0	0
3087.314	n/a	REC_WORD	1543657	wordpools/wasnorm_wordpool_576.txt	LTP279	ltpFR2	5	14	SPARROW	1347	n/a	n/a	0	0	0
3102.484	n/a	REC_WORD	1551242	wordpools/wasnorm_wordpool_576.txt	LTP279	ltpFR2	5	14	BEEF	113	n/a	n/a	0	0	0
3104.926	n/a	REC_WORD_VV	1552463	wordpools/wasnorm_wordpool_576.txt	LTP279	ltpFR2	5	14	<>	-1	n/a	n/a	0	0	0
3166.15	n/a	WORD	1583075	wordpools/wasnorm_wordpool_576.txt	LTP279	ltpFR2	5	15	SURVEY	1414	n/a	n/a	0	0	0
3168.818	n/a	WORD	1584409	wordpools/wasnorm_wordpool_576.txt	LTP279	ltpFR2	5	15	COOKBOOK	373	n/a	n/a	0	0	0
3171.572	n/a	WORD	1585786	wordpools/wasnorm_wordpool_576.txt	LTP279	ltpFR2	5	15	NOTEBOOK	959	n/a	n/a	0	0	0
3174.206	n/a	WORD	1587103	wordpools/wasnorm_wordpool_576.txt	LTP279	ltpFR2	5	15	BRANCH	168	n/a	n/a	0	0	0
3176.96	n/a	WORD	1588480	wordpools/wasnorm_wordpool_576.txt	LTP279	ltpFR2	5	15	TWIG	1527	n/a	n/a	0	0	0
3179.582	n/a	WORD	1589791	wordpools/wasnorm_wordpool_576.txt	LTP279	ltpFR2	5	15	GLASS	639	n/a	n/a	0	0	0
3182.414	n/a	WORD	1591207	wordpools/wasnorm_wordpool_576.txt	LTP279	ltpFR2	5	15	GIRL	637	n/a	n/a	0	0	0
3184.898	n/a	WORD	1592449	wordpools/wasnorm_wordpool_576.txt	LTP279	ltpFR2	5	15	TREAT	1501	n/a	n/a	0	0	0
3187.618	n/a	WORD	1593809	wordpools/wasnorm_wordpool_576.txt	LTP279	ltpFR2	5	15	SADDLE	1221	n/a	n/a	0	0	0
3190.104	n/a	WORD	1595052	wordpools/wasnorm_wordpool_576.txt	LTP279	ltpFR2	5	15	BUGGY	188	n/a	n/a	0	0	0
3192.838	n/a	WORD	1596419	wordpools/wasnorm_wordpool_576.txt	LTP279	ltpFR2	5	15	AIRPORT	13	n/a	n/a	0	0	0
3195.408	n/a	WORD	1597704	wordpools/wasnorm_wordpool_576.txt	LTP279	ltpFR2	5	15	PATROL	1027	n/a	n/a	0	0	0
3198.226	n/a	WORD	1599113	wordpools/wasnorm_wordpool_576.txt	LTP279	ltpFR2	5	15	CURTAIN	427	n/a	n/a	0	0	0
3200.712	n/a	WORD	1600356	wordpools/wasnorm_wordpool_576.txt	LTP279	ltpFR2	5	15	BACON	67	n/a	n/a	0	0	0
3203.464	n/a	WORD	1601732	wordpools/wasnorm_wordpool_576.txt	LTP279	ltpFR2	5	15	SUNRISE	1407	n/a	n/a	0	0	0
3206.284	n/a	WORD	1603142	wordpools/wasnorm_wordpool_576.txt	LTP279	ltpFR2	5	15	CONTRACT	368	n/a	n/a	0	0	0
3209.068	n/a	WORD	1604534	wordpools/wasnorm_wordpool_576.txt	LTP279	ltpFR2	5	15	FLAG	573	n/a	n/a	0	0	0
3211.886	n/a	WORD	1605943	wordpools/wasnorm_wordpool_576.txt	LTP279	ltpFR2	5	15	JAPAN	749	n/a	n/a	0	0	0
3214.672	n/a	WORD	1607336	wordpools/wasnorm_wordpool_576.txt	LTP279	ltpFR2	5	15	SIBLING	1301	n/a	n/a	0	0	0
3217.424	n/a	WORD	1608712	wordpools/wasnorm_wordpool_576.txt	LTP279	ltpFR2	5	15	OUTLAW	989	n/a	n/a	0	0	0
3219.892	n/a	WORD	1609946	wordpools/wasnorm_wordpool_576.txt	LTP279	ltpFR2	5	15	FLEET	578	n/a	n/a	0	0	0
3222.362	n/a	WORD	1611181	wordpools/wasnorm_wordpool_576.txt	LTP279	ltpFR2	5	15	SCARECROW	1245	n/a	n/a	0	0	0
3225.182	n/a	WORD	1612591	wordpools/wasnorm_wordpool_576.txt	LTP279	ltpFR2	5	15	GRAVE	658	n/a	n/a	0	0	0
3227.85	n/a	WORD	1613925	wordpools/wasnorm_wordpool_576.txt	LTP279	ltpFR2	5	15	KITCHEN	778	n/a	n/a	0	0	0
3229.468	n/a	START	1614734	n/a	LTP279	ltpFR2	5	n/a	n/a	n/a	21	n/a	n/a	n/a	n/a
3230.534	n/a	DISTRACTOR	1615267	n/a	LTP279	ltpFR2	5	15	n/a	n/a	n/a	n/a	0	0	0
3230.552	n/a	PROB	1615276	n/a	LTP279	ltpFR2	5	n/a	n/a	n/a	21	12	9	2	1
3232.904	n/a	PROB	1616452	n/a	LTP279	ltpFR2	5	n/a	n/a	n/a	21	17	7	5	5
3234.422	n/a	PROB	1617211	n/a	LTP279	ltpFR2	5	n/a	n/a	n/a	21	10	3	5	2
3236.506	n/a	PROB	1618253	n/a	LTP279	ltpFR2	5	n/a	n/a	n/a	21	19	8	2	9
3238.392	n/a	PROB	1619196	n/a	LTP279	ltpFR2	5	n/a	n/a	n/a	21	15	1	6	8
3239.992	n/a	PROB	1619996	n/a	LTP279	ltpFR2	5	n/a	n/a	n/a	21	7	1	4	2
3241.598	n/a	PROB	1620799	n/a	LTP279	ltpFR2	5	n/a	n/a	n/a	21	16	2	8	4
3243.628	n/a	PROB	1621814	n/a	LTP279	ltpFR2	5	n/a	n/a	n/a	21	22	9	8	5
3246.214	n/a	PROB	1623107	n/a	LTP279	ltpFR2	5	n/a	n/a	n/a	21	14	5	7	2
3247.982	n/a	PROB	1623991	n/a	LTP279	ltpFR2	5	n/a	n/a	n/a	21	11	6	2	3
3249.9	n/a	PROB	1624950	n/a	LTP279	ltpFR2	5	n/a	n/a	n/a	21	18	3	8	7
3252.352	n/a	STOP	1626176	n/a	LTP279	ltpFR2	5	n/a	n/a	n/a	21	n/a	n/a	n/a	n/a
3255.29	n/a	REC_START	1627645	n/a	LTP279	ltpFR2	5	15	n/a	n/a	n/a	n/a	0	0	0
3256.19	n/a	REC_WORD	1628095	wordpools/wasnorm_wordpool_576.txt	LTP279	ltpFR2	5	15	KITCHEN	778	n/a	n/a	0	0	0
3257.0	n/a	REC_WORD	1628500	wordpools/wasnorm_wordpool_576.txt	LTP279	ltpFR2	5	15	GRAVE	658	n/a	n/a	0	0	0
3262.448	n/a	REC_WORD	1631224	wordpools/wasnorm_wordpool_576.txt	LTP279	ltpFR2	5	15	JOURNAL	760	n/a	n/a	0	0	0
3263.586	n/a	REC_WORD_VV	1631793	wordpools/wasnorm_wordpool_576.txt	LTP279	ltpFR2	5	15	<>	-1	n/a	n/a	0	0	0
3264.664	n/a	REC_WORD	1632332	wordpools/wasnorm_wordpool_576.txt	LTP279	ltpFR2	5	15	NOTEBOOK	959	n/a	n/a	0	0	0
3265.972	n/a	REC_WORD	1632986	wordpools/wasnorm_wordpool_576.txt	LTP279	ltpFR2	5	15	COOKBOOK	373	n/a	n/a	0	0	0
3267.196	n/a	REC_WORD	1633598	wordpools/wasnorm_wordpool_576.txt	LTP279	ltpFR2	5	15	TWIG	1527	n/a	n/a	0	0	0
3267.87	n/a	REC_WORD	1633935	wordpools/wasnorm_wordpool_576.txt	LTP279	ltpFR2	5	15	GLASS	639	n/a	n/a	0	0	0
3270.41	n/a	REC_WORD	1635205	wordpools/wasnorm_wordpool_576.txt	LTP279	ltpFR2	5	15	BRANCH	168	n/a	n/a	0	0	0
3278.806	n/a	REC_WORD	1639403	wordpools/wasnorm_wordpool_576.txt	LTP279	ltpFR2	5	15	SADDLE	1221	n/a	n/a	0	0	0
3281.896	n/a	REC_WORD	1640948	wordpools/wasnorm_wordpool_576.txt	LTP279	ltpFR2	5	15	BUGGY	188	n/a	n/a	0	0	0
3285.45	n/a	REC_WORD	1642725	wordpools/wasnorm_wordpool_576.txt	LTP279	ltpFR2	5	15	AIRPORT	13	n/a	n/a	0	0	0
3286.378	n/a	REC_WORD	1643189	wordpools/wasnorm_wordpool_576.txt	LTP279	ltpFR2	5	15	PATROL	1027	n/a	n/a	0	0	0
3288.936	n/a	REC_WORD	1644468	wordpools/wasnorm_wordpool_576.txt	LTP279	ltpFR2	5	15	CURTAIN	427	n/a	n/a	0	0	0
3321.596	n/a	REC_WORD	1660798	wordpools/wasnorm_wordpool_576.txt	LTP279	ltpFR2	5	15	BACON	67	n/a	n/a	0	0	0
3345.91	n/a	DISTRACTOR	1672955	n/a	LTP279	ltpFR2	5	16	n/a	n/a	n/a	n/a	0	0	0
3345.91	n/a	START	1672955	n/a	LTP279	ltpFR2	5	n/a	n/a	n/a	22	n/a	n/a	n/a	n/a
3345.942	n/a	PROB	1672971	n/a	LTP279	ltpFR2	5	n/a	n/a	n/a	22	16	4	3	9
3348.062	n/a	PROB	1674031	n/a	LTP279	ltpFR2	5	n/a	n/a	n/a	22	16	3	5	8
3349.512	n/a	PROB	1674756	n/a	LTP279	ltpFR2	5	n/a	n/a	n/a	22	21	3	9	9
3350.846	n/a	PROB	1675423	n/a	LTP279	ltpFR2	5	n/a	n/a	n/a	22	18	5	8	5
3352.598	n/a	PROB	1676299	n/a	LTP279	ltpFR2	5	n/a	n/a	n/a	22	7	1	4	2
3354.066	n/a	PROB	1677033	n/a	LTP279	ltpFR2	5	n/a	n/a	n/a	22	12	2	2	8
3355.318	n/a	PROB	1677659	n/a	LTP279	ltpFR2	5	n/a	n/a	n/a	22	12	1	8	4
3356.818	n/a	PROB	1678409	n/a	LTP279	ltpFR2	5	n/a	n/a	n/a	22	19	7	3	9
3358.936	n/a	PROB	1679468	n/a	LTP279	ltpFR2	5	n/a	n/a	n/a	22	20	7	9	4
3360.438	n/a	PROB	1680219	n/a	LTP279	ltpFR2	5	n/a	n/a	n/a	22	15	4	4	7
3361.806	n/a	PROB	1680903	n/a	LTP279	ltpFR2	5	n/a	n/a	n/a	22	12	7	1	4
3363.54	n/a	PROB	1681770	n/a	LTP279	ltpFR2	5	n/a	n/a	n/a	22	24	9	9	6
3365.282	n/a	PROB	1682641	n/a	LTP279	ltpFR2	5	n/a	n/a	n/a	22	10	3	3	4
3366.926	n/a	PROB	1683463	n/a	LTP279	ltpFR2	5	n/a	n/a	n/a	22	16	7	6	3
3369.57	n/a	STOP	1684785	n/a	LTP279	ltpFR2	5	n/a	n/a	n/a	22	n/a	n/a	n/a	n/a
3370.912	n/a	WORD	1685456	wordpools/wasnorm_wordpool_576.txt	LTP279	ltpFR2	5	16	ELBOW	520	n/a	n/a	0	0	0
3373.364	n/a	WORD	1686682	wordpools/wasnorm_wordpool_576.txt	LTP279	ltpFR2	5	16	GRAVEL	659	n/a	n/a	0	0	0
3375.9	n/a	WORD	1687950	wordpools/wasnorm_wordpool_576.txt	LTP279	ltpFR2	5	16	DUST	508	n/a	n/a	0	0	0
3378.584	n/a	WORD	1689292	wordpools/wasnorm_wordpool_576.txt	LTP279	ltpFR2	5	16	WIDOW	1608	n/a	n/a	0	0	0
3381.336	n/a	WORD	1690668	wordpools/wasnorm_wordpool_576.txt	LTP279	ltpFR2	5	16	APPLE	33	n/a	n/a	0	0	0
3383.872	n/a	WORD	1691936	wordpools/wasnorm_wordpool_576.txt	LTP279	ltpFR2	5	16	WRIST	1626	n/a	n/a	0	0	0
3386.642	n/a	WORD	1693321	wordpools/wasnorm_wordpool_576.txt	LTP279	ltpFR2	5	16	TOMBSTONE	1478	n/a	n/a	0	0	0
3389.194	n/a	WORD	1694597	wordpools/wasnorm_wordpool_576.txt	LTP279	ltpFR2	5	16	MILDEW	893	n/a	n/a	0	0	0
3391.996	n/a	WORD	1695998	wordpools/wasnorm_wordpool_576.txt	LTP279	ltpFR2	5	16	WAITRESS	1581	n/a	n/a	0	0	0
3394.732	n/a	WORD	1697366	wordpools/wasnorm_wordpool_576.txt	LTP279	ltpFR2	5	16	DRESSER	496	n/a	n/a	0	0	0
3397.518	n/a	WORD	1698759	wordpools/wasnorm_wordpool_576.txt	LTP279	ltpFR2	5	16	FLASK	576	n/a	n/a	0	0	0
3399.968	n/a	WORD	1699984	wordpools/wasnorm_wordpool_576.txt	LTP279	ltpFR2	5	16	CRAB	397	n/a	n/a	0	0	0
3402.538	n/a	WORD	1701269	wordpools/wasnorm_wordpool_576.txt	LTP279	ltpFR2	5	16	HAMPER	682	n/a	n/a	0	0	0
3405.022	n/a	WORD	1702511	wordpools/wasnorm_wordpool_576.txt	LTP279	ltpFR2	5	16	ANKLE	24	n/a	n/a	0	0	0
3407.526	n/a	WORD	1703763	wordpools/wasnorm_wordpool_576.txt	LTP279	ltpFR2	5	16	FOOT	590	n/a	n/a	0	0	0
3410.028	n/a	WORD	1705014	wordpools/wasnorm_wordpool_576.txt	LTP279	ltpFR2	5	16	COSTUME	383	n/a	n/a	0	0	0
3412.812	n/a	WORD	1706406	wordpools/wasnorm_wordpool_576.txt	LTP279	ltpFR2	5	16	AWARD	63	n/a	n/a	0	0	0
3415.436	n/a	WORD	1707718	wordpools/wasnorm_wordpool_576.txt	LTP279	ltpFR2	5	16	BUG	187	n/a	n/a	0	0	0
3417.984	n/a	WORD	1708992	wordpools/wasnorm_wordpool_576.txt	LTP279	ltpFR2	5	16	WASHER	1592	n/a	n/a	0	0	0
3420.502	n/a	WORD	1710251	wordpools/wasnorm_wordpool_576.txt	LTP279	ltpFR2	5	16	TOASTER	1472	n/a	n/a	0	0	0
3423.038	n/a	WORD	1711519	wordpools/wasnorm_wordpool_576.txt	LTP279	ltpFR2	5	16	BANQUET	86	n/a	n/a	0	0	0
3425.806	n/a	WORD	1712903	wordpools/wasnorm_wordpool_576.txt	LTP279	ltpFR2	5	16	DANDRUFF	439	n/a	n/a	0	0	0
3428.276	n/a	WORD	1714138	wordpools/wasnorm_wordpool_576.txt	LTP279	ltpFR2	5	16	BLADE	134	n/a	n/a	0	0	0
3431.01	n/a	WORD	1715505	wordpools/wasnorm_wordpool_576.txt	LTP279	ltpFR2	5	16	APRON	35	n/a	n/a	0	0	0
3432.628	n/a	START	1716314	n/a	LTP279	ltpFR2	5	n/a	n/a	n/a	23	n/a	n/a	n/a	n/a
3433.722	n/a	DISTRACTOR	1716861	n/a	LTP279	ltpFR2	5	16	n/a	n/a	n/a	n/a	0	0	0
3433.746	n/a	PROB	1716873	n/a	LTP279	ltpFR2	5	n/a	n/a	n/a	23	22	8	6	8
3436.53	n/a	PROB	1718265	n/a	LTP279	ltpFR2	5	n/a	n/a	n/a	23	17	6	9	2
3438.382	n/a	PROB	1719191	n/a	LTP279	ltpFR2	5	n/a	n/a	n/a	23	8	1	3	4
3439.9	n/a	PROB	1719950	n/a	LTP279	ltpFR2	5	n/a	n/a	n/a	23	17	8	7	2
3442.27	n/a	PROB	1721135	n/a	LTP279	ltpFR2	5	n/a	n/a	n/a	23	19	6	6	7
3444.92	n/a	PROB	1722460	n/a	LTP279	ltpFR2	5	n/a	n/a	n/a	23	15	6	2	7
3446.956	n/a	PROB	1723478	n/a	LTP279	ltpFR2	5	n/a	n/a	n/a	23	19	5	7	7
3449.058	n/a	PROB	1724529	n/a	LTP279	ltpFR2	5	n/a	n/a	n/a	23	8	5	2	1
3450.742	n/a	PROB	1725371	n/a	LTP279	ltpFR2	5	n/a	n/a	n/a	23	13	3	6	4
3451.976	n/a	PROB	1725988	n/a	LTP279	ltpFR2	5	n/a	n/a	n/a	23	15	1	6	8
3456.628	n/a	STOP	1728314	n/a	LTP279	ltpFR2	5	n/a	n/a	n/a	23	n/a	n/a	n/a	n/a
3458.584	n/a	REC_START	1729292	n/a	LTP279	ltpFR2	5	16	n/a	n/a	n/a	n/a	0	0	0
3459.538	n/a	REC_WORD	1729769	wordpools/wasnorm_wordpool_576.txt	LTP279	ltpFR2	5	16	DANDRUFF	439	n/a	n/a	0	0	0
3460.34	n/a	REC_WORD	1730170	wordpools/wasnorm_wordpool_576.txt	LTP279	ltpFR2	5	16	APRON	35	n/a	n/a	0	0	0
3461.032	n/a	REC_WORD	1730516	wordpools/wasnorm_wordpool_576.txt	LTP279	ltpFR2	5	16	BLADE	134	n/a	n/a	0	0	0
3461.862	n/a	REC_WORD	1730931	wordpools/wasnorm_wordpool_576.txt	LTP279	ltpFR2	5	16	ELBOW	520	n/a	n/a	0	0	0
3462.56	n/a	REC_WORD	1731280	wordpools/wasnorm_wordpool_576.txt	LTP279	ltpFR2	5	16	GRAVEL	659	n/a	n/a	0	0	0
3463.534	n/a	REC_WORD	1731767	wordpools/wasnorm_wordpool_576.txt	LTP279	ltpFR2	5	16	DUST	508	n/a	n/a	0	0	0
3464.788	n/a	REC_WORD	1732394	wordpools/wasnorm_wordpool_576.txt	LTP279	ltpFR2	5	16	WIDOW	1608	n/a	n/a	0	0	0
3465.548	n/a	REC_WORD	1732774	wordpools/wasnorm_wordpool_576.txt	LTP279	ltpFR2	5	16	WRIST	1626	n/a	n/a	0	0	0
3466.324	n/a	REC_WORD	1733162	wordpools/wasnorm_wordpool_576.txt	LTP279	ltpFR2	5	16	APPLE	33	n/a	n/a	0	0	0
3467.014	n/a	REC_WORD	1733507	wordpools/wasnorm_wordpool_576.txt	LTP279	ltpFR2	5	16	TOMBSTONE	1478	n/a	n/a	0	0	0
3467.96	n/a	REC_WORD	1733980	wordpools/wasnorm_wordpool_576.txt	LTP279	ltpFR2	5	16	MILDEW	893	n/a	n/a	0	0	0
3468.914	n/a	REC_WORD	1734457	wordpools/wasnorm_wordpool_576.txt	LTP279	ltpFR2	5	16	WAITRESS	1581	n/a	n/a	0	0	0
3469.804	n/a	REC_WORD	1734902	wordpools/wasnorm_wordpool_576.txt	LTP279	ltpFR2	5	16	DRESSER	496	n/a	n/a	0	0	0
3478.934	n/a	REC_WORD	1739467	wordpools/wasnorm_wordpool_576.txt	LTP279	ltpFR2	5	16	ANKLE	24	n/a	n/a	0	0	0
3479.402	n/a	REC_WORD	1739701	wordpools/wasnorm_wordpool_576.txt	LTP279	ltpFR2	5	16	FOOT	590	n/a	n/a	0	0	0
3481.2	n/a	REC_WORD_VV	1740600	wordpools/wasnorm_wordpool_576.txt	LTP279	ltpFR2	5	16	<>	-1	n/a	n/a	0	0	0
3481.792	n/a	REC_WORD	1740896	wordpools/wasnorm_wordpool_576.txt	LTP279	ltpFR2	5	16	CRAB	397	n/a	n/a	0	0	0
3482.358	n/a	REC_WORD	1741179	wordpools/wasnorm_wordpool_576.txt	LTP279	ltpFR2	5	16	HAMPER	682	n/a	n/a	0	0	0
3513.59	n/a	REC_WORD	1756795	wordpools/wasnorm_wordpool_576.txt	LTP279	ltpFR2	5	16	BANQUET	86	n/a	n/a	0	0	0
3535.126	n/a	REST_REWET	1767563	n/a	LTP279	ltpFR2	5	16	n/a	n/a	n/a	n/a	0	0	0
3852.11	n/a	DISTRACTOR	1926055	n/a	LTP279	ltpFR2	5	17	n/a	n/a	n/a	n/a	0	0	0
3852.11	n/a	START	1926055	n/a	LTP279	ltpFR2	5	n/a	n/a	n/a	24	n/a	n/a	n/a	n/a
3852.144	n/a	PROB	1926072	n/a	LTP279	ltpFR2	5	n/a	n/a	n/a	24	21	6	7	8
3854.544	n/a	PROB	1927272	n/a	LTP279	ltpFR2	5	n/a	n/a	n/a	24	21	9	9	3
3855.896	n/a	PROB	1927948	n/a	LTP279	ltpFR2	5	n/a	n/a	n/a	24	21	9	4	9
3857.598	n/a	PROB	1928799	n/a	LTP279	ltpFR2	5	n/a	n/a	n/a	24	17	9	5	3
3859.566	n/a	PROB	1929783	n/a	LTP279	ltpFR2	5	n/a	n/a	n/a	24	10	5	3	2
3861.25	n/a	PROB	1930625	n/a	LTP279	ltpFR2	5	n/a	n/a	n/a	24	22	8	8	6
3862.802	n/a	PROB	1931401	n/a	LTP279	ltpFR2	5	n/a	n/a	n/a	24	15	5	1	9
3864.602	n/a	PROB	1932301	n/a	LTP279	ltpFR2	5	n/a	n/a	n/a	24	16	3	5	8
3866.288	n/a	PROB	1933144	n/a	LTP279	ltpFR2	5	n/a	n/a	n/a	24	23	8	6	9
3868.172	n/a	PROB	1934086	n/a	LTP279	ltpFR2	5	n/a	n/a	n/a	24	7	4	2	1
3869.606	n/a	PROB	1934803	n/a	LTP279	ltpFR2	5	n/a	n/a	n/a	24	12	7	4	1
3871.09	n/a	PROB	1935545	n/a	LTP279	ltpFR2	5	n/a	n/a	n/a	24	21	9	3	9
3872.458	n/a	PROB	1936229	n/a	LTP279	ltpFR2	5	n/a	n/a	n/a	24	7	4	1	2
3873.86	n/a	PROB	1936930	n/a	LTP279	ltpFR2	5	n/a	n/a	n/a	24	12	1	3	8
3875.306	n/a	STOP	1937653	n/a	LTP279	ltpFR2	5	n/a	n/a	n/a	24	n/a	n/a	n/a	n/a
3877.03	n/a	WORD	1938515	wordpools/wasnorm_wordpool_576.txt	LTP279	ltpFR2	5	17	TOURIST	1488	n/a	n/a	0	0	0
3879.464	n/a	WORD	1939732	wordpools/wasnorm_wordpool_576.txt	LTP279	ltpFR2	5	17	TABLE	1426	n/a	n/a	0	0	0
3882.068	n/a	WORD	1941034	wordpools/wasnorm_wordpool_576.txt	LTP279	ltpFR2	5	17	POET	1095	n/a	n/a	0	0	0
3884.586	n/a	WORD	1942293	wordpools/wasnorm_wordpool_576.txt	LTP279	ltpFR2	5	17	MARKER	870	n/a	n/a	0	0	0
3887.138	n/a	WORD	1943569	wordpools/wasnorm_wordpool_576.txt	LTP279	ltpFR2	5	17	SCRIBBLE	1256	n/a	n/a	0	0	0
3889.79	n/a	WORD	1944895	wordpools/wasnorm_wordpool_576.txt	LTP279	ltpFR2	5	17	UNCLE	1536	n/a	n/a	0	0	0
3892.526	n/a	WORD	1946263	wordpools/wasnorm_wordpool_576.txt	LTP279	ltpFR2	5	17	CHAUFFEUR	283	n/a	n/a	0	0	0
3895.162	n/a	WORD	1947581	wordpools/wasnorm_wordpool_576.txt	LTP279	ltpFR2	5	17	PARROT	1015	n/a	n/a	0	0	0
3897.962	n/a	WORD	1948981	wordpools/wasnorm_wordpool_576.txt	LTP279	ltpFR2	5	17	BARREL	91	n/a	n/a	0	0	0
3900.648	n/a	WORD	1950324	wordpools/wasnorm_wordpool_576.txt	LTP279	ltpFR2	5	17	HOUND	724	n/a	n/a	0	0	0
3903.218	n/a	WORD	1951609	wordpools/wasnorm_wordpool_576.txt	LTP279	ltpFR2	5	17	TRUCK	1512	n/a	n/a	0	0	0
3905.92	n/a	WORD	1952960	wordpools/wasnorm_wordpool_576.txt	LTP279	ltpFR2	5	17	QUARTER	1148	n/a	n/a	0	0	0
3908.454	n/a	WORD	1954227	wordpools/wasnorm_wordpool_576.txt	LTP279	ltpFR2	5	17	CAFE	216	n/a	n/a	0	0	0
3911.14	n/a	WORD	1955570	wordpools/wasnorm_wordpool_576.txt	LTP279	ltpFR2	5	17	PLATE	1086	n/a	n/a	0	0	0
3913.576	n/a	WORD	1956788	wordpools/wasnorm_wordpool_576.txt	LTP279	ltpFR2	5	17	SPOON	1357	n/a	n/a	0	0	0
3916.094	n/a	WORD	1958047	wordpools/wasnorm_wordpool_576.txt	LTP279	ltpFR2	5	17	JUGGLER	763	n/a	n/a	0	0	0
3918.846	n/a	WORD	1959423	wordpools/wasnorm_wordpool_576.txt	LTP279	ltpFR2	5	17	RECORD	1176	n/a	n/a	0	0	0
3921.432	n/a	WORD	1960716	wordpools/wasnorm_wordpool_576.txt	LTP279	ltpFR2	5	17	CONCERT	360	n/a	n/a	0	0	0
3924.268	n/a	WORD	1962134	wordpools/wasnorm_wordpool_576.txt	LTP279	ltpFR2	5	17	HEADBAND	696	n/a	n/a	0	0	0
3926.986	n/a	WORD	1963493	wordpools/wasnorm_wordpool_576.txt	LTP279	ltpFR2	5	17	TEACHER	1440	n/a	n/a	0	0	0
3929.572	n/a	WORD	1964786	wordpools/wasnorm_wordpool_576.txt	LTP279	ltpFR2	5	17	PADDING	999	n/a	n/a	0	0	0
3932.156	n/a	WORD	1966078	wordpools/wasnorm_wordpool_576.txt	LTP279	ltpFR2	5	17	FINGER	567	n/a	n/a	0	0	0
3934.926	n/a	WORD	1967463	wordpools/wasnorm_wordpool_576.txt	LTP279	ltpFR2	5	17	BARLEY	88	n/a	n/a	0	0	0
3937.478	n/a	WORD	1968739	wordpools/wasnorm_wordpool_576.txt	LTP279	ltpFR2	5	17	COMET	353	n/a	n/a	0	0	0
3939.096	n/a	START	1969548	n/a	LTP279	ltpFR2	5	n/a	n/a	n/a	25	n/a	n/a	n/a	n/a
3940.006	n/a	DISTRACTOR	1970003	n/a	LTP279	ltpFR2	5	17	n/a	n/a	n/a	n/a	0	0	0
3940.03	n/a	PROB	1970015	n/a	LTP279	ltpFR2	5	n/a	n/a	n/a	25	20	9	7	4
3942.368	n/a	PROB	1971184	n/a	LTP279	ltpFR2	5	n/a	n/a	n/a	25	12	1	7	4
3943.832	n/a	PROB	1971916	n/a	LTP279	ltpFR2	5	n/a	n/a	n/a	25	3	1	1	1
3944.966	n/a	PROB	1972483	n/a	LTP279	ltpFR2	5	n/a	n/a	n/a	25	15	1	5	9
3947.002	n/a	PROB	1973501	n/a	LTP279	ltpFR2	5	n/a	n/a	n/a	25	17	4	9	4
3949.02	n/a	PROB	1974510	n/a	LTP279	ltpFR2	5	n/a	n/a	n/a	25	19	4	7	8
3951.622	n/a	PROB	1975811	n/a	LTP279	ltpFR2	5	n/a	n/a	n/a	25	14	1	7	6
3953.39	n/a	PROB	1976695	n/a	LTP279	ltpFR2	5	n/a	n/a	n/a	25	14	5	7	2
3955.408	n/a	PROB	1977704	n/a	LTP279	ltpFR2	5	n/a	n/a	n/a	25	20	6	7	7
3957.276	n/a	PROB	1978638	n/a	LTP279	ltpFR2	5	n/a	n/a	n/a	25	14	9	3	2
3959.06	n/a	PROB	1979530	n/a	LTP279	ltpFR2	5	n/a	n/a	n/a	25	12	7	4	1
3961.296	n/a	PROB	1980648	n/a	LTP279	ltpFR2	5	n/a	n/a	n/a	25	11	1	8	2
3962.812	n/a	STOP	1981406	n/a	LTP279	ltpFR2	5	n/a	n/a	n/a	25	n/a	n/a	n/a	n/a
3964.998	n/a	REC_START	1982499	n/a	LTP279	ltpFR2	5	17	n/a	n/a	n/a	n/a	0	0	0
3965.562	n/a	REC_WORD	1982781	wordpools/wasnorm_wordpool_576.txt	LTP279	ltpFR2	5	17	FINGER	567	n/a	n/a	0	0	0
3966.454	n/a	REC_WORD	1983227	wordpools/wasnorm_wordpool_576.txt	LTP279	ltpFR2	5	17	COMET	353	n/a	n/a	0	0	0
3967.52	n/a	REC_WORD	1983760	wordpools/wasnorm_wordpool_576.txt	LTP279	ltpFR2	5	17	BARLEY	88	n/a	n/a	0	0	0
3973.404	n/a	REC_WORD	1986702	wordpools/wasnorm_wordpool_576.txt	LTP279	ltpFR2	5	17	TABLE	1426	n/a	n/a	0	0	0
3973.964	n/a	REC_WORD	1986982	wordpools/wasnorm_wordpool_576.txt	LTP279	ltpFR2	5	17	TOURIST	1488	n/a	n/a	0	0	0
3974.668	n/a	REC_WORD	1987334	wordpools/wasnorm_wordpool_576.txt	LTP279	ltpFR2	5	17	POET	1095	n/a	n/a	0	0	0
3977.3	n/a	REC_WORD	1988650	wordpools/wasnorm_wordpool_576.txt	LTP279	ltpFR2	5	17	UNCLE	1536	n/a	n/a	0	0	0
3978.256	n/a	REC_WORD	1989128	wordpools/wasnorm_wordpool_576.txt	LTP279	ltpFR2	5	17	CHAUFFEUR	283	n/a	n/a	0	0	0
3981.938	n/a	REC_WORD	1990969	wordpools/wasnorm_wordpool_576.txt	LTP279	ltpFR2	5	17	MARKER	870	n/a	n/a	0	0	0
3982.624	n/a	REC_WORD	1991312	wordpools/wasnorm_wordpool_576.txt	LTP279	ltpFR2	5	17	SCRIBBLE	1256	n/a	n/a	0	0	0
3987.386	n/a	REC_WORD	1993693	wordpools/wasnorm_wordpool_576.txt	LTP279	ltpFR2	5	17	PARROT	1015	n/a	n/a	0	0	0
3990.538	n/a	REC_WORD	1995269	wordpools/wasnorm_wordpool_576.txt	LTP279	ltpFR2	5	17	BARREL	91	n/a	n/a	0	0	0
3991.494	n/a	REC_WORD	1995747	wordpools/wasnorm_wordpool_576.txt	LTP279	ltpFR2	5	17	HOUND	724	n/a	n/a	0	0	0
3996.286	n/a	REC_WORD	1998143	wordpools/wasnorm_wordpool_576.txt	LTP279	ltpFR2	5	17	TRUCK	1512	n/a	n/a	0	0	0
3997.376	n/a	REC_WORD	1998688	wordpools/wasnorm_wordpool_576.txt	LTP279	ltpFR2	5	17	QUARTER	1148	n/a	n/a	0	0	0
3998.63	n/a	REC_WORD	1999315	wordpools/wasnorm_wordpool_576.txt	LTP279	ltpFR2	5	17	PLATE	1086	n/a	n/a	0	0	0
4000.824	n/a	REC_WORD	2000412	wordpools/wasnorm_wordpool_576.txt	LTP279	ltpFR2	5	17	SPOON	1357	n/a	n/a	0	0	0
4001.614	n/a	REC_WORD	2000807	wordpools/wasnorm_wordpool_576.txt	LTP279	ltpFR2	5	17	JUGGLER	763	n/a	n/a	0	0	0
4002.22	n/a	REC_WORD	2001110	wordpools/wasnorm_wordpool_576.txt	LTP279	ltpFR2	5	17	RECORD	1176	n/a	n/a	0	0	0
4002.852	n/a	REC_WORD	2001426	wordpools/wasnorm_wordpool_576.txt	LTP279	ltpFR2	5	17	CONCERT	360	n/a	n/a	0	0	0
4055.654	n/a	WORD	2027827	wordpools/wasnorm_wordpool_576.txt	LTP279	ltpFR2	5	18	OFFICE	972	n/a	n/a	0	0	0
4058.24	n/a	WORD	2029120	wordpools/wasnorm_wordpool_576.txt	LTP279	ltpFR2	5	18	CABBAGE	210	n/a	n/a	0	0	0
4060.826	n/a	WORD	2030413	wordpools/wasnorm_wordpool_576.txt	LTP279	ltpFR2	5	18	DINER	467	n/a	n/a	0	0	0
4063.628	n/a	WORD	2031814	wordpools/wasnorm_wordpool_576.txt	LTP279	ltpFR2	5	18	IDOL	733	n/a	n/a	0	0	0
4066.282	n/a	WORD	2033141	wordpools/wasnorm_wordpool_576.txt	LTP279	ltpFR2	5	18	BEAVER	109	n/a	n/a	0	0	0
4068.902	n/a	WORD	2034451	wordpools/wasnorm_wordpool_576.txt	LTP279	ltpFR2	5	18	SAUSAGE	1238	n/a	n/a	0	0	0
4071.634	n/a	WORD	2035817	wordpools/wasnorm_wordpool_576.txt	LTP279	ltpFR2	5	18	DIVER	476	n/a	n/a	0	0	0
4074.468	n/a	WORD	2037234	wordpools/wasnorm_wordpool_576.txt	LTP279	ltpFR2	5	18	STATUE	1374	n/a	n/a	0	0	0
4077.038	n/a	WORD	2038519	wordpools/wasnorm_wordpool_576.txt	LTP279	ltpFR2	5	18	FRIEND	606	n/a	n/a	0	0	0
4079.522	n/a	WORD	2039761	wordpools/wasnorm_wordpool_576.txt	LTP279	ltpFR2	5	18	ICING	732	n/a	n/a	0	0	0
4082.342	n/a	WORD	2041171	wordpools/wasnorm_wordpool_576.txt	LTP279	ltpFR2	5	18	WASP	1593	n/a	n/a	0	0	0
4085.126	n/a	WORD	2042563	wordpools/wasnorm_wordpool_576.txt	LTP279	ltpFR2	5	18	BODY	145	n/a	n/a	0	0	0
4087.896	n/a	WORD	2043948	wordpools/wasnorm_wordpool_576.txt	LTP279	ltpFR2	5	18	RUST	1219	n/a	n/a	0	0	0
4090.498	n/a	WORD	2045249	wordpools/wasnorm_wordpool_576.txt	LTP279	ltpFR2	5	18	MOTOR	922	n/a	n/a	0	0	0
4092.966	n/a	WORD	2046483	wordpools/wasnorm_wordpool_576.txt	LTP279	ltpFR2	5	18	HONEY	713	n/a	n/a	0	0	0
4095.518	n/a	WORD	2047759	wordpools/wasnorm_wordpool_576.txt	LTP279	ltpFR2	5	18	MOTEL	919	n/a	n/a	0	0	0
4098.204	n/a	WORD	2049102	wordpools/wasnorm_wordpool_576.txt	LTP279	ltpFR2	5	18	COIN	343	n/a	n/a	0	0	0
4101.04	n/a	WORD	2050520	wordpools/wasnorm_wordpool_576.txt	LTP279	ltpFR2	5	18	DENIM	446	n/a	n/a	0	0	0
4103.592	n/a	WORD	2051796	wordpools/wasnorm_wordpool_576.txt	LTP279	ltpFR2	5	18	SHORTS	1293	n/a	n/a	0	0	0
4106.428	n/a	WORD	2053214	wordpools/wasnorm_wordpool_576.txt	LTP279	ltpFR2	5	18	GLOBE	641	n/a	n/a	0	0	0
4108.964	n/a	WORD	2054482	wordpools/wasnorm_wordpool_576.txt	LTP279	ltpFR2	5	18	SUNSET	1408	n/a	n/a	0	0	0
4111.514	n/a	WORD	2055757	wordpools/wasnorm_wordpool_576.txt	LTP279	ltpFR2	5	18	PILOT	1070	n/a	n/a	0	0	0
4114.034	n/a	WORD	2057017	wordpools/wasnorm_wordpool_576.txt	LTP279	ltpFR2	5	18	CITRUS	313	n/a	n/a	0	0	0
4116.602	n/a	WORD	2058301	wordpools/wasnorm_wordpool_576.txt	LTP279	ltpFR2	5	18	SWITCH	1422	n/a	n/a	0	0	0
4118.22	n/a	START	2059110	n/a	LTP279	ltpFR2	5	n/a	n/a	n/a	26	n/a	n/a	n/a	n/a
4119.238	n/a	DISTRACTOR	2059619	n/a	LTP279	ltpFR2	5	18	n/a	n/a	n/a	n/a	0	0	0
4119.256	n/a	PROB	2059628	n/a	LTP279	ltpFR2	5	n/a	n/a	n/a	26	16	1	6	9
4121.14	n/a	PROB	2060570	n/a	LTP279	ltpFR2	5	n/a	n/a	n/a	26	12	9	1	2
4122.408	n/a	PROB	2061204	n/a	LTP279	ltpFR2	5	n/a	n/a	n/a	26	9	3	3	3
