mstime	trial_type	stim_file	subject	experiment	session	trial	item_name	item_num	list	answer	test_x	test_y	test_z
0	SESS_START	n/a	LTP285	ltpFR2	1	n/a	n/a	n/a	n/a	n/a	0	0	0
106842	START	n/a	LTP285	ltpFR2	1	n/a	n/a	n/a	-1	n/a	n/a	n/a	n/a
106875	PROB	n/a	LTP285	ltpFR2	1	n/a	n/a	n/a	-1	13	7	2	4
109638	PROB	n/a	LTP285	ltpFR2	1	n/a	n/a	n/a	-1	18	6	9	3
112299	PROB	n/a	LTP285	ltpFR2	1	n/a	n/a	n/a	-1	15	5	8	3
115895	PROB	n/a	LTP285	ltpFR2	1	n/a	n/a	n/a	-1	15	9	5	1
118842	STOP	n/a	LTP285	ltpFR2	1	n/a	n/a	n/a	-1	n/a	n/a	n/a	n/a
189467	WORD	wordpools/wasnorm_wordpool_576.txt	LTP285	ltpFR2	1	1	PRIMATE	1123	n/a	n/a	0	0	0
191981	WORD	wordpools/wasnorm_wordpool_576.txt	LTP285	ltpFR2	1	1	PACKAGE	997	n/a	n/a	0	0	0
194727	WORD	wordpools/wasnorm_wordpool_576.txt	LTP285	ltpFR2	1	1	KITCHEN	778	n/a	n/a	0	0	0
197472	WORD	wordpools/wasnorm_wordpool_576.txt	LTP285	ltpFR2	1	1	CRATER	400	n/a	n/a	0	0	0
200185	WORD	wordpools/wasnorm_wordpool_576.txt	LTP285	ltpFR2	1	1	NOTEBOOK	959	n/a	n/a	0	0	0
202932	WORD	wordpools/wasnorm_wordpool_576.txt	LTP285	ltpFR2	1	1	CLAMP	316	n/a	n/a	0	0	0
205744	WORD	wordpools/wasnorm_wordpool_576.txt	LTP285	ltpFR2	1	1	WAGON	1578	n/a	n/a	0	0	0
208423	WORD	wordpools/wasnorm_wordpool_576.txt	LTP285	ltpFR2	1	1	HOOD	714	n/a	n/a	0	0	0
211019	WORD	wordpools/wasnorm_wordpool_576.txt	LTP285	ltpFR2	1	1	LUGGAGE	847	n/a	n/a	0	0	0
213682	WORD	wordpools/wasnorm_wordpool_576.txt	LTP285	ltpFR2	1	1	MAILMAN	858	n/a	n/a	0	0	0
216510	WORD	wordpools/wasnorm_wordpool_576.txt	LTP285	ltpFR2	1	1	VELVET	1555	n/a	n/a	0	0	0
219073	WORD	wordpools/wasnorm_wordpool_576.txt	LTP285	ltpFR2	1	1	FLESH	579	n/a	n/a	0	0	0
221503	WORD	wordpools/wasnorm_wordpool_576.txt	LTP285	ltpFR2	1	1	APPLE	33	n/a	n/a	0	0	0
224216	WORD	wordpools/wasnorm_wordpool_576.txt	LTP285	ltpFR2	1	1	DINER	467	n/a	n/a	0	0	0
227045	WORD	wordpools/wasnorm_wordpool_576.txt	LTP285	ltpFR2	1	1	PASTRY	1022	n/a	n/a	0	0	0
229708	WORD	wordpools/wasnorm_wordpool_576.txt	LTP285	ltpFR2	1	1	LABEL	790	n/a	n/a	0	0	0
232353	WORD	wordpools/wasnorm_wordpool_576.txt	LTP285	ltpFR2	1	1	BLOUSE	139	n/a	n/a	0	0	0
234901	WORD	wordpools/wasnorm_wordpool_576.txt	LTP285	ltpFR2	1	1	SHORTS	1293	n/a	n/a	0	0	0
237479	WORD	wordpools/wasnorm_wordpool_576.txt	LTP285	ltpFR2	1	1	SURVEY	1414	n/a	n/a	0	0	0
240125	WORD	wordpools/wasnorm_wordpool_576.txt	LTP285	ltpFR2	1	1	MUFFIN	929	n/a	n/a	0	0	0
242855	WORD	wordpools/wasnorm_wordpool_576.txt	LTP285	ltpFR2	1	1	GIFT	635	n/a	n/a	0	0	0
245417	WORD	wordpools/wasnorm_wordpool_576.txt	LTP285	ltpFR2	1	1	TRACTOR	1493	n/a	n/a	0	0	0
248147	WORD	wordpools/wasnorm_wordpool_576.txt	LTP285	ltpFR2	1	1	RACKET	1155	n/a	n/a	0	0	0
250644	WORD	wordpools/wasnorm_wordpool_576.txt	LTP285	ltpFR2	1	1	KNAPSACK	783	n/a	n/a	0	0	0
252257	START	n/a	LTP285	ltpFR2	1	n/a	n/a	n/a	1	n/a	n/a	n/a	n/a
253075	DISTRACTOR	n/a	LTP285	ltpFR2	1	1	n/a	n/a	n/a	n/a	0	0	0
253089	PROB	n/a	LTP285	ltpFR2	1	n/a	n/a	n/a	1	18	5	9	4
255769	PROB	n/a	LTP285	ltpFR2	1	n/a	n/a	n/a	1	17	5	4	8
257283	PROB	n/a	LTP285	ltpFR2	1	n/a	n/a	n/a	1	18	6	5	7
258665	PROB	n/a	LTP285	ltpFR2	1	n/a	n/a	n/a	1	16	5	9	2
260428	PROB	n/a	LTP285	ltpFR2	1	n/a	n/a	n/a	1	20	7	5	8
262776	PROB	n/a	LTP285	ltpFR2	1	n/a	n/a	n/a	1	17	8	5	4
266453	PROB	n/a	LTP285	ltpFR2	1	n/a	n/a	n/a	1	26	8	9	9
268067	PROB	n/a	LTP285	ltpFR2	1	n/a	n/a	n/a	1	19	9	4	6
269582	PROB	n/a	LTP285	ltpFR2	1	n/a	n/a	n/a	1	9	1	2	6
270714	PROB	n/a	LTP285	ltpFR2	1	n/a	n/a	n/a	1	12	2	1	8
273709	PROB	n/a	LTP285	ltpFR2	1	n/a	n/a	n/a	1	10	1	4	5
274903	STOP	n/a	LTP285	ltpFR2	1	n/a	n/a	n/a	1	n/a	n/a	n/a	n/a
278069	REC_START	n/a	LTP285	ltpFR2	1	1	n/a	n/a	n/a	n/a	0	0	0
279069	REC_WORD	wordpools/wasnorm_wordpool_576.txt	LTP285	ltpFR2	1	1	BLOUSE	139	n/a	n/a	0	0	0
279989	REC_WORD	wordpools/wasnorm_wordpool_576.txt	LTP285	ltpFR2	1	1	SHORTS	1293	n/a	n/a	0	0	0
281461	REC_WORD	wordpools/wasnorm_wordpool_576.txt	LTP285	ltpFR2	1	1	HOOD	714	n/a	n/a	0	0	0
282830	REC_WORD	wordpools/wasnorm_wordpool_576.txt	LTP285	ltpFR2	1	1	PRIMATE	1123	n/a	n/a	0	0	0
284092	REC_WORD	wordpools/wasnorm_wordpool_576.txt	LTP285	ltpFR2	1	1	VELVET	1555	n/a	n/a	0	0	0
285698	REC_WORD	wordpools/wasnorm_wordpool_576.txt	LTP285	ltpFR2	1	1	LUGGAGE	847	n/a	n/a	0	0	0
287050	REC_WORD	wordpools/wasnorm_wordpool_576.txt	LTP285	ltpFR2	1	1	FLESH	579	n/a	n/a	0	0	0
288694	REC_WORD	wordpools/wasnorm_wordpool_576.txt	LTP285	ltpFR2	1	1	MAILMAN	858	n/a	n/a	0	0	0
291114	REC_WORD	wordpools/wasnorm_wordpool_576.txt	LTP285	ltpFR2	1	1	PASTRY	1022	n/a	n/a	0	0	0
306718	REC_WORD	wordpools/wasnorm_wordpool_576.txt	LTP285	ltpFR2	1	1	KNAPSACK	783	n/a	n/a	0	0	0
308201	REC_WORD	wordpools/wasnorm_wordpool_576.txt	LTP285	ltpFR2	1	1	RACKET	1155	n/a	n/a	0	0	0
323777	REC_WORD	wordpools/wasnorm_wordpool_576.txt	LTP285	ltpFR2	1	1	APPLE	33	n/a	n/a	0	0	0
368751	WORD	wordpools/wasnorm_wordpool_576.txt	LTP285	ltpFR2	1	2	COMPASS	358	n/a	n/a	0	0	0
371546	WORD	wordpools/wasnorm_wordpool_576.txt	LTP285	ltpFR2	1	2	CASHIER	254	n/a	n/a	0	0	0
374258	WORD	wordpools/wasnorm_wordpool_576.txt	LTP285	ltpFR2	1	2	WHISKERS	1605	n/a	n/a	0	0	0
376972	WORD	wordpools/wasnorm_wordpool_576.txt	LTP285	ltpFR2	1	2	GUITAR	670	n/a	n/a	0	0	0
379768	WORD	wordpools/wasnorm_wordpool_576.txt	LTP285	ltpFR2	1	2	EAGLE	512	n/a	n/a	0	0	0
382263	WORD	wordpools/wasnorm_wordpool_576.txt	LTP285	ltpFR2	1	2	AUTHOR	61	n/a	n/a	0	0	0
384992	WORD	wordpools/wasnorm_wordpool_576.txt	LTP285	ltpFR2	1	2	FLEET	578	n/a	n/a	0	0	0
387489	WORD	wordpools/wasnorm_wordpool_576.txt	LTP285	ltpFR2	1	2	FRAGRANCE	599	n/a	n/a	0	0	0
390101	WORD	wordpools/wasnorm_wordpool_576.txt	LTP285	ltpFR2	1	2	PERCH	1048	n/a	n/a	0	0	0
392881	WORD	wordpools/wasnorm_wordpool_576.txt	LTP285	ltpFR2	1	2	RECORD	1176	n/a	n/a	0	0	0
395510	WORD	wordpools/wasnorm_wordpool_576.txt	LTP285	ltpFR2	1	2	EUROPE	541	n/a	n/a	0	0	0
398189	WORD	wordpools/wasnorm_wordpool_576.txt	LTP285	ltpFR2	1	2	MAILBOX	857	n/a	n/a	0	0	0
400686	WORD	wordpools/wasnorm_wordpool_576.txt	LTP285	ltpFR2	1	2	MESSAGE	888	n/a	n/a	0	0	0
403298	WORD	wordpools/wasnorm_wordpool_576.txt	LTP285	ltpFR2	1	2	ATLAS	53	n/a	n/a	0	0	0
405746	WORD	wordpools/wasnorm_wordpool_576.txt	LTP285	ltpFR2	1	2	HAWK	692	n/a	n/a	0	0	0
408241	WORD	wordpools/wasnorm_wordpool_576.txt	LTP285	ltpFR2	1	2	SIBLING	1301	n/a	n/a	0	0	0
411053	WORD	wordpools/wasnorm_wordpool_576.txt	LTP285	ltpFR2	1	2	LONDON	843	n/a	n/a	0	0	0
413584	WORD	wordpools/wasnorm_wordpool_576.txt	LTP285	ltpFR2	1	2	YACHT	1629	n/a	n/a	0	0	0
416096	WORD	wordpools/wasnorm_wordpool_576.txt	LTP285	ltpFR2	1	2	PLAZA	1088	n/a	n/a	0	0	0
418643	WORD	wordpools/wasnorm_wordpool_576.txt	LTP285	ltpFR2	1	2	QUEEN	1149	n/a	n/a	0	0	0
421355	WORD	wordpools/wasnorm_wordpool_576.txt	LTP285	ltpFR2	1	2	FOOT	590	n/a	n/a	0	0	0
424150	WORD	wordpools/wasnorm_wordpool_576.txt	LTP285	ltpFR2	1	2	ANKLE	24	n/a	n/a	0	0	0
426881	WORD	wordpools/wasnorm_wordpool_576.txt	LTP285	ltpFR2	1	2	VICTIM	1562	n/a	n/a	0	0	0
429660	WORD	wordpools/wasnorm_wordpool_576.txt	LTP285	ltpFR2	1	2	OINTMENT	974	n/a	n/a	0	0	0
431273	START	n/a	LTP285	ltpFR2	1	n/a	n/a	n/a	2	n/a	n/a	n/a	n/a
432320	DISTRACTOR	n/a	LTP285	ltpFR2	1	2	n/a	n/a	n/a	n/a	0	0	0
432322	PROB	n/a	LTP285	ltpFR2	1	n/a	n/a	n/a	2	18	5	8	6
434302	PROB	n/a	LTP285	ltpFR2	1	n/a	n/a	n/a	2	14	3	5	6
435999	PROB	n/a	LTP285	ltpFR2	1	n/a	n/a	n/a	2	19	7	9	3
437814	PROB	n/a	LTP285	ltpFR2	1	n/a	n/a	n/a	2	14	8	3	3
439178	PROB	n/a	LTP285	ltpFR2	1	n/a	n/a	n/a	2	18	2	9	7
440960	PROB	n/a	LTP285	ltpFR2	1	n/a	n/a	n/a	2	15	6	5	4
442157	PROB	n/a	LTP285	ltpFR2	1	n/a	n/a	n/a	2	9	4	4	1
443272	PROB	n/a	LTP285	ltpFR2	1	n/a	n/a	n/a	2	11	9	1	1
444370	PROB	n/a	LTP285	ltpFR2	1	n/a	n/a	n/a	2	11	3	3	5
445653	PROB	n/a	LTP285	ltpFR2	1	n/a	n/a	n/a	2	18	2	9	7
447050	PROB	n/a	LTP285	ltpFR2	1	n/a	n/a	n/a	2	15	4	6	5
448364	PROB	n/a	LTP285	ltpFR2	1	n/a	n/a	n/a	2	11	8	1	2
449597	PROB	n/a	LTP285	ltpFR2	1	n/a	n/a	n/a	2	17	2	8	7
450778	PROB	n/a	LTP285	ltpFR2	1	n/a	n/a	n/a	2	15	1	8	6
452209	PROB	n/a	LTP285	ltpFR2	1	n/a	n/a	n/a	2	14	2	5	7
453523	PROB	n/a	LTP285	ltpFR2	1	n/a	n/a	n/a	2	12	4	2	6
454991	STOP	n/a	LTP285	ltpFR2	1	n/a	n/a	n/a	2	n/a	n/a	n/a	n/a
457168	REC_START	n/a	LTP285	ltpFR2	1	2	n/a	n/a	n/a	n/a	0	0	0
458096	REC_WORD	wordpools/wasnorm_wordpool_576.txt	LTP285	ltpFR2	1	2	FLEET	578	n/a	n/a	0	0	0
459207	REC_WORD	wordpools/wasnorm_wordpool_576.txt	LTP285	ltpFR2	1	2	COMPASS	358	n/a	n/a	0	0	0
460371	REC_WORD	wordpools/wasnorm_wordpool_576.txt	LTP285	ltpFR2	1	2	CASHIER	254	n/a	n/a	0	0	0
463233	REC_WORD	wordpools/wasnorm_wordpool_576.txt	LTP285	ltpFR2	1	2	EAGLE	512	n/a	n/a	0	0	0
464041	REC_WORD	wordpools/wasnorm_wordpool_576.txt	LTP285	ltpFR2	1	2	HAWK	692	n/a	n/a	0	0	0
465233	REC_WORD	wordpools/wasnorm_wordpool_576.txt	LTP285	ltpFR2	1	2	PERCH	1048	n/a	n/a	0	0	0
466420	REC_WORD	wordpools/wasnorm_wordpool_576.txt	LTP285	ltpFR2	1	2	FRAGRANCE	599	n/a	n/a	0	0	0
467921	REC_WORD	wordpools/wasnorm_wordpool_576.txt	LTP285	ltpFR2	1	2	OINTMENT	974	n/a	n/a	0	0	0
473657	REC_WORD	wordpools/wasnorm_wordpool_576.txt	LTP285	ltpFR2	1	2	QUEEN	1149	n/a	n/a	0	0	0
475120	REC_WORD	wordpools/wasnorm_wordpool_576.txt	LTP285	ltpFR2	1	2	SIBLING	1301	n/a	n/a	0	0	0
480432	REC_WORD	wordpools/wasnorm_wordpool_576.txt	LTP285	ltpFR2	1	2	VICTIM	1562	n/a	n/a	0	0	0
501591	REC_WORD	wordpools/wasnorm_wordpool_576.txt	LTP285	ltpFR2	1	2	MAILBOX	857	n/a	n/a	0	0	0
502591	REC_WORD_VV	wordpools/wasnorm_wordpool_576.txt	LTP285	ltpFR2	1	2	<>	-1	n/a	n/a	0	0	0
522583	REC_WORD	wordpools/wasnorm_wordpool_576.txt	LTP285	ltpFR2	1	2	ATLAS	53	n/a	n/a	0	0	0
525559	REC_WORD	wordpools/wasnorm_wordpool_576.txt	LTP285	ltpFR2	1	2	LONDON	843	n/a	n/a	0	0	0
529278	REC_WORD	wordpools/wasnorm_wordpool_576.txt	LTP285	ltpFR2	1	2	EUROPE	541	n/a	n/a	0	0	0
547850	DISTRACTOR	n/a	LTP285	ltpFR2	1	3	n/a	n/a	n/a	n/a	0	0	0
547850	START	n/a	LTP285	ltpFR2	1	n/a	n/a	n/a	3	n/a	n/a	n/a	n/a
547883	PROB	n/a	LTP285	ltpFR2	1	n/a	n/a	n/a	3	18	5	4	9
549097	PROB	n/a	LTP285	ltpFR2	1	n/a	n/a	n/a	3	23	8	7	6
551911	PROB	n/a	LTP285	ltpFR2	1	n/a	n/a	n/a	3	14	6	4	4
553224	PROB	n/a	LTP285	ltpFR2	1	n/a	n/a	n/a	3	24	9	7	8
555688	PROB	n/a	LTP285	ltpFR2	1	n/a	n/a	n/a	3	13	8	4	1
557035	PROB	n/a	LTP285	ltpFR2	1	n/a	n/a	n/a	3	13	4	6	3
558084	PROB	n/a	LTP285	ltpFR2	1	n/a	n/a	n/a	3	13	4	4	5
559616	PROB	n/a	LTP285	ltpFR2	1	n/a	n/a	n/a	3	25	6	9	9
561412	PROB	n/a	LTP285	ltpFR2	1	n/a	n/a	n/a	3	9	2	2	5
562894	PROB	n/a	LTP285	ltpFR2	1	n/a	n/a	n/a	3	22	9	4	9
564841	PROB	n/a	LTP285	ltpFR2	1	n/a	n/a	n/a	3	7	1	1	5
566005	PROB	n/a	LTP285	ltpFR2	1	n/a	n/a	n/a	3	9	5	3	1
569350	PROB	n/a	LTP285	ltpFR2	1	n/a	n/a	n/a	3	22	5	9	8
571039	STOP	n/a	LTP285	ltpFR2	1	n/a	n/a	n/a	3	n/a	n/a	n/a	n/a
572763	WORD	wordpools/wasnorm_wordpool_576.txt	LTP285	ltpFR2	1	3	LIPSTICK	829	n/a	n/a	0	0	0
575341	WORD	wordpools/wasnorm_wordpool_576.txt	LTP285	ltpFR2	1	3	LOVER	846	n/a	n/a	0	0	0
578087	WORD	wordpools/wasnorm_wordpool_576.txt	LTP285	ltpFR2	1	3	EMPIRE	530	n/a	n/a	0	0	0
580818	WORD	wordpools/wasnorm_wordpool_576.txt	LTP285	ltpFR2	1	3	DRAGON	492	n/a	n/a	0	0	0
583513	WORD	wordpools/wasnorm_wordpool_576.txt	LTP285	ltpFR2	1	3	PEPPER	1047	n/a	n/a	0	0	0
586192	WORD	wordpools/wasnorm_wordpool_576.txt	LTP285	ltpFR2	1	3	DENTIST	447	n/a	n/a	0	0	0
588856	WORD	wordpools/wasnorm_wordpool_576.txt	LTP285	ltpFR2	1	3	SCRIBBLE	1256	n/a	n/a	0	0	0
591568	WORD	wordpools/wasnorm_wordpool_576.txt	LTP285	ltpFR2	1	3	SHARK	1275	n/a	n/a	0	0	0
594063	WORD	wordpools/wasnorm_wordpool_576.txt	LTP285	ltpFR2	1	3	CABBAGE	210	n/a	n/a	0	0	0
596577	WORD	wordpools/wasnorm_wordpool_576.txt	LTP285	ltpFR2	1	3	TURNIP	1521	n/a	n/a	0	0	0
599156	WORD	wordpools/wasnorm_wordpool_576.txt	LTP285	ltpFR2	1	3	COUNTY	389	n/a	n/a	0	0	0
601919	WORD	wordpools/wasnorm_wordpool_576.txt	LTP285	ltpFR2	1	3	CONTRACT	368	n/a	n/a	0	0	0
604398	WORD	wordpools/wasnorm_wordpool_576.txt	LTP285	ltpFR2	1	3	COMET	353	n/a	n/a	0	0	0
606945	WORD	wordpools/wasnorm_wordpool_576.txt	LTP285	ltpFR2	1	3	SPACE	1345	n/a	n/a	0	0	0
609691	WORD	wordpools/wasnorm_wordpool_576.txt	LTP285	ltpFR2	1	3	TABLET	1427	n/a	n/a	0	0	0
612253	WORD	wordpools/wasnorm_wordpool_576.txt	LTP285	ltpFR2	1	3	SEAGULL	1261	n/a	n/a	0	0	0
614917	WORD	wordpools/wasnorm_wordpool_576.txt	LTP285	ltpFR2	1	3	PARSLEY	1016	n/a	n/a	0	0	0
617429	WORD	wordpools/wasnorm_wordpool_576.txt	LTP285	ltpFR2	1	3	IGLOO	734	n/a	n/a	0	0	0
620008	WORD	wordpools/wasnorm_wordpool_576.txt	LTP285	ltpFR2	1	3	BRICK	172	n/a	n/a	0	0	0
622838	WORD	wordpools/wasnorm_wordpool_576.txt	LTP285	ltpFR2	1	3	ASIA	46	n/a	n/a	0	0	0
625367	WORD	wordpools/wasnorm_wordpool_576.txt	LTP285	ltpFR2	1	3	SWAMP	1416	n/a	n/a	0	0	0
628046	WORD	wordpools/wasnorm_wordpool_576.txt	LTP285	ltpFR2	1	3	LAKE	796	n/a	n/a	0	0	0
630793	WORD	wordpools/wasnorm_wordpool_576.txt	LTP285	ltpFR2	1	3	SALT	1229	n/a	n/a	0	0	0
633222	WORD	wordpools/wasnorm_wordpool_576.txt	LTP285	ltpFR2	1	3	PAPER	1011	n/a	n/a	0	0	0
634837	START	n/a	LTP285	ltpFR2	1	n/a	n/a	n/a	4	n/a	n/a	n/a	n/a
635715	DISTRACTOR	n/a	LTP285	ltpFR2	1	3	n/a	n/a	n/a	n/a	0	0	0
635719	PROB	n/a	LTP285	ltpFR2	1	n/a	n/a	n/a	4	14	4	6	4
636817	PROB	n/a	LTP285	ltpFR2	1	n/a	n/a	n/a	4	19	8	7	4
638381	PROB	n/a	LTP285	ltpFR2	1	n/a	n/a	n/a	4	10	2	7	1
639646	PROB	n/a	LTP285	ltpFR2	1	n/a	n/a	n/a	4	12	7	4	1
640645	PROB	n/a	LTP285	ltpFR2	1	n/a	n/a	n/a	4	18	3	9	6
642875	PROB	n/a	LTP285	ltpFR2	1	n/a	n/a	n/a	4	78	5	1	2
643873	PROB	n/a	LTP285	ltpFR2	1	n/a	n/a	n/a	4	21	5	7	9
647101	PROB	n/a	LTP285	ltpFR2	1	n/a	n/a	n/a	4	9	1	1	7
648183	PROB	n/a	LTP285	ltpFR2	1	n/a	n/a	n/a	4	13	2	9	2
650780	PROB	n/a	LTP285	ltpFR2	1	n/a	n/a	n/a	4	17	8	1	8
652127	PROB	n/a	LTP285	ltpFR2	1	n/a	n/a	n/a	4	9	1	7	1
653225	PROB	n/a	LTP285	ltpFR2	1	n/a	n/a	n/a	4	17	4	7	6
654724	PROB	n/a	LTP285	ltpFR2	1	n/a	n/a	n/a	4	10	2	4	4
656287	PROB	n/a	LTP285	ltpFR2	1	n/a	n/a	n/a	4	1	4	8	1
657286	PROB	n/a	LTP285	ltpFR2	1	n/a	n/a	n/a	4	10	2	2	6
658656	STOP	n/a	LTP285	ltpFR2	1	n/a	n/a	n/a	4	n/a	n/a	n/a	n/a
660665	REC_START	n/a	LTP285	ltpFR2	1	3	n/a	n/a	n/a	n/a	0	0	0
661778	REC_WORD	wordpools/wasnorm_wordpool_576.txt	LTP285	ltpFR2	1	3	ASIA	46	n/a	n/a	0	0	0
662931	REC_WORD	wordpools/wasnorm_wordpool_576.txt	LTP285	ltpFR2	1	3	SALT	1229	n/a	n/a	0	0	0
664005	REC_WORD	wordpools/wasnorm_wordpool_576.txt	LTP285	ltpFR2	1	3	PEPPER	1047	n/a	n/a	0	0	0
665538	REC_WORD	wordpools/wasnorm_wordpool_576.txt	LTP285	ltpFR2	1	3	TURNIP	1521	n/a	n/a	0	0	0
666675	REC_WORD	wordpools/wasnorm_wordpool_576.txt	LTP285	ltpFR2	1	3	PARSLEY	1016	n/a	n/a	0	0	0
668979	REC_WORD	wordpools/wasnorm_wordpool_576.txt	LTP285	ltpFR2	1	3	SWAMP	1416	n/a	n/a	0	0	0
671853	REC_WORD	wordpools/wasnorm_wordpool_576.txt	LTP285	ltpFR2	1	3	LAKE	796	n/a	n/a	0	0	0
674456	REC_WORD	wordpools/wasnorm_wordpool_576.txt	LTP285	ltpFR2	1	3	COMET	353	n/a	n/a	0	0	0
675933	REC_WORD	wordpools/wasnorm_wordpool_576.txt	LTP285	ltpFR2	1	3	SPACE	1345	n/a	n/a	0	0	0
686737	REC_WORD	wordpools/wasnorm_wordpool_576.txt	LTP285	ltpFR2	1	3	LOVER	846	n/a	n/a	0	0	0
698039	REC_WORD	wordpools/wasnorm_wordpool_576.txt	LTP285	ltpFR2	1	3	SCRIBBLE	1256	n/a	n/a	0	0	0
699418	REC_WORD	wordpools/wasnorm_wordpool_576.txt	LTP285	ltpFR2	1	3	TABLET	1427	n/a	n/a	0	0	0
734576	REC_WORD	wordpools/wasnorm_wordpool_576.txt	LTP285	ltpFR2	1	3	COUNTY	389	n/a	n/a	0	0	0
751329	WORD	wordpools/wasnorm_wordpool_576.txt	LTP285	ltpFR2	1	4	INMATE	738	n/a	n/a	0	0	0
753926	WORD	wordpools/wasnorm_wordpool_576.txt	LTP285	ltpFR2	1	4	PLATE	1086	n/a	n/a	0	0	0
756622	WORD	wordpools/wasnorm_wordpool_576.txt	LTP285	ltpFR2	1	4	HEART	697	n/a	n/a	0	0	0
759267	WORD	wordpools/wasnorm_wordpool_576.txt	LTP285	ltpFR2	1	4	SPIDER	1351	n/a	n/a	0	0	0
761814	WORD	wordpools/wasnorm_wordpool_576.txt	LTP285	ltpFR2	1	4	TERMITE	1451	n/a	n/a	0	0	0
764243	WORD	wordpools/wasnorm_wordpool_576.txt	LTP285	ltpFR2	1	4	OUTDOORS	987	n/a	n/a	0	0	0
766906	WORD	wordpools/wasnorm_wordpool_576.txt	LTP285	ltpFR2	1	4	MARINE	869	n/a	n/a	0	0	0
769485	WORD	wordpools/wasnorm_wordpool_576.txt	LTP285	ltpFR2	1	4	TRANSPLANT	1496	n/a	n/a	0	0	0
772264	WORD	wordpools/wasnorm_wordpool_576.txt	LTP285	ltpFR2	1	4	BARREL	91	n/a	n/a	0	0	0
774828	WORD	wordpools/wasnorm_wordpool_576.txt	LTP285	ltpFR2	1	4	BATHTUB	100	n/a	n/a	0	0	0
777624	WORD	wordpools/wasnorm_wordpool_576.txt	LTP285	ltpFR2	1	4	CROSS	413	n/a	n/a	0	0	0
780302	WORD	wordpools/wasnorm_wordpool_576.txt	LTP285	ltpFR2	1	4	SLIDE	1326	n/a	n/a	0	0	0
782799	WORD	wordpools/wasnorm_wordpool_576.txt	LTP285	ltpFR2	1	4	XEROX	1628	n/a	n/a	0	0	0
785378	WORD	wordpools/wasnorm_wordpool_576.txt	LTP285	ltpFR2	1	4	AIRPORT	13	n/a	n/a	0	0	0
787925	WORD	wordpools/wasnorm_wordpool_576.txt	LTP285	ltpFR2	1	4	CANAL	226	n/a	n/a	0	0	0
790654	WORD	wordpools/wasnorm_wordpool_576.txt	LTP285	ltpFR2	1	4	CAMEL	223	n/a	n/a	0	0	0
793133	WORD	wordpools/wasnorm_wordpool_576.txt	LTP285	ltpFR2	1	4	SUSPECT	1415	n/a	n/a	0	0	0
795747	WORD	wordpools/wasnorm_wordpool_576.txt	LTP285	ltpFR2	1	4	ROBBER	1197	n/a	n/a	0	0	0
798225	WORD	wordpools/wasnorm_wordpool_576.txt	LTP285	ltpFR2	1	4	SUPPER	1411	n/a	n/a	0	0	0
800789	WORD	wordpools/wasnorm_wordpool_576.txt	LTP285	ltpFR2	1	4	PLUTO	1092	n/a	n/a	0	0	0
803451	WORD	wordpools/wasnorm_wordpool_576.txt	LTP285	ltpFR2	1	4	FLOWER	584	n/a	n/a	0	0	0
805965	WORD	wordpools/wasnorm_wordpool_576.txt	LTP285	ltpFR2	1	4	CORAL	378	n/a	n/a	0	0	0
808427	WORD	wordpools/wasnorm_wordpool_576.txt	LTP285	ltpFR2	1	4	NEUTRON	947	n/a	n/a	0	0	0
810891	WORD	wordpools/wasnorm_wordpool_576.txt	LTP285	ltpFR2	1	4	SWITCH	1422	n/a	n/a	0	0	0
812504	START	n/a	LTP285	ltpFR2	1	n/a	n/a	n/a	5	n/a	n/a	n/a	n/a
813537	DISTRACTOR	n/a	LTP285	ltpFR2	1	4	n/a	n/a	n/a	n/a	0	0	0
813553	PROB	n/a	LTP285	ltpFR2	1	n/a	n/a	n/a	5	15	7	3	5
814801	PROB	n/a	LTP285	ltpFR2	1	n/a	n/a	n/a	5	10	6	2	2
816099	PROB	n/a	LTP285	ltpFR2	1	n/a	n/a	n/a	5	19	7	4	8
817380	PROB	n/a	LTP285	ltpFR2	1	n/a	n/a	n/a	5	9	2	2	5
818762	PROB	n/a	LTP285	ltpFR2	1	n/a	n/a	n/a	5	10	2	1	7
819911	PROB	n/a	LTP285	ltpFR2	1	n/a	n/a	n/a	5	18	8	1	9
821357	PROB	n/a	LTP285	ltpFR2	1	n/a	n/a	n/a	5	15	8	2	5
822422	PROB	n/a	LTP285	ltpFR2	1	n/a	n/a	n/a	5	16	7	7	2
823788	PROB	n/a	LTP285	ltpFR2	1	n/a	n/a	n/a	5	11	4	6	1
824753	PROB	n/a	LTP285	ltpFR2	1	n/a	n/a	n/a	5	10	1	4	5
825918	PROB	n/a	LTP285	ltpFR2	1	n/a	n/a	n/a	5	15	3	8	3
827482	PROB	n/a	LTP285	ltpFR2	1	n/a	n/a	n/a	5	16	6	6	4
828930	PROB	n/a	LTP285	ltpFR2	1	n/a	n/a	n/a	5	16	9	4	3
830894	PROB	n/a	LTP285	ltpFR2	1	n/a	n/a	n/a	5	20	6	5	9
832958	PROB	n/a	LTP285	ltpFR2	1	n/a	n/a	n/a	5	14	6	5	3
835608	STOP	n/a	LTP285	ltpFR2	1	n/a	n/a	n/a	5	n/a	n/a	n/a	n/a
838266	REC_START	n/a	LTP285	ltpFR2	1	4	n/a	n/a	n/a	n/a	0	0	0
839284	REC_WORD	wordpools/wasnorm_wordpool_576.txt	LTP285	ltpFR2	1	4	PLUTO	1092	n/a	n/a	0	0	0
840458	REC_WORD	wordpools/wasnorm_wordpool_576.txt	LTP285	ltpFR2	1	4	NEUTRON	947	n/a	n/a	0	0	0
849648	REC_WORD	wordpools/wasnorm_wordpool_576.txt	LTP285	ltpFR2	1	4	BARREL	91	n/a	n/a	0	0	0
850847	REC_WORD	wordpools/wasnorm_wordpool_576.txt	LTP285	ltpFR2	1	4	BATHTUB	100	n/a	n/a	0	0	0
857720	REC_WORD	wordpools/wasnorm_wordpool_576.txt	LTP285	ltpFR2	1	4	INMATE	738	n/a	n/a	0	0	0
858632	REC_WORD	wordpools/wasnorm_wordpool_576.txt	LTP285	ltpFR2	1	4	SUSPECT	1415	n/a	n/a	0	0	0
859793	REC_WORD	wordpools/wasnorm_wordpool_576.txt	LTP285	ltpFR2	1	4	ROBBER	1197	n/a	n/a	0	0	0
878440	REC_WORD	wordpools/wasnorm_wordpool_576.txt	LTP285	ltpFR2	1	4	XEROX	1628	n/a	n/a	0	0	0
883297	REC_WORD	wordpools/wasnorm_wordpool_576.txt	LTP285	ltpFR2	1	4	FLOWER	584	n/a	n/a	0	0	0
887807	REC_WORD	wordpools/wasnorm_wordpool_576.txt	LTP285	ltpFR2	1	4	MARINE	869	n/a	n/a	0	0	0
889661	REC_WORD	wordpools/wasnorm_wordpool_576.txt	LTP285	ltpFR2	1	4	CORAL	378	n/a	n/a	0	0	0
897471	REC_WORD	wordpools/wasnorm_wordpool_576.txt	LTP285	ltpFR2	1	4	HEART	697	n/a	n/a	0	0	0
898499	REC_WORD	wordpools/wasnorm_wordpool_576.txt	LTP285	ltpFR2	1	4	TRANSPLANT	1496	n/a	n/a	0	0	0
928931	WORD	wordpools/wasnorm_wordpool_576.txt	LTP285	ltpFR2	1	5	QUARTER	1148	n/a	n/a	0	0	0
931560	WORD	wordpools/wasnorm_wordpool_576.txt	LTP285	ltpFR2	1	5	HELMET	702	n/a	n/a	0	0	0
934372	WORD	wordpools/wasnorm_wordpool_576.txt	LTP285	ltpFR2	1	5	BIKE	125	n/a	n/a	0	0	0
937101	WORD	wordpools/wasnorm_wordpool_576.txt	LTP285	ltpFR2	1	5	MOP	916	n/a	n/a	0	0	0
939815	WORD	wordpools/wasnorm_wordpool_576.txt	LTP285	ltpFR2	1	5	CREATURE	403	n/a	n/a	0	0	0
942543	WORD	wordpools/wasnorm_wordpool_576.txt	LTP285	ltpFR2	1	5	CONVICT	371	n/a	n/a	0	0	0
945056	WORD	wordpools/wasnorm_wordpool_576.txt	LTP285	ltpFR2	1	5	LODGE	839	n/a	n/a	0	0	0
947703	WORD	wordpools/wasnorm_wordpool_576.txt	LTP285	ltpFR2	1	5	WASP	1593	n/a	n/a	0	0	0
950132	WORD	wordpools/wasnorm_wordpool_576.txt	LTP285	ltpFR2	1	5	PROTON	1132	n/a	n/a	0	0	0
952563	WORD	wordpools/wasnorm_wordpool_576.txt	LTP285	ltpFR2	1	5	MUMMY	932	n/a	n/a	0	0	0
955008	WORD	wordpools/wasnorm_wordpool_576.txt	LTP285	ltpFR2	1	5	RUG	1215	n/a	n/a	0	0	0
957688	WORD	wordpools/wasnorm_wordpool_576.txt	LTP285	ltpFR2	1	5	PATIENT	1024	n/a	n/a	0	0	0
960383	WORD	wordpools/wasnorm_wordpool_576.txt	LTP285	ltpFR2	1	5	CHEMIST	292	n/a	n/a	0	0	0
963112	WORD	wordpools/wasnorm_wordpool_576.txt	LTP285	ltpFR2	1	5	CLAM	315	n/a	n/a	0	0	0
965876	WORD	wordpools/wasnorm_wordpool_576.txt	LTP285	ltpFR2	1	5	CRAB	397	n/a	n/a	0	0	0
968589	WORD	wordpools/wasnorm_wordpool_576.txt	LTP285	ltpFR2	1	5	BANKER	84	n/a	n/a	0	0	0
971317	WORD	wordpools/wasnorm_wordpool_576.txt	LTP285	ltpFR2	1	5	BASEMENT	94	n/a	n/a	0	0	0
974029	WORD	wordpools/wasnorm_wordpool_576.txt	LTP285	ltpFR2	1	5	COSTUME	383	n/a	n/a	0	0	0
976776	WORD	wordpools/wasnorm_wordpool_576.txt	LTP285	ltpFR2	1	5	RIVER	1194	n/a	n/a	0	0	0
979505	WORD	wordpools/wasnorm_wordpool_576.txt	LTP285	ltpFR2	1	5	SEAFOOD	1260	n/a	n/a	0	0	0
982284	WORD	wordpools/wasnorm_wordpool_576.txt	LTP285	ltpFR2	1	5	HONEY	713	n/a	n/a	0	0	0
984848	WORD	wordpools/wasnorm_wordpool_576.txt	LTP285	ltpFR2	1	5	FRANCE	601	n/a	n/a	0	0	0
987459	WORD	wordpools/wasnorm_wordpool_576.txt	LTP285	ltpFR2	1	5	JUNGLE	764	n/a	n/a	0	0	0
990205	WORD	wordpools/wasnorm_wordpool_576.txt	LTP285	ltpFR2	1	5	HATCHET	691	n/a	n/a	0	0	0
991821	START	n/a	LTP285	ltpFR2	1	n/a	n/a	n/a	6	n/a	n/a	n/a	n/a
992688	DISTRACTOR	n/a	LTP285	ltpFR2	1	5	n/a	n/a	n/a	n/a	0	0	0
992703	PROB	n/a	LTP285	ltpFR2	1	n/a	n/a	n/a	6	18	1	8	9
993951	PROB	n/a	LTP285	ltpFR2	1	n/a	n/a	n/a	6	20	9	7	4
996030	PROB	n/a	LTP285	ltpFR2	1	n/a	n/a	n/a	6	17	7	7	3
997778	PROB	n/a	LTP285	ltpFR2	1	n/a	n/a	n/a	6	16	1	7	8
998977	PROB	n/a	LTP285	ltpFR2	1	n/a	n/a	n/a	6	20	3	9	8
1000957	PROB	n/a	LTP285	ltpFR2	1	n/a	n/a	n/a	6	19	9	1	9
1002137	PROB	n/a	LTP285	ltpFR2	1	n/a	n/a	n/a	6	24	7	9	6
1006615	PROB	n/a	LTP285	ltpFR2	1	n/a	n/a	n/a	6	19	6	4	9
1007913	PROB	n/a	LTP285	ltpFR2	1	n/a	n/a	n/a	6	13	7	1	5
1009594	PROB	n/a	LTP285	ltpFR2	1	n/a	n/a	n/a	6	10	2	3	5
1010742	PROB	n/a	LTP285	ltpFR2	1	n/a	n/a	n/a	6	21	8	4	9
1012455	PROB	n/a	LTP285	ltpFR2	1	n/a	n/a	n/a	6	13	2	6	5
1015821	STOP	n/a	LTP285	ltpFR2	1	n/a	n/a	n/a	6	n/a	n/a	n/a	n/a
1017732	REC_START	n/a	LTP285	ltpFR2	1	5	n/a	n/a	n/a	n/a	0	0	0
1018334	REC_WORD	wordpools/wasnorm_wordpool_576.txt	LTP285	ltpFR2	1	5	FRANCE	601	n/a	n/a	0	0	0
1019613	REC_WORD	wordpools/wasnorm_wordpool_576.txt	LTP285	ltpFR2	1	5	JUNGLE	764	n/a	n/a	0	0	0
1020752	REC_WORD	wordpools/wasnorm_wordpool_576.txt	LTP285	ltpFR2	1	5	SEAFOOD	1260	n/a	n/a	0	0	0
1022115	REC_WORD	wordpools/wasnorm_wordpool_576.txt	LTP285	ltpFR2	1	5	CLAM	315	n/a	n/a	0	0	0
1023224	REC_WORD	wordpools/wasnorm_wordpool_576.txt	LTP285	ltpFR2	1	5	CRAB	397	n/a	n/a	0	0	0
1024455	REC_WORD	wordpools/wasnorm_wordpool_576.txt	LTP285	ltpFR2	1	5	HONEY	713	n/a	n/a	0	0	0
1026696	REC_WORD	wordpools/wasnorm_wordpool_576.txt	LTP285	ltpFR2	1	5	PROTON	1132	n/a	n/a	0	0	0
1034197	REC_WORD	wordpools/wasnorm_wordpool_576.txt	LTP285	ltpFR2	1	5	MOP	916	n/a	n/a	0	0	0
1035767	REC_WORD	wordpools/wasnorm_wordpool_576.txt	LTP285	ltpFR2	1	5	CREATURE	403	n/a	n/a	0	0	0
1039840	REC_WORD	wordpools/wasnorm_wordpool_576.txt	LTP285	ltpFR2	1	5	BANKER	84	n/a	n/a	0	0	0
1040964	REC_WORD	wordpools/wasnorm_wordpool_576.txt	LTP285	ltpFR2	1	5	CHEMIST	292	n/a	n/a	0	0	0
1042252	REC_WORD	wordpools/wasnorm_wordpool_576.txt	LTP285	ltpFR2	1	5	COSTUME	383	n/a	n/a	0	0	0
1061400	REC_WORD	wordpools/wasnorm_wordpool_576.txt	LTP285	ltpFR2	1	5	AIRPORT	13	n/a	n/a	0	0	0
1062400	REC_WORD_VV	wordpools/wasnorm_wordpool_576.txt	LTP285	ltpFR2	1	5	<>	-1	n/a	n/a	0	0	0
1069745	REC_WORD	wordpools/wasnorm_wordpool_576.txt	LTP285	ltpFR2	1	5	WASP	1593	n/a	n/a	0	0	0
1108379	WORD	wordpools/wasnorm_wordpool_576.txt	LTP285	ltpFR2	1	6	BOUQUET	157	n/a	n/a	0	0	0
1111008	WORD	wordpools/wasnorm_wordpool_576.txt	LTP285	ltpFR2	1	6	VIRUS	1572	n/a	n/a	0	0	0
1113521	WORD	wordpools/wasnorm_wordpool_576.txt	LTP285	ltpFR2	1	6	SILK	1307	n/a	n/a	0	0	0
1116034	WORD	wordpools/wasnorm_wordpool_576.txt	LTP285	ltpFR2	1	6	RAFT	1159	n/a	n/a	0	0	0
1118615	WORD	wordpools/wasnorm_wordpool_576.txt	LTP285	ltpFR2	1	6	EGYPT	519	n/a	n/a	0	0	0
1121110	WORD	wordpools/wasnorm_wordpool_576.txt	LTP285	ltpFR2	1	6	CEILING	265	n/a	n/a	0	0	0
1123607	WORD	wordpools/wasnorm_wordpool_576.txt	LTP285	ltpFR2	1	6	TILE	1468	n/a	n/a	0	0	0
1126069	WORD	wordpools/wasnorm_wordpool_576.txt	LTP285	ltpFR2	1	6	TEMPLE	1448	n/a	n/a	0	0	0
1128883	WORD	wordpools/wasnorm_wordpool_576.txt	LTP285	ltpFR2	1	6	FILM	565	n/a	n/a	0	0	0
1131345	WORD	wordpools/wasnorm_wordpool_576.txt	LTP285	ltpFR2	1	6	FLUTE	585	n/a	n/a	0	0	0
1134074	WORD	wordpools/wasnorm_wordpool_576.txt	LTP285	ltpFR2	1	6	FLASHLIGHT	575	n/a	n/a	0	0	0
1136621	WORD	wordpools/wasnorm_wordpool_576.txt	LTP285	ltpFR2	1	6	LACE	792	n/a	n/a	0	0	0
1139333	WORD	wordpools/wasnorm_wordpool_576.txt	LTP285	ltpFR2	1	6	SKIRT	1319	n/a	n/a	0	0	0
1142145	WORD	wordpools/wasnorm_wordpool_576.txt	LTP285	ltpFR2	1	6	BANJO	82	n/a	n/a	0	0	0
1144592	WORD	wordpools/wasnorm_wordpool_576.txt	LTP285	ltpFR2	1	6	SADDLE	1221	n/a	n/a	0	0	0
1147337	WORD	wordpools/wasnorm_wordpool_576.txt	LTP285	ltpFR2	1	6	BLOCKADE	137	n/a	n/a	0	0	0
1150083	WORD	wordpools/wasnorm_wordpool_576.txt	LTP285	ltpFR2	1	6	CLOCK	325	n/a	n/a	0	0	0
1152546	WORD	wordpools/wasnorm_wordpool_576.txt	LTP285	ltpFR2	1	6	SCOTCH	1251	n/a	n/a	0	0	0
1155009	WORD	wordpools/wasnorm_wordpool_576.txt	LTP285	ltpFR2	1	6	MACHINE	852	n/a	n/a	0	0	0
1157539	WORD	wordpools/wasnorm_wordpool_576.txt	LTP285	ltpFR2	1	6	TUNNEL	1519	n/a	n/a	0	0	0
1160268	WORD	wordpools/wasnorm_wordpool_576.txt	LTP285	ltpFR2	1	6	PALACE	1006	n/a	n/a	0	0	0
1162948	WORD	wordpools/wasnorm_wordpool_576.txt	LTP285	ltpFR2	1	6	CLOUD	328	n/a	n/a	0	0	0
1165444	WORD	wordpools/wasnorm_wordpool_576.txt	LTP285	ltpFR2	1	6	CHILD	299	n/a	n/a	0	0	0
1168123	WORD	wordpools/wasnorm_wordpool_576.txt	LTP285	ltpFR2	1	6	RATTLE	1170	n/a	n/a	0	0	0
1169738	START	n/a	LTP285	ltpFR2	1	n/a	n/a	n/a	7	n/a	n/a	n/a	n/a
1170891	DISTRACTOR	n/a	LTP285	ltpFR2	1	6	n/a	n/a	n/a	n/a	0	0	0
1170903	PROB	n/a	LTP285	ltpFR2	1	n/a	n/a	n/a	7	19	4	9	6
1172250	PROB	n/a	LTP285	ltpFR2	1	n/a	n/a	n/a	7	19	5	9	5
1173498	PROB	n/a	LTP285	ltpFR2	1	n/a	n/a	n/a	7	10	2	5	3
1175296	PROB	n/a	LTP285	ltpFR2	1	n/a	n/a	n/a	7	12	3	5	4
1177176	PROB	n/a	LTP285	ltpFR2	1	n/a	n/a	n/a	7	9	1	5	3
1178408	PROB	n/a	LTP285	ltpFR2	1	n/a	n/a	n/a	7	10	1	3	6
1179740	PROB	n/a	LTP285	ltpFR2	1	n/a	n/a	n/a	7	18	8	3	6
1181737	PROB	n/a	LTP285	ltpFR2	1	n/a	n/a	n/a	7	15	7	4	4
1183217	PROB	n/a	LTP285	ltpFR2	1	n/a	n/a	n/a	7	7	2	2	3
1184733	PROB	n/a	LTP285	ltpFR2	1	n/a	n/a	n/a	7	19	2	9	8
1186696	PROB	n/a	LTP285	ltpFR2	1	n/a	n/a	n/a	7	10	6	3	1
1187828	PROB	n/a	LTP285	ltpFR2	1	n/a	n/a	n/a	7	15	8	1	6
1189592	PROB	n/a	LTP285	ltpFR2	1	n/a	n/a	n/a	7	12	4	5	3
1190957	PROB	n/a	LTP285	ltpFR2	1	n/a	n/a	n/a	7	19	2	8	9
1192170	PROB	n/a	LTP285	ltpFR2	1	n/a	n/a	n/a	7	19	9	6	4
1193167	STOP	n/a	LTP285	ltpFR2	1	n/a	n/a	n/a	7	n/a	n/a	n/a	n/a
1195584	REC_START	n/a	LTP285	ltpFR2	1	6	n/a	n/a	n/a	n/a	0	0	0
1196238	REC_WORD	wordpools/wasnorm_wordpool_576.txt	LTP285	ltpFR2	1	6	CLOUD	328	n/a	n/a	0	0	0
1197341	REC_WORD	wordpools/wasnorm_wordpool_576.txt	LTP285	ltpFR2	1	6	CHILD	299	n/a	n/a	0	0	0
1198512	REC_WORD	wordpools/wasnorm_wordpool_576.txt	LTP285	ltpFR2	1	6	RATTLE	1170	n/a	n/a	0	0	0
1199941	REC_WORD	wordpools/wasnorm_wordpool_576.txt	LTP285	ltpFR2	1	6	PALACE	1006	n/a	n/a	0	0	0
1201464	REC_WORD	wordpools/wasnorm_wordpool_576.txt	LTP285	ltpFR2	1	6	TEMPLE	1448	n/a	n/a	0	0	0
1209769	REC_WORD	wordpools/wasnorm_wordpool_576.txt	LTP285	ltpFR2	1	6	EGYPT	519	n/a	n/a	0	0	0
1213720	REC_WORD	wordpools/wasnorm_wordpool_576.txt	LTP285	ltpFR2	1	6	BANJO	82	n/a	n/a	0	0	0
1214855	REC_WORD	wordpools/wasnorm_wordpool_576.txt	LTP285	ltpFR2	1	6	FLUTE	585	n/a	n/a	0	0	0
1218127	REC_WORD	wordpools/wasnorm_wordpool_576.txt	LTP285	ltpFR2	1	6	LACE	792	n/a	n/a	0	0	0
1219444	REC_WORD	wordpools/wasnorm_wordpool_576.txt	LTP285	ltpFR2	1	6	SILK	1307	n/a	n/a	0	0	0
1225719	REC_WORD	wordpools/wasnorm_wordpool_576.txt	LTP285	ltpFR2	1	6	TUNNEL	1519	n/a	n/a	0	0	0
1232856	REC_WORD	wordpools/wasnorm_wordpool_576.txt	LTP285	ltpFR2	1	6	FLASHLIGHT	575	n/a	n/a	0	0	0
1240688	REC_WORD	wordpools/wasnorm_wordpool_576.txt	LTP285	ltpFR2	1	6	TILE	1468	n/a	n/a	0	0	0
1241868	REC_WORD	wordpools/wasnorm_wordpool_576.txt	LTP285	ltpFR2	1	6	CEILING	265	n/a	n/a	0	0	0
1264492	REC_WORD	wordpools/wasnorm_wordpool_576.txt	LTP285	ltpFR2	1	6	BLOCKADE	137	n/a	n/a	0	0	0
1286230	DISTRACTOR	n/a	LTP285	ltpFR2	1	7	n/a	n/a	n/a	n/a	0	0	0
1286230	START	n/a	LTP285	ltpFR2	1	n/a	n/a	n/a	8	n/a	n/a	n/a	n/a
1286263	PROB	n/a	LTP285	ltpFR2	1	n/a	n/a	n/a	8	19	3	7	9
1287362	PROB	n/a	LTP285	ltpFR2	1	n/a	n/a	n/a	8	13	5	6	2
1288894	PROB	n/a	LTP285	ltpFR2	1	n/a	n/a	n/a	8	13	6	2	5
1290575	PROB	n/a	LTP285	ltpFR2	1	n/a	n/a	n/a	8	15	3	9	4
1292821	PROB	n/a	LTP285	ltpFR2	1	n/a	n/a	n/a	8	12	4	7	1
1294035	PROB	n/a	LTP285	ltpFR2	1	n/a	n/a	n/a	8	13	3	1	9
1295366	PROB	n/a	LTP285	ltpFR2	1	n/a	n/a	n/a	8	17	4	5	8
1296715	PROB	n/a	LTP285	ltpFR2	1	n/a	n/a	n/a	8	13	7	2	4
1298245	PROB	n/a	LTP285	ltpFR2	1	n/a	n/a	n/a	8	15	2	9	4
1299811	PROB	n/a	LTP285	ltpFR2	1	n/a	n/a	n/a	8	17	8	6	3
1301490	PROB	n/a	LTP285	ltpFR2	1	n/a	n/a	n/a	8	12	6	5	1
1302539	PROB	n/a	LTP285	ltpFR2	1	n/a	n/a	n/a	8	12	8	1	3
1304220	PROB	n/a	LTP285	ltpFR2	1	n/a	n/a	n/a	8	13	4	8	1
1305252	PROB	n/a	LTP285	ltpFR2	1	n/a	n/a	n/a	8	16	5	6	4
1306533	PROB	n/a	LTP285	ltpFR2	1	n/a	n/a	n/a	8	15	2	8	5
1307915	PROB	n/a	LTP285	ltpFR2	1	n/a	n/a	n/a	8	23	7	7	9
1309848	STOP	n/a	LTP285	ltpFR2	1	n/a	n/a	n/a	8	n/a	n/a	n/a	n/a
1311426	WORD	wordpools/wasnorm_wordpool_576.txt	LTP285	ltpFR2	1	7	PIGEON	1065	n/a	n/a	0	0	0
1314022	WORD	wordpools/wasnorm_wordpool_576.txt	LTP285	ltpFR2	1	7	STAMP	1370	n/a	n/a	0	0	0
1316685	WORD	wordpools/wasnorm_wordpool_576.txt	LTP285	ltpFR2	1	7	SLIME	1327	n/a	n/a	0	0	0
1319247	WORD	wordpools/wasnorm_wordpool_576.txt	LTP285	ltpFR2	1	7	SWIMMER	1420	n/a	n/a	0	0	0
1321928	WORD	wordpools/wasnorm_wordpool_576.txt	LTP285	ltpFR2	1	7	BROOK	177	n/a	n/a	0	0	0
1324624	WORD	wordpools/wasnorm_wordpool_576.txt	LTP285	ltpFR2	1	7	ARM	38	n/a	n/a	0	0	0
1327402	WORD	wordpools/wasnorm_wordpool_576.txt	LTP285	ltpFR2	1	7	ICING	732	n/a	n/a	0	0	0
1330181	WORD	wordpools/wasnorm_wordpool_576.txt	LTP285	ltpFR2	1	7	GUARD	667	n/a	n/a	0	0	0
1332861	WORD	wordpools/wasnorm_wordpool_576.txt	LTP285	ltpFR2	1	7	SCARECROW	1245	n/a	n/a	0	0	0
1335340	WORD	wordpools/wasnorm_wordpool_576.txt	LTP285	ltpFR2	1	7	PECAN	1036	n/a	n/a	0	0	0
1338119	WORD	wordpools/wasnorm_wordpool_576.txt	LTP285	ltpFR2	1	7	SUNRISE	1407	n/a	n/a	0	0	0
1340683	WORD	wordpools/wasnorm_wordpool_576.txt	LTP285	ltpFR2	1	7	SLOPE	1328	n/a	n/a	0	0	0
1343411	WORD	wordpools/wasnorm_wordpool_576.txt	LTP285	ltpFR2	1	7	BUCKET	184	n/a	n/a	0	0	0
1346074	WORD	wordpools/wasnorm_wordpool_576.txt	LTP285	ltpFR2	1	7	BUBBLE	183	n/a	n/a	0	0	0
1348837	WORD	wordpools/wasnorm_wordpool_576.txt	LTP285	ltpFR2	1	7	VAGRANT	1544	n/a	n/a	0	0	0
1351433	WORD	wordpools/wasnorm_wordpool_576.txt	LTP285	ltpFR2	1	7	SHOULDER	1294	n/a	n/a	0	0	0
1354045	WORD	wordpools/wasnorm_wordpool_576.txt	LTP285	ltpFR2	1	7	GRAVE	658	n/a	n/a	0	0	0
1356492	WORD	wordpools/wasnorm_wordpool_576.txt	LTP285	ltpFR2	1	7	WIDOW	1608	n/a	n/a	0	0	0
1358972	WORD	wordpools/wasnorm_wordpool_576.txt	LTP285	ltpFR2	1	7	MOTEL	919	n/a	n/a	0	0	0
1361434	WORD	wordpools/wasnorm_wordpool_576.txt	LTP285	ltpFR2	1	7	TURKEY	1520	n/a	n/a	0	0	0
1363865	WORD	wordpools/wasnorm_wordpool_576.txt	LTP285	ltpFR2	1	7	GRAPE	654	n/a	n/a	0	0	0
1366594	WORD	wordpools/wasnorm_wordpool_576.txt	LTP285	ltpFR2	1	7	SHORTCAKE	1292	n/a	n/a	0	0	0
1369090	WORD	wordpools/wasnorm_wordpool_576.txt	LTP285	ltpFR2	1	7	SUNSET	1408	n/a	n/a	0	0	0
1371653	WORD	wordpools/wasnorm_wordpool_576.txt	LTP285	ltpFR2	1	7	HERO	706	n/a	n/a	0	0	0
1373267	START	n/a	LTP285	ltpFR2	1	n/a	n/a	n/a	9	n/a	n/a	n/a	n/a
1374088	DISTRACTOR	n/a	LTP285	ltpFR2	1	7	n/a	n/a	n/a	n/a	0	0	0
1374099	PROB	n/a	LTP285	ltpFR2	1	n/a	n/a	n/a	9	15	1	6	8
1375914	PROB	n/a	LTP285	ltpFR2	1	n/a	n/a	n/a	9	1	2	4	4
1377311	PROB	n/a	LTP285	ltpFR2	1	n/a	n/a	n/a	9	13	3	4	6
1379075	PROB	n/a	LTP285	ltpFR2	1	n/a	n/a	n/a	9	4	1	2	1
1380106	PROB	n/a	LTP285	ltpFR2	1	n/a	n/a	n/a	9	16	7	5	4
1381622	PROB	n/a	LTP285	ltpFR2	1	n/a	n/a	n/a	9	8	4	3	1
1382737	PROB	n/a	LTP285	ltpFR2	1	n/a	n/a	n/a	9	14	4	5	5
1384117	PROB	n/a	LTP285	ltpFR2	1	n/a	n/a	n/a	9	22	8	7	7
1385515	PROB	n/a	LTP285	ltpFR2	1	n/a	n/a	n/a	9	11	4	6	1
1386514	PROB	n/a	LTP285	ltpFR2	1	n/a	n/a	n/a	9	9	2	4	3
1388161	PROB	n/a	LTP285	ltpFR2	1	n/a	n/a	n/a	9	10	5	1	4
1390191	PROB	n/a	LTP285	ltpFR2	1	n/a	n/a	n/a	9	13	4	6	3
1391240	PROB	n/a	LTP285	ltpFR2	1	n/a	n/a	n/a	9	21	9	8	4
1394219	PROB	n/a	LTP285	ltpFR2	1	n/a	n/a	n/a	9	14	6	4	4
1395752	STOP	n/a	LTP285	ltpFR2	1	n/a	n/a	n/a	9	n/a	n/a	n/a	n/a
1399029	REC_START	n/a	LTP285	ltpFR2	1	7	n/a	n/a	n/a	n/a	0	0	0
1399614	REC_WORD	wordpools/wasnorm_wordpool_576.txt	LTP285	ltpFR2	1	7	SUNRISE	1407	n/a	n/a	0	0	0
1400514	REC_WORD	wordpools/wasnorm_wordpool_576.txt	LTP285	ltpFR2	1	7	SUNSET	1408	n/a	n/a	0	0	0
1401951	REC_WORD	wordpools/wasnorm_wordpool_576.txt	LTP285	ltpFR2	1	7	HERO	706	n/a	n/a	0	0	0
1403469	REC_WORD	wordpools/wasnorm_wordpool_576.txt	LTP285	ltpFR2	1	7	TURKEY	1520	n/a	n/a	0	0	0
1405881	REC_WORD	wordpools/wasnorm_wordpool_576.txt	LTP285	ltpFR2	1	7	GRAPE	654	n/a	n/a	0	0	0
1407097	REC_WORD	wordpools/wasnorm_wordpool_576.txt	LTP285	ltpFR2	1	7	SHORTCAKE	1292	n/a	n/a	0	0	0
1429168	REC_WORD	wordpools/wasnorm_wordpool_576.txt	LTP285	ltpFR2	1	7	SWIMMER	1420	n/a	n/a	0	0	0
1430685	REC_WORD	wordpools/wasnorm_wordpool_576.txt	LTP285	ltpFR2	1	7	GUARD	667	n/a	n/a	0	0	0
1442472	REC_WORD	wordpools/wasnorm_wordpool_576.txt	LTP285	ltpFR2	1	7	SCARECROW	1245	n/a	n/a	0	0	0
1445386	REC_WORD	wordpools/wasnorm_wordpool_576.txt	LTP285	ltpFR2	1	7	ARM	38	n/a	n/a	0	0	0
1446331	REC_WORD	wordpools/wasnorm_wordpool_576.txt	LTP285	ltpFR2	1	7	SHOULDER	1294	n/a	n/a	0	0	0
1489694	DISTRACTOR	n/a	LTP285	ltpFR2	1	8	n/a	n/a	n/a	n/a	0	0	0
1489694	START	n/a	LTP285	ltpFR2	1	n/a	n/a	n/a	10	n/a	n/a	n/a	n/a
1489727	PROB	n/a	LTP285	ltpFR2	1	n/a	n/a	n/a	10	14	3	9	2
1491540	PROB	n/a	LTP285	ltpFR2	1	n/a	n/a	n/a	10	16	3	9	4
1493838	PROB	n/a	LTP285	ltpFR2	1	n/a	n/a	n/a	10	12	3	6	3
1495768	PROB	n/a	LTP285	ltpFR2	1	n/a	n/a	n/a	10	12	7	2	3
1496983	PROB	n/a	LTP285	ltpFR2	1	n/a	n/a	n/a	10	19	9	1	9
1498147	PROB	n/a	LTP285	ltpFR2	1	n/a	n/a	n/a	10	18	7	7	4
1499895	PROB	n/a	LTP285	ltpFR2	1	n/a	n/a	n/a	10	16	3	4	9
1501226	PROB	n/a	LTP285	ltpFR2	1	n/a	n/a	n/a	10	18	8	6	4
1503006	PROB	n/a	LTP285	ltpFR2	1	n/a	n/a	n/a	10	11	2	2	7
1504254	PROB	n/a	LTP285	ltpFR2	1	n/a	n/a	n/a	10	9	5	2	2
1505803	PROB	n/a	LTP285	ltpFR2	1	n/a	n/a	n/a	10	8	6	1	1
1506968	PROB	n/a	LTP285	ltpFR2	1	n/a	n/a	n/a	10	9	6	2	1
1508265	PROB	n/a	LTP285	ltpFR2	1	n/a	n/a	n/a	10	14	6	7	1
1509930	PROB	n/a	LTP285	ltpFR2	1	n/a	n/a	n/a	10	14	3	9	2
1512535	STOP	n/a	LTP285	ltpFR2	1	n/a	n/a	n/a	10	n/a	n/a	n/a	n/a
1514723	WORD	wordpools/wasnorm_wordpool_576.txt	LTP285	ltpFR2	1	8	SPHINX	1349	n/a	n/a	0	0	0
1517185	WORD	wordpools/wasnorm_wordpool_576.txt	LTP285	ltpFR2	1	8	LAPEL	800	n/a	n/a	0	0	0
1519832	WORD	wordpools/wasnorm_wordpool_576.txt	LTP285	ltpFR2	1	8	HAMPER	682	n/a	n/a	0	0	0
1522544	WORD	wordpools/wasnorm_wordpool_576.txt	LTP285	ltpFR2	1	8	SCISSORS	1250	n/a	n/a	0	0	0
1525057	WORD	wordpools/wasnorm_wordpool_576.txt	LTP285	ltpFR2	1	8	JOURNAL	760	n/a	n/a	0	0	0
1527804	WORD	wordpools/wasnorm_wordpool_576.txt	LTP285	ltpFR2	1	8	SAUSAGE	1238	n/a	n/a	0	0	0
1530415	WORD	wordpools/wasnorm_wordpool_576.txt	LTP285	ltpFR2	1	8	SHIRT	1287	n/a	n/a	0	0	0
1533145	WORD	wordpools/wasnorm_wordpool_576.txt	LTP285	ltpFR2	1	8	PLAID	1080	n/a	n/a	0	0	0
1535592	WORD	wordpools/wasnorm_wordpool_576.txt	LTP285	ltpFR2	1	8	MILDEW	893	n/a	n/a	0	0	0
1538021	WORD	wordpools/wasnorm_wordpool_576.txt	LTP285	ltpFR2	1	8	FOREST	593	n/a	n/a	0	0	0
1540500	WORD	wordpools/wasnorm_wordpool_576.txt	LTP285	ltpFR2	1	8	PORK	1108	n/a	n/a	0	0	0
1543279	WORD	wordpools/wasnorm_wordpool_576.txt	LTP285	ltpFR2	1	8	STAR	1373	n/a	n/a	0	0	0
1545710	WORD	wordpools/wasnorm_wordpool_576.txt	LTP285	ltpFR2	1	8	TORTOISE	1486	n/a	n/a	0	0	0
1548255	WORD	wordpools/wasnorm_wordpool_576.txt	LTP285	ltpFR2	1	8	GHETTO	633	n/a	n/a	0	0	0
1550786	WORD	wordpools/wasnorm_wordpool_576.txt	LTP285	ltpFR2	1	8	SERVANT	1271	n/a	n/a	0	0	0
1553414	WORD	wordpools/wasnorm_wordpool_576.txt	LTP285	ltpFR2	1	8	PICTURE	1061	n/a	n/a	0	0	0
1556194	WORD	wordpools/wasnorm_wordpool_576.txt	LTP285	ltpFR2	1	8	PANTHER	1009	n/a	n/a	0	0	0
1558841	WORD	wordpools/wasnorm_wordpool_576.txt	LTP285	ltpFR2	1	8	ARMY	39	n/a	n/a	0	0	0
1561386	WORD	wordpools/wasnorm_wordpool_576.txt	LTP285	ltpFR2	1	8	ACTOR	5	n/a	n/a	0	0	0
1564015	WORD	wordpools/wasnorm_wordpool_576.txt	LTP285	ltpFR2	1	8	COTTAGE	384	n/a	n/a	0	0	0
1566646	WORD	wordpools/wasnorm_wordpool_576.txt	LTP285	ltpFR2	1	8	BLUEPRINT	142	n/a	n/a	0	0	0
1569374	WORD	wordpools/wasnorm_wordpool_576.txt	LTP285	ltpFR2	1	8	PATROL	1027	n/a	n/a	0	0	0
1572136	WORD	wordpools/wasnorm_wordpool_576.txt	LTP285	ltpFR2	1	8	GARDEN	623	n/a	n/a	0	0	0
1574900	WORD	wordpools/wasnorm_wordpool_576.txt	LTP285	ltpFR2	1	8	ORCHID	982	n/a	n/a	0	0	0
1576513	START	n/a	LTP285	ltpFR2	1	n/a	n/a	n/a	11	n/a	n/a	n/a	n/a
1577515	DISTRACTOR	n/a	LTP285	ltpFR2	1	8	n/a	n/a	n/a	n/a	0	0	0
1577528	PROB	n/a	LTP285	ltpFR2	1	n/a	n/a	n/a	11	12	2	1	9
1578944	PROB	n/a	LTP285	ltpFR2	1	n/a	n/a	n/a	11	15	7	1	7
1579876	PROB	n/a	LTP285	ltpFR2	1	n/a	n/a	n/a	11	24	7	8	9
1581756	PROB	n/a	LTP285	ltpFR2	1	n/a	n/a	n/a	11	20	6	8	6
1583570	PROB	n/a	LTP285	ltpFR2	1	n/a	n/a	n/a	11	16	8	1	7
1584835	PROB	n/a	LTP285	ltpFR2	1	n/a	n/a	n/a	11	17	4	5	8
1586249	PROB	n/a	LTP285	ltpFR2	1	n/a	n/a	n/a	11	19	6	5	8
1587847	PROB	n/a	LTP285	ltpFR2	1	n/a	n/a	n/a	11	15	1	7	7
1588812	PROB	n/a	LTP285	ltpFR2	1	n/a	n/a	n/a	11	18	6	8	4
1590643	PROB	n/a	LTP285	ltpFR2	1	n/a	n/a	n/a	11	15	3	3	9
1592574	PROB	n/a	LTP285	ltpFR2	1	n/a	n/a	n/a	11	14	2	4	8
1594536	PROB	n/a	LTP285	ltpFR2	1	n/a	n/a	n/a	11	5	3	1	1
1595518	PROB	n/a	LTP285	ltpFR2	1	n/a	n/a	n/a	11	23	9	9	5
1597683	PROB	n/a	LTP285	ltpFR2	1	n/a	n/a	n/a	11	15	8	4	3
1599560	STOP	n/a	LTP285	ltpFR2	1	n/a	n/a	n/a	11	n/a	n/a	n/a	n/a
1602275	REC_START	n/a	LTP285	ltpFR2	1	8	n/a	n/a	n/a	n/a	0	0	0
1603319	REC_WORD	wordpools/wasnorm_wordpool_576.txt	LTP285	ltpFR2	1	8	ARMY	39	n/a	n/a	0	0	0
1604249	REC_WORD	wordpools/wasnorm_wordpool_576.txt	LTP285	ltpFR2	1	8	PATROL	1027	n/a	n/a	0	0	0
1605788	REC_WORD	wordpools/wasnorm_wordpool_576.txt	LTP285	ltpFR2	1	8	GHETTO	633	n/a	n/a	0	0	0
1606843	REC_WORD_VV	wordpools/wasnorm_wordpool_576.txt	LTP285	ltpFR2	1	8	<>	-1	n/a	n/a	0	0	0
1607784	REC_WORD_VV	wordpools/wasnorm_wordpool_576.txt	LTP285	ltpFR2	1	8	<>	-1	n/a	n/a	0	0	0
1608299	REC_WORD	wordpools/wasnorm_wordpool_576.txt	LTP285	ltpFR2	1	8	COTTAGE	384	n/a	n/a	0	0	0
1609668	REC_WORD	wordpools/wasnorm_wordpool_576.txt	LTP285	ltpFR2	1	8	BLUEPRINT	142	n/a	n/a	0	0	0
1610889	REC_WORD	wordpools/wasnorm_wordpool_576.txt	LTP285	ltpFR2	1	8	GARDEN	623	n/a	n/a	0	0	0
1611919	REC_WORD	wordpools/wasnorm_wordpool_576.txt	LTP285	ltpFR2	1	8	ORCHID	982	n/a	n/a	0	0	0
1615575	REC_WORD	wordpools/wasnorm_wordpool_576.txt	LTP285	ltpFR2	1	8	PANTHER	1009	n/a	n/a	0	0	0
1618486	REC_WORD	wordpools/wasnorm_wordpool_576.txt	LTP285	ltpFR2	1	8	SAUSAGE	1238	n/a	n/a	0	0	0
1619909	REC_WORD	wordpools/wasnorm_wordpool_576.txt	LTP285	ltpFR2	1	8	PORK	1108	n/a	n/a	0	0	0
1633988	REC_WORD	wordpools/wasnorm_wordpool_576.txt	LTP285	ltpFR2	1	8	LAPEL	800	n/a	n/a	0	0	0
1665629	REC_WORD	wordpools/wasnorm_wordpool_576.txt	LTP285	ltpFR2	1	8	SCISSORS	1250	n/a	n/a	0	0	0
1678911	REST_REWET	n/a	LTP285	ltpFR2	1	8	n/a	n/a	n/a	n/a	0	0	0
2093225	WORD	wordpools/wasnorm_wordpool_576.txt	LTP285	ltpFR2	1	9	FRAME	600	n/a	n/a	0	0	0
2095689	WORD	wordpools/wasnorm_wordpool_576.txt	LTP285	ltpFR2	1	9	OZONE	996	n/a	n/a	0	0	0
2098517	WORD	wordpools/wasnorm_wordpool_576.txt	LTP285	ltpFR2	1	9	TYPIST	1532	n/a	n/a	0	0	0
2101246	WORD	wordpools/wasnorm_wordpool_576.txt	LTP285	ltpFR2	1	9	MARKET	871	n/a	n/a	0	0	0
2103677	WORD	wordpools/wasnorm_wordpool_576.txt	LTP285	ltpFR2	1	9	TROUT	1511	n/a	n/a	0	0	0
2106139	WORD	wordpools/wasnorm_wordpool_576.txt	LTP285	ltpFR2	1	9	STICKER	1382	n/a	n/a	0	0	0
2108786	WORD	wordpools/wasnorm_wordpool_576.txt	LTP285	ltpFR2	1	9	THREAD	1460	n/a	n/a	0	0	0
2111464	WORD	wordpools/wasnorm_wordpool_576.txt	LTP285	ltpFR2	1	9	NAPKIN	937	n/a	n/a	0	0	0
2113962	WORD	wordpools/wasnorm_wordpool_576.txt	LTP285	ltpFR2	1	9	LION	827	n/a	n/a	0	0	0
2116575	WORD	wordpools/wasnorm_wordpool_576.txt	LTP285	ltpFR2	1	9	SPOOL	1356	n/a	n/a	0	0	0
2119369	WORD	wordpools/wasnorm_wordpool_576.txt	LTP285	ltpFR2	1	9	ACTRESS	6	n/a	n/a	0	0	0
2122149	WORD	wordpools/wasnorm_wordpool_576.txt	LTP285	ltpFR2	1	9	POPCORN	1104	n/a	n/a	0	0	0
2124846	WORD	wordpools/wasnorm_wordpool_576.txt	LTP285	ltpFR2	1	9	PREACHER	1119	n/a	n/a	0	0	0
2127341	WORD	wordpools/wasnorm_wordpool_576.txt	LTP285	ltpFR2	1	9	FRIAR	605	n/a	n/a	0	0	0
2129971	WORD	wordpools/wasnorm_wordpool_576.txt	LTP285	ltpFR2	1	9	RUST	1219	n/a	n/a	0	0	0
2132784	WORD	wordpools/wasnorm_wordpool_576.txt	LTP285	ltpFR2	1	9	BEAST	108	n/a	n/a	0	0	0
2135596	WORD	wordpools/wasnorm_wordpool_576.txt	LTP285	ltpFR2	1	9	BUREAU	199	n/a	n/a	0	0	0
2138374	WORD	wordpools/wasnorm_wordpool_576.txt	LTP285	ltpFR2	1	9	INFANT	737	n/a	n/a	0	0	0
2140905	WORD	wordpools/wasnorm_wordpool_576.txt	LTP285	ltpFR2	1	9	MAMMAL	861	n/a	n/a	0	0	0
2143618	WORD	wordpools/wasnorm_wordpool_576.txt	LTP285	ltpFR2	1	9	TART	1436	n/a	n/a	0	0	0
2146313	WORD	wordpools/wasnorm_wordpool_576.txt	LTP285	ltpFR2	1	9	GLOBE	641	n/a	n/a	0	0	0
2148992	WORD	wordpools/wasnorm_wordpool_576.txt	LTP285	ltpFR2	1	9	GAVEL	627	n/a	n/a	0	0	0
2151505	WORD	wordpools/wasnorm_wordpool_576.txt	LTP285	ltpFR2	1	9	BISON	131	n/a	n/a	0	0	0
2154051	WORD	wordpools/wasnorm_wordpool_576.txt	LTP285	ltpFR2	1	9	VALLEY	1545	n/a	n/a	0	0	0
2155666	START	n/a	LTP285	ltpFR2	1	n/a	n/a	n/a	12	n/a	n/a	n/a	n/a
2156503	DISTRACTOR	n/a	LTP285	ltpFR2	1	9	n/a	n/a	n/a	n/a	0	0	0
2156514	PROB	n/a	LTP285	ltpFR2	1	n/a	n/a	n/a	12	7	2	1	4
2159694	PROB	n/a	LTP285	ltpFR2	1	n/a	n/a	n/a	12	13	1	7	5
2162139	PROB	n/a	LTP285	ltpFR2	1	n/a	n/a	n/a	12	1	1	3	9
2163688	PROB	n/a	LTP285	ltpFR2	1	n/a	n/a	n/a	12	9	2	3	4
2165251	PROB	n/a	LTP285	ltpFR2	1	n/a	n/a	n/a	12	19	8	2	9
2166349	PROB	n/a	LTP285	ltpFR2	1	n/a	n/a	n/a	12	18	5	6	7
2167831	PROB	n/a	LTP285	ltpFR2	1	n/a	n/a	n/a	12	12	3	8	1
2169095	PROB	n/a	LTP285	ltpFR2	1	n/a	n/a	n/a	12	19	7	9	3
2171692	PROB	n/a	LTP285	ltpFR2	1	n/a	n/a	n/a	12	9	4	4	1
2173122	PROB	n/a	LTP285	ltpFR2	1	n/a	n/a	n/a	12	9	4	4	1
2173922	PROB	n/a	LTP285	ltpFR2	1	n/a	n/a	n/a	12	13	5	3	4
2176101	PROB	n/a	LTP285	ltpFR2	1	n/a	n/a	n/a	12	19	7	4	8
2177567	PROB	n/a	LTP285	ltpFR2	1	n/a	n/a	n/a	12	8	2	5	1
2178672	STOP	n/a	LTP285	ltpFR2	1	n/a	n/a	n/a	12	n/a	n/a	n/a	n/a
2181477	REC_START	n/a	LTP285	ltpFR2	1	9	n/a	n/a	n/a	n/a	0	0	0
2182530	REC_WORD	wordpools/wasnorm_wordpool_576.txt	LTP285	ltpFR2	1	9	GAVEL	627	n/a	n/a	0	0	0
2183832	REC_WORD	wordpools/wasnorm_wordpool_576.txt	LTP285	ltpFR2	1	9	GLOBE	641	n/a	n/a	0	0	0
2186199	REC_WORD	wordpools/wasnorm_wordpool_576.txt	LTP285	ltpFR2	1	9	TROUT	1511	n/a	n/a	0	0	0
2187798	REC_WORD	wordpools/wasnorm_wordpool_576.txt	LTP285	ltpFR2	1	9	MARKET	871	n/a	n/a	0	0	0
2189383	REC_WORD	wordpools/wasnorm_wordpool_576.txt	LTP285	ltpFR2	1	9	OZONE	996	n/a	n/a	0	0	0
2190619	REC_WORD	wordpools/wasnorm_wordpool_576.txt	LTP285	ltpFR2	1	9	FRAME	600	n/a	n/a	0	0	0
2196988	REC_WORD	wordpools/wasnorm_wordpool_576.txt	LTP285	ltpFR2	1	9	BISON	131	n/a	n/a	0	0	0
2208652	REC_WORD	wordpools/wasnorm_wordpool_576.txt	LTP285	ltpFR2	1	9	RUST	1219	n/a	n/a	0	0	0
2210159	REC_WORD	wordpools/wasnorm_wordpool_576.txt	LTP285	ltpFR2	1	9	MAMMAL	861	n/a	n/a	0	0	0
2214890	REC_WORD	wordpools/wasnorm_wordpool_576.txt	LTP285	ltpFR2	1	9	INFANT	737	n/a	n/a	0	0	0
2242778	REC_WORD	wordpools/wasnorm_wordpool_576.txt	LTP285	ltpFR2	1	9	ACTRESS	6	n/a	n/a	0	0	0
2272108	DISTRACTOR	n/a	LTP285	ltpFR2	1	10	n/a	n/a	n/a	n/a	0	0	0
2272108	START	n/a	LTP285	ltpFR2	1	n/a	n/a	n/a	13	n/a	n/a	n/a	n/a
2272141	PROB	n/a	LTP285	ltpFR2	1	n/a	n/a	n/a	13	19	7	9	3
2273873	PROB	n/a	LTP285	ltpFR2	1	n/a	n/a	n/a	13	15	7	5	3
2275654	PROB	n/a	LTP285	ltpFR2	1	n/a	n/a	n/a	13	24	8	8	8
2277517	PROB	n/a	LTP285	ltpFR2	1	n/a	n/a	n/a	13	12	2	3	7
2279814	PROB	n/a	LTP285	ltpFR2	1	n/a	n/a	n/a	13	10	5	4	1
2281795	PROB	n/a	LTP285	ltpFR2	1	n/a	n/a	n/a	13	12	7	1	4
2282926	PROB	n/a	LTP285	ltpFR2	1	n/a	n/a	n/a	13	14	9	2	3
2284356	PROB	n/a	LTP285	ltpFR2	1	n/a	n/a	n/a	13	8	1	4	3
2286070	PROB	n/a	LTP285	ltpFR2	1	n/a	n/a	n/a	13	10	6	2	2
2287402	PROB	n/a	LTP285	ltpFR2	1	n/a	n/a	n/a	13	14	5	1	8
2289116	PROB	n/a	LTP285	ltpFR2	1	n/a	n/a	n/a	13	16	5	2	9
2290864	PROB	n/a	LTP285	ltpFR2	1	n/a	n/a	n/a	13	12	2	8	2
2292012	PROB	n/a	LTP285	ltpFR2	1	n/a	n/a	n/a	13	15	3	4	8
2293243	PROB	n/a	LTP285	ltpFR2	1	n/a	n/a	n/a	13	17	8	1	8
2296108	STOP	n/a	LTP285	ltpFR2	1	n/a	n/a	n/a	13	n/a	n/a	n/a	n/a
2296987	WORD	wordpools/wasnorm_wordpool_576.txt	LTP285	ltpFR2	1	10	LIZARD	834	n/a	n/a	0	0	0
2299784	WORD	wordpools/wasnorm_wordpool_576.txt	LTP285	ltpFR2	1	10	SNAKE	1333	n/a	n/a	0	0	0
2302280	WORD	wordpools/wasnorm_wordpool_576.txt	LTP285	ltpFR2	1	10	PEACH	1031	n/a	n/a	0	0	0
2304744	WORD	wordpools/wasnorm_wordpool_576.txt	LTP285	ltpFR2	1	10	JAPAN	749	n/a	n/a	0	0	0
2307556	WORD	wordpools/wasnorm_wordpool_576.txt	LTP285	ltpFR2	1	10	ISLAND	745	n/a	n/a	0	0	0
2310234	WORD	wordpools/wasnorm_wordpool_576.txt	LTP285	ltpFR2	1	10	HARP	689	n/a	n/a	0	0	0
2312798	WORD	wordpools/wasnorm_wordpool_576.txt	LTP285	ltpFR2	1	10	BLADE	134	n/a	n/a	0	0	0
2315627	WORD	wordpools/wasnorm_wordpool_576.txt	LTP285	ltpFR2	1	10	ROBOT	1200	n/a	n/a	0	0	0
2318156	WORD	wordpools/wasnorm_wordpool_576.txt	LTP285	ltpFR2	1	10	PIANO	1057	n/a	n/a	0	0	0
2320687	WORD	wordpools/wasnorm_wordpool_576.txt	LTP285	ltpFR2	1	10	ORANGE	980	n/a	n/a	0	0	0
2323332	WORD	wordpools/wasnorm_wordpool_576.txt	LTP285	ltpFR2	1	10	ONION	977	n/a	n/a	0	0	0
2325845	WORD	wordpools/wasnorm_wordpool_576.txt	LTP285	ltpFR2	1	10	GARLIC	624	n/a	n/a	0	0	0
2328374	WORD	wordpools/wasnorm_wordpool_576.txt	LTP285	ltpFR2	1	10	LAVA	804	n/a	n/a	0	0	0
2331020	WORD	wordpools/wasnorm_wordpool_576.txt	LTP285	ltpFR2	1	10	PUPPY	1144	n/a	n/a	0	0	0
2333750	WORD	wordpools/wasnorm_wordpool_576.txt	LTP285	ltpFR2	1	10	AWARD	63	n/a	n/a	0	0	0
2336545	WORD	wordpools/wasnorm_wordpool_576.txt	LTP285	ltpFR2	1	10	SALMON	1227	n/a	n/a	0	0	0
2339208	WORD	wordpools/wasnorm_wordpool_576.txt	LTP285	ltpFR2	1	10	HUSBAND	728	n/a	n/a	0	0	0
2341987	WORD	wordpools/wasnorm_wordpool_576.txt	LTP285	ltpFR2	1	10	NURSE	963	n/a	n/a	0	0	0
2344450	WORD	wordpools/wasnorm_wordpool_576.txt	LTP285	ltpFR2	1	10	FRECKLE	602	n/a	n/a	0	0	0
2346914	WORD	wordpools/wasnorm_wordpool_576.txt	LTP285	ltpFR2	1	10	BRIEFCASE	175	n/a	n/a	0	0	0
2349610	WORD	wordpools/wasnorm_wordpool_576.txt	LTP285	ltpFR2	1	10	MATCH	878	n/a	n/a	0	0	0
2352105	WORD	wordpools/wasnorm_wordpool_576.txt	LTP285	ltpFR2	1	10	MEDAL	885	n/a	n/a	0	0	0
2354602	WORD	wordpools/wasnorm_wordpool_576.txt	LTP285	ltpFR2	1	10	FLIPPER	580	n/a	n/a	0	0	0
2357264	WORD	wordpools/wasnorm_wordpool_576.txt	LTP285	ltpFR2	1	10	POET	1095	n/a	n/a	0	0	0
2358880	START	n/a	LTP285	ltpFR2	1	n/a	n/a	n/a	14	n/a	n/a	n/a	n/a
2359697	DISTRACTOR	n/a	LTP285	ltpFR2	1	10	n/a	n/a	n/a	n/a	0	0	0
2359712	PROB	n/a	LTP285	ltpFR2	1	n/a	n/a	n/a	14	18	3	8	6
2361441	PROB	n/a	LTP285	ltpFR2	1	n/a	n/a	n/a	14	18	6	6	6
2362907	PROB	n/a	LTP285	ltpFR2	1	n/a	n/a	n/a	14	24	7	9	8
2365219	PROB	n/a	LTP285	ltpFR2	1	n/a	n/a	n/a	14	19	7	9	3
2366367	PROB	n/a	LTP285	ltpFR2	1	n/a	n/a	n/a	14	9	1	6	2
2367366	PROB	n/a	LTP285	ltpFR2	1	n/a	n/a	n/a	14	17	7	5	5
2368582	PROB	n/a	LTP285	ltpFR2	1	n/a	n/a	n/a	14	11	7	3	1
2370178	PROB	n/a	LTP285	ltpFR2	1	n/a	n/a	n/a	14	19	8	3	7
2371877	PROB	n/a	LTP285	ltpFR2	1	n/a	n/a	n/a	14	13	7	2	4
2373490	PROB	n/a	LTP285	ltpFR2	1	n/a	n/a	n/a	14	17	3	7	7
2375054	PROB	n/a	LTP285	ltpFR2	1	n/a	n/a	n/a	14	17	3	5	9
2376736	PROB	n/a	LTP285	ltpFR2	1	n/a	n/a	n/a	14	17	5	8	4
2379598	PROB	n/a	LTP285	ltpFR2	1	n/a	n/a	n/a	14	8	3	2	3
2381319	STOP	n/a	LTP285	ltpFR2	1	n/a	n/a	n/a	14	n/a	n/a	n/a	n/a
2384642	REC_START	n/a	LTP285	ltpFR2	1	10	n/a	n/a	n/a	n/a	0	0	0
2386513	REC_WORD	wordpools/wasnorm_wordpool_576.txt	LTP285	ltpFR2	1	10	POET	1095	n/a	n/a	0	0	0
2388585	REC_WORD	wordpools/wasnorm_wordpool_576.txt	LTP285	ltpFR2	1	10	ONION	977	n/a	n/a	0	0	0
2389488	REC_WORD	wordpools/wasnorm_wordpool_576.txt	LTP285	ltpFR2	1	10	GARLIC	624	n/a	n/a	0	0	0
2390949	REC_WORD	wordpools/wasnorm_wordpool_576.txt	LTP285	ltpFR2	1	10	ORANGE	980	n/a	n/a	0	0	0
2392060	REC_WORD	wordpools/wasnorm_wordpool_576.txt	LTP285	ltpFR2	1	10	PEACH	1031	n/a	n/a	0	0	0
2393174	REC_WORD	wordpools/wasnorm_wordpool_576.txt	LTP285	ltpFR2	1	10	SALMON	1227	n/a	n/a	0	0	0
2395583	REC_WORD	wordpools/wasnorm_wordpool_576.txt	LTP285	ltpFR2	1	10	HARP	689	n/a	n/a	0	0	0
2396919	REC_WORD	wordpools/wasnorm_wordpool_576.txt	LTP285	ltpFR2	1	10	PIANO	1057	n/a	n/a	0	0	0
2403482	REC_WORD	wordpools/wasnorm_wordpool_576.txt	LTP285	ltpFR2	1	10	MATCH	878	n/a	n/a	0	0	0
2411722	REC_WORD	wordpools/wasnorm_wordpool_576.txt	LTP285	ltpFR2	1	10	LAVA	804	n/a	n/a	0	0	0
2413054	REC_WORD	wordpools/wasnorm_wordpool_576.txt	LTP285	ltpFR2	1	10	JAPAN	749	n/a	n/a	0	0	0
2414426	REC_WORD	wordpools/wasnorm_wordpool_576.txt	LTP285	ltpFR2	1	10	ISLAND	745	n/a	n/a	0	0	0
2417635	REC_WORD	wordpools/wasnorm_wordpool_576.txt	LTP285	ltpFR2	1	10	BLADE	134	n/a	n/a	0	0	0
2441959	REC_WORD	wordpools/wasnorm_wordpool_576.txt	LTP285	ltpFR2	1	10	AWARD	63	n/a	n/a	0	0	0
2443215	REC_WORD	wordpools/wasnorm_wordpool_576.txt	LTP285	ltpFR2	1	10	MEDAL	885	n/a	n/a	0	0	0
2453242	REC_WORD	wordpools/wasnorm_wordpool_576.txt	LTP285	ltpFR2	1	10	HUSBAND	728	n/a	n/a	0	0	0
2456127	REC_WORD	wordpools/wasnorm_wordpool_576.txt	LTP285	ltpFR2	1	10	NURSE	963	n/a	n/a	0	0	0
2475271	DISTRACTOR	n/a	LTP285	ltpFR2	1	11	n/a	n/a	n/a	n/a	0	0	0
2475272	START	n/a	LTP285	ltpFR2	1	n/a	n/a	n/a	15	n/a	n/a	n/a	n/a
2475305	PROB	n/a	LTP285	ltpFR2	1	n/a	n/a	n/a	15	18	9	6	3
2477685	PROB	n/a	LTP285	ltpFR2	1	n/a	n/a	n/a	15	16	6	2	8
2480464	PROB	n/a	LTP285	ltpFR2	1	n/a	n/a	n/a	15	8	5	2	1
2481962	PROB	n/a	LTP285	ltpFR2	1	n/a	n/a	n/a	15	14	9	1	4
2483160	PROB	n/a	LTP285	ltpFR2	1	n/a	n/a	n/a	15	11	5	5	1
2484125	PROB	n/a	LTP285	ltpFR2	1	n/a	n/a	n/a	15	14	7	6	1
2486205	PROB	n/a	LTP285	ltpFR2	1	n/a	n/a	n/a	15	13	7	2	4
2488769	PROB	n/a	LTP285	ltpFR2	1	n/a	n/a	n/a	15	7	5	1	1
2489851	PROB	n/a	LTP285	ltpFR2	1	n/a	n/a	n/a	15	17	6	4	7
2490882	PROB	n/a	LTP285	ltpFR2	1	n/a	n/a	n/a	15	13	3	2	7
2492363	PROB	n/a	LTP285	ltpFR2	1	n/a	n/a	n/a	15	14	4	1	9
2494193	PROB	n/a	LTP285	ltpFR2	1	n/a	n/a	n/a	15	21	7	5	9
2496740	PROB	n/a	LTP285	ltpFR2	1	n/a	n/a	n/a	15	14	7	6	1
2498239	STOP	n/a	LTP285	ltpFR2	1	n/a	n/a	n/a	15	n/a	n/a	n/a	n/a
2500267	WORD	wordpools/wasnorm_wordpool_576.txt	LTP285	ltpFR2	1	11	DIME	466	n/a	n/a	0	0	0
2503097	WORD	wordpools/wasnorm_wordpool_576.txt	LTP285	ltpFR2	1	11	COFFEE	341	n/a	n/a	0	0	0
2505793	WORD	wordpools/wasnorm_wordpool_576.txt	LTP285	ltpFR2	1	11	CAFE	216	n/a	n/a	0	0	0
2508472	WORD	wordpools/wasnorm_wordpool_576.txt	LTP285	ltpFR2	1	11	MASK	876	n/a	n/a	0	0	0
2511168	WORD	wordpools/wasnorm_wordpool_576.txt	LTP285	ltpFR2	1	11	SHERIFF	1284	n/a	n/a	0	0	0
2513898	WORD	wordpools/wasnorm_wordpool_576.txt	LTP285	ltpFR2	1	11	DRAWING	494	n/a	n/a	0	0	0
2516611	WORD	wordpools/wasnorm_wordpool_576.txt	LTP285	ltpFR2	1	11	PIGMENT	1066	n/a	n/a	0	0	0
2519206	WORD	wordpools/wasnorm_wordpool_576.txt	LTP285	ltpFR2	1	11	BELLY	119	n/a	n/a	0	0	0
2521903	WORD	wordpools/wasnorm_wordpool_576.txt	LTP285	ltpFR2	1	11	STOMACH	1384	n/a	n/a	0	0	0
2524448	WORD	wordpools/wasnorm_wordpool_576.txt	LTP285	ltpFR2	1	11	MARROW	872	n/a	n/a	0	0	0
2526945	WORD	wordpools/wasnorm_wordpool_576.txt	LTP285	ltpFR2	1	11	CASKET	255	n/a	n/a	0	0	0
2529758	WORD	wordpools/wasnorm_wordpool_576.txt	LTP285	ltpFR2	1	11	MATTRESS	879	n/a	n/a	0	0	0
2532319	WORD	wordpools/wasnorm_wordpool_576.txt	LTP285	ltpFR2	1	11	KETCHUP	771	n/a	n/a	0	0	0
2534800	WORD	wordpools/wasnorm_wordpool_576.txt	LTP285	ltpFR2	1	11	POLICE	1098	n/a	n/a	0	0	0
2537579	WORD	wordpools/wasnorm_wordpool_576.txt	LTP285	ltpFR2	1	11	TUBA	1515	n/a	n/a	0	0	0
2540025	WORD	wordpools/wasnorm_wordpool_576.txt	LTP285	ltpFR2	1	11	PLIERS	1089	n/a	n/a	0	0	0
2542822	WORD	wordpools/wasnorm_wordpool_576.txt	LTP285	ltpFR2	1	11	PEANUT	1032	n/a	n/a	0	0	0
2545533	WORD	wordpools/wasnorm_wordpool_576.txt	LTP285	ltpFR2	1	11	NECKLACE	940	n/a	n/a	0	0	0
2548162	WORD	wordpools/wasnorm_wordpool_576.txt	LTP285	ltpFR2	1	11	WORKER	1621	n/a	n/a	0	0	0
2550876	WORD	wordpools/wasnorm_wordpool_576.txt	LTP285	ltpFR2	1	11	PRINCE	1124	n/a	n/a	0	0	0
2553538	WORD	wordpools/wasnorm_wordpool_576.txt	LTP285	ltpFR2	1	11	SPOON	1357	n/a	n/a	0	0	0
2556134	WORD	wordpools/wasnorm_wordpool_576.txt	LTP285	ltpFR2	1	11	PARROT	1015	n/a	n/a	0	0	0
2558764	WORD	wordpools/wasnorm_wordpool_576.txt	LTP285	ltpFR2	1	11	LETTUCE	814	n/a	n/a	0	0	0
2561409	WORD	wordpools/wasnorm_wordpool_576.txt	LTP285	ltpFR2	1	11	BACKBONE	66	n/a	n/a	0	0	0
2563024	START	n/a	LTP285	ltpFR2	1	n/a	n/a	n/a	16	n/a	n/a	n/a	n/a
2564208	DISTRACTOR	n/a	LTP285	ltpFR2	1	11	n/a	n/a	n/a	n/a	0	0	0
2564222	PROB	n/a	LTP285	ltpFR2	1	n/a	n/a	n/a	16	22	9	8	5
2566119	PROB	n/a	LTP285	ltpFR2	1	n/a	n/a	n/a	16	15	2	8	5
2567151	PROB	n/a	LTP285	ltpFR2	1	n/a	n/a	n/a	16	174	7	3	7
2568249	PROB	n/a	LTP285	ltpFR2	1	n/a	n/a	n/a	16	24	8	9	7
2571911	PROB	n/a	LTP285	ltpFR2	1	n/a	n/a	n/a	16	12	2	4	6
2573109	PROB	n/a	LTP285	ltpFR2	1	n/a	n/a	n/a	16	15	5	6	4
2574407	PROB	n/a	LTP285	ltpFR2	1	n/a	n/a	n/a	16	15	2	8	5
2575889	PROB	n/a	LTP285	ltpFR2	1	n/a	n/a	n/a	16	16	7	5	4
2578934	PROB	n/a	LTP285	ltpFR2	1	n/a	n/a	n/a	16	10	1	4	5
2580131	PROB	n/a	LTP285	ltpFR2	1	n/a	n/a	n/a	16	6	1	4	1
2581313	PROB	n/a	LTP285	ltpFR2	1	n/a	n/a	n/a	16	12	3	8	1
2582345	PROB	n/a	LTP285	ltpFR2	1	n/a	n/a	n/a	16	19	8	2	9
2583611	PROB	n/a	LTP285	ltpFR2	1	n/a	n/a	n/a	16	9	6	2	1
2587024	STOP	n/a	LTP285	ltpFR2	1	n/a	n/a	n/a	16	n/a	n/a	n/a	n/a
2588887	REC_START	n/a	LTP285	ltpFR2	1	11	n/a	n/a	n/a	n/a	0	0	0
2589827	REC_WORD	wordpools/wasnorm_wordpool_576.txt	LTP285	ltpFR2	1	11	LETTUCE	814	n/a	n/a	0	0	0
2591062	REC_WORD	wordpools/wasnorm_wordpool_576.txt	LTP285	ltpFR2	1	11	BACKBONE	66	n/a	n/a	0	0	0
2592374	REC_WORD	wordpools/wasnorm_wordpool_576.txt	LTP285	ltpFR2	1	11	BELLY	119	n/a	n/a	0	0	0
2593395	REC_WORD	wordpools/wasnorm_wordpool_576.txt	LTP285	ltpFR2	1	11	STOMACH	1384	n/a	n/a	0	0	0
2594715	REC_WORD	wordpools/wasnorm_wordpool_576.txt	LTP285	ltpFR2	1	11	MARROW	872	n/a	n/a	0	0	0
2596617	REC_WORD	wordpools/wasnorm_wordpool_576.txt	LTP285	ltpFR2	1	11	TUBA	1515	n/a	n/a	0	0	0
2599276	REC_WORD	wordpools/wasnorm_wordpool_576.txt	LTP285	ltpFR2	1	11	PRINCE	1124	n/a	n/a	0	0	0
2601031	REC_WORD	wordpools/wasnorm_wordpool_576.txt	LTP285	ltpFR2	1	11	PLIERS	1089	n/a	n/a	0	0	0
2603168	REC_WORD	wordpools/wasnorm_wordpool_576.txt	LTP285	ltpFR2	1	11	SPOON	1357	n/a	n/a	0	0	0
2607327	REC_WORD	wordpools/wasnorm_wordpool_576.txt	LTP285	ltpFR2	1	11	PARROT	1015	n/a	n/a	0	0	0
2614903	REC_WORD	wordpools/wasnorm_wordpool_576.txt	LTP285	ltpFR2	1	11	DRAWING	494	n/a	n/a	0	0	0
2624544	REC_WORD	wordpools/wasnorm_wordpool_576.txt	LTP285	ltpFR2	1	11	MASK	876	n/a	n/a	0	0	0
2628735	REC_WORD	wordpools/wasnorm_wordpool_576.txt	LTP285	ltpFR2	1	11	POLICE	1098	n/a	n/a	0	0	0
2630107	REC_WORD	wordpools/wasnorm_wordpool_576.txt	LTP285	ltpFR2	1	11	SHERIFF	1284	n/a	n/a	0	0	0
2631240	REC_WORD	wordpools/wasnorm_wordpool_576.txt	LTP285	ltpFR2	1	11	WORKER	1621	n/a	n/a	0	0	0
2679550	WORD	wordpools/wasnorm_wordpool_576.txt	LTP285	ltpFR2	1	12	OMELET	976	n/a	n/a	0	0	0
2682013	WORD	wordpools/wasnorm_wordpool_576.txt	LTP285	ltpFR2	1	12	PLAYGROUND	1087	n/a	n/a	0	0	0
2684710	WORD	wordpools/wasnorm_wordpool_576.txt	LTP285	ltpFR2	1	12	DONOR	485	n/a	n/a	0	0	0
2687438	WORD	wordpools/wasnorm_wordpool_576.txt	LTP285	ltpFR2	1	12	CATCHER	258	n/a	n/a	0	0	0
2690151	WORD	wordpools/wasnorm_wordpool_576.txt	LTP285	ltpFR2	1	12	SHELF	1280	n/a	n/a	0	0	0
2692897	WORD	wordpools/wasnorm_wordpool_576.txt	LTP285	ltpFR2	1	12	PASSAGE	1019	n/a	n/a	0	0	0
2695509	WORD	wordpools/wasnorm_wordpool_576.txt	LTP285	ltpFR2	1	12	WINDOW	1611	n/a	n/a	0	0	0
2698022	WORD	wordpools/wasnorm_wordpool_576.txt	LTP285	ltpFR2	1	12	HOUND	724	n/a	n/a	0	0	0
2700736	WORD	wordpools/wasnorm_wordpool_576.txt	LTP285	ltpFR2	1	12	LEOPARD	812	n/a	n/a	0	0	0
2703514	WORD	wordpools/wasnorm_wordpool_576.txt	LTP285	ltpFR2	1	12	SUMMIT	1405	n/a	n/a	0	0	0
2706227	WORD	wordpools/wasnorm_wordpool_576.txt	LTP285	ltpFR2	1	12	ZIPPER	1636	n/a	n/a	0	0	0
2708907	WORD	wordpools/wasnorm_wordpool_576.txt	LTP285	ltpFR2	1	12	TURTLE	1522	n/a	n/a	0	0	0
2711519	WORD	wordpools/wasnorm_wordpool_576.txt	LTP285	ltpFR2	1	12	BEAKER	104	n/a	n/a	0	0	0
2713998	WORD	wordpools/wasnorm_wordpool_576.txt	LTP285	ltpFR2	1	12	CHAMPAGNE	278	n/a	n/a	0	0	0
2716729	WORD	wordpools/wasnorm_wordpool_576.txt	LTP285	ltpFR2	1	12	AIRPLANE	12	n/a	n/a	0	0	0
2719374	WORD	wordpools/wasnorm_wordpool_576.txt	LTP285	ltpFR2	1	12	BALLOON	75	n/a	n/a	0	0	0
2721854	WORD	wordpools/wasnorm_wordpool_576.txt	LTP285	ltpFR2	1	12	QUAIL	1147	n/a	n/a	0	0	0
2724667	WORD	wordpools/wasnorm_wordpool_576.txt	LTP285	ltpFR2	1	12	RELISH	1183	n/a	n/a	0	0	0
2727129	WORD	wordpools/wasnorm_wordpool_576.txt	LTP285	ltpFR2	1	12	MUSTARD	935	n/a	n/a	0	0	0
2729609	WORD	wordpools/wasnorm_wordpool_576.txt	LTP285	ltpFR2	1	12	GREASE	660	n/a	n/a	0	0	0
2732038	WORD	wordpools/wasnorm_wordpool_576.txt	LTP285	ltpFR2	1	12	GARBAGE	622	n/a	n/a	0	0	0
2734618	WORD	wordpools/wasnorm_wordpool_576.txt	LTP285	ltpFR2	1	12	PIZZA	1079	n/a	n/a	0	0	0
2737430	WORD	wordpools/wasnorm_wordpool_576.txt	LTP285	ltpFR2	1	12	SNAIL	1332	n/a	n/a	0	0	0
2739894	WORD	wordpools/wasnorm_wordpool_576.txt	LTP285	ltpFR2	1	12	BUG	187	n/a	n/a	0	0	0
2741507	START	n/a	LTP285	ltpFR2	1	n/a	n/a	n/a	17	n/a	n/a	n/a	n/a
2742457	DISTRACTOR	n/a	LTP285	ltpFR2	1	12	n/a	n/a	n/a	n/a	0	0	0
2742472	PROB	n/a	LTP285	ltpFR2	1	n/a	n/a	n/a	17	12	4	5	3
2744353	PROB	n/a	LTP285	ltpFR2	1	n/a	n/a	n/a	17	13	3	6	4
2745635	PROB	n/a	LTP285	ltpFR2	1	n/a	n/a	n/a	17	16	7	7	2
2747115	PROB	n/a	LTP285	ltpFR2	1	n/a	n/a	n/a	17	16	4	3	9
2748480	PROB	n/a	LTP285	ltpFR2	1	n/a	n/a	n/a	17	15	4	4	7
2750561	PROB	n/a	LTP285	ltpFR2	1	n/a	n/a	n/a	17	18	7	2	9
2752008	PROB	n/a	LTP285	ltpFR2	1	n/a	n/a	n/a	17	19	8	3	7
2753773	PROB	n/a	LTP285	ltpFR2	1	n/a	n/a	n/a	17	9	2	5	2
2755203	PROB	n/a	LTP285	ltpFR2	1	n/a	n/a	n/a	17	11	3	2	5
2756586	PROB	n/a	LTP285	ltpFR2	1	n/a	n/a	n/a	17	15	9	1	5
2758033	PROB	n/a	LTP285	ltpFR2	1	n/a	n/a	n/a	17	15	8	6	1
2759480	PROB	n/a	LTP285	ltpFR2	1	n/a	n/a	n/a	17	11	4	5	2
2760846	PROB	n/a	LTP285	ltpFR2	1	n/a	n/a	n/a	17	14	1	5	8
2762276	PROB	n/a	LTP285	ltpFR2	1	n/a	n/a	n/a	17	22	8	6	8
2764423	STOP	n/a	LTP285	ltpFR2	1	n/a	n/a	n/a	17	n/a	n/a	n/a	n/a
2767386	REC_START	n/a	LTP285	ltpFR2	1	12	n/a	n/a	n/a	n/a	0	0	0
2768155	REC_WORD	wordpools/wasnorm_wordpool_576.txt	LTP285	ltpFR2	1	12	SNAIL	1332	n/a	n/a	0	0	0
2769477	REC_WORD	wordpools/wasnorm_wordpool_576.txt	LTP285	ltpFR2	1	12	BUG	187	n/a	n/a	0	0	0
2770472	REC_WORD	wordpools/wasnorm_wordpool_576.txt	LTP285	ltpFR2	1	12	HOUND	724	n/a	n/a	0	0	0
2772318	REC_WORD	wordpools/wasnorm_wordpool_576.txt	LTP285	ltpFR2	1	12	TURTLE	1522	n/a	n/a	0	0	0
2774067	REC_WORD	wordpools/wasnorm_wordpool_576.txt	LTP285	ltpFR2	1	12	GREASE	660	n/a	n/a	0	0	0
2778372	REC_WORD	wordpools/wasnorm_wordpool_576.txt	LTP285	ltpFR2	1	12	AIRPLANE	12	n/a	n/a	0	0	0
2815824	REC_WORD	wordpools/wasnorm_wordpool_576.txt	LTP285	ltpFR2	1	12	RELISH	1183	n/a	n/a	0	0	0
2816916	REC_WORD	wordpools/wasnorm_wordpool_576.txt	LTP285	ltpFR2	1	12	MUSTARD	935	n/a	n/a	0	0	0
2858116	WORD	wordpools/wasnorm_wordpool_576.txt	LTP285	ltpFR2	1	13	GYMNAST	675	n/a	n/a	0	0	0
2860897	WORD	wordpools/wasnorm_wordpool_576.txt	LTP285	ltpFR2	1	13	SUITCASE	1403	n/a	n/a	0	0	0
2863643	WORD	wordpools/wasnorm_wordpool_576.txt	LTP285	ltpFR2	1	13	PUPIL	1143	n/a	n/a	0	0	0
2866437	WORD	wordpools/wasnorm_wordpool_576.txt	LTP285	ltpFR2	1	13	LIGHTNING	820	n/a	n/a	0	0	0
2869083	WORD	wordpools/wasnorm_wordpool_576.txt	LTP285	ltpFR2	1	13	AGENT	10	n/a	n/a	0	0	0
2871797	WORD	wordpools/wasnorm_wordpool_576.txt	LTP285	ltpFR2	1	13	MARS	873	n/a	n/a	0	0	0
2874475	WORD	wordpools/wasnorm_wordpool_576.txt	LTP285	ltpFR2	1	13	CASHEW	253	n/a	n/a	0	0	0
2877055	WORD	wordpools/wasnorm_wordpool_576.txt	LTP285	ltpFR2	1	13	DASHBOARD	441	n/a	n/a	0	0	0
2879652	WORD	wordpools/wasnorm_wordpool_576.txt	LTP285	ltpFR2	1	13	PORTRAIT	1111	n/a	n/a	0	0	0
2882347	WORD	wordpools/wasnorm_wordpool_576.txt	LTP285	ltpFR2	1	13	PLASTER	1085	n/a	n/a	0	0	0
2885143	WORD	wordpools/wasnorm_wordpool_576.txt	LTP285	ltpFR2	1	13	CABIN	211	n/a	n/a	0	0	0
2887856	WORD	wordpools/wasnorm_wordpool_576.txt	LTP285	ltpFR2	1	13	LUMBER	848	n/a	n/a	0	0	0
2890335	WORD	wordpools/wasnorm_wordpool_576.txt	LTP285	ltpFR2	1	13	TOURIST	1488	n/a	n/a	0	0	0
2893114	WORD	wordpools/wasnorm_wordpool_576.txt	LTP285	ltpFR2	1	13	DANCER	437	n/a	n/a	0	0	0
2895795	WORD	wordpools/wasnorm_wordpool_576.txt	LTP285	ltpFR2	1	13	CHAUFFEUR	283	n/a	n/a	0	0	0
2898256	WORD	wordpools/wasnorm_wordpool_576.txt	LTP285	ltpFR2	1	13	DRINK	498	n/a	n/a	0	0	0
2900754	WORD	wordpools/wasnorm_wordpool_576.txt	LTP285	ltpFR2	1	13	SWORD	1423	n/a	n/a	0	0	0
2903266	WORD	wordpools/wasnorm_wordpool_576.txt	LTP285	ltpFR2	1	13	CUSTARD	429	n/a	n/a	0	0	0
2905696	WORD	wordpools/wasnorm_wordpool_576.txt	LTP285	ltpFR2	1	13	CHIPMUNK	304	n/a	n/a	0	0	0
2908242	WORD	wordpools/wasnorm_wordpool_576.txt	LTP285	ltpFR2	1	13	PADDING	999	n/a	n/a	0	0	0
2911004	WORD	wordpools/wasnorm_wordpool_576.txt	LTP285	ltpFR2	1	13	BEEF	113	n/a	n/a	0	0	0
2913784	WORD	wordpools/wasnorm_wordpool_576.txt	LTP285	ltpFR2	1	13	EYELASH	546	n/a	n/a	0	0	0
2916564	WORD	wordpools/wasnorm_wordpool_576.txt	LTP285	ltpFR2	1	13	CATTLE	261	n/a	n/a	0	0	0
2919125	WORD	wordpools/wasnorm_wordpool_576.txt	LTP285	ltpFR2	1	13	OX	994	n/a	n/a	0	0	0
2920741	START	n/a	LTP285	ltpFR2	1	n/a	n/a	n/a	18	n/a	n/a	n/a	n/a
2921715	DISTRACTOR	n/a	LTP285	ltpFR2	1	13	n/a	n/a	n/a	n/a	0	0	0
2921722	PROB	n/a	LTP285	ltpFR2	1	n/a	n/a	n/a	18	16	9	5	2
2923686	PROB	n/a	LTP285	ltpFR2	1	n/a	n/a	n/a	18	15	2	4	9
2925150	PROB	n/a	LTP285	ltpFR2	1	n/a	n/a	n/a	18	6	2	2	2
2926381	PROB	n/a	LTP285	ltpFR2	1	n/a	n/a	n/a	18	13	7	5	1
2928412	PROB	n/a	LTP285	ltpFR2	1	n/a	n/a	n/a	18	13	1	7	5
2930492	PROB	n/a	LTP285	ltpFR2	1	n/a	n/a	n/a	18	19	7	3	9
2931674	PROB	n/a	LTP285	ltpFR2	1	n/a	n/a	n/a	18	12	5	3	4
2933354	PROB	n/a	LTP285	ltpFR2	1	n/a	n/a	n/a	18	8	2	1	5
2934670	PROB	n/a	LTP285	ltpFR2	1	n/a	n/a	n/a	18	18	9	7	2
2936483	PROB	n/a	LTP285	ltpFR2	1	n/a	n/a	n/a	18	22	6	7	8
2939012	PROB	n/a	LTP285	ltpFR2	1	n/a	n/a	n/a	18	10	3	4	3
2940827	PROB	n/a	LTP285	ltpFR2	1	n/a	n/a	n/a	18	9	4	3	2
2942440	PROB	n/a	LTP285	ltpFR2	1	n/a	n/a	n/a	18	25	9	8	8
2944375	STOP	n/a	LTP285	ltpFR2	1	n/a	n/a	n/a	18	n/a	n/a	n/a	n/a
2946686	REC_START	n/a	LTP285	ltpFR2	1	13	n/a	n/a	n/a	n/a	0	0	0
2947417	REC_WORD	wordpools/wasnorm_wordpool_576.txt	LTP285	ltpFR2	1	13	CATTLE	261	n/a	n/a	0	0	0
2948372	REC_WORD	wordpools/wasnorm_wordpool_576.txt	LTP285	ltpFR2	1	13	BEEF	113	n/a	n/a	0	0	0
2949406	REC_WORD	wordpools/wasnorm_wordpool_576.txt	LTP285	ltpFR2	1	13	OX	994	n/a	n/a	0	0	0
2950642	REC_WORD	wordpools/wasnorm_wordpool_576.txt	LTP285	ltpFR2	1	13	CUSTARD	429	n/a	n/a	0	0	0
2954933	REC_WORD	wordpools/wasnorm_wordpool_576.txt	LTP285	ltpFR2	1	13	CHAUFFEUR	283	n/a	n/a	0	0	0
2957831	REC_WORD	wordpools/wasnorm_wordpool_576.txt	LTP285	ltpFR2	1	13	GYMNAST	675	n/a	n/a	0	0	0
2959150	REC_WORD	wordpools/wasnorm_wordpool_576.txt	LTP285	ltpFR2	1	13	DANCER	437	n/a	n/a	0	0	0
2960433	REC_WORD	wordpools/wasnorm_wordpool_576.txt	LTP285	ltpFR2	1	13	PUPIL	1143	n/a	n/a	0	0	0
2965627	REC_WORD	wordpools/wasnorm_wordpool_576.txt	LTP285	ltpFR2	1	13	LIGHTNING	820	n/a	n/a	0	0	0
2997510	REC_WORD	wordpools/wasnorm_wordpool_576.txt	LTP285	ltpFR2	1	13	SWORD	1423	n/a	n/a	0	0	0
3020351	REC_WORD	wordpools/wasnorm_wordpool_576.txt	LTP285	ltpFR2	1	13	QUAIL	1147	n/a	n/a	0	0	0
3037349	DISTRACTOR	n/a	LTP285	ltpFR2	1	14	n/a	n/a	n/a	n/a	0	0	0
3037349	START	n/a	LTP285	ltpFR2	1	n/a	n/a	n/a	19	n/a	n/a	n/a	n/a
3037382	PROB	n/a	LTP285	ltpFR2	1	n/a	n/a	n/a	19	16	2	6	8
3038881	PROB	n/a	LTP285	ltpFR2	1	n/a	n/a	n/a	19	13	3	9	1
3040478	PROB	n/a	LTP285	ltpFR2	1	n/a	n/a	n/a	19	23	8	8	7
3042075	PROB	n/a	LTP285	ltpFR2	1	n/a	n/a	n/a	19	14	2	5	7
3043406	PROB	n/a	LTP285	ltpFR2	1	n/a	n/a	n/a	19	18	5	5	8
3044405	PROB	n/a	LTP285	ltpFR2	1	n/a	n/a	n/a	19	12	2	6	3
3045737	PROB	n/a	LTP285	ltpFR2	1	n/a	n/a	n/a	19	13	4	6	3
3046886	PROB	n/a	LTP285	ltpFR2	1	n/a	n/a	n/a	19	15	6	3	6
3048099	PROB	n/a	LTP285	ltpFR2	1	n/a	n/a	n/a	19	13	6	3	4
3049181	PROB	n/a	LTP285	ltpFR2	1	n/a	n/a	n/a	19	12	3	4	5
3050580	PROB	n/a	LTP285	ltpFR2	1	n/a	n/a	n/a	19	20	8	8	4
3052443	PROB	n/a	LTP285	ltpFR2	1	n/a	n/a	n/a	19	10	4	5	1
3053709	PROB	n/a	LTP285	ltpFR2	1	n/a	n/a	n/a	19	16	8	1	7
3055556	PROB	n/a	LTP285	ltpFR2	1	n/a	n/a	n/a	19	10	1	6	3
3057369	PROB	n/a	LTP285	ltpFR2	1	n/a	n/a	n/a	19	16	9	3	4
3058901	PROB	n/a	LTP285	ltpFR2	1	n/a	n/a	n/a	19	18	5	5	8
3059784	STOP	n/a	LTP285	ltpFR2	1	n/a	n/a	n/a	19	n/a	n/a	n/a	n/a
3062478	WORD	wordpools/wasnorm_wordpool_576.txt	LTP285	ltpFR2	1	14	PISTOL	1075	n/a	n/a	0	0	0
3065290	WORD	wordpools/wasnorm_wordpool_576.txt	LTP285	ltpFR2	1	14	BABY	64	n/a	n/a	0	0	0
3067721	WORD	wordpools/wasnorm_wordpool_576.txt	LTP285	ltpFR2	1	14	DUSTPAN	509	n/a	n/a	0	0	0
3070300	WORD	wordpools/wasnorm_wordpool_576.txt	LTP285	ltpFR2	1	14	BRANDY	169	n/a	n/a	0	0	0
3073062	WORD	wordpools/wasnorm_wordpool_576.txt	LTP285	ltpFR2	1	14	FLASK	576	n/a	n/a	0	0	0
3075609	WORD	wordpools/wasnorm_wordpool_576.txt	LTP285	ltpFR2	1	14	JUGGLER	763	n/a	n/a	0	0	0
3078271	WORD	wordpools/wasnorm_wordpool_576.txt	LTP285	ltpFR2	1	14	SPOUSE	1358	n/a	n/a	0	0	0
3081067	WORD	wordpools/wasnorm_wordpool_576.txt	LTP285	ltpFR2	1	14	WIFE	1609	n/a	n/a	0	0	0
3083830	WORD	wordpools/wasnorm_wordpool_576.txt	LTP285	ltpFR2	1	14	CIGAR	308	n/a	n/a	0	0	0
3086525	WORD	wordpools/wasnorm_wordpool_576.txt	LTP285	ltpFR2	1	14	TABLE	1426	n/a	n/a	0	0	0
3089188	WORD	wordpools/wasnorm_wordpool_576.txt	LTP285	ltpFR2	1	14	BADGE	68	n/a	n/a	0	0	0
3091785	WORD	wordpools/wasnorm_wordpool_576.txt	LTP285	ltpFR2	1	14	LEG	809	n/a	n/a	0	0	0
3094564	WORD	wordpools/wasnorm_wordpool_576.txt	LTP285	ltpFR2	1	14	SCULPTURE	1258	n/a	n/a	0	0	0
3097293	WORD	wordpools/wasnorm_wordpool_576.txt	LTP285	ltpFR2	1	14	LEADER	807	n/a	n/a	0	0	0
3100039	WORD	wordpools/wasnorm_wordpool_576.txt	LTP285	ltpFR2	1	14	COUCH	386	n/a	n/a	0	0	0
3102719	WORD	wordpools/wasnorm_wordpool_576.txt	LTP285	ltpFR2	1	14	POWDER	1117	n/a	n/a	0	0	0
3105397	WORD	wordpools/wasnorm_wordpool_576.txt	LTP285	ltpFR2	1	14	GROUND	666	n/a	n/a	0	0	0
3108060	WORD	wordpools/wasnorm_wordpool_576.txt	LTP285	ltpFR2	1	14	WOMAN	1620	n/a	n/a	0	0	0
3110790	WORD	wordpools/wasnorm_wordpool_576.txt	LTP285	ltpFR2	1	14	ROBIN	1199	n/a	n/a	0	0	0
3113402	WORD	wordpools/wasnorm_wordpool_576.txt	LTP285	ltpFR2	1	14	SEAL	1262	n/a	n/a	0	0	0
3116131	WORD	wordpools/wasnorm_wordpool_576.txt	LTP285	ltpFR2	1	14	GLOVE	642	n/a	n/a	0	0	0
3118828	WORD	wordpools/wasnorm_wordpool_576.txt	LTP285	ltpFR2	1	14	SMOG	1330	n/a	n/a	0	0	0
3121607	WORD	wordpools/wasnorm_wordpool_576.txt	LTP285	ltpFR2	1	14	SPARROW	1347	n/a	n/a	0	0	0
3124352	WORD	wordpools/wasnorm_wordpool_576.txt	LTP285	ltpFR2	1	14	ROOSTER	1209	n/a	n/a	0	0	0
3125968	START	n/a	LTP285	ltpFR2	1	n/a	n/a	n/a	20	n/a	n/a	n/a	n/a
3127167	DISTRACTOR	n/a	LTP285	ltpFR2	1	14	n/a	n/a	n/a	n/a	0	0	0
3127181	PROB	n/a	LTP285	ltpFR2	1	n/a	n/a	n/a	20	15	2	8	5
3128580	PROB	n/a	LTP285	ltpFR2	1	n/a	n/a	n/a	20	14	4	1	9
3130243	PROB	n/a	LTP285	ltpFR2	1	n/a	n/a	n/a	20	14	7	5	2
3132041	PROB	n/a	LTP285	ltpFR2	1	n/a	n/a	n/a	20	12	1	7	4
3133106	PROB	n/a	LTP285	ltpFR2	1	n/a	n/a	n/a	20	8	6	1	1
3134121	PROB	n/a	LTP285	ltpFR2	1	n/a	n/a	n/a	20	12	8	1	3
3135985	PROB	n/a	LTP285	ltpFR2	1	n/a	n/a	n/a	20	14	7	1	6
3137383	PROB	n/a	LTP285	ltpFR2	1	n/a	n/a	n/a	20	22	6	9	9
3138965	PROB	n/a	LTP285	ltpFR2	1	n/a	n/a	n/a	20	14	2	7	5
3141344	PROB	n/a	LTP285	ltpFR2	1	n/a	n/a	n/a	20	23	6	8	9
3143357	PROB	n/a	LTP285	ltpFR2	1	n/a	n/a	n/a	20	22	9	5	8
3146203	PROB	n/a	LTP285	ltpFR2	1	n/a	n/a	n/a	20	19	5	6	8
3147501	PROB	n/a	LTP285	ltpFR2	1	n/a	n/a	n/a	20	9	4	4	1
3148463	STOP	n/a	LTP285	ltpFR2	1	n/a	n/a	n/a	20	n/a	n/a	n/a	n/a
3151830	REC_START	n/a	LTP285	ltpFR2	1	14	n/a	n/a	n/a	n/a	0	0	0
3152418	REC_WORD	wordpools/wasnorm_wordpool_576.txt	LTP285	ltpFR2	1	14	SPARROW	1347	n/a	n/a	0	0	0
3153436	REC_WORD	wordpools/wasnorm_wordpool_576.txt	LTP285	ltpFR2	1	14	ROOSTER	1209	n/a	n/a	0	0	0
3154296	REC_WORD	wordpools/wasnorm_wordpool_576.txt	LTP285	ltpFR2	1	14	ROBIN	1199	n/a	n/a	0	0	0
3155285	REC_WORD	wordpools/wasnorm_wordpool_576.txt	LTP285	ltpFR2	1	14	GLOVE	642	n/a	n/a	0	0	0
3157848	REC_WORD	wordpools/wasnorm_wordpool_576.txt	LTP285	ltpFR2	1	14	SEAL	1262	n/a	n/a	0	0	0
3170098	REC_WORD	wordpools/wasnorm_wordpool_576.txt	LTP285	ltpFR2	1	14	BADGE	68	n/a	n/a	0	0	0
3182919	REC_WORD	wordpools/wasnorm_wordpool_576.txt	LTP285	ltpFR2	1	14	COUCH	386	n/a	n/a	0	0	0
3192186	REC_WORD	wordpools/wasnorm_wordpool_576.txt	LTP285	ltpFR2	1	14	DRINK	498	n/a	n/a	0	0	0
3193400	REC_WORD	wordpools/wasnorm_wordpool_576.txt	LTP285	ltpFR2	1	14	BRANDY	169	n/a	n/a	0	0	0
3242476	WORD	wordpools/wasnorm_wordpool_576.txt	LTP285	ltpFR2	1	15	COOKBOOK	373	n/a	n/a	0	0	0
3244973	WORD	wordpools/wasnorm_wordpool_576.txt	LTP285	ltpFR2	1	15	RIFLE	1192	n/a	n/a	0	0	0
3247435	WORD	wordpools/wasnorm_wordpool_576.txt	LTP285	ltpFR2	1	15	STAPLE	1371	n/a	n/a	0	0	0
3250015	WORD	wordpools/wasnorm_wordpool_576.txt	LTP285	ltpFR2	1	15	CLIMBER	323	n/a	n/a	0	0	0
3252745	WORD	wordpools/wasnorm_wordpool_576.txt	LTP285	ltpFR2	1	15	LUNCH	849	n/a	n/a	0	0	0
3255174	WORD	wordpools/wasnorm_wordpool_576.txt	LTP285	ltpFR2	1	15	LIVER	833	n/a	n/a	0	0	0
3257621	WORD	wordpools/wasnorm_wordpool_576.txt	LTP285	ltpFR2	1	15	CHEST	295	n/a	n/a	0	0	0
3260349	WORD	wordpools/wasnorm_wordpool_576.txt	LTP285	ltpFR2	1	15	FIREPLACE	570	n/a	n/a	0	0	0
3262846	WORD	wordpools/wasnorm_wordpool_576.txt	LTP285	ltpFR2	1	15	BEAVER	109	n/a	n/a	0	0	0
3265475	WORD	wordpools/wasnorm_wordpool_576.txt	LTP285	ltpFR2	1	15	GAZELLE	628	n/a	n/a	0	0	0
3267956	WORD	wordpools/wasnorm_wordpool_576.txt	LTP285	ltpFR2	1	15	BLACKBOARD	133	n/a	n/a	0	0	0
3270718	WORD	wordpools/wasnorm_wordpool_576.txt	LTP285	ltpFR2	1	15	BOARD	143	n/a	n/a	0	0	0
3273313	WORD	wordpools/wasnorm_wordpool_576.txt	LTP285	ltpFR2	1	15	DONKEY	484	n/a	n/a	0	0	0
3275844	WORD	wordpools/wasnorm_wordpool_576.txt	LTP285	ltpFR2	1	15	CHAPEL	280	n/a	n/a	0	0	0
3278590	WORD	wordpools/wasnorm_wordpool_576.txt	LTP285	ltpFR2	1	15	CREVICE	405	n/a	n/a	0	0	0
3281218	WORD	wordpools/wasnorm_wordpool_576.txt	LTP285	ltpFR2	1	15	GRIZZLY	662	n/a	n/a	0	0	0
3283865	WORD	wordpools/wasnorm_wordpool_576.txt	LTP285	ltpFR2	1	15	BRACES	164	n/a	n/a	0	0	0
3286578	WORD	wordpools/wasnorm_wordpool_576.txt	LTP285	ltpFR2	1	15	REPORT	1184	n/a	n/a	0	0	0
3289356	WORD	wordpools/wasnorm_wordpool_576.txt	LTP285	ltpFR2	1	15	DRUG	501	n/a	n/a	0	0	0
3291936	WORD	wordpools/wasnorm_wordpool_576.txt	LTP285	ltpFR2	1	15	FIREMAN	569	n/a	n/a	0	0	0
3294398	WORD	wordpools/wasnorm_wordpool_576.txt	LTP285	ltpFR2	1	15	LADY	794	n/a	n/a	0	0	0
3297161	WORD	wordpools/wasnorm_wordpool_576.txt	LTP285	ltpFR2	1	15	CURTAIN	427	n/a	n/a	0	0	0
3299741	WORD	wordpools/wasnorm_wordpool_576.txt	LTP285	ltpFR2	1	15	PARENT	1013	n/a	n/a	0	0	0
3302170	WORD	wordpools/wasnorm_wordpool_576.txt	LTP285	ltpFR2	1	15	PICNIC	1060	n/a	n/a	0	0	0
3303786	START	n/a	LTP285	ltpFR2	1	n/a	n/a	n/a	21	n/a	n/a	n/a	n/a
3304736	DISTRACTOR	n/a	LTP285	ltpFR2	1	15	n/a	n/a	n/a	n/a	0	0	0
3304751	PROB	n/a	LTP285	ltpFR2	1	n/a	n/a	n/a	21	19	9	5	5
3305965	PROB	n/a	LTP285	ltpFR2	1	n/a	n/a	n/a	21	18	3	6	9
3307479	PROB	n/a	LTP285	ltpFR2	1	n/a	n/a	n/a	21	10	2	4	4
3309443	PROB	n/a	LTP285	ltpFR2	1	n/a	n/a	n/a	21	18	3	9	6
3311490	PROB	n/a	LTP285	ltpFR2	1	n/a	n/a	n/a	21	22	6	8	8
3313986	PROB	n/a	LTP285	ltpFR2	1	n/a	n/a	n/a	21	22	7	6	9
3315718	PROB	n/a	LTP285	ltpFR2	1	n/a	n/a	n/a	21	11	3	3	5
3317081	PROB	n/a	LTP285	ltpFR2	1	n/a	n/a	n/a	21	13	6	1	6
3318780	PROB	n/a	LTP285	ltpFR2	1	n/a	n/a	n/a	21	24	9	7	6
3322824	PROB	n/a	LTP285	ltpFR2	1	n/a	n/a	n/a	21	16	6	8	2
3324854	PROB	n/a	LTP285	ltpFR2	1	n/a	n/a	n/a	21	11	3	7	1
3327786	STOP	n/a	LTP285	ltpFR2	1	n/a	n/a	n/a	21	n/a	n/a	n/a	n/a
3329681	REC_START	n/a	LTP285	ltpFR2	1	15	n/a	n/a	n/a	n/a	0	0	0
3330363	REC_WORD	wordpools/wasnorm_wordpool_576.txt	LTP285	ltpFR2	1	15	PICNIC	1060	n/a	n/a	0	0	0
3331445	REC_WORD	wordpools/wasnorm_wordpool_576.txt	LTP285	ltpFR2	1	15	PARENT	1013	n/a	n/a	0	0	0
3338488	REC_WORD	wordpools/wasnorm_wordpool_576.txt	LTP285	ltpFR2	1	15	BOARD	143	n/a	n/a	0	0	0
3339468	REC_WORD	wordpools/wasnorm_wordpool_576.txt	LTP285	ltpFR2	1	15	BLACKBOARD	133	n/a	n/a	0	0	0
3346127	REC_WORD	wordpools/wasnorm_wordpool_576.txt	LTP285	ltpFR2	1	15	CHEST	295	n/a	n/a	0	0	0
3351384	REC_WORD	wordpools/wasnorm_wordpool_576.txt	LTP285	ltpFR2	1	15	LIVER	833	n/a	n/a	0	0	0
3359525	REC_WORD	wordpools/wasnorm_wordpool_576.txt	LTP285	ltpFR2	1	15	BRACES	164	n/a	n/a	0	0	0
3363329	REC_WORD	wordpools/wasnorm_wordpool_576.txt	LTP285	ltpFR2	1	15	DONKEY	484	n/a	n/a	0	0	0
3368758	REC_WORD	wordpools/wasnorm_wordpool_576.txt	LTP285	ltpFR2	1	15	COOKBOOK	373	n/a	n/a	0	0	0
3373265	REC_WORD	wordpools/wasnorm_wordpool_576.txt	LTP285	ltpFR2	1	15	FIREPLACE	570	n/a	n/a	0	0	0
3420327	DISTRACTOR	n/a	LTP285	ltpFR2	1	16	n/a	n/a	n/a	n/a	0	0	0
3420327	START	n/a	LTP285	ltpFR2	1	n/a	n/a	n/a	22	n/a	n/a	n/a	n/a
3420360	PROB	n/a	LTP285	ltpFR2	1	n/a	n/a	n/a	22	17	8	8	1
3422491	PROB	n/a	LTP285	ltpFR2	1	n/a	n/a	n/a	22	11	2	1	8
3424088	PROB	n/a	LTP285	ltpFR2	1	n/a	n/a	n/a	22	14	5	4	5
3425270	PROB	n/a	LTP285	ltpFR2	1	n/a	n/a	n/a	22	14	3	7	4
3428016	PROB	n/a	LTP285	ltpFR2	1	n/a	n/a	n/a	22	20	8	9	3
3429847	PROB	n/a	LTP285	ltpFR2	1	n/a	n/a	n/a	22	12	6	3	2
3431427	PROB	n/a	LTP285	ltpFR2	1	n/a	n/a	n/a	22	21	8	9	4
3434356	PROB	n/a	LTP285	ltpFR2	1	n/a	n/a	n/a	22	14	3	5	6
3436486	PROB	n/a	LTP285	ltpFR2	1	n/a	n/a	n/a	22	15	8	4	3
3437902	PROB	n/a	LTP285	ltpFR2	1	n/a	n/a	n/a	22	12	4	5	4
3439415	PROB	n/a	LTP285	ltpFR2	1	n/a	n/a	n/a	22	22	6	8	8
3441646	PROB	n/a	LTP285	ltpFR2	1	n/a	n/a	n/a	22	14	5	7	2
3443656	STOP	n/a	LTP285	ltpFR2	1	n/a	n/a	n/a	22	n/a	n/a	n/a	n/a
3445223	WORD	wordpools/wasnorm_wordpool_576.txt	LTP285	ltpFR2	1	16	MILK	895	n/a	n/a	0	0	0
3447937	WORD	wordpools/wasnorm_wordpool_576.txt	LTP285	ltpFR2	1	16	JELLO	754	n/a	n/a	0	0	0
3450515	WORD	wordpools/wasnorm_wordpool_576.txt	LTP285	ltpFR2	1	16	HORSE	719	n/a	n/a	0	0	0
3453045	WORD	wordpools/wasnorm_wordpool_576.txt	LTP285	ltpFR2	1	16	DUST	508	n/a	n/a	0	0	0
3455609	WORD	wordpools/wasnorm_wordpool_576.txt	LTP285	ltpFR2	1	16	PADDLE	1000	n/a	n/a	0	0	0
3458087	WORD	wordpools/wasnorm_wordpool_576.txt	LTP285	ltpFR2	1	16	FUNGUS	614	n/a	n/a	0	0	0
3460768	WORD	wordpools/wasnorm_wordpool_576.txt	LTP285	ltpFR2	1	16	SERVER	1272	n/a	n/a	0	0	0
3463313	WORD	wordpools/wasnorm_wordpool_576.txt	LTP285	ltpFR2	1	16	HOSTESS	723	n/a	n/a	0	0	0
3465977	WORD	wordpools/wasnorm_wordpool_576.txt	LTP285	ltpFR2	1	16	POISON	1096	n/a	n/a	0	0	0
3468706	WORD	wordpools/wasnorm_wordpool_576.txt	LTP285	ltpFR2	1	16	PIMPLE	1071	n/a	n/a	0	0	0
3471184	WORD	wordpools/wasnorm_wordpool_576.txt	LTP285	ltpFR2	1	16	KLEENEX	782	n/a	n/a	0	0	0
3473965	WORD	wordpools/wasnorm_wordpool_576.txt	LTP285	ltpFR2	1	16	MONSTER	912	n/a	n/a	0	0	0
3476677	WORD	wordpools/wasnorm_wordpool_576.txt	LTP285	ltpFR2	1	16	DANDRUFF	439	n/a	n/a	0	0	0
3479455	WORD	wordpools/wasnorm_wordpool_576.txt	LTP285	ltpFR2	1	16	CRITIC	410	n/a	n/a	0	0	0
3482118	WORD	wordpools/wasnorm_wordpool_576.txt	LTP285	ltpFR2	1	16	FRIEND	606	n/a	n/a	0	0	0
3484782	WORD	wordpools/wasnorm_wordpool_576.txt	LTP285	ltpFR2	1	16	BROTHER	179	n/a	n/a	0	0	0
3487477	WORD	wordpools/wasnorm_wordpool_576.txt	LTP285	ltpFR2	1	16	SCALPEL	1243	n/a	n/a	0	0	0
3490273	WORD	wordpools/wasnorm_wordpool_576.txt	LTP285	ltpFR2	1	16	GOBLIN	645	n/a	n/a	0	0	0
3492770	WORD	wordpools/wasnorm_wordpool_576.txt	LTP285	ltpFR2	1	16	PUDDING	1139	n/a	n/a	0	0	0
3495199	WORD	wordpools/wasnorm_wordpool_576.txt	LTP285	ltpFR2	1	16	HANDBAG	684	n/a	n/a	0	0	0
3497962	WORD	wordpools/wasnorm_wordpool_576.txt	LTP285	ltpFR2	1	16	POCKET	1093	n/a	n/a	0	0	0
3500491	WORD	wordpools/wasnorm_wordpool_576.txt	LTP285	ltpFR2	1	16	LAGOON	795	n/a	n/a	0	0	0
3503237	WORD	wordpools/wasnorm_wordpool_576.txt	LTP285	ltpFR2	1	16	RADISH	1158	n/a	n/a	0	0	0
3505884	WORD	wordpools/wasnorm_wordpool_576.txt	LTP285	ltpFR2	1	16	COD	340	n/a	n/a	0	0	0
3507497	START	n/a	LTP285	ltpFR2	1	n/a	n/a	n/a	23	n/a	n/a	n/a	n/a
3508645	DISTRACTOR	n/a	LTP285	ltpFR2	1	16	n/a	n/a	n/a	n/a	0	0	0
3508646	PROB	n/a	LTP285	ltpFR2	1	n/a	n/a	n/a	23	15	8	6	1
3510010	PROB	n/a	LTP285	ltpFR2	1	n/a	n/a	n/a	23	18	9	1	8
3511175	PROB	n/a	LTP285	ltpFR2	1	n/a	n/a	n/a	23	18	6	6	6
3512240	PROB	n/a	LTP285	ltpFR2	1	n/a	n/a	n/a	23	10	1	2	7
3513388	PROB	n/a	LTP285	ltpFR2	1	n/a	n/a	n/a	23	19	3	7	9
3514470	PROB	n/a	LTP285	ltpFR2	1	n/a	n/a	n/a	23	21	9	5	9
3516584	PROB	n/a	LTP285	ltpFR2	1	n/a	n/a	n/a	23	9	3	5	1
3517866	PROB	n/a	LTP285	ltpFR2	1	n/a	n/a	n/a	23	14	3	8	3
3519296	PROB	n/a	LTP285	ltpFR2	1	n/a	n/a	n/a	23	6	2	3	1
3520662	PROB	n/a	LTP285	ltpFR2	1	n/a	n/a	n/a	23	15	5	7	3
3521960	PROB	n/a	LTP285	ltpFR2	1	n/a	n/a	n/a	23	14	7	3	4
3523423	PROB	n/a	LTP285	ltpFR2	1	n/a	n/a	n/a	23	14	3	3	8
3524689	PROB	n/a	LTP285	ltpFR2	1	n/a	n/a	n/a	23	11	2	5	4
3526402	PROB	n/a	LTP285	ltpFR2	1	n/a	n/a	n/a	23	19	8	4	7
3528033	PROB	n/a	LTP285	ltpFR2	1	n/a	n/a	n/a	23	13	1	3	9
3531497	STOP	n/a	LTP285	ltpFR2	1	n/a	n/a	n/a	23	n/a	n/a	n/a	n/a
3533442	REC_START	n/a	LTP285	ltpFR2	1	16	n/a	n/a	n/a	n/a	0	0	0
3534521	REC_WORD	wordpools/wasnorm_wordpool_576.txt	LTP285	ltpFR2	1	16	SCALPEL	1243	n/a	n/a	0	0	0
3535767	REC_WORD	wordpools/wasnorm_wordpool_576.txt	LTP285	ltpFR2	1	16	POISON	1096	n/a	n/a	0	0	0
3536950	REC_WORD	wordpools/wasnorm_wordpool_576.txt	LTP285	ltpFR2	1	16	PUDDING	1139	n/a	n/a	0	0	0
3538112	REC_WORD	wordpools/wasnorm_wordpool_576.txt	LTP285	ltpFR2	1	16	SERVER	1272	n/a	n/a	0	0	0
3539491	REC_WORD	wordpools/wasnorm_wordpool_576.txt	LTP285	ltpFR2	1	16	HOSTESS	723	n/a	n/a	0	0	0
3541133	REC_WORD	wordpools/wasnorm_wordpool_576.txt	LTP285	ltpFR2	1	16	COD	340	n/a	n/a	0	0	0
3542608	REC_WORD	wordpools/wasnorm_wordpool_576.txt	LTP285	ltpFR2	1	16	LAGOON	795	n/a	n/a	0	0	0
3568586	REC_WORD	wordpools/wasnorm_wordpool_576.txt	LTP285	ltpFR2	1	16	KLEENEX	782	n/a	n/a	0	0	0
3583994	REC_WORD	wordpools/wasnorm_wordpool_576.txt	LTP285	ltpFR2	1	16	BROTHER	179	n/a	n/a	0	0	0
3589901	REC_WORD	wordpools/wasnorm_wordpool_576.txt	LTP285	ltpFR2	1	16	SIBLING	1301	n/a	n/a	0	0	0
3600135	REC_WORD	wordpools/wasnorm_wordpool_576.txt	LTP285	ltpFR2	1	16	HORSE	719	n/a	n/a	0	0	0
3601401	REC_WORD	wordpools/wasnorm_wordpool_576.txt	LTP285	ltpFR2	1	16	DUST	508	n/a	n/a	0	0	0
3610044	REST_REWET	n/a	LTP285	ltpFR2	1	16	n/a	n/a	n/a	n/a	0	0	0
4023310	DISTRACTOR	n/a	LTP285	ltpFR2	1	17	n/a	n/a	n/a	n/a	0	0	0
4023310	START	n/a	LTP285	ltpFR2	1	n/a	n/a	n/a	24	n/a	n/a	n/a	n/a
4023343	PROB	n/a	LTP285	ltpFR2	1	n/a	n/a	n/a	24	18	6	8	4
4026089	PROB	n/a	LTP285	ltpFR2	1	n/a	n/a	n/a	24	19	7	3	9
4027755	PROB	n/a	LTP285	ltpFR2	1	n/a	n/a	n/a	24	18	2	7	9
4030100	PROB	n/a	LTP285	ltpFR2	1	n/a	n/a	n/a	24	18	8	8	3
4034310	PROB	n/a	LTP285	ltpFR2	1	n/a	n/a	n/a	24	24	8	9	9
4036658	PROB	n/a	LTP285	ltpFR2	1	n/a	n/a	n/a	24	13	2	6	5
4038521	PROB	n/a	LTP285	ltpFR2	1	n/a	n/a	n/a	24	23	5	9	9
4040468	PROB	n/a	LTP285	ltpFR2	1	n/a	n/a	n/a	24	10	6	2	2
4042732	PROB	n/a	LTP285	ltpFR2	1	n/a	n/a	n/a	24	7	2	2	3
4044663	PROB	n/a	LTP285	ltpFR2	1	n/a	n/a	n/a	24	13	3	8	2
4046063	STOP	n/a	LTP285	ltpFR2	1	n/a	n/a	n/a	24	n/a	n/a	n/a	n/a
4048256	WORD	wordpools/wasnorm_wordpool_576.txt	LTP285	ltpFR2	1	17	LAMP	798	n/a	n/a	0	0	0
4050903	WORD	wordpools/wasnorm_wordpool_576.txt	LTP285	ltpFR2	1	17	BACON	67	n/a	n/a	0	0	0
4053532	WORD	wordpools/wasnorm_wordpool_576.txt	LTP285	ltpFR2	1	17	WAITER	1580	n/a	n/a	0	0	0
4056211	WORD	wordpools/wasnorm_wordpool_576.txt	LTP285	ltpFR2	1	17	BUTCHER	203	n/a	n/a	0	0	0
4058758	WORD	wordpools/wasnorm_wordpool_576.txt	LTP285	ltpFR2	1	17	DRESS	495	n/a	n/a	0	0	0
4061403	WORD	wordpools/wasnorm_wordpool_576.txt	LTP285	ltpFR2	1	17	COCKTAIL	338	n/a	n/a	0	0	0
4064182	WORD	wordpools/wasnorm_wordpool_576.txt	LTP285	ltpFR2	1	17	WITNESS	1618	n/a	n/a	0	0	0
4066646	WORD	wordpools/wasnorm_wordpool_576.txt	LTP285	ltpFR2	1	17	KNIFE	785	n/a	n/a	0	0	0
4069125	WORD	wordpools/wasnorm_wordpool_576.txt	LTP285	ltpFR2	1	17	PAIL	1002	n/a	n/a	0	0	0
4071589	WORD	wordpools/wasnorm_wordpool_576.txt	LTP285	ltpFR2	1	17	CRIB	407	n/a	n/a	0	0	0
4074101	WORD	wordpools/wasnorm_wordpool_576.txt	LTP285	ltpFR2	1	17	PRINCESS	1125	n/a	n/a	0	0	0
4076798	WORD	wordpools/wasnorm_wordpool_576.txt	LTP285	ltpFR2	1	17	WHISTLE	1606	n/a	n/a	0	0	0
4079510	WORD	wordpools/wasnorm_wordpool_576.txt	LTP285	ltpFR2	1	17	SUBWAY	1400	n/a	n/a	0	0	0
4081940	WORD	wordpools/wasnorm_wordpool_576.txt	LTP285	ltpFR2	1	17	HOOK	715	n/a	n/a	0	0	0
4084720	WORD	wordpools/wasnorm_wordpool_576.txt	LTP285	ltpFR2	1	17	SCALLOP	1242	n/a	n/a	0	0	0
4087331	WORD	wordpools/wasnorm_wordpool_576.txt	LTP285	ltpFR2	1	17	MARSH	874	n/a	n/a	0	0	0
4089779	WORD	wordpools/wasnorm_wordpool_576.txt	LTP285	ltpFR2	1	17	SPONGE	1355	n/a	n/a	0	0	0
4092574	WORD	wordpools/wasnorm_wordpool_576.txt	LTP285	ltpFR2	1	17	PERMIT	1051	n/a	n/a	0	0	0
4095020	WORD	wordpools/wasnorm_wordpool_576.txt	LTP285	ltpFR2	1	17	BLENDER	136	n/a	n/a	0	0	0
4097533	WORD	wordpools/wasnorm_wordpool_576.txt	LTP285	ltpFR2	1	17	SNACK	1331	n/a	n/a	0	0	0
4100079	WORD	wordpools/wasnorm_wordpool_576.txt	LTP285	ltpFR2	1	17	BANQUET	86	n/a	n/a	0	0	0
4102542	WORD	wordpools/wasnorm_wordpool_576.txt	LTP285	ltpFR2	1	17	TRUCK	1512	n/a	n/a	0	0	0
4105005	WORD	wordpools/wasnorm_wordpool_576.txt	LTP285	ltpFR2	1	17	SHRUB	1299	n/a	n/a	0	0	0
4107718	WORD	wordpools/wasnorm_wordpool_576.txt	LTP285	ltpFR2	1	17	SIDEWALK	1303	n/a	n/a	0	0	0
4109332	START	n/a	LTP285	ltpFR2	1	n/a	n/a	n/a	25	n/a	n/a	n/a	n/a
4110296	DISTRACTOR	n/a	LTP285	ltpFR2	1	17	n/a	n/a	n/a	n/a	0	0	0
4110297	PROB	n/a	LTP285	ltpFR2	1	n/a	n/a	n/a	25	13	6	4	3
4111746	PROB	n/a	LTP285	ltpFR2	1	n/a	n/a	n/a	25	16	7	8	1
4113159	PROB	n/a	LTP285	ltpFR2	1	n/a	n/a	n/a	25	17	9	5	3
4114924	PROB	n/a	LTP285	ltpFR2	1	n/a	n/a	n/a	25	16	3	4	9
4116488	PROB	n/a	LTP285	ltpFR2	1	n/a	n/a	n/a	25	21	6	6	9
4118135	PROB	n/a	LTP285	ltpFR2	1	n/a	n/a	n/a	25	14	5	7	2
4119667	PROB	n/a	LTP285	ltpFR2	1	n/a	n/a	n/a	25	11	1	8	2
4120782	PROB	n/a	LTP285	ltpFR2	1	n/a	n/a	n/a	25	15	6	7	2
4123828	PROB	n/a	LTP285	ltpFR2	1	n/a	n/a	n/a	25	13	7	5	1
4125458	PROB	n/a	LTP285	ltpFR2	1	n/a	n/a	n/a	25	14	4	1	9
4127155	PROB	n/a	LTP285	ltpFR2	1	n/a	n/a	n/a	25	21	8	4	9
4128854	PROB	n/a	LTP285	ltpFR2	1	n/a	n/a	n/a	25	16	1	8	7
4130134	PROB	n/a	LTP285	ltpFR2	1	n/a	n/a	n/a	25	14	5	7	2
4131864	STOP	n/a	LTP285	ltpFR2	1	n/a	n/a	n/a	25	n/a	n/a	n/a	n/a
4135110	REC_START	n/a	LTP285	ltpFR2	1	17	n/a	n/a	n/a	n/a	0	0	0
4135835	REC_WORD	wordpools/wasnorm_wordpool_576.txt	LTP285	ltpFR2	1	17	SHRUB	1299	n/a	n/a	0	0	0
4136842	REC_WORD	wordpools/wasnorm_wordpool_576.txt	LTP285	ltpFR2	1	17	SIDEWALK	1303	n/a	n/a	0	0	0
4147782	REC_WORD	wordpools/wasnorm_wordpool_576.txt	LTP285	ltpFR2	1	17	BANQUET	86	n/a	n/a	0	0	0
4148846	REC_WORD	wordpools/wasnorm_wordpool_576.txt	LTP285	ltpFR2	1	17	SNACK	1331	n/a	n/a	0	0	0
4157306	REC_WORD	wordpools/wasnorm_wordpool_576.txt	LTP285	ltpFR2	1	17	TRUCK	1512	n/a	n/a	0	0	0
4163442	REC_WORD	wordpools/wasnorm_wordpool_576.txt	LTP285	ltpFR2	1	17	MARSH	874	n/a	n/a	0	0	0
4170460	REC_WORD	wordpools/wasnorm_wordpool_576.txt	LTP285	ltpFR2	1	17	SCALLOP	1242	n/a	n/a	0	0	0
4174425	REC_WORD	wordpools/wasnorm_wordpool_576.txt	LTP285	ltpFR2	1	17	KNIFE	785	n/a	n/a	0	0	0
4176636	REC_WORD	wordpools/wasnorm_wordpool_576.txt	LTP285	ltpFR2	1	17	WAITER	1580	n/a	n/a	0	0	0
4184261	REC_WORD	wordpools/wasnorm_wordpool_576.txt	LTP285	ltpFR2	1	17	CRIB	407	n/a	n/a	0	0	0
4225776	DISTRACTOR	n/a	LTP285	ltpFR2	1	18	n/a	n/a	n/a	n/a	0	0	0
4225776	START	n/a	LTP285	ltpFR2	1	n/a	n/a	n/a	26	n/a	n/a	n/a	n/a
4225809	PROB	n/a	LTP285	ltpFR2	1	n/a	n/a	n/a	26	12	4	6	2
4227006	PROB	n/a	LTP285	ltpFR2	1	n/a	n/a	n/a	26	19	6	7	6
4228371	PROB	n/a	LTP285	ltpFR2	1	n/a	n/a	n/a	26	11	2	4	5
4230418	PROB	n/a	LTP285	ltpFR2	1	n/a	n/a	n/a	26	18	3	8	6
4231999	PROB	n/a	LTP285	ltpFR2	1	n/a	n/a	n/a	26	4	2	1	1
4233114	PROB	n/a	LTP285	ltpFR2	1	n/a	n/a	n/a	26	6	1	3	2
4234478	PROB	n/a	LTP285	ltpFR2	1	n/a	n/a	n/a	26	20	7	4	9
4236292	PROB	n/a	LTP285	ltpFR2	1	n/a	n/a	n/a	26	17	7	3	7
4237407	PROB	n/a	LTP285	ltpFR2	1	n/a	n/a	n/a	26	13	1	4	8
4239621	PROB	n/a	LTP285	ltpFR2	1	n/a	n/a	n/a	26	19	2	8	9
4240670	PROB	n/a	LTP285	ltpFR2	1	n/a	n/a	n/a	26	19	9	1	9
4243298	PROB	n/a	LTP285	ltpFR2	1	n/a	n/a	n/a	26	10	3	5	2
4244964	PROB	n/a	LTP285	ltpFR2	1	n/a	n/a	n/a	26	19	6	4	9
4246394	PROB	n/a	LTP285	ltpFR2	1	n/a	n/a	n/a	26	20	9	6	5
4248367	STOP	n/a	LTP285	ltpFR2	1	n/a	n/a	n/a	26	n/a	n/a	n/a	n/a
4250888	WORD	wordpools/wasnorm_wordpool_576.txt	LTP285	ltpFR2	1	18	CARROT	249	n/a	n/a	0	0	0
4253533	WORD	wordpools/wasnorm_wordpool_576.txt	LTP285	ltpFR2	1	18	COLONEL	348	n/a	n/a	0	0	0
4255980	WORD	wordpools/wasnorm_wordpool_576.txt	LTP285	ltpFR2	1	18	JEANS	752	n/a	n/a	0	0	0
4258560	WORD	wordpools/wasnorm_wordpool_576.txt	LTP285	ltpFR2	1	18	TWIG	1527	n/a	n/a	0	0	0
4261138	WORD	wordpools/wasnorm_wordpool_576.txt	LTP285	ltpFR2	1	18	FOOTBALL	591	n/a	n/a	0	0	0
4263586	WORD	wordpools/wasnorm_wordpool_576.txt	LTP285	ltpFR2	1	18	SKILLET	1317	n/a	n/a	0	0	0
4266214	WORD	wordpools/wasnorm_wordpool_576.txt	LTP285	ltpFR2	1	18	NOVEL	960	n/a	n/a	0	0	0
4268778	WORD	wordpools/wasnorm_wordpool_576.txt	LTP285	ltpFR2	1	18	BINDER	127	n/a	n/a	0	0	0
4271506	WORD	wordpools/wasnorm_wordpool_576.txt	LTP285	ltpFR2	1	18	ITEM	746	n/a	n/a	0	0	0
4274069	WORD	wordpools/wasnorm_wordpool_576.txt	LTP285	ltpFR2	1	18	BRAKE	166	n/a	n/a	0	0	0
4276499	WORD	wordpools/wasnorm_wordpool_576.txt	LTP285	ltpFR2	1	18	DIVER	476	n/a	n/a	0	0	0
4279195	WORD	wordpools/wasnorm_wordpool_576.txt	LTP285	ltpFR2	1	18	GALLON	618	n/a	n/a	0	0	0
4281892	WORD	wordpools/wasnorm_wordpool_576.txt	LTP285	ltpFR2	1	18	CANYON	235	n/a	n/a	0	0	0
4284337	WORD	wordpools/wasnorm_wordpool_576.txt	LTP285	ltpFR2	1	18	DAISY	435	n/a	n/a	0	0	0
4287083	WORD	wordpools/wasnorm_wordpool_576.txt	LTP285	ltpFR2	1	18	CAPTIVE	240	n/a	n/a	0	0	0
4289546	WORD	wordpools/wasnorm_wordpool_576.txt	LTP285	ltpFR2	1	18	YOLK	1633	n/a	n/a	0	0	0
4292175	WORD	wordpools/wasnorm_wordpool_576.txt	LTP285	ltpFR2	1	18	HEADBAND	696	n/a	n/a	0	0	0
4294739	WORD	wordpools/wasnorm_wordpool_576.txt	LTP285	ltpFR2	1	18	PERFUME	1049	n/a	n/a	0	0	0
4297451	WORD	wordpools/wasnorm_wordpool_576.txt	LTP285	ltpFR2	1	18	POSSUM	1112	n/a	n/a	0	0	0
4299948	WORD	wordpools/wasnorm_wordpool_576.txt	LTP285	ltpFR2	1	18	MAPLE	866	n/a	n/a	0	0	0
4302677	WORD	wordpools/wasnorm_wordpool_576.txt	LTP285	ltpFR2	1	18	TEACHER	1440	n/a	n/a	0	0	0
4305173	WORD	wordpools/wasnorm_wordpool_576.txt	LTP285	ltpFR2	1	18	COLLEGE	346	n/a	n/a	0	0	0
4307620	WORD	wordpools/wasnorm_wordpool_576.txt	LTP285	ltpFR2	1	18	FOX	598	n/a	n/a	0	0	0
4310198	WORD	wordpools/wasnorm_wordpool_576.txt	LTP285	ltpFR2	1	18	CRUTCH	417	n/a	n/a	0	0	0
4311814	START	n/a	LTP285	ltpFR2	1	n/a	n/a	n/a	27	n/a	n/a	n/a	n/a
4312766	DISTRACTOR	n/a	LTP285	ltpFR2	1	18	n/a	n/a	n/a	n/a	0	0	0
4312779	PROB	n/a	LTP285	ltpFR2	1	n/a	n/a	n/a	27	11	6	1	4
4313944	PROB	n/a	LTP285	ltpFR2	1	n/a	n/a	n/a	27	20	8	4	8
4315691	PROB	n/a	LTP285	ltpFR2	1	n/a	n/a	n/a	27	23	9	8	7
4318469	PROB	n/a	LTP285	ltpFR2	1	n/a	n/a	n/a	27	12	3	1	8
4319685	PROB	n/a	LTP285	ltpFR2	1	n/a	n/a	n/a	27	14	7	6	1
4320933	PROB	n/a	LTP285	ltpFR2	1	n/a	n/a	n/a	27	20	8	6	6
4322497	PROB	n/a	LTP285	ltpFR2	1	n/a	n/a	n/a	27	7	1	3	3
4323563	PROB	n/a	LTP285	ltpFR2	1	n/a	n/a	n/a	27	14	6	3	5
4325026	PROB	n/a	LTP285	ltpFR2	1	n/a	n/a	n/a	27	14	7	6	1
4326108	PROB	n/a	LTP285	ltpFR2	1	n/a	n/a	n/a	27	18	9	9	9
4327373	PROB	n/a	LTP285	ltpFR2	1	n/a	n/a	n/a	27	16	9	1	6
4329303	PROB	n/a	LTP285	ltpFR2	1	n/a	n/a	n/a	27	22	7	7	8
4330669	PROB	n/a	LTP285	ltpFR2	1	n/a	n/a	n/a	27	16	7	4	5
4331950	PROB	n/a	LTP285	ltpFR2	1	n/a	n/a	n/a	27	12	1	6	5
4333081	PROB	n/a	LTP285	ltpFR2	1	n/a	n/a	n/a	27	12	2	8	2
4335814	STOP	n/a	LTP285	ltpFR2	1	n/a	n/a	n/a	27	n/a	n/a	n/a	n/a
4337642	REC_START	n/a	LTP285	ltpFR2	1	18	n/a	n/a	n/a	n/a	0	0	0
4338403	REC_WORD	wordpools/wasnorm_wordpool_576.txt	LTP285	ltpFR2	1	18	CRUTCH	417	n/a	n/a	0	0	0
4339521	REC_WORD	wordpools/wasnorm_wordpool_576.txt	LTP285	ltpFR2	1	18	MAPLE	866	n/a	n/a	0	0	0
4340816	REC_WORD	wordpools/wasnorm_wordpool_576.txt	LTP285	ltpFR2	1	18	TWIG	1527	n/a	n/a	0	0	0
4345477	REC_WORD	wordpools/wasnorm_wordpool_576.txt	LTP285	ltpFR2	1	18	CANYON	235	n/a	n/a	0	0	0
4346905	REC_WORD	wordpools/wasnorm_wordpool_576.txt	LTP285	ltpFR2	1	18	COLLEGE	346	n/a	n/a	0	0	0
4349500	REC_WORD	wordpools/wasnorm_wordpool_576.txt	LTP285	ltpFR2	1	18	TEACHER	1440	n/a	n/a	0	0	0
4372341	REC_WORD	wordpools/wasnorm_wordpool_576.txt	LTP285	ltpFR2	1	18	PERFUME	1049	n/a	n/a	0	0	0
4374037	REC_WORD	wordpools/wasnorm_wordpool_576.txt	LTP285	ltpFR2	1	18	HEADBAND	696	n/a	n/a	0	0	0
4382573	REC_WORD	wordpools/wasnorm_wordpool_576.txt	LTP285	ltpFR2	1	18	SKILLET	1317	n/a	n/a	0	0	0
4428305	WORD	wordpools/wasnorm_wordpool_576.txt	LTP285	ltpFR2	1	19	ELBOW	520	n/a	n/a	0	0	0
4430869	WORD	wordpools/wasnorm_wordpool_576.txt	LTP285	ltpFR2	1	19	MARKER	870	n/a	n/a	0	0	0
4433632	WORD	wordpools/wasnorm_wordpool_576.txt	LTP285	ltpFR2	1	19	JUDGE	761	n/a	n/a	0	0	0
4436244	WORD	wordpools/wasnorm_wordpool_576.txt	LTP285	ltpFR2	1	19	GRILL	661	n/a	n/a	0	0	0
4438708	WORD	wordpools/wasnorm_wordpool_576.txt	LTP285	ltpFR2	1	19	APRON	35	n/a	n/a	0	0	0
4441269	WORD	wordpools/wasnorm_wordpool_576.txt	LTP285	ltpFR2	1	19	STREAM	1392	n/a	n/a	0	0	0
4443717	WORD	wordpools/wasnorm_wordpool_576.txt	LTP285	ltpFR2	1	19	PUDDLE	1140	n/a	n/a	0	0	0
4446512	WORD	wordpools/wasnorm_wordpool_576.txt	LTP285	ltpFR2	1	19	JURY	766	n/a	n/a	0	0	0
4449008	WORD	wordpools/wasnorm_wordpool_576.txt	LTP285	ltpFR2	1	19	OYSTER	995	n/a	n/a	0	0	0
4451471	WORD	wordpools/wasnorm_wordpool_576.txt	LTP285	ltpFR2	1	19	YARN	1631	n/a	n/a	0	0	0
4454100	WORD	wordpools/wasnorm_wordpool_576.txt	LTP285	ltpFR2	1	19	ICEBERG	731	n/a	n/a	0	0	0
4456831	WORD	wordpools/wasnorm_wordpool_576.txt	LTP285	ltpFR2	1	19	WAITRESS	1581	n/a	n/a	0	0	0
4459560	WORD	wordpools/wasnorm_wordpool_576.txt	LTP285	ltpFR2	1	19	COCOON	339	n/a	n/a	0	0	0
4462238	WORD	wordpools/wasnorm_wordpool_576.txt	LTP285	ltpFR2	1	19	BODY	145	n/a	n/a	0	0	0
4464735	WORD	wordpools/wasnorm_wordpool_576.txt	LTP285	ltpFR2	1	19	HORNET	718	n/a	n/a	0	0	0
4467414	WORD	wordpools/wasnorm_wordpool_576.txt	LTP285	ltpFR2	1	19	STONE	1385	n/a	n/a	0	0	0
4470076	WORD	wordpools/wasnorm_wordpool_576.txt	LTP285	ltpFR2	1	19	ROD	1203	n/a	n/a	0	0	0
4472724	WORD	wordpools/wasnorm_wordpool_576.txt	LTP285	ltpFR2	1	19	SCARF	1246	n/a	n/a	0	0	0
4475535	WORD	wordpools/wasnorm_wordpool_576.txt	LTP285	ltpFR2	1	19	TWEEZERS	1526	n/a	n/a	0	0	0
4478348	WORD	wordpools/wasnorm_wordpool_576.txt	LTP285	ltpFR2	1	19	OUTLAW	989	n/a	n/a	0	0	0
4481010	WORD	wordpools/wasnorm_wordpool_576.txt	LTP285	ltpFR2	1	19	VENUS	1557	n/a	n/a	0	0	0
4483641	WORD	wordpools/wasnorm_wordpool_576.txt	LTP285	ltpFR2	1	19	CUPBOARD	425	n/a	n/a	0	0	0
4486435	WORD	wordpools/wasnorm_wordpool_576.txt	LTP285	ltpFR2	1	19	COOK	372	n/a	n/a	0	0	0
4489181	WORD	wordpools/wasnorm_wordpool_576.txt	LTP285	ltpFR2	1	19	LASER	801	n/a	n/a	0	0	0
4490797	START	n/a	LTP285	ltpFR2	1	n/a	n/a	n/a	28	n/a	n/a	n/a	n/a
4491890	DISTRACTOR	n/a	LTP285	ltpFR2	1	19	n/a	n/a	n/a	n/a	0	0	0
4491895	PROB	n/a	LTP285	ltpFR2	1	n/a	n/a	n/a	28	18	5	7	6
4496954	PROB	n/a	LTP285	ltpFR2	1	n/a	n/a	n/a	28	20	2	9	9
4498301	PROB	n/a	LTP285	ltpFR2	1	n/a	n/a	n/a	28	13	8	3	2
4499983	PROB	n/a	LTP285	ltpFR2	1	n/a	n/a	n/a	28	14	9	3	2
4501463	PROB	n/a	LTP285	ltpFR2	1	n/a	n/a	n/a	28	7	2	3	2
4503044	PROB	n/a	LTP285	ltpFR2	1	n/a	n/a	n/a	28	15	2	9	4
4504759	PROB	n/a	LTP285	ltpFR2	1	n/a	n/a	n/a	28	14	9	3	2
4506089	PROB	n/a	LTP285	ltpFR2	1	n/a	n/a	n/a	28	11	5	4	2
4507605	PROB	n/a	LTP285	ltpFR2	1	n/a	n/a	n/a	28	19	4	8	7
4509085	PROB	n/a	LTP285	ltpFR2	1	n/a	n/a	n/a	28	20	4	7	9
4510767	PROB	n/a	LTP285	ltpFR2	1	n/a	n/a	n/a	28	19	7	8	4
4512614	PROB	n/a	LTP285	ltpFR2	1	n/a	n/a	n/a	28	18	2	9	7
4513952	STOP	n/a	LTP285	ltpFR2	1	n/a	n/a	n/a	28	n/a	n/a	n/a	n/a
4516575	REC_START	n/a	LTP285	ltpFR2	1	19	n/a	n/a	n/a	n/a	0	0	0
4517359	REC_WORD	wordpools/wasnorm_wordpool_576.txt	LTP285	ltpFR2	1	19	LASER	801	n/a	n/a	0	0	0
4518423	REC_WORD	wordpools/wasnorm_wordpool_576.txt	LTP285	ltpFR2	1	19	CUPBOARD	425	n/a	n/a	0	0	0
4519530	REC_WORD	wordpools/wasnorm_wordpool_576.txt	LTP285	ltpFR2	1	19	VENUS	1557	n/a	n/a	0	0	0
4520977	REC_WORD	wordpools/wasnorm_wordpool_576.txt	LTP285	ltpFR2	1	19	SCARF	1246	n/a	n/a	0	0	0
4522525	REC_WORD	wordpools/wasnorm_wordpool_576.txt	LTP285	ltpFR2	1	19	TWEEZERS	1526	n/a	n/a	0	0	0
4525199	REC_WORD	wordpools/wasnorm_wordpool_576.txt	LTP285	ltpFR2	1	19	OYSTER	995	n/a	n/a	0	0	0
4526824	REC_WORD	wordpools/wasnorm_wordpool_576.txt	LTP285	ltpFR2	1	19	WAITRESS	1581	n/a	n/a	0	0	0
4528307	REC_WORD	wordpools/wasnorm_wordpool_576.txt	LTP285	ltpFR2	1	19	OUTLAW	989	n/a	n/a	0	0	0
4536945	REC_WORD	wordpools/wasnorm_wordpool_576.txt	LTP285	ltpFR2	1	19	ICEBERG	731	n/a	n/a	0	0	0
4542449	REC_WORD	wordpools/wasnorm_wordpool_576.txt	LTP285	ltpFR2	1	19	JUDGE	761	n/a	n/a	0	0	0
4543720	REC_WORD	wordpools/wasnorm_wordpool_576.txt	LTP285	ltpFR2	1	19	JURY	766	n/a	n/a	0	0	0
4607238	WORD	wordpools/wasnorm_wordpool_576.txt	LTP285	ltpFR2	1	20	LILY	821	n/a	n/a	0	0	0
4610051	WORD	wordpools/wasnorm_wordpool_576.txt	LTP285	ltpFR2	1	20	BOYFRIEND	162	n/a	n/a	0	0	0
4612648	WORD	wordpools/wasnorm_wordpool_576.txt	LTP285	ltpFR2	1	20	PARTNER	1017	n/a	n/a	0	0	0
4615276	WORD	wordpools/wasnorm_wordpool_576.txt	LTP285	ltpFR2	1	20	SLUG	1329	n/a	n/a	0	0	0
4617873	WORD	wordpools/wasnorm_wordpool_576.txt	LTP285	ltpFR2	1	20	ROCKET	1202	n/a	n/a	0	0	0
4620535	WORD	wordpools/wasnorm_wordpool_576.txt	LTP285	ltpFR2	1	20	VIKING	1565	n/a	n/a	0	0	0
4623081	WORD	wordpools/wasnorm_wordpool_576.txt	LTP285	ltpFR2	1	20	COIN	343	n/a	n/a	0	0	0
4625629	WORD	wordpools/wasnorm_wordpool_576.txt	LTP285	ltpFR2	1	20	WASHER	1592	n/a	n/a	0	0	0
4628207	WORD	wordpools/wasnorm_wordpool_576.txt	LTP285	ltpFR2	1	20	TAXI	1438	n/a	n/a	0	0	0
4631020	WORD	wordpools/wasnorm_wordpool_576.txt	LTP285	ltpFR2	1	20	TOASTER	1472	n/a	n/a	0	0	0
4633717	WORD	wordpools/wasnorm_wordpool_576.txt	LTP285	ltpFR2	1	20	CLOTHES	327	n/a	n/a	0	0	0
4636195	WORD	wordpools/wasnorm_wordpool_576.txt	LTP285	ltpFR2	1	20	BURGLAR	200	n/a	n/a	0	0	0
4638742	WORD	wordpools/wasnorm_wordpool_576.txt	LTP285	ltpFR2	1	20	THIEF	1456	n/a	n/a	0	0	0
4641171	WORD	wordpools/wasnorm_wordpool_576.txt	LTP285	ltpFR2	1	20	HIKER	708	n/a	n/a	0	0	0
4643668	WORD	wordpools/wasnorm_wordpool_576.txt	LTP285	ltpFR2	1	20	FRUIT	610	n/a	n/a	0	0	0
4646297	WORD	wordpools/wasnorm_wordpool_576.txt	LTP285	ltpFR2	1	20	MONEY	908	n/a	n/a	0	0	0
4648861	WORD	wordpools/wasnorm_wordpool_576.txt	LTP285	ltpFR2	1	20	OUTFIT	988	n/a	n/a	0	0	0
4651389	WORD	wordpools/wasnorm_wordpool_576.txt	LTP285	ltpFR2	1	20	GRAVEL	659	n/a	n/a	0	0	0
4653953	WORD	wordpools/wasnorm_wordpool_576.txt	LTP285	ltpFR2	1	20	ULCER	1533	n/a	n/a	0	0	0
4656465	WORD	wordpools/wasnorm_wordpool_576.txt	LTP285	ltpFR2	1	20	MEAT	883	n/a	n/a	0	0	0
4659128	WORD	wordpools/wasnorm_wordpool_576.txt	LTP285	ltpFR2	1	20	MISSILE	900	n/a	n/a	0	0	0
4661592	WORD	wordpools/wasnorm_wordpool_576.txt	LTP285	ltpFR2	1	20	FLAG	573	n/a	n/a	0	0	0
4664153	WORD	wordpools/wasnorm_wordpool_576.txt	LTP285	ltpFR2	1	20	HIGHWAY	707	n/a	n/a	0	0	0
4666850	WORD	wordpools/wasnorm_wordpool_576.txt	LTP285	ltpFR2	1	20	DRESSER	496	n/a	n/a	0	0	0
4668464	START	n/a	LTP285	ltpFR2	1	n/a	n/a	n/a	29	n/a	n/a	n/a	n/a
4669291	DISTRACTOR	n/a	LTP285	ltpFR2	1	20	n/a	n/a	n/a	n/a	0	0	0
4669296	PROB	n/a	LTP285	ltpFR2	1	n/a	n/a	n/a	29	11	4	5	2
4670794	PROB	n/a	LTP285	ltpFR2	1	n/a	n/a	n/a	29	18	5	4	9
4672125	PROB	n/a	LTP285	ltpFR2	1	n/a	n/a	n/a	29	14	4	8	2
4674655	PROB	n/a	LTP285	ltpFR2	1	n/a	n/a	n/a	29	5	3	1	1
4675737	PROB	n/a	LTP285	ltpFR2	1	n/a	n/a	n/a	29	16	9	4	3
4677867	PROB	n/a	LTP285	ltpFR2	1	n/a	n/a	n/a	29	21	5	7	7
4679497	PROB	n/a	LTP285	ltpFR2	1	n/a	n/a	n/a	29	17	6	7	4
4681394	PROB	n/a	LTP285	ltpFR2	1	n/a	n/a	n/a	29	19	4	8	7
4682693	PROB	n/a	LTP285	ltpFR2	1	n/a	n/a	n/a	29	2	6	5	9
4684440	PROB	n/a	LTP285	ltpFR2	1	n/a	n/a	n/a	29	20	9	4	7
4686187	PROB	n/a	LTP285	ltpFR2	1	n/a	n/a	n/a	29	10	1	6	3
4688684	PROB	n/a	LTP285	ltpFR2	1	n/a	n/a	n/a	29	17	4	5	8
4690681	PROB	n/a	LTP285	ltpFR2	1	n/a	n/a	n/a	29	9	7	1	1
4691712	STOP	n/a	LTP285	ltpFR2	1	n/a	n/a	n/a	29	n/a	n/a	n/a	n/a
4694259	REC_START	n/a	LTP285	ltpFR2	1	20	n/a	n/a	n/a	n/a	0	0	0
4694913	REC_WORD	wordpools/wasnorm_wordpool_576.txt	LTP285	ltpFR2	1	20	DRESSER	496	n/a	n/a	0	0	0
4696078	REC_WORD	wordpools/wasnorm_wordpool_576.txt	LTP285	ltpFR2	1	20	WASHER	1592	n/a	n/a	0	0	0
4698095	REC_WORD	wordpools/wasnorm_wordpool_576.txt	LTP285	ltpFR2	1	20	THIEF	1456	n/a	n/a	0	0	0
4700165	REC_WORD	wordpools/wasnorm_wordpool_576.txt	LTP285	ltpFR2	1	20	ROBBER	1197	n/a	n/a	0	0	0
4710252	REC_WORD	wordpools/wasnorm_wordpool_576.txt	LTP285	ltpFR2	1	20	HIGHWAY	707	n/a	n/a	0	0	0
4711511	REC_WORD	wordpools/wasnorm_wordpool_576.txt	LTP285	ltpFR2	1	20	GRAVEL	659	n/a	n/a	0	0	0
4736244	REC_WORD	wordpools/wasnorm_wordpool_576.txt	LTP285	ltpFR2	1	20	TAXI	1438	n/a	n/a	0	0	0
4749880	REC_WORD	wordpools/wasnorm_wordpool_576.txt	LTP285	ltpFR2	1	20	BURGLAR	200	n/a	n/a	0	0	0
4784974	DISTRACTOR	n/a	LTP285	ltpFR2	1	21	n/a	n/a	n/a	n/a	0	0	0
4784974	START	n/a	LTP285	ltpFR2	1	n/a	n/a	n/a	30	n/a	n/a	n/a	n/a
4785006	PROB	n/a	LTP285	ltpFR2	1	n/a	n/a	n/a	30	17	9	1	7
4786221	PROB	n/a	LTP285	ltpFR2	1	n/a	n/a	n/a	30	17	5	5	7
4787403	PROB	n/a	LTP285	ltpFR2	1	n/a	n/a	n/a	30	21	8	5	9
4789933	PROB	n/a	LTP285	ltpFR2	1	n/a	n/a	n/a	30	23	8	8	7
4791430	PROB	n/a	LTP285	ltpFR2	1	n/a	n/a	n/a	30	15	9	2	4
4792896	PROB	n/a	LTP285	ltpFR2	1	n/a	n/a	n/a	30	17	6	9	2
4795341	PROB	n/a	LTP285	ltpFR2	1	n/a	n/a	n/a	30	24	9	8	9
4797538	PROB	n/a	LTP285	ltpFR2	1	n/a	n/a	n/a	30	19	8	2	9
4798687	PROB	n/a	LTP285	ltpFR2	1	n/a	n/a	n/a	30	19	9	4	6
4800084	PROB	n/a	LTP285	ltpFR2	1	n/a	n/a	n/a	30	15	8	6	1
4801799	PROB	n/a	LTP285	ltpFR2	1	n/a	n/a	n/a	30	9	1	3	5
4803696	PROB	n/a	LTP285	ltpFR2	1	n/a	n/a	n/a	30	19	7	9	3
4805826	PROB	n/a	LTP285	ltpFR2	1	n/a	n/a	n/a	30	14	3	7	4
4807206	PROB	n/a	LTP285	ltpFR2	1	n/a	n/a	n/a	30	8	2	5	1
4808431	STOP	n/a	LTP285	ltpFR2	1	n/a	n/a	n/a	30	n/a	n/a	n/a	n/a
4810185	WORD	wordpools/wasnorm_wordpool_576.txt	LTP285	ltpFR2	1	21	BRANCH	168	n/a	n/a	0	0	0
4812866	WORD	wordpools/wasnorm_wordpool_576.txt	LTP285	ltpFR2	1	21	TWISTER	1530	n/a	n/a	0	0	0
4815645	WORD	wordpools/wasnorm_wordpool_576.txt	LTP285	ltpFR2	1	21	CYCLONE	431	n/a	n/a	0	0	0
4818107	WORD	wordpools/wasnorm_wordpool_576.txt	LTP285	ltpFR2	1	21	STOVE	1388	n/a	n/a	0	0	0
4820554	WORD	wordpools/wasnorm_wordpool_576.txt	LTP285	ltpFR2	1	21	FOREHEAD	592	n/a	n/a	0	0	0
4823166	WORD	wordpools/wasnorm_wordpool_576.txt	LTP285	ltpFR2	1	21	WRENCH	1625	n/a	n/a	0	0	0
4825697	WORD	wordpools/wasnorm_wordpool_576.txt	LTP285	ltpFR2	1	21	HEDGE	699	n/a	n/a	0	0	0
4828125	WORD	wordpools/wasnorm_wordpool_576.txt	LTP285	ltpFR2	1	21	NIGHTGOWN	953	n/a	n/a	0	0	0
4830622	WORD	wordpools/wasnorm_wordpool_576.txt	LTP285	ltpFR2	1	21	TRENCH	1503	n/a	n/a	0	0	0
4833284	WORD	wordpools/wasnorm_wordpool_576.txt	LTP285	ltpFR2	1	21	WRIST	1626	n/a	n/a	0	0	0
4835715	WORD	wordpools/wasnorm_wordpool_576.txt	LTP285	ltpFR2	1	21	HAND	683	n/a	n/a	0	0	0
4838210	WORD	wordpools/wasnorm_wordpool_576.txt	LTP285	ltpFR2	1	21	PEDAL	1037	n/a	n/a	0	0	0
4840891	WORD	wordpools/wasnorm_wordpool_576.txt	LTP285	ltpFR2	1	21	COUNTRY	388	n/a	n/a	0	0	0
4843519	WORD	wordpools/wasnorm_wordpool_576.txt	LTP285	ltpFR2	1	21	STUDENT	1395	n/a	n/a	0	0	0
4846248	WORD	wordpools/wasnorm_wordpool_576.txt	LTP285	ltpFR2	1	21	COURSE	390	n/a	n/a	0	0	0
4848962	WORD	wordpools/wasnorm_wordpool_576.txt	LTP285	ltpFR2	1	21	DORM	488	n/a	n/a	0	0	0
4851474	WORD	wordpools/wasnorm_wordpool_576.txt	LTP285	ltpFR2	1	21	RAZOR	1171	n/a	n/a	0	0	0
4853921	WORD	wordpools/wasnorm_wordpool_576.txt	LTP285	ltpFR2	1	21	DRILL	497	n/a	n/a	0	0	0
4856667	WORD	wordpools/wasnorm_wordpool_576.txt	LTP285	ltpFR2	1	21	PILOT	1070	n/a	n/a	0	0	0
4859262	WORD	wordpools/wasnorm_wordpool_576.txt	LTP285	ltpFR2	1	21	DRIVER	499	n/a	n/a	0	0	0
4861991	WORD	wordpools/wasnorm_wordpool_576.txt	LTP285	ltpFR2	1	21	OFFICE	972	n/a	n/a	0	0	0
4864438	WORD	wordpools/wasnorm_wordpool_576.txt	LTP285	ltpFR2	1	21	FINGER	567	n/a	n/a	0	0	0
4867100	WORD	wordpools/wasnorm_wordpool_576.txt	LTP285	ltpFR2	1	21	TUTU	1524	n/a	n/a	0	0	0
4869731	WORD	wordpools/wasnorm_wordpool_576.txt	LTP285	ltpFR2	1	21	LOFT	840	n/a	n/a	0	0	0
4871344	START	n/a	LTP285	ltpFR2	1	n/a	n/a	n/a	31	n/a	n/a	n/a	n/a
4872220	DISTRACTOR	n/a	LTP285	ltpFR2	1	21	n/a	n/a	n/a	n/a	0	0	0
4872226	PROB	n/a	LTP285	ltpFR2	1	n/a	n/a	n/a	31	8	3	1	4
4873391	PROB	n/a	LTP285	ltpFR2	1	n/a	n/a	n/a	31	14	2	9	3
4875122	PROB	n/a	LTP285	ltpFR2	1	n/a	n/a	n/a	31	12	2	8	2
4876203	PROB	n/a	LTP285	ltpFR2	1	n/a	n/a	n/a	31	14	4	5	5
4877252	PROB	n/a	LTP285	ltpFR2	1	n/a	n/a	n/a	31	13	6	1	6
