mstime	trial_type	stim_file	subject	experiment	session	trial	task	item_name	item_num	recog_resp	recog_conf	resp	color_r	color_g	color_b	case	font
0	SESS_START	n/a	LTP290	ltpFR	18	n/a	n/a	n/a	n/a	0	2	n/a	n/a	n/a	n/a	n/a	n/a
36043	WORD	wordpools/wasnorm_wordpool_less_exclusions.txt	LTP290	ltpFR	18	1	0	BUFFALO	186	0	n/a	0	0.422607421875	0.5869140625	0	upper	zerothre.ttf
40230	WORD	wordpools/wasnorm_wordpool_less_exclusions.txt	LTP290	ltpFR	18	1	0	WALRUS	1585	n/a	n/a	1	0.422607421875	0.5869140625	0	upper	zerothre.ttf
44124	WORD	wordpools/wasnorm_wordpool_less_exclusions.txt	LTP290	ltpFR	18	1	0	RIVER	1194	n/a	n/a	1	0.422607421875	0.5869140625	0	upper	zerothre.ttf
48260	WORD	wordpools/wasnorm_wordpool_less_exclusions.txt	LTP290	ltpFR	18	1	0	FLANNEL	574	n/a	n/a	0	0.422607421875	0.5869140625	0	upper	zerothre.ttf
52242	WORD	wordpools/wasnorm_wordpool_less_exclusions.txt	LTP290	ltpFR	18	1	1	VEST	1559	n/a	n/a	0	0.57763671875	0.412841796875	1	lower	amplitud.ttf
56442	WORD	wordpools/wasnorm_wordpool_less_exclusions.txt	LTP290	ltpFR	18	1	1	BARLEY	88	n/a	n/a	1	0.57763671875	0.412841796875	1	lower	amplitud.ttf
60372	WORD	wordpools/wasnorm_wordpool_less_exclusions.txt	LTP290	ltpFR	18	1	1	PRODUCER	1129	n/a	n/a	1	0.57763671875	0.412841796875	1	lower	amplitud.ttf
64569	WORD	wordpools/wasnorm_wordpool_less_exclusions.txt	LTP290	ltpFR	18	1	1	VAGRANT	1544	n/a	n/a	0	0.57763671875	0.412841796875	1	lower	amplitud.ttf
68734	WORD	wordpools/wasnorm_wordpool_less_exclusions.txt	LTP290	ltpFR	18	1	0	KNIGHT	786	n/a	n/a	1	0.422607421875	0.5869140625	0	upper	zerothre.ttf
72737	WORD	wordpools/wasnorm_wordpool_less_exclusions.txt	LTP290	ltpFR	18	1	0	STAFF	1365	n/a	n/a	1	0.422607421875	0.5869140625	0	upper	zerothre.ttf
76935	WORD	wordpools/wasnorm_wordpool_less_exclusions.txt	LTP290	ltpFR	18	1	0	GANG	619	n/a	n/a	1	0.422607421875	0.5869140625	0	upper	zerothre.ttf
81017	WORD	wordpools/wasnorm_wordpool_less_exclusions.txt	LTP290	ltpFR	18	1	0	SALMON	1227	n/a	n/a	0	0.422607421875	0.5869140625	0	upper	zerothre.ttf
85233	WORD	wordpools/wasnorm_wordpool_less_exclusions.txt	LTP290	ltpFR	18	1	1	BARRACUDA	90	n/a	n/a	1	0.57763671875	0.412841796875	1	lower	amplitud.ttf
89396	WORD	wordpools/wasnorm_wordpool_less_exclusions.txt	LTP290	ltpFR	18	1	1	ONION	977	n/a	n/a	0	0.57763671875	0.412841796875	1	lower	amplitud.ttf
93246	WORD	wordpools/wasnorm_wordpool_less_exclusions.txt	LTP290	ltpFR	18	1	1	RAFT	1159	n/a	n/a	0	0.57763671875	0.412841796875	1	lower	amplitud.ttf
97245	WORD	wordpools/wasnorm_wordpool_less_exclusions.txt	LTP290	ltpFR	18	1	1	ZIPPER	1636	n/a	n/a	0	0.57763671875	0.412841796875	1	lower	amplitud.ttf
102885	REC_START	n/a	LTP290	ltpFR	18	1	n/a	n/a	n/a	n/a	n/a	n/a	n/a	n/a	n/a	n/a	n/a
104889	REC_WORD_VV	wordpools/wasnorm_wordpool_less_exclusions.txt	LTP290	ltpFR	18	1	n/a	<>	-1	n/a	n/a	n/a	n/a	n/a	n/a	n/a	n/a
105444	REC_WORD	wordpools/wasnorm_wordpool_less_exclusions.txt	LTP290	ltpFR	18	1	1	RAFT	1159	n/a	n/a	0	n/a	n/a	n/a	n/a	n/a
105883	REC_WORD	wordpools/wasnorm_wordpool_less_exclusions.txt	LTP290	ltpFR	18	1	1	ONION	977	n/a	n/a	0	n/a	n/a	n/a	n/a	n/a
106306	REC_WORD	wordpools/wasnorm_wordpool_less_exclusions.txt	LTP290	ltpFR	18	1	1	ZIPPER	1636	n/a	n/a	0	n/a	n/a	n/a	n/a	n/a
110174	REC_WORD	wordpools/wasnorm_wordpool_less_exclusions.txt	LTP290	ltpFR	18	1	0	BUFFALO	186	n/a	n/a	0	n/a	n/a	n/a	n/a	n/a
110590	REC_WORD	wordpools/wasnorm_wordpool_less_exclusions.txt	LTP290	ltpFR	18	1	0	WALRUS	1585	n/a	n/a	1	n/a	n/a	n/a	n/a	n/a
111564	REC_WORD	wordpools/wasnorm_wordpool_less_exclusions.txt	LTP290	ltpFR	18	1	0	RIVER	1194	n/a	n/a	1	n/a	n/a	n/a	n/a	n/a
112266	REC_WORD	wordpools/wasnorm_wordpool_less_exclusions.txt	LTP290	ltpFR	18	1	0	FLANNEL	574	n/a	n/a	0	n/a	n/a	n/a	n/a	n/a
113050	REC_WORD	wordpools/wasnorm_wordpool_less_exclusions.txt	LTP290	ltpFR	18	1	1	VEST	1559	n/a	n/a	0	n/a	n/a	n/a	n/a	n/a
117677	REC_WORD	wordpools/wasnorm_wordpool_less_exclusions.txt	LTP290	ltpFR	18	1	1	PRODUCER	1129	n/a	n/a	1	n/a	n/a	n/a	n/a	n/a
118561	REC_WORD	wordpools/wasnorm_wordpool_less_exclusions.txt	LTP290	ltpFR	18	1	1	BARLEY	88	n/a	n/a	1	n/a	n/a	n/a	n/a	n/a
119871	REC_WORD	wordpools/wasnorm_wordpool_less_exclusions.txt	LTP290	ltpFR	18	1	0	KNIGHT	786	n/a	n/a	1	n/a	n/a	n/a	n/a	n/a
126334	REC_WORD	wordpools/wasnorm_wordpool_less_exclusions.txt	LTP290	ltpFR	18	1	0	SALMON	1227	n/a	n/a	0	n/a	n/a	n/a	n/a	n/a
127006	REC_WORD	wordpools/wasnorm_wordpool_less_exclusions.txt	LTP290	ltpFR	18	1	0	STAFF	1365	n/a	n/a	1	n/a	n/a	n/a	n/a	n/a
129718	REC_WORD	wordpools/wasnorm_wordpool_less_exclusions.txt	LTP290	ltpFR	18	1	0	GANG	619	n/a	n/a	1	n/a	n/a	n/a	n/a	n/a
141509	REC_WORD	wordpools/wasnorm_wordpool_less_exclusions.txt	LTP290	ltpFR	18	1	1	VAGRANT	1544	n/a	n/a	0	n/a	n/a	n/a	n/a	n/a
181430	WORD	wordpools/wasnorm_wordpool_less_exclusions.txt	LTP290	ltpFR	18	2	1	CHECKERS	285	n/a	n/a	0	0.57763671875	0.412841796875	1	lower	amplitud.ttf
185306	WORD	wordpools/wasnorm_wordpool_less_exclusions.txt	LTP290	ltpFR	18	2	1	VOLLEYBALL	1576	n/a	n/a	0	0.57763671875	0.412841796875	1	lower	amplitud.ttf
189494	WORD	wordpools/wasnorm_wordpool_less_exclusions.txt	LTP290	ltpFR	18	2	0	TOWER	1490	n/a	n/a	1	0.422607421875	0.5869140625	0	upper	zerothre.ttf
193626	WORD	wordpools/wasnorm_wordpool_less_exclusions.txt	LTP290	ltpFR	18	2	0	CHEERLEADER	288	n/a	n/a	1	0.422607421875	0.5869140625	0	upper	zerothre.ttf
197624	WORD	wordpools/wasnorm_wordpool_less_exclusions.txt	LTP290	ltpFR	18	2	0	DILL	465	n/a	n/a	0	0.422607421875	0.5869140625	0	upper	zerothre.ttf
201572	WORD	wordpools/wasnorm_wordpool_less_exclusions.txt	LTP290	ltpFR	18	2	0	ALMOND	18	n/a	n/a	0	0.422607421875	0.5869140625	0	upper	zerothre.ttf
205667	WORD	wordpools/wasnorm_wordpool_less_exclusions.txt	LTP290	ltpFR	18	2	1	NEPTUNE	943	n/a	n/a	0	0.57763671875	0.412841796875	1	lower	amplitud.ttf
209870	WORD	wordpools/wasnorm_wordpool_less_exclusions.txt	LTP290	ltpFR	18	2	1	SHIP	1286	n/a	n/a	0	0.57763671875	0.412841796875	1	lower	amplitud.ttf
214085	WORD	wordpools/wasnorm_wordpool_less_exclusions.txt	LTP290	ltpFR	18	2	1	CAPTAIN	239	n/a	n/a	1	0.57763671875	0.412841796875	1	lower	amplitud.ttf
217950	WORD	wordpools/wasnorm_wordpool_less_exclusions.txt	LTP290	ltpFR	18	2	1	DONKEY	484	n/a	n/a	0	0.57763671875	0.412841796875	1	lower	amplitud.ttf
221931	WORD	wordpools/wasnorm_wordpool_less_exclusions.txt	LTP290	ltpFR	18	2	0	VOLUNTEER	1577	n/a	n/a	1	0.422607421875	0.5869140625	0	upper	zerothre.ttf
225896	WORD	wordpools/wasnorm_wordpool_less_exclusions.txt	LTP290	ltpFR	18	2	0	REFEREE	1178	n/a	n/a	1	0.422607421875	0.5869140625	0	upper	zerothre.ttf
229812	WORD	wordpools/wasnorm_wordpool_less_exclusions.txt	LTP290	ltpFR	18	2	0	COOKIE	374	n/a	n/a	0	0.422607421875	0.5869140625	0	upper	zerothre.ttf
233857	WORD	wordpools/wasnorm_wordpool_less_exclusions.txt	LTP290	ltpFR	18	2	0	GARLIC	624	n/a	n/a	0	0.422607421875	0.5869140625	0	upper	zerothre.ttf
237876	WORD	wordpools/wasnorm_wordpool_less_exclusions.txt	LTP290	ltpFR	18	2	1	TART	1436	n/a	n/a	0	0.57763671875	0.412841796875	1	lower	amplitud.ttf
241990	WORD	wordpools/wasnorm_wordpool_less_exclusions.txt	LTP290	ltpFR	18	2	1	SQUIRREL	1362	n/a	n/a	1	0.57763671875	0.412841796875	1	lower	amplitud.ttf
247930	REC_START	n/a	LTP290	ltpFR	18	2	n/a	n/a	n/a	n/a	n/a	n/a	n/a	n/a	n/a	n/a	n/a
248203	REC_WORD_VV	wordpools/wasnorm_wordpool_less_exclusions.txt	LTP290	ltpFR	18	2	n/a	<>	-1	n/a	n/a	n/a	n/a	n/a	n/a	n/a	n/a
250547	REC_WORD	wordpools/wasnorm_wordpool_less_exclusions.txt	LTP290	ltpFR	18	2	1	SQUIRREL	1362	n/a	n/a	1	n/a	n/a	n/a	n/a	n/a
251547	REC_WORD_VV	wordpools/wasnorm_wordpool_less_exclusions.txt	LTP290	ltpFR	18	2	n/a	<>	-1	n/a	n/a	n/a	n/a	n/a	n/a	n/a	n/a
251885	REC_WORD	wordpools/wasnorm_wordpool_less_exclusions.txt	LTP290	ltpFR	18	2	1	TART	1436	n/a	n/a	0	n/a	n/a	n/a	n/a	n/a
260429	REC_WORD	wordpools/wasnorm_wordpool_less_exclusions.txt	LTP290	ltpFR	18	2	1	VOLLEYBALL	1576	n/a	n/a	0	n/a	n/a	n/a	n/a	n/a
261088	REC_WORD	wordpools/wasnorm_wordpool_less_exclusions.txt	LTP290	ltpFR	18	2	1	CHECKERS	285	n/a	n/a	0	n/a	n/a	n/a	n/a	n/a
261915	REC_WORD	wordpools/wasnorm_wordpool_less_exclusions.txt	LTP290	ltpFR	18	2	0	CHEERLEADER	288	n/a	n/a	1	n/a	n/a	n/a	n/a	n/a
265413	REC_WORD	wordpools/wasnorm_wordpool_less_exclusions.txt	LTP290	ltpFR	18	2	0	TOWER	1490	n/a	n/a	1	n/a	n/a	n/a	n/a	n/a
268431	REC_WORD	wordpools/wasnorm_wordpool_less_exclusions.txt	LTP290	ltpFR	18	2	0	REFEREE	1178	n/a	n/a	1	n/a	n/a	n/a	n/a	n/a
270067	REC_WORD	wordpools/wasnorm_wordpool_less_exclusions.txt	LTP290	ltpFR	18	2	0	COOKIE	374	n/a	n/a	0	n/a	n/a	n/a	n/a	n/a
273056	REC_WORD	wordpools/wasnorm_wordpool_less_exclusions.txt	LTP290	ltpFR	18	2	1	NEPTUNE	943	n/a	n/a	0	n/a	n/a	n/a	n/a	n/a
274904	REC_WORD	wordpools/wasnorm_wordpool_less_exclusions.txt	LTP290	ltpFR	18	2	1	CAPTAIN	239	n/a	n/a	1	n/a	n/a	n/a	n/a	n/a
275439	REC_WORD	wordpools/wasnorm_wordpool_less_exclusions.txt	LTP290	ltpFR	18	2	1	SHIP	1286	n/a	n/a	0	n/a	n/a	n/a	n/a	n/a
276276	REC_WORD	wordpools/wasnorm_wordpool_less_exclusions.txt	LTP290	ltpFR	18	2	1	DONKEY	484	n/a	n/a	0	n/a	n/a	n/a	n/a	n/a
341617	WORD	wordpools/wasnorm_wordpool_less_exclusions.txt	LTP290	ltpFR	18	3	1	APE	31	n/a	n/a	1	0.57763671875	0.412841796875	1	lower	amplitud.ttf
345712	WORD	wordpools/wasnorm_wordpool_less_exclusions.txt	LTP290	ltpFR	18	3	1	SPONGE	1355	n/a	n/a	0	0.57763671875	0.412841796875	1	lower	amplitud.ttf
349831	WORD	wordpools/wasnorm_wordpool_less_exclusions.txt	LTP290	ltpFR	18	3	0	BAY	102	n/a	n/a	1	0.422607421875	0.5869140625	0	upper	zerothre.ttf
353679	WORD	wordpools/wasnorm_wordpool_less_exclusions.txt	LTP290	ltpFR	18	3	0	BLANKET	135	n/a	n/a	0	0.422607421875	0.5869140625	0	upper	zerothre.ttf
357774	WORD	wordpools/wasnorm_wordpool_less_exclusions.txt	LTP290	ltpFR	18	3	0	SHARK	1275	n/a	n/a	1	0.422607421875	0.5869140625	0	upper	zerothre.ttf
361893	WORD	wordpools/wasnorm_wordpool_less_exclusions.txt	LTP290	ltpFR	18	3	1	BIOLOGIST	128	n/a	n/a	1	0.57763671875	0.412841796875	1	lower	amplitud.ttf
365888	WORD	wordpools/wasnorm_wordpool_less_exclusions.txt	LTP290	ltpFR	18	3	1	SIDEWALK	1303	n/a	n/a	0	0.57763671875	0.412841796875	1	lower	amplitud.ttf
369873	WORD	wordpools/wasnorm_wordpool_less_exclusions.txt	LTP290	ltpFR	18	3	0	ALLEY	15	n/a	n/a	1	0.422607421875	0.5869140625	0	upper	zerothre.ttf
373950	WORD	wordpools/wasnorm_wordpool_less_exclusions.txt	LTP290	ltpFR	18	3	0	BASKET	95	n/a	n/a	0	0.422607421875	0.5869140625	0	upper	zerothre.ttf
378120	WORD	wordpools/wasnorm_wordpool_less_exclusions.txt	LTP290	ltpFR	18	3	0	TABLE	1426	n/a	n/a	1	0.422607421875	0.5869140625	0	upper	zerothre.ttf
382068	WORD	wordpools/wasnorm_wordpool_less_exclusions.txt	LTP290	ltpFR	18	3	0	PRIMATE	1123	n/a	n/a	1	0.422607421875	0.5869140625	0	upper	zerothre.ttf
386050	WORD	wordpools/wasnorm_wordpool_less_exclusions.txt	LTP290	ltpFR	18	3	0	TEAPOT	1442	n/a	n/a	1	0.422607421875	0.5869140625	0	upper	zerothre.ttf
390132	WORD	wordpools/wasnorm_wordpool_less_exclusions.txt	LTP290	ltpFR	18	3	1	EAR	513	n/a	n/a	0	0.57763671875	0.412841796875	1	lower	amplitud.ttf
393997	WORD	wordpools/wasnorm_wordpool_less_exclusions.txt	LTP290	ltpFR	18	3	1	POLYESTER	1100	n/a	n/a	0	0.57763671875	0.412841796875	1	lower	amplitud.ttf
398179	WORD	wordpools/wasnorm_wordpool_less_exclusions.txt	LTP290	ltpFR	18	3	1	SWAMP	1416	n/a	n/a	0	0.57763671875	0.412841796875	1	lower	amplitud.ttf
402144	WORD	wordpools/wasnorm_wordpool_less_exclusions.txt	LTP290	ltpFR	18	3	1	BUN	197	n/a	n/a	0	0.57763671875	0.412841796875	1	lower	amplitud.ttf
407917	REC_START	n/a	LTP290	ltpFR	18	3	n/a	n/a	n/a	n/a	n/a	n/a	n/a	n/a	n/a	n/a	n/a
410432	REC_WORD_VV	wordpools/wasnorm_wordpool_less_exclusions.txt	LTP290	ltpFR	18	3	n/a	<>	-1	n/a	n/a	n/a	n/a	n/a	n/a	n/a	n/a
411215	REC_WORD	wordpools/wasnorm_wordpool_less_exclusions.txt	LTP290	ltpFR	18	3	1	BUN	197	n/a	n/a	0	n/a	n/a	n/a	n/a	n/a
411639	REC_WORD	wordpools/wasnorm_wordpool_less_exclusions.txt	LTP290	ltpFR	18	3	1	EAR	513	n/a	n/a	0	n/a	n/a	n/a	n/a	n/a
412019	REC_WORD	wordpools/wasnorm_wordpool_less_exclusions.txt	LTP290	ltpFR	18	3	1	POLYESTER	1100	n/a	n/a	0	n/a	n/a	n/a	n/a	n/a
412847	REC_WORD	wordpools/wasnorm_wordpool_less_exclusions.txt	LTP290	ltpFR	18	3	0	TEAPOT	1442	n/a	n/a	1	n/a	n/a	n/a	n/a	n/a
413623	REC_WORD	wordpools/wasnorm_wordpool_less_exclusions.txt	LTP290	ltpFR	18	3	0	BASKET	95	n/a	n/a	0	n/a	n/a	n/a	n/a	n/a
414297	REC_WORD	wordpools/wasnorm_wordpool_less_exclusions.txt	LTP290	ltpFR	18	3	0	PRIMATE	1123	n/a	n/a	1	n/a	n/a	n/a	n/a	n/a
415867	REC_WORD	wordpools/wasnorm_wordpool_less_exclusions.txt	LTP290	ltpFR	18	3	0	TABLE	1426	n/a	n/a	1	n/a	n/a	n/a	n/a	n/a
416715	REC_WORD	wordpools/wasnorm_wordpool_less_exclusions.txt	LTP290	ltpFR	18	3	1	SIDEWALK	1303	n/a	n/a	0	n/a	n/a	n/a	n/a	n/a
417413	REC_WORD	wordpools/wasnorm_wordpool_less_exclusions.txt	LTP290	ltpFR	18	3	0	ALLEY	15	n/a	n/a	1	n/a	n/a	n/a	n/a	n/a
418535	REC_WORD	wordpools/wasnorm_wordpool_less_exclusions.txt	LTP290	ltpFR	18	3	1	BIOLOGIST	128	n/a	n/a	1	n/a	n/a	n/a	n/a	n/a
421724	REC_WORD	wordpools/wasnorm_wordpool_less_exclusions.txt	LTP290	ltpFR	18	3	0	BAY	102	n/a	n/a	1	n/a	n/a	n/a	n/a	n/a
422395	REC_WORD	wordpools/wasnorm_wordpool_less_exclusions.txt	LTP290	ltpFR	18	3	1	SPONGE	1355	n/a	n/a	0	n/a	n/a	n/a	n/a	n/a
423380	REC_WORD	wordpools/wasnorm_wordpool_less_exclusions.txt	LTP290	ltpFR	18	3	1	APE	31	n/a	n/a	1	n/a	n/a	n/a	n/a	n/a
504464	WORD	wordpools/wasnorm_wordpool_less_exclusions.txt	LTP290	ltpFR	18	4	-1	ITEM	746	n/a	n/a	-1	1.0	1.0	1	upper	Verdana.ttf
508475	WORD	wordpools/wasnorm_wordpool_less_exclusions.txt	LTP290	ltpFR	18	4	-1	CABOOSE	214	n/a	n/a	-1	1.0	1.0	1	upper	Verdana.ttf
512359	WORD	wordpools/wasnorm_wordpool_less_exclusions.txt	LTP290	ltpFR	18	4	-1	UMBRELLA	1534	n/a	n/a	-1	1.0	1.0	1	upper	Verdana.ttf
516207	WORD	wordpools/wasnorm_wordpool_less_exclusions.txt	LTP290	ltpFR	18	4	-1	LAPEL	800	n/a	n/a	-1	1.0	1.0	1	upper	Verdana.ttf
520252	WORD	wordpools/wasnorm_wordpool_less_exclusions.txt	LTP290	ltpFR	18	4	-1	HOOD	714	n/a	n/a	-1	1.0	1.0	1	upper	Verdana.ttf
524183	WORD	wordpools/wasnorm_wordpool_less_exclusions.txt	LTP290	ltpFR	18	4	-1	COP	376	n/a	n/a	-1	1.0	1.0	1	upper	Verdana.ttf
528219	WORD	wordpools/wasnorm_wordpool_less_exclusions.txt	LTP290	ltpFR	18	4	-1	PATROL	1027	n/a	n/a	-1	1.0	1.0	1	upper	Verdana.ttf
532134	WORD	wordpools/wasnorm_wordpool_less_exclusions.txt	LTP290	ltpFR	18	4	-1	BUSH	202	n/a	n/a	-1	1.0	1.0	1	upper	Verdana.ttf
536233	WORD	wordpools/wasnorm_wordpool_less_exclusions.txt	LTP290	ltpFR	18	4	-1	EXPERT	543	n/a	n/a	-1	1.0	1.0	1	upper	Verdana.ttf
540383	WORD	wordpools/wasnorm_wordpool_less_exclusions.txt	LTP290	ltpFR	18	4	-1	HAIL	676	n/a	n/a	-1	1.0	1.0	1	upper	Verdana.ttf
544515	WORD	wordpools/wasnorm_wordpool_less_exclusions.txt	LTP290	ltpFR	18	4	-1	SHOWER	1296	n/a	n/a	-1	1.0	1.0	1	upper	Verdana.ttf
548379	WORD	wordpools/wasnorm_wordpool_less_exclusions.txt	LTP290	ltpFR	18	4	-1	PLANT	1083	n/a	n/a	-1	1.0	1.0	1	upper	Verdana.ttf
552310	WORD	wordpools/wasnorm_wordpool_less_exclusions.txt	LTP290	ltpFR	18	4	-1	BUNNY	198	n/a	n/a	-1	1.0	1.0	1	upper	Verdana.ttf
556170	WORD	wordpools/wasnorm_wordpool_less_exclusions.txt	LTP290	ltpFR	18	4	-1	SALAD	1224	n/a	n/a	-1	1.0	1.0	1	upper	Verdana.ttf
560006	WORD	wordpools/wasnorm_wordpool_less_exclusions.txt	LTP290	ltpFR	18	4	-1	RAIL	1161	n/a	n/a	-1	1.0	1.0	1	upper	Verdana.ttf
564054	WORD	wordpools/wasnorm_wordpool_less_exclusions.txt	LTP290	ltpFR	18	4	-1	RASH	1167	n/a	n/a	-1	1.0	1.0	1	upper	Verdana.ttf
569845	REC_START	n/a	LTP290	ltpFR	18	4	n/a	n/a	n/a	n/a	n/a	n/a	n/a	n/a	n/a	n/a	n/a
571059	REC_WORD_VV	wordpools/wasnorm_wordpool_less_exclusions.txt	LTP290	ltpFR	18	4	n/a	<>	-1	n/a	n/a	n/a	n/a	n/a	n/a	n/a	n/a
572951	REC_WORD	wordpools/wasnorm_wordpool_less_exclusions.txt	LTP290	ltpFR	18	4	-1	RAIL	1161	n/a	n/a	-1	n/a	n/a	n/a	n/a	n/a
573463	REC_WORD	wordpools/wasnorm_wordpool_less_exclusions.txt	LTP290	ltpFR	18	4	-1	RASH	1167	n/a	n/a	-1	n/a	n/a	n/a	n/a	n/a
575739	REC_WORD	wordpools/wasnorm_wordpool_less_exclusions.txt	LTP290	ltpFR	18	4	-1	BUNNY	198	n/a	n/a	-1	n/a	n/a	n/a	n/a	n/a
576478	REC_WORD	wordpools/wasnorm_wordpool_less_exclusions.txt	LTP290	ltpFR	18	4	-1	SALAD	1224	n/a	n/a	-1	n/a	n/a	n/a	n/a	n/a
581508	REC_WORD	wordpools/wasnorm_wordpool_less_exclusions.txt	LTP290	ltpFR	18	4	-1	PLANT	1083	n/a	n/a	-1	n/a	n/a	n/a	n/a	n/a
582603	REC_WORD	wordpools/wasnorm_wordpool_less_exclusions.txt	LTP290	ltpFR	18	4	-1	HAIL	676	n/a	n/a	-1	n/a	n/a	n/a	n/a	n/a
583216	REC_WORD	wordpools/wasnorm_wordpool_less_exclusions.txt	LTP290	ltpFR	18	4	-1	SHOWER	1296	n/a	n/a	-1	n/a	n/a	n/a	n/a	n/a
587785	REC_WORD	wordpools/wasnorm_wordpool_less_exclusions.txt	LTP290	ltpFR	18	4	-1	LAPEL	800	n/a	n/a	-1	n/a	n/a	n/a	n/a	n/a
588421	REC_WORD	wordpools/wasnorm_wordpool_less_exclusions.txt	LTP290	ltpFR	18	4	-1	HOOD	714	n/a	n/a	-1	n/a	n/a	n/a	n/a	n/a
590151	REC_WORD	wordpools/wasnorm_wordpool_less_exclusions.txt	LTP290	ltpFR	18	4	-1	COP	376	n/a	n/a	-1	n/a	n/a	n/a	n/a	n/a
590717	REC_WORD	wordpools/wasnorm_wordpool_less_exclusions.txt	LTP290	ltpFR	18	4	-1	PATROL	1027	n/a	n/a	-1	n/a	n/a	n/a	n/a	n/a
593773	REC_WORD	wordpools/wasnorm_wordpool_less_exclusions.txt	LTP290	ltpFR	18	4	-1	EXPERT	543	n/a	n/a	-1	n/a	n/a	n/a	n/a	n/a
603952	REC_WORD	wordpools/wasnorm_wordpool_less_exclusions.txt	LTP290	ltpFR	18	4	-1	ITEM	746	n/a	n/a	-1	n/a	n/a	n/a	n/a	n/a
604572	REC_WORD	wordpools/wasnorm_wordpool_less_exclusions.txt	LTP290	ltpFR	18	4	-1	CABOOSE	214	n/a	n/a	-1	n/a	n/a	n/a	n/a	n/a
605108	REC_WORD	wordpools/wasnorm_wordpool_less_exclusions.txt	LTP290	ltpFR	18	4	-1	UMBRELLA	1534	n/a	n/a	-1	n/a	n/a	n/a	n/a	n/a
654160	WORD	wordpools/wasnorm_wordpool_less_exclusions.txt	LTP290	ltpFR	18	5	0	COLUMN	350	n/a	n/a	1	0.422607421875	0.5869140625	0	upper	zerothre.ttf
658142	WORD	wordpools/wasnorm_wordpool_less_exclusions.txt	LTP290	ltpFR	18	5	0	CRACKER	398	n/a	n/a	0	0.422607421875	0.5869140625	0	upper	zerothre.ttf
662040	WORD	wordpools/wasnorm_wordpool_less_exclusions.txt	LTP290	ltpFR	18	5	0	MAGAZINE	853	n/a	n/a	0	0.422607421875	0.5869140625	0	upper	zerothre.ttf
665872	WORD	wordpools/wasnorm_wordpool_less_exclusions.txt	LTP290	ltpFR	18	5	0	BEE	112	n/a	n/a	0	0.422607421875	0.5869140625	0	upper	zerothre.ttf
669737	WORD	wordpools/wasnorm_wordpool_less_exclusions.txt	LTP290	ltpFR	18	5	1	GROCERIES	663	n/a	n/a	1	0.57763671875	0.412841796875	1	lower	amplitud.ttf
673836	WORD	wordpools/wasnorm_wordpool_less_exclusions.txt	LTP290	ltpFR	18	5	1	PIZZA	1079	n/a	n/a	0	0.57763671875	0.412841796875	1	lower	amplitud.ttf
678017	WORD	wordpools/wasnorm_wordpool_less_exclusions.txt	LTP290	ltpFR	18	5	0	CHEESE	289	n/a	n/a	0	0.422607421875	0.5869140625	0	upper	zerothre.ttf
681895	WORD	wordpools/wasnorm_wordpool_less_exclusions.txt	LTP290	ltpFR	18	5	0	STAPLE	1371	n/a	n/a	0	0.422607421875	0.5869140625	0	upper	zerothre.ttf
686064	WORD	wordpools/wasnorm_wordpool_less_exclusions.txt	LTP290	ltpFR	18	5	1	PUBLICATION	1136	n/a	n/a	0	0.57763671875	0.412841796875	1	lower	amplitud.ttf
690025	WORD	wordpools/wasnorm_wordpool_less_exclusions.txt	LTP290	ltpFR	18	5	1	WICK	1607	n/a	n/a	0	0.57763671875	0.412841796875	1	lower	amplitud.ttf
694228	WORD	wordpools/wasnorm_wordpool_less_exclusions.txt	LTP290	ltpFR	18	5	1	CARDINAL	244	n/a	n/a	1	0.57763671875	0.412841796875	1	lower	amplitud.ttf
698395	WORD	wordpools/wasnorm_wordpool_less_exclusions.txt	LTP290	ltpFR	18	5	1	BLUEJAY	141	n/a	n/a	1	0.57763671875	0.412841796875	1	lower	amplitud.ttf
702242	WORD	wordpools/wasnorm_wordpool_less_exclusions.txt	LTP290	ltpFR	18	5	1	BEAR	106	n/a	n/a	1	0.57763671875	0.412841796875	1	lower	amplitud.ttf
706392	WORD	wordpools/wasnorm_wordpool_less_exclusions.txt	LTP290	ltpFR	18	5	1	ESCALATOR	539	n/a	n/a	0	0.57763671875	0.412841796875	1	lower	amplitud.ttf
710368	WORD	wordpools/wasnorm_wordpool_less_exclusions.txt	LTP290	ltpFR	18	5	0	MARINE	869	n/a	n/a	1	0.422607421875	0.5869140625	0	upper	zerothre.ttf
714266	WORD	wordpools/wasnorm_wordpool_less_exclusions.txt	LTP290	ltpFR	18	5	0	FISH	571	n/a	n/a	0	0.422607421875	0.5869140625	0	upper	zerothre.ttf
720126	REC_START	n/a	LTP290	ltpFR	18	5	n/a	n/a	n/a	n/a	n/a	n/a	n/a	n/a	n/a	n/a	n/a
721655	REC_WORD_VV	wordpools/wasnorm_wordpool_less_exclusions.txt	LTP290	ltpFR	18	5	n/a	<>	-1	n/a	n/a	n/a	n/a	n/a	n/a	n/a	n/a
722427	REC_WORD	wordpools/wasnorm_wordpool_less_exclusions.txt	LTP290	ltpFR	18	5	1	ESCALATOR	539	n/a	n/a	0	n/a	n/a	n/a	n/a	n/a
722915	REC_WORD	wordpools/wasnorm_wordpool_less_exclusions.txt	LTP290	ltpFR	18	5	0	MARINE	869	n/a	n/a	1	n/a	n/a	n/a	n/a	n/a
723319	REC_WORD	wordpools/wasnorm_wordpool_less_exclusions.txt	LTP290	ltpFR	18	5	0	FISH	571	n/a	n/a	0	n/a	n/a	n/a	n/a	n/a
725316	REC_WORD	wordpools/wasnorm_wordpool_less_exclusions.txt	LTP290	ltpFR	18	5	1	BEAR	106	n/a	n/a	1	n/a	n/a	n/a	n/a	n/a
725697	REC_WORD	wordpools/wasnorm_wordpool_less_exclusions.txt	LTP290	ltpFR	18	5	1	CARDINAL	244	n/a	n/a	1	n/a	n/a	n/a	n/a	n/a
726201	REC_WORD	wordpools/wasnorm_wordpool_less_exclusions.txt	LTP290	ltpFR	18	5	1	BLUEJAY	141	n/a	n/a	1	n/a	n/a	n/a	n/a	n/a
727047	REC_WORD	wordpools/wasnorm_wordpool_less_exclusions.txt	LTP290	ltpFR	18	5	1	WICK	1607	n/a	n/a	0	n/a	n/a	n/a	n/a	n/a
729172	REC_WORD	wordpools/wasnorm_wordpool_less_exclusions.txt	LTP290	ltpFR	18	5	0	STAPLE	1371	n/a	n/a	0	n/a	n/a	n/a	n/a	n/a
729818	REC_WORD	wordpools/wasnorm_wordpool_less_exclusions.txt	LTP290	ltpFR	18	5	0	CHEESE	289	n/a	n/a	0	n/a	n/a	n/a	n/a	n/a
731494	REC_WORD	wordpools/wasnorm_wordpool_less_exclusions.txt	LTP290	ltpFR	18	5	0	TOWER	1490	n/a	n/a	1	n/a	n/a	n/a	n/a	n/a
732071	REC_WORD	wordpools/wasnorm_wordpool_less_exclusions.txt	LTP290	ltpFR	18	5	0	CRACKER	398	n/a	n/a	0	n/a	n/a	n/a	n/a	n/a
734278	REC_WORD	wordpools/wasnorm_wordpool_less_exclusions.txt	LTP290	ltpFR	18	5	0	COLUMN	350	n/a	n/a	1	n/a	n/a	n/a	n/a	n/a
736124	REC_WORD	wordpools/wasnorm_wordpool_less_exclusions.txt	LTP290	ltpFR	18	5	0	MAGAZINE	853	n/a	n/a	0	n/a	n/a	n/a	n/a	n/a
739243	REC_WORD	wordpools/wasnorm_wordpool_less_exclusions.txt	LTP290	ltpFR	18	5	0	BEE	112	n/a	n/a	0	n/a	n/a	n/a	n/a	n/a
740069	REC_WORD	wordpools/wasnorm_wordpool_less_exclusions.txt	LTP290	ltpFR	18	5	1	PIZZA	1079	n/a	n/a	0	n/a	n/a	n/a	n/a	n/a
740577	REC_WORD	wordpools/wasnorm_wordpool_less_exclusions.txt	LTP290	ltpFR	18	5	1	GROCERIES	663	n/a	n/a	1	n/a	n/a	n/a	n/a	n/a
743501	REC_WORD	wordpools/wasnorm_wordpool_less_exclusions.txt	LTP290	ltpFR	18	5	0	MARINE	869	n/a	n/a	1	n/a	n/a	n/a	n/a	n/a
744067	REC_WORD	wordpools/wasnorm_wordpool_less_exclusions.txt	LTP290	ltpFR	18	5	1	ESCALATOR	539	n/a	n/a	0	n/a	n/a	n/a	n/a	n/a
744793	REC_WORD	wordpools/wasnorm_wordpool_less_exclusions.txt	LTP290	ltpFR	18	5	0	FISH	571	n/a	n/a	0	n/a	n/a	n/a	n/a	n/a
798823	WORD	wordpools/wasnorm_wordpool_less_exclusions.txt	LTP290	ltpFR	18	6	0	TUNA	1518	n/a	n/a	0	0.422607421875	0.5869140625	0	upper	zerothre.ttf
802889	WORD	wordpools/wasnorm_wordpool_less_exclusions.txt	LTP290	ltpFR	18	6	0	INTESTINE	742	n/a	n/a	1	0.422607421875	0.5869140625	0	upper	zerothre.ttf
806953	WORD	wordpools/wasnorm_wordpool_less_exclusions.txt	LTP290	ltpFR	18	6	0	MICROWAVE	892	n/a	n/a	1	0.422607421875	0.5869140625	0	upper	zerothre.ttf
811135	WORD	wordpools/wasnorm_wordpool_less_exclusions.txt	LTP290	ltpFR	18	6	0	CELERY	266	n/a	n/a	0	0.422607421875	0.5869140625	0	upper	zerothre.ttf
815113	WORD	wordpools/wasnorm_wordpool_less_exclusions.txt	LTP290	ltpFR	18	6	0	PLATE	1086	n/a	n/a	0	0.422607421875	0.5869140625	0	upper	zerothre.ttf
819049	WORD	wordpools/wasnorm_wordpool_less_exclusions.txt	LTP290	ltpFR	18	6	0	LITERATURE	831	n/a	n/a	0	0.422607421875	0.5869140625	0	upper	zerothre.ttf
823244	WORD	wordpools/wasnorm_wordpool_less_exclusions.txt	LTP290	ltpFR	18	6	0	FLESH	579	n/a	n/a	0	0.422607421875	0.5869140625	0	upper	zerothre.ttf
827129	WORD	wordpools/wasnorm_wordpool_less_exclusions.txt	LTP290	ltpFR	18	6	0	KANGAROO	768	n/a	n/a	1	0.422607421875	0.5869140625	0	upper	zerothre.ttf
831190	WORD	wordpools/wasnorm_wordpool_less_exclusions.txt	LTP290	ltpFR	18	6	0	RACKET	1155	n/a	n/a	0	0.422607421875	0.5869140625	0	upper	zerothre.ttf
835143	WORD	wordpools/wasnorm_wordpool_less_exclusions.txt	LTP290	ltpFR	18	6	0	CHEF	290	n/a	n/a	1	0.422607421875	0.5869140625	0	upper	zerothre.ttf
838990	WORD	wordpools/wasnorm_wordpool_less_exclusions.txt	LTP290	ltpFR	18	6	0	PAN	1008	n/a	n/a	0	0.422607421875	0.5869140625	0	upper	zerothre.ttf
842839	WORD	wordpools/wasnorm_wordpool_less_exclusions.txt	LTP290	ltpFR	18	6	0	RECIPE	1175	n/a	n/a	0	0.422607421875	0.5869140625	0	upper	zerothre.ttf
846754	WORD	wordpools/wasnorm_wordpool_less_exclusions.txt	LTP290	ltpFR	18	6	0	PRUNE	1134	n/a	n/a	0	0.422607421875	0.5869140625	0	upper	zerothre.ttf
850886	WORD	wordpools/wasnorm_wordpool_less_exclusions.txt	LTP290	ltpFR	18	6	0	HEEL	700	n/a	n/a	0	0.422607421875	0.5869140625	0	upper	zerothre.ttf
854801	WORD	wordpools/wasnorm_wordpool_less_exclusions.txt	LTP290	ltpFR	18	6	0	SNEAKER	1334	n/a	n/a	0	0.422607421875	0.5869140625	0	upper	zerothre.ttf
858766	WORD	wordpools/wasnorm_wordpool_less_exclusions.txt	LTP290	ltpFR	18	6	0	PAGE	1001	n/a	n/a	0	0.422607421875	0.5869140625	0	upper	zerothre.ttf
864786	REC_START	n/a	LTP290	ltpFR	18	6	n/a	n/a	n/a	n/a	n/a	n/a	n/a	n/a	n/a	n/a	n/a
867929	REC_WORD	wordpools/wasnorm_wordpool_less_exclusions.txt	LTP290	ltpFR	18	6	0	RECIPE	1175	n/a	n/a	0	n/a	n/a	n/a	n/a	n/a
868555	REC_WORD	wordpools/wasnorm_wordpool_less_exclusions.txt	LTP290	ltpFR	18	6	0	PRUNE	1134	n/a	n/a	0	n/a	n/a	n/a	n/a	n/a
869029	REC_WORD	wordpools/wasnorm_wordpool_less_exclusions.txt	LTP290	ltpFR	18	6	0	HEEL	700	n/a	n/a	0	n/a	n/a	n/a	n/a	n/a
869706	REC_WORD	wordpools/wasnorm_wordpool_less_exclusions.txt	LTP290	ltpFR	18	6	0	SNEAKER	1334	n/a	n/a	0	n/a	n/a	n/a	n/a	n/a
871016	REC_WORD	wordpools/wasnorm_wordpool_less_exclusions.txt	LTP290	ltpFR	18	6	0	PAGE	1001	n/a	n/a	0	n/a	n/a	n/a	n/a	n/a
953054	WORD	wordpools/wasnorm_wordpool_less_exclusions.txt	LTP290	ltpFR	18	7	1	PASSENGER	1020	n/a	n/a	1	0.57763671875	0.412841796875	1	lower	amplitud.ttf
957169	WORD	wordpools/wasnorm_wordpool_less_exclusions.txt	LTP290	ltpFR	18	7	1	EARRING	514	n/a	n/a	0	0.57763671875	0.412841796875	1	lower	amplitud.ttf
961163	WORD	wordpools/wasnorm_wordpool_less_exclusions.txt	LTP290	ltpFR	18	7	1	HEADBAND	696	n/a	n/a	0	0.57763671875	0.412841796875	1	lower	amplitud.ttf
965082	WORD	wordpools/wasnorm_wordpool_less_exclusions.txt	LTP290	ltpFR	18	7	1	EDITOR	516	n/a	n/a	1	0.57763671875	0.412841796875	1	lower	amplitud.ttf
969081	WORD	wordpools/wasnorm_wordpool_less_exclusions.txt	LTP290	ltpFR	18	7	1	NEWSSTAND	949	n/a	n/a	0	0.57763671875	0.412841796875	1	lower	amplitud.ttf
973129	WORD	wordpools/wasnorm_wordpool_less_exclusions.txt	LTP290	ltpFR	18	7	1	WHEAT	1602	n/a	n/a	0	0.57763671875	0.412841796875	1	lower	amplitud.ttf
977111	WORD	wordpools/wasnorm_wordpool_less_exclusions.txt	LTP290	ltpFR	18	7	1	PIG	1064	n/a	n/a	0	0.57763671875	0.412841796875	1	lower	amplitud.ttf
981043	WORD	wordpools/wasnorm_wordpool_less_exclusions.txt	LTP290	ltpFR	18	7	1	THORN	1459	n/a	n/a	0	0.57763671875	0.412841796875	1	lower	amplitud.ttf
985074	WORD	wordpools/wasnorm_wordpool_less_exclusions.txt	LTP290	ltpFR	18	7	1	BRACELET	163	n/a	n/a	0	0.57763671875	0.412841796875	1	lower	amplitud.ttf
989023	WORD	wordpools/wasnorm_wordpool_less_exclusions.txt	LTP290	ltpFR	18	7	1	FOREST	593	n/a	n/a	0	0.57763671875	0.412841796875	1	lower	amplitud.ttf
993121	WORD	wordpools/wasnorm_wordpool_less_exclusions.txt	LTP290	ltpFR	18	7	1	HELICOPTER	701	n/a	n/a	0	0.57763671875	0.412841796875	1	lower	amplitud.ttf
997187	WORD	wordpools/wasnorm_wordpool_less_exclusions.txt	LTP290	ltpFR	18	7	1	VET	1560	n/a	n/a	0	0.57763671875	0.412841796875	1	lower	amplitud.ttf
1001198	WORD	wordpools/wasnorm_wordpool_less_exclusions.txt	LTP290	ltpFR	18	7	1	CREATURE	403	n/a	n/a	1	0.57763671875	0.412841796875	1	lower	amplitud.ttf
1005317	WORD	wordpools/wasnorm_wordpool_less_exclusions.txt	LTP290	ltpFR	18	7	1	BOXER	160	n/a	n/a	0	0.57763671875	0.412841796875	1	lower	amplitud.ttf
1009148	WORD	wordpools/wasnorm_wordpool_less_exclusions.txt	LTP290	ltpFR	18	7	1	WHISTLE	1606	n/a	n/a	0	0.57763671875	0.412841796875	1	lower	amplitud.ttf
1013063	WORD	wordpools/wasnorm_wordpool_less_exclusions.txt	LTP290	ltpFR	18	7	1	LEMON	810	n/a	n/a	0	0.57763671875	0.412841796875	1	lower	amplitud.ttf
1019187	REC_START	n/a	LTP290	ltpFR	18	7	n/a	n/a	n/a	n/a	n/a	n/a	n/a	n/a	n/a	n/a	n/a
1019307	REC_WORD_VV	wordpools/wasnorm_wordpool_less_exclusions.txt	LTP290	ltpFR	18	7	n/a	<>	-1	n/a	n/a	n/a	n/a	n/a	n/a	n/a	n/a
1020228	REC_WORD	wordpools/wasnorm_wordpool_less_exclusions.txt	LTP290	ltpFR	18	7	1	WHISTLE	1606	n/a	n/a	0	n/a	n/a	n/a	n/a	n/a
1020647	REC_WORD	wordpools/wasnorm_wordpool_less_exclusions.txt	LTP290	ltpFR	18	7	1	LEMON	810	n/a	n/a	0	n/a	n/a	n/a	n/a	n/a
1021033	REC_WORD	wordpools/wasnorm_wordpool_less_exclusions.txt	LTP290	ltpFR	18	7	1	BOXER	160	n/a	n/a	0	n/a	n/a	n/a	n/a	n/a
1098146	WORD	wordpools/wasnorm_wordpool_less_exclusions.txt	LTP290	ltpFR	18	8	1	VIOLA	1570	n/a	n/a	0	0.57763671875	0.412841796875	1	lower	amplitud.ttf
1102216	WORD	wordpools/wasnorm_wordpool_less_exclusions.txt	LTP290	ltpFR	18	8	1	TELEVISION	1447	n/a	n/a	0	0.57763671875	0.412841796875	1	lower	amplitud.ttf
1106076	WORD	wordpools/wasnorm_wordpool_less_exclusions.txt	LTP290	ltpFR	18	8	1	TREASURE	1500	n/a	n/a	0	0.57763671875	0.412841796875	1	lower	amplitud.ttf
1109941	WORD	wordpools/wasnorm_wordpool_less_exclusions.txt	LTP290	ltpFR	18	8	1	TROPHY	1509	n/a	n/a	0	0.57763671875	0.412841796875	1	lower	amplitud.ttf
1113894	WORD	wordpools/wasnorm_wordpool_less_exclusions.txt	LTP290	ltpFR	18	8	0	CLIMBER	323	n/a	n/a	1	0.422607421875	0.5869140625	0	upper	zerothre.ttf
1117876	WORD	wordpools/wasnorm_wordpool_less_exclusions.txt	LTP290	ltpFR	18	8	0	ALBUM	14	n/a	n/a	0	0.422607421875	0.5869140625	0	upper	zerothre.ttf
1121940	WORD	wordpools/wasnorm_wordpool_less_exclusions.txt	LTP290	ltpFR	18	8	0	MITTEN	902	n/a	n/a	0	0.422607421875	0.5869140625	0	upper	zerothre.ttf
1125955	WORD	wordpools/wasnorm_wordpool_less_exclusions.txt	LTP290	ltpFR	18	8	0	TACK	1428	n/a	n/a	0	0.422607421875	0.5869140625	0	upper	zerothre.ttf
1130167	WORD	wordpools/wasnorm_wordpool_less_exclusions.txt	LTP290	ltpFR	18	8	0	COUGAR	387	n/a	n/a	1	0.422607421875	0.5869140625	0	upper	zerothre.ttf
1134370	WORD	wordpools/wasnorm_wordpool_less_exclusions.txt	LTP290	ltpFR	18	8	1	PORTRAIT	1111	n/a	n/a	0	0.57763671875	0.412841796875	1	lower	amplitud.ttf
1138466	WORD	wordpools/wasnorm_wordpool_less_exclusions.txt	LTP290	ltpFR	18	8	1	BALCONY	72	n/a	n/a	0	0.57763671875	0.412841796875	1	lower	amplitud.ttf
1142367	WORD	wordpools/wasnorm_wordpool_less_exclusions.txt	LTP290	ltpFR	18	8	1	TUXEDO	1525	n/a	n/a	0	0.57763671875	0.412841796875	1	lower	amplitud.ttf
1146496	WORD	wordpools/wasnorm_wordpool_less_exclusions.txt	LTP290	ltpFR	18	8	1	DOG	480	n/a	n/a	1	0.57763671875	0.412841796875	1	lower	amplitud.ttf
1150364	WORD	wordpools/wasnorm_wordpool_less_exclusions.txt	LTP290	ltpFR	18	8	0	WRITER	1627	n/a	n/a	1	0.422607421875	0.5869140625	0	upper	zerothre.ttf
1154481	WORD	wordpools/wasnorm_wordpool_less_exclusions.txt	LTP290	ltpFR	18	8	0	NOVEL	960	n/a	n/a	0	0.422607421875	0.5869140625	0	upper	zerothre.ttf
1158311	WORD	wordpools/wasnorm_wordpool_less_exclusions.txt	LTP290	ltpFR	18	8	0	KEEPER	769	n/a	n/a	0	0.422607421875	0.5869140625	0	upper	zerothre.ttf
1164317	REC_START	n/a	LTP290	ltpFR	18	8	n/a	n/a	n/a	n/a	n/a	n/a	n/a	n/a	n/a	n/a	n/a
1164795	REC_WORD_VV	wordpools/wasnorm_wordpool_less_exclusions.txt	LTP290	ltpFR	18	8	n/a	<>	-1	n/a	n/a	n/a	n/a	n/a	n/a	n/a	n/a
1165481	REC_WORD	wordpools/wasnorm_wordpool_less_exclusions.txt	LTP290	ltpFR	18	8	0	WRITER	1627	n/a	n/a	1	n/a	n/a	n/a	n/a	n/a
1165872	REC_WORD	wordpools/wasnorm_wordpool_less_exclusions.txt	LTP290	ltpFR	18	8	0	NOVEL	960	n/a	n/a	0	n/a	n/a	n/a	n/a	n/a
1166358	REC_WORD	wordpools/wasnorm_wordpool_less_exclusions.txt	LTP290	ltpFR	18	8	0	KEEPER	769	n/a	n/a	0	n/a	n/a	n/a	n/a	n/a
1178765	REC_WORD	wordpools/wasnorm_wordpool_less_exclusions.txt	LTP290	ltpFR	18	8	1	TREASURE	1500	n/a	n/a	0	n/a	n/a	n/a	n/a	n/a
1179222	REC_WORD	wordpools/wasnorm_wordpool_less_exclusions.txt	LTP290	ltpFR	18	8	1	TROPHY	1509	n/a	n/a	0	n/a	n/a	n/a	n/a	n/a
1183804	REC_WORD	wordpools/wasnorm_wordpool_less_exclusions.txt	LTP290	ltpFR	18	8	0	CLIMBER	323	n/a	n/a	1	n/a	n/a	n/a	n/a	n/a
1184483	REC_WORD	wordpools/wasnorm_wordpool_less_exclusions.txt	LTP290	ltpFR	18	8	0	MITTEN	902	n/a	n/a	0	n/a	n/a	n/a	n/a	n/a
1185310	REC_WORD	wordpools/wasnorm_wordpool_less_exclusions.txt	LTP290	ltpFR	18	8	0	ALBUM	14	n/a	n/a	0	n/a	n/a	n/a	n/a	n/a
1186408	REC_WORD	wordpools/wasnorm_wordpool_less_exclusions.txt	LTP290	ltpFR	18	8	0	TACK	1428	n/a	n/a	0	n/a	n/a	n/a	n/a	n/a
1188302	REC_WORD	wordpools/wasnorm_wordpool_less_exclusions.txt	LTP290	ltpFR	18	8	0	COUGAR	387	n/a	n/a	1	n/a	n/a	n/a	n/a	n/a
1239968	REST_REWET	n/a	LTP290	ltpFR	18	8	n/a	n/a	n/a	n/a	n/a	n/a	n/a	n/a	n/a	n/a	n/a
1432461	WORD	wordpools/wasnorm_wordpool_less_exclusions.txt	LTP290	ltpFR	18	9	0	WHISKERS	1605	n/a	n/a	0	0.422607421875	0.5869140625	0	upper	zerothre.ttf
1436375	WORD	wordpools/wasnorm_wordpool_less_exclusions.txt	LTP290	ltpFR	18	9	0	LAUNDRY	803	n/a	n/a	1	0.422607421875	0.5869140625	0	upper	zerothre.ttf
1440286	WORD	wordpools/wasnorm_wordpool_less_exclusions.txt	LTP290	ltpFR	18	9	0	TURKEY	1520	n/a	n/a	0	0.422607421875	0.5869140625	0	upper	zerothre.ttf
1444368	WORD	wordpools/wasnorm_wordpool_less_exclusions.txt	LTP290	ltpFR	18	9	1	COOKBOOK	373	n/a	n/a	0	0.57763671875	0.412841796875	1	lower	amplitud.ttf
1448354	WORD	wordpools/wasnorm_wordpool_less_exclusions.txt	LTP290	ltpFR	18	9	1	MEADOW	881	n/a	n/a	0	0.57763671875	0.412841796875	1	lower	amplitud.ttf
1452264	WORD	wordpools/wasnorm_wordpool_less_exclusions.txt	LTP290	ltpFR	18	9	1	BLADE	134	n/a	n/a	0	0.57763671875	0.412841796875	1	lower	amplitud.ttf
1456217	WORD	wordpools/wasnorm_wordpool_less_exclusions.txt	LTP290	ltpFR	18	9	1	RAM	1165	n/a	n/a	0	0.57763671875	0.412841796875	1	lower	amplitud.ttf
1460232	WORD	wordpools/wasnorm_wordpool_less_exclusions.txt	LTP290	ltpFR	18	9	0	GARAGE	621	n/a	n/a	1	0.422607421875	0.5869140625	0	upper	zerothre.ttf
1464126	WORD	wordpools/wasnorm_wordpool_less_exclusions.txt	LTP290	ltpFR	18	9	0	MOON	914	n/a	n/a	1	0.422607421875	0.5869140625	0	upper	zerothre.ttf
1468195	WORD	wordpools/wasnorm_wordpool_less_exclusions.txt	LTP290	ltpFR	18	9	0	RECEIPT	1173	n/a	n/a	0	0.422607421875	0.5869140625	0	upper	zerothre.ttf
1472127	WORD	wordpools/wasnorm_wordpool_less_exclusions.txt	LTP290	ltpFR	18	9	0	PAW	1029	n/a	n/a	0	0.422607421875	0.5869140625	0	upper	zerothre.ttf
1476192	WORD	wordpools/wasnorm_wordpool_less_exclusions.txt	LTP290	ltpFR	18	9	0	COUNTY	389	n/a	n/a	1	0.422607421875	0.5869140625	0	upper	zerothre.ttf
1480140	WORD	wordpools/wasnorm_wordpool_less_exclusions.txt	LTP290	ltpFR	18	9	1	RELATIVE	1182	n/a	n/a	1	0.57763671875	0.412841796875	1	lower	amplitud.ttf
1484168	WORD	wordpools/wasnorm_wordpool_less_exclusions.txt	LTP290	ltpFR	18	9	1	FAMILY	550	n/a	n/a	1	0.57763671875	0.412841796875	1	lower	amplitud.ttf
1488053	WORD	wordpools/wasnorm_wordpool_less_exclusions.txt	LTP290	ltpFR	18	9	1	HORIZON	717	n/a	n/a	0	0.57763671875	0.412841796875	1	lower	amplitud.ttf
1492135	WORD	wordpools/wasnorm_wordpool_less_exclusions.txt	LTP290	ltpFR	18	9	1	DIME	466	n/a	n/a	0	0.57763671875	0.412841796875	1	lower	amplitud.ttf
1497941	REC_START	n/a	LTP290	ltpFR	18	9	n/a	n/a	n/a	n/a	n/a	n/a	n/a	n/a	n/a	n/a	n/a
1498146	REC_WORD_VV	wordpools/wasnorm_wordpool_less_exclusions.txt	LTP290	ltpFR	18	9	n/a	<>	-1	n/a	n/a	n/a	n/a	n/a	n/a	n/a	n/a
1498817	REC_WORD	wordpools/wasnorm_wordpool_less_exclusions.txt	LTP290	ltpFR	18	9	1	HORIZON	717	n/a	n/a	0	n/a	n/a	n/a	n/a	n/a
1499458	REC_WORD	wordpools/wasnorm_wordpool_less_exclusions.txt	LTP290	ltpFR	18	9	1	DIME	466	n/a	n/a	0	n/a	n/a	n/a	n/a	n/a
1499840	REC_WORD	wordpools/wasnorm_wordpool_less_exclusions.txt	LTP290	ltpFR	18	9	1	FAMILY	550	n/a	n/a	1	n/a	n/a	n/a	n/a	n/a
1500374	REC_WORD	wordpools/wasnorm_wordpool_less_exclusions.txt	LTP290	ltpFR	18	9	1	RELATIVE	1182	n/a	n/a	1	n/a	n/a	n/a	n/a	n/a
1501953	REC_WORD	wordpools/wasnorm_wordpool_less_exclusions.txt	LTP290	ltpFR	18	9	1	COOKBOOK	373	n/a	n/a	0	n/a	n/a	n/a	n/a	n/a
1505914	REC_WORD	wordpools/wasnorm_wordpool_less_exclusions.txt	LTP290	ltpFR	18	9	1	BLADE	134	n/a	n/a	0	n/a	n/a	n/a	n/a	n/a
1506430	REC_WORD	wordpools/wasnorm_wordpool_less_exclusions.txt	LTP290	ltpFR	18	9	1	RAM	1165	n/a	n/a	0	n/a	n/a	n/a	n/a	n/a
1506909	REC_WORD	wordpools/wasnorm_wordpool_less_exclusions.txt	LTP290	ltpFR	18	9	1	MEADOW	881	n/a	n/a	0	n/a	n/a	n/a	n/a	n/a
1509817	REC_WORD	wordpools/wasnorm_wordpool_less_exclusions.txt	LTP290	ltpFR	18	9	0	COUNTY	389	n/a	n/a	1	n/a	n/a	n/a	n/a	n/a
1578462	WORD	wordpools/wasnorm_wordpool_less_exclusions.txt	LTP290	ltpFR	18	10	1	VEHICLE	1553	n/a	n/a	0	0.57763671875	0.412841796875	1	lower	amplitud.ttf
1582477	WORD	wordpools/wasnorm_wordpool_less_exclusions.txt	LTP290	ltpFR	18	10	1	SPIDER	1351	n/a	n/a	1	0.57763671875	0.412841796875	1	lower	amplitud.ttf
1586693	WORD	wordpools/wasnorm_wordpool_less_exclusions.txt	LTP290	ltpFR	18	10	1	BOY	161	n/a	n/a	1	0.57763671875	0.412841796875	1	lower	amplitud.ttf
1590908	WORD	wordpools/wasnorm_wordpool_less_exclusions.txt	LTP290	ltpFR	18	10	1	HARP	689	n/a	n/a	0	0.57763671875	0.412841796875	1	lower	amplitud.ttf
1595057	WORD	wordpools/wasnorm_wordpool_less_exclusions.txt	LTP290	ltpFR	18	10	1	SWATTER	1418	n/a	n/a	0	0.57763671875	0.412841796875	1	lower	amplitud.ttf
1599105	WORD	wordpools/wasnorm_wordpool_less_exclusions.txt	LTP290	ltpFR	18	10	1	GLACIER	638	n/a	n/a	0	0.57763671875	0.412841796875	1	lower	amplitud.ttf
1603321	WORD	wordpools/wasnorm_wordpool_less_exclusions.txt	LTP290	ltpFR	18	10	1	CONCERT	360	n/a	n/a	0	0.57763671875	0.412841796875	1	lower	amplitud.ttf
1607219	WORD	wordpools/wasnorm_wordpool_less_exclusions.txt	LTP290	ltpFR	18	10	1	GENTLEMAN	631	n/a	n/a	1	0.57763671875	0.412841796875	1	lower	amplitud.ttf
1611151	WORD	wordpools/wasnorm_wordpool_less_exclusions.txt	LTP290	ltpFR	18	10	1	DESK	452	n/a	n/a	0	0.57763671875	0.412841796875	1	lower	amplitud.ttf
1615011	WORD	wordpools/wasnorm_wordpool_less_exclusions.txt	LTP290	ltpFR	18	10	1	TYPIST	1532	n/a	n/a	1	0.57763671875	0.412841796875	1	lower	amplitud.ttf
1619210	WORD	wordpools/wasnorm_wordpool_less_exclusions.txt	LTP290	ltpFR	18	10	1	FAN	551	n/a	n/a	0	0.57763671875	0.412841796875	1	lower	amplitud.ttf
1623330	WORD	wordpools/wasnorm_wordpool_less_exclusions.txt	LTP290	ltpFR	18	10	1	FROST	609	n/a	n/a	0	0.57763671875	0.412841796875	1	lower	amplitud.ttf
1627379	WORD	wordpools/wasnorm_wordpool_less_exclusions.txt	LTP290	ltpFR	18	10	1	KIWI	781	n/a	n/a	0	0.57763671875	0.412841796875	1	lower	amplitud.ttf
1631579	WORD	wordpools/wasnorm_wordpool_less_exclusions.txt	LTP290	ltpFR	18	10	1	BANANA	77	n/a	n/a	0	0.57763671875	0.412841796875	1	lower	amplitud.ttf
1635640	WORD	wordpools/wasnorm_wordpool_less_exclusions.txt	LTP290	ltpFR	18	10	1	SHORTS	1293	n/a	n/a	0	0.57763671875	0.412841796875	1	lower	amplitud.ttf
1639559	WORD	wordpools/wasnorm_wordpool_less_exclusions.txt	LTP290	ltpFR	18	10	1	NAVIGATOR	938	n/a	n/a	1	0.57763671875	0.412841796875	1	lower	amplitud.ttf
1645499	REC_START	n/a	LTP290	ltpFR	18	10	n/a	n/a	n/a	n/a	n/a	n/a	n/a	n/a	n/a	n/a	n/a
1646234	REC_WORD	wordpools/wasnorm_wordpool_less_exclusions.txt	LTP290	ltpFR	18	10	1	SHORTS	1293	n/a	n/a	0	n/a	n/a	n/a	n/a	n/a
1646735	REC_WORD	wordpools/wasnorm_wordpool_less_exclusions.txt	LTP290	ltpFR	18	10	1	NAVIGATOR	938	n/a	n/a	1	n/a	n/a	n/a	n/a	n/a
1647351	REC_WORD	wordpools/wasnorm_wordpool_less_exclusions.txt	LTP290	ltpFR	18	10	1	KIWI	781	n/a	n/a	0	n/a	n/a	n/a	n/a	n/a
1647832	REC_WORD	wordpools/wasnorm_wordpool_less_exclusions.txt	LTP290	ltpFR	18	10	1	BANANA	77	n/a	n/a	0	n/a	n/a	n/a	n/a	n/a
1692497	REC_WORD	wordpools/wasnorm_wordpool_less_exclusions.txt	LTP290	ltpFR	18	10	1	SPIDER	1351	n/a	n/a	1	n/a	n/a	n/a	n/a	n/a
1693549	REC_WORD	wordpools/wasnorm_wordpool_less_exclusions.txt	LTP290	ltpFR	18	10	1	BOY	161	n/a	n/a	1	n/a	n/a	n/a	n/a	n/a
1693978	REC_WORD	wordpools/wasnorm_wordpool_less_exclusions.txt	LTP290	ltpFR	18	10	1	VEHICLE	1553	n/a	n/a	0	n/a	n/a	n/a	n/a	n/a
1696917	REC_WORD	wordpools/wasnorm_wordpool_less_exclusions.txt	LTP290	ltpFR	18	10	1	HARP	689	n/a	n/a	0	n/a	n/a	n/a	n/a	n/a
1697803	REC_WORD	wordpools/wasnorm_wordpool_less_exclusions.txt	LTP290	ltpFR	18	10	1	SWATTER	1418	n/a	n/a	0	n/a	n/a	n/a	n/a	n/a
1724863	WORD	wordpools/wasnorm_wordpool_less_exclusions.txt	LTP290	ltpFR	18	11	-1	SANDWICH	1232	n/a	n/a	-1	1.0	1.0	1	upper	Verdana.ttf
1728991	WORD	wordpools/wasnorm_wordpool_less_exclusions.txt	LTP290	ltpFR	18	11	-1	MOSQUITO	917	n/a	n/a	-1	1.0	1.0	1	upper	Verdana.ttf
1732926	WORD	wordpools/wasnorm_wordpool_less_exclusions.txt	LTP290	ltpFR	18	11	-1	CAN	225	n/a	n/a	-1	1.0	1.0	1	upper	Verdana.ttf
1736975	WORD	wordpools/wasnorm_wordpool_less_exclusions.txt	LTP290	ltpFR	18	11	-1	HEN	703	n/a	n/a	-1	1.0	1.0	1	upper	Verdana.ttf
1741040	WORD	wordpools/wasnorm_wordpool_less_exclusions.txt	LTP290	ltpFR	18	11	-1	LODGE	839	n/a	n/a	-1	1.0	1.0	1	upper	Verdana.ttf
1744921	WORD	wordpools/wasnorm_wordpool_less_exclusions.txt	LTP290	ltpFR	18	11	-1	GRASSHOPPER	656	n/a	n/a	-1	1.0	1.0	1	upper	Verdana.ttf
1749116	WORD	wordpools/wasnorm_wordpool_less_exclusions.txt	LTP290	ltpFR	18	11	-1	TIMBER	1469	n/a	n/a	-1	1.0	1.0	1	upper	Verdana.ttf
1753065	WORD	wordpools/wasnorm_wordpool_less_exclusions.txt	LTP290	ltpFR	18	11	-1	TREE	1502	n/a	n/a	-1	1.0	1.0	1	upper	Verdana.ttf
1757268	WORD	wordpools/wasnorm_wordpool_less_exclusions.txt	LTP290	ltpFR	18	11	-1	MANAGER	863	n/a	n/a	-1	1.0	1.0	1	upper	Verdana.ttf
1761179	WORD	wordpools/wasnorm_wordpool_less_exclusions.txt	LTP290	ltpFR	18	11	-1	CLERK	321	n/a	n/a	-1	1.0	1.0	1	upper	Verdana.ttf
1765298	WORD	wordpools/wasnorm_wordpool_less_exclusions.txt	LTP290	ltpFR	18	11	-1	PIGMENT	1066	n/a	n/a	-1	1.0	1.0	1	upper	Verdana.ttf
1769293	WORD	wordpools/wasnorm_wordpool_less_exclusions.txt	LTP290	ltpFR	18	11	-1	TRASH	1497	n/a	n/a	-1	1.0	1.0	1	upper	Verdana.ttf
1773329	WORD	wordpools/wasnorm_wordpool_less_exclusions.txt	LTP290	ltpFR	18	11	-1	STEAM	1375	n/a	n/a	-1	1.0	1.0	1	upper	Verdana.ttf
1777260	WORD	wordpools/wasnorm_wordpool_less_exclusions.txt	LTP290	ltpFR	18	11	-1	MATCH	878	n/a	n/a	-1	1.0	1.0	1	upper	Verdana.ttf
1781410	WORD	wordpools/wasnorm_wordpool_less_exclusions.txt	LTP290	ltpFR	18	11	-1	SARDINE	1235	n/a	n/a	-1	1.0	1.0	1	upper	Verdana.ttf
1785404	WORD	wordpools/wasnorm_wordpool_less_exclusions.txt	LTP290	ltpFR	18	11	-1	CONDUCTOR	362	n/a	n/a	-1	1.0	1.0	1	upper	Verdana.ttf
1791280	REC_START	n/a	LTP290	ltpFR	18	11	n/a	n/a	n/a	n/a	n/a	n/a	n/a	n/a	n/a	n/a	n/a
1792542	REC_WORD	wordpools/wasnorm_wordpool_less_exclusions.txt	LTP290	ltpFR	18	11	-1	SARDINE	1235	n/a	n/a	-1	n/a	n/a	n/a	n/a	n/a
1793154	REC_WORD	wordpools/wasnorm_wordpool_less_exclusions.txt	LTP290	ltpFR	18	11	-1	CONDUCTOR	362	n/a	n/a	-1	n/a	n/a	n/a	n/a	n/a
1797142	REC_WORD	wordpools/wasnorm_wordpool_less_exclusions.txt	LTP290	ltpFR	18	11	-1	MOSQUITO	917	n/a	n/a	-1	n/a	n/a	n/a	n/a	n/a
1797883	REC_WORD	wordpools/wasnorm_wordpool_less_exclusions.txt	LTP290	ltpFR	18	11	-1	SANDWICH	1232	n/a	n/a	-1	n/a	n/a	n/a	n/a	n/a
1799281	REC_WORD	wordpools/wasnorm_wordpool_less_exclusions.txt	LTP290	ltpFR	18	11	-1	CAN	225	n/a	n/a	-1	n/a	n/a	n/a	n/a	n/a
1800986	REC_WORD	wordpools/wasnorm_wordpool_less_exclusions.txt	LTP290	ltpFR	18	11	-1	HEN	703	n/a	n/a	-1	n/a	n/a	n/a	n/a	n/a
1802576	REC_WORD_VV	wordpools/wasnorm_wordpool_less_exclusions.txt	LTP290	ltpFR	18	11	n/a	<>	-1	n/a	n/a	n/a	n/a	n/a	n/a	n/a	n/a
1884928	WORD	wordpools/wasnorm_wordpool_less_exclusions.txt	LTP290	ltpFR	18	12	0	NOTE	958	n/a	n/a	0	0.422607421875	0.5869140625	0	upper	zerothre.ttf
1889148	WORD	wordpools/wasnorm_wordpool_less_exclusions.txt	LTP290	ltpFR	18	12	0	TUB	1514	n/a	n/a	1	0.422607421875	0.5869140625	0	upper	zerothre.ttf
1893214	WORD	wordpools/wasnorm_wordpool_less_exclusions.txt	LTP290	ltpFR	18	12	0	TOWN	1491	n/a	n/a	1	0.422607421875	0.5869140625	0	upper	zerothre.ttf
1897246	WORD	wordpools/wasnorm_wordpool_less_exclusions.txt	LTP290	ltpFR	18	12	0	PORCH	1106	n/a	n/a	1	0.422607421875	0.5869140625	0	upper	zerothre.ttf
1901144	WORD	wordpools/wasnorm_wordpool_less_exclusions.txt	LTP290	ltpFR	18	12	0	BERRY	122	n/a	n/a	0	0.422607421875	0.5869140625	0	upper	zerothre.ttf
1905025	WORD	wordpools/wasnorm_wordpool_less_exclusions.txt	LTP290	ltpFR	18	12	0	MALL	860	n/a	n/a	1	0.422607421875	0.5869140625	0	upper	zerothre.ttf
1909174	WORD	wordpools/wasnorm_wordpool_less_exclusions.txt	LTP290	ltpFR	18	12	0	TREAT	1501	n/a	n/a	0	0.422607421875	0.5869140625	0	upper	zerothre.ttf
1913022	WORD	wordpools/wasnorm_wordpool_less_exclusions.txt	LTP290	ltpFR	18	12	0	CHOCOLATE	306	n/a	n/a	0	0.422607421875	0.5869140625	0	upper	zerothre.ttf
1917187	WORD	wordpools/wasnorm_wordpool_less_exclusions.txt	LTP290	ltpFR	18	12	0	PAINT	1003	n/a	n/a	1	0.422607421875	0.5869140625	0	upper	zerothre.ttf
1921085	WORD	wordpools/wasnorm_wordpool_less_exclusions.txt	LTP290	ltpFR	18	12	0	CRAYON	401	n/a	n/a	0	0.422607421875	0.5869140625	0	upper	zerothre.ttf
1925167	WORD	wordpools/wasnorm_wordpool_less_exclusions.txt	LTP290	ltpFR	18	12	0	PAIL	1002	n/a	n/a	0	0.422607421875	0.5869140625	0	upper	zerothre.ttf
1929296	WORD	wordpools/wasnorm_wordpool_less_exclusions.txt	LTP290	ltpFR	18	12	0	EMPEROR	529	n/a	n/a	1	0.422607421875	0.5869140625	0	upper	zerothre.ttf
1933399	WORD	wordpools/wasnorm_wordpool_less_exclusions.txt	LTP290	ltpFR	18	12	0	PALACE	1006	n/a	n/a	1	0.422607421875	0.5869140625	0	upper	zerothre.ttf
1937246	WORD	wordpools/wasnorm_wordpool_less_exclusions.txt	LTP290	ltpFR	18	12	0	HOME	712	n/a	n/a	1	0.422607421875	0.5869140625	0	upper	zerothre.ttf
1941094	WORD	wordpools/wasnorm_wordpool_less_exclusions.txt	LTP290	ltpFR	18	12	0	CONTRACTOR	369	n/a	n/a	0	0.422607421875	0.5869140625	0	upper	zerothre.ttf
1945038	WORD	wordpools/wasnorm_wordpool_less_exclusions.txt	LTP290	ltpFR	18	12	0	RADIO	1157	n/a	n/a	0	0.422607421875	0.5869140625	0	upper	zerothre.ttf
1950911	REC_START	n/a	LTP290	ltpFR	18	12	n/a	n/a	n/a	n/a	n/a	n/a	n/a	n/a	n/a	n/a	n/a
1951072	REC_WORD_VV	wordpools/wasnorm_wordpool_less_exclusions.txt	LTP290	ltpFR	18	12	n/a	<>	-1	n/a	n/a	n/a	n/a	n/a	n/a	n/a	n/a
1951813	REC_WORD	wordpools/wasnorm_wordpool_less_exclusions.txt	LTP290	ltpFR	18	12	0	RADIO	1157	n/a	n/a	0	n/a	n/a	n/a	n/a	n/a
1952287	REC_WORD	wordpools/wasnorm_wordpool_less_exclusions.txt	LTP290	ltpFR	18	12	0	CONTRACTOR	369	n/a	n/a	0	n/a	n/a	n/a	n/a	n/a
1954871	REC_WORD	wordpools/wasnorm_wordpool_less_exclusions.txt	LTP290	ltpFR	18	12	0	NOTE	958	n/a	n/a	0	n/a	n/a	n/a	n/a	n/a
2029863	WORD	wordpools/wasnorm_wordpool_less_exclusions.txt	LTP290	ltpFR	18	13	-1	INVENTOR	743	n/a	n/a	-1	1.0	1.0	1	upper	Verdana.ttf
2033728	WORD	wordpools/wasnorm_wordpool_less_exclusions.txt	LTP290	ltpFR	18	13	-1	LILY	821	n/a	n/a	-1	1.0	1.0	1	upper	Verdana.ttf
2037693	WORD	wordpools/wasnorm_wordpool_less_exclusions.txt	LTP290	ltpFR	18	13	-1	COSTUME	383	n/a	n/a	-1	1.0	1.0	1	upper	Verdana.ttf
2041907	WORD	wordpools/wasnorm_wordpool_less_exclusions.txt	LTP290	ltpFR	18	13	-1	MUSHROOM	934	n/a	n/a	-1	1.0	1.0	1	upper	Verdana.ttf
2045852	WORD	wordpools/wasnorm_wordpool_less_exclusions.txt	LTP290	ltpFR	18	13	-1	SCALLOP	1242	n/a	n/a	-1	1.0	1.0	1	upper	Verdana.ttf
2049738	WORD	wordpools/wasnorm_wordpool_less_exclusions.txt	LTP290	ltpFR	18	13	-1	CONTAINER	366	n/a	n/a	-1	1.0	1.0	1	upper	Verdana.ttf
2053720	WORD	wordpools/wasnorm_wordpool_less_exclusions.txt	LTP290	ltpFR	18	13	-1	CREEK	404	n/a	n/a	-1	1.0	1.0	1	upper	Verdana.ttf
2057751	WORD	wordpools/wasnorm_wordpool_less_exclusions.txt	LTP290	ltpFR	18	13	-1	FOUNTAIN	597	n/a	n/a	-1	1.0	1.0	1	upper	Verdana.ttf
2061813	WORD	wordpools/wasnorm_wordpool_less_exclusions.txt	LTP290	ltpFR	18	13	-1	JELLY	755	n/a	n/a	-1	1.0	1.0	1	upper	Verdana.ttf
2065798	WORD	wordpools/wasnorm_wordpool_less_exclusions.txt	LTP290	ltpFR	18	13	-1	GARDEN	623	n/a	n/a	-1	1.0	1.0	1	upper	Verdana.ttf
2069814	WORD	wordpools/wasnorm_wordpool_less_exclusions.txt	LTP290	ltpFR	18	13	-1	MARKET	871	n/a	n/a	-1	1.0	1.0	1	upper	Verdana.ttf
2073825	WORD	wordpools/wasnorm_wordpool_less_exclusions.txt	LTP290	ltpFR	18	13	-1	CAFETERIA	217	n/a	n/a	-1	1.0	1.0	1	upper	Verdana.ttf
2077689	WORD	wordpools/wasnorm_wordpool_less_exclusions.txt	LTP290	ltpFR	18	13	-1	CIRCUS	311	n/a	n/a	-1	1.0	1.0	1	upper	Verdana.ttf
2081692	WORD	wordpools/wasnorm_wordpool_less_exclusions.txt	LTP290	ltpFR	18	13	-1	IRON	744	n/a	n/a	-1	1.0	1.0	1	upper	Verdana.ttf
2085891	WORD	wordpools/wasnorm_wordpool_less_exclusions.txt	LTP290	ltpFR	18	13	-1	HOSTESS	723	n/a	n/a	-1	1.0	1.0	1	upper	Verdana.ttf
2090102	WORD	wordpools/wasnorm_wordpool_less_exclusions.txt	LTP290	ltpFR	18	13	-1	KNEE	784	n/a	n/a	-1	1.0	1.0	1	upper	Verdana.ttf
2095813	REC_START	n/a	LTP290	ltpFR	18	13	n/a	n/a	n/a	n/a	n/a	n/a	n/a	n/a	n/a	n/a	n/a
2097480	REC_WORD	wordpools/wasnorm_wordpool_less_exclusions.txt	LTP290	ltpFR	18	13	-1	HOSTESS	723	n/a	n/a	-1	n/a	n/a	n/a	n/a	n/a
2098341	REC_WORD	wordpools/wasnorm_wordpool_less_exclusions.txt	LTP290	ltpFR	18	13	-1	KNEE	784	n/a	n/a	-1	n/a	n/a	n/a	n/a	n/a
2098745	REC_WORD	wordpools/wasnorm_wordpool_less_exclusions.txt	LTP290	ltpFR	18	13	-1	INVENTOR	743	n/a	n/a	-1	n/a	n/a	n/a	n/a	n/a
2190162	WORD	wordpools/wasnorm_wordpool_less_exclusions.txt	LTP290	ltpFR	18	14	-1	SHIRT	1287	n/a	n/a	-1	1.0	1.0	1	upper	Verdana.ttf
2194344	WORD	wordpools/wasnorm_wordpool_less_exclusions.txt	LTP290	ltpFR	18	14	-1	LOBBY	836	n/a	n/a	-1	1.0	1.0	1	upper	Verdana.ttf
2198394	WORD	wordpools/wasnorm_wordpool_less_exclusions.txt	LTP290	ltpFR	18	14	-1	RACCOON	1153	n/a	n/a	-1	1.0	1.0	1	upper	Verdana.ttf
2202464	WORD	wordpools/wasnorm_wordpool_less_exclusions.txt	LTP290	ltpFR	18	14	-1	DEER	444	n/a	n/a	-1	1.0	1.0	1	upper	Verdana.ttf
2206625	WORD	wordpools/wasnorm_wordpool_less_exclusions.txt	LTP290	ltpFR	18	14	-1	PASSAGE	1019	n/a	n/a	-1	1.0	1.0	1	upper	Verdana.ttf
2210640	WORD	wordpools/wasnorm_wordpool_less_exclusions.txt	LTP290	ltpFR	18	14	-1	SLACKS	1323	n/a	n/a	-1	1.0	1.0	1	upper	Verdana.ttf
2214559	WORD	wordpools/wasnorm_wordpool_less_exclusions.txt	LTP290	ltpFR	18	14	-1	PEPPER	1047	n/a	n/a	-1	1.0	1.0	1	upper	Verdana.ttf
2218608	WORD	wordpools/wasnorm_wordpool_less_exclusions.txt	LTP290	ltpFR	18	14	-1	STOCKING	1383	n/a	n/a	-1	1.0	1.0	1	upper	Verdana.ttf
2222736	WORD	wordpools/wasnorm_wordpool_less_exclusions.txt	LTP290	ltpFR	18	14	-1	APRON	35	n/a	n/a	-1	1.0	1.0	1	upper	Verdana.ttf
2226734	WORD	wordpools/wasnorm_wordpool_less_exclusions.txt	LTP290	ltpFR	18	14	-1	BRUNETTE	181	n/a	n/a	-1	1.0	1.0	1	upper	Verdana.ttf
2230787	WORD	wordpools/wasnorm_wordpool_less_exclusions.txt	LTP290	ltpFR	18	14	-1	BOULDER	155	n/a	n/a	-1	1.0	1.0	1	upper	Verdana.ttf
2234835	WORD	wordpools/wasnorm_wordpool_less_exclusions.txt	LTP290	ltpFR	18	14	-1	STONE	1385	n/a	n/a	-1	1.0	1.0	1	upper	Verdana.ttf
2238733	WORD	wordpools/wasnorm_wordpool_less_exclusions.txt	LTP290	ltpFR	18	14	-1	SAXOPHONE	1240	n/a	n/a	-1	1.0	1.0	1	upper	Verdana.ttf
2242749	WORD	wordpools/wasnorm_wordpool_less_exclusions.txt	LTP290	ltpFR	18	14	-1	ELF	525	n/a	n/a	-1	1.0	1.0	1	upper	Verdana.ttf
2246680	WORD	wordpools/wasnorm_wordpool_less_exclusions.txt	LTP290	ltpFR	18	14	-1	FIDDLE	561	n/a	n/a	-1	1.0	1.0	1	upper	Verdana.ttf
2250545	WORD	wordpools/wasnorm_wordpool_less_exclusions.txt	LTP290	ltpFR	18	14	-1	RECORD	1176	n/a	n/a	-1	1.0	1.0	1	upper	Verdana.ttf
2256283	REC_START	n/a	LTP290	ltpFR	18	14	n/a	n/a	n/a	n/a	n/a	n/a	n/a	n/a	n/a	n/a	n/a
2256490	REC_WORD_VV	wordpools/wasnorm_wordpool_less_exclusions.txt	LTP290	ltpFR	18	14	n/a	<>	-1	n/a	n/a	n/a	n/a	n/a	n/a	n/a	n/a
2257463	REC_WORD	wordpools/wasnorm_wordpool_less_exclusions.txt	LTP290	ltpFR	18	14	-1	ELF	525	n/a	n/a	-1	n/a	n/a	n/a	n/a	n/a
2257716	REC_WORD	wordpools/wasnorm_wordpool_less_exclusions.txt	LTP290	ltpFR	18	14	-1	SAXOPHONE	1240	n/a	n/a	-1	n/a	n/a	n/a	n/a	n/a
2258466	REC_WORD	wordpools/wasnorm_wordpool_less_exclusions.txt	LTP290	ltpFR	18	14	-1	FIDDLE	561	n/a	n/a	-1	n/a	n/a	n/a	n/a	n/a
2258987	REC_WORD	wordpools/wasnorm_wordpool_less_exclusions.txt	LTP290	ltpFR	18	14	-1	RECORD	1176	n/a	n/a	-1	n/a	n/a	n/a	n/a	n/a
2261367	REC_WORD	wordpools/wasnorm_wordpool_less_exclusions.txt	LTP290	ltpFR	18	14	-1	STOCKING	1383	n/a	n/a	-1	n/a	n/a	n/a	n/a	n/a
2272660	REC_WORD	wordpools/wasnorm_wordpool_less_exclusions.txt	LTP290	ltpFR	18	14	-1	PEPPER	1047	n/a	n/a	-1	n/a	n/a	n/a	n/a	n/a
2273452	REC_WORD	wordpools/wasnorm_wordpool_less_exclusions.txt	LTP290	ltpFR	18	14	-1	SLACKS	1323	n/a	n/a	-1	n/a	n/a	n/a	n/a	n/a
2336229	WORD	wordpools/wasnorm_wordpool_less_exclusions.txt	LTP290	ltpFR	18	15	0	WATERFALL	1595	n/a	n/a	1	0.422607421875	0.5869140625	0	upper	zerothre.ttf
2340177	WORD	wordpools/wasnorm_wordpool_less_exclusions.txt	LTP290	ltpFR	18	15	0	BUCKET	184	n/a	n/a	0	0.422607421875	0.5869140625	0	upper	zerothre.ttf
2344146	WORD	wordpools/wasnorm_wordpool_less_exclusions.txt	LTP290	ltpFR	18	15	0	OATMEAL	967	n/a	n/a	0	0.422607421875	0.5869140625	0	upper	zerothre.ttf
2348195	WORD	wordpools/wasnorm_wordpool_less_exclusions.txt	LTP290	ltpFR	18	15	0	RICE	1190	n/a	n/a	0	0.422607421875	0.5869140625	0	upper	zerothre.ttf
2352227	WORD	wordpools/wasnorm_wordpool_less_exclusions.txt	LTP290	ltpFR	18	15	0	BRIDGE	174	n/a	n/a	1	0.422607421875	0.5869140625	0	upper	zerothre.ttf
2356410	WORD	wordpools/wasnorm_wordpool_less_exclusions.txt	LTP290	ltpFR	18	15	0	CONE	363	n/a	n/a	0	0.422607421875	0.5869140625	0	upper	zerothre.ttf
2360307	WORD	wordpools/wasnorm_wordpool_less_exclusions.txt	LTP290	ltpFR	18	15	0	XEROX	1628	n/a	n/a	0	0.422607421875	0.5869140625	0	upper	zerothre.ttf
2364356	WORD	wordpools/wasnorm_wordpool_less_exclusions.txt	LTP290	ltpFR	18	15	0	BATHROOM	99	n/a	n/a	1	0.422607421875	0.5869140625	0	upper	zerothre.ttf
2368254	WORD	wordpools/wasnorm_wordpool_less_exclusions.txt	LTP290	ltpFR	18	15	0	ROBE	1198	n/a	n/a	0	0.422607421875	0.5869140625	0	upper	zerothre.ttf
2372219	WORD	wordpools/wasnorm_wordpool_less_exclusions.txt	LTP290	ltpFR	18	15	0	CURTAIN	427	n/a	n/a	1	0.422607421875	0.5869140625	0	upper	zerothre.ttf
2376301	WORD	wordpools/wasnorm_wordpool_less_exclusions.txt	LTP290	ltpFR	18	15	0	CEREAL	272	n/a	n/a	0	0.422607421875	0.5869140625	0	upper	zerothre.ttf
2380518	WORD	wordpools/wasnorm_wordpool_less_exclusions.txt	LTP290	ltpFR	18	15	0	MOAT	903	n/a	n/a	0	0.422607421875	0.5869140625	0	upper	zerothre.ttf
2384633	WORD	wordpools/wasnorm_wordpool_less_exclusions.txt	LTP290	ltpFR	18	15	0	ZEBRA	1635	n/a	n/a	1	0.422607421875	0.5869140625	0	upper	zerothre.ttf
2388598	WORD	wordpools/wasnorm_wordpool_less_exclusions.txt	LTP290	ltpFR	18	15	0	GLASS	639	n/a	n/a	0	0.422607421875	0.5869140625	0	upper	zerothre.ttf
2392630	WORD	wordpools/wasnorm_wordpool_less_exclusions.txt	LTP290	ltpFR	18	15	0	BOOK	149	n/a	n/a	0	0.422607421875	0.5869140625	0	upper	zerothre.ttf
2396729	WORD	wordpools/wasnorm_wordpool_less_exclusions.txt	LTP290	ltpFR	18	15	0	BRUSH	182	n/a	n/a	0	0.422607421875	0.5869140625	0	upper	zerothre.ttf
2402635	REC_START	n/a	LTP290	ltpFR	18	15	n/a	n/a	n/a	n/a	n/a	n/a	n/a	n/a	n/a	n/a	n/a
2403490	REC_WORD	wordpools/wasnorm_wordpool_less_exclusions.txt	LTP290	ltpFR	18	15	0	BRUSH	182	n/a	n/a	0	n/a	n/a	n/a	n/a	n/a
2404431	REC_WORD	wordpools/wasnorm_wordpool_less_exclusions.txt	LTP290	ltpFR	18	15	0	ZEBRA	1635	n/a	n/a	1	n/a	n/a	n/a	n/a	n/a
2405210	REC_WORD	wordpools/wasnorm_wordpool_less_exclusions.txt	LTP290	ltpFR	18	15	0	GLASS	639	n/a	n/a	0	n/a	n/a	n/a	n/a	n/a
2419340	REC_WORD	wordpools/wasnorm_wordpool_less_exclusions.txt	LTP290	ltpFR	18	15	0	WATERFALL	1595	n/a	n/a	1	n/a	n/a	n/a	n/a	n/a
2421961	REC_WORD	wordpools/wasnorm_wordpool_less_exclusions.txt	LTP290	ltpFR	18	15	0	BUCKET	184	n/a	n/a	0	n/a	n/a	n/a	n/a	n/a
2422902	REC_WORD	wordpools/wasnorm_wordpool_less_exclusions.txt	LTP290	ltpFR	18	15	0	OATMEAL	967	n/a	n/a	0	n/a	n/a	n/a	n/a	n/a
2423712	REC_WORD	wordpools/wasnorm_wordpool_less_exclusions.txt	LTP290	ltpFR	18	15	0	RICE	1190	n/a	n/a	0	n/a	n/a	n/a	n/a	n/a
2424399	REC_WORD	wordpools/wasnorm_wordpool_less_exclusions.txt	LTP290	ltpFR	18	15	0	BRIDGE	174	n/a	n/a	1	n/a	n/a	n/a	n/a	n/a
2481816	WORD	wordpools/wasnorm_wordpool_less_exclusions.txt	LTP290	ltpFR	18	16	1	STOOL	1386	n/a	n/a	1	0.57763671875	0.412841796875	1	lower	amplitud.ttf
2485727	WORD	wordpools/wasnorm_wordpool_less_exclusions.txt	LTP290	ltpFR	18	16	1	EMPLOYEE	531	n/a	n/a	n/a	0.57763671875	0.412841796875	1	lower	amplitud.ttf
2488776	SLOW_MSG	n/a	LTP290	ltpFR	18	16	n/a	n/a	n/a	n/a	n/a	n/a	n/a	n/a	n/a	n/a	n/a
2491368	WORD	wordpools/wasnorm_wordpool_less_exclusions.txt	LTP290	ltpFR	18	16	1	COLONEL	348	n/a	n/a	1	0.57763671875	0.412841796875	1	lower	amplitud.ttf
2495451	WORD	wordpools/wasnorm_wordpool_less_exclusions.txt	LTP290	ltpFR	18	16	1	PASTRY	1022	n/a	n/a	0	0.57763671875	0.412841796875	1	lower	amplitud.ttf
2499533	WORD	wordpools/wasnorm_wordpool_less_exclusions.txt	LTP290	ltpFR	18	16	1	MARSH	874	n/a	n/a	0	0.57763671875	0.412841796875	1	lower	amplitud.ttf
2503548	WORD	wordpools/wasnorm_wordpool_less_exclusions.txt	LTP290	ltpFR	18	16	1	OCEAN	970	n/a	n/a	0	0.57763671875	0.412841796875	1	lower	amplitud.ttf
2507664	WORD	wordpools/wasnorm_wordpool_less_exclusions.txt	LTP290	ltpFR	18	16	1	SUPERVISOR	1410	n/a	n/a	1	0.57763671875	0.412841796875	1	lower	amplitud.ttf
2511528	WORD	wordpools/wasnorm_wordpool_less_exclusions.txt	LTP290	ltpFR	18	16	1	RECEPTIONIST	1174	n/a	n/a	1	0.57763671875	0.412841796875	1	lower	amplitud.ttf
2515443	WORD	wordpools/wasnorm_wordpool_less_exclusions.txt	LTP290	ltpFR	18	16	1	SEED	1266	n/a	n/a	0	0.57763671875	0.412841796875	1	lower	amplitud.ttf
2519492	WORD	wordpools/wasnorm_wordpool_less_exclusions.txt	LTP290	ltpFR	18	16	1	VASE	1549	n/a	n/a	0	0.57763671875	0.412841796875	1	lower	amplitud.ttf
2523473	WORD	wordpools/wasnorm_wordpool_less_exclusions.txt	LTP290	ltpFR	18	16	1	SHOELACE	1289	n/a	n/a	0	0.57763671875	0.412841796875	1	lower	amplitud.ttf
2527455	WORD	wordpools/wasnorm_wordpool_less_exclusions.txt	LTP290	ltpFR	18	16	1	DOUGHNUT	490	n/a	n/a	1	0.57763671875	0.412841796875	1	lower	amplitud.ttf
2531281	WORD	wordpools/wasnorm_wordpool_less_exclusions.txt	LTP290	ltpFR	18	16	1	UNIFORM	1539	n/a	n/a	0	0.57763671875	0.412841796875	1	lower	amplitud.ttf
2535133	WORD	wordpools/wasnorm_wordpool_less_exclusions.txt	LTP290	ltpFR	18	16	1	ARMY	39	n/a	n/a	0	0.57763671875	0.412841796875	1	lower	amplitud.ttf
2539228	WORD	wordpools/wasnorm_wordpool_less_exclusions.txt	LTP290	ltpFR	18	16	1	NICKEL	950	n/a	n/a	0	0.57763671875	0.412841796875	1	lower	amplitud.ttf
2543146	WORD	wordpools/wasnorm_wordpool_less_exclusions.txt	LTP290	ltpFR	18	16	1	HOUSE	725	n/a	n/a	0	0.57763671875	0.412841796875	1	lower	amplitud.ttf
2549049	REC_START	n/a	LTP290	ltpFR	18	16	n/a	n/a	n/a	n/a	n/a	n/a	n/a	n/a	n/a	n/a	n/a
2550415	REC_WORD	wordpools/wasnorm_wordpool_less_exclusions.txt	LTP290	ltpFR	18	16	1	HOUSE	725	n/a	n/a	0	n/a	n/a	n/a	n/a	n/a
2550988	REC_WORD	wordpools/wasnorm_wordpool_less_exclusions.txt	LTP290	ltpFR	18	16	1	NICKEL	950	n/a	n/a	0	n/a	n/a	n/a	n/a	n/a
2551662	REC_WORD	wordpools/wasnorm_wordpool_less_exclusions.txt	LTP290	ltpFR	18	16	1	DOUGHNUT	490	n/a	n/a	1	n/a	n/a	n/a	n/a	n/a
2552436	REC_WORD	wordpools/wasnorm_wordpool_less_exclusions.txt	LTP290	ltpFR	18	16	1	UNIFORM	1539	n/a	n/a	0	n/a	n/a	n/a	n/a	n/a
2553432	REC_WORD	wordpools/wasnorm_wordpool_less_exclusions.txt	LTP290	ltpFR	18	16	1	ARMY	39	n/a	n/a	0	n/a	n/a	n/a	n/a	n/a
2634374	REC_START	n/a	LTP290	ltpFR	18	n/a	n/a	n/a	n/a	n/a	n/a	n/a	n/a	n/a	n/a	n/a	n/a
2634969	FFR_REC_WORD	wordpools/wasnorm_wordpool_less_exclusions.txt	LTP290	ltpFR	18	n/a	-1	INVENTOR	743	n/a	n/a	-1	n/a	n/a	n/a	n/a	n/a
2635688	FFR_REC_WORD	wordpools/wasnorm_wordpool_less_exclusions.txt	LTP290	ltpFR	18	n/a	-1	LILY	821	n/a	n/a	-1	n/a	n/a	n/a	n/a	n/a
2638450	FFR_REC_WORD	wordpools/wasnorm_wordpool_less_exclusions.txt	LTP290	ltpFR	18	n/a	1	BEAR	106	n/a	n/a	1	n/a	n/a	n/a	n/a	n/a
2639771	FFR_REC_WORD	wordpools/wasnorm_wordpool_less_exclusions.txt	LTP290	ltpFR	18	n/a	1	CARDINAL	244	n/a	n/a	1	n/a	n/a	n/a	n/a	n/a
2640511	FFR_REC_WORD	wordpools/wasnorm_wordpool_less_exclusions.txt	LTP290	ltpFR	18	n/a	1	BLUEJAY	141	n/a	n/a	1	n/a	n/a	n/a	n/a	n/a
2641316	FFR_REC_WORD	wordpools/wasnorm_wordpool_less_exclusions.txt	LTP290	ltpFR	18	n/a	1	MEADOW	881	n/a	n/a	0	n/a	n/a	n/a	n/a	n/a
2642707	FFR_REC_WORD	wordpools/wasnorm_wordpool_less_exclusions.txt	LTP290	ltpFR	18	n/a	1	RAM	1165	n/a	n/a	0	n/a	n/a	n/a	n/a	n/a
2643546	FFR_REC_WORD	wordpools/wasnorm_wordpool_less_exclusions.txt	LTP290	ltpFR	18	n/a	1	BLADE	134	n/a	n/a	0	n/a	n/a	n/a	n/a	n/a
2645691	FFR_REC_WORD	wordpools/wasnorm_wordpool_less_exclusions.txt	LTP290	ltpFR	18	n/a	0	BRIDGE	174	n/a	n/a	1	n/a	n/a	n/a	n/a	n/a
2646355	FFR_REC_WORD	wordpools/wasnorm_wordpool_less_exclusions.txt	LTP290	ltpFR	18	n/a	0	BUCKET	184	n/a	n/a	0	n/a	n/a	n/a	n/a	n/a
2646914	FFR_REC_WORD	wordpools/wasnorm_wordpool_less_exclusions.txt	LTP290	ltpFR	18	n/a	0	WATERFALL	1595	n/a	n/a	1	n/a	n/a	n/a	n/a	n/a
2647771	FFR_REC_WORD	wordpools/wasnorm_wordpool_less_exclusions.txt	LTP290	ltpFR	18	n/a	0	OATMEAL	967	n/a	n/a	0	n/a	n/a	n/a	n/a	n/a
2648461	FFR_REC_WORD	wordpools/wasnorm_wordpool_less_exclusions.txt	LTP290	ltpFR	18	n/a	0	RICE	1190	n/a	n/a	0	n/a	n/a	n/a	n/a	n/a
2650769	FFR_REC_WORD	wordpools/wasnorm_wordpool_less_exclusions.txt	LTP290	ltpFR	18	n/a	0	STAPLE	1371	n/a	n/a	0	n/a	n/a	n/a	n/a	n/a
2651538	FFR_REC_WORD	wordpools/wasnorm_wordpool_less_exclusions.txt	LTP290	ltpFR	18	n/a	0	CHEESE	289	n/a	n/a	0	n/a	n/a	n/a	n/a	n/a
2654735	FFR_REC_WORD	wordpools/wasnorm_wordpool_less_exclusions.txt	LTP290	ltpFR	18	n/a	n/a	PLANET	1082	n/a	n/a	n/a	n/a	n/a	n/a	n/a	n/a
2657196	FFR_REC_WORD	wordpools/wasnorm_wordpool_less_exclusions.txt	LTP290	ltpFR	18	n/a	1	NEPTUNE	943	n/a	n/a	0	n/a	n/a	n/a	n/a	n/a
2660173	FFR_REC_WORD	wordpools/wasnorm_wordpool_less_exclusions.txt	LTP290	ltpFR	18	n/a	1	SHIP	1286	n/a	n/a	0	n/a	n/a	n/a	n/a	n/a
2660866	FFR_REC_WORD	wordpools/wasnorm_wordpool_less_exclusions.txt	LTP290	ltpFR	18	n/a	1	CAPTAIN	239	n/a	n/a	1	n/a	n/a	n/a	n/a	n/a
2662487	FFR_REC_WORD	wordpools/wasnorm_wordpool_less_exclusions.txt	LTP290	ltpFR	18	n/a	1	DONKEY	484	n/a	n/a	0	n/a	n/a	n/a	n/a	n/a
2666046	FFR_REC_WORD	wordpools/wasnorm_wordpool_less_exclusions.txt	LTP290	ltpFR	18	n/a	1	PUBLICATION	1136	n/a	n/a	0	n/a	n/a	n/a	n/a	n/a
2666915	FFR_REC_WORD	wordpools/wasnorm_wordpool_less_exclusions.txt	LTP290	ltpFR	18	n/a	1	PRODUCER	1129	n/a	n/a	1	n/a	n/a	n/a	n/a	n/a
2668174	FFR_REC_WORD	wordpools/wasnorm_wordpool_less_exclusions.txt	LTP290	ltpFR	18	n/a	1	BARLEY	88	n/a	n/a	1	n/a	n/a	n/a	n/a	n/a
2670203	FFR_REC_WORD	wordpools/wasnorm_wordpool_less_exclusions.txt	LTP290	ltpFR	18	n/a	0	KNIGHT	786	n/a	n/a	1	n/a	n/a	n/a	n/a	n/a
2670870	FFR_REC_WORD	wordpools/wasnorm_wordpool_less_exclusions.txt	LTP290	ltpFR	18	n/a	0	SALMON	1227	n/a	n/a	0	n/a	n/a	n/a	n/a	n/a
2699548	FFR_REC_WORD	wordpools/wasnorm_wordpool_less_exclusions.txt	LTP290	ltpFR	18	n/a	0	COLUMN	350	n/a	n/a	1	n/a	n/a	n/a	n/a	n/a
2701206	FFR_REC_WORD	wordpools/wasnorm_wordpool_less_exclusions.txt	LTP290	ltpFR	18	n/a	0	CRACKER	398	n/a	n/a	0	n/a	n/a	n/a	n/a	n/a
2705297	FFR_REC_WORD	wordpools/wasnorm_wordpool_less_exclusions.txt	LTP290	ltpFR	18	n/a	0	CHEERLEADER	288	n/a	n/a	1	n/a	n/a	n/a	n/a	n/a
2705957	FFR_REC_WORD	wordpools/wasnorm_wordpool_less_exclusions.txt	LTP290	ltpFR	18	n/a	0	TOWER	1490	n/a	n/a	1	n/a	n/a	n/a	n/a	n/a
2709015	FFR_REC_WORD	wordpools/wasnorm_wordpool_less_exclusions.txt	LTP290	ltpFR	18	n/a	1	VOLLEYBALL	1576	n/a	n/a	0	n/a	n/a	n/a	n/a	n/a
2709651	FFR_REC_WORD	wordpools/wasnorm_wordpool_less_exclusions.txt	LTP290	ltpFR	18	n/a	1	CHECKERS	285	n/a	n/a	0	n/a	n/a	n/a	n/a	n/a
2718139	FFR_REC_WORD	wordpools/wasnorm_wordpool_less_exclusions.txt	LTP290	ltpFR	18	n/a	1	TROPHY	1509	n/a	n/a	0	n/a	n/a	n/a	n/a	n/a
2718742	FFR_REC_WORD	wordpools/wasnorm_wordpool_less_exclusions.txt	LTP290	ltpFR	18	n/a	1	TREASURE	1500	n/a	n/a	0	n/a	n/a	n/a	n/a	n/a
2725489	FFR_REC_WORD	wordpools/wasnorm_wordpool_less_exclusions.txt	LTP290	ltpFR	18	n/a	0	CLIMBER	323	n/a	n/a	1	n/a	n/a	n/a	n/a	n/a
2726024	FFR_REC_WORD	wordpools/wasnorm_wordpool_less_exclusions.txt	LTP290	ltpFR	18	n/a	0	MITTEN	902	n/a	n/a	0	n/a	n/a	n/a	n/a	n/a
2727021	FFR_REC_WORD	wordpools/wasnorm_wordpool_less_exclusions.txt	LTP290	ltpFR	18	n/a	0	TACK	1428	n/a	n/a	0	n/a	n/a	n/a	n/a	n/a
2727900	FFR_REC_WORD	wordpools/wasnorm_wordpool_less_exclusions.txt	LTP290	ltpFR	18	n/a	0	COUGAR	387	n/a	n/a	1	n/a	n/a	n/a	n/a	n/a
2729729	FFR_REC_WORD	wordpools/wasnorm_wordpool_less_exclusions.txt	LTP290	ltpFR	18	n/a	1	SPONGE	1355	n/a	n/a	0	n/a	n/a	n/a	n/a	n/a
2730416	FFR_REC_WORD	wordpools/wasnorm_wordpool_less_exclusions.txt	LTP290	ltpFR	18	n/a	1	APE	31	n/a	n/a	1	n/a	n/a	n/a	n/a	n/a
2730935	FFR_REC_WORD	wordpools/wasnorm_wordpool_less_exclusions.txt	LTP290	ltpFR	18	n/a	0	BAY	102	n/a	n/a	1	n/a	n/a	n/a	n/a	n/a
2731288	FFR_REC_WORD	wordpools/wasnorm_wordpool_less_exclusions.txt	LTP290	ltpFR	18	n/a	0	SHARK	1275	n/a	n/a	1	n/a	n/a	n/a	n/a	n/a
2731814	FFR_REC_WORD	wordpools/wasnorm_wordpool_less_exclusions.txt	LTP290	ltpFR	18	n/a	1	BIOLOGIST	128	n/a	n/a	1	n/a	n/a	n/a	n/a	n/a
2736943	FFR_REC_WORD	wordpools/wasnorm_wordpool_less_exclusions.txt	LTP290	ltpFR	18	n/a	1	SIDEWALK	1303	n/a	n/a	0	n/a	n/a	n/a	n/a	n/a
2737505	FFR_REC_WORD	wordpools/wasnorm_wordpool_less_exclusions.txt	LTP290	ltpFR	18	n/a	0	ALLEY	15	n/a	n/a	1	n/a	n/a	n/a	n/a	n/a
2737984	FFR_REC_WORD	wordpools/wasnorm_wordpool_less_exclusions.txt	LTP290	ltpFR	18	n/a	0	TABLE	1426	n/a	n/a	1	n/a	n/a	n/a	n/a	n/a
2738480	FFR_REC_WORD	wordpools/wasnorm_wordpool_less_exclusions.txt	LTP290	ltpFR	18	n/a	0	TEAPOT	1442	n/a	n/a	1	n/a	n/a	n/a	n/a	n/a
2739039	FFR_REC_WORD	wordpools/wasnorm_wordpool_less_exclusions.txt	LTP290	ltpFR	18	n/a	0	PRIMATE	1123	n/a	n/a	1	n/a	n/a	n/a	n/a	n/a
2743633	FFR_REC_WORD	wordpools/wasnorm_wordpool_less_exclusions.txt	LTP290	ltpFR	18	n/a	1	EAR	513	n/a	n/a	0	n/a	n/a	n/a	n/a	n/a
2744102	FFR_REC_WORD	wordpools/wasnorm_wordpool_less_exclusions.txt	LTP290	ltpFR	18	n/a	1	POLYESTER	1100	n/a	n/a	0	n/a	n/a	n/a	n/a	n/a
2747161	FFR_REC_WORD	wordpools/wasnorm_wordpool_less_exclusions.txt	LTP290	ltpFR	18	n/a	0	NOTE	958	n/a	n/a	0	n/a	n/a	n/a	n/a	n/a
2748351	FFR_REC_WORD	wordpools/wasnorm_wordpool_less_exclusions.txt	LTP290	ltpFR	18	n/a	0	GLASS	639	n/a	n/a	0	n/a	n/a	n/a	n/a	n/a
2750267	FFR_REC_WORD	wordpools/wasnorm_wordpool_less_exclusions.txt	LTP290	ltpFR	18	n/a	1	DONKEY	484	n/a	n/a	0	n/a	n/a	n/a	n/a	n/a
2760143	FFR_REC_WORD	wordpools/wasnorm_wordpool_less_exclusions.txt	LTP290	ltpFR	18	n/a	1	FAMILY	550	n/a	n/a	1	n/a	n/a	n/a	n/a	n/a
2760680	FFR_REC_WORD	wordpools/wasnorm_wordpool_less_exclusions.txt	LTP290	ltpFR	18	n/a	1	RELATIVE	1182	n/a	n/a	1	n/a	n/a	n/a	n/a	n/a
2767265	FFR_REC_WORD	wordpools/wasnorm_wordpool_less_exclusions.txt	LTP290	ltpFR	18	n/a	1	KIWI	781	n/a	n/a	0	n/a	n/a	n/a	n/a	n/a
2767720	FFR_REC_WORD	wordpools/wasnorm_wordpool_less_exclusions.txt	LTP290	ltpFR	18	n/a	1	BANANA	77	n/a	n/a	0	n/a	n/a	n/a	n/a	n/a
2833416	FFR_REC_WORD	wordpools/wasnorm_wordpool_less_exclusions.txt	LTP290	ltpFR	18	n/a	1	STOOL	1386	n/a	n/a	1	n/a	n/a	n/a	n/a	n/a
2837580	FFR_REC_WORD	wordpools/wasnorm_wordpool_less_exclusions.txt	LTP290	ltpFR	18	n/a	1	PASSENGER	1020	n/a	n/a	1	n/a	n/a	n/a	n/a	n/a
2849967	FFR_REC_WORD	wordpools/wasnorm_wordpool_less_exclusions.txt	LTP290	ltpFR	18	n/a	0	COUNTY	389	n/a	n/a	1	n/a	n/a	n/a	n/a	n/a
2852852	FFR_REC_WORD	wordpools/wasnorm_wordpool_less_exclusions.txt	LTP290	ltpFR	18	n/a	0	TURKEY	1520	n/a	n/a	0	n/a	n/a	n/a	n/a	n/a
2921158	FFR_REC_WORD	wordpools/wasnorm_wordpool_less_exclusions.txt	LTP290	ltpFR	18	n/a	1	VEST	1559	n/a	n/a	0	n/a	n/a	n/a	n/a	n/a
2921780	FFR_REC_WORD	wordpools/wasnorm_wordpool_less_exclusions.txt	LTP290	ltpFR	18	n/a	0	FLANNEL	574	n/a	n/a	0	n/a	n/a	n/a	n/a	n/a
2923608	FFR_REC_WORD	wordpools/wasnorm_wordpool_less_exclusions.txt	LTP290	ltpFR	18	n/a	0	BUFFALO	186	n/a	n/a	0	n/a	n/a	n/a	n/a	n/a
2924138	FFR_REC_WORD	wordpools/wasnorm_wordpool_less_exclusions.txt	LTP290	ltpFR	18	n/a	0	WALRUS	1585	n/a	n/a	1	n/a	n/a	n/a	n/a	n/a
2926457	FFR_REC_WORD	wordpools/wasnorm_wordpool_less_exclusions.txt	LTP290	ltpFR	18	n/a	0	RIVER	1194	n/a	n/a	1	n/a	n/a	n/a	n/a	n/a
3324091	REC_START	n/a	LTP290	ltpFR	18	1	n/a	n/a	n/a	n/a	n/a	n/a	n/a	n/a	n/a	n/a	n/a
3324153	RECOG_LURE	n/a	LTP290	ltpFR	18	1	n/a	REGISTER	1180	0	3	n/a	n/a	n/a	n/a	n/a	n/a
3325257	RECOG_RESP	n/a	LTP290	ltpFR	18	1	n/a	REGISTER	1180	0	n/a	n/a	n/a	n/a	n/a	n/a	n/a
3326208	RECOG_CONF	n/a	LTP290	ltpFR	18	1	n/a	REGISTER	1180	n/a	3	n/a	n/a	n/a	n/a	n/a	n/a
3327933	RECOG_TARGET	n/a	LTP290	ltpFR	18	1	-1	FOUNTAIN	597	1	1	-1	n/a	n/a	n/a	n/a	n/a
3328842	RECOG_RESP	n/a	LTP290	ltpFR	18	1	-1	FOUNTAIN	597	1	n/a	-1	n/a	n/a	n/a	n/a	n/a
3329435	RECOG_CONF	n/a	LTP290	ltpFR	18	1	-1	FOUNTAIN	597	n/a	1	-1	n/a	n/a	n/a	n/a	n/a
3331217	RECOG_TARGET	n/a	LTP290	ltpFR	18	1	1	VIOLA	1570	1	4	0	n/a	n/a	n/a	n/a	n/a
3331812	RECOG_RESP	n/a	LTP290	ltpFR	18	1	1	VIOLA	1570	1	n/a	0	n/a	n/a	n/a	n/a	n/a
3332308	RECOG_CONF	n/a	LTP290	ltpFR	18	1	1	VIOLA	1570	n/a	4	0	n/a	n/a	n/a	n/a	n/a
3333894	RECOG_TARGET	n/a	LTP290	ltpFR	18	1	-1	RACCOON	1153	1	2	-1	n/a	n/a	n/a	n/a	n/a
3334452	RECOG_RESP	n/a	LTP290	ltpFR	18	1	-1	RACCOON	1153	1	n/a	-1	n/a	n/a	n/a	n/a	n/a
3334883	RECOG_CONF	n/a	LTP290	ltpFR	18	1	-1	RACCOON	1153	n/a	2	-1	n/a	n/a	n/a	n/a	n/a
3336588	RECOG_TARGET	n/a	LTP290	ltpFR	18	1	1	BRACELET	163	1	2	0	n/a	n/a	n/a	n/a	n/a
3337452	RECOG_RESP	n/a	LTP290	ltpFR	18	1	1	BRACELET	163	1	n/a	0	n/a	n/a	n/a	n/a	n/a
3338053	RECOG_CONF	n/a	LTP290	ltpFR	18	1	1	BRACELET	163	n/a	2	0	n/a	n/a	n/a	n/a	n/a
3339683	RECOG_LURE	n/a	LTP290	ltpFR	18	1	n/a	ABDOMEN	1	0	2	n/a	n/a	n/a	n/a	n/a	n/a
3340452	RECOG_RESP	n/a	LTP290	ltpFR	18	1	n/a	ABDOMEN	1	0	n/a	n/a	n/a	n/a	n/a	n/a	n/a
3341123	RECOG_CONF	n/a	LTP290	ltpFR	18	1	n/a	ABDOMEN	1	n/a	2	n/a	n/a	n/a	n/a	n/a	n/a
3342794	RECOG_TARGET	n/a	LTP290	ltpFR	18	1	0	TACK	1428	1	4	0	n/a	n/a	n/a	n/a	n/a
3343337	RECOG_RESP	n/a	LTP290	ltpFR	18	1	0	TACK	1428	1	n/a	0	n/a	n/a	n/a	n/a	n/a
3343828	RECOG_CONF	n/a	LTP290	ltpFR	18	1	0	TACK	1428	n/a	4	0	n/a	n/a	n/a	n/a	n/a
3345353	RECOG_TARGET	n/a	LTP290	ltpFR	18	1	1	CONCERT	360	0	1	0	n/a	n/a	n/a	n/a	n/a
3346402	RECOG_RESP	n/a	LTP290	ltpFR	18	1	1	CONCERT	360	0	n/a	0	n/a	n/a	n/a	n/a	n/a
3346915	RECOG_CONF	n/a	LTP290	ltpFR	18	1	1	CONCERT	360	n/a	1	0	n/a	n/a	n/a	n/a	n/a
3348583	RECOG_TARGET	n/a	LTP290	ltpFR	18	1	0	DILL	465	1	3	0	n/a	n/a	n/a	n/a	n/a
3349192	RECOG_RESP	n/a	LTP290	ltpFR	18	1	0	DILL	465	1	n/a	0	n/a	n/a	n/a	n/a	n/a
3349648	RECOG_CONF	n/a	LTP290	ltpFR	18	1	0	DILL	465	n/a	3	0	n/a	n/a	n/a	n/a	n/a
3351158	RECOG_LURE	n/a	LTP290	ltpFR	18	1	n/a	FLOUR	583	0	2	n/a	n/a	n/a	n/a	n/a	n/a
3352092	RECOG_RESP	n/a	LTP290	ltpFR	18	1	n/a	FLOUR	583	0	n/a	n/a	n/a	n/a	n/a	n/a	n/a
3352563	RECOG_CONF	n/a	LTP290	ltpFR	18	1	n/a	FLOUR	583	n/a	2	n/a	n/a	n/a	n/a	n/a	n/a
3354366	RECOG_LURE	n/a	LTP290	ltpFR	18	1	n/a	AWARD	63	0	1	n/a	n/a	n/a	n/a	n/a	n/a
3355167	RECOG_RESP	n/a	LTP290	ltpFR	18	1	n/a	AWARD	63	0	n/a	n/a	n/a	n/a	n/a	n/a	n/a
3356025	RECOG_CONF	n/a	LTP290	ltpFR	18	1	n/a	AWARD	63	n/a	1	n/a	n/a	n/a	n/a	n/a	n/a
3357818	RECOG_LURE	n/a	LTP290	ltpFR	18	1	n/a	STOMACH	1384	0	2	n/a	n/a	n/a	n/a	n/a	n/a
3358567	RECOG_RESP	n/a	LTP290	ltpFR	18	1	n/a	STOMACH	1384	0	n/a	n/a	n/a	n/a	n/a	n/a	n/a
3358963	RECOG_CONF	n/a	LTP290	ltpFR	18	1	n/a	STOMACH	1384	n/a	2	n/a	n/a	n/a	n/a	n/a	n/a
3360545	RECOG_TARGET	n/a	LTP290	ltpFR	18	1	-1	ELF	525	1	5	-1	n/a	n/a	n/a	n/a	n/a
3361217	RECOG_RESP	n/a	LTP290	ltpFR	18	1	-1	ELF	525	1	n/a	-1	n/a	n/a	n/a	n/a	n/a
3361720	RECOG_CONF	n/a	LTP290	ltpFR	18	1	-1	ELF	525	n/a	5	-1	n/a	n/a	n/a	n/a	n/a
3363371	RECOG_TARGET	n/a	LTP290	ltpFR	18	1	1	VASE	1549	1	3	0	n/a	n/a	n/a	n/a	n/a
3363982	RECOG_RESP	n/a	LTP290	ltpFR	18	1	1	VASE	1549	1	n/a	0	n/a	n/a	n/a	n/a	n/a
3364678	RECOG_CONF	n/a	LTP290	ltpFR	18	1	1	VASE	1549	n/a	3	0	n/a	n/a	n/a	n/a	n/a
3366161	RECOG_TARGET	n/a	LTP290	ltpFR	18	1	-1	HEN	703	1	2	-1	n/a	n/a	n/a	n/a	n/a
3366802	RECOG_RESP	n/a	LTP290	ltpFR	18	1	-1	HEN	703	1	n/a	-1	n/a	n/a	n/a	n/a	n/a
3367233	RECOG_CONF	n/a	LTP290	ltpFR	18	1	-1	HEN	703	n/a	2	-1	n/a	n/a	n/a	n/a	n/a
3368726	RECOG_TARGET	n/a	LTP290	ltpFR	18	1	1	SEED	1266	1	1	0	n/a	n/a	n/a	n/a	n/a
3369367	RECOG_RESP	n/a	LTP290	ltpFR	18	1	1	SEED	1266	1	n/a	0	n/a	n/a	n/a	n/a	n/a
3369855	RECOG_CONF	n/a	LTP290	ltpFR	18	1	1	SEED	1266	n/a	1	0	n/a	n/a	n/a	n/a	n/a
3371503	RECOG_TARGET	n/a	LTP290	ltpFR	18	1	1	BIOLOGIST	128	1	5	1	n/a	n/a	n/a	n/a	n/a
3372132	RECOG_RESP	n/a	LTP290	ltpFR	18	1	1	BIOLOGIST	128	1	n/a	1	n/a	n/a	n/a	n/a	n/a
3372600	RECOG_CONF	n/a	LTP290	ltpFR	18	1	1	BIOLOGIST	128	n/a	5	1	n/a	n/a	n/a	n/a	n/a
3374174	RECOG_TARGET	n/a	LTP290	ltpFR	18	1	-1	CLERK	321	0	2	-1	n/a	n/a	n/a	n/a	n/a
3374967	RECOG_RESP	n/a	LTP290	ltpFR	18	1	-1	CLERK	321	0	n/a	-1	n/a	n/a	n/a	n/a	n/a
3375464	RECOG_CONF	n/a	LTP290	ltpFR	18	1	-1	CLERK	321	n/a	2	-1	n/a	n/a	n/a	n/a	n/a
3377207	RECOG_TARGET	n/a	LTP290	ltpFR	18	1	0	TREAT	1501	0	3	0	n/a	n/a	n/a	n/a	n/a
3378052	RECOG_RESP	n/a	LTP290	ltpFR	18	1	0	TREAT	1501	0	n/a	0	n/a	n/a	n/a	n/a	n/a
3378578	RECOG_CONF	n/a	LTP290	ltpFR	18	1	0	TREAT	1501	n/a	3	0	n/a	n/a	n/a	n/a	n/a
3380197	RECOG_TARGET	n/a	LTP290	ltpFR	18	1	0	HEEL	700	1	4	0	n/a	n/a	n/a	n/a	n/a
3380872	RECOG_RESP	n/a	LTP290	ltpFR	18	1	0	HEEL	700	1	n/a	0	n/a	n/a	n/a	n/a	n/a
3381268	RECOG_CONF	n/a	LTP290	ltpFR	18	1	0	HEEL	700	n/a	4	0	n/a	n/a	n/a	n/a	n/a
3384623	REC_START	n/a	LTP290	ltpFR	18	2	n/a	n/a	n/a	n/a	n/a	n/a	n/a	n/a	n/a	n/a	n/a
3384686	RECOG_TARGET	n/a	LTP290	ltpFR	18	2	0	PALACE	1006	0	2	1	n/a	n/a	n/a	n/a	n/a
3385439	RECOG_RESP	n/a	LTP290	ltpFR	18	2	0	PALACE	1006	0	n/a	1	n/a	n/a	n/a	n/a	n/a
3385805	RECOG_CONF	n/a	LTP290	ltpFR	18	2	0	PALACE	1006	n/a	2	1	n/a	n/a	n/a	n/a	n/a
3387547	RECOG_LURE	n/a	LTP290	ltpFR	18	2	n/a	LOOP	844	0	1	n/a	n/a	n/a	n/a	n/a	n/a
3388354	RECOG_RESP	n/a	LTP290	ltpFR	18	2	n/a	LOOP	844	0	n/a	n/a	n/a	n/a	n/a	n/a	n/a
3388927	RECOG_CONF	n/a	LTP290	ltpFR	18	2	n/a	LOOP	844	n/a	1	n/a	n/a	n/a	n/a	n/a	n/a
3390625	RECOG_TARGET	n/a	LTP290	ltpFR	18	2	-1	BUSH	202	1	4	-1	n/a	n/a	n/a	n/a	n/a
3391279	RECOG_RESP	n/a	LTP290	ltpFR	18	2	-1	BUSH	202	1	n/a	-1	n/a	n/a	n/a	n/a	n/a
3391740	RECOG_CONF	n/a	LTP290	ltpFR	18	2	-1	BUSH	202	n/a	4	-1	n/a	n/a	n/a	n/a	n/a
3393334	RECOG_LURE	n/a	LTP290	ltpFR	18	2	n/a	YOLK	1633	0	2	n/a	n/a	n/a	n/a	n/a	n/a
3394199	RECOG_RESP	n/a	LTP290	ltpFR	18	2	n/a	YOLK	1633	0	n/a	n/a	n/a	n/a	n/a	n/a	n/a
3394595	RECOG_CONF	n/a	LTP290	ltpFR	18	2	n/a	YOLK	1633	n/a	2	n/a	n/a	n/a	n/a	n/a	n/a
3396262	RECOG_TARGET	n/a	LTP290	ltpFR	18	2	0	GARLIC	624	1	1	0	n/a	n/a	n/a	n/a	n/a
3397154	RECOG_RESP	n/a	LTP290	ltpFR	18	2	0	GARLIC	624	1	n/a	0	n/a	n/a	n/a	n/a	n/a
3397617	RECOG_CONF	n/a	LTP290	ltpFR	18	2	0	GARLIC	624	n/a	1	0	n/a	n/a	n/a	n/a	n/a
3399336	RECOG_LURE	n/a	LTP290	ltpFR	18	2	n/a	BED	110	0	2	n/a	n/a	n/a	n/a	n/a	n/a
3400139	RECOG_RESP	n/a	LTP290	ltpFR	18	2	n/a	BED	110	0	n/a	n/a	n/a	n/a	n/a	n/a	n/a
3400545	RECOG_CONF	n/a	LTP290	ltpFR	18	2	n/a	BED	110	n/a	2	n/a	n/a	n/a	n/a	n/a	n/a
3402264	RECOG_TARGET	n/a	LTP290	ltpFR	18	2	1	VEHICLE	1553	1	3	0	n/a	n/a	n/a	n/a	n/a
3402964	RECOG_RESP	n/a	LTP290	ltpFR	18	2	1	VEHICLE	1553	1	n/a	0	n/a	n/a	n/a	n/a	n/a
3403680	RECOG_CONF	n/a	LTP290	ltpFR	18	2	1	VEHICLE	1553	n/a	3	0	n/a	n/a	n/a	n/a	n/a
3405179	RECOG_TARGET	n/a	LTP290	ltpFR	18	2	0	STAFF	1365	1	3	1	n/a	n/a	n/a	n/a	n/a
3405889	RECOG_RESP	n/a	LTP290	ltpFR	18	2	0	STAFF	1365	1	n/a	1	n/a	n/a	n/a	n/a	n/a
3406330	RECOG_CONF	n/a	LTP290	ltpFR	18	2	0	STAFF	1365	n/a	3	1	n/a	n/a	n/a	n/a	n/a
3407789	RECOG_TARGET	n/a	LTP290	ltpFR	18	2	-1	PIGMENT	1066	1	2	-1	n/a	n/a	n/a	n/a	n/a
3408439	RECOG_RESP	n/a	LTP290	ltpFR	18	2	-1	PIGMENT	1066	1	n/a	-1	n/a	n/a	n/a	n/a	n/a
3409055	RECOG_CONF	n/a	LTP290	ltpFR	18	2	-1	PIGMENT	1066	n/a	2	-1	n/a	n/a	n/a	n/a	n/a
3410617	RECOG_LURE	n/a	LTP290	ltpFR	18	2	n/a	LOFT	840	0	1	n/a	n/a	n/a	n/a	n/a	n/a
3411394	RECOG_RESP	n/a	LTP290	ltpFR	18	2	n/a	LOFT	840	0	n/a	n/a	n/a	n/a	n/a	n/a	n/a
3413057	RECOG_CONF	n/a	LTP290	ltpFR	18	2	n/a	LOFT	840	n/a	1	n/a	n/a	n/a	n/a	n/a	n/a
3414749	RECOG_TARGET	n/a	LTP290	ltpFR	18	2	0	CRAYON	401	1	3	0	n/a	n/a	n/a	n/a	n/a
3415409	RECOG_RESP	n/a	LTP290	ltpFR	18	2	0	CRAYON	401	1	n/a	0	n/a	n/a	n/a	n/a	n/a
3415850	RECOG_CONF	n/a	LTP290	ltpFR	18	2	0	CRAYON	401	n/a	3	0	n/a	n/a	n/a	n/a	n/a
3417405	RECOG_TARGET	n/a	LTP290	ltpFR	18	2	0	REFEREE	1178	1	3	1	n/a	n/a	n/a	n/a	n/a
3418079	RECOG_RESP	n/a	LTP290	ltpFR	18	2	0	REFEREE	1178	1	n/a	1	n/a	n/a	n/a	n/a	n/a
3418550	RECOG_CONF	n/a	LTP290	ltpFR	18	2	0	REFEREE	1178	n/a	3	1	n/a	n/a	n/a	n/a	n/a
3420114	RECOG_LURE	n/a	LTP290	ltpFR	18	2	n/a	LOUNGE	845	1	2	n/a	n/a	n/a	n/a	n/a	n/a
3420744	RECOG_RESP	n/a	LTP290	ltpFR	18	2	n/a	LOUNGE	845	1	n/a	n/a	n/a	n/a	n/a	n/a	n/a
3421115	RECOG_CONF	n/a	LTP290	ltpFR	18	2	n/a	LOUNGE	845	n/a	2	n/a	n/a	n/a	n/a	n/a	n/a
3422708	RECOG_TARGET	n/a	LTP290	ltpFR	18	2	1	ZIPPER	1636	1	3	0	n/a	n/a	n/a	n/a	n/a
3423274	RECOG_RESP	n/a	LTP290	ltpFR	18	2	1	ZIPPER	1636	1	n/a	0	n/a	n/a	n/a	n/a	n/a
3423670	RECOG_CONF	n/a	LTP290	ltpFR	18	2	1	ZIPPER	1636	n/a	3	0	n/a	n/a	n/a	n/a	n/a
3425187	RECOG_TARGET	n/a	LTP290	ltpFR	18	2	-1	TREE	1502	0	2	-1	n/a	n/a	n/a	n/a	n/a
3425929	RECOG_RESP	n/a	LTP290	ltpFR	18	2	-1	TREE	1502	0	n/a	-1	n/a	n/a	n/a	n/a	n/a
3426395	RECOG_CONF	n/a	LTP290	ltpFR	18	2	-1	TREE	1502	n/a	2	-1	n/a	n/a	n/a	n/a	n/a
3428044	RECOG_TARGET	n/a	LTP290	ltpFR	18	2	-1	COP	376	1	4	-1	n/a	n/a	n/a	n/a	n/a
3428659	RECOG_RESP	n/a	LTP290	ltpFR	18	2	-1	COP	376	1	n/a	-1	n/a	n/a	n/a	n/a	n/a
3429070	RECOG_CONF	n/a	LTP290	ltpFR	18	2	-1	COP	376	n/a	4	-1	n/a	n/a	n/a	n/a	n/a
3430642	RECOG_TARGET	n/a	LTP290	ltpFR	18	2	1	PASSENGER	1020	1	4	1	n/a	n/a	n/a	n/a	n/a
3431544	RECOG_RESP	n/a	LTP290	ltpFR	18	2	1	PASSENGER	1020	1	n/a	1	n/a	n/a	n/a	n/a	n/a
3432140	RECOG_CONF	n/a	LTP290	ltpFR	18	2	1	PASSENGER	1020	n/a	4	1	n/a	n/a	n/a	n/a	n/a
3433670	RECOG_TARGET	n/a	LTP290	ltpFR	18	2	1	NEWSSTAND	949	0	2	0	n/a	n/a	n/a	n/a	n/a
3434409	RECOG_RESP	n/a	LTP290	ltpFR	18	2	1	NEWSSTAND	949	0	n/a	0	n/a	n/a	n/a	n/a	n/a
3434805	RECOG_CONF	n/a	LTP290	ltpFR	18	2	1	NEWSSTAND	949	n/a	2	0	n/a	n/a	n/a	n/a	n/a
3436531	RECOG_LURE	n/a	LTP290	ltpFR	18	2	n/a	CROSS	413	0	3	n/a	n/a	n/a	n/a	n/a	n/a
3437429	RECOG_RESP	n/a	LTP290	ltpFR	18	2	n/a	CROSS	413	0	n/a	n/a	n/a	n/a	n/a	n/a	n/a
3437900	RECOG_CONF	n/a	LTP290	ltpFR	18	2	n/a	CROSS	413	n/a	3	n/a	n/a	n/a	n/a	n/a	n/a
3439542	RECOG_TARGET	n/a	LTP290	ltpFR	18	2	0	RECEIPT	1173	1	3	0	n/a	n/a	n/a	n/a	n/a
3440179	RECOG_RESP	n/a	LTP290	ltpFR	18	2	0	RECEIPT	1173	1	n/a	0	n/a	n/a	n/a	n/a	n/a
3440660	RECOG_CONF	n/a	LTP290	ltpFR	18	2	0	RECEIPT	1173	n/a	3	0	n/a	n/a	n/a	n/a	n/a
3444093	REC_START	n/a	LTP290	ltpFR	18	3	n/a	n/a	n/a	n/a	n/a	n/a	n/a	n/a	n/a	n/a	n/a
3444142	RECOG_LURE	n/a	LTP290	ltpFR	18	3	n/a	TAVERN	1437	0	2	n/a	n/a	n/a	n/a	n/a	n/a
3444939	RECOG_RESP	n/a	LTP290	ltpFR	18	3	n/a	TAVERN	1437	0	n/a	n/a	n/a	n/a	n/a	n/a	n/a
3445295	RECOG_CONF	n/a	LTP290	ltpFR	18	3	n/a	TAVERN	1437	n/a	2	n/a	n/a	n/a	n/a	n/a	n/a
3446883	RECOG_TARGET	n/a	LTP290	ltpFR	18	3	0	CHEF	290	1	4	1	n/a	n/a	n/a	n/a	n/a
3447444	RECOG_RESP	n/a	LTP290	ltpFR	18	3	0	CHEF	290	1	n/a	1	n/a	n/a	n/a	n/a	n/a
3447985	RECOG_CONF	n/a	LTP290	ltpFR	18	3	0	CHEF	290	n/a	4	1	n/a	n/a	n/a	n/a	n/a
3449630	RECOG_TARGET	n/a	LTP290	ltpFR	18	3	1	SHOELACE	1289	1	3	0	n/a	n/a	n/a	n/a	n/a
3450264	RECOG_RESP	n/a	LTP290	ltpFR	18	3	1	SHOELACE	1289	1	n/a	0	n/a	n/a	n/a	n/a	n/a
3450920	RECOG_CONF	n/a	LTP290	ltpFR	18	3	1	SHOELACE	1289	n/a	3	0	n/a	n/a	n/a	n/a	n/a
3452420	RECOG_LURE	n/a	LTP290	ltpFR	18	3	n/a	CAVITY	264	0	2	n/a	n/a	n/a	n/a	n/a	n/a
3453159	RECOG_RESP	n/a	LTP290	ltpFR	18	3	n/a	CAVITY	264	0	n/a	n/a	n/a	n/a	n/a	n/a	n/a
3453583	RECOG_CONF	n/a	LTP290	ltpFR	18	3	n/a	CAVITY	264	n/a	2	n/a	n/a	n/a	n/a	n/a	n/a
3455318	RECOG_LURE	n/a	LTP290	ltpFR	18	3	n/a	LASH	802	0	1	n/a	n/a	n/a	n/a	n/a	n/a
3456159	RECOG_RESP	n/a	LTP290	ltpFR	18	3	n/a	LASH	802	0	n/a	n/a	n/a	n/a	n/a	n/a	n/a
3456613	RECOG_CONF	n/a	LTP290	ltpFR	18	3	n/a	LASH	802	n/a	1	n/a	n/a	n/a	n/a	n/a	n/a
3458279	RECOG_TARGET	n/a	LTP290	ltpFR	18	3	1	SPONGE	1355	1	4	0	n/a	n/a	n/a	n/a	n/a
3458909	RECOG_RESP	n/a	LTP290	ltpFR	18	3	1	SPONGE	1355	1	n/a	0	n/a	n/a	n/a	n/a	n/a
3459340	RECOG_CONF	n/a	LTP290	ltpFR	18	3	1	SPONGE	1355	n/a	4	0	n/a	n/a	n/a	n/a	n/a
3460856	RECOG_LURE	n/a	LTP290	ltpFR	18	3	n/a	BIRD	129	0	2	n/a	n/a	n/a	n/a	n/a	n/a
3461689	RECOG_RESP	n/a	LTP290	ltpFR	18	3	n/a	BIRD	129	0	n/a	n/a	n/a	n/a	n/a	n/a	n/a
3462213	RECOG_CONF	n/a	LTP290	ltpFR	18	3	n/a	BIRD	129	n/a	2	n/a	n/a	n/a	n/a	n/a	n/a
3463863	RECOG_TARGET	n/a	LTP290	ltpFR	18	3	1	SPIDER	1351	1	3	1	n/a	n/a	n/a	n/a	n/a
3464429	RECOG_RESP	n/a	LTP290	ltpFR	18	3	1	SPIDER	1351	1	n/a	1	n/a	n/a	n/a	n/a	n/a
3464850	RECOG_CONF	n/a	LTP290	ltpFR	18	3	1	SPIDER	1351	n/a	3	1	n/a	n/a	n/a	n/a	n/a
3466359	RECOG_TARGET	n/a	LTP290	ltpFR	18	3	1	VET	1560	0	2	0	n/a	n/a	n/a	n/a	n/a
3467104	RECOG_RESP	n/a	LTP290	ltpFR	18	3	1	VET	1560	0	n/a	0	n/a	n/a	n/a	n/a	n/a
3467550	RECOG_CONF	n/a	LTP290	ltpFR	18	3	1	VET	1560	n/a	2	0	n/a	n/a	n/a	n/a	n/a
3469170	RECOG_TARGET	n/a	LTP290	ltpFR	18	3	-1	IRON	744	0	1	-1	n/a	n/a	n/a	n/a	n/a
3470619	RECOG_RESP	n/a	LTP290	ltpFR	18	3	-1	IRON	744	0	n/a	-1	n/a	n/a	n/a	n/a	n/a
3471279	RECOG_CONF	n/a	LTP290	ltpFR	18	3	-1	IRON	744	n/a	1	-1	n/a	n/a	n/a	n/a	n/a
3473034	RECOG_TARGET	n/a	LTP290	ltpFR	18	3	1	BARLEY	88	1	3	1	n/a	n/a	n/a	n/a	n/a
3473594	RECOG_RESP	n/a	LTP290	ltpFR	18	3	1	BARLEY	88	1	n/a	1	n/a	n/a	n/a	n/a	n/a
3474070	RECOG_CONF	n/a	LTP290	ltpFR	18	3	1	BARLEY	88	n/a	3	1	n/a	n/a	n/a	n/a	n/a
3475645	RECOG_TARGET	n/a	LTP290	ltpFR	18	3	1	NAVIGATOR	938	1	4	1	n/a	n/a	n/a	n/a	n/a
3476174	RECOG_RESP	n/a	LTP290	ltpFR	18	3	1	NAVIGATOR	938	1	n/a	1	n/a	n/a	n/a	n/a	n/a
3476570	RECOG_CONF	n/a	LTP290	ltpFR	18	3	1	NAVIGATOR	938	n/a	4	1	n/a	n/a	n/a	n/a	n/a
3478037	RECOG_LURE	n/a	LTP290	ltpFR	18	3	n/a	WIDOW	1608	0	2	n/a	n/a	n/a	n/a	n/a	n/a
3478819	RECOG_RESP	n/a	LTP290	ltpFR	18	3	n/a	WIDOW	1608	0	n/a	n/a	n/a	n/a	n/a	n/a	n/a
3480085	RECOG_CONF	n/a	LTP290	ltpFR	18	3	n/a	WIDOW	1608	n/a	2	n/a	n/a	n/a	n/a	n/a	n/a
3481747	RECOG_TARGET	n/a	LTP290	ltpFR	18	3	1	THORN	1459	0	2	0	n/a	n/a	n/a	n/a	n/a
3482924	RECOG_RESP	n/a	LTP290	ltpFR	18	3	1	THORN	1459	0	n/a	0	n/a	n/a	n/a	n/a	n/a
3483457	RECOG_CONF	n/a	LTP290	ltpFR	18	3	1	THORN	1459	n/a	2	0	n/a	n/a	n/a	n/a	n/a
3485046	RECOG_TARGET	n/a	LTP290	ltpFR	18	3	1	TART	1436	1	4	0	n/a	n/a	n/a	n/a	n/a
3485649	RECOG_RESP	n/a	LTP290	ltpFR	18	3	1	TART	1436	1	n/a	0	n/a	n/a	n/a	n/a	n/a
3486070	RECOG_CONF	n/a	LTP290	ltpFR	18	3	1	TART	1436	n/a	4	0	n/a	n/a	n/a	n/a	n/a
3487490	RECOG_TARGET	n/a	LTP290	ltpFR	18	3	0	COUGAR	387	1	3	1	n/a	n/a	n/a	n/a	n/a
3488119	RECOG_RESP	n/a	LTP290	ltpFR	18	3	0	COUGAR	387	1	n/a	1	n/a	n/a	n/a	n/a	n/a
3488530	RECOG_CONF	n/a	LTP290	ltpFR	18	3	0	COUGAR	387	n/a	3	1	n/a	n/a	n/a	n/a	n/a
3489998	RECOG_LURE	n/a	LTP290	ltpFR	18	3	n/a	FOOT	590	0	1	n/a	n/a	n/a	n/a	n/a	n/a
3490659	RECOG_RESP_VV	n/a	LTP290	ltpFR	18	3	n/a	FOOT	590	0	n/a	n/a	n/a	n/a	n/a	n/a	n/a
3491839	RECOG_RESP	n/a	LTP290	ltpFR	18	3	n/a	FOOT	590	0	n/a	n/a	n/a	n/a	n/a	n/a	n/a
3492558	RECOG_CONF	n/a	LTP290	ltpFR	18	3	n/a	FOOT	590	n/a	1	n/a	n/a	n/a	n/a	n/a	n/a
3494164	RECOG_TARGET	n/a	LTP290	ltpFR	18	3	0	PLATE	1086	1	1	0	n/a	n/a	n/a	n/a	n/a
3494704	RECOG_RESP	n/a	LTP290	ltpFR	18	3	0	PLATE	1086	1	n/a	0	n/a	n/a	n/a	n/a	n/a
3495100	RECOG_RESP_VV	n/a	LTP290	ltpFR	18	3	0	PLATE	1086	n/a	3	0	n/a	n/a	n/a	n/a	n/a
3495297	RECOG_CONF	n/a	LTP290	ltpFR	18	3	0	PLATE	1086	n/a	1	0	n/a	n/a	n/a	n/a	n/a
3496675	RECOG_TARGET	n/a	LTP290	ltpFR	18	3	0	GLASS	639	1	3	0	n/a	n/a	n/a	n/a	n/a
3497279	RECOG_RESP	n/a	LTP290	ltpFR	18	3	0	GLASS	639	1	n/a	0	n/a	n/a	n/a	n/a	n/a
3497690	RECOG_CONF	n/a	LTP290	ltpFR	18	3	0	GLASS	639	n/a	3	0	n/a	n/a	n/a	n/a	n/a
3499200	RECOG_LURE	n/a	LTP290	ltpFR	18	3	n/a	HOE	711	0	2	n/a	n/a	n/a	n/a	n/a	n/a
3500379	RECOG_RESP	n/a	LTP290	ltpFR	18	3	n/a	HOE	711	0	n/a	n/a	n/a	n/a	n/a	n/a	n/a
3500900	RECOG_CONF	n/a	LTP290	ltpFR	18	3	n/a	HOE	711	n/a	2	n/a	n/a	n/a	n/a	n/a	n/a
3504448	REC_START	n/a	LTP290	ltpFR	18	4	n/a	n/a	n/a	n/a	n/a	n/a	n/a	n/a	n/a	n/a	n/a
3504504	RECOG_TARGET	n/a	LTP290	ltpFR	18	4	0	CONTRACTOR	369	1	4	0	n/a	n/a	n/a	n/a	n/a
3506264	RECOG_RESP	n/a	LTP290	ltpFR	18	4	0	CONTRACTOR	369	1	n/a	0	n/a	n/a	n/a	n/a	n/a
3507063	RECOG_CONF	n/a	LTP290	ltpFR	18	4	0	CONTRACTOR	369	n/a	4	0	n/a	n/a	n/a	n/a	n/a
3508800	RECOG_TARGET	n/a	LTP290	ltpFR	18	4	1	SIDEWALK	1303	1	3	0	n/a	n/a	n/a	n/a	n/a
3509399	RECOG_RESP	n/a	LTP290	ltpFR	18	4	1	SIDEWALK	1303	1	n/a	0	n/a	n/a	n/a	n/a	n/a
3509825	RECOG_CONF	n/a	LTP290	ltpFR	18	4	1	SIDEWALK	1303	n/a	3	0	n/a	n/a	n/a	n/a	n/a
3511362	RECOG_TARGET	n/a	LTP290	ltpFR	18	4	0	INTESTINE	742	1	3	1	n/a	n/a	n/a	n/a	n/a
3511929	RECOG_RESP	n/a	LTP290	ltpFR	18	4	0	INTESTINE	742	1	n/a	1	n/a	n/a	n/a	n/a	n/a
3512536	RECOG_CONF	n/a	LTP290	ltpFR	18	4	0	INTESTINE	742	n/a	3	1	n/a	n/a	n/a	n/a	n/a
3514039	RECOG_TARGET	n/a	LTP290	ltpFR	18	4	-1	STEAM	1375	1	3	-1	n/a	n/a	n/a	n/a	n/a
3514624	RECOG_RESP	n/a	LTP290	ltpFR	18	4	-1	STEAM	1375	1	n/a	-1	n/a	n/a	n/a	n/a	n/a
3515105	RECOG_CONF	n/a	LTP290	ltpFR	18	4	-1	STEAM	1375	n/a	3	-1	n/a	n/a	n/a	n/a	n/a
3516796	RECOG_LURE	n/a	LTP290	ltpFR	18	4	n/a	MAP	865	0	1	n/a	n/a	n/a	n/a	n/a	n/a
3517709	RECOG_RESP	n/a	LTP290	ltpFR	18	4	n/a	MAP	865	0	n/a	n/a	n/a	n/a	n/a	n/a	n/a
3518932	RECOG_CONF	n/a	LTP290	ltpFR	18	4	n/a	MAP	865	n/a	1	n/a	n/a	n/a	n/a	n/a	n/a
3520464	RECOG_TARGET	n/a	LTP290	ltpFR	18	4	1	GLACIER	638	1	4	0	n/a	n/a	n/a	n/a	n/a
3521144	RECOG_RESP	n/a	LTP290	ltpFR	18	4	1	GLACIER	638	1	n/a	0	n/a	n/a	n/a	n/a	n/a
3522005	RECOG_CONF	n/a	LTP290	ltpFR	18	4	1	GLACIER	638	n/a	4	0	n/a	n/a	n/a	n/a	n/a
3523609	RECOG_TARGET	n/a	LTP290	ltpFR	18	4	1	BANANA	77	1	4	0	n/a	n/a	n/a	n/a	n/a
3524529	RECOG_RESP	n/a	LTP290	ltpFR	18	4	1	BANANA	77	1	n/a	0	n/a	n/a	n/a	n/a	n/a
3524955	RECOG_CONF	n/a	LTP290	ltpFR	18	4	1	BANANA	77	n/a	4	0	n/a	n/a	n/a	n/a	n/a
3526600	RECOG_LURE	n/a	LTP290	ltpFR	18	4	n/a	PROFESSIONAL	1130	0	2	n/a	n/a	n/a	n/a	n/a	n/a
3527504	RECOG_RESP	n/a	LTP290	ltpFR	18	4	n/a	PROFESSIONAL	1130	0	n/a	n/a	n/a	n/a	n/a	n/a	n/a
3527945	RECOG_CONF	n/a	LTP290	ltpFR	18	4	n/a	PROFESSIONAL	1130	n/a	2	n/a	n/a	n/a	n/a	n/a	n/a
3529582	RECOG_TARGET	n/a	LTP290	ltpFR	18	4	-1	MOSQUITO	917	1	3	-1	n/a	n/a	n/a	n/a	n/a
3530154	RECOG_RESP	n/a	LTP290	ltpFR	18	4	-1	MOSQUITO	917	1	n/a	-1	n/a	n/a	n/a	n/a	n/a
3530605	RECOG_CONF	n/a	LTP290	ltpFR	18	4	-1	MOSQUITO	917	n/a	3	-1	n/a	n/a	n/a	n/a	n/a
3532107	RECOG_TARGET	n/a	LTP290	ltpFR	18	4	0	MAGAZINE	853	1	3	0	n/a	n/a	n/a	n/a	n/a
3532694	RECOG_RESP	n/a	LTP290	ltpFR	18	4	0	MAGAZINE	853	1	n/a	0	n/a	n/a	n/a	n/a	n/a
3533070	RECOG_CONF	n/a	LTP290	ltpFR	18	4	0	MAGAZINE	853	n/a	3	0	n/a	n/a	n/a	n/a	n/a
3534467	RECOG_TARGET	n/a	LTP290	ltpFR	18	4	0	HOME	712	0	2	1	n/a	n/a	n/a	n/a	n/a
3535169	RECOG_RESP	n/a	LTP290	ltpFR	18	4	0	HOME	712	0	n/a	1	n/a	n/a	n/a	n/a	n/a
3535602	RECOG_CONF	n/a	LTP290	ltpFR	18	4	0	HOME	712	n/a	2	1	n/a	n/a	n/a	n/a	n/a
3537226	RECOG_TARGET	n/a	LTP290	ltpFR	18	4	1	SWAMP	1416	1	3	0	n/a	n/a	n/a	n/a	n/a
3537774	RECOG_RESP	n/a	LTP290	ltpFR	18	4	1	SWAMP	1416	1	n/a	0	n/a	n/a	n/a	n/a	n/a
3538265	RECOG_CONF	n/a	LTP290	ltpFR	18	4	1	SWAMP	1416	n/a	3	0	n/a	n/a	n/a	n/a	n/a
3539887	RECOG_LURE	n/a	LTP290	ltpFR	18	4	n/a	BUILDING	191	0	2	n/a	n/a	n/a	n/a	n/a	n/a
3540924	RECOG_RESP	n/a	LTP290	ltpFR	18	4	n/a	BUILDING	191	0	n/a	n/a	n/a	n/a	n/a	n/a	n/a
3541460	RECOG_CONF	n/a	LTP290	ltpFR	18	4	n/a	BUILDING	191	n/a	2	n/a	n/a	n/a	n/a	n/a	n/a
3543216	RECOG_TARGET	n/a	LTP290	ltpFR	18	4	1	ESCALATOR	539	1	4	0	n/a	n/a	n/a	n/a	n/a
3543959	RECOG_RESP	n/a	LTP290	ltpFR	18	4	1	ESCALATOR	539	1	n/a	0	n/a	n/a	n/a	n/a	n/a
3544415	RECOG_CONF	n/a	LTP290	ltpFR	18	4	1	ESCALATOR	539	n/a	4	0	n/a	n/a	n/a	n/a	n/a
3545976	RECOG_TARGET	n/a	LTP290	ltpFR	18	4	1	WHEAT	1602	0	3	0	n/a	n/a	n/a	n/a	n/a
3546759	RECOG_RESP	n/a	LTP290	ltpFR	18	4	1	WHEAT	1602	0	n/a	0	n/a	n/a	n/a	n/a	n/a
3547205	RECOG_CONF	n/a	LTP290	ltpFR	18	4	1	WHEAT	1602	n/a	3	0	n/a	n/a	n/a	n/a	n/a
3548821	RECOG_TARGET	n/a	LTP290	ltpFR	18	4	1	PORTRAIT	1111	1	3	0	n/a	n/a	n/a	n/a	n/a
3549659	RECOG_RESP	n/a	LTP290	ltpFR	18	4	1	PORTRAIT	1111	1	n/a	0	n/a	n/a	n/a	n/a	n/a
3550165	RECOG_CONF	n/a	LTP290	ltpFR	18	4	1	PORTRAIT	1111	n/a	3	0	n/a	n/a	n/a	n/a	n/a
3551765	RECOG_TARGET	n/a	LTP290	ltpFR	18	4	-1	SALAD	1224	1	3	-1	n/a	n/a	n/a	n/a	n/a
3552734	RECOG_RESP	n/a	LTP290	ltpFR	18	4	-1	SALAD	1224	1	n/a	-1	n/a	n/a	n/a	n/a	n/a
3553375	RECOG_CONF	n/a	LTP290	ltpFR	18	4	-1	SALAD	1224	n/a	3	-1	n/a	n/a	n/a	n/a	n/a
3554894	RECOG_TARGET	n/a	LTP290	ltpFR	18	4	0	BRUSH	182	0	2	0	n/a	n/a	n/a	n/a	n/a
3556019	RECOG_RESP	n/a	LTP290	ltpFR	18	4	0	BRUSH	182	0	n/a	0	n/a	n/a	n/a	n/a	n/a
3556565	RECOG_CONF	n/a	LTP290	ltpFR	18	4	0	BRUSH	182	n/a	2	0	n/a	n/a	n/a	n/a	n/a
3558339	RECOG_TARGET	n/a	LTP290	ltpFR	18	4	0	COOKIE	374	1	4	0	n/a	n/a	n/a	n/a	n/a
3559254	RECOG_RESP	n/a	LTP290	ltpFR	18	4	0	COOKIE	374	1	n/a	0	n/a	n/a	n/a	n/a	n/a
3559685	RECOG_CONF	n/a	LTP290	ltpFR	18	4	0	COOKIE	374	n/a	4	0	n/a	n/a	n/a	n/a	n/a
3561213	RECOG_TARGET	n/a	LTP290	ltpFR	18	4	0	BLANKET	135	1	2	0	n/a	n/a	n/a	n/a	n/a
3561964	RECOG_RESP	n/a	LTP290	ltpFR	18	4	0	BLANKET	135	1	n/a	0	n/a	n/a	n/a	n/a	n/a
3562400	RECOG_CONF	n/a	LTP290	ltpFR	18	4	0	BLANKET	135	n/a	2	0	n/a	n/a	n/a	n/a	n/a
3565586	REC_START	n/a	LTP290	ltpFR	18	5	n/a	n/a	n/a	n/a	n/a	n/a	n/a	n/a	n/a	n/a	n/a
3565647	RECOG_TARGET	n/a	LTP290	ltpFR	18	5	1	COLONEL	348	0	2	1	n/a	n/a	n/a	n/a	n/a
3566507	RECOG_RESP	n/a	LTP290	ltpFR	18	5	1	COLONEL	348	0	n/a	1	n/a	n/a	n/a	n/a	n/a
3567000	RECOG_CONF	n/a	LTP290	ltpFR	18	5	1	COLONEL	348	n/a	2	1	n/a	n/a	n/a	n/a	n/a
3568696	RECOG_TARGET	n/a	LTP290	ltpFR	18	5	-1	UMBRELLA	1534	1	4	-1	n/a	n/a	n/a	n/a	n/a
3569322	RECOG_RESP	n/a	LTP290	ltpFR	18	5	-1	UMBRELLA	1534	1	n/a	-1	n/a	n/a	n/a	n/a	n/a
3569793	RECOG_CONF	n/a	LTP290	ltpFR	18	5	-1	UMBRELLA	1534	n/a	4	-1	n/a	n/a	n/a	n/a	n/a
3571423	RECOG_TARGET	n/a	LTP290	ltpFR	18	5	0	CEREAL	272	1	3	0	n/a	n/a	n/a	n/a	n/a
3571982	RECOG_RESP	n/a	LTP290	ltpFR	18	5	0	CEREAL	272	1	n/a	0	n/a	n/a	n/a	n/a	n/a
3572403	RECOG_CONF	n/a	LTP290	ltpFR	18	5	0	CEREAL	272	n/a	3	0	n/a	n/a	n/a	n/a	n/a
3573981	RECOG_TARGET	n/a	LTP290	ltpFR	18	5	1	LEMON	810	1	3	0	n/a	n/a	n/a	n/a	n/a
3574572	RECOG_RESP	n/a	LTP290	ltpFR	18	5	1	LEMON	810	1	n/a	0	n/a	n/a	n/a	n/a	n/a
3575083	RECOG_CONF	n/a	LTP290	ltpFR	18	5	1	LEMON	810	n/a	3	0	n/a	n/a	n/a	n/a	n/a
3576639	RECOG_TARGET	n/a	LTP290	ltpFR	18	5	1	COOKBOOK	373	1	4	0	n/a	n/a	n/a	n/a	n/a
3577197	RECOG_RESP	n/a	LTP290	ltpFR	18	5	1	COOKBOOK	373	1	n/a	0	n/a	n/a	n/a	n/a	n/a
3577643	RECOG_CONF	n/a	LTP290	ltpFR	18	5	1	COOKBOOK	373	n/a	4	0	n/a	n/a	n/a	n/a	n/a
3579235	RECOG_TARGET	n/a	LTP290	ltpFR	18	5	0	RADIO	1157	1	5	0	n/a	n/a	n/a	n/a	n/a
3579802	RECOG_RESP	n/a	LTP290	ltpFR	18	5	0	RADIO	1157	1	n/a	0	n/a	n/a	n/a	n/a	n/a
3580295	RECOG_CONF	n/a	LTP290	ltpFR	18	5	0	RADIO	1157	n/a	5	0	n/a	n/a	n/a	n/a	n/a
3581808	RECOG_LURE	n/a	LTP290	ltpFR	18	5	n/a	CONVENT	370	0	2	n/a	n/a	n/a	n/a	n/a	n/a
3582652	RECOG_RESP	n/a	LTP290	ltpFR	18	5	n/a	CONVENT	370	0	n/a	n/a	n/a	n/a	n/a	n/a	n/a
3583063	RECOG_CONF	n/a	LTP290	ltpFR	18	5	n/a	CONVENT	370	n/a	2	n/a	n/a	n/a	n/a	n/a	n/a
3584639	RECOG_TARGET	n/a	LTP290	ltpFR	18	5	0	VOLUNTEER	1577	1	4	1	n/a	n/a	n/a	n/a	n/a
3585367	RECOG_RESP	n/a	LTP290	ltpFR	18	5	0	VOLUNTEER	1577	1	n/a	1	n/a	n/a	n/a	n/a	n/a
3585973	RECOG_CONF	n/a	LTP290	ltpFR	18	5	0	VOLUNTEER	1577	n/a	4	1	n/a	n/a	n/a	n/a	n/a
3587383	RECOG_TARGET	n/a	LTP290	ltpFR	18	5	-1	BUNNY	198	1	4	-1	n/a	n/a	n/a	n/a	n/a
3588002	RECOG_RESP	n/a	LTP290	ltpFR	18	5	-1	BUNNY	198	1	n/a	-1	n/a	n/a	n/a	n/a	n/a
3588683	RECOG_CONF	n/a	LTP290	ltpFR	18	5	-1	BUNNY	198	n/a	4	-1	n/a	n/a	n/a	n/a	n/a
3590310	RECOG_TARGET	n/a	LTP290	ltpFR	18	5	1	WHISTLE	1606	1	5	0	n/a	n/a	n/a	n/a	n/a
3590937	RECOG_RESP	n/a	LTP290	ltpFR	18	5	1	WHISTLE	1606	1	n/a	0	n/a	n/a	n/a	n/a	n/a
3591595	RECOG_CONF	n/a	LTP290	ltpFR	18	5	1	WHISTLE	1606	n/a	5	0	n/a	n/a	n/a	n/a	n/a
3593288	RECOG_TARGET	n/a	LTP290	ltpFR	18	5	-1	JELLY	755	0	2	-1	n/a	n/a	n/a	n/a	n/a
3593967	RECOG_RESP	n/a	LTP290	ltpFR	18	5	-1	JELLY	755	0	n/a	-1	n/a	n/a	n/a	n/a	n/a
3594518	RECOG_CONF	n/a	LTP290	ltpFR	18	5	-1	JELLY	755	n/a	2	-1	n/a	n/a	n/a	n/a	n/a
3596282	RECOG_LURE	n/a	LTP290	ltpFR	18	5	n/a	BOMB	147	0	1	n/a	n/a	n/a	n/a	n/a	n/a
3596967	RECOG_RESP	n/a	LTP290	ltpFR	18	5	n/a	BOMB	147	0	n/a	n/a	n/a	n/a	n/a	n/a	n/a
3597762	RECOG_CONF	n/a	LTP290	ltpFR	18	5	n/a	BOMB	147	n/a	1	n/a	n/a	n/a	n/a	n/a	n/a
3599360	RECOG_LURE	n/a	LTP290	ltpFR	18	5	n/a	CONTINENT	367	0	1	n/a	n/a	n/a	n/a	n/a	n/a
3601087	RECOG_RESP	n/a	LTP290	ltpFR	18	5	n/a	CONTINENT	367	0	n/a	n/a	n/a	n/a	n/a	n/a	n/a
3601890	RECOG_CONF	n/a	LTP290	ltpFR	18	5	n/a	CONTINENT	367	n/a	1	n/a	n/a	n/a	n/a	n/a	n/a
3603577	RECOG_TARGET	n/a	LTP290	ltpFR	18	5	1	TREASURE	1500	1	5	0	n/a	n/a	n/a	n/a	n/a
3604112	RECOG_RESP	n/a	LTP290	ltpFR	18	5	1	TREASURE	1500	1	n/a	0	n/a	n/a	n/a	n/a	n/a
3604625	RECOG_CONF	n/a	LTP290	ltpFR	18	5	1	TREASURE	1500	n/a	5	0	n/a	n/a	n/a	n/a	n/a
3606354	RECOG_TARGET	n/a	LTP290	ltpFR	18	5	1	TYPIST	1532	1	3	1	n/a	n/a	n/a	n/a	n/a
3607507	RECOG_RESP	n/a	LTP290	ltpFR	18	5	1	TYPIST	1532	1	n/a	1	n/a	n/a	n/a	n/a	n/a
3608133	RECOG_CONF	n/a	LTP290	ltpFR	18	5	1	TYPIST	1532	n/a	3	1	n/a	n/a	n/a	n/a	n/a
3609851	RECOG_LURE	n/a	LTP290	ltpFR	18	5	n/a	COMMITTEE	355	0	2	n/a	n/a	n/a	n/a	n/a	n/a
3610582	RECOG_RESP	n/a	LTP290	ltpFR	18	5	n/a	COMMITTEE	355	0	n/a	n/a	n/a	n/a	n/a	n/a	n/a
3611106	RECOG_CONF	n/a	LTP290	ltpFR	18	5	n/a	COMMITTEE	355	n/a	2	n/a	n/a	n/a	n/a	n/a	n/a
3612745	RECOG_TARGET	n/a	LTP290	ltpFR	18	5	0	ALBUM	14	1	4	0	n/a	n/a	n/a	n/a	n/a
3613327	RECOG_RESP	n/a	LTP290	ltpFR	18	5	0	ALBUM	14	1	n/a	0	n/a	n/a	n/a	n/a	n/a
3613873	RECOG_CONF	n/a	LTP290	ltpFR	18	5	0	ALBUM	14	n/a	4	0	n/a	n/a	n/a	n/a	n/a
3615455	RECOG_TARGET	n/a	LTP290	ltpFR	18	5	0	MICROWAVE	892	0	2	1	n/a	n/a	n/a	n/a	n/a
3616247	RECOG_RESP	n/a	LTP290	ltpFR	18	5	0	MICROWAVE	892	0	n/a	1	n/a	n/a	n/a	n/a	n/a
3616908	RECOG_CONF	n/a	LTP290	ltpFR	18	5	0	MICROWAVE	892	n/a	2	1	n/a	n/a	n/a	n/a	n/a
3618630	RECOG_TARGET	n/a	LTP290	ltpFR	18	5	-1	SLACKS	1323	1	4	-1	n/a	n/a	n/a	n/a	n/a
3619137	RECOG_RESP	n/a	LTP290	ltpFR	18	5	-1	SLACKS	1323	1	n/a	-1	n/a	n/a	n/a	n/a	n/a
3619603	RECOG_CONF	n/a	LTP290	ltpFR	18	5	-1	SLACKS	1323	n/a	4	-1	n/a	n/a	n/a	n/a	n/a
3621226	RECOG_TARGET	n/a	LTP290	ltpFR	18	5	1	GENTLEMAN	631	1	2	1	n/a	n/a	n/a	n/a	n/a
3621902	RECOG_RESP	n/a	LTP290	ltpFR	18	5	1	GENTLEMAN	631	1	n/a	1	n/a	n/a	n/a	n/a	n/a
3622868	RECOG_CONF	n/a	LTP290	ltpFR	18	5	1	GENTLEMAN	631	n/a	2	1	n/a	n/a	n/a	n/a	n/a
3626558	REC_START	n/a	LTP290	ltpFR	18	6	n/a	n/a	n/a	n/a	n/a	n/a	n/a	n/a	n/a	n/a	n/a
3626610	RECOG_TARGET	n/a	LTP290	ltpFR	18	6	0	PAGE	1001	1	3	0	n/a	n/a	n/a	n/a	n/a
3627279	RECOG_RESP	n/a	LTP290	ltpFR	18	6	0	PAGE	1001	1	n/a	0	n/a	n/a	n/a	n/a	n/a
3627915	RECOG_CONF	n/a	LTP290	ltpFR	18	6	0	PAGE	1001	n/a	3	0	n/a	n/a	n/a	n/a	n/a
3629374	RECOG_LURE	n/a	LTP290	ltpFR	18	6	n/a	CIGAR	308	0	2	n/a	n/a	n/a	n/a	n/a	n/a
3630219	RECOG_RESP	n/a	LTP290	ltpFR	18	6	n/a	CIGAR	308	0	n/a	n/a	n/a	n/a	n/a	n/a	n/a
3630730	RECOG_CONF	n/a	LTP290	ltpFR	18	6	n/a	CIGAR	308	n/a	2	n/a	n/a	n/a	n/a	n/a	n/a
3632453	RECOG_TARGET	n/a	LTP290	ltpFR	18	6	0	RICE	1190	1	5	0	n/a	n/a	n/a	n/a	n/a
3633124	RECOG_RESP	n/a	LTP290	ltpFR	18	6	0	RICE	1190	1	n/a	0	n/a	n/a	n/a	n/a	n/a
3633847	RECOG_CONF	n/a	LTP290	ltpFR	18	6	0	RICE	1190	n/a	5	0	n/a	n/a	n/a	n/a	n/a
3635565	RECOG_LURE	n/a	LTP290	ltpFR	18	6	n/a	THIGH	1457	0	1	n/a	n/a	n/a	n/a	n/a	n/a
3636414	RECOG_RESP	n/a	LTP290	ltpFR	18	6	n/a	THIGH	1457	0	n/a	n/a	n/a	n/a	n/a	n/a	n/a
3637173	RECOG_CONF	n/a	LTP290	ltpFR	18	6	n/a	THIGH	1457	n/a	1	n/a	n/a	n/a	n/a	n/a	n/a
3638806	RECOG_LURE	n/a	LTP290	ltpFR	18	6	n/a	SKELETON	1314	0	1	n/a	n/a	n/a	n/a	n/a	n/a
3639504	RECOG_RESP	n/a	LTP290	ltpFR	18	6	n/a	SKELETON	1314	0	n/a	n/a	n/a	n/a	n/a	n/a	n/a
3640362	RECOG_CONF	n/a	LTP290	ltpFR	18	6	n/a	SKELETON	1314	n/a	1	n/a	n/a	n/a	n/a	n/a	n/a
3642155	RECOG_TARGET	n/a	LTP290	ltpFR	18	6	1	BEAR	106	1	4	1	n/a	n/a	n/a	n/a	n/a
3642779	RECOG_RESP	n/a	LTP290	ltpFR	18	6	1	BEAR	106	1	n/a	1	n/a	n/a	n/a	n/a	n/a
3643285	RECOG_CONF	n/a	LTP290	ltpFR	18	6	1	BEAR	106	n/a	4	1	n/a	n/a	n/a	n/a	n/a
3644915	RECOG_TARGET	n/a	LTP290	ltpFR	18	6	-1	HOSTESS	723	1	3	-1	n/a	n/a	n/a	n/a	n/a
3646967	RECOG_RESP	n/a	LTP290	ltpFR	18	6	-1	HOSTESS	723	1	n/a	-1	n/a	n/a	n/a	n/a	n/a
3647995	RECOG_CONF	n/a	LTP290	ltpFR	18	6	-1	HOSTESS	723	n/a	3	-1	n/a	n/a	n/a	n/a	n/a
3649781	RECOG_LURE	n/a	LTP290	ltpFR	18	6	n/a	ASHTRAY	45	1	2	n/a	n/a	n/a	n/a	n/a	n/a
3650494	RECOG_RESP	n/a	LTP290	ltpFR	18	6	n/a	ASHTRAY	45	1	n/a	n/a	n/a	n/a	n/a	n/a	n/a
3650810	RECOG_CONF	n/a	LTP290	ltpFR	18	6	n/a	ASHTRAY	45	n/a	2	n/a	n/a	n/a	n/a	n/a	n/a
3652558	RECOG_TARGET	n/a	LTP290	ltpFR	18	6	0	PAN	1008	1	1	0	n/a	n/a	n/a	n/a	n/a
3654554	RECOG_RESP	n/a	LTP290	ltpFR	18	6	0	PAN	1008	1	n/a	0	n/a	n/a	n/a	n/a	n/a
3655272	RECOG_CONF	n/a	LTP290	ltpFR	18	6	0	PAN	1008	n/a	1	0	n/a	n/a	n/a	n/a	n/a
3657011	RECOG_TARGET	n/a	LTP290	ltpFR	18	6	-1	CONTAINER	366	0	3	-1	n/a	n/a	n/a	n/a	n/a
3657809	RECOG_RESP	n/a	LTP290	ltpFR	18	6	-1	CONTAINER	366	0	n/a	-1	n/a	n/a	n/a	n/a	n/a
3658605	RECOG_CONF	n/a	LTP290	ltpFR	18	6	-1	CONTAINER	366	n/a	3	-1	n/a	n/a	n/a	n/a	n/a
3660089	RECOG_TARGET	n/a	LTP290	ltpFR	18	6	1	DESK	452	1	2	0	n/a	n/a	n/a	n/a	n/a
3660784	RECOG_RESP	n/a	LTP290	ltpFR	18	6	1	DESK	452	1	n/a	0	n/a	n/a	n/a	n/a	n/a
3661490	RECOG_CONF	n/a	LTP290	ltpFR	18	6	1	DESK	452	n/a	2	0	n/a	n/a	n/a	n/a	n/a
3663084	RECOG_LURE	n/a	LTP290	ltpFR	18	6	n/a	BEETLE	116	0	1	n/a	n/a	n/a	n/a	n/a	n/a
3664029	RECOG_RESP	n/a	LTP290	ltpFR	18	6	n/a	BEETLE	116	0	n/a	n/a	n/a	n/a	n/a	n/a	n/a
3664572	RECOG_CONF	n/a	LTP290	ltpFR	18	6	n/a	BEETLE	116	n/a	1	n/a	n/a	n/a	n/a	n/a	n/a
3666393	RECOG_LURE	n/a	LTP290	ltpFR	18	6	n/a	TERRITORY	1452	0	2	n/a	n/a	n/a	n/a	n/a	n/a
3667114	RECOG_RESP	n/a	LTP290	ltpFR	18	6	n/a	TERRITORY	1452	0	n/a	n/a	n/a	n/a	n/a	n/a	n/a
3667652	RECOG_CONF	n/a	LTP290	ltpFR	18	6	n/a	TERRITORY	1452	n/a	2	n/a	n/a	n/a	n/a	n/a	n/a
3669374	RECOG_TARGET	n/a	LTP290	ltpFR	18	6	0	TEAPOT	1442	1	4	1	n/a	n/a	n/a	n/a	n/a
3669984	RECOG_RESP	n/a	LTP290	ltpFR	18	6	0	TEAPOT	1442	1	n/a	1	n/a	n/a	n/a	n/a	n/a
3670435	RECOG_CONF	n/a	LTP290	ltpFR	18	6	0	TEAPOT	1442	n/a	4	1	n/a	n/a	n/a	n/a	n/a
3672151	RECOG_LURE	n/a	LTP290	ltpFR	18	6	n/a	TAR	1435	0	3	n/a	n/a	n/a	n/a	n/a	n/a
3673044	RECOG_RESP	n/a	LTP290	ltpFR	18	6	n/a	TAR	1435	0	n/a	n/a	n/a	n/a	n/a	n/a	n/a
3673615	RECOG_CONF	n/a	LTP290	ltpFR	18	6	n/a	TAR	1435	n/a	3	n/a	n/a	n/a	n/a	n/a	n/a
3675263	RECOG_TARGET	n/a	LTP290	ltpFR	18	6	-1	INVENTOR	743	1	4	-1	n/a	n/a	n/a	n/a	n/a
3675884	RECOG_RESP	n/a	LTP290	ltpFR	18	6	-1	INVENTOR	743	1	n/a	-1	n/a	n/a	n/a	n/a	n/a
3676445	RECOG_CONF	n/a	LTP290	ltpFR	18	6	-1	INVENTOR	743	n/a	4	-1	n/a	n/a	n/a	n/a	n/a
3678024	RECOG_LURE	n/a	LTP290	ltpFR	18	6	n/a	PORT	1110	0	3	n/a	n/a	n/a	n/a	n/a	n/a
3678734	RECOG_RESP	n/a	LTP290	ltpFR	18	6	n/a	PORT	1110	0	n/a	n/a	n/a	n/a	n/a	n/a	n/a
3679245	RECOG_CONF	n/a	LTP290	ltpFR	18	6	n/a	PORT	1110	n/a	3	n/a	n/a	n/a	n/a	n/a	n/a
3680802	RECOG_TARGET	n/a	LTP290	ltpFR	18	6	1	SUPERVISOR	1410	1	3	1	n/a	n/a	n/a	n/a	n/a
3681614	RECOG_RESP	n/a	LTP290	ltpFR	18	6	1	SUPERVISOR	1410	1	n/a	1	n/a	n/a	n/a	n/a	n/a
3682165	RECOG_CONF	n/a	LTP290	ltpFR	18	6	1	SUPERVISOR	1410	n/a	3	1	n/a	n/a	n/a	n/a	n/a
3683813	RECOG_TARGET	n/a	LTP290	ltpFR	18	6	1	VAGRANT	1544	1	4	0	n/a	n/a	n/a	n/a	n/a
3684564	RECOG_RESP	n/a	LTP290	ltpFR	18	6	1	VAGRANT	1544	1	n/a	0	n/a	n/a	n/a	n/a	n/a
3685105	RECOG_CONF	n/a	LTP290	ltpFR	18	6	1	VAGRANT	1544	n/a	4	0	n/a	n/a	n/a	n/a	n/a
3686791	RECOG_TARGET	n/a	LTP290	ltpFR	18	6	0	RACKET	1155	0	2	0	n/a	n/a	n/a	n/a	n/a
3687534	RECOG_RESP	n/a	LTP290	ltpFR	18	6	0	RACKET	1155	0	n/a	0	n/a	n/a	n/a	n/a	n/a
3688060	RECOG_CONF	n/a	LTP290	ltpFR	18	6	0	RACKET	1155	n/a	2	0	n/a	n/a	n/a	n/a	n/a
3691193	REC_START	n/a	LTP290	ltpFR	18	7	n/a	n/a	n/a	n/a	n/a	n/a	n/a	n/a	n/a	n/a	n/a
3691253	RECOG_TARGET	n/a	LTP290	ltpFR	18	7	0	ALMOND	18	1	4	0	n/a	n/a	n/a	n/a	n/a
3691774	RECOG_RESP	n/a	LTP290	ltpFR	18	7	0	ALMOND	18	1	n/a	0	n/a	n/a	n/a	n/a	n/a
3692300	RECOG_CONF	n/a	LTP290	ltpFR	18	7	0	ALMOND	18	n/a	4	0	n/a	n/a	n/a	n/a	n/a
3693913	RECOG_TARGET	n/a	LTP290	ltpFR	18	7	0	PORCH	1106	0	1	1	n/a	n/a	n/a	n/a	n/a
3694549	RECOG_RESP	n/a	LTP290	ltpFR	18	7	0	PORCH	1106	0	n/a	1	n/a	n/a	n/a	n/a	n/a
3695736	RECOG_CONF	n/a	LTP290	ltpFR	18	7	0	PORCH	1106	n/a	1	1	n/a	n/a	n/a	n/a	n/a
3697330	RECOG_TARGET	n/a	LTP290	ltpFR	18	7	0	SNEAKER	1334	1	2	0	n/a	n/a	n/a	n/a	n/a
3698209	RECOG_RESP	n/a	LTP290	ltpFR	18	7	0	SNEAKER	1334	1	n/a	0	n/a	n/a	n/a	n/a	n/a
3698726	RECOG_CONF	n/a	LTP290	ltpFR	18	7	0	SNEAKER	1334	n/a	2	0	n/a	n/a	n/a	n/a	n/a
3700392	RECOG_LURE	n/a	LTP290	ltpFR	18	7	n/a	BANDANNA	80	0	4	n/a	n/a	n/a	n/a	n/a	n/a
3701214	RECOG_RESP	n/a	LTP290	ltpFR	18	7	n/a	BANDANNA	80	0	n/a	n/a	n/a	n/a	n/a	n/a	n/a
3701790	RECOG_CONF	n/a	LTP290	ltpFR	18	7	n/a	BANDANNA	80	n/a	4	n/a	n/a	n/a	n/a	n/a	n/a
3703319	RECOG_TARGET	n/a	LTP290	ltpFR	18	7	0	CLIMBER	323	1	3	1	n/a	n/a	n/a	n/a	n/a
3703879	RECOG_RESP	n/a	LTP290	ltpFR	18	7	0	CLIMBER	323	1	n/a	1	n/a	n/a	n/a	n/a	n/a
3704420	RECOG_CONF	n/a	LTP290	ltpFR	18	7	0	CLIMBER	323	n/a	3	1	n/a	n/a	n/a	n/a	n/a
3705962	RECOG_TARGET	n/a	LTP290	ltpFR	18	7	1	TUXEDO	1525	1	3	0	n/a	n/a	n/a	n/a	n/a
3706714	RECOG_RESP	n/a	LTP290	ltpFR	18	7	1	TUXEDO	1525	1	n/a	0	n/a	n/a	n/a	n/a	n/a
3707189	RECOG_CONF	n/a	LTP290	ltpFR	18	7	1	TUXEDO	1525	n/a	3	0	n/a	n/a	n/a	n/a	n/a
3708707	RECOG_TARGET	n/a	LTP290	ltpFR	18	7	-1	MANAGER	863	1	1	-1	n/a	n/a	n/a	n/a	n/a
3709499	RECOG_RESP	n/a	LTP290	ltpFR	18	7	-1	MANAGER	863	1	n/a	-1	n/a	n/a	n/a	n/a	n/a
3710047	RECOG_CONF	n/a	LTP290	ltpFR	18	7	-1	MANAGER	863	n/a	1	-1	n/a	n/a	n/a	n/a	n/a
3711748	RECOG_TARGET	n/a	LTP290	ltpFR	18	7	1	PIG	1064	0	3	0	n/a	n/a	n/a	n/a	n/a
3712489	RECOG_RESP	n/a	LTP290	ltpFR	18	7	1	PIG	1064	0	n/a	0	n/a	n/a	n/a	n/a	n/a
3713190	RECOG_CONF	n/a	LTP290	ltpFR	18	7	1	PIG	1064	n/a	3	0	n/a	n/a	n/a	n/a	n/a
