mstime	trial_type	stim_file	subject	experiment	session	trial	task	item_name	item_num	recog_resp	recog_conf	resp	answer	test_x	test_y	test_z	color_r	color_g	color_b	case	font
0	SESS_START	n/a	LTP082	ltpFR	13	n/a	n/a	n/a	n/a	1	4	n/a	n/a	0	0	0	n/a	n/a	n/a	n/a	n/a
35260	START	n/a	LTP082	ltpFR	13	n/a	n/a	n/a	n/a	n/a	n/a	n/a	n/a	n/a	n/a	n/a	n/a	n/a	n/a	n/a	n/a
35285	PROB	n/a	LTP082	ltpFR	13	n/a	n/a	n/a	n/a	n/a	n/a	n/a	13	3	7	3	n/a	n/a	n/a	n/a	n/a
38376	PROB	n/a	LTP082	ltpFR	13	n/a	n/a	n/a	n/a	n/a	n/a	n/a	19	1	9	9	n/a	n/a	n/a	n/a	n/a
40068	PROB	n/a	LTP082	ltpFR	13	n/a	n/a	n/a	n/a	n/a	n/a	n/a	20	7	5	8	n/a	n/a	n/a	n/a	n/a
41668	PROB	n/a	LTP082	ltpFR	13	n/a	n/a	n/a	n/a	n/a	n/a	n/a	15	8	6	1	n/a	n/a	n/a	n/a	n/a
43526	PROB	n/a	LTP082	ltpFR	13	n/a	n/a	n/a	n/a	n/a	n/a	n/a	13	1	6	6	n/a	n/a	n/a	n/a	n/a
46517	PROB	n/a	LTP082	ltpFR	13	n/a	n/a	n/a	n/a	n/a	n/a	n/a	17	7	8	2	n/a	n/a	n/a	n/a	n/a
48126	PROB	n/a	LTP082	ltpFR	13	n/a	n/a	n/a	n/a	n/a	n/a	n/a	15	6	8	1	n/a	n/a	n/a	n/a	n/a
50092	PROB	n/a	LTP082	ltpFR	13	n/a	n/a	n/a	n/a	n/a	n/a	n/a	12	7	1	4	n/a	n/a	n/a	n/a	n/a
51542	PROB	n/a	LTP082	ltpFR	13	n/a	n/a	n/a	n/a	n/a	n/a	n/a	11	4	5	2	n/a	n/a	n/a	n/a	n/a
53400	PROB	n/a	LTP082	ltpFR	13	n/a	n/a	n/a	n/a	n/a	n/a	n/a	13	9	4	4	n/a	n/a	n/a	n/a	n/a
55095	STOP	n/a	LTP082	ltpFR	13	n/a	n/a	n/a	n/a	n/a	n/a	n/a	n/a	n/a	n/a	n/a	n/a	n/a	n/a	n/a	n/a
82624	START	n/a	LTP082	ltpFR	13	n/a	n/a	n/a	n/a	n/a	n/a	n/a	n/a	n/a	n/a	n/a	n/a	n/a	n/a	n/a	n/a
84131	PROB	n/a	LTP082	ltpFR	13	n/a	n/a	n/a	n/a	n/a	n/a	n/a	17	2	6	9	n/a	n/a	n/a	n/a	n/a
86481	PROB	n/a	LTP082	ltpFR	13	n/a	n/a	n/a	n/a	n/a	n/a	n/a	16	9	3	4	n/a	n/a	n/a	n/a	n/a
90624	STOP	n/a	LTP082	ltpFR	13	n/a	n/a	n/a	n/a	n/a	n/a	n/a	n/a	n/a	n/a	n/a	n/a	n/a	n/a	n/a	n/a
91664	WORD	wordpools/wasnorm_wordpool.txt	LTP082	ltpFR	13	1	0	PASSAGE	1019	1	n/a	0	n/a	0	0	0	0.422607421875	0.5869140625	0	upper	amplitud.ttf
94673	START	n/a	LTP082	ltpFR	13	n/a	n/a	n/a	n/a	n/a	n/a	n/a	n/a	n/a	n/a	n/a	n/a	n/a	n/a	n/a	n/a
95855	PROB	n/a	LTP082	ltpFR	13	n/a	n/a	n/a	n/a	n/a	n/a	n/a	21	6	9	7	n/a	n/a	n/a	n/a	n/a
98855	PROB	n/a	LTP082	ltpFR	13	n/a	n/a	n/a	n/a	n/a	n/a	n/a	16	1	7	8	n/a	n/a	n/a	n/a	n/a
102672	STOP	n/a	LTP082	ltpFR	13	n/a	n/a	n/a	n/a	n/a	n/a	n/a	n/a	n/a	n/a	n/a	n/a	n/a	n/a	n/a	n/a
103605	WORD	wordpools/wasnorm_wordpool.txt	LTP082	ltpFR	13	1	0	BAY	102	n/a	n/a	1	n/a	0	0	0	0.422607421875	0.5869140625	0	upper	amplitud.ttf
106613	START	n/a	LTP082	ltpFR	13	n/a	n/a	n/a	n/a	n/a	n/a	n/a	n/a	n/a	n/a	n/a	n/a	n/a	n/a	n/a	n/a
107654	PROB	n/a	LTP082	ltpFR	13	n/a	n/a	n/a	n/a	n/a	n/a	n/a	16	5	4	7	n/a	n/a	n/a	n/a	n/a
110479	PROB	n/a	LTP082	ltpFR	13	n/a	n/a	n/a	n/a	n/a	n/a	n/a	18	5	5	8	n/a	n/a	n/a	n/a	n/a
112011	PROB	n/a	LTP082	ltpFR	13	n/a	n/a	n/a	n/a	n/a	n/a	n/a	11	6	4	1	n/a	n/a	n/a	n/a	n/a
113087	STOP	n/a	LTP082	ltpFR	13	n/a	n/a	n/a	n/a	n/a	n/a	n/a	n/a	n/a	n/a	n/a	n/a	n/a	n/a	n/a	n/a
115512	WORD	wordpools/wasnorm_wordpool.txt	LTP082	ltpFR	13	1	0	WATERFALL	1595	n/a	n/a	1	n/a	0	0	0	0.422607421875	0.5869140625	0	upper	amplitud.ttf
118521	START	n/a	LTP082	ltpFR	13	n/a	n/a	n/a	n/a	n/a	n/a	n/a	n/a	n/a	n/a	n/a	n/a	n/a	n/a	n/a	n/a
119370	PROB	n/a	LTP082	ltpFR	13	n/a	n/a	n/a	n/a	n/a	n/a	n/a	12	7	4	1	n/a	n/a	n/a	n/a	n/a
121328	PROB	n/a	LTP082	ltpFR	13	n/a	n/a	n/a	n/a	n/a	n/a	n/a	16	5	8	3	n/a	n/a	n/a	n/a	n/a
123911	PROB	n/a	LTP082	ltpFR	13	n/a	n/a	n/a	n/a	n/a	n/a	n/a	12	5	4	3	n/a	n/a	n/a	n/a	n/a
125894	STOP	n/a	LTP082	ltpFR	13	n/a	n/a	n/a	n/a	n/a	n/a	n/a	n/a	n/a	n/a	n/a	n/a	n/a	n/a	n/a	n/a
127561	WORD	wordpools/wasnorm_wordpool.txt	LTP082	ltpFR	13	1	0	CHIMNEY	301	n/a	n/a	1	n/a	0	0	0	0.422607421875	0.5869140625	0	upper	amplitud.ttf
130570	START	n/a	LTP082	ltpFR	13	n/a	n/a	n/a	n/a	n/a	n/a	n/a	n/a	n/a	n/a	n/a	n/a	n/a	n/a	n/a	n/a
131661	PROB	n/a	LTP082	ltpFR	13	n/a	n/a	n/a	n/a	n/a	n/a	n/a	17	9	6	2	n/a	n/a	n/a	n/a	n/a
133361	PROB	n/a	LTP082	ltpFR	13	n/a	n/a	n/a	n/a	n/a	n/a	n/a	13	5	1	7	n/a	n/a	n/a	n/a	n/a
134819	PROB	n/a	LTP082	ltpFR	13	n/a	n/a	n/a	n/a	n/a	n/a	n/a	14	2	7	5	n/a	n/a	n/a	n/a	n/a
137990	STOP	n/a	LTP082	ltpFR	13	n/a	n/a	n/a	n/a	n/a	n/a	n/a	n/a	n/a	n/a	n/a	n/a	n/a	n/a	n/a	n/a
139485	WORD	wordpools/wasnorm_wordpool.txt	LTP082	ltpFR	13	1	0	NICOTINE	951	n/a	n/a	0	n/a	0	0	0	0.422607421875	0.5869140625	0	upper	amplitud.ttf
142486	START	n/a	LTP082	ltpFR	13	n/a	n/a	n/a	n/a	n/a	n/a	n/a	n/a	n/a	n/a	n/a	n/a	n/a	n/a	n/a	n/a
143577	PROB	n/a	LTP082	ltpFR	13	n/a	n/a	n/a	n/a	n/a	n/a	n/a	14	3	7	4	n/a	n/a	n/a	n/a	n/a
144818	PROB	n/a	LTP082	ltpFR	13	n/a	n/a	n/a	n/a	n/a	n/a	n/a	13	8	1	4	n/a	n/a	n/a	n/a	n/a
146626	PROB	n/a	LTP082	ltpFR	13	n/a	n/a	n/a	n/a	n/a	n/a	n/a	12	2	1	9	n/a	n/a	n/a	n/a	n/a
150486	STOP	n/a	LTP082	ltpFR	13	n/a	n/a	n/a	n/a	n/a	n/a	n/a	n/a	n/a	n/a	n/a	n/a	n/a	n/a	n/a	n/a
151601	WORD	wordpools/wasnorm_wordpool.txt	LTP082	ltpFR	13	1	0	WILDERNESS	1610	n/a	n/a	1	n/a	0	0	0	0.422607421875	0.5869140625	0	upper	amplitud.ttf
154610	START	n/a	LTP082	ltpFR	13	n/a	n/a	n/a	n/a	n/a	n/a	n/a	n/a	n/a	n/a	n/a	n/a	n/a	n/a	n/a	n/a
155576	PROB	n/a	LTP082	ltpFR	13	n/a	n/a	n/a	n/a	n/a	n/a	n/a	24	9	6	9	n/a	n/a	n/a	n/a	n/a
157634	PROB	n/a	LTP082	ltpFR	13	n/a	n/a	n/a	n/a	n/a	n/a	n/a	15	7	7	1	n/a	n/a	n/a	n/a	n/a
158858	PROB	n/a	LTP082	ltpFR	13	n/a	n/a	n/a	n/a	n/a	n/a	n/a	17	7	3	7	n/a	n/a	n/a	n/a	n/a
160650	PROB	n/a	LTP082	ltpFR	13	n/a	n/a	n/a	n/a	n/a	n/a	n/a	8	2	1	5	n/a	n/a	n/a	n/a	n/a
162071	STOP	n/a	LTP082	ltpFR	13	n/a	n/a	n/a	n/a	n/a	n/a	n/a	n/a	n/a	n/a	n/a	n/a	n/a	n/a	n/a	n/a
163459	WORD	wordpools/wasnorm_wordpool.txt	LTP082	ltpFR	13	1	0	CHIPMUNK	304	n/a	n/a	0	n/a	0	0	0	0.422607421875	0.5869140625	0	upper	amplitud.ttf
166467	START	n/a	LTP082	ltpFR	13	n/a	n/a	n/a	n/a	n/a	n/a	n/a	n/a	n/a	n/a	n/a	n/a	n/a	n/a	n/a	n/a
167375	PROB	n/a	LTP082	ltpFR	13	n/a	n/a	n/a	n/a	n/a	n/a	n/a	14	4	3	7	n/a	n/a	n/a	n/a	n/a
168767	PROB	n/a	LTP082	ltpFR	13	n/a	n/a	n/a	n/a	n/a	n/a	n/a	16	8	5	3	n/a	n/a	n/a	n/a	n/a
170316	PROB	n/a	LTP082	ltpFR	13	n/a	n/a	n/a	n/a	n/a	n/a	n/a	10	8	1	1	n/a	n/a	n/a	n/a	n/a
171641	PROB	n/a	LTP082	ltpFR	13	n/a	n/a	n/a	n/a	n/a	n/a	n/a	18	4	7	7	n/a	n/a	n/a	n/a	n/a
173167	STOP	n/a	LTP082	ltpFR	13	n/a	n/a	n/a	n/a	n/a	n/a	n/a	n/a	n/a	n/a	n/a	n/a	n/a	n/a	n/a	n/a
175449	WORD	wordpools/wasnorm_wordpool.txt	LTP082	ltpFR	13	1	0	NEST	945	n/a	n/a	0	n/a	0	0	0	0.422607421875	0.5869140625	0	upper	amplitud.ttf
178450	START	n/a	LTP082	ltpFR	13	n/a	n/a	n/a	n/a	n/a	n/a	n/a	n/a	n/a	n/a	n/a	n/a	n/a	n/a	n/a	n/a
179582	PROB	n/a	LTP082	ltpFR	13	n/a	n/a	n/a	n/a	n/a	n/a	n/a	15	1	8	6	n/a	n/a	n/a	n/a	n/a
181824	PROB	n/a	LTP082	ltpFR	13	n/a	n/a	n/a	n/a	n/a	n/a	n/a	12	2	9	1	n/a	n/a	n/a	n/a	n/a
183615	PROB	n/a	LTP082	ltpFR	13	n/a	n/a	n/a	n/a	n/a	n/a	n/a	19	4	8	7	n/a	n/a	n/a	n/a	n/a
185167	STOP	n/a	LTP082	ltpFR	13	n/a	n/a	n/a	n/a	n/a	n/a	n/a	n/a	n/a	n/a	n/a	n/a	n/a	n/a	n/a	n/a
187473	WORD	wordpools/wasnorm_wordpool.txt	LTP082	ltpFR	13	1	0	HALL	677	n/a	n/a	0	n/a	0	0	0	0.422607421875	0.5869140625	0	upper	amplitud.ttf
190482	START	n/a	LTP082	ltpFR	13	n/a	n/a	n/a	n/a	n/a	n/a	n/a	n/a	n/a	n/a	n/a	n/a	n/a	n/a	n/a	n/a
191440	PROB	n/a	LTP082	ltpFR	13	n/a	n/a	n/a	n/a	n/a	n/a	n/a	15	9	3	3	n/a	n/a	n/a	n/a	n/a
193548	PROB	n/a	LTP082	ltpFR	13	n/a	n/a	n/a	n/a	n/a	n/a	n/a	10	2	6	2	n/a	n/a	n/a	n/a	n/a
198481	STOP	n/a	LTP082	ltpFR	13	n/a	n/a	n/a	n/a	n/a	n/a	n/a	n/a	n/a	n/a	n/a	n/a	n/a	n/a	n/a	n/a
199314	WORD	wordpools/wasnorm_wordpool.txt	LTP082	ltpFR	13	1	0	CAMEL	223	n/a	n/a	1	n/a	0	0	0	0.422607421875	0.5869140625	0	upper	amplitud.ttf
202323	START	n/a	LTP082	ltpFR	13	n/a	n/a	n/a	n/a	n/a	n/a	n/a	n/a	n/a	n/a	n/a	n/a	n/a	n/a	n/a	n/a
203439	PROB	n/a	LTP082	ltpFR	13	n/a	n/a	n/a	n/a	n/a	n/a	n/a	9	1	3	5	n/a	n/a	n/a	n/a	n/a
205222	PROB	n/a	LTP082	ltpFR	13	n/a	n/a	n/a	n/a	n/a	n/a	n/a	7	4	2	1	n/a	n/a	n/a	n/a	n/a
207189	PROB	n/a	LTP082	ltpFR	13	n/a	n/a	n/a	n/a	n/a	n/a	n/a	18	9	3	6	n/a	n/a	n/a	n/a	n/a
208797	PROB	n/a	LTP082	ltpFR	13	n/a	n/a	n/a	n/a	n/a	n/a	n/a	13	3	6	4	n/a	n/a	n/a	n/a	n/a
210135	STOP	n/a	LTP082	ltpFR	13	n/a	n/a	n/a	n/a	n/a	n/a	n/a	n/a	n/a	n/a	n/a	n/a	n/a	n/a	n/a	n/a
211197	WORD	wordpools/wasnorm_wordpool.txt	LTP082	ltpFR	13	1	0	FLAG	573	n/a	n/a	1	n/a	0	0	0	0.422607421875	0.5869140625	0	upper	amplitud.ttf
214205	START	n/a	LTP082	ltpFR	13	n/a	n/a	n/a	n/a	n/a	n/a	n/a	n/a	n/a	n/a	n/a	n/a	n/a	n/a	n/a	n/a
215246	PROB	n/a	LTP082	ltpFR	13	n/a	n/a	n/a	n/a	n/a	n/a	n/a	20	4	9	7	n/a	n/a	n/a	n/a	n/a
217646	PROB	n/a	LTP082	ltpFR	13	n/a	n/a	n/a	n/a	n/a	n/a	n/a	14	1	8	5	n/a	n/a	n/a	n/a	n/a
219371	PROB	n/a	LTP082	ltpFR	13	n/a	n/a	n/a	n/a	n/a	n/a	n/a	15	9	1	5	n/a	n/a	n/a	n/a	n/a
220679	STOP	n/a	LTP082	ltpFR	13	n/a	n/a	n/a	n/a	n/a	n/a	n/a	n/a	n/a	n/a	n/a	n/a	n/a	n/a	n/a	n/a
223246	WORD	wordpools/wasnorm_wordpool.txt	LTP082	ltpFR	13	1	0	SKATE	1313	n/a	n/a	1	n/a	0	0	0	0.422607421875	0.5869140625	0	upper	amplitud.ttf
226254	START	n/a	LTP082	ltpFR	13	n/a	n/a	n/a	n/a	n/a	n/a	n/a	n/a	n/a	n/a	n/a	n/a	n/a	n/a	n/a	n/a
227121	PROB	n/a	LTP082	ltpFR	13	n/a	n/a	n/a	n/a	n/a	n/a	n/a	15	5	4	6	n/a	n/a	n/a	n/a	n/a
229154	PROB	n/a	LTP082	ltpFR	13	n/a	n/a	n/a	n/a	n/a	n/a	n/a	13	3	2	8	n/a	n/a	n/a	n/a	n/a
230529	PROB	n/a	LTP082	ltpFR	13	n/a	n/a	n/a	n/a	n/a	n/a	n/a	9	1	6	2	n/a	n/a	n/a	n/a	n/a
232735	STOP	n/a	LTP082	ltpFR	13	n/a	n/a	n/a	n/a	n/a	n/a	n/a	n/a	n/a	n/a	n/a	n/a	n/a	n/a	n/a	n/a
235437	WORD	wordpools/wasnorm_wordpool.txt	LTP082	ltpFR	13	1	0	RULER	1216	n/a	n/a	1	n/a	0	0	0	0.422607421875	0.5869140625	0	upper	amplitud.ttf
238445	START	n/a	LTP082	ltpFR	13	n/a	n/a	n/a	n/a	n/a	n/a	n/a	n/a	n/a	n/a	n/a	n/a	n/a	n/a	n/a	n/a
239370	PROB	n/a	LTP082	ltpFR	13	n/a	n/a	n/a	n/a	n/a	n/a	n/a	17	5	8	4	n/a	n/a	n/a	n/a	n/a
241286	PROB	n/a	LTP082	ltpFR	13	n/a	n/a	n/a	n/a	n/a	n/a	n/a	22	5	8	9	n/a	n/a	n/a	n/a	n/a
243918	PROB	n/a	LTP082	ltpFR	13	n/a	n/a	n/a	n/a	n/a	n/a	n/a	17	7	4	6	n/a	n/a	n/a	n/a	n/a
245799	STOP	n/a	LTP082	ltpFR	13	n/a	n/a	n/a	n/a	n/a	n/a	n/a	n/a	n/a	n/a	n/a	n/a	n/a	n/a	n/a	n/a
247327	WORD	wordpools/wasnorm_wordpool.txt	LTP082	ltpFR	13	1	0	LABEL	790	n/a	n/a	0	n/a	0	0	0	0.422607421875	0.5869140625	0	upper	amplitud.ttf
250328	START	n/a	LTP082	ltpFR	13	n/a	n/a	n/a	n/a	n/a	n/a	n/a	n/a	n/a	n/a	n/a	n/a	n/a	n/a	n/a	n/a
251469	PROB	n/a	LTP082	ltpFR	13	n/a	n/a	n/a	n/a	n/a	n/a	n/a	14	3	9	2	n/a	n/a	n/a	n/a	n/a
253135	PROB	n/a	LTP082	ltpFR	13	n/a	n/a	n/a	n/a	n/a	n/a	n/a	15	5	7	3	n/a	n/a	n/a	n/a	n/a
254435	PROB	n/a	LTP082	ltpFR	13	n/a	n/a	n/a	n/a	n/a	n/a	n/a	13	4	3	4	n/a	n/a	n/a	n/a	n/a
257799	STOP	n/a	LTP082	ltpFR	13	n/a	n/a	n/a	n/a	n/a	n/a	n/a	n/a	n/a	n/a	n/a	n/a	n/a	n/a	n/a	n/a
259326	WORD	wordpools/wasnorm_wordpool.txt	LTP082	ltpFR	13	1	0	CUBE	420	n/a	n/a	0	n/a	0	0	0	0.422607421875	0.5869140625	0	upper	amplitud.ttf
262327	START	n/a	LTP082	ltpFR	13	n/a	n/a	n/a	n/a	n/a	n/a	n/a	n/a	n/a	n/a	n/a	n/a	n/a	n/a	n/a	n/a
263201	PROB	n/a	LTP082	ltpFR	13	n/a	n/a	n/a	n/a	n/a	n/a	n/a	13	1	4	8	n/a	n/a	n/a	n/a	n/a
264518	PROB	n/a	LTP082	ltpFR	13	n/a	n/a	n/a	n/a	n/a	n/a	n/a	10	1	8	1	n/a	n/a	n/a	n/a	n/a
265551	PROB	n/a	LTP082	ltpFR	13	n/a	n/a	n/a	n/a	n/a	n/a	n/a	14	9	4	1	n/a	n/a	n/a	n/a	n/a
267000	PROB	n/a	LTP082	ltpFR	13	n/a	n/a	n/a	n/a	n/a	n/a	n/a	17	6	2	9	n/a	n/a	n/a	n/a	n/a
268847	STOP	n/a	LTP082	ltpFR	13	n/a	n/a	n/a	n/a	n/a	n/a	n/a	n/a	n/a	n/a	n/a	n/a	n/a	n/a	n/a	n/a
271200	WORD	wordpools/wasnorm_wordpool.txt	LTP082	ltpFR	13	1	0	PANTHER	1009	n/a	n/a	1	n/a	0	0	0	0.422607421875	0.5869140625	0	upper	amplitud.ttf
274201	START	n/a	LTP082	ltpFR	13	n/a	n/a	n/a	n/a	n/a	n/a	n/a	n/a	n/a	n/a	n/a	n/a	n/a	n/a	n/a	n/a
275200	PROB	n/a	LTP082	ltpFR	13	n/a	n/a	n/a	n/a	n/a	n/a	n/a	22	7	8	7	n/a	n/a	n/a	n/a	n/a
278258	PROB	n/a	LTP082	ltpFR	13	n/a	n/a	n/a	n/a	n/a	n/a	n/a	13	8	2	3	n/a	n/a	n/a	n/a	n/a
279767	PROB	n/a	LTP082	ltpFR	13	n/a	n/a	n/a	n/a	n/a	n/a	n/a	14	2	7	5	n/a	n/a	n/a	n/a	n/a
281623	STOP	n/a	LTP082	ltpFR	13	n/a	n/a	n/a	n/a	n/a	n/a	n/a	n/a	n/a	n/a	n/a	n/a	n/a	n/a	n/a	n/a
283958	REC_START	n/a	LTP082	ltpFR	13	1	n/a	n/a	n/a	n/a	n/a	n/a	n/a	0	0	0	n/a	n/a	n/a	n/a	n/a
285853	REC_WORD	wordpools/wasnorm_wordpool.txt	LTP082	ltpFR	13	1	0	PANTHER	1009	n/a	n/a	1	n/a	0	0	0	n/a	n/a	n/a	n/a	n/a
287380	REC_WORD	wordpools/wasnorm_wordpool.txt	LTP082	ltpFR	13	1	0	NEST	945	n/a	n/a	0	n/a	0	0	0	n/a	n/a	n/a	n/a	n/a
289041	REC_WORD	wordpools/wasnorm_wordpool.txt	LTP082	ltpFR	13	1	0	SKATE	1313	n/a	n/a	1	n/a	0	0	0	n/a	n/a	n/a	n/a	n/a
290827	REC_WORD	wordpools/wasnorm_wordpool.txt	LTP082	ltpFR	13	1	0	CHIPMUNK	304	n/a	n/a	0	n/a	0	0	0	n/a	n/a	n/a	n/a	n/a
294384	REC_WORD	wordpools/wasnorm_wordpool.txt	LTP082	ltpFR	13	1	0	PASSAGE	1019	n/a	n/a	0	n/a	0	0	0	n/a	n/a	n/a	n/a	n/a
295966	REC_WORD	wordpools/wasnorm_wordpool.txt	LTP082	ltpFR	13	1	0	BAY	102	n/a	n/a	1	n/a	0	0	0	n/a	n/a	n/a	n/a	n/a
297228	REC_WORD	wordpools/wasnorm_wordpool.txt	LTP082	ltpFR	13	1	0	WATERFALL	1595	n/a	n/a	1	n/a	0	0	0	n/a	n/a	n/a	n/a	n/a
303613	REC_WORD	wordpools/wasnorm_wordpool.txt	LTP082	ltpFR	13	1	0	RULER	1216	n/a	n/a	1	n/a	0	0	0	n/a	n/a	n/a	n/a	n/a
305644	REC_WORD	wordpools/wasnorm_wordpool.txt	LTP082	ltpFR	13	1	0	NICOTINE	951	n/a	n/a	0	n/a	0	0	0	n/a	n/a	n/a	n/a	n/a
310463	REC_WORD	wordpools/wasnorm_wordpool.txt	LTP082	ltpFR	13	1	0	HALL	677	n/a	n/a	0	n/a	0	0	0	n/a	n/a	n/a	n/a	n/a
365243	WORD	wordpools/wasnorm_wordpool.txt	LTP082	ltpFR	13	2	0	TIDE	1465	n/a	n/a	1	n/a	0	0	0	0.422607421875	0.5869140625	0	upper	amplitud.ttf
369385	WORD	wordpools/wasnorm_wordpool.txt	LTP082	ltpFR	13	2	0	BACKBONE	66	n/a	n/a	1	n/a	0	0	0	0.422607421875	0.5869140625	0	upper	amplitud.ttf
373393	WORD	wordpools/wasnorm_wordpool.txt	LTP082	ltpFR	13	2	0	VINE	1568	n/a	n/a	1	n/a	0	0	0	0.422607421875	0.5869140625	0	upper	amplitud.ttf
377568	WORD	wordpools/wasnorm_wordpool.txt	LTP082	ltpFR	13	2	0	SHORTCAKE	1292	n/a	n/a	0	n/a	0	0	0	0.422607421875	0.5869140625	0	upper	amplitud.ttf
381692	WORD	wordpools/wasnorm_wordpool.txt	LTP082	ltpFR	13	2	0	COTTAGE	384	n/a	n/a	1	n/a	0	0	0	0.422607421875	0.5869140625	0	upper	amplitud.ttf
385634	WORD	wordpools/wasnorm_wordpool.txt	LTP082	ltpFR	13	2	0	ROBBER	1197	n/a	n/a	1	n/a	0	0	0	0.422607421875	0.5869140625	0	upper	amplitud.ttf
389617	WORD	wordpools/wasnorm_wordpool.txt	LTP082	ltpFR	13	2	1	CHAMPAGNE	278	n/a	n/a	0	n/a	0	0	0	0.57763671875	0.412841796875	1	lower	zerothre.ttf
393466	WORD	wordpools/wasnorm_wordpool.txt	LTP082	ltpFR	13	2	1	KNOB	787	n/a	n/a	0	n/a	0	0	0	0.57763671875	0.412841796875	1	lower	zerothre.ttf
397324	WORD	wordpools/wasnorm_wordpool.txt	LTP082	ltpFR	13	2	1	ANTEATER	26	n/a	n/a	1	n/a	0	0	0	0.57763671875	0.412841796875	1	lower	zerothre.ttf
401391	WORD	wordpools/wasnorm_wordpool.txt	LTP082	ltpFR	13	2	1	PONY	1102	n/a	n/a	1	n/a	0	0	0	0.57763671875	0.412841796875	1	lower	zerothre.ttf
405390	WORD	wordpools/wasnorm_wordpool.txt	LTP082	ltpFR	13	2	0	STALLION	1369	n/a	n/a	1	n/a	0	0	0	0.422607421875	0.5869140625	0	upper	amplitud.ttf
409507	WORD	wordpools/wasnorm_wordpool.txt	LTP082	ltpFR	13	2	0	SLUG	1329	n/a	n/a	0	n/a	0	0	0	0.422607421875	0.5869140625	0	upper	amplitud.ttf
413448	WORD	wordpools/wasnorm_wordpool.txt	LTP082	ltpFR	13	2	1	CANAL	226	n/a	n/a	0	n/a	0	0	0	0.57763671875	0.412841796875	1	lower	zerothre.ttf
417498	WORD	wordpools/wasnorm_wordpool.txt	LTP082	ltpFR	13	2	1	CHEDDAR	286	n/a	n/a	0	n/a	0	0	0	0.57763671875	0.412841796875	1	lower	zerothre.ttf
421698	WORD	wordpools/wasnorm_wordpool.txt	LTP082	ltpFR	13	2	1	BROOK	177	n/a	n/a	0	n/a	0	0	0	0.57763671875	0.412841796875	1	lower	zerothre.ttf
425896	WORD	wordpools/wasnorm_wordpool.txt	LTP082	ltpFR	13	2	1	WAVE	1596	n/a	n/a	0	n/a	0	0	0	0.57763671875	0.412841796875	1	lower	zerothre.ttf
428905	START	n/a	LTP082	ltpFR	13	n/a	n/a	n/a	n/a	n/a	n/a	n/a	n/a	n/a	n/a	n/a	n/a	n/a	n/a	n/a	n/a
430055	PROB	n/a	LTP082	ltpFR	13	n/a	n/a	n/a	n/a	n/a	n/a	n/a	13	5	1	7	n/a	n/a	n/a	n/a	n/a
431547	PROB	n/a	LTP082	ltpFR	13	n/a	n/a	n/a	n/a	n/a	n/a	n/a	20	8	8	4	n/a	n/a	n/a	n/a	n/a
433297	PROB	n/a	LTP082	ltpFR	13	n/a	n/a	n/a	n/a	n/a	n/a	n/a	12	2	5	5	n/a	n/a	n/a	n/a	n/a
434422	PROB	n/a	LTP082	ltpFR	13	n/a	n/a	n/a	n/a	n/a	n/a	n/a	19	5	5	9	n/a	n/a	n/a	n/a	n/a
435639	STOP	n/a	LTP082	ltpFR	13	n/a	n/a	n/a	n/a	n/a	n/a	n/a	n/a	n/a	n/a	n/a	n/a	n/a	n/a	n/a	n/a
438805	REC_START	n/a	LTP082	ltpFR	13	2	n/a	n/a	n/a	n/a	n/a	n/a	n/a	0	0	0	n/a	n/a	n/a	n/a	n/a
439977	REC_WORD	wordpools/wasnorm_wordpool.txt	LTP082	ltpFR	13	2	0	TIDE	1465	n/a	n/a	1	n/a	0	0	0	n/a	n/a	n/a	n/a	n/a
441653	REC_WORD	wordpools/wasnorm_wordpool.txt	LTP082	ltpFR	13	2	1	WAVE	1596	n/a	n/a	0	n/a	0	0	0	n/a	n/a	n/a	n/a	n/a
445579	REC_WORD	wordpools/wasnorm_wordpool.txt	LTP082	ltpFR	13	2	1	CANAL	226	n/a	n/a	0	n/a	0	0	0	n/a	n/a	n/a	n/a	n/a
447929	REC_WORD	wordpools/wasnorm_wordpool.txt	LTP082	ltpFR	13	2	1	BROOK	177	n/a	n/a	0	n/a	0	0	0	n/a	n/a	n/a	n/a	n/a
450693	REC_WORD	wordpools/wasnorm_wordpool.txt	LTP082	ltpFR	13	2	1	ANTEATER	26	n/a	n/a	1	n/a	0	0	0	n/a	n/a	n/a	n/a	n/a
453671	REC_WORD	wordpools/wasnorm_wordpool.txt	LTP082	ltpFR	13	2	0	SLUG	1329	n/a	n/a	0	n/a	0	0	0	n/a	n/a	n/a	n/a	n/a
455602	REC_WORD	wordpools/wasnorm_wordpool.txt	LTP082	ltpFR	13	2	1	PONY	1102	n/a	n/a	1	n/a	0	0	0	n/a	n/a	n/a	n/a	n/a
457063	REC_WORD	wordpools/wasnorm_wordpool.txt	LTP082	ltpFR	13	2	0	STALLION	1369	n/a	n/a	1	n/a	0	0	0	n/a	n/a	n/a	n/a	n/a
460820	REC_WORD	wordpools/wasnorm_wordpool.txt	LTP082	ltpFR	13	2	0	ROBBER	1197	n/a	n/a	1	n/a	0	0	0	n/a	n/a	n/a	n/a	n/a
466542	REC_WORD	wordpools/wasnorm_wordpool.txt	LTP082	ltpFR	13	2	1	CHEDDAR	286	n/a	n/a	0	n/a	0	0	0	n/a	n/a	n/a	n/a	n/a
479208	REC_WORD	wordpools/wasnorm_wordpool.txt	LTP082	ltpFR	13	2	0	SHORTCAKE	1292	n/a	n/a	0	n/a	0	0	0	n/a	n/a	n/a	n/a	n/a
515499	START	n/a	LTP082	ltpFR	13	n/a	n/a	n/a	n/a	n/a	n/a	n/a	n/a	n/a	n/a	n/a	n/a	n/a	n/a	n/a	n/a
517006	PROB	n/a	LTP082	ltpFR	13	n/a	n/a	n/a	n/a	n/a	n/a	n/a	14	4	2	8	n/a	n/a	n/a	n/a	n/a
518707	PROB	n/a	LTP082	ltpFR	13	n/a	n/a	n/a	n/a	n/a	n/a	n/a	13	1	9	3	n/a	n/a	n/a	n/a	n/a
520182	PROB	n/a	LTP082	ltpFR	13	n/a	n/a	n/a	n/a	n/a	n/a	n/a	5	2	2	1	n/a	n/a	n/a	n/a	n/a
521407	PROB	n/a	LTP082	ltpFR	13	n/a	n/a	n/a	n/a	n/a	n/a	n/a	16	2	6	8	n/a	n/a	n/a	n/a	n/a
523090	PROB	n/a	LTP082	ltpFR	13	n/a	n/a	n/a	n/a	n/a	n/a	n/a	21	8	4	9	n/a	n/a	n/a	n/a	n/a
524790	PROB	n/a	LTP082	ltpFR	13	n/a	n/a	n/a	n/a	n/a	n/a	n/a	17	3	8	6	n/a	n/a	n/a	n/a	n/a
526673	PROB	n/a	LTP082	ltpFR	13	n/a	n/a	n/a	n/a	n/a	n/a	n/a	20	9	4	7	n/a	n/a	n/a	n/a	n/a
528206	PROB	n/a	LTP082	ltpFR	13	n/a	n/a	n/a	n/a	n/a	n/a	n/a	15	8	1	6	n/a	n/a	n/a	n/a	n/a
531499	STOP	n/a	LTP082	ltpFR	13	n/a	n/a	n/a	n/a	n/a	n/a	n/a	n/a	n/a	n/a	n/a	n/a	n/a	n/a	n/a	n/a
532606	WORD	wordpools/wasnorm_wordpool.txt	LTP082	ltpFR	13	3	1	PREACHER	1119	n/a	n/a	1	n/a	0	0	0	0.57763671875	0.412841796875	1	lower	zerothre.ttf
535614	START	n/a	LTP082	ltpFR	13	n/a	n/a	n/a	n/a	n/a	n/a	n/a	n/a	n/a	n/a	n/a	n/a	n/a	n/a	n/a	n/a
536722	PROB	n/a	LTP082	ltpFR	13	n/a	n/a	n/a	n/a	n/a	n/a	n/a	12	7	4	1	n/a	n/a	n/a	n/a	n/a
538038	PROB	n/a	LTP082	ltpFR	13	n/a	n/a	n/a	n/a	n/a	n/a	n/a	12	4	1	7	n/a	n/a	n/a	n/a	n/a
539089	PROB	n/a	LTP082	ltpFR	13	n/a	n/a	n/a	n/a	n/a	n/a	n/a	15	4	9	2	n/a	n/a	n/a	n/a	n/a
541222	PROB	n/a	LTP082	ltpFR	13	n/a	n/a	n/a	n/a	n/a	n/a	n/a	13	5	4	4	n/a	n/a	n/a	n/a	n/a
544055	PROB	n/a	LTP082	ltpFR	13	n/a	n/a	n/a	n/a	n/a	n/a	n/a	15	9	5	1	n/a	n/a	n/a	n/a	n/a
546047	PROB	n/a	LTP082	ltpFR	13	n/a	n/a	n/a	n/a	n/a	n/a	n/a	13	1	9	3	n/a	n/a	n/a	n/a	n/a
547263	PROB	n/a	LTP082	ltpFR	13	n/a	n/a	n/a	n/a	n/a	n/a	n/a	10	2	2	6	n/a	n/a	n/a	n/a	n/a
548596	PROB	n/a	LTP082	ltpFR	13	n/a	n/a	n/a	n/a	n/a	n/a	n/a	6	1	3	2	n/a	n/a	n/a	n/a	n/a
550207	STOP	n/a	LTP082	ltpFR	13	n/a	n/a	n/a	n/a	n/a	n/a	n/a	n/a	n/a	n/a	n/a	n/a	n/a	n/a	n/a	n/a
552679	WORD	wordpools/wasnorm_wordpool.txt	LTP082	ltpFR	13	3	1	CONDUCTOR	362	n/a	n/a	1	n/a	0	0	0	0.57763671875	0.412841796875	1	lower	zerothre.ttf
555680	START	n/a	LTP082	ltpFR	13	n/a	n/a	n/a	n/a	n/a	n/a	n/a	n/a	n/a	n/a	n/a	n/a	n/a	n/a	n/a	n/a
556696	PROB	n/a	LTP082	ltpFR	13	n/a	n/a	n/a	n/a	n/a	n/a	n/a	12	2	2	8	n/a	n/a	n/a	n/a	n/a
557687	PROB	n/a	LTP082	ltpFR	13	n/a	n/a	n/a	n/a	n/a	n/a	n/a	13	2	4	7	n/a	n/a	n/a	n/a	n/a
559554	PROB	n/a	LTP082	ltpFR	13	n/a	n/a	n/a	n/a	n/a	n/a	n/a	9	1	1	7	n/a	n/a	n/a	n/a	n/a
560919	PROB	n/a	LTP082	ltpFR	13	n/a	n/a	n/a	n/a	n/a	n/a	n/a	15	4	4	7	n/a	n/a	n/a	n/a	n/a
562720	PROB	n/a	LTP082	ltpFR	13	n/a	n/a	n/a	n/a	n/a	n/a	n/a	21	8	7	6	n/a	n/a	n/a	n/a	n/a
564902	PROB	n/a	LTP082	ltpFR	13	n/a	n/a	n/a	n/a	n/a	n/a	n/a	9	2	6	1	n/a	n/a	n/a	n/a	n/a
566902	PROB	n/a	LTP082	ltpFR	13	n/a	n/a	n/a	n/a	n/a	n/a	n/a	11	3	3	5	n/a	n/a	n/a	n/a	n/a
569262	PROB	n/a	LTP082	ltpFR	13	n/a	n/a	n/a	n/a	n/a	n/a	n/a	19	6	5	8	n/a	n/a	n/a	n/a	n/a
570695	STOP	n/a	LTP082	ltpFR	13	n/a	n/a	n/a	n/a	n/a	n/a	n/a	n/a	n/a	n/a	n/a	n/a	n/a	n/a	n/a	n/a
572578	WORD	wordpools/wasnorm_wordpool.txt	LTP082	ltpFR	13	3	1	ALBUM	14	n/a	n/a	0	n/a	0	0	0	0.57763671875	0.412841796875	1	lower	zerothre.ttf
575586	START	n/a	LTP082	ltpFR	13	n/a	n/a	n/a	n/a	n/a	n/a	n/a	n/a	n/a	n/a	n/a	n/a	n/a	n/a	n/a	n/a
576578	PROB	n/a	LTP082	ltpFR	13	n/a	n/a	n/a	n/a	n/a	n/a	n/a	14	4	5	5	n/a	n/a	n/a	n/a	n/a
578026	PROB	n/a	LTP082	ltpFR	13	n/a	n/a	n/a	n/a	n/a	n/a	n/a	17	7	2	8	n/a	n/a	n/a	n/a	n/a
579777	PROB	n/a	LTP082	ltpFR	13	n/a	n/a	n/a	n/a	n/a	n/a	n/a	13	8	2	3	n/a	n/a	n/a	n/a	n/a
581536	PROB	n/a	LTP082	ltpFR	13	n/a	n/a	n/a	n/a	n/a	n/a	n/a	21	9	7	5	n/a	n/a	n/a	n/a	n/a
583844	PROB	n/a	LTP082	ltpFR	13	n/a	n/a	n/a	n/a	n/a	n/a	n/a	9	7	1	1	n/a	n/a	n/a	n/a	n/a
584968	PROB	n/a	LTP082	ltpFR	13	n/a	n/a	n/a	n/a	n/a	n/a	n/a	7	1	3	3	n/a	n/a	n/a	n/a	n/a
587094	PROB	n/a	LTP082	ltpFR	13	n/a	n/a	n/a	n/a	n/a	n/a	n/a	24	8	9	7	n/a	n/a	n/a	n/a	n/a
589402	PROB	n/a	LTP082	ltpFR	13	n/a	n/a	n/a	n/a	n/a	n/a	n/a	4	1	2	1	n/a	n/a	n/a	n/a	n/a
590719	STOP	n/a	LTP082	ltpFR	13	n/a	n/a	n/a	n/a	n/a	n/a	n/a	n/a	n/a	n/a	n/a	n/a	n/a	n/a	n/a	n/a
592793	WORD	wordpools/wasnorm_wordpool.txt	LTP082	ltpFR	13	3	1	GODDESS	646	n/a	n/a	1	n/a	0	0	0	0.57763671875	0.412841796875	1	lower	zerothre.ttf
595802	START	n/a	LTP082	ltpFR	13	n/a	n/a	n/a	n/a	n/a	n/a	n/a	n/a	n/a	n/a	n/a	n/a	n/a	n/a	n/a	n/a
596975	PROB	n/a	LTP082	ltpFR	13	n/a	n/a	n/a	n/a	n/a	n/a	n/a	13	4	6	3	n/a	n/a	n/a	n/a	n/a
598151	PROB	n/a	LTP082	ltpFR	13	n/a	n/a	n/a	n/a	n/a	n/a	n/a	16	5	2	9	n/a	n/a	n/a	n/a	n/a
600534	PROB	n/a	LTP082	ltpFR	13	n/a	n/a	n/a	n/a	n/a	n/a	n/a	18	4	5	9	n/a	n/a	n/a	n/a	n/a
602426	PROB	n/a	LTP082	ltpFR	13	n/a	n/a	n/a	n/a	n/a	n/a	n/a	19	7	8	4	n/a	n/a	n/a	n/a	n/a
604226	PROB	n/a	LTP082	ltpFR	13	n/a	n/a	n/a	n/a	n/a	n/a	n/a	12	5	3	4	n/a	n/a	n/a	n/a	n/a
605891	PROB	n/a	LTP082	ltpFR	13	n/a	n/a	n/a	n/a	n/a	n/a	n/a	20	9	6	5	n/a	n/a	n/a	n/a	n/a
607434	PROB	n/a	LTP082	ltpFR	13	n/a	n/a	n/a	n/a	n/a	n/a	n/a	14	3	9	2	n/a	n/a	n/a	n/a	n/a
611802	STOP	n/a	LTP082	ltpFR	13	n/a	n/a	n/a	n/a	n/a	n/a	n/a	n/a	n/a	n/a	n/a	n/a	n/a	n/a	n/a	n/a
612916	WORD	wordpools/wasnorm_wordpool.txt	LTP082	ltpFR	13	3	0	SHRINE	1298	n/a	n/a	1	n/a	0	0	0	0.422607421875	0.5869140625	0	upper	amplitud.ttf
615924	START	n/a	LTP082	ltpFR	13	n/a	n/a	n/a	n/a	n/a	n/a	n/a	n/a	n/a	n/a	n/a	n/a	n/a	n/a	n/a	n/a
617032	PROB	n/a	LTP082	ltpFR	13	n/a	n/a	n/a	n/a	n/a	n/a	n/a	17	8	5	4	n/a	n/a	n/a	n/a	n/a
618516	PROB	n/a	LTP082	ltpFR	13	n/a	n/a	n/a	n/a	n/a	n/a	n/a	10	5	1	4	n/a	n/a	n/a	n/a	n/a
620383	PROB	n/a	LTP082	ltpFR	13	n/a	n/a	n/a	n/a	n/a	n/a	n/a	21	9	8	4	n/a	n/a	n/a	n/a	n/a
622074	PROB	n/a	LTP082	ltpFR	13	n/a	n/a	n/a	n/a	n/a	n/a	n/a	11	1	3	7	n/a	n/a	n/a	n/a	n/a
623416	PROB	n/a	LTP082	ltpFR	13	n/a	n/a	n/a	n/a	n/a	n/a	n/a	13	6	3	4	n/a	n/a	n/a	n/a	n/a
625291	PROB	n/a	LTP082	ltpFR	13	n/a	n/a	n/a	n/a	n/a	n/a	n/a	19	9	8	2	n/a	n/a	n/a	n/a	n/a
626465	PROB	n/a	LTP082	ltpFR	13	n/a	n/a	n/a	n/a	n/a	n/a	n/a	18	2	8	8	n/a	n/a	n/a	n/a	n/a
628132	PROB	n/a	LTP082	ltpFR	13	n/a	n/a	n/a	n/a	n/a	n/a	n/a	26	9	8	8	n/a	n/a	n/a	n/a	n/a
630567	STOP	n/a	LTP082	ltpFR	13	n/a	n/a	n/a	n/a	n/a	n/a	n/a	n/a	n/a	n/a	n/a	n/a	n/a	n/a	n/a	n/a
632757	WORD	wordpools/wasnorm_wordpool.txt	LTP082	ltpFR	13	3	0	TUBE	1516	n/a	n/a	1	n/a	0	0	0	0.422607421875	0.5869140625	0	upper	amplitud.ttf
635765	START	n/a	LTP082	ltpFR	13	n/a	n/a	n/a	n/a	n/a	n/a	n/a	n/a	n/a	n/a	n/a	n/a	n/a	n/a	n/a	n/a
636623	PROB	n/a	LTP082	ltpFR	13	n/a	n/a	n/a	n/a	n/a	n/a	n/a	15	1	8	7	n/a	n/a	n/a	n/a	n/a
638123	PROB	n/a	LTP082	ltpFR	13	n/a	n/a	n/a	n/a	n/a	n/a	n/a	19	3	9	7	n/a	n/a	n/a	n/a	n/a
640123	PROB	n/a	LTP082	ltpFR	13	n/a	n/a	n/a	n/a	n/a	n/a	n/a	13	2	3	8	n/a	n/a	n/a	n/a	n/a
642064	PROB	n/a	LTP082	ltpFR	13	n/a	n/a	n/a	n/a	n/a	n/a	n/a	13	1	8	4	n/a	n/a	n/a	n/a	n/a
645297	PROB	n/a	LTP082	ltpFR	13	n/a	n/a	n/a	n/a	n/a	n/a	n/a	9	2	2	5	n/a	n/a	n/a	n/a	n/a
647322	PROB	n/a	LTP082	ltpFR	13	n/a	n/a	n/a	n/a	n/a	n/a	n/a	23	6	8	9	n/a	n/a	n/a	n/a	n/a
649422	PROB	n/a	LTP082	ltpFR	13	n/a	n/a	n/a	n/a	n/a	n/a	n/a	11	2	8	1	n/a	n/a	n/a	n/a	n/a
651063	STOP	n/a	LTP082	ltpFR	13	n/a	n/a	n/a	n/a	n/a	n/a	n/a	n/a	n/a	n/a	n/a	n/a	n/a	n/a	n/a	n/a
652664	WORD	wordpools/wasnorm_wordpool.txt	LTP082	ltpFR	13	3	0	ACORN	3	n/a	n/a	0	n/a	0	0	0	0.422607421875	0.5869140625	0	upper	amplitud.ttf
655672	START	n/a	LTP082	ltpFR	13	n/a	n/a	n/a	n/a	n/a	n/a	n/a	n/a	n/a	n/a	n/a	n/a	n/a	n/a	n/a	n/a
656747	PROB	n/a	LTP082	ltpFR	13	n/a	n/a	n/a	n/a	n/a	n/a	n/a	9	5	3	1	n/a	n/a	n/a	n/a	n/a
658421	PROB	n/a	LTP082	ltpFR	13	n/a	n/a	n/a	n/a	n/a	n/a	n/a	15	7	4	4	n/a	n/a	n/a	n/a	n/a
660505	PROB	n/a	LTP082	ltpFR	13	n/a	n/a	n/a	n/a	n/a	n/a	n/a	19	8	6	5	n/a	n/a	n/a	n/a	n/a
662771	PROB	n/a	LTP082	ltpFR	13	n/a	n/a	n/a	n/a	n/a	n/a	n/a	10	1	2	7	n/a	n/a	n/a	n/a	n/a
664588	PROB	n/a	LTP082	ltpFR	13	n/a	n/a	n/a	n/a	n/a	n/a	n/a	14	9	2	3	n/a	n/a	n/a	n/a	n/a
666246	PROB	n/a	LTP082	ltpFR	13	n/a	n/a	n/a	n/a	n/a	n/a	n/a	13	4	6	3	n/a	n/a	n/a	n/a	n/a
667696	PROB	n/a	LTP082	ltpFR	13	n/a	n/a	n/a	n/a	n/a	n/a	n/a	16	5	5	6	n/a	n/a	n/a	n/a	n/a
669121	PROB	n/a	LTP082	ltpFR	13	n/a	n/a	n/a	n/a	n/a	n/a	n/a	23	9	6	8	n/a	n/a	n/a	n/a	n/a
671567	STOP	n/a	LTP082	ltpFR	13	n/a	n/a	n/a	n/a	n/a	n/a	n/a	n/a	n/a	n/a	n/a	n/a	n/a	n/a	n/a	n/a
672645	WORD	wordpools/wasnorm_wordpool.txt	LTP082	ltpFR	13	3	0	LUMBER	848	n/a	n/a	1	n/a	0	0	0	0.422607421875	0.5869140625	0	upper	amplitud.ttf
675646	START	n/a	LTP082	ltpFR	13	n/a	n/a	n/a	n/a	n/a	n/a	n/a	n/a	n/a	n/a	n/a	n/a	n/a	n/a	n/a	n/a
676603	PROB	n/a	LTP082	ltpFR	13	n/a	n/a	n/a	n/a	n/a	n/a	n/a	14	5	8	1	n/a	n/a	n/a	n/a	n/a
678387	PROB	n/a	LTP082	ltpFR	13	n/a	n/a	n/a	n/a	n/a	n/a	n/a	20	7	4	9	n/a	n/a	n/a	n/a	n/a
680312	PROB	n/a	LTP082	ltpFR	13	n/a	n/a	n/a	n/a	n/a	n/a	n/a	21	4	9	8	n/a	n/a	n/a	n/a	n/a
682586	PROB	n/a	LTP082	ltpFR	13	n/a	n/a	n/a	n/a	n/a	n/a	n/a	11	2	1	8	n/a	n/a	n/a	n/a	n/a
684002	PROB	n/a	LTP082	ltpFR	13	n/a	n/a	n/a	n/a	n/a	n/a	n/a	13	4	3	6	n/a	n/a	n/a	n/a	n/a
685644	PROB	n/a	LTP082	ltpFR	13	n/a	n/a	n/a	n/a	n/a	n/a	n/a	19	2	9	8	n/a	n/a	n/a	n/a	n/a
687694	PROB	n/a	LTP082	ltpFR	13	n/a	n/a	n/a	n/a	n/a	n/a	n/a	12	2	7	3	n/a	n/a	n/a	n/a	n/a
689427	PROB	n/a	LTP082	ltpFR	13	n/a	n/a	n/a	n/a	n/a	n/a	n/a	24	6	9	9	n/a	n/a	n/a	n/a	n/a
691503	STOP	n/a	LTP082	ltpFR	13	n/a	n/a	n/a	n/a	n/a	n/a	n/a	n/a	n/a	n/a	n/a	n/a	n/a	n/a	n/a	n/a
692544	WORD	wordpools/wasnorm_wordpool.txt	LTP082	ltpFR	13	3	1	TUBA	1515	n/a	n/a	0	n/a	0	0	0	0.57763671875	0.412841796875	1	lower	zerothre.ttf
695552	START	n/a	LTP082	ltpFR	13	n/a	n/a	n/a	n/a	n/a	n/a	n/a	n/a	n/a	n/a	n/a	n/a	n/a	n/a	n/a	n/a
696419	PROB	n/a	LTP082	ltpFR	13	n/a	n/a	n/a	n/a	n/a	n/a	n/a	7	3	3	1	n/a	n/a	n/a	n/a	n/a
697568	PROB	n/a	LTP082	ltpFR	13	n/a	n/a	n/a	n/a	n/a	n/a	n/a	6	1	2	3	n/a	n/a	n/a	n/a	n/a
698677	PROB	n/a	LTP082	ltpFR	13	n/a	n/a	n/a	n/a	n/a	n/a	n/a	13	3	6	4	n/a	n/a	n/a	n/a	n/a
699967	PROB	n/a	LTP082	ltpFR	13	n/a	n/a	n/a	n/a	n/a	n/a	n/a	9	1	7	1	n/a	n/a	n/a	n/a	n/a
701143	PROB	n/a	LTP082	ltpFR	13	n/a	n/a	n/a	n/a	n/a	n/a	n/a	18	8	4	6	n/a	n/a	n/a	n/a	n/a
703110	PROB	n/a	LTP082	ltpFR	13	n/a	n/a	n/a	n/a	n/a	n/a	n/a	24	6	9	9	n/a	n/a	n/a	n/a	n/a
705368	PROB	n/a	LTP082	ltpFR	13	n/a	n/a	n/a	n/a	n/a	n/a	n/a	11	5	2	4	n/a	n/a	n/a	n/a	n/a
707168	PROB	n/a	LTP082	ltpFR	13	n/a	n/a	n/a	n/a	n/a	n/a	n/a	11	1	1	9	n/a	n/a	n/a	n/a	n/a
708801	PROB	n/a	LTP082	ltpFR	13	n/a	n/a	n/a	n/a	n/a	n/a	n/a	14	7	1	6	n/a	n/a	n/a	n/a	n/a
710839	STOP	n/a	LTP082	ltpFR	13	n/a	n/a	n/a	n/a	n/a	n/a	n/a	n/a	n/a	n/a	n/a	n/a	n/a	n/a	n/a	n/a
712651	WORD	wordpools/wasnorm_wordpool.txt	LTP082	ltpFR	13	3	1	LAWYER	806	n/a	n/a	1	n/a	0	0	0	0.57763671875	0.412841796875	1	lower	zerothre.ttf
715659	START	n/a	LTP082	ltpFR	13	n/a	n/a	n/a	n/a	n/a	n/a	n/a	n/a	n/a	n/a	n/a	n/a	n/a	n/a	n/a	n/a
716817	PROB	n/a	LTP082	ltpFR	13	n/a	n/a	n/a	n/a	n/a	n/a	n/a	15	2	6	7	n/a	n/a	n/a	n/a	n/a
719600	PROB	n/a	LTP082	ltpFR	13	n/a	n/a	n/a	n/a	n/a	n/a	n/a	14	9	4	1	n/a	n/a	n/a	n/a	n/a
721050	PROB	n/a	LTP082	ltpFR	13	n/a	n/a	n/a	n/a	n/a	n/a	n/a	12	1	5	6	n/a	n/a	n/a	n/a	n/a
722283	PROB	n/a	LTP082	ltpFR	13	n/a	n/a	n/a	n/a	n/a	n/a	n/a	8	1	6	1	n/a	n/a	n/a	n/a	n/a
723492	PROB	n/a	LTP082	ltpFR	13	n/a	n/a	n/a	n/a	n/a	n/a	n/a	18	4	9	5	n/a	n/a	n/a	n/a	n/a
725283	PROB	n/a	LTP082	ltpFR	13	n/a	n/a	n/a	n/a	n/a	n/a	n/a	13	7	3	3	n/a	n/a	n/a	n/a	n/a
726733	PROB	n/a	LTP082	ltpFR	13	n/a	n/a	n/a	n/a	n/a	n/a	n/a	12	7	1	4	n/a	n/a	n/a	n/a	n/a
728666	PROB	n/a	LTP082	ltpFR	13	n/a	n/a	n/a	n/a	n/a	n/a	n/a	13	3	1	9	n/a	n/a	n/a	n/a	n/a
730119	STOP	n/a	LTP082	ltpFR	13	n/a	n/a	n/a	n/a	n/a	n/a	n/a	n/a	n/a	n/a	n/a	n/a	n/a	n/a	n/a	n/a
732633	WORD	wordpools/wasnorm_wordpool.txt	LTP082	ltpFR	13	3	1	STETHOSCOPE	1379	n/a	n/a	0	n/a	0	0	0	0.57763671875	0.412841796875	1	lower	zerothre.ttf
735641	START	n/a	LTP082	ltpFR	13	n/a	n/a	n/a	n/a	n/a	n/a	n/a	n/a	n/a	n/a	n/a	n/a	n/a	n/a	n/a	n/a
736507	PROB	n/a	LTP082	ltpFR	13	n/a	n/a	n/a	n/a	n/a	n/a	n/a	21	9	4	8	n/a	n/a	n/a	n/a	n/a
738199	PROB	n/a	LTP082	ltpFR	13	n/a	n/a	n/a	n/a	n/a	n/a	n/a	9	4	4	1	n/a	n/a	n/a	n/a	n/a
740657	PROB	n/a	LTP082	ltpFR	13	n/a	n/a	n/a	n/a	n/a	n/a	n/a	15	3	5	7	n/a	n/a	n/a	n/a	n/a
742099	PROB	n/a	LTP082	ltpFR	13	n/a	n/a	n/a	n/a	n/a	n/a	n/a	6	1	2	3	n/a	n/a	n/a	n/a	n/a
743198	PROB	n/a	LTP082	ltpFR	13	n/a	n/a	n/a	n/a	n/a	n/a	n/a	7	2	4	1	n/a	n/a	n/a	n/a	n/a
745315	PROB	n/a	LTP082	ltpFR	13	n/a	n/a	n/a	n/a	n/a	n/a	n/a	22	8	7	7	n/a	n/a	n/a	n/a	n/a
747098	PROB	n/a	LTP082	ltpFR	13	n/a	n/a	n/a	n/a	n/a	n/a	n/a	16	5	2	9	n/a	n/a	n/a	n/a	n/a
749390	PROB	n/a	LTP082	ltpFR	13	n/a	n/a	n/a	n/a	n/a	n/a	n/a	16	4	9	2	n/a	n/a	n/a	n/a	n/a
750886	STOP	n/a	LTP082	ltpFR	13	n/a	n/a	n/a	n/a	n/a	n/a	n/a	n/a	n/a	n/a	n/a	n/a	n/a	n/a	n/a	n/a
752573	WORD	wordpools/wasnorm_wordpool.txt	LTP082	ltpFR	13	3	1	PHOTO	1055	n/a	n/a	0	n/a	0	0	0	0.57763671875	0.412841796875	1	lower	zerothre.ttf
755581	START	n/a	LTP082	ltpFR	13	n/a	n/a	n/a	n/a	n/a	n/a	n/a	n/a	n/a	n/a	n/a	n/a	n/a	n/a	n/a	n/a
756406	PROB	n/a	LTP082	ltpFR	13	n/a	n/a	n/a	n/a	n/a	n/a	n/a	12	6	5	1	n/a	n/a	n/a	n/a	n/a
757489	PROB	n/a	LTP082	ltpFR	13	n/a	n/a	n/a	n/a	n/a	n/a	n/a	23	7	9	7	n/a	n/a	n/a	n/a	n/a
759131	PROB	n/a	LTP082	ltpFR	13	n/a	n/a	n/a	n/a	n/a	n/a	n/a	14	6	2	6	n/a	n/a	n/a	n/a	n/a
760904	PROB	n/a	LTP082	ltpFR	13	n/a	n/a	n/a	n/a	n/a	n/a	n/a	16	8	5	3	n/a	n/a	n/a	n/a	n/a
762597	PROB	n/a	LTP082	ltpFR	13	n/a	n/a	n/a	n/a	n/a	n/a	n/a	11	7	1	3	n/a	n/a	n/a	n/a	n/a
764505	PROB	n/a	LTP082	ltpFR	13	n/a	n/a	n/a	n/a	n/a	n/a	n/a	17	6	6	5	n/a	n/a	n/a	n/a	n/a
766630	PROB	n/a	LTP082	ltpFR	13	n/a	n/a	n/a	n/a	n/a	n/a	n/a	26	9	9	8	n/a	n/a	n/a	n/a	n/a
771581	STOP	n/a	LTP082	ltpFR	13	n/a	n/a	n/a	n/a	n/a	n/a	n/a	n/a	n/a	n/a	n/a	n/a	n/a	n/a	n/a	n/a
772446	WORD	wordpools/wasnorm_wordpool.txt	LTP082	ltpFR	13	3	0	MOUNTAIN	924	n/a	n/a	1	n/a	0	0	0	0.422607421875	0.5869140625	0	upper	amplitud.ttf
775455	START	n/a	LTP082	ltpFR	13	n/a	n/a	n/a	n/a	n/a	n/a	n/a	n/a	n/a	n/a	n/a	n/a	n/a	n/a	n/a	n/a
776429	PROB	n/a	LTP082	ltpFR	13	n/a	n/a	n/a	n/a	n/a	n/a	n/a	16	7	8	1	n/a	n/a	n/a	n/a	n/a
777870	PROB	n/a	LTP082	ltpFR	13	n/a	n/a	n/a	n/a	n/a	n/a	n/a	9	3	2	4	n/a	n/a	n/a	n/a	n/a
780246	PROB	n/a	LTP082	ltpFR	13	n/a	n/a	n/a	n/a	n/a	n/a	n/a	7	1	2	4	n/a	n/a	n/a	n/a	n/a
782404	PROB	n/a	LTP082	ltpFR	13	n/a	n/a	n/a	n/a	n/a	n/a	n/a	17	4	6	7	n/a	n/a	n/a	n/a	n/a
785137	PROB	n/a	LTP082	ltpFR	13	n/a	n/a	n/a	n/a	n/a	n/a	n/a	16	8	6	2	n/a	n/a	n/a	n/a	n/a
786562	PROB	n/a	LTP082	ltpFR	13	n/a	n/a	n/a	n/a	n/a	n/a	n/a	12	5	4	3	n/a	n/a	n/a	n/a	n/a
788687	PROB	n/a	LTP082	ltpFR	13	n/a	n/a	n/a	n/a	n/a	n/a	n/a	6	1	2	3	n/a	n/a	n/a	n/a	n/a
789720	PROB	n/a	LTP082	ltpFR	13	n/a	n/a	n/a	n/a	n/a	n/a	n/a	12	5	1	6	n/a	n/a	n/a	n/a	n/a
791271	STOP	n/a	LTP082	ltpFR	13	n/a	n/a	n/a	n/a	n/a	n/a	n/a	n/a	n/a	n/a	n/a	n/a	n/a	n/a	n/a	n/a
792595	WORD	wordpools/wasnorm_wordpool.txt	LTP082	ltpFR	13	3	0	HANDBAG	684	n/a	n/a	0	n/a	0	0	0	0.422607421875	0.5869140625	0	upper	amplitud.ttf
795603	START	n/a	LTP082	ltpFR	13	n/a	n/a	n/a	n/a	n/a	n/a	n/a	n/a	n/a	n/a	n/a	n/a	n/a	n/a	n/a	n/a
796736	PROB	n/a	LTP082	ltpFR	13	n/a	n/a	n/a	n/a	n/a	n/a	n/a	12	5	4	3	n/a	n/a	n/a	n/a	n/a
799053	PROB	n/a	LTP082	ltpFR	13	n/a	n/a	n/a	n/a	n/a	n/a	n/a	16	1	7	8	n/a	n/a	n/a	n/a	n/a
800711	PROB	n/a	LTP082	ltpFR	13	n/a	n/a	n/a	n/a	n/a	n/a	n/a	21	7	6	9	n/a	n/a	n/a	n/a	n/a
802377	PROB	n/a	LTP082	ltpFR	13	n/a	n/a	n/a	n/a	n/a	n/a	n/a	13	2	8	3	n/a	n/a	n/a	n/a	n/a
804144	PROB	n/a	LTP082	ltpFR	13	n/a	n/a	n/a	n/a	n/a	n/a	n/a	13	2	8	3	n/a	n/a	n/a	n/a	n/a
805202	PROB	n/a	LTP082	ltpFR	13	n/a	n/a	n/a	n/a	n/a	n/a	n/a	15	6	2	7	n/a	n/a	n/a	n/a	n/a
807477	PROB	n/a	LTP082	ltpFR	13	n/a	n/a	n/a	n/a	n/a	n/a	n/a	15	7	4	4	n/a	n/a	n/a	n/a	n/a
808876	PROB	n/a	LTP082	ltpFR	13	n/a	n/a	n/a	n/a	n/a	n/a	n/a	7	1	3	3	n/a	n/a	n/a	n/a	n/a
810263	STOP	n/a	LTP082	ltpFR	13	n/a	n/a	n/a	n/a	n/a	n/a	n/a	n/a	n/a	n/a	n/a	n/a	n/a	n/a	n/a	n/a
812710	WORD	wordpools/wasnorm_wordpool.txt	LTP082	ltpFR	13	3	0	PIGEON	1065	n/a	n/a	1	n/a	0	0	0	0.422607421875	0.5869140625	0	upper	amplitud.ttf
815718	START	n/a	LTP082	ltpFR	13	n/a	n/a	n/a	n/a	n/a	n/a	n/a	n/a	n/a	n/a	n/a	n/a	n/a	n/a	n/a	n/a
816818	PROB	n/a	LTP082	ltpFR	13	n/a	n/a	n/a	n/a	n/a	n/a	n/a	16	8	4	4	n/a	n/a	n/a	n/a	n/a
818268	PROB	n/a	LTP082	ltpFR	13	n/a	n/a	n/a	n/a	n/a	n/a	n/a	14	9	3	2	n/a	n/a	n/a	n/a	n/a
820359	PROB	n/a	LTP082	ltpFR	13	n/a	n/a	n/a	n/a	n/a	n/a	n/a	11	1	9	1	n/a	n/a	n/a	n/a	n/a
821559	PROB	n/a	LTP082	ltpFR	13	n/a	n/a	n/a	n/a	n/a	n/a	n/a	19	7	3	9	n/a	n/a	n/a	n/a	n/a
822950	PROB	n/a	LTP082	ltpFR	13	n/a	n/a	n/a	n/a	n/a	n/a	n/a	8	1	2	5	n/a	n/a	n/a	n/a	n/a
825866	PROB	n/a	LTP082	ltpFR	13	n/a	n/a	n/a	n/a	n/a	n/a	n/a	20	6	6	8	n/a	n/a	n/a	n/a	n/a
827709	PROB	n/a	LTP082	ltpFR	13	n/a	n/a	n/a	n/a	n/a	n/a	n/a	17	9	3	5	n/a	n/a	n/a	n/a	n/a
829450	PROB	n/a	LTP082	ltpFR	13	n/a	n/a	n/a	n/a	n/a	n/a	n/a	19	5	8	6	n/a	n/a	n/a	n/a	n/a
831087	STOP	n/a	LTP082	ltpFR	13	n/a	n/a	n/a	n/a	n/a	n/a	n/a	n/a	n/a	n/a	n/a	n/a	n/a	n/a	n/a	n/a
832625	WORD	wordpools/wasnorm_wordpool.txt	LTP082	ltpFR	13	3	0	PARROT	1015	n/a	n/a	1	n/a	0	0	0	0.422607421875	0.5869140625	0	upper	amplitud.ttf
835633	START	n/a	LTP082	ltpFR	13	n/a	n/a	n/a	n/a	n/a	n/a	n/a	n/a	n/a	n/a	n/a	n/a	n/a	n/a	n/a	n/a
836541	PROB	n/a	LTP082	ltpFR	13	n/a	n/a	n/a	n/a	n/a	n/a	n/a	10	5	2	3	n/a	n/a	n/a	n/a	n/a
838350	PROB	n/a	LTP082	ltpFR	13	n/a	n/a	n/a	n/a	n/a	n/a	n/a	11	4	2	5	n/a	n/a	n/a	n/a	n/a
840083	PROB	n/a	LTP082	ltpFR	13	n/a	n/a	n/a	n/a	n/a	n/a	n/a	15	3	3	9	n/a	n/a	n/a	n/a	n/a
841624	PROB	n/a	LTP082	ltpFR	13	n/a	n/a	n/a	n/a	n/a	n/a	n/a	15	2	5	8	n/a	n/a	n/a	n/a	n/a
843558	PROB	n/a	LTP082	ltpFR	13	n/a	n/a	n/a	n/a	n/a	n/a	n/a	19	8	7	4	n/a	n/a	n/a	n/a	n/a
845407	PROB	n/a	LTP082	ltpFR	13	n/a	n/a	n/a	n/a	n/a	n/a	n/a	18	7	9	2	n/a	n/a	n/a	n/a	n/a
847207	PROB	n/a	LTP082	ltpFR	13	n/a	n/a	n/a	n/a	n/a	n/a	n/a	25	9	8	9	n/a	n/a	n/a	n/a	n/a
851239	STOP	n/a	LTP082	ltpFR	13	n/a	n/a	n/a	n/a	n/a	n/a	n/a	n/a	n/a	n/a	n/a	n/a	n/a	n/a	n/a	n/a
853424	REC_START	n/a	LTP082	ltpFR	13	3	n/a	n/a	n/a	n/a	n/a	n/a	n/a	0	0	0	n/a	n/a	n/a	n/a	n/a
855454	REC_WORD	wordpools/wasnorm_wordpool.txt	LTP082	ltpFR	13	3	0	PARROT	1015	n/a	n/a	1	n/a	0	0	0	n/a	n/a	n/a	n/a	n/a
857978	REC_WORD	wordpools/wasnorm_wordpool.txt	LTP082	ltpFR	13	3	0	PIGEON	1065	n/a	n/a	1	n/a	0	0	0	n/a	n/a	n/a	n/a	n/a
863875	REC_WORD	wordpools/wasnorm_wordpool.txt	LTP082	ltpFR	13	3	1	ALBUM	14	n/a	n/a	0	n/a	0	0	0	n/a	n/a	n/a	n/a	n/a
865386	REC_WORD	wordpools/wasnorm_wordpool.txt	LTP082	ltpFR	13	3	1	PHOTO	1055	n/a	n/a	0	n/a	0	0	0	n/a	n/a	n/a	n/a	n/a
869233	REC_WORD	wordpools/wasnorm_wordpool.txt	LTP082	ltpFR	13	3	0	HANDBAG	684	n/a	n/a	0	n/a	0	0	0	n/a	n/a	n/a	n/a	n/a
873967	REC_WORD	wordpools/wasnorm_wordpool.txt	LTP082	ltpFR	13	3	1	CONDUCTOR	362	n/a	n/a	1	n/a	0	0	0	n/a	n/a	n/a	n/a	n/a
919110	REC_WORD	wordpools/wasnorm_wordpool.txt	LTP082	ltpFR	13	3	1	LAWYER	806	n/a	n/a	1	n/a	0	0	0	n/a	n/a	n/a	n/a	n/a
936851	WORD	wordpools/wasnorm_wordpool.txt	LTP082	ltpFR	13	4	0	FLY	586	n/a	n/a	1	n/a	0	0	0	0.422607421875	0.5869140625	0	upper	amplitud.ttf
940767	WORD	wordpools/wasnorm_wordpool.txt	LTP082	ltpFR	13	4	0	CAKE	219	n/a	n/a	0	n/a	0	0	0	0.422607421875	0.5869140625	0	upper	amplitud.ttf
944700	WORD	wordpools/wasnorm_wordpool.txt	LTP082	ltpFR	13	4	1	ZUCCHINI	1638	n/a	n/a	0	n/a	0	0	0	0.57763671875	0.412841796875	1	lower	zerothre.ttf
948882	WORD	wordpools/wasnorm_wordpool.txt	LTP082	ltpFR	13	4	1	FUNGUS	614	n/a	n/a	1	n/a	0	0	0	0.57763671875	0.412841796875	1	lower	zerothre.ttf
952882	WORD	wordpools/wasnorm_wordpool.txt	LTP082	ltpFR	13	4	1	SALESMAN	1225	n/a	n/a	1	n/a	0	0	0	0.57763671875	0.412841796875	1	lower	zerothre.ttf
956699	WORD	wordpools/wasnorm_wordpool.txt	LTP082	ltpFR	13	4	1	TABLE	1426	n/a	n/a	0	n/a	0	0	0	0.57763671875	0.412841796875	1	lower	zerothre.ttf
960732	WORD	wordpools/wasnorm_wordpool.txt	LTP082	ltpFR	13	4	0	FLASHLIGHT	575	n/a	n/a	0	n/a	0	0	0	0.422607421875	0.5869140625	0	upper	amplitud.ttf
964598	WORD	wordpools/wasnorm_wordpool.txt	LTP082	ltpFR	13	4	0	OWNER	993	n/a	n/a	1	n/a	0	0	0	0.422607421875	0.5869140625	0	upper	amplitud.ttf
968806	WORD	wordpools/wasnorm_wordpool.txt	LTP082	ltpFR	13	4	1	VIKING	1565	n/a	n/a	0	n/a	0	0	0	0.57763671875	0.412841796875	1	lower	zerothre.ttf
972848	WORD	wordpools/wasnorm_wordpool.txt	LTP082	ltpFR	13	4	1	TOTE	1487	n/a	n/a	0	n/a	0	0	0	0.57763671875	0.412841796875	1	lower	zerothre.ttf
976930	WORD	wordpools/wasnorm_wordpool.txt	LTP082	ltpFR	13	4	1	BEAN	105	n/a	n/a	1	n/a	0	0	0	0.57763671875	0.412841796875	1	lower	zerothre.ttf
981131	WORD	wordpools/wasnorm_wordpool.txt	LTP082	ltpFR	13	4	1	STOOL	1386	n/a	n/a	0	n/a	0	0	0	0.57763671875	0.412841796875	1	lower	zerothre.ttf
985272	WORD	wordpools/wasnorm_wordpool.txt	LTP082	ltpFR	13	4	0	DISH	474	n/a	n/a	0	n/a	0	0	0	0.422607421875	0.5869140625	0	upper	amplitud.ttf
989363	WORD	wordpools/wasnorm_wordpool.txt	LTP082	ltpFR	13	4	0	BILL	126	n/a	n/a	0	n/a	0	0	0	0.422607421875	0.5869140625	0	upper	amplitud.ttf
993363	WORD	wordpools/wasnorm_wordpool.txt	LTP082	ltpFR	13	4	0	BANKER	84	n/a	n/a	1	n/a	0	0	0	0.422607421875	0.5869140625	0	upper	amplitud.ttf
997204	WORD	wordpools/wasnorm_wordpool.txt	LTP082	ltpFR	13	4	0	ATHLETE	52	n/a	n/a	1	n/a	0	0	0	0.422607421875	0.5869140625	0	upper	amplitud.ttf
1000213	START	n/a	LTP082	ltpFR	13	n/a	n/a	n/a	n/a	n/a	n/a	n/a	n/a	n/a	n/a	n/a	n/a	n/a	n/a	n/a	n/a
1001020	PROB	n/a	LTP082	ltpFR	13	n/a	n/a	n/a	n/a	n/a	n/a	n/a	21	6	9	7	n/a	n/a	n/a	n/a	n/a
1002721	PROB	n/a	LTP082	ltpFR	13	n/a	n/a	n/a	n/a	n/a	n/a	n/a	15	7	1	7	n/a	n/a	n/a	n/a	n/a
1003970	PROB	n/a	LTP082	ltpFR	13	n/a	n/a	n/a	n/a	n/a	n/a	n/a	16	1	6	8	n/a	n/a	n/a	n/a	n/a
1008213	STOP	n/a	LTP082	ltpFR	13	n/a	n/a	n/a	n/a	n/a	n/a	n/a	n/a	n/a	n/a	n/a	n/a	n/a	n/a	n/a	n/a
1010046	REC_START	n/a	LTP082	ltpFR	13	4	n/a	n/a	n/a	n/a	n/a	n/a	n/a	0	0	0	n/a	n/a	n/a	n/a	n/a
1011448	REC_WORD	wordpools/wasnorm_wordpool.txt	LTP082	ltpFR	13	4	1	TOTE	1487	n/a	n/a	0	n/a	0	0	0	n/a	n/a	n/a	n/a	n/a
1012919	REC_WORD	wordpools/wasnorm_wordpool.txt	LTP082	ltpFR	13	4	0	OWNER	993	n/a	n/a	1	n/a	0	0	0	n/a	n/a	n/a	n/a	n/a
1016127	REC_WORD	wordpools/wasnorm_wordpool.txt	LTP082	ltpFR	13	4	0	ATHLETE	52	n/a	n/a	1	n/a	0	0	0	n/a	n/a	n/a	n/a	n/a
1020377	REC_WORD	wordpools/wasnorm_wordpool.txt	LTP082	ltpFR	13	4	0	BANKER	84	n/a	n/a	1	n/a	0	0	0	n/a	n/a	n/a	n/a	n/a
1027052	REC_WORD	wordpools/wasnorm_wordpool.txt	LTP082	ltpFR	13	4	1	SALESMAN	1225	n/a	n/a	1	n/a	0	0	0	n/a	n/a	n/a	n/a	n/a
1028683	REC_WORD	wordpools/wasnorm_wordpool.txt	LTP082	ltpFR	13	4	1	FUNGUS	614	n/a	n/a	1	n/a	0	0	0	n/a	n/a	n/a	n/a	n/a
1033128	REC_WORD	wordpools/wasnorm_wordpool.txt	LTP082	ltpFR	13	4	1	BEAN	105	n/a	n/a	1	n/a	0	0	0	n/a	n/a	n/a	n/a	n/a
1049142	REC_WORD	wordpools/wasnorm_wordpool.txt	LTP082	ltpFR	13	4	1	CHAMPAGNE	278	n/a	n/a	0	n/a	0	0	0	n/a	n/a	n/a	n/a	n/a
1056126	REC_WORD	wordpools/wasnorm_wordpool.txt	LTP082	ltpFR	13	4	1	VIKING	1565	n/a	n/a	0	n/a	0	0	0	n/a	n/a	n/a	n/a	n/a
1093189	WORD	wordpools/wasnorm_wordpool.txt	LTP082	ltpFR	13	5	1	PORTRAIT	1111	n/a	n/a	0	n/a	0	0	0	0.57763671875	0.412841796875	1	lower	zerothre.ttf
1097097	WORD	wordpools/wasnorm_wordpool.txt	LTP082	ltpFR	13	5	1	PAINT	1003	n/a	n/a	0	n/a	0	0	0	0.57763671875	0.412841796875	1	lower	zerothre.ttf
1101122	WORD	wordpools/wasnorm_wordpool.txt	LTP082	ltpFR	13	5	1	TELEVISION	1447	n/a	n/a	0	n/a	0	0	0	0.57763671875	0.412841796875	1	lower	zerothre.ttf
1105280	WORD	wordpools/wasnorm_wordpool.txt	LTP082	ltpFR	13	5	1	CAPE	237	n/a	n/a	0	n/a	0	0	0	0.57763671875	0.412841796875	1	lower	zerothre.ttf
1109238	WORD	wordpools/wasnorm_wordpool.txt	LTP082	ltpFR	13	5	1	GATE	625	n/a	n/a	0	n/a	0	0	0	0.57763671875	0.412841796875	1	lower	zerothre.ttf
1113296	WORD	wordpools/wasnorm_wordpool.txt	LTP082	ltpFR	13	5	1	BUREAU	199	n/a	n/a	0	n/a	0	0	0	0.57763671875	0.412841796875	1	lower	zerothre.ttf
1117462	WORD	wordpools/wasnorm_wordpool.txt	LTP082	ltpFR	13	5	1	ARTIST	43	n/a	n/a	0	n/a	0	0	0	0.57763671875	0.412841796875	1	lower	zerothre.ttf
1121545	WORD	wordpools/wasnorm_wordpool.txt	LTP082	ltpFR	13	5	1	PAINTER	1004	n/a	n/a	1	n/a	0	0	0	0.57763671875	0.412841796875	1	lower	zerothre.ttf
1125411	WORD	wordpools/wasnorm_wordpool.txt	LTP082	ltpFR	13	5	1	INDIAN	736	n/a	n/a	1	n/a	0	0	0	0.57763671875	0.412841796875	1	lower	zerothre.ttf
1129461	WORD	wordpools/wasnorm_wordpool.txt	LTP082	ltpFR	13	5	1	TENT	1449	n/a	n/a	0	n/a	0	0	0	0.57763671875	0.412841796875	1	lower	zerothre.ttf
1133286	WORD	wordpools/wasnorm_wordpool.txt	LTP082	ltpFR	13	5	1	CLOSET	326	n/a	n/a	0	n/a	0	0	0	0.57763671875	0.412841796875	1	lower	zerothre.ttf
1137327	WORD	wordpools/wasnorm_wordpool.txt	LTP082	ltpFR	13	5	1	CANYON	235	n/a	n/a	0	n/a	0	0	0	0.57763671875	0.412841796875	1	lower	zerothre.ttf
1141202	WORD	wordpools/wasnorm_wordpool.txt	LTP082	ltpFR	13	5	1	SAW	1239	n/a	n/a	0	n/a	0	0	0	0.57763671875	0.412841796875	1	lower	zerothre.ttf
1145118	WORD	wordpools/wasnorm_wordpool.txt	LTP082	ltpFR	13	5	1	KEEPER	769	n/a	n/a	0	n/a	0	0	0	0.57763671875	0.412841796875	1	lower	zerothre.ttf
1149210	WORD	wordpools/wasnorm_wordpool.txt	LTP082	ltpFR	13	5	1	TEENAGER	1444	n/a	n/a	1	n/a	0	0	0	0.57763671875	0.412841796875	1	lower	zerothre.ttf
1153359	WORD	wordpools/wasnorm_wordpool.txt	LTP082	ltpFR	13	5	1	CARPENTER	246	n/a	n/a	1	n/a	0	0	0	0.57763671875	0.412841796875	1	lower	zerothre.ttf
1156368	START	n/a	LTP082	ltpFR	13	n/a	n/a	n/a	n/a	n/a	n/a	n/a	n/a	n/a	n/a	n/a	n/a	n/a	n/a	n/a	n/a
1157509	PROB	n/a	LTP082	ltpFR	13	n/a	n/a	n/a	n/a	n/a	n/a	n/a	12	2	2	8	n/a	n/a	n/a	n/a	n/a
1158634	PROB	n/a	LTP082	ltpFR	13	n/a	n/a	n/a	n/a	n/a	n/a	n/a	19	7	3	9	n/a	n/a	n/a	n/a	n/a
1160342	PROB	n/a	LTP082	ltpFR	13	n/a	n/a	n/a	n/a	n/a	n/a	n/a	22	7	6	9	n/a	n/a	n/a	n/a	n/a
1162033	PROB	n/a	LTP082	ltpFR	13	n/a	n/a	n/a	n/a	n/a	n/a	n/a	14	4	6	4	n/a	n/a	n/a	n/a	n/a
1163534	PROB	n/a	LTP082	ltpFR	13	n/a	n/a	n/a	n/a	n/a	n/a	n/a	25	7	8	8	n/a	n/a	n/a	n/a	n/a
1165775	PROB	n/a	LTP082	ltpFR	13	n/a	n/a	n/a	n/a	n/a	n/a	n/a	20	9	9	2	n/a	n/a	n/a	n/a	n/a
1170175	PROB	n/a	LTP082	ltpFR	13	n/a	n/a	n/a	n/a	n/a	n/a	n/a	6	3	2	1	n/a	n/a	n/a	n/a	n/a
1171311	STOP	n/a	LTP082	ltpFR	13	n/a	n/a	n/a	n/a	n/a	n/a	n/a	n/a	n/a	n/a	n/a	n/a	n/a	n/a	n/a	n/a
1174117	REC_START	n/a	LTP082	ltpFR	13	5	n/a	n/a	n/a	n/a	n/a	n/a	n/a	0	0	0	n/a	n/a	n/a	n/a	n/a
1176432	REC_WORD	wordpools/wasnorm_wordpool.txt	LTP082	ltpFR	13	5	1	TEENAGER	1444	n/a	n/a	1	n/a	0	0	0	n/a	n/a	n/a	n/a	n/a
1178881	REC_WORD	wordpools/wasnorm_wordpool.txt	LTP082	ltpFR	13	5	1	CLOSET	326	n/a	n/a	0	n/a	0	0	0	n/a	n/a	n/a	n/a	n/a
1181191	REC_WORD	wordpools/wasnorm_wordpool.txt	LTP082	ltpFR	13	5	1	CARPENTER	246	n/a	n/a	1	n/a	0	0	0	n/a	n/a	n/a	n/a	n/a
1182857	REC_WORD	wordpools/wasnorm_wordpool.txt	LTP082	ltpFR	13	5	1	SAW	1239	n/a	n/a	0	n/a	0	0	0	n/a	n/a	n/a	n/a	n/a
1184633	REC_WORD	wordpools/wasnorm_wordpool.txt	LTP082	ltpFR	13	5	1	TABLE	1426	n/a	n/a	0	n/a	0	0	0	n/a	n/a	n/a	n/a	n/a
1188798	REC_WORD	wordpools/wasnorm_wordpool.txt	LTP082	ltpFR	13	5	1	KEEPER	769	n/a	n/a	0	n/a	0	0	0	n/a	n/a	n/a	n/a	n/a
1191158	REC_WORD	wordpools/wasnorm_wordpool.txt	LTP082	ltpFR	13	5	1	TELEVISION	1447	n/a	n/a	0	n/a	0	0	0	n/a	n/a	n/a	n/a	n/a
1193493	REC_WORD	wordpools/wasnorm_wordpool.txt	LTP082	ltpFR	13	5	1	PORTRAIT	1111	n/a	n/a	0	n/a	0	0	0	n/a	n/a	n/a	n/a	n/a
1194979	REC_WORD	wordpools/wasnorm_wordpool.txt	LTP082	ltpFR	13	5	1	PAINT	1003	n/a	n/a	0	n/a	0	0	0	n/a	n/a	n/a	n/a	n/a
1196581	REC_WORD	wordpools/wasnorm_wordpool.txt	LTP082	ltpFR	13	5	1	PAINTER	1004	n/a	n/a	1	n/a	0	0	0	n/a	n/a	n/a	n/a	n/a
1198157	REC_WORD	wordpools/wasnorm_wordpool.txt	LTP082	ltpFR	13	5	1	ARTIST	43	n/a	n/a	0	n/a	0	0	0	n/a	n/a	n/a	n/a	n/a
1199783	REC_WORD	wordpools/wasnorm_wordpool.txt	LTP082	ltpFR	13	5	1	INDIAN	736	n/a	n/a	1	n/a	0	0	0	n/a	n/a	n/a	n/a	n/a
1258076	WORD	wordpools/wasnorm_wordpool.txt	LTP082	ltpFR	13	6	1	COCKTAIL	338	n/a	n/a	0	n/a	0	0	0	0.57763671875	0.412841796875	1	lower	zerothre.ttf
1262209	WORD	wordpools/wasnorm_wordpool.txt	LTP082	ltpFR	13	6	1	BEE	112	n/a	n/a	1	n/a	0	0	0	0.57763671875	0.412841796875	1	lower	zerothre.ttf
1266043	WORD	wordpools/wasnorm_wordpool.txt	LTP082	ltpFR	13	6	0	ANTELOPE	27	n/a	n/a	1	n/a	0	0	0	0.422607421875	0.5869140625	0	upper	amplitud.ttf
1269858	WORD	wordpools/wasnorm_wordpool.txt	LTP082	ltpFR	13	6	0	SOCK	1339	n/a	n/a	0	n/a	0	0	0	0.422607421875	0.5869140625	0	upper	amplitud.ttf
1273684	WORD	wordpools/wasnorm_wordpool.txt	LTP082	ltpFR	13	6	0	HEEL	700	n/a	n/a	0	n/a	0	0	0	0.422607421875	0.5869140625	0	upper	amplitud.ttf
1277508	WORD	wordpools/wasnorm_wordpool.txt	LTP082	ltpFR	13	6	0	SALOON	1228	n/a	n/a	0	n/a	0	0	0	0.422607421875	0.5869140625	0	upper	amplitud.ttf
1281691	WORD	wordpools/wasnorm_wordpool.txt	LTP082	ltpFR	13	6	0	QUAIL	1147	n/a	n/a	1	n/a	0	0	0	0.422607421875	0.5869140625	0	upper	amplitud.ttf
1285783	WORD	wordpools/wasnorm_wordpool.txt	LTP082	ltpFR	13	6	1	ANKLE	24	n/a	n/a	0	n/a	0	0	0	0.57763671875	0.412841796875	1	lower	zerothre.ttf
1289649	WORD	wordpools/wasnorm_wordpool.txt	LTP082	ltpFR	13	6	1	MOTH	920	n/a	n/a	1	n/a	0	0	0	0.57763671875	0.412841796875	1	lower	zerothre.ttf
1293565	WORD	wordpools/wasnorm_wordpool.txt	LTP082	ltpFR	13	6	1	AUDIENCE	59	n/a	n/a	1	n/a	0	0	0	0.57763671875	0.412841796875	1	lower	zerothre.ttf
1297382	WORD	wordpools/wasnorm_wordpool.txt	LTP082	ltpFR	13	6	1	KNUCKLE	789	n/a	n/a	1	n/a	0	0	0	0.57763671875	0.412841796875	1	lower	zerothre.ttf
1301406	WORD	wordpools/wasnorm_wordpool.txt	LTP082	ltpFR	13	6	0	BEETLE	116	n/a	n/a	0	n/a	0	0	0	0.422607421875	0.5869140625	0	upper	amplitud.ttf
1305423	WORD	wordpools/wasnorm_wordpool.txt	LTP082	ltpFR	13	6	0	WORLD	1622	n/a	n/a	1	n/a	0	0	0	0.422607421875	0.5869140625	0	upper	amplitud.ttf
1309631	WORD	wordpools/wasnorm_wordpool.txt	LTP082	ltpFR	13	6	0	CYLINDER	432	n/a	n/a	0	n/a	0	0	0	0.422607421875	0.5869140625	0	upper	amplitud.ttf
1313589	WORD	wordpools/wasnorm_wordpool.txt	LTP082	ltpFR	13	6	1	HOSPITAL	721	n/a	n/a	0	n/a	0	0	0	0.57763671875	0.412841796875	1	lower	zerothre.ttf
1317755	WORD	wordpools/wasnorm_wordpool.txt	LTP082	ltpFR	13	6	1	SURGEON	1413	n/a	n/a	1	n/a	0	0	0	0.57763671875	0.412841796875	1	lower	zerothre.ttf
1323455	REC_START	n/a	LTP082	ltpFR	13	6	n/a	n/a	n/a	n/a	n/a	n/a	n/a	0	0	0	n/a	n/a	n/a	n/a	n/a
1324857	REC_WORD	wordpools/wasnorm_wordpool.txt	LTP082	ltpFR	13	6	1	HOSPITAL	721	n/a	n/a	0	n/a	0	0	0	n/a	n/a	n/a	n/a	n/a
1326762	REC_WORD	wordpools/wasnorm_wordpool.txt	LTP082	ltpFR	13	6	1	SURGEON	1413	n/a	n/a	1	n/a	0	0	0	n/a	n/a	n/a	n/a	n/a
1331317	REC_WORD	wordpools/wasnorm_wordpool.txt	LTP082	ltpFR	13	6	0	QUAIL	1147	n/a	n/a	1	n/a	0	0	0	n/a	n/a	n/a	n/a	n/a
1334155	REC_WORD	wordpools/wasnorm_wordpool.txt	LTP082	ltpFR	13	6	1	KNUCKLE	789	n/a	n/a	1	n/a	0	0	0	n/a	n/a	n/a	n/a	n/a
1336680	REC_WORD	wordpools/wasnorm_wordpool.txt	LTP082	ltpFR	13	6	1	ANKLE	24	n/a	n/a	0	n/a	0	0	0	n/a	n/a	n/a	n/a	n/a
1364691	REC_WORD	wordpools/wasnorm_wordpool.txt	LTP082	ltpFR	13	6	0	SOCK	1339	n/a	n/a	0	n/a	0	0	0	n/a	n/a	n/a	n/a	n/a
1366677	REC_WORD	wordpools/wasnorm_wordpool.txt	LTP082	ltpFR	13	6	0	HEEL	700	n/a	n/a	0	n/a	0	0	0	n/a	n/a	n/a	n/a	n/a
1380775	REC_WORD	wordpools/wasnorm_wordpool.txt	LTP082	ltpFR	13	6	1	BEE	112	n/a	n/a	1	n/a	0	0	0	n/a	n/a	n/a	n/a	n/a
1384336	REC_WORD	wordpools/wasnorm_wordpool.txt	LTP082	ltpFR	13	6	0	BEETLE	116	n/a	n/a	0	n/a	0	0	0	n/a	n/a	n/a	n/a	n/a
1400133	START	n/a	LTP082	ltpFR	13	n/a	n/a	n/a	n/a	n/a	n/a	n/a	n/a	n/a	n/a	n/a	n/a	n/a	n/a	n/a	n/a
1401641	PROB	n/a	LTP082	ltpFR	13	n/a	n/a	n/a	n/a	n/a	n/a	n/a	14	9	1	4	n/a	n/a	n/a	n/a	n/a
1404082	PROB	n/a	LTP082	ltpFR	13	n/a	n/a	n/a	n/a	n/a	n/a	n/a	10	4	3	3	n/a	n/a	n/a	n/a	n/a
1405939	PROB	n/a	LTP082	ltpFR	13	n/a	n/a	n/a	n/a	n/a	n/a	n/a	18	9	4	5	n/a	n/a	n/a	n/a	n/a
1407255	STOP	n/a	LTP082	ltpFR	13	n/a	n/a	n/a	n/a	n/a	n/a	n/a	n/a	n/a	n/a	n/a	n/a	n/a	n/a	n/a	n/a
1409132	WORD	wordpools/wasnorm_wordpool.txt	LTP082	ltpFR	13	7	1	BRANDY	169	n/a	n/a	0	n/a	0	0	0	0.57763671875	0.412841796875	1	lower	zerothre.ttf
1412140	START	n/a	LTP082	ltpFR	13	n/a	n/a	n/a	n/a	n/a	n/a	n/a	n/a	n/a	n/a	n/a	n/a	n/a	n/a	n/a	n/a
1412989	PROB	n/a	LTP082	ltpFR	13	n/a	n/a	n/a	n/a	n/a	n/a	n/a	8	4	2	2	n/a	n/a	n/a	n/a	n/a
1414723	PROB	n/a	LTP082	ltpFR	13	n/a	n/a	n/a	n/a	n/a	n/a	n/a	16	7	6	3	n/a	n/a	n/a	n/a	n/a
1416665	PROB	n/a	LTP082	ltpFR	13	n/a	n/a	n/a	n/a	n/a	n/a	n/a	21	7	7	7	n/a	n/a	n/a	n/a	n/a
1417781	PROB	n/a	LTP082	ltpFR	13	n/a	n/a	n/a	n/a	n/a	n/a	n/a	9	4	4	1	n/a	n/a	n/a	n/a	n/a
1419175	STOP	n/a	LTP082	ltpFR	13	n/a	n/a	n/a	n/a	n/a	n/a	n/a	n/a	n/a	n/a	n/a	n/a	n/a	n/a	n/a	n/a
1421231	WORD	wordpools/wasnorm_wordpool.txt	LTP082	ltpFR	13	7	1	FEAST	556	n/a	n/a	0	n/a	0	0	0	0.57763671875	0.412841796875	1	lower	zerothre.ttf
1424239	START	n/a	LTP082	ltpFR	13	n/a	n/a	n/a	n/a	n/a	n/a	n/a	n/a	n/a	n/a	n/a	n/a	n/a	n/a	n/a	n/a
1425139	PROB	n/a	LTP082	ltpFR	13	n/a	n/a	n/a	n/a	n/a	n/a	n/a	10	4	4	2	n/a	n/a	n/a	n/a	n/a
1426514	PROB	n/a	LTP082	ltpFR	13	n/a	n/a	n/a	n/a	n/a	n/a	n/a	9	2	5	2	n/a	n/a	n/a	n/a	n/a
1428155	PROB	n/a	LTP082	ltpFR	13	n/a	n/a	n/a	n/a	n/a	n/a	n/a	12	1	6	5	n/a	n/a	n/a	n/a	n/a
1432239	STOP	n/a	LTP082	ltpFR	13	n/a	n/a	n/a	n/a	n/a	n/a	n/a	n/a	n/a	n/a	n/a	n/a	n/a	n/a	n/a	n/a
1433438	WORD	wordpools/wasnorm_wordpool.txt	LTP082	ltpFR	13	7	1	PAPER	1011	n/a	n/a	0	n/a	0	0	0	0.57763671875	0.412841796875	1	lower	zerothre.ttf
1436447	START	n/a	LTP082	ltpFR	13	n/a	n/a	n/a	n/a	n/a	n/a	n/a	n/a	n/a	n/a	n/a	n/a	n/a	n/a	n/a	n/a
1437521	PROB	n/a	LTP082	ltpFR	13	n/a	n/a	n/a	n/a	n/a	n/a	n/a	18	8	4	6	n/a	n/a	n/a	n/a	n/a
1439004	PROB	n/a	LTP082	ltpFR	13	n/a	n/a	n/a	n/a	n/a	n/a	n/a	7	1	3	3	n/a	n/a	n/a	n/a	n/a
1440529	PROB	n/a	LTP082	ltpFR	13	n/a	n/a	n/a	n/a	n/a	n/a	n/a	24	8	8	8	n/a	n/a	n/a	n/a	n/a
1442329	PROB	n/a	LTP082	ltpFR	13	n/a	n/a	n/a	n/a	n/a	n/a	n/a	16	4	4	8	n/a	n/a	n/a	n/a	n/a
1444215	STOP	n/a	LTP082	ltpFR	13	n/a	n/a	n/a	n/a	n/a	n/a	n/a	n/a	n/a	n/a	n/a	n/a	n/a	n/a	n/a	n/a
1445562	WORD	wordpools/wasnorm_wordpool.txt	LTP082	ltpFR	13	7	1	TRUCK	1512	n/a	n/a	0	n/a	0	0	0	0.57763671875	0.412841796875	1	lower	zerothre.ttf
1448571	START	n/a	LTP082	ltpFR	13	n/a	n/a	n/a	n/a	n/a	n/a	n/a	n/a	n/a	n/a	n/a	n/a	n/a	n/a	n/a	n/a
1449595	PROB	n/a	LTP082	ltpFR	13	n/a	n/a	n/a	n/a	n/a	n/a	n/a	19	6	9	4	n/a	n/a	n/a	n/a	n/a
1450986	PROB	n/a	LTP082	ltpFR	13	n/a	n/a	n/a	n/a	n/a	n/a	n/a	19	4	9	6	n/a	n/a	n/a	n/a	n/a
1452478	PROB	n/a	LTP082	ltpFR	13	n/a	n/a	n/a	n/a	n/a	n/a	n/a	14	3	8	3	n/a	n/a	n/a	n/a	n/a
1454112	PROB	n/a	LTP082	ltpFR	13	n/a	n/a	n/a	n/a	n/a	n/a	n/a	8	2	3	3	n/a	n/a	n/a	n/a	n/a
1455791	STOP	n/a	LTP082	ltpFR	13	n/a	n/a	n/a	n/a	n/a	n/a	n/a	n/a	n/a	n/a	n/a	n/a	n/a	n/a	n/a	n/a
1457695	WORD	wordpools/wasnorm_wordpool.txt	LTP082	ltpFR	13	7	1	CONSOLE	364	n/a	n/a	0	n/a	0	0	0	0.57763671875	0.412841796875	1	lower	zerothre.ttf
1460703	START	n/a	LTP082	ltpFR	13	n/a	n/a	n/a	n/a	n/a	n/a	n/a	n/a	n/a	n/a	n/a	n/a	n/a	n/a	n/a	n/a
1461753	PROB	n/a	LTP082	ltpFR	13	n/a	n/a	n/a	n/a	n/a	n/a	n/a	19	5	7	7	n/a	n/a	n/a	n/a	n/a
1463753	PROB	n/a	LTP082	ltpFR	13	n/a	n/a	n/a	n/a	n/a	n/a	n/a	16	6	2	8	n/a	n/a	n/a	n/a	n/a
1465269	PROB	n/a	LTP082	ltpFR	13	n/a	n/a	n/a	n/a	n/a	n/a	n/a	18	5	4	9	n/a	n/a	n/a	n/a	n/a
1468055	STOP	n/a	LTP082	ltpFR	13	n/a	n/a	n/a	n/a	n/a	n/a	n/a	n/a	n/a	n/a	n/a	n/a	n/a	n/a	n/a	n/a
1469827	WORD	wordpools/wasnorm_wordpool.txt	LTP082	ltpFR	13	7	1	NET	946	n/a	n/a	0	n/a	0	0	0	0.57763671875	0.412841796875	1	lower	zerothre.ttf
1472836	START	n/a	LTP082	ltpFR	13	n/a	n/a	n/a	n/a	n/a	n/a	n/a	n/a	n/a	n/a	n/a	n/a	n/a	n/a	n/a	n/a
1474018	PROB	n/a	LTP082	ltpFR	13	n/a	n/a	n/a	n/a	n/a	n/a	n/a	18	9	1	8	n/a	n/a	n/a	n/a	n/a
1475460	PROB	n/a	LTP082	ltpFR	13	n/a	n/a	n/a	n/a	n/a	n/a	n/a	19	6	8	5	n/a	n/a	n/a	n/a	n/a
1477260	PROB	n/a	LTP082	ltpFR	13	n/a	n/a	n/a	n/a	n/a	n/a	n/a	23	5	8	9	n/a	n/a	n/a	n/a	n/a
1479735	STOP	n/a	LTP082	ltpFR	13	n/a	n/a	n/a	n/a	n/a	n/a	n/a	n/a	n/a	n/a	n/a	n/a	n/a	n/a	n/a	n/a
1481984	WORD	wordpools/wasnorm_wordpool.txt	LTP082	ltpFR	13	7	1	COD	340	n/a	n/a	1	n/a	0	0	0	0.57763671875	0.412841796875	1	lower	zerothre.ttf
1484992	START	n/a	LTP082	ltpFR	13	n/a	n/a	n/a	n/a	n/a	n/a	n/a	n/a	n/a	n/a	n/a	n/a	n/a	n/a	n/a	n/a
1485818	PROB	n/a	LTP082	ltpFR	13	n/a	n/a	n/a	n/a	n/a	n/a	n/a	9	3	3	3	n/a	n/a	n/a	n/a	n/a
1487234	PROB	n/a	LTP082	ltpFR	13	n/a	n/a	n/a	n/a	n/a	n/a	n/a	20	9	8	3	n/a	n/a	n/a	n/a	n/a
1489767	PROB	n/a	LTP082	ltpFR	13	n/a	n/a	n/a	n/a	n/a	n/a	n/a	11	2	2	7	n/a	n/a	n/a	n/a	n/a
1492992	STOP	n/a	LTP082	ltpFR	13	n/a	n/a	n/a	n/a	n/a	n/a	n/a	n/a	n/a	n/a	n/a	n/a	n/a	n/a	n/a	n/a
1494075	WORD	wordpools/wasnorm_wordpool.txt	LTP082	ltpFR	13	7	1	PUBLISHER	1137	n/a	n/a	1	n/a	0	0	0	0.57763671875	0.412841796875	1	lower	zerothre.ttf
1497084	START	n/a	LTP082	ltpFR	13	n/a	n/a	n/a	n/a	n/a	n/a	n/a	n/a	n/a	n/a	n/a	n/a	n/a	n/a	n/a	n/a
1498267	PROB	n/a	LTP082	ltpFR	13	n/a	n/a	n/a	n/a	n/a	n/a	n/a	18	4	9	5	n/a	n/a	n/a	n/a	n/a
1499642	PROB	n/a	LTP082	ltpFR	13	n/a	n/a	n/a	n/a	n/a	n/a	n/a	14	8	4	2	n/a	n/a	n/a	n/a	n/a
1501283	PROB	n/a	LTP082	ltpFR	13	n/a	n/a	n/a	n/a	n/a	n/a	n/a	7	1	3	3	n/a	n/a	n/a	n/a	n/a
1502558	PROB	n/a	LTP082	ltpFR	13	n/a	n/a	n/a	n/a	n/a	n/a	n/a	6	3	2	1	n/a	n/a	n/a	n/a	n/a
1503558	PROB	n/a	LTP082	ltpFR	13	n/a	n/a	n/a	n/a	n/a	n/a	n/a	17	8	4	5	n/a	n/a	n/a	n/a	n/a
1505038	STOP	n/a	LTP082	ltpFR	13	n/a	n/a	n/a	n/a	n/a	n/a	n/a	n/a	n/a	n/a	n/a	n/a	n/a	n/a	n/a	n/a
1505932	WORD	wordpools/wasnorm_wordpool.txt	LTP082	ltpFR	13	7	1	POLITICIAN	1099	n/a	n/a	1	n/a	0	0	0	0.57763671875	0.412841796875	1	lower	zerothre.ttf
1508940	START	n/a	LTP082	ltpFR	13	n/a	n/a	n/a	n/a	n/a	n/a	n/a	n/a	n/a	n/a	n/a	n/a	n/a	n/a	n/a	n/a
1509915	PROB	n/a	LTP082	ltpFR	13	n/a	n/a	n/a	n/a	n/a	n/a	n/a	12	6	4	2	n/a	n/a	n/a	n/a	n/a
1511357	PROB	n/a	LTP082	ltpFR	13	n/a	n/a	n/a	n/a	n/a	n/a	n/a	9	3	3	3	n/a	n/a	n/a	n/a	n/a
1512441	PROB	n/a	LTP082	ltpFR	13	n/a	n/a	n/a	n/a	n/a	n/a	n/a	13	6	1	6	n/a	n/a	n/a	n/a	n/a
1513716	PROB	n/a	LTP082	ltpFR	13	n/a	n/a	n/a	n/a	n/a	n/a	n/a	14	3	2	9	n/a	n/a	n/a	n/a	n/a
1516940	STOP	n/a	LTP082	ltpFR	13	n/a	n/a	n/a	n/a	n/a	n/a	n/a	n/a	n/a	n/a	n/a	n/a	n/a	n/a	n/a	n/a
1518107	WORD	wordpools/wasnorm_wordpool.txt	LTP082	ltpFR	13	7	1	TYPEWRITER	1531	n/a	n/a	1	n/a	0	0	0	0.57763671875	0.412841796875	1	lower	zerothre.ttf
1521115	START	n/a	LTP082	ltpFR	13	n/a	n/a	n/a	n/a	n/a	n/a	n/a	n/a	n/a	n/a	n/a	n/a	n/a	n/a	n/a	n/a
1521939	PROB	n/a	LTP082	ltpFR	13	n/a	n/a	n/a	n/a	n/a	n/a	n/a	15	7	5	3	n/a	n/a	n/a	n/a	n/a
1523897	PROB	n/a	LTP082	ltpFR	13	n/a	n/a	n/a	n/a	n/a	n/a	n/a	13	7	3	3	n/a	n/a	n/a	n/a	n/a
1525698	PROB	n/a	LTP082	ltpFR	13	n/a	n/a	n/a	n/a	n/a	n/a	n/a	13	7	1	5	n/a	n/a	n/a	n/a	n/a
1528335	STOP	n/a	LTP082	ltpFR	13	n/a	n/a	n/a	n/a	n/a	n/a	n/a	n/a	n/a	n/a	n/a	n/a	n/a	n/a	n/a	n/a
1529988	WORD	wordpools/wasnorm_wordpool.txt	LTP082	ltpFR	13	7	1	SHEPHERD	1283	n/a	n/a	1	n/a	0	0	0	0.57763671875	0.412841796875	1	lower	zerothre.ttf
1532997	START	n/a	LTP082	ltpFR	13	n/a	n/a	n/a	n/a	n/a	n/a	n/a	n/a	n/a	n/a	n/a	n/a	n/a	n/a	n/a	n/a
1534089	PROB	n/a	LTP082	ltpFR	13	n/a	n/a	n/a	n/a	n/a	n/a	n/a	14	9	2	3	n/a	n/a	n/a	n/a	n/a
1535938	PROB	n/a	LTP082	ltpFR	13	n/a	n/a	n/a	n/a	n/a	n/a	n/a	14	1	9	4	n/a	n/a	n/a	n/a	n/a
1537004	PROB	n/a	LTP082	ltpFR	13	n/a	n/a	n/a	n/a	n/a	n/a	n/a	17	7	9	1	n/a	n/a	n/a	n/a	n/a
1538430	PROB	n/a	LTP082	ltpFR	13	n/a	n/a	n/a	n/a	n/a	n/a	n/a	23	9	6	8	n/a	n/a	n/a	n/a	n/a
1540351	STOP	n/a	LTP082	ltpFR	13	n/a	n/a	n/a	n/a	n/a	n/a	n/a	n/a	n/a	n/a	n/a	n/a	n/a	n/a	n/a	n/a
1541929	WORD	wordpools/wasnorm_wordpool.txt	LTP082	ltpFR	13	7	1	SHORE	1291	n/a	n/a	0	n/a	0	0	0	0.57763671875	0.412841796875	1	lower	zerothre.ttf
1544938	START	n/a	LTP082	ltpFR	13	n/a	n/a	n/a	n/a	n/a	n/a	n/a	n/a	n/a	n/a	n/a	n/a	n/a	n/a	n/a	n/a
1546080	PROB	n/a	LTP082	ltpFR	13	n/a	n/a	n/a	n/a	n/a	n/a	n/a	10	1	1	8	n/a	n/a	n/a	n/a	n/a
1547455	PROB	n/a	LTP082	ltpFR	13	n/a	n/a	n/a	n/a	n/a	n/a	n/a	14	4	2	8	n/a	n/a	n/a	n/a	n/a
1549196	PROB	n/a	LTP082	ltpFR	13	n/a	n/a	n/a	n/a	n/a	n/a	n/a	13	5	2	6	n/a	n/a	n/a	n/a	n/a
1551154	PROB	n/a	LTP082	ltpFR	13	n/a	n/a	n/a	n/a	n/a	n/a	n/a	5	1	1	3	n/a	n/a	n/a	n/a	n/a
1552463	STOP	n/a	LTP082	ltpFR	13	n/a	n/a	n/a	n/a	n/a	n/a	n/a	n/a	n/a	n/a	n/a	n/a	n/a	n/a	n/a	n/a
1554088	WORD	wordpools/wasnorm_wordpool.txt	LTP082	ltpFR	13	7	1	WINE	1613	n/a	n/a	0	n/a	0	0	0	0.57763671875	0.412841796875	1	lower	zerothre.ttf
1557096	START	n/a	LTP082	ltpFR	13	n/a	n/a	n/a	n/a	n/a	n/a	n/a	n/a	n/a	n/a	n/a	n/a	n/a	n/a	n/a	n/a
1558245	PROB	n/a	LTP082	ltpFR	13	n/a	n/a	n/a	n/a	n/a	n/a	n/a	18	8	1	9	n/a	n/a	n/a	n/a	n/a
1559820	PROB	n/a	LTP082	ltpFR	13	n/a	n/a	n/a	n/a	n/a	n/a	n/a	16	6	6	4	n/a	n/a	n/a	n/a	n/a
1561487	PROB	n/a	LTP082	ltpFR	13	n/a	n/a	n/a	n/a	n/a	n/a	n/a	16	5	9	2	n/a	n/a	n/a	n/a	n/a
1563162	PROB	n/a	LTP082	ltpFR	13	n/a	n/a	n/a	n/a	n/a	n/a	n/a	16	8	7	1	n/a	n/a	n/a	n/a	n/a
1564495	STOP	n/a	LTP082	ltpFR	13	n/a	n/a	n/a	n/a	n/a	n/a	n/a	n/a	n/a	n/a	n/a	n/a	n/a	n/a	n/a	n/a
1565944	WORD	wordpools/wasnorm_wordpool.txt	LTP082	ltpFR	13	7	1	BEAD	103	n/a	n/a	0	n/a	0	0	0	0.57763671875	0.412841796875	1	lower	zerothre.ttf
1568952	START	n/a	LTP082	ltpFR	13	n/a	n/a	n/a	n/a	n/a	n/a	n/a	n/a	n/a	n/a	n/a	n/a	n/a	n/a	n/a	n/a
1570095	PROB	n/a	LTP082	ltpFR	13	n/a	n/a	n/a	n/a	n/a	n/a	n/a	23	9	8	6	n/a	n/a	n/a	n/a	n/a
1571620	PROB	n/a	LTP082	ltpFR	13	n/a	n/a	n/a	n/a	n/a	n/a	n/a	12	2	5	5	n/a	n/a	n/a	n/a	n/a
1572719	PROB	n/a	LTP082	ltpFR	13	n/a	n/a	n/a	n/a	n/a	n/a	n/a	19	6	7	6	n/a	n/a	n/a	n/a	n/a
1574419	PROB	n/a	LTP082	ltpFR	13	n/a	n/a	n/a	n/a	n/a	n/a	n/a	16	7	8	1	n/a	n/a	n/a	n/a	n/a
1576279	STOP	n/a	LTP082	ltpFR	13	n/a	n/a	n/a	n/a	n/a	n/a	n/a	n/a	n/a	n/a	n/a	n/a	n/a	n/a	n/a	n/a
1577876	WORD	wordpools/wasnorm_wordpool.txt	LTP082	ltpFR	13	7	1	CHIME	300	n/a	n/a	0	n/a	0	0	0	0.57763671875	0.412841796875	1	lower	zerothre.ttf
1580885	START	n/a	LTP082	ltpFR	13	n/a	n/a	n/a	n/a	n/a	n/a	n/a	n/a	n/a	n/a	n/a	n/a	n/a	n/a	n/a	n/a
1581893	PROB	n/a	LTP082	ltpFR	13	n/a	n/a	n/a	n/a	n/a	n/a	n/a	11	8	1	2	n/a	n/a	n/a	n/a	n/a
1583185	PROB	n/a	LTP082	ltpFR	13	n/a	n/a	n/a	n/a	n/a	n/a	n/a	15	5	5	5	n/a	n/a	n/a	n/a	n/a
1584377	PROB	n/a	LTP082	ltpFR	13	n/a	n/a	n/a	n/a	n/a	n/a	n/a	12	3	3	6	n/a	n/a	n/a	n/a	n/a
1585909	PROB	n/a	LTP082	ltpFR	13	n/a	n/a	n/a	n/a	n/a	n/a	n/a	19	9	3	7	n/a	n/a	n/a	n/a	n/a
1587327	PROB	n/a	LTP082	ltpFR	13	n/a	n/a	n/a	n/a	n/a	n/a	n/a	1	7	3	9	n/a	n/a	n/a	n/a	n/a
1588207	STOP	n/a	LTP082	ltpFR	13	n/a	n/a	n/a	n/a	n/a	n/a	n/a	n/a	n/a	n/a	n/a	n/a	n/a	n/a	n/a	n/a
1589776	WORD	wordpools/wasnorm_wordpool.txt	LTP082	ltpFR	13	7	1	COW	393	n/a	n/a	1	n/a	0	0	0	0.57763671875	0.412841796875	1	lower	zerothre.ttf
1592776	START	n/a	LTP082	ltpFR	13	n/a	n/a	n/a	n/a	n/a	n/a	n/a	n/a	n/a	n/a	n/a	n/a	n/a	n/a	n/a	n/a
1593818	PROB	n/a	LTP082	ltpFR	13	n/a	n/a	n/a	n/a	n/a	n/a	n/a	12	3	2	7	n/a	n/a	n/a	n/a	n/a
1596101	PROB	n/a	LTP082	ltpFR	13	n/a	n/a	n/a	n/a	n/a	n/a	n/a	7	1	4	2	n/a	n/a	n/a	n/a	n/a
1600776	STOP	n/a	LTP082	ltpFR	13	n/a	n/a	n/a	n/a	n/a	n/a	n/a	n/a	n/a	n/a	n/a	n/a	n/a	n/a	n/a	n/a
1602618	REC_START	n/a	LTP082	ltpFR	13	7	n/a	n/a	n/a	n/a	n/a	n/a	n/a	0	0	0	n/a	n/a	n/a	n/a	n/a
1604314	REC_WORD	wordpools/wasnorm_wordpool.txt	LTP082	ltpFR	13	7	1	COW	393	n/a	n/a	1	n/a	0	0	0	n/a	n/a	n/a	n/a	n/a
1609308	REC_WORD	wordpools/wasnorm_wordpool.txt	LTP082	ltpFR	13	7	1	NET	946	n/a	n/a	0	n/a	0	0	0	n/a	n/a	n/a	n/a	n/a
1615030	REC_WORD	wordpools/wasnorm_wordpool.txt	LTP082	ltpFR	13	7	1	COD	340	n/a	n/a	1	n/a	0	0	0	n/a	n/a	n/a	n/a	n/a
1624982	REC_WORD	wordpools/wasnorm_wordpool.txt	LTP082	ltpFR	13	7	1	TYPEWRITER	1531	n/a	n/a	1	n/a	0	0	0	n/a	n/a	n/a	n/a	n/a
1639145	REC_WORD	wordpools/wasnorm_wordpool.txt	LTP082	ltpFR	13	7	1	PAPER	1011	n/a	n/a	0	n/a	0	0	0	n/a	n/a	n/a	n/a	n/a
1663594	REC_WORD	wordpools/wasnorm_wordpool.txt	LTP082	ltpFR	13	7	1	BEAD	103	n/a	n/a	0	n/a	0	0	0	n/a	n/a	n/a	n/a	n/a
1682303	WORD	wordpools/wasnorm_wordpool.txt	LTP082	ltpFR	13	8	0	TAXI	1438	n/a	n/a	1	n/a	0	0	0	0.422607421875	0.5869140625	0	upper	amplitud.ttf
1686153	WORD	wordpools/wasnorm_wordpool.txt	LTP082	ltpFR	13	8	0	ORCHESTRA	981	n/a	n/a	1	n/a	0	0	0	0.422607421875	0.5869140625	0	upper	amplitud.ttf
1690044	WORD	wordpools/wasnorm_wordpool.txt	LTP082	ltpFR	13	8	0	CONCERT	360	n/a	n/a	1	n/a	0	0	0	0.422607421875	0.5869140625	0	upper	amplitud.ttf
1694127	WORD	wordpools/wasnorm_wordpool.txt	LTP082	ltpFR	13	8	0	DASHBOARD	441	n/a	n/a	1	n/a	0	0	0	0.422607421875	0.5869140625	0	upper	amplitud.ttf
1698077	WORD	wordpools/wasnorm_wordpool.txt	LTP082	ltpFR	13	8	0	SKETCH	1315	n/a	n/a	0	n/a	0	0	0	0.422607421875	0.5869140625	0	upper	amplitud.ttf
1701950	WORD	wordpools/wasnorm_wordpool.txt	LTP082	ltpFR	13	8	0	RAKE	1164	n/a	n/a	1	n/a	0	0	0	0.422607421875	0.5869140625	0	upper	amplitud.ttf
1705950	WORD	wordpools/wasnorm_wordpool.txt	LTP082	ltpFR	13	8	0	SEED	1266	n/a	n/a	0	n/a	0	0	0	0.422607421875	0.5869140625	0	upper	amplitud.ttf
1709916	WORD	wordpools/wasnorm_wordpool.txt	LTP082	ltpFR	13	8	0	SPINACH	1352	n/a	n/a	0	n/a	0	0	0	0.422607421875	0.5869140625	0	upper	amplitud.ttf
1713817	WORD	wordpools/wasnorm_wordpool.txt	LTP082	ltpFR	13	8	0	TIE	1466	n/a	n/a	0	n/a	0	0	0	0.422607421875	0.5869140625	0	upper	amplitud.ttf
1717784	WORD	wordpools/wasnorm_wordpool.txt	LTP082	ltpFR	13	8	0	SCENERY	1247	n/a	n/a	1	n/a	0	0	0	0.422607421875	0.5869140625	0	upper	amplitud.ttf
1721792	WORD	wordpools/wasnorm_wordpool.txt	LTP082	ltpFR	13	8	0	LANDSCAPE	799	n/a	n/a	1	n/a	0	0	0	0.422607421875	0.5869140625	0	upper	amplitud.ttf
1725850	WORD	wordpools/wasnorm_wordpool.txt	LTP082	ltpFR	13	8	0	SIGNATURE	1306	n/a	n/a	0	n/a	0	0	0	0.422607421875	0.5869140625	0	upper	amplitud.ttf
1729940	WORD	wordpools/wasnorm_wordpool.txt	LTP082	ltpFR	13	8	0	DECK	443	n/a	n/a	0	n/a	0	0	0	0.422607421875	0.5869140625	0	upper	amplitud.ttf
1733948	WORD	wordpools/wasnorm_wordpool.txt	LTP082	ltpFR	13	8	0	MUSEUM	933	n/a	n/a	1	n/a	0	0	0	0.422607421875	0.5869140625	0	upper	amplitud.ttf
1737981	WORD	wordpools/wasnorm_wordpool.txt	LTP082	ltpFR	13	8	0	FLEA	577	n/a	n/a	0	n/a	0	0	0	0.422607421875	0.5869140625	0	upper	amplitud.ttf
1742022	WORD	wordpools/wasnorm_wordpool.txt	LTP082	ltpFR	13	8	0	UNDERWEAR	1537	n/a	n/a	0	n/a	0	0	0	0.422607421875	0.5869140625	0	upper	amplitud.ttf
1745022	START	n/a	LTP082	ltpFR	13	n/a	n/a	n/a	n/a	n/a	n/a	n/a	n/a	n/a	n/a	n/a	n/a	n/a	n/a	n/a	n/a
1745880	PROB	n/a	LTP082	ltpFR	13	n/a	n/a	n/a	n/a	n/a	n/a	n/a	11	4	3	4	n/a	n/a	n/a	n/a	n/a
1747590	PROB	n/a	LTP082	ltpFR	13	n/a	n/a	n/a	n/a	n/a	n/a	n/a	6	6	2	1	n/a	n/a	n/a	n/a	n/a
1749831	PROB	n/a	LTP082	ltpFR	13	n/a	n/a	n/a	n/a	n/a	n/a	n/a	17	3	5	9	n/a	n/a	n/a	n/a	n/a
1751439	PROB	n/a	LTP082	ltpFR	13	n/a	n/a	n/a	n/a	n/a	n/a	n/a	25	9	7	8	n/a	n/a	n/a	n/a	n/a
1754597	PROB	n/a	LTP082	ltpFR	13	n/a	n/a	n/a	n/a	n/a	n/a	n/a	19	1	9	9	n/a	n/a	n/a	n/a	n/a
1756156	PROB	n/a	LTP082	ltpFR	13	n/a	n/a	n/a	n/a	n/a	n/a	n/a	13	7	3	3	n/a	n/a	n/a	n/a	n/a
1757572	PROB	n/a	LTP082	ltpFR	13	n/a	n/a	n/a	n/a	n/a	n/a	n/a	16	2	6	8	n/a	n/a	n/a	n/a	n/a
1758871	PROB	n/a	LTP082	ltpFR	13	n/a	n/a	n/a	n/a	n/a	n/a	n/a	5	2	1	2	n/a	n/a	n/a	n/a	n/a
1759862	STOP	n/a	LTP082	ltpFR	13	n/a	n/a	n/a	n/a	n/a	n/a	n/a	n/a	n/a	n/a	n/a	n/a	n/a	n/a	n/a	n/a
1762806	REC_START	n/a	LTP082	ltpFR	13	8	n/a	n/a	n/a	n/a	n/a	n/a	n/a	0	0	0	n/a	n/a	n/a	n/a	n/a
1765250	REC_WORD	wordpools/wasnorm_wordpool.txt	LTP082	ltpFR	13	8	0	RAKE	1164	n/a	n/a	1	n/a	0	0	0	n/a	n/a	n/a	n/a	n/a
1766453	REC_WORD	wordpools/wasnorm_wordpool.txt	LTP082	ltpFR	13	8	0	SEED	1266	n/a	n/a	0	n/a	0	0	0	n/a	n/a	n/a	n/a	n/a
1767710	REC_WORD	wordpools/wasnorm_wordpool.txt	LTP082	ltpFR	13	8	0	SIGNATURE	1306	n/a	n/a	0	n/a	0	0	0	n/a	n/a	n/a	n/a	n/a
1769500	REC_WORD	wordpools/wasnorm_wordpool.txt	LTP082	ltpFR	13	8	0	FLEA	577	n/a	n/a	0	n/a	0	0	0	n/a	n/a	n/a	n/a	n/a
1771496	REC_WORD	wordpools/wasnorm_wordpool.txt	LTP082	ltpFR	13	8	0	UNDERWEAR	1537	n/a	n/a	0	n/a	0	0	0	n/a	n/a	n/a	n/a	n/a
1775991	REC_WORD	wordpools/wasnorm_wordpool.txt	LTP082	ltpFR	13	8	0	TAXI	1438	n/a	n/a	1	n/a	0	0	0	n/a	n/a	n/a	n/a	n/a
1800341	REC_WORD	wordpools/wasnorm_wordpool.txt	LTP082	ltpFR	13	8	0	DECK	443	n/a	n/a	0	n/a	0	0	0	n/a	n/a	n/a	n/a	n/a
1824695	REC_WORD	wordpools/wasnorm_wordpool.txt	LTP082	ltpFR	13	8	0	LANDSCAPE	799	n/a	n/a	1	n/a	0	0	0	n/a	n/a	n/a	n/a	n/a
1826012	REC_WORD	wordpools/wasnorm_wordpool.txt	LTP082	ltpFR	13	8	0	SCENERY	1247	n/a	n/a	1	n/a	0	0	0	n/a	n/a	n/a	n/a	n/a
1835326	REC_WORD	wordpools/wasnorm_wordpool.txt	LTP082	ltpFR	13	8	0	ORCHESTRA	981	n/a	n/a	1	n/a	0	0	0	n/a	n/a	n/a	n/a	n/a
1836548	REC_WORD	wordpools/wasnorm_wordpool.txt	LTP082	ltpFR	13	8	0	CONCERT	360	n/a	n/a	1	n/a	0	0	0	n/a	n/a	n/a	n/a	n/a
1844907	START	n/a	LTP082	ltpFR	13	n/a	n/a	n/a	n/a	n/a	n/a	n/a	n/a	n/a	n/a	n/a	n/a	n/a	n/a	n/a	n/a
1846407	PROB	n/a	LTP082	ltpFR	13	n/a	n/a	n/a	n/a	n/a	n/a	n/a	21	9	8	5	n/a	n/a	n/a	n/a	n/a
1848249	PROB	n/a	LTP082	ltpFR	13	n/a	n/a	n/a	n/a	n/a	n/a	n/a	12	6	4	2	n/a	n/a	n/a	n/a	n/a
1850099	PROB	n/a	LTP082	ltpFR	13	n/a	n/a	n/a	n/a	n/a	n/a	n/a	13	6	6	1	n/a	n/a	n/a	n/a	n/a
1851864	PROB	n/a	LTP082	ltpFR	13	n/a	n/a	n/a	n/a	n/a	n/a	n/a	25	8	7	9	n/a	n/a	n/a	n/a	n/a
1854065	PROB	n/a	LTP082	ltpFR	13	n/a	n/a	n/a	n/a	n/a	n/a	n/a	20	6	8	6	n/a	n/a	n/a	n/a	n/a
1857231	PROB	n/a	LTP082	ltpFR	13	n/a	n/a	n/a	n/a	n/a	n/a	n/a	24	9	6	9	n/a	n/a	n/a	n/a	n/a
1860906	STOP	n/a	LTP082	ltpFR	13	n/a	n/a	n/a	n/a	n/a	n/a	n/a	n/a	n/a	n/a	n/a	n/a	n/a	n/a	n/a	n/a
1861888	WORD	wordpools/wasnorm_wordpool.txt	LTP082	ltpFR	13	9	0	SPRINKLE	1359	n/a	n/a	0	n/a	0	0	0	0.422607421875	0.5869140625	0	upper	amplitud.ttf
1864889	START	n/a	LTP082	ltpFR	13	n/a	n/a	n/a	n/a	n/a	n/a	n/a	n/a	n/a	n/a	n/a	n/a	n/a	n/a	n/a	n/a
1866081	PROB	n/a	LTP082	ltpFR	13	n/a	n/a	n/a	n/a	n/a	n/a	n/a	16	2	5	9	n/a	n/a	n/a	n/a	n/a
1867880	PROB	n/a	LTP082	ltpFR	13	n/a	n/a	n/a	n/a	n/a	n/a	n/a	19	8	4	7	n/a	n/a	n/a	n/a	n/a
1869830	PROB	n/a	LTP082	ltpFR	13	n/a	n/a	n/a	n/a	n/a	n/a	n/a	11	5	5	1	n/a	n/a	n/a	n/a	n/a
1870822	PROB	n/a	LTP082	ltpFR	13	n/a	n/a	n/a	n/a	n/a	n/a	n/a	21	8	4	9	n/a	n/a	n/a	n/a	n/a
1872747	PROB	n/a	LTP082	ltpFR	13	n/a	n/a	n/a	n/a	n/a	n/a	n/a	15	1	8	6	n/a	n/a	n/a	n/a	n/a
1874672	PROB	n/a	LTP082	ltpFR	13	n/a	n/a	n/a	n/a	n/a	n/a	n/a	17	6	9	2	n/a	n/a	n/a	n/a	n/a
1876697	PROB	n/a	LTP082	ltpFR	13	n/a	n/a	n/a	n/a	n/a	n/a	n/a	13	6	3	4	n/a	n/a	n/a	n/a	n/a
1878188	PROB	n/a	LTP082	ltpFR	13	n/a	n/a	n/a	n/a	n/a	n/a	n/a	19	6	5	8	n/a	n/a	n/a	n/a	n/a
1879503	STOP	n/a	LTP082	ltpFR	13	n/a	n/a	n/a	n/a	n/a	n/a	n/a	n/a	n/a	n/a	n/a	n/a	n/a	n/a	n/a	n/a
1882046	WORD	wordpools/wasnorm_wordpool.txt	LTP082	ltpFR	13	9	0	FOUNTAIN	597	n/a	n/a	1	n/a	0	0	0	0.422607421875	0.5869140625	0	upper	amplitud.ttf
1885055	START	n/a	LTP082	ltpFR	13	n/a	n/a	n/a	n/a	n/a	n/a	n/a	n/a	n/a	n/a	n/a	n/a	n/a	n/a	n/a	n/a
1885862	PROB	n/a	LTP082	ltpFR	13	n/a	n/a	n/a	n/a	n/a	n/a	n/a	12	2	5	5	n/a	n/a	n/a	n/a	n/a
1887012	PROB	n/a	LTP082	ltpFR	13	n/a	n/a	n/a	n/a	n/a	n/a	n/a	14	4	3	7	n/a	n/a	n/a	n/a	n/a
1888304	PROB	n/a	LTP082	ltpFR	13	n/a	n/a	n/a	n/a	n/a	n/a	n/a	20	9	9	2	n/a	n/a	n/a	n/a	n/a
1889936	PROB	n/a	LTP082	ltpFR	13	n/a	n/a	n/a	n/a	n/a	n/a	n/a	16	4	7	5	n/a	n/a	n/a	n/a	n/a
1892429	PROB	n/a	LTP082	ltpFR	13	n/a	n/a	n/a	n/a	n/a	n/a	n/a	9	3	3	3	n/a	n/a	n/a	n/a	n/a
1893612	PROB	n/a	LTP082	ltpFR	13	n/a	n/a	n/a	n/a	n/a	n/a	n/a	16	7	3	6	n/a	n/a	n/a	n/a	n/a
1895054	PROB	n/a	LTP082	ltpFR	13	n/a	n/a	n/a	n/a	n/a	n/a	n/a	10	2	5	3	n/a	n/a	n/a	n/a	n/a
1896911	PROB	n/a	LTP082	ltpFR	13	n/a	n/a	n/a	n/a	n/a	n/a	n/a	19	8	2	9	n/a	n/a	n/a	n/a	n/a
1898503	PROB	n/a	LTP082	ltpFR	13	n/a	n/a	n/a	n/a	n/a	n/a	n/a	14	4	5	5	n/a	n/a	n/a	n/a	n/a
1899559	STOP	n/a	LTP082	ltpFR	13	n/a	n/a	n/a	n/a	n/a	n/a	n/a	n/a	n/a	n/a	n/a	n/a	n/a	n/a	n/a	n/a
1902027	WORD	wordpools/wasnorm_wordpool.txt	LTP082	ltpFR	13	9	0	CELERY	266	n/a	n/a	0	n/a	0	0	0	0.422607421875	0.5869140625	0	upper	amplitud.ttf
1905036	START	n/a	LTP082	ltpFR	13	n/a	n/a	n/a	n/a	n/a	n/a	n/a	n/a	n/a	n/a	n/a	n/a	n/a	n/a	n/a	n/a
1906161	PROB	n/a	LTP082	ltpFR	13	n/a	n/a	n/a	n/a	n/a	n/a	n/a	5	2	1	2	n/a	n/a	n/a	n/a	n/a
1907228	PROB	n/a	LTP082	ltpFR	13	n/a	n/a	n/a	n/a	n/a	n/a	n/a	20	9	8	3	n/a	n/a	n/a	n/a	n/a
1909369	PROB	n/a	LTP082	ltpFR	13	n/a	n/a	n/a	n/a	n/a	n/a	n/a	18	9	3	6	n/a	n/a	n/a	n/a	n/a
1910752	PROB	n/a	LTP082	ltpFR	13	n/a	n/a	n/a	n/a	n/a	n/a	n/a	15	3	8	4	n/a	n/a	n/a	n/a	n/a
1912627	PROB	n/a	LTP082	ltpFR	13	n/a	n/a	n/a	n/a	n/a	n/a	n/a	19	8	8	3	n/a	n/a	n/a	n/a	n/a
1914319	PROB	n/a	LTP082	ltpFR	13	n/a	n/a	n/a	n/a	n/a	n/a	n/a	21	9	8	4	n/a	n/a	n/a	n/a	n/a
1916009	PROB	n/a	LTP082	ltpFR	13	n/a	n/a	n/a	n/a	n/a	n/a	n/a	23	9	8	6	n/a	n/a	n/a	n/a	n/a
1917802	PROB	n/a	LTP082	ltpFR	13	n/a	n/a	n/a	n/a	n/a	n/a	n/a	8	5	3	1	n/a	n/a	n/a	n/a	n/a
1919735	STOP	n/a	LTP082	ltpFR	13	n/a	n/a	n/a	n/a	n/a	n/a	n/a	n/a	n/a	n/a	n/a	n/a	n/a	n/a	n/a	n/a
1922060	WORD	wordpools/wasnorm_wordpool.txt	LTP082	ltpFR	13	9	0	BRACELET	163	n/a	n/a	0	n/a	0	0	0	0.422607421875	0.5869140625	0	upper	amplitud.ttf
1925068	START	n/a	LTP082	ltpFR	13	n/a	n/a	n/a	n/a	n/a	n/a	n/a	n/a	n/a	n/a	n/a	n/a	n/a	n/a	n/a	n/a
1926143	PROB	n/a	LTP082	ltpFR	13	n/a	n/a	n/a	n/a	n/a	n/a	n/a	11	3	4	4	n/a	n/a	n/a	n/a	n/a
1927925	PROB	n/a	LTP082	ltpFR	13	n/a	n/a	n/a	n/a	n/a	n/a	n/a	19	6	8	5	n/a	n/a	n/a	n/a	n/a
1929933	PROB	n/a	LTP082	ltpFR	13	n/a	n/a	n/a	n/a	n/a	n/a	n/a	11	3	5	3	n/a	n/a	n/a	n/a	n/a
1931417	PROB	n/a	LTP082	ltpFR	13	n/a	n/a	n/a	n/a	n/a	n/a	n/a	19	6	6	7	n/a	n/a	n/a	n/a	n/a
1933517	PROB	n/a	LTP082	ltpFR	13	n/a	n/a	n/a	n/a	n/a	n/a	n/a	15	7	3	5	n/a	n/a	n/a	n/a	n/a
1934983	PROB	n/a	LTP082	ltpFR	13	n/a	n/a	n/a	n/a	n/a	n/a	n/a	16	3	5	8	n/a	n/a	n/a	n/a	n/a
1936525	PROB	n/a	LTP082	ltpFR	13	n/a	n/a	n/a	n/a	n/a	n/a	n/a	24	9	9	6	n/a	n/a	n/a	n/a	n/a
1938425	PROB	n/a	LTP082	ltpFR	13	n/a	n/a	n/a	n/a	n/a	n/a	n/a	15	5	9	1	n/a	n/a	n/a	n/a	n/a
1939735	STOP	n/a	LTP082	ltpFR	13	n/a	n/a	n/a	n/a	n/a	n/a	n/a	n/a	n/a	n/a	n/a	n/a	n/a	n/a	n/a	n/a
1942275	WORD	wordpools/wasnorm_wordpool.txt	LTP082	ltpFR	13	9	0	TULIP	1517	n/a	n/a	1	n/a	0	0	0	0.422607421875	0.5869140625	0	upper	amplitud.ttf
1945283	START	n/a	LTP082	ltpFR	13	n/a	n/a	n/a	n/a	n/a	n/a	n/a	n/a	n/a	n/a	n/a	n/a	n/a	n/a	n/a	n/a
1946275	PROB	n/a	LTP082	ltpFR	13	n/a	n/a	n/a	n/a	n/a	n/a	n/a	21	9	9	3	n/a	n/a	n/a	n/a	n/a
1947874	PROB	n/a	LTP082	ltpFR	13	n/a	n/a	n/a	n/a	n/a	n/a	n/a	23	6	9	8	n/a	n/a	n/a	n/a	n/a
1951133	PROB	n/a	LTP082	ltpFR	13	n/a	n/a	n/a	n/a	n/a	n/a	n/a	10	1	2	7	n/a	n/a	n/a	n/a	n/a
1952733	PROB	n/a	LTP082	ltpFR	13	n/a	n/a	n/a	n/a	n/a	n/a	n/a	21	9	8	5	n/a	n/a	n/a	n/a	n/a
1954816	PROB	n/a	LTP082	ltpFR	13	n/a	n/a	n/a	n/a	n/a	n/a	n/a	9	1	1	7	n/a	n/a	n/a	n/a	n/a
1956274	PROB	n/a	LTP082	ltpFR	13	n/a	n/a	n/a	n/a	n/a	n/a	n/a	17	7	3	7	n/a	n/a	n/a	n/a	n/a
1957582	PROB	n/a	LTP082	ltpFR	13	n/a	n/a	n/a	n/a	n/a	n/a	n/a	14	2	9	3	n/a	n/a	n/a	n/a	n/a
1959982	STOP	n/a	LTP082	ltpFR	13	n/a	n/a	n/a	n/a	n/a	n/a	n/a	n/a	n/a	n/a	n/a	n/a	n/a	n/a	n/a	n/a
1962165	WORD	wordpools/wasnorm_wordpool.txt	LTP082	ltpFR	13	9	0	CIGAR	308	n/a	n/a	0	n/a	0	0	0	0.422607421875	0.5869140625	0	upper	amplitud.ttf
1965174	START	n/a	LTP082	ltpFR	13	n/a	n/a	n/a	n/a	n/a	n/a	n/a	n/a	n/a	n/a	n/a	n/a	n/a	n/a	n/a	n/a
1966365	PROB	n/a	LTP082	ltpFR	13	n/a	n/a	n/a	n/a	n/a	n/a	n/a	14	1	6	7	n/a	n/a	n/a	n/a	n/a
1967798	PROB	n/a	LTP082	ltpFR	13	n/a	n/a	n/a	n/a	n/a	n/a	n/a	13	6	4	3	n/a	n/a	n/a	n/a	n/a
1969348	PROB	n/a	LTP082	ltpFR	13	n/a	n/a	n/a	n/a	n/a	n/a	n/a	21	6	6	9	n/a	n/a	n/a	n/a	n/a
1971231	PROB	n/a	LTP082	ltpFR	13	n/a	n/a	n/a	n/a	n/a	n/a	n/a	10	4	2	4	n/a	n/a	n/a	n/a	n/a
1973714	PROB	n/a	LTP082	ltpFR	13	n/a	n/a	n/a	n/a	n/a	n/a	n/a	13	4	7	2	n/a	n/a	n/a	n/a	n/a
1975273	PROB	n/a	LTP082	ltpFR	13	n/a	n/a	n/a	n/a	n/a	n/a	n/a	16	7	6	3	n/a	n/a	n/a	n/a	n/a
1977631	PROB	n/a	LTP082	ltpFR	13	n/a	n/a	n/a	n/a	n/a	n/a	n/a	15	4	8	3	n/a	n/a	n/a	n/a	n/a
1979156	PROB	n/a	LTP082	ltpFR	13	n/a	n/a	n/a	n/a	n/a	n/a	n/a	16	8	7	1	n/a	n/a	n/a	n/a	n/a
1980279	STOP	n/a	LTP082	ltpFR	13	n/a	n/a	n/a	n/a	n/a	n/a	n/a	n/a	n/a	n/a	n/a	n/a	n/a	n/a	n/a	n/a
1982055	WORD	wordpools/wasnorm_wordpool.txt	LTP082	ltpFR	13	9	1	GYMNAST	675	n/a	n/a	1	n/a	0	0	0	0.57763671875	0.412841796875	1	lower	zerothre.ttf
1985056	START	n/a	LTP082	ltpFR	13	n/a	n/a	n/a	n/a	n/a	n/a	n/a	n/a	n/a	n/a	n/a	n/a	n/a	n/a	n/a	n/a
1986222	PROB	n/a	LTP082	ltpFR	13	n/a	n/a	n/a	n/a	n/a	n/a	n/a	18	8	1	9	n/a	n/a	n/a	n/a	n/a
1987330	PROB	n/a	LTP082	ltpFR	13	n/a	n/a	n/a	n/a	n/a	n/a	n/a	19	9	2	8	n/a	n/a	n/a	n/a	n/a
1989113	PROB	n/a	LTP082	ltpFR	13	n/a	n/a	n/a	n/a	n/a	n/a	n/a	15	2	9	4	n/a	n/a	n/a	n/a	n/a
1991271	PROB	n/a	LTP082	ltpFR	13	n/a	n/a	n/a	n/a	n/a	n/a	n/a	22	8	6	8	n/a	n/a	n/a	n/a	n/a
1993546	PROB	n/a	LTP082	ltpFR	13	n/a	n/a	n/a	n/a	n/a	n/a	n/a	11	3	7	1	n/a	n/a	n/a	n/a	n/a
1994713	PROB	n/a	LTP082	ltpFR	13	n/a	n/a	n/a	n/a	n/a	n/a	n/a	12	6	2	4	n/a	n/a	n/a	n/a	n/a
1996862	PROB	n/a	LTP082	ltpFR	13	n/a	n/a	n/a	n/a	n/a	n/a	n/a	15	1	5	9	n/a	n/a	n/a	n/a	n/a
1998462	PROB	n/a	LTP082	ltpFR	13	n/a	n/a	n/a	n/a	n/a	n/a	n/a	19	9	2	8	n/a	n/a	n/a	n/a	n/a
2000022	STOP	n/a	LTP082	ltpFR	13	n/a	n/a	n/a	n/a	n/a	n/a	n/a	n/a	n/a	n/a	n/a	n/a	n/a	n/a	n/a	n/a
2001870	WORD	wordpools/wasnorm_wordpool.txt	LTP082	ltpFR	13	9	1	REFEREE	1178	n/a	n/a	1	n/a	0	0	0	0.57763671875	0.412841796875	1	lower	zerothre.ttf
2004878	START	n/a	LTP082	ltpFR	13	n/a	n/a	n/a	n/a	n/a	n/a	n/a	n/a	n/a	n/a	n/a	n/a	n/a	n/a	n/a	n/a
2005969	PROB	n/a	LTP082	ltpFR	13	n/a	n/a	n/a	n/a	n/a	n/a	n/a	15	8	2	5	n/a	n/a	n/a	n/a	n/a
2007062	PROB	n/a	LTP082	ltpFR	13	n/a	n/a	n/a	n/a	n/a	n/a	n/a	18	4	5	9	n/a	n/a	n/a	n/a	n/a
2008262	PROB	n/a	LTP082	ltpFR	13	n/a	n/a	n/a	n/a	n/a	n/a	n/a	12	3	5	4	n/a	n/a	n/a	n/a	n/a
2009986	PROB	n/a	LTP082	ltpFR	13	n/a	n/a	n/a	n/a	n/a	n/a	n/a	17	3	9	5	n/a	n/a	n/a	n/a	n/a
2011894	PROB	n/a	LTP082	ltpFR	13	n/a	n/a	n/a	n/a	n/a	n/a	n/a	15	6	5	4	n/a	n/a	n/a	n/a	n/a
2013495	PROB	n/a	LTP082	ltpFR	13	n/a	n/a	n/a	n/a	n/a	n/a	n/a	12	2	3	7	n/a	n/a	n/a	n/a	n/a
2014944	PROB	n/a	LTP082	ltpFR	13	n/a	n/a	n/a	n/a	n/a	n/a	n/a	15	1	8	6	n/a	n/a	n/a	n/a	n/a
2016386	PROB	n/a	LTP082	ltpFR	13	n/a	n/a	n/a	n/a	n/a	n/a	n/a	15	6	2	7	n/a	n/a	n/a	n/a	n/a
2017761	PROB	n/a	LTP082	ltpFR	13	n/a	n/a	n/a	n/a	n/a	n/a	n/a	8	2	2	4	n/a	n/a	n/a	n/a	n/a
2019639	STOP	n/a	LTP082	ltpFR	13	n/a	n/a	n/a	n/a	n/a	n/a	n/a	n/a	n/a	n/a	n/a	n/a	n/a	n/a	n/a	n/a
2021702	WORD	wordpools/wasnorm_wordpool.txt	LTP082	ltpFR	13	9	1	SLIME	1327	n/a	n/a	0	n/a	0	0	0	0.57763671875	0.412841796875	1	lower	zerothre.ttf
2024711	START	n/a	LTP082	ltpFR	13	n/a	n/a	n/a	n/a	n/a	n/a	n/a	n/a	n/a	n/a	n/a	n/a	n/a	n/a	n/a	n/a
2025644	PROB	n/a	LTP082	ltpFR	13	n/a	n/a	n/a	n/a	n/a	n/a	n/a	10	1	3	6	n/a	n/a	n/a	n/a	n/a
2027485	PROB	n/a	LTP082	ltpFR	13	n/a	n/a	n/a	n/a	n/a	n/a	n/a	23	9	9	5	n/a	n/a	n/a	n/a	n/a
2029835	PROB	n/a	LTP082	ltpFR	13	n/a	n/a	n/a	n/a	n/a	n/a	n/a	18	9	5	4	n/a	n/a	n/a	n/a	n/a
2031135	PROB	n/a	LTP082	ltpFR	13	n/a	n/a	n/a	n/a	n/a	n/a	n/a	5	1	1	3	n/a	n/a	n/a	n/a	n/a
2032235	PROB	n/a	LTP082	ltpFR	13	n/a	n/a	n/a	n/a	n/a	n/a	n/a	12	1	2	9	n/a	n/a	n/a	n/a	n/a
2034551	PROB	n/a	LTP082	ltpFR	13	n/a	n/a	n/a	n/a	n/a	n/a	n/a	8	1	3	4	n/a	n/a	n/a	n/a	n/a
2036210	PROB	n/a	LTP082	ltpFR	13	n/a	n/a	n/a	n/a	n/a	n/a	n/a	15	4	6	5	n/a	n/a	n/a	n/a	n/a
2037551	PROB	n/a	LTP082	ltpFR	13	n/a	n/a	n/a	n/a	n/a	n/a	n/a	7	1	1	5	n/a	n/a	n/a	n/a	n/a
2038768	PROB	n/a	LTP082	ltpFR	13	n/a	n/a	n/a	n/a	n/a	n/a	n/a	21	8	5	9	n/a	n/a	n/a	n/a	n/a
2040095	STOP	n/a	LTP082	ltpFR	13	n/a	n/a	n/a	n/a	n/a	n/a	n/a	n/a	n/a	n/a	n/a	n/a	n/a	n/a	n/a	n/a
2041526	WORD	wordpools/wasnorm_wordpool.txt	LTP082	ltpFR	13	9	0	MONSTER	912	n/a	n/a	3	n/a	0	0	0	0.422607421875	0.5869140625	0	upper	amplitud.ttf
2042975	KEY_MSG	n/a	LTP082	ltpFR	13	9	n/a	n/a	n/a	n/a	n/a	n/a	n/a	0	0	0	n/a	n/a	n/a	n/a	n/a
2044534	START	n/a	LTP082	ltpFR	13	n/a	n/a	n/a	n/a	n/a	n/a	n/a	n/a	n/a	n/a	n/a	n/a	n/a	n/a	n/a	n/a
2045409	PROB	n/a	LTP082	ltpFR	13	n/a	n/a	n/a	n/a	n/a	n/a	n/a	17	6	6	5	n/a	n/a	n/a	n/a	n/a
2047475	PROB	n/a	LTP082	ltpFR	13	n/a	n/a	n/a	n/a	n/a	n/a	n/a	9	6	2	1	n/a	n/a	n/a	n/a	n/a
2048966	PROB	n/a	LTP082	ltpFR	13	n/a	n/a	n/a	n/a	n/a	n/a	n/a	24	9	9	6	n/a	n/a	n/a	n/a	n/a
2050525	PROB	n/a	LTP082	ltpFR	13	n/a	n/a	n/a	n/a	n/a	n/a	n/a	8	3	1	5	n/a	n/a	n/a	n/a	n/a
2051767	PROB	n/a	LTP082	ltpFR	13	n/a	n/a	n/a	n/a	n/a	n/a	n/a	14	7	5	2	n/a	n/a	n/a	n/a	n/a
2053833	PROB	n/a	LTP082	ltpFR	13	n/a	n/a	n/a	n/a	n/a	n/a	n/a	15	8	4	3	n/a	n/a	n/a	n/a	n/a
2055225	PROB	n/a	LTP082	ltpFR	13	n/a	n/a	n/a	n/a	n/a	n/a	n/a	10	3	2	5	n/a	n/a	n/a	n/a	n/a
2056533	PROB	n/a	LTP082	ltpFR	13	n/a	n/a	n/a	n/a	n/a	n/a	n/a	10	2	2	6	n/a	n/a	n/a	n/a	n/a
2060534	STOP	n/a	LTP082	ltpFR	13	n/a	n/a	n/a	n/a	n/a	n/a	n/a	n/a	n/a	n/a	n/a	n/a	n/a	n/a	n/a	n/a
2061591	WORD	wordpools/wasnorm_wordpool.txt	LTP082	ltpFR	13	9	0	DETERGENT	455	n/a	n/a	0	n/a	0	0	0	0.422607421875	0.5869140625	0	upper	amplitud.ttf
2064600	START	n/a	LTP082	ltpFR	13	n/a	n/a	n/a	n/a	n/a	n/a	n/a	n/a	n/a	n/a	n/a	n/a	n/a	n/a	n/a	n/a
2065657	PROB	n/a	LTP082	ltpFR	13	n/a	n/a	n/a	n/a	n/a	n/a	n/a	7	2	2	3	n/a	n/a	n/a	n/a	n/a
2067716	PROB	n/a	LTP082	ltpFR	13	n/a	n/a	n/a	n/a	n/a	n/a	n/a	20	5	8	7	n/a	n/a	n/a	n/a	n/a
2069415	PROB	n/a	LTP082	ltpFR	13	n/a	n/a	n/a	n/a	n/a	n/a	n/a	23	8	7	8	n/a	n/a	n/a	n/a	n/a
2073856	PROB	n/a	LTP082	ltpFR	13	n/a	n/a	n/a	n/a	n/a	n/a	n/a	5	1	3	1	n/a	n/a	n/a	n/a	n/a
2074790	PROB	n/a	LTP082	ltpFR	13	n/a	n/a	n/a	n/a	n/a	n/a	n/a	15	7	1	7	n/a	n/a	n/a	n/a	n/a
2075872	PROB	n/a	LTP082	ltpFR	13	n/a	n/a	n/a	n/a	n/a	n/a	n/a	14	2	8	4	n/a	n/a	n/a	n/a	n/a
2078123	PROB	n/a	LTP082	ltpFR	13	n/a	n/a	n/a	n/a	n/a	n/a	n/a	18	8	3	7	n/a	n/a	n/a	n/a	n/a
2079471	STOP	n/a	LTP082	ltpFR	13	n/a	n/a	n/a	n/a	n/a	n/a	n/a	n/a	n/a	n/a	n/a	n/a	n/a	n/a	n/a	n/a
2081498	WORD	wordpools/wasnorm_wordpool.txt	LTP082	ltpFR	13	9	1	CONTRACTOR	369	n/a	n/a	1	n/a	0	0	0	0.57763671875	0.412841796875	1	lower	zerothre.ttf
2084507	START	n/a	LTP082	ltpFR	13	n/a	n/a	n/a	n/a	n/a	n/a	n/a	n/a	n/a	n/a	n/a	n/a	n/a	n/a	n/a	n/a
2085556	PROB	n/a	LTP082	ltpFR	13	n/a	n/a	n/a	n/a	n/a	n/a	n/a	6	3	1	2	n/a	n/a	n/a	n/a	n/a
2087888	PROB	n/a	LTP082	ltpFR	13	n/a	n/a	n/a	n/a	n/a	n/a	n/a	13	7	3	3	n/a	n/a	n/a	n/a	n/a
2089197	PROB	n/a	LTP082	ltpFR	13	n/a	n/a	n/a	n/a	n/a	n/a	n/a	11	8	1	2	n/a	n/a	n/a	n/a	n/a
2091089	PROB	n/a	LTP082	ltpFR	13	n/a	n/a	n/a	n/a	n/a	n/a	n/a	19	5	8	6	n/a	n/a	n/a	n/a	n/a
2092971	PROB	n/a	LTP082	ltpFR	13	n/a	n/a	n/a	n/a	n/a	n/a	n/a	18	4	8	6	n/a	n/a	n/a	n/a	n/a
2094764	PROB	n/a	LTP082	ltpFR	13	n/a	n/a	n/a	n/a	n/a	n/a	n/a	11	3	3	5	n/a	n/a	n/a	n/a	n/a
2096447	PROB	n/a	LTP082	ltpFR	13	n/a	n/a	n/a	n/a	n/a	n/a	n/a	21	7	6	8	n/a	n/a	n/a	n/a	n/a
2097971	PROB	n/a	LTP082	ltpFR	13	n/a	n/a	n/a	n/a	n/a	n/a	n/a	13	2	2	9	n/a	n/a	n/a	n/a	n/a
2099679	STOP	n/a	LTP082	ltpFR	13	n/a	n/a	n/a	n/a	n/a	n/a	n/a	n/a	n/a	n/a	n/a	n/a	n/a	n/a	n/a	n/a
2101321	WORD	wordpools/wasnorm_wordpool.txt	LTP082	ltpFR	13	9	1	SKYSCRAPER	1322	n/a	n/a	0	n/a	0	0	0	0.57763671875	0.412841796875	1	lower	zerothre.ttf
2104322	START	n/a	LTP082	ltpFR	13	n/a	n/a	n/a	n/a	n/a	n/a	n/a	n/a	n/a	n/a	n/a	n/a	n/a	n/a	n/a	n/a
2105429	PROB	n/a	LTP082	ltpFR	13	n/a	n/a	n/a	n/a	n/a	n/a	n/a	21	9	5	7	n/a	n/a	n/a	n/a	n/a
2107054	PROB	n/a	LTP082	ltpFR	13	n/a	n/a	n/a	n/a	n/a	n/a	n/a	18	8	4	6	n/a	n/a	n/a	n/a	n/a
2108296	PROB	n/a	LTP082	ltpFR	13	n/a	n/a	n/a	n/a	n/a	n/a	n/a	23	9	7	7	n/a	n/a	n/a	n/a	n/a
2110562	PROB	n/a	LTP082	ltpFR	13	n/a	n/a	n/a	n/a	n/a	n/a	n/a	15	4	9	2	n/a	n/a	n/a	n/a	n/a
2112337	PROB	n/a	LTP082	ltpFR	13	n/a	n/a	n/a	n/a	n/a	n/a	n/a	14	5	5	4	n/a	n/a	n/a	n/a	n/a
2113529	PROB	n/a	LTP082	ltpFR	13	n/a	n/a	n/a	n/a	n/a	n/a	n/a	16	1	8	7	n/a	n/a	n/a	n/a	n/a
2115036	PROB	n/a	LTP082	ltpFR	13	n/a	n/a	n/a	n/a	n/a	n/a	n/a	12	9	2	1	n/a	n/a	n/a	n/a	n/a
2116554	PROB	n/a	LTP082	ltpFR	13	n/a	n/a	n/a	n/a	n/a	n/a	n/a	18	8	7	3	n/a	n/a	n/a	n/a	n/a
2117828	PROB	n/a	LTP082	ltpFR	13	n/a	n/a	n/a	n/a	n/a	n/a	n/a	13	2	2	9	n/a	n/a	n/a	n/a	n/a
2118870	STOP	n/a	LTP082	ltpFR	13	n/a	n/a	n/a	n/a	n/a	n/a	n/a	n/a	n/a	n/a	n/a	n/a	n/a	n/a	n/a	n/a
2121320	WORD	wordpools/wasnorm_wordpool.txt	LTP082	ltpFR	13	9	1	SKUNK	1321	n/a	n/a	1	n/a	0	0	0	0.57763671875	0.412841796875	1	lower	zerothre.ttf
2124329	START	n/a	LTP082	ltpFR	13	n/a	n/a	n/a	n/a	n/a	n/a	n/a	n/a	n/a	n/a	n/a	n/a	n/a	n/a	n/a	n/a
2125161	PROB	n/a	LTP082	ltpFR	13	n/a	n/a	n/a	n/a	n/a	n/a	n/a	18	6	5	7	n/a	n/a	n/a	n/a	n/a
2127753	PROB	n/a	LTP082	ltpFR	13	n/a	n/a	n/a	n/a	n/a	n/a	n/a	15	1	8	6	n/a	n/a	n/a	n/a	n/a
2129161	PROB	n/a	LTP082	ltpFR	13	n/a	n/a	n/a	n/a	n/a	n/a	n/a	18	9	7	2	n/a	n/a	n/a	n/a	n/a
2130661	PROB	n/a	LTP082	ltpFR	13	n/a	n/a	n/a	n/a	n/a	n/a	n/a	12	9	2	1	n/a	n/a	n/a	n/a	n/a
2132311	PROB	n/a	LTP082	ltpFR	13	n/a	n/a	n/a	n/a	n/a	n/a	n/a	14	4	6	4	n/a	n/a	n/a	n/a	n/a
2133352	PROB	n/a	LTP082	ltpFR	13	n/a	n/a	n/a	n/a	n/a	n/a	n/a	22	7	9	6	n/a	n/a	n/a	n/a	n/a
2136177	PROB	n/a	LTP082	ltpFR	13	n/a	n/a	n/a	n/a	n/a	n/a	n/a	8	5	1	3	n/a	n/a	n/a	n/a	n/a
2140328	STOP	n/a	LTP082	ltpFR	13	n/a	n/a	n/a	n/a	n/a	n/a	n/a	n/a	n/a	n/a	n/a	n/a	n/a	n/a	n/a	n/a
2141177	WORD	wordpools/wasnorm_wordpool.txt	LTP082	ltpFR	13	9	1	METEOR	889	n/a	n/a	2	n/a	0	0	0	0.57763671875	0.412841796875	1	lower	zerothre.ttf
2142152	KEY_MSG	n/a	LTP082	ltpFR	13	9	n/a	n/a	n/a	n/a	n/a	n/a	n/a	0	0	0	n/a	n/a	n/a	n/a	n/a
2144185	START	n/a	LTP082	ltpFR	13	n/a	n/a	n/a	n/a	n/a	n/a	n/a	n/a	n/a	n/a	n/a	n/a	n/a	n/a	n/a	n/a
2145251	PROB	n/a	LTP082	ltpFR	13	n/a	n/a	n/a	n/a	n/a	n/a	n/a	14	7	6	1	n/a	n/a	n/a	n/a	n/a
2146884	PROB	n/a	LTP082	ltpFR	13	n/a	n/a	n/a	n/a	n/a	n/a	n/a	8	3	4	1	n/a	n/a	n/a	n/a	n/a
2148917	PROB	n/a	LTP082	ltpFR	13	n/a	n/a	n/a	n/a	n/a	n/a	n/a	15	7	6	2	n/a	n/a	n/a	n/a	n/a
2150384	PROB	n/a	LTP082	ltpFR	13	n/a	n/a	n/a	n/a	n/a	n/a	n/a	19	9	3	7	n/a	n/a	n/a	n/a	n/a
2151659	PROB	n/a	LTP082	ltpFR	13	n/a	n/a	n/a	n/a	n/a	n/a	n/a	16	7	7	2	n/a	n/a	n/a	n/a	n/a
2153609	PROB	n/a	LTP082	ltpFR	13	n/a	n/a	n/a	n/a	n/a	n/a	n/a	18	8	1	9	n/a	n/a	n/a	n/a	n/a
2155109	PROB	n/a	LTP082	ltpFR	13	n/a	n/a	n/a	n/a	n/a	n/a	n/a	9	2	3	4	n/a	n/a	n/a	n/a	n/a
2156851	PROB	n/a	LTP082	ltpFR	13	n/a	n/a	n/a	n/a	n/a	n/a	n/a	6	2	2	2	n/a	n/a	n/a	n/a	n/a
2160185	STOP	n/a	LTP082	ltpFR	13	n/a	n/a	n/a	n/a	n/a	n/a	n/a	n/a	n/a	n/a	n/a	n/a	n/a	n/a	n/a	n/a
2161167	WORD	wordpools/wasnorm_wordpool.txt	LTP082	ltpFR	13	9	1	VASE	1549	n/a	n/a	0	n/a	0	0	0	0.57763671875	0.412841796875	1	lower	zerothre.ttf
2164175	START	n/a	LTP082	ltpFR	13	n/a	n/a	n/a	n/a	n/a	n/a	n/a	n/a	n/a	n/a	n/a	n/a	n/a	n/a	n/a	n/a
2165125	PROB	n/a	LTP082	ltpFR	13	n/a	n/a	n/a	n/a	n/a	n/a	n/a	12	2	1	9	n/a	n/a	n/a	n/a	n/a
2166625	PROB	n/a	LTP082	ltpFR	13	n/a	n/a	n/a	n/a	n/a	n/a	n/a	16	4	4	8	n/a	n/a	n/a	n/a	n/a
2168050	PROB	n/a	LTP082	ltpFR	13	n/a	n/a	n/a	n/a	n/a	n/a	n/a	10	1	5	4	n/a	n/a	n/a	n/a	n/a
2169425	PROB	n/a	LTP082	ltpFR	13	n/a	n/a	n/a	n/a	n/a	n/a	n/a	15	8	3	4	n/a	n/a	n/a	n/a	n/a
2170841	PROB	n/a	LTP082	ltpFR	13	n/a	n/a	n/a	n/a	n/a	n/a	n/a	22	7	9	6	n/a	n/a	n/a	n/a	n/a
2173015	PROB	n/a	LTP082	ltpFR	13	n/a	n/a	n/a	n/a	n/a	n/a	n/a	12	7	4	1	n/a	n/a	n/a	n/a	n/a
2174558	PROB	n/a	LTP082	ltpFR	13	n/a	n/a	n/a	n/a	n/a	n/a	n/a	16	6	4	6	n/a	n/a	n/a	n/a	n/a
2176006	PROB	n/a	LTP082	ltpFR	13	n/a	n/a	n/a	n/a	n/a	n/a	n/a	8	3	1	4	n/a	n/a	n/a	n/a	n/a
2178241	PROB	n/a	LTP082	ltpFR	13	n/a	n/a	n/a	n/a	n/a	n/a	n/a	17	8	5	4	n/a	n/a	n/a	n/a	n/a
2179655	STOP	n/a	LTP082	ltpFR	13	n/a	n/a	n/a	n/a	n/a	n/a	n/a	n/a	n/a	n/a	n/a	n/a	n/a	n/a	n/a	n/a
2181924	REC_START	n/a	LTP082	ltpFR	13	9	n/a	n/a	n/a	n/a	n/a	n/a	n/a	0	0	0	n/a	n/a	n/a	n/a	n/a
2183031	REC_WORD	wordpools/wasnorm_wordpool.txt	LTP082	ltpFR	13	9	1	VASE	1549	n/a	n/a	0	n/a	0	0	0	n/a	n/a	n/a	n/a	n/a
2188619	REC_WORD	wordpools/wasnorm_wordpool.txt	LTP082	ltpFR	13	9	1	GYMNAST	675	n/a	n/a	1	n/a	0	0	0	n/a	n/a	n/a	n/a	n/a
2189891	REC_WORD	wordpools/wasnorm_wordpool.txt	LTP082	ltpFR	13	9	1	CONTRACTOR	369	n/a	n/a	1	n/a	0	0	0	n/a	n/a	n/a	n/a	n/a
2192046	REC_WORD	wordpools/wasnorm_wordpool.txt	LTP082	ltpFR	13	9	0	TULIP	1517	n/a	n/a	1	n/a	0	0	0	n/a	n/a	n/a	n/a	n/a
2206118	REC_WORD	wordpools/wasnorm_wordpool.txt	LTP082	ltpFR	13	9	1	SKUNK	1321	n/a	n/a	1	n/a	0	0	0	n/a	n/a	n/a	n/a	n/a
2262826	WORD	wordpools/wasnorm_wordpool.txt	LTP082	ltpFR	13	10	0	MOTEL	919	n/a	n/a	2	n/a	0	0	0	0.422607421875	0.5869140625	0	upper	amplitud.ttf
2264234	KEY_MSG	n/a	LTP082	ltpFR	13	10	n/a	n/a	n/a	n/a	n/a	n/a	n/a	0	0	0	n/a	n/a	n/a	n/a	n/a
2266883	WORD	wordpools/wasnorm_wordpool.txt	LTP082	ltpFR	13	10	0	DORM	488	n/a	n/a	1	n/a	0	0	0	0.422607421875	0.5869140625	0	upper	amplitud.ttf
2270742	WORD	wordpools/wasnorm_wordpool.txt	LTP082	ltpFR	13	10	0	RIVER	1194	n/a	n/a	1	n/a	0	0	0	0.422607421875	0.5869140625	0	upper	amplitud.ttf
2274658	WORD	wordpools/wasnorm_wordpool.txt	LTP082	ltpFR	13	10	0	SHRIMP	1297	n/a	n/a	0	n/a	0	0	0	0.422607421875	0.5869140625	0	upper	amplitud.ttf
2278575	WORD	wordpools/wasnorm_wordpool.txt	LTP082	ltpFR	13	10	0	CUPBOARD	425	n/a	n/a	1	n/a	0	0	0	0.422607421875	0.5869140625	0	upper	amplitud.ttf
2282474	WORD	wordpools/wasnorm_wordpool.txt	LTP082	ltpFR	13	10	0	TAPE	1433	n/a	n/a	0	n/a	0	0	0	0.422607421875	0.5869140625	0	upper	amplitud.ttf
2286674	WORD	wordpools/wasnorm_wordpool.txt	LTP082	ltpFR	13	10	0	GUEST	669	n/a	n/a	1	n/a	0	0	0	0.422607421875	0.5869140625	0	upper	amplitud.ttf
2290682	WORD	wordpools/wasnorm_wordpool.txt	LTP082	ltpFR	13	10	0	JAW	751	n/a	n/a	0	n/a	0	0	0	0.422607421875	0.5869140625	0	upper	amplitud.ttf
2294748	WORD	wordpools/wasnorm_wordpool.txt	LTP082	ltpFR	13	10	0	LAMP	798	n/a	n/a	1	n/a	0	0	0	0.422607421875	0.5869140625	0	upper	amplitud.ttf
2298607	WORD	wordpools/wasnorm_wordpool.txt	LTP082	ltpFR	13	10	0	ROOMMATE	1207	n/a	n/a	1	n/a	0	0	0	0.422607421875	0.5869140625	0	upper	amplitud.ttf
2302665	WORD	wordpools/wasnorm_wordpool.txt	LTP082	ltpFR	13	10	0	MAYONNAISE	880	n/a	n/a	0	n/a	0	0	0	0.422607421875	0.5869140625	0	upper	amplitud.ttf
2306698	WORD	wordpools/wasnorm_wordpool.txt	LTP082	ltpFR	13	10	0	CLOTHES	327	n/a	n/a	1	n/a	0	0	0	0.422607421875	0.5869140625	0	upper	amplitud.ttf
2310855	WORD	wordpools/wasnorm_wordpool.txt	LTP082	ltpFR	13	10	0	HELICOPTER	701	n/a	n/a	1	n/a	0	0	0	0.422607421875	0.5869140625	0	upper	amplitud.ttf
2314664	WORD	wordpools/wasnorm_wordpool.txt	LTP082	ltpFR	13	10	0	AIRCRAFT	11	n/a	n/a	1	n/a	0	0	0	0.422607421875	0.5869140625	0	upper	amplitud.ttf
2318871	WORD	wordpools/wasnorm_wordpool.txt	LTP082	ltpFR	13	10	0	SHARK	1275	n/a	n/a	1	n/a	0	0	0	0.422607421875	0.5869140625	0	upper	amplitud.ttf
2322962	WORD	wordpools/wasnorm_wordpool.txt	LTP082	ltpFR	13	10	0	FRAME	600	n/a	n/a	0	n/a	0	0	0	0.422607421875	0.5869140625	0	upper	amplitud.ttf
2325970	START	n/a	LTP082	ltpFR	13	n/a	n/a	n/a	n/a	n/a	n/a	n/a	n/a	n/a	n/a	n/a	n/a	n/a	n/a	n/a	n/a
2326829	PROB	n/a	LTP082	ltpFR	13	n/a	n/a	n/a	n/a	n/a	n/a	n/a	11	4	1	6	n/a	n/a	n/a	n/a	n/a
2328238	PROB	n/a	LTP082	ltpFR	13	n/a	n/a	n/a	n/a	n/a	n/a	n/a	15	5	9	1	n/a	n/a	n/a	n/a	n/a
2329554	PROB	n/a	LTP082	ltpFR	13	n/a	n/a	n/a	n/a	n/a	n/a	n/a	7	4	1	2	n/a	n/a	n/a	n/a	n/a
2331329	PROB	n/a	LTP082	ltpFR	13	n/a	n/a	n/a	n/a	n/a	n/a	n/a	13	1	4	8	n/a	n/a	n/a	n/a	n/a
2333087	STOP	n/a	LTP082	ltpFR	13	n/a	n/a	n/a	n/a	n/a	n/a	n/a	n/a	n/a	n/a	n/a	n/a	n/a	n/a	n/a	n/a
2335788	REC_START	n/a	LTP082	ltpFR	13	10	n/a	n/a	n/a	n/a	n/a	n/a	n/a	0	0	0	n/a	n/a	n/a	n/a	n/a
2338108	REC_WORD	wordpools/wasnorm_wordpool.txt	LTP082	ltpFR	13	10	0	HELICOPTER	701	n/a	n/a	1	n/a	0	0	0	n/a	n/a	n/a	n/a	n/a
2347197	REC_WORD	wordpools/wasnorm_wordpool.txt	LTP082	ltpFR	13	10	0	AIRCRAFT	11	n/a	n/a	1	n/a	0	0	0	n/a	n/a	n/a	n/a	n/a
2359030	REC_WORD	wordpools/wasnorm_wordpool.txt	LTP082	ltpFR	13	10	0	TAPE	1433	n/a	n/a	0	n/a	0	0	0	n/a	n/a	n/a	n/a	n/a
2361699	REC_WORD	wordpools/wasnorm_wordpool.txt	LTP082	ltpFR	13	10	0	CUPBOARD	425	n/a	n/a	1	n/a	0	0	0	n/a	n/a	n/a	n/a	n/a
2364468	REC_WORD	wordpools/wasnorm_wordpool.txt	LTP082	ltpFR	13	10	0	MAYONNAISE	880	n/a	n/a	0	n/a	0	0	0	n/a	n/a	n/a	n/a	n/a
2366249	REC_WORD	wordpools/wasnorm_wordpool.txt	LTP082	ltpFR	13	10	0	CLOTHES	327	n/a	n/a	1	n/a	0	0	0	n/a	n/a	n/a	n/a	n/a
2400995	REC_WORD	wordpools/wasnorm_wordpool.txt	LTP082	ltpFR	13	10	0	SHRIMP	1297	n/a	n/a	0	n/a	0	0	0	n/a	n/a	n/a	n/a	n/a
2414498	WORD	wordpools/wasnorm_wordpool.txt	LTP082	ltpFR	13	11	1	BARRACUDA	90	n/a	n/a	1	n/a	0	0	0	0.57763671875	0.412841796875	1	lower	zerothre.ttf
2418573	WORD	wordpools/wasnorm_wordpool.txt	LTP082	ltpFR	13	11	1	DOCK	477	n/a	n/a	0	n/a	0	0	0	0.57763671875	0.412841796875	1	lower	zerothre.ttf
2422406	WORD	wordpools/wasnorm_wordpool.txt	LTP082	ltpFR	13	11	1	POOL	1103	n/a	n/a	0	n/a	0	0	0	0.57763671875	0.412841796875	1	lower	zerothre.ttf
2426380	WORD	wordpools/wasnorm_wordpool.txt	LTP082	ltpFR	13	11	0	RASPBERRY	1168	n/a	n/a	1	n/a	0	0	0	0.422607421875	0.5869140625	0	upper	amplitud.ttf
2430213	WORD	wordpools/wasnorm_wordpool.txt	LTP082	ltpFR	13	11	0	DANDELION	438	n/a	n/a	0	n/a	0	0	0	0.422607421875	0.5869140625	0	upper	amplitud.ttf
2434063	WORD	wordpools/wasnorm_wordpool.txt	LTP082	ltpFR	13	11	0	RUST	1219	n/a	n/a	0	n/a	0	0	0	0.422607421875	0.5869140625	0	upper	amplitud.ttf
2438079	WORD	wordpools/wasnorm_wordpool.txt	LTP082	ltpFR	13	11	0	GAZELLE	628	n/a	n/a	1	n/a	0	0	0	0.422607421875	0.5869140625	0	upper	amplitud.ttf
2441928	WORD	wordpools/wasnorm_wordpool.txt	LTP082	ltpFR	13	11	0	VET	1560	n/a	n/a	1	n/a	0	0	0	0.422607421875	0.5869140625	0	upper	amplitud.ttf
2445770	WORD	wordpools/wasnorm_wordpool.txt	LTP082	ltpFR	13	11	0	CHARCOAL	281	n/a	n/a	0	n/a	0	0	0	0.422607421875	0.5869140625	0	upper	amplitud.ttf
2449812	WORD	wordpools/wasnorm_wordpool.txt	LTP082	ltpFR	13	11	1	TAIL	1430	n/a	n/a	0	n/a	0	0	0	0.57763671875	0.412841796875	1	lower	zerothre.ttf
2453687	WORD	wordpools/wasnorm_wordpool.txt	LTP082	ltpFR	13	11	1	CAR	241	n/a	n/a	0	n/a	0	0	0	0.57763671875	0.412841796875	1	lower	zerothre.ttf
2457603	WORD	wordpools/wasnorm_wordpool.txt	LTP082	ltpFR	13	11	1	EAGLE	512	n/a	n/a	1	n/a	0	0	0	0.57763671875	0.412841796875	1	lower	zerothre.ttf
2461578	WORD	wordpools/wasnorm_wordpool.txt	LTP082	ltpFR	13	11	1	ROBIN	1199	n/a	n/a	1	n/a	0	0	0	0.57763671875	0.412841796875	1	lower	zerothre.ttf
2465602	WORD	wordpools/wasnorm_wordpool.txt	LTP082	ltpFR	13	11	1	TANGERINE	1431	n/a	n/a	1	n/a	0	0	0	0.57763671875	0.412841796875	1	lower	zerothre.ttf
2469735	WORD	wordpools/wasnorm_wordpool.txt	LTP082	ltpFR	13	11	0	SCREWDRIVER	1255	n/a	n/a	0	n/a	0	0	0	0.422607421875	0.5869140625	0	upper	amplitud.ttf
2473942	WORD	wordpools/wasnorm_wordpool.txt	LTP082	ltpFR	13	11	0	CORAL	378	n/a	n/a	0	n/a	0	0	0	0.422607421875	0.5869140625	0	upper	amplitud.ttf
2479959	REC_START	n/a	LTP082	ltpFR	13	11	n/a	n/a	n/a	n/a	n/a	n/a	n/a	0	0	0	n/a	n/a	n/a	n/a	n/a
2482274	REC_WORD	wordpools/wasnorm_wordpool.txt	LTP082	ltpFR	13	11	0	CORAL	378	n/a	n/a	0	n/a	0	0	0	n/a	n/a	n/a	n/a	n/a
2484154	REC_WORD	wordpools/wasnorm_wordpool.txt	LTP082	ltpFR	13	11	0	SCREWDRIVER	1255	n/a	n/a	0	n/a	0	0	0	n/a	n/a	n/a	n/a	n/a
2486025	REC_WORD	wordpools/wasnorm_wordpool.txt	LTP082	ltpFR	13	11	1	TAIL	1430	n/a	n/a	0	n/a	0	0	0	n/a	n/a	n/a	n/a	n/a
2487452	REC_WORD	wordpools/wasnorm_wordpool.txt	LTP082	ltpFR	13	11	1	CAR	241	n/a	n/a	0	n/a	0	0	0	n/a	n/a	n/a	n/a	n/a
2489228	REC_WORD	wordpools/wasnorm_wordpool.txt	LTP082	ltpFR	13	11	1	ROBIN	1199	n/a	n/a	1	n/a	0	0	0	n/a	n/a	n/a	n/a	n/a
2490859	REC_WORD	wordpools/wasnorm_wordpool.txt	LTP082	ltpFR	13	11	1	EAGLE	512	n/a	n/a	1	n/a	0	0	0	n/a	n/a	n/a	n/a	n/a
2497843	REC_WORD	wordpools/wasnorm_wordpool.txt	LTP082	ltpFR	13	11	1	BARRACUDA	90	n/a	n/a	1	n/a	0	0	0	n/a	n/a	n/a	n/a	n/a
2503500	REC_WORD	wordpools/wasnorm_wordpool.txt	LTP082	ltpFR	13	11	0	VET	1560	n/a	n/a	1	n/a	0	0	0	n/a	n/a	n/a	n/a	n/a
2518541	REC_WORD	wordpools/wasnorm_wordpool.txt	LTP082	ltpFR	13	11	0	CHARCOAL	281	n/a	n/a	0	n/a	0	0	0	n/a	n/a	n/a	n/a	n/a
2559704	START	n/a	LTP082	ltpFR	13	n/a	n/a	n/a	n/a	n/a	n/a	n/a	n/a	n/a	n/a	n/a	n/a	n/a	n/a	n/a	n/a
2561212	PROB	n/a	LTP082	ltpFR	13	n/a	n/a	n/a	n/a	n/a	n/a	n/a	14	8	3	3	n/a	n/a	n/a	n/a	n/a
2562927	PROB	n/a	LTP082	ltpFR	13	n/a	n/a	n/a	n/a	n/a	n/a	n/a	13	2	3	8	n/a	n/a	n/a	n/a	n/a
2564686	PROB	n/a	LTP082	ltpFR	13	n/a	n/a	n/a	n/a	n/a	n/a	n/a	8	3	4	1	n/a	n/a	n/a	n/a	n/a
2566910	STOP	n/a	LTP082	ltpFR	13	n/a	n/a	n/a	n/a	n/a	n/a	n/a	n/a	n/a	n/a	n/a	n/a	n/a	n/a	n/a	n/a
2568736	WORD	wordpools/wasnorm_wordpool.txt	LTP082	ltpFR	13	12	1	COMET	353	n/a	n/a	0	n/a	0	0	0	0.57763671875	0.412841796875	1	lower	zerothre.ttf
2571745	START	n/a	LTP082	ltpFR	13	n/a	n/a	n/a	n/a	n/a	n/a	n/a	n/a	n/a	n/a	n/a	n/a	n/a	n/a	n/a	n/a
2572728	PROB	n/a	LTP082	ltpFR	13	n/a	n/a	n/a	n/a	n/a	n/a	n/a	7	5	1	1	n/a	n/a	n/a	n/a	n/a
2574001	PROB	n/a	LTP082	ltpFR	13	n/a	n/a	n/a	n/a	n/a	n/a	n/a	15	4	9	2	n/a	n/a	n/a	n/a	n/a
2575644	PROB	n/a	LTP082	ltpFR	13	n/a	n/a	n/a	n/a	n/a	n/a	n/a	22	5	8	9	n/a	n/a	n/a	n/a	n/a
2577344	PROB	n/a	LTP082	ltpFR	13	n/a	n/a	n/a	n/a	n/a	n/a	n/a	14	7	2	5	n/a	n/a	n/a	n/a	n/a
2578974	STOP	n/a	LTP082	ltpFR	13	n/a	n/a	n/a	n/a	n/a	n/a	n/a	n/a	n/a	n/a	n/a	n/a	n/a	n/a	n/a	n/a
2580560	WORD	wordpools/wasnorm_wordpool.txt	LTP082	ltpFR	13	12	1	PERISCOPE	1050	n/a	n/a	0	n/a	0	0	0	0.57763671875	0.412841796875	1	lower	zerothre.ttf
2583569	START	n/a	LTP082	ltpFR	13	n/a	n/a	n/a	n/a	n/a	n/a	n/a	n/a	n/a	n/a	n/a	n/a	n/a	n/a	n/a	n/a
2584593	PROB	n/a	LTP082	ltpFR	13	n/a	n/a	n/a	n/a	n/a	n/a	n/a	12	5	5	2	n/a	n/a	n/a	n/a	n/a
2585677	PROB	n/a	LTP082	ltpFR	13	n/a	n/a	n/a	n/a	n/a	n/a	n/a	18	4	7	8	n/a	n/a	n/a	n/a	n/a
2588900	PROB	n/a	LTP082	ltpFR	13	n/a	n/a	n/a	n/a	n/a	n/a	n/a	13	3	6	4	n/a	n/a	n/a	n/a	n/a
2590060	PROB	n/a	LTP082	ltpFR	13	n/a	n/a	n/a	n/a	n/a	n/a	n/a	8	5	1	2	n/a	n/a	n/a	n/a	n/a
2591263	STOP	n/a	LTP082	ltpFR	13	n/a	n/a	n/a	n/a	n/a	n/a	n/a	n/a	n/a	n/a	n/a	n/a	n/a	n/a	n/a	n/a
2592434	WORD	wordpools/wasnorm_wordpool.txt	LTP082	ltpFR	13	12	1	MARGARINE	868	n/a	n/a	0	n/a	0	0	0	0.57763671875	0.412841796875	1	lower	zerothre.ttf
2595435	START	n/a	LTP082	ltpFR	13	n/a	n/a	n/a	n/a	n/a	n/a	n/a	n/a	n/a	n/a	n/a	n/a	n/a	n/a	n/a	n/a
2596617	PROB	n/a	LTP082	ltpFR	13	n/a	n/a	n/a	n/a	n/a	n/a	n/a	11	8	2	1	n/a	n/a	n/a	n/a	n/a
2598101	PROB	n/a	LTP082	ltpFR	13	n/a	n/a	n/a	n/a	n/a	n/a	n/a	15	6	1	8	n/a	n/a	n/a	n/a	n/a
2599451	PROB	n/a	LTP082	ltpFR	13	n/a	n/a	n/a	n/a	n/a	n/a	n/a	20	8	5	7	n/a	n/a	n/a	n/a	n/a
2601167	PROB	n/a	LTP082	ltpFR	13	n/a	n/a	n/a	n/a	n/a	n/a	n/a	21	9	7	5	n/a	n/a	n/a	n/a	n/a
2602870	STOP	n/a	LTP082	ltpFR	13	n/a	n/a	n/a	n/a	n/a	n/a	n/a	n/a	n/a	n/a	n/a	n/a	n/a	n/a	n/a	n/a
2604325	WORD	wordpools/wasnorm_wordpool.txt	LTP082	ltpFR	13	12	1	BULLY	196	n/a	n/a	1	n/a	0	0	0	0.57763671875	0.412841796875	1	lower	zerothre.ttf
2607334	START	n/a	LTP082	ltpFR	13	n/a	n/a	n/a	n/a	n/a	n/a	n/a	n/a	n/a	n/a	n/a	n/a	n/a	n/a	n/a	n/a
2608250	PROB	n/a	LTP082	ltpFR	13	n/a	n/a	n/a	n/a	n/a	n/a	n/a	18	7	3	8	n/a	n/a	n/a	n/a	n/a
2609450	PROB	n/a	LTP082	ltpFR	13	n/a	n/a	n/a	n/a	n/a	n/a	n/a	17	8	7	2	n/a	n/a	n/a	n/a	n/a
2611650	PROB	n/a	LTP082	ltpFR	13	n/a	n/a	n/a	n/a	n/a	n/a	n/a	14	1	8	5	n/a	n/a	n/a	n/a	n/a
2613191	PROB	n/a	LTP082	ltpFR	13	n/a	n/a	n/a	n/a	n/a	n/a	n/a	6	3	2	1	n/a	n/a	n/a	n/a	n/a
2614391	STOP	n/a	LTP082	ltpFR	13	n/a	n/a	n/a	n/a	n/a	n/a	n/a	n/a	n/a	n/a	n/a	n/a	n/a	n/a	n/a	n/a
2616324	WORD	wordpools/wasnorm_wordpool.txt	LTP082	ltpFR	13	12	1	PUMP	1141	n/a	n/a	0	n/a	0	0	0	0.57763671875	0.412841796875	1	lower	zerothre.ttf
2619333	START	n/a	LTP082	ltpFR	13	n/a	n/a	n/a	n/a	n/a	n/a	n/a	n/a	n/a	n/a	n/a	n/a	n/a	n/a	n/a	n/a
2620524	PROB	n/a	LTP082	ltpFR	13	n/a	n/a	n/a	n/a	n/a	n/a	n/a	11	2	2	7	n/a	n/a	n/a	n/a	n/a
2621749	PROB	n/a	LTP082	ltpFR	13	n/a	n/a	n/a	n/a	n/a	n/a	n/a	15	8	2	5	n/a	n/a	n/a	n/a	n/a
2622931	PROB	n/a	LTP082	ltpFR	13	n/a	n/a	n/a	n/a	n/a	n/a	n/a	11	2	4	5	n/a	n/a	n/a	n/a	n/a
2625290	PROB	n/a	LTP082	ltpFR	13	n/a	n/a	n/a	n/a	n/a	n/a	n/a	16	1	8	7	n/a	n/a	n/a	n/a	n/a
2627167	STOP	n/a	LTP082	ltpFR	13	n/a	n/a	n/a	n/a	n/a	n/a	n/a	n/a	n/a	n/a	n/a	n/a	n/a	n/a	n/a	n/a
2628173	WORD	wordpools/wasnorm_wordpool.txt	LTP082	ltpFR	13	12	1	DOUGHNUT	490	n/a	n/a	0	n/a	0	0	0	0.57763671875	0.412841796875	1	lower	zerothre.ttf
2631182	START	n/a	LTP082	ltpFR	13	n/a	n/a	n/a	n/a	n/a	n/a	n/a	n/a	n/a	n/a	n/a	n/a	n/a	n/a	n/a	n/a
2632256	PROB	n/a	LTP082	ltpFR	13	n/a	n/a	n/a	n/a	n/a	n/a	n/a	14	6	7	1	n/a	n/a	n/a	n/a	n/a
2633665	PROB	n/a	LTP082	ltpFR	13	n/a	n/a	n/a	n/a	n/a	n/a	n/a	20	7	4	9	n/a	n/a	n/a	n/a	n/a
2635215	PROB	n/a	LTP082	ltpFR	13	n/a	n/a	n/a	n/a	n/a	n/a	n/a	20	2	9	9	n/a	n/a	n/a	n/a	n/a
2636606	PROB	n/a	LTP082	ltpFR	13	n/a	n/a	n/a	n/a	n/a	n/a	n/a	8	3	3	2	n/a	n/a	n/a	n/a	n/a
2638319	STOP	n/a	LTP082	ltpFR	13	n/a	n/a	n/a	n/a	n/a	n/a	n/a	n/a	n/a	n/a	n/a	n/a	n/a	n/a	n/a	n/a
2640239	WORD	wordpools/wasnorm_wordpool.txt	LTP082	ltpFR	13	12	1	COWARD	394	n/a	n/a	0	n/a	0	0	0	0.57763671875	0.412841796875	1	lower	zerothre.ttf
2643248	START	n/a	LTP082	ltpFR	13	n/a	n/a	n/a	n/a	n/a	n/a	n/a	n/a	n/a	n/a	n/a	n/a	n/a	n/a	n/a	n/a
2644122	PROB	n/a	LTP082	ltpFR	13	n/a	n/a	n/a	n/a	n/a	n/a	n/a	10	1	5	4	n/a	n/a	n/a	n/a	n/a
2645814	PROB	n/a	LTP082	ltpFR	13	n/a	n/a	n/a	n/a	n/a	n/a	n/a	10	2	1	7	n/a	n/a	n/a	n/a	n/a
2647397	PROB	n/a	LTP082	ltpFR	13	n/a	n/a	n/a	n/a	n/a	n/a	n/a	10	2	7	1	n/a	n/a	n/a	n/a	n/a
2648339	PROB	n/a	LTP082	ltpFR	13	n/a	n/a	n/a	n/a	n/a	n/a	n/a	13	5	2	6	n/a	n/a	n/a	n/a	n/a
2650087	STOP	n/a	LTP082	ltpFR	13	n/a	n/a	n/a	n/a	n/a	n/a	n/a	n/a	n/a	n/a	n/a	n/a	n/a	n/a	n/a	n/a
2652072	WORD	wordpools/wasnorm_wordpool.txt	LTP082	ltpFR	13	12	1	ABDOMEN	1	n/a	n/a	1	n/a	0	0	0	0.57763671875	0.412841796875	1	lower	zerothre.ttf
2655080	START	n/a	LTP082	ltpFR	13	n/a	n/a	n/a	n/a	n/a	n/a	n/a	n/a	n/a	n/a	n/a	n/a	n/a	n/a	n/a	n/a
2656088	PROB	n/a	LTP082	ltpFR	13	n/a	n/a	n/a	n/a	n/a	n/a	n/a	18	3	8	7	n/a	n/a	n/a	n/a	n/a
2657655	PROB	n/a	LTP082	ltpFR	13	n/a	n/a	n/a	n/a	n/a	n/a	n/a	18	6	3	9	n/a	n/a	n/a	n/a	n/a
2658771	PROB	n/a	LTP082	ltpFR	13	n/a	n/a	n/a	n/a	n/a	n/a	n/a	19	8	8	3	n/a	n/a	n/a	n/a	n/a
2660454	PROB	n/a	LTP082	ltpFR	13	n/a	n/a	n/a	n/a	n/a	n/a	n/a	15	1	5	9	n/a	n/a	n/a	n/a	n/a
2661974	STOP	n/a	LTP082	ltpFR	13	n/a	n/a	n/a	n/a	n/a	n/a	n/a	n/a	n/a	n/a	n/a	n/a	n/a	n/a	n/a	n/a
2664237	WORD	wordpools/wasnorm_wordpool.txt	LTP082	ltpFR	13	12	1	MOUTH	926	n/a	n/a	1	n/a	0	0	0	0.57763671875	0.412841796875	1	lower	zerothre.ttf
2667246	START	n/a	LTP082	ltpFR	13	n/a	n/a	n/a	n/a	n/a	n/a	n/a	n/a	n/a	n/a	n/a	n/a	n/a	n/a	n/a	n/a
2668137	PROB	n/a	LTP082	ltpFR	13	n/a	n/a	n/a	n/a	n/a	n/a	n/a	12	3	3	6	n/a	n/a	n/a	n/a	n/a
2669712	PROB	n/a	LTP082	ltpFR	13	n/a	n/a	n/a	n/a	n/a	n/a	n/a	13	2	3	8	n/a	n/a	n/a	n/a	n/a
2671128	PROB	n/a	LTP082	ltpFR	13	n/a	n/a	n/a	n/a	n/a	n/a	n/a	14	1	8	5	n/a	n/a	n/a	n/a	n/a
2672420	PROB	n/a	LTP082	ltpFR	13	n/a	n/a	n/a	n/a	n/a	n/a	n/a	189	3	7	9	n/a	n/a	n/a	n/a	n/a
2673562	PROB	n/a	LTP082	ltpFR	13	n/a	n/a	n/a	n/a	n/a	n/a	n/a	13	3	7	3	n/a	n/a	n/a	n/a	n/a
2674974	STOP	n/a	LTP082	ltpFR	13	n/a	n/a	n/a	n/a	n/a	n/a	n/a	n/a	n/a	n/a	n/a	n/a	n/a	n/a	n/a	n/a
2676136	WORD	wordpools/wasnorm_wordpool.txt	LTP082	ltpFR	13	12	1	STRAWBERRY	1391	n/a	n/a	1	n/a	0	0	0	0.57763671875	0.412841796875	1	lower	zerothre.ttf
2679137	START	n/a	LTP082	ltpFR	13	n/a	n/a	n/a	n/a	n/a	n/a	n/a	n/a	n/a	n/a	n/a	n/a	n/a	n/a	n/a	n/a
2679993	PROB	n/a	LTP082	ltpFR	13	n/a	n/a	n/a	n/a	n/a	n/a	n/a	11	3	2	6	n/a	n/a	n/a	n/a	n/a
2681678	PROB	n/a	LTP082	ltpFR	13	n/a	n/a	n/a	n/a	n/a	n/a	n/a	15	4	9	2	n/a	n/a	n/a	n/a	n/a
2683336	PROB	n/a	LTP082	ltpFR	13	n/a	n/a	n/a	n/a	n/a	n/a	n/a	11	9	2	1	n/a	n/a	n/a	n/a	n/a
2687136	STOP	n/a	LTP082	ltpFR	13	n/a	n/a	n/a	n/a	n/a	n/a	n/a	n/a	n/a	n/a	n/a	n/a	n/a	n/a	n/a	n/a
2688302	WORD	wordpools/wasnorm_wordpool.txt	LTP082	ltpFR	13	12	1	ATMOSPHERE	54	n/a	n/a	0	n/a	0	0	0	0.57763671875	0.412841796875	1	lower	zerothre.ttf
2691311	START	n/a	LTP082	ltpFR	13	n/a	n/a	n/a	n/a	n/a	n/a	n/a	n/a	n/a	n/a	n/a	n/a	n/a	n/a	n/a	n/a
2692385	PROB	n/a	LTP082	ltpFR	13	n/a	n/a	n/a	n/a	n/a	n/a	n/a	17	4	9	4	n/a	n/a	n/a	n/a	n/a
2694052	PROB	n/a	LTP082	ltpFR	13	n/a	n/a	n/a	n/a	n/a	n/a	n/a	11	2	7	2	n/a	n/a	n/a	n/a	n/a
2695235	PROB	n/a	LTP082	ltpFR	13	n/a	n/a	n/a	n/a	n/a	n/a	n/a	16	2	7	7	n/a	n/a	n/a	n/a	n/a
2697110	PROB	n/a	LTP082	ltpFR	13	n/a	n/a	n/a	n/a	n/a	n/a	n/a	14	8	3	3	n/a	n/a	n/a	n/a	n/a
2698599	STOP	n/a	LTP082	ltpFR	13	n/a	n/a	n/a	n/a	n/a	n/a	n/a	n/a	n/a	n/a	n/a	n/a	n/a	n/a	n/a	n/a
2700218	WORD	wordpools/wasnorm_wordpool.txt	LTP082	ltpFR	13	12	1	BREAD	170	n/a	n/a	0	n/a	0	0	0	0.57763671875	0.412841796875	1	lower	zerothre.ttf
2703227	START	n/a	LTP082	ltpFR	13	n/a	n/a	n/a	n/a	n/a	n/a	n/a	n/a	n/a	n/a	n/a	n/a	n/a	n/a	n/a	n/a
2704359	PROB	n/a	LTP082	ltpFR	13	n/a	n/a	n/a	n/a	n/a	n/a	n/a	12	8	3	1	n/a	n/a	n/a	n/a	n/a
2706109	PROB	n/a	LTP082	ltpFR	13	n/a	n/a	n/a	n/a	n/a	n/a	n/a	26	9	8	9	n/a	n/a	n/a	n/a	n/a
2708609	PROB	n/a	LTP082	ltpFR	13	n/a	n/a	n/a	n/a	n/a	n/a	n/a	18	8	9	1	n/a	n/a	n/a	n/a	n/a
2709942	STOP	n/a	LTP082	ltpFR	13	n/a	n/a	n/a	n/a	n/a	n/a	n/a	n/a	n/a	n/a	n/a	n/a	n/a	n/a	n/a	n/a
2712275	WORD	wordpools/wasnorm_wordpool.txt	LTP082	ltpFR	13	12	1	OMELET	976	n/a	n/a	0	n/a	0	0	0	0.57763671875	0.412841796875	1	lower	zerothre.ttf
2715284	START	n/a	LTP082	ltpFR	13	n/a	n/a	n/a	n/a	n/a	n/a	n/a	n/a	n/a	n/a	n/a	n/a	n/a	n/a	n/a	n/a
2716467	PROB	n/a	LTP082	ltpFR	13	n/a	n/a	n/a	n/a	n/a	n/a	n/a	11	5	5	1	n/a	n/a	n/a	n/a	n/a
2717508	PROB	n/a	LTP082	ltpFR	13	n/a	n/a	n/a	n/a	n/a	n/a	n/a	9	1	5	3	n/a	n/a	n/a	n/a	n/a
2719032	PROB	n/a	LTP082	ltpFR	13	n/a	n/a	n/a	n/a	n/a	n/a	n/a	9	2	2	5	n/a	n/a	n/a	n/a	n/a
2720767	PROB	n/a	LTP082	ltpFR	13	n/a	n/a	n/a	n/a	n/a	n/a	n/a	22	7	7	8	n/a	n/a	n/a	n/a	n/a
2722487	STOP	n/a	LTP082	ltpFR	13	n/a	n/a	n/a	n/a	n/a	n/a	n/a	n/a	n/a	n/a	n/a	n/a	n/a	n/a	n/a	n/a
2724191	WORD	wordpools/wasnorm_wordpool.txt	LTP082	ltpFR	13	12	1	COOK	372	n/a	n/a	1	n/a	0	0	0	0.57763671875	0.412841796875	1	lower	zerothre.ttf
