onset	duration	trial_type	sample	stim_file	subject	experiment	session	trial	item_name	item_num	list	answer	test_x	test_y	test_z
243.872	n/a	SESS_START	121936	n/a	LTP229	ltpFR2	1	n/a	n/a	n/a	n/a	n/a	0	0	0
279.702	n/a	START	139851	n/a	LTP229	ltpFR2	1	n/a	n/a	n/a	-1	n/a	n/a	n/a	n/a
279.75	n/a	PROB	139875	n/a	LTP229	ltpFR2	1	n/a	n/a	n/a	-1	18	9	8	6
281.574	n/a	PROB	140787	n/a	LTP229	ltpFR2	1	n/a	n/a	n/a	-1	13	2	6	5
285.958	n/a	PROB	142979	n/a	LTP229	ltpFR2	1	n/a	n/a	n/a	-1	10	2	2	6
287.782	n/a	PROB	143891	n/a	LTP229	ltpFR2	1	n/a	n/a	n/a	-1	16	6	2	8
289.388	n/a	PROB	144694	n/a	LTP229	ltpFR2	1	n/a	n/a	n/a	-1	6	1	2	3
291.16	n/a	STOP	145580	n/a	LTP229	ltpFR2	1	n/a	n/a	n/a	-1	n/a	n/a	n/a	n/a
328.236	n/a	WORD	164118	wordpools/wasnorm_wordpool_576.txt	LTP229	ltpFR2	1	1	MONEY	908	n/a	n/a	0	0	0
330.84	n/a	WORD	165420	wordpools/wasnorm_wordpool_576.txt	LTP229	ltpFR2	1	1	JEANS	752	n/a	n/a	0	0	0
333.44	n/a	WORD	166720	wordpools/wasnorm_wordpool_576.txt	LTP229	ltpFR2	1	1	STICKER	1382	n/a	n/a	0	0	0
336.2	n/a	WORD	168100	wordpools/wasnorm_wordpool_576.txt	LTP229	ltpFR2	1	1	CAFE	216	n/a	n/a	0	0	0
338.928	n/a	WORD	169464	wordpools/wasnorm_wordpool_576.txt	LTP229	ltpFR2	1	1	SEAL	1262	n/a	n/a	0	0	0
341.53	n/a	WORD	170765	wordpools/wasnorm_wordpool_576.txt	LTP229	ltpFR2	1	1	TWISTER	1530	n/a	n/a	0	0	0
344.024	n/a	WORD	172012	wordpools/wasnorm_wordpool_576.txt	LTP229	ltpFR2	1	1	SUNRISE	1407	n/a	n/a	0	0	0
346.522	n/a	WORD	173261	wordpools/wasnorm_wordpool_576.txt	LTP229	ltpFR2	1	1	JURY	766	n/a	n/a	0	0	0
349.216	n/a	WORD	174608	wordpools/wasnorm_wordpool_576.txt	LTP229	ltpFR2	1	1	BLOUSE	139	n/a	n/a	0	0	0
351.692	n/a	WORD	175846	wordpools/wasnorm_wordpool_576.txt	LTP229	ltpFR2	1	1	POCKET	1093	n/a	n/a	0	0	0
354.18	n/a	WORD	177090	wordpools/wasnorm_wordpool_576.txt	LTP229	ltpFR2	1	1	RAZOR	1171	n/a	n/a	0	0	0
356.64	n/a	WORD	178320	wordpools/wasnorm_wordpool_576.txt	LTP229	ltpFR2	1	1	SWORD	1423	n/a	n/a	0	0	0
359.384	n/a	WORD	179692	wordpools/wasnorm_wordpool_576.txt	LTP229	ltpFR2	1	1	SCISSORS	1250	n/a	n/a	0	0	0
362.15	n/a	WORD	181075	wordpools/wasnorm_wordpool_576.txt	LTP229	ltpFR2	1	1	FOOTBALL	591	n/a	n/a	0	0	0
364.926	n/a	WORD	182463	wordpools/wasnorm_wordpool_576.txt	LTP229	ltpFR2	1	1	PRINCE	1124	n/a	n/a	0	0	0
367.42	n/a	WORD	183710	wordpools/wasnorm_wordpool_576.txt	LTP229	ltpFR2	1	1	SUNSET	1408	n/a	n/a	0	0	0
370.208	n/a	WORD	185104	wordpools/wasnorm_wordpool_576.txt	LTP229	ltpFR2	1	1	CASKET	255	n/a	n/a	0	0	0
372.824	n/a	WORD	186412	wordpools/wasnorm_wordpool_576.txt	LTP229	ltpFR2	1	1	SUPPER	1411	n/a	n/a	0	0	0
375.434	n/a	WORD	187717	wordpools/wasnorm_wordpool_576.txt	LTP229	ltpFR2	1	1	TURKEY	1520	n/a	n/a	0	0	0
377.922	n/a	WORD	188961	wordpools/wasnorm_wordpool_576.txt	LTP229	ltpFR2	1	1	WIDOW	1608	n/a	n/a	0	0	0
380.502	n/a	WORD	190251	wordpools/wasnorm_wordpool_576.txt	LTP229	ltpFR2	1	1	DONKEY	484	n/a	n/a	0	0	0
383.23	n/a	WORD	191615	wordpools/wasnorm_wordpool_576.txt	LTP229	ltpFR2	1	1	DAISY	435	n/a	n/a	0	0	0
385.806	n/a	WORD	192903	wordpools/wasnorm_wordpool_576.txt	LTP229	ltpFR2	1	1	RECORD	1176	n/a	n/a	0	0	0
388.26	n/a	WORD	194130	wordpools/wasnorm_wordpool_576.txt	LTP229	ltpFR2	1	1	CONCERT	360	n/a	n/a	0	0	0
389.872	n/a	START	194936	n/a	LTP229	ltpFR2	1	n/a	n/a	n/a	1	n/a	n/a	n/a	n/a
390.93	n/a	DISTRACTOR	195465	n/a	LTP229	ltpFR2	1	1	n/a	n/a	n/a	n/a	0	0	0
390.942	n/a	PROB	195471	n/a	LTP229	ltpFR2	1	n/a	n/a	n/a	1	12	5	5	2
392.398	n/a	PROB	196199	n/a	LTP229	ltpFR2	1	n/a	n/a	n/a	1	14	6	7	1
394.022	n/a	PROB	197011	n/a	LTP229	ltpFR2	1	n/a	n/a	n/a	1	15	7	5	6
396.09	n/a	PROB	198045	n/a	LTP229	ltpFR2	1	n/a	n/a	n/a	1	14	6	7	8
398.288	n/a	PROB	199144	n/a	LTP229	ltpFR2	1	n/a	n/a	n/a	1	8	2	5	1
399.994	n/a	PROB	199997	n/a	LTP229	ltpFR2	1	n/a	n/a	n/a	1	10	1	6	3
401.382	n/a	PROB	200691	n/a	LTP229	ltpFR2	1	n/a	n/a	n/a	1	18	2	9	7
404.662	n/a	PROB	202331	n/a	LTP229	ltpFR2	1	n/a	n/a	n/a	1	16	7	8	5
406.704	n/a	PROB	203352	n/a	LTP229	ltpFR2	1	n/a	n/a	n/a	1	12	1	3	8
408.922	n/a	PROB	204461	n/a	LTP229	ltpFR2	1	n/a	n/a	n/a	1	14	3	5	7
411.27	n/a	PROB	205635	n/a	LTP229	ltpFR2	1	n/a	n/a	n/a	1	10	1	5	4
412.752	n/a	STOP	206376	n/a	LTP229	ltpFR2	1	n/a	n/a	n/a	1	n/a	n/a	n/a	n/a
415.766	n/a	REC_START	207883	n/a	LTP229	ltpFR2	1	1	n/a	n/a	n/a	n/a	0	0	0
417.504	n/a	REC_WORD	208752	wordpools/wasnorm_wordpool_576.txt	LTP229	ltpFR2	1	1	SUNRISE	1407	n/a	n/a	0	0	0
419.028	n/a	REC_WORD	209514	wordpools/wasnorm_wordpool_576.txt	LTP229	ltpFR2	1	1	SUNSET	1408	n/a	n/a	0	0	0
421.168	n/a	REC_WORD	210584	wordpools/wasnorm_wordpool_576.txt	LTP229	ltpFR2	1	1	CASKET	255	n/a	n/a	0	0	0
426.696	n/a	REC_WORD	213348	wordpools/wasnorm_wordpool_576.txt	LTP229	ltpFR2	1	1	JEANS	752	n/a	n/a	0	0	0
429.36	n/a	REC_WORD	214680	wordpools/wasnorm_wordpool_576.txt	LTP229	ltpFR2	1	1	MONEY	908	n/a	n/a	0	0	0
432.118	n/a	REC_WORD	216059	wordpools/wasnorm_wordpool_576.txt	LTP229	ltpFR2	1	1	SEAL	1262	n/a	n/a	0	0	0
435.3	n/a	REC_WORD	217650	wordpools/wasnorm_wordpool_576.txt	LTP229	ltpFR2	1	1	STICKER	1382	n/a	n/a	0	0	0
439.054	n/a	REC_WORD	219527	wordpools/wasnorm_wordpool_576.txt	LTP229	ltpFR2	1	1	TURKEY	1520	n/a	n/a	0	0	0
441.952	n/a	REC_WORD	220976	wordpools/wasnorm_wordpool_576.txt	LTP229	ltpFR2	1	1	DONKEY	484	n/a	n/a	0	0	0
449.288	n/a	REC_WORD	224644	wordpools/wasnorm_wordpool_576.txt	LTP229	ltpFR2	1	1	TWISTER	1530	n/a	n/a	0	0	0
453.532	n/a	REC_WORD	226766	wordpools/wasnorm_wordpool_576.txt	LTP229	ltpFR2	1	1	POCKET	1093	n/a	n/a	0	0	0
457.522	n/a	REC_WORD	228761	wordpools/wasnorm_wordpool_576.txt	LTP229	ltpFR2	1	1	BLOUSE	139	n/a	n/a	0	0	0
539.058	n/a	DISTRACTOR	269529	n/a	LTP229	ltpFR2	1	2	n/a	n/a	n/a	n/a	0	0	0
539.06	n/a	START	269530	n/a	LTP229	ltpFR2	1	n/a	n/a	n/a	2	n/a	n/a	n/a	n/a
539.108	n/a	PROB	269554	n/a	LTP229	ltpFR2	1	n/a	n/a	n/a	2	11	1	6	4
540.564	n/a	PROB	270282	n/a	LTP229	ltpFR2	1	n/a	n/a	n/a	2	8	6	1	1
541.888	n/a	PROB	270944	n/a	LTP229	ltpFR2	1	n/a	n/a	n/a	2	18	8	1	9
543.944	n/a	PROB	271972	n/a	LTP229	ltpFR2	1	n/a	n/a	n/a	2	10	2	3	5
545.328	n/a	PROB	272664	n/a	LTP229	ltpFR2	1	n/a	n/a	n/a	2	15	3	7	5
547.67	n/a	PROB	273835	n/a	LTP229	ltpFR2	1	n/a	n/a	n/a	2	15	5	5	5
548.808	n/a	PROB	274404	n/a	LTP229	ltpFR2	1	n/a	n/a	n/a	2	19	7	9	3
551.456	n/a	PROB	275728	n/a	LTP229	ltpFR2	1	n/a	n/a	n/a	2	10	5	1	4
552.978	n/a	PROB	276489	n/a	LTP229	ltpFR2	1	n/a	n/a	n/a	2	12	8	2	2
554.662	n/a	PROB	277331	n/a	LTP229	ltpFR2	1	n/a	n/a	n/a	2	17	8	3	6
556.504	n/a	PROB	278252	n/a	LTP229	ltpFR2	1	n/a	n/a	n/a	2	19	6	9	4
558.928	n/a	PROB	279464	n/a	LTP229	ltpFR2	1	n/a	n/a	n/a	2	17	6	3	7
563.062	n/a	STOP	281531	n/a	LTP229	ltpFR2	1	n/a	n/a	n/a	2	n/a	n/a	n/a	n/a
564.272	n/a	WORD	282136	wordpools/wasnorm_wordpool_576.txt	LTP229	ltpFR2	1	2	BANQUET	86	n/a	n/a	0	0	0
567.084	n/a	WORD	283542	wordpools/wasnorm_wordpool_576.txt	LTP229	ltpFR2	1	2	ATLAS	53	n/a	n/a	0	0	0
569.71	n/a	WORD	284855	wordpools/wasnorm_wordpool_576.txt	LTP229	ltpFR2	1	2	LIZARD	834	n/a	n/a	0	0	0
572.514	n/a	WORD	286257	wordpools/wasnorm_wordpool_576.txt	LTP229	ltpFR2	1	2	POISON	1096	n/a	n/a	0	0	0
574.962	n/a	WORD	287481	wordpools/wasnorm_wordpool_576.txt	LTP229	ltpFR2	1	2	TERMITE	1451	n/a	n/a	0	0	0
577.64	n/a	WORD	288820	wordpools/wasnorm_wordpool_576.txt	LTP229	ltpFR2	1	2	CRITIC	410	n/a	n/a	0	0	0
580.162	n/a	WORD	290081	wordpools/wasnorm_wordpool_576.txt	LTP229	ltpFR2	1	2	THRONE	1461	n/a	n/a	0	0	0
582.72	n/a	WORD	291360	wordpools/wasnorm_wordpool_576.txt	LTP229	ltpFR2	1	2	MARKET	871	n/a	n/a	0	0	0
585.33	n/a	WORD	292665	wordpools/wasnorm_wordpool_576.txt	LTP229	ltpFR2	1	2	SALAD	1224	n/a	n/a	0	0	0
587.796	n/a	WORD	293898	wordpools/wasnorm_wordpool_576.txt	LTP229	ltpFR2	1	2	PUDDING	1139	n/a	n/a	0	0	0
590.566	n/a	WORD	295283	wordpools/wasnorm_wordpool_576.txt	LTP229	ltpFR2	1	2	DIME	466	n/a	n/a	0	0	0
593.126	n/a	WORD	296563	wordpools/wasnorm_wordpool_576.txt	LTP229	ltpFR2	1	2	OX	994	n/a	n/a	0	0	0
595.804	n/a	WORD	297902	wordpools/wasnorm_wordpool_576.txt	LTP229	ltpFR2	1	2	CATTLE	261	n/a	n/a	0	0	0
598.236	n/a	WORD	299118	wordpools/wasnorm_wordpool_576.txt	LTP229	ltpFR2	1	2	FUNGUS	614	n/a	n/a	0	0	0
600.996	n/a	WORD	300498	wordpools/wasnorm_wordpool_576.txt	LTP229	ltpFR2	1	2	DANCER	437	n/a	n/a	0	0	0
603.656	n/a	WORD	301828	wordpools/wasnorm_wordpool_576.txt	LTP229	ltpFR2	1	2	CAMEL	223	n/a	n/a	0	0	0
606.466	n/a	WORD	303233	wordpools/wasnorm_wordpool_576.txt	LTP229	ltpFR2	1	2	CATCHER	258	n/a	n/a	0	0	0
608.994	n/a	WORD	304497	wordpools/wasnorm_wordpool_576.txt	LTP229	ltpFR2	1	2	LONDON	843	n/a	n/a	0	0	0
611.47	n/a	WORD	305735	wordpools/wasnorm_wordpool_576.txt	LTP229	ltpFR2	1	2	WASP	1593	n/a	n/a	0	0	0
614.206	n/a	WORD	307103	wordpools/wasnorm_wordpool_576.txt	LTP229	ltpFR2	1	2	CLOTHES	327	n/a	n/a	0	0	0
616.65	n/a	WORD	308325	wordpools/wasnorm_wordpool_576.txt	LTP229	ltpFR2	1	2	DENIM	446	n/a	n/a	0	0	0
619.416	n/a	WORD	309708	wordpools/wasnorm_wordpool_576.txt	LTP229	ltpFR2	1	2	PADDLE	1000	n/a	n/a	0	0	0
622.16	n/a	WORD	311080	wordpools/wasnorm_wordpool_576.txt	LTP229	ltpFR2	1	2	HOUND	724	n/a	n/a	0	0	0
624.92	n/a	WORD	312460	wordpools/wasnorm_wordpool_576.txt	LTP229	ltpFR2	1	2	CIGAR	308	n/a	n/a	0	0	0
626.538	n/a	START	313269	n/a	LTP229	ltpFR2	1	n/a	n/a	n/a	3	n/a	n/a	n/a	n/a
627.628	n/a	DISTRACTOR	313814	n/a	LTP229	ltpFR2	1	2	n/a	n/a	n/a	n/a	0	0	0
627.642	n/a	PROB	313821	n/a	LTP229	ltpFR2	1	n/a	n/a	n/a	3	16	3	7	6
629.22	n/a	PROB	314610	n/a	LTP229	ltpFR2	1	n/a	n/a	n/a	3	17	4	9	4
631.122	n/a	PROB	315561	n/a	LTP229	ltpFR2	1	n/a	n/a	n/a	3	21	9	7	7
634.268	n/a	PROB	317134	n/a	LTP229	ltpFR2	1	n/a	n/a	n/a	3	18	8	3	7
635.874	n/a	PROB	317937	n/a	LTP229	ltpFR2	1	n/a	n/a	n/a	3	17	7	7	3
637.73	n/a	PROB	318865	n/a	LTP229	ltpFR2	1	n/a	n/a	n/a	3	13	3	7	3
639.27	n/a	PROB	319635	n/a	LTP229	ltpFR2	1	n/a	n/a	n/a	3	12	2	4	6
641.016	n/a	PROB	320508	n/a	LTP229	ltpFR2	1	n/a	n/a	n/a	3	17	8	1	8
642.548	n/a	PROB	321274	n/a	LTP229	ltpFR2	1	n/a	n/a	n/a	3	15	5	8	9
643.926	n/a	PROB	321963	n/a	LTP229	ltpFR2	1	n/a	n/a	n/a	3	13	3	5	5
645.592	n/a	PROB	322796	n/a	LTP229	ltpFR2	1	n/a	n/a	n/a	3	14	9	4	4
650.538	n/a	STOP	325269	n/a	LTP229	ltpFR2	1	n/a	n/a	n/a	3	n/a	n/a	n/a	n/a
652.488	n/a	REC_START	326244	n/a	LTP229	ltpFR2	1	2	n/a	n/a	n/a	n/a	0	0	0
655.106	n/a	REC_WORD	327553	wordpools/wasnorm_wordpool_576.txt	LTP229	ltpFR2	1	2	CATTLE	261	n/a	n/a	0	0	0
657.502	n/a	REC_WORD	328751	wordpools/wasnorm_wordpool_576.txt	LTP229	ltpFR2	1	2	OX	994	n/a	n/a	0	0	0
660.728	n/a	REC_WORD	330364	wordpools/wasnorm_wordpool_576.txt	LTP229	ltpFR2	1	2	CAMEL	223	n/a	n/a	0	0	0
667.076	n/a	REC_WORD	333538	wordpools/wasnorm_wordpool_576.txt	LTP229	ltpFR2	1	2	WASP	1593	n/a	n/a	0	0	0
669.666	n/a	REC_WORD	334833	wordpools/wasnorm_wordpool_576.txt	LTP229	ltpFR2	1	2	LONDON	843	n/a	n/a	0	0	0
672.968	n/a	REC_WORD	336484	wordpools/wasnorm_wordpool_576.txt	LTP229	ltpFR2	1	2	BANQUET	86	n/a	n/a	0	0	0
676.534	n/a	REC_WORD	338267	wordpools/wasnorm_wordpool_576.txt	LTP229	ltpFR2	1	2	THRONE	1461	n/a	n/a	0	0	0
682.852	n/a	REC_WORD	341426	wordpools/wasnorm_wordpool_576.txt	LTP229	ltpFR2	1	2	POISON	1096	n/a	n/a	0	0	0
685.736	n/a	REC_WORD	342868	wordpools/wasnorm_wordpool_576.txt	LTP229	ltpFR2	1	2	TERMITE	1451	n/a	n/a	0	0	0
688.982	n/a	REC_WORD	344491	wordpools/wasnorm_wordpool_576.txt	LTP229	ltpFR2	1	2	LIZARD	834	n/a	n/a	0	0	0
693.28	n/a	REC_WORD	346640	wordpools/wasnorm_wordpool_576.txt	LTP229	ltpFR2	1	2	SALAD	1224	n/a	n/a	0	0	0
696.646	n/a	REC_WORD	348323	wordpools/wasnorm_wordpool_576.txt	LTP229	ltpFR2	1	2	PUDDING	1139	n/a	n/a	0	0	0
699.812	n/a	REC_WORD	349906	wordpools/wasnorm_wordpool_576.txt	LTP229	ltpFR2	1	2	DIME	466	n/a	n/a	0	0	0
722.318	n/a	REC_WORD	361159	wordpools/wasnorm_wordpool_576.txt	LTP229	ltpFR2	1	2	CLOTHES	327	n/a	n/a	0	0	0
725.068	n/a	REC_WORD	362534	wordpools/wasnorm_wordpool_576.txt	LTP229	ltpFR2	1	2	DENIM	446	n/a	n/a	0	0	0
743.54	n/a	DISTRACTOR	371770	n/a	LTP229	ltpFR2	1	3	n/a	n/a	n/a	n/a	0	0	0
743.54	n/a	START	371770	n/a	LTP229	ltpFR2	1	n/a	n/a	n/a	4	n/a	n/a	n/a	n/a
743.59	n/a	PROB	371795	n/a	LTP229	ltpFR2	1	n/a	n/a	n/a	4	9	4	2	3
746.486	n/a	PROB	373243	n/a	LTP229	ltpFR2	1	n/a	n/a	n/a	4	15	4	7	6
748.186	n/a	PROB	374093	n/a	LTP229	ltpFR2	1	n/a	n/a	n/a	4	18	4	8	7
750.312	n/a	PROB	375156	n/a	LTP229	ltpFR2	1	n/a	n/a	n/a	4	21	4	8	9
753.188	n/a	PROB	376594	n/a	LTP229	ltpFR2	1	n/a	n/a	n/a	4	10	3	1	6
754.878	n/a	PROB	377439	n/a	LTP229	ltpFR2	1	n/a	n/a	n/a	4	14	9	6	7
758.242	n/a	PROB	379121	n/a	LTP229	ltpFR2	1	n/a	n/a	n/a	4	14	3	9	2
760.756	n/a	PROB	380378	n/a	LTP229	ltpFR2	1	n/a	n/a	n/a	4	20	9	2	9
762.982	n/a	PROB	381491	n/a	LTP229	ltpFR2	1	n/a	n/a	n/a	4	26	8	9	9
765.218	n/a	PROB	382609	n/a	LTP229	ltpFR2	1	n/a	n/a	n/a	4	18	5	8	5
766.53	n/a	STOP	383265	n/a	LTP229	ltpFR2	1	n/a	n/a	n/a	4	n/a	n/a	n/a	n/a
768.704	n/a	WORD	384352	wordpools/wasnorm_wordpool_576.txt	LTP229	ltpFR2	1	3	PAIL	1002	n/a	n/a	0	0	0
771.364	n/a	WORD	385682	wordpools/wasnorm_wordpool_576.txt	LTP229	ltpFR2	1	3	FRAGRANCE	599	n/a	n/a	0	0	0
773.79	n/a	WORD	386895	wordpools/wasnorm_wordpool_576.txt	LTP229	ltpFR2	1	3	BRANDY	169	n/a	n/a	0	0	0
776.434	n/a	WORD	388217	wordpools/wasnorm_wordpool_576.txt	LTP229	ltpFR2	1	3	HIKER	708	n/a	n/a	0	0	0
779.07	n/a	WORD	389535	wordpools/wasnorm_wordpool_576.txt	LTP229	ltpFR2	1	3	DRIVER	499	n/a	n/a	0	0	0
781.518	n/a	WORD	390759	wordpools/wasnorm_wordpool_576.txt	LTP229	ltpFR2	1	3	ZEBRA	1635	n/a	n/a	0	0	0
784.062	n/a	WORD	392031	wordpools/wasnorm_wordpool_576.txt	LTP229	ltpFR2	1	3	LAMP	798	n/a	n/a	0	0	0
786.604	n/a	WORD	393302	wordpools/wasnorm_wordpool_576.txt	LTP229	ltpFR2	1	3	ROBBER	1197	n/a	n/a	0	0	0
789.06	n/a	WORD	394530	wordpools/wasnorm_wordpool_576.txt	LTP229	ltpFR2	1	3	MEDAL	885	n/a	n/a	0	0	0
791.524	n/a	WORD	395762	wordpools/wasnorm_wordpool_576.txt	LTP229	ltpFR2	1	3	PLAZA	1088	n/a	n/a	0	0	0
794.334	n/a	WORD	397167	wordpools/wasnorm_wordpool_576.txt	LTP229	ltpFR2	1	3	SHERIFF	1284	n/a	n/a	0	0	0
796.906	n/a	WORD	398453	wordpools/wasnorm_wordpool_576.txt	LTP229	ltpFR2	1	3	SPIDER	1351	n/a	n/a	0	0	0
799.37	n/a	WORD	399685	wordpools/wasnorm_wordpool_576.txt	LTP229	ltpFR2	1	3	TROMBONE	1508	n/a	n/a	0	0	0
801.998	n/a	WORD	400999	wordpools/wasnorm_wordpool_576.txt	LTP229	ltpFR2	1	3	GUITAR	670	n/a	n/a	0	0	0
804.618	n/a	WORD	402309	wordpools/wasnorm_wordpool_576.txt	LTP229	ltpFR2	1	3	VIKING	1565	n/a	n/a	0	0	0
807.078	n/a	WORD	403539	wordpools/wasnorm_wordpool_576.txt	LTP229	ltpFR2	1	3	PERFUME	1049	n/a	n/a	0	0	0
809.672	n/a	WORD	404836	wordpools/wasnorm_wordpool_576.txt	LTP229	ltpFR2	1	3	CLAM	315	n/a	n/a	0	0	0
812.254	n/a	WORD	406127	wordpools/wasnorm_wordpool_576.txt	LTP229	ltpFR2	1	3	SEAGULL	1261	n/a	n/a	0	0	0
814.864	n/a	WORD	407432	wordpools/wasnorm_wordpool_576.txt	LTP229	ltpFR2	1	3	MARS	873	n/a	n/a	0	0	0
817.484	n/a	WORD	408742	wordpools/wasnorm_wordpool_576.txt	LTP229	ltpFR2	1	3	SLIDE	1326	n/a	n/a	0	0	0
820.296	n/a	WORD	410148	wordpools/wasnorm_wordpool_576.txt	LTP229	ltpFR2	1	3	MASK	876	n/a	n/a	0	0	0
822.794	n/a	WORD	411397	wordpools/wasnorm_wordpool_576.txt	LTP229	ltpFR2	1	3	PALACE	1006	n/a	n/a	0	0	0
825.516	n/a	WORD	412758	wordpools/wasnorm_wordpool_576.txt	LTP229	ltpFR2	1	3	OYSTER	995	n/a	n/a	0	0	0
827.992	n/a	WORD	413996	wordpools/wasnorm_wordpool_576.txt	LTP229	ltpFR2	1	3	SEAFOOD	1260	n/a	n/a	0	0	0
829.602	n/a	START	414801	n/a	LTP229	ltpFR2	1	n/a	n/a	n/a	5	n/a	n/a	n/a	n/a
830.748	n/a	DISTRACTOR	415374	n/a	LTP229	ltpFR2	1	3	n/a	n/a	n/a	n/a	0	0	0
830.758	n/a	PROB	415379	n/a	LTP229	ltpFR2	1	n/a	n/a	n/a	5	15	5	7	9
832.514	n/a	PROB	416257	n/a	LTP229	ltpFR2	1	n/a	n/a	n/a	5	11	1	8	2
833.864	n/a	PROB	416932	n/a	LTP229	ltpFR2	1	n/a	n/a	n/a	5	17	8	1	8
835.286	n/a	PROB	417643	n/a	LTP229	ltpFR2	1	n/a	n/a	n/a	5	21	4	9	8
837.818	n/a	PROB	418909	n/a	LTP229	ltpFR2	1	n/a	n/a	n/a	5	12	7	4	1
840.496	n/a	PROB	420248	n/a	LTP229	ltpFR2	1	n/a	n/a	n/a	5	18	8	5	4
843.506	n/a	PROB	421753	n/a	LTP229	ltpFR2	1	n/a	n/a	n/a	5	7	1	4	2
846.446	n/a	PROB	423223	n/a	LTP229	ltpFR2	1	n/a	n/a	n/a	5	15	6	2	5
850.232	n/a	PROB	425116	n/a	LTP229	ltpFR2	1	n/a	n/a	n/a	5	17	4	8	5
852.63	n/a	STOP	426315	n/a	LTP229	ltpFR2	1	n/a	n/a	n/a	5	n/a	n/a	n/a	n/a
855.396	n/a	REC_START	427698	n/a	LTP229	ltpFR2	1	3	n/a	n/a	n/a	n/a	0	0	0
857.706	n/a	REC_WORD	428853	wordpools/wasnorm_wordpool_576.txt	LTP229	ltpFR2	1	3	OYSTER	995	n/a	n/a	0	0	0
860.392	n/a	REC_WORD	430196	wordpools/wasnorm_wordpool_576.txt	LTP229	ltpFR2	1	3	SEAFOOD	1260	n/a	n/a	0	0	0
863.852	n/a	REC_WORD	431926	wordpools/wasnorm_wordpool_576.txt	LTP229	ltpFR2	1	3	BRANDY	169	n/a	n/a	0	0	0
866.724	n/a	REC_WORD	433362	wordpools/wasnorm_wordpool_576.txt	LTP229	ltpFR2	1	3	PAIL	1002	n/a	n/a	0	0	0
870.926	n/a	REC_WORD	435463	wordpools/wasnorm_wordpool_576.txt	LTP229	ltpFR2	1	3	FRAGRANCE	599	n/a	n/a	0	0	0
875.864	n/a	REC_WORD	437932	wordpools/wasnorm_wordpool_576.txt	LTP229	ltpFR2	1	3	PERFUME	1049	n/a	n/a	0	0	0
891.7	n/a	REC_WORD	445850	wordpools/wasnorm_wordpool_576.txt	LTP229	ltpFR2	1	3	CRITIC	410	n/a	n/a	0	0	0
894.532	n/a	REC_WORD	447266	wordpools/wasnorm_wordpool_576.txt	LTP229	ltpFR2	1	3	ATLAS	53	n/a	n/a	0	0	0
946.416	n/a	DISTRACTOR	473208	n/a	LTP229	ltpFR2	1	4	n/a	n/a	n/a	n/a	0	0	0
946.416	n/a	START	473208	n/a	LTP229	ltpFR2	1	n/a	n/a	n/a	6	n/a	n/a	n/a	n/a
946.466	n/a	PROB	473233	n/a	LTP229	ltpFR2	1	n/a	n/a	n/a	6	18	4	9	5
948.802	n/a	PROB	474401	n/a	LTP229	ltpFR2	1	n/a	n/a	n/a	6	16	7	4	5
952.032	n/a	PROB	476016	n/a	LTP229	ltpFR2	1	n/a	n/a	n/a	6	25	9	9	7
954.766	n/a	PROB	477383	n/a	LTP229	ltpFR2	1	n/a	n/a	n/a	6	14	4	4	6
956.404	n/a	PROB	478202	n/a	LTP229	ltpFR2	1	n/a	n/a	n/a	6	12	6	3	3
958.664	n/a	PROB	479332	n/a	LTP229	ltpFR2	1	n/a	n/a	n/a	6	13	4	4	5
960.932	n/a	PROB	480466	n/a	LTP229	ltpFR2	1	n/a	n/a	n/a	6	15	9	6	8
962.522	n/a	PROB	481261	n/a	LTP229	ltpFR2	1	n/a	n/a	n/a	6	18	5	8	5
963.894	n/a	PROB	481947	n/a	LTP229	ltpFR2	1	n/a	n/a	n/a	6	15	8	1	5
968.718	n/a	PROB	484359	n/a	LTP229	ltpFR2	1	n/a	n/a	n/a	6	12	2	2	8
969.99	n/a	STOP	484995	n/a	LTP229	ltpFR2	1	n/a	n/a	n/a	6	n/a	n/a	n/a	n/a
971.562	n/a	WORD	485781	wordpools/wasnorm_wordpool_576.txt	LTP229	ltpFR2	1	4	FRUIT	610	n/a	n/a	0	0	0
974.14	n/a	WORD	487070	wordpools/wasnorm_wordpool_576.txt	LTP229	ltpFR2	1	4	YACHT	1629	n/a	n/a	0	0	0
976.882	n/a	WORD	488441	wordpools/wasnorm_wordpool_576.txt	LTP229	ltpFR2	1	4	ARM	38	n/a	n/a	0	0	0
979.404	n/a	WORD	489702	wordpools/wasnorm_wordpool_576.txt	LTP229	ltpFR2	1	4	PEBBLE	1035	n/a	n/a	0	0	0
981.952	n/a	WORD	490976	wordpools/wasnorm_wordpool_576.txt	LTP229	ltpFR2	1	4	MUFFIN	929	n/a	n/a	0	0	0
984.512	n/a	WORD	492256	wordpools/wasnorm_wordpool_576.txt	LTP229	ltpFR2	1	4	ICING	732	n/a	n/a	0	0	0
987.038	n/a	WORD	493519	wordpools/wasnorm_wordpool_576.txt	LTP229	ltpFR2	1	4	PUDDLE	1140	n/a	n/a	0	0	0
989.726	n/a	WORD	494863	wordpools/wasnorm_wordpool_576.txt	LTP229	ltpFR2	1	4	BATHTUB	100	n/a	n/a	0	0	0
992.158	n/a	WORD	496079	wordpools/wasnorm_wordpool_576.txt	LTP229	ltpFR2	1	4	MILDEW	893	n/a	n/a	0	0	0
994.718	n/a	WORD	497359	wordpools/wasnorm_wordpool_576.txt	LTP229	ltpFR2	1	4	CHURCH	307	n/a	n/a	0	0	0
997.288	n/a	WORD	498644	wordpools/wasnorm_wordpool_576.txt	LTP229	ltpFR2	1	4	BUTCHER	203	n/a	n/a	0	0	0
999.782	n/a	WORD	499891	wordpools/wasnorm_wordpool_576.txt	LTP229	ltpFR2	1	4	COURSE	390	n/a	n/a	0	0	0
1002.558	n/a	WORD	501279	wordpools/wasnorm_wordpool_576.txt	LTP229	ltpFR2	1	4	NIGHTGOWN	953	n/a	n/a	0	0	0
1005.158	n/a	WORD	502579	wordpools/wasnorm_wordpool_576.txt	LTP229	ltpFR2	1	4	SURVEY	1414	n/a	n/a	0	0	0
1007.862	n/a	WORD	503931	wordpools/wasnorm_wordpool_576.txt	LTP229	ltpFR2	1	4	STAMP	1370	n/a	n/a	0	0	0
1010.294	n/a	WORD	505147	wordpools/wasnorm_wordpool_576.txt	LTP229	ltpFR2	1	4	GREASE	660	n/a	n/a	0	0	0
1013.104	n/a	WORD	506552	wordpools/wasnorm_wordpool_576.txt	LTP229	ltpFR2	1	4	FOREHEAD	592	n/a	n/a	0	0	0
1015.848	n/a	WORD	507924	wordpools/wasnorm_wordpool_576.txt	LTP229	ltpFR2	1	4	FRECKLE	602	n/a	n/a	0	0	0
1018.342	n/a	WORD	509171	wordpools/wasnorm_wordpool_576.txt	LTP229	ltpFR2	1	4	LIGHTNING	820	n/a	n/a	0	0	0
1020.946	n/a	WORD	510473	wordpools/wasnorm_wordpool_576.txt	LTP229	ltpFR2	1	4	GLOBE	641	n/a	n/a	0	0	0
1023.444	n/a	WORD	511722	wordpools/wasnorm_wordpool_576.txt	LTP229	ltpFR2	1	4	SHELTER	1282	n/a	n/a	0	0	0
1026.048	n/a	WORD	513024	wordpools/wasnorm_wordpool_576.txt	LTP229	ltpFR2	1	4	CROSS	413	n/a	n/a	0	0	0
1028.848	n/a	WORD	514424	wordpools/wasnorm_wordpool_576.txt	LTP229	ltpFR2	1	4	TRUCK	1512	n/a	n/a	0	0	0
1031.358	n/a	WORD	515679	wordpools/wasnorm_wordpool_576.txt	LTP229	ltpFR2	1	4	GRAPE	654	n/a	n/a	0	0	0
1032.976	n/a	START	516488	n/a	LTP229	ltpFR2	1	n/a	n/a	n/a	7	n/a	n/a	n/a	n/a
1033.908	n/a	DISTRACTOR	516954	n/a	LTP229	ltpFR2	1	4	n/a	n/a	n/a	n/a	0	0	0
1033.918	n/a	PROB	516959	n/a	LTP229	ltpFR2	1	n/a	n/a	n/a	7	21	8	5	8
1036.79	n/a	PROB	518395	n/a	LTP229	ltpFR2	1	n/a	n/a	n/a	7	16	4	6	6
1038.496	n/a	PROB	519248	n/a	LTP229	ltpFR2	1	n/a	n/a	n/a	7	15	6	9	5
1040.168	n/a	PROB	520084	n/a	LTP229	ltpFR2	1	n/a	n/a	n/a	7	17	4	4	9
1042.468	n/a	PROB	521234	n/a	LTP229	ltpFR2	1	n/a	n/a	n/a	7	10	4	5	1
1043.918	n/a	PROB	521959	n/a	LTP229	ltpFR2	1	n/a	n/a	n/a	7	16	5	8	3
1046.476	n/a	PROB	523238	n/a	LTP229	ltpFR2	1	n/a	n/a	n/a	7	13	6	4	3
1047.754	n/a	PROB	523877	n/a	LTP229	ltpFR2	1	n/a	n/a	n/a	7	15	9	6	5
1049.136	n/a	PROB	524568	n/a	LTP229	ltpFR2	1	n/a	n/a	n/a	7	11	2	4	5
1051.212	n/a	PROB	525606	n/a	LTP229	ltpFR2	1	n/a	n/a	n/a	7	11	4	3	4
1053.32	n/a	PROB	526660	n/a	LTP229	ltpFR2	1	n/a	n/a	n/a	7	19	9	2	8
1056.976	n/a	STOP	528488	n/a	LTP229	ltpFR2	1	n/a	n/a	n/a	7	n/a	n/a	n/a	n/a
1058.864	n/a	REC_START	529432	n/a	LTP229	ltpFR2	1	4	n/a	n/a	n/a	n/a	0	0	0
1060.54	n/a	REC_WORD	530270	wordpools/wasnorm_wordpool_576.txt	LTP229	ltpFR2	1	4	YACHT	1629	n/a	n/a	0	0	0
1062.442	n/a	REC_WORD	531221	wordpools/wasnorm_wordpool_576.txt	LTP229	ltpFR2	1	4	SHELTER	1282	n/a	n/a	0	0	0
1065.062	n/a	REC_WORD	532531	wordpools/wasnorm_wordpool_576.txt	LTP229	ltpFR2	1	4	GLOBE	641	n/a	n/a	0	0	0
1069.594	n/a	REC_WORD	534797	wordpools/wasnorm_wordpool_576.txt	LTP229	ltpFR2	1	4	CROSS	413	n/a	n/a	0	0	0
1072.804	n/a	REC_WORD	536402	wordpools/wasnorm_wordpool_576.txt	LTP229	ltpFR2	1	4	CHURCH	307	n/a	n/a	0	0	0
1075.99	n/a	REC_WORD	537995	wordpools/wasnorm_wordpool_576.txt	LTP229	ltpFR2	1	4	BUTCHER	203	n/a	n/a	0	0	0
1079.01	n/a	REC_WORD	539505	wordpools/wasnorm_wordpool_576.txt	LTP229	ltpFR2	1	4	COURSE	390	n/a	n/a	0	0	0
1149.91	n/a	DISTRACTOR	574955	n/a	LTP229	ltpFR2	1	5	n/a	n/a	n/a	n/a	0	0	0
1149.91	n/a	START	574955	n/a	LTP229	ltpFR2	1	n/a	n/a	n/a	8	n/a	n/a	n/a	n/a
1149.96	n/a	PROB	574980	n/a	LTP229	ltpFR2	1	n/a	n/a	n/a	8	8	1	1	6
1151.444	n/a	PROB	575722	n/a	LTP229	ltpFR2	1	n/a	n/a	n/a	8	16	8	3	5
1153.056	n/a	PROB	576528	n/a	LTP229	ltpFR2	1	n/a	n/a	n/a	8	20	4	8	8
1155.648	n/a	PROB	577824	n/a	LTP229	ltpFR2	1	n/a	n/a	n/a	8	10	7	1	2
1159.91	n/a	PROB	579955	n/a	LTP229	ltpFR2	1	n/a	n/a	n/a	8	17	8	4	5
1162.224	n/a	PROB	581112	n/a	LTP229	ltpFR2	1	n/a	n/a	n/a	8	14	1	6	7
1163.774	n/a	PROB	581887	n/a	LTP229	ltpFR2	1	n/a	n/a	n/a	8	11	1	6	4
1164.968	n/a	PROB	582484	n/a	LTP229	ltpFR2	1	n/a	n/a	n/a	8	9	3	5	1
1166.274	n/a	PROB	583137	n/a	LTP229	ltpFR2	1	n/a	n/a	n/a	8	25	8	9	8
1168.744	n/a	PROB	584372	n/a	LTP229	ltpFR2	1	n/a	n/a	n/a	8	9	1	3	5
1171.286	n/a	PROB	585643	n/a	LTP229	ltpFR2	1	n/a	n/a	n/a	8	13	1	9	3
1172.976	n/a	STOP	586488	n/a	LTP229	ltpFR2	1	n/a	n/a	n/a	8	n/a	n/a	n/a	n/a
1174.918	n/a	WORD	587459	wordpools/wasnorm_wordpool_576.txt	LTP229	ltpFR2	1	5	PENGUIN	1044	n/a	n/a	0	0	0
1177.35	n/a	WORD	588675	wordpools/wasnorm_wordpool_576.txt	LTP229	ltpFR2	1	5	ROBIN	1199	n/a	n/a	0	0	0
1179.936	n/a	WORD	589968	wordpools/wasnorm_wordpool_576.txt	LTP229	ltpFR2	1	5	POLICE	1098	n/a	n/a	0	0	0
1182.72	n/a	WORD	591360	wordpools/wasnorm_wordpool_576.txt	LTP229	ltpFR2	1	5	SLIME	1327	n/a	n/a	0	0	0
1185.306	n/a	WORD	592653	wordpools/wasnorm_wordpool_576.txt	LTP229	ltpFR2	1	5	CLOUD	328	n/a	n/a	0	0	0
1188.09	n/a	WORD	594045	wordpools/wasnorm_wordpool_576.txt	LTP229	ltpFR2	1	5	SNAIL	1332	n/a	n/a	0	0	0
1190.896	n/a	WORD	595448	wordpools/wasnorm_wordpool_576.txt	LTP229	ltpFR2	1	5	BISON	131	n/a	n/a	0	0	0
1193.36	n/a	WORD	596680	wordpools/wasnorm_wordpool_576.txt	LTP229	ltpFR2	1	5	EAGLE	512	n/a	n/a	0	0	0
1195.83	n/a	WORD	597915	wordpools/wasnorm_wordpool_576.txt	LTP229	ltpFR2	1	5	PARSLEY	1016	n/a	n/a	0	0	0
1198.424	n/a	WORD	599212	wordpools/wasnorm_wordpool_576.txt	LTP229	ltpFR2	1	5	RATTLE	1170	n/a	n/a	0	0	0
1201.134	n/a	WORD	600567	wordpools/wasnorm_wordpool_576.txt	LTP229	ltpFR2	1	5	FLESH	579	n/a	n/a	0	0	0
1203.728	n/a	WORD	601864	wordpools/wasnorm_wordpool_576.txt	LTP229	ltpFR2	1	5	WORLD	1622	n/a	n/a	0	0	0
1206.242	n/a	WORD	603121	wordpools/wasnorm_wordpool_576.txt	LTP229	ltpFR2	1	5	SUBWAY	1400	n/a	n/a	0	0	0
1208.836	n/a	WORD	604418	wordpools/wasnorm_wordpool_576.txt	LTP229	ltpFR2	1	5	PRIMATE	1123	n/a	n/a	0	0	0
1211.262	n/a	WORD	605631	wordpools/wasnorm_wordpool_576.txt	LTP229	ltpFR2	1	5	BELLY	119	n/a	n/a	0	0	0
1213.772	n/a	WORD	606886	wordpools/wasnorm_wordpool_576.txt	LTP229	ltpFR2	1	5	CHAMPAGNE	278	n/a	n/a	0	0	0
1216.282	n/a	WORD	608141	wordpools/wasnorm_wordpool_576.txt	LTP229	ltpFR2	1	5	JUNGLE	764	n/a	n/a	0	0	0
1219.092	n/a	WORD	609546	wordpools/wasnorm_wordpool_576.txt	LTP229	ltpFR2	1	5	VENUS	1557	n/a	n/a	0	0	0
1221.846	n/a	WORD	610923	wordpools/wasnorm_wordpool_576.txt	LTP229	ltpFR2	1	5	CANDY	230	n/a	n/a	0	0	0
1224.478	n/a	WORD	612239	wordpools/wasnorm_wordpool_576.txt	LTP229	ltpFR2	1	5	PASTRY	1022	n/a	n/a	0	0	0
1227.016	n/a	WORD	613508	wordpools/wasnorm_wordpool_576.txt	LTP229	ltpFR2	1	5	PLAID	1080	n/a	n/a	0	0	0
1229.632	n/a	WORD	614816	wordpools/wasnorm_wordpool_576.txt	LTP229	ltpFR2	1	5	SUSPECT	1415	n/a	n/a	0	0	0
1232.142	n/a	WORD	616071	wordpools/wasnorm_wordpool_576.txt	LTP229	ltpFR2	1	5	GRILL	661	n/a	n/a	0	0	0
1234.786	n/a	WORD	617393	wordpools/wasnorm_wordpool_576.txt	LTP229	ltpFR2	1	5	BUNNY	198	n/a	n/a	0	0	0
1236.402	n/a	START	618201	n/a	LTP229	ltpFR2	1	n/a	n/a	n/a	9	n/a	n/a	n/a	n/a
1237.316	n/a	DISTRACTOR	618658	n/a	LTP229	ltpFR2	1	5	n/a	n/a	n/a	n/a	0	0	0
1237.328	n/a	PROB	618664	n/a	LTP229	ltpFR2	1	n/a	n/a	n/a	9	10	3	4	3
1239.112	n/a	PROB	619556	n/a	LTP229	ltpFR2	1	n/a	n/a	n/a	9	14	7	6	1
1240.452	n/a	PROB	620226	n/a	LTP229	ltpFR2	1	n/a	n/a	n/a	9	7	1	1	5
1242.258	n/a	PROB	621129	n/a	LTP229	ltpFR2	1	n/a	n/a	n/a	9	15	1	7	9
1244.784	n/a	PROB	622392	n/a	LTP229	ltpFR2	1	n/a	n/a	n/a	9	16	9	6	1
1249.118	n/a	PROB	624559	n/a	LTP229	ltpFR2	1	n/a	n/a	n/a	9	10	8	1	1
1251.61	n/a	PROB	625805	n/a	LTP229	ltpFR2	1	n/a	n/a	n/a	9	13	3	3	7
1254.494	n/a	PROB	627247	n/a	LTP229	ltpFR2	1	n/a	n/a	n/a	9	20	7	6	7
1257.048	n/a	PROB	628524	n/a	LTP229	ltpFR2	1	n/a	n/a	n/a	9	14	5	5	4
1258.336	n/a	PROB	629168	n/a	LTP229	ltpFR2	1	n/a	n/a	n/a	9	19	9	4	6
1259.836	n/a	STOP	629918	n/a	LTP229	ltpFR2	1	n/a	n/a	n/a	9	n/a	n/a	n/a	n/a
1262.318	n/a	REC_START	631159	n/a	LTP229	ltpFR2	1	5	n/a	n/a	n/a	n/a	0	0	0
1271.818	n/a	REC_WORD	635909	wordpools/wasnorm_wordpool_576.txt	LTP229	ltpFR2	1	5	PENGUIN	1044	n/a	n/a	0	0	0
1280.528	n/a	REC_WORD	640264	wordpools/wasnorm_wordpool_576.txt	LTP229	ltpFR2	1	5	RATTLE	1170	n/a	n/a	0	0	0
1353.372	n/a	DISTRACTOR	676686	n/a	LTP229	ltpFR2	1	6	n/a	n/a	n/a	n/a	0	0	0
1353.372	n/a	START	676686	n/a	LTP229	ltpFR2	1	n/a	n/a	n/a	10	n/a	n/a	n/a	n/a
1353.422	n/a	PROB	676711	n/a	LTP229	ltpFR2	1	n/a	n/a	n/a	10	12	1	6	5
1356.3	n/a	PROB	678150	n/a	LTP229	ltpFR2	1	n/a	n/a	n/a	10	15	5	7	3
1357.614	n/a	PROB	678807	n/a	LTP229	ltpFR2	1	n/a	n/a	n/a	10	12	1	3	8
1359.278	n/a	PROB	679639	n/a	LTP229	ltpFR2	1	n/a	n/a	n/a	10	18	4	7	5
1361.916	n/a	PROB	680958	n/a	LTP229	ltpFR2	1	n/a	n/a	n/a	10	14	5	8	1
1367.336	n/a	PROB	683668	n/a	LTP229	ltpFR2	1	n/a	n/a	n/a	10	20	5	8	7
1371.1	n/a	PROB	685550	n/a	LTP229	ltpFR2	1	n/a	n/a	n/a	10	17	7	7	3
1373.292	n/a	PROB	686646	n/a	LTP229	ltpFR2	1	n/a	n/a	n/a	10	13	5	6	2
1376.052	n/a	STOP	688026	n/a	LTP229	ltpFR2	1	n/a	n/a	n/a	10	n/a	n/a	n/a	n/a
1378.384	n/a	WORD	689192	wordpools/wasnorm_wordpool_576.txt	LTP229	ltpFR2	1	6	SLOPE	1328	n/a	n/a	0	0	0
1380.944	n/a	WORD	690472	wordpools/wasnorm_wordpool_576.txt	LTP229	ltpFR2	1	6	CLIMBER	323	n/a	n/a	0	0	0
1383.688	n/a	WORD	691844	wordpools/wasnorm_wordpool_576.txt	LTP229	ltpFR2	1	6	GHETTO	633	n/a	n/a	0	0	0
1386.432	n/a	WORD	693216	wordpools/wasnorm_wordpool_576.txt	LTP229	ltpFR2	1	6	BLOCKADE	137	n/a	n/a	0	0	0
1389.018	n/a	WORD	694509	wordpools/wasnorm_wordpool_576.txt	LTP229	ltpFR2	1	6	ATOM	55	n/a	n/a	0	0	0
1391.616	n/a	WORD	695808	wordpools/wasnorm_wordpool_576.txt	LTP229	ltpFR2	1	6	AUTHOR	61	n/a	n/a	0	0	0
1394.078	n/a	WORD	697039	wordpools/wasnorm_wordpool_576.txt	LTP229	ltpFR2	1	6	MAPLE	866	n/a	n/a	0	0	0
1396.586	n/a	WORD	698293	wordpools/wasnorm_wordpool_576.txt	LTP229	ltpFR2	1	6	FIREPLACE	570	n/a	n/a	0	0	0
1399.364	n/a	WORD	699682	wordpools/wasnorm_wordpool_576.txt	LTP229	ltpFR2	1	6	DRILL	497	n/a	n/a	0	0	0
1402.136	n/a	WORD	701068	wordpools/wasnorm_wordpool_576.txt	LTP229	ltpFR2	1	6	FOREST	593	n/a	n/a	0	0	0
1404.952	n/a	WORD	702476	wordpools/wasnorm_wordpool_576.txt	LTP229	ltpFR2	1	6	MUSTARD	935	n/a	n/a	0	0	0
1407.594	n/a	WORD	703797	wordpools/wasnorm_wordpool_576.txt	LTP229	ltpFR2	1	6	PORK	1108	n/a	n/a	0	0	0
1410.272	n/a	WORD	705136	wordpools/wasnorm_wordpool_576.txt	LTP229	ltpFR2	1	6	XEROX	1628	n/a	n/a	0	0	0
1412.848	n/a	WORD	706424	wordpools/wasnorm_wordpool_576.txt	LTP229	ltpFR2	1	6	POSTAGE	1113	n/a	n/a	0	0	0
1415.392	n/a	WORD	707696	wordpools/wasnorm_wordpool_576.txt	LTP229	ltpFR2	1	6	OFFICE	972	n/a	n/a	0	0	0
1417.97	n/a	WORD	708985	wordpools/wasnorm_wordpool_576.txt	LTP229	ltpFR2	1	6	EXPERT	543	n/a	n/a	0	0	0
1420.656	n/a	WORD	710328	wordpools/wasnorm_wordpool_576.txt	LTP229	ltpFR2	1	6	COSTUME	383	n/a	n/a	0	0	0
1423.206	n/a	WORD	711603	wordpools/wasnorm_wordpool_576.txt	LTP229	ltpFR2	1	6	THIEF	1456	n/a	n/a	0	0	0
1425.676	n/a	WORD	712838	wordpools/wasnorm_wordpool_576.txt	LTP229	ltpFR2	1	6	BEAKER	104	n/a	n/a	0	0	0
1428.358	n/a	WORD	714179	wordpools/wasnorm_wordpool_576.txt	LTP229	ltpFR2	1	6	PORTRAIT	1111	n/a	n/a	0	0	0
1431.052	n/a	WORD	715526	wordpools/wasnorm_wordpool_576.txt	LTP229	ltpFR2	1	6	AIRPLANE	12	n/a	n/a	0	0	0
1433.814	n/a	WORD	716907	wordpools/wasnorm_wordpool_576.txt	LTP229	ltpFR2	1	6	DRINK	498	n/a	n/a	0	0	0
1436.356	n/a	WORD	718178	wordpools/wasnorm_wordpool_576.txt	LTP229	ltpFR2	1	6	SHORTS	1293	n/a	n/a	0	0	0
1438.81	n/a	WORD	719405	wordpools/wasnorm_wordpool_576.txt	LTP229	ltpFR2	1	6	BRAKE	166	n/a	n/a	0	0	0
1440.422	n/a	START	720211	n/a	LTP229	ltpFR2	1	n/a	n/a	n/a	11	n/a	n/a	n/a	n/a
1441.364	n/a	DISTRACTOR	720682	n/a	LTP229	ltpFR2	1	6	n/a	n/a	n/a	n/a	0	0	0
1441.374	n/a	PROB	720687	n/a	LTP229	ltpFR2	1	n/a	n/a	n/a	11	13	3	3	5
1443.878	n/a	PROB	721939	n/a	LTP229	ltpFR2	1	n/a	n/a	n/a	11	15	8	2	5
1446.004	n/a	PROB	723002	n/a	LTP229	ltpFR2	1	n/a	n/a	n/a	11	13	4	3	5
1448.328	n/a	PROB	724164	n/a	LTP229	ltpFR2	1	n/a	n/a	n/a	11	8	2	5	1
1450.672	n/a	PROB	725336	n/a	LTP229	ltpFR2	1	n/a	n/a	n/a	11	11	4	4	3
1452.736	n/a	PROB	726368	n/a	LTP229	ltpFR2	1	n/a	n/a	n/a	11	15	4	9	2
1454.676	n/a	PROB	727338	n/a	LTP229	ltpFR2	1	n/a	n/a	n/a	11	18	2	7	9
1456.326	n/a	PROB	728163	n/a	LTP229	ltpFR2	1	n/a	n/a	n/a	11	13	3	7	3
1457.72	n/a	PROB	728860	n/a	LTP229	ltpFR2	1	n/a	n/a	n/a	11	25	9	7	9
1460.13	n/a	PROB	730065	n/a	LTP229	ltpFR2	1	n/a	n/a	n/a	11	17	8	5	4
1462.484	n/a	PROB	731242	n/a	LTP229	ltpFR2	1	n/a	n/a	n/a	11	17	8	4	5
1464.096	n/a	STOP	732048	n/a	LTP229	ltpFR2	1	n/a	n/a	n/a	11	n/a	n/a	n/a	n/a
1466.37	n/a	REC_START	733185	n/a	LTP229	ltpFR2	1	6	n/a	n/a	n/a	n/a	0	0	0
1467.982	n/a	REC_WORD	733991	wordpools/wasnorm_wordpool_576.txt	LTP229	ltpFR2	1	6	AIRPLANE	12	n/a	n/a	0	0	0
1470.122	n/a	REC_WORD	735061	wordpools/wasnorm_wordpool_576.txt	LTP229	ltpFR2	1	6	PORTRAIT	1111	n/a	n/a	0	0	0
1522.682	n/a	REC_WORD	761341	wordpools/wasnorm_wordpool_576.txt	LTP229	ltpFR2	1	6	GHETTO	633	n/a	n/a	0	0	0
1524.648	n/a	REC_WORD	762324	wordpools/wasnorm_wordpool_576.txt	LTP229	ltpFR2	1	6	BLOCKADE	137	n/a	n/a	0	0	0
1527.844	n/a	REC_WORD	763922	wordpools/wasnorm_wordpool_576.txt	LTP229	ltpFR2	1	6	SHERIFF	1284	n/a	n/a	0	0	0
1557.384	n/a	DISTRACTOR	778692	n/a	LTP229	ltpFR2	1	7	n/a	n/a	n/a	n/a	0	0	0
1557.384	n/a	START	778692	n/a	LTP229	ltpFR2	1	n/a	n/a	n/a	12	n/a	n/a	n/a	n/a
1557.436	n/a	PROB	778718	n/a	LTP229	ltpFR2	1	n/a	n/a	n/a	12	22	8	7	7
1560.358	n/a	PROB	780179	n/a	LTP229	ltpFR2	1	n/a	n/a	n/a	12	14	1	4	9
1562.734	n/a	PROB	781367	n/a	LTP229	ltpFR2	1	n/a	n/a	n/a	12	15	3	9	3
1566.23	n/a	PROB	783115	n/a	LTP229	ltpFR2	1	n/a	n/a	n/a	12	7	1	1	5
1567.518	n/a	PROB	783759	n/a	LTP229	ltpFR2	1	n/a	n/a	n/a	12	18	8	8	2
1569.258	n/a	PROB	784629	n/a	LTP229	ltpFR2	1	n/a	n/a	n/a	12	19	7	6	6
1571.638	n/a	PROB	785819	n/a	LTP229	ltpFR2	1	n/a	n/a	n/a	12	9	3	4	2
1573.374	n/a	PROB	786687	n/a	LTP229	ltpFR2	1	n/a	n/a	n/a	12	10	1	6	3
1575.348	n/a	PROB	787674	n/a	LTP229	ltpFR2	1	n/a	n/a	n/a	12	9	2	6	1
1576.72	n/a	PROB	788360	n/a	LTP229	ltpFR2	1	n/a	n/a	n/a	12	11	1	9	1
1577.992	n/a	PROB	788996	n/a	LTP229	ltpFR2	1	n/a	n/a	n/a	12	18	5	7	6
1580.784	n/a	STOP	790392	n/a	LTP229	ltpFR2	1	n/a	n/a	n/a	12	n/a	n/a	n/a	n/a
1582.548	n/a	WORD	791274	wordpools/wasnorm_wordpool_576.txt	LTP229	ltpFR2	1	7	UNCLE	1536	n/a	n/a	0	0	0
1585.226	n/a	WORD	792613	wordpools/wasnorm_wordpool_576.txt	LTP229	ltpFR2	1	7	GRAVEL	659	n/a	n/a	0	0	0
1588.046	n/a	WORD	794023	wordpools/wasnorm_wordpool_576.txt	LTP229	ltpFR2	1	7	NECKLACE	940	n/a	n/a	0	0	0
1590.512	n/a	WORD	795256	wordpools/wasnorm_wordpool_576.txt	LTP229	ltpFR2	1	7	PILOT	1070	n/a	n/a	0	0	0
1593.054	n/a	WORD	796527	wordpools/wasnorm_wordpool_576.txt	LTP229	ltpFR2	1	7	GUARD	667	n/a	n/a	0	0	0
1595.608	n/a	WORD	797804	wordpools/wasnorm_wordpool_576.txt	LTP229	ltpFR2	1	7	OINTMENT	974	n/a	n/a	0	0	0
1598.14	n/a	WORD	799070	wordpools/wasnorm_wordpool_576.txt	LTP229	ltpFR2	1	7	BRANCH	168	n/a	n/a	0	0	0
1600.802	n/a	WORD	800401	wordpools/wasnorm_wordpool_576.txt	LTP229	ltpFR2	1	7	HEDGE	699	n/a	n/a	0	0	0
1603.444	n/a	WORD	801722	wordpools/wasnorm_wordpool_576.txt	LTP229	ltpFR2	1	7	LOVER	846	n/a	n/a	0	0	0
1606.066	n/a	WORD	803033	wordpools/wasnorm_wordpool_576.txt	LTP229	ltpFR2	1	7	TRANSPLANT	1496	n/a	n/a	0	0	0
1608.63	n/a	WORD	804315	wordpools/wasnorm_wordpool_576.txt	LTP229	ltpFR2	1	7	ROCKET	1202	n/a	n/a	0	0	0
1611.14	n/a	WORD	805570	wordpools/wasnorm_wordpool_576.txt	LTP229	ltpFR2	1	7	BULLET	194	n/a	n/a	0	0	0
1613.862	n/a	WORD	806931	wordpools/wasnorm_wordpool_576.txt	LTP229	ltpFR2	1	7	ROBOT	1200	n/a	n/a	0	0	0
1616.372	n/a	WORD	808186	wordpools/wasnorm_wordpool_576.txt	LTP229	ltpFR2	1	7	WASHER	1592	n/a	n/a	0	0	0
1619.054	n/a	WORD	809527	wordpools/wasnorm_wordpool_576.txt	LTP229	ltpFR2	1	7	LUNCH	849	n/a	n/a	0	0	0
1621.748	n/a	WORD	810874	wordpools/wasnorm_wordpool_576.txt	LTP229	ltpFR2	1	7	ONION	977	n/a	n/a	0	0	0
1624.19	n/a	WORD	812095	wordpools/wasnorm_wordpool_576.txt	LTP229	ltpFR2	1	7	KIDNEY	776	n/a	n/a	0	0	0
1627.002	n/a	WORD	813501	wordpools/wasnorm_wordpool_576.txt	LTP229	ltpFR2	1	7	DIVER	476	n/a	n/a	0	0	0
1629.588	n/a	WORD	814794	wordpools/wasnorm_wordpool_576.txt	LTP229	ltpFR2	1	7	HONEY	713	n/a	n/a	0	0	0
1632.22	n/a	WORD	816110	wordpools/wasnorm_wordpool_576.txt	LTP229	ltpFR2	1	7	PLASTER	1085	n/a	n/a	0	0	0
1634.932	n/a	WORD	817466	wordpools/wasnorm_wordpool_576.txt	LTP229	ltpFR2	1	7	COUSIN	392	n/a	n/a	0	0	0
1637.424	n/a	WORD	818712	wordpools/wasnorm_wordpool_576.txt	LTP229	ltpFR2	1	7	SUMMIT	1405	n/a	n/a	0	0	0
1639.912	n/a	WORD	819956	wordpools/wasnorm_wordpool_576.txt	LTP229	ltpFR2	1	7	BROTHER	179	n/a	n/a	0	0	0
1642.454	n/a	WORD	821227	wordpools/wasnorm_wordpool_576.txt	LTP229	ltpFR2	1	7	BRICK	172	n/a	n/a	0	0	0
1644.066	n/a	START	822033	n/a	LTP229	ltpFR2	1	n/a	n/a	n/a	13	n/a	n/a	n/a	n/a
1645.222	n/a	DISTRACTOR	822611	n/a	LTP229	ltpFR2	1	7	n/a	n/a	n/a	n/a	0	0	0
1645.238	n/a	PROB	822619	n/a	LTP229	ltpFR2	1	n/a	n/a	n/a	13	14	8	2	4
1646.554	n/a	PROB	823277	n/a	LTP229	ltpFR2	1	n/a	n/a	n/a	13	15	9	2	4
1648.93	n/a	PROB	824465	n/a	LTP229	ltpFR2	1	n/a	n/a	n/a	13	12	2	5	4
1651.806	n/a	PROB	825903	n/a	LTP229	ltpFR2	1	n/a	n/a	n/a	13	16	9	1	6
1654.686	n/a	PROB	827343	n/a	LTP229	ltpFR2	1	n/a	n/a	n/a	13	8	3	3	2
1656.48	n/a	PROB	828240	n/a	LTP229	ltpFR2	1	n/a	n/a	n/a	13	13	3	3	4
1659.526	n/a	PROB	829763	n/a	LTP229	ltpFR2	1	n/a	n/a	n/a	13	12	7	2	3
1662.62	n/a	PROB	831310	n/a	LTP229	ltpFR2	1	n/a	n/a	n/a	13	18	9	4	6
1665.994	n/a	PROB	832997	n/a	LTP229	ltpFR2	1	n/a	n/a	n/a	13	10	4	1	5
1667.594	n/a	STOP	833797	n/a	LTP229	ltpFR2	1	n/a	n/a	n/a	13	n/a	n/a	n/a	n/a
1669.926	n/a	REC_START	834963	n/a	LTP229	ltpFR2	1	7	n/a	n/a	n/a	n/a	0	0	0
1671.576	n/a	REC_WORD	835788	wordpools/wasnorm_wordpool_576.txt	LTP229	ltpFR2	1	7	UNCLE	1536	n/a	n/a	0	0	0
1673.618	n/a	REC_WORD	836809	wordpools/wasnorm_wordpool_576.txt	LTP229	ltpFR2	1	7	COUSIN	392	n/a	n/a	0	0	0
1676.302	n/a	REC_WORD	838151	wordpools/wasnorm_wordpool_576.txt	LTP229	ltpFR2	1	7	BROTHER	179	n/a	n/a	0	0	0
1684.792	n/a	REC_WORD	842396	wordpools/wasnorm_wordpool_576.txt	LTP229	ltpFR2	1	7	PILOT	1070	n/a	n/a	0	0	0
1687.996	n/a	REC_WORD	843998	wordpools/wasnorm_wordpool_576.txt	LTP229	ltpFR2	1	7	DIVER	476	n/a	n/a	0	0	0
1691.162	n/a	REC_WORD	845581	wordpools/wasnorm_wordpool_576.txt	LTP229	ltpFR2	1	7	ONION	977	n/a	n/a	0	0	0
1693.96	n/a	REC_WORD	846980	wordpools/wasnorm_wordpool_576.txt	LTP229	ltpFR2	1	7	LUNCH	849	n/a	n/a	0	0	0
1702.362	n/a	REC_WORD	851181	wordpools/wasnorm_wordpool_576.txt	LTP229	ltpFR2	1	7	SUMMIT	1405	n/a	n/a	0	0	0
1760.964	n/a	WORD	880482	wordpools/wasnorm_wordpool_576.txt	LTP229	ltpFR2	1	8	BADGE	68	n/a	n/a	0	0	0
1763.44	n/a	WORD	881720	wordpools/wasnorm_wordpool_576.txt	LTP229	ltpFR2	1	8	LADDER	793	n/a	n/a	0	0	0
1766.01	n/a	WORD	883005	wordpools/wasnorm_wordpool_576.txt	LTP229	ltpFR2	1	8	CHEMIST	292	n/a	n/a	0	0	0
1768.486	n/a	WORD	884243	wordpools/wasnorm_wordpool_576.txt	LTP229	ltpFR2	1	8	CITRUS	313	n/a	n/a	0	0	0
1771.036	n/a	WORD	885518	wordpools/wasnorm_wordpool_576.txt	LTP229	ltpFR2	1	8	SWIMMER	1420	n/a	n/a	0	0	0
1773.622	n/a	WORD	886811	wordpools/wasnorm_wordpool_576.txt	LTP229	ltpFR2	1	8	VALVE	1546	n/a	n/a	0	0	0
1776.172	n/a	WORD	888086	wordpools/wasnorm_wordpool_576.txt	LTP229	ltpFR2	1	8	ORANGE	980	n/a	n/a	0	0	0
1778.826	n/a	WORD	889413	wordpools/wasnorm_wordpool_576.txt	LTP229	ltpFR2	1	8	QUEEN	1149	n/a	n/a	0	0	0
1781.402	n/a	WORD	890701	wordpools/wasnorm_wordpool_576.txt	LTP229	ltpFR2	1	8	ACTRESS	6	n/a	n/a	0	0	0
1784.102	n/a	WORD	892051	wordpools/wasnorm_wordpool_576.txt	LTP229	ltpFR2	1	8	DORM	488	n/a	n/a	0	0	0
1786.562	n/a	WORD	893281	wordpools/wasnorm_wordpool_576.txt	LTP229	ltpFR2	1	8	JAPAN	749	n/a	n/a	0	0	0
1789.366	n/a	WORD	894683	wordpools/wasnorm_wordpool_576.txt	LTP229	ltpFR2	1	8	MOTOR	922	n/a	n/a	0	0	0
1792.1	n/a	WORD	896050	wordpools/wasnorm_wordpool_576.txt	LTP229	ltpFR2	1	8	SPONGE	1355	n/a	n/a	0	0	0
1794.742	n/a	WORD	897371	wordpools/wasnorm_wordpool_576.txt	LTP229	ltpFR2	1	8	WOMAN	1620	n/a	n/a	0	0	0
1797.52	n/a	WORD	898760	wordpools/wasnorm_wordpool_576.txt	LTP229	ltpFR2	1	8	CABBAGE	210	n/a	n/a	0	0	0
1800.13	n/a	WORD	900065	wordpools/wasnorm_wordpool_576.txt	LTP229	ltpFR2	1	8	LOFT	840	n/a	n/a	0	0	0
1802.79	n/a	WORD	901395	wordpools/wasnorm_wordpool_576.txt	LTP229	ltpFR2	1	8	TRACTOR	1493	n/a	n/a	0	0	0
1805.384	n/a	WORD	902692	wordpools/wasnorm_wordpool_576.txt	LTP229	ltpFR2	1	8	FARMER	553	n/a	n/a	0	0	0
1807.904	n/a	WORD	903952	wordpools/wasnorm_wordpool_576.txt	LTP229	ltpFR2	1	8	UMPIRE	1535	n/a	n/a	0	0	0
1810.452	n/a	WORD	905226	wordpools/wasnorm_wordpool_576.txt	LTP229	ltpFR2	1	8	PROTON	1132	n/a	n/a	0	0	0
1813.146	n/a	WORD	906573	wordpools/wasnorm_wordpool_576.txt	LTP229	ltpFR2	1	8	HARP	689	n/a	n/a	0	0	0
1815.756	n/a	WORD	907878	wordpools/wasnorm_wordpool_576.txt	LTP229	ltpFR2	1	8	TORTOISE	1486	n/a	n/a	0	0	0
1818.198	n/a	WORD	909099	wordpools/wasnorm_wordpool_576.txt	LTP229	ltpFR2	1	8	PEDAL	1037	n/a	n/a	0	0	0
1820.752	n/a	WORD	910376	wordpools/wasnorm_wordpool_576.txt	LTP229	ltpFR2	1	8	BIKE	125	n/a	n/a	0	0	0
1822.366	n/a	START	911183	n/a	LTP229	ltpFR2	1	n/a	n/a	n/a	14	n/a	n/a	n/a	n/a
1823.244	n/a	DISTRACTOR	911622	n/a	LTP229	ltpFR2	1	8	n/a	n/a	n/a	n/a	0	0	0
1823.262	n/a	PROB	911631	n/a	LTP229	ltpFR2	1	n/a	n/a	n/a	14	12	9	2	1
1825.488	n/a	PROB	912744	n/a	LTP229	ltpFR2	1	n/a	n/a	n/a	14	15	7	3	5
1826.608	n/a	PROB	913304	n/a	LTP229	ltpFR2	1	n/a	n/a	n/a	14	17	6	6	5
1829.978	n/a	PROB	914989	n/a	LTP229	ltpFR2	1	n/a	n/a	n/a	14	17	3	7	7
1831.65	n/a	PROB	915825	n/a	LTP229	ltpFR2	1	n/a	n/a	n/a	14	11	1	5	5
1832.922	n/a	PROB	916461	n/a	LTP229	ltpFR2	1	n/a	n/a	n/a	14	10	5	4	1
1834.622	n/a	PROB	917311	n/a	LTP229	ltpFR2	1	n/a	n/a	n/a	14	17	3	9	5
1837.088	n/a	PROB	918544	n/a	LTP229	ltpFR2	1	n/a	n/a	n/a	14	17	8	6	3
1839.072	n/a	PROB	919536	n/a	LTP229	ltpFR2	1	n/a	n/a	n/a	14	7	1	2	4
1843.362	n/a	PROB	921681	n/a	LTP229	ltpFR2	1	n/a	n/a	n/a	14	22	8	6	8
1845.83	n/a	STOP	922915	n/a	LTP229	ltpFR2	1	n/a	n/a	n/a	14	n/a	n/a	n/a	n/a
1848.258	n/a	REC_START	924129	n/a	LTP229	ltpFR2	1	8	n/a	n/a	n/a	n/a	0	0	0
1850.478	n/a	REC_WORD	925239	wordpools/wasnorm_wordpool_576.txt	LTP229	ltpFR2	1	8	BADGE	68	n/a	n/a	0	0	0
1852.67	n/a	REC_WORD	926335	wordpools/wasnorm_wordpool_576.txt	LTP229	ltpFR2	1	8	LADDER	793	n/a	n/a	0	0	0
1855.298	n/a	REC_WORD	927649	wordpools/wasnorm_wordpool_576.txt	LTP229	ltpFR2	1	8	CHEMIST	292	n/a	n/a	0	0	0
1858.13	n/a	REC_WORD	929065	wordpools/wasnorm_wordpool_576.txt	LTP229	ltpFR2	1	8	PROTON	1132	n/a	n/a	0	0	0
1860.73	n/a	REC_WORD	930365	wordpools/wasnorm_wordpool_576.txt	LTP229	ltpFR2	1	8	ATOM	55	n/a	n/a	0	0	0
1863.588	n/a	REC_WORD	931794	wordpools/wasnorm_wordpool_576.txt	LTP229	ltpFR2	1	8	BAKER	71	n/a	n/a	0	0	0
1866.046	n/a	REC_WORD	933023	wordpools/wasnorm_wordpool_576.txt	LTP229	ltpFR2	1	8	SWIMMER	1420	n/a	n/a	0	0	0
1869.124	n/a	REC_WORD	934562	wordpools/wasnorm_wordpool_576.txt	LTP229	ltpFR2	1	8	TRACTOR	1493	n/a	n/a	0	0	0
1872.122	n/a	REC_WORD	936061	wordpools/wasnorm_wordpool_576.txt	LTP229	ltpFR2	1	8	QUEEN	1149	n/a	n/a	0	0	0
1875.03	n/a	REC_WORD	937515	wordpools/wasnorm_wordpool_576.txt	LTP229	ltpFR2	1	8	ORANGE	980	n/a	n/a	0	0	0
1879.42	n/a	REC_WORD	939710	wordpools/wasnorm_wordpool_576.txt	LTP229	ltpFR2	1	8	THRONE	1461	n/a	n/a	0	0	0
1884.714	n/a	REC_WORD	942357	wordpools/wasnorm_wordpool_576.txt	LTP229	ltpFR2	1	8	BIKE	125	n/a	n/a	0	0	0
1888.438	n/a	REC_WORD	944219	wordpools/wasnorm_wordpool_576.txt	LTP229	ltpFR2	1	8	PEDAL	1037	n/a	n/a	0	0	0
1917.398	n/a	REC_WORD	958699	wordpools/wasnorm_wordpool_576.txt	LTP229	ltpFR2	1	8	TORTOISE	1486	n/a	n/a	0	0	0
1925.04	n/a	REST_REWET	962520	n/a	LTP229	ltpFR2	1	8	n/a	n/a	n/a	n/a	0	0	0
2598.062	n/a	DISTRACTOR	1299031	n/a	LTP229	ltpFR2	1	9	n/a	n/a	n/a	n/a	0	0	0
2598.062	n/a	START	1299031	n/a	LTP229	ltpFR2	1	n/a	n/a	n/a	15	n/a	n/a	n/a	n/a
2598.112	n/a	PROB	1299056	n/a	LTP229	ltpFR2	1	n/a	n/a	n/a	15	20	8	6	6
2600.688	n/a	PROB	1300344	n/a	LTP229	ltpFR2	1	n/a	n/a	n/a	15	6	2	1	3
2603.768	n/a	PROB	1301884	n/a	LTP229	ltpFR2	1	n/a	n/a	n/a	15	9	2	5	2
2605.81	n/a	PROB	1302905	n/a	LTP229	ltpFR2	1	n/a	n/a	n/a	15	12	1	9	2
2607.248	n/a	PROB	1303624	n/a	LTP229	ltpFR2	1	n/a	n/a	n/a	15	18	3	6	9
2609.29	n/a	PROB	1304645	n/a	LTP229	ltpFR2	1	n/a	n/a	n/a	15	13	6	2	7
2611.364	n/a	PROB	1305682	n/a	LTP229	ltpFR2	1	n/a	n/a	n/a	15	19	8	5	6
2615.774	n/a	PROB	1307887	n/a	LTP229	ltpFR2	1	n/a	n/a	n/a	15	20	3	9	8
2622.064	n/a	STOP	1311032	n/a	LTP229	ltpFR2	1	n/a	n/a	n/a	15	n/a	n/a	n/a	n/a
2623.226	n/a	WORD	1311613	wordpools/wasnorm_wordpool_576.txt	LTP229	ltpFR2	1	9	HERO	706	n/a	n/a	0	0	0
2625.662	n/a	WORD	1312831	wordpools/wasnorm_wordpool_576.txt	LTP229	ltpFR2	1	9	CARRIAGE	248	n/a	n/a	0	0	0
2628.424	n/a	WORD	1314212	wordpools/wasnorm_wordpool_576.txt	LTP229	ltpFR2	1	9	DANDRUFF	439	n/a	n/a	0	0	0
2631.172	n/a	WORD	1315586	wordpools/wasnorm_wordpool_576.txt	LTP229	ltpFR2	1	9	CHEST	295	n/a	n/a	0	0	0
2633.916	n/a	WORD	1316958	wordpools/wasnorm_wordpool_576.txt	LTP229	ltpFR2	1	9	MARROW	872	n/a	n/a	0	0	0
2636.626	n/a	WORD	1318313	wordpools/wasnorm_wordpool_576.txt	LTP229	ltpFR2	1	9	HANDBAG	684	n/a	n/a	0	0	0
2639.114	n/a	WORD	1319557	wordpools/wasnorm_wordpool_576.txt	LTP229	ltpFR2	1	9	TUTU	1524	n/a	n/a	0	0	0
2641.73	n/a	WORD	1320865	wordpools/wasnorm_wordpool_576.txt	LTP229	ltpFR2	1	9	ISLAND	745	n/a	n/a	0	0	0
2644.508	n/a	WORD	1322254	wordpools/wasnorm_wordpool_576.txt	LTP229	ltpFR2	1	9	WHISTLE	1606	n/a	n/a	0	0	0
2647.246	n/a	WORD	1323623	wordpools/wasnorm_wordpool_576.txt	LTP229	ltpFR2	1	9	LEADER	807	n/a	n/a	0	0	0
2650.046	n/a	WORD	1325023	wordpools/wasnorm_wordpool_576.txt	LTP229	ltpFR2	1	9	TRENCH	1503	n/a	n/a	0	0	0
2652.834	n/a	WORD	1326417	wordpools/wasnorm_wordpool_576.txt	LTP229	ltpFR2	1	9	GRAVE	658	n/a	n/a	0	0	0
2655.292	n/a	WORD	1327646	wordpools/wasnorm_wordpool_576.txt	LTP229	ltpFR2	1	9	COMPASS	358	n/a	n/a	0	0	0
2657.87	n/a	WORD	1328935	wordpools/wasnorm_wordpool_576.txt	LTP229	ltpFR2	1	9	WORKER	1621	n/a	n/a	0	0	0
2660.452	n/a	WORD	1330226	wordpools/wasnorm_wordpool_576.txt	LTP229	ltpFR2	1	9	BACKBONE	66	n/a	n/a	0	0	0
2663.012	n/a	WORD	1331506	wordpools/wasnorm_wordpool_576.txt	LTP229	ltpFR2	1	9	ASIA	46	n/a	n/a	0	0	0
2665.616	n/a	WORD	1332808	wordpools/wasnorm_wordpool_576.txt	LTP229	ltpFR2	1	9	BUGGY	188	n/a	n/a	0	0	0
2668.226	n/a	WORD	1334113	wordpools/wasnorm_wordpool_576.txt	LTP229	ltpFR2	1	9	AIRPORT	13	n/a	n/a	0	0	0
2670.802	n/a	WORD	1335401	wordpools/wasnorm_wordpool_576.txt	LTP229	ltpFR2	1	9	COOK	372	n/a	n/a	0	0	0
2673.334	n/a	WORD	1336667	wordpools/wasnorm_wordpool_576.txt	LTP229	ltpFR2	1	9	STOVE	1388	n/a	n/a	0	0	0
2675.906	n/a	WORD	1337953	wordpools/wasnorm_wordpool_576.txt	LTP229	ltpFR2	1	9	BANKER	84	n/a	n/a	0	0	0
2678.572	n/a	WORD	1339286	wordpools/wasnorm_wordpool_576.txt	LTP229	ltpFR2	1	9	APPLE	33	n/a	n/a	0	0	0
2681.064	n/a	WORD	1340532	wordpools/wasnorm_wordpool_576.txt	LTP229	ltpFR2	1	9	SANDWICH	1232	n/a	n/a	0	0	0
2683.622	n/a	WORD	1341811	wordpools/wasnorm_wordpool_576.txt	LTP229	ltpFR2	1	9	LILY	821	n/a	n/a	0	0	0
2685.23	n/a	START	1342615	n/a	LTP229	ltpFR2	1	n/a	n/a	n/a	16	n/a	n/a	n/a	n/a
2686.05	n/a	DISTRACTOR	1343025	n/a	LTP229	ltpFR2	1	9	n/a	n/a	n/a	n/a	0	0	0
2686.066	n/a	PROB	1343033	n/a	LTP229	ltpFR2	1	n/a	n/a	n/a	16	13	4	7	2
2689.172	n/a	PROB	1344586	n/a	LTP229	ltpFR2	1	n/a	n/a	n/a	16	14	8	5	1
2691.548	n/a	PROB	1345774	n/a	LTP229	ltpFR2	1	n/a	n/a	n/a	16	15	5	9	1
2693.244	n/a	PROB	1346622	n/a	LTP229	ltpFR2	1	n/a	n/a	n/a	16	9	5	1	3
2695.286	n/a	PROB	1347643	n/a	LTP229	ltpFR2	1	n/a	n/a	n/a	16	18	6	7	5
2699.546	n/a	PROB	1349773	n/a	LTP229	ltpFR2	1	n/a	n/a	n/a	16	18	3	8	7
2702.796	n/a	PROB	1351398	n/a	LTP229	ltpFR2	1	n/a	n/a	n/a	16	17	8	4	5
2704.766	n/a	PROB	1352383	n/a	LTP229	ltpFR2	1	n/a	n/a	n/a	16	17	4	8	5
2706.404	n/a	PROB	1353202	n/a	LTP229	ltpFR2	1	n/a	n/a	n/a	16	24	8	8	8
2707.916	n/a	STOP	1353958	n/a	LTP229	ltpFR2	1	n/a	n/a	n/a	16	n/a	n/a	n/a	n/a
2711.072	n/a	REC_START	1355536	n/a	LTP229	ltpFR2	1	9	n/a	n/a	n/a	n/a	0	0	0
2713.296	n/a	REC_WORD	1356648	wordpools/wasnorm_wordpool_576.txt	LTP229	ltpFR2	1	9	BUGGY	188	n/a	n/a	0	0	0
2715.56	n/a	REC_WORD	1357780	wordpools/wasnorm_wordpool_576.txt	LTP229	ltpFR2	1	9	ASIA	46	n/a	n/a	0	0	0
2734.466	n/a	REC_WORD	1367233	wordpools/wasnorm_wordpool_576.txt	LTP229	ltpFR2	1	9	LILY	821	n/a	n/a	0	0	0
2736.742	n/a	REC_WORD	1368371	wordpools/wasnorm_wordpool_576.txt	LTP229	ltpFR2	1	9	APPLE	33	n/a	n/a	0	0	0
2738.74	n/a	REC_WORD	1369370	wordpools/wasnorm_wordpool_576.txt	LTP229	ltpFR2	1	9	SANDWICH	1232	n/a	n/a	0	0	0
2743.42	n/a	REC_WORD	1371710	wordpools/wasnorm_wordpool_576.txt	LTP229	ltpFR2	1	9	DANDRUFF	439	n/a	n/a	0	0	0
2745.998	n/a	REC_WORD	1372999	wordpools/wasnorm_wordpool_576.txt	LTP229	ltpFR2	1	9	FRAGRANCE	599	n/a	n/a	0	0	0
2748.874	n/a	REC_WORD	1374437	wordpools/wasnorm_wordpool_576.txt	LTP229	ltpFR2	1	9	PERFUME	1049	n/a	n/a	0	0	0
2762.612	n/a	REC_WORD_VV	1381306	wordpools/wasnorm_wordpool_576.txt	LTP229	ltpFR2	1	9	<>	-1	n/a	n/a	0	0	0
2763.612	n/a	REC_WORD_VV	1381806	wordpools/wasnorm_wordpool_576.txt	LTP229	ltpFR2	1	9	<>	-1	n/a	n/a	0	0	0
2764.612	n/a	REC_WORD_VV	1382306	wordpools/wasnorm_wordpool_576.txt	LTP229	ltpFR2	1	9	<>	-1	n/a	n/a	0	0	0
2802.11	n/a	WORD	1401055	wordpools/wasnorm_wordpool_576.txt	LTP229	ltpFR2	1	10	BUREAU	199	n/a	n/a	0	0	0
2804.914	n/a	WORD	1402457	wordpools/wasnorm_wordpool_576.txt	LTP229	ltpFR2	1	10	STAKE	1368	n/a	n/a	0	0	0
2807.448	n/a	WORD	1403724	wordpools/wasnorm_wordpool_576.txt	LTP229	ltpFR2	1	10	FLOWER	584	n/a	n/a	0	0	0
2809.956	n/a	WORD	1404978	wordpools/wasnorm_wordpool_576.txt	LTP229	ltpFR2	1	10	PIZZA	1079	n/a	n/a	0	0	0
2812.5	n/a	WORD	1406250	wordpools/wasnorm_wordpool_576.txt	LTP229	ltpFR2	1	10	CRIB	407	n/a	n/a	0	0	0
2814.958	n/a	WORD	1407479	wordpools/wasnorm_wordpool_576.txt	LTP229	ltpFR2	1	10	KNIFE	785	n/a	n/a	0	0	0
2817.734	n/a	WORD	1408867	wordpools/wasnorm_wordpool_576.txt	LTP229	ltpFR2	1	10	SCALPEL	1243	n/a	n/a	0	0	0
2820.246	n/a	WORD	1410123	wordpools/wasnorm_wordpool_576.txt	LTP229	ltpFR2	1	10	BROOK	177	n/a	n/a	0	0	0
2823.04	n/a	WORD	1411520	wordpools/wasnorm_wordpool_576.txt	LTP229	ltpFR2	1	10	LAVA	804	n/a	n/a	0	0	0
2825.55	n/a	WORD	1412775	wordpools/wasnorm_wordpool_576.txt	LTP229	ltpFR2	1	10	CAPTIVE	240	n/a	n/a	0	0	0
2828.104	n/a	WORD	1414052	wordpools/wasnorm_wordpool_576.txt	LTP229	ltpFR2	1	10	STUDENT	1395	n/a	n/a	0	0	0
2830.904	n/a	WORD	1415452	wordpools/wasnorm_wordpool_576.txt	LTP229	ltpFR2	1	10	CARROT	249	n/a	n/a	0	0	0
2833.458	n/a	WORD	1416729	wordpools/wasnorm_wordpool_576.txt	LTP229	ltpFR2	1	10	HORSE	719	n/a	n/a	0	0	0
2835.956	n/a	WORD	1417978	wordpools/wasnorm_wordpool_576.txt	LTP229	ltpFR2	1	10	BARREL	91	n/a	n/a	0	0	0
2838.598	n/a	WORD	1419299	wordpools/wasnorm_wordpool_576.txt	LTP229	ltpFR2	1	10	FLUTE	585	n/a	n/a	0	0	0
2841.158	n/a	WORD	1420579	wordpools/wasnorm_wordpool_576.txt	LTP229	ltpFR2	1	10	TUBA	1515	n/a	n/a	0	0	0
2843.798	n/a	WORD	1421899	wordpools/wasnorm_wordpool_576.txt	LTP229	ltpFR2	1	10	AGENT	10	n/a	n/a	0	0	0
2846.446	n/a	WORD	1423223	wordpools/wasnorm_wordpool_576.txt	LTP229	ltpFR2	1	10	SADDLE	1221	n/a	n/a	0	0	0
2848.95	n/a	WORD	1424475	wordpools/wasnorm_wordpool_576.txt	LTP229	ltpFR2	1	10	DONOR	485	n/a	n/a	0	0	0
2851.632	n/a	WORD	1425816	wordpools/wasnorm_wordpool_576.txt	LTP229	ltpFR2	1	10	PASSAGE	1019	n/a	n/a	0	0	0
2854.108	n/a	WORD	1427054	wordpools/wasnorm_wordpool_576.txt	LTP229	ltpFR2	1	10	COIN	343	n/a	n/a	0	0	0
2856.852	n/a	WORD	1428426	wordpools/wasnorm_wordpool_576.txt	LTP229	ltpFR2	1	10	FLEET	578	n/a	n/a	0	0	0
2859.362	n/a	WORD	1429681	wordpools/wasnorm_wordpool_576.txt	LTP229	ltpFR2	1	10	MARINE	869	n/a	n/a	0	0	0
2862.156	n/a	WORD	1431078	wordpools/wasnorm_wordpool_576.txt	LTP229	ltpFR2	1	10	NAPKIN	937	n/a	n/a	0	0	0
2863.78	n/a	START	1431890	n/a	LTP229	ltpFR2	1	n/a	n/a	n/a	17	n/a	n/a	n/a	n/a
2864.732	n/a	DISTRACTOR	1432366	n/a	LTP229	ltpFR2	1	10	n/a	n/a	n/a	n/a	0	0	0
2864.75	n/a	PROB	1432375	n/a	LTP229	ltpFR2	1	n/a	n/a	n/a	17	19	3	7	9
2866.048	n/a	PROB	1433024	n/a	LTP229	ltpFR2	1	n/a	n/a	n/a	17	8	2	1	5
2867.544	n/a	PROB	1433772	n/a	LTP229	ltpFR2	1	n/a	n/a	n/a	17	9	2	2	5
2869.5	n/a	PROB	1434750	n/a	LTP229	ltpFR2	1	n/a	n/a	n/a	17	13	2	2	9
2872.446	n/a	PROB	1436223	n/a	LTP229	ltpFR2	1	n/a	n/a	n/a	17	13	5	6	2
2875.92	n/a	PROB	1437960	n/a	LTP229	ltpFR2	1	n/a	n/a	n/a	17	15	7	9	5
2877.592	n/a	PROB	1438796	n/a	LTP229	ltpFR2	1	n/a	n/a	n/a	17	9	4	1	4
2879.004	n/a	PROB	1439502	n/a	LTP229	ltpFR2	1	n/a	n/a	n/a	17	12	2	4	6
2881.096	n/a	PROB	1440548	n/a	LTP229	ltpFR2	1	n/a	n/a	n/a	17	6	1	2	3
2882.97	n/a	PROB	1441485	n/a	LTP229	ltpFR2	1	n/a	n/a	n/a	17	11	4	3	4
2885.044	n/a	PROB	1442522	n/a	LTP229	ltpFR2	1	n/a	n/a	n/a	17	14	7	3	4
2886.478	n/a	STOP	1443239	n/a	LTP229	ltpFR2	1	n/a	n/a	n/a	17	n/a	n/a	n/a	n/a
2889.606	n/a	REC_START	1444803	n/a	LTP229	ltpFR2	1	10	n/a	n/a	n/a	n/a	0	0	0
2890.898	n/a	REC_WORD	1445449	wordpools/wasnorm_wordpool_576.txt	LTP229	ltpFR2	1	10	SCALPEL	1243	n/a	n/a	0	0	0
2893.422	n/a	REC_WORD	1446711	wordpools/wasnorm_wordpool_576.txt	LTP229	ltpFR2	1	10	KNIFE	785	n/a	n/a	0	0	0
2896.166	n/a	REC_WORD	1448083	wordpools/wasnorm_wordpool_576.txt	LTP229	ltpFR2	1	10	PIZZA	1079	n/a	n/a	0	0	0
2899.708	n/a	REC_WORD	1449854	wordpools/wasnorm_wordpool_576.txt	LTP229	ltpFR2	1	10	COIN	343	n/a	n/a	0	0	0
2902.922	n/a	REC_WORD	1451461	wordpools/wasnorm_wordpool_576.txt	LTP229	ltpFR2	1	10	DONOR	485	n/a	n/a	0	0	0
2905.094	n/a	REC_WORD	1452547	wordpools/wasnorm_wordpool_576.txt	LTP229	ltpFR2	1	10	KIDNEY	776	n/a	n/a	0	0	0
2907.394	n/a	REC_WORD	1453697	wordpools/wasnorm_wordpool_576.txt	LTP229	ltpFR2	1	10	TRANSPLANT	1496	n/a	n/a	0	0	0
2913.92	n/a	REC_WORD	1456960	wordpools/wasnorm_wordpool_576.txt	LTP229	ltpFR2	1	10	FRUIT	610	n/a	n/a	0	0	0
2917.854	n/a	REC_WORD	1458927	wordpools/wasnorm_wordpool_576.txt	LTP229	ltpFR2	1	10	BUREAU	199	n/a	n/a	0	0	0
2921.804	n/a	REC_WORD	1460902	wordpools/wasnorm_wordpool_576.txt	LTP229	ltpFR2	1	10	GUARD	667	n/a	n/a	0	0	0
2925.132	n/a	REC_WORD	1462566	wordpools/wasnorm_wordpool_576.txt	LTP229	ltpFR2	1	10	BADGE	68	n/a	n/a	0	0	0
2938.896	n/a	REC_WORD	1469448	wordpools/wasnorm_wordpool_576.txt	LTP229	ltpFR2	1	10	FLOWER	584	n/a	n/a	0	0	0
2942.202	n/a	REC_WORD	1471101	wordpools/wasnorm_wordpool_576.txt	LTP229	ltpFR2	1	10	STAKE	1368	n/a	n/a	0	0	0
2945.964	n/a	REC_WORD	1472982	wordpools/wasnorm_wordpool_576.txt	LTP229	ltpFR2	1	10	CRIB	407	n/a	n/a	0	0	0
2951.926	n/a	REC_WORD	1475963	wordpools/wasnorm_wordpool_576.txt	LTP229	ltpFR2	1	10	MASK	876	n/a	n/a	0	0	0
2980.626	n/a	DISTRACTOR	1490313	n/a	LTP229	ltpFR2	1	11	n/a	n/a	n/a	n/a	0	0	0
2980.626	n/a	START	1490313	n/a	LTP229	ltpFR2	1	n/a	n/a	n/a	18	n/a	n/a	n/a	n/a
2980.674	n/a	PROB	1490337	n/a	LTP229	ltpFR2	1	n/a	n/a	n/a	18	19	6	8	5
2984.132	n/a	PROB	1492066	n/a	LTP229	ltpFR2	1	n/a	n/a	n/a	18	14	1	7	6
2986.024	n/a	PROB	1493012	n/a	LTP229	ltpFR2	1	n/a	n/a	n/a	18	24	7	9	8
2989.686	n/a	PROB	1494843	n/a	LTP229	ltpFR2	1	n/a	n/a	n/a	18	20	3	5	6
2992.304	n/a	PROB	1496152	n/a	LTP229	ltpFR2	1	n/a	n/a	n/a	18	12	8	1	3
2995.36	n/a	PROB	1497680	n/a	LTP229	ltpFR2	1	n/a	n/a	n/a	18	12	3	8	1
2996.782	n/a	PROB	1498391	n/a	LTP229	ltpFR2	1	n/a	n/a	n/a	18	16	4	4	8
3001.138	n/a	PROB	1500569	n/a	LTP229	ltpFR2	1	n/a	n/a	n/a	18	13	2	5	8
3002.972	n/a	PROB	1501486	n/a	LTP229	ltpFR2	1	n/a	n/a	n/a	18	5	1	1	3
3004.404	n/a	STOP	1502202	n/a	LTP229	ltpFR2	1	n/a	n/a	n/a	18	n/a	n/a	n/a	n/a
3005.614	n/a	WORD	1502807	wordpools/wasnorm_wordpool_576.txt	LTP229	ltpFR2	1	11	DRESSER	496	n/a	n/a	0	0	0
3008.146	n/a	WORD	1504073	wordpools/wasnorm_wordpool_576.txt	LTP229	ltpFR2	1	11	SALMON	1227	n/a	n/a	0	0	0
3010.706	n/a	WORD	1505353	wordpools/wasnorm_wordpool_576.txt	LTP229	ltpFR2	1	11	KLEENEX	782	n/a	n/a	0	0	0
3013.384	n/a	WORD	1506692	wordpools/wasnorm_wordpool_576.txt	LTP229	ltpFR2	1	11	GARDEN	623	n/a	n/a	0	0	0
3015.994	n/a	WORD	1507997	wordpools/wasnorm_wordpool_576.txt	LTP229	ltpFR2	1	11	TURNIP	1521	n/a	n/a	0	0	0
3018.604	n/a	WORD	1509302	wordpools/wasnorm_wordpool_576.txt	LTP229	ltpFR2	1	11	FINGER	567	n/a	n/a	0	0	0
3021.058	n/a	WORD	1510529	wordpools/wasnorm_wordpool_576.txt	LTP229	ltpFR2	1	11	RACKET	1155	n/a	n/a	0	0	0
3023.666	n/a	WORD	1511833	wordpools/wasnorm_wordpool_576.txt	LTP229	ltpFR2	1	11	ANTLER	29	n/a	n/a	0	0	0
3026.334	n/a	WORD	1513167	wordpools/wasnorm_wordpool_576.txt	LTP229	ltpFR2	1	11	BINDER	127	n/a	n/a	0	0	0
3028.804	n/a	WORD	1514402	wordpools/wasnorm_wordpool_576.txt	LTP229	ltpFR2	1	11	SKILLET	1317	n/a	n/a	0	0	0
3031.588	n/a	WORD	1515794	wordpools/wasnorm_wordpool_576.txt	LTP229	ltpFR2	1	11	CASHIER	254	n/a	n/a	0	0	0
3034.198	n/a	WORD	1517099	wordpools/wasnorm_wordpool_576.txt	LTP229	ltpFR2	1	11	HAND	683	n/a	n/a	0	0	0
3036.64	n/a	WORD	1518320	wordpools/wasnorm_wordpool_576.txt	LTP229	ltpFR2	1	11	WRIST	1626	n/a	n/a	0	0	0
3039.316	n/a	WORD	1519658	wordpools/wasnorm_wordpool_576.txt	LTP229	ltpFR2	1	11	COLLEGE	346	n/a	n/a	0	0	0
3042.01	n/a	WORD	1521005	wordpools/wasnorm_wordpool_576.txt	LTP229	ltpFR2	1	11	PUPIL	1143	n/a	n/a	0	0	0
3044.552	n/a	WORD	1522276	wordpools/wasnorm_wordpool_576.txt	LTP229	ltpFR2	1	11	TROUT	1511	n/a	n/a	0	0	0
3046.996	n/a	WORD	1523498	wordpools/wasnorm_wordpool_576.txt	LTP229	ltpFR2	1	11	JUDGE	761	n/a	n/a	0	0	0
3049.672	n/a	WORD	1524836	wordpools/wasnorm_wordpool_576.txt	LTP229	ltpFR2	1	11	REPORT	1184	n/a	n/a	0	0	0
3052.098	n/a	WORD	1526049	wordpools/wasnorm_wordpool_576.txt	LTP229	ltpFR2	1	11	SOFTBALL	1343	n/a	n/a	0	0	0
3054.602	n/a	WORD	1527301	wordpools/wasnorm_wordpool_576.txt	LTP229	ltpFR2	1	11	PATIENT	1024	n/a	n/a	0	0	0
3057.33	n/a	WORD	1528665	wordpools/wasnorm_wordpool_576.txt	LTP229	ltpFR2	1	11	ORCHID	982	n/a	n/a	0	0	0
3059.878	n/a	WORD	1529939	wordpools/wasnorm_wordpool_576.txt	LTP229	ltpFR2	1	11	IGLOO	734	n/a	n/a	0	0	0
3062.32	n/a	WORD	1531160	wordpools/wasnorm_wordpool_576.txt	LTP229	ltpFR2	1	11	ITEM	746	n/a	n/a	0	0	0
3065.032	n/a	WORD	1532516	wordpools/wasnorm_wordpool_576.txt	LTP229	ltpFR2	1	11	PACKAGE	997	n/a	n/a	0	0	0
3066.638	n/a	START	1533319	n/a	LTP229	ltpFR2	1	n/a	n/a	n/a	19	n/a	n/a	n/a	n/a
3067.83	n/a	DISTRACTOR	1533915	n/a	LTP229	ltpFR2	1	11	n/a	n/a	n/a	n/a	0	0	0
3067.842	n/a	PROB	1533921	n/a	LTP229	ltpFR2	1	n/a	n/a	n/a	19	11	7	1	3
3069.576	n/a	PROB	1534788	n/a	LTP229	ltpFR2	1	n/a	n/a	n/a	19	13	4	5	4
3071.858	n/a	PROB	1535929	n/a	LTP229	ltpFR2	1	n/a	n/a	n/a	19	15	3	7	5
3072.956	n/a	PROB	1536478	n/a	LTP229	ltpFR2	1	n/a	n/a	n/a	19	7	2	4	1
3074.78	n/a	PROB	1537390	n/a	LTP229	ltpFR2	1	n/a	n/a	n/a	19	13	7	5	1
3076.922	n/a	PROB	1538461	n/a	LTP229	ltpFR2	1	n/a	n/a	n/a	19	19	2	9	8
3080.088	n/a	PROB	1540044	n/a	LTP229	ltpFR2	1	n/a	n/a	n/a	19	21	7	5	8
3085.572	n/a	PROB	1542786	n/a	LTP229	ltpFR2	1	n/a	n/a	n/a	19	20	9	9	2
3087.762	n/a	PROB	1543881	n/a	LTP229	ltpFR2	1	n/a	n/a	n/a	19	9	2	1	6
3089.44	n/a	STOP	1544720	n/a	LTP229	ltpFR2	1	n/a	n/a	n/a	19	n/a	n/a	n/a	n/a
3092.538	n/a	REC_START	1546269	n/a	LTP229	ltpFR2	1	11	n/a	n/a	n/a	n/a	0	0	0
3094.298	n/a	REC_WORD	1547149	wordpools/wasnorm_wordpool_576.txt	LTP229	ltpFR2	1	11	KLEENEX	782	n/a	n/a	0	0	0
3096.182	n/a	REC_WORD	1548091	wordpools/wasnorm_wordpool_576.txt	LTP229	ltpFR2	1	11	SALMON	1227	n/a	n/a	0	0	0
3098.616	n/a	REC_WORD	1549308	wordpools/wasnorm_wordpool_576.txt	LTP229	ltpFR2	1	11	GARDEN	623	n/a	n/a	0	0	0
3100.876	n/a	REC_WORD	1550438	wordpools/wasnorm_wordpool_576.txt	LTP229	ltpFR2	1	11	IGLOO	734	n/a	n/a	0	0	0
3103.338	n/a	REC_WORD	1551669	wordpools/wasnorm_wordpool_576.txt	LTP229	ltpFR2	1	11	ITEM	746	n/a	n/a	0	0	0
3105.754	n/a	REC_WORD	1552877	wordpools/wasnorm_wordpool_576.txt	LTP229	ltpFR2	1	11	PATIENT	1024	n/a	n/a	0	0	0
3108.264	n/a	REC_WORD	1554132	wordpools/wasnorm_wordpool_576.txt	LTP229	ltpFR2	1	11	PACKAGE	997	n/a	n/a	0	0	0
3111.1	n/a	REC_WORD	1555550	wordpools/wasnorm_wordpool_576.txt	LTP229	ltpFR2	1	11	TURNIP	1521	n/a	n/a	0	0	0
3113.702	n/a	REC_WORD	1556851	wordpools/wasnorm_wordpool_576.txt	LTP229	ltpFR2	1	11	ORCHID	982	n/a	n/a	0	0	0
3183.602	n/a	DISTRACTOR	1591801	n/a	LTP229	ltpFR2	1	12	n/a	n/a	n/a	n/a	0	0	0
3183.602	n/a	START	1591801	n/a	LTP229	ltpFR2	1	n/a	n/a	n/a	20	n/a	n/a	n/a	n/a
3183.65	n/a	PROB	1591825	n/a	LTP229	ltpFR2	1	n/a	n/a	n/a	20	12	3	1	8
3185.62	n/a	PROB	1592810	n/a	LTP229	ltpFR2	1	n/a	n/a	n/a	20	9	2	2	5
3187.026	n/a	PROB	1593513	n/a	LTP229	ltpFR2	1	n/a	n/a	n/a	20	11	3	4	4
3188.954	n/a	PROB	1594477	n/a	LTP229	ltpFR2	1	n/a	n/a	n/a	20	7	3	2	2
3190.606	n/a	PROB	1595303	n/a	LTP229	ltpFR2	1	n/a	n/a	n/a	20	17	6	9	2
3192.328	n/a	PROB	1596164	n/a	LTP229	ltpFR2	1	n/a	n/a	n/a	20	12	3	3	6
3194.352	n/a	PROB	1597176	n/a	LTP229	ltpFR2	1	n/a	n/a	n/a	20	17	6	9	2
3195.976	n/a	PROB	1597988	n/a	LTP229	ltpFR2	1	n/a	n/a	n/a	20	18	7	9	2
3197.688	n/a	PROB	1598844	n/a	LTP229	ltpFR2	1	n/a	n/a	n/a	20	13	8	4	1
3199.238	n/a	PROB	1599619	n/a	LTP229	ltpFR2	1	n/a	n/a	n/a	20	1	6	9	4
3201.052	n/a	PROB	1600526	n/a	LTP229	ltpFR2	1	n/a	n/a	n/a	20	15	5	6	4
3202.976	n/a	PROB	1601488	n/a	LTP229	ltpFR2	1	n/a	n/a	n/a	20	15	7	8	5
3205.468	n/a	PROB	1602734	n/a	LTP229	ltpFR2	1	n/a	n/a	n/a	20	11	8	1	2
3206.854	n/a	STOP	1603427	n/a	LTP229	ltpFR2	1	n/a	n/a	n/a	20	n/a	n/a	n/a	n/a
3208.458	n/a	WORD	1604229	wordpools/wasnorm_wordpool_576.txt	LTP229	ltpFR2	1	12	TART	1436	n/a	n/a	0	0	0
3211.04	n/a	WORD	1605520	wordpools/wasnorm_wordpool_576.txt	LTP229	ltpFR2	1	12	DINER	467	n/a	n/a	0	0	0
3213.7	n/a	WORD	1606850	wordpools/wasnorm_wordpool_576.txt	LTP229	ltpFR2	1	12	JELLO	754	n/a	n/a	0	0	0
3216.12	n/a	WORD	1608060	wordpools/wasnorm_wordpool_576.txt	LTP229	ltpFR2	1	12	FILM	565	n/a	n/a	0	0	0
3218.83	n/a	WORD	1609415	wordpools/wasnorm_wordpool_576.txt	LTP229	ltpFR2	1	12	POPCORN	1104	n/a	n/a	0	0	0
3221.346	n/a	WORD	1610673	wordpools/wasnorm_wordpool_576.txt	LTP229	ltpFR2	1	12	PLATE	1086	n/a	n/a	0	0	0
3223.984	n/a	WORD	1611992	wordpools/wasnorm_wordpool_576.txt	LTP229	ltpFR2	1	12	BOUQUET	157	n/a	n/a	0	0	0
3226.482	n/a	WORD	1613241	wordpools/wasnorm_wordpool_576.txt	LTP229	ltpFR2	1	12	IDOL	733	n/a	n/a	0	0	0
3229.202	n/a	WORD	1614601	wordpools/wasnorm_wordpool_576.txt	LTP229	ltpFR2	1	12	CREVICE	405	n/a	n/a	0	0	0
3231.684	n/a	WORD	1615842	wordpools/wasnorm_wordpool_576.txt	LTP229	ltpFR2	1	12	FREEZER	604	n/a	n/a	0	0	0
3234.424	n/a	WORD	1617212	wordpools/wasnorm_wordpool_576.txt	LTP229	ltpFR2	1	12	SCARF	1246	n/a	n/a	0	0	0
3237.14	n/a	WORD	1618570	wordpools/wasnorm_wordpool_576.txt	LTP229	ltpFR2	1	12	MOTEL	919	n/a	n/a	0	0	0
3239.576	n/a	WORD	1619788	wordpools/wasnorm_wordpool_576.txt	LTP229	ltpFR2	1	12	TRIBE	1505	n/a	n/a	0	0	0
3242.108	n/a	WORD	1621054	wordpools/wasnorm_wordpool_576.txt	LTP229	ltpFR2	1	12	HOOK	715	n/a	n/a	0	0	0
3244.728	n/a	WORD	1622364	wordpools/wasnorm_wordpool_576.txt	LTP229	ltpFR2	1	12	LIVER	833	n/a	n/a	0	0	0
3247.378	n/a	WORD	1623689	wordpools/wasnorm_wordpool_576.txt	LTP229	ltpFR2	1	12	TREAT	1501	n/a	n/a	0	0	0
3250.054	n/a	WORD	1625027	wordpools/wasnorm_wordpool_576.txt	LTP229	ltpFR2	1	12	DOLPHIN	483	n/a	n/a	0	0	0
3252.516	n/a	WORD	1626258	wordpools/wasnorm_wordpool_576.txt	LTP229	ltpFR2	1	12	CUPBOARD	425	n/a	n/a	0	0	0
3255.074	n/a	WORD	1627537	wordpools/wasnorm_wordpool_576.txt	LTP229	ltpFR2	1	12	WARDROBE	1587	n/a	n/a	0	0	0
3257.744	n/a	WORD	1628872	wordpools/wasnorm_wordpool_576.txt	LTP229	ltpFR2	1	12	MACHINE	852	n/a	n/a	0	0	0
3260.406	n/a	WORD	1630203	wordpools/wasnorm_wordpool_576.txt	LTP229	ltpFR2	1	12	WINDOW	1611	n/a	n/a	0	0	0
3262.848	n/a	WORD	1631424	wordpools/wasnorm_wordpool_576.txt	LTP229	ltpFR2	1	12	SUITCASE	1403	n/a	n/a	0	0	0
3265.358	n/a	WORD	1632679	wordpools/wasnorm_wordpool_576.txt	LTP229	ltpFR2	1	12	MOP	916	n/a	n/a	0	0	0
3268.024	n/a	WORD	1634012	wordpools/wasnorm_wordpool_576.txt	LTP229	ltpFR2	1	12	GOBLIN	645	n/a	n/a	0	0	0
3269.642	n/a	START	1634821	n/a	LTP229	ltpFR2	1	n/a	n/a	n/a	21	n/a	n/a	n/a	n/a
3270.634	n/a	DISTRACTOR	1635317	n/a	LTP229	ltpFR2	1	12	n/a	n/a	n/a	n/a	0	0	0
3270.652	n/a	PROB	1635326	n/a	LTP229	ltpFR2	1	n/a	n/a	n/a	21	23	8	7	8
3273.038	n/a	PROB	1636519	n/a	LTP229	ltpFR2	1	n/a	n/a	n/a	21	21	9	9	3
3275.13	n/a	PROB	1637565	n/a	LTP229	ltpFR2	1	n/a	n/a	n/a	21	24	7	8	9
3277.236	n/a	PROB	1638618	n/a	LTP229	ltpFR2	1	n/a	n/a	n/a	21	13	6	6	1
3278.724	n/a	PROB	1639362	n/a	LTP229	ltpFR2	1	n/a	n/a	n/a	21	19	9	2	8
3283.198	n/a	PROB	1641599	n/a	LTP229	ltpFR2	1	n/a	n/a	n/a	21	12	2	6	4
3284.62	n/a	PROB	1642310	n/a	LTP229	ltpFR2	1	n/a	n/a	n/a	21	9	7	1	1
3286.27	n/a	PROB	1643135	n/a	LTP229	ltpFR2	1	n/a	n/a	n/a	21	13	7	1	5
3288.748	n/a	PROB	1644374	n/a	LTP229	ltpFR2	1	n/a	n/a	n/a	21	13	4	1	9
3293.642	n/a	STOP	1646821	n/a	LTP229	ltpFR2	1	n/a	n/a	n/a	21	n/a	n/a	n/a	n/a
3295.524	n/a	REC_START	1647762	n/a	LTP229	ltpFR2	1	12	n/a	n/a	n/a	n/a	0	0	0
3298.084	n/a	REC_WORD	1649042	wordpools/wasnorm_wordpool_576.txt	LTP229	ltpFR2	1	12	BOUQUET	157	n/a	n/a	0	0	0
3300.758	n/a	REC_WORD	1650379	wordpools/wasnorm_wordpool_576.txt	LTP229	ltpFR2	1	12	IDOL	733	n/a	n/a	0	0	0
3309.716	n/a	REC_WORD	1654858	wordpools/wasnorm_wordpool_576.txt	LTP229	ltpFR2	1	12	DRESSER	496	n/a	n/a	0	0	0
3386.544	n/a	DISTRACTOR	1693272	n/a	LTP229	ltpFR2	1	13	n/a	n/a	n/a	n/a	0	0	0
3386.544	n/a	START	1693272	n/a	LTP229	ltpFR2	1	n/a	n/a	n/a	22	n/a	n/a	n/a	n/a
3386.594	n/a	PROB	1693297	n/a	LTP229	ltpFR2	1	n/a	n/a	n/a	22	17	2	7	8
3388.986	n/a	PROB	1694493	n/a	LTP229	ltpFR2	1	n/a	n/a	n/a	22	21	9	6	6
3391.122	n/a	PROB	1695561	n/a	LTP229	ltpFR2	1	n/a	n/a	n/a	22	13	2	2	9
3393.68	n/a	PROB	1696840	n/a	LTP229	ltpFR2	1	n/a	n/a	n/a	22	24	7	9	8
3396.192	n/a	PROB	1698096	n/a	LTP229	ltpFR2	1	n/a	n/a	n/a	22	14	2	3	9
3398.852	n/a	PROB	1699426	n/a	LTP229	ltpFR2	1	n/a	n/a	n/a	22	13	6	6	1
3400.274	n/a	PROB	1700137	n/a	LTP229	ltpFR2	1	n/a	n/a	n/a	22	10	3	3	4
3403.274	n/a	PROB	1701637	n/a	LTP229	ltpFR2	1	n/a	n/a	n/a	22	11	1	4	6
3404.756	n/a	PROB	1702378	n/a	LTP229	ltpFR2	1	n/a	n/a	n/a	22	21	9	5	9
3410.546	n/a	STOP	1705273	n/a	LTP229	ltpFR2	1	n/a	n/a	n/a	22	n/a	n/a	n/a	n/a
3411.622	n/a	WORD	1705811	wordpools/wasnorm_wordpool_576.txt	LTP229	ltpFR2	1	13	PISTOL	1075	n/a	n/a	0	0	0
3414.232	n/a	WORD	1707116	wordpools/wasnorm_wordpool_576.txt	LTP229	ltpFR2	1	13	FLASK	576	n/a	n/a	0	0	0
3417.004	n/a	WORD	1708502	wordpools/wasnorm_wordpool_576.txt	LTP229	ltpFR2	1	13	RIFLE	1192	n/a	n/a	0	0	0
3419.62	n/a	WORD	1709810	wordpools/wasnorm_wordpool_576.txt	LTP229	ltpFR2	1	13	CHAUFFEUR	283	n/a	n/a	0	0	0
3422.058	n/a	WORD	1711029	wordpools/wasnorm_wordpool_576.txt	LTP229	ltpFR2	1	13	TAXI	1438	n/a	n/a	0	0	0
3424.584	n/a	WORD	1712292	wordpools/wasnorm_wordpool_576.txt	LTP229	ltpFR2	1	13	KEEPER	769	n/a	n/a	0	0	0
3427.36	n/a	WORD	1713680	wordpools/wasnorm_wordpool_576.txt	LTP229	ltpFR2	1	13	APRON	35	n/a	n/a	0	0	0
3429.854	n/a	WORD	1714927	wordpools/wasnorm_wordpool_576.txt	LTP229	ltpFR2	1	13	YOLK	1633	n/a	n/a	0	0	0
3432.486	n/a	WORD	1716243	wordpools/wasnorm_wordpool_576.txt	LTP229	ltpFR2	1	13	LUMBER	848	n/a	n/a	0	0	0
3434.99	n/a	WORD	1717495	wordpools/wasnorm_wordpool_576.txt	LTP229	ltpFR2	1	13	GAVEL	627	n/a	n/a	0	0	0
3437.7	n/a	WORD	1718850	wordpools/wasnorm_wordpool_576.txt	LTP229	ltpFR2	1	13	HATCHET	691	n/a	n/a	0	0	0
3440.31	n/a	WORD	1720155	wordpools/wasnorm_wordpool_576.txt	LTP229	ltpFR2	1	13	KETCHUP	771	n/a	n/a	0	0	0
3442.942	n/a	WORD	1721471	wordpools/wasnorm_wordpool_576.txt	LTP229	ltpFR2	1	13	GANGSTER	620	n/a	n/a	0	0	0
3445.752	n/a	WORD	1722876	wordpools/wasnorm_wordpool_576.txt	LTP229	ltpFR2	1	13	CYCLONE	431	n/a	n/a	0	0	0
3448.374	n/a	WORD	1724187	wordpools/wasnorm_wordpool_576.txt	LTP229	ltpFR2	1	13	CRUTCH	417	n/a	n/a	0	0	0
3450.956	n/a	WORD	1725478	wordpools/wasnorm_wordpool_576.txt	LTP229	ltpFR2	1	13	HAMPER	682	n/a	n/a	0	0	0
3453.55	n/a	WORD	1726775	wordpools/wasnorm_wordpool_576.txt	LTP229	ltpFR2	1	13	RELISH	1183	n/a	n/a	0	0	0
3456.328	n/a	WORD	1728164	wordpools/wasnorm_wordpool_576.txt	LTP229	ltpFR2	1	13	MEAT	883	n/a	n/a	0	0	0
3459.004	n/a	WORD	1729502	wordpools/wasnorm_wordpool_576.txt	LTP229	ltpFR2	1	13	SALT	1229	n/a	n/a	0	0	0
3461.764	n/a	WORD	1730882	wordpools/wasnorm_wordpool_576.txt	LTP229	ltpFR2	1	13	GARLIC	624	n/a	n/a	0	0	0
3464.24	n/a	WORD	1732120	wordpools/wasnorm_wordpool_576.txt	LTP229	ltpFR2	1	13	VICTIM	1562	n/a	n/a	0	0	0
3466.698	n/a	WORD	1733349	wordpools/wasnorm_wordpool_576.txt	LTP229	ltpFR2	1	13	LUGGAGE	847	n/a	n/a	0	0	0
3469.326	n/a	WORD	1734663	wordpools/wasnorm_wordpool_576.txt	LTP229	ltpFR2	1	13	SLUG	1329	n/a	n/a	0	0	0
3472.086	n/a	WORD	1736043	wordpools/wasnorm_wordpool_576.txt	LTP229	ltpFR2	1	13	EUROPE	541	n/a	n/a	0	0	0
3473.704	n/a	START	1736852	n/a	LTP229	ltpFR2	1	n/a	n/a	n/a	23	n/a	n/a	n/a	n/a
3474.566	n/a	DISTRACTOR	1737283	n/a	LTP229	ltpFR2	1	13	n/a	n/a	n/a	n/a	0	0	0
3474.58	n/a	PROB	1737290	n/a	LTP229	ltpFR2	1	n/a	n/a	n/a	23	12	6	5	1
3476.632	n/a	PROB	1738316	n/a	LTP229	ltpFR2	1	n/a	n/a	n/a	23	15	7	9	7
3480.112	n/a	PROB	1740056	n/a	LTP229	ltpFR2	1	n/a	n/a	n/a	23	15	3	5	7
3483.392	n/a	PROB	1741696	n/a	LTP229	ltpFR2	1	n/a	n/a	n/a	23	18	5	5	8
3484.636	n/a	PROB	1742318	n/a	LTP229	ltpFR2	1	n/a	n/a	n/a	23	11	4	1	6
3485.906	n/a	PROB	1742953	n/a	LTP229	ltpFR2	1	n/a	n/a	n/a	23	9	1	2	6
3487.256	n/a	PROB	1743628	n/a	LTP229	ltpFR2	1	n/a	n/a	n/a	23	20	9	2	9
3489.43	n/a	PROB	1744715	n/a	LTP229	ltpFR2	1	n/a	n/a	n/a	23	10	6	2	2
3497.706	n/a	STOP	1748853	n/a	LTP229	ltpFR2	1	n/a	n/a	n/a	23	n/a	n/a	n/a	n/a
3499.46	n/a	REC_START	1749730	n/a	LTP229	ltpFR2	1	13	n/a	n/a	n/a	n/a	0	0	0
3501.496	n/a	REC_WORD	1750748	wordpools/wasnorm_wordpool_576.txt	LTP229	ltpFR2	1	13	GAVEL	627	n/a	n/a	0	0	0
3502.722	n/a	REC_WORD	1751361	wordpools/wasnorm_wordpool_576.txt	LTP229	ltpFR2	1	13	HATCHET	691	n/a	n/a	0	0	0
3505.71	n/a	REC_WORD	1752855	wordpools/wasnorm_wordpool_576.txt	LTP229	ltpFR2	1	13	GANGSTER	620	n/a	n/a	0	0	0
3508.584	n/a	REC_WORD	1754292	wordpools/wasnorm_wordpool_576.txt	LTP229	ltpFR2	1	13	TAXI	1438	n/a	n/a	0	0	0
3511.374	n/a	REC_WORD	1755687	wordpools/wasnorm_wordpool_576.txt	LTP229	ltpFR2	1	13	CHAUFFEUR	283	n/a	n/a	0	0	0
3590.474	n/a	DISTRACTOR	1795237	n/a	LTP229	ltpFR2	1	14	n/a	n/a	n/a	n/a	0	0	0
3590.474	n/a	START	1795237	n/a	LTP229	ltpFR2	1	n/a	n/a	n/a	24	n/a	n/a	n/a	n/a
3590.524	n/a	PROB	1795262	n/a	LTP229	ltpFR2	1	n/a	n/a	n/a	24	18	9	7	5
3593.98	n/a	PROB	1796990	n/a	LTP229	ltpFR2	1	n/a	n/a	n/a	24	14	5	4	5
3597.628	n/a	PROB	1798814	n/a	LTP229	ltpFR2	1	n/a	n/a	n/a	24	14	7	5	2
3600.99	n/a	PROB	1800495	n/a	LTP229	ltpFR2	1	n/a	n/a	n/a	24	13	6	5	2
3603.952	n/a	PROB	1801976	n/a	LTP229	ltpFR2	1	n/a	n/a	n/a	24	7	1	5	1
3605.258	n/a	PROB	1802629	n/a	LTP229	ltpFR2	1	n/a	n/a	n/a	24	12	4	6	2
3606.734	n/a	PROB	1803367	n/a	LTP229	ltpFR2	1	n/a	n/a	n/a	24	17	8	7	2
3608.838	n/a	PROB	1804419	n/a	LTP229	ltpFR2	1	n/a	n/a	n/a	24	17	4	3	8
3614.474	n/a	STOP	1807237	n/a	LTP229	ltpFR2	1	n/a	n/a	n/a	24	n/a	n/a	n/a	n/a
3615.564	n/a	WORD	1807782	wordpools/wasnorm_wordpool_576.txt	LTP229	ltpFR2	1	14	SHARK	1275	n/a	n/a	0	0	0
3618.224	n/a	WORD	1809112	wordpools/wasnorm_wordpool_576.txt	LTP229	ltpFR2	1	14	TURTLE	1522	n/a	n/a	0	0	0
3620.67	n/a	WORD	1810335	wordpools/wasnorm_wordpool_576.txt	LTP229	ltpFR2	1	14	CANYON	235	n/a	n/a	0	0	0
3623.294	n/a	WORD	1811647	wordpools/wasnorm_wordpool_576.txt	LTP229	ltpFR2	1	14	RADISH	1158	n/a	n/a	0	0	0
3626.076	n/a	WORD	1813038	wordpools/wasnorm_wordpool_576.txt	LTP229	ltpFR2	1	14	DOUGHNUT	490	n/a	n/a	0	0	0
3628.886	n/a	WORD	1814443	wordpools/wasnorm_wordpool_576.txt	LTP229	ltpFR2	1	14	CORAL	378	n/a	n/a	0	0	0
3631.58	n/a	WORD	1815790	wordpools/wasnorm_wordpool_576.txt	LTP229	ltpFR2	1	14	CRAB	397	n/a	n/a	0	0	0
3634.284	n/a	WORD	1817142	wordpools/wasnorm_wordpool_576.txt	LTP229	ltpFR2	1	14	BEAST	108	n/a	n/a	0	0	0
3637.068	n/a	WORD	1818534	wordpools/wasnorm_wordpool_576.txt	LTP229	ltpFR2	1	14	POSSUM	1112	n/a	n/a	0	0	0
3639.76	n/a	WORD	1819880	wordpools/wasnorm_wordpool_576.txt	LTP229	ltpFR2	1	14	CHIPMUNK	304	n/a	n/a	0	0	0
3642.54	n/a	WORD	1821270	wordpools/wasnorm_wordpool_576.txt	LTP229	ltpFR2	1	14	SPOON	1357	n/a	n/a	0	0	0
3645.082	n/a	WORD	1822541	wordpools/wasnorm_wordpool_576.txt	LTP229	ltpFR2	1	14	STATUE	1374	n/a	n/a	0	0	0
3647.892	n/a	WORD	1823946	wordpools/wasnorm_wordpool_576.txt	LTP229	ltpFR2	1	14	FEMALE	559	n/a	n/a	0	0	0
3650.364	n/a	WORD	1825182	wordpools/wasnorm_wordpool_576.txt	LTP229	ltpFR2	1	14	RABBIT	1152	n/a	n/a	0	0	0
3653.096	n/a	WORD	1826548	wordpools/wasnorm_wordpool_576.txt	LTP229	ltpFR2	1	14	DAUGHTER	442	n/a	n/a	0	0	0
3655.634	n/a	WORD	1827817	wordpools/wasnorm_wordpool_576.txt	LTP229	ltpFR2	1	14	GROUND	666	n/a	n/a	0	0	0
3658.132	n/a	WORD	1829066	wordpools/wasnorm_wordpool_576.txt	LTP229	ltpFR2	1	14	TILE	1468	n/a	n/a	0	0	0
3660.724	n/a	WORD	1830362	wordpools/wasnorm_wordpool_576.txt	LTP229	ltpFR2	1	14	CELLAR	267	n/a	n/a	0	0	0
3663.268	n/a	WORD	1831634	wordpools/wasnorm_wordpool_576.txt	LTP229	ltpFR2	1	14	TABLE	1426	n/a	n/a	0	0	0
3665.726	n/a	WORD	1832863	wordpools/wasnorm_wordpool_576.txt	LTP229	ltpFR2	1	14	STALLION	1369	n/a	n/a	0	0	0
3668.238	n/a	WORD	1834119	wordpools/wasnorm_wordpool_576.txt	LTP229	ltpFR2	1	14	BRACES	164	n/a	n/a	0	0	0
3670.756	n/a	WORD	1835378	wordpools/wasnorm_wordpool_576.txt	LTP229	ltpFR2	1	14	VALLEY	1545	n/a	n/a	0	0	0
3673.49	n/a	WORD	1836745	wordpools/wasnorm_wordpool_576.txt	LTP229	ltpFR2	1	14	SILK	1307	n/a	n/a	0	0	0
3676.3	n/a	WORD	1838150	wordpools/wasnorm_wordpool_576.txt	LTP229	ltpFR2	1	14	EMPIRE	530	n/a	n/a	0	0	0
3677.908	n/a	START	1838954	n/a	LTP229	ltpFR2	1	n/a	n/a	n/a	25	n/a	n/a	n/a	n/a
3678.99	n/a	DISTRACTOR	1839495	n/a	LTP229	ltpFR2	1	14	n/a	n/a	n/a	n/a	0	0	0
3679.006	n/a	PROB	1839503	n/a	LTP229	ltpFR2	1	n/a	n/a	n/a	25	20	9	6	7
3682.708	n/a	PROB	1841354	n/a	LTP229	ltpFR2	1	n/a	n/a	n/a	25	13	3	4	6
3684.61	n/a	PROB	1842305	n/a	LTP229	ltpFR2	1	n/a	n/a	n/a	25	17	7	9	1
3686.14	n/a	PROB	1843070	n/a	LTP229	ltpFR2	1	n/a	n/a	n/a	25	25	9	7	9
3688.692	n/a	PROB	1844346	n/a	LTP229	ltpFR2	1	n/a	n/a	n/a	25	11	3	3	5
3690.382	n/a	PROB	1845191	n/a	LTP229	ltpFR2	1	n/a	n/a	n/a	25	10	2	1	7
3692.306	n/a	PROB	1846153	n/a	LTP229	ltpFR2	1	n/a	n/a	n/a	25	24	9	7	8
3694.714	n/a	PROB	1847357	n/a	LTP229	ltpFR2	1	n/a	n/a	n/a	25	14	6	2	6
3698.218	n/a	PROB	1849109	n/a	LTP229	ltpFR2	1	n/a	n/a	n/a	25	10	4	4	2
3701.908	n/a	STOP	1850954	n/a	LTP229	ltpFR2	1	n/a	n/a	n/a	25	n/a	n/a	n/a	n/a
3703.716	n/a	REC_START	1851858	n/a	LTP229	ltpFR2	1	14	n/a	n/a	n/a	n/a	0	0	0
3706.716	n/a	REC_WORD	1853358	wordpools/wasnorm_wordpool_576.txt	LTP229	ltpFR2	1	14	CORAL	378	n/a	n/a	0	0	0
3714.824	n/a	REC_WORD	1857412	wordpools/wasnorm_wordpool_576.txt	LTP229	ltpFR2	1	14	SOFTBALL	1343	n/a	n/a	0	0	0
3736.894	n/a	REC_WORD	1868447	wordpools/wasnorm_wordpool_576.txt	LTP229	ltpFR2	1	14	CYCLONE	431	n/a	n/a	0	0	0
3794.804	n/a	WORD	1897402	wordpools/wasnorm_wordpool_576.txt	LTP229	ltpFR2	1	15	ICEBERG	731	n/a	n/a	0	0	0
3797.242	n/a	WORD	1898621	wordpools/wasnorm_wordpool_576.txt	LTP229	ltpFR2	1	15	SIBLING	1301	n/a	n/a	0	0	0
3799.918	n/a	WORD	1899959	wordpools/wasnorm_wordpool_576.txt	LTP229	ltpFR2	1	15	SNAKE	1333	n/a	n/a	0	0	0
3802.528	n/a	WORD	1901264	wordpools/wasnorm_wordpool_576.txt	LTP229	ltpFR2	1	15	REBEL	1172	n/a	n/a	0	0	0
3805.278	n/a	WORD	1902639	wordpools/wasnorm_wordpool_576.txt	LTP229	ltpFR2	1	15	FLAG	573	n/a	n/a	0	0	0
3807.73	n/a	WORD	1903865	wordpools/wasnorm_wordpool_576.txt	LTP229	ltpFR2	1	15	DUSTPAN	509	n/a	n/a	0	0	0
3810.482	n/a	WORD	1905241	wordpools/wasnorm_wordpool_576.txt	LTP229	ltpFR2	1	15	TYPIST	1532	n/a	n/a	0	0	0
3813.092	n/a	WORD	1906546	wordpools/wasnorm_wordpool_576.txt	LTP229	ltpFR2	1	15	COUCH	386	n/a	n/a	0	0	0
3815.896	n/a	WORD	1907948	wordpools/wasnorm_wordpool_576.txt	LTP229	ltpFR2	1	15	HOOD	714	n/a	n/a	0	0	0
3818.394	n/a	WORD	1909197	wordpools/wasnorm_wordpool_576.txt	LTP229	ltpFR2	1	15	LEOPARD	812	n/a	n/a	0	0	0
3821.004	n/a	WORD	1910502	wordpools/wasnorm_wordpool_576.txt	LTP229	ltpFR2	1	15	HIGHWAY	707	n/a	n/a	0	0	0
3823.714	n/a	WORD	1911857	wordpools/wasnorm_wordpool_576.txt	LTP229	ltpFR2	1	15	LAPEL	800	n/a	n/a	0	0	0
3826.258	n/a	WORD	1913129	wordpools/wasnorm_wordpool_576.txt	LTP229	ltpFR2	1	15	SISTER	1312	n/a	n/a	0	0	0
3828.986	n/a	WORD	1914493	wordpools/wasnorm_wordpool_576.txt	LTP229	ltpFR2	1	15	TEMPLE	1448	n/a	n/a	0	0	0
3831.59	n/a	WORD	1915795	wordpools/wasnorm_wordpool_576.txt	LTP229	ltpFR2	1	15	BLENDER	136	n/a	n/a	0	0	0
3834.288	n/a	WORD	1917144	wordpools/wasnorm_wordpool_576.txt	LTP229	ltpFR2	1	15	CLAMP	316	n/a	n/a	0	0	0
3836.798	n/a	WORD	1918399	wordpools/wasnorm_wordpool_576.txt	LTP229	ltpFR2	1	15	TWIG	1527	n/a	n/a	0	0	0
3839.274	n/a	WORD	1919637	wordpools/wasnorm_wordpool_576.txt	LTP229	ltpFR2	1	15	WHISKERS	1605	n/a	n/a	0	0	0
3841.928	n/a	WORD	1920964	wordpools/wasnorm_wordpool_576.txt	LTP229	ltpFR2	1	15	WIFE	1609	n/a	n/a	0	0	0
3844.36	n/a	WORD	1922180	wordpools/wasnorm_wordpool_576.txt	LTP229	ltpFR2	1	15	ELBOW	520	n/a	n/a	0	0	0
3847.02	n/a	WORD	1923510	wordpools/wasnorm_wordpool_576.txt	LTP229	ltpFR2	1	15	LEG	809	n/a	n/a	0	0	0
3849.608	n/a	WORD	1924804	wordpools/wasnorm_wordpool_576.txt	LTP229	ltpFR2	1	15	PIGMENT	1066	n/a	n/a	0	0	0
3852.358	n/a	WORD	1926179	wordpools/wasnorm_wordpool_576.txt	LTP229	ltpFR2	1	15	COWBOY	395	n/a	n/a	0	0	0
3855.186	n/a	WORD	1927593	wordpools/wasnorm_wordpool_576.txt	LTP229	ltpFR2	1	15	WAGON	1578	n/a	n/a	0	0	0
3856.802	n/a	START	1928401	n/a	LTP229	ltpFR2	1	n/a	n/a	n/a	26	n/a	n/a	n/a	n/a
3857.696	n/a	DISTRACTOR	1928848	n/a	LTP229	ltpFR2	1	15	n/a	n/a	n/a	n/a	0	0	0
3857.71	n/a	PROB	1928855	n/a	LTP229	ltpFR2	1	n/a	n/a	n/a	26	18	9	7	2
3859.914	n/a	PROB	1929957	n/a	LTP229	ltpFR2	1	n/a	n/a	n/a	26	24	7	8	6
3863.92	n/a	PROB	1931960	n/a	LTP229	ltpFR2	1	n/a	n/a	n/a	26	20	4	8	7
3866.49	n/a	PROB	1933245	n/a	LTP229	ltpFR2	1	n/a	n/a	n/a	26	22	9	9	4
3870.494	n/a	PROB	1935247	n/a	LTP229	ltpFR2	1	n/a	n/a	n/a	26	12	6	5	1
3872.446	n/a	PROB	1936223	n/a	LTP229	ltpFR2	1	n/a	n/a	n/a	26	12	4	2	6
3874.988	n/a	PROB	1937494	n/a	LTP229	ltpFR2	1	n/a	n/a	n/a	26	10	7	1	2
3876.75	n/a	PROB	1938375	n/a	LTP229	ltpFR2	1	n/a	n/a	n/a	26	17	7	2	8
3879.204	n/a	PROB	1939602	n/a	LTP229	ltpFR2	1	n/a	n/a	n/a	26	13	6	1	6
3880.562	n/a	STOP	1940281	n/a	LTP229	ltpFR2	1	n/a	n/a	n/a	26	n/a	n/a	n/a	n/a
3882.702	n/a	REC_START	1941351	n/a	LTP229	ltpFR2	1	15	n/a	n/a	n/a	n/a	0	0	0
3883.988	n/a	REC_WORD	1941994	wordpools/wasnorm_wordpool_576.txt	LTP229	ltpFR2	1	15	HIGHWAY	707	n/a	n/a	0	0	0
3887.156	n/a	REC_WORD	1943578	wordpools/wasnorm_wordpool_576.txt	LTP229	ltpFR2	1	15	LAPEL	800	n/a	n/a	0	0	0
3889.768	n/a	REC_WORD	1944884	wordpools/wasnorm_wordpool_576.txt	LTP229	ltpFR2	1	15	CLAMP	316	n/a	n/a	0	0	0
3892.356	n/a	REC_WORD	1946178	wordpools/wasnorm_wordpool_576.txt	LTP229	ltpFR2	1	15	PLATE	1086	n/a	n/a	0	0	0
3920.306	n/a	REC_WORD	1960153	wordpools/wasnorm_wordpool_576.txt	LTP229	ltpFR2	1	15	REBEL	1172	n/a	n/a	0	0	0
3922.904	n/a	REC_WORD	1961452	wordpools/wasnorm_wordpool_576.txt	LTP229	ltpFR2	1	15	FLAG	573	n/a	n/a	0	0	0
3927.928	n/a	REC_WORD	1963964	wordpools/wasnorm_wordpool_576.txt	LTP229	ltpFR2	1	15	SIBLING	1301	n/a	n/a	0	0	0
3930.458	n/a	REC_WORD	1965229	wordpools/wasnorm_wordpool_576.txt	LTP229	ltpFR2	1	15	SISTER	1312	n/a	n/a	0	0	0
3933.208	n/a	REC_WORD	1966604	wordpools/wasnorm_wordpool_576.txt	LTP229	ltpFR2	1	15	TEMPLE	1448	n/a	n/a	0	0	0
3935.818	n/a	REC_WORD	1967909	wordpools/wasnorm_wordpool_576.txt	LTP229	ltpFR2	1	15	COUCH	386	n/a	n/a	0	0	0
3938.592	n/a	REC_WORD	1969296	wordpools/wasnorm_wordpool_576.txt	LTP229	ltpFR2	1	15	HOOD	714	n/a	n/a	0	0	0
3973.72	n/a	WORD	1986860	wordpools/wasnorm_wordpool_576.txt	LTP229	ltpFR2	1	16	MARSH	874	n/a	n/a	0	0	0
3976.432	n/a	WORD	1988216	wordpools/wasnorm_wordpool_576.txt	LTP229	ltpFR2	1	16	HEART	697	n/a	n/a	0	0	0
3979.042	n/a	WORD	1989521	wordpools/wasnorm_wordpool_576.txt	LTP229	ltpFR2	1	16	PIANO	1057	n/a	n/a	0	0	0
3981.852	n/a	WORD	1990926	wordpools/wasnorm_wordpool_576.txt	LTP229	ltpFR2	1	16	FLIPPER	580	n/a	n/a	0	0	0
3984.658	n/a	WORD	1992329	wordpools/wasnorm_wordpool_576.txt	LTP229	ltpFR2	1	16	MAMMAL	861	n/a	n/a	0	0	0
3987.424	n/a	WORD	1993712	wordpools/wasnorm_wordpool_576.txt	LTP229	ltpFR2	1	16	TOURIST	1488	n/a	n/a	0	0	0
3990.112	n/a	WORD	1995056	wordpools/wasnorm_wordpool_576.txt	LTP229	ltpFR2	1	16	GARBAGE	622	n/a	n/a	0	0	0
3992.77	n/a	WORD	1996385	wordpools/wasnorm_wordpool_576.txt	LTP229	ltpFR2	1	16	SKETCH	1315	n/a	n/a	0	0	0
3995.532	n/a	WORD	1997766	wordpools/wasnorm_wordpool_576.txt	LTP229	ltpFR2	1	16	BANJO	82	n/a	n/a	0	0	0
3998.11	n/a	WORD	1999055	wordpools/wasnorm_wordpool_576.txt	LTP229	ltpFR2	1	16	BUCKET	184	n/a	n/a	0	0	0
4000.568	n/a	WORD	2000284	wordpools/wasnorm_wordpool_576.txt	LTP229	ltpFR2	1	16	STREAM	1392	n/a	n/a	0	0	0
4003.0	n/a	WORD	2001500	wordpools/wasnorm_wordpool_576.txt	LTP229	ltpFR2	1	16	SODA	1341	n/a	n/a	0	0	0
4005.71	n/a	WORD	2002855	wordpools/wasnorm_wordpool_576.txt	LTP229	ltpFR2	1	16	BALLOON	75	n/a	n/a	0	0	0
4008.236	n/a	WORD	2004118	wordpools/wasnorm_wordpool_576.txt	LTP229	ltpFR2	1	16	ARMY	39	n/a	n/a	0	0	0
4010.93	n/a	WORD	2005465	wordpools/wasnorm_wordpool_576.txt	LTP229	ltpFR2	1	16	MILK	895	n/a	n/a	0	0	0
4013.74	n/a	WORD	2006870	wordpools/wasnorm_wordpool_576.txt	LTP229	ltpFR2	1	16	PASTA	1021	n/a	n/a	0	0	0
4016.184	n/a	WORD	2008092	wordpools/wasnorm_wordpool_576.txt	LTP229	ltpFR2	1	16	COLONEL	348	n/a	n/a	0	0	0
4018.978	n/a	WORD	2009489	wordpools/wasnorm_wordpool_576.txt	LTP229	ltpFR2	1	16	ZIPPER	1636	n/a	n/a	0	0	0
4021.672	n/a	WORD	2010836	wordpools/wasnorm_wordpool_576.txt	LTP229	ltpFR2	1	16	FRIEND	606	n/a	n/a	0	0	0
4024.348	n/a	WORD	2012174	wordpools/wasnorm_wordpool_576.txt	LTP229	ltpFR2	1	16	SCOTCH	1251	n/a	n/a	0	0	0
4027.036	n/a	WORD	2013518	wordpools/wasnorm_wordpool_576.txt	LTP229	ltpFR2	1	16	PLUTO	1092	n/a	n/a	0	0	0
4029.502	n/a	WORD	2014751	wordpools/wasnorm_wordpool_576.txt	LTP229	ltpFR2	1	16	CEILING	265	n/a	n/a	0	0	0
4032.012	n/a	WORD	2016006	wordpools/wasnorm_wordpool_576.txt	LTP229	ltpFR2	1	16	FRAME	600	n/a	n/a	0	0	0
4034.572	n/a	WORD	2017286	wordpools/wasnorm_wordpool_576.txt	LTP229	ltpFR2	1	16	PARENT	1013	n/a	n/a	0	0	0
4036.188	n/a	START	2018094	n/a	LTP229	ltpFR2	1	n/a	n/a	n/a	27	n/a	n/a	n/a	n/a
4037.3	n/a	DISTRACTOR	2018650	n/a	LTP229	ltpFR2	1	16	n/a	n/a	n/a	n/a	0	0	0
4037.314	n/a	PROB	2018657	n/a	LTP229	ltpFR2	1	n/a	n/a	n/a	27	9	4	1	4
4038.832	n/a	PROB	2019416	n/a	LTP229	ltpFR2	1	n/a	n/a	n/a	27	18	6	4	8
4040.158	n/a	PROB	2020079	n/a	LTP229	ltpFR2	1	n/a	n/a	n/a	27	10	1	4	5
4042.234	n/a	PROB	2021117	n/a	LTP229	ltpFR2	1	n/a	n/a	n/a	27	21	7	7	7
4044.018	n/a	PROB	2022009	n/a	LTP229	ltpFR2	1	n/a	n/a	n/a	27	17	6	1	9
4045.79	n/a	PROB	2022895	n/a	LTP229	ltpFR2	1	n/a	n/a	n/a	27	14	5	7	2
4050.416	n/a	PROB	2025208	n/a	LTP229	ltpFR2	1	n/a	n/a	n/a	27	13	8	3	2
4054.09	n/a	PROB	2027045	n/a	LTP229	ltpFR2	1	n/a	n/a	n/a	27	21	7	7	7
4055.518	n/a	PROB	2027759	n/a	LTP229	ltpFR2	1	n/a	n/a	n/a	27	16	4	9	3
4058.072	n/a	PROB	2029036	n/a	LTP229	ltpFR2	1	n/a	n/a	n/a	27	13	7	3	3
4059.42	n/a	STOP	2029710	n/a	LTP229	ltpFR2	1	n/a	n/a	n/a	27	n/a	n/a	n/a	n/a
4062.138	n/a	REC_START	2031069	n/a	LTP229	ltpFR2	1	16	n/a	n/a	n/a	n/a	0	0	0
4066.056	n/a	REC_WORD	2033028	wordpools/wasnorm_wordpool_576.txt	LTP229	ltpFR2	1	16	FRAME	600	n/a	n/a	0	0	0
4068.774	n/a	REC_WORD	2034387	wordpools/wasnorm_wordpool_576.txt	LTP229	ltpFR2	1	16	SKETCH	1315	n/a	n/a	0	0	0
4138.886	n/a	REST_REWET	2069443	n/a	LTP229	ltpFR2	1	16	n/a	n/a	n/a	n/a	0	0	0
4582.498	n/a	WORD	2291249	wordpools/wasnorm_wordpool_576.txt	LTP229	ltpFR2	1	17	GIRL	637	n/a	n/a	0	0	0
4585.124	n/a	WORD	2292562	wordpools/wasnorm_wordpool_576.txt	LTP229	ltpFR2	1	17	SIDEWALK	1303	n/a	n/a	0	0	0
4587.78	n/a	WORD	2293890	wordpools/wasnorm_wordpool_576.txt	LTP229	ltpFR2	1	17	GLASS	639	n/a	n/a	0	0	0
4590.496	n/a	WORD	2295248	wordpools/wasnorm_wordpool_576.txt	LTP229	ltpFR2	1	17	PREACHER	1119	n/a	n/a	0	0	0
4593.0	n/a	WORD	2296500	wordpools/wasnorm_wordpool_576.txt	LTP229	ltpFR2	1	17	CHAPEL	280	n/a	n/a	0	0	0
4595.482	n/a	WORD	2297741	wordpools/wasnorm_wordpool_576.txt	LTP229	ltpFR2	1	17	AWARD	63	n/a	n/a	0	0	0
4598.292	n/a	WORD	2299146	wordpools/wasnorm_wordpool_576.txt	LTP229	ltpFR2	1	17	SHORTCAKE	1292	n/a	n/a	0	0	0
4600.886	n/a	WORD	2300443	wordpools/wasnorm_wordpool_576.txt	LTP229	ltpFR2	1	17	BOARD	143	n/a	n/a	0	0	0
4603.512	n/a	WORD	2301756	wordpools/wasnorm_wordpool_576.txt	LTP229	ltpFR2	1	17	EGYPT	519	n/a	n/a	0	0	0
4606.2	n/a	WORD	2303100	wordpools/wasnorm_wordpool_576.txt	LTP229	ltpFR2	1	17	COUNTRY	388	n/a	n/a	0	0	0
4608.748	n/a	WORD	2304374	wordpools/wasnorm_wordpool_576.txt	LTP229	ltpFR2	1	17	PEPPER	1047	n/a	n/a	0	0	0
4611.286	n/a	WORD	2305643	wordpools/wasnorm_wordpool_576.txt	LTP229	ltpFR2	1	17	STAPLE	1371	n/a	n/a	0	0	0
4613.914	n/a	WORD	2306957	wordpools/wasnorm_wordpool_576.txt	LTP229	ltpFR2	1	17	TABLET	1427	n/a	n/a	0	0	0
4616.69	n/a	WORD	2308345	wordpools/wasnorm_wordpool_576.txt	LTP229	ltpFR2	1	17	FRIAR	605	n/a	n/a	0	0	0
4619.132	n/a	WORD	2309566	wordpools/wasnorm_wordpool_576.txt	LTP229	ltpFR2	1	17	FIDDLE	561	n/a	n/a	0	0	0
4621.944	n/a	WORD	2310972	wordpools/wasnorm_wordpool_576.txt	LTP229	ltpFR2	1	17	GYMNAST	675	n/a	n/a	0	0	0
4624.71	n/a	WORD	2312355	wordpools/wasnorm_wordpool_576.txt	LTP229	ltpFR2	1	17	PARTNER	1017	n/a	n/a	0	0	0
4627.504	n/a	WORD	2313752	wordpools/wasnorm_wordpool_576.txt	LTP229	ltpFR2	1	17	SWAMP	1416	n/a	n/a	0	0	0
4630.158	n/a	WORD	2315079	wordpools/wasnorm_wordpool_576.txt	LTP229	ltpFR2	1	17	PAPER	1011	n/a	n/a	0	0	0
4632.79	n/a	WORD	2316395	wordpools/wasnorm_wordpool_576.txt	LTP229	ltpFR2	1	17	RUST	1219	n/a	n/a	0	0	0
4635.562	n/a	WORD	2317781	wordpools/wasnorm_wordpool_576.txt	LTP229	ltpFR2	1	17	PISTON	1076	n/a	n/a	0	0	0
4638.128	n/a	WORD	2319064	wordpools/wasnorm_wordpool_576.txt	LTP229	ltpFR2	1	17	NOTEBOOK	959	n/a	n/a	0	0	0
4640.704	n/a	WORD	2320352	wordpools/wasnorm_wordpool_576.txt	LTP229	ltpFR2	1	17	CURTAIN	427	n/a	n/a	0	0	0
4643.398	n/a	WORD	2321699	wordpools/wasnorm_wordpool_576.txt	LTP229	ltpFR2	1	17	RUG	1215	n/a	n/a	0	0	0
4645.016	n/a	START	2322508	n/a	LTP229	ltpFR2	1	n/a	n/a	n/a	28	n/a	n/a	n/a	n/a
4645.996	n/a	DISTRACTOR	2322998	n/a	LTP229	ltpFR2	1	17	n/a	n/a	n/a	n/a	0	0	0
4646.008	n/a	PROB	2323004	n/a	LTP229	ltpFR2	1	n/a	n/a	n/a	28	21	9	8	3
4650.742	n/a	PROB	2325371	n/a	LTP229	ltpFR2	1	n/a	n/a	n/a	28	15	1	5	9
4653.43	n/a	PROB	2326715	n/a	LTP229	ltpFR2	1	n/a	n/a	n/a	28	11	5	4	2
4655.76	n/a	PROB	2327880	n/a	LTP229	ltpFR2	1	n/a	n/a	n/a	28	21	8	8	5
4658.934	n/a	PROB	2329467	n/a	LTP229	ltpFR2	1	n/a	n/a	n/a	28	9	5	3	1
4660.574	n/a	PROB	2330287	n/a	LTP229	ltpFR2	1	n/a	n/a	n/a	28	13	2	7	4
4663.91	n/a	PROB	2331955	n/a	LTP229	ltpFR2	1	n/a	n/a	n/a	28	13	7	2	6
4668.142	n/a	STOP	2334071	n/a	LTP229	ltpFR2	1	n/a	n/a	n/a	28	n/a	n/a	n/a	n/a
4670.898	n/a	REC_START	2335449	n/a	LTP229	ltpFR2	1	17	n/a	n/a	n/a	n/a	0	0	0
4673.566	n/a	REC_WORD	2336783	wordpools/wasnorm_wordpool_576.txt	LTP229	ltpFR2	1	17	HIKER	708	n/a	n/a	0	0	0
4675.416	n/a	REC_WORD	2337708	wordpools/wasnorm_wordpool_576.txt	LTP229	ltpFR2	1	17	DRIVER	499	n/a	n/a	0	0	0
4677.698	n/a	REC_WORD	2338849	wordpools/wasnorm_wordpool_576.txt	LTP229	ltpFR2	1	17	PISTON	1076	n/a	n/a	0	0	0
4690.442	n/a	REC_WORD	2345221	wordpools/wasnorm_wordpool_576.txt	LTP229	ltpFR2	1	17	FRIAR	605	n/a	n/a	0	0	0
4692.248	n/a	REC_WORD	2346124	wordpools/wasnorm_wordpool_576.txt	LTP229	ltpFR2	1	17	FIDDLE	561	n/a	n/a	0	0	0
4694.286	n/a	REC_WORD	2347143	wordpools/wasnorm_wordpool_576.txt	LTP229	ltpFR2	1	17	GYMNAST	675	n/a	n/a	0	0	0
4699.528	n/a	REC_WORD	2349764	wordpools/wasnorm_wordpool_576.txt	LTP229	ltpFR2	1	17	KNIFE	785	n/a	n/a	0	0	0
4701.604	n/a	REC_WORD	2350802	wordpools/wasnorm_wordpool_576.txt	LTP229	ltpFR2	1	17	SCALPEL	1243	n/a	n/a	0	0	0
4718.316	n/a	REC_WORD	2359158	wordpools/wasnorm_wordpool_576.txt	LTP229	ltpFR2	1	17	LOVER	846	n/a	n/a	0	0	0
4761.946	n/a	WORD	2380973	wordpools/wasnorm_wordpool_576.txt	LTP229	ltpFR2	1	18	BRIEFCASE	175	n/a	n/a	0	0	0
4764.628	n/a	WORD	2382314	wordpools/wasnorm_wordpool_576.txt	LTP229	ltpFR2	1	18	TOMBSTONE	1478	n/a	n/a	0	0	0
4767.338	n/a	WORD	2383669	wordpools/wasnorm_wordpool_576.txt	LTP229	ltpFR2	1	18	INFANT	737	n/a	n/a	0	0	0
4770.132	n/a	WORD	2385066	wordpools/wasnorm_wordpool_576.txt	LTP229	ltpFR2	1	18	ROOSTER	1209	n/a	n/a	0	0	0
4772.61	n/a	WORD	2386305	wordpools/wasnorm_wordpool_576.txt	LTP229	ltpFR2	1	18	MARKER	870	n/a	n/a	0	0	0
4775.214	n/a	WORD	2387607	wordpools/wasnorm_wordpool_576.txt	LTP229	ltpFR2	1	18	PEANUT	1032	n/a	n/a	0	0	0
4777.962	n/a	WORD	2388981	wordpools/wasnorm_wordpool_576.txt	LTP229	ltpFR2	1	18	CASHEW	253	n/a	n/a	0	0	0
4780.432	n/a	WORD	2390216	wordpools/wasnorm_wordpool_576.txt	LTP229	ltpFR2	1	18	NOVEL	960	n/a	n/a	0	0	0
4783.098	n/a	WORD	2391549	wordpools/wasnorm_wordpool_576.txt	LTP229	ltpFR2	1	18	JELLY	755	n/a	n/a	0	0	0
4785.726	n/a	WORD	2392863	wordpools/wasnorm_wordpool_576.txt	LTP229	ltpFR2	1	18	TWEEZERS	1526	n/a	n/a	0	0	0
4788.352	n/a	WORD	2394176	wordpools/wasnorm_wordpool_576.txt	LTP229	ltpFR2	1	18	CLOCK	325	n/a	n/a	0	0	0
4791.09	n/a	WORD	2395545	wordpools/wasnorm_wordpool_576.txt	LTP229	ltpFR2	1	18	CHILD	299	n/a	n/a	0	0	0
4793.79	n/a	WORD	2396895	wordpools/wasnorm_wordpool_576.txt	LTP229	ltpFR2	1	18	HAWK	692	n/a	n/a	0	0	0
4796.534	n/a	WORD	2398267	wordpools/wasnorm_wordpool_576.txt	LTP229	ltpFR2	1	18	POET	1095	n/a	n/a	0	0	0
4799.228	n/a	WORD	2399614	wordpools/wasnorm_wordpool_576.txt	LTP229	ltpFR2	1	18	MAILMAN	858	n/a	n/a	0	0	0
4801.87	n/a	WORD	2400935	wordpools/wasnorm_wordpool_576.txt	LTP229	ltpFR2	1	18	CRAYON	401	n/a	n/a	0	0	0
4804.53	n/a	WORD	2402265	wordpools/wasnorm_wordpool_576.txt	LTP229	ltpFR2	1	18	PLAYGROUND	1087	n/a	n/a	0	0	0
4807.268	n/a	WORD	2403634	wordpools/wasnorm_wordpool_576.txt	LTP229	ltpFR2	1	18	CRICKET	408	n/a	n/a	0	0	0
4810.018	n/a	WORD	2405009	wordpools/wasnorm_wordpool_576.txt	LTP229	ltpFR2	1	18	COCOON	339	n/a	n/a	0	0	0
4812.54	n/a	WORD	2406270	wordpools/wasnorm_wordpool_576.txt	LTP229	ltpFR2	1	18	GALLON	618	n/a	n/a	0	0	0
4815.054	n/a	WORD	2407527	wordpools/wasnorm_wordpool_576.txt	LTP229	ltpFR2	1	18	BLADE	134	n/a	n/a	0	0	0
4817.664	n/a	WORD	2408832	wordpools/wasnorm_wordpool_576.txt	LTP229	ltpFR2	1	18	GAZELLE	628	n/a	n/a	0	0	0
4820.14	n/a	WORD	2410070	wordpools/wasnorm_wordpool_576.txt	LTP229	ltpFR2	1	18	PANTHER	1009	n/a	n/a	0	0	0
4822.884	n/a	WORD	2411442	wordpools/wasnorm_wordpool_576.txt	LTP229	ltpFR2	1	18	EYELASH	546	n/a	n/a	0	0	0
4824.49	n/a	START	2412245	n/a	LTP229	ltpFR2	1	n/a	n/a	n/a	29	n/a	n/a	n/a	n/a
4825.68	n/a	DISTRACTOR	2412840	n/a	LTP229	ltpFR2	1	18	n/a	n/a	n/a	n/a	0	0	0
4825.694	n/a	PROB	2412847	n/a	LTP229	ltpFR2	1	n/a	n/a	n/a	29	15	8	5	1
4831.316	n/a	PROB	2415658	n/a	LTP229	ltpFR2	1	n/a	n/a	n/a	29	8	1	6	1
4832.6	n/a	PROB	2416300	n/a	LTP229	ltpFR2	1	n/a	n/a	n/a	29	19	8	8	3
4834.762	n/a	PROB	2417381	n/a	LTP229	ltpFR2	1	n/a	n/a	n/a	29	17	7	7	3
4836.78	n/a	PROB	2418390	n/a	LTP229	ltpFR2	1	n/a	n/a	n/a	29	20	9	6	5
4841.766	n/a	PROB	2420883	n/a	LTP229	ltpFR2	1	n/a	n/a	n/a	29	13	3	4	8
4844.594	n/a	PROB	2422297	n/a	LTP229	ltpFR2	1	n/a	n/a	n/a	29	9	1	2	6
4847.024	n/a	STOP	2423512	n/a	LTP229	ltpFR2	1	n/a	n/a	n/a	29	n/a	n/a	n/a	n/a
4850.268	n/a	REC_START	2425134	n/a	LTP229	ltpFR2	1	18	n/a	n/a	n/a	n/a	0	0	0
4854.266	n/a	REC_WORD	2427133	wordpools/wasnorm_wordpool_576.txt	LTP229	ltpFR2	1	18	MARKER	870	n/a	n/a	0	0	0
4857.654	n/a	REC_WORD	2428827	wordpools/wasnorm_wordpool_576.txt	LTP229	ltpFR2	1	18	TWEEZERS	1526	n/a	n/a	0	0	0
4860.378	n/a	REC_WORD	2430189	wordpools/wasnorm_wordpool_576.txt	LTP229	ltpFR2	1	18	JELLY	755	n/a	n/a	0	0	0
4870.454	n/a	REC_WORD	2435227	wordpools/wasnorm_wordpool_576.txt	LTP229	ltpFR2	1	18	HIGHWAY	707	n/a	n/a	0	0	0
4874.212	n/a	REC_WORD	2437106	wordpools/wasnorm_wordpool_576.txt	LTP229	ltpFR2	1	18	SIDEWALK	1303	n/a	n/a	0	0	0
4876.122	n/a	REC_WORD	2438061	wordpools/wasnorm_wordpool_576.txt	LTP229	ltpFR2	1	18	GLASS	639	n/a	n/a	0	0	0
4878.188	n/a	REC_WORD	2439094	wordpools/wasnorm_wordpool_576.txt	LTP229	ltpFR2	1	18	RUG	1215	n/a	n/a	0	0	0
4880.156	n/a	REC_WORD	2440078	wordpools/wasnorm_wordpool_576.txt	LTP229	ltpFR2	1	18	RUST	1219	n/a	n/a	0	0	0
4882.066	n/a	REC_WORD	2441033	wordpools/wasnorm_wordpool_576.txt	LTP229	ltpFR2	1	18	NOTEBOOK	959	n/a	n/a	0	0	0
4884.098	n/a	REC_WORD	2442049	wordpools/wasnorm_wordpool_576.txt	LTP229	ltpFR2	1	18	NOVEL	960	n/a	n/a	0	0	0
4886.57	n/a	REC_WORD	2443285	wordpools/wasnorm_wordpool_576.txt	LTP229	ltpFR2	1	18	AUTHOR	61	n/a	n/a	0	0	0
4898.618	n/a	REC_WORD	2449309	wordpools/wasnorm_wordpool_576.txt	LTP229	ltpFR2	1	18	IGLOO	734	n/a	n/a	0	0	0
4903.44	n/a	REC_WORD	2451720	wordpools/wasnorm_wordpool_576.txt	LTP229	ltpFR2	1	18	EYEBROW	-1	n/a	n/a	0	0	0
4941.348	n/a	WORD	2470674	wordpools/wasnorm_wordpool_576.txt	LTP229	ltpFR2	1	19	OUTDOORS	987	n/a	n/a	0	0	0
4944.142	n/a	WORD	2472071	wordpools/wasnorm_wordpool_576.txt	LTP229	ltpFR2	1	19	KITCHEN	778	n/a	n/a	0	0	0
4946.652	n/a	WORD	2473326	wordpools/wasnorm_wordpool_576.txt	LTP229	ltpFR2	1	19	PIGEON	1065	n/a	n/a	0	0	0
4949.452	n/a	WORD	2474726	wordpools/wasnorm_wordpool_576.txt	LTP229	ltpFR2	1	19	COUNTY	389	n/a	n/a	0	0	0
4951.894	n/a	WORD	2475947	wordpools/wasnorm_wordpool_576.txt	LTP229	ltpFR2	1	19	BEAVER	109	n/a	n/a	0	0	0
4954.52	n/a	WORD	2477260	wordpools/wasnorm_wordpool_576.txt	LTP229	ltpFR2	1	19	BOYFRIEND	162	n/a	n/a	0	0	0
4956.996	n/a	WORD	2478498	wordpools/wasnorm_wordpool_576.txt	LTP229	ltpFR2	1	19	FLASHLIGHT	575	n/a	n/a	0	0	0
4959.474	n/a	WORD	2479737	wordpools/wasnorm_wordpool_576.txt	LTP229	ltpFR2	1	19	TUNNEL	1519	n/a	n/a	0	0	0
4962.2	n/a	WORD	2481100	wordpools/wasnorm_wordpool_576.txt	LTP229	ltpFR2	1	19	HOSTESS	723	n/a	n/a	0	0	0
4964.904	n/a	WORD	2482452	wordpools/wasnorm_wordpool_576.txt	LTP229	ltpFR2	1	19	COCKTAIL	338	n/a	n/a	0	0	0
4967.336	n/a	WORD	2483668	wordpools/wasnorm_wordpool_576.txt	LTP229	ltpFR2	1	19	PICTURE	1061	n/a	n/a	0	0	0
4969.762	n/a	WORD	2484881	wordpools/wasnorm_wordpool_576.txt	LTP229	ltpFR2	1	19	DRAWING	494	n/a	n/a	0	0	0
4972.338	n/a	WORD	2486169	wordpools/wasnorm_wordpool_576.txt	LTP229	ltpFR2	1	19	WRENCH	1625	n/a	n/a	0	0	0
4974.976	n/a	WORD	2487488	wordpools/wasnorm_wordpool_576.txt	LTP229	ltpFR2	1	19	SKIRT	1319	n/a	n/a	0	0	0
4977.526	n/a	WORD	2488763	wordpools/wasnorm_wordpool_576.txt	LTP229	ltpFR2	1	19	LACE	792	n/a	n/a	0	0	0
4980.214	n/a	WORD	2490107	wordpools/wasnorm_wordpool_576.txt	LTP229	ltpFR2	1	19	COBRA	336	n/a	n/a	0	0	0
4982.862	n/a	WORD	2491431	wordpools/wasnorm_wordpool_576.txt	LTP229	ltpFR2	1	19	SERVANT	1271	n/a	n/a	0	0	0
4985.472	n/a	WORD	2492736	wordpools/wasnorm_wordpool_576.txt	LTP229	ltpFR2	1	19	VIRUS	1572	n/a	n/a	0	0	0
4987.914	n/a	WORD	2493957	wordpools/wasnorm_wordpool_576.txt	LTP229	ltpFR2	1	19	MAILBOX	857	n/a	n/a	0	0	0
4990.642	n/a	WORD	2495321	wordpools/wasnorm_wordpool_576.txt	LTP229	ltpFR2	1	19	LABEL	790	n/a	n/a	0	0	0
4993.168	n/a	WORD	2496584	wordpools/wasnorm_wordpool_576.txt	LTP229	ltpFR2	1	19	KNAPSACK	783	n/a	n/a	0	0	0
4995.778	n/a	WORD	2497889	wordpools/wasnorm_wordpool_576.txt	LTP229	ltpFR2	1	19	PERCH	1048	n/a	n/a	0	0	0
4998.306	n/a	WORD	2499153	wordpools/wasnorm_wordpool_576.txt	LTP229	ltpFR2	1	19	CANAL	226	n/a	n/a	0	0	0
5000.966	n/a	WORD	2500483	wordpools/wasnorm_wordpool_576.txt	LTP229	ltpFR2	1	19	MESSAGE	888	n/a	n/a	0	0	0
5002.582	n/a	START	2501291	n/a	LTP229	ltpFR2	1	n/a	n/a	n/a	30	n/a	n/a	n/a	n/a
5003.402	n/a	DISTRACTOR	2501701	n/a	LTP229	ltpFR2	1	19	n/a	n/a	n/a	n/a	0	0	0
5003.418	n/a	PROB	2501709	n/a	LTP229	ltpFR2	1	n/a	n/a	n/a	30	12	2	4	6
5005.108	n/a	PROB	2502554	n/a	LTP229	ltpFR2	1	n/a	n/a	n/a	30	15	6	3	5
5009.558	n/a	PROB	2504779	n/a	LTP229	ltpFR2	1	n/a	n/a	n/a	30	17	3	7	7
5012.134	n/a	PROB	2506067	n/a	LTP229	ltpFR2	1	n/a	n/a	n/a	30	20	7	5	8
5016.358	n/a	PROB	2508179	n/a	LTP229	ltpFR2	1	n/a	n/a	n/a	30	18	8	2	8
5018.03	n/a	PROB	2509015	n/a	LTP229	ltpFR2	1	n/a	n/a	n/a	30	17	8	5	4
5021.354	n/a	PROB	2510677	n/a	LTP229	ltpFR2	1	n/a	n/a	n/a	30	11	4	3	4
5023.834	n/a	PROB	2511917	n/a	LTP229	ltpFR2	1	n/a	n/a	n/a	30	11	2	5	4
5025.848	n/a	STOP	2512924	n/a	LTP229	ltpFR2	1	n/a	n/a	n/a	30	n/a	n/a	n/a	n/a
5028.498	n/a	REC_START	2514249	n/a	LTP229	ltpFR2	1	19	n/a	n/a	n/a	n/a	0	0	0
5033.472	n/a	REC_WORD_VV	2516736	wordpools/wasnorm_wordpool_576.txt	LTP229	ltpFR2	1	19	<>	-1	n/a	n/a	0	0	0
5036.128	n/a	REC_WORD	2518064	wordpools/wasnorm_wordpool_576.txt	LTP229	ltpFR2	1	19	FLASHLIGHT	575	n/a	n/a	0	0	0
5038.036	n/a	REC_WORD	2519018	wordpools/wasnorm_wordpool_576.txt	LTP229	ltpFR2	1	19	TUNNEL	1519	n/a	n/a	0	0	0
5040.05	n/a	REC_WORD	2520025	wordpools/wasnorm_wordpool_576.txt	LTP229	ltpFR2	1	19	BOYFRIEND	162	n/a	n/a	0	0	0
5041.916	n/a	REC_WORD	2520958	wordpools/wasnorm_wordpool_576.txt	LTP229	ltpFR2	1	19	CANAL	226	n/a	n/a	0	0	0
5043.896	n/a	REC_WORD	2521948	wordpools/wasnorm_wordpool_576.txt	LTP229	ltpFR2	1	19	MESSAGE	888	n/a	n/a	0	0	0
5045.684	n/a	REC_WORD	2522842	wordpools/wasnorm_wordpool_576.txt	LTP229	ltpFR2	1	19	LABEL	790	n/a	n/a	0	0	0
5048.078	n/a	REC_WORD	2524039	wordpools/wasnorm_wordpool_576.txt	LTP229	ltpFR2	1	19	MAILBOX	857	n/a	n/a	0	0	0
5070.828	n/a	REC_WORD	2535414	wordpools/wasnorm_wordpool_576.txt	LTP229	ltpFR2	1	19	COBRA	336	n/a	n/a	0	0	0
5072.99	n/a	REC_WORD	2536495	wordpools/wasnorm_wordpool_576.txt	LTP229	ltpFR2	1	19	KNAPSACK	783	n/a	n/a	0	0	0
5075.39	n/a	REC_WORD	2537695	wordpools/wasnorm_wordpool_576.txt	LTP229	ltpFR2	1	19	OUTDOORS	987	n/a	n/a	0	0	0
5077.602	n/a	REC_WORD	2538801	wordpools/wasnorm_wordpool_576.txt	LTP229	ltpFR2	1	19	KITCHEN	778	n/a	n/a	0	0	0
5119.552	n/a	WORD	2559776	wordpools/wasnorm_wordpool_576.txt	LTP229	ltpFR2	1	20	BUG	187	n/a	n/a	0	0	0
5122.06	n/a	WORD	2561030	wordpools/wasnorm_wordpool_576.txt	LTP229	ltpFR2	1	20	BUBBLE	183	n/a	n/a	0	0	0
5124.52	n/a	WORD	2562260	wordpools/wasnorm_wordpool_576.txt	LTP229	ltpFR2	1	20	NURSE	963	n/a	n/a	0	0	0
5127.264	n/a	WORD	2563632	wordpools/wasnorm_wordpool_576.txt	LTP229	ltpFR2	1	20	CONTRACT	368	n/a	n/a	0	0	0
5129.774	n/a	WORD	2564887	wordpools/wasnorm_wordpool_576.txt	LTP229	ltpFR2	1	20	COTTAGE	384	n/a	n/a	0	0	0
5132.378	n/a	WORD	2566189	wordpools/wasnorm_wordpool_576.txt	LTP229	ltpFR2	1	20	DRUG	501	n/a	n/a	0	0	0
5134.978	n/a	WORD	2567489	wordpools/wasnorm_wordpool_576.txt	LTP229	ltpFR2	1	20	DENTIST	447	n/a	n/a	0	0	0
5137.52	n/a	WORD	2568760	wordpools/wasnorm_wordpool_576.txt	LTP229	ltpFR2	1	20	FOOT	590	n/a	n/a	0	0	0
5140.224	n/a	WORD	2570112	wordpools/wasnorm_wordpool_576.txt	LTP229	ltpFR2	1	20	POWDER	1117	n/a	n/a	0	0	0
5142.656	n/a	WORD	2571328	wordpools/wasnorm_wordpool_576.txt	LTP229	ltpFR2	1	20	SWITCH	1422	n/a	n/a	0	0	0
5145.418	n/a	WORD	2572709	wordpools/wasnorm_wordpool_576.txt	LTP229	ltpFR2	1	20	PARROT	1015	n/a	n/a	0	0	0
5147.926	n/a	WORD	2573963	wordpools/wasnorm_wordpool_576.txt	LTP229	ltpFR2	1	20	SCARECROW	1245	n/a	n/a	0	0	0
5150.582	n/a	WORD	2575291	wordpools/wasnorm_wordpool_576.txt	LTP229	ltpFR2	1	20	FOX	598	n/a	n/a	0	0	0
5153.18	n/a	WORD	2576590	wordpools/wasnorm_wordpool_576.txt	LTP229	ltpFR2	1	20	PUPPY	1144	n/a	n/a	0	0	0
5155.7	n/a	WORD	2577850	wordpools/wasnorm_wordpool_576.txt	LTP229	ltpFR2	1	20	HEADBAND	696	n/a	n/a	0	0	0
5158.516	n/a	WORD	2579258	wordpools/wasnorm_wordpool_576.txt	LTP229	ltpFR2	1	20	LIPSTICK	829	n/a	n/a	0	0	0
5161.038	n/a	WORD	2580519	wordpools/wasnorm_wordpool_576.txt	LTP229	ltpFR2	1	20	SPHINX	1349	n/a	n/a	0	0	0
5163.62	n/a	WORD	2581810	wordpools/wasnorm_wordpool_576.txt	LTP229	ltpFR2	1	20	MUMMY	932	n/a	n/a	0	0	0
5166.18	n/a	WORD	2583090	wordpools/wasnorm_wordpool_576.txt	LTP229	ltpFR2	1	20	PADDING	999	n/a	n/a	0	0	0
5168.8	n/a	WORD	2584400	wordpools/wasnorm_wordpool_576.txt	LTP229	ltpFR2	1	20	LASER	801	n/a	n/a	0	0	0
5171.294	n/a	WORD	2585647	wordpools/wasnorm_wordpool_576.txt	LTP229	ltpFR2	1	20	QUAIL	1147	n/a	n/a	0	0	0
5173.886	n/a	WORD	2586943	wordpools/wasnorm_wordpool_576.txt	LTP229	ltpFR2	1	20	STOMACH	1384	n/a	n/a	0	0	0
5176.318	n/a	WORD	2588159	wordpools/wasnorm_wordpool_576.txt	LTP229	ltpFR2	1	20	ANKLE	24	n/a	n/a	0	0	0
5178.826	n/a	WORD	2589413	wordpools/wasnorm_wordpool_576.txt	LTP229	ltpFR2	1	20	SHOULDER	1294	n/a	n/a	0	0	0
5180.436	n/a	START	2590218	n/a	LTP229	ltpFR2	1	n/a	n/a	n/a	31	n/a	n/a	n/a	n/a
5181.478	n/a	DISTRACTOR	2590739	n/a	LTP229	ltpFR2	1	20	n/a	n/a	n/a	n/a	0	0	0
5181.488	n/a	PROB	2590744	n/a	LTP229	ltpFR2	1	n/a	n/a	n/a	31	15	2	6	7
5184.46	n/a	PROB	2592230	n/a	LTP229	ltpFR2	1	n/a	n/a	n/a	31	14	8	3	3
5186.542	n/a	PROB	2593271	n/a	LTP229	ltpFR2	1	n/a	n/a	n/a	31	15	2	4	9
5188.348	n/a	PROB	2594174	n/a	LTP229	ltpFR2	1	n/a	n/a	n/a	31	17	5	4	8
5191.12	n/a	PROB	2595560	n/a	LTP229	ltpFR2	1	n/a	n/a	n/a	31	15	9	2	4
5192.524	n/a	PROB	2596262	n/a	LTP229	ltpFR2	1	n/a	n/a	n/a	31	13	9	3	1
5194.27	n/a	PROB	2597135	n/a	LTP229	ltpFR2	1	n/a	n/a	n/a	31	17	9	5	3
5196.472	n/a	PROB	2598236	n/a	LTP229	ltpFR2	1	n/a	n/a	n/a	31	18	3	8	7
5199.92	n/a	PROB	2599960	n/a	LTP229	ltpFR2	1	n/a	n/a	n/a	31	16	5	8	3
5204.436	n/a	STOP	2602218	n/a	LTP229	ltpFR2	1	n/a	n/a	n/a	31	n/a	n/a	n/a	n/a
5206.346	n/a	REC_START	2603173	n/a	LTP229	ltpFR2	1	20	n/a	n/a	n/a	n/a	0	0	0
5207.726	n/a	REC_WORD	2603863	wordpools/wasnorm_wordpool_576.txt	LTP229	ltpFR2	1	20	QUAIL	1147	n/a	n/a	0	0	0
5209.49	n/a	REC_WORD	2604745	wordpools/wasnorm_wordpool_576.txt	LTP229	ltpFR2	1	20	SPHINX	1349	n/a	n/a	0	0	0
5212.692	n/a	REC_WORD	2606346	wordpools/wasnorm_wordpool_576.txt	LTP229	ltpFR2	1	20	MUMMY	932	n/a	n/a	0	0	0
5214.858	n/a	REC_WORD	2607429	wordpools/wasnorm_wordpool_576.txt	LTP229	ltpFR2	1	20	PADDING	999	n/a	n/a	0	0	0
5217.786	n/a	REC_WORD	2608893	wordpools/wasnorm_wordpool_576.txt	LTP229	ltpFR2	1	20	LIPSTICK	829	n/a	n/a	0	0	0
5248.83	n/a	REC_WORD	2624415	wordpools/wasnorm_wordpool_576.txt	LTP229	ltpFR2	1	20	BUG	187	n/a	n/a	0	0	0
5252.992	n/a	REC_WORD	2626496	wordpools/wasnorm_wordpool_576.txt	LTP229	ltpFR2	1	20	BUBBLE	183	n/a	n/a	0	0	0
5297.414	n/a	DISTRACTOR	2648707	n/a	LTP229	ltpFR2	1	21	n/a	n/a	n/a	n/a	0	0	0
5297.416	n/a	START	2648708	n/a	LTP229	ltpFR2	1	n/a	n/a	n/a	32	n/a	n/a	n/a	n/a
5297.466	n/a	PROB	2648733	n/a	LTP229	ltpFR2	1	n/a	n/a	n/a	32	19	3	8	8
5299.416	n/a	PROB	2649708	n/a	LTP229	ltpFR2	1	n/a	n/a	n/a	32	13	5	6	2
5302.93	n/a	PROB	2651465	n/a	LTP229	ltpFR2	1	n/a	n/a	n/a	32	11	3	6	2
5305.596	n/a	PROB	2652798	n/a	LTP229	ltpFR2	1	n/a	n/a	n/a	32	15	8	2	5
5306.794	n/a	PROB	2653397	n/a	LTP229	ltpFR2	1	n/a	n/a	n/a	32	19	4	6	9
5308.05	n/a	PROB	2654025	n/a	LTP229	ltpFR2	1	n/a	n/a	n/a	32	14	7	2	6
5313.092	n/a	PROB	2656546	n/a	LTP229	ltpFR2	1	n/a	n/a	n/a	32	16	9	1	6
5315.1	n/a	PROB	2657550	n/a	LTP229	ltpFR2	1	n/a	n/a	n/a	32	10	1	4	5
5316.738	n/a	PROB	2658369	n/a	LTP229	ltpFR2	1	n/a	n/a	n/a	32	23	7	9	7
5320.84	n/a	STOP	2660420	n/a	LTP229	ltpFR2	1	n/a	n/a	n/a	32	n/a	n/a	n/a	n/a
5322.46	n/a	WORD	2661230	wordpools/wasnorm_wordpool_576.txt	LTP229	ltpFR2	1	21	BASEMENT	94	n/a	n/a	0	0	0
5325.188	n/a	WORD	2662594	wordpools/wasnorm_wordpool_576.txt	LTP229	ltpFR2	1	21	SPARROW	1347	n/a	n/a	0	0	0
5327.942	n/a	WORD	2663971	wordpools/wasnorm_wordpool_576.txt	LTP229	ltpFR2	1	21	NOMAD	955	n/a	n/a	0	0	0
5330.452	n/a	WORD	2665226	wordpools/wasnorm_wordpool_576.txt	LTP229	ltpFR2	1	21	MONSTER	912	n/a	n/a	0	0	0
5333.218	n/a	WORD	2666609	wordpools/wasnorm_wordpool_576.txt	LTP229	ltpFR2	1	21	CREATURE	403	n/a	n/a	0	0	0
5335.712	n/a	WORD	2667856	wordpools/wasnorm_wordpool_576.txt	LTP229	ltpFR2	1	21	OUTLAW	989	n/a	n/a	0	0	0
5338.372	n/a	WORD	2669186	wordpools/wasnorm_wordpool_576.txt	LTP229	ltpFR2	1	21	OMELET	976	n/a	n/a	0	0	0
5340.964	n/a	WORD	2670482	wordpools/wasnorm_wordpool_576.txt	LTP229	ltpFR2	1	21	SAUSAGE	1238	n/a	n/a	0	0	0
5343.692	n/a	WORD	2671846	wordpools/wasnorm_wordpool_576.txt	LTP229	ltpFR2	1	21	TOASTER	1472	n/a	n/a	0	0	0
