onset	duration	trial_type	sample	stim_file	subject	experiment	session	trial	task	item_name	item_num	recog_conf	resp	answer	test_x	test_y	test_z	color_b	color_g	color_r	case	font
260.89	n/a	SESS_START	130445	n/a	LTP289	ltpFR	15	n/a	n/a	n/a	n/a	n/a	n/a	n/a	0	0	0	n/a	n/a	n/a	n/a	n/a
305.162	n/a	START	152581	n/a	LTP289	ltpFR	15	n/a	n/a	n/a	n/a	n/a	n/a	n/a	n/a	n/a	n/a	n/a	n/a	n/a	n/a	n/a
305.22	n/a	PROB	152610	n/a	LTP289	ltpFR	15	n/a	n/a	n/a	n/a	n/a	n/a	22	8	7	7	n/a	n/a	n/a	n/a	n/a
308.658	n/a	PROB	154329	n/a	LTP289	ltpFR	15	n/a	n/a	n/a	n/a	n/a	n/a	20	4	9	7	n/a	n/a	n/a	n/a	n/a
310.522	n/a	PROB	155261	n/a	LTP289	ltpFR	15	n/a	n/a	n/a	n/a	n/a	n/a	12	5	4	3	n/a	n/a	n/a	n/a	n/a
312.254	n/a	PROB	156127	n/a	LTP289	ltpFR	15	n/a	n/a	n/a	n/a	n/a	n/a	16	7	5	4	n/a	n/a	n/a	n/a	n/a
313.91	n/a	PROB	156955	n/a	LTP289	ltpFR	15	n/a	n/a	n/a	n/a	n/a	n/a	20	5	6	9	n/a	n/a	n/a	n/a	n/a
315.668	n/a	PROB	157834	n/a	LTP289	ltpFR	15	n/a	n/a	n/a	n/a	n/a	n/a	12	1	7	4	n/a	n/a	n/a	n/a	n/a
319.182	n/a	PROB	159591	n/a	LTP289	ltpFR	15	n/a	n/a	n/a	n/a	n/a	n/a	15	5	3	7	n/a	n/a	n/a	n/a	n/a
321.09	n/a	PROB	160545	n/a	LTP289	ltpFR	15	n/a	n/a	n/a	n/a	n/a	n/a	8	1	3	4	n/a	n/a	n/a	n/a	n/a
325.164	n/a	STOP	162582	n/a	LTP289	ltpFR	15	n/a	n/a	n/a	n/a	n/a	n/a	n/a	n/a	n/a	n/a	n/a	n/a	n/a	n/a	n/a
392.73	n/a	START	196365	n/a	LTP289	ltpFR	15	n/a	n/a	n/a	n/a	n/a	n/a	n/a	n/a	n/a	n/a	n/a	n/a	n/a	n/a	n/a
394.244	n/a	PROB	197122	n/a	LTP289	ltpFR	15	n/a	n/a	n/a	n/a	n/a	n/a	13	7	5	1	n/a	n/a	n/a	n/a	n/a
396.646	n/a	PROB	198323	n/a	LTP289	ltpFR	15	n/a	n/a	n/a	n/a	n/a	n/a	5	1	1	3	n/a	n/a	n/a	n/a	n/a
397.8	n/a	PROB	198900	n/a	LTP289	ltpFR	15	n/a	n/a	n/a	n/a	n/a	n/a	19	7	9	3	n/a	n/a	n/a	n/a	n/a
399.482	n/a	STOP	199741	n/a	LTP289	ltpFR	15	n/a	n/a	n/a	n/a	n/a	n/a	n/a	n/a	n/a	n/a	n/a	n/a	n/a	n/a	n/a
401.84	n/a	WORD	200920	wordpools/wasnorm_wordpool_less_exclusions.txt	LTP289	ltpFR	15	1	1	MILK	895	n/a	0	n/a	0	0	0	1	0.412841796875	0.57763671875	upper	../fonts/zerothre.ttf
404.85	n/a	START	202425	n/a	LTP289	ltpFR	15	n/a	n/a	n/a	n/a	n/a	n/a	n/a	n/a	n/a	n/a	n/a	n/a	n/a	n/a	n/a
405.73	n/a	PROB	202865	n/a	LTP289	ltpFR	15	n/a	n/a	n/a	n/a	n/a	n/a	24	6	9	9	n/a	n/a	n/a	n/a	n/a
407.436	n/a	PROB	203718	n/a	LTP289	ltpFR	15	n/a	n/a	n/a	n/a	n/a	n/a	15	5	5	5	n/a	n/a	n/a	n/a	n/a
408.522	n/a	PROB	204261	n/a	LTP289	ltpFR	15	n/a	n/a	n/a	n/a	n/a	n/a	15	4	9	2	n/a	n/a	n/a	n/a	n/a
410.732	n/a	PROB	205366	n/a	LTP289	ltpFR	15	n/a	n/a	n/a	n/a	n/a	n/a	13	1	8	4	n/a	n/a	n/a	n/a	n/a
412.66	n/a	STOP	206330	n/a	LTP289	ltpFR	15	n/a	n/a	n/a	n/a	n/a	n/a	n/a	n/a	n/a	n/a	n/a	n/a	n/a	n/a	n/a
413.91	n/a	WORD	206955	wordpools/wasnorm_wordpool_less_exclusions.txt	LTP289	ltpFR	15	1	1	PEACH	1031	n/a	0	n/a	0	0	0	1	0.412841796875	0.57763671875	upper	../fonts/zerothre.ttf
416.922	n/a	START	208461	n/a	LTP289	ltpFR	15	n/a	n/a	n/a	n/a	n/a	n/a	n/a	n/a	n/a	n/a	n/a	n/a	n/a	n/a	n/a
417.81	n/a	PROB	208905	n/a	LTP289	ltpFR	15	n/a	n/a	n/a	n/a	n/a	n/a	8	3	1	4	n/a	n/a	n/a	n/a	n/a
419.33	n/a	PROB	209665	n/a	LTP289	ltpFR	15	n/a	n/a	n/a	n/a	n/a	n/a	13	3	8	2	n/a	n/a	n/a	n/a	n/a
420.536	n/a	PROB	210268	n/a	LTP289	ltpFR	15	n/a	n/a	n/a	n/a	n/a	n/a	17	7	3	7	n/a	n/a	n/a	n/a	n/a
421.832	n/a	PROB	210916	n/a	LTP289	ltpFR	15	n/a	n/a	n/a	n/a	n/a	n/a	13	7	3	3	n/a	n/a	n/a	n/a	n/a
423.002	n/a	PROB	211501	n/a	LTP289	ltpFR	15	n/a	n/a	n/a	n/a	n/a	n/a	19	6	4	9	n/a	n/a	n/a	n/a	n/a
424.236	n/a	STOP	212118	n/a	LTP289	ltpFR	15	n/a	n/a	n/a	n/a	n/a	n/a	n/a	n/a	n/a	n/a	n/a	n/a	n/a	n/a	n/a
426.056	n/a	WORD	213028	wordpools/wasnorm_wordpool_less_exclusions.txt	LTP289	ltpFR	15	1	1	WICK	1607	n/a	0	n/a	0	0	0	1	0.412841796875	0.57763671875	upper	../fonts/zerothre.ttf
429.068	n/a	START	214534	n/a	LTP289	ltpFR	15	n/a	n/a	n/a	n/a	n/a	n/a	n/a	n/a	n/a	n/a	n/a	n/a	n/a	n/a	n/a
430.188	n/a	PROB	215094	n/a	LTP289	ltpFR	15	n/a	n/a	n/a	n/a	n/a	n/a	13	6	3	4	n/a	n/a	n/a	n/a	n/a
433.05	n/a	PROB	216525	n/a	LTP289	ltpFR	15	n/a	n/a	n/a	n/a	n/a	n/a	18	5	9	4	n/a	n/a	n/a	n/a	n/a
436.18	n/a	STOP	218090	n/a	LTP289	ltpFR	15	n/a	n/a	n/a	n/a	n/a	n/a	n/a	n/a	n/a	n/a	n/a	n/a	n/a	n/a	n/a
438.036	n/a	WORD	219018	wordpools/wasnorm_wordpool_less_exclusions.txt	LTP289	ltpFR	15	1	1	LOBSTER	837	n/a	1	n/a	0	0	0	1	0.412841796875	0.57763671875	upper	../fonts/zerothre.ttf
441.048	n/a	START	220524	n/a	LTP289	ltpFR	15	n/a	n/a	n/a	n/a	n/a	n/a	n/a	n/a	n/a	n/a	n/a	n/a	n/a	n/a	n/a
442.018	n/a	PROB	221009	n/a	LTP289	ltpFR	15	n/a	n/a	n/a	n/a	n/a	n/a	16	7	2	7	n/a	n/a	n/a	n/a	n/a
443.75	n/a	PROB	221875	n/a	LTP289	ltpFR	15	n/a	n/a	n/a	n/a	n/a	n/a	10	2	3	5	n/a	n/a	n/a	n/a	n/a
445.69	n/a	PROB	222845	n/a	LTP289	ltpFR	15	n/a	n/a	n/a	n/a	n/a	n/a	17	9	4	4	n/a	n/a	n/a	n/a	n/a
447.54	n/a	STOP	223770	n/a	LTP289	ltpFR	15	n/a	n/a	n/a	n/a	n/a	n/a	n/a	n/a	n/a	n/a	n/a	n/a	n/a	n/a	n/a
450.124	n/a	WORD	225062	wordpools/wasnorm_wordpool_less_exclusions.txt	LTP289	ltpFR	15	1	1	BIOLOGIST	128	n/a	1	n/a	0	0	0	1	0.412841796875	0.57763671875	upper	../fonts/zerothre.ttf
453.136	n/a	START	226568	n/a	LTP289	ltpFR	15	n/a	n/a	n/a	n/a	n/a	n/a	n/a	n/a	n/a	n/a	n/a	n/a	n/a	n/a	n/a
454.13	n/a	PROB	227065	n/a	LTP289	ltpFR	15	n/a	n/a	n/a	n/a	n/a	n/a	20	5	7	8	n/a	n/a	n/a	n/a	n/a
456.606	n/a	PROB	228303	n/a	LTP289	ltpFR	15	n/a	n/a	n/a	n/a	n/a	n/a	12	4	6	2	n/a	n/a	n/a	n/a	n/a
458.136	n/a	PROB	229068	n/a	LTP289	ltpFR	15	n/a	n/a	n/a	n/a	n/a	n/a	15	5	7	3	n/a	n/a	n/a	n/a	n/a
461.136	n/a	STOP	230568	n/a	LTP289	ltpFR	15	n/a	n/a	n/a	n/a	n/a	n/a	n/a	n/a	n/a	n/a	n/a	n/a	n/a	n/a	n/a
462.11	n/a	WORD	231055	wordpools/wasnorm_wordpool_less_exclusions.txt	LTP289	ltpFR	15	1	1	CHURCH	307	n/a	0	n/a	0	0	0	1	0.412841796875	0.57763671875	upper	../fonts/zerothre.ttf
465.122	n/a	START	232561	n/a	LTP289	ltpFR	15	n/a	n/a	n/a	n/a	n/a	n/a	n/a	n/a	n/a	n/a	n/a	n/a	n/a	n/a	n/a
466.01	n/a	PROB	233005	n/a	LTP289	ltpFR	15	n/a	n/a	n/a	n/a	n/a	n/a	14	5	5	4	n/a	n/a	n/a	n/a	n/a
467.784	n/a	PROB	233892	n/a	LTP289	ltpFR	15	n/a	n/a	n/a	n/a	n/a	n/a	11	7	1	3	n/a	n/a	n/a	n/a	n/a
468.936	n/a	PROB	234468	n/a	LTP289	ltpFR	15	n/a	n/a	n/a	n/a	n/a	n/a	17	8	4	5	n/a	n/a	n/a	n/a	n/a
473.124	n/a	STOP	236562	n/a	LTP289	ltpFR	15	n/a	n/a	n/a	n/a	n/a	n/a	n/a	n/a	n/a	n/a	n/a	n/a	n/a	n/a	n/a
474.258	n/a	WORD	237129	wordpools/wasnorm_wordpool_less_exclusions.txt	LTP289	ltpFR	15	1	1	CATHEDRAL	260	n/a	0	n/a	0	0	0	1	0.412841796875	0.57763671875	upper	../fonts/zerothre.ttf
477.27	n/a	START	238635	n/a	LTP289	ltpFR	15	n/a	n/a	n/a	n/a	n/a	n/a	n/a	n/a	n/a	n/a	n/a	n/a	n/a	n/a	n/a
478.474	n/a	PROB	239237	n/a	LTP289	ltpFR	15	n/a	n/a	n/a	n/a	n/a	n/a	8	1	4	3	n/a	n/a	n/a	n/a	n/a
480.456	n/a	PROB	240228	n/a	LTP289	ltpFR	15	n/a	n/a	n/a	n/a	n/a	n/a	16	7	5	4	n/a	n/a	n/a	n/a	n/a
485.268	n/a	STOP	242634	n/a	LTP289	ltpFR	15	n/a	n/a	n/a	n/a	n/a	n/a	n/a	n/a	n/a	n/a	n/a	n/a	n/a	n/a	n/a
486.444	n/a	WORD	243222	wordpools/wasnorm_wordpool_less_exclusions.txt	LTP289	ltpFR	15	1	1	DASHBOARD	441	n/a	0	n/a	0	0	0	1	0.412841796875	0.57763671875	upper	../fonts/zerothre.ttf
489.458	n/a	START	244729	n/a	LTP289	ltpFR	15	n/a	n/a	n/a	n/a	n/a	n/a	n/a	n/a	n/a	n/a	n/a	n/a	n/a	n/a	n/a
490.454	n/a	PROB	245227	n/a	LTP289	ltpFR	15	n/a	n/a	n/a	n/a	n/a	n/a	15	5	1	9	n/a	n/a	n/a	n/a	n/a
493.138	n/a	PROB	246569	n/a	LTP289	ltpFR	15	n/a	n/a	n/a	n/a	n/a	n/a	10	2	1	7	n/a	n/a	n/a	n/a	n/a
494.626	n/a	PROB	247313	n/a	LTP289	ltpFR	15	n/a	n/a	n/a	n/a	n/a	n/a	13	5	3	5	n/a	n/a	n/a	n/a	n/a
497.456	n/a	STOP	248728	n/a	LTP289	ltpFR	15	n/a	n/a	n/a	n/a	n/a	n/a	n/a	n/a	n/a	n/a	n/a	n/a	n/a	n/a	n/a
498.668	n/a	WORD	249334	wordpools/wasnorm_wordpool_less_exclusions.txt	LTP289	ltpFR	15	1	1	TRIBE	1505	n/a	1	n/a	0	0	0	1	0.412841796875	0.57763671875	upper	../fonts/zerothre.ttf
501.68	n/a	START	250840	n/a	LTP289	ltpFR	15	n/a	n/a	n/a	n/a	n/a	n/a	n/a	n/a	n/a	n/a	n/a	n/a	n/a	n/a	n/a
502.65	n/a	PROB	251325	n/a	LTP289	ltpFR	15	n/a	n/a	n/a	n/a	n/a	n/a	8	3	1	4	n/a	n/a	n/a	n/a	n/a
504.128	n/a	PROB	252064	n/a	LTP289	ltpFR	15	n/a	n/a	n/a	n/a	n/a	n/a	7	3	2	2	n/a	n/a	n/a	n/a	n/a
505.702	n/a	PROB	252851	n/a	LTP289	ltpFR	15	n/a	n/a	n/a	n/a	n/a	n/a	19	7	9	3	n/a	n/a	n/a	n/a	n/a
507.326	n/a	PROB	253663	n/a	LTP289	ltpFR	15	n/a	n/a	n/a	n/a	n/a	n/a	9	2	6	1	n/a	n/a	n/a	n/a	n/a
509.088	n/a	STOP	254544	n/a	LTP289	ltpFR	15	n/a	n/a	n/a	n/a	n/a	n/a	n/a	n/a	n/a	n/a	n/a	n/a	n/a	n/a	n/a
510.816	n/a	WORD	255408	wordpools/wasnorm_wordpool_less_exclusions.txt	LTP289	ltpFR	15	1	1	PIKE	1067	n/a	0	n/a	0	0	0	1	0.412841796875	0.57763671875	upper	../fonts/zerothre.ttf
513.828	n/a	START	256914	n/a	LTP289	ltpFR	15	n/a	n/a	n/a	n/a	n/a	n/a	n/a	n/a	n/a	n/a	n/a	n/a	n/a	n/a	n/a
514.988	n/a	PROB	257494	n/a	LTP289	ltpFR	15	n/a	n/a	n/a	n/a	n/a	n/a	22	7	9	6	n/a	n/a	n/a	n/a	n/a
518.024	n/a	PROB	259012	n/a	LTP289	ltpFR	15	n/a	n/a	n/a	n/a	n/a	n/a	15	9	2	4	n/a	n/a	n/a	n/a	n/a
519.824	n/a	PROB	259912	n/a	LTP289	ltpFR	15	n/a	n/a	n/a	n/a	n/a	n/a	23	5	9	9	n/a	n/a	n/a	n/a	n/a
521.44	n/a	STOP	260720	n/a	LTP289	ltpFR	15	n/a	n/a	n/a	n/a	n/a	n/a	n/a	n/a	n/a	n/a	n/a	n/a	n/a	n/a	n/a
522.794	n/a	WORD	261397	wordpools/wasnorm_wordpool_less_exclusions.txt	LTP289	ltpFR	15	1	1	BEAKER	104	n/a	0	n/a	0	0	0	1	0.412841796875	0.57763671875	upper	../fonts/zerothre.ttf
525.806	n/a	START	262903	n/a	LTP289	ltpFR	15	n/a	n/a	n/a	n/a	n/a	n/a	n/a	n/a	n/a	n/a	n/a	n/a	n/a	n/a	n/a
526.966	n/a	PROB	263483	n/a	LTP289	ltpFR	15	n/a	n/a	n/a	n/a	n/a	n/a	19	8	4	7	n/a	n/a	n/a	n/a	n/a
528.966	n/a	PROB	264483	n/a	LTP289	ltpFR	15	n/a	n/a	n/a	n/a	n/a	n/a	19	2	9	8	n/a	n/a	n/a	n/a	n/a
530.808	n/a	PROB	265404	n/a	LTP289	ltpFR	15	n/a	n/a	n/a	n/a	n/a	n/a	20	9	7	4	n/a	n/a	n/a	n/a	n/a
532.378	n/a	STOP	266189	n/a	LTP289	ltpFR	15	n/a	n/a	n/a	n/a	n/a	n/a	n/a	n/a	n/a	n/a	n/a	n/a	n/a	n/a	n/a
534.814	n/a	WORD	267407	wordpools/wasnorm_wordpool_less_exclusions.txt	LTP289	ltpFR	15	1	1	VAN	1548	n/a	0	n/a	0	0	0	1	0.412841796875	0.57763671875	upper	../fonts/zerothre.ttf
537.826	n/a	START	268913	n/a	LTP289	ltpFR	15	n/a	n/a	n/a	n/a	n/a	n/a	n/a	n/a	n/a	n/a	n/a	n/a	n/a	n/a	n/a
538.962	n/a	PROB	269481	n/a	LTP289	ltpFR	15	n/a	n/a	n/a	n/a	n/a	n/a	14	3	7	4	n/a	n/a	n/a	n/a	n/a
540.334	n/a	PROB	270167	n/a	LTP289	ltpFR	15	n/a	n/a	n/a	n/a	n/a	n/a	19	2	8	9	n/a	n/a	n/a	n/a	n/a
541.606	n/a	PROB	270803	n/a	LTP289	ltpFR	15	n/a	n/a	n/a	n/a	n/a	n/a	19	6	7	6	n/a	n/a	n/a	n/a	n/a
543.656	n/a	PROB	271828	n/a	LTP289	ltpFR	15	n/a	n/a	n/a	n/a	n/a	n/a	19	7	7	5	n/a	n/a	n/a	n/a	n/a
545.37	n/a	STOP	272685	n/a	LTP289	ltpFR	15	n/a	n/a	n/a	n/a	n/a	n/a	n/a	n/a	n/a	n/a	n/a	n/a	n/a	n/a	n/a
546.77	n/a	WORD	273385	wordpools/wasnorm_wordpool_less_exclusions.txt	LTP289	ltpFR	15	1	1	SALESMAN	1225	n/a	1	n/a	0	0	0	1	0.412841796875	0.57763671875	upper	../fonts/zerothre.ttf
549.782	n/a	START	274891	n/a	LTP289	ltpFR	15	n/a	n/a	n/a	n/a	n/a	n/a	n/a	n/a	n/a	n/a	n/a	n/a	n/a	n/a	n/a
550.808	n/a	PROB	275404	n/a	LTP289	ltpFR	15	n/a	n/a	n/a	n/a	n/a	n/a	17	9	1	7	n/a	n/a	n/a	n/a	n/a
552.214	n/a	PROB	276107	n/a	LTP289	ltpFR	15	n/a	n/a	n/a	n/a	n/a	n/a	17	9	1	7	n/a	n/a	n/a	n/a	n/a
553.494	n/a	PROB	276747	n/a	LTP289	ltpFR	15	n/a	n/a	n/a	n/a	n/a	n/a	23	7	7	9	n/a	n/a	n/a	n/a	n/a
555.374	n/a	PROB	277687	n/a	LTP289	ltpFR	15	n/a	n/a	n/a	n/a	n/a	n/a	15	5	9	1	n/a	n/a	n/a	n/a	n/a
556.466	n/a	STOP	278233	n/a	LTP289	ltpFR	15	n/a	n/a	n/a	n/a	n/a	n/a	n/a	n/a	n/a	n/a	n/a	n/a	n/a	n/a	n/a
558.972	n/a	WORD	279486	wordpools/wasnorm_wordpool_less_exclusions.txt	LTP289	ltpFR	15	1	1	TROUT	1511	n/a	1	n/a	0	0	0	1	0.412841796875	0.57763671875	upper	../fonts/zerothre.ttf
561.984	n/a	START	280992	n/a	LTP289	ltpFR	15	n/a	n/a	n/a	n/a	n/a	n/a	n/a	n/a	n/a	n/a	n/a	n/a	n/a	n/a	n/a
562.936	n/a	PROB	281468	n/a	LTP289	ltpFR	15	n/a	n/a	n/a	n/a	n/a	n/a	20	7	5	8	n/a	n/a	n/a	n/a	n/a
564.846	n/a	PROB	282423	n/a	LTP289	ltpFR	15	n/a	n/a	n/a	n/a	n/a	n/a	26	9	8	9	n/a	n/a	n/a	n/a	n/a
567.062	n/a	PROB	283531	n/a	LTP289	ltpFR	15	n/a	n/a	n/a	n/a	n/a	n/a	11	2	1	8	n/a	n/a	n/a	n/a	n/a
569.984	n/a	STOP	284992	n/a	LTP289	ltpFR	15	n/a	n/a	n/a	n/a	n/a	n/a	n/a	n/a	n/a	n/a	n/a	n/a	n/a	n/a	n/a
571.186	n/a	WORD	285593	wordpools/wasnorm_wordpool_less_exclusions.txt	LTP289	ltpFR	15	1	1	SEAGULL	1261	n/a	1	n/a	0	0	0	1	0.412841796875	0.57763671875	upper	../fonts/zerothre.ttf
574.198	n/a	START	287099	n/a	LTP289	ltpFR	15	n/a	n/a	n/a	n/a	n/a	n/a	n/a	n/a	n/a	n/a	n/a	n/a	n/a	n/a	n/a
575.026	n/a	PROB	287513	n/a	LTP289	ltpFR	15	n/a	n/a	n/a	n/a	n/a	n/a	14	1	5	8	n/a	n/a	n/a	n/a	n/a
577.124	n/a	PROB	288562	n/a	LTP289	ltpFR	15	n/a	n/a	n/a	n/a	n/a	n/a	23	8	6	9	n/a	n/a	n/a	n/a	n/a
580.146	n/a	PROB	290073	n/a	LTP289	ltpFR	15	n/a	n/a	n/a	n/a	n/a	n/a	12	6	5	1	n/a	n/a	n/a	n/a	n/a
581.38	n/a	STOP	290690	n/a	LTP289	ltpFR	15	n/a	n/a	n/a	n/a	n/a	n/a	n/a	n/a	n/a	n/a	n/a	n/a	n/a	n/a	n/a
583.426	n/a	WORD	291713	wordpools/wasnorm_wordpool_less_exclusions.txt	LTP289	ltpFR	15	1	1	BUTTERFLY	206	n/a	1	n/a	0	0	0	1	0.412841796875	0.57763671875	upper	../fonts/zerothre.ttf
586.436	n/a	START	293218	n/a	LTP289	ltpFR	15	n/a	n/a	n/a	n/a	n/a	n/a	n/a	n/a	n/a	n/a	n/a	n/a	n/a	n/a	n/a
587.54	n/a	PROB	293770	n/a	LTP289	ltpFR	15	n/a	n/a	n/a	n/a	n/a	n/a	19	8	7	4	n/a	n/a	n/a	n/a	n/a
589.974	n/a	PROB	294987	n/a	LTP289	ltpFR	15	n/a	n/a	n/a	n/a	n/a	n/a	15	3	5	7	n/a	n/a	n/a	n/a	n/a
591.514	n/a	PROB	295757	n/a	LTP289	ltpFR	15	n/a	n/a	n/a	n/a	n/a	n/a	10	3	3	4	n/a	n/a	n/a	n/a	n/a
593.42	n/a	STOP	296710	n/a	LTP289	ltpFR	15	n/a	n/a	n/a	n/a	n/a	n/a	n/a	n/a	n/a	n/a	n/a	n/a	n/a	n/a	n/a
596.358	n/a	REC_START	298179	n/a	LTP289	ltpFR	15	1	n/a	n/a	n/a	n/a	n/a	n/a	0	0	0	n/a	n/a	n/a	n/a	n/a
597.384	n/a	REC_WORD	298692	wordpools/wasnorm_wordpool_less_exclusions.txt	LTP289	ltpFR	15	1	1	PIKE	1067	n/a	0	n/a	0	0	0	n/a	n/a	n/a	n/a	n/a
598.146	n/a	REC_WORD	299073	wordpools/wasnorm_wordpool_less_exclusions.txt	LTP289	ltpFR	15	1	1	TROUT	1511	n/a	1	n/a	0	0	0	n/a	n/a	n/a	n/a	n/a
598.91	n/a	REC_WORD	299455	wordpools/wasnorm_wordpool_less_exclusions.txt	LTP289	ltpFR	15	1	1	SEAGULL	1261	n/a	1	n/a	0	0	0	n/a	n/a	n/a	n/a	n/a
600.006	n/a	REC_WORD	300003	wordpools/wasnorm_wordpool_less_exclusions.txt	LTP289	ltpFR	15	1	1	LOBSTER	837	n/a	1	n/a	0	0	0	n/a	n/a	n/a	n/a	n/a
601.306	n/a	REC_WORD	300653	wordpools/wasnorm_wordpool_less_exclusions.txt	LTP289	ltpFR	15	1	1	TRIBE	1505	n/a	1	n/a	0	0	0	n/a	n/a	n/a	n/a	n/a
602.448	n/a	REC_WORD	301224	wordpools/wasnorm_wordpool_less_exclusions.txt	LTP289	ltpFR	15	1	1	WICK	1607	n/a	0	n/a	0	0	0	n/a	n/a	n/a	n/a	n/a
603.46	n/a	REC_WORD	301730	wordpools/wasnorm_wordpool_less_exclusions.txt	LTP289	ltpFR	15	1	1	PEACH	1031	n/a	0	n/a	0	0	0	n/a	n/a	n/a	n/a	n/a
604.53	n/a	REC_WORD	302265	wordpools/wasnorm_wordpool_less_exclusions.txt	LTP289	ltpFR	15	1	1	MILK	895	n/a	0	n/a	0	0	0	n/a	n/a	n/a	n/a	n/a
610.694	n/a	REC_WORD	305347	wordpools/wasnorm_wordpool_less_exclusions.txt	LTP289	ltpFR	15	1	1	SALESMAN	1225	n/a	1	n/a	0	0	0	n/a	n/a	n/a	n/a	n/a
612.09	n/a	REC_WORD	306045	wordpools/wasnorm_wordpool_less_exclusions.txt	LTP289	ltpFR	15	1	1	BIOLOGIST	128	n/a	1	n/a	0	0	0	n/a	n/a	n/a	n/a	n/a
613.09	n/a	REC_WORD_VV	306545	wordpools/wasnorm_wordpool_less_exclusions.txt	LTP289	ltpFR	15	1	n/a	<>	-1	n/a	n/a	n/a	0	0	0	n/a	n/a	n/a	n/a	n/a
613.818	n/a	REC_WORD	306909	wordpools/wasnorm_wordpool_less_exclusions.txt	LTP289	ltpFR	15	1	1	BEAKER	104	n/a	0	n/a	0	0	0	n/a	n/a	n/a	n/a	n/a
711.488	n/a	WORD	355744	wordpools/wasnorm_wordpool_less_exclusions.txt	LTP289	ltpFR	15	2	1	PLATE	1086	n/a	0	n/a	0	0	0	1	0.412841796875	0.57763671875	upper	../fonts/zerothre.ttf
715.428	n/a	WORD	357714	wordpools/wasnorm_wordpool_less_exclusions.txt	LTP289	ltpFR	15	2	1	FEATHER	557	n/a	0	n/a	0	0	0	1	0.412841796875	0.57763671875	upper	../fonts/zerothre.ttf
719.62	n/a	WORD	359810	wordpools/wasnorm_wordpool_less_exclusions.txt	LTP289	ltpFR	15	2	1	QUAIL	1147	n/a	1	n/a	0	0	0	1	0.412841796875	0.57763671875	upper	../fonts/zerothre.ttf
723.51	n/a	WORD	361755	wordpools/wasnorm_wordpool_less_exclusions.txt	LTP289	ltpFR	15	2	1	THORN	1459	n/a	0	n/a	0	0	0	1	0.412841796875	0.57763671875	upper	../fonts/zerothre.ttf
727.5	n/a	WORD	363750	wordpools/wasnorm_wordpool_less_exclusions.txt	LTP289	ltpFR	15	2	1	MERMAID	887	n/a	1	n/a	0	0	0	1	0.412841796875	0.57763671875	upper	../fonts/zerothre.ttf
731.64	n/a	WORD	365820	wordpools/wasnorm_wordpool_less_exclusions.txt	LTP289	ltpFR	15	2	1	FOREHEAD	592	n/a	0	n/a	0	0	0	1	0.412841796875	0.57763671875	upper	../fonts/zerothre.ttf
735.49	n/a	WORD	367745	wordpools/wasnorm_wordpool_less_exclusions.txt	LTP289	ltpFR	15	2	1	MONARCH	906	n/a	1	n/a	0	0	0	1	0.412841796875	0.57763671875	upper	../fonts/zerothre.ttf
739.588	n/a	WORD	369794	wordpools/wasnorm_wordpool_less_exclusions.txt	LTP289	ltpFR	15	2	1	MOUNTAIN	924	n/a	0	n/a	0	0	0	1	0.412841796875	0.57763671875	upper	../fonts/zerothre.ttf
743.56	n/a	WORD	371780	wordpools/wasnorm_wordpool_less_exclusions.txt	LTP289	ltpFR	15	2	1	FOUNTAIN	597	n/a	0	n/a	0	0	0	1	0.412841796875	0.57763671875	upper	../fonts/zerothre.ttf
747.652	n/a	WORD	373826	wordpools/wasnorm_wordpool_less_exclusions.txt	LTP289	ltpFR	15	2	1	SURF	1412	n/a	0	n/a	0	0	0	1	0.412841796875	0.57763671875	upper	../fonts/zerothre.ttf
751.5	n/a	WORD	375750	wordpools/wasnorm_wordpool_less_exclusions.txt	LTP289	ltpFR	15	2	1	PUMP	1141	n/a	0	n/a	0	0	0	1	0.412841796875	0.57763671875	upper	../fonts/zerothre.ttf
755.55	n/a	WORD	377775	wordpools/wasnorm_wordpool_less_exclusions.txt	LTP289	ltpFR	15	2	1	BOSS	152	n/a	1	n/a	0	0	0	1	0.412841796875	0.57763671875	upper	../fonts/zerothre.ttf
759.656	n/a	WORD	379828	wordpools/wasnorm_wordpool_less_exclusions.txt	LTP289	ltpFR	15	2	1	WOMAN	1620	n/a	1	n/a	0	0	0	1	0.412841796875	0.57763671875	upper	../fonts/zerothre.ttf
763.764	n/a	WORD	381882	wordpools/wasnorm_wordpool_less_exclusions.txt	LTP289	ltpFR	15	2	1	MICROWAVE	892	n/a	0	n/a	0	0	0	1	0.412841796875	0.57763671875	upper	../fonts/zerothre.ttf
767.846	n/a	WORD	383923	wordpools/wasnorm_wordpool_less_exclusions.txt	LTP289	ltpFR	15	2	1	CAFETERIA	217	n/a	0	n/a	0	0	0	1	0.412841796875	0.57763671875	upper	../fonts/zerothre.ttf
772.002	n/a	WORD	386001	wordpools/wasnorm_wordpool_less_exclusions.txt	LTP289	ltpFR	15	2	1	FLOWER	584	n/a	0	n/a	0	0	0	1	0.412841796875	0.57763671875	upper	../fonts/zerothre.ttf
775.016	n/a	START	387508	n/a	LTP289	ltpFR	15	n/a	n/a	n/a	n/a	n/a	n/a	n/a	n/a	n/a	n/a	n/a	n/a	n/a	n/a	n/a
776.186	n/a	PROB	388093	n/a	LTP289	ltpFR	15	n/a	n/a	n/a	n/a	n/a	n/a	22	8	8	6	n/a	n/a	n/a	n/a	n/a
780.0	n/a	PROB	390000	n/a	LTP289	ltpFR	15	n/a	n/a	n/a	n/a	n/a	n/a	15	6	6	3	n/a	n/a	n/a	n/a	n/a
781.51	n/a	STOP	390755	n/a	LTP289	ltpFR	15	n/a	n/a	n/a	n/a	n/a	n/a	n/a	n/a	n/a	n/a	n/a	n/a	n/a	n/a	n/a
784.912	n/a	REC_START	392456	n/a	LTP289	ltpFR	15	2	n/a	n/a	n/a	n/a	n/a	n/a	0	0	0	n/a	n/a	n/a	n/a	n/a
785.81	n/a	REC_WORD	392905	wordpools/wasnorm_wordpool_less_exclusions.txt	LTP289	ltpFR	15	2	1	MERMAID	887	n/a	1	n/a	0	0	0	n/a	n/a	n/a	n/a	n/a
786.75	n/a	REC_WORD	393375	wordpools/wasnorm_wordpool_less_exclusions.txt	LTP289	ltpFR	15	2	1	MONARCH	906	n/a	1	n/a	0	0	0	n/a	n/a	n/a	n/a	n/a
787.884	n/a	REC_WORD	393942	wordpools/wasnorm_wordpool_less_exclusions.txt	LTP289	ltpFR	15	2	1	PLATE	1086	n/a	0	n/a	0	0	0	n/a	n/a	n/a	n/a	n/a
788.834	n/a	REC_WORD	394417	wordpools/wasnorm_wordpool_less_exclusions.txt	LTP289	ltpFR	15	2	1	FEATHER	557	n/a	0	n/a	0	0	0	n/a	n/a	n/a	n/a	n/a
790.088	n/a	REC_WORD	395044	wordpools/wasnorm_wordpool_less_exclusions.txt	LTP289	ltpFR	15	2	1	QUAIL	1147	n/a	1	n/a	0	0	0	n/a	n/a	n/a	n/a	n/a
791.308	n/a	REC_WORD	395654	wordpools/wasnorm_wordpool_less_exclusions.txt	LTP289	ltpFR	15	2	1	FOREHEAD	592	n/a	0	n/a	0	0	0	n/a	n/a	n/a	n/a	n/a
797.23	n/a	REC_WORD	398615	wordpools/wasnorm_wordpool_less_exclusions.txt	LTP289	ltpFR	15	2	1	MOUNTAIN	924	n/a	0	n/a	0	0	0	n/a	n/a	n/a	n/a	n/a
798.224	n/a	REC_WORD	399112	wordpools/wasnorm_wordpool_less_exclusions.txt	LTP289	ltpFR	15	2	1	FOUNTAIN	597	n/a	0	n/a	0	0	0	n/a	n/a	n/a	n/a	n/a
818.688	n/a	REC_WORD	409344	wordpools/wasnorm_wordpool_less_exclusions.txt	LTP289	ltpFR	15	2	1	WOMAN	1620	n/a	1	n/a	0	0	0	n/a	n/a	n/a	n/a	n/a
912.172	n/a	START	456086	n/a	LTP289	ltpFR	15	n/a	n/a	n/a	n/a	n/a	n/a	n/a	n/a	n/a	n/a	n/a	n/a	n/a	n/a	n/a
913.688	n/a	PROB	456844	n/a	LTP289	ltpFR	15	n/a	n/a	n/a	n/a	n/a	n/a	20	9	2	9	n/a	n/a	n/a	n/a	n/a
915.184	n/a	PROB	457592	n/a	LTP289	ltpFR	15	n/a	n/a	n/a	n/a	n/a	n/a	9	3	3	3	n/a	n/a	n/a	n/a	n/a
916.606	n/a	PROB	458303	n/a	LTP289	ltpFR	15	n/a	n/a	n/a	n/a	n/a	n/a	13	7	3	3	n/a	n/a	n/a	n/a	n/a
918.808	n/a	PROB	459404	n/a	LTP289	ltpFR	15	n/a	n/a	n/a	n/a	n/a	n/a	16	5	3	8	n/a	n/a	n/a	n/a	n/a
920.562	n/a	PROB	460281	n/a	LTP289	ltpFR	15	n/a	n/a	n/a	n/a	n/a	n/a	8	3	3	2	n/a	n/a	n/a	n/a	n/a
922.31	n/a	PROB	461155	n/a	LTP289	ltpFR	15	n/a	n/a	n/a	n/a	n/a	n/a	19	8	9	2	n/a	n/a	n/a	n/a	n/a
924.0	n/a	PROB	462000	n/a	LTP289	ltpFR	15	n/a	n/a	n/a	n/a	n/a	n/a	15	2	8	5	n/a	n/a	n/a	n/a	n/a
925.668	n/a	PROB	462834	n/a	LTP289	ltpFR	15	n/a	n/a	n/a	n/a	n/a	n/a	19	5	6	8	n/a	n/a	n/a	n/a	n/a
927.254	n/a	STOP	463627	n/a	LTP289	ltpFR	15	n/a	n/a	n/a	n/a	n/a	n/a	n/a	n/a	n/a	n/a	n/a	n/a	n/a	n/a	n/a
929.33	n/a	WORD	464665	wordpools/wasnorm_wordpool_less_exclusions.txt	LTP289	ltpFR	15	3	1	MOAT	903	n/a	0	n/a	0	0	0	1	0.412841796875	0.57763671875	upper	../fonts/zerothre.ttf
932.342	n/a	START	466171	n/a	LTP289	ltpFR	15	n/a	n/a	n/a	n/a	n/a	n/a	n/a	n/a	n/a	n/a	n/a	n/a	n/a	n/a	n/a
933.22	n/a	PROB	466610	n/a	LTP289	ltpFR	15	n/a	n/a	n/a	n/a	n/a	n/a	17	8	6	3	n/a	n/a	n/a	n/a	n/a
936.114	n/a	PROB	468057	n/a	LTP289	ltpFR	15	n/a	n/a	n/a	n/a	n/a	n/a	16	4	5	7	n/a	n/a	n/a	n/a	n/a
938.59	n/a	PROB	469295	n/a	LTP289	ltpFR	15	n/a	n/a	n/a	n/a	n/a	n/a	14	6	1	7	n/a	n/a	n/a	n/a	n/a
940.112	n/a	PROB	470056	n/a	LTP289	ltpFR	15	n/a	n/a	n/a	n/a	n/a	n/a	18	6	7	5	n/a	n/a	n/a	n/a	n/a
942.236	n/a	PROB	471118	n/a	LTP289	ltpFR	15	n/a	n/a	n/a	n/a	n/a	n/a	19	4	9	6	n/a	n/a	n/a	n/a	n/a
944.824	n/a	PROB	472412	n/a	LTP289	ltpFR	15	n/a	n/a	n/a	n/a	n/a	n/a	15	9	2	4	n/a	n/a	n/a	n/a	n/a
948.342	n/a	STOP	474171	n/a	LTP289	ltpFR	15	n/a	n/a	n/a	n/a	n/a	n/a	n/a	n/a	n/a	n/a	n/a	n/a	n/a	n/a	n/a
949.558	n/a	WORD	474779	wordpools/wasnorm_wordpool_less_exclusions.txt	LTP289	ltpFR	15	3	1	FOX	598	n/a	1	n/a	0	0	0	1	0.412841796875	0.57763671875	upper	../fonts/zerothre.ttf
952.57	n/a	START	476285	n/a	LTP289	ltpFR	15	n/a	n/a	n/a	n/a	n/a	n/a	n/a	n/a	n/a	n/a	n/a	n/a	n/a	n/a	n/a
953.698	n/a	PROB	476849	n/a	LTP289	ltpFR	15	n/a	n/a	n/a	n/a	n/a	n/a	18	8	4	6	n/a	n/a	n/a	n/a	n/a
955.102	n/a	PROB	477551	n/a	LTP289	ltpFR	15	n/a	n/a	n/a	n/a	n/a	n/a	15	9	1	5	n/a	n/a	n/a	n/a	n/a
956.174	n/a	PROB	478087	n/a	LTP289	ltpFR	15	n/a	n/a	n/a	n/a	n/a	n/a	12	4	3	5	n/a	n/a	n/a	n/a	n/a
958.04	n/a	PROB	479020	n/a	LTP289	ltpFR	15	n/a	n/a	n/a	n/a	n/a	n/a	19	7	4	8	n/a	n/a	n/a	n/a	n/a
959.578	n/a	PROB	479789	n/a	LTP289	ltpFR	15	n/a	n/a	n/a	n/a	n/a	n/a	16	3	8	5	n/a	n/a	n/a	n/a	n/a
961.452	n/a	PROB	480726	n/a	LTP289	ltpFR	15	n/a	n/a	n/a	n/a	n/a	n/a	14	4	2	8	n/a	n/a	n/a	n/a	n/a
963.268	n/a	PROB	481634	n/a	LTP289	ltpFR	15	n/a	n/a	n/a	n/a	n/a	n/a	13	3	2	8	n/a	n/a	n/a	n/a	n/a
965.408	n/a	PROB	482704	n/a	LTP289	ltpFR	15	n/a	n/a	n/a	n/a	n/a	n/a	13	5	5	3	n/a	n/a	n/a	n/a	n/a
968.57	n/a	STOP	484285	n/a	LTP289	ltpFR	15	n/a	n/a	n/a	n/a	n/a	n/a	n/a	n/a	n/a	n/a	n/a	n/a	n/a	n/a	n/a
969.534	n/a	WORD	484767	wordpools/wasnorm_wordpool_less_exclusions.txt	LTP289	ltpFR	15	3	1	MOSS	918	n/a	0	n/a	0	0	0	1	0.412841796875	0.57763671875	upper	../fonts/zerothre.ttf
972.546	n/a	START	486273	n/a	LTP289	ltpFR	15	n/a	n/a	n/a	n/a	n/a	n/a	n/a	n/a	n/a	n/a	n/a	n/a	n/a	n/a	n/a
973.456	n/a	PROB	486728	n/a	LTP289	ltpFR	15	n/a	n/a	n/a	n/a	n/a	n/a	15	5	1	9	n/a	n/a	n/a	n/a	n/a
974.97	n/a	PROB	487485	n/a	LTP289	ltpFR	15	n/a	n/a	n/a	n/a	n/a	n/a	17	5	9	3	n/a	n/a	n/a	n/a	n/a
978.032	n/a	PROB	489016	n/a	LTP289	ltpFR	15	n/a	n/a	n/a	n/a	n/a	n/a	15	3	9	3	n/a	n/a	n/a	n/a	n/a
980.332	n/a	PROB	490166	n/a	LTP289	ltpFR	15	n/a	n/a	n/a	n/a	n/a	n/a	10	1	4	5	n/a	n/a	n/a	n/a	n/a
982.148	n/a	PROB	491074	n/a	LTP289	ltpFR	15	n/a	n/a	n/a	n/a	n/a	n/a	11	2	8	1	n/a	n/a	n/a	n/a	n/a
983.354	n/a	PROB	491677	n/a	LTP289	ltpFR	15	n/a	n/a	n/a	n/a	n/a	n/a	11	2	5	4	n/a	n/a	n/a	n/a	n/a
988.546	n/a	STOP	494273	n/a	LTP289	ltpFR	15	n/a	n/a	n/a	n/a	n/a	n/a	n/a	n/a	n/a	n/a	n/a	n/a	n/a	n/a	n/a
989.746	n/a	WORD	494873	wordpools/wasnorm_wordpool_less_exclusions.txt	LTP289	ltpFR	15	3	0	THICKET	1455	n/a	1	n/a	0	0	0	0	0.5869140625	0.422607421875	lower	../fonts/amplitud.ttf
992.758	n/a	START	496379	n/a	LTP289	ltpFR	15	n/a	n/a	n/a	n/a	n/a	n/a	n/a	n/a	n/a	n/a	n/a	n/a	n/a	n/a	n/a
993.852	n/a	PROB	496926	n/a	LTP289	ltpFR	15	n/a	n/a	n/a	n/a	n/a	n/a	19	2	8	9	n/a	n/a	n/a	n/a	n/a
996.226	n/a	PROB	498113	n/a	LTP289	ltpFR	15	n/a	n/a	n/a	n/a	n/a	n/a	21	8	6	7	n/a	n/a	n/a	n/a	n/a
999.096	n/a	PROB	499548	n/a	LTP289	ltpFR	15	n/a	n/a	n/a	n/a	n/a	n/a	16	8	1	7	n/a	n/a	n/a	n/a	n/a
1000.526	n/a	PROB	500263	n/a	LTP289	ltpFR	15	n/a	n/a	n/a	n/a	n/a	n/a	14	4	5	5	n/a	n/a	n/a	n/a	n/a
1001.8	n/a	PROB	500900	n/a	LTP289	ltpFR	15	n/a	n/a	n/a	n/a	n/a	n/a	18	4	9	5	n/a	n/a	n/a	n/a	n/a
1003.748	n/a	PROB	501874	n/a	LTP289	ltpFR	15	n/a	n/a	n/a	n/a	n/a	n/a	14	2	7	5	n/a	n/a	n/a	n/a	n/a
1007.226	n/a	STOP	503613	n/a	LTP289	ltpFR	15	n/a	n/a	n/a	n/a	n/a	n/a	n/a	n/a	n/a	n/a	n/a	n/a	n/a	n/a	n/a
1009.888	n/a	WORD	504944	wordpools/wasnorm_wordpool_less_exclusions.txt	LTP289	ltpFR	15	3	0	TUBE	1516	n/a	1	n/a	0	0	0	0	0.5869140625	0.422607421875	lower	../fonts/amplitud.ttf
1012.9	n/a	START	506450	n/a	LTP289	ltpFR	15	n/a	n/a	n/a	n/a	n/a	n/a	n/a	n/a	n/a	n/a	n/a	n/a	n/a	n/a	n/a
1013.804	n/a	PROB	506902	n/a	LTP289	ltpFR	15	n/a	n/a	n/a	n/a	n/a	n/a	11	2	5	4	n/a	n/a	n/a	n/a	n/a
1016.01	n/a	PROB	508005	n/a	LTP289	ltpFR	15	n/a	n/a	n/a	n/a	n/a	n/a	12	1	3	8	n/a	n/a	n/a	n/a	n/a
1018.27	n/a	PROB	509135	n/a	LTP289	ltpFR	15	n/a	n/a	n/a	n/a	n/a	n/a	13	5	4	4	n/a	n/a	n/a	n/a	n/a
1020.078	n/a	PROB	510039	n/a	LTP289	ltpFR	15	n/a	n/a	n/a	n/a	n/a	n/a	15	1	7	7	n/a	n/a	n/a	n/a	n/a
1021.658	n/a	PROB	510829	n/a	LTP289	ltpFR	15	n/a	n/a	n/a	n/a	n/a	n/a	12	5	5	2	n/a	n/a	n/a	n/a	n/a
1022.788	n/a	PROB	511394	n/a	LTP289	ltpFR	15	n/a	n/a	n/a	n/a	n/a	n/a	19	4	8	7	n/a	n/a	n/a	n/a	n/a
1025.054	n/a	PROB	512527	n/a	LTP289	ltpFR	15	n/a	n/a	n/a	n/a	n/a	n/a	12	8	1	3	n/a	n/a	n/a	n/a	n/a
1028.9	n/a	STOP	514450	n/a	LTP289	ltpFR	15	n/a	n/a	n/a	n/a	n/a	n/a	n/a	n/a	n/a	n/a	n/a	n/a	n/a	n/a	n/a
1029.832	n/a	WORD	514916	wordpools/wasnorm_wordpool_less_exclusions.txt	LTP289	ltpFR	15	3	0	BATTERY	101	n/a	0	n/a	0	0	0	0	0.5869140625	0.422607421875	lower	../fonts/amplitud.ttf
1032.844	n/a	START	516422	n/a	LTP289	ltpFR	15	n/a	n/a	n/a	n/a	n/a	n/a	n/a	n/a	n/a	n/a	n/a	n/a	n/a	n/a	n/a
1033.688	n/a	PROB	516844	n/a	LTP289	ltpFR	15	n/a	n/a	n/a	n/a	n/a	n/a	10	2	5	3	n/a	n/a	n/a	n/a	n/a
1035.72	n/a	PROB	517860	n/a	LTP289	ltpFR	15	n/a	n/a	n/a	n/a	n/a	n/a	10	4	5	1	n/a	n/a	n/a	n/a	n/a
1037.082	n/a	PROB	518541	n/a	LTP289	ltpFR	15	n/a	n/a	n/a	n/a	n/a	n/a	7	3	1	3	n/a	n/a	n/a	n/a	n/a
1039.242	n/a	PROB	519621	n/a	LTP289	ltpFR	15	n/a	n/a	n/a	n/a	n/a	n/a	13	6	5	2	n/a	n/a	n/a	n/a	n/a
1041.382	n/a	PROB	520691	n/a	LTP289	ltpFR	15	n/a	n/a	n/a	n/a	n/a	n/a	10	5	2	3	n/a	n/a	n/a	n/a	n/a
1042.906	n/a	PROB	521453	n/a	LTP289	ltpFR	15	n/a	n/a	n/a	n/a	n/a	n/a	12	2	1	9	n/a	n/a	n/a	n/a	n/a
1044.102	n/a	PROB	522051	n/a	LTP289	ltpFR	15	n/a	n/a	n/a	n/a	n/a	n/a	16	5	7	4	n/a	n/a	n/a	n/a	n/a
1048.844	n/a	STOP	524422	n/a	LTP289	ltpFR	15	n/a	n/a	n/a	n/a	n/a	n/a	n/a	n/a	n/a	n/a	n/a	n/a	n/a	n/a	n/a
1050.032	n/a	WORD	525016	wordpools/wasnorm_wordpool_less_exclusions.txt	LTP289	ltpFR	15	3	0	TOILET	1475	n/a	1	n/a	0	0	0	0	0.5869140625	0.422607421875	lower	../fonts/amplitud.ttf
1053.044	n/a	START	526522	n/a	LTP289	ltpFR	15	n/a	n/a	n/a	n/a	n/a	n/a	n/a	n/a	n/a	n/a	n/a	n/a	n/a	n/a	n/a
1053.922	n/a	PROB	526961	n/a	LTP289	ltpFR	15	n/a	n/a	n/a	n/a	n/a	n/a	22	5	8	9	n/a	n/a	n/a	n/a	n/a
1057.554	n/a	PROB	528777	n/a	LTP289	ltpFR	15	n/a	n/a	n/a	n/a	n/a	n/a	13	7	1	4	n/a	n/a	n/a	n/a	n/a
1061.226	n/a	PROB	530613	n/a	LTP289	ltpFR	15	n/a	n/a	n/a	n/a	n/a	n/a	15	3	5	7	n/a	n/a	n/a	n/a	n/a
1065.374	n/a	PROB	532687	n/a	LTP289	ltpFR	15	n/a	n/a	n/a	n/a	n/a	n/a	17	4	6	7	n/a	n/a	n/a	n/a	n/a
1066.806	n/a	PROB	533403	n/a	LTP289	ltpFR	15	n/a	n/a	n/a	n/a	n/a	n/a	11	1	1	9	n/a	n/a	n/a	n/a	n/a
1068.182	n/a	STOP	534091	n/a	LTP289	ltpFR	15	n/a	n/a	n/a	n/a	n/a	n/a	n/a	n/a	n/a	n/a	n/a	n/a	n/a	n/a	n/a
1070.034	n/a	WORD	535017	wordpools/wasnorm_wordpool_less_exclusions.txt	LTP289	ltpFR	15	3	1	FOLDER	588	n/a	0	n/a	0	0	0	1	0.412841796875	0.57763671875	upper	../fonts/zerothre.ttf
1073.046	n/a	START	536523	n/a	LTP289	ltpFR	15	n/a	n/a	n/a	n/a	n/a	n/a	n/a	n/a	n/a	n/a	n/a	n/a	n/a	n/a	n/a
1074.234	n/a	PROB	537117	n/a	LTP289	ltpFR	15	n/a	n/a	n/a	n/a	n/a	n/a	13	5	7	1	n/a	n/a	n/a	n/a	n/a
1076.058	n/a	PROB	538029	n/a	LTP289	ltpFR	15	n/a	n/a	n/a	n/a	n/a	n/a	14	8	3	3	n/a	n/a	n/a	n/a	n/a
1077.948	n/a	PROB	538974	n/a	LTP289	ltpFR	15	n/a	n/a	n/a	n/a	n/a	n/a	3	1	1	1	n/a	n/a	n/a	n/a	n/a
1081.378	n/a	PROB	540689	n/a	LTP289	ltpFR	15	n/a	n/a	n/a	n/a	n/a	n/a	13	2	9	2	n/a	n/a	n/a	n/a	n/a
1085.46	n/a	PROB	542730	n/a	LTP289	ltpFR	15	n/a	n/a	n/a	n/a	n/a	n/a	21	7	5	9	n/a	n/a	n/a	n/a	n/a
1087.59	n/a	STOP	543795	n/a	LTP289	ltpFR	15	n/a	n/a	n/a	n/a	n/a	n/a	n/a	n/a	n/a	n/a	n/a	n/a	n/a	n/a	n/a
1090.068	n/a	WORD	545034	wordpools/wasnorm_wordpool_less_exclusions.txt	LTP289	ltpFR	15	3	1	PRINCESS	1125	n/a	1	n/a	0	0	0	1	0.412841796875	0.57763671875	upper	../fonts/zerothre.ttf
1093.08	n/a	START	546540	n/a	LTP289	ltpFR	15	n/a	n/a	n/a	n/a	n/a	n/a	n/a	n/a	n/a	n/a	n/a	n/a	n/a	n/a	n/a
1094.226	n/a	PROB	547113	n/a	LTP289	ltpFR	15	n/a	n/a	n/a	n/a	n/a	n/a	9	4	3	2	n/a	n/a	n/a	n/a	n/a
1096.988	n/a	PROB	548494	n/a	LTP289	ltpFR	15	n/a	n/a	n/a	n/a	n/a	n/a	9	2	1	6	n/a	n/a	n/a	n/a	n/a
1098.812	n/a	PROB	549406	n/a	LTP289	ltpFR	15	n/a	n/a	n/a	n/a	n/a	n/a	25	9	7	9	n/a	n/a	n/a	n/a	n/a
1103.688	n/a	PROB	551844	n/a	LTP289	ltpFR	15	n/a	n/a	n/a	n/a	n/a	n/a	17	6	7	4	n/a	n/a	n/a	n/a	n/a
1105.56	n/a	PROB	552780	n/a	LTP289	ltpFR	15	n/a	n/a	n/a	n/a	n/a	n/a	20	9	3	8	n/a	n/a	n/a	n/a	n/a
1108.008	n/a	STOP	554004	n/a	LTP289	ltpFR	15	n/a	n/a	n/a	n/a	n/a	n/a	n/a	n/a	n/a	n/a	n/a	n/a	n/a	n/a	n/a
1110.162	n/a	WORD	555081	wordpools/wasnorm_wordpool_less_exclusions.txt	LTP289	ltpFR	15	3	1	BELT	120	n/a	0	n/a	0	0	0	1	0.412841796875	0.57763671875	upper	../fonts/zerothre.ttf
1113.174	n/a	START	556587	n/a	LTP289	ltpFR	15	n/a	n/a	n/a	n/a	n/a	n/a	n/a	n/a	n/a	n/a	n/a	n/a	n/a	n/a	n/a
1114.344	n/a	PROB	557172	n/a	LTP289	ltpFR	15	n/a	n/a	n/a	n/a	n/a	n/a	19	9	5	5	n/a	n/a	n/a	n/a	n/a
1115.658	n/a	PROB	557829	n/a	LTP289	ltpFR	15	n/a	n/a	n/a	n/a	n/a	n/a	13	3	5	5	n/a	n/a	n/a	n/a	n/a
1116.838	n/a	PROB	558419	n/a	LTP289	ltpFR	15	n/a	n/a	n/a	n/a	n/a	n/a	12	5	5	2	n/a	n/a	n/a	n/a	n/a
1118.186	n/a	PROB	559093	n/a	LTP289	ltpFR	15	n/a	n/a	n/a	n/a	n/a	n/a	8	1	4	3	n/a	n/a	n/a	n/a	n/a
1119.942	n/a	PROB	559971	n/a	LTP289	ltpFR	15	n/a	n/a	n/a	n/a	n/a	n/a	14	2	5	7	n/a	n/a	n/a	n/a	n/a
1122.1	n/a	PROB	561050	n/a	LTP289	ltpFR	15	n/a	n/a	n/a	n/a	n/a	n/a	17	7	3	7	n/a	n/a	n/a	n/a	n/a
1124.074	n/a	PROB	562037	n/a	LTP289	ltpFR	15	n/a	n/a	n/a	n/a	n/a	n/a	18	7	5	6	n/a	n/a	n/a	n/a	n/a
1126.256	n/a	PROB	563128	n/a	LTP289	ltpFR	15	n/a	n/a	n/a	n/a	n/a	n/a	16	7	5	4	n/a	n/a	n/a	n/a	n/a
1128.344	n/a	STOP	564172	n/a	LTP289	ltpFR	15	n/a	n/a	n/a	n/a	n/a	n/a	n/a	n/a	n/a	n/a	n/a	n/a	n/a	n/a	n/a
1130.222	n/a	WORD	565111	wordpools/wasnorm_wordpool_less_exclusions.txt	LTP289	ltpFR	15	3	0	ZOO	1637	n/a	1	n/a	0	0	0	0	0.5869140625	0.422607421875	lower	../fonts/amplitud.ttf
1133.234	n/a	START	566617	n/a	LTP289	ltpFR	15	n/a	n/a	n/a	n/a	n/a	n/a	n/a	n/a	n/a	n/a	n/a	n/a	n/a	n/a	n/a
1134.188	n/a	PROB	567094	n/a	LTP289	ltpFR	15	n/a	n/a	n/a	n/a	n/a	n/a	17	1	8	8	n/a	n/a	n/a	n/a	n/a
1135.754	n/a	PROB	567877	n/a	LTP289	ltpFR	15	n/a	n/a	n/a	n/a	n/a	n/a	15	7	7	1	n/a	n/a	n/a	n/a	n/a
1137.116	n/a	PROB	568558	n/a	LTP289	ltpFR	15	n/a	n/a	n/a	n/a	n/a	n/a	13	7	2	4	n/a	n/a	n/a	n/a	n/a
1139.424	n/a	PROB	569712	n/a	LTP289	ltpFR	15	n/a	n/a	n/a	n/a	n/a	n/a	14	6	3	5	n/a	n/a	n/a	n/a	n/a
1142.562	n/a	PROB	571281	n/a	LTP289	ltpFR	15	n/a	n/a	n/a	n/a	n/a	n/a	13	3	7	3	n/a	n/a	n/a	n/a	n/a
1144.208	n/a	PROB	572104	n/a	LTP289	ltpFR	15	n/a	n/a	n/a	n/a	n/a	n/a	13	2	6	5	n/a	n/a	n/a	n/a	n/a
1146.366	n/a	PROB	573183	n/a	LTP289	ltpFR	15	n/a	n/a	n/a	n/a	n/a	n/a	12	4	7	1	n/a	n/a	n/a	n/a	n/a
1148.098	n/a	STOP	574049	n/a	LTP289	ltpFR	15	n/a	n/a	n/a	n/a	n/a	n/a	n/a	n/a	n/a	n/a	n/a	n/a	n/a	n/a	n/a
1150.106	n/a	WORD	575053	wordpools/wasnorm_wordpool_less_exclusions.txt	LTP289	ltpFR	15	3	0	CHIPMUNK	304	n/a	0	n/a	0	0	0	0	0.5869140625	0.422607421875	lower	../fonts/amplitud.ttf
1153.12	n/a	START	576560	n/a	LTP289	ltpFR	15	n/a	n/a	n/a	n/a	n/a	n/a	n/a	n/a	n/a	n/a	n/a	n/a	n/a	n/a	n/a
1154.274	n/a	PROB	577137	n/a	LTP289	ltpFR	15	n/a	n/a	n/a	n/a	n/a	n/a	18	5	5	8	n/a	n/a	n/a	n/a	n/a
1155.444	n/a	PROB	577722	n/a	LTP289	ltpFR	15	n/a	n/a	n/a	n/a	n/a	n/a	15	7	3	5	n/a	n/a	n/a	n/a	n/a
1156.684	n/a	PROB	578342	n/a	LTP289	ltpFR	15	n/a	n/a	n/a	n/a	n/a	n/a	13	6	3	4	n/a	n/a	n/a	n/a	n/a
1159.216	n/a	PROB	579608	n/a	LTP289	ltpFR	15	n/a	n/a	n/a	n/a	n/a	n/a	13	2	6	5	n/a	n/a	n/a	n/a	n/a
1161.484	n/a	PROB	580742	n/a	LTP289	ltpFR	15	n/a	n/a	n/a	n/a	n/a	n/a	16	7	2	7	n/a	n/a	n/a	n/a	n/a
1163.148	n/a	PROB	581574	n/a	LTP289	ltpFR	15	n/a	n/a	n/a	n/a	n/a	n/a	13	7	1	5	n/a	n/a	n/a	n/a	n/a
1165.264	n/a	PROB	582632	n/a	LTP289	ltpFR	15	n/a	n/a	n/a	n/a	n/a	n/a	20	3	9	8	n/a	n/a	n/a	n/a	n/a
1169.114	n/a	STOP	584557	n/a	LTP289	ltpFR	15	n/a	n/a	n/a	n/a	n/a	n/a	n/a	n/a	n/a	n/a	n/a	n/a	n/a	n/a	n/a
1170.324	n/a	WORD	585162	wordpools/wasnorm_wordpool_less_exclusions.txt	LTP289	ltpFR	15	3	0	HEATER	698	n/a	0	n/a	0	0	0	0	0.5869140625	0.422607421875	lower	../fonts/amplitud.ttf
1173.338	n/a	START	586669	n/a	LTP289	ltpFR	15	n/a	n/a	n/a	n/a	n/a	n/a	n/a	n/a	n/a	n/a	n/a	n/a	n/a	n/a	n/a
1174.25	n/a	PROB	587125	n/a	LTP289	ltpFR	15	n/a	n/a	n/a	n/a	n/a	n/a	14	9	4	1	n/a	n/a	n/a	n/a	n/a
1175.646	n/a	PROB	587823	n/a	LTP289	ltpFR	15	n/a	n/a	n/a	n/a	n/a	n/a	16	4	9	3	n/a	n/a	n/a	n/a	n/a
1177.714	n/a	PROB	588857	n/a	LTP289	ltpFR	15	n/a	n/a	n/a	n/a	n/a	n/a	16	8	2	6	n/a	n/a	n/a	n/a	n/a
1179.0	n/a	PROB	589500	n/a	LTP289	ltpFR	15	n/a	n/a	n/a	n/a	n/a	n/a	16	6	4	6	n/a	n/a	n/a	n/a	n/a
1180.346	n/a	PROB	590173	n/a	LTP289	ltpFR	15	n/a	n/a	n/a	n/a	n/a	n/a	15	3	3	9	n/a	n/a	n/a	n/a	n/a
1182.932	n/a	PROB	591466	n/a	LTP289	ltpFR	15	n/a	n/a	n/a	n/a	n/a	n/a	19	3	9	7	n/a	n/a	n/a	n/a	n/a
1184.832	n/a	PROB	592416	n/a	LTP289	ltpFR	15	n/a	n/a	n/a	n/a	n/a	n/a	18	7	7	4	n/a	n/a	n/a	n/a	n/a
1186.714	n/a	PROB	593357	n/a	LTP289	ltpFR	15	n/a	n/a	n/a	n/a	n/a	n/a	11	3	7	1	n/a	n/a	n/a	n/a	n/a
1187.892	n/a	STOP	593946	n/a	LTP289	ltpFR	15	n/a	n/a	n/a	n/a	n/a	n/a	n/a	n/a	n/a	n/a	n/a	n/a	n/a	n/a	n/a
1190.202	n/a	WORD	595101	wordpools/wasnorm_wordpool_less_exclusions.txt	LTP289	ltpFR	15	3	0	ANTEATER	26	n/a	1	n/a	0	0	0	0	0.5869140625	0.422607421875	lower	../fonts/amplitud.ttf
1193.214	n/a	START	596607	n/a	LTP289	ltpFR	15	n/a	n/a	n/a	n/a	n/a	n/a	n/a	n/a	n/a	n/a	n/a	n/a	n/a	n/a	n/a
1194.116	n/a	PROB	597058	n/a	LTP289	ltpFR	15	n/a	n/a	n/a	n/a	n/a	n/a	12	3	5	4	n/a	n/a	n/a	n/a	n/a
1196.2	n/a	PROB	598100	n/a	LTP289	ltpFR	15	n/a	n/a	n/a	n/a	n/a	n/a	13	4	8	1	n/a	n/a	n/a	n/a	n/a
1198.266	n/a	PROB	599133	n/a	LTP289	ltpFR	15	n/a	n/a	n/a	n/a	n/a	n/a	10	1	7	2	n/a	n/a	n/a	n/a	n/a
1200.34	n/a	PROB	600170	n/a	LTP289	ltpFR	15	n/a	n/a	n/a	n/a	n/a	n/a	10	4	4	2	n/a	n/a	n/a	n/a	n/a
1202.648	n/a	PROB	601324	n/a	LTP289	ltpFR	15	n/a	n/a	n/a	n/a	n/a	n/a	9	2	5	2	n/a	n/a	n/a	n/a	n/a
1204.598	n/a	PROB	602299	n/a	LTP289	ltpFR	15	n/a	n/a	n/a	n/a	n/a	n/a	18	7	2	9	n/a	n/a	n/a	n/a	n/a
1207.358	n/a	PROB	603679	n/a	LTP289	ltpFR	15	n/a	n/a	n/a	n/a	n/a	n/a	24	9	9	6	n/a	n/a	n/a	n/a	n/a
1208.886	n/a	STOP	604443	n/a	LTP289	ltpFR	15	n/a	n/a	n/a	n/a	n/a	n/a	n/a	n/a	n/a	n/a	n/a	n/a	n/a	n/a	n/a
1210.396	n/a	WORD	605198	wordpools/wasnorm_wordpool_less_exclusions.txt	LTP289	ltpFR	15	3	1	SUMMIT	1405	n/a	0	n/a	0	0	0	1	0.412841796875	0.57763671875	upper	../fonts/zerothre.ttf
1213.408	n/a	START	606704	n/a	LTP289	ltpFR	15	n/a	n/a	n/a	n/a	n/a	n/a	n/a	n/a	n/a	n/a	n/a	n/a	n/a	n/a	n/a
1214.436	n/a	PROB	607218	n/a	LTP289	ltpFR	15	n/a	n/a	n/a	n/a	n/a	n/a	20	4	8	8	n/a	n/a	n/a	n/a	n/a
1215.992	n/a	PROB	607996	n/a	LTP289	ltpFR	15	n/a	n/a	n/a	n/a	n/a	n/a	16	5	3	8	n/a	n/a	n/a	n/a	n/a
1217.858	n/a	PROB	608929	n/a	LTP289	ltpFR	15	n/a	n/a	n/a	n/a	n/a	n/a	24	8	9	7	n/a	n/a	n/a	n/a	n/a
1220.952	n/a	PROB	610476	n/a	LTP289	ltpFR	15	n/a	n/a	n/a	n/a	n/a	n/a	16	4	9	3	n/a	n/a	n/a	n/a	n/a
1222.992	n/a	PROB	611496	n/a	LTP289	ltpFR	15	n/a	n/a	n/a	n/a	n/a	n/a	18	2	9	7	n/a	n/a	n/a	n/a	n/a
1224.818	n/a	PROB	612409	n/a	LTP289	ltpFR	15	n/a	n/a	n/a	n/a	n/a	n/a	10	2	5	3	n/a	n/a	n/a	n/a	n/a
1229.398	n/a	STOP	614699	n/a	LTP289	ltpFR	15	n/a	n/a	n/a	n/a	n/a	n/a	n/a	n/a	n/a	n/a	n/a	n/a	n/a	n/a	n/a
1230.298	n/a	WORD	615149	wordpools/wasnorm_wordpool_less_exclusions.txt	LTP289	ltpFR	15	3	1	THERMOMETER	1453	n/a	0	n/a	0	0	0	1	0.412841796875	0.57763671875	upper	../fonts/zerothre.ttf
1233.308	n/a	START	616654	n/a	LTP289	ltpFR	15	n/a	n/a	n/a	n/a	n/a	n/a	n/a	n/a	n/a	n/a	n/a	n/a	n/a	n/a	n/a
1234.43	n/a	PROB	617215	n/a	LTP289	ltpFR	15	n/a	n/a	n/a	n/a	n/a	n/a	19	8	2	9	n/a	n/a	n/a	n/a	n/a
1235.894	n/a	PROB	617947	n/a	LTP289	ltpFR	15	n/a	n/a	n/a	n/a	n/a	n/a	13	2	2	9	n/a	n/a	n/a	n/a	n/a
1237.742	n/a	PROB	618871	n/a	LTP289	ltpFR	15	n/a	n/a	n/a	n/a	n/a	n/a	9	3	4	2	n/a	n/a	n/a	n/a	n/a
1239.924	n/a	PROB	619962	n/a	LTP289	ltpFR	15	n/a	n/a	n/a	n/a	n/a	n/a	10	2	6	2	n/a	n/a	n/a	n/a	n/a
1241.406	n/a	PROB	620703	n/a	LTP289	ltpFR	15	n/a	n/a	n/a	n/a	n/a	n/a	10	8	1	1	n/a	n/a	n/a	n/a	n/a
1242.762	n/a	PROB	621381	n/a	LTP289	ltpFR	15	n/a	n/a	n/a	n/a	n/a	n/a	14	7	1	6	n/a	n/a	n/a	n/a	n/a
1244.676	n/a	PROB	622338	n/a	LTP289	ltpFR	15	n/a	n/a	n/a	n/a	n/a	n/a	17	5	3	9	n/a	n/a	n/a	n/a	n/a
1249.308	n/a	STOP	624654	n/a	LTP289	ltpFR	15	n/a	n/a	n/a	n/a	n/a	n/a	n/a	n/a	n/a	n/a	n/a	n/a	n/a	n/a	n/a
1251.236	n/a	REC_START	625618	n/a	LTP289	ltpFR	15	3	n/a	n/a	n/a	n/a	n/a	n/a	0	0	0	n/a	n/a	n/a	n/a	n/a
1252.058	n/a	REC_WORD	626029	wordpools/wasnorm_wordpool_less_exclusions.txt	LTP289	ltpFR	15	3	1	THERMOMETER	1453	n/a	0	n/a	0	0	0	n/a	n/a	n/a	n/a	n/a
1253.04	n/a	REC_WORD	626520	wordpools/wasnorm_wordpool_less_exclusions.txt	LTP289	ltpFR	15	3	1	SUMMIT	1405	n/a	0	n/a	0	0	0	n/a	n/a	n/a	n/a	n/a
1253.802	n/a	REC_WORD	626901	wordpools/wasnorm_wordpool_less_exclusions.txt	LTP289	ltpFR	15	3	0	HEATER	698	n/a	0	n/a	0	0	0	n/a	n/a	n/a	n/a	n/a
1254.864	n/a	REC_WORD	627432	wordpools/wasnorm_wordpool_less_exclusions.txt	LTP289	ltpFR	15	3	0	CHIPMUNK	304	n/a	0	n/a	0	0	0	n/a	n/a	n/a	n/a	n/a
1259.524	n/a	REC_WORD	629762	wordpools/wasnorm_wordpool_less_exclusions.txt	LTP289	ltpFR	15	3	1	FOX	598	n/a	1	n/a	0	0	0	n/a	n/a	n/a	n/a	n/a
1260.49	n/a	REC_WORD	630245	wordpools/wasnorm_wordpool_less_exclusions.txt	LTP289	ltpFR	15	3	1	MOSS	918	n/a	0	n/a	0	0	0	n/a	n/a	n/a	n/a	n/a
1261.41	n/a	REC_WORD	630705	wordpools/wasnorm_wordpool_less_exclusions.txt	LTP289	ltpFR	15	3	1	MOAT	903	n/a	0	n/a	0	0	0	n/a	n/a	n/a	n/a	n/a
1262.25	n/a	REC_WORD	631125	wordpools/wasnorm_wordpool_less_exclusions.txt	LTP289	ltpFR	15	3	0	THICKET	1455	n/a	1	n/a	0	0	0	n/a	n/a	n/a	n/a	n/a
1265.054	n/a	REC_WORD	632527	wordpools/wasnorm_wordpool_less_exclusions.txt	LTP289	ltpFR	15	3	0	TUBE	1516	n/a	1	n/a	0	0	0	n/a	n/a	n/a	n/a	n/a
1283.002	n/a	REC_WORD	641501	wordpools/wasnorm_wordpool_less_exclusions.txt	LTP289	ltpFR	15	3	1	PRINCESS	1125	n/a	1	n/a	0	0	0	n/a	n/a	n/a	n/a	n/a
1302.206	n/a	REC_WORD	651103	wordpools/wasnorm_wordpool_less_exclusions.txt	LTP289	ltpFR	15	3	1	FLOWER	584	n/a	0	n/a	0	0	0	n/a	n/a	n/a	n/a	n/a
1378.732	n/a	WORD	689366	wordpools/wasnorm_wordpool_less_exclusions.txt	LTP289	ltpFR	15	4	1	PUBLISHER	1137	n/a	1	n/a	0	0	0	1	0.412841796875	0.57763671875	upper	../fonts/zerothre.ttf
1382.804	n/a	WORD	691402	wordpools/wasnorm_wordpool_less_exclusions.txt	LTP289	ltpFR	15	4	1	FOOTBALL	591	n/a	0	n/a	0	0	0	1	0.412841796875	0.57763671875	upper	../fonts/zerothre.ttf
1386.77	n/a	WORD	693385	wordpools/wasnorm_wordpool_less_exclusions.txt	LTP289	ltpFR	15	4	1	VOLLEYBALL	1576	n/a	0	n/a	0	0	0	1	0.412841796875	0.57763671875	upper	../fonts/zerothre.ttf
1390.878	n/a	WORD	695439	wordpools/wasnorm_wordpool_less_exclusions.txt	LTP289	ltpFR	15	4	1	DICTIONARY	463	n/a	0	n/a	0	0	0	1	0.412841796875	0.57763671875	upper	../fonts/zerothre.ttf
1394.942	n/a	WORD	697471	wordpools/wasnorm_wordpool_less_exclusions.txt	LTP289	ltpFR	15	4	1	STONE	1385	n/a	0	n/a	0	0	0	1	0.412841796875	0.57763671875	upper	../fonts/zerothre.ttf
1398.966	n/a	WORD	699483	wordpools/wasnorm_wordpool_less_exclusions.txt	LTP289	ltpFR	15	4	1	ATMOSPHERE	54	n/a	0	n/a	0	0	0	1	0.412841796875	0.57763671875	upper	../fonts/zerothre.ttf
1402.89	n/a	WORD	701445	wordpools/wasnorm_wordpool_less_exclusions.txt	LTP289	ltpFR	15	4	0	CLIMBER	323	n/a	1	n/a	0	0	0	0	0.5869140625	0.422607421875	lower	../fonts/amplitud.ttf
1406.996	n/a	WORD	703498	wordpools/wasnorm_wordpool_less_exclusions.txt	LTP289	ltpFR	15	4	0	TREE	1502	n/a	1	n/a	0	0	0	0	0.5869140625	0.422607421875	lower	../fonts/amplitud.ttf
1411.154	n/a	WORD	705577	wordpools/wasnorm_wordpool_less_exclusions.txt	LTP289	ltpFR	15	4	0	COW	393	n/a	1	n/a	0	0	0	0	0.5869140625	0.422607421875	lower	../fonts/amplitud.ttf
1415.236	n/a	WORD	707618	wordpools/wasnorm_wordpool_less_exclusions.txt	LTP289	ltpFR	15	4	0	SAUSAGE	1238	n/a	0	n/a	0	0	0	0	0.5869140625	0.422607421875	lower	../fonts/amplitud.ttf
1419.168	n/a	WORD	709584	wordpools/wasnorm_wordpool_less_exclusions.txt	LTP289	ltpFR	15	4	1	BLANKET	135	n/a	0	n/a	0	0	0	1	0.412841796875	0.57763671875	upper	../fonts/zerothre.ttf
1423.226	n/a	WORD	711613	wordpools/wasnorm_wordpool_less_exclusions.txt	LTP289	ltpFR	15	4	1	PAGE	1001	n/a	0	n/a	0	0	0	1	0.412841796875	0.57763671875	upper	../fonts/zerothre.ttf
1427.116	n/a	WORD	713558	wordpools/wasnorm_wordpool_less_exclusions.txt	LTP289	ltpFR	15	4	0	GLOBE	641	n/a	1	n/a	0	0	0	0	0.5869140625	0.422607421875	lower	../fonts/amplitud.ttf
1431.054	n/a	WORD	715527	wordpools/wasnorm_wordpool_less_exclusions.txt	LTP289	ltpFR	15	4	0	CYLINDER	432	n/a	1	n/a	0	0	0	0	0.5869140625	0.422607421875	lower	../fonts/amplitud.ttf
1435.136	n/a	WORD	717568	wordpools/wasnorm_wordpool_less_exclusions.txt	LTP289	ltpFR	15	4	0	SWEATER	1419	n/a	0	n/a	0	0	0	0	0.5869140625	0.422607421875	lower	../fonts/amplitud.ttf
1439.036	n/a	WORD	719518	wordpools/wasnorm_wordpool_less_exclusions.txt	LTP289	ltpFR	15	4	0	SHEEP	1278	n/a	1	n/a	0	0	0	0	0.5869140625	0.422607421875	lower	../fonts/amplitud.ttf
1442.048	n/a	START	721024	n/a	LTP289	ltpFR	15	n/a	n/a	n/a	n/a	n/a	n/a	n/a	n/a	n/a	n/a	n/a	n/a	n/a	n/a	n/a
1443.1	n/a	PROB	721550	n/a	LTP289	ltpFR	15	n/a	n/a	n/a	n/a	n/a	n/a	15	7	5	3	n/a	n/a	n/a	n/a	n/a
1444.892	n/a	PROB	722446	n/a	LTP289	ltpFR	15	n/a	n/a	n/a	n/a	n/a	n/a	12	2	8	2	n/a	n/a	n/a	n/a	n/a
1446.054	n/a	PROB	723027	n/a	LTP289	ltpFR	15	n/a	n/a	n/a	n/a	n/a	n/a	10	3	3	4	n/a	n/a	n/a	n/a	n/a
1450.026	n/a	STOP	725013	n/a	LTP289	ltpFR	15	n/a	n/a	n/a	n/a	n/a	n/a	n/a	n/a	n/a	n/a	n/a	n/a	n/a	n/a	n/a
1451.82	n/a	REC_START	725910	n/a	LTP289	ltpFR	15	4	n/a	n/a	n/a	n/a	n/a	n/a	0	0	0	n/a	n/a	n/a	n/a	n/a
1453.126	n/a	REC_WORD	726563	wordpools/wasnorm_wordpool_less_exclusions.txt	LTP289	ltpFR	15	4	1	PUBLISHER	1137	n/a	1	n/a	0	0	0	n/a	n/a	n/a	n/a	n/a
1454.252	n/a	REC_WORD	727126	wordpools/wasnorm_wordpool_less_exclusions.txt	LTP289	ltpFR	15	4	1	FOOTBALL	591	n/a	0	n/a	0	0	0	n/a	n/a	n/a	n/a	n/a
1455.498	n/a	REC_WORD	727749	wordpools/wasnorm_wordpool_less_exclusions.txt	LTP289	ltpFR	15	4	1	VOLLEYBALL	1576	n/a	0	n/a	0	0	0	n/a	n/a	n/a	n/a	n/a
1456.808	n/a	REC_WORD	728404	wordpools/wasnorm_wordpool_less_exclusions.txt	LTP289	ltpFR	15	4	1	PAGE	1001	n/a	0	n/a	0	0	0	n/a	n/a	n/a	n/a	n/a
1457.99	n/a	REC_WORD	728995	wordpools/wasnorm_wordpool_less_exclusions.txt	LTP289	ltpFR	15	4	1	STONE	1385	n/a	0	n/a	0	0	0	n/a	n/a	n/a	n/a	n/a
1459.546	n/a	REC_WORD	729773	wordpools/wasnorm_wordpool_less_exclusions.txt	LTP289	ltpFR	15	4	1	ATMOSPHERE	54	n/a	0	n/a	0	0	0	n/a	n/a	n/a	n/a	n/a
1460.868	n/a	REC_WORD	730434	wordpools/wasnorm_wordpool_less_exclusions.txt	LTP289	ltpFR	15	4	0	CLIMBER	323	n/a	1	n/a	0	0	0	n/a	n/a	n/a	n/a	n/a
1462.142	n/a	REC_WORD	731071	wordpools/wasnorm_wordpool_less_exclusions.txt	LTP289	ltpFR	15	4	0	TREE	1502	n/a	1	n/a	0	0	0	n/a	n/a	n/a	n/a	n/a
1464.876	n/a	REC_WORD	732438	wordpools/wasnorm_wordpool_less_exclusions.txt	LTP289	ltpFR	15	4	0	CYLINDER	432	n/a	1	n/a	0	0	0	n/a	n/a	n/a	n/a	n/a
1475.406	n/a	REC_WORD	737703	wordpools/wasnorm_wordpool_less_exclusions.txt	LTP289	ltpFR	15	4	1	DICTIONARY	463	n/a	0	n/a	0	0	0	n/a	n/a	n/a	n/a	n/a
1492.81	n/a	REC_WORD	746405	wordpools/wasnorm_wordpool_less_exclusions.txt	LTP289	ltpFR	15	4	0	SWEATER	1419	n/a	0	n/a	0	0	0	n/a	n/a	n/a	n/a	n/a
1567.846	n/a	START	783923	n/a	LTP289	ltpFR	15	n/a	n/a	n/a	n/a	n/a	n/a	n/a	n/a	n/a	n/a	n/a	n/a	n/a	n/a	n/a
1569.36	n/a	PROB	784680	n/a	LTP289	ltpFR	15	n/a	n/a	n/a	n/a	n/a	n/a	13	4	6	3	n/a	n/a	n/a	n/a	n/a
1571.056	n/a	PROB	785528	n/a	LTP289	ltpFR	15	n/a	n/a	n/a	n/a	n/a	n/a	15	3	9	3	n/a	n/a	n/a	n/a	n/a
1572.832	n/a	PROB	786416	n/a	LTP289	ltpFR	15	n/a	n/a	n/a	n/a	n/a	n/a	13	3	6	4	n/a	n/a	n/a	n/a	n/a
1573.976	n/a	PROB	786988	n/a	LTP289	ltpFR	15	n/a	n/a	n/a	n/a	n/a	n/a	13	3	8	2	n/a	n/a	n/a	n/a	n/a
1575.232	n/a	STOP	787616	n/a	LTP289	ltpFR	15	n/a	n/a	n/a	n/a	n/a	n/a	n/a	n/a	n/a	n/a	n/a	n/a	n/a	n/a	n/a
1576.846	n/a	WORD	788423	wordpools/wasnorm_wordpool_less_exclusions.txt	LTP289	ltpFR	15	5	1	OCTOPUS	971	n/a	1	n/a	0	0	0	1	0.412841796875	0.57763671875	upper	../fonts/zerothre.ttf
1579.858	n/a	START	789929	n/a	LTP289	ltpFR	15	n/a	n/a	n/a	n/a	n/a	n/a	n/a	n/a	n/a	n/a	n/a	n/a	n/a	n/a	n/a
1580.986	n/a	PROB	790493	n/a	LTP289	ltpFR	15	n/a	n/a	n/a	n/a	n/a	n/a	16	5	7	4	n/a	n/a	n/a	n/a	n/a
1583.128	n/a	PROB	791564	n/a	LTP289	ltpFR	15	n/a	n/a	n/a	n/a	n/a	n/a	12	3	4	5	n/a	n/a	n/a	n/a	n/a
1585.57	n/a	PROB	792785	n/a	LTP289	ltpFR	15	n/a	n/a	n/a	n/a	n/a	n/a	10	2	6	2	n/a	n/a	n/a	n/a	n/a
1587.336	n/a	STOP	793668	n/a	LTP289	ltpFR	15	n/a	n/a	n/a	n/a	n/a	n/a	n/a	n/a	n/a	n/a	n/a	n/a	n/a	n/a	n/a
1588.86	n/a	WORD	794430	wordpools/wasnorm_wordpool_less_exclusions.txt	LTP289	ltpFR	15	5	1	VAMPIRE	1547	n/a	1	n/a	0	0	0	1	0.412841796875	0.57763671875	upper	../fonts/zerothre.ttf
1591.872	n/a	START	795936	n/a	LTP289	ltpFR	15	n/a	n/a	n/a	n/a	n/a	n/a	n/a	n/a	n/a	n/a	n/a	n/a	n/a	n/a	n/a
1592.874	n/a	PROB	796437	n/a	LTP289	ltpFR	15	n/a	n/a	n/a	n/a	n/a	n/a	16	8	1	7	n/a	n/a	n/a	n/a	n/a
1594.48	n/a	PROB	797240	n/a	LTP289	ltpFR	15	n/a	n/a	n/a	n/a	n/a	n/a	8	4	2	2	n/a	n/a	n/a	n/a	n/a
1596.43	n/a	PROB	798215	n/a	LTP289	ltpFR	15	n/a	n/a	n/a	n/a	n/a	n/a	17	3	9	5	n/a	n/a	n/a	n/a	n/a
1599.258	n/a	STOP	799629	n/a	LTP289	ltpFR	15	n/a	n/a	n/a	n/a	n/a	n/a	n/a	n/a	n/a	n/a	n/a	n/a	n/a	n/a	n/a
1601.096	n/a	WORD	800548	wordpools/wasnorm_wordpool_less_exclusions.txt	LTP289	ltpFR	15	5	1	COMMUNITY	356	n/a	1	n/a	0	0	0	1	0.412841796875	0.57763671875	upper	../fonts/zerothre.ttf
1604.108	n/a	START	802054	n/a	LTP289	ltpFR	15	n/a	n/a	n/a	n/a	n/a	n/a	n/a	n/a	n/a	n/a	n/a	n/a	n/a	n/a	n/a
1604.986	n/a	PROB	802493	n/a	LTP289	ltpFR	15	n/a	n/a	n/a	n/a	n/a	n/a	10	3	4	3	n/a	n/a	n/a	n/a	n/a
1606.936	n/a	PROB	803468	n/a	LTP289	ltpFR	15	n/a	n/a	n/a	n/a	n/a	n/a	15	1	6	8	n/a	n/a	n/a	n/a	n/a
1609.052	n/a	PROB	804526	n/a	LTP289	ltpFR	15	n/a	n/a	n/a	n/a	n/a	n/a	11	1	9	1	n/a	n/a	n/a	n/a	n/a
1610.884	n/a	STOP	805442	n/a	LTP289	ltpFR	15	n/a	n/a	n/a	n/a	n/a	n/a	n/a	n/a	n/a	n/a	n/a	n/a	n/a	n/a	n/a
1613.234	n/a	WORD	806617	wordpools/wasnorm_wordpool_less_exclusions.txt	LTP289	ltpFR	15	5	1	TOWN	1491	n/a	0	n/a	0	0	0	1	0.412841796875	0.57763671875	upper	../fonts/zerothre.ttf
1616.246	n/a	START	808123	n/a	LTP289	ltpFR	15	n/a	n/a	n/a	n/a	n/a	n/a	n/a	n/a	n/a	n/a	n/a	n/a	n/a	n/a	n/a
1617.45	n/a	PROB	808725	n/a	LTP289	ltpFR	15	n/a	n/a	n/a	n/a	n/a	n/a	9	4	3	2	n/a	n/a	n/a	n/a	n/a
1620.094	n/a	PROB	810047	n/a	LTP289	ltpFR	15	n/a	n/a	n/a	n/a	n/a	n/a	11	4	4	3	n/a	n/a	n/a	n/a	n/a
1621.466	n/a	PROB	810733	n/a	LTP289	ltpFR	15	n/a	n/a	n/a	n/a	n/a	n/a	19	9	3	7	n/a	n/a	n/a	n/a	n/a
1623.25	n/a	STOP	811625	n/a	LTP289	ltpFR	15	n/a	n/a	n/a	n/a	n/a	n/a	n/a	n/a	n/a	n/a	n/a	n/a	n/a	n/a	n/a
1625.146	n/a	WORD	812573	wordpools/wasnorm_wordpool_less_exclusions.txt	LTP289	ltpFR	15	5	1	BANK	83	n/a	0	n/a	0	0	0	1	0.412841796875	0.57763671875	upper	../fonts/zerothre.ttf
1628.158	n/a	START	814079	n/a	LTP289	ltpFR	15	n/a	n/a	n/a	n/a	n/a	n/a	n/a	n/a	n/a	n/a	n/a	n/a	n/a	n/a	n/a
1629.312	n/a	PROB	814656	n/a	LTP289	ltpFR	15	n/a	n/a	n/a	n/a	n/a	n/a	1	1	9	3	n/a	n/a	n/a	n/a	n/a
1630.534	n/a	PROB	815267	n/a	LTP289	ltpFR	15	n/a	n/a	n/a	n/a	n/a	n/a	17	5	9	3	n/a	n/a	n/a	n/a	n/a
1633.394	n/a	PROB	816697	n/a	LTP289	ltpFR	15	n/a	n/a	n/a	n/a	n/a	n/a	9	3	2	4	n/a	n/a	n/a	n/a	n/a
1635.292	n/a	STOP	817646	n/a	LTP289	ltpFR	15	n/a	n/a	n/a	n/a	n/a	n/a	n/a	n/a	n/a	n/a	n/a	n/a	n/a	n/a	n/a
1637.286	n/a	WORD	818643	wordpools/wasnorm_wordpool_less_exclusions.txt	LTP289	ltpFR	15	5	1	DOLLAR	482	n/a	0	n/a	0	0	0	1	0.412841796875	0.57763671875	upper	../fonts/zerothre.ttf
1640.298	n/a	START	820149	n/a	LTP289	ltpFR	15	n/a	n/a	n/a	n/a	n/a	n/a	n/a	n/a	n/a	n/a	n/a	n/a	n/a	n/a	n/a
1641.124	n/a	PROB	820562	n/a	LTP289	ltpFR	15	n/a	n/a	n/a	n/a	n/a	n/a	14	4	2	8	n/a	n/a	n/a	n/a	n/a
1644.906	n/a	PROB	822453	n/a	LTP289	ltpFR	15	n/a	n/a	n/a	n/a	n/a	n/a	14	2	6	6	n/a	n/a	n/a	n/a	n/a
1647.46	n/a	STOP	823730	n/a	LTP289	ltpFR	15	n/a	n/a	n/a	n/a	n/a	n/a	n/a	n/a	n/a	n/a	n/a	n/a	n/a	n/a	n/a
1649.482	n/a	WORD	824741	wordpools/wasnorm_wordpool_less_exclusions.txt	LTP289	ltpFR	15	5	1	WOLF	1619	n/a	1	n/a	0	0	0	1	0.412841796875	0.57763671875	upper	../fonts/zerothre.ttf
1652.494	n/a	START	826247	n/a	LTP289	ltpFR	15	n/a	n/a	n/a	n/a	n/a	n/a	n/a	n/a	n/a	n/a	n/a	n/a	n/a	n/a	n/a
1653.682	n/a	PROB	826841	n/a	LTP289	ltpFR	15	n/a	n/a	n/a	n/a	n/a	n/a	21	9	8	4	n/a	n/a	n/a	n/a	n/a
1656.768	n/a	PROB	828384	n/a	LTP289	ltpFR	15	n/a	n/a	n/a	n/a	n/a	n/a	12	7	2	3	n/a	n/a	n/a	n/a	n/a
1660.494	n/a	STOP	830247	n/a	LTP289	ltpFR	15	n/a	n/a	n/a	n/a	n/a	n/a	n/a	n/a	n/a	n/a	n/a	n/a	n/a	n/a	n/a
1661.502	n/a	WORD	830751	wordpools/wasnorm_wordpool_less_exclusions.txt	LTP289	ltpFR	15	5	1	LOAF	835	n/a	0	n/a	0	0	0	1	0.412841796875	0.57763671875	upper	../fonts/zerothre.ttf
1664.514	n/a	START	832257	n/a	LTP289	ltpFR	15	n/a	n/a	n/a	n/a	n/a	n/a	n/a	n/a	n/a	n/a	n/a	n/a	n/a	n/a	n/a
1665.72	n/a	PROB	832860	n/a	LTP289	ltpFR	15	n/a	n/a	n/a	n/a	n/a	n/a	20	5	8	7	n/a	n/a	n/a	n/a	n/a
1668.422	n/a	PROB	834211	n/a	LTP289	ltpFR	15	n/a	n/a	n/a	n/a	n/a	n/a	13	2	9	2	n/a	n/a	n/a	n/a	n/a
1672.514	n/a	STOP	836257	n/a	LTP289	ltpFR	15	n/a	n/a	n/a	n/a	n/a	n/a	n/a	n/a	n/a	n/a	n/a	n/a	n/a	n/a	n/a
1673.414	n/a	WORD	836707	wordpools/wasnorm_wordpool_less_exclusions.txt	LTP289	ltpFR	15	5	1	GYMNAST	675	n/a	1	n/a	0	0	0	1	0.412841796875	0.57763671875	upper	../fonts/zerothre.ttf
1676.426	n/a	START	838213	n/a	LTP289	ltpFR	15	n/a	n/a	n/a	n/a	n/a	n/a	n/a	n/a	n/a	n/a	n/a	n/a	n/a	n/a	n/a
1677.304	n/a	PROB	838652	n/a	LTP289	ltpFR	15	n/a	n/a	n/a	n/a	n/a	n/a	10	2	6	2	n/a	n/a	n/a	n/a	n/a
1678.828	n/a	PROB	839414	n/a	LTP289	ltpFR	15	n/a	n/a	n/a	n/a	n/a	n/a	11	3	2	4	n/a	n/a	n/a	n/a	n/a
1680.776	n/a	PROB	840388	n/a	LTP289	ltpFR	15	n/a	n/a	n/a	n/a	n/a	n/a	20	7	4	9	n/a	n/a	n/a	n/a	n/a
1683.454	n/a	STOP	841727	n/a	LTP289	ltpFR	15	n/a	n/a	n/a	n/a	n/a	n/a	n/a	n/a	n/a	n/a	n/a	n/a	n/a	n/a	n/a
1685.56	n/a	WORD	842780	wordpools/wasnorm_wordpool_less_exclusions.txt	LTP289	ltpFR	15	5	1	BIKE	125	n/a	0	n/a	0	0	0	1	0.412841796875	0.57763671875	upper	../fonts/zerothre.ttf
1688.574	n/a	START	844287	n/a	LTP289	ltpFR	15	n/a	n/a	n/a	n/a	n/a	n/a	n/a	n/a	n/a	n/a	n/a	n/a	n/a	n/a	n/a
1689.434	n/a	PROB	844717	n/a	LTP289	ltpFR	15	n/a	n/a	n/a	n/a	n/a	n/a	25	8	8	9	n/a	n/a	n/a	n/a	n/a
1691.25	n/a	PROB	845625	n/a	LTP289	ltpFR	15	n/a	n/a	n/a	n/a	n/a	n/a	12	4	4	4	n/a	n/a	n/a	n/a	n/a
1693.324	n/a	PROB	846662	n/a	LTP289	ltpFR	15	n/a	n/a	n/a	n/a	n/a	n/a	15	5	3	7	n/a	n/a	n/a	n/a	n/a
1695.462	n/a	STOP	847731	n/a	LTP289	ltpFR	15	n/a	n/a	n/a	n/a	n/a	n/a	n/a	n/a	n/a	n/a	n/a	n/a	n/a	n/a	n/a
1697.674	n/a	WORD	848837	wordpools/wasnorm_wordpool_less_exclusions.txt	LTP289	ltpFR	15	5	1	SKATE	1313	n/a	0	n/a	0	0	0	1	0.412841796875	0.57763671875	upper	../fonts/zerothre.ttf
1700.686	n/a	START	850343	n/a	LTP289	ltpFR	15	n/a	n/a	n/a	n/a	n/a	n/a	n/a	n/a	n/a	n/a	n/a	n/a	n/a	n/a	n/a
1701.892	n/a	PROB	850946	n/a	LTP289	ltpFR	15	n/a	n/a	n/a	n/a	n/a	n/a	17	2	7	8	n/a	n/a	n/a	n/a	n/a
1705.438	n/a	PROB	852719	n/a	LTP289	ltpFR	15	n/a	n/a	n/a	n/a	n/a	n/a	19	4	9	6	n/a	n/a	n/a	n/a	n/a
1707.126	n/a	PROB	853563	n/a	LTP289	ltpFR	15	n/a	n/a	n/a	n/a	n/a	n/a	11	6	1	4	n/a	n/a	n/a	n/a	n/a
1708.168	n/a	STOP	854084	n/a	LTP289	ltpFR	15	n/a	n/a	n/a	n/a	n/a	n/a	n/a	n/a	n/a	n/a	n/a	n/a	n/a	n/a	n/a
1709.518	n/a	WORD	854759	wordpools/wasnorm_wordpool_less_exclusions.txt	LTP289	ltpFR	15	5	1	ROOM	1206	n/a	0	n/a	0	0	0	1	0.412841796875	0.57763671875	upper	../fonts/zerothre.ttf
1712.53	n/a	START	856265	n/a	LTP289	ltpFR	15	n/a	n/a	n/a	n/a	n/a	n/a	n/a	n/a	n/a	n/a	n/a	n/a	n/a	n/a	n/a
1713.4	n/a	PROB	856700	n/a	LTP289	ltpFR	15	n/a	n/a	n/a	n/a	n/a	n/a	17	6	6	5	n/a	n/a	n/a	n/a	n/a
1715.4	n/a	PROB	857700	n/a	LTP289	ltpFR	15	n/a	n/a	n/a	n/a	n/a	n/a	8	3	1	4	n/a	n/a	n/a	n/a	n/a
1717.29	n/a	PROB	858645	n/a	LTP289	ltpFR	15	n/a	n/a	n/a	n/a	n/a	n/a	8	1	4	3	n/a	n/a	n/a	n/a	n/a
1718.646	n/a	PROB	859323	n/a	LTP289	ltpFR	15	n/a	n/a	n/a	n/a	n/a	n/a	26	9	9	8	n/a	n/a	n/a	n/a	n/a
1720.184	n/a	STOP	860092	n/a	LTP289	ltpFR	15	n/a	n/a	n/a	n/a	n/a	n/a	n/a	n/a	n/a	n/a	n/a	n/a	n/a	n/a	n/a
1721.716	n/a	WORD	860858	wordpools/wasnorm_wordpool_less_exclusions.txt	LTP289	ltpFR	15	5	1	CAMEL	223	n/a	1	n/a	0	0	0	1	0.412841796875	0.57763671875	upper	../fonts/zerothre.ttf
1724.728	n/a	START	862364	n/a	LTP289	ltpFR	15	n/a	n/a	n/a	n/a	n/a	n/a	n/a	n/a	n/a	n/a	n/a	n/a	n/a	n/a	n/a
1725.564	n/a	PROB	862782	n/a	LTP289	ltpFR	15	n/a	n/a	n/a	n/a	n/a	n/a	12	3	8	1	n/a	n/a	n/a	n/a	n/a
1727.286	n/a	PROB	863643	n/a	LTP289	ltpFR	15	n/a	n/a	n/a	n/a	n/a	n/a	12	4	1	7	n/a	n/a	n/a	n/a	n/a
1729.128	n/a	PROB	864564	n/a	LTP289	ltpFR	15	n/a	n/a	n/a	n/a	n/a	n/a	9	4	4	1	n/a	n/a	n/a	n/a	n/a
1732.728	n/a	STOP	866364	n/a	LTP289	ltpFR	15	n/a	n/a	n/a	n/a	n/a	n/a	n/a	n/a	n/a	n/a	n/a	n/a	n/a	n/a	n/a
1733.61	n/a	WORD	866805	wordpools/wasnorm_wordpool_less_exclusions.txt	LTP289	ltpFR	15	5	1	BUTTER	205	n/a	0	n/a	0	0	0	1	0.412841796875	0.57763671875	upper	../fonts/zerothre.ttf
1736.622	n/a	START	868311	n/a	LTP289	ltpFR	15	n/a	n/a	n/a	n/a	n/a	n/a	n/a	n/a	n/a	n/a	n/a	n/a	n/a	n/a	n/a
1737.71	n/a	PROB	868855	n/a	LTP289	ltpFR	15	n/a	n/a	n/a	n/a	n/a	n/a	20	7	9	4	n/a	n/a	n/a	n/a	n/a
1740.096	n/a	PROB	870048	n/a	LTP289	ltpFR	15	n/a	n/a	n/a	n/a	n/a	n/a	10	2	1	7	n/a	n/a	n/a	n/a	n/a
1741.944	n/a	PROB	870972	n/a	LTP289	ltpFR	15	n/a	n/a	n/a	n/a	n/a	n/a	22	6	9	7	n/a	n/a	n/a	n/a	n/a
1744.394	n/a	STOP	872197	n/a	LTP289	ltpFR	15	n/a	n/a	n/a	n/a	n/a	n/a	n/a	n/a	n/a	n/a	n/a	n/a	n/a	n/a	n/a
1745.818	n/a	WORD	872909	wordpools/wasnorm_wordpool_less_exclusions.txt	LTP289	ltpFR	15	5	1	COD	340	n/a	1	n/a	0	0	0	1	0.412841796875	0.57763671875	upper	../fonts/zerothre.ttf
1748.83	n/a	START	874415	n/a	LTP289	ltpFR	15	n/a	n/a	n/a	n/a	n/a	n/a	n/a	n/a	n/a	n/a	n/a	n/a	n/a	n/a	n/a
1750.04	n/a	PROB	875020	n/a	LTP289	ltpFR	15	n/a	n/a	n/a	n/a	n/a	n/a	13	1	6	6	n/a	n/a	n/a	n/a	n/a
1751.874	n/a	PROB	875937	n/a	LTP289	ltpFR	15	n/a	n/a	n/a	n/a	n/a	n/a	18	3	7	8	n/a	n/a	n/a	n/a	n/a
1753.32	n/a	PROB	876660	n/a	LTP289	ltpFR	15	n/a	n/a	n/a	n/a	n/a	n/a	15	6	1	8	n/a	n/a	n/a	n/a	n/a
1756.828	n/a	STOP	878414	n/a	LTP289	ltpFR	15	n/a	n/a	n/a	n/a	n/a	n/a	n/a	n/a	n/a	n/a	n/a	n/a	n/a	n/a	n/a
1757.812	n/a	WORD	878906	wordpools/wasnorm_wordpool_less_exclusions.txt	LTP289	ltpFR	15	5	1	SHOE	1288	n/a	0	n/a	0	0	0	1	0.412841796875	0.57763671875	upper	../fonts/zerothre.ttf
1760.826	n/a	START	880413	n/a	LTP289	ltpFR	15	n/a	n/a	n/a	n/a	n/a	n/a	n/a	n/a	n/a	n/a	n/a	n/a	n/a	n/a	n/a
1761.996	n/a	PROB	880998	n/a	LTP289	ltpFR	15	n/a	n/a	n/a	n/a	n/a	n/a	14	5	2	7	n/a	n/a	n/a	n/a	n/a
1764.044	n/a	PROB	882022	n/a	LTP289	ltpFR	15	n/a	n/a	n/a	n/a	n/a	n/a	12	9	2	1	n/a	n/a	n/a	n/a	n/a
1765.35	n/a	PROB	882675	n/a	LTP289	ltpFR	15	n/a	n/a	n/a	n/a	n/a	n/a	13	9	1	3	n/a	n/a	n/a	n/a	n/a
1767.378	n/a	STOP	883689	n/a	LTP289	ltpFR	15	n/a	n/a	n/a	n/a	n/a	n/a	n/a	n/a	n/a	n/a	n/a	n/a	n/a	n/a	n/a
1770.704	n/a	REC_START	885352	n/a	LTP289	ltpFR	15	5	n/a	n/a	n/a	n/a	n/a	n/a	0	0	0	n/a	n/a	n/a	n/a	n/a
1772.042	n/a	REC_WORD	886021	wordpools/wasnorm_wordpool_less_exclusions.txt	LTP289	ltpFR	15	5	1	COD	340	n/a	1	n/a	0	0	0	n/a	n/a	n/a	n/a	n/a
1772.74	n/a	REC_WORD	886370	wordpools/wasnorm_wordpool_less_exclusions.txt	LTP289	ltpFR	15	5	1	SKATE	1313	n/a	0	n/a	0	0	0	n/a	n/a	n/a	n/a	n/a
1773.794	n/a	REC_WORD	886897	wordpools/wasnorm_wordpool_less_exclusions.txt	LTP289	ltpFR	15	5	1	CAMEL	223	n/a	1	n/a	0	0	0	n/a	n/a	n/a	n/a	n/a
1775.892	n/a	REC_WORD	887946	wordpools/wasnorm_wordpool_less_exclusions.txt	LTP289	ltpFR	15	5	1	SHOE	1288	n/a	0	n/a	0	0	0	n/a	n/a	n/a	n/a	n/a
1777.926	n/a	REC_WORD	888963	wordpools/wasnorm_wordpool_less_exclusions.txt	LTP289	ltpFR	15	5	1	GYMNAST	675	n/a	1	n/a	0	0	0	n/a	n/a	n/a	n/a	n/a
1779.23	n/a	REC_WORD	889615	wordpools/wasnorm_wordpool_less_exclusions.txt	LTP289	ltpFR	15	5	1	BIKE	125	n/a	0	n/a	0	0	0	n/a	n/a	n/a	n/a	n/a
1782.058	n/a	REC_WORD	891029	wordpools/wasnorm_wordpool_less_exclusions.txt	LTP289	ltpFR	15	5	1	TOWN	1491	n/a	0	n/a	0	0	0	n/a	n/a	n/a	n/a	n/a
1782.808	n/a	REC_WORD	891404	wordpools/wasnorm_wordpool_less_exclusions.txt	LTP289	ltpFR	15	5	1	COMMUNITY	356	n/a	1	n/a	0	0	0	n/a	n/a	n/a	n/a	n/a
1784.22	n/a	REC_WORD	892110	wordpools/wasnorm_wordpool_less_exclusions.txt	LTP289	ltpFR	15	5	1	BANK	83	n/a	0	n/a	0	0	0	n/a	n/a	n/a	n/a	n/a
1785.38	n/a	REC_WORD	892690	wordpools/wasnorm_wordpool_less_exclusions.txt	LTP289	ltpFR	15	5	1	DOLLAR	482	n/a	0	n/a	0	0	0	n/a	n/a	n/a	n/a	n/a
1786.564	n/a	REC_WORD	893282	wordpools/wasnorm_wordpool_less_exclusions.txt	LTP289	ltpFR	15	5	1	WOLF	1619	n/a	1	n/a	0	0	0	n/a	n/a	n/a	n/a	n/a
1787.684	n/a	REC_WORD	893842	wordpools/wasnorm_wordpool_less_exclusions.txt	LTP289	ltpFR	15	5	1	LOAF	835	n/a	0	n/a	0	0	0	n/a	n/a	n/a	n/a	n/a
1795.314	n/a	REC_WORD	897657	wordpools/wasnorm_wordpool_less_exclusions.txt	LTP289	ltpFR	15	5	1	OCTOPUS	971	n/a	1	n/a	0	0	0	n/a	n/a	n/a	n/a	n/a
1796.69	n/a	REC_WORD	898345	wordpools/wasnorm_wordpool_less_exclusions.txt	LTP289	ltpFR	15	5	1	VAMPIRE	1547	n/a	1	n/a	0	0	0	n/a	n/a	n/a	n/a	n/a
1829.21	n/a	REC_WORD	914605	wordpools/wasnorm_wordpool_less_exclusions.txt	LTP289	ltpFR	15	5	1	COD	340	n/a	1	n/a	0	0	0	n/a	n/a	n/a	n/a	n/a
1892.276	n/a	WORD	946138	wordpools/wasnorm_wordpool_less_exclusions.txt	LTP289	ltpFR	15	6	0	SCARF	1246	n/a	0	n/a	0	0	0	0	0.5869140625	0.422607421875	lower	../fonts/amplitud.ttf
1896.142	n/a	WORD	948071	wordpools/wasnorm_wordpool_less_exclusions.txt	LTP289	ltpFR	15	6	0	ZEBRA	1635	n/a	1	n/a	0	0	0	0	0.5869140625	0.422607421875	lower	../fonts/amplitud.ttf
1900.308	n/a	WORD	950154	wordpools/wasnorm_wordpool_less_exclusions.txt	LTP289	ltpFR	15	6	0	HOOP	716	n/a	0	n/a	0	0	0	0	0.5869140625	0.422607421875	lower	../fonts/amplitud.ttf
1904.356	n/a	WORD	952178	wordpools/wasnorm_wordpool_less_exclusions.txt	LTP289	ltpFR	15	6	0	BREAD	170	n/a	0	n/a	0	0	0	0	0.5869140625	0.422607421875	lower	../fonts/amplitud.ttf
1908.53	n/a	WORD	954265	wordpools/wasnorm_wordpool_less_exclusions.txt	LTP289	ltpFR	15	6	0	PUPPY	1144	n/a	0	n/a	0	0	0	0	0.5869140625	0.422607421875	lower	../fonts/amplitud.ttf
1912.638	n/a	WORD	956319	wordpools/wasnorm_wordpool_less_exclusions.txt	LTP289	ltpFR	15	6	0	VACUUM	1543	n/a	1	n/a	0	0	0	0	0.5869140625	0.422607421875	lower	../fonts/amplitud.ttf
1916.654	n/a	WORD	958327	wordpools/wasnorm_wordpool_less_exclusions.txt	LTP289	ltpFR	15	6	0	TUB	1514	n/a	1	n/a	0	0	0	0	0.5869140625	0.422607421875	lower	../fonts/amplitud.ttf
1920.592	n/a	WORD	960296	wordpools/wasnorm_wordpool_less_exclusions.txt	LTP289	ltpFR	15	6	0	COUNTRY	388	n/a	1	n/a	0	0	0	0	0.5869140625	0.422607421875	lower	../fonts/amplitud.ttf
1924.776	n/a	WORD	962388	wordpools/wasnorm_wordpool_less_exclusions.txt	LTP289	ltpFR	15	6	0	MARGARINE	868	n/a	0	n/a	0	0	0	0	0.5869140625	0.422607421875	lower	../fonts/amplitud.ttf
1928.64	n/a	WORD	964320	wordpools/wasnorm_wordpool_less_exclusions.txt	LTP289	ltpFR	15	6	0	ACROBAT	4	n/a	1	n/a	0	0	0	0	0.5869140625	0.422607421875	lower	../fonts/amplitud.ttf
1932.75	n/a	WORD	966375	wordpools/wasnorm_wordpool_less_exclusions.txt	LTP289	ltpFR	15	6	0	CIRCUS	311	n/a	1	n/a	0	0	0	0	0.5869140625	0.422607421875	lower	../fonts/amplitud.ttf
1936.636	n/a	WORD	968318	wordpools/wasnorm_wordpool_less_exclusions.txt	LTP289	ltpFR	15	6	0	CITIZEN	312	n/a	1	n/a	0	0	0	0	0.5869140625	0.422607421875	lower	../fonts/amplitud.ttf
1940.484	n/a	WORD	970242	wordpools/wasnorm_wordpool_less_exclusions.txt	LTP289	ltpFR	15	6	0	RASPBERRY	1168	n/a	0	n/a	0	0	0	0	0.5869140625	0.422607421875	lower	../fonts/amplitud.ttf
1944.634	n/a	WORD	972317	wordpools/wasnorm_wordpool_less_exclusions.txt	LTP289	ltpFR	15	6	0	KITCHEN	778	n/a	1	n/a	0	0	0	0	0.5869140625	0.422607421875	lower	../fonts/amplitud.ttf
1948.626	n/a	WORD	974313	wordpools/wasnorm_wordpool_less_exclusions.txt	LTP289	ltpFR	15	6	0	CABINET	212	n/a	1	n/a	0	0	0	0	0.5869140625	0.422607421875	lower	../fonts/amplitud.ttf
1952.758	n/a	WORD	976379	wordpools/wasnorm_wordpool_less_exclusions.txt	LTP289	ltpFR	15	6	0	GEM	629	n/a	0	n/a	0	0	0	0	0.5869140625	0.422607421875	lower	../fonts/amplitud.ttf
1958.648	n/a	REC_START	979324	n/a	LTP289	ltpFR	15	6	n/a	n/a	n/a	n/a	n/a	n/a	0	0	0	n/a	n/a	n/a	n/a	n/a
1959.78	n/a	REC_WORD	979890	wordpools/wasnorm_wordpool_less_exclusions.txt	LTP289	ltpFR	15	6	0	GEM	629	n/a	0	n/a	0	0	0	n/a	n/a	n/a	n/a	n/a
1960.68	n/a	REC_WORD	980340	wordpools/wasnorm_wordpool_less_exclusions.txt	LTP289	ltpFR	15	6	0	ACROBAT	4	n/a	1	n/a	0	0	0	n/a	n/a	n/a	n/a	n/a
1961.76	n/a	REC_WORD	980880	wordpools/wasnorm_wordpool_less_exclusions.txt	LTP289	ltpFR	15	6	0	CIRCUS	311	n/a	1	n/a	0	0	0	n/a	n/a	n/a	n/a	n/a
1963.058	n/a	REC_WORD	981529	wordpools/wasnorm_wordpool_less_exclusions.txt	LTP289	ltpFR	15	6	0	COUNTRY	388	n/a	1	n/a	0	0	0	n/a	n/a	n/a	n/a	n/a
1979.112	n/a	REC_WORD	989556	wordpools/wasnorm_wordpool_less_exclusions.txt	LTP289	ltpFR	15	6	0	ZEBRA	1635	n/a	1	n/a	0	0	0	n/a	n/a	n/a	n/a	n/a
1980.224	n/a	REC_WORD	990112	wordpools/wasnorm_wordpool_less_exclusions.txt	LTP289	ltpFR	15	6	0	SCARF	1246	n/a	0	n/a	0	0	0	n/a	n/a	n/a	n/a	n/a
1981.248	n/a	REC_WORD	990624	wordpools/wasnorm_wordpool_less_exclusions.txt	LTP289	ltpFR	15	6	0	HOOP	716	n/a	0	n/a	0	0	0	n/a	n/a	n/a	n/a	n/a
1982.676	n/a	REC_WORD	991338	wordpools/wasnorm_wordpool_less_exclusions.txt	LTP289	ltpFR	15	6	0	BREAD	170	n/a	0	n/a	0	0	0	n/a	n/a	n/a	n/a	n/a
1986.154	n/a	REC_WORD	993077	wordpools/wasnorm_wordpool_less_exclusions.txt	LTP289	ltpFR	15	6	0	KITCHEN	778	n/a	1	n/a	0	0	0	n/a	n/a	n/a	n/a	n/a
1991.214	n/a	REC_WORD	995607	wordpools/wasnorm_wordpool_less_exclusions.txt	LTP289	ltpFR	15	6	0	CABINET	212	n/a	1	n/a	0	0	0	n/a	n/a	n/a	n/a	n/a
2034.302	n/a	REST_REWET	1017151	n/a	LTP289	ltpFR	15	6	n/a	n/a	n/a	n/a	n/a	n/a	0	0	0	n/a	n/a	n/a	n/a	n/a
2456.632	n/a	WORD	1228316	wordpools/wasnorm_wordpool_less_exclusions.txt	LTP289	ltpFR	15	7	0	SHORTS	1293	n/a	0	n/a	0	0	0	0	0.5869140625	0.422607421875	lower	../fonts/amplitud.ttf
2460.69	n/a	WORD	1230345	wordpools/wasnorm_wordpool_less_exclusions.txt	LTP289	ltpFR	15	7	0	LETTUCE	814	n/a	0	n/a	0	0	0	0	0.5869140625	0.422607421875	lower	../fonts/amplitud.ttf
2464.824	n/a	WORD	1232412	wordpools/wasnorm_wordpool_less_exclusions.txt	LTP289	ltpFR	15	7	0	PRUNE	1134	n/a	0	n/a	0	0	0	0	0.5869140625	0.422607421875	lower	../fonts/amplitud.ttf
2468.956	n/a	WORD	1234478	wordpools/wasnorm_wordpool_less_exclusions.txt	LTP289	ltpFR	15	7	0	COMPUTER	359	n/a	0	n/a	0	0	0	0	0.5869140625	0.422607421875	lower	../fonts/amplitud.ttf
2473.104	n/a	WORD	1236552	wordpools/wasnorm_wordpool_less_exclusions.txt	LTP289	ltpFR	15	7	0	CAFE	216	n/a	1	n/a	0	0	0	0	0.5869140625	0.422607421875	lower	../fonts/amplitud.ttf
2477.018	n/a	WORD	1238509	wordpools/wasnorm_wordpool_less_exclusions.txt	LTP289	ltpFR	15	7	0	HOUND	724	n/a	1	n/a	0	0	0	0	0.5869140625	0.422607421875	lower	../fonts/amplitud.ttf
2481.076	n/a	WORD	1240538	wordpools/wasnorm_wordpool_less_exclusions.txt	LTP289	ltpFR	15	7	0	BLADE	134	n/a	0	n/a	0	0	0	0	0.5869140625	0.422607421875	lower	../fonts/amplitud.ttf
2484.942	n/a	WORD	1242471	wordpools/wasnorm_wordpool_less_exclusions.txt	LTP289	ltpFR	15	7	0	OUTLAW	989	n/a	1	n/a	0	0	0	0	0.5869140625	0.422607421875	lower	../fonts/amplitud.ttf
2489.14	n/a	WORD	1244570	wordpools/wasnorm_wordpool_less_exclusions.txt	LTP289	ltpFR	15	7	0	POTATO	1115	n/a	0	n/a	0	0	0	0	0.5869140625	0.422607421875	lower	../fonts/amplitud.ttf
2493.146	n/a	WORD	1246573	wordpools/wasnorm_wordpool_less_exclusions.txt	LTP289	ltpFR	15	7	0	TECHNICIAN	1443	n/a	1	n/a	0	0	0	0	0.5869140625	0.422607421875	lower	../fonts/amplitud.ttf
2497.262	n/a	WORD	1248631	wordpools/wasnorm_wordpool_less_exclusions.txt	LTP289	ltpFR	15	7	0	FLEA	577	n/a	0	n/a	0	0	0	0	0.5869140625	0.422607421875	lower	../fonts/amplitud.ttf
2501.37	n/a	WORD	1250685	wordpools/wasnorm_wordpool_less_exclusions.txt	LTP289	ltpFR	15	7	0	SCALLOP	1242	n/a	0	n/a	0	0	0	0	0.5869140625	0.422607421875	lower	../fonts/amplitud.ttf
2505.486	n/a	WORD	1252743	wordpools/wasnorm_wordpool_less_exclusions.txt	LTP289	ltpFR	15	7	0	STEREO	1378	n/a	1	n/a	0	0	0	0	0.5869140625	0.422607421875	lower	../fonts/amplitud.ttf
2509.358	n/a	WORD	1254679	wordpools/wasnorm_wordpool_less_exclusions.txt	LTP289	ltpFR	15	7	0	CONCERT	360	n/a	1	n/a	0	0	0	0	0.5869140625	0.422607421875	lower	../fonts/amplitud.ttf
2513.266	n/a	WORD	1256633	wordpools/wasnorm_wordpool_less_exclusions.txt	LTP289	ltpFR	15	7	0	TURNIP	1521	n/a	0	n/a	0	0	0	0	0.5869140625	0.422607421875	lower	../fonts/amplitud.ttf
2517.198	n/a	WORD	1258599	wordpools/wasnorm_wordpool_less_exclusions.txt	LTP289	ltpFR	15	7	0	BROCCOLI	176	n/a	0	n/a	0	0	0	0	0.5869140625	0.422607421875	lower	../fonts/amplitud.ttf
2520.21	n/a	START	1260105	n/a	LTP289	ltpFR	15	n/a	n/a	n/a	n/a	n/a	n/a	n/a	n/a	n/a	n/a	n/a	n/a	n/a	n/a	n/a
2521.03	n/a	PROB	1260515	n/a	LTP289	ltpFR	15	n/a	n/a	n/a	n/a	n/a	n/a	18	8	8	2	n/a	n/a	n/a	n/a	n/a
2522.778	n/a	PROB	1261389	n/a	LTP289	ltpFR	15	n/a	n/a	n/a	n/a	n/a	n/a	19	4	6	9	n/a	n/a	n/a	n/a	n/a
2524.198	n/a	PROB	1262099	n/a	LTP289	ltpFR	15	n/a	n/a	n/a	n/a	n/a	n/a	9	5	3	1	n/a	n/a	n/a	n/a	n/a
2525.948	n/a	PROB	1262974	n/a	LTP289	ltpFR	15	n/a	n/a	n/a	n/a	n/a	n/a	8	4	3	1	n/a	n/a	n/a	n/a	n/a
2528.148	n/a	PROB	1264074	n/a	LTP289	ltpFR	15	n/a	n/a	n/a	n/a	n/a	n/a	11	5	4	4	n/a	n/a	n/a	n/a	n/a
2530.398	n/a	PROB	1265199	n/a	LTP289	ltpFR	15	n/a	n/a	n/a	n/a	n/a	n/a	19	1	9	9	n/a	n/a	n/a	n/a	n/a
2533.066	n/a	PROB	1266533	n/a	LTP289	ltpFR	15	n/a	n/a	n/a	n/a	n/a	n/a	13	7	5	1	n/a	n/a	n/a	n/a	n/a
2534.812	n/a	STOP	1267406	n/a	LTP289	ltpFR	15	n/a	n/a	n/a	n/a	n/a	n/a	n/a	n/a	n/a	n/a	n/a	n/a	n/a	n/a	n/a
2538.104	n/a	REC_START	1269052	n/a	LTP289	ltpFR	15	7	n/a	n/a	n/a	n/a	n/a	n/a	0	0	0	n/a	n/a	n/a	n/a	n/a
2539.448	n/a	REC_WORD	1269724	wordpools/wasnorm_wordpool_less_exclusions.txt	LTP289	ltpFR	15	7	0	LETTUCE	814	n/a	0	n/a	0	0	0	n/a	n/a	n/a	n/a	n/a
2540.234	n/a	REC_WORD	1270117	wordpools/wasnorm_wordpool_less_exclusions.txt	LTP289	ltpFR	15	7	0	SHORTS	1293	n/a	0	n/a	0	0	0	n/a	n/a	n/a	n/a	n/a
2541.508	n/a	REC_WORD	1270754	wordpools/wasnorm_wordpool_less_exclusions.txt	LTP289	ltpFR	15	7	0	PRUNE	1134	n/a	0	n/a	0	0	0	n/a	n/a	n/a	n/a	n/a
2543.774	n/a	REC_WORD	1271887	wordpools/wasnorm_wordpool_less_exclusions.txt	LTP289	ltpFR	15	7	0	COMPUTER	359	n/a	0	n/a	0	0	0	n/a	n/a	n/a	n/a	n/a
2544.784	n/a	REC_WORD	1272392	wordpools/wasnorm_wordpool_less_exclusions.txt	LTP289	ltpFR	15	7	0	CAFE	216	n/a	1	n/a	0	0	0	n/a	n/a	n/a	n/a	n/a
2546.14	n/a	REC_WORD	1273070	wordpools/wasnorm_wordpool_less_exclusions.txt	LTP289	ltpFR	15	7	0	TURNIP	1521	n/a	0	n/a	0	0	0	n/a	n/a	n/a	n/a	n/a
2546.938	n/a	REC_WORD	1273469	wordpools/wasnorm_wordpool_less_exclusions.txt	LTP289	ltpFR	15	7	0	SCALLOP	1242	n/a	0	n/a	0	0	0	n/a	n/a	n/a	n/a	n/a
2548.712	n/a	REC_WORD	1274356	wordpools/wasnorm_wordpool_less_exclusions.txt	LTP289	ltpFR	15	7	0	HOUND	724	n/a	1	n/a	0	0	0	n/a	n/a	n/a	n/a	n/a
2550.014	n/a	REC_WORD	1275007	wordpools/wasnorm_wordpool_less_exclusions.txt	LTP289	ltpFR	15	7	0	BLADE	134	n/a	0	n/a	0	0	0	n/a	n/a	n/a	n/a	n/a
2595.468	n/a	REC_WORD	1297734	wordpools/wasnorm_wordpool_less_exclusions.txt	LTP289	ltpFR	15	7	0	TECHNICIAN	1443	n/a	1	n/a	0	0	0	n/a	n/a	n/a	n/a	n/a
2658.428	n/a	START	1329214	n/a	LTP289	ltpFR	15	n/a	n/a	n/a	n/a	n/a	n/a	n/a	n/a	n/a	n/a	n/a	n/a	n/a	n/a	n/a
2659.944	n/a	PROB	1329972	n/a	LTP289	ltpFR	15	n/a	n/a	n/a	n/a	n/a	n/a	9	1	2	6	n/a	n/a	n/a	n/a	n/a
2662.452	n/a	PROB	1331226	n/a	LTP289	ltpFR	15	n/a	n/a	n/a	n/a	n/a	n/a	6	2	3	1	n/a	n/a	n/a	n/a	n/a
2663.91	n/a	PROB	1331955	n/a	LTP289	ltpFR	15	n/a	n/a	n/a	n/a	n/a	n/a	21	9	6	6	n/a	n/a	n/a	n/a	n/a
2665.354	n/a	STOP	1332677	n/a	LTP289	ltpFR	15	n/a	n/a	n/a	n/a	n/a	n/a	n/a	n/a	n/a	n/a	n/a	n/a	n/a	n/a	n/a
2667.612	n/a	WORD	1333806	wordpools/wasnorm_wordpool_less_exclusions.txt	LTP289	ltpFR	15	8	0	PREACHER	1119	n/a	1	n/a	0	0	0	0	0.5869140625	0.422607421875	lower	../fonts/amplitud.ttf
2670.626	n/a	START	1335313	n/a	LTP289	ltpFR	15	n/a	n/a	n/a	n/a	n/a	n/a	n/a	n/a	n/a	n/a	n/a	n/a	n/a	n/a	n/a
2671.546	n/a	PROB	1335773	n/a	LTP289	ltpFR	15	n/a	n/a	n/a	n/a	n/a	n/a	21	8	5	8	n/a	n/a	n/a	n/a	n/a
2673.536	n/a	PROB	1336768	n/a	LTP289	ltpFR	15	n/a	n/a	n/a	n/a	n/a	n/a	16	6	2	8	n/a	n/a	n/a	n/a	n/a
2675.218	n/a	PROB	1337609	n/a	LTP289	ltpFR	15	n/a	n/a	n/a	n/a	n/a	n/a	19	4	9	6	n/a	n/a	n/a	n/a	n/a
2677.138	n/a	STOP	1338569	n/a	LTP289	ltpFR	15	n/a	n/a	n/a	n/a	n/a	n/a	n/a	n/a	n/a	n/a	n/a	n/a	n/a	n/a	n/a
2679.458	n/a	WORD	1339729	wordpools/wasnorm_wordpool_less_exclusions.txt	LTP289	ltpFR	15	8	0	CONE	363	n/a	0	n/a	0	0	0	0	0.5869140625	0.422607421875	lower	../fonts/amplitud.ttf
2682.47	n/a	START	1341235	n/a	LTP289	ltpFR	15	n/a	n/a	n/a	n/a	n/a	n/a	n/a	n/a	n/a	n/a	n/a	n/a	n/a	n/a	n/a
2683.316	n/a	PROB	1341658	n/a	LTP289	ltpFR	15	n/a	n/a	n/a	n/a	n/a	n/a	19	7	6	6	n/a	n/a	n/a	n/a	n/a
2686.746	n/a	PROB	1343373	n/a	LTP289	ltpFR	15	n/a	n/a	n/a	n/a	n/a	n/a	17	6	3	8	n/a	n/a	n/a	n/a	n/a
2688.762	n/a	PROB	1344381	n/a	LTP289	ltpFR	15	n/a	n/a	n/a	n/a	n/a	n/a	16	1	6	9	n/a	n/a	n/a	n/a	n/a
2689.956	n/a	STOP	1344978	n/a	LTP289	ltpFR	15	n/a	n/a	n/a	n/a	n/a	n/a	n/a	n/a	n/a	n/a	n/a	n/a	n/a	n/a	n/a
2691.548	n/a	WORD	1345774	wordpools/wasnorm_wordpool_less_exclusions.txt	LTP289	ltpFR	15	8	1	PELT	1040	n/a	0	n/a	0	0	0	1	0.412841796875	0.57763671875	upper	../fonts/zerothre.ttf
2694.56	n/a	START	1347280	n/a	LTP289	ltpFR	15	n/a	n/a	n/a	n/a	n/a	n/a	n/a	n/a	n/a	n/a	n/a	n/a	n/a	n/a	n/a
2695.454	n/a	PROB	1347727	n/a	LTP289	ltpFR	15	n/a	n/a	n/a	n/a	n/a	n/a	17	4	7	6	n/a	n/a	n/a	n/a	n/a
2697.914	n/a	PROB	1348957	n/a	LTP289	ltpFR	15	n/a	n/a	n/a	n/a	n/a	n/a	23	7	7	9	n/a	n/a	n/a	n/a	n/a
2700.12	n/a	PROB	1350060	n/a	LTP289	ltpFR	15	n/a	n/a	n/a	n/a	n/a	n/a	8	3	3	2	n/a	n/a	n/a	n/a	n/a
2701.9	n/a	STOP	1350950	n/a	LTP289	ltpFR	15	n/a	n/a	n/a	n/a	n/a	n/a	n/a	n/a	n/a	n/a	n/a	n/a	n/a	n/a	n/a
2703.694	n/a	WORD	1351847	wordpools/wasnorm_wordpool_less_exclusions.txt	LTP289	ltpFR	15	8	1	PRIEST	1122	n/a	1	n/a	0	0	0	1	0.412841796875	0.57763671875	upper	../fonts/zerothre.ttf
2706.706	n/a	START	1353353	n/a	LTP289	ltpFR	15	n/a	n/a	n/a	n/a	n/a	n/a	n/a	n/a	n/a	n/a	n/a	n/a	n/a	n/a	n/a
2707.676	n/a	PROB	1353838	n/a	LTP289	ltpFR	15	n/a	n/a	n/a	n/a	n/a	n/a	12	1	2	9	n/a	n/a	n/a	n/a	n/a
2709.984	n/a	PROB	1354992	n/a	LTP289	ltpFR	15	n/a	n/a	n/a	n/a	n/a	n/a	22	9	8	5	n/a	n/a	n/a	n/a	n/a
2711.716	n/a	PROB	1355858	n/a	LTP289	ltpFR	15	n/a	n/a	n/a	n/a	n/a	n/a	16	7	4	5	n/a	n/a	n/a	n/a	n/a
2713.188	n/a	STOP	1356594	n/a	LTP289	ltpFR	15	n/a	n/a	n/a	n/a	n/a	n/a	n/a	n/a	n/a	n/a	n/a	n/a	n/a	n/a	n/a
2715.782	n/a	WORD	1357891	wordpools/wasnorm_wordpool_less_exclusions.txt	LTP289	ltpFR	15	8	0	CARROT	249	n/a	0	n/a	0	0	0	0	0.5869140625	0.422607421875	lower	../fonts/amplitud.ttf
2718.794	n/a	START	1359397	n/a	LTP289	ltpFR	15	n/a	n/a	n/a	n/a	n/a	n/a	n/a	n/a	n/a	n/a	n/a	n/a	n/a	n/a	n/a
2719.73	n/a	PROB	1359865	n/a	LTP289	ltpFR	15	n/a	n/a	n/a	n/a	n/a	n/a	18	6	5	7	n/a	n/a	n/a	n/a	n/a
2722.952	n/a	PROB	1361476	n/a	LTP289	ltpFR	15	n/a	n/a	n/a	n/a	n/a	n/a	12	4	4	4	n/a	n/a	n/a	n/a	n/a
2724.162	n/a	PROB	1362081	n/a	LTP289	ltpFR	15	n/a	n/a	n/a	n/a	n/a	n/a	14	5	5	4	n/a	n/a	n/a	n/a	n/a
2725.428	n/a	STOP	1362714	n/a	LTP289	ltpFR	15	n/a	n/a	n/a	n/a	n/a	n/a	n/a	n/a	n/a	n/a	n/a	n/a	n/a	n/a	n/a
2727.878	n/a	WORD	1363939	wordpools/wasnorm_wordpool_less_exclusions.txt	LTP289	ltpFR	15	8	0	PORCUPINE	1107	n/a	1	n/a	0	0	0	0	0.5869140625	0.422607421875	lower	../fonts/amplitud.ttf
2730.89	n/a	START	1365445	n/a	LTP289	ltpFR	15	n/a	n/a	n/a	n/a	n/a	n/a	n/a	n/a	n/a	n/a	n/a	n/a	n/a	n/a	n/a
2731.786	n/a	PROB	1365893	n/a	LTP289	ltpFR	15	n/a	n/a	n/a	n/a	n/a	n/a	12	5	5	2	n/a	n/a	n/a	n/a	n/a
2732.848	n/a	PROB	1366424	n/a	LTP289	ltpFR	15	n/a	n/a	n/a	n/a	n/a	n/a	14	4	1	9	n/a	n/a	n/a	n/a	n/a
2734.06	n/a	PROB	1367030	n/a	LTP289	ltpFR	15	n/a	n/a	n/a	n/a	n/a	n/a	19	3	8	8	n/a	n/a	n/a	n/a	n/a
2736.192	n/a	PROB	1368096	n/a	LTP289	ltpFR	15	n/a	n/a	n/a	n/a	n/a	n/a	12	3	4	5	n/a	n/a	n/a	n/a	n/a
2737.99	n/a	STOP	1368995	n/a	LTP289	ltpFR	15	n/a	n/a	n/a	n/a	n/a	n/a	n/a	n/a	n/a	n/a	n/a	n/a	n/a	n/a	n/a
2740.106	n/a	WORD	1370053	wordpools/wasnorm_wordpool_less_exclusions.txt	LTP289	ltpFR	15	8	1	COIN	343	n/a	0	n/a	0	0	0	1	0.412841796875	0.57763671875	upper	../fonts/zerothre.ttf
2743.118	n/a	START	1371559	n/a	LTP289	ltpFR	15	n/a	n/a	n/a	n/a	n/a	n/a	n/a	n/a	n/a	n/a	n/a	n/a	n/a	n/a	n/a
2744.188	n/a	PROB	1372094	n/a	LTP289	ltpFR	15	n/a	n/a	n/a	n/a	n/a	n/a	13	3	3	7	n/a	n/a	n/a	n/a	n/a
2745.638	n/a	PROB	1372819	n/a	LTP289	ltpFR	15	n/a	n/a	n/a	n/a	n/a	n/a	7	2	3	2	n/a	n/a	n/a	n/a	n/a
2747.628	n/a	PROB	1373814	n/a	LTP289	ltpFR	15	n/a	n/a	n/a	n/a	n/a	n/a	15	4	4	7	n/a	n/a	n/a	n/a	n/a
2749.606	n/a	STOP	1374803	n/a	LTP289	ltpFR	15	n/a	n/a	n/a	n/a	n/a	n/a	n/a	n/a	n/a	n/a	n/a	n/a	n/a	n/a	n/a
2752.296	n/a	WORD	1376148	wordpools/wasnorm_wordpool_less_exclusions.txt	LTP289	ltpFR	15	8	1	AGENT	10	n/a	1	n/a	0	0	0	1	0.412841796875	0.57763671875	upper	../fonts/zerothre.ttf
2755.308	n/a	START	1377654	n/a	LTP289	ltpFR	15	n/a	n/a	n/a	n/a	n/a	n/a	n/a	n/a	n/a	n/a	n/a	n/a	n/a	n/a	n/a
2756.436	n/a	PROB	1378218	n/a	LTP289	ltpFR	15	n/a	n/a	n/a	n/a	n/a	n/a	19	7	8	4	n/a	n/a	n/a	n/a	n/a
2758.856	n/a	PROB	1379428	n/a	LTP289	ltpFR	15	n/a	n/a	n/a	n/a	n/a	n/a	10	1	5	4	n/a	n/a	n/a	n/a	n/a
2760.946	n/a	PROB	1380473	n/a	LTP289	ltpFR	15	n/a	n/a	n/a	n/a	n/a	n/a	9	1	4	4	n/a	n/a	n/a	n/a	n/a
2762.606	n/a	STOP	1381303	n/a	LTP289	ltpFR	15	n/a	n/a	n/a	n/a	n/a	n/a	n/a	n/a	n/a	n/a	n/a	n/a	n/a	n/a	n/a
2764.334	n/a	WORD	1382167	wordpools/wasnorm_wordpool_less_exclusions.txt	LTP289	ltpFR	15	8	1	FENCE	560	n/a	0	n/a	0	0	0	1	0.412841796875	0.57763671875	upper	../fonts/zerothre.ttf
2767.346	n/a	START	1383673	n/a	LTP289	ltpFR	15	n/a	n/a	n/a	n/a	n/a	n/a	n/a	n/a	n/a	n/a	n/a	n/a	n/a	n/a	n/a
2768.482	n/a	PROB	1384241	n/a	LTP289	ltpFR	15	n/a	n/a	n/a	n/a	n/a	n/a	16	7	5	4	n/a	n/a	n/a	n/a	n/a
2770.506	n/a	PROB	1385253	n/a	LTP289	ltpFR	15	n/a	n/a	n/a	n/a	n/a	n/a	16	1	9	6	n/a	n/a	n/a	n/a	n/a
2771.93	n/a	PROB	1385965	n/a	LTP289	ltpFR	15	n/a	n/a	n/a	n/a	n/a	n/a	22	9	6	7	n/a	n/a	n/a	n/a	n/a
2773.968	n/a	STOP	1386984	n/a	LTP289	ltpFR	15	n/a	n/a	n/a	n/a	n/a	n/a	n/a	n/a	n/a	n/a	n/a	n/a	n/a	n/a	n/a
2776.564	n/a	WORD	1388282	wordpools/wasnorm_wordpool_less_exclusions.txt	LTP289	ltpFR	15	8	1	MAT	877	n/a	0	n/a	0	0	0	1	0.412841796875	0.57763671875	upper	../fonts/zerothre.ttf
2779.574	n/a	START	1389787	n/a	LTP289	ltpFR	15	n/a	n/a	n/a	n/a	n/a	n/a	n/a	n/a	n/a	n/a	n/a	n/a	n/a	n/a	n/a
2780.604	n/a	PROB	1390302	n/a	LTP289	ltpFR	15	n/a	n/a	n/a	n/a	n/a	n/a	24	7	8	9	n/a	n/a	n/a	n/a	n/a
2784.956	n/a	PROB	1392478	n/a	LTP289	ltpFR	15	n/a	n/a	n/a	n/a	n/a	n/a	15	7	4	4	n/a	n/a	n/a	n/a	n/a
2787.392	n/a	STOP	1393696	n/a	LTP289	ltpFR	15	n/a	n/a	n/a	n/a	n/a	n/a	n/a	n/a	n/a	n/a	n/a	n/a	n/a	n/a	n/a
2788.592	n/a	WORD	1394296	wordpools/wasnorm_wordpool_less_exclusions.txt	LTP289	ltpFR	15	8	1	PRODUCER	1129	n/a	1	n/a	0	0	0	1	0.412841796875	0.57763671875	upper	../fonts/zerothre.ttf
2791.604	n/a	START	1395802	n/a	LTP289	ltpFR	15	n/a	n/a	n/a	n/a	n/a	n/a	n/a	n/a	n/a	n/a	n/a	n/a	n/a	n/a	n/a
2792.584	n/a	PROB	1396292	n/a	LTP289	ltpFR	15	n/a	n/a	n/a	n/a	n/a	n/a	20	5	7	8	n/a	n/a	n/a	n/a	n/a
2795.996	n/a	PROB	1397998	n/a	LTP289	ltpFR	15	n/a	n/a	n/a	n/a	n/a	n/a	10	4	2	4	n/a	n/a	n/a	n/a	n/a
2799.604	n/a	STOP	1399802	n/a	LTP289	ltpFR	15	n/a	n/a	n/a	n/a	n/a	n/a	n/a	n/a	n/a	n/a	n/a	n/a	n/a	n/a	n/a
2800.572	n/a	WORD	1400286	wordpools/wasnorm_wordpool_less_exclusions.txt	LTP289	ltpFR	15	8	1	WATER	1594	n/a	0	n/a	0	0	0	1	0.412841796875	0.57763671875	upper	../fonts/zerothre.ttf
2803.584	n/a	START	1401792	n/a	LTP289	ltpFR	15	n/a	n/a	n/a	n/a	n/a	n/a	n/a	n/a	n/a	n/a	n/a	n/a	n/a	n/a	n/a
2804.53	n/a	PROB	1402265	n/a	LTP289	ltpFR	15	n/a	n/a	n/a	n/a	n/a	n/a	8	2	4	2	n/a	n/a	n/a	n/a	n/a
2807.114	n/a	PROB	1403557	n/a	LTP289	ltpFR	15	n/a	n/a	n/a	n/a	n/a	n/a	23	8	6	9	n/a	n/a	n/a	n/a	n/a
2809.248	n/a	PROB	1404624	n/a	LTP289	ltpFR	15	n/a	n/a	n/a	n/a	n/a	n/a	16	6	7	3	n/a	n/a	n/a	n/a	n/a
2811.05	n/a	STOP	1405525	n/a	LTP289	ltpFR	15	n/a	n/a	n/a	n/a	n/a	n/a	n/a	n/a	n/a	n/a	n/a	n/a	n/a	n/a	n/a
2812.534	n/a	WORD	1406267	wordpools/wasnorm_wordpool_less_exclusions.txt	LTP289	ltpFR	15	8	0	STUDENT	1395	n/a	1	n/a	0	0	0	0	0.5869140625	0.422607421875	lower	../fonts/amplitud.ttf
2815.546	n/a	START	1407773	n/a	LTP289	ltpFR	15	n/a	n/a	n/a	n/a	n/a	n/a	n/a	n/a	n/a	n/a	n/a	n/a	n/a	n/a	n/a
2816.474	n/a	PROB	1408237	n/a	LTP289	ltpFR	15	n/a	n/a	n/a	n/a	n/a	n/a	11	2	5	4	n/a	n/a	n/a	n/a	n/a
2818.23	n/a	PROB	1409115	n/a	LTP289	ltpFR	15	n/a	n/a	n/a	n/a	n/a	n/a	8	3	4	1	n/a	n/a	n/a	n/a	n/a
2819.854	n/a	PROB	1409927	n/a	LTP289	ltpFR	15	n/a	n/a	n/a	n/a	n/a	n/a	12	1	5	6	n/a	n/a	n/a	n/a	n/a
2823.546	n/a	STOP	1411773	n/a	LTP289	ltpFR	15	n/a	n/a	n/a	n/a	n/a	n/a	n/a	n/a	n/a	n/a	n/a	n/a	n/a	n/a	n/a
2824.53	n/a	WORD	1412265	wordpools/wasnorm_wordpool_less_exclusions.txt	LTP289	ltpFR	15	8	0	TEACHER	1440	n/a	1	n/a	0	0	0	0	0.5869140625	0.422607421875	lower	../fonts/amplitud.ttf
2827.542	n/a	START	1413771	n/a	LTP289	ltpFR	15	n/a	n/a	n/a	n/a	n/a	n/a	n/a	n/a	n/a	n/a	n/a	n/a	n/a	n/a	n/a
2828.612	n/a	PROB	1414306	n/a	LTP289	ltpFR	15	n/a	n/a	n/a	n/a	n/a	n/a	15	1	7	7	n/a	n/a	n/a	n/a	n/a
2830.228	n/a	PROB	1415114	n/a	LTP289	ltpFR	15	n/a	n/a	n/a	n/a	n/a	n/a	16	5	7	4	n/a	n/a	n/a	n/a	n/a
2832.66	n/a	PROB	1416330	n/a	LTP289	ltpFR	15	n/a	n/a	n/a	n/a	n/a	n/a	10	1	7	2	n/a	n/a	n/a	n/a	n/a
2834.45	n/a	STOP	1417225	n/a	LTP289	ltpFR	15	n/a	n/a	n/a	n/a	n/a	n/a	n/a	n/a	n/a	n/a	n/a	n/a	n/a	n/a	n/a
2836.434	n/a	WORD	1418217	wordpools/wasnorm_wordpool_less_exclusions.txt	LTP289	ltpFR	15	8	0	CONTINENT	367	n/a	1	n/a	0	0	0	0	0.5869140625	0.422607421875	lower	../fonts/amplitud.ttf
2839.446	n/a	START	1419723	n/a	LTP289	ltpFR	15	n/a	n/a	n/a	n/a	n/a	n/a	n/a	n/a	n/a	n/a	n/a	n/a	n/a	n/a	n/a
2840.282	n/a	PROB	1420141	n/a	LTP289	ltpFR	15	n/a	n/a	n/a	n/a	n/a	n/a	14	5	4	5	n/a	n/a	n/a	n/a	n/a
2842.022	n/a	PROB	1421011	n/a	LTP289	ltpFR	15	n/a	n/a	n/a	n/a	n/a	n/a	18	3	6	9	n/a	n/a	n/a	n/a	n/a
2843.704	n/a	PROB	1421852	n/a	LTP289	ltpFR	15	n/a	n/a	n/a	n/a	n/a	n/a	22	9	4	9	n/a	n/a	n/a	n/a	n/a
2846.172	n/a	STOP	1423086	n/a	LTP289	ltpFR	15	n/a	n/a	n/a	n/a	n/a	n/a	n/a	n/a	n/a	n/a	n/a	n/a	n/a	n/a	n/a
2848.538	n/a	WORD	1424269	wordpools/wasnorm_wordpool_less_exclusions.txt	LTP289	ltpFR	15	8	0	DESSERT	453	n/a	1	n/a	0	0	0	0	0.5869140625	0.422607421875	lower	../fonts/amplitud.ttf
2851.55	n/a	START	1425775	n/a	LTP289	ltpFR	15	n/a	n/a	n/a	n/a	n/a	n/a	n/a	n/a	n/a	n/a	n/a	n/a	n/a	n/a	n/a
2852.68	n/a	PROB	1426340	n/a	LTP289	ltpFR	15	n/a	n/a	n/a	n/a	n/a	n/a	17	8	6	3	n/a	n/a	n/a	n/a	n/a
2855.062	n/a	PROB	1427531	n/a	LTP289	ltpFR	15	n/a	n/a	n/a	n/a	n/a	n/a	12	6	2	4	n/a	n/a	n/a	n/a	n/a
2859.55	n/a	STOP	1429775	n/a	LTP289	ltpFR	15	n/a	n/a	n/a	n/a	n/a	n/a	n/a	n/a	n/a	n/a	n/a	n/a	n/a	n/a	n/a
2861.432	n/a	REC_START	1430716	n/a	LTP289	ltpFR	15	8	n/a	n/a	n/a	n/a	n/a	n/a	0	0	0	n/a	n/a	n/a	n/a	n/a
2862.212	n/a	REC_WORD	1431106	wordpools/wasnorm_wordpool_less_exclusions.txt	LTP289	ltpFR	15	8	0	DESSERT	453	n/a	1	n/a	0	0	0	n/a	n/a	n/a	n/a	n/a
2863.16	n/a	REC_WORD	1431580	wordpools/wasnorm_wordpool_less_exclusions.txt	LTP289	ltpFR	15	8	0	CONTINENT	367	n/a	1	n/a	0	0	0	n/a	n/a	n/a	n/a	n/a
2864.694	n/a	REC_WORD	1432347	wordpools/wasnorm_wordpool_less_exclusions.txt	LTP289	ltpFR	15	8	1	PRIEST	1122	n/a	1	n/a	0	0	0	n/a	n/a	n/a	n/a	n/a
2865.72	n/a	REC_WORD	1432860	wordpools/wasnorm_wordpool_less_exclusions.txt	LTP289	ltpFR	15	8	0	PREACHER	1119	n/a	1	n/a	0	0	0	n/a	n/a	n/a	n/a	n/a
2866.882	n/a	REC_WORD	1433441	wordpools/wasnorm_wordpool_less_exclusions.txt	LTP289	ltpFR	15	8	1	PELT	1040	n/a	0	n/a	0	0	0	n/a	n/a	n/a	n/a	n/a
2871.052	n/a	REC_WORD	1435526	wordpools/wasnorm_wordpool_less_exclusions.txt	LTP289	ltpFR	15	8	0	CARROT	249	n/a	0	n/a	0	0	0	n/a	n/a	n/a	n/a	n/a
2880.734	n/a	REC_WORD	1440367	wordpools/wasnorm_wordpool_less_exclusions.txt	LTP289	ltpFR	15	8	1	PRODUCER	1129	n/a	1	n/a	0	0	0	n/a	n/a	n/a	n/a	n/a
2895.342	n/a	REC_WORD	1447671	wordpools/wasnorm_wordpool_less_exclusions.txt	LTP289	ltpFR	15	8	0	PORCUPINE	1107	n/a	1	n/a	0	0	0	n/a	n/a	n/a	n/a	n/a
2918.048	n/a	REC_WORD	1459024	wordpools/wasnorm_wordpool_less_exclusions.txt	LTP289	ltpFR	15	8	0	TEACHER	1440	n/a	1	n/a	0	0	0	n/a	n/a	n/a	n/a	n/a
2927.44	n/a	REC_WORD	1463720	wordpools/wasnorm_wordpool_less_exclusions.txt	LTP289	ltpFR	15	8	1	MAT	877	n/a	0	n/a	0	0	0	n/a	n/a	n/a	n/a	n/a
2991.964	n/a	WORD	1495982	wordpools/wasnorm_wordpool_less_exclusions.txt	LTP289	ltpFR	15	9	0	WASHCLOTH	1591	n/a	0	n/a	0	0	0	0	0.5869140625	0.422607421875	lower	../fonts/amplitud.ttf
2995.962	n/a	WORD	1497981	wordpools/wasnorm_wordpool_less_exclusions.txt	LTP289	ltpFR	15	9	0	DESIGNER	451	n/a	1	n/a	0	0	0	0	0.5869140625	0.422607421875	lower	../fonts/amplitud.ttf
2999.926	n/a	WORD	1499963	wordpools/wasnorm_wordpool_less_exclusions.txt	LTP289	ltpFR	15	9	0	WASHER	1592	n/a	1	n/a	0	0	0	0	0.5869140625	0.422607421875	lower	../fonts/amplitud.ttf
3004.108	n/a	WORD	1502054	wordpools/wasnorm_wordpool_less_exclusions.txt	LTP289	ltpFR	15	9	0	HEDGE	699	n/a	1	n/a	0	0	0	0	0.5869140625	0.422607421875	lower	../fonts/amplitud.ttf
3008.164	n/a	WORD	1504082	wordpools/wasnorm_wordpool_less_exclusions.txt	LTP289	ltpFR	15	9	0	MEAT	883	n/a	1	n/a	0	0	0	0	0.5869140625	0.422607421875	lower	../fonts/amplitud.ttf
3012.34	n/a	WORD	1506170	wordpools/wasnorm_wordpool_less_exclusions.txt	LTP289	ltpFR	15	9	0	LAGOON	795	n/a	1	n/a	0	0	0	0	0.5869140625	0.422607421875	lower	../fonts/amplitud.ttf
3016.312	n/a	WORD	1508156	wordpools/wasnorm_wordpool_less_exclusions.txt	LTP289	ltpFR	15	9	0	RAKE	1164	n/a	1	n/a	0	0	0	0	0.5869140625	0.422607421875	lower	../fonts/amplitud.ttf
3020.446	n/a	WORD	1510223	wordpools/wasnorm_wordpool_less_exclusions.txt	LTP289	ltpFR	15	9	0	BUSH	202	n/a	0	n/a	0	0	0	0	0.5869140625	0.422607421875	lower	../fonts/amplitud.ttf
3024.42	n/a	WORD	1512210	wordpools/wasnorm_wordpool_less_exclusions.txt	LTP289	ltpFR	15	9	0	TRUCK	1512	n/a	1	n/a	0	0	0	0	0.5869140625	0.422607421875	lower	../fonts/amplitud.ttf
3028.408	n/a	WORD	1514204	wordpools/wasnorm_wordpool_less_exclusions.txt	LTP289	ltpFR	15	9	0	BRIDGE	174	n/a	1	n/a	0	0	0	0	0.5869140625	0.422607421875	lower	../fonts/amplitud.ttf
3032.392	n/a	WORD	1516196	wordpools/wasnorm_wordpool_less_exclusions.txt	LTP289	ltpFR	15	9	0	ANKLE	24	n/a	0	n/a	0	0	0	0	0.5869140625	0.422607421875	lower	../fonts/amplitud.ttf
3036.482	n/a	WORD	1518241	wordpools/wasnorm_wordpool_less_exclusions.txt	LTP289	ltpFR	15	9	0	WRIST	1626	n/a	0	n/a	0	0	0	0	0.5869140625	0.422607421875	lower	../fonts/amplitud.ttf
3040.388	n/a	WORD	1520194	wordpools/wasnorm_wordpool_less_exclusions.txt	LTP289	ltpFR	15	9	0	BEAR	106	n/a	1	n/a	0	0	0	0	0.5869140625	0.422607421875	lower	../fonts/amplitud.ttf
3044.404	n/a	WORD	1522202	wordpools/wasnorm_wordpool_less_exclusions.txt	LTP289	ltpFR	15	9	0	CREATURE	403	n/a	1	n/a	0	0	0	0	0.5869140625	0.422607421875	lower	../fonts/amplitud.ttf
3048.552	n/a	WORD	1524276	wordpools/wasnorm_wordpool_less_exclusions.txt	LTP289	ltpFR	15	9	0	PIT	1077	n/a	1	n/a	0	0	0	0	0.5869140625	0.422607421875	lower	../fonts/amplitud.ttf
3052.394	n/a	WORD	1526197	wordpools/wasnorm_wordpool_less_exclusions.txt	LTP289	ltpFR	15	9	0	HELICOPTER	701	n/a	1	n/a	0	0	0	0	0.5869140625	0.422607421875	lower	../fonts/amplitud.ttf
3055.404	n/a	START	1527702	n/a	LTP289	ltpFR	15	n/a	n/a	n/a	n/a	n/a	n/a	n/a	n/a	n/a	n/a	n/a	n/a	n/a	n/a	n/a
3056.274	n/a	PROB	1528137	n/a	LTP289	ltpFR	15	n/a	n/a	n/a	n/a	n/a	n/a	10	4	2	4	n/a	n/a	n/a	n/a	n/a
3058.248	n/a	PROB	1529124	n/a	LTP289	ltpFR	15	n/a	n/a	n/a	n/a	n/a	n/a	15	7	6	2	n/a	n/a	n/a	n/a	n/a
3059.94	n/a	PROB	1529970	n/a	LTP289	ltpFR	15	n/a	n/a	n/a	n/a	n/a	n/a	13	4	6	3	n/a	n/a	n/a	n/a	n/a
3061.51	n/a	PROB	1530755	n/a	LTP289	ltpFR	15	n/a	n/a	n/a	n/a	n/a	n/a	16	2	5	9	n/a	n/a	n/a	n/a	n/a
3063.278	n/a	STOP	1531639	n/a	LTP289	ltpFR	15	n/a	n/a	n/a	n/a	n/a	n/a	n/a	n/a	n/a	n/a	n/a	n/a	n/a	n/a	n/a
3065.216	n/a	REC_START	1532608	n/a	LTP289	ltpFR	15	9	n/a	n/a	n/a	n/a	n/a	n/a	0	0	0	n/a	n/a	n/a	n/a	n/a
3067.01	n/a	REC_WORD	1533505	wordpools/wasnorm_wordpool_less_exclusions.txt	LTP289	ltpFR	15	9	0	RAKE	1164	n/a	1	n/a	0	0	0	n/a	n/a	n/a	n/a	n/a
3067.742	n/a	REC_WORD	1533871	wordpools/wasnorm_wordpool_less_exclusions.txt	LTP289	ltpFR	15	9	0	LAGOON	795	n/a	1	n/a	0	0	0	n/a	n/a	n/a	n/a	n/a
3068.698	n/a	REC_WORD	1534349	wordpools/wasnorm_wordpool_less_exclusions.txt	LTP289	ltpFR	15	9	0	HEDGE	699	n/a	1	n/a	0	0	0	n/a	n/a	n/a	n/a	n/a
3069.814	n/a	REC_WORD	1534907	wordpools/wasnorm_wordpool_less_exclusions.txt	LTP289	ltpFR	15	9	0	BUSH	202	n/a	0	n/a	0	0	0	n/a	n/a	n/a	n/a	n/a
3070.68	n/a	REC_WORD	1535340	wordpools/wasnorm_wordpool_less_exclusions.txt	LTP289	ltpFR	15	9	0	MEAT	883	n/a	1	n/a	0	0	0	n/a	n/a	n/a	n/a	n/a
3071.856	n/a	REC_WORD	1535928	wordpools/wasnorm_wordpool_less_exclusions.txt	LTP289	ltpFR	15	9	0	DESIGNER	451	n/a	1	n/a	0	0	0	n/a	n/a	n/a	n/a	n/a
3072.97	n/a	REC_WORD	1536485	wordpools/wasnorm_wordpool_less_exclusions.txt	LTP289	ltpFR	15	9	0	WASHER	1592	n/a	1	n/a	0	0	0	n/a	n/a	n/a	n/a	n/a
3074.014	n/a	REC_WORD	1537007	wordpools/wasnorm_wordpool_less_exclusions.txt	LTP289	ltpFR	15	9	0	WASHCLOTH	1591	n/a	0	n/a	0	0	0	n/a	n/a	n/a	n/a	n/a
3077.9	n/a	REC_WORD	1538950	wordpools/wasnorm_wordpool_less_exclusions.txt	LTP289	ltpFR	15	9	0	TRUCK	1512	n/a	1	n/a	0	0	0	n/a	n/a	n/a	n/a	n/a
3078.908	n/a	REC_WORD	1539454	wordpools/wasnorm_wordpool_less_exclusions.txt	LTP289	ltpFR	15	9	0	BRIDGE	174	n/a	1	n/a	0	0	0	n/a	n/a	n/a	n/a	n/a
3096.224	n/a	REC_WORD	1548112	wordpools/wasnorm_wordpool_less_exclusions.txt	LTP289	ltpFR	15	9	0	RAKE	1164	n/a	1	n/a	0	0	0	n/a	n/a	n/a	n/a	n/a
3178.248	n/a	START	1589124	n/a	LTP289	ltpFR	15	n/a	n/a	n/a	n/a	n/a	n/a	n/a	n/a	n/a	n/a	n/a	n/a	n/a	n/a	n/a
3179.762	n/a	PROB	1589881	n/a	LTP289	ltpFR	15	n/a	n/a	n/a	n/a	n/a	n/a	19	8	5	6	n/a	n/a	n/a	n/a	n/a
3181.57	n/a	PROB	1590785	n/a	LTP289	ltpFR	15	n/a	n/a	n/a	n/a	n/a	n/a	7	3	1	3	n/a	n/a	n/a	n/a	n/a
3182.95	n/a	PROB	1591475	n/a	LTP289	ltpFR	15	n/a	n/a	n/a	n/a	n/a	n/a	12	5	3	4	n/a	n/a	n/a	n/a	n/a
3185.56	n/a	PROB	1592780	n/a	LTP289	ltpFR	15	n/a	n/a	n/a	n/a	n/a	n/a	19	8	5	6	n/a	n/a	n/a	n/a	n/a
3187.426	n/a	PROB	1593713	n/a	LTP289	ltpFR	15	n/a	n/a	n/a	n/a	n/a	n/a	10	2	2	6	n/a	n/a	n/a	n/a	n/a
3188.856	n/a	PROB	1594428	n/a	LTP289	ltpFR	15	n/a	n/a	n/a	n/a	n/a	n/a	17	4	8	5	n/a	n/a	n/a	n/a	n/a
3190.864	n/a	PROB	1595432	n/a	LTP289	ltpFR	15	n/a	n/a	n/a	n/a	n/a	n/a	12	6	1	5	n/a	n/a	n/a	n/a	n/a
3194.23	n/a	STOP	1597115	n/a	LTP289	ltpFR	15	n/a	n/a	n/a	n/a	n/a	n/a	n/a	n/a	n/a	n/a	n/a	n/a	n/a	n/a	n/a
3195.43	n/a	WORD	1597715	wordpools/wasnorm_wordpool_less_exclusions.txt	LTP289	ltpFR	15	10	1	HIKER	708	n/a	1	n/a	0	0	0	1	0.412841796875	0.57763671875	upper	../fonts/zerothre.ttf
3198.442	n/a	START	1599221	n/a	LTP289	ltpFR	15	n/a	n/a	n/a	n/a	n/a	n/a	n/a	n/a	n/a	n/a	n/a	n/a	n/a	n/a	n/a
3199.562	n/a	PROB	1599781	n/a	LTP289	ltpFR	15	n/a	n/a	n/a	n/a	n/a	n/a	11	3	4	4	n/a	n/a	n/a	n/a	n/a
3201.246	n/a	PROB	1600623	n/a	LTP289	ltpFR	15	n/a	n/a	n/a	n/a	n/a	n/a	17	9	1	7	n/a	n/a	n/a	n/a	n/a
3202.618	n/a	PROB	1601309	n/a	LTP289	ltpFR	15	n/a	n/a	n/a	n/a	n/a	n/a	5	2	2	1	n/a	n/a	n/a	n/a	n/a
3203.84	n/a	PROB	1601920	n/a	LTP289	ltpFR	15	n/a	n/a	n/a	n/a	n/a	n/a	15	5	2	8	n/a	n/a	n/a	n/a	n/a
3205.596	n/a	PROB	1602798	n/a	LTP289	ltpFR	15	n/a	n/a	n/a	n/a	n/a	n/a	12	6	5	1	n/a	n/a	n/a	n/a	n/a
3206.958	n/a	PROB	1603479	n/a	LTP289	ltpFR	15	n/a	n/a	n/a	n/a	n/a	n/a	14	8	3	3	n/a	n/a	n/a	n/a	n/a
3208.548	n/a	PROB	1604274	n/a	LTP289	ltpFR	15	n/a	n/a	n/a	n/a	n/a	n/a	14	2	7	5	n/a	n/a	n/a	n/a	n/a
3210.464	n/a	PROB	1605232	n/a	LTP289	ltpFR	15	n/a	n/a	n/a	n/a	n/a	n/a	12	8	3	1	n/a	n/a	n/a	n/a	n/a
3212.976	n/a	STOP	1606488	n/a	LTP289	ltpFR	15	n/a	n/a	n/a	n/a	n/a	n/a	n/a	n/a	n/a	n/a	n/a	n/a	n/a	n/a	n/a
3215.482	n/a	WORD	1607741	wordpools/wasnorm_wordpool_less_exclusions.txt	LTP289	ltpFR	15	10	1	BUYER	208	n/a	1	n/a	0	0	0	1	0.412841796875	0.57763671875	upper	../fonts/zerothre.ttf
3218.494	n/a	START	1609247	n/a	LTP289	ltpFR	15	n/a	n/a	n/a	n/a	n/a	n/a	n/a	n/a	n/a	n/a	n/a	n/a	n/a	n/a	n/a
3219.522	n/a	PROB	1609761	n/a	LTP289	ltpFR	15	n/a	n/a	n/a	n/a	n/a	n/a	7	2	1	4	n/a	n/a	n/a	n/a	n/a
3221.33	n/a	PROB	1610665	n/a	LTP289	ltpFR	15	n/a	n/a	n/a	n/a	n/a	n/a	13	2	8	3	n/a	n/a	n/a	n/a	n/a
3223.68	n/a	PROB	1611840	n/a	LTP289	ltpFR	15	n/a	n/a	n/a	n/a	n/a	n/a	16	4	9	3	n/a	n/a	n/a	n/a	n/a
3226.29	n/a	PROB	1613145	n/a	LTP289	ltpFR	15	n/a	n/a	n/a	n/a	n/a	n/a	14	4	4	6	n/a	n/a	n/a	n/a	n/a
3227.932	n/a	PROB	1613966	n/a	LTP289	ltpFR	15	n/a	n/a	n/a	n/a	n/a	n/a	18	9	3	6	n/a	n/a	n/a	n/a	n/a
3229.896	n/a	PROB	1614948	n/a	LTP289	ltpFR	15	n/a	n/a	n/a	n/a	n/a	n/a	13	8	2	3	n/a	n/a	n/a	n/a	n/a
3231.166	n/a	PROB	1615583	n/a	LTP289	ltpFR	15	n/a	n/a	n/a	n/a	n/a	n/a	10	2	2	6	n/a	n/a	n/a	n/a	n/a
3232.598	n/a	PROB	1616299	n/a	LTP289	ltpFR	15	n/a	n/a	n/a	n/a	n/a	n/a	19	8	3	8	n/a	n/a	n/a	n/a	n/a
3234.464	n/a	STOP	1617232	n/a	LTP289	ltpFR	15	n/a	n/a	n/a	n/a	n/a	n/a	n/a	n/a	n/a	n/a	n/a	n/a	n/a	n/a	n/a
3235.718	n/a	WORD	1617859	wordpools/wasnorm_wordpool_less_exclusions.txt	LTP289	ltpFR	15	10	1	CUSTOMER	430	n/a	1	n/a	0	0	0	1	0.412841796875	0.57763671875	upper	../fonts/zerothre.ttf
3238.73	n/a	START	1619365	n/a	LTP289	ltpFR	15	n/a	n/a	n/a	n/a	n/a	n/a	n/a	n/a	n/a	n/a	n/a	n/a	n/a	n/a	n/a
3239.81	n/a	PROB	1619905	n/a	LTP289	ltpFR	15	n/a	n/a	n/a	n/a	n/a	n/a	19	7	5	7	n/a	n/a	n/a	n/a	n/a
3241.624	n/a	PROB	1620812	n/a	LTP289	ltpFR	15	n/a	n/a	n/a	n/a	n/a	n/a	19	7	3	9	n/a	n/a	n/a	n/a	n/a
3243.39	n/a	PROB	1621695	n/a	LTP289	ltpFR	15	n/a	n/a	n/a	n/a	n/a	n/a	24	7	8	9	n/a	n/a	n/a	n/a	n/a
3246.008	n/a	PROB	1623004	n/a	LTP289	ltpFR	15	n/a	n/a	n/a	n/a	n/a	n/a	14	6	4	4	n/a	n/a	n/a	n/a	n/a
3247.546	n/a	PROB	1623773	n/a	LTP289	ltpFR	15	n/a	n/a	n/a	n/a	n/a	n/a	14	1	9	4	n/a	n/a	n/a	n/a	n/a
3248.744	n/a	PROB	1624372	n/a	LTP289	ltpFR	15	n/a	n/a	n/a	n/a	n/a	n/a	20	8	7	5	n/a	n/a	n/a	n/a	n/a
3251.328	n/a	PROB	1625664	n/a	LTP289	ltpFR	15	n/a	n/a	n/a	n/a	n/a	n/a	11	6	3	2	n/a	n/a	n/a	n/a	n/a
3254.73	n/a	STOP	1627365	n/a	LTP289	ltpFR	15	n/a	n/a	n/a	n/a	n/a	n/a	n/a	n/a	n/a	n/a	n/a	n/a	n/a	n/a	n/a
3255.938	n/a	WORD	1627969	wordpools/wasnorm_wordpool_less_exclusions.txt	LTP289	ltpFR	15	10	1	CAB	209	n/a	0	n/a	0	0	0	1	0.412841796875	0.57763671875	upper	../fonts/zerothre.ttf
3258.952	n/a	START	1629476	n/a	LTP289	ltpFR	15	n/a	n/a	n/a	n/a	n/a	n/a	n/a	n/a	n/a	n/a	n/a	n/a	n/a	n/a	n/a
3259.894	n/a	PROB	1629947	n/a	LTP289	ltpFR	15	n/a	n/a	n/a	n/a	n/a	n/a	15	8	3	4	n/a	n/a	n/a	n/a	n/a
3261.508	n/a	PROB	1630754	n/a	LTP289	ltpFR	15	n/a	n/a	n/a	n/a	n/a	n/a	21	9	8	4	n/a	n/a	n/a	n/a	n/a
3263.45	n/a	PROB	1631725	n/a	LTP289	ltpFR	15	n/a	n/a	n/a	n/a	n/a	n/a	25	9	8	8	n/a	n/a	n/a	n/a	n/a
3265.482	n/a	PROB	1632741	n/a	LTP289	ltpFR	15	n/a	n/a	n/a	n/a	n/a	n/a	16	5	8	3	n/a	n/a	n/a	n/a	n/a
3268.118	n/a	PROB	1634059	n/a	LTP289	ltpFR	15	n/a	n/a	n/a	n/a	n/a	n/a	16	6	3	7	n/a	n/a	n/a	n/a	n/a
3269.48	n/a	PROB	1634740	n/a	LTP289	ltpFR	15	n/a	n/a	n/a	n/a	n/a	n/a	17	6	5	6	n/a	n/a	n/a	n/a	n/a
3271.966	n/a	PROB	1635983	n/a	LTP289	ltpFR	15	n/a	n/a	n/a	n/a	n/a	n/a	19	8	8	3	n/a	n/a	n/a	n/a	n/a
3273.554	n/a	STOP	1636777	n/a	LTP289	ltpFR	15	n/a	n/a	n/a	n/a	n/a	n/a	n/a	n/a	n/a	n/a	n/a	n/a	n/a	n/a	n/a
3275.88	n/a	WORD	1637940	wordpools/wasnorm_wordpool_less_exclusions.txt	LTP289	ltpFR	15	10	0	OTTER	986	n/a	1	n/a	0	0	0	0	0.5869140625	0.422607421875	lower	../fonts/amplitud.ttf
3278.894	n/a	START	1639447	n/a	LTP289	ltpFR	15	n/a	n/a	n/a	n/a	n/a	n/a	n/a	n/a	n/a	n/a	n/a	n/a	n/a	n/a	n/a
3279.888	n/a	PROB	1639944	n/a	LTP289	ltpFR	15	n/a	n/a	n/a	n/a	n/a	n/a	10	3	6	1	n/a	n/a	n/a	n/a	n/a
3281.342	n/a	PROB	1640671	n/a	LTP289	ltpFR	15	n/a	n/a	n/a	n/a	n/a	n/a	16	9	1	6	n/a	n/a	n/a	n/a	n/a
3282.506	n/a	PROB	1641253	n/a	LTP289	ltpFR	15	n/a	n/a	n/a	n/a	n/a	n/a	14	7	6	1	n/a	n/a	n/a	n/a	n/a
3284.362	n/a	PROB	1642181	n/a	LTP289	ltpFR	15	n/a	n/a	n/a	n/a	n/a	n/a	10	2	2	6	n/a	n/a	n/a	n/a	n/a
3285.91	n/a	PROB	1642955	n/a	LTP289	ltpFR	15	n/a	n/a	n/a	n/a	n/a	n/a	13	5	2	6	n/a	n/a	n/a	n/a	n/a
3287.96	n/a	PROB	1643980	n/a	LTP289	ltpFR	15	n/a	n/a	n/a	n/a	n/a	n/a	6	3	2	1	n/a	n/a	n/a	n/a	n/a
3290.008	n/a	PROB	1645004	n/a	LTP289	ltpFR	15	n/a	n/a	n/a	n/a	n/a	n/a	16	7	7	2	n/a	n/a	n/a	n/a	n/a
3291.58	n/a	PROB	1645790	n/a	LTP289	ltpFR	15	n/a	n/a	n/a	n/a	n/a	n/a	16	8	3	5	n/a	n/a	n/a	n/a	n/a
3293.49	n/a	STOP	1646745	n/a	LTP289	ltpFR	15	n/a	n/a	n/a	n/a	n/a	n/a	n/a	n/a	n/a	n/a	n/a	n/a	n/a	n/a	n/a
3295.858	n/a	WORD	1647929	wordpools/wasnorm_wordpool_less_exclusions.txt	LTP289	ltpFR	15	10	0	POLYESTER	1100	n/a	0	n/a	0	0	0	0	0.5869140625	0.422607421875	lower	../fonts/amplitud.ttf
3298.87	n/a	START	1649435	n/a	LTP289	ltpFR	15	n/a	n/a	n/a	n/a	n/a	n/a	n/a	n/a	n/a	n/a	n/a	n/a	n/a	n/a	n/a
3299.914	n/a	PROB	1649957	n/a	LTP289	ltpFR	15	n/a	n/a	n/a	n/a	n/a	n/a	12	4	5	3	n/a	n/a	n/a	n/a	n/a
3302.59	n/a	PROB	1651295	n/a	LTP289	ltpFR	15	n/a	n/a	n/a	n/a	n/a	n/a	8	4	1	3	n/a	n/a	n/a	n/a	n/a
3304.976	n/a	PROB	1652488	n/a	LTP289	ltpFR	15	n/a	n/a	n/a	n/a	n/a	n/a	17	7	2	8	n/a	n/a	n/a	n/a	n/a
3306.548	n/a	PROB	1653274	n/a	LTP289	ltpFR	15	n/a	n/a	n/a	n/a	n/a	n/a	13	3	9	1	n/a	n/a	n/a	n/a	n/a
3307.608	n/a	PROB	1653804	n/a	LTP289	ltpFR	15	n/a	n/a	n/a	n/a	n/a	n/a	13	6	1	6	n/a	n/a	n/a	n/a	n/a
3309.04	n/a	PROB	1654520	n/a	LTP289	ltpFR	15	n/a	n/a	n/a	n/a	n/a	n/a	12	1	3	8	n/a	n/a	n/a	n/a	n/a
3311.44	n/a	PROB	1655720	n/a	LTP289	ltpFR	15	n/a	n/a	n/a	n/a	n/a	n/a	24	9	8	7	n/a	n/a	n/a	n/a	n/a
3313.82	n/a	STOP	1656910	n/a	LTP289	ltpFR	15	n/a	n/a	n/a	n/a	n/a	n/a	n/a	n/a	n/a	n/a	n/a	n/a	n/a	n/a	n/a
3315.908	n/a	WORD	1657954	wordpools/wasnorm_wordpool_less_exclusions.txt	LTP289	ltpFR	15	10	0	BUTTON	207	n/a	0	n/a	0	0	0	0	0.5869140625	0.422607421875	lower	../fonts/amplitud.ttf
3318.92	n/a	START	1659460	n/a	LTP289	ltpFR	15	n/a	n/a	n/a	n/a	n/a	n/a	n/a	n/a	n/a	n/a	n/a	n/a	n/a	n/a	n/a
3320.056	n/a	PROB	1660028	n/a	LTP289	ltpFR	15	n/a	n/a	n/a	n/a	n/a	n/a	15	8	4	3	n/a	n/a	n/a	n/a	n/a
3321.948	n/a	PROB	1660974	n/a	LTP289	ltpFR	15	n/a	n/a	n/a	n/a	n/a	n/a	16	5	9	2	n/a	n/a	n/a	n/a	n/a
3324.056	n/a	PROB	1662028	n/a	LTP289	ltpFR	15	n/a	n/a	n/a	n/a	n/a	n/a	16	1	8	7	n/a	n/a	n/a	n/a	n/a
3325.796	n/a	PROB	1662898	n/a	LTP289	ltpFR	15	n/a	n/a	n/a	n/a	n/a	n/a	22	9	5	8	n/a	n/a	n/a	n/a	n/a
3327.804	n/a	PROB	1663902	n/a	LTP289	ltpFR	15	n/a	n/a	n/a	n/a	n/a	n/a	13	4	3	6	n/a	n/a	n/a	n/a	n/a
3330.58	n/a	PROB	1665290	n/a	LTP289	ltpFR	15	n/a	n/a	n/a	n/a	n/a	n/a	19	6	9	4	n/a	n/a	n/a	n/a	n/a
3332.202	n/a	PROB	1666101	n/a	LTP289	ltpFR	15	n/a	n/a	n/a	n/a	n/a	n/a	21	5	9	7	n/a	n/a	n/a	n/a	n/a
3333.926	n/a	STOP	1666963	n/a	LTP289	ltpFR	15	n/a	n/a	n/a	n/a	n/a	n/a	n/a	n/a	n/a	n/a	n/a	n/a	n/a	n/a	n/a
3336.052	n/a	WORD	1668026	wordpools/wasnorm_wordpool_less_exclusions.txt	LTP289	ltpFR	15	10	0	JELLO	754	n/a	0	n/a	0	0	0	0	0.5869140625	0.422607421875	lower	../fonts/amplitud.ttf
3339.064	n/a	START	1669532	n/a	LTP289	ltpFR	15	n/a	n/a	n/a	n/a	n/a	n/a	n/a	n/a	n/a	n/a	n/a	n/a	n/a	n/a	n/a
3340.184	n/a	PROB	1670092	n/a	LTP289	ltpFR	15	n/a	n/a	n/a	n/a	n/a	n/a	9	4	2	3	n/a	n/a	n/a	n/a	n/a
3342.058	n/a	PROB	1671029	n/a	LTP289	ltpFR	15	n/a	n/a	n/a	n/a	n/a	n/a	13	1	5	7	n/a	n/a	n/a	n/a	n/a
3344.182	n/a	PROB	1672091	n/a	LTP289	ltpFR	15	n/a	n/a	n/a	n/a	n/a	n/a	15	8	1	6	n/a	n/a	n/a	n/a	n/a
3346.274	n/a	PROB	1673137	n/a	LTP289	ltpFR	15	n/a	n/a	n/a	n/a	n/a	n/a	17	6	9	2	n/a	n/a	n/a	n/a	n/a
3349.05	n/a	PROB	1674525	n/a	LTP289	ltpFR	15	n/a	n/a	n/a	n/a	n/a	n/a	20	8	3	9	n/a	n/a	n/a	n/a	n/a
3350.824	n/a	PROB	1675412	n/a	LTP289	ltpFR	15	n/a	n/a	n/a	n/a	n/a	n/a	11	3	2	6	n/a	n/a	n/a	n/a	n/a
3352.172	n/a	PROB	1676086	n/a	LTP289	ltpFR	15	n/a	n/a	n/a	n/a	n/a	n/a	12	6	1	5	n/a	n/a	n/a	n/a	n/a
3353.686	n/a	STOP	1676843	n/a	LTP289	ltpFR	15	n/a	n/a	n/a	n/a	n/a	n/a	n/a	n/a	n/a	n/a	n/a	n/a	n/a	n/a	n/a
3356.296	n/a	WORD	1678148	wordpools/wasnorm_wordpool_less_exclusions.txt	LTP289	ltpFR	15	10	1	WINDSHIELD	1612	n/a	0	n/a	0	0	0	1	0.412841796875	0.57763671875	upper	../fonts/zerothre.ttf
3359.308	n/a	START	1679654	n/a	LTP289	ltpFR	15	n/a	n/a	n/a	n/a	n/a	n/a	n/a	n/a	n/a	n/a	n/a	n/a	n/a	n/a	n/a
3360.428	n/a	PROB	1680214	n/a	LTP289	ltpFR	15	n/a	n/a	n/a	n/a	n/a	n/a	10	3	4	3	n/a	n/a	n/a	n/a	n/a
3363.004	n/a	PROB	1681502	n/a	LTP289	ltpFR	15	n/a	n/a	n/a	n/a	n/a	n/a	21	5	7	9	n/a	n/a	n/a	n/a	n/a
3364.93	n/a	PROB	1682465	n/a	LTP289	ltpFR	15	n/a	n/a	n/a	n/a	n/a	n/a	13	5	3	5	n/a	n/a	n/a	n/a	n/a
3366.384	n/a	PROB	1683192	n/a	LTP289	ltpFR	15	n/a	n/a	n/a	n/a	n/a	n/a	17	1	7	9	n/a	n/a	n/a	n/a	n/a
3367.916	n/a	PROB	1683958	n/a	LTP289	ltpFR	15	n/a	n/a	n/a	n/a	n/a	n/a	19	3	9	7	n/a	n/a	n/a	n/a	n/a
3369.762	n/a	PROB	1684881	n/a	LTP289	ltpFR	15	n/a	n/a	n/a	n/a	n/a	n/a	9	5	3	1	n/a	n/a	n/a	n/a	n/a
3372.282	n/a	PROB	1686141	n/a	LTP289	ltpFR	15	n/a	n/a	n/a	n/a	n/a	n/a	18	6	5	7	n/a	n/a	n/a	n/a	n/a
3373.888	n/a	STOP	1686944	n/a	LTP289	ltpFR	15	n/a	n/a	n/a	n/a	n/a	n/a	n/a	n/a	n/a	n/a	n/a	n/a	n/a	n/a	n/a
3376.23	n/a	WORD	1688115	wordpools/wasnorm_wordpool_less_exclusions.txt	LTP289	ltpFR	15	10	1	CABIN	211	n/a	0	n/a	0	0	0	1	0.412841796875	0.57763671875	upper	../fonts/zerothre.ttf
3379.242	n/a	START	1689621	n/a	LTP289	ltpFR	15	n/a	n/a	n/a	n/a	n/a	n/a	n/a	n/a	n/a	n/a	n/a	n/a	n/a	n/a	n/a
3380.152	n/a	PROB	1690076	n/a	LTP289	ltpFR	15	n/a	n/a	n/a	n/a	n/a	n/a	22	9	7	6	n/a	n/a	n/a	n/a	n/a
3382.278	n/a	PROB	1691139	n/a	LTP289	ltpFR	15	n/a	n/a	n/a	n/a	n/a	n/a	21	6	6	9	n/a	n/a	n/a	n/a	n/a
3384.076	n/a	PROB	1692038	n/a	LTP289	ltpFR	15	n/a	n/a	n/a	n/a	n/a	n/a	19	3	7	9	n/a	n/a	n/a	n/a	n/a
3385.34	n/a	PROB	1692670	n/a	LTP289	ltpFR	15	n/a	n/a	n/a	n/a	n/a	n/a	5	1	3	1	n/a	n/a	n/a	n/a	n/a
3386.444	n/a	PROB	1693222	n/a	LTP289	ltpFR	15	n/a	n/a	n/a	n/a	n/a	n/a	25	7	9	9	n/a	n/a	n/a	n/a	n/a
3388.678	n/a	PROB	1694339	n/a	LTP289	ltpFR	15	n/a	n/a	n/a	n/a	n/a	n/a	17	6	9	2	n/a	n/a	n/a	n/a	n/a
3390.46	n/a	PROB	1695230	n/a	LTP289	ltpFR	15	n/a	n/a	n/a	n/a	n/a	n/a	20	9	9	2	n/a	n/a	n/a	n/a	n/a
3392.032	n/a	PROB	1696016	n/a	LTP289	ltpFR	15	n/a	n/a	n/a	n/a	n/a	n/a	9	2	5	2	n/a	n/a	n/a	n/a	n/a
3394.08	n/a	STOP	1697040	n/a	LTP289	ltpFR	15	n/a	n/a	n/a	n/a	n/a	n/a	n/a	n/a	n/a	n/a	n/a	n/a	n/a	n/a	n/a
3396.448	n/a	WORD	1698224	wordpools/wasnorm_wordpool_less_exclusions.txt	LTP289	ltpFR	15	10	1	TIDE	1465	n/a	0	n/a	0	0	0	1	0.412841796875	0.57763671875	upper	../fonts/zerothre.ttf
3399.46	n/a	START	1699730	n/a	LTP289	ltpFR	15	n/a	n/a	n/a	n/a	n/a	n/a	n/a	n/a	n/a	n/a	n/a	n/a	n/a	n/a	n/a
3400.556	n/a	PROB	1700278	n/a	LTP289	ltpFR	15	n/a	n/a	n/a	n/a	n/a	n/a	19	7	8	4	n/a	n/a	n/a	n/a	n/a
3404.238	n/a	PROB	1702119	n/a	LTP289	ltpFR	15	n/a	n/a	n/a	n/a	n/a	n/a	16	2	8	6	n/a	n/a	n/a	n/a	n/a
3405.878	n/a	PROB	1702939	n/a	LTP289	ltpFR	15	n/a	n/a	n/a	n/a	n/a	n/a	13	4	6	3	n/a	n/a	n/a	n/a	n/a
3407.306	n/a	PROB	1703653	n/a	LTP289	ltpFR	15	n/a	n/a	n/a	n/a	n/a	n/a	24	7	9	8	n/a	n/a	n/a	n/a	n/a
3409.124	n/a	PROB	1704562	n/a	LTP289	ltpFR	15	n/a	n/a	n/a	n/a	n/a	n/a	17	2	9	6	n/a	n/a	n/a	n/a	n/a
3411.306	n/a	PROB	1705653	n/a	LTP289	ltpFR	15	n/a	n/a	n/a	n/a	n/a	n/a	15	8	1	6	n/a	n/a	n/a	n/a	n/a
3413.138	n/a	PROB	1706569	n/a	LTP289	ltpFR	15	n/a	n/a	n/a	n/a	n/a	n/a	14	5	7	2	n/a	n/a	n/a	n/a	n/a
3415.25	n/a	STOP	1707625	n/a	LTP289	ltpFR	15	n/a	n/a	n/a	n/a	n/a	n/a	n/a	n/a	n/a	n/a	n/a	n/a	n/a	n/a	n/a
3416.342	n/a	WORD	1708171	wordpools/wasnorm_wordpool_less_exclusions.txt	LTP289	ltpFR	15	10	1	OCEAN	970	n/a	0	n/a	0	0	0	1	0.412841796875	0.57763671875	upper	../fonts/zerothre.ttf
3419.354	n/a	START	1709677	n/a	LTP289	ltpFR	15	n/a	n/a	n/a	n/a	n/a	n/a	n/a	n/a	n/a	n/a	n/a	n/a	n/a	n/a	n/a
3420.382	n/a	PROB	1710191	n/a	LTP289	ltpFR	15	n/a	n/a	n/a	n/a	n/a	n/a	19	7	3	9	n/a	n/a	n/a	n/a	n/a
3422.314	n/a	PROB	1711157	n/a	LTP289	ltpFR	15	n/a	n/a	n/a	n/a	n/a	n/a	9	2	5	2	n/a	n/a	n/a	n/a	n/a
3423.804	n/a	PROB	1711902	n/a	LTP289	ltpFR	15	n/a	n/a	n/a	n/a	n/a	n/a	18	9	1	8	n/a	n/a	n/a	n/a	n/a
3425.794	n/a	PROB	1712897	n/a	LTP289	ltpFR	15	n/a	n/a	n/a	n/a	n/a	n/a	10	2	7	1	n/a	n/a	n/a	n/a	n/a
3427.584	n/a	PROB	1713792	n/a	LTP289	ltpFR	15	n/a	n/a	n/a	n/a	n/a	n/a	17	9	6	2	n/a	n/a	n/a	n/a	n/a
3429.828	n/a	PROB	1714914	n/a	LTP289	ltpFR	15	n/a	n/a	n/a	n/a	n/a	n/a	25	8	8	9	n/a	n/a	n/a	n/a	n/a
3431.718	n/a	PROB	1715859	n/a	LTP289	ltpFR	15	n/a	n/a	n/a	n/a	n/a	n/a	19	6	4	9	n/a	n/a	n/a	n/a	n/a
3433.082	n/a	PROB	1716541	n/a	LTP289	ltpFR	15	n/a	n/a	n/a	n/a	n/a	n/a	18	8	5	5	n/a	n/a	n/a	n/a	n/a
3434.29	n/a	STOP	1717145	n/a	LTP289	ltpFR	15	n/a	n/a	n/a	n/a	n/a	n/a	n/a	n/a	n/a	n/a	n/a	n/a	n/a	n/a	n/a
3436.434	n/a	WORD	1718217	wordpools/wasnorm_wordpool_less_exclusions.txt	LTP289	ltpFR	15	10	0	SQUID	1361	n/a	1	n/a	0	0	0	0	0.5869140625	0.422607421875	lower	../fonts/amplitud.ttf
3439.446	n/a	START	1719723	n/a	LTP289	ltpFR	15	n/a	n/a	n/a	n/a	n/a	n/a	n/a	n/a	n/a	n/a	n/a	n/a	n/a	n/a	n/a
3440.282	n/a	PROB	1720141	n/a	LTP289	ltpFR	15	n/a	n/a	n/a	n/a	n/a	n/a	11	7	2	2	n/a	n/a	n/a	n/a	n/a
3442.032	n/a	PROB	1721016	n/a	LTP289	ltpFR	15	n/a	n/a	n/a	n/a	n/a	n/a	6	3	1	2	n/a	n/a	n/a	n/a	n/a
3444.39	n/a	PROB	1722195	n/a	LTP289	ltpFR	15	n/a	n/a	n/a	n/a	n/a	n/a	4	1	1	2	n/a	n/a	n/a	n/a	n/a
3445.736	n/a	PROB	1722868	n/a	LTP289	ltpFR	15	n/a	n/a	n/a	n/a	n/a	n/a	19	9	7	3	n/a	n/a	n/a	n/a	n/a
3447.126	n/a	PROB	1723563	n/a	LTP289	ltpFR	15	n/a	n/a	n/a	n/a	n/a	n/a	17	8	1	8	n/a	n/a	n/a	n/a	n/a
