onset	duration	trial_type	sample	stim_file	subject	experiment	session	trial	item_name	item_num	list	answer	test_x	test_y	test_z
270.302	n/a	SESS_START	135151	n/a	LTP324	ltpFR2	3	n/a	n/a	n/a	n/a	n/a	0	0	0
299.432	n/a	START	149716	n/a	LTP324	ltpFR2	3	n/a	n/a	n/a	-1	n/a	n/a	n/a	n/a
299.446	n/a	PROB	149723	n/a	LTP324	ltpFR2	3	n/a	n/a	n/a	-1	5	2	1	2
300.244	n/a	PROB	150122	n/a	LTP324	ltpFR2	3	n/a	n/a	n/a	-1	14	2	8	5
301.394	n/a	PROB	150697	n/a	LTP324	ltpFR2	3	n/a	n/a	n/a	-1	22	8	8	6
303.328	n/a	PROB	151664	n/a	LTP324	ltpFR2	3	n/a	n/a	n/a	-1	23	8	6	9
305.448	n/a	PROB	152724	n/a	LTP324	ltpFR2	3	n/a	n/a	n/a	-1	22	7	8	7
306.732	n/a	PROB	153366	n/a	LTP324	ltpFR2	3	n/a	n/a	n/a	-1	18	3	6	9
307.884	n/a	PROB	153942	n/a	LTP324	ltpFR2	3	n/a	n/a	n/a	-1	18	9	8	1
309.484	n/a	PROB	154742	n/a	LTP324	ltpFR2	3	n/a	n/a	n/a	-1	15	8	5	2
310.526	n/a	STOP	155263	n/a	LTP324	ltpFR2	3	n/a	n/a	n/a	-1	n/a	n/a	n/a	n/a
387.78	n/a	DISTRACTOR	193890	n/a	LTP324	ltpFR2	3	1	n/a	n/a	n/a	n/a	0	0	0
387.78	n/a	START	193890	n/a	LTP324	ltpFR2	3	n/a	n/a	n/a	1	n/a	n/a	n/a	n/a
387.794	n/a	PROB	193897	n/a	LTP324	ltpFR2	3	n/a	n/a	n/a	1	8	1	4	3
388.862	n/a	PROB	194431	n/a	LTP324	ltpFR2	3	n/a	n/a	n/a	1	17	7	8	2
389.912	n/a	PROB	194956	n/a	LTP324	ltpFR2	3	n/a	n/a	n/a	1	24	8	8	8
391.114	n/a	PROB	195557	n/a	LTP324	ltpFR2	3	n/a	n/a	n/a	1	23	7	8	8
392.066	n/a	PROB	196033	n/a	LTP324	ltpFR2	3	n/a	n/a	n/a	1	20	4	8	8
393.532	n/a	PROB	196766	n/a	LTP324	ltpFR2	3	n/a	n/a	n/a	1	12	2	7	3
394.668	n/a	PROB	197334	n/a	LTP324	ltpFR2	3	n/a	n/a	n/a	1	13	3	3	7
396.25	n/a	PROB	198125	n/a	LTP324	ltpFR2	3	n/a	n/a	n/a	1	11	4	4	3
398.07	n/a	PROB	199035	n/a	LTP324	ltpFR2	3	n/a	n/a	n/a	1	16	2	8	6
399.102	n/a	PROB	199551	n/a	LTP324	ltpFR2	3	n/a	n/a	n/a	1	19	9	1	9
400.69	n/a	PROB	200345	n/a	LTP324	ltpFR2	3	n/a	n/a	n/a	1	12	2	9	1
402.342	n/a	PROB	201171	n/a	LTP324	ltpFR2	3	n/a	n/a	n/a	1	15	1	8	7
403.108	n/a	PROB	201554	n/a	LTP324	ltpFR2	3	n/a	n/a	n/a	1	16	6	5	5
404.292	n/a	PROB	202146	n/a	LTP324	ltpFR2	3	n/a	n/a	n/a	1	21	4	9	8
405.61	n/a	PROB	202805	n/a	LTP324	ltpFR2	3	n/a	n/a	n/a	1	14	5	6	3
407.378	n/a	PROB	203689	n/a	LTP324	ltpFR2	3	n/a	n/a	n/a	1	16	2	6	8
408.41	n/a	PROB	204205	n/a	LTP324	ltpFR2	3	n/a	n/a	n/a	1	12	8	1	4
410.164	n/a	PROB	205082	n/a	LTP324	ltpFR2	3	n/a	n/a	n/a	1	11	1	5	5
410.888	n/a	STOP	205444	n/a	LTP324	ltpFR2	3	n/a	n/a	n/a	1	n/a	n/a	n/a	n/a
412.928	n/a	WORD	206464	wordpools/wasnorm_wordpool_576.txt	LTP324	ltpFR2	3	1	PAIL	1002	n/a	n/a	0	0	0
415.564	n/a	WORD	207782	wordpools/wasnorm_wordpool_576.txt	LTP324	ltpFR2	3	1	WASP	1593	n/a	n/a	0	0	0
418.366	n/a	WORD	209183	wordpools/wasnorm_wordpool_576.txt	LTP324	ltpFR2	3	1	CABIN	211	n/a	n/a	0	0	0
421.038	n/a	WORD	210519	wordpools/wasnorm_wordpool_576.txt	LTP324	ltpFR2	3	1	TWIG	1527	n/a	n/a	0	0	0
423.77	n/a	WORD	211885	wordpools/wasnorm_wordpool_576.txt	LTP324	ltpFR2	3	1	PAPER	1011	n/a	n/a	0	0	0
426.236	n/a	WORD	213118	wordpools/wasnorm_wordpool_576.txt	LTP324	ltpFR2	3	1	KLEENEX	782	n/a	n/a	0	0	0
428.924	n/a	WORD	214462	wordpools/wasnorm_wordpool_576.txt	LTP324	ltpFR2	3	1	MACHINE	852	n/a	n/a	0	0	0
431.694	n/a	WORD	215847	wordpools/wasnorm_wordpool_576.txt	LTP324	ltpFR2	3	1	ROBOT	1200	n/a	n/a	0	0	0
434.212	n/a	WORD	217106	wordpools/wasnorm_wordpool_576.txt	LTP324	ltpFR2	3	1	PROTON	1132	n/a	n/a	0	0	0
436.65	n/a	WORD	218325	wordpools/wasnorm_wordpool_576.txt	LTP324	ltpFR2	3	1	BINDER	127	n/a	n/a	0	0	0
439.1	n/a	WORD	219550	wordpools/wasnorm_wordpool_576.txt	LTP324	ltpFR2	3	1	SUNSET	1408	n/a	n/a	0	0	0
441.684	n/a	WORD	220842	wordpools/wasnorm_wordpool_576.txt	LTP324	ltpFR2	3	1	PICNIC	1060	n/a	n/a	0	0	0
444.138	n/a	WORD	222069	wordpools/wasnorm_wordpool_576.txt	LTP324	ltpFR2	3	1	SCRIBBLE	1256	n/a	n/a	0	0	0
446.824	n/a	WORD	223412	wordpools/wasnorm_wordpool_576.txt	LTP324	ltpFR2	3	1	BULLET	194	n/a	n/a	0	0	0
449.624	n/a	WORD	224812	wordpools/wasnorm_wordpool_576.txt	LTP324	ltpFR2	3	1	COSTUME	383	n/a	n/a	0	0	0
452.36	n/a	WORD	226180	wordpools/wasnorm_wordpool_576.txt	LTP324	ltpFR2	3	1	YOLK	1633	n/a	n/a	0	0	0
455.08	n/a	WORD	227540	wordpools/wasnorm_wordpool_576.txt	LTP324	ltpFR2	3	1	NEUTRON	947	n/a	n/a	0	0	0
457.65	n/a	WORD	228825	wordpools/wasnorm_wordpool_576.txt	LTP324	ltpFR2	3	1	GIRL	637	n/a	n/a	0	0	0
460.3	n/a	WORD	230150	wordpools/wasnorm_wordpool_576.txt	LTP324	ltpFR2	3	1	MISSILE	900	n/a	n/a	0	0	0
462.77	n/a	WORD	231385	wordpools/wasnorm_wordpool_576.txt	LTP324	ltpFR2	3	1	RAFT	1159	n/a	n/a	0	0	0
465.488	n/a	WORD	232744	wordpools/wasnorm_wordpool_576.txt	LTP324	ltpFR2	3	1	COMPASS	358	n/a	n/a	0	0	0
467.974	n/a	WORD	233987	wordpools/wasnorm_wordpool_576.txt	LTP324	ltpFR2	3	1	VIRUS	1572	n/a	n/a	0	0	0
470.608	n/a	WORD	235304	wordpools/wasnorm_wordpool_576.txt	LTP324	ltpFR2	3	1	OUTFIT	988	n/a	n/a	0	0	0
473.31	n/a	WORD	236655	wordpools/wasnorm_wordpool_576.txt	LTP324	ltpFR2	3	1	LAKE	796	n/a	n/a	0	0	0
474.93	n/a	START	237465	n/a	LTP324	ltpFR2	3	n/a	n/a	n/a	2	n/a	n/a	n/a	n/a
476.05	n/a	DISTRACTOR	238025	n/a	LTP324	ltpFR2	3	1	n/a	n/a	n/a	n/a	0	0	0
476.064	n/a	PROB	238032	n/a	LTP324	ltpFR2	3	n/a	n/a	n/a	2	21	9	7	5
477.782	n/a	PROB	238891	n/a	LTP324	ltpFR2	3	n/a	n/a	n/a	2	19	9	7	3
479.432	n/a	PROB	239716	n/a	LTP324	ltpFR2	3	n/a	n/a	n/a	2	11	2	6	3
480.866	n/a	PROB	240433	n/a	LTP324	ltpFR2	3	n/a	n/a	n/a	2	14	4	4	6
482.136	n/a	PROB	241068	n/a	LTP324	ltpFR2	3	n/a	n/a	n/a	2	20	7	7	6
483.886	n/a	PROB	241943	n/a	LTP324	ltpFR2	3	n/a	n/a	n/a	2	17	3	5	9
486.054	n/a	PROB	243027	n/a	LTP324	ltpFR2	3	n/a	n/a	n/a	2	17	6	6	5
488.072	n/a	PROB	244036	n/a	LTP324	ltpFR2	3	n/a	n/a	n/a	2	19	5	9	5
489.674	n/a	PROB	244837	n/a	LTP324	ltpFR2	3	n/a	n/a	n/a	2	12	7	2	3
491.042	n/a	PROB	245521	n/a	LTP324	ltpFR2	3	n/a	n/a	n/a	2	17	7	1	9
492.526	n/a	PROB	246263	n/a	LTP324	ltpFR2	3	n/a	n/a	n/a	2	18	6	7	5
494.01	n/a	PROB	247005	n/a	LTP324	ltpFR2	3	n/a	n/a	n/a	2	10	2	1	6
495.028	n/a	PROB	247514	n/a	LTP324	ltpFR2	3	n/a	n/a	n/a	2	25	9	8	8
496.914	n/a	PROB	248457	n/a	LTP324	ltpFR2	3	n/a	n/a	n/a	2	17	5	7	5
497.84	n/a	STOP	248920	n/a	LTP324	ltpFR2	3	n/a	n/a	n/a	2	n/a	n/a	n/a	n/a
500.868	n/a	REC_START	250434	n/a	LTP324	ltpFR2	3	1	n/a	n/a	n/a	n/a	0	0	0
502.086	n/a	REC_WORD	251043	wordpools/wasnorm_wordpool_576.txt	LTP324	ltpFR2	3	1	PAIL	1002	n/a	n/a	0	0	0
504.678	n/a	REC_WORD	252339	wordpools/wasnorm_wordpool_576.txt	LTP324	ltpFR2	3	1	WASP	1593	n/a	n/a	0	0	0
507.354	n/a	REC_WORD	253677	wordpools/wasnorm_wordpool_576.txt	LTP324	ltpFR2	3	1	CABIN	211	n/a	n/a	0	0	0
516.18	n/a	REC_WORD	258090	wordpools/wasnorm_wordpool_576.txt	LTP324	ltpFR2	3	1	PAPER	1011	n/a	n/a	0	0	0
517.798	n/a	REC_WORD	258899	wordpools/wasnorm_wordpool_576.txt	LTP324	ltpFR2	3	1	TWIG	1527	n/a	n/a	0	0	0
519.292	n/a	REC_WORD	259646	wordpools/wasnorm_wordpool_576.txt	LTP324	ltpFR2	3	1	KLEENEX	782	n/a	n/a	0	0	0
521.662	n/a	REC_WORD	260831	wordpools/wasnorm_wordpool_576.txt	LTP324	ltpFR2	3	1	MACHINE	852	n/a	n/a	0	0	0
523.814	n/a	REC_WORD	261907	wordpools/wasnorm_wordpool_576.txt	LTP324	ltpFR2	3	1	ROBOT	1200	n/a	n/a	0	0	0
530.19	n/a	REC_WORD	265095	wordpools/wasnorm_wordpool_576.txt	LTP324	ltpFR2	3	1	COMPASS	358	n/a	n/a	0	0	0
532.162	n/a	REC_WORD	266081	wordpools/wasnorm_wordpool_576.txt	LTP324	ltpFR2	3	1	OUTFIT	988	n/a	n/a	0	0	0
534.138	n/a	REC_WORD	267069	wordpools/wasnorm_wordpool_576.txt	LTP324	ltpFR2	3	1	YOLK	1633	n/a	n/a	0	0	0
550.178	n/a	REC_WORD	275089	wordpools/wasnorm_wordpool_576.txt	LTP324	ltpFR2	3	1	ROBOT	1200	n/a	n/a	0	0	0
613.588	n/a	WORD	306794	wordpools/wasnorm_wordpool_576.txt	LTP324	ltpFR2	3	2	PECAN	1036	n/a	n/a	0	0	0
616.334	n/a	WORD	308167	wordpools/wasnorm_wordpool_576.txt	LTP324	ltpFR2	3	2	VICTIM	1562	n/a	n/a	0	0	0
619.042	n/a	WORD	309521	wordpools/wasnorm_wordpool_576.txt	LTP324	ltpFR2	3	2	GRIZZLY	662	n/a	n/a	0	0	0
621.572	n/a	WORD	310786	wordpools/wasnorm_wordpool_576.txt	LTP324	ltpFR2	3	2	PISTON	1076	n/a	n/a	0	0	0
624.212	n/a	WORD	312106	wordpools/wasnorm_wordpool_576.txt	LTP324	ltpFR2	3	2	TUBA	1515	n/a	n/a	0	0	0
626.898	n/a	WORD	313449	wordpools/wasnorm_wordpool_576.txt	LTP324	ltpFR2	3	2	CHILD	299	n/a	n/a	0	0	0
629.712	n/a	WORD	314856	wordpools/wasnorm_wordpool_576.txt	LTP324	ltpFR2	3	2	LONDON	843	n/a	n/a	0	0	0
632.262	n/a	WORD	316131	wordpools/wasnorm_wordpool_576.txt	LTP324	ltpFR2	3	2	RACKET	1155	n/a	n/a	0	0	0
635.022	n/a	WORD	317511	wordpools/wasnorm_wordpool_576.txt	LTP324	ltpFR2	3	2	PIZZA	1079	n/a	n/a	0	0	0
637.752	n/a	WORD	318876	wordpools/wasnorm_wordpool_576.txt	LTP324	ltpFR2	3	2	MASK	876	n/a	n/a	0	0	0
640.454	n/a	WORD	320227	wordpools/wasnorm_wordpool_576.txt	LTP324	ltpFR2	3	2	THIEF	1456	n/a	n/a	0	0	0
643.122	n/a	WORD	321561	wordpools/wasnorm_wordpool_576.txt	LTP324	ltpFR2	3	2	CASHEW	253	n/a	n/a	0	0	0
645.942	n/a	WORD	322971	wordpools/wasnorm_wordpool_576.txt	LTP324	ltpFR2	3	2	PEANUT	1032	n/a	n/a	0	0	0
648.394	n/a	WORD	324197	wordpools/wasnorm_wordpool_576.txt	LTP324	ltpFR2	3	2	CLIMBER	323	n/a	n/a	0	0	0
651.144	n/a	WORD	325572	wordpools/wasnorm_wordpool_576.txt	LTP324	ltpFR2	3	2	KNAPSACK	783	n/a	n/a	0	0	0
653.918	n/a	WORD	326959	wordpools/wasnorm_wordpool_576.txt	LTP324	ltpFR2	3	2	SUSPECT	1415	n/a	n/a	0	0	0
656.468	n/a	WORD	328234	wordpools/wasnorm_wordpool_576.txt	LTP324	ltpFR2	3	2	KIDNEY	776	n/a	n/a	0	0	0
659.286	n/a	WORD	329643	wordpools/wasnorm_wordpool_576.txt	LTP324	ltpFR2	3	2	PICTURE	1061	n/a	n/a	0	0	0
661.706	n/a	WORD	330853	wordpools/wasnorm_wordpool_576.txt	LTP324	ltpFR2	3	2	DASHBOARD	441	n/a	n/a	0	0	0
664.46	n/a	WORD	332230	wordpools/wasnorm_wordpool_576.txt	LTP324	ltpFR2	3	2	WIFE	1609	n/a	n/a	0	0	0
667.242	n/a	WORD	333621	wordpools/wasnorm_wordpool_576.txt	LTP324	ltpFR2	3	2	KNIFE	785	n/a	n/a	0	0	0
669.912	n/a	WORD	334956	wordpools/wasnorm_wordpool_576.txt	LTP324	ltpFR2	3	2	BUTCHER	203	n/a	n/a	0	0	0
672.38	n/a	WORD	336190	wordpools/wasnorm_wordpool_576.txt	LTP324	ltpFR2	3	2	VALLEY	1545	n/a	n/a	0	0	0
675.1	n/a	WORD	337550	wordpools/wasnorm_wordpool_576.txt	LTP324	ltpFR2	3	2	CAPTIVE	240	n/a	n/a	0	0	0
676.704	n/a	START	338352	n/a	LTP324	ltpFR2	3	n/a	n/a	n/a	3	n/a	n/a	n/a	n/a
677.824	n/a	DISTRACTOR	338912	n/a	LTP324	ltpFR2	3	2	n/a	n/a	n/a	n/a	0	0	0
677.834	n/a	PROB	338917	n/a	LTP324	ltpFR2	3	n/a	n/a	n/a	3	17	5	4	8
679.772	n/a	PROB	339886	n/a	LTP324	ltpFR2	3	n/a	n/a	n/a	3	15	7	3	5
681.254	n/a	PROB	340627	n/a	LTP324	ltpFR2	3	n/a	n/a	n/a	3	22	5	8	9
684.04	n/a	PROB	342020	n/a	LTP324	ltpFR2	3	n/a	n/a	n/a	3	19	8	5	6
685.274	n/a	PROB	342637	n/a	LTP324	ltpFR2	3	n/a	n/a	n/a	3	13	4	4	5
687.458	n/a	PROB	343729	n/a	LTP324	ltpFR2	3	n/a	n/a	n/a	3	8	3	4	1
688.292	n/a	PROB	344146	n/a	LTP324	ltpFR2	3	n/a	n/a	n/a	3	16	8	7	1
689.126	n/a	PROB	344563	n/a	LTP324	ltpFR2	3	n/a	n/a	n/a	3	16	6	9	1
690.278	n/a	PROB	345139	n/a	LTP324	ltpFR2	3	n/a	n/a	n/a	3	13	5	7	1
691.212	n/a	PROB	345606	n/a	LTP324	ltpFR2	3	n/a	n/a	n/a	3	14	4	4	6
692.716	n/a	PROB	346358	n/a	LTP324	ltpFR2	3	n/a	n/a	n/a	3	16	3	8	5
694.264	n/a	PROB	347132	n/a	LTP324	ltpFR2	3	n/a	n/a	n/a	3	17	8	5	4
695.868	n/a	PROB	347934	n/a	LTP324	ltpFR2	3	n/a	n/a	n/a	3	12	1	3	8
696.752	n/a	PROB	348376	n/a	LTP324	ltpFR2	3	n/a	n/a	n/a	3	8	3	1	4
698.002	n/a	PROB	349001	n/a	LTP324	ltpFR2	3	n/a	n/a	n/a	3	17	7	9	1
699.104	n/a	PROB	349552	n/a	LTP324	ltpFR2	3	n/a	n/a	n/a	3	10	2	6	2
700.076	n/a	STOP	350038	n/a	LTP324	ltpFR2	3	n/a	n/a	n/a	3	n/a	n/a	n/a	n/a
702.574	n/a	REC_START	351287	n/a	LTP324	ltpFR2	3	2	n/a	n/a	n/a	n/a	0	0	0
705.462	n/a	REC_WORD	352731	wordpools/wasnorm_wordpool_576.txt	LTP324	ltpFR2	3	2	WIFE	1609	n/a	n/a	0	0	0
706.124	n/a	REC_WORD	353062	wordpools/wasnorm_wordpool_576.txt	LTP324	ltpFR2	3	2	KNIFE	785	n/a	n/a	0	0	0
706.846	n/a	REC_WORD	353423	wordpools/wasnorm_wordpool_576.txt	LTP324	ltpFR2	3	2	DASHBOARD	441	n/a	n/a	0	0	0
708.01	n/a	REC_WORD	354005	wordpools/wasnorm_wordpool_576.txt	LTP324	ltpFR2	3	2	GRIZZLY	662	n/a	n/a	0	0	0
708.574	n/a	REC_WORD	354287	wordpools/wasnorm_wordpool_576.txt	LTP324	ltpFR2	3	2	PISTON	1076	n/a	n/a	0	0	0
714.906	n/a	REC_WORD	357453	wordpools/wasnorm_wordpool_576.txt	LTP324	ltpFR2	3	2	PECAN	1036	n/a	n/a	0	0	0
716.906	n/a	REC_WORD	358453	wordpools/wasnorm_wordpool_576.txt	LTP324	ltpFR2	3	2	CASHEW	253	n/a	n/a	0	0	0
718.4	n/a	REC_WORD	359200	wordpools/wasnorm_wordpool_576.txt	LTP324	ltpFR2	3	2	VICTIM	1562	n/a	n/a	0	0	0
719.922	n/a	REC_WORD	359961	wordpools/wasnorm_wordpool_576.txt	LTP324	ltpFR2	3	2	SUSPECT	1415	n/a	n/a	0	0	0
727.772	n/a	REC_WORD	363886	wordpools/wasnorm_wordpool_576.txt	LTP324	ltpFR2	3	2	PIZZA	1079	n/a	n/a	0	0	0
729.484	n/a	REC_WORD	364742	wordpools/wasnorm_wordpool_576.txt	LTP324	ltpFR2	3	2	RACKET	1155	n/a	n/a	0	0	0
730.986	n/a	REC_WORD	365493	wordpools/wasnorm_wordpool_576.txt	LTP324	ltpFR2	3	2	MASK	876	n/a	n/a	0	0	0
793.01	n/a	WORD	396505	wordpools/wasnorm_wordpool_576.txt	LTP324	ltpFR2	3	3	DINER	467	n/a	n/a	0	0	0
795.652	n/a	WORD	397826	wordpools/wasnorm_wordpool_576.txt	LTP324	ltpFR2	3	3	NOVEL	960	n/a	n/a	0	0	0
798.098	n/a	WORD	399049	wordpools/wasnorm_wordpool_576.txt	LTP324	ltpFR2	3	3	SUBWAY	1400	n/a	n/a	0	0	0
800.8	n/a	WORD	400400	wordpools/wasnorm_wordpool_576.txt	LTP324	ltpFR2	3	3	THRONE	1461	n/a	n/a	0	0	0
803.476	n/a	WORD	401738	wordpools/wasnorm_wordpool_576.txt	LTP324	ltpFR2	3	3	CAFE	216	n/a	n/a	0	0	0
806.022	n/a	WORD	403011	wordpools/wasnorm_wordpool_576.txt	LTP324	ltpFR2	3	3	MARKET	871	n/a	n/a	0	0	0
808.822	n/a	WORD	404411	wordpools/wasnorm_wordpool_576.txt	LTP324	ltpFR2	3	3	PARROT	1015	n/a	n/a	0	0	0
811.29	n/a	WORD	405645	wordpools/wasnorm_wordpool_576.txt	LTP324	ltpFR2	3	3	PRINCESS	1125	n/a	n/a	0	0	0
814.044	n/a	WORD	407022	wordpools/wasnorm_wordpool_576.txt	LTP324	ltpFR2	3	3	HELMET	702	n/a	n/a	0	0	0
816.764	n/a	WORD	408382	wordpools/wasnorm_wordpool_576.txt	LTP324	ltpFR2	3	3	HOOD	714	n/a	n/a	0	0	0
819.406	n/a	WORD	409703	wordpools/wasnorm_wordpool_576.txt	LTP324	ltpFR2	3	3	ORANGE	980	n/a	n/a	0	0	0
822.124	n/a	WORD	411062	wordpools/wasnorm_wordpool_576.txt	LTP324	ltpFR2	3	3	HAWK	692	n/a	n/a	0	0	0
824.702	n/a	WORD	412351	wordpools/wasnorm_wordpool_576.txt	LTP324	ltpFR2	3	3	SLUG	1329	n/a	n/a	0	0	0
827.32	n/a	WORD	413660	wordpools/wasnorm_wordpool_576.txt	LTP324	ltpFR2	3	3	PLIERS	1089	n/a	n/a	0	0	0
829.798	n/a	WORD	414899	wordpools/wasnorm_wordpool_576.txt	LTP324	ltpFR2	3	3	WRENCH	1625	n/a	n/a	0	0	0
832.316	n/a	WORD	416158	wordpools/wasnorm_wordpool_576.txt	LTP324	ltpFR2	3	3	BUG	187	n/a	n/a	0	0	0
835.002	n/a	WORD	417501	wordpools/wasnorm_wordpool_576.txt	LTP324	ltpFR2	3	3	YARN	1631	n/a	n/a	0	0	0
837.43	n/a	WORD	418715	wordpools/wasnorm_wordpool_576.txt	LTP324	ltpFR2	3	3	ASIA	46	n/a	n/a	0	0	0
839.89	n/a	WORD	419945	wordpools/wasnorm_wordpool_576.txt	LTP324	ltpFR2	3	3	BARREL	91	n/a	n/a	0	0	0
842.584	n/a	WORD	421292	wordpools/wasnorm_wordpool_576.txt	LTP324	ltpFR2	3	3	FRUIT	610	n/a	n/a	0	0	0
845.06	n/a	WORD	422530	wordpools/wasnorm_wordpool_576.txt	LTP324	ltpFR2	3	3	RATTLE	1170	n/a	n/a	0	0	0
847.554	n/a	WORD	423777	wordpools/wasnorm_wordpool_576.txt	LTP324	ltpFR2	3	3	MOTOR	922	n/a	n/a	0	0	0
850.332	n/a	WORD	425166	wordpools/wasnorm_wordpool_576.txt	LTP324	ltpFR2	3	3	GARDEN	623	n/a	n/a	0	0	0
852.818	n/a	WORD	426409	wordpools/wasnorm_wordpool_576.txt	LTP324	ltpFR2	3	3	CITRUS	313	n/a	n/a	0	0	0
854.426	n/a	START	427213	n/a	LTP324	ltpFR2	3	n/a	n/a	n/a	4	n/a	n/a	n/a	n/a
855.594	n/a	DISTRACTOR	427797	n/a	LTP324	ltpFR2	3	3	n/a	n/a	n/a	n/a	0	0	0
855.602	n/a	PROB	427801	n/a	LTP324	ltpFR2	3	n/a	n/a	n/a	4	9	1	4	4
856.676	n/a	PROB	428338	n/a	LTP324	ltpFR2	3	n/a	n/a	n/a	4	20	8	7	5
859.644	n/a	PROB	429822	n/a	LTP324	ltpFR2	3	n/a	n/a	n/a	4	19	9	6	4
861.128	n/a	PROB	430564	n/a	LTP324	ltpFR2	3	n/a	n/a	n/a	4	10	2	4	4
861.964	n/a	PROB	430982	n/a	LTP324	ltpFR2	3	n/a	n/a	n/a	4	10	3	4	3
863.132	n/a	PROB	431566	n/a	LTP324	ltpFR2	3	n/a	n/a	n/a	4	15	7	8	1
863.916	n/a	PROB	431958	n/a	LTP324	ltpFR2	3	n/a	n/a	n/a	4	17	7	4	6
865.148	n/a	PROB	432574	n/a	LTP324	ltpFR2	3	n/a	n/a	n/a	4	17	4	6	7
866.118	n/a	PROB	433059	n/a	LTP324	ltpFR2	3	n/a	n/a	n/a	4	9	3	5	1
867.034	n/a	PROB	433517	n/a	LTP324	ltpFR2	3	n/a	n/a	n/a	4	13	1	4	8
867.952	n/a	PROB	433976	n/a	LTP324	ltpFR2	3	n/a	n/a	n/a	4	9	6	2	1
869.218	n/a	PROB	434609	n/a	LTP324	ltpFR2	3	n/a	n/a	n/a	4	13	5	4	4
871.072	n/a	PROB	435536	n/a	LTP324	ltpFR2	3	n/a	n/a	n/a	4	22	4	9	9
872.272	n/a	PROB	436136	n/a	LTP324	ltpFR2	3	n/a	n/a	n/a	4	9	2	3	4
873.772	n/a	PROB	436886	n/a	LTP324	ltpFR2	3	n/a	n/a	n/a	4	15	2	5	8
875.074	n/a	PROB	437537	n/a	LTP324	ltpFR2	3	n/a	n/a	n/a	4	17	1	9	7
878.426	n/a	STOP	439213	n/a	LTP324	ltpFR2	3	n/a	n/a	n/a	4	n/a	n/a	n/a	n/a
880.262	n/a	REC_START	440131	n/a	LTP324	ltpFR2	3	3	n/a	n/a	n/a	n/a	0	0	0
886.662	n/a	REC_WORD	443331	wordpools/wasnorm_wordpool_576.txt	LTP324	ltpFR2	3	3	DINER	467	n/a	n/a	0	0	0
888.01	n/a	REC_WORD	444005	wordpools/wasnorm_wordpool_576.txt	LTP324	ltpFR2	3	3	CAFE	216	n/a	n/a	0	0	0
890.312	n/a	REC_WORD	445156	wordpools/wasnorm_wordpool_576.txt	LTP324	ltpFR2	3	3	SUBWAY	1400	n/a	n/a	0	0	0
893.558	n/a	REC_WORD	446779	wordpools/wasnorm_wordpool_576.txt	LTP324	ltpFR2	3	3	NOVEL	960	n/a	n/a	0	0	0
901.718	n/a	REC_WORD	450859	wordpools/wasnorm_wordpool_576.txt	LTP324	ltpFR2	3	3	HELMET	702	n/a	n/a	0	0	0
903.946	n/a	REC_WORD	451973	wordpools/wasnorm_wordpool_576.txt	LTP324	ltpFR2	3	3	HOOD	714	n/a	n/a	0	0	0
916.24	n/a	REC_WORD	458120	wordpools/wasnorm_wordpool_576.txt	LTP324	ltpFR2	3	3	ORANGE	980	n/a	n/a	0	0	0
970.716	n/a	DISTRACTOR	485358	n/a	LTP324	ltpFR2	3	4	n/a	n/a	n/a	n/a	0	0	0
970.716	n/a	START	485358	n/a	LTP324	ltpFR2	3	n/a	n/a	n/a	5	n/a	n/a	n/a	n/a
970.732	n/a	PROB	485366	n/a	LTP324	ltpFR2	3	n/a	n/a	n/a	5	6	4	1	1
971.732	n/a	PROB	485866	n/a	LTP324	ltpFR2	3	n/a	n/a	n/a	5	16	9	2	5
973.434	n/a	PROB	486717	n/a	LTP324	ltpFR2	3	n/a	n/a	n/a	5	19	6	5	8
975.3	n/a	PROB	487650	n/a	LTP324	ltpFR2	3	n/a	n/a	n/a	5	11	2	5	4
976.486	n/a	PROB	488243	n/a	LTP324	ltpFR2	3	n/a	n/a	n/a	5	14	7	2	6
977.586	n/a	PROB	488793	n/a	LTP324	ltpFR2	3	n/a	n/a	n/a	5	11	2	8	1
979.22	n/a	PROB	489610	n/a	LTP324	ltpFR2	3	n/a	n/a	n/a	5	13	1	6	6
980.354	n/a	PROB	490177	n/a	LTP324	ltpFR2	3	n/a	n/a	n/a	5	18	2	8	8
981.572	n/a	PROB	490786	n/a	LTP324	ltpFR2	3	n/a	n/a	n/a	5	14	4	3	7
982.858	n/a	PROB	491429	n/a	LTP324	ltpFR2	3	n/a	n/a	n/a	5	20	9	8	3
984.208	n/a	PROB	492104	n/a	LTP324	ltpFR2	3	n/a	n/a	n/a	5	17	8	4	5
985.778	n/a	PROB	492889	n/a	LTP324	ltpFR2	3	n/a	n/a	n/a	5	12	6	4	2
987.512	n/a	PROB	493756	n/a	LTP324	ltpFR2	3	n/a	n/a	n/a	5	12	8	1	3
988.88	n/a	PROB	494440	n/a	LTP324	ltpFR2	3	n/a	n/a	n/a	5	19	9	9	1
989.746	n/a	PROB	494873	n/a	LTP324	ltpFR2	3	n/a	n/a	n/a	5	15	6	5	4
990.68	n/a	PROB	495340	n/a	LTP324	ltpFR2	3	n/a	n/a	n/a	5	16	7	4	5
994.716	n/a	STOP	497358	n/a	LTP324	ltpFR2	3	n/a	n/a	n/a	5	n/a	n/a	n/a	n/a
995.568	n/a	WORD	497784	wordpools/wasnorm_wordpool_576.txt	LTP324	ltpFR2	3	4	CAMEL	223	n/a	n/a	0	0	0
998.02	n/a	WORD	499010	wordpools/wasnorm_wordpool_576.txt	LTP324	ltpFR2	3	4	COIN	343	n/a	n/a	0	0	0
1000.472	n/a	WORD	500236	wordpools/wasnorm_wordpool_576.txt	LTP324	ltpFR2	3	4	SAUSAGE	1238	n/a	n/a	0	0	0
1003.24	n/a	WORD	501620	wordpools/wasnorm_wordpool_576.txt	LTP324	ltpFR2	3	4	COTTAGE	384	n/a	n/a	0	0	0
1005.998	n/a	WORD	502999	wordpools/wasnorm_wordpool_576.txt	LTP324	ltpFR2	3	4	QUARTER	1148	n/a	n/a	0	0	0
1008.446	n/a	WORD	504223	wordpools/wasnorm_wordpool_576.txt	LTP324	ltpFR2	3	4	CONVICT	371	n/a	n/a	0	0	0
1011.23	n/a	WORD	505615	wordpools/wasnorm_wordpool_576.txt	LTP324	ltpFR2	3	4	SWITCH	1422	n/a	n/a	0	0	0
1013.716	n/a	WORD	506858	wordpools/wasnorm_wordpool_576.txt	LTP324	ltpFR2	3	4	DRESSER	496	n/a	n/a	0	0	0
1016.3	n/a	WORD	508150	wordpools/wasnorm_wordpool_576.txt	LTP324	ltpFR2	3	4	CROSS	413	n/a	n/a	0	0	0
1018.77	n/a	WORD	509385	wordpools/wasnorm_wordpool_576.txt	LTP324	ltpFR2	3	4	TEMPLE	1448	n/a	n/a	0	0	0
1021.226	n/a	WORD	510613	wordpools/wasnorm_wordpool_576.txt	LTP324	ltpFR2	3	4	FLASHLIGHT	575	n/a	n/a	0	0	0
1023.994	n/a	WORD	511997	wordpools/wasnorm_wordpool_576.txt	LTP324	ltpFR2	3	4	EMPIRE	530	n/a	n/a	0	0	0
1026.496	n/a	WORD	513248	wordpools/wasnorm_wordpool_576.txt	LTP324	ltpFR2	3	4	EGYPT	519	n/a	n/a	0	0	0
1028.944	n/a	WORD	514472	wordpools/wasnorm_wordpool_576.txt	LTP324	ltpFR2	3	4	BRIEFCASE	175	n/a	n/a	0	0	0
1031.518	n/a	WORD	515759	wordpools/wasnorm_wordpool_576.txt	LTP324	ltpFR2	3	4	GLOVE	642	n/a	n/a	0	0	0
1034.338	n/a	WORD	517169	wordpools/wasnorm_wordpool_576.txt	LTP324	ltpFR2	3	4	FINGER	567	n/a	n/a	0	0	0
1036.8	n/a	WORD	518400	wordpools/wasnorm_wordpool_576.txt	LTP324	ltpFR2	3	4	TABLE	1426	n/a	n/a	0	0	0
1039.526	n/a	WORD	519763	wordpools/wasnorm_wordpool_576.txt	LTP324	ltpFR2	3	4	AWARD	63	n/a	n/a	0	0	0
1042.072	n/a	WORD	521036	wordpools/wasnorm_wordpool_576.txt	LTP324	ltpFR2	3	4	SHOULDER	1294	n/a	n/a	0	0	0
1044.506	n/a	WORD	522253	wordpools/wasnorm_wordpool_576.txt	LTP324	ltpFR2	3	4	DUSTPAN	509	n/a	n/a	0	0	0
1047.298	n/a	WORD	523649	wordpools/wasnorm_wordpool_576.txt	LTP324	ltpFR2	3	4	PADDING	999	n/a	n/a	0	0	0
1049.878	n/a	WORD	524939	wordpools/wasnorm_wordpool_576.txt	LTP324	ltpFR2	3	4	PIMPLE	1071	n/a	n/a	0	0	0
1052.546	n/a	WORD	526273	wordpools/wasnorm_wordpool_576.txt	LTP324	ltpFR2	3	4	TWEEZERS	1526	n/a	n/a	0	0	0
1055.356	n/a	WORD	527678	wordpools/wasnorm_wordpool_576.txt	LTP324	ltpFR2	3	4	GIFT	635	n/a	n/a	0	0	0
1056.968	n/a	START	528484	n/a	LTP324	ltpFR2	3	n/a	n/a	n/a	6	n/a	n/a	n/a	n/a
1057.974	n/a	DISTRACTOR	528987	n/a	LTP324	ltpFR2	3	4	n/a	n/a	n/a	n/a	0	0	0
1057.984	n/a	PROB	528992	n/a	LTP324	ltpFR2	3	n/a	n/a	n/a	6	18	2	9	7
1059.084	n/a	PROB	529542	n/a	LTP324	ltpFR2	3	n/a	n/a	n/a	6	11	1	1	9
1059.902	n/a	PROB	529951	n/a	LTP324	ltpFR2	3	n/a	n/a	n/a	6	13	5	2	6
1060.968	n/a	PROB	530484	n/a	LTP324	ltpFR2	3	n/a	n/a	n/a	6	22	6	8	8
1062.468	n/a	PROB	531234	n/a	LTP324	ltpFR2	3	n/a	n/a	n/a	6	14	4	2	8
1063.936	n/a	PROB	531968	n/a	LTP324	ltpFR2	3	n/a	n/a	n/a	6	17	9	4	5
1065.204	n/a	PROB	532602	n/a	LTP324	ltpFR2	3	n/a	n/a	n/a	6	13	1	8	4
1066.506	n/a	PROB	533253	n/a	LTP324	ltpFR2	3	n/a	n/a	n/a	6	14	5	8	1
1068.056	n/a	PROB	534028	n/a	LTP324	ltpFR2	3	n/a	n/a	n/a	6	19	3	7	9
1069.376	n/a	PROB	534688	n/a	LTP324	ltpFR2	3	n/a	n/a	n/a	6	13	7	1	5
1070.324	n/a	PROB	535162	n/a	LTP324	ltpFR2	3	n/a	n/a	n/a	6	19	6	8	5
1071.51	n/a	PROB	535755	n/a	LTP324	ltpFR2	3	n/a	n/a	n/a	6	18	9	3	6
1072.994	n/a	PROB	536497	n/a	LTP324	ltpFR2	3	n/a	n/a	n/a	6	19	8	8	3
1074.126	n/a	PROB	537063	n/a	LTP324	ltpFR2	3	n/a	n/a	n/a	6	13	4	6	3
1075.146	n/a	PROB	537573	n/a	LTP324	ltpFR2	3	n/a	n/a	n/a	6	1	6	5	2
1076.162	n/a	PROB	538081	n/a	LTP324	ltpFR2	3	n/a	n/a	n/a	6	14	1	8	5
1077.196	n/a	PROB	538598	n/a	LTP324	ltpFR2	3	n/a	n/a	n/a	6	18	4	6	8
1078.698	n/a	PROB	539349	n/a	LTP324	ltpFR2	3	n/a	n/a	n/a	6	13	5	4	2
1080.346	n/a	STOP	540173	n/a	LTP324	ltpFR2	3	n/a	n/a	n/a	6	n/a	n/a	n/a	n/a
1082.836	n/a	REC_START	541418	n/a	LTP324	ltpFR2	3	4	n/a	n/a	n/a	n/a	0	0	0
1087.698	n/a	REC_WORD	543849	wordpools/wasnorm_wordpool_576.txt	LTP324	ltpFR2	3	4	FINGER	567	n/a	n/a	0	0	0
1090.082	n/a	REC_WORD	545041	wordpools/wasnorm_wordpool_576.txt	LTP324	ltpFR2	3	4	SHOULDER	1294	n/a	n/a	0	0	0
1095.842	n/a	REC_WORD	547921	wordpools/wasnorm_wordpool_576.txt	LTP324	ltpFR2	3	4	CROSS	413	n/a	n/a	0	0	0
1096.98	n/a	REC_WORD	548490	wordpools/wasnorm_wordpool_576.txt	LTP324	ltpFR2	3	4	TEMPLE	1448	n/a	n/a	0	0	0
1098.436	n/a	REC_WORD	549218	wordpools/wasnorm_wordpool_576.txt	LTP324	ltpFR2	3	4	SUITCASE	1403	n/a	n/a	0	0	0
1100.27	n/a	REC_WORD	550135	wordpools/wasnorm_wordpool_576.txt	LTP324	ltpFR2	3	4	CONVICT	371	n/a	n/a	0	0	0
1101.63	n/a	REC_WORD	550815	wordpools/wasnorm_wordpool_576.txt	LTP324	ltpFR2	3	4	COTTAGE	384	n/a	n/a	0	0	0
1102.724	n/a	REC_WORD	551362	wordpools/wasnorm_wordpool_576.txt	LTP324	ltpFR2	3	4	SWITCH	1422	n/a	n/a	0	0	0
1104.252	n/a	REC_WORD	552126	wordpools/wasnorm_wordpool_576.txt	LTP324	ltpFR2	3	4	DRESSER	496	n/a	n/a	0	0	0
1119.02	n/a	REC_WORD	559510	wordpools/wasnorm_wordpool_576.txt	LTP324	ltpFR2	3	4	CAMEL	223	n/a	n/a	0	0	0
1119.73	n/a	REC_WORD	559865	wordpools/wasnorm_wordpool_576.txt	LTP324	ltpFR2	3	4	COIN	343	n/a	n/a	0	0	0
1120.268	n/a	REC_WORD	560134	wordpools/wasnorm_wordpool_576.txt	LTP324	ltpFR2	3	4	SAUSAGE	1238	n/a	n/a	0	0	0
1127.736	n/a	REC_WORD	563868	wordpools/wasnorm_wordpool_576.txt	LTP324	ltpFR2	3	4	QUARTER	1148	n/a	n/a	0	0	0
1208.85	n/a	DISTRACTOR	604425	n/a	LTP324	ltpFR2	3	5	n/a	n/a	n/a	n/a	0	0	0
1208.852	n/a	START	604426	n/a	LTP324	ltpFR2	3	n/a	n/a	n/a	7	n/a	n/a	n/a	n/a
1208.866	n/a	PROB	604433	n/a	LTP324	ltpFR2	3	n/a	n/a	n/a	7	1	3	7	9
1211.218	n/a	PROB	605609	n/a	LTP324	ltpFR2	3	n/a	n/a	n/a	7	15	8	4	3
1212.57	n/a	PROB	606285	n/a	LTP324	ltpFR2	3	n/a	n/a	n/a	7	11	6	3	2
1213.954	n/a	PROB	606977	n/a	LTP324	ltpFR2	3	n/a	n/a	n/a	7	18	8	5	5
1214.838	n/a	PROB	607419	n/a	LTP324	ltpFR2	3	n/a	n/a	n/a	7	18	6	9	3
1216.222	n/a	PROB	608111	n/a	LTP324	ltpFR2	3	n/a	n/a	n/a	7	14	7	2	5
1218.158	n/a	PROB	609079	n/a	LTP324	ltpFR2	3	n/a	n/a	n/a	7	17	9	1	7
1219.292	n/a	PROB	609646	n/a	LTP324	ltpFR2	3	n/a	n/a	n/a	7	18	7	5	6
1221.76	n/a	PROB	610880	n/a	LTP324	ltpFR2	3	n/a	n/a	n/a	7	14	4	9	1
1222.68	n/a	PROB	611340	n/a	LTP324	ltpFR2	3	n/a	n/a	n/a	7	10	3	5	2
1224.03	n/a	PROB	612015	n/a	LTP324	ltpFR2	3	n/a	n/a	n/a	7	13	1	9	3
1225.18	n/a	PROB	612590	n/a	LTP324	ltpFR2	3	n/a	n/a	n/a	7	13	5	3	5
1226.582	n/a	PROB	613291	n/a	LTP324	ltpFR2	3	n/a	n/a	n/a	7	10	5	1	4
1228.382	n/a	PROB	614191	n/a	LTP324	ltpFR2	3	n/a	n/a	n/a	7	17	1	9	7
1229.616	n/a	PROB	614808	n/a	LTP324	ltpFR2	3	n/a	n/a	n/a	7	12	1	7	4
1230.686	n/a	PROB	615343	n/a	LTP324	ltpFR2	3	n/a	n/a	n/a	7	17	7	1	9
1232.1	n/a	STOP	616050	n/a	LTP324	ltpFR2	3	n/a	n/a	n/a	7	n/a	n/a	n/a	n/a
1233.704	n/a	WORD	616852	wordpools/wasnorm_wordpool_576.txt	LTP324	ltpFR2	3	5	CASHIER	254	n/a	n/a	0	0	0
1236.138	n/a	WORD	618069	wordpools/wasnorm_wordpool_576.txt	LTP324	ltpFR2	3	5	BANKER	84	n/a	n/a	0	0	0
1238.574	n/a	WORD	619287	wordpools/wasnorm_wordpool_576.txt	LTP324	ltpFR2	3	5	DRUG	501	n/a	n/a	0	0	0
1241.326	n/a	WORD	620663	wordpools/wasnorm_wordpool_576.txt	LTP324	ltpFR2	3	5	TILE	1468	n/a	n/a	0	0	0
1243.962	n/a	WORD	621981	wordpools/wasnorm_wordpool_576.txt	LTP324	ltpFR2	3	5	STOVE	1388	n/a	n/a	0	0	0
1246.43	n/a	WORD	623215	wordpools/wasnorm_wordpool_576.txt	LTP324	ltpFR2	3	5	SIDEWALK	1303	n/a	n/a	0	0	0
1249.05	n/a	WORD	624525	wordpools/wasnorm_wordpool_576.txt	LTP324	ltpFR2	3	5	PARSLEY	1016	n/a	n/a	0	0	0
1251.788	n/a	WORD	625894	wordpools/wasnorm_wordpool_576.txt	LTP324	ltpFR2	3	5	BUBBLE	183	n/a	n/a	0	0	0
1254.454	n/a	WORD	627227	wordpools/wasnorm_wordpool_576.txt	LTP324	ltpFR2	3	5	LAVA	804	n/a	n/a	0	0	0
1257.172	n/a	WORD	628586	wordpools/wasnorm_wordpool_576.txt	LTP324	ltpFR2	3	5	STONE	1385	n/a	n/a	0	0	0
1259.646	n/a	WORD	629823	wordpools/wasnorm_wordpool_576.txt	LTP324	ltpFR2	3	5	TOMBSTONE	1478	n/a	n/a	0	0	0
1262.208	n/a	WORD	631104	wordpools/wasnorm_wordpool_576.txt	LTP324	ltpFR2	3	5	CELLAR	267	n/a	n/a	0	0	0
1265.012	n/a	WORD	632506	wordpools/wasnorm_wordpool_576.txt	LTP324	ltpFR2	3	5	PREACHER	1119	n/a	n/a	0	0	0
1267.732	n/a	WORD	633866	wordpools/wasnorm_wordpool_576.txt	LTP324	ltpFR2	3	5	BREAST	171	n/a	n/a	0	0	0
1270.198	n/a	WORD	635099	wordpools/wasnorm_wordpool_576.txt	LTP324	ltpFR2	3	5	ROD	1203	n/a	n/a	0	0	0
1272.786	n/a	WORD	636393	wordpools/wasnorm_wordpool_576.txt	LTP324	ltpFR2	3	5	BOUQUET	157	n/a	n/a	0	0	0
1275.504	n/a	WORD	637752	wordpools/wasnorm_wordpool_576.txt	LTP324	ltpFR2	3	5	CRITIC	410	n/a	n/a	0	0	0
1278.176	n/a	WORD	639088	wordpools/wasnorm_wordpool_576.txt	LTP324	ltpFR2	3	5	RIFLE	1192	n/a	n/a	0	0	0
1280.596	n/a	WORD	640298	wordpools/wasnorm_wordpool_576.txt	LTP324	ltpFR2	3	5	PRINCE	1124	n/a	n/a	0	0	0
1283.258	n/a	WORD	641629	wordpools/wasnorm_wordpool_576.txt	LTP324	ltpFR2	3	5	ROOSTER	1209	n/a	n/a	0	0	0
1285.76	n/a	WORD	642880	wordpools/wasnorm_wordpool_576.txt	LTP324	ltpFR2	3	5	GRAVEL	659	n/a	n/a	0	0	0
1288.312	n/a	WORD	644156	wordpools/wasnorm_wordpool_576.txt	LTP324	ltpFR2	3	5	VIKING	1565	n/a	n/a	0	0	0
1290.798	n/a	WORD	645399	wordpools/wasnorm_wordpool_576.txt	LTP324	ltpFR2	3	5	LAMP	798	n/a	n/a	0	0	0
1293.372	n/a	WORD	646686	wordpools/wasnorm_wordpool_576.txt	LTP324	ltpFR2	3	5	MATCH	878	n/a	n/a	0	0	0
1294.986	n/a	START	647493	n/a	LTP324	ltpFR2	3	n/a	n/a	n/a	8	n/a	n/a	n/a	n/a
1295.92	n/a	DISTRACTOR	647960	n/a	LTP324	ltpFR2	3	5	n/a	n/a	n/a	n/a	0	0	0
1295.926	n/a	PROB	647963	n/a	LTP324	ltpFR2	3	n/a	n/a	n/a	8	13	4	5	4
1297.454	n/a	PROB	648727	n/a	LTP324	ltpFR2	3	n/a	n/a	n/a	8	22	7	7	8
1299.97	n/a	PROB	649985	n/a	LTP324	ltpFR2	3	n/a	n/a	n/a	8	15	4	3	8
1301.038	n/a	PROB	650519	n/a	LTP324	ltpFR2	3	n/a	n/a	n/a	8	20	9	7	6
1302.94	n/a	PROB	651470	n/a	LTP324	ltpFR2	3	n/a	n/a	n/a	8	15	1	6	8
1304.574	n/a	PROB	652287	n/a	LTP324	ltpFR2	3	n/a	n/a	n/a	8	10	1	2	7
1305.676	n/a	PROB	652838	n/a	LTP324	ltpFR2	3	n/a	n/a	n/a	8	18	7	2	9
1306.794	n/a	PROB	653397	n/a	LTP324	ltpFR2	3	n/a	n/a	n/a	8	20	9	9	2
1307.744	n/a	PROB	653872	n/a	LTP324	ltpFR2	3	n/a	n/a	n/a	8	9	6	2	1
1308.628	n/a	PROB	654314	n/a	LTP324	ltpFR2	3	n/a	n/a	n/a	8	14	2	4	8
1309.98	n/a	PROB	654990	n/a	LTP324	ltpFR2	3	n/a	n/a	n/a	8	17	8	6	3
1311.18	n/a	PROB	655590	n/a	LTP324	ltpFR2	3	n/a	n/a	n/a	8	19	5	6	8
1313.214	n/a	PROB	656607	n/a	LTP324	ltpFR2	3	n/a	n/a	n/a	8	17	4	9	4
1314.416	n/a	PROB	657208	n/a	LTP324	ltpFR2	3	n/a	n/a	n/a	8	6	2	3	1
1315.816	n/a	PROB	657908	n/a	LTP324	ltpFR2	3	n/a	n/a	n/a	8	18	6	3	9
1317.302	n/a	PROB	658651	n/a	LTP324	ltpFR2	3	n/a	n/a	n/a	8	26	9	9	8
1318.926	n/a	STOP	659463	n/a	LTP324	ltpFR2	3	n/a	n/a	n/a	8	n/a	n/a	n/a	n/a
1320.786	n/a	REC_START	660393	n/a	LTP324	ltpFR2	3	5	n/a	n/a	n/a	n/a	0	0	0
1324.706	n/a	REC_WORD	662353	wordpools/wasnorm_wordpool_576.txt	LTP324	ltpFR2	3	5	BOUQUET	157	n/a	n/a	0	0	0
1326.136	n/a	REC_WORD	663068	wordpools/wasnorm_wordpool_576.txt	LTP324	ltpFR2	3	5	LAMP	798	n/a	n/a	0	0	0
1327.308	n/a	REC_WORD	663654	wordpools/wasnorm_wordpool_576.txt	LTP324	ltpFR2	3	5	MATCH	878	n/a	n/a	0	0	0
1328.44	n/a	REC_WORD	664220	wordpools/wasnorm_wordpool_576.txt	LTP324	ltpFR2	3	5	GRAVEL	659	n/a	n/a	0	0	0
1329.66	n/a	REC_WORD	664830	wordpools/wasnorm_wordpool_576.txt	LTP324	ltpFR2	3	5	VIKING	1565	n/a	n/a	0	0	0
1331.898	n/a	REC_WORD	665949	wordpools/wasnorm_wordpool_576.txt	LTP324	ltpFR2	3	5	SIDEWALK	1303	n/a	n/a	0	0	0
1335.576	n/a	REC_WORD	667788	wordpools/wasnorm_wordpool_576.txt	LTP324	ltpFR2	3	5	LAVA	804	n/a	n/a	0	0	0
1336.89	n/a	REC_WORD	668445	wordpools/wasnorm_wordpool_576.txt	LTP324	ltpFR2	3	5	BUBBLE	183	n/a	n/a	0	0	0
1339.032	n/a	REC_WORD	669516	wordpools/wasnorm_wordpool_576.txt	LTP324	ltpFR2	3	5	PARSLEY	1016	n/a	n/a	0	0	0
1344.216	n/a	REC_WORD	672108	wordpools/wasnorm_wordpool_576.txt	LTP324	ltpFR2	3	5	CASHIER	254	n/a	n/a	0	0	0
1345.516	n/a	REC_WORD	672758	wordpools/wasnorm_wordpool_576.txt	LTP324	ltpFR2	3	5	BANKER	84	n/a	n/a	0	0	0
1349.698	n/a	REC_WORD	674849	wordpools/wasnorm_wordpool_576.txt	LTP324	ltpFR2	3	5	STONE	1385	n/a	n/a	0	0	0
1367.46	n/a	REC_WORD	683730	wordpools/wasnorm_wordpool_576.txt	LTP324	ltpFR2	3	5	TILE	1468	n/a	n/a	0	0	0
1458.094	n/a	WORD	729047	wordpools/wasnorm_wordpool_576.txt	LTP324	ltpFR2	3	6	MUMMY	932	n/a	n/a	0	0	0
1460.598	n/a	WORD	730299	wordpools/wasnorm_wordpool_576.txt	LTP324	ltpFR2	3	6	GRILL	661	n/a	n/a	0	0	0
1463.232	n/a	WORD	731616	wordpools/wasnorm_wordpool_576.txt	LTP324	ltpFR2	3	6	SERVER	1272	n/a	n/a	0	0	0
1465.934	n/a	WORD	732967	wordpools/wasnorm_wordpool_576.txt	LTP324	ltpFR2	3	6	MARKER	870	n/a	n/a	0	0	0
1468.402	n/a	WORD	734201	wordpools/wasnorm_wordpool_576.txt	LTP324	ltpFR2	3	6	MOP	916	n/a	n/a	0	0	0
1470.904	n/a	WORD	735452	wordpools/wasnorm_wordpool_576.txt	LTP324	ltpFR2	3	6	BADGE	68	n/a	n/a	0	0	0
1473.476	n/a	WORD	736738	wordpools/wasnorm_wordpool_576.txt	LTP324	ltpFR2	3	6	COBRA	336	n/a	n/a	0	0	0
1475.96	n/a	WORD	737980	wordpools/wasnorm_wordpool_576.txt	LTP324	ltpFR2	3	6	FOREST	593	n/a	n/a	0	0	0
1478.428	n/a	WORD	739214	wordpools/wasnorm_wordpool_576.txt	LTP324	ltpFR2	3	6	MAMMAL	861	n/a	n/a	0	0	0
1480.964	n/a	WORD	740482	wordpools/wasnorm_wordpool_576.txt	LTP324	ltpFR2	3	6	MEDAL	885	n/a	n/a	0	0	0
1483.502	n/a	WORD	741751	wordpools/wasnorm_wordpool_576.txt	LTP324	ltpFR2	3	6	SILK	1307	n/a	n/a	0	0	0
1486.016	n/a	WORD	743008	wordpools/wasnorm_wordpool_576.txt	LTP324	ltpFR2	3	6	RECEIPT	1173	n/a	n/a	0	0	0
1488.752	n/a	WORD	744376	wordpools/wasnorm_wordpool_576.txt	LTP324	ltpFR2	3	6	WHISTLE	1606	n/a	n/a	0	0	0
1491.186	n/a	WORD	745593	wordpools/wasnorm_wordpool_576.txt	LTP324	ltpFR2	3	6	POISON	1096	n/a	n/a	0	0	0
1493.638	n/a	WORD	746819	wordpools/wasnorm_wordpool_576.txt	LTP324	ltpFR2	3	6	COOKBOOK	373	n/a	n/a	0	0	0
1496.358	n/a	WORD	748179	wordpools/wasnorm_wordpool_576.txt	LTP324	ltpFR2	3	6	ORCHID	982	n/a	n/a	0	0	0
1498.842	n/a	WORD	749421	wordpools/wasnorm_wordpool_576.txt	LTP324	ltpFR2	3	6	JUNGLE	764	n/a	n/a	0	0	0
1501.594	n/a	WORD	750797	wordpools/wasnorm_wordpool_576.txt	LTP324	ltpFR2	3	6	PRIMATE	1123	n/a	n/a	0	0	0
1504.196	n/a	WORD	752098	wordpools/wasnorm_wordpool_576.txt	LTP324	ltpFR2	3	6	AUTHOR	61	n/a	n/a	0	0	0
1506.632	n/a	WORD	753316	wordpools/wasnorm_wordpool_576.txt	LTP324	ltpFR2	3	6	POET	1095	n/a	n/a	0	0	0
1509.074	n/a	WORD	754537	wordpools/wasnorm_wordpool_576.txt	LTP324	ltpFR2	3	6	AGENT	10	n/a	n/a	0	0	0
1511.536	n/a	WORD	755768	wordpools/wasnorm_wordpool_576.txt	LTP324	ltpFR2	3	6	HOOK	715	n/a	n/a	0	0	0
1514.188	n/a	WORD	757094	wordpools/wasnorm_wordpool_576.txt	LTP324	ltpFR2	3	6	BACON	67	n/a	n/a	0	0	0
1516.908	n/a	WORD	758454	wordpools/wasnorm_wordpool_576.txt	LTP324	ltpFR2	3	6	DUST	508	n/a	n/a	0	0	0
1518.516	n/a	START	759258	n/a	LTP324	ltpFR2	3	n/a	n/a	n/a	9	n/a	n/a	n/a	n/a
1519.63	n/a	DISTRACTOR	759815	n/a	LTP324	ltpFR2	3	6	n/a	n/a	n/a	n/a	0	0	0
1519.644	n/a	PROB	759822	n/a	LTP324	ltpFR2	3	n/a	n/a	n/a	9	20	6	6	8
1521.226	n/a	PROB	760613	n/a	LTP324	ltpFR2	3	n/a	n/a	n/a	9	8	6	1	1
1522.144	n/a	PROB	761072	n/a	LTP324	ltpFR2	3	n/a	n/a	n/a	9	9	1	1	7
1522.914	n/a	PROB	761457	n/a	LTP324	ltpFR2	3	n/a	n/a	n/a	9	13	8	4	1
1523.846	n/a	PROB	761923	n/a	LTP324	ltpFR2	3	n/a	n/a	n/a	9	9	2	1	6
1524.662	n/a	PROB	762331	n/a	LTP324	ltpFR2	3	n/a	n/a	n/a	9	18	7	2	9
1527.398	n/a	PROB	763699	n/a	LTP324	ltpFR2	3	n/a	n/a	n/a	9	15	9	2	4
1528.5	n/a	PROB	764250	n/a	LTP324	ltpFR2	3	n/a	n/a	n/a	9	21	5	8	8
1530.034	n/a	PROB	765017	n/a	LTP324	ltpFR2	3	n/a	n/a	n/a	9	20	7	6	7
1531.552	n/a	PROB	765776	n/a	LTP324	ltpFR2	3	n/a	n/a	n/a	9	21	8	5	8
1533.486	n/a	PROB	766743	n/a	LTP324	ltpFR2	3	n/a	n/a	n/a	9	20	9	6	7
1535.722	n/a	PROB	767861	n/a	LTP324	ltpFR2	3	n/a	n/a	n/a	9	10	1	7	2
1537.056	n/a	PROB	768528	n/a	LTP324	ltpFR2	3	n/a	n/a	n/a	9	13	6	3	4
1538.374	n/a	PROB	769187	n/a	LTP324	ltpFR2	3	n/a	n/a	n/a	9	8	3	2	3
1539.374	n/a	PROB	769687	n/a	LTP324	ltpFR2	3	n/a	n/a	n/a	9	14	8	1	3
1541.184	n/a	STOP	770592	n/a	LTP324	ltpFR2	3	n/a	n/a	n/a	9	n/a	n/a	n/a	n/a
1544.328	n/a	REC_START	772164	n/a	LTP324	ltpFR2	3	6	n/a	n/a	n/a	n/a	0	0	0
1546.044	n/a	REC_WORD	773022	wordpools/wasnorm_wordpool_576.txt	LTP324	ltpFR2	3	6	HOOK	715	n/a	n/a	0	0	0
1547.32	n/a	REC_WORD	773660	wordpools/wasnorm_wordpool_576.txt	LTP324	ltpFR2	3	6	BACON	67	n/a	n/a	0	0	0
1552.532	n/a	REC_WORD	776266	wordpools/wasnorm_wordpool_576.txt	LTP324	ltpFR2	3	6	ORCHID	982	n/a	n/a	0	0	0
1556.598	n/a	REC_WORD	778299	wordpools/wasnorm_wordpool_576.txt	LTP324	ltpFR2	3	6	ORCHID	982	n/a	n/a	0	0	0
1570.808	n/a	REC_WORD	785404	wordpools/wasnorm_wordpool_576.txt	LTP324	ltpFR2	3	6	POISON	1096	n/a	n/a	0	0	0
1572.946	n/a	REC_WORD	786473	wordpools/wasnorm_wordpool_576.txt	LTP324	ltpFR2	3	6	COOKBOOK	373	n/a	n/a	0	0	0
1575.546	n/a	REC_WORD	787773	wordpools/wasnorm_wordpool_576.txt	LTP324	ltpFR2	3	6	JUNGLE	764	n/a	n/a	0	0	0
1577.738	n/a	REC_WORD	788869	wordpools/wasnorm_wordpool_576.txt	LTP324	ltpFR2	3	6	FOREST	593	n/a	n/a	0	0	0
1579.678	n/a	REC_WORD	789839	wordpools/wasnorm_wordpool_576.txt	LTP324	ltpFR2	3	6	PRIMATE	1123	n/a	n/a	0	0	0
1583.468	n/a	REC_WORD	791734	wordpools/wasnorm_wordpool_576.txt	LTP324	ltpFR2	3	6	MAMMAL	861	n/a	n/a	0	0	0
1585.09	n/a	REC_WORD	792545	wordpools/wasnorm_wordpool_576.txt	LTP324	ltpFR2	3	6	MEDAL	885	n/a	n/a	0	0	0
1586.894	n/a	REC_WORD	793447	wordpools/wasnorm_wordpool_576.txt	LTP324	ltpFR2	3	6	BADGE	68	n/a	n/a	0	0	0
1588.374	n/a	REC_WORD	794187	wordpools/wasnorm_wordpool_576.txt	LTP324	ltpFR2	3	6	WHISTLE	1606	n/a	n/a	0	0	0
1591.388	n/a	REC_WORD	795694	wordpools/wasnorm_wordpool_576.txt	LTP324	ltpFR2	3	6	MARKER	870	n/a	n/a	0	0	0
1600.946	n/a	REC_WORD	800473	wordpools/wasnorm_wordpool_576.txt	LTP324	ltpFR2	3	6	WAITER	1580	n/a	n/a	0	0	0
1614.382	n/a	REC_WORD	807191	wordpools/wasnorm_wordpool_576.txt	LTP324	ltpFR2	3	6	SERVER	1272	n/a	n/a	0	0	0
1634.746	n/a	DISTRACTOR	817373	n/a	LTP324	ltpFR2	3	7	n/a	n/a	n/a	n/a	0	0	0
1634.746	n/a	START	817373	n/a	LTP324	ltpFR2	3	n/a	n/a	n/a	10	n/a	n/a	n/a	n/a
1634.762	n/a	PROB	817381	n/a	LTP324	ltpFR2	3	n/a	n/a	n/a	10	15	1	9	5
1636.312	n/a	PROB	818156	n/a	LTP324	ltpFR2	3	n/a	n/a	n/a	10	11	4	1	6
1637.13	n/a	PROB	818565	n/a	LTP324	ltpFR2	3	n/a	n/a	n/a	10	26	9	8	9
1639.164	n/a	PROB	819582	n/a	LTP324	ltpFR2	3	n/a	n/a	n/a	10	15	4	3	8
1640.986	n/a	PROB	820493	n/a	LTP324	ltpFR2	3	n/a	n/a	n/a	10	12	8	1	3
1641.918	n/a	PROB	820959	n/a	LTP324	ltpFR2	3	n/a	n/a	n/a	10	14	5	1	8
1643.018	n/a	PROB	821509	n/a	LTP324	ltpFR2	3	n/a	n/a	n/a	10	19	2	9	8
1644.286	n/a	PROB	822143	n/a	LTP324	ltpFR2	3	n/a	n/a	n/a	10	11	3	2	6
1646.072	n/a	PROB	823036	n/a	LTP324	ltpFR2	3	n/a	n/a	n/a	10	10	5	4	1
1647.072	n/a	PROB	823536	n/a	LTP324	ltpFR2	3	n/a	n/a	n/a	10	8	3	2	3
1648.658	n/a	PROB	824329	n/a	LTP324	ltpFR2	3	n/a	n/a	n/a	10	7	1	3	3
1649.524	n/a	PROB	824762	n/a	LTP324	ltpFR2	3	n/a	n/a	n/a	10	24	9	7	8
1650.96	n/a	PROB	825480	n/a	LTP324	ltpFR2	3	n/a	n/a	n/a	10	10	1	5	4
1652.528	n/a	PROB	826264	n/a	LTP324	ltpFR2	3	n/a	n/a	n/a	10	18	3	7	8
1654.346	n/a	PROB	827173	n/a	LTP324	ltpFR2	3	n/a	n/a	n/a	10	20	9	7	6
1656.868	n/a	PROB	828434	n/a	LTP324	ltpFR2	3	n/a	n/a	n/a	10	19	9	1	9
1658.626	n/a	STOP	829313	n/a	LTP324	ltpFR2	3	n/a	n/a	n/a	10	n/a	n/a	n/a	n/a
1659.752	n/a	WORD	829876	wordpools/wasnorm_wordpool_576.txt	LTP324	ltpFR2	3	7	FRIEND	606	n/a	n/a	0	0	0
1662.22	n/a	WORD	831110	wordpools/wasnorm_wordpool_576.txt	LTP324	ltpFR2	3	7	SALMON	1227	n/a	n/a	0	0	0
1664.738	n/a	WORD	832369	wordpools/wasnorm_wordpool_576.txt	LTP324	ltpFR2	3	7	AIRPORT	13	n/a	n/a	0	0	0
1667.204	n/a	WORD	833602	wordpools/wasnorm_wordpool_576.txt	LTP324	ltpFR2	3	7	DONKEY	484	n/a	n/a	0	0	0
1669.826	n/a	WORD	834913	wordpools/wasnorm_wordpool_576.txt	LTP324	ltpFR2	3	7	DRINK	498	n/a	n/a	0	0	0
1672.46	n/a	WORD	836230	wordpools/wasnorm_wordpool_576.txt	LTP324	ltpFR2	3	7	APPLE	33	n/a	n/a	0	0	0
1675.062	n/a	WORD	837531	wordpools/wasnorm_wordpool_576.txt	LTP324	ltpFR2	3	7	KETCHUP	771	n/a	n/a	0	0	0
1677.8	n/a	WORD	838900	wordpools/wasnorm_wordpool_576.txt	LTP324	ltpFR2	3	7	DOLPHIN	483	n/a	n/a	0	0	0
1680.384	n/a	WORD	840192	wordpools/wasnorm_wordpool_576.txt	LTP324	ltpFR2	3	7	ITEM	746	n/a	n/a	0	0	0
1683.102	n/a	WORD	841551	wordpools/wasnorm_wordpool_576.txt	LTP324	ltpFR2	3	7	MEAT	883	n/a	n/a	0	0	0
1685.856	n/a	WORD	842928	wordpools/wasnorm_wordpool_576.txt	LTP324	ltpFR2	3	7	LIVER	833	n/a	n/a	0	0	0
1688.592	n/a	WORD	844296	wordpools/wasnorm_wordpool_576.txt	LTP324	ltpFR2	3	7	UNCLE	1536	n/a	n/a	0	0	0
1691.176	n/a	WORD	845588	wordpools/wasnorm_wordpool_576.txt	LTP324	ltpFR2	3	7	NOTEBOOK	959	n/a	n/a	0	0	0
1693.728	n/a	WORD	846864	wordpools/wasnorm_wordpool_576.txt	LTP324	ltpFR2	3	7	LABEL	790	n/a	n/a	0	0	0
1696.514	n/a	WORD	848257	wordpools/wasnorm_wordpool_576.txt	LTP324	ltpFR2	3	7	MUSTARD	935	n/a	n/a	0	0	0
1699.316	n/a	WORD	849658	wordpools/wasnorm_wordpool_576.txt	LTP324	ltpFR2	3	7	GRAVE	658	n/a	n/a	0	0	0
1702.086	n/a	WORD	851043	wordpools/wasnorm_wordpool_576.txt	LTP324	ltpFR2	3	7	GRAPE	654	n/a	n/a	0	0	0
1704.554	n/a	WORD	852277	wordpools/wasnorm_wordpool_576.txt	LTP324	ltpFR2	3	7	CLAM	315	n/a	n/a	0	0	0
1707.372	n/a	WORD	853686	wordpools/wasnorm_wordpool_576.txt	LTP324	ltpFR2	3	7	WINDOW	1611	n/a	n/a	0	0	0
1710.106	n/a	WORD	855053	wordpools/wasnorm_wordpool_576.txt	LTP324	ltpFR2	3	7	CURTAIN	427	n/a	n/a	0	0	0
1712.71	n/a	WORD	856355	wordpools/wasnorm_wordpool_576.txt	LTP324	ltpFR2	3	7	SHOVEL	1295	n/a	n/a	0	0	0
1715.346	n/a	WORD	857673	wordpools/wasnorm_wordpool_576.txt	LTP324	ltpFR2	3	7	SLIDE	1326	n/a	n/a	0	0	0
1718.148	n/a	WORD	859074	wordpools/wasnorm_wordpool_576.txt	LTP324	ltpFR2	3	7	MUFFIN	929	n/a	n/a	0	0	0
1720.816	n/a	WORD	860408	wordpools/wasnorm_wordpool_576.txt	LTP324	ltpFR2	3	7	TRENCH	1503	n/a	n/a	0	0	0
1722.434	n/a	START	861217	n/a	LTP324	ltpFR2	3	n/a	n/a	n/a	11	n/a	n/a	n/a	n/a
1723.632	n/a	DISTRACTOR	861816	n/a	LTP324	ltpFR2	3	7	n/a	n/a	n/a	n/a	0	0	0
1723.638	n/a	PROB	861819	n/a	LTP324	ltpFR2	3	n/a	n/a	n/a	11	14	5	6	3
1725.402	n/a	PROB	862701	n/a	LTP324	ltpFR2	3	n/a	n/a	n/a	11	12	5	2	5
1726.302	n/a	PROB	863151	n/a	LTP324	ltpFR2	3	n/a	n/a	n/a	11	15	3	3	9
1727.42	n/a	PROB	863710	n/a	LTP324	ltpFR2	3	n/a	n/a	n/a	11	22	7	8	7
1728.706	n/a	PROB	864353	n/a	LTP324	ltpFR2	3	n/a	n/a	n/a	11	15	6	2	7
1730.59	n/a	PROB	865295	n/a	LTP324	ltpFR2	3	n/a	n/a	n/a	11	25	9	7	9
1732.724	n/a	PROB	866362	n/a	LTP324	ltpFR2	3	n/a	n/a	n/a	11	6	4	1	1
1733.442	n/a	PROB	866721	n/a	LTP324	ltpFR2	3	n/a	n/a	n/a	11	17	7	5	5
1734.726	n/a	PROB	867363	n/a	LTP324	ltpFR2	3	n/a	n/a	n/a	11	25	8	9	8
1736.528	n/a	PROB	868264	n/a	LTP324	ltpFR2	3	n/a	n/a	n/a	11	13	1	8	4
1737.896	n/a	PROB	868948	n/a	LTP324	ltpFR2	3	n/a	n/a	n/a	11	20	8	8	4
1740.016	n/a	PROB	870008	n/a	LTP324	ltpFR2	3	n/a	n/a	n/a	11	6	3	2	1
1741.482	n/a	PROB	870741	n/a	LTP324	ltpFR2	3	n/a	n/a	n/a	11	17	8	4	5
1742.9	n/a	PROB	871450	n/a	LTP324	ltpFR2	3	n/a	n/a	n/a	11	12	6	2	4
1746.434	n/a	STOP	873217	n/a	LTP324	ltpFR2	3	n/a	n/a	n/a	11	n/a	n/a	n/a	n/a
1748.238	n/a	REC_START	874119	n/a	LTP324	ltpFR2	3	7	n/a	n/a	n/a	n/a	0	0	0
1750.228	n/a	REC_WORD	875114	wordpools/wasnorm_wordpool_576.txt	LTP324	ltpFR2	3	7	TRENCH	1503	n/a	n/a	0	0	0
1751.806	n/a	REC_WORD	875903	wordpools/wasnorm_wordpool_576.txt	LTP324	ltpFR2	3	7	MUFFIN	929	n/a	n/a	0	0	0
1753.822	n/a	REC_WORD	876911	wordpools/wasnorm_wordpool_576.txt	LTP324	ltpFR2	3	7	APPLE	33	n/a	n/a	0	0	0
1755.514	n/a	REC_WORD	877757	wordpools/wasnorm_wordpool_576.txt	LTP324	ltpFR2	3	7	KETCHUP	771	n/a	n/a	0	0	0
1756.856	n/a	REC_WORD	878428	wordpools/wasnorm_wordpool_576.txt	LTP324	ltpFR2	3	7	DOLPHIN	483	n/a	n/a	0	0	0
1758.056	n/a	REC_WORD	879028	wordpools/wasnorm_wordpool_576.txt	LTP324	ltpFR2	3	7	SALMON	1227	n/a	n/a	0	0	0
1759.114	n/a	REC_WORD	879557	wordpools/wasnorm_wordpool_576.txt	LTP324	ltpFR2	3	7	FRIEND	606	n/a	n/a	0	0	0
1760.33	n/a	REC_WORD	880165	wordpools/wasnorm_wordpool_576.txt	LTP324	ltpFR2	3	7	AIRPORT	13	n/a	n/a	0	0	0
1767.468	n/a	REC_WORD	883734	wordpools/wasnorm_wordpool_576.txt	LTP324	ltpFR2	3	7	UNCLE	1536	n/a	n/a	0	0	0
1770.562	n/a	REC_WORD	885281	wordpools/wasnorm_wordpool_576.txt	LTP324	ltpFR2	3	7	LABEL	790	n/a	n/a	0	0	0
1771.784	n/a	REC_WORD	885892	wordpools/wasnorm_wordpool_576.txt	LTP324	ltpFR2	3	7	MUSTARD	935	n/a	n/a	0	0	0
1773.536	n/a	REC_WORD	886768	wordpools/wasnorm_wordpool_576.txt	LTP324	ltpFR2	3	7	MEAT	883	n/a	n/a	0	0	0
1775.068	n/a	REC_WORD	887534	wordpools/wasnorm_wordpool_576.txt	LTP324	ltpFR2	3	7	ITEM	746	n/a	n/a	0	0	0
1776.522	n/a	REC_WORD	888261	wordpools/wasnorm_wordpool_576.txt	LTP324	ltpFR2	3	7	LIVER	833	n/a	n/a	0	0	0
1778.068	n/a	REC_WORD	889034	wordpools/wasnorm_wordpool_576.txt	LTP324	ltpFR2	3	7	GRAVE	658	n/a	n/a	0	0	0
1794.794	n/a	REC_WORD	897397	wordpools/wasnorm_wordpool_576.txt	LTP324	ltpFR2	3	7	DONKEY	484	n/a	n/a	0	0	0
1869.082	n/a	WORD	934541	wordpools/wasnorm_wordpool_576.txt	LTP324	ltpFR2	3	8	TABLET	1427	n/a	n/a	0	0	0
1871.584	n/a	WORD	935792	wordpools/wasnorm_wordpool_576.txt	LTP324	ltpFR2	3	8	SALT	1229	n/a	n/a	0	0	0
1874.066	n/a	WORD	937033	wordpools/wasnorm_wordpool_576.txt	LTP324	ltpFR2	3	8	FIDDLE	561	n/a	n/a	0	0	0
1876.502	n/a	WORD	938251	wordpools/wasnorm_wordpool_576.txt	LTP324	ltpFR2	3	8	DRAWING	494	n/a	n/a	0	0	0
1879.184	n/a	WORD	939592	wordpools/wasnorm_wordpool_576.txt	LTP324	ltpFR2	3	8	SCALPEL	1243	n/a	n/a	0	0	0
1881.704	n/a	WORD	940852	wordpools/wasnorm_wordpool_576.txt	LTP324	ltpFR2	3	8	BLADE	134	n/a	n/a	0	0	0
1884.492	n/a	WORD	942246	wordpools/wasnorm_wordpool_576.txt	LTP324	ltpFR2	3	8	TROUT	1511	n/a	n/a	0	0	0
1887.292	n/a	WORD	943646	wordpools/wasnorm_wordpool_576.txt	LTP324	ltpFR2	3	8	MONSTER	912	n/a	n/a	0	0	0
1890.014	n/a	WORD	945007	wordpools/wasnorm_wordpool_576.txt	LTP324	ltpFR2	3	8	INFANT	737	n/a	n/a	0	0	0
1892.448	n/a	WORD	946224	wordpools/wasnorm_wordpool_576.txt	LTP324	ltpFR2	3	8	IGLOO	734	n/a	n/a	0	0	0
1895.182	n/a	WORD	947591	wordpools/wasnorm_wordpool_576.txt	LTP324	ltpFR2	3	8	BRICK	172	n/a	n/a	0	0	0
1897.702	n/a	WORD	948851	wordpools/wasnorm_wordpool_576.txt	LTP324	ltpFR2	3	8	COUNTRY	388	n/a	n/a	0	0	0
1900.32	n/a	WORD	950160	wordpools/wasnorm_wordpool_576.txt	LTP324	ltpFR2	3	8	LEG	809	n/a	n/a	0	0	0
1902.924	n/a	WORD	951462	wordpools/wasnorm_wordpool_576.txt	LTP324	ltpFR2	3	8	FLOWER	584	n/a	n/a	0	0	0
1905.492	n/a	WORD	952746	wordpools/wasnorm_wordpool_576.txt	LTP324	ltpFR2	3	8	NECKLACE	940	n/a	n/a	0	0	0
1908.312	n/a	WORD	954156	wordpools/wasnorm_wordpool_576.txt	LTP324	ltpFR2	3	8	NIGHTGOWN	953	n/a	n/a	0	0	0
1910.996	n/a	WORD	955498	wordpools/wasnorm_wordpool_576.txt	LTP324	ltpFR2	3	8	CRAB	397	n/a	n/a	0	0	0
1913.666	n/a	WORD	956833	wordpools/wasnorm_wordpool_576.txt	LTP324	ltpFR2	3	8	LILY	821	n/a	n/a	0	0	0
1916.386	n/a	WORD	958193	wordpools/wasnorm_wordpool_576.txt	LTP324	ltpFR2	3	8	GYMNAST	675	n/a	n/a	0	0	0
1919.154	n/a	WORD	959577	wordpools/wasnorm_wordpool_576.txt	LTP324	ltpFR2	3	8	PORTRAIT	1111	n/a	n/a	0	0	0
1921.722	n/a	WORD	960861	wordpools/wasnorm_wordpool_576.txt	LTP324	ltpFR2	3	8	KITCHEN	778	n/a	n/a	0	0	0
1924.492	n/a	WORD	962246	wordpools/wasnorm_wordpool_576.txt	LTP324	ltpFR2	3	8	DRIVER	499	n/a	n/a	0	0	0
1927.192	n/a	WORD	963596	wordpools/wasnorm_wordpool_576.txt	LTP324	ltpFR2	3	8	TRUCK	1512	n/a	n/a	0	0	0
1929.678	n/a	WORD	964839	wordpools/wasnorm_wordpool_576.txt	LTP324	ltpFR2	3	8	IDOL	733	n/a	n/a	0	0	0
1931.296	n/a	START	965648	n/a	LTP324	ltpFR2	3	n/a	n/a	n/a	12	n/a	n/a	n/a	n/a
1932.36	n/a	DISTRACTOR	966180	n/a	LTP324	ltpFR2	3	8	n/a	n/a	n/a	n/a	0	0	0
1932.364	n/a	PROB	966182	n/a	LTP324	ltpFR2	3	n/a	n/a	n/a	12	8	1	4	3
1933.246	n/a	PROB	966623	n/a	LTP324	ltpFR2	3	n/a	n/a	n/a	12	16	6	6	4
1935.034	n/a	PROB	967517	n/a	LTP324	ltpFR2	3	n/a	n/a	n/a	12	15	5	7	3
1936.082	n/a	PROB	968041	n/a	LTP324	ltpFR2	3	n/a	n/a	n/a	12	14	4	9	1
1937.284	n/a	PROB	968642	n/a	LTP324	ltpFR2	3	n/a	n/a	n/a	12	8	2	2	4
1938.418	n/a	PROB	969209	n/a	LTP324	ltpFR2	3	n/a	n/a	n/a	12	18	6	7	5
1939.62	n/a	PROB	969810	n/a	LTP324	ltpFR2	3	n/a	n/a	n/a	12	14	7	5	2
1941.252	n/a	PROB	970626	n/a	LTP324	ltpFR2	3	n/a	n/a	n/a	12	20	6	7	9
1943.406	n/a	PROB	971703	n/a	LTP324	ltpFR2	3	n/a	n/a	n/a	12	15	8	3	4
1945.49	n/a	PROB	972745	n/a	LTP324	ltpFR2	3	n/a	n/a	n/a	12	18	8	6	4
1947.06	n/a	PROB	973530	n/a	LTP324	ltpFR2	3	n/a	n/a	n/a	12	15	4	9	2
1948.876	n/a	PROB	974438	n/a	LTP324	ltpFR2	3	n/a	n/a	n/a	12	14	5	4	5
1949.81	n/a	PROB	974905	n/a	LTP324	ltpFR2	3	n/a	n/a	n/a	12	9	2	4	3
1951.596	n/a	PROB	975798	n/a	LTP324	ltpFR2	3	n/a	n/a	n/a	12	19	8	5	6
1954.4	n/a	STOP	977200	n/a	LTP324	ltpFR2	3	n/a	n/a	n/a	12	n/a	n/a	n/a	n/a
1957.166	n/a	REC_START	978583	n/a	LTP324	ltpFR2	3	8	n/a	n/a	n/a	n/a	0	0	0
1958.854	n/a	REC_WORD	979427	wordpools/wasnorm_wordpool_576.txt	LTP324	ltpFR2	3	8	DRIVER	499	n/a	n/a	0	0	0
1960.854	n/a	REC_WORD	980427	wordpools/wasnorm_wordpool_576.txt	LTP324	ltpFR2	3	8	TRUCK	1512	n/a	n/a	0	0	0
1962.6	n/a	REC_WORD	981300	wordpools/wasnorm_wordpool_576.txt	LTP324	ltpFR2	3	8	GYMNAST	675	n/a	n/a	0	0	0
1965.594	n/a	REC_WORD	982797	wordpools/wasnorm_wordpool_576.txt	LTP324	ltpFR2	3	8	IDOL	733	n/a	n/a	0	0	0
1979.436	n/a	REC_WORD	989718	wordpools/wasnorm_wordpool_576.txt	LTP324	ltpFR2	3	8	LEG	809	n/a	n/a	0	0	0
1985.288	n/a	REC_WORD	992644	wordpools/wasnorm_wordpool_576.txt	LTP324	ltpFR2	3	8	COUNTRY	388	n/a	n/a	0	0	0
1994.742	n/a	REC_WORD	997371	wordpools/wasnorm_wordpool_576.txt	LTP324	ltpFR2	3	8	FIDDLE	561	n/a	n/a	0	0	0
1996.538	n/a	REC_WORD	998269	wordpools/wasnorm_wordpool_576.txt	LTP324	ltpFR2	3	8	DRAWING	494	n/a	n/a	0	0	0
2005.756	n/a	REC_WORD	1002878	wordpools/wasnorm_wordpool_576.txt	LTP324	ltpFR2	3	8	SCALPEL	1243	n/a	n/a	0	0	0
2008.812	n/a	REC_WORD	1004406	wordpools/wasnorm_wordpool_576.txt	LTP324	ltpFR2	3	8	BLADE	134	n/a	n/a	0	0	0
2012.928	n/a	REC_WORD	1006464	wordpools/wasnorm_wordpool_576.txt	LTP324	ltpFR2	3	8	IGLOO	734	n/a	n/a	0	0	0
2014.86	n/a	REC_WORD	1007430	wordpools/wasnorm_wordpool_576.txt	LTP324	ltpFR2	3	8	NIGHTGOWN	953	n/a	n/a	0	0	0
2016.34	n/a	REC_WORD	1008170	wordpools/wasnorm_wordpool_576.txt	LTP324	ltpFR2	3	8	BRICK	172	n/a	n/a	0	0	0
2024.672	n/a	REC_WORD	1012336	wordpools/wasnorm_wordpool_576.txt	LTP324	ltpFR2	3	8	PORTRAIT	1111	n/a	n/a	0	0	0
2033.694	n/a	REST_REWET	1016847	n/a	LTP324	ltpFR2	3	8	n/a	n/a	n/a	n/a	0	0	0
2282.612	n/a	DISTRACTOR	1141306	n/a	LTP324	ltpFR2	3	9	n/a	n/a	n/a	n/a	0	0	0
2282.612	n/a	START	1141306	n/a	LTP324	ltpFR2	3	n/a	n/a	n/a	13	n/a	n/a	n/a	n/a
2282.628	n/a	PROB	1141314	n/a	LTP324	ltpFR2	3	n/a	n/a	n/a	13	11	2	2	9
2283.904	n/a	PROB	1141952	n/a	LTP324	ltpFR2	3	n/a	n/a	n/a	13	14	8	4	2
2285.704	n/a	PROB	1142852	n/a	LTP324	ltpFR2	3	n/a	n/a	n/a	13	12	6	3	3
2286.656	n/a	PROB	1143328	n/a	LTP324	ltpFR2	3	n/a	n/a	n/a	13	7	2	1	4
2287.69	n/a	PROB	1143845	n/a	LTP324	ltpFR2	3	n/a	n/a	n/a	13	11	7	2	2
2288.592	n/a	PROB	1144296	n/a	LTP324	ltpFR2	3	n/a	n/a	n/a	13	12	3	8	1
2289.658	n/a	PROB	1144829	n/a	LTP324	ltpFR2	3	n/a	n/a	n/a	13	15	5	7	3
2290.678	n/a	PROB	1145339	n/a	LTP324	ltpFR2	3	n/a	n/a	n/a	13	11	6	2	3
2292.226	n/a	PROB	1146113	n/a	LTP324	ltpFR2	3	n/a	n/a	n/a	13	110	3	2	5
2293.378	n/a	PROB	1146689	n/a	LTP324	ltpFR2	3	n/a	n/a	n/a	13	15	3	9	3
2295.462	n/a	PROB	1147731	n/a	LTP324	ltpFR2	3	n/a	n/a	n/a	13	18	7	7	4
2296.948	n/a	PROB	1148474	n/a	LTP324	ltpFR2	3	n/a	n/a	n/a	13	21	7	6	8
2298.032	n/a	PROB	1149016	n/a	LTP324	ltpFR2	3	n/a	n/a	n/a	13	18	6	8	4
2299.566	n/a	PROB	1149783	n/a	LTP324	ltpFR2	3	n/a	n/a	n/a	13	15	7	2	4
2301.116	n/a	PROB	1150558	n/a	LTP324	ltpFR2	3	n/a	n/a	n/a	13	23	7	9	7
2304.004	n/a	PROB	1152002	n/a	LTP324	ltpFR2	3	n/a	n/a	n/a	13	7	5	1	1
2304.788	n/a	PROB	1152394	n/a	LTP324	ltpFR2	3	n/a	n/a	n/a	13	12	3	3	6
2305.638	n/a	STOP	1152819	n/a	LTP324	ltpFR2	3	n/a	n/a	n/a	13	n/a	n/a	n/a	n/a
2307.45	n/a	WORD	1153725	wordpools/wasnorm_wordpool_576.txt	LTP324	ltpFR2	3	9	COLONEL	348	n/a	n/a	0	0	0
2309.908	n/a	WORD	1154954	wordpools/wasnorm_wordpool_576.txt	LTP324	ltpFR2	3	9	FRECKLE	602	n/a	n/a	0	0	0
2312.554	n/a	WORD	1156277	wordpools/wasnorm_wordpool_576.txt	LTP324	ltpFR2	3	9	BALLOON	75	n/a	n/a	0	0	0
2315.312	n/a	WORD	1157656	wordpools/wasnorm_wordpool_576.txt	LTP324	ltpFR2	3	9	DRILL	497	n/a	n/a	0	0	0
2317.88	n/a	WORD	1158940	wordpools/wasnorm_wordpool_576.txt	LTP324	ltpFR2	3	9	POWDER	1117	n/a	n/a	0	0	0
2320.644	n/a	WORD	1160322	wordpools/wasnorm_wordpool_576.txt	LTP324	ltpFR2	3	9	MARS	873	n/a	n/a	0	0	0
2323.37	n/a	WORD	1161685	wordpools/wasnorm_wordpool_576.txt	LTP324	ltpFR2	3	9	VENUS	1557	n/a	n/a	0	0	0
2325.832	n/a	WORD	1162916	wordpools/wasnorm_wordpool_576.txt	LTP324	ltpFR2	3	9	SEAFOOD	1260	n/a	n/a	0	0	0
2328.422	n/a	WORD	1164211	wordpools/wasnorm_wordpool_576.txt	LTP324	ltpFR2	3	9	REPORT	1184	n/a	n/a	0	0	0
2331.218	n/a	WORD	1165609	wordpools/wasnorm_wordpool_576.txt	LTP324	ltpFR2	3	9	JOURNAL	760	n/a	n/a	0	0	0
2333.938	n/a	WORD	1166969	wordpools/wasnorm_wordpool_576.txt	LTP324	ltpFR2	3	9	BROOK	177	n/a	n/a	0	0	0
2336.49	n/a	WORD	1168245	wordpools/wasnorm_wordpool_576.txt	LTP324	ltpFR2	3	9	WARDROBE	1587	n/a	n/a	0	0	0
2338.982	n/a	WORD	1169491	wordpools/wasnorm_wordpool_576.txt	LTP324	ltpFR2	3	9	PEBBLE	1035	n/a	n/a	0	0	0
2341.528	n/a	WORD	1170764	wordpools/wasnorm_wordpool_576.txt	LTP324	ltpFR2	3	9	ATOM	55	n/a	n/a	0	0	0
2344.064	n/a	WORD	1172032	wordpools/wasnorm_wordpool_576.txt	LTP324	ltpFR2	3	9	FIREPLACE	570	n/a	n/a	0	0	0
2346.786	n/a	WORD	1173393	wordpools/wasnorm_wordpool_576.txt	LTP324	ltpFR2	3	9	SCALLOP	1242	n/a	n/a	0	0	0
2349.586	n/a	WORD	1174793	wordpools/wasnorm_wordpool_576.txt	LTP324	ltpFR2	3	9	BUCKET	184	n/a	n/a	0	0	0
2352.168	n/a	WORD	1176084	wordpools/wasnorm_wordpool_576.txt	LTP324	ltpFR2	3	9	JELLY	755	n/a	n/a	0	0	0
2354.824	n/a	WORD	1177412	wordpools/wasnorm_wordpool_576.txt	LTP324	ltpFR2	3	9	GALLON	618	n/a	n/a	0	0	0
2357.628	n/a	WORD	1178814	wordpools/wasnorm_wordpool_576.txt	LTP324	ltpFR2	3	9	WIDOW	1608	n/a	n/a	0	0	0
2360.394	n/a	WORD	1180197	wordpools/wasnorm_wordpool_576.txt	LTP324	ltpFR2	3	9	PIGMENT	1066	n/a	n/a	0	0	0
2363.046	n/a	WORD	1181523	wordpools/wasnorm_wordpool_576.txt	LTP324	ltpFR2	3	9	PASTA	1021	n/a	n/a	0	0	0
2365.5	n/a	WORD	1182750	wordpools/wasnorm_wordpool_576.txt	LTP324	ltpFR2	3	9	LASER	801	n/a	n/a	0	0	0
2368.082	n/a	WORD	1184041	wordpools/wasnorm_wordpool_576.txt	LTP324	ltpFR2	3	9	PISTOL	1075	n/a	n/a	0	0	0
2369.688	n/a	START	1184844	n/a	LTP324	ltpFR2	3	n/a	n/a	n/a	14	n/a	n/a	n/a	n/a
2370.81	n/a	DISTRACTOR	1185405	n/a	LTP324	ltpFR2	3	9	n/a	n/a	n/a	n/a	0	0	0
2370.82	n/a	PROB	1185410	n/a	LTP324	ltpFR2	3	n/a	n/a	n/a	14	11	1	5	5
2373.24	n/a	PROB	1186620	n/a	LTP324	ltpFR2	3	n/a	n/a	n/a	14	7	1	4	2
2374.94	n/a	PROB	1187470	n/a	LTP324	ltpFR2	3	n/a	n/a	n/a	14	11	4	6	1
2376.44	n/a	PROB	1188220	n/a	LTP324	ltpFR2	3	n/a	n/a	n/a	14	13	9	1	2
2377.374	n/a	PROB	1188687	n/a	LTP324	ltpFR2	3	n/a	n/a	n/a	14	22	7	6	9
2379.794	n/a	PROB	1189897	n/a	LTP324	ltpFR2	3	n/a	n/a	n/a	14	20	5	7	8
2381.712	n/a	PROB	1190856	n/a	LTP324	ltpFR2	3	n/a	n/a	n/a	14	11	1	7	3
2382.614	n/a	PROB	1191307	n/a	LTP324	ltpFR2	3	n/a	n/a	n/a	14	25	7	8	9
2383.68	n/a	PROB	1191840	n/a	LTP324	ltpFR2	3	n/a	n/a	n/a	14	19	4	8	7
2386.05	n/a	PROB	1193025	n/a	LTP324	ltpFR2	3	n/a	n/a	n/a	14	22	6	7	9
2388.07	n/a	PROB	1194035	n/a	LTP324	ltpFR2	3	n/a	n/a	n/a	14	17	5	6	6
2389.936	n/a	PROB	1194968	n/a	LTP324	ltpFR2	3	n/a	n/a	n/a	14	18	8	1	9
2390.906	n/a	PROB	1195453	n/a	LTP324	ltpFR2	3	n/a	n/a	n/a	14	14	8	4	2
2391.986	n/a	PROB	1195993	n/a	LTP324	ltpFR2	3	n/a	n/a	n/a	14	17	7	7	3
2393.228	n/a	STOP	1196614	n/a	LTP324	ltpFR2	3	n/a	n/a	n/a	14	n/a	n/a	n/a	n/a
2395.542	n/a	REC_START	1197771	n/a	LTP324	ltpFR2	3	9	n/a	n/a	n/a	n/a	0	0	0
2398.55	n/a	REC_WORD	1199275	wordpools/wasnorm_wordpool_576.txt	LTP324	ltpFR2	3	9	PASTA	1021	n/a	n/a	0	0	0
2403.136	n/a	REC_WORD	1201568	wordpools/wasnorm_wordpool_576.txt	LTP324	ltpFR2	3	9	LASER	801	n/a	n/a	0	0	0
2405.708	n/a	REC_WORD	1202854	wordpools/wasnorm_wordpool_576.txt	LTP324	ltpFR2	3	9	PISTOL	1075	n/a	n/a	0	0	0
2410.468	n/a	REC_WORD	1205234	wordpools/wasnorm_wordpool_576.txt	LTP324	ltpFR2	3	9	BUCKET	184	n/a	n/a	0	0	0
2412.204	n/a	REC_WORD	1206102	wordpools/wasnorm_wordpool_576.txt	LTP324	ltpFR2	3	9	JELLY	755	n/a	n/a	0	0	0
2414.092	n/a	REC_WORD	1207046	wordpools/wasnorm_wordpool_576.txt	LTP324	ltpFR2	3	9	GALLON	618	n/a	n/a	0	0	0
2415.546	n/a	REC_WORD	1207773	wordpools/wasnorm_wordpool_576.txt	LTP324	ltpFR2	3	9	WINDOW	1611	n/a	n/a	0	0	0
2417.236	n/a	REC_WORD	1208618	wordpools/wasnorm_wordpool_576.txt	LTP324	ltpFR2	3	9	PIGMENT	1066	n/a	n/a	0	0	0
2418.77	n/a	REC_WORD	1209385	wordpools/wasnorm_wordpool_576.txt	LTP324	ltpFR2	3	9	MARS	873	n/a	n/a	0	0	0
2420.48	n/a	REC_WORD	1210240	wordpools/wasnorm_wordpool_576.txt	LTP324	ltpFR2	3	9	VENUS	1557	n/a	n/a	0	0	0
2422.362	n/a	REC_WORD	1211181	wordpools/wasnorm_wordpool_576.txt	LTP324	ltpFR2	3	9	POWDER	1117	n/a	n/a	0	0	0
2429.086	n/a	REC_WORD	1214543	wordpools/wasnorm_wordpool_576.txt	LTP324	ltpFR2	3	9	STEAM	1375	n/a	n/a	0	0	0
2437.45	n/a	REC_WORD	1218725	wordpools/wasnorm_wordpool_576.txt	LTP324	ltpFR2	3	9	REPORT	1184	n/a	n/a	0	0	0
2440.55	n/a	REC_WORD	1220275	wordpools/wasnorm_wordpool_576.txt	LTP324	ltpFR2	3	9	JOURNAL	760	n/a	n/a	0	0	0
2513.692	n/a	DISTRACTOR	1256846	n/a	LTP324	ltpFR2	3	10	n/a	n/a	n/a	n/a	0	0	0
2513.692	n/a	START	1256846	n/a	LTP324	ltpFR2	3	n/a	n/a	n/a	15	n/a	n/a	n/a	n/a
2513.706	n/a	PROB	1256853	n/a	LTP324	ltpFR2	3	n/a	n/a	n/a	15	19	7	3	9
2515.232	n/a	PROB	1257616	n/a	LTP324	ltpFR2	3	n/a	n/a	n/a	15	21	9	5	7
2516.986	n/a	PROB	1258493	n/a	LTP324	ltpFR2	3	n/a	n/a	n/a	15	14	4	2	8
2518.388	n/a	PROB	1259194	n/a	LTP324	ltpFR2	3	n/a	n/a	n/a	15	14	2	5	7
2519.64	n/a	PROB	1259820	n/a	LTP324	ltpFR2	3	n/a	n/a	n/a	15	4	1	2	1
2520.604	n/a	PROB	1260302	n/a	LTP324	ltpFR2	3	n/a	n/a	n/a	15	10	6	2	2
2521.52	n/a	PROB	1260760	n/a	LTP324	ltpFR2	3	n/a	n/a	n/a	15	10	6	2	2
2522.138	n/a	PROB	1261069	n/a	LTP324	ltpFR2	3	n/a	n/a	n/a	15	12	3	5	4
2523.39	n/a	PROB	1261695	n/a	LTP324	ltpFR2	3	n/a	n/a	n/a	15	14	3	4	7
2524.658	n/a	PROB	1262329	n/a	LTP324	ltpFR2	3	n/a	n/a	n/a	15	19	9	3	7
2525.908	n/a	PROB	1262954	n/a	LTP324	ltpFR2	3	n/a	n/a	n/a	15	13	3	8	2
2527.194	n/a	PROB	1263597	n/a	LTP324	ltpFR2	3	n/a	n/a	n/a	15	10	5	2	3
2528.21	n/a	PROB	1264105	n/a	LTP324	ltpFR2	3	n/a	n/a	n/a	15	19	1	8	9
2529.712	n/a	PROB	1264856	n/a	LTP324	ltpFR2	3	n/a	n/a	n/a	15	24	7	9	8
2531.362	n/a	PROB	1265681	n/a	LTP324	ltpFR2	3	n/a	n/a	n/a	15	25	9	7	9
2534.014	n/a	PROB	1267007	n/a	LTP324	ltpFR2	3	n/a	n/a	n/a	15	13	3	7	3
2535.332	n/a	PROB	1267666	n/a	LTP324	ltpFR2	3	n/a	n/a	n/a	15	23	9	9	5
2536.76	n/a	STOP	1268380	n/a	LTP324	ltpFR2	3	n/a	n/a	n/a	15	n/a	n/a	n/a	n/a
2538.752	n/a	WORD	1269376	wordpools/wasnorm_wordpool_576.txt	LTP324	ltpFR2	3	10	JUGGLER	763	n/a	n/a	0	0	0
2541.212	n/a	WORD	1270606	wordpools/wasnorm_wordpool_576.txt	LTP324	ltpFR2	3	10	SPOOL	1356	n/a	n/a	0	0	0
2543.94	n/a	WORD	1271970	wordpools/wasnorm_wordpool_576.txt	LTP324	ltpFR2	3	10	CHEMIST	292	n/a	n/a	0	0	0
2546.726	n/a	WORD	1273363	wordpools/wasnorm_wordpool_576.txt	LTP324	ltpFR2	3	10	FLASK	576	n/a	n/a	0	0	0
2549.306	n/a	WORD	1274653	wordpools/wasnorm_wordpool_576.txt	LTP324	ltpFR2	3	10	SPOON	1357	n/a	n/a	0	0	0
2552.03	n/a	WORD	1276015	wordpools/wasnorm_wordpool_576.txt	LTP324	ltpFR2	3	10	EUROPE	541	n/a	n/a	0	0	0
2554.65	n/a	WORD	1277325	wordpools/wasnorm_wordpool_576.txt	LTP324	ltpFR2	3	10	SMOG	1330	n/a	n/a	0	0	0
2557.218	n/a	WORD	1278609	wordpools/wasnorm_wordpool_576.txt	LTP324	ltpFR2	3	10	STAMP	1370	n/a	n/a	0	0	0
2559.88	n/a	WORD	1279940	wordpools/wasnorm_wordpool_576.txt	LTP324	ltpFR2	3	10	STAKE	1368	n/a	n/a	0	0	0
2562.332	n/a	WORD	1281166	wordpools/wasnorm_wordpool_576.txt	LTP324	ltpFR2	3	10	COLLEGE	346	n/a	n/a	0	0	0
2565.116	n/a	WORD	1282558	wordpools/wasnorm_wordpool_576.txt	LTP324	ltpFR2	3	10	DONOR	485	n/a	n/a	0	0	0
2567.736	n/a	WORD	1283868	wordpools/wasnorm_wordpool_576.txt	LTP324	ltpFR2	3	10	STATUE	1374	n/a	n/a	0	0	0
2570.456	n/a	WORD	1285228	wordpools/wasnorm_wordpool_576.txt	LTP324	ltpFR2	3	10	JAPAN	749	n/a	n/a	0	0	0
2572.956	n/a	WORD	1286478	wordpools/wasnorm_wordpool_576.txt	LTP324	ltpFR2	3	10	MONEY	908	n/a	n/a	0	0	0
2575.626	n/a	WORD	1287813	wordpools/wasnorm_wordpool_576.txt	LTP324	ltpFR2	3	10	DORM	488	n/a	n/a	0	0	0
2578.266	n/a	WORD	1289133	wordpools/wasnorm_wordpool_576.txt	LTP324	ltpFR2	3	10	TREAT	1501	n/a	n/a	0	0	0
2580.864	n/a	WORD	1290432	wordpools/wasnorm_wordpool_576.txt	LTP324	ltpFR2	3	10	CANDY	230	n/a	n/a	0	0	0
2583.284	n/a	WORD	1291642	wordpools/wasnorm_wordpool_576.txt	LTP324	ltpFR2	3	10	HEADBAND	696	n/a	n/a	0	0	0
2585.886	n/a	WORD	1292943	wordpools/wasnorm_wordpool_576.txt	LTP324	ltpFR2	3	10	THREAD	1460	n/a	n/a	0	0	0
2588.422	n/a	WORD	1294211	wordpools/wasnorm_wordpool_576.txt	LTP324	ltpFR2	3	10	DRAGON	492	n/a	n/a	0	0	0
2590.86	n/a	WORD	1295430	wordpools/wasnorm_wordpool_576.txt	LTP324	ltpFR2	3	10	SHERIFF	1284	n/a	n/a	0	0	0
2593.526	n/a	WORD	1296763	wordpools/wasnorm_wordpool_576.txt	LTP324	ltpFR2	3	10	BABY	64	n/a	n/a	0	0	0
2596.344	n/a	WORD	1298172	wordpools/wasnorm_wordpool_576.txt	LTP324	ltpFR2	3	10	STUDENT	1395	n/a	n/a	0	0	0
2598.83	n/a	WORD	1299415	wordpools/wasnorm_wordpool_576.txt	LTP324	ltpFR2	3	10	EYELASH	546	n/a	n/a	0	0	0
2600.436	n/a	START	1300218	n/a	LTP324	ltpFR2	3	n/a	n/a	n/a	16	n/a	n/a	n/a	n/a
2601.464	n/a	DISTRACTOR	1300732	n/a	LTP324	ltpFR2	3	10	n/a	n/a	n/a	n/a	0	0	0
2601.47	n/a	PROB	1300735	n/a	LTP324	ltpFR2	3	n/a	n/a	n/a	16	4	1	1	2
2602.416	n/a	PROB	1301208	n/a	LTP324	ltpFR2	3	n/a	n/a	n/a	16	21	5	9	7
2604.116	n/a	PROB	1302058	n/a	LTP324	ltpFR2	3	n/a	n/a	n/a	16	16	1	8	7
2605.268	n/a	PROB	1302634	n/a	LTP324	ltpFR2	3	n/a	n/a	n/a	16	15	2	8	5
2606.754	n/a	PROB	1303377	n/a	LTP324	ltpFR2	3	n/a	n/a	n/a	16	19	5	8	6
2608.636	n/a	PROB	1304318	n/a	LTP324	ltpFR2	3	n/a	n/a	n/a	16	20	6	8	9
2611.772	n/a	PROB	1305886	n/a	LTP324	ltpFR2	3	n/a	n/a	n/a	16	11	6	1	4
2613.926	n/a	PROB	1306963	n/a	LTP324	ltpFR2	3	n/a	n/a	n/a	16	19	4	9	6
2615.208	n/a	PROB	1307604	n/a	LTP324	ltpFR2	3	n/a	n/a	n/a	16	19	8	7	4
2616.546	n/a	PROB	1308273	n/a	LTP324	ltpFR2	3	n/a	n/a	n/a	16	17	4	5	8
2618.68	n/a	PROB	1309340	n/a	LTP324	ltpFR2	3	n/a	n/a	n/a	16	20	8	6	6
2620.03	n/a	PROB	1310015	n/a	LTP324	ltpFR2	3	n/a	n/a	n/a	16	21	7	9	5
2622.146	n/a	PROB	1311073	n/a	LTP324	ltpFR2	3	n/a	n/a	n/a	16	9	4	4	1
2622.922	n/a	STOP	1311461	n/a	LTP324	ltpFR2	3	n/a	n/a	n/a	16	n/a	n/a	n/a	n/a
2626.49	n/a	REC_START	1313245	n/a	LTP324	ltpFR2	3	10	n/a	n/a	n/a	n/a	0	0	0
2628.274	n/a	REC_WORD	1314137	wordpools/wasnorm_wordpool_576.txt	LTP324	ltpFR2	3	10	SPOOL	1356	n/a	n/a	0	0	0
2629.69	n/a	REC_WORD	1314845	wordpools/wasnorm_wordpool_576.txt	LTP324	ltpFR2	3	10	THREAD	1460	n/a	n/a	0	0	0
2632.892	n/a	REC_WORD	1316446	wordpools/wasnorm_wordpool_576.txt	LTP324	ltpFR2	3	10	STUDENT	1395	n/a	n/a	0	0	0
2637.2	n/a	REC_WORD	1318600	wordpools/wasnorm_wordpool_576.txt	LTP324	ltpFR2	3	10	CHEMIST	292	n/a	n/a	0	0	0
2639.056	n/a	REC_WORD	1319528	wordpools/wasnorm_wordpool_576.txt	LTP324	ltpFR2	3	10	JUGGLER	763	n/a	n/a	0	0	0
2640.154	n/a	REC_WORD	1320077	wordpools/wasnorm_wordpool_576.txt	LTP324	ltpFR2	3	10	FLASK	576	n/a	n/a	0	0	0
2646.882	n/a	REC_WORD	1323441	wordpools/wasnorm_wordpool_576.txt	LTP324	ltpFR2	3	10	CASH	252	n/a	n/a	0	0	0
2648.706	n/a	REC_WORD	1324353	wordpools/wasnorm_wordpool_576.txt	LTP324	ltpFR2	3	10	MONEY	908	n/a	n/a	0	0	0
2652.352	n/a	REC_WORD	1326176	wordpools/wasnorm_wordpool_576.txt	LTP324	ltpFR2	3	10	STAMP	1370	n/a	n/a	0	0	0
2653.952	n/a	REC_WORD	1326976	wordpools/wasnorm_wordpool_576.txt	LTP324	ltpFR2	3	10	STAKE	1368	n/a	n/a	0	0	0
2663.134	n/a	REC_WORD	1331567	wordpools/wasnorm_wordpool_576.txt	LTP324	ltpFR2	3	10	STATUE	1374	n/a	n/a	0	0	0
2665.004	n/a	REC_WORD	1332502	wordpools/wasnorm_wordpool_576.txt	LTP324	ltpFR2	3	10	JAPAN	749	n/a	n/a	0	0	0
2666.192	n/a	REC_WORD	1333096	wordpools/wasnorm_wordpool_576.txt	LTP324	ltpFR2	3	10	EUROPE	541	n/a	n/a	0	0	0
2685.988	n/a	REC_WORD	1342994	wordpools/wasnorm_wordpool_576.txt	LTP324	ltpFR2	3	10	BABY	64	n/a	n/a	0	0	0
2697.946	n/a	REC_WORD	1348973	wordpools/wasnorm_wordpool_576.txt	LTP324	ltpFR2	3	10	DONOR	485	n/a	n/a	0	0	0
2699.812	n/a	REC_WORD	1349906	wordpools/wasnorm_wordpool_576.txt	LTP324	ltpFR2	3	10	DORM	488	n/a	n/a	0	0	0
2716.658	n/a	WORD	1358329	wordpools/wasnorm_wordpool_576.txt	LTP324	ltpFR2	3	11	SNACK	1331	n/a	n/a	0	0	0
2719.394	n/a	WORD	1359697	wordpools/wasnorm_wordpool_576.txt	LTP324	ltpFR2	3	11	COURSE	390	n/a	n/a	0	0	0
2721.996	n/a	WORD	1360998	wordpools/wasnorm_wordpool_576.txt	LTP324	ltpFR2	3	11	BRACES	164	n/a	n/a	0	0	0
2724.564	n/a	WORD	1362282	wordpools/wasnorm_wordpool_576.txt	LTP324	ltpFR2	3	11	PUDDLE	1140	n/a	n/a	0	0	0
2727.272	n/a	WORD	1363636	wordpools/wasnorm_wordpool_576.txt	LTP324	ltpFR2	3	11	CHAUFFEUR	283	n/a	n/a	0	0	0
2729.692	n/a	WORD	1364846	wordpools/wasnorm_wordpool_576.txt	LTP324	ltpFR2	3	11	INMATE	738	n/a	n/a	0	0	0
2732.288	n/a	WORD	1366144	wordpools/wasnorm_wordpool_576.txt	LTP324	ltpFR2	3	11	BLOUSE	139	n/a	n/a	0	0	0
2734.762	n/a	WORD	1367381	wordpools/wasnorm_wordpool_576.txt	LTP324	ltpFR2	3	11	DENIM	446	n/a	n/a	0	0	0
2737.508	n/a	WORD	1368754	wordpools/wasnorm_wordpool_576.txt	LTP324	ltpFR2	3	11	PLAZA	1088	n/a	n/a	0	0	0
2739.942	n/a	WORD	1369971	wordpools/wasnorm_wordpool_576.txt	LTP324	ltpFR2	3	11	COUSIN	392	n/a	n/a	0	0	0
2742.478	n/a	WORD	1371239	wordpools/wasnorm_wordpool_576.txt	LTP324	ltpFR2	3	11	FRAME	600	n/a	n/a	0	0	0
2745.03	n/a	WORD	1372515	wordpools/wasnorm_wordpool_576.txt	LTP324	ltpFR2	3	11	CRUTCH	417	n/a	n/a	0	0	0
2747.556	n/a	WORD	1373778	wordpools/wasnorm_wordpool_576.txt	LTP324	ltpFR2	3	11	DANDRUFF	439	n/a	n/a	0	0	0
2750.018	n/a	WORD	1375009	wordpools/wasnorm_wordpool_576.txt	LTP324	ltpFR2	3	11	SCARF	1246	n/a	n/a	0	0	0
2752.61	n/a	WORD	1376305	wordpools/wasnorm_wordpool_576.txt	LTP324	ltpFR2	3	11	CONTRACT	368	n/a	n/a	0	0	0
2755.388	n/a	WORD	1377694	wordpools/wasnorm_wordpool_576.txt	LTP324	ltpFR2	3	11	CIGAR	308	n/a	n/a	0	0	0
2758.08	n/a	WORD	1379040	wordpools/wasnorm_wordpool_576.txt	LTP324	ltpFR2	3	11	SOFTBALL	1343	n/a	n/a	0	0	0
2760.616	n/a	WORD	1380308	wordpools/wasnorm_wordpool_576.txt	LTP324	ltpFR2	3	11	BODY	145	n/a	n/a	0	0	0
2763.336	n/a	WORD	1381668	wordpools/wasnorm_wordpool_576.txt	LTP324	ltpFR2	3	11	LOVER	846	n/a	n/a	0	0	0
2766.072	n/a	WORD	1383036	wordpools/wasnorm_wordpool_576.txt	LTP324	ltpFR2	3	11	HUSBAND	728	n/a	n/a	0	0	0
2768.708	n/a	WORD	1384354	wordpools/wasnorm_wordpool_576.txt	LTP324	ltpFR2	3	11	SKETCH	1315	n/a	n/a	0	0	0
2771.2	n/a	WORD	1385600	wordpools/wasnorm_wordpool_576.txt	LTP324	ltpFR2	3	11	SWAMP	1416	n/a	n/a	0	0	0
2773.678	n/a	WORD	1386839	wordpools/wasnorm_wordpool_576.txt	LTP324	ltpFR2	3	11	MARSH	874	n/a	n/a	0	0	0
2776.338	n/a	WORD	1388169	wordpools/wasnorm_wordpool_576.txt	LTP324	ltpFR2	3	11	DENTIST	447	n/a	n/a	0	0	0
2777.95	n/a	START	1388975	n/a	LTP324	ltpFR2	3	n/a	n/a	n/a	17	n/a	n/a	n/a	n/a
2778.774	n/a	DISTRACTOR	1389387	n/a	LTP324	ltpFR2	3	11	n/a	n/a	n/a	n/a	0	0	0
2778.782	n/a	PROB	1389391	n/a	LTP324	ltpFR2	3	n/a	n/a	n/a	17	12	3	7	2
2780.272	n/a	PROB	1390136	n/a	LTP324	ltpFR2	3	n/a	n/a	n/a	17	17	6	2	9
2781.724	n/a	PROB	1390862	n/a	LTP324	ltpFR2	3	n/a	n/a	n/a	17	19	8	2	9
2784.076	n/a	PROB	1392038	n/a	LTP324	ltpFR2	3	n/a	n/a	n/a	17	20	4	9	7
2785.66	n/a	PROB	1392830	n/a	LTP324	ltpFR2	3	n/a	n/a	n/a	17	13	8	2	3
2787.028	n/a	PROB	1393514	n/a	LTP324	ltpFR2	3	n/a	n/a	n/a	17	13	1	8	4
2788.38	n/a	PROB	1394190	n/a	LTP324	ltpFR2	3	n/a	n/a	n/a	17	15	6	3	6
2789.68	n/a	PROB	1394840	n/a	LTP324	ltpFR2	3	n/a	n/a	n/a	17	12	2	8	2
2791.148	n/a	PROB	1395574	n/a	LTP324	ltpFR2	3	n/a	n/a	n/a	17	9	2	4	3
2792.384	n/a	PROB	1396192	n/a	LTP324	ltpFR2	3	n/a	n/a	n/a	17	14	4	8	2
2793.5	n/a	PROB	1396750	n/a	LTP324	ltpFR2	3	n/a	n/a	n/a	17	10	8	1	1
2794.216	n/a	PROB	1397108	n/a	LTP324	ltpFR2	3	n/a	n/a	n/a	17	19	9	5	5
2795.15	n/a	PROB	1397575	n/a	LTP324	ltpFR2	3	n/a	n/a	n/a	17	20	5	8	7
2796.504	n/a	PROB	1398252	n/a	LTP324	ltpFR2	3	n/a	n/a	n/a	17	15	6	1	8
2797.452	n/a	PROB	1398726	n/a	LTP324	ltpFR2	3	n/a	n/a	n/a	17	12	1	3	8
2799.556	n/a	PROB	1399778	n/a	LTP324	ltpFR2	3	n/a	n/a	n/a	17	17	8	5	4
2800.98	n/a	STOP	1400490	n/a	LTP324	ltpFR2	3	n/a	n/a	n/a	17	n/a	n/a	n/a	n/a
2803.744	n/a	REC_START	1401872	n/a	LTP324	ltpFR2	3	11	n/a	n/a	n/a	n/a	0	0	0
2805.606	n/a	REC_WORD	1402803	wordpools/wasnorm_wordpool_576.txt	LTP324	ltpFR2	3	11	BODY	145	n/a	n/a	0	0	0
2806.464	n/a	REC_WORD	1403232	wordpools/wasnorm_wordpool_576.txt	LTP324	ltpFR2	3	11	LOVER	846	n/a	n/a	0	0	0
2807.396	n/a	REC_WORD	1403698	wordpools/wasnorm_wordpool_576.txt	LTP324	ltpFR2	3	11	HUSBAND	728	n/a	n/a	0	0	0
2811.54	n/a	REC_WORD	1405770	wordpools/wasnorm_wordpool_576.txt	LTP324	ltpFR2	3	11	BRACES	164	n/a	n/a	0	0	0
2825.204	n/a	REC_WORD	1412602	wordpools/wasnorm_wordpool_576.txt	LTP324	ltpFR2	3	11	COURSE	390	n/a	n/a	0	0	0
2922.952	n/a	DISTRACTOR	1461476	n/a	LTP324	ltpFR2	3	12	n/a	n/a	n/a	n/a	0	0	0
2922.952	n/a	START	1461476	n/a	LTP324	ltpFR2	3	n/a	n/a	n/a	18	n/a	n/a	n/a	n/a
2922.968	n/a	PROB	1461484	n/a	LTP324	ltpFR2	3	n/a	n/a	n/a	18	22	8	8	6
2924.954	n/a	PROB	1462477	n/a	LTP324	ltpFR2	3	n/a	n/a	n/a	18	5	1	1	3
2925.636	n/a	PROB	1462818	n/a	LTP324	ltpFR2	3	n/a	n/a	n/a	18	17	8	8	1
2927.038	n/a	PROB	1463519	n/a	LTP324	ltpFR2	3	n/a	n/a	n/a	18	17	7	4	6
2929.974	n/a	PROB	1464987	n/a	LTP324	ltpFR2	3	n/a	n/a	n/a	18	10	7	2	1
2930.906	n/a	PROB	1465453	n/a	LTP324	ltpFR2	3	n/a	n/a	n/a	18	19	8	2	9
2933.01	n/a	PROB	1466505	n/a	LTP324	ltpFR2	3	n/a	n/a	n/a	18	23	7	8	8
2934.83	n/a	PROB	1467415	n/a	LTP324	ltpFR2	3	n/a	n/a	n/a	18	9	4	3	2
2935.93	n/a	PROB	1467965	n/a	LTP324	ltpFR2	3	n/a	n/a	n/a	18	19	5	7	7
2937.244	n/a	PROB	1468622	n/a	LTP324	ltpFR2	3	n/a	n/a	n/a	18	2	9	8	4
2938.612	n/a	PROB	1469306	n/a	LTP324	ltpFR2	3	n/a	n/a	n/a	18	12	8	2	2
2940.332	n/a	PROB	1470166	n/a	LTP324	ltpFR2	3	n/a	n/a	n/a	18	17	5	7	5
2941.716	n/a	PROB	1470858	n/a	LTP324	ltpFR2	3	n/a	n/a	n/a	18	20	5	7	8
2943.702	n/a	PROB	1471851	n/a	LTP324	ltpFR2	3	n/a	n/a	n/a	18	18	3	8	7
2945.44	n/a	STOP	1472720	n/a	LTP324	ltpFR2	3	n/a	n/a	n/a	18	n/a	n/a	n/a	n/a
2947.906	n/a	WORD	1473953	wordpools/wasnorm_wordpool_576.txt	LTP324	ltpFR2	3	12	BURGLAR	200	n/a	n/a	0	0	0
2950.69	n/a	WORD	1475345	wordpools/wasnorm_wordpool_576.txt	LTP324	ltpFR2	3	12	SNAIL	1332	n/a	n/a	0	0	0
2953.196	n/a	WORD	1476598	wordpools/wasnorm_wordpool_576.txt	LTP324	ltpFR2	3	12	ROCKET	1202	n/a	n/a	0	0	0
2955.878	n/a	WORD	1477939	wordpools/wasnorm_wordpool_576.txt	LTP324	ltpFR2	3	12	PEPPER	1047	n/a	n/a	0	0	0
2958.634	n/a	WORD	1479317	wordpools/wasnorm_wordpool_576.txt	LTP324	ltpFR2	3	12	CARRIAGE	248	n/a	n/a	0	0	0
2961.102	n/a	WORD	1480551	wordpools/wasnorm_wordpool_576.txt	LTP324	ltpFR2	3	12	STALLION	1369	n/a	n/a	0	0	0
2963.866	n/a	WORD	1481933	wordpools/wasnorm_wordpool_576.txt	LTP324	ltpFR2	3	12	TURKEY	1520	n/a	n/a	0	0	0
2966.358	n/a	WORD	1483179	wordpools/wasnorm_wordpool_576.txt	LTP324	ltpFR2	3	12	OFFICE	972	n/a	n/a	0	0	0
2968.854	n/a	WORD	1484427	wordpools/wasnorm_wordpool_576.txt	LTP324	ltpFR2	3	12	WORKER	1621	n/a	n/a	0	0	0
2971.34	n/a	WORD	1485670	wordpools/wasnorm_wordpool_576.txt	LTP324	ltpFR2	3	12	APRON	35	n/a	n/a	0	0	0
2974.008	n/a	WORD	1487004	wordpools/wasnorm_wordpool_576.txt	LTP324	ltpFR2	3	12	RELISH	1183	n/a	n/a	0	0	0
2976.75	n/a	WORD	1488375	wordpools/wasnorm_wordpool_576.txt	LTP324	ltpFR2	3	12	GLOBE	641	n/a	n/a	0	0	0
2979.236	n/a	WORD	1489618	wordpools/wasnorm_wordpool_576.txt	LTP324	ltpFR2	3	12	RUG	1215	n/a	n/a	0	0	0
2981.72	n/a	WORD	1490860	wordpools/wasnorm_wordpool_576.txt	LTP324	ltpFR2	3	12	POSTAGE	1113	n/a	n/a	0	0	0
2984.524	n/a	WORD	1492262	wordpools/wasnorm_wordpool_576.txt	LTP324	ltpFR2	3	12	CHAPEL	280	n/a	n/a	0	0	0
2987.344	n/a	WORD	1493672	wordpools/wasnorm_wordpool_576.txt	LTP324	ltpFR2	3	12	RABBIT	1152	n/a	n/a	0	0	0
2989.804	n/a	WORD	1494902	wordpools/wasnorm_wordpool_576.txt	LTP324	ltpFR2	3	12	FOX	598	n/a	n/a	0	0	0
2992.406	n/a	WORD	1496203	wordpools/wasnorm_wordpool_576.txt	LTP324	ltpFR2	3	12	COMET	353	n/a	n/a	0	0	0
2995.008	n/a	WORD	1497504	wordpools/wasnorm_wordpool_576.txt	LTP324	ltpFR2	3	12	COWBOY	395	n/a	n/a	0	0	0
2997.56	n/a	WORD	1498780	wordpools/wasnorm_wordpool_576.txt	LTP324	ltpFR2	3	12	GROUND	666	n/a	n/a	0	0	0
3000.252	n/a	WORD	1500126	wordpools/wasnorm_wordpool_576.txt	LTP324	ltpFR2	3	12	PLUTO	1092	n/a	n/a	0	0	0
3002.956	n/a	WORD	1501478	wordpools/wasnorm_wordpool_576.txt	LTP324	ltpFR2	3	12	HANDBAG	684	n/a	n/a	0	0	0
3005.666	n/a	WORD	1502833	wordpools/wasnorm_wordpool_576.txt	LTP324	ltpFR2	3	12	ROBBER	1197	n/a	n/a	0	0	0
3008.2	n/a	WORD	1504100	wordpools/wasnorm_wordpool_576.txt	LTP324	ltpFR2	3	12	BEEF	113	n/a	n/a	0	0	0
3009.812	n/a	START	1504906	n/a	LTP324	ltpFR2	3	n/a	n/a	n/a	19	n/a	n/a	n/a	n/a
3010.85	n/a	DISTRACTOR	1505425	n/a	LTP324	ltpFR2	3	12	n/a	n/a	n/a	n/a	0	0	0
3010.862	n/a	PROB	1505431	n/a	LTP324	ltpFR2	3	n/a	n/a	n/a	19	18	7	8	3
3011.854	n/a	PROB	1505927	n/a	LTP324	ltpFR2	3	n/a	n/a	n/a	19	22	6	8	8
3013.638	n/a	PROB	1506819	n/a	LTP324	ltpFR2	3	n/a	n/a	n/a	19	6	3	1	2
3014.506	n/a	PROB	1507253	n/a	LTP324	ltpFR2	3	n/a	n/a	n/a	19	6	2	1	3
3015.156	n/a	PROB	1507578	n/a	LTP324	ltpFR2	3	n/a	n/a	n/a	19	12	3	2	6
3016.274	n/a	PROB	1508137	n/a	LTP324	ltpFR2	3	n/a	n/a	n/a	19	11	1	5	5
3017.86	n/a	PROB	1508930	n/a	LTP324	ltpFR2	3	n/a	n/a	n/a	19	18	3	9	6
3019.794	n/a	PROB	1509897	n/a	LTP324	ltpFR2	3	n/a	n/a	n/a	19	15	4	2	9
3020.844	n/a	PROB	1510422	n/a	LTP324	ltpFR2	3	n/a	n/a	n/a	19	17	9	5	3
3022.614	n/a	PROB	1511307	n/a	LTP324	ltpFR2	3	n/a	n/a	n/a	19	20	6	7	7
3024.148	n/a	PROB	1512074	n/a	LTP324	ltpFR2	3	n/a	n/a	n/a	19	11	6	3	2
3026.196	n/a	PROB	1513098	n/a	LTP324	ltpFR2	3	n/a	n/a	n/a	19	16	4	9	3
3027.366	n/a	PROB	1513683	n/a	LTP324	ltpFR2	3	n/a	n/a	n/a	19	9	4	1	4
3028.218	n/a	PROB	1514109	n/a	LTP324	ltpFR2	3	n/a	n/a	n/a	19	19	5	7	7
3030.004	n/a	PROB	1515002	n/a	LTP324	ltpFR2	3	n/a	n/a	n/a	19	15	5	7	3
3032.17	n/a	PROB	1516085	n/a	LTP324	ltpFR2	3	n/a	n/a	n/a	19	10	2	6	2
3033.552	n/a	STOP	1516776	n/a	LTP324	ltpFR2	3	n/a	n/a	n/a	19	n/a	n/a	n/a	n/a
3035.588	n/a	REC_START	1517794	n/a	LTP324	ltpFR2	3	12	n/a	n/a	n/a	n/a	0	0	0
3036.402	n/a	REC_WORD	1518201	wordpools/wasnorm_wordpool_576.txt	LTP324	ltpFR2	3	12	CHAPEL	280	n/a	n/a	0	0	0
3037.338	n/a	REC_WORD	1518669	wordpools/wasnorm_wordpool_576.txt	LTP324	ltpFR2	3	12	GROUND	666	n/a	n/a	0	0	0
3038.164	n/a	REC_WORD	1519082	wordpools/wasnorm_wordpool_576.txt	LTP324	ltpFR2	3	12	ROBBER	1197	n/a	n/a	0	0	0
3039.108	n/a	REC_WORD	1519554	wordpools/wasnorm_wordpool_576.txt	LTP324	ltpFR2	3	12	PEPPER	1047	n/a	n/a	0	0	0
3043.28	n/a	REC_WORD	1521640	wordpools/wasnorm_wordpool_576.txt	LTP324	ltpFR2	3	12	ROCKET	1202	n/a	n/a	0	0	0
3047.91	n/a	REC_WORD	1523955	wordpools/wasnorm_wordpool_576.txt	LTP324	ltpFR2	3	12	CARRIAGE	248	n/a	n/a	0	0	0
3049.144	n/a	REC_WORD	1524572	wordpools/wasnorm_wordpool_576.txt	LTP324	ltpFR2	3	12	STALLION	1369	n/a	n/a	0	0	0
3052.014	n/a	REC_WORD	1526007	wordpools/wasnorm_wordpool_576.txt	LTP324	ltpFR2	3	12	WORKER	1621	n/a	n/a	0	0	0
3053.504	n/a	REC_WORD	1526752	wordpools/wasnorm_wordpool_576.txt	LTP324	ltpFR2	3	12	OFFICE	972	n/a	n/a	0	0	0
3054.834	n/a	REC_WORD	1527417	wordpools/wasnorm_wordpool_576.txt	LTP324	ltpFR2	3	12	RELISH	1183	n/a	n/a	0	0	0
3056.152	n/a	REC_WORD	1528076	wordpools/wasnorm_wordpool_576.txt	LTP324	ltpFR2	3	12	RUG	1215	n/a	n/a	0	0	0
3057.53	n/a	REC_WORD	1528765	wordpools/wasnorm_wordpool_576.txt	LTP324	ltpFR2	3	12	GLOBE	641	n/a	n/a	0	0	0
3059.65	n/a	REC_WORD	1529825	wordpools/wasnorm_wordpool_576.txt	LTP324	ltpFR2	3	12	POSTAGE	1113	n/a	n/a	0	0	0
3068.434	n/a	REC_WORD	1534217	wordpools/wasnorm_wordpool_576.txt	LTP324	ltpFR2	3	12	PLUTO	1092	n/a	n/a	0	0	0
3161.888	n/a	WORD	1580944	wordpools/wasnorm_wordpool_576.txt	LTP324	ltpFR2	3	13	HERO	706	n/a	n/a	0	0	0
3164.306	n/a	WORD	1582153	wordpools/wasnorm_wordpool_576.txt	LTP324	ltpFR2	3	13	JURY	766	n/a	n/a	0	0	0
3167.046	n/a	WORD	1583523	wordpools/wasnorm_wordpool_576.txt	LTP324	ltpFR2	3	13	RECORD	1176	n/a	n/a	0	0	0
3169.678	n/a	WORD	1584839	wordpools/wasnorm_wordpool_576.txt	LTP324	ltpFR2	3	13	COUCH	386	n/a	n/a	0	0	0
3172.312	n/a	WORD	1586156	wordpools/wasnorm_wordpool_576.txt	LTP324	ltpFR2	3	13	LUNCH	849	n/a	n/a	0	0	0
3174.832	n/a	WORD	1587416	wordpools/wasnorm_wordpool_576.txt	LTP324	ltpFR2	3	13	OINTMENT	974	n/a	n/a	0	0	0
3177.4	n/a	WORD	1588700	wordpools/wasnorm_wordpool_576.txt	LTP324	ltpFR2	3	13	CHIPMUNK	304	n/a	n/a	0	0	0
3179.952	n/a	WORD	1589976	wordpools/wasnorm_wordpool_576.txt	LTP324	ltpFR2	3	13	ICING	732	n/a	n/a	0	0	0
3182.372	n/a	WORD	1591186	wordpools/wasnorm_wordpool_576.txt	LTP324	ltpFR2	3	13	PEACH	1031	n/a	n/a	0	0	0
3185.156	n/a	WORD	1592578	wordpools/wasnorm_wordpool_576.txt	LTP324	ltpFR2	3	13	STICKER	1382	n/a	n/a	0	0	0
3187.612	n/a	WORD	1593806	wordpools/wasnorm_wordpool_576.txt	LTP324	ltpFR2	3	13	WAGON	1578	n/a	n/a	0	0	0
3190.328	n/a	WORD	1595164	wordpools/wasnorm_wordpool_576.txt	LTP324	ltpFR2	3	13	RADISH	1158	n/a	n/a	0	0	0
3192.912	n/a	WORD	1596456	wordpools/wasnorm_wordpool_576.txt	LTP324	ltpFR2	3	13	FLAG	573	n/a	n/a	0	0	0
3195.73	n/a	WORD	1597865	wordpools/wasnorm_wordpool_576.txt	LTP324	ltpFR2	3	13	WOMAN	1620	n/a	n/a	0	0	0
3198.3	n/a	WORD	1599150	wordpools/wasnorm_wordpool_576.txt	LTP324	ltpFR2	3	13	DAISY	435	n/a	n/a	0	0	0
3201.052	n/a	WORD	1600526	wordpools/wasnorm_wordpool_576.txt	LTP324	ltpFR2	3	13	PUDDING	1139	n/a	n/a	0	0	0
3203.52	n/a	WORD	1601760	wordpools/wasnorm_wordpool_576.txt	LTP324	ltpFR2	3	13	SPOUSE	1358	n/a	n/a	0	0	0
3206.088	n/a	WORD	1603044	wordpools/wasnorm_wordpool_576.txt	LTP324	ltpFR2	3	13	GUITAR	670	n/a	n/a	0	0	0
3208.524	n/a	WORD	1604262	wordpools/wasnorm_wordpool_576.txt	LTP324	ltpFR2	3	13	PASTRY	1022	n/a	n/a	0	0	0
3211.282	n/a	WORD	1605641	wordpools/wasnorm_wordpool_576.txt	LTP324	ltpFR2	3	13	CASKET	255	n/a	n/a	0	0	0
3213.778	n/a	WORD	1606889	wordpools/wasnorm_wordpool_576.txt	LTP324	ltpFR2	3	13	LIGHTNING	820	n/a	n/a	0	0	0
3216.196	n/a	WORD	1608098	wordpools/wasnorm_wordpool_576.txt	LTP324	ltpFR2	3	13	WITNESS	1618	n/a	n/a	0	0	0
3218.616	n/a	WORD	1609308	wordpools/wasnorm_wordpool_576.txt	LTP324	ltpFR2	3	13	BANJO	82	n/a	n/a	0	0	0
3221.182	n/a	WORD	1610591	wordpools/wasnorm_wordpool_576.txt	LTP324	ltpFR2	3	13	FLUTE	585	n/a	n/a	0	0	0
3222.792	n/a	START	1611396	n/a	LTP324	ltpFR2	3	n/a	n/a	n/a	20	n/a	n/a	n/a	n/a
3223.896	n/a	DISTRACTOR	1611948	n/a	LTP324	ltpFR2	3	13	n/a	n/a	n/a	n/a	0	0	0
3223.904	n/a	PROB	1611952	n/a	LTP324	ltpFR2	3	n/a	n/a	n/a	20	5	2	1	2
3224.786	n/a	PROB	1612393	n/a	LTP324	ltpFR2	3	n/a	n/a	n/a	20	12	1	4	7
3225.67	n/a	PROB	1612835	n/a	LTP324	ltpFR2	3	n/a	n/a	n/a	20	17	8	5	4
3226.722	n/a	PROB	1613361	n/a	LTP324	ltpFR2	3	n/a	n/a	n/a	20	6	4	1	1
3227.438	n/a	PROB	1613719	n/a	LTP324	ltpFR2	3	n/a	n/a	n/a	20	6	2	1	3
3228.07	n/a	PROB	1614035	n/a	LTP324	ltpFR2	3	n/a	n/a	n/a	20	20	3	9	8
3229.456	n/a	PROB	1614728	n/a	LTP324	ltpFR2	3	n/a	n/a	n/a	20	26	9	8	9
3231.708	n/a	PROB	1615854	n/a	LTP324	ltpFR2	3	n/a	n/a	n/a	20	20	9	2	9
3233.626	n/a	PROB	1616813	n/a	LTP324	ltpFR2	3	n/a	n/a	n/a	20	17	8	2	7
3235.11	n/a	PROB	1617555	n/a	LTP324	ltpFR2	3	n/a	n/a	n/a	20	20	9	9	2
3236.878	n/a	PROB	1618439	n/a	LTP324	ltpFR2	3	n/a	n/a	n/a	20	6	1	2	3
3238.498	n/a	PROB	1619249	n/a	LTP324	ltpFR2	3	n/a	n/a	n/a	20	6	2	3	1
3239.048	n/a	PROB	1619524	n/a	LTP324	ltpFR2	3	n/a	n/a	n/a	20	20	9	4	7
3241.366	n/a	PROB	1620683	n/a	LTP324	ltpFR2	3	n/a	n/a	n/a	20	12	4	1	7
3242.452	n/a	PROB	1621226	n/a	LTP324	ltpFR2	3	n/a	n/a	n/a	20	18	7	8	3
3243.536	n/a	PROB	1621768	n/a	LTP324	ltpFR2	3	n/a	n/a	n/a	20	19	9	2	8
3245.396	n/a	STOP	1622698	n/a	LTP324	ltpFR2	3	n/a	n/a	n/a	20	n/a	n/a	n/a	n/a
3248.672	n/a	REC_START	1624336	n/a	LTP324	ltpFR2	3	13	n/a	n/a	n/a	n/a	0	0	0
3249.368	n/a	REC_WORD	1624684	wordpools/wasnorm_wordpool_576.txt	LTP324	ltpFR2	3	13	CASKET	255	n/a	n/a	0	0	0
3250.672	n/a	REC_WORD	1625336	wordpools/wasnorm_wordpool_576.txt	LTP324	ltpFR2	3	13	LIGHTNING	820	n/a	n/a	0	0	0
3254.698	n/a	REC_WORD	1627349	wordpools/wasnorm_wordpool_576.txt	LTP324	ltpFR2	3	13	LILY	821	n/a	n/a	0	0	0
3257.428	n/a	REC_WORD	1628714	wordpools/wasnorm_wordpool_576.txt	LTP324	ltpFR2	3	13	WOMAN	1620	n/a	n/a	0	0	0
3261.36	n/a	REC_WORD	1630680	wordpools/wasnorm_wordpool_576.txt	LTP324	ltpFR2	3	13	SPOUSE	1358	n/a	n/a	0	0	0
3263.548	n/a	REC_WORD	1631774	wordpools/wasnorm_wordpool_576.txt	LTP324	ltpFR2	3	13	FLAG	573	n/a	n/a	0	0	0
3267.48	n/a	REC_WORD	1633740	wordpools/wasnorm_wordpool_576.txt	LTP324	ltpFR2	3	13	GUITAR	670	n/a	n/a	0	0	0
3269.14	n/a	REC_WORD	1634570	wordpools/wasnorm_wordpool_576.txt	LTP324	ltpFR2	3	13	BANJO	82	n/a	n/a	0	0	0
3270.91	n/a	REC_WORD	1635455	wordpools/wasnorm_wordpool_576.txt	LTP324	ltpFR2	3	13	OINTMENT	974	n/a	n/a	0	0	0
3290.602	n/a	REC_WORD	1645301	wordpools/wasnorm_wordpool_576.txt	LTP324	ltpFR2	3	13	PASTRY	1022	n/a	n/a	0	0	0
3292.246	n/a	REC_WORD	1646123	wordpools/wasnorm_wordpool_576.txt	LTP324	ltpFR2	3	13	PUDDING	1139	n/a	n/a	0	0	0
3297.14	n/a	REC_WORD	1648570	wordpools/wasnorm_wordpool_576.txt	LTP324	ltpFR2	3	13	PEACH	1031	n/a	n/a	0	0	0
3300.79	n/a	REC_WORD	1650395	wordpools/wasnorm_wordpool_576.txt	LTP324	ltpFR2	3	13	ICING	732	n/a	n/a	0	0	0
3320.758	n/a	REC_WORD	1660379	wordpools/wasnorm_wordpool_576.txt	LTP324	ltpFR2	3	13	JURY	766	n/a	n/a	0	0	0
3321.722	n/a	REC_WORD	1660861	wordpools/wasnorm_wordpool_576.txt	LTP324	ltpFR2	3	13	HERO	706	n/a	n/a	0	0	0
3322.76	n/a	REC_WORD	1661380	wordpools/wasnorm_wordpool_576.txt	LTP324	ltpFR2	3	13	WITNESS	1618	n/a	n/a	0	0	0
3378.022	n/a	WORD	1689011	wordpools/wasnorm_wordpool_576.txt	LTP324	ltpFR2	3	14	AIRPLANE	12	n/a	n/a	0	0	0
3380.558	n/a	WORD	1690279	wordpools/wasnorm_wordpool_576.txt	LTP324	ltpFR2	3	14	TRACTOR	1493	n/a	n/a	0	0	0
3383.142	n/a	WORD	1691571	wordpools/wasnorm_wordpool_576.txt	LTP324	ltpFR2	3	14	FARMER	553	n/a	n/a	0	0	0
3385.812	n/a	WORD	1692906	wordpools/wasnorm_wordpool_576.txt	LTP324	ltpFR2	3	14	MAILBOX	857	n/a	n/a	0	0	0
3388.332	n/a	WORD	1694166	wordpools/wasnorm_wordpool_576.txt	LTP324	ltpFR2	3	14	HOUND	724	n/a	n/a	0	0	0
3390.784	n/a	WORD	1695392	wordpools/wasnorm_wordpool_576.txt	LTP324	ltpFR2	3	14	CANAL	226	n/a	n/a	0	0	0
3393.586	n/a	WORD	1696793	wordpools/wasnorm_wordpool_576.txt	LTP324	ltpFR2	3	14	LAGOON	795	n/a	n/a	0	0	0
3396.37	n/a	WORD	1698185	wordpools/wasnorm_wordpool_576.txt	LTP324	ltpFR2	3	14	ONION	977	n/a	n/a	0	0	0
3399.172	n/a	WORD	1699586	wordpools/wasnorm_wordpool_576.txt	LTP324	ltpFR2	3	14	TWISTER	1530	n/a	n/a	0	0	0
3401.608	n/a	WORD	1700804	wordpools/wasnorm_wordpool_576.txt	LTP324	ltpFR2	3	14	SODA	1341	n/a	n/a	0	0	0
3404.126	n/a	WORD	1702063	wordpools/wasnorm_wordpool_576.txt	LTP324	ltpFR2	3	14	MAILMAN	858	n/a	n/a	0	0	0
3406.548	n/a	WORD	1703274	wordpools/wasnorm_wordpool_576.txt	LTP324	ltpFR2	3	14	WHISKERS	1605	n/a	n/a	0	0	0
3409.164	n/a	WORD	1704582	wordpools/wasnorm_wordpool_576.txt	LTP324	ltpFR2	3	14	PADDLE	1000	n/a	n/a	0	0	0
3411.916	n/a	WORD	1705958	wordpools/wasnorm_wordpool_576.txt	LTP324	ltpFR2	3	14	SHELTER	1282	n/a	n/a	0	0	0
3414.418	n/a	WORD	1707209	wordpools/wasnorm_wordpool_576.txt	LTP324	ltpFR2	3	14	CATCHER	258	n/a	n/a	0	0	0
3416.92	n/a	WORD	1708460	wordpools/wasnorm_wordpool_576.txt	LTP324	ltpFR2	3	14	BARLEY	88	n/a	n/a	0	0	0
3419.726	n/a	WORD	1709863	wordpools/wasnorm_wordpool_576.txt	LTP324	ltpFR2	3	14	BANQUET	86	n/a	n/a	0	0	0
3422.156	n/a	WORD	1711078	wordpools/wasnorm_wordpool_576.txt	LTP324	ltpFR2	3	14	PUPPY	1144	n/a	n/a	0	0	0
3424.826	n/a	WORD	1712413	wordpools/wasnorm_wordpool_576.txt	LTP324	ltpFR2	3	14	PANTHER	1009	n/a	n/a	0	0	0
3427.528	n/a	WORD	1713764	wordpools/wasnorm_wordpool_576.txt	LTP324	ltpFR2	3	14	FLESH	579	n/a	n/a	0	0	0
3430.03	n/a	WORD	1715015	wordpools/wasnorm_wordpool_576.txt	LTP324	ltpFR2	3	14	REBEL	1172	n/a	n/a	0	0	0
3432.55	n/a	WORD	1716275	wordpools/wasnorm_wordpool_576.txt	LTP324	ltpFR2	3	14	SHARK	1275	n/a	n/a	0	0	0
3435.134	n/a	WORD	1717567	wordpools/wasnorm_wordpool_576.txt	LTP324	ltpFR2	3	14	ELBOW	520	n/a	n/a	0	0	0
3437.618	n/a	WORD	1718809	wordpools/wasnorm_wordpool_576.txt	LTP324	ltpFR2	3	14	SHORTCAKE	1292	n/a	n/a	0	0	0
3439.226	n/a	START	1719613	n/a	LTP324	ltpFR2	3	n/a	n/a	n/a	21	n/a	n/a	n/a	n/a
3440.198	n/a	DISTRACTOR	1720099	n/a	LTP324	ltpFR2	3	14	n/a	n/a	n/a	n/a	0	0	0
3440.204	n/a	PROB	1720102	n/a	LTP324	ltpFR2	3	n/a	n/a	n/a	21	3	1	1	1
3441.122	n/a	PROB	1720561	n/a	LTP324	ltpFR2	3	n/a	n/a	n/a	21	10	5	1	4
3441.972	n/a	PROB	1720986	n/a	LTP324	ltpFR2	3	n/a	n/a	n/a	21	25	9	7	9
3443.874	n/a	PROB	1721937	n/a	LTP324	ltpFR2	3	n/a	n/a	n/a	21	1	7	7	5
3446.476	n/a	PROB	1723238	n/a	LTP324	ltpFR2	3	n/a	n/a	n/a	21	10	5	1	4
3447.426	n/a	PROB	1723713	n/a	LTP324	ltpFR2	3	n/a	n/a	n/a	21	14	7	1	6
3448.426	n/a	PROB	1724213	n/a	LTP324	ltpFR2	3	n/a	n/a	n/a	21	14	3	7	4
3449.53	n/a	PROB	1724765	n/a	LTP324	ltpFR2	3	n/a	n/a	n/a	21	21	9	3	9
3450.846	n/a	PROB	1725423	n/a	LTP324	ltpFR2	3	n/a	n/a	n/a	21	16	2	6	9
3452.514	n/a	PROB	1726257	n/a	LTP324	ltpFR2	3	n/a	n/a	n/a	21	20	9	5	6
3454.8	n/a	PROB	1727400	n/a	LTP324	ltpFR2	3	n/a	n/a	n/a	21	15	7	3	5
3456.098	n/a	PROB	1728049	n/a	LTP324	ltpFR2	3	n/a	n/a	n/a	21	14	7	2	5
3457.384	n/a	PROB	1728692	n/a	LTP324	ltpFR2	3	n/a	n/a	n/a	21	20	7	5	8
3459.92	n/a	PROB	1729960	n/a	LTP324	ltpFR2	3	n/a	n/a	n/a	21	13	4	5	4
3461.386	n/a	PROB	1730693	n/a	LTP324	ltpFR2	3	n/a	n/a	n/a	21	18	6	4	8
3462.68	n/a	STOP	1731340	n/a	LTP324	ltpFR2	3	n/a	n/a	n/a	21	n/a	n/a	n/a	n/a
3464.972	n/a	REC_START	1732486	n/a	LTP324	ltpFR2	3	14	n/a	n/a	n/a	n/a	0	0	0
3466.042	n/a	REC_WORD	1733021	wordpools/wasnorm_wordpool_576.txt	LTP324	ltpFR2	3	14	SHARK	1275	n/a	n/a	0	0	0
3478.52	n/a	REC_WORD	1739260	wordpools/wasnorm_wordpool_576.txt	LTP324	ltpFR2	3	14	LAGOON	795	n/a	n/a	0	0	0
3481.774	n/a	REC_WORD	1740887	wordpools/wasnorm_wordpool_576.txt	LTP324	ltpFR2	3	14	PANTHER	1009	n/a	n/a	0	0	0
3483.262	n/a	REC_WORD	1741631	wordpools/wasnorm_wordpool_576.txt	LTP324	ltpFR2	3	14	PUPPY	1144	n/a	n/a	0	0	0
3485.24	n/a	REC_WORD	1742620	wordpools/wasnorm_wordpool_576.txt	LTP324	ltpFR2	3	14	HOUND	724	n/a	n/a	0	0	0
3487.912	n/a	REC_WORD	1743956	wordpools/wasnorm_wordpool_576.txt	LTP324	ltpFR2	3	14	MAILMAN	858	n/a	n/a	0	0	0
3489.37	n/a	REC_WORD	1744685	wordpools/wasnorm_wordpool_576.txt	LTP324	ltpFR2	3	14	CATCHER	258	n/a	n/a	0	0	0
3493.148	n/a	REC_WORD	1746574	wordpools/wasnorm_wordpool_576.txt	LTP324	ltpFR2	3	14	BARLEY	88	n/a	n/a	0	0	0
3506.66	n/a	REC_WORD	1753330	wordpools/wasnorm_wordpool_576.txt	LTP324	ltpFR2	3	14	SUPPER	1411	n/a	n/a	0	0	0
3608.954	n/a	WORD	1804477	wordpools/wasnorm_wordpool_576.txt	LTP324	ltpFR2	3	15	CLOUD	328	n/a	n/a	0	0	0
3611.654	n/a	WORD	1805827	wordpools/wasnorm_wordpool_576.txt	LTP324	ltpFR2	3	15	SHIRT	1287	n/a	n/a	0	0	0
3614.39	n/a	WORD	1807195	wordpools/wasnorm_wordpool_576.txt	LTP324	ltpFR2	3	15	FEMALE	559	n/a	n/a	0	0	0
3617.026	n/a	WORD	1808513	wordpools/wasnorm_wordpool_576.txt	LTP324	ltpFR2	3	15	TURTLE	1522	n/a	n/a	0	0	0
3619.662	n/a	WORD	1809831	wordpools/wasnorm_wordpool_576.txt	LTP324	ltpFR2	3	15	CYCLONE	431	n/a	n/a	0	0	0
3622.096	n/a	WORD	1811048	wordpools/wasnorm_wordpool_576.txt	LTP324	ltpFR2	3	15	SPHINX	1349	n/a	n/a	0	0	0
3624.648	n/a	WORD	1812324	wordpools/wasnorm_wordpool_576.txt	LTP324	ltpFR2	3	15	COOK	372	n/a	n/a	0	0	0
3627.434	n/a	WORD	1813717	wordpools/wasnorm_wordpool_576.txt	LTP324	ltpFR2	3	15	PALACE	1006	n/a	n/a	0	0	0
3630.17	n/a	WORD	1815085	wordpools/wasnorm_wordpool_576.txt	LTP324	ltpFR2	3	15	CROWN	415	n/a	n/a	0	0	0
3632.722	n/a	WORD	1816361	wordpools/wasnorm_wordpool_576.txt	LTP324	ltpFR2	3	15	LAPEL	800	n/a	n/a	0	0	0
3635.408	n/a	WORD	1817704	wordpools/wasnorm_wordpool_576.txt	LTP324	ltpFR2	3	15	STREAM	1392	n/a	n/a	0	0	0
3637.926	n/a	WORD	1818963	wordpools/wasnorm_wordpool_576.txt	LTP324	ltpFR2	3	15	ISLAND	745	n/a	n/a	0	0	0
3640.428	n/a	WORD	1820214	wordpools/wasnorm_wordpool_576.txt	LTP324	ltpFR2	3	15	SPONGE	1355	n/a	n/a	0	0	0
3642.996	n/a	WORD	1821498	wordpools/wasnorm_wordpool_576.txt	LTP324	ltpFR2	3	15	SHRUB	1299	n/a	n/a	0	0	0
3645.482	n/a	WORD	1822741	wordpools/wasnorm_wordpool_576.txt	LTP324	ltpFR2	3	15	TOASTER	1472	n/a	n/a	0	0	0
3648.266	n/a	WORD	1824133	wordpools/wasnorm_wordpool_576.txt	LTP324	ltpFR2	3	15	EAGLE	512	n/a	n/a	0	0	0
3650.788	n/a	WORD	1825394	wordpools/wasnorm_wordpool_576.txt	LTP324	ltpFR2	3	15	LODGE	839	n/a	n/a	0	0	0
3653.358	n/a	WORD	1826679	wordpools/wasnorm_wordpool_576.txt	LTP324	ltpFR2	3	15	BLUEPRINT	142	n/a	n/a	0	0	0
3655.906	n/a	WORD	1827953	wordpools/wasnorm_wordpool_576.txt	LTP324	ltpFR2	3	15	HIGHWAY	707	n/a	n/a	0	0	0
3658.726	n/a	WORD	1829363	wordpools/wasnorm_wordpool_576.txt	LTP324	ltpFR2	3	15	OUTLAW	989	n/a	n/a	0	0	0
3661.28	n/a	WORD	1830640	wordpools/wasnorm_wordpool_576.txt	LTP324	ltpFR2	3	15	TORTOISE	1486	n/a	n/a	0	0	0
3664.014	n/a	WORD	1832007	wordpools/wasnorm_wordpool_576.txt	LTP324	ltpFR2	3	15	FLEET	578	n/a	n/a	0	0	0
3666.598	n/a	WORD	1833299	wordpools/wasnorm_wordpool_576.txt	LTP324	ltpFR2	3	15	SEAL	1262	n/a	n/a	0	0	0
3669.3	n/a	WORD	1834650	wordpools/wasnorm_wordpool_576.txt	LTP324	ltpFR2	3	15	OMELET	976	n/a	n/a	0	0	0
3670.906	n/a	START	1835453	n/a	LTP324	ltpFR2	3	n/a	n/a	n/a	22	n/a	n/a	n/a	n/a
3671.944	n/a	DISTRACTOR	1835972	n/a	LTP324	ltpFR2	3	15	n/a	n/a	n/a	n/a	0	0	0
3671.952	n/a	PROB	1835976	n/a	LTP324	ltpFR2	3	n/a	n/a	n/a	22	13	7	2	4
3673.302	n/a	PROB	1836651	n/a	LTP324	ltpFR2	3	n/a	n/a	n/a	22	11	2	2	7
3674.338	n/a	PROB	1837169	n/a	LTP324	ltpFR2	3	n/a	n/a	n/a	22	16	7	4	5
3675.888	n/a	PROB	1837944	n/a	LTP324	ltpFR2	3	n/a	n/a	n/a	22	17	4	7	6
3677.188	n/a	PROB	1838594	n/a	LTP324	ltpFR2	3	n/a	n/a	n/a	22	11	4	6	1
3678.022	n/a	PROB	1839011	n/a	LTP324	ltpFR2	3	n/a	n/a	n/a	22	16	2	5	9
3680.974	n/a	PROB	1840487	n/a	LTP324	ltpFR2	3	n/a	n/a	n/a	22	12	4	4	4
3681.758	n/a	PROB	1840879	n/a	LTP324	ltpFR2	3	n/a	n/a	n/a	22	12	1	8	3
3684.226	n/a	PROB	1842113	n/a	LTP324	ltpFR2	3	n/a	n/a	n/a	22	11	4	4	3
3685.594	n/a	PROB	1842797	n/a	LTP324	ltpFR2	3	n/a	n/a	n/a	22	26	7	9	9
3687.662	n/a	PROB	1843831	n/a	LTP324	ltpFR2	3	n/a	n/a	n/a	22	16	9	3	4
3689.998	n/a	PROB	1844999	n/a	LTP324	ltpFR2	3	n/a	n/a	n/a	22	21	7	5	9
3691.75	n/a	PROB	1845875	n/a	LTP324	ltpFR2	3	n/a	n/a	n/a	22	18	9	3	6
3693.15	n/a	PROB	1846575	n/a	LTP324	ltpFR2	3	n/a	n/a	n/a	22	27	9	9	9
3694.218	n/a	STOP	1847109	n/a	LTP324	ltpFR2	3	n/a	n/a	n/a	22	n/a	n/a	n/a	n/a
3696.838	n/a	REC_START	1848419	n/a	LTP324	ltpFR2	3	15	n/a	n/a	n/a	n/a	0	0	0
3697.644	n/a	REC_WORD	1848822	wordpools/wasnorm_wordpool_576.txt	LTP324	ltpFR2	3	15	SEAL	1262	n/a	n/a	0	0	0
3700.274	n/a	REC_WORD	1850137	wordpools/wasnorm_wordpool_576.txt	LTP324	ltpFR2	3	15	TORTOISE	1486	n/a	n/a	0	0	0
3701.832	n/a	REC_WORD	1850916	wordpools/wasnorm_wordpool_576.txt	LTP324	ltpFR2	3	15	TURTLE	1522	n/a	n/a	0	0	0
3705.998	n/a	REC_WORD	1852999	wordpools/wasnorm_wordpool_576.txt	LTP324	ltpFR2	3	15	TWISTER	1530	n/a	n/a	0	0	0
3710.0	n/a	REC_WORD	1855000	wordpools/wasnorm_wordpool_576.txt	LTP324	ltpFR2	3	15	FEMALE	559	n/a	n/a	0	0	0
3711.324	n/a	REC_WORD	1855662	wordpools/wasnorm_wordpool_576.txt	LTP324	ltpFR2	3	15	SHIRT	1287	n/a	n/a	0	0	0
3714.244	n/a	REC_WORD	1857122	wordpools/wasnorm_wordpool_576.txt	LTP324	ltpFR2	3	15	CREEK	404	n/a	n/a	0	0	0
3739.632	n/a	REC_WORD	1869816	wordpools/wasnorm_wordpool_576.txt	LTP324	ltpFR2	3	15	COOK	372	n/a	n/a	0	0	0
3808.892	n/a	DISTRACTOR	1904446	n/a	LTP324	ltpFR2	3	16	n/a	n/a	n/a	n/a	0	0	0
3808.892	n/a	START	1904446	n/a	LTP324	ltpFR2	3	n/a	n/a	n/a	23	n/a	n/a	n/a	n/a
3808.908	n/a	PROB	1904454	n/a	LTP324	ltpFR2	3	n/a	n/a	n/a	23	88	1	6	1
3809.726	n/a	PROB	1904863	n/a	LTP324	ltpFR2	3	n/a	n/a	n/a	23	19	1	9	9
3810.906	n/a	PROB	1905453	n/a	LTP324	ltpFR2	3	n/a	n/a	n/a	23	12	5	2	5
3811.808	n/a	PROB	1905904	n/a	LTP324	ltpFR2	3	n/a	n/a	n/a	23	20	4	7	9
3813.758	n/a	PROB	1906879	n/a	LTP324	ltpFR2	3	n/a	n/a	n/a	23	4	1	1	2
3814.542	n/a	PROB	1907271	n/a	LTP324	ltpFR2	3	n/a	n/a	n/a	23	18	3	9	6
3816.21	n/a	PROB	1908105	n/a	LTP324	ltpFR2	3	n/a	n/a	n/a	23	199	5	7	7
3818.382	n/a	PROB	1909191	n/a	LTP324	ltpFR2	3	n/a	n/a	n/a	23	14	8	1	5
3819.364	n/a	PROB	1909682	n/a	LTP324	ltpFR2	3	n/a	n/a	n/a	23	11	6	4	1
3820.182	n/a	PROB	1910091	n/a	LTP324	ltpFR2	3	n/a	n/a	n/a	23	15	1	8	6
3821.35	n/a	PROB	1910675	n/a	LTP324	ltpFR2	3	n/a	n/a	n/a	23	16	6	6	4
3822.584	n/a	PROB	1911292	n/a	LTP324	ltpFR2	3	n/a	n/a	n/a	23	9	1	3	5
3823.934	n/a	PROB	1911967	n/a	LTP324	ltpFR2	3	n/a	n/a	n/a	23	19	7	3	9
3826.604	n/a	PROB	1913302	n/a	LTP324	ltpFR2	3	n/a	n/a	n/a	23	17	9	4	4
3827.722	n/a	PROB	1913861	n/a	LTP324	ltpFR2	3	n/a	n/a	n/a	23	8	3	4	1
3828.99	n/a	PROB	1914495	n/a	LTP324	ltpFR2	3	n/a	n/a	n/a	23	12	4	4	4
3829.892	n/a	PROB	1914946	n/a	LTP324	ltpFR2	3	n/a	n/a	n/a	23	10	3	6	1
3831.638	n/a	STOP	1915819	n/a	LTP324	ltpFR2	3	n/a	n/a	n/a	23	n/a	n/a	n/a	n/a
3834.06	n/a	WORD	1917030	wordpools/wasnorm_wordpool_576.txt	LTP324	ltpFR2	3	16	PORK	1108	n/a	n/a	0	0	0
3836.514	n/a	WORD	1918257	wordpools/wasnorm_wordpool_576.txt	LTP324	ltpFR2	3	16	PLASTER	1085	n/a	n/a	0	0	0
3838.982	n/a	WORD	1919491	wordpools/wasnorm_wordpool_576.txt	LTP324	ltpFR2	3	16	XEROX	1628	n/a	n/a	0	0	0
3841.618	n/a	WORD	1920809	wordpools/wasnorm_wordpool_576.txt	LTP324	ltpFR2	3	16	BLACKBOARD	133	n/a	n/a	0	0	0
3844.136	n/a	WORD	1922068	wordpools/wasnorm_wordpool_576.txt	LTP324	ltpFR2	3	16	ARMY	39	n/a	n/a	0	0	0
3846.688	n/a	WORD	1923344	wordpools/wasnorm_wordpool_576.txt	LTP324	ltpFR2	3	16	POLICE	1098	n/a	n/a	0	0	0
3849.374	n/a	WORD	1924687	wordpools/wasnorm_wordpool_576.txt	LTP324	ltpFR2	3	16	POCKET	1093	n/a	n/a	0	0	0
3851.858	n/a	WORD	1925929	wordpools/wasnorm_wordpool_576.txt	LTP324	ltpFR2	3	16	PERMIT	1051	n/a	n/a	0	0	0
3854.36	n/a	WORD	1927180	wordpools/wasnorm_wordpool_576.txt	LTP324	ltpFR2	3	16	PEDAL	1037	n/a	n/a	0	0	0
3856.796	n/a	WORD	1928398	wordpools/wasnorm_wordpool_576.txt	LTP324	ltpFR2	3	16	PIANO	1057	n/a	n/a	0	0	0
3859.598	n/a	WORD	1929799	wordpools/wasnorm_wordpool_576.txt	LTP324	ltpFR2	3	16	HARP	689	n/a	n/a	0	0	0
3862.368	n/a	WORD	1931184	wordpools/wasnorm_wordpool_576.txt	LTP324	ltpFR2	3	16	BRAKE	166	n/a	n/a	0	0	0
3864.986	n/a	WORD	1932493	wordpools/wasnorm_wordpool_576.txt	LTP324	ltpFR2	3	16	MAPLE	866	n/a	n/a	0	0	0
3867.638	n/a	WORD	1933819	wordpools/wasnorm_wordpool_576.txt	LTP324	ltpFR2	3	16	HIKER	708	n/a	n/a	0	0	0
3870.456	n/a	WORD	1935228	wordpools/wasnorm_wordpool_576.txt	LTP324	ltpFR2	3	16	SUMMIT	1405	n/a	n/a	0	0	0
3872.944	n/a	WORD	1936472	wordpools/wasnorm_wordpool_576.txt	LTP324	ltpFR2	3	16	PATROL	1027	n/a	n/a	0	0	0
3875.644	n/a	WORD	1937822	wordpools/wasnorm_wordpool_576.txt	LTP324	ltpFR2	3	16	BATHTUB	100	n/a	n/a	0	0	0
3878.178	n/a	WORD	1939089	wordpools/wasnorm_wordpool_576.txt	LTP324	ltpFR2	3	16	GLASS	639	n/a	n/a	0	0	0
3880.698	n/a	WORD	1940349	wordpools/wasnorm_wordpool_576.txt	LTP324	ltpFR2	3	16	GANGSTER	620	n/a	n/a	0	0	0
3883.134	n/a	WORD	1941567	wordpools/wasnorm_wordpool_576.txt	LTP324	ltpFR2	3	16	UMPIRE	1535	n/a	n/a	0	0	0
3885.72	n/a	WORD	1942860	wordpools/wasnorm_wordpool_576.txt	LTP324	ltpFR2	3	16	HUMAN	726	n/a	n/a	0	0	0
3888.254	n/a	WORD	1944127	wordpools/wasnorm_wordpool_576.txt	LTP324	ltpFR2	3	16	FRANCE	601	n/a	n/a	0	0	0
3890.974	n/a	WORD	1945487	wordpools/wasnorm_wordpool_576.txt	LTP324	ltpFR2	3	16	NURSE	963	n/a	n/a	0	0	0
3893.424	n/a	WORD	1946712	wordpools/wasnorm_wordpool_576.txt	LTP324	ltpFR2	3	16	TRANSPLANT	1496	n/a	n/a	0	0	0
3895.03	n/a	START	1947515	n/a	LTP324	ltpFR2	3	n/a	n/a	n/a	24	n/a	n/a	n/a	n/a
3896.178	n/a	DISTRACTOR	1948089	n/a	LTP324	ltpFR2	3	16	n/a	n/a	n/a	n/a	0	0	0
3896.192	n/a	PROB	1948096	n/a	LTP324	ltpFR2	3	n/a	n/a	n/a	24	14	2	3	9
3897.444	n/a	PROB	1948722	n/a	LTP324	ltpFR2	3	n/a	n/a	n/a	24	19	6	8	5
3899.762	n/a	PROB	1949881	n/a	LTP324	ltpFR2	3	n/a	n/a	n/a	24	16	9	3	4
3900.896	n/a	PROB	1950448	n/a	LTP324	ltpFR2	3	n/a	n/a	n/a	24	11	4	1	6
3901.68	n/a	PROB	1950840	n/a	LTP324	ltpFR2	3	n/a	n/a	n/a	24	16	4	5	7
3903.162	n/a	PROB	1951581	n/a	LTP324	ltpFR2	3	n/a	n/a	n/a	24	11	8	2	1
3904.282	n/a	PROB	1952141	n/a	LTP324	ltpFR2	3	n/a	n/a	n/a	24	14	9	2	3
3905.432	n/a	PROB	1952716	n/a	LTP324	ltpFR2	3	n/a	n/a	n/a	24	9	7	1	1
3906.334	n/a	PROB	1953167	n/a	LTP324	ltpFR2	3	n/a	n/a	n/a	24	11	1	5	5
3907.116	n/a	PROB	1953558	n/a	LTP324	ltpFR2	3	n/a	n/a	n/a	24	16	7	6	3
3908.454	n/a	PROB	1954227	n/a	LTP324	ltpFR2	3	n/a	n/a	n/a	24	17	7	1	9
3909.786	n/a	PROB	1954893	n/a	LTP324	ltpFR2	3	n/a	n/a	n/a	24	178	6	3	8
3911.204	n/a	PROB	1955602	n/a	LTP324	ltpFR2	3	n/a	n/a	n/a	24	1	2	7	1
3912.504	n/a	PROB	1956252	n/a	LTP324	ltpFR2	3	n/a	n/a	n/a	24	13	3	6	4
3914.156	n/a	PROB	1957078	n/a	LTP324	ltpFR2	3	n/a	n/a	n/a	24	11	1	4	6
3915.008	n/a	PROB	1957504	n/a	LTP324	ltpFR2	3	n/a	n/a	n/a	24	6	2	1	3
3915.724	n/a	PROB	1957862	n/a	LTP324	ltpFR2	3	n/a	n/a	n/a	24	20	5	9	6
3918.592	n/a	STOP	1959296	n/a	LTP324	ltpFR2	3	n/a	n/a	n/a	24	n/a	n/a	n/a	n/a
3920.93	n/a	REC_START	1960465	n/a	LTP324	ltpFR2	3	16	n/a	n/a	n/a	n/a	0	0	0
3922.814	n/a	REC_WORD	1961407	wordpools/wasnorm_wordpool_576.txt	LTP324	ltpFR2	3	16	TRANSPLANT	1496	n/a	n/a	0	0	0
3924.968	n/a	REC_WORD	1962484	wordpools/wasnorm_wordpool_576.txt	LTP324	ltpFR2	3	16	BLACKBOARD	133	n/a	n/a	0	0	0
3927.64	n/a	REC_WORD	1963820	wordpools/wasnorm_wordpool_576.txt	LTP324	ltpFR2	3	16	ARMY	39	n/a	n/a	0	0	0
3929.246	n/a	REC_WORD	1964623	wordpools/wasnorm_wordpool_576.txt	LTP324	ltpFR2	3	16	PLASTER	1085	n/a	n/a	0	0	0
3931.266	n/a	REC_WORD	1965633	wordpools/wasnorm_wordpool_576.txt	LTP324	ltpFR2	3	16	PORK	1108	n/a	n/a	0	0	0
3943.698	n/a	REC_WORD	1971849	wordpools/wasnorm_wordpool_576.txt	LTP324	ltpFR2	3	16	XEROX	1628	n/a	n/a	0	0	0
3948.266	n/a	REC_WORD	1974133	wordpools/wasnorm_wordpool_576.txt	LTP324	ltpFR2	3	16	GLASS	639	n/a	n/a	0	0	0
3949.536	n/a	REC_WORD	1974768	wordpools/wasnorm_wordpool_576.txt	LTP324	ltpFR2	3	16	GANGSTER	620	n/a	n/a	0	0	0
3950.896	n/a	REC_WORD	1975448	wordpools/wasnorm_wordpool_576.txt	LTP324	ltpFR2	3	16	UMPIRE	1535	n/a	n/a	0	0	0
3958.092	n/a	REC_WORD	1979046	wordpools/wasnorm_wordpool_576.txt	LTP324	ltpFR2	3	16	SUMMIT	1405	n/a	n/a	0	0	0
3966.898	n/a	REC_WORD	1983449	wordpools/wasnorm_wordpool_576.txt	LTP324	ltpFR2	3	16	HUMAN	726	n/a	n/a	0	0	0
3968.278	n/a	REC_WORD	1984139	wordpools/wasnorm_wordpool_576.txt	LTP324	ltpFR2	3	16	FRANCE	601	n/a	n/a	0	0	0
3977.8	n/a	REC_WORD	1988900	wordpools/wasnorm_wordpool_576.txt	LTP324	ltpFR2	3	16	BRAKE	166	n/a	n/a	0	0	0
3979.242	n/a	REC_WORD	1989621	wordpools/wasnorm_wordpool_576.txt	LTP324	ltpFR2	3	16	PEDAL	1037	n/a	n/a	0	0	0
3980.692	n/a	REC_WORD	1990346	wordpools/wasnorm_wordpool_576.txt	LTP324	ltpFR2	3	16	HARP	689	n/a	n/a	0	0	0
3984.612	n/a	REC_WORD	1992306	wordpools/wasnorm_wordpool_576.txt	LTP324	ltpFR2	3	16	PIANO	1057	n/a	n/a	0	0	0
3997.456	n/a	REST_REWET	1998728	n/a	LTP324	ltpFR2	3	16	n/a	n/a	n/a	n/a	0	0	0
4268.33	n/a	DISTRACTOR	2134165	n/a	LTP324	ltpFR2	3	17	n/a	n/a	n/a	n/a	0	0	0
4268.33	n/a	START	2134165	n/a	LTP324	ltpFR2	3	n/a	n/a	n/a	25	n/a	n/a	n/a	n/a
4268.346	n/a	PROB	2134173	n/a	LTP324	ltpFR2	3	n/a	n/a	n/a	25	19	6	9	4
4270.002	n/a	PROB	2135001	n/a	LTP324	ltpFR2	3	n/a	n/a	n/a	25	25	8	9	8
4272.906	n/a	PROB	2136453	n/a	LTP324	ltpFR2	3	n/a	n/a	n/a	25	15	4	6	5
4274.166	n/a	PROB	2137083	n/a	LTP324	ltpFR2	3	n/a	n/a	n/a	25	22	6	7	9
4275.808	n/a	PROB	2137904	n/a	LTP324	ltpFR2	3	n/a	n/a	n/a	25	19	4	8	7
4277.858	n/a	PROB	2138929	n/a	LTP324	ltpFR2	3	n/a	n/a	n/a	25	19	8	4	7
4279.172	n/a	PROB	2139586	n/a	LTP324	ltpFR2	3	n/a	n/a	n/a	25	15	4	4	4
4279.942	n/a	PROB	2139971	n/a	LTP324	ltpFR2	3	n/a	n/a	n/a	25	19	4	6	9
4281.26	n/a	PROB	2140630	n/a	LTP324	ltpFR2	3	n/a	n/a	n/a	25	7	1	3	3
4282.238	n/a	PROB	2141119	n/a	LTP324	ltpFR2	3	n/a	n/a	n/a	25	15	5	4	6
4283.408	n/a	PROB	2141704	n/a	LTP324	ltpFR2	3	n/a	n/a	n/a	25	18	8	2	6
4286.244	n/a	PROB	2143122	n/a	LTP324	ltpFR2	3	n/a	n/a	n/a	25	6	4	1	1
4287.364	n/a	PROB	2143682	n/a	LTP324	ltpFR2	3	n/a	n/a	n/a	25	19	9	4	6
4289.412	n/a	PROB	2144706	n/a	LTP324	ltpFR2	3	n/a	n/a	n/a	25	21	6	9	6
4290.682	n/a	PROB	2145341	n/a	LTP324	ltpFR2	3	n/a	n/a	n/a	25	12	6	1	5
4291.588	n/a	STOP	2145794	n/a	LTP324	ltpFR2	3	n/a	n/a	n/a	25	n/a	n/a	n/a	n/a
4293.466	n/a	WORD	2146733	wordpools/wasnorm_wordpool_576.txt	LTP324	ltpFR2	3	17	TURNIP	1521	n/a	n/a	0	0	0
4296.152	n/a	WORD	2148076	wordpools/wasnorm_wordpool_576.txt	LTP324	ltpFR2	3	17	MISTER	901	n/a	n/a	0	0	0
4298.654	n/a	WORD	2149327	wordpools/wasnorm_wordpool_576.txt	LTP324	ltpFR2	3	17	NOMAD	955	n/a	n/a	0	0	0
4301.256	n/a	WORD	2150628	wordpools/wasnorm_wordpool_576.txt	LTP324	ltpFR2	3	17	CARROT	249	n/a	n/a	0	0	0
4303.892	n/a	WORD	2151946	wordpools/wasnorm_wordpool_576.txt	LTP324	ltpFR2	3	17	CABBAGE	210	n/a	n/a	0	0	0
4306.56	n/a	WORD	2153280	wordpools/wasnorm_wordpool_576.txt	LTP324	ltpFR2	3	17	TART	1436	n/a	n/a	0	0	0
4309.146	n/a	WORD	2154573	wordpools/wasnorm_wordpool_576.txt	LTP324	ltpFR2	3	17	GARBAGE	622	n/a	n/a	0	0	0
4311.732	n/a	WORD	2155866	wordpools/wasnorm_wordpool_576.txt	LTP324	ltpFR2	3	17	SCISSORS	1250	n/a	n/a	0	0	0
4314.434	n/a	WORD	2157217	wordpools/wasnorm_wordpool_576.txt	LTP324	ltpFR2	3	17	CANYON	235	n/a	n/a	0	0	0
4316.97	n/a	WORD	2158485	wordpools/wasnorm_wordpool_576.txt	LTP324	ltpFR2	3	17	LUMBER	848	n/a	n/a	0	0	0
4319.656	n/a	WORD	2159828	wordpools/wasnorm_wordpool_576.txt	LTP324	ltpFR2	3	17	CUPBOARD	425	n/a	n/a	0	0	0
4322.206	n/a	WORD	2161103	wordpools/wasnorm_wordpool_576.txt	LTP324	ltpFR2	3	17	MOTEL	919	n/a	n/a	0	0	0
4324.626	n/a	WORD	2162313	wordpools/wasnorm_wordpool_576.txt	LTP324	ltpFR2	3	17	MATTRESS	879	n/a	n/a	0	0	0
4327.428	n/a	WORD	2163714	wordpools/wasnorm_wordpool_576.txt	LTP324	ltpFR2	3	17	SLOPE	1328	n/a	n/a	0	0	0
4330.248	n/a	WORD	2165124	wordpools/wasnorm_wordpool_576.txt	LTP324	ltpFR2	3	17	TROMBONE	1508	n/a	n/a	0	0	0
4332.9	n/a	WORD	2166450	wordpools/wasnorm_wordpool_576.txt	LTP324	ltpFR2	3	17	CONCERT	360	n/a	n/a	0	0	0
4335.552	n/a	WORD	2167776	wordpools/wasnorm_wordpool_576.txt	LTP324	ltpFR2	3	17	LEOPARD	812	n/a	n/a	0	0	0
4338.32	n/a	WORD	2169160	wordpools/wasnorm_wordpool_576.txt	LTP324	ltpFR2	3	17	SISTER	1312	n/a	n/a	0	0	0
4340.806	n/a	WORD	2170403	wordpools/wasnorm_wordpool_576.txt	LTP324	ltpFR2	3	17	QUEEN	1149	n/a	n/a	0	0	0
4343.24	n/a	WORD	2171620	wordpools/wasnorm_wordpool_576.txt	LTP324	ltpFR2	3	17	PARTNER	1017	n/a	n/a	0	0	0
4345.728	n/a	WORD	2172864	wordpools/wasnorm_wordpool_576.txt	LTP324	ltpFR2	3	17	RIVER	1194	n/a	n/a	0	0	0
4348.446	n/a	WORD	2174223	wordpools/wasnorm_wordpool_576.txt	LTP324	ltpFR2	3	17	PILOT	1070	n/a	n/a	0	0	0
4351.23	n/a	WORD	2175615	wordpools/wasnorm_wordpool_576.txt	LTP324	ltpFR2	3	17	BOX	159	n/a	n/a	0	0	0
4354.034	n/a	WORD	2177017	wordpools/wasnorm_wordpool_576.txt	LTP324	ltpFR2	3	17	SPARROW	1347	n/a	n/a	0	0	0
4355.652	n/a	START	2177826	n/a	LTP324	ltpFR2	3	n/a	n/a	n/a	26	n/a	n/a	n/a	n/a
4356.584	n/a	DISTRACTOR	2178292	n/a	LTP324	ltpFR2	3	17	n/a	n/a	n/a	n/a	0	0	0
4356.602	n/a	PROB	2178301	n/a	LTP324	ltpFR2	3	n/a	n/a	n/a	26	22	8	8	6
4358.05	n/a	PROB	2179025	n/a	LTP324	ltpFR2	3	n/a	n/a	n/a	26	15	4	3	6
4359.454	n/a	PROB	2179727	n/a	LTP324	ltpFR2	3	n/a	n/a	n/a	26	18	7	4	7
4362.22	n/a	PROB	2181110	n/a	LTP324	ltpFR2	3	n/a	n/a	n/a	26	13	1	5	7
4363.392	n/a	PROB	2181696	n/a	LTP324	ltpFR2	3	n/a	n/a	n/a	26	10	1	6	3
4364.524	n/a	PROB	2182262	n/a	LTP324	ltpFR2	3	n/a	n/a	n/a	26	18	3	7	8
4366.074	n/a	PROB	2183037	n/a	LTP324	ltpFR2	3	n/a	n/a	n/a	26	14	8	3	3
4367.526	n/a	PROB	2183763	n/a	LTP324	ltpFR2	3	n/a	n/a	n/a	26	20	7	5	8
4370.11	n/a	PROB	2185055	n/a	LTP324	ltpFR2	3	n/a	n/a	n/a	26	11	2	5	4
4371.328	n/a	PROB	2185664	n/a	LTP324	ltpFR2	3	n/a	n/a	n/a	26	16	6	6	4
4372.914	n/a	PROB	2186457	n/a	LTP324	ltpFR2	3	n/a	n/a	n/a	26	9	1	5	3
4374.564	n/a	PROB	2187282	n/a	LTP324	ltpFR2	3	n/a	n/a	n/a	26	16	9	3	4
4376.316	n/a	PROB	2188158	n/a	LTP324	ltpFR2	3	n/a	n/a	n/a	26	13	6	6	1
4377.116	n/a	PROB	2188558	n/a	LTP324	ltpFR2	3	n/a	n/a	n/a	26	18	8	7	3
4378.926	n/a	STOP	2189463	n/a	LTP324	ltpFR2	3	n/a	n/a	n/a	26	n/a	n/a	n/a	n/a
4381.438	n/a	REC_START	2190719	n/a	LTP324	ltpFR2	3	17	n/a	n/a	n/a	n/a	0	0	0
