onset	duration	trial_type	sample	stim_file	subject	experiment	session	trial	item_name	item_num	list	answer	test_x	test_y	test_z
215.368	n/a	SESS_START	107684	n/a	LTP326	ltpFR2	1	n/a	n/a	n/a	n/a	n/a	0	0	0
262.024	n/a	START	131012	n/a	LTP326	ltpFR2	1	n/a	n/a	n/a	-1	n/a	n/a	n/a	n/a
262.038	n/a	PROB	131019	n/a	LTP326	ltpFR2	1	n/a	n/a	n/a	-1	22	9	7	6
265.008	n/a	PROB	132504	n/a	LTP326	ltpFR2	1	n/a	n/a	n/a	-1	15	3	5	7
267.04	n/a	PROB	133520	n/a	LTP326	ltpFR2	1	n/a	n/a	n/a	-1	1	6	1	8
269.226	n/a	PROB	134613	n/a	LTP326	ltpFR2	1	n/a	n/a	n/a	-1	13	2	9	1
274.024	n/a	STOP	137012	n/a	LTP326	ltpFR2	1	n/a	n/a	n/a	-1	n/a	n/a	n/a	n/a
341.848	n/a	DISTRACTOR	170924	n/a	LTP326	ltpFR2	1	1	n/a	n/a	n/a	n/a	0	0	0
341.848	n/a	START	170924	n/a	LTP326	ltpFR2	1	n/a	n/a	n/a	1	n/a	n/a	n/a	n/a
341.862	n/a	PROB	170931	n/a	LTP326	ltpFR2	1	n/a	n/a	n/a	1	13	6	2	5
345.8	n/a	PROB	172900	n/a	LTP326	ltpFR2	1	n/a	n/a	n/a	1	8	2	5	1
347.434	n/a	PROB	173717	n/a	LTP326	ltpFR2	1	n/a	n/a	n/a	1	17	2	8	7
348.852	n/a	PROB	174426	n/a	LTP326	ltpFR2	1	n/a	n/a	n/a	1	22	8	9	6
352.138	n/a	PROB	176069	n/a	LTP326	ltpFR2	1	n/a	n/a	n/a	1	20	6	9	5
355.71	n/a	PROB	177855	n/a	LTP326	ltpFR2	1	n/a	n/a	n/a	1	1	3	9	1
357.592	n/a	PROB	178796	n/a	LTP326	ltpFR2	1	n/a	n/a	n/a	1	15	2	5	8
361.28	n/a	PROB	180640	n/a	LTP326	ltpFR2	1	n/a	n/a	n/a	1	9	1	7	1
362.762	n/a	PROB	181381	n/a	LTP326	ltpFR2	1	n/a	n/a	n/a	1	10	4	1	5
364.48	n/a	STOP	182240	n/a	LTP326	ltpFR2	1	n/a	n/a	n/a	1	n/a	n/a	n/a	n/a
366.75	n/a	WORD	183375	wordpools/wasnorm_wordpool_576.txt	LTP326	ltpFR2	1	1	CABBAGE	210	n/a	n/a	0	0	0
369.42	n/a	WORD	184710	wordpools/wasnorm_wordpool_576.txt	LTP326	ltpFR2	1	1	CLOUD	328	n/a	n/a	0	0	0
371.872	n/a	WORD	185936	wordpools/wasnorm_wordpool_576.txt	LTP326	ltpFR2	1	1	GLOBE	641	n/a	n/a	0	0	0
374.374	n/a	WORD	187187	wordpools/wasnorm_wordpool_576.txt	LTP326	ltpFR2	1	1	UNCLE	1536	n/a	n/a	0	0	0
376.944	n/a	WORD	188472	wordpools/wasnorm_wordpool_576.txt	LTP326	ltpFR2	1	1	COUSIN	392	n/a	n/a	0	0	0
379.696	n/a	WORD	189848	wordpools/wasnorm_wordpool_576.txt	LTP326	ltpFR2	1	1	RUG	1215	n/a	n/a	0	0	0
382.196	n/a	WORD	191098	wordpools/wasnorm_wordpool_576.txt	LTP326	ltpFR2	1	1	GUARD	667	n/a	n/a	0	0	0
384.684	n/a	WORD	192342	wordpools/wasnorm_wordpool_576.txt	LTP326	ltpFR2	1	1	BREAST	171	n/a	n/a	0	0	0
387.118	n/a	WORD	193559	wordpools/wasnorm_wordpool_576.txt	LTP326	ltpFR2	1	1	OZONE	996	n/a	n/a	0	0	0
389.622	n/a	WORD	194811	wordpools/wasnorm_wordpool_576.txt	LTP326	ltpFR2	1	1	BUCKET	184	n/a	n/a	0	0	0
392.354	n/a	WORD	196177	wordpools/wasnorm_wordpool_576.txt	LTP326	ltpFR2	1	1	MARSH	874	n/a	n/a	0	0	0
395.042	n/a	WORD	197521	wordpools/wasnorm_wordpool_576.txt	LTP326	ltpFR2	1	1	SALAD	1224	n/a	n/a	0	0	0
397.61	n/a	WORD	198805	wordpools/wasnorm_wordpool_576.txt	LTP326	ltpFR2	1	1	JUDGE	761	n/a	n/a	0	0	0
400.144	n/a	WORD	200072	wordpools/wasnorm_wordpool_576.txt	LTP326	ltpFR2	1	1	MAPLE	866	n/a	n/a	0	0	0
402.798	n/a	WORD	201399	wordpools/wasnorm_wordpool_576.txt	LTP326	ltpFR2	1	1	FLIPPER	580	n/a	n/a	0	0	0
405.382	n/a	WORD	202691	wordpools/wasnorm_wordpool_576.txt	LTP326	ltpFR2	1	1	JELLO	754	n/a	n/a	0	0	0
408.2	n/a	WORD	204100	wordpools/wasnorm_wordpool_576.txt	LTP326	ltpFR2	1	1	TURKEY	1520	n/a	n/a	0	0	0
410.786	n/a	WORD	205393	wordpools/wasnorm_wordpool_576.txt	LTP326	ltpFR2	1	1	HAWK	692	n/a	n/a	0	0	0
413.288	n/a	WORD	206644	wordpools/wasnorm_wordpool_576.txt	LTP326	ltpFR2	1	1	CABIN	211	n/a	n/a	0	0	0
415.874	n/a	WORD	207937	wordpools/wasnorm_wordpool_576.txt	LTP326	ltpFR2	1	1	CONCERT	360	n/a	n/a	0	0	0
418.66	n/a	WORD	209330	wordpools/wasnorm_wordpool_576.txt	LTP326	ltpFR2	1	1	RADISH	1158	n/a	n/a	0	0	0
421.112	n/a	WORD	210556	wordpools/wasnorm_wordpool_576.txt	LTP326	ltpFR2	1	1	POLICE	1098	n/a	n/a	0	0	0
423.732	n/a	WORD	211866	wordpools/wasnorm_wordpool_576.txt	LTP326	ltpFR2	1	1	EGYPT	519	n/a	n/a	0	0	0
426.414	n/a	WORD	213207	wordpools/wasnorm_wordpool_576.txt	LTP326	ltpFR2	1	1	CAMEL	223	n/a	n/a	0	0	0
428.022	n/a	START	214011	n/a	LTP326	ltpFR2	1	n/a	n/a	n/a	2	n/a	n/a	n/a	n/a
429.098	n/a	DISTRACTOR	214549	n/a	LTP326	ltpFR2	1	1	n/a	n/a	n/a	n/a	0	0	0
429.104	n/a	PROB	214552	n/a	LTP326	ltpFR2	1	n/a	n/a	n/a	2	19	5	5	9
431.002	n/a	PROB	215501	n/a	LTP326	ltpFR2	1	n/a	n/a	n/a	2	5	2	2	1
433.302	n/a	PROB	216651	n/a	LTP326	ltpFR2	1	n/a	n/a	n/a	2	14	3	9	2
434.97	n/a	PROB	217485	n/a	LTP326	ltpFR2	1	n/a	n/a	n/a	2	14	6	5	3
436.624	n/a	PROB	218312	n/a	LTP326	ltpFR2	1	n/a	n/a	n/a	2	1	7	3	7
438.24	n/a	PROB	219120	n/a	LTP326	ltpFR2	1	n/a	n/a	n/a	2	13	5	1	7
442.028	n/a	PROB	221014	n/a	LTP326	ltpFR2	1	n/a	n/a	n/a	2	18	4	7	7
444.194	n/a	PROB	222097	n/a	LTP326	ltpFR2	1	n/a	n/a	n/a	2	18	6	6	5
446.882	n/a	PROB	223441	n/a	LTP326	ltpFR2	1	n/a	n/a	n/a	2	15	1	5	9
452.02	n/a	STOP	226010	n/a	LTP326	ltpFR2	1	n/a	n/a	n/a	2	n/a	n/a	n/a	n/a
453.82	n/a	REC_START	226910	n/a	LTP326	ltpFR2	1	1	n/a	n/a	n/a	n/a	0	0	0
455.578	n/a	REC_WORD	227789	wordpools/wasnorm_wordpool_576.txt	LTP326	ltpFR2	1	1	GUARD	667	n/a	n/a	0	0	0
457.366	n/a	REC_WORD	228683	wordpools/wasnorm_wordpool_576.txt	LTP326	ltpFR2	1	1	POLICE	1098	n/a	n/a	0	0	0
459.956	n/a	REC_WORD	229978	wordpools/wasnorm_wordpool_576.txt	LTP326	ltpFR2	1	1	BREAST	171	n/a	n/a	0	0	0
464.602	n/a	REC_WORD	232301	wordpools/wasnorm_wordpool_576.txt	LTP326	ltpFR2	1	1	CABIN	211	n/a	n/a	0	0	0
467.914	n/a	REC_WORD	233957	wordpools/wasnorm_wordpool_576.txt	LTP326	ltpFR2	1	1	CLOUD	328	n/a	n/a	0	0	0
469.954	n/a	REC_WORD	234977	wordpools/wasnorm_wordpool_576.txt	LTP326	ltpFR2	1	1	OZONE	996	n/a	n/a	0	0	0
472.408	n/a	REC_WORD	236204	wordpools/wasnorm_wordpool_576.txt	LTP326	ltpFR2	1	1	EGYPT	519	n/a	n/a	0	0	0
474.454	n/a	REC_WORD	237227	wordpools/wasnorm_wordpool_576.txt	LTP326	ltpFR2	1	1	CAMEL	223	n/a	n/a	0	0	0
477.256	n/a	REC_WORD	238628	wordpools/wasnorm_wordpool_576.txt	LTP326	ltpFR2	1	1	SALAD	1224	n/a	n/a	0	0	0
480.108	n/a	REC_WORD	240054	wordpools/wasnorm_wordpool_576.txt	LTP326	ltpFR2	1	1	TURKEY	1520	n/a	n/a	0	0	0
482.57	n/a	REC_WORD	241285	wordpools/wasnorm_wordpool_576.txt	LTP326	ltpFR2	1	1	RADISH	1158	n/a	n/a	0	0	0
483.57	n/a	REC_WORD_VV	241785	wordpools/wasnorm_wordpool_576.txt	LTP326	ltpFR2	1	1	<>	-1	n/a	n/a	0	0	0
491.69	n/a	REC_WORD	245845	wordpools/wasnorm_wordpool_576.txt	LTP326	ltpFR2	1	1	JELLO	754	n/a	n/a	0	0	0
502.278	n/a	REC_WORD	251139	wordpools/wasnorm_wordpool_576.txt	LTP326	ltpFR2	1	1	CABBAGE	210	n/a	n/a	0	0	0
512.376	n/a	REC_WORD	256188	wordpools/wasnorm_wordpool_576.txt	LTP326	ltpFR2	1	1	UNCLE	1536	n/a	n/a	0	0	0
517.07	n/a	REC_WORD	258535	wordpools/wasnorm_wordpool_576.txt	LTP326	ltpFR2	1	1	BROTHER	179	n/a	n/a	0	0	0
544.242	n/a	DISTRACTOR	272121	n/a	LTP326	ltpFR2	1	2	n/a	n/a	n/a	n/a	0	0	0
544.242	n/a	START	272121	n/a	LTP326	ltpFR2	1	n/a	n/a	n/a	3	n/a	n/a	n/a	n/a
544.256	n/a	PROB	272128	n/a	LTP326	ltpFR2	1	n/a	n/a	n/a	3	17	8	4	5
549.128	n/a	PROB	274564	n/a	LTP326	ltpFR2	1	n/a	n/a	n/a	3	14	2	5	7
551.446	n/a	PROB	275723	n/a	LTP326	ltpFR2	1	n/a	n/a	n/a	3	22	9	7	8
553.966	n/a	PROB	276983	n/a	LTP326	ltpFR2	1	n/a	n/a	n/a	3	11	7	2	2
555.984	n/a	PROB	277992	n/a	LTP326	ltpFR2	1	n/a	n/a	n/a	3	18	6	5	7
557.702	n/a	PROB	278851	n/a	LTP326	ltpFR2	1	n/a	n/a	n/a	3	15	7	3	5
559.3	n/a	PROB	279650	n/a	LTP326	ltpFR2	1	n/a	n/a	n/a	3	16	3	4	9
562.904	n/a	PROB	281452	n/a	LTP326	ltpFR2	1	n/a	n/a	n/a	3	12	2	4	8
568.24	n/a	STOP	284120	n/a	LTP326	ltpFR2	1	n/a	n/a	n/a	3	n/a	n/a	n/a	n/a
569.092	n/a	WORD	284546	wordpools/wasnorm_wordpool_576.txt	LTP326	ltpFR2	1	2	FLASK	576	n/a	n/a	0	0	0
571.874	n/a	WORD	285937	wordpools/wasnorm_wordpool_576.txt	LTP326	ltpFR2	1	2	BRANDY	169	n/a	n/a	0	0	0
574.426	n/a	WORD	287213	wordpools/wasnorm_wordpool_576.txt	LTP326	ltpFR2	1	2	CRAYON	401	n/a	n/a	0	0	0
577.078	n/a	WORD	288539	wordpools/wasnorm_wordpool_576.txt	LTP326	ltpFR2	1	2	TABLE	1426	n/a	n/a	0	0	0
579.714	n/a	WORD	289857	wordpools/wasnorm_wordpool_576.txt	LTP326	ltpFR2	1	2	BUREAU	199	n/a	n/a	0	0	0
582.52	n/a	WORD	291260	wordpools/wasnorm_wordpool_576.txt	LTP326	ltpFR2	1	2	DUST	508	n/a	n/a	0	0	0
585.152	n/a	WORD	292576	wordpools/wasnorm_wordpool_576.txt	LTP326	ltpFR2	1	2	STOVE	1388	n/a	n/a	0	0	0
587.688	n/a	WORD	293844	wordpools/wasnorm_wordpool_576.txt	LTP326	ltpFR2	1	2	ATOM	55	n/a	n/a	0	0	0
590.39	n/a	WORD	295195	wordpools/wasnorm_wordpool_576.txt	LTP326	ltpFR2	1	2	PRINCESS	1125	n/a	n/a	0	0	0
593.16	n/a	WORD	296580	wordpools/wasnorm_wordpool_576.txt	LTP326	ltpFR2	1	2	GRIZZLY	662	n/a	n/a	0	0	0
595.594	n/a	WORD	297797	wordpools/wasnorm_wordpool_576.txt	LTP326	ltpFR2	1	2	MISSILE	900	n/a	n/a	0	0	0
598.248	n/a	WORD	299124	wordpools/wasnorm_wordpool_576.txt	LTP326	ltpFR2	1	2	CROWN	415	n/a	n/a	0	0	0
600.766	n/a	WORD	300383	wordpools/wasnorm_wordpool_576.txt	LTP326	ltpFR2	1	2	FLASHLIGHT	575	n/a	n/a	0	0	0
603.466	n/a	WORD	301733	wordpools/wasnorm_wordpool_576.txt	LTP326	ltpFR2	1	2	SHELF	1280	n/a	n/a	0	0	0
605.888	n/a	WORD	302944	wordpools/wasnorm_wordpool_576.txt	LTP326	ltpFR2	1	2	PLAID	1080	n/a	n/a	0	0	0
608.522	n/a	WORD	304261	wordpools/wasnorm_wordpool_576.txt	LTP326	ltpFR2	1	2	PADDING	999	n/a	n/a	0	0	0
611.276	n/a	WORD	305638	wordpools/wasnorm_wordpool_576.txt	LTP326	ltpFR2	1	2	CHURCH	307	n/a	n/a	0	0	0
613.744	n/a	WORD	306872	wordpools/wasnorm_wordpool_576.txt	LTP326	ltpFR2	1	2	STONE	1385	n/a	n/a	0	0	0
616.378	n/a	WORD	308189	wordpools/wasnorm_wordpool_576.txt	LTP326	ltpFR2	1	2	PEBBLE	1035	n/a	n/a	0	0	0
619.148	n/a	WORD	309574	wordpools/wasnorm_wordpool_576.txt	LTP326	ltpFR2	1	2	HOSTESS	723	n/a	n/a	0	0	0
621.934	n/a	WORD	310967	wordpools/wasnorm_wordpool_576.txt	LTP326	ltpFR2	1	2	VELVET	1555	n/a	n/a	0	0	0
624.736	n/a	WORD	312368	wordpools/wasnorm_wordpool_576.txt	LTP326	ltpFR2	1	2	CUSTARD	429	n/a	n/a	0	0	0
627.254	n/a	WORD	313627	wordpools/wasnorm_wordpool_576.txt	LTP326	ltpFR2	1	2	STATUE	1374	n/a	n/a	0	0	0
629.724	n/a	WORD	314862	wordpools/wasnorm_wordpool_576.txt	LTP326	ltpFR2	1	2	MUSTARD	935	n/a	n/a	0	0	0
631.342	n/a	START	315671	n/a	LTP326	ltpFR2	1	n/a	n/a	n/a	4	n/a	n/a	n/a	n/a
632.25	n/a	DISTRACTOR	316125	n/a	LTP326	ltpFR2	1	2	n/a	n/a	n/a	n/a	0	0	0
632.258	n/a	PROB	316129	n/a	LTP326	ltpFR2	1	n/a	n/a	n/a	4	12	2	5	5
634.542	n/a	PROB	317271	n/a	LTP326	ltpFR2	1	n/a	n/a	n/a	4	19	8	5	6
636.896	n/a	PROB	318448	n/a	LTP326	ltpFR2	1	n/a	n/a	n/a	4	12	1	6	5
639.964	n/a	PROB	319982	n/a	LTP326	ltpFR2	1	n/a	n/a	n/a	4	16	7	4	5
642.5	n/a	PROB	321250	n/a	LTP326	ltpFR2	1	n/a	n/a	n/a	4	18	6	8	4
644.602	n/a	PROB	322301	n/a	LTP326	ltpFR2	1	n/a	n/a	n/a	4	16	7	6	3
647.386	n/a	PROB	323693	n/a	LTP326	ltpFR2	1	n/a	n/a	n/a	4	15	1	4	9
649.74	n/a	PROB	324870	n/a	LTP326	ltpFR2	1	n/a	n/a	n/a	4	9	5	3	1
655.342	n/a	STOP	327671	n/a	LTP326	ltpFR2	1	n/a	n/a	n/a	4	n/a	n/a	n/a	n/a
657.128	n/a	REC_START	328564	n/a	LTP326	ltpFR2	1	2	n/a	n/a	n/a	n/a	0	0	0
659.174	n/a	REC_WORD	329587	wordpools/wasnorm_wordpool_576.txt	LTP326	ltpFR2	1	2	CHURCH	307	n/a	n/a	0	0	0
660.542	n/a	REC_WORD	330271	wordpools/wasnorm_wordpool_576.txt	LTP326	ltpFR2	1	2	STONE	1385	n/a	n/a	0	0	0
661.542	n/a	REC_WORD_VV	330771	wordpools/wasnorm_wordpool_576.txt	LTP326	ltpFR2	1	2	<>	-1	n/a	n/a	0	0	0
662.974	n/a	REC_WORD	331487	wordpools/wasnorm_wordpool_576.txt	LTP326	ltpFR2	1	2	GRAVEL	659	n/a	n/a	0	0	0
665.304	n/a	REC_WORD	332652	wordpools/wasnorm_wordpool_576.txt	LTP326	ltpFR2	1	2	DUST	508	n/a	n/a	0	0	0
667.156	n/a	REC_WORD	333578	wordpools/wasnorm_wordpool_576.txt	LTP326	ltpFR2	1	2	STOVE	1388	n/a	n/a	0	0	0
668.156	n/a	REC_WORD_VV	334078	wordpools/wasnorm_wordpool_576.txt	LTP326	ltpFR2	1	2	<>	-1	n/a	n/a	0	0	0
670.734	n/a	REC_WORD	335367	wordpools/wasnorm_wordpool_576.txt	LTP326	ltpFR2	1	2	TABLE	1426	n/a	n/a	0	0	0
673.222	n/a	REC_WORD	336611	wordpools/wasnorm_wordpool_576.txt	LTP326	ltpFR2	1	2	BUREAU	199	n/a	n/a	0	0	0
674.942	n/a	REC_WORD	337471	wordpools/wasnorm_wordpool_576.txt	LTP326	ltpFR2	1	2	SHELF	1280	n/a	n/a	0	0	0
677.388	n/a	REC_WORD	338694	wordpools/wasnorm_wordpool_576.txt	LTP326	ltpFR2	1	2	CRAYON	401	n/a	n/a	0	0	0
679.792	n/a	REC_WORD	339896	wordpools/wasnorm_wordpool_576.txt	LTP326	ltpFR2	1	2	PRINCESS	1125	n/a	n/a	0	0	0
680.792	n/a	REC_WORD_VV	340396	wordpools/wasnorm_wordpool_576.txt	LTP326	ltpFR2	1	2	<>	-1	n/a	n/a	0	0	0
682.22	n/a	REC_WORD	341110	wordpools/wasnorm_wordpool_576.txt	LTP326	ltpFR2	1	2	CROWN	415	n/a	n/a	0	0	0
686.368	n/a	REC_WORD	343184	wordpools/wasnorm_wordpool_576.txt	LTP326	ltpFR2	1	2	PLAID	1080	n/a	n/a	0	0	0
709.65	n/a	REC_WORD	354825	wordpools/wasnorm_wordpool_576.txt	LTP326	ltpFR2	1	2	PADDING	999	n/a	n/a	0	0	0
747.548	n/a	DISTRACTOR	373774	n/a	LTP326	ltpFR2	1	3	n/a	n/a	n/a	n/a	0	0	0
747.548	n/a	START	373774	n/a	LTP326	ltpFR2	1	n/a	n/a	n/a	5	n/a	n/a	n/a	n/a
747.566	n/a	PROB	373783	n/a	LTP326	ltpFR2	1	n/a	n/a	n/a	5	12	3	5	5
749.734	n/a	PROB	374867	n/a	LTP326	ltpFR2	1	n/a	n/a	n/a	5	19	9	9	1
752.318	n/a	PROB	376159	n/a	LTP326	ltpFR2	1	n/a	n/a	n/a	5	20	8	4	8
754.74	n/a	PROB	377370	n/a	LTP326	ltpFR2	1	n/a	n/a	n/a	5	8	2	3	3
756.422	n/a	PROB	378211	n/a	LTP326	ltpFR2	1	n/a	n/a	n/a	5	12	5	7	1
758.674	n/a	PROB	379337	n/a	LTP326	ltpFR2	1	n/a	n/a	n/a	5	17	4	7	6
762.308	n/a	PROB	381154	n/a	LTP326	ltpFR2	1	n/a	n/a	n/a	5	13	4	1	8
764.478	n/a	PROB	382239	n/a	LTP326	ltpFR2	1	n/a	n/a	n/a	5	21	7	9	7
767.846	n/a	PROB	383923	n/a	LTP326	ltpFR2	1	n/a	n/a	n/a	5	16	9	2	5
771.072	n/a	STOP	385536	n/a	LTP326	ltpFR2	1	n/a	n/a	n/a	5	n/a	n/a	n/a	n/a
772.696	n/a	WORD	386348	wordpools/wasnorm_wordpool_576.txt	LTP326	ltpFR2	1	3	AWARD	63	n/a	n/a	0	0	0
775.168	n/a	WORD	387584	wordpools/wasnorm_wordpool_576.txt	LTP326	ltpFR2	1	3	PLATE	1086	n/a	n/a	0	0	0
777.616	n/a	WORD	388808	wordpools/wasnorm_wordpool_576.txt	LTP326	ltpFR2	1	3	COTTAGE	384	n/a	n/a	0	0	0
780.268	n/a	WORD	390134	wordpools/wasnorm_wordpool_576.txt	LTP326	ltpFR2	1	3	COCOON	339	n/a	n/a	0	0	0
783.06	n/a	WORD	391530	wordpools/wasnorm_wordpool_576.txt	LTP326	ltpFR2	1	3	YACHT	1629	n/a	n/a	0	0	0
785.806	n/a	WORD	392903	wordpools/wasnorm_wordpool_576.txt	LTP326	ltpFR2	1	3	PILOT	1070	n/a	n/a	0	0	0
788.224	n/a	WORD	394112	wordpools/wasnorm_wordpool_576.txt	LTP326	ltpFR2	1	3	AIRPORT	13	n/a	n/a	0	0	0
790.812	n/a	WORD	395406	wordpools/wasnorm_wordpool_576.txt	LTP326	ltpFR2	1	3	MARKER	870	n/a	n/a	0	0	0
793.428	n/a	WORD	396714	wordpools/wasnorm_wordpool_576.txt	LTP326	ltpFR2	1	3	REBEL	1172	n/a	n/a	0	0	0
796.098	n/a	WORD	398049	wordpools/wasnorm_wordpool_576.txt	LTP326	ltpFR2	1	3	CREVICE	405	n/a	n/a	0	0	0
798.584	n/a	WORD	399292	wordpools/wasnorm_wordpool_576.txt	LTP326	ltpFR2	1	3	QUAIL	1147	n/a	n/a	0	0	0
801.37	n/a	WORD	400685	wordpools/wasnorm_wordpool_576.txt	LTP326	ltpFR2	1	3	BANQUET	86	n/a	n/a	0	0	0
803.822	n/a	WORD	401911	wordpools/wasnorm_wordpool_576.txt	LTP326	ltpFR2	1	3	PLASTER	1085	n/a	n/a	0	0	0
806.356	n/a	WORD	403178	wordpools/wasnorm_wordpool_576.txt	LTP326	ltpFR2	1	3	CUPBOARD	425	n/a	n/a	0	0	0
808.976	n/a	WORD	404488	wordpools/wasnorm_wordpool_576.txt	LTP326	ltpFR2	1	3	STOMACH	1384	n/a	n/a	0	0	0
811.41	n/a	WORD	405705	wordpools/wasnorm_wordpool_576.txt	LTP326	ltpFR2	1	3	FRANCE	601	n/a	n/a	0	0	0
813.846	n/a	WORD	406923	wordpools/wasnorm_wordpool_576.txt	LTP326	ltpFR2	1	3	TRACTOR	1493	n/a	n/a	0	0	0
816.448	n/a	WORD	408224	wordpools/wasnorm_wordpool_576.txt	LTP326	ltpFR2	1	3	MUFFIN	929	n/a	n/a	0	0	0
819.082	n/a	WORD	409541	wordpools/wasnorm_wordpool_576.txt	LTP326	ltpFR2	1	3	PEANUT	1032	n/a	n/a	0	0	0
821.788	n/a	WORD	410894	wordpools/wasnorm_wordpool_576.txt	LTP326	ltpFR2	1	3	CHEST	295	n/a	n/a	0	0	0
824.372	n/a	WORD	412186	wordpools/wasnorm_wordpool_576.txt	LTP326	ltpFR2	1	3	PEACH	1031	n/a	n/a	0	0	0
826.808	n/a	WORD	413404	wordpools/wasnorm_wordpool_576.txt	LTP326	ltpFR2	1	3	KLEENEX	782	n/a	n/a	0	0	0
829.292	n/a	WORD	414646	wordpools/wasnorm_wordpool_576.txt	LTP326	ltpFR2	1	3	ONION	977	n/a	n/a	0	0	0
831.748	n/a	WORD	415874	wordpools/wasnorm_wordpool_576.txt	LTP326	ltpFR2	1	3	ANTLER	29	n/a	n/a	0	0	0
833.364	n/a	START	416682	n/a	LTP326	ltpFR2	1	n/a	n/a	n/a	6	n/a	n/a	n/a	n/a
834.466	n/a	DISTRACTOR	417233	n/a	LTP326	ltpFR2	1	3	n/a	n/a	n/a	n/a	0	0	0
834.48	n/a	PROB	417240	n/a	LTP326	ltpFR2	1	n/a	n/a	n/a	6	16	4	6	6
836.248	n/a	PROB	418124	n/a	LTP326	ltpFR2	1	n/a	n/a	n/a	6	117	7	2	8
838.482	n/a	PROB	419241	n/a	LTP326	ltpFR2	1	n/a	n/a	n/a	6	9	2	4	3
842.188	n/a	PROB	421094	n/a	LTP326	ltpFR2	1	n/a	n/a	n/a	6	17	2	9	6
844.908	n/a	PROB	422454	n/a	LTP326	ltpFR2	1	n/a	n/a	n/a	6	13	1	6	6
846.894	n/a	PROB	423447	n/a	LTP326	ltpFR2	1	n/a	n/a	n/a	6	10	2	1	7
848.694	n/a	PROB	424347	n/a	LTP326	ltpFR2	1	n/a	n/a	n/a	6	15	6	6	3
850.36	n/a	PROB	425180	n/a	LTP326	ltpFR2	1	n/a	n/a	n/a	6	20	8	8	4
853.23	n/a	PROB	426615	n/a	LTP326	ltpFR2	1	n/a	n/a	n/a	6	16	1	7	8
855.548	n/a	PROB	427774	n/a	LTP326	ltpFR2	1	n/a	n/a	n/a	6	15	8	2	5
857.336	n/a	STOP	428668	n/a	LTP326	ltpFR2	1	n/a	n/a	n/a	6	n/a	n/a	n/a	n/a
859.134	n/a	REC_START	429567	n/a	LTP326	ltpFR2	1	3	n/a	n/a	n/a	n/a	0	0	0
862.026	n/a	REC_WORD	431013	wordpools/wasnorm_wordpool_576.txt	LTP326	ltpFR2	1	3	YACHT	1629	n/a	n/a	0	0	0
864.118	n/a	REC_WORD	432059	wordpools/wasnorm_wordpool_576.txt	LTP326	ltpFR2	1	3	AIRPLANE	12	n/a	n/a	0	0	0
866.3	n/a	REC_WORD	433150	wordpools/wasnorm_wordpool_576.txt	LTP326	ltpFR2	1	3	PILOT	1070	n/a	n/a	0	0	0
869.586	n/a	REC_WORD	434793	wordpools/wasnorm_wordpool_576.txt	LTP326	ltpFR2	1	3	MARKER	870	n/a	n/a	0	0	0
871.944	n/a	REC_WORD	435972	wordpools/wasnorm_wordpool_576.txt	LTP326	ltpFR2	1	3	REBEL	1172	n/a	n/a	0	0	0
875.438	n/a	REC_WORD	437719	wordpools/wasnorm_wordpool_576.txt	LTP326	ltpFR2	1	3	FRANCE	601	n/a	n/a	0	0	0
880.156	n/a	REC_WORD	440078	wordpools/wasnorm_wordpool_576.txt	LTP326	ltpFR2	1	3	QUAIL	1147	n/a	n/a	0	0	0
883.23	n/a	REC_WORD	441615	wordpools/wasnorm_wordpool_576.txt	LTP326	ltpFR2	1	3	STOMACH	1384	n/a	n/a	0	0	0
884.23	n/a	REC_WORD_VV	442115	wordpools/wasnorm_wordpool_576.txt	LTP326	ltpFR2	1	3	<>	-1	n/a	n/a	0	0	0
886.474	n/a	REC_WORD	443237	wordpools/wasnorm_wordpool_576.txt	LTP326	ltpFR2	1	3	MUFFIN	929	n/a	n/a	0	0	0
888.644	n/a	REC_WORD	444322	wordpools/wasnorm_wordpool_576.txt	LTP326	ltpFR2	1	3	PEANUT	1032	n/a	n/a	0	0	0
892.83	n/a	REC_WORD	446415	wordpools/wasnorm_wordpool_576.txt	LTP326	ltpFR2	1	3	ONION	977	n/a	n/a	0	0	0
896.022	n/a	REC_WORD	448011	wordpools/wasnorm_wordpool_576.txt	LTP326	ltpFR2	1	3	AWARD	63	n/a	n/a	0	0	0
898.424	n/a	REC_WORD	449212	wordpools/wasnorm_wordpool_576.txt	LTP326	ltpFR2	1	3	BANQUET	86	n/a	n/a	0	0	0
900.978	n/a	REC_WORD	450489	wordpools/wasnorm_wordpool_576.txt	LTP326	ltpFR2	1	3	PLATE	1086	n/a	n/a	0	0	0
905.134	n/a	REC_WORD	452567	wordpools/wasnorm_wordpool_576.txt	LTP326	ltpFR2	1	3	CHEST	295	n/a	n/a	0	0	0
949.572	n/a	WORD	474786	wordpools/wasnorm_wordpool_576.txt	LTP326	ltpFR2	1	4	CRATER	400	n/a	n/a	0	0	0
952.106	n/a	WORD	476053	wordpools/wasnorm_wordpool_576.txt	LTP326	ltpFR2	1	4	DOLPHIN	483	n/a	n/a	0	0	0
954.91	n/a	WORD	477455	wordpools/wasnorm_wordpool_576.txt	LTP326	ltpFR2	1	4	MAMMAL	861	n/a	n/a	0	0	0
957.596	n/a	WORD	478798	wordpools/wasnorm_wordpool_576.txt	LTP326	ltpFR2	1	4	DANCER	437	n/a	n/a	0	0	0
960.038	n/a	WORD	480019	wordpools/wasnorm_wordpool_576.txt	LTP326	ltpFR2	1	4	OYSTER	995	n/a	n/a	0	0	0
962.806	n/a	WORD	481403	wordpools/wasnorm_wordpool_576.txt	LTP326	ltpFR2	1	4	TROMBONE	1508	n/a	n/a	0	0	0
965.358	n/a	WORD	482679	wordpools/wasnorm_wordpool_576.txt	LTP326	ltpFR2	1	4	POISON	1096	n/a	n/a	0	0	0
967.938	n/a	WORD	483969	wordpools/wasnorm_wordpool_576.txt	LTP326	ltpFR2	1	4	MEAT	883	n/a	n/a	0	0	0
970.412	n/a	WORD	485206	wordpools/wasnorm_wordpool_576.txt	LTP326	ltpFR2	1	4	DRINK	498	n/a	n/a	0	0	0
972.916	n/a	WORD	486458	wordpools/wasnorm_wordpool_576.txt	LTP326	ltpFR2	1	4	LAVA	804	n/a	n/a	0	0	0
975.384	n/a	WORD	487692	wordpools/wasnorm_wordpool_576.txt	LTP326	ltpFR2	1	4	DOUGHNUT	490	n/a	n/a	0	0	0
977.886	n/a	WORD	488943	wordpools/wasnorm_wordpool_576.txt	LTP326	ltpFR2	1	4	BLENDER	136	n/a	n/a	0	0	0
980.588	n/a	WORD	490294	wordpools/wasnorm_wordpool_576.txt	LTP326	ltpFR2	1	4	HATCHET	691	n/a	n/a	0	0	0
983.206	n/a	WORD	491603	wordpools/wasnorm_wordpool_576.txt	LTP326	ltpFR2	1	4	ORANGE	980	n/a	n/a	0	0	0
985.658	n/a	WORD	492829	wordpools/wasnorm_wordpool_576.txt	LTP326	ltpFR2	1	4	CARROT	249	n/a	n/a	0	0	0
988.176	n/a	WORD	494088	wordpools/wasnorm_wordpool_576.txt	LTP326	ltpFR2	1	4	ASIA	46	n/a	n/a	0	0	0
990.98	n/a	WORD	495490	wordpools/wasnorm_wordpool_576.txt	LTP326	ltpFR2	1	4	PUDDLE	1140	n/a	n/a	0	0	0
993.406	n/a	WORD	496703	wordpools/wasnorm_wordpool_576.txt	LTP326	ltpFR2	1	4	ROBOT	1200	n/a	n/a	0	0	0
995.992	n/a	WORD	497996	wordpools/wasnorm_wordpool_576.txt	LTP326	ltpFR2	1	4	GLOVE	642	n/a	n/a	0	0	0
998.77	n/a	WORD	499385	wordpools/wasnorm_wordpool_576.txt	LTP326	ltpFR2	1	4	UMPIRE	1535	n/a	n/a	0	0	0
1001.488	n/a	WORD	500744	wordpools/wasnorm_wordpool_576.txt	LTP326	ltpFR2	1	4	WHISTLE	1606	n/a	n/a	0	0	0
1004.256	n/a	WORD	502128	wordpools/wasnorm_wordpool_576.txt	LTP326	ltpFR2	1	4	SEAFOOD	1260	n/a	n/a	0	0	0
1007.028	n/a	WORD	503514	wordpools/wasnorm_wordpool_576.txt	LTP326	ltpFR2	1	4	TUTU	1524	n/a	n/a	0	0	0
1009.67	n/a	WORD	504835	wordpools/wasnorm_wordpool_576.txt	LTP326	ltpFR2	1	4	STREAM	1392	n/a	n/a	0	0	0
1011.282	n/a	START	505641	n/a	LTP326	ltpFR2	1	n/a	n/a	n/a	7	n/a	n/a	n/a	n/a
1012.166	n/a	DISTRACTOR	506083	n/a	LTP326	ltpFR2	1	4	n/a	n/a	n/a	n/a	0	0	0
1012.17	n/a	PROB	506085	n/a	LTP326	ltpFR2	1	n/a	n/a	n/a	7	17	6	4	7
1013.922	n/a	PROB	506961	n/a	LTP326	ltpFR2	1	n/a	n/a	n/a	7	12	6	1	5
1015.54	n/a	PROB	507770	n/a	LTP326	ltpFR2	1	n/a	n/a	n/a	7	19	8	7	4
1017.458	n/a	PROB	508729	n/a	LTP326	ltpFR2	1	n/a	n/a	n/a	7	11	3	1	7
1019.144	n/a	PROB	509572	n/a	LTP326	ltpFR2	1	n/a	n/a	n/a	7	15	9	2	4
1021.078	n/a	PROB	510539	n/a	LTP326	ltpFR2	1	n/a	n/a	n/a	7	18	8	5	5
1023.512	n/a	PROB	511756	n/a	LTP326	ltpFR2	1	n/a	n/a	n/a	7	1	6	4	2
1024.848	n/a	PROB	512424	n/a	LTP326	ltpFR2	1	n/a	n/a	n/a	7	19	8	8	5
1029.002	n/a	PROB	514501	n/a	LTP326	ltpFR2	1	n/a	n/a	n/a	7	14	2	9	2
1031.202	n/a	PROB	515601	n/a	LTP326	ltpFR2	1	n/a	n/a	n/a	7	12	7	2	3
1033.78	n/a	STOP	516890	n/a	LTP326	ltpFR2	1	n/a	n/a	n/a	7	n/a	n/a	n/a	n/a
1037.058	n/a	REC_START	518529	n/a	LTP326	ltpFR2	1	4	n/a	n/a	n/a	n/a	0	0	0
1038.522	n/a	REC_WORD	519261	wordpools/wasnorm_wordpool_576.txt	LTP326	ltpFR2	1	4	CRATER	400	n/a	n/a	0	0	0
1040.984	n/a	REC_WORD	520492	wordpools/wasnorm_wordpool_576.txt	LTP326	ltpFR2	1	4	DANCER	437	n/a	n/a	0	0	0
1042.986	n/a	REC_WORD	521493	wordpools/wasnorm_wordpool_576.txt	LTP326	ltpFR2	1	4	TUTU	1524	n/a	n/a	0	0	0
1045.034	n/a	REC_WORD	522517	wordpools/wasnorm_wordpool_576.txt	LTP326	ltpFR2	1	4	STREAM	1392	n/a	n/a	0	0	0
1046.034	n/a	REC_WORD_VV	523017	wordpools/wasnorm_wordpool_576.txt	LTP326	ltpFR2	1	4	<>	-1	n/a	n/a	0	0	0
1047.766	n/a	REC_WORD	523883	wordpools/wasnorm_wordpool_576.txt	LTP326	ltpFR2	1	4	ASIA	46	n/a	n/a	0	0	0
1055.694	n/a	REC_WORD	527847	wordpools/wasnorm_wordpool_576.txt	LTP326	ltpFR2	1	4	ORANGE	980	n/a	n/a	0	0	0
1058.282	n/a	REC_WORD	529141	wordpools/wasnorm_wordpool_576.txt	LTP326	ltpFR2	1	4	BLENDER	136	n/a	n/a	0	0	0
1061.95	n/a	REC_WORD	530975	wordpools/wasnorm_wordpool_576.txt	LTP326	ltpFR2	1	4	UMPIRE	1535	n/a	n/a	0	0	0
1064.322	n/a	REC_WORD	532161	wordpools/wasnorm_wordpool_576.txt	LTP326	ltpFR2	1	4	GLOVE	642	n/a	n/a	0	0	0
1066.656	n/a	REC_WORD	533328	wordpools/wasnorm_wordpool_576.txt	LTP326	ltpFR2	1	4	WHISTLE	1606	n/a	n/a	0	0	0
1069.208	n/a	REC_WORD	534604	wordpools/wasnorm_wordpool_576.txt	LTP326	ltpFR2	1	4	HATCHET	691	n/a	n/a	0	0	0
1231.976	n/a	DISTRACTOR	615988	n/a	LTP326	ltpFR2	1	5	n/a	n/a	n/a	n/a	0	0	0
1231.976	n/a	START	615988	n/a	LTP326	ltpFR2	1	n/a	n/a	n/a	8	n/a	n/a	n/a	n/a
1231.992	n/a	PROB	615996	n/a	LTP326	ltpFR2	1	n/a	n/a	n/a	8	14	9	1	4
1233.474	n/a	PROB	616737	n/a	LTP326	ltpFR2	1	n/a	n/a	n/a	8	17	6	2	9
1236.112	n/a	PROB	618056	n/a	LTP326	ltpFR2	1	n/a	n/a	n/a	8	20	6	9	6
1239.33	n/a	PROB	619665	n/a	LTP326	ltpFR2	1	n/a	n/a	n/a	8	11	1	3	7
1242.984	n/a	PROB	621492	n/a	LTP326	ltpFR2	1	n/a	n/a	n/a	8	18	7	7	3
1245.654	n/a	PROB	622827	n/a	LTP326	ltpFR2	1	n/a	n/a	n/a	8	16	5	6	5
1247.57	n/a	PROB	623785	n/a	LTP326	ltpFR2	1	n/a	n/a	n/a	8	12	8	3	1
1249.488	n/a	PROB	624744	n/a	LTP326	ltpFR2	1	n/a	n/a	n/a	8	14	9	3	2
1251.19	n/a	PROB	625595	n/a	LTP326	ltpFR2	1	n/a	n/a	n/a	8	18	3	8	6
1255.976	n/a	STOP	627988	n/a	LTP326	ltpFR2	1	n/a	n/a	n/a	8	n/a	n/a	n/a	n/a
1256.922	n/a	WORD	628461	wordpools/wasnorm_wordpool_576.txt	LTP326	ltpFR2	1	5	SCALPEL	1243	n/a	n/a	0	0	0
1259.558	n/a	WORD	629779	wordpools/wasnorm_wordpool_576.txt	LTP326	ltpFR2	1	5	SCALLOP	1242	n/a	n/a	0	0	0
1262.36	n/a	WORD	631180	wordpools/wasnorm_wordpool_576.txt	LTP326	ltpFR2	1	5	LONDON	843	n/a	n/a	0	0	0
1264.88	n/a	WORD	632440	wordpools/wasnorm_wordpool_576.txt	LTP326	ltpFR2	1	5	VAGRANT	1544	n/a	n/a	0	0	0
1267.386	n/a	WORD	633693	wordpools/wasnorm_wordpool_576.txt	LTP326	ltpFR2	1	5	CASKET	255	n/a	n/a	0	0	0
1270.034	n/a	WORD	635017	wordpools/wasnorm_wordpool_576.txt	LTP326	ltpFR2	1	5	GRAVE	658	n/a	n/a	0	0	0
1272.484	n/a	WORD	636242	wordpools/wasnorm_wordpool_576.txt	LTP326	ltpFR2	1	5	TART	1436	n/a	n/a	0	0	0
1275.124	n/a	WORD	637562	wordpools/wasnorm_wordpool_576.txt	LTP326	ltpFR2	1	5	KNAPSACK	783	n/a	n/a	0	0	0
1277.89	n/a	WORD	638945	wordpools/wasnorm_wordpool_576.txt	LTP326	ltpFR2	1	5	VALVE	1546	n/a	n/a	0	0	0
1280.396	n/a	WORD	640198	wordpools/wasnorm_wordpool_576.txt	LTP326	ltpFR2	1	5	TUNNEL	1519	n/a	n/a	0	0	0
1282.86	n/a	WORD	641430	wordpools/wasnorm_wordpool_576.txt	LTP326	ltpFR2	1	5	TORTOISE	1486	n/a	n/a	0	0	0
1285.45	n/a	WORD	642725	wordpools/wasnorm_wordpool_576.txt	LTP326	ltpFR2	1	5	PLUTO	1092	n/a	n/a	0	0	0
1287.988	n/a	WORD	643994	wordpools/wasnorm_wordpool_576.txt	LTP326	ltpFR2	1	5	SHOVEL	1295	n/a	n/a	0	0	0
1290.516	n/a	WORD	645258	wordpools/wasnorm_wordpool_576.txt	LTP326	ltpFR2	1	5	CANYON	235	n/a	n/a	0	0	0
1293.07	n/a	WORD	646535	wordpools/wasnorm_wordpool_576.txt	LTP326	ltpFR2	1	5	COUNTRY	388	n/a	n/a	0	0	0
1295.722	n/a	WORD	647861	wordpools/wasnorm_wordpool_576.txt	LTP326	ltpFR2	1	5	PEDAL	1037	n/a	n/a	0	0	0
1298.36	n/a	WORD	649180	wordpools/wasnorm_wordpool_576.txt	LTP326	ltpFR2	1	5	FREEZER	604	n/a	n/a	0	0	0
1300.964	n/a	WORD	650482	wordpools/wasnorm_wordpool_576.txt	LTP326	ltpFR2	1	5	EUROPE	541	n/a	n/a	0	0	0
1303.63	n/a	WORD	651815	wordpools/wasnorm_wordpool_576.txt	LTP326	ltpFR2	1	5	GLASS	639	n/a	n/a	0	0	0
1306.316	n/a	WORD	653158	wordpools/wasnorm_wordpool_576.txt	LTP326	ltpFR2	1	5	COD	340	n/a	n/a	0	0	0
1309.132	n/a	WORD	654566	wordpools/wasnorm_wordpool_576.txt	LTP326	ltpFR2	1	5	ARMY	39	n/a	n/a	0	0	0
1311.604	n/a	WORD	655802	wordpools/wasnorm_wordpool_576.txt	LTP326	ltpFR2	1	5	WIDOW	1608	n/a	n/a	0	0	0
1314.32	n/a	WORD	657160	wordpools/wasnorm_wordpool_576.txt	LTP326	ltpFR2	1	5	TOMBSTONE	1478	n/a	n/a	0	0	0
1316.756	n/a	WORD	658378	wordpools/wasnorm_wordpool_576.txt	LTP326	ltpFR2	1	5	RUST	1219	n/a	n/a	0	0	0
1318.374	n/a	START	659187	n/a	LTP326	ltpFR2	1	n/a	n/a	n/a	9	n/a	n/a	n/a	n/a
1319.39	n/a	DISTRACTOR	659695	n/a	LTP326	ltpFR2	1	5	n/a	n/a	n/a	n/a	0	0	0
1319.408	n/a	PROB	659704	n/a	LTP326	ltpFR2	1	n/a	n/a	n/a	9	18	6	5	7
1321.71	n/a	PROB	660855	n/a	LTP326	ltpFR2	1	n/a	n/a	n/a	9	14	5	1	8
1323.51	n/a	PROB	661755	n/a	LTP326	ltpFR2	1	n/a	n/a	n/a	9	14	6	3	5
1325.848	n/a	PROB	662924	n/a	LTP326	ltpFR2	1	n/a	n/a	n/a	9	23	7	8	8
1331.234	n/a	PROB	665617	n/a	LTP326	ltpFR2	1	n/a	n/a	n/a	9	10	2	5	3
1333.354	n/a	PROB	666677	n/a	LTP326	ltpFR2	1	n/a	n/a	n/a	9	9	3	4	2
1335.54	n/a	PROB	667770	n/a	LTP326	ltpFR2	1	n/a	n/a	n/a	9	13	1	4	8
1337.154	n/a	PROB	668577	n/a	LTP326	ltpFR2	1	n/a	n/a	n/a	9	20	4	8	8
1342.374	n/a	STOP	671187	n/a	LTP326	ltpFR2	1	n/a	n/a	n/a	9	n/a	n/a	n/a	n/a
1344.198	n/a	REC_START	672099	n/a	LTP326	ltpFR2	1	5	n/a	n/a	n/a	n/a	0	0	0
1346.666	n/a	REC_WORD	673333	wordpools/wasnorm_wordpool_576.txt	LTP326	ltpFR2	1	5	ARMY	39	n/a	n/a	0	0	0
1348.478	n/a	REC_WORD	674239	wordpools/wasnorm_wordpool_576.txt	LTP326	ltpFR2	1	5	SHOVEL	1295	n/a	n/a	0	0	0
1351.592	n/a	REC_WORD	675796	wordpools/wasnorm_wordpool_576.txt	LTP326	ltpFR2	1	5	TOMBSTONE	1478	n/a	n/a	0	0	0
1355.42	n/a	REC_WORD	677710	wordpools/wasnorm_wordpool_576.txt	LTP326	ltpFR2	1	5	LONDON	843	n/a	n/a	0	0	0
1358.934	n/a	REC_WORD	679467	wordpools/wasnorm_wordpool_576.txt	LTP326	ltpFR2	1	5	TUNNEL	1519	n/a	n/a	0	0	0
1361.454	n/a	REC_WORD	680727	wordpools/wasnorm_wordpool_576.txt	LTP326	ltpFR2	1	5	TORTOISE	1486	n/a	n/a	0	0	0
1363.704	n/a	REC_WORD	681852	wordpools/wasnorm_wordpool_576.txt	LTP326	ltpFR2	1	5	CANYON	235	n/a	n/a	0	0	0
1366.934	n/a	REC_WORD	683467	wordpools/wasnorm_wordpool_576.txt	LTP326	ltpFR2	1	5	VALVE	1546	n/a	n/a	0	0	0
1371.988	n/a	REC_WORD	685994	wordpools/wasnorm_wordpool_576.txt	LTP326	ltpFR2	1	5	SCALLOP	1242	n/a	n/a	0	0	0
1374.158	n/a	REC_WORD	687079	wordpools/wasnorm_wordpool_576.txt	LTP326	ltpFR2	1	5	SCALPEL	1243	n/a	n/a	0	0	0
1375.158	n/a	REC_WORD_VV	687579	wordpools/wasnorm_wordpool_576.txt	LTP326	ltpFR2	1	5	<>	-1	n/a	n/a	0	0	0
1395.364	n/a	REC_WORD	697682	wordpools/wasnorm_wordpool_576.txt	LTP326	ltpFR2	1	5	PLUTO	1092	n/a	n/a	0	0	0
1399.488	n/a	REC_WORD	699744	wordpools/wasnorm_wordpool_576.txt	LTP326	ltpFR2	1	5	EUROPE	541	n/a	n/a	0	0	0
1434.618	n/a	DISTRACTOR	717309	n/a	LTP326	ltpFR2	1	6	n/a	n/a	n/a	n/a	0	0	0
1434.618	n/a	START	717309	n/a	LTP326	ltpFR2	1	n/a	n/a	n/a	10	n/a	n/a	n/a	n/a
1434.634	n/a	PROB	717317	n/a	LTP326	ltpFR2	1	n/a	n/a	n/a	10	17	3	5	9
1436.868	n/a	PROB	718434	n/a	LTP326	ltpFR2	1	n/a	n/a	n/a	10	6	2	2	2
1438.4	n/a	PROB	719200	n/a	LTP326	ltpFR2	1	n/a	n/a	n/a	10	12	1	3	8
1440.068	n/a	PROB	720034	n/a	LTP326	ltpFR2	1	n/a	n/a	n/a	10	20	8	9	3
1442.422	n/a	PROB	721211	n/a	LTP326	ltpFR2	1	n/a	n/a	n/a	10	20	8	5	7
1444.74	n/a	PROB	722370	n/a	LTP326	ltpFR2	1	n/a	n/a	n/a	10	22	6	9	7
1448.576	n/a	PROB	724288	n/a	LTP326	ltpFR2	1	n/a	n/a	n/a	10	7	2	1	4
1450.778	n/a	PROB	725389	n/a	LTP326	ltpFR2	1	n/a	n/a	n/a	10	18	2	8	8
1452.396	n/a	PROB	726198	n/a	LTP326	ltpFR2	1	n/a	n/a	n/a	10	2	8	1	3
1453.998	n/a	PROB	726999	n/a	LTP326	ltpFR2	1	n/a	n/a	n/a	10	14	7	3	4
1456.248	n/a	PROB	728124	n/a	LTP326	ltpFR2	1	n/a	n/a	n/a	10	14	6	6	2
1457.98	n/a	STOP	728990	n/a	LTP326	ltpFR2	1	n/a	n/a	n/a	10	n/a	n/a	n/a	n/a
1459.678	n/a	WORD	729839	wordpools/wasnorm_wordpool_576.txt	LTP326	ltpFR2	1	6	WHISKERS	1605	n/a	n/a	0	0	0
1462.496	n/a	WORD	731248	wordpools/wasnorm_wordpool_576.txt	LTP326	ltpFR2	1	6	FILM	565	n/a	n/a	0	0	0
1465.13	n/a	WORD	732565	wordpools/wasnorm_wordpool_576.txt	LTP326	ltpFR2	1	6	LAKE	796	n/a	n/a	0	0	0
1467.734	n/a	WORD	733867	wordpools/wasnorm_wordpool_576.txt	LTP326	ltpFR2	1	6	PAIL	1002	n/a	n/a	0	0	0
1470.202	n/a	WORD	735101	wordpools/wasnorm_wordpool_576.txt	LTP326	ltpFR2	1	6	SHARK	1275	n/a	n/a	0	0	0
1472.756	n/a	WORD	736378	wordpools/wasnorm_wordpool_576.txt	LTP326	ltpFR2	1	6	SLIME	1327	n/a	n/a	0	0	0
1475.182	n/a	WORD	737591	wordpools/wasnorm_wordpool_576.txt	LTP326	ltpFR2	1	6	PARSLEY	1016	n/a	n/a	0	0	0
1477.808	n/a	WORD	738904	wordpools/wasnorm_wordpool_576.txt	LTP326	ltpFR2	1	6	FLAG	573	n/a	n/a	0	0	0
1480.228	n/a	WORD	740114	wordpools/wasnorm_wordpool_576.txt	LTP326	ltpFR2	1	6	TILE	1468	n/a	n/a	0	0	0
1482.972	n/a	WORD	741486	wordpools/wasnorm_wordpool_576.txt	LTP326	ltpFR2	1	6	CHAUFFEUR	283	n/a	n/a	0	0	0
1485.438	n/a	WORD	742719	wordpools/wasnorm_wordpool_576.txt	LTP326	ltpFR2	1	6	PLIERS	1089	n/a	n/a	0	0	0
1488.19	n/a	WORD	744095	wordpools/wasnorm_wordpool_576.txt	LTP326	ltpFR2	1	6	CANDY	230	n/a	n/a	0	0	0
1490.628	n/a	WORD	745314	wordpools/wasnorm_wordpool_576.txt	LTP326	ltpFR2	1	6	TOURIST	1488	n/a	n/a	0	0	0
1493.104	n/a	WORD	746552	wordpools/wasnorm_wordpool_576.txt	LTP326	ltpFR2	1	6	SWIMMER	1420	n/a	n/a	0	0	0
1495.708	n/a	WORD	747854	wordpools/wasnorm_wordpool_576.txt	LTP326	ltpFR2	1	6	BACKBONE	66	n/a	n/a	0	0	0
1498.416	n/a	WORD	749208	wordpools/wasnorm_wordpool_576.txt	LTP326	ltpFR2	1	6	ISLAND	745	n/a	n/a	0	0	0
1501.046	n/a	WORD	750523	wordpools/wasnorm_wordpool_576.txt	LTP326	ltpFR2	1	6	TWISTER	1530	n/a	n/a	0	0	0
1503.832	n/a	WORD	751916	wordpools/wasnorm_wordpool_576.txt	LTP326	ltpFR2	1	6	HELMET	702	n/a	n/a	0	0	0
1506.624	n/a	WORD	753312	wordpools/wasnorm_wordpool_576.txt	LTP326	ltpFR2	1	6	LEG	809	n/a	n/a	0	0	0
1509.118	n/a	WORD	754559	wordpools/wasnorm_wordpool_576.txt	LTP326	ltpFR2	1	6	DAISY	435	n/a	n/a	0	0	0
1511.638	n/a	WORD	755819	wordpools/wasnorm_wordpool_576.txt	LTP326	ltpFR2	1	6	ITEM	746	n/a	n/a	0	0	0
1514.078	n/a	WORD	757039	wordpools/wasnorm_wordpool_576.txt	LTP326	ltpFR2	1	6	BROOK	177	n/a	n/a	0	0	0
1516.692	n/a	WORD	758346	wordpools/wasnorm_wordpool_576.txt	LTP326	ltpFR2	1	6	CYCLONE	431	n/a	n/a	0	0	0
1519.178	n/a	WORD	759589	wordpools/wasnorm_wordpool_576.txt	LTP326	ltpFR2	1	6	BRICK	172	n/a	n/a	0	0	0
1520.784	n/a	START	760392	n/a	LTP326	ltpFR2	1	n/a	n/a	n/a	11	n/a	n/a	n/a	n/a
1521.612	n/a	DISTRACTOR	760806	n/a	LTP326	ltpFR2	1	6	n/a	n/a	n/a	n/a	0	0	0
1521.618	n/a	PROB	760809	n/a	LTP326	ltpFR2	1	n/a	n/a	n/a	11	1	9	3	2
1523.386	n/a	PROB	761693	n/a	LTP326	ltpFR2	1	n/a	n/a	n/a	11	7	1	1	5
1525.886	n/a	PROB	762943	n/a	LTP326	ltpFR2	1	n/a	n/a	n/a	11	20	7	7	6
1527.674	n/a	PROB	763837	n/a	LTP326	ltpFR2	1	n/a	n/a	n/a	11	7	2	4	1
1533.226	n/a	PROB	766613	n/a	LTP326	ltpFR2	1	n/a	n/a	n/a	11	15	4	8	3
1535.044	n/a	PROB	767522	n/a	LTP326	ltpFR2	1	n/a	n/a	n/a	11	21	3	9	9
1537.29	n/a	PROB	768645	n/a	LTP326	ltpFR2	1	n/a	n/a	n/a	11	22	8	7	7
1539.9	n/a	PROB	769950	n/a	LTP326	ltpFR2	1	n/a	n/a	n/a	11	19	3	9	7
1542.412	n/a	PROB	771206	n/a	LTP326	ltpFR2	1	n/a	n/a	n/a	11	9	3	1	5
1543.956	n/a	STOP	771978	n/a	LTP326	ltpFR2	1	n/a	n/a	n/a	11	n/a	n/a	n/a	n/a
1546.638	n/a	REC_START	773319	n/a	LTP326	ltpFR2	1	6	n/a	n/a	n/a	n/a	0	0	0
1549.718	n/a	REC_WORD	774859	wordpools/wasnorm_wordpool_576.txt	LTP326	ltpFR2	1	6	LAKE	796	n/a	n/a	0	0	0
1551.36	n/a	REC_WORD	775680	wordpools/wasnorm_wordpool_576.txt	LTP326	ltpFR2	1	6	SWIMMER	1420	n/a	n/a	0	0	0
1554.154	n/a	REC_WORD	777077	wordpools/wasnorm_wordpool_576.txt	LTP326	ltpFR2	1	6	ISLAND	745	n/a	n/a	0	0	0
1556.366	n/a	REC_WORD	778183	wordpools/wasnorm_wordpool_576.txt	LTP326	ltpFR2	1	6	BROOK	177	n/a	n/a	0	0	0
1558.308	n/a	REC_WORD	779154	wordpools/wasnorm_wordpool_576.txt	LTP326	ltpFR2	1	6	SHARK	1275	n/a	n/a	0	0	0
1560.308	n/a	REC_WORD	780154	wordpools/wasnorm_wordpool_576.txt	LTP326	ltpFR2	1	6	LEG	809	n/a	n/a	0	0	0
1562.65	n/a	REC_WORD	781325	wordpools/wasnorm_wordpool_576.txt	LTP326	ltpFR2	1	6	PAIL	1002	n/a	n/a	0	0	0
1564.782	n/a	REC_WORD	782391	wordpools/wasnorm_wordpool_576.txt	LTP326	ltpFR2	1	6	SLIME	1327	n/a	n/a	0	0	0
1567.36	n/a	REC_WORD	783680	wordpools/wasnorm_wordpool_576.txt	LTP326	ltpFR2	1	6	BRICK	172	n/a	n/a	0	0	0
1569.712	n/a	REC_WORD	784856	wordpools/wasnorm_wordpool_576.txt	LTP326	ltpFR2	1	6	DAISY	435	n/a	n/a	0	0	0
1592.994	n/a	REC_WORD	796497	wordpools/wasnorm_wordpool_576.txt	LTP326	ltpFR2	1	6	TOURIST	1488	n/a	n/a	0	0	0
1606.46	n/a	REC_WORD	803230	wordpools/wasnorm_wordpool_576.txt	LTP326	ltpFR2	1	6	HELMET	702	n/a	n/a	0	0	0
1637.108	n/a	DISTRACTOR	818554	n/a	LTP326	ltpFR2	1	7	n/a	n/a	n/a	n/a	0	0	0
1637.108	n/a	START	818554	n/a	LTP326	ltpFR2	1	n/a	n/a	n/a	12	n/a	n/a	n/a	n/a
1637.124	n/a	PROB	818562	n/a	LTP326	ltpFR2	1	n/a	n/a	n/a	12	15	3	9	3
1638.842	n/a	PROB	819421	n/a	LTP326	ltpFR2	1	n/a	n/a	n/a	12	19	9	3	7
1640.762	n/a	PROB	820381	n/a	LTP326	ltpFR2	1	n/a	n/a	n/a	12	9	3	3	3
1642.996	n/a	PROB	821498	n/a	LTP326	ltpFR2	1	n/a	n/a	n/a	12	22	8	5	9
1646.13	n/a	PROB	823065	n/a	LTP326	ltpFR2	1	n/a	n/a	n/a	12	9	4	1	4
1647.482	n/a	PROB	823741	n/a	LTP326	ltpFR2	1	n/a	n/a	n/a	12	12	9	2	1
1649.414	n/a	PROB	824707	n/a	LTP326	ltpFR2	1	n/a	n/a	n/a	12	20	9	9	2
1651.736	n/a	PROB	825868	n/a	LTP326	ltpFR2	1	n/a	n/a	n/a	12	8	5	2	1
1653.334	n/a	PROB	826667	n/a	LTP326	ltpFR2	1	n/a	n/a	n/a	12	15	3	8	4
1655.538	n/a	PROB	827769	n/a	LTP326	ltpFR2	1	n/a	n/a	n/a	12	27	9	9	8
1659.678	n/a	STOP	829839	n/a	LTP326	ltpFR2	1	n/a	n/a	n/a	12	n/a	n/a	n/a	n/a
1661.96	n/a	WORD	830980	wordpools/wasnorm_wordpool_576.txt	LTP326	ltpFR2	1	7	PARROT	1015	n/a	n/a	0	0	0
1664.428	n/a	WORD	832214	wordpools/wasnorm_wordpool_576.txt	LTP326	ltpFR2	1	7	HORNET	718	n/a	n/a	0	0	0
1666.852	n/a	WORD	833426	wordpools/wasnorm_wordpool_576.txt	LTP326	ltpFR2	1	7	GANGSTER	620	n/a	n/a	0	0	0
1669.532	n/a	WORD	834766	wordpools/wasnorm_wordpool_576.txt	LTP326	ltpFR2	1	7	WAITRESS	1581	n/a	n/a	0	0	0
1671.986	n/a	WORD	835993	wordpools/wasnorm_wordpool_576.txt	LTP326	ltpFR2	1	7	NEUTRON	947	n/a	n/a	0	0	0
1674.704	n/a	WORD	837352	wordpools/wasnorm_wordpool_576.txt	LTP326	ltpFR2	1	7	HEDGE	699	n/a	n/a	0	0	0
1677.512	n/a	WORD	838756	wordpools/wasnorm_wordpool_576.txt	LTP326	ltpFR2	1	7	MONSTER	912	n/a	n/a	0	0	0
1679.948	n/a	WORD	839974	wordpools/wasnorm_wordpool_576.txt	LTP326	ltpFR2	1	7	LION	827	n/a	n/a	0	0	0
1682.744	n/a	WORD	841372	wordpools/wasnorm_wordpool_576.txt	LTP326	ltpFR2	1	7	BEAST	108	n/a	n/a	0	0	0
1685.286	n/a	WORD	842643	wordpools/wasnorm_wordpool_576.txt	LTP326	ltpFR2	1	7	HARP	689	n/a	n/a	0	0	0
1688.02	n/a	WORD	844010	wordpools/wasnorm_wordpool_576.txt	LTP326	ltpFR2	1	7	TYPIST	1532	n/a	n/a	0	0	0
1690.464	n/a	WORD	845232	wordpools/wasnorm_wordpool_576.txt	LTP326	ltpFR2	1	7	AIRPLANE	12	n/a	n/a	0	0	0
1693.184	n/a	WORD	846592	wordpools/wasnorm_wordpool_576.txt	LTP326	ltpFR2	1	7	VIRUS	1572	n/a	n/a	0	0	0
1695.826	n/a	WORD	847913	wordpools/wasnorm_wordpool_576.txt	LTP326	ltpFR2	1	7	ACTRESS	6	n/a	n/a	0	0	0
1698.422	n/a	WORD	849211	wordpools/wasnorm_wordpool_576.txt	LTP326	ltpFR2	1	7	STAR	1373	n/a	n/a	0	0	0
1700.84	n/a	WORD	850420	wordpools/wasnorm_wordpool_576.txt	LTP326	ltpFR2	1	7	TWIG	1527	n/a	n/a	0	0	0
1703.45	n/a	WORD	851725	wordpools/wasnorm_wordpool_576.txt	LTP326	ltpFR2	1	7	VIKING	1565	n/a	n/a	0	0	0
1705.994	n/a	WORD	852997	wordpools/wasnorm_wordpool_576.txt	LTP326	ltpFR2	1	7	PICNIC	1060	n/a	n/a	0	0	0
1708.412	n/a	WORD	854206	wordpools/wasnorm_wordpool_576.txt	LTP326	ltpFR2	1	7	REPORT	1184	n/a	n/a	0	0	0
1711.098	n/a	WORD	855549	wordpools/wasnorm_wordpool_576.txt	LTP326	ltpFR2	1	7	NOTEBOOK	959	n/a	n/a	0	0	0
1713.626	n/a	WORD	856813	wordpools/wasnorm_wordpool_576.txt	LTP326	ltpFR2	1	7	CEILING	265	n/a	n/a	0	0	0
1716.428	n/a	WORD	858214	wordpools/wasnorm_wordpool_576.txt	LTP326	ltpFR2	1	7	POWDER	1117	n/a	n/a	0	0	0
1719.23	n/a	WORD	859615	wordpools/wasnorm_wordpool_576.txt	LTP326	ltpFR2	1	7	SPARROW	1347	n/a	n/a	0	0	0
1721.95	n/a	WORD	860975	wordpools/wasnorm_wordpool_576.txt	LTP326	ltpFR2	1	7	BRIEFCASE	175	n/a	n/a	0	0	0
1723.558	n/a	START	861779	n/a	LTP326	ltpFR2	1	n/a	n/a	n/a	13	n/a	n/a	n/a	n/a
1724.416	n/a	DISTRACTOR	862208	n/a	LTP326	ltpFR2	1	7	n/a	n/a	n/a	n/a	0	0	0
1724.426	n/a	PROB	862213	n/a	LTP326	ltpFR2	1	n/a	n/a	n/a	13	20	9	5	6
1726.662	n/a	PROB	863331	n/a	LTP326	ltpFR2	1	n/a	n/a	n/a	13	16	7	3	6
1728.31	n/a	PROB	864155	n/a	LTP326	ltpFR2	1	n/a	n/a	n/a	13	10	2	6	2
1730.312	n/a	PROB	865156	n/a	LTP326	ltpFR2	1	n/a	n/a	n/a	13	23	8	7	8
1735.634	n/a	PROB	867817	n/a	LTP326	ltpFR2	1	n/a	n/a	n/a	13	6	1	1	4
1737.986	n/a	PROB	868993	n/a	LTP326	ltpFR2	1	n/a	n/a	n/a	13	19	2	8	9
1739.218	n/a	PROB	869609	n/a	LTP326	ltpFR2	1	n/a	n/a	n/a	13	8	1	1	6
1740.806	n/a	PROB	870403	n/a	LTP326	ltpFR2	1	n/a	n/a	n/a	13	18	8	3	6
1743.708	n/a	PROB	871854	n/a	LTP326	ltpFR2	1	n/a	n/a	n/a	13	19	2	8	9
1747.558	n/a	STOP	873779	n/a	LTP326	ltpFR2	1	n/a	n/a	n/a	13	n/a	n/a	n/a	n/a
1749.444	n/a	REC_START	874722	n/a	LTP326	ltpFR2	1	7	n/a	n/a	n/a	n/a	0	0	0
1751.064	n/a	REC_WORD	875532	wordpools/wasnorm_wordpool_576.txt	LTP326	ltpFR2	1	7	AIRPLANE	12	n/a	n/a	0	0	0
1753.026	n/a	REC_WORD	876513	wordpools/wasnorm_wordpool_576.txt	LTP326	ltpFR2	1	7	TYPIST	1532	n/a	n/a	0	0	0
1755.318	n/a	REC_WORD	877659	wordpools/wasnorm_wordpool_576.txt	LTP326	ltpFR2	1	7	BRIEFCASE	175	n/a	n/a	0	0	0
1756.318	n/a	REC_WORD_VV	878159	wordpools/wasnorm_wordpool_576.txt	LTP326	ltpFR2	1	7	<>	-1	n/a	n/a	0	0	0
1757.482	n/a	REC_WORD	878741	wordpools/wasnorm_wordpool_576.txt	LTP326	ltpFR2	1	7	NOTEBOOK	959	n/a	n/a	0	0	0
1758.482	n/a	REC_WORD_VV	879241	wordpools/wasnorm_wordpool_576.txt	LTP326	ltpFR2	1	7	<>	-1	n/a	n/a	0	0	0
1759.804	n/a	REC_WORD	879902	wordpools/wasnorm_wordpool_576.txt	LTP326	ltpFR2	1	7	REPORT	1184	n/a	n/a	0	0	0
1762.268	n/a	REC_WORD	881134	wordpools/wasnorm_wordpool_576.txt	LTP326	ltpFR2	1	7	VIKING	1565	n/a	n/a	0	0	0
1768.688	n/a	REC_WORD	884344	wordpools/wasnorm_wordpool_576.txt	LTP326	ltpFR2	1	7	SPARROW	1347	n/a	n/a	0	0	0
1769.688	n/a	REC_WORD_VV	884844	wordpools/wasnorm_wordpool_576.txt	LTP326	ltpFR2	1	7	<>	-1	n/a	n/a	0	0	0
1770.652	n/a	REC_WORD	885326	wordpools/wasnorm_wordpool_576.txt	LTP326	ltpFR2	1	7	CEILING	265	n/a	n/a	0	0	0
1772.652	n/a	REC_WORD	886326	wordpools/wasnorm_wordpool_576.txt	LTP326	ltpFR2	1	7	POWDER	1117	n/a	n/a	0	0	0
1795.172	n/a	REC_WORD	897586	wordpools/wasnorm_wordpool_576.txt	LTP326	ltpFR2	1	7	ACTRESS	6	n/a	n/a	0	0	0
1796.686	n/a	REC_WORD	898343	wordpools/wasnorm_wordpool_576.txt	LTP326	ltpFR2	1	7	STAR	1373	n/a	n/a	0	0	0
1799.006	n/a	REC_WORD	899503	wordpools/wasnorm_wordpool_576.txt	LTP326	ltpFR2	1	7	TWIG	1527	n/a	n/a	0	0	0
1839.916	n/a	WORD	919958	wordpools/wasnorm_wordpool_576.txt	LTP326	ltpFR2	1	8	KNIFE	785	n/a	n/a	0	0	0
1842.568	n/a	WORD	921284	wordpools/wasnorm_wordpool_576.txt	LTP326	ltpFR2	1	8	FIDDLE	561	n/a	n/a	0	0	0
1845.154	n/a	WORD	922577	wordpools/wasnorm_wordpool_576.txt	LTP326	ltpFR2	1	8	DUSTPAN	509	n/a	n/a	0	0	0
1847.788	n/a	WORD	923894	wordpools/wasnorm_wordpool_576.txt	LTP326	ltpFR2	1	8	SPOOL	1356	n/a	n/a	0	0	0
1850.44	n/a	WORD	925220	wordpools/wasnorm_wordpool_576.txt	LTP326	ltpFR2	1	8	BUBBLE	183	n/a	n/a	0	0	0
1853.158	n/a	WORD	926579	wordpools/wasnorm_wordpool_576.txt	LTP326	ltpFR2	1	8	BALLOON	75	n/a	n/a	0	0	0
1855.678	n/a	WORD	927839	wordpools/wasnorm_wordpool_576.txt	LTP326	ltpFR2	1	8	SUPPER	1411	n/a	n/a	0	0	0
1858.312	n/a	WORD	929156	wordpools/wasnorm_wordpool_576.txt	LTP326	ltpFR2	1	8	COOKBOOK	373	n/a	n/a	0	0	0
1860.834	n/a	WORD	930417	wordpools/wasnorm_wordpool_576.txt	LTP326	ltpFR2	1	8	POET	1095	n/a	n/a	0	0	0
1863.482	n/a	WORD	931741	wordpools/wasnorm_wordpool_576.txt	LTP326	ltpFR2	1	8	TURTLE	1522	n/a	n/a	0	0	0
1866.036	n/a	WORD	933018	wordpools/wasnorm_wordpool_576.txt	LTP326	ltpFR2	1	8	SCULPTURE	1258	n/a	n/a	0	0	0
1868.638	n/a	WORD	934319	wordpools/wasnorm_wordpool_576.txt	LTP326	ltpFR2	1	8	PANTHER	1009	n/a	n/a	0	0	0
1871.224	n/a	WORD	935612	wordpools/wasnorm_wordpool_576.txt	LTP326	ltpFR2	1	8	COMPASS	358	n/a	n/a	0	0	0
1873.828	n/a	WORD	936914	wordpools/wasnorm_wordpool_576.txt	LTP326	ltpFR2	1	8	THREAD	1460	n/a	n/a	0	0	0
1876.494	n/a	WORD	938247	wordpools/wasnorm_wordpool_576.txt	LTP326	ltpFR2	1	8	MOTEL	919	n/a	n/a	0	0	0
1879.282	n/a	WORD	939641	wordpools/wasnorm_wordpool_576.txt	LTP326	ltpFR2	1	8	PATIENT	1024	n/a	n/a	0	0	0
1881.748	n/a	WORD	940874	wordpools/wasnorm_wordpool_576.txt	LTP326	ltpFR2	1	8	CARRIAGE	248	n/a	n/a	0	0	0
1884.52	n/a	WORD	942260	wordpools/wasnorm_wordpool_576.txt	LTP326	ltpFR2	1	8	LOVER	846	n/a	n/a	0	0	0
1887.068	n/a	WORD	943534	wordpools/wasnorm_wordpool_576.txt	LTP326	ltpFR2	1	8	AUTHOR	61	n/a	n/a	0	0	0
1889.538	n/a	WORD	944769	wordpools/wasnorm_wordpool_576.txt	LTP326	ltpFR2	1	8	PADDLE	1000	n/a	n/a	0	0	0
1891.992	n/a	WORD	945996	wordpools/wasnorm_wordpool_576.txt	LTP326	ltpFR2	1	8	CATCHER	258	n/a	n/a	0	0	0
1894.542	n/a	WORD	947271	wordpools/wasnorm_wordpool_576.txt	LTP326	ltpFR2	1	8	FOOTBALL	591	n/a	n/a	0	0	0
1897.032	n/a	WORD	948516	wordpools/wasnorm_wordpool_576.txt	LTP326	ltpFR2	1	8	WIFE	1609	n/a	n/a	0	0	0
1899.662	n/a	WORD	949831	wordpools/wasnorm_wordpool_576.txt	LTP326	ltpFR2	1	8	BULLET	194	n/a	n/a	0	0	0
1901.268	n/a	START	950634	n/a	LTP326	ltpFR2	1	n/a	n/a	n/a	14	n/a	n/a	n/a	n/a
1902.138	n/a	DISTRACTOR	951069	n/a	LTP326	ltpFR2	1	8	n/a	n/a	n/a	n/a	0	0	0
1902.148	n/a	PROB	951074	n/a	LTP326	ltpFR2	1	n/a	n/a	n/a	14	13	5	6	2
1904.096	n/a	PROB	952048	n/a	LTP326	ltpFR2	1	n/a	n/a	n/a	14	22	9	7	6
1906.752	n/a	PROB	953376	n/a	LTP326	ltpFR2	1	n/a	n/a	n/a	14	15	6	5	4
1908.384	n/a	PROB	954192	n/a	LTP326	ltpFR2	1	n/a	n/a	n/a	14	17	9	5	3
1910.77	n/a	PROB	955385	n/a	LTP326	ltpFR2	1	n/a	n/a	n/a	14	1	8	2	2
1912.02	n/a	PROB	956010	n/a	LTP326	ltpFR2	1	n/a	n/a	n/a	14	21	8	7	6
1917.174	n/a	PROB	958587	n/a	LTP326	ltpFR2	1	n/a	n/a	n/a	14	14	5	6	3
1919.126	n/a	PROB	959563	n/a	LTP326	ltpFR2	1	n/a	n/a	n/a	14	15	3	6	6
1921.412	n/a	PROB	960706	n/a	LTP326	ltpFR2	1	n/a	n/a	n/a	14	15	4	3	8
1925.268	n/a	STOP	962634	n/a	LTP326	ltpFR2	1	n/a	n/a	n/a	14	n/a	n/a	n/a	n/a
1927.05	n/a	REC_START	963525	n/a	LTP326	ltpFR2	1	8	n/a	n/a	n/a	n/a	0	0	0
1930.13	n/a	REC_WORD	965065	wordpools/wasnorm_wordpool_576.txt	LTP326	ltpFR2	1	8	KNIFE	785	n/a	n/a	0	0	0
1940.586	n/a	REC_WORD	970293	wordpools/wasnorm_wordpool_576.txt	LTP326	ltpFR2	1	8	PATIENT	1024	n/a	n/a	0	0	0
1944.016	n/a	REC_WORD	972008	wordpools/wasnorm_wordpool_576.txt	LTP326	ltpFR2	1	8	LOVER	846	n/a	n/a	0	0	0
1946.41	n/a	REC_WORD	973205	wordpools/wasnorm_wordpool_576.txt	LTP326	ltpFR2	1	8	WIFE	1609	n/a	n/a	0	0	0
1949.276	n/a	REC_WORD	974638	wordpools/wasnorm_wordpool_576.txt	LTP326	ltpFR2	1	8	BULLET	194	n/a	n/a	0	0	0
1951.984	n/a	REC_WORD	975992	wordpools/wasnorm_wordpool_576.txt	LTP326	ltpFR2	1	8	TURTLE	1522	n/a	n/a	0	0	0
1954.734	n/a	REC_WORD	977367	wordpools/wasnorm_wordpool_576.txt	LTP326	ltpFR2	1	8	BUBBLE	183	n/a	n/a	0	0	0
1956.764	n/a	REC_WORD	978382	wordpools/wasnorm_wordpool_576.txt	LTP326	ltpFR2	1	8	BALLOON	75	n/a	n/a	0	0	0
1975.602	n/a	REC_WORD	987801	wordpools/wasnorm_wordpool_576.txt	LTP326	ltpFR2	1	8	MOTEL	919	n/a	n/a	0	0	0
1977.988	n/a	REC_WORD	988994	wordpools/wasnorm_wordpool_576.txt	LTP326	ltpFR2	1	8	CARRIAGE	248	n/a	n/a	0	0	0
2003.578	n/a	REST_REWET	1001789	n/a	LTP326	ltpFR2	1	8	n/a	n/a	n/a	n/a	0	0	0
2425.238	n/a	WORD	1212619	wordpools/wasnorm_wordpool_576.txt	LTP326	ltpFR2	1	9	MATTRESS	879	n/a	n/a	0	0	0
2427.714	n/a	WORD	1213857	wordpools/wasnorm_wordpool_576.txt	LTP326	ltpFR2	1	9	BURGLAR	200	n/a	n/a	0	0	0
2430.426	n/a	WORD	1215213	wordpools/wasnorm_wordpool_576.txt	LTP326	ltpFR2	1	9	PASTA	1021	n/a	n/a	0	0	0
2433.086	n/a	WORD	1216543	wordpools/wasnorm_wordpool_576.txt	LTP326	ltpFR2	1	9	SUMMIT	1405	n/a	n/a	0	0	0
2435.614	n/a	WORD	1217807	wordpools/wasnorm_wordpool_576.txt	LTP326	ltpFR2	1	9	TUBA	1515	n/a	n/a	0	0	0
2438.43	n/a	WORD	1219215	wordpools/wasnorm_wordpool_576.txt	LTP326	ltpFR2	1	9	ARM	38	n/a	n/a	0	0	0
2440.884	n/a	WORD	1220442	wordpools/wasnorm_wordpool_576.txt	LTP326	ltpFR2	1	9	ANKLE	24	n/a	n/a	0	0	0
2443.326	n/a	WORD	1221663	wordpools/wasnorm_wordpool_576.txt	LTP326	ltpFR2	1	9	SCARECROW	1245	n/a	n/a	0	0	0
2446.012	n/a	WORD	1223006	wordpools/wasnorm_wordpool_576.txt	LTP326	ltpFR2	1	9	KEEPER	769	n/a	n/a	0	0	0
2448.79	n/a	WORD	1224395	wordpools/wasnorm_wordpool_576.txt	LTP326	ltpFR2	1	9	BINDER	127	n/a	n/a	0	0	0
2451.324	n/a	WORD	1225662	wordpools/wasnorm_wordpool_576.txt	LTP326	ltpFR2	1	9	MATCH	878	n/a	n/a	0	0	0
2454.068	n/a	WORD	1227034	wordpools/wasnorm_wordpool_576.txt	LTP326	ltpFR2	1	9	CASHIER	254	n/a	n/a	0	0	0
2456.806	n/a	WORD	1228403	wordpools/wasnorm_wordpool_576.txt	LTP326	ltpFR2	1	9	JURY	766	n/a	n/a	0	0	0
2459.566	n/a	WORD	1229783	wordpools/wasnorm_wordpool_576.txt	LTP326	ltpFR2	1	9	LEOPARD	812	n/a	n/a	0	0	0
2462.216	n/a	WORD	1231108	wordpools/wasnorm_wordpool_576.txt	LTP326	ltpFR2	1	9	CHEMIST	292	n/a	n/a	0	0	0
2464.88	n/a	WORD	1232440	wordpools/wasnorm_wordpool_576.txt	LTP326	ltpFR2	1	9	AGENT	10	n/a	n/a	0	0	0
2467.536	n/a	WORD	1233768	wordpools/wasnorm_wordpool_576.txt	LTP326	ltpFR2	1	9	WORLD	1622	n/a	n/a	0	0	0
2470.066	n/a	WORD	1235033	wordpools/wasnorm_wordpool_576.txt	LTP326	ltpFR2	1	9	RECORD	1176	n/a	n/a	0	0	0
2472.636	n/a	WORD	1236318	wordpools/wasnorm_wordpool_576.txt	LTP326	ltpFR2	1	9	CIGAR	308	n/a	n/a	0	0	0
2475.17	n/a	WORD	1237585	wordpools/wasnorm_wordpool_576.txt	LTP326	ltpFR2	1	9	BACON	67	n/a	n/a	0	0	0
2477.796	n/a	WORD	1238898	wordpools/wasnorm_wordpool_576.txt	LTP326	ltpFR2	1	9	NIGHTGOWN	953	n/a	n/a	0	0	0
2480.224	n/a	WORD	1240112	wordpools/wasnorm_wordpool_576.txt	LTP326	ltpFR2	1	9	TURNIP	1521	n/a	n/a	0	0	0
2482.944	n/a	WORD	1241472	wordpools/wasnorm_wordpool_576.txt	LTP326	ltpFR2	1	9	STUDENT	1395	n/a	n/a	0	0	0
2485.748	n/a	WORD	1242874	wordpools/wasnorm_wordpool_576.txt	LTP326	ltpFR2	1	9	PUPIL	1143	n/a	n/a	0	0	0
2487.352	n/a	START	1243676	n/a	LTP326	ltpFR2	1	n/a	n/a	n/a	15	n/a	n/a	n/a	n/a
2488.226	n/a	DISTRACTOR	1244113	n/a	LTP326	ltpFR2	1	9	n/a	n/a	n/a	n/a	0	0	0
2488.232	n/a	PROB	1244116	n/a	LTP326	ltpFR2	1	n/a	n/a	n/a	15	20	8	6	6
2490.488	n/a	PROB	1245244	n/a	LTP326	ltpFR2	1	n/a	n/a	n/a	15	17	8	6	3
2494.676	n/a	PROB	1247338	n/a	LTP326	ltpFR2	1	n/a	n/a	n/a	15	21	5	8	8
2497.276	n/a	PROB	1248638	n/a	LTP326	ltpFR2	1	n/a	n/a	n/a	15	18	5	7	6
2499.314	n/a	PROB	1249657	n/a	LTP326	ltpFR2	1	n/a	n/a	n/a	15	7	3	3	1
2501.916	n/a	PROB	1250958	n/a	LTP326	ltpFR2	1	n/a	n/a	n/a	15	9	4	4	1
2503.568	n/a	PROB	1251784	n/a	LTP326	ltpFR2	1	n/a	n/a	n/a	15	11	1	9	1
2505.402	n/a	PROB	1252701	n/a	LTP326	ltpFR2	1	n/a	n/a	n/a	15	111	4	2	5
2511.352	n/a	STOP	1255676	n/a	LTP326	ltpFR2	1	n/a	n/a	n/a	15	n/a	n/a	n/a	n/a
2513.188	n/a	REC_START	1256594	n/a	LTP326	ltpFR2	1	9	n/a	n/a	n/a	n/a	0	0	0
2515.448	n/a	REC_WORD	1257724	wordpools/wasnorm_wordpool_576.txt	LTP326	ltpFR2	1	9	MATTRESS	879	n/a	n/a	0	0	0
2516.448	n/a	REC_WORD_VV	1258224	wordpools/wasnorm_wordpool_576.txt	LTP326	ltpFR2	1	9	<>	-1	n/a	n/a	0	0	0
2518.08	n/a	REC_WORD	1259040	wordpools/wasnorm_wordpool_576.txt	LTP326	ltpFR2	1	9	SUMMIT	1405	n/a	n/a	0	0	0
2520.284	n/a	REC_WORD	1260142	wordpools/wasnorm_wordpool_576.txt	LTP326	ltpFR2	1	9	WORLD	1622	n/a	n/a	0	0	0
2522.218	n/a	REC_WORD	1261109	wordpools/wasnorm_wordpool_576.txt	LTP326	ltpFR2	1	9	RECORD	1176	n/a	n/a	0	0	0
2525.656	n/a	REC_WORD	1262828	wordpools/wasnorm_wordpool_576.txt	LTP326	ltpFR2	1	9	PASTA	1021	n/a	n/a	0	0	0
2528.582	n/a	REC_WORD	1264291	wordpools/wasnorm_wordpool_576.txt	LTP326	ltpFR2	1	9	BURGLAR	200	n/a	n/a	0	0	0
2530.874	n/a	REC_WORD	1265437	wordpools/wasnorm_wordpool_576.txt	LTP326	ltpFR2	1	9	CASHIER	254	n/a	n/a	0	0	0
2533.382	n/a	REC_WORD	1266691	wordpools/wasnorm_wordpool_576.txt	LTP326	ltpFR2	1	9	STUDENT	1395	n/a	n/a	0	0	0
2534.382	n/a	REC_WORD_VV	1267191	wordpools/wasnorm_wordpool_576.txt	LTP326	ltpFR2	1	9	<>	-1	n/a	n/a	0	0	0
2536.212	n/a	REC_WORD	1268106	wordpools/wasnorm_wordpool_576.txt	LTP326	ltpFR2	1	9	PUPIL	1143	n/a	n/a	0	0	0
2538.888	n/a	REC_WORD	1269444	wordpools/wasnorm_wordpool_576.txt	LTP326	ltpFR2	1	9	ARM	38	n/a	n/a	0	0	0
2541.036	n/a	REC_WORD	1270518	wordpools/wasnorm_wordpool_576.txt	LTP326	ltpFR2	1	9	ANKLE	24	n/a	n/a	0	0	0
2543.298	n/a	REC_WORD	1271649	wordpools/wasnorm_wordpool_576.txt	LTP326	ltpFR2	1	9	NIGHTGOWN	953	n/a	n/a	0	0	0
2544.298	n/a	REC_WORD_VV	1272149	wordpools/wasnorm_wordpool_576.txt	LTP326	ltpFR2	1	9	<>	-1	n/a	n/a	0	0	0
2546.248	n/a	REC_WORD	1273124	wordpools/wasnorm_wordpool_576.txt	LTP326	ltpFR2	1	9	TURNIP	1521	n/a	n/a	0	0	0
2579.464	n/a	REC_WORD	1289732	wordpools/wasnorm_wordpool_576.txt	LTP326	ltpFR2	1	9	LION	827	n/a	n/a	0	0	0
2581.276	n/a	REC_WORD	1290638	wordpools/wasnorm_wordpool_576.txt	LTP326	ltpFR2	1	9	BEAST	108	n/a	n/a	0	0	0
2587.664	n/a	REC_WORD	1293832	wordpools/wasnorm_wordpool_576.txt	LTP326	ltpFR2	1	9	SCARECROW	1245	n/a	n/a	0	0	0
2603.628	n/a	WORD	1301814	wordpools/wasnorm_wordpool_576.txt	LTP326	ltpFR2	1	10	CATTLE	261	n/a	n/a	0	0	0
2606.312	n/a	WORD	1303156	wordpools/wasnorm_wordpool_576.txt	LTP326	ltpFR2	1	10	WINDOW	1611	n/a	n/a	0	0	0
2608.78	n/a	WORD	1304390	wordpools/wasnorm_wordpool_576.txt	LTP326	ltpFR2	1	10	CRUTCH	417	n/a	n/a	0	0	0
2611.282	n/a	WORD	1305641	wordpools/wasnorm_wordpool_576.txt	LTP326	ltpFR2	1	10	PEPPER	1047	n/a	n/a	0	0	0
2613.886	n/a	WORD	1306943	wordpools/wasnorm_wordpool_576.txt	LTP326	ltpFR2	1	10	GARLIC	624	n/a	n/a	0	0	0
2616.436	n/a	WORD	1308218	wordpools/wasnorm_wordpool_576.txt	LTP326	ltpFR2	1	10	CURTAIN	427	n/a	n/a	0	0	0
2619.022	n/a	WORD	1309511	wordpools/wasnorm_wordpool_576.txt	LTP326	ltpFR2	1	10	FOX	598	n/a	n/a	0	0	0
2621.624	n/a	WORD	1310812	wordpools/wasnorm_wordpool_576.txt	LTP326	ltpFR2	1	10	RAFT	1159	n/a	n/a	0	0	0
2624.342	n/a	WORD	1312171	wordpools/wasnorm_wordpool_576.txt	LTP326	ltpFR2	1	10	GRAVEL	659	n/a	n/a	0	0	0
2626.996	n/a	WORD	1313498	wordpools/wasnorm_wordpool_576.txt	LTP326	ltpFR2	1	10	PISTOL	1075	n/a	n/a	0	0	0
2629.714	n/a	WORD	1314857	wordpools/wasnorm_wordpool_576.txt	LTP326	ltpFR2	1	10	BARREL	91	n/a	n/a	0	0	0
2632.322	n/a	WORD	1316161	wordpools/wasnorm_wordpool_576.txt	LTP326	ltpFR2	1	10	MAILBOX	857	n/a	n/a	0	0	0
2634.986	n/a	WORD	1317493	wordpools/wasnorm_wordpool_576.txt	LTP326	ltpFR2	1	10	CREATURE	403	n/a	n/a	0	0	0
2637.704	n/a	WORD	1318852	wordpools/wasnorm_wordpool_576.txt	LTP326	ltpFR2	1	10	CRIB	407	n/a	n/a	0	0	0
2640.406	n/a	WORD	1320203	wordpools/wasnorm_wordpool_576.txt	LTP326	ltpFR2	1	10	KIDNEY	776	n/a	n/a	0	0	0
2642.864	n/a	WORD	1321432	wordpools/wasnorm_wordpool_576.txt	LTP326	ltpFR2	1	10	MOP	916	n/a	n/a	0	0	0
2645.294	n/a	WORD	1322647	wordpools/wasnorm_wordpool_576.txt	LTP326	ltpFR2	1	10	SHERIFF	1284	n/a	n/a	0	0	0
2647.896	n/a	WORD	1323948	wordpools/wasnorm_wordpool_576.txt	LTP326	ltpFR2	1	10	CITRUS	313	n/a	n/a	0	0	0
2650.53	n/a	WORD	1325265	wordpools/wasnorm_wordpool_576.txt	LTP326	ltpFR2	1	10	FRUIT	610	n/a	n/a	0	0	0
2653.264	n/a	WORD	1326632	wordpools/wasnorm_wordpool_576.txt	LTP326	ltpFR2	1	10	LOFT	840	n/a	n/a	0	0	0
2655.834	n/a	WORD	1327917	wordpools/wasnorm_wordpool_576.txt	LTP326	ltpFR2	1	10	INFANT	737	n/a	n/a	0	0	0
2658.368	n/a	WORD	1329184	wordpools/wasnorm_wordpool_576.txt	LTP326	ltpFR2	1	10	SCOTCH	1251	n/a	n/a	0	0	0
2660.888	n/a	WORD	1330444	wordpools/wasnorm_wordpool_576.txt	LTP326	ltpFR2	1	10	ULCER	1533	n/a	n/a	0	0	0
2663.39	n/a	WORD	1331695	wordpools/wasnorm_wordpool_576.txt	LTP326	ltpFR2	1	10	NECKLACE	940	n/a	n/a	0	0	0
2665.0	n/a	START	1332500	n/a	LTP326	ltpFR2	1	n/a	n/a	n/a	16	n/a	n/a	n/a	n/a
2666.148	n/a	DISTRACTOR	1333074	n/a	LTP326	ltpFR2	1	10	n/a	n/a	n/a	n/a	0	0	0
2666.158	n/a	PROB	1333079	n/a	LTP326	ltpFR2	1	n/a	n/a	n/a	16	7	1	3	3
2667.96	n/a	PROB	1333980	n/a	LTP326	ltpFR2	1	n/a	n/a	n/a	16	16	3	9	4
2670.244	n/a	PROB	1335122	n/a	LTP326	ltpFR2	1	n/a	n/a	n/a	16	14	5	7	1
2673.28	n/a	PROB	1336640	n/a	LTP326	ltpFR2	1	n/a	n/a	n/a	16	16	6	5	5
2675.182	n/a	PROB	1337591	n/a	LTP326	ltpFR2	1	n/a	n/a	n/a	16	18	8	5	5
2678.568	n/a	PROB	1339284	n/a	LTP326	ltpFR2	1	n/a	n/a	n/a	16	16	3	9	4
2680.454	n/a	PROB	1340227	n/a	LTP326	ltpFR2	1	n/a	n/a	n/a	16	14	6	3	5
2682.504	n/a	PROB	1341252	n/a	LTP326	ltpFR2	1	n/a	n/a	n/a	16	14	6	1	7
2684.006	n/a	PROB	1342003	n/a	LTP326	ltpFR2	1	n/a	n/a	n/a	16	15	3	3	9
2686.374	n/a	PROB	1343187	n/a	LTP326	ltpFR2	1	n/a	n/a	n/a	16	4	2	1	1
2687.872	n/a	STOP	1343936	n/a	LTP326	ltpFR2	1	n/a	n/a	n/a	16	n/a	n/a	n/a	n/a
2690.744	n/a	REC_START	1345372	n/a	LTP326	ltpFR2	1	10	n/a	n/a	n/a	n/a	0	0	0
2692.358	n/a	REC_WORD	1346179	wordpools/wasnorm_wordpool_576.txt	LTP326	ltpFR2	1	10	LOFT	840	n/a	n/a	0	0	0
2694.628	n/a	REC_WORD	1347314	wordpools/wasnorm_wordpool_576.txt	LTP326	ltpFR2	1	10	WINDOW	1611	n/a	n/a	0	0	0
2697.168	n/a	REC_WORD	1348584	wordpools/wasnorm_wordpool_576.txt	LTP326	ltpFR2	1	10	CURTAIN	427	n/a	n/a	0	0	0
2700.326	n/a	REC_WORD	1350163	wordpools/wasnorm_wordpool_576.txt	LTP326	ltpFR2	1	10	PISTOL	1075	n/a	n/a	0	0	0
2702.722	n/a	REC_WORD	1351361	wordpools/wasnorm_wordpool_576.txt	LTP326	ltpFR2	1	10	BARREL	91	n/a	n/a	0	0	0
2704.96	n/a	REC_WORD	1352480	wordpools/wasnorm_wordpool_576.txt	LTP326	ltpFR2	1	10	FOX	598	n/a	n/a	0	0	0
2705.96	n/a	REC_WORD_VV	1352980	wordpools/wasnorm_wordpool_576.txt	LTP326	ltpFR2	1	10	<>	-1	n/a	n/a	0	0	0
2707.81	n/a	REC_WORD	1353905	wordpools/wasnorm_wordpool_576.txt	LTP326	ltpFR2	1	10	CATTLE	261	n/a	n/a	0	0	0
2712.054	n/a	REC_WORD	1356027	wordpools/wasnorm_wordpool_576.txt	LTP326	ltpFR2	1	10	CREATURE	403	n/a	n/a	0	0	0
2718.246	n/a	REC_WORD	1359123	wordpools/wasnorm_wordpool_576.txt	LTP326	ltpFR2	1	10	INFANT	737	n/a	n/a	0	0	0
2720.176	n/a	REC_WORD	1360088	wordpools/wasnorm_wordpool_576.txt	LTP326	ltpFR2	1	10	CRIB	407	n/a	n/a	0	0	0
2723.108	n/a	REC_WORD	1361554	wordpools/wasnorm_wordpool_576.txt	LTP326	ltpFR2	1	10	CITRUS	313	n/a	n/a	0	0	0
2725.28	n/a	REC_WORD	1362640	wordpools/wasnorm_wordpool_576.txt	LTP326	ltpFR2	1	10	FRUIT	610	n/a	n/a	0	0	0
2737.494	n/a	REC_WORD	1368747	wordpools/wasnorm_wordpool_576.txt	LTP326	ltpFR2	1	10	RAFT	1159	n/a	n/a	0	0	0
2781.196	n/a	DISTRACTOR	1390598	n/a	LTP326	ltpFR2	1	11	n/a	n/a	n/a	n/a	0	0	0
2781.196	n/a	START	1390598	n/a	LTP326	ltpFR2	1	n/a	n/a	n/a	17	n/a	n/a	n/a	n/a
2781.214	n/a	PROB	1390607	n/a	LTP326	ltpFR2	1	n/a	n/a	n/a	17	15	8	4	3
2783.114	n/a	PROB	1391557	n/a	LTP326	ltpFR2	1	n/a	n/a	n/a	17	16	7	1	8
2784.768	n/a	PROB	1392384	n/a	LTP326	ltpFR2	1	n/a	n/a	n/a	17	4	2	1	2
2785.984	n/a	PROB	1392992	n/a	LTP326	ltpFR2	1	n/a	n/a	n/a	17	14	7	4	3
2788.822	n/a	PROB	1394411	n/a	LTP326	ltpFR2	1	n/a	n/a	n/a	17	17	7	6	4
2791.238	n/a	PROB	1395619	n/a	LTP326	ltpFR2	1	n/a	n/a	n/a	17	17	6	7	4
2793.306	n/a	PROB	1396653	n/a	LTP326	ltpFR2	1	n/a	n/a	n/a	17	11	2	2	7
2795.126	n/a	PROB	1397563	n/a	LTP326	ltpFR2	1	n/a	n/a	n/a	17	18	9	7	2
2797.946	n/a	PROB	1398973	n/a	LTP326	ltpFR2	1	n/a	n/a	n/a	17	11	1	3	7
2799.462	n/a	PROB	1399731	n/a	LTP326	ltpFR2	1	n/a	n/a	n/a	17	18	2	8	8
2800.862	n/a	PROB	1400431	n/a	LTP326	ltpFR2	1	n/a	n/a	n/a	17	6	1	2	3
2803.25	n/a	PROB	1401625	n/a	LTP326	ltpFR2	1	n/a	n/a	n/a	17	12	4	1	7
2804.818	n/a	STOP	1402409	n/a	LTP326	ltpFR2	1	n/a	n/a	n/a	17	n/a	n/a	n/a	n/a
2806.368	n/a	WORD	1403184	wordpools/wasnorm_wordpool_576.txt	LTP326	ltpFR2	1	11	HORSE	719	n/a	n/a	0	0	0
2808.922	n/a	WORD	1404461	wordpools/wasnorm_wordpool_576.txt	LTP326	ltpFR2	1	11	FARMER	553	n/a	n/a	0	0	0
2811.406	n/a	WORD	1405703	wordpools/wasnorm_wordpool_576.txt	LTP326	ltpFR2	1	11	ROBIN	1199	n/a	n/a	0	0	0
2813.84	n/a	WORD	1406920	wordpools/wasnorm_wordpool_576.txt	LTP326	ltpFR2	1	11	CASHEW	253	n/a	n/a	0	0	0
2816.276	n/a	WORD	1408138	wordpools/wasnorm_wordpool_576.txt	LTP326	ltpFR2	1	11	VENUS	1557	n/a	n/a	0	0	0
2818.76	n/a	WORD	1409380	wordpools/wasnorm_wordpool_576.txt	LTP326	ltpFR2	1	11	SPHINX	1349	n/a	n/a	0	0	0
2821.478	n/a	WORD	1410739	wordpools/wasnorm_wordpool_576.txt	LTP326	ltpFR2	1	11	GIFT	635	n/a	n/a	0	0	0
2824.164	n/a	WORD	1412082	wordpools/wasnorm_wordpool_576.txt	LTP326	ltpFR2	1	11	NURSE	963	n/a	n/a	0	0	0
2826.686	n/a	WORD	1413343	wordpools/wasnorm_wordpool_576.txt	LTP326	ltpFR2	1	11	STAMP	1370	n/a	n/a	0	0	0
2829.152	n/a	WORD	1414576	wordpools/wasnorm_wordpool_576.txt	LTP326	ltpFR2	1	11	TABLET	1427	n/a	n/a	0	0	0
2831.872	n/a	WORD	1415936	wordpools/wasnorm_wordpool_576.txt	LTP326	ltpFR2	1	11	BOX	159	n/a	n/a	0	0	0
2834.59	n/a	WORD	1417295	wordpools/wasnorm_wordpool_576.txt	LTP326	ltpFR2	1	11	FRAGRANCE	599	n/a	n/a	0	0	0
2837.092	n/a	WORD	1418546	wordpools/wasnorm_wordpool_576.txt	LTP326	ltpFR2	1	11	MARS	873	n/a	n/a	0	0	0
2839.812	n/a	WORD	1419906	wordpools/wasnorm_wordpool_576.txt	LTP326	ltpFR2	1	11	BISON	131	n/a	n/a	0	0	0
2842.58	n/a	WORD	1421290	wordpools/wasnorm_wordpool_576.txt	LTP326	ltpFR2	1	11	BOYFRIEND	162	n/a	n/a	0	0	0
2845.03	n/a	WORD	1422515	wordpools/wasnorm_wordpool_576.txt	LTP326	ltpFR2	1	11	PARTNER	1017	n/a	n/a	0	0	0
2847.82	n/a	WORD	1423910	wordpools/wasnorm_wordpool_576.txt	LTP326	ltpFR2	1	11	HAND	683	n/a	n/a	0	0	0
2850.502	n/a	WORD	1425251	wordpools/wasnorm_wordpool_576.txt	LTP326	ltpFR2	1	11	BLADE	134	n/a	n/a	0	0	0
2853.154	n/a	WORD	1426577	wordpools/wasnorm_wordpool_576.txt	LTP326	ltpFR2	1	11	SWORD	1423	n/a	n/a	0	0	0
2855.84	n/a	WORD	1427920	wordpools/wasnorm_wordpool_576.txt	LTP326	ltpFR2	1	11	TRENCH	1503	n/a	n/a	0	0	0
2858.474	n/a	WORD	1429237	wordpools/wasnorm_wordpool_576.txt	LTP326	ltpFR2	1	11	RABBIT	1152	n/a	n/a	0	0	0
2860.96	n/a	WORD	1430480	wordpools/wasnorm_wordpool_576.txt	LTP326	ltpFR2	1	11	LIGHTNING	820	n/a	n/a	0	0	0
2863.712	n/a	WORD	1431856	wordpools/wasnorm_wordpool_576.txt	LTP326	ltpFR2	1	11	MUMMY	932	n/a	n/a	0	0	0
2866.352	n/a	WORD	1433176	wordpools/wasnorm_wordpool_576.txt	LTP326	ltpFR2	1	11	PERMIT	1051	n/a	n/a	0	0	0
2867.966	n/a	START	1433983	n/a	LTP326	ltpFR2	1	n/a	n/a	n/a	18	n/a	n/a	n/a	n/a
2868.876	n/a	DISTRACTOR	1434438	n/a	LTP326	ltpFR2	1	11	n/a	n/a	n/a	n/a	0	0	0
2868.884	n/a	PROB	1434442	n/a	LTP326	ltpFR2	1	n/a	n/a	n/a	18	17	6	2	9
2871.018	n/a	PROB	1435509	n/a	LTP326	ltpFR2	1	n/a	n/a	n/a	18	11	2	4	5
2872.736	n/a	PROB	1436368	n/a	LTP326	ltpFR2	1	n/a	n/a	n/a	18	11	3	2	6
2875.22	n/a	PROB	1437610	n/a	LTP326	ltpFR2	1	n/a	n/a	n/a	18	8	1	4	3
2877.674	n/a	PROB	1438837	n/a	LTP326	ltpFR2	1	n/a	n/a	n/a	18	16	3	6	7
2880.458	n/a	PROB	1440229	n/a	LTP326	ltpFR2	1	n/a	n/a	n/a	18	6	8	5	3
2884.21	n/a	PROB	1442105	n/a	LTP326	ltpFR2	1	n/a	n/a	n/a	18	20	8	5	7
2888.196	n/a	PROB	1444098	n/a	LTP326	ltpFR2	1	n/a	n/a	n/a	18	20	8	9	3
2890.714	n/a	STOP	1445357	n/a	LTP326	ltpFR2	1	n/a	n/a	n/a	18	n/a	n/a	n/a	n/a
2893.888	n/a	REC_START	1446944	n/a	LTP326	ltpFR2	1	11	n/a	n/a	n/a	n/a	0	0	0
2895.75	n/a	REC_WORD	1447875	wordpools/wasnorm_wordpool_576.txt	LTP326	ltpFR2	1	11	HORSE	719	n/a	n/a	0	0	0
2897.9	n/a	REC_WORD	1448950	wordpools/wasnorm_wordpool_576.txt	LTP326	ltpFR2	1	11	FARMER	553	n/a	n/a	0	0	0
2898.9	n/a	REC_WORD_VV	1449450	wordpools/wasnorm_wordpool_576.txt	LTP326	ltpFR2	1	11	<>	-1	n/a	n/a	0	0	0
2900.676	n/a	REC_WORD	1450338	wordpools/wasnorm_wordpool_576.txt	LTP326	ltpFR2	1	11	ROBIN	1199	n/a	n/a	0	0	0
2907.704	n/a	REC_WORD	1453852	wordpools/wasnorm_wordpool_576.txt	LTP326	ltpFR2	1	11	VENUS	1557	n/a	n/a	0	0	0
2910.898	n/a	REC_WORD	1455449	wordpools/wasnorm_wordpool_576.txt	LTP326	ltpFR2	1	11	MARS	873	n/a	n/a	0	0	0
2916.926	n/a	REC_WORD	1458463	wordpools/wasnorm_wordpool_576.txt	LTP326	ltpFR2	1	11	NURSE	963	n/a	n/a	0	0	0
2919.006	n/a	REC_WORD	1459503	wordpools/wasnorm_wordpool_576.txt	LTP326	ltpFR2	1	11	HAND	683	n/a	n/a	0	0	0
2921.044	n/a	REC_WORD	1460522	wordpools/wasnorm_wordpool_576.txt	LTP326	ltpFR2	1	11	STAMP	1370	n/a	n/a	0	0	0
2934.212	n/a	REC_WORD	1467106	wordpools/wasnorm_wordpool_576.txt	LTP326	ltpFR2	1	11	BOYFRIEND	162	n/a	n/a	0	0	0
2936.232	n/a	REC_WORD	1468116	wordpools/wasnorm_wordpool_576.txt	LTP326	ltpFR2	1	11	PARTNER	1017	n/a	n/a	0	0	0
2941.436	n/a	REC_WORD	1470718	wordpools/wasnorm_wordpool_576.txt	LTP326	ltpFR2	1	11	SPHINX	1349	n/a	n/a	0	0	0
2942.436	n/a	REC_WORD_VV	1471218	wordpools/wasnorm_wordpool_576.txt	LTP326	ltpFR2	1	11	<>	-1	n/a	n/a	0	0	0
2944.148	n/a	REC_WORD	1472074	wordpools/wasnorm_wordpool_576.txt	LTP326	ltpFR2	1	11	RABBIT	1152	n/a	n/a	0	0	0
2964.658	n/a	REC_WORD	1482329	wordpools/wasnorm_wordpool_576.txt	LTP326	ltpFR2	1	11	BISON	131	n/a	n/a	0	0	0
3043.52	n/a	DISTRACTOR	1521760	n/a	LTP326	ltpFR2	1	12	n/a	n/a	n/a	n/a	0	0	0
3043.52	n/a	START	1521760	n/a	LTP326	ltpFR2	1	n/a	n/a	n/a	19	n/a	n/a	n/a	n/a
3043.534	n/a	PROB	1521767	n/a	LTP326	ltpFR2	1	n/a	n/a	n/a	19	15	7	4	4
3045.888	n/a	PROB	1522944	n/a	LTP326	ltpFR2	1	n/a	n/a	n/a	19	11	3	3	5
3047.706	n/a	PROB	1523853	n/a	LTP326	ltpFR2	1	n/a	n/a	n/a	19	18	4	7	7
3049.556	n/a	PROB	1524778	n/a	LTP326	ltpFR2	1	n/a	n/a	n/a	19	18	5	7	6
3052.358	n/a	PROB	1526179	n/a	LTP326	ltpFR2	1	n/a	n/a	n/a	19	15	5	6	4
3053.994	n/a	PROB	1526997	n/a	LTP326	ltpFR2	1	n/a	n/a	n/a	19	11	1	4	6
3055.68	n/a	PROB	1527840	n/a	LTP326	ltpFR2	1	n/a	n/a	n/a	19	14	3	2	9
3057.546	n/a	PROB	1528773	n/a	LTP326	ltpFR2	1	n/a	n/a	n/a	19	13	5	1	7
3059.53	n/a	PROB	1529765	n/a	LTP326	ltpFR2	1	n/a	n/a	n/a	19	17	3	9	5
3061.482	n/a	PROB	1530741	n/a	LTP326	ltpFR2	1	n/a	n/a	n/a	19	21	9	6	8
3064.284	n/a	PROB	1532142	n/a	LTP326	ltpFR2	1	n/a	n/a	n/a	19	18	8	8	2
3066.212	n/a	STOP	1533106	n/a	LTP326	ltpFR2	1	n/a	n/a	n/a	19	n/a	n/a	n/a	n/a
3068.672	n/a	WORD	1534336	wordpools/wasnorm_wordpool_576.txt	LTP326	ltpFR2	1	12	TREAT	1501	n/a	n/a	0	0	0
3071.49	n/a	WORD	1535745	wordpools/wasnorm_wordpool_576.txt	LTP326	ltpFR2	1	12	LACE	792	n/a	n/a	0	0	0
3074.126	n/a	WORD	1537063	wordpools/wasnorm_wordpool_576.txt	LTP326	ltpFR2	1	12	BEAKER	104	n/a	n/a	0	0	0
3076.562	n/a	WORD	1538281	wordpools/wasnorm_wordpool_576.txt	LTP326	ltpFR2	1	12	TROUT	1511	n/a	n/a	0	0	0
3079.046	n/a	WORD	1539523	wordpools/wasnorm_wordpool_576.txt	LTP326	ltpFR2	1	12	ROBBER	1197	n/a	n/a	0	0	0
3081.818	n/a	WORD	1540909	wordpools/wasnorm_wordpool_576.txt	LTP326	ltpFR2	1	12	WASP	1593	n/a	n/a	0	0	0
3084.4	n/a	WORD	1542200	wordpools/wasnorm_wordpool_576.txt	LTP326	ltpFR2	1	12	LUGGAGE	847	n/a	n/a	0	0	0
3086.87	n/a	WORD	1543435	wordpools/wasnorm_wordpool_576.txt	LTP326	ltpFR2	1	12	EYELASH	546	n/a	n/a	0	0	0
3089.488	n/a	WORD	1544744	wordpools/wasnorm_wordpool_576.txt	LTP326	ltpFR2	1	12	LIPSTICK	829	n/a	n/a	0	0	0
3092.174	n/a	WORD	1546087	wordpools/wasnorm_wordpool_576.txt	LTP326	ltpFR2	1	12	SPOUSE	1358	n/a	n/a	0	0	0
3094.81	n/a	WORD	1547405	wordpools/wasnorm_wordpool_576.txt	LTP326	ltpFR2	1	12	HUSBAND	728	n/a	n/a	0	0	0
3097.348	n/a	WORD	1548674	wordpools/wasnorm_wordpool_576.txt	LTP326	ltpFR2	1	12	SNACK	1331	n/a	n/a	0	0	0
3099.968	n/a	WORD	1549984	wordpools/wasnorm_wordpool_576.txt	LTP326	ltpFR2	1	12	RAZOR	1171	n/a	n/a	0	0	0
3102.482	n/a	WORD	1551241	wordpools/wasnorm_wordpool_576.txt	LTP326	ltpFR2	1	12	SKIRT	1319	n/a	n/a	0	0	0
3104.984	n/a	WORD	1552492	wordpools/wasnorm_wordpool_576.txt	LTP326	ltpFR2	1	12	CLIMBER	323	n/a	n/a	0	0	0
3107.552	n/a	WORD	1553776	wordpools/wasnorm_wordpool_576.txt	LTP326	ltpFR2	1	12	MASK	876	n/a	n/a	0	0	0
3110.22	n/a	WORD	1555110	wordpools/wasnorm_wordpool_576.txt	LTP326	ltpFR2	1	12	RIVER	1194	n/a	n/a	0	0	0
3112.862	n/a	WORD	1556431	wordpools/wasnorm_wordpool_576.txt	LTP326	ltpFR2	1	12	CAFE	216	n/a	n/a	0	0	0
3115.526	n/a	WORD	1557763	wordpools/wasnorm_wordpool_576.txt	LTP326	ltpFR2	1	12	BELLY	119	n/a	n/a	0	0	0
3118.176	n/a	WORD	1559088	wordpools/wasnorm_wordpool_576.txt	LTP326	ltpFR2	1	12	BUGGY	188	n/a	n/a	0	0	0
3120.73	n/a	WORD	1560365	wordpools/wasnorm_wordpool_576.txt	LTP326	ltpFR2	1	12	BIKE	125	n/a	n/a	0	0	0
3123.48	n/a	WORD	1561740	wordpools/wasnorm_wordpool_576.txt	LTP326	ltpFR2	1	12	SLUG	1329	n/a	n/a	0	0	0
3126.05	n/a	WORD	1563025	wordpools/wasnorm_wordpool_576.txt	LTP326	ltpFR2	1	12	TERMITE	1451	n/a	n/a	0	0	0
3128.742	n/a	WORD	1564371	wordpools/wasnorm_wordpool_576.txt	LTP326	ltpFR2	1	12	SWITCH	1422	n/a	n/a	0	0	0
3130.354	n/a	START	1565177	n/a	LTP326	ltpFR2	1	n/a	n/a	n/a	20	n/a	n/a	n/a	n/a
3131.488	n/a	DISTRACTOR	1565744	n/a	LTP326	ltpFR2	1	12	n/a	n/a	n/a	n/a	0	0	0
3131.494	n/a	PROB	1565747	n/a	LTP326	ltpFR2	1	n/a	n/a	n/a	20	16	9	2	5
3133.572	n/a	PROB	1566786	n/a	LTP326	ltpFR2	1	n/a	n/a	n/a	20	18	5	4	9
3135.506	n/a	PROB	1567753	n/a	LTP326	ltpFR2	1	n/a	n/a	n/a	20	13	4	3	6
3137.81	n/a	PROB	1568905	n/a	LTP326	ltpFR2	1	n/a	n/a	n/a	20	11	5	4	2
3139.66	n/a	PROB	1569830	n/a	LTP326	ltpFR2	1	n/a	n/a	n/a	20	7	5	1	1
3141.212	n/a	PROB	1570606	n/a	LTP326	ltpFR2	1	n/a	n/a	n/a	20	15	5	9	2
3143.53	n/a	PROB	1571765	n/a	LTP326	ltpFR2	1	n/a	n/a	n/a	20	12	5	5	2
3145.818	n/a	PROB	1572909	n/a	LTP326	ltpFR2	1	n/a	n/a	n/a	20	3	1	1	1
3147.8	n/a	PROB	1573900	n/a	LTP326	ltpFR2	1	n/a	n/a	n/a	20	12	4	3	5
3149.484	n/a	PROB	1574742	n/a	LTP326	ltpFR2	1	n/a	n/a	n/a	20	9	1	5	3
3151.92	n/a	PROB	1575960	n/a	LTP326	ltpFR2	1	n/a	n/a	n/a	20	4	1	2	1
3153.228	n/a	STOP	1576614	n/a	LTP326	ltpFR2	1	n/a	n/a	n/a	20	n/a	n/a	n/a	n/a
3156.19	n/a	REC_START	1578095	n/a	LTP326	ltpFR2	1	12	n/a	n/a	n/a	n/a	0	0	0
3158.174	n/a	REC_WORD	1579087	wordpools/wasnorm_wordpool_576.txt	LTP326	ltpFR2	1	12	LUGGAGE	847	n/a	n/a	0	0	0
3162.406	n/a	REC_WORD	1581203	wordpools/wasnorm_wordpool_576.txt	LTP326	ltpFR2	1	12	CLIMBER	323	n/a	n/a	0	0	0
3167.216	n/a	REC_WORD	1583608	wordpools/wasnorm_wordpool_576.txt	LTP326	ltpFR2	1	12	CAFE	216	n/a	n/a	0	0	0
3170.896	n/a	REC_WORD	1585448	wordpools/wasnorm_wordpool_576.txt	LTP326	ltpFR2	1	12	BUGGY	188	n/a	n/a	0	0	0
3173.32	n/a	REC_WORD	1586660	wordpools/wasnorm_wordpool_576.txt	LTP326	ltpFR2	1	12	BIKE	125	n/a	n/a	0	0	0
3175.284	n/a	REC_WORD	1587642	wordpools/wasnorm_wordpool_576.txt	LTP326	ltpFR2	1	12	SLUG	1329	n/a	n/a	0	0	0
3176.284	n/a	REC_WORD_VV	1588142	wordpools/wasnorm_wordpool_576.txt	LTP326	ltpFR2	1	12	<>	-1	n/a	n/a	0	0	0
3178.44	n/a	REC_WORD	1589220	wordpools/wasnorm_wordpool_576.txt	LTP326	ltpFR2	1	12	MASK	876	n/a	n/a	0	0	0
3219.356	n/a	REC_WORD	1609678	wordpools/wasnorm_wordpool_576.txt	LTP326	ltpFR2	1	12	CHEMIST	292	n/a	n/a	0	0	0
3246.628	n/a	WORD	1623314	wordpools/wasnorm_wordpool_576.txt	LTP326	ltpFR2	1	13	RATTLE	1170	n/a	n/a	0	0	0
3249.16	n/a	WORD	1624580	wordpools/wasnorm_wordpool_576.txt	LTP326	ltpFR2	1	13	CLOTHES	327	n/a	n/a	0	0	0
3251.596	n/a	WORD	1625798	wordpools/wasnorm_wordpool_576.txt	LTP326	ltpFR2	1	13	SHORTS	1293	n/a	n/a	0	0	0
3254.13	n/a	WORD	1627065	wordpools/wasnorm_wordpool_576.txt	LTP326	ltpFR2	1	13	WAITER	1580	n/a	n/a	0	0	0
3256.55	n/a	WORD	1628275	wordpools/wasnorm_wordpool_576.txt	LTP326	ltpFR2	1	13	FOREHEAD	592	n/a	n/a	0	0	0
3259.334	n/a	WORD	1629667	wordpools/wasnorm_wordpool_576.txt	LTP326	ltpFR2	1	13	HONEY	713	n/a	n/a	0	0	0
3262.006	n/a	WORD	1631003	wordpools/wasnorm_wordpool_576.txt	LTP326	ltpFR2	1	13	SPIDER	1351	n/a	n/a	0	0	0
3264.558	n/a	WORD	1632279	wordpools/wasnorm_wordpool_576.txt	LTP326	ltpFR2	1	13	PACKAGE	997	n/a	n/a	0	0	0
3267.21	n/a	WORD	1633605	wordpools/wasnorm_wordpool_576.txt	LTP326	ltpFR2	1	13	CROSS	413	n/a	n/a	0	0	0
3269.662	n/a	WORD	1634831	wordpools/wasnorm_wordpool_576.txt	LTP326	ltpFR2	1	13	SHORTCAKE	1292	n/a	n/a	0	0	0
3272.298	n/a	WORD	1636149	wordpools/wasnorm_wordpool_576.txt	LTP326	ltpFR2	1	13	SNAKE	1333	n/a	n/a	0	0	0
3274.866	n/a	WORD	1637433	wordpools/wasnorm_wordpool_576.txt	LTP326	ltpFR2	1	13	BLACKBOARD	133	n/a	n/a	0	0	0
3277.45	n/a	WORD	1638725	wordpools/wasnorm_wordpool_576.txt	LTP326	ltpFR2	1	13	CRAB	397	n/a	n/a	0	0	0
3279.97	n/a	WORD	1639985	wordpools/wasnorm_wordpool_576.txt	LTP326	ltpFR2	1	13	SALMON	1227	n/a	n/a	0	0	0
3282.52	n/a	WORD	1641260	wordpools/wasnorm_wordpool_576.txt	LTP326	ltpFR2	1	13	LADY	794	n/a	n/a	0	0	0
3285.172	n/a	WORD	1642586	wordpools/wasnorm_wordpool_576.txt	LTP326	ltpFR2	1	13	FOOT	590	n/a	n/a	0	0	0
3287.91	n/a	WORD	1643955	wordpools/wasnorm_wordpool_576.txt	LTP326	ltpFR2	1	13	PATROL	1027	n/a	n/a	0	0	0
3290.662	n/a	WORD	1645331	wordpools/wasnorm_wordpool_576.txt	LTP326	ltpFR2	1	13	SALT	1229	n/a	n/a	0	0	0
3293.13	n/a	WORD	1646565	wordpools/wasnorm_wordpool_576.txt	LTP326	ltpFR2	1	13	WARDROBE	1587	n/a	n/a	0	0	0
3295.7	n/a	WORD	1647850	wordpools/wasnorm_wordpool_576.txt	LTP326	ltpFR2	1	13	WASHER	1592	n/a	n/a	0	0	0
3298.3	n/a	WORD	1649150	wordpools/wasnorm_wordpool_576.txt	LTP326	ltpFR2	1	13	DORM	488	n/a	n/a	0	0	0
3300.87	n/a	WORD	1650435	wordpools/wasnorm_wordpool_576.txt	LTP326	ltpFR2	1	13	PASTRY	1022	n/a	n/a	0	0	0
3303.472	n/a	WORD	1651736	wordpools/wasnorm_wordpool_576.txt	LTP326	ltpFR2	1	13	BEAVER	109	n/a	n/a	0	0	0
3306.29	n/a	WORD	1653145	wordpools/wasnorm_wordpool_576.txt	LTP326	ltpFR2	1	13	HOOD	714	n/a	n/a	0	0	0
3307.896	n/a	START	1653948	n/a	LTP326	ltpFR2	1	n/a	n/a	n/a	21	n/a	n/a	n/a	n/a
3308.878	n/a	DISTRACTOR	1654439	n/a	LTP326	ltpFR2	1	13	n/a	n/a	n/a	n/a	0	0	0
3308.892	n/a	PROB	1654446	n/a	LTP326	ltpFR2	1	n/a	n/a	n/a	21	12	6	4	2
3310.494	n/a	PROB	1655247	n/a	LTP326	ltpFR2	1	n/a	n/a	n/a	21	9	1	2	6
3312.076	n/a	PROB	1656038	n/a	LTP326	ltpFR2	1	n/a	n/a	n/a	21	12	7	3	2
3313.262	n/a	PROB	1656631	n/a	LTP326	ltpFR2	1	n/a	n/a	n/a	21	1	3	6	3
3316.43	n/a	PROB	1658215	n/a	LTP326	ltpFR2	1	n/a	n/a	n/a	21	18	8	3	7
3319.264	n/a	PROB	1659632	n/a	LTP326	ltpFR2	1	n/a	n/a	n/a	21	14	1	9	4
3320.62	n/a	PROB	1660310	n/a	LTP326	ltpFR2	1	n/a	n/a	n/a	21	10	2	1	7
3322.118	n/a	PROB	1661059	n/a	LTP326	ltpFR2	1	n/a	n/a	n/a	21	21	4	9	9
3324.888	n/a	PROB	1662444	n/a	LTP326	ltpFR2	1	n/a	n/a	n/a	21	23	7	9	7
3331.894	n/a	STOP	1665947	n/a	LTP326	ltpFR2	1	n/a	n/a	n/a	21	n/a	n/a	n/a	n/a
3333.678	n/a	REC_START	1666839	n/a	LTP326	ltpFR2	1	13	n/a	n/a	n/a	n/a	0	0	0
3335.242	n/a	REC_WORD	1667621	wordpools/wasnorm_wordpool_576.txt	LTP326	ltpFR2	1	13	HOOD	714	n/a	n/a	0	0	0
3339.886	n/a	REC_WORD	1669943	wordpools/wasnorm_wordpool_576.txt	LTP326	ltpFR2	1	13	WAITER	1580	n/a	n/a	0	0	0
3342.59	n/a	REC_WORD	1671295	wordpools/wasnorm_wordpool_576.txt	LTP326	ltpFR2	1	13	LADY	794	n/a	n/a	0	0	0
3344.696	n/a	REC_WORD	1672348	wordpools/wasnorm_wordpool_576.txt	LTP326	ltpFR2	1	13	CRAB	397	n/a	n/a	0	0	0
3346.54	n/a	REC_WORD	1673270	wordpools/wasnorm_wordpool_576.txt	LTP326	ltpFR2	1	13	SALMON	1227	n/a	n/a	0	0	0
3349.376	n/a	REC_WORD	1674688	wordpools/wasnorm_wordpool_576.txt	LTP326	ltpFR2	1	13	CLOTHES	327	n/a	n/a	0	0	0
3351.824	n/a	REC_WORD	1675912	wordpools/wasnorm_wordpool_576.txt	LTP326	ltpFR2	1	13	SHORTS	1293	n/a	n/a	0	0	0
3354.042	n/a	REC_WORD	1677021	wordpools/wasnorm_wordpool_576.txt	LTP326	ltpFR2	1	13	WARDROBE	1587	n/a	n/a	0	0	0
3355.042	n/a	REC_WORD_VV	1677521	wordpools/wasnorm_wordpool_576.txt	LTP326	ltpFR2	1	13	<>	-1	n/a	n/a	0	0	0
3356.454	n/a	REC_WORD	1678227	wordpools/wasnorm_wordpool_576.txt	LTP326	ltpFR2	1	13	FOOT	590	n/a	n/a	0	0	0
3362.522	n/a	REC_WORD	1681261	wordpools/wasnorm_wordpool_576.txt	LTP326	ltpFR2	1	13	RATTLE	1170	n/a	n/a	0	0	0
3364.612	n/a	REC_WORD	1682306	wordpools/wasnorm_wordpool_576.txt	LTP326	ltpFR2	1	13	SNAKE	1333	n/a	n/a	0	0	0
3367.588	n/a	REC_WORD	1683794	wordpools/wasnorm_wordpool_576.txt	LTP326	ltpFR2	1	13	FOREHEAD	592	n/a	n/a	0	0	0
3376.544	n/a	REC_WORD	1688272	wordpools/wasnorm_wordpool_576.txt	LTP326	ltpFR2	1	13	SPOUSE	1358	n/a	n/a	0	0	0
3377.544	n/a	REC_WORD_VV	1688772	wordpools/wasnorm_wordpool_576.txt	LTP326	ltpFR2	1	13	<>	-1	n/a	n/a	0	0	0
3389.008	n/a	REC_WORD	1694504	wordpools/wasnorm_wordpool_576.txt	LTP326	ltpFR2	1	13	PASTRY	1022	n/a	n/a	0	0	0
3391.478	n/a	REC_WORD	1695739	wordpools/wasnorm_wordpool_576.txt	LTP326	ltpFR2	1	13	BEAVER	109	n/a	n/a	0	0	0
3424.124	n/a	WORD	1712062	wordpools/wasnorm_wordpool_576.txt	LTP326	ltpFR2	1	14	ROOSTER	1209	n/a	n/a	0	0	0
3426.578	n/a	WORD	1713289	wordpools/wasnorm_wordpool_576.txt	LTP326	ltpFR2	1	14	INMATE	738	n/a	n/a	0	0	0
3429.062	n/a	WORD	1714531	wordpools/wasnorm_wordpool_576.txt	LTP326	ltpFR2	1	14	EAGLE	512	n/a	n/a	0	0	0
3431.582	n/a	WORD	1715791	wordpools/wasnorm_wordpool_576.txt	LTP326	ltpFR2	1	14	PLAYGROUND	1087	n/a	n/a	0	0	0
3434.034	n/a	WORD	1717017	wordpools/wasnorm_wordpool_576.txt	LTP326	ltpFR2	1	14	HOOK	715	n/a	n/a	0	0	0
3436.542	n/a	WORD	1718271	wordpools/wasnorm_wordpool_576.txt	LTP326	ltpFR2	1	14	FRAME	600	n/a	n/a	0	0	0
3439.254	n/a	WORD	1719627	wordpools/wasnorm_wordpool_576.txt	LTP326	ltpFR2	1	14	LUNCH	849	n/a	n/a	0	0	0
3441.706	n/a	WORD	1720853	wordpools/wasnorm_wordpool_576.txt	LTP326	ltpFR2	1	14	KITCHEN	778	n/a	n/a	0	0	0
3444.408	n/a	WORD	1722204	wordpools/wasnorm_wordpool_576.txt	LTP326	ltpFR2	1	14	PIGEON	1065	n/a	n/a	0	0	0
3446.866	n/a	WORD	1723433	wordpools/wasnorm_wordpool_576.txt	LTP326	ltpFR2	1	14	EXPERT	543	n/a	n/a	0	0	0
3449.468	n/a	WORD	1724734	wordpools/wasnorm_wordpool_576.txt	LTP326	ltpFR2	1	14	TAXI	1438	n/a	n/a	0	0	0
3451.92	n/a	WORD	1725960	wordpools/wasnorm_wordpool_576.txt	LTP326	ltpFR2	1	14	GHETTO	633	n/a	n/a	0	0	0
3454.534	n/a	WORD	1727267	wordpools/wasnorm_wordpool_576.txt	LTP326	ltpFR2	1	14	CRITIC	410	n/a	n/a	0	0	0
3457.036	n/a	WORD	1728518	wordpools/wasnorm_wordpool_576.txt	LTP326	ltpFR2	1	14	ACTOR	5	n/a	n/a	0	0	0
3459.61	n/a	WORD	1729805	wordpools/wasnorm_wordpool_576.txt	LTP326	ltpFR2	1	14	PISTON	1076	n/a	n/a	0	0	0
3462.108	n/a	WORD	1731054	wordpools/wasnorm_wordpool_576.txt	LTP326	ltpFR2	1	14	WRENCH	1625	n/a	n/a	0	0	0
3464.844	n/a	WORD	1732422	wordpools/wasnorm_wordpool_576.txt	LTP326	ltpFR2	1	14	SLIDE	1326	n/a	n/a	0	0	0
3467.262	n/a	WORD	1733631	wordpools/wasnorm_wordpool_576.txt	LTP326	ltpFR2	1	14	OUTLAW	989	n/a	n/a	0	0	0
3469.782	n/a	WORD	1734891	wordpools/wasnorm_wordpool_576.txt	LTP326	ltpFR2	1	14	ROD	1203	n/a	n/a	0	0	0
3472.382	n/a	WORD	1736191	wordpools/wasnorm_wordpool_576.txt	LTP326	ltpFR2	1	14	PICTURE	1061	n/a	n/a	0	0	0
3474.936	n/a	WORD	1737468	wordpools/wasnorm_wordpool_576.txt	LTP326	ltpFR2	1	14	PORTRAIT	1111	n/a	n/a	0	0	0
3477.738	n/a	WORD	1738869	wordpools/wasnorm_wordpool_576.txt	LTP326	ltpFR2	1	14	MEDAL	885	n/a	n/a	0	0	0
3480.272	n/a	WORD	1740136	wordpools/wasnorm_wordpool_576.txt	LTP326	ltpFR2	1	14	CLOCK	325	n/a	n/a	0	0	0
3482.694	n/a	WORD	1741347	wordpools/wasnorm_wordpool_576.txt	LTP326	ltpFR2	1	14	SUITCASE	1403	n/a	n/a	0	0	0
3484.31	n/a	START	1742155	n/a	LTP326	ltpFR2	1	n/a	n/a	n/a	22	n/a	n/a	n/a	n/a
3485.32	n/a	DISTRACTOR	1742660	n/a	LTP326	ltpFR2	1	14	n/a	n/a	n/a	n/a	0	0	0
3485.326	n/a	PROB	1742663	n/a	LTP326	ltpFR2	1	n/a	n/a	n/a	22	11	3	6	2
3487.444	n/a	PROB	1743722	n/a	LTP326	ltpFR2	1	n/a	n/a	n/a	22	20	9	8	3
3489.296	n/a	PROB	1744648	n/a	LTP326	ltpFR2	1	n/a	n/a	n/a	22	6	2	2	2
3490.93	n/a	PROB	1745465	n/a	LTP326	ltpFR2	1	n/a	n/a	n/a	22	20	7	4	9
3492.934	n/a	PROB	1746467	n/a	LTP326	ltpFR2	1	n/a	n/a	n/a	22	15	7	1	7
3494.736	n/a	PROB	1747368	n/a	LTP326	ltpFR2	1	n/a	n/a	n/a	22	14	9	2	3
3496.486	n/a	PROB	1748243	n/a	LTP326	ltpFR2	1	n/a	n/a	n/a	22	1	8	3	8
3499.258	n/a	PROB	1749629	n/a	LTP326	ltpFR2	1	n/a	n/a	n/a	22	18	9	6	3
3502.226	n/a	PROB	1751113	n/a	LTP326	ltpFR2	1	n/a	n/a	n/a	22	14	4	5	5
3504.73	n/a	PROB	1752365	n/a	LTP326	ltpFR2	1	n/a	n/a	n/a	22	17	9	5	3
3508.31	n/a	STOP	1754155	n/a	LTP326	ltpFR2	1	n/a	n/a	n/a	22	n/a	n/a	n/a	n/a
3510.134	n/a	REC_START	1755067	n/a	LTP326	ltpFR2	1	14	n/a	n/a	n/a	n/a	0	0	0
3512.094	n/a	REC_WORD	1756047	wordpools/wasnorm_wordpool_576.txt	LTP326	ltpFR2	1	14	INMATE	738	n/a	n/a	0	0	0
3514.342	n/a	REC_WORD	1757171	wordpools/wasnorm_wordpool_576.txt	LTP326	ltpFR2	1	14	PLAYGROUND	1087	n/a	n/a	0	0	0
3515.342	n/a	REC_WORD_VV	1757671	wordpools/wasnorm_wordpool_576.txt	LTP326	ltpFR2	1	14	<>	-1	n/a	n/a	0	0	0
3516.656	n/a	REC_WORD	1758328	wordpools/wasnorm_wordpool_576.txt	LTP326	ltpFR2	1	14	ROOSTER	1209	n/a	n/a	0	0	0
3520.072	n/a	REC_WORD	1760036	wordpools/wasnorm_wordpool_576.txt	LTP326	ltpFR2	1	14	EAGLE	512	n/a	n/a	0	0	0
3525.198	n/a	REC_WORD	1762599	wordpools/wasnorm_wordpool_576.txt	LTP326	ltpFR2	1	14	SLIDE	1326	n/a	n/a	0	0	0
3534.694	n/a	REC_WORD	1767347	wordpools/wasnorm_wordpool_576.txt	LTP326	ltpFR2	1	14	ACTRESS	6	n/a	n/a	0	0	0
3536.704	n/a	REC_WORD	1768352	wordpools/wasnorm_wordpool_576.txt	LTP326	ltpFR2	1	14	CRITIC	410	n/a	n/a	0	0	0
3539.236	n/a	REC_WORD	1769618	wordpools/wasnorm_wordpool_576.txt	LTP326	ltpFR2	1	14	BRIEFCASE	175	n/a	n/a	0	0	0
3540.236	n/a	REC_WORD_VV	1770118	wordpools/wasnorm_wordpool_576.txt	LTP326	ltpFR2	1	14	<>	-1	n/a	n/a	0	0	0
3548.872	n/a	REC_WORD	1774436	wordpools/wasnorm_wordpool_576.txt	LTP326	ltpFR2	1	14	LUNCH	849	n/a	n/a	0	0	0
3550.872	n/a	REC_WORD	1775436	wordpools/wasnorm_wordpool_576.txt	LTP326	ltpFR2	1	14	KITCHEN	778	n/a	n/a	0	0	0
3567.89	n/a	REC_WORD	1783945	wordpools/wasnorm_wordpool_576.txt	LTP326	ltpFR2	1	14	OUTLAW	989	n/a	n/a	0	0	0
3573.072	n/a	REC_WORD	1786536	wordpools/wasnorm_wordpool_576.txt	LTP326	ltpFR2	1	14	MEDAL	885	n/a	n/a	0	0	0
3576.632	n/a	REC_WORD	1788316	wordpools/wasnorm_wordpool_576.txt	LTP326	ltpFR2	1	14	PISTON	1076	n/a	n/a	0	0	0
3579.192	n/a	REC_WORD	1789596	wordpools/wasnorm_wordpool_576.txt	LTP326	ltpFR2	1	14	WRENCH	1625	n/a	n/a	0	0	0
3600.57	n/a	WORD	1800285	wordpools/wasnorm_wordpool_576.txt	LTP326	ltpFR2	1	15	MARKET	871	n/a	n/a	0	0	0
3603.306	n/a	WORD	1801653	wordpools/wasnorm_wordpool_576.txt	LTP326	ltpFR2	1	15	GALLON	618	n/a	n/a	0	0	0
3605.842	n/a	WORD	1802921	wordpools/wasnorm_wordpool_576.txt	LTP326	ltpFR2	1	15	DIVER	476	n/a	n/a	0	0	0
3608.642	n/a	WORD	1804321	wordpools/wasnorm_wordpool_576.txt	LTP326	ltpFR2	1	15	FLEET	578	n/a	n/a	0	0	0
3611.444	n/a	WORD	1805722	wordpools/wasnorm_wordpool_576.txt	LTP326	ltpFR2	1	15	PENGUIN	1044	n/a	n/a	0	0	0
3614.078	n/a	WORD	1807039	wordpools/wasnorm_wordpool_576.txt	LTP326	ltpFR2	1	15	SANDWICH	1232	n/a	n/a	0	0	0
3616.698	n/a	WORD	1808349	wordpools/wasnorm_wordpool_576.txt	LTP326	ltpFR2	1	15	DINER	467	n/a	n/a	0	0	0
3619.506	n/a	WORD	1809753	wordpools/wasnorm_wordpool_576.txt	LTP326	ltpFR2	1	15	MACHINE	852	n/a	n/a	0	0	0
3622.036	n/a	WORD	1811018	wordpools/wasnorm_wordpool_576.txt	LTP326	ltpFR2	1	15	PREACHER	1119	n/a	n/a	0	0	0
3624.696	n/a	WORD	1812348	wordpools/wasnorm_wordpool_576.txt	LTP326	ltpFR2	1	15	SODA	1341	n/a	n/a	0	0	0
3627.38	n/a	WORD	1813690	wordpools/wasnorm_wordpool_576.txt	LTP326	ltpFR2	1	15	MISTER	901	n/a	n/a	0	0	0
3630.042	n/a	WORD	1815021	wordpools/wasnorm_wordpool_576.txt	LTP326	ltpFR2	1	15	DRILL	497	n/a	n/a	0	0	0
3632.712	n/a	WORD	1816356	wordpools/wasnorm_wordpool_576.txt	LTP326	ltpFR2	1	15	WRIST	1626	n/a	n/a	0	0	0
3635.488	n/a	WORD	1817744	wordpools/wasnorm_wordpool_576.txt	LTP326	ltpFR2	1	15	LABEL	790	n/a	n/a	0	0	0
3638.116	n/a	WORD	1819058	wordpools/wasnorm_wordpool_576.txt	LTP326	ltpFR2	1	15	POSSUM	1112	n/a	n/a	0	0	0
3640.602	n/a	WORD	1820301	wordpools/wasnorm_wordpool_576.txt	LTP326	ltpFR2	1	15	BEEF	113	n/a	n/a	0	0	0
3643.11	n/a	WORD	1821555	wordpools/wasnorm_wordpool_576.txt	LTP326	ltpFR2	1	15	FEMALE	559	n/a	n/a	0	0	0
3645.848	n/a	WORD	1822924	wordpools/wasnorm_wordpool_576.txt	LTP326	ltpFR2	1	15	FIREPLACE	570	n/a	n/a	0	0	0
3648.424	n/a	WORD	1824212	wordpools/wasnorm_wordpool_576.txt	LTP326	ltpFR2	1	15	DRAGON	492	n/a	n/a	0	0	0
3651.234	n/a	WORD	1825617	wordpools/wasnorm_wordpool_576.txt	LTP326	ltpFR2	1	15	COCKTAIL	338	n/a	n/a	0	0	0
3653.838	n/a	WORD	1826919	wordpools/wasnorm_wordpool_576.txt	LTP326	ltpFR2	1	15	FIREMAN	569	n/a	n/a	0	0	0
3656.438	n/a	WORD	1828219	wordpools/wasnorm_wordpool_576.txt	LTP326	ltpFR2	1	15	SEAGULL	1261	n/a	n/a	0	0	0
3659.048	n/a	WORD	1829524	wordpools/wasnorm_wordpool_576.txt	LTP326	ltpFR2	1	15	MESSAGE	888	n/a	n/a	0	0	0
3661.86	n/a	WORD	1830930	wordpools/wasnorm_wordpool_576.txt	LTP326	ltpFR2	1	15	PLAZA	1088	n/a	n/a	0	0	0
3663.468	n/a	START	1831734	n/a	LTP326	ltpFR2	1	n/a	n/a	n/a	23	n/a	n/a	n/a	n/a
3664.284	n/a	DISTRACTOR	1832142	n/a	LTP326	ltpFR2	1	15	n/a	n/a	n/a	n/a	0	0	0
3664.294	n/a	PROB	1832147	n/a	LTP326	ltpFR2	1	n/a	n/a	n/a	23	13	4	5	4
3666.452	n/a	PROB	1833226	n/a	LTP326	ltpFR2	1	n/a	n/a	n/a	23	11	1	9	1
3668.538	n/a	PROB	1834269	n/a	LTP326	ltpFR2	1	n/a	n/a	n/a	23	15	1	6	9
3670.388	n/a	PROB	1835194	n/a	LTP326	ltpFR2	1	n/a	n/a	n/a	23	15	2	9	6
3673.36	n/a	PROB	1836680	n/a	LTP326	ltpFR2	1	n/a	n/a	n/a	23	15	2	5	8
3677.094	n/a	PROB	1838547	n/a	LTP326	ltpFR2	1	n/a	n/a	n/a	23	17	9	3	5
3678.998	n/a	PROB	1839499	n/a	LTP326	ltpFR2	1	n/a	n/a	n/a	23	20	4	7	9
3682.084	n/a	PROB	1841042	n/a	LTP326	ltpFR2	1	n/a	n/a	n/a	23	19	9	1	9
3687.468	n/a	STOP	1843734	n/a	LTP326	ltpFR2	1	n/a	n/a	n/a	23	n/a	n/a	n/a	n/a
3689.304	n/a	REC_START	1844652	n/a	LTP326	ltpFR2	1	15	n/a	n/a	n/a	n/a	0	0	0
3690.614	n/a	REC_WORD	1845307	wordpools/wasnorm_wordpool_576.txt	LTP326	ltpFR2	1	15	MARKET	871	n/a	n/a	0	0	0
3692.574	n/a	REC_WORD	1846287	wordpools/wasnorm_wordpool_576.txt	LTP326	ltpFR2	1	15	PLAZA	1088	n/a	n/a	0	0	0
3697.858	n/a	REC_WORD	1848929	wordpools/wasnorm_wordpool_576.txt	LTP326	ltpFR2	1	15	DINER	467	n/a	n/a	0	0	0
3699.812	n/a	REC_WORD	1849906	wordpools/wasnorm_wordpool_576.txt	LTP326	ltpFR2	1	15	MACHINE	852	n/a	n/a	0	0	0
3702.4	n/a	REC_WORD	1851200	wordpools/wasnorm_wordpool_576.txt	LTP326	ltpFR2	1	15	PREACHER	1119	n/a	n/a	0	0	0
3704.654	n/a	REC_WORD	1852327	wordpools/wasnorm_wordpool_576.txt	LTP326	ltpFR2	1	15	MISTER	901	n/a	n/a	0	0	0
3707.518	n/a	REC_WORD	1853759	wordpools/wasnorm_wordpool_576.txt	LTP326	ltpFR2	1	15	WRIST	1626	n/a	n/a	0	0	0
3712.32	n/a	REC_WORD	1856160	wordpools/wasnorm_wordpool_576.txt	LTP326	ltpFR2	1	15	BEEF	113	n/a	n/a	0	0	0
3717.472	n/a	REC_WORD	1858736	wordpools/wasnorm_wordpool_576.txt	LTP326	ltpFR2	1	15	WOMAN	1620	n/a	n/a	0	0	0
3728.842	n/a	REC_WORD	1864421	wordpools/wasnorm_wordpool_576.txt	LTP326	ltpFR2	1	15	FIREPLACE	570	n/a	n/a	0	0	0
3729.842	n/a	REC_WORD_VV	1864921	wordpools/wasnorm_wordpool_576.txt	LTP326	ltpFR2	1	15	<>	-1	n/a	n/a	0	0	0
3731.716	n/a	REC_WORD	1865858	wordpools/wasnorm_wordpool_576.txt	LTP326	ltpFR2	1	15	DRAGON	492	n/a	n/a	0	0	0
3734.54	n/a	REC_WORD	1867270	wordpools/wasnorm_wordpool_576.txt	LTP326	ltpFR2	1	15	FIREMAN	569	n/a	n/a	0	0	0
3735.54	n/a	REC_WORD_VV	1867770	wordpools/wasnorm_wordpool_576.txt	LTP326	ltpFR2	1	15	<>	-1	n/a	n/a	0	0	0
3737.272	n/a	REC_WORD	1868636	wordpools/wasnorm_wordpool_576.txt	LTP326	ltpFR2	1	15	GIRL	637	n/a	n/a	0	0	0
3757.264	n/a	REC_WORD	1878632	wordpools/wasnorm_wordpool_576.txt	LTP326	ltpFR2	1	15	GALLON	618	n/a	n/a	0	0	0
3758.942	n/a	REC_WORD	1879471	wordpools/wasnorm_wordpool_576.txt	LTP326	ltpFR2	1	15	DIVER	476	n/a	n/a	0	0	0
3828.03	n/a	WORD	1914015	wordpools/wasnorm_wordpool_576.txt	LTP326	ltpFR2	1	16	WITNESS	1618	n/a	n/a	0	0	0
3830.616	n/a	WORD	1915308	wordpools/wasnorm_wordpool_576.txt	LTP326	ltpFR2	1	16	JUNGLE	764	n/a	n/a	0	0	0
3833.084	n/a	WORD	1916542	wordpools/wasnorm_wordpool_576.txt	LTP326	ltpFR2	1	16	TEMPLE	1448	n/a	n/a	0	0	0
3835.754	n/a	WORD	1917877	wordpools/wasnorm_wordpool_576.txt	LTP326	ltpFR2	1	16	FRECKLE	602	n/a	n/a	0	0	0
3838.504	n/a	WORD	1919252	wordpools/wasnorm_wordpool_576.txt	LTP326	ltpFR2	1	16	BATHTUB	100	n/a	n/a	0	0	0
3841.056	n/a	WORD	1920528	wordpools/wasnorm_wordpool_576.txt	LTP326	ltpFR2	1	16	DRESSER	496	n/a	n/a	0	0	0
3843.594	n/a	WORD	1921797	wordpools/wasnorm_wordpool_576.txt	LTP326	ltpFR2	1	16	APRON	35	n/a	n/a	0	0	0
3846.21	n/a	WORD	1923105	wordpools/wasnorm_wordpool_576.txt	LTP326	ltpFR2	1	16	PALACE	1006	n/a	n/a	0	0	0
3848.896	n/a	WORD	1924448	wordpools/wasnorm_wordpool_576.txt	LTP326	ltpFR2	1	16	PRINCE	1124	n/a	n/a	0	0	0
3851.7	n/a	WORD	1925850	wordpools/wasnorm_wordpool_576.txt	LTP326	ltpFR2	1	16	LIZARD	834	n/a	n/a	0	0	0
3854.258	n/a	WORD	1927129	wordpools/wasnorm_wordpool_576.txt	LTP326	ltpFR2	1	16	NAPKIN	937	n/a	n/a	0	0	0
3857.026	n/a	WORD	1928513	wordpools/wasnorm_wordpool_576.txt	LTP326	ltpFR2	1	16	BRACES	164	n/a	n/a	0	0	0
3859.66	n/a	WORD	1929830	wordpools/wasnorm_wordpool_576.txt	LTP326	ltpFR2	1	16	CANAL	226	n/a	n/a	0	0	0
3862.29	n/a	WORD	1931145	wordpools/wasnorm_wordpool_576.txt	LTP326	ltpFR2	1	16	BASEMENT	94	n/a	n/a	0	0	0
3864.876	n/a	WORD	1932438	wordpools/wasnorm_wordpool_576.txt	LTP326	ltpFR2	1	16	SCARF	1246	n/a	n/a	0	0	0
3867.668	n/a	WORD	1933834	wordpools/wasnorm_wordpool_576.txt	LTP326	ltpFR2	1	16	TRIBE	1505	n/a	n/a	0	0	0
3870.196	n/a	WORD	1935098	wordpools/wasnorm_wordpool_576.txt	LTP326	ltpFR2	1	16	SURVEY	1414	n/a	n/a	0	0	0
3872.94	n/a	WORD	1936470	wordpools/wasnorm_wordpool_576.txt	LTP326	ltpFR2	1	16	CHAMPAGNE	278	n/a	n/a	0	0	0
3875.734	n/a	WORD	1937867	wordpools/wasnorm_wordpool_576.txt	LTP326	ltpFR2	1	16	SHOULDER	1294	n/a	n/a	0	0	0
3878.51	n/a	WORD	1939255	wordpools/wasnorm_wordpool_576.txt	LTP326	ltpFR2	1	16	PAPER	1011	n/a	n/a	0	0	0
3881.154	n/a	WORD	1940577	wordpools/wasnorm_wordpool_576.txt	LTP326	ltpFR2	1	16	STAPLE	1371	n/a	n/a	0	0	0
3883.732	n/a	WORD	1941866	wordpools/wasnorm_wordpool_576.txt	LTP326	ltpFR2	1	16	DONOR	485	n/a	n/a	0	0	0
3886.376	n/a	WORD	1943188	wordpools/wasnorm_wordpool_576.txt	LTP326	ltpFR2	1	16	IDOL	733	n/a	n/a	0	0	0
3889.02	n/a	WORD	1944510	wordpools/wasnorm_wordpool_576.txt	LTP326	ltpFR2	1	16	DENTIST	447	n/a	n/a	0	0	0
3890.63	n/a	START	1945315	n/a	LTP326	ltpFR2	1	n/a	n/a	n/a	24	n/a	n/a	n/a	n/a
3891.512	n/a	DISTRACTOR	1945756	n/a	LTP326	ltpFR2	1	16	n/a	n/a	n/a	n/a	0	0	0
3891.522	n/a	PROB	1945761	n/a	LTP326	ltpFR2	1	n/a	n/a	n/a	24	22	6	8	8
3894.632	n/a	PROB	1947316	n/a	LTP326	ltpFR2	1	n/a	n/a	n/a	24	13	4	3	6
3896.314	n/a	PROB	1948157	n/a	LTP326	ltpFR2	1	n/a	n/a	n/a	24	11	2	7	2
3898.118	n/a	PROB	1949059	n/a	LTP326	ltpFR2	1	n/a	n/a	n/a	24	13	2	5	6
3899.952	n/a	PROB	1949976	n/a	LTP326	ltpFR2	1	n/a	n/a	n/a	24	19	7	7	5
3902.588	n/a	PROB	1951294	n/a	LTP326	ltpFR2	1	n/a	n/a	n/a	24	17	2	9	6
3904.422	n/a	PROB	1952211	n/a	LTP326	ltpFR2	1	n/a	n/a	n/a	24	1	2	6	7
3908.158	n/a	PROB	1954079	n/a	LTP326	ltpFR2	1	n/a	n/a	n/a	24	21	9	9	9
3910.394	n/a	PROB	1955197	n/a	LTP326	ltpFR2	1	n/a	n/a	n/a	24	16	4	7	5
3914.018	n/a	STOP	1957009	n/a	LTP326	ltpFR2	1	n/a	n/a	n/a	24	n/a	n/a	n/a	n/a
3916.498	n/a	REC_START	1958249	n/a	LTP326	ltpFR2	1	16	n/a	n/a	n/a	n/a	0	0	0
3919.206	n/a	REC_WORD	1959603	wordpools/wasnorm_wordpool_576.txt	LTP326	ltpFR2	1	16	WITNESS	1618	n/a	n/a	0	0	0
3921.92	n/a	REC_WORD	1960960	wordpools/wasnorm_wordpool_576.txt	LTP326	ltpFR2	1	16	JUNGLE	764	n/a	n/a	0	0	0
3925.044	n/a	REC_WORD	1962522	wordpools/wasnorm_wordpool_576.txt	LTP326	ltpFR2	1	16	PALACE	1006	n/a	n/a	0	0	0
3927.386	n/a	REC_WORD	1963693	wordpools/wasnorm_wordpool_576.txt	LTP326	ltpFR2	1	16	PRINCE	1124	n/a	n/a	0	0	0
3929.552	n/a	REC_WORD	1964776	wordpools/wasnorm_wordpool_576.txt	LTP326	ltpFR2	1	16	SCARF	1246	n/a	n/a	0	0	0
3930.552	n/a	REC_WORD_VV	1965276	wordpools/wasnorm_wordpool_576.txt	LTP326	ltpFR2	1	16	<>	-1	n/a	n/a	0	0	0
3932.468	n/a	REC_WORD	1966234	wordpools/wasnorm_wordpool_576.txt	LTP326	ltpFR2	1	16	FRECKLE	602	n/a	n/a	0	0	0
3933.468	n/a	REC_WORD_VV	1966734	wordpools/wasnorm_wordpool_576.txt	LTP326	ltpFR2	1	16	<>	-1	n/a	n/a	0	0	0
3936.286	n/a	REC_WORD	1968143	wordpools/wasnorm_wordpool_576.txt	LTP326	ltpFR2	1	16	BATHTUB	100	n/a	n/a	0	0	0
3939.046	n/a	REC_WORD	1969523	wordpools/wasnorm_wordpool_576.txt	LTP326	ltpFR2	1	16	DRESSER	496	n/a	n/a	0	0	0
3993.04	n/a	REST_REWET	1996520	n/a	LTP326	ltpFR2	1	16	n/a	n/a	n/a	n/a	0	0	0
4270.958	n/a	WORD	2135479	wordpools/wasnorm_wordpool_576.txt	LTP326	ltpFR2	1	17	GAZELLE	628	n/a	n/a	0	0	0
4273.66	n/a	WORD	2136830	wordpools/wasnorm_wordpool_576.txt	LTP326	ltpFR2	1	17	GREASE	660	n/a	n/a	0	0	0
4276.38	n/a	WORD	2138190	wordpools/wasnorm_wordpool_576.txt	LTP326	ltpFR2	1	17	SHELTER	1282	n/a	n/a	0	0	0
4278.818	n/a	WORD	2139409	wordpools/wasnorm_wordpool_576.txt	LTP326	ltpFR2	1	17	BLUEPRINT	142	n/a	n/a	0	0	0
4281.434	n/a	WORD	2140717	wordpools/wasnorm_wordpool_576.txt	LTP326	ltpFR2	1	17	SIDEWALK	1303	n/a	n/a	0	0	0
4284.154	n/a	WORD	2142077	wordpools/wasnorm_wordpool_576.txt	LTP326	ltpFR2	1	17	DAUGHTER	442	n/a	n/a	0	0	0
4286.672	n/a	WORD	2143336	wordpools/wasnorm_wordpool_576.txt	LTP326	ltpFR2	1	17	PARENT	1013	n/a	n/a	0	0	0
4289.422	n/a	WORD	2144711	wordpools/wasnorm_wordpool_576.txt	LTP326	ltpFR2	1	17	JAPAN	749	n/a	n/a	0	0	0
4292.09	n/a	WORD	2146045	wordpools/wasnorm_wordpool_576.txt	LTP326	ltpFR2	1	17	COUNTY	389	n/a	n/a	0	0	0
4294.894	n/a	WORD	2147447	wordpools/wasnorm_wordpool_576.txt	LTP326	ltpFR2	1	17	PIMPLE	1071	n/a	n/a	0	0	0
4297.578	n/a	WORD	2148789	wordpools/wasnorm_wordpool_576.txt	LTP326	ltpFR2	1	17	OX	994	n/a	n/a	0	0	0
4300.384	n/a	WORD	2150192	wordpools/wasnorm_wordpool_576.txt	LTP326	ltpFR2	1	17	HIGHWAY	707	n/a	n/a	0	0	0
4303.05	n/a	WORD	2151525	wordpools/wasnorm_wordpool_576.txt	LTP326	ltpFR2	1	17	COUCH	386	n/a	n/a	0	0	0
4305.586	n/a	WORD	2152793	wordpools/wasnorm_wordpool_576.txt	LTP326	ltpFR2	1	17	PIANO	1057	n/a	n/a	0	0	0
4308.07	n/a	WORD	2154035	wordpools/wasnorm_wordpool_576.txt	LTP326	ltpFR2	1	17	FLUTE	585	n/a	n/a	0	0	0
4310.874	n/a	WORD	2155437	wordpools/wasnorm_wordpool_576.txt	LTP326	ltpFR2	1	17	GARBAGE	622	n/a	n/a	0	0	0
4313.458	n/a	WORD	2156729	wordpools/wasnorm_wordpool_576.txt	LTP326	ltpFR2	1	17	XEROX	1628	n/a	n/a	0	0	0
4316.198	n/a	WORD	2158099	wordpools/wasnorm_wordpool_576.txt	LTP326	ltpFR2	1	17	GYMNAST	675	n/a	n/a	0	0	0
4318.778	n/a	WORD	2159389	wordpools/wasnorm_wordpool_576.txt	LTP326	ltpFR2	1	17	CONTRACT	368	n/a	n/a	0	0	0
4321.318	n/a	WORD	2160659	wordpools/wasnorm_wordpool_576.txt	LTP326	ltpFR2	1	17	SUNSET	1408	n/a	n/a	0	0	0
4323.8	n/a	WORD	2161900	wordpools/wasnorm_wordpool_576.txt	LTP326	ltpFR2	1	17	CHIPMUNK	304	n/a	n/a	0	0	0
4326.3	n/a	WORD	2163150	wordpools/wasnorm_wordpool_576.txt	LTP326	ltpFR2	1	17	YARN	1631	n/a	n/a	0	0	0
4328.77	n/a	WORD	2164385	wordpools/wasnorm_wordpool_576.txt	LTP326	ltpFR2	1	17	CLAMP	316	n/a	n/a	0	0	0
4331.504	n/a	WORD	2165752	wordpools/wasnorm_wordpool_576.txt	LTP326	ltpFR2	1	17	OFFICE	972	n/a	n/a	0	0	0
4333.114	n/a	START	2166557	n/a	LTP326	ltpFR2	1	n/a	n/a	n/a	25	n/a	n/a	n/a	n/a
4334.118	n/a	DISTRACTOR	2167059	n/a	LTP326	ltpFR2	1	17	n/a	n/a	n/a	n/a	0	0	0
4334.122	n/a	PROB	2167061	n/a	LTP326	ltpFR2	1	n/a	n/a	n/a	25	13	3	7	3
4335.84	n/a	PROB	2167920	n/a	LTP326	ltpFR2	1	n/a	n/a	n/a	25	21	8	8	5
4341.062	n/a	PROB	2170531	n/a	LTP326	ltpFR2	1	n/a	n/a	n/a	25	1	6	4	2
4342.328	n/a	PROB	2171164	n/a	LTP326	ltpFR2	1	n/a	n/a	n/a	25	11	1	8	1
4344.432	n/a	PROB	2172216	n/a	LTP326	ltpFR2	1	n/a	n/a	n/a	25	5	2	1	2
4346.7	n/a	PROB	2173350	n/a	LTP326	ltpFR2	1	n/a	n/a	n/a	25	16	6	9	1
4349.152	n/a	PROB	2174576	n/a	LTP326	ltpFR2	1	n/a	n/a	n/a	25	14	4	7	3
4352.504	n/a	PROB	2176252	n/a	LTP326	ltpFR2	1	n/a	n/a	n/a	25	18	7	7	4
4355.914	n/a	STOP	2177957	n/a	LTP326	ltpFR2	1	n/a	n/a	n/a	25	n/a	n/a	n/a	n/a
4358.928	n/a	REC_START	2179464	n/a	LTP326	ltpFR2	1	17	n/a	n/a	n/a	n/a	0	0	0
4359.88	n/a	REC_WORD	2179940	wordpools/wasnorm_wordpool_576.txt	LTP326	ltpFR2	1	17	GAZELLE	628	n/a	n/a	0	0	0
4362.56	n/a	REC_WORD	2181280	wordpools/wasnorm_wordpool_576.txt	LTP326	ltpFR2	1	17	GREASY	-1	n/a	n/a	0	0	0
4365.348	n/a	REC_WORD	2182674	wordpools/wasnorm_wordpool_576.txt	LTP326	ltpFR2	1	17	GREASE	660	n/a	n/a	0	0	0
4368.324	n/a	REC_WORD	2184162	wordpools/wasnorm_wordpool_576.txt	LTP326	ltpFR2	1	17	SHELTER	1282	n/a	n/a	0	0	0
4373.552	n/a	REC_WORD	2186776	wordpools/wasnorm_wordpool_576.txt	LTP326	ltpFR2	1	17	DAUGHTER	442	n/a	n/a	0	0	0
4375.646	n/a	REC_WORD	2187823	wordpools/wasnorm_wordpool_576.txt	LTP326	ltpFR2	1	17	PARENT	1013	n/a	n/a	0	0	0
4378.246	n/a	REC_WORD	2189123	wordpools/wasnorm_wordpool_576.txt	LTP326	ltpFR2	1	17	JAPAN	749	n/a	n/a	0	0	0
4382.704	n/a	REC_WORD	2191352	wordpools/wasnorm_wordpool_576.txt	LTP326	ltpFR2	1	17	OX	994	n/a	n/a	0	0	0
4386.85	n/a	REC_WORD	2193425	wordpools/wasnorm_wordpool_576.txt	LTP326	ltpFR2	1	17	GYMNAST	675	n/a	n/a	0	0	0
4391.56	n/a	REC_WORD	2195780	wordpools/wasnorm_wordpool_576.txt	LTP326	ltpFR2	1	17	CHIPMUNK	304	n/a	n/a	0	0	0
4393.954	n/a	REC_WORD	2196977	wordpools/wasnorm_wordpool_576.txt	LTP326	ltpFR2	1	17	YARN	1631	n/a	n/a	0	0	0
4396.042	n/a	REC_WORD	2198021	wordpools/wasnorm_wordpool_576.txt	LTP326	ltpFR2	1	17	CLAMP	316	n/a	n/a	0	0	0
4449.376	n/a	WORD	2224688	wordpools/wasnorm_wordpool_576.txt	LTP326	ltpFR2	1	18	JUGGLER	763	n/a	n/a	0	0	0
4451.866	n/a	WORD	2225933	wordpools/wasnorm_wordpool_576.txt	LTP326	ltpFR2	1	18	RACKET	1155	n/a	n/a	0	0	0
4454.298	n/a	WORD	2227149	wordpools/wasnorm_wordpool_576.txt	LTP326	ltpFR2	1	18	HEART	697	n/a	n/a	0	0	0
4456.734	n/a	WORD	2228367	wordpools/wasnorm_wordpool_576.txt	LTP326	ltpFR2	1	18	TRANSPLANT	1496	n/a	n/a	0	0	0
4459.338	n/a	WORD	2229669	wordpools/wasnorm_wordpool_576.txt	LTP326	ltpFR2	1	18	BARLEY	88	n/a	n/a	0	0	0
4461.89	n/a	WORD	2230945	wordpools/wasnorm_wordpool_576.txt	LTP326	ltpFR2	1	18	DIME	466	n/a	n/a	0	0	0
4464.34	n/a	WORD	2232170	wordpools/wasnorm_wordpool_576.txt	LTP326	ltpFR2	1	18	LEADER	807	n/a	n/a	0	0	0
4466.894	n/a	WORD	2233447	wordpools/wasnorm_wordpool_576.txt	LTP326	ltpFR2	1	18	ICING	732	n/a	n/a	0	0	0
4469.444	n/a	WORD	2234722	wordpools/wasnorm_wordpool_576.txt	LTP326	ltpFR2	1	18	BODY	145	n/a	n/a	0	0	0
4472.08	n/a	WORD	2236040	wordpools/wasnorm_wordpool_576.txt	LTP326	ltpFR2	1	18	COFFEE	341	n/a	n/a	0	0	0
4474.632	n/a	WORD	2237316	wordpools/wasnorm_wordpool_576.txt	LTP326	ltpFR2	1	18	DANDRUFF	439	n/a	n/a	0	0	0
4477.418	n/a	WORD	2238709	wordpools/wasnorm_wordpool_576.txt	LTP326	ltpFR2	1	18	DRIVER	499	n/a	n/a	0	0	0
4480.02	n/a	WORD	2240010	wordpools/wasnorm_wordpool_576.txt	LTP326	ltpFR2	1	18	TRUCK	1512	n/a	n/a	0	0	0
4482.64	n/a	WORD	2241320	wordpools/wasnorm_wordpool_576.txt	LTP326	ltpFR2	1	18	LIVER	833	n/a	n/a	0	0	0
4485.14	n/a	WORD	2242570	wordpools/wasnorm_wordpool_576.txt	LTP326	ltpFR2	1	18	COOK	372	n/a	n/a	0	0	0
4487.778	n/a	WORD	2243889	wordpools/wasnorm_wordpool_576.txt	LTP326	ltpFR2	1	18	FLESH	579	n/a	n/a	0	0	0
4490.512	n/a	WORD	2245256	wordpools/wasnorm_wordpool_576.txt	LTP326	ltpFR2	1	18	SEAL	1262	n/a	n/a	0	0	0
4493.248	n/a	WORD	2246624	wordpools/wasnorm_wordpool_576.txt	LTP326	ltpFR2	1	18	LUMBER	848	n/a	n/a	0	0	0
4495.8	n/a	WORD	2247900	wordpools/wasnorm_wordpool_576.txt	LTP326	ltpFR2	1	18	MILK	895	n/a	n/a	0	0	0
4498.318	n/a	WORD	2249159	wordpools/wasnorm_wordpool_576.txt	LTP326	ltpFR2	1	18	GRAPE	654	n/a	n/a	0	0	0
4500.904	n/a	WORD	2250452	wordpools/wasnorm_wordpool_576.txt	LTP326	ltpFR2	1	18	APPLE	33	n/a	n/a	0	0	0
4503.658	n/a	WORD	2251829	wordpools/wasnorm_wordpool_576.txt	LTP326	ltpFR2	1	18	SMOG	1330	n/a	n/a	0	0	0
4506.408	n/a	WORD	2253204	wordpools/wasnorm_wordpool_576.txt	LTP326	ltpFR2	1	18	QUARTER	1148	n/a	n/a	0	0	0
4509.076	n/a	WORD	2254538	wordpools/wasnorm_wordpool_576.txt	LTP326	ltpFR2	1	18	RECEIPT	1173	n/a	n/a	0	0	0
4510.68	n/a	START	2255340	n/a	LTP326	ltpFR2	1	n/a	n/a	n/a	26	n/a	n/a	n/a	n/a
4511.504	n/a	DISTRACTOR	2255752	n/a	LTP326	ltpFR2	1	18	n/a	n/a	n/a	n/a	0	0	0
4511.512	n/a	PROB	2255756	n/a	LTP326	ltpFR2	1	n/a	n/a	n/a	26	18	9	1	8
4513.128	n/a	PROB	2256564	n/a	LTP326	ltpFR2	1	n/a	n/a	n/a	26	19	8	4	7
4515.848	n/a	PROB	2257924	n/a	LTP326	ltpFR2	1	n/a	n/a	n/a	26	24	7	6	9
4519.852	n/a	PROB	2259926	n/a	LTP326	ltpFR2	1	n/a	n/a	n/a	26	16	1	8	7
4522.654	n/a	PROB	2261327	n/a	LTP326	ltpFR2	1	n/a	n/a	n/a	26	12	5	1	6
4524.122	n/a	PROB	2262061	n/a	LTP326	ltpFR2	1	n/a	n/a	n/a	26	12	8	1	3
4525.672	n/a	PROB	2262836	n/a	LTP326	ltpFR2	1	n/a	n/a	n/a	26	14	6	3	5
4527.94	n/a	PROB	2263970	n/a	LTP326	ltpFR2	1	n/a	n/a	n/a	26	24	7	8	9
4533.668	n/a	STOP	2266834	n/a	LTP326	ltpFR2	1	n/a	n/a	n/a	26	n/a	n/a	n/a	n/a
4536.614	n/a	REC_START	2268307	n/a	LTP326	ltpFR2	1	18	n/a	n/a	n/a	n/a	0	0	0
4543.752	n/a	REC_WORD	2271876	wordpools/wasnorm_wordpool_576.txt	LTP326	ltpFR2	1	18	HEART	697	n/a	n/a	0	0	0
4545.606	n/a	REC_WORD	2272803	wordpools/wasnorm_wordpool_576.txt	LTP326	ltpFR2	1	18	TRANSPLANT	1496	n/a	n/a	0	0	0
4546.606	n/a	REC_WORD_VV	2273303	wordpools/wasnorm_wordpool_576.txt	LTP326	ltpFR2	1	18	<>	-1	n/a	n/a	0	0	0
4547.95	n/a	REC_WORD	2273975	wordpools/wasnorm_wordpool_576.txt	LTP326	ltpFR2	1	18	LIVER	833	n/a	n/a	0	0	0
4550.322	n/a	REC_WORD	2275161	wordpools/wasnorm_wordpool_576.txt	LTP326	ltpFR2	1	18	DIME	466	n/a	n/a	0	0	0
4552.072	n/a	REC_WORD	2276036	wordpools/wasnorm_wordpool_576.txt	LTP326	ltpFR2	1	18	QUARTER	1148	n/a	n/a	0	0	0
4553.812	n/a	REC_WORD	2276906	wordpools/wasnorm_wordpool_576.txt	LTP326	ltpFR2	1	18	COOK	372	n/a	n/a	0	0	0
4555.678	n/a	REC_WORD	2277839	wordpools/wasnorm_wordpool_576.txt	LTP326	ltpFR2	1	18	GRAPE	654	n/a	n/a	0	0	0
4557.43	n/a	REC_WORD	2278715	wordpools/wasnorm_wordpool_576.txt	LTP326	ltpFR2	1	18	APPLE	33	n/a	n/a	0	0	0
4560.638	n/a	REC_WORD	2280319	wordpools/wasnorm_wordpool_576.txt	LTP326	ltpFR2	1	18	LEADER	807	n/a	n/a	0	0	0
4563.808	n/a	REC_WORD	2281904	wordpools/wasnorm_wordpool_576.txt	LTP326	ltpFR2	1	18	ICING	732	n/a	n/a	0	0	0
4565.884	n/a	REC_WORD	2282942	wordpools/wasnorm_wordpool_576.txt	LTP326	ltpFR2	1	18	BODY	145	n/a	n/a	0	0	0
4568.178	n/a	REC_WORD	2284089	wordpools/wasnorm_wordpool_576.txt	LTP326	ltpFR2	1	18	DRIVER	499	n/a	n/a	0	0	0
4570.672	n/a	REC_WORD	2285336	wordpools/wasnorm_wordpool_576.txt	LTP326	ltpFR2	1	18	DANDRUFF	439	n/a	n/a	0	0	0
4574.548	n/a	REC_WORD	2287274	wordpools/wasnorm_wordpool_576.txt	LTP326	ltpFR2	1	18	CHAUFFEUR	283	n/a	n/a	0	0	0
4577.516	n/a	REC_WORD	2288758	wordpools/wasnorm_wordpool_576.txt	LTP326	ltpFR2	1	18	TRUCK	1512	n/a	n/a	0	0	0
4606.246	n/a	REC_WORD	2303123	wordpools/wasnorm_wordpool_576.txt	LTP326	ltpFR2	1	18	JUGGLER	763	n/a	n/a	0	0	0
4608.192	n/a	REC_WORD	2304096	wordpools/wasnorm_wordpool_576.txt	LTP326	ltpFR2	1	18	RACKET	1155	n/a	n/a	0	0	0
4627.034	n/a	DISTRACTOR	2313517	n/a	LTP326	ltpFR2	1	19	n/a	n/a	n/a	n/a	0	0	0
4627.034	n/a	START	2313517	n/a	LTP326	ltpFR2	1	n/a	n/a	n/a	27	n/a	n/a	n/a	n/a
4627.05	n/a	PROB	2313525	n/a	LTP326	ltpFR2	1	n/a	n/a	n/a	27	18	8	9	1
4628.504	n/a	PROB	2314252	n/a	LTP326	ltpFR2	1	n/a	n/a	n/a	27	8	2	7	1
4630.488	n/a	PROB	2315244	n/a	LTP326	ltpFR2	1	n/a	n/a	n/a	27	17	8	3	6
4633.84	n/a	PROB	2316920	n/a	LTP326	ltpFR2	1	n/a	n/a	n/a	27	21	3	9	9
4635.958	n/a	PROB	2317979	n/a	LTP326	ltpFR2	1	n/a	n/a	n/a	27	18	7	2	9
4637.494	n/a	PROB	2318747	n/a	LTP326	ltpFR2	1	n/a	n/a	n/a	27	12	9	1	2
4639.412	n/a	PROB	2319706	n/a	LTP326	ltpFR2	1	n/a	n/a	n/a	27	8	2	1	5
4640.964	n/a	PROB	2320482	n/a	LTP326	ltpFR2	1	n/a	n/a	n/a	27	13	1	8	4
4643.096	n/a	PROB	2321548	n/a	LTP326	ltpFR2	1	n/a	n/a	n/a	27	14	4	5	5
4646.25	n/a	PROB	2323125	n/a	LTP326	ltpFR2	1	n/a	n/a	n/a	27	18	4	7	7
4651.028	n/a	STOP	2325514	n/a	LTP326	ltpFR2	1	n/a	n/a	n/a	27	n/a	n/a	n/a	n/a
4652.066	n/a	WORD	2326033	wordpools/wasnorm_wordpool_576.txt	LTP326	ltpFR2	1	19	IGLOO	734	n/a	n/a	0	0	0
4654.502	n/a	WORD	2327251	wordpools/wasnorm_wordpool_576.txt	LTP326	ltpFR2	1	19	GOBLIN	645	n/a	n/a	0	0	0
4656.92	n/a	WORD	2328460	wordpools/wasnorm_wordpool_576.txt	LTP326	ltpFR2	1	19	POSTAGE	1113	n/a	n/a	0	0	0
4659.422	n/a	WORD	2329711	wordpools/wasnorm_wordpool_576.txt	LTP326	ltpFR2	1	19	GROUND	666	n/a	n/a	0	0	0
4661.942	n/a	WORD	2330971	wordpools/wasnorm_wordpool_576.txt	LTP326	ltpFR2	1	19	OINTMENT	974	n/a	n/a	0	0	0
4664.492	n/a	WORD	2332246	wordpools/wasnorm_wordpool_576.txt	LTP326	ltpFR2	1	19	SCRIBBLE	1256	n/a	n/a	0	0	0
4666.996	n/a	WORD	2333498	wordpools/wasnorm_wordpool_576.txt	LTP326	ltpFR2	1	19	BOUQUET	157	n/a	n/a	0	0	0
4669.582	n/a	WORD	2334791	wordpools/wasnorm_wordpool_576.txt	LTP326	ltpFR2	1	19	GIRL	637	n/a	n/a	0	0	0
4672.3	n/a	WORD	2336150	wordpools/wasnorm_wordpool_576.txt	LTP326	ltpFR2	1	19	OUTDOORS	987	n/a	n/a	0	0	0
4674.954	n/a	WORD	2337477	wordpools/wasnorm_wordpool_576.txt	LTP326	ltpFR2	1	19	FOREST	593	n/a	n/a	0	0	0
4677.554	n/a	WORD	2338777	wordpools/wasnorm_wordpool_576.txt	LTP326	ltpFR2	1	19	BLOCKADE	137	n/a	n/a	0	0	0
4680.324	n/a	WORD	2340162	wordpools/wasnorm_wordpool_576.txt	LTP326	ltpFR2	1	19	BANJO	82	n/a	n/a	0	0	0
4683.058	n/a	WORD	2341529	wordpools/wasnorm_wordpool_576.txt	LTP326	ltpFR2	1	19	COLLEGE	346	n/a	n/a	0	0	0
4685.512	n/a	WORD	2342756	wordpools/wasnorm_wordpool_576.txt	LTP326	ltpFR2	1	19	TEACHER	1440	n/a	n/a	0	0	0
4688.3	n/a	WORD	2344150	wordpools/wasnorm_wordpool_576.txt	LTP326	ltpFR2	1	19	MAILMAN	858	n/a	n/a	0	0	0
4691.032	n/a	WORD	2345516	wordpools/wasnorm_wordpool_576.txt	LTP326	ltpFR2	1	19	LILY	821	n/a	n/a	0	0	0
4693.584	n/a	WORD	2346792	wordpools/wasnorm_wordpool_576.txt	LTP326	ltpFR2	1	19	DRUG	501	n/a	n/a	0	0	0
4696.386	n/a	WORD	2348193	wordpools/wasnorm_wordpool_576.txt	LTP326	ltpFR2	1	19	HAMPER	682	n/a	n/a	0	0	0
4698.888	n/a	WORD	2349444	wordpools/wasnorm_wordpool_576.txt	LTP326	ltpFR2	1	19	OUTFIT	988	n/a	n/a	0	0	0
