mstime	trial_type	stim_file	subject	experiment	session	trial	task	item_name	item_num	recog_resp	recog_conf	resp	color_r	color_g	color_b	case	font
0	SESS_START	n/a	LTP234	ltpFR	18	n/a	n/a	n/a	n/a	1	4	n/a	n/a	n/a	n/a	n/a	n/a
34843	WORD	wordpools/wasnorm_wordpool_less_exclusions.txt	LTP234	ltpFR	18	1	0	GUARD	667	0	n/a	1	0.57763671875	0.412841796875	1	lower	zerothre.ttf
38805	WORD	wordpools/wasnorm_wordpool_less_exclusions.txt	LTP234	ltpFR	18	1	0	ACROBAT	4	n/a	n/a	1	0.57763671875	0.412841796875	1	lower	zerothre.ttf
42769	WORD	wordpools/wasnorm_wordpool_less_exclusions.txt	LTP234	ltpFR	18	1	0	SPARROW	1347	n/a	n/a	0	0.57763671875	0.412841796875	1	lower	zerothre.ttf
46989	WORD	wordpools/wasnorm_wordpool_less_exclusions.txt	LTP234	ltpFR	18	1	0	CORN	381	n/a	n/a	0	0.57763671875	0.412841796875	1	lower	zerothre.ttf
50820	WORD	wordpools/wasnorm_wordpool_less_exclusions.txt	LTP234	ltpFR	18	1	1	PEBBLE	1035	n/a	n/a	0	0.422607421875	0.5869140625	0	upper	amplitud.ttf
54936	WORD	wordpools/wasnorm_wordpool_less_exclusions.txt	LTP234	ltpFR	18	1	1	PERSONNEL	1053	n/a	n/a	1	0.422607421875	0.5869140625	0	upper	amplitud.ttf
58917	WORD	wordpools/wasnorm_wordpool_less_exclusions.txt	LTP234	ltpFR	18	1	1	SCARF	1246	n/a	n/a	0	0.422607421875	0.5869140625	0	upper	amplitud.ttf
62933	WORD	wordpools/wasnorm_wordpool_less_exclusions.txt	LTP234	ltpFR	18	1	1	FUR	615	n/a	n/a	0	0.422607421875	0.5869140625	0	upper	amplitud.ttf
66948	WORD	wordpools/wasnorm_wordpool_less_exclusions.txt	LTP234	ltpFR	18	1	0	FEATHER	557	n/a	n/a	0	0.57763671875	0.412841796875	1	lower	zerothre.ttf
71147	WORD	wordpools/wasnorm_wordpool_less_exclusions.txt	LTP234	ltpFR	18	1	0	TENT	1449	n/a	n/a	1	0.57763671875	0.412841796875	1	lower	zerothre.ttf
74978	WORD	wordpools/wasnorm_wordpool_less_exclusions.txt	LTP234	ltpFR	18	1	1	APPLICATION	34	n/a	n/a	0	0.422607421875	0.5869140625	0	upper	amplitud.ttf
79077	WORD	wordpools/wasnorm_wordpool_less_exclusions.txt	LTP234	ltpFR	18	1	1	GORILLA	650	n/a	n/a	1	0.422607421875	0.5869140625	0	upper	amplitud.ttf
83038	WORD	wordpools/wasnorm_wordpool_less_exclusions.txt	LTP234	ltpFR	18	1	1	PRIMATE	1123	n/a	n/a	1	0.422607421875	0.5869140625	0	upper	amplitud.ttf
87224	WORD	wordpools/wasnorm_wordpool_less_exclusions.txt	LTP234	ltpFR	18	1	1	EDITORIAL	517	n/a	n/a	0	0.422607421875	0.5869140625	0	upper	amplitud.ttf
91356	WORD	wordpools/wasnorm_wordpool_less_exclusions.txt	LTP234	ltpFR	18	1	0	SHRUB	1299	n/a	n/a	1	0.57763671875	0.412841796875	1	lower	zerothre.ttf
95321	WORD	wordpools/wasnorm_wordpool_less_exclusions.txt	LTP234	ltpFR	18	1	0	LUMBER	848	n/a	n/a	1	0.57763671875	0.412841796875	1	lower	zerothre.ttf
101161	REC_START	n/a	LTP234	ltpFR	18	1	n/a	n/a	n/a	n/a	n/a	n/a	n/a	n/a	n/a	n/a	n/a
101804	REC_WORD	wordpools/wasnorm_wordpool_less_exclusions.txt	LTP234	ltpFR	18	1	0	LUMBER	848	n/a	n/a	1	n/a	n/a	n/a	n/a	n/a
102454	REC_WORD	wordpools/wasnorm_wordpool_less_exclusions.txt	LTP234	ltpFR	18	1	0	SHRUB	1299	n/a	n/a	1	n/a	n/a	n/a	n/a	n/a
108055	REC_WORD	wordpools/wasnorm_wordpool_less_exclusions.txt	LTP234	ltpFR	18	1	1	SCARF	1246	n/a	n/a	0	n/a	n/a	n/a	n/a	n/a
111687	REC_WORD	wordpools/wasnorm_wordpool_less_exclusions.txt	LTP234	ltpFR	18	1	1	PEBBLE	1035	n/a	n/a	0	n/a	n/a	n/a	n/a	n/a
113977	REC_WORD	wordpools/wasnorm_wordpool_less_exclusions.txt	LTP234	ltpFR	18	1	n/a	CORD	379	n/a	n/a	n/a	n/a	n/a	n/a	n/a	n/a
117219	REC_WORD	wordpools/wasnorm_wordpool_less_exclusions.txt	LTP234	ltpFR	18	1	0	SPARROW	1347	n/a	n/a	0	n/a	n/a	n/a	n/a	n/a
118716	REC_WORD	wordpools/wasnorm_wordpool_less_exclusions.txt	LTP234	ltpFR	18	1	0	ACROBAT	4	n/a	n/a	1	n/a	n/a	n/a	n/a	n/a
121450	REC_WORD	wordpools/wasnorm_wordpool_less_exclusions.txt	LTP234	ltpFR	18	1	0	GUARD	667	n/a	n/a	1	n/a	n/a	n/a	n/a	n/a
159333	REC_WORD	wordpools/wasnorm_wordpool_less_exclusions.txt	LTP234	ltpFR	18	1	1	PERSONNEL	1053	n/a	n/a	1	n/a	n/a	n/a	n/a	n/a
185110	WORD	wordpools/wasnorm_wordpool_less_exclusions.txt	LTP234	ltpFR	18	2	1	RIVER	1194	n/a	n/a	0	0.422607421875	0.5869140625	0	upper	amplitud.ttf
189192	WORD	wordpools/wasnorm_wordpool_less_exclusions.txt	LTP234	ltpFR	18	2	1	TIDE	1465	n/a	n/a	0	0.422607421875	0.5869140625	0	upper	amplitud.ttf
193374	WORD	wordpools/wasnorm_wordpool_less_exclusions.txt	LTP234	ltpFR	18	2	0	SEAFOOD	1260	n/a	n/a	0	0.57763671875	0.412841796875	1	lower	zerothre.ttf
197585	WORD	wordpools/wasnorm_wordpool_less_exclusions.txt	LTP234	ltpFR	18	2	0	CREEK	404	n/a	n/a	1	0.57763671875	0.412841796875	1	lower	zerothre.ttf
201470	WORD	wordpools/wasnorm_wordpool_less_exclusions.txt	LTP234	ltpFR	18	2	0	CHURCH	307	n/a	n/a	1	0.57763671875	0.412841796875	1	lower	zerothre.ttf
205619	WORD	wordpools/wasnorm_wordpool_less_exclusions.txt	LTP234	ltpFR	18	2	0	GIRAFFE	636	n/a	n/a	1	0.57763671875	0.412841796875	1	lower	zerothre.ttf
209820	WORD	wordpools/wasnorm_wordpool_less_exclusions.txt	LTP234	ltpFR	18	2	0	KITTEN	780	n/a	n/a	1	0.57763671875	0.412841796875	1	lower	zerothre.ttf
213784	WORD	wordpools/wasnorm_wordpool_less_exclusions.txt	LTP234	ltpFR	18	2	1	MOUSE	925	n/a	n/a	0	0.422607421875	0.5869140625	0	upper	amplitud.ttf
217850	WORD	wordpools/wasnorm_wordpool_less_exclusions.txt	LTP234	ltpFR	18	2	1	FRIAR	605	n/a	n/a	1	0.422607421875	0.5869140625	0	upper	amplitud.ttf
221680	WORD	wordpools/wasnorm_wordpool_less_exclusions.txt	LTP234	ltpFR	18	2	0	GAZELLE	628	n/a	n/a	1	0.57763671875	0.412841796875	1	lower	zerothre.ttf
225847	WORD	wordpools/wasnorm_wordpool_less_exclusions.txt	LTP234	ltpFR	18	2	0	CAGE	218	n/a	n/a	1	0.57763671875	0.412841796875	1	lower	zerothre.ttf
229962	WORD	wordpools/wasnorm_wordpool_less_exclusions.txt	LTP234	ltpFR	18	2	0	CUP	424	n/a	n/a	2	0.57763671875	0.412841796875	1	lower	zerothre.ttf
231083	KEY_MSG	n/a	LTP234	ltpFR	18	2	n/a	n/a	n/a	n/a	n/a	n/a	n/a	n/a	n/a	n/a	n/a
233944	WORD	wordpools/wasnorm_wordpool_less_exclusions.txt	LTP234	ltpFR	18	2	1	SUIT	1402	n/a	n/a	0	0.422607421875	0.5869140625	0	upper	amplitud.ttf
237774	WORD	wordpools/wasnorm_wordpool_less_exclusions.txt	LTP234	ltpFR	18	2	1	PLANET	1082	n/a	n/a	0	0.422607421875	0.5869140625	0	upper	amplitud.ttf
241769	WORD	wordpools/wasnorm_wordpool_less_exclusions.txt	LTP234	ltpFR	18	2	1	WRITER	1627	n/a	n/a	1	0.422607421875	0.5869140625	0	upper	amplitud.ttf
245670	WORD	wordpools/wasnorm_wordpool_less_exclusions.txt	LTP234	ltpFR	18	2	1	FOLDER	588	n/a	n/a	0	0.422607421875	0.5869140625	0	upper	amplitud.ttf
251744	REC_START	n/a	LTP234	ltpFR	18	2	n/a	n/a	n/a	n/a	n/a	n/a	n/a	n/a	n/a	n/a	n/a
251828	REC_WORD	wordpools/wasnorm_wordpool_less_exclusions.txt	LTP234	ltpFR	18	2	1	SUIT	1402	n/a	n/a	0	n/a	n/a	n/a	n/a	n/a
252472	REC_WORD	wordpools/wasnorm_wordpool_less_exclusions.txt	LTP234	ltpFR	18	2	1	PLANET	1082	n/a	n/a	0	n/a	n/a	n/a	n/a	n/a
252936	REC_WORD	wordpools/wasnorm_wordpool_less_exclusions.txt	LTP234	ltpFR	18	2	1	WRITER	1627	n/a	n/a	1	n/a	n/a	n/a	n/a	n/a
253370	REC_WORD	wordpools/wasnorm_wordpool_less_exclusions.txt	LTP234	ltpFR	18	2	1	FOLDER	588	n/a	n/a	0	n/a	n/a	n/a	n/a	n/a
254697	REC_WORD	wordpools/wasnorm_wordpool_less_exclusions.txt	LTP234	ltpFR	18	2	0	CUP	424	n/a	n/a	2	n/a	n/a	n/a	n/a	n/a
259586	REC_WORD	wordpools/wasnorm_wordpool_less_exclusions.txt	LTP234	ltpFR	18	2	1	RIVER	1194	n/a	n/a	0	n/a	n/a	n/a	n/a	n/a
260429	REC_WORD	wordpools/wasnorm_wordpool_less_exclusions.txt	LTP234	ltpFR	18	2	1	TIDE	1465	n/a	n/a	0	n/a	n/a	n/a	n/a	n/a
319824	REC_WORD	wordpools/wasnorm_wordpool_less_exclusions.txt	LTP234	ltpFR	18	2	0	CAGE	218	n/a	n/a	1	n/a	n/a	n/a	n/a	n/a
321859	REC_WORD	wordpools/wasnorm_wordpool_less_exclusions.txt	LTP234	ltpFR	18	2	0	KITTEN	780	n/a	n/a	1	n/a	n/a	n/a	n/a	n/a
334238	WORD	wordpools/wasnorm_wordpool_less_exclusions.txt	LTP234	ltpFR	18	3	0	BEAST	108	n/a	n/a	1	0.57763671875	0.412841796875	1	lower	zerothre.ttf
338438	WORD	wordpools/wasnorm_wordpool_less_exclusions.txt	LTP234	ltpFR	18	3	0	PORCUPINE	1107	n/a	n/a	0	0.57763671875	0.412841796875	1	lower	zerothre.ttf
342285	WORD	wordpools/wasnorm_wordpool_less_exclusions.txt	LTP234	ltpFR	18	3	0	SHORTCAKE	1292	n/a	n/a	0	0.57763671875	0.412841796875	1	lower	zerothre.ttf
346263	WORD	wordpools/wasnorm_wordpool_less_exclusions.txt	LTP234	ltpFR	18	3	1	MEAT	883	n/a	n/a	0	0.422607421875	0.5869140625	0	upper	amplitud.ttf
350449	WORD	wordpools/wasnorm_wordpool_less_exclusions.txt	LTP234	ltpFR	18	3	1	STAPLER	1372	n/a	n/a	0	0.422607421875	0.5869140625	0	upper	amplitud.ttf
354447	WORD	wordpools/wasnorm_wordpool_less_exclusions.txt	LTP234	ltpFR	18	3	1	NERVE	944	n/a	n/a	0	0.422607421875	0.5869140625	0	upper	amplitud.ttf
358579	WORD	wordpools/wasnorm_wordpool_less_exclusions.txt	LTP234	ltpFR	18	3	1	SENATOR	1268	n/a	n/a	1	0.422607421875	0.5869140625	0	upper	amplitud.ttf
362661	WORD	wordpools/wasnorm_wordpool_less_exclusions.txt	LTP234	ltpFR	18	3	0	NEWSSTAND	949	n/a	n/a	1	0.57763671875	0.412841796875	1	lower	zerothre.ttf
366677	WORD	wordpools/wasnorm_wordpool_less_exclusions.txt	LTP234	ltpFR	18	3	0	ESSAY	540	n/a	n/a	0	0.57763671875	0.412841796875	1	lower	zerothre.ttf
370893	WORD	wordpools/wasnorm_wordpool_less_exclusions.txt	LTP234	ltpFR	18	3	0	RIB	1188	n/a	n/a	0	0.57763671875	0.412841796875	1	lower	zerothre.ttf
374892	WORD	wordpools/wasnorm_wordpool_less_exclusions.txt	LTP234	ltpFR	18	3	1	KING	777	n/a	n/a	1	0.422607421875	0.5869140625	0	upper	amplitud.ttf
378970	WORD	wordpools/wasnorm_wordpool_less_exclusions.txt	LTP234	ltpFR	18	3	1	TOMATO	1476	n/a	n/a	0	0.422607421875	0.5869140625	0	upper	amplitud.ttf
383006	WORD	wordpools/wasnorm_wordpool_less_exclusions.txt	LTP234	ltpFR	18	3	1	COIN	343	n/a	n/a	0	0.422607421875	0.5869140625	0	upper	amplitud.ttf
387188	WORD	wordpools/wasnorm_wordpool_less_exclusions.txt	LTP234	ltpFR	18	3	1	WALLET	1583	n/a	n/a	0	0.422607421875	0.5869140625	0	upper	amplitud.ttf
391186	WORD	wordpools/wasnorm_wordpool_less_exclusions.txt	LTP234	ltpFR	18	3	0	TOURIST	1488	n/a	n/a	1	0.57763671875	0.412841796875	1	lower	zerothre.ttf
395386	WORD	wordpools/wasnorm_wordpool_less_exclusions.txt	LTP234	ltpFR	18	3	0	PENNY	1045	n/a	n/a	0	0.57763671875	0.412841796875	1	lower	zerothre.ttf
401409	REC_START	n/a	LTP234	ltpFR	18	3	n/a	n/a	n/a	n/a	n/a	n/a	n/a	n/a	n/a	n/a	n/a
401753	REC_WORD	wordpools/wasnorm_wordpool_less_exclusions.txt	LTP234	ltpFR	18	3	0	PENNY	1045	n/a	n/a	0	n/a	n/a	n/a	n/a	n/a
402571	REC_WORD	wordpools/wasnorm_wordpool_less_exclusions.txt	LTP234	ltpFR	18	3	1	TOMATO	1476	n/a	n/a	0	n/a	n/a	n/a	n/a	n/a
403709	REC_WORD	wordpools/wasnorm_wordpool_less_exclusions.txt	LTP234	ltpFR	18	3	1	WALLET	1583	n/a	n/a	0	n/a	n/a	n/a	n/a	n/a
405963	REC_WORD	wordpools/wasnorm_wordpool_less_exclusions.txt	LTP234	ltpFR	18	3	0	ESSAY	540	n/a	n/a	0	n/a	n/a	n/a	n/a	n/a
407535	REC_WORD	wordpools/wasnorm_wordpool_less_exclusions.txt	LTP234	ltpFR	18	3	0	PORCUPINE	1107	n/a	n/a	0	n/a	n/a	n/a	n/a	n/a
422550	REC_WORD_VV	wordpools/wasnorm_wordpool_less_exclusions.txt	LTP234	ltpFR	18	3	n/a	<>	-1	n/a	n/a	n/a	n/a	n/a	n/a	n/a	n/a
497303	WORD	wordpools/wasnorm_wordpool_less_exclusions.txt	LTP234	ltpFR	18	4	-1	COMB	351	n/a	n/a	-1	1.0	1.0	1	upper	Verdana.ttf
501335	WORD	wordpools/wasnorm_wordpool_less_exclusions.txt	LTP234	ltpFR	18	4	-1	RIBBON	1189	n/a	n/a	-1	1.0	1.0	1	upper	Verdana.ttf
505283	WORD	wordpools/wasnorm_wordpool_less_exclusions.txt	LTP234	ltpFR	18	4	-1	ASTRONAUT	51	n/a	n/a	-1	1.0	1.0	1	upper	Verdana.ttf
509332	WORD	wordpools/wasnorm_wordpool_less_exclusions.txt	LTP234	ltpFR	18	4	-1	SPACE	1345	n/a	n/a	-1	1.0	1.0	1	upper	Verdana.ttf
513343	WORD	wordpools/wasnorm_wordpool_less_exclusions.txt	LTP234	ltpFR	18	4	-1	ENCYCLOPEDIA	533	n/a	n/a	-1	1.0	1.0	1	upper	Verdana.ttf
517262	WORD	wordpools/wasnorm_wordpool_less_exclusions.txt	LTP234	ltpFR	18	4	-1	ATOM	55	n/a	n/a	-1	1.0	1.0	1	upper	Verdana.ttf
521143	WORD	wordpools/wasnorm_wordpool_less_exclusions.txt	LTP234	ltpFR	18	4	-1	DOUGH	489	n/a	n/a	-1	1.0	1.0	1	upper	Verdana.ttf
525171	WORD	wordpools/wasnorm_wordpool_less_exclusions.txt	LTP234	ltpFR	18	4	-1	APRON	35	n/a	n/a	-1	1.0	1.0	1	upper	Verdana.ttf
529140	WORD	wordpools/wasnorm_wordpool_less_exclusions.txt	LTP234	ltpFR	18	4	-1	SIDING	1304	n/a	n/a	-1	1.0	1.0	1	upper	Verdana.ttf
533335	WORD	wordpools/wasnorm_wordpool_less_exclusions.txt	LTP234	ltpFR	18	4	-1	NEUTRON	947	n/a	n/a	-1	1.0	1.0	1	upper	Verdana.ttf
537220	WORD	wordpools/wasnorm_wordpool_less_exclusions.txt	LTP234	ltpFR	18	4	-1	CROWN	415	n/a	n/a	-1	1.0	1.0	1	upper	Verdana.ttf
541198	WORD	wordpools/wasnorm_wordpool_less_exclusions.txt	LTP234	ltpFR	18	4	-1	JACKET	747	n/a	n/a	-1	1.0	1.0	1	upper	Verdana.ttf
545167	WORD	wordpools/wasnorm_wordpool_less_exclusions.txt	LTP234	ltpFR	18	4	-1	CRITIC	410	n/a	n/a	-1	1.0	1.0	1	upper	Verdana.ttf
549299	WORD	wordpools/wasnorm_wordpool_less_exclusions.txt	LTP234	ltpFR	18	4	-1	NUCLEUS	961	n/a	n/a	-1	1.0	1.0	1	upper	Verdana.ttf
553281	WORD	wordpools/wasnorm_wordpool_less_exclusions.txt	LTP234	ltpFR	18	4	-1	PRINCE	1124	n/a	n/a	-1	1.0	1.0	1	upper	Verdana.ttf
557145	WORD	wordpools/wasnorm_wordpool_less_exclusions.txt	LTP234	ltpFR	18	4	-1	SHELTER	1282	n/a	n/a	-1	1.0	1.0	1	upper	Verdana.ttf
562935	REC_START	n/a	LTP234	ltpFR	18	4	n/a	n/a	n/a	n/a	n/a	n/a	n/a	n/a	n/a	n/a	n/a
563673	REC_WORD	wordpools/wasnorm_wordpool_less_exclusions.txt	LTP234	ltpFR	18	4	-1	ATOM	55	n/a	n/a	-1	n/a	n/a	n/a	n/a	n/a
564306	REC_WORD	wordpools/wasnorm_wordpool_less_exclusions.txt	LTP234	ltpFR	18	4	-1	NUCLEUS	961	n/a	n/a	-1	n/a	n/a	n/a	n/a	n/a
565293	REC_WORD	wordpools/wasnorm_wordpool_less_exclusions.txt	LTP234	ltpFR	18	4	-1	NEUTRON	947	n/a	n/a	-1	n/a	n/a	n/a	n/a	n/a
567320	REC_WORD	wordpools/wasnorm_wordpool_less_exclusions.txt	LTP234	ltpFR	18	4	-1	COMB	351	n/a	n/a	-1	n/a	n/a	n/a	n/a	n/a
567928	REC_WORD	wordpools/wasnorm_wordpool_less_exclusions.txt	LTP234	ltpFR	18	4	-1	RIBBON	1189	n/a	n/a	-1	n/a	n/a	n/a	n/a	n/a
568767	REC_WORD	wordpools/wasnorm_wordpool_less_exclusions.txt	LTP234	ltpFR	18	4	-1	ASTRONAUT	51	n/a	n/a	-1	n/a	n/a	n/a	n/a	n/a
569430	REC_WORD	wordpools/wasnorm_wordpool_less_exclusions.txt	LTP234	ltpFR	18	4	-1	SPACE	1345	n/a	n/a	-1	n/a	n/a	n/a	n/a	n/a
572617	REC_WORD	wordpools/wasnorm_wordpool_less_exclusions.txt	LTP234	ltpFR	18	4	-1	SIDING	1304	n/a	n/a	-1	n/a	n/a	n/a	n/a	n/a
573675	REC_WORD	wordpools/wasnorm_wordpool_less_exclusions.txt	LTP234	ltpFR	18	4	-1	SHELTER	1282	n/a	n/a	-1	n/a	n/a	n/a	n/a	n/a
582730	REC_WORD	wordpools/wasnorm_wordpool_less_exclusions.txt	LTP234	ltpFR	18	4	-1	DOUGH	489	n/a	n/a	-1	n/a	n/a	n/a	n/a	n/a
585194	REC_WORD	wordpools/wasnorm_wordpool_less_exclusions.txt	LTP234	ltpFR	18	4	-1	APRON	35	n/a	n/a	-1	n/a	n/a	n/a	n/a	n/a
642562	WORD	wordpools/wasnorm_wordpool_less_exclusions.txt	LTP234	ltpFR	18	5	0	TAVERN	1437	n/a	n/a	1	0.57763671875	0.412841796875	1	lower	zerothre.ttf
646632	WORD	wordpools/wasnorm_wordpool_less_exclusions.txt	LTP234	ltpFR	18	5	0	SYRUP	1425	n/a	n/a	0	0.57763671875	0.412841796875	1	lower	zerothre.ttf
650530	WORD	wordpools/wasnorm_wordpool_less_exclusions.txt	LTP234	ltpFR	18	5	0	CARD	243	n/a	n/a	0	0.57763671875	0.412841796875	1	lower	zerothre.ttf
654561	WORD	wordpools/wasnorm_wordpool_less_exclusions.txt	LTP234	ltpFR	18	5	0	PIER	1063	n/a	n/a	1	0.57763671875	0.412841796875	1	lower	zerothre.ttf
658489	WORD	wordpools/wasnorm_wordpool_less_exclusions.txt	LTP234	ltpFR	18	5	0	PIRATE	1074	n/a	n/a	1	0.57763671875	0.412841796875	1	lower	zerothre.ttf
662392	WORD	wordpools/wasnorm_wordpool_less_exclusions.txt	LTP234	ltpFR	18	5	0	CUFF	423	n/a	n/a	0	0.57763671875	0.412841796875	1	lower	zerothre.ttf
666290	WORD	wordpools/wasnorm_wordpool_less_exclusions.txt	LTP234	ltpFR	18	5	0	WHEEL	1603	n/a	n/a	1	0.57763671875	0.412841796875	1	lower	zerothre.ttf
670355	WORD	wordpools/wasnorm_wordpool_less_exclusions.txt	LTP234	ltpFR	18	5	0	MECHANIC	884	n/a	n/a	1	0.57763671875	0.412841796875	1	lower	zerothre.ttf
674466	WORD	wordpools/wasnorm_wordpool_less_exclusions.txt	LTP234	ltpFR	18	5	0	HIGHWAY	707	n/a	n/a	1	0.57763671875	0.412841796875	1	lower	zerothre.ttf
678669	WORD	wordpools/wasnorm_wordpool_less_exclusions.txt	LTP234	ltpFR	18	5	0	BANJO	82	n/a	n/a	1	0.57763671875	0.412841796875	1	lower	zerothre.ttf
682784	WORD	wordpools/wasnorm_wordpool_less_exclusions.txt	LTP234	ltpFR	18	5	0	OPERA	978	n/a	n/a	1	0.57763671875	0.412841796875	1	lower	zerothre.ttf
686851	WORD	wordpools/wasnorm_wordpool_less_exclusions.txt	LTP234	ltpFR	18	5	0	BRIEFCASE	175	n/a	n/a	1	0.57763671875	0.412841796875	1	lower	zerothre.ttf
690799	WORD	wordpools/wasnorm_wordpool_less_exclusions.txt	LTP234	ltpFR	18	5	0	FIDDLE	561	n/a	n/a	0	0.57763671875	0.412841796875	1	lower	zerothre.ttf
694797	WORD	wordpools/wasnorm_wordpool_less_exclusions.txt	LTP234	ltpFR	18	5	0	DOCUMENT	479	n/a	n/a	0	0.57763671875	0.412841796875	1	lower	zerothre.ttf
698946	WORD	wordpools/wasnorm_wordpool_less_exclusions.txt	LTP234	ltpFR	18	5	0	TYPEWRITER	1531	n/a	n/a	1	0.57763671875	0.412841796875	1	lower	zerothre.ttf
702776	WORD	wordpools/wasnorm_wordpool_less_exclusions.txt	LTP234	ltpFR	18	5	0	FLUTE	585	n/a	n/a	0	0.57763671875	0.412841796875	1	lower	zerothre.ttf
708683	REC_START	n/a	LTP234	ltpFR	18	5	n/a	n/a	n/a	n/a	n/a	n/a	n/a	n/a	n/a	n/a	n/a
708688	REC_WORD	wordpools/wasnorm_wordpool_less_exclusions.txt	LTP234	ltpFR	18	5	0	FLUTE	585	n/a	n/a	0	n/a	n/a	n/a	n/a	n/a
709097	REC_WORD	wordpools/wasnorm_wordpool_less_exclusions.txt	LTP234	ltpFR	18	5	0	DOCUMENT	479	n/a	n/a	0	n/a	n/a	n/a	n/a	n/a
709500	REC_WORD	wordpools/wasnorm_wordpool_less_exclusions.txt	LTP234	ltpFR	18	5	0	MECHANIC	884	n/a	n/a	1	n/a	n/a	n/a	n/a	n/a
710140	REC_WORD	wordpools/wasnorm_wordpool_less_exclusions.txt	LTP234	ltpFR	18	5	0	HIGHWAY	707	n/a	n/a	1	n/a	n/a	n/a	n/a	n/a
718166	REC_WORD	wordpools/wasnorm_wordpool_less_exclusions.txt	LTP234	ltpFR	18	5	0	TAVERN	1437	n/a	n/a	1	n/a	n/a	n/a	n/a	n/a
798254	WORD	wordpools/wasnorm_wordpool_less_exclusions.txt	LTP234	ltpFR	18	6	0	PORT	1110	n/a	n/a	1	0.57763671875	0.412841796875	1	lower	zerothre.ttf
802403	WORD	wordpools/wasnorm_wordpool_less_exclusions.txt	LTP234	ltpFR	18	6	0	ISLAND	745	n/a	n/a	1	0.57763671875	0.412841796875	1	lower	zerothre.ttf
806467	WORD	wordpools/wasnorm_wordpool_less_exclusions.txt	LTP234	ltpFR	18	6	0	RADIO	1157	n/a	n/a	0	0.57763671875	0.412841796875	1	lower	zerothre.ttf
810433	WORD	wordpools/wasnorm_wordpool_less_exclusions.txt	LTP234	ltpFR	18	6	0	HARP	689	n/a	n/a	1	0.57763671875	0.412841796875	1	lower	zerothre.ttf
814477	WORD	wordpools/wasnorm_wordpool_less_exclusions.txt	LTP234	ltpFR	18	6	0	BROTHER	179	n/a	n/a	1	0.57763671875	0.412841796875	1	lower	zerothre.ttf
818330	WORD	wordpools/wasnorm_wordpool_less_exclusions.txt	LTP234	ltpFR	18	6	0	STREAM	1392	n/a	n/a	1	0.57763671875	0.412841796875	1	lower	zerothre.ttf
822444	WORD	wordpools/wasnorm_wordpool_less_exclusions.txt	LTP234	ltpFR	18	6	0	KNEE	784	n/a	n/a	0	0.57763671875	0.412841796875	1	lower	zerothre.ttf
826323	WORD	wordpools/wasnorm_wordpool_less_exclusions.txt	LTP234	ltpFR	18	6	0	PAPER	1011	n/a	n/a	0	0.57763671875	0.412841796875	1	lower	zerothre.ttf
830308	WORD	wordpools/wasnorm_wordpool_less_exclusions.txt	LTP234	ltpFR	18	6	0	BAKER	71	n/a	n/a	1	0.57763671875	0.412841796875	1	lower	zerothre.ttf
834373	WORD	wordpools/wasnorm_wordpool_less_exclusions.txt	LTP234	ltpFR	18	6	0	BOAT	144	n/a	n/a	1	0.57763671875	0.412841796875	1	lower	zerothre.ttf
838538	WORD	wordpools/wasnorm_wordpool_less_exclusions.txt	LTP234	ltpFR	18	6	0	WAREHOUSE	1588	n/a	n/a	1	0.57763671875	0.412841796875	1	lower	zerothre.ttf
842453	WORD	wordpools/wasnorm_wordpool_less_exclusions.txt	LTP234	ltpFR	18	6	0	LOAF	835	n/a	n/a	0	0.57763671875	0.412841796875	1	lower	zerothre.ttf
846485	WORD	wordpools/wasnorm_wordpool_less_exclusions.txt	LTP234	ltpFR	18	6	0	BRANCH	168	n/a	n/a	1	0.57763671875	0.412841796875	1	lower	zerothre.ttf
850533	WORD	wordpools/wasnorm_wordpool_less_exclusions.txt	LTP234	ltpFR	18	6	0	SHIRT	1287	n/a	n/a	0	0.57763671875	0.412841796875	1	lower	zerothre.ttf
854632	WORD	wordpools/wasnorm_wordpool_less_exclusions.txt	LTP234	ltpFR	18	6	0	SHORTS	1293	n/a	n/a	0	0.57763671875	0.412841796875	1	lower	zerothre.ttf
858815	WORD	wordpools/wasnorm_wordpool_less_exclusions.txt	LTP234	ltpFR	18	6	0	LIMB	822	n/a	n/a	0	0.57763671875	0.412841796875	1	lower	zerothre.ttf
864537	REC_START	n/a	LTP234	ltpFR	18	6	n/a	n/a	n/a	n/a	n/a	n/a	n/a	n/a	n/a	n/a	n/a
864542	REC_WORD	wordpools/wasnorm_wordpool_less_exclusions.txt	LTP234	ltpFR	18	6	0	SHORTS	1293	n/a	n/a	0	n/a	n/a	n/a	n/a	n/a
865220	REC_WORD	wordpools/wasnorm_wordpool_less_exclusions.txt	LTP234	ltpFR	18	6	0	LIMB	822	n/a	n/a	0	n/a	n/a	n/a	n/a	n/a
865908	REC_WORD	wordpools/wasnorm_wordpool_less_exclusions.txt	LTP234	ltpFR	18	6	0	HARP	689	n/a	n/a	1	n/a	n/a	n/a	n/a	n/a
866607	REC_WORD	wordpools/wasnorm_wordpool_less_exclusions.txt	LTP234	ltpFR	18	6	0	RADIO	1157	n/a	n/a	0	n/a	n/a	n/a	n/a	n/a
867220	REC_WORD	wordpools/wasnorm_wordpool_less_exclusions.txt	LTP234	ltpFR	18	6	0	LOAF	835	n/a	n/a	0	n/a	n/a	n/a	n/a	n/a
874589	REC_WORD	wordpools/wasnorm_wordpool_less_exclusions.txt	LTP234	ltpFR	18	6	0	BAKER	71	n/a	n/a	1	n/a	n/a	n/a	n/a	n/a
884641	REC_WORD	wordpools/wasnorm_wordpool_less_exclusions.txt	LTP234	ltpFR	18	6	0	BROTHER	179	n/a	n/a	1	n/a	n/a	n/a	n/a	n/a
955212	WORD	wordpools/wasnorm_wordpool_less_exclusions.txt	LTP234	ltpFR	18	7	1	INSTRUCTOR	741	n/a	n/a	1	0.422607421875	0.5869140625	0	upper	amplitud.ttf
959194	WORD	wordpools/wasnorm_wordpool_less_exclusions.txt	LTP234	ltpFR	18	7	1	PILLOW	1069	n/a	n/a	0	0.422607421875	0.5869140625	0	upper	amplitud.ttf
963393	WORD	wordpools/wasnorm_wordpool_less_exclusions.txt	LTP234	ltpFR	18	7	1	CORPORATION	382	n/a	n/a	0	0.422607421875	0.5869140625	0	upper	amplitud.ttf
967558	WORD	wordpools/wasnorm_wordpool_less_exclusions.txt	LTP234	ltpFR	18	7	1	CONTRACT	368	n/a	n/a	0	0.422607421875	0.5869140625	0	upper	amplitud.ttf
971386	WORD	wordpools/wasnorm_wordpool_less_exclusions.txt	LTP234	ltpFR	18	7	1	BANQUET	86	n/a	n/a	0	0.422607421875	0.5869140625	0	upper	amplitud.ttf
975384	WORD	wordpools/wasnorm_wordpool_less_exclusions.txt	LTP234	ltpFR	18	7	1	GRILL	661	n/a	n/a	0	0.422607421875	0.5869140625	0	upper	amplitud.ttf
979253	WORD	wordpools/wasnorm_wordpool_less_exclusions.txt	LTP234	ltpFR	18	7	1	MOB	904	n/a	n/a	1	0.422607421875	0.5869140625	0	upper	amplitud.ttf
983351	WORD	wordpools/wasnorm_wordpool_less_exclusions.txt	LTP234	ltpFR	18	7	1	RICE	1190	n/a	n/a	0	0.422607421875	0.5869140625	0	upper	amplitud.ttf
987512	WORD	wordpools/wasnorm_wordpool_less_exclusions.txt	LTP234	ltpFR	18	7	1	MOTH	920	n/a	n/a	1	0.422607421875	0.5869140625	0	upper	amplitud.ttf
991361	WORD	wordpools/wasnorm_wordpool_less_exclusions.txt	LTP234	ltpFR	18	7	1	NOMAD	955	n/a	n/a	0	0.422607421875	0.5869140625	0	upper	amplitud.ttf
995530	WORD	wordpools/wasnorm_wordpool_less_exclusions.txt	LTP234	ltpFR	18	7	1	LOFT	840	n/a	n/a	0	0.422607421875	0.5869140625	0	upper	amplitud.ttf
999491	WORD	wordpools/wasnorm_wordpool_less_exclusions.txt	LTP234	ltpFR	18	7	1	ANT	25	n/a	n/a	1	0.422607421875	0.5869140625	0	upper	amplitud.ttf
1003540	WORD	wordpools/wasnorm_wordpool_less_exclusions.txt	LTP234	ltpFR	18	7	1	ATHLETE	52	n/a	n/a	1	0.422607421875	0.5869140625	0	upper	amplitud.ttf
1007592	WORD	wordpools/wasnorm_wordpool_less_exclusions.txt	LTP234	ltpFR	18	7	1	FOOTBALL	591	n/a	n/a	0	0.422607421875	0.5869140625	0	upper	amplitud.ttf
1011557	WORD	wordpools/wasnorm_wordpool_less_exclusions.txt	LTP234	ltpFR	18	7	1	COURSE	390	n/a	n/a	0	0.422607421875	0.5869140625	0	upper	amplitud.ttf
1015672	WORD	wordpools/wasnorm_wordpool_less_exclusions.txt	LTP234	ltpFR	18	7	1	CURTAIN	427	n/a	n/a	0	0.422607421875	0.5869140625	0	upper	amplitud.ttf
1021629	REC_START	n/a	LTP234	ltpFR	18	7	n/a	n/a	n/a	n/a	n/a	n/a	n/a	n/a	n/a	n/a	n/a
1022022	REC_WORD	wordpools/wasnorm_wordpool_less_exclusions.txt	LTP234	ltpFR	18	7	1	CORPORATION	382	n/a	n/a	0	n/a	n/a	n/a	n/a	n/a
1022956	REC_WORD	wordpools/wasnorm_wordpool_less_exclusions.txt	LTP234	ltpFR	18	7	1	CONTRACT	368	n/a	n/a	0	n/a	n/a	n/a	n/a	n/a
1025226	REC_WORD	wordpools/wasnorm_wordpool_less_exclusions.txt	LTP234	ltpFR	18	7	1	BANQUET	86	n/a	n/a	0	n/a	n/a	n/a	n/a	n/a
1028308	REC_WORD	wordpools/wasnorm_wordpool_less_exclusions.txt	LTP234	ltpFR	18	7	1	MOB	904	n/a	n/a	1	n/a	n/a	n/a	n/a	n/a
1030010	REC_WORD	wordpools/wasnorm_wordpool_less_exclusions.txt	LTP234	ltpFR	18	7	1	MOTH	920	n/a	n/a	1	n/a	n/a	n/a	n/a	n/a
1031147	REC_WORD	wordpools/wasnorm_wordpool_less_exclusions.txt	LTP234	ltpFR	18	7	1	RICE	1190	n/a	n/a	0	n/a	n/a	n/a	n/a	n/a
1033103	REC_WORD	wordpools/wasnorm_wordpool_less_exclusions.txt	LTP234	ltpFR	18	7	1	LOFT	840	n/a	n/a	0	n/a	n/a	n/a	n/a	n/a
1035936	REC_WORD	wordpools/wasnorm_wordpool_less_exclusions.txt	LTP234	ltpFR	18	7	1	NOMAD	955	n/a	n/a	0	n/a	n/a	n/a	n/a	n/a
1037762	REC_WORD	wordpools/wasnorm_wordpool_less_exclusions.txt	LTP234	ltpFR	18	7	1	ANT	25	n/a	n/a	1	n/a	n/a	n/a	n/a	n/a
1038910	REC_WORD	wordpools/wasnorm_wordpool_less_exclusions.txt	LTP234	ltpFR	18	7	1	ATHLETE	52	n/a	n/a	1	n/a	n/a	n/a	n/a	n/a
1039956	REC_WORD	wordpools/wasnorm_wordpool_less_exclusions.txt	LTP234	ltpFR	18	7	1	FOOTBALL	591	n/a	n/a	0	n/a	n/a	n/a	n/a	n/a
1041089	REC_WORD	wordpools/wasnorm_wordpool_less_exclusions.txt	LTP234	ltpFR	18	7	1	COURSE	390	n/a	n/a	0	n/a	n/a	n/a	n/a	n/a
1042920	REC_WORD	wordpools/wasnorm_wordpool_less_exclusions.txt	LTP234	ltpFR	18	7	1	CURTAIN	427	n/a	n/a	0	n/a	n/a	n/a	n/a	n/a
1100642	WORD	wordpools/wasnorm_wordpool_less_exclusions.txt	LTP234	ltpFR	18	8	-1	COLT	349	n/a	n/a	-1	1.0	1.0	1	upper	Verdana.ttf
1104687	WORD	wordpools/wasnorm_wordpool_less_exclusions.txt	LTP234	ltpFR	18	8	-1	CLOSET	326	n/a	n/a	-1	1.0	1.0	1	upper	Verdana.ttf
1108773	WORD	wordpools/wasnorm_wordpool_less_exclusions.txt	LTP234	ltpFR	18	8	-1	GOVERNOR	651	n/a	n/a	-1	1.0	1.0	1	upper	Verdana.ttf
1112836	WORD	wordpools/wasnorm_wordpool_less_exclusions.txt	LTP234	ltpFR	18	8	-1	CAPITAL	238	n/a	n/a	-1	1.0	1.0	1	upper	Verdana.ttf
1116871	WORD	wordpools/wasnorm_wordpool_less_exclusions.txt	LTP234	ltpFR	18	8	-1	SPOON	1357	n/a	n/a	-1	1.0	1.0	1	upper	Verdana.ttf
1120836	WORD	wordpools/wasnorm_wordpool_less_exclusions.txt	LTP234	ltpFR	18	8	-1	WHIP	1604	n/a	n/a	-1	1.0	1.0	1	upper	Verdana.ttf
1124868	WORD	wordpools/wasnorm_wordpool_less_exclusions.txt	LTP234	ltpFR	18	8	-1	DONOR	485	n/a	n/a	-1	1.0	1.0	1	upper	Verdana.ttf
1128833	WORD	wordpools/wasnorm_wordpool_less_exclusions.txt	LTP234	ltpFR	18	8	-1	UNICORN	1538	n/a	n/a	-1	1.0	1.0	1	upper	Verdana.ttf
1133032	WORD	wordpools/wasnorm_wordpool_less_exclusions.txt	LTP234	ltpFR	18	8	-1	FAIRY	549	n/a	n/a	-1	1.0	1.0	1	upper	Verdana.ttf
1137228	WORD	wordpools/wasnorm_wordpool_less_exclusions.txt	LTP234	ltpFR	18	8	-1	TAG	1429	n/a	n/a	-1	1.0	1.0	1	upper	Verdana.ttf
1141079	WORD	wordpools/wasnorm_wordpool_less_exclusions.txt	LTP234	ltpFR	18	8	-1	SEAL	1262	n/a	n/a	-1	1.0	1.0	1	upper	Verdana.ttf
1145178	WORD	wordpools/wasnorm_wordpool_less_exclusions.txt	LTP234	ltpFR	18	8	-1	FREEWAY	603	n/a	n/a	-1	1.0	1.0	1	upper	Verdana.ttf
1149009	WORD	wordpools/wasnorm_wordpool_less_exclusions.txt	LTP234	ltpFR	18	8	-1	DRIVER	499	n/a	n/a	-1	1.0	1.0	1	upper	Verdana.ttf
1152907	WORD	wordpools/wasnorm_wordpool_less_exclusions.txt	LTP234	ltpFR	18	8	-1	ELF	525	n/a	n/a	-1	1.0	1.0	1	upper	Verdana.ttf
1156906	WORD	wordpools/wasnorm_wordpool_less_exclusions.txt	LTP234	ltpFR	18	8	-1	BARLEY	88	n/a	n/a	-1	1.0	1.0	1	upper	Verdana.ttf
1160971	WORD	wordpools/wasnorm_wordpool_less_exclusions.txt	LTP234	ltpFR	18	8	-1	DISH	474	n/a	n/a	-1	1.0	1.0	1	upper	Verdana.ttf
1166894	REC_START	n/a	LTP234	ltpFR	18	8	n/a	n/a	n/a	n/a	n/a	n/a	n/a	n/a	n/a	n/a	n/a
1168325	REC_WORD	wordpools/wasnorm_wordpool_less_exclusions.txt	LTP234	ltpFR	18	8	-1	COLT	349	n/a	n/a	-1	n/a	n/a	n/a	n/a	n/a
1169109	REC_WORD	wordpools/wasnorm_wordpool_less_exclusions.txt	LTP234	ltpFR	18	8	-1	CLOSET	326	n/a	n/a	-1	n/a	n/a	n/a	n/a	n/a
1170042	REC_WORD	wordpools/wasnorm_wordpool_less_exclusions.txt	LTP234	ltpFR	18	8	-1	GOVERNOR	651	n/a	n/a	-1	n/a	n/a	n/a	n/a	n/a
1170830	REC_WORD	wordpools/wasnorm_wordpool_less_exclusions.txt	LTP234	ltpFR	18	8	-1	CAPITAL	238	n/a	n/a	-1	n/a	n/a	n/a	n/a	n/a
1171623	REC_WORD	wordpools/wasnorm_wordpool_less_exclusions.txt	LTP234	ltpFR	18	8	-1	SPOON	1357	n/a	n/a	-1	n/a	n/a	n/a	n/a	n/a
1189547	REC_WORD	wordpools/wasnorm_wordpool_less_exclusions.txt	LTP234	ltpFR	18	8	-1	ELF	525	n/a	n/a	-1	n/a	n/a	n/a	n/a	n/a
1191313	REC_WORD	wordpools/wasnorm_wordpool_less_exclusions.txt	LTP234	ltpFR	18	8	-1	BARLEY	88	n/a	n/a	-1	n/a	n/a	n/a	n/a	n/a
1192131	REC_WORD	wordpools/wasnorm_wordpool_less_exclusions.txt	LTP234	ltpFR	18	8	-1	DISH	474	n/a	n/a	-1	n/a	n/a	n/a	n/a	n/a
1192755	REC_WORD	wordpools/wasnorm_wordpool_less_exclusions.txt	LTP234	ltpFR	18	8	-1	FREEWAY	603	n/a	n/a	-1	n/a	n/a	n/a	n/a	n/a
1195449	REC_WORD	wordpools/wasnorm_wordpool_less_exclusions.txt	LTP234	ltpFR	18	8	-1	DRIVER	499	n/a	n/a	-1	n/a	n/a	n/a	n/a	n/a
1201460	REC_WORD	wordpools/wasnorm_wordpool_less_exclusions.txt	LTP234	ltpFR	18	8	-1	UNICORN	1538	n/a	n/a	-1	n/a	n/a	n/a	n/a	n/a
1202393	REC_WORD	wordpools/wasnorm_wordpool_less_exclusions.txt	LTP234	ltpFR	18	8	-1	FAIRY	549	n/a	n/a	-1	n/a	n/a	n/a	n/a	n/a
1203675	REC_WORD	wordpools/wasnorm_wordpool_less_exclusions.txt	LTP234	ltpFR	18	8	-1	TAG	1429	n/a	n/a	-1	n/a	n/a	n/a	n/a	n/a
1204378	REC_WORD	wordpools/wasnorm_wordpool_less_exclusions.txt	LTP234	ltpFR	18	8	-1	SEAL	1262	n/a	n/a	-1	n/a	n/a	n/a	n/a	n/a
1233183	REC_WORD	wordpools/wasnorm_wordpool_less_exclusions.txt	LTP234	ltpFR	18	8	-1	WHIP	1604	n/a	n/a	-1	n/a	n/a	n/a	n/a	n/a
1256079	WORD	wordpools/wasnorm_wordpool_less_exclusions.txt	LTP234	ltpFR	18	9	1	QUAIL	1147	n/a	n/a	1	0.422607421875	0.5869140625	0	upper	amplitud.ttf
1260161	WORD	wordpools/wasnorm_wordpool_less_exclusions.txt	LTP234	ltpFR	18	9	1	KANGAROO	768	n/a	n/a	1	0.422607421875	0.5869140625	0	upper	amplitud.ttf
1264373	WORD	wordpools/wasnorm_wordpool_less_exclusions.txt	LTP234	ltpFR	18	9	0	MOWER	928	n/a	n/a	1	0.57763671875	0.412841796875	1	lower	zerothre.ttf
1268405	WORD	wordpools/wasnorm_wordpool_less_exclusions.txt	LTP234	ltpFR	18	9	0	TRACTOR	1493	n/a	n/a	1	0.57763671875	0.412841796875	1	lower	zerothre.ttf
1272374	WORD	wordpools/wasnorm_wordpool_less_exclusions.txt	LTP234	ltpFR	18	9	1	KETCHUP	771	n/a	n/a	0	0.422607421875	0.5869140625	0	upper	amplitud.ttf
1276572	WORD	wordpools/wasnorm_wordpool_less_exclusions.txt	LTP234	ltpFR	18	9	1	MUSTARD	935	n/a	n/a	0	0.422607421875	0.5869140625	0	upper	amplitud.ttf
1280587	WORD	wordpools/wasnorm_wordpool_less_exclusions.txt	LTP234	ltpFR	18	9	1	RADIATOR	1156	n/a	n/a	0	0.422607421875	0.5869140625	0	upper	amplitud.ttf
1284649	WORD	wordpools/wasnorm_wordpool_less_exclusions.txt	LTP234	ltpFR	18	9	0	JELLY	755	n/a	n/a	0	0.57763671875	0.412841796875	1	lower	zerothre.ttf
1288651	WORD	wordpools/wasnorm_wordpool_less_exclusions.txt	LTP234	ltpFR	18	9	0	SALESMAN	1225	n/a	n/a	1	0.57763671875	0.412841796875	1	lower	zerothre.ttf
1292499	WORD	wordpools/wasnorm_wordpool_less_exclusions.txt	LTP234	ltpFR	18	9	0	VAN	1548	n/a	n/a	1	0.57763671875	0.412841796875	1	lower	zerothre.ttf
1296547	WORD	wordpools/wasnorm_wordpool_less_exclusions.txt	LTP234	ltpFR	18	9	0	PERFUME	1049	n/a	n/a	0	0.57763671875	0.412841796875	1	lower	zerothre.ttf
1300446	WORD	wordpools/wasnorm_wordpool_less_exclusions.txt	LTP234	ltpFR	18	9	0	WOLF	1619	n/a	n/a	1	0.57763671875	0.412841796875	1	lower	zerothre.ttf
1304344	WORD	wordpools/wasnorm_wordpool_less_exclusions.txt	LTP234	ltpFR	18	9	0	BRAKE	166	n/a	n/a	1	0.57763671875	0.412841796875	1	lower	zerothre.ttf
1308343	WORD	wordpools/wasnorm_wordpool_less_exclusions.txt	LTP234	ltpFR	18	9	1	CARDINAL	244	n/a	n/a	1	0.422607421875	0.5869140625	0	upper	amplitud.ttf
1312457	WORD	wordpools/wasnorm_wordpool_less_exclusions.txt	LTP234	ltpFR	18	9	1	MOTHER	921	n/a	n/a	1	0.422607421875	0.5869140625	0	upper	amplitud.ttf
1316536	WORD	wordpools/wasnorm_wordpool_less_exclusions.txt	LTP234	ltpFR	18	9	1	EGG	518	n/a	n/a	0	0.422607421875	0.5869140625	0	upper	amplitud.ttf
1322296	REC_START	n/a	LTP234	ltpFR	18	9	n/a	n/a	n/a	n/a	n/a	n/a	n/a	n/a	n/a	n/a	n/a
1322944	REC_WORD	wordpools/wasnorm_wordpool_less_exclusions.txt	LTP234	ltpFR	18	9	1	CARDINAL	244	n/a	n/a	1	n/a	n/a	n/a	n/a	n/a
1323473	REC_WORD	wordpools/wasnorm_wordpool_less_exclusions.txt	LTP234	ltpFR	18	9	1	MOTHER	921	n/a	n/a	1	n/a	n/a	n/a	n/a	n/a
1324117	REC_WORD	wordpools/wasnorm_wordpool_less_exclusions.txt	LTP234	ltpFR	18	9	1	EGG	518	n/a	n/a	0	n/a	n/a	n/a	n/a	n/a
1327404	REC_WORD	wordpools/wasnorm_wordpool_less_exclusions.txt	LTP234	ltpFR	18	9	0	WOLF	1619	n/a	n/a	1	n/a	n/a	n/a	n/a	n/a
1355899	REC_WORD	wordpools/wasnorm_wordpool_less_exclusions.txt	LTP234	ltpFR	18	9	0	SALESMAN	1225	n/a	n/a	1	n/a	n/a	n/a	n/a	n/a
1356967	REC_WORD	wordpools/wasnorm_wordpool_less_exclusions.txt	LTP234	ltpFR	18	9	0	VAN	1548	n/a	n/a	1	n/a	n/a	n/a	n/a	n/a
1378687	REC_WORD	wordpools/wasnorm_wordpool_less_exclusions.txt	LTP234	ltpFR	18	9	1	QUAIL	1147	n/a	n/a	1	n/a	n/a	n/a	n/a	n/a
1381067	REC_WORD	wordpools/wasnorm_wordpool_less_exclusions.txt	LTP234	ltpFR	18	9	0	TRACTOR	1493	n/a	n/a	1	n/a	n/a	n/a	n/a	n/a
1382164	REC_WORD	wordpools/wasnorm_wordpool_less_exclusions.txt	LTP234	ltpFR	18	9	0	MOWER	928	n/a	n/a	1	n/a	n/a	n/a	n/a	n/a
1386919	REC_WORD	wordpools/wasnorm_wordpool_less_exclusions.txt	LTP234	ltpFR	18	9	1	KETCHUP	771	n/a	n/a	0	n/a	n/a	n/a	n/a	n/a
1387383	REC_WORD	wordpools/wasnorm_wordpool_less_exclusions.txt	LTP234	ltpFR	18	9	1	MUSTARD	935	n/a	n/a	0	n/a	n/a	n/a	n/a	n/a
1406195	WORD	wordpools/wasnorm_wordpool_less_exclusions.txt	LTP234	ltpFR	18	10	-1	SHRINE	1298	n/a	n/a	-1	1.0	1.0	1	upper	Verdana.ttf
1410311	WORD	wordpools/wasnorm_wordpool_less_exclusions.txt	LTP234	ltpFR	18	10	-1	ABDOMEN	1	n/a	n/a	-1	1.0	1.0	1	upper	Verdana.ttf
1414138	WORD	wordpools/wasnorm_wordpool_less_exclusions.txt	LTP234	ltpFR	18	10	-1	DRIVEWAY	500	n/a	n/a	-1	1.0	1.0	1	upper	Verdana.ttf
1418257	WORD	wordpools/wasnorm_wordpool_less_exclusions.txt	LTP234	ltpFR	18	10	-1	TUBE	1516	n/a	n/a	-1	1.0	1.0	1	upper	Verdana.ttf
1422356	WORD	wordpools/wasnorm_wordpool_less_exclusions.txt	LTP234	ltpFR	18	10	-1	FATHER	554	n/a	n/a	-1	1.0	1.0	1	upper	Verdana.ttf
1426321	WORD	wordpools/wasnorm_wordpool_less_exclusions.txt	LTP234	ltpFR	18	10	-1	PUMPKIN	1142	n/a	n/a	-1	1.0	1.0	1	upper	Verdana.ttf
1430486	WORD	wordpools/wasnorm_wordpool_less_exclusions.txt	LTP234	ltpFR	18	10	-1	JEEP	753	n/a	n/a	-1	1.0	1.0	1	upper	Verdana.ttf
1434568	WORD	wordpools/wasnorm_wordpool_less_exclusions.txt	LTP234	ltpFR	18	10	-1	OLIVE	975	n/a	n/a	-1	1.0	1.0	1	upper	Verdana.ttf
1438462	WORD	wordpools/wasnorm_wordpool_less_exclusions.txt	LTP234	ltpFR	18	10	-1	SICKLE	1302	n/a	n/a	-1	1.0	1.0	1	upper	Verdana.ttf
1442648	WORD	wordpools/wasnorm_wordpool_less_exclusions.txt	LTP234	ltpFR	18	10	-1	CHISEL	305	n/a	n/a	-1	1.0	1.0	1	upper	Verdana.ttf
1446713	WORD	wordpools/wasnorm_wordpool_less_exclusions.txt	LTP234	ltpFR	18	10	-1	MONASTERY	907	n/a	n/a	-1	1.0	1.0	1	upper	Verdana.ttf
1450595	WORD	wordpools/wasnorm_wordpool_less_exclusions.txt	LTP234	ltpFR	18	10	-1	TREE	1502	n/a	n/a	-1	1.0	1.0	1	upper	Verdana.ttf
1454812	WORD	wordpools/wasnorm_wordpool_less_exclusions.txt	LTP234	ltpFR	18	10	-1	PERMIT	1051	n/a	n/a	-1	1.0	1.0	1	upper	Verdana.ttf
1459028	WORD	wordpools/wasnorm_wordpool_less_exclusions.txt	LTP234	ltpFR	18	10	-1	THORN	1459	n/a	n/a	-1	1.0	1.0	1	upper	Verdana.ttf
1463089	WORD	wordpools/wasnorm_wordpool_less_exclusions.txt	LTP234	ltpFR	18	10	-1	GARDEN	623	n/a	n/a	-1	1.0	1.0	1	upper	Verdana.ttf
1467309	WORD	wordpools/wasnorm_wordpool_less_exclusions.txt	LTP234	ltpFR	18	10	-1	BELLY	119	n/a	n/a	-1	1.0	1.0	1	upper	Verdana.ttf
1473316	REC_START	n/a	LTP234	ltpFR	18	10	n/a	n/a	n/a	n/a	n/a	n/a	n/a	n/a	n/a	n/a	n/a
1474094	REC_WORD	wordpools/wasnorm_wordpool_less_exclusions.txt	LTP234	ltpFR	18	10	-1	ABDOMEN	1	n/a	n/a	-1	n/a	n/a	n/a	n/a	n/a
1474693	REC_WORD	wordpools/wasnorm_wordpool_less_exclusions.txt	LTP234	ltpFR	18	10	-1	BELLY	119	n/a	n/a	-1	n/a	n/a	n/a	n/a	n/a
1475276	REC_WORD	wordpools/wasnorm_wordpool_less_exclusions.txt	LTP234	ltpFR	18	10	-1	TREE	1502	n/a	n/a	-1	n/a	n/a	n/a	n/a	n/a
1476259	REC_WORD	wordpools/wasnorm_wordpool_less_exclusions.txt	LTP234	ltpFR	18	10	-1	GARDEN	623	n/a	n/a	-1	n/a	n/a	n/a	n/a	n/a
1480834	REC_WORD	wordpools/wasnorm_wordpool_less_exclusions.txt	LTP234	ltpFR	18	10	-1	MONASTERY	907	n/a	n/a	-1	n/a	n/a	n/a	n/a	n/a
1492497	REC_WORD	wordpools/wasnorm_wordpool_less_exclusions.txt	LTP234	ltpFR	18	10	-1	FATHER	554	n/a	n/a	-1	n/a	n/a	n/a	n/a	n/a
1528730	REC_WORD_VV	wordpools/wasnorm_wordpool_less_exclusions.txt	LTP234	ltpFR	18	10	n/a	<>	-1	n/a	n/a	n/a	n/a	n/a	n/a	n/a	n/a
1558385	WORD	wordpools/wasnorm_wordpool_less_exclusions.txt	LTP234	ltpFR	18	11	-1	BEAN	105	n/a	n/a	-1	1.0	1.0	1	upper	Verdana.ttf
1562216	WORD	wordpools/wasnorm_wordpool_less_exclusions.txt	LTP234	ltpFR	18	11	-1	MUFFIN	929	n/a	n/a	-1	1.0	1.0	1	upper	Verdana.ttf
1566298	WORD	wordpools/wasnorm_wordpool_less_exclusions.txt	LTP234	ltpFR	18	11	-1	CLIPPERS	324	n/a	n/a	-1	1.0	1.0	1	upper	Verdana.ttf
1570364	WORD	wordpools/wasnorm_wordpool_less_exclusions.txt	LTP234	ltpFR	18	11	-1	DOCK	477	n/a	n/a	-1	1.0	1.0	1	upper	Verdana.ttf
1574562	WORD	wordpools/wasnorm_wordpool_less_exclusions.txt	LTP234	ltpFR	18	11	-1	BAY	102	n/a	n/a	-1	1.0	1.0	1	upper	Verdana.ttf
1578690	WORD	wordpools/wasnorm_wordpool_less_exclusions.txt	LTP234	ltpFR	18	11	-1	TUXEDO	1525	n/a	n/a	-1	1.0	1.0	1	upper	Verdana.ttf
1582609	WORD	wordpools/wasnorm_wordpool_less_exclusions.txt	LTP234	ltpFR	18	11	-1	TWEEZERS	1526	n/a	n/a	-1	1.0	1.0	1	upper	Verdana.ttf
1586809	WORD	wordpools/wasnorm_wordpool_less_exclusions.txt	LTP234	ltpFR	18	11	-1	HOSE	720	n/a	n/a	-1	1.0	1.0	1	upper	Verdana.ttf
1590941	WORD	wordpools/wasnorm_wordpool_less_exclusions.txt	LTP234	ltpFR	18	11	-1	NECK	939	n/a	n/a	-1	1.0	1.0	1	upper	Verdana.ttf
1595157	WORD	wordpools/wasnorm_wordpool_less_exclusions.txt	LTP234	ltpFR	18	11	-1	PANTS	1010	n/a	n/a	-1	1.0	1.0	1	upper	Verdana.ttf
1599005	WORD	wordpools/wasnorm_wordpool_less_exclusions.txt	LTP234	ltpFR	18	11	-1	POLYESTER	1100	n/a	n/a	-1	1.0	1.0	1	upper	Verdana.ttf
1602853	WORD	wordpools/wasnorm_wordpool_less_exclusions.txt	LTP234	ltpFR	18	11	-1	CAFETERIA	217	n/a	n/a	-1	1.0	1.0	1	upper	Verdana.ttf
1606881	WORD	wordpools/wasnorm_wordpool_less_exclusions.txt	LTP234	ltpFR	18	11	-1	SODA	1341	n/a	n/a	-1	1.0	1.0	1	upper	Verdana.ttf
1611080	WORD	wordpools/wasnorm_wordpool_less_exclusions.txt	LTP234	ltpFR	18	11	-1	SKIN	1318	n/a	n/a	-1	1.0	1.0	1	upper	Verdana.ttf
1615015	WORD	wordpools/wasnorm_wordpool_less_exclusions.txt	LTP234	ltpFR	18	11	-1	DIVER	476	n/a	n/a	-1	1.0	1.0	1	upper	Verdana.ttf
1619014	WORD	wordpools/wasnorm_wordpool_less_exclusions.txt	LTP234	ltpFR	18	11	-1	FOUNTAIN	597	n/a	n/a	-1	1.0	1.0	1	upper	Verdana.ttf
1624887	REC_START	n/a	LTP234	ltpFR	18	11	n/a	n/a	n/a	n/a	n/a	n/a	n/a	n/a	n/a	n/a	n/a
1624887	REC_WORD	wordpools/wasnorm_wordpool_less_exclusions.txt	LTP234	ltpFR	18	11	-1	HOSE	720	n/a	n/a	-1	n/a	n/a	n/a	n/a	n/a
1625286	REC_WORD	wordpools/wasnorm_wordpool_less_exclusions.txt	LTP234	ltpFR	18	11	-1	CAFETERIA	217	n/a	n/a	-1	n/a	n/a	n/a	n/a	n/a
1626049	REC_WORD	wordpools/wasnorm_wordpool_less_exclusions.txt	LTP234	ltpFR	18	11	-1	NECK	939	n/a	n/a	-1	n/a	n/a	n/a	n/a	n/a
1626287	REC_WORD	wordpools/wasnorm_wordpool_less_exclusions.txt	LTP234	ltpFR	18	11	-1	SKIN	1318	n/a	n/a	-1	n/a	n/a	n/a	n/a	n/a
1626872	REC_WORD	wordpools/wasnorm_wordpool_less_exclusions.txt	LTP234	ltpFR	18	11	-1	DIVER	476	n/a	n/a	-1	n/a	n/a	n/a	n/a	n/a
1640436	REC_WORD	wordpools/wasnorm_wordpool_less_exclusions.txt	LTP234	ltpFR	18	11	-1	TUXEDO	1525	n/a	n/a	-1	n/a	n/a	n/a	n/a	n/a
1705606	WORD	wordpools/wasnorm_wordpool_less_exclusions.txt	LTP234	ltpFR	18	12	1	PATIO	1025	n/a	n/a	0	0.422607421875	0.5869140625	0	upper	amplitud.ttf
1709819	WORD	wordpools/wasnorm_wordpool_less_exclusions.txt	LTP234	ltpFR	18	12	1	HINGE	709	n/a	n/a	0	0.422607421875	0.5869140625	0	upper	amplitud.ttf
1713736	WORD	wordpools/wasnorm_wordpool_less_exclusions.txt	LTP234	ltpFR	18	12	1	PASTRY	1022	n/a	n/a	0	0.422607421875	0.5869140625	0	upper	amplitud.ttf
1717937	WORD	wordpools/wasnorm_wordpool_less_exclusions.txt	LTP234	ltpFR	18	12	1	CANDY	230	n/a	n/a	0	0.422607421875	0.5869140625	0	upper	amplitud.ttf
1722152	WORD	wordpools/wasnorm_wordpool_less_exclusions.txt	LTP234	ltpFR	18	12	1	MONGOOSE	909	n/a	n/a	1	0.422607421875	0.5869140625	0	upper	amplitud.ttf
1726298	WORD	wordpools/wasnorm_wordpool_less_exclusions.txt	LTP234	ltpFR	18	12	1	AUTHOR	61	n/a	n/a	1	0.422607421875	0.5869140625	0	upper	amplitud.ttf
1730483	WORD	wordpools/wasnorm_wordpool_less_exclusions.txt	LTP234	ltpFR	18	12	0	TELEVISION	1447	n/a	n/a	1	0.57763671875	0.412841796875	1	lower	zerothre.ttf
1734378	WORD	wordpools/wasnorm_wordpool_less_exclusions.txt	LTP234	ltpFR	18	12	0	ANTENNA	28	n/a	n/a	0	0.57763671875	0.412841796875	1	lower	zerothre.ttf
1738263	WORD	wordpools/wasnorm_wordpool_less_exclusions.txt	LTP234	ltpFR	18	12	0	PARROT	1015	n/a	n/a	0	0.57763671875	0.412841796875	1	lower	zerothre.ttf
1742362	WORD	wordpools/wasnorm_wordpool_less_exclusions.txt	LTP234	ltpFR	18	12	0	SHARK	1275	n/a	n/a	1	0.57763671875	0.412841796875	1	lower	zerothre.ttf
1746573	WORD	wordpools/wasnorm_wordpool_less_exclusions.txt	LTP234	ltpFR	18	12	1	SHORE	1291	n/a	n/a	0	0.422607421875	0.5869140625	0	upper	amplitud.ttf
1750672	WORD	wordpools/wasnorm_wordpool_less_exclusions.txt	LTP234	ltpFR	18	12	1	HAM	678	n/a	n/a	0	0.422607421875	0.5869140625	0	upper	amplitud.ttf
1754557	WORD	wordpools/wasnorm_wordpool_less_exclusions.txt	LTP234	ltpFR	18	12	0	HAT	690	n/a	n/a	0	0.57763671875	0.412841796875	1	lower	zerothre.ttf
1758773	WORD	wordpools/wasnorm_wordpool_less_exclusions.txt	LTP234	ltpFR	18	12	0	BONE	148	n/a	n/a	0	0.57763671875	0.412841796875	1	lower	zerothre.ttf
1762990	WORD	wordpools/wasnorm_wordpool_less_exclusions.txt	LTP234	ltpFR	18	12	0	BASKET	95	n/a	n/a	0	0.57763671875	0.412841796875	1	lower	zerothre.ttf
1767185	WORD	wordpools/wasnorm_wordpool_less_exclusions.txt	LTP234	ltpFR	18	12	0	SHRIMP	1297	n/a	n/a	0	0.57763671875	0.412841796875	1	lower	zerothre.ttf
1773112	REC_START	n/a	LTP234	ltpFR	18	12	n/a	n/a	n/a	n/a	n/a	n/a	n/a	n/a	n/a	n/a	n/a
1774189	REC_WORD	wordpools/wasnorm_wordpool_less_exclusions.txt	LTP234	ltpFR	18	12	1	PATIO	1025	n/a	n/a	0	n/a	n/a	n/a	n/a	n/a
1775651	REC_WORD	wordpools/wasnorm_wordpool_less_exclusions.txt	LTP234	ltpFR	18	12	0	BASKET	95	n/a	n/a	0	n/a	n/a	n/a	n/a	n/a
1776145	REC_WORD	wordpools/wasnorm_wordpool_less_exclusions.txt	LTP234	ltpFR	18	12	0	SHRIMP	1297	n/a	n/a	0	n/a	n/a	n/a	n/a	n/a
1776818	REC_WORD	wordpools/wasnorm_wordpool_less_exclusions.txt	LTP234	ltpFR	18	12	1	HAM	678	n/a	n/a	0	n/a	n/a	n/a	n/a	n/a
1777342	REC_WORD	wordpools/wasnorm_wordpool_less_exclusions.txt	LTP234	ltpFR	18	12	0	BONE	148	n/a	n/a	0	n/a	n/a	n/a	n/a	n/a
1779961	REC_WORD	wordpools/wasnorm_wordpool_less_exclusions.txt	LTP234	ltpFR	18	12	1	AUTHOR	61	n/a	n/a	1	n/a	n/a	n/a	n/a	n/a
1784611	REC_WORD	wordpools/wasnorm_wordpool_less_exclusions.txt	LTP234	ltpFR	18	12	1	MONGOOSE	909	n/a	n/a	1	n/a	n/a	n/a	n/a	n/a
1848775	REST_REWET	n/a	LTP234	ltpFR	18	12	n/a	n/a	n/a	n/a	n/a	n/a	n/a	n/a	n/a	n/a	n/a
2466106	WORD	wordpools/wasnorm_wordpool_less_exclusions.txt	LTP234	ltpFR	18	13	1	WILDERNESS	1610	n/a	n/a	0	0.422607421875	0.5869140625	0	upper	amplitud.ttf
2470305	WORD	wordpools/wasnorm_wordpool_less_exclusions.txt	LTP234	ltpFR	18	13	1	EMERALD	528	n/a	n/a	0	0.422607421875	0.5869140625	0	upper	amplitud.ttf
2474354	WORD	wordpools/wasnorm_wordpool_less_exclusions.txt	LTP234	ltpFR	18	13	1	COW	393	n/a	n/a	1	0.422607421875	0.5869140625	0	upper	amplitud.ttf
2478498	WORD	wordpools/wasnorm_wordpool_less_exclusions.txt	LTP234	ltpFR	18	13	1	VACUUM	1543	n/a	n/a	0	0.422607421875	0.5869140625	0	upper	amplitud.ttf
2482334	WORD	wordpools/wasnorm_wordpool_less_exclusions.txt	LTP234	ltpFR	18	13	1	DUSTPAN	509	n/a	n/a	0	0.422607421875	0.5869140625	0	upper	amplitud.ttf
2486345	WORD	wordpools/wasnorm_wordpool_less_exclusions.txt	LTP234	ltpFR	18	13	1	PEACH	1031	n/a	n/a	0	0.422607421875	0.5869140625	0	upper	amplitud.ttf
2490414	WORD	wordpools/wasnorm_wordpool_less_exclusions.txt	LTP234	ltpFR	18	13	1	HOOD	714	n/a	n/a	0	0.422607421875	0.5869140625	0	upper	amplitud.ttf
2494279	WORD	wordpools/wasnorm_wordpool_less_exclusions.txt	LTP234	ltpFR	18	13	1	PREACHER	1119	n/a	n/a	1	0.422607421875	0.5869140625	0	upper	amplitud.ttf
2498294	WORD	wordpools/wasnorm_wordpool_less_exclusions.txt	LTP234	ltpFR	18	13	1	BULL	193	n/a	n/a	1	0.422607421875	0.5869140625	0	upper	amplitud.ttf
2502293	WORD	wordpools/wasnorm_wordpool_less_exclusions.txt	LTP234	ltpFR	18	13	1	TRAY	1498	n/a	n/a	0	0.422607421875	0.5869140625	0	upper	amplitud.ttf
2506274	WORD	wordpools/wasnorm_wordpool_less_exclusions.txt	LTP234	ltpFR	18	13	1	CAB	209	n/a	n/a	1	0.422607421875	0.5869140625	0	upper	amplitud.ttf
2510390	WORD	wordpools/wasnorm_wordpool_less_exclusions.txt	LTP234	ltpFR	18	13	1	IDOL	733	n/a	n/a	1	0.422607421875	0.5869140625	0	upper	amplitud.ttf
2514355	WORD	wordpools/wasnorm_wordpool_less_exclusions.txt	LTP234	ltpFR	18	13	1	FRIEND	606	n/a	n/a	1	0.422607421875	0.5869140625	0	upper	amplitud.ttf
2518536	WORD	wordpools/wasnorm_wordpool_less_exclusions.txt	LTP234	ltpFR	18	13	1	FAMILY	550	n/a	n/a	1	0.422607421875	0.5869140625	0	upper	amplitud.ttf
2522484	WORD	wordpools/wasnorm_wordpool_less_exclusions.txt	LTP234	ltpFR	18	13	1	CHEMIST	292	n/a	n/a	1	0.422607421875	0.5869140625	0	upper	amplitud.ttf
2526445	WORD	wordpools/wasnorm_wordpool_less_exclusions.txt	LTP234	ltpFR	18	13	1	WAITRESS	1581	n/a	n/a	1	0.422607421875	0.5869140625	0	upper	amplitud.ttf
2532223	REC_START	n/a	LTP234	ltpFR	18	13	n/a	n/a	n/a	n/a	n/a	n/a	n/a	n/a	n/a	n/a	n/a
2536458	REC_WORD	wordpools/wasnorm_wordpool_less_exclusions.txt	LTP234	ltpFR	18	13	1	WILDERNESS	1610	n/a	n/a	0	n/a	n/a	n/a	n/a	n/a
2537636	REC_WORD	wordpools/wasnorm_wordpool_less_exclusions.txt	LTP234	ltpFR	18	13	1	EMERALD	528	n/a	n/a	0	n/a	n/a	n/a	n/a	n/a
2538543	REC_WORD	wordpools/wasnorm_wordpool_less_exclusions.txt	LTP234	ltpFR	18	13	1	COW	393	n/a	n/a	1	n/a	n/a	n/a	n/a	n/a
2541028	REC_WORD	wordpools/wasnorm_wordpool_less_exclusions.txt	LTP234	ltpFR	18	13	1	VACUUM	1543	n/a	n/a	0	n/a	n/a	n/a	n/a	n/a
2544520	REC_WORD	wordpools/wasnorm_wordpool_less_exclusions.txt	LTP234	ltpFR	18	13	1	PEACH	1031	n/a	n/a	0	n/a	n/a	n/a	n/a	n/a
2546076	REC_WORD	wordpools/wasnorm_wordpool_less_exclusions.txt	LTP234	ltpFR	18	13	1	HOOD	714	n/a	n/a	0	n/a	n/a	n/a	n/a	n/a
2546929	REC_WORD	wordpools/wasnorm_wordpool_less_exclusions.txt	LTP234	ltpFR	18	13	1	PREACHER	1119	n/a	n/a	1	n/a	n/a	n/a	n/a	n/a
2550960	REC_WORD	wordpools/wasnorm_wordpool_less_exclusions.txt	LTP234	ltpFR	18	13	1	BULL	193	n/a	n/a	1	n/a	n/a	n/a	n/a	n/a
2557750	REC_WORD	wordpools/wasnorm_wordpool_less_exclusions.txt	LTP234	ltpFR	18	13	1	TRAY	1498	n/a	n/a	0	n/a	n/a	n/a	n/a	n/a
2558967	REC_WORD	wordpools/wasnorm_wordpool_less_exclusions.txt	LTP234	ltpFR	18	13	1	CAB	209	n/a	n/a	1	n/a	n/a	n/a	n/a	n/a
2560184	REC_WORD	wordpools/wasnorm_wordpool_less_exclusions.txt	LTP234	ltpFR	18	13	1	IDOL	733	n/a	n/a	1	n/a	n/a	n/a	n/a	n/a
2560822	REC_WORD	wordpools/wasnorm_wordpool_less_exclusions.txt	LTP234	ltpFR	18	13	1	FRIEND	606	n/a	n/a	1	n/a	n/a	n/a	n/a	n/a
2561670	REC_WORD	wordpools/wasnorm_wordpool_less_exclusions.txt	LTP234	ltpFR	18	13	1	FAMILY	550	n/a	n/a	1	n/a	n/a	n/a	n/a	n/a
2569917	REC_WORD	wordpools/wasnorm_wordpool_less_exclusions.txt	LTP234	ltpFR	18	13	1	CHEMIST	292	n/a	n/a	1	n/a	n/a	n/a	n/a	n/a
2571399	REC_WORD	wordpools/wasnorm_wordpool_less_exclusions.txt	LTP234	ltpFR	18	13	1	WAITRESS	1581	n/a	n/a	1	n/a	n/a	n/a	n/a	n/a
2611839	WORD	wordpools/wasnorm_wordpool_less_exclusions.txt	LTP234	ltpFR	18	14	0	KLEENEX	782	n/a	n/a	0	0.57763671875	0.412841796875	1	lower	zerothre.ttf
2615954	WORD	wordpools/wasnorm_wordpool_less_exclusions.txt	LTP234	ltpFR	18	14	0	SIDEWALK	1303	n/a	n/a	1	0.57763671875	0.412841796875	1	lower	zerothre.ttf
2619865	WORD	wordpools/wasnorm_wordpool_less_exclusions.txt	LTP234	ltpFR	18	14	0	LION	827	n/a	n/a	1	0.57763671875	0.412841796875	1	lower	zerothre.ttf
2624068	WORD	wordpools/wasnorm_wordpool_less_exclusions.txt	LTP234	ltpFR	18	14	0	EUROPE	541	n/a	n/a	1	0.57763671875	0.412841796875	1	lower	zerothre.ttf
2628280	WORD	wordpools/wasnorm_wordpool_less_exclusions.txt	LTP234	ltpFR	18	14	0	SANDPAPER	1231	n/a	n/a	0	0.57763671875	0.412841796875	1	lower	zerothre.ttf
2632482	WORD	wordpools/wasnorm_wordpool_less_exclusions.txt	LTP234	ltpFR	18	14	0	ORCHID	982	n/a	n/a	1	0.57763671875	0.412841796875	1	lower	zerothre.ttf
2636497	WORD	wordpools/wasnorm_wordpool_less_exclusions.txt	LTP234	ltpFR	18	14	0	HOUSE	725	n/a	n/a	1	0.57763671875	0.412841796875	1	lower	zerothre.ttf
2640680	WORD	wordpools/wasnorm_wordpool_less_exclusions.txt	LTP234	ltpFR	18	14	0	BASEMENT	94	n/a	n/a	1	0.57763671875	0.412841796875	1	lower	zerothre.ttf
2644876	WORD	wordpools/wasnorm_wordpool_less_exclusions.txt	LTP234	ltpFR	18	14	0	NAVIGATOR	938	n/a	n/a	1	0.57763671875	0.412841796875	1	lower	zerothre.ttf
2648841	WORD	wordpools/wasnorm_wordpool_less_exclusions.txt	LTP234	ltpFR	18	14	0	FACTORY	548	n/a	n/a	1	0.57763671875	0.412841796875	1	lower	zerothre.ttf
2653011	WORD	wordpools/wasnorm_wordpool_less_exclusions.txt	LTP234	ltpFR	18	14	0	ARCHITECT	36	n/a	n/a	1	0.57763671875	0.412841796875	1	lower	zerothre.ttf
2657072	WORD	wordpools/wasnorm_wordpool_less_exclusions.txt	LTP234	ltpFR	18	14	0	VEST	1559	n/a	n/a	0	0.57763671875	0.412841796875	1	lower	zerothre.ttf
2661208	WORD	wordpools/wasnorm_wordpool_less_exclusions.txt	LTP234	ltpFR	18	14	0	COLLAR	345	n/a	n/a	0	0.57763671875	0.412841796875	1	lower	zerothre.ttf
2665190	WORD	wordpools/wasnorm_wordpool_less_exclusions.txt	LTP234	ltpFR	18	14	0	DAISY	435	n/a	n/a	0	0.57763671875	0.412841796875	1	lower	zerothre.ttf
2669268	WORD	wordpools/wasnorm_wordpool_less_exclusions.txt	LTP234	ltpFR	18	14	0	HELICOPTER	701	n/a	n/a	1	0.57763671875	0.412841796875	1	lower	zerothre.ttf
2673387	WORD	wordpools/wasnorm_wordpool_less_exclusions.txt	LTP234	ltpFR	18	14	0	ROD	1203	n/a	n/a	0	0.57763671875	0.412841796875	1	lower	zerothre.ttf
2679106	REC_START	n/a	LTP234	ltpFR	18	14	n/a	n/a	n/a	n/a	n/a	n/a	n/a	n/a	n/a	n/a	n/a
2679330	REC_WORD	wordpools/wasnorm_wordpool_less_exclusions.txt	LTP234	ltpFR	18	14	0	ROD	1203	n/a	n/a	0	n/a	n/a	n/a	n/a	n/a
2679869	REC_WORD	wordpools/wasnorm_wordpool_less_exclusions.txt	LTP234	ltpFR	18	14	0	HELICOPTER	701	n/a	n/a	1	n/a	n/a	n/a	n/a	n/a
2680832	REC_WORD	wordpools/wasnorm_wordpool_less_exclusions.txt	LTP234	ltpFR	18	14	0	DAISY	435	n/a	n/a	0	n/a	n/a	n/a	n/a	n/a
2681844	REC_WORD	wordpools/wasnorm_wordpool_less_exclusions.txt	LTP234	ltpFR	18	14	0	ARCHITECT	36	n/a	n/a	1	n/a	n/a	n/a	n/a	n/a
2682523	REC_WORD	wordpools/wasnorm_wordpool_less_exclusions.txt	LTP234	ltpFR	18	14	0	FACTORY	548	n/a	n/a	1	n/a	n/a	n/a	n/a	n/a
2687841	REC_WORD	wordpools/wasnorm_wordpool_less_exclusions.txt	LTP234	ltpFR	18	14	0	HOUSE	725	n/a	n/a	1	n/a	n/a	n/a	n/a	n/a
2688325	REC_WORD	wordpools/wasnorm_wordpool_less_exclusions.txt	LTP234	ltpFR	18	14	0	BASEMENT	94	n/a	n/a	1	n/a	n/a	n/a	n/a	n/a
2759027	WORD	wordpools/wasnorm_wordpool_less_exclusions.txt	LTP234	ltpFR	18	15	0	OTTER	986	n/a	n/a	1	0.57763671875	0.412841796875	1	lower	zerothre.ttf
2762941	WORD	wordpools/wasnorm_wordpool_less_exclusions.txt	LTP234	ltpFR	18	15	0	MANAGER	863	n/a	n/a	1	0.57763671875	0.412841796875	1	lower	zerothre.ttf
2766940	WORD	wordpools/wasnorm_wordpool_less_exclusions.txt	LTP234	ltpFR	18	15	0	FLASK	576	n/a	n/a	0	0.57763671875	0.412841796875	1	lower	zerothre.ttf
2770855	WORD	wordpools/wasnorm_wordpool_less_exclusions.txt	LTP234	ltpFR	18	15	1	VIDEO	1564	n/a	n/a	0	0.422607421875	0.5869140625	0	upper	amplitud.ttf
2774849	WORD	wordpools/wasnorm_wordpool_less_exclusions.txt	LTP234	ltpFR	18	15	1	DIRECTOR	471	n/a	n/a	1	0.422607421875	0.5869140625	0	upper	amplitud.ttf
2778700	WORD	wordpools/wasnorm_wordpool_less_exclusions.txt	LTP234	ltpFR	18	15	1	FIREMAN	569	n/a	n/a	1	0.422607421875	0.5869140625	0	upper	amplitud.ttf
2782682	WORD	wordpools/wasnorm_wordpool_less_exclusions.txt	LTP234	ltpFR	18	15	1	ROCKET	1202	n/a	n/a	0	0.422607421875	0.5869140625	0	upper	amplitud.ttf
2786832	WORD	wordpools/wasnorm_wordpool_less_exclusions.txt	LTP234	ltpFR	18	15	0	WINDOW	1611	n/a	n/a	1	0.57763671875	0.412841796875	1	lower	zerothre.ttf
2790691	WORD	wordpools/wasnorm_wordpool_less_exclusions.txt	LTP234	ltpFR	18	15	0	TULIP	1517	n/a	n/a	0	0.57763671875	0.412841796875	1	lower	zerothre.ttf
2794556	WORD	wordpools/wasnorm_wordpool_less_exclusions.txt	LTP234	ltpFR	18	15	0	LAGOON	795	n/a	n/a	1	0.57763671875	0.412841796875	1	lower	zerothre.ttf
2798425	WORD	wordpools/wasnorm_wordpool_less_exclusions.txt	LTP234	ltpFR	18	15	0	CAVE	263	n/a	n/a	1	0.57763671875	0.412841796875	1	lower	zerothre.ttf
2802440	WORD	wordpools/wasnorm_wordpool_less_exclusions.txt	LTP234	ltpFR	18	15	0	CRATER	400	n/a	n/a	1	0.57763671875	0.412841796875	1	lower	zerothre.ttf
2806652	WORD	wordpools/wasnorm_wordpool_less_exclusions.txt	LTP234	ltpFR	18	15	1	BOLT	146	n/a	n/a	0	0.422607421875	0.5869140625	0	upper	amplitud.ttf
2810839	WORD	wordpools/wasnorm_wordpool_less_exclusions.txt	LTP234	ltpFR	18	15	1	EWE	542	n/a	n/a	1	0.422607421875	0.5869140625	0	upper	amplitud.ttf
2815021	WORD	wordpools/wasnorm_wordpool_less_exclusions.txt	LTP234	ltpFR	18	15	1	LILY	821	n/a	n/a	0	0.422607421875	0.5869140625	0	upper	amplitud.ttf
2818865	WORD	wordpools/wasnorm_wordpool_less_exclusions.txt	LTP234	ltpFR	18	15	1	VOLUNTEER	1577	n/a	n/a	1	0.422607421875	0.5869140625	0	upper	amplitud.ttf
2824691	REC_START	n/a	LTP234	ltpFR	18	15	n/a	n/a	n/a	n/a	n/a	n/a	n/a	n/a	n/a	n/a	n/a
2825030	REC_WORD	wordpools/wasnorm_wordpool_less_exclusions.txt	LTP234	ltpFR	18	15	1	VOLUNTEER	1577	n/a	n/a	1	n/a	n/a	n/a	n/a	n/a
2827983	REC_WORD	wordpools/wasnorm_wordpool_less_exclusions.txt	LTP234	ltpFR	18	15	0	CAVE	263	n/a	n/a	1	n/a	n/a	n/a	n/a	n/a
2828502	REC_WORD	wordpools/wasnorm_wordpool_less_exclusions.txt	LTP234	ltpFR	18	15	1	LILY	821	n/a	n/a	0	n/a	n/a	n/a	n/a	n/a
2837731	REC_WORD	wordpools/wasnorm_wordpool_less_exclusions.txt	LTP234	ltpFR	18	15	1	VIDEO	1564	n/a	n/a	0	n/a	n/a	n/a	n/a	n/a
2838205	REC_WORD	wordpools/wasnorm_wordpool_less_exclusions.txt	LTP234	ltpFR	18	15	1	DIRECTOR	471	n/a	n/a	1	n/a	n/a	n/a	n/a	n/a
2839123	REC_WORD	wordpools/wasnorm_wordpool_less_exclusions.txt	LTP234	ltpFR	18	15	1	FIREMAN	569	n/a	n/a	1	n/a	n/a	n/a	n/a	n/a
2879466	REC_WORD	wordpools/wasnorm_wordpool_less_exclusions.txt	LTP234	ltpFR	18	15	0	MANAGER	863	n/a	n/a	1	n/a	n/a	n/a	n/a	n/a
2881577	REC_WORD	wordpools/wasnorm_wordpool_less_exclusions.txt	LTP234	ltpFR	18	15	0	OTTER	986	n/a	n/a	1	n/a	n/a	n/a	n/a	n/a
2903554	WORD	wordpools/wasnorm_wordpool_less_exclusions.txt	LTP234	ltpFR	18	16	1	RATTLE	1170	n/a	n/a	0	0.422607421875	0.5869140625	0	upper	amplitud.ttf
2907469	WORD	wordpools/wasnorm_wordpool_less_exclusions.txt	LTP234	ltpFR	18	16	1	INFANT	737	n/a	n/a	1	0.422607421875	0.5869140625	0	upper	amplitud.ttf
2911513	WORD	wordpools/wasnorm_wordpool_less_exclusions.txt	LTP234	ltpFR	18	16	1	CASTLE	256	n/a	n/a	0	0.422607421875	0.5869140625	0	upper	amplitud.ttf
2915700	WORD	wordpools/wasnorm_wordpool_less_exclusions.txt	LTP234	ltpFR	18	16	1	LABEL	790	n/a	n/a	0	0.422607421875	0.5869140625	0	upper	amplitud.ttf
2919833	WORD	wordpools/wasnorm_wordpool_less_exclusions.txt	LTP234	ltpFR	18	16	1	ZEBRA	1635	n/a	n/a	1	0.422607421875	0.5869140625	0	upper	amplitud.ttf
2923814	WORD	wordpools/wasnorm_wordpool_less_exclusions.txt	LTP234	ltpFR	18	16	1	LINT	826	n/a	n/a	0	0.422607421875	0.5869140625	0	upper	amplitud.ttf
2927796	WORD	wordpools/wasnorm_wordpool_less_exclusions.txt	LTP234	ltpFR	18	16	1	RAKE	1164	n/a	n/a	0	0.422607421875	0.5869140625	0	upper	amplitud.ttf
2931928	WORD	wordpools/wasnorm_wordpool_less_exclusions.txt	LTP234	ltpFR	18	16	1	COCOON	339	n/a	n/a	0	0.422607421875	0.5869140625	0	upper	amplitud.ttf
2936094	WORD	wordpools/wasnorm_wordpool_less_exclusions.txt	LTP234	ltpFR	18	16	1	DESSERT	453	n/a	n/a	0	0.422607421875	0.5869140625	0	upper	amplitud.ttf
2939959	WORD	wordpools/wasnorm_wordpool_less_exclusions.txt	LTP234	ltpFR	18	16	1	CINNAMON	310	n/a	n/a	0	0.422607421875	0.5869140625	0	upper	amplitud.ttf
2944121	WORD	wordpools/wasnorm_wordpool_less_exclusions.txt	LTP234	ltpFR	18	16	1	BUYER	208	n/a	n/a	1	0.422607421875	0.5869140625	0	upper	amplitud.ttf
2948340	WORD	wordpools/wasnorm_wordpool_less_exclusions.txt	LTP234	ltpFR	18	16	1	CUSTOMER	430	n/a	n/a	1	0.422607421875	0.5869140625	0	upper	amplitud.ttf
2952423	WORD	wordpools/wasnorm_wordpool_less_exclusions.txt	LTP234	ltpFR	18	16	1	MATCH	878	n/a	n/a	0	0.422607421875	0.5869140625	0	upper	amplitud.ttf
2956470	WORD	wordpools/wasnorm_wordpool_less_exclusions.txt	LTP234	ltpFR	18	16	1	PARSLEY	1016	n/a	n/a	0	0.422607421875	0.5869140625	0	upper	amplitud.ttf
2960419	WORD	wordpools/wasnorm_wordpool_less_exclusions.txt	LTP234	ltpFR	18	16	1	EMPEROR	529	n/a	n/a	1	0.422607421875	0.5869140625	0	upper	amplitud.ttf
2964467	WORD	wordpools/wasnorm_wordpool_less_exclusions.txt	LTP234	ltpFR	18	16	1	STEW	1380	n/a	n/a	0	0.422607421875	0.5869140625	0	upper	amplitud.ttf
2970503	REC_START	n/a	LTP234	ltpFR	18	16	n/a	n/a	n/a	n/a	n/a	n/a	n/a	n/a	n/a	n/a	n/a
2970503	REC_WORD	wordpools/wasnorm_wordpool_less_exclusions.txt	LTP234	ltpFR	18	16	1	STEW	1380	n/a	n/a	0	n/a	n/a	n/a	n/a	n/a
2971449	REC_WORD	wordpools/wasnorm_wordpool_less_exclusions.txt	LTP234	ltpFR	18	16	1	INFANT	737	n/a	n/a	1	n/a	n/a	n/a	n/a	n/a
2971994	REC_WORD	wordpools/wasnorm_wordpool_less_exclusions.txt	LTP234	ltpFR	18	16	1	RATTLE	1170	n/a	n/a	0	n/a	n/a	n/a	n/a	n/a
2972743	REC_WORD	wordpools/wasnorm_wordpool_less_exclusions.txt	LTP234	ltpFR	18	16	1	CASTLE	256	n/a	n/a	0	n/a	n/a	n/a	n/a	n/a
2977467	REC_WORD	wordpools/wasnorm_wordpool_less_exclusions.txt	LTP234	ltpFR	18	16	1	MATCH	878	n/a	n/a	0	n/a	n/a	n/a	n/a	n/a
2978819	REC_WORD	wordpools/wasnorm_wordpool_less_exclusions.txt	LTP234	ltpFR	18	16	1	BUYER	208	n/a	n/a	1	n/a	n/a	n/a	n/a	n/a
2979353	REC_WORD	wordpools/wasnorm_wordpool_less_exclusions.txt	LTP234	ltpFR	18	16	1	CUSTOMER	430	n/a	n/a	1	n/a	n/a	n/a	n/a	n/a
2986067	REC_WORD	wordpools/wasnorm_wordpool_less_exclusions.txt	LTP234	ltpFR	18	16	1	EMPEROR	529	n/a	n/a	1	n/a	n/a	n/a	n/a	n/a
3000719	REC_WORD	wordpools/wasnorm_wordpool_less_exclusions.txt	LTP234	ltpFR	18	16	1	LABEL	790	n/a	n/a	0	n/a	n/a	n/a	n/a	n/a
3001572	REC_WORD	wordpools/wasnorm_wordpool_less_exclusions.txt	LTP234	ltpFR	18	16	1	ZEBRA	1635	n/a	n/a	1	n/a	n/a	n/a	n/a	n/a
3064094	REC_START	n/a	LTP234	ltpFR	18	1	n/a	n/a	n/a	n/a	n/a	n/a	n/a	n/a	n/a	n/a	n/a
3064143	RECOG_TARGET	n/a	LTP234	ltpFR	18	1	0	CHURCH	307	0	2	1	n/a	n/a	n/a	n/a	n/a
3066034	RECOG_RESP	n/a	LTP234	ltpFR	18	1	0	CHURCH	307	0	n/a	1	n/a	n/a	n/a	n/a	n/a
3066987	RECOG_CONF	n/a	LTP234	ltpFR	18	1	0	CHURCH	307	n/a	2	1	n/a	n/a	n/a	n/a	n/a
3068643	RECOG_TARGET	n/a	LTP234	ltpFR	18	1	1	ZEBRA	1635	1	5	1	n/a	n/a	n/a	n/a	n/a
3069172	RECOG_RESP	n/a	LTP234	ltpFR	18	1	1	ZEBRA	1635	1	n/a	1	n/a	n/a	n/a	n/a	n/a
3069906	RECOG_CONF	n/a	LTP234	ltpFR	18	1	1	ZEBRA	1635	n/a	5	1	n/a	n/a	n/a	n/a	n/a
3071453	RECOG_TARGET	n/a	LTP234	ltpFR	18	1	1	VACUUM	1543	1	5	0	n/a	n/a	n/a	n/a	n/a
3071988	RECOG_RESP	n/a	LTP234	ltpFR	18	1	1	VACUUM	1543	1	n/a	0	n/a	n/a	n/a	n/a	n/a
3072590	RECOG_CONF	n/a	LTP234	ltpFR	18	1	1	VACUUM	1543	n/a	5	0	n/a	n/a	n/a	n/a	n/a
3074131	RECOG_TARGET	n/a	LTP234	ltpFR	18	1	1	INSTRUCTOR	741	1	5	1	n/a	n/a	n/a	n/a	n/a
3074663	RECOG_RESP	n/a	LTP234	ltpFR	18	1	1	INSTRUCTOR	741	1	n/a	1	n/a	n/a	n/a	n/a	n/a
3075302	RECOG_CONF	n/a	LTP234	ltpFR	18	1	1	INSTRUCTOR	741	n/a	5	1	n/a	n/a	n/a	n/a	n/a
3076975	RECOG_TARGET	n/a	LTP234	ltpFR	18	1	-1	PANTS	1010	0	3	-1	n/a	n/a	n/a	n/a	n/a
3077638	RECOG_RESP	n/a	LTP234	ltpFR	18	1	-1	PANTS	1010	0	n/a	-1	n/a	n/a	n/a	n/a	n/a
3078320	RECOG_CONF	n/a	LTP234	ltpFR	18	1	-1	PANTS	1010	n/a	3	-1	n/a	n/a	n/a	n/a	n/a
3079836	RECOG_TARGET	n/a	LTP234	ltpFR	18	1	1	FOOTBALL	591	1	5	0	n/a	n/a	n/a	n/a	n/a
3080441	RECOG_RESP	n/a	LTP234	ltpFR	18	1	1	FOOTBALL	591	1	n/a	0	n/a	n/a	n/a	n/a	n/a
3080974	RECOG_CONF	n/a	LTP234	ltpFR	18	1	1	FOOTBALL	591	n/a	5	0	n/a	n/a	n/a	n/a	n/a
3082545	RECOG_LURE	n/a	LTP234	ltpFR	18	1	n/a	SUPERVISOR	1410	0	3	n/a	n/a	n/a	n/a	n/a	n/a
3083452	RECOG_RESP	n/a	LTP234	ltpFR	18	1	n/a	SUPERVISOR	1410	0	n/a	n/a	n/a	n/a	n/a	n/a	n/a
3084226	RECOG_CONF	n/a	LTP234	ltpFR	18	1	n/a	SUPERVISOR	1410	n/a	3	n/a	n/a	n/a	n/a	n/a	n/a
3085757	RECOG_LURE	n/a	LTP234	ltpFR	18	1	n/a	COOKBOOK	373	0	5	n/a	n/a	n/a	n/a	n/a	n/a
3086545	RECOG_RESP	n/a	LTP234	ltpFR	18	1	n/a	COOKBOOK	373	0	n/a	n/a	n/a	n/a	n/a	n/a	n/a
3087156	RECOG_CONF	n/a	LTP234	ltpFR	18	1	n/a	COOKBOOK	373	n/a	5	n/a	n/a	n/a	n/a	n/a	n/a
3088614	RECOG_TARGET	n/a	LTP234	ltpFR	18	1	-1	BARLEY	88	1	5	-1	n/a	n/a	n/a	n/a	n/a
3089484	RECOG_RESP	n/a	LTP234	ltpFR	18	1	-1	BARLEY	88	1	n/a	-1	n/a	n/a	n/a	n/a	n/a
3089956	RECOG_CONF	n/a	LTP234	ltpFR	18	1	-1	BARLEY	88	n/a	5	-1	n/a	n/a	n/a	n/a	n/a
3091596	RECOG_TARGET	n/a	LTP234	ltpFR	18	1	-1	CAFETERIA	217	1	4	-1	n/a	n/a	n/a	n/a	n/a
3092664	RECOG_RESP	n/a	LTP234	ltpFR	18	1	-1	CAFETERIA	217	1	n/a	-1	n/a	n/a	n/a	n/a	n/a
3093482	RECOG_CONF	n/a	LTP234	ltpFR	18	1	-1	CAFETERIA	217	n/a	4	-1	n/a	n/a	n/a	n/a	n/a
3095060	RECOG_TARGET	n/a	LTP234	ltpFR	18	1	0	LIMB	822	1	5	0	n/a	n/a	n/a	n/a	n/a
3095684	RECOG_RESP	n/a	LTP234	ltpFR	18	1	0	LIMB	822	1	n/a	0	n/a	n/a	n/a	n/a	n/a
3096168	RECOG_CONF	n/a	LTP234	ltpFR	18	1	0	LIMB	822	n/a	5	0	n/a	n/a	n/a	n/a	n/a
3097749	RECOG_TARGET	n/a	LTP234	ltpFR	18	1	0	CARD	243	1	5	0	n/a	n/a	n/a	n/a	n/a
3098350	RECOG_RESP	n/a	LTP234	ltpFR	18	1	0	CARD	243	1	n/a	0	n/a	n/a	n/a	n/a	n/a
3098890	RECOG_CONF	n/a	LTP234	ltpFR	18	1	0	CARD	243	n/a	5	0	n/a	n/a	n/a	n/a	n/a
3100479	RECOG_LURE	n/a	LTP234	ltpFR	18	1	n/a	MONSTER	912	0	3	n/a	n/a	n/a	n/a	n/a	n/a
3101369	RECOG_RESP	n/a	LTP234	ltpFR	18	1	n/a	MONSTER	912	0	n/a	n/a	n/a	n/a	n/a	n/a	n/a
3101998	RECOG_CONF	n/a	LTP234	ltpFR	18	1	n/a	MONSTER	912	n/a	3	n/a	n/a	n/a	n/a	n/a	n/a
3103524	RECOG_TARGET	n/a	LTP234	ltpFR	18	1	1	HAM	678	1	5	0	n/a	n/a	n/a	n/a	n/a
3104368	RECOG_RESP	n/a	LTP234	ltpFR	18	1	1	HAM	678	1	n/a	0	n/a	n/a	n/a	n/a	n/a
3104896	RECOG_CONF	n/a	LTP234	ltpFR	18	1	1	HAM	678	n/a	5	0	n/a	n/a	n/a	n/a	n/a
3106248	RECOG_TARGET	n/a	LTP234	ltpFR	18	1	0	HARP	689	1	5	1	n/a	n/a	n/a	n/a	n/a
3106795	RECOG_RESP	n/a	LTP234	ltpFR	18	1	0	HARP	689	1	n/a	1	n/a	n/a	n/a	n/a	n/a
3107420	RECOG_CONF	n/a	LTP234	ltpFR	18	1	0	HARP	689	n/a	5	1	n/a	n/a	n/a	n/a	n/a
3108946	RECOG_LURE	n/a	LTP234	ltpFR	18	1	n/a	CALF	222	0	2	n/a	n/a	n/a	n/a	n/a	n/a
3109704	RECOG_RESP	n/a	LTP234	ltpFR	18	1	n/a	CALF	222	0	n/a	n/a	n/a	n/a	n/a	n/a	n/a
3110628	RECOG_CONF	n/a	LTP234	ltpFR	18	1	n/a	CALF	222	n/a	2	n/a	n/a	n/a	n/a	n/a	n/a
3112208	RECOG_TARGET	n/a	LTP234	ltpFR	18	1	1	BANQUET	86	1	5	0	n/a	n/a	n/a	n/a	n/a
3112827	RECOG_RESP	n/a	LTP234	ltpFR	18	1	1	BANQUET	86	1	n/a	0	n/a	n/a	n/a	n/a	n/a
3113300	RECOG_CONF	n/a	LTP234	ltpFR	18	1	1	BANQUET	86	n/a	5	0	n/a	n/a	n/a	n/a	n/a
3114885	RECOG_LURE	n/a	LTP234	ltpFR	18	1	n/a	PAWN	1030	0	4	n/a	n/a	n/a	n/a	n/a	n/a
3115724	RECOG_RESP	n/a	LTP234	ltpFR	18	1	n/a	PAWN	1030	0	n/a	n/a	n/a	n/a	n/a	n/a	n/a
3116520	RECOG_CONF	n/a	LTP234	ltpFR	18	1	n/a	PAWN	1030	n/a	4	n/a	n/a	n/a	n/a	n/a	n/a
3118043	RECOG_TARGET	n/a	LTP234	ltpFR	18	1	0	ANTENNA	28	1	5	0	n/a	n/a	n/a	n/a	n/a
3118705	RECOG_RESP	n/a	LTP234	ltpFR	18	1	0	ANTENNA	28	1	n/a	0	n/a	n/a	n/a	n/a	n/a
3119243	RECOG_CONF	n/a	LTP234	ltpFR	18	1	0	ANTENNA	28	n/a	5	0	n/a	n/a	n/a	n/a	n/a
3120739	RECOG_TARGET	n/a	LTP234	ltpFR	18	1	-1	OLIVE	975	1	5	-1	n/a	n/a	n/a	n/a	n/a
3121431	RECOG_RESP	n/a	LTP234	ltpFR	18	1	-1	OLIVE	975	1	n/a	-1	n/a	n/a	n/a	n/a	n/a
3122426	RECOG_CONF	n/a	LTP234	ltpFR	18	1	-1	OLIVE	975	n/a	5	-1	n/a	n/a	n/a	n/a	n/a
3125874	REC_START	n/a	LTP234	ltpFR	18	2	n/a	n/a	n/a	n/a	n/a	n/a	n/a	n/a	n/a	n/a	n/a
3125926	RECOG_LURE	n/a	LTP234	ltpFR	18	2	n/a	BOUILLON	154	0	5	n/a	n/a	n/a	n/a	n/a	n/a
3126879	RECOG_RESP	n/a	LTP234	ltpFR	18	2	n/a	BOUILLON	154	0	n/a	n/a	n/a	n/a	n/a	n/a	n/a
3127401	RECOG_CONF	n/a	LTP234	ltpFR	18	2	n/a	BOUILLON	154	n/a	5	n/a	n/a	n/a	n/a	n/a	n/a
3128938	RECOG_LURE	n/a	LTP234	ltpFR	18	2	n/a	BULB	192	0	5	n/a	n/a	n/a	n/a	n/a	n/a
3129828	RECOG_RESP	n/a	LTP234	ltpFR	18	2	n/a	BULB	192	0	n/a	n/a	n/a	n/a	n/a	n/a	n/a
3130389	RECOG_CONF	n/a	LTP234	ltpFR	18	2	n/a	BULB	192	n/a	5	n/a	n/a	n/a	n/a	n/a	n/a
3131798	RECOG_TARGET	n/a	LTP234	ltpFR	18	2	0	BRIEFCASE	175	1	5	1	n/a	n/a	n/a	n/a	n/a
3132487	RECOG_RESP	n/a	LTP234	ltpFR	18	2	0	BRIEFCASE	175	1	n/a	1	n/a	n/a	n/a	n/a	n/a
3132929	RECOG_CONF	n/a	LTP234	ltpFR	18	2	0	BRIEFCASE	175	n/a	5	1	n/a	n/a	n/a	n/a	n/a
3134291	RECOG_TARGET	n/a	LTP234	ltpFR	18	2	1	TRAY	1498	1	5	0	n/a	n/a	n/a	n/a	n/a
3134827	RECOG_RESP	n/a	LTP234	ltpFR	18	2	1	TRAY	1498	1	n/a	0	n/a	n/a	n/a	n/a	n/a
3135390	RECOG_CONF	n/a	LTP234	ltpFR	18	2	1	TRAY	1498	n/a	5	0	n/a	n/a	n/a	n/a	n/a
3136749	RECOG_TARGET	n/a	LTP234	ltpFR	18	2	1	CORPORATION	382	1	5	0	n/a	n/a	n/a	n/a	n/a
3137367	RECOG_RESP	n/a	LTP234	ltpFR	18	2	1	CORPORATION	382	1	n/a	0	n/a	n/a	n/a	n/a	n/a
3137941	RECOG_CONF	n/a	LTP234	ltpFR	18	2	1	CORPORATION	382	n/a	5	0	n/a	n/a	n/a	n/a	n/a
3139473	RECOG_LURE	n/a	LTP234	ltpFR	18	2	n/a	LODGE	839	0	3	n/a	n/a	n/a	n/a	n/a	n/a
3141066	RECOG_RESP	n/a	LTP234	ltpFR	18	2	n/a	LODGE	839	0	n/a	n/a	n/a	n/a	n/a	n/a	n/a
3141664	RECOG_CONF	n/a	LTP234	ltpFR	18	2	n/a	LODGE	839	n/a	3	n/a	n/a	n/a	n/a	n/a	n/a
3143208	RECOG_TARGET	n/a	LTP234	ltpFR	18	2	0	CORN	381	1	5	0	n/a	n/a	n/a	n/a	n/a
3143808	RECOG_RESP	n/a	LTP234	ltpFR	18	2	0	CORN	381	1	n/a	0	n/a	n/a	n/a	n/a	n/a
3144407	RECOG_CONF	n/a	LTP234	ltpFR	18	2	0	CORN	381	n/a	5	0	n/a	n/a	n/a	n/a	n/a
3145935	RECOG_TARGET	n/a	LTP234	ltpFR	18	2	1	FOLDER	588	1	5	0	n/a	n/a	n/a	n/a	n/a
3146535	RECOG_RESP	n/a	LTP234	ltpFR	18	2	1	FOLDER	588	1	n/a	0	n/a	n/a	n/a	n/a	n/a
3147111	RECOG_CONF	n/a	LTP234	ltpFR	18	2	1	FOLDER	588	n/a	5	0	n/a	n/a	n/a	n/a	n/a
3148694	RECOG_TARGET	n/a	LTP234	ltpFR	18	2	1	TIDE	1465	1	5	0	n/a	n/a	n/a	n/a	n/a
3149268	RECOG_RESP	n/a	LTP234	ltpFR	18	2	1	TIDE	1465	1	n/a	0	n/a	n/a	n/a	n/a	n/a
3149854	RECOG_CONF	n/a	LTP234	ltpFR	18	2	1	TIDE	1465	n/a	5	0	n/a	n/a	n/a	n/a	n/a
3151322	RECOG_LURE	n/a	LTP234	ltpFR	18	2	n/a	PEDAL	1037	0	2	n/a	n/a	n/a	n/a	n/a	n/a
3152399	RECOG_RESP	n/a	LTP234	ltpFR	18	2	n/a	PEDAL	1037	0	n/a	n/a	n/a	n/a	n/a	n/a	n/a
3153264	RECOG_CONF	n/a	LTP234	ltpFR	18	2	n/a	PEDAL	1037	n/a	2	n/a	n/a	n/a	n/a	n/a	n/a
3154902	RECOG_TARGET	n/a	LTP234	ltpFR	18	2	1	EMERALD	528	1	5	0	n/a	n/a	n/a	n/a	n/a
3155469	RECOG_RESP	n/a	LTP234	ltpFR	18	2	1	EMERALD	528	1	n/a	0	n/a	n/a	n/a	n/a	n/a
3156160	RECOG_CONF	n/a	LTP234	ltpFR	18	2	1	EMERALD	528	n/a	5	0	n/a	n/a	n/a	n/a	n/a
3157611	RECOG_TARGET	n/a	LTP234	ltpFR	18	2	1	RIVER	1194	1	5	0	n/a	n/a	n/a	n/a	n/a
3158199	RECOG_RESP	n/a	LTP234	ltpFR	18	2	1	RIVER	1194	1	n/a	0	n/a	n/a	n/a	n/a	n/a
3158684	RECOG_CONF	n/a	LTP234	ltpFR	18	2	1	RIVER	1194	n/a	5	0	n/a	n/a	n/a	n/a	n/a
3160218	RECOG_TARGET	n/a	LTP234	ltpFR	18	2	0	SALESMAN	1225	1	5	1	n/a	n/a	n/a	n/a	n/a
3160774	RECOG_RESP	n/a	LTP234	ltpFR	18	2	0	SALESMAN	1225	1	n/a	1	n/a	n/a	n/a	n/a	n/a
3161268	RECOG_CONF	n/a	LTP234	ltpFR	18	2	0	SALESMAN	1225	n/a	5	1	n/a	n/a	n/a	n/a	n/a
3162828	RECOG_TARGET	n/a	LTP234	ltpFR	18	2	1	PEACH	1031	1	5	0	n/a	n/a	n/a	n/a	n/a
3163450	RECOG_RESP	n/a	LTP234	ltpFR	18	2	1	PEACH	1031	1	n/a	0	n/a	n/a	n/a	n/a	n/a
3163888	RECOG_CONF	n/a	LTP234	ltpFR	18	2	1	PEACH	1031	n/a	5	0	n/a	n/a	n/a	n/a	n/a
3165591	RECOG_TARGET	n/a	LTP234	ltpFR	18	2	0	OPERA	978	0	3	1	n/a	n/a	n/a	n/a	n/a
3166061	RECOG_RESP_VV	n/a	LTP234	ltpFR	18	2	0	OPERA	978	1	n/a	1	n/a	n/a	n/a	n/a	n/a
3166773	RECOG_RESP	n/a	LTP234	ltpFR	18	2	0	OPERA	978	0	n/a	1	n/a	n/a	n/a	n/a	n/a
3167416	RECOG_CONF	n/a	LTP234	ltpFR	18	2	0	OPERA	978	n/a	3	1	n/a	n/a	n/a	n/a	n/a
3169106	RECOG_TARGET	n/a	LTP234	ltpFR	18	2	1	QUAIL	1147	1	5	1	n/a	n/a	n/a	n/a	n/a
3169932	RECOG_RESP	n/a	LTP234	ltpFR	18	2	1	QUAIL	1147	1	n/a	1	n/a	n/a	n/a	n/a	n/a
3170438	RECOG_CONF	n/a	LTP234	ltpFR	18	2	1	QUAIL	1147	n/a	5	1	n/a	n/a	n/a	n/a	n/a
3171966	RECOG_TARGET	n/a	LTP234	ltpFR	18	2	-1	SPACE	1345	1	5	-1	n/a	n/a	n/a	n/a	n/a
3172552	RECOG_RESP	n/a	LTP234	ltpFR	18	2	-1	SPACE	1345	1	n/a	-1	n/a	n/a	n/a	n/a	n/a
3173111	RECOG_CONF	n/a	LTP234	ltpFR	18	2	-1	SPACE	1345	n/a	5	-1	n/a	n/a	n/a	n/a	n/a
3174609	RECOG_TARGET	n/a	LTP234	ltpFR	18	2	0	SHRIMP	1297	1	5	0	n/a	n/a	n/a	n/a	n/a
3175115	RECOG_RESP	n/a	LTP234	ltpFR	18	2	0	SHRIMP	1297	1	n/a	0	n/a	n/a	n/a	n/a	n/a
3175616	RECOG_CONF	n/a	LTP234	ltpFR	18	2	0	SHRIMP	1297	n/a	5	0	n/a	n/a	n/a	n/a	n/a
3177052	RECOG_LURE	n/a	LTP234	ltpFR	18	2	n/a	SIREN	1310	0	5	n/a	n/a	n/a	n/a	n/a	n/a
3177745	RECOG_RESP	n/a	LTP234	ltpFR	18	2	n/a	SIREN	1310	0	n/a	n/a	n/a	n/a	n/a	n/a	n/a
3178210	RECOG_CONF	n/a	LTP234	ltpFR	18	2	n/a	SIREN	1310	n/a	5	n/a	n/a	n/a	n/a	n/a	n/a
3179674	RECOG_TARGET	n/a	LTP234	ltpFR	18	2	-1	TAG	1429	1	5	-1	n/a	n/a	n/a	n/a	n/a
3180256	RECOG_RESP	n/a	LTP234	ltpFR	18	2	-1	TAG	1429	1	n/a	-1	n/a	n/a	n/a	n/a	n/a
3180734	RECOG_CONF	n/a	LTP234	ltpFR	18	2	-1	TAG	1429	n/a	5	-1	n/a	n/a	n/a	n/a	n/a
3183730	REC_START	n/a	LTP234	ltpFR	18	3	n/a	n/a	n/a	n/a	n/a	n/a	n/a	n/a	n/a	n/a	n/a
3183790	RECOG_TARGET	n/a	LTP234	ltpFR	18	3	-1	GOVERNOR	651	1	5	-1	n/a	n/a	n/a	n/a	n/a
3184828	RECOG_RESP	n/a	LTP234	ltpFR	18	3	-1	GOVERNOR	651	1	n/a	-1	n/a	n/a	n/a	n/a	n/a
3185331	RECOG_CONF	n/a	LTP234	ltpFR	18	3	-1	GOVERNOR	651	n/a	5	-1	n/a	n/a	n/a	n/a	n/a
3186604	RECOG_TARGET	n/a	LTP234	ltpFR	18	3	0	LOAF	835	1	5	0	n/a	n/a	n/a	n/a	n/a
3187223	RECOG_RESP	n/a	LTP234	ltpFR	18	3	0	LOAF	835	1	n/a	0	n/a	n/a	n/a	n/a	n/a
3187688	RECOG_CONF	n/a	LTP234	ltpFR	18	3	0	LOAF	835	n/a	5	0	n/a	n/a	n/a	n/a	n/a
3189014	RECOG_TARGET	n/a	LTP234	ltpFR	18	3	-1	ELF	525	1	5	-1	n/a	n/a	n/a	n/a	n/a
3189525	RECOG_RESP	n/a	LTP234	ltpFR	18	3	-1	ELF	525	1	n/a	-1	n/a	n/a	n/a	n/a	n/a
3190001	RECOG_CONF	n/a	LTP234	ltpFR	18	3	-1	ELF	525	n/a	5	-1	n/a	n/a	n/a	n/a	n/a
3191556	RECOG_TARGET	n/a	LTP234	ltpFR	18	3	0	NEWSSTAND	949	1	5	1	n/a	n/a	n/a	n/a	n/a
3192151	RECOG_RESP	n/a	LTP234	ltpFR	18	3	0	NEWSSTAND	949	1	n/a	1	n/a	n/a	n/a	n/a	n/a
3192625	RECOG_CONF	n/a	LTP234	ltpFR	18	3	0	NEWSSTAND	949	n/a	5	1	n/a	n/a	n/a	n/a	n/a
3194133	RECOG_TARGET	n/a	LTP234	ltpFR	18	3	-1	ENCYCLOPEDIA	533	1	5	-1	n/a	n/a	n/a	n/a	n/a
3194645	RECOG_RESP	n/a	LTP234	ltpFR	18	3	-1	ENCYCLOPEDIA	533	1	n/a	-1	n/a	n/a	n/a	n/a	n/a
3195129	RECOG_CONF	n/a	LTP234	ltpFR	18	3	-1	ENCYCLOPEDIA	533	n/a	5	-1	n/a	n/a	n/a	n/a	n/a
3196675	RECOG_TARGET	n/a	LTP234	ltpFR	18	3	0	PIER	1063	1	5	1	n/a	n/a	n/a	n/a	n/a
3197325	RECOG_RESP	n/a	LTP234	ltpFR	18	3	0	PIER	1063	1	n/a	1	n/a	n/a	n/a	n/a	n/a
3197803	RECOG_CONF	n/a	LTP234	ltpFR	18	3	0	PIER	1063	n/a	5	1	n/a	n/a	n/a	n/a	n/a
3199236	RECOG_TARGET	n/a	LTP234	ltpFR	18	3	-1	APRON	35	1	5	-1	n/a	n/a	n/a	n/a	n/a
3199804	RECOG_RESP	n/a	LTP234	ltpFR	18	3	-1	APRON	35	1	n/a	-1	n/a	n/a	n/a	n/a	n/a
3200297	RECOG_CONF	n/a	LTP234	ltpFR	18	3	-1	APRON	35	n/a	5	-1	n/a	n/a	n/a	n/a	n/a
3201694	RECOG_TARGET	n/a	LTP234	ltpFR	18	3	0	WOLF	1619	1	5	1	n/a	n/a	n/a	n/a	n/a
3202207	RECOG_RESP	n/a	LTP234	ltpFR	18	3	0	WOLF	1619	1	n/a	1	n/a	n/a	n/a	n/a	n/a
3202732	RECOG_CONF	n/a	LTP234	ltpFR	18	3	0	WOLF	1619	n/a	5	1	n/a	n/a	n/a	n/a	n/a
3204171	RECOG_TARGET	n/a	LTP234	ltpFR	18	3	1	MONGOOSE	909	1	5	1	n/a	n/a	n/a	n/a	n/a
3204799	RECOG_RESP	n/a	LTP234	ltpFR	18	3	1	MONGOOSE	909	1	n/a	1	n/a	n/a	n/a	n/a	n/a
3205316	RECOG_CONF	n/a	LTP234	ltpFR	18	3	1	MONGOOSE	909	n/a	5	1	n/a	n/a	n/a	n/a	n/a
3206696	RECOG_TARGET	n/a	LTP234	ltpFR	18	3	1	COIN	343	1	5	0	n/a	n/a	n/a	n/a	n/a
3207262	RECOG_RESP	n/a	LTP234	ltpFR	18	3	1	COIN	343	1	n/a	0	n/a	n/a	n/a	n/a	n/a
3207750	RECOG_CONF	n/a	LTP234	ltpFR	18	3	1	COIN	343	n/a	5	0	n/a	n/a	n/a	n/a	n/a
3209307	RECOG_TARGET	n/a	LTP234	ltpFR	18	3	1	MOUSE	925	1	5	0	n/a	n/a	n/a	n/a	n/a
3209805	RECOG_RESP	n/a	LTP234	ltpFR	18	3	1	MOUSE	925	1	n/a	0	n/a	n/a	n/a	n/a	n/a
3210284	RECOG_CONF	n/a	LTP234	ltpFR	18	3	1	MOUSE	925	n/a	5	0	n/a	n/a	n/a	n/a	n/a
3211829	RECOG_LURE	n/a	LTP234	ltpFR	18	3	n/a	HEATER	698	0	5	n/a	n/a	n/a	n/a	n/a	n/a
3212514	RECOG_RESP	n/a	LTP234	ltpFR	18	3	n/a	HEATER	698	0	n/a	n/a	n/a	n/a	n/a	n/a	n/a
3212988	RECOG_CONF	n/a	LTP234	ltpFR	18	3	n/a	HEATER	698	n/a	5	n/a	n/a	n/a	n/a	n/a	n/a
3214289	RECOG_LURE	n/a	LTP234	ltpFR	18	3	n/a	TOMB	1477	0	5	n/a	n/a	n/a	n/a	n/a	n/a
3215082	RECOG_RESP	n/a	LTP234	ltpFR	18	3	n/a	TOMB	1477	0	n/a	n/a	n/a	n/a	n/a	n/a	n/a
3215592	RECOG_CONF	n/a	LTP234	ltpFR	18	3	n/a	TOMB	1477	n/a	5	n/a	n/a	n/a	n/a	n/a	n/a
3217003	RECOG_LURE	n/a	LTP234	ltpFR	18	3	n/a	CYCLONE	431	0	5	n/a	n/a	n/a	n/a	n/a	n/a
3217716	RECOG_RESP	n/a	LTP234	ltpFR	18	3	n/a	CYCLONE	431	0	n/a	n/a	n/a	n/a	n/a	n/a	n/a
3218135	RECOG_CONF	n/a	LTP234	ltpFR	18	3	n/a	CYCLONE	431	n/a	5	n/a	n/a	n/a	n/a	n/a	n/a
3219729	RECOG_LURE	n/a	LTP234	ltpFR	18	3	n/a	PICKLE	1059	0	5	n/a	n/a	n/a	n/a	n/a	n/a
3220294	RECOG_RESP	n/a	LTP234	ltpFR	18	3	n/a	PICKLE	1059	0	n/a	n/a	n/a	n/a	n/a	n/a	n/a
3220811	RECOG_CONF	n/a	LTP234	ltpFR	18	3	n/a	PICKLE	1059	n/a	5	n/a	n/a	n/a	n/a	n/a	n/a
3222185	RECOG_TARGET	n/a	LTP234	ltpFR	18	3	0	TRACTOR	1493	1	5	1	n/a	n/a	n/a	n/a	n/a
3222813	RECOG_RESP	n/a	LTP234	ltpFR	18	3	0	TRACTOR	1493	1	n/a	1	n/a	n/a	n/a	n/a	n/a
3223325	RECOG_CONF	n/a	LTP234	ltpFR	18	3	0	TRACTOR	1493	n/a	5	1	n/a	n/a	n/a	n/a	n/a
3224781	RECOG_TARGET	n/a	LTP234	ltpFR	18	3	1	WRITER	1627	1	5	1	n/a	n/a	n/a	n/a	n/a
3225358	RECOG_RESP	n/a	LTP234	ltpFR	18	3	1	WRITER	1627	1	n/a	1	n/a	n/a	n/a	n/a	n/a
3225809	RECOG_CONF	n/a	LTP234	ltpFR	18	3	1	WRITER	1627	n/a	5	1	n/a	n/a	n/a	n/a	n/a
3227187	RECOG_TARGET	n/a	LTP234	ltpFR	18	3	1	EMPEROR	529	1	5	1	n/a	n/a	n/a	n/a	n/a
3227774	RECOG_RESP	n/a	LTP234	ltpFR	18	3	1	EMPEROR	529	1	n/a	1	n/a	n/a	n/a	n/a	n/a
3228323	RECOG_CONF	n/a	LTP234	ltpFR	18	3	1	EMPEROR	529	n/a	5	1	n/a	n/a	n/a	n/a	n/a
3229700	RECOG_TARGET	n/a	LTP234	ltpFR	18	3	-1	POLYESTER	1100	1	5	-1	n/a	n/a	n/a	n/a	n/a
3230312	RECOG_RESP	n/a	LTP234	ltpFR	18	3	-1	POLYESTER	1100	1	n/a	-1	n/a	n/a	n/a	n/a	n/a
3230818	RECOG_CONF	n/a	LTP234	ltpFR	18	3	-1	POLYESTER	1100	n/a	5	-1	n/a	n/a	n/a	n/a	n/a
3232177	RECOG_TARGET	n/a	LTP234	ltpFR	18	3	1	BOLT	146	1	5	0	n/a	n/a	n/a	n/a	n/a
3232791	RECOG_RESP	n/a	LTP234	ltpFR	18	3	1	BOLT	146	1	n/a	0	n/a	n/a	n/a	n/a	n/a
3233272	RECOG_CONF	n/a	LTP234	ltpFR	18	3	1	BOLT	146	n/a	5	0	n/a	n/a	n/a	n/a	n/a
3236753	REC_START	n/a	LTP234	ltpFR	18	4	n/a	n/a	n/a	n/a	n/a	n/a	n/a	n/a	n/a	n/a	n/a
3236811	RECOG_TARGET	n/a	LTP234	ltpFR	18	4	-1	PUMPKIN	1142	1	5	-1	n/a	n/a	n/a	n/a	n/a
3237416	RECOG_RESP	n/a	LTP234	ltpFR	18	4	-1	PUMPKIN	1142	1	n/a	-1	n/a	n/a	n/a	n/a	n/a
3237842	RECOG_CONF	n/a	LTP234	ltpFR	18	4	-1	PUMPKIN	1142	n/a	5	-1	n/a	n/a	n/a	n/a	n/a
3239404	RECOG_TARGET	n/a	LTP234	ltpFR	18	4	0	TYPEWRITER	1531	1	5	1	n/a	n/a	n/a	n/a	n/a
3240172	RECOG_RESP	n/a	LTP234	ltpFR	18	4	0	TYPEWRITER	1531	1	n/a	1	n/a	n/a	n/a	n/a	n/a
3240649	RECOG_CONF	n/a	LTP234	ltpFR	18	4	0	TYPEWRITER	1531	n/a	5	1	n/a	n/a	n/a	n/a	n/a
3242114	RECOG_TARGET	n/a	LTP234	ltpFR	18	4	1	SHORE	1291	1	5	0	n/a	n/a	n/a	n/a	n/a
3242517	RECOG_RESP	n/a	LTP234	ltpFR	18	4	1	SHORE	1291	1	n/a	0	n/a	n/a	n/a	n/a	n/a
3243044	RECOG_CONF	n/a	LTP234	ltpFR	18	4	1	SHORE	1291	n/a	5	0	n/a	n/a	n/a	n/a	n/a
3244673	RECOG_TARGET	n/a	LTP234	ltpFR	18	4	-1	SHRINE	1298	1	5	-1	n/a	n/a	n/a	n/a	n/a
3245215	RECOG_RESP	n/a	LTP234	ltpFR	18	4	-1	SHRINE	1298	1	n/a	-1	n/a	n/a	n/a	n/a	n/a
3245688	RECOG_CONF	n/a	LTP234	ltpFR	18	4	-1	SHRINE	1298	n/a	5	-1	n/a	n/a	n/a	n/a	n/a
3247150	RECOG_TARGET	n/a	LTP234	ltpFR	18	4	0	ARCHITECT	36	1	5	1	n/a	n/a	n/a	n/a	n/a
3247678	RECOG_RESP	n/a	LTP234	ltpFR	18	4	0	ARCHITECT	36	1	n/a	1	n/a	n/a	n/a	n/a	n/a
3248172	RECOG_CONF	n/a	LTP234	ltpFR	18	4	0	ARCHITECT	36	n/a	5	1	n/a	n/a	n/a	n/a	n/a
3249524	RECOG_TARGET	n/a	LTP234	ltpFR	18	4	0	PIRATE	1074	1	5	1	n/a	n/a	n/a	n/a	n/a
3250142	RECOG_RESP	n/a	LTP234	ltpFR	18	4	0	PIRATE	1074	1	n/a	1	n/a	n/a	n/a	n/a	n/a
3250591	RECOG_CONF	n/a	LTP234	ltpFR	18	4	0	PIRATE	1074	n/a	5	1	n/a	n/a	n/a	n/a	n/a
3252031	RECOG_TARGET	n/a	LTP234	ltpFR	18	4	-1	CRITIC	410	1	5	-1	n/a	n/a	n/a	n/a	n/a
3252701	RECOG_RESP	n/a	LTP234	ltpFR	18	4	-1	CRITIC	410	1	n/a	-1	n/a	n/a	n/a	n/a	n/a
3253171	RECOG_CONF	n/a	LTP234	ltpFR	18	4	-1	CRITIC	410	n/a	5	-1	n/a	n/a	n/a	n/a	n/a
3254577	RECOG_TARGET	n/a	LTP234	ltpFR	18	4	-1	FAIRY	549	1	5	-1	n/a	n/a	n/a	n/a	n/a
3255221	RECOG_RESP	n/a	LTP234	ltpFR	18	4	-1	FAIRY	549	1	n/a	-1	n/a	n/a	n/a	n/a	n/a
3255725	RECOG_CONF	n/a	LTP234	ltpFR	18	4	-1	FAIRY	549	n/a	5	-1	n/a	n/a	n/a	n/a	n/a
3257003	RECOG_TARGET	n/a	LTP234	ltpFR	18	4	-1	DOCK	477	0	3	-1	n/a	n/a	n/a	n/a	n/a
3257915	RECOG_RESP	n/a	LTP234	ltpFR	18	4	-1	DOCK	477	0	n/a	-1	n/a	n/a	n/a	n/a	n/a
3258470	RECOG_CONF	n/a	LTP234	ltpFR	18	4	-1	DOCK	477	n/a	3	-1	n/a	n/a	n/a	n/a	n/a
3259927	RECOG_TARGET	n/a	LTP234	ltpFR	18	4	1	MOB	904	1	5	1	n/a	n/a	n/a	n/a	n/a
3260465	RECOG_RESP	n/a	LTP234	ltpFR	18	4	1	MOB	904	1	n/a	1	n/a	n/a	n/a	n/a	n/a
3260923	RECOG_CONF	n/a	LTP234	ltpFR	18	4	1	MOB	904	n/a	5	1	n/a	n/a	n/a	n/a	n/a
3262190	RECOG_LURE	n/a	LTP234	ltpFR	18	4	n/a	QUARTER	1148	0	4	n/a	n/a	n/a	n/a	n/a	n/a
3263028	RECOG_RESP_VV	n/a	LTP234	ltpFR	18	4	n/a	QUARTER	1148	1	n/a	n/a	n/a	n/a	n/a	n/a	n/a
3263534	RECOG_RESP	n/a	LTP234	ltpFR	18	4	n/a	QUARTER	1148	0	n/a	n/a	n/a	n/a	n/a	n/a	n/a
3264185	RECOG_CONF	n/a	LTP234	ltpFR	18	4	n/a	QUARTER	1148	n/a	4	n/a	n/a	n/a	n/a	n/a	n/a
3265685	RECOG_TARGET	n/a	LTP234	ltpFR	18	4	1	SCARF	1246	1	5	0	n/a	n/a	n/a	n/a	n/a
3266342	RECOG_RESP	n/a	LTP234	ltpFR	18	4	1	SCARF	1246	1	n/a	0	n/a	n/a	n/a	n/a	n/a
3266810	RECOG_CONF	n/a	LTP234	ltpFR	18	4	1	SCARF	1246	n/a	5	0	n/a	n/a	n/a	n/a	n/a
3268296	RECOG_TARGET	n/a	LTP234	ltpFR	18	4	1	VOLUNTEER	1577	1	5	1	n/a	n/a	n/a	n/a	n/a
3268828	RECOG_RESP	n/a	LTP234	ltpFR	18	4	1	VOLUNTEER	1577	1	n/a	1	n/a	n/a	n/a	n/a	n/a
3269304	RECOG_CONF	n/a	LTP234	ltpFR	18	4	1	VOLUNTEER	1577	n/a	5	1	n/a	n/a	n/a	n/a	n/a
3270617	RECOG_TARGET	n/a	LTP234	ltpFR	18	4	0	BOAT	144	1	5	1	n/a	n/a	n/a	n/a	n/a
3271555	RECOG_RESP	n/a	LTP234	ltpFR	18	4	0	BOAT	144	1	n/a	1	n/a	n/a	n/a	n/a	n/a
3272044	RECOG_CONF	n/a	LTP234	ltpFR	18	4	0	BOAT	144	n/a	5	1	n/a	n/a	n/a	n/a	n/a
3273565	RECOG_TARGET	n/a	LTP234	ltpFR	18	4	0	KNEE	784	1	5	0	n/a	n/a	n/a	n/a	n/a
3274218	RECOG_RESP	n/a	LTP234	ltpFR	18	4	0	KNEE	784	1	n/a	0	n/a	n/a	n/a	n/a	n/a
3274801	RECOG_CONF	n/a	LTP234	ltpFR	18	4	0	KNEE	784	n/a	5	0	n/a	n/a	n/a	n/a	n/a
3276172	RECOG_LURE	n/a	LTP234	ltpFR	18	4	n/a	BULLETIN	195	0	5	n/a	n/a	n/a	n/a	n/a	n/a
3276964	RECOG_RESP	n/a	LTP234	ltpFR	18	4	n/a	BULLETIN	195	0	n/a	n/a	n/a	n/a	n/a	n/a	n/a
3277555	RECOG_CONF	n/a	LTP234	ltpFR	18	4	n/a	BULLETIN	195	n/a	5	n/a	n/a	n/a	n/a	n/a	n/a
3279036	RECOG_TARGET	n/a	LTP234	ltpFR	18	4	1	RATTLE	1170	1	5	0	n/a	n/a	n/a	n/a	n/a
3279603	RECOG_RESP	n/a	LTP234	ltpFR	18	4	1	RATTLE	1170	1	n/a	0	n/a	n/a	n/a	n/a	n/a
3280169	RECOG_CONF	n/a	LTP234	ltpFR	18	4	1	RATTLE	1170	n/a	5	0	n/a	n/a	n/a	n/a	n/a
3281595	RECOG_TARGET	n/a	LTP234	ltpFR	18	4	1	CASTLE	256	1	5	0	n/a	n/a	n/a	n/a	n/a
3282131	RECOG_RESP	n/a	LTP234	ltpFR	18	4	1	CASTLE	256	1	n/a	0	n/a	n/a	n/a	n/a	n/a
3282588	RECOG_CONF	n/a	LTP234	ltpFR	18	4	1	CASTLE	256	n/a	5	0	n/a	n/a	n/a	n/a	n/a
3284055	RECOG_TARGET	n/a	LTP234	ltpFR	18	4	-1	NUCLEUS	961	1	5	-1	n/a	n/a	n/a	n/a	n/a
3284692	RECOG_RESP	n/a	LTP234	ltpFR	18	4	-1	NUCLEUS	961	1	n/a	-1	n/a	n/a	n/a	n/a	n/a
3285248	RECOG_CONF	n/a	LTP234	ltpFR	18	4	-1	NUCLEUS	961	n/a	5	-1	n/a	n/a	n/a	n/a	n/a
3286664	RECOG_TARGET	n/a	LTP234	ltpFR	18	4	0	RIB	1188	1	5	0	n/a	n/a	n/a	n/a	n/a
3287349	RECOG_RESP	n/a	LTP234	ltpFR	18	4	0	RIB	1188	1	n/a	0	n/a	n/a	n/a	n/a	n/a
3287882	RECOG_CONF	n/a	LTP234	ltpFR	18	4	0	RIB	1188	n/a	5	0	n/a	n/a	n/a	n/a	n/a
3291839	REC_START	n/a	LTP234	ltpFR	18	5	n/a	n/a	n/a	n/a	n/a	n/a	n/a	n/a	n/a	n/a	n/a
3291885	RECOG_TARGET	n/a	LTP234	ltpFR	18	5	1	COW	393	1	5	1	n/a	n/a	n/a	n/a	n/a
3292532	RECOG_RESP	n/a	LTP234	ltpFR	18	5	1	COW	393	1	n/a	1	n/a	n/a	n/a	n/a	n/a
3293071	RECOG_CONF	n/a	LTP234	ltpFR	18	5	1	COW	393	n/a	5	1	n/a	n/a	n/a	n/a	n/a
3294657	RECOG_TARGET	n/a	LTP234	ltpFR	18	5	0	SYRUP	1425	1	5	0	n/a	n/a	n/a	n/a	n/a
3295160	RECOG_RESP	n/a	LTP234	ltpFR	18	5	0	SYRUP	1425	1	n/a	0	n/a	n/a	n/a	n/a	n/a
3295675	RECOG_CONF	n/a	LTP234	ltpFR	18	5	0	SYRUP	1425	n/a	5	0	n/a	n/a	n/a	n/a	n/a
3297172	RECOG_TARGET	n/a	LTP234	ltpFR	18	5	0	SHORTCAKE	1292	1	5	0	n/a	n/a	n/a	n/a	n/a
3297774	RECOG_RESP	n/a	LTP234	ltpFR	18	5	0	SHORTCAKE	1292	1	n/a	0	n/a	n/a	n/a	n/a	n/a
3298269	RECOG_CONF	n/a	LTP234	ltpFR	18	5	0	SHORTCAKE	1292	n/a	5	0	n/a	n/a	n/a	n/a	n/a
3299760	RECOG_TARGET	n/a	LTP234	ltpFR	18	5	1	SUIT	1402	1	5	0	n/a	n/a	n/a	n/a	n/a
3300355	RECOG_RESP	n/a	LTP234	ltpFR	18	5	1	SUIT	1402	1	n/a	0	n/a	n/a	n/a	n/a	n/a
3300798	RECOG_CONF	n/a	LTP234	ltpFR	18	5	1	SUIT	1402	n/a	5	0	n/a	n/a	n/a	n/a	n/a
3302354	RECOG_TARGET	n/a	LTP234	ltpFR	18	5	-1	CROWN	415	1	5	-1	n/a	n/a	n/a	n/a	n/a
3302921	RECOG_RESP	n/a	LTP234	ltpFR	18	5	-1	CROWN	415	1	n/a	-1	n/a	n/a	n/a	n/a	n/a
3303379	RECOG_CONF	n/a	LTP234	ltpFR	18	5	-1	CROWN	415	n/a	5	-1	n/a	n/a	n/a	n/a	n/a
3304930	RECOG_TARGET	n/a	LTP234	ltpFR	18	5	-1	DONOR	485	1	5	-1	n/a	n/a	n/a	n/a	n/a
3305494	RECOG_RESP	n/a	LTP234	ltpFR	18	5	-1	DONOR	485	1	n/a	-1	n/a	n/a	n/a	n/a	n/a
3305992	RECOG_CONF	n/a	LTP234	ltpFR	18	5	-1	DONOR	485	n/a	5	-1	n/a	n/a	n/a	n/a	n/a
3307627	RECOG_LURE	n/a	LTP234	ltpFR	18	5	n/a	CLIMBER	323	1	5	n/a	n/a	n/a	n/a	n/a	n/a
3309181	RECOG_RESP	n/a	LTP234	ltpFR	18	5	n/a	CLIMBER	323	1	n/a	n/a	n/a	n/a	n/a	n/a	n/a
3310432	RECOG_CONF	n/a	LTP234	ltpFR	18	5	n/a	CLIMBER	323	n/a	5	n/a	n/a	n/a	n/a	n/a	n/a
3312145	RECOG_TARGET	n/a	LTP234	ltpFR	18	5	1	KING	777	1	5	1	n/a	n/a	n/a	n/a	n/a
3312722	RECOG_RESP	n/a	LTP234	ltpFR	18	5	1	KING	777	1	n/a	1	n/a	n/a	n/a	n/a	n/a
3313175	RECOG_CONF	n/a	LTP234	ltpFR	18	5	1	KING	777	n/a	5	1	n/a	n/a	n/a	n/a	n/a
3314720	RECOG_TARGET	n/a	LTP234	ltpFR	18	5	0	PERFUME	1049	1	2	0	n/a	n/a	n/a	n/a	n/a
3315526	RECOG_RESP	n/a	LTP234	ltpFR	18	5	0	PERFUME	1049	1	n/a	0	n/a	n/a	n/a	n/a	n/a
3316458	RECOG_CONF	n/a	LTP234	ltpFR	18	5	0	PERFUME	1049	n/a	2	0	n/a	n/a	n/a	n/a	n/a
3318033	RECOG_TARGET	n/a	LTP234	ltpFR	18	5	1	RADIATOR	1156	1	1	0	n/a	n/a	n/a	n/a	n/a
3318924	RECOG_RESP	n/a	LTP234	ltpFR	18	5	1	RADIATOR	1156	1	n/a	0	n/a	n/a	n/a	n/a	n/a
3320299	RECOG_CONF	n/a	LTP234	ltpFR	18	5	1	RADIATOR	1156	n/a	1	0	n/a	n/a	n/a	n/a	n/a
3321848	RECOG_LURE	n/a	LTP234	ltpFR	18	5	n/a	EXPLOSION	544	0	2	n/a	n/a	n/a	n/a	n/a	n/a
3322876	RECOG_RESP	n/a	LTP234	ltpFR	18	5	n/a	EXPLOSION	544	0	n/a	n/a	n/a	n/a	n/a	n/a	n/a
3323839	RECOG_CONF	n/a	LTP234	ltpFR	18	5	n/a	EXPLOSION	544	n/a	2	n/a	n/a	n/a	n/a	n/a	n/a
3325395	RECOG_LURE	n/a	LTP234	ltpFR	18	5	n/a	CHECKERS	285	0	4	n/a	n/a	n/a	n/a	n/a	n/a
3326702	RECOG_RESP	n/a	LTP234	ltpFR	18	5	n/a	CHECKERS	285	0	n/a	n/a	n/a	n/a	n/a	n/a	n/a
3327403	RECOG_CONF	n/a	LTP234	ltpFR	18	5	n/a	CHECKERS	285	n/a	4	n/a	n/a	n/a	n/a	n/a	n/a
3328891	RECOG_TARGET	n/a	LTP234	ltpFR	18	5	0	KLEENEX	782	1	5	0	n/a	n/a	n/a	n/a	n/a
3329531	RECOG_RESP	n/a	LTP234	ltpFR	18	5	0	KLEENEX	782	1	n/a	0	n/a	n/a	n/a	n/a	n/a
3330027	RECOG_CONF	n/a	LTP234	ltpFR	18	5	0	KLEENEX	782	n/a	5	0	n/a	n/a	n/a	n/a	n/a
3331584	RECOG_LURE	n/a	LTP234	ltpFR	18	5	n/a	CHART	282	0	3	n/a	n/a	n/a	n/a	n/a	n/a
3332372	RECOG_RESP	n/a	LTP234	ltpFR	18	5	n/a	CHART	282	0	n/a	n/a	n/a	n/a	n/a	n/a	n/a
3333280	RECOG_CONF	n/a	LTP234	ltpFR	18	5	n/a	CHART	282	n/a	3	n/a	n/a	n/a	n/a	n/a	n/a
3334662	RECOG_TARGET	n/a	LTP234	ltpFR	18	5	-1	SPOON	1357	1	5	-1	n/a	n/a	n/a	n/a	n/a
3335277	RECOG_RESP	n/a	LTP234	ltpFR	18	5	-1	SPOON	1357	1	n/a	-1	n/a	n/a	n/a	n/a	n/a
3335724	RECOG_CONF	n/a	LTP234	ltpFR	18	5	-1	SPOON	1357	n/a	5	-1	n/a	n/a	n/a	n/a	n/a
3337189	RECOG_TARGET	n/a	LTP234	ltpFR	18	5	0	BANJO	82	1	5	1	n/a	n/a	n/a	n/a	n/a
3337780	RECOG_RESP	n/a	LTP234	ltpFR	18	5	0	BANJO	82	1	n/a	1	n/a	n/a	n/a	n/a	n/a
3338278	RECOG_CONF	n/a	LTP234	ltpFR	18	5	0	BANJO	82	n/a	5	1	n/a	n/a	n/a	n/a	n/a
3339727	RECOG_TARGET	n/a	LTP234	ltpFR	18	5	0	ISLAND	745	1	5	1	n/a	n/a	n/a	n/a	n/a
3340272	RECOG_RESP	n/a	LTP234	ltpFR	18	5	0	ISLAND	745	1	n/a	1	n/a	n/a	n/a	n/a	n/a
3340783	RECOG_CONF	n/a	LTP234	ltpFR	18	5	0	ISLAND	745	n/a	5	1	n/a	n/a	n/a	n/a	n/a
3342124	RECOG_TARGET	n/a	LTP234	ltpFR	18	5	0	VEST	1559	1	5	0	n/a	n/a	n/a	n/a	n/a
3343503	RECOG_RESP	n/a	LTP234	ltpFR	18	5	0	VEST	1559	1	n/a	0	n/a	n/a	n/a	n/a	n/a
3343975	RECOG_CONF	n/a	LTP234	ltpFR	18	5	0	VEST	1559	n/a	5	0	n/a	n/a	n/a	n/a	n/a
3345536	RECOG_TARGET	n/a	LTP234	ltpFR	18	5	0	FACTORY	548	1	5	1	n/a	n/a	n/a	n/a	n/a
3346651	RECOG_RESP	n/a	LTP234	ltpFR	18	5	0	FACTORY	548	1	n/a	1	n/a	n/a	n/a	n/a	n/a
3347108	RECOG_CONF	n/a	LTP234	ltpFR	18	5	0	FACTORY	548	n/a	5	1	n/a	n/a	n/a	n/a	n/a
3348644	RECOG_TARGET	n/a	LTP234	ltpFR	18	5	-1	COMB	351	1	5	-1	n/a	n/a	n/a	n/a	n/a
3349075	RECOG_RESP	n/a	LTP234	ltpFR	18	5	-1	COMB	351	1	n/a	-1	n/a	n/a	n/a	n/a	n/a
3349553	RECOG_CONF	n/a	LTP234	ltpFR	18	5	-1	COMB	351	n/a	5	-1	n/a	n/a	n/a	n/a	n/a
3353825	REC_START	n/a	LTP234	ltpFR	18	6	n/a	n/a	n/a	n/a	n/a	n/a	n/a	n/a	n/a	n/a	n/a
3353885	RECOG_TARGET	n/a	LTP234	ltpFR	18	6	0	TELEVISION	1447	0	2	1	n/a	n/a	n/a	n/a	n/a
3354806	RECOG_RESP	n/a	LTP234	ltpFR	18	6	0	TELEVISION	1447	0	n/a	1	n/a	n/a	n/a	n/a	n/a
3355511	RECOG_CONF	n/a	LTP234	ltpFR	18	6	0	TELEVISION	1447	n/a	2	1	n/a	n/a	n/a	n/a	n/a
3356980	RECOG_LURE	n/a	LTP234	ltpFR	18	6	n/a	CHAPEL	280	0	5	n/a	n/a	n/a	n/a	n/a	n/a
3358011	RECOG_RESP	n/a	LTP234	ltpFR	18	6	n/a	CHAPEL	280	0	n/a	n/a	n/a	n/a	n/a	n/a	n/a
3358619	RECOG_CONF	n/a	LTP234	ltpFR	18	6	n/a	CHAPEL	280	n/a	5	n/a	n/a	n/a	n/a	n/a	n/a
3360008	RECOG_LURE	n/a	LTP234	ltpFR	18	6	n/a	PORK	1108	0	5	n/a	n/a	n/a	n/a	n/a	n/a
3360822	RECOG_RESP	n/a	LTP234	ltpFR	18	6	n/a	PORK	1108	0	n/a	n/a	n/a	n/a	n/a	n/a	n/a
3361313	RECOG_CONF	n/a	LTP234	ltpFR	18	6	n/a	PORK	1108	n/a	5	n/a	n/a	n/a	n/a	n/a	n/a
3362684	RECOG_TARGET	n/a	LTP234	ltpFR	18	6	0	BRAKE	166	1	5	1	n/a	n/a	n/a	n/a	n/a
3363288	RECOG_RESP	n/a	LTP234	ltpFR	18	6	0	BRAKE	166	1	n/a	1	n/a	n/a	n/a	n/a	n/a
3363827	RECOG_CONF	n/a	LTP234	ltpFR	18	6	0	BRAKE	166	n/a	5	1	n/a	n/a	n/a	n/a	n/a
3365157	RECOG_TARGET	n/a	LTP234	ltpFR	18	6	1	LILY	821	1	5	0	n/a	n/a	n/a	n/a	n/a
3365650	RECOG_RESP	n/a	LTP234	ltpFR	18	6	1	LILY	821	1	n/a	0	n/a	n/a	n/a	n/a	n/a
3366142	RECOG_CONF	n/a	LTP234	ltpFR	18	6	1	LILY	821	n/a	5	0	n/a	n/a	n/a	n/a	n/a
3367469	RECOG_TARGET	n/a	LTP234	ltpFR	18	6	0	WAREHOUSE	1588	1	5	1	n/a	n/a	n/a	n/a	n/a
3367948	RECOG_RESP	n/a	LTP234	ltpFR	18	6	0	WAREHOUSE	1588	1	n/a	1	n/a	n/a	n/a	n/a	n/a
3368436	RECOG_CONF	n/a	LTP234	ltpFR	18	6	0	WAREHOUSE	1588	n/a	5	1	n/a	n/a	n/a	n/a	n/a
3369992	RECOG_TARGET	n/a	LTP234	ltpFR	18	6	1	PREACHER	1119	1	5	1	n/a	n/a	n/a	n/a	n/a
3370493	RECOG_RESP	n/a	LTP234	ltpFR	18	6	1	PREACHER	1119	1	n/a	1	n/a	n/a	n/a	n/a	n/a
3370955	RECOG_CONF	n/a	LTP234	ltpFR	18	6	1	PREACHER	1119	n/a	5	1	n/a	n/a	n/a	n/a	n/a
3372422	RECOG_TARGET	n/a	LTP234	ltpFR	18	6	1	ATHLETE	52	1	5	1	n/a	n/a	n/a	n/a	n/a
3372910	RECOG_RESP	n/a	LTP234	ltpFR	18	6	1	ATHLETE	52	1	n/a	1	n/a	n/a	n/a	n/a	n/a
3373465	RECOG_CONF	n/a	LTP234	ltpFR	18	6	1	ATHLETE	52	n/a	5	1	n/a	n/a	n/a	n/a	n/a
3374894	RECOG_TARGET	n/a	LTP234	ltpFR	18	6	0	HIGHWAY	707	1	5	1	n/a	n/a	n/a	n/a	n/a
3375420	RECOG_RESP	n/a	LTP234	ltpFR	18	6	0	HIGHWAY	707	1	n/a	1	n/a	n/a	n/a	n/a	n/a
3375950	RECOG_CONF	n/a	LTP234	ltpFR	18	6	0	HIGHWAY	707	n/a	5	1	n/a	n/a	n/a	n/a	n/a
3377270	RECOG_TARGET	n/a	LTP234	ltpFR	18	6	0	BRANCH	168	1	5	1	n/a	n/a	n/a	n/a	n/a
3377637	RECOG_RESP	n/a	LTP234	ltpFR	18	6	0	BRANCH	168	1	n/a	1	n/a	n/a	n/a	n/a	n/a
3378174	RECOG_CONF	n/a	LTP234	ltpFR	18	6	0	BRANCH	168	n/a	5	1	n/a	n/a	n/a	n/a	n/a
3379494	RECOG_TARGET	n/a	LTP234	ltpFR	18	6	1	INFANT	737	1	5	1	n/a	n/a	n/a	n/a	n/a
3379909	RECOG_RESP	n/a	LTP234	ltpFR	18	6	1	INFANT	737	1	n/a	1	n/a	n/a	n/a	n/a	n/a
3380469	RECOG_CONF	n/a	LTP234	ltpFR	18	6	1	INFANT	737	n/a	5	1	n/a	n/a	n/a	n/a	n/a
3381854	RECOG_TARGET	n/a	LTP234	ltpFR	18	6	1	WAITRESS	1581	1	5	1	n/a	n/a	n/a	n/a	n/a
3382260	RECOG_RESP	n/a	LTP234	ltpFR	18	6	1	WAITRESS	1581	1	n/a	1	n/a	n/a	n/a	n/a	n/a
3382794	RECOG_CONF	n/a	LTP234	ltpFR	18	6	1	WAITRESS	1581	n/a	5	1	n/a	n/a	n/a	n/a	n/a
3384149	RECOG_LURE	n/a	LTP234	ltpFR	18	6	n/a	CHIMNEY	301	0	4	n/a	n/a	n/a	n/a	n/a	n/a
3385140	RECOG_RESP	n/a	LTP234	ltpFR	18	6	n/a	CHIMNEY	301	0	n/a	n/a	n/a	n/a	n/a	n/a	n/a
3385897	RECOG_CONF	n/a	LTP234	ltpFR	18	6	n/a	CHIMNEY	301	n/a	4	n/a	n/a	n/a	n/a	n/a	n/a
3387261	RECOG_TARGET	n/a	LTP234	ltpFR	18	6	0	DOCUMENT	479	1	5	0	n/a	n/a	n/a	n/a	n/a
3387863	RECOG_RESP	n/a	LTP234	ltpFR	18	6	0	DOCUMENT	479	1	n/a	0	n/a	n/a	n/a	n/a	n/a
3388421	RECOG_CONF	n/a	LTP234	ltpFR	18	6	0	DOCUMENT	479	n/a	5	0	n/a	n/a	n/a	n/a	n/a
3389800	RECOG_TARGET	n/a	LTP234	ltpFR	18	6	1	AUTHOR	61	1	5	1	n/a	n/a	n/a	n/a	n/a
3390323	RECOG_RESP	n/a	LTP234	ltpFR	18	6	1	AUTHOR	61	1	n/a	1	n/a	n/a	n/a	n/a	n/a
3390876	RECOG_CONF	n/a	LTP234	ltpFR	18	6	1	AUTHOR	61	n/a	5	1	n/a	n/a	n/a	n/a	n/a
3392310	RECOG_LURE	n/a	LTP234	ltpFR	18	6	n/a	VITAMIN	1574	0	4	n/a	n/a	n/a	n/a	n/a	n/a
3393049	RECOG_RESP	n/a	LTP234	ltpFR	18	6	n/a	VITAMIN	1574	0	n/a	n/a	n/a	n/a	n/a	n/a	n/a
3393629	RECOG_CONF	n/a	LTP234	ltpFR	18	6	n/a	VITAMIN	1574	n/a	4	n/a	n/a	n/a	n/a	n/a	n/a
3395091	RECOG_TARGET	n/a	LTP234	ltpFR	18	6	-1	SODA	1341	0	2	-1	n/a	n/a	n/a	n/a	n/a
3396054	RECOG_RESP	n/a	LTP234	ltpFR	18	6	-1	SODA	1341	0	n/a	-1	n/a	n/a	n/a	n/a	n/a
3396832	RECOG_CONF	n/a	LTP234	ltpFR	18	6	-1	SODA	1341	n/a	2	-1	n/a	n/a	n/a	n/a	n/a
3398236	RECOG_TARGET	n/a	LTP234	ltpFR	18	6	0	CRATER	400	1	5	1	n/a	n/a	n/a	n/a	n/a
3398897	RECOG_RESP	n/a	LTP234	ltpFR	18	6	0	CRATER	400	1	n/a	1	n/a	n/a	n/a	n/a	n/a
3399386	RECOG_CONF	n/a	LTP234	ltpFR	18	6	0	CRATER	400	n/a	5	1	n/a	n/a	n/a	n/a	n/a
3400694	RECOG_TARGET	n/a	LTP234	ltpFR	18	6	-1	CAPITAL	238	1	5	-1	n/a	n/a	n/a	n/a	n/a
3401283	RECOG_RESP	n/a	LTP234	ltpFR	18	6	-1	CAPITAL	238	1	n/a	-1	n/a	n/a	n/a	n/a	n/a
3401891	RECOG_CONF	n/a	LTP234	ltpFR	18	6	-1	CAPITAL	238	n/a	5	-1	n/a	n/a	n/a	n/a	n/a
3403318	RECOG_TARGET	n/a	LTP234	ltpFR	18	6	1	COCOON	339	1	5	0	n/a	n/a	n/a	n/a	n/a
3404072	RECOG_RESP	n/a	LTP234	ltpFR	18	6	1	COCOON	339	1	n/a	0	n/a	n/a	n/a	n/a	n/a
3404664	RECOG_CONF	n/a	LTP234	ltpFR	18	6	1	COCOON	339	n/a	5	0	n/a	n/a	n/a	n/a	n/a
3430817	REC_START	n/a	LTP234	ltpFR	18	7	n/a	n/a	n/a	n/a	n/a	n/a	n/a	n/a	n/a	n/a	n/a
3430875	RECOG_LURE	n/a	LTP234	ltpFR	18	7	n/a	WASHCLOTH	1591	0	5	n/a	n/a	n/a	n/a	n/a	n/a
3431735	RECOG_RESP	n/a	LTP234	ltpFR	18	7	n/a	WASHCLOTH	1591	0	n/a	n/a	n/a	n/a	n/a	n/a	n/a
3432308	RECOG_CONF	n/a	LTP234	ltpFR	18	7	n/a	WASHCLOTH	1591	n/a	5	n/a	n/a	n/a	n/a	n/a	n/a
3433820	RECOG_LURE	n/a	LTP234	ltpFR	18	7	n/a	PRISON	1127	0	5	n/a	n/a	n/a	n/a	n/a	n/a
3434370	RECOG_RESP_VV	n/a	LTP234	ltpFR	18	7	n/a	PRISON	1127	1	n/a	n/a	n/a	n/a	n/a	n/a	n/a
3434889	RECOG_RESP	n/a	LTP234	ltpFR	18	7	n/a	PRISON	1127	0	n/a	n/a	n/a	n/a	n/a	n/a	n/a
3435421	RECOG_CONF	n/a	LTP234	ltpFR	18	7	n/a	PRISON	1127	n/a	5	n/a	n/a	n/a	n/a	n/a	n/a
3436928	RECOG_TARGET	n/a	LTP234	ltpFR	18	7	0	SHORTS	1293	1	5	0	n/a	n/a	n/a	n/a	n/a
3437609	RECOG_RESP	n/a	LTP234	ltpFR	18	7	0	SHORTS	1293	1	n/a	0	n/a	n/a	n/a	n/a	n/a
3438125	RECOG_CONF	n/a	LTP234	ltpFR	18	7	0	SHORTS	1293	n/a	5	0	n/a	n/a	n/a	n/a	n/a
3439604	RECOG_TARGET	n/a	LTP234	ltpFR	18	7	0	SIDEWALK	1303	1	5	1	n/a	n/a	n/a	n/a	n/a
3440548	RECOG_RESP	n/a	LTP234	ltpFR	18	7	0	SIDEWALK	1303	1	n/a	1	n/a	n/a	n/a	n/a	n/a
3441069	RECOG_CONF	n/a	LTP234	ltpFR	18	7	0	SIDEWALK	1303	n/a	5	1	n/a	n/a	n/a	n/a	n/a
3442635	RECOG_TARGET	n/a	LTP234	ltpFR	18	7	-1	TWEEZERS	1526	1	5	-1	n/a	n/a	n/a	n/a	n/a
3443263	RECOG_RESP	n/a	LTP234	ltpFR	18	7	-1	TWEEZERS	1526	1	n/a	-1	n/a	n/a	n/a	n/a	n/a
3443762	RECOG_CONF	n/a	LTP234	ltpFR	18	7	-1	TWEEZERS	1526	n/a	5	-1	n/a	n/a	n/a	n/a	n/a
3445259	RECOG_LURE	n/a	LTP234	ltpFR	18	7	n/a	POWDER	1117	0	2	n/a	n/a	n/a	n/a	n/a	n/a
3446493	RECOG_RESP	n/a	LTP234	ltpFR	18	7	n/a	POWDER	1117	0	n/a	n/a	n/a	n/a	n/a	n/a	n/a
3447149	RECOG_CONF	n/a	LTP234	ltpFR	18	7	n/a	POWDER	1117	n/a	2	n/a	n/a	n/a	n/a	n/a	n/a
3448775	RECOG_TARGET	n/a	LTP234	ltpFR	18	7	0	TENT	1449	1	5	1	n/a	n/a	n/a	n/a	n/a
3449319	RECOG_RESP	n/a	LTP234	ltpFR	18	7	0	TENT	1449	1	n/a	1	n/a	n/a	n/a	n/a	n/a
3449809	RECOG_CONF	n/a	LTP234	ltpFR	18	7	0	TENT	1449	n/a	5	1	n/a	n/a	n/a	n/a	n/a
3451135	RECOG_TARGET	n/a	LTP234	ltpFR	18	7	1	EWE	542	1	5	1	n/a	n/a	n/a	n/a	n/a
3451707	RECOG_RESP	n/a	LTP234	ltpFR	18	7	1	EWE	542	1	n/a	1	n/a	n/a	n/a	n/a	n/a
3452333	RECOG_CONF	n/a	LTP234	ltpFR	18	7	1	EWE	542	n/a	5	1	n/a	n/a	n/a	n/a	n/a
3453577	RECOG_TARGET	n/a	LTP234	ltpFR	18	7	0	CUP	424	1	5	2	n/a	n/a	n/a	n/a	n/a
3454157	RECOG_RESP	n/a	LTP234	ltpFR	18	7	0	CUP	424	1	n/a	2	n/a	n/a	n/a	n/a	n/a
3454596	RECOG_CONF	n/a	LTP234	ltpFR	18	7	0	CUP	424	n/a	5	2	n/a	n/a	n/a	n/a	n/a
3456154	RECOG_TARGET	n/a	LTP234	ltpFR	18	7	-1	DRIVER	499	1	5	-1	n/a	n/a	n/a	n/a	n/a
3456677	RECOG_RESP	n/a	LTP234	ltpFR	18	7	-1	DRIVER	499	1	n/a	-1	n/a	n/a	n/a	n/a	n/a
3457162	RECOG_CONF	n/a	LTP234	ltpFR	18	7	-1	DRIVER	499	n/a	5	-1	n/a	n/a	n/a	n/a	n/a
3458512	RECOG_LURE	n/a	LTP234	ltpFR	18	7	n/a	OUTFIT	988	0	2	n/a	n/a	n/a	n/a	n/a	n/a
3459850	RECOG_RESP_VV	n/a	LTP234	ltpFR	18	7	n/a	OUTFIT	988	1	n/a	n/a	n/a	n/a	n/a	n/a	n/a
3461480	RECOG_RESP	n/a	LTP234	ltpFR	18	7	n/a	OUTFIT	988	0	n/a	n/a	n/a	n/a	n/a	n/a	n/a
3462275	RECOG_CONF	n/a	LTP234	ltpFR	18	7	n/a	OUTFIT	988	n/a	2	n/a	n/a	n/a	n/a	n/a	n/a
3463879	RECOG_TARGET	n/a	LTP234	ltpFR	18	7	0	WINDOW	1611	1	5	1	n/a	n/a	n/a	n/a	n/a
3465133	RECOG_RESP	n/a	LTP234	ltpFR	18	7	0	WINDOW	1611	1	n/a	1	n/a	n/a	n/a	n/a	n/a
3465772	RECOG_CONF	n/a	LTP234	ltpFR	18	7	0	WINDOW	1611	n/a	5	1	n/a	n/a	n/a	n/a	n/a
3467279	RECOG_TARGET	n/a	LTP234	ltpFR	18	7	0	DAISY	435	1	5	0	n/a	n/a	n/a	n/a	n/a
3467833	RECOG_RESP	n/a	LTP234	ltpFR	18	7	0	DAISY	435	1	n/a	0	n/a	n/a	n/a	n/a	n/a
3468317	RECOG_CONF	n/a	LTP234	ltpFR	18	7	0	DAISY	435	n/a	5	0	n/a	n/a	n/a	n/a	n/a
3469738	RECOG_LURE	n/a	LTP234	ltpFR	18	7	n/a	STEM	1376	0	5	n/a	n/a	n/a	n/a	n/a	n/a
3470730	RECOG_RESP	n/a	LTP234	ltpFR	18	7	n/a	STEM	1376	0	n/a	n/a	n/a	n/a	n/a	n/a	n/a
3471290	RECOG_CONF	n/a	LTP234	ltpFR	18	7	n/a	STEM	1376	n/a	5	n/a	n/a	n/a	n/a	n/a	n/a
3472682	RECOG_TARGET	n/a	LTP234	ltpFR	18	7	1	DUSTPAN	509	1	5	0	n/a	n/a	n/a	n/a	n/a
3473859	RECOG_RESP	n/a	LTP234	ltpFR	18	7	1	DUSTPAN	509	1	n/a	0	n/a	n/a	n/a	n/a	n/a
3474424	RECOG_CONF	n/a	LTP234	ltpFR	18	7	1	DUSTPAN	509	n/a	5	0	n/a	n/a	n/a	n/a	n/a
3476012	RECOG_TARGET	n/a	LTP234	ltpFR	18	7	0	OTTER	986	1	5	1	n/a	n/a	n/a	n/a	n/a
3476510	RECOG_RESP	n/a	LTP234	ltpFR	18	7	0	OTTER	986	1	n/a	1	n/a	n/a	n/a	n/a	n/a
3477424	RECOG_CONF	n/a	LTP234	ltpFR	18	7	0	OTTER	986	n/a	5	1	n/a	n/a	n/a	n/a	n/a
3479271	RECOG_TARGET	n/a	LTP234	ltpFR	18	7	1	APPLICATION	34	1	5	0	n/a	n/a	n/a	n/a	n/a
3479794	RECOG_RESP	n/a	LTP234	ltpFR	18	7	1	APPLICATION	34	1	n/a	0	n/a	n/a	n/a	n/a	n/a
3480728	RECOG_CONF	n/a	LTP234	ltpFR	18	7	1	APPLICATION	34	n/a	5	0	n/a	n/a	n/a	n/a	n/a
3482452	RECOG_TARGET	n/a	LTP234	ltpFR	18	7	1	FIREMAN	569	1	5	1	n/a	n/a	n/a	n/a	n/a
3482996	RECOG_RESP	n/a	LTP234	ltpFR	18	7	1	FIREMAN	569	1	n/a	1	n/a	n/a	n/a	n/a	n/a
3483772	RECOG_CONF	n/a	LTP234	ltpFR	18	7	1	FIREMAN	569	n/a	5	1	n/a	n/a	n/a	n/a	n/a
3485497	RECOG_TARGET	n/a	LTP234	ltpFR	18	7	-1	FOUNTAIN	597	1	5	-1	n/a	n/a	n/a	n/a	n/a
3486105	RECOG_RESP	n/a	LTP234	ltpFR	18	7	-1	FOUNTAIN	597	1	n/a	-1	n/a	n/a	n/a	n/a	n/a
3486835	RECOG_CONF	n/a	LTP234	ltpFR	18	7	-1	FOUNTAIN	597	n/a	5	-1	n/a	n/a	n/a	n/a	n/a
3488426	RECOG_TARGET	n/a	LTP234	ltpFR	18	7	0	STREAM	1392	1	5	1	n/a	n/a	n/a	n/a	n/a
3488983	RECOG_RESP	n/a	LTP234	ltpFR	18	7	0	STREAM	1392	1	n/a	1	n/a	n/a	n/a	n/a	n/a
3489628	RECOG_CONF	n/a	LTP234	ltpFR	18	7	0	STREAM	1392	n/a	5	1	n/a	n/a	n/a	n/a	n/a
3492842	REC_START	n/a	LTP234	ltpFR	18	8	n/a	n/a	n/a	n/a	n/a	n/a	n/a	n/a	n/a	n/a	n/a
3492893	RECOG_TARGET	n/a	LTP234	ltpFR	18	8	1	LINT	826	1	5	0	n/a	n/a	n/a	n/a	n/a
3493461	RECOG_RESP	n/a	LTP234	ltpFR	18	8	1	LINT	826	1	n/a	0	n/a	n/a	n/a	n/a	n/a
3494174	RECOG_CONF	n/a	LTP234	ltpFR	18	8	1	LINT	826	n/a	5	0	n/a	n/a	n/a	n/a	n/a
3495648	RECOG_TARGET	n/a	LTP234	ltpFR	18	8	0	SANDPAPER	1231	1	5	0	n/a	n/a	n/a	n/a	n/a
3496075	RECOG_RESP	n/a	LTP234	ltpFR	18	8	0	SANDPAPER	1231	1	n/a	0	n/a	n/a	n/a	n/a	n/a
3496599	RECOG_CONF	n/a	LTP234	ltpFR	18	8	0	SANDPAPER	1231	n/a	5	0	n/a	n/a	n/a	n/a	n/a
3498129	RECOG_TARGET	n/a	LTP234	ltpFR	18	8	-1	NECK	939	1	5	-1	n/a	n/a	n/a	n/a	n/a
3498709	RECOG_RESP	n/a	LTP234	ltpFR	18	8	-1	NECK	939	1	n/a	-1	n/a	n/a	n/a	n/a	n/a
3499232	RECOG_CONF	n/a	LTP234	ltpFR	18	8	-1	NECK	939	n/a	5	-1	n/a	n/a	n/a	n/a	n/a
3500704	RECOG_LURE	n/a	LTP234	ltpFR	18	8	n/a	CATCHER	258	0	5	n/a	n/a	n/a	n/a	n/a	n/a
3501145	RECOG_RESP_VV	n/a	LTP234	ltpFR	18	8	n/a	CATCHER	258	1	n/a	n/a	n/a	n/a	n/a	n/a	n/a
3501678	RECOG_RESP	n/a	LTP234	ltpFR	18	8	n/a	CATCHER	258	0	n/a	n/a	n/a	n/a	n/a	n/a	n/a
3502186	RECOG_CONF	n/a	LTP234	ltpFR	18	8	n/a	CATCHER	258	n/a	5	n/a	n/a	n/a	n/a	n/a	n/a
3503749	RECOG_TARGET	n/a	LTP234	ltpFR	18	8	-1	HOSE	720	1	5	-1	n/a	n/a	n/a	n/a	n/a
3504286	RECOG_RESP	n/a	LTP234	ltpFR	18	8	-1	HOSE	720	1	n/a	-1	n/a	n/a	n/a	n/a	n/a
3504800	RECOG_CONF	n/a	LTP234	ltpFR	18	8	-1	HOSE	720	n/a	5	-1	n/a	n/a	n/a	n/a	n/a
3506109	RECOG_LURE	n/a	LTP234	ltpFR	18	8	n/a	NICOTINE	951	0	5	n/a	n/a	n/a	n/a	n/a	n/a
3506752	RECOG_RESP	n/a	LTP234	ltpFR	18	8	n/a	NICOTINE	951	0	n/a	n/a	n/a	n/a	n/a	n/a	n/a
3507216	RECOG_CONF	n/a	LTP234	ltpFR	18	8	n/a	NICOTINE	951	n/a	5	n/a	n/a	n/a	n/a	n/a	n/a
3509120	RECOG_TARGET	n/a	LTP234	ltpFR	18	8	1	CANDY	230	1	5	0	n/a	n/a	n/a	n/a	n/a
3509622	RECOG_RESP	n/a	LTP234	ltpFR	18	8	1	CANDY	230	1	n/a	0	n/a	n/a	n/a	n/a	n/a
3510093	RECOG_CONF	n/a	LTP234	ltpFR	18	8	1	CANDY	230	n/a	5	0	n/a	n/a	n/a	n/a	n/a
3511712	RECOG_LURE	n/a	LTP234	ltpFR	18	8	n/a	VESSEL	1558	0	5	n/a	n/a	n/a	n/a	n/a	n/a
3512143	RECOG_RESP_VV	n/a	LTP234	ltpFR	18	8	n/a	VESSEL	1558	1	n/a	n/a	n/a	n/a	n/a	n/a	n/a
3512617	RECOG_RESP	n/a	LTP234	ltpFR	18	8	n/a	VESSEL	1558	0	n/a	n/a	n/a	n/a	n/a	n/a	n/a
3513091	RECOG_CONF	n/a	LTP234	ltpFR	18	8	n/a	VESSEL	1558	n/a	5	n/a	n/a	n/a	n/a	n/a	n/a
3514573	RECOG_LURE	n/a	LTP234	ltpFR	18	8	n/a	LIZARD	834	0	5	n/a	n/a	n/a	n/a	n/a	n/a
3515229	RECOG_RESP	n/a	LTP234	ltpFR	18	8	n/a	LIZARD	834	0	n/a	n/a	n/a	n/a	n/a	n/a	n/a
3515745	RECOG_CONF	n/a	LTP234	ltpFR	18	8	n/a	LIZARD	834	n/a	5	n/a	n/a	n/a	n/a	n/a	n/a
3517034	RECOG_TARGET	n/a	LTP234	ltpFR	18	8	1	PATIO	1025	1	5	0	n/a	n/a	n/a	n/a	n/a
3517627	RECOG_RESP	n/a	LTP234	ltpFR	18	8	1	PATIO	1025	1	n/a	0	n/a	n/a	n/a	n/a	n/a
3518169	RECOG_CONF	n/a	LTP234	ltpFR	18	8	1	PATIO	1025	n/a	5	0	n/a	n/a	n/a	n/a	n/a
3519392	RECOG_TARGET	n/a	LTP234	ltpFR	18	8	1	STAPLER	1372	1	5	0	n/a	n/a	n/a	n/a	n/a
3520334	RECOG_RESP	n/a	LTP234	ltpFR	18	8	1	STAPLER	1372	1	n/a	0	n/a	n/a	n/a	n/a	n/a
3520873	RECOG_CONF	n/a	LTP234	ltpFR	18	8	1	STAPLER	1372	n/a	5	0	n/a	n/a	n/a	n/a	n/a
3522303	RECOG_LURE	n/a	LTP234	ltpFR	18	8	n/a	KEEPER	769	1	1	n/a	n/a	n/a	n/a	n/a	n/a
3522820	RECOG_RESP	n/a	LTP234	ltpFR	18	8	n/a	KEEPER	769	1	n/a	n/a	n/a	n/a	n/a	n/a	n/a
3524371	RECOG_CONF	n/a	LTP234	ltpFR	18	8	n/a	KEEPER	769	n/a	1	n/a	n/a	n/a	n/a	n/a	n/a
3525782	RECOG_LURE	n/a	LTP234	ltpFR	18	8	n/a	CARTON	251	0	4	n/a	n/a	n/a	n/a	n/a	n/a
3526805	RECOG_RESP	n/a	LTP234	ltpFR	18	8	n/a	CARTON	251	0	n/a	n/a	n/a	n/a	n/a	n/a	n/a
3527857	RECOG_CONF	n/a	LTP234	ltpFR	18	8	n/a	CARTON	251	n/a	4	n/a	n/a	n/a	n/a	n/a	n/a
3529309	RECOG_TARGET	n/a	LTP234	ltpFR	18	8	1	MATCH	878	1	5	0	n/a	n/a	n/a	n/a	n/a
3529934	RECOG_RESP	n/a	LTP234	ltpFR	18	8	1	MATCH	878	1	n/a	0	n/a	n/a	n/a	n/a	n/a
3530474	RECOG_CONF	n/a	LTP234	ltpFR	18	8	1	MATCH	878	n/a	5	0	n/a	n/a	n/a	n/a	n/a
3531771	RECOG_TARGET	n/a	LTP234	ltpFR	18	8	1	ROCKET	1202	1	5	0	n/a	n/a	n/a	n/a	n/a
3532384	RECOG_RESP	n/a	LTP234	ltpFR	18	8	1	ROCKET	1202	1	n/a	0	n/a	n/a	n/a	n/a	n/a
3532901	RECOG_CONF	n/a	LTP234	ltpFR	18	8	1	ROCKET	1202	n/a	5	0	n/a	n/a	n/a	n/a	n/a
3534399	RECOG_TARGET	n/a	LTP234	ltpFR	18	8	-1	DRIVEWAY	500	1	5	-1	n/a	n/a	n/a	n/a	n/a
3534907	RECOG_RESP	n/a	LTP234	ltpFR	18	8	-1	DRIVEWAY	500	1	n/a	-1	n/a	n/a	n/a	n/a	n/a
3535590	RECOG_CONF	n/a	LTP234	ltpFR	18	8	-1	DRIVEWAY	500	n/a	5	-1	n/a	n/a	n/a	n/a	n/a
3537172	RECOG_TARGET	n/a	LTP234	ltpFR	18	8	1	CHEMIST	292	1	5	1	n/a	n/a	n/a	n/a	n/a
3537805	RECOG_RESP	n/a	LTP234	ltpFR	18	8	1	CHEMIST	292	1	n/a	1	n/a	n/a	n/a	n/a	n/a
3538506	RECOG_CONF	n/a	LTP234	ltpFR	18	8	1	CHEMIST	292	n/a	5	1	n/a	n/a	n/a	n/a	n/a
3539970	RECOG_TARGET	n/a	LTP234	ltpFR	18	8	1	WILDERNESS	1610	1	5	0	n/a	n/a	n/a	n/a	n/a
3540665	RECOG_RESP	n/a	LTP234	ltpFR	18	8	1	WILDERNESS	1610	1	n/a	0	n/a	n/a	n/a	n/a	n/a
3541287	RECOG_CONF	n/a	LTP234	ltpFR	18	8	1	WILDERNESS	1610	n/a	5	0	n/a	n/a	n/a	n/a	n/a
3542729	RECOG_TARGET	n/a	LTP234	ltpFR	18	8	0	BROTHER	179	1	5	1	n/a	n/a	n/a	n/a	n/a
3543454	RECOG_RESP	n/a	LTP234	ltpFR	18	8	0	BROTHER	179	1	n/a	1	n/a	n/a	n/a	n/a	n/a
3544021	RECOG_CONF	n/a	LTP234	ltpFR	18	8	0	BROTHER	179	n/a	5	1	n/a	n/a	n/a	n/a	n/a
3545357	RECOG_LURE	n/a	LTP234	ltpFR	18	8	n/a	RACCOON	1153	0	3	n/a	n/a	n/a	n/a	n/a	n/a
3546397	RECOG_RESP	n/a	LTP234	ltpFR	18	8	n/a	RACCOON	1153	0	n/a	n/a	n/a	n/a	n/a	n/a	n/a
3547065	RECOG_CONF	n/a	LTP234	ltpFR	18	8	n/a	RACCOON	1153	n/a	3	n/a	n/a	n/a	n/a	n/a	n/a
3556432	REC_START	n/a	LTP234	ltpFR	18	9	n/a	n/a	n/a	n/a	n/a	n/a	n/a	n/a	n/a	n/a	n/a
3556481	RECOG_LURE	n/a	LTP234	ltpFR	18	9	n/a	BANNER	85	0	3	n/a	n/a	n/a	n/a	n/a	n/a
3557260	RECOG_RESP	n/a	LTP234	ltpFR	18	9	n/a	BANNER	85	0	n/a	n/a	n/a	n/a	n/a	n/a	n/a
3557895	RECOG_CONF	n/a	LTP234	ltpFR	18	9	n/a	BANNER	85	n/a	3	n/a	n/a	n/a	n/a	n/a	n/a
3559455	RECOG_TARGET	n/a	LTP234	ltpFR	18	9	1	MEAT	883	1	5	0	n/a	n/a	n/a	n/a	n/a
3560372	RECOG_RESP	n/a	LTP234	ltpFR	18	9	1	MEAT	883	1	n/a	0	n/a	n/a	n/a	n/a	n/a
3560927	RECOG_CONF	n/a	LTP234	ltpFR	18	9	1	MEAT	883	n/a	5	0	n/a	n/a	n/a	n/a	n/a
3562304	RECOG_TARGET	n/a	LTP234	ltpFR	18	9	1	CINNAMON	310	1	5	0	n/a	n/a	n/a	n/a	n/a
3562839	RECOG_RESP	n/a	LTP234	ltpFR	18	9	1	CINNAMON	310	1	n/a	0	n/a	n/a	n/a	n/a	n/a
3563341	RECOG_CONF	n/a	LTP234	ltpFR	18	9	1	CINNAMON	310	n/a	5	0	n/a	n/a	n/a	n/a	n/a
3564797	RECOG_LURE	n/a	LTP234	ltpFR	18	9	n/a	ERASER	538	0	1	n/a	n/a	n/a	n/a	n/a	n/a
3565733	RECOG_RESP	n/a	LTP234	ltpFR	18	9	n/a	ERASER	538	0	n/a	n/a	n/a	n/a	n/a	n/a	n/a
3566271	RECOG_CONF	n/a	LTP234	ltpFR	18	9	n/a	ERASER	538	n/a	1	n/a	n/a	n/a	n/a	n/a	n/a
3567740	RECOG_TARGET	n/a	LTP234	ltpFR	18	9	0	MECHANIC	884	1	5	1	n/a	n/a	n/a	n/a	n/a
3568303	RECOG_RESP	n/a	LTP234	ltpFR	18	9	0	MECHANIC	884	1	n/a	1	n/a	n/a	n/a	n/a	n/a
