onset	duration	trial_type	sample	stim_file	subject	experiment	session	trial	task	item_name	item_num	recog_resp	recog_conf	resp	answer	test_x	test_y	test_z	color_r	color_g	color_b	case	font
254.42	n/a	SESS_START	127210	n/a	LTP117	ltpFR	8	n/a	n/a	n/a	n/a	1	5	n/a	n/a	0	0	0	n/a	n/a	n/a	n/a	n/a
286.112	n/a	START	143056	n/a	LTP117	ltpFR	8	n/a	n/a	n/a	n/a	n/a	n/a	n/a	n/a	n/a	n/a	n/a	n/a	n/a	n/a	n/a	n/a
286.136	n/a	PROB	143068	n/a	LTP117	ltpFR	8	n/a	n/a	n/a	n/a	n/a	n/a	n/a	16	2	6	8	n/a	n/a	n/a	n/a	n/a
287.81	n/a	PROB	143905	n/a	LTP117	ltpFR	8	n/a	n/a	n/a	n/a	n/a	n/a	n/a	22	9	6	7	n/a	n/a	n/a	n/a	n/a
289.868	n/a	PROB	144934	n/a	LTP117	ltpFR	8	n/a	n/a	n/a	n/a	n/a	n/a	n/a	13	4	4	5	n/a	n/a	n/a	n/a	n/a
291.484	n/a	PROB	145742	n/a	LTP117	ltpFR	8	n/a	n/a	n/a	n/a	n/a	n/a	n/a	13	3	4	6	n/a	n/a	n/a	n/a	n/a
293.458	n/a	PROB	146729	n/a	LTP117	ltpFR	8	n/a	n/a	n/a	n/a	n/a	n/a	n/a	10	3	5	2	n/a	n/a	n/a	n/a	n/a
295.0	n/a	PROB	147500	n/a	LTP117	ltpFR	8	n/a	n/a	n/a	n/a	n/a	n/a	n/a	14	5	2	7	n/a	n/a	n/a	n/a	n/a
297.948	n/a	PROB	148974	n/a	LTP117	ltpFR	8	n/a	n/a	n/a	n/a	n/a	n/a	n/a	17	7	4	6	n/a	n/a	n/a	n/a	n/a
299.382	n/a	PROB	149691	n/a	LTP117	ltpFR	8	n/a	n/a	n/a	n/a	n/a	n/a	n/a	16	4	9	3	n/a	n/a	n/a	n/a	n/a
301.516	n/a	PROB	150758	n/a	LTP117	ltpFR	8	n/a	n/a	n/a	n/a	n/a	n/a	n/a	15	4	7	4	n/a	n/a	n/a	n/a	n/a
303.082	n/a	PROB	151541	n/a	LTP117	ltpFR	8	n/a	n/a	n/a	n/a	n/a	n/a	n/a	13	6	3	4	n/a	n/a	n/a	n/a	n/a
305.09	n/a	STOP	152545	n/a	LTP117	ltpFR	8	n/a	n/a	n/a	n/a	n/a	n/a	n/a	n/a	n/a	n/a	n/a	n/a	n/a	n/a	n/a	n/a
328.632	n/a	WORD	164316	wordpools/wasnorm_wordpool.txt	LTP117	ltpFR	8	1	1	RODENT	1204	1	n/a	1	n/a	0	0	0	0.422607421875	0.5869140625	0	lower	amplitud.ttf
332.772	n/a	WORD	166386	wordpools/wasnorm_wordpool.txt	LTP117	ltpFR	8	1	1	VELVET	1555	n/a	n/a	0	n/a	0	0	0	0.422607421875	0.5869140625	0	lower	amplitud.ttf
336.978	n/a	WORD	168489	wordpools/wasnorm_wordpool.txt	LTP117	ltpFR	8	1	1	DISH	474	n/a	n/a	0	n/a	0	0	0	0.422607421875	0.5869140625	0	lower	amplitud.ttf
341.094	n/a	WORD	170547	wordpools/wasnorm_wordpool.txt	LTP117	ltpFR	8	1	1	CARRIAGE	248	n/a	n/a	1	n/a	0	0	0	0.422607421875	0.5869140625	0	lower	amplitud.ttf
345.284	n/a	WORD	172642	wordpools/wasnorm_wordpool.txt	LTP117	ltpFR	8	1	0	COLT	349	n/a	n/a	1	n/a	0	0	0	0.57763671875	0.412841796875	1	upper	zerothre.ttf
349.242	n/a	WORD	174621	wordpools/wasnorm_wordpool.txt	LTP117	ltpFR	8	1	0	STRANGER	1389	n/a	n/a	0	n/a	0	0	0	0.57763671875	0.412841796875	1	upper	zerothre.ttf
353.124	n/a	WORD	176562	wordpools/wasnorm_wordpool.txt	LTP117	ltpFR	8	1	0	DAM	436	n/a	n/a	0	n/a	0	0	0	0.57763671875	0.412841796875	1	upper	zerothre.ttf
357.33	n/a	WORD	178665	wordpools/wasnorm_wordpool.txt	LTP117	ltpFR	8	1	1	DETERGENT	455	n/a	n/a	0	n/a	0	0	0	0.422607421875	0.5869140625	0	lower	amplitud.ttf
361.406	n/a	WORD	180703	wordpools/wasnorm_wordpool.txt	LTP117	ltpFR	8	1	1	VAULT	1550	n/a	n/a	0	n/a	0	0	0	0.422607421875	0.5869140625	0	lower	amplitud.ttf
365.428	n/a	WORD	182714	wordpools/wasnorm_wordpool.txt	LTP117	ltpFR	8	1	1	TOAD	1470	n/a	n/a	0	n/a	0	0	0	0.422607421875	0.5869140625	0	lower	amplitud.ttf
369.318	n/a	WORD	184659	wordpools/wasnorm_wordpool.txt	LTP117	ltpFR	8	1	1	SPONGE	1355	n/a	n/a	0	n/a	0	0	0	0.422607421875	0.5869140625	0	lower	amplitud.ttf
373.292	n/a	WORD	186646	wordpools/wasnorm_wordpool.txt	LTP117	ltpFR	8	1	0	FOUNTAIN	597	n/a	n/a	1	n/a	0	0	0	0.57763671875	0.412841796875	1	upper	zerothre.ttf
377.392	n/a	WORD	188696	wordpools/wasnorm_wordpool.txt	LTP117	ltpFR	8	1	0	HEART	697	n/a	n/a	0	n/a	0	0	0	0.57763671875	0.412841796875	1	upper	zerothre.ttf
381.282	n/a	WORD	190641	wordpools/wasnorm_wordpool.txt	LTP117	ltpFR	8	1	0	VAMPIRE	1547	n/a	n/a	0	n/a	0	0	0	0.57763671875	0.412841796875	1	upper	zerothre.ttf
385.44	n/a	WORD	192720	wordpools/wasnorm_wordpool.txt	LTP117	ltpFR	8	1	0	TOWEL	1489	n/a	n/a	0	n/a	0	0	0	0.57763671875	0.412841796875	1	upper	zerothre.ttf
389.562	n/a	WORD	194781	wordpools/wasnorm_wordpool.txt	LTP117	ltpFR	8	1	0	ZIPPER	1636	n/a	n/a	0	n/a	0	0	0	0.57763671875	0.412841796875	1	upper	zerothre.ttf
392.57	n/a	START	196285	n/a	LTP117	ltpFR	8	n/a	n/a	n/a	n/a	n/a	n/a	n/a	n/a	n/a	n/a	n/a	n/a	n/a	n/a	n/a	n/a
393.512	n/a	PROB	196756	n/a	LTP117	ltpFR	8	n/a	n/a	n/a	n/a	n/a	n/a	n/a	10	1	7	2	n/a	n/a	n/a	n/a	n/a
394.67	n/a	PROB	197335	n/a	LTP117	ltpFR	8	n/a	n/a	n/a	n/a	n/a	n/a	n/a	10	5	1	4	n/a	n/a	n/a	n/a	n/a
395.678	n/a	PROB	197839	n/a	LTP117	ltpFR	8	n/a	n/a	n/a	n/a	n/a	n/a	n/a	27	8	8	9	n/a	n/a	n/a	n/a	n/a
397.76	n/a	PROB	198880	n/a	LTP117	ltpFR	8	n/a	n/a	n/a	n/a	n/a	n/a	n/a	20	5	9	6	n/a	n/a	n/a	n/a	n/a
399.304	n/a	STOP	199652	n/a	LTP117	ltpFR	8	n/a	n/a	n/a	n/a	n/a	n/a	n/a	n/a	n/a	n/a	n/a	n/a	n/a	n/a	n/a	n/a
402.368	n/a	REC_START	201184	n/a	LTP117	ltpFR	8	1	n/a	n/a	n/a	n/a	n/a	n/a	n/a	0	0	0	n/a	n/a	n/a	n/a	n/a
402.892	n/a	REC_WORD	201446	wordpools/wasnorm_wordpool.txt	LTP117	ltpFR	8	1	1	TOAD	1470	n/a	n/a	0	n/a	0	0	0	n/a	n/a	n/a	n/a	n/a
403.416	n/a	REC_WORD	201708	wordpools/wasnorm_wordpool.txt	LTP117	ltpFR	8	1	1	SPONGE	1355	n/a	n/a	0	n/a	0	0	0	n/a	n/a	n/a	n/a	n/a
404.324	n/a	REC_WORD	202162	wordpools/wasnorm_wordpool.txt	LTP117	ltpFR	8	1	0	TOWEL	1489	n/a	n/a	0	n/a	0	0	0	n/a	n/a	n/a	n/a	n/a
405.102	n/a	REC_WORD	202551	wordpools/wasnorm_wordpool.txt	LTP117	ltpFR	8	1	0	STRANGER	1389	n/a	n/a	0	n/a	0	0	0	n/a	n/a	n/a	n/a	n/a
406.134	n/a	REC_WORD	203067	wordpools/wasnorm_wordpool.txt	LTP117	ltpFR	8	1	0	DAM	436	n/a	n/a	0	n/a	0	0	0	n/a	n/a	n/a	n/a	n/a
406.882	n/a	REC_WORD	203441	wordpools/wasnorm_wordpool.txt	LTP117	ltpFR	8	1	1	VAULT	1550	n/a	n/a	0	n/a	0	0	0	n/a	n/a	n/a	n/a	n/a
409.308	n/a	REC_WORD	204654	wordpools/wasnorm_wordpool.txt	LTP117	ltpFR	8	1	0	COLT	349	n/a	n/a	1	n/a	0	0	0	n/a	n/a	n/a	n/a	n/a
411.518	n/a	REC_WORD	205759	wordpools/wasnorm_wordpool.txt	LTP117	ltpFR	8	1	1	CARRIAGE	248	n/a	n/a	1	n/a	0	0	0	n/a	n/a	n/a	n/a	n/a
413.838	n/a	REC_WORD	206919	wordpools/wasnorm_wordpool.txt	LTP117	ltpFR	8	1	n/a	RAT	1169	n/a	n/a	n/a	n/a	0	0	0	n/a	n/a	n/a	n/a	n/a
417.176	n/a	REC_WORD	208588	wordpools/wasnorm_wordpool.txt	LTP117	ltpFR	8	1	1	DETERGENT	455	n/a	n/a	0	n/a	0	0	0	n/a	n/a	n/a	n/a	n/a
426.05	n/a	REC_WORD	213025	wordpools/wasnorm_wordpool.txt	LTP117	ltpFR	8	1	1	SPONGE	1355	n/a	n/a	0	n/a	0	0	0	n/a	n/a	n/a	n/a	n/a
441.582	n/a	REC_WORD	220791	wordpools/wasnorm_wordpool.txt	LTP117	ltpFR	8	1	1	RODENT	1204	n/a	n/a	1	n/a	0	0	0	n/a	n/a	n/a	n/a	n/a
481.502	n/a	START	240751	n/a	LTP117	ltpFR	8	n/a	n/a	n/a	n/a	n/a	n/a	n/a	n/a	n/a	n/a	n/a	n/a	n/a	n/a	n/a	n/a
483.01	n/a	PROB	241505	n/a	LTP117	ltpFR	8	n/a	n/a	n/a	n/a	n/a	n/a	n/a	9	2	1	6	n/a	n/a	n/a	n/a	n/a
484.684	n/a	PROB	242342	n/a	LTP117	ltpFR	8	n/a	n/a	n/a	n/a	n/a	n/a	n/a	24	8	8	7	n/a	n/a	n/a	n/a	n/a
486.492	n/a	PROB	243246	n/a	LTP117	ltpFR	8	n/a	n/a	n/a	n/a	n/a	n/a	n/a	17	9	1	7	n/a	n/a	n/a	n/a	n/a
488.034	n/a	STOP	244017	n/a	LTP117	ltpFR	8	n/a	n/a	n/a	n/a	n/a	n/a	n/a	n/a	n/a	n/a	n/a	n/a	n/a	n/a	n/a	n/a
490.49	n/a	WORD	245245	wordpools/wasnorm_wordpool.txt	LTP117	ltpFR	8	2	1	EAGLE	512	n/a	n/a	0	n/a	0	0	0	0.422607421875	0.5869140625	0	lower	amplitud.ttf
493.5	n/a	START	246750	n/a	LTP117	ltpFR	8	n/a	n/a	n/a	n/a	n/a	n/a	n/a	n/a	n/a	n/a	n/a	n/a	n/a	n/a	n/a	n/a
494.598	n/a	PROB	247299	n/a	LTP117	ltpFR	8	n/a	n/a	n/a	n/a	n/a	n/a	n/a	15	3	7	5	n/a	n/a	n/a	n/a	n/a
495.798	n/a	PROB	247899	n/a	LTP117	ltpFR	8	n/a	n/a	n/a	n/a	n/a	n/a	n/a	10	6	2	2	n/a	n/a	n/a	n/a	n/a
496.964	n/a	PROB	248482	n/a	LTP117	ltpFR	8	n/a	n/a	n/a	n/a	n/a	n/a	n/a	18	7	5	6	n/a	n/a	n/a	n/a	n/a
498.53	n/a	PROB	249265	n/a	LTP117	ltpFR	8	n/a	n/a	n/a	n/a	n/a	n/a	n/a	12	4	2	6	n/a	n/a	n/a	n/a	n/a
499.646	n/a	PROB	249823	n/a	LTP117	ltpFR	8	n/a	n/a	n/a	n/a	n/a	n/a	n/a	16	8	3	5	n/a	n/a	n/a	n/a	n/a
501.26	n/a	STOP	250630	n/a	LTP117	ltpFR	8	n/a	n/a	n/a	n/a	n/a	n/a	n/a	n/a	n/a	n/a	n/a	n/a	n/a	n/a	n/a	n/a
502.638	n/a	WORD	251319	wordpools/wasnorm_wordpool.txt	LTP117	ltpFR	8	2	1	TRIBE	1505	n/a	n/a	0	n/a	0	0	0	0.422607421875	0.5869140625	0	lower	amplitud.ttf
505.644	n/a	START	252822	n/a	LTP117	ltpFR	8	n/a	n/a	n/a	n/a	n/a	n/a	n/a	n/a	n/a	n/a	n/a	n/a	n/a	n/a	n/a	n/a
506.46	n/a	PROB	253230	n/a	LTP117	ltpFR	8	n/a	n/a	n/a	n/a	n/a	n/a	n/a	19	8	5	6	n/a	n/a	n/a	n/a	n/a
507.844	n/a	PROB	253922	n/a	LTP117	ltpFR	8	n/a	n/a	n/a	n/a	n/a	n/a	n/a	20	9	9	2	n/a	n/a	n/a	n/a	n/a
509.068	n/a	PROB	254534	n/a	LTP117	ltpFR	8	n/a	n/a	n/a	n/a	n/a	n/a	n/a	22	9	6	7	n/a	n/a	n/a	n/a	n/a
511.26	n/a	PROB	255630	n/a	LTP117	ltpFR	8	n/a	n/a	n/a	n/a	n/a	n/a	n/a	16	3	5	8	n/a	n/a	n/a	n/a	n/a
513.052	n/a	STOP	256526	n/a	LTP117	ltpFR	8	n/a	n/a	n/a	n/a	n/a	n/a	n/a	n/a	n/a	n/a	n/a	n/a	n/a	n/a	n/a	n/a
514.718	n/a	WORD	257359	wordpools/wasnorm_wordpool.txt	LTP117	ltpFR	8	2	1	POCKET	1093	n/a	n/a	0	n/a	0	0	0	0.422607421875	0.5869140625	0	lower	amplitud.ttf
517.724	n/a	START	258862	n/a	LTP117	ltpFR	8	n/a	n/a	n/a	n/a	n/a	n/a	n/a	n/a	n/a	n/a	n/a	n/a	n/a	n/a	n/a	n/a
518.882	n/a	PROB	259441	n/a	LTP117	ltpFR	8	n/a	n/a	n/a	n/a	n/a	n/a	n/a	23	9	9	5	n/a	n/a	n/a	n/a	n/a
520.666	n/a	PROB	260333	n/a	LTP117	ltpFR	8	n/a	n/a	n/a	n/a	n/a	n/a	n/a	10	8	1	1	n/a	n/a	n/a	n/a	n/a
522.456	n/a	PROB	261228	n/a	LTP117	ltpFR	8	n/a	n/a	n/a	n/a	n/a	n/a	n/a	16	7	7	2	n/a	n/a	n/a	n/a	n/a
523.59	n/a	PROB	261795	n/a	LTP117	ltpFR	8	n/a	n/a	n/a	n/a	n/a	n/a	n/a	20	9	8	3	n/a	n/a	n/a	n/a	n/a
525.438	n/a	STOP	262719	n/a	LTP117	ltpFR	8	n/a	n/a	n/a	n/a	n/a	n/a	n/a	n/a	n/a	n/a	n/a	n/a	n/a	n/a	n/a	n/a
526.862	n/a	WORD	263431	wordpools/wasnorm_wordpool.txt	LTP117	ltpFR	8	2	1	TREASURE	1500	n/a	n/a	1	n/a	0	0	0	0.422607421875	0.5869140625	0	lower	amplitud.ttf
529.87	n/a	START	264935	n/a	LTP117	ltpFR	8	n/a	n/a	n/a	n/a	n/a	n/a	n/a	n/a	n/a	n/a	n/a	n/a	n/a	n/a	n/a	n/a
530.97	n/a	PROB	265485	n/a	LTP117	ltpFR	8	n/a	n/a	n/a	n/a	n/a	n/a	n/a	16	5	5	6	n/a	n/a	n/a	n/a	n/a
532.562	n/a	PROB	266281	n/a	LTP117	ltpFR	8	n/a	n/a	n/a	n/a	n/a	n/a	n/a	6	1	4	1	n/a	n/a	n/a	n/a	n/a
533.554	n/a	PROB	266777	n/a	LTP117	ltpFR	8	n/a	n/a	n/a	n/a	n/a	n/a	n/a	23	5	9	9	n/a	n/a	n/a	n/a	n/a
535.278	n/a	PROB	267639	n/a	LTP117	ltpFR	8	n/a	n/a	n/a	n/a	n/a	n/a	n/a	11	3	3	5	n/a	n/a	n/a	n/a	n/a
537.166	n/a	STOP	268583	n/a	LTP117	ltpFR	8	n/a	n/a	n/a	n/a	n/a	n/a	n/a	n/a	n/a	n/a	n/a	n/a	n/a	n/a	n/a	n/a
538.876	n/a	WORD	269438	wordpools/wasnorm_wordpool.txt	LTP117	ltpFR	8	2	1	ORCHESTRA	981	n/a	n/a	0	n/a	0	0	0	0.422607421875	0.5869140625	0	lower	amplitud.ttf
541.884	n/a	START	270942	n/a	LTP117	ltpFR	8	n/a	n/a	n/a	n/a	n/a	n/a	n/a	n/a	n/a	n/a	n/a	n/a	n/a	n/a	n/a	n/a
542.784	n/a	PROB	271392	n/a	LTP117	ltpFR	8	n/a	n/a	n/a	n/a	n/a	n/a	n/a	11	5	5	1	n/a	n/a	n/a	n/a	n/a
543.874	n/a	PROB	271937	n/a	LTP117	ltpFR	8	n/a	n/a	n/a	n/a	n/a	n/a	n/a	18	9	4	5	n/a	n/a	n/a	n/a	n/a
545.182	n/a	PROB	272591	n/a	LTP117	ltpFR	8	n/a	n/a	n/a	n/a	n/a	n/a	n/a	20	8	4	8	n/a	n/a	n/a	n/a	n/a
546.932	n/a	PROB	273466	n/a	LTP117	ltpFR	8	n/a	n/a	n/a	n/a	n/a	n/a	n/a	17	7	7	3	n/a	n/a	n/a	n/a	n/a
548.14	n/a	PROB	274070	n/a	LTP117	ltpFR	8	n/a	n/a	n/a	n/a	n/a	n/a	n/a	11	1	7	3	n/a	n/a	n/a	n/a	n/a
549.174	n/a	STOP	274587	n/a	LTP117	ltpFR	8	n/a	n/a	n/a	n/a	n/a	n/a	n/a	n/a	n/a	n/a	n/a	n/a	n/a	n/a	n/a	n/a
550.74	n/a	WORD	275370	wordpools/wasnorm_wordpool.txt	LTP117	ltpFR	8	2	1	HARP	689	n/a	n/a	0	n/a	0	0	0	0.422607421875	0.5869140625	0	lower	amplitud.ttf
553.748	n/a	START	276874	n/a	LTP117	ltpFR	8	n/a	n/a	n/a	n/a	n/a	n/a	n/a	n/a	n/a	n/a	n/a	n/a	n/a	n/a	n/a	n/a
554.696	n/a	PROB	277348	n/a	LTP117	ltpFR	8	n/a	n/a	n/a	n/a	n/a	n/a	n/a	14	3	9	2	n/a	n/a	n/a	n/a	n/a
556.846	n/a	PROB	278423	n/a	LTP117	ltpFR	8	n/a	n/a	n/a	n/a	n/a	n/a	n/a	18	3	6	9	n/a	n/a	n/a	n/a	n/a
559.494	n/a	PROB	279747	n/a	LTP117	ltpFR	8	n/a	n/a	n/a	n/a	n/a	n/a	n/a	13	2	8	3	n/a	n/a	n/a	n/a	n/a
560.536	n/a	STOP	280268	n/a	LTP117	ltpFR	8	n/a	n/a	n/a	n/a	n/a	n/a	n/a	n/a	n/a	n/a	n/a	n/a	n/a	n/a	n/a	n/a
562.944	n/a	WORD	281472	wordpools/wasnorm_wordpool.txt	LTP117	ltpFR	8	2	1	SLEIGH	1325	n/a	n/a	0	n/a	0	0	0	0.422607421875	0.5869140625	0	lower	amplitud.ttf
565.952	n/a	START	282976	n/a	LTP117	ltpFR	8	n/a	n/a	n/a	n/a	n/a	n/a	n/a	n/a	n/a	n/a	n/a	n/a	n/a	n/a	n/a	n/a
566.792	n/a	PROB	283396	n/a	LTP117	ltpFR	8	n/a	n/a	n/a	n/a	n/a	n/a	n/a	19	5	8	6	n/a	n/a	n/a	n/a	n/a
568.308	n/a	PROB	284154	n/a	LTP117	ltpFR	8	n/a	n/a	n/a	n/a	n/a	n/a	n/a	12	1	7	4	n/a	n/a	n/a	n/a	n/a
569.568	n/a	PROB	284784	n/a	LTP117	ltpFR	8	n/a	n/a	n/a	n/a	n/a	n/a	n/a	14	4	8	2	n/a	n/a	n/a	n/a	n/a
570.784	n/a	PROB	285392	n/a	LTP117	ltpFR	8	n/a	n/a	n/a	n/a	n/a	n/a	n/a	13	3	6	4	n/a	n/a	n/a	n/a	n/a
572.342	n/a	PROB	286171	n/a	LTP117	ltpFR	8	n/a	n/a	n/a	n/a	n/a	n/a	n/a	18	8	2	8	n/a	n/a	n/a	n/a	n/a
573.466	n/a	STOP	286733	n/a	LTP117	ltpFR	8	n/a	n/a	n/a	n/a	n/a	n/a	n/a	n/a	n/a	n/a	n/a	n/a	n/a	n/a	n/a	n/a
574.782	n/a	WORD	287391	wordpools/wasnorm_wordpool.txt	LTP117	ltpFR	8	2	1	CHIMNEY	301	n/a	n/a	0	n/a	0	0	0	0.422607421875	0.5869140625	0	lower	amplitud.ttf
577.798	n/a	START	288899	n/a	LTP117	ltpFR	8	n/a	n/a	n/a	n/a	n/a	n/a	n/a	n/a	n/a	n/a	n/a	n/a	n/a	n/a	n/a	n/a
578.656	n/a	PROB	289328	n/a	LTP117	ltpFR	8	n/a	n/a	n/a	n/a	n/a	n/a	n/a	16	5	2	9	n/a	n/a	n/a	n/a	n/a
580.28	n/a	PROB	290140	n/a	LTP117	ltpFR	8	n/a	n/a	n/a	n/a	n/a	n/a	n/a	17	2	8	7	n/a	n/a	n/a	n/a	n/a
581.314	n/a	PROB	290657	n/a	LTP117	ltpFR	8	n/a	n/a	n/a	n/a	n/a	n/a	n/a	14	4	1	9	n/a	n/a	n/a	n/a	n/a
582.58	n/a	PROB	291290	n/a	LTP117	ltpFR	8	n/a	n/a	n/a	n/a	n/a	n/a	n/a	20	4	9	7	n/a	n/a	n/a	n/a	n/a
584.64	n/a	STOP	292320	n/a	LTP117	ltpFR	8	n/a	n/a	n/a	n/a	n/a	n/a	n/a	n/a	n/a	n/a	n/a	n/a	n/a	n/a	n/a	n/a
586.828	n/a	WORD	293414	wordpools/wasnorm_wordpool.txt	LTP117	ltpFR	8	2	1	HAY	693	n/a	n/a	0	n/a	0	0	0	0.422607421875	0.5869140625	0	lower	amplitud.ttf
589.836	n/a	START	294918	n/a	LTP117	ltpFR	8	n/a	n/a	n/a	n/a	n/a	n/a	n/a	n/a	n/a	n/a	n/a	n/a	n/a	n/a	n/a	n/a
590.886	n/a	PROB	295443	n/a	LTP117	ltpFR	8	n/a	n/a	n/a	n/a	n/a	n/a	n/a	20	9	6	5	n/a	n/a	n/a	n/a	n/a
592.26	n/a	PROB	296130	n/a	LTP117	ltpFR	8	n/a	n/a	n/a	n/a	n/a	n/a	n/a	12	4	3	5	n/a	n/a	n/a	n/a	n/a
594.352	n/a	PROB	297176	n/a	LTP117	ltpFR	8	n/a	n/a	n/a	n/a	n/a	n/a	n/a	20	9	2	9	n/a	n/a	n/a	n/a	n/a
595.842	n/a	PROB	297921	n/a	LTP117	ltpFR	8	n/a	n/a	n/a	n/a	n/a	n/a	n/a	25	7	9	9	n/a	n/a	n/a	n/a	n/a
597.586	n/a	STOP	298793	n/a	LTP117	ltpFR	8	n/a	n/a	n/a	n/a	n/a	n/a	n/a	n/a	n/a	n/a	n/a	n/a	n/a	n/a	n/a	n/a
598.992	n/a	WORD	299496	wordpools/wasnorm_wordpool.txt	LTP117	ltpFR	8	2	1	HUSBAND	728	n/a	n/a	0	n/a	0	0	0	0.422607421875	0.5869140625	0	lower	amplitud.ttf
602.0	n/a	START	301000	n/a	LTP117	ltpFR	8	n/a	n/a	n/a	n/a	n/a	n/a	n/a	n/a	n/a	n/a	n/a	n/a	n/a	n/a	n/a	n/a
603.048	n/a	PROB	301524	n/a	LTP117	ltpFR	8	n/a	n/a	n/a	n/a	n/a	n/a	n/a	10	7	1	2	n/a	n/a	n/a	n/a	n/a
604.056	n/a	PROB	302028	n/a	LTP117	ltpFR	8	n/a	n/a	n/a	n/a	n/a	n/a	n/a	13	4	6	3	n/a	n/a	n/a	n/a	n/a
606.046	n/a	PROB	303023	n/a	LTP117	ltpFR	8	n/a	n/a	n/a	n/a	n/a	n/a	n/a	21	7	6	8	n/a	n/a	n/a	n/a	n/a
608.046	n/a	PROB	304023	n/a	LTP117	ltpFR	8	n/a	n/a	n/a	n/a	n/a	n/a	n/a	16	9	1	6	n/a	n/a	n/a	n/a	n/a
609.098	n/a	STOP	304549	n/a	LTP117	ltpFR	8	n/a	n/a	n/a	n/a	n/a	n/a	n/a	n/a	n/a	n/a	n/a	n/a	n/a	n/a	n/a	n/a
610.98	n/a	WORD	305490	wordpools/wasnorm_wordpool.txt	LTP117	ltpFR	8	2	1	BROCCOLI	176	n/a	n/a	0	n/a	0	0	0	0.422607421875	0.5869140625	0	lower	amplitud.ttf
613.988	n/a	START	306994	n/a	LTP117	ltpFR	8	n/a	n/a	n/a	n/a	n/a	n/a	n/a	n/a	n/a	n/a	n/a	n/a	n/a	n/a	n/a	n/a
615.178	n/a	PROB	307589	n/a	LTP117	ltpFR	8	n/a	n/a	n/a	n/a	n/a	n/a	n/a	21	5	7	9	n/a	n/a	n/a	n/a	n/a
617.228	n/a	PROB	308614	n/a	LTP117	ltpFR	8	n/a	n/a	n/a	n/a	n/a	n/a	n/a	15	3	8	4	n/a	n/a	n/a	n/a	n/a
618.902	n/a	PROB	309451	n/a	LTP117	ltpFR	8	n/a	n/a	n/a	n/a	n/a	n/a	n/a	15	9	5	1	n/a	n/a	n/a	n/a	n/a
621.988	n/a	STOP	310994	n/a	LTP117	ltpFR	8	n/a	n/a	n/a	n/a	n/a	n/a	n/a	n/a	n/a	n/a	n/a	n/a	n/a	n/a	n/a	n/a
622.842	n/a	WORD	311421	wordpools/wasnorm_wordpool.txt	LTP117	ltpFR	8	2	1	WHALE	1601	n/a	n/a	0	n/a	0	0	0	0.422607421875	0.5869140625	0	lower	amplitud.ttf
625.85	n/a	START	312925	n/a	LTP117	ltpFR	8	n/a	n/a	n/a	n/a	n/a	n/a	n/a	n/a	n/a	n/a	n/a	n/a	n/a	n/a	n/a	n/a
627.016	n/a	PROB	313508	n/a	LTP117	ltpFR	8	n/a	n/a	n/a	n/a	n/a	n/a	n/a	21	4	8	9	n/a	n/a	n/a	n/a	n/a
628.774	n/a	PROB	314387	n/a	LTP117	ltpFR	8	n/a	n/a	n/a	n/a	n/a	n/a	n/a	15	6	8	1	n/a	n/a	n/a	n/a	n/a
630.566	n/a	PROB	315283	n/a	LTP117	ltpFR	8	n/a	n/a	n/a	n/a	n/a	n/a	n/a	12	9	1	2	n/a	n/a	n/a	n/a	n/a
631.682	n/a	PROB	315841	n/a	LTP117	ltpFR	8	n/a	n/a	n/a	n/a	n/a	n/a	n/a	14	6	3	5	n/a	n/a	n/a	n/a	n/a
633.372	n/a	STOP	316686	n/a	LTP117	ltpFR	8	n/a	n/a	n/a	n/a	n/a	n/a	n/a	n/a	n/a	n/a	n/a	n/a	n/a	n/a	n/a	n/a
634.964	n/a	WORD	317482	wordpools/wasnorm_wordpool.txt	LTP117	ltpFR	8	2	1	PERCH	1048	n/a	n/a	0	n/a	0	0	0	0.422607421875	0.5869140625	0	lower	amplitud.ttf
637.972	n/a	START	318986	n/a	LTP117	ltpFR	8	n/a	n/a	n/a	n/a	n/a	n/a	n/a	n/a	n/a	n/a	n/a	n/a	n/a	n/a	n/a	n/a
638.912	n/a	PROB	319456	n/a	LTP117	ltpFR	8	n/a	n/a	n/a	n/a	n/a	n/a	n/a	14	4	3	7	n/a	n/a	n/a	n/a	n/a
639.928	n/a	PROB	319964	n/a	LTP117	ltpFR	8	n/a	n/a	n/a	n/a	n/a	n/a	n/a	22	4	9	9	n/a	n/a	n/a	n/a	n/a
641.12	n/a	PROB	320560	n/a	LTP117	ltpFR	8	n/a	n/a	n/a	n/a	n/a	n/a	n/a	16	9	3	4	n/a	n/a	n/a	n/a	n/a
643.336	n/a	PROB	321668	n/a	LTP117	ltpFR	8	n/a	n/a	n/a	n/a	n/a	n/a	n/a	10	3	3	4	n/a	n/a	n/a	n/a	n/a
644.428	n/a	PROB	322214	n/a	LTP117	ltpFR	8	n/a	n/a	n/a	n/a	n/a	n/a	n/a	12	2	8	2	n/a	n/a	n/a	n/a	n/a
645.348	n/a	STOP	322674	n/a	LTP117	ltpFR	8	n/a	n/a	n/a	n/a	n/a	n/a	n/a	n/a	n/a	n/a	n/a	n/a	n/a	n/a	n/a	n/a
647.068	n/a	WORD	323534	wordpools/wasnorm_wordpool.txt	LTP117	ltpFR	8	2	1	PRUNE	1134	n/a	n/a	0	n/a	0	0	0	0.422607421875	0.5869140625	0	lower	amplitud.ttf
650.076	n/a	START	325038	n/a	LTP117	ltpFR	8	n/a	n/a	n/a	n/a	n/a	n/a	n/a	n/a	n/a	n/a	n/a	n/a	n/a	n/a	n/a	n/a
651.11	n/a	PROB	325555	n/a	LTP117	ltpFR	8	n/a	n/a	n/a	n/a	n/a	n/a	n/a	11	1	2	8	n/a	n/a	n/a	n/a	n/a
652.082	n/a	PROB	326041	n/a	LTP117	ltpFR	8	n/a	n/a	n/a	n/a	n/a	n/a	n/a	18	5	5	8	n/a	n/a	n/a	n/a	n/a
653.442	n/a	PROB	326721	n/a	LTP117	ltpFR	8	n/a	n/a	n/a	n/a	n/a	n/a	n/a	21	4	9	8	n/a	n/a	n/a	n/a	n/a
654.866	n/a	PROB	327433	n/a	LTP117	ltpFR	8	n/a	n/a	n/a	n/a	n/a	n/a	n/a	17	8	4	5	n/a	n/a	n/a	n/a	n/a
656.332	n/a	PROB	328166	n/a	LTP117	ltpFR	8	n/a	n/a	n/a	n/a	n/a	n/a	n/a	12	5	2	5	n/a	n/a	n/a	n/a	n/a
657.236	n/a	STOP	328618	n/a	LTP117	ltpFR	8	n/a	n/a	n/a	n/a	n/a	n/a	n/a	n/a	n/a	n/a	n/a	n/a	n/a	n/a	n/a	n/a
658.998	n/a	WORD	329499	wordpools/wasnorm_wordpool.txt	LTP117	ltpFR	8	2	1	COWBOY	395	n/a	n/a	0	n/a	0	0	0	0.422607421875	0.5869140625	0	lower	amplitud.ttf
662.006	n/a	START	331003	n/a	LTP117	ltpFR	8	n/a	n/a	n/a	n/a	n/a	n/a	n/a	n/a	n/a	n/a	n/a	n/a	n/a	n/a	n/a	n/a
663.088	n/a	PROB	331544	n/a	LTP117	ltpFR	8	n/a	n/a	n/a	n/a	n/a	n/a	n/a	17	8	1	8	n/a	n/a	n/a	n/a	n/a
664.48	n/a	PROB	332240	n/a	LTP117	ltpFR	8	n/a	n/a	n/a	n/a	n/a	n/a	n/a	14	3	9	2	n/a	n/a	n/a	n/a	n/a
665.856	n/a	PROB	332928	n/a	LTP117	ltpFR	8	n/a	n/a	n/a	n/a	n/a	n/a	n/a	21	7	7	7	n/a	n/a	n/a	n/a	n/a
666.838	n/a	PROB	333419	n/a	LTP117	ltpFR	8	n/a	n/a	n/a	n/a	n/a	n/a	n/a	12	2	4	6	n/a	n/a	n/a	n/a	n/a
670.006	n/a	STOP	335003	n/a	LTP117	ltpFR	8	n/a	n/a	n/a	n/a	n/a	n/a	n/a	n/a	n/a	n/a	n/a	n/a	n/a	n/a	n/a	n/a
670.954	n/a	WORD	335477	wordpools/wasnorm_wordpool.txt	LTP117	ltpFR	8	2	1	BASKET	95	n/a	n/a	0	n/a	0	0	0	0.422607421875	0.5869140625	0	lower	amplitud.ttf
673.96	n/a	START	336980	n/a	LTP117	ltpFR	8	n/a	n/a	n/a	n/a	n/a	n/a	n/a	n/a	n/a	n/a	n/a	n/a	n/a	n/a	n/a	n/a
675.06	n/a	PROB	337530	n/a	LTP117	ltpFR	8	n/a	n/a	n/a	n/a	n/a	n/a	n/a	1	2	8	3	n/a	n/a	n/a	n/a	n/a
675.876	n/a	PROB	337938	n/a	LTP117	ltpFR	8	n/a	n/a	n/a	n/a	n/a	n/a	n/a	19	9	3	7	n/a	n/a	n/a	n/a	n/a
677.85	n/a	PROB	338925	n/a	LTP117	ltpFR	8	n/a	n/a	n/a	n/a	n/a	n/a	n/a	16	3	9	4	n/a	n/a	n/a	n/a	n/a
679.35	n/a	PROB	339675	n/a	LTP117	ltpFR	8	n/a	n/a	n/a	n/a	n/a	n/a	n/a	15	5	8	2	n/a	n/a	n/a	n/a	n/a
681.854	n/a	STOP	340927	n/a	LTP117	ltpFR	8	n/a	n/a	n/a	n/a	n/a	n/a	n/a	n/a	n/a	n/a	n/a	n/a	n/a	n/a	n/a	n/a
683.816	n/a	REC_START	341908	n/a	LTP117	ltpFR	8	2	n/a	n/a	n/a	n/a	n/a	n/a	n/a	0	0	0	n/a	n/a	n/a	n/a	n/a
684.7	n/a	REC_WORD	342350	wordpools/wasnorm_wordpool.txt	LTP117	ltpFR	8	2	1	EAGLE	512	n/a	n/a	0	n/a	0	0	0	n/a	n/a	n/a	n/a	n/a
685.598	n/a	REC_WORD	342799	wordpools/wasnorm_wordpool.txt	LTP117	ltpFR	8	2	1	PERCH	1048	n/a	n/a	0	n/a	0	0	0	n/a	n/a	n/a	n/a	n/a
686.44	n/a	REC_WORD	343220	wordpools/wasnorm_wordpool.txt	LTP117	ltpFR	8	2	1	WHALE	1601	n/a	n/a	0	n/a	0	0	0	n/a	n/a	n/a	n/a	n/a
687.194	n/a	REC_WORD	343597	wordpools/wasnorm_wordpool.txt	LTP117	ltpFR	8	2	1	ORCHESTRA	981	n/a	n/a	0	n/a	0	0	0	n/a	n/a	n/a	n/a	n/a
688.002	n/a	REC_WORD	344001	wordpools/wasnorm_wordpool.txt	LTP117	ltpFR	8	2	n/a	RAISIN	1163	n/a	n/a	n/a	n/a	0	0	0	n/a	n/a	n/a	n/a	n/a
689.664	n/a	REC_WORD	344832	wordpools/wasnorm_wordpool.txt	LTP117	ltpFR	8	2	1	PRUNE	1134	n/a	n/a	0	n/a	0	0	0	n/a	n/a	n/a	n/a	n/a
690.456	n/a	REC_WORD	345228	wordpools/wasnorm_wordpool.txt	LTP117	ltpFR	8	2	1	COWBOY	395	n/a	n/a	0	n/a	0	0	0	n/a	n/a	n/a	n/a	n/a
762.81	n/a	WORD	381405	wordpools/wasnorm_wordpool.txt	LTP117	ltpFR	8	3	1	GLACIER	638	n/a	n/a	0	n/a	0	0	0	0.422607421875	0.5869140625	0	lower	amplitud.ttf
766.808	n/a	WORD	383404	wordpools/wasnorm_wordpool.txt	LTP117	ltpFR	8	3	1	FROST	609	n/a	n/a	0	n/a	0	0	0	0.422607421875	0.5869140625	0	lower	amplitud.ttf
770.74	n/a	WORD	385370	wordpools/wasnorm_wordpool.txt	LTP117	ltpFR	8	3	0	PEBBLE	1035	n/a	n/a	1	n/a	0	0	0	0.57763671875	0.412841796875	1	upper	zerothre.ttf
774.696	n/a	WORD	387348	wordpools/wasnorm_wordpool.txt	LTP117	ltpFR	8	3	0	PADDING	999	n/a	n/a	1	n/a	0	0	0	0.57763671875	0.412841796875	1	upper	zerothre.ttf
778.746	n/a	WORD	389373	wordpools/wasnorm_wordpool.txt	LTP117	ltpFR	8	3	1	NITROGEN	954	n/a	n/a	0	n/a	0	0	0	0.422607421875	0.5869140625	0	lower	amplitud.ttf
782.604	n/a	WORD	391302	wordpools/wasnorm_wordpool.txt	LTP117	ltpFR	8	3	1	DENTIST	447	n/a	n/a	0	n/a	0	0	0	0.422607421875	0.5869140625	0	lower	amplitud.ttf
786.676	n/a	WORD	393338	wordpools/wasnorm_wordpool.txt	LTP117	ltpFR	8	3	1	DRESS	495	n/a	n/a	0	n/a	0	0	0	0.422607421875	0.5869140625	0	lower	amplitud.ttf
790.776	n/a	WORD	395388	wordpools/wasnorm_wordpool.txt	LTP117	ltpFR	8	3	1	DRAWER	493	n/a	n/a	0	n/a	0	0	0	0.422607421875	0.5869140625	0	lower	amplitud.ttf
794.758	n/a	WORD	397379	wordpools/wasnorm_wordpool.txt	LTP117	ltpFR	8	3	0	GRAVE	658	n/a	n/a	0	n/a	0	0	0	0.57763671875	0.412841796875	1	upper	zerothre.ttf
798.94	n/a	WORD	399470	wordpools/wasnorm_wordpool.txt	LTP117	ltpFR	8	3	0	WIDOW	1608	n/a	n/a	1	n/a	0	0	0	0.57763671875	0.412841796875	1	upper	zerothre.ttf
802.796	n/a	WORD	401398	wordpools/wasnorm_wordpool.txt	LTP117	ltpFR	8	3	0	PRIMATE	1123	n/a	n/a	0	n/a	0	0	0	0.57763671875	0.412841796875	1	upper	zerothre.ttf
806.746	n/a	WORD	403373	wordpools/wasnorm_wordpool.txt	LTP117	ltpFR	8	3	0	MINER	896	n/a	n/a	0	n/a	0	0	0	0.57763671875	0.412841796875	1	upper	zerothre.ttf
810.87	n/a	WORD	405435	wordpools/wasnorm_wordpool.txt	LTP117	ltpFR	8	3	0	EMERALD	528	n/a	n/a	0	n/a	0	0	0	0.57763671875	0.412841796875	1	upper	zerothre.ttf
815.074	n/a	WORD	407537	wordpools/wasnorm_wordpool.txt	LTP117	ltpFR	8	3	0	DAGGER	434	n/a	n/a	0	n/a	0	0	0	0.57763671875	0.412841796875	1	upper	zerothre.ttf
819.126	n/a	WORD	409563	wordpools/wasnorm_wordpool.txt	LTP117	ltpFR	8	3	1	CHARCOAL	281	n/a	n/a	0	n/a	0	0	0	0.422607421875	0.5869140625	0	lower	amplitud.ttf
823.008	n/a	WORD	411504	wordpools/wasnorm_wordpool.txt	LTP117	ltpFR	8	3	1	CHIMPANZEE	302	n/a	n/a	0	n/a	0	0	0	0.422607421875	0.5869140625	0	lower	amplitud.ttf
826.014	n/a	START	413007	n/a	LTP117	ltpFR	8	n/a	n/a	n/a	n/a	n/a	n/a	n/a	n/a	n/a	n/a	n/a	n/a	n/a	n/a	n/a	n/a
827.18	n/a	PROB	413590	n/a	LTP117	ltpFR	8	n/a	n/a	n/a	n/a	n/a	n/a	n/a	10	4	4	2	n/a	n/a	n/a	n/a	n/a
828.38	n/a	PROB	414190	n/a	LTP117	ltpFR	8	n/a	n/a	n/a	n/a	n/a	n/a	n/a	9	5	1	3	n/a	n/a	n/a	n/a	n/a
829.622	n/a	PROB	414811	n/a	LTP117	ltpFR	8	n/a	n/a	n/a	n/a	n/a	n/a	n/a	17	6	4	7	n/a	n/a	n/a	n/a	n/a
830.764	n/a	PROB	415382	n/a	LTP117	ltpFR	8	n/a	n/a	n/a	n/a	n/a	n/a	n/a	19	9	2	7	n/a	n/a	n/a	n/a	n/a
832.346	n/a	PROB	416173	n/a	LTP117	ltpFR	8	n/a	n/a	n/a	n/a	n/a	n/a	n/a	21	9	9	3	n/a	n/a	n/a	n/a	n/a
833.566	n/a	STOP	416783	n/a	LTP117	ltpFR	8	n/a	n/a	n/a	n/a	n/a	n/a	n/a	n/a	n/a	n/a	n/a	n/a	n/a	n/a	n/a	n/a
835.828	n/a	REC_START	417914	n/a	LTP117	ltpFR	8	3	n/a	n/a	n/a	n/a	n/a	n/a	n/a	0	0	0	n/a	n/a	n/a	n/a	n/a
836.278	n/a	REC_WORD	418139	wordpools/wasnorm_wordpool.txt	LTP117	ltpFR	8	3	0	MINER	896	n/a	n/a	0	n/a	0	0	0	n/a	n/a	n/a	n/a	n/a
836.956	n/a	REC_WORD	418478	wordpools/wasnorm_wordpool.txt	LTP117	ltpFR	8	3	1	CHIMPANZEE	302	n/a	n/a	0	n/a	0	0	0	n/a	n/a	n/a	n/a	n/a
838.982	n/a	REC_WORD	419491	wordpools/wasnorm_wordpool.txt	LTP117	ltpFR	8	3	0	WIDOW	1608	n/a	n/a	1	n/a	0	0	0	n/a	n/a	n/a	n/a	n/a
839.86	n/a	REC_WORD	419930	wordpools/wasnorm_wordpool.txt	LTP117	ltpFR	8	3	0	GRAVE	658	n/a	n/a	0	n/a	0	0	0	n/a	n/a	n/a	n/a	n/a
843.028	n/a	REC_WORD	421514	wordpools/wasnorm_wordpool.txt	LTP117	ltpFR	8	3	0	PADDING	999	n/a	n/a	1	n/a	0	0	0	n/a	n/a	n/a	n/a	n/a
843.806	n/a	REC_WORD	421903	wordpools/wasnorm_wordpool.txt	LTP117	ltpFR	8	3	0	PEBBLE	1035	n/a	n/a	1	n/a	0	0	0	n/a	n/a	n/a	n/a	n/a
844.55	n/a	REC_WORD	422275	wordpools/wasnorm_wordpool.txt	LTP117	ltpFR	8	3	1	GLACIER	638	n/a	n/a	0	n/a	0	0	0	n/a	n/a	n/a	n/a	n/a
845.502	n/a	REC_WORD	422751	wordpools/wasnorm_wordpool.txt	LTP117	ltpFR	8	3	1	FROST	609	n/a	n/a	0	n/a	0	0	0	n/a	n/a	n/a	n/a	n/a
847.198	n/a	REC_WORD	423599	wordpools/wasnorm_wordpool.txt	LTP117	ltpFR	8	3	1	CHARCOAL	281	n/a	n/a	0	n/a	0	0	0	n/a	n/a	n/a	n/a	n/a
856.214	n/a	REC_WORD	428107	wordpools/wasnorm_wordpool.txt	LTP117	ltpFR	8	3	0	MINER	896	n/a	n/a	0	n/a	0	0	0	n/a	n/a	n/a	n/a	n/a
867.424	n/a	REC_WORD	433712	wordpools/wasnorm_wordpool.txt	LTP117	ltpFR	8	3	0	EMERALD	528	n/a	n/a	0	n/a	0	0	0	n/a	n/a	n/a	n/a	n/a
910.124	n/a	REC_WORD	455062	wordpools/wasnorm_wordpool.txt	LTP117	ltpFR	8	3	1	DRAWER	493	n/a	n/a	0	n/a	0	0	0	n/a	n/a	n/a	n/a	n/a
912.888	n/a	START	456444	n/a	LTP117	ltpFR	8	n/a	n/a	n/a	n/a	n/a	n/a	n/a	n/a	n/a	n/a	n/a	n/a	n/a	n/a	n/a	n/a
914.396	n/a	PROB	457198	n/a	LTP117	ltpFR	8	n/a	n/a	n/a	n/a	n/a	n/a	n/a	9	3	1	5	n/a	n/a	n/a	n/a	n/a
915.562	n/a	PROB	457781	n/a	LTP117	ltpFR	8	n/a	n/a	n/a	n/a	n/a	n/a	n/a	17	6	7	4	n/a	n/a	n/a	n/a	n/a
916.97	n/a	PROB	458485	n/a	LTP117	ltpFR	8	n/a	n/a	n/a	n/a	n/a	n/a	n/a	19	4	8	7	n/a	n/a	n/a	n/a	n/a
918.436	n/a	PROB	459218	n/a	LTP117	ltpFR	8	n/a	n/a	n/a	n/a	n/a	n/a	n/a	16	2	7	7	n/a	n/a	n/a	n/a	n/a
919.724	n/a	STOP	459862	n/a	LTP117	ltpFR	8	n/a	n/a	n/a	n/a	n/a	n/a	n/a	n/a	n/a	n/a	n/a	n/a	n/a	n/a	n/a	n/a
921.994	n/a	WORD	460997	wordpools/wasnorm_wordpool.txt	LTP117	ltpFR	8	4	0	FORT	595	n/a	n/a	1	n/a	0	0	0	0.57763671875	0.412841796875	1	upper	zerothre.ttf
925.002	n/a	START	462501	n/a	LTP117	ltpFR	8	n/a	n/a	n/a	n/a	n/a	n/a	n/a	n/a	n/a	n/a	n/a	n/a	n/a	n/a	n/a	n/a
926.084	n/a	PROB	463042	n/a	LTP117	ltpFR	8	n/a	n/a	n/a	n/a	n/a	n/a	n/a	16	2	6	8	n/a	n/a	n/a	n/a	n/a
927.434	n/a	PROB	463717	n/a	LTP117	ltpFR	8	n/a	n/a	n/a	n/a	n/a	n/a	n/a	12	6	5	1	n/a	n/a	n/a	n/a	n/a
928.534	n/a	PROB	464267	n/a	LTP117	ltpFR	8	n/a	n/a	n/a	n/a	n/a	n/a	n/a	1	8	1	8	n/a	n/a	n/a	n/a	n/a
931.29	n/a	PROB	465645	n/a	LTP117	ltpFR	8	n/a	n/a	n/a	n/a	n/a	n/a	n/a	14	5	9	2	n/a	n/a	n/a	n/a	n/a
932.492	n/a	STOP	466246	n/a	LTP117	ltpFR	8	n/a	n/a	n/a	n/a	n/a	n/a	n/a	n/a	n/a	n/a	n/a	n/a	n/a	n/a	n/a	n/a
934.008	n/a	WORD	467004	wordpools/wasnorm_wordpool.txt	LTP117	ltpFR	8	4	0	MANSION	864	n/a	n/a	1	n/a	0	0	0	0.57763671875	0.412841796875	1	upper	zerothre.ttf
937.016	n/a	START	468508	n/a	LTP117	ltpFR	8	n/a	n/a	n/a	n/a	n/a	n/a	n/a	n/a	n/a	n/a	n/a	n/a	n/a	n/a	n/a	n/a
937.89	n/a	PROB	468945	n/a	LTP117	ltpFR	8	n/a	n/a	n/a	n/a	n/a	n/a	n/a	27	9	8	8	n/a	n/a	n/a	n/a	n/a
940.23	n/a	PROB	470115	n/a	LTP117	ltpFR	8	n/a	n/a	n/a	n/a	n/a	n/a	n/a	8	4	1	3	n/a	n/a	n/a	n/a	n/a
941.322	n/a	PROB	470661	n/a	LTP117	ltpFR	8	n/a	n/a	n/a	n/a	n/a	n/a	n/a	13	8	3	2	n/a	n/a	n/a	n/a	n/a
942.87	n/a	PROB	471435	n/a	LTP117	ltpFR	8	n/a	n/a	n/a	n/a	n/a	n/a	n/a	9	3	3	2	n/a	n/a	n/a	n/a	n/a
943.82	n/a	STOP	471910	n/a	LTP117	ltpFR	8	n/a	n/a	n/a	n/a	n/a	n/a	n/a	n/a	n/a	n/a	n/a	n/a	n/a	n/a	n/a	n/a
946.036	n/a	WORD	473018	wordpools/wasnorm_wordpool.txt	LTP117	ltpFR	8	4	0	OTTER	986	n/a	n/a	1	n/a	0	0	0	0.57763671875	0.412841796875	1	upper	zerothre.ttf
949.044	n/a	START	474522	n/a	LTP117	ltpFR	8	n/a	n/a	n/a	n/a	n/a	n/a	n/a	n/a	n/a	n/a	n/a	n/a	n/a	n/a	n/a	n/a
949.852	n/a	PROB	474926	n/a	LTP117	ltpFR	8	n/a	n/a	n/a	n/a	n/a	n/a	n/a	10	8	1	1	n/a	n/a	n/a	n/a	n/a
950.776	n/a	PROB	475388	n/a	LTP117	ltpFR	8	n/a	n/a	n/a	n/a	n/a	n/a	n/a	12	5	4	3	n/a	n/a	n/a	n/a	n/a
952.26	n/a	PROB	476130	n/a	LTP117	ltpFR	8	n/a	n/a	n/a	n/a	n/a	n/a	n/a	133	1	4	8	n/a	n/a	n/a	n/a	n/a
953.668	n/a	PROB	476834	n/a	LTP117	ltpFR	8	n/a	n/a	n/a	n/a	n/a	n/a	n/a	18	5	8	5	n/a	n/a	n/a	n/a	n/a
954.892	n/a	PROB	477446	n/a	LTP117	ltpFR	8	n/a	n/a	n/a	n/a	n/a	n/a	n/a	18	4	6	9	n/a	n/a	n/a	n/a	n/a
956.142	n/a	STOP	478071	n/a	LTP117	ltpFR	8	n/a	n/a	n/a	n/a	n/a	n/a	n/a	n/a	n/a	n/a	n/a	n/a	n/a	n/a	n/a	n/a
958.142	n/a	WORD	479071	wordpools/wasnorm_wordpool.txt	LTP117	ltpFR	8	4	0	LUMBER	848	n/a	n/a	1	n/a	0	0	0	0.57763671875	0.412841796875	1	upper	zerothre.ttf
961.15	n/a	START	480575	n/a	LTP117	ltpFR	8	n/a	n/a	n/a	n/a	n/a	n/a	n/a	n/a	n/a	n/a	n/a	n/a	n/a	n/a	n/a	n/a
962.072	n/a	PROB	481036	n/a	LTP117	ltpFR	8	n/a	n/a	n/a	n/a	n/a	n/a	n/a	23	8	8	7	n/a	n/a	n/a	n/a	n/a
964.99	n/a	PROB	482495	n/a	LTP117	ltpFR	8	n/a	n/a	n/a	n/a	n/a	n/a	n/a	19	4	9	6	n/a	n/a	n/a	n/a	n/a
966.414	n/a	PROB	483207	n/a	LTP117	ltpFR	8	n/a	n/a	n/a	n/a	n/a	n/a	n/a	19	6	3	7	n/a	n/a	n/a	n/a	n/a
967.774	n/a	STOP	483887	n/a	LTP117	ltpFR	8	n/a	n/a	n/a	n/a	n/a	n/a	n/a	n/a	n/a	n/a	n/a	n/a	n/a	n/a	n/a	n/a
970.078	n/a	WORD	485039	wordpools/wasnorm_wordpool.txt	LTP117	ltpFR	8	4	0	CHAMBER	277	n/a	n/a	1	n/a	0	0	0	0.57763671875	0.412841796875	1	upper	zerothre.ttf
973.086	n/a	START	486543	n/a	LTP117	ltpFR	8	n/a	n/a	n/a	n/a	n/a	n/a	n/a	n/a	n/a	n/a	n/a	n/a	n/a	n/a	n/a	n/a
974.186	n/a	PROB	487093	n/a	LTP117	ltpFR	8	n/a	n/a	n/a	n/a	n/a	n/a	n/a	136	2	7	4	n/a	n/a	n/a	n/a	n/a
975.678	n/a	PROB	487839	n/a	LTP117	ltpFR	8	n/a	n/a	n/a	n/a	n/a	n/a	n/a	15	8	3	4	n/a	n/a	n/a	n/a	n/a
977.828	n/a	PROB	488914	n/a	LTP117	ltpFR	8	n/a	n/a	n/a	n/a	n/a	n/a	n/a	19	8	8	3	n/a	n/a	n/a	n/a	n/a
979.236	n/a	PROB	489618	n/a	LTP117	ltpFR	8	n/a	n/a	n/a	n/a	n/a	n/a	n/a	15	6	1	8	n/a	n/a	n/a	n/a	n/a
980.846	n/a	STOP	490423	n/a	LTP117	ltpFR	8	n/a	n/a	n/a	n/a	n/a	n/a	n/a	n/a	n/a	n/a	n/a	n/a	n/a	n/a	n/a	n/a
982.15	n/a	WORD	491075	wordpools/wasnorm_wordpool.txt	LTP117	ltpFR	8	4	1	INMATE	738	n/a	n/a	0	n/a	0	0	0	0.422607421875	0.5869140625	0	lower	amplitud.ttf
985.158	n/a	START	492579	n/a	LTP117	ltpFR	8	n/a	n/a	n/a	n/a	n/a	n/a	n/a	n/a	n/a	n/a	n/a	n/a	n/a	n/a	n/a	n/a
986.108	n/a	PROB	493054	n/a	LTP117	ltpFR	8	n/a	n/a	n/a	n/a	n/a	n/a	n/a	18	4	8	4	n/a	n/a	n/a	n/a	n/a
987.598	n/a	PROB	493799	n/a	LTP117	ltpFR	8	n/a	n/a	n/a	n/a	n/a	n/a	n/a	16	6	1	9	n/a	n/a	n/a	n/a	n/a
989.374	n/a	PROB	494687	n/a	LTP117	ltpFR	8	n/a	n/a	n/a	n/a	n/a	n/a	n/a	18	7	2	9	n/a	n/a	n/a	n/a	n/a
990.798	n/a	PROB	495399	n/a	LTP117	ltpFR	8	n/a	n/a	n/a	n/a	n/a	n/a	n/a	15	3	5	8	n/a	n/a	n/a	n/a	n/a
992.752	n/a	STOP	496376	n/a	LTP117	ltpFR	8	n/a	n/a	n/a	n/a	n/a	n/a	n/a	n/a	n/a	n/a	n/a	n/a	n/a	n/a	n/a	n/a
994.088	n/a	WORD	497044	wordpools/wasnorm_wordpool.txt	LTP117	ltpFR	8	4	1	PREDATOR	1120	n/a	n/a	0	n/a	0	0	0	0.422607421875	0.5869140625	0	lower	amplitud.ttf
997.096	n/a	START	498548	n/a	LTP117	ltpFR	8	n/a	n/a	n/a	n/a	n/a	n/a	n/a	n/a	n/a	n/a	n/a	n/a	n/a	n/a	n/a	n/a
998.07	n/a	PROB	499035	n/a	LTP117	ltpFR	8	n/a	n/a	n/a	n/a	n/a	n/a	n/a	20	9	2	9	n/a	n/a	n/a	n/a	n/a
1000.162	n/a	PROB	500081	n/a	LTP117	ltpFR	8	n/a	n/a	n/a	n/a	n/a	n/a	n/a	22	6	9	7	n/a	n/a	n/a	n/a	n/a
1003.02	n/a	PROB	501510	n/a	LTP117	ltpFR	8	n/a	n/a	n/a	n/a	n/a	n/a	n/a	18	4	7	9	n/a	n/a	n/a	n/a	n/a
1004.896	n/a	STOP	502448	n/a	LTP117	ltpFR	8	n/a	n/a	n/a	n/a	n/a	n/a	n/a	n/a	n/a	n/a	n/a	n/a	n/a	n/a	n/a	n/a
1006.302	n/a	WORD	503151	wordpools/wasnorm_wordpool.txt	LTP117	ltpFR	8	4	1	SNEAKER	1334	n/a	n/a	0	n/a	0	0	0	0.422607421875	0.5869140625	0	lower	amplitud.ttf
1009.31	n/a	START	504655	n/a	LTP117	ltpFR	8	n/a	n/a	n/a	n/a	n/a	n/a	n/a	n/a	n/a	n/a	n/a	n/a	n/a	n/a	n/a	n/a
1010.376	n/a	PROB	505188	n/a	LTP117	ltpFR	8	n/a	n/a	n/a	n/a	n/a	n/a	n/a	18	7	6	5	n/a	n/a	n/a	n/a	n/a
1012.334	n/a	PROB	506167	n/a	LTP117	ltpFR	8	n/a	n/a	n/a	n/a	n/a	n/a	n/a	15	8	4	3	n/a	n/a	n/a	n/a	n/a
1013.642	n/a	PROB	506821	n/a	LTP117	ltpFR	8	n/a	n/a	n/a	n/a	n/a	n/a	n/a	8	4	2	2	n/a	n/a	n/a	n/a	n/a
1014.658	n/a	PROB	507329	n/a	LTP117	ltpFR	8	n/a	n/a	n/a	n/a	n/a	n/a	n/a	17	8	3	6	n/a	n/a	n/a	n/a	n/a
1016.296	n/a	STOP	508148	n/a	LTP117	ltpFR	8	n/a	n/a	n/a	n/a	n/a	n/a	n/a	n/a	n/a	n/a	n/a	n/a	n/a	n/a	n/a	n/a
1018.298	n/a	WORD	509149	wordpools/wasnorm_wordpool.txt	LTP117	ltpFR	8	4	1	TOE	1473	n/a	n/a	0	n/a	0	0	0	0.422607421875	0.5869140625	0	lower	amplitud.ttf
1021.306	n/a	START	510653	n/a	LTP117	ltpFR	8	n/a	n/a	n/a	n/a	n/a	n/a	n/a	n/a	n/a	n/a	n/a	n/a	n/a	n/a	n/a	n/a
1022.272	n/a	PROB	511136	n/a	LTP117	ltpFR	8	n/a	n/a	n/a	n/a	n/a	n/a	n/a	18	6	7	5	n/a	n/a	n/a	n/a	n/a
1023.672	n/a	PROB	511836	n/a	LTP117	ltpFR	8	n/a	n/a	n/a	n/a	n/a	n/a	n/a	16	5	3	8	n/a	n/a	n/a	n/a	n/a
1024.812	n/a	PROB	512406	n/a	LTP117	ltpFR	8	n/a	n/a	n/a	n/a	n/a	n/a	n/a	10	1	7	2	n/a	n/a	n/a	n/a	n/a
1026.086	n/a	PROB	513043	n/a	LTP117	ltpFR	8	n/a	n/a	n/a	n/a	n/a	n/a	n/a	21	8	4	9	n/a	n/a	n/a	n/a	n/a
1027.776	n/a	STOP	513888	n/a	LTP117	ltpFR	8	n/a	n/a	n/a	n/a	n/a	n/a	n/a	n/a	n/a	n/a	n/a	n/a	n/a	n/a	n/a	n/a
1030.42	n/a	WORD	515210	wordpools/wasnorm_wordpool.txt	LTP117	ltpFR	8	4	1	CONVICT	371	n/a	n/a	0	n/a	0	0	0	0.422607421875	0.5869140625	0	lower	amplitud.ttf
1033.428	n/a	START	516714	n/a	LTP117	ltpFR	8	n/a	n/a	n/a	n/a	n/a	n/a	n/a	n/a	n/a	n/a	n/a	n/a	n/a	n/a	n/a	n/a
1034.626	n/a	PROB	517313	n/a	LTP117	ltpFR	8	n/a	n/a	n/a	n/a	n/a	n/a	n/a	13	4	5	4	n/a	n/a	n/a	n/a	n/a
1036.652	n/a	PROB	518326	n/a	LTP117	ltpFR	8	n/a	n/a	n/a	n/a	n/a	n/a	n/a	7	1	5	1	n/a	n/a	n/a	n/a	n/a
1037.668	n/a	PROB	518834	n/a	LTP117	ltpFR	8	n/a	n/a	n/a	n/a	n/a	n/a	n/a	18	6	4	8	n/a	n/a	n/a	n/a	n/a
1041.428	n/a	STOP	520714	n/a	LTP117	ltpFR	8	n/a	n/a	n/a	n/a	n/a	n/a	n/a	n/a	n/a	n/a	n/a	n/a	n/a	n/a	n/a	n/a
1042.624	n/a	WORD	521312	wordpools/wasnorm_wordpool.txt	LTP117	ltpFR	8	4	1	BOUQUET	157	n/a	n/a	0	n/a	0	0	0	0.422607421875	0.5869140625	0	lower	amplitud.ttf
1045.632	n/a	START	522816	n/a	LTP117	ltpFR	8	n/a	n/a	n/a	n/a	n/a	n/a	n/a	n/a	n/a	n/a	n/a	n/a	n/a	n/a	n/a	n/a
1046.506	n/a	PROB	523253	n/a	LTP117	ltpFR	8	n/a	n/a	n/a	n/a	n/a	n/a	n/a	24	9	8	7	n/a	n/a	n/a	n/a	n/a
1048.356	n/a	PROB	524178	n/a	LTP117	ltpFR	8	n/a	n/a	n/a	n/a	n/a	n/a	n/a	5	1	3	1	n/a	n/a	n/a	n/a	n/a
1049.48	n/a	PROB	524740	n/a	LTP117	ltpFR	8	n/a	n/a	n/a	n/a	n/a	n/a	n/a	15	4	9	2	n/a	n/a	n/a	n/a	n/a
1050.772	n/a	PROB	525386	n/a	LTP117	ltpFR	8	n/a	n/a	n/a	n/a	n/a	n/a	n/a	17	5	9	3	n/a	n/a	n/a	n/a	n/a
1052.402	n/a	STOP	526201	n/a	LTP117	ltpFR	8	n/a	n/a	n/a	n/a	n/a	n/a	n/a	n/a	n/a	n/a	n/a	n/a	n/a	n/a	n/a	n/a
1054.788	n/a	WORD	527394	wordpools/wasnorm_wordpool.txt	LTP117	ltpFR	8	4	0	LOFT	840	n/a	n/a	2	n/a	0	0	0	0.57763671875	0.412841796875	1	upper	zerothre.ttf
1055.738	n/a	KEY_MSG	527869	n/a	LTP117	ltpFR	8	4	n/a	n/a	n/a	n/a	n/a	n/a	n/a	0	0	0	n/a	n/a	n/a	n/a	n/a
1057.796	n/a	START	528898	n/a	LTP117	ltpFR	8	n/a	n/a	n/a	n/a	n/a	n/a	n/a	n/a	n/a	n/a	n/a	n/a	n/a	n/a	n/a	n/a
1058.736	n/a	PROB	529368	n/a	LTP117	ltpFR	8	n/a	n/a	n/a	n/a	n/a	n/a	n/a	7	1	4	2	n/a	n/a	n/a	n/a	n/a
1059.71	n/a	PROB	529855	n/a	LTP117	ltpFR	8	n/a	n/a	n/a	n/a	n/a	n/a	n/a	17	2	8	7	n/a	n/a	n/a	n/a	n/a
1061.41	n/a	PROB	530705	n/a	LTP117	ltpFR	8	n/a	n/a	n/a	n/a	n/a	n/a	n/a	26	9	9	8	n/a	n/a	n/a	n/a	n/a
1065.796	n/a	STOP	532898	n/a	LTP117	ltpFR	8	n/a	n/a	n/a	n/a	n/a	n/a	n/a	n/a	n/a	n/a	n/a	n/a	n/a	n/a	n/a	n/a
1066.726	n/a	WORD	533363	wordpools/wasnorm_wordpool.txt	LTP117	ltpFR	8	4	0	VINE	1568	n/a	n/a	1	n/a	0	0	0	0.57763671875	0.412841796875	1	upper	zerothre.ttf
1069.734	n/a	START	534867	n/a	LTP117	ltpFR	8	n/a	n/a	n/a	n/a	n/a	n/a	n/a	n/a	n/a	n/a	n/a	n/a	n/a	n/a	n/a	n/a
1070.632	n/a	PROB	535316	n/a	LTP117	ltpFR	8	n/a	n/a	n/a	n/a	n/a	n/a	n/a	19	3	9	7	n/a	n/a	n/a	n/a	n/a
1072.016	n/a	PROB	536008	n/a	LTP117	ltpFR	8	n/a	n/a	n/a	n/a	n/a	n/a	n/a	7	1	1	5	n/a	n/a	n/a	n/a	n/a
1072.99	n/a	PROB	536495	n/a	LTP117	ltpFR	8	n/a	n/a	n/a	n/a	n/a	n/a	n/a	15	5	2	8	n/a	n/a	n/a	n/a	n/a
1074.14	n/a	PROB	537070	n/a	LTP117	ltpFR	8	n/a	n/a	n/a	n/a	n/a	n/a	n/a	11	2	6	3	n/a	n/a	n/a	n/a	n/a
1075.74	n/a	PROB	537870	n/a	LTP117	ltpFR	8	n/a	n/a	n/a	n/a	n/a	n/a	n/a	18	9	2	8	n/a	n/a	n/a	n/a	n/a
1077.09	n/a	STOP	538545	n/a	LTP117	ltpFR	8	n/a	n/a	n/a	n/a	n/a	n/a	n/a	n/a	n/a	n/a	n/a	n/a	n/a	n/a	n/a	n/a
1078.788	n/a	WORD	539394	wordpools/wasnorm_wordpool.txt	LTP117	ltpFR	8	4	0	STREAM	1392	n/a	n/a	1	n/a	0	0	0	0.57763671875	0.412841796875	1	upper	zerothre.ttf
1081.796	n/a	START	540898	n/a	LTP117	ltpFR	8	n/a	n/a	n/a	n/a	n/a	n/a	n/a	n/a	n/a	n/a	n/a	n/a	n/a	n/a	n/a	n/a
1082.928	n/a	PROB	541464	n/a	LTP117	ltpFR	8	n/a	n/a	n/a	n/a	n/a	n/a	n/a	18	3	9	5	n/a	n/a	n/a	n/a	n/a
1084.62	n/a	PROB	542310	n/a	LTP117	ltpFR	8	n/a	n/a	n/a	n/a	n/a	n/a	n/a	8	1	1	6	n/a	n/a	n/a	n/a	n/a
1085.578	n/a	PROB	542789	n/a	LTP117	ltpFR	8	n/a	n/a	n/a	n/a	n/a	n/a	n/a	19	6	6	7	n/a	n/a	n/a	n/a	n/a
1087.786	n/a	PROB	543893	n/a	LTP117	ltpFR	8	n/a	n/a	n/a	n/a	n/a	n/a	n/a	19	5	9	5	n/a	n/a	n/a	n/a	n/a
1089.612	n/a	STOP	544806	n/a	LTP117	ltpFR	8	n/a	n/a	n/a	n/a	n/a	n/a	n/a	n/a	n/a	n/a	n/a	n/a	n/a	n/a	n/a	n/a
1090.618	n/a	WORD	545309	wordpools/wasnorm_wordpool.txt	LTP117	ltpFR	8	4	1	SOCK	1339	n/a	n/a	0	n/a	0	0	0	0.422607421875	0.5869140625	0	lower	amplitud.ttf
1093.626	n/a	START	546813	n/a	LTP117	ltpFR	8	n/a	n/a	n/a	n/a	n/a	n/a	n/a	n/a	n/a	n/a	n/a	n/a	n/a	n/a	n/a	n/a
1094.516	n/a	PROB	547258	n/a	LTP117	ltpFR	8	n/a	n/a	n/a	n/a	n/a	n/a	n/a	16	8	6	2	n/a	n/a	n/a	n/a	n/a
1096.192	n/a	PROB	548096	n/a	LTP117	ltpFR	8	n/a	n/a	n/a	n/a	n/a	n/a	n/a	11	1	1	9	n/a	n/a	n/a	n/a	n/a
1097.158	n/a	PROB	548579	n/a	LTP117	ltpFR	8	n/a	n/a	n/a	n/a	n/a	n/a	n/a	15	3	8	4	n/a	n/a	n/a	n/a	n/a
1099.048	n/a	PROB	549524	n/a	LTP117	ltpFR	8	n/a	n/a	n/a	n/a	n/a	n/a	n/a	21	7	8	6	n/a	n/a	n/a	n/a	n/a
1100.436	n/a	STOP	550218	n/a	LTP117	ltpFR	8	n/a	n/a	n/a	n/a	n/a	n/a	n/a	n/a	n/a	n/a	n/a	n/a	n/a	n/a	n/a	n/a
1102.69	n/a	WORD	551345	wordpools/wasnorm_wordpool.txt	LTP117	ltpFR	8	4	1	ANKLE	24	n/a	n/a	0	n/a	0	0	0	0.422607421875	0.5869140625	0	lower	amplitud.ttf
1105.698	n/a	START	552849	n/a	LTP117	ltpFR	8	n/a	n/a	n/a	n/a	n/a	n/a	n/a	n/a	n/a	n/a	n/a	n/a	n/a	n/a	n/a	n/a
1106.838	n/a	PROB	553419	n/a	LTP117	ltpFR	8	n/a	n/a	n/a	n/a	n/a	n/a	n/a	1	8	2	3	n/a	n/a	n/a	n/a	n/a
1110.094	n/a	PROB	555047	n/a	LTP117	ltpFR	8	n/a	n/a	n/a	n/a	n/a	n/a	n/a	20	9	2	9	n/a	n/a	n/a	n/a	n/a
1111.77	n/a	PROB	555885	n/a	LTP117	ltpFR	8	n/a	n/a	n/a	n/a	n/a	n/a	n/a	13	3	9	1	n/a	n/a	n/a	n/a	n/a
1112.686	n/a	STOP	556343	n/a	LTP117	ltpFR	8	n/a	n/a	n/a	n/a	n/a	n/a	n/a	n/a	n/a	n/a	n/a	n/a	n/a	n/a	n/a	n/a
1115.47	n/a	REC_START	557735	n/a	LTP117	ltpFR	8	4	n/a	n/a	n/a	n/a	n/a	n/a	n/a	0	0	0	n/a	n/a	n/a	n/a	n/a
1116.492	n/a	REC_WORD	558246	wordpools/wasnorm_wordpool.txt	LTP117	ltpFR	8	4	1	ANKLE	24	n/a	n/a	0	n/a	0	0	0	n/a	n/a	n/a	n/a	n/a
1117.59	n/a	REC_WORD	558795	wordpools/wasnorm_wordpool.txt	LTP117	ltpFR	8	4	0	MANSION	864	n/a	n/a	1	n/a	0	0	0	n/a	n/a	n/a	n/a	n/a
1118.642	n/a	REC_WORD	559321	wordpools/wasnorm_wordpool.txt	LTP117	ltpFR	8	4	0	FORT	595	n/a	n/a	1	n/a	0	0	0	n/a	n/a	n/a	n/a	n/a
1119.704	n/a	REC_WORD	559852	wordpools/wasnorm_wordpool.txt	LTP117	ltpFR	8	4	0	OTTER	986	n/a	n/a	1	n/a	0	0	0	n/a	n/a	n/a	n/a	n/a
1140.728	n/a	REC_WORD	570364	wordpools/wasnorm_wordpool.txt	LTP117	ltpFR	8	4	1	INMATE	738	n/a	n/a	0	n/a	0	0	0	n/a	n/a	n/a	n/a	n/a
1141.57	n/a	REC_WORD	570785	wordpools/wasnorm_wordpool.txt	LTP117	ltpFR	8	4	1	CONVICT	371	n/a	n/a	0	n/a	0	0	0	n/a	n/a	n/a	n/a	n/a
1171.63	n/a	REC_WORD	585815	wordpools/wasnorm_wordpool.txt	LTP117	ltpFR	8	4	0	FORT	595	n/a	n/a	1	n/a	0	0	0	n/a	n/a	n/a	n/a	n/a
1181.748	n/a	REC_WORD	590874	wordpools/wasnorm_wordpool.txt	LTP117	ltpFR	8	4	1	SNEAKER	1334	n/a	n/a	0	n/a	0	0	0	n/a	n/a	n/a	n/a	n/a
1194.254	n/a	WORD	597127	wordpools/wasnorm_wordpool.txt	LTP117	ltpFR	8	5	0	LEOPARD	812	n/a	n/a	1	n/a	0	0	0	0.57763671875	0.412841796875	1	upper	zerothre.ttf
1198.11	n/a	WORD	599055	wordpools/wasnorm_wordpool.txt	LTP117	ltpFR	8	5	0	VEGETABLE	1552	n/a	n/a	0	n/a	0	0	0	0.57763671875	0.412841796875	1	upper	zerothre.ttf
1202.284	n/a	WORD	601142	wordpools/wasnorm_wordpool.txt	LTP117	ltpFR	8	5	0	PANTHER	1009	n/a	n/a	1	n/a	0	0	0	0.57763671875	0.412841796875	1	upper	zerothre.ttf
1206.226	n/a	WORD	603113	wordpools/wasnorm_wordpool.txt	LTP117	ltpFR	8	5	0	SLIDE	1326	n/a	n/a	0	n/a	0	0	0	0.57763671875	0.412841796875	1	upper	zerothre.ttf
1210.266	n/a	WORD	605133	wordpools/wasnorm_wordpool.txt	LTP117	ltpFR	8	5	0	SINK	1309	n/a	n/a	0	n/a	0	0	0	0.57763671875	0.412841796875	1	upper	zerothre.ttf
1214.138	n/a	WORD	607069	wordpools/wasnorm_wordpool.txt	LTP117	ltpFR	8	5	0	NEWSSTAND	949	n/a	n/a	0	n/a	0	0	0	0.57763671875	0.412841796875	1	upper	zerothre.ttf
1218.112	n/a	WORD	609056	wordpools/wasnorm_wordpool.txt	LTP117	ltpFR	8	5	0	BEAN	105	n/a	n/a	0	n/a	0	0	0	0.57763671875	0.412841796875	1	upper	zerothre.ttf
1222.22	n/a	WORD	611110	wordpools/wasnorm_wordpool.txt	LTP117	ltpFR	8	5	0	TREE	1502	n/a	n/a	0	n/a	0	0	0	0.57763671875	0.412841796875	1	upper	zerothre.ttf
1226.06	n/a	WORD	613030	wordpools/wasnorm_wordpool.txt	LTP117	ltpFR	8	5	0	ROSE	1212	n/a	n/a	0	n/a	0	0	0	0.57763671875	0.412841796875	1	upper	zerothre.ttf
1230.092	n/a	WORD	615046	wordpools/wasnorm_wordpool.txt	LTP117	ltpFR	8	5	0	HAIL	676	n/a	n/a	0	n/a	0	0	0	0.57763671875	0.412841796875	1	upper	zerothre.ttf
1234.182	n/a	WORD	617091	wordpools/wasnorm_wordpool.txt	LTP117	ltpFR	8	5	0	PATIO	1025	n/a	n/a	0	n/a	0	0	0	0.57763671875	0.412841796875	1	upper	zerothre.ttf
1238.248	n/a	WORD	619124	wordpools/wasnorm_wordpool.txt	LTP117	ltpFR	8	5	0	SOFA	1342	n/a	n/a	0	n/a	0	0	0	0.57763671875	0.412841796875	1	upper	zerothre.ttf
1242.414	n/a	WORD	621207	wordpools/wasnorm_wordpool.txt	LTP117	ltpFR	8	5	0	LEAF	808	n/a	n/a	0	n/a	0	0	0	0.57763671875	0.412841796875	1	upper	zerothre.ttf
1246.488	n/a	WORD	623244	wordpools/wasnorm_wordpool.txt	LTP117	ltpFR	8	5	0	CRAB	397	n/a	n/a	0	n/a	0	0	0	0.57763671875	0.412841796875	1	upper	zerothre.ttf
1250.486	n/a	WORD	625243	wordpools/wasnorm_wordpool.txt	LTP117	ltpFR	8	5	0	SAUSAGE	1238	n/a	n/a	0	n/a	0	0	0	0.57763671875	0.412841796875	1	upper	zerothre.ttf
1254.676	n/a	WORD	627338	wordpools/wasnorm_wordpool.txt	LTP117	ltpFR	8	5	0	BANQUET	86	n/a	n/a	0	n/a	0	0	0	0.57763671875	0.412841796875	1	upper	zerothre.ttf
1257.686	n/a	START	628843	n/a	LTP117	ltpFR	8	n/a	n/a	n/a	n/a	n/a	n/a	n/a	n/a	n/a	n/a	n/a	n/a	n/a	n/a	n/a	n/a
1258.718	n/a	PROB	629359	n/a	LTP117	ltpFR	8	n/a	n/a	n/a	n/a	n/a	n/a	n/a	17	1	9	7	n/a	n/a	n/a	n/a	n/a
1260.492	n/a	PROB	630246	n/a	LTP117	ltpFR	8	n/a	n/a	n/a	n/a	n/a	n/a	n/a	10	1	3	6	n/a	n/a	n/a	n/a	n/a
1261.558	n/a	PROB	630779	n/a	LTP117	ltpFR	8	n/a	n/a	n/a	n/a	n/a	n/a	n/a	13	9	2	3	n/a	n/a	n/a	n/a	n/a
1262.9	n/a	PROB	631450	n/a	LTP117	ltpFR	8	n/a	n/a	n/a	n/a	n/a	n/a	n/a	4	2	1	1	n/a	n/a	n/a	n/a	n/a
1264.65	n/a	PROB	632325	n/a	LTP117	ltpFR	8	n/a	n/a	n/a	n/a	n/a	n/a	n/a	21	6	8	7	n/a	n/a	n/a	n/a	n/a
1265.816	n/a	PROB	632908	n/a	LTP117	ltpFR	8	n/a	n/a	n/a	n/a	n/a	n/a	n/a	15	3	8	4	n/a	n/a	n/a	n/a	n/a
1267.198	n/a	PROB	633599	n/a	LTP117	ltpFR	8	n/a	n/a	n/a	n/a	n/a	n/a	n/a	15	7	4	4	n/a	n/a	n/a	n/a	n/a
1269.814	n/a	PROB	634907	n/a	LTP117	ltpFR	8	n/a	n/a	n/a	n/a	n/a	n/a	n/a	13	6	2	5	n/a	n/a	n/a	n/a	n/a
1271.58	n/a	PROB	635790	n/a	LTP117	ltpFR	8	n/a	n/a	n/a	n/a	n/a	n/a	n/a	20	9	6	5	n/a	n/a	n/a	n/a	n/a
1273.182	n/a	STOP	636591	n/a	LTP117	ltpFR	8	n/a	n/a	n/a	n/a	n/a	n/a	n/a	n/a	n/a	n/a	n/a	n/a	n/a	n/a	n/a	n/a
1275.596	n/a	REC_START	637798	n/a	LTP117	ltpFR	8	5	n/a	n/a	n/a	n/a	n/a	n/a	n/a	0	0	0	n/a	n/a	n/a	n/a	n/a
1276.07	n/a	REC_WORD	638035	wordpools/wasnorm_wordpool.txt	LTP117	ltpFR	8	5	n/a	RAIN	-1	n/a	n/a	n/a	n/a	0	0	0	n/a	n/a	n/a	n/a	n/a
1276.404	n/a	REC_WORD	638202	wordpools/wasnorm_wordpool.txt	LTP117	ltpFR	8	5	0	TREE	1502	n/a	n/a	0	n/a	0	0	0	n/a	n/a	n/a	n/a	n/a
1276.922	n/a	REC_WORD	638461	wordpools/wasnorm_wordpool.txt	LTP117	ltpFR	8	5	0	HAIL	676	n/a	n/a	0	n/a	0	0	0	n/a	n/a	n/a	n/a	n/a
1278.136	n/a	REC_WORD	639068	wordpools/wasnorm_wordpool.txt	LTP117	ltpFR	8	5	0	PATIO	1025	n/a	n/a	0	n/a	0	0	0	n/a	n/a	n/a	n/a	n/a
1278.632	n/a	REC_WORD	639316	wordpools/wasnorm_wordpool.txt	LTP117	ltpFR	8	5	0	SOFA	1342	n/a	n/a	0	n/a	0	0	0	n/a	n/a	n/a	n/a	n/a
1280.036	n/a	REC_WORD	640018	wordpools/wasnorm_wordpool.txt	LTP117	ltpFR	8	5	0	BEAN	105	n/a	n/a	0	n/a	0	0	0	n/a	n/a	n/a	n/a	n/a
1280.87	n/a	REC_WORD	640435	wordpools/wasnorm_wordpool.txt	LTP117	ltpFR	8	5	0	NEWSSTAND	949	n/a	n/a	0	n/a	0	0	0	n/a	n/a	n/a	n/a	n/a
1282.496	n/a	REC_WORD	641248	wordpools/wasnorm_wordpool.txt	LTP117	ltpFR	8	5	0	LEOPARD	812	n/a	n/a	1	n/a	0	0	0	n/a	n/a	n/a	n/a	n/a
1283.21	n/a	REC_WORD	641605	wordpools/wasnorm_wordpool.txt	LTP117	ltpFR	8	5	0	PANTHER	1009	n/a	n/a	1	n/a	0	0	0	n/a	n/a	n/a	n/a	n/a
1283.908	n/a	REC_WORD	641954	wordpools/wasnorm_wordpool.txt	LTP117	ltpFR	8	5	0	SLIDE	1326	n/a	n/a	0	n/a	0	0	0	n/a	n/a	n/a	n/a	n/a
1285.478	n/a	REC_WORD	642739	wordpools/wasnorm_wordpool.txt	LTP117	ltpFR	8	5	0	VEGETABLE	1552	n/a	n/a	0	n/a	0	0	0	n/a	n/a	n/a	n/a	n/a
1290.916	n/a	REC_WORD	645458	wordpools/wasnorm_wordpool.txt	LTP117	ltpFR	8	5	0	PATIO	1025	n/a	n/a	0	n/a	0	0	0	n/a	n/a	n/a	n/a	n/a
1291.62	n/a	REC_WORD	645810	wordpools/wasnorm_wordpool.txt	LTP117	ltpFR	8	5	0	SOFA	1342	n/a	n/a	0	n/a	0	0	0	n/a	n/a	n/a	n/a	n/a
1297.168	n/a	REC_WORD	648584	wordpools/wasnorm_wordpool.txt	LTP117	ltpFR	8	5	0	SAUSAGE	1238	n/a	n/a	0	n/a	0	0	0	n/a	n/a	n/a	n/a	n/a
1322.762	n/a	REC_WORD	661381	wordpools/wasnorm_wordpool.txt	LTP117	ltpFR	8	5	0	SINK	1309	n/a	n/a	0	n/a	0	0	0	n/a	n/a	n/a	n/a	n/a
1333.348	n/a	REC_WORD	666674	wordpools/wasnorm_wordpool.txt	LTP117	ltpFR	8	5	0	BANQUET	86	n/a	n/a	0	n/a	0	0	0	n/a	n/a	n/a	n/a	n/a
1334.1	n/a	REC_WORD	667050	wordpools/wasnorm_wordpool.txt	LTP117	ltpFR	8	5	1	BOUQUET	157	n/a	n/a	0	n/a	0	0	0	n/a	n/a	n/a	n/a	n/a
1353.648	n/a	WORD	676824	wordpools/wasnorm_wordpool.txt	LTP117	ltpFR	8	6	1	BEARD	107	n/a	n/a	0	n/a	0	0	0	0.422607421875	0.5869140625	0	lower	amplitud.ttf
1357.538	n/a	WORD	678769	wordpools/wasnorm_wordpool.txt	LTP117	ltpFR	8	6	1	BRUNETTE	181	n/a	n/a	0	n/a	0	0	0	0.422607421875	0.5869140625	0	lower	amplitud.ttf
1361.478	n/a	WORD	680739	wordpools/wasnorm_wordpool.txt	LTP117	ltpFR	8	6	1	CAMEL	223	n/a	n/a	0	n/a	0	0	0	0.422607421875	0.5869140625	0	lower	amplitud.ttf
1365.626	n/a	WORD	682813	wordpools/wasnorm_wordpool.txt	LTP117	ltpFR	8	6	1	BABY	64	n/a	n/a	0	n/a	0	0	0	0.422607421875	0.5869140625	0	lower	amplitud.ttf
1369.808	n/a	WORD	684904	wordpools/wasnorm_wordpool.txt	LTP117	ltpFR	8	6	1	DANDELION	438	n/a	n/a	0	n/a	0	0	0	0.422607421875	0.5869140625	0	lower	amplitud.ttf
1373.716	n/a	WORD	686858	wordpools/wasnorm_wordpool.txt	LTP117	ltpFR	8	6	1	KIWI	781	n/a	n/a	0	n/a	0	0	0	0.422607421875	0.5869140625	0	lower	amplitud.ttf
1377.782	n/a	WORD	688891	wordpools/wasnorm_wordpool.txt	LTP117	ltpFR	8	6	1	CHILD	299	n/a	n/a	0	n/a	0	0	0	0.422607421875	0.5869140625	0	lower	amplitud.ttf
1381.756	n/a	WORD	690878	wordpools/wasnorm_wordpool.txt	LTP117	ltpFR	8	6	1	SHRUB	1299	n/a	n/a	0	n/a	0	0	0	0.422607421875	0.5869140625	0	lower	amplitud.ttf
1385.87	n/a	WORD	692935	wordpools/wasnorm_wordpool.txt	LTP117	ltpFR	8	6	1	CARPET	247	n/a	n/a	0	n/a	0	0	0	0.422607421875	0.5869140625	0	lower	amplitud.ttf
1389.77	n/a	WORD	694885	wordpools/wasnorm_wordpool.txt	LTP117	ltpFR	8	6	1	MOUTH	926	n/a	n/a	1	n/a	0	0	0	0.422607421875	0.5869140625	0	lower	amplitud.ttf
1393.602	n/a	WORD	696801	wordpools/wasnorm_wordpool.txt	LTP117	ltpFR	8	6	1	JAW	751	n/a	n/a	1	n/a	0	0	0	0.422607421875	0.5869140625	0	lower	amplitud.ttf
1397.792	n/a	WORD	698896	wordpools/wasnorm_wordpool.txt	LTP117	ltpFR	8	6	1	HEAD	695	n/a	n/a	1	n/a	0	0	0	0.422607421875	0.5869140625	0	lower	amplitud.ttf
1401.974	n/a	WORD	700987	wordpools/wasnorm_wordpool.txt	LTP117	ltpFR	8	6	1	NOOSE	956	n/a	n/a	0	n/a	0	0	0	0.422607421875	0.5869140625	0	lower	amplitud.ttf
1406.006	n/a	WORD	703003	wordpools/wasnorm_wordpool.txt	LTP117	ltpFR	8	6	1	LINEN	825	n/a	n/a	0	n/a	0	0	0	0.422607421875	0.5869140625	0	lower	amplitud.ttf
1409.862	n/a	WORD	704931	wordpools/wasnorm_wordpool.txt	LTP117	ltpFR	8	6	1	REEF	1177	n/a	n/a	0	n/a	0	0	0	0.422607421875	0.5869140625	0	lower	amplitud.ttf
1413.804	n/a	WORD	706902	wordpools/wasnorm_wordpool.txt	LTP117	ltpFR	8	6	1	BLACKBERRY	132	n/a	n/a	0	n/a	0	0	0	0.422607421875	0.5869140625	0	lower	amplitud.ttf
1419.378	n/a	REC_START	709689	n/a	LTP117	ltpFR	8	6	n/a	n/a	n/a	n/a	n/a	n/a	n/a	0	0	0	n/a	n/a	n/a	n/a	n/a
1420.206	n/a	REC_WORD	710103	wordpools/wasnorm_wordpool.txt	LTP117	ltpFR	8	6	1	MOUTH	926	n/a	n/a	1	n/a	0	0	0	n/a	n/a	n/a	n/a	n/a
1420.814	n/a	REC_WORD	710407	wordpools/wasnorm_wordpool.txt	LTP117	ltpFR	8	6	1	JAW	751	n/a	n/a	1	n/a	0	0	0	n/a	n/a	n/a	n/a	n/a
1421.428	n/a	REC_WORD	710714	wordpools/wasnorm_wordpool.txt	LTP117	ltpFR	8	6	1	HEAD	695	n/a	n/a	1	n/a	0	0	0	n/a	n/a	n/a	n/a	n/a
1423.118	n/a	REC_WORD	711559	wordpools/wasnorm_wordpool.txt	LTP117	ltpFR	8	6	1	LINEN	825	n/a	n/a	0	n/a	0	0	0	n/a	n/a	n/a	n/a	n/a
1428.022	n/a	REC_WORD	714011	wordpools/wasnorm_wordpool.txt	LTP117	ltpFR	8	6	1	CAMEL	223	n/a	n/a	0	n/a	0	0	0	n/a	n/a	n/a	n/a	n/a
1428.846	n/a	REC_WORD	714423	wordpools/wasnorm_wordpool.txt	LTP117	ltpFR	8	6	1	DANDELION	438	n/a	n/a	0	n/a	0	0	0	n/a	n/a	n/a	n/a	n/a
1430.868	n/a	REC_WORD	715434	wordpools/wasnorm_wordpool.txt	LTP117	ltpFR	8	6	1	BABY	64	n/a	n/a	0	n/a	0	0	0	n/a	n/a	n/a	n/a	n/a
1431.466	n/a	REC_WORD	715733	wordpools/wasnorm_wordpool.txt	LTP117	ltpFR	8	6	1	CHILD	299	n/a	n/a	0	n/a	0	0	0	n/a	n/a	n/a	n/a	n/a
1435.258	n/a	REC_WORD	717629	wordpools/wasnorm_wordpool.txt	LTP117	ltpFR	8	6	1	BRUNETTE	181	n/a	n/a	0	n/a	0	0	0	n/a	n/a	n/a	n/a	n/a
1447.34	n/a	REC_WORD	723670	wordpools/wasnorm_wordpool.txt	LTP117	ltpFR	8	6	1	SHRUB	1299	n/a	n/a	0	n/a	0	0	0	n/a	n/a	n/a	n/a	n/a
1495.922	n/a	START	747961	n/a	LTP117	ltpFR	8	n/a	n/a	n/a	n/a	n/a	n/a	n/a	n/a	n/a	n/a	n/a	n/a	n/a	n/a	n/a	n/a
1497.428	n/a	PROB	748714	n/a	LTP117	ltpFR	8	n/a	n/a	n/a	n/a	n/a	n/a	n/a	10	2	6	2	n/a	n/a	n/a	n/a	n/a
1498.786	n/a	PROB	749393	n/a	LTP117	ltpFR	8	n/a	n/a	n/a	n/a	n/a	n/a	n/a	9	5	2	1	n/a	n/a	n/a	n/a	n/a
1499.944	n/a	PROB	749972	n/a	LTP117	ltpFR	8	n/a	n/a	n/a	n/a	n/a	n/a	n/a	7	1	2	5	n/a	n/a	n/a	n/a	n/a
1501.218	n/a	PROB	750609	n/a	LTP117	ltpFR	8	n/a	n/a	n/a	n/a	n/a	n/a	n/a	10	4	3	3	n/a	n/a	n/a	n/a	n/a
1502.394	n/a	PROB	751197	n/a	LTP117	ltpFR	8	n/a	n/a	n/a	n/a	n/a	n/a	n/a	15	4	6	5	n/a	n/a	n/a	n/a	n/a
1503.844	n/a	PROB	751922	n/a	LTP117	ltpFR	8	n/a	n/a	n/a	n/a	n/a	n/a	n/a	14	5	2	7	n/a	n/a	n/a	n/a	n/a
1506.61	n/a	PROB	753305	n/a	LTP117	ltpFR	8	n/a	n/a	n/a	n/a	n/a	n/a	n/a	19	8	9	2	n/a	n/a	n/a	n/a	n/a
1508.4	n/a	PROB	754200	n/a	LTP117	ltpFR	8	n/a	n/a	n/a	n/a	n/a	n/a	n/a	20	3	8	9	n/a	n/a	n/a	n/a	n/a
1510.53	n/a	STOP	755265	n/a	LTP117	ltpFR	8	n/a	n/a	n/a	n/a	n/a	n/a	n/a	n/a	n/a	n/a	n/a	n/a	n/a	n/a	n/a	n/a
1513.098	n/a	WORD	756549	wordpools/wasnorm_wordpool.txt	LTP117	ltpFR	8	7	0	CARAVAN	242	n/a	n/a	1	n/a	0	0	0	0.57763671875	0.412841796875	1	upper	zerothre.ttf
1516.106	n/a	START	758053	n/a	LTP117	ltpFR	8	n/a	n/a	n/a	n/a	n/a	n/a	n/a	n/a	n/a	n/a	n/a	n/a	n/a	n/a	n/a	n/a
1516.964	n/a	PROB	758482	n/a	LTP117	ltpFR	8	n/a	n/a	n/a	n/a	n/a	n/a	n/a	20	6	5	9	n/a	n/a	n/a	n/a	n/a
1519.156	n/a	PROB	759578	n/a	LTP117	ltpFR	8	n/a	n/a	n/a	n/a	n/a	n/a	n/a	74	1	1	5	n/a	n/a	n/a	n/a	n/a
1520.038	n/a	PROB	760019	n/a	LTP117	ltpFR	8	n/a	n/a	n/a	n/a	n/a	n/a	n/a	13	3	5	5	n/a	n/a	n/a	n/a	n/a
1521.88	n/a	PROB	760940	n/a	LTP117	ltpFR	8	n/a	n/a	n/a	n/a	n/a	n/a	n/a	15	3	7	5	n/a	n/a	n/a	n/a	n/a
1523.154	n/a	PROB	761577	n/a	LTP117	ltpFR	8	n/a	n/a	n/a	n/a	n/a	n/a	n/a	156	8	4	2	n/a	n/a	n/a	n/a	n/a
1524.804	n/a	PROB	762402	n/a	LTP117	ltpFR	8	n/a	n/a	n/a	n/a	n/a	n/a	n/a	15	4	7	4	n/a	n/a	n/a	n/a	n/a
1526.436	n/a	PROB	763218	n/a	LTP117	ltpFR	8	n/a	n/a	n/a	n/a	n/a	n/a	n/a	13	6	3	4	n/a	n/a	n/a	n/a	n/a
1527.836	n/a	PROB	763918	n/a	LTP117	ltpFR	8	n/a	n/a	n/a	n/a	n/a	n/a	n/a	19	2	6	3	n/a	n/a	n/a	n/a	n/a
1532.106	n/a	STOP	766053	n/a	LTP117	ltpFR	8	n/a	n/a	n/a	n/a	n/a	n/a	n/a	n/a	n/a	n/a	n/a	n/a	n/a	n/a	n/a	n/a
1533.276	n/a	WORD	766638	wordpools/wasnorm_wordpool.txt	LTP117	ltpFR	8	7	0	KNOT	788	n/a	n/a	0	n/a	0	0	0	0.57763671875	0.412841796875	1	upper	zerothre.ttf
1536.284	n/a	START	768142	n/a	LTP117	ltpFR	8	n/a	n/a	n/a	n/a	n/a	n/a	n/a	n/a	n/a	n/a	n/a	n/a	n/a	n/a	n/a	n/a
1537.316	n/a	PROB	768658	n/a	LTP117	ltpFR	8	n/a	n/a	n/a	n/a	n/a	n/a	n/a	13	9	1	3	n/a	n/a	n/a	n/a	n/a
1538.492	n/a	PROB	769246	n/a	LTP117	ltpFR	8	n/a	n/a	n/a	n/a	n/a	n/a	n/a	20	8	6	6	n/a	n/a	n/a	n/a	n/a
1540.39	n/a	PROB	770195	n/a	LTP117	ltpFR	8	n/a	n/a	n/a	n/a	n/a	n/a	n/a	17	4	4	9	n/a	n/a	n/a	n/a	n/a
1541.832	n/a	PROB	770916	n/a	LTP117	ltpFR	8	n/a	n/a	n/a	n/a	n/a	n/a	n/a	27	8	8	9	n/a	n/a	n/a	n/a	n/a
1543.432	n/a	PROB	771716	n/a	LTP117	ltpFR	8	n/a	n/a	n/a	n/a	n/a	n/a	n/a	12	2	1	9	n/a	n/a	n/a	n/a	n/a
1544.806	n/a	PROB	772403	n/a	LTP117	ltpFR	8	n/a	n/a	n/a	n/a	n/a	n/a	n/a	16	2	6	8	n/a	n/a	n/a	n/a	n/a
1546.122	n/a	PROB	773061	n/a	LTP117	ltpFR	8	n/a	n/a	n/a	n/a	n/a	n/a	n/a	12	8	2	2	n/a	n/a	n/a	n/a	n/a
1547.23	n/a	PROB	773615	n/a	LTP117	ltpFR	8	n/a	n/a	n/a	n/a	n/a	n/a	n/a	14	5	1	8	n/a	n/a	n/a	n/a	n/a
1548.922	n/a	PROB	774461	n/a	LTP117	ltpFR	8	n/a	n/a	n/a	n/a	n/a	n/a	n/a	27	9	9	8	n/a	n/a	n/a	n/a	n/a
1552.286	n/a	STOP	776143	n/a	LTP117	ltpFR	8	n/a	n/a	n/a	n/a	n/a	n/a	n/a	n/a	n/a	n/a	n/a	n/a	n/a	n/a	n/a	n/a
1553.462	n/a	WORD	776731	wordpools/wasnorm_wordpool.txt	LTP117	ltpFR	8	7	0	TRACTOR	1493	n/a	n/a	0	n/a	0	0	0	0.57763671875	0.412841796875	1	upper	zerothre.ttf
1556.47	n/a	START	778235	n/a	LTP117	ltpFR	8	n/a	n/a	n/a	n/a	n/a	n/a	n/a	n/a	n/a	n/a	n/a	n/a	n/a	n/a	n/a	n/a
1557.468	n/a	PROB	778734	n/a	LTP117	ltpFR	8	n/a	n/a	n/a	n/a	n/a	n/a	n/a	10	1	8	1	n/a	n/a	n/a	n/a	n/a
1558.494	n/a	PROB	779247	n/a	LTP117	ltpFR	8	n/a	n/a	n/a	n/a	n/a	n/a	n/a	10	4	2	4	n/a	n/a	n/a	n/a	n/a
1559.61	n/a	PROB	779805	n/a	LTP117	ltpFR	8	n/a	n/a	n/a	n/a	n/a	n/a	n/a	10	5	3	2	n/a	n/a	n/a	n/a	n/a
1560.96	n/a	PROB	780480	n/a	LTP117	ltpFR	8	n/a	n/a	n/a	n/a	n/a	n/a	n/a	20	6	7	7	n/a	n/a	n/a	n/a	n/a
1562.45	n/a	PROB	781225	n/a	LTP117	ltpFR	8	n/a	n/a	n/a	n/a	n/a	n/a	n/a	15	2	7	6	n/a	n/a	n/a	n/a	n/a
1565.734	n/a	PROB	782867	n/a	LTP117	ltpFR	8	n/a	n/a	n/a	n/a	n/a	n/a	n/a	10	1	2	7	n/a	n/a	n/a	n/a	n/a
1566.716	n/a	PROB	783358	n/a	LTP117	ltpFR	8	n/a	n/a	n/a	n/a	n/a	n/a	n/a	8	5	1	2	n/a	n/a	n/a	n/a	n/a
1568.0	n/a	PROB	784000	n/a	LTP117	ltpFR	8	n/a	n/a	n/a	n/a	n/a	n/a	n/a	15	1	7	7	n/a	n/a	n/a	n/a	n/a
1569.84	n/a	PROB	784920	n/a	LTP117	ltpFR	8	n/a	n/a	n/a	n/a	n/a	n/a	n/a	15	1	9	5	n/a	n/a	n/a	n/a	n/a
1572.47	n/a	STOP	786235	n/a	LTP117	ltpFR	8	n/a	n/a	n/a	n/a	n/a	n/a	n/a	n/a	n/a	n/a	n/a	n/a	n/a	n/a	n/a	n/a
1573.548	n/a	WORD	786774	wordpools/wasnorm_wordpool.txt	LTP117	ltpFR	8	7	0	LIMOUSINE	824	n/a	n/a	0	n/a	0	0	0	0.57763671875	0.412841796875	1	upper	zerothre.ttf
1576.564	n/a	START	788282	n/a	LTP117	ltpFR	8	n/a	n/a	n/a	n/a	n/a	n/a	n/a	n/a	n/a	n/a	n/a	n/a	n/a	n/a	n/a	n/a
1577.546	n/a	PROB	788773	n/a	LTP117	ltpFR	8	n/a	n/a	n/a	n/a	n/a	n/a	n/a	15	2	9	4	n/a	n/a	n/a	n/a	n/a
1578.888	n/a	PROB	789444	n/a	LTP117	ltpFR	8	n/a	n/a	n/a	n/a	n/a	n/a	n/a	11	1	1	9	n/a	n/a	n/a	n/a	n/a
1579.862	n/a	PROB	789931	n/a	LTP117	ltpFR	8	n/a	n/a	n/a	n/a	n/a	n/a	n/a	10	1	4	5	n/a	n/a	n/a	n/a	n/a
1580.894	n/a	PROB	790447	n/a	LTP117	ltpFR	8	n/a	n/a	n/a	n/a	n/a	n/a	n/a	19	9	3	7	n/a	n/a	n/a	n/a	n/a
1582.96	n/a	PROB	791480	n/a	LTP117	ltpFR	8	n/a	n/a	n/a	n/a	n/a	n/a	n/a	16	6	4	6	n/a	n/a	n/a	n/a	n/a
1584.494	n/a	PROB	792247	n/a	LTP117	ltpFR	8	n/a	n/a	n/a	n/a	n/a	n/a	n/a	10	4	4	3	n/a	n/a	n/a	n/a	n/a
1585.52	n/a	PROB	792760	n/a	LTP117	ltpFR	8	n/a	n/a	n/a	n/a	n/a	n/a	n/a	27	7	9	9	n/a	n/a	n/a	n/a	n/a
1587.244	n/a	PROB	793622	n/a	LTP117	ltpFR	8	n/a	n/a	n/a	n/a	n/a	n/a	n/a	4	1	2	1	n/a	n/a	n/a	n/a	n/a
1588.168	n/a	PROB	794084	n/a	LTP117	ltpFR	8	n/a	n/a	n/a	n/a	n/a	n/a	n/a	15	6	6	3	n/a	n/a	n/a	n/a	n/a
1589.518	n/a	PROB	794759	n/a	LTP117	ltpFR	8	n/a	n/a	n/a	n/a	n/a	n/a	n/a	13	3	3	7	n/a	n/a	n/a	n/a	n/a
1590.734	n/a	PROB	795367	n/a	LTP117	ltpFR	8	n/a	n/a	n/a	n/a	n/a	n/a	n/a	18	6	5	7	n/a	n/a	n/a	n/a	n/a
1592.134	n/a	STOP	796067	n/a	LTP117	ltpFR	8	n/a	n/a	n/a	n/a	n/a	n/a	n/a	n/a	n/a	n/a	n/a	n/a	n/a	n/a	n/a	n/a
1593.5	n/a	WORD	796750	wordpools/wasnorm_wordpool.txt	LTP117	ltpFR	8	7	0	BANNER	85	n/a	n/a	1	n/a	0	0	0	0.57763671875	0.412841796875	1	upper	zerothre.ttf
1596.508	n/a	START	798254	n/a	LTP117	ltpFR	8	n/a	n/a	n/a	n/a	n/a	n/a	n/a	n/a	n/a	n/a	n/a	n/a	n/a	n/a	n/a	n/a
1597.674	n/a	PROB	798837	n/a	LTP117	ltpFR	8	n/a	n/a	n/a	n/a	n/a	n/a	n/a	12	4	6	2	n/a	n/a	n/a	n/a	n/a
1598.856	n/a	PROB	799428	n/a	LTP117	ltpFR	8	n/a	n/a	n/a	n/a	n/a	n/a	n/a	15	7	6	4	n/a	n/a	n/a	n/a	n/a
1601.064	n/a	PROB	800532	n/a	LTP117	ltpFR	8	n/a	n/a	n/a	n/a	n/a	n/a	n/a	17	7	8	2	n/a	n/a	n/a	n/a	n/a
1602.606	n/a	PROB	801303	n/a	LTP117	ltpFR	8	n/a	n/a	n/a	n/a	n/a	n/a	n/a	15	7	7	1	n/a	n/a	n/a	n/a	n/a
1603.788	n/a	PROB	801894	n/a	LTP117	ltpFR	8	n/a	n/a	n/a	n/a	n/a	n/a	n/a	13	7	4	2	n/a	n/a	n/a	n/a	n/a
1605.988	n/a	PROB	802994	n/a	LTP117	ltpFR	8	n/a	n/a	n/a	n/a	n/a	n/a	n/a	12	2	7	3	n/a	n/a	n/a	n/a	n/a
1607.528	n/a	PROB	803764	n/a	LTP117	ltpFR	8	n/a	n/a	n/a	n/a	n/a	n/a	n/a	14	3	7	4	n/a	n/a	n/a	n/a	n/a
1608.62	n/a	PROB	804310	n/a	LTP117	ltpFR	8	n/a	n/a	n/a	n/a	n/a	n/a	n/a	21	7	7	7	n/a	n/a	n/a	n/a	n/a
1609.644	n/a	PROB	804822	n/a	LTP117	ltpFR	8	n/a	n/a	n/a	n/a	n/a	n/a	n/a	19	8	9	2	n/a	n/a	n/a	n/a	n/a
1611.592	n/a	STOP	805796	n/a	LTP117	ltpFR	8	n/a	n/a	n/a	n/a	n/a	n/a	n/a	n/a	n/a	n/a	n/a	n/a	n/a	n/a	n/a	n/a
1613.626	n/a	WORD	806813	wordpools/wasnorm_wordpool.txt	LTP117	ltpFR	8	7	0	HORSE	719	n/a	n/a	1	n/a	0	0	0	0.57763671875	0.412841796875	1	upper	zerothre.ttf
1616.634	n/a	START	808317	n/a	LTP117	ltpFR	8	n/a	n/a	n/a	n/a	n/a	n/a	n/a	n/a	n/a	n/a	n/a	n/a	n/a	n/a	n/a	n/a
1617.784	n/a	PROB	808892	n/a	LTP117	ltpFR	8	n/a	n/a	n/a	n/a	n/a	n/a	n/a	8	2	2	4	n/a	n/a	n/a	n/a	n/a
1618.974	n/a	PROB	809487	n/a	LTP117	ltpFR	8	n/a	n/a	n/a	n/a	n/a	n/a	n/a	24	8	8	8	n/a	n/a	n/a	n/a	n/a
1619.942	n/a	PROB	809971	n/a	LTP117	ltpFR	8	n/a	n/a	n/a	n/a	n/a	n/a	n/a	19	3	8	8	n/a	n/a	n/a	n/a	n/a
1622.2	n/a	PROB	811100	n/a	LTP117	ltpFR	8	n/a	n/a	n/a	n/a	n/a	n/a	n/a	10	4	1	5	n/a	n/a	n/a	n/a	n/a
1623.59	n/a	PROB	811795	n/a	LTP117	ltpFR	8	n/a	n/a	n/a	n/a	n/a	n/a	n/a	13	5	5	3	n/a	n/a	n/a	n/a	n/a
1624.658	n/a	PROB	812329	n/a	LTP117	ltpFR	8	n/a	n/a	n/a	n/a	n/a	n/a	n/a	22	6	6	8	n/a	n/a	n/a	n/a	n/a
1626.274	n/a	PROB	813137	n/a	LTP117	ltpFR	8	n/a	n/a	n/a	n/a	n/a	n/a	n/a	17	7	4	6	n/a	n/a	n/a	n/a	n/a
1631.568	n/a	STOP	815784	n/a	LTP117	ltpFR	8	n/a	n/a	n/a	n/a	n/a	n/a	n/a	n/a	n/a	n/a	n/a	n/a	n/a	n/a	n/a	n/a
1633.454	n/a	WORD	816727	wordpools/wasnorm_wordpool.txt	LTP117	ltpFR	8	7	0	CEREAL	272	n/a	n/a	1	n/a	0	0	0	0.57763671875	0.412841796875	1	upper	zerothre.ttf
1636.462	n/a	START	818231	n/a	LTP117	ltpFR	8	n/a	n/a	n/a	n/a	n/a	n/a	n/a	n/a	n/a	n/a	n/a	n/a	n/a	n/a	n/a	n/a
1637.278	n/a	PROB	818639	n/a	LTP117	ltpFR	8	n/a	n/a	n/a	n/a	n/a	n/a	n/a	2	9	9	5	n/a	n/a	n/a	n/a	n/a
1638.628	n/a	PROB	819314	n/a	LTP117	ltpFR	8	n/a	n/a	n/a	n/a	n/a	n/a	n/a	17	1	8	8	n/a	n/a	n/a	n/a	n/a
1640.484	n/a	PROB	820242	n/a	LTP117	ltpFR	8	n/a	n/a	n/a	n/a	n/a	n/a	n/a	15	2	8	6	n/a	n/a	n/a	n/a	n/a
1642.552	n/a	PROB	821276	n/a	LTP117	ltpFR	8	n/a	n/a	n/a	n/a	n/a	n/a	n/a	14	3	3	8	n/a	n/a	n/a	n/a	n/a
1643.884	n/a	PROB	821942	n/a	LTP117	ltpFR	8	n/a	n/a	n/a	n/a	n/a	n/a	n/a	14	1	6	7	n/a	n/a	n/a	n/a	n/a
1645.418	n/a	PROB	822709	n/a	LTP117	ltpFR	8	n/a	n/a	n/a	n/a	n/a	n/a	n/a	13	4	8	1	n/a	n/a	n/a	n/a	n/a
1647.082	n/a	PROB	823541	n/a	LTP117	ltpFR	8	n/a	n/a	n/a	n/a	n/a	n/a	n/a	14	2	9	3	n/a	n/a	n/a	n/a	n/a
1649.532	n/a	PROB	824766	n/a	LTP117	ltpFR	8	n/a	n/a	n/a	n/a	n/a	n/a	n/a	18	9	7	2	n/a	n/a	n/a	n/a	n/a
1651.074	n/a	STOP	825537	n/a	LTP117	ltpFR	8	n/a	n/a	n/a	n/a	n/a	n/a	n/a	n/a	n/a	n/a	n/a	n/a	n/a	n/a	n/a	n/a
1653.432	n/a	WORD	826716	wordpools/wasnorm_wordpool.txt	LTP117	ltpFR	8	7	0	MILK	895	n/a	n/a	0	n/a	0	0	0	0.57763671875	0.412841796875	1	upper	zerothre.ttf
1656.44	n/a	START	828220	n/a	LTP117	ltpFR	8	n/a	n/a	n/a	n/a	n/a	n/a	n/a	n/a	n/a	n/a	n/a	n/a	n/a	n/a	n/a	n/a
1657.572	n/a	PROB	828786	n/a	LTP117	ltpFR	8	n/a	n/a	n/a	n/a	n/a	n/a	n/a	15	6	8	1	n/a	n/a	n/a	n/a	n/a
1659.404	n/a	PROB	829702	n/a	LTP117	ltpFR	8	n/a	n/a	n/a	n/a	n/a	n/a	n/a	17	6	8	3	n/a	n/a	n/a	n/a	n/a
1661.054	n/a	PROB	830527	n/a	LTP117	ltpFR	8	n/a	n/a	n/a	n/a	n/a	n/a	n/a	17	9	1	7	n/a	n/a	n/a	n/a	n/a
1662.52	n/a	PROB	831260	n/a	LTP117	ltpFR	8	n/a	n/a	n/a	n/a	n/a	n/a	n/a	13	8	2	3	n/a	n/a	n/a	n/a	n/a
1663.796	n/a	PROB	831898	n/a	LTP117	ltpFR	8	n/a	n/a	n/a	n/a	n/a	n/a	n/a	13	6	2	5	n/a	n/a	n/a	n/a	n/a
1665.612	n/a	PROB	832806	n/a	LTP117	ltpFR	8	n/a	n/a	n/a	n/a	n/a	n/a	n/a	16	2	5	9	n/a	n/a	n/a	n/a	n/a
1667.252	n/a	PROB	833626	n/a	LTP117	ltpFR	8	n/a	n/a	n/a	n/a	n/a	n/a	n/a	12	9	1	2	n/a	n/a	n/a	n/a	n/a
1668.436	n/a	PROB	834218	n/a	LTP117	ltpFR	8	n/a	n/a	n/a	n/a	n/a	n/a	n/a	12	7	4	1	n/a	n/a	n/a	n/a	n/a
1672.44	n/a	STOP	836220	n/a	LTP117	ltpFR	8	n/a	n/a	n/a	n/a	n/a	n/a	n/a	n/a	n/a	n/a	n/a	n/a	n/a	n/a	n/a	n/a
1673.376	n/a	WORD	836688	wordpools/wasnorm_wordpool.txt	LTP117	ltpFR	8	7	0	CHECKERS	285	n/a	n/a	0	n/a	0	0	0	0.57763671875	0.412841796875	1	upper	zerothre.ttf
1676.384	n/a	START	838192	n/a	LTP117	ltpFR	8	n/a	n/a	n/a	n/a	n/a	n/a	n/a	n/a	n/a	n/a	n/a	n/a	n/a	n/a	n/a	n/a
1677.232	n/a	PROB	838616	n/a	LTP117	ltpFR	8	n/a	n/a	n/a	n/a	n/a	n/a	n/a	24	7	9	7	n/a	n/a	n/a	n/a	n/a
1681.066	n/a	PROB	840533	n/a	LTP117	ltpFR	8	n/a	n/a	n/a	n/a	n/a	n/a	n/a	6	2	2	2	n/a	n/a	n/a	n/a	n/a
1682.106	n/a	PROB	841053	n/a	LTP117	ltpFR	8	n/a	n/a	n/a	n/a	n/a	n/a	n/a	11	2	3	6	n/a	n/a	n/a	n/a	n/a
1683.548	n/a	PROB	841774	n/a	LTP117	ltpFR	8	n/a	n/a	n/a	n/a	n/a	n/a	n/a	19	6	9	4	n/a	n/a	n/a	n/a	n/a
1685.122	n/a	PROB	842561	n/a	LTP117	ltpFR	8	n/a	n/a	n/a	n/a	n/a	n/a	n/a	21	5	8	8	n/a	n/a	n/a	n/a	n/a
1687.038	n/a	PROB	843519	n/a	LTP117	ltpFR	8	n/a	n/a	n/a	n/a	n/a	n/a	n/a	17	7	1	9	n/a	n/a	n/a	n/a	n/a
1688.32	n/a	PROB	844160	n/a	LTP117	ltpFR	8	n/a	n/a	n/a	n/a	n/a	n/a	n/a	10	5	4	1	n/a	n/a	n/a	n/a	n/a
1689.27	n/a	PROB	844635	n/a	LTP117	ltpFR	8	n/a	n/a	n/a	n/a	n/a	n/a	n/a	22	8	9	5	n/a	n/a	n/a	n/a	n/a
1691.46	n/a	STOP	845730	n/a	LTP117	ltpFR	8	n/a	n/a	n/a	n/a	n/a	n/a	n/a	n/a	n/a	n/a	n/a	n/a	n/a	n/a	n/a	n/a
1693.21	n/a	WORD	846605	wordpools/wasnorm_wordpool.txt	LTP117	ltpFR	8	7	0	BRICK	172	n/a	n/a	0	n/a	0	0	0	0.57763671875	0.412841796875	1	upper	zerothre.ttf
1696.218	n/a	START	848109	n/a	LTP117	ltpFR	8	n/a	n/a	n/a	n/a	n/a	n/a	n/a	n/a	n/a	n/a	n/a	n/a	n/a	n/a	n/a	n/a
1697.168	n/a	PROB	848584	n/a	LTP117	ltpFR	8	n/a	n/a	n/a	n/a	n/a	n/a	n/a	13	3	1	9	n/a	n/a	n/a	n/a	n/a
1698.226	n/a	PROB	849113	n/a	LTP117	ltpFR	8	n/a	n/a	n/a	n/a	n/a	n/a	n/a	24	6	8	8	n/a	n/a	n/a	n/a	n/a
1700.1	n/a	PROB	850050	n/a	LTP117	ltpFR	8	n/a	n/a	n/a	n/a	n/a	n/a	n/a	6	1	3	2	n/a	n/a	n/a	n/a	n/a
1701.168	n/a	PROB	850584	n/a	LTP117	ltpFR	8	n/a	n/a	n/a	n/a	n/a	n/a	n/a	9	3	3	3	n/a	n/a	n/a	n/a	n/a
1702.226	n/a	PROB	851113	n/a	LTP117	ltpFR	8	n/a	n/a	n/a	n/a	n/a	n/a	n/a	19	8	9	2	n/a	n/a	n/a	n/a	n/a
1703.742	n/a	PROB	851871	n/a	LTP117	ltpFR	8	n/a	n/a	n/a	n/a	n/a	n/a	n/a	14	7	2	5	n/a	n/a	n/a	n/a	n/a
1706.29	n/a	PROB	853145	n/a	LTP117	ltpFR	8	n/a	n/a	n/a	n/a	n/a	n/a	n/a	13	9	1	3	n/a	n/a	n/a	n/a	n/a
1707.474	n/a	PROB	853737	n/a	LTP117	ltpFR	8	n/a	n/a	n/a	n/a	n/a	n/a	n/a	12	1	8	3	n/a	n/a	n/a	n/a	n/a
1709.088	n/a	PROB	854544	n/a	LTP117	ltpFR	8	n/a	n/a	n/a	n/a	n/a	n/a	n/a	11	1	5	5	n/a	n/a	n/a	n/a	n/a
1710.056	n/a	PROB	855028	n/a	LTP117	ltpFR	8	n/a	n/a	n/a	n/a	n/a	n/a	n/a	17	6	4	7	n/a	n/a	n/a	n/a	n/a
1711.146	n/a	STOP	855573	n/a	LTP117	ltpFR	8	n/a	n/a	n/a	n/a	n/a	n/a	n/a	n/a	n/a	n/a	n/a	n/a	n/a	n/a	n/a	n/a
1713.246	n/a	WORD	856623	wordpools/wasnorm_wordpool.txt	LTP117	ltpFR	8	7	0	SHOWER	1296	n/a	n/a	0	n/a	0	0	0	0.57763671875	0.412841796875	1	upper	zerothre.ttf
1716.254	n/a	START	858127	n/a	LTP117	ltpFR	8	n/a	n/a	n/a	n/a	n/a	n/a	n/a	n/a	n/a	n/a	n/a	n/a	n/a	n/a	n/a	n/a
1717.104	n/a	PROB	858552	n/a	LTP117	ltpFR	8	n/a	n/a	n/a	n/a	n/a	n/a	n/a	21	9	9	3	n/a	n/a	n/a	n/a	n/a
1718.688	n/a	PROB	859344	n/a	LTP117	ltpFR	8	n/a	n/a	n/a	n/a	n/a	n/a	n/a	15	4	4	7	n/a	n/a	n/a	n/a	n/a
1720.102	n/a	PROB	860051	n/a	LTP117	ltpFR	8	n/a	n/a	n/a	n/a	n/a	n/a	n/a	20	8	4	8	n/a	n/a	n/a	n/a	n/a
1722.294	n/a	PROB	861147	n/a	LTP117	ltpFR	8	n/a	n/a	n/a	n/a	n/a	n/a	n/a	16	2	7	7	n/a	n/a	n/a	n/a	n/a
1723.71	n/a	PROB	861855	n/a	LTP117	ltpFR	8	n/a	n/a	n/a	n/a	n/a	n/a	n/a	11	3	1	7	n/a	n/a	n/a	n/a	n/a
1724.786	n/a	PROB	862393	n/a	LTP117	ltpFR	8	n/a	n/a	n/a	n/a	n/a	n/a	n/a	9	2	4	3	n/a	n/a	n/a	n/a	n/a
1726.502	n/a	PROB	863251	n/a	LTP117	ltpFR	8	n/a	n/a	n/a	n/a	n/a	n/a	n/a	15	3	4	9	n/a	n/a	n/a	n/a	n/a
1728.284	n/a	PROB	864142	n/a	LTP117	ltpFR	8	n/a	n/a	n/a	n/a	n/a	n/a	n/a	10	1	7	2	n/a	n/a	n/a	n/a	n/a
1729.666	n/a	PROB	864833	n/a	LTP117	ltpFR	8	n/a	n/a	n/a	n/a	n/a	n/a	n/a	12	4	6	2	n/a	n/a	n/a	n/a	n/a
1730.934	n/a	STOP	865467	n/a	LTP117	ltpFR	8	n/a	n/a	n/a	n/a	n/a	n/a	n/a	n/a	n/a	n/a	n/a	n/a	n/a	n/a	n/a	n/a
1733.39	n/a	WORD	866695	wordpools/wasnorm_wordpool.txt	LTP117	ltpFR	8	7	0	SPIT	1354	n/a	n/a	0	n/a	0	0	0	0.57763671875	0.412841796875	1	upper	zerothre.ttf
1736.4	n/a	START	868200	n/a	LTP117	ltpFR	8	n/a	n/a	n/a	n/a	n/a	n/a	n/a	n/a	n/a	n/a	n/a	n/a	n/a	n/a	n/a	n/a
1737.24	n/a	PROB	868620	n/a	LTP117	ltpFR	8	n/a	n/a	n/a	n/a	n/a	n/a	n/a	11	6	3	2	n/a	n/a	n/a	n/a	n/a
1738.432	n/a	PROB	869216	n/a	LTP117	ltpFR	8	n/a	n/a	n/a	n/a	n/a	n/a	n/a	5	1	1	3	n/a	n/a	n/a	n/a	n/a
1739.672	n/a	PROB	869836	n/a	LTP117	ltpFR	8	n/a	n/a	n/a	n/a	n/a	n/a	n/a	12	8	3	1	n/a	n/a	n/a	n/a	n/a
1740.888	n/a	PROB	870444	n/a	LTP117	ltpFR	8	n/a	n/a	n/a	n/a	n/a	n/a	n/a	18	8	4	6	n/a	n/a	n/a	n/a	n/a
1742.58	n/a	PROB	871290	n/a	LTP117	ltpFR	8	n/a	n/a	n/a	n/a	n/a	n/a	n/a	11	3	4	4	n/a	n/a	n/a	n/a	n/a
1744.254	n/a	PROB	872127	n/a	LTP117	ltpFR	8	n/a	n/a	n/a	n/a	n/a	n/a	n/a	10	2	7	1	n/a	n/a	n/a	n/a	n/a
1745.312	n/a	PROB	872656	n/a	LTP117	ltpFR	8	n/a	n/a	n/a	n/a	n/a	n/a	n/a	5	1	1	3	n/a	n/a	n/a	n/a	n/a
1746.462	n/a	PROB	873231	n/a	LTP117	ltpFR	8	n/a	n/a	n/a	n/a	n/a	n/a	n/a	23	9	8	6	n/a	n/a	n/a	n/a	n/a
1749.31	n/a	PROB	874655	n/a	LTP117	ltpFR	8	n/a	n/a	n/a	n/a	n/a	n/a	n/a	15	6	6	3	n/a	n/a	n/a	n/a	n/a
1750.61	n/a	PROB	875305	n/a	LTP117	ltpFR	8	n/a	n/a	n/a	n/a	n/a	n/a	n/a	15	5	1	9	n/a	n/a	n/a	n/a	n/a
1751.622	n/a	STOP	875811	n/a	LTP117	ltpFR	8	n/a	n/a	n/a	n/a	n/a	n/a	n/a	n/a	n/a	n/a	n/a	n/a	n/a	n/a	n/a	n/a
1753.226	n/a	WORD	876613	wordpools/wasnorm_wordpool.txt	LTP117	ltpFR	8	7	0	PORK	1108	n/a	n/a	0	n/a	0	0	0	0.57763671875	0.412841796875	1	upper	zerothre.ttf
1756.234	n/a	START	878117	n/a	LTP117	ltpFR	8	n/a	n/a	n/a	n/a	n/a	n/a	n/a	n/a	n/a	n/a	n/a	n/a	n/a	n/a	n/a	n/a
1757.276	n/a	PROB	878638	n/a	LTP117	ltpFR	8	n/a	n/a	n/a	n/a	n/a	n/a	n/a	13	1	3	9	n/a	n/a	n/a	n/a	n/a
1758.416	n/a	PROB	879208	n/a	LTP117	ltpFR	8	n/a	n/a	n/a	n/a	n/a	n/a	n/a	13	9	2	2	n/a	n/a	n/a	n/a	n/a
1760.132	n/a	PROB	880066	n/a	LTP117	ltpFR	8	n/a	n/a	n/a	n/a	n/a	n/a	n/a	6	1	2	3	n/a	n/a	n/a	n/a	n/a
1762.048	n/a	PROB	881024	n/a	LTP117	ltpFR	8	n/a	n/a	n/a	n/a	n/a	n/a	n/a	15	6	2	9	n/a	n/a	n/a	n/a	n/a
1764.24	n/a	PROB	882120	n/a	LTP117	ltpFR	8	n/a	n/a	n/a	n/a	n/a	n/a	n/a	12	3	1	8	n/a	n/a	n/a	n/a	n/a
1765.68	n/a	PROB	882840	n/a	LTP117	ltpFR	8	n/a	n/a	n/a	n/a	n/a	n/a	n/a	16	7	5	4	n/a	n/a	n/a	n/a	n/a
1767.388	n/a	PROB	883694	n/a	LTP117	ltpFR	8	n/a	n/a	n/a	n/a	n/a	n/a	n/a	10	4	5	1	n/a	n/a	n/a	n/a	n/a
1768.354	n/a	PROB	884177	n/a	LTP117	ltpFR	8	n/a	n/a	n/a	n/a	n/a	n/a	n/a	5	1	1	3	n/a	n/a	n/a	n/a	n/a
1769.38	n/a	PROB	884690	n/a	LTP117	ltpFR	8	n/a	n/a	n/a	n/a	n/a	n/a	n/a	17	6	6	5	n/a	n/a	n/a	n/a	n/a
1770.596	n/a	PROB	885298	n/a	LTP117	ltpFR	8	n/a	n/a	n/a	n/a	n/a	n/a	n/a	11	1	9	1	n/a	n/a	n/a	n/a	n/a
1771.88	n/a	STOP	885940	n/a	LTP117	ltpFR	8	n/a	n/a	n/a	n/a	n/a	n/a	n/a	n/a	n/a	n/a	n/a	n/a	n/a	n/a	n/a	n/a
1773.436	n/a	WORD	886718	wordpools/wasnorm_wordpool.txt	LTP117	ltpFR	8	7	0	CITIZEN	312	n/a	n/a	0	n/a	0	0	0	0.57763671875	0.412841796875	1	upper	zerothre.ttf
1776.446	n/a	START	888223	n/a	LTP117	ltpFR	8	n/a	n/a	n/a	n/a	n/a	n/a	n/a	n/a	n/a	n/a	n/a	n/a	n/a	n/a	n/a	n/a
1777.27	n/a	PROB	888635	n/a	LTP117	ltpFR	8	n/a	n/a	n/a	n/a	n/a	n/a	n/a	12	2	7	3	n/a	n/a	n/a	n/a	n/a
1778.802	n/a	PROB	889401	n/a	LTP117	ltpFR	8	n/a	n/a	n/a	n/a	n/a	n/a	n/a	18	8	3	7	n/a	n/a	n/a	n/a	n/a
1780.194	n/a	PROB	890097	n/a	LTP117	ltpFR	8	n/a	n/a	n/a	n/a	n/a	n/a	n/a	10	2	5	3	n/a	n/a	n/a	n/a	n/a
1781.376	n/a	PROB	890688	n/a	LTP117	ltpFR	8	n/a	n/a	n/a	n/a	n/a	n/a	n/a	16	1	7	8	n/a	n/a	n/a	n/a	n/a
1783.21	n/a	PROB	891605	n/a	LTP117	ltpFR	8	n/a	n/a	n/a	n/a	n/a	n/a	n/a	12	1	5	6	n/a	n/a	n/a	n/a	n/a
1784.342	n/a	PROB	892171	n/a	LTP117	ltpFR	8	n/a	n/a	n/a	n/a	n/a	n/a	n/a	18	3	9	6	n/a	n/a	n/a	n/a	n/a
1786.482	n/a	PROB	893241	n/a	LTP117	ltpFR	8	n/a	n/a	n/a	n/a	n/a	n/a	n/a	22	7	8	7	n/a	n/a	n/a	n/a	n/a
1788.916	n/a	PROB	894458	n/a	LTP117	ltpFR	8	n/a	n/a	n/a	n/a	n/a	n/a	n/a	18	8	5	2	n/a	n/a	n/a	n/a	n/a
1790.49	n/a	PROB	895245	n/a	LTP117	ltpFR	8	n/a	n/a	n/a	n/a	n/a	n/a	n/a	15	3	7	5	n/a	n/a	n/a	n/a	n/a
1791.608	n/a	STOP	895804	n/a	LTP117	ltpFR	8	n/a	n/a	n/a	n/a	n/a	n/a	n/a	n/a	n/a	n/a	n/a	n/a	n/a	n/a	n/a	n/a
1793.572	n/a	WORD	896786	wordpools/wasnorm_wordpool.txt	LTP117	ltpFR	8	7	0	SNACK	1331	n/a	n/a	0	n/a	0	0	0	0.57763671875	0.412841796875	1	upper	zerothre.ttf
1796.58	n/a	START	898290	n/a	LTP117	ltpFR	8	n/a	n/a	n/a	n/a	n/a	n/a	n/a	n/a	n/a	n/a	n/a	n/a	n/a	n/a	n/a	n/a
1797.738	n/a	PROB	898869	n/a	LTP117	ltpFR	8	n/a	n/a	n/a	n/a	n/a	n/a	n/a	10	3	2	5	n/a	n/a	n/a	n/a	n/a
1798.712	n/a	PROB	899356	n/a	LTP117	ltpFR	8	n/a	n/a	n/a	n/a	n/a	n/a	n/a	8	5	1	2	n/a	n/a	n/a	n/a	n/a
1799.788	n/a	PROB	899894	n/a	LTP117	ltpFR	8	n/a	n/a	n/a	n/a	n/a	n/a	n/a	17	8	7	2	n/a	n/a	n/a	n/a	n/a
1801.304	n/a	PROB	900652	n/a	LTP117	ltpFR	8	n/a	n/a	n/a	n/a	n/a	n/a	n/a	10	1	1	8	n/a	n/a	n/a	n/a	n/a
1802.254	n/a	PROB	901127	n/a	LTP117	ltpFR	8	n/a	n/a	n/a	n/a	n/a	n/a	n/a	12	7	2	3	n/a	n/a	n/a	n/a	n/a
1803.478	n/a	PROB	901739	n/a	LTP117	ltpFR	8	n/a	n/a	n/a	n/a	n/a	n/a	n/a	15	3	5	8	n/a	n/a	n/a	n/a	n/a
1805.078	n/a	PROB	902539	n/a	LTP117	ltpFR	8	n/a	n/a	n/a	n/a	n/a	n/a	n/a	19	8	6	5	n/a	n/a	n/a	n/a	n/a
1807.31	n/a	PROB	903655	n/a	LTP117	ltpFR	8	n/a	n/a	n/a	n/a	n/a	n/a	n/a	15	7	8	5	n/a	n/a	n/a	n/a	n/a
1809.592	n/a	PROB	904796	n/a	LTP117	ltpFR	8	n/a	n/a	n/a	n/a	n/a	n/a	n/a	15	9	5	1	n/a	n/a	n/a	n/a	n/a
1810.892	n/a	PROB	905446	n/a	LTP117	ltpFR	8	n/a	n/a	n/a	n/a	n/a	n/a	n/a	5	2	2	1	n/a	n/a	n/a	n/a	n/a
1811.738	n/a	STOP	905869	n/a	LTP117	ltpFR	8	n/a	n/a	n/a	n/a	n/a	n/a	n/a	n/a	n/a	n/a	n/a	n/a	n/a	n/a	n/a	n/a
1813.642	n/a	WORD	906821	wordpools/wasnorm_wordpool.txt	LTP117	ltpFR	8	7	0	SUPPER	1411	n/a	n/a	0	n/a	0	0	0	0.57763671875	0.412841796875	1	upper	zerothre.ttf
1816.65	n/a	START	908325	n/a	LTP117	ltpFR	8	n/a	n/a	n/a	n/a	n/a	n/a	n/a	n/a	n/a	n/a	n/a	n/a	n/a	n/a	n/a	n/a
1817.74	n/a	PROB	908870	n/a	LTP117	ltpFR	8	n/a	n/a	n/a	n/a	n/a	n/a	n/a	9	2	5	2	n/a	n/a	n/a	n/a	n/a
1818.698	n/a	PROB	909349	n/a	LTP117	ltpFR	8	n/a	n/a	n/a	n/a	n/a	n/a	n/a	8	4	2	4	n/a	n/a	n/a	n/a	n/a
1819.64	n/a	PROB	909820	n/a	LTP117	ltpFR	8	n/a	n/a	n/a	n/a	n/a	n/a	n/a	23	8	7	8	n/a	n/a	n/a	n/a	n/a
1822.93	n/a	PROB	911465	n/a	LTP117	ltpFR	8	n/a	n/a	n/a	n/a	n/a	n/a	n/a	11	1	1	9	n/a	n/a	n/a	n/a	n/a
1823.846	n/a	PROB	911923	n/a	LTP117	ltpFR	8	n/a	n/a	n/a	n/a	n/a	n/a	n/a	18	5	7	6	n/a	n/a	n/a	n/a	n/a
1825.588	n/a	PROB	912794	n/a	LTP117	ltpFR	8	n/a	n/a	n/a	n/a	n/a	n/a	n/a	9	2	4	3	n/a	n/a	n/a	n/a	n/a
1826.946	n/a	PROB	913473	n/a	LTP117	ltpFR	8	n/a	n/a	n/a	n/a	n/a	n/a	n/a	10	1	7	2	n/a	n/a	n/a	n/a	n/a
1827.986	n/a	PROB	913993	n/a	LTP117	ltpFR	8	n/a	n/a	n/a	n/a	n/a	n/a	n/a	18	6	5	7	n/a	n/a	n/a	n/a	n/a
1829.394	n/a	PROB	914697	n/a	LTP117	ltpFR	8	n/a	n/a	n/a	n/a	n/a	n/a	n/a	17	6	3	8	n/a	n/a	n/a	n/a	n/a
1831.154	n/a	STOP	915577	n/a	LTP117	ltpFR	8	n/a	n/a	n/a	n/a	n/a	n/a	n/a	n/a	n/a	n/a	n/a	n/a	n/a	n/a	n/a	n/a
1834.444	n/a	REC_START	917222	n/a	LTP117	ltpFR	8	7	n/a	n/a	n/a	n/a	n/a	n/a	n/a	0	0	0	n/a	n/a	n/a	n/a	n/a
1834.888	n/a	REC_WORD	917444	wordpools/wasnorm_wordpool.txt	LTP117	ltpFR	8	7	0	CITIZEN	312	n/a	n/a	0	n/a	0	0	0	n/a	n/a	n/a	n/a	n/a
1835.556	n/a	REC_WORD	917778	wordpools/wasnorm_wordpool.txt	LTP117	ltpFR	8	7	0	SPIT	1354	n/a	n/a	0	n/a	0	0	0	n/a	n/a	n/a	n/a	n/a
1836.36	n/a	REC_WORD	918180	wordpools/wasnorm_wordpool.txt	LTP117	ltpFR	8	7	0	BRICK	172	n/a	n/a	0	n/a	0	0	0	n/a	n/a	n/a	n/a	n/a
1836.868	n/a	REC_WORD	918434	wordpools/wasnorm_wordpool.txt	LTP117	ltpFR	8	7	0	PORK	1108	n/a	n/a	0	n/a	0	0	0	n/a	n/a	n/a	n/a	n/a
1837.344	n/a	REC_WORD	918672	wordpools/wasnorm_wordpool.txt	LTP117	ltpFR	8	7	0	SUPPER	1411	n/a	n/a	0	n/a	0	0	0	n/a	n/a	n/a	n/a	n/a
1838.216	n/a	REC_WORD	919108	wordpools/wasnorm_wordpool.txt	LTP117	ltpFR	8	7	0	LIMOUSINE	824	n/a	n/a	0	n/a	0	0	0	n/a	n/a	n/a	n/a	n/a
1839.158	n/a	REC_WORD	919579	wordpools/wasnorm_wordpool.txt	LTP117	ltpFR	8	7	0	CARAVAN	242	n/a	n/a	1	n/a	0	0	0	n/a	n/a	n/a	n/a	n/a
1839.926	n/a	REC_WORD	919963	wordpools/wasnorm_wordpool.txt	LTP117	ltpFR	8	7	n/a	POSTER	-1	n/a	n/a	n/a	n/a	0	0	0	n/a	n/a	n/a	n/a	n/a
1841.02	n/a	REC_WORD	920510	wordpools/wasnorm_wordpool.txt	LTP117	ltpFR	8	7	0	SNACK	1331	n/a	n/a	0	n/a	0	0	0	n/a	n/a	n/a	n/a	n/a
1911.712	n/a	START	955856	n/a	LTP117	ltpFR	8	n/a	n/a	n/a	n/a	n/a	n/a	n/a	n/a	n/a	n/a	n/a	n/a	n/a	n/a	n/a	n/a
1913.22	n/a	PROB	956610	n/a	LTP117	ltpFR	8	n/a	n/a	n/a	n/a	n/a	n/a	n/a	18	1	8	9	n/a	n/a	n/a	n/a	n/a
1914.462	n/a	PROB	957231	n/a	LTP117	ltpFR	8	n/a	n/a	n/a	n/a	n/a	n/a	n/a	9	2	5	2	n/a	n/a	n/a	n/a	n/a
1915.386	n/a	PROB	957693	n/a	LTP117	ltpFR	8	n/a	n/a	n/a	n/a	n/a	n/a	n/a	12	2	6	4	n/a	n/a	n/a	n/a	n/a
1916.502	n/a	PROB	958251	n/a	LTP117	ltpFR	8	n/a	n/a	n/a	n/a	n/a	n/a	n/a	9	5	1	3	n/a	n/a	n/a	n/a	n/a
1917.526	n/a	PROB	958763	n/a	LTP117	ltpFR	8	n/a	n/a	n/a	n/a	n/a	n/a	n/a	10	2	2	6	n/a	n/a	n/a	n/a	n/a
1918.464	n/a	STOP	959232	n/a	LTP117	ltpFR	8	n/a	n/a	n/a	n/a	n/a	n/a	n/a	n/a	n/a	n/a	n/a	n/a	n/a	n/a	n/a	n/a
1920.56	n/a	WORD	960280	wordpools/wasnorm_wordpool.txt	LTP117	ltpFR	8	8	0	SURF	1412	n/a	n/a	1	n/a	0	0	0	0.57763671875	0.412841796875	1	upper	zerothre.ttf
1923.566	n/a	START	961783	n/a	LTP117	ltpFR	8	n/a	n/a	n/a	n/a	n/a	n/a	n/a	n/a	n/a	n/a	n/a	n/a	n/a	n/a	n/a	n/a
1924.616	n/a	PROB	962308	n/a	LTP117	ltpFR	8	n/a	n/a	n/a	n/a	n/a	n/a	n/a	24	9	9	6	n/a	n/a	n/a	n/a	n/a
1926.998	n/a	PROB	963499	n/a	LTP117	ltpFR	8	n/a	n/a	n/a	n/a	n/a	n/a	n/a	10	4	2	4	n/a	n/a	n/a	n/a	n/a
1928.174	n/a	PROB	964087	n/a	LTP117	ltpFR	8	n/a	n/a	n/a	n/a	n/a	n/a	n/a	13	3	2	8	n/a	n/a	n/a	n/a	n/a
1929.482	n/a	PROB	964741	n/a	LTP117	ltpFR	8	n/a	n/a	n/a	n/a	n/a	n/a	n/a	17	1	8	8	n/a	n/a	n/a	n/a	n/a
1930.848	n/a	STOP	965424	n/a	LTP117	ltpFR	8	n/a	n/a	n/a	n/a	n/a	n/a	n/a	n/a	n/a	n/a	n/a	n/a	n/a	n/a	n/a	n/a
1932.58	n/a	WORD	966290	wordpools/wasnorm_wordpool.txt	LTP117	ltpFR	8	8	0	GALLON	618	n/a	n/a	0	n/a	0	0	0	0.57763671875	0.412841796875	1	upper	zerothre.ttf
1935.588	n/a	START	967794	n/a	LTP117	ltpFR	8	n/a	n/a	n/a	n/a	n/a	n/a	n/a	n/a	n/a	n/a	n/a	n/a	n/a	n/a	n/a	n/a
1936.438	n/a	PROB	968219	n/a	LTP117	ltpFR	8	n/a	n/a	n/a	n/a	n/a	n/a	n/a	18	7	7	4	n/a	n/a	n/a	n/a	n/a
1937.52	n/a	PROB	968760	n/a	LTP117	ltpFR	8	n/a	n/a	n/a	n/a	n/a	n/a	n/a	10	1	1	8	n/a	n/a	n/a	n/a	n/a
1938.428	n/a	PROB	969214	n/a	LTP117	ltpFR	8	n/a	n/a	n/a	n/a	n/a	n/a	n/a	14	8	2	4	n/a	n/a	n/a	n/a	n/a
1939.42	n/a	PROB	969710	n/a	LTP117	ltpFR	8	n/a	n/a	n/a	n/a	n/a	n/a	n/a	10	1	8	1	n/a	n/a	n/a	n/a	n/a
1940.304	n/a	PROB	970152	n/a	LTP117	ltpFR	8	n/a	n/a	n/a	n/a	n/a	n/a	n/a	11	4	6	1	n/a	n/a	n/a	n/a	n/a
1941.328	n/a	PROB	970664	n/a	LTP117	ltpFR	8	n/a	n/a	n/a	n/a	n/a	n/a	n/a	11	6	2	3	n/a	n/a	n/a	n/a	n/a
1943.32	n/a	STOP	971660	n/a	LTP117	ltpFR	8	n/a	n/a	n/a	n/a	n/a	n/a	n/a	n/a	n/a	n/a	n/a	n/a	n/a	n/a	n/a	n/a
1944.468	n/a	WORD	972234	wordpools/wasnorm_wordpool.txt	LTP117	ltpFR	8	8	1	DIVER	476	n/a	n/a	0	n/a	0	0	0	0.422607421875	0.5869140625	0	lower	amplitud.ttf
1947.478	n/a	START	973739	n/a	LTP117	ltpFR	8	n/a	n/a	n/a	n/a	n/a	n/a	n/a	n/a	n/a	n/a	n/a	n/a	n/a	n/a	n/a	n/a
1948.318	n/a	PROB	974159	n/a	LTP117	ltpFR	8	n/a	n/a	n/a	n/a	n/a	n/a	n/a	15	2	5	8	n/a	n/a	n/a	n/a	n/a
1949.66	n/a	PROB	974830	n/a	LTP117	ltpFR	8	n/a	n/a	n/a	n/a	n/a	n/a	n/a	21	9	3	9	n/a	n/a	n/a	n/a	n/a
1951.066	n/a	PROB	975533	n/a	LTP117	ltpFR	8	n/a	n/a	n/a	n/a	n/a	n/a	n/a	18	9	6	3	n/a	n/a	n/a	n/a	n/a
1952.534	n/a	PROB	976267	n/a	LTP117	ltpFR	8	n/a	n/a	n/a	n/a	n/a	n/a	n/a	10	6	1	3	n/a	n/a	n/a	n/a	n/a
1953.574	n/a	PROB	976787	n/a	LTP117	ltpFR	8	n/a	n/a	n/a	n/a	n/a	n/a	n/a	18	6	8	4	n/a	n/a	n/a	n/a	n/a
1954.722	n/a	STOP	977361	n/a	LTP117	ltpFR	8	n/a	n/a	n/a	n/a	n/a	n/a	n/a	n/a	n/a	n/a	n/a	n/a	n/a	n/a	n/a	n/a
1956.29	n/a	WORD	978145	wordpools/wasnorm_wordpool.txt	LTP117	ltpFR	8	8	1	TANGERINE	1431	n/a	n/a	0	n/a	0	0	0	0.422607421875	0.5869140625	0	lower	amplitud.ttf
1959.298	n/a	START	979649	n/a	LTP117	ltpFR	8	n/a	n/a	n/a	n/a	n/a	n/a	n/a	n/a	n/a	n/a	n/a	n/a	n/a	n/a	n/a	n/a
1960.288	n/a	PROB	980144	n/a	LTP117	ltpFR	8	n/a	n/a	n/a	n/a	n/a	n/a	n/a	17	6	2	9	n/a	n/a	n/a	n/a	n/a
1962.196	n/a	PROB	981098	n/a	LTP117	ltpFR	8	n/a	n/a	n/a	n/a	n/a	n/a	n/a	12	1	7	4	n/a	n/a	n/a	n/a	n/a
1963.338	n/a	PROB	981669	n/a	LTP117	ltpFR	8	n/a	n/a	n/a	n/a	n/a	n/a	n/a	17	8	8	1	n/a	n/a	n/a	n/a	n/a
1967.298	n/a	STOP	983649	n/a	LTP117	ltpFR	8	n/a	n/a	n/a	n/a	n/a	n/a	n/a	n/a	n/a	n/a	n/a	n/a	n/a	n/a	n/a	n/a
1968.246	n/a	WORD	984123	wordpools/wasnorm_wordpool.txt	LTP117	ltpFR	8	8	1	DETECTIVE	454	n/a	n/a	0	n/a	0	0	0	0.422607421875	0.5869140625	0	lower	amplitud.ttf
1971.252	n/a	START	985626	n/a	LTP117	ltpFR	8	n/a	n/a	n/a	n/a	n/a	n/a	n/a	n/a	n/a	n/a	n/a	n/a	n/a	n/a	n/a	n/a
1972.452	n/a	PROB	986226	n/a	LTP117	ltpFR	8	n/a	n/a	n/a	n/a	n/a	n/a	n/a	14	4	6	4	n/a	n/a	n/a	n/a	n/a
1973.468	n/a	PROB	986734	n/a	LTP117	ltpFR	8	n/a	n/a	n/a	n/a	n/a	n/a	n/a	6	4	1	1	n/a	n/a	n/a	n/a	n/a
1974.326	n/a	PROB	987163	n/a	LTP117	ltpFR	8	n/a	n/a	n/a	n/a	n/a	n/a	n/a	12	1	7	4	n/a	n/a	n/a	n/a	n/a
1975.476	n/a	PROB	987738	n/a	LTP117	ltpFR	8	n/a	n/a	n/a	n/a	n/a	n/a	n/a	18	6	6	8	n/a	n/a	n/a	n/a	n/a
1977.366	n/a	PROB	988683	n/a	LTP117	ltpFR	8	n/a	n/a	n/a	n/a	n/a	n/a	n/a	12	4	4	8	n/a	n/a	n/a	n/a	n/a
1979.098	n/a	STOP	989549	n/a	LTP117	ltpFR	8	n/a	n/a	n/a	n/a	n/a	n/a	n/a	n/a	n/a	n/a	n/a	n/a	n/a	n/a	n/a	n/a
1980.2	n/a	WORD	990100	wordpools/wasnorm_wordpool.txt	LTP117	ltpFR	8	8	0	SWEATER	1419	n/a	n/a	2	n/a	0	0	0	0.57763671875	0.412841796875	1	upper	zerothre.ttf
1980.74	n/a	KEY_MSG	990370	n/a	LTP117	ltpFR	8	8	n/a	n/a	n/a	n/a	n/a	n/a	n/a	0	0	0	n/a	n/a	n/a	n/a	n/a
1983.208	n/a	START	991604	n/a	LTP117	ltpFR	8	n/a	n/a	n/a	n/a	n/a	n/a	n/a	n/a	n/a	n/a	n/a	n/a	n/a	n/a	n/a	n/a
1984.138	n/a	PROB	992069	n/a	LTP117	ltpFR	8	n/a	n/a	n/a	n/a	n/a	n/a	n/a	12	3	2	7	n/a	n/a	n/a	n/a	n/a
1985.49	n/a	PROB	992745	n/a	LTP117	ltpFR	8	n/a	n/a	n/a	n/a	n/a	n/a	n/a	24	8	7	8	n/a	n/a	n/a	n/a	n/a
1987.606	n/a	PROB	993803	n/a	LTP117	ltpFR	8	n/a	n/a	n/a	n/a	n/a	n/a	n/a	18	2	8	8	n/a	n/a	n/a	n/a	n/a
1989.306	n/a	PROB	994653	n/a	LTP117	ltpFR	8	n/a	n/a	n/a	n/a	n/a	n/a	n/a	12	1	8	3	n/a	n/a	n/a	n/a	n/a
1990.5	n/a	STOP	995250	n/a	LTP117	ltpFR	8	n/a	n/a	n/a	n/a	n/a	n/a	n/a	n/a	n/a	n/a	n/a	n/a	n/a	n/a	n/a	n/a
1992.254	n/a	WORD	996127	wordpools/wasnorm_wordpool.txt	LTP117	ltpFR	8	8	0	FOX	598	n/a	n/a	1	n/a	0	0	0	0.57763671875	0.412841796875	1	upper	zerothre.ttf
1995.262	n/a	START	997631	n/a	LTP117	ltpFR	8	n/a	n/a	n/a	n/a	n/a	n/a	n/a	n/a	n/a	n/a	n/a	n/a	n/a	n/a	n/a	n/a
1996.078	n/a	PROB	998039	n/a	LTP117	ltpFR	8	n/a	n/a	n/a	n/a	n/a	n/a	n/a	9	5	2	2	n/a	n/a	n/a	n/a	n/a
1997.144	n/a	PROB	998572	n/a	LTP117	ltpFR	8	n/a	n/a	n/a	n/a	n/a	n/a	n/a	20	8	5	7	n/a	n/a	n/a	n/a	n/a
1998.686	n/a	PROB	999343	n/a	LTP117	ltpFR	8	n/a	n/a	n/a	n/a	n/a	n/a	n/a	12	7	4	1	n/a	n/a	n/a	n/a	n/a
1999.71	n/a	PROB	999855	n/a	LTP117	ltpFR	8	n/a	n/a	n/a	n/a	n/a	n/a	n/a	10	1	1	8	n/a	n/a	n/a	n/a	n/a
2000.676	n/a	PROB	1000338	n/a	LTP117	ltpFR	8	n/a	n/a	n/a	n/a	n/a	n/a	n/a	11	9	1	1	n/a	n/a	n/a	n/a	n/a
2003.262	n/a	STOP	1001631	n/a	LTP117	ltpFR	8	n/a	n/a	n/a	n/a	n/a	n/a	n/a	n/a	n/a	n/a	n/a	n/a	n/a	n/a	n/a	n/a
2004.468	n/a	WORD	1002234	wordpools/wasnorm_wordpool.txt	LTP117	ltpFR	8	8	0	CREATURE	403	n/a	n/a	1	n/a	0	0	0	0.57763671875	0.412841796875	1	upper	zerothre.ttf
2007.476	n/a	START	1003738	n/a	LTP117	ltpFR	8	n/a	n/a	n/a	n/a	n/a	n/a	n/a	n/a	n/a	n/a	n/a	n/a	n/a	n/a	n/a	n/a
2008.308	n/a	PROB	1004154	n/a	LTP117	ltpFR	8	n/a	n/a	n/a	n/a	n/a	n/a	n/a	16	6	3	7	n/a	n/a	n/a	n/a	n/a
2009.516	n/a	PROB	1004758	n/a	LTP117	ltpFR	8	n/a	n/a	n/a	n/a	n/a	n/a	n/a	18	4	9	5	n/a	n/a	n/a	n/a	n/a
2011.216	n/a	PROB	1005608	n/a	LTP117	ltpFR	8	n/a	n/a	n/a	n/a	n/a	n/a	n/a	16	5	5	6	n/a	n/a	n/a	n/a	n/a
2012.29	n/a	PROB	1006145	n/a	LTP117	ltpFR	8	n/a	n/a	n/a	n/a	n/a	n/a	n/a	15	5	3	7	n/a	n/a	n/a	n/a	n/a
2013.406	n/a	PROB	1006703	n/a	LTP117	ltpFR	8	n/a	n/a	n/a	n/a	n/a	n/a	n/a	13	1	7	5	n/a	n/a	n/a	n/a	n/a
2014.804	n/a	STOP	1007402	n/a	LTP117	ltpFR	8	n/a	n/a	n/a	n/a	n/a	n/a	n/a	n/a	n/a	n/a	n/a	n/a	n/a	n/a	n/a	n/a
2016.422	n/a	WORD	1008211	wordpools/wasnorm_wordpool.txt	LTP117	ltpFR	8	8	1	SCISSORS	1250	n/a	n/a	0	n/a	0	0	0	0.422607421875	0.5869140625	0	lower	amplitud.ttf
2019.43	n/a	START	1009715	n/a	LTP117	ltpFR	8	n/a	n/a	n/a	n/a	n/a	n/a	n/a	n/a	n/a	n/a	n/a	n/a	n/a	n/a	n/a	n/a
2020.428	n/a	PROB	1010214	n/a	LTP117	ltpFR	8	n/a	n/a	n/a	n/a	n/a	n/a	n/a	10	7	1	2	n/a	n/a	n/a	n/a	n/a
2021.396	n/a	PROB	1010698	n/a	LTP117	ltpFR	8	n/a	n/a	n/a	n/a	n/a	n/a	n/a	16	9	3	4	n/a	n/a	n/a	n/a	n/a
2022.778	n/a	PROB	1011389	n/a	LTP117	ltpFR	8	n/a	n/a	n/a	n/a	n/a	n/a	n/a	18	9	3	8	n/a	n/a	n/a	n/a	n/a
2024.11	n/a	PROB	1012055	n/a	LTP117	ltpFR	8	n/a	n/a	n/a	n/a	n/a	n/a	n/a	14	4	9	1	n/a	n/a	n/a	n/a	n/a
2025.42	n/a	PROB	1012710	n/a	LTP117	ltpFR	8	n/a	n/a	n/a	n/a	n/a	n/a	n/a	4	3	1	1	n/a	n/a	n/a	n/a	n/a
2026.414	n/a	STOP	1013207	n/a	LTP117	ltpFR	8	n/a	n/a	n/a	n/a	n/a	n/a	n/a	n/a	n/a	n/a	n/a	n/a	n/a	n/a	n/a	n/a
2028.518	n/a	WORD	1014259	wordpools/wasnorm_wordpool.txt	LTP117	ltpFR	8	8	1	PADDLE	1000	n/a	n/a	0	n/a	0	0	0	0.422607421875	0.5869140625	0	lower	amplitud.ttf
2031.526	n/a	START	1015763	n/a	LTP117	ltpFR	8	n/a	n/a	n/a	n/a	n/a	n/a	n/a	n/a	n/a	n/a	n/a	n/a	n/a	n/a	n/a	n/a
2032.592	n/a	PROB	1016296	n/a	LTP117	ltpFR	8	n/a	n/a	n/a	n/a	n/a	n/a	n/a	19	6	5	8	n/a	n/a	n/a	n/a	n/a
2034.192	n/a	PROB	1017096	n/a	LTP117	ltpFR	8	n/a	n/a	n/a	n/a	n/a	n/a	n/a	8	3	1	4	n/a	n/a	n/a	n/a	n/a
2035.316	n/a	PROB	1017658	n/a	LTP117	ltpFR	8	n/a	n/a	n/a	n/a	n/a	n/a	n/a	17	5	3	9	n/a	n/a	n/a	n/a	n/a
2037.358	n/a	PROB	1018679	n/a	LTP117	ltpFR	8	n/a	n/a	n/a	n/a	n/a	n/a	n/a	5	1	3	1	n/a	n/a	n/a	n/a	n/a
2038.47	n/a	STOP	1019235	n/a	LTP117	ltpFR	8	n/a	n/a	n/a	n/a	n/a	n/a	n/a	n/a	n/a	n/a	n/a	n/a	n/a	n/a	n/a	n/a
2040.432	n/a	WORD	1020216	wordpools/wasnorm_wordpool.txt	LTP117	ltpFR	8	8	1	POLICE	1098	n/a	n/a	0	n/a	0	0	0	0.422607421875	0.5869140625	0	lower	amplitud.ttf
2043.44	n/a	START	1021720	n/a	LTP117	ltpFR	8	n/a	n/a	n/a	n/a	n/a	n/a	n/a	n/a	n/a	n/a	n/a	n/a	n/a	n/a	n/a	n/a
2044.548	n/a	PROB	1022274	n/a	LTP117	ltpFR	8	n/a	n/a	n/a	n/a	n/a	n/a	n/a	4	1	2	1	n/a	n/a	n/a	n/a	n/a
2045.356	n/a	PROB	1022678	n/a	LTP117	ltpFR	8	n/a	n/a	n/a	n/a	n/a	n/a	n/a	17	7	6	4	n/a	n/a	n/a	n/a	n/a
2047.33	n/a	PROB	1023665	n/a	LTP117	ltpFR	8	n/a	n/a	n/a	n/a	n/a	n/a	n/a	16	2	9	5	n/a	n/a	n/a	n/a	n/a
2048.754	n/a	PROB	1024377	n/a	LTP117	ltpFR	8	n/a	n/a	n/a	n/a	n/a	n/a	n/a	18	8	9	1	n/a	n/a	n/a	n/a	n/a
2049.886	n/a	PROB	1024943	n/a	LTP117	ltpFR	8	n/a	n/a	n/a	n/a	n/a	n/a	n/a	11	7	3	1	n/a	n/a	n/a	n/a	n/a
2051.086	n/a	STOP	1025543	n/a	LTP117	ltpFR	8	n/a	n/a	n/a	n/a	n/a	n/a	n/a	n/a	n/a	n/a	n/a	n/a	n/a	n/a	n/a	n/a
2052.294	n/a	WORD	1026147	wordpools/wasnorm_wordpool.txt	LTP117	ltpFR	8	8	1	BLANKET	135	n/a	n/a	0	n/a	0	0	0	0.422607421875	0.5869140625	0	lower	amplitud.ttf
2055.302	n/a	START	1027651	n/a	LTP117	ltpFR	8	n/a	n/a	n/a	n/a	n/a	n/a	n/a	n/a	n/a	n/a	n/a	n/a	n/a	n/a	n/a	n/a
2056.126	n/a	PROB	1028063	n/a	LTP117	ltpFR	8	n/a	n/a	n/a	n/a	n/a	n/a	n/a	22	8	4	9	n/a	n/a	n/a	n/a	n/a
2057.81	n/a	PROB	1028905	n/a	LTP117	ltpFR	8	n/a	n/a	n/a	n/a	n/a	n/a	n/a	17	7	5	5	n/a	n/a	n/a	n/a	n/a
2059.108	n/a	PROB	1029554	n/a	LTP117	ltpFR	8	n/a	n/a	n/a	n/a	n/a	n/a	n/a	19	4	8	7	n/a	n/a	n/a	n/a	n/a
2060.584	n/a	PROB	1030292	n/a	LTP117	ltpFR	8	n/a	n/a	n/a	n/a	n/a	n/a	n/a	17	6	4	7	n/a	n/a	n/a	n/a	n/a
2061.558	n/a	PROB	1030779	n/a	LTP117	ltpFR	8	n/a	n/a	n/a	n/a	n/a	n/a	n/a	15	4	2	9	n/a	n/a	n/a	n/a	n/a
2062.8	n/a	STOP	1031400	n/a	LTP117	ltpFR	8	n/a	n/a	n/a	n/a	n/a	n/a	n/a	n/a	n/a	n/a	n/a	n/a	n/a	n/a	n/a	n/a
2064.442	n/a	WORD	1032221	wordpools/wasnorm_wordpool.txt	LTP117	ltpFR	8	8	1	MARBLE	867	n/a	n/a	0	n/a	0	0	0	0.422607421875	0.5869140625	0	lower	amplitud.ttf
2067.448	n/a	START	1033724	n/a	LTP117	ltpFR	8	n/a	n/a	n/a	n/a	n/a	n/a	n/a	n/a	n/a	n/a	n/a	n/a	n/a	n/a	n/a	n/a
2068.582	n/a	PROB	1034291	n/a	LTP117	ltpFR	8	n/a	n/a	n/a	n/a	n/a	n/a	n/a	15	6	8	1	n/a	n/a	n/a	n/a	n/a
2070.964	n/a	PROB	1035482	n/a	LTP117	ltpFR	8	n/a	n/a	n/a	n/a	n/a	n/a	n/a	18	9	5	4	n/a	n/a	n/a	n/a	n/a
2072.322	n/a	PROB	1036161	n/a	LTP117	ltpFR	8	n/a	n/a	n/a	n/a	n/a	n/a	n/a	14	5	6	3	n/a	n/a	n/a	n/a	n/a
2073.58	n/a	PROB	1036790	n/a	LTP117	ltpFR	8	n/a	n/a	n/a	n/a	n/a	n/a	n/a	17	9	3	5	n/a	n/a	n/a	n/a	n/a
2074.936	n/a	STOP	1037468	n/a	LTP117	ltpFR	8	n/a	n/a	n/a	n/a	n/a	n/a	n/a	n/a	n/a	n/a	n/a	n/a	n/a	n/a	n/a	n/a
2076.354	n/a	WORD	1038177	wordpools/wasnorm_wordpool.txt	LTP117	ltpFR	8	8	0	SURGEON	1413	n/a	n/a	1	n/a	0	0	0	0.57763671875	0.412841796875	1	upper	zerothre.ttf
2079.362	n/a	START	1039681	n/a	LTP117	ltpFR	8	n/a	n/a	n/a	n/a	n/a	n/a	n/a	n/a	n/a	n/a	n/a	n/a	n/a	n/a	n/a	n/a
2080.536	n/a	PROB	1040268	n/a	LTP117	ltpFR	8	n/a	n/a	n/a	n/a	n/a	n/a	n/a	19	5	9	5	n/a	n/a	n/a	n/a	n/a
2082.51	n/a	PROB	1041255	n/a	LTP117	ltpFR	8	n/a	n/a	n/a	n/a	n/a	n/a	n/a	12	6	3	3	n/a	n/a	n/a	n/a	n/a
2083.61	n/a	PROB	1041805	n/a	LTP117	ltpFR	8	n/a	n/a	n/a	n/a	n/a	n/a	n/a	10	4	1	5	n/a	n/a	n/a	n/a	n/a
2084.626	n/a	PROB	1042313	n/a	LTP117	ltpFR	8	n/a	n/a	n/a	n/a	n/a	n/a	n/a	8	2	3	3	n/a	n/a	n/a	n/a	n/a
2087.362	n/a	STOP	1043681	n/a	LTP117	ltpFR	8	n/a	n/a	n/a	n/a	n/a	n/a	n/a	n/a	n/a	n/a	n/a	n/a	n/a	n/a	n/a	n/a
2088.542	n/a	WORD	1044271	wordpools/wasnorm_wordpool.txt	LTP117	ltpFR	8	8	0	PATIENT	1024	n/a	n/a	1	n/a	0	0	0	0.57763671875	0.412841796875	1	upper	zerothre.ttf
2091.55	n/a	START	1045775	n/a	LTP117	ltpFR	8	n/a	n/a	n/a	n/a	n/a	n/a	n/a	n/a	n/a	n/a	n/a	n/a	n/a	n/a	n/a	n/a
2092.574	n/a	PROB	1046287	n/a	LTP117	ltpFR	8	n/a	n/a	n/a	n/a	n/a	n/a	n/a	9	3	5	1	n/a	n/a	n/a	n/a	n/a
2093.524	n/a	PROB	1046762	n/a	LTP117	ltpFR	8	n/a	n/a	n/a	n/a	n/a	n/a	n/a	16	5	6	5	n/a	n/a	n/a	n/a	n/a
2095.122	n/a	PROB	1047561	n/a	LTP117	ltpFR	8	n/a	n/a	n/a	n/a	n/a	n/a	n/a	13	7	3	3	n/a	n/a	n/a	n/a	n/a
2096.356	n/a	PROB	1048178	n/a	LTP117	ltpFR	8	n/a	n/a	n/a	n/a	n/a	n/a	n/a	15	6	5	4	n/a	n/a	n/a	n/a	n/a
2097.556	n/a	PROB	1048778	n/a	LTP117	ltpFR	8	n/a	n/a	n/a	n/a	n/a	n/a	n/a	16	7	8	1	n/a	n/a	n/a	n/a	n/a
2098.816	n/a	STOP	1049408	n/a	LTP117	ltpFR	8	n/a	n/a	n/a	n/a	n/a	n/a	n/a	n/a	n/a	n/a	n/a	n/a	n/a	n/a	n/a	n/a
2100.522	n/a	WORD	1050261	wordpools/wasnorm_wordpool.txt	LTP117	ltpFR	8	8	0	PHYSICIAN	1056	n/a	n/a	1	n/a	0	0	0	0.57763671875	0.412841796875	1	upper	zerothre.ttf
2103.53	n/a	START	1051765	n/a	LTP117	ltpFR	8	n/a	n/a	n/a	n/a	n/a	n/a	n/a	n/a	n/a	n/a	n/a	n/a	n/a	n/a	n/a	n/a
2104.42	n/a	PROB	1052210	n/a	LTP117	ltpFR	8	n/a	n/a	n/a	n/a	n/a	n/a	n/a	14	3	7	4	n/a	n/a	n/a	n/a	n/a
2105.504	n/a	PROB	1052752	n/a	LTP117	ltpFR	8	n/a	n/a	n/a	n/a	n/a	n/a	n/a	22	7	7	8	n/a	n/a	n/a	n/a	n/a
2107.562	n/a	PROB	1053781	n/a	LTP117	ltpFR	8	n/a	n/a	n/a	n/a	n/a	n/a	n/a	9	1	5	3	n/a	n/a	n/a	n/a	n/a
2108.628	n/a	PROB	1054314	n/a	LTP117	ltpFR	8	n/a	n/a	n/a	n/a	n/a	n/a	n/a	11	4	1	6	n/a	n/a	n/a	n/a	n/a
2109.71	n/a	PROB	1054855	n/a	LTP117	ltpFR	8	n/a	n/a	n/a	n/a	n/a	n/a	n/a	20	5	6	9	n/a	n/a	n/a	n/a	n/a
2111.362	n/a	STOP	1055681	n/a	LTP117	ltpFR	8	n/a	n/a	n/a	n/a	n/a	n/a	n/a	n/a	n/a	n/a	n/a	n/a	n/a	n/a	n/a	n/a
2113.426	n/a	REC_START	1056713	n/a	LTP117	ltpFR	8	8	n/a	n/a	n/a	n/a	n/a	n/a	n/a	0	0	0	n/a	n/a	n/a	n/a	n/a
2114.01	n/a	REC_WORD	1057005	wordpools/wasnorm_wordpool.txt	LTP117	ltpFR	8	8	0	PATIENT	1024	n/a	n/a	1	n/a	0	0	0	n/a	n/a	n/a	n/a	n/a
2114.558	n/a	REC_WORD	1057279	wordpools/wasnorm_wordpool.txt	LTP117	ltpFR	8	8	0	PHYSICIAN	1056	n/a	n/a	1	n/a	0	0	0	n/a	n/a	n/a	n/a	n/a
2115.342	n/a	REC_WORD	1057671	wordpools/wasnorm_wordpool.txt	LTP117	ltpFR	8	8	0	SURGEON	1413	n/a	n/a	1	n/a	0	0	0	n/a	n/a	n/a	n/a	n/a
2116.19	n/a	REC_WORD	1058095	wordpools/wasnorm_wordpool.txt	LTP117	ltpFR	8	8	n/a	DOCTOR	478	n/a	n/a	n/a	n/a	0	0	0	n/a	n/a	n/a	n/a	n/a
2119.768	n/a	REC_WORD	1059884	wordpools/wasnorm_wordpool.txt	LTP117	ltpFR	8	8	0	FOX	598	n/a	n/a	1	n/a	0	0	0	n/a	n/a	n/a	n/a	n/a
2120.416	n/a	REC_WORD	1060208	wordpools/wasnorm_wordpool.txt	LTP117	ltpFR	8	8	0	CREATURE	403	n/a	n/a	1	n/a	0	0	0	n/a	n/a	n/a	n/a	n/a
2122.416	n/a	REC_WORD	1061208	wordpools/wasnorm_wordpool.txt	LTP117	ltpFR	8	8	0	SURF	1412	n/a	n/a	1	n/a	0	0	0	n/a	n/a	n/a	n/a	n/a
2123.364	n/a	REC_WORD	1061682	wordpools/wasnorm_wordpool.txt	LTP117	ltpFR	8	8	0	GALLON	618	n/a	n/a	0	n/a	0	0	0	n/a	n/a	n/a	n/a	n/a
2126.886	n/a	REC_WORD	1063443	wordpools/wasnorm_wordpool.txt	LTP117	ltpFR	8	8	1	TANGERINE	1431	n/a	n/a	0	n/a	0	0	0	n/a	n/a	n/a	n/a	n/a
2133.702	n/a	REC_WORD	1066851	wordpools/wasnorm_wordpool.txt	LTP117	ltpFR	8	8	n/a	SWAMP	1416	n/a	n/a	n/a	n/a	0	0	0	n/a	n/a	n/a	n/a	n/a
2191.952	n/a	WORD	1095976	wordpools/wasnorm_wordpool.txt	LTP117	ltpFR	8	9	1	VAGRANT	1544	n/a	n/a	1	n/a	0	0	0	0.422607421875	0.5869140625	0	lower	amplitud.ttf
2195.834	n/a	WORD	1097917	wordpools/wasnorm_wordpool.txt	LTP117	ltpFR	8	9	1	SAILOR	1223	n/a	n/a	1	n/a	0	0	0	0.422607421875	0.5869140625	0	lower	amplitud.ttf
2199.692	n/a	WORD	1099846	wordpools/wasnorm_wordpool.txt	LTP117	ltpFR	8	9	1	COBBLER	335	n/a	n/a	1	n/a	0	0	0	0.422607421875	0.5869140625	0	lower	amplitud.ttf
2203.548	n/a	WORD	1101774	wordpools/wasnorm_wordpool.txt	LTP117	ltpFR	8	9	0	OPERATOR	979	n/a	n/a	1	n/a	0	0	0	0.57763671875	0.412841796875	1	upper	zerothre.ttf
2207.706	n/a	WORD	1103853	wordpools/wasnorm_wordpool.txt	LTP117	ltpFR	8	9	0	WIRE	1616	n/a	n/a	1	n/a	0	0	0	0.57763671875	0.412841796875	1	upper	zerothre.ttf
2211.722	n/a	WORD	1105861	wordpools/wasnorm_wordpool.txt	LTP117	ltpFR	8	9	0	DEPUTY	450	n/a	n/a	1	n/a	0	0	0	0.57763671875	0.412841796875	1	upper	zerothre.ttf
2215.57	n/a	WORD	1107785	wordpools/wasnorm_wordpool.txt	LTP117	ltpFR	8	9	0	SERGEANT	1269	n/a	n/a	1	n/a	0	0	0	0.57763671875	0.412841796875	1	upper	zerothre.ttf
2219.67	n/a	WORD	1109835	wordpools/wasnorm_wordpool.txt	LTP117	ltpFR	8	9	1	DOCK	477	n/a	n/a	0	n/a	0	0	0	0.422607421875	0.5869140625	0	lower	amplitud.ttf
2223.626	n/a	WORD	1111813	wordpools/wasnorm_wordpool.txt	LTP117	ltpFR	8	9	1	SAW	1239	n/a	n/a	0	n/a	0	0	0	0.422607421875	0.5869140625	0	lower	amplitud.ttf
2227.682	n/a	WORD	1113841	wordpools/wasnorm_wordpool.txt	LTP117	ltpFR	8	9	1	TWINE	1529	n/a	n/a	0	n/a	0	0	0	0.422607421875	0.5869140625	0	lower	amplitud.ttf
2231.582	n/a	WORD	1115791	wordpools/wasnorm_wordpool.txt	LTP117	ltpFR	8	9	0	TWIN	1528	n/a	n/a	1	n/a	0	0	0	0.57763671875	0.412841796875	1	upper	zerothre.ttf
2235.74	n/a	WORD	1117870	wordpools/wasnorm_wordpool.txt	LTP117	ltpFR	8	9	0	STRAW	1390	n/a	n/a	1	n/a	0	0	0	0.57763671875	0.412841796875	1	upper	zerothre.ttf
2239.912	n/a	WORD	1119956	wordpools/wasnorm_wordpool.txt	LTP117	ltpFR	8	9	0	FRUIT	610	n/a	n/a	0	n/a	0	0	0	0.57763671875	0.412841796875	1	upper	zerothre.ttf
2243.828	n/a	WORD	1121914	wordpools/wasnorm_wordpool.txt	LTP117	ltpFR	8	9	0	JOINT	758	n/a	n/a	1	n/a	0	0	0	0.57763671875	0.412841796875	1	upper	zerothre.ttf
2247.944	n/a	WORD	1123972	wordpools/wasnorm_wordpool.txt	LTP117	ltpFR	8	9	1	MAYONNAISE	880	n/a	n/a	0	n/a	0	0	0	0.422607421875	0.5869140625	0	lower	amplitud.ttf
2252.05	n/a	WORD	1126025	wordpools/wasnorm_wordpool.txt	LTP117	ltpFR	8	9	1	BUN	197	n/a	n/a	0	n/a	0	0	0	0.422607421875	0.5869140625	0	lower	amplitud.ttf
2255.058	n/a	START	1127529	n/a	LTP117	ltpFR	8	n/a	n/a	n/a	n/a	n/a	n/a	n/a	n/a	n/a	n/a	n/a	n/a	n/a	n/a	n/a	n/a
2256.034	n/a	PROB	1128017	n/a	LTP117	ltpFR	8	n/a	n/a	n/a	n/a	n/a	n/a	n/a	14	8	2	4	n/a	n/a	n/a	n/a	n/a
2257.442	n/a	PROB	1128721	n/a	LTP117	ltpFR	8	n/a	n/a	n/a	n/a	n/a	n/a	n/a	15	4	6	7	n/a	n/a	n/a	n/a	n/a
2258.982	n/a	PROB	1129491	n/a	LTP117	ltpFR	8	n/a	n/a	n/a	n/a	n/a	n/a	n/a	15	9	2	4	n/a	n/a	n/a	n/a	n/a
2260.498	n/a	PROB	1130249	n/a	LTP117	ltpFR	8	n/a	n/a	n/a	n/a	n/a	n/a	n/a	13	3	8	2	n/a	n/a	n/a	n/a	n/a
2261.832	n/a	PROB	1130916	n/a	LTP117	ltpFR	8	n/a	n/a	n/a	n/a	n/a	n/a	n/a	21	7	8	6	n/a	n/a	n/a	n/a	n/a
2263.58	n/a	PROB	1131790	n/a	LTP117	ltpFR	8	n/a	n/a	n/a	n/a	n/a	n/a	n/a	10	5	1	4	n/a	n/a	n/a	n/a	n/a
2264.564	n/a	PROB	1132282	n/a	LTP117	ltpFR	8	n/a	n/a	n/a	n/a	n/a	n/a	n/a	13	6	7	2	n/a	n/a	n/a	n/a	n/a
2265.938	n/a	PROB	1132969	n/a	LTP117	ltpFR	8	n/a	n/a	n/a	n/a	n/a	n/a	n/a	10	3	6	1	n/a	n/a	n/a	n/a	n/a
2267.096	n/a	PROB	1133548	n/a	LTP117	ltpFR	8	n/a	n/a	n/a	n/a	n/a	n/a	n/a	13	1	6	6	n/a	n/a	n/a	n/a	n/a
2268.136	n/a	PROB	1134068	n/a	LTP117	ltpFR	8	n/a	n/a	n/a	n/a	n/a	n/a	n/a	13	5	1	7	n/a	n/a	n/a	n/a	n/a
2270.96	n/a	STOP	1135480	n/a	LTP117	ltpFR	8	n/a	n/a	n/a	n/a	n/a	n/a	n/a	n/a	n/a	n/a	n/a	n/a	n/a	n/a	n/a	n/a
2272.938	n/a	REC_START	1136469	n/a	LTP117	ltpFR	8	9	n/a	n/a	n/a	n/a	n/a	n/a	n/a	0	0	0	n/a	n/a	n/a	n/a	n/a
2273.292	n/a	REC_WORD	1136646	wordpools/wasnorm_wordpool.txt	LTP117	ltpFR	8	9	1	MAYONNAISE	880	n/a	n/a	0	n/a	0	0	0	n/a	n/a	n/a	n/a	n/a
2274.15	n/a	REC_WORD	1137075	wordpools/wasnorm_wordpool.txt	LTP117	ltpFR	8	9	1	BUN	197	n/a	n/a	0	n/a	0	0	0	n/a	n/a	n/a	n/a	n/a
2274.918	n/a	REC_WORD	1137459	wordpools/wasnorm_wordpool.txt	LTP117	ltpFR	8	9	0	TWIN	1528	n/a	n/a	1	n/a	0	0	0	n/a	n/a	n/a	n/a	n/a
2275.75	n/a	REC_WORD	1137875	wordpools/wasnorm_wordpool.txt	LTP117	ltpFR	8	9	1	TWINE	1529	n/a	n/a	0	n/a	0	0	0	n/a	n/a	n/a	n/a	n/a
2279.098	n/a	REC_WORD	1139549	wordpools/wasnorm_wordpool.txt	LTP117	ltpFR	8	9	0	STRAW	1390	n/a	n/a	1	n/a	0	0	0	n/a	n/a	n/a	n/a	n/a
2279.986	n/a	REC_WORD	1139993	wordpools/wasnorm_wordpool.txt	LTP117	ltpFR	8	9	0	FRUIT	610	n/a	n/a	0	n/a	0	0	0	n/a	n/a	n/a	n/a	n/a
2281.374	n/a	REC_WORD	1140687	wordpools/wasnorm_wordpool.txt	LTP117	ltpFR	8	9	1	SAW	1239	n/a	n/a	0	n/a	0	0	0	n/a	n/a	n/a	n/a	n/a
2283.224	n/a	REC_WORD	1141612	wordpools/wasnorm_wordpool.txt	LTP117	ltpFR	8	9	0	DEPUTY	450	n/a	n/a	1	n/a	0	0	0	n/a	n/a	n/a	n/a	n/a
2284.302	n/a	REC_WORD	1142151	wordpools/wasnorm_wordpool.txt	LTP117	ltpFR	8	9	n/a	GENERAL	630	n/a	n/a	n/a	n/a	0	0	0	n/a	n/a	n/a	n/a	n/a
2285.11	n/a	REC_WORD	1142555	wordpools/wasnorm_wordpool.txt	LTP117	ltpFR	8	9	n/a	MAJOR	859	n/a	n/a	n/a	n/a	0	0	0	n/a	n/a	n/a	n/a	n/a
2287.514	n/a	REC_WORD	1143757	wordpools/wasnorm_wordpool.txt	LTP117	ltpFR	8	9	n/a	CALL	-1	n/a	n/a	n/a	n/a	0	0	0	n/a	n/a	n/a	n/a	n/a
2288.572	n/a	REC_WORD	1144286	wordpools/wasnorm_wordpool.txt	LTP117	ltpFR	8	9	1	DOCK	477	n/a	n/a	0	n/a	0	0	0	n/a	n/a	n/a	n/a	n/a
2290.452	n/a	REC_WORD	1145226	wordpools/wasnorm_wordpool.txt	LTP117	ltpFR	8	9	1	COBBLER	335	n/a	n/a	1	n/a	0	0	0	n/a	n/a	n/a	n/a	n/a
2291.542	n/a	REC_WORD	1145771	wordpools/wasnorm_wordpool.txt	LTP117	ltpFR	8	9	1	SAILOR	1223	n/a	n/a	1	n/a	0	0	0	n/a	n/a	n/a	n/a	n/a
2292.448	n/a	REC_WORD	1146224	wordpools/wasnorm_wordpool.txt	LTP117	ltpFR	8	9	1	VAGRANT	1544	n/a	n/a	1	n/a	0	0	0	n/a	n/a	n/a	n/a	n/a
2300.51	n/a	REC_WORD	1150255	wordpools/wasnorm_wordpool.txt	LTP117	ltpFR	8	9	0	WIRE	1616	n/a	n/a	1	n/a	0	0	0	n/a	n/a	n/a	n/a	n/a
2307.838	n/a	REC_WORD	1153919	wordpools/wasnorm_wordpool.txt	LTP117	ltpFR	8	9	0	OPERATOR	979	n/a	n/a	1	n/a	0	0	0	n/a	n/a	n/a	n/a	n/a
2342.652	n/a	REC_WORD	1171326	wordpools/wasnorm_wordpool.txt	LTP117	ltpFR	8	9	n/a	JAM	748	n/a	n/a	n/a	n/a	0	0	0	n/a	n/a	n/a	n/a	n/a
2347.152	n/a	REC_WORD	1173576	wordpools/wasnorm_wordpool.txt	LTP117	ltpFR	8	9	n/a	YAM	-1	n/a	n/a	n/a	n/a	0	0	0	n/a	n/a	n/a	n/a	n/a
2351.072	n/a	WORD	1175536	wordpools/wasnorm_wordpool.txt	LTP117	ltpFR	8	10	1	RUG	1215	n/a	n/a	0	n/a	0	0	0	0.422607421875	0.5869140625	0	lower	amplitud.ttf
2355.152	n/a	WORD	1177576	wordpools/wasnorm_wordpool.txt	LTP117	ltpFR	8	10	1	CUBE	420	n/a	n/a	0	n/a	0	0	0	0.422607421875	0.5869140625	0	lower	amplitud.ttf
2358.976	n/a	WORD	1179488	wordpools/wasnorm_wordpool.txt	LTP117	ltpFR	8	10	1	TIDE	1465	n/a	n/a	0	n/a	0	0	0	0.422607421875	0.5869140625	0	lower	amplitud.ttf
2362.868	n/a	WORD	1181434	wordpools/wasnorm_wordpool.txt	LTP117	ltpFR	8	10	1	SWIMMER	1420	n/a	n/a	0	n/a	0	0	0	0.422607421875	0.5869140625	0	lower	amplitud.ttf
2366.708	n/a	WORD	1183354	wordpools/wasnorm_wordpool.txt	LTP117	ltpFR	8	10	1	TABLET	1427	n/a	n/a	0	n/a	0	0	0	0.422607421875	0.5869140625	0	lower	amplitud.ttf
2370.832	n/a	WORD	1185416	wordpools/wasnorm_wordpool.txt	LTP117	ltpFR	8	10	1	POT	1114	n/a	n/a	0	n/a	0	0	0	0.422607421875	0.5869140625	0	lower	amplitud.ttf
2374.648	n/a	WORD	1187324	wordpools/wasnorm_wordpool.txt	LTP117	ltpFR	8	10	1	DART	440	n/a	n/a	0	n/a	0	0	0	0.422607421875	0.5869140625	0	lower	amplitud.ttf
2378.53	n/a	WORD	1189265	wordpools/wasnorm_wordpool.txt	LTP117	ltpFR	8	10	1	SCALLOP	1242	n/a	n/a	0	n/a	0	0	0	0.422607421875	0.5869140625	0	lower	amplitud.ttf
2382.578	n/a	WORD	1191289	wordpools/wasnorm_wordpool.txt	LTP117	ltpFR	8	10	1	PARROT	1015	n/a	n/a	0	n/a	0	0	0	0.422607421875	0.5869140625	0	lower	amplitud.ttf
2386.402	n/a	WORD	1193201	wordpools/wasnorm_wordpool.txt	LTP117	ltpFR	8	10	1	TUNNEL	1519	n/a	n/a	0	n/a	0	0	0	0.422607421875	0.5869140625	0	lower	amplitud.ttf
2390.31	n/a	WORD	1195155	wordpools/wasnorm_wordpool.txt	LTP117	ltpFR	8	10	1	SUBWAY	1400	n/a	n/a	0	n/a	0	0	0	0.422607421875	0.5869140625	0	lower	amplitud.ttf
2394.266	n/a	WORD	1197133	wordpools/wasnorm_wordpool.txt	LTP117	ltpFR	8	10	1	LOBSTER	837	n/a	n/a	0	n/a	0	0	0	0.422607421875	0.5869140625	0	lower	amplitud.ttf
2398.314	n/a	WORD	1199157	wordpools/wasnorm_wordpool.txt	LTP117	ltpFR	8	10	1	OINTMENT	974	n/a	n/a	0	n/a	0	0	0	0.422607421875	0.5869140625	0	lower	amplitud.ttf
2402.154	n/a	WORD	1201077	wordpools/wasnorm_wordpool.txt	LTP117	ltpFR	8	10	1	CATCHER	258	n/a	n/a	0	n/a	0	0	0	0.422607421875	0.5869140625	0	lower	amplitud.ttf
2406.362	n/a	WORD	1203181	wordpools/wasnorm_wordpool.txt	LTP117	ltpFR	8	10	1	LAKE	796	n/a	n/a	0	n/a	0	0	0	0.422607421875	0.5869140625	0	lower	amplitud.ttf
2410.278	n/a	WORD	1205139	wordpools/wasnorm_wordpool.txt	LTP117	ltpFR	8	10	1	FLIPPER	580	n/a	n/a	0	n/a	0	0	0	0.422607421875	0.5869140625	0	lower	amplitud.ttf
2413.286	n/a	START	1206643	n/a	LTP117	ltpFR	8	n/a	n/a	n/a	n/a	n/a	n/a	n/a	n/a	n/a	n/a	n/a	n/a	n/a	n/a	n/a	n/a
2414.436	n/a	PROB	1207218	n/a	LTP117	ltpFR	8	n/a	n/a	n/a	n/a	n/a	n/a	n/a	19	2	9	8	n/a	n/a	n/a	n/a	n/a
2416.118	n/a	PROB	1208059	n/a	LTP117	ltpFR	8	n/a	n/a	n/a	n/a	n/a	n/a	n/a	21	7	7	7	n/a	n/a	n/a	n/a	n/a
2417.174	n/a	PROB	1208587	n/a	LTP117	ltpFR	8	n/a	n/a	n/a	n/a	n/a	n/a	n/a	11	2	4	5	n/a	n/a	n/a	n/a	n/a
2418.392	n/a	PROB	1209196	n/a	LTP117	ltpFR	8	n/a	n/a	n/a	n/a	n/a	n/a	n/a	16	1	9	6	n/a	n/a	n/a	n/a	n/a
2419.35	n/a	PROB	1209675	n/a	LTP117	ltpFR	8	n/a	n/a	n/a	n/a	n/a	n/a	n/a	12	6	5	1	n/a	n/a	n/a	n/a	n/a
2420.258	n/a	STOP	1210129	n/a	LTP117	ltpFR	8	n/a	n/a	n/a	n/a	n/a	n/a	n/a	n/a	n/a	n/a	n/a	n/a	n/a	n/a	n/a	n/a
2423.016	n/a	REC_START	1211508	n/a	LTP117	ltpFR	8	10	n/a	n/a	n/a	n/a	n/a	n/a	n/a	0	0	0	n/a	n/a	n/a	n/a	n/a
2423.56	n/a	REC_WORD	1211780	wordpools/wasnorm_wordpool.txt	LTP117	ltpFR	8	10	1	LAKE	796	n/a	n/a	0	n/a	0	0	0	n/a	n/a	n/a	n/a	n/a
2424.172	n/a	REC_WORD	1212086	wordpools/wasnorm_wordpool.txt	LTP117	ltpFR	8	10	1	CATCHER	258	n/a	n/a	0	n/a	0	0	0	n/a	n/a	n/a	n/a	n/a
2424.696	n/a	REC_WORD	1212348	wordpools/wasnorm_wordpool.txt	LTP117	ltpFR	8	10	1	SWIMMER	1420	n/a	n/a	0	n/a	0	0	0	n/a	n/a	n/a	n/a	n/a
2425.41	n/a	REC_WORD	1212705	wordpools/wasnorm_wordpool.txt	LTP117	ltpFR	8	10	1	FLIPPER	580	n/a	n/a	0	n/a	0	0	0	n/a	n/a	n/a	n/a	n/a
2428.824	n/a	REC_WORD	1214412	wordpools/wasnorm_wordpool.txt	LTP117	ltpFR	8	10	1	LOBSTER	837	n/a	n/a	0	n/a	0	0	0	n/a	n/a	n/a	n/a	n/a
2429.446	n/a	REC_WORD	1214723	wordpools/wasnorm_wordpool.txt	LTP117	ltpFR	8	10	1	SCALLOP	1242	n/a	n/a	0	n/a	0	0	0	n/a	n/a	n/a	n/a	n/a
2430.214	n/a	REC_WORD	1215107	wordpools/wasnorm_wordpool.txt	LTP117	ltpFR	8	10	1	PARROT	1015	n/a	n/a	0	n/a	0	0	0	n/a	n/a	n/a	n/a	n/a
2433.038	n/a	REC_WORD	1216519	wordpools/wasnorm_wordpool.txt	LTP117	ltpFR	8	10	1	RUG	1215	n/a	n/a	0	n/a	0	0	0	n/a	n/a	n/a	n/a	n/a
2433.712	n/a	REC_WORD	1216856	wordpools/wasnorm_wordpool.txt	LTP117	ltpFR	8	10	1	CUBE	420	n/a	n/a	0	n/a	0	0	0	n/a	n/a	n/a	n/a	n/a
2435.438	n/a	REC_WORD	1217719	wordpools/wasnorm_wordpool.txt	LTP117	ltpFR	8	10	1	TIDE	1465	n/a	n/a	0	n/a	0	0	0	n/a	n/a	n/a	n/a	n/a
2437.474	n/a	REC_WORD	1218737	wordpools/wasnorm_wordpool.txt	LTP117	ltpFR	8	10	1	POT	1114	n/a	n/a	0	n/a	0	0	0	n/a	n/a	n/a	n/a	n/a
2438.796	n/a	REC_WORD	1219398	wordpools/wasnorm_wordpool.txt	LTP117	ltpFR	8	10	1	DART	440	n/a	n/a	0	n/a	0	0	0	n/a	n/a	n/a	n/a	n/a
2439.554	n/a	REC_WORD	1219777	wordpools/wasnorm_wordpool.txt	LTP117	ltpFR	8	10	1	TUNNEL	1519	n/a	n/a	0	n/a	0	0	0	n/a	n/a	n/a	n/a	n/a
2440.068	n/a	REC_WORD	1220034	wordpools/wasnorm_wordpool.txt	LTP117	ltpFR	8	10	1	SUBWAY	1400	n/a	n/a	0	n/a	0	0	0	n/a	n/a	n/a	n/a	n/a
2447.412	n/a	REC_WORD	1223706	wordpools/wasnorm_wordpool.txt	LTP117	ltpFR	8	10	1	TABLET	1427	n/a	n/a	0	n/a	0	0	0	n/a	n/a	n/a	n/a	n/a
2498.626	n/a	REST_REWET	1249313	n/a	LTP117	ltpFR	8	10	n/a	n/a	n/a	n/a	n/a	n/a	n/a	0	0	0	n/a	n/a	n/a	n/a	n/a
3312.856	n/a	WORD	1656428	wordpools/wasnorm_wordpool.txt	LTP117	ltpFR	8	11	0	WATER	1594	n/a	n/a	1	n/a	0	0	0	0.57763671875	0.412841796875	1	upper	zerothre.ttf
3316.68	n/a	WORD	1658340	wordpools/wasnorm_wordpool.txt	LTP117	ltpFR	8	11	0	RUM	1217	n/a	n/a	0	n/a	0	0	0	0.57763671875	0.412841796875	1	upper	zerothre.ttf
3320.752	n/a	WORD	1660376	wordpools/wasnorm_wordpool.txt	LTP117	ltpFR	8	11	0	SCENERY	1247	n/a	n/a	1	n/a	0	0	0	0.57763671875	0.412841796875	1	upper	zerothre.ttf
3324.734	n/a	WORD	1662367	wordpools/wasnorm_wordpool.txt	LTP117	ltpFR	8	11	0	PHOTO	1055	n/a	n/a	1	n/a	0	0	0	0.57763671875	0.412841796875	1	upper	zerothre.ttf
3328.784	n/a	WORD	1664392	wordpools/wasnorm_wordpool.txt	LTP117	ltpFR	8	11	0	MITTEN	902	n/a	n/a	1	n/a	0	0	0	0.57763671875	0.412841796875	1	upper	zerothre.ttf
