onset	duration	trial_type	sample	stim_file	subject	experiment	session	trial	task	item_name	item_num	recog_resp	recog_conf	resp	color_r	color_g	color_b	case	font
223.912	n/a	SESS_START	111956	n/a	LTP103	ltpFR	5	n/a	n/a	n/a	n/a	1	2	n/a	n/a	n/a	n/a	n/a	n/a
270.482	n/a	WORD	135241	wordpools/wasnorm_wordpool.txt	LTP103	ltpFR	5	1	0	HEN	703	0	3	1	0.57763671875	0.412841796875	1	upper	zerothre.ttf
274.324	n/a	WORD	137162	wordpools/wasnorm_wordpool.txt	LTP103	ltpFR	5	1	0	CUE	422	0	n/a	1	0.57763671875	0.412841796875	1	upper	zerothre.ttf
278.434	n/a	WORD	139217	wordpools/wasnorm_wordpool.txt	LTP103	ltpFR	5	1	1	CANE	231	n/a	n/a	1	0.422607421875	0.5869140625	0	lower	amplitud.ttf
282.308	n/a	WORD	141154	wordpools/wasnorm_wordpool.txt	LTP103	ltpFR	5	1	1	BARREL	91	n/a	n/a	0	0.422607421875	0.5869140625	0	lower	amplitud.ttf
286.324	n/a	WORD	143162	wordpools/wasnorm_wordpool.txt	LTP103	ltpFR	5	1	1	SCOTCH	1251	n/a	n/a	0	0.422607421875	0.5869140625	0	lower	amplitud.ttf
290.374	n/a	WORD	145187	wordpools/wasnorm_wordpool.txt	LTP103	ltpFR	5	1	1	BISON	131	n/a	n/a	0	0.422607421875	0.5869140625	0	lower	amplitud.ttf
294.208	n/a	WORD	147104	wordpools/wasnorm_wordpool.txt	LTP103	ltpFR	5	1	1	BUFFALO	186	n/a	n/a	0	0.422607421875	0.5869140625	0	lower	amplitud.ttf
298.24	n/a	WORD	149120	wordpools/wasnorm_wordpool.txt	LTP103	ltpFR	5	1	0	TURKEY	1520	n/a	n/a	1	0.57763671875	0.412841796875	1	upper	zerothre.ttf
302.34	n/a	WORD	151170	wordpools/wasnorm_wordpool.txt	LTP103	ltpFR	5	1	0	CANNON	232	n/a	n/a	0	0.57763671875	0.412841796875	1	upper	zerothre.ttf
306.182	n/a	WORD	153091	wordpools/wasnorm_wordpool.txt	LTP103	ltpFR	5	1	0	DRESS	495	n/a	n/a	0	0.57763671875	0.412841796875	1	upper	zerothre.ttf
310.132	n/a	WORD	155066	wordpools/wasnorm_wordpool.txt	LTP103	ltpFR	5	1	1	GRILL	661	n/a	n/a	1	0.422607421875	0.5869140625	0	lower	amplitud.ttf
314.298	n/a	WORD	157149	wordpools/wasnorm_wordpool.txt	LTP103	ltpFR	5	1	1	PICKLE	1059	n/a	n/a	0	0.422607421875	0.5869140625	0	lower	amplitud.ttf
318.34	n/a	WORD	159170	wordpools/wasnorm_wordpool.txt	LTP103	ltpFR	5	1	1	MARSH	874	n/a	n/a	0	0.422607421875	0.5869140625	0	lower	amplitud.ttf
322.474	n/a	WORD	161237	wordpools/wasnorm_wordpool.txt	LTP103	ltpFR	5	1	0	TREAD	1499	n/a	n/a	1	0.57763671875	0.412841796875	1	upper	zerothre.ttf
326.482	n/a	WORD	163241	wordpools/wasnorm_wordpool.txt	LTP103	ltpFR	5	1	0	RACCOON	1153	n/a	n/a	0	0.57763671875	0.412841796875	1	upper	zerothre.ttf
330.606	n/a	WORD	165303	wordpools/wasnorm_wordpool.txt	LTP103	ltpFR	5	1	0	SKIRT	1319	n/a	n/a	0	0.57763671875	0.412841796875	1	upper	zerothre.ttf
336.198	n/a	REC_START	168099	n/a	LTP103	ltpFR	5	1	n/a	n/a	n/a	n/a	n/a	n/a	n/a	n/a	n/a	n/a	n/a
336.842	n/a	REC_WORD	168421	wordpools/wasnorm_wordpool.txt	LTP103	ltpFR	5	1	0	RACCOON	1153	n/a	n/a	0	n/a	n/a	n/a	n/a	n/a
337.77	n/a	REC_WORD	168885	wordpools/wasnorm_wordpool.txt	LTP103	ltpFR	5	1	0	SKIRT	1319	n/a	n/a	0	n/a	n/a	n/a	n/a	n/a
342.61	n/a	REC_WORD	171305	wordpools/wasnorm_wordpool.txt	LTP103	ltpFR	5	1	1	BUFFALO	186	n/a	n/a	0	n/a	n/a	n/a	n/a	n/a
348.676	n/a	REC_WORD	174338	wordpools/wasnorm_wordpool.txt	LTP103	ltpFR	5	1	n/a	TRACK	-1	n/a	n/a	n/a	n/a	n/a	n/a	n/a	n/a
350.222	n/a	REC_WORD	175111	wordpools/wasnorm_wordpool.txt	LTP103	ltpFR	5	1	0	TREAD	1499	n/a	n/a	1	n/a	n/a	n/a	n/a	n/a
357.546	n/a	REC_WORD	178773	wordpools/wasnorm_wordpool.txt	LTP103	ltpFR	5	1	0	HEN	703	n/a	n/a	1	n/a	n/a	n/a	n/a	n/a
361.278	n/a	REC_WORD	180639	wordpools/wasnorm_wordpool.txt	LTP103	ltpFR	5	1	0	RACCOON	1153	n/a	n/a	0	n/a	n/a	n/a	n/a	n/a
417.412	n/a	WORD	208706	wordpools/wasnorm_wordpool.txt	LTP103	ltpFR	5	2	1	GROCERIES	663	n/a	n/a	0	0.422607421875	0.5869140625	0	lower	amplitud.ttf
421.538	n/a	WORD	210769	wordpools/wasnorm_wordpool.txt	LTP103	ltpFR	5	2	1	PIKE	1067	n/a	n/a	0	0.422607421875	0.5869140625	0	lower	amplitud.ttf
425.554	n/a	WORD	212777	wordpools/wasnorm_wordpool.txt	LTP103	ltpFR	5	2	1	SQUID	1361	n/a	n/a	1	0.422607421875	0.5869140625	0	lower	amplitud.ttf
429.428	n/a	WORD	214714	wordpools/wasnorm_wordpool.txt	LTP103	ltpFR	5	2	1	GROCERY	664	n/a	n/a	0	0.422607421875	0.5869140625	0	lower	amplitud.ttf
433.612	n/a	WORD	216806	wordpools/wasnorm_wordpool.txt	LTP103	ltpFR	5	2	1	KING	777	n/a	n/a	0	0.422607421875	0.5869140625	0	lower	amplitud.ttf
437.702	n/a	WORD	218851	wordpools/wasnorm_wordpool.txt	LTP103	ltpFR	5	2	0	MAMMAL	861	n/a	n/a	1	0.57763671875	0.412841796875	1	upper	zerothre.ttf
441.68	n/a	WORD	220840	wordpools/wasnorm_wordpool.txt	LTP103	ltpFR	5	2	0	SEASHORE	1263	n/a	n/a	1	0.57763671875	0.412841796875	1	upper	zerothre.ttf
445.852	n/a	WORD	222926	wordpools/wasnorm_wordpool.txt	LTP103	ltpFR	5	2	0	RIVER	1194	n/a	n/a	0	0.57763671875	0.412841796875	1	upper	zerothre.ttf
449.81	n/a	WORD	224905	wordpools/wasnorm_wordpool.txt	LTP103	ltpFR	5	2	0	PECAN	1036	n/a	n/a	1	0.57763671875	0.412841796875	1	upper	zerothre.ttf
453.736	n/a	WORD	226868	wordpools/wasnorm_wordpool.txt	LTP103	ltpFR	5	2	0	FIN	566	n/a	n/a	1	0.57763671875	0.412841796875	1	upper	zerothre.ttf
457.636	n/a	WORD	228818	wordpools/wasnorm_wordpool.txt	LTP103	ltpFR	5	2	0	PLIERS	1089	n/a	n/a	0	0.57763671875	0.412841796875	1	upper	zerothre.ttf
461.646	n/a	WORD	230823	wordpools/wasnorm_wordpool.txt	LTP103	ltpFR	5	2	1	JUVENILE	767	n/a	n/a	0	0.422607421875	0.5869140625	0	lower	amplitud.ttf
465.628	n/a	WORD	232814	wordpools/wasnorm_wordpool.txt	LTP103	ltpFR	5	2	1	CHIPMUNK	304	n/a	n/a	0	0.422607421875	0.5869140625	0	lower	amplitud.ttf
469.802	n/a	WORD	234901	wordpools/wasnorm_wordpool.txt	LTP103	ltpFR	5	2	1	KNOB	787	n/a	n/a	0	0.422607421875	0.5869140625	0	lower	amplitud.ttf
473.894	n/a	WORD	236947	wordpools/wasnorm_wordpool.txt	LTP103	ltpFR	5	2	0	BIOLOGIST	128	n/a	n/a	1	0.57763671875	0.412841796875	1	upper	zerothre.ttf
477.976	n/a	WORD	238988	wordpools/wasnorm_wordpool.txt	LTP103	ltpFR	5	2	0	BEAKER	104	n/a	n/a	0	0.57763671875	0.412841796875	1	upper	zerothre.ttf
483.852	n/a	REC_START	241926	n/a	LTP103	ltpFR	5	2	n/a	n/a	n/a	n/a	n/a	n/a	n/a	n/a	n/a	n/a	n/a
484.356	n/a	REC_WORD	242178	wordpools/wasnorm_wordpool.txt	LTP103	ltpFR	5	2	0	BIOLOGIST	128	n/a	n/a	1	n/a	n/a	n/a	n/a	n/a
485.802	n/a	REC_WORD	242901	wordpools/wasnorm_wordpool.txt	LTP103	ltpFR	5	2	0	BEAKER	104	n/a	n/a	0	n/a	n/a	n/a	n/a	n/a
486.532	n/a	REC_WORD	243266	wordpools/wasnorm_wordpool.txt	LTP103	ltpFR	5	2	1	CHIPMUNK	304	n/a	n/a	0	n/a	n/a	n/a	n/a	n/a
488.746	n/a	REC_WORD	244373	wordpools/wasnorm_wordpool.txt	LTP103	ltpFR	5	2	n/a	PEACOCK	-1	n/a	n/a	n/a	n/a	n/a	n/a	n/a	n/a
491.11	n/a	REC_WORD	245555	wordpools/wasnorm_wordpool.txt	LTP103	ltpFR	5	2	0	SEASHORE	1263	n/a	n/a	1	n/a	n/a	n/a	n/a	n/a
493.844	n/a	REC_WORD	246922	wordpools/wasnorm_wordpool.txt	LTP103	ltpFR	5	2	1	GROCERIES	663	n/a	n/a	0	n/a	n/a	n/a	n/a	n/a
497.322	n/a	REC_WORD	248661	wordpools/wasnorm_wordpool.txt	LTP103	ltpFR	5	2	0	MAMMAL	861	n/a	n/a	1	n/a	n/a	n/a	n/a	n/a
515.89	n/a	REC_WORD	257945	wordpools/wasnorm_wordpool.txt	LTP103	ltpFR	5	2	0	RIVER	1194	n/a	n/a	0	n/a	n/a	n/a	n/a	n/a
566.226	n/a	WORD	283113	wordpools/wasnorm_wordpool.txt	LTP103	ltpFR	5	3	0	PHOTO	1055	n/a	n/a	1	0.57763671875	0.412841796875	1	upper	zerothre.ttf
570.184	n/a	WORD	285092	wordpools/wasnorm_wordpool.txt	LTP103	ltpFR	5	3	0	COLONEL	348	n/a	n/a	0	0.57763671875	0.412841796875	1	upper	zerothre.ttf
574.266	n/a	WORD	287133	wordpools/wasnorm_wordpool.txt	LTP103	ltpFR	5	3	0	DINNER	468	n/a	n/a	1	0.57763671875	0.412841796875	1	upper	zerothre.ttf
578.434	n/a	WORD	289217	wordpools/wasnorm_wordpool.txt	LTP103	ltpFR	5	3	0	PLATE	1086	n/a	n/a	1	0.57763671875	0.412841796875	1	upper	zerothre.ttf
582.408	n/a	WORD	291204	wordpools/wasnorm_wordpool.txt	LTP103	ltpFR	5	3	0	SNEAKER	1334	n/a	n/a	1	0.57763671875	0.412841796875	1	upper	zerothre.ttf
586.334	n/a	WORD	293167	wordpools/wasnorm_wordpool.txt	LTP103	ltpFR	5	3	0	WRITER	1627	n/a	n/a	1	0.57763671875	0.412841796875	1	upper	zerothre.ttf
590.442	n/a	WORD	295221	wordpools/wasnorm_wordpool.txt	LTP103	ltpFR	5	3	1	FORT	595	n/a	n/a	1	0.422607421875	0.5869140625	0	lower	amplitud.ttf
594.458	n/a	WORD	297229	wordpools/wasnorm_wordpool.txt	LTP103	ltpFR	5	3	1	DOOR	486	n/a	n/a	0	0.422607421875	0.5869140625	0	lower	amplitud.ttf
598.45	n/a	WORD	299225	wordpools/wasnorm_wordpool.txt	LTP103	ltpFR	5	3	1	LOCK	838	n/a	n/a	0	0.422607421875	0.5869140625	0	lower	amplitud.ttf
602.566	n/a	WORD	301283	wordpools/wasnorm_wordpool.txt	LTP103	ltpFR	5	3	1	PUBLICATION	1136	n/a	n/a	0	0.422607421875	0.5869140625	0	lower	amplitud.ttf
606.55	n/a	WORD	303275	wordpools/wasnorm_wordpool.txt	LTP103	ltpFR	5	3	0	TUBE	1516	n/a	n/a	1	0.57763671875	0.412841796875	1	upper	zerothre.ttf
610.7	n/a	WORD	305350	wordpools/wasnorm_wordpool.txt	LTP103	ltpFR	5	3	0	CHAUFFEUR	283	n/a	n/a	0	0.57763671875	0.412841796875	1	upper	zerothre.ttf
614.724	n/a	WORD	307362	wordpools/wasnorm_wordpool.txt	LTP103	ltpFR	5	3	1	CELLAR	267	n/a	n/a	1	0.422607421875	0.5869140625	0	lower	amplitud.ttf
618.732	n/a	WORD	309366	wordpools/wasnorm_wordpool.txt	LTP103	ltpFR	5	3	1	BACON	67	n/a	n/a	0	0.422607421875	0.5869140625	0	lower	amplitud.ttf
622.666	n/a	WORD	311333	wordpools/wasnorm_wordpool.txt	LTP103	ltpFR	5	3	1	SKUNK	1321	n/a	n/a	1	0.422607421875	0.5869140625	0	lower	amplitud.ttf
626.798	n/a	WORD	313399	wordpools/wasnorm_wordpool.txt	LTP103	ltpFR	5	3	1	KEEPER	769	n/a	n/a	0	0.422607421875	0.5869140625	0	lower	amplitud.ttf
632.764	n/a	REC_START	316382	n/a	LTP103	ltpFR	5	3	n/a	n/a	n/a	n/a	n/a	n/a	n/a	n/a	n/a	n/a	n/a
633.178	n/a	REC_WORD	316589	wordpools/wasnorm_wordpool.txt	LTP103	ltpFR	5	3	1	KEEPER	769	n/a	n/a	0	n/a	n/a	n/a	n/a	n/a
633.678	n/a	REC_WORD	316839	wordpools/wasnorm_wordpool.txt	LTP103	ltpFR	5	3	1	SKUNK	1321	n/a	n/a	1	n/a	n/a	n/a	n/a	n/a
654.126	n/a	REC_WORD	327063	wordpools/wasnorm_wordpool.txt	LTP103	ltpFR	5	3	n/a	PIPE	1073	n/a	n/a	n/a	n/a	n/a	n/a	n/a	n/a
658.9	n/a	REC_WORD_VV	329450	wordpools/wasnorm_wordpool.txt	LTP103	ltpFR	5	3	n/a	<>	-1	n/a	n/a	n/a	n/a	n/a	n/a	n/a	n/a
661.172	n/a	REC_WORD	330586	wordpools/wasnorm_wordpool.txt	LTP103	ltpFR	5	3	0	SNEAKER	1334	n/a	n/a	1	n/a	n/a	n/a	n/a	n/a
665.108	n/a	REC_WORD	332554	wordpools/wasnorm_wordpool.txt	LTP103	ltpFR	5	3	n/a	THREAD	1460	n/a	n/a	n/a	n/a	n/a	n/a	n/a	n/a
719.912	n/a	WORD	359956	wordpools/wasnorm_wordpool.txt	LTP103	ltpFR	5	4	1	MASCARA	875	n/a	n/a	0	0.422607421875	0.5869140625	0	lower	amplitud.ttf
723.746	n/a	WORD	361873	wordpools/wasnorm_wordpool.txt	LTP103	ltpFR	5	4	1	BACK	65	n/a	n/a	0	0.422607421875	0.5869140625	0	lower	amplitud.ttf
727.596	n/a	WORD	363798	wordpools/wasnorm_wordpool.txt	LTP103	ltpFR	5	4	1	SKELETON	1314	n/a	n/a	0	0.422607421875	0.5869140625	0	lower	amplitud.ttf
731.72	n/a	WORD	365860	wordpools/wasnorm_wordpool.txt	LTP103	ltpFR	5	4	1	FLEET	578	n/a	n/a	0	0.422607421875	0.5869140625	0	lower	amplitud.ttf
735.57	n/a	WORD	367785	wordpools/wasnorm_wordpool.txt	LTP103	ltpFR	5	4	1	MALL	860	n/a	n/a	0	0.422607421875	0.5869140625	0	lower	amplitud.ttf
739.462	n/a	WORD	369731	wordpools/wasnorm_wordpool.txt	LTP103	ltpFR	5	4	1	PENGUIN	1044	n/a	n/a	0	0.422607421875	0.5869140625	0	lower	amplitud.ttf
743.654	n/a	WORD	371827	wordpools/wasnorm_wordpool.txt	LTP103	ltpFR	5	4	1	FIDDLE	561	n/a	n/a	0	0.422607421875	0.5869140625	0	lower	amplitud.ttf
747.554	n/a	WORD	373777	wordpools/wasnorm_wordpool.txt	LTP103	ltpFR	5	4	1	SHEPHERD	1283	n/a	n/a	0	0.422607421875	0.5869140625	0	lower	amplitud.ttf
751.604	n/a	WORD	375802	wordpools/wasnorm_wordpool.txt	LTP103	ltpFR	5	4	1	TAIL	1430	n/a	n/a	0	0.422607421875	0.5869140625	0	lower	amplitud.ttf
755.42	n/a	WORD	377710	wordpools/wasnorm_wordpool.txt	LTP103	ltpFR	5	4	1	CITY	314	n/a	n/a	0	0.422607421875	0.5869140625	0	lower	amplitud.ttf
759.504	n/a	WORD	379752	wordpools/wasnorm_wordpool.txt	LTP103	ltpFR	5	4	1	MARKET	871	n/a	n/a	0	0.422607421875	0.5869140625	0	lower	amplitud.ttf
763.43	n/a	WORD	381715	wordpools/wasnorm_wordpool.txt	LTP103	ltpFR	5	4	1	CONDUCTOR	362	n/a	n/a	0	0.422607421875	0.5869140625	0	lower	amplitud.ttf
767.346	n/a	WORD	383673	wordpools/wasnorm_wordpool.txt	LTP103	ltpFR	5	4	1	SKYSCRAPER	1322	n/a	n/a	0	0.422607421875	0.5869140625	0	lower	amplitud.ttf
771.246	n/a	WORD	385623	wordpools/wasnorm_wordpool.txt	LTP103	ltpFR	5	4	1	DOVE	491	n/a	n/a	1	0.422607421875	0.5869140625	0	lower	amplitud.ttf
775.22	n/a	WORD	387610	wordpools/wasnorm_wordpool.txt	LTP103	ltpFR	5	4	1	CHAPEL	280	n/a	n/a	0	0.422607421875	0.5869140625	0	lower	amplitud.ttf
779.286	n/a	WORD	389643	wordpools/wasnorm_wordpool.txt	LTP103	ltpFR	5	4	1	MONASTERY	907	n/a	n/a	0	0.422607421875	0.5869140625	0	lower	amplitud.ttf
785.112	n/a	REC_START	392556	n/a	LTP103	ltpFR	5	4	n/a	n/a	n/a	n/a	n/a	n/a	n/a	n/a	n/a	n/a	n/a
786.694	n/a	REC_WORD	393347	wordpools/wasnorm_wordpool.txt	LTP103	ltpFR	5	4	1	MONASTERY	907	n/a	n/a	0	n/a	n/a	n/a	n/a	n/a
789.696	n/a	REC_WORD	394848	wordpools/wasnorm_wordpool.txt	LTP103	ltpFR	5	4	1	MALL	860	n/a	n/a	0	n/a	n/a	n/a	n/a	n/a
790.55	n/a	REC_WORD	395275	wordpools/wasnorm_wordpool.txt	LTP103	ltpFR	5	4	1	SKELETON	1314	n/a	n/a	0	n/a	n/a	n/a	n/a	n/a
791.812	n/a	REC_WORD	395906	wordpools/wasnorm_wordpool.txt	LTP103	ltpFR	5	4	1	BACK	65	n/a	n/a	0	n/a	n/a	n/a	n/a	n/a
812.366	n/a	REC_WORD	406183	wordpools/wasnorm_wordpool.txt	LTP103	ltpFR	5	4	n/a	SUPERMARKET	1409	n/a	n/a	n/a	n/a	n/a	n/a	n/a	n/a
867.934	n/a	WORD	433967	wordpools/wasnorm_wordpool.txt	LTP103	ltpFR	5	5	-1	TELEVISION	1447	n/a	n/a	-1	1.0	1.0	1	upper	Verdana.ttf
872.076	n/a	WORD	436038	wordpools/wasnorm_wordpool.txt	LTP103	ltpFR	5	5	-1	EDITOR	516	n/a	n/a	-1	1.0	1.0	1	upper	Verdana.ttf
876.016	n/a	WORD	438008	wordpools/wasnorm_wordpool.txt	LTP103	ltpFR	5	5	-1	MATTRESS	879	n/a	n/a	-1	1.0	1.0	1	upper	Verdana.ttf
879.892	n/a	WORD	439946	wordpools/wasnorm_wordpool.txt	LTP103	ltpFR	5	5	-1	SERGEANT	1269	n/a	n/a	-1	1.0	1.0	1	upper	Verdana.ttf
883.942	n/a	WORD	441971	wordpools/wasnorm_wordpool.txt	LTP103	ltpFR	5	5	-1	CHIEF	298	n/a	n/a	-1	1.0	1.0	1	upper	Verdana.ttf
887.792	n/a	WORD	443896	wordpools/wasnorm_wordpool.txt	LTP103	ltpFR	5	5	-1	LOBSTER	837	n/a	n/a	-1	1.0	1.0	1	upper	Verdana.ttf
891.816	n/a	WORD	445908	wordpools/wasnorm_wordpool.txt	LTP103	ltpFR	5	5	-1	SHRIMP	1297	n/a	n/a	-1	1.0	1.0	1	upper	Verdana.ttf
895.658	n/a	WORD	447829	wordpools/wasnorm_wordpool.txt	LTP103	ltpFR	5	5	-1	ROOF	1205	n/a	n/a	-1	1.0	1.0	1	upper	Verdana.ttf
899.684	n/a	WORD	449842	wordpools/wasnorm_wordpool.txt	LTP103	ltpFR	5	5	-1	WALL	1582	n/a	n/a	-1	1.0	1.0	1	upper	Verdana.ttf
903.792	n/a	WORD	451896	wordpools/wasnorm_wordpool.txt	LTP103	ltpFR	5	5	-1	DIVER	476	n/a	n/a	-1	1.0	1.0	1	upper	Verdana.ttf
907.724	n/a	WORD	453862	wordpools/wasnorm_wordpool.txt	LTP103	ltpFR	5	5	-1	PASTA	1021	n/a	n/a	-1	1.0	1.0	1	upper	Verdana.ttf
911.574	n/a	WORD	455787	wordpools/wasnorm_wordpool.txt	LTP103	ltpFR	5	5	-1	RING	1193	n/a	n/a	-1	1.0	1.0	1	upper	Verdana.ttf
915.782	n/a	WORD	457891	wordpools/wasnorm_wordpool.txt	LTP103	ltpFR	5	5	-1	CURB	426	n/a	n/a	-1	1.0	1.0	1	upper	Verdana.ttf
919.906	n/a	WORD	459953	wordpools/wasnorm_wordpool.txt	LTP103	ltpFR	5	5	-1	CHAIR	274	n/a	n/a	-1	1.0	1.0	1	upper	Verdana.ttf
924.092	n/a	WORD	462046	wordpools/wasnorm_wordpool.txt	LTP103	ltpFR	5	5	-1	PUBLISHER	1137	n/a	n/a	-1	1.0	1.0	1	upper	Verdana.ttf
928.116	n/a	WORD	464058	wordpools/wasnorm_wordpool.txt	LTP103	ltpFR	5	5	-1	BAY	102	n/a	n/a	-1	1.0	1.0	1	upper	Verdana.ttf
933.874	n/a	REC_START	466937	n/a	LTP103	ltpFR	5	5	n/a	n/a	n/a	n/a	n/a	n/a	n/a	n/a	n/a	n/a	n/a
934.946	n/a	REC_WORD	467473	wordpools/wasnorm_wordpool.txt	LTP103	ltpFR	5	5	-1	BAY	102	n/a	n/a	-1	n/a	n/a	n/a	n/a	n/a
936.892	n/a	REC_WORD	468446	wordpools/wasnorm_wordpool.txt	LTP103	ltpFR	5	5	-1	RING	1193	n/a	n/a	-1	n/a	n/a	n/a	n/a	n/a
946.94	n/a	REC_WORD	473470	wordpools/wasnorm_wordpool.txt	LTP103	ltpFR	5	5	-1	TELEVISION	1447	n/a	n/a	-1	n/a	n/a	n/a	n/a	n/a
1026.338	n/a	WORD	513169	wordpools/wasnorm_wordpool.txt	LTP103	ltpFR	5	6	1	COCOON	339	n/a	n/a	0	0.422607421875	0.5869140625	0	lower	amplitud.ttf
1030.456	n/a	WORD	515228	wordpools/wasnorm_wordpool.txt	LTP103	ltpFR	5	6	1	GUITAR	670	n/a	n/a	0	0.422607421875	0.5869140625	0	lower	amplitud.ttf
1034.38	n/a	WORD	517190	wordpools/wasnorm_wordpool.txt	LTP103	ltpFR	5	6	1	PARENT	1013	n/a	n/a	0	0.422607421875	0.5869140625	0	lower	amplitud.ttf
1038.454	n/a	WORD	519227	wordpools/wasnorm_wordpool.txt	LTP103	ltpFR	5	6	1	REFEREE	1178	n/a	n/a	1	0.422607421875	0.5869140625	0	lower	amplitud.ttf
1042.598	n/a	WORD	521299	wordpools/wasnorm_wordpool.txt	LTP103	ltpFR	5	6	1	VOLLEYBALL	1576	n/a	n/a	0	0.422607421875	0.5869140625	0	lower	amplitud.ttf
1046.522	n/a	WORD	523261	wordpools/wasnorm_wordpool.txt	LTP103	ltpFR	5	6	1	COUSIN	392	n/a	n/a	0	0.422607421875	0.5869140625	0	lower	amplitud.ttf
1050.514	n/a	WORD	525257	wordpools/wasnorm_wordpool.txt	LTP103	ltpFR	5	6	1	DOCTOR	478	n/a	n/a	0	0.422607421875	0.5869140625	0	lower	amplitud.ttf
1054.346	n/a	WORD	527173	wordpools/wasnorm_wordpool.txt	LTP103	ltpFR	5	6	1	PLUTO	1092	n/a	n/a	0	0.422607421875	0.5869140625	0	lower	amplitud.ttf
1058.212	n/a	WORD	529106	wordpools/wasnorm_wordpool.txt	LTP103	ltpFR	5	6	1	THORN	1459	n/a	n/a	0	0.422607421875	0.5869140625	0	lower	amplitud.ttf
1062.238	n/a	WORD	531119	wordpools/wasnorm_wordpool.txt	LTP103	ltpFR	5	6	1	HOSPITAL	721	n/a	n/a	0	0.422607421875	0.5869140625	0	lower	amplitud.ttf
1066.18	n/a	WORD	533090	wordpools/wasnorm_wordpool.txt	LTP103	ltpFR	5	6	1	BUS	201	n/a	n/a	0	0.422607421875	0.5869140625	0	lower	amplitud.ttf
1070.154	n/a	WORD	535077	wordpools/wasnorm_wordpool.txt	LTP103	ltpFR	5	6	1	PASSENGER	1020	n/a	n/a	0	0.422607421875	0.5869140625	0	lower	amplitud.ttf
1074.346	n/a	WORD	537173	wordpools/wasnorm_wordpool.txt	LTP103	ltpFR	5	6	1	COOK	372	n/a	n/a	0	0.422607421875	0.5869140625	0	lower	amplitud.ttf
1078.262	n/a	WORD	539131	wordpools/wasnorm_wordpool.txt	LTP103	ltpFR	5	6	1	WASHER	1592	n/a	n/a	0	0.422607421875	0.5869140625	0	lower	amplitud.ttf
1082.086	n/a	WORD	541043	wordpools/wasnorm_wordpool.txt	LTP103	ltpFR	5	6	1	TUBA	1515	n/a	n/a	0	0.422607421875	0.5869140625	0	lower	amplitud.ttf
1086.12	n/a	WORD	543060	wordpools/wasnorm_wordpool.txt	LTP103	ltpFR	5	6	1	CHISEL	305	n/a	n/a	0	0.422607421875	0.5869140625	0	lower	amplitud.ttf
1092.036	n/a	REC_START	546018	n/a	LTP103	ltpFR	5	6	n/a	n/a	n/a	n/a	n/a	n/a	n/a	n/a	n/a	n/a	n/a
1092.32	n/a	REC_WORD	546160	wordpools/wasnorm_wordpool.txt	LTP103	ltpFR	5	6	1	CHISEL	305	n/a	n/a	0	n/a	n/a	n/a	n/a	n/a
1093.138	n/a	REC_WORD	546569	wordpools/wasnorm_wordpool.txt	LTP103	ltpFR	5	6	1	PASSENGER	1020	n/a	n/a	0	n/a	n/a	n/a	n/a	n/a
1094.396	n/a	REC_WORD	547198	wordpools/wasnorm_wordpool.txt	LTP103	ltpFR	5	6	1	COOK	372	n/a	n/a	0	n/a	n/a	n/a	n/a	n/a
1098.476	n/a	REC_WORD_VV	549238	wordpools/wasnorm_wordpool.txt	LTP103	ltpFR	5	6	n/a	<>	-1	n/a	n/a	n/a	n/a	n/a	n/a	n/a	n/a
1102.998	n/a	REC_WORD	551499	wordpools/wasnorm_wordpool.txt	LTP103	ltpFR	5	6	1	REFEREE	1178	n/a	n/a	1	n/a	n/a	n/a	n/a	n/a
1104.694	n/a	REC_WORD	552347	wordpools/wasnorm_wordpool.txt	LTP103	ltpFR	5	6	n/a	MOTHER	921	n/a	n/a	n/a	n/a	n/a	n/a	n/a	n/a
1170.452	n/a	WORD	585226	wordpools/wasnorm_wordpool.txt	LTP103	ltpFR	5	7	1	ALLEY	15	n/a	n/a	0	0.422607421875	0.5869140625	0	lower	amplitud.ttf
1174.61	n/a	WORD	587305	wordpools/wasnorm_wordpool.txt	LTP103	ltpFR	5	7	1	COMMANDER	354	n/a	n/a	0	0.422607421875	0.5869140625	0	lower	amplitud.ttf
1178.452	n/a	WORD	589226	wordpools/wasnorm_wordpool.txt	LTP103	ltpFR	5	7	1	DRIVER	499	n/a	n/a	0	0.422607421875	0.5869140625	0	lower	amplitud.ttf
1182.284	n/a	WORD	591142	wordpools/wasnorm_wordpool.txt	LTP103	ltpFR	5	7	0	TRAIN	1494	n/a	n/a	1	0.57763671875	0.412841796875	1	upper	zerothre.ttf
1186.268	n/a	WORD	593134	wordpools/wasnorm_wordpool.txt	LTP103	ltpFR	5	7	0	GEM	629	n/a	n/a	0	0.57763671875	0.412841796875	1	upper	zerothre.ttf
1190.202	n/a	WORD	595101	wordpools/wasnorm_wordpool.txt	LTP103	ltpFR	5	7	0	APPLE	33	n/a	n/a	0	0.57763671875	0.412841796875	1	upper	zerothre.ttf
1194.118	n/a	WORD	597059	wordpools/wasnorm_wordpool.txt	LTP103	ltpFR	5	7	0	RUST	1219	n/a	n/a	0	0.57763671875	0.412841796875	1	upper	zerothre.ttf
1198.092	n/a	WORD	599046	wordpools/wasnorm_wordpool.txt	LTP103	ltpFR	5	7	0	BUGGY	188	n/a	n/a	0	0.57763671875	0.412841796875	1	upper	zerothre.ttf
1202.292	n/a	WORD	601146	wordpools/wasnorm_wordpool.txt	LTP103	ltpFR	5	7	0	MERMAID	887	n/a	n/a	0	0.57763671875	0.412841796875	1	upper	zerothre.ttf
1206.292	n/a	WORD	603146	wordpools/wasnorm_wordpool.txt	LTP103	ltpFR	5	7	1	BAIT	70	n/a	n/a	1	0.422607421875	0.5869140625	0	lower	amplitud.ttf
1210.234	n/a	WORD	605117	wordpools/wasnorm_wordpool.txt	LTP103	ltpFR	5	7	1	POCKET	1093	n/a	n/a	0	0.422607421875	0.5869140625	0	lower	amplitud.ttf
1214.168	n/a	WORD	607084	wordpools/wasnorm_wordpool.txt	LTP103	ltpFR	5	7	1	JEANS	752	n/a	n/a	0	0.422607421875	0.5869140625	0	lower	amplitud.ttf
1218.292	n/a	WORD	609146	wordpools/wasnorm_wordpool.txt	LTP103	ltpFR	5	7	1	PRESIDENT	1121	n/a	n/a	0	0.422607421875	0.5869140625	0	lower	amplitud.ttf
1222.342	n/a	WORD	611171	wordpools/wasnorm_wordpool.txt	LTP103	ltpFR	5	7	1	PANTHER	1009	n/a	n/a	0	0.422607421875	0.5869140625	0	lower	amplitud.ttf
1226.192	n/a	WORD	613096	wordpools/wasnorm_wordpool.txt	LTP103	ltpFR	5	7	0	PORPOISE	1109	n/a	n/a	1	0.57763671875	0.412841796875	1	upper	zerothre.ttf
1230.108	n/a	WORD	615054	wordpools/wasnorm_wordpool.txt	LTP103	ltpFR	5	7	0	WHEEL	1603	n/a	n/a	0	0.57763671875	0.412841796875	1	upper	zerothre.ttf
1235.7	n/a	REC_START	617850	n/a	LTP103	ltpFR	5	7	n/a	n/a	n/a	n/a	n/a	n/a	n/a	n/a	n/a	n/a	n/a
1236.504	n/a	REC_WORD	618252	wordpools/wasnorm_wordpool.txt	LTP103	ltpFR	5	7	0	WHEEL	1603	n/a	n/a	0	n/a	n/a	n/a	n/a	n/a
1237.78	n/a	REC_WORD	618890	wordpools/wasnorm_wordpool.txt	LTP103	ltpFR	5	7	0	MERMAID	887	n/a	n/a	0	n/a	n/a	n/a	n/a	n/a
1241.258	n/a	REC_WORD	620629	wordpools/wasnorm_wordpool.txt	LTP103	ltpFR	5	7	1	JEANS	752	n/a	n/a	0	n/a	n/a	n/a	n/a	n/a
1242.774	n/a	REC_WORD	621387	wordpools/wasnorm_wordpool.txt	LTP103	ltpFR	5	7	1	POCKET	1093	n/a	n/a	0	n/a	n/a	n/a	n/a	n/a
1320.39	n/a	WORD	660195	wordpools/wasnorm_wordpool.txt	LTP103	ltpFR	5	8	0	BATTERY	101	n/a	n/a	1	0.57763671875	0.412841796875	1	upper	zerothre.ttf
1324.574	n/a	WORD	662287	wordpools/wasnorm_wordpool.txt	LTP103	ltpFR	5	8	0	ALMANAC	17	n/a	n/a	0	0.57763671875	0.412841796875	1	upper	zerothre.ttf
1328.422	n/a	WORD	664211	wordpools/wasnorm_wordpool.txt	LTP103	ltpFR	5	8	0	SLIDE	1326	n/a	n/a	0	0.57763671875	0.412841796875	1	upper	zerothre.ttf
1332.406	n/a	WORD	666203	wordpools/wasnorm_wordpool.txt	LTP103	ltpFR	5	8	0	WORM	1623	n/a	n/a	0	0.57763671875	0.412841796875	1	upper	zerothre.ttf
1336.588	n/a	WORD	668294	wordpools/wasnorm_wordpool.txt	LTP103	ltpFR	5	8	0	BRAKE	166	n/a	n/a	0	0.57763671875	0.412841796875	1	upper	zerothre.ttf
1340.53	n/a	WORD	670265	wordpools/wasnorm_wordpool.txt	LTP103	ltpFR	5	8	0	LAWYER	806	n/a	n/a	0	0.57763671875	0.412841796875	1	upper	zerothre.ttf
1344.614	n/a	WORD	672307	wordpools/wasnorm_wordpool.txt	LTP103	ltpFR	5	8	0	LEOPARD	812	n/a	n/a	0	0.57763671875	0.412841796875	1	upper	zerothre.ttf
1348.772	n/a	WORD	674386	wordpools/wasnorm_wordpool.txt	LTP103	ltpFR	5	8	0	LOAF	835	n/a	n/a	0	0.57763671875	0.412841796875	1	upper	zerothre.ttf
1352.614	n/a	WORD	676307	wordpools/wasnorm_wordpool.txt	LTP103	ltpFR	5	8	0	BISCUIT	130	n/a	n/a	0	0.57763671875	0.412841796875	1	upper	zerothre.ttf
1356.538	n/a	WORD	678269	wordpools/wasnorm_wordpool.txt	LTP103	ltpFR	5	8	0	HURRICANE	727	n/a	n/a	1	0.57763671875	0.412841796875	1	upper	zerothre.ttf
1360.604	n/a	WORD	680302	wordpools/wasnorm_wordpool.txt	LTP103	ltpFR	5	8	0	SWIMMER	1420	n/a	n/a	0	0.57763671875	0.412841796875	1	upper	zerothre.ttf
1364.68	n/a	WORD	682340	wordpools/wasnorm_wordpool.txt	LTP103	ltpFR	5	8	0	ATTORNEY	58	n/a	n/a	1	0.57763671875	0.412841796875	1	upper	zerothre.ttf
1368.63	n/a	WORD	684315	wordpools/wasnorm_wordpool.txt	LTP103	ltpFR	5	8	0	TUSK	1523	n/a	n/a	0	0.57763671875	0.412841796875	1	upper	zerothre.ttf
1372.472	n/a	WORD	686236	wordpools/wasnorm_wordpool.txt	LTP103	ltpFR	5	8	0	COD	340	n/a	n/a	1	0.57763671875	0.412841796875	1	upper	zerothre.ttf
1376.612	n/a	WORD	688306	wordpools/wasnorm_wordpool.txt	LTP103	ltpFR	5	8	0	SEA	1259	n/a	n/a	1	0.57763671875	0.412841796875	1	upper	zerothre.ttf
1380.77	n/a	WORD	690385	wordpools/wasnorm_wordpool.txt	LTP103	ltpFR	5	8	0	COFFEE	341	n/a	n/a	0	0.57763671875	0.412841796875	1	upper	zerothre.ttf
1386.738	n/a	REC_START	693369	n/a	LTP103	ltpFR	5	8	n/a	n/a	n/a	n/a	n/a	n/a	n/a	n/a	n/a	n/a	n/a
1387.07	n/a	REC_WORD	693535	wordpools/wasnorm_wordpool.txt	LTP103	ltpFR	5	8	0	SEA	1259	n/a	n/a	1	n/a	n/a	n/a	n/a	n/a
1387.916	n/a	REC_WORD	693958	wordpools/wasnorm_wordpool.txt	LTP103	ltpFR	5	8	0	ALMANAC	17	n/a	n/a	0	n/a	n/a	n/a	n/a	n/a
1392.754	n/a	REC_WORD	696377	wordpools/wasnorm_wordpool.txt	LTP103	ltpFR	5	8	0	ATTORNEY	58	n/a	n/a	1	n/a	n/a	n/a	n/a	n/a
1393.368	n/a	REC_WORD	696684	wordpools/wasnorm_wordpool.txt	LTP103	ltpFR	5	8	0	LAWYER	806	n/a	n/a	0	n/a	n/a	n/a	n/a	n/a
1482.526	n/a	WORD	741263	wordpools/wasnorm_wordpool.txt	LTP103	ltpFR	5	9	0	RUNNER	1218	n/a	n/a	1	0.57763671875	0.412841796875	1	upper	zerothre.ttf
1486.66	n/a	WORD	743330	wordpools/wasnorm_wordpool.txt	LTP103	ltpFR	5	9	0	TOTE	1487	n/a	n/a	0	0.57763671875	0.412841796875	1	upper	zerothre.ttf
1490.568	n/a	WORD	745284	wordpools/wasnorm_wordpool.txt	LTP103	ltpFR	5	9	1	STONE	1385	n/a	n/a	0	0.422607421875	0.5869140625	0	lower	amplitud.ttf
1494.544	n/a	WORD	747272	wordpools/wasnorm_wordpool.txt	LTP103	ltpFR	5	9	1	TREE	1502	n/a	n/a	1	0.422607421875	0.5869140625	0	lower	amplitud.ttf
1498.494	n/a	WORD	749247	wordpools/wasnorm_wordpool.txt	LTP103	ltpFR	5	9	1	BREAST	171	n/a	n/a	1	0.422607421875	0.5869140625	0	lower	amplitud.ttf
1502.592	n/a	WORD	751296	wordpools/wasnorm_wordpool.txt	LTP103	ltpFR	5	9	0	PELICAN	1039	n/a	n/a	0	0.57763671875	0.412841796875	1	upper	zerothre.ttf
1506.75	n/a	WORD	753375	wordpools/wasnorm_wordpool.txt	LTP103	ltpFR	5	9	0	BIRD	129	n/a	n/a	0	0.57763671875	0.412841796875	1	upper	zerothre.ttf
1510.618	n/a	WORD	755309	wordpools/wasnorm_wordpool.txt	LTP103	ltpFR	5	9	0	VITAMIN	1574	n/a	n/a	0	0.57763671875	0.412841796875	1	upper	zerothre.ttf
1514.692	n/a	WORD	757346	wordpools/wasnorm_wordpool.txt	LTP103	ltpFR	5	9	1	DOUGHNUT	490	n/a	n/a	0	0.422607421875	0.5869140625	0	lower	amplitud.ttf
1518.7	n/a	WORD	759350	wordpools/wasnorm_wordpool.txt	LTP103	ltpFR	5	9	1	ACORN	3	n/a	n/a	1	0.422607421875	0.5869140625	0	lower	amplitud.ttf
1522.6	n/a	WORD	761300	wordpools/wasnorm_wordpool.txt	LTP103	ltpFR	5	9	1	KIDNEY	776	n/a	n/a	0	0.422607421875	0.5869140625	0	lower	amplitud.ttf
1526.626	n/a	WORD	763313	wordpools/wasnorm_wordpool.txt	LTP103	ltpFR	5	9	1	BED	110	n/a	n/a	1	0.422607421875	0.5869140625	0	lower	amplitud.ttf
1530.734	n/a	WORD	765367	wordpools/wasnorm_wordpool.txt	LTP103	ltpFR	5	9	1	LODGE	839	n/a	n/a	0	0.422607421875	0.5869140625	0	lower	amplitud.ttf
1534.766	n/a	WORD	767383	wordpools/wasnorm_wordpool.txt	LTP103	ltpFR	5	9	0	ORANGE	980	n/a	n/a	0	0.57763671875	0.412841796875	1	upper	zerothre.ttf
1538.684	n/a	WORD	769342	wordpools/wasnorm_wordpool.txt	LTP103	ltpFR	5	9	0	PRINCESS	1125	n/a	n/a	1	0.57763671875	0.412841796875	1	upper	zerothre.ttf
1542.774	n/a	WORD	771387	wordpools/wasnorm_wordpool.txt	LTP103	ltpFR	5	9	0	BRIDE	173	n/a	n/a	0	0.57763671875	0.412841796875	1	upper	zerothre.ttf
1548.784	n/a	REC_START	774392	n/a	LTP103	ltpFR	5	9	n/a	n/a	n/a	n/a	n/a	n/a	n/a	n/a	n/a	n/a	n/a
1549.058	n/a	REC_WORD	774529	wordpools/wasnorm_wordpool.txt	LTP103	ltpFR	5	9	0	BRIDE	173	n/a	n/a	0	n/a	n/a	n/a	n/a	n/a
1549.776	n/a	REC_WORD	774888	wordpools/wasnorm_wordpool.txt	LTP103	ltpFR	5	9	0	PRINCESS	1125	n/a	n/a	1	n/a	n/a	n/a	n/a	n/a
1556.89	n/a	REC_WORD	778445	wordpools/wasnorm_wordpool.txt	LTP103	ltpFR	5	9	1	STONE	1385	n/a	n/a	0	n/a	n/a	n/a	n/a	n/a
1645.948	n/a	WORD	822974	wordpools/wasnorm_wordpool.txt	LTP103	ltpFR	5	10	-1	CIGARETTE	309	n/a	n/a	-1	1.0	1.0	1	upper	Verdana.ttf
1649.896	n/a	WORD	824948	wordpools/wasnorm_wordpool.txt	LTP103	ltpFR	5	10	-1	LAVA	804	n/a	n/a	-1	1.0	1.0	1	upper	Verdana.ttf
1653.922	n/a	WORD	826961	wordpools/wasnorm_wordpool.txt	LTP103	ltpFR	5	10	-1	LUMBER	848	n/a	n/a	-1	1.0	1.0	1	upper	Verdana.ttf
1657.88	n/a	WORD	828940	wordpools/wasnorm_wordpool.txt	LTP103	ltpFR	5	10	-1	CARPENTER	246	n/a	n/a	-1	1.0	1.0	1	upper	Verdana.ttf
1662.088	n/a	WORD	831044	wordpools/wasnorm_wordpool.txt	LTP103	ltpFR	5	10	-1	PENDULUM	1043	n/a	n/a	-1	1.0	1.0	1	upper	Verdana.ttf
1666.156	n/a	WORD	833078	wordpools/wasnorm_wordpool.txt	LTP103	ltpFR	5	10	-1	KID	775	n/a	n/a	-1	1.0	1.0	1	upper	Verdana.ttf
1670.364	n/a	WORD	835182	wordpools/wasnorm_wordpool.txt	LTP103	ltpFR	5	10	-1	NICOTINE	951	n/a	n/a	-1	1.0	1.0	1	upper	Verdana.ttf
1674.564	n/a	WORD	837282	wordpools/wasnorm_wordpool.txt	LTP103	ltpFR	5	10	-1	SHED	1277	n/a	n/a	-1	1.0	1.0	1	upper	Verdana.ttf
1678.714	n/a	WORD	839357	wordpools/wasnorm_wordpool.txt	LTP103	ltpFR	5	10	-1	WART	1590	n/a	n/a	-1	1.0	1.0	1	upper	Verdana.ttf
1682.564	n/a	WORD	841282	wordpools/wasnorm_wordpool.txt	LTP103	ltpFR	5	10	-1	WINDSHIELD	1612	n/a	n/a	-1	1.0	1.0	1	upper	Verdana.ttf
1686.438	n/a	WORD	843219	wordpools/wasnorm_wordpool.txt	LTP103	ltpFR	5	10	-1	LIMOUSINE	824	n/a	n/a	-1	1.0	1.0	1	upper	Verdana.ttf
1690.28	n/a	WORD	845140	wordpools/wasnorm_wordpool.txt	LTP103	ltpFR	5	10	-1	ALBUM	14	n/a	n/a	-1	1.0	1.0	1	upper	Verdana.ttf
1694.354	n/a	WORD	847177	wordpools/wasnorm_wordpool.txt	LTP103	ltpFR	5	10	-1	RAKE	1164	n/a	n/a	-1	1.0	1.0	1	upper	Verdana.ttf
1698.438	n/a	WORD	849219	wordpools/wasnorm_wordpool.txt	LTP103	ltpFR	5	10	-1	CRATER	400	n/a	n/a	-1	1.0	1.0	1	upper	Verdana.ttf
1702.312	n/a	WORD	851156	wordpools/wasnorm_wordpool.txt	LTP103	ltpFR	5	10	-1	UNIVERSE	1540	n/a	n/a	-1	1.0	1.0	1	upper	Verdana.ttf
1706.364	n/a	WORD	853182	wordpools/wasnorm_wordpool.txt	LTP103	ltpFR	5	10	-1	CHART	282	n/a	n/a	-1	1.0	1.0	1	upper	Verdana.ttf
1712.288	n/a	REC_START	856144	n/a	LTP103	ltpFR	5	10	n/a	n/a	n/a	n/a	n/a	n/a	n/a	n/a	n/a	n/a	n/a
1713.35	n/a	REC_WORD	856675	wordpools/wasnorm_wordpool.txt	LTP103	ltpFR	5	10	-1	CHART	282	n/a	n/a	-1	n/a	n/a	n/a	n/a	n/a
1714.05	n/a	REC_WORD	857025	wordpools/wasnorm_wordpool.txt	LTP103	ltpFR	5	10	n/a	VOLCANO	1575	n/a	n/a	n/a	n/a	n/a	n/a	n/a	n/a
1715.59	n/a	REC_WORD	857795	wordpools/wasnorm_wordpool.txt	LTP103	ltpFR	5	10	-1	LAVA	804	n/a	n/a	-1	n/a	n/a	n/a	n/a	n/a
1716.912	n/a	REC_WORD	858456	wordpools/wasnorm_wordpool.txt	LTP103	ltpFR	5	10	-1	CIGARETTE	309	n/a	n/a	-1	n/a	n/a	n/a	n/a	n/a
1718.53	n/a	REC_WORD	859265	wordpools/wasnorm_wordpool.txt	LTP103	ltpFR	5	10	-1	NICOTINE	951	n/a	n/a	-1	n/a	n/a	n/a	n/a	n/a
1790.752	n/a	WORD	895376	wordpools/wasnorm_wordpool.txt	LTP103	ltpFR	5	11	-1	JEEP	753	n/a	n/a	-1	1.0	1.0	1	upper	Verdana.ttf
1794.66	n/a	WORD	897330	wordpools/wasnorm_wordpool.txt	LTP103	ltpFR	5	11	-1	ISLAND	745	n/a	n/a	-1	1.0	1.0	1	upper	Verdana.ttf
1798.56	n/a	WORD	899280	wordpools/wasnorm_wordpool.txt	LTP103	ltpFR	5	11	-1	ROCKET	1202	n/a	n/a	-1	1.0	1.0	1	upper	Verdana.ttf
1802.718	n/a	WORD	901359	wordpools/wasnorm_wordpool.txt	LTP103	ltpFR	5	11	-1	OZONE	996	n/a	n/a	-1	1.0	1.0	1	upper	Verdana.ttf
1806.586	n/a	WORD	903293	wordpools/wasnorm_wordpool.txt	LTP103	ltpFR	5	11	-1	TROUT	1511	n/a	n/a	-1	1.0	1.0	1	upper	Verdana.ttf
1810.66	n/a	WORD	905330	wordpools/wasnorm_wordpool.txt	LTP103	ltpFR	5	11	-1	DENIM	446	n/a	n/a	-1	1.0	1.0	1	upper	Verdana.ttf
1814.86	n/a	WORD	907430	wordpools/wasnorm_wordpool.txt	LTP103	ltpFR	5	11	-1	SHACK	1273	n/a	n/a	-1	1.0	1.0	1	upper	Verdana.ttf
1819.008	n/a	WORD	909504	wordpools/wasnorm_wordpool.txt	LTP103	ltpFR	5	11	-1	SUBURB	1399	n/a	n/a	-1	1.0	1.0	1	upper	Verdana.ttf
1822.876	n/a	WORD	911438	wordpools/wasnorm_wordpool.txt	LTP103	ltpFR	5	11	-1	LAPEL	800	n/a	n/a	-1	1.0	1.0	1	upper	Verdana.ttf
1826.976	n/a	WORD	913488	wordpools/wasnorm_wordpool.txt	LTP103	ltpFR	5	11	-1	HOSE	720	n/a	n/a	-1	1.0	1.0	1	upper	Verdana.ttf
1831.134	n/a	WORD	915567	wordpools/wasnorm_wordpool.txt	LTP103	ltpFR	5	11	-1	ENGINE	535	n/a	n/a	-1	1.0	1.0	1	upper	Verdana.ttf
1835.194	n/a	WORD	917597	wordpools/wasnorm_wordpool.txt	LTP103	ltpFR	5	11	-1	PADDLE	1000	n/a	n/a	-1	1.0	1.0	1	upper	Verdana.ttf
1839.202	n/a	WORD	919601	wordpools/wasnorm_wordpool.txt	LTP103	ltpFR	5	11	-1	GIRL	637	n/a	n/a	-1	1.0	1.0	1	upper	Verdana.ttf
1843.35	n/a	WORD	921675	wordpools/wasnorm_wordpool.txt	LTP103	ltpFR	5	11	-1	VASE	1549	n/a	n/a	-1	1.0	1.0	1	upper	Verdana.ttf
1847.302	n/a	WORD	923651	wordpools/wasnorm_wordpool.txt	LTP103	ltpFR	5	11	-1	TULIP	1517	n/a	n/a	-1	1.0	1.0	1	upper	Verdana.ttf
1851.26	n/a	WORD	925630	wordpools/wasnorm_wordpool.txt	LTP103	ltpFR	5	11	-1	ROOMMATE	1207	n/a	n/a	-1	1.0	1.0	1	upper	Verdana.ttf
1857.152	n/a	REC_START	928576	n/a	LTP103	ltpFR	5	11	n/a	n/a	n/a	n/a	n/a	n/a	n/a	n/a	n/a	n/a	n/a
1858.11	n/a	REC_WORD	929055	wordpools/wasnorm_wordpool.txt	LTP103	ltpFR	5	11	-1	TULIP	1517	n/a	n/a	-1	n/a	n/a	n/a	n/a	n/a
1859.422	n/a	REC_WORD	929711	wordpools/wasnorm_wordpool.txt	LTP103	ltpFR	5	11	-1	ROOMMATE	1207	n/a	n/a	-1	n/a	n/a	n/a	n/a	n/a
1862.704	n/a	REC_WORD	931352	wordpools/wasnorm_wordpool.txt	LTP103	ltpFR	5	11	n/a	CABIN	211	n/a	n/a	n/a	n/a	n/a	n/a	n/a	n/a
1960.282	n/a	WORD	980141	wordpools/wasnorm_wordpool.txt	LTP103	ltpFR	5	12	-1	VET	1560	n/a	n/a	-1	1.0	1.0	1	upper	Verdana.ttf
1964.156	n/a	WORD	982078	wordpools/wasnorm_wordpool.txt	LTP103	ltpFR	5	12	-1	VEST	1559	n/a	n/a	-1	1.0	1.0	1	upper	Verdana.ttf
1968.174	n/a	WORD	984087	wordpools/wasnorm_wordpool.txt	LTP103	ltpFR	5	12	-1	SKIN	1318	n/a	n/a	-1	1.0	1.0	1	upper	Verdana.ttf
1972.19	n/a	WORD	986095	wordpools/wasnorm_wordpool.txt	LTP103	ltpFR	5	12	-1	CHIP	303	n/a	n/a	-1	1.0	1.0	1	upper	Verdana.ttf
1976.08	n/a	WORD	988040	wordpools/wasnorm_wordpool.txt	LTP103	ltpFR	5	12	-1	LOFT	840	n/a	n/a	-1	1.0	1.0	1	upper	Verdana.ttf
1979.98	n/a	WORD	989990	wordpools/wasnorm_wordpool.txt	LTP103	ltpFR	5	12	-1	GRAPE	654	n/a	n/a	-1	1.0	1.0	1	upper	Verdana.ttf
1984.03	n/a	WORD	992015	wordpools/wasnorm_wordpool.txt	LTP103	ltpFR	5	12	-1	RIBBON	1189	n/a	n/a	-1	1.0	1.0	1	upper	Verdana.ttf
1988.156	n/a	WORD	994078	wordpools/wasnorm_wordpool.txt	LTP103	ltpFR	5	12	-1	TWINE	1529	n/a	n/a	-1	1.0	1.0	1	upper	Verdana.ttf
1992.022	n/a	WORD	996011	wordpools/wasnorm_wordpool.txt	LTP103	ltpFR	5	12	-1	DIAPER	459	n/a	n/a	-1	1.0	1.0	1	upper	Verdana.ttf
1995.872	n/a	WORD	997936	wordpools/wasnorm_wordpool.txt	LTP103	ltpFR	5	12	-1	SOCKET	1340	n/a	n/a	-1	1.0	1.0	1	upper	Verdana.ttf
1999.838	n/a	WORD	999919	wordpools/wasnorm_wordpool.txt	LTP103	ltpFR	5	12	-1	DESK	452	n/a	n/a	-1	1.0	1.0	1	upper	Verdana.ttf
2003.904	n/a	WORD	1001952	wordpools/wasnorm_wordpool.txt	LTP103	ltpFR	5	12	-1	PICTURE	1061	n/a	n/a	-1	1.0	1.0	1	upper	Verdana.ttf
2007.722	n/a	WORD	1003861	wordpools/wasnorm_wordpool.txt	LTP103	ltpFR	5	12	-1	DRAWING	494	n/a	n/a	-1	1.0	1.0	1	upper	Verdana.ttf
2011.738	n/a	WORD	1005869	wordpools/wasnorm_wordpool.txt	LTP103	ltpFR	5	12	-1	TABLE	1426	n/a	n/a	-1	1.0	1.0	1	upper	Verdana.ttf
2015.87	n/a	WORD	1007935	wordpools/wasnorm_wordpool.txt	LTP103	ltpFR	5	12	-1	CROW	414	n/a	n/a	-1	1.0	1.0	1	upper	Verdana.ttf
2019.87	n/a	WORD	1009935	wordpools/wasnorm_wordpool.txt	LTP103	ltpFR	5	12	-1	APARTMENT	30	n/a	n/a	-1	1.0	1.0	1	upper	Verdana.ttf
2025.504	n/a	REC_START	1012752	n/a	LTP103	ltpFR	5	12	n/a	n/a	n/a	n/a	n/a	n/a	n/a	n/a	n/a	n/a	n/a
2026.626	n/a	REC_WORD	1013313	wordpools/wasnorm_wordpool.txt	LTP103	ltpFR	5	12	-1	APARTMENT	30	n/a	n/a	-1	n/a	n/a	n/a	n/a	n/a
2028.742	n/a	REC_WORD	1014371	wordpools/wasnorm_wordpool.txt	LTP103	ltpFR	5	12	-1	VEST	1559	n/a	n/a	-1	n/a	n/a	n/a	n/a	n/a
2029.61	n/a	REC_WORD	1014805	wordpools/wasnorm_wordpool.txt	LTP103	ltpFR	5	12	-1	VET	1560	n/a	n/a	-1	n/a	n/a	n/a	n/a	n/a
2031.452	n/a	REC_WORD	1015726	wordpools/wasnorm_wordpool.txt	LTP103	ltpFR	5	12	-1	SKIN	1318	n/a	n/a	-1	n/a	n/a	n/a	n/a	n/a
2101.12	n/a	REST_REWET	1050560	n/a	LTP103	ltpFR	5	12	n/a	n/a	n/a	n/a	n/a	n/a	n/a	n/a	n/a	n/a	n/a
2348.738	n/a	WORD	1174369	wordpools/wasnorm_wordpool.txt	LTP103	ltpFR	5	13	1	SHEET	1279	n/a	n/a	0	0.422607421875	0.5869140625	0	lower	amplitud.ttf
2352.646	n/a	WORD	1176323	wordpools/wasnorm_wordpool.txt	LTP103	ltpFR	5	13	1	CUSHION	428	n/a	n/a	0	0.422607421875	0.5869140625	0	lower	amplitud.ttf
2356.696	n/a	WORD	1178348	wordpools/wasnorm_wordpool.txt	LTP103	ltpFR	5	13	1	FUGITIVE	612	n/a	n/a	0	0.422607421875	0.5869140625	0	lower	amplitud.ttf
2360.746	n/a	WORD	1180373	wordpools/wasnorm_wordpool.txt	LTP103	ltpFR	5	13	0	RICE	1190	n/a	n/a	1	0.57763671875	0.412841796875	1	upper	zerothre.ttf
2364.604	n/a	WORD	1182302	wordpools/wasnorm_wordpool.txt	LTP103	ltpFR	5	13	0	HEAD	695	n/a	n/a	0	0.57763671875	0.412841796875	1	upper	zerothre.ttf
2368.504	n/a	WORD	1184252	wordpools/wasnorm_wordpool.txt	LTP103	ltpFR	5	13	1	FUDGE	611	n/a	n/a	1	0.422607421875	0.5869140625	0	lower	amplitud.ttf
2372.688	n/a	WORD	1186344	wordpools/wasnorm_wordpool.txt	LTP103	ltpFR	5	13	1	ICING	732	n/a	n/a	1	0.422607421875	0.5869140625	0	lower	amplitud.ttf
2376.844	n/a	WORD	1188422	wordpools/wasnorm_wordpool.txt	LTP103	ltpFR	5	13	0	NEUTRON	947	n/a	n/a	0	0.57763671875	0.412841796875	1	upper	zerothre.ttf
2380.778	n/a	WORD	1190389	wordpools/wasnorm_wordpool.txt	LTP103	ltpFR	5	13	0	EMPLOYER	532	n/a	n/a	0	0.57763671875	0.412841796875	1	upper	zerothre.ttf
2384.87	n/a	WORD	1192435	wordpools/wasnorm_wordpool.txt	LTP103	ltpFR	5	13	0	EMPLOYEE	531	n/a	n/a	1	0.57763671875	0.412841796875	1	upper	zerothre.ttf
2388.852	n/a	WORD	1194426	wordpools/wasnorm_wordpool.txt	LTP103	ltpFR	5	13	0	DUNGEON	507	n/a	n/a	0	0.57763671875	0.412841796875	1	upper	zerothre.ttf
2393.044	n/a	WORD	1196522	wordpools/wasnorm_wordpool.txt	LTP103	ltpFR	5	13	0	BURGLAR	200	n/a	n/a	0	0.57763671875	0.412841796875	1	upper	zerothre.ttf
2397.146	n/a	WORD	1198573	wordpools/wasnorm_wordpool.txt	LTP103	ltpFR	5	13	0	PRIMATE	1123	n/a	n/a	0	0.57763671875	0.412841796875	1	upper	zerothre.ttf
2401.194	n/a	WORD	1200597	wordpools/wasnorm_wordpool.txt	LTP103	ltpFR	5	13	1	CLAMP	316	n/a	n/a	0	0.422607421875	0.5869140625	0	lower	amplitud.ttf
2405.128	n/a	WORD	1202564	wordpools/wasnorm_wordpool.txt	LTP103	ltpFR	5	13	1	FEAST	556	n/a	n/a	0	0.422607421875	0.5869140625	0	lower	amplitud.ttf
2409.328	n/a	WORD	1204664	wordpools/wasnorm_wordpool.txt	LTP103	ltpFR	5	13	1	SALOON	1228	n/a	n/a	1	0.422607421875	0.5869140625	0	lower	amplitud.ttf
2415.446	n/a	REC_START	1207723	n/a	LTP103	ltpFR	5	13	n/a	n/a	n/a	n/a	n/a	n/a	n/a	n/a	n/a	n/a	n/a
2415.814	n/a	REC_WORD	1207907	wordpools/wasnorm_wordpool.txt	LTP103	ltpFR	5	13	1	FEAST	556	n/a	n/a	0	n/a	n/a	n/a	n/a	n/a
2416.4	n/a	REC_WORD	1208200	wordpools/wasnorm_wordpool.txt	LTP103	ltpFR	5	13	1	SALOON	1228	n/a	n/a	1	n/a	n/a	n/a	n/a	n/a
2417.206	n/a	REC_WORD	1208603	wordpools/wasnorm_wordpool.txt	LTP103	ltpFR	5	13	0	DUNGEON	507	n/a	n/a	0	n/a	n/a	n/a	n/a	n/a
2417.884	n/a	REC_WORD	1208942	wordpools/wasnorm_wordpool.txt	LTP103	ltpFR	5	13	0	EMPLOYEE	531	n/a	n/a	1	n/a	n/a	n/a	n/a	n/a
2419.302	n/a	REC_WORD	1209651	wordpools/wasnorm_wordpool.txt	LTP103	ltpFR	5	13	0	EMPLOYER	532	n/a	n/a	0	n/a	n/a	n/a	n/a	n/a
2420.648	n/a	REC_WORD	1210324	wordpools/wasnorm_wordpool.txt	LTP103	ltpFR	5	13	0	HEAD	695	n/a	n/a	0	n/a	n/a	n/a	n/a	n/a
2493.642	n/a	WORD	1246821	wordpools/wasnorm_wordpool.txt	LTP103	ltpFR	5	14	1	PEOPLE	1046	n/a	n/a	1	0.422607421875	0.5869140625	0	lower	amplitud.ttf
2497.576	n/a	WORD	1248788	wordpools/wasnorm_wordpool.txt	LTP103	ltpFR	5	14	1	SOCIETY	1338	n/a	n/a	0	0.422607421875	0.5869140625	0	lower	amplitud.ttf
2501.51	n/a	WORD	1250755	wordpools/wasnorm_wordpool.txt	LTP103	ltpFR	5	14	1	KEY	773	n/a	n/a	0	0.422607421875	0.5869140625	0	lower	amplitud.ttf
2505.534	n/a	WORD	1252767	wordpools/wasnorm_wordpool.txt	LTP103	ltpFR	5	14	1	CAB	209	n/a	n/a	0	0.422607421875	0.5869140625	0	lower	amplitud.ttf
2509.576	n/a	WORD	1254788	wordpools/wasnorm_wordpool.txt	LTP103	ltpFR	5	14	1	HAMMER	680	n/a	n/a	1	0.422607421875	0.5869140625	0	lower	amplitud.ttf
2513.392	n/a	WORD	1256696	wordpools/wasnorm_wordpool.txt	LTP103	ltpFR	5	14	1	SICKLE	1302	n/a	n/a	0	0.422607421875	0.5869140625	0	lower	amplitud.ttf
2517.584	n/a	WORD	1258792	wordpools/wasnorm_wordpool.txt	LTP103	ltpFR	5	14	1	WARRIOR	1589	n/a	n/a	1	0.422607421875	0.5869140625	0	lower	amplitud.ttf
2521.466	n/a	WORD	1260733	wordpools/wasnorm_wordpool.txt	LTP103	ltpFR	5	14	1	SPOUSE	1358	n/a	n/a	0	0.422607421875	0.5869140625	0	lower	amplitud.ttf
2525.358	n/a	WORD	1262679	wordpools/wasnorm_wordpool.txt	LTP103	ltpFR	5	14	1	LAKE	796	n/a	n/a	1	0.422607421875	0.5869140625	0	lower	amplitud.ttf
2529.482	n/a	WORD	1264741	wordpools/wasnorm_wordpool.txt	LTP103	ltpFR	5	14	1	COYOTE	396	n/a	n/a	1	0.422607421875	0.5869140625	0	lower	amplitud.ttf
2533.358	n/a	WORD	1266679	wordpools/wasnorm_wordpool.txt	LTP103	ltpFR	5	14	1	LIP	828	n/a	n/a	0	0.422607421875	0.5869140625	0	lower	amplitud.ttf
2537.308	n/a	WORD	1268654	wordpools/wasnorm_wordpool.txt	LTP103	ltpFR	5	14	1	BATHROOM	99	n/a	n/a	0	0.422607421875	0.5869140625	0	lower	amplitud.ttf
2541.516	n/a	WORD	1270758	wordpools/wasnorm_wordpool.txt	LTP103	ltpFR	5	14	1	PONY	1102	n/a	n/a	1	0.422607421875	0.5869140625	0	lower	amplitud.ttf
2545.416	n/a	WORD	1272708	wordpools/wasnorm_wordpool.txt	LTP103	ltpFR	5	14	1	SPIT	1354	n/a	n/a	0	0.422607421875	0.5869140625	0	lower	amplitud.ttf
2549.6	n/a	WORD	1274800	wordpools/wasnorm_wordpool.txt	LTP103	ltpFR	5	14	1	PREDATOR	1120	n/a	n/a	0	0.422607421875	0.5869140625	0	lower	amplitud.ttf
2553.474	n/a	WORD	1276737	wordpools/wasnorm_wordpool.txt	LTP103	ltpFR	5	14	1	SHOWER	1296	n/a	n/a	1	0.422607421875	0.5869140625	0	lower	amplitud.ttf
2559.166	n/a	REC_START	1279583	n/a	LTP103	ltpFR	5	14	n/a	n/a	n/a	n/a	n/a	n/a	n/a	n/a	n/a	n/a	n/a
2560.03	n/a	REC_WORD	1280015	wordpools/wasnorm_wordpool.txt	LTP103	ltpFR	5	14	1	PREDATOR	1120	n/a	n/a	0	n/a	n/a	n/a	n/a	n/a
2561.106	n/a	REC_WORD	1280553	wordpools/wasnorm_wordpool.txt	LTP103	ltpFR	5	14	1	SHOWER	1296	n/a	n/a	1	n/a	n/a	n/a	n/a	n/a
2576.772	n/a	REC_WORD	1288386	wordpools/wasnorm_wordpool.txt	LTP103	ltpFR	5	14	1	CAB	209	n/a	n/a	0	n/a	n/a	n/a	n/a	n/a
2578.568	n/a	REC_WORD	1289284	wordpools/wasnorm_wordpool.txt	LTP103	ltpFR	5	14	1	SOCIETY	1338	n/a	n/a	0	n/a	n/a	n/a	n/a	n/a
2579.966	n/a	REC_WORD	1289983	wordpools/wasnorm_wordpool.txt	LTP103	ltpFR	5	14	1	KEY	773	n/a	n/a	0	n/a	n/a	n/a	n/a	n/a
2581.202	n/a	REC_WORD	1290601	wordpools/wasnorm_wordpool.txt	LTP103	ltpFR	5	14	1	PEOPLE	1046	n/a	n/a	1	n/a	n/a	n/a	n/a	n/a
2649.962	n/a	WORD	1324981	wordpools/wasnorm_wordpool.txt	LTP103	ltpFR	5	15	0	SCRIBBLE	1256	n/a	n/a	0	0.57763671875	0.412841796875	1	upper	zerothre.ttf
2653.788	n/a	WORD	1326894	wordpools/wasnorm_wordpool.txt	LTP103	ltpFR	5	15	0	LETTER	813	n/a	n/a	1	0.57763671875	0.412841796875	1	upper	zerothre.ttf
2657.946	n/a	WORD	1328973	wordpools/wasnorm_wordpool.txt	LTP103	ltpFR	5	15	0	PHYSICIAN	1056	n/a	n/a	0	0.57763671875	0.412841796875	1	upper	zerothre.ttf
2662.07	n/a	WORD	1331035	wordpools/wasnorm_wordpool.txt	LTP103	ltpFR	5	15	0	GORILLA	650	n/a	n/a	0	0.57763671875	0.412841796875	1	upper	zerothre.ttf
2666.112	n/a	WORD	1333056	wordpools/wasnorm_wordpool.txt	LTP103	ltpFR	5	15	0	BROOM	178	n/a	n/a	0	0.57763671875	0.412841796875	1	upper	zerothre.ttf
2670.004	n/a	WORD	1335002	wordpools/wasnorm_wordpool.txt	LTP103	ltpFR	5	15	0	GUARD	667	n/a	n/a	0	0.57763671875	0.412841796875	1	upper	zerothre.ttf
2674.13	n/a	WORD	1337065	wordpools/wasnorm_wordpool.txt	LTP103	ltpFR	5	15	0	SHELF	1280	n/a	n/a	0	0.57763671875	0.412841796875	1	upper	zerothre.ttf
2678.188	n/a	WORD	1339094	wordpools/wasnorm_wordpool.txt	LTP103	ltpFR	5	15	0	TUXEDO	1525	n/a	n/a	1	0.57763671875	0.412841796875	1	upper	zerothre.ttf
2682.18	n/a	WORD	1341090	wordpools/wasnorm_wordpool.txt	LTP103	ltpFR	5	15	0	PLANET	1082	n/a	n/a	0	0.57763671875	0.412841796875	1	upper	zerothre.ttf
2686.138	n/a	WORD	1343069	wordpools/wasnorm_wordpool.txt	LTP103	ltpFR	5	15	0	VENUS	1557	n/a	n/a	1	0.57763671875	0.412841796875	1	upper	zerothre.ttf
2690.012	n/a	WORD	1345006	wordpools/wasnorm_wordpool.txt	LTP103	ltpFR	5	15	0	COOLER	375	n/a	n/a	1	0.57763671875	0.412841796875	1	upper	zerothre.ttf
2694.036	n/a	WORD	1347018	wordpools/wasnorm_wordpool.txt	LTP103	ltpFR	5	15	0	BRANDY	169	n/a	n/a	0	0.57763671875	0.412841796875	1	upper	zerothre.ttf
2698.13	n/a	WORD	1349065	wordpools/wasnorm_wordpool.txt	LTP103	ltpFR	5	15	0	GAZELLE	628	n/a	n/a	0	0.57763671875	0.412841796875	1	upper	zerothre.ttf
2702.044	n/a	WORD	1351022	wordpools/wasnorm_wordpool.txt	LTP103	ltpFR	5	15	0	BUTTON	207	n/a	n/a	1	0.57763671875	0.412841796875	1	upper	zerothre.ttf
2706.128	n/a	WORD	1353064	wordpools/wasnorm_wordpool.txt	LTP103	ltpFR	5	15	0	BADGE	68	n/a	n/a	0	0.57763671875	0.412841796875	1	upper	zerothre.ttf
2710.178	n/a	WORD	1355089	wordpools/wasnorm_wordpool.txt	LTP103	ltpFR	5	15	0	BINDER	127	n/a	n/a	1	0.57763671875	0.412841796875	1	upper	zerothre.ttf
2716.086	n/a	REC_START	1358043	n/a	LTP103	ltpFR	5	15	n/a	n/a	n/a	n/a	n/a	n/a	n/a	n/a	n/a	n/a	n/a
2716.53	n/a	REC_WORD	1358265	wordpools/wasnorm_wordpool.txt	LTP103	ltpFR	5	15	0	BINDER	127	n/a	n/a	1	n/a	n/a	n/a	n/a	n/a
2717.188	n/a	REC_WORD	1358594	wordpools/wasnorm_wordpool.txt	LTP103	ltpFR	5	15	0	BADGE	68	n/a	n/a	0	n/a	n/a	n/a	n/a	n/a
2726.916	n/a	REC_WORD	1363458	wordpools/wasnorm_wordpool.txt	LTP103	ltpFR	5	15	0	SCRIBBLE	1256	n/a	n/a	0	n/a	n/a	n/a	n/a	n/a
2728.374	n/a	REC_WORD	1364187	wordpools/wasnorm_wordpool.txt	LTP103	ltpFR	5	15	0	LETTER	813	n/a	n/a	1	n/a	n/a	n/a	n/a	n/a
2794.834	n/a	WORD	1397417	wordpools/wasnorm_wordpool.txt	LTP103	ltpFR	5	16	0	PUPPY	1144	n/a	n/a	1	0.57763671875	0.412841796875	1	upper	zerothre.ttf
2798.826	n/a	WORD	1399413	wordpools/wasnorm_wordpool.txt	LTP103	ltpFR	5	16	0	KITCHEN	778	n/a	n/a	1	0.57763671875	0.412841796875	1	upper	zerothre.ttf
2802.842	n/a	WORD	1401421	wordpools/wasnorm_wordpool.txt	LTP103	ltpFR	5	16	0	WAVE	1596	n/a	n/a	1	0.57763671875	0.412841796875	1	upper	zerothre.ttf
2806.892	n/a	WORD	1403446	wordpools/wasnorm_wordpool.txt	LTP103	ltpFR	5	16	0	SKI	1316	n/a	n/a	0	0.57763671875	0.412841796875	1	upper	zerothre.ttf
2810.718	n/a	WORD	1405359	wordpools/wasnorm_wordpool.txt	LTP103	ltpFR	5	16	0	SUPERMARKET	1409	n/a	n/a	1	0.57763671875	0.412841796875	1	upper	zerothre.ttf
2814.684	n/a	WORD	1407342	wordpools/wasnorm_wordpool.txt	LTP103	ltpFR	5	16	0	SAND	1230	n/a	n/a	1	0.57763671875	0.412841796875	1	upper	zerothre.ttf
2818.718	n/a	WORD	1409359	wordpools/wasnorm_wordpool.txt	LTP103	ltpFR	5	16	0	EYELASH	546	n/a	n/a	0	0.57763671875	0.412841796875	1	upper	zerothre.ttf
2822.76	n/a	WORD	1411380	wordpools/wasnorm_wordpool.txt	LTP103	ltpFR	5	16	0	SPRINKLE	1359	n/a	n/a	1	0.57763671875	0.412841796875	1	upper	zerothre.ttf
2826.584	n/a	WORD	1413292	wordpools/wasnorm_wordpool.txt	LTP103	ltpFR	5	16	0	CREEK	404	n/a	n/a	0	0.57763671875	0.412841796875	1	upper	zerothre.ttf
2830.426	n/a	WORD	1415213	wordpools/wasnorm_wordpool.txt	LTP103	ltpFR	5	16	0	CASTLE	256	n/a	n/a	0	0.57763671875	0.412841796875	1	upper	zerothre.ttf
2834.426	n/a	WORD	1417213	wordpools/wasnorm_wordpool.txt	LTP103	ltpFR	5	16	0	CITRUS	313	n/a	n/a	0	0.57763671875	0.412841796875	1	upper	zerothre.ttf
2838.526	n/a	WORD	1419263	wordpools/wasnorm_wordpool.txt	LTP103	ltpFR	5	16	0	BANANA	77	n/a	n/a	n/a	0.57763671875	0.412841796875	1	upper	zerothre.ttf
2841.55	n/a	SLOW_MSG	1420775	n/a	LTP103	ltpFR	5	16	n/a	n/a	n/a	n/a	n/a	n/a	n/a	n/a	n/a	n/a	n/a
2844.25	n/a	WORD	1422125	wordpools/wasnorm_wordpool.txt	LTP103	ltpFR	5	16	0	WAREHOUSE	1588	n/a	n/a	1	0.57763671875	0.412841796875	1	upper	zerothre.ttf
2848.184	n/a	WORD	1424092	wordpools/wasnorm_wordpool.txt	LTP103	ltpFR	5	16	0	LAWN	805	n/a	n/a	1	0.57763671875	0.412841796875	1	upper	zerothre.ttf
2852.226	n/a	WORD	1426113	wordpools/wasnorm_wordpool.txt	LTP103	ltpFR	5	16	0	INSTRUCTOR	741	n/a	n/a	1	0.57763671875	0.412841796875	1	upper	zerothre.ttf
2856.108	n/a	WORD	1428054	wordpools/wasnorm_wordpool.txt	LTP103	ltpFR	5	16	0	CAT	257	n/a	n/a	0	0.57763671875	0.412841796875	1	upper	zerothre.ttf
2861.932	n/a	REC_START	1430966	n/a	LTP103	ltpFR	5	16	n/a	n/a	n/a	n/a	n/a	n/a	n/a	n/a	n/a	n/a	n/a
2863.114	n/a	REC_WORD	1431557	wordpools/wasnorm_wordpool.txt	LTP103	ltpFR	5	16	0	PUPPY	1144	n/a	n/a	1	n/a	n/a	n/a	n/a	n/a
2866.516	n/a	REC_WORD	1433258	wordpools/wasnorm_wordpool.txt	LTP103	ltpFR	5	16	0	CAT	257	n/a	n/a	0	n/a	n/a	n/a	n/a	n/a
2867.514	n/a	REC_WORD	1433757	wordpools/wasnorm_wordpool.txt	LTP103	ltpFR	5	16	0	WAREHOUSE	1588	n/a	n/a	1	n/a	n/a	n/a	n/a	n/a
2868.154	n/a	REC_WORD	1434077	wordpools/wasnorm_wordpool.txt	LTP103	ltpFR	5	16	0	SUPERMARKET	1409	n/a	n/a	1	n/a	n/a	n/a	n/a	n/a
2880.626	n/a	REC_WORD	1440313	wordpools/wasnorm_wordpool.txt	LTP103	ltpFR	5	16	0	CREEK	404	n/a	n/a	0	n/a	n/a	n/a	n/a	n/a
2883.05	n/a	REC_WORD	1441525	wordpools/wasnorm_wordpool.txt	LTP103	ltpFR	5	16	0	SAND	1230	n/a	n/a	1	n/a	n/a	n/a	n/a	n/a
2955.198	n/a	REC_START	1477599	n/a	LTP103	ltpFR	5	n/a	n/a	n/a	n/a	n/a	n/a	n/a	n/a	n/a	n/a	n/a	n/a
2956.192	n/a	FFR_REC_WORD	1478096	wordpools/wasnorm_wordpool.txt	LTP103	ltpFR	5	n/a	0	BRANDY	169	n/a	n/a	0	n/a	n/a	n/a	n/a	n/a
2957.288	n/a	FFR_REC_WORD	1478644	wordpools/wasnorm_wordpool.txt	LTP103	ltpFR	5	n/a	n/a	COCKTAIL	338	n/a	n/a	n/a	n/a	n/a	n/a	n/a	n/a
2958.776	n/a	FFR_REC_WORD	1479388	wordpools/wasnorm_wordpool.txt	LTP103	ltpFR	5	n/a	n/a	DOG	480	n/a	n/a	n/a	n/a	n/a	n/a	n/a	n/a
2959.524	n/a	FFR_REC_WORD	1479762	wordpools/wasnorm_wordpool.txt	LTP103	ltpFR	5	n/a	0	PUPPY	1144	n/a	n/a	1	n/a	n/a	n/a	n/a	n/a
2960.282	n/a	FFR_REC_WORD	1480141	wordpools/wasnorm_wordpool.txt	LTP103	ltpFR	5	n/a	0	CAT	257	n/a	n/a	0	n/a	n/a	n/a	n/a	n/a
2961.998	n/a	FFR_REC_WORD	1480999	wordpools/wasnorm_wordpool.txt	LTP103	ltpFR	5	n/a	0	KITCHEN	778	n/a	n/a	1	n/a	n/a	n/a	n/a	n/a
2963.176	n/a	FFR_REC_WORD	1481588	wordpools/wasnorm_wordpool.txt	LTP103	ltpFR	5	n/a	0	EMPLOYEE	531	n/a	n/a	1	n/a	n/a	n/a	n/a	n/a
2964.016	n/a	FFR_REC_WORD	1482008	wordpools/wasnorm_wordpool.txt	LTP103	ltpFR	5	n/a	0	EMPLOYER	532	n/a	n/a	0	n/a	n/a	n/a	n/a	n/a
2965.79	n/a	FFR_REC_WORD	1482895	wordpools/wasnorm_wordpool.txt	LTP103	ltpFR	5	n/a	0	CREEK	404	n/a	n/a	0	n/a	n/a	n/a	n/a	n/a
2966.476	n/a	FFR_REC_WORD	1483238	wordpools/wasnorm_wordpool.txt	LTP103	ltpFR	5	n/a	0	RIVER	1194	n/a	n/a	0	n/a	n/a	n/a	n/a	n/a
2967.794	n/a	FFR_REC_WORD	1483897	wordpools/wasnorm_wordpool.txt	LTP103	ltpFR	5	n/a	0	SEA	1259	n/a	n/a	1	n/a	n/a	n/a	n/a	n/a
2970.19	n/a	FFR_REC_WORD	1485095	wordpools/wasnorm_wordpool.txt	LTP103	ltpFR	5	n/a	0	SEASHORE	1263	n/a	n/a	1	n/a	n/a	n/a	n/a	n/a
2971.576	n/a	FFR_REC_WORD	1485788	wordpools/wasnorm_wordpool.txt	LTP103	ltpFR	5	n/a	0	SAND	1230	n/a	n/a	1	n/a	n/a	n/a	n/a	n/a
2977.404	n/a	FFR_REC_WORD	1488702	wordpools/wasnorm_wordpool.txt	LTP103	ltpFR	5	n/a	-1	APARTMENT	30	n/a	n/a	-1	n/a	n/a	n/a	n/a	n/a
2978.372	n/a	FFR_REC_WORD	1489186	wordpools/wasnorm_wordpool.txt	LTP103	ltpFR	5	n/a	-1	ROOMMATE	1207	n/a	n/a	-1	n/a	n/a	n/a	n/a	n/a
2989.208	n/a	FFR_REC_WORD	1494604	wordpools/wasnorm_wordpool.txt	LTP103	ltpFR	5	n/a	0	HEAD	695	n/a	n/a	0	n/a	n/a	n/a	n/a	n/a
2990.754	n/a	FFR_REC_WORD	1495377	wordpools/wasnorm_wordpool.txt	LTP103	ltpFR	5	n/a	0	SNEAKER	1334	n/a	n/a	1	n/a	n/a	n/a	n/a	n/a
3001.042	n/a	FFR_REC_WORD	1500521	wordpools/wasnorm_wordpool.txt	LTP103	ltpFR	5	n/a	1	DOCTOR	478	n/a	n/a	0	n/a	n/a	n/a	n/a	n/a
3001.576	n/a	FFR_REC_WORD	1500788	wordpools/wasnorm_wordpool.txt	LTP103	ltpFR	5	n/a	0	PHYSICIAN	1056	n/a	n/a	0	n/a	n/a	n/a	n/a	n/a
3008.354	n/a	FFR_REC_WORD	1504177	wordpools/wasnorm_wordpool.txt	LTP103	ltpFR	5	n/a	-1	TULIP	1517	n/a	n/a	-1	n/a	n/a	n/a	n/a	n/a
3010.69	n/a	FFR_REC_WORD	1505345	wordpools/wasnorm_wordpool.txt	LTP103	ltpFR	5	n/a	1	TREE	1502	n/a	n/a	1	n/a	n/a	n/a	n/a	n/a
3040.444	n/a	FFR_REC_WORD	1520222	wordpools/wasnorm_wordpool.txt	LTP103	ltpFR	5	n/a	1	SOCIETY	1338	n/a	n/a	0	n/a	n/a	n/a	n/a	n/a
3041.502	n/a	FFR_REC_WORD	1520751	wordpools/wasnorm_wordpool.txt	LTP103	ltpFR	5	n/a	1	KEY	773	n/a	n/a	0	n/a	n/a	n/a	n/a	n/a
3042.114	n/a	FFR_REC_WORD	1521057	wordpools/wasnorm_wordpool.txt	LTP103	ltpFR	5	n/a	1	PEOPLE	1046	n/a	n/a	1	n/a	n/a	n/a	n/a	n/a
3280.89	n/a	REC_START	1640445	n/a	LTP103	ltpFR	5	1	n/a	n/a	n/a	n/a	n/a	n/a	n/a	n/a	n/a	n/a	n/a
3280.922	n/a	RECOG_LURE	1640461	n/a	LTP103	ltpFR	5	1	n/a	CLOCK	325	0	3	n/a	n/a	n/a	n/a	n/a	n/a
3282.41	n/a	RECOG_RESP_VV	1641205	n/a	LTP103	ltpFR	5	1	n/a	CLOCK	325	0	n/a	n/a	n/a	n/a	n/a	n/a	n/a
3282.416	n/a	RECOG_RESP	1641208	n/a	LTP103	ltpFR	5	1	n/a	CLOCK	325	0	n/a	n/a	n/a	n/a	n/a	n/a	n/a
3283.318	n/a	RECOG_CONF	1641659	n/a	LTP103	ltpFR	5	1	n/a	CLOCK	325	n/a	3	n/a	n/a	n/a	n/a	n/a	n/a
3284.788	n/a	RECOG_LURE	1642394	n/a	LTP103	ltpFR	5	1	n/a	CLIFF	322	0	2	n/a	n/a	n/a	n/a	n/a	n/a
3285.528	n/a	RECOG_RESP	1642764	n/a	LTP103	ltpFR	5	1	n/a	CLIFF	322	0	n/a	n/a	n/a	n/a	n/a	n/a	n/a
3286.322	n/a	RECOG_CONF	1643161	n/a	LTP103	ltpFR	5	1	n/a	CLIFF	322	n/a	2	n/a	n/a	n/a	n/a	n/a	n/a
3287.688	n/a	RECOG_TARGET	1643844	n/a	LTP103	ltpFR	5	1	0	PLANET	1082	1	5	0	n/a	n/a	n/a	n/a	n/a
3288.702	n/a	RECOG_RESP	1644351	n/a	LTP103	ltpFR	5	1	0	PLANET	1082	1	n/a	0	n/a	n/a	n/a	n/a	n/a
3289.376	n/a	RECOG_CONF	1644688	n/a	LTP103	ltpFR	5	1	0	PLANET	1082	n/a	5	0	n/a	n/a	n/a	n/a	n/a
3290.92	n/a	RECOG_TARGET	1645460	n/a	LTP103	ltpFR	5	1	0	GEM	629	1	5	0	n/a	n/a	n/a	n/a	n/a
3291.67	n/a	RECOG_RESP	1645835	n/a	LTP103	ltpFR	5	1	0	GEM	629	1	n/a	0	n/a	n/a	n/a	n/a	n/a
3292.358	n/a	RECOG_CONF	1646179	n/a	LTP103	ltpFR	5	1	0	GEM	629	n/a	5	0	n/a	n/a	n/a	n/a	n/a
3294.03	n/a	RECOG_TARGET	1647015	n/a	LTP103	ltpFR	5	1	-1	DIAPER	459	1	5	-1	n/a	n/a	n/a	n/a	n/a
3294.898	n/a	RECOG_RESP	1647449	n/a	LTP103	ltpFR	5	1	-1	DIAPER	459	1	n/a	-1	n/a	n/a	n/a	n/a	n/a
3295.572	n/a	RECOG_CONF	1647786	n/a	LTP103	ltpFR	5	1	-1	DIAPER	459	n/a	5	-1	n/a	n/a	n/a	n/a	n/a
3297.046	n/a	RECOG_TARGET	1648523	n/a	LTP103	ltpFR	5	1	1	SPIT	1354	1	5	0	n/a	n/a	n/a	n/a	n/a
3298.042	n/a	RECOG_RESP	1649021	n/a	LTP103	ltpFR	5	1	1	SPIT	1354	1	n/a	0	n/a	n/a	n/a	n/a	n/a
3298.784	n/a	RECOG_CONF	1649392	n/a	LTP103	ltpFR	5	1	1	SPIT	1354	n/a	5	0	n/a	n/a	n/a	n/a	n/a
3300.198	n/a	RECOG_TARGET	1650099	n/a	LTP103	ltpFR	5	1	1	GROCERIES	663	0	3	0	n/a	n/a	n/a	n/a	n/a
3301.02	n/a	RECOG_RESP	1650510	n/a	LTP103	ltpFR	5	1	1	GROCERIES	663	0	n/a	0	n/a	n/a	n/a	n/a	n/a
3301.678	n/a	RECOG_CONF	1650839	n/a	LTP103	ltpFR	5	1	1	GROCERIES	663	n/a	3	0	n/a	n/a	n/a	n/a	n/a
3302.946	n/a	RECOG_TARGET	1651473	n/a	LTP103	ltpFR	5	1	1	SCOTCH	1251	1	2	0	n/a	n/a	n/a	n/a	n/a
3303.734	n/a	RECOG_RESP	1651867	n/a	LTP103	ltpFR	5	1	1	SCOTCH	1251	1	n/a	0	n/a	n/a	n/a	n/a	n/a
3304.322	n/a	RECOG_CONF	1652161	n/a	LTP103	ltpFR	5	1	1	SCOTCH	1251	n/a	2	0	n/a	n/a	n/a	n/a	n/a
3305.68	n/a	RECOG_LURE	1652840	n/a	LTP103	ltpFR	5	1	n/a	SIGN	1305	0	3	n/a	n/a	n/a	n/a	n/a	n/a
3306.572	n/a	RECOG_RESP	1653286	n/a	LTP103	ltpFR	5	1	n/a	SIGN	1305	0	n/a	n/a	n/a	n/a	n/a	n/a	n/a
3307.166	n/a	RECOG_CONF	1653583	n/a	LTP103	ltpFR	5	1	n/a	SIGN	1305	n/a	3	n/a	n/a	n/a	n/a	n/a	n/a
3308.504	n/a	RECOG_TARGET	1654252	n/a	LTP103	ltpFR	5	1	1	CONDUCTOR	362	1	4	0	n/a	n/a	n/a	n/a	n/a
3309.376	n/a	RECOG_RESP	1654688	n/a	LTP103	ltpFR	5	1	1	CONDUCTOR	362	1	n/a	0	n/a	n/a	n/a	n/a	n/a
3310.358	n/a	RECOG_CONF	1655179	n/a	LTP103	ltpFR	5	1	1	CONDUCTOR	362	n/a	4	0	n/a	n/a	n/a	n/a	n/a
3311.722	n/a	RECOG_TARGET	1655861	n/a	LTP103	ltpFR	5	1	1	CELLAR	267	0	2	1	n/a	n/a	n/a	n/a	n/a
3312.728	n/a	RECOG_RESP	1656364	n/a	LTP103	ltpFR	5	1	1	CELLAR	267	0	n/a	1	n/a	n/a	n/a	n/a	n/a
3313.342	n/a	RECOG_CONF	1656671	n/a	LTP103	ltpFR	5	1	1	CELLAR	267	n/a	2	1	n/a	n/a	n/a	n/a	n/a
3314.588	n/a	RECOG_TARGET	1657294	n/a	LTP103	ltpFR	5	1	-1	ROCKET	1202	1	5	-1	n/a	n/a	n/a	n/a	n/a
3315.388	n/a	RECOG_RESP	1657694	n/a	LTP103	ltpFR	5	1	-1	ROCKET	1202	1	n/a	-1	n/a	n/a	n/a	n/a	n/a
3316.146	n/a	RECOG_CONF	1658073	n/a	LTP103	ltpFR	5	1	-1	ROCKET	1202	n/a	5	-1	n/a	n/a	n/a	n/a	n/a
3317.596	n/a	RECOG_TARGET	1658798	n/a	LTP103	ltpFR	5	1	0	DRESS	495	1	4	0	n/a	n/a	n/a	n/a	n/a
3318.51	n/a	RECOG_RESP	1659255	n/a	LTP103	ltpFR	5	1	0	DRESS	495	1	n/a	0	n/a	n/a	n/a	n/a	n/a
3319.458	n/a	RECOG_CONF	1659729	n/a	LTP103	ltpFR	5	1	0	DRESS	495	n/a	4	0	n/a	n/a	n/a	n/a	n/a
3320.822	n/a	RECOG_TARGET	1660411	n/a	LTP103	ltpFR	5	1	0	BADGE	68	1	5	0	n/a	n/a	n/a	n/a	n/a
3321.584	n/a	RECOG_RESP	1660792	n/a	LTP103	ltpFR	5	1	0	BADGE	68	1	n/a	0	n/a	n/a	n/a	n/a	n/a
3322.382	n/a	RECOG_CONF	1661191	n/a	LTP103	ltpFR	5	1	0	BADGE	68	n/a	5	0	n/a	n/a	n/a	n/a	n/a
3323.862	n/a	RECOG_TARGET	1661931	n/a	LTP103	ltpFR	5	1	1	MASCARA	875	0	3	0	n/a	n/a	n/a	n/a	n/a
3325.396	n/a	RECOG_RESP	1662698	n/a	LTP103	ltpFR	5	1	1	MASCARA	875	0	n/a	0	n/a	n/a	n/a	n/a	n/a
3326.024	n/a	RECOG_CONF	1663012	n/a	LTP103	ltpFR	5	1	1	MASCARA	875	n/a	3	0	n/a	n/a	n/a	n/a	n/a
3327.354	n/a	RECOG_TARGET	1663677	n/a	LTP103	ltpFR	5	1	-1	WALL	1582	1	2	-1	n/a	n/a	n/a	n/a	n/a
3328.128	n/a	RECOG_RESP	1664064	n/a	LTP103	ltpFR	5	1	-1	WALL	1582	1	n/a	-1	n/a	n/a	n/a	n/a	n/a
3328.968	n/a	RECOG_CONF	1664484	n/a	LTP103	ltpFR	5	1	-1	WALL	1582	n/a	2	-1	n/a	n/a	n/a	n/a	n/a
3330.312	n/a	RECOG_TARGET	1665156	n/a	LTP103	ltpFR	5	1	1	BACON	67	1	5	0	n/a	n/a	n/a	n/a	n/a
3331.028	n/a	RECOG_RESP	1665514	n/a	LTP103	ltpFR	5	1	1	BACON	67	1	n/a	0	n/a	n/a	n/a	n/a	n/a
3331.84	n/a	RECOG_CONF	1665920	n/a	LTP103	ltpFR	5	1	1	BACON	67	n/a	5	0	n/a	n/a	n/a	n/a	n/a
3333.254	n/a	RECOG_TARGET	1666627	n/a	LTP103	ltpFR	5	1	-1	LAPEL	800	0	2	-1	n/a	n/a	n/a	n/a	n/a
3334.02	n/a	RECOG_RESP	1667010	n/a	LTP103	ltpFR	5	1	-1	LAPEL	800	0	n/a	-1	n/a	n/a	n/a	n/a	n/a
3334.824	n/a	RECOG_CONF	1667412	n/a	LTP103	ltpFR	5	1	-1	LAPEL	800	n/a	2	-1	n/a	n/a	n/a	n/a	n/a
3336.204	n/a	RECOG_TARGET	1668102	n/a	LTP103	ltpFR	5	1	1	FIDDLE	561	1	2	0	n/a	n/a	n/a	n/a	n/a
3337.164	n/a	RECOG_RESP	1668582	n/a	LTP103	ltpFR	5	1	1	FIDDLE	561	1	n/a	0	n/a	n/a	n/a	n/a	n/a
3337.738	n/a	RECOG_CONF	1668869	n/a	LTP103	ltpFR	5	1	1	FIDDLE	561	n/a	2	0	n/a	n/a	n/a	n/a	n/a
3339.096	n/a	RECOG_TARGET	1669548	n/a	LTP103	ltpFR	5	1	0	FIN	566	1	5	1	n/a	n/a	n/a	n/a	n/a
3339.698	n/a	RECOG_RESP	1669849	n/a	LTP103	ltpFR	5	1	0	FIN	566	1	n/a	1	n/a	n/a	n/a	n/a	n/a
3340.422	n/a	RECOG_CONF	1670211	n/a	LTP103	ltpFR	5	1	0	FIN	566	n/a	5	1	n/a	n/a	n/a	n/a	n/a
3344.474	n/a	REC_START	1672237	n/a	LTP103	ltpFR	5	2	n/a	n/a	n/a	n/a	n/a	n/a	n/a	n/a	n/a	n/a	n/a
3344.504	n/a	RECOG_TARGET	1672252	n/a	LTP103	ltpFR	5	2	-1	ROOF	1205	1	5	-1	n/a	n/a	n/a	n/a	n/a
3345.212	n/a	RECOG_RESP	1672606	n/a	LTP103	ltpFR	5	2	-1	ROOF	1205	1	n/a	-1	n/a	n/a	n/a	n/a	n/a
3345.856	n/a	RECOG_CONF	1672928	n/a	LTP103	ltpFR	5	2	-1	ROOF	1205	n/a	5	-1	n/a	n/a	n/a	n/a	n/a
3347.228	n/a	RECOG_TARGET	1673614	n/a	LTP103	ltpFR	5	2	0	BRAKE	166	1	5	0	n/a	n/a	n/a	n/a	n/a
3348.41	n/a	RECOG_RESP	1674205	n/a	LTP103	ltpFR	5	2	0	BRAKE	166	1	n/a	0	n/a	n/a	n/a	n/a	n/a
3349.098	n/a	RECOG_CONF	1674549	n/a	LTP103	ltpFR	5	2	0	BRAKE	166	n/a	5	0	n/a	n/a	n/a	n/a	n/a
3350.446	n/a	RECOG_LURE	1675223	n/a	LTP103	ltpFR	5	2	n/a	FACTORY	548	1	5	n/a	n/a	n/a	n/a	n/a	n/a
3351.03	n/a	RECOG_RESP	1675515	n/a	LTP103	ltpFR	5	2	n/a	FACTORY	548	1	n/a	n/a	n/a	n/a	n/a	n/a	n/a
3351.624	n/a	RECOG_CONF	1675812	n/a	LTP103	ltpFR	5	2	n/a	FACTORY	548	n/a	5	n/a	n/a	n/a	n/a	n/a	n/a
3353.06	n/a	RECOG_TARGET	1676530	n/a	LTP103	ltpFR	5	2	0	GAZELLE	628	0	3	0	n/a	n/a	n/a	n/a	n/a
3353.928	n/a	RECOG_RESP_VV	1676964	n/a	LTP103	ltpFR	5	2	0	GAZELLE	628	0	n/a	0	n/a	n/a	n/a	n/a	n/a
3354.274	n/a	RECOG_RESP_VV	1677137	n/a	LTP103	ltpFR	5	2	0	GAZELLE	628	1	n/a	0	n/a	n/a	n/a	n/a	n/a
3354.542	n/a	RECOG_RESP	1677271	n/a	LTP103	ltpFR	5	2	0	GAZELLE	628	0	n/a	0	n/a	n/a	n/a	n/a	n/a
3355.356	n/a	RECOG_CONF	1677678	n/a	LTP103	ltpFR	5	2	0	GAZELLE	628	n/a	3	0	n/a	n/a	n/a	n/a	n/a
3356.788	n/a	RECOG_TARGET	1678394	n/a	LTP103	ltpFR	5	2	0	SNEAKER	1334	1	5	1	n/a	n/a	n/a	n/a	n/a
3357.436	n/a	RECOG_RESP	1678718	n/a	LTP103	ltpFR	5	2	0	SNEAKER	1334	1	n/a	1	n/a	n/a	n/a	n/a	n/a
3358.1	n/a	RECOG_CONF	1679050	n/a	LTP103	ltpFR	5	2	0	SNEAKER	1334	n/a	5	1	n/a	n/a	n/a	n/a	n/a
3359.546	n/a	RECOG_TARGET	1679773	n/a	LTP103	ltpFR	5	2	0	EYELASH	546	1	5	0	n/a	n/a	n/a	n/a	n/a
3360.434	n/a	RECOG_RESP	1680217	n/a	LTP103	ltpFR	5	2	0	EYELASH	546	1	n/a	0	n/a	n/a	n/a	n/a	n/a
3361.142	n/a	RECOG_CONF	1680571	n/a	LTP103	ltpFR	5	2	0	EYELASH	546	n/a	5	0	n/a	n/a	n/a	n/a	n/a
3362.736	n/a	RECOG_LURE	1681368	n/a	LTP103	ltpFR	5	2	n/a	BRANCH	168	1	5	n/a	n/a	n/a	n/a	n/a	n/a
3363.498	n/a	RECOG_RESP	1681749	n/a	LTP103	ltpFR	5	2	n/a	BRANCH	168	1	n/a	n/a	n/a	n/a	n/a	n/a	n/a
3364.186	n/a	RECOG_CONF	1682093	n/a	LTP103	ltpFR	5	2	n/a	BRANCH	168	n/a	5	n/a	n/a	n/a	n/a	n/a	n/a
3365.486	n/a	RECOG_TARGET	1682743	n/a	LTP103	ltpFR	5	2	-1	VET	1560	1	5	-1	n/a	n/a	n/a	n/a	n/a
3366.122	n/a	RECOG_RESP	1683061	n/a	LTP103	ltpFR	5	2	-1	VET	1560	1	n/a	-1	n/a	n/a	n/a	n/a	n/a
3366.9	n/a	RECOG_CONF	1683450	n/a	LTP103	ltpFR	5	2	-1	VET	1560	n/a	5	-1	n/a	n/a	n/a	n/a	n/a
3368.42	n/a	RECOG_LURE	1684210	n/a	LTP103	ltpFR	5	2	n/a	BUTLER	204	1	3	n/a	n/a	n/a	n/a	n/a	n/a
3369.424	n/a	RECOG_RESP	1684712	n/a	LTP103	ltpFR	5	2	n/a	BUTLER	204	1	n/a	n/a	n/a	n/a	n/a	n/a	n/a
3370.062	n/a	RECOG_CONF	1685031	n/a	LTP103	ltpFR	5	2	n/a	BUTLER	204	n/a	3	n/a	n/a	n/a	n/a	n/a	n/a
3371.412	n/a	RECOG_TARGET	1685706	n/a	LTP103	ltpFR	5	2	0	PECAN	1036	1	4	1	n/a	n/a	n/a	n/a	n/a
3372.406	n/a	RECOG_RESP	1686203	n/a	LTP103	ltpFR	5	2	0	PECAN	1036	1	n/a	1	n/a	n/a	n/a	n/a	n/a
3373.036	n/a	RECOG_CONF	1686518	n/a	LTP103	ltpFR	5	2	0	PECAN	1036	n/a	4	1	n/a	n/a	n/a	n/a	n/a
3374.388	n/a	RECOG_TARGET	1687194	n/a	LTP103	ltpFR	5	2	1	LAKE	796	0	2	1	n/a	n/a	n/a	n/a	n/a
3375.146	n/a	RECOG_RESP_VV	1687573	n/a	LTP103	ltpFR	5	2	1	LAKE	796	1	n/a	1	n/a	n/a	n/a	n/a	n/a
3375.846	n/a	RECOG_RESP	1687923	n/a	LTP103	ltpFR	5	2	1	LAKE	796	0	n/a	1	n/a	n/a	n/a	n/a	n/a
3376.998	n/a	RECOG_CONF	1688499	n/a	LTP103	ltpFR	5	2	1	LAKE	796	n/a	2	1	n/a	n/a	n/a	n/a	n/a
3378.446	n/a	RECOG_TARGET	1689223	n/a	LTP103	ltpFR	5	2	0	TRAIN	1494	0	1	1	n/a	n/a	n/a	n/a	n/a
3379.328	n/a	RECOG_RESP	1689664	n/a	LTP103	ltpFR	5	2	0	TRAIN	1494	0	n/a	1	n/a	n/a	n/a	n/a	n/a
3380.0	n/a	RECOG_CONF	1690000	n/a	LTP103	ltpFR	5	2	0	TRAIN	1494	n/a	1	1	n/a	n/a	n/a	n/a	n/a
3381.394	n/a	RECOG_TARGET	1690697	n/a	LTP103	ltpFR	5	2	0	RACCOON	1153	1	2	0	n/a	n/a	n/a	n/a	n/a
3382.634	n/a	RECOG_RESP	1691317	n/a	LTP103	ltpFR	5	2	0	RACCOON	1153	1	n/a	0	n/a	n/a	n/a	n/a	n/a
3383.592	n/a	RECOG_CONF	1691796	n/a	LTP103	ltpFR	5	2	0	RACCOON	1153	n/a	2	0	n/a	n/a	n/a	n/a	n/a
3384.902	n/a	RECOG_LURE	1692451	n/a	LTP103	ltpFR	5	2	n/a	ASSOCIATE	49	0	4	n/a	n/a	n/a	n/a	n/a	n/a
3385.828	n/a	RECOG_RESP	1692914	n/a	LTP103	ltpFR	5	2	n/a	ASSOCIATE	49	0	n/a	n/a	n/a	n/a	n/a	n/a	n/a
3386.432	n/a	RECOG_CONF	1693216	n/a	LTP103	ltpFR	5	2	n/a	ASSOCIATE	49	n/a	4	n/a	n/a	n/a	n/a	n/a	n/a
3387.828	n/a	RECOG_TARGET	1693914	n/a	LTP103	ltpFR	5	2	0	RUNNER	1218	0	2	1	n/a	n/a	n/a	n/a	n/a
3388.75	n/a	RECOG_RESP	1694375	n/a	LTP103	ltpFR	5	2	0	RUNNER	1218	0	n/a	1	n/a	n/a	n/a	n/a	n/a
3389.354	n/a	RECOG_CONF	1694677	n/a	LTP103	ltpFR	5	2	0	RUNNER	1218	n/a	2	1	n/a	n/a	n/a	n/a	n/a
3390.678	n/a	RECOG_TARGET	1695339	n/a	LTP103	ltpFR	5	2	1	CAB	209	1	5	0	n/a	n/a	n/a	n/a	n/a
3391.434	n/a	RECOG_RESP	1695717	n/a	LTP103	ltpFR	5	2	1	CAB	209	1	n/a	0	n/a	n/a	n/a	n/a	n/a
3392.192	n/a	RECOG_CONF	1696096	n/a	LTP103	ltpFR	5	2	1	CAB	209	n/a	5	0	n/a	n/a	n/a	n/a	n/a
3393.578	n/a	RECOG_TARGET	1696789	n/a	LTP103	ltpFR	5	2	1	BREAST	171	0	3	1	n/a	n/a	n/a	n/a	n/a
3395.048	n/a	RECOG_RESP	1697524	n/a	LTP103	ltpFR	5	2	1	BREAST	171	0	n/a	1	n/a	n/a	n/a	n/a	n/a
3395.776	n/a	RECOG_CONF	1697888	n/a	LTP103	ltpFR	5	2	1	BREAST	171	n/a	3	1	n/a	n/a	n/a	n/a	n/a
3397.212	n/a	RECOG_TARGET	1698606	n/a	LTP103	ltpFR	5	2	0	DUNGEON	507	0	1	0	n/a	n/a	n/a	n/a	n/a
3398.738	n/a	RECOG_RESP	1699369	n/a	LTP103	ltpFR	5	2	0	DUNGEON	507	0	n/a	0	n/a	n/a	n/a	n/a	n/a
3400.674	n/a	RECOG_CONF	1700337	n/a	LTP103	ltpFR	5	2	0	DUNGEON	507	n/a	1	0	n/a	n/a	n/a	n/a	n/a
3402.144	n/a	RECOG_TARGET	1701072	n/a	LTP103	ltpFR	5	2	0	GUARD	667	1	5	0	n/a	n/a	n/a	n/a	n/a
3402.92	n/a	RECOG_RESP	1701460	n/a	LTP103	ltpFR	5	2	0	GUARD	667	1	n/a	0	n/a	n/a	n/a	n/a	n/a
3403.728	n/a	RECOG_CONF	1701864	n/a	LTP103	ltpFR	5	2	0	GUARD	667	n/a	5	0	n/a	n/a	n/a	n/a	n/a
3405.002	n/a	RECOG_TARGET	1702501	n/a	LTP103	ltpFR	5	2	-1	TELEVISION	1447	1	5	-1	n/a	n/a	n/a	n/a	n/a
3405.664	n/a	RECOG_RESP	1702832	n/a	LTP103	ltpFR	5	2	-1	TELEVISION	1447	1	n/a	-1	n/a	n/a	n/a	n/a	n/a
3406.352	n/a	RECOG_CONF	1703176	n/a	LTP103	ltpFR	5	2	-1	TELEVISION	1447	n/a	5	-1	n/a	n/a	n/a	n/a	n/a
3409.352	n/a	REC_START	1704676	n/a	LTP103	ltpFR	5	3	n/a	n/a	n/a	n/a	n/a	n/a	n/a	n/a	n/a	n/a	n/a
3409.386	n/a	RECOG_TARGET	1704693	n/a	LTP103	ltpFR	5	3	0	BATTERY	101	1	5	1	n/a	n/a	n/a	n/a	n/a
3410.11	n/a	RECOG_RESP	1705055	n/a	LTP103	ltpFR	5	3	0	BATTERY	101	1	n/a	1	n/a	n/a	n/a	n/a	n/a
3410.852	n/a	RECOG_CONF	1705426	n/a	LTP103	ltpFR	5	3	0	BATTERY	101	n/a	5	1	n/a	n/a	n/a	n/a	n/a
3412.11	n/a	RECOG_TARGET	1706055	n/a	LTP103	ltpFR	5	3	0	LETTER	813	1	5	1	n/a	n/a	n/a	n/a	n/a
3412.888	n/a	RECOG_RESP	1706444	n/a	LTP103	ltpFR	5	3	0	LETTER	813	1	n/a	1	n/a	n/a	n/a	n/a	n/a
3413.576	n/a	RECOG_CONF	1706788	n/a	LTP103	ltpFR	5	3	0	LETTER	813	n/a	5	1	n/a	n/a	n/a	n/a	n/a
3414.802	n/a	RECOG_TARGET	1707401	n/a	LTP103	ltpFR	5	3	0	BIOLOGIST	128	0	4	1	n/a	n/a	n/a	n/a	n/a
3415.558	n/a	RECOG_RESP	1707779	n/a	LTP103	ltpFR	5	3	0	BIOLOGIST	128	0	n/a	1	n/a	n/a	n/a	n/a	n/a
3416.202	n/a	RECOG_CONF	1708101	n/a	LTP103	ltpFR	5	3	0	BIOLOGIST	128	n/a	4	1	n/a	n/a	n/a	n/a	n/a
3417.644	n/a	RECOG_TARGET	1708822	n/a	LTP103	ltpFR	5	3	1	SKUNK	1321	0	2	1	n/a	n/a	n/a	n/a	n/a
3418.562	n/a	RECOG_RESP_VV	1709281	n/a	LTP103	ltpFR	5	3	1	SKUNK	1321	1	n/a	1	n/a	n/a	n/a	n/a	n/a
3419.016	n/a	RECOG_RESP	1709508	n/a	LTP103	ltpFR	5	3	1	SKUNK	1321	0	n/a	1	n/a	n/a	n/a	n/a	n/a
3419.764	n/a	RECOG_CONF	1709882	n/a	LTP103	ltpFR	5	3	1	SKUNK	1321	n/a	2	1	n/a	n/a	n/a	n/a	n/a
3421.194	n/a	RECOG_TARGET	1710597	n/a	LTP103	ltpFR	5	3	-1	SOCKET	1340	1	5	-1	n/a	n/a	n/a	n/a	n/a
3422.228	n/a	RECOG_RESP_VV	1711114	n/a	LTP103	ltpFR	5	3	-1	SOCKET	1340	0	n/a	-1	n/a	n/a	n/a	n/a	n/a
3423.062	n/a	RECOG_RESP	1711531	n/a	LTP103	ltpFR	5	3	-1	SOCKET	1340	1	n/a	-1	n/a	n/a	n/a	n/a	n/a
3424.472	n/a	RECOG_CONF	1712236	n/a	LTP103	ltpFR	5	3	-1	SOCKET	1340	n/a	5	-1	n/a	n/a	n/a	n/a	n/a
3425.976	n/a	RECOG_LURE	1712988	n/a	LTP103	ltpFR	5	3	n/a	FLY	586	0	2	n/a	n/a	n/a	n/a	n/a	n/a
3426.902	n/a	RECOG_RESP	1713451	n/a	LTP103	ltpFR	5	3	n/a	FLY	586	0	n/a	n/a	n/a	n/a	n/a	n/a	n/a
3427.566	n/a	RECOG_CONF	1713783	n/a	LTP103	ltpFR	5	3	n/a	FLY	586	n/a	2	n/a	n/a	n/a	n/a	n/a	n/a
3428.876	n/a	RECOG_TARGET	1714438	n/a	LTP103	ltpFR	5	3	1	LOCK	838	0	1	0	n/a	n/a	n/a	n/a	n/a
3429.81	n/a	RECOG_RESP	1714905	n/a	LTP103	ltpFR	5	3	1	LOCK	838	0	n/a	0	n/a	n/a	n/a	n/a	n/a
3430.48	n/a	RECOG_CONF	1715240	n/a	LTP103	ltpFR	5	3	1	LOCK	838	n/a	1	0	n/a	n/a	n/a	n/a	n/a
3431.858	n/a	RECOG_TARGET	1715929	n/a	LTP103	ltpFR	5	3	-1	JEEP	753	1	4	-1	n/a	n/a	n/a	n/a	n/a
3432.58	n/a	RECOG_RESP	1716290	n/a	LTP103	ltpFR	5	3	-1	JEEP	753	1	n/a	-1	n/a	n/a	n/a	n/a	n/a
3433.224	n/a	RECOG_CONF	1716612	n/a	LTP103	ltpFR	5	3	-1	JEEP	753	n/a	4	-1	n/a	n/a	n/a	n/a	n/a
3434.518	n/a	RECOG_TARGET	1717259	n/a	LTP103	ltpFR	5	3	-1	CARPENTER	246	0	2	-1	n/a	n/a	n/a	n/a	n/a
3435.514	n/a	RECOG_RESP	1717757	n/a	LTP103	ltpFR	5	3	-1	CARPENTER	246	0	n/a	-1	n/a	n/a	n/a	n/a	n/a
3436.178	n/a	RECOG_CONF	1718089	n/a	LTP103	ltpFR	5	3	-1	CARPENTER	246	n/a	2	-1	n/a	n/a	n/a	n/a	n/a
3437.444	n/a	RECOG_LURE	1718722	n/a	LTP103	ltpFR	5	3	n/a	CASHEW	253	0	3	n/a	n/a	n/a	n/a	n/a	n/a
3438.442	n/a	RECOG_RESP	1719221	n/a	LTP103	ltpFR	5	3	n/a	CASHEW	253	0	n/a	n/a	n/a	n/a	n/a	n/a	n/a
3439.2	n/a	RECOG_CONF	1719600	n/a	LTP103	ltpFR	5	3	n/a	CASHEW	253	n/a	3	n/a	n/a	n/a	n/a	n/a	n/a
3440.884	n/a	RECOG_TARGET	1720442	n/a	LTP103	ltpFR	5	3	-1	TROUT	1511	1	2	-1	n/a	n/a	n/a	n/a	n/a
3442.02	n/a	RECOG_RESP	1721010	n/a	LTP103	ltpFR	5	3	-1	TROUT	1511	1	n/a	-1	n/a	n/a	n/a	n/a	n/a
3442.712	n/a	RECOG_CONF	1721356	n/a	LTP103	ltpFR	5	3	-1	TROUT	1511	n/a	2	-1	n/a	n/a	n/a	n/a	n/a
3444.092	n/a	RECOG_TARGET	1722046	n/a	LTP103	ltpFR	5	3	0	RICE	1190	1	5	1	n/a	n/a	n/a	n/a	n/a
3445.008	n/a	RECOG_RESP	1722504	n/a	LTP103	ltpFR	5	3	0	RICE	1190	1	n/a	1	n/a	n/a	n/a	n/a	n/a
3445.736	n/a	RECOG_CONF	1722868	n/a	LTP103	ltpFR	5	3	0	RICE	1190	n/a	5	1	n/a	n/a	n/a	n/a	n/a
3447.202	n/a	RECOG_TARGET	1723601	n/a	LTP103	ltpFR	5	3	0	LAWYER	806	1	5	0	n/a	n/a	n/a	n/a	n/a
3447.88	n/a	RECOG_RESP	1723940	n/a	LTP103	ltpFR	5	3	0	LAWYER	806	1	n/a	0	n/a	n/a	n/a	n/a	n/a
3448.56	n/a	RECOG_CONF	1724280	n/a	LTP103	ltpFR	5	3	0	LAWYER	806	n/a	5	0	n/a	n/a	n/a	n/a	n/a
3449.858	n/a	RECOG_TARGET	1724929	n/a	LTP103	ltpFR	5	3	-1	APARTMENT	30	1	5	-1	n/a	n/a	n/a	n/a	n/a
3450.484	n/a	RECOG_RESP	1725242	n/a	LTP103	ltpFR	5	3	-1	APARTMENT	30	1	n/a	-1	n/a	n/a	n/a	n/a	n/a
3451.234	n/a	RECOG_CONF	1725617	n/a	LTP103	ltpFR	5	3	-1	APARTMENT	30	n/a	5	-1	n/a	n/a	n/a	n/a	n/a
3452.626	n/a	RECOG_TARGET	1726313	n/a	LTP103	ltpFR	5	3	0	BISCUIT	130	1	5	0	n/a	n/a	n/a	n/a	n/a
3453.254	n/a	RECOG_RESP	1726627	n/a	LTP103	ltpFR	5	3	0	BISCUIT	130	1	n/a	0	n/a	n/a	n/a	n/a	n/a
3453.956	n/a	RECOG_CONF	1726978	n/a	LTP103	ltpFR	5	3	0	BISCUIT	130	n/a	5	0	n/a	n/a	n/a	n/a	n/a
3455.236	n/a	RECOG_TARGET	1727618	n/a	LTP103	ltpFR	5	3	0	MAMMAL	861	1	2	1	n/a	n/a	n/a	n/a	n/a
3456.338	n/a	RECOG_RESP	1728169	n/a	LTP103	ltpFR	5	3	0	MAMMAL	861	1	n/a	1	n/a	n/a	n/a	n/a	n/a
3457.06	n/a	RECOG_CONF	1728530	n/a	LTP103	ltpFR	5	3	0	MAMMAL	861	n/a	2	1	n/a	n/a	n/a	n/a	n/a
3458.41	n/a	RECOG_TARGET	1729205	n/a	LTP103	ltpFR	5	3	1	HOSPITAL	721	1	3	0	n/a	n/a	n/a	n/a	n/a
3459.296	n/a	RECOG_RESP_VV	1729648	n/a	LTP103	ltpFR	5	3	1	HOSPITAL	721	0	n/a	0	n/a	n/a	n/a	n/a	n/a
3459.684	n/a	RECOG_RESP	1729842	n/a	LTP103	ltpFR	5	3	1	HOSPITAL	721	1	n/a	0	n/a	n/a	n/a	n/a	n/a
3460.354	n/a	RECOG_CONF	1730177	n/a	LTP103	ltpFR	5	3	1	HOSPITAL	721	n/a	3	0	n/a	n/a	n/a	n/a	n/a
3461.702	n/a	RECOG_TARGET	1730851	n/a	LTP103	ltpFR	5	3	-1	CROW	414	1	4	-1	n/a	n/a	n/a	n/a	n/a
3462.428	n/a	RECOG_RESP	1731214	n/a	LTP103	ltpFR	5	3	-1	CROW	414	1	n/a	-1	n/a	n/a	n/a	n/a	n/a
3463.098	n/a	RECOG_CONF	1731549	n/a	LTP103	ltpFR	5	3	-1	CROW	414	n/a	4	-1	n/a	n/a	n/a	n/a	n/a
3464.326	n/a	RECOG_LURE	1732163	n/a	LTP103	ltpFR	5	3	n/a	LOG	841	1	3	n/a	n/a	n/a	n/a	n/a	n/a
3464.998	n/a	RECOG_RESP	1732499	n/a	LTP103	ltpFR	5	3	n/a	LOG	841	1	n/a	n/a	n/a	n/a	n/a	n/a	n/a
3465.612	n/a	RECOG_CONF	1732806	n/a	LTP103	ltpFR	5	3	n/a	LOG	841	n/a	3	n/a	n/a	n/a	n/a	n/a	n/a
3466.874	n/a	RECOG_LURE	1733437	n/a	LTP103	ltpFR	5	3	n/a	GENTLEMAN	631	0	2	n/a	n/a	n/a	n/a	n/a	n/a
3467.802	n/a	RECOG_RESP	1733901	n/a	LTP103	ltpFR	5	3	n/a	GENTLEMAN	631	0	n/a	n/a	n/a	n/a	n/a	n/a	n/a
3468.494	n/a	RECOG_CONF	1734247	n/a	LTP103	ltpFR	5	3	n/a	GENTLEMAN	631	n/a	2	n/a	n/a	n/a	n/a	n/a	n/a
3477.3	n/a	REC_START	1738650	n/a	LTP103	ltpFR	5	4	n/a	n/a	n/a	n/a	n/a	n/a	n/a	n/a	n/a	n/a	n/a
3477.334	n/a	RECOG_TARGET	1738667	n/a	LTP103	ltpFR	5	4	0	SAND	1230	1	5	1	n/a	n/a	n/a	n/a	n/a
3478.184	n/a	RECOG_RESP_VV	1739092	n/a	LTP103	ltpFR	5	4	0	SAND	1230	0	n/a	1	n/a	n/a	n/a	n/a	n/a
3478.722	n/a	RECOG_RESP	1739361	n/a	LTP103	ltpFR	5	4	0	SAND	1230	1	n/a	1	n/a	n/a	n/a	n/a	n/a
3479.4	n/a	RECOG_CONF	1739700	n/a	LTP103	ltpFR	5	4	0	SAND	1230	n/a	5	1	n/a	n/a	n/a	n/a	n/a
3481.0	n/a	RECOG_TARGET	1740500	n/a	LTP103	ltpFR	5	4	0	HEN	703	1	5	1	n/a	n/a	n/a	n/a	n/a
3481.716	n/a	RECOG_RESP	1740858	n/a	LTP103	ltpFR	5	4	0	HEN	703	1	n/a	1	n/a	n/a	n/a	n/a	n/a
3482.364	n/a	RECOG_CONF	1741182	n/a	LTP103	ltpFR	5	4	0	HEN	703	n/a	5	1	n/a	n/a	n/a	n/a	n/a
3483.708	n/a	RECOG_LURE	1741854	n/a	LTP103	ltpFR	5	4	n/a	SCULPTURE	1258	0	2	n/a	n/a	n/a	n/a	n/a	n/a
3484.564	n/a	RECOG_RESP	1742282	n/a	LTP103	ltpFR	5	4	n/a	SCULPTURE	1258	0	n/a	n/a	n/a	n/a	n/a	n/a	n/a
3485.178	n/a	RECOG_CONF	1742589	n/a	LTP103	ltpFR	5	4	n/a	SCULPTURE	1258	n/a	2	n/a	n/a	n/a	n/a	n/a	n/a
3486.65	n/a	RECOG_TARGET	1743325	n/a	LTP103	ltpFR	5	4	1	KING	777	1	5	0	n/a	n/a	n/a	n/a	n/a
3487.372	n/a	RECOG_RESP	1743686	n/a	LTP103	ltpFR	5	4	1	KING	777	1	n/a	0	n/a	n/a	n/a	n/a	n/a
3488.06	n/a	RECOG_CONF	1744030	n/a	LTP103	ltpFR	5	4	1	KING	777	n/a	5	0	n/a	n/a	n/a	n/a	n/a
3489.626	n/a	RECOG_TARGET	1744813	n/a	LTP103	ltpFR	5	4	1	LIP	828	0	2	0	n/a	n/a	n/a	n/a	n/a
3490.43	n/a	RECOG_RESP	1745215	n/a	LTP103	ltpFR	5	4	1	LIP	828	0	n/a	0	n/a	n/a	n/a	n/a	n/a
3491.054	n/a	RECOG_CONF	1745527	n/a	LTP103	ltpFR	5	4	1	LIP	828	n/a	2	0	n/a	n/a	n/a	n/a	n/a
3492.474	n/a	RECOG_LURE	1746237	n/a	LTP103	ltpFR	5	4	n/a	ADOLESCENT	7	0	3	n/a	n/a	n/a	n/a	n/a	n/a
3493.458	n/a	RECOG_RESP	1746729	n/a	LTP103	ltpFR	5	4	n/a	ADOLESCENT	7	0	n/a	n/a	n/a	n/a	n/a	n/a	n/a
3494.058	n/a	RECOG_CONF	1747029	n/a	LTP103	ltpFR	5	4	n/a	ADOLESCENT	7	n/a	3	n/a	n/a	n/a	n/a	n/a	n/a
3495.526	n/a	RECOG_TARGET	1747763	n/a	LTP103	ltpFR	5	4	1	SPOUSE	1358	0	2	0	n/a	n/a	n/a	n/a	n/a
3496.592	n/a	RECOG_RESP	1748296	n/a	LTP103	ltpFR	5	4	1	SPOUSE	1358	0	n/a	0	n/a	n/a	n/a	n/a	n/a
3497.73	n/a	RECOG_CONF	1748865	n/a	LTP103	ltpFR	5	4	1	SPOUSE	1358	n/a	2	0	n/a	n/a	n/a	n/a	n/a
3499.2	n/a	RECOG_LURE	1749600	n/a	LTP103	ltpFR	5	4	n/a	NEST	945	1	2	n/a	n/a	n/a	n/a	n/a	n/a
3499.874	n/a	RECOG_RESP	1749937	n/a	LTP103	ltpFR	5	4	n/a	NEST	945	1	n/a	n/a	n/a	n/a	n/a	n/a	n/a
3500.664	n/a	RECOG_CONF	1750332	n/a	LTP103	ltpFR	5	4	n/a	NEST	945	n/a	2	n/a	n/a	n/a	n/a	n/a	n/a
3501.99	n/a	RECOG_LURE	1750995	n/a	LTP103	ltpFR	5	4	n/a	LEADER	807	1	1	n/a	n/a	n/a	n/a	n/a	n/a
3502.598	n/a	RECOG_RESP	1751299	n/a	LTP103	ltpFR	5	4	n/a	LEADER	807	1	n/a	n/a	n/a	n/a	n/a	n/a	n/a
3503.338	n/a	RECOG_CONF	1751669	n/a	LTP103	ltpFR	5	4	n/a	LEADER	807	n/a	1	n/a	n/a	n/a	n/a	n/a	n/a
3504.742	n/a	RECOG_LURE	1752371	n/a	LTP103	ltpFR	5	4	n/a	RECORD	1176	1	2	n/a	n/a	n/a	n/a	n/a	n/a
3505.462	n/a	RECOG_RESP	1752731	n/a	LTP103	ltpFR	5	4	n/a	RECORD	1176	1	n/a	n/a	n/a	n/a	n/a	n/a	n/a
3506.17	n/a	RECOG_CONF	1753085	n/a	LTP103	ltpFR	5	4	n/a	RECORD	1176	n/a	2	n/a	n/a	n/a	n/a	n/a	n/a
3507.45	n/a	RECOG_LURE	1753725	n/a	LTP103	ltpFR	5	4	n/a	SHARK	1275	0	1	n/a	n/a	n/a	n/a	n/a	n/a
3509.414	n/a	RECOG_RESP	1754707	n/a	LTP103	ltpFR	5	4	n/a	SHARK	1275	0	n/a	n/a	n/a	n/a	n/a	n/a	n/a
3510.192	n/a	RECOG_CONF	1755096	n/a	LTP103	ltpFR	5	4	n/a	SHARK	1275	n/a	1	n/a	n/a	n/a	n/a	n/a	n/a
3511.65	n/a	RECOG_TARGET	1755825	n/a	LTP103	ltpFR	5	4	1	PLUTO	1092	0	4	0	n/a	n/a	n/a	n/a	n/a
3512.562	n/a	RECOG_RESP	1756281	n/a	LTP103	ltpFR	5	4	1	PLUTO	1092	0	n/a	0	n/a	n/a	n/a	n/a	n/a
3513.284	n/a	RECOG_CONF	1756642	n/a	LTP103	ltpFR	5	4	1	PLUTO	1092	n/a	4	0	n/a	n/a	n/a	n/a	n/a
3514.65	n/a	RECOG_LURE	1757325	n/a	LTP103	ltpFR	5	4	n/a	SHUTTER	1300	1	2	n/a	n/a	n/a	n/a	n/a	n/a
3515.53	n/a	RECOG_RESP	1757765	n/a	LTP103	ltpFR	5	4	n/a	SHUTTER	1300	1	n/a	n/a	n/a	n/a	n/a	n/a	n/a
3516.15	n/a	RECOG_CONF	1758075	n/a	LTP103	ltpFR	5	4	n/a	SHUTTER	1300	n/a	2	n/a	n/a	n/a	n/a	n/a	n/a
3517.584	n/a	RECOG_TARGET	1758792	n/a	LTP103	ltpFR	5	4	1	PANTHER	1009	1	2	0	n/a	n/a	n/a	n/a	n/a
3518.388	n/a	RECOG_RESP	1759194	n/a	LTP103	ltpFR	5	4	1	PANTHER	1009	1	n/a	0	n/a	n/a	n/a	n/a	n/a
3519.122	n/a	RECOG_CONF	1759561	n/a	LTP103	ltpFR	5	4	1	PANTHER	1009	n/a	2	0	n/a	n/a	n/a	n/a	n/a
3520.616	n/a	RECOG_TARGET	1760308	n/a	LTP103	ltpFR	5	4	1	FORT	595	0	2	1	n/a	n/a	n/a	n/a	n/a
3522.784	n/a	RECOG_RESP	1761392	n/a	LTP103	ltpFR	5	4	1	FORT	595	0	n/a	1	n/a	n/a	n/a	n/a	n/a
3524.39	n/a	RECOG_CONF	1762195	n/a	LTP103	ltpFR	5	4	1	FORT	595	n/a	2	1	n/a	n/a	n/a	n/a	n/a
3525.666	n/a	RECOG_TARGET	1762833	n/a	LTP103	ltpFR	5	4	1	SHEPHERD	1283	1	4	0	n/a	n/a	n/a	n/a	n/a
3526.416	n/a	RECOG_RESP	1763208	n/a	LTP103	ltpFR	5	4	1	SHEPHERD	1283	1	n/a	0	n/a	n/a	n/a	n/a	n/a
3526.944	n/a	RECOG_CONF	1763472	n/a	LTP103	ltpFR	5	4	1	SHEPHERD	1283	n/a	4	0	n/a	n/a	n/a	n/a	n/a
3528.232	n/a	RECOG_TARGET	1764116	n/a	LTP103	ltpFR	5	4	1	GROCERY	664	1	4	0	n/a	n/a	n/a	n/a	n/a
3528.87	n/a	RECOG_RESP	1764435	n/a	LTP103	ltpFR	5	4	1	GROCERY	664	1	n/a	0	n/a	n/a	n/a	n/a	n/a
3529.538	n/a	RECOG_CONF	1764769	n/a	LTP103	ltpFR	5	4	1	GROCERY	664	n/a	4	0	n/a	n/a	n/a	n/a	n/a
3530.682	n/a	RECOG_TARGET	1765341	n/a	LTP103	ltpFR	5	4	-1	CHIEF	298	1	4	-1	n/a	n/a	n/a	n/a	n/a
3531.4	n/a	RECOG_RESP	1765700	n/a	LTP103	ltpFR	5	4	-1	CHIEF	298	1	n/a	-1	n/a	n/a	n/a	n/a	n/a
3532.122	n/a	RECOG_CONF	1766061	n/a	LTP103	ltpFR	5	4	-1	CHIEF	298	n/a	4	-1	n/a	n/a	n/a	n/a	n/a
3533.49	n/a	RECOG_TARGET	1766745	n/a	LTP103	ltpFR	5	4	0	SUPERMARKET	1409	1	5	1	n/a	n/a	n/a	n/a	n/a
3534.128	n/a	RECOG_RESP	1767064	n/a	LTP103	ltpFR	5	4	0	SUPERMARKET	1409	1	n/a	1	n/a	n/a	n/a	n/a	n/a
3534.826	n/a	RECOG_CONF	1767413	n/a	LTP103	ltpFR	5	4	0	SUPERMARKET	1409	n/a	5	1	n/a	n/a	n/a	n/a	n/a
3536.392	n/a	RECOG_TARGET	1768196	n/a	LTP103	ltpFR	5	4	0	VENUS	1557	1	2	1	n/a	n/a	n/a	n/a	n/a
3537.916	n/a	RECOG_RESP	1768958	n/a	LTP103	ltpFR	5	4	0	VENUS	1557	1	n/a	1	n/a	n/a	n/a	n/a	n/a
3538.618	n/a	RECOG_CONF	1769309	n/a	LTP103	ltpFR	5	4	0	VENUS	1557	n/a	2	1	n/a	n/a	n/a	n/a	n/a
3542.052	n/a	REC_START	1771026	n/a	LTP103	ltpFR	5	5	n/a	n/a	n/a	n/a	n/a	n/a	n/a	n/a	n/a	n/a	n/a
3542.09	n/a	RECOG_LURE	1771045	n/a	LTP103	ltpFR	5	5	n/a	MAYONNAISE	880	1	2	n/a	n/a	n/a	n/a	n/a	n/a
3542.96	n/a	RECOG_RESP	1771480	n/a	LTP103	ltpFR	5	5	n/a	MAYONNAISE	880	1	n/a	n/a	n/a	n/a	n/a	n/a	n/a
3543.782	n/a	RECOG_CONF	1771891	n/a	LTP103	ltpFR	5	5	n/a	MAYONNAISE	880	n/a	2	n/a	n/a	n/a	n/a	n/a	n/a
3545.082	n/a	RECOG_TARGET	1772541	n/a	LTP103	ltpFR	5	5	-1	DESK	452	0	2	-1	n/a	n/a	n/a	n/a	n/a
3546.466	n/a	RECOG_RESP	1773233	n/a	LTP103	ltpFR	5	5	-1	DESK	452	0	n/a	-1	n/a	n/a	n/a	n/a	n/a
3547.134	n/a	RECOG_CONF	1773567	n/a	LTP103	ltpFR	5	5	-1	DESK	452	n/a	2	-1	n/a	n/a	n/a	n/a	n/a
3548.424	n/a	RECOG_TARGET	1774212	n/a	LTP103	ltpFR	5	5	1	SOCIETY	1338	1	5	0	n/a	n/a	n/a	n/a	n/a
3549.18	n/a	RECOG_RESP	1774590	n/a	LTP103	ltpFR	5	5	1	SOCIETY	1338	1	n/a	0	n/a	n/a	n/a	n/a	n/a
3549.928	n/a	RECOG_CONF	1774964	n/a	LTP103	ltpFR	5	5	1	SOCIETY	1338	n/a	5	0	n/a	n/a	n/a	n/a	n/a
3551.224	n/a	RECOG_TARGET	1775612	n/a	LTP103	ltpFR	5	5	0	EMPLOYER	532	1	5	0	n/a	n/a	n/a	n/a	n/a
3551.888	n/a	RECOG_RESP	1775944	n/a	LTP103	ltpFR	5	5	0	EMPLOYER	532	1	n/a	0	n/a	n/a	n/a	n/a	n/a
3552.532	n/a	RECOG_CONF	1776266	n/a	LTP103	ltpFR	5	5	0	EMPLOYER	532	n/a	5	0	n/a	n/a	n/a	n/a	n/a
3553.948	n/a	RECOG_TARGET	1776974	n/a	LTP103	ltpFR	5	5	1	COCOON	339	1	5	0	n/a	n/a	n/a	n/a	n/a
3554.638	n/a	RECOG_RESP	1777319	n/a	LTP103	ltpFR	5	5	1	COCOON	339	1	n/a	0	n/a	n/a	n/a	n/a	n/a
3555.338	n/a	RECOG_CONF	1777669	n/a	LTP103	ltpFR	5	5	1	COCOON	339	n/a	5	0	n/a	n/a	n/a	n/a	n/a
3556.724	n/a	RECOG_LURE	1778362	n/a	LTP103	ltpFR	5	5	n/a	TECHNICIAN	1443	1	4	n/a	n/a	n/a	n/a	n/a	n/a
3557.332	n/a	RECOG_RESP	1778666	n/a	LTP103	ltpFR	5	5	n/a	TECHNICIAN	1443	1	n/a	n/a	n/a	n/a	n/a	n/a	n/a
3558.13	n/a	RECOG_CONF	1779065	n/a	LTP103	ltpFR	5	5	n/a	TECHNICIAN	1443	n/a	4	n/a	n/a	n/a	n/a	n/a	n/a
3559.416	n/a	RECOG_TARGET	1779708	n/a	LTP103	ltpFR	5	5	0	EMPLOYEE	531	1	5	1	n/a	n/a	n/a	n/a	n/a
3559.996	n/a	RECOG_RESP	1779998	n/a	LTP103	ltpFR	5	5	0	EMPLOYEE	531	1	n/a	1	n/a	n/a	n/a	n/a	n/a
3560.646	n/a	RECOG_CONF	1780323	n/a	LTP103	ltpFR	5	5	0	EMPLOYEE	531	n/a	5	1	n/a	n/a	n/a	n/a	n/a
3562.014	n/a	RECOG_LURE	1781007	n/a	LTP103	ltpFR	5	5	n/a	SAUCER	1237	0	3	n/a	n/a	n/a	n/a	n/a	n/a
3562.82	n/a	RECOG_RESP	1781410	n/a	LTP103	ltpFR	5	5	n/a	SAUCER	1237	0	n/a	n/a	n/a	n/a	n/a	n/a	n/a
3563.558	n/a	RECOG_CONF	1781779	n/a	LTP103	ltpFR	5	5	n/a	SAUCER	1237	n/a	3	n/a	n/a	n/a	n/a	n/a	n/a
3564.832	n/a	RECOG_TARGET	1782416	n/a	LTP103	ltpFR	5	5	1	MARSH	874	1	5	0	n/a	n/a	n/a	n/a	n/a
3565.718	n/a	RECOG_RESP	1782859	n/a	LTP103	ltpFR	5	5	1	MARSH	874	1	n/a	0	n/a	n/a	n/a	n/a	n/a
3566.582	n/a	RECOG_CONF	1783291	n/a	LTP103	ltpFR	5	5	1	MARSH	874	n/a	5	0	n/a	n/a	n/a	n/a	n/a
3568.156	n/a	RECOG_TARGET	1784078	n/a	LTP103	ltpFR	5	5	1	ICING	732	1	5	1	n/a	n/a	n/a	n/a	n/a
3568.906	n/a	RECOG_RESP	1784453	n/a	LTP103	ltpFR	5	5	1	ICING	732	1	n/a	1	n/a	n/a	n/a	n/a	n/a
3569.674	n/a	RECOG_CONF	1784837	n/a	LTP103	ltpFR	5	5	1	ICING	732	n/a	5	1	n/a	n/a	n/a	n/a	n/a
3571.164	n/a	RECOG_TARGET	1785582	n/a	LTP103	ltpFR	5	5	1	FUDGE	611	1	2	1	n/a	n/a	n/a	n/a	n/a
3571.884	n/a	RECOG_RESP	1785942	n/a	LTP103	ltpFR	5	5	1	FUDGE	611	1	n/a	1	n/a	n/a	n/a	n/a	n/a
3572.718	n/a	RECOG_CONF	1786359	n/a	LTP103	ltpFR	5	5	1	FUDGE	611	n/a	2	1	n/a	n/a	n/a	n/a	n/a
3574.038	n/a	RECOG_LURE	1787019	n/a	LTP103	ltpFR	5	5	n/a	SUGAR	1401	1	2	n/a	n/a	n/a	n/a	n/a	n/a
3574.654	n/a	RECOG_RESP	1787327	n/a	LTP103	ltpFR	5	5	n/a	SUGAR	1401	1	n/a	n/a	n/a	n/a	n/a	n/a	n/a
3575.652	n/a	RECOG_CONF	1787826	n/a	LTP103	ltpFR	5	5	n/a	SUGAR	1401	n/a	2	n/a	n/a	n/a	n/a	n/a	n/a
3577.332	n/a	RECOG_TARGET	1788666	n/a	LTP103	ltpFR	5	5	1	CLAMP	316	1	1	0	n/a	n/a	n/a	n/a	n/a
3578.082	n/a	RECOG_RESP	1789041	n/a	LTP103	ltpFR	5	5	1	CLAMP	316	1	n/a	0	n/a	n/a	n/a	n/a	n/a
3578.804	n/a	RECOG_CONF	1789402	n/a	LTP103	ltpFR	5	5	1	CLAMP	316	n/a	1	0	n/a	n/a	n/a	n/a	n/a
3580.182	n/a	RECOG_TARGET	1790091	n/a	LTP103	ltpFR	5	5	1	SKELETON	1314	1	5	0	n/a	n/a	n/a	n/a	n/a
3580.97	n/a	RECOG_RESP	1790485	n/a	LTP103	ltpFR	5	5	1	SKELETON	1314	1	n/a	0	n/a	n/a	n/a	n/a	n/a
3581.598	n/a	RECOG_CONF	1790799	n/a	LTP103	ltpFR	5	5	1	SKELETON	1314	n/a	5	0	n/a	n/a	n/a	n/a	n/a
3582.948	n/a	RECOG_TARGET	1791474	n/a	LTP103	ltpFR	5	5	-1	TABLE	1426	1	2	-1	n/a	n/a	n/a	n/a	n/a
3583.714	n/a	RECOG_RESP	1791857	n/a	LTP103	ltpFR	5	5	-1	TABLE	1426	1	n/a	-1	n/a	n/a	n/a	n/a	n/a
3584.442	n/a	RECOG_CONF	1792221	n/a	LTP103	ltpFR	5	5	-1	TABLE	1426	n/a	2	-1	n/a	n/a	n/a	n/a	n/a
3585.782	n/a	RECOG_TARGET	1792891	n/a	LTP103	ltpFR	5	5	-1	CRATER	400	1	3	-1	n/a	n/a	n/a	n/a	n/a
3586.642	n/a	RECOG_RESP	1793321	n/a	LTP103	ltpFR	5	5	-1	CRATER	400	1	n/a	-1	n/a	n/a	n/a	n/a	n/a
3587.346	n/a	RECOG_CONF	1793673	n/a	LTP103	ltpFR	5	5	-1	CRATER	400	n/a	3	-1	n/a	n/a	n/a	n/a	n/a
3588.606	n/a	RECOG_LURE	1794303	n/a	LTP103	ltpFR	5	5	n/a	ORGAN	984	1	2	n/a	n/a	n/a	n/a	n/a	n/a
3589.282	n/a	RECOG_RESP	1794641	n/a	LTP103	ltpFR	5	5	n/a	ORGAN	984	1	n/a	n/a	n/a	n/a	n/a	n/a	n/a
3590.0	n/a	RECOG_CONF	1795000	n/a	LTP103	ltpFR	5	5	n/a	ORGAN	984	n/a	2	n/a	n/a	n/a	n/a	n/a	n/a
3591.356	n/a	RECOG_TARGET	1795678	n/a	LTP103	ltpFR	5	5	-1	PENDULUM	1043	1	5	-1	n/a	n/a	n/a	n/a	n/a
3592.21	n/a	RECOG_RESP	1796105	n/a	LTP103	ltpFR	5	5	-1	PENDULUM	1043	1	n/a	-1	n/a	n/a	n/a	n/a	n/a
3592.852	n/a	RECOG_CONF	1796426	n/a	LTP103	ltpFR	5	5	-1	PENDULUM	1043	n/a	5	-1	n/a	n/a	n/a	n/a	n/a
3594.08	n/a	RECOG_LURE	1797040	n/a	LTP103	ltpFR	5	5	n/a	OUTFIT	988	0	2	n/a	n/a	n/a	n/a	n/a	n/a
3595.108	n/a	RECOG_RESP	1797554	n/a	LTP103	ltpFR	5	5	n/a	OUTFIT	988	0	n/a	n/a	n/a	n/a	n/a	n/a	n/a
3595.688	n/a	RECOG_CONF	1797844	n/a	LTP103	ltpFR	5	5	n/a	OUTFIT	988	n/a	2	n/a	n/a	n/a	n/a	n/a	n/a
3596.964	n/a	RECOG_LURE	1798482	n/a	LTP103	ltpFR	5	5	n/a	DRUM	502	0	1	n/a	n/a	n/a	n/a	n/a	n/a
3597.908	n/a	RECOG_RESP	1798954	n/a	LTP103	ltpFR	5	5	n/a	DRUM	502	0	n/a	n/a	n/a	n/a	n/a	n/a	n/a
3598.59	n/a	RECOG_CONF	1799295	n/a	LTP103	ltpFR	5	5	n/a	DRUM	502	n/a	1	n/a	n/a	n/a	n/a	n/a	n/a
3612.604	n/a	REC_START	1806302	n/a	LTP103	ltpFR	5	6	n/a	n/a	n/a	n/a	n/a	n/a	n/a	n/a	n/a	n/a	n/a
3612.638	n/a	RECOG_TARGET	1806319	n/a	LTP103	ltpFR	5	6	0	TUXEDO	1525	0	4	1	n/a	n/a	n/a	n/a	n/a
3614.39	n/a	RECOG_RESP	1807195	n/a	LTP103	ltpFR	5	6	0	TUXEDO	1525	0	n/a	1	n/a	n/a	n/a	n/a	n/a
3615.062	n/a	RECOG_CONF	1807531	n/a	LTP103	ltpFR	5	6	0	TUXEDO	1525	n/a	4	1	n/a	n/a	n/a	n/a	n/a
3616.356	n/a	RECOG_TARGET	1808178	n/a	LTP103	ltpFR	5	6	-1	CHIP	303	1	2	-1	n/a	n/a	n/a	n/a	n/a
3617.284	n/a	RECOG_RESP	1808642	n/a	LTP103	ltpFR	5	6	-1	CHIP	303	1	n/a	-1	n/a	n/a	n/a	n/a	n/a
3617.948	n/a	RECOG_CONF	1808974	n/a	LTP103	ltpFR	5	6	-1	CHIP	303	n/a	2	-1	n/a	n/a	n/a	n/a	n/a
3619.43	n/a	RECOG_TARGET	1809715	n/a	LTP103	ltpFR	5	6	0	SCRIBBLE	1256	1	5	0	n/a	n/a	n/a	n/a	n/a
3620.092	n/a	RECOG_RESP	1810046	n/a	LTP103	ltpFR	5	6	0	SCRIBBLE	1256	1	n/a	0	n/a	n/a	n/a	n/a	n/a
3620.652	n/a	RECOG_CONF	1810326	n/a	LTP103	ltpFR	5	6	0	SCRIBBLE	1256	n/a	5	0	n/a	n/a	n/a	n/a	n/a
3622.03	n/a	RECOG_TARGET	1811015	n/a	LTP103	ltpFR	5	6	1	PENGUIN	1044	1	5	0	n/a	n/a	n/a	n/a	n/a
3622.612	n/a	RECOG_RESP	1811306	n/a	LTP103	ltpFR	5	6	1	PENGUIN	1044	1	n/a	0	n/a	n/a	n/a	n/a	n/a
3623.266	n/a	RECOG_CONF	1811633	n/a	LTP103	ltpFR	5	6	1	PENGUIN	1044	n/a	5	0	n/a	n/a	n/a	n/a	n/a
3624.546	n/a	RECOG_LURE	1812273	n/a	LTP103	ltpFR	5	6	n/a	CAP	236	1	5	n/a	n/a	n/a	n/a	n/a	n/a
3625.15	n/a	RECOG_RESP	1812575	n/a	LTP103	ltpFR	5	6	n/a	CAP	236	1	n/a	n/a	n/a	n/a	n/a	n/a	n/a
3625.8	n/a	RECOG_CONF	1812900	n/a	LTP103	ltpFR	5	6	n/a	CAP	236	n/a	5	n/a	n/a	n/a	n/a	n/a	n/a
3627.138	n/a	RECOG_TARGET	1813569	n/a	LTP103	ltpFR	5	6	-1	SUBURB	1399	1	5	-1	n/a	n/a	n/a	n/a	n/a
3627.8	n/a	RECOG_RESP	1813900	n/a	LTP103	ltpFR	5	6	-1	SUBURB	1399	1	n/a	-1	n/a	n/a	n/a	n/a	n/a
3628.444	n/a	RECOG_CONF	1814222	n/a	LTP103	ltpFR	5	6	-1	SUBURB	1399	n/a	5	-1	n/a	n/a	n/a	n/a	n/a
3629.622	n/a	RECOG_TARGET	1814811	n/a	LTP103	ltpFR	5	6	1	CHISEL	305	1	5	0	n/a	n/a	n/a	n/a	n/a
3630.604	n/a	RECOG_RESP	1815302	n/a	LTP103	ltpFR	5	6	1	CHISEL	305	1	n/a	0	n/a	n/a	n/a	n/a	n/a
3631.266	n/a	RECOG_CONF	1815633	n/a	LTP103	ltpFR	5	6	1	CHISEL	305	n/a	5	0	n/a	n/a	n/a	n/a	n/a
3632.612	n/a	RECOG_TARGET	1816306	n/a	LTP103	ltpFR	5	6	-1	ALBUM	14	1	3	-1	n/a	n/a	n/a	n/a	n/a
3634.256	n/a	RECOG_RESP_VV	1817128	n/a	LTP103	ltpFR	5	6	-1	ALBUM	14	0	n/a	-1	n/a	n/a	n/a	n/a	n/a
3634.898	n/a	RECOG_RESP	1817449	n/a	LTP103	ltpFR	5	6	-1	ALBUM	14	1	n/a	-1	n/a	n/a	n/a	n/a	n/a
3635.798	n/a	RECOG_CONF	1817899	n/a	LTP103	ltpFR	5	6	-1	ALBUM	14	n/a	3	-1	n/a	n/a	n/a	n/a	n/a
3637.214	n/a	RECOG_TARGET	1818607	n/a	LTP103	ltpFR	5	6	-1	UNIVERSE	1540	1	2	-1	n/a	n/a	n/a	n/a	n/a
3637.958	n/a	RECOG_RESP	1818979	n/a	LTP103	ltpFR	5	6	-1	UNIVERSE	1540	1	n/a	-1	n/a	n/a	n/a	n/a	n/a
3638.422	n/a	RECOG_CONF	1819211	n/a	LTP103	ltpFR	5	6	-1	UNIVERSE	1540	n/a	2	-1	n/a	n/a	n/a	n/a	n/a
3639.73	n/a	RECOG_TARGET	1819865	n/a	LTP103	ltpFR	5	6	1	JUVENILE	767	1	5	0	n/a	n/a	n/a	n/a	n/a
3640.462	n/a	RECOG_RESP	1820231	n/a	LTP103	ltpFR	5	6	1	JUVENILE	767	1	n/a	0	n/a	n/a	n/a	n/a	n/a
3641.146	n/a	RECOG_CONF	1820573	n/a	LTP103	ltpFR	5	6	1	JUVENILE	767	n/a	5	0	n/a	n/a	n/a	n/a	n/a
3642.504	n/a	RECOG_LURE	1821252	n/a	LTP103	ltpFR	5	6	n/a	CUBE	420	1	3	n/a	n/a	n/a	n/a	n/a	n/a
3643.39	n/a	RECOG_RESP_VV	1821695	n/a	LTP103	ltpFR	5	6	n/a	CUBE	420	0	n/a	n/a	n/a	n/a	n/a	n/a	n/a
3643.774	n/a	RECOG_RESP	1821887	n/a	LTP103	ltpFR	5	6	n/a	CUBE	420	1	n/a	n/a	n/a	n/a	n/a	n/a	n/a
3644.438	n/a	RECOG_CONF	1822219	n/a	LTP103	ltpFR	5	6	n/a	CUBE	420	n/a	3	n/a	n/a	n/a	n/a	n/a	n/a
3645.878	n/a	RECOG_TARGET	1822939	n/a	LTP103	ltpFR	5	6	0	PRINCESS	1125	1	5	1	n/a	n/a	n/a	n/a	n/a
3646.772	n/a	RECOG_RESP	1823386	n/a	LTP103	ltpFR	5	6	0	PRINCESS	1125	1	n/a	1	n/a	n/a	n/a	n/a	n/a
3647.412	n/a	RECOG_CONF	1823706	n/a	LTP103	ltpFR	5	6	0	PRINCESS	1125	n/a	5	1	n/a	n/a	n/a	n/a	n/a
3648.754	n/a	RECOG_TARGET	1824377	n/a	LTP103	ltpFR	5	6	0	CAT	257	1	5	0	n/a	n/a	n/a	n/a	n/a
3649.492	n/a	RECOG_RESP	1824746	n/a	LTP103	ltpFR	5	6	0	CAT	257	1	n/a	0	n/a	n/a	n/a	n/a	n/a
3650.234	n/a	RECOG_CONF	1825117	n/a	LTP103	ltpFR	5	6	0	CAT	257	n/a	5	0	n/a	n/a	n/a	n/a	n/a
3651.57	n/a	RECOG_TARGET	1825785	n/a	LTP103	ltpFR	5	6	-1	ISLAND	745	1	5	-1	n/a	n/a	n/a	n/a	n/a
3652.17	n/a	RECOG_RESP	1826085	n/a	LTP103	ltpFR	5	6	-1	ISLAND	745	1	n/a	-1	n/a	n/a	n/a	n/a	n/a
3652.878	n/a	RECOG_CONF	1826439	n/a	LTP103	ltpFR	5	6	-1	ISLAND	745	n/a	5	-1	n/a	n/a	n/a	n/a	n/a
3654.196	n/a	RECOG_TARGET	1827098	n/a	LTP103	ltpFR	5	6	1	PONY	1102	1	2	1	n/a	n/a	n/a	n/a	n/a
3655.748	n/a	RECOG_RESP	1827874	n/a	LTP103	ltpFR	5	6	1	PONY	1102	1	n/a	1	n/a	n/a	n/a	n/a	n/a
3656.512	n/a	RECOG_CONF	1828256	n/a	LTP103	ltpFR	5	6	1	PONY	1102	n/a	2	1	n/a	n/a	n/a	n/a	n/a
3657.862	n/a	RECOG_TARGET	1828931	n/a	LTP103	ltpFR	5	6	1	PUBLICATION	1136	0	3	0	n/a	n/a	n/a	n/a	n/a
3659.09	n/a	RECOG_RESP	1829545	n/a	LTP103	ltpFR	5	6	1	PUBLICATION	1136	0	n/a	0	n/a	n/a	n/a	n/a	n/a
3659.694	n/a	RECOG_CONF	1829847	n/a	LTP103	ltpFR	5	6	1	PUBLICATION	1136	n/a	3	0	n/a	n/a	n/a	n/a	n/a
3661.02	n/a	RECOG_TARGET	1830510	n/a	LTP103	ltpFR	5	6	-1	CURB	426	0	2	-1	n/a	n/a	n/a	n/a	n/a
3662.108	n/a	RECOG_RESP	1831054	n/a	LTP103	ltpFR	5	6	-1	CURB	426	0	n/a	-1	n/a	n/a	n/a	n/a	n/a
3662.698	n/a	RECOG_CONF	1831349	n/a	LTP103	ltpFR	5	6	-1	CURB	426	n/a	2	-1	n/a	n/a	n/a	n/a	n/a
3664.054	n/a	RECOG_TARGET	1832027	n/a	LTP103	ltpFR	5	6	0	BRANDY	169	1	5	0	n/a	n/a	n/a	n/a	n/a
3664.922	n/a	RECOG_RESP	1832461	n/a	LTP103	ltpFR	5	6	0	BRANDY	169	1	n/a	0	n/a	n/a	n/a	n/a	n/a
3665.64	n/a	RECOG_CONF	1832820	n/a	LTP103	ltpFR	5	6	0	BRANDY	169	n/a	5	0	n/a	n/a	n/a	n/a	n/a
3666.838	n/a	RECOG_TARGET	1833419	n/a	LTP103	ltpFR	5	6	-1	TULIP	1517	1	5	-1	n/a	n/a	n/a	n/a	n/a
3667.516	n/a	RECOG_RESP	1833758	n/a	LTP103	ltpFR	5	6	-1	TULIP	1517	1	n/a	-1	n/a	n/a	n/a	n/a	n/a
3668.204	n/a	RECOG_CONF	1834102	n/a	LTP103	ltpFR	5	6	-1	TULIP	1517	n/a	5	-1	n/a	n/a	n/a	n/a	n/a
3669.688	n/a	RECOG_TARGET	1834844	n/a	LTP103	ltpFR	5	6	0	GORILLA	650	1	5	0	n/a	n/a	n/a	n/a	n/a
3670.3	n/a	RECOG_RESP	1835150	n/a	LTP103	ltpFR	5	6	0	GORILLA	650	1	n/a	0	n/a	n/a	n/a	n/a	n/a
3671.088	n/a	RECOG_CONF	1835544	n/a	LTP103	ltpFR	5	6	0	GORILLA	650	n/a	5	0	n/a	n/a	n/a	n/a	n/a
3674.714	n/a	REC_START	1837357	n/a	LTP103	ltpFR	5	7	n/a	n/a	n/a	n/a	n/a	n/a	n/a	n/a	n/a	n/a	n/a
3674.746	n/a	RECOG_TARGET	1837373	n/a	LTP103	ltpFR	5	7	1	THORN	1459	1	2	0	n/a	n/a	n/a	n/a	n/a
3675.442	n/a	RECOG_RESP	1837721	n/a	LTP103	ltpFR	5	7	1	THORN	1459	1	n/a	0	n/a	n/a	n/a	n/a	n/a
3676.006	n/a	RECOG_CONF	1838003	n/a	LTP103	ltpFR	5	7	1	THORN	1459	n/a	2	0	n/a	n/a	n/a	n/a	n/a
3677.43	n/a	RECOG_TARGET	1838715	n/a	LTP103	ltpFR	5	7	1	FEAST	556	1	2	0	n/a	n/a	n/a	n/a	n/a
3678.406	n/a	RECOG_RESP	1839203	n/a	LTP103	ltpFR	5	7	1	FEAST	556	1	n/a	0	n/a	n/a	n/a	n/a	n/a
3679.14	n/a	RECOG_CONF	1839570	n/a	LTP103	ltpFR	5	7	1	FEAST	556	n/a	2	0	n/a	n/a	n/a	n/a	n/a
3680.58	n/a	RECOG_LURE	1840290	n/a	LTP103	ltpFR	5	7	n/a	HAM	678	1	3	n/a	n/a	n/a	n/a	n/a	n/a
3681.658	n/a	RECOG_RESP	1840829	n/a	LTP103	ltpFR	5	7	n/a	HAM	678	1	n/a	n/a	n/a	n/a	n/a	n/a	n/a
3682.362	n/a	RECOG_CONF	1841181	n/a	LTP103	ltpFR	5	7	n/a	HAM	678	n/a	3	n/a	n/a	n/a	n/a	n/a	n/a
3683.778	n/a	RECOG_TARGET	1841889	n/a	LTP103	ltpFR	5	7	0	RUST	1219	1	5	0	n/a	n/a	n/a	n/a	n/a
3684.518	n/a	RECOG_RESP	1842259	n/a	LTP103	ltpFR	5	7	0	RUST	1219	1	n/a	0	n/a	n/a	n/a	n/a	n/a
3685.186	n/a	RECOG_CONF	1842593	n/a	LTP103	ltpFR	5	7	0	RUST	1219	n/a	5	0	n/a	n/a	n/a	n/a	n/a
3686.52	n/a	RECOG_TARGET	1843260	n/a	LTP103	ltpFR	5	7	0	BRIDE	173	1	5	0	n/a	n/a	n/a	n/a	n/a
3687.18	n/a	RECOG_RESP	1843590	n/a	LTP103	ltpFR	5	7	0	BRIDE	173	1	n/a	0	n/a	n/a	n/a	n/a	n/a
3688.03	n/a	RECOG_CONF	1844015	n/a	LTP103	ltpFR	5	7	0	BRIDE	173	n/a	5	0	n/a	n/a	n/a	n/a	n/a
3689.386	n/a	RECOG_TARGET	1844693	n/a	LTP103	ltpFR	5	7	0	CHAUFFEUR	283	1	5	0	n/a	n/a	n/a	n/a	n/a
3690.014	n/a	RECOG_RESP	1845007	n/a	LTP103	ltpFR	5	7	0	CHAUFFEUR	283	1	n/a	0	n/a	n/a	n/a	n/a	n/a
3690.674	n/a	RECOG_CONF	1845337	n/a	LTP103	ltpFR	5	7	0	CHAUFFEUR	283	n/a	5	0	n/a	n/a	n/a	n/a	n/a
3692.052	n/a	RECOG_TARGET	1846026	n/a	LTP103	ltpFR	5	7	0	BIRD	129	0	2	0	n/a	n/a	n/a	n/a	n/a
3693.642	n/a	RECOG_RESP	1846821	n/a	LTP103	ltpFR	5	7	0	BIRD	129	0	n/a	0	n/a	n/a	n/a	n/a	n/a
3694.564	n/a	RECOG_CONF	1847282	n/a	LTP103	ltpFR	5	7	0	BIRD	129	n/a	2	0	n/a	n/a	n/a	n/a	n/a
3696.044	n/a	RECOG_TARGET	1848022	n/a	LTP103	ltpFR	5	7	-1	LOBSTER	837	1	5	-1	n/a	n/a	n/a	n/a	n/a
3696.676	n/a	RECOG_RESP	1848338	n/a	LTP103	ltpFR	5	7	-1	LOBSTER	837	1	n/a	-1	n/a	n/a	n/a	n/a	n/a
3697.338	n/a	RECOG_CONF	1848669	n/a	LTP103	ltpFR	5	7	-1	LOBSTER	837	n/a	5	-1	n/a	n/a	n/a	n/a	n/a
3698.77	n/a	RECOG_TARGET	1849385	n/a	LTP103	ltpFR	5	7	1	MALL	860	1	5	0	n/a	n/a	n/a	n/a	n/a
3699.37	n/a	RECOG_RESP	1849685	n/a	LTP103	ltpFR	5	7	1	MALL	860	1	n/a	0	n/a	n/a	n/a	n/a	n/a
3700.122	n/a	RECOG_CONF	1850061	n/a	LTP103	ltpFR	5	7	1	MALL	860	n/a	5	0	n/a	n/a	n/a	n/a	n/a
3701.528	n/a	RECOG_TARGET	1850764	n/a	LTP103	ltpFR	5	7	1	PIKE	1067	1	5	0	n/a	n/a	n/a	n/a	n/a
3702.232	n/a	RECOG_RESP	1851116	n/a	LTP103	ltpFR	5	7	1	PIKE	1067	1	n/a	0	n/a	n/a	n/a	n/a	n/a
3702.946	n/a	RECOG_CONF	1851473	n/a	LTP103	ltpFR	5	7	1	PIKE	1067	n/a	5	0	n/a	n/a	n/a	n/a	n/a
3704.678	n/a	RECOG_TARGET	1852339	n/a	LTP103	ltpFR	5	7	-1	LAVA	804	1	5	-1	n/a	n/a	n/a	n/a	n/a
3705.206	n/a	RECOG_RESP	1852603	n/a	LTP103	ltpFR	5	7	-1	LAVA	804	1	n/a	-1	n/a	n/a	n/a	n/a	n/a
3705.89	n/a	RECOG_CONF	1852945	n/a	LTP103	ltpFR	5	7	-1	LAVA	804	n/a	5	-1	n/a	n/a	n/a	n/a	n/a
3707.428	n/a	RECOG_TARGET	1853714	n/a	LTP103	ltpFR	5	7	0	SPRINKLE	1359	1	5	1	n/a	n/a	n/a	n/a	n/a
3708.134	n/a	RECOG_RESP	1854067	n/a	LTP103	ltpFR	5	7	0	SPRINKLE	1359	1	n/a	1	n/a	n/a	n/a	n/a	n/a
3708.892	n/a	RECOG_CONF	1854446	n/a	LTP103	ltpFR	5	7	0	SPRINKLE	1359	n/a	5	1	n/a	n/a	n/a	n/a	n/a
3710.394	n/a	RECOG_TARGET	1855197	n/a	LTP103	ltpFR	5	7	-1	PUBLISHER	1137	1	5	-1	n/a	n/a	n/a	n/a	n/a
3710.898	n/a	RECOG_RESP	1855449	n/a	LTP103	ltpFR	5	7	-1	PUBLISHER	1137	1	n/a	-1	n/a	n/a	n/a	n/a	n/a
3711.676	n/a	RECOG_CONF	1855838	n/a	LTP103	ltpFR	5	7	-1	PUBLISHER	1137	n/a	5	-1	n/a	n/a	n/a	n/a	n/a
3713.002	n/a	RECOG_LURE	1856501	n/a	LTP103	ltpFR	5	7	n/a	CEREAL	272	0	2	n/a	n/a	n/a	n/a	n/a	n/a
3713.732	n/a	RECOG_RESP	1856866	n/a	LTP103	ltpFR	5	7	n/a	CEREAL	272	0	n/a	n/a	n/a	n/a	n/a	n/a	n/a
3714.56	n/a	RECOG_CONF	1857280	n/a	LTP103	ltpFR	5	7	n/a	CEREAL	272	n/a	2	n/a	n/a	n/a	n/a	n/a	n/a
3715.868	n/a	RECOG_TARGET	1857934	n/a	LTP103	ltpFR	5	7	-1	SERGEANT	1269	1	5	-1	n/a	n/a	n/a	n/a	n/a
3716.476	n/a	RECOG_RESP	1858238	n/a	LTP103	ltpFR	5	7	-1	SERGEANT	1269	1	n/a	-1	n/a	n/a	n/a	n/a	n/a
3717.204	n/a	RECOG_CONF	1858602	n/a	LTP103	ltpFR	5	7	-1	SERGEANT	1269	n/a	5	-1	n/a	n/a	n/a	n/a	n/a
3718.478	n/a	RECOG_LURE	1859239	n/a	LTP103	ltpFR	5	7	n/a	WHEAT	1602	0	3	n/a	n/a	n/a	n/a	n/a	n/a
3719.32	n/a	RECOG_RESP	1859660	n/a	LTP103	ltpFR	5	7	n/a	WHEAT	1602	0	n/a	n/a	n/a	n/a	n/a	n/a	n/a
3719.958	n/a	RECOG_CONF	1859979	n/a	LTP103	ltpFR	5	7	n/a	WHEAT	1602	n/a	3	n/a	n/a	n/a	n/a	n/a	n/a
3721.22	n/a	RECOG_LURE	1860610	n/a	LTP103	ltpFR	5	7	n/a	BEDROOM	111	1	2	n/a	n/a	n/a	n/a	n/a	n/a
3721.854	n/a	RECOG_RESP	1860927	n/a	LTP103	ltpFR	5	7	n/a	BEDROOM	111	1	n/a	n/a	n/a	n/a	n/a	n/a	n/a
3722.542	n/a	RECOG_CONF	1861271	n/a	LTP103	ltpFR	5	7	n/a	BEDROOM	111	n/a	2	n/a	n/a	n/a	n/a	n/a	n/a
3723.844	n/a	RECOG_TARGET	1861922	n/a	LTP103	ltpFR	5	7	0	TURKEY	1520	0	2	1	n/a	n/a	n/a	n/a	n/a
3724.858	n/a	RECOG_RESP	1862429	n/a	LTP103	ltpFR	5	7	0	TURKEY	1520	0	n/a	1	n/a	n/a	n/a	n/a	n/a
3725.516	n/a	RECOG_CONF	1862758	n/a	LTP103	ltpFR	5	7	0	TURKEY	1520	n/a	2	1	n/a	n/a	n/a	n/a	n/a
3726.984	n/a	RECOG_TARGET	1863492	n/a	LTP103	ltpFR	5	7	1	DOOR	486	1	3	0	n/a	n/a	n/a	n/a	n/a
3727.65	n/a	RECOG_RESP	1863825	n/a	LTP103	ltpFR	5	7	1	DOOR	486	1	n/a	0	n/a	n/a	n/a	n/a	n/a
3728.4	n/a	RECOG_CONF	1864200	n/a	LTP103	ltpFR	5	7	1	DOOR	486	n/a	3	0	n/a	n/a	n/a	n/a	n/a
3729.652	n/a	RECOG_TARGET	1864826	n/a	LTP103	ltpFR	5	7	0	PLATE	1086	1	2	1	n/a	n/a	n/a	n/a	n/a
3730.216	n/a	RECOG_RESP	1865108	n/a	LTP103	ltpFR	5	7	0	PLATE	1086	1	n/a	1	n/a	n/a	n/a	n/a	n/a
3730.954	n/a	RECOG_CONF	1865477	n/a	LTP103	ltpFR	5	7	0	PLATE	1086	n/a	2	1	n/a	n/a	n/a	n/a	n/a
3735.096	n/a	REC_START	1867548	n/a	LTP103	ltpFR	5	8	n/a	n/a	n/a	n/a	n/a	n/a	n/a	n/a	n/a	n/a	n/a
3735.134	n/a	RECOG_TARGET	1867567	n/a	LTP103	ltpFR	5	8	-1	GRAPE	654	1	3	-1	n/a	n/a	n/a	n/a	n/a
3735.74	n/a	RECOG_RESP	1867870	n/a	LTP103	ltpFR	5	8	-1	GRAPE	654	1	n/a	-1	n/a	n/a	n/a	n/a	n/a
3736.41	n/a	RECOG_CONF	1868205	n/a	LTP103	ltpFR	5	8	-1	GRAPE	654	n/a	3	-1	n/a	n/a	n/a	n/a	n/a
3737.694	n/a	RECOG_TARGET	1868847	n/a	LTP103	ltpFR	5	8	1	BACK	65	1	5	0	n/a	n/a	n/a	n/a	n/a
3738.784	n/a	RECOG_RESP	1869392	n/a	LTP103	ltpFR	5	8	1	BACK	65	1	n/a	0	n/a	n/a	n/a	n/a	n/a
3739.462	n/a	RECOG_CONF	1869731	n/a	LTP103	ltpFR	5	8	1	BACK	65	n/a	5	0	n/a	n/a	n/a	n/a	n/a
3740.77	n/a	RECOG_TARGET	1870385	n/a	LTP103	ltpFR	5	8	0	APPLE	33	1	5	0	n/a	n/a	n/a	n/a	n/a
3741.374	n/a	RECOG_RESP	1870687	n/a	LTP103	ltpFR	5	8	0	APPLE	33	1	n/a	0	n/a	n/a	n/a	n/a	n/a
3742.036	n/a	RECOG_CONF	1871018	n/a	LTP103	ltpFR	5	8	0	APPLE	33	n/a	5	0	n/a	n/a	n/a	n/a	n/a
3743.344	n/a	RECOG_LURE	1871672	n/a	LTP103	ltpFR	5	8	n/a	PORTRAIT	1111	0	2	n/a	n/a	n/a	n/a	n/a	n/a
3744.156	n/a	RECOG_RESP	1872078	n/a	LTP103	ltpFR	5	8	n/a	PORTRAIT	1111	0	n/a	n/a	n/a	n/a	n/a	n/a	n/a
3744.81	n/a	RECOG_CONF	1872405	n/a	LTP103	ltpFR	5	8	n/a	PORTRAIT	1111	n/a	2	n/a	n/a	n/a	n/a	n/a	n/a
3746.178	n/a	RECOG_TARGET	1873089	n/a	LTP103	ltpFR	5	8	1	SQUID	1361	0	4	1	n/a	n/a	n/a	n/a	n/a
3746.876	n/a	RECOG_RESP	1873438	n/a	LTP103	ltpFR	5	8	1	SQUID	1361	0	n/a	1	n/a	n/a	n/a	n/a	n/a
3747.484	n/a	RECOG_CONF	1873742	n/a	LTP103	ltpFR	5	8	1	SQUID	1361	n/a	4	1	n/a	n/a	n/a	n/a	n/a
3748.892	n/a	RECOG_LURE	1874446	n/a	LTP103	ltpFR	5	8	n/a	CLOWN	330	1	2	n/a	n/a	n/a	n/a	n/a	n/a
3749.52	n/a	RECOG_RESP	1874760	n/a	LTP103	ltpFR	5	8	n/a	CLOWN	330	1	n/a	n/a	n/a	n/a	n/a	n/a	n/a
3750.108	n/a	RECOG_CONF	1875054	n/a	LTP103	ltpFR	5	8	n/a	CLOWN	330	n/a	2	n/a	n/a	n/a	n/a	n/a	n/a
3751.418	n/a	RECOG_TARGET	1875709	n/a	LTP103	ltpFR	5	8	0	PELICAN	1039	1	5	0	n/a	n/a	n/a	n/a	n/a
3752.034	n/a	RECOG_RESP	1876017	n/a	LTP103	ltpFR	5	8	0	PELICAN	1039	1	n/a	0	n/a	n/a	n/a	n/a	n/a
3752.622	n/a	RECOG_CONF	1876311	n/a	LTP103	ltpFR	5	8	0	PELICAN	1039	n/a	5	0	n/a	n/a	n/a	n/a	n/a
3754.042	n/a	RECOG_TARGET	1877021	n/a	LTP103	ltpFR	5	8	1	REFEREE	1178	1	5	1	n/a	n/a	n/a	n/a	n/a
3754.722	n/a	RECOG_RESP	1877361	n/a	LTP103	ltpFR	5	8	1	REFEREE	1178	1	n/a	1	n/a	n/a	n/a	n/a	n/a
3755.286	n/a	RECOG_CONF	1877643	n/a	LTP103	ltpFR	5	8	1	REFEREE	1178	n/a	5	1	n/a	n/a	n/a	n/a	n/a
3756.844	n/a	RECOG_LURE	1878422	n/a	LTP103	ltpFR	5	8	n/a	PARROT	1015	1	2	n/a	n/a	n/a	n/a	n/a	n/a
3758.346	n/a	RECOG_RESP	1879173	n/a	LTP103	ltpFR	5	8	n/a	PARROT	1015	1	n/a	n/a	n/a	n/a	n/a	n/a	n/a
3758.98	n/a	RECOG_CONF	1879490	n/a	LTP103	ltpFR	5	8	n/a	PARROT	1015	n/a	2	n/a	n/a	n/a	n/a	n/a	n/a
3760.31	n/a	RECOG_LURE	1880155	n/a	LTP103	ltpFR	5	8	n/a	NECKLACE	940	1	3	n/a	n/a	n/a	n/a	n/a	n/a
3760.94	n/a	RECOG_RESP	1880470	n/a	LTP103	ltpFR	5	8	n/a	NECKLACE	940	1	n/a	n/a	n/a	n/a	n/a	n/a	n/a
3761.424	n/a	RECOG_CONF	1880712	n/a	LTP103	ltpFR	5	8	n/a	NECKLACE	940	n/a	3	n/a	n/a	n/a	n/a	n/a	n/a
3762.818	n/a	RECOG_TARGET	1881409	n/a	LTP103	ltpFR	5	8	0	BUGGY	188	1	5	0	n/a	n/a	n/a	n/a	n/a
3763.404	n/a	RECOG_RESP	1881702	n/a	LTP103	ltpFR	5	8	0	BUGGY	188	1	n/a	0	n/a	n/a	n/a	n/a	n/a
3764.168	n/a	RECOG_CONF	1882084	n/a	LTP103	ltpFR	5	8	0	BUGGY	188	n/a	5	0	n/a	n/a	n/a	n/a	n/a
3765.594	n/a	RECOG_LURE	1882797	n/a	LTP103	ltpFR	5	8	n/a	DRIVEWAY	500	1	3	n/a	n/a	n/a	n/a	n/a	n/a
3766.332	n/a	RECOG_RESP	1883166	n/a	LTP103	ltpFR	5	8	n/a	DRIVEWAY	500	1	n/a	n/a	n/a	n/a	n/a	n/a	n/a
3766.902	n/a	RECOG_CONF	1883451	n/a	LTP103	ltpFR	5	8	n/a	DRIVEWAY	500	n/a	3	n/a	n/a	n/a	n/a	n/a	n/a
3768.334	n/a	RECOG_TARGET	1884167	n/a	LTP103	ltpFR	5	8	1	SHEET	1279	1	5	0	n/a	n/a	n/a	n/a	n/a
3769.006	n/a	RECOG_RESP	1884503	n/a	LTP103	ltpFR	5	8	1	SHEET	1279	1	n/a	0	n/a	n/a	n/a	n/a	n/a
3769.764	n/a	RECOG_CONF	1884882	n/a	LTP103	ltpFR	5	8	1	SHEET	1279	n/a	5	0	n/a	n/a	n/a	n/a	n/a
3771.142	n/a	RECOG_LURE	1885571	n/a	LTP103	ltpFR	5	8	n/a	COLT	349	0	4	n/a	n/a	n/a	n/a	n/a	n/a
3772.18	n/a	RECOG_RESP	1886090	n/a	LTP103	ltpFR	5	8	n/a	COLT	349	0	n/a	n/a	n/a	n/a	n/a	n/a	n/a
3772.948	n/a	RECOG_CONF	1886474	n/a	LTP103	ltpFR	5	8	n/a	COLT	349	n/a	4	n/a	n/a	n/a	n/a	n/a	n/a
3774.36	n/a	RECOG_TARGET	1887180	n/a	LTP103	ltpFR	5	8	1	VOLLEYBALL	1576	0	2	0	n/a	n/a	n/a	n/a	n/a
3775.666	n/a	RECOG_RESP	1887833	n/a	LTP103	ltpFR	5	8	1	VOLLEYBALL	1576	0	n/a	0	n/a	n/a	n/a	n/a	n/a
3776.96	n/a	RECOG_CONF	1888480	n/a	LTP103	ltpFR	5	8	1	VOLLEYBALL	1576	n/a	2	0	n/a	n/a	n/a	n/a	n/a
3778.452	n/a	RECOG_TARGET	1889226	n/a	LTP103	ltpFR	5	8	1	BED	110	1	5	1	n/a	n/a	n/a	n/a	n/a
3779.13	n/a	RECOG_RESP	1889565	n/a	LTP103	ltpFR	5	8	1	BED	110	1	n/a	1	n/a	n/a	n/a	n/a	n/a
3779.762	n/a	RECOG_CONF	1889881	n/a	LTP103	ltpFR	5	8	1	BED	110	n/a	5	1	n/a	n/a	n/a	n/a	n/a
3781.05	n/a	RECOG_TARGET	1890525	n/a	LTP103	ltpFR	5	8	0	KITCHEN	778	1	5	1	n/a	n/a	n/a	n/a	n/a
3781.704	n/a	RECOG_RESP	1890852	n/a	LTP103	ltpFR	5	8	0	KITCHEN	778	1	n/a	1	n/a	n/a	n/a	n/a	n/a
3782.366	n/a	RECOG_CONF	1891183	n/a	LTP103	ltpFR	5	8	0	KITCHEN	778	n/a	5	1	n/a	n/a	n/a	n/a	n/a
3783.602	n/a	RECOG_TARGET	1891801	n/a	LTP103	ltpFR	5	8	0	COLONEL	348	1	5	0	n/a	n/a	n/a	n/a	n/a
3784.222	n/a	RECOG_RESP	1892111	n/a	LTP103	ltpFR	5	8	0	COLONEL	348	1	n/a	0	n/a	n/a	n/a	n/a	n/a
3784.782	n/a	RECOG_CONF	1892391	n/a	LTP103	ltpFR	5	8	0	COLONEL	348	n/a	5	0	n/a	n/a	n/a	n/a	n/a
3786.26	n/a	RECOG_LURE	1893130	n/a	LTP103	ltpFR	5	8	n/a	OYSTER	995	1	2	n/a	n/a	n/a	n/a	n/a	n/a
3786.902	n/a	RECOG_RESP	1893451	n/a	LTP103	ltpFR	5	8	n/a	OYSTER	995	1	n/a	n/a	n/a	n/a	n/a	n/a	n/a
3787.586	n/a	RECOG_CONF	1893793	n/a	LTP103	ltpFR	5	8	n/a	OYSTER	995	n/a	2	n/a	n/a	n/a	n/a	n/a	n/a
3789.034	n/a	RECOG_TARGET	1894517	n/a	LTP103	ltpFR	5	8	1	BATHROOM	99	1	3	0	n/a	n/a	n/a	n/a	n/a
3789.636	n/a	RECOG_RESP	1894818	n/a	LTP103	ltpFR	5	8	1	BATHROOM	99	1	n/a	0	n/a	n/a	n/a	n/a	n/a
3790.298	n/a	RECOG_CONF	1895149	n/a	LTP103	ltpFR	5	8	1	BATHROOM	99	n/a	3	0	n/a	n/a	n/a	n/a	n/a
3812.648	n/a	REC_START	1906324	n/a	LTP103	ltpFR	5	9	n/a	n/a	n/a	n/a	n/a	n/a	n/a	n/a	n/a	n/a	n/a
3812.684	n/a	RECOG_TARGET	1906342	n/a	LTP103	ltpFR	5	9	1	MARKET	871	1	5	0	n/a	n/a	n/a	n/a	n/a
3813.476	n/a	RECOG_RESP	1906738	n/a	LTP103	ltpFR	5	9	1	MARKET	871	1	n/a	0	n/a	n/a	n/a	n/a	n/a
3814.23	n/a	RECOG_CONF	1907115	n/a	LTP103	ltpFR	5	9	1	MARKET	871	n/a	5	0	n/a	n/a	n/a	n/a	n/a
3815.616	n/a	RECOG_TARGET	1907808	n/a	LTP103	ltpFR	5	9	-1	SHRIMP	1297	0	n/a	-1	n/a	n/a	n/a	n/a	n/a
3816.206	n/a	RECOG_RESP_VV	1908103	n/a	LTP103	ltpFR	5	9	-1	SHRIMP	1297	1	n/a	-1	n/a	n/a	n/a	n/a	n/a
3817.024	n/a	RECOG_RESP	1908512	n/a	LTP103	ltpFR	5	9	-1	SHRIMP	1297	0	n/a	-1	n/a	n/a	n/a	n/a	n/a
3818.308	n/a	RECOG_TARGET	1909154	n/a	LTP103	ltpFR	5	9	-1	PASTA	1021	0	3	-1	n/a	n/a	n/a	n/a	n/a
3819.16	n/a	RECOG_RESP	1909580	n/a	LTP103	ltpFR	5	9	-1	PASTA	1021	0	n/a	-1	n/a	n/a	n/a	n/a	n/a
3819.818	n/a	RECOG_CONF	1909909	n/a	LTP103	ltpFR	5	9	-1	PASTA	1021	n/a	3	-1	n/a	n/a	n/a	n/a	n/a
3821.15	n/a	RECOG_LURE	1910575	n/a	LTP103	ltpFR	5	9	n/a	MASK	876	1	2	n/a	n/a	n/a	n/a	n/a	n/a
3821.738	n/a	RECOG_RESP	1910869	n/a	LTP103	ltpFR	5	9	n/a	MASK	876	1	n/a	n/a	n/a	n/a	n/a	n/a	n/a
3822.342	n/a	RECOG_CONF	1911171	n/a	LTP103	ltpFR	5	9	n/a	MASK	876	n/a	2	n/a	n/a	n/a	n/a	n/a	n/a
3823.642	n/a	RECOG_TARGET	1911821	n/a	LTP103	ltpFR	5	9	0	CITRUS	313	1	5	0	n/a	n/a	n/a	n/a	n/a
3824.174	n/a	RECOG_RESP	1912087	n/a	LTP103	ltpFR	5	9	0	CITRUS	313	1	n/a	0	n/a	n/a	n/a	n/a	n/a
3824.826	n/a	RECOG_CONF	1912413	n/a	LTP103	ltpFR	5	9	0	CITRUS	313	n/a	5	0	n/a	n/a	n/a	n/a	n/a
3826.384	n/a	RECOG_TARGET	1913192	n/a	LTP103	ltpFR	5	9	0	WAREHOUSE	1588	1	5	1	n/a	n/a	n/a	n/a	n/a
