onset	duration	trial_type	sample	stim_file	subject	experiment	session	trial	task	item_name	item_num	recog_conf	resp	color_b	color_g	color_r	case	font
381.478	n/a	SESS_START	190739	n/a	LTP241	ltpFR	1	n/a	n/a	n/a	n/a	5	n/a	n/a	n/a	n/a	n/a	n/a
483.356	n/a	WORD	241678	wordpools/wasnorm_wordpool_less_exclusions.txt	LTP241	ltpFR	1	1	1	IDOL	733	n/a	1	1	0.412841796875	0.57763671875	upper	../fonts/zerothre.ttf
487.342	n/a	WORD	243671	wordpools/wasnorm_wordpool_less_exclusions.txt	LTP241	ltpFR	1	1	1	THIGH	1457	n/a	0	1	0.412841796875	0.57763671875	upper	../fonts/zerothre.ttf
491.508	n/a	WORD	245754	wordpools/wasnorm_wordpool_less_exclusions.txt	LTP241	ltpFR	1	1	0	CLARINET	317	n/a	1	0	0.5869140625	0.422607421875	lower	../fonts/amplitud.ttf
495.608	n/a	WORD	247804	wordpools/wasnorm_wordpool_less_exclusions.txt	LTP241	ltpFR	1	1	0	KITCHEN	778	n/a	1	0	0.5869140625	0.422607421875	lower	../fonts/amplitud.ttf
499.724	n/a	WORD	249862	wordpools/wasnorm_wordpool_less_exclusions.txt	LTP241	ltpFR	1	1	1	STEW	1380	n/a	0	1	0.412841796875	0.57763671875	upper	../fonts/zerothre.ttf
503.672	n/a	WORD	251836	wordpools/wasnorm_wordpool_less_exclusions.txt	LTP241	ltpFR	1	1	1	CROSS	413	n/a	0	1	0.412841796875	0.57763671875	upper	../fonts/zerothre.ttf
507.704	n/a	WORD	253852	wordpools/wasnorm_wordpool_less_exclusions.txt	LTP241	ltpFR	1	1	1	POLICE	1098	n/a	1	1	0.412841796875	0.57763671875	upper	../fonts/zerothre.ttf
511.886	n/a	WORD	255943	wordpools/wasnorm_wordpool_less_exclusions.txt	LTP241	ltpFR	1	1	0	INSECT	740	n/a	0	0	0.5869140625	0.422607421875	lower	../fonts/amplitud.ttf
516.034	n/a	WORD	258017	wordpools/wasnorm_wordpool_less_exclusions.txt	LTP241	ltpFR	1	1	0	PREACHER	1119	n/a	1	0	0.5869140625	0.422607421875	lower	../fonts/amplitud.ttf
520.168	n/a	WORD	260084	wordpools/wasnorm_wordpool_less_exclusions.txt	LTP241	ltpFR	1	1	0	TOE	1473	n/a	1	0	0.5869140625	0.422607421875	lower	../fonts/amplitud.ttf
524.15	n/a	WORD	262075	wordpools/wasnorm_wordpool_less_exclusions.txt	LTP241	ltpFR	1	1	0	BAND	78	n/a	1	0	0.5869140625	0.422607421875	lower	../fonts/amplitud.ttf
527.994	n/a	WORD	263997	wordpools/wasnorm_wordpool_less_exclusions.txt	LTP241	ltpFR	1	1	0	KING	777	n/a	1	0	0.5869140625	0.422607421875	lower	../fonts/amplitud.ttf
531.846	n/a	WORD	265923	wordpools/wasnorm_wordpool_less_exclusions.txt	LTP241	ltpFR	1	1	0	RULER	1216	n/a	0	0	0.5869140625	0.422607421875	lower	../fonts/amplitud.ttf
535.696	n/a	WORD	267848	wordpools/wasnorm_wordpool_less_exclusions.txt	LTP241	ltpFR	1	1	1	CARAVAN	242	n/a	0	1	0.412841796875	0.57763671875	upper	../fonts/zerothre.ttf
539.592	n/a	WORD	269796	wordpools/wasnorm_wordpool_less_exclusions.txt	LTP241	ltpFR	1	1	1	JEEP	753	n/a	0	1	0.412841796875	0.57763671875	upper	../fonts/zerothre.ttf
543.758	n/a	WORD	271879	wordpools/wasnorm_wordpool_less_exclusions.txt	LTP241	ltpFR	1	1	1	GENERAL	630	n/a	1	1	0.412841796875	0.57763671875	upper	../fonts/zerothre.ttf
549.666	n/a	REC_START	274833	n/a	LTP241	ltpFR	1	1	n/a	n/a	n/a	n/a	n/a	n/a	n/a	n/a	n/a	n/a
550.604	n/a	REC_WORD	275302	wordpools/wasnorm_wordpool_less_exclusions.txt	LTP241	ltpFR	1	1	1	CARAVAN	242	n/a	0	n/a	n/a	n/a	n/a	n/a
551.686	n/a	REC_WORD	275843	wordpools/wasnorm_wordpool_less_exclusions.txt	LTP241	ltpFR	1	1	1	JEEP	753	n/a	0	n/a	n/a	n/a	n/a	n/a
552.674	n/a	REC_WORD	276337	wordpools/wasnorm_wordpool_less_exclusions.txt	LTP241	ltpFR	1	1	0	PREACHER	1119	n/a	1	n/a	n/a	n/a	n/a	n/a
553.682	n/a	REC_WORD	276841	wordpools/wasnorm_wordpool_less_exclusions.txt	LTP241	ltpFR	1	1	0	KING	777	n/a	1	n/a	n/a	n/a	n/a	n/a
554.94	n/a	REC_WORD	277470	wordpools/wasnorm_wordpool_less_exclusions.txt	LTP241	ltpFR	1	1	1	IDOL	733	n/a	1	n/a	n/a	n/a	n/a	n/a
558.294	n/a	REC_WORD	279147	wordpools/wasnorm_wordpool_less_exclusions.txt	LTP241	ltpFR	1	1	1	THIGH	1457	n/a	0	n/a	n/a	n/a	n/a	n/a
559.564	n/a	REC_WORD	279782	wordpools/wasnorm_wordpool_less_exclusions.txt	LTP241	ltpFR	1	1	0	INSECT	740	n/a	0	n/a	n/a	n/a	n/a	n/a
566.758	n/a	REC_WORD	283379	wordpools/wasnorm_wordpool_less_exclusions.txt	LTP241	ltpFR	1	1	0	TOE	1473	n/a	1	n/a	n/a	n/a	n/a	n/a
581.176	n/a	REC_WORD	290588	wordpools/wasnorm_wordpool_less_exclusions.txt	LTP241	ltpFR	1	1	0	KITCHEN	778	n/a	1	n/a	n/a	n/a	n/a	n/a
583.424	n/a	REC_WORD	291712	wordpools/wasnorm_wordpool_less_exclusions.txt	LTP241	ltpFR	1	1	0	RULER	1216	n/a	0	n/a	n/a	n/a	n/a	n/a
587.65	n/a	REC_WORD	293825	wordpools/wasnorm_wordpool_less_exclusions.txt	LTP241	ltpFR	1	1	0	KING	777	n/a	1	n/a	n/a	n/a	n/a	n/a
632.062	n/a	WORD	316031	wordpools/wasnorm_wordpool_less_exclusions.txt	LTP241	ltpFR	1	2	0	DIAGRAM	456	n/a	0	0	0.5869140625	0.422607421875	lower	../fonts/amplitud.ttf
635.894	n/a	WORD	317947	wordpools/wasnorm_wordpool_less_exclusions.txt	LTP241	ltpFR	1	2	0	FLESH	579	n/a	0	0	0.5869140625	0.422607421875	lower	../fonts/amplitud.ttf
639.76	n/a	WORD	319880	wordpools/wasnorm_wordpool_less_exclusions.txt	LTP241	ltpFR	1	2	0	SAUCER	1237	n/a	1	0	0.5869140625	0.422607421875	lower	../fonts/amplitud.ttf
643.82	n/a	WORD	321910	wordpools/wasnorm_wordpool_less_exclusions.txt	LTP241	ltpFR	1	2	0	PUMP	1141	n/a	1	0	0.5869140625	0.422607421875	lower	../fonts/amplitud.ttf
648.006	n/a	WORD	324003	wordpools/wasnorm_wordpool_less_exclusions.txt	LTP241	ltpFR	1	2	0	FAN	551	n/a	0	0	0.5869140625	0.422607421875	lower	../fonts/amplitud.ttf
652.122	n/a	WORD	326061	wordpools/wasnorm_wordpool_less_exclusions.txt	LTP241	ltpFR	1	2	0	INFANT	737	n/a	0	0	0.5869140625	0.422607421875	lower	../fonts/amplitud.ttf
656.272	n/a	WORD	328136	wordpools/wasnorm_wordpool_less_exclusions.txt	LTP241	ltpFR	1	2	1	PAINTER	1004	n/a	1	1	0.412841796875	0.57763671875	upper	../fonts/zerothre.ttf
660.354	n/a	WORD	330177	wordpools/wasnorm_wordpool_less_exclusions.txt	LTP241	ltpFR	1	2	1	EARTH	515	n/a	1	1	0.412841796875	0.57763671875	upper	../fonts/zerothre.ttf
664.368	n/a	WORD	332184	wordpools/wasnorm_wordpool_less_exclusions.txt	LTP241	ltpFR	1	2	1	JUPITER	765	n/a	0	1	0.412841796875	0.57763671875	upper	../fonts/zerothre.ttf
668.518	n/a	WORD	334259	wordpools/wasnorm_wordpool_less_exclusions.txt	LTP241	ltpFR	1	2	0	HEART	697	n/a	0	0	0.5869140625	0.422607421875	lower	../fonts/amplitud.ttf
672.6	n/a	WORD	336300	wordpools/wasnorm_wordpool_less_exclusions.txt	LTP241	ltpFR	1	2	0	BLOSSOM	138	n/a	0	0	0.5869140625	0.422607421875	lower	../fonts/amplitud.ttf
676.598	n/a	WORD	338299	wordpools/wasnorm_wordpool_less_exclusions.txt	LTP241	ltpFR	1	2	1	TEA	1439	n/a	0	1	0.412841796875	0.57763671875	upper	../fonts/zerothre.ttf
680.782	n/a	WORD	340391	wordpools/wasnorm_wordpool_less_exclusions.txt	LTP241	ltpFR	1	2	1	DOG	480	n/a	1	1	0.412841796875	0.57763671875	upper	../fonts/zerothre.ttf
684.698	n/a	WORD	342349	wordpools/wasnorm_wordpool_less_exclusions.txt	LTP241	ltpFR	1	2	1	FARM	552	n/a	0	1	0.412841796875	0.57763671875	upper	../fonts/zerothre.ttf
688.696	n/a	WORD	344348	wordpools/wasnorm_wordpool_less_exclusions.txt	LTP241	ltpFR	1	2	1	GOVERNOR	651	n/a	1	1	0.412841796875	0.57763671875	upper	../fonts/zerothre.ttf
692.678	n/a	WORD	346339	wordpools/wasnorm_wordpool_less_exclusions.txt	LTP241	ltpFR	1	2	1	HOSTESS	723	n/a	1	1	0.412841796875	0.57763671875	upper	../fonts/zerothre.ttf
698.382	n/a	REC_START	349191	n/a	LTP241	ltpFR	1	2	n/a	n/a	n/a	n/a	n/a	n/a	n/a	n/a	n/a	n/a
699.332	n/a	REC_WORD	349666	wordpools/wasnorm_wordpool_less_exclusions.txt	LTP241	ltpFR	1	2	1	HOSTESS	723	n/a	1	n/a	n/a	n/a	n/a	n/a
700.558	n/a	REC_WORD	350279	wordpools/wasnorm_wordpool_less_exclusions.txt	LTP241	ltpFR	1	2	1	EARTH	515	n/a	1	n/a	n/a	n/a	n/a	n/a
701.396	n/a	REC_WORD	350698	wordpools/wasnorm_wordpool_less_exclusions.txt	LTP241	ltpFR	1	2	1	JUPITER	765	n/a	0	n/a	n/a	n/a	n/a	n/a
703.828	n/a	REC_WORD	351914	wordpools/wasnorm_wordpool_less_exclusions.txt	LTP241	ltpFR	1	2	0	SAUCER	1237	n/a	1	n/a	n/a	n/a	n/a	n/a
707.228	n/a	REC_WORD	353614	wordpools/wasnorm_wordpool_less_exclusions.txt	LTP241	ltpFR	1	2	1	DOG	480	n/a	1	n/a	n/a	n/a	n/a	n/a
711.23	n/a	REC_WORD	355615	wordpools/wasnorm_wordpool_less_exclusions.txt	LTP241	ltpFR	1	2	0	INFANT	737	n/a	0	n/a	n/a	n/a	n/a	n/a
716.212	n/a	REC_WORD	358106	wordpools/wasnorm_wordpool_less_exclusions.txt	LTP241	ltpFR	1	2	0	FLESH	579	n/a	0	n/a	n/a	n/a	n/a	n/a
719.214	n/a	REC_WORD	359607	wordpools/wasnorm_wordpool_less_exclusions.txt	LTP241	ltpFR	1	2	1	THIGH	1457	n/a	0	n/a	n/a	n/a	n/a	n/a
762.524	n/a	REC_WORD	381262	wordpools/wasnorm_wordpool_less_exclusions.txt	LTP241	ltpFR	1	2	1	HOSTESS	723	n/a	1	n/a	n/a	n/a	n/a	n/a
778.672	n/a	WORD	389336	wordpools/wasnorm_wordpool_less_exclusions.txt	LTP241	ltpFR	1	3	1	DOUGHNUT	490	n/a	0	1	0.412841796875	0.57763671875	upper	../fonts/zerothre.ttf
782.806	n/a	WORD	391403	wordpools/wasnorm_wordpool_less_exclusions.txt	LTP241	ltpFR	1	3	1	ANTEATER	26	n/a	1	1	0.412841796875	0.57763671875	upper	../fonts/zerothre.ttf
786.784	n/a	WORD	393392	wordpools/wasnorm_wordpool_less_exclusions.txt	LTP241	ltpFR	1	3	1	RAFT	1159	n/a	0	1	0.412841796875	0.57763671875	upper	../fonts/zerothre.ttf
790.686	n/a	WORD	395343	wordpools/wasnorm_wordpool_less_exclusions.txt	LTP241	ltpFR	1	3	1	ATTIC	56	n/a	0	1	0.412841796875	0.57763671875	upper	../fonts/zerothre.ttf
794.818	n/a	WORD	397409	wordpools/wasnorm_wordpool_less_exclusions.txt	LTP241	ltpFR	1	3	1	PORCUPINE	1107	n/a	1	1	0.412841796875	0.57763671875	upper	../fonts/zerothre.ttf
798.916	n/a	WORD	399458	wordpools/wasnorm_wordpool_less_exclusions.txt	LTP241	ltpFR	1	3	1	BUFFALO	186	n/a	1	1	0.412841796875	0.57763671875	upper	../fonts/zerothre.ttf
802.832	n/a	WORD	401416	wordpools/wasnorm_wordpool_less_exclusions.txt	LTP241	ltpFR	1	3	1	BUCKLE	185	n/a	0	1	0.412841796875	0.57763671875	upper	../fonts/zerothre.ttf
806.98	n/a	WORD	403490	wordpools/wasnorm_wordpool_less_exclusions.txt	LTP241	ltpFR	1	3	1	LINT	826	n/a	0	1	0.412841796875	0.57763671875	upper	../fonts/zerothre.ttf
811.142	n/a	WORD	405571	wordpools/wasnorm_wordpool_less_exclusions.txt	LTP241	ltpFR	1	3	1	LACE	792	n/a	0	1	0.412841796875	0.57763671875	upper	../fonts/zerothre.ttf
815.178	n/a	WORD	407589	wordpools/wasnorm_wordpool_less_exclusions.txt	LTP241	ltpFR	1	3	1	CREEK	404	n/a	0	1	0.412841796875	0.57763671875	upper	../fonts/zerothre.ttf
819.344	n/a	WORD	409672	wordpools/wasnorm_wordpool_less_exclusions.txt	LTP241	ltpFR	1	3	1	VET	1560	n/a	1	1	0.412841796875	0.57763671875	upper	../fonts/zerothre.ttf
823.326	n/a	WORD	411663	wordpools/wasnorm_wordpool_less_exclusions.txt	LTP241	ltpFR	1	3	1	PALACE	1006	n/a	0	1	0.412841796875	0.57763671875	upper	../fonts/zerothre.ttf
827.242	n/a	WORD	413621	wordpools/wasnorm_wordpool_less_exclusions.txt	LTP241	ltpFR	1	3	1	CROWN	415	n/a	0	1	0.412841796875	0.57763671875	upper	../fonts/zerothre.ttf
831.39	n/a	WORD	415695	wordpools/wasnorm_wordpool_less_exclusions.txt	LTP241	ltpFR	1	3	1	STOOL	1386	n/a	0	1	0.412841796875	0.57763671875	upper	../fonts/zerothre.ttf
835.518	n/a	WORD	417759	wordpools/wasnorm_wordpool_less_exclusions.txt	LTP241	ltpFR	1	3	1	DWARF	510	n/a	1	1	0.412841796875	0.57763671875	upper	../fonts/zerothre.ttf
839.624	n/a	WORD	419812	wordpools/wasnorm_wordpool_less_exclusions.txt	LTP241	ltpFR	1	3	1	BUTTER	205	n/a	0	1	0.412841796875	0.57763671875	upper	../fonts/zerothre.ttf
845.244	n/a	REC_START	422622	n/a	LTP241	ltpFR	1	3	n/a	n/a	n/a	n/a	n/a	n/a	n/a	n/a	n/a	n/a
846.172	n/a	REC_WORD	423086	wordpools/wasnorm_wordpool_less_exclusions.txt	LTP241	ltpFR	1	3	1	BUTTER	205	n/a	0	n/a	n/a	n/a	n/a	n/a
847.07	n/a	REC_WORD	423535	wordpools/wasnorm_wordpool_less_exclusions.txt	LTP241	ltpFR	1	3	1	DOUGHNUT	490	n/a	0	n/a	n/a	n/a	n/a	n/a
847.954	n/a	REC_WORD	423977	wordpools/wasnorm_wordpool_less_exclusions.txt	LTP241	ltpFR	1	3	1	ANTEATER	26	n/a	1	n/a	n/a	n/a	n/a	n/a
848.98	n/a	REC_WORD	424490	wordpools/wasnorm_wordpool_less_exclusions.txt	LTP241	ltpFR	1	3	1	RAFT	1159	n/a	0	n/a	n/a	n/a	n/a	n/a
850.736	n/a	REC_WORD	425368	wordpools/wasnorm_wordpool_less_exclusions.txt	LTP241	ltpFR	1	3	1	PORCUPINE	1107	n/a	1	n/a	n/a	n/a	n/a	n/a
858.76	n/a	REC_WORD	429380	wordpools/wasnorm_wordpool_less_exclusions.txt	LTP241	ltpFR	1	3	1	LINT	826	n/a	0	n/a	n/a	n/a	n/a	n/a
860.524	n/a	REC_WORD	430262	wordpools/wasnorm_wordpool_less_exclusions.txt	LTP241	ltpFR	1	3	0	FAN	551	n/a	0	n/a	n/a	n/a	n/a	n/a
875.906	n/a	REC_WORD	437953	wordpools/wasnorm_wordpool_less_exclusions.txt	LTP241	ltpFR	1	3	1	BUFFALO	186	n/a	1	n/a	n/a	n/a	n/a	n/a
879.648	n/a	REC_WORD	439824	wordpools/wasnorm_wordpool_less_exclusions.txt	LTP241	ltpFR	1	3	1	CREEK	404	n/a	0	n/a	n/a	n/a	n/a	n/a
885.794	n/a	REC_WORD	442897	wordpools/wasnorm_wordpool_less_exclusions.txt	LTP241	ltpFR	1	3	1	DWARF	510	n/a	1	n/a	n/a	n/a	n/a	n/a
893.238	n/a	REC_WORD	446619	wordpools/wasnorm_wordpool_less_exclusions.txt	LTP241	ltpFR	1	3	1	DOUGHNUT	490	n/a	0	n/a	n/a	n/a	n/a	n/a
901.852	n/a	REC_WORD	450926	wordpools/wasnorm_wordpool_less_exclusions.txt	LTP241	ltpFR	1	3	1	VET	1560	n/a	1	n/a	n/a	n/a	n/a	n/a
927.256	n/a	WORD	463628	wordpools/wasnorm_wordpool_less_exclusions.txt	LTP241	ltpFR	1	4	-1	GLUE	643	n/a	-1	1	1.0	1.0	upper	../fonts/Verdana.ttf
931.088	n/a	WORD	465544	wordpools/wasnorm_wordpool_less_exclusions.txt	LTP241	ltpFR	1	4	-1	ORCHESTRA	981	n/a	-1	1	1.0	1.0	upper	../fonts/Verdana.ttf
935.07	n/a	WORD	467535	wordpools/wasnorm_wordpool_less_exclusions.txt	LTP241	ltpFR	1	4	-1	CONCERT	360	n/a	-1	1	1.0	1.0	upper	../fonts/Verdana.ttf
938.952	n/a	WORD	469476	wordpools/wasnorm_wordpool_less_exclusions.txt	LTP241	ltpFR	1	4	-1	SLOPE	1328	n/a	-1	1	1.0	1.0	upper	../fonts/Verdana.ttf
942.98	n/a	WORD	471490	wordpools/wasnorm_wordpool_less_exclusions.txt	LTP241	ltpFR	1	4	-1	FROST	609	n/a	-1	1	1.0	1.0	upper	../fonts/Verdana.ttf
947.15	n/a	WORD	473575	wordpools/wasnorm_wordpool_less_exclusions.txt	LTP241	ltpFR	1	4	-1	CREAM	402	n/a	-1	1	1.0	1.0	upper	../fonts/Verdana.ttf
951.232	n/a	WORD	475616	wordpools/wasnorm_wordpool_less_exclusions.txt	LTP241	ltpFR	1	4	-1	MAILBOX	857	n/a	-1	1	1.0	1.0	upper	../fonts/Verdana.ttf
955.364	n/a	WORD	477682	wordpools/wasnorm_wordpool_less_exclusions.txt	LTP241	ltpFR	1	4	-1	ALMOND	18	n/a	-1	1	1.0	1.0	upper	../fonts/Verdana.ttf
959.346	n/a	WORD	479673	wordpools/wasnorm_wordpool_less_exclusions.txt	LTP241	ltpFR	1	4	-1	SUITCASE	1403	n/a	-1	1	1.0	1.0	upper	../fonts/Verdana.ttf
963.462	n/a	WORD	481731	wordpools/wasnorm_wordpool_less_exclusions.txt	LTP241	ltpFR	1	4	-1	PALM	1007	n/a	-1	1	1.0	1.0	upper	../fonts/Verdana.ttf
967.46	n/a	WORD	483730	wordpools/wasnorm_wordpool_less_exclusions.txt	LTP241	ltpFR	1	4	-1	THIMBLE	1458	n/a	-1	1	1.0	1.0	upper	../fonts/Verdana.ttf
971.508	n/a	WORD	485754	wordpools/wasnorm_wordpool_less_exclusions.txt	LTP241	ltpFR	1	4	-1	GUM	672	n/a	-1	1	1.0	1.0	upper	../fonts/Verdana.ttf
975.726	n/a	WORD	487863	wordpools/wasnorm_wordpool_less_exclusions.txt	LTP241	ltpFR	1	4	-1	ATTIRE	57	n/a	-1	1	1.0	1.0	upper	../fonts/Verdana.ttf
979.808	n/a	WORD	489904	wordpools/wasnorm_wordpool_less_exclusions.txt	LTP241	ltpFR	1	4	-1	MONSTER	912	n/a	-1	1	1.0	1.0	upper	../fonts/Verdana.ttf
983.84	n/a	WORD	491920	wordpools/wasnorm_wordpool_less_exclusions.txt	LTP241	ltpFR	1	4	-1	STAMP	1370	n/a	-1	1	1.0	1.0	upper	../fonts/Verdana.ttf
987.856	n/a	WORD	493928	wordpools/wasnorm_wordpool_less_exclusions.txt	LTP241	ltpFR	1	4	-1	CHIP	303	n/a	-1	1	1.0	1.0	upper	../fonts/Verdana.ttf
993.662	n/a	REC_START	496831	n/a	LTP241	ltpFR	1	4	n/a	n/a	n/a	n/a	n/a	n/a	n/a	n/a	n/a	n/a
994.316	n/a	REC_WORD	497158	wordpools/wasnorm_wordpool_less_exclusions.txt	LTP241	ltpFR	1	4	-1	THIMBLE	1458	n/a	-1	n/a	n/a	n/a	n/a	n/a
995.294	n/a	REC_WORD	497647	wordpools/wasnorm_wordpool_less_exclusions.txt	LTP241	ltpFR	1	4	-1	GUM	672	n/a	-1	n/a	n/a	n/a	n/a	n/a
995.916	n/a	REC_WORD	497958	wordpools/wasnorm_wordpool_less_exclusions.txt	LTP241	ltpFR	1	4	-1	ATTIRE	57	n/a	-1	n/a	n/a	n/a	n/a	n/a
1000.796	n/a	REC_WORD	500398	wordpools/wasnorm_wordpool_less_exclusions.txt	LTP241	ltpFR	1	4	-1	GLUE	643	n/a	-1	n/a	n/a	n/a	n/a	n/a
1001.66	n/a	REC_WORD	500830	wordpools/wasnorm_wordpool_less_exclusions.txt	LTP241	ltpFR	1	4	-1	ORCHESTRA	981	n/a	-1	n/a	n/a	n/a	n/a	n/a
1002.692	n/a	REC_WORD	501346	wordpools/wasnorm_wordpool_less_exclusions.txt	LTP241	ltpFR	1	4	-1	FROST	609	n/a	-1	n/a	n/a	n/a	n/a	n/a
1005.734	n/a	REC_WORD	502867	wordpools/wasnorm_wordpool_less_exclusions.txt	LTP241	ltpFR	1	4	-1	CREAM	402	n/a	-1	n/a	n/a	n/a	n/a	n/a
1012.142	n/a	REC_WORD	506071	wordpools/wasnorm_wordpool_less_exclusions.txt	LTP241	ltpFR	1	4	-1	THIMBLE	1458	n/a	-1	n/a	n/a	n/a	n/a	n/a
1074.956	n/a	WORD	537478	wordpools/wasnorm_wordpool_less_exclusions.txt	LTP241	ltpFR	1	5	-1	CUSTOMER	430	n/a	-1	1	1.0	1.0	upper	../fonts/Verdana.ttf
1079.17	n/a	WORD	539585	wordpools/wasnorm_wordpool_less_exclusions.txt	LTP241	ltpFR	1	5	-1	GAVEL	627	n/a	-1	1	1.0	1.0	upper	../fonts/Verdana.ttf
1083.37	n/a	WORD	541685	wordpools/wasnorm_wordpool_less_exclusions.txt	LTP241	ltpFR	1	5	-1	SLACKS	1323	n/a	-1	1	1.0	1.0	upper	../fonts/Verdana.ttf
1087.586	n/a	WORD	543793	wordpools/wasnorm_wordpool_less_exclusions.txt	LTP241	ltpFR	1	5	-1	NICKEL	950	n/a	-1	1	1.0	1.0	upper	../fonts/Verdana.ttf
1091.804	n/a	WORD	545902	wordpools/wasnorm_wordpool_less_exclusions.txt	LTP241	ltpFR	1	5	-1	CHECK	284	n/a	-1	1	1.0	1.0	upper	../fonts/Verdana.ttf
1095.768	n/a	WORD	547884	wordpools/wasnorm_wordpool_less_exclusions.txt	LTP241	ltpFR	1	5	-1	MASCARA	875	n/a	-1	1	1.0	1.0	upper	../fonts/Verdana.ttf
1099.918	n/a	WORD	549959	wordpools/wasnorm_wordpool_less_exclusions.txt	LTP241	ltpFR	1	5	-1	PURSE	1145	n/a	-1	1	1.0	1.0	upper	../fonts/Verdana.ttf
1104.032	n/a	WORD	552016	wordpools/wasnorm_wordpool_less_exclusions.txt	LTP241	ltpFR	1	5	-1	PROFESSIONAL	1130	n/a	-1	1	1.0	1.0	upper	../fonts/Verdana.ttf
1108.01	n/a	WORD	554005	wordpools/wasnorm_wordpool_less_exclusions.txt	LTP241	ltpFR	1	5	-1	RADISH	1158	n/a	-1	1	1.0	1.0	upper	../fonts/Verdana.ttf
1112.21	n/a	WORD	556105	wordpools/wasnorm_wordpool_less_exclusions.txt	LTP241	ltpFR	1	5	-1	SACK	1220	n/a	-1	1	1.0	1.0	upper	../fonts/Verdana.ttf
1116.33	n/a	WORD	558165	wordpools/wasnorm_wordpool_less_exclusions.txt	LTP241	ltpFR	1	5	-1	SALAD	1224	n/a	-1	1	1.0	1.0	upper	../fonts/Verdana.ttf
1120.508	n/a	WORD	560254	wordpools/wasnorm_wordpool_less_exclusions.txt	LTP241	ltpFR	1	5	-1	CACTUS	215	n/a	-1	1	1.0	1.0	upper	../fonts/Verdana.ttf
1124.376	n/a	WORD	562188	wordpools/wasnorm_wordpool_less_exclusions.txt	LTP241	ltpFR	1	5	-1	VASE	1549	n/a	-1	1	1.0	1.0	upper	../fonts/Verdana.ttf
1128.46	n/a	WORD	564230	wordpools/wasnorm_wordpool_less_exclusions.txt	LTP241	ltpFR	1	5	-1	SPINACH	1352	n/a	-1	1	1.0	1.0	upper	../fonts/Verdana.ttf
1132.354	n/a	WORD	566177	wordpools/wasnorm_wordpool_less_exclusions.txt	LTP241	ltpFR	1	5	-1	ROOM	1206	n/a	-1	1	1.0	1.0	upper	../fonts/Verdana.ttf
1136.506	n/a	WORD	568253	wordpools/wasnorm_wordpool_less_exclusions.txt	LTP241	ltpFR	1	5	-1	HOME	712	n/a	-1	1	1.0	1.0	upper	../fonts/Verdana.ttf
1142.342	n/a	REC_START	571171	n/a	LTP241	ltpFR	1	5	n/a	n/a	n/a	n/a	n/a	n/a	n/a	n/a	n/a	n/a
1143.34	n/a	REC_WORD	571670	wordpools/wasnorm_wordpool_less_exclusions.txt	LTP241	ltpFR	1	5	-1	VASE	1549	n/a	-1	n/a	n/a	n/a	n/a	n/a
1144.134	n/a	REC_WORD	572067	wordpools/wasnorm_wordpool_less_exclusions.txt	LTP241	ltpFR	1	5	-1	SPINACH	1352	n/a	-1	n/a	n/a	n/a	n/a	n/a
1145.6	n/a	REC_WORD	572800	wordpools/wasnorm_wordpool_less_exclusions.txt	LTP241	ltpFR	1	5	-1	HOME	712	n/a	-1	n/a	n/a	n/a	n/a	n/a
1146.788	n/a	REC_WORD	573394	wordpools/wasnorm_wordpool_less_exclusions.txt	LTP241	ltpFR	1	5	-1	ROOM	1206	n/a	-1	n/a	n/a	n/a	n/a	n/a
1149.496	n/a	REC_WORD	574748	wordpools/wasnorm_wordpool_less_exclusions.txt	LTP241	ltpFR	1	5	-1	RADISH	1158	n/a	-1	n/a	n/a	n/a	n/a	n/a
1150.438	n/a	REC_WORD	575219	wordpools/wasnorm_wordpool_less_exclusions.txt	LTP241	ltpFR	1	5	-1	SALAD	1224	n/a	-1	n/a	n/a	n/a	n/a	n/a
1158.396	n/a	REC_WORD	579198	wordpools/wasnorm_wordpool_less_exclusions.txt	LTP241	ltpFR	1	5	-1	PROFESSIONAL	1130	n/a	-1	n/a	n/a	n/a	n/a	n/a
1169.796	n/a	REC_WORD	584898	wordpools/wasnorm_wordpool_less_exclusions.txt	LTP241	ltpFR	1	5	-1	CUSTOMER	430	n/a	-1	n/a	n/a	n/a	n/a	n/a
1187.742	n/a	REC_WORD	593871	wordpools/wasnorm_wordpool_less_exclusions.txt	LTP241	ltpFR	1	5	-1	CACTUS	215	n/a	-1	n/a	n/a	n/a	n/a	n/a
1226.2	n/a	WORD	613100	wordpools/wasnorm_wordpool_less_exclusions.txt	LTP241	ltpFR	1	6	0	STALLION	1369	n/a	1	0	0.5869140625	0.422607421875	lower	../fonts/amplitud.ttf
1230.178	n/a	WORD	615089	wordpools/wasnorm_wordpool_less_exclusions.txt	LTP241	ltpFR	1	6	0	CROW	414	n/a	0	0	0.5869140625	0.422607421875	lower	../fonts/amplitud.ttf
1234.112	n/a	WORD	617056	wordpools/wasnorm_wordpool_less_exclusions.txt	LTP241	ltpFR	1	6	0	CHICK	296	n/a	0	0	0.5869140625	0.422607421875	lower	../fonts/amplitud.ttf
1238.228	n/a	WORD	619114	wordpools/wasnorm_wordpool_less_exclusions.txt	LTP241	ltpFR	1	6	0	VESSEL	1558	n/a	1	0	0.5869140625	0.422607421875	lower	../fonts/amplitud.ttf
1242.394	n/a	WORD	621197	wordpools/wasnorm_wordpool_less_exclusions.txt	LTP241	ltpFR	1	6	1	SAILOR	1223	n/a	1	1	0.412841796875	0.57763671875	upper	../fonts/zerothre.ttf
1246.46	n/a	WORD	623230	wordpools/wasnorm_wordpool_less_exclusions.txt	LTP241	ltpFR	1	6	1	BOUILLON	154	n/a	0	1	0.412841796875	0.57763671875	upper	../fonts/zerothre.ttf
1250.504	n/a	WORD	625252	wordpools/wasnorm_wordpool_less_exclusions.txt	LTP241	ltpFR	1	6	1	ROBE	1198	n/a	0	1	0.412841796875	0.57763671875	upper	../fonts/zerothre.ttf
1254.726	n/a	WORD	627363	wordpools/wasnorm_wordpool_less_exclusions.txt	LTP241	ltpFR	1	6	1	DIVER	476	n/a	1	1	0.412841796875	0.57763671875	upper	../fonts/zerothre.ttf
1258.892	n/a	WORD	629446	wordpools/wasnorm_wordpool_less_exclusions.txt	LTP241	ltpFR	1	6	1	SEAFOOD	1260	n/a	0	1	0.412841796875	0.57763671875	upper	../fonts/zerothre.ttf
1262.84	n/a	WORD	631420	wordpools/wasnorm_wordpool_less_exclusions.txt	LTP241	ltpFR	1	6	0	OATS	968	n/a	0	0	0.5869140625	0.422607421875	lower	../fonts/amplitud.ttf
1266.956	n/a	WORD	633478	wordpools/wasnorm_wordpool_less_exclusions.txt	LTP241	ltpFR	1	6	0	KEG	770	n/a	1	0	0.5869140625	0.422607421875	lower	../fonts/amplitud.ttf
1270.82	n/a	WORD	635410	wordpools/wasnorm_wordpool_less_exclusions.txt	LTP241	ltpFR	1	6	0	TRENCH	1503	n/a	1	0	0.5869140625	0.422607421875	lower	../fonts/amplitud.ttf
1274.802	n/a	WORD	637401	wordpools/wasnorm_wordpool_less_exclusions.txt	LTP241	ltpFR	1	6	0	SHOVEL	1295	n/a	0	0	0.5869140625	0.422607421875	lower	../fonts/amplitud.ttf
1278.768	n/a	WORD	639384	wordpools/wasnorm_wordpool_less_exclusions.txt	LTP241	ltpFR	1	6	1	TUXEDO	1525	n/a	0	1	0.412841796875	0.57763671875	upper	../fonts/zerothre.ttf
1282.796	n/a	WORD	641398	wordpools/wasnorm_wordpool_less_exclusions.txt	LTP241	ltpFR	1	6	1	WELL	1600	n/a	0	1	0.412841796875	0.57763671875	upper	../fonts/zerothre.ttf
1287.014	n/a	WORD	643507	wordpools/wasnorm_wordpool_less_exclusions.txt	LTP241	ltpFR	1	6	1	WORLD	1622	n/a	1	1	0.412841796875	0.57763671875	upper	../fonts/zerothre.ttf
1292.906	n/a	REC_START	646453	n/a	LTP241	ltpFR	1	6	n/a	n/a	n/a	n/a	n/a	n/a	n/a	n/a	n/a	n/a
1293.908	n/a	REC_WORD	646954	wordpools/wasnorm_wordpool_less_exclusions.txt	LTP241	ltpFR	1	6	1	WORLD	1622	n/a	1	n/a	n/a	n/a	n/a	n/a
1294.866	n/a	REC_WORD	647433	wordpools/wasnorm_wordpool_less_exclusions.txt	LTP241	ltpFR	1	6	0	OATS	968	n/a	0	n/a	n/a	n/a	n/a	n/a
1295.71	n/a	REC_WORD	647855	wordpools/wasnorm_wordpool_less_exclusions.txt	LTP241	ltpFR	1	6	1	TUXEDO	1525	n/a	0	n/a	n/a	n/a	n/a	n/a
1297.236	n/a	REC_WORD	648618	wordpools/wasnorm_wordpool_less_exclusions.txt	LTP241	ltpFR	1	6	1	SAILOR	1223	n/a	1	n/a	n/a	n/a	n/a	n/a
1307.84	n/a	REC_WORD	653920	wordpools/wasnorm_wordpool_less_exclusions.txt	LTP241	ltpFR	1	6	0	VESSEL	1558	n/a	1	n/a	n/a	n/a	n/a	n/a
1312.446	n/a	REC_WORD	656223	wordpools/wasnorm_wordpool_less_exclusions.txt	LTP241	ltpFR	1	6	0	KEG	770	n/a	1	n/a	n/a	n/a	n/a	n/a
1315.336	n/a	REC_WORD	657668	wordpools/wasnorm_wordpool_less_exclusions.txt	LTP241	ltpFR	1	6	1	WORLD	1622	n/a	1	n/a	n/a	n/a	n/a	n/a
1322.662	n/a	REC_WORD	661331	wordpools/wasnorm_wordpool_less_exclusions.txt	LTP241	ltpFR	1	6	0	STALLION	1369	n/a	1	n/a	n/a	n/a	n/a	n/a
1375.402	n/a	WORD	687701	wordpools/wasnorm_wordpool_less_exclusions.txt	LTP241	ltpFR	1	7	1	BEAD	103	n/a	0	1	0.412841796875	0.57763671875	upper	../fonts/zerothre.ttf
1379.414	n/a	WORD	689707	wordpools/wasnorm_wordpool_less_exclusions.txt	LTP241	ltpFR	1	7	1	MINER	896	n/a	1	1	0.412841796875	0.57763671875	upper	../fonts/zerothre.ttf
1383.366	n/a	WORD	691683	wordpools/wasnorm_wordpool_less_exclusions.txt	LTP241	ltpFR	1	7	0	RESTAURANT	1187	n/a	1	0	0.5869140625	0.422607421875	lower	../fonts/amplitud.ttf
1387.226	n/a	WORD	693613	wordpools/wasnorm_wordpool_less_exclusions.txt	LTP241	ltpFR	1	7	0	DOVE	491	n/a	1	0	0.5869140625	0.422607421875	lower	../fonts/amplitud.ttf
1391.344	n/a	WORD	695672	wordpools/wasnorm_wordpool_less_exclusions.txt	LTP241	ltpFR	1	7	0	FLIPPER	580	n/a	1	0	0.5869140625	0.422607421875	lower	../fonts/amplitud.ttf
1395.296	n/a	WORD	697648	wordpools/wasnorm_wordpool_less_exclusions.txt	LTP241	ltpFR	1	7	0	GAZELLE	628	n/a	1	0	0.5869140625	0.422607421875	lower	../fonts/amplitud.ttf
1399.144	n/a	WORD	699572	wordpools/wasnorm_wordpool_less_exclusions.txt	LTP241	ltpFR	1	7	0	MINK	897	n/a	0	0	0.5869140625	0.422607421875	lower	../fonts/amplitud.ttf
1403.058	n/a	WORD	701529	wordpools/wasnorm_wordpool_less_exclusions.txt	LTP241	ltpFR	1	7	1	SQUID	1361	n/a	1	1	0.412841796875	0.57763671875	upper	../fonts/zerothre.ttf
1406.974	n/a	WORD	703487	wordpools/wasnorm_wordpool_less_exclusions.txt	LTP241	ltpFR	1	7	1	TACK	1428	n/a	0	1	0.412841796875	0.57763671875	upper	../fonts/zerothre.ttf
1411.156	n/a	WORD	705578	wordpools/wasnorm_wordpool_less_exclusions.txt	LTP241	ltpFR	1	7	1	EMERALD	528	n/a	0	1	0.412841796875	0.57763671875	upper	../fonts/zerothre.ttf
1415.306	n/a	WORD	707653	wordpools/wasnorm_wordpool_less_exclusions.txt	LTP241	ltpFR	1	7	1	DONKEY	484	n/a	1	1	0.412841796875	0.57763671875	upper	../fonts/zerothre.ttf
1419.338	n/a	WORD	709669	wordpools/wasnorm_wordpool_less_exclusions.txt	LTP241	ltpFR	1	7	1	DETERGENT	455	n/a	0	1	0.412841796875	0.57763671875	upper	../fonts/zerothre.ttf
1423.168	n/a	WORD	711584	wordpools/wasnorm_wordpool_less_exclusions.txt	LTP241	ltpFR	1	7	1	MEAL	882	n/a	0	1	0.412841796875	0.57763671875	upper	../fonts/zerothre.ttf
1427.032	n/a	WORD	713516	wordpools/wasnorm_wordpool_less_exclusions.txt	LTP241	ltpFR	1	7	0	NEPTUNE	943	n/a	1	0	0.5869140625	0.422607421875	lower	../fonts/amplitud.ttf
1431.082	n/a	WORD	715541	wordpools/wasnorm_wordpool_less_exclusions.txt	LTP241	ltpFR	1	7	0	ALMANAC	17	n/a	1	0	0.5869140625	0.422607421875	lower	../fonts/amplitud.ttf
1435.098	n/a	WORD	717549	wordpools/wasnorm_wordpool_less_exclusions.txt	LTP241	ltpFR	1	7	0	PUBLISHER	1137	n/a	1	0	0.5869140625	0.422607421875	lower	../fonts/amplitud.ttf
1441.02	n/a	REC_START	720510	n/a	LTP241	ltpFR	1	7	n/a	n/a	n/a	n/a	n/a	n/a	n/a	n/a	n/a	n/a
1442.112	n/a	REC_WORD	721056	wordpools/wasnorm_wordpool_less_exclusions.txt	LTP241	ltpFR	1	7	1	BEAD	103	n/a	0	n/a	n/a	n/a	n/a	n/a
1442.848	n/a	REC_WORD	721424	wordpools/wasnorm_wordpool_less_exclusions.txt	LTP241	ltpFR	1	7	1	MINER	896	n/a	1	n/a	n/a	n/a	n/a	n/a
1443.79	n/a	REC_WORD	721895	wordpools/wasnorm_wordpool_less_exclusions.txt	LTP241	ltpFR	1	7	0	ALMANAC	17	n/a	1	n/a	n/a	n/a	n/a	n/a
1444.892	n/a	REC_WORD	722446	wordpools/wasnorm_wordpool_less_exclusions.txt	LTP241	ltpFR	1	7	0	PUBLISHER	1137	n/a	1	n/a	n/a	n/a	n/a	n/a
1449.806	n/a	REC_WORD	724903	wordpools/wasnorm_wordpool_less_exclusions.txt	LTP241	ltpFR	1	7	0	MINK	897	n/a	0	n/a	n/a	n/a	n/a	n/a
1451.014	n/a	REC_WORD	725507	wordpools/wasnorm_wordpool_less_exclusions.txt	LTP241	ltpFR	1	7	1	EMERALD	528	n/a	0	n/a	n/a	n/a	n/a	n/a
1461.006	n/a	REC_WORD	730503	wordpools/wasnorm_wordpool_less_exclusions.txt	LTP241	ltpFR	1	7	1	ROBE	1198	n/a	0	n/a	n/a	n/a	n/a	n/a
1473.418	n/a	REC_WORD	736709	wordpools/wasnorm_wordpool_less_exclusions.txt	LTP241	ltpFR	1	7	0	DOVE	491	n/a	1	n/a	n/a	n/a	n/a	n/a
1486.4	n/a	REC_WORD	743200	wordpools/wasnorm_wordpool_less_exclusions.txt	LTP241	ltpFR	1	7	0	SAUCER	1237	n/a	1	n/a	n/a	n/a	n/a	n/a
1497.43	n/a	REC_WORD	748715	wordpools/wasnorm_wordpool_less_exclusions.txt	LTP241	ltpFR	1	7	1	MEAL	882	n/a	0	n/a	n/a	n/a	n/a	n/a
1521.996	n/a	WORD	760998	wordpools/wasnorm_wordpool_less_exclusions.txt	LTP241	ltpFR	1	8	0	BEAKER	104	n/a	0	0	0.5869140625	0.422607421875	lower	../fonts/amplitud.ttf
1526.062	n/a	WORD	763031	wordpools/wasnorm_wordpool_less_exclusions.txt	LTP241	ltpFR	1	8	0	TILE	1468	n/a	0	0	0.5869140625	0.422607421875	lower	../fonts/amplitud.ttf
1530.026	n/a	WORD	765013	wordpools/wasnorm_wordpool_less_exclusions.txt	LTP241	ltpFR	1	8	0	SKIRT	1319	n/a	1	0	0.5869140625	0.422607421875	lower	../fonts/amplitud.ttf
1534.176	n/a	WORD	767088	wordpools/wasnorm_wordpool_less_exclusions.txt	LTP241	ltpFR	1	8	0	PICNIC	1060	n/a	1	0	0.5869140625	0.422607421875	lower	../fonts/amplitud.ttf
1538.036	n/a	WORD	769018	wordpools/wasnorm_wordpool_less_exclusions.txt	LTP241	ltpFR	1	8	0	RACK	1154	n/a	1	0	0.5869140625	0.422607421875	lower	../fonts/amplitud.ttf
1542.006	n/a	WORD	771003	wordpools/wasnorm_wordpool_less_exclusions.txt	LTP241	ltpFR	1	8	0	LAUNDRY	803	n/a	1	0	0.5869140625	0.422607421875	lower	../fonts/amplitud.ttf
1545.856	n/a	WORD	772928	wordpools/wasnorm_wordpool_less_exclusions.txt	LTP241	ltpFR	1	8	0	MICROWAVE	892	n/a	0	0	0.5869140625	0.422607421875	lower	../fonts/amplitud.ttf
1549.82	n/a	WORD	774910	wordpools/wasnorm_wordpool_less_exclusions.txt	LTP241	ltpFR	1	8	0	STEREO	1378	n/a	1	0	0.5869140625	0.422607421875	lower	../fonts/amplitud.ttf
1553.68	n/a	WORD	776840	wordpools/wasnorm_wordpool_less_exclusions.txt	LTP241	ltpFR	1	8	0	ALLEY	15	n/a	1	0	0.5869140625	0.422607421875	lower	../fonts/amplitud.ttf
1557.544	n/a	WORD	778772	wordpools/wasnorm_wordpool_less_exclusions.txt	LTP241	ltpFR	1	8	0	TIGER	1467	n/a	1	0	0.5869140625	0.422607421875	lower	../fonts/amplitud.ttf
1561.7	n/a	WORD	780850	wordpools/wasnorm_wordpool_less_exclusions.txt	LTP241	ltpFR	1	8	0	LIBRARY	816	n/a	1	0	0.5869140625	0.422607421875	lower	../fonts/amplitud.ttf
1565.864	n/a	WORD	782932	wordpools/wasnorm_wordpool_less_exclusions.txt	LTP241	ltpFR	1	8	0	MAGAZINE	853	n/a	1	0	0.5869140625	0.422607421875	lower	../fonts/amplitud.ttf
1570.08	n/a	WORD	785040	wordpools/wasnorm_wordpool_less_exclusions.txt	LTP241	ltpFR	1	8	0	FRAME	600	n/a	1	0	0.5869140625	0.422607421875	lower	../fonts/amplitud.ttf
1574.012	n/a	WORD	787006	wordpools/wasnorm_wordpool_less_exclusions.txt	LTP241	ltpFR	1	8	0	KITTEN	780	n/a	0	0	0.5869140625	0.422607421875	lower	../fonts/amplitud.ttf
1578.144	n/a	WORD	789072	wordpools/wasnorm_wordpool_less_exclusions.txt	LTP241	ltpFR	1	8	0	PANTHER	1009	n/a	1	0	0.5869140625	0.422607421875	lower	../fonts/amplitud.ttf
1582.326	n/a	WORD	791163	wordpools/wasnorm_wordpool_less_exclusions.txt	LTP241	ltpFR	1	8	0	PHOTO	1055	n/a	0	0	0.5869140625	0.422607421875	lower	../fonts/amplitud.ttf
1588.134	n/a	REC_START	794067	n/a	LTP241	ltpFR	1	8	n/a	n/a	n/a	n/a	n/a	n/a	n/a	n/a	n/a	n/a
1588.96	n/a	REC_WORD	794480	wordpools/wasnorm_wordpool_less_exclusions.txt	LTP241	ltpFR	1	8	0	PHOTO	1055	n/a	0	n/a	n/a	n/a	n/a	n/a
1590.084	n/a	REC_WORD	795042	wordpools/wasnorm_wordpool_less_exclusions.txt	LTP241	ltpFR	1	8	0	BEAKER	104	n/a	0	n/a	n/a	n/a	n/a	n/a
1591.166	n/a	REC_WORD	795583	wordpools/wasnorm_wordpool_less_exclusions.txt	LTP241	ltpFR	1	8	0	TIGER	1467	n/a	1	n/a	n/a	n/a	n/a	n/a
1601.838	n/a	REC_WORD	800919	wordpools/wasnorm_wordpool_less_exclusions.txt	LTP241	ltpFR	1	8	0	FRAME	600	n/a	1	n/a	n/a	n/a	n/a	n/a
1626.484	n/a	REC_WORD	813242	wordpools/wasnorm_wordpool_less_exclusions.txt	LTP241	ltpFR	1	8	0	LIBRARY	816	n/a	1	n/a	n/a	n/a	n/a	n/a
1636.76	n/a	REC_WORD	818380	wordpools/wasnorm_wordpool_less_exclusions.txt	LTP241	ltpFR	1	8	0	KITTEN	780	n/a	0	n/a	n/a	n/a	n/a	n/a
1651.468	n/a	REC_WORD	825734	wordpools/wasnorm_wordpool_less_exclusions.txt	LTP241	ltpFR	1	8	0	MAGAZINE	853	n/a	1	n/a	n/a	n/a	n/a	n/a
1671.65	n/a	WORD	835825	wordpools/wasnorm_wordpool_less_exclusions.txt	LTP241	ltpFR	1	9	0	BROCCOLI	176	n/a	0	0	0.5869140625	0.422607421875	lower	../fonts/amplitud.ttf
1675.664	n/a	WORD	837832	wordpools/wasnorm_wordpool_less_exclusions.txt	LTP241	ltpFR	1	9	0	CABBAGE	210	n/a	0	0	0.5869140625	0.422607421875	lower	../fonts/amplitud.ttf
1679.566	n/a	WORD	839783	wordpools/wasnorm_wordpool_less_exclusions.txt	LTP241	ltpFR	1	9	0	TANK	1432	n/a	1	0	0.5869140625	0.422607421875	lower	../fonts/amplitud.ttf
1683.714	n/a	WORD	841857	wordpools/wasnorm_wordpool_less_exclusions.txt	LTP241	ltpFR	1	9	0	CARD	243	n/a	0	0	0.5869140625	0.422607421875	lower	../fonts/amplitud.ttf
1687.93	n/a	WORD	843965	wordpools/wasnorm_wordpool_less_exclusions.txt	LTP241	ltpFR	1	9	0	WAGON	1578	n/a	1	0	0.5869140625	0.422607421875	lower	../fonts/amplitud.ttf
1691.778	n/a	WORD	845889	wordpools/wasnorm_wordpool_less_exclusions.txt	LTP241	ltpFR	1	9	0	STREET	1393	n/a	1	0	0.5869140625	0.422607421875	lower	../fonts/amplitud.ttf
1695.844	n/a	WORD	847922	wordpools/wasnorm_wordpool_less_exclusions.txt	LTP241	ltpFR	1	9	0	ARTERY	41	n/a	0	0	0.5869140625	0.422607421875	lower	../fonts/amplitud.ttf
1699.722	n/a	WORD	849861	wordpools/wasnorm_wordpool_less_exclusions.txt	LTP241	ltpFR	1	9	0	BOXER	160	n/a	1	0	0.5869140625	0.422607421875	lower	../fonts/amplitud.ttf
1703.692	n/a	WORD	851846	wordpools/wasnorm_wordpool_less_exclusions.txt	LTP241	ltpFR	1	9	0	PATH	1023	n/a	1	0	0.5869140625	0.422607421875	lower	../fonts/amplitud.ttf
1707.84	n/a	WORD	853920	wordpools/wasnorm_wordpool_less_exclusions.txt	LTP241	ltpFR	1	9	0	CHEEK	287	n/a	0	0	0.5869140625	0.422607421875	lower	../fonts/amplitud.ttf
1711.738	n/a	WORD	855869	wordpools/wasnorm_wordpool_less_exclusions.txt	LTP241	ltpFR	1	9	0	BOARD	143	n/a	1	0	0.5869140625	0.422607421875	lower	../fonts/amplitud.ttf
1715.768	n/a	WORD	857884	wordpools/wasnorm_wordpool_less_exclusions.txt	LTP241	ltpFR	1	9	0	RAILROAD	1162	n/a	1	0	0.5869140625	0.422607421875	lower	../fonts/amplitud.ttf
1719.886	n/a	WORD	859943	wordpools/wasnorm_wordpool_less_exclusions.txt	LTP241	ltpFR	1	9	0	SHEPHERD	1283	n/a	1	0	0.5869140625	0.422607421875	lower	../fonts/amplitud.ttf
1723.986	n/a	WORD	861993	wordpools/wasnorm_wordpool_less_exclusions.txt	LTP241	ltpFR	1	9	0	BOY	161	n/a	1	0	0.5869140625	0.422607421875	lower	../fonts/amplitud.ttf
1728.166	n/a	WORD	864083	wordpools/wasnorm_wordpool_less_exclusions.txt	LTP241	ltpFR	1	9	0	SPRINKLE	1359	n/a	0	0	0.5869140625	0.422607421875	lower	../fonts/amplitud.ttf
1732.082	n/a	WORD	866041	wordpools/wasnorm_wordpool_less_exclusions.txt	LTP241	ltpFR	1	9	0	JUG	762	n/a	1	0	0.5869140625	0.422607421875	lower	../fonts/amplitud.ttf
1737.672	n/a	REC_START	868836	n/a	LTP241	ltpFR	1	9	n/a	n/a	n/a	n/a	n/a	n/a	n/a	n/a	n/a	n/a
1738.71	n/a	REC_WORD	869355	wordpools/wasnorm_wordpool_less_exclusions.txt	LTP241	ltpFR	1	9	n/a	BAKER	71	n/a	n/a	n/a	n/a	n/a	n/a	n/a
1739.644	n/a	REC_WORD	869822	wordpools/wasnorm_wordpool_less_exclusions.txt	LTP241	ltpFR	1	9	0	ALLEY	15	n/a	1	n/a	n/a	n/a	n/a	n/a
1741.16	n/a	REC_WORD	870580	wordpools/wasnorm_wordpool_less_exclusions.txt	LTP241	ltpFR	1	9	0	SPRINKLE	1359	n/a	0	n/a	n/a	n/a	n/a	n/a
1742.95	n/a	REC_WORD	871475	wordpools/wasnorm_wordpool_less_exclusions.txt	LTP241	ltpFR	1	9	0	BOY	161	n/a	1	n/a	n/a	n/a	n/a	n/a
1744.866	n/a	REC_WORD	872433	wordpools/wasnorm_wordpool_less_exclusions.txt	LTP241	ltpFR	1	9	n/a	JUDGE	761	n/a	n/a	n/a	n/a	n/a	n/a	n/a
1754.674	n/a	REC_WORD	877337	wordpools/wasnorm_wordpool_less_exclusions.txt	LTP241	ltpFR	1	9	0	STREET	1393	n/a	1	n/a	n/a	n/a	n/a	n/a
1755.772	n/a	REC_WORD	877886	wordpools/wasnorm_wordpool_less_exclusions.txt	LTP241	ltpFR	1	9	0	ALLEY	15	n/a	1	n/a	n/a	n/a	n/a	n/a
1769.776	n/a	REC_WORD	884888	wordpools/wasnorm_wordpool_less_exclusions.txt	LTP241	ltpFR	1	9	0	BOARD	143	n/a	1	n/a	n/a	n/a	n/a	n/a
1772.306	n/a	REC_WORD	886153	wordpools/wasnorm_wordpool_less_exclusions.txt	LTP241	ltpFR	1	9	0	CARD	243	n/a	0	n/a	n/a	n/a	n/a	n/a
1799.984	n/a	REC_WORD	899992	wordpools/wasnorm_wordpool_less_exclusions.txt	LTP241	ltpFR	1	9	0	BOXER	160	n/a	1	n/a	n/a	n/a	n/a	n/a
1818.546	n/a	WORD	909273	wordpools/wasnorm_wordpool_less_exclusions.txt	LTP241	ltpFR	1	10	0	GARDEN	623	n/a	1	0	0.5869140625	0.422607421875	lower	../fonts/amplitud.ttf
1822.578	n/a	WORD	911289	wordpools/wasnorm_wordpool_less_exclusions.txt	LTP241	ltpFR	1	10	0	SHINGLE	1285	n/a	0	0	0.5869140625	0.422607421875	lower	../fonts/amplitud.ttf
1826.71	n/a	WORD	913355	wordpools/wasnorm_wordpool_less_exclusions.txt	LTP241	ltpFR	1	10	0	MAJOR	859	n/a	1	0	0.5869140625	0.422607421875	lower	../fonts/amplitud.ttf
1830.908	n/a	WORD	915454	wordpools/wasnorm_wordpool_less_exclusions.txt	LTP241	ltpFR	1	10	0	NOTE	958	n/a	0	0	0.5869140625	0.422607421875	lower	../fonts/amplitud.ttf
1834.892	n/a	WORD	917446	wordpools/wasnorm_wordpool_less_exclusions.txt	LTP241	ltpFR	1	10	0	PARCEL	1012	n/a	1	0	0.5869140625	0.422607421875	lower	../fonts/amplitud.ttf
1838.992	n/a	WORD	919496	wordpools/wasnorm_wordpool_less_exclusions.txt	LTP241	ltpFR	1	10	0	WITCH	1617	n/a	1	0	0.5869140625	0.422607421875	lower	../fonts/amplitud.ttf
1842.922	n/a	WORD	921461	wordpools/wasnorm_wordpool_less_exclusions.txt	LTP241	ltpFR	1	10	0	GOBLIN	645	n/a	1	0	0.5869140625	0.422607421875	lower	../fonts/amplitud.ttf
1847.122	n/a	WORD	923561	wordpools/wasnorm_wordpool_less_exclusions.txt	LTP241	ltpFR	1	10	0	ATHLETE	52	n/a	1	0	0.5869140625	0.422607421875	lower	../fonts/amplitud.ttf
1851.1	n/a	WORD	925550	wordpools/wasnorm_wordpool_less_exclusions.txt	LTP241	ltpFR	1	10	0	DINNER	468	n/a	0	0	0.5869140625	0.422607421875	lower	../fonts/amplitud.ttf
1855.102	n/a	WORD	927551	wordpools/wasnorm_wordpool_less_exclusions.txt	LTP241	ltpFR	1	10	0	SNACK	1331	n/a	0	0	0.5869140625	0.422607421875	lower	../fonts/amplitud.ttf
1859.1	n/a	WORD	929550	wordpools/wasnorm_wordpool_less_exclusions.txt	LTP241	ltpFR	1	10	0	BOOTH	151	n/a	1	0	0.5869140625	0.422607421875	lower	../fonts/amplitud.ttf
1863.066	n/a	WORD	931533	wordpools/wasnorm_wordpool_less_exclusions.txt	LTP241	ltpFR	1	10	0	DANDELION	438	n/a	0	0	0.5869140625	0.422607421875	lower	../fonts/amplitud.ttf
1867.198	n/a	WORD	933599	wordpools/wasnorm_wordpool_less_exclusions.txt	LTP241	ltpFR	1	10	0	BRICK	172	n/a	0	0	0.5869140625	0.422607421875	lower	../fonts/amplitud.ttf
1871.23	n/a	WORD	935615	wordpools/wasnorm_wordpool_less_exclusions.txt	LTP241	ltpFR	1	10	0	SOCKET	1340	n/a	0	0	0.5869140625	0.422607421875	lower	../fonts/amplitud.ttf
1875.112	n/a	WORD	937556	wordpools/wasnorm_wordpool_less_exclusions.txt	LTP241	ltpFR	1	10	0	PAN	1008	n/a	0	0	0.5869140625	0.422607421875	lower	../fonts/amplitud.ttf
1879.312	n/a	WORD	939656	wordpools/wasnorm_wordpool_less_exclusions.txt	LTP241	ltpFR	1	10	0	LAWYER	806	n/a	1	0	0.5869140625	0.422607421875	lower	../fonts/amplitud.ttf
1885.102	n/a	REC_START	942551	n/a	LTP241	ltpFR	1	10	n/a	n/a	n/a	n/a	n/a	n/a	n/a	n/a	n/a	n/a
1886.02	n/a	REC_WORD	943010	wordpools/wasnorm_wordpool_less_exclusions.txt	LTP241	ltpFR	1	10	0	GARDEN	623	n/a	1	n/a	n/a	n/a	n/a	n/a
1886.664	n/a	REC_WORD	943332	wordpools/wasnorm_wordpool_less_exclusions.txt	LTP241	ltpFR	1	10	0	SHINGLE	1285	n/a	0	n/a	n/a	n/a	n/a	n/a
1887.646	n/a	REC_WORD	943823	wordpools/wasnorm_wordpool_less_exclusions.txt	LTP241	ltpFR	1	10	0	NOTE	958	n/a	0	n/a	n/a	n/a	n/a	n/a
1888.758	n/a	REC_WORD	944379	wordpools/wasnorm_wordpool_less_exclusions.txt	LTP241	ltpFR	1	10	0	DANDELION	438	n/a	0	n/a	n/a	n/a	n/a	n/a
1889.96	n/a	REC_WORD	944980	wordpools/wasnorm_wordpool_less_exclusions.txt	LTP241	ltpFR	1	10	0	LAWYER	806	n/a	1	n/a	n/a	n/a	n/a	n/a
1896.29	n/a	REC_WORD	948145	wordpools/wasnorm_wordpool_less_exclusions.txt	LTP241	ltpFR	1	10	0	SHINGLE	1285	n/a	0	n/a	n/a	n/a	n/a	n/a
1929.348	n/a	REC_WORD	964674	wordpools/wasnorm_wordpool_less_exclusions.txt	LTP241	ltpFR	1	10	0	DINNER	468	n/a	0	n/a	n/a	n/a	n/a	n/a
1932.62	n/a	REC_WORD	966310	wordpools/wasnorm_wordpool_less_exclusions.txt	LTP241	ltpFR	1	10	0	GOBLIN	645	n/a	1	n/a	n/a	n/a	n/a	n/a
1933.892	n/a	REC_WORD	966946	wordpools/wasnorm_wordpool_less_exclusions.txt	LTP241	ltpFR	1	10	0	WITCH	1617	n/a	1	n/a	n/a	n/a	n/a	n/a
1949.044	n/a	REC_WORD	974522	wordpools/wasnorm_wordpool_less_exclusions.txt	LTP241	ltpFR	1	10	0	SNACK	1331	n/a	0	n/a	n/a	n/a	n/a	n/a
1951.584	n/a	REC_WORD	975792	wordpools/wasnorm_wordpool_less_exclusions.txt	LTP241	ltpFR	1	10	0	SOCKET	1340	n/a	0	n/a	n/a	n/a	n/a	n/a
1973.772	n/a	WORD	986886	wordpools/wasnorm_wordpool_less_exclusions.txt	LTP241	ltpFR	1	11	0	FRIES	607	n/a	0	0	0.5869140625	0.422607421875	lower	../fonts/amplitud.ttf
1977.822	n/a	WORD	988911	wordpools/wasnorm_wordpool_less_exclusions.txt	LTP241	ltpFR	1	11	0	SKUNK	1321	n/a	0	0	0.5869140625	0.422607421875	lower	../fonts/amplitud.ttf
1981.872	n/a	WORD	990936	wordpools/wasnorm_wordpool_less_exclusions.txt	LTP241	ltpFR	1	11	0	TONGUE	1479	n/a	0	0	0.5869140625	0.422607421875	lower	../fonts/amplitud.ttf
1985.77	n/a	WORD	992885	wordpools/wasnorm_wordpool_less_exclusions.txt	LTP241	ltpFR	1	11	1	CANYON	235	n/a	0	1	0.412841796875	0.57763671875	upper	../fonts/zerothre.ttf
1989.986	n/a	WORD	994993	wordpools/wasnorm_wordpool_less_exclusions.txt	LTP241	ltpFR	1	11	1	PIGMENT	1066	n/a	1	1	0.412841796875	0.57763671875	upper	../fonts/zerothre.ttf
1994.15	n/a	WORD	997075	wordpools/wasnorm_wordpool_less_exclusions.txt	LTP241	ltpFR	1	11	1	SOAP	1337	n/a	0	1	0.412841796875	0.57763671875	upper	../fonts/zerothre.ttf
1998.312	n/a	WORD	999156	wordpools/wasnorm_wordpool_less_exclusions.txt	LTP241	ltpFR	1	11	1	DIAPER	459	n/a	0	1	0.412841796875	0.57763671875	upper	../fonts/zerothre.ttf
2002.178	n/a	WORD	1001089	wordpools/wasnorm_wordpool_less_exclusions.txt	LTP241	ltpFR	1	11	0	JUGGLER	763	n/a	1	0	0.5869140625	0.422607421875	lower	../fonts/amplitud.ttf
2006.18	n/a	WORD	1003090	wordpools/wasnorm_wordpool_less_exclusions.txt	LTP241	ltpFR	1	11	0	WILDERNESS	1610	n/a	1	0	0.5869140625	0.422607421875	lower	../fonts/amplitud.ttf
2010.362	n/a	WORD	1005181	wordpools/wasnorm_wordpool_less_exclusions.txt	LTP241	ltpFR	1	11	0	CUB	419	n/a	1	0	0.5869140625	0.422607421875	lower	../fonts/amplitud.ttf
2014.578	n/a	WORD	1007289	wordpools/wasnorm_wordpool_less_exclusions.txt	LTP241	ltpFR	1	11	1	GOO	648	n/a	0	1	0.412841796875	0.57763671875	upper	../fonts/zerothre.ttf
2018.444	n/a	WORD	1009222	wordpools/wasnorm_wordpool_less_exclusions.txt	LTP241	ltpFR	1	11	1	BIOLOGIST	128	n/a	1	1	0.412841796875	0.57763671875	upper	../fonts/zerothre.ttf
2022.338	n/a	WORD	1011169	wordpools/wasnorm_wordpool_less_exclusions.txt	LTP241	ltpFR	1	11	1	ORANGE	980	n/a	0	1	0.412841796875	0.57763671875	upper	../fonts/zerothre.ttf
2026.54	n/a	WORD	1013270	wordpools/wasnorm_wordpool_less_exclusions.txt	LTP241	ltpFR	1	11	1	PEAR	1033	n/a	0	1	0.412841796875	0.57763671875	upper	../fonts/zerothre.ttf
2030.406	n/a	WORD	1015203	wordpools/wasnorm_wordpool_less_exclusions.txt	LTP241	ltpFR	1	11	0	DISH	474	n/a	0	0	0.5869140625	0.422607421875	lower	../fonts/amplitud.ttf
2034.304	n/a	WORD	1017152	wordpools/wasnorm_wordpool_less_exclusions.txt	LTP241	ltpFR	1	11	0	FIG	563	n/a	0	0	0.5869140625	0.422607421875	lower	../fonts/amplitud.ttf
2040.328	n/a	REC_START	1020164	n/a	LTP241	ltpFR	1	11	n/a	n/a	n/a	n/a	n/a	n/a	n/a	n/a	n/a	n/a
2041.3	n/a	REC_WORD	1020650	wordpools/wasnorm_wordpool_less_exclusions.txt	LTP241	ltpFR	1	11	0	FIG	563	n/a	0	n/a	n/a	n/a	n/a	n/a
2042.518	n/a	REC_WORD	1021259	wordpools/wasnorm_wordpool_less_exclusions.txt	LTP241	ltpFR	1	11	0	DISH	474	n/a	0	n/a	n/a	n/a	n/a	n/a
2043.53	n/a	REC_WORD	1021765	wordpools/wasnorm_wordpool_less_exclusions.txt	LTP241	ltpFR	1	11	0	FRIES	607	n/a	0	n/a	n/a	n/a	n/a	n/a
2051.506	n/a	REC_WORD	1025753	wordpools/wasnorm_wordpool_less_exclusions.txt	LTP241	ltpFR	1	11	1	BIOLOGIST	128	n/a	1	n/a	n/a	n/a	n/a	n/a
2052.506	n/a	REC_WORD_VV	1026253	wordpools/wasnorm_wordpool_less_exclusions.txt	LTP241	ltpFR	1	11	n/a	<>	-1	n/a	n/a	n/a	n/a	n/a	n/a	n/a
2059.106	n/a	REC_WORD	1029553	wordpools/wasnorm_wordpool_less_exclusions.txt	LTP241	ltpFR	1	11	1	GOO	648	n/a	0	n/a	n/a	n/a	n/a	n/a
2067.376	n/a	REC_WORD	1033688	wordpools/wasnorm_wordpool_less_exclusions.txt	LTP241	ltpFR	1	11	0	WILDERNESS	1610	n/a	1	n/a	n/a	n/a	n/a	n/a
2069.048	n/a	REC_WORD	1034524	wordpools/wasnorm_wordpool_less_exclusions.txt	LTP241	ltpFR	1	11	0	JUGGLER	763	n/a	1	n/a	n/a	n/a	n/a	n/a
2074.196	n/a	REC_WORD	1037098	wordpools/wasnorm_wordpool_less_exclusions.txt	LTP241	ltpFR	1	11	0	CUB	419	n/a	1	n/a	n/a	n/a	n/a	n/a
2124.014	n/a	WORD	1062007	wordpools/wasnorm_wordpool_less_exclusions.txt	LTP241	ltpFR	1	12	1	ARMY	39	n/a	1	1	0.412841796875	0.57763671875	upper	../fonts/zerothre.ttf
2128.062	n/a	WORD	1064031	wordpools/wasnorm_wordpool_less_exclusions.txt	LTP241	ltpFR	1	12	1	HINGE	709	n/a	0	1	0.412841796875	0.57763671875	upper	../fonts/zerothre.ttf
2132.144	n/a	WORD	1066072	wordpools/wasnorm_wordpool_less_exclusions.txt	LTP241	ltpFR	1	12	1	DAM	436	n/a	0	1	0.412841796875	0.57763671875	upper	../fonts/zerothre.ttf
2136.276	n/a	WORD	1068138	wordpools/wasnorm_wordpool_less_exclusions.txt	LTP241	ltpFR	1	12	1	ASSOCIATE	49	n/a	1	1	0.412841796875	0.57763671875	upper	../fonts/zerothre.ttf
2140.158	n/a	WORD	1070079	wordpools/wasnorm_wordpool_less_exclusions.txt	LTP241	ltpFR	1	12	1	HALL	677	n/a	0	1	0.412841796875	0.57763671875	upper	../fonts/zerothre.ttf
2144.102	n/a	WORD	1072051	wordpools/wasnorm_wordpool_less_exclusions.txt	LTP241	ltpFR	1	12	1	TIDE	1465	n/a	0	1	0.412841796875	0.57763671875	upper	../fonts/zerothre.ttf
2148.256	n/a	WORD	1074128	wordpools/wasnorm_wordpool_less_exclusions.txt	LTP241	ltpFR	1	12	1	SOCIETY	1338	n/a	1	1	0.412841796875	0.57763671875	upper	../fonts/zerothre.ttf
2152.418	n/a	WORD	1076209	wordpools/wasnorm_wordpool_less_exclusions.txt	LTP241	ltpFR	1	12	1	SCALLOP	1242	n/a	1	1	0.412841796875	0.57763671875	upper	../fonts/zerothre.ttf
2156.27	n/a	WORD	1078135	wordpools/wasnorm_wordpool_less_exclusions.txt	LTP241	ltpFR	1	12	1	GRATE	657	n/a	0	1	0.412841796875	0.57763671875	upper	../fonts/zerothre.ttf
2160.382	n/a	WORD	1080191	wordpools/wasnorm_wordpool_less_exclusions.txt	LTP241	ltpFR	1	12	1	SWAMP	1416	n/a	0	1	0.412841796875	0.57763671875	upper	../fonts/zerothre.ttf
2164.334	n/a	WORD	1082167	wordpools/wasnorm_wordpool_less_exclusions.txt	LTP241	ltpFR	1	12	1	BRIDGE	174	n/a	0	1	0.412841796875	0.57763671875	upper	../fonts/zerothre.ttf
2168.214	n/a	WORD	1084107	wordpools/wasnorm_wordpool_less_exclusions.txt	LTP241	ltpFR	1	12	1	MOOSE	915	n/a	1	1	0.412841796875	0.57763671875	upper	../fonts/zerothre.ttf
2172.248	n/a	WORD	1086124	wordpools/wasnorm_wordpool_less_exclusions.txt	LTP241	ltpFR	1	12	1	BACON	67	n/a	0	1	0.412841796875	0.57763671875	upper	../fonts/zerothre.ttf
2176.392	n/a	WORD	1088196	wordpools/wasnorm_wordpool_less_exclusions.txt	LTP241	ltpFR	1	12	1	WHIP	1604	n/a	0	1	0.412841796875	0.57763671875	upper	../fonts/zerothre.ttf
2180.228	n/a	WORD	1090114	wordpools/wasnorm_wordpool_less_exclusions.txt	LTP241	ltpFR	1	12	1	CRICKET	408	n/a	1	1	0.412841796875	0.57763671875	upper	../fonts/zerothre.ttf
2184.156	n/a	WORD	1092078	wordpools/wasnorm_wordpool_less_exclusions.txt	LTP241	ltpFR	1	12	1	MOSQUITO	917	n/a	1	1	0.412841796875	0.57763671875	upper	../fonts/zerothre.ttf
2189.95	n/a	REC_START	1094975	n/a	LTP241	ltpFR	1	12	n/a	n/a	n/a	n/a	n/a	n/a	n/a	n/a	n/a	n/a
2190.858	n/a	REC_WORD	1095429	wordpools/wasnorm_wordpool_less_exclusions.txt	LTP241	ltpFR	1	12	1	ARMY	39	n/a	1	n/a	n/a	n/a	n/a	n/a
2191.56	n/a	REC_WORD	1095780	wordpools/wasnorm_wordpool_less_exclusions.txt	LTP241	ltpFR	1	12	1	HINGE	709	n/a	0	n/a	n/a	n/a	n/a	n/a
2192.734	n/a	REC_WORD	1096367	wordpools/wasnorm_wordpool_less_exclusions.txt	LTP241	ltpFR	1	12	1	TIDE	1465	n/a	0	n/a	n/a	n/a	n/a	n/a
2194.026	n/a	REC_WORD	1097013	wordpools/wasnorm_wordpool_less_exclusions.txt	LTP241	ltpFR	1	12	1	MOSQUITO	917	n/a	1	n/a	n/a	n/a	n/a	n/a
2207.682	n/a	REC_WORD	1103841	wordpools/wasnorm_wordpool_less_exclusions.txt	LTP241	ltpFR	1	12	1	SCALLOP	1242	n/a	1	n/a	n/a	n/a	n/a	n/a
2216.276	n/a	REC_WORD	1108138	wordpools/wasnorm_wordpool_less_exclusions.txt	LTP241	ltpFR	1	12	1	BRIDGE	174	n/a	0	n/a	n/a	n/a	n/a	n/a
2222.026	n/a	REC_WORD	1111013	wordpools/wasnorm_wordpool_less_exclusions.txt	LTP241	ltpFR	1	12	1	HINGE	709	n/a	0	n/a	n/a	n/a	n/a	n/a
2265.6	n/a	REST_REWET	1132800	n/a	LTP241	ltpFR	1	12	n/a	n/a	n/a	n/a	n/a	n/a	n/a	n/a	n/a	n/a
2564.58	n/a	WORD	1282290	wordpools/wasnorm_wordpool_less_exclusions.txt	LTP241	ltpFR	1	13	-1	SKIN	1318	n/a	-1	1	1.0	1.0	upper	../fonts/Verdana.ttf
2568.562	n/a	WORD	1284281	wordpools/wasnorm_wordpool_less_exclusions.txt	LTP241	ltpFR	1	13	-1	LAWN	805	n/a	-1	1	1.0	1.0	upper	../fonts/Verdana.ttf
2572.41	n/a	WORD	1286205	wordpools/wasnorm_wordpool_less_exclusions.txt	LTP241	ltpFR	1	13	-1	FIELD	562	n/a	-1	1	1.0	1.0	upper	../fonts/Verdana.ttf
2576.408	n/a	WORD	1288204	wordpools/wasnorm_wordpool_less_exclusions.txt	LTP241	ltpFR	1	13	-1	BASEMENT	94	n/a	-1	1	1.0	1.0	upper	../fonts/Verdana.ttf
2580.424	n/a	WORD	1290212	wordpools/wasnorm_wordpool_less_exclusions.txt	LTP241	ltpFR	1	13	-1	BALCONY	72	n/a	-1	1	1.0	1.0	upper	../fonts/Verdana.ttf
2584.64	n/a	WORD	1292320	wordpools/wasnorm_wordpool_less_exclusions.txt	LTP241	ltpFR	1	13	-1	SQUIRREL	1362	n/a	-1	1	1.0	1.0	upper	../fonts/Verdana.ttf
2588.736	n/a	WORD	1294368	wordpools/wasnorm_wordpool_less_exclusions.txt	LTP241	ltpFR	1	13	-1	RICE	1190	n/a	-1	1	1.0	1.0	upper	../fonts/Verdana.ttf
2592.704	n/a	WORD	1296352	wordpools/wasnorm_wordpool_less_exclusions.txt	LTP241	ltpFR	1	13	-1	BELLY	119	n/a	-1	1	1.0	1.0	upper	../fonts/Verdana.ttf
2596.854	n/a	WORD	1298427	wordpools/wasnorm_wordpool_less_exclusions.txt	LTP241	ltpFR	1	13	-1	ELEPHANT	523	n/a	-1	1	1.0	1.0	upper	../fonts/Verdana.ttf
2601.016	n/a	WORD	1300508	wordpools/wasnorm_wordpool_less_exclusions.txt	LTP241	ltpFR	1	13	-1	OUTDOORS	987	n/a	-1	1	1.0	1.0	upper	../fonts/Verdana.ttf
2605.23	n/a	WORD	1302615	wordpools/wasnorm_wordpool_less_exclusions.txt	LTP241	ltpFR	1	13	-1	LOAF	835	n/a	-1	1	1.0	1.0	upper	../fonts/Verdana.ttf
2609.284	n/a	WORD	1304642	wordpools/wasnorm_wordpool_less_exclusions.txt	LTP241	ltpFR	1	13	-1	ABDOMEN	1	n/a	-1	1	1.0	1.0	upper	../fonts/Verdana.ttf
2613.484	n/a	WORD	1306742	wordpools/wasnorm_wordpool_less_exclusions.txt	LTP241	ltpFR	1	13	-1	STREAM	1392	n/a	-1	1	1.0	1.0	upper	../fonts/Verdana.ttf
2617.7	n/a	WORD	1308850	wordpools/wasnorm_wordpool_less_exclusions.txt	LTP241	ltpFR	1	13	-1	BUCKET	184	n/a	-1	1	1.0	1.0	upper	../fonts/Verdana.ttf
2621.748	n/a	WORD	1310874	wordpools/wasnorm_wordpool_less_exclusions.txt	LTP241	ltpFR	1	13	-1	CUPBOARD	425	n/a	-1	1	1.0	1.0	upper	../fonts/Verdana.ttf
2625.878	n/a	WORD	1312939	wordpools/wasnorm_wordpool_less_exclusions.txt	LTP241	ltpFR	1	13	-1	CASHEW	253	n/a	-1	1	1.0	1.0	upper	../fonts/Verdana.ttf
2631.504	n/a	REC_START	1315752	n/a	LTP241	ltpFR	1	13	n/a	n/a	n/a	n/a	n/a	n/a	n/a	n/a	n/a	n/a
2632.332	n/a	REC_WORD	1316166	wordpools/wasnorm_wordpool_less_exclusions.txt	LTP241	ltpFR	1	13	-1	CUPBOARD	425	n/a	-1	n/a	n/a	n/a	n/a	n/a
2633.12	n/a	REC_WORD	1316560	wordpools/wasnorm_wordpool_less_exclusions.txt	LTP241	ltpFR	1	13	-1	CASHEW	253	n/a	-1	n/a	n/a	n/a	n/a	n/a
2636.258	n/a	REC_WORD	1318129	wordpools/wasnorm_wordpool_less_exclusions.txt	LTP241	ltpFR	1	13	-1	RICE	1190	n/a	-1	n/a	n/a	n/a	n/a	n/a
2639.3	n/a	REC_WORD	1319650	wordpools/wasnorm_wordpool_less_exclusions.txt	LTP241	ltpFR	1	13	-1	ELEPHANT	523	n/a	-1	n/a	n/a	n/a	n/a	n/a
2640.632	n/a	REC_WORD	1320316	wordpools/wasnorm_wordpool_less_exclusions.txt	LTP241	ltpFR	1	13	-1	ABDOMEN	1	n/a	-1	n/a	n/a	n/a	n/a	n/a
2641.964	n/a	REC_WORD	1320982	wordpools/wasnorm_wordpool_less_exclusions.txt	LTP241	ltpFR	1	13	-1	SKIN	1318	n/a	-1	n/a	n/a	n/a	n/a	n/a
2643.266	n/a	REC_WORD	1321633	wordpools/wasnorm_wordpool_less_exclusions.txt	LTP241	ltpFR	1	13	-1	LAWN	805	n/a	-1	n/a	n/a	n/a	n/a	n/a
2644.334	n/a	REC_WORD	1322167	wordpools/wasnorm_wordpool_less_exclusions.txt	LTP241	ltpFR	1	13	-1	OUTDOORS	987	n/a	-1	n/a	n/a	n/a	n/a	n/a
2646.994	n/a	REC_WORD	1323497	wordpools/wasnorm_wordpool_less_exclusions.txt	LTP241	ltpFR	1	13	-1	BASEMENT	94	n/a	-1	n/a	n/a	n/a	n/a	n/a
2659.656	n/a	REC_WORD	1329828	wordpools/wasnorm_wordpool_less_exclusions.txt	LTP241	ltpFR	1	13	-1	BUCKET	184	n/a	-1	n/a	n/a	n/a	n/a	n/a
2660.738	n/a	REC_WORD	1330369	wordpools/wasnorm_wordpool_less_exclusions.txt	LTP241	ltpFR	1	13	-1	STREAM	1392	n/a	-1	n/a	n/a	n/a	n/a	n/a
2694.032	n/a	REC_WORD	1347016	wordpools/wasnorm_wordpool_less_exclusions.txt	LTP241	ltpFR	1	13	-1	LOAF	835	n/a	-1	n/a	n/a	n/a	n/a	n/a
2712.126	n/a	WORD	1356063	wordpools/wasnorm_wordpool_less_exclusions.txt	LTP241	ltpFR	1	14	-1	POPE	1105	n/a	-1	1	1.0	1.0	upper	../fonts/Verdana.ttf
2716.072	n/a	WORD	1358036	wordpools/wasnorm_wordpool_less_exclusions.txt	LTP241	ltpFR	1	14	-1	FUGITIVE	612	n/a	-1	1	1.0	1.0	upper	../fonts/Verdana.ttf
2720.074	n/a	WORD	1360037	wordpools/wasnorm_wordpool_less_exclusions.txt	LTP241	ltpFR	1	14	-1	SUSPECT	1415	n/a	-1	1	1.0	1.0	upper	../fonts/Verdana.ttf
2724.202	n/a	WORD	1362101	wordpools/wasnorm_wordpool_less_exclusions.txt	LTP241	ltpFR	1	14	-1	PADDLE	1000	n/a	-1	1	1.0	1.0	upper	../fonts/Verdana.ttf
2728.39	n/a	WORD	1364195	wordpools/wasnorm_wordpool_less_exclusions.txt	LTP241	ltpFR	1	14	-1	CANOE	233	n/a	-1	1	1.0	1.0	upper	../fonts/Verdana.ttf
2732.388	n/a	WORD	1366194	wordpools/wasnorm_wordpool_less_exclusions.txt	LTP241	ltpFR	1	14	-1	BOYFRIEND	162	n/a	-1	1	1.0	1.0	upper	../fonts/Verdana.ttf
2736.604	n/a	WORD	1368302	wordpools/wasnorm_wordpool_less_exclusions.txt	LTP241	ltpFR	1	14	-1	TECHNICIAN	1443	n/a	-1	1	1.0	1.0	upper	../fonts/Verdana.ttf
2740.652	n/a	WORD	1370326	wordpools/wasnorm_wordpool_less_exclusions.txt	LTP241	ltpFR	1	14	-1	BEER	114	n/a	-1	1	1.0	1.0	upper	../fonts/Verdana.ttf
2744.702	n/a	WORD	1372351	wordpools/wasnorm_wordpool_less_exclusions.txt	LTP241	ltpFR	1	14	-1	MONK	910	n/a	-1	1	1.0	1.0	upper	../fonts/Verdana.ttf
2748.818	n/a	WORD	1374409	wordpools/wasnorm_wordpool_less_exclusions.txt	LTP241	ltpFR	1	14	-1	SPONGE	1355	n/a	-1	1	1.0	1.0	upper	../fonts/Verdana.ttf
2752.816	n/a	WORD	1376408	wordpools/wasnorm_wordpool_less_exclusions.txt	LTP241	ltpFR	1	14	-1	PASTRY	1022	n/a	-1	1	1.0	1.0	upper	../fonts/Verdana.ttf
2757.012	n/a	WORD	1378506	wordpools/wasnorm_wordpool_less_exclusions.txt	LTP241	ltpFR	1	14	-1	TANGERINE	1431	n/a	-1	1	1.0	1.0	upper	../fonts/Verdana.ttf
2761.114	n/a	WORD	1380557	wordpools/wasnorm_wordpool_less_exclusions.txt	LTP241	ltpFR	1	14	-1	SAW	1239	n/a	-1	1	1.0	1.0	upper	../fonts/Verdana.ttf
2765.146	n/a	WORD	1382573	wordpools/wasnorm_wordpool_less_exclusions.txt	LTP241	ltpFR	1	14	-1	REFRIGERATOR	1179	n/a	-1	1	1.0	1.0	upper	../fonts/Verdana.ttf
2769.328	n/a	WORD	1384664	wordpools/wasnorm_wordpool_less_exclusions.txt	LTP241	ltpFR	1	14	-1	TURKEY	1520	n/a	-1	1	1.0	1.0	upper	../fonts/Verdana.ttf
2773.226	n/a	WORD	1386613	wordpools/wasnorm_wordpool_less_exclusions.txt	LTP241	ltpFR	1	14	-1	SHIP	1286	n/a	-1	1	1.0	1.0	upper	../fonts/Verdana.ttf
2778.884	n/a	REC_START	1389442	n/a	LTP241	ltpFR	1	14	n/a	n/a	n/a	n/a	n/a	n/a	n/a	n/a	n/a	n/a
2780.286	n/a	REC_WORD	1390143	wordpools/wasnorm_wordpool_less_exclusions.txt	LTP241	ltpFR	1	14	n/a	PRIEST	1122	n/a	n/a	n/a	n/a	n/a	n/a	n/a
2781.788	n/a	REC_WORD	1390894	wordpools/wasnorm_wordpool_less_exclusions.txt	LTP241	ltpFR	1	14	-1	SHIP	1286	n/a	-1	n/a	n/a	n/a	n/a	n/a
2783.16	n/a	REC_WORD	1391580	wordpools/wasnorm_wordpool_less_exclusions.txt	LTP241	ltpFR	1	14	-1	PADDLE	1000	n/a	-1	n/a	n/a	n/a	n/a	n/a
2784.562	n/a	REC_WORD	1392281	wordpools/wasnorm_wordpool_less_exclusions.txt	LTP241	ltpFR	1	14	-1	TECHNICIAN	1443	n/a	-1	n/a	n/a	n/a	n/a	n/a
2786.302	n/a	REC_WORD	1393151	wordpools/wasnorm_wordpool_less_exclusions.txt	LTP241	ltpFR	1	14	-1	BEER	114	n/a	-1	n/a	n/a	n/a	n/a	n/a
2791.974	n/a	REC_WORD	1395987	wordpools/wasnorm_wordpool_less_exclusions.txt	LTP241	ltpFR	1	14	-1	PASTRY	1022	n/a	-1	n/a	n/a	n/a	n/a	n/a
2795.362	n/a	REC_WORD	1397681	wordpools/wasnorm_wordpool_less_exclusions.txt	LTP241	ltpFR	1	14	-1	TANGERINE	1431	n/a	-1	n/a	n/a	n/a	n/a	n/a
2798.212	n/a	REC_WORD	1399106	wordpools/wasnorm_wordpool_less_exclusions.txt	LTP241	ltpFR	1	14	-1	MONK	910	n/a	-1	n/a	n/a	n/a	n/a	n/a
2804.586	n/a	REC_WORD	1402293	wordpools/wasnorm_wordpool_less_exclusions.txt	LTP241	ltpFR	1	14	-1	FUGITIVE	612	n/a	-1	n/a	n/a	n/a	n/a	n/a
2806.268	n/a	REC_WORD	1403134	wordpools/wasnorm_wordpool_less_exclusions.txt	LTP241	ltpFR	1	14	-1	SUSPECT	1415	n/a	-1	n/a	n/a	n/a	n/a	n/a
2818.078	n/a	REC_WORD	1409039	wordpools/wasnorm_wordpool_less_exclusions.txt	LTP241	ltpFR	1	14	-1	REFRIGERATOR	1179	n/a	-1	n/a	n/a	n/a	n/a	n/a
2819.41	n/a	REC_WORD	1409705	wordpools/wasnorm_wordpool_less_exclusions.txt	LTP241	ltpFR	1	14	-1	TURKEY	1520	n/a	-1	n/a	n/a	n/a	n/a	n/a
2840.22	n/a	REC_WORD	1420110	wordpools/wasnorm_wordpool_less_exclusions.txt	LTP241	ltpFR	1	14	-1	SPONGE	1355	n/a	-1	n/a	n/a	n/a	n/a	n/a
2842.646	n/a	REC_WORD	1421323	wordpools/wasnorm_wordpool_less_exclusions.txt	LTP241	ltpFR	1	14	-1	SAW	1239	n/a	-1	n/a	n/a	n/a	n/a	n/a
2859.942	n/a	WORD	1429971	wordpools/wasnorm_wordpool_less_exclusions.txt	LTP241	ltpFR	1	15	1	HOE	711	n/a	1	1	0.412841796875	0.57763671875	upper	../fonts/zerothre.ttf
2863.874	n/a	WORD	1431937	wordpools/wasnorm_wordpool_less_exclusions.txt	LTP241	ltpFR	1	15	1	BONE	148	n/a	0	1	0.412841796875	0.57763671875	upper	../fonts/zerothre.ttf
2868.072	n/a	WORD	1434036	wordpools/wasnorm_wordpool_less_exclusions.txt	LTP241	ltpFR	1	15	1	SOFTBALL	1343	n/a	0	1	0.412841796875	0.57763671875	upper	../fonts/zerothre.ttf
2871.968	n/a	WORD	1435984	wordpools/wasnorm_wordpool_less_exclusions.txt	LTP241	ltpFR	1	15	0	QUAIL	1147	n/a	0	0	0.5869140625	0.422607421875	lower	../fonts/amplitud.ttf
2876.038	n/a	WORD	1438019	wordpools/wasnorm_wordpool_less_exclusions.txt	LTP241	ltpFR	1	15	0	WEED	1599	n/a	0	0	0.5869140625	0.422607421875	lower	../fonts/amplitud.ttf
2880.068	n/a	WORD	1440034	wordpools/wasnorm_wordpool_less_exclusions.txt	LTP241	ltpFR	1	15	0	SNAKE	1333	n/a	1	0	0.5869140625	0.422607421875	lower	../fonts/amplitud.ttf
2884.28	n/a	WORD	1442140	wordpools/wasnorm_wordpool_less_exclusions.txt	LTP241	ltpFR	1	15	1	SERPENT	1270	n/a	1	1	0.412841796875	0.57763671875	upper	../fonts/zerothre.ttf
2888.166	n/a	WORD	1444083	wordpools/wasnorm_wordpool_less_exclusions.txt	LTP241	ltpFR	1	15	1	KIDNEY	776	n/a	0	1	0.412841796875	0.57763671875	upper	../fonts/zerothre.ttf
2892.032	n/a	WORD	1446016	wordpools/wasnorm_wordpool_less_exclusions.txt	LTP241	ltpFR	1	15	1	BARREL	91	n/a	0	1	0.412841796875	0.57763671875	upper	../fonts/zerothre.ttf
2895.864	n/a	WORD	1447932	wordpools/wasnorm_wordpool_less_exclusions.txt	LTP241	ltpFR	1	15	0	FLASK	576	n/a	0	0	0.5869140625	0.422607421875	lower	../fonts/amplitud.ttf
2899.762	n/a	WORD	1449881	wordpools/wasnorm_wordpool_less_exclusions.txt	LTP241	ltpFR	1	15	0	SWAN	1417	n/a	0	0	0.5869140625	0.422607421875	lower	../fonts/amplitud.ttf
2903.894	n/a	WORD	1451947	wordpools/wasnorm_wordpool_less_exclusions.txt	LTP241	ltpFR	1	15	0	WASHCLOTH	1591	n/a	0	0	0.5869140625	0.422607421875	lower	../fonts/amplitud.ttf
2907.876	n/a	WORD	1453938	wordpools/wasnorm_wordpool_less_exclusions.txt	LTP241	ltpFR	1	15	0	DRAGON	492	n/a	1	0	0.5869140625	0.422607421875	lower	../fonts/amplitud.ttf
2911.758	n/a	WORD	1455879	wordpools/wasnorm_wordpool_less_exclusions.txt	LTP241	ltpFR	1	15	0	ARTICLE	42	n/a	0	0	0.5869140625	0.422607421875	lower	../fonts/amplitud.ttf
2915.74	n/a	WORD	1457870	wordpools/wasnorm_wordpool_less_exclusions.txt	LTP241	ltpFR	1	15	1	CONVENT	370	n/a	0	1	0.412841796875	0.57763671875	upper	../fonts/zerothre.ttf
2919.57	n/a	WORD	1459785	wordpools/wasnorm_wordpool_less_exclusions.txt	LTP241	ltpFR	1	15	1	NUN	962	n/a	1	1	0.412841796875	0.57763671875	upper	../fonts/zerothre.ttf
2925.46	n/a	REC_START	1462730	n/a	LTP241	ltpFR	1	15	n/a	n/a	n/a	n/a	n/a	n/a	n/a	n/a	n/a	n/a
2926.192	n/a	REC_WORD	1463096	wordpools/wasnorm_wordpool_less_exclusions.txt	LTP241	ltpFR	1	15	1	CONVENT	370	n/a	0	n/a	n/a	n/a	n/a	n/a
2927.26	n/a	REC_WORD	1463630	wordpools/wasnorm_wordpool_less_exclusions.txt	LTP241	ltpFR	1	15	1	NUN	962	n/a	1	n/a	n/a	n/a	n/a	n/a
2928.692	n/a	REC_WORD	1464346	wordpools/wasnorm_wordpool_less_exclusions.txt	LTP241	ltpFR	1	15	1	BARREL	91	n/a	0	n/a	n/a	n/a	n/a	n/a
2929.674	n/a	REC_WORD	1464837	wordpools/wasnorm_wordpool_less_exclusions.txt	LTP241	ltpFR	1	15	1	KIDNEY	776	n/a	0	n/a	n/a	n/a	n/a	n/a
2930.636	n/a	REC_WORD	1465318	wordpools/wasnorm_wordpool_less_exclusions.txt	LTP241	ltpFR	1	15	0	FLASK	576	n/a	0	n/a	n/a	n/a	n/a	n/a
2931.926	n/a	REC_WORD	1465963	wordpools/wasnorm_wordpool_less_exclusions.txt	LTP241	ltpFR	1	15	0	WASHCLOTH	1591	n/a	0	n/a	n/a	n/a	n/a	n/a
2933.95	n/a	REC_WORD	1466975	wordpools/wasnorm_wordpool_less_exclusions.txt	LTP241	ltpFR	1	15	1	HOE	711	n/a	1	n/a	n/a	n/a	n/a	n/a
2935.582	n/a	REC_WORD	1467791	wordpools/wasnorm_wordpool_less_exclusions.txt	LTP241	ltpFR	1	15	0	SNAKE	1333	n/a	1	n/a	n/a	n/a	n/a	n/a
2936.71	n/a	REC_WORD	1468355	wordpools/wasnorm_wordpool_less_exclusions.txt	LTP241	ltpFR	1	15	1	SERPENT	1270	n/a	1	n/a	n/a	n/a	n/a	n/a
2937.946	n/a	REC_WORD	1468973	wordpools/wasnorm_wordpool_less_exclusions.txt	LTP241	ltpFR	1	15	0	WEED	1599	n/a	0	n/a	n/a	n/a	n/a	n/a
2947.39	n/a	REC_WORD	1473695	wordpools/wasnorm_wordpool_less_exclusions.txt	LTP241	ltpFR	1	15	0	QUAIL	1147	n/a	0	n/a	n/a	n/a	n/a	n/a
2954.88	n/a	REC_WORD	1477440	wordpools/wasnorm_wordpool_less_exclusions.txt	LTP241	ltpFR	1	15	0	DRAGON	492	n/a	1	n/a	n/a	n/a	n/a	n/a
2956.086	n/a	REC_WORD	1478043	wordpools/wasnorm_wordpool_less_exclusions.txt	LTP241	ltpFR	1	15	0	ARTICLE	42	n/a	0	n/a	n/a	n/a	n/a	n/a
3014.532	n/a	WORD	1507266	wordpools/wasnorm_wordpool_less_exclusions.txt	LTP241	ltpFR	1	16	1	EUROPE	541	n/a	0	1	0.412841796875	0.57763671875	upper	../fonts/zerothre.ttf
3018.448	n/a	WORD	1509224	wordpools/wasnorm_wordpool_less_exclusions.txt	LTP241	ltpFR	1	16	1	COOK	372	n/a	0	1	0.412841796875	0.57763671875	upper	../fonts/zerothre.ttf
3022.646	n/a	WORD	1511323	wordpools/wasnorm_wordpool_less_exclusions.txt	LTP241	ltpFR	1	16	1	GRILL	661	n/a	0	1	0.412841796875	0.57763671875	upper	../fonts/zerothre.ttf
3026.748	n/a	WORD	1513374	wordpools/wasnorm_wordpool_less_exclusions.txt	LTP241	ltpFR	1	16	1	CHIMPANZEE	302	n/a	1	1	0.412841796875	0.57763671875	upper	../fonts/zerothre.ttf
3030.594	n/a	WORD	1515297	wordpools/wasnorm_wordpool_less_exclusions.txt	LTP241	ltpFR	1	16	1	EGG	518	n/a	0	1	0.412841796875	0.57763671875	upper	../fonts/zerothre.ttf
3034.626	n/a	WORD	1517313	wordpools/wasnorm_wordpool_less_exclusions.txt	LTP241	ltpFR	1	16	1	ERASER	538	n/a	0	1	0.412841796875	0.57763671875	upper	../fonts/zerothre.ttf
3038.536	n/a	WORD	1519268	wordpools/wasnorm_wordpool_less_exclusions.txt	LTP241	ltpFR	1	16	1	JUNGLE	764	n/a	1	1	0.412841796875	0.57763671875	upper	../fonts/zerothre.ttf
3042.69	n/a	WORD	1521345	wordpools/wasnorm_wordpool_less_exclusions.txt	LTP241	ltpFR	1	16	1	GREASE	660	n/a	0	1	0.412841796875	0.57763671875	upper	../fonts/zerothre.ttf
3046.638	n/a	WORD	1523319	wordpools/wasnorm_wordpool_less_exclusions.txt	LTP241	ltpFR	1	16	1	RATTLE	1170	n/a	0	1	0.412841796875	0.57763671875	upper	../fonts/zerothre.ttf
3050.466	n/a	WORD	1525233	wordpools/wasnorm_wordpool_less_exclusions.txt	LTP241	ltpFR	1	16	1	LIZARD	834	n/a	1	1	0.412841796875	0.57763671875	upper	../fonts/zerothre.ttf
3054.452	n/a	WORD	1527226	wordpools/wasnorm_wordpool_less_exclusions.txt	LTP241	ltpFR	1	16	1	GALAXY	617	n/a	1	1	0.412841796875	0.57763671875	upper	../fonts/zerothre.ttf
3058.282	n/a	WORD	1529141	wordpools/wasnorm_wordpool_less_exclusions.txt	LTP241	ltpFR	1	16	1	BANQUET	86	n/a	0	1	0.412841796875	0.57763671875	upper	../fonts/zerothre.ttf
3062.248	n/a	WORD	1531124	wordpools/wasnorm_wordpool_less_exclusions.txt	LTP241	ltpFR	1	16	1	FARMER	553	n/a	1	1	0.412841796875	0.57763671875	upper	../fonts/zerothre.ttf
3066.142	n/a	WORD	1533071	wordpools/wasnorm_wordpool_less_exclusions.txt	LTP241	ltpFR	1	16	1	LONDON	843	n/a	0	1	0.412841796875	0.57763671875	upper	../fonts/zerothre.ttf
3070.192	n/a	WORD	1535096	wordpools/wasnorm_wordpool_less_exclusions.txt	LTP241	ltpFR	1	16	1	TOWER	1490	n/a	0	1	0.412841796875	0.57763671875	upper	../fonts/zerothre.ttf
3074.04	n/a	WORD	1537020	wordpools/wasnorm_wordpool_less_exclusions.txt	LTP241	ltpFR	1	16	1	BUILDER	190	n/a	1	1	0.412841796875	0.57763671875	upper	../fonts/zerothre.ttf
3079.9	n/a	REC_START	1539950	n/a	LTP241	ltpFR	1	16	n/a	n/a	n/a	n/a	n/a	n/a	n/a	n/a	n/a	n/a
3082.086	n/a	REC_WORD	1541043	wordpools/wasnorm_wordpool_less_exclusions.txt	LTP241	ltpFR	1	16	1	FARMER	553	n/a	1	n/a	n/a	n/a	n/a	n/a
3083.802	n/a	REC_WORD	1541901	wordpools/wasnorm_wordpool_less_exclusions.txt	LTP241	ltpFR	1	16	1	LONDON	843	n/a	0	n/a	n/a	n/a	n/a	n/a
3085.004	n/a	REC_WORD	1542502	wordpools/wasnorm_wordpool_less_exclusions.txt	LTP241	ltpFR	1	16	n/a	TOWN	1491	n/a	n/a	n/a	n/a	n/a	n/a	n/a
3086.312	n/a	REC_WORD	1543156	wordpools/wasnorm_wordpool_less_exclusions.txt	LTP241	ltpFR	1	16	n/a	BUILDING	191	n/a	n/a	n/a	n/a	n/a	n/a	n/a
3103.418	n/a	REC_WORD	1551709	wordpools/wasnorm_wordpool_less_exclusions.txt	LTP241	ltpFR	1	16	1	COOK	372	n/a	0	n/a	n/a	n/a	n/a	n/a
3104.622	n/a	REC_WORD	1552311	wordpools/wasnorm_wordpool_less_exclusions.txt	LTP241	ltpFR	1	16	1	GREASE	660	n/a	0	n/a	n/a	n/a	n/a	n/a
3105.834	n/a	REC_WORD	1552917	wordpools/wasnorm_wordpool_less_exclusions.txt	LTP241	ltpFR	1	16	1	CHIMPANZEE	302	n/a	1	n/a	n/a	n/a	n/a	n/a
3109.36	n/a	REC_WORD	1554680	wordpools/wasnorm_wordpool_less_exclusions.txt	LTP241	ltpFR	1	16	1	JUNGLE	764	n/a	1	n/a	n/a	n/a	n/a	n/a
3113.066	n/a	REC_WORD	1556533	wordpools/wasnorm_wordpool_less_exclusions.txt	LTP241	ltpFR	1	16	1	RATTLE	1170	n/a	0	n/a	n/a	n/a	n/a	n/a
3117.188	n/a	REC_WORD	1558594	wordpools/wasnorm_wordpool_less_exclusions.txt	LTP241	ltpFR	1	16	1	GRILL	661	n/a	0	n/a	n/a	n/a	n/a	n/a
3120.436	n/a	REC_WORD	1560218	wordpools/wasnorm_wordpool_less_exclusions.txt	LTP241	ltpFR	1	16	1	EGG	518	n/a	0	n/a	n/a	n/a	n/a	n/a
3226.728	n/a	REC_START	1613364	n/a	LTP241	ltpFR	1	1	n/a	n/a	n/a	n/a	n/a	n/a	n/a	n/a	n/a	n/a
3226.778	n/a	RECOG_TARGET	1613389	n/a	LTP241	ltpFR	1	1	-1	ABDOMEN	1	5	-1	n/a	n/a	n/a	n/a	n/a
3229.468	n/a	RECOG_RESP	1614734	n/a	LTP241	ltpFR	1	1	-1	ABDOMEN	1	n/a	-1	n/a	n/a	n/a	n/a	n/a
3232.292	n/a	RECOG_CONF	1616146	n/a	LTP241	ltpFR	1	1	-1	ABDOMEN	1	5	-1	n/a	n/a	n/a	n/a	n/a
3235.176	n/a	RECOG_LURE	1617588	n/a	LTP241	ltpFR	1	1	n/a	BRUSH	182	3	n/a	n/a	n/a	n/a	n/a	n/a
3236.37	n/a	RECOG_RESP	1618185	n/a	LTP241	ltpFR	1	1	n/a	BRUSH	182	n/a	n/a	n/a	n/a	n/a	n/a	n/a
3238.046	n/a	RECOG_CONF	1619023	n/a	LTP241	ltpFR	1	1	n/a	BRUSH	182	3	n/a	n/a	n/a	n/a	n/a	n/a
3239.996	n/a	RECOG_TARGET	1619998	n/a	LTP241	ltpFR	1	1	-1	LOAF	835	5	-1	n/a	n/a	n/a	n/a	n/a
3241.114	n/a	RECOG_RESP	1620557	n/a	LTP241	ltpFR	1	1	-1	LOAF	835	n/a	-1	n/a	n/a	n/a	n/a	n/a
3242.13	n/a	RECOG_CONF	1621065	n/a	LTP241	ltpFR	1	1	-1	LOAF	835	5	-1	n/a	n/a	n/a	n/a	n/a
3243.876	n/a	RECOG_LURE	1621938	n/a	LTP241	ltpFR	1	1	n/a	TREAD	1499	2	n/a	n/a	n/a	n/a	n/a	n/a
3245.766	n/a	RECOG_RESP	1622883	n/a	LTP241	ltpFR	1	1	n/a	TREAD	1499	n/a	n/a	n/a	n/a	n/a	n/a	n/a
3246.85	n/a	RECOG_CONF	1623425	n/a	LTP241	ltpFR	1	1	n/a	TREAD	1499	2	n/a	n/a	n/a	n/a	n/a	n/a
3248.694	n/a	RECOG_TARGET	1624347	n/a	LTP241	ltpFR	1	1	0	SNACK	1331	5	0	n/a	n/a	n/a	n/a	n/a
3249.568	n/a	RECOG_RESP	1624784	n/a	LTP241	ltpFR	1	1	0	SNACK	1331	n/a	0	n/a	n/a	n/a	n/a	n/a
3250.522	n/a	RECOG_CONF	1625261	n/a	LTP241	ltpFR	1	1	0	SNACK	1331	5	0	n/a	n/a	n/a	n/a	n/a
3252.308	n/a	RECOG_LURE	1626154	n/a	LTP241	ltpFR	1	1	n/a	BRANCH	168	2	n/a	n/a	n/a	n/a	n/a	n/a
3253.208	n/a	RECOG_RESP	1626604	n/a	LTP241	ltpFR	1	1	n/a	BRANCH	168	n/a	n/a	n/a	n/a	n/a	n/a	n/a
3254.578	n/a	RECOG_CONF	1627289	n/a	LTP241	ltpFR	1	1	n/a	BRANCH	168	2	n/a	n/a	n/a	n/a	n/a	n/a
3256.324	n/a	RECOG_LURE	1628162	n/a	LTP241	ltpFR	1	1	n/a	RODENT	1204	1	n/a	n/a	n/a	n/a	n/a	n/a
3257.508	n/a	RECOG_RESP	1628754	n/a	LTP241	ltpFR	1	1	n/a	RODENT	1204	n/a	n/a	n/a	n/a	n/a	n/a	n/a
3259.38	n/a	RECOG_CONF	1629690	n/a	LTP241	ltpFR	1	1	n/a	RODENT	1204	1	n/a	n/a	n/a	n/a	n/a	n/a
3261.026	n/a	RECOG_LURE	1630513	n/a	LTP241	ltpFR	1	1	n/a	SIBLING	1301	3	n/a	n/a	n/a	n/a	n/a	n/a
3262.306	n/a	RECOG_RESP	1631153	n/a	LTP241	ltpFR	1	1	n/a	SIBLING	1301	n/a	n/a	n/a	n/a	n/a	n/a	n/a
3263.974	n/a	RECOG_CONF	1631987	n/a	LTP241	ltpFR	1	1	n/a	SIBLING	1301	3	n/a	n/a	n/a	n/a	n/a	n/a
3265.742	n/a	RECOG_TARGET	1632871	n/a	LTP241	ltpFR	1	1	0	PHOTO	1055	5	0	n/a	n/a	n/a	n/a	n/a
3266.756	n/a	RECOG_RESP	1633378	n/a	LTP241	ltpFR	1	1	0	PHOTO	1055	n/a	0	n/a	n/a	n/a	n/a	n/a
3268.13	n/a	RECOG_CONF	1634065	n/a	LTP241	ltpFR	1	1	0	PHOTO	1055	5	0	n/a	n/a	n/a	n/a	n/a
3269.908	n/a	RECOG_LURE	1634954	n/a	LTP241	ltpFR	1	1	n/a	WASP	1593	4	n/a	n/a	n/a	n/a	n/a	n/a
3270.924	n/a	RECOG_RESP	1635462	n/a	LTP241	ltpFR	1	1	n/a	WASP	1593	n/a	n/a	n/a	n/a	n/a	n/a	n/a
3272.02	n/a	RECOG_CONF	1636010	n/a	LTP241	ltpFR	1	1	n/a	WASP	1593	4	n/a	n/a	n/a	n/a	n/a	n/a
3273.988	n/a	RECOG_LURE	1636994	n/a	LTP241	ltpFR	1	1	n/a	CINNAMON	310	4	n/a	n/a	n/a	n/a	n/a	n/a
3275.236	n/a	RECOG_RESP	1637618	n/a	LTP241	ltpFR	1	1	n/a	CINNAMON	310	n/a	n/a	n/a	n/a	n/a	n/a	n/a
3276.358	n/a	RECOG_CONF	1638179	n/a	LTP241	ltpFR	1	1	n/a	CINNAMON	310	4	n/a	n/a	n/a	n/a	n/a	n/a
3278.29	n/a	RECOG_TARGET	1639145	n/a	LTP241	ltpFR	1	1	-1	SKIN	1318	5	-1	n/a	n/a	n/a	n/a	n/a
3279.058	n/a	RECOG_RESP	1639529	n/a	LTP241	ltpFR	1	1	-1	SKIN	1318	n/a	-1	n/a	n/a	n/a	n/a	n/a
3280.028	n/a	RECOG_CONF	1640014	n/a	LTP241	ltpFR	1	1	-1	SKIN	1318	5	-1	n/a	n/a	n/a	n/a	n/a
3281.956	n/a	RECOG_LURE	1640978	n/a	LTP241	ltpFR	1	1	n/a	BOOT	150	3	n/a	n/a	n/a	n/a	n/a	n/a
3282.784	n/a	RECOG_RESP	1641392	n/a	LTP241	ltpFR	1	1	n/a	BOOT	150	n/a	n/a	n/a	n/a	n/a	n/a	n/a
3283.946	n/a	RECOG_CONF	1641973	n/a	LTP241	ltpFR	1	1	n/a	BOOT	150	3	n/a	n/a	n/a	n/a	n/a	n/a
3285.786	n/a	RECOG_LURE	1642893	n/a	LTP241	ltpFR	1	1	n/a	CAMEL	223	2	n/a	n/a	n/a	n/a	n/a	n/a
3287.41	n/a	RECOG_RESP	1643705	n/a	LTP241	ltpFR	1	1	n/a	CAMEL	223	n/a	n/a	n/a	n/a	n/a	n/a	n/a
3289.96	n/a	RECOG_CONF	1644980	n/a	LTP241	ltpFR	1	1	n/a	CAMEL	223	2	n/a	n/a	n/a	n/a	n/a	n/a
3291.608	n/a	RECOG_TARGET	1645804	n/a	LTP241	ltpFR	1	1	1	IDOL	733	4	1	n/a	n/a	n/a	n/a	n/a
3293.024	n/a	RECOG_RESP	1646512	n/a	LTP241	ltpFR	1	1	1	IDOL	733	n/a	1	n/a	n/a	n/a	n/a	n/a
3294.212	n/a	RECOG_CONF	1647106	n/a	LTP241	ltpFR	1	1	1	IDOL	733	4	1	n/a	n/a	n/a	n/a	n/a
3295.906	n/a	RECOG_TARGET	1647953	n/a	LTP241	ltpFR	1	1	1	TIDE	1465	4	0	n/a	n/a	n/a	n/a	n/a
3296.938	n/a	RECOG_RESP	1648469	n/a	LTP241	ltpFR	1	1	1	TIDE	1465	n/a	0	n/a	n/a	n/a	n/a	n/a
3298.146	n/a	RECOG_CONF	1649073	n/a	LTP241	ltpFR	1	1	1	TIDE	1465	4	0	n/a	n/a	n/a	n/a	n/a
3299.974	n/a	RECOG_TARGET	1649987	n/a	LTP241	ltpFR	1	1	0	LIBRARY	816	5	1	n/a	n/a	n/a	n/a	n/a
3300.9	n/a	RECOG_RESP	1650450	n/a	LTP241	ltpFR	1	1	0	LIBRARY	816	n/a	1	n/a	n/a	n/a	n/a	n/a
3302.138	n/a	RECOG_CONF	1651069	n/a	LTP241	ltpFR	1	1	0	LIBRARY	816	5	1	n/a	n/a	n/a	n/a	n/a
3303.936	n/a	RECOG_TARGET	1651968	n/a	LTP241	ltpFR	1	1	-1	CACTUS	215	5	-1	n/a	n/a	n/a	n/a	n/a
3304.766	n/a	RECOG_RESP	1652383	n/a	LTP241	ltpFR	1	1	-1	CACTUS	215	n/a	-1	n/a	n/a	n/a	n/a	n/a
3306.106	n/a	RECOG_CONF	1653053	n/a	LTP241	ltpFR	1	1	-1	CACTUS	215	5	-1	n/a	n/a	n/a	n/a	n/a
3307.682	n/a	RECOG_LURE	1653841	n/a	LTP241	ltpFR	1	1	n/a	PEPPER	1047	4	n/a	n/a	n/a	n/a	n/a	n/a
3308.624	n/a	RECOG_RESP	1654312	n/a	LTP241	ltpFR	1	1	n/a	PEPPER	1047	n/a	n/a	n/a	n/a	n/a	n/a	n/a
3310.228	n/a	RECOG_CONF	1655114	n/a	LTP241	ltpFR	1	1	n/a	PEPPER	1047	4	n/a	n/a	n/a	n/a	n/a	n/a
3312.0	n/a	RECOG_TARGET	1656000	n/a	LTP241	ltpFR	1	1	1	EGG	518	5	0	n/a	n/a	n/a	n/a	n/a
3312.696	n/a	RECOG_RESP	1656348	n/a	LTP241	ltpFR	1	1	1	EGG	518	n/a	0	n/a	n/a	n/a	n/a	n/a
3313.736	n/a	RECOG_CONF	1656868	n/a	LTP241	ltpFR	1	1	1	EGG	518	5	0	n/a	n/a	n/a	n/a	n/a
3320.506	n/a	REC_START	1660253	n/a	LTP241	ltpFR	1	2	n/a	n/a	n/a	n/a	n/a	n/a	n/a	n/a	n/a	n/a
3320.552	n/a	RECOG_LURE	1660276	n/a	LTP241	ltpFR	1	2	n/a	COAL	332	2	n/a	n/a	n/a	n/a	n/a	n/a
3321.972	n/a	RECOG_RESP	1660986	n/a	LTP241	ltpFR	1	2	n/a	COAL	332	n/a	n/a	n/a	n/a	n/a	n/a	n/a
3323.576	n/a	RECOG_CONF	1661788	n/a	LTP241	ltpFR	1	2	n/a	COAL	332	2	n/a	n/a	n/a	n/a	n/a	n/a
3325.236	n/a	RECOG_LURE	1662618	n/a	LTP241	ltpFR	1	2	n/a	PADDING	999	4	n/a	n/a	n/a	n/a	n/a	n/a
3326.468	n/a	RECOG_RESP	1663234	n/a	LTP241	ltpFR	1	2	n/a	PADDING	999	n/a	n/a	n/a	n/a	n/a	n/a	n/a
3327.512	n/a	RECOG_CONF	1663756	n/a	LTP241	ltpFR	1	2	n/a	PADDING	999	4	n/a	n/a	n/a	n/a	n/a	n/a
3329.47	n/a	RECOG_TARGET	1664735	n/a	LTP241	ltpFR	1	2	0	CHICK	296	1	0	n/a	n/a	n/a	n/a	n/a
3331.762	n/a	RECOG_RESP	1665881	n/a	LTP241	ltpFR	1	2	0	CHICK	296	n/a	0	n/a	n/a	n/a	n/a	n/a
3332.898	n/a	RECOG_CONF	1666449	n/a	LTP241	ltpFR	1	2	0	CHICK	296	1	0	n/a	n/a	n/a	n/a	n/a
3334.652	n/a	RECOG_LURE	1667326	n/a	LTP241	ltpFR	1	2	n/a	COMPASS	358	4	n/a	n/a	n/a	n/a	n/a	n/a
3335.584	n/a	RECOG_RESP	1667792	n/a	LTP241	ltpFR	1	2	n/a	COMPASS	358	n/a	n/a	n/a	n/a	n/a	n/a	n/a
3336.608	n/a	RECOG_CONF	1668304	n/a	LTP241	ltpFR	1	2	n/a	COMPASS	358	4	n/a	n/a	n/a	n/a	n/a	n/a
3338.486	n/a	RECOG_LURE	1669243	n/a	LTP241	ltpFR	1	2	n/a	TELESCOPE	1446	4	n/a	n/a	n/a	n/a	n/a	n/a
3339.326	n/a	RECOG_RESP	1669663	n/a	LTP241	ltpFR	1	2	n/a	TELESCOPE	1446	n/a	n/a	n/a	n/a	n/a	n/a	n/a
3340.288	n/a	RECOG_CONF	1670144	n/a	LTP241	ltpFR	1	2	n/a	TELESCOPE	1446	4	n/a	n/a	n/a	n/a	n/a	n/a
3342.002	n/a	RECOG_TARGET	1671001	n/a	LTP241	ltpFR	1	2	-1	SACK	1220	5	-1	n/a	n/a	n/a	n/a	n/a
3342.944	n/a	RECOG_RESP	1671472	n/a	LTP241	ltpFR	1	2	-1	SACK	1220	n/a	-1	n/a	n/a	n/a	n/a	n/a
3343.92	n/a	RECOG_CONF	1671960	n/a	LTP241	ltpFR	1	2	-1	SACK	1220	5	-1	n/a	n/a	n/a	n/a	n/a
3345.664	n/a	RECOG_LURE	1672832	n/a	LTP241	ltpFR	1	2	n/a	FLOWER	584	2	n/a	n/a	n/a	n/a	n/a	n/a
3346.702	n/a	RECOG_RESP	1673351	n/a	LTP241	ltpFR	1	2	n/a	FLOWER	584	n/a	n/a	n/a	n/a	n/a	n/a	n/a
3348.314	n/a	RECOG_CONF	1674157	n/a	LTP241	ltpFR	1	2	n/a	FLOWER	584	2	n/a	n/a	n/a	n/a	n/a	n/a
3349.966	n/a	RECOG_TARGET	1674983	n/a	LTP241	ltpFR	1	2	1	DONKEY	484	1	1	n/a	n/a	n/a	n/a	n/a
3351.304	n/a	RECOG_RESP	1675652	n/a	LTP241	ltpFR	1	2	1	DONKEY	484	n/a	1	n/a	n/a	n/a	n/a	n/a
3353.352	n/a	RECOG_CONF	1676676	n/a	LTP241	ltpFR	1	2	1	DONKEY	484	1	1	n/a	n/a	n/a	n/a	n/a
3354.968	n/a	RECOG_LURE	1677484	n/a	LTP241	ltpFR	1	2	n/a	CRYSTAL	418	5	n/a	n/a	n/a	n/a	n/a	n/a
3356.274	n/a	RECOG_RESP	1678137	n/a	LTP241	ltpFR	1	2	n/a	CRYSTAL	418	n/a	n/a	n/a	n/a	n/a	n/a	n/a
3357.472	n/a	RECOG_CONF	1678736	n/a	LTP241	ltpFR	1	2	n/a	CRYSTAL	418	5	n/a	n/a	n/a	n/a	n/a	n/a
3359.346	n/a	RECOG_LURE	1679673	n/a	LTP241	ltpFR	1	2	n/a	BATHTUB	100	3	n/a	n/a	n/a	n/a	n/a	n/a
3360.554	n/a	RECOG_RESP	1680277	n/a	LTP241	ltpFR	1	2	n/a	BATHTUB	100	n/a	n/a	n/a	n/a	n/a	n/a	n/a
3361.868	n/a	RECOG_CONF	1680934	n/a	LTP241	ltpFR	1	2	n/a	BATHTUB	100	3	n/a	n/a	n/a	n/a	n/a	n/a
3363.55	n/a	RECOG_TARGET	1681775	n/a	LTP241	ltpFR	1	2	1	GENERAL	630	2	1	n/a	n/a	n/a	n/a	n/a
3364.91	n/a	RECOG_RESP	1682455	n/a	LTP241	ltpFR	1	2	1	GENERAL	630	n/a	1	n/a	n/a	n/a	n/a	n/a
3366.23	n/a	RECOG_CONF	1683115	n/a	LTP241	ltpFR	1	2	1	GENERAL	630	2	1	n/a	n/a	n/a	n/a	n/a
3368.1	n/a	RECOG_LURE	1684050	n/a	LTP241	ltpFR	1	2	n/a	JEANS	752	2	n/a	n/a	n/a	n/a	n/a	n/a
3369.606	n/a	RECOG_RESP	1684803	n/a	LTP241	ltpFR	1	2	n/a	JEANS	752	n/a	n/a	n/a	n/a	n/a	n/a	n/a
3371.222	n/a	RECOG_CONF	1685611	n/a	LTP241	ltpFR	1	2	n/a	JEANS	752	2	n/a	n/a	n/a	n/a	n/a	n/a
3372.87	n/a	RECOG_LURE	1686435	n/a	LTP241	ltpFR	1	2	n/a	ATTORNEY	58	2	n/a	n/a	n/a	n/a	n/a	n/a
3374.57	n/a	RECOG_RESP	1687285	n/a	LTP241	ltpFR	1	2	n/a	ATTORNEY	58	n/a	n/a	n/a	n/a	n/a	n/a	n/a
3376.438	n/a	RECOG_CONF	1688219	n/a	LTP241	ltpFR	1	2	n/a	ATTORNEY	58	2	n/a	n/a	n/a	n/a	n/a	n/a
3378.356	n/a	RECOG_TARGET	1689178	n/a	LTP241	ltpFR	1	2	-1	GAVEL	627	5	-1	n/a	n/a	n/a	n/a	n/a
3379.386	n/a	RECOG_RESP	1689693	n/a	LTP241	ltpFR	1	2	-1	GAVEL	627	n/a	-1	n/a	n/a	n/a	n/a	n/a
3380.256	n/a	RECOG_CONF	1690128	n/a	LTP241	ltpFR	1	2	-1	GAVEL	627	5	-1	n/a	n/a	n/a	n/a	n/a
3382.086	n/a	RECOG_TARGET	1691043	n/a	LTP241	ltpFR	1	2	1	KIDNEY	776	5	0	n/a	n/a	n/a	n/a	n/a
3382.94	n/a	RECOG_RESP	1691470	n/a	LTP241	ltpFR	1	2	1	KIDNEY	776	n/a	0	n/a	n/a	n/a	n/a	n/a
3383.9	n/a	RECOG_CONF	1691950	n/a	LTP241	ltpFR	1	2	1	KIDNEY	776	5	0	n/a	n/a	n/a	n/a	n/a
3385.802	n/a	RECOG_TARGET	1692901	n/a	LTP241	ltpFR	1	2	-1	TECHNICIAN	1443	5	-1	n/a	n/a	n/a	n/a	n/a
3386.52	n/a	RECOG_RESP	1693260	n/a	LTP241	ltpFR	1	2	-1	TECHNICIAN	1443	n/a	-1	n/a	n/a	n/a	n/a	n/a
3387.348	n/a	RECOG_CONF	1693674	n/a	LTP241	ltpFR	1	2	-1	TECHNICIAN	1443	5	-1	n/a	n/a	n/a	n/a	n/a
3389.16	n/a	RECOG_LURE	1694580	n/a	LTP241	ltpFR	1	2	n/a	BED	110	2	n/a	n/a	n/a	n/a	n/a	n/a
3390.132	n/a	RECOG_RESP	1695066	n/a	LTP241	ltpFR	1	2	n/a	BED	110	n/a	n/a	n/a	n/a	n/a	n/a	n/a
3391.252	n/a	RECOG_CONF	1695626	n/a	LTP241	ltpFR	1	2	n/a	BED	110	2	n/a	n/a	n/a	n/a	n/a	n/a
3392.88	n/a	RECOG_TARGET	1696440	n/a	LTP241	ltpFR	1	2	0	SNAKE	1333	5	1	n/a	n/a	n/a	n/a	n/a
3393.548	n/a	RECOG_RESP	1696774	n/a	LTP241	ltpFR	1	2	0	SNAKE	1333	n/a	1	n/a	n/a	n/a	n/a	n/a
3394.418	n/a	RECOG_CONF	1697209	n/a	LTP241	ltpFR	1	2	0	SNAKE	1333	5	1	n/a	n/a	n/a	n/a	n/a
3396.042	n/a	RECOG_TARGET	1698021	n/a	LTP241	ltpFR	1	2	0	SWAN	1417	4	0	n/a	n/a	n/a	n/a	n/a
3397.122	n/a	RECOG_RESP	1698561	n/a	LTP241	ltpFR	1	2	0	SWAN	1417	n/a	0	n/a	n/a	n/a	n/a	n/a
3398.046	n/a	RECOG_CONF	1699023	n/a	LTP241	ltpFR	1	2	0	SWAN	1417	4	0	n/a	n/a	n/a	n/a	n/a
3399.688	n/a	RECOG_LURE	1699844	n/a	LTP241	ltpFR	1	2	n/a	CLAMP	316	1	n/a	n/a	n/a	n/a	n/a	n/a
3401.684	n/a	RECOG_RESP	1700842	n/a	LTP241	ltpFR	1	2	n/a	CLAMP	316	n/a	n/a	n/a	n/a	n/a	n/a	n/a
3402.788	n/a	RECOG_CONF	1701394	n/a	LTP241	ltpFR	1	2	n/a	CLAMP	316	1	n/a	n/a	n/a	n/a	n/a	n/a
3410.074	n/a	REC_START	1705037	n/a	LTP241	ltpFR	1	3	n/a	n/a	n/a	n/a	n/a	n/a	n/a	n/a	n/a	n/a
3410.128	n/a	RECOG_TARGET	1705064	n/a	LTP241	ltpFR	1	3	1	STOOL	1386	1	0	n/a	n/a	n/a	n/a	n/a
3411.468	n/a	RECOG_RESP	1705734	n/a	LTP241	ltpFR	1	3	1	STOOL	1386	n/a	0	n/a	n/a	n/a	n/a	n/a
3412.808	n/a	RECOG_CONF	1706404	n/a	LTP241	ltpFR	1	3	1	STOOL	1386	1	0	n/a	n/a	n/a	n/a	n/a
3414.59	n/a	RECOG_TARGET	1707295	n/a	LTP241	ltpFR	1	3	0	FRAME	600	5	1	n/a	n/a	n/a	n/a	n/a
3415.44	n/a	RECOG_RESP	1707720	n/a	LTP241	ltpFR	1	3	0	FRAME	600	n/a	1	n/a	n/a	n/a	n/a	n/a
3416.322	n/a	RECOG_CONF	1708161	n/a	LTP241	ltpFR	1	3	0	FRAME	600	5	1	n/a	n/a	n/a	n/a	n/a
3418.09	n/a	RECOG_LURE	1709045	n/a	LTP241	ltpFR	1	3	n/a	PUB	1135	4	n/a	n/a	n/a	n/a	n/a	n/a
3419.452	n/a	RECOG_RESP	1709726	n/a	LTP241	ltpFR	1	3	n/a	PUB	1135	n/a	n/a	n/a	n/a	n/a	n/a	n/a
3420.324	n/a	RECOG_CONF	1710162	n/a	LTP241	ltpFR	1	3	n/a	PUB	1135	4	n/a	n/a	n/a	n/a	n/a	n/a
3422.074	n/a	RECOG_LURE	1711037	n/a	LTP241	ltpFR	1	3	n/a	BIKE	125	4	n/a	n/a	n/a	n/a	n/a	n/a
3423.002	n/a	RECOG_RESP	1711501	n/a	LTP241	ltpFR	1	3	n/a	BIKE	125	n/a	n/a	n/a	n/a	n/a	n/a	n/a
3424.068	n/a	RECOG_CONF	1712034	n/a	LTP241	ltpFR	1	3	n/a	BIKE	125	4	n/a	n/a	n/a	n/a	n/a	n/a
3425.822	n/a	RECOG_LURE	1712911	n/a	LTP241	ltpFR	1	3	n/a	PARSLEY	1016	5	n/a	n/a	n/a	n/a	n/a	n/a
3426.698	n/a	RECOG_RESP	1713349	n/a	LTP241	ltpFR	1	3	n/a	PARSLEY	1016	n/a	n/a	n/a	n/a	n/a	n/a	n/a
3427.78	n/a	RECOG_CONF	1713890	n/a	LTP241	ltpFR	1	3	n/a	PARSLEY	1016	5	n/a	n/a	n/a	n/a	n/a	n/a
3429.548	n/a	RECOG_LURE	1714774	n/a	LTP241	ltpFR	1	3	n/a	AUNT	60	5	n/a	n/a	n/a	n/a	n/a	n/a
3430.436	n/a	RECOG_RESP	1715218	n/a	LTP241	ltpFR	1	3	n/a	AUNT	60	n/a	n/a	n/a	n/a	n/a	n/a	n/a
3431.83	n/a	RECOG_CONF	1715915	n/a	LTP241	ltpFR	1	3	n/a	AUNT	60	5	n/a	n/a	n/a	n/a	n/a	n/a
3433.546	n/a	RECOG_LURE	1716773	n/a	LTP241	ltpFR	1	3	n/a	FILM	565	4	n/a	n/a	n/a	n/a	n/a	n/a
3434.588	n/a	RECOG_RESP	1717294	n/a	LTP241	ltpFR	1	3	n/a	FILM	565	n/a	n/a	n/a	n/a	n/a	n/a	n/a
3435.542	n/a	RECOG_CONF	1717771	n/a	LTP241	ltpFR	1	3	n/a	FILM	565	4	n/a	n/a	n/a	n/a	n/a	n/a
3437.414	n/a	RECOG_TARGET	1718707	n/a	LTP241	ltpFR	1	3	-1	FUGITIVE	612	5	-1	n/a	n/a	n/a	n/a	n/a
3438.276	n/a	RECOG_RESP	1719138	n/a	LTP241	ltpFR	1	3	-1	FUGITIVE	612	n/a	-1	n/a	n/a	n/a	n/a	n/a
3439.148	n/a	RECOG_CONF	1719574	n/a	LTP241	ltpFR	1	3	-1	FUGITIVE	612	5	-1	n/a	n/a	n/a	n/a	n/a
3440.912	n/a	RECOG_TARGET	1720456	n/a	LTP241	ltpFR	1	3	1	TOWER	1490	5	0	n/a	n/a	n/a	n/a	n/a
3442.044	n/a	RECOG_RESP	1721022	n/a	LTP241	ltpFR	1	3	1	TOWER	1490	n/a	0	n/a	n/a	n/a	n/a	n/a
3443.006	n/a	RECOG_CONF	1721503	n/a	LTP241	ltpFR	1	3	1	TOWER	1490	5	0	n/a	n/a	n/a	n/a	n/a
3444.676	n/a	RECOG_TARGET	1722338	n/a	LTP241	ltpFR	1	3	-1	GLUE	643	5	-1	n/a	n/a	n/a	n/a	n/a
3445.472	n/a	RECOG_RESP	1722736	n/a	LTP241	ltpFR	1	3	-1	GLUE	643	n/a	-1	n/a	n/a	n/a	n/a	n/a
3446.37	n/a	RECOG_CONF	1723185	n/a	LTP241	ltpFR	1	3	-1	GLUE	643	5	-1	n/a	n/a	n/a	n/a	n/a
3448.09	n/a	RECOG_LURE	1724045	n/a	LTP241	ltpFR	1	3	n/a	ELF	525	2	n/a	n/a	n/a	n/a	n/a	n/a
3449.774	n/a	RECOG_RESP	1724887	n/a	LTP241	ltpFR	1	3	n/a	ELF	525	n/a	n/a	n/a	n/a	n/a	n/a	n/a
3451.16	n/a	RECOG_CONF	1725580	n/a	LTP241	ltpFR	1	3	n/a	ELF	525	2	n/a	n/a	n/a	n/a	n/a	n/a
3452.976	n/a	RECOG_LURE	1726488	n/a	LTP241	ltpFR	1	3	n/a	VENUS	1557	2	n/a	n/a	n/a	n/a	n/a	n/a
3454.3	n/a	RECOG_RESP	1727150	n/a	LTP241	ltpFR	1	3	n/a	VENUS	1557	n/a	n/a	n/a	n/a	n/a	n/a	n/a
3455.572	n/a	RECOG_CONF	1727786	n/a	LTP241	ltpFR	1	3	n/a	VENUS	1557	2	n/a	n/a	n/a	n/a	n/a	n/a
3457.304	n/a	RECOG_LURE	1728652	n/a	LTP241	ltpFR	1	3	n/a	CHEMICAL	291	2	n/a	n/a	n/a	n/a	n/a	n/a
3458.63	n/a	RECOG_RESP	1729315	n/a	LTP241	ltpFR	1	3	n/a	CHEMICAL	291	n/a	n/a	n/a	n/a	n/a	n/a	n/a
3459.878	n/a	RECOG_CONF	1729939	n/a	LTP241	ltpFR	1	3	n/a	CHEMICAL	291	2	n/a	n/a	n/a	n/a	n/a	n/a
3461.658	n/a	RECOG_LURE	1730829	n/a	LTP241	ltpFR	1	3	n/a	GRADUATE	653	3	n/a	n/a	n/a	n/a	n/a	n/a
3463.196	n/a	RECOG_RESP	1731598	n/a	LTP241	ltpFR	1	3	n/a	GRADUATE	653	n/a	n/a	n/a	n/a	n/a	n/a	n/a
3464.124	n/a	RECOG_CONF	1732062	n/a	LTP241	ltpFR	1	3	n/a	GRADUATE	653	3	n/a	n/a	n/a	n/a	n/a	n/a
3466.042	n/a	RECOG_LURE	1733021	n/a	LTP241	ltpFR	1	3	n/a	OYSTER	995	3	n/a	n/a	n/a	n/a	n/a	n/a
3467.666	n/a	RECOG_RESP	1733833	n/a	LTP241	ltpFR	1	3	n/a	OYSTER	995	n/a	n/a	n/a	n/a	n/a	n/a	n/a
3468.852	n/a	RECOG_CONF	1734426	n/a	LTP241	ltpFR	1	3	n/a	OYSTER	995	3	n/a	n/a	n/a	n/a	n/a	n/a
3470.524	n/a	RECOG_TARGET	1735262	n/a	LTP241	ltpFR	1	3	-1	THIMBLE	1458	5	-1	n/a	n/a	n/a	n/a	n/a
3471.5	n/a	RECOG_RESP	1735750	n/a	LTP241	ltpFR	1	3	-1	THIMBLE	1458	n/a	-1	n/a	n/a	n/a	n/a	n/a
3472.37	n/a	RECOG_CONF	1736185	n/a	LTP241	ltpFR	1	3	-1	THIMBLE	1458	5	-1	n/a	n/a	n/a	n/a	n/a
3474.056	n/a	RECOG_TARGET	1737028	n/a	LTP241	ltpFR	1	3	0	PREACHER	1119	5	1	n/a	n/a	n/a	n/a	n/a
3476.376	n/a	RECOG_RESP_VV	1738188	n/a	LTP241	ltpFR	1	3	0	PREACHER	1119	n/a	1	n/a	n/a	n/a	n/a	n/a
3476.998	n/a	RECOG_RESP	1738499	n/a	LTP241	ltpFR	1	3	0	PREACHER	1119	n/a	1	n/a	n/a	n/a	n/a	n/a
3478.518	n/a	RECOG_CONF	1739259	n/a	LTP241	ltpFR	1	3	0	PREACHER	1119	5	1	n/a	n/a	n/a	n/a	n/a
3480.446	n/a	RECOG_TARGET	1740223	n/a	LTP241	ltpFR	1	3	0	PUMP	1141	5	1	n/a	n/a	n/a	n/a	n/a
3481.462	n/a	RECOG_RESP	1740731	n/a	LTP241	ltpFR	1	3	0	PUMP	1141	n/a	1	n/a	n/a	n/a	n/a	n/a
3482.332	n/a	RECOG_CONF	1741166	n/a	LTP241	ltpFR	1	3	0	PUMP	1141	5	1	n/a	n/a	n/a	n/a	n/a
3484.144	n/a	RECOG_LURE	1742072	n/a	LTP241	ltpFR	1	3	n/a	GANG	619	4	n/a	n/a	n/a	n/a	n/a	n/a
3485.874	n/a	RECOG_RESP	1742937	n/a	LTP241	ltpFR	1	3	n/a	GANG	619	n/a	n/a	n/a	n/a	n/a	n/a	n/a
3486.916	n/a	RECOG_CONF	1743458	n/a	LTP241	ltpFR	1	3	n/a	GANG	619	4	n/a	n/a	n/a	n/a	n/a	n/a
3488.762	n/a	RECOG_LURE	1744381	n/a	LTP241	ltpFR	1	3	n/a	BARLEY	88	4	n/a	n/a	n/a	n/a	n/a	n/a
3489.868	n/a	RECOG_RESP	1744934	n/a	LTP241	ltpFR	1	3	n/a	BARLEY	88	n/a	n/a	n/a	n/a	n/a	n/a	n/a
3491.148	n/a	RECOG_CONF	1745574	n/a	LTP241	ltpFR	1	3	n/a	BARLEY	88	4	n/a	n/a	n/a	n/a	n/a	n/a
3499.618	n/a	REC_START	1749809	n/a	LTP241	ltpFR	1	4	n/a	n/a	n/a	n/a	n/a	n/a	n/a	n/a	n/a	n/a
3499.67	n/a	RECOG_TARGET	1749835	n/a	LTP241	ltpFR	1	4	0	CUB	419	5	1	n/a	n/a	n/a	n/a	n/a
3500.698	n/a	RECOG_RESP	1750349	n/a	LTP241	ltpFR	1	4	0	CUB	419	n/a	1	n/a	n/a	n/a	n/a	n/a
3501.592	n/a	RECOG_CONF	1750796	n/a	LTP241	ltpFR	1	4	0	CUB	419	5	1	n/a	n/a	n/a	n/a	n/a
3503.314	n/a	RECOG_TARGET	1751657	n/a	LTP241	ltpFR	1	4	1	ATTIC	56	3	0	n/a	n/a	n/a	n/a	n/a
3504.25	n/a	RECOG_RESP	1752125	n/a	LTP241	ltpFR	1	4	1	ATTIC	56	n/a	0	n/a	n/a	n/a	n/a	n/a
3505.462	n/a	RECOG_CONF	1752731	n/a	LTP241	ltpFR	1	4	1	ATTIC	56	3	0	n/a	n/a	n/a	n/a	n/a
3507.094	n/a	RECOG_LURE	1753547	n/a	LTP241	ltpFR	1	4	n/a	APPLE	33	1	n/a	n/a	n/a	n/a	n/a	n/a
3508.922	n/a	RECOG_RESP	1754461	n/a	LTP241	ltpFR	1	4	n/a	APPLE	33	n/a	n/a	n/a	n/a	n/a	n/a	n/a
3510.272	n/a	RECOG_CONF	1755136	n/a	LTP241	ltpFR	1	4	n/a	APPLE	33	1	n/a	n/a	n/a	n/a	n/a	n/a
3511.984	n/a	RECOG_TARGET	1755992	n/a	LTP241	ltpFR	1	4	-1	HOME	712	3	-1	n/a	n/a	n/a	n/a	n/a
3512.87	n/a	RECOG_RESP	1756435	n/a	LTP241	ltpFR	1	4	-1	HOME	712	n/a	-1	n/a	n/a	n/a	n/a	n/a
3513.98	n/a	RECOG_CONF	1756990	n/a	LTP241	ltpFR	1	4	-1	HOME	712	3	-1	n/a	n/a	n/a	n/a	n/a
3515.832	n/a	RECOG_LURE	1757916	n/a	LTP241	ltpFR	1	4	n/a	DEPARTMENT	449	3	n/a	n/a	n/a	n/a	n/a	n/a
3516.918	n/a	RECOG_RESP	1758459	n/a	LTP241	ltpFR	1	4	n/a	DEPARTMENT	449	n/a	n/a	n/a	n/a	n/a	n/a	n/a
3518.022	n/a	RECOG_CONF	1759011	n/a	LTP241	ltpFR	1	4	n/a	DEPARTMENT	449	3	n/a	n/a	n/a	n/a	n/a	n/a
3519.794	n/a	RECOG_TARGET	1759897	n/a	LTP241	ltpFR	1	4	0	JUGGLER	763	5	1	n/a	n/a	n/a	n/a	n/a
3520.576	n/a	RECOG_RESP	1760288	n/a	LTP241	ltpFR	1	4	0	JUGGLER	763	n/a	1	n/a	n/a	n/a	n/a	n/a
3521.382	n/a	RECOG_CONF	1760691	n/a	LTP241	ltpFR	1	4	0	JUGGLER	763	5	1	n/a	n/a	n/a	n/a	n/a
3523.192	n/a	RECOG_LURE	1761596	n/a	LTP241	ltpFR	1	4	n/a	SHORTS	1293	3	n/a	n/a	n/a	n/a	n/a	n/a
3524.044	n/a	RECOG_RESP	1762022	n/a	LTP241	ltpFR	1	4	n/a	SHORTS	1293	n/a	n/a	n/a	n/a	n/a	n/a	n/a
3525.222	n/a	RECOG_CONF	1762611	n/a	LTP241	ltpFR	1	4	n/a	SHORTS	1293	3	n/a	n/a	n/a	n/a	n/a	n/a
3526.942	n/a	RECOG_TARGET	1763471	n/a	LTP241	ltpFR	1	4	1	BUFFALO	186	5	1	n/a	n/a	n/a	n/a	n/a
3527.74	n/a	RECOG_RESP	1763870	n/a	LTP241	ltpFR	1	4	1	BUFFALO	186	n/a	1	n/a	n/a	n/a	n/a	n/a
3528.68	n/a	RECOG_CONF	1764340	n/a	LTP241	ltpFR	1	4	1	BUFFALO	186	5	1	n/a	n/a	n/a	n/a	n/a
3530.27	n/a	RECOG_TARGET	1765135	n/a	LTP241	ltpFR	1	4	1	GOVERNOR	651	2	1	n/a	n/a	n/a	n/a	n/a
3532.024	n/a	RECOG_RESP	1766012	n/a	LTP241	ltpFR	1	4	1	GOVERNOR	651	n/a	1	n/a	n/a	n/a	n/a	n/a
3533.014	n/a	RECOG_CONF	1766507	n/a	LTP241	ltpFR	1	4	1	GOVERNOR	651	2	1	n/a	n/a	n/a	n/a	n/a
3534.65	n/a	RECOG_LURE	1767325	n/a	LTP241	ltpFR	1	4	n/a	TRANSPLANT	1496	4	n/a	n/a	n/a	n/a	n/a	n/a
3535.648	n/a	RECOG_RESP	1767824	n/a	LTP241	ltpFR	1	4	n/a	TRANSPLANT	1496	n/a	n/a	n/a	n/a	n/a	n/a	n/a
3536.79	n/a	RECOG_CONF	1768395	n/a	LTP241	ltpFR	1	4	n/a	TRANSPLANT	1496	4	n/a	n/a	n/a	n/a	n/a	n/a
3538.468	n/a	RECOG_TARGET	1769234	n/a	LTP241	ltpFR	1	4	0	BOOTH	151	4	1	n/a	n/a	n/a	n/a	n/a
3540.028	n/a	RECOG_RESP	1770014	n/a	LTP241	ltpFR	1	4	0	BOOTH	151	n/a	1	n/a	n/a	n/a	n/a	n/a
3540.882	n/a	RECOG_CONF	1770441	n/a	LTP241	ltpFR	1	4	0	BOOTH	151	4	1	n/a	n/a	n/a	n/a	n/a
3542.584	n/a	RECOG_TARGET	1771292	n/a	LTP241	ltpFR	1	4	0	BLOSSOM	138	5	0	n/a	n/a	n/a	n/a	n/a
3543.576	n/a	RECOG_RESP	1771788	n/a	LTP241	ltpFR	1	4	0	BLOSSOM	138	n/a	0	n/a	n/a	n/a	n/a	n/a
3544.416	n/a	RECOG_CONF	1772208	n/a	LTP241	ltpFR	1	4	0	BLOSSOM	138	5	0	n/a	n/a	n/a	n/a	n/a
3546.248	n/a	RECOG_TARGET	1773124	n/a	LTP241	ltpFR	1	4	0	MINK	897	5	0	n/a	n/a	n/a	n/a	n/a
3547.004	n/a	RECOG_RESP	1773502	n/a	LTP241	ltpFR	1	4	0	MINK	897	n/a	0	n/a	n/a	n/a	n/a	n/a
3547.774	n/a	RECOG_CONF	1773887	n/a	LTP241	ltpFR	1	4	0	MINK	897	5	0	n/a	n/a	n/a	n/a	n/a
3549.41	n/a	RECOG_TARGET	1774705	n/a	LTP241	ltpFR	1	4	-1	SHIP	1286	5	-1	n/a	n/a	n/a	n/a	n/a
3550.214	n/a	RECOG_RESP	1775107	n/a	LTP241	ltpFR	1	4	-1	SHIP	1286	n/a	-1	n/a	n/a	n/a	n/a	n/a
3551.18	n/a	RECOG_CONF	1775590	n/a	LTP241	ltpFR	1	4	-1	SHIP	1286	5	-1	n/a	n/a	n/a	n/a	n/a
3552.77	n/a	RECOG_LURE	1776385	n/a	LTP241	ltpFR	1	4	n/a	MOP	916	4	n/a	n/a	n/a	n/a	n/a	n/a
3553.938	n/a	RECOG_RESP	1776969	n/a	LTP241	ltpFR	1	4	n/a	MOP	916	n/a	n/a	n/a	n/a	n/a	n/a	n/a
3554.68	n/a	RECOG_CONF	1777340	n/a	LTP241	ltpFR	1	4	n/a	MOP	916	4	n/a	n/a	n/a	n/a	n/a	n/a
3556.5	n/a	RECOG_TARGET	1778250	n/a	LTP241	ltpFR	1	4	-1	BOYFRIEND	162	3	-1	n/a	n/a	n/a	n/a	n/a
3559.456	n/a	RECOG_RESP	1779728	n/a	LTP241	ltpFR	1	4	-1	BOYFRIEND	162	n/a	-1	n/a	n/a	n/a	n/a	n/a
3560.492	n/a	RECOG_CONF	1780246	n/a	LTP241	ltpFR	1	4	-1	BOYFRIEND	162	3	-1	n/a	n/a	n/a	n/a	n/a
3562.208	n/a	RECOG_LURE	1781104	n/a	LTP241	ltpFR	1	4	n/a	LAPEL	800	5	n/a	n/a	n/a	n/a	n/a	n/a
3563.438	n/a	RECOG_RESP	1781719	n/a	LTP241	ltpFR	1	4	n/a	LAPEL	800	n/a	n/a	n/a	n/a	n/a	n/a	n/a
3564.21	n/a	RECOG_CONF	1782105	n/a	LTP241	ltpFR	1	4	n/a	LAPEL	800	5	n/a	n/a	n/a	n/a	n/a	n/a
3565.97	n/a	RECOG_TARGET	1782985	n/a	LTP241	ltpFR	1	4	-1	CHECK	284	2	-1	n/a	n/a	n/a	n/a	n/a
3567.202	n/a	RECOG_RESP	1783601	n/a	LTP241	ltpFR	1	4	-1	CHECK	284	n/a	-1	n/a	n/a	n/a	n/a	n/a
3568.23	n/a	RECOG_CONF	1784115	n/a	LTP241	ltpFR	1	4	-1	CHECK	284	2	-1	n/a	n/a	n/a	n/a	n/a
3569.806	n/a	RECOG_LURE	1784903	n/a	LTP241	ltpFR	1	4	n/a	STUDENT	1395	3	n/a	n/a	n/a	n/a	n/a	n/a
3571.18	n/a	RECOG_RESP	1785590	n/a	LTP241	ltpFR	1	4	n/a	STUDENT	1395	n/a	n/a	n/a	n/a	n/a	n/a	n/a
3572.188	n/a	RECOG_CONF	1786094	n/a	LTP241	ltpFR	1	4	n/a	STUDENT	1395	3	n/a	n/a	n/a	n/a	n/a	n/a
3573.938	n/a	RECOG_LURE	1786969	n/a	LTP241	ltpFR	1	4	n/a	CUSHION	428	1	n/a	n/a	n/a	n/a	n/a	n/a
3576.358	n/a	RECOG_RESP	1788179	n/a	LTP241	ltpFR	1	4	n/a	CUSHION	428	n/a	n/a	n/a	n/a	n/a	n/a	n/a
3577.568	n/a	RECOG_CONF	1788784	n/a	LTP241	ltpFR	1	4	n/a	CUSHION	428	1	n/a	n/a	n/a	n/a	n/a	n/a
3584.204	n/a	REC_START	1792102	n/a	LTP241	ltpFR	1	5	n/a	n/a	n/a	n/a	n/a	n/a	n/a	n/a	n/a	n/a
3584.26	n/a	RECOG_TARGET	1792130	n/a	LTP241	ltpFR	1	5	1	JUNGLE	764	5	1	n/a	n/a	n/a	n/a	n/a
3585.052	n/a	RECOG_RESP	1792526	n/a	LTP241	ltpFR	1	5	1	JUNGLE	764	n/a	1	n/a	n/a	n/a	n/a	n/a
3585.938	n/a	RECOG_CONF	1792969	n/a	LTP241	ltpFR	1	5	1	JUNGLE	764	5	1	n/a	n/a	n/a	n/a	n/a
3587.622	n/a	RECOG_LURE	1793811	n/a	LTP241	ltpFR	1	5	n/a	MACARONI	851	5	n/a	n/a	n/a	n/a	n/a	n/a
3588.42	n/a	RECOG_RESP	1794210	n/a	LTP241	ltpFR	1	5	n/a	MACARONI	851	n/a	n/a	n/a	n/a	n/a	n/a	n/a
3589.194	n/a	RECOG_CONF	1794597	n/a	LTP241	ltpFR	1	5	n/a	MACARONI	851	5	n/a	n/a	n/a	n/a	n/a	n/a
3590.886	n/a	RECOG_LURE	1795443	n/a	LTP241	ltpFR	1	5	n/a	APRON	35	3	n/a	n/a	n/a	n/a	n/a	n/a
3591.836	n/a	RECOG_RESP	1795918	n/a	LTP241	ltpFR	1	5	n/a	APRON	35	n/a	n/a	n/a	n/a	n/a	n/a	n/a
3592.786	n/a	RECOG_CONF	1796393	n/a	LTP241	ltpFR	1	5	n/a	APRON	35	3	n/a	n/a	n/a	n/a	n/a	n/a
3594.448	n/a	RECOG_LURE	1797224	n/a	LTP241	ltpFR	1	5	n/a	STUMP	1396	2	n/a	n/a	n/a	n/a	n/a	n/a
3595.472	n/a	RECOG_RESP	1797736	n/a	LTP241	ltpFR	1	5	n/a	STUMP	1396	n/a	n/a	n/a	n/a	n/a	n/a	n/a
3596.434	n/a	RECOG_CONF	1798217	n/a	LTP241	ltpFR	1	5	n/a	STUMP	1396	2	n/a	n/a	n/a	n/a	n/a	n/a
3598.196	n/a	RECOG_LURE	1799098	n/a	LTP241	ltpFR	1	5	n/a	SINK	1309	1	n/a	n/a	n/a	n/a	n/a	n/a
3600.598	n/a	RECOG_RESP	1800299	n/a	LTP241	ltpFR	1	5	n/a	SINK	1309	n/a	n/a	n/a	n/a	n/a	n/a	n/a
3601.506	n/a	RECOG_CONF	1800753	n/a	LTP241	ltpFR	1	5	n/a	SINK	1309	1	n/a	n/a	n/a	n/a	n/a	n/a
3603.366	n/a	RECOG_LURE	1801683	n/a	LTP241	ltpFR	1	5	n/a	GHETTO	633	5	n/a	n/a	n/a	n/a	n/a	n/a
3604.564	n/a	RECOG_RESP	1802282	n/a	LTP241	ltpFR	1	5	n/a	GHETTO	633	n/a	n/a	n/a	n/a	n/a	n/a	n/a
3605.424	n/a	RECOG_CONF	1802712	n/a	LTP241	ltpFR	1	5	n/a	GHETTO	633	5	n/a	n/a	n/a	n/a	n/a	n/a
3607.344	n/a	RECOG_LURE	1803672	n/a	LTP241	ltpFR	1	5	n/a	OPERATOR	979	2	n/a	n/a	n/a	n/a	n/a	n/a
3608.316	n/a	RECOG_RESP	1804158	n/a	LTP241	ltpFR	1	5	n/a	OPERATOR	979	n/a	n/a	n/a	n/a	n/a	n/a	n/a
3609.426	n/a	RECOG_CONF	1804713	n/a	LTP241	ltpFR	1	5	n/a	OPERATOR	979	2	n/a	n/a	n/a	n/a	n/a	n/a
3611.178	n/a	RECOG_LURE	1805589	n/a	LTP241	ltpFR	1	5	n/a	GODDESS	646	4	n/a	n/a	n/a	n/a	n/a	n/a
3612.24	n/a	RECOG_RESP	1806120	n/a	LTP241	ltpFR	1	5	n/a	GODDESS	646	n/a	n/a	n/a	n/a	n/a	n/a	n/a
3613.32	n/a	RECOG_CONF	1806660	n/a	LTP241	ltpFR	1	5	n/a	GODDESS	646	4	n/a	n/a	n/a	n/a	n/a	n/a
3614.994	n/a	RECOG_LURE	1807497	n/a	LTP241	ltpFR	1	5	n/a	CARTON	251	2	n/a	n/a	n/a	n/a	n/a	n/a
3615.868	n/a	RECOG_RESP	1807934	n/a	LTP241	ltpFR	1	5	n/a	CARTON	251	n/a	n/a	n/a	n/a	n/a	n/a	n/a
3617.348	n/a	RECOG_CONF	1808674	n/a	LTP241	ltpFR	1	5	n/a	CARTON	251	2	n/a	n/a	n/a	n/a	n/a	n/a
3619.226	n/a	RECOG_LURE	1809613	n/a	LTP241	ltpFR	1	5	n/a	COPIER	377	2	n/a	n/a	n/a	n/a	n/a	n/a
3620.344	n/a	RECOG_RESP	1810172	n/a	LTP241	ltpFR	1	5	n/a	COPIER	377	n/a	n/a	n/a	n/a	n/a	n/a	n/a
3622.218	n/a	RECOG_CONF	1811109	n/a	LTP241	ltpFR	1	5	n/a	COPIER	377	2	n/a	n/a	n/a	n/a	n/a	n/a
3624.026	n/a	RECOG_LURE	1812013	n/a	LTP241	ltpFR	1	5	n/a	SPIT	1354	4	n/a	n/a	n/a	n/a	n/a	n/a
3625.032	n/a	RECOG_RESP	1812516	n/a	LTP241	ltpFR	1	5	n/a	SPIT	1354	n/a	n/a	n/a	n/a	n/a	n/a	n/a
3626.044	n/a	RECOG_CONF	1813022	n/a	LTP241	ltpFR	1	5	n/a	SPIT	1354	4	n/a	n/a	n/a	n/a	n/a	n/a
3627.844	n/a	RECOG_LURE	1813922	n/a	LTP241	ltpFR	1	5	n/a	TROUSERS	1510	5	n/a	n/a	n/a	n/a	n/a	n/a
3628.948	n/a	RECOG_RESP	1814474	n/a	LTP241	ltpFR	1	5	n/a	TROUSERS	1510	n/a	n/a	n/a	n/a	n/a	n/a	n/a
3629.906	n/a	RECOG_CONF	1814953	n/a	LTP241	ltpFR	1	5	n/a	TROUSERS	1510	5	n/a	n/a	n/a	n/a	n/a	n/a
3631.69	n/a	RECOG_TARGET	1815845	n/a	LTP241	ltpFR	1	5	1	VET	1560	5	1	n/a	n/a	n/a	n/a	n/a
3632.47	n/a	RECOG_RESP	1816235	n/a	LTP241	ltpFR	1	5	1	VET	1560	n/a	1	n/a	n/a	n/a	n/a	n/a
3633.39	n/a	RECOG_CONF	1816695	n/a	LTP241	ltpFR	1	5	1	VET	1560	5	1	n/a	n/a	n/a	n/a	n/a
3635.134	n/a	RECOG_TARGET	1817567	n/a	LTP241	ltpFR	1	5	-1	ORCHESTRA	981	5	-1	n/a	n/a	n/a	n/a	n/a
3636.184	n/a	RECOG_RESP	1818092	n/a	LTP241	ltpFR	1	5	-1	ORCHESTRA	981	n/a	-1	n/a	n/a	n/a	n/a	n/a
3636.968	n/a	RECOG_CONF	1818484	n/a	LTP241	ltpFR	1	5	-1	ORCHESTRA	981	5	-1	n/a	n/a	n/a	n/a	n/a
3638.752	n/a	RECOG_LURE	1819376	n/a	LTP241	ltpFR	1	5	n/a	SISTER	1312	4	n/a	n/a	n/a	n/a	n/a	n/a
3640.526	n/a	RECOG_RESP	1820263	n/a	LTP241	ltpFR	1	5	n/a	SISTER	1312	n/a	n/a	n/a	n/a	n/a	n/a	n/a
3641.856	n/a	RECOG_CONF	1820928	n/a	LTP241	ltpFR	1	5	n/a	SISTER	1312	4	n/a	n/a	n/a	n/a	n/a	n/a
3643.67	n/a	RECOG_LURE	1821835	n/a	LTP241	ltpFR	1	5	n/a	RACKET	1155	1	n/a	n/a	n/a	n/a	n/a	n/a
3645.362	n/a	RECOG_RESP	1822681	n/a	LTP241	ltpFR	1	5	n/a	RACKET	1155	n/a	n/a	n/a	n/a	n/a	n/a	n/a
3646.888	n/a	RECOG_CONF	1823444	n/a	LTP241	ltpFR	1	5	n/a	RACKET	1155	1	n/a	n/a	n/a	n/a	n/a	n/a
3648.656	n/a	RECOG_LURE	1824328	n/a	LTP241	ltpFR	1	5	n/a	NAVIGATOR	938	3	n/a	n/a	n/a	n/a	n/a	n/a
3650.172	n/a	RECOG_RESP	1825086	n/a	LTP241	ltpFR	1	5	n/a	NAVIGATOR	938	n/a	n/a	n/a	n/a	n/a	n/a	n/a
3652.32	n/a	RECOG_CONF	1826160	n/a	LTP241	ltpFR	1	5	n/a	NAVIGATOR	938	3	n/a	n/a	n/a	n/a	n/a	n/a
3654.328	n/a	RECOG_TARGET	1827164	n/a	LTP241	ltpFR	1	5	0	SHOVEL	1295	5	0	n/a	n/a	n/a	n/a	n/a
3655.154	n/a	RECOG_RESP	1827577	n/a	LTP241	ltpFR	1	5	0	SHOVEL	1295	n/a	0	n/a	n/a	n/a	n/a	n/a
3656.018	n/a	RECOG_CONF	1828009	n/a	LTP241	ltpFR	1	5	0	SHOVEL	1295	5	0	n/a	n/a	n/a	n/a	n/a
3657.706	n/a	RECOG_TARGET	1828853	n/a	LTP241	ltpFR	1	5	1	GALAXY	617	5	1	n/a	n/a	n/a	n/a	n/a
3658.404	n/a	RECOG_RESP	1829202	n/a	LTP241	ltpFR	1	5	1	GALAXY	617	n/a	1	n/a	n/a	n/a	n/a	n/a
3659.402	n/a	RECOG_CONF	1829701	n/a	LTP241	ltpFR	1	5	1	GALAXY	617	5	1	n/a	n/a	n/a	n/a	n/a
3661.004	n/a	RECOG_TARGET	1830502	n/a	LTP241	ltpFR	1	5	1	TUXEDO	1525	5	0	n/a	n/a	n/a	n/a	n/a
3661.738	n/a	RECOG_RESP	1830869	n/a	LTP241	ltpFR	1	5	1	TUXEDO	1525	n/a	0	n/a	n/a	n/a	n/a	n/a
3662.616	n/a	RECOG_CONF	1831308	n/a	LTP241	ltpFR	1	5	1	TUXEDO	1525	5	0	n/a	n/a	n/a	n/a	n/a
3671.43	n/a	REC_START	1835715	n/a	LTP241	ltpFR	1	6	n/a	n/a	n/a	n/a	n/a	n/a	n/a	n/a	n/a	n/a
3671.49	n/a	RECOG_TARGET	1835745	n/a	LTP241	ltpFR	1	6	1	MINER	896	4	1	n/a	n/a	n/a	n/a	n/a
3672.272	n/a	RECOG_RESP	1836136	n/a	LTP241	ltpFR	1	6	1	MINER	896	n/a	1	n/a	n/a	n/a	n/a	n/a
3673.224	n/a	RECOG_CONF	1836612	n/a	LTP241	ltpFR	1	6	1	MINER	896	4	1	n/a	n/a	n/a	n/a	n/a
3674.756	n/a	RECOG_LURE	1837378	n/a	LTP241	ltpFR	1	6	n/a	CLERK	321	4	n/a	n/a	n/a	n/a	n/a	n/a
3675.686	n/a	RECOG_RESP	1837843	n/a	LTP241	ltpFR	1	6	n/a	CLERK	321	n/a	n/a	n/a	n/a	n/a	n/a	n/a
3676.548	n/a	RECOG_CONF	1838274	n/a	LTP241	ltpFR	1	6	n/a	CLERK	321	4	n/a	n/a	n/a	n/a	n/a	n/a
3678.286	n/a	RECOG_TARGET	1839143	n/a	LTP241	ltpFR	1	6	-1	BELLY	119	5	-1	n/a	n/a	n/a	n/a	n/a
3679.066	n/a	RECOG_RESP	1839533	n/a	LTP241	ltpFR	1	6	-1	BELLY	119	n/a	-1	n/a	n/a	n/a	n/a	n/a
3679.92	n/a	RECOG_CONF	1839960	n/a	LTP241	ltpFR	1	6	-1	BELLY	119	5	-1	n/a	n/a	n/a	n/a	n/a
3681.644	n/a	RECOG_LURE	1840822	n/a	LTP241	ltpFR	1	6	n/a	BAG	69	3	n/a	n/a	n/a	n/a	n/a	n/a
3683.11	n/a	RECOG_RESP	1841555	n/a	LTP241	ltpFR	1	6	n/a	BAG	69	n/a	n/a	n/a	n/a	n/a	n/a	n/a
3684.334	n/a	RECOG_CONF	1842167	n/a	LTP241	ltpFR	1	6	n/a	BAG	69	3	n/a	n/a	n/a	n/a	n/a	n/a
3686.266	n/a	RECOG_TARGET	1843133	n/a	LTP241	ltpFR	1	6	-1	STAMP	1370	5	-1	n/a	n/a	n/a	n/a	n/a
3686.968	n/a	RECOG_RESP	1843484	n/a	LTP241	ltpFR	1	6	-1	STAMP	1370	n/a	-1	n/a	n/a	n/a	n/a	n/a
3687.698	n/a	RECOG_CONF	1843849	n/a	LTP241	ltpFR	1	6	-1	STAMP	1370	5	-1	n/a	n/a	n/a	n/a	n/a
3689.46	n/a	RECOG_TARGET	1844730	n/a	LTP241	ltpFR	1	6	1	LIZARD	834	5	1	n/a	n/a	n/a	n/a	n/a
3690.39	n/a	RECOG_RESP	1845195	n/a	LTP241	ltpFR	1	6	1	LIZARD	834	n/a	1	n/a	n/a	n/a	n/a	n/a
3691.28	n/a	RECOG_CONF	1845640	n/a	LTP241	ltpFR	1	6	1	LIZARD	834	5	1	n/a	n/a	n/a	n/a	n/a
3692.942	n/a	RECOG_TARGET	1846471	n/a	LTP241	ltpFR	1	6	-1	ROOM	1206	4	-1	n/a	n/a	n/a	n/a	n/a
3694.996	n/a	RECOG_RESP	1847498	n/a	LTP241	ltpFR	1	6	-1	ROOM	1206	n/a	-1	n/a	n/a	n/a	n/a	n/a
3695.844	n/a	RECOG_CONF	1847922	n/a	LTP241	ltpFR	1	6	-1	ROOM	1206	4	-1	n/a	n/a	n/a	n/a	n/a
3697.576	n/a	RECOG_LURE	1848788	n/a	LTP241	ltpFR	1	6	n/a	SUBURB	1399	5	n/a	n/a	n/a	n/a	n/a	n/a
3698.638	n/a	RECOG_RESP	1849319	n/a	LTP241	ltpFR	1	6	n/a	SUBURB	1399	n/a	n/a	n/a	n/a	n/a	n/a	n/a
3699.56	n/a	RECOG_CONF	1849780	n/a	LTP241	ltpFR	1	6	n/a	SUBURB	1399	5	n/a	n/a	n/a	n/a	n/a	n/a
3701.274	n/a	RECOG_TARGET	1850637	n/a	LTP241	ltpFR	1	6	1	SWAMP	1416	5	0	n/a	n/a	n/a	n/a	n/a
3702.042	n/a	RECOG_RESP	1851021	n/a	LTP241	ltpFR	1	6	1	SWAMP	1416	n/a	0	n/a	n/a	n/a	n/a	n/a
3702.894	n/a	RECOG_CONF	1851447	n/a	LTP241	ltpFR	1	6	1	SWAMP	1416	5	0	n/a	n/a	n/a	n/a	n/a
3704.468	n/a	RECOG_TARGET	1852234	n/a	LTP241	ltpFR	1	6	0	BAND	78	5	1	n/a	n/a	n/a	n/a	n/a
3705.272	n/a	RECOG_RESP	1852636	n/a	LTP241	ltpFR	1	6	0	BAND	78	n/a	1	n/a	n/a	n/a	n/a	n/a
3706.176	n/a	RECOG_CONF	1853088	n/a	LTP241	ltpFR	1	6	0	BAND	78	5	1	n/a	n/a	n/a	n/a	n/a
3707.978	n/a	RECOG_LURE	1853989	n/a	LTP241	ltpFR	1	6	n/a	CROOK	412	2	n/a	n/a	n/a	n/a	n/a	n/a
3708.94	n/a	RECOG_RESP	1854470	n/a	LTP241	ltpFR	1	6	n/a	CROOK	412	n/a	n/a	n/a	n/a	n/a	n/a	n/a
3710.08	n/a	RECOG_CONF	1855040	n/a	LTP241	ltpFR	1	6	n/a	CROOK	412	2	n/a	n/a	n/a	n/a	n/a	n/a
3711.832	n/a	RECOG_LURE	1855916	n/a	LTP241	ltpFR	1	6	n/a	NOTEBOOK	959	3	n/a	n/a	n/a	n/a	n/a	n/a
3712.888	n/a	RECOG_RESP	1856444	n/a	LTP241	ltpFR	1	6	n/a	NOTEBOOK	959	n/a	n/a	n/a	n/a	n/a	n/a	n/a
3714.032	n/a	RECOG_CONF	1857016	n/a	LTP241	ltpFR	1	6	n/a	NOTEBOOK	959	3	n/a	n/a	n/a	n/a	n/a	n/a
3715.876	n/a	RECOG_LURE	1857938	n/a	LTP241	ltpFR	1	6	n/a	CHECKERS	285	3	n/a	n/a	n/a	n/a	n/a	n/a
3717.136	n/a	RECOG_RESP	1858568	n/a	LTP241	ltpFR	1	6	n/a	CHECKERS	285	n/a	n/a	n/a	n/a	n/a	n/a	n/a
3718.944	n/a	RECOG_CONF	1859472	n/a	LTP241	ltpFR	1	6	n/a	CHECKERS	285	3	n/a	n/a	n/a	n/a	n/a	n/a
3720.714	n/a	RECOG_LURE	1860357	n/a	LTP241	ltpFR	1	6	n/a	KNOT	788	1	n/a	n/a	n/a	n/a	n/a	n/a
3722.3	n/a	RECOG_RESP	1861150	n/a	LTP241	ltpFR	1	6	n/a	KNOT	788	n/a	n/a	n/a	n/a	n/a	n/a	n/a
3723.818	n/a	RECOG_CONF	1861909	n/a	LTP241	ltpFR	1	6	n/a	KNOT	788	1	n/a	n/a	n/a	n/a	n/a	n/a
3725.516	n/a	RECOG_LURE	1862758	n/a	LTP241	ltpFR	1	6	n/a	CHAMBER	277	2	n/a	n/a	n/a	n/a	n/a	n/a
3726.93	n/a	RECOG_RESP	1863465	n/a	LTP241	ltpFR	1	6	n/a	CHAMBER	277	n/a	n/a	n/a	n/a	n/a	n/a	n/a
3728.434	n/a	RECOG_CONF	1864217	n/a	LTP241	ltpFR	1	6	n/a	CHAMBER	277	2	n/a	n/a	n/a	n/a	n/a	n/a
3730.15	n/a	RECOG_TARGET	1865075	n/a	LTP241	ltpFR	1	6	-1	ATTIRE	57	5	-1	n/a	n/a	n/a	n/a	n/a
3730.964	n/a	RECOG_RESP	1865482	n/a	LTP241	ltpFR	1	6	-1	ATTIRE	57	n/a	-1	n/a	n/a	n/a	n/a	n/a
3731.868	n/a	RECOG_CONF	1865934	n/a	LTP241	ltpFR	1	6	-1	ATTIRE	57	5	-1	n/a	n/a	n/a	n/a	n/a
3733.748	n/a	RECOG_TARGET	1866874	n/a	LTP241	ltpFR	1	6	-1	CONCERT	360	5	-1	n/a	n/a	n/a	n/a	n/a
3734.668	n/a	RECOG_RESP	1867334	n/a	LTP241	ltpFR	1	6	-1	CONCERT	360	n/a	-1	n/a	n/a	n/a	n/a	n/a
3735.708	n/a	RECOG_CONF	1867854	n/a	LTP241	ltpFR	1	6	-1	CONCERT	360	5	-1	n/a	n/a	n/a	n/a	n/a
3737.492	n/a	RECOG_TARGET	1868746	n/a	LTP241	ltpFR	1	6	-1	RADISH	1158	5	-1	n/a	n/a	n/a	n/a	n/a
3738.27	n/a	RECOG_RESP	1869135	n/a	LTP241	ltpFR	1	6	-1	RADISH	1158	n/a	-1	n/a	n/a	n/a	n/a	n/a
3739.14	n/a	RECOG_CONF	1869570	n/a	LTP241	ltpFR	1	6	-1	RADISH	1158	5	-1	n/a	n/a	n/a	n/a	n/a
3740.908	n/a	RECOG_TARGET	1870454	n/a	LTP241	ltpFR	1	6	1	PORCUPINE	1107	5	1	n/a	n/a	n/a	n/a	n/a
3741.726	n/a	RECOG_RESP	1870863	n/a	LTP241	ltpFR	1	6	1	PORCUPINE	1107	n/a	1	n/a	n/a	n/a	n/a	n/a
3742.546	n/a	RECOG_CONF	1871273	n/a	LTP241	ltpFR	1	6	1	PORCUPINE	1107	5	1	n/a	n/a	n/a	n/a	n/a
3744.338	n/a	RECOG_TARGET	1872169	n/a	LTP241	ltpFR	1	6	1	EARTH	515	5	1	n/a	n/a	n/a	n/a	n/a
3745.036	n/a	RECOG_RESP	1872518	n/a	LTP241	ltpFR	1	6	1	EARTH	515	n/a	1	n/a	n/a	n/a	n/a	n/a
3745.882	n/a	RECOG_CONF	1872941	n/a	LTP241	ltpFR	1	6	1	EARTH	515	5	1	n/a	n/a	n/a	n/a	n/a
3754.44	n/a	REC_START	1877220	n/a	LTP241	ltpFR	1	7	n/a	n/a	n/a	n/a	n/a	n/a	n/a	n/a	n/a	n/a
3754.494	n/a	RECOG_TARGET	1877247	n/a	LTP241	ltpFR	1	7	1	ARMY	39	5	1	n/a	n/a	n/a	n/a	n/a
3755.332	n/a	RECOG_RESP	1877666	n/a	LTP241	ltpFR	1	7	1	ARMY	39	n/a	1	n/a	n/a	n/a	n/a	n/a
3756.116	n/a	RECOG_CONF	1878058	n/a	LTP241	ltpFR	1	7	1	ARMY	39	5	1	n/a	n/a	n/a	n/a	n/a
3757.924	n/a	RECOG_TARGET	1878962	n/a	LTP241	ltpFR	1	7	-1	SAW	1239	5	-1	n/a	n/a	n/a	n/a	n/a
3759.36	n/a	RECOG_RESP	1879680	n/a	LTP241	ltpFR	1	7	-1	SAW	1239	n/a	-1	n/a	n/a	n/a	n/a	n/a
3760.172	n/a	RECOG_CONF	1880086	n/a	LTP241	ltpFR	1	7	-1	SAW	1239	5	-1	n/a	n/a	n/a	n/a	n/a
3761.77	n/a	RECOG_LURE	1880885	n/a	LTP241	ltpFR	1	7	n/a	TIE	1466	1	n/a	n/a	n/a	n/a	n/a	n/a
3762.62	n/a	RECOG_RESP	1881310	n/a	LTP241	ltpFR	1	7	n/a	TIE	1466	n/a	n/a	n/a	n/a	n/a	n/a	n/a
3763.766	n/a	RECOG_CONF	1881883	n/a	LTP241	ltpFR	1	7	n/a	TIE	1466	1	n/a	n/a	n/a	n/a	n/a	n/a
3765.448	n/a	RECOG_TARGET	1882724	n/a	LTP241	ltpFR	1	7	0	LAWYER	806	4	1	n/a	n/a	n/a	n/a	n/a
3766.25	n/a	RECOG_RESP	1883125	n/a	LTP241	ltpFR	1	7	0	LAWYER	806	n/a	1	n/a	n/a	n/a	n/a	n/a
