mstime	trial_type	stim_file	subject	experiment	session	trial	task	item_name	item_num	recog_resp	recog_conf	resp	color_r	color_g	color_b	case	font
0	SESS_START	n/a	LTP079	ltpFR	15	n/a	n/a	n/a	n/a	0	n/a	n/a	n/a	n/a	n/a	n/a	n/a
66375	WORD	wordpools/wasnorm_wordpool.txt	LTP079	ltpFR	15	1	0	PIE	1062	n/a	n/a	0	0.57763671875	0.412841796875	1	lower	amplitud.ttf
70569	WORD	wordpools/wasnorm_wordpool.txt	LTP079	ltpFR	15	1	0	CALF	222	n/a	n/a	0	0.57763671875	0.412841796875	1	lower	amplitud.ttf
74391	WORD	wordpools/wasnorm_wordpool.txt	LTP079	ltpFR	15	1	0	OX	994	n/a	n/a	1	0.57763671875	0.412841796875	1	lower	amplitud.ttf
78544	WORD	wordpools/wasnorm_wordpool.txt	LTP079	ltpFR	15	1	1	HOOK	715	n/a	n/a	0	0.422607421875	0.5869140625	0	upper	zerothre.ttf
82581	WORD	wordpools/wasnorm_wordpool.txt	LTP079	ltpFR	15	1	1	VENUS	1557	n/a	n/a	1	0.422607421875	0.5869140625	0	upper	zerothre.ttf
86484	WORD	wordpools/wasnorm_wordpool.txt	LTP079	ltpFR	15	1	1	SHORTCAKE	1292	n/a	n/a	0	0.422607421875	0.5869140625	0	upper	zerothre.ttf
90356	WORD	wordpools/wasnorm_wordpool.txt	LTP079	ltpFR	15	1	1	JACKET	747	n/a	n/a	0	0.422607421875	0.5869140625	0	upper	zerothre.ttf
94492	WORD	wordpools/wasnorm_wordpool.txt	LTP079	ltpFR	15	1	0	FLANNEL	574	n/a	n/a	1	0.57763671875	0.412841796875	1	lower	amplitud.ttf
98595	WORD	wordpools/wasnorm_wordpool.txt	LTP079	ltpFR	15	1	0	COMMANDER	354	n/a	n/a	1	0.57763671875	0.412841796875	1	lower	amplitud.ttf
102641	WORD	wordpools/wasnorm_wordpool.txt	LTP079	ltpFR	15	1	0	ASTEROID	50	n/a	n/a	1	0.57763671875	0.412841796875	1	lower	amplitud.ttf
106461	WORD	wordpools/wasnorm_wordpool.txt	LTP079	ltpFR	15	1	1	PASTA	1021	n/a	n/a	0	0.422607421875	0.5869140625	0	upper	zerothre.ttf
110341	WORD	wordpools/wasnorm_wordpool.txt	LTP079	ltpFR	15	1	1	GENTLEMAN	631	n/a	n/a	1	0.422607421875	0.5869140625	0	upper	zerothre.ttf
114187	WORD	wordpools/wasnorm_wordpool.txt	LTP079	ltpFR	15	1	1	TUNA	1518	n/a	n/a	1	0.422607421875	0.5869140625	0	upper	zerothre.ttf
118024	WORD	wordpools/wasnorm_wordpool.txt	LTP079	ltpFR	15	1	1	RIBBON	1189	n/a	n/a	0	0.422607421875	0.5869140625	0	upper	zerothre.ttf
122102	WORD	wordpools/wasnorm_wordpool.txt	LTP079	ltpFR	15	1	0	GIFT	635	n/a	n/a	0	0.57763671875	0.412841796875	1	lower	amplitud.ttf
126273	WORD	wordpools/wasnorm_wordpool.txt	LTP079	ltpFR	15	1	0	CAT	257	n/a	n/a	0	0.57763671875	0.412841796875	1	lower	amplitud.ttf
132217	REC_START	n/a	LTP079	ltpFR	15	1	n/a	n/a	n/a	n/a	n/a	n/a	n/a	n/a	n/a	n/a	n/a
133639	REC_WORD	wordpools/wasnorm_wordpool.txt	LTP079	ltpFR	15	1	0	CAT	257	n/a	n/a	0	n/a	n/a	n/a	n/a	n/a
135025	REC_WORD	wordpools/wasnorm_wordpool.txt	LTP079	ltpFR	15	1	0	GIFT	635	n/a	n/a	0	n/a	n/a	n/a	n/a	n/a
136487	REC_WORD	wordpools/wasnorm_wordpool.txt	LTP079	ltpFR	15	1	1	RIBBON	1189	n/a	n/a	0	n/a	n/a	n/a	n/a	n/a
142284	REC_WORD	wordpools/wasnorm_wordpool.txt	LTP079	ltpFR	15	1	n/a	CAN	225	n/a	n/a	n/a	n/a	n/a	n/a	n/a	n/a
146799	REC_WORD	wordpools/wasnorm_wordpool.txt	LTP079	ltpFR	15	1	1	GENTLEMAN	631	n/a	n/a	1	n/a	n/a	n/a	n/a	n/a
149887	REC_WORD	wordpools/wasnorm_wordpool.txt	LTP079	ltpFR	15	1	1	TUNA	1518	n/a	n/a	1	n/a	n/a	n/a	n/a	n/a
152201	REC_WORD	wordpools/wasnorm_wordpool.txt	LTP079	ltpFR	15	1	1	PASTA	1021	n/a	n/a	0	n/a	n/a	n/a	n/a	n/a
153858	REC_WORD	wordpools/wasnorm_wordpool.txt	LTP079	ltpFR	15	1	0	ASTEROID	50	n/a	n/a	1	n/a	n/a	n/a	n/a	n/a
159102	REC_WORD	wordpools/wasnorm_wordpool.txt	LTP079	ltpFR	15	1	1	VENUS	1557	n/a	n/a	1	n/a	n/a	n/a	n/a	n/a
161076	REC_WORD	wordpools/wasnorm_wordpool.txt	LTP079	ltpFR	15	1	1	HOOK	715	n/a	n/a	0	n/a	n/a	n/a	n/a	n/a
165810	REC_WORD	wordpools/wasnorm_wordpool.txt	LTP079	ltpFR	15	1	0	OX	994	n/a	n/a	1	n/a	n/a	n/a	n/a	n/a
167272	REC_WORD	wordpools/wasnorm_wordpool.txt	LTP079	ltpFR	15	1	0	CALF	222	n/a	n/a	0	n/a	n/a	n/a	n/a	n/a
170879	REC_WORD	wordpools/wasnorm_wordpool.txt	LTP079	ltpFR	15	1	0	PIE	1062	n/a	n/a	0	n/a	n/a	n/a	n/a	n/a
210317	WORD	wordpools/wasnorm_wordpool.txt	LTP079	ltpFR	15	2	1	BENCH	121	n/a	n/a	0	0.422607421875	0.5869140625	0	upper	zerothre.ttf
214187	WORD	wordpools/wasnorm_wordpool.txt	LTP079	ltpFR	15	2	1	DIVER	476	n/a	n/a	1	0.422607421875	0.5869140625	0	upper	zerothre.ttf
218016	WORD	wordpools/wasnorm_wordpool.txt	LTP079	ltpFR	15	2	1	MOSS	918	n/a	n/a	1	0.422607421875	0.5869140625	0	upper	zerothre.ttf
222170	WORD	wordpools/wasnorm_wordpool.txt	LTP079	ltpFR	15	2	0	LIMB	822	n/a	n/a	0	0.57763671875	0.412841796875	1	lower	amplitud.ttf
226298	WORD	wordpools/wasnorm_wordpool.txt	LTP079	ltpFR	15	2	0	CHEMIST	292	n/a	n/a	1	0.57763671875	0.412841796875	1	lower	amplitud.ttf
230360	WORD	wordpools/wasnorm_wordpool.txt	LTP079	ltpFR	15	2	0	MINER	896	n/a	n/a	1	0.57763671875	0.412841796875	1	lower	amplitud.ttf
234381	WORD	wordpools/wasnorm_wordpool.txt	LTP079	ltpFR	15	2	1	STRAW	1390	n/a	n/a	0	0.422607421875	0.5869140625	0	upper	zerothre.ttf
238309	WORD	wordpools/wasnorm_wordpool.txt	LTP079	ltpFR	15	2	1	TEA	1439	n/a	n/a	0	0.422607421875	0.5869140625	0	upper	zerothre.ttf
242504	WORD	wordpools/wasnorm_wordpool.txt	LTP079	ltpFR	15	2	1	TREASURE	1500	n/a	n/a	0	0.422607421875	0.5869140625	0	upper	zerothre.ttf
246649	WORD	wordpools/wasnorm_wordpool.txt	LTP079	ltpFR	15	2	1	TUBE	1516	n/a	n/a	0	0.422607421875	0.5869140625	0	upper	zerothre.ttf
250577	WORD	wordpools/wasnorm_wordpool.txt	LTP079	ltpFR	15	2	1	DIGGER	464	n/a	n/a	1	0.422607421875	0.5869140625	0	upper	zerothre.ttf
254789	WORD	wordpools/wasnorm_wordpool.txt	LTP079	ltpFR	15	2	0	MINK	897	n/a	n/a	0	0.57763671875	0.412841796875	1	lower	amplitud.ttf
258718	WORD	wordpools/wasnorm_wordpool.txt	LTP079	ltpFR	15	2	0	TRENCH	1503	n/a	n/a	1	0.57763671875	0.412841796875	1	lower	amplitud.ttf
262788	WORD	wordpools/wasnorm_wordpool.txt	LTP079	ltpFR	15	2	0	SPONGE	1355	n/a	n/a	0	0.57763671875	0.412841796875	1	lower	amplitud.ttf
266626	WORD	wordpools/wasnorm_wordpool.txt	LTP079	ltpFR	15	2	0	CHEST	295	n/a	n/a	1	0.57763671875	0.412841796875	1	lower	amplitud.ttf
270812	WORD	wordpools/wasnorm_wordpool.txt	LTP079	ltpFR	15	2	0	PRISON	1127	n/a	n/a	1	0.57763671875	0.412841796875	1	lower	amplitud.ttf
276806	REC_START	n/a	LTP079	ltpFR	15	2	n/a	n/a	n/a	n/a	n/a	n/a	n/a	n/a	n/a	n/a	n/a
277893	REC_WORD	wordpools/wasnorm_wordpool.txt	LTP079	ltpFR	15	2	0	PRISON	1127	n/a	n/a	1	n/a	n/a	n/a	n/a	n/a
279175	REC_WORD	wordpools/wasnorm_wordpool.txt	LTP079	ltpFR	15	2	0	CHEST	295	n/a	n/a	1	n/a	n/a	n/a	n/a	n/a
280587	REC_WORD	wordpools/wasnorm_wordpool.txt	LTP079	ltpFR	15	2	0	MINK	897	n/a	n/a	0	n/a	n/a	n/a	n/a	n/a
281828	REC_WORD	wordpools/wasnorm_wordpool.txt	LTP079	ltpFR	15	2	0	SPONGE	1355	n/a	n/a	0	n/a	n/a	n/a	n/a	n/a
283356	REC_WORD	wordpools/wasnorm_wordpool.txt	LTP079	ltpFR	15	2	0	TRENCH	1503	n/a	n/a	1	n/a	n/a	n/a	n/a	n/a
286334	REC_WORD	wordpools/wasnorm_wordpool.txt	LTP079	ltpFR	15	2	1	BENCH	121	n/a	n/a	0	n/a	n/a	n/a	n/a	n/a
287965	REC_WORD	wordpools/wasnorm_wordpool.txt	LTP079	ltpFR	15	2	1	DIVER	476	n/a	n/a	1	n/a	n/a	n/a	n/a	n/a
289627	REC_WORD	wordpools/wasnorm_wordpool.txt	LTP079	ltpFR	15	2	1	MOSS	918	n/a	n/a	1	n/a	n/a	n/a	n/a	n/a
291138	REC_WORD	wordpools/wasnorm_wordpool.txt	LTP079	ltpFR	15	2	0	LIMB	822	n/a	n/a	0	n/a	n/a	n/a	n/a	n/a
294940	REC_WORD	wordpools/wasnorm_wordpool.txt	LTP079	ltpFR	15	2	0	CHEMIST	292	n/a	n/a	1	n/a	n/a	n/a	n/a	n/a
296793	REC_WORD	wordpools/wasnorm_wordpool.txt	LTP079	ltpFR	15	2	0	MINER	896	n/a	n/a	1	n/a	n/a	n/a	n/a	n/a
301195	REC_WORD	wordpools/wasnorm_wordpool.txt	LTP079	ltpFR	15	2	1	TEA	1439	n/a	n/a	0	n/a	n/a	n/a	n/a	n/a
302692	REC_WORD	wordpools/wasnorm_wordpool.txt	LTP079	ltpFR	15	2	1	TREASURE	1500	n/a	n/a	0	n/a	n/a	n/a	n/a	n/a
304897	REC_WORD	wordpools/wasnorm_wordpool.txt	LTP079	ltpFR	15	2	1	TUBE	1516	n/a	n/a	0	n/a	n/a	n/a	n/a	n/a
306573	REC_WORD	wordpools/wasnorm_wordpool.txt	LTP079	ltpFR	15	2	1	DIGGER	464	n/a	n/a	1	n/a	n/a	n/a	n/a	n/a
314271	REC_WORD	wordpools/wasnorm_wordpool.txt	LTP079	ltpFR	15	2	0	MINER	896	n/a	n/a	1	n/a	n/a	n/a	n/a	n/a
324647	REC_WORD	wordpools/wasnorm_wordpool.txt	LTP079	ltpFR	15	2	1	TUBE	1516	n/a	n/a	0	n/a	n/a	n/a	n/a	n/a
359111	WORD	wordpools/wasnorm_wordpool.txt	LTP079	ltpFR	15	3	-1	BULLET	194	n/a	n/a	-1	1.0	1.0	1	upper	Verdana.ttf
363131	WORD	wordpools/wasnorm_wordpool.txt	LTP079	ltpFR	15	3	-1	GUN	673	n/a	n/a	-1	1.0	1.0	1	upper	Verdana.ttf
367335	WORD	wordpools/wasnorm_wordpool.txt	LTP079	ltpFR	15	3	-1	TABLE	1426	n/a	n/a	-1	1.0	1.0	1	upper	Verdana.ttf
371272	WORD	wordpools/wasnorm_wordpool.txt	LTP079	ltpFR	15	3	-1	HAM	678	n/a	n/a	-1	1.0	1.0	1	upper	Verdana.ttf
375226	WORD	wordpools/wasnorm_wordpool.txt	LTP079	ltpFR	15	3	-1	SNACK	1331	n/a	n/a	-1	1.0	1.0	1	upper	Verdana.ttf
379254	WORD	wordpools/wasnorm_wordpool.txt	LTP079	ltpFR	15	3	-1	PIANO	1057	n/a	n/a	-1	1.0	1.0	1	upper	Verdana.ttf
383100	WORD	wordpools/wasnorm_wordpool.txt	LTP079	ltpFR	15	3	-1	PERSONNEL	1053	n/a	n/a	-1	1.0	1.0	1	upper	Verdana.ttf
387137	WORD	wordpools/wasnorm_wordpool.txt	LTP079	ltpFR	15	3	-1	SHAMPOO	1274	n/a	n/a	-1	1.0	1.0	1	upper	Verdana.ttf
391324	WORD	wordpools/wasnorm_wordpool.txt	LTP079	ltpFR	15	3	-1	PEDAL	1037	n/a	n/a	-1	1.0	1.0	1	upper	Verdana.ttf
395211	WORD	wordpools/wasnorm_wordpool.txt	LTP079	ltpFR	15	3	-1	CASHIER	254	n/a	n/a	-1	1.0	1.0	1	upper	Verdana.ttf
399123	WORD	wordpools/wasnorm_wordpool.txt	LTP079	ltpFR	15	3	-1	CHAIR	274	n/a	n/a	-1	1.0	1.0	1	upper	Verdana.ttf
402943	WORD	wordpools/wasnorm_wordpool.txt	LTP079	ltpFR	15	3	-1	COMMUNITY	356	n/a	n/a	-1	1.0	1.0	1	upper	Verdana.ttf
406896	WORD	wordpools/wasnorm_wordpool.txt	LTP079	ltpFR	15	3	-1	BRIDGE	174	n/a	n/a	-1	1.0	1.0	1	upper	Verdana.ttf
411067	WORD	wordpools/wasnorm_wordpool.txt	LTP079	ltpFR	15	3	-1	ACTRESS	6	n/a	n/a	-1	1.0	1.0	1	upper	Verdana.ttf
415029	WORD	wordpools/wasnorm_wordpool.txt	LTP079	ltpFR	15	3	-1	ICING	732	n/a	n/a	-1	1.0	1.0	1	upper	Verdana.ttf
419183	WORD	wordpools/wasnorm_wordpool.txt	LTP079	ltpFR	15	3	-1	CRUMB	416	n/a	n/a	-1	1.0	1.0	1	upper	Verdana.ttf
424859	REC_START	n/a	LTP079	ltpFR	15	3	n/a	n/a	n/a	n/a	n/a	n/a	n/a	n/a	n/a	n/a	n/a
426071	REC_WORD	wordpools/wasnorm_wordpool.txt	LTP079	ltpFR	15	3	-1	CRUMB	416	n/a	n/a	-1	n/a	n/a	n/a	n/a	n/a
427558	REC_WORD	wordpools/wasnorm_wordpool.txt	LTP079	ltpFR	15	3	-1	ICING	732	n/a	n/a	-1	n/a	n/a	n/a	n/a	n/a
428979	REC_WORD	wordpools/wasnorm_wordpool.txt	LTP079	ltpFR	15	3	-1	ACTRESS	6	n/a	n/a	-1	n/a	n/a	n/a	n/a	n/a
430451	REC_WORD	wordpools/wasnorm_wordpool.txt	LTP079	ltpFR	15	3	-1	BRIDGE	174	n/a	n/a	-1	n/a	n/a	n/a	n/a	n/a
431633	REC_WORD	wordpools/wasnorm_wordpool.txt	LTP079	ltpFR	15	3	-1	COMMUNITY	356	n/a	n/a	-1	n/a	n/a	n/a	n/a	n/a
433115	REC_WORD	wordpools/wasnorm_wordpool.txt	LTP079	ltpFR	15	3	-1	CHAIR	274	n/a	n/a	-1	n/a	n/a	n/a	n/a	n/a
434367	REC_WORD	wordpools/wasnorm_wordpool.txt	LTP079	ltpFR	15	3	-1	CASHIER	254	n/a	n/a	-1	n/a	n/a	n/a	n/a	n/a
435954	REC_WORD	wordpools/wasnorm_wordpool.txt	LTP079	ltpFR	15	3	-1	PEDAL	1037	n/a	n/a	-1	n/a	n/a	n/a	n/a	n/a
437026	REC_WORD	wordpools/wasnorm_wordpool.txt	LTP079	ltpFR	15	3	-1	SHAMPOO	1274	n/a	n/a	-1	n/a	n/a	n/a	n/a	n/a
438642	REC_WORD	wordpools/wasnorm_wordpool.txt	LTP079	ltpFR	15	3	-1	PERSONNEL	1053	n/a	n/a	-1	n/a	n/a	n/a	n/a	n/a
440334	REC_WORD	wordpools/wasnorm_wordpool.txt	LTP079	ltpFR	15	3	-1	PIANO	1057	n/a	n/a	-1	n/a	n/a	n/a	n/a	n/a
441878	REC_WORD	wordpools/wasnorm_wordpool.txt	LTP079	ltpFR	15	3	-1	SNACK	1331	n/a	n/a	-1	n/a	n/a	n/a	n/a	n/a
443546	REC_WORD	wordpools/wasnorm_wordpool.txt	LTP079	ltpFR	15	3	-1	HAM	678	n/a	n/a	-1	n/a	n/a	n/a	n/a	n/a
445073	REC_WORD	wordpools/wasnorm_wordpool.txt	LTP079	ltpFR	15	3	-1	TABLE	1426	n/a	n/a	-1	n/a	n/a	n/a	n/a	n/a
446554	REC_WORD	wordpools/wasnorm_wordpool.txt	LTP079	ltpFR	15	3	-1	GUN	673	n/a	n/a	-1	n/a	n/a	n/a	n/a	n/a
447976	REC_WORD	wordpools/wasnorm_wordpool.txt	LTP079	ltpFR	15	3	-1	BULLET	194	n/a	n/a	-1	n/a	n/a	n/a	n/a	n/a
503319	WORD	wordpools/wasnorm_wordpool.txt	LTP079	ltpFR	15	4	1	GALAXY	617	n/a	n/a	0	0.422607421875	0.5869140625	0	upper	zerothre.ttf
507189	WORD	wordpools/wasnorm_wordpool.txt	LTP079	ltpFR	15	4	1	COMET	353	n/a	n/a	0	0.422607421875	0.5869140625	0	upper	zerothre.ttf
511068	WORD	wordpools/wasnorm_wordpool.txt	LTP079	ltpFR	15	4	1	PIKE	1067	n/a	n/a	0	0.422607421875	0.5869140625	0	upper	zerothre.ttf
514904	WORD	wordpools/wasnorm_wordpool.txt	LTP079	ltpFR	15	4	1	UMPIRE	1535	n/a	n/a	1	0.422607421875	0.5869140625	0	upper	zerothre.ttf
518733	WORD	wordpools/wasnorm_wordpool.txt	LTP079	ltpFR	15	4	1	RAISIN	1163	n/a	n/a	0	0.422607421875	0.5869140625	0	upper	zerothre.ttf
522579	WORD	wordpools/wasnorm_wordpool.txt	LTP079	ltpFR	15	4	1	MISSILE	900	n/a	n/a	0	0.422607421875	0.5869140625	0	upper	zerothre.ttf
526699	WORD	wordpools/wasnorm_wordpool.txt	LTP079	ltpFR	15	4	1	PLANT	1083	n/a	n/a	1	0.422607421875	0.5869140625	0	upper	zerothre.ttf
530528	WORD	wordpools/wasnorm_wordpool.txt	LTP079	ltpFR	15	4	1	NOTEBOOK	959	n/a	n/a	0	0.422607421875	0.5869140625	0	upper	zerothre.ttf
534690	WORD	wordpools/wasnorm_wordpool.txt	LTP079	ltpFR	15	4	1	COLLEGE	346	n/a	n/a	0	0.422607421875	0.5869140625	0	upper	zerothre.ttf
538777	WORD	wordpools/wasnorm_wordpool.txt	LTP079	ltpFR	15	4	1	CLIMBER	323	n/a	n/a	1	0.422607421875	0.5869140625	0	upper	zerothre.ttf
542914	WORD	wordpools/wasnorm_wordpool.txt	LTP079	ltpFR	15	4	1	ANCESTOR	20	n/a	n/a	1	0.422607421875	0.5869140625	0	upper	zerothre.ttf
546950	WORD	wordpools/wasnorm_wordpool.txt	LTP079	ltpFR	15	4	1	BOAT	144	n/a	n/a	0	0.422607421875	0.5869140625	0	upper	zerothre.ttf
551122	WORD	wordpools/wasnorm_wordpool.txt	LTP079	ltpFR	15	4	1	ROCKET	1202	n/a	n/a	0	0.422607421875	0.5869140625	0	upper	zerothre.ttf
555283	WORD	wordpools/wasnorm_wordpool.txt	LTP079	ltpFR	15	4	1	COUSIN	392	n/a	n/a	1	0.422607421875	0.5869140625	0	upper	zerothre.ttf
559387	WORD	wordpools/wasnorm_wordpool.txt	LTP079	ltpFR	15	4	1	IGLOO	734	n/a	n/a	0	0.422607421875	0.5869140625	0	upper	zerothre.ttf
563324	WORD	wordpools/wasnorm_wordpool.txt	LTP079	ltpFR	15	4	1	CACTUS	215	n/a	n/a	1	0.422607421875	0.5869140625	0	upper	zerothre.ttf
569351	REC_START	n/a	LTP079	ltpFR	15	4	n/a	n/a	n/a	n/a	n/a	n/a	n/a	n/a	n/a	n/a	n/a
570593	REC_WORD	wordpools/wasnorm_wordpool.txt	LTP079	ltpFR	15	4	1	CACTUS	215	n/a	n/a	1	n/a	n/a	n/a	n/a	n/a
572299	REC_WORD	wordpools/wasnorm_wordpool.txt	LTP079	ltpFR	15	4	1	IGLOO	734	n/a	n/a	0	n/a	n/a	n/a	n/a	n/a
574190	REC_WORD	wordpools/wasnorm_wordpool.txt	LTP079	ltpFR	15	4	1	COUSIN	392	n/a	n/a	1	n/a	n/a	n/a	n/a	n/a
575906	REC_WORD	wordpools/wasnorm_wordpool.txt	LTP079	ltpFR	15	4	1	ROCKET	1202	n/a	n/a	0	n/a	n/a	n/a	n/a	n/a
577667	REC_WORD	wordpools/wasnorm_wordpool.txt	LTP079	ltpFR	15	4	1	BOAT	144	n/a	n/a	0	n/a	n/a	n/a	n/a	n/a
579288	REC_WORD	wordpools/wasnorm_wordpool.txt	LTP079	ltpFR	15	4	1	ANCESTOR	20	n/a	n/a	1	n/a	n/a	n/a	n/a	n/a
588663	REC_WORD	wordpools/wasnorm_wordpool.txt	LTP079	ltpFR	15	4	1	CLIMBER	323	n/a	n/a	1	n/a	n/a	n/a	n/a	n/a
590578	REC_WORD	wordpools/wasnorm_wordpool.txt	LTP079	ltpFR	15	4	1	COLLEGE	346	n/a	n/a	0	n/a	n/a	n/a	n/a	n/a
592169	REC_WORD	wordpools/wasnorm_wordpool.txt	LTP079	ltpFR	15	4	1	NOTEBOOK	959	n/a	n/a	0	n/a	n/a	n/a	n/a	n/a
593692	REC_WORD	wordpools/wasnorm_wordpool.txt	LTP079	ltpFR	15	4	1	PLANT	1083	n/a	n/a	1	n/a	n/a	n/a	n/a	n/a
595202	REC_WORD	wordpools/wasnorm_wordpool.txt	LTP079	ltpFR	15	4	1	MISSILE	900	n/a	n/a	0	n/a	n/a	n/a	n/a	n/a
600091	REC_WORD	wordpools/wasnorm_wordpool.txt	LTP079	ltpFR	15	4	1	RAISIN	1163	n/a	n/a	0	n/a	n/a	n/a	n/a	n/a
604780	REC_WORD	wordpools/wasnorm_wordpool.txt	LTP079	ltpFR	15	4	1	COMET	353	n/a	n/a	0	n/a	n/a	n/a	n/a	n/a
606262	REC_WORD	wordpools/wasnorm_wordpool.txt	LTP079	ltpFR	15	4	1	GALAXY	617	n/a	n/a	0	n/a	n/a	n/a	n/a	n/a
608163	REC_WORD	wordpools/wasnorm_wordpool.txt	LTP079	ltpFR	15	4	1	PIKE	1067	n/a	n/a	0	n/a	n/a	n/a	n/a	n/a
611515	REC_WORD	wordpools/wasnorm_wordpool.txt	LTP079	ltpFR	15	4	1	UMPIRE	1535	n/a	n/a	1	n/a	n/a	n/a	n/a	n/a
655434	WORD	wordpools/wasnorm_wordpool.txt	LTP079	ltpFR	15	5	1	SCULPTURE	1258	n/a	n/a	0	0.422607421875	0.5869140625	0	upper	zerothre.ttf
659503	WORD	wordpools/wasnorm_wordpool.txt	LTP079	ltpFR	15	5	1	FUNERAL	613	n/a	n/a	0	0.422607421875	0.5869140625	0	upper	zerothre.ttf
663698	WORD	wordpools/wasnorm_wordpool.txt	LTP079	ltpFR	15	5	0	DRIVER	499	n/a	n/a	1	0.57763671875	0.412841796875	1	lower	amplitud.ttf
667810	WORD	wordpools/wasnorm_wordpool.txt	LTP079	ltpFR	15	5	0	DETERGENT	455	n/a	n/a	0	0.57763671875	0.412841796875	1	lower	amplitud.ttf
671722	WORD	wordpools/wasnorm_wordpool.txt	LTP079	ltpFR	15	5	1	CHEDDAR	286	n/a	n/a	0	0.422607421875	0.5869140625	0	upper	zerothre.ttf
675551	WORD	wordpools/wasnorm_wordpool.txt	LTP079	ltpFR	15	5	1	PISTON	1076	n/a	n/a	0	0.422607421875	0.5869140625	0	upper	zerothre.ttf
679415	WORD	wordpools/wasnorm_wordpool.txt	LTP079	ltpFR	15	5	1	SHERIFF	1284	n/a	n/a	1	0.422607421875	0.5869140625	0	upper	zerothre.ttf
683484	WORD	wordpools/wasnorm_wordpool.txt	LTP079	ltpFR	15	5	1	DEPUTY	450	n/a	n/a	1	0.422607421875	0.5869140625	0	upper	zerothre.ttf
687430	WORD	wordpools/wasnorm_wordpool.txt	LTP079	ltpFR	15	5	1	QUEEN	1149	n/a	n/a	1	0.422607421875	0.5869140625	0	upper	zerothre.ttf
691641	WORD	wordpools/wasnorm_wordpool.txt	LTP079	ltpFR	15	5	1	PRINCESS	1125	n/a	n/a	1	0.422607421875	0.5869140625	0	upper	zerothre.ttf
695462	WORD	wordpools/wasnorm_wordpool.txt	LTP079	ltpFR	15	5	0	PORTRAIT	1111	n/a	n/a	0	0.57763671875	0.412841796875	1	lower	amplitud.ttf
699607	WORD	wordpools/wasnorm_wordpool.txt	LTP079	ltpFR	15	5	0	COP	376	n/a	n/a	1	0.57763671875	0.412841796875	1	lower	amplitud.ttf
703444	WORD	wordpools/wasnorm_wordpool.txt	LTP079	ltpFR	15	5	0	COLLAR	345	n/a	n/a	0	0.57763671875	0.412841796875	1	lower	amplitud.ttf
707639	WORD	wordpools/wasnorm_wordpool.txt	LTP079	ltpFR	15	5	0	SALIVA	1226	n/a	n/a	0	0.57763671875	0.412841796875	1	lower	amplitud.ttf
711701	WORD	wordpools/wasnorm_wordpool.txt	LTP079	ltpFR	15	5	0	SOAP	1337	n/a	n/a	0	0.57763671875	0.412841796875	1	lower	amplitud.ttf
715855	WORD	wordpools/wasnorm_wordpool.txt	LTP079	ltpFR	15	5	0	COTTAGE	384	n/a	n/a	1	0.57763671875	0.412841796875	1	lower	amplitud.ttf
721682	REC_START	n/a	LTP079	ltpFR	15	5	n/a	n/a	n/a	n/a	n/a	n/a	n/a	n/a	n/a	n/a	n/a
723014	REC_WORD	wordpools/wasnorm_wordpool.txt	LTP079	ltpFR	15	5	0	COTTAGE	384	n/a	n/a	1	n/a	n/a	n/a	n/a	n/a
724423	REC_WORD	wordpools/wasnorm_wordpool.txt	LTP079	ltpFR	15	5	0	SOAP	1337	n/a	n/a	0	n/a	n/a	n/a	n/a	n/a
725776	REC_WORD	wordpools/wasnorm_wordpool.txt	LTP079	ltpFR	15	5	0	SALIVA	1226	n/a	n/a	0	n/a	n/a	n/a	n/a	n/a
727404	REC_WORD	wordpools/wasnorm_wordpool.txt	LTP079	ltpFR	15	5	0	COLLAR	345	n/a	n/a	0	n/a	n/a	n/a	n/a	n/a
728910	REC_WORD	wordpools/wasnorm_wordpool.txt	LTP079	ltpFR	15	5	0	COP	376	n/a	n/a	1	n/a	n/a	n/a	n/a	n/a
733618	REC_WORD	wordpools/wasnorm_wordpool.txt	LTP079	ltpFR	15	5	0	PORTRAIT	1111	n/a	n/a	0	n/a	n/a	n/a	n/a	n/a
735071	REC_WORD	wordpools/wasnorm_wordpool.txt	LTP079	ltpFR	15	5	1	PRINCESS	1125	n/a	n/a	1	n/a	n/a	n/a	n/a	n/a
736574	REC_WORD	wordpools/wasnorm_wordpool.txt	LTP079	ltpFR	15	5	1	QUEEN	1149	n/a	n/a	1	n/a	n/a	n/a	n/a	n/a
737965	REC_WORD	wordpools/wasnorm_wordpool.txt	LTP079	ltpFR	15	5	1	DEPUTY	450	n/a	n/a	1	n/a	n/a	n/a	n/a	n/a
739237	REC_WORD	wordpools/wasnorm_wordpool.txt	LTP079	ltpFR	15	5	1	SHERIFF	1284	n/a	n/a	1	n/a	n/a	n/a	n/a	n/a
744704	REC_WORD	wordpools/wasnorm_wordpool.txt	LTP079	ltpFR	15	5	1	PISTON	1076	n/a	n/a	0	n/a	n/a	n/a	n/a	n/a
754762	REC_WORD	wordpools/wasnorm_wordpool.txt	LTP079	ltpFR	15	5	1	SHERIFF	1284	n/a	n/a	1	n/a	n/a	n/a	n/a	n/a
802721	WORD	wordpools/wasnorm_wordpool.txt	LTP079	ltpFR	15	6	1	BOOT	150	n/a	n/a	0	0.422607421875	0.5869140625	0	upper	zerothre.ttf
806916	WORD	wordpools/wasnorm_wordpool.txt	LTP079	ltpFR	15	6	1	DOG	480	n/a	n/a	1	0.422607421875	0.5869140625	0	upper	zerothre.ttf
810886	WORD	wordpools/wasnorm_wordpool.txt	LTP079	ltpFR	15	6	1	KIWI	781	n/a	n/a	0	0.422607421875	0.5869140625	0	upper	zerothre.ttf
814832	WORD	wordpools/wasnorm_wordpool.txt	LTP079	ltpFR	15	6	1	BUTCHER	203	n/a	n/a	1	0.422607421875	0.5869140625	0	upper	zerothre.ttf
818877	WORD	wordpools/wasnorm_wordpool.txt	LTP079	ltpFR	15	6	1	CONCRETE	361	n/a	n/a	0	0.422607421875	0.5869140625	0	upper	zerothre.ttf
822955	WORD	wordpools/wasnorm_wordpool.txt	LTP079	ltpFR	15	6	1	LIZARD	834	n/a	n/a	1	0.422607421875	0.5869140625	0	upper	zerothre.ttf
827160	WORD	wordpools/wasnorm_wordpool.txt	LTP079	ltpFR	15	6	1	COOK	372	n/a	n/a	1	0.422607421875	0.5869140625	0	upper	zerothre.ttf
830988	WORD	wordpools/wasnorm_wordpool.txt	LTP079	ltpFR	15	6	1	ANKLE	24	n/a	n/a	0	0.422607421875	0.5869140625	0	upper	zerothre.ttf
834892	WORD	wordpools/wasnorm_wordpool.txt	LTP079	ltpFR	15	6	1	PLUM	1090	n/a	n/a	0	0.422607421875	0.5869140625	0	upper	zerothre.ttf
838795	WORD	wordpools/wasnorm_wordpool.txt	LTP079	ltpFR	15	6	1	KEEPER	769	n/a	n/a	1	0.422607421875	0.5869140625	0	upper	zerothre.ttf
842699	WORD	wordpools/wasnorm_wordpool.txt	LTP079	ltpFR	15	6	1	GUARDIAN	668	n/a	n/a	1	0.422607421875	0.5869140625	0	upper	zerothre.ttf
846570	WORD	wordpools/wasnorm_wordpool.txt	LTP079	ltpFR	15	6	1	NECKLACE	940	n/a	n/a	0	0.422607421875	0.5869140625	0	upper	zerothre.ttf
850623	WORD	wordpools/wasnorm_wordpool.txt	LTP079	ltpFR	15	6	1	FEATHER	557	n/a	n/a	0	0.422607421875	0.5869140625	0	upper	zerothre.ttf
854794	WORD	wordpools/wasnorm_wordpool.txt	LTP079	ltpFR	15	6	1	DOVE	491	n/a	n/a	1	0.422607421875	0.5869140625	0	upper	zerothre.ttf
858622	WORD	wordpools/wasnorm_wordpool.txt	LTP079	ltpFR	15	6	1	PELICAN	1039	n/a	n/a	1	0.422607421875	0.5869140625	0	upper	zerothre.ttf
862551	WORD	wordpools/wasnorm_wordpool.txt	LTP079	ltpFR	15	6	1	SUPPER	1411	n/a	n/a	0	0.422607421875	0.5869140625	0	upper	zerothre.ttf
868470	REC_START	n/a	LTP079	ltpFR	15	6	n/a	n/a	n/a	n/a	n/a	n/a	n/a	n/a	n/a	n/a	n/a
869866	REC_WORD	wordpools/wasnorm_wordpool.txt	LTP079	ltpFR	15	6	1	SUPPER	1411	n/a	n/a	0	n/a	n/a	n/a	n/a	n/a
871323	REC_WORD	wordpools/wasnorm_wordpool.txt	LTP079	ltpFR	15	6	1	PELICAN	1039	n/a	n/a	1	n/a	n/a	n/a	n/a	n/a
872815	REC_WORD	wordpools/wasnorm_wordpool.txt	LTP079	ltpFR	15	6	1	DOVE	491	n/a	n/a	1	n/a	n/a	n/a	n/a	n/a
873993	REC_WORD	wordpools/wasnorm_wordpool.txt	LTP079	ltpFR	15	6	1	FEATHER	557	n/a	n/a	0	n/a	n/a	n/a	n/a	n/a
875444	REC_WORD	wordpools/wasnorm_wordpool.txt	LTP079	ltpFR	15	6	1	NECKLACE	940	n/a	n/a	0	n/a	n/a	n/a	n/a	n/a
876841	REC_WORD	wordpools/wasnorm_wordpool.txt	LTP079	ltpFR	15	6	1	GUARDIAN	668	n/a	n/a	1	n/a	n/a	n/a	n/a	n/a
878228	REC_WORD	wordpools/wasnorm_wordpool.txt	LTP079	ltpFR	15	6	1	KEEPER	769	n/a	n/a	1	n/a	n/a	n/a	n/a	n/a
879510	REC_WORD	wordpools/wasnorm_wordpool.txt	LTP079	ltpFR	15	6	n/a	PLUMBER	1091	n/a	n/a	n/a	n/a	n/a	n/a	n/a	n/a
881011	REC_WORD	wordpools/wasnorm_wordpool.txt	LTP079	ltpFR	15	6	1	ANKLE	24	n/a	n/a	0	n/a	n/a	n/a	n/a	n/a
884279	REC_WORD	wordpools/wasnorm_wordpool.txt	LTP079	ltpFR	15	6	1	BUTCHER	203	n/a	n/a	1	n/a	n/a	n/a	n/a	n/a
885721	REC_WORD	wordpools/wasnorm_wordpool.txt	LTP079	ltpFR	15	6	1	KIWI	781	n/a	n/a	0	n/a	n/a	n/a	n/a	n/a
887581	REC_WORD	wordpools/wasnorm_wordpool.txt	LTP079	ltpFR	15	6	1	DOG	480	n/a	n/a	1	n/a	n/a	n/a	n/a	n/a
890255	REC_WORD	wordpools/wasnorm_wordpool.txt	LTP079	ltpFR	15	6	1	CONCRETE	361	n/a	n/a	0	n/a	n/a	n/a	n/a	n/a
891827	REC_WORD	wordpools/wasnorm_wordpool.txt	LTP079	ltpFR	15	6	1	LIZARD	834	n/a	n/a	1	n/a	n/a	n/a	n/a	n/a
898507	REC_WORD	wordpools/wasnorm_wordpool.txt	LTP079	ltpFR	15	6	1	BOOT	150	n/a	n/a	0	n/a	n/a	n/a	n/a	n/a
908580	REC_WORD	wordpools/wasnorm_wordpool.txt	LTP079	ltpFR	15	6	1	LIZARD	834	n/a	n/a	1	n/a	n/a	n/a	n/a	n/a
948676	WORD	wordpools/wasnorm_wordpool.txt	LTP079	ltpFR	15	7	-1	COACH	331	n/a	n/a	-1	1.0	1.0	1	upper	Verdana.ttf
952738	WORD	wordpools/wasnorm_wordpool.txt	LTP079	ltpFR	15	7	-1	LEMON	810	n/a	n/a	-1	1.0	1.0	1	upper	Verdana.ttf
956784	WORD	wordpools/wasnorm_wordpool.txt	LTP079	ltpFR	15	7	-1	HIGHWAY	707	n/a	n/a	-1	1.0	1.0	1	upper	Verdana.ttf
960762	WORD	wordpools/wasnorm_wordpool.txt	LTP079	ltpFR	15	7	-1	FRIES	607	n/a	n/a	-1	1.0	1.0	1	upper	Verdana.ttf
964758	WORD	wordpools/wasnorm_wordpool.txt	LTP079	ltpFR	15	7	-1	CUSTARD	429	n/a	n/a	-1	1.0	1.0	1	upper	Verdana.ttf
968703	WORD	wordpools/wasnorm_wordpool.txt	LTP079	ltpFR	15	7	-1	CAPITAL	238	n/a	n/a	-1	1.0	1.0	1	upper	Verdana.ttf
972682	WORD	wordpools/wasnorm_wordpool.txt	LTP079	ltpFR	15	7	-1	SAND	1230	n/a	n/a	-1	1.0	1.0	1	upper	Verdana.ttf
976802	WORD	wordpools/wasnorm_wordpool.txt	LTP079	ltpFR	15	7	-1	BANDIT	81	n/a	n/a	-1	1.0	1.0	1	upper	Verdana.ttf
980739	WORD	wordpools/wasnorm_wordpool.txt	LTP079	ltpFR	15	7	-1	FUGITIVE	612	n/a	n/a	-1	1.0	1.0	1	upper	Verdana.ttf
984743	WORD	wordpools/wasnorm_wordpool.txt	LTP079	ltpFR	15	7	-1	VAN	1548	n/a	n/a	-1	1.0	1.0	1	upper	Verdana.ttf
988563	WORD	wordpools/wasnorm_wordpool.txt	LTP079	ltpFR	15	7	-1	CHEERLEADER	288	n/a	n/a	-1	1.0	1.0	1	upper	Verdana.ttf
992377	WORD	wordpools/wasnorm_wordpool.txt	LTP079	ltpFR	15	7	-1	NECK	939	n/a	n/a	-1	1.0	1.0	1	upper	Verdana.ttf
996280	WORD	wordpools/wasnorm_wordpool.txt	LTP079	ltpFR	15	7	-1	PERCH	1048	n/a	n/a	-1	1.0	1.0	1	upper	Verdana.ttf
1000193	WORD	wordpools/wasnorm_wordpool.txt	LTP079	ltpFR	15	7	-1	CANARY	227	n/a	n/a	-1	1.0	1.0	1	upper	Verdana.ttf
1004196	WORD	wordpools/wasnorm_wordpool.txt	LTP079	ltpFR	15	7	-1	LIME	823	n/a	n/a	-1	1.0	1.0	1	upper	Verdana.ttf
1008400	WORD	wordpools/wasnorm_wordpool.txt	LTP079	ltpFR	15	7	-1	WICK	1607	n/a	n/a	-1	1.0	1.0	1	upper	Verdana.ttf
1014385	REC_START	n/a	LTP079	ltpFR	15	7	n/a	n/a	n/a	n/a	n/a	n/a	n/a	n/a	n/a	n/a	n/a
1015577	REC_WORD	wordpools/wasnorm_wordpool.txt	LTP079	ltpFR	15	7	-1	WICK	1607	n/a	n/a	-1	n/a	n/a	n/a	n/a	n/a
1017295	REC_WORD	wordpools/wasnorm_wordpool.txt	LTP079	ltpFR	15	7	-1	LIME	823	n/a	n/a	-1	n/a	n/a	n/a	n/a	n/a
1018500	REC_WORD_VV	wordpools/wasnorm_wordpool.txt	LTP079	ltpFR	15	7	n/a	<>	-1	n/a	n/a	n/a	n/a	n/a	n/a	n/a	n/a
1023045	REC_WORD	wordpools/wasnorm_wordpool.txt	LTP079	ltpFR	15	7	-1	COACH	331	n/a	n/a	-1	n/a	n/a	n/a	n/a	n/a
1025579	REC_WORD	wordpools/wasnorm_wordpool.txt	LTP079	ltpFR	15	7	-1	LEMON	810	n/a	n/a	-1	n/a	n/a	n/a	n/a	n/a
1042436	REC_WORD	wordpools/wasnorm_wordpool.txt	LTP079	ltpFR	15	7	-1	LEMON	810	n/a	n/a	-1	n/a	n/a	n/a	n/a	n/a
1074698	REC_WORD	wordpools/wasnorm_wordpool.txt	LTP079	ltpFR	15	7	-1	LIME	823	n/a	n/a	-1	n/a	n/a	n/a	n/a	n/a
1092609	WORD	wordpools/wasnorm_wordpool.txt	LTP079	ltpFR	15	8	0	WINE	1613	n/a	n/a	0	0.57763671875	0.412841796875	1	lower	amplitud.ttf
1096638	WORD	wordpools/wasnorm_wordpool.txt	LTP079	ltpFR	15	8	0	COFFIN	342	n/a	n/a	1	0.57763671875	0.412841796875	1	lower	amplitud.ttf
1100625	WORD	wordpools/wasnorm_wordpool.txt	LTP079	ltpFR	15	8	1	DUCK	504	n/a	n/a	1	0.422607421875	0.5869140625	0	upper	zerothre.ttf
1104779	WORD	wordpools/wasnorm_wordpool.txt	LTP079	ltpFR	15	8	1	EUROPE	541	n/a	n/a	0	0.422607421875	0.5869140625	0	upper	zerothre.ttf
1108940	WORD	wordpools/wasnorm_wordpool.txt	LTP079	ltpFR	15	8	1	POSTAGE	1113	n/a	n/a	0	0.422607421875	0.5869140625	0	upper	zerothre.ttf
1112794	WORD	wordpools/wasnorm_wordpool.txt	LTP079	ltpFR	15	8	1	TWIG	1527	n/a	n/a	0	0.422607421875	0.5869140625	0	upper	zerothre.ttf
1116815	WORD	wordpools/wasnorm_wordpool.txt	LTP079	ltpFR	15	8	0	CAGE	218	n/a	n/a	1	0.57763671875	0.412841796875	1	lower	amplitud.ttf
1120677	WORD	wordpools/wasnorm_wordpool.txt	LTP079	ltpFR	15	8	0	ANTEATER	26	n/a	n/a	1	0.57763671875	0.412841796875	1	lower	amplitud.ttf
1124839	WORD	wordpools/wasnorm_wordpool.txt	LTP079	ltpFR	15	8	0	DIME	466	n/a	n/a	0	0.57763671875	0.412841796875	1	lower	amplitud.ttf
1128834	WORD	wordpools/wasnorm_wordpool.txt	LTP079	ltpFR	15	8	0	CEMETERY	269	n/a	n/a	1	0.57763671875	0.412841796875	1	lower	amplitud.ttf
1133005	WORD	wordpools/wasnorm_wordpool.txt	LTP079	ltpFR	15	8	1	PALM	1007	n/a	n/a	0	0.422607421875	0.5869140625	0	upper	zerothre.ttf
1136891	WORD	wordpools/wasnorm_wordpool.txt	LTP079	ltpFR	15	8	1	SAUCER	1237	n/a	n/a	0	0.422607421875	0.5869140625	0	upper	zerothre.ttf
1140887	WORD	wordpools/wasnorm_wordpool.txt	LTP079	ltpFR	15	8	1	CUP	424	n/a	n/a	0	0.422607421875	0.5869140625	0	upper	zerothre.ttf
1144799	WORD	wordpools/wasnorm_wordpool.txt	LTP079	ltpFR	15	8	1	MAN	862	n/a	n/a	1	0.422607421875	0.5869140625	0	upper	zerothre.ttf
1148653	WORD	wordpools/wasnorm_wordpool.txt	LTP079	ltpFR	15	8	0	MAILMAN	858	n/a	n/a	1	0.57763671875	0.412841796875	1	lower	amplitud.ttf
1152606	WORD	wordpools/wasnorm_wordpool.txt	LTP079	ltpFR	15	8	0	SPARROW	1347	n/a	n/a	1	0.57763671875	0.412841796875	1	lower	amplitud.ttf
1158667	REC_START	n/a	LTP079	ltpFR	15	8	n/a	n/a	n/a	n/a	n/a	n/a	n/a	n/a	n/a	n/a	n/a
1159991	REC_WORD	wordpools/wasnorm_wordpool.txt	LTP079	ltpFR	15	8	0	SPARROW	1347	n/a	n/a	1	n/a	n/a	n/a	n/a	n/a
1161685	REC_WORD	wordpools/wasnorm_wordpool.txt	LTP079	ltpFR	15	8	0	MAILMAN	858	n/a	n/a	1	n/a	n/a	n/a	n/a	n/a
1164464	REC_WORD	wordpools/wasnorm_wordpool.txt	LTP079	ltpFR	15	8	1	MAN	862	n/a	n/a	1	n/a	n/a	n/a	n/a	n/a
1166125	REC_WORD_VV	wordpools/wasnorm_wordpool.txt	LTP079	ltpFR	15	8	n/a	<>	-1	n/a	n/a	n/a	n/a	n/a	n/a	n/a	n/a
1167392	REC_WORD	wordpools/wasnorm_wordpool.txt	LTP079	ltpFR	15	8	1	CUP	424	n/a	n/a	0	n/a	n/a	n/a	n/a	n/a
1168507	REC_WORD	wordpools/wasnorm_wordpool.txt	LTP079	ltpFR	15	8	1	SAUCER	1237	n/a	n/a	0	n/a	n/a	n/a	n/a	n/a
1172211	REC_WORD	wordpools/wasnorm_wordpool.txt	LTP079	ltpFR	15	8	0	COFFIN	342	n/a	n/a	1	n/a	n/a	n/a	n/a	n/a
1173174	REC_WORD	wordpools/wasnorm_wordpool.txt	LTP079	ltpFR	15	8	0	WINE	1613	n/a	n/a	0	n/a	n/a	n/a	n/a	n/a
1174641	REC_WORD	wordpools/wasnorm_wordpool.txt	LTP079	ltpFR	15	8	1	DUCK	504	n/a	n/a	1	n/a	n/a	n/a	n/a	n/a
1175778	REC_WORD	wordpools/wasnorm_wordpool.txt	LTP079	ltpFR	15	8	1	EUROPE	541	n/a	n/a	0	n/a	n/a	n/a	n/a	n/a
1185845	REC_WORD	wordpools/wasnorm_wordpool.txt	LTP079	ltpFR	15	8	1	PALM	1007	n/a	n/a	0	n/a	n/a	n/a	n/a	n/a
1192439	REC_WORD	wordpools/wasnorm_wordpool.txt	LTP079	ltpFR	15	8	1	SAUCER	1237	n/a	n/a	0	n/a	n/a	n/a	n/a	n/a
1202577	REC_WORD	wordpools/wasnorm_wordpool.txt	LTP079	ltpFR	15	8	1	POSTAGE	1113	n/a	n/a	0	n/a	n/a	n/a	n/a	n/a
1204066	REC_WORD	wordpools/wasnorm_wordpool.txt	LTP079	ltpFR	15	8	1	TWIG	1527	n/a	n/a	0	n/a	n/a	n/a	n/a	n/a
1205570	REC_WORD	wordpools/wasnorm_wordpool.txt	LTP079	ltpFR	15	8	0	CAGE	218	n/a	n/a	1	n/a	n/a	n/a	n/a	n/a
1207032	REC_WORD	wordpools/wasnorm_wordpool.txt	LTP079	ltpFR	15	8	0	ANTEATER	26	n/a	n/a	1	n/a	n/a	n/a	n/a	n/a
1208349	REC_WORD_VV	wordpools/wasnorm_wordpool.txt	LTP079	ltpFR	15	8	n/a	<>	-1	n/a	n/a	n/a	n/a	n/a	n/a	n/a	n/a
1239547	WORD	wordpools/wasnorm_wordpool.txt	LTP079	ltpFR	15	9	1	GOAT	644	n/a	n/a	1	0.422607421875	0.5869140625	0	upper	zerothre.ttf
1243543	WORD	wordpools/wasnorm_wordpool.txt	LTP079	ltpFR	15	9	1	SAP	1233	n/a	n/a	0	0.422607421875	0.5869140625	0	upper	zerothre.ttf
1247546	WORD	wordpools/wasnorm_wordpool.txt	LTP079	ltpFR	15	9	1	SWING	1421	n/a	n/a	0	0.422607421875	0.5869140625	0	upper	zerothre.ttf
1251592	WORD	wordpools/wasnorm_wordpool.txt	LTP079	ltpFR	15	9	1	TICK	1463	n/a	n/a	1	0.422607421875	0.5869140625	0	upper	zerothre.ttf
1255654	WORD	wordpools/wasnorm_wordpool.txt	LTP079	ltpFR	15	9	1	ROBOT	1200	n/a	n/a	0	0.422607421875	0.5869140625	0	upper	zerothre.ttf
1259682	WORD	wordpools/wasnorm_wordpool.txt	LTP079	ltpFR	15	9	1	CRITIC	410	n/a	n/a	1	0.422607421875	0.5869140625	0	upper	zerothre.ttf
1263495	WORD	wordpools/wasnorm_wordpool.txt	LTP079	ltpFR	15	9	1	DRUM	502	n/a	n/a	0	0.422607421875	0.5869140625	0	upper	zerothre.ttf
1267349	WORD	wordpools/wasnorm_wordpool.txt	LTP079	ltpFR	15	9	1	MOSQUITO	917	n/a	n/a	1	0.422607421875	0.5869140625	0	upper	zerothre.ttf
1271245	WORD	wordpools/wasnorm_wordpool.txt	LTP079	ltpFR	15	9	1	TERMITE	1451	n/a	n/a	1	0.422607421875	0.5869140625	0	upper	zerothre.ttf
1275398	WORD	wordpools/wasnorm_wordpool.txt	LTP079	ltpFR	15	9	1	CHIPMUNK	304	n/a	n/a	1	0.422607421875	0.5869140625	0	upper	zerothre.ttf
1279385	WORD	wordpools/wasnorm_wordpool.txt	LTP079	ltpFR	15	9	1	HARP	689	n/a	n/a	0	0.422607421875	0.5869140625	0	upper	zerothre.ttf
1283256	WORD	wordpools/wasnorm_wordpool.txt	LTP079	ltpFR	15	9	1	MARROW	872	n/a	n/a	0	0.422607421875	0.5869140625	0	upper	zerothre.ttf
1287160	WORD	wordpools/wasnorm_wordpool.txt	LTP079	ltpFR	15	9	1	BOWL	158	n/a	n/a	0	0.422607421875	0.5869140625	0	upper	zerothre.ttf
1291122	WORD	wordpools/wasnorm_wordpool.txt	LTP079	ltpFR	15	9	1	KETTLE	772	n/a	n/a	0	0.422607421875	0.5869140625	0	upper	zerothre.ttf
1295284	WORD	wordpools/wasnorm_wordpool.txt	LTP079	ltpFR	15	9	1	GAZELLE	628	n/a	n/a	1	0.422607421875	0.5869140625	0	upper	zerothre.ttf
1299494	WORD	wordpools/wasnorm_wordpool.txt	LTP079	ltpFR	15	9	1	BEEF	113	n/a	n/a	0	0.422607421875	0.5869140625	0	upper	zerothre.ttf
1305447	REC_START	n/a	LTP079	ltpFR	15	9	n/a	n/a	n/a	n/a	n/a	n/a	n/a	n/a	n/a	n/a	n/a
1306584	REC_WORD	wordpools/wasnorm_wordpool.txt	LTP079	ltpFR	15	9	1	BEEF	113	n/a	n/a	0	n/a	n/a	n/a	n/a	n/a
1307819	REC_WORD	wordpools/wasnorm_wordpool.txt	LTP079	ltpFR	15	9	1	GAZELLE	628	n/a	n/a	1	n/a	n/a	n/a	n/a	n/a
1309413	REC_WORD	wordpools/wasnorm_wordpool.txt	LTP079	ltpFR	15	9	1	KETTLE	772	n/a	n/a	0	n/a	n/a	n/a	n/a	n/a
1313830	REC_WORD	wordpools/wasnorm_wordpool.txt	LTP079	ltpFR	15	9	n/a	SACK	1220	n/a	n/a	n/a	n/a	n/a	n/a	n/a	n/a
1315956	REC_WORD	wordpools/wasnorm_wordpool.txt	LTP079	ltpFR	15	9	1	SWING	1421	n/a	n/a	0	n/a	n/a	n/a	n/a	n/a
1320034	REC_WORD	wordpools/wasnorm_wordpool.txt	LTP079	ltpFR	15	9	n/a	TREE	1502	n/a	n/a	n/a	n/a	n/a	n/a	n/a	n/a
1323921	REC_WORD	wordpools/wasnorm_wordpool.txt	LTP079	ltpFR	15	9	1	ROBOT	1200	n/a	n/a	0	n/a	n/a	n/a	n/a	n/a
1326304	REC_WORD	wordpools/wasnorm_wordpool.txt	LTP079	ltpFR	15	9	1	TICK	1463	n/a	n/a	1	n/a	n/a	n/a	n/a	n/a
1330331	REC_WORD	wordpools/wasnorm_wordpool.txt	LTP079	ltpFR	15	9	1	MOSQUITO	917	n/a	n/a	1	n/a	n/a	n/a	n/a	n/a
1332346	REC_WORD	wordpools/wasnorm_wordpool.txt	LTP079	ltpFR	15	9	1	TERMITE	1451	n/a	n/a	1	n/a	n/a	n/a	n/a	n/a
1333892	REC_WORD	wordpools/wasnorm_wordpool.txt	LTP079	ltpFR	15	9	1	CHIPMUNK	304	n/a	n/a	1	n/a	n/a	n/a	n/a	n/a
1335723	REC_WORD	wordpools/wasnorm_wordpool.txt	LTP079	ltpFR	15	9	1	HARP	689	n/a	n/a	0	n/a	n/a	n/a	n/a	n/a
1394402	WORD	wordpools/wasnorm_wordpool.txt	LTP079	ltpFR	15	10	0	BLADE	134	n/a	n/a	0	0.57763671875	0.412841796875	1	lower	amplitud.ttf
1398306	WORD	wordpools/wasnorm_wordpool.txt	LTP079	ltpFR	15	10	0	GRASS	655	n/a	n/a	0	0.57763671875	0.412841796875	1	lower	amplitud.ttf
1402243	WORD	wordpools/wasnorm_wordpool.txt	LTP079	ltpFR	15	10	0	KEY	773	n/a	n/a	0	0.57763671875	0.412841796875	1	lower	amplitud.ttf
1406363	WORD	wordpools/wasnorm_wordpool.txt	LTP079	ltpFR	15	10	0	CELLAR	267	n/a	n/a	1	0.57763671875	0.412841796875	1	lower	amplitud.ttf
1410267	WORD	wordpools/wasnorm_wordpool.txt	LTP079	ltpFR	15	10	0	POOL	1103	n/a	n/a	1	0.57763671875	0.412841796875	1	lower	amplitud.ttf
1414129	WORD	wordpools/wasnorm_wordpool.txt	LTP079	ltpFR	15	10	0	BRIEFCASE	175	n/a	n/a	0	0.57763671875	0.412841796875	1	lower	amplitud.ttf
1418183	WORD	wordpools/wasnorm_wordpool.txt	LTP079	ltpFR	15	10	0	BULL	193	n/a	n/a	1	0.57763671875	0.412841796875	1	lower	amplitud.ttf
1422378	WORD	wordpools/wasnorm_wordpool.txt	LTP079	ltpFR	15	10	0	COWBOY	395	n/a	n/a	1	0.57763671875	0.412841796875	1	lower	amplitud.ttf
1426348	WORD	wordpools/wasnorm_wordpool.txt	LTP079	ltpFR	15	10	0	BATH	98	n/a	n/a	0	0.57763671875	0.412841796875	1	lower	amplitud.ttf
1430394	WORD	wordpools/wasnorm_wordpool.txt	LTP079	ltpFR	15	10	0	INTESTINE	742	n/a	n/a	0	0.57763671875	0.412841796875	1	lower	amplitud.ttf
1434314	WORD	wordpools/wasnorm_wordpool.txt	LTP079	ltpFR	15	10	0	REFRIGERATOR	1179	n/a	n/a	1	0.57763671875	0.412841796875	1	lower	amplitud.ttf
1438334	WORD	wordpools/wasnorm_wordpool.txt	LTP079	ltpFR	15	10	0	MAILBOX	857	n/a	n/a	0	0.57763671875	0.412841796875	1	lower	amplitud.ttf
1442163	WORD	wordpools/wasnorm_wordpool.txt	LTP079	ltpFR	15	10	0	ENVELOPE	537	n/a	n/a	0	0.57763671875	0.412841796875	1	lower	amplitud.ttf
1446159	WORD	wordpools/wasnorm_wordpool.txt	LTP079	ltpFR	15	10	0	WATERFALL	1595	n/a	n/a	1	0.57763671875	0.412841796875	1	lower	amplitud.ttf
1450121	WORD	wordpools/wasnorm_wordpool.txt	LTP079	ltpFR	15	10	0	LAWN	805	n/a	n/a	1	0.57763671875	0.412841796875	1	lower	amplitud.ttf
1454316	WORD	wordpools/wasnorm_wordpool.txt	LTP079	ltpFR	15	10	0	BUGGY	188	n/a	n/a	1	0.57763671875	0.412841796875	1	lower	amplitud.ttf
1459984	REC_START	n/a	LTP079	ltpFR	15	10	n/a	n/a	n/a	n/a	n/a	n/a	n/a	n/a	n/a	n/a	n/a
1460872	REC_WORD	wordpools/wasnorm_wordpool.txt	LTP079	ltpFR	15	10	0	BUGGY	188	n/a	n/a	1	n/a	n/a	n/a	n/a	n/a
1461964	REC_WORD	wordpools/wasnorm_wordpool.txt	LTP079	ltpFR	15	10	0	LAWN	805	n/a	n/a	1	n/a	n/a	n/a	n/a	n/a
1463531	REC_WORD	wordpools/wasnorm_wordpool.txt	LTP079	ltpFR	15	10	0	WATERFALL	1595	n/a	n/a	1	n/a	n/a	n/a	n/a	n/a
1465072	REC_WORD	wordpools/wasnorm_wordpool.txt	LTP079	ltpFR	15	10	0	ENVELOPE	537	n/a	n/a	0	n/a	n/a	n/a	n/a	n/a
1466449	REC_WORD	wordpools/wasnorm_wordpool.txt	LTP079	ltpFR	15	10	0	MAILBOX	857	n/a	n/a	0	n/a	n/a	n/a	n/a	n/a
1467851	REC_WORD	wordpools/wasnorm_wordpool.txt	LTP079	ltpFR	15	10	0	REFRIGERATOR	1179	n/a	n/a	1	n/a	n/a	n/a	n/a	n/a
1469507	REC_WORD	wordpools/wasnorm_wordpool.txt	LTP079	ltpFR	15	10	0	INTESTINE	742	n/a	n/a	0	n/a	n/a	n/a	n/a	n/a
1471607	REC_WORD	wordpools/wasnorm_wordpool.txt	LTP079	ltpFR	15	10	0	BLADE	134	n/a	n/a	0	n/a	n/a	n/a	n/a	n/a
1473039	REC_WORD	wordpools/wasnorm_wordpool.txt	LTP079	ltpFR	15	10	0	GRASS	655	n/a	n/a	0	n/a	n/a	n/a	n/a	n/a
1474521	REC_WORD	wordpools/wasnorm_wordpool.txt	LTP079	ltpFR	15	10	0	KEY	773	n/a	n/a	0	n/a	n/a	n/a	n/a	n/a
1475793	REC_WORD	wordpools/wasnorm_wordpool.txt	LTP079	ltpFR	15	10	0	CELLAR	267	n/a	n/a	1	n/a	n/a	n/a	n/a	n/a
1477389	REC_WORD	wordpools/wasnorm_wordpool.txt	LTP079	ltpFR	15	10	0	POOL	1103	n/a	n/a	1	n/a	n/a	n/a	n/a	n/a
1478806	REC_WORD	wordpools/wasnorm_wordpool.txt	LTP079	ltpFR	15	10	0	BRIEFCASE	175	n/a	n/a	0	n/a	n/a	n/a	n/a	n/a
1480811	REC_WORD	wordpools/wasnorm_wordpool.txt	LTP079	ltpFR	15	10	0	BULL	193	n/a	n/a	1	n/a	n/a	n/a	n/a	n/a
1482288	REC_WORD	wordpools/wasnorm_wordpool.txt	LTP079	ltpFR	15	10	0	COWBOY	395	n/a	n/a	1	n/a	n/a	n/a	n/a	n/a
1541215	WORD	wordpools/wasnorm_wordpool.txt	LTP079	ltpFR	15	11	0	CRAYON	401	n/a	n/a	0	0.57763671875	0.412841796875	1	lower	amplitud.ttf
1545119	WORD	wordpools/wasnorm_wordpool.txt	LTP079	ltpFR	15	11	0	VEIN	1554	n/a	n/a	0	0.57763671875	0.412841796875	1	lower	amplitud.ttf
1548997	WORD	wordpools/wasnorm_wordpool.txt	LTP079	ltpFR	15	11	0	SWEATER	1419	n/a	n/a	1	0.57763671875	0.412841796875	1	lower	amplitud.ttf
1552926	WORD	wordpools/wasnorm_wordpool.txt	LTP079	ltpFR	15	11	0	SHEEP	1278	n/a	n/a	1	0.57763671875	0.412841796875	1	lower	amplitud.ttf
1557138	WORD	wordpools/wasnorm_wordpool.txt	LTP079	ltpFR	15	11	0	JEEP	753	n/a	n/a	1	0.57763671875	0.412841796875	1	lower	amplitud.ttf
1560975	WORD	wordpools/wasnorm_wordpool.txt	LTP079	ltpFR	15	11	0	RICE	1190	n/a	n/a	0	0.57763671875	0.412841796875	1	lower	amplitud.ttf
1565087	WORD	wordpools/wasnorm_wordpool.txt	LTP079	ltpFR	15	11	0	TORCH	1484	n/a	n/a	0	0.57763671875	0.412841796875	1	lower	amplitud.ttf
1569033	WORD	wordpools/wasnorm_wordpool.txt	LTP079	ltpFR	15	11	0	VENT	1556	n/a	n/a	1	0.57763671875	0.412841796875	1	lower	amplitud.ttf
1573062	WORD	wordpools/wasnorm_wordpool.txt	LTP079	ltpFR	15	11	0	BALLOON	75	n/a	n/a	0	0.57763671875	0.412841796875	1	lower	amplitud.ttf
1576964	WORD	wordpools/wasnorm_wordpool.txt	LTP079	ltpFR	15	11	0	SUBWAY	1400	n/a	n/a	1	0.57763671875	0.412841796875	1	lower	amplitud.ttf
1580852	WORD	wordpools/wasnorm_wordpool.txt	LTP079	ltpFR	15	11	0	FLORIDA	582	n/a	n/a	1	0.57763671875	0.412841796875	1	lower	amplitud.ttf
1584797	WORD	wordpools/wasnorm_wordpool.txt	LTP079	ltpFR	15	11	0	VEGETABLE	1552	n/a	n/a	0	0.57763671875	0.412841796875	1	lower	amplitud.ttf
1588659	WORD	wordpools/wasnorm_wordpool.txt	LTP079	ltpFR	15	11	0	BOULDER	155	n/a	n/a	1	0.57763671875	0.412841796875	1	lower	amplitud.ttf
1592763	WORD	wordpools/wasnorm_wordpool.txt	LTP079	ltpFR	15	11	0	SPAGHETTI	1346	n/a	n/a	0	0.57763671875	0.412841796875	1	lower	amplitud.ttf
1596733	WORD	wordpools/wasnorm_wordpool.txt	LTP079	ltpFR	15	11	0	TRUCK	1512	n/a	n/a	1	0.57763671875	0.412841796875	1	lower	amplitud.ttf
1600728	WORD	wordpools/wasnorm_wordpool.txt	LTP079	ltpFR	15	11	0	KIDNEY	776	n/a	n/a	0	0.57763671875	0.412841796875	1	lower	amplitud.ttf
1606597	REC_START	n/a	LTP079	ltpFR	15	11	n/a	n/a	n/a	n/a	n/a	n/a	n/a	n/a	n/a	n/a	n/a
1607679	REC_WORD	wordpools/wasnorm_wordpool.txt	LTP079	ltpFR	15	11	0	KIDNEY	776	n/a	n/a	0	n/a	n/a	n/a	n/a	n/a
1609241	REC_WORD	wordpools/wasnorm_wordpool.txt	LTP079	ltpFR	15	11	0	TRUCK	1512	n/a	n/a	1	n/a	n/a	n/a	n/a	n/a
1611548	REC_WORD	wordpools/wasnorm_wordpool.txt	LTP079	ltpFR	15	11	0	SPAGHETTI	1346	n/a	n/a	0	n/a	n/a	n/a	n/a	n/a
1613072	REC_WORD	wordpools/wasnorm_wordpool.txt	LTP079	ltpFR	15	11	0	BOULDER	155	n/a	n/a	1	n/a	n/a	n/a	n/a	n/a
1621047	REC_WORD	wordpools/wasnorm_wordpool.txt	LTP079	ltpFR	15	11	0	CRAYON	401	n/a	n/a	0	n/a	n/a	n/a	n/a	n/a
1623290	REC_WORD	wordpools/wasnorm_wordpool.txt	LTP079	ltpFR	15	11	0	VEIN	1554	n/a	n/a	0	n/a	n/a	n/a	n/a	n/a
1625937	REC_WORD	wordpools/wasnorm_wordpool.txt	LTP079	ltpFR	15	11	0	SWEATER	1419	n/a	n/a	1	n/a	n/a	n/a	n/a	n/a
1627419	REC_WORD	wordpools/wasnorm_wordpool.txt	LTP079	ltpFR	15	11	0	SHEEP	1278	n/a	n/a	1	n/a	n/a	n/a	n/a	n/a
1628876	REC_WORD	wordpools/wasnorm_wordpool.txt	LTP079	ltpFR	15	11	0	JEEP	753	n/a	n/a	1	n/a	n/a	n/a	n/a	n/a
1630338	REC_WORD	wordpools/wasnorm_wordpool.txt	LTP079	ltpFR	15	11	0	RICE	1190	n/a	n/a	0	n/a	n/a	n/a	n/a	n/a
1631959	REC_WORD	wordpools/wasnorm_wordpool.txt	LTP079	ltpFR	15	11	0	TORCH	1484	n/a	n/a	0	n/a	n/a	n/a	n/a	n/a
1652769	REC_WORD	wordpools/wasnorm_wordpool.txt	LTP079	ltpFR	15	11	0	FLORIDA	582	n/a	n/a	1	n/a	n/a	n/a	n/a	n/a
1654519	REC_WORD	wordpools/wasnorm_wordpool.txt	LTP079	ltpFR	15	11	0	SUBWAY	1400	n/a	n/a	1	n/a	n/a	n/a	n/a	n/a
1676722	REC_WORD	wordpools/wasnorm_wordpool.txt	LTP079	ltpFR	15	11	0	FLORIDA	582	n/a	n/a	1	n/a	n/a	n/a	n/a	n/a
1684748	WORD	wordpools/wasnorm_wordpool.txt	LTP079	ltpFR	15	12	-1	ELM	527	n/a	n/a	-1	1.0	1.0	1	upper	Verdana.ttf
1688951	WORD	wordpools/wasnorm_wordpool.txt	LTP079	ltpFR	15	12	-1	SCREW	1254	n/a	n/a	-1	1.0	1.0	1	upper	Verdana.ttf
1692897	WORD	wordpools/wasnorm_wordpool.txt	LTP079	ltpFR	15	12	-1	TERRITORY	1452	n/a	n/a	-1	1.0	1.0	1	upper	Verdana.ttf
1696834	WORD	wordpools/wasnorm_wordpool.txt	LTP079	ltpFR	15	12	-1	LANDSCAPE	799	n/a	n/a	-1	1.0	1.0	1	upper	Verdana.ttf
1700921	WORD	wordpools/wasnorm_wordpool.txt	LTP079	ltpFR	15	12	-1	ORGAN	984	n/a	n/a	-1	1.0	1.0	1	upper	Verdana.ttf
1704883	WORD	wordpools/wasnorm_wordpool.txt	LTP079	ltpFR	15	12	-1	XEROX	1628	n/a	n/a	-1	1.0	1.0	1	upper	Verdana.ttf
1708811	WORD	wordpools/wasnorm_wordpool.txt	LTP079	ltpFR	15	12	-1	VELVET	1555	n/a	n/a	-1	1.0	1.0	1	upper	Verdana.ttf
1712807	WORD	wordpools/wasnorm_wordpool.txt	LTP079	ltpFR	15	12	-1	CASTLE	256	n/a	n/a	-1	1.0	1.0	1	upper	Verdana.ttf
1716985	WORD	wordpools/wasnorm_wordpool.txt	LTP079	ltpFR	15	12	-1	PALACE	1006	n/a	n/a	-1	1.0	1.0	1	upper	Verdana.ttf
1720848	WORD	wordpools/wasnorm_wordpool.txt	LTP079	ltpFR	15	12	-1	SUBURB	1399	n/a	n/a	-1	1.0	1.0	1	upper	Verdana.ttf
1724901	WORD	wordpools/wasnorm_wordpool.txt	LTP079	ltpFR	15	12	-1	ORCHESTRA	981	n/a	n/a	-1	1.0	1.0	1	upper	Verdana.ttf
1729031	WORD	wordpools/wasnorm_wordpool.txt	LTP079	ltpFR	15	12	-1	DUNGEON	507	n/a	n/a	-1	1.0	1.0	1	upper	Verdana.ttf
1732883	WORD	wordpools/wasnorm_wordpool.txt	LTP079	ltpFR	15	12	-1	BLUEPRINT	142	n/a	n/a	-1	1.0	1.0	1	upper	Verdana.ttf
1736837	WORD	wordpools/wasnorm_wordpool.txt	LTP079	ltpFR	15	12	-1	FRANCE	601	n/a	n/a	-1	1.0	1.0	1	upper	Verdana.ttf
1740774	WORD	wordpools/wasnorm_wordpool.txt	LTP079	ltpFR	15	12	-1	PLASTER	1085	n/a	n/a	-1	1.0	1.0	1	upper	Verdana.ttf
1744978	WORD	wordpools/wasnorm_wordpool.txt	LTP079	ltpFR	15	12	-1	COPIER	377	n/a	n/a	-1	1.0	1.0	1	upper	Verdana.ttf
1750988	REC_START	n/a	LTP079	ltpFR	15	12	n/a	n/a	n/a	n/a	n/a	n/a	n/a	n/a	n/a	n/a	n/a
1751706	REC_WORD	wordpools/wasnorm_wordpool.txt	LTP079	ltpFR	15	12	-1	COPIER	377	n/a	n/a	-1	n/a	n/a	n/a	n/a	n/a
1753287	REC_WORD	wordpools/wasnorm_wordpool.txt	LTP079	ltpFR	15	12	-1	PLASTER	1085	n/a	n/a	-1	n/a	n/a	n/a	n/a	n/a
1755051	REC_WORD	wordpools/wasnorm_wordpool.txt	LTP079	ltpFR	15	12	-1	FRANCE	601	n/a	n/a	-1	n/a	n/a	n/a	n/a	n/a
1756954	REC_WORD	wordpools/wasnorm_wordpool.txt	LTP079	ltpFR	15	12	-1	ELM	527	n/a	n/a	-1	n/a	n/a	n/a	n/a	n/a
1758336	REC_WORD	wordpools/wasnorm_wordpool.txt	LTP079	ltpFR	15	12	-1	SCREW	1254	n/a	n/a	-1	n/a	n/a	n/a	n/a	n/a
1760027	REC_WORD	wordpools/wasnorm_wordpool.txt	LTP079	ltpFR	15	12	-1	TERRITORY	1452	n/a	n/a	-1	n/a	n/a	n/a	n/a	n/a
1761683	REC_WORD	wordpools/wasnorm_wordpool.txt	LTP079	ltpFR	15	12	-1	LANDSCAPE	799	n/a	n/a	-1	n/a	n/a	n/a	n/a	n/a
1763430	REC_WORD	wordpools/wasnorm_wordpool.txt	LTP079	ltpFR	15	12	-1	ORGAN	984	n/a	n/a	-1	n/a	n/a	n/a	n/a	n/a
1791801	REC_WORD	wordpools/wasnorm_wordpool.txt	LTP079	ltpFR	15	12	-1	XEROX	1628	n/a	n/a	-1	n/a	n/a	n/a	n/a	n/a
1794289	REC_WORD	wordpools/wasnorm_wordpool.txt	LTP079	ltpFR	15	12	-1	COPIER	377	n/a	n/a	-1	n/a	n/a	n/a	n/a	n/a
1802745	REC_WORD	wordpools/wasnorm_wordpool.txt	LTP079	ltpFR	15	12	-1	BLUEPRINT	142	n/a	n/a	-1	n/a	n/a	n/a	n/a	n/a
1805564	REC_WORD	wordpools/wasnorm_wordpool.txt	LTP079	ltpFR	15	12	-1	DUNGEON	507	n/a	n/a	-1	n/a	n/a	n/a	n/a	n/a
1806916	REC_WORD	wordpools/wasnorm_wordpool.txt	LTP079	ltpFR	15	12	-1	ORCHESTRA	981	n/a	n/a	-1	n/a	n/a	n/a	n/a	n/a
1808572	REC_WORD	wordpools/wasnorm_wordpool.txt	LTP079	ltpFR	15	12	-1	SUBURB	1399	n/a	n/a	-1	n/a	n/a	n/a	n/a	n/a
1812688	REC_WORD	wordpools/wasnorm_wordpool.txt	LTP079	ltpFR	15	12	-1	CASTLE	256	n/a	n/a	-1	n/a	n/a	n/a	n/a	n/a
1813935	REC_WORD	wordpools/wasnorm_wordpool.txt	LTP079	ltpFR	15	12	-1	PALACE	1006	n/a	n/a	-1	n/a	n/a	n/a	n/a	n/a
1826592	REST_REWET	n/a	LTP079	ltpFR	15	12	n/a	n/a	n/a	n/a	n/a	n/a	n/a	n/a	n/a	n/a	n/a
2195555	WORD	wordpools/wasnorm_wordpool.txt	LTP079	ltpFR	15	13	1	TURKEY	1520	n/a	n/a	1	0.422607421875	0.5869140625	0	upper	zerothre.ttf
2199742	WORD	wordpools/wasnorm_wordpool.txt	LTP079	ltpFR	15	13	1	ASHTRAY	45	n/a	n/a	0	0.422607421875	0.5869140625	0	upper	zerothre.ttf
2203571	WORD	wordpools/wasnorm_wordpool.txt	LTP079	ltpFR	15	13	0	SILK	1307	n/a	n/a	0	0.57763671875	0.412841796875	1	lower	amplitud.ttf
2207675	WORD	wordpools/wasnorm_wordpool.txt	LTP079	ltpFR	15	13	0	MICROWAVE	892	n/a	n/a	1	0.57763671875	0.412841796875	1	lower	amplitud.ttf
2211495	WORD	wordpools/wasnorm_wordpool.txt	LTP079	ltpFR	15	13	0	COW	393	n/a	n/a	1	0.57763671875	0.412841796875	1	lower	amplitud.ttf
2215640	WORD	wordpools/wasnorm_wordpool.txt	LTP079	ltpFR	15	13	0	TRAITOR	1495	n/a	n/a	1	0.57763671875	0.412841796875	1	lower	amplitud.ttf
2219627	WORD	wordpools/wasnorm_wordpool.txt	LTP079	ltpFR	15	13	1	INMATE	738	n/a	n/a	1	0.422607421875	0.5869140625	0	upper	zerothre.ttf
2223614	WORD	wordpools/wasnorm_wordpool.txt	LTP079	ltpFR	15	13	1	SUSPECT	1415	n/a	n/a	1	0.422607421875	0.5869140625	0	upper	zerothre.ttf
2227785	WORD	wordpools/wasnorm_wordpool.txt	LTP079	ltpFR	15	13	1	GAVEL	627	n/a	n/a	0	0.422607421875	0.5869140625	0	upper	zerothre.ttf
2231614	WORD	wordpools/wasnorm_wordpool.txt	LTP079	ltpFR	15	13	1	TIE	1466	n/a	n/a	0	0.422607421875	0.5869140625	0	upper	zerothre.ttf
2235476	WORD	wordpools/wasnorm_wordpool.txt	LTP079	ltpFR	15	13	0	LINEN	825	n/a	n/a	0	0.57763671875	0.412841796875	1	lower	amplitud.ttf
2239638	WORD	wordpools/wasnorm_wordpool.txt	LTP079	ltpFR	15	13	0	DIAPER	459	n/a	n/a	0	0.57763671875	0.412841796875	1	lower	amplitud.ttf
2243833	WORD	wordpools/wasnorm_wordpool.txt	LTP079	ltpFR	15	13	0	RATTLE	1170	n/a	n/a	0	0.57763671875	0.412841796875	1	lower	amplitud.ttf
2247961	WORD	wordpools/wasnorm_wordpool.txt	LTP079	ltpFR	15	13	0	AGENT	10	n/a	n/a	1	0.57763671875	0.412841796875	1	lower	amplitud.ttf
2251990	WORD	wordpools/wasnorm_wordpool.txt	LTP079	ltpFR	15	13	1	KNUCKLE	789	n/a	n/a	0	0.422607421875	0.5869140625	0	upper	zerothre.ttf
2255860	WORD	wordpools/wasnorm_wordpool.txt	LTP079	ltpFR	15	13	1	FOOT	590	n/a	n/a	0	0.422607421875	0.5869140625	0	upper	zerothre.ttf
2261754	REC_START	n/a	LTP079	ltpFR	15	13	n/a	n/a	n/a	n/a	n/a	n/a	n/a	n/a	n/a	n/a	n/a
2262946	REC_WORD	wordpools/wasnorm_wordpool.txt	LTP079	ltpFR	15	13	1	FOOT	590	n/a	n/a	0	n/a	n/a	n/a	n/a	n/a
2264198	REC_WORD	wordpools/wasnorm_wordpool.txt	LTP079	ltpFR	15	13	1	KNUCKLE	789	n/a	n/a	0	n/a	n/a	n/a	n/a	n/a
2265849	REC_WORD	wordpools/wasnorm_wordpool.txt	LTP079	ltpFR	15	13	0	AGENT	10	n/a	n/a	1	n/a	n/a	n/a	n/a	n/a
2269067	REC_WORD	wordpools/wasnorm_wordpool.txt	LTP079	ltpFR	15	13	0	TRAITOR	1495	n/a	n/a	1	n/a	n/a	n/a	n/a	n/a
2270599	REC_WORD	wordpools/wasnorm_wordpool.txt	LTP079	ltpFR	15	13	0	COW	393	n/a	n/a	1	n/a	n/a	n/a	n/a	n/a
2271926	REC_WORD	wordpools/wasnorm_wordpool.txt	LTP079	ltpFR	15	13	0	MICROWAVE	892	n/a	n/a	1	n/a	n/a	n/a	n/a	n/a
2273223	REC_WORD	wordpools/wasnorm_wordpool.txt	LTP079	ltpFR	15	13	0	SILK	1307	n/a	n/a	0	n/a	n/a	n/a	n/a	n/a
2274575	REC_WORD	wordpools/wasnorm_wordpool.txt	LTP079	ltpFR	15	13	1	ASHTRAY	45	n/a	n/a	0	n/a	n/a	n/a	n/a	n/a
2276046	REC_WORD	wordpools/wasnorm_wordpool.txt	LTP079	ltpFR	15	13	1	TURKEY	1520	n/a	n/a	1	n/a	n/a	n/a	n/a	n/a
2278346	REC_WORD	wordpools/wasnorm_wordpool.txt	LTP079	ltpFR	15	13	0	COW	393	n/a	n/a	1	n/a	n/a	n/a	n/a	n/a
2281589	REC_WORD	wordpools/wasnorm_wordpool.txt	LTP079	ltpFR	15	13	0	TRAITOR	1495	n/a	n/a	1	n/a	n/a	n/a	n/a	n/a
2282728	REC_WORD	wordpools/wasnorm_wordpool.txt	LTP079	ltpFR	15	13	1	SUSPECT	1415	n/a	n/a	1	n/a	n/a	n/a	n/a	n/a
2283983	REC_WORD	wordpools/wasnorm_wordpool.txt	LTP079	ltpFR	15	13	1	INMATE	738	n/a	n/a	1	n/a	n/a	n/a	n/a	n/a
2285021	REC_WORD	wordpools/wasnorm_wordpool.txt	LTP079	ltpFR	15	13	1	GAVEL	627	n/a	n/a	0	n/a	n/a	n/a	n/a	n/a
2286358	REC_WORD	wordpools/wasnorm_wordpool.txt	LTP079	ltpFR	15	13	1	TIE	1466	n/a	n/a	0	n/a	n/a	n/a	n/a	n/a
2288478	REC_WORD	wordpools/wasnorm_wordpool.txt	LTP079	ltpFR	15	13	n/a	JUDGE	761	n/a	n/a	n/a	n/a	n/a	n/a	n/a	n/a
2299807	REC_WORD	wordpools/wasnorm_wordpool.txt	LTP079	ltpFR	15	13	0	LINEN	825	n/a	n/a	0	n/a	n/a	n/a	n/a	n/a
2303329	REC_WORD	wordpools/wasnorm_wordpool.txt	LTP079	ltpFR	15	13	0	DIAPER	459	n/a	n/a	0	n/a	n/a	n/a	n/a	n/a
2339721	WORD	wordpools/wasnorm_wordpool.txt	LTP079	ltpFR	15	14	-1	EXPERT	543	n/a	n/a	-1	1.0	1.0	1	upper	Verdana.ttf
2343592	WORD	wordpools/wasnorm_wordpool.txt	LTP079	ltpFR	15	14	-1	TROMBONE	1508	n/a	n/a	-1	1.0	1.0	1	upper	Verdana.ttf
2347579	WORD	wordpools/wasnorm_wordpool.txt	LTP079	ltpFR	15	14	-1	TRAY	1498	n/a	n/a	-1	1.0	1.0	1	upper	Verdana.ttf
2351491	WORD	wordpools/wasnorm_wordpool.txt	LTP079	ltpFR	15	14	-1	PARSLEY	1016	n/a	n/a	-1	1.0	1.0	1	upper	Verdana.ttf
2355620	WORD	wordpools/wasnorm_wordpool.txt	LTP079	ltpFR	15	14	-1	PRIEST	1122	n/a	n/a	-1	1.0	1.0	1	upper	Verdana.ttf
2359773	WORD	wordpools/wasnorm_wordpool.txt	LTP079	ltpFR	15	14	-1	CHURCH	307	n/a	n/a	-1	1.0	1.0	1	upper	Verdana.ttf
2363610	WORD	wordpools/wasnorm_wordpool.txt	LTP079	ltpFR	15	14	-1	HAMBURGER	679	n/a	n/a	-1	1.0	1.0	1	upper	Verdana.ttf
2367789	WORD	wordpools/wasnorm_wordpool.txt	LTP079	ltpFR	15	14	-1	CANAL	226	n/a	n/a	-1	1.0	1.0	1	upper	Verdana.ttf
2371942	WORD	wordpools/wasnorm_wordpool.txt	LTP079	ltpFR	15	14	-1	DECK	443	n/a	n/a	-1	1.0	1.0	1	upper	Verdana.ttf
2376014	WORD	wordpools/wasnorm_wordpool.txt	LTP079	ltpFR	15	14	-1	FIG	563	n/a	n/a	-1	1.0	1.0	1	upper	Verdana.ttf
2380067	WORD	wordpools/wasnorm_wordpool.txt	LTP079	ltpFR	15	14	-1	BOX	159	n/a	n/a	-1	1.0	1.0	1	upper	Verdana.ttf
2383995	WORD	wordpools/wasnorm_wordpool.txt	LTP079	ltpFR	15	14	-1	MUSEUM	933	n/a	n/a	-1	1.0	1.0	1	upper	Verdana.ttf
2387990	WORD	wordpools/wasnorm_wordpool.txt	LTP079	ltpFR	15	14	-1	BARLEY	88	n/a	n/a	-1	1.0	1.0	1	upper	Verdana.ttf
2392178	WORD	wordpools/wasnorm_wordpool.txt	LTP079	ltpFR	15	14	-1	KEYBOARD	774	n/a	n/a	-1	1.0	1.0	1	upper	Verdana.ttf
2396190	WORD	wordpools/wasnorm_wordpool.txt	LTP079	ltpFR	15	14	-1	FOREHEAD	592	n/a	n/a	-1	1.0	1.0	1	upper	Verdana.ttf
2400011	WORD	wordpools/wasnorm_wordpool.txt	LTP079	ltpFR	15	14	-1	MUSTARD	935	n/a	n/a	-1	1.0	1.0	1	upper	Verdana.ttf
2405637	REC_START	n/a	LTP079	ltpFR	15	14	n/a	n/a	n/a	n/a	n/a	n/a	n/a	n/a	n/a	n/a	n/a
2406570	REC_WORD	wordpools/wasnorm_wordpool.txt	LTP079	ltpFR	15	14	-1	MUSTARD	935	n/a	n/a	-1	n/a	n/a	n/a	n/a	n/a
2407873	REC_WORD	wordpools/wasnorm_wordpool.txt	LTP079	ltpFR	15	14	-1	FOREHEAD	592	n/a	n/a	-1	n/a	n/a	n/a	n/a	n/a
2409408	REC_WORD	wordpools/wasnorm_wordpool.txt	LTP079	ltpFR	15	14	-1	KEYBOARD	774	n/a	n/a	-1	n/a	n/a	n/a	n/a	n/a
2410705	REC_WORD	wordpools/wasnorm_wordpool.txt	LTP079	ltpFR	15	14	-1	BARLEY	88	n/a	n/a	-1	n/a	n/a	n/a	n/a	n/a
2411977	REC_WORD	wordpools/wasnorm_wordpool.txt	LTP079	ltpFR	15	14	-1	MUSEUM	933	n/a	n/a	-1	n/a	n/a	n/a	n/a	n/a
2413509	REC_WORD	wordpools/wasnorm_wordpool.txt	LTP079	ltpFR	15	14	-1	BOX	159	n/a	n/a	-1	n/a	n/a	n/a	n/a	n/a
2414656	REC_WORD	wordpools/wasnorm_wordpool.txt	LTP079	ltpFR	15	14	-1	FIG	563	n/a	n/a	-1	n/a	n/a	n/a	n/a	n/a
2415993	REC_WORD	wordpools/wasnorm_wordpool.txt	LTP079	ltpFR	15	14	-1	DECK	443	n/a	n/a	-1	n/a	n/a	n/a	n/a	n/a
2417031	REC_WORD	wordpools/wasnorm_wordpool.txt	LTP079	ltpFR	15	14	-1	CANAL	226	n/a	n/a	-1	n/a	n/a	n/a	n/a	n/a
2423795	REC_WORD	wordpools/wasnorm_wordpool.txt	LTP079	ltpFR	15	14	-1	HAMBURGER	679	n/a	n/a	-1	n/a	n/a	n/a	n/a	n/a
2425487	REC_WORD	wordpools/wasnorm_wordpool.txt	LTP079	ltpFR	15	14	-1	CHURCH	307	n/a	n/a	-1	n/a	n/a	n/a	n/a	n/a
2426744	REC_WORD	wordpools/wasnorm_wordpool.txt	LTP079	ltpFR	15	14	-1	PRIEST	1122	n/a	n/a	-1	n/a	n/a	n/a	n/a	n/a
2427986	REC_WORD	wordpools/wasnorm_wordpool.txt	LTP079	ltpFR	15	14	-1	PARSLEY	1016	n/a	n/a	-1	n/a	n/a	n/a	n/a	n/a
2429283	REC_WORD	wordpools/wasnorm_wordpool.txt	LTP079	ltpFR	15	14	-1	TRAY	1498	n/a	n/a	-1	n/a	n/a	n/a	n/a	n/a
2430600	REC_WORD	wordpools/wasnorm_wordpool.txt	LTP079	ltpFR	15	14	-1	TROMBONE	1508	n/a	n/a	-1	n/a	n/a	n/a	n/a	n/a
2432184	REC_WORD	wordpools/wasnorm_wordpool.txt	LTP079	ltpFR	15	14	-1	EXPERT	543	n/a	n/a	-1	n/a	n/a	n/a	n/a	n/a
2484172	WORD	wordpools/wasnorm_wordpool.txt	LTP079	ltpFR	15	15	0	CONSUMER	365	n/a	n/a	1	0.57763671875	0.412841796875	1	lower	amplitud.ttf
2488350	WORD	wordpools/wasnorm_wordpool.txt	LTP079	ltpFR	15	15	0	TYPEWRITER	1531	n/a	n/a	1	0.57763671875	0.412841796875	1	lower	amplitud.ttf
2492469	WORD	wordpools/wasnorm_wordpool.txt	LTP079	ltpFR	15	15	0	BAG	69	n/a	n/a	0	0.57763671875	0.412841796875	1	lower	amplitud.ttf
2496631	WORD	wordpools/wasnorm_wordpool.txt	LTP079	ltpFR	15	15	0	CAB	209	n/a	n/a	1	0.57763671875	0.412841796875	1	lower	amplitud.ttf
2500552	WORD	wordpools/wasnorm_wordpool.txt	LTP079	ltpFR	15	15	0	RECEIPT	1173	n/a	n/a	0	0.57763671875	0.412841796875	1	lower	amplitud.ttf
2504672	WORD	wordpools/wasnorm_wordpool.txt	LTP079	ltpFR	15	15	1	DANDRUFF	439	n/a	n/a	0	0.422607421875	0.5869140625	0	upper	zerothre.ttf
2508551	WORD	wordpools/wasnorm_wordpool.txt	LTP079	ltpFR	15	15	1	WHEEL	1603	n/a	n/a	0	0.422607421875	0.5869140625	0	upper	zerothre.ttf
2512538	WORD	wordpools/wasnorm_wordpool.txt	LTP079	ltpFR	15	15	1	HOOD	714	n/a	n/a	0	0.422607421875	0.5869140625	0	upper	zerothre.ttf
2516566	WORD	wordpools/wasnorm_wordpool.txt	LTP079	ltpFR	15	15	1	BANKER	84	n/a	n/a	1	0.422607421875	0.5869140625	0	upper	zerothre.ttf
2520537	WORD	wordpools/wasnorm_wordpool.txt	LTP079	ltpFR	15	15	0	CATERPILLAR	259	n/a	n/a	0	0.57763671875	0.412841796875	1	lower	amplitud.ttf
2524615	WORD	wordpools/wasnorm_wordpool.txt	LTP079	ltpFR	15	15	0	SPIDER	1351	n/a	n/a	0	0.57763671875	0.412841796875	1	lower	amplitud.ttf
2528429	WORD	wordpools/wasnorm_wordpool.txt	LTP079	ltpFR	15	15	0	CAFETERIA	217	n/a	n/a	1	0.57763671875	0.412841796875	1	lower	amplitud.ttf
2532631	WORD	wordpools/wasnorm_wordpool.txt	LTP079	ltpFR	15	15	1	PEBBLE	1035	n/a	n/a	0	0.422607421875	0.5869140625	0	upper	zerothre.ttf
2536552	WORD	wordpools/wasnorm_wordpool.txt	LTP079	ltpFR	15	15	1	BODY	145	n/a	n/a	0	0.422607421875	0.5869140625	0	upper	zerothre.ttf
2540613	WORD	wordpools/wasnorm_wordpool.txt	LTP079	ltpFR	15	15	1	PASSENGER	1020	n/a	n/a	1	0.422607421875	0.5869140625	0	upper	zerothre.ttf
2544617	WORD	wordpools/wasnorm_wordpool.txt	LTP079	ltpFR	15	15	1	ARM	38	n/a	n/a	0	0.422607421875	0.5869140625	0	upper	zerothre.ttf
2550412	REC_START	n/a	LTP079	ltpFR	15	15	n/a	n/a	n/a	n/a	n/a	n/a	n/a	n/a	n/a	n/a	n/a
2551310	REC_WORD	wordpools/wasnorm_wordpool.txt	LTP079	ltpFR	15	15	1	ARM	38	n/a	n/a	0	n/a	n/a	n/a	n/a	n/a
2552467	REC_WORD	wordpools/wasnorm_wordpool.txt	LTP079	ltpFR	15	15	1	PASSENGER	1020	n/a	n/a	1	n/a	n/a	n/a	n/a	n/a
2553954	REC_WORD	wordpools/wasnorm_wordpool.txt	LTP079	ltpFR	15	15	1	BODY	145	n/a	n/a	0	n/a	n/a	n/a	n/a	n/a
2555151	REC_WORD	wordpools/wasnorm_wordpool.txt	LTP079	ltpFR	15	15	1	PEBBLE	1035	n/a	n/a	0	n/a	n/a	n/a	n/a	n/a
2556292	REC_WORD	wordpools/wasnorm_wordpool.txt	LTP079	ltpFR	15	15	0	CAFETERIA	217	n/a	n/a	1	n/a	n/a	n/a	n/a	n/a
2559260	REC_WORD	wordpools/wasnorm_wordpool.txt	LTP079	ltpFR	15	15	0	SPIDER	1351	n/a	n/a	0	n/a	n/a	n/a	n/a	n/a
2560604	REC_WORD	wordpools/wasnorm_wordpool.txt	LTP079	ltpFR	15	15	0	CATERPILLAR	259	n/a	n/a	0	n/a	n/a	n/a	n/a	n/a
2562090	REC_WORD	wordpools/wasnorm_wordpool.txt	LTP079	ltpFR	15	15	1	BANKER	84	n/a	n/a	1	n/a	n/a	n/a	n/a	n/a
2563396	REC_WORD	wordpools/wasnorm_wordpool.txt	LTP079	ltpFR	15	15	1	HOOD	714	n/a	n/a	0	n/a	n/a	n/a	n/a	n/a
2564679	REC_WORD	wordpools/wasnorm_wordpool.txt	LTP079	ltpFR	15	15	1	WHEEL	1603	n/a	n/a	0	n/a	n/a	n/a	n/a	n/a
2566036	REC_WORD	wordpools/wasnorm_wordpool.txt	LTP079	ltpFR	15	15	1	DANDRUFF	439	n/a	n/a	0	n/a	n/a	n/a	n/a	n/a
2567313	REC_WORD	wordpools/wasnorm_wordpool.txt	LTP079	ltpFR	15	15	0	RECEIPT	1173	n/a	n/a	0	n/a	n/a	n/a	n/a	n/a
2568840	REC_WORD	wordpools/wasnorm_wordpool.txt	LTP079	ltpFR	15	15	0	CAB	209	n/a	n/a	1	n/a	n/a	n/a	n/a	n/a
2574781	REC_WORD	wordpools/wasnorm_wordpool.txt	LTP079	ltpFR	15	15	n/a	CHECK	284	n/a	n/a	n/a	n/a	n/a	n/a	n/a	n/a
2604768	REC_WORD	wordpools/wasnorm_wordpool.txt	LTP079	ltpFR	15	15	0	CAB	209	n/a	n/a	1	n/a	n/a	n/a	n/a	n/a
2628620	WORD	wordpools/wasnorm_wordpool.txt	LTP079	ltpFR	15	16	0	SOFA	1342	n/a	n/a	1	0.57763671875	0.412841796875	1	lower	amplitud.ttf
2632640	WORD	wordpools/wasnorm_wordpool.txt	LTP079	ltpFR	15	16	0	SICKLE	1302	n/a	n/a	0	0.57763671875	0.412841796875	1	lower	amplitud.ttf
2636810	WORD	wordpools/wasnorm_wordpool.txt	LTP079	ltpFR	15	16	0	TACK	1428	n/a	n/a	0	0.57763671875	0.412841796875	1	lower	amplitud.ttf
2640722	WORD	wordpools/wasnorm_wordpool.txt	LTP079	ltpFR	15	16	0	PENNY	1045	n/a	n/a	0	0.57763671875	0.412841796875	1	lower	amplitud.ttf
2644651	WORD	wordpools/wasnorm_wordpool.txt	LTP079	ltpFR	15	16	0	DOLLAR	482	n/a	n/a	0	0.57763671875	0.412841796875	1	lower	amplitud.ttf
2648580	WORD	wordpools/wasnorm_wordpool.txt	LTP079	ltpFR	15	16	0	HEART	697	n/a	n/a	0	0.57763671875	0.412841796875	1	lower	amplitud.ttf
2652700	WORD	wordpools/wasnorm_wordpool.txt	LTP079	ltpFR	15	16	0	DANCER	437	n/a	n/a	1	0.57763671875	0.412841796875	1	lower	amplitud.ttf
2656845	WORD	wordpools/wasnorm_wordpool.txt	LTP079	ltpFR	15	16	0	DENIM	446	n/a	n/a	0	0.57763671875	0.412841796875	1	lower	amplitud.ttf
2661017	WORD	wordpools/wasnorm_wordpool.txt	LTP079	ltpFR	15	16	0	MAGNET	855	n/a	n/a	0	0.57763671875	0.412841796875	1	lower	amplitud.ttf
2664903	WORD	wordpools/wasnorm_wordpool.txt	LTP079	ltpFR	15	16	0	FREEWAY	603	n/a	n/a	1	0.57763671875	0.412841796875	1	lower	amplitud.ttf
2668798	WORD	wordpools/wasnorm_wordpool.txt	LTP079	ltpFR	15	16	0	YARD	1630	n/a	n/a	1	0.57763671875	0.412841796875	1	lower	amplitud.ttf
2672635	WORD	wordpools/wasnorm_wordpool.txt	LTP079	ltpFR	15	16	0	SHED	1277	n/a	n/a	1	0.57763671875	0.412841796875	1	lower	amplitud.ttf
2676731	WORD	wordpools/wasnorm_wordpool.txt	LTP079	ltpFR	15	16	0	FURNITURE	616	n/a	n/a	1	0.57763671875	0.412841796875	1	lower	amplitud.ttf
2680693	WORD	wordpools/wasnorm_wordpool.txt	LTP079	ltpFR	15	16	0	CONCERT	360	n/a	n/a	1	0.57763671875	0.412841796875	1	lower	amplitud.ttf
2684771	WORD	wordpools/wasnorm_wordpool.txt	LTP079	ltpFR	15	16	0	BUTTON	207	n/a	n/a	0	0.57763671875	0.412841796875	1	lower	amplitud.ttf
2688792	WORD	wordpools/wasnorm_wordpool.txt	LTP079	ltpFR	15	16	0	ARTERY	41	n/a	n/a	0	0.57763671875	0.412841796875	1	lower	amplitud.ttf
2694636	REC_START	n/a	LTP079	ltpFR	15	16	n/a	n/a	n/a	n/a	n/a	n/a	n/a	n/a	n/a	n/a	n/a
2695713	REC_WORD	wordpools/wasnorm_wordpool.txt	LTP079	ltpFR	15	16	0	ARTERY	41	n/a	n/a	0	n/a	n/a	n/a	n/a	n/a
2697673	REC_WORD	wordpools/wasnorm_wordpool.txt	LTP079	ltpFR	15	16	0	BUTTON	207	n/a	n/a	0	n/a	n/a	n/a	n/a	n/a
2699225	REC_WORD	wordpools/wasnorm_wordpool.txt	LTP079	ltpFR	15	16	0	CONCERT	360	n/a	n/a	1	n/a	n/a	n/a	n/a	n/a
2701289	REC_WORD	wordpools/wasnorm_wordpool.txt	LTP079	ltpFR	15	16	0	FURNITURE	616	n/a	n/a	1	n/a	n/a	n/a	n/a	n/a
2702742	REC_WORD	wordpools/wasnorm_wordpool.txt	LTP079	ltpFR	15	16	0	SHED	1277	n/a	n/a	1	n/a	n/a	n/a	n/a	n/a
2704259	REC_WORD	wordpools/wasnorm_wordpool.txt	LTP079	ltpFR	15	16	0	YARD	1630	n/a	n/a	1	n/a	n/a	n/a	n/a	n/a
2706227	REC_WORD	wordpools/wasnorm_wordpool.txt	LTP079	ltpFR	15	16	0	FREEWAY	603	n/a	n/a	1	n/a	n/a	n/a	n/a	n/a
2708389	REC_WORD	wordpools/wasnorm_wordpool.txt	LTP079	ltpFR	15	16	-1	HIGHWAY	707	n/a	n/a	-1	n/a	n/a	n/a	n/a	n/a
2727324	REC_WORD	wordpools/wasnorm_wordpool.txt	LTP079	ltpFR	15	16	0	SOFA	1342	n/a	n/a	1	n/a	n/a	n/a	n/a	n/a
2759169	REC_WORD	wordpools/wasnorm_wordpool.txt	LTP079	ltpFR	15	16	0	BAG	69	n/a	n/a	0	n/a	n/a	n/a	n/a	n/a
2762007	REC_WORD	wordpools/wasnorm_wordpool.txt	LTP079	ltpFR	15	16	0	TYPEWRITER	1531	n/a	n/a	1	n/a	n/a	n/a	n/a	n/a
2785988	REC_START	n/a	LTP079	ltpFR	15	1	n/a	n/a	n/a	n/a	n/a	n/a	n/a	n/a	n/a	n/a	n/a
2786022	RECOG_LURE	n/a	LTP079	ltpFR	15	1	n/a	MOOSE	915	0	3	n/a	n/a	n/a	n/a	n/a	n/a
2787395	RECOG_RESP	n/a	LTP079	ltpFR	15	1	n/a	MOOSE	915	0	n/a	n/a	n/a	n/a	n/a	n/a	n/a
2788806	RECOG_CONF	n/a	LTP079	ltpFR	15	1	n/a	MOOSE	915	n/a	3	n/a	n/a	n/a	n/a	n/a	n/a
2790649	RECOG_TARGET	n/a	LTP079	ltpFR	15	1	1	TREASURE	1500	1	4	0	n/a	n/a	n/a	n/a	n/a
2791545	RECOG_RESP	n/a	LTP079	ltpFR	15	1	1	TREASURE	1500	1	n/a	0	n/a	n/a	n/a	n/a	n/a
2792688	RECOG_CONF	n/a	LTP079	ltpFR	15	1	1	TREASURE	1500	n/a	4	0	n/a	n/a	n/a	n/a	n/a
2794404	RECOG_TARGET	n/a	LTP079	ltpFR	15	1	0	VEGETABLE	1552	1	3	0	n/a	n/a	n/a	n/a	n/a
2795791	RECOG_RESP	n/a	LTP079	ltpFR	15	1	0	VEGETABLE	1552	1	n/a	0	n/a	n/a	n/a	n/a	n/a
2797008	RECOG_CONF	n/a	LTP079	ltpFR	15	1	0	VEGETABLE	1552	n/a	3	0	n/a	n/a	n/a	n/a	n/a
2798706	RECOG_LURE	n/a	LTP079	ltpFR	15	1	n/a	PHOTO	1055	0	4	n/a	n/a	n/a	n/a	n/a	n/a
2799497	RECOG_RESP	n/a	LTP079	ltpFR	15	1	n/a	PHOTO	1055	0	n/a	n/a	n/a	n/a	n/a	n/a	n/a
2800759	RECOG_CONF	n/a	LTP079	ltpFR	15	1	n/a	PHOTO	1055	n/a	4	n/a	n/a	n/a	n/a	n/a	n/a
2802369	RECOG_TARGET	n/a	LTP079	ltpFR	15	1	-1	CUSTARD	429	1	4	-1	n/a	n/a	n/a	n/a	n/a
2803024	RECOG_RESP	n/a	LTP079	ltpFR	15	1	-1	CUSTARD	429	1	n/a	-1	n/a	n/a	n/a	n/a	n/a
2804181	RECOG_CONF	n/a	LTP079	ltpFR	15	1	-1	CUSTARD	429	n/a	4	-1	n/a	n/a	n/a	n/a	n/a
2805756	RECOG_TARGET	n/a	LTP079	ltpFR	15	1	1	SAUCER	1237	1	5	0	n/a	n/a	n/a	n/a	n/a
2806471	RECOG_RESP	n/a	LTP079	ltpFR	15	1	1	SAUCER	1237	1	n/a	0	n/a	n/a	n/a	n/a	n/a
2807534	RECOG_CONF	n/a	LTP079	ltpFR	15	1	1	SAUCER	1237	n/a	5	0	n/a	n/a	n/a	n/a	n/a
2809161	RECOG_TARGET	n/a	LTP079	ltpFR	15	1	0	TRENCH	1503	1	4	1	n/a	n/a	n/a	n/a	n/a
2810218	RECOG_RESP	n/a	LTP079	ltpFR	15	1	0	TRENCH	1503	1	n/a	1	n/a	n/a	n/a	n/a	n/a
2811305	RECOG_CONF	n/a	LTP079	ltpFR	15	1	0	TRENCH	1503	n/a	4	1	n/a	n/a	n/a	n/a	n/a
2812914	RECOG_TARGET	n/a	LTP079	ltpFR	15	1	1	ANCESTOR	20	1	5	1	n/a	n/a	n/a	n/a	n/a
2813625	RECOG_RESP	n/a	LTP079	ltpFR	15	1	1	ANCESTOR	20	1	n/a	1	n/a	n/a	n/a	n/a	n/a
2814807	RECOG_CONF	n/a	LTP079	ltpFR	15	1	1	ANCESTOR	20	n/a	5	1	n/a	n/a	n/a	n/a	n/a
2816444	RECOG_TARGET	n/a	LTP079	ltpFR	15	1	-1	BLUEPRINT	142	1	5	-1	n/a	n/a	n/a	n/a	n/a
2817137	RECOG_RESP	n/a	LTP079	ltpFR	15	1	-1	BLUEPRINT	142	1	n/a	-1	n/a	n/a	n/a	n/a	n/a
2818279	RECOG_CONF	n/a	LTP079	ltpFR	15	1	-1	BLUEPRINT	142	n/a	5	-1	n/a	n/a	n/a	n/a	n/a
2820024	RECOG_TARGET	n/a	LTP079	ltpFR	15	1	0	COTTAGE	384	0	4	1	n/a	n/a	n/a	n/a	n/a
2822191	RECOG_RESP	n/a	LTP079	ltpFR	15	1	0	COTTAGE	384	0	n/a	1	n/a	n/a	n/a	n/a	n/a
2823547	RECOG_CONF	n/a	LTP079	ltpFR	15	1	0	COTTAGE	384	n/a	4	1	n/a	n/a	n/a	n/a	n/a
2825218	RECOG_TARGET	n/a	LTP079	ltpFR	15	1	0	BUGGY	188	1	5	1	n/a	n/a	n/a	n/a	n/a
2825982	RECOG_RESP	n/a	LTP079	ltpFR	15	1	0	BUGGY	188	1	n/a	1	n/a	n/a	n/a	n/a	n/a
2827129	RECOG_CONF	n/a	LTP079	ltpFR	15	1	0	BUGGY	188	n/a	5	1	n/a	n/a	n/a	n/a	n/a
2828704	RECOG_TARGET	n/a	LTP079	ltpFR	15	1	0	PRISON	1127	1	4	1	n/a	n/a	n/a	n/a	n/a
2829519	RECOG_RESP	n/a	LTP079	ltpFR	15	1	0	PRISON	1127	1	n/a	1	n/a	n/a	n/a	n/a	n/a
2830601	RECOG_CONF	n/a	LTP079	ltpFR	15	1	0	PRISON	1127	n/a	4	1	n/a	n/a	n/a	n/a	n/a
2832201	RECOG_LURE	n/a	LTP079	ltpFR	15	1	n/a	APRON	35	0	4	n/a	n/a	n/a	n/a	n/a	n/a
2832976	RECOG_RESP	n/a	LTP079	ltpFR	15	1	n/a	APRON	35	0	n/a	n/a	n/a	n/a	n/a	n/a	n/a
2834103	RECOG_CONF	n/a	LTP079	ltpFR	15	1	n/a	APRON	35	n/a	4	n/a	n/a	n/a	n/a	n/a	n/a
2835696	RECOG_LURE	n/a	LTP079	ltpFR	15	1	n/a	LUNCH	849	0	4	n/a	n/a	n/a	n/a	n/a	n/a
2836428	RECOG_RESP	n/a	LTP079	ltpFR	15	1	n/a	LUNCH	849	0	n/a	n/a	n/a	n/a	n/a	n/a	n/a
2837665	RECOG_CONF	n/a	LTP079	ltpFR	15	1	n/a	LUNCH	849	n/a	4	n/a	n/a	n/a	n/a	n/a	n/a
2839235	RECOG_TARGET	n/a	LTP079	ltpFR	15	1	0	CELLAR	267	1	3	1	n/a	n/a	n/a	n/a	n/a
2840589	RECOG_RESP	n/a	LTP079	ltpFR	15	1	0	CELLAR	267	1	n/a	1	n/a	n/a	n/a	n/a	n/a
2841786	RECOG_CONF	n/a	LTP079	ltpFR	15	1	0	CELLAR	267	n/a	3	1	n/a	n/a	n/a	n/a	n/a
2843430	RECOG_TARGET	n/a	LTP079	ltpFR	15	1	0	ANTEATER	26	1	4	1	n/a	n/a	n/a	n/a	n/a
2844225	RECOG_RESP	n/a	LTP079	ltpFR	15	1	0	ANTEATER	26	1	n/a	1	n/a	n/a	n/a	n/a	n/a
2845388	RECOG_CONF	n/a	LTP079	ltpFR	15	1	0	ANTEATER	26	n/a	4	1	n/a	n/a	n/a	n/a	n/a
2847009	RECOG_TARGET	n/a	LTP079	ltpFR	15	1	0	LIMB	822	1	4	0	n/a	n/a	n/a	n/a	n/a
2847752	RECOG_RESP	n/a	LTP079	ltpFR	15	1	0	LIMB	822	1	n/a	0	n/a	n/a	n/a	n/a	n/a
2848900	RECOG_CONF	n/a	LTP079	ltpFR	15	1	0	LIMB	822	n/a	4	0	n/a	n/a	n/a	n/a	n/a
2850512	RECOG_TARGET	n/a	LTP079	ltpFR	15	1	1	MOSQUITO	917	1	4	1	n/a	n/a	n/a	n/a	n/a
2851165	RECOG_RESP	n/a	LTP079	ltpFR	15	1	1	MOSQUITO	917	1	n/a	1	n/a	n/a	n/a	n/a	n/a
2852352	RECOG_CONF	n/a	LTP079	ltpFR	15	1	1	MOSQUITO	917	n/a	4	1	n/a	n/a	n/a	n/a	n/a
2853884	RECOG_LURE	n/a	LTP079	ltpFR	15	1	n/a	FINGER	567	0	3	n/a	n/a	n/a	n/a	n/a	n/a
2854946	RECOG_RESP	n/a	LTP079	ltpFR	15	1	n/a	FINGER	567	0	n/a	n/a	n/a	n/a	n/a	n/a	n/a
2856103	RECOG_CONF	n/a	LTP079	ltpFR	15	1	n/a	FINGER	567	n/a	3	n/a	n/a	n/a	n/a	n/a	n/a
2857837	RECOG_TARGET	n/a	LTP079	ltpFR	15	1	0	MAGNET	855	1	5	0	n/a	n/a	n/a	n/a	n/a
2858463	RECOG_RESP	n/a	LTP079	ltpFR	15	1	0	MAGNET	855	1	n/a	0	n/a	n/a	n/a	n/a	n/a
2859695	RECOG_CONF	n/a	LTP079	ltpFR	15	1	0	MAGNET	855	n/a	5	0	n/a	n/a	n/a	n/a	n/a
2866318	REC_START	n/a	LTP079	ltpFR	15	2	n/a	n/a	n/a	n/a	n/a	n/a	n/a	n/a	n/a	n/a	n/a
2866345	RECOG_TARGET	n/a	LTP079	ltpFR	15	2	1	INMATE	738	1	5	1	n/a	n/a	n/a	n/a	n/a
2867086	RECOG_RESP	n/a	LTP079	ltpFR	15	2	1	INMATE	738	1	n/a	1	n/a	n/a	n/a	n/a	n/a
2868228	RECOG_CONF	n/a	LTP079	ltpFR	15	2	1	INMATE	738	n/a	5	1	n/a	n/a	n/a	n/a	n/a
2869907	RECOG_TARGET	n/a	LTP079	ltpFR	15	2	-1	FRANCE	601	1	5	-1	n/a	n/a	n/a	n/a	n/a
2870533	RECOG_RESP	n/a	LTP079	ltpFR	15	2	-1	FRANCE	601	1	n/a	-1	n/a	n/a	n/a	n/a	n/a
2871641	RECOG_CONF	n/a	LTP079	ltpFR	15	2	-1	FRANCE	601	n/a	5	-1	n/a	n/a	n/a	n/a	n/a
2873245	RECOG_LURE	n/a	LTP079	ltpFR	15	2	n/a	SACK	1220	1	3	n/a	n/a	n/a	n/a	n/a	n/a
2874938	RECOG_RESP	n/a	LTP079	ltpFR	15	2	n/a	SACK	1220	1	n/a	n/a	n/a	n/a	n/a	n/a	n/a
2876101	RECOG_CONF	n/a	LTP079	ltpFR	15	2	n/a	SACK	1220	n/a	3	n/a	n/a	n/a	n/a	n/a	n/a
2877939	RECOG_TARGET	n/a	LTP079	ltpFR	15	2	0	DOLLAR	482	1	4	0	n/a	n/a	n/a	n/a	n/a
2878645	RECOG_RESP	n/a	LTP079	ltpFR	15	2	0	DOLLAR	482	1	n/a	0	n/a	n/a	n/a	n/a	n/a
2879882	RECOG_CONF	n/a	LTP079	ltpFR	15	2	0	DOLLAR	482	n/a	4	0	n/a	n/a	n/a	n/a	n/a
2881502	RECOG_TARGET	n/a	LTP079	ltpFR	15	2	0	CAGE	218	1	5	1	n/a	n/a	n/a	n/a	n/a
2882132	RECOG_RESP	n/a	LTP079	ltpFR	15	2	0	CAGE	218	1	n/a	1	n/a	n/a	n/a	n/a	n/a
2883244	RECOG_CONF	n/a	LTP079	ltpFR	15	2	0	CAGE	218	n/a	5	1	n/a	n/a	n/a	n/a	n/a
2884981	RECOG_LURE	n/a	LTP079	ltpFR	15	2	n/a	ROOT	1210	0	4	n/a	n/a	n/a	n/a	n/a	n/a
2886013	RECOG_RESP	n/a	LTP079	ltpFR	15	2	n/a	ROOT	1210	0	n/a	n/a	n/a	n/a	n/a	n/a	n/a
2887086	RECOG_CONF	n/a	LTP079	ltpFR	15	2	n/a	ROOT	1210	n/a	4	n/a	n/a	n/a	n/a	n/a	n/a
2888901	RECOG_TARGET	n/a	LTP079	ltpFR	15	2	-1	MUSTARD	935	0	4	-1	n/a	n/a	n/a	n/a	n/a
2889819	RECOG_RESP	n/a	LTP079	ltpFR	15	2	-1	MUSTARD	935	0	n/a	-1	n/a	n/a	n/a	n/a	n/a
2891246	RECOG_CONF	n/a	LTP079	ltpFR	15	2	-1	MUSTARD	935	n/a	4	-1	n/a	n/a	n/a	n/a	n/a
2893006	RECOG_TARGET	n/a	LTP079	ltpFR	15	2	0	SOFA	1342	1	5	1	n/a	n/a	n/a	n/a	n/a
2893591	RECOG_RESP	n/a	LTP079	ltpFR	15	2	0	SOFA	1342	1	n/a	1	n/a	n/a	n/a	n/a	n/a
2894778	RECOG_CONF	n/a	LTP079	ltpFR	15	2	0	SOFA	1342	n/a	5	1	n/a	n/a	n/a	n/a	n/a
2896427	RECOG_TARGET	n/a	LTP079	ltpFR	15	2	0	SPIDER	1351	1	5	0	n/a	n/a	n/a	n/a	n/a
2897193	RECOG_RESP	n/a	LTP079	ltpFR	15	2	0	SPIDER	1351	1	n/a	0	n/a	n/a	n/a	n/a	n/a
2898320	RECOG_CONF	n/a	LTP079	ltpFR	15	2	0	SPIDER	1351	n/a	5	0	n/a	n/a	n/a	n/a	n/a
2899997	RECOG_LURE	n/a	LTP079	ltpFR	15	2	n/a	VIOLIN	1571	0	3	n/a	n/a	n/a	n/a	n/a	n/a
2901223	RECOG_RESP	n/a	LTP079	ltpFR	15	2	n/a	VIOLIN	1571	0	n/a	n/a	n/a	n/a	n/a	n/a	n/a
2902451	RECOG_CONF	n/a	LTP079	ltpFR	15	2	n/a	VIOLIN	1571	n/a	3	n/a	n/a	n/a	n/a	n/a	n/a
2904185	RECOG_TARGET	n/a	LTP079	ltpFR	15	2	1	SCULPTURE	1258	1	4	0	n/a	n/a	n/a	n/a	n/a
2904945	RECOG_RESP	n/a	LTP079	ltpFR	15	2	1	SCULPTURE	1258	1	n/a	0	n/a	n/a	n/a	n/a	n/a
2906112	RECOG_CONF	n/a	LTP079	ltpFR	15	2	1	SCULPTURE	1258	n/a	4	0	n/a	n/a	n/a	n/a	n/a
2907779	RECOG_TARGET	n/a	LTP079	ltpFR	15	2	-1	BULLET	194	1	4	-1	n/a	n/a	n/a	n/a	n/a
2908452	RECOG_RESP	n/a	LTP079	ltpFR	15	2	-1	BULLET	194	1	n/a	-1	n/a	n/a	n/a	n/a	n/a
2909584	RECOG_CONF	n/a	LTP079	ltpFR	15	2	-1	BULLET	194	n/a	4	-1	n/a	n/a	n/a	n/a	n/a
2911218	RECOG_TARGET	n/a	LTP079	ltpFR	15	2	0	FLORIDA	582	1	5	1	n/a	n/a	n/a	n/a	n/a
2911814	RECOG_RESP	n/a	LTP079	ltpFR	15	2	0	FLORIDA	582	1	n/a	1	n/a	n/a	n/a	n/a	n/a
2912987	RECOG_CONF	n/a	LTP079	ltpFR	15	2	0	FLORIDA	582	n/a	5	1	n/a	n/a	n/a	n/a	n/a
2914513	RECOG_LURE	n/a	LTP079	ltpFR	15	2	n/a	LITERATURE	831	0	3	n/a	n/a	n/a	n/a	n/a	n/a
2915601	RECOG_RESP	n/a	LTP079	ltpFR	15	2	n/a	LITERATURE	831	0	n/a	n/a	n/a	n/a	n/a	n/a	n/a
2916858	RECOG_CONF	n/a	LTP079	ltpFR	15	2	n/a	LITERATURE	831	n/a	3	n/a	n/a	n/a	n/a	n/a	n/a
2918600	RECOG_LURE	n/a	LTP079	ltpFR	15	2	n/a	OCEAN	970	0	4	n/a	n/a	n/a	n/a	n/a	n/a
2919447	RECOG_RESP	n/a	LTP079	ltpFR	15	2	n/a	OCEAN	970	0	n/a	n/a	n/a	n/a	n/a	n/a	n/a
2920679	RECOG_CONF	n/a	LTP079	ltpFR	15	2	n/a	OCEAN	970	n/a	4	n/a	n/a	n/a	n/a	n/a	n/a
2922314	RECOG_LURE	n/a	LTP079	ltpFR	15	2	n/a	LABYRINTH	791	0	5	n/a	n/a	n/a	n/a	n/a	n/a
2923144	RECOG_RESP	n/a	LTP079	ltpFR	15	2	n/a	LABYRINTH	791	0	n/a	n/a	n/a	n/a	n/a	n/a	n/a
2924421	RECOG_CONF	n/a	LTP079	ltpFR	15	2	n/a	LABYRINTH	791	n/a	5	n/a	n/a	n/a	n/a	n/a	n/a
2926009	RECOG_LURE	n/a	LTP079	ltpFR	15	2	n/a	RECORD	1176	0	4	n/a	n/a	n/a	n/a	n/a	n/a
2926790	RECOG_RESP	n/a	LTP079	ltpFR	15	2	n/a	RECORD	1176	0	n/a	n/a	n/a	n/a	n/a	n/a	n/a
2928003	RECOG_CONF	n/a	LTP079	ltpFR	15	2	n/a	RECORD	1176	n/a	4	n/a	n/a	n/a	n/a	n/a	n/a
2929587	RECOG_TARGET	n/a	LTP079	ltpFR	15	2	-1	ICING	732	1	4	-1	n/a	n/a	n/a	n/a	n/a
2930457	RECOG_RESP	n/a	LTP079	ltpFR	15	2	-1	ICING	732	1	n/a	-1	n/a	n/a	n/a	n/a	n/a
2931644	RECOG_CONF	n/a	LTP079	ltpFR	15	2	-1	ICING	732	n/a	4	-1	n/a	n/a	n/a	n/a	n/a
2933284	RECOG_TARGET	n/a	LTP079	ltpFR	15	2	0	BALLOON	75	1	4	0	n/a	n/a	n/a	n/a	n/a
2934029	RECOG_RESP	n/a	LTP079	ltpFR	15	2	0	BALLOON	75	1	n/a	0	n/a	n/a	n/a	n/a	n/a
2935306	RECOG_CONF	n/a	LTP079	ltpFR	15	2	0	BALLOON	75	n/a	4	0	n/a	n/a	n/a	n/a	n/a
2936846	RECOG_TARGET	n/a	LTP079	ltpFR	15	2	0	BATH	98	1	4	0	n/a	n/a	n/a	n/a	n/a
2937985	RECOG_RESP	n/a	LTP079	ltpFR	15	2	0	BATH	98	1	n/a	0	n/a	n/a	n/a	n/a	n/a
2939207	RECOG_CONF	n/a	LTP079	ltpFR	15	2	0	BATH	98	n/a	4	0	n/a	n/a	n/a	n/a	n/a
2943395	REC_START	n/a	LTP079	ltpFR	15	3	n/a	n/a	n/a	n/a	n/a	n/a	n/a	n/a	n/a	n/a	n/a
2943422	RECOG_LURE	n/a	LTP079	ltpFR	15	3	n/a	TROUT	1511	0	4	n/a	n/a	n/a	n/a	n/a	n/a
2944233	RECOG_RESP	n/a	LTP079	ltpFR	15	3	n/a	TROUT	1511	0	n/a	n/a	n/a	n/a	n/a	n/a	n/a
2945415	RECOG_CONF	n/a	LTP079	ltpFR	15	3	n/a	TROUT	1511	n/a	4	n/a	n/a	n/a	n/a	n/a	n/a
2947110	RECOG_TARGET	n/a	LTP079	ltpFR	15	3	0	CHEMIST	292	1	5	1	n/a	n/a	n/a	n/a	n/a
2947680	RECOG_RESP	n/a	LTP079	ltpFR	15	3	0	CHEMIST	292	1	n/a	1	n/a	n/a	n/a	n/a	n/a
2948778	RECOG_CONF	n/a	LTP079	ltpFR	15	3	0	CHEMIST	292	n/a	5	1	n/a	n/a	n/a	n/a	n/a
2950480	RECOG_LURE	n/a	LTP079	ltpFR	15	3	n/a	SHIRT	1287	0	4	n/a	n/a	n/a	n/a	n/a	n/a
2951232	RECOG_RESP	n/a	LTP079	ltpFR	15	3	n/a	SHIRT	1287	0	n/a	n/a	n/a	n/a	n/a	n/a	n/a
2952280	RECOG_CONF	n/a	LTP079	ltpFR	15	3	n/a	SHIRT	1287	n/a	4	n/a	n/a	n/a	n/a	n/a	n/a
2953959	RECOG_TARGET	n/a	LTP079	ltpFR	15	3	1	DEPUTY	450	1	5	1	n/a	n/a	n/a	n/a	n/a
2954629	RECOG_RESP	n/a	LTP079	ltpFR	15	3	1	DEPUTY	450	1	n/a	1	n/a	n/a	n/a	n/a	n/a
2955782	RECOG_CONF	n/a	LTP079	ltpFR	15	3	1	DEPUTY	450	n/a	5	1	n/a	n/a	n/a	n/a	n/a
2957331	RECOG_LURE	n/a	LTP079	ltpFR	15	3	n/a	EGYPT	519	0	4	n/a	n/a	n/a	n/a	n/a	n/a
2958091	RECOG_RESP	n/a	LTP079	ltpFR	15	3	n/a	EGYPT	519	0	n/a	n/a	n/a	n/a	n/a	n/a	n/a
2959364	RECOG_CONF	n/a	LTP079	ltpFR	15	3	n/a	EGYPT	519	n/a	4	n/a	n/a	n/a	n/a	n/a	n/a
2960959	RECOG_LURE	n/a	LTP079	ltpFR	15	3	n/a	AUDIENCE	59	0	4	n/a	n/a	n/a	n/a	n/a	n/a
2961698	RECOG_RESP	n/a	LTP079	ltpFR	15	3	n/a	AUDIENCE	59	0	n/a	n/a	n/a	n/a	n/a	n/a	n/a
2962766	RECOG_CONF	n/a	LTP079	ltpFR	15	3	n/a	AUDIENCE	59	n/a	4	n/a	n/a	n/a	n/a	n/a	n/a
2964580	RECOG_LURE	n/a	LTP079	ltpFR	15	3	n/a	WAND	1586	0	4	n/a	n/a	n/a	n/a	n/a	n/a
2965170	RECOG_RESP	n/a	LTP079	ltpFR	15	3	n/a	WAND	1586	0	n/a	n/a	n/a	n/a	n/a	n/a	n/a
2966487	RECOG_CONF	n/a	LTP079	ltpFR	15	3	n/a	WAND	1586	n/a	4	n/a	n/a	n/a	n/a	n/a	n/a
2968060	RECOG_TARGET	n/a	LTP079	ltpFR	15	3	0	SPAGHETTI	1346	1	4	0	n/a	n/a	n/a	n/a	n/a
2969066	RECOG_RESP	n/a	LTP079	ltpFR	15	3	0	SPAGHETTI	1346	1	n/a	0	n/a	n/a	n/a	n/a	n/a
2970199	RECOG_CONF	n/a	LTP079	ltpFR	15	3	0	SPAGHETTI	1346	n/a	4	0	n/a	n/a	n/a	n/a	n/a
2971947	RECOG_TARGET	n/a	LTP079	ltpFR	15	3	0	COMMANDER	354	1	4	1	n/a	n/a	n/a	n/a	n/a
2972583	RECOG_RESP	n/a	LTP079	ltpFR	15	3	0	COMMANDER	354	1	n/a	1	n/a	n/a	n/a	n/a	n/a
2973731	RECOG_CONF	n/a	LTP079	ltpFR	15	3	0	COMMANDER	354	n/a	4	1	n/a	n/a	n/a	n/a	n/a
2975344	RECOG_LURE	n/a	LTP079	ltpFR	15	3	n/a	CELLO	268	0	4	n/a	n/a	n/a	n/a	n/a	n/a
2976006	RECOG_RESP	n/a	LTP079	ltpFR	15	3	n/a	CELLO	268	0	n/a	n/a	n/a	n/a	n/a	n/a	n/a
2977223	RECOG_CONF	n/a	LTP079	ltpFR	15	3	n/a	CELLO	268	n/a	4	n/a	n/a	n/a	n/a	n/a	n/a
2978988	RECOG_LURE	n/a	LTP079	ltpFR	15	3	n/a	MAGAZINE	853	0	5	n/a	n/a	n/a	n/a	n/a	n/a
2979642	RECOG_RESP	n/a	LTP079	ltpFR	15	3	n/a	MAGAZINE	853	0	n/a	n/a	n/a	n/a	n/a	n/a	n/a
2980865	RECOG_CONF	n/a	LTP079	ltpFR	15	3	n/a	MAGAZINE	853	n/a	5	n/a	n/a	n/a	n/a	n/a	n/a
2982436	RECOG_TARGET	n/a	LTP079	ltpFR	15	3	0	AGENT	10	1	5	1	n/a	n/a	n/a	n/a	n/a
2983030	RECOG_RESP	n/a	LTP079	ltpFR	15	3	0	AGENT	10	1	n/a	1	n/a	n/a	n/a	n/a	n/a
2984177	RECOG_CONF	n/a	LTP079	ltpFR	15	3	0	AGENT	10	n/a	5	1	n/a	n/a	n/a	n/a	n/a
2985814	RECOG_LURE	n/a	LTP079	ltpFR	15	3	n/a	MAYONNAISE	880	0	4	n/a	n/a	n/a	n/a	n/a	n/a
2986437	RECOG_RESP	n/a	LTP079	ltpFR	15	3	n/a	MAYONNAISE	880	0	n/a	n/a	n/a	n/a	n/a	n/a	n/a
2987619	RECOG_CONF	n/a	LTP079	ltpFR	15	3	n/a	MAYONNAISE	880	n/a	4	n/a	n/a	n/a	n/a	n/a	n/a
2989286	RECOG_TARGET	n/a	LTP079	ltpFR	15	3	-1	CASHIER	254	1	4	-1	n/a	n/a	n/a	n/a	n/a
2990223	RECOG_RESP	n/a	LTP079	ltpFR	15	3	-1	CASHIER	254	1	n/a	-1	n/a	n/a	n/a	n/a	n/a
2991610	RECOG_CONF	n/a	LTP079	ltpFR	15	3	-1	CASHIER	254	n/a	4	-1	n/a	n/a	n/a	n/a	n/a
2993240	RECOG_LURE	n/a	LTP079	ltpFR	15	3	n/a	SHOVEL	1295	0	3	n/a	n/a	n/a	n/a	n/a	n/a
2994464	RECOG_RESP	n/a	LTP079	ltpFR	15	3	n/a	SHOVEL	1295	0	n/a	n/a	n/a	n/a	n/a	n/a	n/a
2995831	RECOG_CONF	n/a	LTP079	ltpFR	15	3	n/a	SHOVEL	1295	n/a	3	n/a	n/a	n/a	n/a	n/a	n/a
2997534	RECOG_TARGET	n/a	LTP079	ltpFR	15	3	1	DIGGER	464	1	5	1	n/a	n/a	n/a	n/a	n/a
2998125	RECOG_RESP	n/a	LTP079	ltpFR	15	3	1	DIGGER	464	1	n/a	1	n/a	n/a	n/a	n/a	n/a
2999502	RECOG_CONF	n/a	LTP079	ltpFR	15	3	1	DIGGER	464	n/a	5	1	n/a	n/a	n/a	n/a	n/a
3001214	RECOG_LURE	n/a	LTP079	ltpFR	15	3	n/a	PLAYGROUND	1087	0	4	n/a	n/a	n/a	n/a	n/a	n/a
3001987	RECOG_RESP	n/a	LTP079	ltpFR	15	3	n/a	PLAYGROUND	1087	0	n/a	n/a	n/a	n/a	n/a	n/a	n/a
3003224	RECOG_CONF	n/a	LTP079	ltpFR	15	3	n/a	PLAYGROUND	1087	n/a	4	n/a	n/a	n/a	n/a	n/a	n/a
3004859	RECOG_TARGET	n/a	LTP079	ltpFR	15	3	-1	CHEERLEADER	288	1	4	-1	n/a	n/a	n/a	n/a	n/a
3005489	RECOG_RESP	n/a	LTP079	ltpFR	15	3	-1	CHEERLEADER	288	1	n/a	-1	n/a	n/a	n/a	n/a	n/a
3006886	RECOG_CONF	n/a	LTP079	ltpFR	15	3	-1	CHEERLEADER	288	n/a	4	-1	n/a	n/a	n/a	n/a	n/a
3008471	RECOG_LURE	n/a	LTP079	ltpFR	15	3	n/a	TRIBE	1505	0	4	n/a	n/a	n/a	n/a	n/a	n/a
3009140	RECOG_RESP	n/a	LTP079	ltpFR	15	3	n/a	TRIBE	1505	0	n/a	n/a	n/a	n/a	n/a	n/a	n/a
3010318	RECOG_CONF	n/a	LTP079	ltpFR	15	3	n/a	TRIBE	1505	n/a	4	n/a	n/a	n/a	n/a	n/a	n/a
3012026	RECOG_TARGET	n/a	LTP079	ltpFR	15	3	1	PLANT	1083	1	4	1	n/a	n/a	n/a	n/a	n/a
3012737	RECOG_RESP	n/a	LTP079	ltpFR	15	3	1	PLANT	1083	1	n/a	1	n/a	n/a	n/a	n/a	n/a
3013979	RECOG_CONF	n/a	LTP079	ltpFR	15	3	1	PLANT	1083	n/a	4	1	n/a	n/a	n/a	n/a	n/a
3017967	REC_START	n/a	LTP079	ltpFR	15	4	n/a	n/a	n/a	n/a	n/a	n/a	n/a	n/a	n/a	n/a	n/a
3017993	RECOG_LURE	n/a	LTP079	ltpFR	15	4	n/a	ROOM	1206	0	4	n/a	n/a	n/a	n/a	n/a	n/a
3018720	RECOG_RESP	n/a	LTP079	ltpFR	15	4	n/a	ROOM	1206	0	n/a	n/a	n/a	n/a	n/a	n/a	n/a
3020007	RECOG_CONF	n/a	LTP079	ltpFR	15	4	n/a	ROOM	1206	n/a	4	n/a	n/a	n/a	n/a	n/a	n/a
3021631	RECOG_TARGET	n/a	LTP079	ltpFR	15	4	1	GENTLEMAN	631	1	5	1	n/a	n/a	n/a	n/a	n/a
3022292	RECOG_RESP	n/a	LTP079	ltpFR	15	4	1	GENTLEMAN	631	1	n/a	1	n/a	n/a	n/a	n/a	n/a
3023529	RECOG_CONF	n/a	LTP079	ltpFR	15	4	1	GENTLEMAN	631	n/a	5	1	n/a	n/a	n/a	n/a	n/a
3025128	RECOG_TARGET	n/a	LTP079	ltpFR	15	4	1	TIE	1466	1	5	0	n/a	n/a	n/a	n/a	n/a
3025734	RECOG_RESP	n/a	LTP079	ltpFR	15	4	1	TIE	1466	1	n/a	0	n/a	n/a	n/a	n/a	n/a
3026892	RECOG_CONF	n/a	LTP079	ltpFR	15	4	1	TIE	1466	n/a	5	0	n/a	n/a	n/a	n/a	n/a
3028489	RECOG_LURE	n/a	LTP079	ltpFR	15	4	n/a	WOMAN	1620	0	4	n/a	n/a	n/a	n/a	n/a	n/a
3029436	RECOG_RESP	n/a	LTP079	ltpFR	15	4	n/a	WOMAN	1620	0	n/a	n/a	n/a	n/a	n/a	n/a	n/a
3030723	RECOG_CONF	n/a	LTP079	ltpFR	15	4	n/a	WOMAN	1620	n/a	4	n/a	n/a	n/a	n/a	n/a	n/a
3032394	RECOG_TARGET	n/a	LTP079	ltpFR	15	4	0	FURNITURE	616	1	5	1	n/a	n/a	n/a	n/a	n/a
3032933	RECOG_RESP	n/a	LTP079	ltpFR	15	4	0	FURNITURE	616	1	n/a	1	n/a	n/a	n/a	n/a	n/a
3034295	RECOG_CONF	n/a	LTP079	ltpFR	15	4	0	FURNITURE	616	n/a	5	1	n/a	n/a	n/a	n/a	n/a
3035922	RECOG_TARGET	n/a	LTP079	ltpFR	15	4	-1	DUNGEON	507	1	5	-1	n/a	n/a	n/a	n/a	n/a
3036550	RECOG_RESP	n/a	LTP079	ltpFR	15	4	-1	DUNGEON	507	1	n/a	-1	n/a	n/a	n/a	n/a	n/a
3037827	RECOG_CONF	n/a	LTP079	ltpFR	15	4	-1	DUNGEON	507	n/a	5	-1	n/a	n/a	n/a	n/a	n/a
3039593	RECOG_LURE	n/a	LTP079	ltpFR	15	4	n/a	FROST	609	0	3	n/a	n/a	n/a	n/a	n/a	n/a
3041004	RECOG_RESP	n/a	LTP079	ltpFR	15	4	n/a	FROST	609	0	n/a	n/a	n/a	n/a	n/a	n/a	n/a
3042396	RECOG_CONF	n/a	LTP079	ltpFR	15	4	n/a	FROST	609	n/a	3	n/a	n/a	n/a	n/a	n/a	n/a
3044181	RECOG_TARGET	n/a	LTP079	ltpFR	15	4	0	REFRIGERATOR	1179	0	4	1	n/a	n/a	n/a	n/a	n/a
3045170	RECOG_RESP	n/a	LTP079	ltpFR	15	4	0	REFRIGERATOR	1179	0	n/a	1	n/a	n/a	n/a	n/a	n/a
3046637	RECOG_CONF	n/a	LTP079	ltpFR	15	4	0	REFRIGERATOR	1179	n/a	4	1	n/a	n/a	n/a	n/a	n/a
3048267	RECOG_TARGET	n/a	LTP079	ltpFR	15	4	0	KIDNEY	776	1	5	0	n/a	n/a	n/a	n/a	n/a
3048867	RECOG_RESP	n/a	LTP079	ltpFR	15	4	0	KIDNEY	776	1	n/a	0	n/a	n/a	n/a	n/a	n/a
3050119	RECOG_CONF	n/a	LTP079	ltpFR	15	4	0	KIDNEY	776	n/a	5	0	n/a	n/a	n/a	n/a	n/a
3051871	RECOG_TARGET	n/a	LTP079	ltpFR	15	4	-1	CASTLE	256	1	5	-1	n/a	n/a	n/a	n/a	n/a
3052493	RECOG_RESP	n/a	LTP079	ltpFR	15	4	-1	CASTLE	256	1	n/a	-1	n/a	n/a	n/a	n/a	n/a
3053591	RECOG_CONF	n/a	LTP079	ltpFR	15	4	-1	CASTLE	256	n/a	5	-1	n/a	n/a	n/a	n/a	n/a
3055193	RECOG_TARGET	n/a	LTP079	ltpFR	15	4	0	LAWN	805	1	5	1	n/a	n/a	n/a	n/a	n/a
3055791	RECOG_RESP	n/a	LTP079	ltpFR	15	4	0	LAWN	805	1	n/a	1	n/a	n/a	n/a	n/a	n/a
3057073	RECOG_CONF	n/a	LTP079	ltpFR	15	4	0	LAWN	805	n/a	5	1	n/a	n/a	n/a	n/a	n/a
3058679	RECOG_LURE	n/a	LTP079	ltpFR	15	4	n/a	CURTAIN	427	0	4	n/a	n/a	n/a	n/a	n/a	n/a
3059462	RECOG_RESP	n/a	LTP079	ltpFR	15	4	n/a	CURTAIN	427	0	n/a	n/a	n/a	n/a	n/a	n/a	n/a
3060565	RECOG_CONF	n/a	LTP079	ltpFR	15	4	n/a	CURTAIN	427	n/a	4	n/a	n/a	n/a	n/a	n/a	n/a
3062201	RECOG_LURE	n/a	LTP079	ltpFR	15	4	n/a	MEDICINE	886	0	4	n/a	n/a	n/a	n/a	n/a	n/a
3062920	RECOG_RESP	n/a	LTP079	ltpFR	15	4	n/a	MEDICINE	886	0	n/a	n/a	n/a	n/a	n/a	n/a	n/a
3064047	RECOG_CONF	n/a	LTP079	ltpFR	15	4	n/a	MEDICINE	886	n/a	4	n/a	n/a	n/a	n/a	n/a	n/a
3065655	RECOG_TARGET	n/a	LTP079	ltpFR	15	4	0	CHEST	295	1	5	1	n/a	n/a	n/a	n/a	n/a
3066452	RECOG_RESP	n/a	LTP079	ltpFR	15	4	0	CHEST	295	1	n/a	1	n/a	n/a	n/a	n/a	n/a
3067519	RECOG_CONF	n/a	LTP079	ltpFR	15	4	0	CHEST	295	n/a	5	1	n/a	n/a	n/a	n/a	n/a
3069168	RECOG_LURE	n/a	LTP079	ltpFR	15	4	n/a	PATRIOT	1026	0	5	n/a	n/a	n/a	n/a	n/a	n/a
3069914	RECOG_RESP	n/a	LTP079	ltpFR	15	4	n/a	PATRIOT	1026	0	n/a	n/a	n/a	n/a	n/a	n/a	n/a
3071051	RECOG_CONF	n/a	LTP079	ltpFR	15	4	n/a	PATRIOT	1026	n/a	5	n/a	n/a	n/a	n/a	n/a	n/a
3072638	RECOG_TARGET	n/a	LTP079	ltpFR	15	4	-1	COACH	331	1	5	-1	n/a	n/a	n/a	n/a	n/a
3073336	RECOG_RESP	n/a	LTP079	ltpFR	15	4	-1	COACH	331	1	n/a	-1	n/a	n/a	n/a	n/a	n/a
3074424	RECOG_CONF	n/a	LTP079	ltpFR	15	4	-1	COACH	331	n/a	5	-1	n/a	n/a	n/a	n/a	n/a
3076044	RECOG_TARGET	n/a	LTP079	ltpFR	15	4	0	RICE	1190	1	4	0	n/a	n/a	n/a	n/a	n/a
3076918	RECOG_RESP	n/a	LTP079	ltpFR	15	4	0	RICE	1190	1	n/a	0	n/a	n/a	n/a	n/a	n/a
3078075	RECOG_CONF	n/a	LTP079	ltpFR	15	4	0	RICE	1190	n/a	4	0	n/a	n/a	n/a	n/a	n/a
3079688	RECOG_LURE	n/a	LTP079	ltpFR	15	4	n/a	PEANUT	1032	0	4	n/a	n/a	n/a	n/a	n/a	n/a
3080365	RECOG_RESP	n/a	LTP079	ltpFR	15	4	n/a	PEANUT	1032	0	n/a	n/a	n/a	n/a	n/a	n/a	n/a
3081418	RECOG_CONF	n/a	LTP079	ltpFR	15	4	n/a	PEANUT	1032	n/a	4	n/a	n/a	n/a	n/a	n/a	n/a
3083152	RECOG_TARGET	n/a	LTP079	ltpFR	15	4	1	GAVEL	627	1	5	0	n/a	n/a	n/a	n/a	n/a
3083807	RECOG_RESP	n/a	LTP079	ltpFR	15	4	1	GAVEL	627	1	n/a	0	n/a	n/a	n/a	n/a	n/a
3085039	RECOG_CONF	n/a	LTP079	ltpFR	15	4	1	GAVEL	627	n/a	5	0	n/a	n/a	n/a	n/a	n/a
3086630	RECOG_LURE	n/a	LTP079	ltpFR	15	4	n/a	SURVEY	1414	0	4	n/a	n/a	n/a	n/a	n/a	n/a
3087359	RECOG_RESP	n/a	LTP079	ltpFR	15	4	n/a	SURVEY	1414	0	n/a	n/a	n/a	n/a	n/a	n/a	n/a
3088452	RECOG_CONF	n/a	LTP079	ltpFR	15	4	n/a	SURVEY	1414	n/a	4	n/a	n/a	n/a	n/a	n/a	n/a
3092249	REC_START	n/a	LTP079	ltpFR	15	5	n/a	n/a	n/a	n/a	n/a	n/a	n/a	n/a	n/a	n/a	n/a
3092275	RECOG_TARGET	n/a	LTP079	ltpFR	15	5	0	CEMETERY	269	1	3	1	n/a	n/a	n/a	n/a	n/a
3093356	RECOG_RESP	n/a	LTP079	ltpFR	15	5	0	CEMETERY	269	1	n/a	1	n/a	n/a	n/a	n/a	n/a
3094628	RECOG_CONF	n/a	LTP079	ltpFR	15	5	0	CEMETERY	269	n/a	3	1	n/a	n/a	n/a	n/a	n/a
3096395	RECOG_LURE	n/a	LTP079	ltpFR	15	5	n/a	SUITCASE	1403	0	4	n/a	n/a	n/a	n/a	n/a	n/a
3097227	RECOG_RESP	n/a	LTP079	ltpFR	15	5	n/a	SUITCASE	1403	0	n/a	n/a	n/a	n/a	n/a	n/a	n/a
3098380	RECOG_CONF	n/a	LTP079	ltpFR	15	5	n/a	SUITCASE	1403	n/a	4	n/a	n/a	n/a	n/a	n/a	n/a
3099973	RECOG_TARGET	n/a	LTP079	ltpFR	15	5	0	BAG	69	1	3	0	n/a	n/a	n/a	n/a	n/a
3101079	RECOG_RESP	n/a	LTP079	ltpFR	15	5	0	BAG	69	1	n/a	0	n/a	n/a	n/a	n/a	n/a
3102191	RECOG_CONF	n/a	LTP079	ltpFR	15	5	0	BAG	69	n/a	3	0	n/a	n/a	n/a	n/a	n/a
3103860	RECOG_LURE	n/a	LTP079	ltpFR	15	5	n/a	PUZZLE	1146	0	4	n/a	n/a	n/a	n/a	n/a	n/a
3104576	RECOG_RESP	n/a	LTP079	ltpFR	15	5	n/a	PUZZLE	1146	0	n/a	n/a	n/a	n/a	n/a	n/a	n/a
3105763	RECOG_CONF	n/a	LTP079	ltpFR	15	5	n/a	PUZZLE	1146	n/a	4	n/a	n/a	n/a	n/a	n/a	n/a
3107432	RECOG_LURE	n/a	LTP079	ltpFR	15	5	n/a	RELISH	1183	0	4	n/a	n/a	n/a	n/a	n/a	n/a
3108143	RECOG_RESP	n/a	LTP079	ltpFR	15	5	n/a	RELISH	1183	0	n/a	n/a	n/a	n/a	n/a	n/a	n/a
3109375	RECOG_CONF	n/a	LTP079	ltpFR	15	5	n/a	RELISH	1183	n/a	4	n/a	n/a	n/a	n/a	n/a	n/a
3111011	RECOG_TARGET	n/a	LTP079	ltpFR	15	5	-1	CHURCH	307	1	5	-1	n/a	n/a	n/a	n/a	n/a
3111700	RECOG_RESP	n/a	LTP079	ltpFR	15	5	-1	CHURCH	307	1	n/a	-1	n/a	n/a	n/a	n/a	n/a
3112837	RECOG_CONF	n/a	LTP079	ltpFR	15	5	-1	CHURCH	307	n/a	5	-1	n/a	n/a	n/a	n/a	n/a
3114441	RECOG_TARGET	n/a	LTP079	ltpFR	15	5	1	TURKEY	1520	1	5	1	n/a	n/a	n/a	n/a	n/a
3115356	RECOG_RESP	n/a	LTP079	ltpFR	15	5	1	TURKEY	1520	1	n/a	1	n/a	n/a	n/a	n/a	n/a
3116519	RECOG_CONF	n/a	LTP079	ltpFR	15	5	1	TURKEY	1520	n/a	5	1	n/a	n/a	n/a	n/a	n/a
3118078	RECOG_TARGET	n/a	LTP079	ltpFR	15	5	1	TEA	1439	1	5	0	n/a	n/a	n/a	n/a	n/a
3118669	RECOG_RESP	n/a	LTP079	ltpFR	15	5	1	TEA	1439	1	n/a	0	n/a	n/a	n/a	n/a	n/a
3119801	RECOG_CONF	n/a	LTP079	ltpFR	15	5	1	TEA	1439	n/a	5	0	n/a	n/a	n/a	n/a	n/a
3121465	RECOG_LURE	n/a	LTP079	ltpFR	15	5	n/a	BRAIN	165	0	4	n/a	n/a	n/a	n/a	n/a	n/a
3122201	RECOG_RESP	n/a	LTP079	ltpFR	15	5	n/a	BRAIN	165	0	n/a	n/a	n/a	n/a	n/a	n/a	n/a
3123413	RECOG_CONF	n/a	LTP079	ltpFR	15	5	n/a	BRAIN	165	n/a	4	n/a	n/a	n/a	n/a	n/a	n/a
3125095	RECOG_TARGET	n/a	LTP079	ltpFR	15	5	0	MINER	896	1	4	1	n/a	n/a	n/a	n/a	n/a
3125822	RECOG_RESP	n/a	LTP079	ltpFR	15	5	0	MINER	896	1	n/a	1	n/a	n/a	n/a	n/a	n/a
3127045	RECOG_CONF	n/a	LTP079	ltpFR	15	5	0	MINER	896	n/a	4	1	n/a	n/a	n/a	n/a	n/a
3128757	RECOG_TARGET	n/a	LTP079	ltpFR	15	5	-1	SHAMPOO	1274	1	4	-1	n/a	n/a	n/a	n/a	n/a
3129459	RECOG_RESP	n/a	LTP079	ltpFR	15	5	-1	SHAMPOO	1274	1	n/a	-1	n/a	n/a	n/a	n/a	n/a
3130657	RECOG_CONF	n/a	LTP079	ltpFR	15	5	-1	SHAMPOO	1274	n/a	4	-1	n/a	n/a	n/a	n/a	n/a
3132237	RECOG_TARGET	n/a	LTP079	ltpFR	15	5	0	GIFT	635	1	4	0	n/a	n/a	n/a	n/a	n/a
3133031	RECOG_RESP	n/a	LTP079	ltpFR	15	5	0	GIFT	635	1	n/a	0	n/a	n/a	n/a	n/a	n/a
3134129	RECOG_CONF	n/a	LTP079	ltpFR	15	5	0	GIFT	635	n/a	4	0	n/a	n/a	n/a	n/a	n/a
3135815	RECOG_TARGET	n/a	LTP079	ltpFR	15	5	0	INTESTINE	742	1	4	0	n/a	n/a	n/a	n/a	n/a
3136443	RECOG_RESP	n/a	LTP079	ltpFR	15	5	0	INTESTINE	742	1	n/a	0	n/a	n/a	n/a	n/a	n/a
3137631	RECOG_CONF	n/a	LTP079	ltpFR	15	5	0	INTESTINE	742	n/a	4	0	n/a	n/a	n/a	n/a	n/a
3139329	RECOG_LURE	n/a	LTP079	ltpFR	15	5	n/a	CHAIN	273	0	4	n/a	n/a	n/a	n/a	n/a	n/a
3140419	RECOG_RESP	n/a	LTP079	ltpFR	15	5	n/a	CHAIN	273	0	n/a	n/a	n/a	n/a	n/a	n/a	n/a
3141642	RECOG_CONF	n/a	LTP079	ltpFR	15	5	n/a	CHAIN	273	n/a	4	n/a	n/a	n/a	n/a	n/a	n/a
3143249	RECOG_TARGET	n/a	LTP079	ltpFR	15	5	1	PASTA	1021	1	4	0	n/a	n/a	n/a	n/a	n/a
3143851	RECOG_RESP	n/a	LTP079	ltpFR	15	5	1	PASTA	1021	1	n/a	0	n/a	n/a	n/a	n/a	n/a
3145034	RECOG_CONF	n/a	LTP079	ltpFR	15	5	1	PASTA	1021	n/a	4	0	n/a	n/a	n/a	n/a	n/a
3146702	RECOG_TARGET	n/a	LTP079	ltpFR	15	5	0	RECEIPT	1173	1	5	0	n/a	n/a	n/a	n/a	n/a
3147269	RECOG_RESP	n/a	LTP079	ltpFR	15	5	0	RECEIPT	1173	1	n/a	0	n/a	n/a	n/a	n/a	n/a
3148356	RECOG_CONF	n/a	LTP079	ltpFR	15	5	0	RECEIPT	1173	n/a	5	0	n/a	n/a	n/a	n/a	n/a
3150091	RECOG_TARGET	n/a	LTP079	ltpFR	15	5	0	BRIEFCASE	175	1	5	0	n/a	n/a	n/a	n/a	n/a
3151080	RECOG_RESP	n/a	LTP079	ltpFR	15	5	0	BRIEFCASE	175	1	n/a	0	n/a	n/a	n/a	n/a	n/a
3152307	RECOG_CONF	n/a	LTP079	ltpFR	15	5	0	BRIEFCASE	175	n/a	5	0	n/a	n/a	n/a	n/a	n/a
3153927	RECOG_TARGET	n/a	LTP079	ltpFR	15	5	-1	ORCHESTRA	981	1	5	-1	n/a	n/a	n/a	n/a	n/a
3154567	RECOG_RESP	n/a	LTP079	ltpFR	15	5	-1	ORCHESTRA	981	1	n/a	-1	n/a	n/a	n/a	n/a	n/a
3155730	RECOG_CONF	n/a	LTP079	ltpFR	15	5	-1	ORCHESTRA	981	n/a	5	-1	n/a	n/a	n/a	n/a	n/a
3157358	RECOG_LURE	n/a	LTP079	ltpFR	15	5	n/a	POCKETBOOK	1094	0	4	n/a	n/a	n/a	n/a	n/a	n/a
3159780	RECOG_RESP	n/a	LTP079	ltpFR	15	5	n/a	POCKETBOOK	1094	0	n/a	n/a	n/a	n/a	n/a	n/a	n/a
3161067	RECOG_CONF	n/a	LTP079	ltpFR	15	5	n/a	POCKETBOOK	1094	n/a	4	n/a	n/a	n/a	n/a	n/a	n/a
3162759	RECOG_LURE	n/a	LTP079	ltpFR	15	5	n/a	LEG	809	0	4	n/a	n/a	n/a	n/a	n/a	n/a
3163796	RECOG_RESP	n/a	LTP079	ltpFR	15	5	n/a	LEG	809	0	n/a	n/a	n/a	n/a	n/a	n/a	n/a
3164909	RECOG_CONF	n/a	LTP079	ltpFR	15	5	n/a	LEG	809	n/a	4	n/a	n/a	n/a	n/a	n/a	n/a
3170721	REC_START	n/a	LTP079	ltpFR	15	6	n/a	n/a	n/a	n/a	n/a	n/a	n/a	n/a	n/a	n/a	n/a
3170749	RECOG_TARGET	n/a	LTP079	ltpFR	15	6	1	HOOK	715	1	5	0	n/a	n/a	n/a	n/a	n/a
3171564	RECOG_RESP	n/a	LTP079	ltpFR	15	6	1	HOOK	715	1	n/a	0	n/a	n/a	n/a	n/a	n/a
3172731	RECOG_CONF	n/a	LTP079	ltpFR	15	6	1	HOOK	715	n/a	5	0	n/a	n/a	n/a	n/a	n/a
3174355	RECOG_LURE	n/a	LTP079	ltpFR	15	6	n/a	SANDPAPER	1231	0	4	n/a	n/a	n/a	n/a	n/a	n/a
3175146	RECOG_RESP	n/a	LTP079	ltpFR	15	6	n/a	SANDPAPER	1231	0	n/a	n/a	n/a	n/a	n/a	n/a	n/a
3176163	RECOG_CONF	n/a	LTP079	ltpFR	15	6	n/a	SANDPAPER	1231	n/a	4	n/a	n/a	n/a	n/a	n/a	n/a
3177916	RECOG_TARGET	n/a	LTP079	ltpFR	15	6	0	PIE	1062	1	5	0	n/a	n/a	n/a	n/a	n/a
3178483	RECOG_RESP	n/a	LTP079	ltpFR	15	6	0	PIE	1062	1	n/a	0	n/a	n/a	n/a	n/a	n/a
3179506	RECOG_CONF	n/a	LTP079	ltpFR	15	6	0	PIE	1062	n/a	5	0	n/a	n/a	n/a	n/a	n/a
3181047	RECOG_TARGET	n/a	LTP079	ltpFR	15	6	0	FREEWAY	603	1	3	1	n/a	n/a	n/a	n/a	n/a
3181616	RECOG_RESP	n/a	LTP079	ltpFR	15	6	0	FREEWAY	603	1	n/a	1	n/a	n/a	n/a	n/a	n/a
3182778	RECOG_CONF	n/a	LTP079	ltpFR	15	6	0	FREEWAY	603	n/a	3	1	n/a	n/a	n/a	n/a	n/a
3184467	RECOG_LURE	n/a	LTP079	ltpFR	15	6	n/a	RUST	1219	0	4	n/a	n/a	n/a	n/a	n/a	n/a
3185128	RECOG_RESP	n/a	LTP079	ltpFR	15	6	n/a	RUST	1219	0	n/a	n/a	n/a	n/a	n/a	n/a	n/a
3186181	RECOG_CONF	n/a	LTP079	ltpFR	15	6	n/a	RUST	1219	n/a	4	n/a	n/a	n/a	n/a	n/a	n/a
3187746	RECOG_TARGET	n/a	LTP079	ltpFR	15	6	0	DETERGENT	455	1	5	0	n/a	n/a	n/a	n/a	n/a
3188421	RECOG_RESP	n/a	LTP079	ltpFR	15	6	0	DETERGENT	455	1	n/a	0	n/a	n/a	n/a	n/a	n/a
3189343	RECOG_CONF	n/a	LTP079	ltpFR	15	6	0	DETERGENT	455	n/a	5	0	n/a	n/a	n/a	n/a	n/a
3190893	RECOG_TARGET	n/a	LTP079	ltpFR	15	6	1	TWIG	1527	1	5	0	n/a	n/a	n/a	n/a	n/a
3191573	RECOG_RESP	n/a	LTP079	ltpFR	15	6	1	TWIG	1527	1	n/a	0	n/a	n/a	n/a	n/a	n/a
3192506	RECOG_CONF	n/a	LTP079	ltpFR	15	6	1	TWIG	1527	n/a	5	0	n/a	n/a	n/a	n/a	n/a
3194107	RECOG_TARGET	n/a	LTP079	ltpFR	15	6	0	CATERPILLAR	259	1	5	0	n/a	n/a	n/a	n/a	n/a
3194681	RECOG_RESP	n/a	LTP079	ltpFR	15	6	0	CATERPILLAR	259	1	n/a	0	n/a	n/a	n/a	n/a	n/a
3195719	RECOG_CONF	n/a	LTP079	ltpFR	15	6	0	CATERPILLAR	259	n/a	5	0	n/a	n/a	n/a	n/a	n/a
3197245	RECOG_TARGET	n/a	LTP079	ltpFR	15	6	1	TICK	1463	1	5	1	n/a	n/a	n/a	n/a	n/a
3197774	RECOG_RESP	n/a	LTP079	ltpFR	15	6	1	TICK	1463	1	n/a	1	n/a	n/a	n/a	n/a	n/a
3198822	RECOG_CONF	n/a	LTP079	ltpFR	15	6	1	TICK	1463	n/a	5	1	n/a	n/a	n/a	n/a	n/a
3200325	RECOG_TARGET	n/a	LTP079	ltpFR	15	6	1	MAN	862	1	5	1	n/a	n/a	n/a	n/a	n/a
3201012	RECOG_RESP	n/a	LTP079	ltpFR	15	6	1	MAN	862	1	n/a	1	n/a	n/a	n/a	n/a	n/a
3202025	RECOG_CONF	n/a	LTP079	ltpFR	15	6	1	MAN	862	n/a	5	1	n/a	n/a	n/a	n/a	n/a
3203736	RECOG_LURE	n/a	LTP079	ltpFR	15	6	n/a	INDIAN	736	0	5	n/a	n/a	n/a	n/a	n/a	n/a
3204379	RECOG_RESP	n/a	LTP079	ltpFR	15	6	n/a	INDIAN	736	0	n/a	n/a	n/a	n/a	n/a	n/a	n/a
3205417	RECOG_CONF	n/a	LTP079	ltpFR	15	6	n/a	INDIAN	736	n/a	5	n/a	n/a	n/a	n/a	n/a	n/a
3207058	RECOG_TARGET	n/a	LTP079	ltpFR	15	6	0	COLLAR	345	1	5	0	n/a	n/a	n/a	n/a	n/a
3207612	RECOG_RESP	n/a	LTP079	ltpFR	15	6	0	COLLAR	345	1	n/a	0	n/a	n/a	n/a	n/a	n/a
3208620	RECOG_CONF	n/a	LTP079	ltpFR	15	6	0	COLLAR	345	n/a	5	0	n/a	n/a	n/a	n/a	n/a
3210280	RECOG_LURE	n/a	LTP079	ltpFR	15	6	n/a	COFFEE	341	0	4	n/a	n/a	n/a	n/a	n/a	n/a
3211109	RECOG_RESP	n/a	LTP079	ltpFR	15	6	n/a	COFFEE	341	0	n/a	n/a	n/a	n/a	n/a	n/a	n/a
3212202	RECOG_CONF	n/a	LTP079	ltpFR	15	6	n/a	COFFEE	341	n/a	4	n/a	n/a	n/a	n/a	n/a	n/a
3213825	RECOG_TARGET	n/a	LTP079	ltpFR	15	6	1	ANKLE	24	1	5	0	n/a	n/a	n/a	n/a	n/a
3214451	RECOG_RESP	n/a	LTP079	ltpFR	15	6	1	ANKLE	24	1	n/a	0	n/a	n/a	n/a	n/a	n/a
3215494	RECOG_CONF	n/a	LTP079	ltpFR	15	6	1	ANKLE	24	n/a	5	0	n/a	n/a	n/a	n/a	n/a
3217047	RECOG_TARGET	n/a	LTP079	ltpFR	15	6	1	SHORTCAKE	1292	1	3	0	n/a	n/a	n/a	n/a	n/a
3218248	RECOG_RESP	n/a	LTP079	ltpFR	15	6	1	SHORTCAKE	1292	1	n/a	0	n/a	n/a	n/a	n/a	n/a
3219275	RECOG_CONF	n/a	LTP079	ltpFR	15	6	1	SHORTCAKE	1292	n/a	3	0	n/a	n/a	n/a	n/a	n/a
3221034	RECOG_TARGET	n/a	LTP079	ltpFR	15	6	-1	BANDIT	81	1	4	-1	n/a	n/a	n/a	n/a	n/a
3221615	RECOG_RESP	n/a	LTP079	ltpFR	15	6	-1	BANDIT	81	1	n/a	-1	n/a	n/a	n/a	n/a	n/a
3222638	RECOG_CONF	n/a	LTP079	ltpFR	15	6	-1	BANDIT	81	n/a	4	-1	n/a	n/a	n/a	n/a	n/a
3224322	RECOG_LURE	n/a	LTP079	ltpFR	15	6	n/a	OLIVE	975	0	4	n/a	n/a	n/a	n/a	n/a	n/a
3225302	RECOG_RESP	n/a	LTP079	ltpFR	15	6	n/a	OLIVE	975	0	n/a	n/a	n/a	n/a	n/a	n/a	n/a
3226409	RECOG_CONF	n/a	LTP079	ltpFR	15	6	n/a	OLIVE	975	n/a	4	n/a	n/a	n/a	n/a	n/a	n/a
3228151	RECOG_TARGET	n/a	LTP079	ltpFR	15	6	0	LINEN	825	1	5	0	n/a	n/a	n/a	n/a	n/a
3228754	RECOG_RESP	n/a	LTP079	ltpFR	15	6	0	LINEN	825	1	n/a	0	n/a	n/a	n/a	n/a	n/a
3229702	RECOG_CONF	n/a	LTP079	ltpFR	15	6	0	LINEN	825	n/a	5	0	n/a	n/a	n/a	n/a	n/a
3231537	RECOG_LURE	n/a	LTP079	ltpFR	15	6	n/a	DIAMOND	458	0	5	n/a	n/a	n/a	n/a	n/a	n/a
3232296	RECOG_RESP	n/a	LTP079	ltpFR	15	6	n/a	DIAMOND	458	0	n/a	n/a	n/a	n/a	n/a	n/a	n/a
3233343	RECOG_CONF	n/a	LTP079	ltpFR	15	6	n/a	DIAMOND	458	n/a	5	n/a	n/a	n/a	n/a	n/a	n/a
3234983	RECOG_TARGET	n/a	LTP079	ltpFR	15	6	0	CRAYON	401	1	5	0	n/a	n/a	n/a	n/a	n/a
3235568	RECOG_RESP	n/a	LTP079	ltpFR	15	6	0	CRAYON	401	1	n/a	0	n/a	n/a	n/a	n/a	n/a
3236646	RECOG_CONF	n/a	LTP079	ltpFR	15	6	0	CRAYON	401	n/a	5	0	n/a	n/a	n/a	n/a	n/a
3242468	REC_START	n/a	LTP079	ltpFR	15	7	n/a	n/a	n/a	n/a	n/a	n/a	n/a	n/a	n/a	n/a	n/a
3242491	RECOG_TARGET	n/a	LTP079	ltpFR	15	7	0	KEY	773	1	5	0	n/a	n/a	n/a	n/a	n/a
3243211	RECOG_RESP	n/a	LTP079	ltpFR	15	7	0	KEY	773	1	n/a	0	n/a	n/a	n/a	n/a	n/a
3244359	RECOG_CONF	n/a	LTP079	ltpFR	15	7	0	KEY	773	n/a	5	0	n/a	n/a	n/a	n/a	n/a
3245971	RECOG_LURE	n/a	LTP079	ltpFR	15	7	n/a	SERVANT	1271	0	5	n/a	n/a	n/a	n/a	n/a	n/a
3246688	RECOG_RESP	n/a	LTP079	ltpFR	15	7	n/a	SERVANT	1271	0	n/a	n/a	n/a	n/a	n/a	n/a	n/a
3247731	RECOG_CONF	n/a	LTP079	ltpFR	15	7	n/a	SERVANT	1271	n/a	5	n/a	n/a	n/a	n/a	n/a	n/a
3249334	RECOG_LURE	n/a	LTP079	ltpFR	15	7	n/a	WOUND	1624	0	4	n/a	n/a	n/a	n/a	n/a	n/a
3249981	RECOG_RESP	n/a	LTP079	ltpFR	15	7	n/a	WOUND	1624	0	n/a	n/a	n/a	n/a	n/a	n/a	n/a
3251043	RECOG_CONF	n/a	LTP079	ltpFR	15	7	n/a	WOUND	1624	n/a	4	n/a	n/a	n/a	n/a	n/a	n/a
3252638	RECOG_TARGET	n/a	LTP079	ltpFR	15	7	0	ENVELOPE	537	1	5	0	n/a	n/a	n/a	n/a	n/a
3253293	RECOG_RESP	n/a	LTP079	ltpFR	15	7	0	ENVELOPE	537	1	n/a	0	n/a	n/a	n/a	n/a	n/a
3254386	RECOG_CONF	n/a	LTP079	ltpFR	15	7	0	ENVELOPE	537	n/a	5	0	n/a	n/a	n/a	n/a	n/a
3255959	RECOG_TARGET	n/a	LTP079	ltpFR	15	7	1	PASSENGER	1020	1	5	1	n/a	n/a	n/a	n/a	n/a
3256576	RECOG_RESP	n/a	LTP079	ltpFR	15	7	1	PASSENGER	1020	1	n/a	1	n/a	n/a	n/a	n/a	n/a
3257638	RECOG_CONF	n/a	LTP079	ltpFR	15	7	1	PASSENGER	1020	n/a	5	1	n/a	n/a	n/a	n/a	n/a
3259223	RECOG_TARGET	n/a	LTP079	ltpFR	15	7	0	RATTLE	1170	1	4	0	n/a	n/a	n/a	n/a	n/a
3259953	RECOG_RESP	n/a	LTP079	ltpFR	15	7	0	RATTLE	1170	1	n/a	0	n/a	n/a	n/a	n/a	n/a
3261001	RECOG_CONF	n/a	LTP079	ltpFR	15	7	0	RATTLE	1170	n/a	4	0	n/a	n/a	n/a	n/a	n/a
3262601	RECOG_LURE	n/a	LTP079	ltpFR	15	7	n/a	BUREAU	199	0	4	n/a	n/a	n/a	n/a	n/a	n/a
3263285	RECOG_RESP	n/a	LTP079	ltpFR	15	7	n/a	BUREAU	199	0	n/a	n/a	n/a	n/a	n/a	n/a	n/a
3264343	RECOG_CONF	n/a	LTP079	ltpFR	15	7	n/a	BUREAU	199	n/a	4	n/a	n/a	n/a	n/a	n/a	n/a
3265947	RECOG_TARGET	n/a	LTP079	ltpFR	15	7	0	TYPEWRITER	1531	1	5	1	n/a	n/a	n/a	n/a	n/a
3266543	RECOG_RESP	n/a	LTP079	ltpFR	15	7	0	TYPEWRITER	1531	1	n/a	1	n/a	n/a	n/a	n/a	n/a
3267596	RECOG_CONF	n/a	LTP079	ltpFR	15	7	0	TYPEWRITER	1531	n/a	5	1	n/a	n/a	n/a	n/a	n/a
3269153	RECOG_LURE	n/a	LTP079	ltpFR	15	7	n/a	CROWN	415	0	5	n/a	n/a	n/a	n/a	n/a	n/a
3269905	RECOG_RESP	n/a	LTP079	ltpFR	15	7	n/a	CROWN	415	0	n/a	n/a	n/a	n/a	n/a	n/a	n/a
3270948	RECOG_CONF	n/a	LTP079	ltpFR	15	7	n/a	CROWN	415	n/a	5	n/a	n/a	n/a	n/a	n/a	n/a
3272532	RECOG_TARGET	n/a	LTP079	ltpFR	15	7	-1	PERSONNEL	1053	1	5	-1	n/a	n/a	n/a	n/a	n/a
3273173	RECOG_RESP	n/a	LTP079	ltpFR	15	7	-1	PERSONNEL	1053	1	n/a	-1	n/a	n/a	n/a	n/a	n/a
3274121	RECOG_CONF	n/a	LTP079	ltpFR	15	7	-1	PERSONNEL	1053	n/a	5	-1	n/a	n/a	n/a	n/a	n/a
3275794	RECOG_TARGET	n/a	LTP079	ltpFR	15	7	0	TACK	1428	1	5	0	n/a	n/a	n/a	n/a	n/a
3276860	RECOG_RESP	n/a	LTP079	ltpFR	15	7	0	TACK	1428	1	n/a	0	n/a	n/a	n/a	n/a	n/a
3277992	RECOG_CONF	n/a	LTP079	ltpFR	15	7	0	TACK	1428	n/a	5	0	n/a	n/a	n/a	n/a	n/a
3279632	RECOG_TARGET	n/a	LTP079	ltpFR	15	7	1	COUSIN	392	1	5	1	n/a	n/a	n/a	n/a	n/a
3280262	RECOG_RESP	n/a	LTP079	ltpFR	15	7	1	COUSIN	392	1	n/a	1	n/a	n/a	n/a	n/a	n/a
3281315	RECOG_CONF	n/a	LTP079	ltpFR	15	7	1	COUSIN	392	n/a	5	1	n/a	n/a	n/a	n/a	n/a
3282911	RECOG_TARGET	n/a	LTP079	ltpFR	15	7	-1	CANAL	226	1	5	-1	n/a	n/a	n/a	n/a	n/a
3283524	RECOG_RESP	n/a	LTP079	ltpFR	15	7	-1	CANAL	226	1	n/a	-1	n/a	n/a	n/a	n/a	n/a
3284657	RECOG_CONF	n/a	LTP079	ltpFR	15	7	-1	CANAL	226	n/a	5	-1	n/a	n/a	n/a	n/a	n/a
3286233	RECOG_TARGET	n/a	LTP079	ltpFR	15	7	1	SWING	1421	1	5	0	n/a	n/a	n/a	n/a	n/a
3286817	RECOG_RESP	n/a	LTP079	ltpFR	15	7	1	SWING	1421	1	n/a	0	n/a	n/a	n/a	n/a	n/a
3287959	RECOG_CONF	n/a	LTP079	ltpFR	15	7	1	SWING	1421	n/a	5	0	n/a	n/a	n/a	n/a	n/a
3289578	RECOG_TARGET	n/a	LTP079	ltpFR	15	7	-1	BRIDGE	174	1	5	-1	n/a	n/a	n/a	n/a	n/a
3290129	RECOG_RESP	n/a	LTP079	ltpFR	15	7	-1	BRIDGE	174	1	n/a	-1	n/a	n/a	n/a	n/a	n/a
3291332	RECOG_CONF	n/a	LTP079	ltpFR	15	7	-1	BRIDGE	174	n/a	5	-1	n/a	n/a	n/a	n/a	n/a
3292974	RECOG_LURE	n/a	LTP079	ltpFR	15	7	n/a	COYOTE	396	0	5	n/a	n/a	n/a	n/a	n/a	n/a
3293721	RECOG_RESP	n/a	LTP079	ltpFR	15	7	n/a	COYOTE	396	0	n/a	n/a	n/a	n/a	n/a	n/a	n/a
3294844	RECOG_CONF	n/a	LTP079	ltpFR	15	7	n/a	COYOTE	396	n/a	5	n/a	n/a	n/a	n/a	n/a	n/a
3296421	RECOG_TARGET	n/a	LTP079	ltpFR	15	7	-1	CAPITAL	238	1	5	-1	n/a	n/a	n/a	n/a	n/a
3296949	RECOG_RESP	n/a	LTP079	ltpFR	15	7	-1	CAPITAL	238	1	n/a	-1	n/a	n/a	n/a	n/a	n/a
3298056	RECOG_CONF	n/a	LTP079	ltpFR	15	7	-1	CAPITAL	238	n/a	5	-1	n/a	n/a	n/a	n/a	n/a
3299683	RECOG_TARGET	n/a	LTP079	ltpFR	15	7	0	POOL	1103	1	5	1	n/a	n/a	n/a	n/a	n/a
3300316	RECOG_RESP	n/a	LTP079	ltpFR	15	7	0	POOL	1103	1	n/a	1	n/a	n/a	n/a	n/a	n/a
3301409	RECOG_CONF	n/a	LTP079	ltpFR	15	7	0	POOL	1103	n/a	5	1	n/a	n/a	n/a	n/a	n/a
3302980	RECOG_TARGET	n/a	LTP079	ltpFR	15	7	0	GRASS	655	1	5	0	n/a	n/a	n/a	n/a	n/a
3303634	RECOG_RESP	n/a	LTP079	ltpFR	15	7	0	GRASS	655	1	n/a	0	n/a	n/a	n/a	n/a	n/a
3304701	RECOG_CONF	n/a	LTP079	ltpFR	15	7	0	GRASS	655	n/a	5	0	n/a	n/a	n/a	n/a	n/a
3306426	RECOG_LURE	n/a	LTP079	ltpFR	15	7	n/a	LIST	830	0	4	n/a	n/a	n/a	n/a	n/a	n/a
3307305	RECOG_RESP	n/a	LTP079	ltpFR	15	7	n/a	LIST	830	0	n/a	n/a	n/a	n/a	n/a	n/a	n/a
3308463	RECOG_CONF	n/a	LTP079	ltpFR	15	7	n/a	LIST	830	n/a	4	n/a	n/a	n/a	n/a	n/a	n/a
3312500	REC_START	n/a	LTP079	ltpFR	15	8	n/a	n/a	n/a	n/a	n/a	n/a	n/a	n/a	n/a	n/a	n/a
3312527	RECOG_TARGET	n/a	LTP079	ltpFR	15	8	0	TRAITOR	1495	1	5	1	n/a	n/a	n/a	n/a	n/a
3313253	RECOG_RESP	n/a	LTP079	ltpFR	15	8	0	TRAITOR	1495	1	n/a	1	n/a	n/a	n/a	n/a	n/a
3314341	RECOG_CONF	n/a	LTP079	ltpFR	15	8	0	TRAITOR	1495	n/a	5	1	n/a	n/a	n/a	n/a	n/a
3315939	RECOG_LURE	n/a	LTP079	ltpFR	15	8	n/a	MATCH	878	1	3	n/a	n/a	n/a	n/a	n/a	n/a
3317359	RECOG_RESP	n/a	LTP079	ltpFR	15	8	n/a	MATCH	878	1	n/a	n/a	n/a	n/a	n/a	n/a	n/a
3318731	RECOG_CONF	n/a	LTP079	ltpFR	15	8	n/a	MATCH	878	n/a	3	n/a	n/a	n/a	n/a	n/a	n/a
3320443	RECOG_TARGET	n/a	LTP079	ltpFR	15	8	1	SUPPER	1411	1	5	0	n/a	n/a	n/a	n/a	n/a
3321075	RECOG_RESP	n/a	LTP079	ltpFR	15	8	1	SUPPER	1411	1	n/a	0	n/a	n/a	n/a	n/a	n/a
3322123	RECOG_CONF	n/a	LTP079	ltpFR	15	8	1	SUPPER	1411	n/a	5	0	n/a	n/a	n/a	n/a	n/a
3323764	RECOG_TARGET	n/a	LTP079	ltpFR	15	8	-1	FRIES	607	1	3	-1	n/a	n/a	n/a	n/a	n/a
3324971	RECOG_RESP	n/a	LTP079	ltpFR	15	8	-1	FRIES	607	1	n/a	-1	n/a	n/a	n/a	n/a	n/a
3326064	RECOG_CONF	n/a	LTP079	ltpFR	15	8	-1	FRIES	607	n/a	3	-1	n/a	n/a	n/a	n/a	n/a
3327817	RECOG_TARGET	n/a	LTP079	ltpFR	15	8	1	VENUS	1557	1	5	1	n/a	n/a	n/a	n/a	n/a
3328374	RECOG_RESP	n/a	LTP079	ltpFR	15	8	1	VENUS	1557	1	n/a	1	n/a	n/a	n/a	n/a	n/a
3329406	RECOG_CONF	n/a	LTP079	ltpFR	15	8	1	VENUS	1557	n/a	5	1	n/a	n/a	n/a	n/a	n/a
3331065	RECOG_LURE	n/a	LTP079	ltpFR	15	8	n/a	TERMINAL	1450	0	4	n/a	n/a	n/a	n/a	n/a	n/a
3331846	RECOG_RESP	n/a	LTP079	ltpFR	15	8	n/a	TERMINAL	1450	0	n/a	n/a	n/a	n/a	n/a	n/a	n/a
3333008	RECOG_CONF	n/a	LTP079	ltpFR	15	8	n/a	TERMINAL	1450	n/a	4	n/a	n/a	n/a	n/a	n/a	n/a
3334651	RECOG_TARGET	n/a	LTP079	ltpFR	15	8	1	GALAXY	617	1	5	0	n/a	n/a	n/a	n/a	n/a
3335318	RECOG_RESP	n/a	LTP079	ltpFR	15	8	1	GALAXY	617	1	n/a	0	n/a	n/a	n/a	n/a	n/a
3336400	RECOG_CONF	n/a	LTP079	ltpFR	15	8	1	GALAXY	617	n/a	5	0	n/a	n/a	n/a	n/a	n/a
3338048	RECOG_TARGET	n/a	LTP079	ltpFR	15	8	-1	FOREHEAD	592	1	5	-1	n/a	n/a	n/a	n/a	n/a
3338635	RECOG_RESP	n/a	LTP079	ltpFR	15	8	-1	FOREHEAD	592	1	n/a	-1	n/a	n/a	n/a	n/a	n/a
3339693	RECOG_CONF	n/a	LTP079	ltpFR	15	8	-1	FOREHEAD	592	n/a	5	-1	n/a	n/a	n/a	n/a	n/a
3341436	RECOG_LURE	n/a	LTP079	ltpFR	15	8	n/a	ARROW	40	0	4	n/a	n/a	n/a	n/a	n/a	n/a
3342636	RECOG_RESP	n/a	LTP079	ltpFR	15	8	n/a	ARROW	40	0	n/a	n/a	n/a	n/a	n/a	n/a	n/a
3343844	RECOG_CONF	n/a	LTP079	ltpFR	15	8	n/a	ARROW	40	n/a	4	n/a	n/a	n/a	n/a	n/a	n/a
3345530	RECOG_LURE	n/a	LTP079	ltpFR	15	8	n/a	GRASSHOPPER	656	0	4	n/a	n/a	n/a	n/a	n/a	n/a
3346198	RECOG_RESP	n/a	LTP079	ltpFR	15	8	n/a	GRASSHOPPER	656	0	n/a	n/a	n/a	n/a	n/a	n/a	n/a
3347346	RECOG_CONF	n/a	LTP079	ltpFR	15	8	n/a	GRASSHOPPER	656	n/a	4	n/a	n/a	n/a	n/a	n/a	n/a
3348926	RECOG_TARGET	n/a	LTP079	ltpFR	15	8	-1	PRIEST	1122	1	5	-1	n/a	n/a	n/a	n/a	n/a
3349630	RECOG_RESP	n/a	LTP079	ltpFR	15	8	-1	PRIEST	1122	1	n/a	-1	n/a	n/a	n/a	n/a	n/a
3350798	RECOG_CONF	n/a	LTP079	ltpFR	15	8	-1	PRIEST	1122	n/a	5	-1	n/a	n/a	n/a	n/a	n/a
3352489	RECOG_LURE	n/a	LTP079	ltpFR	15	8	n/a	EAR	513	0	4	n/a	n/a	n/a	n/a	n/a	n/a
3353392	RECOG_RESP	n/a	LTP079	ltpFR	15	8	n/a	EAR	513	0	n/a	n/a	n/a	n/a	n/a	n/a	n/a
3355288	RECOG_CONF	n/a	LTP079	ltpFR	15	8	n/a	EAR	513	n/a	4	n/a	n/a	n/a	n/a	n/a	n/a
3357118	RECOG_LURE	n/a	LTP079	ltpFR	15	8	n/a	BUN	197	0	4	n/a	n/a	n/a	n/a	n/a	n/a
3358765	RECOG_RESP	n/a	LTP079	ltpFR	15	8	n/a	BUN	197	0	n/a	n/a	n/a	n/a	n/a	n/a	n/a
3359887	RECOG_CONF	n/a	LTP079	ltpFR	15	8	n/a	BUN	197	n/a	4	n/a	n/a	n/a	n/a	n/a	n/a
3361562	RECOG_LURE	n/a	LTP079	ltpFR	15	8	n/a	COOLER	375	0	4	n/a	n/a	n/a	n/a	n/a	n/a
3362307	RECOG_RESP	n/a	LTP079	ltpFR	15	8	n/a	COOLER	375	0	n/a	n/a	n/a	n/a	n/a	n/a	n/a
3363359	RECOG_CONF	n/a	LTP079	ltpFR	15	8	n/a	COOLER	375	n/a	4	n/a	n/a	n/a	n/a	n/a	n/a
3365017	RECOG_TARGET	n/a	LTP079	ltpFR	15	8	-1	SCREW	1254	1	5	-1	n/a	n/a	n/a	n/a	n/a
3365724	RECOG_RESP	n/a	LTP079	ltpFR	15	8	-1	SCREW	1254	1	n/a	-1	n/a	n/a	n/a	n/a	n/a
3366752	RECOG_CONF	n/a	LTP079	ltpFR	15	8	-1	SCREW	1254	n/a	5	-1	n/a	n/a	n/a	n/a	n/a
