mstime	trial_type	stim_file	subject	experiment	session	trial	item_name	item_num	list	answer	test_x	test_y	test_z
0	SESS_START	n/a	LTP342	ltpFR2	16	n/a	n/a	n/a	n/a	n/a	0	0	0
15179	START	n/a	LTP342	ltpFR2	16	n/a	n/a	n/a	-1	n/a	n/a	n/a	n/a
15210	PROB	n/a	LTP342	ltpFR2	16	n/a	n/a	n/a	-1	18	2	9	7
16843	PROB	n/a	LTP342	ltpFR2	16	n/a	n/a	n/a	-1	12	9	2	1
18142	PROB	n/a	LTP342	ltpFR2	16	n/a	n/a	n/a	-1	13	6	3	4
19842	PROB	n/a	LTP342	ltpFR2	16	n/a	n/a	n/a	-1	5	3	1	1
20792	PROB	n/a	LTP342	ltpFR2	16	n/a	n/a	n/a	-1	14	6	6	2
22190	PROB	n/a	LTP342	ltpFR2	16	n/a	n/a	n/a	-1	17	9	5	3
23989	PROB	n/a	LTP342	ltpFR2	16	n/a	n/a	n/a	-1	17	4	8	5
25239	PROB	n/a	LTP342	ltpFR2	16	n/a	n/a	n/a	-1	10	3	5	2
26487	STOP	n/a	LTP342	ltpFR2	16	n/a	n/a	n/a	-1	n/a	n/a	n/a	n/a
96724	DISTRACTOR	n/a	LTP342	ltpFR2	16	1	n/a	n/a	n/a	n/a	0	0	0
96724	START	n/a	LTP342	ltpFR2	16	n/a	n/a	n/a	1	n/a	n/a	n/a	n/a
96741	PROB	n/a	LTP342	ltpFR2	16	n/a	n/a	n/a	1	18	8	4	6
98139	PROB	n/a	LTP342	ltpFR2	16	n/a	n/a	n/a	1	17	8	7	2
99706	PROB	n/a	LTP342	ltpFR2	16	n/a	n/a	n/a	1	13	4	7	2
100954	PROB	n/a	LTP342	ltpFR2	16	n/a	n/a	n/a	1	5	1	3	1
101805	PROB	n/a	LTP342	ltpFR2	16	n/a	n/a	n/a	1	13	5	3	5
104637	PROB	n/a	LTP342	ltpFR2	16	n/a	n/a	n/a	1	1	8	3	2
107052	PROB	n/a	LTP342	ltpFR2	16	n/a	n/a	n/a	1	19	1	9	9
109034	PROB	n/a	LTP342	ltpFR2	16	n/a	n/a	n/a	1	4	1	2	1
110117	PROB	n/a	LTP342	ltpFR2	16	n/a	n/a	n/a	1	10	8	1	1
111150	PROB	n/a	LTP342	ltpFR2	16	n/a	n/a	n/a	1	22	6	8	8
112866	PROB	n/a	LTP342	ltpFR2	16	n/a	n/a	n/a	1	17	8	1	8
114616	PROB	n/a	LTP342	ltpFR2	16	n/a	n/a	n/a	1	25	7	9	9
116181	PROB	n/a	LTP342	ltpFR2	16	n/a	n/a	n/a	1	15	5	4	6
117447	PROB	n/a	LTP342	ltpFR2	16	n/a	n/a	n/a	1	22	9	9	4
119266	STOP	n/a	LTP342	ltpFR2	16	n/a	n/a	n/a	1	n/a	n/a	n/a	n/a
121613	WORD	wordpools/wasnorm_wordpool_576.txt	LTP342	ltpFR2	16	1	KNAPSACK	783	n/a	n/a	0	0	0
124127	WORD	wordpools/wasnorm_wordpool_576.txt	LTP342	ltpFR2	16	1	PROTON	1132	n/a	n/a	0	0	0
126627	WORD	wordpools/wasnorm_wordpool_576.txt	LTP342	ltpFR2	16	1	DOUGHNUT	490	n/a	n/a	0	0	0
129241	WORD	wordpools/wasnorm_wordpool_576.txt	LTP342	ltpFR2	16	1	LUGGAGE	847	n/a	n/a	0	0	0
131758	WORD	wordpools/wasnorm_wordpool_576.txt	LTP342	ltpFR2	16	1	PALACE	1006	n/a	n/a	0	0	0
134389	WORD	wordpools/wasnorm_wordpool_576.txt	LTP342	ltpFR2	16	1	LASER	801	n/a	n/a	0	0	0
136921	WORD	wordpools/wasnorm_wordpool_576.txt	LTP342	ltpFR2	16	1	PIANO	1057	n/a	n/a	0	0	0
139487	WORD	wordpools/wasnorm_wordpool_576.txt	LTP342	ltpFR2	16	1	SUITCASE	1403	n/a	n/a	0	0	0
142152	WORD	wordpools/wasnorm_wordpool_576.txt	LTP342	ltpFR2	16	1	BRANCH	168	n/a	n/a	0	0	0
144835	WORD	wordpools/wasnorm_wordpool_576.txt	LTP342	ltpFR2	16	1	HOUND	724	n/a	n/a	0	0	0
147551	WORD	wordpools/wasnorm_wordpool_576.txt	LTP342	ltpFR2	16	1	SHELF	1280	n/a	n/a	0	0	0
150065	WORD	wordpools/wasnorm_wordpool_576.txt	LTP342	ltpFR2	16	1	CHEMIST	292	n/a	n/a	0	0	0
152632	WORD	wordpools/wasnorm_wordpool_576.txt	LTP342	ltpFR2	16	1	PUPPY	1144	n/a	n/a	0	0	0
155429	WORD	wordpools/wasnorm_wordpool_576.txt	LTP342	ltpFR2	16	1	COD	340	n/a	n/a	0	0	0
158228	WORD	wordpools/wasnorm_wordpool_576.txt	LTP342	ltpFR2	16	1	CLAM	315	n/a	n/a	0	0	0
160711	WORD	wordpools/wasnorm_wordpool_576.txt	LTP342	ltpFR2	16	1	CORAL	378	n/a	n/a	0	0	0
163159	WORD	wordpools/wasnorm_wordpool_576.txt	LTP342	ltpFR2	16	1	CRAB	397	n/a	n/a	0	0	0
165759	WORD	wordpools/wasnorm_wordpool_576.txt	LTP342	ltpFR2	16	1	LODGE	839	n/a	n/a	0	0	0
168290	WORD	wordpools/wasnorm_wordpool_576.txt	LTP342	ltpFR2	16	1	PIGMENT	1066	n/a	n/a	0	0	0
170740	WORD	wordpools/wasnorm_wordpool_576.txt	LTP342	ltpFR2	16	1	CURTAIN	427	n/a	n/a	0	0	0
173421	WORD	wordpools/wasnorm_wordpool_576.txt	LTP342	ltpFR2	16	1	SLOPE	1328	n/a	n/a	0	0	0
176154	WORD	wordpools/wasnorm_wordpool_576.txt	LTP342	ltpFR2	16	1	CLIMBER	323	n/a	n/a	0	0	0
178952	WORD	wordpools/wasnorm_wordpool_576.txt	LTP342	ltpFR2	16	1	BABY	64	n/a	n/a	0	0	0
181669	WORD	wordpools/wasnorm_wordpool_576.txt	LTP342	ltpFR2	16	1	MAPLE	866	n/a	n/a	0	0	0
183284	START	n/a	LTP342	ltpFR2	16	n/a	n/a	n/a	2	n/a	n/a	n/a	n/a
184266	DISTRACTOR	n/a	LTP342	ltpFR2	16	1	n/a	n/a	n/a	n/a	0	0	0
184283	PROB	n/a	LTP342	ltpFR2	16	n/a	n/a	n/a	2	8	3	4	1
186016	PROB	n/a	LTP342	ltpFR2	16	n/a	n/a	n/a	2	10	1	1	8
187149	PROB	n/a	LTP342	ltpFR2	16	n/a	n/a	n/a	2	18	6	8	4
189732	PROB	n/a	LTP342	ltpFR2	16	n/a	n/a	n/a	2	16	4	3	9
191380	PROB	n/a	LTP342	ltpFR2	16	n/a	n/a	n/a	2	13	3	3	7
193046	PROB	n/a	LTP342	ltpFR2	16	n/a	n/a	n/a	2	23	9	7	7
194813	PROB	n/a	LTP342	ltpFR2	16	n/a	n/a	n/a	2	19	5	9	5
196211	PROB	n/a	LTP342	ltpFR2	16	n/a	n/a	n/a	2	10	2	5	3
197561	PROB	n/a	LTP342	ltpFR2	16	n/a	n/a	n/a	2	21	3	9	9
199376	PROB	n/a	LTP342	ltpFR2	16	n/a	n/a	n/a	2	19	6	6	7
201409	PROB	n/a	LTP342	ltpFR2	16	n/a	n/a	n/a	2	17	9	3	5
203391	PROB	n/a	LTP342	ltpFR2	16	n/a	n/a	n/a	2	5	1	3	1
204291	PROB	n/a	LTP342	ltpFR2	16	n/a	n/a	n/a	2	20	6	7	7
206117	STOP	n/a	LTP342	ltpFR2	16	n/a	n/a	n/a	2	n/a	n/a	n/a	n/a
209206	REC_START	n/a	LTP342	ltpFR2	16	1	n/a	n/a	n/a	n/a	0	0	0
212805	REC_WORD	wordpools/wasnorm_wordpool_576.txt	LTP342	ltpFR2	16	1	KNAPSACK	783	n/a	n/a	0	0	0
214169	REC_WORD	wordpools/wasnorm_wordpool_576.txt	LTP342	ltpFR2	16	1	LUGGAGE	847	n/a	n/a	0	0	0
219959	REC_WORD	wordpools/wasnorm_wordpool_576.txt	LTP342	ltpFR2	16	1	LASER	801	n/a	n/a	0	0	0
221300	REC_WORD	wordpools/wasnorm_wordpool_576.txt	LTP342	ltpFR2	16	1	PALACE	1006	n/a	n/a	0	0	0
223141	REC_WORD	wordpools/wasnorm_wordpool_576.txt	LTP342	ltpFR2	16	1	SUITCASE	1403	n/a	n/a	0	0	0
224432	REC_WORD	wordpools/wasnorm_wordpool_576.txt	LTP342	ltpFR2	16	1	PIANO	1057	n/a	n/a	0	0	0
226955	REC_WORD	wordpools/wasnorm_wordpool_576.txt	LTP342	ltpFR2	16	1	HOUND	724	n/a	n/a	0	0	0
229253	REC_WORD	wordpools/wasnorm_wordpool_576.txt	LTP342	ltpFR2	16	1	BRANCH	168	n/a	n/a	0	0	0
234027	REC_WORD	wordpools/wasnorm_wordpool_576.txt	LTP342	ltpFR2	16	1	LODGE	839	n/a	n/a	0	0	0
235362	REC_WORD	wordpools/wasnorm_wordpool_576.txt	LTP342	ltpFR2	16	1	SHELF	1280	n/a	n/a	0	0	0
237132	REC_WORD	wordpools/wasnorm_wordpool_576.txt	LTP342	ltpFR2	16	1	CHEMIST	292	n/a	n/a	0	0	0
238957	REC_WORD	wordpools/wasnorm_wordpool_576.txt	LTP342	ltpFR2	16	1	PUPPY	1144	n/a	n/a	0	0	0
243457	REC_WORD	wordpools/wasnorm_wordpool_576.txt	LTP342	ltpFR2	16	1	PIGMENT	1066	n/a	n/a	0	0	0
245015	REC_WORD	wordpools/wasnorm_wordpool_576.txt	LTP342	ltpFR2	16	1	CURTAIN	427	n/a	n/a	0	0	0
248665	REC_WORD	wordpools/wasnorm_wordpool_576.txt	LTP342	ltpFR2	16	1	CLIMBER	323	n/a	n/a	0	0	0
249703	REC_WORD	wordpools/wasnorm_wordpool_576.txt	LTP342	ltpFR2	16	1	SLOPE	1328	n/a	n/a	0	0	0
251048	REC_WORD	wordpools/wasnorm_wordpool_576.txt	LTP342	ltpFR2	16	1	BABY	64	n/a	n/a	0	0	0
252091	REC_WORD	wordpools/wasnorm_wordpool_576.txt	LTP342	ltpFR2	16	1	MAPLE	866	n/a	n/a	0	0	0
256119	REC_WORD	wordpools/wasnorm_wordpool_576.txt	LTP342	ltpFR2	16	1	COD	340	n/a	n/a	0	0	0
257256	REC_WORD	wordpools/wasnorm_wordpool_576.txt	LTP342	ltpFR2	16	1	CLAM	315	n/a	n/a	0	0	0
258367	REC_WORD	wordpools/wasnorm_wordpool_576.txt	LTP342	ltpFR2	16	1	CORAL	378	n/a	n/a	0	0	0
259447	REC_WORD	wordpools/wasnorm_wordpool_576.txt	LTP342	ltpFR2	16	1	CRAB	397	n/a	n/a	0	0	0
299649	WORD	wordpools/wasnorm_wordpool_576.txt	LTP342	ltpFR2	16	2	PEANUT	1032	n/a	n/a	0	0	0
302113	WORD	wordpools/wasnorm_wordpool_576.txt	LTP342	ltpFR2	16	2	CASHEW	253	n/a	n/a	0	0	0
304780	WORD	wordpools/wasnorm_wordpool_576.txt	LTP342	ltpFR2	16	2	XEROX	1628	n/a	n/a	0	0	0
307327	WORD	wordpools/wasnorm_wordpool_576.txt	LTP342	ltpFR2	16	2	POCKET	1093	n/a	n/a	0	0	0
309811	WORD	wordpools/wasnorm_wordpool_576.txt	LTP342	ltpFR2	16	2	MISTER	901	n/a	n/a	0	0	0
312258	WORD	wordpools/wasnorm_wordpool_576.txt	LTP342	ltpFR2	16	2	FRAGRANCE	599	n/a	n/a	0	0	0
314891	WORD	wordpools/wasnorm_wordpool_576.txt	LTP342	ltpFR2	16	2	HEADBAND	696	n/a	n/a	0	0	0
317340	WORD	wordpools/wasnorm_wordpool_576.txt	LTP342	ltpFR2	16	2	RAZOR	1171	n/a	n/a	0	0	0
320055	WORD	wordpools/wasnorm_wordpool_576.txt	LTP342	ltpFR2	16	2	AIRPORT	13	n/a	n/a	0	0	0
322671	WORD	wordpools/wasnorm_wordpool_576.txt	LTP342	ltpFR2	16	2	TUBA	1515	n/a	n/a	0	0	0
325169	WORD	wordpools/wasnorm_wordpool_576.txt	LTP342	ltpFR2	16	2	FLASHLIGHT	575	n/a	n/a	0	0	0
327653	WORD	wordpools/wasnorm_wordpool_576.txt	LTP342	ltpFR2	16	2	VAGRANT	1544	n/a	n/a	0	0	0
330467	WORD	wordpools/wasnorm_wordpool_576.txt	LTP342	ltpFR2	16	2	MESSAGE	888	n/a	n/a	0	0	0
332899	WORD	wordpools/wasnorm_wordpool_576.txt	LTP342	ltpFR2	16	2	HAND	683	n/a	n/a	0	0	0
335616	WORD	wordpools/wasnorm_wordpool_576.txt	LTP342	ltpFR2	16	2	WRIST	1626	n/a	n/a	0	0	0
338180	WORD	wordpools/wasnorm_wordpool_576.txt	LTP342	ltpFR2	16	2	COCKTAIL	338	n/a	n/a	0	0	0
340797	WORD	wordpools/wasnorm_wordpool_576.txt	LTP342	ltpFR2	16	2	SILK	1307	n/a	n/a	0	0	0
343595	WORD	wordpools/wasnorm_wordpool_576.txt	LTP342	ltpFR2	16	2	AIRPLANE	12	n/a	n/a	0	0	0
346193	WORD	wordpools/wasnorm_wordpool_576.txt	LTP342	ltpFR2	16	2	MACHINE	852	n/a	n/a	0	0	0
348892	WORD	wordpools/wasnorm_wordpool_576.txt	LTP342	ltpFR2	16	2	PANTHER	1009	n/a	n/a	0	0	0
351658	WORD	wordpools/wasnorm_wordpool_576.txt	LTP342	ltpFR2	16	2	JELLY	755	n/a	n/a	0	0	0
354156	WORD	wordpools/wasnorm_wordpool_576.txt	LTP342	ltpFR2	16	2	RADISH	1158	n/a	n/a	0	0	0
356938	WORD	wordpools/wasnorm_wordpool_576.txt	LTP342	ltpFR2	16	2	TILE	1468	n/a	n/a	0	0	0
359688	WORD	wordpools/wasnorm_wordpool_576.txt	LTP342	ltpFR2	16	2	LEOPARD	812	n/a	n/a	0	0	0
361303	START	n/a	LTP342	ltpFR2	16	n/a	n/a	n/a	3	n/a	n/a	n/a	n/a
362132	DISTRACTOR	n/a	LTP342	ltpFR2	16	2	n/a	n/a	n/a	n/a	0	0	0
362136	PROB	n/a	LTP342	ltpFR2	16	n/a	n/a	n/a	3	8	1	5	2
364418	PROB	n/a	LTP342	ltpFR2	16	n/a	n/a	n/a	3	16	7	6	3
366601	PROB	n/a	LTP342	ltpFR2	16	n/a	n/a	n/a	3	14	5	4	5
368250	PROB	n/a	LTP342	ltpFR2	16	n/a	n/a	n/a	3	14	2	4	8
369833	PROB	n/a	LTP342	ltpFR2	16	n/a	n/a	n/a	3	11	2	4	5
371915	PROB	n/a	LTP342	ltpFR2	16	n/a	n/a	n/a	3	14	4	9	1
373364	PROB	n/a	LTP342	ltpFR2	16	n/a	n/a	n/a	3	15	2	9	4
374930	PROB	n/a	LTP342	ltpFR2	16	n/a	n/a	n/a	3	14	2	9	3
376379	PROB	n/a	LTP342	ltpFR2	16	n/a	n/a	n/a	3	15	5	9	1
377663	PROB	n/a	LTP342	ltpFR2	16	n/a	n/a	n/a	3	15	3	7	5
379112	PROB	n/a	LTP342	ltpFR2	16	n/a	n/a	n/a	3	25	9	9	7
380812	PROB	n/a	LTP342	ltpFR2	16	n/a	n/a	n/a	3	14	7	1	6
382993	PROB	n/a	LTP342	ltpFR2	16	n/a	n/a	n/a	3	14	5	4	5
384355	STOP	n/a	LTP342	ltpFR2	16	n/a	n/a	n/a	3	n/a	n/a	n/a	n/a
387058	REC_START	n/a	LTP342	ltpFR2	16	2	n/a	n/a	n/a	n/a	0	0	0
400054	REC_WORD	wordpools/wasnorm_wordpool_576.txt	LTP342	ltpFR2	16	2	CASHEW	253	n/a	n/a	0	0	0
401180	REC_WORD	wordpools/wasnorm_wordpool_576.txt	LTP342	ltpFR2	16	2	PEANUT	1032	n/a	n/a	0	0	0
402264	REC_WORD	wordpools/wasnorm_wordpool_576.txt	LTP342	ltpFR2	16	2	XEROX	1628	n/a	n/a	0	0	0
403385	REC_WORD	wordpools/wasnorm_wordpool_576.txt	LTP342	ltpFR2	16	2	POCKET	1093	n/a	n/a	0	0	0
404461	REC_WORD	wordpools/wasnorm_wordpool_576.txt	LTP342	ltpFR2	16	2	MISTER	901	n/a	n/a	0	0	0
405333	REC_WORD	wordpools/wasnorm_wordpool_576.txt	LTP342	ltpFR2	16	2	FRAGRANCE	599	n/a	n/a	0	0	0
406435	REC_WORD	wordpools/wasnorm_wordpool_576.txt	LTP342	ltpFR2	16	2	HEADBAND	696	n/a	n/a	0	0	0
407638	REC_WORD	wordpools/wasnorm_wordpool_576.txt	LTP342	ltpFR2	16	2	RAZOR	1171	n/a	n/a	0	0	0
408804	REC_WORD	wordpools/wasnorm_wordpool_576.txt	LTP342	ltpFR2	16	2	AIRPORT	13	n/a	n/a	0	0	0
409984	REC_WORD	wordpools/wasnorm_wordpool_576.txt	LTP342	ltpFR2	16	2	TUBA	1515	n/a	n/a	0	0	0
419833	REC_WORD	wordpools/wasnorm_wordpool_576.txt	LTP342	ltpFR2	16	2	FLASHLIGHT	575	n/a	n/a	0	0	0
420978	REC_WORD	wordpools/wasnorm_wordpool_576.txt	LTP342	ltpFR2	16	2	MESSAGE	888	n/a	n/a	0	0	0
421869	REC_WORD	wordpools/wasnorm_wordpool_576.txt	LTP342	ltpFR2	16	2	VAGRANT	1544	n/a	n/a	0	0	0
423382	REC_WORD	wordpools/wasnorm_wordpool_576.txt	LTP342	ltpFR2	16	2	HAND	683	n/a	n/a	0	0	0
424480	REC_WORD	wordpools/wasnorm_wordpool_576.txt	LTP342	ltpFR2	16	2	WRIST	1626	n/a	n/a	0	0	0
431093	REC_WORD	wordpools/wasnorm_wordpool_576.txt	LTP342	ltpFR2	16	2	AIRPLANE	12	n/a	n/a	0	0	0
432005	REC_WORD	wordpools/wasnorm_wordpool_576.txt	LTP342	ltpFR2	16	2	MACHINE	852	n/a	n/a	0	0	0
433085	REC_WORD	wordpools/wasnorm_wordpool_576.txt	LTP342	ltpFR2	16	2	RADISH	1158	n/a	n/a	0	0	0
433912	REC_WORD	wordpools/wasnorm_wordpool_576.txt	LTP342	ltpFR2	16	2	TILE	1468	n/a	n/a	0	0	0
434879	REC_WORD	wordpools/wasnorm_wordpool_576.txt	LTP342	ltpFR2	16	2	PANTHER	1009	n/a	n/a	0	0	0
435778	REC_WORD	wordpools/wasnorm_wordpool_576.txt	LTP342	ltpFR2	16	2	JELLY	755	n/a	n/a	0	0	0
436696	REC_WORD	wordpools/wasnorm_wordpool_576.txt	LTP342	ltpFR2	16	2	LEOPARD	812	n/a	n/a	0	0	0
438144	REC_WORD	wordpools/wasnorm_wordpool_576.txt	LTP342	ltpFR2	16	2	SILK	1307	n/a	n/a	0	0	0
477518	WORD	wordpools/wasnorm_wordpool_576.txt	LTP342	ltpFR2	16	3	LEADER	807	n/a	n/a	0	0	0
480249	WORD	wordpools/wasnorm_wordpool_576.txt	LTP342	ltpFR2	16	3	TOURIST	1488	n/a	n/a	0	0	0
482816	WORD	wordpools/wasnorm_wordpool_576.txt	LTP342	ltpFR2	16	3	PILOT	1070	n/a	n/a	0	0	0
485363	WORD	wordpools/wasnorm_wordpool_576.txt	LTP342	ltpFR2	16	3	WRENCH	1625	n/a	n/a	0	0	0
487813	WORD	wordpools/wasnorm_wordpool_576.txt	LTP342	ltpFR2	16	3	HATCHET	691	n/a	n/a	0	0	0
490245	WORD	wordpools/wasnorm_wordpool_576.txt	LTP342	ltpFR2	16	3	FRECKLE	602	n/a	n/a	0	0	0
492778	WORD	wordpools/wasnorm_wordpool_576.txt	LTP342	ltpFR2	16	3	DRESS	495	n/a	n/a	0	0	0
495376	WORD	wordpools/wasnorm_wordpool_576.txt	LTP342	ltpFR2	16	3	SCOTCH	1251	n/a	n/a	0	0	0
497875	WORD	wordpools/wasnorm_wordpool_576.txt	LTP342	ltpFR2	16	3	SAUSAGE	1238	n/a	n/a	0	0	0
500407	WORD	wordpools/wasnorm_wordpool_576.txt	LTP342	ltpFR2	16	3	QUARTER	1148	n/a	n/a	0	0	0
503072	WORD	wordpools/wasnorm_wordpool_576.txt	LTP342	ltpFR2	16	3	BANK	83	n/a	n/a	0	0	0
505887	WORD	wordpools/wasnorm_wordpool_576.txt	LTP342	ltpFR2	16	3	SERVANT	1271	n/a	n/a	0	0	0
508370	WORD	wordpools/wasnorm_wordpool_576.txt	LTP342	ltpFR2	16	3	JEANS	752	n/a	n/a	0	0	0
511002	WORD	wordpools/wasnorm_wordpool_576.txt	LTP342	ltpFR2	16	3	TRENCH	1503	n/a	n/a	0	0	0
513702	WORD	wordpools/wasnorm_wordpool_576.txt	LTP342	ltpFR2	16	3	RUG	1215	n/a	n/a	0	0	0
516416	WORD	wordpools/wasnorm_wordpool_576.txt	LTP342	ltpFR2	16	3	CEILING	265	n/a	n/a	0	0	0
519231	WORD	wordpools/wasnorm_wordpool_576.txt	LTP342	ltpFR2	16	3	EYELASH	546	n/a	n/a	0	0	0
522047	WORD	wordpools/wasnorm_wordpool_576.txt	LTP342	ltpFR2	16	3	BEAST	108	n/a	n/a	0	0	0
524830	WORD	wordpools/wasnorm_wordpool_576.txt	LTP342	ltpFR2	16	3	SKIRT	1319	n/a	n/a	0	0	0
527629	WORD	wordpools/wasnorm_wordpool_576.txt	LTP342	ltpFR2	16	3	CASHIER	254	n/a	n/a	0	0	0
530360	WORD	wordpools/wasnorm_wordpool_576.txt	LTP342	ltpFR2	16	3	MATCH	878	n/a	n/a	0	0	0
532975	WORD	wordpools/wasnorm_wordpool_576.txt	LTP342	ltpFR2	16	3	WARDROBE	1587	n/a	n/a	0	0	0
535792	WORD	wordpools/wasnorm_wordpool_576.txt	LTP342	ltpFR2	16	3	APRON	35	n/a	n/a	0	0	0
538256	WORD	wordpools/wasnorm_wordpool_576.txt	LTP342	ltpFR2	16	3	ACTOR	5	n/a	n/a	0	0	0
539873	START	n/a	LTP342	ltpFR2	16	n/a	n/a	n/a	4	n/a	n/a	n/a	n/a
540923	DISTRACTOR	n/a	LTP342	ltpFR2	16	3	n/a	n/a	n/a	n/a	0	0	0
540938	PROB	n/a	LTP342	ltpFR2	16	n/a	n/a	n/a	4	19	6	4	9
544037	PROB	n/a	LTP342	ltpFR2	16	n/a	n/a	n/a	4	15	2	9	4
545320	PROB	n/a	LTP342	ltpFR2	16	n/a	n/a	n/a	4	21	6	7	8
546837	PROB	n/a	LTP342	ltpFR2	16	n/a	n/a	n/a	4	14	5	7	2
549468	PROB	n/a	LTP342	ltpFR2	16	n/a	n/a	n/a	4	15	3	5	7
550934	PROB	n/a	LTP342	ltpFR2	16	n/a	n/a	n/a	4	15	8	4	3
552316	PROB	n/a	LTP342	ltpFR2	16	n/a	n/a	n/a	4	19	8	3	8
553916	PROB	n/a	LTP342	ltpFR2	16	n/a	n/a	n/a	4	18	8	8	2
555282	PROB	n/a	LTP342	ltpFR2	16	n/a	n/a	n/a	4	11	1	1	9
556448	PROB	n/a	LTP342	ltpFR2	16	n/a	n/a	n/a	4	16	4	5	7
557832	PROB	n/a	LTP342	ltpFR2	16	n/a	n/a	n/a	4	13	3	4	6
559430	PROB	n/a	LTP342	ltpFR2	16	n/a	n/a	n/a	4	20	9	2	9
561262	PROB	n/a	LTP342	ltpFR2	16	n/a	n/a	n/a	4	23	5	9	9
563496	STOP	n/a	LTP342	ltpFR2	16	n/a	n/a	n/a	4	n/a	n/a	n/a	n/a
565795	REC_START	n/a	LTP342	ltpFR2	16	3	n/a	n/a	n/a	n/a	0	0	0
569440	REC_WORD	wordpools/wasnorm_wordpool_576.txt	LTP342	ltpFR2	16	3	LEADER	807	n/a	n/a	0	0	0
570414	REC_WORD	wordpools/wasnorm_wordpool_576.txt	LTP342	ltpFR2	16	3	TOURIST	1488	n/a	n/a	0	0	0
571422	REC_WORD	wordpools/wasnorm_wordpool_576.txt	LTP342	ltpFR2	16	3	PILOT	1070	n/a	n/a	0	0	0
572729	REC_WORD	wordpools/wasnorm_wordpool_576.txt	LTP342	ltpFR2	16	3	FRECKLE	602	n/a	n/a	0	0	0
574269	REC_WORD	wordpools/wasnorm_wordpool_576.txt	LTP342	ltpFR2	16	3	WRENCH	1625	n/a	n/a	0	0	0
597486	REC_WORD	wordpools/wasnorm_wordpool_576.txt	LTP342	ltpFR2	16	3	HAMMER	680	n/a	n/a	0	0	0
601375	REC_WORD	wordpools/wasnorm_wordpool_576.txt	LTP342	ltpFR2	16	3	SKIRT	1319	n/a	n/a	0	0	0
602632	REC_WORD	wordpools/wasnorm_wordpool_576.txt	LTP342	ltpFR2	16	3	DRESS	495	n/a	n/a	0	0	0
603607	REC_WORD	wordpools/wasnorm_wordpool_576.txt	LTP342	ltpFR2	16	3	SERVANT	1271	n/a	n/a	0	0	0
605126	REC_WORD	wordpools/wasnorm_wordpool_576.txt	LTP342	ltpFR2	16	3	BEAST	108	n/a	n/a	0	0	0
607148	REC_WORD	wordpools/wasnorm_wordpool_576.txt	LTP342	ltpFR2	16	3	RUG	1215	n/a	n/a	0	0	0
608157	REC_WORD	wordpools/wasnorm_wordpool_576.txt	LTP342	ltpFR2	16	3	TRENCH	1503	n/a	n/a	0	0	0
609116	REC_WORD	wordpools/wasnorm_wordpool_576.txt	LTP342	ltpFR2	16	3	CEILING	265	n/a	n/a	0	0	0
610437	REC_WORD	wordpools/wasnorm_wordpool_576.txt	LTP342	ltpFR2	16	3	JEANS	752	n/a	n/a	0	0	0
616497	REC_WORD	wordpools/wasnorm_wordpool_576.txt	LTP342	ltpFR2	16	3	BANK	83	n/a	n/a	0	0	0
623685	REC_WORD	wordpools/wasnorm_wordpool_576.txt	LTP342	ltpFR2	16	3	ACTOR	5	n/a	n/a	0	0	0
656253	DISTRACTOR	n/a	LTP342	ltpFR2	16	4	n/a	n/a	n/a	n/a	0	0	0
656253	START	n/a	LTP342	ltpFR2	16	n/a	n/a	n/a	5	n/a	n/a	n/a	n/a
656269	PROB	n/a	LTP342	ltpFR2	16	n/a	n/a	n/a	5	18	8	2	8
658918	PROB	n/a	LTP342	ltpFR2	16	n/a	n/a	n/a	5	13	4	3	6
660635	PROB	n/a	LTP342	ltpFR2	16	n/a	n/a	n/a	5	10	2	1	7
662017	PROB	n/a	LTP342	ltpFR2	16	n/a	n/a	n/a	5	12	8	1	3
665965	PROB	n/a	LTP342	ltpFR2	16	n/a	n/a	n/a	5	10	3	2	5
667381	PROB	n/a	LTP342	ltpFR2	16	n/a	n/a	n/a	5	16	4	6	6
669313	PROB	n/a	LTP342	ltpFR2	16	n/a	n/a	n/a	5	19	9	5	5
671279	PROB	n/a	LTP342	ltpFR2	16	n/a	n/a	n/a	5	18	9	8	1
672780	PROB	n/a	LTP342	ltpFR2	16	n/a	n/a	n/a	5	11	3	7	1
674311	PROB	n/a	LTP342	ltpFR2	16	n/a	n/a	n/a	5	5	2	1	2
675344	PROB	n/a	LTP342	ltpFR2	16	n/a	n/a	n/a	5	11	4	5	2
676661	PROB	n/a	LTP342	ltpFR2	16	n/a	n/a	n/a	5	9	4	3	2
679549	STOP	n/a	LTP342	ltpFR2	16	n/a	n/a	n/a	5	n/a	n/a	n/a	n/a
681091	WORD	wordpools/wasnorm_wordpool_576.txt	LTP342	ltpFR2	16	4	OINTMENT	974	n/a	n/a	0	0	0
683858	WORD	wordpools/wasnorm_wordpool_576.txt	LTP342	ltpFR2	16	4	CLOTHES	327	n/a	n/a	0	0	0
686607	WORD	wordpools/wasnorm_wordpool_576.txt	LTP342	ltpFR2	16	4	SNAIL	1332	n/a	n/a	0	0	0
689088	WORD	wordpools/wasnorm_wordpool_576.txt	LTP342	ltpFR2	16	4	PATIENT	1024	n/a	n/a	0	0	0
691903	WORD	wordpools/wasnorm_wordpool_576.txt	LTP342	ltpFR2	16	4	SHORTS	1293	n/a	n/a	0	0	0
694603	WORD	wordpools/wasnorm_wordpool_576.txt	LTP342	ltpFR2	16	4	SCALLOP	1242	n/a	n/a	0	0	0
697184	WORD	wordpools/wasnorm_wordpool_576.txt	LTP342	ltpFR2	16	4	TURKEY	1520	n/a	n/a	0	0	0
699966	WORD	wordpools/wasnorm_wordpool_576.txt	LTP342	ltpFR2	16	4	TEACHER	1440	n/a	n/a	0	0	0
702783	WORD	wordpools/wasnorm_wordpool_576.txt	LTP342	ltpFR2	16	4	GANGSTER	620	n/a	n/a	0	0	0
705380	WORD	wordpools/wasnorm_wordpool_576.txt	LTP342	ltpFR2	16	4	BUGGY	188	n/a	n/a	0	0	0
707814	WORD	wordpools/wasnorm_wordpool_576.txt	LTP342	ltpFR2	16	4	CHURCH	307	n/a	n/a	0	0	0
710411	WORD	wordpools/wasnorm_wordpool_576.txt	LTP342	ltpFR2	16	4	STONE	1385	n/a	n/a	0	0	0
712845	WORD	wordpools/wasnorm_wordpool_576.txt	LTP342	ltpFR2	16	4	FUNGUS	614	n/a	n/a	0	0	0
715544	WORD	wordpools/wasnorm_wordpool_576.txt	LTP342	ltpFR2	16	4	GRAPE	654	n/a	n/a	0	0	0
718108	WORD	wordpools/wasnorm_wordpool_576.txt	LTP342	ltpFR2	16	4	SCARECROW	1245	n/a	n/a	0	0	0
720691	WORD	wordpools/wasnorm_wordpool_576.txt	LTP342	ltpFR2	16	4	WAGON	1578	n/a	n/a	0	0	0
723507	WORD	wordpools/wasnorm_wordpool_576.txt	LTP342	ltpFR2	16	4	TORTOISE	1486	n/a	n/a	0	0	0
726021	WORD	wordpools/wasnorm_wordpool_576.txt	LTP342	ltpFR2	16	4	DRAGON	492	n/a	n/a	0	0	0
728704	WORD	wordpools/wasnorm_wordpool_576.txt	LTP342	ltpFR2	16	4	FIREMAN	569	n/a	n/a	0	0	0
731402	WORD	wordpools/wasnorm_wordpool_576.txt	LTP342	ltpFR2	16	4	DENTIST	447	n/a	n/a	0	0	0
734051	WORD	wordpools/wasnorm_wordpool_576.txt	LTP342	ltpFR2	16	4	OUTFIT	988	n/a	n/a	0	0	0
736750	WORD	wordpools/wasnorm_wordpool_576.txt	LTP342	ltpFR2	16	4	COSTUME	383	n/a	n/a	0	0	0
739182	WORD	wordpools/wasnorm_wordpool_576.txt	LTP342	ltpFR2	16	4	PIMPLE	1071	n/a	n/a	0	0	0
741882	WORD	wordpools/wasnorm_wordpool_576.txt	LTP342	ltpFR2	16	4	CHAPEL	280	n/a	n/a	0	0	0
743497	START	n/a	LTP342	ltpFR2	16	n/a	n/a	n/a	6	n/a	n/a	n/a	n/a
744574	DISTRACTOR	n/a	LTP342	ltpFR2	16	4	n/a	n/a	n/a	n/a	0	0	0
744580	PROB	n/a	LTP342	ltpFR2	16	n/a	n/a	n/a	6	16	4	9	3
746863	PROB	n/a	LTP342	ltpFR2	16	n/a	n/a	n/a	6	8	3	4	1
748111	PROB	n/a	LTP342	ltpFR2	16	n/a	n/a	n/a	6	9	6	2	1
749427	PROB	n/a	LTP342	ltpFR2	16	n/a	n/a	n/a	6	20	6	6	8
751276	PROB	n/a	LTP342	ltpFR2	16	n/a	n/a	n/a	6	24	8	8	8
753693	PROB	n/a	LTP342	ltpFR2	16	n/a	n/a	n/a	6	11	1	4	6
754742	PROB	n/a	LTP342	ltpFR2	16	n/a	n/a	n/a	6	10	3	4	3
756107	PROB	n/a	LTP342	ltpFR2	16	n/a	n/a	n/a	6	13	4	2	7
757440	PROB	n/a	LTP342	ltpFR2	16	n/a	n/a	n/a	6	21	7	9	5
758956	PROB	n/a	LTP342	ltpFR2	16	n/a	n/a	n/a	6	12	1	5	6
760523	PROB	n/a	LTP342	ltpFR2	16	n/a	n/a	n/a	6	12	3	1	8
761888	PROB	n/a	LTP342	ltpFR2	16	n/a	n/a	n/a	6	10	3	4	3
763638	PROB	n/a	LTP342	ltpFR2	16	n/a	n/a	n/a	6	21	6	6	9
765637	PROB	n/a	LTP342	ltpFR2	16	n/a	n/a	n/a	6	10	1	3	6
766871	STOP	n/a	LTP342	ltpFR2	16	n/a	n/a	n/a	6	n/a	n/a	n/a	n/a
769319	REC_START	n/a	LTP342	ltpFR2	16	4	n/a	n/a	n/a	n/a	0	0	0
772328	REC_WORD	wordpools/wasnorm_wordpool_576.txt	LTP342	ltpFR2	16	4	OINTMENT	974	n/a	n/a	0	0	0
773183	REC_WORD	wordpools/wasnorm_wordpool_576.txt	LTP342	ltpFR2	16	4	CLOTHES	327	n/a	n/a	0	0	0
774072	REC_WORD	wordpools/wasnorm_wordpool_576.txt	LTP342	ltpFR2	16	4	SHORTS	1293	n/a	n/a	0	0	0
775193	REC_WORD	wordpools/wasnorm_wordpool_576.txt	LTP342	ltpFR2	16	4	PATIENT	1024	n/a	n/a	0	0	0
776203	REC_WORD	wordpools/wasnorm_wordpool_576.txt	LTP342	ltpFR2	16	4	SNAIL	1332	n/a	n/a	0	0	0
777952	REC_WORD	wordpools/wasnorm_wordpool_576.txt	LTP342	ltpFR2	16	4	TEACHER	1440	n/a	n/a	0	0	0
778835	REC_WORD	wordpools/wasnorm_wordpool_576.txt	LTP342	ltpFR2	16	4	GANGSTER	620	n/a	n/a	0	0	0
780209	REC_WORD	wordpools/wasnorm_wordpool_576.txt	LTP342	ltpFR2	16	4	TURKEY	1520	n/a	n/a	0	0	0
780897	REC_WORD	wordpools/wasnorm_wordpool_576.txt	LTP342	ltpFR2	16	4	SCALLOP	1242	n/a	n/a	0	0	0
783563	REC_WORD	wordpools/wasnorm_wordpool_576.txt	LTP342	ltpFR2	16	4	BUGGY	188	n/a	n/a	0	0	0
784396	REC_WORD	wordpools/wasnorm_wordpool_576.txt	LTP342	ltpFR2	16	4	CHURCH	307	n/a	n/a	0	0	0
786964	REC_WORD	wordpools/wasnorm_wordpool_576.txt	LTP342	ltpFR2	16	4	FUNGUS	614	n/a	n/a	0	0	0
788085	REC_WORD	wordpools/wasnorm_wordpool_576.txt	LTP342	ltpFR2	16	4	ROCK	1201	n/a	n/a	0	0	0
797006	REC_WORD	wordpools/wasnorm_wordpool_576.txt	LTP342	ltpFR2	16	4	SCARECROW	1245	n/a	n/a	0	0	0
798541	REC_WORD	wordpools/wasnorm_wordpool_576.txt	LTP342	ltpFR2	16	4	GRAPE	654	n/a	n/a	0	0	0
799669	REC_WORD	wordpools/wasnorm_wordpool_576.txt	LTP342	ltpFR2	16	4	FIREMAN	569	n/a	n/a	0	0	0
800986	REC_WORD	wordpools/wasnorm_wordpool_576.txt	LTP342	ltpFR2	16	4	DENTIST	447	n/a	n/a	0	0	0
803025	REC_WORD	wordpools/wasnorm_wordpool_576.txt	LTP342	ltpFR2	16	4	OUTFIT	988	n/a	n/a	0	0	0
804010	REC_WORD	wordpools/wasnorm_wordpool_576.txt	LTP342	ltpFR2	16	4	COSTUME	383	n/a	n/a	0	0	0
807105	REC_WORD	wordpools/wasnorm_wordpool_576.txt	LTP342	ltpFR2	16	4	PIMPLE	1071	n/a	n/a	0	0	0
808136	REC_WORD	wordpools/wasnorm_wordpool_576.txt	LTP342	ltpFR2	16	4	CHAPEL	280	n/a	n/a	0	0	0
811040	REC_WORD	wordpools/wasnorm_wordpool_576.txt	LTP342	ltpFR2	16	4	DRAGON	492	n/a	n/a	0	0	0
812040	REC_WORD	wordpools/wasnorm_wordpool_576.txt	LTP342	ltpFR2	16	4	TORTOISE	1486	n/a	n/a	0	0	0
859745	DISTRACTOR	n/a	LTP342	ltpFR2	16	5	n/a	n/a	n/a	n/a	0	0	0
859745	START	n/a	LTP342	ltpFR2	16	n/a	n/a	n/a	7	n/a	n/a	n/a	n/a
859761	PROB	n/a	LTP342	ltpFR2	16	n/a	n/a	n/a	7	16	3	7	6
862892	PROB	n/a	LTP342	ltpFR2	16	n/a	n/a	n/a	7	3	9	3	1
864759	PROB	n/a	LTP342	ltpFR2	16	n/a	n/a	n/a	7	20	8	4	8
866642	PROB	n/a	LTP342	ltpFR2	16	n/a	n/a	n/a	7	12	5	3	4
868674	PROB	n/a	LTP342	ltpFR2	16	n/a	n/a	n/a	7	1	9	4	5
872355	PROB	n/a	LTP342	ltpFR2	16	n/a	n/a	n/a	7	24	9	7	8
875953	PROB	n/a	LTP342	ltpFR2	16	n/a	n/a	n/a	7	20	6	6	8
877770	PROB	n/a	LTP342	ltpFR2	16	n/a	n/a	n/a	7	19	8	4	7
879168	PROB	n/a	LTP342	ltpFR2	16	n/a	n/a	n/a	7	9	7	1	1
880585	PROB	n/a	LTP342	ltpFR2	16	n/a	n/a	n/a	7	14	6	3	5
882994	STOP	n/a	LTP342	ltpFR2	16	n/a	n/a	n/a	7	n/a	n/a	n/a	n/a
884667	WORD	wordpools/wasnorm_wordpool_576.txt	LTP342	ltpFR2	16	5	LADY	794	n/a	n/a	0	0	0
887381	WORD	wordpools/wasnorm_wordpool_576.txt	LTP342	ltpFR2	16	5	COMPASS	358	n/a	n/a	0	0	0
890130	WORD	wordpools/wasnorm_wordpool_576.txt	LTP342	ltpFR2	16	5	COUSIN	392	n/a	n/a	0	0	0
892597	WORD	wordpools/wasnorm_wordpool_576.txt	LTP342	ltpFR2	16	5	BANQUET	86	n/a	n/a	0	0	0
895344	WORD	wordpools/wasnorm_wordpool_576.txt	LTP342	ltpFR2	16	5	COOK	372	n/a	n/a	0	0	0
897960	WORD	wordpools/wasnorm_wordpool_576.txt	LTP342	ltpFR2	16	5	LEG	809	n/a	n/a	0	0	0
900510	WORD	wordpools/wasnorm_wordpool_576.txt	LTP342	ltpFR2	16	5	BODY	145	n/a	n/a	0	0	0
903274	WORD	wordpools/wasnorm_wordpool_576.txt	LTP342	ltpFR2	16	5	MATTRESS	879	n/a	n/a	0	0	0
905906	WORD	wordpools/wasnorm_wordpool_576.txt	LTP342	ltpFR2	16	5	CHEST	295	n/a	n/a	0	0	0
908589	WORD	wordpools/wasnorm_wordpool_576.txt	LTP342	ltpFR2	16	5	GLASS	639	n/a	n/a	0	0	0
911337	WORD	wordpools/wasnorm_wordpool_576.txt	LTP342	ltpFR2	16	5	SUMMIT	1405	n/a	n/a	0	0	0
913986	WORD	wordpools/wasnorm_wordpool_576.txt	LTP342	ltpFR2	16	5	MOP	916	n/a	n/a	0	0	0
916501	WORD	wordpools/wasnorm_wordpool_576.txt	LTP342	ltpFR2	16	5	GLOBE	641	n/a	n/a	0	0	0
918950	WORD	wordpools/wasnorm_wordpool_576.txt	LTP342	ltpFR2	16	5	WORLD	1622	n/a	n/a	0	0	0
921617	WORD	wordpools/wasnorm_wordpool_576.txt	LTP342	ltpFR2	16	5	FOX	598	n/a	n/a	0	0	0
924381	WORD	wordpools/wasnorm_wordpool_576.txt	LTP342	ltpFR2	16	5	TABLE	1426	n/a	n/a	0	0	0
926831	WORD	wordpools/wasnorm_wordpool_576.txt	LTP342	ltpFR2	16	5	CREVICE	405	n/a	n/a	0	0	0
929513	WORD	wordpools/wasnorm_wordpool_576.txt	LTP342	ltpFR2	16	5	FLIPPER	580	n/a	n/a	0	0	0
932044	WORD	wordpools/wasnorm_wordpool_576.txt	LTP342	ltpFR2	16	5	TART	1436	n/a	n/a	0	0	0
934727	WORD	wordpools/wasnorm_wordpool_576.txt	LTP342	ltpFR2	16	5	DANDRUFF	439	n/a	n/a	0	0	0
937425	WORD	wordpools/wasnorm_wordpool_576.txt	LTP342	ltpFR2	16	5	PLAYGROUND	1087	n/a	n/a	0	0	0
940024	WORD	wordpools/wasnorm_wordpool_576.txt	LTP342	ltpFR2	16	5	DOLPHIN	483	n/a	n/a	0	0	0
942774	WORD	wordpools/wasnorm_wordpool_576.txt	LTP342	ltpFR2	16	5	MUMMY	932	n/a	n/a	0	0	0
945523	WORD	wordpools/wasnorm_wordpool_576.txt	LTP342	ltpFR2	16	5	HANDBAG	684	n/a	n/a	0	0	0
947138	START	n/a	LTP342	ltpFR2	16	n/a	n/a	n/a	8	n/a	n/a	n/a	n/a
948122	DISTRACTOR	n/a	LTP342	ltpFR2	16	5	n/a	n/a	n/a	n/a	0	0	0
948137	PROB	n/a	LTP342	ltpFR2	16	n/a	n/a	n/a	8	17	2	8	7
950120	PROB	n/a	LTP342	ltpFR2	16	n/a	n/a	n/a	8	16	9	5	2
951919	PROB	n/a	LTP342	ltpFR2	16	n/a	n/a	n/a	8	18	4	8	6
953251	PROB	n/a	LTP342	ltpFR2	16	n/a	n/a	n/a	8	15	5	2	8
954501	PROB	n/a	LTP342	ltpFR2	16	n/a	n/a	n/a	8	15	8	2	5
956200	PROB	n/a	LTP342	ltpFR2	16	n/a	n/a	n/a	8	16	5	6	5
957466	PROB	n/a	LTP342	ltpFR2	16	n/a	n/a	n/a	8	16	4	3	9
958867	PROB	n/a	LTP342	ltpFR2	16	n/a	n/a	n/a	8	13	5	4	4
961048	PROB	n/a	LTP342	ltpFR2	16	n/a	n/a	n/a	8	17	4	9	4
962532	PROB	n/a	LTP342	ltpFR2	16	n/a	n/a	n/a	8	17	8	4	5
964197	PROB	n/a	LTP342	ltpFR2	16	n/a	n/a	n/a	8	9	1	1	7
965213	PROB	n/a	LTP342	ltpFR2	16	n/a	n/a	n/a	8	14	4	2	8
966730	PROB	n/a	LTP342	ltpFR2	16	n/a	n/a	n/a	8	18	4	5	9
968078	PROB	n/a	LTP342	ltpFR2	16	n/a	n/a	n/a	8	15	3	4	8
970181	STOP	n/a	LTP342	ltpFR2	16	n/a	n/a	n/a	8	n/a	n/a	n/a	n/a
973076	REC_START	n/a	LTP342	ltpFR2	16	5	n/a	n/a	n/a	n/a	0	0	0
983108	REC_WORD	wordpools/wasnorm_wordpool_576.txt	LTP342	ltpFR2	16	5	LADY	794	n/a	n/a	0	0	0
984321	REC_WORD	wordpools/wasnorm_wordpool_576.txt	LTP342	ltpFR2	16	5	COMPASS	358	n/a	n/a	0	0	0
985411	REC_WORD	wordpools/wasnorm_wordpool_576.txt	LTP342	ltpFR2	16	5	COUSIN	392	n/a	n/a	0	0	0
986569	REC_WORD	wordpools/wasnorm_wordpool_576.txt	LTP342	ltpFR2	16	5	COOK	372	n/a	n/a	0	0	0
988468	REC_WORD	wordpools/wasnorm_wordpool_576.txt	LTP342	ltpFR2	16	5	LEG	809	n/a	n/a	0	0	0
989512	REC_WORD	wordpools/wasnorm_wordpool_576.txt	LTP342	ltpFR2	16	5	BODY	145	n/a	n/a	0	0	0
990444	REC_WORD	wordpools/wasnorm_wordpool_576.txt	LTP342	ltpFR2	16	5	MATTRESS	879	n/a	n/a	0	0	0
993134	REC_WORD	wordpools/wasnorm_wordpool_576.txt	LTP342	ltpFR2	16	5	DANDRUFF	439	n/a	n/a	0	0	0
993999	REC_WORD	wordpools/wasnorm_wordpool_576.txt	LTP342	ltpFR2	16	5	PLAYGROUND	1087	n/a	n/a	0	0	0
994869	REC_WORD	wordpools/wasnorm_wordpool_576.txt	LTP342	ltpFR2	16	5	FOX	598	n/a	n/a	0	0	0
996056	REC_WORD	wordpools/wasnorm_wordpool_576.txt	LTP342	ltpFR2	16	5	TABLE	1426	n/a	n/a	0	0	0
998364	REC_WORD	wordpools/wasnorm_wordpool_576.txt	LTP342	ltpFR2	16	5	GLOBE	641	n/a	n/a	0	0	0
999197	REC_WORD	wordpools/wasnorm_wordpool_576.txt	LTP342	ltpFR2	16	5	WORLD	1622	n/a	n/a	0	0	0
1000125	REC_WORD	wordpools/wasnorm_wordpool_576.txt	LTP342	ltpFR2	16	5	MOP	916	n/a	n/a	0	0	0
1001198	REC_WORD	wordpools/wasnorm_wordpool_576.txt	LTP342	ltpFR2	16	5	GLASS	639	n/a	n/a	0	0	0
1002202	REC_WORD	wordpools/wasnorm_wordpool_576.txt	LTP342	ltpFR2	16	5	CHEST	295	n/a	n/a	0	0	0
1003063	REC_WORD	wordpools/wasnorm_wordpool_576.txt	LTP342	ltpFR2	16	5	SUMMIT	1405	n/a	n/a	0	0	0
1005732	REC_WORD	wordpools/wasnorm_wordpool_576.txt	LTP342	ltpFR2	16	5	CREVICE	405	n/a	n/a	0	0	0
1014330	REC_WORD	wordpools/wasnorm_wordpool_576.txt	LTP342	ltpFR2	16	5	FLIPPER	580	n/a	n/a	0	0	0
1017325	REC_WORD	wordpools/wasnorm_wordpool_576.txt	LTP342	ltpFR2	16	5	MUMMY	932	n/a	n/a	0	0	0
1018125	REC_WORD	wordpools/wasnorm_wordpool_576.txt	LTP342	ltpFR2	16	5	DOLPHIN	483	n/a	n/a	0	0	0
1063519	DISTRACTOR	n/a	LTP342	ltpFR2	16	6	n/a	n/a	n/a	n/a	0	0	0
1063519	START	n/a	LTP342	ltpFR2	16	n/a	n/a	n/a	9	n/a	n/a	n/a	n/a
1063536	PROB	n/a	LTP342	ltpFR2	16	n/a	n/a	n/a	9	14	5	6	3
1065351	PROB	n/a	LTP342	ltpFR2	16	n/a	n/a	n/a	9	15	8	1	6
1067166	PROB	n/a	LTP342	ltpFR2	16	n/a	n/a	n/a	9	11	2	8	1
1068249	PROB	n/a	LTP342	ltpFR2	16	n/a	n/a	n/a	9	19	9	2	8
1070215	PROB	n/a	LTP342	ltpFR2	16	n/a	n/a	n/a	9	14	9	3	2
1071415	PROB	n/a	LTP342	ltpFR2	16	n/a	n/a	n/a	9	12	2	9	1
1072765	PROB	n/a	LTP342	ltpFR2	16	n/a	n/a	n/a	9	21	8	5	8
1074648	PROB	n/a	LTP342	ltpFR2	16	n/a	n/a	n/a	9	14	1	5	8
1076746	PROB	n/a	LTP342	ltpFR2	16	n/a	n/a	n/a	9	16	2	8	6
1078062	PROB	n/a	LTP342	ltpFR2	16	n/a	n/a	n/a	9	17	4	4	9
1081628	PROB	n/a	LTP342	ltpFR2	16	n/a	n/a	n/a	9	8	3	2	3
1083743	PROB	n/a	LTP342	ltpFR2	16	n/a	n/a	n/a	9	12	1	6	5
1084826	PROB	n/a	LTP342	ltpFR2	16	n/a	n/a	n/a	9	14	2	6	6
1086480	STOP	n/a	LTP342	ltpFR2	16	n/a	n/a	n/a	9	n/a	n/a	n/a	n/a
1088608	WORD	wordpools/wasnorm_wordpool_576.txt	LTP342	ltpFR2	16	6	FLOWER	584	n/a	n/a	0	0	0
1091256	WORD	wordpools/wasnorm_wordpool_576.txt	LTP342	ltpFR2	16	6	YARN	1631	n/a	n/a	0	0	0
1093705	WORD	wordpools/wasnorm_wordpool_576.txt	LTP342	ltpFR2	16	6	BRIEFCASE	175	n/a	n/a	0	0	0
1096187	WORD	wordpools/wasnorm_wordpool_576.txt	LTP342	ltpFR2	16	6	ATLAS	53	n/a	n/a	0	0	0
1099002	WORD	wordpools/wasnorm_wordpool_576.txt	LTP342	ltpFR2	16	6	INMATE	738	n/a	n/a	0	0	0
1101752	WORD	wordpools/wasnorm_wordpool_576.txt	LTP342	ltpFR2	16	6	PADDING	999	n/a	n/a	0	0	0
1104366	WORD	wordpools/wasnorm_wordpool_576.txt	LTP342	ltpFR2	16	6	ATOM	55	n/a	n/a	0	0	0
1106866	WORD	wordpools/wasnorm_wordpool_576.txt	LTP342	ltpFR2	16	6	SHELTER	1282	n/a	n/a	0	0	0
1109447	WORD	wordpools/wasnorm_wordpool_576.txt	LTP342	ltpFR2	16	6	MARINE	869	n/a	n/a	0	0	0
1112213	WORD	wordpools/wasnorm_wordpool_576.txt	LTP342	ltpFR2	16	6	LAKE	796	n/a	n/a	0	0	0
1114895	WORD	wordpools/wasnorm_wordpool_576.txt	LTP342	ltpFR2	16	6	PUDDING	1139	n/a	n/a	0	0	0
1117578	WORD	wordpools/wasnorm_wordpool_576.txt	LTP342	ltpFR2	16	6	YOLK	1633	n/a	n/a	0	0	0
1120159	WORD	wordpools/wasnorm_wordpool_576.txt	LTP342	ltpFR2	16	6	OYSTER	995	n/a	n/a	0	0	0
1122759	WORD	wordpools/wasnorm_wordpool_576.txt	LTP342	ltpFR2	16	6	PASTRY	1022	n/a	n/a	0	0	0
1125541	WORD	wordpools/wasnorm_wordpool_576.txt	LTP342	ltpFR2	16	6	SLIME	1327	n/a	n/a	0	0	0
1128189	WORD	wordpools/wasnorm_wordpool_576.txt	LTP342	ltpFR2	16	6	POSSUM	1112	n/a	n/a	0	0	0
1130805	WORD	wordpools/wasnorm_wordpool_576.txt	LTP342	ltpFR2	16	6	MILK	895	n/a	n/a	0	0	0
1133253	WORD	wordpools/wasnorm_wordpool_576.txt	LTP342	ltpFR2	16	6	SKILLET	1317	n/a	n/a	0	0	0
1135787	WORD	wordpools/wasnorm_wordpool_576.txt	LTP342	ltpFR2	16	6	CABBAGE	210	n/a	n/a	0	0	0
1138434	WORD	wordpools/wasnorm_wordpool_576.txt	LTP342	ltpFR2	16	6	FILM	565	n/a	n/a	0	0	0
1141133	WORD	wordpools/wasnorm_wordpool_576.txt	LTP342	ltpFR2	16	6	HIGHWAY	707	n/a	n/a	0	0	0
1143816	WORD	wordpools/wasnorm_wordpool_576.txt	LTP342	ltpFR2	16	6	CRICKET	408	n/a	n/a	0	0	0
1146598	WORD	wordpools/wasnorm_wordpool_576.txt	LTP342	ltpFR2	16	6	BATHTUB	100	n/a	n/a	0	0	0
1149263	WORD	wordpools/wasnorm_wordpool_576.txt	LTP342	ltpFR2	16	6	BROOK	177	n/a	n/a	0	0	0
1150880	START	n/a	LTP342	ltpFR2	16	n/a	n/a	n/a	10	n/a	n/a	n/a	n/a
1151711	DISTRACTOR	n/a	LTP342	ltpFR2	16	6	n/a	n/a	n/a	n/a	0	0	0
1151713	PROB	n/a	LTP342	ltpFR2	16	n/a	n/a	n/a	10	20	8	9	3
1153961	PROB	n/a	LTP342	ltpFR2	16	n/a	n/a	n/a	10	24	9	6	9
1157109	PROB	n/a	LTP342	ltpFR2	16	n/a	n/a	n/a	10	23	8	7	8
1160474	PROB	n/a	LTP342	ltpFR2	16	n/a	n/a	n/a	10	5	1	2	2
1161441	PROB	n/a	LTP342	ltpFR2	16	n/a	n/a	n/a	10	16	6	3	7
1163674	PROB	n/a	LTP342	ltpFR2	16	n/a	n/a	n/a	10	11	3	3	5
1165289	PROB	n/a	LTP342	ltpFR2	16	n/a	n/a	n/a	10	16	2	9	5
1166622	PROB	n/a	LTP342	ltpFR2	16	n/a	n/a	n/a	10	16	8	2	6
1168054	PROB	n/a	LTP342	ltpFR2	16	n/a	n/a	n/a	10	21	8	6	7
1169804	PROB	n/a	LTP342	ltpFR2	16	n/a	n/a	n/a	10	16	8	4	4
1171720	PROB	n/a	LTP342	ltpFR2	16	n/a	n/a	n/a	10	21	7	8	6
1173371	STOP	n/a	LTP342	ltpFR2	16	n/a	n/a	n/a	10	n/a	n/a	n/a	n/a
1176635	REC_START	n/a	LTP342	ltpFR2	16	6	n/a	n/a	n/a	n/a	0	0	0
1178572	REC_WORD	wordpools/wasnorm_wordpool_576.txt	LTP342	ltpFR2	16	6	HIGHWAY	707	n/a	n/a	0	0	0
1179259	REC_WORD	wordpools/wasnorm_wordpool_576.txt	LTP342	ltpFR2	16	6	SKILLET	1317	n/a	n/a	0	0	0
1180213	REC_WORD	wordpools/wasnorm_wordpool_576.txt	LTP342	ltpFR2	16	6	CRICKET	408	n/a	n/a	0	0	0
1180940	REC_WORD	wordpools/wasnorm_wordpool_576.txt	LTP342	ltpFR2	16	6	CABBAGE	210	n/a	n/a	0	0	0
1181592	REC_WORD	wordpools/wasnorm_wordpool_576.txt	LTP342	ltpFR2	16	6	FILM	565	n/a	n/a	0	0	0
1182485	REC_WORD	wordpools/wasnorm_wordpool_576.txt	LTP342	ltpFR2	16	6	BROOK	177	n/a	n/a	0	0	0
1183213	REC_WORD	wordpools/wasnorm_wordpool_576.txt	LTP342	ltpFR2	16	6	BATHTUB	100	n/a	n/a	0	0	0
1190249	REC_WORD	wordpools/wasnorm_wordpool_576.txt	LTP342	ltpFR2	16	6	SUITCASE	1403	n/a	n/a	0	0	0
1191427	REC_WORD	wordpools/wasnorm_wordpool_576.txt	LTP342	ltpFR2	16	6	ATOM	55	n/a	n/a	0	0	0
1194855	REC_WORD	wordpools/wasnorm_wordpool_576.txt	LTP342	ltpFR2	16	6	FLOWER	584	n/a	n/a	0	0	0
1195898	REC_WORD	wordpools/wasnorm_wordpool_576.txt	LTP342	ltpFR2	16	6	YARN	1631	n/a	n/a	0	0	0
1197156	REC_WORD	wordpools/wasnorm_wordpool_576.txt	LTP342	ltpFR2	16	6	INMATE	738	n/a	n/a	0	0	0
1198124	REC_WORD	wordpools/wasnorm_wordpool_576.txt	LTP342	ltpFR2	16	6	ATLAS	53	n/a	n/a	0	0	0
1199083	REC_WORD	wordpools/wasnorm_wordpool_576.txt	LTP342	ltpFR2	16	6	PADDING	999	n/a	n/a	0	0	0
1204180	REC_WORD	wordpools/wasnorm_wordpool_576.txt	LTP342	ltpFR2	16	6	POSSUM	1112	n/a	n/a	0	0	0
1205048	REC_WORD	wordpools/wasnorm_wordpool_576.txt	LTP342	ltpFR2	16	6	MILK	895	n/a	n/a	0	0	0
1267076	DISTRACTOR	n/a	LTP342	ltpFR2	16	7	n/a	n/a	n/a	n/a	0	0	0
1267076	START	n/a	LTP342	ltpFR2	16	n/a	n/a	n/a	11	n/a	n/a	n/a	n/a
1267093	PROB	n/a	LTP342	ltpFR2	16	n/a	n/a	n/a	11	12	6	5	1
1268259	PROB	n/a	LTP342	ltpFR2	16	n/a	n/a	n/a	11	13	1	3	9
1269442	PROB	n/a	LTP342	ltpFR2	16	n/a	n/a	n/a	11	6	3	2	1
1270759	PROB	n/a	LTP342	ltpFR2	16	n/a	n/a	n/a	11	19	9	3	7
1272791	PROB	n/a	LTP342	ltpFR2	16	n/a	n/a	n/a	11	21	7	5	9
1274723	PROB	n/a	LTP342	ltpFR2	16	n/a	n/a	n/a	11	16	9	5	2
1276072	PROB	n/a	LTP342	ltpFR2	16	n/a	n/a	n/a	11	12	8	1	3
1277388	PROB	n/a	LTP342	ltpFR2	16	n/a	n/a	n/a	11	14	8	2	4
1278921	PROB	n/a	LTP342	ltpFR2	16	n/a	n/a	n/a	11	13	4	2	7
1280053	PROB	n/a	LTP342	ltpFR2	16	n/a	n/a	n/a	11	13	3	1	9
1281103	PROB	n/a	LTP342	ltpFR2	16	n/a	n/a	n/a	11	14	5	6	3
1282586	PROB	n/a	LTP342	ltpFR2	16	n/a	n/a	n/a	11	16	7	6	3
1283902	PROB	n/a	LTP342	ltpFR2	16	n/a	n/a	n/a	11	9	5	2	2
1285034	PROB	n/a	LTP342	ltpFR2	16	n/a	n/a	n/a	11	22	8	8	6
1288050	PROB	n/a	LTP342	ltpFR2	16	n/a	n/a	n/a	11	14	5	8	1
1289567	PROB	n/a	LTP342	ltpFR2	16	n/a	n/a	n/a	11	9	1	4	4
1290520	STOP	n/a	LTP342	ltpFR2	16	n/a	n/a	n/a	11	n/a	n/a	n/a	n/a
1292281	WORD	wordpools/wasnorm_wordpool_576.txt	LTP342	ltpFR2	16	7	MEDAL	885	n/a	n/a	0	0	0
1294997	WORD	wordpools/wasnorm_wordpool_576.txt	LTP342	ltpFR2	16	7	BASEMENT	94	n/a	n/a	0	0	0
1297530	WORD	wordpools/wasnorm_wordpool_576.txt	LTP342	ltpFR2	16	7	POWDER	1117	n/a	n/a	0	0	0
1300344	WORD	wordpools/wasnorm_wordpool_576.txt	LTP342	ltpFR2	16	7	CROWN	415	n/a	n/a	0	0	0
1303143	WORD	wordpools/wasnorm_wordpool_576.txt	LTP342	ltpFR2	16	7	PRINCESS	1125	n/a	n/a	0	0	0
1305826	WORD	wordpools/wasnorm_wordpool_576.txt	LTP342	ltpFR2	16	7	SEAFOOD	1260	n/a	n/a	0	0	0
1308558	WORD	wordpools/wasnorm_wordpool_576.txt	LTP342	ltpFR2	16	7	ROCKET	1202	n/a	n/a	0	0	0
1311322	WORD	wordpools/wasnorm_wordpool_576.txt	LTP342	ltpFR2	16	7	COBRA	336	n/a	n/a	0	0	0
1313921	WORD	wordpools/wasnorm_wordpool_576.txt	LTP342	ltpFR2	16	7	MONSTER	912	n/a	n/a	0	0	0
1316437	WORD	wordpools/wasnorm_wordpool_576.txt	LTP342	ltpFR2	16	7	SEAL	1262	n/a	n/a	0	0	0
1318870	WORD	wordpools/wasnorm_wordpool_576.txt	LTP342	ltpFR2	16	7	BUREAU	199	n/a	n/a	0	0	0
1321368	WORD	wordpools/wasnorm_wordpool_576.txt	LTP342	ltpFR2	16	7	ORANGE	980	n/a	n/a	0	0	0
1323835	WORD	wordpools/wasnorm_wordpool_576.txt	LTP342	ltpFR2	16	7	ANTLER	29	n/a	n/a	0	0	0
1326316	WORD	wordpools/wasnorm_wordpool_576.txt	LTP342	ltpFR2	16	7	CATCHER	258	n/a	n/a	0	0	0
1329081	WORD	wordpools/wasnorm_wordpool_576.txt	LTP342	ltpFR2	16	7	NECKLACE	940	n/a	n/a	0	0	0
1331514	WORD	wordpools/wasnorm_wordpool_576.txt	LTP342	ltpFR2	16	7	GREASE	660	n/a	n/a	0	0	0
1334179	WORD	wordpools/wasnorm_wordpool_576.txt	LTP342	ltpFR2	16	7	PARROT	1015	n/a	n/a	0	0	0
1336862	WORD	wordpools/wasnorm_wordpool_576.txt	LTP342	ltpFR2	16	7	SPOON	1357	n/a	n/a	0	0	0
1339577	WORD	wordpools/wasnorm_wordpool_576.txt	LTP342	ltpFR2	16	7	BLADE	134	n/a	n/a	0	0	0
1342375	WORD	wordpools/wasnorm_wordpool_576.txt	LTP342	ltpFR2	16	7	PASSAGE	1019	n/a	n/a	0	0	0
1344907	WORD	wordpools/wasnorm_wordpool_576.txt	LTP342	ltpFR2	16	7	PENGUIN	1044	n/a	n/a	0	0	0
1347373	WORD	wordpools/wasnorm_wordpool_576.txt	LTP342	ltpFR2	16	7	BUG	187	n/a	n/a	0	0	0
1349972	WORD	wordpools/wasnorm_wordpool_576.txt	LTP342	ltpFR2	16	7	SIBLING	1301	n/a	n/a	0	0	0
1352571	WORD	wordpools/wasnorm_wordpool_576.txt	LTP342	ltpFR2	16	7	SLIDE	1326	n/a	n/a	0	0	0
1354187	START	n/a	LTP342	ltpFR2	16	n/a	n/a	n/a	12	n/a	n/a	n/a	n/a
1355301	DISTRACTOR	n/a	LTP342	ltpFR2	16	7	n/a	n/a	n/a	n/a	0	0	0
1355303	PROB	n/a	LTP342	ltpFR2	16	n/a	n/a	n/a	12	20	5	7	8
1357519	PROB	n/a	LTP342	ltpFR2	16	n/a	n/a	n/a	12	14	6	4	5
1358918	PROB	n/a	LTP342	ltpFR2	16	n/a	n/a	n/a	12	16	5	3	8
1360618	PROB	n/a	LTP342	ltpFR2	16	n/a	n/a	n/a	12	11	2	6	3
1363716	PROB	n/a	LTP342	ltpFR2	16	n/a	n/a	n/a	12	17	5	9	3
1365131	PROB	n/a	LTP342	ltpFR2	16	n/a	n/a	n/a	12	16	7	3	6
1366348	PROB	n/a	LTP342	ltpFR2	16	n/a	n/a	n/a	12	14	6	1	7
1367865	PROB	n/a	LTP342	ltpFR2	16	n/a	n/a	n/a	12	18	8	9	1
1371530	PROB	n/a	LTP342	ltpFR2	16	n/a	n/a	n/a	12	14	8	3	3
1373044	PROB	n/a	LTP342	ltpFR2	16	n/a	n/a	n/a	12	23	7	9	9
1376476	PROB	n/a	LTP342	ltpFR2	16	n/a	n/a	n/a	12	17	9	4	4
1377674	STOP	n/a	LTP342	ltpFR2	16	n/a	n/a	n/a	12	n/a	n/a	n/a	n/a
1379975	REC_START	n/a	LTP342	ltpFR2	16	7	n/a	n/a	n/a	n/a	0	0	0
1388870	REC_WORD	wordpools/wasnorm_wordpool_576.txt	LTP342	ltpFR2	16	7	MEDAL	885	n/a	n/a	0	0	0
1390214	REC_WORD	wordpools/wasnorm_wordpool_576.txt	LTP342	ltpFR2	16	7	ATTIC	56	n/a	n/a	0	0	0
1391181	REC_WORD	wordpools/wasnorm_wordpool_576.txt	LTP342	ltpFR2	16	7	CROWN	415	n/a	n/a	0	0	0
1392209	REC_WORD	wordpools/wasnorm_wordpool_576.txt	LTP342	ltpFR2	16	7	PRINCESS	1125	n/a	n/a	0	0	0
1396008	REC_WORD	wordpools/wasnorm_wordpool_576.txt	LTP342	ltpFR2	16	7	SEAFOOD	1260	n/a	n/a	0	0	0
1398921	REC_WORD	wordpools/wasnorm_wordpool_576.txt	LTP342	ltpFR2	16	7	SPACESHIP	-1	n/a	n/a	0	0	0
1402217	REC_WORD	wordpools/wasnorm_wordpool_576.txt	LTP342	ltpFR2	16	7	BUREAU	199	n/a	n/a	0	0	0
1403236	REC_WORD	wordpools/wasnorm_wordpool_576.txt	LTP342	ltpFR2	16	7	SEAL	1262	n/a	n/a	0	0	0
1408653	REC_WORD	wordpools/wasnorm_wordpool_576.txt	LTP342	ltpFR2	16	7	COBRA	336	n/a	n/a	0	0	0
1410447	REC_WORD	wordpools/wasnorm_wordpool_576.txt	LTP342	ltpFR2	16	7	MONSTER	912	n/a	n/a	0	0	0
1413814	REC_WORD	wordpools/wasnorm_wordpool_576.txt	LTP342	ltpFR2	16	7	ORANGE	980	n/a	n/a	0	0	0
1414504	REC_WORD	wordpools/wasnorm_wordpool_576.txt	LTP342	ltpFR2	16	7	ANTLER	29	n/a	n/a	0	0	0
1416324	REC_WORD	wordpools/wasnorm_wordpool_576.txt	LTP342	ltpFR2	16	7	GREASE	660	n/a	n/a	0	0	0
1417144	REC_WORD	wordpools/wasnorm_wordpool_576.txt	LTP342	ltpFR2	16	7	NECKLACE	940	n/a	n/a	0	0	0
1418061	REC_WORD	wordpools/wasnorm_wordpool_576.txt	LTP342	ltpFR2	16	7	CATCHER	258	n/a	n/a	0	0	0
1419203	REC_WORD	wordpools/wasnorm_wordpool_576.txt	LTP342	ltpFR2	16	7	PARROT	1015	n/a	n/a	0	0	0
1420048	REC_WORD	wordpools/wasnorm_wordpool_576.txt	LTP342	ltpFR2	16	7	BLADE	134	n/a	n/a	0	0	0
1420732	REC_WORD	wordpools/wasnorm_wordpool_576.txt	LTP342	ltpFR2	16	7	SPOON	1357	n/a	n/a	0	0	0
1422902	REC_WORD	wordpools/wasnorm_wordpool_576.txt	LTP342	ltpFR2	16	7	PASSAGE	1019	n/a	n/a	0	0	0
1424648	REC_WORD	wordpools/wasnorm_wordpool_576.txt	LTP342	ltpFR2	16	7	PENGUIN	1044	n/a	n/a	0	0	0
1425327	REC_WORD	wordpools/wasnorm_wordpool_576.txt	LTP342	ltpFR2	16	7	BUG	187	n/a	n/a	0	0	0
1425963	REC_WORD	wordpools/wasnorm_wordpool_576.txt	LTP342	ltpFR2	16	7	SLIDE	1326	n/a	n/a	0	0	0
1426922	REC_WORD	wordpools/wasnorm_wordpool_576.txt	LTP342	ltpFR2	16	7	SIBLING	1301	n/a	n/a	0	0	0
1470434	WORD	wordpools/wasnorm_wordpool_576.txt	LTP342	ltpFR2	16	8	ZEBRA	1635	n/a	n/a	0	0	0
1473066	WORD	wordpools/wasnorm_wordpool_576.txt	LTP342	ltpFR2	16	8	COWBOY	395	n/a	n/a	0	0	0
1475882	WORD	wordpools/wasnorm_wordpool_576.txt	LTP342	ltpFR2	16	8	SCALPEL	1243	n/a	n/a	0	0	0
1478564	WORD	wordpools/wasnorm_wordpool_576.txt	LTP342	ltpFR2	16	8	HONEY	713	n/a	n/a	0	0	0
1481029	WORD	wordpools/wasnorm_wordpool_576.txt	LTP342	ltpFR2	16	8	BRAKE	166	n/a	n/a	0	0	0
1483695	WORD	wordpools/wasnorm_wordpool_576.txt	LTP342	ltpFR2	16	8	PLATE	1086	n/a	n/a	0	0	0
1486210	WORD	wordpools/wasnorm_wordpool_576.txt	LTP342	ltpFR2	16	8	WAITER	1580	n/a	n/a	0	0	0
1488826	WORD	wordpools/wasnorm_wordpool_576.txt	LTP342	ltpFR2	16	8	TOMBSTONE	1478	n/a	n/a	0	0	0
1491274	WORD	wordpools/wasnorm_wordpool_576.txt	LTP342	ltpFR2	16	8	SWORD	1423	n/a	n/a	0	0	0
1494040	WORD	wordpools/wasnorm_wordpool_576.txt	LTP342	ltpFR2	16	8	SALMON	1227	n/a	n/a	0	0	0
1496505	WORD	wordpools/wasnorm_wordpool_576.txt	LTP342	ltpFR2	16	8	NOMAD	955	n/a	n/a	0	0	0
1499104	WORD	wordpools/wasnorm_wordpool_576.txt	LTP342	ltpFR2	16	8	GARLIC	624	n/a	n/a	0	0	0
1501554	WORD	wordpools/wasnorm_wordpool_576.txt	LTP342	ltpFR2	16	8	CRUTCH	417	n/a	n/a	0	0	0
1504285	WORD	wordpools/wasnorm_wordpool_576.txt	LTP342	ltpFR2	16	8	COURSE	390	n/a	n/a	0	0	0
1506934	WORD	wordpools/wasnorm_wordpool_576.txt	LTP342	ltpFR2	16	8	GLOVE	642	n/a	n/a	0	0	0
1509633	WORD	wordpools/wasnorm_wordpool_576.txt	LTP342	ltpFR2	16	8	LION	827	n/a	n/a	0	0	0
1512215	WORD	wordpools/wasnorm_wordpool_576.txt	LTP342	ltpFR2	16	8	LOVER	846	n/a	n/a	0	0	0
1514897	WORD	wordpools/wasnorm_wordpool_576.txt	LTP342	ltpFR2	16	8	SPOOL	1356	n/a	n/a	0	0	0
1517663	WORD	wordpools/wasnorm_wordpool_576.txt	LTP342	ltpFR2	16	8	THREAD	1460	n/a	n/a	0	0	0
1520228	WORD	wordpools/wasnorm_wordpool_576.txt	LTP342	ltpFR2	16	8	UMPIRE	1535	n/a	n/a	0	0	0
1522678	WORD	wordpools/wasnorm_wordpool_576.txt	LTP342	ltpFR2	16	8	SHARK	1275	n/a	n/a	0	0	0
1525309	WORD	wordpools/wasnorm_wordpool_576.txt	LTP342	ltpFR2	16	8	BINDER	127	n/a	n/a	0	0	0
1527825	WORD	wordpools/wasnorm_wordpool_576.txt	LTP342	ltpFR2	16	8	GUARD	667	n/a	n/a	0	0	0
1530473	WORD	wordpools/wasnorm_wordpool_576.txt	LTP342	ltpFR2	16	8	LAMP	798	n/a	n/a	0	0	0
1532089	START	n/a	LTP342	ltpFR2	16	n/a	n/a	n/a	13	n/a	n/a	n/a	n/a
1533153	DISTRACTOR	n/a	LTP342	ltpFR2	16	8	n/a	n/a	n/a	n/a	0	0	0
1533155	PROB	n/a	LTP342	ltpFR2	16	n/a	n/a	n/a	13	22	6	8	8
1535238	PROB	n/a	LTP342	ltpFR2	16	n/a	n/a	n/a	13	13	3	7	3
1536821	PROB	n/a	LTP342	ltpFR2	16	n/a	n/a	n/a	13	18	5	7	6
1540586	PROB	n/a	LTP342	ltpFR2	16	n/a	n/a	n/a	13	16	3	4	9
1541901	PROB	n/a	LTP342	ltpFR2	16	n/a	n/a	n/a	13	12	2	7	3
1543234	PROB	n/a	LTP342	ltpFR2	16	n/a	n/a	n/a	13	14	1	6	7
1544400	PROB	n/a	LTP342	ltpFR2	16	n/a	n/a	n/a	13	18	6	8	4
1546399	PROB	n/a	LTP342	ltpFR2	16	n/a	n/a	n/a	13	14	7	4	3
1549281	PROB	n/a	LTP342	ltpFR2	16	n/a	n/a	n/a	13	21	6	8	7
1552147	PROB	n/a	LTP342	ltpFR2	16	n/a	n/a	n/a	13	19	5	6	8
1553896	PROB	n/a	LTP342	ltpFR2	16	n/a	n/a	n/a	13	23	7	8	8
1555768	STOP	n/a	LTP342	ltpFR2	16	n/a	n/a	n/a	13	n/a	n/a	n/a	n/a
1557978	REC_START	n/a	LTP342	ltpFR2	16	8	n/a	n/a	n/a	n/a	0	0	0
1562266	REC_WORD	wordpools/wasnorm_wordpool_576.txt	LTP342	ltpFR2	16	8	COWBOY	395	n/a	n/a	0	0	0
1563241	REC_WORD	wordpools/wasnorm_wordpool_576.txt	LTP342	ltpFR2	16	8	ZEBRA	1635	n/a	n/a	0	0	0
1564217	REC_WORD	wordpools/wasnorm_wordpool_576.txt	LTP342	ltpFR2	16	8	SCALPEL	1243	n/a	n/a	0	0	0
1565183	REC_WORD	wordpools/wasnorm_wordpool_576.txt	LTP342	ltpFR2	16	8	HONEY	713	n/a	n/a	0	0	0
1565848	REC_WORD	wordpools/wasnorm_wordpool_576.txt	LTP342	ltpFR2	16	8	PLATE	1086	n/a	n/a	0	0	0
1566694	REC_WORD	wordpools/wasnorm_wordpool_576.txt	LTP342	ltpFR2	16	8	BRAKE	166	n/a	n/a	0	0	0
1568608	REC_WORD	wordpools/wasnorm_wordpool_576.txt	LTP342	ltpFR2	16	8	WAITRESS	1581	n/a	n/a	0	0	0
1572819	REC_WORD	wordpools/wasnorm_wordpool_576.txt	LTP342	ltpFR2	16	8	SALMON	1227	n/a	n/a	0	0	0
1575670	REC_WORD	wordpools/wasnorm_wordpool_576.txt	LTP342	ltpFR2	16	8	TOMBSTONE	1478	n/a	n/a	0	0	0
1576666	REC_WORD	wordpools/wasnorm_wordpool_576.txt	LTP342	ltpFR2	16	8	SWORD	1423	n/a	n/a	0	0	0
1579470	REC_WORD	wordpools/wasnorm_wordpool_576.txt	LTP342	ltpFR2	16	8	CRUTCH	417	n/a	n/a	0	0	0
1583543	REC_WORD	wordpools/wasnorm_wordpool_576.txt	LTP342	ltpFR2	16	8	COURSE	390	n/a	n/a	0	0	0
1584464	REC_WORD	wordpools/wasnorm_wordpool_576.txt	LTP342	ltpFR2	16	8	SPOOL	1356	n/a	n/a	0	0	0
1585250	REC_WORD	wordpools/wasnorm_wordpool_576.txt	LTP342	ltpFR2	16	8	THREAD	1460	n/a	n/a	0	0	0
1587449	REC_WORD	wordpools/wasnorm_wordpool_576.txt	LTP342	ltpFR2	16	8	LOVER	846	n/a	n/a	0	0	0
1591132	REC_WORD	wordpools/wasnorm_wordpool_576.txt	LTP342	ltpFR2	16	8	GARLIC	624	n/a	n/a	0	0	0
1598093	REC_WORD	wordpools/wasnorm_wordpool_576.txt	LTP342	ltpFR2	16	8	UMPIRE	1535	n/a	n/a	0	0	0
1598933	REC_WORD	wordpools/wasnorm_wordpool_576.txt	LTP342	ltpFR2	16	8	SHARK	1275	n/a	n/a	0	0	0
1599940	REC_WORD	wordpools/wasnorm_wordpool_576.txt	LTP342	ltpFR2	16	8	BINDER	127	n/a	n/a	0	0	0
1602137	REC_WORD	wordpools/wasnorm_wordpool_576.txt	LTP342	ltpFR2	16	8	GUARD	667	n/a	n/a	0	0	0
1603976	REC_WORD	wordpools/wasnorm_wordpool_576.txt	LTP342	ltpFR2	16	8	LAMP	798	n/a	n/a	0	0	0
1634510	REST_REWET	n/a	LTP342	ltpFR2	16	8	n/a	n/a	n/a	n/a	0	0	0
1865188	WORD	wordpools/wasnorm_wordpool_576.txt	LTP342	ltpFR2	16	9	KITCHEN	778	n/a	n/a	0	0	0
1867788	WORD	wordpools/wasnorm_wordpool_576.txt	LTP342	ltpFR2	16	9	PARSLEY	1016	n/a	n/a	0	0	0
1870302	WORD	wordpools/wasnorm_wordpool_576.txt	LTP342	ltpFR2	16	9	SHERIFF	1284	n/a	n/a	0	0	0
1872918	WORD	wordpools/wasnorm_wordpool_576.txt	LTP342	ltpFR2	16	9	BUBBLE	183	n/a	n/a	0	0	0
1875500	WORD	wordpools/wasnorm_wordpool_576.txt	LTP342	ltpFR2	16	9	SUNSET	1408	n/a	n/a	0	0	0
1877965	WORD	wordpools/wasnorm_wordpool_576.txt	LTP342	ltpFR2	16	9	SUNRISE	1407	n/a	n/a	0	0	0
1880715	WORD	wordpools/wasnorm_wordpool_576.txt	LTP342	ltpFR2	16	9	WIFE	1609	n/a	n/a	0	0	0
1883380	WORD	wordpools/wasnorm_wordpool_576.txt	LTP342	ltpFR2	16	9	GHETTO	633	n/a	n/a	0	0	0
1885945	WORD	wordpools/wasnorm_wordpool_576.txt	LTP342	ltpFR2	16	9	DUST	508	n/a	n/a	0	0	0
1888728	WORD	wordpools/wasnorm_wordpool_576.txt	LTP342	ltpFR2	16	9	CHILD	299	n/a	n/a	0	0	0
1891359	WORD	wordpools/wasnorm_wordpool_576.txt	LTP342	ltpFR2	16	9	PERMIT	1051	n/a	n/a	0	0	0
1893826	WORD	wordpools/wasnorm_wordpool_576.txt	LTP342	ltpFR2	16	9	GIRL	637	n/a	n/a	0	0	0
1896541	WORD	wordpools/wasnorm_wordpool_576.txt	LTP342	ltpFR2	16	9	BOARD	143	n/a	n/a	0	0	0
1899122	WORD	wordpools/wasnorm_wordpool_576.txt	LTP342	ltpFR2	16	9	BLENDER	136	n/a	n/a	0	0	0
1901739	WORD	wordpools/wasnorm_wordpool_576.txt	LTP342	ltpFR2	16	9	BULLET	194	n/a	n/a	0	0	0
1904403	WORD	wordpools/wasnorm_wordpool_576.txt	LTP342	ltpFR2	16	9	STUDENT	1395	n/a	n/a	0	0	0
1907102	WORD	wordpools/wasnorm_wordpool_576.txt	LTP342	ltpFR2	16	9	ULCER	1533	n/a	n/a	0	0	0
1909602	WORD	wordpools/wasnorm_wordpool_576.txt	LTP342	ltpFR2	16	9	BELLY	119	n/a	n/a	0	0	0
1912033	WORD	wordpools/wasnorm_wordpool_576.txt	LTP342	ltpFR2	16	9	SALT	1229	n/a	n/a	0	0	0
1914783	WORD	wordpools/wasnorm_wordpool_576.txt	LTP342	ltpFR2	16	9	COUNTY	389	n/a	n/a	0	0	0
1917214	WORD	wordpools/wasnorm_wordpool_576.txt	LTP342	ltpFR2	16	9	POLICE	1098	n/a	n/a	0	0	0
1919714	WORD	wordpools/wasnorm_wordpool_576.txt	LTP342	ltpFR2	16	9	CRIB	407	n/a	n/a	0	0	0
1922162	WORD	wordpools/wasnorm_wordpool_576.txt	LTP342	ltpFR2	16	9	LILY	821	n/a	n/a	0	0	0
1924695	WORD	wordpools/wasnorm_wordpool_576.txt	LTP342	ltpFR2	16	9	PEBBLE	1035	n/a	n/a	0	0	0
1926310	START	n/a	LTP342	ltpFR2	16	n/a	n/a	n/a	14	n/a	n/a	n/a	n/a
1927441	DISTRACTOR	n/a	LTP342	ltpFR2	16	9	n/a	n/a	n/a	n/a	0	0	0
1927443	PROB	n/a	LTP342	ltpFR2	16	n/a	n/a	n/a	14	21	8	4	9
1929892	PROB	n/a	LTP342	ltpFR2	16	n/a	n/a	n/a	14	16	1	6	9
1931108	PROB	n/a	LTP342	ltpFR2	16	n/a	n/a	n/a	14	23	8	6	9
1933758	PROB	n/a	LTP342	ltpFR2	16	n/a	n/a	n/a	14	15	8	1	6
1935389	PROB	n/a	LTP342	ltpFR2	16	n/a	n/a	n/a	14	8	1	6	1
1936556	PROB	n/a	LTP342	ltpFR2	16	n/a	n/a	n/a	14	10	2	7	1
1937988	PROB	n/a	LTP342	ltpFR2	16	n/a	n/a	n/a	14	19	9	4	6
1939522	PROB	n/a	LTP342	ltpFR2	16	n/a	n/a	n/a	14	11	5	3	3
1940688	PROB	n/a	LTP342	ltpFR2	16	n/a	n/a	n/a	14	15	6	7	2
1942136	PROB	n/a	LTP342	ltpFR2	16	n/a	n/a	n/a	14	23	6	9	8
1944102	PROB	n/a	LTP342	ltpFR2	16	n/a	n/a	n/a	14	17	9	7	1
1946151	PROB	n/a	LTP342	ltpFR2	16	n/a	n/a	n/a	14	20	3	8	9
1948518	PROB	n/a	LTP342	ltpFR2	16	n/a	n/a	n/a	14	12	6	4	2
1949939	STOP	n/a	LTP342	ltpFR2	16	n/a	n/a	n/a	14	n/a	n/a	n/a	n/a
1952182	REC_START	n/a	LTP342	ltpFR2	16	9	n/a	n/a	n/a	n/a	0	0	0
1953571	REC_WORD	wordpools/wasnorm_wordpool_576.txt	LTP342	ltpFR2	16	9	SHERIFF	1284	n/a	n/a	0	0	0
1954549	REC_WORD	wordpools/wasnorm_wordpool_576.txt	LTP342	ltpFR2	16	9	COUNTY	389	n/a	n/a	0	0	0
1955300	REC_WORD	wordpools/wasnorm_wordpool_576.txt	LTP342	ltpFR2	16	9	POLICE	1098	n/a	n/a	0	0	0
1956134	REC_WORD	wordpools/wasnorm_wordpool_576.txt	LTP342	ltpFR2	16	9	LILY	821	n/a	n/a	0	0	0
1956860	REC_WORD	wordpools/wasnorm_wordpool_576.txt	LTP342	ltpFR2	16	9	PEBBLE	1035	n/a	n/a	0	0	0
1957638	REC_WORD	wordpools/wasnorm_wordpool_576.txt	LTP342	ltpFR2	16	9	KITCHEN	778	n/a	n/a	0	0	0
1958438	REC_WORD	wordpools/wasnorm_wordpool_576.txt	LTP342	ltpFR2	16	9	PARSLEY	1016	n/a	n/a	0	0	0
1959325	REC_WORD	wordpools/wasnorm_wordpool_576.txt	LTP342	ltpFR2	16	9	BOARD	143	n/a	n/a	0	0	0
1960127	REC_WORD	wordpools/wasnorm_wordpool_576.txt	LTP342	ltpFR2	16	9	BULLET	194	n/a	n/a	0	0	0
1960882	REC_WORD	wordpools/wasnorm_wordpool_576.txt	LTP342	ltpFR2	16	9	BLENDER	136	n/a	n/a	0	0	0
1961627	REC_WORD	wordpools/wasnorm_wordpool_576.txt	LTP342	ltpFR2	16	9	PERMIT	1051	n/a	n/a	0	0	0
1962515	REC_WORD	wordpools/wasnorm_wordpool_576.txt	LTP342	ltpFR2	16	9	GHETTO	633	n/a	n/a	0	0	0
1963341	REC_WORD	wordpools/wasnorm_wordpool_576.txt	LTP342	ltpFR2	16	9	WIFE	1609	n/a	n/a	0	0	0
1964030	REC_WORD	wordpools/wasnorm_wordpool_576.txt	LTP342	ltpFR2	16	9	CHILD	299	n/a	n/a	0	0	0
1968123	REC_WORD	wordpools/wasnorm_wordpool_576.txt	LTP342	ltpFR2	16	9	SUNSET	1408	n/a	n/a	0	0	0
1968735	REC_WORD	wordpools/wasnorm_wordpool_576.txt	LTP342	ltpFR2	16	9	SUNRISE	1407	n/a	n/a	0	0	0
1969614	REC_WORD	wordpools/wasnorm_wordpool_576.txt	LTP342	ltpFR2	16	9	BUBBLE	183	n/a	n/a	0	0	0
2005197	REC_WORD	wordpools/wasnorm_wordpool_576.txt	LTP342	ltpFR2	16	9	STUDENT	1395	n/a	n/a	0	0	0
2008414	REC_WORD	wordpools/wasnorm_wordpool_576.txt	LTP342	ltpFR2	16	9	CRIB	407	n/a	n/a	0	0	0
2016292	REC_WORD	wordpools/wasnorm_wordpool_576.txt	LTP342	ltpFR2	16	9	ULCER	1533	n/a	n/a	0	0	0
2016801	REC_WORD	wordpools/wasnorm_wordpool_576.txt	LTP342	ltpFR2	16	9	SALT	1229	n/a	n/a	0	0	0
2018717	REC_WORD	wordpools/wasnorm_wordpool_576.txt	LTP342	ltpFR2	16	9	STOMACH	1384	n/a	n/a	0	0	0
2042608	DISTRACTOR	n/a	LTP342	ltpFR2	16	10	n/a	n/a	n/a	n/a	0	0	0
2042609	START	n/a	LTP342	ltpFR2	16	n/a	n/a	n/a	15	n/a	n/a	n/a	n/a
2042625	PROB	n/a	LTP342	ltpFR2	16	n/a	n/a	n/a	15	13	8	1	4
2044657	PROB	n/a	LTP342	ltpFR2	16	n/a	n/a	n/a	15	19	7	4	8
2045956	PROB	n/a	LTP342	ltpFR2	16	n/a	n/a	n/a	15	15	6	1	8
2047372	PROB	n/a	LTP342	ltpFR2	16	n/a	n/a	n/a	15	9	2	1	6
2048471	PROB	n/a	LTP342	ltpFR2	16	n/a	n/a	n/a	15	15	4	9	2
2049822	PROB	n/a	LTP342	ltpFR2	16	n/a	n/a	n/a	15	23	7	7	9
2051754	PROB	n/a	LTP342	ltpFR2	16	n/a	n/a	n/a	15	19	9	1	9
2053036	PROB	n/a	LTP342	ltpFR2	16	n/a	n/a	n/a	15	14	1	6	7
2054335	PROB	n/a	LTP342	ltpFR2	16	n/a	n/a	n/a	15	111	6	2	3
2057651	PROB	n/a	LTP342	ltpFR2	16	n/a	n/a	n/a	15	13	5	3	5
2059116	PROB	n/a	LTP342	ltpFR2	16	n/a	n/a	n/a	15	16	7	8	1
2062516	PROB	n/a	LTP342	ltpFR2	16	n/a	n/a	n/a	15	18	8	1	9
2065414	STOP	n/a	LTP342	ltpFR2	16	n/a	n/a	n/a	15	n/a	n/a	n/a	n/a
2067514	WORD	wordpools/wasnorm_wordpool_576.txt	LTP342	ltpFR2	16	10	PLUTO	1092	n/a	n/a	0	0	0
2070261	WORD	wordpools/wasnorm_wordpool_576.txt	LTP342	ltpFR2	16	10	VELVET	1555	n/a	n/a	0	0	0
2072761	WORD	wordpools/wasnorm_wordpool_576.txt	LTP342	ltpFR2	16	10	TYPIST	1532	n/a	n/a	0	0	0
2075276	WORD	wordpools/wasnorm_wordpool_576.txt	LTP342	ltpFR2	16	10	DENIM	446	n/a	n/a	0	0	0
2077742	WORD	wordpools/wasnorm_wordpool_576.txt	LTP342	ltpFR2	16	10	LACE	792	n/a	n/a	0	0	0
2080307	WORD	wordpools/wasnorm_wordpool_576.txt	LTP342	ltpFR2	16	10	FLUTE	585	n/a	n/a	0	0	0
2082807	WORD	wordpools/wasnorm_wordpool_576.txt	LTP342	ltpFR2	16	10	PRINCE	1124	n/a	n/a	0	0	0
2085338	WORD	wordpools/wasnorm_wordpool_576.txt	LTP342	ltpFR2	16	10	BRACES	164	n/a	n/a	0	0	0
2087887	WORD	wordpools/wasnorm_wordpool_576.txt	LTP342	ltpFR2	16	10	OUTDOORS	987	n/a	n/a	0	0	0
2090502	WORD	wordpools/wasnorm_wordpool_576.txt	LTP342	ltpFR2	16	10	MARS	873	n/a	n/a	0	0	0
2093234	WORD	wordpools/wasnorm_wordpool_576.txt	LTP342	ltpFR2	16	10	FOREHEAD	592	n/a	n/a	0	0	0
2095751	WORD	wordpools/wasnorm_wordpool_576.txt	LTP342	ltpFR2	16	10	DONKEY	484	n/a	n/a	0	0	0
2098349	WORD	wordpools/wasnorm_wordpool_576.txt	LTP342	ltpFR2	16	10	PRIMATE	1123	n/a	n/a	0	0	0
2100832	WORD	wordpools/wasnorm_wordpool_576.txt	LTP342	ltpFR2	16	10	JUNGLE	764	n/a	n/a	0	0	0
2103330	WORD	wordpools/wasnorm_wordpool_576.txt	LTP342	ltpFR2	16	10	GOBLIN	645	n/a	n/a	0	0	0
2105780	WORD	wordpools/wasnorm_wordpool_576.txt	LTP342	ltpFR2	16	10	PLIERS	1089	n/a	n/a	0	0	0
2108211	WORD	wordpools/wasnorm_wordpool_576.txt	LTP342	ltpFR2	16	10	HORSE	719	n/a	n/a	0	0	0
2110661	WORD	wordpools/wasnorm_wordpool_576.txt	LTP342	ltpFR2	16	10	IGLOO	734	n/a	n/a	0	0	0
2113309	WORD	wordpools/wasnorm_wordpool_576.txt	LTP342	ltpFR2	16	10	BOX	159	n/a	n/a	0	0	0
2115957	WORD	wordpools/wasnorm_wordpool_576.txt	LTP342	ltpFR2	16	10	GIFT	635	n/a	n/a	0	0	0
2118707	WORD	wordpools/wasnorm_wordpool_576.txt	LTP342	ltpFR2	16	10	MARROW	872	n/a	n/a	0	0	0
2121205	WORD	wordpools/wasnorm_wordpool_576.txt	LTP342	ltpFR2	16	10	FARMER	553	n/a	n/a	0	0	0
2123671	WORD	wordpools/wasnorm_wordpool_576.txt	LTP342	ltpFR2	16	10	DRESSER	496	n/a	n/a	0	0	0
2126169	WORD	wordpools/wasnorm_wordpool_576.txt	LTP342	ltpFR2	16	10	DIME	466	n/a	n/a	0	0	0
2127787	START	n/a	LTP342	ltpFR2	16	n/a	n/a	n/a	16	n/a	n/a	n/a	n/a
2128595	DISTRACTOR	n/a	LTP342	ltpFR2	16	10	n/a	n/a	n/a	n/a	0	0	0
2128603	PROB	n/a	LTP342	ltpFR2	16	n/a	n/a	n/a	16	12	2	9	1
2130951	PROB	n/a	LTP342	ltpFR2	16	n/a	n/a	n/a	16	19	8	6	5
2134432	PROB	n/a	LTP342	ltpFR2	16	n/a	n/a	n/a	16	17	7	8	2
2137698	PROB	n/a	LTP342	ltpFR2	16	n/a	n/a	n/a	16	15	5	7	3
2139631	PROB	n/a	LTP342	ltpFR2	16	n/a	n/a	n/a	16	13	7	2	4
2141396	PROB	n/a	LTP342	ltpFR2	16	n/a	n/a	n/a	16	8	3	2	3
2143328	PROB	n/a	LTP342	ltpFR2	16	n/a	n/a	n/a	16	11	4	1	6
2144645	PROB	n/a	LTP342	ltpFR2	16	n/a	n/a	n/a	16	12	8	2	1
2145845	PROB	n/a	LTP342	ltpFR2	16	n/a	n/a	n/a	16	13	7	4	2
2151786	STOP	n/a	LTP342	ltpFR2	16	n/a	n/a	n/a	16	n/a	n/a	n/a	n/a
2153525	REC_START	n/a	LTP342	ltpFR2	16	10	n/a	n/a	n/a	n/a	0	0	0
2156387	REC_WORD	wordpools/wasnorm_wordpool_576.txt	LTP342	ltpFR2	16	10	PRINCE	1124	n/a	n/a	0	0	0
2157324	REC_WORD	wordpools/wasnorm_wordpool_576.txt	LTP342	ltpFR2	16	10	VENUS	1557	n/a	n/a	0	0	0
2158256	REC_WORD	wordpools/wasnorm_wordpool_576.txt	LTP342	ltpFR2	16	10	DENIM	446	n/a	n/a	0	0	0
2159039	REC_WORD	wordpools/wasnorm_wordpool_576.txt	LTP342	ltpFR2	16	10	TYPIST	1532	n/a	n/a	0	0	0
2159862	REC_WORD	wordpools/wasnorm_wordpool_576.txt	LTP342	ltpFR2	16	10	VELVET	1555	n/a	n/a	0	0	0
2160795	REC_WORD	wordpools/wasnorm_wordpool_576.txt	LTP342	ltpFR2	16	10	LACE	792	n/a	n/a	0	0	0
2161744	REC_WORD	wordpools/wasnorm_wordpool_576.txt	LTP342	ltpFR2	16	10	FLUTE	585	n/a	n/a	0	0	0
2163053	REC_WORD	wordpools/wasnorm_wordpool_576.txt	LTP342	ltpFR2	16	10	OUTDOORS	987	n/a	n/a	0	0	0
2164588	REC_WORD	wordpools/wasnorm_wordpool_576.txt	LTP342	ltpFR2	16	10	BRACES	164	n/a	n/a	0	0	0
2166645	REC_WORD	wordpools/wasnorm_wordpool_576.txt	LTP342	ltpFR2	16	10	JUNGLE	764	n/a	n/a	0	0	0
2167450	REC_WORD	wordpools/wasnorm_wordpool_576.txt	LTP342	ltpFR2	16	10	PRIMATE	1123	n/a	n/a	0	0	0
2169020	REC_WORD	wordpools/wasnorm_wordpool_576.txt	LTP342	ltpFR2	16	10	GOBLIN	645	n/a	n/a	0	0	0
2170691	REC_WORD	wordpools/wasnorm_wordpool_576.txt	LTP342	ltpFR2	16	10	DONKEY	484	n/a	n/a	0	0	0
2175292	REC_WORD	wordpools/wasnorm_wordpool_576.txt	LTP342	ltpFR2	16	10	FOREHEAD	592	n/a	n/a	0	0	0
2178195	REC_WORD	wordpools/wasnorm_wordpool_576.txt	LTP342	ltpFR2	16	10	MARS	873	n/a	n/a	0	0	0
2183827	REC_WORD	wordpools/wasnorm_wordpool_576.txt	LTP342	ltpFR2	16	10	HORSE	719	n/a	n/a	0	0	0
2184811	REC_WORD	wordpools/wasnorm_wordpool_576.txt	LTP342	ltpFR2	16	10	PLIERS	1089	n/a	n/a	0	0	0
2186258	REC_WORD	wordpools/wasnorm_wordpool_576.txt	LTP342	ltpFR2	16	10	IGLOO	734	n/a	n/a	0	0	0
2187179	REC_WORD	wordpools/wasnorm_wordpool_576.txt	LTP342	ltpFR2	16	10	BOX	159	n/a	n/a	0	0	0
2187972	REC_WORD	wordpools/wasnorm_wordpool_576.txt	LTP342	ltpFR2	16	10	FARMER	553	n/a	n/a	0	0	0
2188997	REC_WORD	wordpools/wasnorm_wordpool_576.txt	LTP342	ltpFR2	16	10	MARROW	872	n/a	n/a	0	0	0
2191434	REC_WORD	wordpools/wasnorm_wordpool_576.txt	LTP342	ltpFR2	16	10	DIME	466	n/a	n/a	0	0	0
2198273	REC_WORD	wordpools/wasnorm_wordpool_576.txt	LTP342	ltpFR2	16	10	DRESSER	496	n/a	n/a	0	0	0
2243999	WORD	wordpools/wasnorm_wordpool_576.txt	LTP342	ltpFR2	16	11	GALLON	618	n/a	n/a	0	0	0
2246766	WORD	wordpools/wasnorm_wordpool_576.txt	LTP342	ltpFR2	16	11	COMET	353	n/a	n/a	0	0	0
2249197	WORD	wordpools/wasnorm_wordpool_576.txt	LTP342	ltpFR2	16	11	STAR	1373	n/a	n/a	0	0	0
2251680	WORD	wordpools/wasnorm_wordpool_576.txt	LTP342	ltpFR2	16	11	LIVER	833	n/a	n/a	0	0	0
2254445	WORD	wordpools/wasnorm_wordpool_576.txt	LTP342	ltpFR2	16	11	SHORTCAKE	1292	n/a	n/a	0	0	0
2257060	WORD	wordpools/wasnorm_wordpool_576.txt	LTP342	ltpFR2	16	11	COLONEL	348	n/a	n/a	0	0	0
2259626	WORD	wordpools/wasnorm_wordpool_576.txt	LTP342	ltpFR2	16	11	GARDEN	623	n/a	n/a	0	0	0
2262124	WORD	wordpools/wasnorm_wordpool_576.txt	LTP342	ltpFR2	16	11	BOUQUET	157	n/a	n/a	0	0	0
2264774	WORD	wordpools/wasnorm_wordpool_576.txt	LTP342	ltpFR2	16	11	MARKER	870	n/a	n/a	0	0	0
2267422	WORD	wordpools/wasnorm_wordpool_576.txt	LTP342	ltpFR2	16	11	BLOCKADE	137	n/a	n/a	0	0	0
2270087	WORD	wordpools/wasnorm_wordpool_576.txt	LTP342	ltpFR2	16	11	CLOCK	325	n/a	n/a	0	0	0
2272820	WORD	wordpools/wasnorm_wordpool_576.txt	LTP342	ltpFR2	16	11	PISTON	1076	n/a	n/a	0	0	0
2275586	WORD	wordpools/wasnorm_wordpool_576.txt	LTP342	ltpFR2	16	11	BARLEY	88	n/a	n/a	0	0	0
2278400	WORD	wordpools/wasnorm_wordpool_576.txt	LTP342	ltpFR2	16	11	KLEENEX	782	n/a	n/a	0	0	0
2281182	WORD	wordpools/wasnorm_wordpool_576.txt	LTP342	ltpFR2	16	11	VIKING	1565	n/a	n/a	0	0	0
2283782	WORD	wordpools/wasnorm_wordpool_576.txt	LTP342	ltpFR2	16	11	DAISY	435	n/a	n/a	0	0	0
2286430	WORD	wordpools/wasnorm_wordpool_576.txt	LTP342	ltpFR2	16	11	KEEPER	769	n/a	n/a	0	0	0
2289162	WORD	wordpools/wasnorm_wordpool_576.txt	LTP342	ltpFR2	16	11	FINGER	567	n/a	n/a	0	0	0
2291729	WORD	wordpools/wasnorm_wordpool_576.txt	LTP342	ltpFR2	16	11	ORCHID	982	n/a	n/a	0	0	0
2294511	WORD	wordpools/wasnorm_wordpool_576.txt	LTP342	ltpFR2	16	11	SURVEY	1414	n/a	n/a	0	0	0
2297258	WORD	wordpools/wasnorm_wordpool_576.txt	LTP342	ltpFR2	16	11	SPIDER	1351	n/a	n/a	0	0	0
2300057	WORD	wordpools/wasnorm_wordpool_576.txt	LTP342	ltpFR2	16	11	COCOON	339	n/a	n/a	0	0	0
2302757	WORD	wordpools/wasnorm_wordpool_576.txt	LTP342	ltpFR2	16	11	CRAYON	401	n/a	n/a	0	0	0
2305321	WORD	wordpools/wasnorm_wordpool_576.txt	LTP342	ltpFR2	16	11	PARENT	1013	n/a	n/a	0	0	0
2306938	START	n/a	LTP342	ltpFR2	16	n/a	n/a	n/a	17	n/a	n/a	n/a	n/a
2307822	DISTRACTOR	n/a	LTP342	ltpFR2	16	11	n/a	n/a	n/a	n/a	0	0	0
2307838	PROB	n/a	LTP342	ltpFR2	16	n/a	n/a	n/a	17	19	8	6	5
2310787	PROB	n/a	LTP342	ltpFR2	16	n/a	n/a	n/a	17	14	8	3	3
2312218	PROB	n/a	LTP342	ltpFR2	16	n/a	n/a	n/a	17	16	6	2	8
2314234	PROB	n/a	LTP342	ltpFR2	16	n/a	n/a	n/a	17	18	8	5	5
2315684	PROB	n/a	LTP342	ltpFR2	16	n/a	n/a	n/a	17	10	5	2	3
2317867	PROB	n/a	LTP342	ltpFR2	16	n/a	n/a	n/a	17	14	2	5	7
2320865	PROB	n/a	LTP342	ltpFR2	16	n/a	n/a	n/a	17	16	6	5	5
2323097	PROB	n/a	LTP342	ltpFR2	16	n/a	n/a	n/a	17	13	6	6	1
2324514	PROB	n/a	LTP342	ltpFR2	16	n/a	n/a	n/a	17	18	6	9	3
2326079	PROB	n/a	LTP342	ltpFR2	16	n/a	n/a	n/a	17	14	6	1	7
2327345	PROB	n/a	LTP342	ltpFR2	16	n/a	n/a	n/a	17	13	8	1	4
2329044	PROB	n/a	LTP342	ltpFR2	16	n/a	n/a	n/a	17	11	5	4	2
2330118	STOP	n/a	LTP342	ltpFR2	16	n/a	n/a	n/a	17	n/a	n/a	n/a	n/a
2332827	REC_START	n/a	LTP342	ltpFR2	16	11	n/a	n/a	n/a	n/a	0	0	0
2338880	REC_WORD	wordpools/wasnorm_wordpool_576.txt	LTP342	ltpFR2	16	11	BUCKET	184	n/a	n/a	0	0	0
2339526	REC_WORD	wordpools/wasnorm_wordpool_576.txt	LTP342	ltpFR2	16	11	COMET	353	n/a	n/a	0	0	0
2340185	REC_WORD	wordpools/wasnorm_wordpool_576.txt	LTP342	ltpFR2	16	11	STAR	1373	n/a	n/a	0	0	0
2344670	REC_WORD	wordpools/wasnorm_wordpool_576.txt	LTP342	ltpFR2	16	11	GIFT	635	n/a	n/a	0	0	0
2346261	REC_WORD	wordpools/wasnorm_wordpool_576.txt	LTP342	ltpFR2	16	11	GARDEN	623	n/a	n/a	0	0	0
2347105	REC_WORD	wordpools/wasnorm_wordpool_576.txt	LTP342	ltpFR2	16	11	BOUQUET	157	n/a	n/a	0	0	0
2357131	REC_WORD	wordpools/wasnorm_wordpool_576.txt	LTP342	ltpFR2	16	11	ORCHID	982	n/a	n/a	0	0	0
2360034	REC_WORD	wordpools/wasnorm_wordpool_576.txt	LTP342	ltpFR2	16	11	VIKING	1565	n/a	n/a	0	0	0
2361839	REC_WORD	wordpools/wasnorm_wordpool_576.txt	LTP342	ltpFR2	16	11	FINGER	567	n/a	n/a	0	0	0
2363590	REC_WORD	wordpools/wasnorm_wordpool_576.txt	LTP342	ltpFR2	16	11	KEEPER	769	n/a	n/a	0	0	0
2364729	REC_WORD	wordpools/wasnorm_wordpool_576.txt	LTP342	ltpFR2	16	11	KLEENEX	782	n/a	n/a	0	0	0
2373205	REC_WORD	wordpools/wasnorm_wordpool_576.txt	LTP342	ltpFR2	16	11	PISTON	1076	n/a	n/a	0	0	0
2374218	REC_WORD	wordpools/wasnorm_wordpool_576.txt	LTP342	ltpFR2	16	11	BARLEY	88	n/a	n/a	0	0	0
2381212	REC_WORD	wordpools/wasnorm_wordpool_576.txt	LTP342	ltpFR2	16	11	DAISY	435	n/a	n/a	0	0	0
2423285	WORD	wordpools/wasnorm_wordpool_576.txt	LTP342	ltpFR2	16	12	ICING	732	n/a	n/a	0	0	0
2425784	WORD	wordpools/wasnorm_wordpool_576.txt	LTP342	ltpFR2	16	12	STATUE	1374	n/a	n/a	0	0	0
2428516	WORD	wordpools/wasnorm_wordpool_576.txt	LTP342	ltpFR2	16	12	ASIA	46	n/a	n/a	0	0	0
2431098	WORD	wordpools/wasnorm_wordpool_576.txt	LTP342	ltpFR2	16	12	PAIL	1002	n/a	n/a	0	0	0
2433614	WORD	wordpools/wasnorm_wordpool_576.txt	LTP342	ltpFR2	16	12	AGENT	10	n/a	n/a	0	0	0
2436079	WORD	wordpools/wasnorm_wordpool_576.txt	LTP342	ltpFR2	16	12	REPORT	1184	n/a	n/a	0	0	0
2438679	WORD	wordpools/wasnorm_wordpool_576.txt	LTP342	ltpFR2	16	12	NOTEBOOK	959	n/a	n/a	0	0	0
2441226	WORD	wordpools/wasnorm_wordpool_576.txt	LTP342	ltpFR2	16	12	TREAT	1501	n/a	n/a	0	0	0
2444042	WORD	wordpools/wasnorm_wordpool_576.txt	LTP342	ltpFR2	16	12	GARBAGE	622	n/a	n/a	0	0	0
2446525	WORD	wordpools/wasnorm_wordpool_576.txt	LTP342	ltpFR2	16	12	SOFTBALL	1343	n/a	n/a	0	0	0
2449040	WORD	wordpools/wasnorm_wordpool_576.txt	LTP342	ltpFR2	16	12	FIDDLE	561	n/a	n/a	0	0	0
2451639	WORD	wordpools/wasnorm_wordpool_576.txt	LTP342	ltpFR2	16	12	BALLOON	75	n/a	n/a	0	0	0
2454237	WORD	wordpools/wasnorm_wordpool_576.txt	LTP342	ltpFR2	16	12	OZONE	996	n/a	n/a	0	0	0
2456787	WORD	wordpools/wasnorm_wordpool_576.txt	LTP342	ltpFR2	16	12	WORKER	1621	n/a	n/a	0	0	0
2459302	WORD	wordpools/wasnorm_wordpool_576.txt	LTP342	ltpFR2	16	12	ROOSTER	1209	n/a	n/a	0	0	0
2461851	WORD	wordpools/wasnorm_wordpool_576.txt	LTP342	ltpFR2	16	12	AUTHOR	61	n/a	n/a	0	0	0
2464283	WORD	wordpools/wasnorm_wordpool_576.txt	LTP342	ltpFR2	16	12	MUSTARD	935	n/a	n/a	0	0	0
2466799	WORD	wordpools/wasnorm_wordpool_576.txt	LTP342	ltpFR2	16	12	FRANCE	601	n/a	n/a	0	0	0
2469631	WORD	wordpools/wasnorm_wordpool_576.txt	LTP342	ltpFR2	16	12	PIGEON	1065	n/a	n/a	0	0	0
2472062	WORD	wordpools/wasnorm_wordpool_576.txt	LTP342	ltpFR2	16	12	LADDER	793	n/a	n/a	0	0	0
2474596	WORD	wordpools/wasnorm_wordpool_576.txt	LTP342	ltpFR2	16	12	JUGGLER	763	n/a	n/a	0	0	0
2477277	WORD	wordpools/wasnorm_wordpool_576.txt	LTP342	ltpFR2	16	12	BREAST	171	n/a	n/a	0	0	0
2479827	WORD	wordpools/wasnorm_wordpool_576.txt	LTP342	ltpFR2	16	12	OFFICE	972	n/a	n/a	0	0	0
2482458	WORD	wordpools/wasnorm_wordpool_576.txt	LTP342	ltpFR2	16	12	WASP	1593	n/a	n/a	0	0	0
2484074	START	n/a	LTP342	ltpFR2	16	n/a	n/a	n/a	18	n/a	n/a	n/a	n/a
2485000	DISTRACTOR	n/a	LTP342	ltpFR2	16	12	n/a	n/a	n/a	n/a	0	0	0
2485007	PROB	n/a	LTP342	ltpFR2	16	n/a	n/a	n/a	18	23	7	8	8
2487690	PROB	n/a	LTP342	ltpFR2	16	n/a	n/a	n/a	18	9	6	1	2
2489271	PROB	n/a	LTP342	ltpFR2	16	n/a	n/a	n/a	18	19	9	1	9
2490755	PROB	n/a	LTP342	ltpFR2	16	n/a	n/a	n/a	18	15	9	2	4
2492604	PROB	n/a	LTP342	ltpFR2	16	n/a	n/a	n/a	18	10	6	3	1
2494670	PROB	n/a	LTP342	ltpFR2	16	n/a	n/a	n/a	18	15	9	1	5
2496052	PROB	n/a	LTP342	ltpFR2	16	n/a	n/a	n/a	18	16	6	8	2
2497569	PROB	n/a	LTP342	ltpFR2	16	n/a	n/a	n/a	18	12	9	2	1
2498685	PROB	n/a	LTP342	ltpFR2	16	n/a	n/a	n/a	18	17	9	2	6
2500333	PROB	n/a	LTP342	ltpFR2	16	n/a	n/a	n/a	18	13	4	2	7
2502265	PROB	n/a	LTP342	ltpFR2	16	n/a	n/a	n/a	18	7	4	1	2
2504599	PROB	n/a	LTP342	ltpFR2	16	n/a	n/a	n/a	18	6	2	1	3
2505831	PROB	n/a	LTP342	ltpFR2	16	n/a	n/a	n/a	18	11	3	2	5
2507180	STOP	n/a	LTP342	ltpFR2	16	n/a	n/a	n/a	18	n/a	n/a	n/a	n/a
2509996	REC_START	n/a	LTP342	ltpFR2	16	12	n/a	n/a	n/a	n/a	0	0	0
2514075	REC_WORD	wordpools/wasnorm_wordpool_576.txt	LTP342	ltpFR2	16	12	ROOSTER	1209	n/a	n/a	0	0	0
2514941	REC_WORD	wordpools/wasnorm_wordpool_576.txt	LTP342	ltpFR2	16	12	PIGEON	1065	n/a	n/a	0	0	0
2515703	REC_WORD	wordpools/wasnorm_wordpool_576.txt	LTP342	ltpFR2	16	12	LADDER	793	n/a	n/a	0	0	0
2516452	REC_WORD	wordpools/wasnorm_wordpool_576.txt	LTP342	ltpFR2	16	12	JUGGLER	763	n/a	n/a	0	0	0
2517351	REC_WORD	wordpools/wasnorm_wordpool_576.txt	LTP342	ltpFR2	16	12	WORKER	1621	n/a	n/a	0	0	0
2519354	REC_WORD	wordpools/wasnorm_wordpool_576.txt	LTP342	ltpFR2	16	12	BREAST	171	n/a	n/a	0	0	0
2520604	REC_WORD	wordpools/wasnorm_wordpool_576.txt	LTP342	ltpFR2	16	12	STATUE	1374	n/a	n/a	0	0	0
2521551	REC_WORD	wordpools/wasnorm_wordpool_576.txt	LTP342	ltpFR2	16	12	ICING	732	n/a	n/a	0	0	0
2524674	REC_WORD	wordpools/wasnorm_wordpool_576.txt	LTP342	ltpFR2	16	12	MUSTARD	935	n/a	n/a	0	0	0
2525415	REC_WORD	wordpools/wasnorm_wordpool_576.txt	LTP342	ltpFR2	16	12	FRANCE	601	n/a	n/a	0	0	0
2526403	REC_WORD	wordpools/wasnorm_wordpool_576.txt	LTP342	ltpFR2	16	12	AUTHOR	61	n/a	n/a	0	0	0
2528170	REC_WORD	wordpools/wasnorm_wordpool_576.txt	LTP342	ltpFR2	16	12	FIDDLE	561	n/a	n/a	0	0	0
2529212	REC_WORD	wordpools/wasnorm_wordpool_576.txt	LTP342	ltpFR2	16	12	BALLOON	75	n/a	n/a	0	0	0
2530217	REC_WORD	wordpools/wasnorm_wordpool_576.txt	LTP342	ltpFR2	16	12	OZONE	996	n/a	n/a	0	0	0
2600421	DISTRACTOR	n/a	LTP342	ltpFR2	16	13	n/a	n/a	n/a	n/a	0	0	0
2600421	START	n/a	LTP342	ltpFR2	16	n/a	n/a	n/a	19	n/a	n/a	n/a	n/a
2600437	PROB	n/a	LTP342	ltpFR2	16	n/a	n/a	n/a	19	17	8	7	2
2602771	PROB	n/a	LTP342	ltpFR2	16	n/a	n/a	n/a	19	5	1	3	1
2603804	PROB	n/a	LTP342	ltpFR2	16	n/a	n/a	n/a	19	17	6	8	3
2605319	PROB	n/a	LTP342	ltpFR2	16	n/a	n/a	n/a	19	17	9	5	3
2607418	PROB	n/a	LTP342	ltpFR2	16	n/a	n/a	n/a	19	9	1	4	4
2608917	PROB	n/a	LTP342	ltpFR2	16	n/a	n/a	n/a	19	15	5	7	3
2610850	PROB	n/a	LTP342	ltpFR2	16	n/a	n/a	n/a	19	19	2	8	9
2612600	PROB	n/a	LTP342	ltpFR2	16	n/a	n/a	n/a	19	23	7	8	8
2614599	PROB	n/a	LTP342	ltpFR2	16	n/a	n/a	n/a	19	19	6	7	6
2617063	PROB	n/a	LTP342	ltpFR2	16	n/a	n/a	n/a	19	11	8	2	1
2618429	PROB	n/a	LTP342	ltpFR2	16	n/a	n/a	n/a	19	15	4	3	6
2620696	PROB	n/a	LTP342	ltpFR2	16	n/a	n/a	n/a	19	13	5	1	7
2623079	STOP	n/a	LTP342	ltpFR2	16	n/a	n/a	n/a	19	n/a	n/a	n/a	n/a
2625476	WORD	wordpools/wasnorm_wordpool_576.txt	LTP342	ltpFR2	16	13	BUNNY	198	n/a	n/a	0	0	0
2628042	WORD	wordpools/wasnorm_wordpool_576.txt	LTP342	ltpFR2	16	13	TRANSPLANT	1496	n/a	n/a	0	0	0
2630592	WORD	wordpools/wasnorm_wordpool_576.txt	LTP342	ltpFR2	16	13	SADDLE	1221	n/a	n/a	0	0	0
2633173	WORD	wordpools/wasnorm_wordpool_576.txt	LTP342	ltpFR2	16	13	KETCHUP	771	n/a	n/a	0	0	0
2635789	WORD	wordpools/wasnorm_wordpool_576.txt	LTP342	ltpFR2	16	13	DORM	488	n/a	n/a	0	0	0
2638220	WORD	wordpools/wasnorm_wordpool_576.txt	LTP342	ltpFR2	16	13	PLASTER	1085	n/a	n/a	0	0	0
2640720	WORD	wordpools/wasnorm_wordpool_576.txt	LTP342	ltpFR2	16	13	HERO	706	n/a	n/a	0	0	0
2643285	WORD	wordpools/wasnorm_wordpool_576.txt	LTP342	ltpFR2	16	13	STOVE	1388	n/a	n/a	0	0	0
2645967	WORD	wordpools/wasnorm_wordpool_576.txt	LTP342	ltpFR2	16	13	SCARF	1246	n/a	n/a	0	0	0
2648550	WORD	wordpools/wasnorm_wordpool_576.txt	LTP342	ltpFR2	16	13	NURSE	963	n/a	n/a	0	0	0
2651065	WORD	wordpools/wasnorm_wordpool_576.txt	LTP342	ltpFR2	16	13	TABLET	1427	n/a	n/a	0	0	0
2653497	WORD	wordpools/wasnorm_wordpool_576.txt	LTP342	ltpFR2	16	13	RAFT	1159	n/a	n/a	0	0	0
2656112	WORD	wordpools/wasnorm_wordpool_576.txt	LTP342	ltpFR2	16	13	STAKE	1368	n/a	n/a	0	0	0
2658928	WORD	wordpools/wasnorm_wordpool_576.txt	LTP342	ltpFR2	16	13	CUPBOARD	425	n/a	n/a	0	0	0
2661493	WORD	wordpools/wasnorm_wordpool_576.txt	LTP342	ltpFR2	16	13	PICTURE	1061	n/a	n/a	0	0	0
2664309	WORD	wordpools/wasnorm_wordpool_576.txt	LTP342	ltpFR2	16	13	DRAWING	494	n/a	n/a	0	0	0
2667007	WORD	wordpools/wasnorm_wordpool_576.txt	LTP342	ltpFR2	16	13	RELISH	1183	n/a	n/a	0	0	0
2669557	WORD	wordpools/wasnorm_wordpool_576.txt	LTP342	ltpFR2	16	13	ZIPPER	1636	n/a	n/a	0	0	0
2672338	WORD	wordpools/wasnorm_wordpool_576.txt	LTP342	ltpFR2	16	13	CATTLE	261	n/a	n/a	0	0	0
2674937	WORD	wordpools/wasnorm_wordpool_576.txt	LTP342	ltpFR2	16	13	BEEF	113	n/a	n/a	0	0	0
2677653	WORD	wordpools/wasnorm_wordpool_576.txt	LTP342	ltpFR2	16	13	STALLION	1369	n/a	n/a	0	0	0
2680318	WORD	wordpools/wasnorm_wordpool_576.txt	LTP342	ltpFR2	16	13	ICEBERG	731	n/a	n/a	0	0	0
2682784	WORD	wordpools/wasnorm_wordpool_576.txt	LTP342	ltpFR2	16	13	PECAN	1036	n/a	n/a	0	0	0
2685416	WORD	wordpools/wasnorm_wordpool_576.txt	LTP342	ltpFR2	16	13	DRINK	498	n/a	n/a	0	0	0
2687032	START	n/a	LTP342	ltpFR2	16	n/a	n/a	n/a	20	n/a	n/a	n/a	n/a
2688072	DISTRACTOR	n/a	LTP342	ltpFR2	16	13	n/a	n/a	n/a	n/a	0	0	0
2688081	PROB	n/a	LTP342	ltpFR2	16	n/a	n/a	n/a	20	17	6	4	7
2690748	PROB	n/a	LTP342	ltpFR2	16	n/a	n/a	n/a	20	22	9	9	4
2692246	PROB	n/a	LTP342	ltpFR2	16	n/a	n/a	n/a	20	13	1	7	5
2693630	PROB	n/a	LTP342	ltpFR2	16	n/a	n/a	n/a	20	23	9	7	7
2695762	PROB	n/a	LTP342	ltpFR2	16	n/a	n/a	n/a	20	9	5	1	3
2697227	PROB	n/a	LTP342	ltpFR2	16	n/a	n/a	n/a	20	10	4	3	3
2698511	PROB	n/a	LTP342	ltpFR2	16	n/a	n/a	n/a	20	17	1	9	7
2700209	PROB	n/a	LTP342	ltpFR2	16	n/a	n/a	n/a	20	18	3	6	9
2702809	PROB	n/a	LTP342	ltpFR2	16	n/a	n/a	n/a	20	8	4	2	2
2703907	PROB	n/a	LTP342	ltpFR2	16	n/a	n/a	n/a	20	15	7	3	5
2705323	PROB	n/a	LTP342	ltpFR2	16	n/a	n/a	n/a	20	14	2	7	5
2707289	PROB	n/a	LTP342	ltpFR2	16	n/a	n/a	n/a	20	15	1	8	6
2711032	STOP	n/a	LTP342	ltpFR2	16	n/a	n/a	n/a	20	n/a	n/a	n/a	n/a
2712937	REC_START	n/a	LTP342	ltpFR2	16	13	n/a	n/a	n/a	n/a	0	0	0
2713848	REC_WORD	wordpools/wasnorm_wordpool_576.txt	LTP342	ltpFR2	16	13	CATTLE	261	n/a	n/a	0	0	0
2714555	REC_WORD	wordpools/wasnorm_wordpool_576.txt	LTP342	ltpFR2	16	13	BEEF	113	n/a	n/a	0	0	0
2715058	REC_WORD	wordpools/wasnorm_wordpool_576.txt	LTP342	ltpFR2	16	13	STALLION	1369	n/a	n/a	0	0	0
2715919	REC_WORD	wordpools/wasnorm_wordpool_576.txt	LTP342	ltpFR2	16	13	ICEBERG	731	n/a	n/a	0	0	0
2716618	REC_WORD	wordpools/wasnorm_wordpool_576.txt	LTP342	ltpFR2	16	13	ZIPPER	1636	n/a	n/a	0	0	0
2718153	REC_WORD	wordpools/wasnorm_wordpool_576.txt	LTP342	ltpFR2	16	13	CABINET	212	n/a	n/a	0	0	0
2718983	REC_WORD	wordpools/wasnorm_wordpool_576.txt	LTP342	ltpFR2	16	13	RELISH	1183	n/a	n/a	0	0	0
2719880	REC_WORD	wordpools/wasnorm_wordpool_576.txt	LTP342	ltpFR2	16	13	PICTURE	1061	n/a	n/a	0	0	0
2720654	REC_WORD	wordpools/wasnorm_wordpool_576.txt	LTP342	ltpFR2	16	13	DRAWING	494	n/a	n/a	0	0	0
2722558	REC_WORD	wordpools/wasnorm_wordpool_576.txt	LTP342	ltpFR2	16	13	BUNNY	198	n/a	n/a	0	0	0
2723147	REC_WORD	wordpools/wasnorm_wordpool_576.txt	LTP342	ltpFR2	16	13	TABLET	1427	n/a	n/a	0	0	0
2724223	REC_WORD	wordpools/wasnorm_wordpool_576.txt	LTP342	ltpFR2	16	13	NURSE	963	n/a	n/a	0	0	0
2725776	REC_WORD	wordpools/wasnorm_wordpool_576.txt	LTP342	ltpFR2	16	13	TRANSPLANT	1496	n/a	n/a	0	0	0
2729534	REC_WORD	wordpools/wasnorm_wordpool_576.txt	LTP342	ltpFR2	16	13	SADDLE	1221	n/a	n/a	0	0	0
2732941	REC_WORD	wordpools/wasnorm_wordpool_576.txt	LTP342	ltpFR2	16	13	KETCHUP	771	n/a	n/a	0	0	0
2733687	REC_WORD	wordpools/wasnorm_wordpool_576.txt	LTP342	ltpFR2	16	13	DORM	488	n/a	n/a	0	0	0
2734623	REC_WORD	wordpools/wasnorm_wordpool_576.txt	LTP342	ltpFR2	16	13	PLASTER	1085	n/a	n/a	0	0	0
2735488	REC_WORD	wordpools/wasnorm_wordpool_576.txt	LTP342	ltpFR2	16	13	STOVE	1388	n/a	n/a	0	0	0
2736422	REC_WORD	wordpools/wasnorm_wordpool_576.txt	LTP342	ltpFR2	16	13	HERO	706	n/a	n/a	0	0	0
2757904	REC_WORD	wordpools/wasnorm_wordpool_576.txt	LTP342	ltpFR2	16	13	RAFT	1159	n/a	n/a	0	0	0
2803412	WORD	wordpools/wasnorm_wordpool_576.txt	LTP342	ltpFR2	16	14	MISSILE	900	n/a	n/a	0	0	0
2805978	WORD	wordpools/wasnorm_wordpool_576.txt	LTP342	ltpFR2	16	14	PAPER	1011	n/a	n/a	0	0	0
2808644	WORD	wordpools/wasnorm_wordpool_576.txt	LTP342	ltpFR2	16	14	STAPLE	1371	n/a	n/a	0	0	0
2811292	WORD	wordpools/wasnorm_wordpool_576.txt	LTP342	ltpFR2	16	14	EGYPT	519	n/a	n/a	0	0	0
2813792	WORD	wordpools/wasnorm_wordpool_576.txt	LTP342	ltpFR2	16	14	LIZARD	834	n/a	n/a	0	0	0
2816541	WORD	wordpools/wasnorm_wordpool_576.txt	LTP342	ltpFR2	16	14	SWAMP	1416	n/a	n/a	0	0	0
2819072	WORD	wordpools/wasnorm_wordpool_576.txt	LTP342	ltpFR2	16	14	PORTRAIT	1111	n/a	n/a	0	0	0
2821688	WORD	wordpools/wasnorm_wordpool_576.txt	LTP342	ltpFR2	16	14	HOOK	715	n/a	n/a	0	0	0
2824169	WORD	wordpools/wasnorm_wordpool_576.txt	LTP342	ltpFR2	16	14	SCISSORS	1250	n/a	n/a	0	0	0
2826686	WORD	wordpools/wasnorm_wordpool_576.txt	LTP342	ltpFR2	16	14	CAPTIVE	240	n/a	n/a	0	0	0
2829200	WORD	wordpools/wasnorm_wordpool_576.txt	LTP342	ltpFR2	16	14	RECORD	1176	n/a	n/a	0	0	0
2831834	WORD	wordpools/wasnorm_wordpool_576.txt	LTP342	ltpFR2	16	14	CARROT	249	n/a	n/a	0	0	0
2834365	WORD	wordpools/wasnorm_wordpool_576.txt	LTP342	ltpFR2	16	14	NEUTRON	947	n/a	n/a	0	0	0
2837080	WORD	wordpools/wasnorm_wordpool_576.txt	LTP342	ltpFR2	16	14	CLAMP	316	n/a	n/a	0	0	0
2839613	WORD	wordpools/wasnorm_wordpool_576.txt	LTP342	ltpFR2	16	14	SPHINX	1349	n/a	n/a	0	0	0
2842111	WORD	wordpools/wasnorm_wordpool_576.txt	LTP342	ltpFR2	16	14	LAGOON	795	n/a	n/a	0	0	0
2844927	WORD	wordpools/wasnorm_wordpool_576.txt	LTP342	ltpFR2	16	14	SKETCH	1315	n/a	n/a	0	0	0
2847710	WORD	wordpools/wasnorm_wordpool_576.txt	LTP342	ltpFR2	16	14	SCRIBBLE	1256	n/a	n/a	0	0	0
2850258	WORD	wordpools/wasnorm_wordpool_576.txt	LTP342	ltpFR2	16	14	GRAVEL	659	n/a	n/a	0	0	0
2852874	WORD	wordpools/wasnorm_wordpool_576.txt	LTP342	ltpFR2	16	14	SPACE	1345	n/a	n/a	0	0	0
2855540	WORD	wordpools/wasnorm_wordpool_576.txt	LTP342	ltpFR2	16	14	RATTLE	1170	n/a	n/a	0	0	0
2858271	WORD	wordpools/wasnorm_wordpool_576.txt	LTP342	ltpFR2	16	14	HARP	689	n/a	n/a	0	0	0
2860969	WORD	wordpools/wasnorm_wordpool_576.txt	LTP342	ltpFR2	16	14	OUTLAW	989	n/a	n/a	0	0	0
2863418	WORD	wordpools/wasnorm_wordpool_576.txt	LTP342	ltpFR2	16	14	RABBIT	1152	n/a	n/a	0	0	0
2865034	START	n/a	LTP342	ltpFR2	16	n/a	n/a	n/a	21	n/a	n/a	n/a	n/a
2865920	DISTRACTOR	n/a	LTP342	ltpFR2	16	14	n/a	n/a	n/a	n/a	0	0	0
2865934	PROB	n/a	LTP342	ltpFR2	16	n/a	n/a	n/a	21	12	6	2	4
2868083	PROB	n/a	LTP342	ltpFR2	16	n/a	n/a	n/a	21	16	5	5	6
2869399	PROB	n/a	LTP342	ltpFR2	16	n/a	n/a	n/a	21	17	6	6	5
2872715	PROB	n/a	LTP342	ltpFR2	16	n/a	n/a	n/a	21	13	4	6	3
2874097	PROB	n/a	LTP342	ltpFR2	16	n/a	n/a	n/a	21	17	9	7	1
2875896	PROB	n/a	LTP342	ltpFR2	16	n/a	n/a	n/a	21	15	8	6	1
2877329	PROB	n/a	LTP342	ltpFR2	16	n/a	n/a	n/a	21	14	8	1	5
2878729	PROB	n/a	LTP342	ltpFR2	16	n/a	n/a	n/a	21	5	1	3	1
2879645	PROB	n/a	LTP342	ltpFR2	16	n/a	n/a	n/a	21	15	7	7	1
2881844	PROB	n/a	LTP342	ltpFR2	16	n/a	n/a	n/a	21	7	2	1	4
2883043	PROB	n/a	LTP342	ltpFR2	16	n/a	n/a	n/a	21	15	9	4	2
2884859	PROB	n/a	LTP342	ltpFR2	16	n/a	n/a	n/a	21	13	1	4	8
2887976	STOP	n/a	LTP342	ltpFR2	16	n/a	n/a	n/a	21	n/a	n/a	n/a	n/a
2890956	REC_START	n/a	LTP342	ltpFR2	16	14	n/a	n/a	n/a	n/a	0	0	0
2891511	REC_WORD	wordpools/wasnorm_wordpool_576.txt	LTP342	ltpFR2	16	14	OUTLAW	989	n/a	n/a	0	0	0
2892459	REC_WORD	wordpools/wasnorm_wordpool_576.txt	LTP342	ltpFR2	16	14	RABBIT	1152	n/a	n/a	0	0	0
2893193	REC_WORD	wordpools/wasnorm_wordpool_576.txt	LTP342	ltpFR2	16	14	SCARF	1246	n/a	n/a	0	0	0
2894709	REC_WORD	wordpools/wasnorm_wordpool_576.txt	LTP342	ltpFR2	16	14	EGYPT	519	n/a	n/a	0	0	0
2895517	REC_WORD	wordpools/wasnorm_wordpool_576.txt	LTP342	ltpFR2	16	14	STAPLE	1371	n/a	n/a	0	0	0
2896561	REC_WORD	wordpools/wasnorm_wordpool_576.txt	LTP342	ltpFR2	16	14	PORTRAIT	1111	n/a	n/a	0	0	0
2897505	REC_WORD	wordpools/wasnorm_wordpool_576.txt	LTP342	ltpFR2	16	14	HOOK	715	n/a	n/a	0	0	0
2899368	REC_WORD	wordpools/wasnorm_wordpool_576.txt	LTP342	ltpFR2	16	14	SWAMP	1416	n/a	n/a	0	0	0
2905527	REC_WORD	wordpools/wasnorm_wordpool_576.txt	LTP342	ltpFR2	16	14	MISSILE	900	n/a	n/a	0	0	0
2906489	REC_WORD	wordpools/wasnorm_wordpool_576.txt	LTP342	ltpFR2	16	14	PAPER	1011	n/a	n/a	0	0	0
2981398	DISTRACTOR	n/a	LTP342	ltpFR2	16	15	n/a	n/a	n/a	n/a	0	0	0
2981398	START	n/a	LTP342	ltpFR2	16	n/a	n/a	n/a	22	n/a	n/a	n/a	n/a
2981415	PROB	n/a	LTP342	ltpFR2	16	n/a	n/a	n/a	22	21	6	8	7
2984946	PROB	n/a	LTP342	ltpFR2	16	n/a	n/a	n/a	22	19	2	9	8
2986263	PROB	n/a	LTP342	ltpFR2	16	n/a	n/a	n/a	22	16	9	5	2
2987746	PROB	n/a	LTP342	ltpFR2	16	n/a	n/a	n/a	22	16	8	5	3
2989762	PROB	n/a	LTP342	ltpFR2	16	n/a	n/a	n/a	22	14	2	3	9
2991144	PROB	n/a	LTP342	ltpFR2	16	n/a	n/a	n/a	22	14	4	4	6
2992627	PROB	n/a	LTP342	ltpFR2	16	n/a	n/a	n/a	22	14	5	5	4
2993926	PROB	n/a	LTP342	ltpFR2	16	n/a	n/a	n/a	22	13	2	2	9
2995275	PROB	n/a	LTP342	ltpFR2	16	n/a	n/a	n/a	22	14	5	1	8
2997274	PROB	n/a	LTP342	ltpFR2	16	n/a	n/a	n/a	22	13	8	4	1
2998858	PROB	n/a	LTP342	ltpFR2	16	n/a	n/a	n/a	22	17	2	9	6
3001472	PROB	n/a	LTP342	ltpFR2	16	n/a	n/a	n/a	22	16	8	6	2
3003138	PROB	n/a	LTP342	ltpFR2	16	n/a	n/a	n/a	22	13	6	6	1
3004435	STOP	n/a	LTP342	ltpFR2	16	n/a	n/a	n/a	22	n/a	n/a	n/a	n/a
3006353	WORD	wordpools/wasnorm_wordpool_576.txt	LTP342	ltpFR2	16	15	WHISTLE	1606	n/a	n/a	0	0	0
3009102	WORD	wordpools/wasnorm_wordpool_576.txt	LTP342	ltpFR2	16	15	CELLAR	267	n/a	n/a	0	0	0
3011719	WORD	wordpools/wasnorm_wordpool_576.txt	LTP342	ltpFR2	16	15	FLEET	578	n/a	n/a	0	0	0
3014250	WORD	wordpools/wasnorm_wordpool_576.txt	LTP342	ltpFR2	16	15	HAWK	692	n/a	n/a	0	0	0
3016850	WORD	wordpools/wasnorm_wordpool_576.txt	LTP342	ltpFR2	16	15	PEPPER	1047	n/a	n/a	0	0	0
3019598	WORD	wordpools/wasnorm_wordpool_576.txt	LTP342	ltpFR2	16	15	ARMY	39	n/a	n/a	0	0	0
3022396	WORD	wordpools/wasnorm_wordpool_576.txt	LTP342	ltpFR2	16	15	SHOVEL	1295	n/a	n/a	0	0	0
3024829	WORD	wordpools/wasnorm_wordpool_576.txt	LTP342	ltpFR2	16	15	CANYON	235	n/a	n/a	0	0	0
3027645	WORD	wordpools/wasnorm_wordpool_576.txt	LTP342	ltpFR2	16	15	HIKER	708	n/a	n/a	0	0	0
3030143	WORD	wordpools/wasnorm_wordpool_576.txt	LTP342	ltpFR2	16	15	TROMBONE	1508	n/a	n/a	0	0	0
3032709	WORD	wordpools/wasnorm_wordpool_576.txt	LTP342	ltpFR2	16	15	BLACKBOARD	133	n/a	n/a	0	0	0
3035357	WORD	wordpools/wasnorm_wordpool_576.txt	LTP342	ltpFR2	16	15	HORNET	718	n/a	n/a	0	0	0
3037889	WORD	wordpools/wasnorm_wordpool_576.txt	LTP342	ltpFR2	16	15	CASKET	255	n/a	n/a	0	0	0
3040338	WORD	wordpools/wasnorm_wordpool_576.txt	LTP342	ltpFR2	16	15	QUAIL	1147	n/a	n/a	0	0	0
3042937	WORD	wordpools/wasnorm_wordpool_576.txt	LTP342	ltpFR2	16	15	REBEL	1172	n/a	n/a	0	0	0
3045603	WORD	wordpools/wasnorm_wordpool_576.txt	LTP342	ltpFR2	16	15	FLAG	573	n/a	n/a	0	0	0
3048234	WORD	wordpools/wasnorm_wordpool_576.txt	LTP342	ltpFR2	16	15	ROD	1203	n/a	n/a	0	0	0
3050884	WORD	wordpools/wasnorm_wordpool_576.txt	LTP342	ltpFR2	16	15	INFANT	737	n/a	n/a	0	0	0
3053332	WORD	wordpools/wasnorm_wordpool_576.txt	LTP342	ltpFR2	16	15	CARRIAGE	248	n/a	n/a	0	0	0
3055815	WORD	wordpools/wasnorm_wordpool_576.txt	LTP342	ltpFR2	16	15	EAGLE	512	n/a	n/a	0	0	0
3058514	WORD	wordpools/wasnorm_wordpool_576.txt	LTP342	ltpFR2	16	15	CROSS	413	n/a	n/a	0	0	0
3061145	WORD	wordpools/wasnorm_wordpool_576.txt	LTP342	ltpFR2	16	15	POISON	1096	n/a	n/a	0	0	0
3063927	WORD	wordpools/wasnorm_wordpool_576.txt	LTP342	ltpFR2	16	15	GUITAR	670	n/a	n/a	0	0	0
3066594	WORD	wordpools/wasnorm_wordpool_576.txt	LTP342	ltpFR2	16	15	BEAVER	109	n/a	n/a	0	0	0
3068209	START	n/a	LTP342	ltpFR2	16	n/a	n/a	n/a	23	n/a	n/a	n/a	n/a
3069378	DISTRACTOR	n/a	LTP342	ltpFR2	16	15	n/a	n/a	n/a	n/a	0	0	0
3069391	PROB	n/a	LTP342	ltpFR2	16	n/a	n/a	n/a	23	9	2	2	5
3071057	PROB	n/a	LTP342	ltpFR2	16	n/a	n/a	n/a	23	18	7	3	8
3073690	PROB	n/a	LTP342	ltpFR2	16	n/a	n/a	n/a	23	15	9	4	2
3075039	PROB	n/a	LTP342	ltpFR2	16	n/a	n/a	n/a	23	17	9	6	2
3076789	PROB	n/a	LTP342	ltpFR2	16	n/a	n/a	n/a	23	24	7	9	8
3079987	PROB	n/a	LTP342	ltpFR2	16	n/a	n/a	n/a	23	11	6	1	4
3081503	PROB	n/a	LTP342	ltpFR2	16	n/a	n/a	n/a	23	18	1	9	8
3084552	PROB	n/a	LTP342	ltpFR2	16	n/a	n/a	n/a	23	9	7	1	1
3085685	PROB	n/a	LTP342	ltpFR2	16	n/a	n/a	n/a	23	16	6	6	4
3087601	PROB	n/a	LTP342	ltpFR2	16	n/a	n/a	n/a	23	25	7	9	9
3089499	PROB	n/a	LTP342	ltpFR2	16	n/a	n/a	n/a	23	11	7	2	2
3090910	STOP	n/a	LTP342	ltpFR2	16	n/a	n/a	n/a	23	n/a	n/a	n/a	n/a
3093997	REC_START	n/a	LTP342	ltpFR2	16	15	n/a	n/a	n/a	n/a	0	0	0
3102518	REC_WORD	wordpools/wasnorm_wordpool_576.txt	LTP342	ltpFR2	16	15	WHISTLE	1606	n/a	n/a	0	0	0
3103178	REC_WORD	wordpools/wasnorm_wordpool_576.txt	LTP342	ltpFR2	16	15	CELLAR	267	n/a	n/a	0	0	0
3103926	REC_WORD	wordpools/wasnorm_wordpool_576.txt	LTP342	ltpFR2	16	15	FLEET	578	n/a	n/a	0	0	0
3104663	REC_WORD	wordpools/wasnorm_wordpool_576.txt	LTP342	ltpFR2	16	15	HAWK	692	n/a	n/a	0	0	0
3105582	REC_WORD	wordpools/wasnorm_wordpool_576.txt	LTP342	ltpFR2	16	15	QUAIL	1147	n/a	n/a	0	0	0
3106507	REC_WORD	wordpools/wasnorm_wordpool_576.txt	LTP342	ltpFR2	16	15	CASKET	255	n/a	n/a	0	0	0
3107246	REC_WORD	wordpools/wasnorm_wordpool_576.txt	LTP342	ltpFR2	16	15	HORNET	718	n/a	n/a	0	0	0
3108149	REC_WORD	wordpools/wasnorm_wordpool_576.txt	LTP342	ltpFR2	16	15	BLACKBOARD	133	n/a	n/a	0	0	0
3109565	REC_WORD	wordpools/wasnorm_wordpool_576.txt	LTP342	ltpFR2	16	15	INFANT	737	n/a	n/a	0	0	0
3110470	REC_WORD	wordpools/wasnorm_wordpool_576.txt	LTP342	ltpFR2	16	15	CARRIAGE	248	n/a	n/a	0	0	0
3113890	REC_WORD	wordpools/wasnorm_wordpool_576.txt	LTP342	ltpFR2	16	15	EAGLE	512	n/a	n/a	0	0	0
3114674	REC_WORD	wordpools/wasnorm_wordpool_576.txt	LTP342	ltpFR2	16	15	GUITAR	670	n/a	n/a	0	0	0
3115482	REC_WORD	wordpools/wasnorm_wordpool_576.txt	LTP342	ltpFR2	16	15	POISON	1096	n/a	n/a	0	0	0
3116254	REC_WORD	wordpools/wasnorm_wordpool_576.txt	LTP342	ltpFR2	16	15	CROSS	413	n/a	n/a	0	0	0
3116987	REC_WORD	wordpools/wasnorm_wordpool_576.txt	LTP342	ltpFR2	16	15	ROD	1203	n/a	n/a	0	0	0
3119539	REC_WORD	wordpools/wasnorm_wordpool_576.txt	LTP342	ltpFR2	16	15	REBEL	1172	n/a	n/a	0	0	0
3120156	REC_WORD	wordpools/wasnorm_wordpool_576.txt	LTP342	ltpFR2	16	15	FLAG	573	n/a	n/a	0	0	0
3120984	REC_WORD	wordpools/wasnorm_wordpool_576.txt	LTP342	ltpFR2	16	15	CANYON	235	n/a	n/a	0	0	0
3121768	REC_WORD	wordpools/wasnorm_wordpool_576.txt	LTP342	ltpFR2	16	15	TUNNEL	1519	n/a	n/a	0	0	0
3122389	REC_WORD	wordpools/wasnorm_wordpool_576.txt	LTP342	ltpFR2	16	15	TROMBONE	1508	n/a	n/a	0	0	0
3123210	REC_WORD	wordpools/wasnorm_wordpool_576.txt	LTP342	ltpFR2	16	15	HIKER	708	n/a	n/a	0	0	0
3132483	REC_WORD	wordpools/wasnorm_wordpool_576.txt	LTP342	ltpFR2	16	15	ARMY	39	n/a	n/a	0	0	0
3184472	WORD	wordpools/wasnorm_wordpool_576.txt	LTP342	ltpFR2	16	16	PUDDLE	1140	n/a	n/a	0	0	0
3187271	WORD	wordpools/wasnorm_wordpool_576.txt	LTP342	ltpFR2	16	16	POPCORN	1104	n/a	n/a	0	0	0
3189986	WORD	wordpools/wasnorm_wordpool_576.txt	LTP342	ltpFR2	16	16	MOTOR	922	n/a	n/a	0	0	0
3192686	WORD	wordpools/wasnorm_wordpool_576.txt	LTP342	ltpFR2	16	16	DRIVER	499	n/a	n/a	0	0	0
3195467	WORD	wordpools/wasnorm_wordpool_576.txt	LTP342	ltpFR2	16	16	ISLAND	745	n/a	n/a	0	0	0
3197966	WORD	wordpools/wasnorm_wordpool_576.txt	LTP342	ltpFR2	16	16	ARM	38	n/a	n/a	0	0	0
3200616	WORD	wordpools/wasnorm_wordpool_576.txt	LTP342	ltpFR2	16	16	BLOUSE	139	n/a	n/a	0	0	0
3203064	WORD	wordpools/wasnorm_wordpool_576.txt	LTP342	ltpFR2	16	16	COUCH	386	n/a	n/a	0	0	0
3205597	WORD	wordpools/wasnorm_wordpool_576.txt	LTP342	ltpFR2	16	16	SPOUSE	1358	n/a	n/a	0	0	0
3208245	WORD	wordpools/wasnorm_wordpool_576.txt	LTP342	ltpFR2	16	16	STREAM	1392	n/a	n/a	0	0	0
3211010	WORD	wordpools/wasnorm_wordpool_576.txt	LTP342	ltpFR2	16	16	POSTAGE	1113	n/a	n/a	0	0	0
3213777	WORD	wordpools/wasnorm_wordpool_576.txt	LTP342	ltpFR2	16	16	COFFEE	341	n/a	n/a	0	0	0
3216458	WORD	wordpools/wasnorm_wordpool_576.txt	LTP342	ltpFR2	16	16	PIZZA	1079	n/a	n/a	0	0	0
3218890	WORD	wordpools/wasnorm_wordpool_576.txt	LTP342	ltpFR2	16	16	NAPKIN	937	n/a	n/a	0	0	0
3221573	WORD	wordpools/wasnorm_wordpool_576.txt	LTP342	ltpFR2	16	16	SWIMMER	1420	n/a	n/a	0	0	0
3224087	WORD	wordpools/wasnorm_wordpool_576.txt	LTP342	ltpFR2	16	16	MOTEL	919	n/a	n/a	0	0	0
3226604	WORD	wordpools/wasnorm_wordpool_576.txt	LTP342	ltpFR2	16	16	HAMPER	682	n/a	n/a	0	0	0
3229185	WORD	wordpools/wasnorm_wordpool_576.txt	LTP342	ltpFR2	16	16	JOURNAL	760	n/a	n/a	0	0	0
3231835	WORD	wordpools/wasnorm_wordpool_576.txt	LTP342	ltpFR2	16	16	LUNCH	849	n/a	n/a	0	0	0
3234333	WORD	wordpools/wasnorm_wordpool_576.txt	LTP342	ltpFR2	16	16	SERVER	1272	n/a	n/a	0	0	0
3236998	WORD	wordpools/wasnorm_wordpool_576.txt	LTP342	ltpFR2	16	16	JURY	766	n/a	n/a	0	0	0
3239464	WORD	wordpools/wasnorm_wordpool_576.txt	LTP342	ltpFR2	16	16	SALAD	1224	n/a	n/a	0	0	0
3242213	WORD	wordpools/wasnorm_wordpool_576.txt	LTP342	ltpFR2	16	16	SANDWICH	1232	n/a	n/a	0	0	0
3244746	WORD	wordpools/wasnorm_wordpool_576.txt	LTP342	ltpFR2	16	16	SUBWAY	1400	n/a	n/a	0	0	0
3246361	START	n/a	LTP342	ltpFR2	16	n/a	n/a	n/a	24	n/a	n/a	n/a	n/a
3247264	DISTRACTOR	n/a	LTP342	ltpFR2	16	16	n/a	n/a	n/a	n/a	0	0	0
3247277	PROB	n/a	LTP342	ltpFR2	16	n/a	n/a	n/a	24	15	8	4	3
3249476	PROB	n/a	LTP342	ltpFR2	16	n/a	n/a	n/a	24	24	7	9	8
3251576	PROB	n/a	LTP342	ltpFR2	16	n/a	n/a	n/a	24	15	7	1	7
3252875	PROB	n/a	LTP342	ltpFR2	16	n/a	n/a	n/a	24	20	6	8	6
3254508	PROB	n/a	LTP342	ltpFR2	16	n/a	n/a	n/a	24	13	3	5	5
3255691	PROB	n/a	LTP342	ltpFR2	16	n/a	n/a	n/a	24	10	5	2	3
3257439	PROB	n/a	LTP342	ltpFR2	16	n/a	n/a	n/a	24	16	9	6	1
3259138	PROB	n/a	LTP342	ltpFR2	16	n/a	n/a	n/a	24	16	2	9	5
3262103	PROB	n/a	LTP342	ltpFR2	16	n/a	n/a	n/a	24	20	9	9	2
3263919	PROB	n/a	LTP342	ltpFR2	16	n/a	n/a	n/a	24	15	6	7	2
3265169	PROB	n/a	LTP342	ltpFR2	16	n/a	n/a	n/a	24	18	9	5	4
3266802	PROB	n/a	LTP342	ltpFR2	16	n/a	n/a	n/a	24	10	4	3	3
3270361	STOP	n/a	LTP342	ltpFR2	16	n/a	n/a	n/a	24	n/a	n/a	n/a	n/a
3272166	REC_START	n/a	LTP342	ltpFR2	16	16	n/a	n/a	n/a	n/a	0	0	0
3275701	REC_WORD	wordpools/wasnorm_wordpool_576.txt	LTP342	ltpFR2	16	16	SUBWAY	1400	n/a	n/a	0	0	0
3276667	REC_WORD	wordpools/wasnorm_wordpool_576.txt	LTP342	ltpFR2	16	16	SANDWICH	1232	n/a	n/a	0	0	0
3277572	REC_WORD	wordpools/wasnorm_wordpool_576.txt	LTP342	ltpFR2	16	16	SALAD	1224	n/a	n/a	0	0	0
3278745	REC_WORD	wordpools/wasnorm_wordpool_576.txt	LTP342	ltpFR2	16	16	COUCH	386	n/a	n/a	0	0	0
3279667	REC_WORD	wordpools/wasnorm_wordpool_576.txt	LTP342	ltpFR2	16	16	BLOUSE	139	n/a	n/a	0	0	0
3280456	REC_WORD	wordpools/wasnorm_wordpool_576.txt	LTP342	ltpFR2	16	16	SPOUSE	1358	n/a	n/a	0	0	0
3289132	REC_WORD	wordpools/wasnorm_wordpool_576.txt	LTP342	ltpFR2	16	16	COFFEE	341	n/a	n/a	0	0	0
3289926	REC_WORD	wordpools/wasnorm_wordpool_576.txt	LTP342	ltpFR2	16	16	SWIMMER	1420	n/a	n/a	0	0	0
3290858	REC_WORD	wordpools/wasnorm_wordpool_576.txt	LTP342	ltpFR2	16	16	MOTEL	919	n/a	n/a	0	0	0
3348698	REST_REWET	n/a	LTP342	ltpFR2	16	16	n/a	n/a	n/a	n/a	0	0	0
3519103	DISTRACTOR	n/a	LTP342	ltpFR2	16	17	n/a	n/a	n/a	n/a	0	0	0
3519103	START	n/a	LTP342	ltpFR2	16	n/a	n/a	n/a	25	n/a	n/a	n/a	n/a
3519120	PROB	n/a	LTP342	ltpFR2	16	n/a	n/a	n/a	25	12	3	4	5
3521720	PROB	n/a	LTP342	ltpFR2	16	n/a	n/a	n/a	25	7	4	2	1
3522951	PROB	n/a	LTP342	ltpFR2	16	n/a	n/a	n/a	25	16	5	7	4
3527499	PROB	n/a	LTP342	ltpFR2	16	n/a	n/a	n/a	25	7	4	1	2
3528999	PROB	n/a	LTP342	ltpFR2	16	n/a	n/a	n/a	25	14	8	4	2
3530732	PROB	n/a	LTP342	ltpFR2	16	n/a	n/a	n/a	25	114	8	2	4
3532447	PROB	n/a	LTP342	ltpFR2	16	n/a	n/a	n/a	25	7	5	1	1
3534963	PROB	n/a	LTP342	ltpFR2	16	n/a	n/a	n/a	25	13	4	1	8
3536596	PROB	n/a	LTP342	ltpFR2	16	n/a	n/a	n/a	25	15	6	1	8
3538261	PROB	n/a	LTP342	ltpFR2	16	n/a	n/a	n/a	25	20	8	7	5
3539811	PROB	n/a	LTP342	ltpFR2	16	n/a	n/a	n/a	25	10	1	2	7
3540993	PROB	n/a	LTP342	ltpFR2	16	n/a	n/a	n/a	25	1	8	5	6
3542804	STOP	n/a	LTP342	ltpFR2	16	n/a	n/a	n/a	25	n/a	n/a	n/a	n/a
3544292	WORD	wordpools/wasnorm_wordpool_576.txt	LTP342	ltpFR2	16	17	BACKBONE	66	n/a	n/a	0	0	0
3546891	WORD	wordpools/wasnorm_wordpool_576.txt	LTP342	ltpFR2	16	17	SODA	1341	n/a	n/a	0	0	0
3549674	WORD	wordpools/wasnorm_wordpool_576.txt	LTP342	ltpFR2	16	17	GRAVE	658	n/a	n/a	0	0	0
3552221	WORD	wordpools/wasnorm_wordpool_576.txt	LTP342	ltpFR2	16	17	MAMMAL	861	n/a	n/a	0	0	0
3554887	WORD	wordpools/wasnorm_wordpool_576.txt	LTP342	ltpFR2	16	17	PASTA	1021	n/a	n/a	0	0	0
3557336	WORD	wordpools/wasnorm_wordpool_576.txt	LTP342	ltpFR2	16	17	ELBOW	520	n/a	n/a	0	0	0
3559918	WORD	wordpools/wasnorm_wordpool_576.txt	LTP342	ltpFR2	16	17	ANKLE	24	n/a	n/a	0	0	0
3562701	WORD	wordpools/wasnorm_wordpool_576.txt	LTP342	ltpFR2	16	17	VALVE	1546	n/a	n/a	0	0	0
3565465	WORD	wordpools/wasnorm_wordpool_576.txt	LTP342	ltpFR2	16	17	CRATER	400	n/a	n/a	0	0	0
3568148	WORD	wordpools/wasnorm_wordpool_576.txt	LTP342	ltpFR2	16	17	WIDOW	1608	n/a	n/a	0	0	0
3570631	WORD	wordpools/wasnorm_wordpool_576.txt	LTP342	ltpFR2	16	17	CONTRACT	368	n/a	n/a	0	0	0
3573445	WORD	wordpools/wasnorm_wordpool_576.txt	LTP342	ltpFR2	16	17	MONEY	908	n/a	n/a	0	0	0
3576027	WORD	wordpools/wasnorm_wordpool_576.txt	LTP342	ltpFR2	16	17	CANDY	230	n/a	n/a	0	0	0
3578544	WORD	wordpools/wasnorm_wordpool_576.txt	LTP342	ltpFR2	16	17	FOOT	590	n/a	n/a	0	0	0
3581192	WORD	wordpools/wasnorm_wordpool_576.txt	LTP342	ltpFR2	16	17	APPLE	33	n/a	n/a	0	0	0
3583957	WORD	wordpools/wasnorm_wordpool_576.txt	LTP342	ltpFR2	16	17	DINER	467	n/a	n/a	0	0	0
3586489	WORD	wordpools/wasnorm_wordpool_576.txt	LTP342	ltpFR2	16	17	PICNIC	1060	n/a	n/a	0	0	0
3589271	WORD	wordpools/wasnorm_wordpool_576.txt	LTP342	ltpFR2	16	17	HELMET	702	n/a	n/a	0	0	0
3591838	WORD	wordpools/wasnorm_wordpool_576.txt	LTP342	ltpFR2	16	17	SLUG	1329	n/a	n/a	0	0	0
3594302	WORD	wordpools/wasnorm_wordpool_576.txt	LTP342	ltpFR2	16	17	RIVER	1194	n/a	n/a	0	0	0
3596901	WORD	wordpools/wasnorm_wordpool_576.txt	LTP342	ltpFR2	16	17	WITNESS	1618	n/a	n/a	0	0	0
3599534	WORD	wordpools/wasnorm_wordpool_576.txt	LTP342	ltpFR2	16	17	CHAUFFEUR	283	n/a	n/a	0	0	0
3602199	WORD	wordpools/wasnorm_wordpool_576.txt	LTP342	ltpFR2	16	17	POET	1095	n/a	n/a	0	0	0
3604848	WORD	wordpools/wasnorm_wordpool_576.txt	LTP342	ltpFR2	16	17	BRANDY	169	n/a	n/a	0	0	0
3606464	START	n/a	LTP342	ltpFR2	16	n/a	n/a	n/a	26	n/a	n/a	n/a	n/a
3607465	DISTRACTOR	n/a	LTP342	ltpFR2	16	17	n/a	n/a	n/a	n/a	0	0	0
3607480	PROB	n/a	LTP342	ltpFR2	16	n/a	n/a	n/a	26	14	3	9	2
3609713	PROB	n/a	LTP342	ltpFR2	16	n/a	n/a	n/a	26	10	3	1	6
3611311	PROB	n/a	LTP342	ltpFR2	16	n/a	n/a	n/a	26	10	2	2	6
3612528	PROB	n/a	LTP342	ltpFR2	16	n/a	n/a	n/a	26	16	9	5	2
3615627	PROB	n/a	LTP342	ltpFR2	16	n/a	n/a	n/a	26	14	9	1	4
3617225	PROB	n/a	LTP342	ltpFR2	16	n/a	n/a	n/a	26	12	5	5	2
3618308	PROB	n/a	LTP342	ltpFR2	16	n/a	n/a	n/a	26	15	1	9	5
3619592	PROB	n/a	LTP342	ltpFR2	16	n/a	n/a	n/a	26	11	1	5	5
3620675	PROB	n/a	LTP342	ltpFR2	16	n/a	n/a	n/a	26	15	7	7	1
3621741	PROB	n/a	LTP342	ltpFR2	16	n/a	n/a	n/a	26	10	1	6	3
3623590	PROB	n/a	LTP342	ltpFR2	16	n/a	n/a	n/a	26	16	3	8	5
3626254	PROB	n/a	LTP342	ltpFR2	16	n/a	n/a	n/a	26	15	9	1	5
3627688	PROB	n/a	LTP342	ltpFR2	16	n/a	n/a	n/a	26	10	1	2	7
3628821	PROB	n/a	LTP342	ltpFR2	16	n/a	n/a	n/a	26	12	4	7	1
3630405	STOP	n/a	LTP342	ltpFR2	16	n/a	n/a	n/a	26	n/a	n/a	n/a	n/a
3632269	REC_START	n/a	LTP342	ltpFR2	16	17	n/a	n/a	n/a	n/a	0	0	0
3633693	REC_WORD	wordpools/wasnorm_wordpool_576.txt	LTP342	ltpFR2	16	17	BRANDY	169	n/a	n/a	0	0	0
3634250	REC_WORD	wordpools/wasnorm_wordpool_576.txt	LTP342	ltpFR2	16	17	CHAUFFEUR	283	n/a	n/a	0	0	0
3635293	REC_WORD	wordpools/wasnorm_wordpool_576.txt	LTP342	ltpFR2	16	17	POET	1095	n/a	n/a	0	0	0
3638110	REC_WORD	wordpools/wasnorm_wordpool_576.txt	LTP342	ltpFR2	16	17	ELBOW	520	n/a	n/a	0	0	0
3638793	REC_WORD	wordpools/wasnorm_wordpool_576.txt	LTP342	ltpFR2	16	17	ANKLE	24	n/a	n/a	0	0	0
3640076	REC_WORD	wordpools/wasnorm_wordpool_576.txt	LTP342	ltpFR2	16	17	FOOT	590	n/a	n/a	0	0	0
3641423	REC_WORD	wordpools/wasnorm_wordpool_576.txt	LTP342	ltpFR2	16	17	GRAVE	658	n/a	n/a	0	0	0
3642568	REC_WORD	wordpools/wasnorm_wordpool_576.txt	LTP342	ltpFR2	16	17	SODA	1341	n/a	n/a	0	0	0
3643434	REC_WORD	wordpools/wasnorm_wordpool_576.txt	LTP342	ltpFR2	16	17	MAMMAL	861	n/a	n/a	0	0	0
3644156	REC_WORD	wordpools/wasnorm_wordpool_576.txt	LTP342	ltpFR2	16	17	PASTA	1021	n/a	n/a	0	0	0
3785299	DISTRACTOR	n/a	LTP342	ltpFR2	16	18	n/a	n/a	n/a	n/a	0	0	0
3785299	START	n/a	LTP342	ltpFR2	16	n/a	n/a	n/a	27	n/a	n/a	n/a	n/a
3785315	PROB	n/a	LTP342	ltpFR2	16	n/a	n/a	n/a	27	20	7	7	6
3787214	PROB	n/a	LTP342	ltpFR2	16	n/a	n/a	n/a	27	13	3	9	1
3788480	PROB	n/a	LTP342	ltpFR2	16	n/a	n/a	n/a	27	22	7	8	7
3792763	PROB	n/a	LTP342	ltpFR2	16	n/a	n/a	n/a	27	12	4	6	2
3793961	PROB	n/a	LTP342	ltpFR2	16	n/a	n/a	n/a	27	17	6	7	4
3795911	PROB	n/a	LTP342	ltpFR2	16	n/a	n/a	n/a	27	11	2	1	8
3797093	PROB	n/a	LTP342	ltpFR2	16	n/a	n/a	n/a	27	22	8	8	6
3799076	PROB	n/a	LTP342	ltpFR2	16	n/a	n/a	n/a	27	13	4	1	8
3800492	PROB	n/a	LTP342	ltpFR2	16	n/a	n/a	n/a	27	23	7	7	9
3802441	PROB	n/a	LTP342	ltpFR2	16	n/a	n/a	n/a	27	10	5	2	3
3804223	PROB	n/a	LTP342	ltpFR2	16	n/a	n/a	n/a	27	13	4	4	5
3809299	STOP	n/a	LTP342	ltpFR2	16	n/a	n/a	n/a	27	n/a	n/a	n/a	n/a
3810121	WORD	wordpools/wasnorm_wordpool_576.txt	LTP342	ltpFR2	16	18	SIDEWALK	1303	n/a	n/a	0	0	0
3812620	WORD	wordpools/wasnorm_wordpool_576.txt	LTP342	ltpFR2	16	18	EXPERT	543	n/a	n/a	0	0	0
3815335	WORD	wordpools/wasnorm_wordpool_576.txt	LTP342	ltpFR2	16	18	CAMEL	223	n/a	n/a	0	0	0
3817950	WORD	wordpools/wasnorm_wordpool_576.txt	LTP342	ltpFR2	16	18	TAXI	1438	n/a	n/a	0	0	0
3820517	WORD	wordpools/wasnorm_wordpool_576.txt	LTP342	ltpFR2	16	18	LIPSTICK	829	n/a	n/a	0	0	0
3823298	WORD	wordpools/wasnorm_wordpool_576.txt	LTP342	ltpFR2	16	18	PARTNER	1017	n/a	n/a	0	0	0
3825765	WORD	wordpools/wasnorm_wordpool_576.txt	LTP342	ltpFR2	16	18	VALLEY	1545	n/a	n/a	0	0	0
3828412	WORD	wordpools/wasnorm_wordpool_576.txt	LTP342	ltpFR2	16	18	CRITIC	410	n/a	n/a	0	0	0
3830961	WORD	wordpools/wasnorm_wordpool_576.txt	LTP342	ltpFR2	16	18	ACTRESS	6	n/a	n/a	0	0	0
3833711	WORD	wordpools/wasnorm_wordpool_576.txt	LTP342	ltpFR2	16	18	ROBBER	1197	n/a	n/a	0	0	0
3836176	WORD	wordpools/wasnorm_wordpool_576.txt	LTP342	ltpFR2	16	18	WINDOW	1611	n/a	n/a	0	0	0
3838958	WORD	wordpools/wasnorm_wordpool_576.txt	LTP342	ltpFR2	16	18	JAPAN	749	n/a	n/a	0	0	0
3841574	WORD	wordpools/wasnorm_wordpool_576.txt	LTP342	ltpFR2	16	18	COLLEGE	346	n/a	n/a	0	0	0
3844355	WORD	wordpools/wasnorm_wordpool_576.txt	LTP342	ltpFR2	16	18	PEACH	1031	n/a	n/a	0	0	0
3846887	WORD	wordpools/wasnorm_wordpool_576.txt	LTP342	ltpFR2	16	18	MILDEW	893	n/a	n/a	0	0	0
3849520	WORD	wordpools/wasnorm_wordpool_576.txt	LTP342	ltpFR2	16	18	CHAMPAGNE	278	n/a	n/a	0	0	0
3852101	WORD	wordpools/wasnorm_wordpool_576.txt	LTP342	ltpFR2	16	18	CITRUS	313	n/a	n/a	0	0	0
3854685	WORD	wordpools/wasnorm_wordpool_576.txt	LTP342	ltpFR2	16	18	MARSH	874	n/a	n/a	0	0	0
3857299	WORD	wordpools/wasnorm_wordpool_576.txt	LTP342	ltpFR2	16	18	GYMNAST	675	n/a	n/a	0	0	0
3859849	WORD	wordpools/wasnorm_wordpool_576.txt	LTP342	ltpFR2	16	18	FOOTBALL	591	n/a	n/a	0	0	0
3862581	WORD	wordpools/wasnorm_wordpool_576.txt	LTP342	ltpFR2	16	18	SUSPECT	1415	n/a	n/a	0	0	0
3865262	WORD	wordpools/wasnorm_wordpool_576.txt	LTP342	ltpFR2	16	18	SMOG	1330	n/a	n/a	0	0	0
3867944	WORD	wordpools/wasnorm_wordpool_576.txt	LTP342	ltpFR2	16	18	JELLO	754	n/a	n/a	0	0	0
3870511	WORD	wordpools/wasnorm_wordpool_576.txt	LTP342	ltpFR2	16	18	CUSTARD	429	n/a	n/a	0	0	0
3872126	START	n/a	LTP342	ltpFR2	16	n/a	n/a	n/a	28	n/a	n/a	n/a	n/a
3873050	DISTRACTOR	n/a	LTP342	ltpFR2	16	18	n/a	n/a	n/a	n/a	0	0	0
3873059	PROB	n/a	LTP342	ltpFR2	16	n/a	n/a	n/a	28	9	6	2	1
3874891	PROB	n/a	LTP342	ltpFR2	16	n/a	n/a	n/a	28	10	2	7	3
3876641	PROB	n/a	LTP342	ltpFR2	16	n/a	n/a	n/a	28	16	6	2	8
3879106	PROB	n/a	LTP342	ltpFR2	16	n/a	n/a	n/a	28	19	7	9	3
3881022	PROB	n/a	LTP342	ltpFR2	16	n/a	n/a	n/a	28	16	8	3	5
3883622	PROB	n/a	LTP342	ltpFR2	16	n/a	n/a	n/a	28	16	7	4	5
3885587	PROB	n/a	LTP342	ltpFR2	16	n/a	n/a	n/a	28	21	6	8	7
3888052	PROB	n/a	LTP342	ltpFR2	16	n/a	n/a	n/a	28	11	5	5	1
3889068	PROB	n/a	LTP342	ltpFR2	16	n/a	n/a	n/a	28	20	5	8	7
3890802	PROB	n/a	LTP342	ltpFR2	16	n/a	n/a	n/a	28	9	1	7	1
3891933	PROB	n/a	LTP342	ltpFR2	16	n/a	n/a	n/a	28	14	7	1	6
3894282	PROB	n/a	LTP342	ltpFR2	16	n/a	n/a	n/a	28	9	4	1	4
3895582	STOP	n/a	LTP342	ltpFR2	16	n/a	n/a	n/a	28	n/a	n/a	n/a	n/a
3897998	REC_START	n/a	LTP342	ltpFR2	16	18	n/a	n/a	n/a	n/a	0	0	0
3899894	REC_WORD	wordpools/wasnorm_wordpool_576.txt	LTP342	ltpFR2	16	18	SUSPECT	1415	n/a	n/a	0	0	0
3900554	REC_WORD	wordpools/wasnorm_wordpool_576.txt	LTP342	ltpFR2	16	18	FOOTBALL	591	n/a	n/a	0	0	0
3901283	REC_WORD	wordpools/wasnorm_wordpool_576.txt	LTP342	ltpFR2	16	18	GYMNAST	675	n/a	n/a	0	0	0
3901992	REC_WORD	wordpools/wasnorm_wordpool_576.txt	LTP342	ltpFR2	16	18	MARSH	874	n/a	n/a	0	0	0
3903911	REC_WORD	wordpools/wasnorm_wordpool_576.txt	LTP342	ltpFR2	16	18	LIPSTICK	829	n/a	n/a	0	0	0
3904560	REC_WORD	wordpools/wasnorm_wordpool_576.txt	LTP342	ltpFR2	16	18	CHAMPAGNE	278	n/a	n/a	0	0	0
3905755	REC_WORD	wordpools/wasnorm_wordpool_576.txt	LTP342	ltpFR2	16	18	COLLEGE	346	n/a	n/a	0	0	0
3906791	REC_WORD	wordpools/wasnorm_wordpool_576.txt	LTP342	ltpFR2	16	18	PEACH	1031	n/a	n/a	0	0	0
3907861	REC_WORD	wordpools/wasnorm_wordpool_576.txt	LTP342	ltpFR2	16	18	CITRUS	313	n/a	n/a	0	0	0
3911340	REC_WORD	wordpools/wasnorm_wordpool_576.txt	LTP342	ltpFR2	16	18	CAMEL	223	n/a	n/a	0	0	0
3913309	REC_WORD	wordpools/wasnorm_wordpool_576.txt	LTP342	ltpFR2	16	18	SIDEWALK	1303	n/a	n/a	0	0	0
3914122	REC_WORD	wordpools/wasnorm_wordpool_576.txt	LTP342	ltpFR2	16	18	EXPERT	543	n/a	n/a	0	0	0
3916169	REC_WORD	wordpools/wasnorm_wordpool_576.txt	LTP342	ltpFR2	16	18	PARTNER	1017	n/a	n/a	0	0	0
3917729	REC_WORD	wordpools/wasnorm_wordpool_576.txt	LTP342	ltpFR2	16	18	ROBBER	1197	n/a	n/a	0	0	0
3918395	REC_WORD	wordpools/wasnorm_wordpool_576.txt	LTP342	ltpFR2	16	18	JAPAN	749	n/a	n/a	0	0	0
3921684	REC_WORD	wordpools/wasnorm_wordpool_576.txt	LTP342	ltpFR2	16	18	ACTRESS	6	n/a	n/a	0	0	0
3922620	REC_WORD	wordpools/wasnorm_wordpool_576.txt	LTP342	ltpFR2	16	18	CRITIC	410	n/a	n/a	0	0	0
3923674	REC_WORD	wordpools/wasnorm_wordpool_576.txt	LTP342	ltpFR2	16	18	WINDOW	1611	n/a	n/a	0	0	0
3927171	REC_WORD	wordpools/wasnorm_wordpool_576.txt	LTP342	ltpFR2	16	18	TAXI	1438	n/a	n/a	0	0	0
3966462	REC_WORD	wordpools/wasnorm_wordpool_576.txt	LTP342	ltpFR2	16	18	SMOG	1330	n/a	n/a	0	0	0
3988439	WORD	wordpools/wasnorm_wordpool_576.txt	LTP342	ltpFR2	16	19	HUSBAND	728	n/a	n/a	0	0	0
3990922	WORD	wordpools/wasnorm_wordpool_576.txt	LTP342	ltpFR2	16	19	TURTLE	1522	n/a	n/a	0	0	0
3993571	WORD	wordpools/wasnorm_wordpool_576.txt	LTP342	ltpFR2	16	19	BANJO	82	n/a	n/a	0	0	0
3996386	WORD	wordpools/wasnorm_wordpool_576.txt	LTP342	ltpFR2	16	19	EMPIRE	530	n/a	n/a	0	0	0
3999068	WORD	wordpools/wasnorm_wordpool_576.txt	LTP342	ltpFR2	16	19	MARKET	871	n/a	n/a	0	0	0
4001535	WORD	wordpools/wasnorm_wordpool_576.txt	LTP342	ltpFR2	16	19	BISON	131	n/a	n/a	0	0	0
4004316	WORD	wordpools/wasnorm_wordpool_576.txt	LTP342	ltpFR2	16	19	FIREPLACE	570	n/a	n/a	0	0	0
4006931	WORD	wordpools/wasnorm_wordpool_576.txt	LTP342	ltpFR2	16	19	WASHER	1592	n/a	n/a	0	0	0
4009597	WORD	wordpools/wasnorm_wordpool_576.txt	LTP342	ltpFR2	16	19	WHISKERS	1605	n/a	n/a	0	0	0
4012412	WORD	wordpools/wasnorm_wordpool_576.txt	LTP342	ltpFR2	16	19	WOMAN	1620	n/a	n/a	0	0	0
4015177	WORD	wordpools/wasnorm_wordpool_576.txt	LTP342	ltpFR2	16	19	CONVICT	371	n/a	n/a	0	0	0
4017877	WORD	wordpools/wasnorm_wordpool_576.txt	LTP342	ltpFR2	16	19	ROBOT	1200	n/a	n/a	0	0	0
