mstime	trial_type	stim_file	subject	experiment	session	trial	item_name	item_num	list	answer	test_x	test_y	test_z
0	SESS_START	n/a	LTP314	ltpFR2	5	n/a	n/a	n/a	n/a	n/a	0	0	0
109328	START	n/a	LTP314	ltpFR2	5	n/a	n/a	n/a	-1	n/a	n/a	n/a	n/a
109344	PROB	n/a	LTP314	ltpFR2	5	n/a	n/a	n/a	-1	13	8	2	3
111422	PROB	n/a	LTP314	ltpFR2	5	n/a	n/a	n/a	-1	2555	4	8	2
112941	PROB	n/a	LTP314	ltpFR2	5	n/a	n/a	n/a	-1	10	3	1	6
121328	STOP	n/a	LTP314	ltpFR2	5	n/a	n/a	n/a	-1	n/a	n/a	n/a	n/a
155794	WORD	wordpools/wasnorm_wordpool_576.txt	LTP314	ltpFR2	5	1	WASP	1593	n/a	n/a	0	0	0
158518	WORD	wordpools/wasnorm_wordpool_576.txt	LTP314	ltpFR2	5	1	HONEY	713	n/a	n/a	0	0	0
161155	WORD	wordpools/wasnorm_wordpool_576.txt	LTP314	ltpFR2	5	1	PICNIC	1060	n/a	n/a	0	0	0
163969	WORD	wordpools/wasnorm_wordpool_576.txt	LTP314	ltpFR2	5	1	SHORTCAKE	1292	n/a	n/a	0	0	0
166692	WORD	wordpools/wasnorm_wordpool_576.txt	LTP314	ltpFR2	5	1	ORCHID	982	n/a	n/a	0	0	0
169424	WORD	wordpools/wasnorm_wordpool_576.txt	LTP314	ltpFR2	5	1	BRACES	164	n/a	n/a	0	0	0
172243	WORD	wordpools/wasnorm_wordpool_576.txt	LTP314	ltpFR2	5	1	JUGGLER	763	n/a	n/a	0	0	0
174829	WORD	wordpools/wasnorm_wordpool_576.txt	LTP314	ltpFR2	5	1	CHIPMUNK	304	n/a	n/a	0	0	0
177447	WORD	wordpools/wasnorm_wordpool_576.txt	LTP314	ltpFR2	5	1	NAPKIN	937	n/a	n/a	0	0	0
179933	WORD	wordpools/wasnorm_wordpool_576.txt	LTP314	ltpFR2	5	1	FLESH	579	n/a	n/a	0	0	0
182384	WORD	wordpools/wasnorm_wordpool_576.txt	LTP314	ltpFR2	5	1	SEAL	1262	n/a	n/a	0	0	0
184854	WORD	wordpools/wasnorm_wordpool_576.txt	LTP314	ltpFR2	5	1	GRIZZLY	662	n/a	n/a	0	0	0
187571	WORD	wordpools/wasnorm_wordpool_576.txt	LTP314	ltpFR2	5	1	PLUTO	1092	n/a	n/a	0	0	0
190225	WORD	wordpools/wasnorm_wordpool_576.txt	LTP314	ltpFR2	5	1	NECKLACE	940	n/a	n/a	0	0	0
192694	WORD	wordpools/wasnorm_wordpool_576.txt	LTP314	ltpFR2	5	1	RADISH	1158	n/a	n/a	0	0	0
195278	WORD	wordpools/wasnorm_wordpool_576.txt	LTP314	ltpFR2	5	1	CASHEW	253	n/a	n/a	0	0	0
198115	WORD	wordpools/wasnorm_wordpool_576.txt	LTP314	ltpFR2	5	1	DENTIST	447	n/a	n/a	0	0	0
200784	WORD	wordpools/wasnorm_wordpool_576.txt	LTP314	ltpFR2	5	1	LACE	792	n/a	n/a	0	0	0
203318	WORD	wordpools/wasnorm_wordpool_576.txt	LTP314	ltpFR2	5	1	ACTRESS	6	n/a	n/a	0	0	0
206122	WORD	wordpools/wasnorm_wordpool_576.txt	LTP314	ltpFR2	5	1	MAMMAL	861	n/a	n/a	0	0	0
208673	WORD	wordpools/wasnorm_wordpool_576.txt	LTP314	ltpFR2	5	1	BOX	159	n/a	n/a	0	0	0
211426	WORD	wordpools/wasnorm_wordpool_576.txt	LTP314	ltpFR2	5	1	TOASTER	1472	n/a	n/a	0	0	0
213962	WORD	wordpools/wasnorm_wordpool_576.txt	LTP314	ltpFR2	5	1	APRON	35	n/a	n/a	0	0	0
216529	WORD	wordpools/wasnorm_wordpool_576.txt	LTP314	ltpFR2	5	1	BUG	187	n/a	n/a	0	0	0
218149	START	n/a	LTP314	ltpFR2	5	n/a	n/a	n/a	1	n/a	n/a	n/a	n/a
219057	DISTRACTOR	n/a	LTP314	ltpFR2	5	1	n/a	n/a	n/a	n/a	0	0	0
219066	PROB	n/a	LTP314	ltpFR2	5	n/a	n/a	n/a	1	13	5	5	3
220514	PROB	n/a	LTP314	ltpFR2	5	n/a	n/a	n/a	1	10	3	5	2
221935	PROB	n/a	LTP314	ltpFR2	5	n/a	n/a	n/a	1	12	2	4	6
223402	PROB	n/a	LTP314	ltpFR2	5	n/a	n/a	n/a	1	17	9	7	1
225188	PROB	n/a	LTP314	ltpFR2	5	n/a	n/a	n/a	1	13	5	3	5
226936	PROB	n/a	LTP314	ltpFR2	5	n/a	n/a	n/a	1	5	1	2	2
228555	PROB	n/a	LTP314	ltpFR2	5	n/a	n/a	n/a	1	25	6	9	8
230621	PROB	n/a	LTP314	ltpFR2	5	n/a	n/a	n/a	1	13	1	3	9
232589	PROB	n/a	LTP314	ltpFR2	5	n/a	n/a	n/a	1	18	6	3	9
235060	PROB	n/a	LTP314	ltpFR2	5	n/a	n/a	n/a	1	15	7	6	2
237394	PROB	n/a	LTP314	ltpFR2	5	n/a	n/a	n/a	1	16	8	6	2
239115	PROB	n/a	LTP314	ltpFR2	5	n/a	n/a	n/a	1	12	2	2	8
240775	STOP	n/a	LTP314	ltpFR2	5	n/a	n/a	n/a	1	n/a	n/a	n/a	n/a
243920	REC_START	n/a	LTP314	ltpFR2	5	1	n/a	n/a	n/a	n/a	0	0	0
245112	REC_WORD	wordpools/wasnorm_wordpool_576.txt	LTP314	ltpFR2	5	1	WASP	1593	n/a	n/a	0	0	0
246261	REC_WORD	wordpools/wasnorm_wordpool_576.txt	LTP314	ltpFR2	5	1	HONEY	713	n/a	n/a	0	0	0
250350	REC_WORD	wordpools/wasnorm_wordpool_576.txt	LTP314	ltpFR2	5	1	MAMMAL	861	n/a	n/a	0	0	0
257059	REC_WORD	wordpools/wasnorm_wordpool_576.txt	LTP314	ltpFR2	5	1	JUGGLER	763	n/a	n/a	0	0	0
298705	REC_WORD	wordpools/wasnorm_wordpool_576.txt	LTP314	ltpFR2	5	1	BOX	159	n/a	n/a	0	0	0
334344	DISTRACTOR	n/a	LTP314	ltpFR2	5	2	n/a	n/a	n/a	n/a	0	0	0
334344	START	n/a	LTP314	ltpFR2	5	n/a	n/a	n/a	2	n/a	n/a	n/a	n/a
334359	PROB	n/a	LTP314	ltpFR2	5	n/a	n/a	n/a	2	10	4	3	3
337961	PROB	n/a	LTP314	ltpFR2	5	n/a	n/a	n/a	2	9	6	2	1
339780	PROB	n/a	LTP314	ltpFR2	5	n/a	n/a	n/a	2	12	1	7	4
341497	PROB	n/a	LTP314	ltpFR2	5	n/a	n/a	n/a	2	22	6	9	7
344633	PROB	n/a	LTP314	ltpFR2	5	n/a	n/a	n/a	2	11	9	1	1
345953	PROB	n/a	LTP314	ltpFR2	5	n/a	n/a	n/a	2	10	4	1	5
347385	PROB	n/a	LTP314	ltpFR2	5	n/a	n/a	n/a	2	13	2	6	5
350106	PROB	n/a	LTP314	ltpFR2	5	n/a	n/a	n/a	2	23	7	7	9
352206	PROB	n/a	LTP314	ltpFR2	5	n/a	n/a	n/a	2	9	3	4	2
353740	PROB	n/a	LTP314	ltpFR2	5	n/a	n/a	n/a	2	21	6	9	6
355943	PROB	n/a	LTP314	ltpFR2	5	n/a	n/a	n/a	2	10	4	2	2
357414	STOP	n/a	LTP314	ltpFR2	5	n/a	n/a	n/a	2	n/a	n/a	n/a	n/a
359389	WORD	wordpools/wasnorm_wordpool_576.txt	LTP314	ltpFR2	5	2	HOOK	715	n/a	n/a	0	0	0
361851	WORD	wordpools/wasnorm_wordpool_576.txt	LTP314	ltpFR2	5	2	MONSTER	912	n/a	n/a	0	0	0
364669	WORD	wordpools/wasnorm_wordpool_576.txt	LTP314	ltpFR2	5	2	COMET	353	n/a	n/a	0	0	0
367304	WORD	wordpools/wasnorm_wordpool_576.txt	LTP314	ltpFR2	5	2	STONE	1385	n/a	n/a	0	0	0
369723	WORD	wordpools/wasnorm_wordpool_576.txt	LTP314	ltpFR2	5	2	POCKET	1093	n/a	n/a	0	0	0
372264	WORD	wordpools/wasnorm_wordpool_576.txt	LTP314	ltpFR2	5	2	ORANGE	980	n/a	n/a	0	0	0
375062	WORD	wordpools/wasnorm_wordpool_576.txt	LTP314	ltpFR2	5	2	BINDER	127	n/a	n/a	0	0	0
377619	WORD	wordpools/wasnorm_wordpool_576.txt	LTP314	ltpFR2	5	2	PAPER	1011	n/a	n/a	0	0	0
380089	WORD	wordpools/wasnorm_wordpool_576.txt	LTP314	ltpFR2	5	2	SPOOL	1356	n/a	n/a	0	0	0
382886	WORD	wordpools/wasnorm_wordpool_576.txt	LTP314	ltpFR2	5	2	THREAD	1460	n/a	n/a	0	0	0
385603	WORD	wordpools/wasnorm_wordpool_576.txt	LTP314	ltpFR2	5	2	COCOON	339	n/a	n/a	0	0	0
388356	WORD	wordpools/wasnorm_wordpool_576.txt	LTP314	ltpFR2	5	2	MESSAGE	888	n/a	n/a	0	0	0
390858	WORD	wordpools/wasnorm_wordpool_576.txt	LTP314	ltpFR2	5	2	SHRUB	1299	n/a	n/a	0	0	0
393494	WORD	wordpools/wasnorm_wordpool_576.txt	LTP314	ltpFR2	5	2	FLOWER	584	n/a	n/a	0	0	0
395917	WORD	wordpools/wasnorm_wordpool_576.txt	LTP314	ltpFR2	5	2	PEACH	1031	n/a	n/a	0	0	0
398431	WORD	wordpools/wasnorm_wordpool_576.txt	LTP314	ltpFR2	5	2	SODA	1341	n/a	n/a	0	0	0
400850	WORD	wordpools/wasnorm_wordpool_576.txt	LTP314	ltpFR2	5	2	CRITIC	410	n/a	n/a	0	0	0
403301	WORD	wordpools/wasnorm_wordpool_576.txt	LTP314	ltpFR2	5	2	SLOPE	1328	n/a	n/a	0	0	0
405771	WORD	wordpools/wasnorm_wordpool_576.txt	LTP314	ltpFR2	5	2	REPORT	1184	n/a	n/a	0	0	0
408443	WORD	wordpools/wasnorm_wordpool_576.txt	LTP314	ltpFR2	5	2	COWBOY	395	n/a	n/a	0	0	0
411208	WORD	wordpools/wasnorm_wordpool_576.txt	LTP314	ltpFR2	5	2	CONTRACT	368	n/a	n/a	0	0	0
414031	WORD	wordpools/wasnorm_wordpool_576.txt	LTP314	ltpFR2	5	2	MONEY	908	n/a	n/a	0	0	0
416579	WORD	wordpools/wasnorm_wordpool_576.txt	LTP314	ltpFR2	5	2	BROTHER	179	n/a	n/a	0	0	0
419035	WORD	wordpools/wasnorm_wordpool_576.txt	LTP314	ltpFR2	5	2	BLOUSE	139	n/a	n/a	0	0	0
420649	START	n/a	LTP314	ltpFR2	5	n/a	n/a	n/a	3	n/a	n/a	n/a	n/a
421567	DISTRACTOR	n/a	LTP314	ltpFR2	5	2	n/a	n/a	n/a	n/a	0	0	0
421583	PROB	n/a	LTP314	ltpFR2	5	n/a	n/a	n/a	3	18	7	4	7
423933	PROB	n/a	LTP314	ltpFR2	5	n/a	n/a	n/a	3	19	6	4	9
425300	PROB	n/a	LTP314	ltpFR2	5	n/a	n/a	n/a	3	14	4	6	4
426750	PROB	n/a	LTP314	ltpFR2	5	n/a	n/a	n/a	3	21	8	8	5
428385	PROB	n/a	LTP314	ltpFR2	5	n/a	n/a	n/a	3	23	8	9	5
431006	PROB	n/a	LTP314	ltpFR2	5	n/a	n/a	n/a	3	14	4	5	5
432890	PROB	n/a	LTP314	ltpFR2	5	n/a	n/a	n/a	3	19	9	1	9
435977	PROB	n/a	LTP314	ltpFR2	5	n/a	n/a	n/a	3	21	8	4	9
437828	PROB	n/a	LTP314	ltpFR2	5	n/a	n/a	n/a	3	20	9	7	4
441330	PROB	n/a	LTP314	ltpFR2	5	n/a	n/a	n/a	3	16	6	7	3
443486	STOP	n/a	LTP314	ltpFR2	5	n/a	n/a	n/a	3	n/a	n/a	n/a	n/a
446521	REC_START	n/a	LTP314	ltpFR2	5	2	n/a	n/a	n/a	n/a	0	0	0
447064	REC_WORD	wordpools/wasnorm_wordpool_576.txt	LTP314	ltpFR2	5	2	BLOUSE	139	n/a	n/a	0	0	0
447600	REC_WORD	wordpools/wasnorm_wordpool_576.txt	LTP314	ltpFR2	5	2	BROTHER	179	n/a	n/a	0	0	0
453152	REC_WORD	wordpools/wasnorm_wordpool_576.txt	LTP314	ltpFR2	5	2	COMET	353	n/a	n/a	0	0	0
536964	DISTRACTOR	n/a	LTP314	ltpFR2	5	3	n/a	n/a	n/a	n/a	0	0	0
536964	START	n/a	LTP314	ltpFR2	5	n/a	n/a	n/a	4	n/a	n/a	n/a	n/a
536978	PROB	n/a	LTP314	ltpFR2	5	n/a	n/a	n/a	4	15	5	7	3
538477	PROB	n/a	LTP314	ltpFR2	5	n/a	n/a	n/a	4	21	7	8	6
541614	PROB	n/a	LTP314	ltpFR2	5	n/a	n/a	n/a	4	19	9	9	1
543265	PROB	n/a	LTP314	ltpFR2	5	n/a	n/a	n/a	4	16	1	8	7
545284	PROB	n/a	LTP314	ltpFR2	5	n/a	n/a	n/a	4	18	9	2	7
547568	PROB	n/a	LTP314	ltpFR2	5	n/a	n/a	n/a	4	22	9	7	6
550555	PROB	n/a	LTP314	ltpFR2	5	n/a	n/a	n/a	4	21	6	6	7
553759	PROB	n/a	LTP314	ltpFR2	5	n/a	n/a	n/a	4	8	2	4	2
556376	PROB	n/a	LTP314	ltpFR2	5	n/a	n/a	n/a	4	15	6	8	1
557795	PROB	n/a	LTP314	ltpFR2	5	n/a	n/a	n/a	4	12	6	4	2
559012	PROB	n/a	LTP314	ltpFR2	5	n/a	n/a	n/a	4	20	9	2	9
560839	STOP	n/a	LTP314	ltpFR2	5	n/a	n/a	n/a	4	n/a	n/a	n/a	n/a
561977	WORD	wordpools/wasnorm_wordpool_576.txt	LTP314	ltpFR2	5	3	THRONE	1461	n/a	n/a	0	0	0
564545	WORD	wordpools/wasnorm_wordpool_576.txt	LTP314	ltpFR2	5	3	WORKER	1621	n/a	n/a	0	0	0
567263	WORD	wordpools/wasnorm_wordpool_576.txt	LTP314	ltpFR2	5	3	HARP	689	n/a	n/a	0	0	0
569791	WORD	wordpools/wasnorm_wordpool_576.txt	LTP314	ltpFR2	5	3	PRINCE	1124	n/a	n/a	0	0	0
572435	WORD	wordpools/wasnorm_wordpool_576.txt	LTP314	ltpFR2	5	3	DUSTPAN	509	n/a	n/a	0	0	0
575045	WORD	wordpools/wasnorm_wordpool_576.txt	LTP314	ltpFR2	5	3	HOOD	714	n/a	n/a	0	0	0
577479	WORD	wordpools/wasnorm_wordpool_576.txt	LTP314	ltpFR2	5	3	PADDING	999	n/a	n/a	0	0	0
580116	WORD	wordpools/wasnorm_wordpool_576.txt	LTP314	ltpFR2	5	3	LEADER	807	n/a	n/a	0	0	0
582751	WORD	wordpools/wasnorm_wordpool_576.txt	LTP314	ltpFR2	5	3	DASHBOARD	441	n/a	n/a	0	0	0
585394	WORD	wordpools/wasnorm_wordpool_576.txt	LTP314	ltpFR2	5	3	TRENCH	1503	n/a	n/a	0	0	0
588181	WORD	wordpools/wasnorm_wordpool_576.txt	LTP314	ltpFR2	5	3	GRAVE	658	n/a	n/a	0	0	0
590916	WORD	wordpools/wasnorm_wordpool_576.txt	LTP314	ltpFR2	5	3	LASER	801	n/a	n/a	0	0	0
593466	WORD	wordpools/wasnorm_wordpool_576.txt	LTP314	ltpFR2	5	3	ULCER	1533	n/a	n/a	0	0	0
596020	WORD	wordpools/wasnorm_wordpool_576.txt	LTP314	ltpFR2	5	3	TROMBONE	1508	n/a	n/a	0	0	0
598630	WORD	wordpools/wasnorm_wordpool_576.txt	LTP314	ltpFR2	5	3	THIEF	1456	n/a	n/a	0	0	0
601073	WORD	wordpools/wasnorm_wordpool_576.txt	LTP314	ltpFR2	5	3	GAVEL	627	n/a	n/a	0	0	0
603869	WORD	wordpools/wasnorm_wordpool_576.txt	LTP314	ltpFR2	5	3	JURY	766	n/a	n/a	0	0	0
606544	WORD	wordpools/wasnorm_wordpool_576.txt	LTP314	ltpFR2	5	3	STAKE	1368	n/a	n/a	0	0	0
609156	WORD	wordpools/wasnorm_wordpool_576.txt	LTP314	ltpFR2	5	3	PARTNER	1017	n/a	n/a	0	0	0
611881	WORD	wordpools/wasnorm_wordpool_576.txt	LTP314	ltpFR2	5	3	HATCHET	691	n/a	n/a	0	0	0
614315	WORD	wordpools/wasnorm_wordpool_576.txt	LTP314	ltpFR2	5	3	FLUTE	585	n/a	n/a	0	0	0
616818	WORD	wordpools/wasnorm_wordpool_576.txt	LTP314	ltpFR2	5	3	FRAME	600	n/a	n/a	0	0	0
619414	WORD	wordpools/wasnorm_wordpool_576.txt	LTP314	ltpFR2	5	3	SKETCH	1315	n/a	n/a	0	0	0
622001	WORD	wordpools/wasnorm_wordpool_576.txt	LTP314	ltpFR2	5	3	COTTAGE	384	n/a	n/a	0	0	0
623618	START	n/a	LTP314	ltpFR2	5	n/a	n/a	n/a	5	n/a	n/a	n/a	n/a
624636	DISTRACTOR	n/a	LTP314	ltpFR2	5	3	n/a	n/a	n/a	n/a	0	0	0
624652	PROB	n/a	LTP314	ltpFR2	5	n/a	n/a	n/a	5	20	4	9	7
627118	PROB	n/a	LTP314	ltpFR2	5	n/a	n/a	n/a	5	18	4	6	8
628936	PROB	n/a	LTP314	ltpFR2	5	n/a	n/a	n/a	5	17	5	7	5
630756	PROB	n/a	LTP314	ltpFR2	5	n/a	n/a	n/a	5	3	1	1	1
631940	PROB	n/a	LTP314	ltpFR2	5	n/a	n/a	n/a	5	20	8	7	5
634324	PROB	n/a	LTP314	ltpFR2	5	n/a	n/a	n/a	5	27	9	9	9
637144	PROB	n/a	LTP314	ltpFR2	5	n/a	n/a	n/a	5	20	7	4	9
639261	PROB	n/a	LTP314	ltpFR2	5	n/a	n/a	n/a	5	16	5	7	4
641780	PROB	n/a	LTP314	ltpFR2	5	n/a	n/a	n/a	5	12	4	1	7
644053	PROB	n/a	LTP314	ltpFR2	5	n/a	n/a	n/a	5	17	9	7	1
646582	STOP	n/a	LTP314	ltpFR2	5	n/a	n/a	n/a	5	n/a	n/a	n/a	n/a
649436	REC_START	n/a	LTP314	ltpFR2	5	3	n/a	n/a	n/a	n/a	0	0	0
649956	REC_WORD	wordpools/wasnorm_wordpool_576.txt	LTP314	ltpFR2	5	3	ULCER	1533	n/a	n/a	0	0	0
650731	REC_WORD	wordpools/wasnorm_wordpool_576.txt	LTP314	ltpFR2	5	3	HOOK	715	n/a	n/a	0	0	0
656878	REC_WORD	wordpools/wasnorm_wordpool_576.txt	LTP314	ltpFR2	5	3	GRAVE	658	n/a	n/a	0	0	0
658026	REC_WORD	wordpools/wasnorm_wordpool_576.txt	LTP314	ltpFR2	5	3	TROMBONE	1508	n/a	n/a	0	0	0
664303	REC_WORD	wordpools/wasnorm_wordpool_576.txt	LTP314	ltpFR2	5	3	CRIMINAL	409	n/a	n/a	0	0	0
739897	DISTRACTOR	n/a	LTP314	ltpFR2	5	4	n/a	n/a	n/a	n/a	0	0	0
739897	START	n/a	LTP314	ltpFR2	5	n/a	n/a	n/a	6	n/a	n/a	n/a	n/a
739916	PROB	n/a	LTP314	ltpFR2	5	n/a	n/a	n/a	6	13	1	4	8
742581	PROB	n/a	LTP314	ltpFR2	5	n/a	n/a	n/a	6	18	2	7	9
744150	PROB	n/a	LTP314	ltpFR2	5	n/a	n/a	n/a	6	17	8	7	2
746131	PROB	n/a	LTP314	ltpFR2	5	n/a	n/a	n/a	6	24	9	9	6
747866	PROB	n/a	LTP314	ltpFR2	5	n/a	n/a	n/a	6	6	1	2	3
749984	PROB	n/a	LTP314	ltpFR2	5	n/a	n/a	n/a	6	10	6	2	2
751451	PROB	n/a	LTP314	ltpFR2	5	n/a	n/a	n/a	6	20	5	8	7
753660	PROB	n/a	LTP314	ltpFR2	5	n/a	n/a	n/a	6	16	5	5	6
755237	PROB	n/a	LTP314	ltpFR2	5	n/a	n/a	n/a	6	7	3	3	1
756506	PROB	n/a	LTP314	ltpFR2	5	n/a	n/a	n/a	6	6	2	1	3
758256	PROB	n/a	LTP314	ltpFR2	5	n/a	n/a	n/a	6	12	9	2	1
760328	PROB	n/a	LTP314	ltpFR2	5	n/a	n/a	n/a	6	10	5	4	1
762438	STOP	n/a	LTP314	ltpFR2	5	n/a	n/a	n/a	6	n/a	n/a	n/a	n/a
764866	WORD	wordpools/wasnorm_wordpool_576.txt	LTP314	ltpFR2	5	4	SEAFOOD	1260	n/a	n/a	0	0	0
767433	WORD	wordpools/wasnorm_wordpool_576.txt	LTP314	ltpFR2	5	4	SHARK	1275	n/a	n/a	0	0	0
770140	WORD	wordpools/wasnorm_wordpool_576.txt	LTP314	ltpFR2	5	4	PICTURE	1061	n/a	n/a	0	0	0
772720	WORD	wordpools/wasnorm_wordpool_576.txt	LTP314	ltpFR2	5	4	COMPASS	358	n/a	n/a	0	0	0
775272	WORD	wordpools/wasnorm_wordpool_576.txt	LTP314	ltpFR2	5	4	HEDGE	699	n/a	n/a	0	0	0
777759	WORD	wordpools/wasnorm_wordpool_576.txt	LTP314	ltpFR2	5	4	SHIRT	1287	n/a	n/a	0	0	0
780293	WORD	wordpools/wasnorm_wordpool_576.txt	LTP314	ltpFR2	5	4	CRIB	407	n/a	n/a	0	0	0
782996	WORD	wordpools/wasnorm_wordpool_576.txt	LTP314	ltpFR2	5	4	BUGGY	188	n/a	n/a	0	0	0
785730	WORD	wordpools/wasnorm_wordpool_576.txt	LTP314	ltpFR2	5	4	KITCHEN	778	n/a	n/a	0	0	0
788233	WORD	wordpools/wasnorm_wordpool_576.txt	LTP314	ltpFR2	5	4	CELLAR	267	n/a	n/a	0	0	0
790901	WORD	wordpools/wasnorm_wordpool_576.txt	LTP314	ltpFR2	5	4	DRIVER	499	n/a	n/a	0	0	0
793375	WORD	wordpools/wasnorm_wordpool_576.txt	LTP314	ltpFR2	5	4	NOMAD	955	n/a	n/a	0	0	0
796179	WORD	wordpools/wasnorm_wordpool_576.txt	LTP314	ltpFR2	5	4	DUST	508	n/a	n/a	0	0	0
798673	WORD	wordpools/wasnorm_wordpool_576.txt	LTP314	ltpFR2	5	4	LION	827	n/a	n/a	0	0	0
801093	WORD	wordpools/wasnorm_wordpool_576.txt	LTP314	ltpFR2	5	4	FOOTBALL	591	n/a	n/a	0	0	0
803534	WORD	wordpools/wasnorm_wordpool_576.txt	LTP314	ltpFR2	5	4	JELLY	755	n/a	n/a	0	0	0
806030	WORD	wordpools/wasnorm_wordpool_576.txt	LTP314	ltpFR2	5	4	BANKER	84	n/a	n/a	0	0	0
808765	WORD	wordpools/wasnorm_wordpool_576.txt	LTP314	ltpFR2	5	4	FOREST	593	n/a	n/a	0	0	0
811299	WORD	wordpools/wasnorm_wordpool_576.txt	LTP314	ltpFR2	5	4	SUSPECT	1415	n/a	n/a	0	0	0
813769	WORD	wordpools/wasnorm_wordpool_576.txt	LTP314	ltpFR2	5	4	TREAT	1501	n/a	n/a	0	0	0
816404	WORD	wordpools/wasnorm_wordpool_576.txt	LTP314	ltpFR2	5	4	PATIENT	1024	n/a	n/a	0	0	0
818881	WORD	wordpools/wasnorm_wordpool_576.txt	LTP314	ltpFR2	5	4	NURSE	963	n/a	n/a	0	0	0
821349	WORD	wordpools/wasnorm_wordpool_576.txt	LTP314	ltpFR2	5	4	SERVER	1272	n/a	n/a	0	0	0
824052	WORD	wordpools/wasnorm_wordpool_576.txt	LTP314	ltpFR2	5	4	MISTER	901	n/a	n/a	0	0	0
825661	START	n/a	LTP314	ltpFR2	5	n/a	n/a	n/a	7	n/a	n/a	n/a	n/a
826667	DISTRACTOR	n/a	LTP314	ltpFR2	5	4	n/a	n/a	n/a	n/a	0	0	0
826678	PROB	n/a	LTP314	ltpFR2	5	n/a	n/a	n/a	7	18	5	8	5
828437	PROB	n/a	LTP314	ltpFR2	5	n/a	n/a	n/a	7	11	2	6	3
830453	PROB	n/a	LTP314	ltpFR2	5	n/a	n/a	n/a	7	15	7	4	4
832272	PROB	n/a	LTP314	ltpFR2	5	n/a	n/a	n/a	7	14	1	6	7
833606	PROB	n/a	LTP314	ltpFR2	5	n/a	n/a	n/a	7	12	1	3	8
835392	PROB	n/a	LTP314	ltpFR2	5	n/a	n/a	n/a	7	14	2	7	5
837743	PROB	n/a	LTP314	ltpFR2	5	n/a	n/a	n/a	7	12	9	2	1
839411	PROB	n/a	LTP314	ltpFR2	5	n/a	n/a	n/a	7	16	3	5	8
841063	PROB	n/a	LTP314	ltpFR2	5	n/a	n/a	n/a	7	21	9	6	6
843448	PROB	n/a	LTP314	ltpFR2	5	n/a	n/a	n/a	7	17	3	8	6
849661	STOP	n/a	LTP314	ltpFR2	5	n/a	n/a	n/a	7	n/a	n/a	n/a	n/a
851606	REC_START	n/a	LTP314	ltpFR2	5	4	n/a	n/a	n/a	n/a	0	0	0
852814	REC_WORD	wordpools/wasnorm_wordpool_576.txt	LTP314	ltpFR2	5	4	SUSPECT	1415	n/a	n/a	0	0	0
855904	REC_WORD	wordpools/wasnorm_wordpool_576.txt	LTP314	ltpFR2	5	4	DUST	508	n/a	n/a	0	0	0
856569	REC_WORD	wordpools/wasnorm_wordpool_576.txt	LTP314	ltpFR2	5	4	NOMAD	955	n/a	n/a	0	0	0
942050	DISTRACTOR	n/a	LTP314	ltpFR2	5	5	n/a	n/a	n/a	n/a	0	0	0
942050	START	n/a	LTP314	ltpFR2	5	n/a	n/a	n/a	8	n/a	n/a	n/a	n/a
942067	PROB	n/a	LTP314	ltpFR2	5	n/a	n/a	n/a	8	16	7	5	4
944032	PROB	n/a	LTP314	ltpFR2	5	n/a	n/a	n/a	8	23	9	6	8
947234	PROB	n/a	LTP314	ltpFR2	5	n/a	n/a	n/a	8	15	5	4	6
948735	PROB	n/a	LTP314	ltpFR2	5	n/a	n/a	n/a	8	16	4	3	9
950370	PROB	n/a	LTP314	ltpFR2	5	n/a	n/a	n/a	8	18	6	4	8
951855	PROB	n/a	LTP314	ltpFR2	5	n/a	n/a	n/a	8	10	4	4	2
953306	PROB	n/a	LTP314	ltpFR2	5	n/a	n/a	n/a	8	21	6	7	8
956325	PROB	n/a	LTP314	ltpFR2	5	n/a	n/a	n/a	8	17	9	1	7
958061	PROB	n/a	LTP314	ltpFR2	5	n/a	n/a	n/a	8	12	6	1	6
960414	PROB	n/a	LTP314	ltpFR2	5	n/a	n/a	n/a	8	16	5	7	4
964526	STOP	n/a	LTP314	ltpFR2	5	n/a	n/a	n/a	8	n/a	n/a	n/a	n/a
967136	WORD	wordpools/wasnorm_wordpool_576.txt	LTP314	ltpFR2	5	5	FUNGUS	614	n/a	n/a	0	0	0
969622	WORD	wordpools/wasnorm_wordpool_576.txt	LTP314	ltpFR2	5	5	BANK	83	n/a	n/a	0	0	0
972224	WORD	wordpools/wasnorm_wordpool_576.txt	LTP314	ltpFR2	5	5	LEOPARD	812	n/a	n/a	0	0	0
974708	WORD	wordpools/wasnorm_wordpool_576.txt	LTP314	ltpFR2	5	5	BEAST	108	n/a	n/a	0	0	0
977492	WORD	wordpools/wasnorm_wordpool_576.txt	LTP314	ltpFR2	5	5	MATTRESS	879	n/a	n/a	0	0	0
980079	WORD	wordpools/wasnorm_wordpool_576.txt	LTP314	ltpFR2	5	5	CRICKET	408	n/a	n/a	0	0	0
982547	WORD	wordpools/wasnorm_wordpool_576.txt	LTP314	ltpFR2	5	5	FRECKLE	602	n/a	n/a	0	0	0
984983	WORD	wordpools/wasnorm_wordpool_576.txt	LTP314	ltpFR2	5	5	ROBIN	1199	n/a	n/a	0	0	0
987802	WORD	wordpools/wasnorm_wordpool_576.txt	LTP314	ltpFR2	5	5	LOFT	840	n/a	n/a	0	0	0
990536	WORD	wordpools/wasnorm_wordpool_576.txt	LTP314	ltpFR2	5	5	PASTA	1021	n/a	n/a	0	0	0
993056	WORD	wordpools/wasnorm_wordpool_576.txt	LTP314	ltpFR2	5	5	COFFEE	341	n/a	n/a	0	0	0
995507	WORD	wordpools/wasnorm_wordpool_576.txt	LTP314	ltpFR2	5	5	AGENT	10	n/a	n/a	0	0	0
997960	WORD	wordpools/wasnorm_wordpool_576.txt	LTP314	ltpFR2	5	5	ACTOR	5	n/a	n/a	0	0	0
1000711	WORD	wordpools/wasnorm_wordpool_576.txt	LTP314	ltpFR2	5	5	ROD	1203	n/a	n/a	0	0	0
1003196	WORD	wordpools/wasnorm_wordpool_576.txt	LTP314	ltpFR2	5	5	MISSILE	900	n/a	n/a	0	0	0
1005719	WORD	wordpools/wasnorm_wordpool_576.txt	LTP314	ltpFR2	5	5	JUDGE	761	n/a	n/a	0	0	0
1008466	WORD	wordpools/wasnorm_wordpool_576.txt	LTP314	ltpFR2	5	5	ZIPPER	1636	n/a	n/a	0	0	0
1011219	WORD	wordpools/wasnorm_wordpool_576.txt	LTP314	ltpFR2	5	5	DENIM	446	n/a	n/a	0	0	0
1013788	WORD	wordpools/wasnorm_wordpool_576.txt	LTP314	ltpFR2	5	5	ROOSTER	1209	n/a	n/a	0	0	0
1016260	WORD	wordpools/wasnorm_wordpool_576.txt	LTP314	ltpFR2	5	5	MAPLE	866	n/a	n/a	0	0	0
1018881	WORD	wordpools/wasnorm_wordpool_576.txt	LTP314	ltpFR2	5	5	MARS	873	n/a	n/a	0	0	0
1021676	WORD	wordpools/wasnorm_wordpool_576.txt	LTP314	ltpFR2	5	5	PIMPLE	1071	n/a	n/a	0	0	0
1024113	WORD	wordpools/wasnorm_wordpool_576.txt	LTP314	ltpFR2	5	5	HIGHWAY	707	n/a	n/a	0	0	0
1026804	WORD	wordpools/wasnorm_wordpool_576.txt	LTP314	ltpFR2	5	5	PERCH	1048	n/a	n/a	0	0	0
1028415	START	n/a	LTP314	ltpFR2	5	n/a	n/a	n/a	9	n/a	n/a	n/a	n/a
1029246	DISTRACTOR	n/a	LTP314	ltpFR2	5	5	n/a	n/a	n/a	n/a	0	0	0
1029255	PROB	n/a	LTP314	ltpFR2	5	n/a	n/a	n/a	9	19	6	8	5
1032491	PROB	n/a	LTP314	ltpFR2	5	n/a	n/a	n/a	9	17	9	7	1
1034540	PROB	n/a	LTP314	ltpFR2	5	n/a	n/a	n/a	9	8	3	3	2
1036675	PROB	n/a	LTP314	ltpFR2	5	n/a	n/a	n/a	9	12	2	3	7
1038295	PROB	n/a	LTP314	ltpFR2	5	n/a	n/a	n/a	9	10	4	2	4
1040580	PROB	n/a	LTP314	ltpFR2	5	n/a	n/a	n/a	9	17	6	4	7
1042163	PROB	n/a	LTP314	ltpFR2	5	n/a	n/a	n/a	9	16	8	7	1
1044016	PROB	n/a	LTP314	ltpFR2	5	n/a	n/a	n/a	9	16	8	7	1
1047317	PROB	n/a	LTP314	ltpFR2	5	n/a	n/a	n/a	9	9	3	5	1
1048770	PROB	n/a	LTP314	ltpFR2	5	n/a	n/a	n/a	9	12	6	4	2
1050287	PROB	n/a	LTP314	ltpFR2	5	n/a	n/a	n/a	9	10	2	2	6
1052159	STOP	n/a	LTP314	ltpFR2	5	n/a	n/a	n/a	9	n/a	n/a	n/a	n/a
1054174	REC_START	n/a	LTP314	ltpFR2	5	5	n/a	n/a	n/a	n/a	0	0	0
1055741	REC_WORD	wordpools/wasnorm_wordpool_576.txt	LTP314	ltpFR2	5	5	MAPLE	866	n/a	n/a	0	0	0
1056335	REC_WORD	wordpools/wasnorm_wordpool_576.txt	LTP314	ltpFR2	5	5	MISSILE	900	n/a	n/a	0	0	0
1056983	REC_WORD	wordpools/wasnorm_wordpool_576.txt	LTP314	ltpFR2	5	5	JUDGE	761	n/a	n/a	0	0	0
1061739	REC_WORD_VV	wordpools/wasnorm_wordpool_576.txt	LTP314	ltpFR2	5	5	<>	-1	n/a	n/a	0	0	0
1072959	REC_WORD	wordpools/wasnorm_wordpool_576.txt	LTP314	ltpFR2	5	5	LOFT	840	n/a	n/a	0	0	0
1144648	WORD	wordpools/wasnorm_wordpool_576.txt	LTP314	ltpFR2	5	6	LAKE	796	n/a	n/a	0	0	0
1147286	WORD	wordpools/wasnorm_wordpool_576.txt	LTP314	ltpFR2	5	6	SALMON	1227	n/a	n/a	0	0	0
1149757	WORD	wordpools/wasnorm_wordpool_576.txt	LTP314	ltpFR2	5	6	RUG	1215	n/a	n/a	0	0	0
1152225	WORD	wordpools/wasnorm_wordpool_576.txt	LTP314	ltpFR2	5	6	DONOR	485	n/a	n/a	0	0	0
1154861	WORD	wordpools/wasnorm_wordpool_576.txt	LTP314	ltpFR2	5	6	COOK	372	n/a	n/a	0	0	0
1157362	WORD	wordpools/wasnorm_wordpool_576.txt	LTP314	ltpFR2	5	6	COD	340	n/a	n/a	0	0	0
1160065	WORD	wordpools/wasnorm_wordpool_576.txt	LTP314	ltpFR2	5	6	SCALPEL	1243	n/a	n/a	0	0	0
1162767	WORD	wordpools/wasnorm_wordpool_576.txt	LTP314	ltpFR2	5	6	CLAM	315	n/a	n/a	0	0	0
1165318	WORD	wordpools/wasnorm_wordpool_576.txt	LTP314	ltpFR2	5	6	MAILBOX	857	n/a	n/a	0	0	0
1167938	WORD	wordpools/wasnorm_wordpool_576.txt	LTP314	ltpFR2	5	6	PRINCESS	1125	n/a	n/a	0	0	0
1170523	WORD	wordpools/wasnorm_wordpool_576.txt	LTP314	ltpFR2	5	6	LAPEL	800	n/a	n/a	0	0	0
1173193	WORD	wordpools/wasnorm_wordpool_576.txt	LTP314	ltpFR2	5	6	SMOG	1330	n/a	n/a	0	0	0
1175726	WORD	wordpools/wasnorm_wordpool_576.txt	LTP314	ltpFR2	5	6	BUTCHER	203	n/a	n/a	0	0	0
1178180	WORD	wordpools/wasnorm_wordpool_576.txt	LTP314	ltpFR2	5	6	PACKAGE	997	n/a	n/a	0	0	0
1180999	WORD	wordpools/wasnorm_wordpool_576.txt	LTP314	ltpFR2	5	6	POET	1095	n/a	n/a	0	0	0
1183501	WORD	wordpools/wasnorm_wordpool_576.txt	LTP314	ltpFR2	5	6	RELISH	1183	n/a	n/a	0	0	0
1186020	WORD	wordpools/wasnorm_wordpool_576.txt	LTP314	ltpFR2	5	6	SANDWICH	1232	n/a	n/a	0	0	0
1188772	WORD	wordpools/wasnorm_wordpool_576.txt	LTP314	ltpFR2	5	6	PLATE	1086	n/a	n/a	0	0	0
1191290	WORD	wordpools/wasnorm_wordpool_576.txt	LTP314	ltpFR2	5	6	CEILING	265	n/a	n/a	0	0	0
1194026	WORD	wordpools/wasnorm_wordpool_576.txt	LTP314	ltpFR2	5	6	ARMY	39	n/a	n/a	0	0	0
1196543	WORD	wordpools/wasnorm_wordpool_576.txt	LTP314	ltpFR2	5	6	ROCKET	1202	n/a	n/a	0	0	0
1199278	WORD	wordpools/wasnorm_wordpool_576.txt	LTP314	ltpFR2	5	6	PARROT	1015	n/a	n/a	0	0	0
1201798	WORD	wordpools/wasnorm_wordpool_576.txt	LTP314	ltpFR2	5	6	SPARROW	1347	n/a	n/a	0	0	0
1204299	WORD	wordpools/wasnorm_wordpool_576.txt	LTP314	ltpFR2	5	6	BALLOON	75	n/a	n/a	0	0	0
1205919	START	n/a	LTP314	ltpFR2	5	n/a	n/a	n/a	10	n/a	n/a	n/a	n/a
1207011	DISTRACTOR	n/a	LTP314	ltpFR2	5	6	n/a	n/a	n/a	n/a	0	0	0
1207019	PROB	n/a	LTP314	ltpFR2	5	n/a	n/a	n/a	10	18	7	4	7
1209052	PROB	n/a	LTP314	ltpFR2	5	n/a	n/a	n/a	10	15	2	7	6
1210471	PROB	n/a	LTP314	ltpFR2	5	n/a	n/a	n/a	10	17	7	9	1
1212307	PROB	n/a	LTP314	ltpFR2	5	n/a	n/a	n/a	10	18	9	6	3
1214109	PROB	n/a	LTP314	ltpFR2	5	n/a	n/a	n/a	10	19	4	6	9
1215588	PROB	n/a	LTP314	ltpFR2	5	n/a	n/a	n/a	10	18	4	8	6
1219092	PROB	n/a	LTP314	ltpFR2	5	n/a	n/a	n/a	10	14	3	2	9
1220763	PROB	n/a	LTP314	ltpFR2	5	n/a	n/a	n/a	10	11	4	6	1
1221944	PROB	n/a	LTP314	ltpFR2	5	n/a	n/a	n/a	10	6	3	2	1
1223478	PROB	n/a	LTP314	ltpFR2	5	n/a	n/a	n/a	10	13	1	8	4
1225147	PROB	n/a	LTP314	ltpFR2	5	n/a	n/a	n/a	10	21	9	5	7
1227718	PROB	n/a	LTP314	ltpFR2	5	n/a	n/a	n/a	10	18	9	7	2
1229718	STOP	n/a	LTP314	ltpFR2	5	n/a	n/a	n/a	10	n/a	n/a	n/a	n/a
1231704	REC_START	n/a	LTP314	ltpFR2	5	6	n/a	n/a	n/a	n/a	0	0	0
1232419	REC_WORD	wordpools/wasnorm_wordpool_576.txt	LTP314	ltpFR2	5	6	COD	340	n/a	n/a	0	0	0
1232891	REC_WORD	wordpools/wasnorm_wordpool_576.txt	LTP314	ltpFR2	5	6	SALMON	1227	n/a	n/a	0	0	0
1234156	REC_WORD	wordpools/wasnorm_wordpool_576.txt	LTP314	ltpFR2	5	6	POET	1095	n/a	n/a	0	0	0
1261879	REC_WORD	wordpools/wasnorm_wordpool_576.txt	LTP314	ltpFR2	5	6	BUTCHER	203	n/a	n/a	0	0	0
1322147	WORD	wordpools/wasnorm_wordpool_576.txt	LTP314	ltpFR2	5	7	GALLON	618	n/a	n/a	0	0	0
1324601	WORD	wordpools/wasnorm_wordpool_576.txt	LTP314	ltpFR2	5	7	BELLY	119	n/a	n/a	0	0	0
1327137	WORD	wordpools/wasnorm_wordpool_576.txt	LTP314	ltpFR2	5	7	MEAT	883	n/a	n/a	0	0	0
1329654	WORD	wordpools/wasnorm_wordpool_576.txt	LTP314	ltpFR2	5	7	FILM	565	n/a	n/a	0	0	0
1332241	WORD	wordpools/wasnorm_wordpool_576.txt	LTP314	ltpFR2	5	7	RACKET	1155	n/a	n/a	0	0	0
1334967	WORD	wordpools/wasnorm_wordpool_576.txt	LTP314	ltpFR2	5	7	POISON	1096	n/a	n/a	0	0	0
1337500	WORD	wordpools/wasnorm_wordpool_576.txt	LTP314	ltpFR2	5	7	SILK	1307	n/a	n/a	0	0	0
1340313	WORD	wordpools/wasnorm_wordpool_576.txt	LTP314	ltpFR2	5	7	VELVET	1555	n/a	n/a	0	0	0
1342923	WORD	wordpools/wasnorm_wordpool_576.txt	LTP314	ltpFR2	5	7	GRAPE	654	n/a	n/a	0	0	0
1345602	WORD	wordpools/wasnorm_wordpool_576.txt	LTP314	ltpFR2	5	7	BARLEY	88	n/a	n/a	0	0	0
1348088	WORD	wordpools/wasnorm_wordpool_576.txt	LTP314	ltpFR2	5	7	LADY	794	n/a	n/a	0	0	0
1350740	WORD	wordpools/wasnorm_wordpool_576.txt	LTP314	ltpFR2	5	7	CATTLE	261	n/a	n/a	0	0	0
1353542	WORD	wordpools/wasnorm_wordpool_576.txt	LTP314	ltpFR2	5	7	TUNNEL	1519	n/a	n/a	0	0	0
1356261	WORD	wordpools/wasnorm_wordpool_576.txt	LTP314	ltpFR2	5	7	BOYFRIEND	162	n/a	n/a	0	0	0
1359031	WORD	wordpools/wasnorm_wordpool_576.txt	LTP314	ltpFR2	5	7	WINDOW	1611	n/a	n/a	0	0	0
1361816	WORD	wordpools/wasnorm_wordpool_576.txt	LTP314	ltpFR2	5	7	COUSIN	392	n/a	n/a	0	0	0
1364505	WORD	wordpools/wasnorm_wordpool_576.txt	LTP314	ltpFR2	5	7	MILK	895	n/a	n/a	0	0	0
1367037	WORD	wordpools/wasnorm_wordpool_576.txt	LTP314	ltpFR2	5	7	KETCHUP	771	n/a	n/a	0	0	0
1369521	WORD	wordpools/wasnorm_wordpool_576.txt	LTP314	ltpFR2	5	7	GARLIC	624	n/a	n/a	0	0	0
1372311	WORD	wordpools/wasnorm_wordpool_576.txt	LTP314	ltpFR2	5	7	SNAIL	1332	n/a	n/a	0	0	0
1375144	WORD	wordpools/wasnorm_wordpool_576.txt	LTP314	ltpFR2	5	7	BISON	131	n/a	n/a	0	0	0
1377979	WORD	wordpools/wasnorm_wordpool_576.txt	LTP314	ltpFR2	5	7	HANDBAG	684	n/a	n/a	0	0	0
1380414	WORD	wordpools/wasnorm_wordpool_576.txt	LTP314	ltpFR2	5	7	TAXI	1438	n/a	n/a	0	0	0
1382919	WORD	wordpools/wasnorm_wordpool_576.txt	LTP314	ltpFR2	5	7	BIKE	125	n/a	n/a	0	0	0
1384535	START	n/a	LTP314	ltpFR2	5	n/a	n/a	n/a	11	n/a	n/a	n/a	n/a
1385619	DISTRACTOR	n/a	LTP314	ltpFR2	5	7	n/a	n/a	n/a	n/a	0	0	0
1385635	PROB	n/a	LTP314	ltpFR2	5	n/a	n/a	n/a	11	24	9	8	7
1388802	PROB	n/a	LTP314	ltpFR2	5	n/a	n/a	n/a	11	15	1	9	5
1390702	PROB	n/a	LTP314	ltpFR2	5	n/a	n/a	n/a	11	13	9	2	1
1392438	PROB	n/a	LTP314	ltpFR2	5	n/a	n/a	n/a	11	19	1	9	9
1394124	PROB	n/a	LTP314	ltpFR2	5	n/a	n/a	n/a	11	8	6	1	2
1395841	PROB	n/a	LTP314	ltpFR2	5	n/a	n/a	n/a	11	3	1	1	1
1397359	PROB	n/a	LTP314	ltpFR2	5	n/a	n/a	n/a	11	16	6	7	3
1401278	PROB	n/a	LTP314	ltpFR2	5	n/a	n/a	n/a	11	8	2	5	1
1408535	STOP	n/a	LTP314	ltpFR2	5	n/a	n/a	n/a	11	n/a	n/a	n/a	n/a
1410486	REC_START	n/a	LTP314	ltpFR2	5	7	n/a	n/a	n/a	n/a	0	0	0
1411830	REC_WORD	wordpools/wasnorm_wordpool_576.txt	LTP314	ltpFR2	5	7	BARLEY	88	n/a	n/a	0	0	0
1412241	REC_WORD	wordpools/wasnorm_wordpool_576.txt	LTP314	ltpFR2	5	7	KETCHUP	771	n/a	n/a	0	0	0
1416961	REC_WORD	wordpools/wasnorm_wordpool_576.txt	LTP314	ltpFR2	5	7	GRAPE	654	n/a	n/a	0	0	0
1431126	REC_WORD	wordpools/wasnorm_wordpool_576.txt	LTP314	ltpFR2	5	7	LADY	794	n/a	n/a	0	0	0
1455156	REC_WORD	wordpools/wasnorm_wordpool_576.txt	LTP314	ltpFR2	5	7	TUNNEL	1519	n/a	n/a	0	0	0
1500941	WORD	wordpools/wasnorm_wordpool_576.txt	LTP314	ltpFR2	5	8	COLONEL	348	n/a	n/a	0	0	0
1503582	WORD	wordpools/wasnorm_wordpool_576.txt	LTP314	ltpFR2	5	8	SNACK	1331	n/a	n/a	0	0	0
1506252	WORD	wordpools/wasnorm_wordpool_576.txt	LTP314	ltpFR2	5	8	DRINK	498	n/a	n/a	0	0	0
1509066	WORD	wordpools/wasnorm_wordpool_576.txt	LTP314	ltpFR2	5	8	BURGLAR	200	n/a	n/a	0	0	0
1511573	WORD	wordpools/wasnorm_wordpool_576.txt	LTP314	ltpFR2	5	8	ROBBER	1197	n/a	n/a	0	0	0
1514369	WORD	wordpools/wasnorm_wordpool_576.txt	LTP314	ltpFR2	5	8	CYCLONE	431	n/a	n/a	0	0	0
1516829	WORD	wordpools/wasnorm_wordpool_576.txt	LTP314	ltpFR2	5	8	SKILLET	1317	n/a	n/a	0	0	0
1519457	WORD	wordpools/wasnorm_wordpool_576.txt	LTP314	ltpFR2	5	8	ICING	732	n/a	n/a	0	0	0
1522226	WORD	wordpools/wasnorm_wordpool_576.txt	LTP314	ltpFR2	5	8	SCALLOP	1242	n/a	n/a	0	0	0
1524878	WORD	wordpools/wasnorm_wordpool_576.txt	LTP314	ltpFR2	5	8	CABIN	211	n/a	n/a	0	0	0
1527496	WORD	wordpools/wasnorm_wordpool_576.txt	LTP314	ltpFR2	5	8	SALT	1229	n/a	n/a	0	0	0
1530139	WORD	wordpools/wasnorm_wordpool_576.txt	LTP314	ltpFR2	5	8	RAFT	1159	n/a	n/a	0	0	0
1532775	WORD	wordpools/wasnorm_wordpool_576.txt	LTP314	ltpFR2	5	8	BATHTUB	100	n/a	n/a	0	0	0
1535451	WORD	wordpools/wasnorm_wordpool_576.txt	LTP314	ltpFR2	5	8	ATOM	55	n/a	n/a	0	0	0
1538179	WORD	wordpools/wasnorm_wordpool_576.txt	LTP314	ltpFR2	5	8	DANDRUFF	439	n/a	n/a	0	0	0
1540914	WORD	wordpools/wasnorm_wordpool_576.txt	LTP314	ltpFR2	5	8	PREACHER	1119	n/a	n/a	0	0	0
1543516	WORD	wordpools/wasnorm_wordpool_576.txt	LTP314	ltpFR2	5	8	BLOCKADE	137	n/a	n/a	0	0	0
1546268	WORD	wordpools/wasnorm_wordpool_576.txt	LTP314	ltpFR2	5	8	CHAMPAGNE	278	n/a	n/a	0	0	0
1548772	WORD	wordpools/wasnorm_wordpool_576.txt	LTP314	ltpFR2	5	8	REBEL	1172	n/a	n/a	0	0	0
1551215	WORD	wordpools/wasnorm_wordpool_576.txt	LTP314	ltpFR2	5	8	BRANCH	168	n/a	n/a	0	0	0
1553875	WORD	wordpools/wasnorm_wordpool_576.txt	LTP314	ltpFR2	5	8	CRAB	397	n/a	n/a	0	0	0
1556676	WORD	wordpools/wasnorm_wordpool_576.txt	LTP314	ltpFR2	5	8	HORNET	718	n/a	n/a	0	0	0
1559413	WORD	wordpools/wasnorm_wordpool_576.txt	LTP314	ltpFR2	5	8	FLASK	576	n/a	n/a	0	0	0
1562157	WORD	wordpools/wasnorm_wordpool_576.txt	LTP314	ltpFR2	5	8	BEEF	113	n/a	n/a	0	0	0
1563768	START	n/a	LTP314	ltpFR2	5	n/a	n/a	n/a	12	n/a	n/a	n/a	n/a
1564675	DISTRACTOR	n/a	LTP314	ltpFR2	5	8	n/a	n/a	n/a	n/a	0	0	0
1564684	PROB	n/a	LTP314	ltpFR2	5	n/a	n/a	n/a	12	21	9	3	9
1566783	PROB	n/a	LTP314	ltpFR2	5	n/a	n/a	n/a	12	11	4	1	6
1568168	PROB	n/a	LTP314	ltpFR2	5	n/a	n/a	n/a	12	16	6	9	1
1570156	PROB	n/a	LTP314	ltpFR2	5	n/a	n/a	n/a	12	18	6	6	6
1573588	PROB	n/a	LTP314	ltpFR2	5	n/a	n/a	n/a	12	21	9	3	9
1575389	PROB	n/a	LTP314	ltpFR2	5	n/a	n/a	n/a	12	13	6	6	1
1577194	PROB	n/a	LTP314	ltpFR2	5	n/a	n/a	n/a	12	18	6	9	3
1578961	PROB	n/a	LTP314	ltpFR2	5	n/a	n/a	n/a	12	16	5	9	2
1582529	PROB	n/a	LTP314	ltpFR2	5	n/a	n/a	n/a	12	12	4	1	7
1585699	PROB	n/a	LTP314	ltpFR2	5	n/a	n/a	n/a	12	14	4	4	6
1587542	STOP	n/a	LTP314	ltpFR2	5	n/a	n/a	n/a	12	n/a	n/a	n/a	n/a
1589519	REC_START	n/a	LTP314	ltpFR2	5	8	n/a	n/a	n/a	n/a	0	0	0
1590883	REC_WORD	wordpools/wasnorm_wordpool_576.txt	LTP314	ltpFR2	5	8	BEEF	113	n/a	n/a	0	0	0
1595637	REC_WORD	wordpools/wasnorm_wordpool_576.txt	LTP314	ltpFR2	5	8	DANDRUFF	439	n/a	n/a	0	0	0
1604818	REC_WORD	wordpools/wasnorm_wordpool_576.txt	LTP314	ltpFR2	5	8	BATHTUB	100	n/a	n/a	0	0	0
1634724	REC_WORD	wordpools/wasnorm_wordpool_576.txt	LTP314	ltpFR2	5	8	HORNET	718	n/a	n/a	0	0	0
1666053	REST_REWET	n/a	LTP314	ltpFR2	5	8	n/a	n/a	n/a	n/a	0	0	0
2047066	WORD	wordpools/wasnorm_wordpool_576.txt	LTP314	ltpFR2	5	9	CASKET	255	n/a	n/a	0	0	0
2049854	WORD	wordpools/wasnorm_wordpool_576.txt	LTP314	ltpFR2	5	9	SLIDE	1326	n/a	n/a	0	0	0
2052489	WORD	wordpools/wasnorm_wordpool_576.txt	LTP314	ltpFR2	5	9	FRIEND	606	n/a	n/a	0	0	0
2055143	WORD	wordpools/wasnorm_wordpool_576.txt	LTP314	ltpFR2	5	9	OUTFIT	988	n/a	n/a	0	0	0
2057743	WORD	wordpools/wasnorm_wordpool_576.txt	LTP314	ltpFR2	5	9	ZEBRA	1635	n/a	n/a	0	0	0
2060164	WORD	wordpools/wasnorm_wordpool_576.txt	LTP314	ltpFR2	5	9	AUTHOR	61	n/a	n/a	0	0	0
2062738	WORD	wordpools/wasnorm_wordpool_576.txt	LTP314	ltpFR2	5	9	SCRIBBLE	1256	n/a	n/a	0	0	0
2065449	WORD	wordpools/wasnorm_wordpool_576.txt	LTP314	ltpFR2	5	9	GUITAR	670	n/a	n/a	0	0	0
2068059	WORD	wordpools/wasnorm_wordpool_576.txt	LTP314	ltpFR2	5	9	FEMALE	559	n/a	n/a	0	0	0
2070688	WORD	wordpools/wasnorm_wordpool_576.txt	LTP314	ltpFR2	5	9	PUPPY	1144	n/a	n/a	0	0	0
2073141	WORD	wordpools/wasnorm_wordpool_576.txt	LTP314	ltpFR2	5	9	CATCHER	258	n/a	n/a	0	0	0
2075626	WORD	wordpools/wasnorm_wordpool_576.txt	LTP314	ltpFR2	5	9	FLAG	573	n/a	n/a	0	0	0
2078428	WORD	wordpools/wasnorm_wordpool_576.txt	LTP314	ltpFR2	5	9	CLOUD	328	n/a	n/a	0	0	0
2081180	WORD	wordpools/wasnorm_wordpool_576.txt	LTP314	ltpFR2	5	9	CANDY	230	n/a	n/a	0	0	0
2083833	WORD	wordpools/wasnorm_wordpool_576.txt	LTP314	ltpFR2	5	9	JOURNAL	760	n/a	n/a	0	0	0
2086585	WORD	wordpools/wasnorm_wordpool_576.txt	LTP314	ltpFR2	5	9	PIGMENT	1066	n/a	n/a	0	0	0
2089357	WORD	wordpools/wasnorm_wordpool_576.txt	LTP314	ltpFR2	5	9	LIGHTNING	820	n/a	n/a	0	0	0
2091810	WORD	wordpools/wasnorm_wordpool_576.txt	LTP314	ltpFR2	5	9	TOMBSTONE	1478	n/a	n/a	0	0	0
2094425	WORD	wordpools/wasnorm_wordpool_576.txt	LTP314	ltpFR2	5	9	DOUGHNUT	490	n/a	n/a	0	0	0
2096993	WORD	wordpools/wasnorm_wordpool_576.txt	LTP314	ltpFR2	5	9	ANTLER	29	n/a	n/a	0	0	0
2099814	WORD	wordpools/wasnorm_wordpool_576.txt	LTP314	ltpFR2	5	9	MARKER	870	n/a	n/a	0	0	0
2102314	WORD	wordpools/wasnorm_wordpool_576.txt	LTP314	ltpFR2	5	9	ROBOT	1200	n/a	n/a	0	0	0
2104851	WORD	wordpools/wasnorm_wordpool_576.txt	LTP314	ltpFR2	5	9	CUSTARD	429	n/a	n/a	0	0	0
2107386	WORD	wordpools/wasnorm_wordpool_576.txt	LTP314	ltpFR2	5	9	JELLO	754	n/a	n/a	0	0	0
2109004	START	n/a	LTP314	ltpFR2	5	n/a	n/a	n/a	13	n/a	n/a	n/a	n/a
2110179	DISTRACTOR	n/a	LTP314	ltpFR2	5	9	n/a	n/a	n/a	n/a	0	0	0
2110189	PROB	n/a	LTP314	ltpFR2	5	n/a	n/a	n/a	13	16	8	4	4
2112586	PROB	n/a	LTP314	ltpFR2	5	n/a	n/a	n/a	13	7	5	1	1
2114272	PROB	n/a	LTP314	ltpFR2	5	n/a	n/a	n/a	13	14	7	2	5
2117975	PROB	n/a	LTP314	ltpFR2	5	n/a	n/a	n/a	13	11	3	5	3
2119743	PROB	n/a	LTP314	ltpFR2	5	n/a	n/a	n/a	13	13	4	5	4
2121327	PROB	n/a	LTP314	ltpFR2	5	n/a	n/a	n/a	13	12	7	1	5
2122962	PROB	n/a	LTP314	ltpFR2	5	n/a	n/a	n/a	13	16	8	7	1
2125148	PROB	n/a	LTP314	ltpFR2	5	n/a	n/a	n/a	13	23	8	8	7
2127115	PROB	n/a	LTP314	ltpFR2	5	n/a	n/a	n/a	13	18	6	7	5
2131268	PROB	n/a	LTP314	ltpFR2	5	n/a	n/a	n/a	13	14	1	5	8
2132943	STOP	n/a	LTP314	ltpFR2	5	n/a	n/a	n/a	13	n/a	n/a	n/a	n/a
2134940	REC_START	n/a	LTP314	ltpFR2	5	9	n/a	n/a	n/a	n/a	0	0	0
2135669	REC_WORD	wordpools/wasnorm_wordpool_576.txt	LTP314	ltpFR2	5	9	CUSTARD	429	n/a	n/a	0	0	0
2138662	REC_WORD	wordpools/wasnorm_wordpool_576.txt	LTP314	ltpFR2	5	9	DOUGHNUT	490	n/a	n/a	0	0	0
2143426	REC_WORD	wordpools/wasnorm_wordpool_576.txt	LTP314	ltpFR2	5	9	ANTLER	29	n/a	n/a	0	0	0
2152617	REC_WORD	wordpools/wasnorm_wordpool_576.txt	LTP314	ltpFR2	5	9	SCRIBBLE	1256	n/a	n/a	0	0	0
2159200	REC_WORD	wordpools/wasnorm_wordpool_576.txt	LTP314	ltpFR2	5	9	TOMBSTONE	1478	n/a	n/a	0	0	0
2207508	REC_WORD	wordpools/wasnorm_wordpool_576.txt	LTP314	ltpFR2	5	9	PIGMENT	1066	n/a	n/a	0	0	0
2225398	WORD	wordpools/wasnorm_wordpool_576.txt	LTP314	ltpFR2	5	10	BLENDER	136	n/a	n/a	0	0	0
2228086	WORD	wordpools/wasnorm_wordpool_576.txt	LTP314	ltpFR2	5	10	PASSAGE	1019	n/a	n/a	0	0	0
2230515	WORD	wordpools/wasnorm_wordpool_576.txt	LTP314	ltpFR2	5	10	SWIMMER	1420	n/a	n/a	0	0	0
2233118	WORD	wordpools/wasnorm_wordpool_576.txt	LTP314	ltpFR2	5	10	SUPPER	1411	n/a	n/a	0	0	0
2235709	WORD	wordpools/wasnorm_wordpool_576.txt	LTP314	ltpFR2	5	10	CUPBOARD	425	n/a	n/a	0	0	0
2238522	WORD	wordpools/wasnorm_wordpool_576.txt	LTP314	ltpFR2	5	10	GIRL	637	n/a	n/a	0	0	0
2241224	WORD	wordpools/wasnorm_wordpool_576.txt	LTP314	ltpFR2	5	10	TEACHER	1440	n/a	n/a	0	0	0
2243859	WORD	wordpools/wasnorm_wordpool_576.txt	LTP314	ltpFR2	5	10	VICTIM	1562	n/a	n/a	0	0	0
2246651	WORD	wordpools/wasnorm_wordpool_576.txt	LTP314	ltpFR2	5	10	IGLOO	734	n/a	n/a	0	0	0
2249164	WORD	wordpools/wasnorm_wordpool_576.txt	LTP314	ltpFR2	5	10	POLICE	1098	n/a	n/a	0	0	0
2251722	WORD	wordpools/wasnorm_wordpool_576.txt	LTP314	ltpFR2	5	10	NEUTRON	947	n/a	n/a	0	0	0
2254467	WORD	wordpools/wasnorm_wordpool_576.txt	LTP314	ltpFR2	5	10	CRAYON	401	n/a	n/a	0	0	0
2257078	WORD	wordpools/wasnorm_wordpool_576.txt	LTP314	ltpFR2	5	10	JUNGLE	764	n/a	n/a	0	0	0
2259872	WORD	wordpools/wasnorm_wordpool_576.txt	LTP314	ltpFR2	5	10	COSTUME	383	n/a	n/a	0	0	0
2262313	WORD	wordpools/wasnorm_wordpool_576.txt	LTP314	ltpFR2	5	10	PAIL	1002	n/a	n/a	0	0	0
2265051	WORD	wordpools/wasnorm_wordpool_576.txt	LTP314	ltpFR2	5	10	BUBBLE	183	n/a	n/a	0	0	0
2267761	WORD	wordpools/wasnorm_wordpool_576.txt	LTP314	ltpFR2	5	10	SWAMP	1416	n/a	n/a	0	0	0
2270396	WORD	wordpools/wasnorm_wordpool_576.txt	LTP314	ltpFR2	5	10	WRIST	1626	n/a	n/a	0	0	0
2272948	WORD	wordpools/wasnorm_wordpool_576.txt	LTP314	ltpFR2	5	10	ARM	38	n/a	n/a	0	0	0
2275508	WORD	wordpools/wasnorm_wordpool_576.txt	LTP314	ltpFR2	5	10	LABEL	790	n/a	n/a	0	0	0
2278186	WORD	wordpools/wasnorm_wordpool_576.txt	LTP314	ltpFR2	5	10	STUDENT	1395	n/a	n/a	0	0	0
2280864	WORD	wordpools/wasnorm_wordpool_576.txt	LTP314	ltpFR2	5	10	MASK	876	n/a	n/a	0	0	0
2283389	WORD	wordpools/wasnorm_wordpool_576.txt	LTP314	ltpFR2	5	10	PALACE	1006	n/a	n/a	0	0	0
2286168	WORD	wordpools/wasnorm_wordpool_576.txt	LTP314	ltpFR2	5	10	MATCH	878	n/a	n/a	0	0	0
2287777	START	n/a	LTP314	ltpFR2	5	n/a	n/a	n/a	14	n/a	n/a	n/a	n/a
2288767	DISTRACTOR	n/a	LTP314	ltpFR2	5	10	n/a	n/a	n/a	n/a	0	0	0
2288777	PROB	n/a	LTP314	ltpFR2	5	n/a	n/a	n/a	14	13	6	6	1
2290501	PROB	n/a	LTP314	ltpFR2	5	n/a	n/a	n/a	14	20	9	6	5
2292686	PROB	n/a	LTP314	ltpFR2	5	n/a	n/a	n/a	14	9	2	2	5
2294687	PROB	n/a	LTP314	ltpFR2	5	n/a	n/a	n/a	14	8	2	4	2
2296226	PROB	n/a	LTP314	ltpFR2	5	n/a	n/a	n/a	14	22	8	7	7
2298061	PROB	n/a	LTP314	ltpFR2	5	n/a	n/a	n/a	14	15	6	1	8
2299780	PROB	n/a	LTP314	ltpFR2	5	n/a	n/a	n/a	14	17	3	8	6
2302112	PROB	n/a	LTP314	ltpFR2	5	n/a	n/a	n/a	14	20	9	2	9
2303930	PROB	n/a	LTP314	ltpFR2	5	n/a	n/a	n/a	14	13	5	6	2
2305298	PROB	n/a	LTP314	ltpFR2	5	n/a	n/a	n/a	14	18	3	8	7
2307499	PROB	n/a	LTP314	ltpFR2	5	n/a	n/a	n/a	14	17	6	6	5
2311777	STOP	n/a	LTP314	ltpFR2	5	n/a	n/a	n/a	14	n/a	n/a	n/a	n/a
2313707	REC_START	n/a	LTP314	ltpFR2	5	10	n/a	n/a	n/a	n/a	0	0	0
2321324	REC_WORD	wordpools/wasnorm_wordpool_576.txt	LTP314	ltpFR2	5	10	STUDENT	1395	n/a	n/a	0	0	0
2323325	REC_WORD	wordpools/wasnorm_wordpool_576.txt	LTP314	ltpFR2	5	10	MASK	876	n/a	n/a	0	0	0
2325105	REC_WORD	wordpools/wasnorm_wordpool_576.txt	LTP314	ltpFR2	5	10	LABEL	790	n/a	n/a	0	0	0
2404180	WORD	wordpools/wasnorm_wordpool_576.txt	LTP314	ltpFR2	5	11	HOSTESS	723	n/a	n/a	0	0	0
2406750	WORD	wordpools/wasnorm_wordpool_576.txt	LTP314	ltpFR2	5	11	UMPIRE	1535	n/a	n/a	0	0	0
2409451	WORD	wordpools/wasnorm_wordpool_576.txt	LTP314	ltpFR2	5	11	PATROL	1027	n/a	n/a	0	0	0
2412205	WORD	wordpools/wasnorm_wordpool_576.txt	LTP314	ltpFR2	5	11	SHOULDER	1294	n/a	n/a	0	0	0
2414857	WORD	wordpools/wasnorm_wordpool_576.txt	LTP314	ltpFR2	5	11	FRAGRANCE	599	n/a	n/a	0	0	0
2417491	WORD	wordpools/wasnorm_wordpool_576.txt	LTP314	ltpFR2	5	11	PERFUME	1049	n/a	n/a	0	0	0
2420110	WORD	wordpools/wasnorm_wordpool_576.txt	LTP314	ltpFR2	5	11	BREAST	171	n/a	n/a	0	0	0
2422745	WORD	wordpools/wasnorm_wordpool_576.txt	LTP314	ltpFR2	5	11	FRANCE	601	n/a	n/a	0	0	0
2425396	WORD	wordpools/wasnorm_wordpool_576.txt	LTP314	ltpFR2	5	11	ASIA	46	n/a	n/a	0	0	0
2428117	WORD	wordpools/wasnorm_wordpool_576.txt	LTP314	ltpFR2	5	11	HAWK	692	n/a	n/a	0	0	0
2430687	WORD	wordpools/wasnorm_wordpool_576.txt	LTP314	ltpFR2	5	11	SPIDER	1351	n/a	n/a	0	0	0
2433503	WORD	wordpools/wasnorm_wordpool_576.txt	LTP314	ltpFR2	5	11	SCARF	1246	n/a	n/a	0	0	0
2436239	WORD	wordpools/wasnorm_wordpool_576.txt	LTP314	ltpFR2	5	11	FREEZER	604	n/a	n/a	0	0	0
2438674	WORD	wordpools/wasnorm_wordpool_576.txt	LTP314	ltpFR2	5	11	NOVEL	960	n/a	n/a	0	0	0
2441180	WORD	wordpools/wasnorm_wordpool_576.txt	LTP314	ltpFR2	5	11	SLUG	1329	n/a	n/a	0	0	0
2443865	WORD	wordpools/wasnorm_wordpool_576.txt	LTP314	ltpFR2	5	11	LUGGAGE	847	n/a	n/a	0	0	0
2446613	WORD	wordpools/wasnorm_wordpool_576.txt	LTP314	ltpFR2	5	11	YACHT	1629	n/a	n/a	0	0	0
2449133	WORD	wordpools/wasnorm_wordpool_576.txt	LTP314	ltpFR2	5	11	GRILL	661	n/a	n/a	0	0	0
2451684	WORD	wordpools/wasnorm_wordpool_576.txt	LTP314	ltpFR2	5	11	GARDEN	623	n/a	n/a	0	0	0
2454423	WORD	wordpools/wasnorm_wordpool_576.txt	LTP314	ltpFR2	5	11	GOBLIN	645	n/a	n/a	0	0	0
2457173	WORD	wordpools/wasnorm_wordpool_576.txt	LTP314	ltpFR2	5	11	PEBBLE	1035	n/a	n/a	0	0	0
2459980	WORD	wordpools/wasnorm_wordpool_576.txt	LTP314	ltpFR2	5	11	DRILL	497	n/a	n/a	0	0	0
2462525	WORD	wordpools/wasnorm_wordpool_576.txt	LTP314	ltpFR2	5	11	CARRIAGE	248	n/a	n/a	0	0	0
2465144	WORD	wordpools/wasnorm_wordpool_576.txt	LTP314	ltpFR2	5	11	SHELF	1280	n/a	n/a	0	0	0
2466751	START	n/a	LTP314	ltpFR2	5	n/a	n/a	n/a	15	n/a	n/a	n/a	n/a
2467925	DISTRACTOR	n/a	LTP314	ltpFR2	5	11	n/a	n/a	n/a	n/a	0	0	0
2467936	PROB	n/a	LTP314	ltpFR2	5	n/a	n/a	n/a	15	15	6	4	5
2470237	PROB	n/a	LTP314	ltpFR2	5	n/a	n/a	n/a	15	13	1	7	5
2472838	PROB	n/a	LTP314	ltpFR2	5	n/a	n/a	n/a	15	15	6	8	1
2474440	PROB	n/a	LTP314	ltpFR2	5	n/a	n/a	n/a	15	23	9	7	7
2477558	PROB	n/a	LTP314	ltpFR2	5	n/a	n/a	n/a	15	15	1	6	8
2479210	PROB	n/a	LTP314	ltpFR2	5	n/a	n/a	n/a	15	15	6	3	6
2480928	PROB	n/a	LTP314	ltpFR2	5	n/a	n/a	n/a	15	20	8	3	9
2483379	PROB	n/a	LTP314	ltpFR2	5	n/a	n/a	n/a	15	20	9	8	3
2490751	STOP	n/a	LTP314	ltpFR2	5	n/a	n/a	n/a	15	n/a	n/a	n/a	n/a
2492620	REC_START	n/a	LTP314	ltpFR2	5	11	n/a	n/a	n/a	n/a	0	0	0
2493476	REC_WORD	wordpools/wasnorm_wordpool_576.txt	LTP314	ltpFR2	5	11	HOSTESS	723	n/a	n/a	0	0	0
2499374	REC_WORD	wordpools/wasnorm_wordpool_576.txt	LTP314	ltpFR2	5	11	FRAGRANCE	599	n/a	n/a	0	0	0
2500867	REC_WORD	wordpools/wasnorm_wordpool_576.txt	LTP314	ltpFR2	5	11	PERFUME	1049	n/a	n/a	0	0	0
2583065	DISTRACTOR	n/a	LTP314	ltpFR2	5	12	n/a	n/a	n/a	n/a	0	0	0
2583065	START	n/a	LTP314	ltpFR2	5	n/a	n/a	n/a	16	n/a	n/a	n/a	n/a
2583078	PROB	n/a	LTP314	ltpFR2	5	n/a	n/a	n/a	16	15	8	2	5
2585380	PROB	n/a	LTP314	ltpFR2	5	n/a	n/a	n/a	16	14	1	9	4
2586948	PROB	n/a	LTP314	ltpFR2	5	n/a	n/a	n/a	16	17	2	7	8
2590986	PROB	n/a	LTP314	ltpFR2	5	n/a	n/a	n/a	16	10	4	4	2
2592719	PROB	n/a	LTP314	ltpFR2	5	n/a	n/a	n/a	16	11	3	5	3
2594323	PROB	n/a	LTP314	ltpFR2	5	n/a	n/a	n/a	16	18	9	5	4
2597225	PROB	n/a	LTP314	ltpFR2	5	n/a	n/a	n/a	16	19	8	4	7
2599509	PROB	n/a	LTP314	ltpFR2	5	n/a	n/a	n/a	16	21	8	7	6
2601928	PROB	n/a	LTP314	ltpFR2	5	n/a	n/a	n/a	16	23	8	7	8
2607065	STOP	n/a	LTP314	ltpFR2	5	n/a	n/a	n/a	16	n/a	n/a	n/a	n/a
2607936	WORD	wordpools/wasnorm_wordpool_576.txt	LTP314	ltpFR2	5	12	SOFTBALL	1343	n/a	n/a	0	0	0
2610537	WORD	wordpools/wasnorm_wordpool_576.txt	LTP314	ltpFR2	5	12	GLOVE	642	n/a	n/a	0	0	0
2613290	WORD	wordpools/wasnorm_wordpool_576.txt	LTP314	ltpFR2	5	12	GUARD	667	n/a	n/a	0	0	0
2615759	WORD	wordpools/wasnorm_wordpool_576.txt	LTP314	ltpFR2	5	12	BLADE	134	n/a	n/a	0	0	0
2618211	WORD	wordpools/wasnorm_wordpool_576.txt	LTP314	ltpFR2	5	12	RAZOR	1171	n/a	n/a	0	0	0
2620813	WORD	wordpools/wasnorm_wordpool_576.txt	LTP314	ltpFR2	5	12	SURVEY	1414	n/a	n/a	0	0	0
2623615	WORD	wordpools/wasnorm_wordpool_576.txt	LTP314	ltpFR2	5	12	RATTLE	1170	n/a	n/a	0	0	0
2626051	WORD	wordpools/wasnorm_wordpool_576.txt	LTP314	ltpFR2	5	12	GHETTO	633	n/a	n/a	0	0	0
2628652	WORD	wordpools/wasnorm_wordpool_576.txt	LTP314	ltpFR2	5	12	CASHIER	254	n/a	n/a	0	0	0
2631205	WORD	wordpools/wasnorm_wordpool_576.txt	LTP314	ltpFR2	5	12	NIGHTGOWN	953	n/a	n/a	0	0	0
2633672	WORD	wordpools/wasnorm_wordpool_576.txt	LTP314	ltpFR2	5	12	MARSH	874	n/a	n/a	0	0	0
2636142	WORD	wordpools/wasnorm_wordpool_576.txt	LTP314	ltpFR2	5	12	COBRA	336	n/a	n/a	0	0	0
2638894	WORD	wordpools/wasnorm_wordpool_576.txt	LTP314	ltpFR2	5	12	SPOON	1357	n/a	n/a	0	0	0
2641611	WORD	wordpools/wasnorm_wordpool_576.txt	LTP314	ltpFR2	5	12	SWORD	1423	n/a	n/a	0	0	0
2644331	WORD	wordpools/wasnorm_wordpool_576.txt	LTP314	ltpFR2	5	12	FLIPPER	580	n/a	n/a	0	0	0
2647084	WORD	wordpools/wasnorm_wordpool_576.txt	LTP314	ltpFR2	5	12	MUSTARD	935	n/a	n/a	0	0	0
2649769	WORD	wordpools/wasnorm_wordpool_576.txt	LTP314	ltpFR2	5	12	PIZZA	1079	n/a	n/a	0	0	0
2652420	WORD	wordpools/wasnorm_wordpool_576.txt	LTP314	ltpFR2	5	12	GIFT	635	n/a	n/a	0	0	0
2655239	WORD	wordpools/wasnorm_wordpool_576.txt	LTP314	ltpFR2	5	12	GLOBE	641	n/a	n/a	0	0	0
2657777	WORD	wordpools/wasnorm_wordpool_576.txt	LTP314	ltpFR2	5	12	QUARTER	1148	n/a	n/a	0	0	0
2660593	WORD	wordpools/wasnorm_wordpool_576.txt	LTP314	ltpFR2	5	12	XEROX	1628	n/a	n/a	0	0	0
2663329	WORD	wordpools/wasnorm_wordpool_576.txt	LTP314	ltpFR2	5	12	RIVER	1194	n/a	n/a	0	0	0
2666098	WORD	wordpools/wasnorm_wordpool_576.txt	LTP314	ltpFR2	5	12	FRUIT	610	n/a	n/a	0	0	0
2668683	WORD	wordpools/wasnorm_wordpool_576.txt	LTP314	ltpFR2	5	12	POSTAGE	1113	n/a	n/a	0	0	0
2670302	START	n/a	LTP314	ltpFR2	5	n/a	n/a	n/a	17	n/a	n/a	n/a	n/a
2671146	DISTRACTOR	n/a	LTP314	ltpFR2	5	12	n/a	n/a	n/a	n/a	0	0	0
2671152	PROB	n/a	LTP314	ltpFR2	5	n/a	n/a	n/a	17	13	8	1	4
2673453	PROB	n/a	LTP314	ltpFR2	5	n/a	n/a	n/a	17	18	9	2	7
2675936	PROB	n/a	LTP314	ltpFR2	5	n/a	n/a	n/a	17	16	6	8	2
2678587	PROB	n/a	LTP314	ltpFR2	5	n/a	n/a	n/a	17	20	4	7	9
2680440	PROB	n/a	LTP314	ltpFR2	5	n/a	n/a	n/a	17	11	4	5	2
2682027	PROB	n/a	LTP314	ltpFR2	5	n/a	n/a	n/a	17	17	4	8	5
2684295	PROB	n/a	LTP314	ltpFR2	5	n/a	n/a	n/a	17	12	2	2	8
2685977	PROB	n/a	LTP314	ltpFR2	5	n/a	n/a	n/a	17	17	5	9	3
2689146	PROB	n/a	LTP314	ltpFR2	5	n/a	n/a	n/a	17	19	9	5	5
2694301	STOP	n/a	LTP314	ltpFR2	5	n/a	n/a	n/a	17	n/a	n/a	n/a	n/a
2696169	REC_START	n/a	LTP314	ltpFR2	5	12	n/a	n/a	n/a	n/a	0	0	0
2696847	REC_WORD	wordpools/wasnorm_wordpool_576.txt	LTP314	ltpFR2	5	12	MUSTARD	935	n/a	n/a	0	0	0
2699224	REC_WORD	wordpools/wasnorm_wordpool_576.txt	LTP314	ltpFR2	5	12	GHETTO	633	n/a	n/a	0	0	0
2715020	REC_WORD	wordpools/wasnorm_wordpool_576.txt	LTP314	ltpFR2	5	12	RAZOR	1171	n/a	n/a	0	0	0
2718673	REC_WORD	wordpools/wasnorm_wordpool_576.txt	LTP314	ltpFR2	5	12	SURVEY	1414	n/a	n/a	0	0	0
2786617	DISTRACTOR	n/a	LTP314	ltpFR2	5	13	n/a	n/a	n/a	n/a	0	0	0
2786618	START	n/a	LTP314	ltpFR2	5	n/a	n/a	n/a	18	n/a	n/a	n/a	n/a
2786630	PROB	n/a	LTP314	ltpFR2	5	n/a	n/a	n/a	18	10	1	2	7
2788549	PROB	n/a	LTP314	ltpFR2	5	n/a	n/a	n/a	18	15	5	9	1
2790734	PROB	n/a	LTP314	ltpFR2	5	n/a	n/a	n/a	18	8	5	1	2
2793888	PROB	n/a	LTP314	ltpFR2	5	n/a	n/a	n/a	18	13	5	3	5
2795923	PROB	n/a	LTP314	ltpFR2	5	n/a	n/a	n/a	18	17	7	9	1
2797923	PROB	n/a	LTP314	ltpFR2	5	n/a	n/a	n/a	18	16	3	7	6
2799628	PROB	n/a	LTP314	ltpFR2	5	n/a	n/a	n/a	18	18	4	9	5
2801861	PROB	n/a	LTP314	ltpFR2	5	n/a	n/a	n/a	18	18	8	5	6
2803779	PROB	n/a	LTP314	ltpFR2	5	n/a	n/a	n/a	18	5	1	2	2
2805263	PROB	n/a	LTP314	ltpFR2	5	n/a	n/a	n/a	18	15	8	3	4
2806799	PROB	n/a	LTP314	ltpFR2	5	n/a	n/a	n/a	18	14	4	6	4
2808183	PROB	n/a	LTP314	ltpFR2	5	n/a	n/a	n/a	18	15	7	6	3
2809815	STOP	n/a	LTP314	ltpFR2	5	n/a	n/a	n/a	18	n/a	n/a	n/a	n/a
2811504	WORD	wordpools/wasnorm_wordpool_576.txt	LTP314	ltpFR2	5	13	PIGEON	1065	n/a	n/a	0	0	0
2813991	WORD	wordpools/wasnorm_wordpool_576.txt	LTP314	ltpFR2	5	13	WITNESS	1618	n/a	n/a	0	0	0
2816457	WORD	wordpools/wasnorm_wordpool_576.txt	LTP314	ltpFR2	5	13	ICEBERG	731	n/a	n/a	0	0	0
2819044	WORD	wordpools/wasnorm_wordpool_576.txt	LTP314	ltpFR2	5	13	SNAKE	1333	n/a	n/a	0	0	0
2821600	WORD	wordpools/wasnorm_wordpool_576.txt	LTP314	ltpFR2	5	13	BUREAU	199	n/a	n/a	0	0	0
2824199	WORD	wordpools/wasnorm_wordpool_576.txt	LTP314	ltpFR2	5	13	PENGUIN	1044	n/a	n/a	0	0	0
2826968	WORD	wordpools/wasnorm_wordpool_576.txt	LTP314	ltpFR2	5	13	LUMBER	848	n/a	n/a	0	0	0
2829519	WORD	wordpools/wasnorm_wordpool_576.txt	LTP314	ltpFR2	5	13	SWITCH	1422	n/a	n/a	0	0	0
2832189	WORD	wordpools/wasnorm_wordpool_576.txt	LTP314	ltpFR2	5	13	TORTOISE	1486	n/a	n/a	0	0	0
2834707	WORD	wordpools/wasnorm_wordpool_576.txt	LTP314	ltpFR2	5	13	SHOVEL	1295	n/a	n/a	0	0	0
2837409	WORD	wordpools/wasnorm_wordpool_576.txt	LTP314	ltpFR2	5	13	DONKEY	484	n/a	n/a	0	0	0
2839945	WORD	wordpools/wasnorm_wordpool_576.txt	LTP314	ltpFR2	5	13	TRACTOR	1493	n/a	n/a	0	0	0
2842397	WORD	wordpools/wasnorm_wordpool_576.txt	LTP314	ltpFR2	5	13	LIZARD	834	n/a	n/a	0	0	0
2844866	WORD	wordpools/wasnorm_wordpool_576.txt	LTP314	ltpFR2	5	13	TWISTER	1530	n/a	n/a	0	0	0
2847634	WORD	wordpools/wasnorm_wordpool_576.txt	LTP314	ltpFR2	5	13	JEANS	752	n/a	n/a	0	0	0
2850303	WORD	wordpools/wasnorm_wordpool_576.txt	LTP314	ltpFR2	5	13	PLIERS	1089	n/a	n/a	0	0	0
2852939	WORD	wordpools/wasnorm_wordpool_576.txt	LTP314	ltpFR2	5	13	GROUND	666	n/a	n/a	0	0	0
2855591	WORD	wordpools/wasnorm_wordpool_576.txt	LTP314	ltpFR2	5	13	HAND	683	n/a	n/a	0	0	0
2858343	WORD	wordpools/wasnorm_wordpool_576.txt	LTP314	ltpFR2	5	13	WARDROBE	1587	n/a	n/a	0	0	0
2860829	WORD	wordpools/wasnorm_wordpool_576.txt	LTP314	ltpFR2	5	13	CURTAIN	427	n/a	n/a	0	0	0
2863381	WORD	wordpools/wasnorm_wordpool_576.txt	LTP314	ltpFR2	5	13	PUDDLE	1140	n/a	n/a	0	0	0
2865816	WORD	wordpools/wasnorm_wordpool_576.txt	LTP314	ltpFR2	5	13	DIVER	476	n/a	n/a	0	0	0
2868551	WORD	wordpools/wasnorm_wordpool_576.txt	LTP314	ltpFR2	5	13	MOP	916	n/a	n/a	0	0	0
2871121	WORD	wordpools/wasnorm_wordpool_576.txt	LTP314	ltpFR2	5	13	TILE	1468	n/a	n/a	0	0	0
2872739	START	n/a	LTP314	ltpFR2	5	n/a	n/a	n/a	19	n/a	n/a	n/a	n/a
2873601	DISTRACTOR	n/a	LTP314	ltpFR2	5	13	n/a	n/a	n/a	n/a	0	0	0
2873622	PROB	n/a	LTP314	ltpFR2	5	n/a	n/a	n/a	19	12	1	2	9
2876271	PROB	n/a	LTP314	ltpFR2	5	n/a	n/a	n/a	19	17	5	7	5
2878208	PROB	n/a	LTP314	ltpFR2	5	n/a	n/a	n/a	19	14	3	2	9
2880442	PROB	n/a	LTP314	ltpFR2	5	n/a	n/a	n/a	19	14	7	4	3
2882727	PROB	n/a	LTP314	ltpFR2	5	n/a	n/a	n/a	19	13	7	1	5
2885066	PROB	n/a	LTP314	ltpFR2	5	n/a	n/a	n/a	19	15	8	4	3
2886682	PROB	n/a	LTP314	ltpFR2	5	n/a	n/a	n/a	19	12	4	3	5
2889236	PROB	n/a	LTP314	ltpFR2	5	n/a	n/a	n/a	19	15	4	9	2
2890938	PROB	n/a	LTP314	ltpFR2	5	n/a	n/a	n/a	19	10	2	4	4
2892719	PROB	n/a	LTP314	ltpFR2	5	n/a	n/a	n/a	19	19	8	9	2
2896470	STOP	n/a	LTP314	ltpFR2	5	n/a	n/a	n/a	19	n/a	n/a	n/a	n/a
2898676	REC_START	n/a	LTP314	ltpFR2	5	13	n/a	n/a	n/a	n/a	0	0	0
2911531	REC_WORD	wordpools/wasnorm_wordpool_576.txt	LTP314	ltpFR2	5	13	CUPBOARD	425	n/a	n/a	0	0	0
2969844	REC_WORD	wordpools/wasnorm_wordpool_576.txt	LTP314	ltpFR2	5	13	CASKET	255	n/a	n/a	0	0	0
3113236	WORD	wordpools/wasnorm_wordpool_576.txt	LTP314	ltpFR2	5	14	EMPIRE	530	n/a	n/a	0	0	0
3115723	WORD	wordpools/wasnorm_wordpool_576.txt	LTP314	ltpFR2	5	14	OX	994	n/a	n/a	0	0	0
3118392	WORD	wordpools/wasnorm_wordpool_576.txt	LTP314	ltpFR2	5	14	CAMEL	223	n/a	n/a	0	0	0
3121162	WORD	wordpools/wasnorm_wordpool_576.txt	LTP314	ltpFR2	5	14	COUNTRY	388	n/a	n/a	0	0	0
3123847	WORD	wordpools/wasnorm_wordpool_576.txt	LTP314	ltpFR2	5	14	MACHINE	852	n/a	n/a	0	0	0
3126432	WORD	wordpools/wasnorm_wordpool_576.txt	LTP314	ltpFR2	5	14	TERMITE	1451	n/a	n/a	0	0	0
3128868	WORD	wordpools/wasnorm_wordpool_576.txt	LTP314	ltpFR2	5	14	OYSTER	995	n/a	n/a	0	0	0
3131386	WORD	wordpools/wasnorm_wordpool_576.txt	LTP314	ltpFR2	5	14	TRANSPLANT	1496	n/a	n/a	0	0	0
3134088	WORD	wordpools/wasnorm_wordpool_576.txt	LTP314	ltpFR2	5	14	VIKING	1565	n/a	n/a	0	0	0
3136740	WORD	wordpools/wasnorm_wordpool_576.txt	LTP314	ltpFR2	5	14	COUNTY	389	n/a	n/a	0	0	0
3139425	WORD	wordpools/wasnorm_wordpool_576.txt	LTP314	ltpFR2	5	14	FARMER	553	n/a	n/a	0	0	0
3142228	WORD	wordpools/wasnorm_wordpool_576.txt	LTP314	ltpFR2	5	14	DRAGON	492	n/a	n/a	0	0	0
3145047	WORD	wordpools/wasnorm_wordpool_576.txt	LTP314	ltpFR2	5	14	HEART	697	n/a	n/a	0	0	0
3147766	WORD	wordpools/wasnorm_wordpool_576.txt	LTP314	ltpFR2	5	14	QUEEN	1149	n/a	n/a	0	0	0
3150218	WORD	wordpools/wasnorm_wordpool_576.txt	LTP314	ltpFR2	5	14	CROWN	415	n/a	n/a	0	0	0
3152886	WORD	wordpools/wasnorm_wordpool_576.txt	LTP314	ltpFR2	5	14	DRESS	495	n/a	n/a	0	0	0
3155320	WORD	wordpools/wasnorm_wordpool_576.txt	LTP314	ltpFR2	5	14	BANQUET	86	n/a	n/a	0	0	0
3157843	WORD	wordpools/wasnorm_wordpool_576.txt	LTP314	ltpFR2	5	14	LAMP	798	n/a	n/a	0	0	0
3160274	WORD	wordpools/wasnorm_wordpool_576.txt	LTP314	ltpFR2	5	14	EAGLE	512	n/a	n/a	0	0	0
3163061	WORD	wordpools/wasnorm_wordpool_576.txt	LTP314	ltpFR2	5	14	LIPSTICK	829	n/a	n/a	0	0	0
3165846	WORD	wordpools/wasnorm_wordpool_576.txt	LTP314	ltpFR2	5	14	CLOCK	325	n/a	n/a	0	0	0
3168434	WORD	wordpools/wasnorm_wordpool_576.txt	LTP314	ltpFR2	5	14	MARROW	872	n/a	n/a	0	0	0
3170916	WORD	wordpools/wasnorm_wordpool_576.txt	LTP314	ltpFR2	5	14	TURTLE	1522	n/a	n/a	0	0	0
3173734	WORD	wordpools/wasnorm_wordpool_576.txt	LTP314	ltpFR2	5	14	RABBIT	1152	n/a	n/a	0	0	0
3175341	START	n/a	LTP314	ltpFR2	5	n/a	n/a	n/a	20	n/a	n/a	n/a	n/a
3176458	DISTRACTOR	n/a	LTP314	ltpFR2	5	14	n/a	n/a	n/a	n/a	0	0	0
3176470	PROB	n/a	LTP314	ltpFR2	5	n/a	n/a	n/a	20	17	4	8	5
3179318	PROB	n/a	LTP314	ltpFR2	5	n/a	n/a	n/a	20	20	7	9	4
3182893	PROB	n/a	LTP314	ltpFR2	5	n/a	n/a	n/a	20	15	7	7	1
3184808	PROB	n/a	LTP314	ltpFR2	5	n/a	n/a	n/a	20	7	1	3	3
3186965	PROB	n/a	LTP314	ltpFR2	5	n/a	n/a	n/a	20	13	8	3	2
3189310	PROB	n/a	LTP314	ltpFR2	5	n/a	n/a	n/a	20	13	2	2	9
3190717	PROB	n/a	LTP314	ltpFR2	5	n/a	n/a	n/a	20	11	6	1	4
3192720	PROB	n/a	LTP314	ltpFR2	5	n/a	n/a	n/a	20	16	6	2	8
3194470	PROB	n/a	LTP314	ltpFR2	5	n/a	n/a	n/a	20	17	3	8	6
3196415	PROB	n/a	LTP314	ltpFR2	5	n/a	n/a	n/a	20	19	6	9	4
3198231	STOP	n/a	LTP314	ltpFR2	5	n/a	n/a	n/a	20	n/a	n/a	n/a	n/a
3201093	REC_START	n/a	LTP314	ltpFR2	5	14	n/a	n/a	n/a	n/a	0	0	0
3202349	REC_WORD	wordpools/wasnorm_wordpool_576.txt	LTP314	ltpFR2	5	14	FARMER	553	n/a	n/a	0	0	0
3202926	REC_WORD	wordpools/wasnorm_wordpool_576.txt	LTP314	ltpFR2	5	14	QUEEN	1149	n/a	n/a	0	0	0
3203354	REC_WORD	wordpools/wasnorm_wordpool_576.txt	LTP314	ltpFR2	5	14	CROWN	415	n/a	n/a	0	0	0
3203905	REC_WORD	wordpools/wasnorm_wordpool_576.txt	LTP314	ltpFR2	5	14	OX	994	n/a	n/a	0	0	0
3204410	REC_WORD	wordpools/wasnorm_wordpool_576.txt	LTP314	ltpFR2	5	14	OYSTER	995	n/a	n/a	0	0	0
3206860	REC_WORD	wordpools/wasnorm_wordpool_576.txt	LTP314	ltpFR2	5	14	THRONE	1461	n/a	n/a	0	0	0
3214847	REC_WORD	wordpools/wasnorm_wordpool_576.txt	LTP314	ltpFR2	5	14	DRAGON	492	n/a	n/a	0	0	0
3215557	REC_WORD	wordpools/wasnorm_wordpool_576.txt	LTP314	ltpFR2	5	14	HEART	697	n/a	n/a	0	0	0
3291537	DISTRACTOR	n/a	LTP314	ltpFR2	5	15	n/a	n/a	n/a	n/a	0	0	0
3291537	START	n/a	LTP314	ltpFR2	5	n/a	n/a	n/a	21	n/a	n/a	n/a	n/a
3291550	PROB	n/a	LTP314	ltpFR2	5	n/a	n/a	n/a	21	11	9	1	1
3295389	PROB	n/a	LTP314	ltpFR2	5	n/a	n/a	n/a	21	20	9	6	5
3297206	PROB	n/a	LTP314	ltpFR2	5	n/a	n/a	n/a	21	10	5	1	4
3299807	PROB	n/a	LTP314	ltpFR2	5	n/a	n/a	n/a	21	18	5	5	8
3301175	PROB	n/a	LTP314	ltpFR2	5	n/a	n/a	n/a	21	13	1	4	8
3303194	PROB	n/a	LTP314	ltpFR2	5	n/a	n/a	n/a	21	22	8	6	9
3306315	PROB	n/a	LTP314	ltpFR2	5	n/a	n/a	n/a	21	16	9	4	3
3309314	PROB	n/a	LTP314	ltpFR2	5	n/a	n/a	n/a	21	13	4	2	7
3311134	PROB	n/a	LTP314	ltpFR2	5	n/a	n/a	n/a	21	14	8	1	5
3315536	STOP	n/a	LTP314	ltpFR2	5	n/a	n/a	n/a	21	n/a	n/a	n/a	n/a
3316608	WORD	wordpools/wasnorm_wordpool_576.txt	LTP314	ltpFR2	5	15	BUCKET	184	n/a	n/a	0	0	0
3319094	WORD	wordpools/wasnorm_wordpool_576.txt	LTP314	ltpFR2	5	15	PARENT	1013	n/a	n/a	0	0	0
3321862	WORD	wordpools/wasnorm_wordpool_576.txt	LTP314	ltpFR2	5	15	IDOL	733	n/a	n/a	0	0	0
3324380	WORD	wordpools/wasnorm_wordpool_576.txt	LTP314	ltpFR2	5	15	HERO	706	n/a	n/a	0	0	0
3326919	WORD	wordpools/wasnorm_wordpool_576.txt	LTP314	ltpFR2	5	15	SKIRT	1319	n/a	n/a	0	0	0
3329618	WORD	wordpools/wasnorm_wordpool_576.txt	LTP314	ltpFR2	5	15	HAMPER	682	n/a	n/a	0	0	0
3332404	WORD	wordpools/wasnorm_wordpool_576.txt	LTP314	ltpFR2	5	15	STALLION	1369	n/a	n/a	0	0	0
3335224	WORD	wordpools/wasnorm_wordpool_576.txt	LTP314	ltpFR2	5	15	SIBLING	1301	n/a	n/a	0	0	0
3337909	WORD	wordpools/wasnorm_wordpool_576.txt	LTP314	ltpFR2	5	15	MARKET	871	n/a	n/a	0	0	0
3340377	WORD	wordpools/wasnorm_wordpool_576.txt	LTP314	ltpFR2	5	15	FOREHEAD	592	n/a	n/a	0	0	0
3343064	WORD	wordpools/wasnorm_wordpool_576.txt	LTP314	ltpFR2	5	15	SUBWAY	1400	n/a	n/a	0	0	0
3345682	WORD	wordpools/wasnorm_wordpool_576.txt	LTP314	ltpFR2	5	15	OZONE	996	n/a	n/a	0	0	0
3348401	WORD	wordpools/wasnorm_wordpool_576.txt	LTP314	ltpFR2	5	15	CROSS	413	n/a	n/a	0	0	0
3351053	WORD	wordpools/wasnorm_wordpool_576.txt	LTP314	ltpFR2	5	15	FOOT	590	n/a	n/a	0	0	0
3353873	WORD	wordpools/wasnorm_wordpool_576.txt	LTP314	ltpFR2	5	15	LILY	821	n/a	n/a	0	0	0
3356474	WORD	wordpools/wasnorm_wordpool_576.txt	LTP314	ltpFR2	5	15	YARN	1631	n/a	n/a	0	0	0
3359275	WORD	wordpools/wasnorm_wordpool_576.txt	LTP314	ltpFR2	5	15	HELMET	702	n/a	n/a	0	0	0
3361879	WORD	wordpools/wasnorm_wordpool_576.txt	LTP314	ltpFR2	5	15	CREATURE	403	n/a	n/a	0	0	0
3364580	WORD	wordpools/wasnorm_wordpool_576.txt	LTP314	ltpFR2	5	15	LUNCH	849	n/a	n/a	0	0	0
3367398	WORD	wordpools/wasnorm_wordpool_576.txt	LTP314	ltpFR2	5	15	CLIMBER	323	n/a	n/a	0	0	0
3370152	WORD	wordpools/wasnorm_wordpool_576.txt	LTP314	ltpFR2	5	15	WHISKERS	1605	n/a	n/a	0	0	0
3372636	WORD	wordpools/wasnorm_wordpool_576.txt	LTP314	ltpFR2	5	15	CAPTIVE	240	n/a	n/a	0	0	0
3375106	WORD	wordpools/wasnorm_wordpool_576.txt	LTP314	ltpFR2	5	15	CONVICT	371	n/a	n/a	0	0	0
3377808	WORD	wordpools/wasnorm_wordpool_576.txt	LTP314	ltpFR2	5	15	HIKER	708	n/a	n/a	0	0	0
3379425	START	n/a	LTP314	ltpFR2	5	n/a	n/a	n/a	22	n/a	n/a	n/a	n/a
3380366	DISTRACTOR	n/a	LTP314	ltpFR2	5	15	n/a	n/a	n/a	n/a	0	0	0
3380375	PROB	n/a	LTP314	ltpFR2	5	n/a	n/a	n/a	22	13	6	6	1
3382412	PROB	n/a	LTP314	ltpFR2	5	n/a	n/a	n/a	22	14	3	5	6
3385396	PROB	n/a	LTP314	ltpFR2	5	n/a	n/a	n/a	22	10	1	6	3
3387230	PROB	n/a	LTP314	ltpFR2	5	n/a	n/a	n/a	22	15	6	8	1
3388599	PROB	n/a	LTP314	ltpFR2	5	n/a	n/a	n/a	22	7	4	2	1
3390016	PROB	n/a	LTP314	ltpFR2	5	n/a	n/a	n/a	22	14	3	4	7
3392769	PROB	n/a	LTP314	ltpFR2	5	n/a	n/a	n/a	22	12	3	6	3
3394951	PROB	n/a	LTP314	ltpFR2	5	n/a	n/a	n/a	22	14	3	3	8
3397402	PROB	n/a	LTP314	ltpFR2	5	n/a	n/a	n/a	22	9	5	3	1
3398938	PROB	n/a	LTP314	ltpFR2	5	n/a	n/a	n/a	22	7	4	1	2
3400574	PROB	n/a	LTP314	ltpFR2	5	n/a	n/a	n/a	22	17	3	9	6
3403047	STOP	n/a	LTP314	ltpFR2	5	n/a	n/a	n/a	22	n/a	n/a	n/a	n/a
3405241	REC_START	n/a	LTP314	ltpFR2	5	15	n/a	n/a	n/a	n/a	0	0	0
3409425	REC_WORD	wordpools/wasnorm_wordpool_576.txt	LTP314	ltpFR2	5	15	CLIMBER	323	n/a	n/a	0	0	0
3422498	REC_WORD	wordpools/wasnorm_wordpool_576.txt	LTP314	ltpFR2	5	15	HERO	706	n/a	n/a	0	0	0
3425680	REC_WORD	wordpools/wasnorm_wordpool_576.txt	LTP314	ltpFR2	5	15	IDOL	733	n/a	n/a	0	0	0
3495671	WORD	wordpools/wasnorm_wordpool_576.txt	LTP314	ltpFR2	5	16	STOMACH	1384	n/a	n/a	0	0	0
3498166	WORD	wordpools/wasnorm_wordpool_576.txt	LTP314	ltpFR2	5	16	PADDLE	1000	n/a	n/a	0	0	0
3500884	WORD	wordpools/wasnorm_wordpool_576.txt	LTP314	ltpFR2	5	16	STAR	1373	n/a	n/a	0	0	0
3503670	WORD	wordpools/wasnorm_wordpool_576.txt	LTP314	ltpFR2	5	16	VALLEY	1545	n/a	n/a	0	0	0
3506465	WORD	wordpools/wasnorm_wordpool_576.txt	LTP314	ltpFR2	5	16	CANYON	235	n/a	n/a	0	0	0
3508951	WORD	wordpools/wasnorm_wordpool_576.txt	LTP314	ltpFR2	5	16	SEAGULL	1261	n/a	n/a	0	0	0
3511742	WORD	wordpools/wasnorm_wordpool_576.txt	LTP314	ltpFR2	5	16	CORAL	378	n/a	n/a	0	0	0
3514238	WORD	wordpools/wasnorm_wordpool_576.txt	LTP314	ltpFR2	5	16	SPONGE	1355	n/a	n/a	0	0	0
3517058	WORD	wordpools/wasnorm_wordpool_576.txt	LTP314	ltpFR2	5	16	GLASS	639	n/a	n/a	0	0	0
3519766	WORD	wordpools/wasnorm_wordpool_576.txt	LTP314	ltpFR2	5	16	STAMP	1370	n/a	n/a	0	0	0
3522345	WORD	wordpools/wasnorm_wordpool_576.txt	LTP314	ltpFR2	5	16	WOMAN	1620	n/a	n/a	0	0	0
3525131	WORD	wordpools/wasnorm_wordpool_576.txt	LTP314	ltpFR2	5	16	SISTER	1312	n/a	n/a	0	0	0
3527768	WORD	wordpools/wasnorm_wordpool_576.txt	LTP314	ltpFR2	5	16	BANJO	82	n/a	n/a	0	0	0
3530323	WORD	wordpools/wasnorm_wordpool_576.txt	LTP314	ltpFR2	5	16	AIRPORT	13	n/a	n/a	0	0	0
3532753	WORD	wordpools/wasnorm_wordpool_576.txt	LTP314	ltpFR2	5	16	GREASE	660	n/a	n/a	0	0	0
3535540	WORD	wordpools/wasnorm_wordpool_576.txt	LTP314	ltpFR2	5	16	RIFLE	1192	n/a	n/a	0	0	0
3538179	WORD	wordpools/wasnorm_wordpool_576.txt	LTP314	ltpFR2	5	16	SUNSET	1408	n/a	n/a	0	0	0
3540844	WORD	wordpools/wasnorm_wordpool_576.txt	LTP314	ltpFR2	5	16	LIVER	833	n/a	n/a	0	0	0
3543413	WORD	wordpools/wasnorm_wordpool_576.txt	LTP314	ltpFR2	5	16	BODY	145	n/a	n/a	0	0	0
3545849	WORD	wordpools/wasnorm_wordpool_576.txt	LTP314	ltpFR2	5	16	SERVANT	1271	n/a	n/a	0	0	0
3548500	WORD	wordpools/wasnorm_wordpool_576.txt	LTP314	ltpFR2	5	16	SPACE	1345	n/a	n/a	0	0	0
3551057	WORD	wordpools/wasnorm_wordpool_576.txt	LTP314	ltpFR2	5	16	SUNRISE	1407	n/a	n/a	0	0	0
3553521	WORD	wordpools/wasnorm_wordpool_576.txt	LTP314	ltpFR2	5	16	TROUT	1511	n/a	n/a	0	0	0
3556091	WORD	wordpools/wasnorm_wordpool_576.txt	LTP314	ltpFR2	5	16	TUBA	1515	n/a	n/a	0	0	0
3557708	START	n/a	LTP314	ltpFR2	5	n/a	n/a	n/a	23	n/a	n/a	n/a	n/a
3558668	DISTRACTOR	n/a	LTP314	ltpFR2	5	16	n/a	n/a	n/a	n/a	0	0	0
3558676	PROB	n/a	LTP314	ltpFR2	5	n/a	n/a	n/a	23	18	7	7	4
3560975	PROB	n/a	LTP314	ltpFR2	5	n/a	n/a	n/a	23	16	4	3	9
3563259	PROB	n/a	LTP314	ltpFR2	5	n/a	n/a	n/a	23	14	2	5	7
3565378	PROB	n/a	LTP314	ltpFR2	5	n/a	n/a	n/a	23	14	8	3	3
3567562	PROB	n/a	LTP314	ltpFR2	5	n/a	n/a	n/a	23	18	3	9	6
3570116	PROB	n/a	LTP314	ltpFR2	5	n/a	n/a	n/a	23	25	9	9	7
3572118	PROB	n/a	LTP314	ltpFR2	5	n/a	n/a	n/a	23	14	1	5	8
3574535	PROB	n/a	LTP314	ltpFR2	5	n/a	n/a	n/a	23	21	9	7	5
3576721	PROB	n/a	LTP314	ltpFR2	5	n/a	n/a	n/a	23	17	3	8	6
3578588	PROB	n/a	LTP314	ltpFR2	5	n/a	n/a	n/a	23	12	2	7	3
3580839	STOP	n/a	LTP314	ltpFR2	5	n/a	n/a	n/a	23	n/a	n/a	n/a	n/a
3583543	REC_START	n/a	LTP314	ltpFR2	5	16	n/a	n/a	n/a	n/a	0	0	0
3584426	REC_WORD	wordpools/wasnorm_wordpool_576.txt	LTP314	ltpFR2	5	16	TROUT	1511	n/a	n/a	0	0	0
3588307	REC_WORD	wordpools/wasnorm_wordpool_576.txt	LTP314	ltpFR2	5	16	LIVER	833	n/a	n/a	0	0	0
3588954	REC_WORD	wordpools/wasnorm_wordpool_576.txt	LTP314	ltpFR2	5	16	BODY	145	n/a	n/a	0	0	0
3593680	REC_WORD	wordpools/wasnorm_wordpool_576.txt	LTP314	ltpFR2	5	16	WOMAN	1620	n/a	n/a	0	0	0
3595696	REC_WORD	wordpools/wasnorm_wordpool_576.txt	LTP314	ltpFR2	5	16	SISTER	1312	n/a	n/a	0	0	0
3596504	REC_WORD	wordpools/wasnorm_wordpool_576.txt	LTP314	ltpFR2	5	16	BANJO	82	n/a	n/a	0	0	0
3597136	REC_WORD	wordpools/wasnorm_wordpool_576.txt	LTP314	ltpFR2	5	16	AIRPORT	13	n/a	n/a	0	0	0
3597931	REC_WORD	wordpools/wasnorm_wordpool_576.txt	LTP314	ltpFR2	5	16	TUBA	1515	n/a	n/a	0	0	0
3660073	REST_REWET	n/a	LTP314	ltpFR2	5	16	n/a	n/a	n/a	n/a	0	0	0
3972243	DISTRACTOR	n/a	LTP314	ltpFR2	5	17	n/a	n/a	n/a	n/a	0	0	0
3972243	START	n/a	LTP314	ltpFR2	5	n/a	n/a	n/a	24	n/a	n/a	n/a	n/a
3972256	PROB	n/a	LTP314	ltpFR2	5	n/a	n/a	n/a	24	9	3	3	3
3973568	PROB	n/a	LTP314	ltpFR2	5	n/a	n/a	n/a	24	19	4	7	8
3976669	PROB	n/a	LTP314	ltpFR2	5	n/a	n/a	n/a	24	9	2	4	3
3979123	PROB	n/a	LTP314	ltpFR2	5	n/a	n/a	n/a	24	11	5	4	2
3980811	PROB	n/a	LTP314	ltpFR2	5	n/a	n/a	n/a	24	12	2	6	4
3983045	PROB	n/a	LTP314	ltpFR2	5	n/a	n/a	n/a	24	19	8	2	9
3984610	PROB	n/a	LTP314	ltpFR2	5	n/a	n/a	n/a	24	22	9	7	6
3988663	PROB	n/a	LTP314	ltpFR2	5	n/a	n/a	n/a	24	21	9	3	8
3991750	PROB	n/a	LTP314	ltpFR2	5	n/a	n/a	n/a	24	11	5	7	2
3993418	PROB	n/a	LTP314	ltpFR2	5	n/a	n/a	n/a	24	12	1	4	7
3995103	STOP	n/a	LTP314	ltpFR2	5	n/a	n/a	n/a	24	n/a	n/a	n/a	n/a
3997273	WORD	wordpools/wasnorm_wordpool_576.txt	LTP314	ltpFR2	5	17	PLASTER	1085	n/a	n/a	0	0	0
3999781	WORD	wordpools/wasnorm_wordpool_576.txt	LTP314	ltpFR2	5	17	STAPLE	1371	n/a	n/a	0	0	0
4002449	WORD	wordpools/wasnorm_wordpool_576.txt	LTP314	ltpFR2	5	17	COCKTAIL	338	n/a	n/a	0	0	0
4005064	WORD	wordpools/wasnorm_wordpool_576.txt	LTP314	ltpFR2	5	17	BRANDY	169	n/a	n/a	0	0	0
4007766	WORD	wordpools/wasnorm_wordpool_576.txt	LTP314	ltpFR2	5	17	WRENCH	1625	n/a	n/a	0	0	0
4010250	WORD	wordpools/wasnorm_wordpool_576.txt	LTP314	ltpFR2	5	17	CIGAR	308	n/a	n/a	0	0	0
4012887	WORD	wordpools/wasnorm_wordpool_576.txt	LTP314	ltpFR2	5	17	EUROPE	541	n/a	n/a	0	0	0
4015321	WORD	wordpools/wasnorm_wordpool_576.txt	LTP314	ltpFR2	5	17	SUMMIT	1405	n/a	n/a	0	0	0
4018029	WORD	wordpools/wasnorm_wordpool_576.txt	LTP314	ltpFR2	5	17	WAITER	1580	n/a	n/a	0	0	0
4020730	WORD	wordpools/wasnorm_wordpool_576.txt	LTP314	ltpFR2	5	17	DRAWING	494	n/a	n/a	0	0	0
4023412	WORD	wordpools/wasnorm_wordpool_576.txt	LTP314	ltpFR2	5	17	SCOTCH	1251	n/a	n/a	0	0	0
4026114	WORD	wordpools/wasnorm_wordpool_576.txt	LTP314	ltpFR2	5	17	BACKBONE	66	n/a	n/a	0	0	0
4028617	WORD	wordpools/wasnorm_wordpool_576.txt	LTP314	ltpFR2	5	17	BOARD	143	n/a	n/a	0	0	0
4031238	WORD	wordpools/wasnorm_wordpool_576.txt	LTP314	ltpFR2	5	17	GAZELLE	628	n/a	n/a	0	0	0
4033872	WORD	wordpools/wasnorm_wordpool_576.txt	LTP314	ltpFR2	5	17	LAVA	804	n/a	n/a	0	0	0
4036589	WORD	wordpools/wasnorm_wordpool_576.txt	LTP314	ltpFR2	5	17	CRATER	400	n/a	n/a	0	0	0
4039176	WORD	wordpools/wasnorm_wordpool_576.txt	LTP314	ltpFR2	5	17	PILOT	1070	n/a	n/a	0	0	0
4041828	WORD	wordpools/wasnorm_wordpool_576.txt	LTP314	ltpFR2	5	17	RECEIPT	1173	n/a	n/a	0	0	0
4044265	WORD	wordpools/wasnorm_wordpool_576.txt	LTP314	ltpFR2	5	17	BARREL	91	n/a	n/a	0	0	0
4046731	WORD	wordpools/wasnorm_wordpool_576.txt	LTP314	ltpFR2	5	17	POSSUM	1112	n/a	n/a	0	0	0
4049185	WORD	wordpools/wasnorm_wordpool_576.txt	LTP314	ltpFR2	5	17	BEAVER	109	n/a	n/a	0	0	0
4051870	WORD	wordpools/wasnorm_wordpool_576.txt	LTP314	ltpFR2	5	17	QUAIL	1147	n/a	n/a	0	0	0
4054521	WORD	wordpools/wasnorm_wordpool_576.txt	LTP314	ltpFR2	5	17	SCARECROW	1245	n/a	n/a	0	0	0
4057340	WORD	wordpools/wasnorm_wordpool_576.txt	LTP314	ltpFR2	5	17	WAITRESS	1581	n/a	n/a	0	0	0
4058960	START	n/a	LTP314	ltpFR2	5	n/a	n/a	n/a	25	n/a	n/a	n/a	n/a
4059876	DISTRACTOR	n/a	LTP314	ltpFR2	5	17	n/a	n/a	n/a	n/a	0	0	0
4059893	PROB	n/a	LTP314	ltpFR2	5	n/a	n/a	n/a	25	20	6	5	9
4061942	PROB	n/a	LTP314	ltpFR2	5	n/a	n/a	n/a	25	13	8	2	3
4063576	PROB	n/a	LTP314	ltpFR2	5	n/a	n/a	n/a	25	17	1	8	8
4065444	PROB	n/a	LTP314	ltpFR2	5	n/a	n/a	n/a	25	21	9	3	9
4068329	PROB	n/a	LTP314	ltpFR2	5	n/a	n/a	n/a	25	20	8	9	3
4071398	PROB	n/a	LTP314	ltpFR2	5	n/a	n/a	n/a	25	16	7	1	8
4073035	PROB	n/a	LTP314	ltpFR2	5	n/a	n/a	n/a	25	11	5	1	5
4075335	PROB	n/a	LTP314	ltpFR2	5	n/a	n/a	n/a	25	17	9	7	1
4077805	PROB	n/a	LTP314	ltpFR2	5	n/a	n/a	n/a	25	20	6	7	7
4080406	PROB	n/a	LTP314	ltpFR2	5	n/a	n/a	n/a	25	13	7	2	4
4081975	STOP	n/a	LTP314	ltpFR2	5	n/a	n/a	n/a	25	n/a	n/a	n/a	n/a
4084864	REC_START	n/a	LTP314	ltpFR2	5	17	n/a	n/a	n/a	n/a	0	0	0
4085695	REC_WORD	wordpools/wasnorm_wordpool_576.txt	LTP314	ltpFR2	5	17	QUAIL	1147	n/a	n/a	0	0	0
4086192	REC_WORD	wordpools/wasnorm_wordpool_576.txt	LTP314	ltpFR2	5	17	EUROPE	541	n/a	n/a	0	0	0
4086660	REC_WORD	wordpools/wasnorm_wordpool_576.txt	LTP314	ltpFR2	5	17	BEAVER	109	n/a	n/a	0	0	0
4175302	WORD	wordpools/wasnorm_wordpool_576.txt	LTP314	ltpFR2	5	18	PEPPER	1047	n/a	n/a	0	0	0
4177767	WORD	wordpools/wasnorm_wordpool_576.txt	LTP314	ltpFR2	5	18	BADGE	68	n/a	n/a	0	0	0
4180352	WORD	wordpools/wasnorm_wordpool_576.txt	LTP314	ltpFR2	5	18	EXPERT	543	n/a	n/a	0	0	0
4182889	WORD	wordpools/wasnorm_wordpool_576.txt	LTP314	ltpFR2	5	18	MUMMY	932	n/a	n/a	0	0	0
4185614	WORD	wordpools/wasnorm_wordpool_576.txt	LTP314	ltpFR2	5	18	PROTON	1132	n/a	n/a	0	0	0
4188358	WORD	wordpools/wasnorm_wordpool_576.txt	LTP314	ltpFR2	5	18	BEAKER	104	n/a	n/a	0	0	0
4191036	WORD	wordpools/wasnorm_wordpool_576.txt	LTP314	ltpFR2	5	18	EYELASH	546	n/a	n/a	0	0	0
4193662	WORD	wordpools/wasnorm_wordpool_576.txt	LTP314	ltpFR2	5	18	PARSLEY	1016	n/a	n/a	0	0	0
4196398	WORD	wordpools/wasnorm_wordpool_576.txt	LTP314	ltpFR2	5	18	PLAYGROUND	1087	n/a	n/a	0	0	0
4198891	WORD	wordpools/wasnorm_wordpool_576.txt	LTP314	ltpFR2	5	18	MAILMAN	858	n/a	n/a	0	0	0
4201443	WORD	wordpools/wasnorm_wordpool_576.txt	LTP314	ltpFR2	5	18	POPCORN	1104	n/a	n/a	0	0	0
4203988	WORD	wordpools/wasnorm_wordpool_576.txt	LTP314	ltpFR2	5	18	BACON	67	n/a	n/a	0	0	0
4206548	WORD	wordpools/wasnorm_wordpool_576.txt	LTP314	ltpFR2	5	18	SHORTS	1293	n/a	n/a	0	0	0
4209209	WORD	wordpools/wasnorm_wordpool_576.txt	LTP314	ltpFR2	5	18	CHAPEL	280	n/a	n/a	0	0	0
4211770	WORD	wordpools/wasnorm_wordpool_576.txt	LTP314	ltpFR2	5	18	HORSE	719	n/a	n/a	0	0	0
4214254	WORD	wordpools/wasnorm_wordpool_576.txt	LTP314	ltpFR2	5	18	SADDLE	1221	n/a	n/a	0	0	0
4216696	WORD	wordpools/wasnorm_wordpool_576.txt	LTP314	ltpFR2	5	18	PIANO	1057	n/a	n/a	0	0	0
4219299	WORD	wordpools/wasnorm_wordpool_576.txt	LTP314	ltpFR2	5	18	OMELET	976	n/a	n/a	0	0	0
4222078	WORD	wordpools/wasnorm_wordpool_576.txt	LTP314	ltpFR2	5	18	MOTEL	919	n/a	n/a	0	0	0
4224568	WORD	wordpools/wasnorm_wordpool_576.txt	LTP314	ltpFR2	5	18	COOKBOOK	373	n/a	n/a	0	0	0
4227354	WORD	wordpools/wasnorm_wordpool_576.txt	LTP314	ltpFR2	5	18	PUPIL	1143	n/a	n/a	0	0	0
4229817	WORD	wordpools/wasnorm_wordpool_576.txt	LTP314	ltpFR2	5	18	LAGOON	795	n/a	n/a	0	0	0
4232458	WORD	wordpools/wasnorm_wordpool_576.txt	LTP314	ltpFR2	5	18	ISLAND	745	n/a	n/a	0	0	0
4234955	WORD	wordpools/wasnorm_wordpool_576.txt	LTP314	ltpFR2	5	18	PEDAL	1037	n/a	n/a	0	0	0
4236562	START	n/a	LTP314	ltpFR2	5	n/a	n/a	n/a	26	n/a	n/a	n/a	n/a
4237548	DISTRACTOR	n/a	LTP314	ltpFR2	5	18	n/a	n/a	n/a	n/a	0	0	0
4237557	PROB	n/a	LTP314	ltpFR2	5	n/a	n/a	n/a	26	16	7	3	6
4239725	PROB	n/a	LTP314	ltpFR2	5	n/a	n/a	n/a	26	13	5	5	3
4241159	PROB	n/a	LTP314	ltpFR2	5	n/a	n/a	n/a	26	11	4	6	1
4242390	PROB	n/a	LTP314	ltpFR2	5	n/a	n/a	n/a	26	18	3	6	9
4244110	PROB	n/a	LTP314	ltpFR2	5	n/a	n/a	n/a	26	16	4	5	7
4246344	PROB	n/a	LTP314	ltpFR2	5	n/a	n/a	n/a	26	9	7	1	1
4247728	PROB	n/a	LTP314	ltpFR2	5	n/a	n/a	n/a	26	21	9	3	9
4249597	PROB	n/a	LTP314	ltpFR2	5	n/a	n/a	n/a	26	23	7	9	7
4252917	PROB	n/a	LTP314	ltpFR2	5	n/a	n/a	n/a	26	12	2	2	8
4254401	PROB	n/a	LTP314	ltpFR2	5	n/a	n/a	n/a	26	22	9	5	8
4256552	PROB	n/a	LTP314	ltpFR2	5	n/a	n/a	n/a	26	18	8	8	2
4258155	PROB	n/a	LTP314	ltpFR2	5	n/a	n/a	n/a	26	8	1	4	3
4260278	STOP	n/a	LTP314	ltpFR2	5	n/a	n/a	n/a	26	n/a	n/a	n/a	n/a
4262376	REC_START	n/a	LTP314	ltpFR2	5	18	n/a	n/a	n/a	n/a	0	0	0
4262985	REC_WORD	wordpools/wasnorm_wordpool_576.txt	LTP314	ltpFR2	5	18	COOKBOOK	373	n/a	n/a	0	0	0
4263549	REC_WORD	wordpools/wasnorm_wordpool_576.txt	LTP314	ltpFR2	5	18	PUPIL	1143	n/a	n/a	0	0	0
4264108	REC_WORD	wordpools/wasnorm_wordpool_576.txt	LTP314	ltpFR2	5	18	OMELET	976	n/a	n/a	0	0	0
4267960	REC_WORD	wordpools/wasnorm_wordpool_576.txt	LTP314	ltpFR2	5	18	PARSLEY	1016	n/a	n/a	0	0	0
4352818	DISTRACTOR	n/a	LTP314	ltpFR2	5	19	n/a	n/a	n/a	n/a	0	0	0
4352818	START	n/a	LTP314	ltpFR2	5	n/a	n/a	n/a	27	n/a	n/a	n/a	n/a
4352837	PROB	n/a	LTP314	ltpFR2	5	n/a	n/a	n/a	27	12	5	3	4
4355555	PROB	n/a	LTP314	ltpFR2	5	n/a	n/a	n/a	27	18	8	9	1
4358368	PROB	n/a	LTP314	ltpFR2	5	n/a	n/a	n/a	27	10	3	6	2
4359937	PROB	n/a	LTP314	ltpFR2	5	n/a	n/a	n/a	27	21	2	9	9
4361637	PROB	n/a	LTP314	ltpFR2	5	n/a	n/a	n/a	27	11	1	7	3
4364757	PROB	n/a	LTP314	ltpFR2	5	n/a	n/a	n/a	27	9	1	3	5
4366611	PROB	n/a	LTP314	ltpFR2	5	n/a	n/a	n/a	27	17	4	8	5
4369010	PROB	n/a	LTP314	ltpFR2	5	n/a	n/a	n/a	27	26	9	8	9
4373699	PROB	n/a	LTP314	ltpFR2	5	n/a	n/a	n/a	27	12	1	2	9
4375848	STOP	n/a	LTP314	ltpFR2	5	n/a	n/a	n/a	27	n/a	n/a	n/a	n/a
4377970	WORD	wordpools/wasnorm_wordpool_576.txt	LTP314	ltpFR2	5	19	OFFICE	972	n/a	n/a	0	0	0
4380504	WORD	wordpools/wasnorm_wordpool_576.txt	LTP314	ltpFR2	5	19	LODGE	839	n/a	n/a	0	0	0
4383273	WORD	wordpools/wasnorm_wordpool_576.txt	LTP314	ltpFR2	5	19	PECAN	1036	n/a	n/a	0	0	0
4385947	WORD	wordpools/wasnorm_wordpool_576.txt	LTP314	ltpFR2	5	19	VENUS	1557	n/a	n/a	0	0	0
4388528	WORD	wordpools/wasnorm_wordpool_576.txt	LTP314	ltpFR2	5	19	SHERIFF	1284	n/a	n/a	0	0	0
4391295	WORD	wordpools/wasnorm_wordpool_576.txt	LTP314	ltpFR2	5	19	UNCLE	1536	n/a	n/a	0	0	0
4393966	WORD	wordpools/wasnorm_wordpool_576.txt	LTP314	ltpFR2	5	19	BLUEPRINT	142	n/a	n/a	0	0	0
4396433	WORD	wordpools/wasnorm_wordpool_576.txt	LTP314	ltpFR2	5	19	EGYPT	519	n/a	n/a	0	0	0
4399025	WORD	wordpools/wasnorm_wordpool_576.txt	LTP314	ltpFR2	5	19	STATUE	1374	n/a	n/a	0	0	0
4401471	WORD	wordpools/wasnorm_wordpool_576.txt	LTP314	ltpFR2	5	19	CHILD	299	n/a	n/a	0	0	0
4404173	WORD	wordpools/wasnorm_wordpool_576.txt	LTP314	ltpFR2	5	19	TURNIP	1521	n/a	n/a	0	0	0
4406882	WORD	wordpools/wasnorm_wordpool_576.txt	LTP314	ltpFR2	5	19	OUTDOORS	987	n/a	n/a	0	0	0
4409566	WORD	wordpools/wasnorm_wordpool_576.txt	LTP314	ltpFR2	5	19	HEADBAND	696	n/a	n/a	0	0	0
4412246	WORD	wordpools/wasnorm_wordpool_576.txt	LTP314	ltpFR2	5	19	TWEEZERS	1526	n/a	n/a	0	0	0
4414765	WORD	wordpools/wasnorm_wordpool_576.txt	LTP314	ltpFR2	5	19	COIN	343	n/a	n/a	0	0	0
4417289	WORD	wordpools/wasnorm_wordpool_576.txt	LTP314	ltpFR2	5	19	DIME	466	n/a	n/a	0	0	0
4419718	WORD	wordpools/wasnorm_wordpool_576.txt	LTP314	ltpFR2	5	19	DORM	488	n/a	n/a	0	0	0
4422154	WORD	wordpools/wasnorm_wordpool_576.txt	LTP314	ltpFR2	5	19	COUCH	386	n/a	n/a	0	0	0
4424629	WORD	wordpools/wasnorm_wordpool_576.txt	LTP314	ltpFR2	5	19	FIREMAN	569	n/a	n/a	0	0	0
4427340	WORD	wordpools/wasnorm_wordpool_576.txt	LTP314	ltpFR2	5	19	PRIMATE	1123	n/a	n/a	0	0	0
4429776	WORD	wordpools/wasnorm_wordpool_576.txt	LTP314	ltpFR2	5	19	PERMIT	1051	n/a	n/a	0	0	0
4432444	WORD	wordpools/wasnorm_wordpool_576.txt	LTP314	ltpFR2	5	19	STOVE	1388	n/a	n/a	0	0	0
4434931	WORD	wordpools/wasnorm_wordpool_576.txt	LTP314	ltpFR2	5	19	BRIEFCASE	175	n/a	n/a	0	0	0
4437565	WORD	wordpools/wasnorm_wordpool_576.txt	LTP314	ltpFR2	5	19	TABLE	1426	n/a	n/a	0	0	0
4439176	START	n/a	LTP314	ltpFR2	5	n/a	n/a	n/a	28	n/a	n/a	n/a	n/a
4440166	DISTRACTOR	n/a	LTP314	ltpFR2	5	19	n/a	n/a	n/a	n/a	0	0	0
4440176	PROB	n/a	LTP314	ltpFR2	5	n/a	n/a	n/a	28	21	9	5	7
4444442	PROB	n/a	LTP314	ltpFR2	5	n/a	n/a	n/a	28	16	3	9	4
4447696	PROB	n/a	LTP314	ltpFR2	5	n/a	n/a	n/a	28	22	8	8	6
4449400	PROB	n/a	LTP314	ltpFR2	5	n/a	n/a	n/a	28	22	5	8	9
4453001	PROB	n/a	LTP314	ltpFR2	5	n/a	n/a	n/a	28	16	8	7	1
4455367	PROB	n/a	LTP314	ltpFR2	5	n/a	n/a	n/a	28	15	5	9	1
4457121	PROB	n/a	LTP314	ltpFR2	5	n/a	n/a	n/a	28	21	7	8	6
4459038	PROB	n/a	LTP314	ltpFR2	5	n/a	n/a	n/a	28	13	3	6	4
4460576	PROB	n/a	LTP314	ltpFR2	5	n/a	n/a	n/a	28	16	1	8	7
4462183	STOP	n/a	LTP314	ltpFR2	5	n/a	n/a	n/a	28	n/a	n/a	n/a	n/a
4465062	REC_START	n/a	LTP314	ltpFR2	5	19	n/a	n/a	n/a	n/a	0	0	0
4465919	REC_WORD	wordpools/wasnorm_wordpool_576.txt	LTP314	ltpFR2	5	19	DORM	488	n/a	n/a	0	0	0
4466365	REC_WORD	wordpools/wasnorm_wordpool_576.txt	LTP314	ltpFR2	5	19	COUCH	386	n/a	n/a	0	0	0
4469130	REC_WORD	wordpools/wasnorm_wordpool_576.txt	LTP314	ltpFR2	5	19	DIME	466	n/a	n/a	0	0	0
4469599	REC_WORD	wordpools/wasnorm_wordpool_576.txt	LTP314	ltpFR2	5	19	COIN	343	n/a	n/a	0	0	0
4470930	REC_WORD	wordpools/wasnorm_wordpool_576.txt	LTP314	ltpFR2	5	19	VENUS	1557	n/a	n/a	0	0	0
4471687	REC_WORD	wordpools/wasnorm_wordpool_576.txt	LTP314	ltpFR2	5	19	PRIMATE	1123	n/a	n/a	0	0	0
4624880	DISTRACTOR	n/a	LTP314	ltpFR2	5	20	n/a	n/a	n/a	n/a	0	0	0
4624880	START	n/a	LTP314	ltpFR2	5	n/a	n/a	n/a	29	n/a	n/a	n/a	n/a
4624893	PROB	n/a	LTP314	ltpFR2	5	n/a	n/a	n/a	29	12	6	5	1
4626405	PROB	n/a	LTP314	ltpFR2	5	n/a	n/a	n/a	29	11	3	6	2
4630375	PROB	n/a	LTP314	ltpFR2	5	n/a	n/a	n/a	29	9	1	7	1
4631928	PROB	n/a	LTP314	ltpFR2	5	n/a	n/a	n/a	29	17	5	4	8
4634496	PROB	n/a	LTP314	ltpFR2	5	n/a	n/a	n/a	29	21	7	5	9
4636781	PROB	n/a	LTP314	ltpFR2	5	n/a	n/a	n/a	29	20	8	9	3
4639705	PROB	n/a	LTP314	ltpFR2	5	n/a	n/a	n/a	29	21	8	8	5
4642508	PROB	n/a	LTP314	ltpFR2	5	n/a	n/a	n/a	29	21	8	6	7
4645094	PROB	n/a	LTP314	ltpFR2	5	n/a	n/a	n/a	29	13	1	7	4
4646828	PROB	n/a	LTP314	ltpFR2	5	n/a	n/a	n/a	29	11	7	1	3
4648823	STOP	n/a	LTP314	ltpFR2	5	n/a	n/a	n/a	29	n/a	n/a	n/a	n/a
4649816	WORD	wordpools/wasnorm_wordpool_576.txt	LTP314	ltpFR2	5	20	CHAUFFEUR	283	n/a	n/a	0	0	0
4652412	WORD	wordpools/wasnorm_wordpool_576.txt	LTP314	ltpFR2	5	20	RUST	1219	n/a	n/a	0	0	0
4654855	WORD	wordpools/wasnorm_wordpool_576.txt	LTP314	ltpFR2	5	20	BULLET	194	n/a	n/a	0	0	0
4657299	WORD	wordpools/wasnorm_wordpool_576.txt	LTP314	ltpFR2	5	20	DAUGHTER	442	n/a	n/a	0	0	0
4659751	WORD	wordpools/wasnorm_wordpool_576.txt	LTP314	ltpFR2	5	20	SCULPTURE	1258	n/a	n/a	0	0	0
4662503	WORD	wordpools/wasnorm_wordpool_576.txt	LTP314	ltpFR2	5	20	MARINE	869	n/a	n/a	0	0	0
4665305	WORD	wordpools/wasnorm_wordpool_576.txt	LTP314	ltpFR2	5	20	CREVICE	405	n/a	n/a	0	0	0
4668048	WORD	wordpools/wasnorm_wordpool_576.txt	LTP314	ltpFR2	5	20	FLASHLIGHT	575	n/a	n/a	0	0	0
4670583	WORD	wordpools/wasnorm_wordpool_576.txt	LTP314	ltpFR2	5	20	PLAZA	1088	n/a	n/a	0	0	0
4673302	WORD	wordpools/wasnorm_wordpool_576.txt	LTP314	ltpFR2	5	20	FLEET	578	n/a	n/a	0	0	0
4676014	WORD	wordpools/wasnorm_wordpool_576.txt	LTP314	ltpFR2	5	20	KNAPSACK	783	n/a	n/a	0	0	0
4678548	WORD	wordpools/wasnorm_wordpool_576.txt	LTP314	ltpFR2	5	20	CABBAGE	210	n/a	n/a	0	0	0
4681359	WORD	wordpools/wasnorm_wordpool_576.txt	LTP314	ltpFR2	5	20	PEANUT	1032	n/a	n/a	0	0	0
4684129	WORD	wordpools/wasnorm_wordpool_576.txt	LTP314	ltpFR2	5	20	NOTEBOOK	959	n/a	n/a	0	0	0
4686754	WORD	wordpools/wasnorm_wordpool_576.txt	LTP314	ltpFR2	5	20	KEEPER	769	n/a	n/a	0	0	0
4689389	WORD	wordpools/wasnorm_wordpool_576.txt	LTP314	ltpFR2	5	20	DINER	467	n/a	n/a	0	0	0
4691918	WORD	wordpools/wasnorm_wordpool_576.txt	LTP314	ltpFR2	5	20	SHELTER	1282	n/a	n/a	0	0	0
4694561	WORD	wordpools/wasnorm_wordpool_576.txt	LTP314	ltpFR2	5	20	BRICK	172	n/a	n/a	0	0	0
4697346	WORD	wordpools/wasnorm_wordpool_576.txt	LTP314	ltpFR2	5	20	PUDDING	1139	n/a	n/a	0	0	0
4700033	WORD	wordpools/wasnorm_wordpool_576.txt	LTP314	ltpFR2	5	20	LADDER	793	n/a	n/a	0	0	0
4702566	WORD	wordpools/wasnorm_wordpool_576.txt	LTP314	ltpFR2	5	20	CAFE	216	n/a	n/a	0	0	0
4705097	WORD	wordpools/wasnorm_wordpool_576.txt	LTP314	ltpFR2	5	20	COURSE	390	n/a	n/a	0	0	0
4707766	WORD	wordpools/wasnorm_wordpool_576.txt	LTP314	ltpFR2	5	20	BLACKBOARD	133	n/a	n/a	0	0	0
4710349	WORD	wordpools/wasnorm_wordpool_576.txt	LTP314	ltpFR2	5	20	WIDOW	1608	n/a	n/a	0	0	0
4711958	START	n/a	LTP314	ltpFR2	5	n/a	n/a	n/a	30	n/a	n/a	n/a	n/a
4712770	DISTRACTOR	n/a	LTP314	ltpFR2	5	20	n/a	n/a	n/a	n/a	0	0	0
4712785	PROB	n/a	LTP314	ltpFR2	5	n/a	n/a	n/a	30	12	6	1	5
4715202	PROB	n/a	LTP314	ltpFR2	5	n/a	n/a	n/a	30	12	1	4	5
4717038	PROB	n/a	LTP314	ltpFR2	5	n/a	n/a	n/a	30	19	4	7	8
4719537	PROB	n/a	LTP314	ltpFR2	5	n/a	n/a	n/a	30	24	9	6	9
4721491	PROB	n/a	LTP314	ltpFR2	5	n/a	n/a	n/a	30	1	4	2	4
4723274	PROB	n/a	LTP314	ltpFR2	5	n/a	n/a	n/a	30	23	9	6	8
4725343	PROB	n/a	LTP314	ltpFR2	5	n/a	n/a	n/a	30	10	8	1	1
4726677	PROB	n/a	LTP314	ltpFR2	5	n/a	n/a	n/a	30	14	1	7	6
4728529	PROB	n/a	LTP314	ltpFR2	5	n/a	n/a	n/a	30	13	2	4	7
4730082	PROB	n/a	LTP314	ltpFR2	5	n/a	n/a	n/a	30	14	8	3	3
4731982	PROB	n/a	LTP314	ltpFR2	5	n/a	n/a	n/a	30	15	9	4	2
4735319	STOP	n/a	LTP314	ltpFR2	5	n/a	n/a	n/a	30	n/a	n/a	n/a	n/a
4737855	REC_START	n/a	LTP314	ltpFR2	5	20	n/a	n/a	n/a	n/a	0	0	0
4739225	REC_WORD	wordpools/wasnorm_wordpool_576.txt	LTP314	ltpFR2	5	20	CHAUFFEUR	283	n/a	n/a	0	0	0
4828314	DISTRACTOR	n/a	LTP314	ltpFR2	5	21	n/a	n/a	n/a	n/a	0	0	0
4828314	START	n/a	LTP314	ltpFR2	5	n/a	n/a	n/a	31	n/a	n/a	n/a	n/a
4828328	PROB	n/a	LTP314	ltpFR2	5	n/a	n/a	n/a	31	15	4	8	3
4831930	PROB	n/a	LTP314	ltpFR2	5	n/a	n/a	n/a	31	19	2	8	9
4833501	PROB	n/a	LTP314	ltpFR2	5	n/a	n/a	n/a	31	18	7	5	4
4835215	PROB	n/a	LTP314	ltpFR2	5	n/a	n/a	n/a	31	14	6	3	5
4837120	PROB	n/a	LTP314	ltpFR2	5	n/a	n/a	n/a	31	10	2	5	3
4838868	PROB	n/a	LTP314	ltpFR2	5	n/a	n/a	n/a	31	9	4	4	1
4840089	PROB	n/a	LTP314	ltpFR2	5	n/a	n/a	n/a	31	19	7	3	9
4841404	PROB	n/a	LTP314	ltpFR2	5	n/a	n/a	n/a	31	8	1	4	3
4844226	PROB	n/a	LTP314	ltpFR2	5	n/a	n/a	n/a	31	16	7	2	7
4846074	PROB	n/a	LTP314	ltpFR2	5	n/a	n/a	n/a	31	16	4	7	5
4847929	PROB	n/a	LTP314	ltpFR2	5	n/a	n/a	n/a	31	21	8	9	4
4850794	PROB	n/a	LTP314	ltpFR2	5	n/a	n/a	n/a	31	19	6	4	9
4852191	STOP	n/a	LTP314	ltpFR2	5	n/a	n/a	n/a	31	n/a	n/a	n/a	n/a
4853382	WORD	wordpools/wasnorm_wordpool_576.txt	LTP314	ltpFR2	5	21	FINGER	567	n/a	n/a	0	0	0
4856151	WORD	wordpools/wasnorm_wordpool_576.txt	LTP314	ltpFR2	5	21	ONION	977	n/a	n/a	0	0	0
4858854	WORD	wordpools/wasnorm_wordpool_576.txt	LTP314	ltpFR2	5	21	CARROT	249	n/a	n/a	0	0	0
4861505	WORD	wordpools/wasnorm_wordpool_576.txt	LTP314	ltpFR2	5	21	BUNNY	198	n/a	n/a	0	0	0
4864024	WORD	wordpools/wasnorm_wordpool_576.txt	LTP314	ltpFR2	5	21	CLOTHES	327	n/a	n/a	0	0	0
4866492	WORD	wordpools/wasnorm_wordpool_576.txt	LTP314	ltpFR2	5	21	YOLK	1633	n/a	n/a	0	0	0
4869045	WORD	wordpools/wasnorm_wordpool_576.txt	LTP314	ltpFR2	5	21	MUFFIN	929	n/a	n/a	0	0	0
4871534	WORD	wordpools/wasnorm_wordpool_576.txt	LTP314	ltpFR2	5	21	TEMPLE	1448	n/a	n/a	0	0	0
4873987	WORD	wordpools/wasnorm_wordpool_576.txt	LTP314	ltpFR2	5	21	FRIAR	605	n/a	n/a	0	0	0
4876421	WORD	wordpools/wasnorm_wordpool_576.txt	LTP314	ltpFR2	5	21	TABLET	1427	n/a	n/a	0	0	0
4878890	WORD	wordpools/wasnorm_wordpool_576.txt	LTP314	ltpFR2	5	21	GYMNAST	675	n/a	n/a	0	0	0
4881709	WORD	wordpools/wasnorm_wordpool_576.txt	LTP314	ltpFR2	5	21	GRAVEL	659	n/a	n/a	0	0	0
4884211	WORD	wordpools/wasnorm_wordpool_576.txt	LTP314	ltpFR2	5	21	VIRUS	1572	n/a	n/a	0	0	0
4886707	WORD	wordpools/wasnorm_wordpool_576.txt	LTP314	ltpFR2	5	21	MEDAL	885	n/a	n/a	0	0	0
4889465	WORD	wordpools/wasnorm_wordpool_576.txt	LTP314	ltpFR2	5	21	GANGSTER	620	n/a	n/a	0	0	0
4892085	WORD	wordpools/wasnorm_wordpool_576.txt	LTP314	ltpFR2	5	21	GARBAGE	622	n/a	n/a	0	0	0
4894764	WORD	wordpools/wasnorm_wordpool_576.txt	LTP314	ltpFR2	5	21	SIDEWALK	1303	n/a	n/a	0	0	0
4897382	WORD	wordpools/wasnorm_wordpool_576.txt	LTP314	ltpFR2	5	21	VAGRANT	1544	n/a	n/a	0	0	0
4899952	WORD	wordpools/wasnorm_wordpool_576.txt	LTP314	ltpFR2	5	21	DRESSER	496	n/a	n/a	0	0	0
4902469	WORD	wordpools/wasnorm_wordpool_576.txt	LTP314	ltpFR2	5	21	LEG	809	n/a	n/a	0	0	0
4905238	WORD	wordpools/wasnorm_wordpool_576.txt	LTP314	ltpFR2	5	21	WORLD	1622	n/a	n/a	0	0	0
4907774	WORD	wordpools/wasnorm_wordpool_576.txt	LTP314	ltpFR2	5	21	CITRUS	313	n/a	n/a	0	0	0
4910449	WORD	wordpools/wasnorm_wordpool_576.txt	LTP314	ltpFR2	5	21	PISTOL	1075	n/a	n/a	0	0	0
4912953	WORD	wordpools/wasnorm_wordpool_576.txt	LTP314	ltpFR2	5	21	BASEMENT	94	n/a	n/a	0	0	0
4914563	START	n/a	LTP314	ltpFR2	5	n/a	n/a	n/a	32	n/a	n/a	n/a	n/a
4915669	DISTRACTOR	n/a	LTP314	ltpFR2	5	21	n/a	n/a	n/a	n/a	0	0	0
4915679	PROB	n/a	LTP314	ltpFR2	5	n/a	n/a	n/a	32	10	2	7	1
4918054	PROB	n/a	LTP314	ltpFR2	5	n/a	n/a	n/a	32	13	7	4	2
4919642	PROB	n/a	LTP314	ltpFR2	5	n/a	n/a	n/a	32	15	2	8	5
4921006	PROB	n/a	LTP314	ltpFR2	5	n/a	n/a	n/a	32	13	2	8	3
4922924	PROB	n/a	LTP314	ltpFR2	5	n/a	n/a	n/a	32	16	8	3	5
4925278	PROB	n/a	LTP314	ltpFR2	5	n/a	n/a	n/a	32	8	2	5	1
4927013	PROB	n/a	LTP314	ltpFR2	5	n/a	n/a	n/a	32	13	2	7	4
4928578	PROB	n/a	LTP314	ltpFR2	5	n/a	n/a	n/a	32	9	3	4	2
4930396	PROB	n/a	LTP314	ltpFR2	5	n/a	n/a	n/a	32	21	8	7	6
4932731	PROB	n/a	LTP314	ltpFR2	5	n/a	n/a	n/a	32	13	3	3	7
4934767	PROB	n/a	LTP314	ltpFR2	5	n/a	n/a	n/a	32	20	9	2	9
4938563	STOP	n/a	LTP314	ltpFR2	5	n/a	n/a	n/a	32	n/a	n/a	n/a	n/a
4940389	REC_START	n/a	LTP314	ltpFR2	5	21	n/a	n/a	n/a	n/a	0	0	0
4943311	REC_WORD	wordpools/wasnorm_wordpool_576.txt	LTP314	ltpFR2	5	21	CITRUS	313	n/a	n/a	0	0	0
4944037	REC_WORD	wordpools/wasnorm_wordpool_576.txt	LTP314	ltpFR2	5	21	GANGSTER	620	n/a	n/a	0	0	0
4944665	REC_WORD	wordpools/wasnorm_wordpool_576.txt	LTP314	ltpFR2	5	21	GARBAGE	622	n/a	n/a	0	0	0
4945381	REC_WORD	wordpools/wasnorm_wordpool_576.txt	LTP314	ltpFR2	5	21	VAGRANT	1544	n/a	n/a	0	0	0
4949615	REC_WORD	wordpools/wasnorm_wordpool_576.txt	LTP314	ltpFR2	5	21	TURNIP	1521	n/a	n/a	0	0	0
4950263	REC_WORD	wordpools/wasnorm_wordpool_576.txt	LTP314	ltpFR2	5	21	CARROT	249	n/a	n/a	0	0	0
4950794	REC_WORD	wordpools/wasnorm_wordpool_576.txt	LTP314	ltpFR2	5	21	FINGER	567	n/a	n/a	0	0	0
5030864	WORD	wordpools/wasnorm_wordpool_576.txt	LTP314	ltpFR2	5	22	WIFE	1609	n/a	n/a	0	0	0
5033635	WORD	wordpools/wasnorm_wordpool_576.txt	LTP314	ltpFR2	5	22	TOURIST	1488	n/a	n/a	0	0	0
5036205	WORD	wordpools/wasnorm_wordpool_576.txt	LTP314	ltpFR2	5	22	BROOK	177	n/a	n/a	0	0	0
5038640	WORD	wordpools/wasnorm_wordpool_576.txt	LTP314	ltpFR2	5	22	CANAL	226	n/a	n/a	0	0	0
5041210	WORD	wordpools/wasnorm_wordpool_576.txt	LTP314	ltpFR2	5	22	TRIBE	1505	n/a	n/a	0	0	0
5043710	WORD	wordpools/wasnorm_wordpool_576.txt	LTP314	ltpFR2	5	22	TART	1436	n/a	n/a	0	0	0
5046496	WORD	wordpools/wasnorm_wordpool_576.txt	LTP314	ltpFR2	5	22	BABY	64	n/a	n/a	0	0	0
5049131	WORD	wordpools/wasnorm_wordpool_576.txt	LTP314	ltpFR2	5	22	SUITCASE	1403	n/a	n/a	0	0	0
5051884	WORD	wordpools/wasnorm_wordpool_576.txt	LTP314	ltpFR2	5	22	STREAM	1392	n/a	n/a	0	0	0
5054335	WORD	wordpools/wasnorm_wordpool_576.txt	LTP314	ltpFR2	5	22	HUMAN	726	n/a	n/a	0	0	0
5057037	WORD	wordpools/wasnorm_wordpool_576.txt	LTP314	ltpFR2	5	22	PASTRY	1022	n/a	n/a	0	0	0
5059622	WORD	wordpools/wasnorm_wordpool_576.txt	LTP314	ltpFR2	5	22	ATLAS	53	n/a	n/a	0	0	0
5062059	WORD	wordpools/wasnorm_wordpool_576.txt	LTP314	ltpFR2	5	22	PANTHER	1009	n/a	n/a	0	0	0
5064492	WORD	wordpools/wasnorm_wordpool_576.txt	LTP314	ltpFR2	5	22	SPHINX	1349	n/a	n/a	0	0	0
5067213	WORD	wordpools/wasnorm_wordpool_576.txt	LTP314	ltpFR2	5	22	POWDER	1117	n/a	n/a	0	0	0
5069898	WORD	wordpools/wasnorm_wordpool_576.txt	LTP314	ltpFR2	5	22	INFANT	737	n/a	n/a	0	0	0
5072499	WORD	wordpools/wasnorm_wordpool_576.txt	LTP314	ltpFR2	5	22	APPLE	33	n/a	n/a	0	0	0
5075152	WORD	wordpools/wasnorm_wordpool_576.txt	LTP314	ltpFR2	5	22	LOVER	846	n/a	n/a	0	0	0
5077721	WORD	wordpools/wasnorm_wordpool_576.txt	LTP314	ltpFR2	5	22	PORK	1108	n/a	n/a	0	0	0
5080307	WORD	wordpools/wasnorm_wordpool_576.txt	LTP314	ltpFR2	5	22	SALAD	1224	n/a	n/a	0	0	0
5082958	WORD	wordpools/wasnorm_wordpool_576.txt	LTP314	ltpFR2	5	22	INMATE	738	n/a	n/a	0	0	0
5085392	WORD	wordpools/wasnorm_wordpool_576.txt	LTP314	ltpFR2	5	22	SPOUSE	1358	n/a	n/a	0	0	0
5088212	WORD	wordpools/wasnorm_wordpool_576.txt	LTP314	ltpFR2	5	22	HUSBAND	728	n/a	n/a	0	0	0
5090867	WORD	wordpools/wasnorm_wordpool_576.txt	LTP314	ltpFR2	5	22	FIDDLE	561	n/a	n/a	0	0	0
5092482	START	n/a	LTP314	ltpFR2	5	n/a	n/a	n/a	33	n/a	n/a	n/a	n/a
5093330	DISTRACTOR	n/a	LTP314	ltpFR2	5	22	n/a	n/a	n/a	n/a	0	0	0
5093348	PROB	n/a	LTP314	ltpFR2	5	n/a	n/a	n/a	33	17	8	2	7
5095279	PROB	n/a	LTP314	ltpFR2	5	n/a	n/a	n/a	33	19	9	8	2
5097786	PROB	n/a	LTP314	ltpFR2	5	n/a	n/a	n/a	33	12	2	6	4
5099333	PROB	n/a	LTP314	ltpFR2	5	n/a	n/a	n/a	33	7	1	5	1
5101271	PROB	n/a	LTP314	ltpFR2	5	n/a	n/a	n/a	33	20	4	8	8
5102787	PROB	n/a	LTP314	ltpFR2	5	n/a	n/a	n/a	33	10	7	2	1
5106442	PROB	n/a	LTP314	ltpFR2	5	n/a	n/a	n/a	33	9	3	3	3
5107612	PROB	n/a	LTP314	ltpFR2	5	n/a	n/a	n/a	33	11	6	4	1
5108857	PROB	n/a	LTP314	ltpFR2	5	n/a	n/a	n/a	33	13	4	1	9
5110713	PROB	n/a	LTP314	ltpFR2	5	n/a	n/a	n/a	33	22	7	9	6
5116358	STOP	n/a	LTP314	ltpFR2	5	n/a	n/a	n/a	33	n/a	n/a	n/a	n/a
5118397	REC_START	n/a	LTP314	ltpFR2	5	22	n/a	n/a	n/a	n/a	0	0	0
5119026	REC_WORD	wordpools/wasnorm_wordpool_576.txt	LTP314	ltpFR2	5	22	SPOUSE	1358	n/a	n/a	0	0	0
5119459	REC_WORD	wordpools/wasnorm_wordpool_576.txt	LTP314	ltpFR2	5	22	HUSBAND	728	n/a	n/a	0	0	0
5119876	REC_WORD	wordpools/wasnorm_wordpool_576.txt	LTP314	ltpFR2	5	22	WIFE	1609	n/a	n/a	0	0	0
5120717	REC_WORD	wordpools/wasnorm_wordpool_576.txt	LTP314	ltpFR2	5	22	INFANT	737	n/a	n/a	0	0	0
5123052	REC_WORD	wordpools/wasnorm_wordpool_576.txt	LTP314	ltpFR2	5	22	FIDDLE	561	n/a	n/a	0	0	0
5129208	REC_WORD	wordpools/wasnorm_wordpool_576.txt	LTP314	ltpFR2	5	22	ATLAS	53	n/a	n/a	0	0	0
5129989	REC_WORD	wordpools/wasnorm_wordpool_576.txt	LTP314	ltpFR2	5	22	SPHINX	1349	n/a	n/a	0	0	0
5208821	DISTRACTOR	n/a	LTP314	ltpFR2	5	23	n/a	n/a	n/a	n/a	0	0	0
5208821	START	n/a	LTP314	ltpFR2	5	n/a	n/a	n/a	34	n/a	n/a	n/a	n/a
5208834	PROB	n/a	LTP314	ltpFR2	5	n/a	n/a	n/a	34	17	3	8	6
5211497	PROB	n/a	LTP314	ltpFR2	5	n/a	n/a	n/a	34	10	1	6	3
5213800	PROB	n/a	LTP314	ltpFR2	5	n/a	n/a	n/a	34	18	7	4	7
5215918	PROB	n/a	LTP314	ltpFR2	5	n/a	n/a	n/a	34	16	6	5	5
5217669	PROB	n/a	LTP314	ltpFR2	5	n/a	n/a	n/a	34	21	9	7	5
5219503	PROB	n/a	LTP314	ltpFR2	5	n/a	n/a	n/a	34	18	4	6	8
5221092	PROB	n/a	LTP314	ltpFR2	5	n/a	n/a	n/a	34	21	9	9	3
5222722	PROB	n/a	LTP314	ltpFR2	5	n/a	n/a	n/a	34	17	9	2	6
5224658	PROB	n/a	LTP314	ltpFR2	5	n/a	n/a	n/a	34	9	3	5	2
5226226	PROB	n/a	LTP314	ltpFR2	5	n/a	n/a	n/a	34	12	5	2	5
5227628	PROB	n/a	LTP314	ltpFR2	5	n/a	n/a	n/a	34	20	7	8	5
5229849	PROB	n/a	LTP314	ltpFR2	5	n/a	n/a	n/a	34	16	2	6	8
5231526	STOP	n/a	LTP314	ltpFR2	5	n/a	n/a	n/a	34	n/a	n/a	n/a	n/a
5233686	WORD	wordpools/wasnorm_wordpool_576.txt	LTP314	ltpFR2	5	23	TWIG	1527	n/a	n/a	0	0	0
5236155	WORD	wordpools/wasnorm_wordpool_576.txt	LTP314	ltpFR2	5	23	COLLEGE	346	n/a	n/a	0	0	0
5238957	WORD	wordpools/wasnorm_wordpool_576.txt	LTP314	ltpFR2	5	23	ITEM	746	n/a	n/a	0	0	0
5241509	WORD	wordpools/wasnorm_wordpool_576.txt	LTP314	ltpFR2	5	23	ELBOW	520	n/a	n/a	0	0	0
5244130	WORD	wordpools/wasnorm_wordpool_576.txt	LTP314	ltpFR2	5	23	LETTUCE	814	n/a	n/a	0	0	0
5246729	WORD	wordpools/wasnorm_wordpool_576.txt	LTP314	ltpFR2	5	23	TRUCK	1512	n/a	n/a	0	0	0
5249182	WORD	wordpools/wasnorm_wordpool_576.txt	LTP314	ltpFR2	5	23	STICKER	1382	n/a	n/a	0	0	0
5251836	WORD	wordpools/wasnorm_wordpool_576.txt	LTP314	ltpFR2	5	23	PISTON	1076	n/a	n/a	0	0	0
5254304	WORD	wordpools/wasnorm_wordpool_576.txt	LTP314	ltpFR2	5	23	DAISY	435	n/a	n/a	0	0	0
5256805	WORD	wordpools/wasnorm_wordpool_576.txt	LTP314	ltpFR2	5	23	KIDNEY	776	n/a	n/a	0	0	0
5259490	WORD	wordpools/wasnorm_wordpool_576.txt	LTP314	ltpFR2	5	23	FOX	598	n/a	n/a	0	0	0
5262226	WORD	wordpools/wasnorm_wordpool_576.txt	LTP314	ltpFR2	5	23	HOUND	724	n/a	n/a	0	0	0
5265013	WORD	wordpools/wasnorm_wordpool_576.txt	LTP314	ltpFR2	5	23	CRUTCH	417	n/a	n/a	0	0	0
5267529	WORD	wordpools/wasnorm_wordpool_576.txt	LTP314	ltpFR2	5	23	TYPIST	1532	n/a	n/a	0	0	0
5269966	WORD	wordpools/wasnorm_wordpool_576.txt	LTP314	ltpFR2	5	23	OINTMENT	974	n/a	n/a	0	0	0
5272517	WORD	wordpools/wasnorm_wordpool_576.txt	LTP314	ltpFR2	5	23	SCISSORS	1250	n/a	n/a	0	0	0
5274987	WORD	wordpools/wasnorm_wordpool_576.txt	LTP314	ltpFR2	5	23	MOTOR	922	n/a	n/a	0	0	0
5277422	WORD	wordpools/wasnorm_wordpool_576.txt	LTP314	ltpFR2	5	23	DOLPHIN	483	n/a	n/a	0	0	0
5280191	WORD	wordpools/wasnorm_wordpool_576.txt	LTP314	ltpFR2	5	23	MILDEW	893	n/a	n/a	0	0	0
5282742	WORD	wordpools/wasnorm_wordpool_576.txt	LTP314	ltpFR2	5	23	SLIME	1327	n/a	n/a	0	0	0
5285211	WORD	wordpools/wasnorm_wordpool_576.txt	LTP314	ltpFR2	5	23	PORTRAIT	1111	n/a	n/a	0	0	0
5287764	WORD	wordpools/wasnorm_wordpool_576.txt	LTP314	ltpFR2	5	23	FIREPLACE	570	n/a	n/a	0	0	0
5290315	WORD	wordpools/wasnorm_wordpool_576.txt	LTP314	ltpFR2	5	23	OUTLAW	989	n/a	n/a	0	0	0
5292951	WORD	wordpools/wasnorm_wordpool_576.txt	LTP314	ltpFR2	5	23	CHEMIST	292	n/a	n/a	0	0	0
5294569	START	n/a	LTP314	ltpFR2	5	n/a	n/a	n/a	35	n/a	n/a	n/a	n/a
5295550	DISTRACTOR	n/a	LTP314	ltpFR2	5	23	n/a	n/a	n/a	n/a	0	0	0
5295569	PROB	n/a	LTP314	ltpFR2	5	n/a	n/a	n/a	35	18	8	1	8
5298389	PROB	n/a	LTP314	ltpFR2	5	n/a	n/a	n/a	35	12	2	8	2
5299739	PROB	n/a	LTP314	ltpFR2	5	n/a	n/a	n/a	35	25	8	8	9
5302439	PROB	n/a	LTP314	ltpFR2	5	n/a	n/a	n/a	35	16	4	9	3
5304708	PROB	n/a	LTP314	ltpFR2	5	n/a	n/a	n/a	35	16	3	9	4
5307063	PROB	n/a	LTP314	ltpFR2	5	n/a	n/a	n/a	35	18	5	5	8
5308396	PROB	n/a	LTP314	ltpFR2	5	n/a	n/a	n/a	35	22	7	8	7
5311381	PROB	n/a	LTP314	ltpFR2	5	n/a	n/a	n/a	35	14	7	5	2
5314702	PROB	n/a	LTP314	ltpFR2	5	n/a	n/a	n/a	35	10	4	4	2
5316134	PROB	n/a	LTP314	ltpFR2	5	n/a	n/a	n/a	35	12	2	6	4
5318167	STOP	n/a	LTP314	ltpFR2	5	n/a	n/a	n/a	35	n/a	n/a	n/a	n/a
5320441	REC_START	n/a	LTP314	ltpFR2	5	23	n/a	n/a	n/a	n/a	0	0	0
5321431	REC_WORD	wordpools/wasnorm_wordpool_576.txt	LTP314	ltpFR2	5	23	DOLPHIN	483	n/a	n/a	0	0	0
5321943	REC_WORD	wordpools/wasnorm_wordpool_576.txt	LTP314	ltpFR2	5	23	FIREPLACE	570	n/a	n/a	0	0	0
5335148	REC_WORD	wordpools/wasnorm_wordpool_576.txt	LTP314	ltpFR2	5	23	COLLEGE	346	n/a	n/a	0	0	0
5410880	WORD	wordpools/wasnorm_wordpool_576.txt	LTP314	ltpFR2	5	24	TURKEY	1520	n/a	n/a	0	0	0
5413325	WORD	wordpools/wasnorm_wordpool_576.txt	LTP314	ltpFR2	5	24	SAUSAGE	1238	n/a	n/a	0	0	0
5415988	WORD	wordpools/wasnorm_wordpool_576.txt	LTP314	ltpFR2	5	24	CLAMP	316	n/a	n/a	0	0	0
5418638	WORD	wordpools/wasnorm_wordpool_576.txt	LTP314	ltpFR2	5	24	VALVE	1546	n/a	n/a	0	0	0
5421158	WORD	wordpools/wasnorm_wordpool_576.txt	LTP314	ltpFR2	5	24	JAPAN	749	n/a	n/a	0	0	0
5423928	WORD	wordpools/wasnorm_wordpool_576.txt	LTP314	ltpFR2	5	24	AWARD	63	n/a	n/a	0	0	0
5426696	WORD	wordpools/wasnorm_wordpool_576.txt	LTP314	ltpFR2	5	24	WHISTLE	1606	n/a	n/a	0	0	0
5429331	WORD	wordpools/wasnorm_wordpool_576.txt	LTP314	ltpFR2	5	24	DRUG	501	n/a	n/a	0	0	0
5432018	WORD	wordpools/wasnorm_wordpool_576.txt	LTP314	ltpFR2	5	24	BOUQUET	157	n/a	n/a	0	0	0
5434702	WORD	wordpools/wasnorm_wordpool_576.txt	LTP314	ltpFR2	5	24	CHEST	295	n/a	n/a	0	0	0
5437237	WORD	wordpools/wasnorm_wordpool_576.txt	LTP314	ltpFR2	5	24	AIRPLANE	12	n/a	n/a	0	0	0
5439947	WORD	wordpools/wasnorm_wordpool_576.txt	LTP314	ltpFR2	5	24	LONDON	843	n/a	n/a	0	0	0
5442558	WORD	wordpools/wasnorm_wordpool_576.txt	LTP314	ltpFR2	5	24	WASHER	1592	n/a	n/a	0	0	0
5445094	WORD	wordpools/wasnorm_wordpool_576.txt	LTP314	ltpFR2	5	24	KNIFE	785	n/a	n/a	0	0	0
5447852	WORD	wordpools/wasnorm_wordpool_576.txt	LTP314	ltpFR2	5	24	PLAID	1080	n/a	n/a	0	0	0
5450653	WORD	wordpools/wasnorm_wordpool_576.txt	LTP314	ltpFR2	5	24	BRAKE	166	n/a	n/a	0	0	0
5453434	WORD	wordpools/wasnorm_wordpool_576.txt	LTP314	ltpFR2	5	24	ANKLE	24	n/a	n/a	0	0	0
5456222	WORD	wordpools/wasnorm_wordpool_576.txt	LTP314	ltpFR2	5	24	RECORD	1176	n/a	n/a	0	0	0
5458973	WORD	wordpools/wasnorm_wordpool_576.txt	LTP314	ltpFR2	5	24	WAGON	1578	n/a	n/a	0	0	0
5461628	WORD	wordpools/wasnorm_wordpool_576.txt	LTP314	ltpFR2	5	24	TUTU	1524	n/a	n/a	0	0	0
5464314	WORD	wordpools/wasnorm_wordpool_576.txt	LTP314	ltpFR2	5	24	DANCER	437	n/a	n/a	0	0	0
5467067	WORD	wordpools/wasnorm_wordpool_576.txt	LTP314	ltpFR2	5	24	CHURCH	307	n/a	n/a	0	0	0
5469514	WORD	wordpools/wasnorm_wordpool_576.txt	LTP314	ltpFR2	5	24	CONCERT	360	n/a	n/a	0	0	0
5472100	WORD	wordpools/wasnorm_wordpool_576.txt	LTP314	ltpFR2	5	24	KLEENEX	782	n/a	n/a	0	0	0
5473718	START	n/a	LTP314	ltpFR2	5	n/a	n/a	n/a	36	n/a	n/a	n/a	n/a
5474613	DISTRACTOR	n/a	LTP314	ltpFR2	5	24	n/a	n/a	n/a	n/a	0	0	0
5474621	PROB	n/a	LTP314	ltpFR2	5	n/a	n/a	n/a	36	16	3	5	8
5477385	PROB	n/a	LTP314	ltpFR2	5	n/a	n/a	n/a	36	15	7	3	5
5478820	PROB	n/a	LTP314	ltpFR2	5	n/a	n/a	n/a	36	19	8	6	5
5480403	PROB	n/a	LTP314	ltpFR2	5	n/a	n/a	n/a	36	11	5	2	4
5481974	PROB	n/a	LTP314	ltpFR2	5	n/a	n/a	n/a	36	18	7	9	2
5483825	PROB	n/a	LTP314	ltpFR2	5	n/a	n/a	n/a	36	15	7	1	7
5485809	PROB	n/a	LTP314	ltpFR2	5	n/a	n/a	n/a	36	14	1	8	5
5487476	PROB	n/a	LTP314	ltpFR2	5	n/a	n/a	n/a	36	15	6	6	3
5488895	PROB	n/a	LTP314	ltpFR2	5	n/a	n/a	n/a	36	14	9	4	1
5490913	PROB	n/a	LTP314	ltpFR2	5	n/a	n/a	n/a	36	14	6	7	1
5492513	PROB	n/a	LTP314	ltpFR2	5	n/a	n/a	n/a	36	17	7	9	1
5494551	PROB	n/a	LTP314	ltpFR2	5	n/a	n/a	n/a	36	16	5	2	9
5497718	STOP	n/a	LTP314	ltpFR2	5	n/a	n/a	n/a	36	n/a	n/a	n/a	n/a
5499655	REC_START	n/a	LTP314	ltpFR2	5	24	n/a	n/a	n/a	n/a	0	0	0
5500507	REC_WORD	wordpools/wasnorm_wordpool_576.txt	LTP314	ltpFR2	5	24	CLAMP	316	n/a	n/a	0	0	0
5500954	REC_WORD	wordpools/wasnorm_wordpool_576.txt	LTP314	ltpFR2	5	24	TURKEY	1520	n/a	n/a	0	0	0
5510339	REC_WORD	wordpools/wasnorm_wordpool_576.txt	LTP314	ltpFR2	5	24	CHURCH	307	n/a	n/a	0	0	0
5510943	REC_WORD	wordpools/wasnorm_wordpool_576.txt	LTP314	ltpFR2	5	24	TUTU	1524	n/a	n/a	0	0	0
5511443	REC_WORD	wordpools/wasnorm_wordpool_576.txt	LTP314	ltpFR2	5	24	DANCER	437	n/a	n/a	0	0	0
5521762	REC_WORD	wordpools/wasnorm_wordpool_576.txt	LTP314	ltpFR2	5	24	SAUSAGE	1238	n/a	n/a	0	0	0
5581776	SESS_END	n/a	LTP314	ltpFR2	5	24	n/a	n/a	n/a	n/a	0	0	0
