onset	duration	trial_type	sample	stim_file	subject	experiment	session	trial	task	item_name	item_num	recog_resp	recog_conf	resp	color_r	color_g	color_b	case	font
342.338	n/a	SESS_START	171169	n/a	LTP229	ltpFR	18	n/a	n/a	n/a	n/a	1	1	n/a	n/a	n/a	n/a	n/a	n/a
402.566	n/a	WORD	201283	wordpools/wasnorm_wordpool_less_exclusions.txt	LTP229	ltpFR	18	1	0	VEHICLE	1553	0	n/a	1	0.57763671875	0.412841796875	1	lower	amplitud.ttf
406.548	n/a	WORD	203274	wordpools/wasnorm_wordpool_less_exclusions.txt	LTP229	ltpFR	18	1	0	KEYBOARD	774	n/a	n/a	0	0.57763671875	0.412841796875	1	lower	amplitud.ttf
410.596	n/a	WORD	205298	wordpools/wasnorm_wordpool_less_exclusions.txt	LTP229	ltpFR	18	1	0	VIOLIN	1571	n/a	n/a	1	0.57763671875	0.412841796875	1	lower	amplitud.ttf
414.696	n/a	WORD	207348	wordpools/wasnorm_wordpool_less_exclusions.txt	LTP229	ltpFR	18	1	1	MONK	910	n/a	n/a	1	0.422607421875	0.5869140625	0	upper	zerothre.ttf
418.794	n/a	WORD	209397	wordpools/wasnorm_wordpool_less_exclusions.txt	LTP229	ltpFR	18	1	1	SHEARS	1276	n/a	n/a	0	0.422607421875	0.5869140625	0	upper	zerothre.ttf
422.81	n/a	WORD	211405	wordpools/wasnorm_wordpool_less_exclusions.txt	LTP229	ltpFR	18	1	1	CAR	241	n/a	n/a	1	0.422607421875	0.5869140625	0	upper	zerothre.ttf
427.022	n/a	WORD	213511	wordpools/wasnorm_wordpool_less_exclusions.txt	LTP229	ltpFR	18	1	0	HAND	683	n/a	n/a	0	0.57763671875	0.412841796875	1	lower	amplitud.ttf
430.906	n/a	WORD	215453	wordpools/wasnorm_wordpool_less_exclusions.txt	LTP229	ltpFR	18	1	0	DAUGHTER	442	n/a	n/a	1	0.57763671875	0.412841796875	1	lower	amplitud.ttf
435.074	n/a	WORD	217537	wordpools/wasnorm_wordpool_less_exclusions.txt	LTP229	ltpFR	18	1	0	COOLER	375	n/a	n/a	0	0.57763671875	0.412841796875	1	lower	amplitud.ttf
439.004	n/a	WORD	219502	wordpools/wasnorm_wordpool_less_exclusions.txt	LTP229	ltpFR	18	1	1	SLEEVE	1324	n/a	n/a	0	0.422607421875	0.5869140625	0	upper	zerothre.ttf
442.986	n/a	WORD	221493	wordpools/wasnorm_wordpool_less_exclusions.txt	LTP229	ltpFR	18	1	1	SHIRT	1287	n/a	n/a	0	0.422607421875	0.5869140625	0	upper	zerothre.ttf
446.952	n/a	WORD	223476	wordpools/wasnorm_wordpool_less_exclusions.txt	LTP229	ltpFR	18	1	1	CANARY	227	n/a	n/a	1	0.422607421875	0.5869140625	0	upper	zerothre.ttf
450.982	n/a	WORD	225491	wordpools/wasnorm_wordpool_less_exclusions.txt	LTP229	ltpFR	18	1	1	RUM	1217	n/a	n/a	0	0.422607421875	0.5869140625	0	upper	zerothre.ttf
455.166	n/a	WORD	227583	wordpools/wasnorm_wordpool_less_exclusions.txt	LTP229	ltpFR	18	1	1	GOAT	644	n/a	n/a	1	0.422607421875	0.5869140625	0	upper	zerothre.ttf
459.214	n/a	WORD	229607	wordpools/wasnorm_wordpool_less_exclusions.txt	LTP229	ltpFR	18	1	0	LEOPARD	812	n/a	n/a	1	0.57763671875	0.412841796875	1	lower	amplitud.ttf
463.196	n/a	WORD	231598	wordpools/wasnorm_wordpool_less_exclusions.txt	LTP229	ltpFR	18	1	0	SIBLING	1301	n/a	n/a	0	0.57763671875	0.412841796875	1	lower	amplitud.ttf
469.204	n/a	REC_START	234602	n/a	LTP229	ltpFR	18	1	n/a	n/a	n/a	n/a	n/a	n/a	n/a	n/a	n/a	n/a	n/a
469.792	n/a	REC_WORD	234896	wordpools/wasnorm_wordpool_less_exclusions.txt	LTP229	ltpFR	18	1	0	LEOPARD	812	n/a	n/a	1	n/a	n/a	n/a	n/a	n/a
471.588	n/a	REC_WORD	235794	wordpools/wasnorm_wordpool_less_exclusions.txt	LTP229	ltpFR	18	1	0	DAUGHTER	442	n/a	n/a	1	n/a	n/a	n/a	n/a	n/a
473.106	n/a	REC_WORD	236553	wordpools/wasnorm_wordpool_less_exclusions.txt	LTP229	ltpFR	18	1	1	CAR	241	n/a	n/a	1	n/a	n/a	n/a	n/a	n/a
474.756	n/a	REC_WORD	237378	wordpools/wasnorm_wordpool_less_exclusions.txt	LTP229	ltpFR	18	1	0	VIOLIN	1571	n/a	n/a	1	n/a	n/a	n/a	n/a	n/a
478.264	n/a	REC_WORD	239132	wordpools/wasnorm_wordpool_less_exclusions.txt	LTP229	ltpFR	18	1	0	SIBLING	1301	n/a	n/a	0	n/a	n/a	n/a	n/a	n/a
481.138	n/a	REC_WORD	240569	wordpools/wasnorm_wordpool_less_exclusions.txt	LTP229	ltpFR	18	1	0	VEHICLE	1553	n/a	n/a	1	n/a	n/a	n/a	n/a	n/a
485.428	n/a	REC_WORD	242714	wordpools/wasnorm_wordpool_less_exclusions.txt	LTP229	ltpFR	18	1	1	MONK	910	n/a	n/a	1	n/a	n/a	n/a	n/a	n/a
487.274	n/a	REC_WORD	243637	wordpools/wasnorm_wordpool_less_exclusions.txt	LTP229	ltpFR	18	1	1	SHEARS	1276	n/a	n/a	0	n/a	n/a	n/a	n/a	n/a
490.142	n/a	REC_WORD	245071	wordpools/wasnorm_wordpool_less_exclusions.txt	LTP229	ltpFR	18	1	1	CAR	241	n/a	n/a	1	n/a	n/a	n/a	n/a	n/a
498.064	n/a	REC_WORD	249032	wordpools/wasnorm_wordpool_less_exclusions.txt	LTP229	ltpFR	18	1	1	CANARY	227	n/a	n/a	1	n/a	n/a	n/a	n/a	n/a
539.612	n/a	REC_WORD_VV	269806	wordpools/wasnorm_wordpool_less_exclusions.txt	LTP229	ltpFR	18	1	n/a	<>	-1	n/a	n/a	n/a	n/a	n/a	n/a	n/a	n/a
541.114	n/a	REC_WORD_VV	270557	wordpools/wasnorm_wordpool_less_exclusions.txt	LTP229	ltpFR	18	1	n/a	<>	-1	n/a	n/a	n/a	n/a	n/a	n/a	n/a	n/a
541.374	n/a	REC_WORD	270687	wordpools/wasnorm_wordpool_less_exclusions.txt	LTP229	ltpFR	18	1	0	HAND	683	n/a	n/a	0	n/a	n/a	n/a	n/a	n/a
558.962	n/a	WORD	279481	wordpools/wasnorm_wordpool_less_exclusions.txt	LTP229	ltpFR	18	2	1	SEAFOOD	1260	n/a	n/a	0	0.422607421875	0.5869140625	0	upper	zerothre.ttf
562.86	n/a	WORD	281430	wordpools/wasnorm_wordpool_less_exclusions.txt	LTP229	ltpFR	18	2	1	SAILOR	1223	n/a	n/a	0	0.422607421875	0.5869140625	0	upper	zerothre.ttf
566.844	n/a	WORD	283422	wordpools/wasnorm_wordpool_less_exclusions.txt	LTP229	ltpFR	18	2	1	NAVIGATOR	938	n/a	n/a	1	0.422607421875	0.5869140625	0	upper	zerothre.ttf
570.992	n/a	WORD	285496	wordpools/wasnorm_wordpool_less_exclusions.txt	LTP229	ltpFR	18	2	1	TAG	1429	n/a	n/a	0	0.422607421875	0.5869140625	0	upper	zerothre.ttf
575.174	n/a	WORD	287587	wordpools/wasnorm_wordpool_less_exclusions.txt	LTP229	ltpFR	18	2	1	CHEERLEADER	288	n/a	n/a	1	0.422607421875	0.5869140625	0	upper	zerothre.ttf
579.324	n/a	WORD	289662	wordpools/wasnorm_wordpool_less_exclusions.txt	LTP229	ltpFR	18	2	0	COW	393	n/a	n/a	1	0.57763671875	0.412841796875	1	lower	amplitud.ttf
583.424	n/a	WORD	291712	wordpools/wasnorm_wordpool_less_exclusions.txt	LTP229	ltpFR	18	2	0	SCOUT	1252	n/a	n/a	1	0.57763671875	0.412841796875	1	lower	amplitud.ttf
587.372	n/a	WORD	293686	wordpools/wasnorm_wordpool_less_exclusions.txt	LTP229	ltpFR	18	2	0	CAFETERIA	217	n/a	n/a	1	0.57763671875	0.412841796875	1	lower	amplitud.ttf
591.288	n/a	WORD	295644	wordpools/wasnorm_wordpool_less_exclusions.txt	LTP229	ltpFR	18	2	0	BISCUIT	130	n/a	n/a	0	0.57763671875	0.412841796875	1	lower	amplitud.ttf
595.386	n/a	WORD	297693	wordpools/wasnorm_wordpool_less_exclusions.txt	LTP229	ltpFR	18	2	0	CRAB	397	n/a	n/a	1	0.57763671875	0.412841796875	1	lower	amplitud.ttf
599.352	n/a	WORD	299676	wordpools/wasnorm_wordpool_less_exclusions.txt	LTP229	ltpFR	18	2	1	KITCHEN	778	n/a	n/a	0	0.422607421875	0.5869140625	0	upper	zerothre.ttf
603.5	n/a	WORD	301750	wordpools/wasnorm_wordpool_less_exclusions.txt	LTP229	ltpFR	18	2	1	COOKBOOK	373	n/a	n/a	0	0.422607421875	0.5869140625	0	upper	zerothre.ttf
607.63	n/a	WORD	303815	wordpools/wasnorm_wordpool_less_exclusions.txt	LTP229	ltpFR	18	2	1	SLIDE	1326	n/a	n/a	0	0.422607421875	0.5869140625	0	upper	zerothre.ttf
611.582	n/a	WORD	305791	wordpools/wasnorm_wordpool_less_exclusions.txt	LTP229	ltpFR	18	2	0	CLOTHES	327	n/a	n/a	0	0.57763671875	0.412841796875	1	lower	amplitud.ttf
615.714	n/a	WORD	307857	wordpools/wasnorm_wordpool_less_exclusions.txt	LTP229	ltpFR	18	2	0	PAD	998	n/a	n/a	0	0.57763671875	0.412841796875	1	lower	amplitud.ttf
619.642	n/a	WORD	309821	wordpools/wasnorm_wordpool_less_exclusions.txt	LTP229	ltpFR	18	2	0	SWATTER	1418	n/a	n/a	0	0.57763671875	0.412841796875	1	lower	amplitud.ttf
625.654	n/a	REC_START	312827	n/a	LTP229	ltpFR	18	2	n/a	n/a	n/a	n/a	n/a	n/a	n/a	n/a	n/a	n/a	n/a
626.406	n/a	REC_WORD	313203	wordpools/wasnorm_wordpool_less_exclusions.txt	LTP229	ltpFR	18	2	0	SWATTER	1418	n/a	n/a	0	n/a	n/a	n/a	n/a	n/a
628.372	n/a	REC_WORD	314186	wordpools/wasnorm_wordpool_less_exclusions.txt	LTP229	ltpFR	18	2	0	PAD	998	n/a	n/a	0	n/a	n/a	n/a	n/a	n/a
629.984	n/a	REC_WORD	314992	wordpools/wasnorm_wordpool_less_exclusions.txt	LTP229	ltpFR	18	2	0	CLOTHES	327	n/a	n/a	0	n/a	n/a	n/a	n/a	n/a
631.76	n/a	REC_WORD	315880	wordpools/wasnorm_wordpool_less_exclusions.txt	LTP229	ltpFR	18	2	0	BISCUIT	130	n/a	n/a	0	n/a	n/a	n/a	n/a	n/a
634.898	n/a	REC_WORD	317449	wordpools/wasnorm_wordpool_less_exclusions.txt	LTP229	ltpFR	18	2	1	KITCHEN	778	n/a	n/a	0	n/a	n/a	n/a	n/a	n/a
638.204	n/a	REC_WORD	319102	wordpools/wasnorm_wordpool_less_exclusions.txt	LTP229	ltpFR	18	2	1	SEAFOOD	1260	n/a	n/a	0	n/a	n/a	n/a	n/a	n/a
639.732	n/a	REC_WORD	319866	wordpools/wasnorm_wordpool_less_exclusions.txt	LTP229	ltpFR	18	2	1	SAILOR	1223	n/a	n/a	0	n/a	n/a	n/a	n/a	n/a
641.732	n/a	REC_WORD	320866	wordpools/wasnorm_wordpool_less_exclusions.txt	LTP229	ltpFR	18	2	1	CHEERLEADER	288	n/a	n/a	1	n/a	n/a	n/a	n/a	n/a
643.808	n/a	REC_WORD	321904	wordpools/wasnorm_wordpool_less_exclusions.txt	LTP229	ltpFR	18	2	1	TAG	1429	n/a	n/a	0	n/a	n/a	n/a	n/a	n/a
645.844	n/a	REC_WORD	322922	wordpools/wasnorm_wordpool_less_exclusions.txt	LTP229	ltpFR	18	2	0	COW	393	n/a	n/a	1	n/a	n/a	n/a	n/a	n/a
651.9	n/a	REC_WORD	325950	wordpools/wasnorm_wordpool_less_exclusions.txt	LTP229	ltpFR	18	2	0	CAFETERIA	217	n/a	n/a	1	n/a	n/a	n/a	n/a	n/a
657.582	n/a	REC_WORD	328791	wordpools/wasnorm_wordpool_less_exclusions.txt	LTP229	ltpFR	18	2	1	NAVIGATOR	938	n/a	n/a	1	n/a	n/a	n/a	n/a	n/a
660.66	n/a	REC_WORD	330330	wordpools/wasnorm_wordpool_less_exclusions.txt	LTP229	ltpFR	18	2	0	KEYBOARD	774	n/a	n/a	0	n/a	n/a	n/a	n/a	n/a
716.398	n/a	WORD	358199	wordpools/wasnorm_wordpool_less_exclusions.txt	LTP229	ltpFR	18	3	1	SCAPEGOAT	1244	n/a	n/a	1	0.422607421875	0.5869140625	0	upper	zerothre.ttf
720.51	n/a	WORD	360255	wordpools/wasnorm_wordpool_less_exclusions.txt	LTP229	ltpFR	18	3	1	BANQUET	86	n/a	n/a	0	0.422607421875	0.5869140625	0	upper	zerothre.ttf
724.426	n/a	WORD	362213	wordpools/wasnorm_wordpool_less_exclusions.txt	LTP229	ltpFR	18	3	1	CATCHER	258	n/a	n/a	1	0.422607421875	0.5869140625	0	upper	zerothre.ttf
728.26	n/a	WORD	364130	wordpools/wasnorm_wordpool_less_exclusions.txt	LTP229	ltpFR	18	3	1	CELERY	266	n/a	n/a	0	0.422607421875	0.5869140625	0	upper	zerothre.ttf
732.426	n/a	WORD	366213	wordpools/wasnorm_wordpool_less_exclusions.txt	LTP229	ltpFR	18	3	1	MEAL	882	n/a	n/a	0	0.422607421875	0.5869140625	0	upper	zerothre.ttf
736.492	n/a	WORD	368246	wordpools/wasnorm_wordpool_less_exclusions.txt	LTP229	ltpFR	18	3	1	COUCH	386	n/a	n/a	0	0.422607421875	0.5869140625	0	upper	zerothre.ttf
740.658	n/a	WORD	370329	wordpools/wasnorm_wordpool_less_exclusions.txt	LTP229	ltpFR	18	3	1	PRINTER	1126	n/a	n/a	0	0.422607421875	0.5869140625	0	upper	zerothre.ttf
744.654	n/a	WORD	372327	wordpools/wasnorm_wordpool_less_exclusions.txt	LTP229	ltpFR	18	3	1	LUNCH	849	n/a	n/a	0	0.422607421875	0.5869140625	0	upper	zerothre.ttf
748.554	n/a	WORD	374277	wordpools/wasnorm_wordpool_less_exclusions.txt	LTP229	ltpFR	18	3	1	COACH	331	n/a	n/a	0	0.422607421875	0.5869140625	0	upper	zerothre.ttf
752.616	n/a	WORD	376308	wordpools/wasnorm_wordpool_less_exclusions.txt	LTP229	ltpFR	18	3	1	DONOR	485	n/a	n/a	0	0.422607421875	0.5869140625	0	upper	zerothre.ttf
756.736	n/a	WORD	378368	wordpools/wasnorm_wordpool_less_exclusions.txt	LTP229	ltpFR	18	3	1	VEIN	1554	n/a	n/a	0	0.422607421875	0.5869140625	0	upper	zerothre.ttf
760.618	n/a	WORD	380309	wordpools/wasnorm_wordpool_less_exclusions.txt	LTP229	ltpFR	18	3	1	PLUM	1090	n/a	n/a	0	0.422607421875	0.5869140625	0	upper	zerothre.ttf
764.832	n/a	WORD	382416	wordpools/wasnorm_wordpool_less_exclusions.txt	LTP229	ltpFR	18	3	1	BROCCOLI	176	n/a	n/a	0	0.422607421875	0.5869140625	0	upper	zerothre.ttf
768.732	n/a	WORD	384366	wordpools/wasnorm_wordpool_less_exclusions.txt	LTP229	ltpFR	18	3	1	RAISIN	1163	n/a	n/a	0	0.422607421875	0.5869140625	0	upper	zerothre.ttf
772.876	n/a	WORD	386438	wordpools/wasnorm_wordpool_less_exclusions.txt	LTP229	ltpFR	18	3	1	PANTHER	1009	n/a	n/a	1	0.422607421875	0.5869140625	0	upper	zerothre.ttf
776.828	n/a	WORD	388414	wordpools/wasnorm_wordpool_less_exclusions.txt	LTP229	ltpFR	18	3	1	LION	827	n/a	n/a	1	0.422607421875	0.5869140625	0	upper	zerothre.ttf
782.57	n/a	REC_START	391285	n/a	LTP229	ltpFR	18	3	n/a	n/a	n/a	n/a	n/a	n/a	n/a	n/a	n/a	n/a	n/a
783.752	n/a	REC_WORD	391876	wordpools/wasnorm_wordpool_less_exclusions.txt	LTP229	ltpFR	18	3	1	BROCCOLI	176	n/a	n/a	0	n/a	n/a	n/a	n/a	n/a
785.348	n/a	REC_WORD	392674	wordpools/wasnorm_wordpool_less_exclusions.txt	LTP229	ltpFR	18	3	1	PLUM	1090	n/a	n/a	0	n/a	n/a	n/a	n/a	n/a
786.994	n/a	REC_WORD	393497	wordpools/wasnorm_wordpool_less_exclusions.txt	LTP229	ltpFR	18	3	1	RAISIN	1163	n/a	n/a	0	n/a	n/a	n/a	n/a	n/a
788.756	n/a	REC_WORD	394378	wordpools/wasnorm_wordpool_less_exclusions.txt	LTP229	ltpFR	18	3	1	PANTHER	1009	n/a	n/a	1	n/a	n/a	n/a	n/a	n/a
790.332	n/a	REC_WORD	395166	wordpools/wasnorm_wordpool_less_exclusions.txt	LTP229	ltpFR	18	3	1	LION	827	n/a	n/a	1	n/a	n/a	n/a	n/a	n/a
791.962	n/a	REC_WORD	395981	wordpools/wasnorm_wordpool_less_exclusions.txt	LTP229	ltpFR	18	3	1	SCAPEGOAT	1244	n/a	n/a	1	n/a	n/a	n/a	n/a	n/a
793.724	n/a	REC_WORD	396862	wordpools/wasnorm_wordpool_less_exclusions.txt	LTP229	ltpFR	18	3	1	BANQUET	86	n/a	n/a	0	n/a	n/a	n/a	n/a	n/a
795.6	n/a	REC_WORD	397800	wordpools/wasnorm_wordpool_less_exclusions.txt	LTP229	ltpFR	18	3	1	CELERY	266	n/a	n/a	0	n/a	n/a	n/a	n/a	n/a
797.256	n/a	REC_WORD	398628	wordpools/wasnorm_wordpool_less_exclusions.txt	LTP229	ltpFR	18	3	1	COACH	331	n/a	n/a	0	n/a	n/a	n/a	n/a	n/a
799.288	n/a	REC_WORD	399644	wordpools/wasnorm_wordpool_less_exclusions.txt	LTP229	ltpFR	18	3	1	CATCHER	258	n/a	n/a	1	n/a	n/a	n/a	n/a	n/a
803.094	n/a	REC_WORD	401547	wordpools/wasnorm_wordpool_less_exclusions.txt	LTP229	ltpFR	18	3	1	LUNCH	849	n/a	n/a	0	n/a	n/a	n/a	n/a	n/a
804.566	n/a	REC_WORD	402283	wordpools/wasnorm_wordpool_less_exclusions.txt	LTP229	ltpFR	18	3	1	MEAL	882	n/a	n/a	0	n/a	n/a	n/a	n/a	n/a
807.204	n/a	REC_WORD	403602	wordpools/wasnorm_wordpool_less_exclusions.txt	LTP229	ltpFR	18	3	1	PRINTER	1126	n/a	n/a	0	n/a	n/a	n/a	n/a	n/a
809.394	n/a	REC_WORD	404697	wordpools/wasnorm_wordpool_less_exclusions.txt	LTP229	ltpFR	18	3	1	DONOR	485	n/a	n/a	0	n/a	n/a	n/a	n/a	n/a
811.364	n/a	REC_WORD	405682	wordpools/wasnorm_wordpool_less_exclusions.txt	LTP229	ltpFR	18	3	1	VEIN	1554	n/a	n/a	0	n/a	n/a	n/a	n/a	n/a
829.728	n/a	REC_WORD	414864	wordpools/wasnorm_wordpool_less_exclusions.txt	LTP229	ltpFR	18	3	1	PLUM	1090	n/a	n/a	0	n/a	n/a	n/a	n/a	n/a
874.0	n/a	WORD	437000	wordpools/wasnorm_wordpool_less_exclusions.txt	LTP229	ltpFR	18	4	1	BANJO	82	n/a	n/a	0	0.422607421875	0.5869140625	0	upper	zerothre.ttf
877.848	n/a	WORD	438924	wordpools/wasnorm_wordpool_less_exclusions.txt	LTP229	ltpFR	18	4	1	DRAGON	492	n/a	n/a	0	0.422607421875	0.5869140625	0	upper	zerothre.ttf
881.68	n/a	WORD	440840	wordpools/wasnorm_wordpool_less_exclusions.txt	LTP229	ltpFR	18	4	1	FUGITIVE	612	n/a	n/a	1	0.422607421875	0.5869140625	0	upper	zerothre.ttf
885.896	n/a	WORD	442948	wordpools/wasnorm_wordpool_less_exclusions.txt	LTP229	ltpFR	18	4	1	MAILBOX	857	n/a	n/a	0	0.422607421875	0.5869140625	0	upper	zerothre.ttf
890.044	n/a	WORD	445022	wordpools/wasnorm_wordpool_less_exclusions.txt	LTP229	ltpFR	18	4	0	FIDDLE	561	n/a	n/a	0	0.57763671875	0.412841796875	1	lower	amplitud.ttf
894.244	n/a	WORD	447122	wordpools/wasnorm_wordpool_less_exclusions.txt	LTP229	ltpFR	18	4	0	TERMITE	1451	n/a	n/a	0	0.57763671875	0.412841796875	1	lower	amplitud.ttf
898.328	n/a	WORD	449164	wordpools/wasnorm_wordpool_less_exclusions.txt	LTP229	ltpFR	18	4	0	MOSQUITO	917	n/a	n/a	0	0.57763671875	0.412841796875	1	lower	amplitud.ttf
902.158	n/a	WORD	451079	wordpools/wasnorm_wordpool_less_exclusions.txt	LTP229	ltpFR	18	4	0	CHAIRPERSON	275	n/a	n/a	1	0.57763671875	0.412841796875	1	lower	amplitud.ttf
906.24	n/a	WORD	453120	wordpools/wasnorm_wordpool_less_exclusions.txt	LTP229	ltpFR	18	4	1	HIKER	708	n/a	n/a	1	0.422607421875	0.5869140625	0	upper	zerothre.ttf
910.29	n/a	WORD	455145	wordpools/wasnorm_wordpool_less_exclusions.txt	LTP229	ltpFR	18	4	1	ELECTRON	522	n/a	n/a	0	0.422607421875	0.5869140625	0	upper	zerothre.ttf
914.272	n/a	WORD	457136	wordpools/wasnorm_wordpool_less_exclusions.txt	LTP229	ltpFR	18	4	1	GUM	672	n/a	n/a	0	0.422607421875	0.5869140625	0	upper	zerothre.ttf
918.168	n/a	WORD	459084	wordpools/wasnorm_wordpool_less_exclusions.txt	LTP229	ltpFR	18	4	1	MESSAGE	888	n/a	n/a	0	0.422607421875	0.5869140625	0	upper	zerothre.ttf
922.084	n/a	WORD	461042	wordpools/wasnorm_wordpool_less_exclusions.txt	LTP229	ltpFR	18	4	0	PREACHER	1119	n/a	n/a	1	0.57763671875	0.412841796875	1	lower	amplitud.ttf
926.184	n/a	WORD	463092	wordpools/wasnorm_wordpool_less_exclusions.txt	LTP229	ltpFR	18	4	0	RESTAURANT	1187	n/a	n/a	1	0.57763671875	0.412841796875	1	lower	amplitud.ttf
930.334	n/a	WORD	465167	wordpools/wasnorm_wordpool_less_exclusions.txt	LTP229	ltpFR	18	4	0	PUBLICATION	1136	n/a	n/a	0	0.57763671875	0.412841796875	1	lower	amplitud.ttf
934.382	n/a	WORD	467191	wordpools/wasnorm_wordpool_less_exclusions.txt	LTP229	ltpFR	18	4	0	BINDER	127	n/a	n/a	0	0.57763671875	0.412841796875	1	lower	amplitud.ttf
940.322	n/a	REC_START	470161	n/a	LTP229	ltpFR	18	4	n/a	n/a	n/a	n/a	n/a	n/a	n/a	n/a	n/a	n/a	n/a
941.892	n/a	REC_WORD	470946	wordpools/wasnorm_wordpool_less_exclusions.txt	LTP229	ltpFR	18	4	0	RESTAURANT	1187	n/a	n/a	1	n/a	n/a	n/a	n/a	n/a
943.874	n/a	REC_WORD	471937	wordpools/wasnorm_wordpool_less_exclusions.txt	LTP229	ltpFR	18	4	0	PUBLICATION	1136	n/a	n/a	0	n/a	n/a	n/a	n/a	n/a
946.094	n/a	REC_WORD	473047	wordpools/wasnorm_wordpool_less_exclusions.txt	LTP229	ltpFR	18	4	0	BINDER	127	n/a	n/a	0	n/a	n/a	n/a	n/a	n/a
957.01	n/a	REC_WORD	478505	wordpools/wasnorm_wordpool_less_exclusions.txt	LTP229	ltpFR	18	4	1	FUGITIVE	612	n/a	n/a	1	n/a	n/a	n/a	n/a	n/a
958.376	n/a	REC_WORD	479188	wordpools/wasnorm_wordpool_less_exclusions.txt	LTP229	ltpFR	18	4	1	MAILBOX	857	n/a	n/a	0	n/a	n/a	n/a	n/a	n/a
965.272	n/a	REC_WORD	482636	wordpools/wasnorm_wordpool_less_exclusions.txt	LTP229	ltpFR	18	4	1	HIKER	708	n/a	n/a	1	n/a	n/a	n/a	n/a	n/a
972.38	n/a	REC_WORD	486190	wordpools/wasnorm_wordpool_less_exclusions.txt	LTP229	ltpFR	18	4	0	FIDDLE	561	n/a	n/a	0	n/a	n/a	n/a	n/a	n/a
974.756	n/a	REC_WORD	487378	wordpools/wasnorm_wordpool_less_exclusions.txt	LTP229	ltpFR	18	4	0	TERMITE	1451	n/a	n/a	0	n/a	n/a	n/a	n/a	n/a
977.04	n/a	REC_WORD	488520	wordpools/wasnorm_wordpool_less_exclusions.txt	LTP229	ltpFR	18	4	0	MOSQUITO	917	n/a	n/a	0	n/a	n/a	n/a	n/a	n/a
1028.592	n/a	WORD	514296	wordpools/wasnorm_wordpool_less_exclusions.txt	LTP229	ltpFR	18	5	-1	WHEEL	1603	n/a	n/a	-1	1.0	1.0	1	upper	Verdana.ttf
1032.506	n/a	WORD	516253	wordpools/wasnorm_wordpool_less_exclusions.txt	LTP229	ltpFR	18	5	-1	VALVE	1546	n/a	n/a	-1	1.0	1.0	1	upper	Verdana.ttf
1036.722	n/a	WORD	518361	wordpools/wasnorm_wordpool_less_exclusions.txt	LTP229	ltpFR	18	5	-1	COMB	351	n/a	n/a	-1	1.0	1.0	1	upper	Verdana.ttf
1040.788	n/a	WORD	520394	wordpools/wasnorm_wordpool_less_exclusions.txt	LTP229	ltpFR	18	5	-1	WAREHOUSE	1588	n/a	n/a	-1	1.0	1.0	1	upper	Verdana.ttf
1044.716	n/a	WORD	522358	wordpools/wasnorm_wordpool_less_exclusions.txt	LTP229	ltpFR	18	5	-1	DISHWASHER	475	n/a	n/a	-1	1.0	1.0	1	upper	Verdana.ttf
1048.564	n/a	WORD	524282	wordpools/wasnorm_wordpool_less_exclusions.txt	LTP229	ltpFR	18	5	-1	DIVER	476	n/a	n/a	-1	1.0	1.0	1	upper	Verdana.ttf
1052.764	n/a	WORD	526382	wordpools/wasnorm_wordpool_less_exclusions.txt	LTP229	ltpFR	18	5	-1	BUN	197	n/a	n/a	-1	1.0	1.0	1	upper	Verdana.ttf
1056.832	n/a	WORD	528416	wordpools/wasnorm_wordpool_less_exclusions.txt	LTP229	ltpFR	18	5	-1	BANDIT	81	n/a	n/a	-1	1.0	1.0	1	upper	Verdana.ttf
1060.828	n/a	WORD	530414	wordpools/wasnorm_wordpool_less_exclusions.txt	LTP229	ltpFR	18	5	-1	STOVE	1388	n/a	n/a	-1	1.0	1.0	1	upper	Verdana.ttf
1064.964	n/a	WORD	532482	wordpools/wasnorm_wordpool_less_exclusions.txt	LTP229	ltpFR	18	5	-1	SERVER	1272	n/a	n/a	-1	1.0	1.0	1	upper	Verdana.ttf
1069.092	n/a	WORD	534546	wordpools/wasnorm_wordpool_less_exclusions.txt	LTP229	ltpFR	18	5	-1	PILLOW	1069	n/a	n/a	-1	1.0	1.0	1	upper	Verdana.ttf
1073.19	n/a	WORD	536595	wordpools/wasnorm_wordpool_less_exclusions.txt	LTP229	ltpFR	18	5	-1	HEATER	698	n/a	n/a	-1	1.0	1.0	1	upper	Verdana.ttf
1077.19	n/a	WORD	538595	wordpools/wasnorm_wordpool_less_exclusions.txt	LTP229	ltpFR	18	5	-1	BEAN	105	n/a	n/a	-1	1.0	1.0	1	upper	Verdana.ttf
1081.344	n/a	WORD	540672	wordpools/wasnorm_wordpool_less_exclusions.txt	LTP229	ltpFR	18	5	-1	OUTLAW	989	n/a	n/a	-1	1.0	1.0	1	upper	Verdana.ttf
1085.506	n/a	WORD	542753	wordpools/wasnorm_wordpool_less_exclusions.txt	LTP229	ltpFR	18	5	-1	MARKET	871	n/a	n/a	-1	1.0	1.0	1	upper	Verdana.ttf
1089.638	n/a	WORD	544819	wordpools/wasnorm_wordpool_less_exclusions.txt	LTP229	ltpFR	18	5	-1	RECIPE	1175	n/a	n/a	-1	1.0	1.0	1	upper	Verdana.ttf
1095.448	n/a	REC_START	547724	n/a	LTP229	ltpFR	18	5	n/a	n/a	n/a	n/a	n/a	n/a	n/a	n/a	n/a	n/a	n/a
1096.426	n/a	REC_WORD	548213	wordpools/wasnorm_wordpool_less_exclusions.txt	LTP229	ltpFR	18	5	-1	SERVER	1272	n/a	n/a	-1	n/a	n/a	n/a	n/a	n/a
1097.958	n/a	REC_WORD	548979	wordpools/wasnorm_wordpool_less_exclusions.txt	LTP229	ltpFR	18	5	-1	PILLOW	1069	n/a	n/a	-1	n/a	n/a	n/a	n/a	n/a
1100.592	n/a	REC_WORD	550296	wordpools/wasnorm_wordpool_less_exclusions.txt	LTP229	ltpFR	18	5	-1	SERVER	1272	n/a	n/a	-1	n/a	n/a	n/a	n/a	n/a
1102.956	n/a	REC_WORD	551478	wordpools/wasnorm_wordpool_less_exclusions.txt	LTP229	ltpFR	18	5	-1	BEAN	105	n/a	n/a	-1	n/a	n/a	n/a	n/a	n/a
1104.482	n/a	REC_WORD	552241	wordpools/wasnorm_wordpool_less_exclusions.txt	LTP229	ltpFR	18	5	-1	HEATER	698	n/a	n/a	-1	n/a	n/a	n/a	n/a	n/a
1106.582	n/a	REC_WORD	553291	wordpools/wasnorm_wordpool_less_exclusions.txt	LTP229	ltpFR	18	5	-1	RECIPE	1175	n/a	n/a	-1	n/a	n/a	n/a	n/a	n/a
1109.108	n/a	REC_WORD	554554	wordpools/wasnorm_wordpool_less_exclusions.txt	LTP229	ltpFR	18	5	-1	WHEEL	1603	n/a	n/a	-1	n/a	n/a	n/a	n/a	n/a
1110.884	n/a	REC_WORD	555442	wordpools/wasnorm_wordpool_less_exclusions.txt	LTP229	ltpFR	18	5	-1	VALVE	1546	n/a	n/a	-1	n/a	n/a	n/a	n/a	n/a
1112.928	n/a	REC_WORD	556464	wordpools/wasnorm_wordpool_less_exclusions.txt	LTP229	ltpFR	18	5	-1	COMB	351	n/a	n/a	-1	n/a	n/a	n/a	n/a	n/a
1115.224	n/a	REC_WORD	557612	wordpools/wasnorm_wordpool_less_exclusions.txt	LTP229	ltpFR	18	5	-1	WAREHOUSE	1588	n/a	n/a	-1	n/a	n/a	n/a	n/a	n/a
1118.786	n/a	REC_WORD	559393	wordpools/wasnorm_wordpool_less_exclusions.txt	LTP229	ltpFR	18	5	-1	DIVER	476	n/a	n/a	-1	n/a	n/a	n/a	n/a	n/a
1123.734	n/a	REC_WORD	561867	wordpools/wasnorm_wordpool_less_exclusions.txt	LTP229	ltpFR	18	5	-1	BANDIT	81	n/a	n/a	-1	n/a	n/a	n/a	n/a	n/a
1126.314	n/a	REC_WORD	563157	wordpools/wasnorm_wordpool_less_exclusions.txt	LTP229	ltpFR	18	5	-1	BUN	197	n/a	n/a	-1	n/a	n/a	n/a	n/a	n/a
1129.092	n/a	REC_WORD	564546	wordpools/wasnorm_wordpool_less_exclusions.txt	LTP229	ltpFR	18	5	-1	DISHWASHER	475	n/a	n/a	-1	n/a	n/a	n/a	n/a	n/a
1192.212	n/a	WORD	596106	wordpools/wasnorm_wordpool_less_exclusions.txt	LTP229	ltpFR	18	6	0	DAM	436	n/a	n/a	1	0.57763671875	0.412841796875	1	lower	amplitud.ttf
1196.164	n/a	WORD	598082	wordpools/wasnorm_wordpool_less_exclusions.txt	LTP229	ltpFR	18	6	0	SPRINKLE	1359	n/a	n/a	0	0.57763671875	0.412841796875	1	lower	amplitud.ttf
1200.03	n/a	WORD	600015	wordpools/wasnorm_wordpool_less_exclusions.txt	LTP229	ltpFR	18	6	0	NOTE	958	n/a	n/a	0	0.57763671875	0.412841796875	1	lower	amplitud.ttf
1204.212	n/a	WORD	602106	wordpools/wasnorm_wordpool_less_exclusions.txt	LTP229	ltpFR	18	6	0	CHIMPANZEE	302	n/a	n/a	1	0.57763671875	0.412841796875	1	lower	amplitud.ttf
1208.38	n/a	WORD	604190	wordpools/wasnorm_wordpool_less_exclusions.txt	LTP229	ltpFR	18	6	1	APE	31	n/a	n/a	1	0.422607421875	0.5869140625	0	upper	zerothre.ttf
1212.478	n/a	WORD	606239	wordpools/wasnorm_wordpool_less_exclusions.txt	LTP229	ltpFR	18	6	1	BASSINET	97	n/a	n/a	0	0.422607421875	0.5869140625	0	upper	zerothre.ttf
1216.49	n/a	WORD	608245	wordpools/wasnorm_wordpool_less_exclusions.txt	LTP229	ltpFR	18	6	1	VINEGAR	1569	n/a	n/a	0	0.422607421875	0.5869140625	0	upper	zerothre.ttf
1220.672	n/a	WORD	610336	wordpools/wasnorm_wordpool_less_exclusions.txt	LTP229	ltpFR	18	6	1	AIRPORT	13	n/a	n/a	0	0.422607421875	0.5869140625	0	upper	zerothre.ttf
1224.738	n/a	WORD	612369	wordpools/wasnorm_wordpool_less_exclusions.txt	LTP229	ltpFR	18	6	1	DRUM	502	n/a	n/a	0	0.422607421875	0.5869140625	0	upper	zerothre.ttf
1228.706	n/a	WORD	614353	wordpools/wasnorm_wordpool_less_exclusions.txt	LTP229	ltpFR	18	6	0	SHEEP	1278	n/a	n/a	1	0.57763671875	0.412841796875	1	lower	amplitud.ttf
1232.634	n/a	WORD	616317	wordpools/wasnorm_wordpool_less_exclusions.txt	LTP229	ltpFR	18	6	0	CONTAINER	366	n/a	n/a	0	0.57763671875	0.412841796875	1	lower	amplitud.ttf
1236.67	n/a	WORD	618335	wordpools/wasnorm_wordpool_less_exclusions.txt	LTP229	ltpFR	18	6	0	COOK	372	n/a	n/a	0	0.57763671875	0.412841796875	1	lower	amplitud.ttf
1240.752	n/a	WORD	620376	wordpools/wasnorm_wordpool_less_exclusions.txt	LTP229	ltpFR	18	6	0	SPHINX	1349	n/a	n/a	0	0.57763671875	0.412841796875	1	lower	amplitud.ttf
1244.812	n/a	WORD	622406	wordpools/wasnorm_wordpool_less_exclusions.txt	LTP229	ltpFR	18	6	1	PILOT	1070	n/a	n/a	0	0.422607421875	0.5869140625	0	upper	zerothre.ttf
1248.65	n/a	WORD	624325	wordpools/wasnorm_wordpool_less_exclusions.txt	LTP229	ltpFR	18	6	1	HERD	705	n/a	n/a	0	0.422607421875	0.5869140625	0	upper	zerothre.ttf
1252.832	n/a	WORD	626416	wordpools/wasnorm_wordpool_less_exclusions.txt	LTP229	ltpFR	18	6	1	SPIT	1354	n/a	n/a	0	0.422607421875	0.5869140625	0	upper	zerothre.ttf
1258.918	n/a	REC_START	629459	n/a	LTP229	ltpFR	18	6	n/a	n/a	n/a	n/a	n/a	n/a	n/a	n/a	n/a	n/a	n/a
1260.624	n/a	REC_WORD	630312	wordpools/wasnorm_wordpool_less_exclusions.txt	LTP229	ltpFR	18	6	1	HERD	705	n/a	n/a	0	n/a	n/a	n/a	n/a	n/a
1262.54	n/a	REC_WORD	631270	wordpools/wasnorm_wordpool_less_exclusions.txt	LTP229	ltpFR	18	6	1	PILOT	1070	n/a	n/a	0	n/a	n/a	n/a	n/a	n/a
1264.544	n/a	REC_WORD	632272	wordpools/wasnorm_wordpool_less_exclusions.txt	LTP229	ltpFR	18	6	1	SPIT	1354	n/a	n/a	0	n/a	n/a	n/a	n/a	n/a
1271.404	n/a	REC_WORD	635702	wordpools/wasnorm_wordpool_less_exclusions.txt	LTP229	ltpFR	18	6	1	BASSINET	97	n/a	n/a	0	n/a	n/a	n/a	n/a	n/a
1274.198	n/a	REC_WORD	637099	wordpools/wasnorm_wordpool_less_exclusions.txt	LTP229	ltpFR	18	6	0	COOK	372	n/a	n/a	0	n/a	n/a	n/a	n/a	n/a
1278.27	n/a	REC_WORD	639135	wordpools/wasnorm_wordpool_less_exclusions.txt	LTP229	ltpFR	18	6	0	CONTAINER	366	n/a	n/a	0	n/a	n/a	n/a	n/a	n/a
1280.51	n/a	REC_WORD	640255	wordpools/wasnorm_wordpool_less_exclusions.txt	LTP229	ltpFR	18	6	1	APE	31	n/a	n/a	1	n/a	n/a	n/a	n/a	n/a
1282.584	n/a	REC_WORD	641292	wordpools/wasnorm_wordpool_less_exclusions.txt	LTP229	ltpFR	18	6	0	CHIMPANZEE	302	n/a	n/a	1	n/a	n/a	n/a	n/a	n/a
1289.856	n/a	REC_WORD_VV	644928	wordpools/wasnorm_wordpool_less_exclusions.txt	LTP229	ltpFR	18	6	n/a	<>	-1	n/a	n/a	n/a	n/a	n/a	n/a	n/a	n/a
1290.708	n/a	REC_WORD	645354	wordpools/wasnorm_wordpool_less_exclusions.txt	LTP229	ltpFR	18	6	0	DAM	436	n/a	n/a	1	n/a	n/a	n/a	n/a	n/a
1292.512	n/a	REC_WORD	646256	wordpools/wasnorm_wordpool_less_exclusions.txt	LTP229	ltpFR	18	6	0	SPRINKLE	1359	n/a	n/a	0	n/a	n/a	n/a	n/a	n/a
1294.534	n/a	REC_WORD	647267	wordpools/wasnorm_wordpool_less_exclusions.txt	LTP229	ltpFR	18	6	0	NOTE	958	n/a	n/a	0	n/a	n/a	n/a	n/a	n/a
1299.846	n/a	REC_WORD	649923	wordpools/wasnorm_wordpool_less_exclusions.txt	LTP229	ltpFR	18	6	1	BASSINET	97	n/a	n/a	0	n/a	n/a	n/a	n/a	n/a
1306.054	n/a	REC_WORD	653027	wordpools/wasnorm_wordpool_less_exclusions.txt	LTP229	ltpFR	18	6	1	AIRPORT	13	n/a	n/a	0	n/a	n/a	n/a	n/a	n/a
1309.5	n/a	REC_WORD	654750	wordpools/wasnorm_wordpool_less_exclusions.txt	LTP229	ltpFR	18	6	-1	VALVE	1546	n/a	n/a	-1	n/a	n/a	n/a	n/a	n/a
1313.158	n/a	REC_WORD	656579	wordpools/wasnorm_wordpool_less_exclusions.txt	LTP229	ltpFR	18	6	1	DRUM	502	n/a	n/a	0	n/a	n/a	n/a	n/a	n/a
1345.554	n/a	WORD	672777	wordpools/wasnorm_wordpool_less_exclusions.txt	LTP229	ltpFR	18	7	0	GARLIC	624	n/a	n/a	0	0.57763671875	0.412841796875	1	lower	amplitud.ttf
1349.736	n/a	WORD	674868	wordpools/wasnorm_wordpool_less_exclusions.txt	LTP229	ltpFR	18	7	0	SOFTBALL	1343	n/a	n/a	1	0.57763671875	0.412841796875	1	lower	amplitud.ttf
1353.784	n/a	WORD	676892	wordpools/wasnorm_wordpool_less_exclusions.txt	LTP229	ltpFR	18	7	1	RECEIPT	1173	n/a	n/a	0	0.422607421875	0.5869140625	0	upper	zerothre.ttf
1357.898	n/a	WORD	678949	wordpools/wasnorm_wordpool_less_exclusions.txt	LTP229	ltpFR	18	7	1	CABIN	211	n/a	n/a	0	0.422607421875	0.5869140625	0	upper	zerothre.ttf
1361.948	n/a	WORD	680974	wordpools/wasnorm_wordpool_less_exclusions.txt	LTP229	ltpFR	18	7	1	GRIZZLY	662	n/a	n/a	0	0.422607421875	0.5869140625	0	upper	zerothre.ttf
1366.13	n/a	WORD	683065	wordpools/wasnorm_wordpool_less_exclusions.txt	LTP229	ltpFR	18	7	0	TECHNICIAN	1443	n/a	n/a	1	0.57763671875	0.412841796875	1	lower	amplitud.ttf
1370.046	n/a	WORD	685023	wordpools/wasnorm_wordpool_less_exclusions.txt	LTP229	ltpFR	18	7	0	ZEBRA	1635	n/a	n/a	1	0.57763671875	0.412841796875	1	lower	amplitud.ttf
1374.094	n/a	WORD	687047	wordpools/wasnorm_wordpool_less_exclusions.txt	LTP229	ltpFR	18	7	0	CLAW	319	n/a	n/a	0	0.57763671875	0.412841796875	1	lower	amplitud.ttf
1378.056	n/a	WORD	689028	wordpools/wasnorm_wordpool_less_exclusions.txt	LTP229	ltpFR	18	7	0	EYELASH	546	n/a	n/a	0	0.57763671875	0.412841796875	1	lower	amplitud.ttf
1381.924	n/a	WORD	690962	wordpools/wasnorm_wordpool_less_exclusions.txt	LTP229	ltpFR	18	7	1	FRECKLE	602	n/a	n/a	0	0.422607421875	0.5869140625	0	upper	zerothre.ttf
1386.124	n/a	WORD	693062	wordpools/wasnorm_wordpool_less_exclusions.txt	LTP229	ltpFR	18	7	1	MASCARA	875	n/a	n/a	0	0.422607421875	0.5869140625	0	upper	zerothre.ttf
1390.222	n/a	WORD	695111	wordpools/wasnorm_wordpool_less_exclusions.txt	LTP229	ltpFR	18	7	1	ROBIN	1199	n/a	n/a	1	0.422607421875	0.5869140625	0	upper	zerothre.ttf
1394.356	n/a	WORD	697178	wordpools/wasnorm_wordpool_less_exclusions.txt	LTP229	ltpFR	18	7	1	QUAIL	1147	n/a	n/a	0	0.422607421875	0.5869140625	0	upper	zerothre.ttf
1398.306	n/a	WORD	699153	wordpools/wasnorm_wordpool_less_exclusions.txt	LTP229	ltpFR	18	7	1	CYLINDER	432	n/a	n/a	0	0.422607421875	0.5869140625	0	upper	zerothre.ttf
1402.45	n/a	WORD	701225	wordpools/wasnorm_wordpool_less_exclusions.txt	LTP229	ltpFR	18	7	0	RADIATOR	1156	n/a	n/a	0	0.57763671875	0.412841796875	1	lower	amplitud.ttf
1406.352	n/a	WORD	703176	wordpools/wasnorm_wordpool_less_exclusions.txt	LTP229	ltpFR	18	7	0	SADDLE	1221	n/a	n/a	0	0.57763671875	0.412841796875	1	lower	amplitud.ttf
1412.422	n/a	REC_START	706211	n/a	LTP229	ltpFR	18	7	n/a	n/a	n/a	n/a	n/a	n/a	n/a	n/a	n/a	n/a	n/a
1413.33	n/a	REC_WORD	706665	wordpools/wasnorm_wordpool_less_exclusions.txt	LTP229	ltpFR	18	7	0	RADIATOR	1156	n/a	n/a	0	n/a	n/a	n/a	n/a	n/a
1415.05	n/a	REC_WORD	707525	wordpools/wasnorm_wordpool_less_exclusions.txt	LTP229	ltpFR	18	7	0	SADDLE	1221	n/a	n/a	0	n/a	n/a	n/a	n/a	n/a
1416.932	n/a	REC_WORD	708466	wordpools/wasnorm_wordpool_less_exclusions.txt	LTP229	ltpFR	18	7	1	GRIZZLY	662	n/a	n/a	0	n/a	n/a	n/a	n/a	n/a
1418.694	n/a	REC_WORD	709347	wordpools/wasnorm_wordpool_less_exclusions.txt	LTP229	ltpFR	18	7	0	TECHNICIAN	1443	n/a	n/a	1	n/a	n/a	n/a	n/a	n/a
1420.664	n/a	REC_WORD	710332	wordpools/wasnorm_wordpool_less_exclusions.txt	LTP229	ltpFR	18	7	0	ZEBRA	1635	n/a	n/a	1	n/a	n/a	n/a	n/a	n/a
1423.022	n/a	REC_WORD	711511	wordpools/wasnorm_wordpool_less_exclusions.txt	LTP229	ltpFR	18	7	0	CLAW	319	n/a	n/a	0	n/a	n/a	n/a	n/a	n/a
1424.764	n/a	REC_WORD	712382	wordpools/wasnorm_wordpool_less_exclusions.txt	LTP229	ltpFR	18	7	0	SPHINX	1349	n/a	n/a	0	n/a	n/a	n/a	n/a	n/a
1480.706	n/a	REC_WORD	740353	wordpools/wasnorm_wordpool_less_exclusions.txt	LTP229	ltpFR	18	7	1	RECEIPT	1173	n/a	n/a	0	n/a	n/a	n/a	n/a	n/a
1496.598	n/a	WORD	748299	wordpools/wasnorm_wordpool_less_exclusions.txt	LTP229	ltpFR	18	8	1	DANDRUFF	439	n/a	n/a	0	0.422607421875	0.5869140625	0	upper	zerothre.ttf
1500.78	n/a	WORD	750390	wordpools/wasnorm_wordpool_less_exclusions.txt	LTP229	ltpFR	18	8	1	FELLOW	558	n/a	n/a	0	0.422607421875	0.5869140625	0	upper	zerothre.ttf
1504.61	n/a	WORD	752305	wordpools/wasnorm_wordpool_less_exclusions.txt	LTP229	ltpFR	18	8	1	GALAXY	617	n/a	n/a	0	0.422607421875	0.5869140625	0	upper	zerothre.ttf
1508.606	n/a	WORD	754303	wordpools/wasnorm_wordpool_less_exclusions.txt	LTP229	ltpFR	18	8	0	BUCKET	184	n/a	n/a	0	0.57763671875	0.412841796875	1	lower	amplitud.ttf
1512.492	n/a	WORD	756246	wordpools/wasnorm_wordpool_less_exclusions.txt	LTP229	ltpFR	18	8	0	TUBE	1516	n/a	n/a	0	0.57763671875	0.412841796875	1	lower	amplitud.ttf
1516.47	n/a	WORD	758235	wordpools/wasnorm_wordpool_less_exclusions.txt	LTP229	ltpFR	18	8	0	CORN	381	n/a	n/a	0	0.57763671875	0.412841796875	1	lower	amplitud.ttf
1520.338	n/a	WORD	760169	wordpools/wasnorm_wordpool_less_exclusions.txt	LTP229	ltpFR	18	8	0	MOSS	918	n/a	n/a	0	0.57763671875	0.412841796875	1	lower	amplitud.ttf
1524.184	n/a	WORD	762092	wordpools/wasnorm_wordpool_less_exclusions.txt	LTP229	ltpFR	18	8	0	VISITOR	1573	n/a	n/a	1	0.57763671875	0.412841796875	1	lower	amplitud.ttf
1528.016	n/a	WORD	764008	wordpools/wasnorm_wordpool_less_exclusions.txt	LTP229	ltpFR	18	8	1	DANCER	437	n/a	n/a	1	0.422607421875	0.5869140625	0	upper	zerothre.ttf
1532.094	n/a	WORD	766047	wordpools/wasnorm_wordpool_less_exclusions.txt	LTP229	ltpFR	18	8	1	CAPTAIN	239	n/a	n/a	1	0.422607421875	0.5869140625	0	upper	zerothre.ttf
1536.26	n/a	WORD	768130	wordpools/wasnorm_wordpool_less_exclusions.txt	LTP229	ltpFR	18	8	0	ARMY	39	n/a	n/a	2	0.57763671875	0.412841796875	1	lower	amplitud.ttf
1537.37	n/a	KEY_MSG	768685	n/a	LTP229	ltpFR	18	8	n/a	n/a	n/a	n/a	n/a	n/a	n/a	n/a	n/a	n/a	n/a
1540.414	n/a	WORD	770207	wordpools/wasnorm_wordpool_less_exclusions.txt	LTP229	ltpFR	18	8	0	SHORTS	1293	n/a	n/a	0	0.57763671875	0.412841796875	1	lower	amplitud.ttf
1544.426	n/a	WORD	772213	wordpools/wasnorm_wordpool_less_exclusions.txt	LTP229	ltpFR	18	8	0	BUTTON	207	n/a	n/a	0	0.57763671875	0.412841796875	1	lower	amplitud.ttf
1548.612	n/a	WORD	774306	wordpools/wasnorm_wordpool_less_exclusions.txt	LTP229	ltpFR	18	8	1	TERRITORY	1452	n/a	n/a	0	0.422607421875	0.5869140625	0	upper	zerothre.ttf
1552.574	n/a	WORD	776287	wordpools/wasnorm_wordpool_less_exclusions.txt	LTP229	ltpFR	18	8	1	CHAMBER	277	n/a	n/a	0	0.422607421875	0.5869140625	0	upper	zerothre.ttf
1556.676	n/a	WORD	778338	wordpools/wasnorm_wordpool_less_exclusions.txt	LTP229	ltpFR	18	8	1	BRAN	167	n/a	n/a	0	0.422607421875	0.5869140625	0	upper	zerothre.ttf
1562.466	n/a	REC_START	781233	n/a	LTP229	ltpFR	18	8	n/a	n/a	n/a	n/a	n/a	n/a	n/a	n/a	n/a	n/a	n/a
1563.848	n/a	REC_WORD	781924	wordpools/wasnorm_wordpool_less_exclusions.txt	LTP229	ltpFR	18	8	1	BRAN	167	n/a	n/a	0	n/a	n/a	n/a	n/a	n/a
1565.468	n/a	REC_WORD	782734	wordpools/wasnorm_wordpool_less_exclusions.txt	LTP229	ltpFR	18	8	0	DAUGHTER	442	n/a	n/a	1	n/a	n/a	n/a	n/a	n/a
1566.97	n/a	REC_WORD	783485	wordpools/wasnorm_wordpool_less_exclusions.txt	LTP229	ltpFR	18	8	1	CAPTAIN	239	n/a	n/a	1	n/a	n/a	n/a	n/a	n/a
1568.792	n/a	REC_WORD	784396	wordpools/wasnorm_wordpool_less_exclusions.txt	LTP229	ltpFR	18	8	0	ARMY	39	n/a	n/a	2	n/a	n/a	n/a	n/a	n/a
1570.338	n/a	REC_WORD	785169	wordpools/wasnorm_wordpool_less_exclusions.txt	LTP229	ltpFR	18	8	0	SHORTS	1293	n/a	n/a	0	n/a	n/a	n/a	n/a	n/a
1572.454	n/a	REC_WORD	786227	wordpools/wasnorm_wordpool_less_exclusions.txt	LTP229	ltpFR	18	8	1	TERRITORY	1452	n/a	n/a	0	n/a	n/a	n/a	n/a	n/a
1574.544	n/a	REC_WORD	787272	wordpools/wasnorm_wordpool_less_exclusions.txt	LTP229	ltpFR	18	8	1	ROBIN	1199	n/a	n/a	1	n/a	n/a	n/a	n/a	n/a
1576.778	n/a	REC_WORD	788389	wordpools/wasnorm_wordpool_less_exclusions.txt	LTP229	ltpFR	18	8	1	GALAXY	617	n/a	n/a	0	n/a	n/a	n/a	n/a	n/a
1578.714	n/a	REC_WORD	789357	wordpools/wasnorm_wordpool_less_exclusions.txt	LTP229	ltpFR	18	8	0	MOSS	918	n/a	n/a	0	n/a	n/a	n/a	n/a	n/a
1580.894	n/a	REC_WORD	790447	wordpools/wasnorm_wordpool_less_exclusions.txt	LTP229	ltpFR	18	8	0	CORN	381	n/a	n/a	0	n/a	n/a	n/a	n/a	n/a
1583.284	n/a	REC_WORD	791642	wordpools/wasnorm_wordpool_less_exclusions.txt	LTP229	ltpFR	18	8	0	VISITOR	1573	n/a	n/a	1	n/a	n/a	n/a	n/a	n/a
1614.724	n/a	REC_WORD	807362	wordpools/wasnorm_wordpool_less_exclusions.txt	LTP229	ltpFR	18	8	1	GALAXY	617	n/a	n/a	0	n/a	n/a	n/a	n/a	n/a
1665.14	n/a	WORD	832570	wordpools/wasnorm_wordpool_less_exclusions.txt	LTP229	ltpFR	18	9	1	WHALE	1601	n/a	n/a	1	0.422607421875	0.5869140625	0	upper	zerothre.ttf
1668.984	n/a	WORD	834492	wordpools/wasnorm_wordpool_less_exclusions.txt	LTP229	ltpFR	18	9	1	SEA	1259	n/a	n/a	0	0.422607421875	0.5869140625	0	upper	zerothre.ttf
1672.836	n/a	WORD	836418	wordpools/wasnorm_wordpool_less_exclusions.txt	LTP229	ltpFR	18	9	1	UNDERWEAR	1537	n/a	n/a	0	0.422607421875	0.5869140625	0	upper	zerothre.ttf
1676.884	n/a	WORD	838442	wordpools/wasnorm_wordpool_less_exclusions.txt	LTP229	ltpFR	18	9	1	BAG	69	n/a	n/a	0	0.422607421875	0.5869140625	0	upper	zerothre.ttf
1680.918	n/a	WORD	840459	wordpools/wasnorm_wordpool_less_exclusions.txt	LTP229	ltpFR	18	9	1	CAFE	216	n/a	n/a	0	0.422607421875	0.5869140625	0	upper	zerothre.ttf
1684.8	n/a	WORD	842400	wordpools/wasnorm_wordpool_less_exclusions.txt	LTP229	ltpFR	18	9	1	GARDEN	623	n/a	n/a	0	0.422607421875	0.5869140625	0	upper	zerothre.ttf
1688.944	n/a	WORD	844472	wordpools/wasnorm_wordpool_less_exclusions.txt	LTP229	ltpFR	18	9	1	ROSE	1212	n/a	n/a	1	0.422607421875	0.5869140625	0	upper	zerothre.ttf
1692.91	n/a	WORD	846455	wordpools/wasnorm_wordpool_less_exclusions.txt	LTP229	ltpFR	18	9	1	TRAITOR	1495	n/a	n/a	1	0.422607421875	0.5869140625	0	upper	zerothre.ttf
1697.112	n/a	WORD	848556	wordpools/wasnorm_wordpool_less_exclusions.txt	LTP229	ltpFR	18	9	1	VET	1560	n/a	n/a	1	0.422607421875	0.5869140625	0	upper	zerothre.ttf
1701.078	n/a	WORD	850539	wordpools/wasnorm_wordpool_less_exclusions.txt	LTP229	ltpFR	18	9	1	BARN	89	n/a	n/a	0	0.422607421875	0.5869140625	0	upper	zerothre.ttf
1704.908	n/a	WORD	852454	wordpools/wasnorm_wordpool_less_exclusions.txt	LTP229	ltpFR	18	9	1	DESIGNER	451	n/a	n/a	1	0.422607421875	0.5869140625	0	upper	zerothre.ttf
1708.99	n/a	WORD	854495	wordpools/wasnorm_wordpool_less_exclusions.txt	LTP229	ltpFR	18	9	1	BLACKBOARD	133	n/a	n/a	0	0.422607421875	0.5869140625	0	upper	zerothre.ttf
1713.006	n/a	WORD	856503	wordpools/wasnorm_wordpool_less_exclusions.txt	LTP229	ltpFR	18	9	1	COCKTAIL	338	n/a	n/a	n/a	0.422607421875	0.5869140625	0	upper	zerothre.ttf
1716.05	n/a	SLOW_MSG	858025	n/a	LTP229	ltpFR	18	9	n/a	n/a	n/a	n/a	n/a	n/a	n/a	n/a	n/a	n/a	n/a
1718.696	n/a	WORD	859348	wordpools/wasnorm_wordpool_less_exclusions.txt	LTP229	ltpFR	18	9	1	POCKETBOOK	1094	n/a	n/a	0	0.422607421875	0.5869140625	0	upper	zerothre.ttf
1722.762	n/a	WORD	861381	wordpools/wasnorm_wordpool_less_exclusions.txt	LTP229	ltpFR	18	9	1	SACK	1220	n/a	n/a	0	0.422607421875	0.5869140625	0	upper	zerothre.ttf
1726.692	n/a	WORD	863346	wordpools/wasnorm_wordpool_less_exclusions.txt	LTP229	ltpFR	18	9	1	ERASER	538	n/a	n/a	0	0.422607421875	0.5869140625	0	upper	zerothre.ttf
1732.65	n/a	REC_START	866325	n/a	LTP229	ltpFR	18	9	n/a	n/a	n/a	n/a	n/a	n/a	n/a	n/a	n/a	n/a	n/a
1733.922	n/a	REC_WORD	866961	wordpools/wasnorm_wordpool_less_exclusions.txt	LTP229	ltpFR	18	9	1	SACK	1220	n/a	n/a	0	n/a	n/a	n/a	n/a	n/a
1735.188	n/a	REC_WORD	867594	wordpools/wasnorm_wordpool_less_exclusions.txt	LTP229	ltpFR	18	9	1	BLACKBOARD	133	n/a	n/a	0	n/a	n/a	n/a	n/a	n/a
1736.786	n/a	REC_WORD	868393	wordpools/wasnorm_wordpool_less_exclusions.txt	LTP229	ltpFR	18	9	1	ERASER	538	n/a	n/a	0	n/a	n/a	n/a	n/a	n/a
1738.232	n/a	REC_WORD	869116	wordpools/wasnorm_wordpool_less_exclusions.txt	LTP229	ltpFR	18	9	1	POCKETBOOK	1094	n/a	n/a	0	n/a	n/a	n/a	n/a	n/a
1739.804	n/a	REC_WORD	869902	wordpools/wasnorm_wordpool_less_exclusions.txt	LTP229	ltpFR	18	9	1	BAG	69	n/a	n/a	0	n/a	n/a	n/a	n/a	n/a
1742.632	n/a	REC_WORD	871316	wordpools/wasnorm_wordpool_less_exclusions.txt	LTP229	ltpFR	18	9	1	SEA	1259	n/a	n/a	0	n/a	n/a	n/a	n/a	n/a
1744.238	n/a	REC_WORD	872119	wordpools/wasnorm_wordpool_less_exclusions.txt	LTP229	ltpFR	18	9	1	UNDERWEAR	1537	n/a	n/a	0	n/a	n/a	n/a	n/a	n/a
1746.494	n/a	REC_WORD	873247	wordpools/wasnorm_wordpool_less_exclusions.txt	LTP229	ltpFR	18	9	1	GARDEN	623	n/a	n/a	0	n/a	n/a	n/a	n/a	n/a
1748.154	n/a	REC_WORD	874077	wordpools/wasnorm_wordpool_less_exclusions.txt	LTP229	ltpFR	18	9	1	ROSE	1212	n/a	n/a	1	n/a	n/a	n/a	n/a	n/a
1753.818	n/a	REC_WORD	876909	wordpools/wasnorm_wordpool_less_exclusions.txt	LTP229	ltpFR	18	9	1	CAFE	216	n/a	n/a	0	n/a	n/a	n/a	n/a	n/a
1759.844	n/a	REC_WORD	879922	wordpools/wasnorm_wordpool_less_exclusions.txt	LTP229	ltpFR	18	9	1	WHALE	1601	n/a	n/a	1	n/a	n/a	n/a	n/a	n/a
1761.786	n/a	REC_WORD	880893	wordpools/wasnorm_wordpool_less_exclusions.txt	LTP229	ltpFR	18	9	1	TRAITOR	1495	n/a	n/a	1	n/a	n/a	n/a	n/a	n/a
1764.418	n/a	REC_WORD	882209	wordpools/wasnorm_wordpool_less_exclusions.txt	LTP229	ltpFR	18	9	1	VET	1560	n/a	n/a	1	n/a	n/a	n/a	n/a	n/a
1772.61	n/a	REC_WORD	886305	wordpools/wasnorm_wordpool_less_exclusions.txt	LTP229	ltpFR	18	9	1	BLACKBOARD	133	n/a	n/a	0	n/a	n/a	n/a	n/a	n/a
1774.298	n/a	REC_WORD	887149	wordpools/wasnorm_wordpool_less_exclusions.txt	LTP229	ltpFR	18	9	1	ERASER	538	n/a	n/a	0	n/a	n/a	n/a	n/a	n/a
1786.17	n/a	REC_WORD	893085	wordpools/wasnorm_wordpool_less_exclusions.txt	LTP229	ltpFR	18	9	1	COCKTAIL	338	n/a	n/a	n/a	n/a	n/a	n/a	n/a	n/a
1827.038	n/a	WORD	913519	wordpools/wasnorm_wordpool_less_exclusions.txt	LTP229	ltpFR	18	10	-1	INSTRUCTOR	741	n/a	n/a	-1	1.0	1.0	1	upper	Verdana.ttf
1831.122	n/a	WORD	915561	wordpools/wasnorm_wordpool_less_exclusions.txt	LTP229	ltpFR	18	10	-1	BRAKE	166	n/a	n/a	-1	1.0	1.0	1	upper	Verdana.ttf
1835.106	n/a	WORD	917553	wordpools/wasnorm_wordpool_less_exclusions.txt	LTP229	ltpFR	18	10	-1	KEG	770	n/a	n/a	-1	1.0	1.0	1	upper	Verdana.ttf
1839.072	n/a	WORD	919536	wordpools/wasnorm_wordpool_less_exclusions.txt	LTP229	ltpFR	18	10	-1	MANSION	864	n/a	n/a	-1	1.0	1.0	1	upper	Verdana.ttf
1842.982	n/a	WORD	921491	wordpools/wasnorm_wordpool_less_exclusions.txt	LTP229	ltpFR	18	10	-1	BLUEPRINT	142	n/a	n/a	-1	1.0	1.0	1	upper	Verdana.ttf
1846.934	n/a	WORD	923467	wordpools/wasnorm_wordpool_less_exclusions.txt	LTP229	ltpFR	18	10	-1	SCALLOP	1242	n/a	n/a	-1	1.0	1.0	1	upper	Verdana.ttf
1850.9	n/a	WORD	925450	wordpools/wasnorm_wordpool_less_exclusions.txt	LTP229	ltpFR	18	10	-1	BRANDY	169	n/a	n/a	-1	1.0	1.0	1	upper	Verdana.ttf
1854.948	n/a	WORD	927474	wordpools/wasnorm_wordpool_less_exclusions.txt	LTP229	ltpFR	18	10	-1	HONEY	713	n/a	n/a	-1	1.0	1.0	1	upper	Verdana.ttf
1858.948	n/a	WORD	929474	wordpools/wasnorm_wordpool_less_exclusions.txt	LTP229	ltpFR	18	10	-1	VINE	1568	n/a	n/a	-1	1.0	1.0	1	upper	Verdana.ttf
1863.13	n/a	WORD	931565	wordpools/wasnorm_wordpool_less_exclusions.txt	LTP229	ltpFR	18	10	-1	PHOTO	1055	n/a	n/a	-1	1.0	1.0	1	upper	Verdana.ttf
1867.33	n/a	WORD	933665	wordpools/wasnorm_wordpool_less_exclusions.txt	LTP229	ltpFR	18	10	-1	WORKER	1621	n/a	n/a	-1	1.0	1.0	1	upper	Verdana.ttf
1871.446	n/a	WORD	935723	wordpools/wasnorm_wordpool_less_exclusions.txt	LTP229	ltpFR	18	10	-1	HAT	690	n/a	n/a	-1	1.0	1.0	1	upper	Verdana.ttf
1875.474	n/a	WORD	937737	wordpools/wasnorm_wordpool_less_exclusions.txt	LTP229	ltpFR	18	10	-1	SUIT	1402	n/a	n/a	-1	1.0	1.0	1	upper	Verdana.ttf
1879.476	n/a	WORD	939738	wordpools/wasnorm_wordpool_less_exclusions.txt	LTP229	ltpFR	18	10	-1	ELBOW	520	n/a	n/a	-1	1.0	1.0	1	upper	Verdana.ttf
1883.458	n/a	WORD	941729	wordpools/wasnorm_wordpool_less_exclusions.txt	LTP229	ltpFR	18	10	-1	LEG	809	n/a	n/a	-1	1.0	1.0	1	upper	Verdana.ttf
1887.408	n/a	WORD	943704	wordpools/wasnorm_wordpool_less_exclusions.txt	LTP229	ltpFR	18	10	-1	PORTRAIT	1111	n/a	n/a	-1	1.0	1.0	1	upper	Verdana.ttf
1893.532	n/a	REC_START	946766	n/a	LTP229	ltpFR	18	10	n/a	n/a	n/a	n/a	n/a	n/a	n/a	n/a	n/a	n/a	n/a
1894.36	n/a	REC_WORD	947180	wordpools/wasnorm_wordpool_less_exclusions.txt	LTP229	ltpFR	18	10	-1	WORKER	1621	n/a	n/a	-1	n/a	n/a	n/a	n/a	n/a
1895.812	n/a	REC_WORD	947906	wordpools/wasnorm_wordpool_less_exclusions.txt	LTP229	ltpFR	18	10	-1	VINE	1568	n/a	n/a	-1	n/a	n/a	n/a	n/a	n/a
1897.428	n/a	REC_WORD	948714	wordpools/wasnorm_wordpool_less_exclusions.txt	LTP229	ltpFR	18	10	-1	HONEY	713	n/a	n/a	-1	n/a	n/a	n/a	n/a	n/a
1898.72	n/a	REC_WORD	949360	wordpools/wasnorm_wordpool_less_exclusions.txt	LTP229	ltpFR	18	10	-1	HAT	690	n/a	n/a	-1	n/a	n/a	n/a	n/a	n/a
1900.166	n/a	REC_WORD	950083	wordpools/wasnorm_wordpool_less_exclusions.txt	LTP229	ltpFR	18	10	-1	SUIT	1402	n/a	n/a	-1	n/a	n/a	n/a	n/a	n/a
1902.066	n/a	REC_WORD	951033	wordpools/wasnorm_wordpool_less_exclusions.txt	LTP229	ltpFR	18	10	-1	ELBOW	520	n/a	n/a	-1	n/a	n/a	n/a	n/a	n/a
1903.908	n/a	REC_WORD	951954	wordpools/wasnorm_wordpool_less_exclusions.txt	LTP229	ltpFR	18	10	-1	PORTRAIT	1111	n/a	n/a	-1	n/a	n/a	n/a	n/a	n/a
1905.664	n/a	REC_WORD	952832	wordpools/wasnorm_wordpool_less_exclusions.txt	LTP229	ltpFR	18	10	-1	PHOTO	1055	n/a	n/a	-1	n/a	n/a	n/a	n/a	n/a
1908.124	n/a	REC_WORD	954062	wordpools/wasnorm_wordpool_less_exclusions.txt	LTP229	ltpFR	18	10	-1	MANSION	864	n/a	n/a	-1	n/a	n/a	n/a	n/a	n/a
1910.344	n/a	REC_WORD	955172	wordpools/wasnorm_wordpool_less_exclusions.txt	LTP229	ltpFR	18	10	-1	BLUEPRINT	142	n/a	n/a	-1	n/a	n/a	n/a	n/a	n/a
1912.47	n/a	REC_WORD	956235	wordpools/wasnorm_wordpool_less_exclusions.txt	LTP229	ltpFR	18	10	-1	KEG	770	n/a	n/a	-1	n/a	n/a	n/a	n/a	n/a
1914.58	n/a	REC_WORD	957290	wordpools/wasnorm_wordpool_less_exclusions.txt	LTP229	ltpFR	18	10	-1	BRANDY	169	n/a	n/a	-1	n/a	n/a	n/a	n/a	n/a
1917.098	n/a	REC_WORD	958549	wordpools/wasnorm_wordpool_less_exclusions.txt	LTP229	ltpFR	18	10	-1	LEG	809	n/a	n/a	-1	n/a	n/a	n/a	n/a	n/a
1918.8	n/a	REC_WORD	959400	wordpools/wasnorm_wordpool_less_exclusions.txt	LTP229	ltpFR	18	10	-1	INSTRUCTOR	741	n/a	n/a	-1	n/a	n/a	n/a	n/a	n/a
1921.11	n/a	REC_WORD	960555	wordpools/wasnorm_wordpool_less_exclusions.txt	LTP229	ltpFR	18	10	-1	BRAKE	166	n/a	n/a	-1	n/a	n/a	n/a	n/a	n/a
1978.086	n/a	WORD	989043	wordpools/wasnorm_wordpool_less_exclusions.txt	LTP229	ltpFR	18	11	0	PALACE	1006	n/a	n/a	1	0.57763671875	0.412841796875	1	lower	amplitud.ttf
1982.152	n/a	WORD	991076	wordpools/wasnorm_wordpool_less_exclusions.txt	LTP229	ltpFR	18	11	0	BRUSH	182	n/a	n/a	0	0.57763671875	0.412841796875	1	lower	amplitud.ttf
1986.268	n/a	WORD	993134	wordpools/wasnorm_wordpool_less_exclusions.txt	LTP229	ltpFR	18	11	0	TOMATO	1476	n/a	n/a	0	0.57763671875	0.412841796875	1	lower	amplitud.ttf
1990.132	n/a	WORD	995066	wordpools/wasnorm_wordpool_less_exclusions.txt	LTP229	ltpFR	18	11	0	MONARCH	906	n/a	n/a	1	0.57763671875	0.412841796875	1	lower	amplitud.ttf
1993.992	n/a	WORD	996996	wordpools/wasnorm_wordpool_less_exclusions.txt	LTP229	ltpFR	18	11	0	LEADER	807	n/a	n/a	1	0.57763671875	0.412841796875	1	lower	amplitud.ttf
1998.128	n/a	WORD	999064	wordpools/wasnorm_wordpool_less_exclusions.txt	LTP229	ltpFR	18	11	0	ROUGE	1213	n/a	n/a	0	0.57763671875	0.412841796875	1	lower	amplitud.ttf
2002.162	n/a	WORD	1001081	wordpools/wasnorm_wordpool_less_exclusions.txt	LTP229	ltpFR	18	11	0	HAY	693	n/a	n/a	1	0.57763671875	0.412841796875	1	lower	amplitud.ttf
2006.278	n/a	WORD	1003139	wordpools/wasnorm_wordpool_less_exclusions.txt	LTP229	ltpFR	18	11	0	BLOUSE	139	n/a	n/a	0	0.57763671875	0.412841796875	1	lower	amplitud.ttf
2010.276	n/a	WORD	1005138	wordpools/wasnorm_wordpool_less_exclusions.txt	LTP229	ltpFR	18	11	0	BADGE	68	n/a	n/a	0	0.57763671875	0.412841796875	1	lower	amplitud.ttf
2014.342	n/a	WORD	1007171	wordpools/wasnorm_wordpool_less_exclusions.txt	LTP229	ltpFR	18	11	0	CUPBOARD	425	n/a	n/a	0	0.57763671875	0.412841796875	1	lower	amplitud.ttf
2018.238	n/a	WORD	1009119	wordpools/wasnorm_wordpool_less_exclusions.txt	LTP229	ltpFR	18	11	0	TEA	1439	n/a	n/a	0	0.57763671875	0.412841796875	1	lower	amplitud.ttf
2022.324	n/a	WORD	1011162	wordpools/wasnorm_wordpool_less_exclusions.txt	LTP229	ltpFR	18	11	0	CHAMPION	279	n/a	n/a	1	0.57763671875	0.412841796875	1	lower	amplitud.ttf
2026.438	n/a	WORD	1013219	wordpools/wasnorm_wordpool_less_exclusions.txt	LTP229	ltpFR	18	11	0	WINNER	1615	n/a	n/a	1	0.57763671875	0.412841796875	1	lower	amplitud.ttf
2030.32	n/a	WORD	1015160	wordpools/wasnorm_wordpool_less_exclusions.txt	LTP229	ltpFR	18	11	0	KING	777	n/a	n/a	1	0.57763671875	0.412841796875	1	lower	amplitud.ttf
2034.162	n/a	WORD	1017081	wordpools/wasnorm_wordpool_less_exclusions.txt	LTP229	ltpFR	18	11	0	MINK	897	n/a	n/a	1	0.57763671875	0.412841796875	1	lower	amplitud.ttf
2038.048	n/a	WORD	1019024	wordpools/wasnorm_wordpool_less_exclusions.txt	LTP229	ltpFR	18	11	0	SPAGHETTI	1346	n/a	n/a	0	0.57763671875	0.412841796875	1	lower	amplitud.ttf
2043.838	n/a	REC_START	1021919	n/a	LTP229	ltpFR	18	11	n/a	n/a	n/a	n/a	n/a	n/a	n/a	n/a	n/a	n/a	n/a
2044.82	n/a	REC_WORD	1022410	wordpools/wasnorm_wordpool_less_exclusions.txt	LTP229	ltpFR	18	11	0	ROUGE	1213	n/a	n/a	0	n/a	n/a	n/a	n/a	n/a
2046.362	n/a	REC_WORD	1023181	wordpools/wasnorm_wordpool_less_exclusions.txt	LTP229	ltpFR	18	11	0	BRUSH	182	n/a	n/a	0	n/a	n/a	n/a	n/a	n/a
2047.894	n/a	REC_WORD	1023947	wordpools/wasnorm_wordpool_less_exclusions.txt	LTP229	ltpFR	18	11	0	BADGE	68	n/a	n/a	0	n/a	n/a	n/a	n/a	n/a
2049.564	n/a	REC_WORD	1024782	wordpools/wasnorm_wordpool_less_exclusions.txt	LTP229	ltpFR	18	11	0	SPAGHETTI	1346	n/a	n/a	0	n/a	n/a	n/a	n/a	n/a
2051.914	n/a	REC_WORD	1025957	wordpools/wasnorm_wordpool_less_exclusions.txt	LTP229	ltpFR	18	11	0	CUPBOARD	425	n/a	n/a	0	n/a	n/a	n/a	n/a	n/a
2053.592	n/a	REC_WORD	1026796	wordpools/wasnorm_wordpool_less_exclusions.txt	LTP229	ltpFR	18	11	0	CHAMPION	279	n/a	n/a	1	n/a	n/a	n/a	n/a	n/a
2055.532	n/a	REC_WORD	1027766	wordpools/wasnorm_wordpool_less_exclusions.txt	LTP229	ltpFR	18	11	0	WINNER	1615	n/a	n/a	1	n/a	n/a	n/a	n/a	n/a
2057.792	n/a	REC_WORD	1028896	wordpools/wasnorm_wordpool_less_exclusions.txt	LTP229	ltpFR	18	11	0	MONARCH	906	n/a	n/a	1	n/a	n/a	n/a	n/a	n/a
2059.574	n/a	REC_WORD	1029787	wordpools/wasnorm_wordpool_less_exclusions.txt	LTP229	ltpFR	18	11	0	PALACE	1006	n/a	n/a	1	n/a	n/a	n/a	n/a	n/a
2061.704	n/a	REC_WORD	1030852	wordpools/wasnorm_wordpool_less_exclusions.txt	LTP229	ltpFR	18	11	0	KING	777	n/a	n/a	1	n/a	n/a	n/a	n/a	n/a
2063.554	n/a	REC_WORD	1031777	wordpools/wasnorm_wordpool_less_exclusions.txt	LTP229	ltpFR	18	11	0	HAY	693	n/a	n/a	1	n/a	n/a	n/a	n/a	n/a
2099.534	n/a	REC_WORD	1049767	wordpools/wasnorm_wordpool_less_exclusions.txt	LTP229	ltpFR	18	11	0	LEADER	807	n/a	n/a	1	n/a	n/a	n/a	n/a	n/a
2111.018	n/a	REC_WORD	1055509	wordpools/wasnorm_wordpool_less_exclusions.txt	LTP229	ltpFR	18	11	1	MASCARA	875	n/a	n/a	0	n/a	n/a	n/a	n/a	n/a
2113.258	n/a	REC_WORD	1056629	wordpools/wasnorm_wordpool_less_exclusions.txt	LTP229	ltpFR	18	11	0	EYELASH	546	n/a	n/a	0	n/a	n/a	n/a	n/a	n/a
2137.33	n/a	WORD	1068665	wordpools/wasnorm_wordpool_less_exclusions.txt	LTP229	ltpFR	18	12	0	ICING	732	n/a	n/a	0	0.57763671875	0.412841796875	1	lower	amplitud.ttf
2141.26	n/a	WORD	1070630	wordpools/wasnorm_wordpool_less_exclusions.txt	LTP229	ltpFR	18	12	0	BIKE	125	n/a	n/a	1	0.57763671875	0.412841796875	1	lower	amplitud.ttf
2145.326	n/a	WORD	1072663	wordpools/wasnorm_wordpool_less_exclusions.txt	LTP229	ltpFR	18	12	0	DRILL	497	n/a	n/a	0	0.57763671875	0.412841796875	1	lower	amplitud.ttf
2149.424	n/a	WORD	1074712	wordpools/wasnorm_wordpool_less_exclusions.txt	LTP229	ltpFR	18	12	0	SEAGULL	1261	n/a	n/a	1	0.57763671875	0.412841796875	1	lower	amplitud.ttf
2153.508	n/a	WORD	1076754	wordpools/wasnorm_wordpool_less_exclusions.txt	LTP229	ltpFR	18	12	0	BREAD	170	n/a	n/a	0	0.57763671875	0.412841796875	1	lower	amplitud.ttf
2157.724	n/a	WORD	1078862	wordpools/wasnorm_wordpool_less_exclusions.txt	LTP229	ltpFR	18	12	0	PLUMBER	1091	n/a	n/a	1	0.57763671875	0.412841796875	1	lower	amplitud.ttf
2161.768	n/a	WORD	1080884	wordpools/wasnorm_wordpool_less_exclusions.txt	LTP229	ltpFR	18	12	0	HOUND	724	n/a	n/a	1	0.57763671875	0.412841796875	1	lower	amplitud.ttf
2165.954	n/a	WORD	1082977	wordpools/wasnorm_wordpool_less_exclusions.txt	LTP229	ltpFR	18	12	0	NAIL	936	n/a	n/a	0	0.57763671875	0.412841796875	1	lower	amplitud.ttf
2169.782	n/a	WORD	1084891	wordpools/wasnorm_wordpool_less_exclusions.txt	LTP229	ltpFR	18	12	0	CHEF	290	n/a	n/a	1	0.57763671875	0.412841796875	1	lower	amplitud.ttf
2173.614	n/a	WORD	1086807	wordpools/wasnorm_wordpool_less_exclusions.txt	LTP229	ltpFR	18	12	0	PAN	1008	n/a	n/a	0	0.57763671875	0.412841796875	1	lower	amplitud.ttf
2177.75	n/a	WORD	1088875	wordpools/wasnorm_wordpool_less_exclusions.txt	LTP229	ltpFR	18	12	0	CROW	414	n/a	n/a	1	0.57763671875	0.412841796875	1	lower	amplitud.ttf
2181.948	n/a	WORD	1090974	wordpools/wasnorm_wordpool_less_exclusions.txt	LTP229	ltpFR	18	12	0	CARTON	251	n/a	n/a	0	0.57763671875	0.412841796875	1	lower	amplitud.ttf
2185.846	n/a	WORD	1092923	wordpools/wasnorm_wordpool_less_exclusions.txt	LTP229	ltpFR	18	12	0	GALLON	618	n/a	n/a	0	0.57763671875	0.412841796875	1	lower	amplitud.ttf
2189.946	n/a	WORD	1094973	wordpools/wasnorm_wordpool_less_exclusions.txt	LTP229	ltpFR	18	12	0	SOCIETY	1338	n/a	n/a	1	0.57763671875	0.412841796875	1	lower	amplitud.ttf
2194.078	n/a	WORD	1097039	wordpools/wasnorm_wordpool_less_exclusions.txt	LTP229	ltpFR	18	12	0	CORPORATION	382	n/a	n/a	1	0.57763671875	0.412841796875	1	lower	amplitud.ttf
2198.21	n/a	WORD	1099105	wordpools/wasnorm_wordpool_less_exclusions.txt	LTP229	ltpFR	18	12	0	FUDGE	611	n/a	n/a	0	0.57763671875	0.412841796875	1	lower	amplitud.ttf
2203.882	n/a	REC_START	1101941	n/a	LTP229	ltpFR	18	12	n/a	n/a	n/a	n/a	n/a	n/a	n/a	n/a	n/a	n/a	n/a
2204.626	n/a	REC_WORD	1102313	wordpools/wasnorm_wordpool_less_exclusions.txt	LTP229	ltpFR	18	12	0	SOCIETY	1338	n/a	n/a	1	n/a	n/a	n/a	n/a	n/a
2206.536	n/a	REC_WORD	1103268	wordpools/wasnorm_wordpool_less_exclusions.txt	LTP229	ltpFR	18	12	0	CORPORATION	382	n/a	n/a	1	n/a	n/a	n/a	n/a	n/a
2208.552	n/a	REC_WORD	1104276	wordpools/wasnorm_wordpool_less_exclusions.txt	LTP229	ltpFR	18	12	0	FUDGE	611	n/a	n/a	0	n/a	n/a	n/a	n/a	n/a
2210.602	n/a	REC_WORD	1105301	wordpools/wasnorm_wordpool_less_exclusions.txt	LTP229	ltpFR	18	12	0	PLUMBER	1091	n/a	n/a	1	n/a	n/a	n/a	n/a	n/a
2212.428	n/a	REC_WORD	1106214	wordpools/wasnorm_wordpool_less_exclusions.txt	LTP229	ltpFR	18	12	0	CHEF	290	n/a	n/a	1	n/a	n/a	n/a	n/a	n/a
2214.51	n/a	REC_WORD	1107255	wordpools/wasnorm_wordpool_less_exclusions.txt	LTP229	ltpFR	18	12	0	PAN	1008	n/a	n/a	0	n/a	n/a	n/a	n/a	n/a
2216.434	n/a	REC_WORD	1108217	wordpools/wasnorm_wordpool_less_exclusions.txt	LTP229	ltpFR	18	12	0	HOUND	724	n/a	n/a	1	n/a	n/a	n/a	n/a	n/a
2218.48	n/a	REC_WORD	1109240	wordpools/wasnorm_wordpool_less_exclusions.txt	LTP229	ltpFR	18	12	0	GALLON	618	n/a	n/a	0	n/a	n/a	n/a	n/a	n/a
2220.246	n/a	REC_WORD	1110123	wordpools/wasnorm_wordpool_less_exclusions.txt	LTP229	ltpFR	18	12	0	CARTON	251	n/a	n/a	0	n/a	n/a	n/a	n/a	n/a
2225.574	n/a	REC_WORD	1112787	wordpools/wasnorm_wordpool_less_exclusions.txt	LTP229	ltpFR	18	12	0	SEAGULL	1261	n/a	n/a	1	n/a	n/a	n/a	n/a	n/a
2227.64	n/a	REC_WORD	1113820	wordpools/wasnorm_wordpool_less_exclusions.txt	LTP229	ltpFR	18	12	0	CROW	414	n/a	n/a	1	n/a	n/a	n/a	n/a	n/a
2229.906	n/a	REC_WORD	1114953	wordpools/wasnorm_wordpool_less_exclusions.txt	LTP229	ltpFR	18	12	0	BREAD	170	n/a	n/a	0	n/a	n/a	n/a	n/a	n/a
2235.682	n/a	REC_WORD	1117841	wordpools/wasnorm_wordpool_less_exclusions.txt	LTP229	ltpFR	18	12	0	GARLIC	624	n/a	n/a	0	n/a	n/a	n/a	n/a	n/a
2237.588	n/a	REC_WORD	1118794	wordpools/wasnorm_wordpool_less_exclusions.txt	LTP229	ltpFR	18	12	0	SOFTBALL	1343	n/a	n/a	1	n/a	n/a	n/a	n/a	n/a
2279.538	n/a	REST_REWET	1139769	n/a	LTP229	ltpFR	18	12	n/a	n/a	n/a	n/a	n/a	n/a	n/a	n/a	n/a	n/a	n/a
2627.986	n/a	WORD	1313993	wordpools/wasnorm_wordpool_less_exclusions.txt	LTP229	ltpFR	18	13	-1	TWIG	1527	n/a	n/a	-1	1.0	1.0	1	upper	Verdana.ttf
2631.852	n/a	WORD	1315926	wordpools/wasnorm_wordpool_less_exclusions.txt	LTP229	ltpFR	18	13	-1	LIMB	822	n/a	n/a	-1	1.0	1.0	1	upper	Verdana.ttf
2635.93	n/a	WORD	1317965	wordpools/wasnorm_wordpool_less_exclusions.txt	LTP229	ltpFR	18	13	-1	SWAMP	1416	n/a	n/a	-1	1.0	1.0	1	upper	Verdana.ttf
2640.15	n/a	WORD	1320075	wordpools/wasnorm_wordpool_less_exclusions.txt	LTP229	ltpFR	18	13	-1	SCOTCH	1251	n/a	n/a	-1	1.0	1.0	1	upper	Verdana.ttf
2644.182	n/a	WORD	1322091	wordpools/wasnorm_wordpool_less_exclusions.txt	LTP229	ltpFR	18	13	-1	FRAGRANCE	599	n/a	n/a	-1	1.0	1.0	1	upper	Verdana.ttf
2648.126	n/a	WORD	1324063	wordpools/wasnorm_wordpool_less_exclusions.txt	LTP229	ltpFR	18	13	-1	PERFUME	1049	n/a	n/a	-1	1.0	1.0	1	upper	Verdana.ttf
2652.196	n/a	WORD	1326098	wordpools/wasnorm_wordpool_less_exclusions.txt	LTP229	ltpFR	18	13	-1	RELATIVE	1182	n/a	n/a	-1	1.0	1.0	1	upper	Verdana.ttf
2656.076	n/a	WORD	1328038	wordpools/wasnorm_wordpool_less_exclusions.txt	LTP229	ltpFR	18	13	-1	ANTLER	29	n/a	n/a	-1	1.0	1.0	1	upper	Verdana.ttf
2660.158	n/a	WORD	1330079	wordpools/wasnorm_wordpool_less_exclusions.txt	LTP229	ltpFR	18	13	-1	PUMPKIN	1142	n/a	n/a	-1	1.0	1.0	1	upper	Verdana.ttf
2664.092	n/a	WORD	1332046	wordpools/wasnorm_wordpool_less_exclusions.txt	LTP229	ltpFR	18	13	-1	BUSH	202	n/a	n/a	-1	1.0	1.0	1	upper	Verdana.ttf
2668.308	n/a	WORD	1334154	wordpools/wasnorm_wordpool_less_exclusions.txt	LTP229	ltpFR	18	13	-1	ALLIGATOR	16	n/a	n/a	-1	1.0	1.0	1	upper	Verdana.ttf
2672.49	n/a	WORD	1336245	wordpools/wasnorm_wordpool_less_exclusions.txt	LTP229	ltpFR	18	13	-1	SNORKEL	1336	n/a	n/a	-1	1.0	1.0	1	upper	Verdana.ttf
2676.686	n/a	WORD	1338343	wordpools/wasnorm_wordpool_less_exclusions.txt	LTP229	ltpFR	18	13	-1	BEER	114	n/a	n/a	-1	1.0	1.0	1	upper	Verdana.ttf
2680.852	n/a	WORD	1340426	wordpools/wasnorm_wordpool_less_exclusions.txt	LTP229	ltpFR	18	13	-1	HAMBURGER	679	n/a	n/a	-1	1.0	1.0	1	upper	Verdana.ttf
2684.954	n/a	WORD	1342477	wordpools/wasnorm_wordpool_less_exclusions.txt	LTP229	ltpFR	18	13	-1	MOAT	903	n/a	n/a	-1	1.0	1.0	1	upper	Verdana.ttf
2689.086	n/a	WORD	1344543	wordpools/wasnorm_wordpool_less_exclusions.txt	LTP229	ltpFR	18	13	-1	STAKE	1368	n/a	n/a	-1	1.0	1.0	1	upper	Verdana.ttf
2694.776	n/a	REC_START	1347388	n/a	LTP229	ltpFR	18	13	n/a	n/a	n/a	n/a	n/a	n/a	n/a	n/a	n/a	n/a	n/a
2695.74	n/a	REC_WORD	1347870	wordpools/wasnorm_wordpool_less_exclusions.txt	LTP229	ltpFR	18	13	-1	SWAMP	1416	n/a	n/a	-1	n/a	n/a	n/a	n/a	n/a
2697.2	n/a	REC_WORD	1348600	wordpools/wasnorm_wordpool_less_exclusions.txt	LTP229	ltpFR	18	13	-1	ALLIGATOR	16	n/a	n/a	-1	n/a	n/a	n/a	n/a	n/a
2698.968	n/a	REC_WORD	1349484	wordpools/wasnorm_wordpool_less_exclusions.txt	LTP229	ltpFR	18	13	-1	MOAT	903	n/a	n/a	-1	n/a	n/a	n/a	n/a	n/a
2700.514	n/a	REC_WORD	1350257	wordpools/wasnorm_wordpool_less_exclusions.txt	LTP229	ltpFR	18	13	-1	SCOTCH	1251	n/a	n/a	-1	n/a	n/a	n/a	n/a	n/a
2703.552	n/a	REC_WORD	1351776	wordpools/wasnorm_wordpool_less_exclusions.txt	LTP229	ltpFR	18	13	-1	BEER	114	n/a	n/a	-1	n/a	n/a	n/a	n/a	n/a
2704.684	n/a	REC_WORD	1352342	wordpools/wasnorm_wordpool_less_exclusions.txt	LTP229	ltpFR	18	13	-1	STAKE	1368	n/a	n/a	-1	n/a	n/a	n/a	n/a	n/a
2706.83	n/a	REC_WORD	1353415	wordpools/wasnorm_wordpool_less_exclusions.txt	LTP229	ltpFR	18	13	-1	TWIG	1527	n/a	n/a	-1	n/a	n/a	n/a	n/a	n/a
2708.456	n/a	REC_WORD	1354228	wordpools/wasnorm_wordpool_less_exclusions.txt	LTP229	ltpFR	18	13	-1	LIMB	822	n/a	n/a	-1	n/a	n/a	n/a	n/a	n/a
2710.766	n/a	REC_WORD	1355383	wordpools/wasnorm_wordpool_less_exclusions.txt	LTP229	ltpFR	18	13	-1	BUSH	202	n/a	n/a	-1	n/a	n/a	n/a	n/a	n/a
2719.662	n/a	REC_WORD	1359831	wordpools/wasnorm_wordpool_less_exclusions.txt	LTP229	ltpFR	18	13	-1	PERFUME	1049	n/a	n/a	-1	n/a	n/a	n/a	n/a	n/a
2721.462	n/a	REC_WORD	1360731	wordpools/wasnorm_wordpool_less_exclusions.txt	LTP229	ltpFR	18	13	-1	FRAGRANCE	599	n/a	n/a	-1	n/a	n/a	n/a	n/a	n/a
2723.822	n/a	REC_WORD	1361911	wordpools/wasnorm_wordpool_less_exclusions.txt	LTP229	ltpFR	18	13	-1	RELATIVE	1182	n/a	n/a	-1	n/a	n/a	n/a	n/a	n/a
2725.722	n/a	REC_WORD	1362861	wordpools/wasnorm_wordpool_less_exclusions.txt	LTP229	ltpFR	18	13	-1	PUMPKIN	1142	n/a	n/a	-1	n/a	n/a	n/a	n/a	n/a
2736.146	n/a	REC_WORD	1368073	wordpools/wasnorm_wordpool_less_exclusions.txt	LTP229	ltpFR	18	13	0	MINK	897	n/a	n/a	1	n/a	n/a	n/a	n/a	n/a
2763.824	n/a	REC_WORD	1381912	wordpools/wasnorm_wordpool_less_exclusions.txt	LTP229	ltpFR	18	13	-1	MOAT	903	n/a	n/a	-1	n/a	n/a	n/a	n/a	n/a
2803.24	n/a	WORD	1401620	wordpools/wasnorm_wordpool_less_exclusions.txt	LTP229	ltpFR	18	14	0	GRATE	657	n/a	n/a	1	0.57763671875	0.412841796875	1	lower	amplitud.ttf
2807.44	n/a	WORD	1403720	wordpools/wasnorm_wordpool_less_exclusions.txt	LTP229	ltpFR	18	14	0	CRACKER	398	n/a	n/a	0	0.57763671875	0.412841796875	1	lower	amplitud.ttf
2811.556	n/a	WORD	1405778	wordpools/wasnorm_wordpool_less_exclusions.txt	LTP229	ltpFR	18	14	0	TABLE	1426	n/a	n/a	1	0.57763671875	0.412841796875	1	lower	amplitud.ttf
2815.688	n/a	WORD	1407844	wordpools/wasnorm_wordpool_less_exclusions.txt	LTP229	ltpFR	18	14	0	SOFA	1342	n/a	n/a	1	0.57763671875	0.412841796875	1	lower	amplitud.ttf
2819.654	n/a	WORD	1409827	wordpools/wasnorm_wordpool_less_exclusions.txt	LTP229	ltpFR	18	14	0	PEARL	1034	n/a	n/a	0	0.57763671875	0.412841796875	1	lower	amplitud.ttf
2823.534	n/a	WORD	1411767	wordpools/wasnorm_wordpool_less_exclusions.txt	LTP229	ltpFR	18	14	0	STRING	1394	n/a	n/a	0	0.57763671875	0.412841796875	1	lower	amplitud.ttf
2827.366	n/a	WORD	1413683	wordpools/wasnorm_wordpool_less_exclusions.txt	LTP229	ltpFR	18	14	0	TIE	1466	n/a	n/a	0	0.57763671875	0.412841796875	1	lower	amplitud.ttf
2831.532	n/a	WORD	1415766	wordpools/wasnorm_wordpool_less_exclusions.txt	LTP229	ltpFR	18	14	0	CLAM	315	n/a	n/a	0	0.57763671875	0.412841796875	1	lower	amplitud.ttf
2835.63	n/a	WORD	1417815	wordpools/wasnorm_wordpool_less_exclusions.txt	LTP229	ltpFR	18	14	0	LOUNGE	845	n/a	n/a	0	0.57763671875	0.412841796875	1	lower	amplitud.ttf
2839.608	n/a	WORD	1419804	wordpools/wasnorm_wordpool_less_exclusions.txt	LTP229	ltpFR	18	14	0	OVEN	991	n/a	n/a	n/a	0.57763671875	0.412841796875	1	lower	amplitud.ttf
2842.658	n/a	SLOW_MSG	1421329	n/a	LTP229	ltpFR	18	14	n/a	n/a	n/a	n/a	n/a	n/a	n/a	n/a	n/a	n/a	n/a
2845.166	n/a	WORD	1422583	wordpools/wasnorm_wordpool_less_exclusions.txt	LTP229	ltpFR	18	14	0	LEMON	810	n/a	n/a	0	0.57763671875	0.412841796875	1	lower	amplitud.ttf
2849.25	n/a	WORD	1424625	wordpools/wasnorm_wordpool_less_exclusions.txt	LTP229	ltpFR	18	14	0	ESSAY	540	n/a	n/a	0	0.57763671875	0.412841796875	1	lower	amplitud.ttf
2853.214	n/a	WORD	1426607	wordpools/wasnorm_wordpool_less_exclusions.txt	LTP229	ltpFR	18	14	0	COD	340	n/a	n/a	0	0.57763671875	0.412841796875	1	lower	amplitud.ttf
2857.38	n/a	WORD	1428690	wordpools/wasnorm_wordpool_less_exclusions.txt	LTP229	ltpFR	18	14	0	PLATE	1086	n/a	n/a	0	0.57763671875	0.412841796875	1	lower	amplitud.ttf
2861.542	n/a	WORD	1430771	wordpools/wasnorm_wordpool_less_exclusions.txt	LTP229	ltpFR	18	14	0	HEDGE	699	n/a	n/a	1	0.57763671875	0.412841796875	1	lower	amplitud.ttf
2865.628	n/a	WORD	1432814	wordpools/wasnorm_wordpool_less_exclusions.txt	LTP229	ltpFR	18	14	0	RAKE	1164	n/a	n/a	1	0.57763671875	0.412841796875	1	lower	amplitud.ttf
2871.436	n/a	REC_START	1435718	n/a	LTP229	ltpFR	18	14	n/a	n/a	n/a	n/a	n/a	n/a	n/a	n/a	n/a	n/a	n/a
2872.632	n/a	REC_WORD	1436316	wordpools/wasnorm_wordpool_less_exclusions.txt	LTP229	ltpFR	18	14	0	RAKE	1164	n/a	n/a	1	n/a	n/a	n/a	n/a	n/a
2874.528	n/a	REC_WORD	1437264	wordpools/wasnorm_wordpool_less_exclusions.txt	LTP229	ltpFR	18	14	0	SOFA	1342	n/a	n/a	1	n/a	n/a	n/a	n/a	n/a
2876.344	n/a	REC_WORD	1438172	wordpools/wasnorm_wordpool_less_exclusions.txt	LTP229	ltpFR	18	14	0	TABLE	1426	n/a	n/a	1	n/a	n/a	n/a	n/a	n/a
2878.414	n/a	REC_WORD	1439207	wordpools/wasnorm_wordpool_less_exclusions.txt	LTP229	ltpFR	18	14	0	HEDGE	699	n/a	n/a	1	n/a	n/a	n/a	n/a	n/a
2880.44	n/a	REC_WORD	1440220	wordpools/wasnorm_wordpool_less_exclusions.txt	LTP229	ltpFR	18	14	0	LOUNGE	845	n/a	n/a	0	n/a	n/a	n/a	n/a	n/a
2881.982	n/a	REC_WORD	1440991	wordpools/wasnorm_wordpool_less_exclusions.txt	LTP229	ltpFR	18	14	0	OVEN	991	n/a	n/a	n/a	n/a	n/a	n/a	n/a	n/a
2883.892	n/a	REC_WORD	1441946	wordpools/wasnorm_wordpool_less_exclusions.txt	LTP229	ltpFR	18	14	0	CRACKER	398	n/a	n/a	0	n/a	n/a	n/a	n/a	n/a
2886.102	n/a	REC_WORD	1443051	wordpools/wasnorm_wordpool_less_exclusions.txt	LTP229	ltpFR	18	14	0	PEARL	1034	n/a	n/a	0	n/a	n/a	n/a	n/a	n/a
2888.058	n/a	REC_WORD	1444029	wordpools/wasnorm_wordpool_less_exclusions.txt	LTP229	ltpFR	18	14	0	STRING	1394	n/a	n/a	0	n/a	n/a	n/a	n/a	n/a
2890.114	n/a	REC_WORD	1445057	wordpools/wasnorm_wordpool_less_exclusions.txt	LTP229	ltpFR	18	14	0	COD	340	n/a	n/a	0	n/a	n/a	n/a	n/a	n/a
2928.418	n/a	REC_WORD	1464209	wordpools/wasnorm_wordpool_less_exclusions.txt	LTP229	ltpFR	18	14	0	TIE	1466	n/a	n/a	0	n/a	n/a	n/a	n/a	n/a
2941.314	n/a	REC_WORD	1470657	wordpools/wasnorm_wordpool_less_exclusions.txt	LTP229	ltpFR	18	14	0	SOFA	1342	n/a	n/a	1	n/a	n/a	n/a	n/a	n/a
2972.268	n/a	WORD	1486134	wordpools/wasnorm_wordpool_less_exclusions.txt	LTP229	ltpFR	18	15	-1	KLEENEX	782	n/a	n/a	-1	1.0	1.0	1	upper	Verdana.ttf
2976.468	n/a	WORD	1488234	wordpools/wasnorm_wordpool_less_exclusions.txt	LTP229	ltpFR	18	15	-1	FOREHEAD	592	n/a	n/a	-1	1.0	1.0	1	upper	Verdana.ttf
2980.534	n/a	WORD	1490267	wordpools/wasnorm_wordpool_less_exclusions.txt	LTP229	ltpFR	18	15	-1	SCREWDRIVER	1255	n/a	n/a	-1	1.0	1.0	1	upper	Verdana.ttf
2984.45	n/a	WORD	1492225	wordpools/wasnorm_wordpool_less_exclusions.txt	LTP229	ltpFR	18	15	-1	CREAM	402	n/a	n/a	-1	1.0	1.0	1	upper	Verdana.ttf
2988.65	n/a	WORD	1494325	wordpools/wasnorm_wordpool_less_exclusions.txt	LTP229	ltpFR	18	15	-1	OTTER	986	n/a	n/a	-1	1.0	1.0	1	upper	Verdana.ttf
2992.732	n/a	WORD	1496366	wordpools/wasnorm_wordpool_less_exclusions.txt	LTP229	ltpFR	18	15	-1	PLIERS	1089	n/a	n/a	-1	1.0	1.0	1	upper	Verdana.ttf
2996.762	n/a	WORD	1498381	wordpools/wasnorm_wordpool_less_exclusions.txt	LTP229	ltpFR	18	15	-1	OZONE	996	n/a	n/a	-1	1.0	1.0	1	upper	Verdana.ttf
3000.728	n/a	WORD	1500364	wordpools/wasnorm_wordpool_less_exclusions.txt	LTP229	ltpFR	18	15	-1	DRESSER	496	n/a	n/a	-1	1.0	1.0	1	upper	Verdana.ttf
3004.794	n/a	WORD	1502397	wordpools/wasnorm_wordpool_less_exclusions.txt	LTP229	ltpFR	18	15	-1	LINT	826	n/a	n/a	-1	1.0	1.0	1	upper	Verdana.ttf
3008.672	n/a	WORD	1504336	wordpools/wasnorm_wordpool_less_exclusions.txt	LTP229	ltpFR	18	15	-1	OX	994	n/a	n/a	-1	1.0	1.0	1	upper	Verdana.ttf
3012.724	n/a	WORD	1506362	wordpools/wasnorm_wordpool_less_exclusions.txt	LTP229	ltpFR	18	15	-1	MONGOOSE	909	n/a	n/a	-1	1.0	1.0	1	upper	Verdana.ttf
3016.786	n/a	WORD	1508393	wordpools/wasnorm_wordpool_less_exclusions.txt	LTP229	ltpFR	18	15	-1	MILK	895	n/a	n/a	-1	1.0	1.0	1	upper	Verdana.ttf
3020.672	n/a	WORD	1510336	wordpools/wasnorm_wordpool_less_exclusions.txt	LTP229	ltpFR	18	15	-1	ELK	526	n/a	n/a	-1	1.0	1.0	1	upper	Verdana.ttf
3024.734	n/a	WORD	1512367	wordpools/wasnorm_wordpool_less_exclusions.txt	LTP229	ltpFR	18	15	-1	GAZELLE	628	n/a	n/a	-1	1.0	1.0	1	upper	Verdana.ttf
3028.798	n/a	WORD	1514399	wordpools/wasnorm_wordpool_less_exclusions.txt	LTP229	ltpFR	18	15	-1	VACUUM	1543	n/a	n/a	-1	1.0	1.0	1	upper	Verdana.ttf
3032.65	n/a	WORD	1516325	wordpools/wasnorm_wordpool_less_exclusions.txt	LTP229	ltpFR	18	15	-1	POTTERY	1116	n/a	n/a	-1	1.0	1.0	1	upper	Verdana.ttf
3038.288	n/a	REC_START	1519144	n/a	LTP229	ltpFR	18	15	n/a	n/a	n/a	n/a	n/a	n/a	n/a	n/a	n/a	n/a	n/a
3039.276	n/a	REC_WORD	1519638	wordpools/wasnorm_wordpool_less_exclusions.txt	LTP229	ltpFR	18	15	-1	ELK	526	n/a	n/a	-1	n/a	n/a	n/a	n/a	n/a
3040.314	n/a	REC_WORD	1520157	wordpools/wasnorm_wordpool_less_exclusions.txt	LTP229	ltpFR	18	15	-1	GAZELLE	628	n/a	n/a	-1	n/a	n/a	n/a	n/a	n/a
3042.342	n/a	REC_WORD	1521171	wordpools/wasnorm_wordpool_less_exclusions.txt	LTP229	ltpFR	18	15	-1	VACUUM	1543	n/a	n/a	-1	n/a	n/a	n/a	n/a	n/a
3044.34	n/a	REC_WORD	1522170	wordpools/wasnorm_wordpool_less_exclusions.txt	LTP229	ltpFR	18	15	-1	POTTERY	1116	n/a	n/a	-1	n/a	n/a	n/a	n/a	n/a
3046.63	n/a	REC_WORD	1523315	wordpools/wasnorm_wordpool_less_exclusions.txt	LTP229	ltpFR	18	15	-1	OZONE	996	n/a	n/a	-1	n/a	n/a	n/a	n/a	n/a
3049.184	n/a	REC_WORD	1524592	wordpools/wasnorm_wordpool_less_exclusions.txt	LTP229	ltpFR	18	15	-1	OX	994	n/a	n/a	-1	n/a	n/a	n/a	n/a	n/a
3051.488	n/a	REC_WORD	1525744	wordpools/wasnorm_wordpool_less_exclusions.txt	LTP229	ltpFR	18	15	-1	SCREWDRIVER	1255	n/a	n/a	-1	n/a	n/a	n/a	n/a	n/a
3053.892	n/a	REC_WORD	1526946	wordpools/wasnorm_wordpool_less_exclusions.txt	LTP229	ltpFR	18	15	-1	PLIERS	1089	n/a	n/a	-1	n/a	n/a	n/a	n/a	n/a
3055.844	n/a	REC_WORD	1527922	wordpools/wasnorm_wordpool_less_exclusions.txt	LTP229	ltpFR	18	15	-1	CREAM	402	n/a	n/a	-1	n/a	n/a	n/a	n/a	n/a
3057.734	n/a	REC_WORD	1528867	wordpools/wasnorm_wordpool_less_exclusions.txt	LTP229	ltpFR	18	15	-1	FOREHEAD	592	n/a	n/a	-1	n/a	n/a	n/a	n/a	n/a
3063.716	n/a	REC_WORD	1531858	wordpools/wasnorm_wordpool_less_exclusions.txt	LTP229	ltpFR	18	15	-1	OTTER	986	n/a	n/a	-1	n/a	n/a	n/a	n/a	n/a
3138.756	n/a	WORD	1569378	wordpools/wasnorm_wordpool_less_exclusions.txt	LTP229	ltpFR	18	16	1	PUDDLE	1140	n/a	n/a	0	0.422607421875	0.5869140625	0	upper	zerothre.ttf
3142.75	n/a	WORD	1571375	wordpools/wasnorm_wordpool_less_exclusions.txt	LTP229	ltpFR	18	16	1	TENT	1449	n/a	n/a	0	0.422607421875	0.5869140625	0	upper	zerothre.ttf
3146.802	n/a	WORD	1573401	wordpools/wasnorm_wordpool_less_exclusions.txt	LTP229	ltpFR	18	16	1	DEPARTMENT	449	n/a	n/a	0	0.422607421875	0.5869140625	0	upper	zerothre.ttf
3150.668	n/a	WORD	1575334	wordpools/wasnorm_wordpool_less_exclusions.txt	LTP229	ltpFR	18	16	1	STORE	1387	n/a	n/a	0	0.422607421875	0.5869140625	0	upper	zerothre.ttf
3154.58	n/a	WORD	1577290	wordpools/wasnorm_wordpool_less_exclusions.txt	LTP229	ltpFR	18	16	1	CART	250	n/a	n/a	0	0.422607421875	0.5869140625	0	upper	zerothre.ttf
3158.514	n/a	WORD	1579257	wordpools/wasnorm_wordpool_less_exclusions.txt	LTP229	ltpFR	18	16	1	OCTOPUS	971	n/a	n/a	1	0.422607421875	0.5869140625	0	upper	zerothre.ttf
3162.614	n/a	WORD	1581307	wordpools/wasnorm_wordpool_less_exclusions.txt	LTP229	ltpFR	18	16	1	VASE	1549	n/a	n/a	0	0.422607421875	0.5869140625	0	upper	zerothre.ttf
3166.73	n/a	WORD	1583365	wordpools/wasnorm_wordpool_less_exclusions.txt	LTP229	ltpFR	18	16	1	BASKET	95	n/a	n/a	0	0.422607421875	0.5869140625	0	upper	zerothre.ttf
3170.728	n/a	WORD	1585364	wordpools/wasnorm_wordpool_less_exclusions.txt	LTP229	ltpFR	18	16	1	BUYER	208	n/a	n/a	1	0.422607421875	0.5869140625	0	upper	zerothre.ttf
3174.69	n/a	WORD	1587345	wordpools/wasnorm_wordpool_less_exclusions.txt	LTP229	ltpFR	18	16	1	OWNER	993	n/a	n/a	n/a	0.422607421875	0.5869140625	0	upper	zerothre.ttf
3177.738	n/a	SLOW_MSG	1588869	n/a	LTP229	ltpFR	18	16	n/a	n/a	n/a	n/a	n/a	n/a	n/a	n/a	n/a	n/a	n/a
3180.146	n/a	WORD	1590073	wordpools/wasnorm_wordpool_less_exclusions.txt	LTP229	ltpFR	18	16	1	ALLEY	15	n/a	n/a	0	0.422607421875	0.5869140625	0	upper	zerothre.ttf
3184.128	n/a	WORD	1592064	wordpools/wasnorm_wordpool_less_exclusions.txt	LTP229	ltpFR	18	16	1	HOSE	720	n/a	n/a	0	0.422607421875	0.5869140625	0	upper	zerothre.ttf
3188.34	n/a	WORD	1594170	wordpools/wasnorm_wordpool_less_exclusions.txt	LTP229	ltpFR	18	16	1	LODGE	839	n/a	n/a	0	0.422607421875	0.5869140625	0	upper	zerothre.ttf
3192.31	n/a	WORD	1596155	wordpools/wasnorm_wordpool_less_exclusions.txt	LTP229	ltpFR	18	16	1	GOOSE	649	n/a	n/a	1	0.422607421875	0.5869140625	0	upper	zerothre.ttf
3196.22	n/a	WORD	1598110	wordpools/wasnorm_wordpool_less_exclusions.txt	LTP229	ltpFR	18	16	1	WORM	1623	n/a	n/a	1	0.422607421875	0.5869140625	0	upper	zerothre.ttf
3200.09	n/a	WORD	1600045	wordpools/wasnorm_wordpool_less_exclusions.txt	LTP229	ltpFR	18	16	1	INN	739	n/a	n/a	0	0.422607421875	0.5869140625	0	upper	zerothre.ttf
3205.792	n/a	REC_START	1602896	n/a	LTP229	ltpFR	18	16	n/a	n/a	n/a	n/a	n/a	n/a	n/a	n/a	n/a	n/a	n/a
3206.874	n/a	REC_WORD	1603437	wordpools/wasnorm_wordpool_less_exclusions.txt	LTP229	ltpFR	18	16	1	GOOSE	649	n/a	n/a	1	n/a	n/a	n/a	n/a	n/a
3208.362	n/a	REC_WORD	1604181	wordpools/wasnorm_wordpool_less_exclusions.txt	LTP229	ltpFR	18	16	1	BUYER	208	n/a	n/a	1	n/a	n/a	n/a	n/a	n/a
3210.104	n/a	REC_WORD	1605052	wordpools/wasnorm_wordpool_less_exclusions.txt	LTP229	ltpFR	18	16	1	OWNER	993	n/a	n/a	n/a	n/a	n/a	n/a	n/a	n/a
3211.94	n/a	REC_WORD	1605970	wordpools/wasnorm_wordpool_less_exclusions.txt	LTP229	ltpFR	18	16	1	INN	739	n/a	n/a	0	n/a	n/a	n/a	n/a	n/a
3213.326	n/a	REC_WORD	1606663	wordpools/wasnorm_wordpool_less_exclusions.txt	LTP229	ltpFR	18	16	1	LODGE	839	n/a	n/a	0	n/a	n/a	n/a	n/a	n/a
3216.872	n/a	REC_WORD	1608436	wordpools/wasnorm_wordpool_less_exclusions.txt	LTP229	ltpFR	18	16	1	DEPARTMENT	449	n/a	n/a	0	n/a	n/a	n/a	n/a	n/a
3218.59	n/a	REC_WORD	1609295	wordpools/wasnorm_wordpool_less_exclusions.txt	LTP229	ltpFR	18	16	1	STORE	1387	n/a	n/a	0	n/a	n/a	n/a	n/a	n/a
3220.51	n/a	REC_WORD	1610255	wordpools/wasnorm_wordpool_less_exclusions.txt	LTP229	ltpFR	18	16	1	VASE	1549	n/a	n/a	0	n/a	n/a	n/a	n/a	n/a
3221.866	n/a	REC_WORD	1610933	wordpools/wasnorm_wordpool_less_exclusions.txt	LTP229	ltpFR	18	16	1	HOSE	720	n/a	n/a	0	n/a	n/a	n/a	n/a	n/a
3241.424	n/a	REC_WORD	1620712	wordpools/wasnorm_wordpool_less_exclusions.txt	LTP229	ltpFR	18	16	1	PUDDLE	1140	n/a	n/a	0	n/a	n/a	n/a	n/a	n/a
3243.384	n/a	REC_WORD	1621692	wordpools/wasnorm_wordpool_less_exclusions.txt	LTP229	ltpFR	18	16	1	TENT	1449	n/a	n/a	0	n/a	n/a	n/a	n/a	n/a
3253.93	n/a	REC_WORD	1626965	wordpools/wasnorm_wordpool_less_exclusions.txt	LTP229	ltpFR	18	16	n/a	CRATE	-1	n/a	n/a	n/a	n/a	n/a	n/a	n/a	n/a
3331.96	n/a	REC_START	1665980	n/a	LTP229	ltpFR	18	1	n/a	n/a	n/a	n/a	n/a	n/a	n/a	n/a	n/a	n/a	n/a
3332.01	n/a	RECOG_LURE	1666005	n/a	LTP229	ltpFR	18	1	n/a	SWEATER	1419	0	3	n/a	n/a	n/a	n/a	n/a	n/a
3333.242	n/a	RECOG_RESP	1666621	n/a	LTP229	ltpFR	18	1	n/a	SWEATER	1419	0	n/a	n/a	n/a	n/a	n/a	n/a	n/a
3334.38	n/a	RECOG_CONF	1667190	n/a	LTP229	ltpFR	18	1	n/a	SWEATER	1419	n/a	3	n/a	n/a	n/a	n/a	n/a	n/a
3336.176	n/a	RECOG_TARGET	1668088	n/a	LTP229	ltpFR	18	1	-1	SCREWDRIVER	1255	1	4	-1	n/a	n/a	n/a	n/a	n/a
3336.866	n/a	RECOG_RESP	1668433	n/a	LTP229	ltpFR	18	1	-1	SCREWDRIVER	1255	1	n/a	-1	n/a	n/a	n/a	n/a	n/a
3337.722	n/a	RECOG_CONF	1668861	n/a	LTP229	ltpFR	18	1	-1	SCREWDRIVER	1255	n/a	4	-1	n/a	n/a	n/a	n/a	n/a
3339.452	n/a	RECOG_LURE	1669726	n/a	LTP229	ltpFR	18	1	n/a	CHICKEN	297	1	2	n/a	n/a	n/a	n/a	n/a	n/a
3340.11	n/a	RECOG_RESP_VV	1670055	n/a	LTP229	ltpFR	18	1	n/a	CHICKEN	297	0	n/a	n/a	n/a	n/a	n/a	n/a	n/a
3341.35	n/a	RECOG_RESP	1670675	n/a	LTP229	ltpFR	18	1	n/a	CHICKEN	297	1	n/a	n/a	n/a	n/a	n/a	n/a	n/a
3343.022	n/a	RECOG_CONF	1671511	n/a	LTP229	ltpFR	18	1	n/a	CHICKEN	297	n/a	2	n/a	n/a	n/a	n/a	n/a	n/a
3344.926	n/a	RECOG_LURE	1672463	n/a	LTP229	ltpFR	18	1	n/a	CHICK	296	0	4	n/a	n/a	n/a	n/a	n/a	n/a
3345.886	n/a	RECOG_RESP	1672943	n/a	LTP229	ltpFR	18	1	n/a	CHICK	296	0	n/a	n/a	n/a	n/a	n/a	n/a	n/a
3346.634	n/a	RECOG_CONF	1673317	n/a	LTP229	ltpFR	18	1	n/a	CHICK	296	n/a	4	n/a	n/a	n/a	n/a	n/a	n/a
3348.404	n/a	RECOG_LURE	1674202	n/a	LTP229	ltpFR	18	1	n/a	HUT	729	0	4	n/a	n/a	n/a	n/a	n/a	n/a
3348.976	n/a	RECOG_RESP	1674488	n/a	LTP229	ltpFR	18	1	n/a	HUT	729	0	n/a	n/a	n/a	n/a	n/a	n/a	n/a
3349.662	n/a	RECOG_CONF	1674831	n/a	LTP229	ltpFR	18	1	n/a	HUT	729	n/a	4	n/a	n/a	n/a	n/a	n/a	n/a
3351.266	n/a	RECOG_TARGET	1675633	n/a	LTP229	ltpFR	18	1	1	STORE	1387	1	3	0	n/a	n/a	n/a	n/a	n/a
3352.066	n/a	RECOG_RESP	1676033	n/a	LTP229	ltpFR	18	1	1	STORE	1387	1	n/a	0	n/a	n/a	n/a	n/a	n/a
3352.908	n/a	RECOG_CONF	1676454	n/a	LTP229	ltpFR	18	1	1	STORE	1387	n/a	3	0	n/a	n/a	n/a	n/a	n/a
3354.546	n/a	RECOG_LURE	1677273	n/a	LTP229	ltpFR	18	1	n/a	TUNA	1518	0	5	n/a	n/a	n/a	n/a	n/a	n/a
3355.38	n/a	RECOG_RESP	1677690	n/a	LTP229	ltpFR	18	1	n/a	TUNA	1518	0	n/a	n/a	n/a	n/a	n/a	n/a	n/a
3356.086	n/a	RECOG_CONF	1678043	n/a	LTP229	ltpFR	18	1	n/a	TUNA	1518	n/a	5	n/a	n/a	n/a	n/a	n/a	n/a
3357.892	n/a	RECOG_LURE	1678946	n/a	LTP229	ltpFR	18	1	n/a	POTATO	1115	0	2	n/a	n/a	n/a	n/a	n/a	n/a
3358.58	n/a	RECOG_RESP	1679290	n/a	LTP229	ltpFR	18	1	n/a	POTATO	1115	0	n/a	n/a	n/a	n/a	n/a	n/a	n/a
3359.31	n/a	RECOG_CONF	1679655	n/a	LTP229	ltpFR	18	1	n/a	POTATO	1115	n/a	2	n/a	n/a	n/a	n/a	n/a	n/a
3361.038	n/a	RECOG_TARGET	1680519	n/a	LTP229	ltpFR	18	1	0	NOTE	958	1	5	0	n/a	n/a	n/a	n/a	n/a
3361.82	n/a	RECOG_RESP	1680910	n/a	LTP229	ltpFR	18	1	0	NOTE	958	1	n/a	0	n/a	n/a	n/a	n/a	n/a
3362.5	n/a	RECOG_CONF	1681250	n/a	LTP229	ltpFR	18	1	0	NOTE	958	n/a	5	0	n/a	n/a	n/a	n/a	n/a
3364.05	n/a	RECOG_TARGET	1682025	n/a	LTP229	ltpFR	18	1	1	CAPTAIN	239	1	3	1	n/a	n/a	n/a	n/a	n/a
3364.734	n/a	RECOG_RESP	1682367	n/a	LTP229	ltpFR	18	1	1	CAPTAIN	239	1	n/a	1	n/a	n/a	n/a	n/a	n/a
3365.43	n/a	RECOG_CONF	1682715	n/a	LTP229	ltpFR	18	1	1	CAPTAIN	239	n/a	3	1	n/a	n/a	n/a	n/a	n/a
3367.01	n/a	RECOG_LURE	1683505	n/a	LTP229	ltpFR	18	1	n/a	PADDLE	1000	0	1	n/a	n/a	n/a	n/a	n/a	n/a
3368.126	n/a	RECOG_RESP	1684063	n/a	LTP229	ltpFR	18	1	n/a	PADDLE	1000	0	n/a	n/a	n/a	n/a	n/a	n/a	n/a
3368.83	n/a	RECOG_CONF	1684415	n/a	LTP229	ltpFR	18	1	n/a	PADDLE	1000	n/a	1	n/a	n/a	n/a	n/a	n/a	n/a
3370.39	n/a	RECOG_TARGET	1685195	n/a	LTP229	ltpFR	18	1	0	CARTON	251	1	4	0	n/a	n/a	n/a	n/a	n/a
3371.122	n/a	RECOG_RESP	1685561	n/a	LTP229	ltpFR	18	1	0	CARTON	251	1	n/a	0	n/a	n/a	n/a	n/a	n/a
3371.688	n/a	RECOG_CONF	1685844	n/a	LTP229	ltpFR	18	1	0	CARTON	251	n/a	4	0	n/a	n/a	n/a	n/a	n/a
3373.398	n/a	RECOG_TARGET	1686699	n/a	LTP229	ltpFR	18	1	1	AIRPORT	13	1	5	0	n/a	n/a	n/a	n/a	n/a
3374.13	n/a	RECOG_RESP	1687065	n/a	LTP229	ltpFR	18	1	1	AIRPORT	13	1	n/a	0	n/a	n/a	n/a	n/a	n/a
3374.78	n/a	RECOG_CONF	1687390	n/a	LTP229	ltpFR	18	1	1	AIRPORT	13	n/a	5	0	n/a	n/a	n/a	n/a	n/a
3376.394	n/a	RECOG_TARGET	1688197	n/a	LTP229	ltpFR	18	1	1	SCAPEGOAT	1244	1	3	1	n/a	n/a	n/a	n/a	n/a
3377.104	n/a	RECOG_RESP	1688552	n/a	LTP229	ltpFR	18	1	1	SCAPEGOAT	1244	1	n/a	1	n/a	n/a	n/a	n/a	n/a
3377.74	n/a	RECOG_CONF	1688870	n/a	LTP229	ltpFR	18	1	1	SCAPEGOAT	1244	n/a	3	1	n/a	n/a	n/a	n/a	n/a
3379.492	n/a	RECOG_TARGET	1689746	n/a	LTP229	ltpFR	18	1	-1	HAMBURGER	679	1	2	-1	n/a	n/a	n/a	n/a	n/a
3379.986	n/a	RECOG_RESP	1689993	n/a	LTP229	ltpFR	18	1	-1	HAMBURGER	679	1	n/a	-1	n/a	n/a	n/a	n/a	n/a
3380.608	n/a	RECOG_CONF	1690304	n/a	LTP229	ltpFR	18	1	-1	HAMBURGER	679	n/a	2	-1	n/a	n/a	n/a	n/a	n/a
3382.336	n/a	RECOG_LURE	1691168	n/a	LTP229	ltpFR	18	1	n/a	BURGLAR	200	0	5	n/a	n/a	n/a	n/a	n/a	n/a
3383.242	n/a	RECOG_RESP	1691621	n/a	LTP229	ltpFR	18	1	n/a	BURGLAR	200	0	n/a	n/a	n/a	n/a	n/a	n/a	n/a
3383.806	n/a	RECOG_CONF	1691903	n/a	LTP229	ltpFR	18	1	n/a	BURGLAR	200	n/a	5	n/a	n/a	n/a	n/a	n/a	n/a
3385.412	n/a	RECOG_LURE	1692706	n/a	LTP229	ltpFR	18	1	n/a	JELLO	754	0	5	n/a	n/a	n/a	n/a	n/a	n/a
3386.174	n/a	RECOG_RESP	1693087	n/a	LTP229	ltpFR	18	1	n/a	JELLO	754	0	n/a	n/a	n/a	n/a	n/a	n/a	n/a
3386.756	n/a	RECOG_CONF	1693378	n/a	LTP229	ltpFR	18	1	n/a	JELLO	754	n/a	5	n/a	n/a	n/a	n/a	n/a	n/a
3388.276	n/a	RECOG_TARGET	1694138	n/a	LTP229	ltpFR	18	1	-1	OUTLAW	989	1	3	-1	n/a	n/a	n/a	n/a	n/a
3389.368	n/a	RECOG_RESP	1694684	n/a	LTP229	ltpFR	18	1	-1	OUTLAW	989	1	n/a	-1	n/a	n/a	n/a	n/a	n/a
3389.924	n/a	RECOG_CONF	1694962	n/a	LTP229	ltpFR	18	1	-1	OUTLAW	989	n/a	3	-1	n/a	n/a	n/a	n/a	n/a
3391.722	n/a	RECOG_TARGET	1695861	n/a	LTP229	ltpFR	18	1	1	DANDRUFF	439	1	2	0	n/a	n/a	n/a	n/a	n/a
3392.67	n/a	RECOG_RESP	1696335	n/a	LTP229	ltpFR	18	1	1	DANDRUFF	439	1	n/a	0	n/a	n/a	n/a	n/a	n/a
3393.288	n/a	RECOG_CONF	1696644	n/a	LTP229	ltpFR	18	1	1	DANDRUFF	439	n/a	2	0	n/a	n/a	n/a	n/a	n/a
3394.984	n/a	RECOG_TARGET	1697492	n/a	LTP229	ltpFR	18	1	1	CATCHER	258	1	4	1	n/a	n/a	n/a	n/a	n/a
3395.65	n/a	RECOG_RESP	1697825	n/a	LTP229	ltpFR	18	1	1	CATCHER	258	1	n/a	1	n/a	n/a	n/a	n/a	n/a
3396.312	n/a	RECOG_CONF	1698156	n/a	LTP229	ltpFR	18	1	1	CATCHER	258	n/a	4	1	n/a	n/a	n/a	n/a	n/a
3403.904	n/a	REC_START	1701952	n/a	LTP229	ltpFR	18	2	n/a	n/a	n/a	n/a	n/a	n/a	n/a	n/a	n/a	n/a	n/a
3403.952	n/a	RECOG_TARGET	1701976	n/a	LTP229	ltpFR	18	2	0	ESSAY	540	1	2	0	n/a	n/a	n/a	n/a	n/a
3404.53	n/a	RECOG_RESP	1702265	n/a	LTP229	ltpFR	18	2	0	ESSAY	540	1	n/a	0	n/a	n/a	n/a	n/a	n/a
3405.146	n/a	RECOG_CONF	1702573	n/a	LTP229	ltpFR	18	2	0	ESSAY	540	n/a	2	0	n/a	n/a	n/a	n/a	n/a
3406.93	n/a	RECOG_TARGET	1703465	n/a	LTP229	ltpFR	18	2	-1	MILK	895	1	3	-1	n/a	n/a	n/a	n/a	n/a
3407.704	n/a	RECOG_RESP	1703852	n/a	LTP229	ltpFR	18	2	-1	MILK	895	1	n/a	-1	n/a	n/a	n/a	n/a	n/a
3408.232	n/a	RECOG_CONF	1704116	n/a	LTP229	ltpFR	18	2	-1	MILK	895	n/a	3	-1	n/a	n/a	n/a	n/a	n/a
3409.908	n/a	RECOG_TARGET	1704954	n/a	LTP229	ltpFR	18	2	1	OCTOPUS	971	1	5	1	n/a	n/a	n/a	n/a	n/a
3410.62	n/a	RECOG_RESP_VV	1705310	n/a	LTP229	ltpFR	18	2	1	OCTOPUS	971	0	n/a	1	n/a	n/a	n/a	n/a	n/a
3411.248	n/a	RECOG_RESP	1705624	n/a	LTP229	ltpFR	18	2	1	OCTOPUS	971	1	n/a	1	n/a	n/a	n/a	n/a	n/a
3412.432	n/a	RECOG_CONF	1706216	n/a	LTP229	ltpFR	18	2	1	OCTOPUS	971	n/a	5	1	n/a	n/a	n/a	n/a	n/a
3414.156	n/a	RECOG_TARGET	1707078	n/a	LTP229	ltpFR	18	2	-1	COMB	351	1	2	-1	n/a	n/a	n/a	n/a	n/a
3414.842	n/a	RECOG_RESP	1707421	n/a	LTP229	ltpFR	18	2	-1	COMB	351	1	n/a	-1	n/a	n/a	n/a	n/a	n/a
3415.48	n/a	RECOG_CONF	1707740	n/a	LTP229	ltpFR	18	2	-1	COMB	351	n/a	2	-1	n/a	n/a	n/a	n/a	n/a
3417.068	n/a	RECOG_TARGET	1708534	n/a	LTP229	ltpFR	18	2	0	SPAGHETTI	1346	1	4	0	n/a	n/a	n/a	n/a	n/a
3417.694	n/a	RECOG_RESP	1708847	n/a	LTP229	ltpFR	18	2	0	SPAGHETTI	1346	1	n/a	0	n/a	n/a	n/a	n/a	n/a
3418.312	n/a	RECOG_CONF	1709156	n/a	LTP229	ltpFR	18	2	0	SPAGHETTI	1346	n/a	4	0	n/a	n/a	n/a	n/a	n/a
3420.03	n/a	RECOG_LURE	1710015	n/a	LTP229	ltpFR	18	2	n/a	IDOL	733	0	4	n/a	n/a	n/a	n/a	n/a	n/a
3420.86	n/a	RECOG_RESP	1710430	n/a	LTP229	ltpFR	18	2	n/a	IDOL	733	0	n/a	n/a	n/a	n/a	n/a	n/a	n/a
3421.442	n/a	RECOG_CONF	1710721	n/a	LTP229	ltpFR	18	2	n/a	IDOL	733	n/a	4	n/a	n/a	n/a	n/a	n/a	n/a
3423.176	n/a	RECOG_TARGET	1711588	n/a	LTP229	ltpFR	18	2	-1	PUMPKIN	1142	1	5	-1	n/a	n/a	n/a	n/a	n/a
3423.884	n/a	RECOG_RESP	1711942	n/a	LTP229	ltpFR	18	2	-1	PUMPKIN	1142	1	n/a	-1	n/a	n/a	n/a	n/a	n/a
3424.524	n/a	RECOG_CONF	1712262	n/a	LTP229	ltpFR	18	2	-1	PUMPKIN	1142	n/a	5	-1	n/a	n/a	n/a	n/a	n/a
3426.286	n/a	RECOG_TARGET	1713143	n/a	LTP229	ltpFR	18	2	1	SPIT	1354	1	2	0	n/a	n/a	n/a	n/a	n/a
3427.158	n/a	RECOG_RESP	1713579	n/a	LTP229	ltpFR	18	2	1	SPIT	1354	1	n/a	0	n/a	n/a	n/a	n/a	n/a
3429.224	n/a	RECOG_CONF	1714612	n/a	LTP229	ltpFR	18	2	1	SPIT	1354	n/a	2	0	n/a	n/a	n/a	n/a	n/a
3431.022	n/a	RECOG_LURE	1715511	n/a	LTP229	ltpFR	18	2	n/a	OFFICE	972	0	3	n/a	n/a	n/a	n/a	n/a	n/a
3431.656	n/a	RECOG_RESP	1715828	n/a	LTP229	ltpFR	18	2	n/a	OFFICE	972	0	n/a	n/a	n/a	n/a	n/a	n/a	n/a
3432.26	n/a	RECOG_CONF	1716130	n/a	LTP229	ltpFR	18	2	n/a	OFFICE	972	n/a	3	n/a	n/a	n/a	n/a	n/a	n/a
3433.982	n/a	RECOG_TARGET	1716991	n/a	LTP229	ltpFR	18	2	1	PLUM	1090	1	4	0	n/a	n/a	n/a	n/a	n/a
3434.622	n/a	RECOG_RESP	1717311	n/a	LTP229	ltpFR	18	2	1	PLUM	1090	1	n/a	0	n/a	n/a	n/a	n/a	n/a
3435.24	n/a	RECOG_CONF	1717620	n/a	LTP229	ltpFR	18	2	1	PLUM	1090	n/a	4	0	n/a	n/a	n/a	n/a	n/a
3436.742	n/a	RECOG_LURE	1718371	n/a	LTP229	ltpFR	18	2	n/a	STOMACH	1384	0	1	n/a	n/a	n/a	n/a	n/a	n/a
3438.454	n/a	RECOG_RESP	1719227	n/a	LTP229	ltpFR	18	2	n/a	STOMACH	1384	0	n/a	n/a	n/a	n/a	n/a	n/a	n/a
3439.238	n/a	RECOG_CONF	1719619	n/a	LTP229	ltpFR	18	2	n/a	STOMACH	1384	n/a	1	n/a	n/a	n/a	n/a	n/a	n/a
3440.894	n/a	RECOG_TARGET	1720447	n/a	LTP229	ltpFR	18	2	-1	PHOTO	1055	1	3	-1	n/a	n/a	n/a	n/a	n/a
3441.87	n/a	RECOG_RESP	1720935	n/a	LTP229	ltpFR	18	2	-1	PHOTO	1055	1	n/a	-1	n/a	n/a	n/a	n/a	n/a
3442.434	n/a	RECOG_CONF	1721217	n/a	LTP229	ltpFR	18	2	-1	PHOTO	1055	n/a	3	-1	n/a	n/a	n/a	n/a	n/a
3444.256	n/a	RECOG_TARGET	1722128	n/a	LTP229	ltpFR	18	2	-1	BRAKE	166	1	4	-1	n/a	n/a	n/a	n/a	n/a
3444.914	n/a	RECOG_RESP	1722457	n/a	LTP229	ltpFR	18	2	-1	BRAKE	166	1	n/a	-1	n/a	n/a	n/a	n/a	n/a
3445.56	n/a	RECOG_CONF	1722780	n/a	LTP229	ltpFR	18	2	-1	BRAKE	166	n/a	4	-1	n/a	n/a	n/a	n/a	n/a
3447.216	n/a	RECOG_LURE	1723608	n/a	LTP229	ltpFR	18	2	n/a	RACKET	1155	0	2	n/a	n/a	n/a	n/a	n/a	n/a
3449.654	n/a	RECOG_RESP	1724827	n/a	LTP229	ltpFR	18	2	n/a	RACKET	1155	0	n/a	n/a	n/a	n/a	n/a	n/a	n/a
3450.452	n/a	RECOG_CONF	1725226	n/a	LTP229	ltpFR	18	2	n/a	RACKET	1155	n/a	2	n/a	n/a	n/a	n/a	n/a	n/a
3452.034	n/a	RECOG_TARGET	1726017	n/a	LTP229	ltpFR	18	2	-1	CREAM	402	1	3	-1	n/a	n/a	n/a	n/a	n/a
3452.65	n/a	RECOG_RESP	1726325	n/a	LTP229	ltpFR	18	2	-1	CREAM	402	1	n/a	-1	n/a	n/a	n/a	n/a	n/a
3453.2	n/a	RECOG_CONF	1726600	n/a	LTP229	ltpFR	18	2	-1	CREAM	402	n/a	3	-1	n/a	n/a	n/a	n/a	n/a
3454.998	n/a	RECOG_LURE	1727499	n/a	LTP229	ltpFR	18	2	n/a	TWEEZERS	1526	0	4	n/a	n/a	n/a	n/a	n/a	n/a
3455.686	n/a	RECOG_RESP	1727843	n/a	LTP229	ltpFR	18	2	n/a	TWEEZERS	1526	0	n/a	n/a	n/a	n/a	n/a	n/a	n/a
3456.232	n/a	RECOG_CONF	1728116	n/a	LTP229	ltpFR	18	2	n/a	TWEEZERS	1526	n/a	4	n/a	n/a	n/a	n/a	n/a	n/a
3457.876	n/a	RECOG_TARGET	1728938	n/a	LTP229	ltpFR	18	2	1	LODGE	839	1	2	0	n/a	n/a	n/a	n/a	n/a
3458.554	n/a	RECOG_RESP	1729277	n/a	LTP229	ltpFR	18	2	1	LODGE	839	1	n/a	0	n/a	n/a	n/a	n/a	n/a
3459.2	n/a	RECOG_CONF	1729600	n/a	LTP229	ltpFR	18	2	1	LODGE	839	n/a	2	0	n/a	n/a	n/a	n/a	n/a
3460.902	n/a	RECOG_TARGET	1730451	n/a	LTP229	ltpFR	18	2	1	QUAIL	1147	1	4	0	n/a	n/a	n/a	n/a	n/a
3461.584	n/a	RECOG_RESP	1730792	n/a	LTP229	ltpFR	18	2	1	QUAIL	1147	1	n/a	0	n/a	n/a	n/a	n/a	n/a
3462.13	n/a	RECOG_CONF	1731065	n/a	LTP229	ltpFR	18	2	1	QUAIL	1147	n/a	4	0	n/a	n/a	n/a	n/a	n/a
3463.71	n/a	RECOG_TARGET	1731855	n/a	LTP229	ltpFR	18	2	0	STRING	1394	1	5	0	n/a	n/a	n/a	n/a	n/a
3464.31	n/a	RECOG_RESP	1732155	n/a	LTP229	ltpFR	18	2	0	STRING	1394	1	n/a	0	n/a	n/a	n/a	n/a	n/a
3464.924	n/a	RECOG_CONF	1732462	n/a	LTP229	ltpFR	18	2	0	STRING	1394	n/a	5	0	n/a	n/a	n/a	n/a	n/a
3466.542	n/a	RECOG_LURE	1733271	n/a	LTP229	ltpFR	18	2	n/a	OUTDOORS	987	0	2	n/a	n/a	n/a	n/a	n/a	n/a
3467.328	n/a	RECOG_RESP	1733664	n/a	LTP229	ltpFR	18	2	n/a	OUTDOORS	987	0	n/a	n/a	n/a	n/a	n/a	n/a	n/a
3467.888	n/a	RECOG_CONF	1733944	n/a	LTP229	ltpFR	18	2	n/a	OUTDOORS	987	n/a	2	n/a	n/a	n/a	n/a	n/a	n/a
3474.698	n/a	REC_START	1737349	n/a	LTP229	ltpFR	18	3	n/a	n/a	n/a	n/a	n/a	n/a	n/a	n/a	n/a	n/a	n/a
3474.756	n/a	RECOG_TARGET	1737378	n/a	LTP229	ltpFR	18	3	-1	SCOTCH	1251	1	3	-1	n/a	n/a	n/a	n/a	n/a
3475.418	n/a	RECOG_RESP	1737709	n/a	LTP229	ltpFR	18	3	-1	SCOTCH	1251	1	n/a	-1	n/a	n/a	n/a	n/a	n/a
3476.29	n/a	RECOG_CONF	1738145	n/a	LTP229	ltpFR	18	3	-1	SCOTCH	1251	n/a	3	-1	n/a	n/a	n/a	n/a	n/a
3477.964	n/a	RECOG_LURE	1738982	n/a	LTP229	ltpFR	18	3	n/a	MUSTARD	935	0	4	n/a	n/a	n/a	n/a	n/a	n/a
3478.616	n/a	RECOG_RESP	1739308	n/a	LTP229	ltpFR	18	3	n/a	MUSTARD	935	0	n/a	n/a	n/a	n/a	n/a	n/a	n/a
3479.302	n/a	RECOG_CONF	1739651	n/a	LTP229	ltpFR	18	3	n/a	MUSTARD	935	n/a	4	n/a	n/a	n/a	n/a	n/a	n/a
3480.942	n/a	RECOG_TARGET	1740471	n/a	LTP229	ltpFR	18	3	-1	STAKE	1368	1	5	-1	n/a	n/a	n/a	n/a	n/a
3481.554	n/a	RECOG_RESP	1740777	n/a	LTP229	ltpFR	18	3	-1	STAKE	1368	1	n/a	-1	n/a	n/a	n/a	n/a	n/a
3482.146	n/a	RECOG_CONF	1741073	n/a	LTP229	ltpFR	18	3	-1	STAKE	1368	n/a	5	-1	n/a	n/a	n/a	n/a	n/a
3483.758	n/a	RECOG_TARGET	1741879	n/a	LTP229	ltpFR	18	3	0	SHEEP	1278	1	2	1	n/a	n/a	n/a	n/a	n/a
3484.436	n/a	RECOG_RESP	1742218	n/a	LTP229	ltpFR	18	3	0	SHEEP	1278	1	n/a	1	n/a	n/a	n/a	n/a	n/a
3484.99	n/a	RECOG_CONF	1742495	n/a	LTP229	ltpFR	18	3	0	SHEEP	1278	n/a	2	1	n/a	n/a	n/a	n/a	n/a
3486.498	n/a	RECOG_TARGET	1743249	n/a	LTP229	ltpFR	18	3	0	SIBLING	1301	1	3	0	n/a	n/a	n/a	n/a	n/a
3487.112	n/a	RECOG_RESP	1743556	n/a	LTP229	ltpFR	18	3	0	SIBLING	1301	1	n/a	0	n/a	n/a	n/a	n/a	n/a
3487.674	n/a	RECOG_CONF	1743837	n/a	LTP229	ltpFR	18	3	0	SIBLING	1301	n/a	3	0	n/a	n/a	n/a	n/a	n/a
3489.29	n/a	RECOG_TARGET	1744645	n/a	LTP229	ltpFR	18	3	1	CART	250	1	4	0	n/a	n/a	n/a	n/a	n/a
3489.92	n/a	RECOG_RESP	1744960	n/a	LTP229	ltpFR	18	3	1	CART	250	1	n/a	0	n/a	n/a	n/a	n/a	n/a
3490.538	n/a	RECOG_CONF	1745269	n/a	LTP229	ltpFR	18	3	1	CART	250	n/a	4	0	n/a	n/a	n/a	n/a	n/a
3491.988	n/a	RECOG_TARGET	1745994	n/a	LTP229	ltpFR	18	3	1	BANJO	82	1	1	0	n/a	n/a	n/a	n/a	n/a
3492.664	n/a	RECOG_RESP	1746332	n/a	LTP229	ltpFR	18	3	1	BANJO	82	1	n/a	0	n/a	n/a	n/a	n/a	n/a
3493.204	n/a	RECOG_CONF	1746602	n/a	LTP229	ltpFR	18	3	1	BANJO	82	n/a	1	0	n/a	n/a	n/a	n/a	n/a
3494.716	n/a	RECOG_TARGET	1747358	n/a	LTP229	ltpFR	18	3	-1	GAZELLE	628	1	4	-1	n/a	n/a	n/a	n/a	n/a
3495.558	n/a	RECOG_RESP	1747779	n/a	LTP229	ltpFR	18	3	-1	GAZELLE	628	1	n/a	-1	n/a	n/a	n/a	n/a	n/a
3496.286	n/a	RECOG_CONF	1748143	n/a	LTP229	ltpFR	18	3	-1	GAZELLE	628	n/a	4	-1	n/a	n/a	n/a	n/a	n/a
3497.91	n/a	RECOG_LURE	1748955	n/a	LTP229	ltpFR	18	3	n/a	PATIO	1025	0	2	n/a	n/a	n/a	n/a	n/a	n/a
3498.706	n/a	RECOG_RESP	1749353	n/a	LTP229	ltpFR	18	3	n/a	PATIO	1025	0	n/a	n/a	n/a	n/a	n/a	n/a	n/a
3499.236	n/a	RECOG_CONF	1749618	n/a	LTP229	ltpFR	18	3	n/a	PATIO	1025	n/a	2	n/a	n/a	n/a	n/a	n/a	n/a
3500.872	n/a	RECOG_LURE	1750436	n/a	LTP229	ltpFR	18	3	n/a	BODY	145	0	1	n/a	n/a	n/a	n/a	n/a	n/a
3501.674	n/a	RECOG_RESP	1750837	n/a	LTP229	ltpFR	18	3	n/a	BODY	145	0	n/a	n/a	n/a	n/a	n/a	n/a	n/a
3502.402	n/a	RECOG_CONF	1751201	n/a	LTP229	ltpFR	18	3	n/a	BODY	145	n/a	1	n/a	n/a	n/a	n/a	n/a	n/a
3503.95	n/a	RECOG_TARGET	1751975	n/a	LTP229	ltpFR	18	3	1	DEPARTMENT	449	1	3	0	n/a	n/a	n/a	n/a	n/a
3504.752	n/a	RECOG_RESP	1752376	n/a	LTP229	ltpFR	18	3	1	DEPARTMENT	449	1	n/a	0	n/a	n/a	n/a	n/a	n/a
3505.308	n/a	RECOG_CONF	1752654	n/a	LTP229	ltpFR	18	3	1	DEPARTMENT	449	n/a	3	0	n/a	n/a	n/a	n/a	n/a
3506.878	n/a	RECOG_TARGET	1753439	n/a	LTP229	ltpFR	18	3	1	MONK	910	1	4	1	n/a	n/a	n/a	n/a	n/a
3507.626	n/a	RECOG_RESP	1753813	n/a	LTP229	ltpFR	18	3	1	MONK	910	1	n/a	1	n/a	n/a	n/a	n/a	n/a
3508.208	n/a	RECOG_CONF	1754104	n/a	LTP229	ltpFR	18	3	1	MONK	910	n/a	4	1	n/a	n/a	n/a	n/a	n/a
3509.974	n/a	RECOG_TARGET	1754987	n/a	LTP229	ltpFR	18	3	0	COOLER	375	1	2	0	n/a	n/a	n/a	n/a	n/a
3510.754	n/a	RECOG_RESP	1755377	n/a	LTP229	ltpFR	18	3	0	COOLER	375	1	n/a	0	n/a	n/a	n/a	n/a	n/a
3511.376	n/a	RECOG_CONF	1755688	n/a	LTP229	ltpFR	18	3	0	COOLER	375	n/a	2	0	n/a	n/a	n/a	n/a	n/a
3513.098	n/a	RECOG_LURE	1756549	n/a	LTP229	ltpFR	18	3	n/a	VILLAGE	1566	0	5	n/a	n/a	n/a	n/a	n/a	n/a
3513.792	n/a	RECOG_RESP	1756896	n/a	LTP229	ltpFR	18	3	n/a	VILLAGE	1566	0	n/a	n/a	n/a	n/a	n/a	n/a	n/a
3514.426	n/a	RECOG_CONF	1757213	n/a	LTP229	ltpFR	18	3	n/a	VILLAGE	1566	n/a	5	n/a	n/a	n/a	n/a	n/a	n/a
3515.964	n/a	RECOG_TARGET	1757982	n/a	LTP229	ltpFR	18	3	1	BASSINET	97	1	3	0	n/a	n/a	n/a	n/a	n/a
3517.006	n/a	RECOG_RESP	1758503	n/a	LTP229	ltpFR	18	3	1	BASSINET	97	1	n/a	0	n/a	n/a	n/a	n/a	n/a
3517.628	n/a	RECOG_CONF	1758814	n/a	LTP229	ltpFR	18	3	1	BASSINET	97	n/a	3	0	n/a	n/a	n/a	n/a	n/a
3519.276	n/a	RECOG_LURE	1759638	n/a	LTP229	ltpFR	18	3	n/a	PLAID	1080	0	2	n/a	n/a	n/a	n/a	n/a	n/a
3520.112	n/a	RECOG_RESP	1760056	n/a	LTP229	ltpFR	18	3	n/a	PLAID	1080	0	n/a	n/a	n/a	n/a	n/a	n/a	n/a
3520.61	n/a	RECOG_CONF	1760305	n/a	LTP229	ltpFR	18	3	n/a	PLAID	1080	n/a	2	n/a	n/a	n/a	n/a	n/a	n/a
3522.32	n/a	RECOG_TARGET	1761160	n/a	LTP229	ltpFR	18	3	0	CUPBOARD	425	1	4	0	n/a	n/a	n/a	n/a	n/a
3523.0	n/a	RECOG_RESP	1761500	n/a	LTP229	ltpFR	18	3	0	CUPBOARD	425	1	n/a	0	n/a	n/a	n/a	n/a	n/a
3523.534	n/a	RECOG_CONF	1761767	n/a	LTP229	ltpFR	18	3	0	CUPBOARD	425	n/a	4	0	n/a	n/a	n/a	n/a	n/a
3525.232	n/a	RECOG_TARGET	1762616	n/a	LTP229	ltpFR	18	3	-1	WHEEL	1603	1	3	-1	n/a	n/a	n/a	n/a	n/a
3525.856	n/a	RECOG_RESP	1762928	n/a	LTP229	ltpFR	18	3	-1	WHEEL	1603	1	n/a	-1	n/a	n/a	n/a	n/a	n/a
3526.498	n/a	RECOG_CONF	1763249	n/a	LTP229	ltpFR	18	3	-1	WHEEL	1603	n/a	3	-1	n/a	n/a	n/a	n/a	n/a
3527.992	n/a	RECOG_TARGET	1763996	n/a	LTP229	ltpFR	18	3	-1	BEER	114	1	5	-1	n/a	n/a	n/a	n/a	n/a
3528.616	n/a	RECOG_RESP	1764308	n/a	LTP229	ltpFR	18	3	-1	BEER	114	1	n/a	-1	n/a	n/a	n/a	n/a	n/a
3529.272	n/a	RECOG_CONF	1764636	n/a	LTP229	ltpFR	18	3	-1	BEER	114	n/a	5	-1	n/a	n/a	n/a	n/a	n/a
3530.988	n/a	RECOG_TARGET	1765494	n/a	LTP229	ltpFR	18	3	0	PUBLICATION	1136	1	2	0	n/a	n/a	n/a	n/a	n/a
3531.79	n/a	RECOG_RESP	1765895	n/a	LTP229	ltpFR	18	3	0	PUBLICATION	1136	1	n/a	0	n/a	n/a	n/a	n/a	n/a
3532.356	n/a	RECOG_CONF	1766178	n/a	LTP229	ltpFR	18	3	0	PUBLICATION	1136	n/a	2	0	n/a	n/a	n/a	n/a	n/a
3536.172	n/a	REC_START	1768086	n/a	LTP229	ltpFR	18	4	n/a	n/a	n/a	n/a	n/a	n/a	n/a	n/a	n/a	n/a	n/a
3536.224	n/a	RECOG_TARGET	1768112	n/a	LTP229	ltpFR	18	4	1	NAVIGATOR	938	1	2	1	n/a	n/a	n/a	n/a	n/a
3537.036	n/a	RECOG_RESP	1768518	n/a	LTP229	ltpFR	18	4	1	NAVIGATOR	938	1	n/a	1	n/a	n/a	n/a	n/a	n/a
3537.652	n/a	RECOG_CONF	1768826	n/a	LTP229	ltpFR	18	4	1	NAVIGATOR	938	n/a	2	1	n/a	n/a	n/a	n/a	n/a
3539.184	n/a	RECOG_TARGET	1769592	n/a	LTP229	ltpFR	18	4	1	MEAL	882	1	3	0	n/a	n/a	n/a	n/a	n/a
3539.75	n/a	RECOG_RESP	1769875	n/a	LTP229	ltpFR	18	4	1	MEAL	882	1	n/a	0	n/a	n/a	n/a	n/a	n/a
3540.254	n/a	RECOG_CONF	1770127	n/a	LTP229	ltpFR	18	4	1	MEAL	882	n/a	3	0	n/a	n/a	n/a	n/a	n/a
3541.792	n/a	RECOG_TARGET	1770896	n/a	LTP229	ltpFR	18	4	0	COW	393	1	4	1	n/a	n/a	n/a	n/a	n/a
3542.26	n/a	RECOG_RESP	1771130	n/a	LTP229	ltpFR	18	4	0	COW	393	1	n/a	1	n/a	n/a	n/a	n/a	n/a
3542.852	n/a	RECOG_CONF	1771426	n/a	LTP229	ltpFR	18	4	0	COW	393	n/a	4	1	n/a	n/a	n/a	n/a	n/a
3544.418	n/a	RECOG_LURE	1772209	n/a	LTP229	ltpFR	18	4	n/a	BOYFRIEND	162	0	2	n/a	n/a	n/a	n/a	n/a	n/a
3545.14	n/a	RECOG_RESP	1772570	n/a	LTP229	ltpFR	18	4	n/a	BOYFRIEND	162	0	n/a	n/a	n/a	n/a	n/a	n/a	n/a
3545.71	n/a	RECOG_CONF	1772855	n/a	LTP229	ltpFR	18	4	n/a	BOYFRIEND	162	n/a	2	n/a	n/a	n/a	n/a	n/a	n/a
3547.248	n/a	RECOG_TARGET	1773624	n/a	LTP229	ltpFR	18	4	1	CABIN	211	1	4	0	n/a	n/a	n/a	n/a	n/a
3548.74	n/a	RECOG_RESP	1774370	n/a	LTP229	ltpFR	18	4	1	CABIN	211	1	n/a	0	n/a	n/a	n/a	n/a	n/a
3549.256	n/a	RECOG_CONF	1774628	n/a	LTP229	ltpFR	18	4	1	CABIN	211	n/a	4	0	n/a	n/a	n/a	n/a	n/a
3550.93	n/a	RECOG_TARGET	1775465	n/a	LTP229	ltpFR	18	4	1	SACK	1220	1	1	0	n/a	n/a	n/a	n/a	n/a
3551.628	n/a	RECOG_RESP	1775814	n/a	LTP229	ltpFR	18	4	1	SACK	1220	1	n/a	0	n/a	n/a	n/a	n/a	n/a
3552.146	n/a	RECOG_CONF	1776073	n/a	LTP229	ltpFR	18	4	1	SACK	1220	n/a	1	0	n/a	n/a	n/a	n/a	n/a
3553.86	n/a	RECOG_TARGET	1776930	n/a	LTP229	ltpFR	18	4	1	MAILBOX	857	1	2	0	n/a	n/a	n/a	n/a	n/a
3554.486	n/a	RECOG_RESP	1777243	n/a	LTP229	ltpFR	18	4	1	MAILBOX	857	1	n/a	0	n/a	n/a	n/a	n/a	n/a
3555.032	n/a	RECOG_CONF	1777516	n/a	LTP229	ltpFR	18	4	1	MAILBOX	857	n/a	2	0	n/a	n/a	n/a	n/a	n/a
3556.67	n/a	RECOG_TARGET	1778335	n/a	LTP229	ltpFR	18	4	0	FIDDLE	561	1	3	0	n/a	n/a	n/a	n/a	n/a
3557.252	n/a	RECOG_RESP	1778626	n/a	LTP229	ltpFR	18	4	0	FIDDLE	561	1	n/a	0	n/a	n/a	n/a	n/a	n/a
3557.83	n/a	RECOG_CONF	1778915	n/a	LTP229	ltpFR	18	4	0	FIDDLE	561	n/a	3	0	n/a	n/a	n/a	n/a	n/a
3559.346	n/a	RECOG_TARGET	1779673	n/a	LTP229	ltpFR	18	4	1	ROBIN	1199	1	2	1	n/a	n/a	n/a	n/a	n/a
3559.974	n/a	RECOG_RESP	1779987	n/a	LTP229	ltpFR	18	4	1	ROBIN	1199	1	n/a	1	n/a	n/a	n/a	n/a	n/a
3560.516	n/a	RECOG_CONF	1780258	n/a	LTP229	ltpFR	18	4	1	ROBIN	1199	n/a	2	1	n/a	n/a	n/a	n/a	n/a
3562.022	n/a	RECOG_TARGET	1781011	n/a	LTP229	ltpFR	18	4	0	SOFTBALL	1343	1	4	1	n/a	n/a	n/a	n/a	n/a
3562.632	n/a	RECOG_RESP	1781316	n/a	LTP229	ltpFR	18	4	0	SOFTBALL	1343	1	n/a	1	n/a	n/a	n/a	n/a	n/a
3563.196	n/a	RECOG_CONF	1781598	n/a	LTP229	ltpFR	18	4	0	SOFTBALL	1343	n/a	4	1	n/a	n/a	n/a	n/a	n/a
3564.684	n/a	RECOG_TARGET	1782342	n/a	LTP229	ltpFR	18	4	0	TECHNICIAN	1443	1	5	1	n/a	n/a	n/a	n/a	n/a
3565.36	n/a	RECOG_RESP	1782680	n/a	LTP229	ltpFR	18	4	0	TECHNICIAN	1443	1	n/a	1	n/a	n/a	n/a	n/a	n/a
3565.88	n/a	RECOG_CONF	1782940	n/a	LTP229	ltpFR	18	4	0	TECHNICIAN	1443	n/a	5	1	n/a	n/a	n/a	n/a	n/a
3567.678	n/a	RECOG_LURE	1783839	n/a	LTP229	ltpFR	18	4	n/a	MAGNET	855	0	2	n/a	n/a	n/a	n/a	n/a	n/a
3568.404	n/a	RECOG_RESP	1784202	n/a	LTP229	ltpFR	18	4	n/a	MAGNET	855	0	n/a	n/a	n/a	n/a	n/a	n/a	n/a
3569.208	n/a	RECOG_CONF	1784604	n/a	LTP229	ltpFR	18	4	n/a	MAGNET	855	n/a	2	n/a	n/a	n/a	n/a	n/a	n/a
3570.836	n/a	RECOG_TARGET	1785418	n/a	LTP229	ltpFR	18	4	0	KEYBOARD	774	1	3	0	n/a	n/a	n/a	n/a	n/a
3571.53	n/a	RECOG_RESP	1785765	n/a	LTP229	ltpFR	18	4	0	KEYBOARD	774	1	n/a	0	n/a	n/a	n/a	n/a	n/a
3572.258	n/a	RECOG_CONF	1786129	n/a	LTP229	ltpFR	18	4	0	KEYBOARD	774	n/a	3	0	n/a	n/a	n/a	n/a	n/a
3573.902	n/a	RECOG_TARGET	1786951	n/a	LTP229	ltpFR	18	4	0	SHORTS	1293	1	4	0	n/a	n/a	n/a	n/a	n/a
3574.668	n/a	RECOG_RESP	1787334	n/a	LTP229	ltpFR	18	4	0	SHORTS	1293	1	n/a	0	n/a	n/a	n/a	n/a	n/a
3575.3	n/a	RECOG_CONF	1787650	n/a	LTP229	ltpFR	18	4	0	SHORTS	1293	n/a	4	0	n/a	n/a	n/a	n/a	n/a
3576.908	n/a	RECOG_TARGET	1788454	n/a	LTP229	ltpFR	18	4	1	FRECKLE	602	1	5	0	n/a	n/a	n/a	n/a	n/a
3577.548	n/a	RECOG_RESP	1788774	n/a	LTP229	ltpFR	18	4	1	FRECKLE	602	1	n/a	0	n/a	n/a	n/a	n/a	n/a
3578.084	n/a	RECOG_CONF	1789042	n/a	LTP229	ltpFR	18	4	1	FRECKLE	602	n/a	5	0	n/a	n/a	n/a	n/a	n/a
3579.708	n/a	RECOG_LURE	1789854	n/a	LTP229	ltpFR	18	4	n/a	BASEBALL	93	0	2	n/a	n/a	n/a	n/a	n/a	n/a
3580.532	n/a	RECOG_RESP	1790266	n/a	LTP229	ltpFR	18	4	n/a	BASEBALL	93	0	n/a	n/a	n/a	n/a	n/a	n/a	n/a
3581.158	n/a	RECOG_CONF	1790579	n/a	LTP229	ltpFR	18	4	n/a	BASEBALL	93	n/a	2	n/a	n/a	n/a	n/a	n/a	n/a
3582.718	n/a	RECOG_TARGET	1791359	n/a	LTP229	ltpFR	18	4	1	BARN	89	1	1	0	n/a	n/a	n/a	n/a	n/a
3583.602	n/a	RECOG_RESP	1791801	n/a	LTP229	ltpFR	18	4	1	BARN	89	1	n/a	0	n/a	n/a	n/a	n/a	n/a
3584.13	n/a	RECOG_CONF	1792065	n/a	LTP229	ltpFR	18	4	1	BARN	89	n/a	1	0	n/a	n/a	n/a	n/a	n/a
3585.68	n/a	RECOG_TARGET	1792840	n/a	LTP229	ltpFR	18	4	1	SLEEVE	1324	1	3	0	n/a	n/a	n/a	n/a	n/a
3586.398	n/a	RECOG_RESP	1793199	n/a	LTP229	ltpFR	18	4	1	SLEEVE	1324	1	n/a	0	n/a	n/a	n/a	n/a	n/a
3587.004	n/a	RECOG_CONF	1793502	n/a	LTP229	ltpFR	18	4	1	SLEEVE	1324	n/a	3	0	n/a	n/a	n/a	n/a	n/a
3588.492	n/a	RECOG_TARGET	1794246	n/a	LTP229	ltpFR	18	4	0	PAD	998	1	4	0	n/a	n/a	n/a	n/a	n/a
3589.124	n/a	RECOG_RESP	1794562	n/a	LTP229	ltpFR	18	4	0	PAD	998	1	n/a	0	n/a	n/a	n/a	n/a	n/a
3589.684	n/a	RECOG_CONF	1794842	n/a	LTP229	ltpFR	18	4	0	PAD	998	n/a	4	0	n/a	n/a	n/a	n/a	n/a
3591.284	n/a	RECOG_LURE	1795642	n/a	LTP229	ltpFR	18	4	n/a	KID	775	0	1	n/a	n/a	n/a	n/a	n/a	n/a
3592.148	n/a	RECOG_RESP	1796074	n/a	LTP229	ltpFR	18	4	n/a	KID	775	0	n/a	n/a	n/a	n/a	n/a	n/a	n/a
3592.724	n/a	RECOG_CONF	1796362	n/a	LTP229	ltpFR	18	4	n/a	KID	775	n/a	1	n/a	n/a	n/a	n/a	n/a	n/a
3615.496	n/a	REC_START	1807748	n/a	LTP229	ltpFR	18	5	n/a	n/a	n/a	n/a	n/a	n/a	n/a	n/a	n/a	n/a	n/a
3615.544	n/a	RECOG_TARGET	1807772	n/a	LTP229	ltpFR	18	5	0	KING	777	1	2	1	n/a	n/a	n/a	n/a	n/a
3616.302	n/a	RECOG_RESP	1808151	n/a	LTP229	ltpFR	18	5	0	KING	777	1	n/a	1	n/a	n/a	n/a	n/a	n/a
3616.966	n/a	RECOG_CONF	1808483	n/a	LTP229	ltpFR	18	5	0	KING	777	n/a	2	1	n/a	n/a	n/a	n/a	n/a
3618.552	n/a	RECOG_TARGET	1809276	n/a	LTP229	ltpFR	18	5	-1	WORKER	1621	1	3	-1	n/a	n/a	n/a	n/a	n/a
3618.984	n/a	RECOG_RESP	1809492	n/a	LTP229	ltpFR	18	5	-1	WORKER	1621	1	n/a	-1	n/a	n/a	n/a	n/a	n/a
3619.562	n/a	RECOG_CONF	1809781	n/a	LTP229	ltpFR	18	5	-1	WORKER	1621	n/a	3	-1	n/a	n/a	n/a	n/a	n/a
3621.148	n/a	RECOG_TARGET	1810574	n/a	LTP229	ltpFR	18	5	0	LEOPARD	812	1	5	1	n/a	n/a	n/a	n/a	n/a
3621.746	n/a	RECOG_RESP	1810873	n/a	LTP229	ltpFR	18	5	0	LEOPARD	812	1	n/a	1	n/a	n/a	n/a	n/a	n/a
3622.284	n/a	RECOG_CONF	1811142	n/a	LTP229	ltpFR	18	5	0	LEOPARD	812	n/a	5	1	n/a	n/a	n/a	n/a	n/a
3623.86	n/a	RECOG_TARGET	1811930	n/a	LTP229	ltpFR	18	5	-1	ELK	526	1	2	-1	n/a	n/a	n/a	n/a	n/a
3624.39	n/a	RECOG_RESP	1812195	n/a	LTP229	ltpFR	18	5	-1	ELK	526	1	n/a	-1	n/a	n/a	n/a	n/a	n/a
3624.902	n/a	RECOG_CONF	1812451	n/a	LTP229	ltpFR	18	5	-1	ELK	526	n/a	2	-1	n/a	n/a	n/a	n/a	n/a
3626.486	n/a	RECOG_LURE	1813243	n/a	LTP229	ltpFR	18	5	n/a	BUTTER	205	0	4	n/a	n/a	n/a	n/a	n/a	n/a
3627.22	n/a	RECOG_RESP	1813610	n/a	LTP229	ltpFR	18	5	n/a	BUTTER	205	0	n/a	n/a	n/a	n/a	n/a	n/a	n/a
3627.698	n/a	RECOG_CONF	1813849	n/a	LTP229	ltpFR	18	5	n/a	BUTTER	205	n/a	4	n/a	n/a	n/a	n/a	n/a	n/a
3629.364	n/a	RECOG_TARGET	1814682	n/a	LTP229	ltpFR	18	5	0	COD	340	1	3	0	n/a	n/a	n/a	n/a	n/a
3629.908	n/a	RECOG_RESP	1814954	n/a	LTP229	ltpFR	18	5	0	COD	340	1	n/a	0	n/a	n/a	n/a	n/a	n/a
3630.468	n/a	RECOG_CONF	1815234	n/a	LTP229	ltpFR	18	5	0	COD	340	n/a	3	0	n/a	n/a	n/a	n/a	n/a
3632.074	n/a	RECOG_LURE	1816037	n/a	LTP229	ltpFR	18	5	n/a	PIMPLE	1071	0	4	n/a	n/a	n/a	n/a	n/a	n/a
3633.02	n/a	RECOG_RESP	1816510	n/a	LTP229	ltpFR	18	5	n/a	PIMPLE	1071	0	n/a	n/a	n/a	n/a	n/a	n/a	n/a
3633.524	n/a	RECOG_CONF	1816762	n/a	LTP229	ltpFR	18	5	n/a	PIMPLE	1071	n/a	4	n/a	n/a	n/a	n/a	n/a	n/a
3635.118	n/a	RECOG_TARGET	1817559	n/a	LTP229	ltpFR	18	5	1	CAFE	216	1	5	0	n/a	n/a	n/a	n/a	n/a
3635.748	n/a	RECOG_RESP	1817874	n/a	LTP229	ltpFR	18	5	1	CAFE	216	1	n/a	0	n/a	n/a	n/a	n/a	n/a
3636.234	n/a	RECOG_CONF	1818117	n/a	LTP229	ltpFR	18	5	1	CAFE	216	n/a	5	0	n/a	n/a	n/a	n/a	n/a
3637.746	n/a	RECOG_TARGET	1818873	n/a	LTP229	ltpFR	18	5	0	HEDGE	699	1	2	1	n/a	n/a	n/a	n/a	n/a
3638.38	n/a	RECOG_RESP	1819190	n/a	LTP229	ltpFR	18	5	0	HEDGE	699	1	n/a	1	n/a	n/a	n/a	n/a	n/a
3638.952	n/a	RECOG_CONF	1819476	n/a	LTP229	ltpFR	18	5	0	HEDGE	699	n/a	2	1	n/a	n/a	n/a	n/a	n/a
3640.406	n/a	RECOG_LURE	1820203	n/a	LTP229	ltpFR	18	5	n/a	GRAVEL	659	0	3	n/a	n/a	n/a	n/a	n/a	n/a
3641.902	n/a	RECOG_RESP	1820951	n/a	LTP229	ltpFR	18	5	n/a	GRAVEL	659	0	n/a	n/a	n/a	n/a	n/a	n/a	n/a
3642.42	n/a	RECOG_CONF	1821210	n/a	LTP229	ltpFR	18	5	n/a	GRAVEL	659	n/a	3	n/a	n/a	n/a	n/a	n/a	n/a
3643.986	n/a	RECOG_TARGET	1821993	n/a	LTP229	ltpFR	18	5	-1	KEG	770	1	5	-1	n/a	n/a	n/a	n/a	n/a
3644.636	n/a	RECOG_RESP	1822318	n/a	LTP229	ltpFR	18	5	-1	KEG	770	1	n/a	-1	n/a	n/a	n/a	n/a	n/a
3645.254	n/a	RECOG_CONF	1822627	n/a	LTP229	ltpFR	18	5	-1	KEG	770	n/a	5	-1	n/a	n/a	n/a	n/a	n/a
3646.93	n/a	RECOG_TARGET	1823465	n/a	LTP229	ltpFR	18	5	1	CANARY	227	1	3	1	n/a	n/a	n/a	n/a	n/a
3647.526	n/a	RECOG_RESP	1823763	n/a	LTP229	ltpFR	18	5	1	CANARY	227	1	n/a	1	n/a	n/a	n/a	n/a	n/a
3647.962	n/a	RECOG_CONF	1823981	n/a	LTP229	ltpFR	18	5	1	CANARY	227	n/a	3	1	n/a	n/a	n/a	n/a	n/a
3649.622	n/a	RECOG_TARGET	1824811	n/a	LTP229	ltpFR	18	5	-1	BEAN	105	1	4	-1	n/a	n/a	n/a	n/a	n/a
3650.19	n/a	RECOG_RESP	1825095	n/a	LTP229	ltpFR	18	5	-1	BEAN	105	1	n/a	-1	n/a	n/a	n/a	n/a	n/a
3650.762	n/a	RECOG_CONF	1825381	n/a	LTP229	ltpFR	18	5	-1	BEAN	105	n/a	4	-1	n/a	n/a	n/a	n/a	n/a
3652.466	n/a	RECOG_LURE	1826233	n/a	LTP229	ltpFR	18	5	n/a	LINEN	825	1	1	n/a	n/a	n/a	n/a	n/a	n/a
3652.972	n/a	RECOG_RESP	1826486	n/a	LTP229	ltpFR	18	5	n/a	LINEN	825	1	n/a	n/a	n/a	n/a	n/a	n/a	n/a
3653.948	n/a	RECOG_CONF	1826974	n/a	LTP229	ltpFR	18	5	n/a	LINEN	825	n/a	1	n/a	n/a	n/a	n/a	n/a	n/a
3655.53	n/a	RECOG_LURE	1827765	n/a	LTP229	ltpFR	18	5	n/a	WAIST	1579	0	2	n/a	n/a	n/a	n/a	n/a	n/a
3656.414	n/a	RECOG_RESP	1828207	n/a	LTP229	ltpFR	18	5	n/a	WAIST	1579	0	n/a	n/a	n/a	n/a	n/a	n/a	n/a
3656.942	n/a	RECOG_CONF	1828471	n/a	LTP229	ltpFR	18	5	n/a	WAIST	1579	n/a	2	n/a	n/a	n/a	n/a	n/a	n/a
