mstime	trial_type	stim_file	subject	experiment	session	trial	task	item_name	item_num	recog_resp	recog_conf	resp	color_r	color_g	color_b	case	font
0	SESS_START	n/a	LTP140	ltpFR	17	n/a	n/a	n/a	n/a	0	2	n/a	n/a	n/a	n/a	n/a	n/a
84855	WORD	wordpools/wasnorm_wordpool.txt	LTP140	ltpFR	17	1	1	VEHICLE	1553	0	n/a	n/a	0.57763671875	0.412841796875	1	upper	zerothre.ttf
87879	SLOW_MSG	n/a	LTP140	ltpFR	17	1	n/a	n/a	n/a	n/a	n/a	n/a	n/a	n/a	n/a	n/a	n/a
90569	WORD	wordpools/wasnorm_wordpool.txt	LTP140	ltpFR	17	1	1	AFRICA	9	n/a	n/a	0	0.57763671875	0.412841796875	1	upper	zerothre.ttf
94543	WORD	wordpools/wasnorm_wordpool.txt	LTP140	ltpFR	17	1	1	BEDROOM	111	n/a	n/a	0	0.57763671875	0.412841796875	1	upper	zerothre.ttf
98458	WORD	wordpools/wasnorm_wordpool.txt	LTP140	ltpFR	17	1	1	WORM	1623	n/a	n/a	1	0.57763671875	0.412841796875	1	upper	zerothre.ttf
102557	WORD	wordpools/wasnorm_wordpool.txt	LTP140	ltpFR	17	1	1	PALM	1007	n/a	n/a	1	0.57763671875	0.412841796875	1	upper	zerothre.ttf
106530	WORD	wordpools/wasnorm_wordpool.txt	LTP140	ltpFR	17	1	0	SNORKEL	1336	n/a	n/a	0	0.422607421875	0.5869140625	0	lower	amplitud.ttf
110396	WORD	wordpools/wasnorm_wordpool.txt	LTP140	ltpFR	17	1	0	FLASK	576	n/a	n/a	0	0.422607421875	0.5869140625	0	lower	amplitud.ttf
114336	WORD	wordpools/wasnorm_wordpool.txt	LTP140	ltpFR	17	1	0	MONKEY	911	n/a	n/a	1	0.422607421875	0.5869140625	0	lower	amplitud.ttf
118226	WORD	wordpools/wasnorm_wordpool.txt	LTP140	ltpFR	17	1	0	LOBBY	836	n/a	n/a	1	0.422607421875	0.5869140625	0	lower	amplitud.ttf
122358	WORD	wordpools/wasnorm_wordpool.txt	LTP140	ltpFR	17	1	1	MOTEL	919	n/a	n/a	0	0.57763671875	0.412841796875	1	upper	zerothre.ttf
126498	WORD	wordpools/wasnorm_wordpool.txt	LTP140	ltpFR	17	1	1	GOWN	652	n/a	n/a	0	0.57763671875	0.412841796875	1	upper	zerothre.ttf
130706	WORD	wordpools/wasnorm_wordpool.txt	LTP140	ltpFR	17	1	1	REPTILE	1185	n/a	n/a	1	0.57763671875	0.412841796875	1	upper	zerothre.ttf
134762	WORD	wordpools/wasnorm_wordpool.txt	LTP140	ltpFR	17	1	0	LIP	828	n/a	n/a	0	0.422607421875	0.5869140625	0	lower	amplitud.ttf
138577	WORD	wordpools/wasnorm_wordpool.txt	LTP140	ltpFR	17	1	0	JAW	751	n/a	n/a	0	0.422607421875	0.5869140625	0	lower	amplitud.ttf
142677	WORD	wordpools/wasnorm_wordpool.txt	LTP140	ltpFR	17	1	0	GULL	671	n/a	n/a	1	0.422607421875	0.5869140625	0	lower	amplitud.ttf
146541	WORD	wordpools/wasnorm_wordpool.txt	LTP140	ltpFR	17	1	0	FINGER	567	n/a	n/a	0	0.422607421875	0.5869140625	0	lower	amplitud.ttf
152415	REC_START	n/a	LTP140	ltpFR	17	1	n/a	n/a	n/a	n/a	n/a	n/a	n/a	n/a	n/a	n/a	n/a
153238	REC_WORD	wordpools/wasnorm_wordpool.txt	LTP140	ltpFR	17	1	0	FINGER	567	n/a	n/a	0	n/a	n/a	n/a	n/a	n/a
154425	REC_WORD	wordpools/wasnorm_wordpool.txt	LTP140	ltpFR	17	1	0	JAW	751	n/a	n/a	0	n/a	n/a	n/a	n/a	n/a
155461	REC_WORD	wordpools/wasnorm_wordpool.txt	LTP140	ltpFR	17	1	n/a	SHORE	1291	n/a	n/a	n/a	n/a	n/a	n/a	n/a	n/a
156461	REC_WORD_VV	wordpools/wasnorm_wordpool.txt	LTP140	ltpFR	17	1	n/a	<>	-1	n/a	n/a	n/a	n/a	n/a	n/a	n/a	n/a
160985	REC_WORD	wordpools/wasnorm_wordpool.txt	LTP140	ltpFR	17	1	1	WORM	1623	n/a	n/a	1	n/a	n/a	n/a	n/a	n/a
161998	REC_WORD	wordpools/wasnorm_wordpool.txt	LTP140	ltpFR	17	1	1	GOWN	652	n/a	n/a	0	n/a	n/a	n/a	n/a	n/a
163140	REC_WORD	wordpools/wasnorm_wordpool.txt	LTP140	ltpFR	17	1	0	LOBBY	836	n/a	n/a	1	n/a	n/a	n/a	n/a	n/a
164140	REC_WORD_VV	wordpools/wasnorm_wordpool.txt	LTP140	ltpFR	17	1	n/a	<>	-1	n/a	n/a	n/a	n/a	n/a	n/a	n/a	n/a
164347	REC_WORD	wordpools/wasnorm_wordpool.txt	LTP140	ltpFR	17	1	1	VEHICLE	1553	n/a	n/a	n/a	n/a	n/a	n/a	n/a	n/a
165347	REC_WORD_VV	wordpools/wasnorm_wordpool.txt	LTP140	ltpFR	17	1	n/a	<>	-1	n/a	n/a	n/a	n/a	n/a	n/a	n/a	n/a
165615	REC_WORD	wordpools/wasnorm_wordpool.txt	LTP140	ltpFR	17	1	1	AFRICA	9	n/a	n/a	0	n/a	n/a	n/a	n/a	n/a
166615	REC_WORD_VV	wordpools/wasnorm_wordpool.txt	LTP140	ltpFR	17	1	n/a	<>	-1	n/a	n/a	n/a	n/a	n/a	n/a	n/a	n/a
167071	REC_WORD	wordpools/wasnorm_wordpool.txt	LTP140	ltpFR	17	1	1	MOTEL	919	n/a	n/a	0	n/a	n/a	n/a	n/a	n/a
168071	REC_WORD_VV	wordpools/wasnorm_wordpool.txt	LTP140	ltpFR	17	1	n/a	<>	-1	n/a	n/a	n/a	n/a	n/a	n/a	n/a	n/a
169401	REC_WORD	wordpools/wasnorm_wordpool.txt	LTP140	ltpFR	17	1	0	LOBBY	836	n/a	n/a	1	n/a	n/a	n/a	n/a	n/a
171791	REC_WORD	wordpools/wasnorm_wordpool.txt	LTP140	ltpFR	17	1	1	REPTILE	1185	n/a	n/a	1	n/a	n/a	n/a	n/a	n/a
172791	REC_WORD_VV	wordpools/wasnorm_wordpool.txt	LTP140	ltpFR	17	1	n/a	<>	-1	n/a	n/a	n/a	n/a	n/a	n/a	n/a	n/a
173138	REC_WORD	wordpools/wasnorm_wordpool.txt	LTP140	ltpFR	17	1	0	LIP	828	n/a	n/a	0	n/a	n/a	n/a	n/a	n/a
175108	REC_WORD	wordpools/wasnorm_wordpool.txt	LTP140	ltpFR	17	1	0	JAW	751	n/a	n/a	0	n/a	n/a	n/a	n/a	n/a
198031	REC_WORD	wordpools/wasnorm_wordpool.txt	LTP140	ltpFR	17	1	0	SNORKEL	1336	n/a	n/a	0	n/a	n/a	n/a	n/a	n/a
199031	REC_WORD_VV	wordpools/wasnorm_wordpool.txt	LTP140	ltpFR	17	1	n/a	<>	-1	n/a	n/a	n/a	n/a	n/a	n/a	n/a	n/a
205808	REC_WORD	wordpools/wasnorm_wordpool.txt	LTP140	ltpFR	17	1	n/a	GOGGLE	-1	n/a	n/a	n/a	n/a	n/a	n/a	n/a	n/a
216080	REC_WORD	wordpools/wasnorm_wordpool.txt	LTP140	ltpFR	17	1	0	LIP	828	n/a	n/a	0	n/a	n/a	n/a	n/a	n/a
230611	WORD	wordpools/wasnorm_wordpool.txt	LTP140	ltpFR	17	2	0	AUTHOR	61	n/a	n/a	1	0.422607421875	0.5869140625	0	lower	amplitud.ttf
234485	WORD	wordpools/wasnorm_wordpool.txt	LTP140	ltpFR	17	2	0	PIRATE	1074	n/a	n/a	1	0.422607421875	0.5869140625	0	lower	amplitud.ttf
238575	WORD	wordpools/wasnorm_wordpool.txt	LTP140	ltpFR	17	2	1	BRANDY	169	n/a	n/a	0	0.57763671875	0.412841796875	1	upper	zerothre.ttf
242424	WORD	wordpools/wasnorm_wordpool.txt	LTP140	ltpFR	17	2	1	ROBIN	1199	n/a	n/a	1	0.57763671875	0.412841796875	1	upper	zerothre.ttf
246589	WORD	wordpools/wasnorm_wordpool.txt	LTP140	ltpFR	17	2	1	MEAL	882	n/a	n/a	0	0.57763671875	0.412841796875	1	upper	zerothre.ttf
250562	WORD	wordpools/wasnorm_wordpool.txt	LTP140	ltpFR	17	2	1	BEEF	113	n/a	n/a	1	0.57763671875	0.412841796875	1	upper	zerothre.ttf
254729	WORD	wordpools/wasnorm_wordpool.txt	LTP140	ltpFR	17	2	1	PUBLICATION	1136	n/a	n/a	0	0.57763671875	0.412841796875	1	upper	zerothre.ttf
258818	WORD	wordpools/wasnorm_wordpool.txt	LTP140	ltpFR	17	2	0	BLANKET	135	n/a	n/a	1	0.422607421875	0.5869140625	0	lower	amplitud.ttf
262941	WORD	wordpools/wasnorm_wordpool.txt	LTP140	ltpFR	17	2	0	PIG	1064	n/a	n/a	1	0.422607421875	0.5869140625	0	lower	amplitud.ttf
266848	WORD	wordpools/wasnorm_wordpool.txt	LTP140	ltpFR	17	2	0	TROUSERS	1510	n/a	n/a	1	0.422607421875	0.5869140625	0	lower	amplitud.ttf
270830	WORD	wordpools/wasnorm_wordpool.txt	LTP140	ltpFR	17	2	0	BLOUSE	139	n/a	n/a	1	0.422607421875	0.5869140625	0	lower	amplitud.ttf
274738	WORD	wordpools/wasnorm_wordpool.txt	LTP140	ltpFR	17	2	0	PENGUIN	1044	n/a	n/a	1	0.422607421875	0.5869140625	0	lower	amplitud.ttf
278811	WORD	wordpools/wasnorm_wordpool.txt	LTP140	ltpFR	17	2	0	TABLET	1427	n/a	n/a	0	0.422607421875	0.5869140625	0	lower	amplitud.ttf
282651	WORD	wordpools/wasnorm_wordpool.txt	LTP140	ltpFR	17	2	1	PILLOW	1069	n/a	n/a	0	0.57763671875	0.412841796875	1	upper	zerothre.ttf
286766	WORD	wordpools/wasnorm_wordpool.txt	LTP140	ltpFR	17	2	1	FELLOW	558	n/a	n/a	1	0.57763671875	0.412841796875	1	upper	zerothre.ttf
290607	WORD	wordpools/wasnorm_wordpool.txt	LTP140	ltpFR	17	2	1	FRIEND	606	n/a	n/a	1	0.57763671875	0.412841796875	1	upper	zerothre.ttf
296647	REC_START	n/a	LTP140	ltpFR	17	2	n/a	n/a	n/a	n/a	n/a	n/a	n/a	n/a	n/a	n/a	n/a
297435	REC_WORD	wordpools/wasnorm_wordpool.txt	LTP140	ltpFR	17	2	1	FRIEND	606	n/a	n/a	1	n/a	n/a	n/a	n/a	n/a
298533	REC_WORD	wordpools/wasnorm_wordpool.txt	LTP140	ltpFR	17	2	1	FELLOW	558	n/a	n/a	1	n/a	n/a	n/a	n/a	n/a
299533	REC_WORD_VV	wordpools/wasnorm_wordpool.txt	LTP140	ltpFR	17	2	n/a	<>	-1	n/a	n/a	n/a	n/a	n/a	n/a	n/a	n/a
300034	REC_WORD	wordpools/wasnorm_wordpool.txt	LTP140	ltpFR	17	2	1	PILLOW	1069	n/a	n/a	0	n/a	n/a	n/a	n/a	n/a
301885	REC_WORD	wordpools/wasnorm_wordpool.txt	LTP140	ltpFR	17	2	0	BLANKET	135	n/a	n/a	1	n/a	n/a	n/a	n/a	n/a
303751	REC_WORD	wordpools/wasnorm_wordpool.txt	LTP140	ltpFR	17	2	0	PENGUIN	1044	n/a	n/a	1	n/a	n/a	n/a	n/a	n/a
305222	REC_WORD	wordpools/wasnorm_wordpool.txt	LTP140	ltpFR	17	2	0	TROUSERS	1510	n/a	n/a	1	n/a	n/a	n/a	n/a	n/a
306222	REC_WORD_VV	wordpools/wasnorm_wordpool.txt	LTP140	ltpFR	17	2	n/a	<>	-1	n/a	n/a	n/a	n/a	n/a	n/a	n/a	n/a
306898	REC_WORD	wordpools/wasnorm_wordpool.txt	LTP140	ltpFR	17	2	n/a	PANTS	1010	n/a	n/a	n/a	n/a	n/a	n/a	n/a	n/a
308245	REC_WORD	wordpools/wasnorm_wordpool.txt	LTP140	ltpFR	17	2	0	BLOUSE	139	n/a	n/a	1	n/a	n/a	n/a	n/a	n/a
309637	REC_WORD	wordpools/wasnorm_wordpool.txt	LTP140	ltpFR	17	2	0	AUTHOR	61	n/a	n/a	1	n/a	n/a	n/a	n/a	n/a
310745	REC_WORD	wordpools/wasnorm_wordpool.txt	LTP140	ltpFR	17	2	0	TABLET	1427	n/a	n/a	0	n/a	n/a	n/a	n/a	n/a
312291	REC_WORD	wordpools/wasnorm_wordpool.txt	LTP140	ltpFR	17	2	0	PIRATE	1074	n/a	n/a	1	n/a	n/a	n/a	n/a	n/a
313728	REC_WORD	wordpools/wasnorm_wordpool.txt	LTP140	ltpFR	17	2	0	PIG	1064	n/a	n/a	1	n/a	n/a	n/a	n/a	n/a
315404	REC_WORD	wordpools/wasnorm_wordpool.txt	LTP140	ltpFR	17	2	1	BEEF	113	n/a	n/a	1	n/a	n/a	n/a	n/a	n/a
317075	REC_WORD	wordpools/wasnorm_wordpool.txt	LTP140	ltpFR	17	2	n/a	COW	393	n/a	n/a	n/a	n/a	n/a	n/a	n/a	n/a
331243	REC_WORD	wordpools/wasnorm_wordpool.txt	LTP140	ltpFR	17	2	1	PUBLICATION	1136	n/a	n/a	0	n/a	n/a	n/a	n/a	n/a
332243	REC_WORD_VV	wordpools/wasnorm_wordpool.txt	LTP140	ltpFR	17	2	n/a	<>	-1	n/a	n/a	n/a	n/a	n/a	n/a	n/a	n/a
336306	REC_WORD	wordpools/wasnorm_wordpool.txt	LTP140	ltpFR	17	2	1	FELLOW	558	n/a	n/a	1	n/a	n/a	n/a	n/a	n/a
337306	REC_WORD_VV	wordpools/wasnorm_wordpool.txt	LTP140	ltpFR	17	2	n/a	<>	-1	n/a	n/a	n/a	n/a	n/a	n/a	n/a	n/a
337788	REC_WORD	wordpools/wasnorm_wordpool.txt	LTP140	ltpFR	17	2	1	FRIEND	606	n/a	n/a	1	n/a	n/a	n/a	n/a	n/a
342183	REC_WORD	wordpools/wasnorm_wordpool.txt	LTP140	ltpFR	17	2	n/a	SHIP	1286	n/a	n/a	n/a	n/a	n/a	n/a	n/a	n/a
353867	REC_WORD	wordpools/wasnorm_wordpool.txt	LTP140	ltpFR	17	2	n/a	LIZARD	834	n/a	n/a	n/a	n/a	n/a	n/a	n/a	n/a
374119	WORD	wordpools/wasnorm_wordpool.txt	LTP140	ltpFR	17	3	-1	PADDING	999	n/a	n/a	-1	1.0	1.0	1	upper	Verdana.ttf
378217	WORD	wordpools/wasnorm_wordpool.txt	LTP140	ltpFR	17	3	-1	PORCH	1106	n/a	n/a	-1	1.0	1.0	1	upper	Verdana.ttf
382191	WORD	wordpools/wasnorm_wordpool.txt	LTP140	ltpFR	17	3	-1	SAUSAGE	1238	n/a	n/a	-1	1.0	1.0	1	upper	Verdana.ttf
386331	WORD	wordpools/wasnorm_wordpool.txt	LTP140	ltpFR	17	3	-1	BOAT	144	n/a	n/a	-1	1.0	1.0	1	upper	Verdana.ttf
390171	WORD	wordpools/wasnorm_wordpool.txt	LTP140	ltpFR	17	3	-1	SUNSET	1408	n/a	n/a	-1	1.0	1.0	1	upper	Verdana.ttf
394103	WORD	wordpools/wasnorm_wordpool.txt	LTP140	ltpFR	17	3	-1	SWAN	1417	n/a	n/a	-1	1.0	1.0	1	upper	Verdana.ttf
398118	WORD	wordpools/wasnorm_wordpool.txt	LTP140	ltpFR	17	3	-1	ACTOR	5	n/a	n/a	-1	1.0	1.0	1	upper	Verdana.ttf
402050	WORD	wordpools/wasnorm_wordpool.txt	LTP140	ltpFR	17	3	-1	TURKEY	1520	n/a	n/a	-1	1.0	1.0	1	upper	Verdana.ttf
406190	WORD	wordpools/wasnorm_wordpool.txt	LTP140	ltpFR	17	3	-1	RAISIN	1163	n/a	n/a	-1	1.0	1.0	1	upper	Verdana.ttf
410189	WORD	wordpools/wasnorm_wordpool.txt	LTP140	ltpFR	17	3	-1	FLASHLIGHT	575	n/a	n/a	-1	1.0	1.0	1	upper	Verdana.ttf
414271	WORD	wordpools/wasnorm_wordpool.txt	LTP140	ltpFR	17	3	-1	OUTFIT	988	n/a	n/a	-1	1.0	1.0	1	upper	Verdana.ttf
418378	WORD	wordpools/wasnorm_wordpool.txt	LTP140	ltpFR	17	3	-1	CLOTHES	327	n/a	n/a	-1	1.0	1.0	1	upper	Verdana.ttf
422193	WORD	wordpools/wasnorm_wordpool.txt	LTP140	ltpFR	17	3	-1	FIG	563	n/a	n/a	-1	1.0	1.0	1	upper	Verdana.ttf
426383	WORD	wordpools/wasnorm_wordpool.txt	LTP140	ltpFR	17	3	-1	SAILOR	1223	n/a	n/a	-1	1.0	1.0	1	upper	Verdana.ttf
430207	WORD	wordpools/wasnorm_wordpool.txt	LTP140	ltpFR	17	3	-1	SURF	1412	n/a	n/a	-1	1.0	1.0	1	upper	Verdana.ttf
434255	WORD	wordpools/wasnorm_wordpool.txt	LTP140	ltpFR	17	3	-1	FOUNTAIN	597	n/a	n/a	-1	1.0	1.0	1	upper	Verdana.ttf
439921	REC_START	n/a	LTP140	ltpFR	17	3	n/a	n/a	n/a	n/a	n/a	n/a	n/a	n/a	n/a	n/a	n/a
440584	REC_WORD	wordpools/wasnorm_wordpool.txt	LTP140	ltpFR	17	3	-1	FOUNTAIN	597	n/a	n/a	-1	n/a	n/a	n/a	n/a	n/a
441682	REC_WORD	wordpools/wasnorm_wordpool.txt	LTP140	ltpFR	17	3	-1	SURF	1412	n/a	n/a	-1	n/a	n/a	n/a	n/a	n/a
442764	REC_WORD	wordpools/wasnorm_wordpool.txt	LTP140	ltpFR	17	3	-1	ACTOR	5	n/a	n/a	-1	n/a	n/a	n/a	n/a	n/a
443767	REC_WORD	wordpools/wasnorm_wordpool.txt	LTP140	ltpFR	17	3	-1	TURKEY	1520	n/a	n/a	-1	n/a	n/a	n/a	n/a	n/a
444734	REC_WORD	wordpools/wasnorm_wordpool.txt	LTP140	ltpFR	17	3	-1	SWAN	1417	n/a	n/a	-1	n/a	n/a	n/a	n/a	n/a
445734	REC_WORD_VV	wordpools/wasnorm_wordpool.txt	LTP140	ltpFR	17	3	n/a	<>	-1	n/a	n/a	n/a	n/a	n/a	n/a	n/a	n/a
447439	REC_WORD	wordpools/wasnorm_wordpool.txt	LTP140	ltpFR	17	3	-1	PORCH	1106	n/a	n/a	-1	n/a	n/a	n/a	n/a	n/a
448586	REC_WORD	wordpools/wasnorm_wordpool.txt	LTP140	ltpFR	17	3	-1	SAUSAGE	1238	n/a	n/a	-1	n/a	n/a	n/a	n/a	n/a
449586	REC_WORD_VV	wordpools/wasnorm_wordpool.txt	LTP140	ltpFR	17	3	n/a	<>	-1	n/a	n/a	n/a	n/a	n/a	n/a	n/a	n/a
451754	REC_WORD	wordpools/wasnorm_wordpool.txt	LTP140	ltpFR	17	3	n/a	WOOD	-1	n/a	n/a	n/a	n/a	n/a	n/a	n/a	n/a
456772	REC_WORD	wordpools/wasnorm_wordpool.txt	LTP140	ltpFR	17	3	-1	CLOTHES	327	n/a	n/a	-1	n/a	n/a	n/a	n/a	n/a
458578	REC_WORD	wordpools/wasnorm_wordpool.txt	LTP140	ltpFR	17	3	-1	OUTFIT	988	n/a	n/a	-1	n/a	n/a	n/a	n/a	n/a
459771	REC_WORD	wordpools/wasnorm_wordpool.txt	LTP140	ltpFR	17	3	0	PENGUIN	1044	n/a	n/a	1	n/a	n/a	n/a	n/a	n/a
492616	REC_WORD	wordpools/wasnorm_wordpool.txt	LTP140	ltpFR	17	3	1	PILLOW	1069	n/a	n/a	0	n/a	n/a	n/a	n/a	n/a
508680	REC_WORD	wordpools/wasnorm_wordpool.txt	LTP140	ltpFR	17	3	0	TABLET	1427	n/a	n/a	0	n/a	n/a	n/a	n/a	n/a
517718	WORD	wordpools/wasnorm_wordpool.txt	LTP140	ltpFR	17	4	0	POISON	1096	n/a	n/a	0	0.422607421875	0.5869140625	0	lower	amplitud.ttf
521849	WORD	wordpools/wasnorm_wordpool.txt	LTP140	ltpFR	17	4	0	MARKET	871	n/a	n/a	1	0.422607421875	0.5869140625	0	lower	amplitud.ttf
526048	WORD	wordpools/wasnorm_wordpool.txt	LTP140	ltpFR	17	4	0	SPINACH	1352	n/a	n/a	0	0.422607421875	0.5869140625	0	lower	amplitud.ttf
530138	WORD	wordpools/wasnorm_wordpool.txt	LTP140	ltpFR	17	4	0	FUNGUS	614	n/a	n/a	0	0.422607421875	0.5869140625	0	lower	amplitud.ttf
534153	WORD	wordpools/wasnorm_wordpool.txt	LTP140	ltpFR	17	4	0	CHEMIST	292	n/a	n/a	1	0.422607421875	0.5869140625	0	lower	amplitud.ttf
538343	WORD	wordpools/wasnorm_wordpool.txt	LTP140	ltpFR	17	4	0	FLANNEL	574	n/a	n/a	0	0.422607421875	0.5869140625	0	lower	amplitud.ttf
542317	WORD	wordpools/wasnorm_wordpool.txt	LTP140	ltpFR	17	4	0	VET	1560	n/a	n/a	1	0.422607421875	0.5869140625	0	lower	amplitud.ttf
546382	WORD	wordpools/wasnorm_wordpool.txt	LTP140	ltpFR	17	4	0	PAWN	1030	n/a	n/a	0	0.422607421875	0.5869140625	0	lower	amplitud.ttf
550289	WORD	wordpools/wasnorm_wordpool.txt	LTP140	ltpFR	17	4	0	PERCH	1048	n/a	n/a	1	0.422607421875	0.5869140625	0	lower	amplitud.ttf
554379	WORD	wordpools/wasnorm_wordpool.txt	LTP140	ltpFR	17	4	0	HOSTESS	723	n/a	n/a	1	0.422607421875	0.5869140625	0	lower	amplitud.ttf
558528	WORD	wordpools/wasnorm_wordpool.txt	LTP140	ltpFR	17	4	0	LODGE	839	n/a	n/a	1	0.422607421875	0.5869140625	0	lower	amplitud.ttf
562686	WORD	wordpools/wasnorm_wordpool.txt	LTP140	ltpFR	17	4	0	MOUNTAIN	924	n/a	n/a	1	0.422607421875	0.5869140625	0	lower	amplitud.ttf
566850	WORD	wordpools/wasnorm_wordpool.txt	LTP140	ltpFR	17	4	0	CHEST	295	n/a	n/a	1	0.422607421875	0.5869140625	0	lower	amplitud.ttf
570865	WORD	wordpools/wasnorm_wordpool.txt	LTP140	ltpFR	17	4	0	BODY	145	n/a	n/a	1	0.422607421875	0.5869140625	0	lower	amplitud.ttf
574747	WORD	wordpools/wasnorm_wordpool.txt	LTP140	ltpFR	17	4	0	DRESS	495	n/a	n/a	1	0.422607421875	0.5869140625	0	lower	amplitud.ttf
578929	WORD	wordpools/wasnorm_wordpool.txt	LTP140	ltpFR	17	4	0	MULE	931	n/a	n/a	1	0.422607421875	0.5869140625	0	lower	amplitud.ttf
584661	REC_START	n/a	LTP140	ltpFR	17	4	n/a	n/a	n/a	n/a	n/a	n/a	n/a	n/a	n/a	n/a	n/a
585394	REC_WORD	wordpools/wasnorm_wordpool.txt	LTP140	ltpFR	17	4	0	MULE	931	n/a	n/a	1	n/a	n/a	n/a	n/a	n/a
586566	REC_WORD	wordpools/wasnorm_wordpool.txt	LTP140	ltpFR	17	4	n/a	DONKEY	484	n/a	n/a	n/a	n/a	n/a	n/a	n/a	n/a
587824	REC_WORD	wordpools/wasnorm_wordpool.txt	LTP140	ltpFR	17	4	0	DRESS	495	n/a	n/a	1	n/a	n/a	n/a	n/a	n/a
589051	REC_WORD	wordpools/wasnorm_wordpool.txt	LTP140	ltpFR	17	4	0	CHEST	295	n/a	n/a	1	n/a	n/a	n/a	n/a	n/a
590443	REC_WORD	wordpools/wasnorm_wordpool.txt	LTP140	ltpFR	17	4	0	BODY	145	n/a	n/a	1	n/a	n/a	n/a	n/a	n/a
591620	REC_WORD	wordpools/wasnorm_wordpool.txt	LTP140	ltpFR	17	4	0	MOUNTAIN	924	n/a	n/a	1	n/a	n/a	n/a	n/a	n/a
592620	REC_WORD_VV	wordpools/wasnorm_wordpool.txt	LTP140	ltpFR	17	4	n/a	<>	-1	n/a	n/a	n/a	n/a	n/a	n/a	n/a	n/a
592917	REC_WORD	wordpools/wasnorm_wordpool.txt	LTP140	ltpFR	17	4	0	LODGE	839	n/a	n/a	1	n/a	n/a	n/a	n/a	n/a
594283	REC_WORD	wordpools/wasnorm_wordpool.txt	LTP140	ltpFR	17	4	n/a	SNOW	-1	n/a	n/a	n/a	n/a	n/a	n/a	n/a	n/a
595766	REC_WORD	wordpools/wasnorm_wordpool.txt	LTP140	ltpFR	17	4	0	HOSTESS	723	n/a	n/a	1	n/a	n/a	n/a	n/a	n/a
596766	REC_WORD_VV	wordpools/wasnorm_wordpool.txt	LTP140	ltpFR	17	4	n/a	<>	-1	n/a	n/a	n/a	n/a	n/a	n/a	n/a	n/a
597840	REC_WORD	wordpools/wasnorm_wordpool.txt	LTP140	ltpFR	17	4	0	VET	1560	n/a	n/a	1	n/a	n/a	n/a	n/a	n/a
600280	REC_WORD	wordpools/wasnorm_wordpool.txt	LTP140	ltpFR	17	4	0	CHEMIST	292	n/a	n/a	1	n/a	n/a	n/a	n/a	n/a
601642	REC_WORD	wordpools/wasnorm_wordpool.txt	LTP140	ltpFR	17	4	n/a	SCIENTIST	1249	n/a	n/a	n/a	n/a	n/a	n/a	n/a	n/a
602642	REC_WORD_VV	wordpools/wasnorm_wordpool.txt	LTP140	ltpFR	17	4	n/a	<>	-1	n/a	n/a	n/a	n/a	n/a	n/a	n/a	n/a
603538	REC_WORD	wordpools/wasnorm_wordpool.txt	LTP140	ltpFR	17	4	0	POISON	1096	n/a	n/a	0	n/a	n/a	n/a	n/a	n/a
604538	REC_WORD_VV	wordpools/wasnorm_wordpool.txt	LTP140	ltpFR	17	4	n/a	<>	-1	n/a	n/a	n/a	n/a	n/a	n/a	n/a	n/a
604935	REC_WORD	wordpools/wasnorm_wordpool.txt	LTP140	ltpFR	17	4	0	MARKET	871	n/a	n/a	1	n/a	n/a	n/a	n/a	n/a
606336	REC_WORD	wordpools/wasnorm_wordpool.txt	LTP140	ltpFR	17	4	0	SPINACH	1352	n/a	n/a	0	n/a	n/a	n/a	n/a	n/a
607336	REC_WORD_VV	wordpools/wasnorm_wordpool.txt	LTP140	ltpFR	17	4	n/a	<>	-1	n/a	n/a	n/a	n/a	n/a	n/a	n/a	n/a
608012	REC_WORD	wordpools/wasnorm_wordpool.txt	LTP140	ltpFR	17	4	0	FUNGUS	614	n/a	n/a	0	n/a	n/a	n/a	n/a	n/a
609012	REC_WORD_VV	wordpools/wasnorm_wordpool.txt	LTP140	ltpFR	17	4	n/a	<>	-1	n/a	n/a	n/a	n/a	n/a	n/a	n/a	n/a
609679	REC_WORD	wordpools/wasnorm_wordpool.txt	LTP140	ltpFR	17	4	0	VET	1560	n/a	n/a	1	n/a	n/a	n/a	n/a	n/a
617511	REC_WORD	wordpools/wasnorm_wordpool.txt	LTP140	ltpFR	17	4	n/a	SLAVE	-1	n/a	n/a	n/a	n/a	n/a	n/a	n/a	n/a
625468	REC_WORD	wordpools/wasnorm_wordpool.txt	LTP140	ltpFR	17	4	n/a	PEEK	-1	n/a	n/a	n/a	n/a	n/a	n/a	n/a	n/a
662199	WORD	wordpools/wasnorm_wordpool.txt	LTP140	ltpFR	17	5	0	LAWYER	806	n/a	n/a	1	0.422607421875	0.5869140625	0	lower	amplitud.ttf
666148	WORD	wordpools/wasnorm_wordpool.txt	LTP140	ltpFR	17	5	0	POOL	1103	n/a	n/a	1	0.422607421875	0.5869140625	0	lower	amplitud.ttf
670121	WORD	wordpools/wasnorm_wordpool.txt	LTP140	ltpFR	17	5	0	BUGLE	189	n/a	n/a	1	0.422607421875	0.5869140625	0	lower	amplitud.ttf
673954	WORD	wordpools/wasnorm_wordpool.txt	LTP140	ltpFR	17	5	0	CASKET	255	n/a	n/a	1	0.422607421875	0.5869140625	0	lower	amplitud.ttf
677785	WORD	wordpools/wasnorm_wordpool.txt	LTP140	ltpFR	17	5	0	BALCONY	72	n/a	n/a	1	0.422607421875	0.5869140625	0	lower	amplitud.ttf
681651	WORD	wordpools/wasnorm_wordpool.txt	LTP140	ltpFR	17	5	0	TUB	1514	n/a	n/a	1	0.422607421875	0.5869140625	0	lower	amplitud.ttf
685658	WORD	wordpools/wasnorm_wordpool.txt	LTP140	ltpFR	17	5	0	PRAIRIE	1118	n/a	n/a	1	0.422607421875	0.5869140625	0	lower	amplitud.ttf
689498	WORD	wordpools/wasnorm_wordpool.txt	LTP140	ltpFR	17	5	0	KITTEN	780	n/a	n/a	0	0.422607421875	0.5869140625	0	lower	amplitud.ttf
693538	WORD	wordpools/wasnorm_wordpool.txt	LTP140	ltpFR	17	5	0	CELLO	268	n/a	n/a	1	0.422607421875	0.5869140625	0	lower	amplitud.ttf
697653	WORD	wordpools/wasnorm_wordpool.txt	LTP140	ltpFR	17	5	0	STETHOSCOPE	1379	n/a	n/a	0	0.422607421875	0.5869140625	0	lower	amplitud.ttf
701510	WORD	wordpools/wasnorm_wordpool.txt	LTP140	ltpFR	17	5	0	DOCTOR	478	n/a	n/a	1	0.422607421875	0.5869140625	0	lower	amplitud.ttf
705509	WORD	wordpools/wasnorm_wordpool.txt	LTP140	ltpFR	17	5	0	SNAIL	1332	n/a	n/a	0	0.422607421875	0.5869140625	0	lower	amplitud.ttf
709466	WORD	wordpools/wasnorm_wordpool.txt	LTP140	ltpFR	17	5	0	PAIL	1002	n/a	n/a	1	0.422607421875	0.5869140625	0	lower	amplitud.ttf
713314	WORD	wordpools/wasnorm_wordpool.txt	LTP140	ltpFR	17	5	0	DIME	466	n/a	n/a	0	0.422607421875	0.5869140625	0	lower	amplitud.ttf
717446	WORD	wordpools/wasnorm_wordpool.txt	LTP140	ltpFR	17	5	0	VEGETABLE	1552	n/a	n/a	0	0.422607421875	0.5869140625	0	lower	amplitud.ttf
721337	WORD	wordpools/wasnorm_wordpool.txt	LTP140	ltpFR	17	5	0	PICKLE	1059	n/a	n/a	0	0.422607421875	0.5869140625	0	lower	amplitud.ttf
727260	REC_START	n/a	LTP140	ltpFR	17	5	n/a	n/a	n/a	n/a	n/a	n/a	n/a	n/a	n/a	n/a	n/a
728008	REC_WORD	wordpools/wasnorm_wordpool.txt	LTP140	ltpFR	17	5	0	VEGETABLE	1552	n/a	n/a	0	n/a	n/a	n/a	n/a	n/a
729008	REC_WORD_VV	wordpools/wasnorm_wordpool.txt	LTP140	ltpFR	17	5	n/a	<>	-1	n/a	n/a	n/a	n/a	n/a	n/a	n/a	n/a
729320	REC_WORD	wordpools/wasnorm_wordpool.txt	LTP140	ltpFR	17	5	0	PICKLE	1059	n/a	n/a	0	n/a	n/a	n/a	n/a	n/a
730182	REC_WORD	wordpools/wasnorm_wordpool.txt	LTP140	ltpFR	17	5	0	SNAIL	1332	n/a	n/a	0	n/a	n/a	n/a	n/a	n/a
731182	REC_WORD_VV	wordpools/wasnorm_wordpool.txt	LTP140	ltpFR	17	5	n/a	<>	-1	n/a	n/a	n/a	n/a	n/a	n/a	n/a	n/a
731390	REC_WORD	wordpools/wasnorm_wordpool.txt	LTP140	ltpFR	17	5	0	PAIL	1002	n/a	n/a	1	n/a	n/a	n/a	n/a	n/a
732937	REC_WORD	wordpools/wasnorm_wordpool.txt	LTP140	ltpFR	17	5	0	DOCTOR	478	n/a	n/a	1	n/a	n/a	n/a	n/a	n/a
734228	REC_WORD	wordpools/wasnorm_wordpool.txt	LTP140	ltpFR	17	5	0	STETHOSCOPE	1379	n/a	n/a	0	n/a	n/a	n/a	n/a	n/a
735228	REC_WORD_VV	wordpools/wasnorm_wordpool.txt	LTP140	ltpFR	17	5	n/a	<>	-1	n/a	n/a	n/a	n/a	n/a	n/a	n/a	n/a
736399	REC_WORD	wordpools/wasnorm_wordpool.txt	LTP140	ltpFR	17	5	0	LAWYER	806	n/a	n/a	1	n/a	n/a	n/a	n/a	n/a
737399	REC_WORD_VV	wordpools/wasnorm_wordpool.txt	LTP140	ltpFR	17	5	n/a	<>	-1	n/a	n/a	n/a	n/a	n/a	n/a	n/a	n/a
738644	REC_WORD	wordpools/wasnorm_wordpool.txt	LTP140	ltpFR	17	5	-1	PORCH	1106	n/a	n/a	-1	n/a	n/a	n/a	n/a	n/a
740255	REC_WORD	wordpools/wasnorm_wordpool.txt	LTP140	ltpFR	17	5	0	PERCH	1048	n/a	n/a	1	n/a	n/a	n/a	n/a	n/a
741732	REC_WORD	wordpools/wasnorm_wordpool.txt	LTP140	ltpFR	17	5	0	TUB	1514	n/a	n/a	1	n/a	n/a	n/a	n/a	n/a
742974	REC_WORD	wordpools/wasnorm_wordpool.txt	LTP140	ltpFR	17	5	0	CASKET	255	n/a	n/a	1	n/a	n/a	n/a	n/a	n/a
744411	REC_WORD	wordpools/wasnorm_wordpool.txt	LTP140	ltpFR	17	5	0	BUGLE	189	n/a	n/a	1	n/a	n/a	n/a	n/a	n/a
745643	REC_WORD	wordpools/wasnorm_wordpool.txt	LTP140	ltpFR	17	5	0	KITTEN	780	n/a	n/a	0	n/a	n/a	n/a	n/a	n/a
747269	REC_WORD	wordpools/wasnorm_wordpool.txt	LTP140	ltpFR	17	5	0	TUB	1514	n/a	n/a	1	n/a	n/a	n/a	n/a	n/a
749449	REC_WORD	wordpools/wasnorm_wordpool.txt	LTP140	ltpFR	17	5	0	PRAIRIE	1118	n/a	n/a	1	n/a	n/a	n/a	n/a	n/a
751285	REC_WORD	wordpools/wasnorm_wordpool.txt	LTP140	ltpFR	17	5	0	CELLO	268	n/a	n/a	1	n/a	n/a	n/a	n/a	n/a
754258	REC_WORD	wordpools/wasnorm_wordpool.txt	LTP140	ltpFR	17	5	0	BALCONY	72	n/a	n/a	1	n/a	n/a	n/a	n/a	n/a
766097	REC_WORD	wordpools/wasnorm_wordpool.txt	LTP140	ltpFR	17	5	0	POOL	1103	n/a	n/a	1	n/a	n/a	n/a	n/a	n/a
781252	REC_WORD	wordpools/wasnorm_wordpool.txt	LTP140	ltpFR	17	5	0	STETHOSCOPE	1379	n/a	n/a	0	n/a	n/a	n/a	n/a	n/a
792965	REC_WORD	wordpools/wasnorm_wordpool.txt	LTP140	ltpFR	17	5	0	DIME	466	n/a	n/a	0	n/a	n/a	n/a	n/a	n/a
805157	WORD	wordpools/wasnorm_wordpool.txt	LTP140	ltpFR	17	6	1	ASSOCIATE	49	n/a	n/a	1	0.57763671875	0.412841796875	1	upper	zerothre.ttf
809022	WORD	wordpools/wasnorm_wordpool.txt	LTP140	ltpFR	17	6	1	BRIEFCASE	175	n/a	n/a	0	0.57763671875	0.412841796875	1	upper	zerothre.ttf
813112	WORD	wordpools/wasnorm_wordpool.txt	LTP140	ltpFR	17	6	1	OFFICE	972	n/a	n/a	0	0.57763671875	0.412841796875	1	upper	zerothre.ttf
816994	WORD	wordpools/wasnorm_wordpool.txt	LTP140	ltpFR	17	6	1	BANDAGE	79	n/a	n/a	0	0.57763671875	0.412841796875	1	upper	zerothre.ttf
821068	WORD	wordpools/wasnorm_wordpool.txt	LTP140	ltpFR	17	6	1	KETTLE	772	n/a	n/a	0	0.57763671875	0.412841796875	1	upper	zerothre.ttf
825225	WORD	wordpools/wasnorm_wordpool.txt	LTP140	ltpFR	17	6	1	WOMAN	1620	n/a	n/a	1	0.57763671875	0.412841796875	1	upper	zerothre.ttf
829165	WORD	wordpools/wasnorm_wordpool.txt	LTP140	ltpFR	17	6	1	CAP	236	n/a	n/a	0	0.57763671875	0.412841796875	1	upper	zerothre.ttf
833338	WORD	wordpools/wasnorm_wordpool.txt	LTP140	ltpFR	17	6	1	COAT	333	n/a	n/a	0	0.57763671875	0.412841796875	1	upper	zerothre.ttf
837537	WORD	wordpools/wasnorm_wordpool.txt	LTP140	ltpFR	17	6	1	DENTIST	447	n/a	n/a	1	0.57763671875	0.412841796875	1	upper	zerothre.ttf
841712	WORD	wordpools/wasnorm_wordpool.txt	LTP140	ltpFR	17	6	1	TOOTHBRUSH	1482	n/a	n/a	0	0.57763671875	0.412841796875	1	upper	zerothre.ttf
845526	WORD	wordpools/wasnorm_wordpool.txt	LTP140	ltpFR	17	6	1	RELATIVE	1182	n/a	n/a	1	0.57763671875	0.412841796875	1	upper	zerothre.ttf
849433	WORD	wordpools/wasnorm_wordpool.txt	LTP140	ltpFR	17	6	1	SHEARS	1276	n/a	n/a	0	0.57763671875	0.412841796875	1	upper	zerothre.ttf
853506	WORD	wordpools/wasnorm_wordpool.txt	LTP140	ltpFR	17	6	1	SCROLL	1257	n/a	n/a	0	0.57763671875	0.412841796875	1	upper	zerothre.ttf
857405	WORD	wordpools/wasnorm_wordpool.txt	LTP140	ltpFR	17	6	1	SHELF	1280	n/a	n/a	0	0.57763671875	0.412841796875	1	upper	zerothre.ttf
861403	WORD	wordpools/wasnorm_wordpool.txt	LTP140	ltpFR	17	6	1	WIFE	1609	n/a	n/a	1	0.57763671875	0.412841796875	1	upper	zerothre.ttf
865460	WORD	wordpools/wasnorm_wordpool.txt	LTP140	ltpFR	17	6	1	CUPBOARD	425	n/a	n/a	0	0.57763671875	0.412841796875	1	upper	zerothre.ttf
871342	REC_START	n/a	LTP140	ltpFR	17	6	n/a	n/a	n/a	n/a	n/a	n/a	n/a	n/a	n/a	n/a	n/a
872110	REC_WORD	wordpools/wasnorm_wordpool.txt	LTP140	ltpFR	17	6	1	CUPBOARD	425	n/a	n/a	0	n/a	n/a	n/a	n/a	n/a
873122	REC_WORD	wordpools/wasnorm_wordpool.txt	LTP140	ltpFR	17	6	1	WIFE	1609	n/a	n/a	1	n/a	n/a	n/a	n/a	n/a
874122	REC_WORD_VV	wordpools/wasnorm_wordpool.txt	LTP140	ltpFR	17	6	n/a	<>	-1	n/a	n/a	n/a	n/a	n/a	n/a	n/a	n/a
874839	REC_WORD	wordpools/wasnorm_wordpool.txt	LTP140	ltpFR	17	6	n/a	KITCHEN	778	n/a	n/a	n/a	n/a	n/a	n/a	n/a	n/a
877024	REC_WORD	wordpools/wasnorm_wordpool.txt	LTP140	ltpFR	17	6	1	RELATIVE	1182	n/a	n/a	1	n/a	n/a	n/a	n/a	n/a
878186	REC_WORD	wordpools/wasnorm_wordpool.txt	LTP140	ltpFR	17	6	1	SHELF	1280	n/a	n/a	0	n/a	n/a	n/a	n/a	n/a
879383	REC_WORD	wordpools/wasnorm_wordpool.txt	LTP140	ltpFR	17	6	1	SCROLL	1257	n/a	n/a	0	n/a	n/a	n/a	n/a	n/a
880383	REC_WORD_VV	wordpools/wasnorm_wordpool.txt	LTP140	ltpFR	17	6	n/a	<>	-1	n/a	n/a	n/a	n/a	n/a	n/a	n/a	n/a
881199	REC_WORD	wordpools/wasnorm_wordpool.txt	LTP140	ltpFR	17	6	1	KETTLE	772	n/a	n/a	0	n/a	n/a	n/a	n/a	n/a
882876	REC_WORD	wordpools/wasnorm_wordpool.txt	LTP140	ltpFR	17	6	n/a	BURN	-1	n/a	n/a	n/a	n/a	n/a	n/a	n/a	n/a
884277	REC_WORD	wordpools/wasnorm_wordpool.txt	LTP140	ltpFR	17	6	1	BANDAGE	79	n/a	n/a	0	n/a	n/a	n/a	n/a	n/a
885395	REC_WORD	wordpools/wasnorm_wordpool.txt	LTP140	ltpFR	17	6	1	ASSOCIATE	49	n/a	n/a	1	n/a	n/a	n/a	n/a	n/a
887116	REC_WORD	wordpools/wasnorm_wordpool.txt	LTP140	ltpFR	17	6	1	BRIEFCASE	175	n/a	n/a	0	n/a	n/a	n/a	n/a	n/a
888116	REC_WORD_VV	wordpools/wasnorm_wordpool.txt	LTP140	ltpFR	17	6	n/a	<>	-1	n/a	n/a	n/a	n/a	n/a	n/a	n/a	n/a
888637	REC_WORD	wordpools/wasnorm_wordpool.txt	LTP140	ltpFR	17	6	1	DENTIST	447	n/a	n/a	1	n/a	n/a	n/a	n/a	n/a
889637	REC_WORD_VV	wordpools/wasnorm_wordpool.txt	LTP140	ltpFR	17	6	n/a	<>	-1	n/a	n/a	n/a	n/a	n/a	n/a	n/a	n/a
890319	REC_WORD	wordpools/wasnorm_wordpool.txt	LTP140	ltpFR	17	6	1	BANDAGE	79	n/a	n/a	0	n/a	n/a	n/a	n/a	n/a
892344	REC_WORD	wordpools/wasnorm_wordpool.txt	LTP140	ltpFR	17	6	1	TOOTHBRUSH	1482	n/a	n/a	0	n/a	n/a	n/a	n/a	n/a
893344	REC_WORD_VV	wordpools/wasnorm_wordpool.txt	LTP140	ltpFR	17	6	n/a	<>	-1	n/a	n/a	n/a	n/a	n/a	n/a	n/a	n/a
898191	REC_WORD	wordpools/wasnorm_wordpool.txt	LTP140	ltpFR	17	6	1	OFFICE	972	n/a	n/a	0	n/a	n/a	n/a	n/a	n/a
905429	REC_WORD	wordpools/wasnorm_wordpool.txt	LTP140	ltpFR	17	6	1	WIFE	1609	n/a	n/a	1	n/a	n/a	n/a	n/a	n/a
945688	REC_WORD	wordpools/wasnorm_wordpool.txt	LTP140	ltpFR	17	6	1	OFFICE	972	n/a	n/a	0	n/a	n/a	n/a	n/a	n/a
955778	WORD	wordpools/wasnorm_wordpool.txt	LTP140	ltpFR	17	7	1	ROCKET	1202	n/a	n/a	0	0.57763671875	0.412841796875	1	upper	zerothre.ttf
959835	WORD	wordpools/wasnorm_wordpool.txt	LTP140	ltpFR	17	7	1	RUG	1215	n/a	n/a	0	0.57763671875	0.412841796875	1	upper	zerothre.ttf
963975	WORD	wordpools/wasnorm_wordpool.txt	LTP140	ltpFR	17	7	1	NOTE	958	n/a	n/a	0	0.57763671875	0.412841796875	1	upper	zerothre.ttf
968174	WORD	wordpools/wasnorm_wordpool.txt	LTP140	ltpFR	17	7	1	LABEL	790	n/a	n/a	0	0.57763671875	0.412841796875	1	upper	zerothre.ttf
972347	WORD	wordpools/wasnorm_wordpool.txt	LTP140	ltpFR	17	7	1	VIKING	1565	n/a	n/a	1	0.57763671875	0.412841796875	1	upper	zerothre.ttf
976479	WORD	wordpools/wasnorm_wordpool.txt	LTP140	ltpFR	17	7	1	DRAWER	493	n/a	n/a	0	0.57763671875	0.412841796875	1	upper	zerothre.ttf
980679	WORD	wordpools/wasnorm_wordpool.txt	LTP140	ltpFR	17	7	1	GARAGE	621	n/a	n/a	0	0.57763671875	0.412841796875	1	upper	zerothre.ttf
984760	WORD	wordpools/wasnorm_wordpool.txt	LTP140	ltpFR	17	7	1	GROUND	666	n/a	n/a	0	0.57763671875	0.412841796875	1	upper	zerothre.ttf
988650	WORD	wordpools/wasnorm_wordpool.txt	LTP140	ltpFR	17	7	1	TOY	1492	n/a	n/a	0	0.57763671875	0.412841796875	1	upper	zerothre.ttf
992748	WORD	wordpools/wasnorm_wordpool.txt	LTP140	ltpFR	17	7	1	KITCHEN	778	n/a	n/a	0	0.57763671875	0.412841796875	1	upper	zerothre.ttf
996614	WORD	wordpools/wasnorm_wordpool.txt	LTP140	ltpFR	17	7	1	BAKER	71	n/a	n/a	1	0.57763671875	0.412841796875	1	upper	zerothre.ttf
1000629	WORD	wordpools/wasnorm_wordpool.txt	LTP140	ltpFR	17	7	1	CAR	241	n/a	n/a	0	0.57763671875	0.412841796875	1	upper	zerothre.ttf
1004704	WORD	wordpools/wasnorm_wordpool.txt	LTP140	ltpFR	17	7	1	CYCLONE	431	n/a	n/a	0	0.57763671875	0.412841796875	1	upper	zerothre.ttf
1008518	WORD	wordpools/wasnorm_wordpool.txt	LTP140	ltpFR	17	7	1	VICTIM	1562	n/a	n/a	1	0.57763671875	0.412841796875	1	upper	zerothre.ttf
1012701	WORD	wordpools/wasnorm_wordpool.txt	LTP140	ltpFR	17	7	1	COLT	349	n/a	n/a	1	0.57763671875	0.412841796875	1	upper	zerothre.ttf
1016590	WORD	wordpools/wasnorm_wordpool.txt	LTP140	ltpFR	17	7	1	PONY	1102	n/a	n/a	1	0.57763671875	0.412841796875	1	upper	zerothre.ttf
1022572	REC_START	n/a	LTP140	ltpFR	17	7	n/a	n/a	n/a	n/a	n/a	n/a	n/a	n/a	n/a	n/a	n/a
1023400	REC_WORD	wordpools/wasnorm_wordpool.txt	LTP140	ltpFR	17	7	1	PONY	1102	n/a	n/a	1	n/a	n/a	n/a	n/a	n/a
1024378	REC_WORD	wordpools/wasnorm_wordpool.txt	LTP140	ltpFR	17	7	1	COLT	349	n/a	n/a	1	n/a	n/a	n/a	n/a	n/a
1025590	REC_WORD	wordpools/wasnorm_wordpool.txt	LTP140	ltpFR	17	7	n/a	HORSE	719	n/a	n/a	n/a	n/a	n/a	n/a	n/a	n/a
1026567	REC_WORD	wordpools/wasnorm_wordpool.txt	LTP140	ltpFR	17	7	1	VICTIM	1562	n/a	n/a	1	n/a	n/a	n/a	n/a	n/a
1027890	REC_WORD	wordpools/wasnorm_wordpool.txt	LTP140	ltpFR	17	7	1	CAR	241	n/a	n/a	0	n/a	n/a	n/a	n/a	n/a
1029431	REC_WORD	wordpools/wasnorm_wordpool.txt	LTP140	ltpFR	17	7	1	BAKER	71	n/a	n/a	1	n/a	n/a	n/a	n/a	n/a
1030614	REC_WORD	wordpools/wasnorm_wordpool.txt	LTP140	ltpFR	17	7	n/a	BREAD	170	n/a	n/a	n/a	n/a	n/a	n/a	n/a	n/a
1032380	REC_WORD	wordpools/wasnorm_wordpool.txt	LTP140	ltpFR	17	7	1	KITCHEN	778	n/a	n/a	0	n/a	n/a	n/a	n/a	n/a
1033756	REC_WORD	wordpools/wasnorm_wordpool.txt	LTP140	ltpFR	17	7	1	TOY	1492	n/a	n/a	0	n/a	n/a	n/a	n/a	n/a
1035038	REC_WORD	wordpools/wasnorm_wordpool.txt	LTP140	ltpFR	17	7	1	CYCLONE	431	n/a	n/a	0	n/a	n/a	n/a	n/a	n/a
1036038	REC_WORD_VV	wordpools/wasnorm_wordpool.txt	LTP140	ltpFR	17	7	n/a	<>	-1	n/a	n/a	n/a	n/a	n/a	n/a	n/a	n/a
1036774	REC_WORD	wordpools/wasnorm_wordpool.txt	LTP140	ltpFR	17	7	1	RUG	1215	n/a	n/a	0	n/a	n/a	n/a	n/a	n/a
1037627	REC_WORD	wordpools/wasnorm_wordpool.txt	LTP140	ltpFR	17	7	1	ROCKET	1202	n/a	n/a	0	n/a	n/a	n/a	n/a	n/a
1038889	REC_WORD	wordpools/wasnorm_wordpool.txt	LTP140	ltpFR	17	7	1	VIKING	1565	n/a	n/a	1	n/a	n/a	n/a	n/a	n/a
1040346	REC_WORD	wordpools/wasnorm_wordpool.txt	LTP140	ltpFR	17	7	1	LABEL	790	n/a	n/a	0	n/a	n/a	n/a	n/a	n/a
1041494	REC_WORD	wordpools/wasnorm_wordpool.txt	LTP140	ltpFR	17	7	1	NOTE	958	n/a	n/a	0	n/a	n/a	n/a	n/a	n/a
1042516	REC_WORD	wordpools/wasnorm_wordpool.txt	LTP140	ltpFR	17	7	1	DRAWER	493	n/a	n/a	0	n/a	n/a	n/a	n/a	n/a
1043374	REC_WORD	wordpools/wasnorm_wordpool.txt	LTP140	ltpFR	17	7	1	GARAGE	621	n/a	n/a	0	n/a	n/a	n/a	n/a	n/a
1044911	REC_WORD	wordpools/wasnorm_wordpool.txt	LTP140	ltpFR	17	7	1	GROUND	666	n/a	n/a	0	n/a	n/a	n/a	n/a	n/a
1047745	REC_WORD	wordpools/wasnorm_wordpool.txt	LTP140	ltpFR	17	7	1	SHELF	1280	n/a	n/a	0	n/a	n/a	n/a	n/a	n/a
1057837	REC_WORD	wordpools/wasnorm_wordpool.txt	LTP140	ltpFR	17	7	1	CAP	236	n/a	n/a	0	n/a	n/a	n/a	n/a	n/a
1095591	REC_WORD	wordpools/wasnorm_wordpool.txt	LTP140	ltpFR	17	7	1	SHELF	1280	n/a	n/a	0	n/a	n/a	n/a	n/a	n/a
1100085	WORD	wordpools/wasnorm_wordpool.txt	LTP140	ltpFR	17	8	1	VENUS	1557	n/a	n/a	3	0.57763671875	0.412841796875	1	upper	zerothre.ttf
1101451	KEY_MSG	n/a	LTP140	ltpFR	17	8	n/a	n/a	n/a	n/a	n/a	n/a	n/a	n/a	n/a	n/a	n/a
1104217	WORD	wordpools/wasnorm_wordpool.txt	LTP140	ltpFR	17	8	1	RIVER	1194	n/a	n/a	0	0.57763671875	0.412841796875	1	upper	zerothre.ttf
1108341	WORD	wordpools/wasnorm_wordpool.txt	LTP140	ltpFR	17	8	1	BASSINET	97	n/a	n/a	0	0.57763671875	0.412841796875	1	upper	zerothre.ttf
1112539	WORD	wordpools/wasnorm_wordpool.txt	LTP140	ltpFR	17	8	1	SPIT	1354	n/a	n/a	0	0.57763671875	0.412841796875	1	upper	zerothre.ttf
1116454	WORD	wordpools/wasnorm_wordpool.txt	LTP140	ltpFR	17	8	1	SLUG	1329	n/a	n/a	1	0.57763671875	0.412841796875	1	upper	zerothre.ttf
1120361	WORD	wordpools/wasnorm_wordpool.txt	LTP140	ltpFR	17	8	1	TELEPHONE	1445	n/a	n/a	0	0.57763671875	0.412841796875	1	upper	zerothre.ttf
1124427	WORD	wordpools/wasnorm_wordpool.txt	LTP140	ltpFR	17	8	1	CAN	225	n/a	n/a	0	0.57763671875	0.412841796875	1	upper	zerothre.ttf
1128325	WORD	wordpools/wasnorm_wordpool.txt	LTP140	ltpFR	17	8	1	HOSE	720	n/a	n/a	0	0.57763671875	0.412841796875	1	upper	zerothre.ttf
1132499	WORD	wordpools/wasnorm_wordpool.txt	LTP140	ltpFR	17	8	1	ABDOMEN	1	n/a	n/a	1	0.57763671875	0.412841796875	1	upper	zerothre.ttf
1136364	WORD	wordpools/wasnorm_wordpool.txt	LTP140	ltpFR	17	8	1	ALLEY	15	n/a	n/a	0	0.57763671875	0.412841796875	1	upper	zerothre.ttf
1140463	WORD	wordpools/wasnorm_wordpool.txt	LTP140	ltpFR	17	8	1	MEADOW	881	n/a	n/a	0	0.57763671875	0.412841796875	1	upper	zerothre.ttf
1144420	WORD	wordpools/wasnorm_wordpool.txt	LTP140	ltpFR	17	8	1	HOE	711	n/a	n/a	0	0.57763671875	0.412841796875	1	upper	zerothre.ttf
1148401	WORD	wordpools/wasnorm_wordpool.txt	LTP140	ltpFR	17	8	1	QUAIL	1147	n/a	n/a	1	0.57763671875	0.412841796875	1	upper	zerothre.ttf
1152258	WORD	wordpools/wasnorm_wordpool.txt	LTP140	ltpFR	17	8	1	DOVE	491	n/a	n/a	1	0.57763671875	0.412841796875	1	upper	zerothre.ttf
1156232	WORD	wordpools/wasnorm_wordpool.txt	LTP140	ltpFR	17	8	1	INFANT	737	n/a	n/a	1	0.57763671875	0.412841796875	1	upper	zerothre.ttf
1160414	WORD	wordpools/wasnorm_wordpool.txt	LTP140	ltpFR	17	8	1	MOUSE	925	n/a	n/a	1	0.57763671875	0.412841796875	1	upper	zerothre.ttf
1166371	REC_START	n/a	LTP140	ltpFR	17	8	n/a	n/a	n/a	n/a	n/a	n/a	n/a	n/a	n/a	n/a	n/a
1167209	REC_WORD	wordpools/wasnorm_wordpool.txt	LTP140	ltpFR	17	8	1	MOUSE	925	n/a	n/a	1	n/a	n/a	n/a	n/a	n/a
1168237	REC_WORD	wordpools/wasnorm_wordpool.txt	LTP140	ltpFR	17	8	1	INFANT	737	n/a	n/a	1	n/a	n/a	n/a	n/a	n/a
1169234	REC_WORD	wordpools/wasnorm_wordpool.txt	LTP140	ltpFR	17	8	n/a	BABY	64	n/a	n/a	n/a	n/a	n/a	n/a	n/a	n/a
1170297	REC_WORD	wordpools/wasnorm_wordpool.txt	LTP140	ltpFR	17	8	1	QUAIL	1147	n/a	n/a	1	n/a	n/a	n/a	n/a	n/a
1171335	REC_WORD	wordpools/wasnorm_wordpool.txt	LTP140	ltpFR	17	8	1	ALLEY	15	n/a	n/a	0	n/a	n/a	n/a	n/a	n/a
1172197	REC_WORD	wordpools/wasnorm_wordpool.txt	LTP140	ltpFR	17	8	1	MEADOW	881	n/a	n/a	0	n/a	n/a	n/a	n/a	n/a
1173614	REC_WORD	wordpools/wasnorm_wordpool.txt	LTP140	ltpFR	17	8	1	ABDOMEN	1	n/a	n/a	1	n/a	n/a	n/a	n/a	n/a
1175211	REC_WORD	wordpools/wasnorm_wordpool.txt	LTP140	ltpFR	17	8	1	VENUS	1557	n/a	n/a	3	n/a	n/a	n/a	n/a	n/a
1176762	REC_WORD	wordpools/wasnorm_wordpool.txt	LTP140	ltpFR	17	8	1	BASSINET	97	n/a	n/a	0	n/a	n/a	n/a	n/a	n/a
1178118	REC_WORD	wordpools/wasnorm_wordpool.txt	LTP140	ltpFR	17	8	1	SPIT	1354	n/a	n/a	0	n/a	n/a	n/a	n/a	n/a
1179471	REC_WORD	wordpools/wasnorm_wordpool.txt	LTP140	ltpFR	17	8	1	HOSE	720	n/a	n/a	0	n/a	n/a	n/a	n/a	n/a
1180658	REC_WORD	wordpools/wasnorm_wordpool.txt	LTP140	ltpFR	17	8	1	HOE	711	n/a	n/a	0	n/a	n/a	n/a	n/a	n/a
1184285	REC_WORD	wordpools/wasnorm_wordpool.txt	LTP140	ltpFR	17	8	1	RIVER	1194	n/a	n/a	0	n/a	n/a	n/a	n/a	n/a
1187422	REC_WORD	wordpools/wasnorm_wordpool.txt	LTP140	ltpFR	17	8	0	SNAIL	1332	n/a	n/a	0	n/a	n/a	n/a	n/a	n/a
1195250	REC_WORD	wordpools/wasnorm_wordpool.txt	LTP140	ltpFR	17	8	1	ABDOMEN	1	n/a	n/a	1	n/a	n/a	n/a	n/a	n/a
1207273	REC_WORD	wordpools/wasnorm_wordpool.txt	LTP140	ltpFR	17	8	1	CAN	225	n/a	n/a	0	n/a	n/a	n/a	n/a	n/a
1208809	REC_WORD	wordpools/wasnorm_wordpool.txt	LTP140	ltpFR	17	8	1	TELEPHONE	1445	n/a	n/a	0	n/a	n/a	n/a	n/a	n/a
1211184	REC_WORD	wordpools/wasnorm_wordpool.txt	LTP140	ltpFR	17	8	n/a	LINE	-1	n/a	n/a	n/a	n/a	n/a	n/a	n/a	n/a
1245042	WORD	wordpools/wasnorm_wordpool.txt	LTP140	ltpFR	17	9	0	PARTNER	1017	n/a	n/a	1	0.422607421875	0.5869140625	0	lower	amplitud.ttf
1249091	WORD	wordpools/wasnorm_wordpool.txt	LTP140	ltpFR	17	9	0	KNAPSACK	783	n/a	n/a	1	0.422607421875	0.5869140625	0	lower	amplitud.ttf
1253281	WORD	wordpools/wasnorm_wordpool.txt	LTP140	ltpFR	17	9	0	HANDBAG	684	n/a	n/a	1	0.422607421875	0.5869140625	0	lower	amplitud.ttf
1257146	WORD	wordpools/wasnorm_wordpool.txt	LTP140	ltpFR	17	9	0	CLOVE	329	n/a	n/a	0	0.422607421875	0.5869140625	0	lower	amplitud.ttf
1260995	WORD	wordpools/wasnorm_wordpool.txt	LTP140	ltpFR	17	9	0	CANDY	230	n/a	n/a	0	0.422607421875	0.5869140625	0	lower	amplitud.ttf
1264860	WORD	wordpools/wasnorm_wordpool.txt	LTP140	ltpFR	17	9	0	STICKER	1382	n/a	n/a	0	0.422607421875	0.5869140625	0	lower	amplitud.ttf
1268983	WORD	wordpools/wasnorm_wordpool.txt	LTP140	ltpFR	17	9	0	SUBMARINE	1398	n/a	n/a	1	0.422607421875	0.5869140625	0	lower	amplitud.ttf
1273165	WORD	wordpools/wasnorm_wordpool.txt	LTP140	ltpFR	17	9	0	GOAT	644	n/a	n/a	1	0.422607421875	0.5869140625	0	lower	amplitud.ttf
1277197	WORD	wordpools/wasnorm_wordpool.txt	LTP140	ltpFR	17	9	0	PLIERS	1089	n/a	n/a	0	0.422607421875	0.5869140625	0	lower	amplitud.ttf
1281271	WORD	wordpools/wasnorm_wordpool.txt	LTP140	ltpFR	17	9	0	HAMMER	680	n/a	n/a	0	0.422607421875	0.5869140625	0	lower	amplitud.ttf
1285344	WORD	wordpools/wasnorm_wordpool.txt	LTP140	ltpFR	17	9	0	BRIDGE	174	n/a	n/a	1	0.422607421875	0.5869140625	0	lower	amplitud.ttf
1289526	WORD	wordpools/wasnorm_wordpool.txt	LTP140	ltpFR	17	9	0	JUG	762	n/a	n/a	1	0.422607421875	0.5869140625	0	lower	amplitud.ttf
1293734	WORD	wordpools/wasnorm_wordpool.txt	LTP140	ltpFR	17	9	0	PILL	1068	n/a	n/a	0	0.422607421875	0.5869140625	0	lower	amplitud.ttf
1297733	WORD	wordpools/wasnorm_wordpool.txt	LTP140	ltpFR	17	9	0	ZOO	1637	n/a	n/a	1	0.422607421875	0.5869140625	0	lower	amplitud.ttf
1301772	WORD	wordpools/wasnorm_wordpool.txt	LTP140	ltpFR	17	9	0	ENCYCLOPEDIA	533	n/a	n/a	1	0.422607421875	0.5869140625	0	lower	amplitud.ttf
1305745	WORD	wordpools/wasnorm_wordpool.txt	LTP140	ltpFR	17	9	0	PARSLEY	1016	n/a	n/a	0	0.422607421875	0.5869140625	0	lower	amplitud.ttf
1311703	REC_START	n/a	LTP140	ltpFR	17	9	n/a	n/a	n/a	n/a	n/a	n/a	n/a	n/a	n/a	n/a	n/a
1312631	REC_WORD	wordpools/wasnorm_wordpool.txt	LTP140	ltpFR	17	9	0	PARSLEY	1016	n/a	n/a	0	n/a	n/a	n/a	n/a	n/a
1313788	REC_WORD	wordpools/wasnorm_wordpool.txt	LTP140	ltpFR	17	9	0	ENCYCLOPEDIA	533	n/a	n/a	1	n/a	n/a	n/a	n/a	n/a
1314788	REC_WORD_VV	wordpools/wasnorm_wordpool.txt	LTP140	ltpFR	17	9	n/a	<>	-1	n/a	n/a	n/a	n/a	n/a	n/a	n/a	n/a
1315252	REC_WORD	wordpools/wasnorm_wordpool.txt	LTP140	ltpFR	17	9	0	ZOO	1637	n/a	n/a	1	n/a	n/a	n/a	n/a	n/a
1316502	REC_WORD	wordpools/wasnorm_wordpool.txt	LTP140	ltpFR	17	9	0	PILL	1068	n/a	n/a	0	n/a	n/a	n/a	n/a	n/a
1317839	REC_WORD	wordpools/wasnorm_wordpool.txt	LTP140	ltpFR	17	9	n/a	ZEBRA	1635	n/a	n/a	n/a	n/a	n/a	n/a	n/a	n/a
1319934	REC_WORD	wordpools/wasnorm_wordpool.txt	LTP140	ltpFR	17	9	0	KNAPSACK	783	n/a	n/a	1	n/a	n/a	n/a	n/a	n/a
1321226	REC_WORD	wordpools/wasnorm_wordpool.txt	LTP140	ltpFR	17	9	0	HANDBAG	684	n/a	n/a	1	n/a	n/a	n/a	n/a	n/a
1322226	REC_WORD_VV	wordpools/wasnorm_wordpool.txt	LTP140	ltpFR	17	9	n/a	<>	-1	n/a	n/a	n/a	n/a	n/a	n/a	n/a	n/a
1322857	REC_WORD	wordpools/wasnorm_wordpool.txt	LTP140	ltpFR	17	9	0	PARTNER	1017	n/a	n/a	1	n/a	n/a	n/a	n/a	n/a
1323857	REC_WORD_VV	wordpools/wasnorm_wordpool.txt	LTP140	ltpFR	17	9	n/a	<>	-1	n/a	n/a	n/a	n/a	n/a	n/a	n/a	n/a
1324833	REC_WORD	wordpools/wasnorm_wordpool.txt	LTP140	ltpFR	17	9	0	BRIDGE	174	n/a	n/a	1	n/a	n/a	n/a	n/a	n/a
1328295	REC_WORD	wordpools/wasnorm_wordpool.txt	LTP140	ltpFR	17	9	0	PARSLEY	1016	n/a	n/a	0	n/a	n/a	n/a	n/a	n/a
1335808	REC_WORD	wordpools/wasnorm_wordpool.txt	LTP140	ltpFR	17	9	0	GOAT	644	n/a	n/a	1	n/a	n/a	n/a	n/a	n/a
1338607	REC_WORD	wordpools/wasnorm_wordpool.txt	LTP140	ltpFR	17	9	0	PLIERS	1089	n/a	n/a	0	n/a	n/a	n/a	n/a	n/a
1339978	REC_WORD	wordpools/wasnorm_wordpool.txt	LTP140	ltpFR	17	9	0	HAMMER	680	n/a	n/a	0	n/a	n/a	n/a	n/a	n/a
1340978	REC_WORD_VV	wordpools/wasnorm_wordpool.txt	LTP140	ltpFR	17	9	n/a	<>	-1	n/a	n/a	n/a	n/a	n/a	n/a	n/a	n/a
1341680	REC_WORD	wordpools/wasnorm_wordpool.txt	LTP140	ltpFR	17	9	0	JUG	762	n/a	n/a	1	n/a	n/a	n/a	n/a	n/a
1353343	REC_WORD	wordpools/wasnorm_wordpool.txt	LTP140	ltpFR	17	9	n/a	WATER	1594	n/a	n/a	n/a	n/a	n/a	n/a	n/a	n/a
1359394	REC_WORD	wordpools/wasnorm_wordpool.txt	LTP140	ltpFR	17	9	0	STICKER	1382	n/a	n/a	0	n/a	n/a	n/a	n/a	n/a
1362786	REC_WORD	wordpools/wasnorm_wordpool.txt	LTP140	ltpFR	17	9	0	SUBMARINE	1398	n/a	n/a	1	n/a	n/a	n/a	n/a	n/a
1363786	REC_WORD_VV	wordpools/wasnorm_wordpool.txt	LTP140	ltpFR	17	9	n/a	<>	-1	n/a	n/a	n/a	n/a	n/a	n/a	n/a	n/a
1389849	WORD	wordpools/wasnorm_wordpool.txt	LTP140	ltpFR	17	10	0	BREAST	171	n/a	n/a	1	0.422607421875	0.5869140625	0	lower	amplitud.ttf
1393740	WORD	wordpools/wasnorm_wordpool.txt	LTP140	ltpFR	17	10	0	LETTUCE	814	n/a	n/a	0	0.422607421875	0.5869140625	0	lower	amplitud.ttf
1397904	WORD	wordpools/wasnorm_wordpool.txt	LTP140	ltpFR	17	10	0	ROAD	1196	n/a	n/a	1	0.422607421875	0.5869140625	0	lower	amplitud.ttf
1401795	WORD	wordpools/wasnorm_wordpool.txt	LTP140	ltpFR	17	10	0	POET	1095	n/a	n/a	1	0.422607421875	0.5869140625	0	lower	amplitud.ttf
1405826	WORD	wordpools/wasnorm_wordpool.txt	LTP140	ltpFR	17	10	0	CHILD	299	n/a	n/a	1	0.422607421875	0.5869140625	0	lower	amplitud.ttf
1409825	WORD	wordpools/wasnorm_wordpool.txt	LTP140	ltpFR	17	10	1	CUCUMBER	421	n/a	n/a	1	0.57763671875	0.412841796875	1	upper	zerothre.ttf
1413874	WORD	wordpools/wasnorm_wordpool.txt	LTP140	ltpFR	17	10	1	LEMON	810	n/a	n/a	1	0.57763671875	0.412841796875	1	upper	zerothre.ttf
1417980	WORD	wordpools/wasnorm_wordpool.txt	LTP140	ltpFR	17	10	1	SIDEWALK	1303	n/a	n/a	0	0.57763671875	0.412841796875	1	upper	zerothre.ttf
1422004	WORD	wordpools/wasnorm_wordpool.txt	LTP140	ltpFR	17	10	1	FARM	552	n/a	n/a	0	0.57763671875	0.412841796875	1	upper	zerothre.ttf
1425986	WORD	wordpools/wasnorm_wordpool.txt	LTP140	ltpFR	17	10	0	COIN	343	n/a	n/a	0	0.422607421875	0.5869140625	0	lower	amplitud.ttf
1430176	WORD	wordpools/wasnorm_wordpool.txt	LTP140	ltpFR	17	10	0	RATTLE	1170	n/a	n/a	0	0.422607421875	0.5869140625	0	lower	amplitud.ttf
1434008	WORD	wordpools/wasnorm_wordpool.txt	LTP140	ltpFR	17	10	0	BULL	193	n/a	n/a	1	0.422607421875	0.5869140625	0	lower	amplitud.ttf
1438040	WORD	wordpools/wasnorm_wordpool.txt	LTP140	ltpFR	17	10	1	PEOPLE	1046	n/a	n/a	1	0.57763671875	0.412841796875	1	upper	zerothre.ttf
1441864	WORD	wordpools/wasnorm_wordpool.txt	LTP140	ltpFR	17	10	1	MOB	904	n/a	n/a	1	0.57763671875	0.412841796875	1	upper	zerothre.ttf
1445762	WORD	wordpools/wasnorm_wordpool.txt	LTP140	ltpFR	17	10	1	BRICK	172	n/a	n/a	0	0.57763671875	0.412841796875	1	upper	zerothre.ttf
1449877	WORD	wordpools/wasnorm_wordpool.txt	LTP140	ltpFR	17	10	1	EWE	542	n/a	n/a	1	0.57763671875	0.412841796875	1	upper	zerothre.ttf
1455585	REC_START	n/a	LTP140	ltpFR	17	10	n/a	n/a	n/a	n/a	n/a	n/a	n/a	n/a	n/a	n/a	n/a
1456498	REC_WORD	wordpools/wasnorm_wordpool.txt	LTP140	ltpFR	17	10	1	EWE	542	n/a	n/a	1	n/a	n/a	n/a	n/a	n/a
1457296	REC_WORD	wordpools/wasnorm_wordpool.txt	LTP140	ltpFR	17	10	1	BRICK	172	n/a	n/a	0	n/a	n/a	n/a	n/a	n/a
1458368	REC_WORD	wordpools/wasnorm_wordpool.txt	LTP140	ltpFR	17	10	1	MOB	904	n/a	n/a	1	n/a	n/a	n/a	n/a	n/a
1459571	REC_WORD	wordpools/wasnorm_wordpool.txt	LTP140	ltpFR	17	10	1	PEOPLE	1046	n/a	n/a	1	n/a	n/a	n/a	n/a	n/a
1460454	REC_WORD	wordpools/wasnorm_wordpool.txt	LTP140	ltpFR	17	10	0	BREAST	171	n/a	n/a	1	n/a	n/a	n/a	n/a	n/a
1461262	REC_WORD	wordpools/wasnorm_wordpool.txt	LTP140	ltpFR	17	10	0	LETTUCE	814	n/a	n/a	0	n/a	n/a	n/a	n/a	n/a
1462309	REC_WORD	wordpools/wasnorm_wordpool.txt	LTP140	ltpFR	17	10	0	ROAD	1196	n/a	n/a	1	n/a	n/a	n/a	n/a	n/a
1463926	REC_WORD	wordpools/wasnorm_wordpool.txt	LTP140	ltpFR	17	10	0	POET	1095	n/a	n/a	1	n/a	n/a	n/a	n/a	n/a
1466171	REC_WORD	wordpools/wasnorm_wordpool.txt	LTP140	ltpFR	17	10	0	CHILD	299	n/a	n/a	1	n/a	n/a	n/a	n/a	n/a
1467543	REC_WORD	wordpools/wasnorm_wordpool.txt	LTP140	ltpFR	17	10	1	CUCUMBER	421	n/a	n/a	1	n/a	n/a	n/a	n/a	n/a
1469229	REC_WORD	wordpools/wasnorm_wordpool.txt	LTP140	ltpFR	17	10	1	LEMON	810	n/a	n/a	1	n/a	n/a	n/a	n/a	n/a
1470456	REC_WORD	wordpools/wasnorm_wordpool.txt	LTP140	ltpFR	17	10	n/a	SANDWICH	1232	n/a	n/a	n/a	n/a	n/a	n/a	n/a	n/a
1471456	REC_WORD_VV	wordpools/wasnorm_wordpool.txt	LTP140	ltpFR	17	10	n/a	<>	-1	n/a	n/a	n/a	n/a	n/a	n/a	n/a	n/a
1472636	REC_WORD	wordpools/wasnorm_wordpool.txt	LTP140	ltpFR	17	10	0	BULL	193	n/a	n/a	1	n/a	n/a	n/a	n/a	n/a
1474018	REC_WORD	wordpools/wasnorm_wordpool.txt	LTP140	ltpFR	17	10	1	FARM	552	n/a	n/a	0	n/a	n/a	n/a	n/a	n/a
1475429	REC_WORD	wordpools/wasnorm_wordpool.txt	LTP140	ltpFR	17	10	1	SIDEWALK	1303	n/a	n/a	0	n/a	n/a	n/a	n/a	n/a
1476429	REC_WORD_VV	wordpools/wasnorm_wordpool.txt	LTP140	ltpFR	17	10	n/a	<>	-1	n/a	n/a	n/a	n/a	n/a	n/a	n/a	n/a
1476776	REC_WORD	wordpools/wasnorm_wordpool.txt	LTP140	ltpFR	17	10	1	MOB	904	n/a	n/a	1	n/a	n/a	n/a	n/a	n/a
1482928	REC_WORD	wordpools/wasnorm_wordpool.txt	LTP140	ltpFR	17	10	1	BRICK	172	n/a	n/a	0	n/a	n/a	n/a	n/a	n/a
1496986	REC_WORD	wordpools/wasnorm_wordpool.txt	LTP140	ltpFR	17	10	n/a	CHICKEN	297	n/a	n/a	n/a	n/a	n/a	n/a	n/a	n/a
1507761	REC_WORD	wordpools/wasnorm_wordpool.txt	LTP140	ltpFR	17	10	n/a	CROWD	-1	n/a	n/a	n/a	n/a	n/a	n/a	n/a	n/a
1533856	WORD	wordpools/wasnorm_wordpool.txt	LTP140	ltpFR	17	11	1	BULLY	196	n/a	n/a	1	0.57763671875	0.412841796875	1	upper	zerothre.ttf
1537838	WORD	wordpools/wasnorm_wordpool.txt	LTP140	ltpFR	17	11	1	MINER	896	n/a	n/a	1	0.57763671875	0.412841796875	1	upper	zerothre.ttf
1541853	WORD	wordpools/wasnorm_wordpool.txt	LTP140	ltpFR	17	11	1	TUXEDO	1525	n/a	n/a	0	0.57763671875	0.412841796875	1	upper	zerothre.ttf
1545977	WORD	wordpools/wasnorm_wordpool.txt	LTP140	ltpFR	17	11	1	BOULDER	155	n/a	n/a	0	0.57763671875	0.412841796875	1	upper	zerothre.ttf
1550142	WORD	wordpools/wasnorm_wordpool.txt	LTP140	ltpFR	17	11	0	ROCK	1201	n/a	n/a	0	0.422607421875	0.5869140625	0	lower	amplitud.ttf
1554257	WORD	wordpools/wasnorm_wordpool.txt	LTP140	ltpFR	17	11	0	STAR	1373	n/a	n/a	1	0.422607421875	0.5869140625	0	lower	amplitud.ttf
1558214	WORD	wordpools/wasnorm_wordpool.txt	LTP140	ltpFR	17	11	1	CLARINET	317	n/a	n/a	0	0.57763671875	0.412841796875	1	upper	zerothre.ttf
1562096	WORD	wordpools/wasnorm_wordpool.txt	LTP140	ltpFR	17	11	1	SWAMP	1416	n/a	n/a	0	0.57763671875	0.412841796875	1	upper	zerothre.ttf
1566203	WORD	wordpools/wasnorm_wordpool.txt	LTP140	ltpFR	17	11	1	COLLEGE	346	n/a	n/a	0	0.57763671875	0.412841796875	1	upper	zerothre.ttf
1570293	WORD	wordpools/wasnorm_wordpool.txt	LTP140	ltpFR	17	11	1	STUDENT	1395	n/a	n/a	1	0.57763671875	0.412841796875	1	upper	zerothre.ttf
1574450	WORD	wordpools/wasnorm_wordpool.txt	LTP140	ltpFR	17	11	0	SCHOOL	1248	n/a	n/a	1	0.422607421875	0.5869140625	0	lower	amplitud.ttf
1578565	WORD	wordpools/wasnorm_wordpool.txt	LTP140	ltpFR	17	11	0	SUN	1406	n/a	n/a	1	0.422607421875	0.5869140625	0	lower	amplitud.ttf
1582480	WORD	wordpools/wasnorm_wordpool.txt	LTP140	ltpFR	17	11	0	CITRUS	313	n/a	n/a	0	0.422607421875	0.5869140625	0	lower	amplitud.ttf
1586662	WORD	wordpools/wasnorm_wordpool.txt	LTP140	ltpFR	17	11	0	CHEMICAL	291	n/a	n/a	1	0.422607421875	0.5869140625	0	lower	amplitud.ttf
1590586	WORD	wordpools/wasnorm_wordpool.txt	LTP140	ltpFR	17	11	0	ORGAN	984	n/a	n/a	1	0.422607421875	0.5869140625	0	lower	amplitud.ttf
1594584	WORD	wordpools/wasnorm_wordpool.txt	LTP140	ltpFR	17	11	0	PRUNE	1134	n/a	n/a	1	0.422607421875	0.5869140625	0	lower	amplitud.ttf
1600283	REC_START	n/a	LTP140	ltpFR	17	11	n/a	n/a	n/a	n/a	n/a	n/a	n/a	n/a	n/a	n/a	n/a
1601006	REC_WORD	wordpools/wasnorm_wordpool.txt	LTP140	ltpFR	17	11	0	PRUNE	1134	n/a	n/a	1	n/a	n/a	n/a	n/a	n/a
1602388	REC_WORD	wordpools/wasnorm_wordpool.txt	LTP140	ltpFR	17	11	0	ORGAN	984	n/a	n/a	1	n/a	n/a	n/a	n/a	n/a
1603481	REC_WORD	wordpools/wasnorm_wordpool.txt	LTP140	ltpFR	17	11	0	CHEMICAL	291	n/a	n/a	1	n/a	n/a	n/a	n/a	n/a
1605326	REC_WORD	wordpools/wasnorm_wordpool.txt	LTP140	ltpFR	17	11	1	COLLEGE	346	n/a	n/a	0	n/a	n/a	n/a	n/a	n/a
1606400	REC_WORD	wordpools/wasnorm_wordpool.txt	LTP140	ltpFR	17	11	0	SCHOOL	1248	n/a	n/a	1	n/a	n/a	n/a	n/a	n/a
1608828	REC_WORD	wordpools/wasnorm_wordpool.txt	LTP140	ltpFR	17	11	1	CLARINET	317	n/a	n/a	0	n/a	n/a	n/a	n/a	n/a
1610669	REC_WORD	wordpools/wasnorm_wordpool.txt	LTP140	ltpFR	17	11	1	BULLY	196	n/a	n/a	1	n/a	n/a	n/a	n/a	n/a
1613482	REC_WORD	wordpools/wasnorm_wordpool.txt	LTP140	ltpFR	17	11	0	SCHOOL	1248	n/a	n/a	1	n/a	n/a	n/a	n/a	n/a
1623280	REC_WORD	wordpools/wasnorm_wordpool.txt	LTP140	ltpFR	17	11	1	MINER	896	n/a	n/a	1	n/a	n/a	n/a	n/a	n/a
1624280	REC_WORD_VV	wordpools/wasnorm_wordpool.txt	LTP140	ltpFR	17	11	n/a	<>	-1	n/a	n/a	n/a	n/a	n/a	n/a	n/a	n/a
1626713	REC_WORD	wordpools/wasnorm_wordpool.txt	LTP140	ltpFR	17	11	0	ROCK	1201	n/a	n/a	0	n/a	n/a	n/a	n/a	n/a
1627739	REC_WORD	wordpools/wasnorm_wordpool.txt	LTP140	ltpFR	17	11	0	STAR	1373	n/a	n/a	1	n/a	n/a	n/a	n/a	n/a
1628739	REC_WORD_VV	wordpools/wasnorm_wordpool.txt	LTP140	ltpFR	17	11	n/a	<>	-1	n/a	n/a	n/a	n/a	n/a	n/a	n/a	n/a
1630260	REC_WORD	wordpools/wasnorm_wordpool.txt	LTP140	ltpFR	17	11	1	BOULDER	155	n/a	n/a	0	n/a	n/a	n/a	n/a	n/a
1634300	REC_WORD	wordpools/wasnorm_wordpool.txt	LTP140	ltpFR	17	11	n/a	HIKE	-1	n/a	n/a	n/a	n/a	n/a	n/a	n/a	n/a
1643140	REC_WORD	wordpools/wasnorm_wordpool.txt	LTP140	ltpFR	17	11	1	STUDENT	1395	n/a	n/a	1	n/a	n/a	n/a	n/a	n/a
1678296	WORD	wordpools/wasnorm_wordpool.txt	LTP140	ltpFR	17	12	0	FACE	547	n/a	n/a	1	0.422607421875	0.5869140625	0	lower	amplitud.ttf
1682145	WORD	wordpools/wasnorm_wordpool.txt	LTP140	ltpFR	17	12	0	BEARD	107	n/a	n/a	0	0.422607421875	0.5869140625	0	lower	amplitud.ttf
1686177	WORD	wordpools/wasnorm_wordpool.txt	LTP140	ltpFR	17	12	1	PAPER	1011	n/a	n/a	0	0.57763671875	0.412841796875	1	upper	zerothre.ttf
1690292	WORD	wordpools/wasnorm_wordpool.txt	LTP140	ltpFR	17	12	1	STAPLER	1372	n/a	n/a	0	0.57763671875	0.412841796875	1	upper	zerothre.ttf
1694174	WORD	wordpools/wasnorm_wordpool.txt	LTP140	ltpFR	17	12	1	ASTRONAUT	51	n/a	n/a	1	0.57763671875	0.412841796875	1	upper	zerothre.ttf
1698356	WORD	wordpools/wasnorm_wordpool.txt	LTP140	ltpFR	17	12	0	JUPITER	765	n/a	n/a	1	0.422607421875	0.5869140625	0	lower	amplitud.ttf
1702546	WORD	wordpools/wasnorm_wordpool.txt	LTP140	ltpFR	17	12	0	STALLION	1369	n/a	n/a	1	0.422607421875	0.5869140625	0	lower	amplitud.ttf
1706561	WORD	wordpools/wasnorm_wordpool.txt	LTP140	ltpFR	17	12	1	CART	250	n/a	n/a	0	0.57763671875	0.412841796875	1	upper	zerothre.ttf
1710468	WORD	wordpools/wasnorm_wordpool.txt	LTP140	ltpFR	17	12	1	DISC	473	n/a	n/a	0	0.57763671875	0.412841796875	1	upper	zerothre.ttf
1714317	WORD	wordpools/wasnorm_wordpool.txt	LTP140	ltpFR	17	12	1	WASHCLOTH	1591	n/a	n/a	0	0.57763671875	0.412841796875	1	upper	zerothre.ttf
1718182	WORD	wordpools/wasnorm_wordpool.txt	LTP140	ltpFR	17	12	1	COD	340	n/a	n/a	1	0.57763671875	0.412841796875	1	upper	zerothre.ttf
1722380	WORD	wordpools/wasnorm_wordpool.txt	LTP140	ltpFR	17	12	1	DUCK	504	n/a	n/a	1	0.57763671875	0.412841796875	1	upper	zerothre.ttf
1726312	WORD	wordpools/wasnorm_wordpool.txt	LTP140	ltpFR	17	12	0	MONASTERY	907	n/a	n/a	1	0.422607421875	0.5869140625	0	lower	amplitud.ttf
1730361	WORD	wordpools/wasnorm_wordpool.txt	LTP140	ltpFR	17	12	0	TERRITORY	1452	n/a	n/a	1	0.422607421875	0.5869140625	0	lower	amplitud.ttf
1734218	WORD	wordpools/wasnorm_wordpool.txt	LTP140	ltpFR	17	12	0	TROUT	1511	n/a	n/a	0	0.422607421875	0.5869140625	0	lower	amplitud.ttf
1738291	WORD	wordpools/wasnorm_wordpool.txt	LTP140	ltpFR	17	12	0	FIDDLE	561	n/a	n/a	1	0.422607421875	0.5869140625	0	lower	amplitud.ttf
1744240	REC_START	n/a	LTP140	ltpFR	17	12	n/a	n/a	n/a	n/a	n/a	n/a	n/a	n/a	n/a	n/a	n/a
1744803	REC_WORD	wordpools/wasnorm_wordpool.txt	LTP140	ltpFR	17	12	0	FIDDLE	561	n/a	n/a	1	n/a	n/a	n/a	n/a	n/a
1745642	REC_WORD	wordpools/wasnorm_wordpool.txt	LTP140	ltpFR	17	12	0	TROUT	1511	n/a	n/a	0	n/a	n/a	n/a	n/a	n/a
1746624	REC_WORD	wordpools/wasnorm_wordpool.txt	LTP140	ltpFR	17	12	0	TERRITORY	1452	n/a	n/a	1	n/a	n/a	n/a	n/a	n/a
1748096	REC_WORD	wordpools/wasnorm_wordpool.txt	LTP140	ltpFR	17	12	0	MONASTERY	907	n/a	n/a	1	n/a	n/a	n/a	n/a	n/a
1749096	REC_WORD_VV	wordpools/wasnorm_wordpool.txt	LTP140	ltpFR	17	12	n/a	<>	-1	n/a	n/a	n/a	n/a	n/a	n/a	n/a	n/a
1749807	REC_WORD	wordpools/wasnorm_wordpool.txt	LTP140	ltpFR	17	12	n/a	HILL	-1	n/a	n/a	n/a	n/a	n/a	n/a	n/a	n/a
1751194	REC_WORD	wordpools/wasnorm_wordpool.txt	LTP140	ltpFR	17	12	0	STALLION	1369	n/a	n/a	1	n/a	n/a	n/a	n/a	n/a
1752194	REC_WORD_VV	wordpools/wasnorm_wordpool.txt	LTP140	ltpFR	17	12	n/a	<>	-1	n/a	n/a	n/a	n/a	n/a	n/a	n/a	n/a
1752511	REC_WORD	wordpools/wasnorm_wordpool.txt	LTP140	ltpFR	17	12	1	CART	250	n/a	n/a	0	n/a	n/a	n/a	n/a	n/a
1753908	REC_WORD	wordpools/wasnorm_wordpool.txt	LTP140	ltpFR	17	12	1	DISC	473	n/a	n/a	0	n/a	n/a	n/a	n/a	n/a
1756527	REC_WORD	wordpools/wasnorm_wordpool.txt	LTP140	ltpFR	17	12	1	ASTRONAUT	51	n/a	n/a	1	n/a	n/a	n/a	n/a	n/a
1757527	REC_WORD_VV	wordpools/wasnorm_wordpool.txt	LTP140	ltpFR	17	12	n/a	<>	-1	n/a	n/a	n/a	n/a	n/a	n/a	n/a	n/a
1758442	REC_WORD	wordpools/wasnorm_wordpool.txt	LTP140	ltpFR	17	12	0	FACE	547	n/a	n/a	1	n/a	n/a	n/a	n/a	n/a
1760293	REC_WORD	wordpools/wasnorm_wordpool.txt	LTP140	ltpFR	17	12	0	BEARD	107	n/a	n/a	0	n/a	n/a	n/a	n/a	n/a
1761550	REC_WORD	wordpools/wasnorm_wordpool.txt	LTP140	ltpFR	17	12	n/a	HARE	688	n/a	n/a	n/a	n/a	n/a	n/a	n/a	n/a
1764698	REC_WORD	wordpools/wasnorm_wordpool.txt	LTP140	ltpFR	17	12	1	STAPLER	1372	n/a	n/a	0	n/a	n/a	n/a	n/a	n/a
1765856	REC_WORD	wordpools/wasnorm_wordpool.txt	LTP140	ltpFR	17	12	1	PAPER	1011	n/a	n/a	0	n/a	n/a	n/a	n/a	n/a
1766856	REC_WORD_VV	wordpools/wasnorm_wordpool.txt	LTP140	ltpFR	17	12	n/a	<>	-1	n/a	n/a	n/a	n/a	n/a	n/a	n/a	n/a
1771642	REC_WORD	wordpools/wasnorm_wordpool.txt	LTP140	ltpFR	17	12	n/a	SCRATCH	-1	n/a	n/a	n/a	n/a	n/a	n/a	n/a	n/a
1774117	REC_WORD	wordpools/wasnorm_wordpool.txt	LTP140	ltpFR	17	12	0	JUPITER	765	n/a	n/a	1	n/a	n/a	n/a	n/a	n/a
1777973	REC_WORD	wordpools/wasnorm_wordpool.txt	LTP140	ltpFR	17	12	0	STALLION	1369	n/a	n/a	1	n/a	n/a	n/a	n/a	n/a
1800267	REC_WORD	wordpools/wasnorm_wordpool.txt	LTP140	ltpFR	17	12	n/a	GRAVE	658	n/a	n/a	n/a	n/a	n/a	n/a	n/a	n/a
1819821	REST_REWET	n/a	LTP140	ltpFR	17	12	n/a	n/a	n/a	n/a	n/a	n/a	n/a	n/a	n/a	n/a	n/a
2298384	WORD	wordpools/wasnorm_wordpool.txt	LTP140	ltpFR	17	13	-1	KID	775	n/a	n/a	-1	1.0	1.0	1	upper	Verdana.ttf
2302466	WORD	wordpools/wasnorm_wordpool.txt	LTP140	ltpFR	17	13	-1	BAND	78	n/a	n/a	-1	1.0	1.0	1	upper	Verdana.ttf
2306614	WORD	wordpools/wasnorm_wordpool.txt	LTP140	ltpFR	17	13	-1	BANJO	82	n/a	n/a	-1	1.0	1.0	1	upper	Verdana.ttf
2310438	WORD	wordpools/wasnorm_wordpool.txt	LTP140	ltpFR	17	13	-1	PLANT	1083	n/a	n/a	-1	1.0	1.0	1	upper	Verdana.ttf
2314578	WORD	wordpools/wasnorm_wordpool.txt	LTP140	ltpFR	17	13	-1	SHRUB	1299	n/a	n/a	-1	1.0	1.0	1	upper	Verdana.ttf
2318694	WORD	wordpools/wasnorm_wordpool.txt	LTP140	ltpFR	17	13	-1	WICK	1607	n/a	n/a	-1	1.0	1.0	1	upper	Verdana.ttf
2322592	WORD	wordpools/wasnorm_wordpool.txt	LTP140	ltpFR	17	13	-1	BALLOON	75	n/a	n/a	-1	1.0	1.0	1	upper	Verdana.ttf
2326490	WORD	wordpools/wasnorm_wordpool.txt	LTP140	ltpFR	17	13	-1	VENT	1556	n/a	n/a	-1	1.0	1.0	1	upper	Verdana.ttf
2330606	WORD	wordpools/wasnorm_wordpool.txt	LTP140	ltpFR	17	13	-1	LUGGAGE	847	n/a	n/a	-1	1.0	1.0	1	upper	Verdana.ttf
2334705	WORD	wordpools/wasnorm_wordpool.txt	LTP140	ltpFR	17	13	-1	MICROWAVE	892	n/a	n/a	-1	1.0	1.0	1	upper	Verdana.ttf
2338803	WORD	wordpools/wasnorm_wordpool.txt	LTP140	ltpFR	17	13	-1	STEREO	1378	n/a	n/a	-1	1.0	1.0	1	upper	Verdana.ttf
2342835	WORD	wordpools/wasnorm_wordpool.txt	LTP140	ltpFR	17	13	-1	SWING	1421	n/a	n/a	-1	1.0	1.0	1	upper	Verdana.ttf
2346650	WORD	wordpools/wasnorm_wordpool.txt	LTP140	ltpFR	17	13	-1	MAT	877	n/a	n/a	-1	1.0	1.0	1	upper	Verdana.ttf
2350632	WORD	wordpools/wasnorm_wordpool.txt	LTP140	ltpFR	17	13	-1	SLIDE	1326	n/a	n/a	-1	1.0	1.0	1	upper	Verdana.ttf
2354814	WORD	wordpools/wasnorm_wordpool.txt	LTP140	ltpFR	17	13	-1	WART	1590	n/a	n/a	-1	1.0	1.0	1	upper	Verdana.ttf
2358705	WORD	wordpools/wasnorm_wordpool.txt	LTP140	ltpFR	17	13	-1	BENCH	121	n/a	n/a	-1	1.0	1.0	1	upper	Verdana.ttf
2364411	REC_START	n/a	LTP140	ltpFR	17	13	n/a	n/a	n/a	n/a	n/a	n/a	n/a	n/a	n/a	n/a	n/a
2365024	REC_WORD	wordpools/wasnorm_wordpool.txt	LTP140	ltpFR	17	13	-1	BENCH	121	n/a	n/a	-1	n/a	n/a	n/a	n/a	n/a
2366172	REC_WORD	wordpools/wasnorm_wordpool.txt	LTP140	ltpFR	17	13	-1	WART	1590	n/a	n/a	-1	n/a	n/a	n/a	n/a	n/a
2367194	REC_WORD	wordpools/wasnorm_wordpool.txt	LTP140	ltpFR	17	13	-1	SLIDE	1326	n/a	n/a	-1	n/a	n/a	n/a	n/a	n/a
2368457	REC_WORD	wordpools/wasnorm_wordpool.txt	LTP140	ltpFR	17	13	-1	MAT	877	n/a	n/a	-1	n/a	n/a	n/a	n/a	n/a
2369878	REC_WORD	wordpools/wasnorm_wordpool.txt	LTP140	ltpFR	17	13	-1	SWING	1421	n/a	n/a	-1	n/a	n/a	n/a	n/a	n/a
2372492	REC_WORD	wordpools/wasnorm_wordpool.txt	LTP140	ltpFR	17	13	-1	KID	775	n/a	n/a	-1	n/a	n/a	n/a	n/a	n/a
2373899	REC_WORD	wordpools/wasnorm_wordpool.txt	LTP140	ltpFR	17	13	0	GOAT	644	n/a	n/a	1	n/a	n/a	n/a	n/a	n/a
2375146	REC_WORD	wordpools/wasnorm_wordpool.txt	LTP140	ltpFR	17	13	-1	BAND	78	n/a	n/a	-1	n/a	n/a	n/a	n/a	n/a
2376279	REC_WORD	wordpools/wasnorm_wordpool.txt	LTP140	ltpFR	17	13	-1	BANJO	82	n/a	n/a	-1	n/a	n/a	n/a	n/a	n/a
2377461	REC_WORD	wordpools/wasnorm_wordpool.txt	LTP140	ltpFR	17	13	-1	PLANT	1083	n/a	n/a	-1	n/a	n/a	n/a	n/a	n/a
2378843	REC_WORD	wordpools/wasnorm_wordpool.txt	LTP140	ltpFR	17	13	n/a	POT	1114	n/a	n/a	n/a	n/a	n/a	n/a	n/a	n/a
2379906	REC_WORD	wordpools/wasnorm_wordpool.txt	LTP140	ltpFR	17	13	-1	SHRUB	1299	n/a	n/a	-1	n/a	n/a	n/a	n/a	n/a
2380993	REC_WORD	wordpools/wasnorm_wordpool.txt	LTP140	ltpFR	17	13	-1	WICK	1607	n/a	n/a	-1	n/a	n/a	n/a	n/a	n/a
2381941	REC_WORD	wordpools/wasnorm_wordpool.txt	LTP140	ltpFR	17	13	-1	BALLOON	75	n/a	n/a	-1	n/a	n/a	n/a	n/a	n/a
2383397	REC_WORD	wordpools/wasnorm_wordpool.txt	LTP140	ltpFR	17	13	-1	VENT	1556	n/a	n/a	-1	n/a	n/a	n/a	n/a	n/a
2385154	REC_WORD	wordpools/wasnorm_wordpool.txt	LTP140	ltpFR	17	13	-1	LUGGAGE	847	n/a	n/a	-1	n/a	n/a	n/a	n/a	n/a
2386154	REC_WORD_VV	wordpools/wasnorm_wordpool.txt	LTP140	ltpFR	17	13	n/a	<>	-1	n/a	n/a	n/a	n/a	n/a	n/a	n/a	n/a
2387987	REC_WORD	wordpools/wasnorm_wordpool.txt	LTP140	ltpFR	17	13	-1	SWING	1421	n/a	n/a	-1	n/a	n/a	n/a	n/a	n/a
2391010	REC_WORD	wordpools/wasnorm_wordpool.txt	LTP140	ltpFR	17	13	-1	MICROWAVE	892	n/a	n/a	-1	n/a	n/a	n/a	n/a	n/a
2392010	REC_WORD_VV	wordpools/wasnorm_wordpool.txt	LTP140	ltpFR	17	13	n/a	<>	-1	n/a	n/a	n/a	n/a	n/a	n/a	n/a	n/a
2397077	REC_WORD	wordpools/wasnorm_wordpool.txt	LTP140	ltpFR	17	13	n/a	DINNER	468	n/a	n/a	n/a	n/a	n/a	n/a	n/a	n/a
2418253	REC_WORD	wordpools/wasnorm_wordpool.txt	LTP140	ltpFR	17	13	-1	SLIDE	1326	n/a	n/a	-1	n/a	n/a	n/a	n/a	n/a
2427033	REC_WORD	wordpools/wasnorm_wordpool.txt	LTP140	ltpFR	17	13	n/a	CANDLE	229	n/a	n/a	n/a	n/a	n/a	n/a	n/a	n/a
2435469	REC_WORD	wordpools/wasnorm_wordpool.txt	LTP140	ltpFR	17	13	n/a	SAND	1230	n/a	n/a	n/a	n/a	n/a	n/a	n/a	n/a
2442208	WORD	wordpools/wasnorm_wordpool.txt	LTP140	ltpFR	17	14	-1	PORTRAIT	1111	n/a	n/a	-1	1.0	1.0	1	upper	Verdana.ttf
2446240	WORD	wordpools/wasnorm_wordpool.txt	LTP140	ltpFR	17	14	-1	LOAF	835	n/a	n/a	-1	1.0	1.0	1	upper	Verdana.ttf
2450330	WORD	wordpools/wasnorm_wordpool.txt	LTP140	ltpFR	17	14	-1	HAMBURGER	679	n/a	n/a	-1	1.0	1.0	1	upper	Verdana.ttf
2454278	WORD	wordpools/wasnorm_wordpool.txt	LTP140	ltpFR	17	14	-1	HEDGE	699	n/a	n/a	-1	1.0	1.0	1	upper	Verdana.ttf
2458185	WORD	wordpools/wasnorm_wordpool.txt	LTP140	ltpFR	17	14	-1	ORNAMENT	985	n/a	n/a	-1	1.0	1.0	1	upper	Verdana.ttf
2462051	WORD	wordpools/wasnorm_wordpool.txt	LTP140	ltpFR	17	14	-1	ALBUM	14	n/a	n/a	-1	1.0	1.0	1	upper	Verdana.ttf
2466191	WORD	wordpools/wasnorm_wordpool.txt	LTP140	ltpFR	17	14	-1	HORSE	719	n/a	n/a	-1	1.0	1.0	1	upper	Verdana.ttf
2470239	WORD	wordpools/wasnorm_wordpool.txt	LTP140	ltpFR	17	14	-1	LIST	830	n/a	n/a	-1	1.0	1.0	1	upper	Verdana.ttf
2474346	WORD	wordpools/wasnorm_wordpool.txt	LTP140	ltpFR	17	14	-1	BOUQUET	157	n/a	n/a	-1	1.0	1.0	1	upper	Verdana.ttf
2478195	WORD	wordpools/wasnorm_wordpool.txt	LTP140	ltpFR	17	14	-1	TURTLE	1522	n/a	n/a	-1	1.0	1.0	1	upper	Verdana.ttf
2482044	WORD	wordpools/wasnorm_wordpool.txt	LTP140	ltpFR	17	14	-1	CHISEL	305	n/a	n/a	-1	1.0	1.0	1	upper	Verdana.ttf
2486034	WORD	wordpools/wasnorm_wordpool.txt	LTP140	ltpFR	17	14	-1	LANDSCAPE	799	n/a	n/a	-1	1.0	1.0	1	upper	Verdana.ttf
2489899	WORD	wordpools/wasnorm_wordpool.txt	LTP140	ltpFR	17	14	-1	SAXOPHONE	1240	n/a	n/a	-1	1.0	1.0	1	upper	Verdana.ttf
2493964	WORD	wordpools/wasnorm_wordpool.txt	LTP140	ltpFR	17	14	-1	GUITAR	670	n/a	n/a	-1	1.0	1.0	1	upper	Verdana.ttf
2497830	WORD	wordpools/wasnorm_wordpool.txt	LTP140	ltpFR	17	14	-1	REEF	1177	n/a	n/a	-1	1.0	1.0	1	upper	Verdana.ttf
2501861	WORD	wordpools/wasnorm_wordpool.txt	LTP140	ltpFR	17	14	-1	VIOLIN	1571	n/a	n/a	-1	1.0	1.0	1	upper	Verdana.ttf
2507602	REC_START	n/a	LTP140	ltpFR	17	14	n/a	n/a	n/a	n/a	n/a	n/a	n/a	n/a	n/a	n/a	n/a
2508120	REC_WORD	wordpools/wasnorm_wordpool.txt	LTP140	ltpFR	17	14	-1	VIOLIN	1571	n/a	n/a	-1	n/a	n/a	n/a	n/a	n/a
2509120	REC_WORD_VV	wordpools/wasnorm_wordpool.txt	LTP140	ltpFR	17	14	n/a	<>	-1	n/a	n/a	n/a	n/a	n/a	n/a	n/a	n/a
2509652	REC_WORD	wordpools/wasnorm_wordpool.txt	LTP140	ltpFR	17	14	-1	REEF	1177	n/a	n/a	-1	n/a	n/a	n/a	n/a	n/a
2510652	REC_WORD_VV	wordpools/wasnorm_wordpool.txt	LTP140	ltpFR	17	14	n/a	<>	-1	n/a	n/a	n/a	n/a	n/a	n/a	n/a	n/a
2511128	REC_WORD	wordpools/wasnorm_wordpool.txt	LTP140	ltpFR	17	14	n/a	CORAL	378	n/a	n/a	n/a	n/a	n/a	n/a	n/a	n/a
2513598	REC_WORD	wordpools/wasnorm_wordpool.txt	LTP140	ltpFR	17	14	-1	SAXOPHONE	1240	n/a	n/a	-1	n/a	n/a	n/a	n/a	n/a
2514598	REC_WORD_VV	wordpools/wasnorm_wordpool.txt	LTP140	ltpFR	17	14	n/a	<>	-1	n/a	n/a	n/a	n/a	n/a	n/a	n/a	n/a
2516636	REC_WORD	wordpools/wasnorm_wordpool.txt	LTP140	ltpFR	17	14	-1	GUITAR	670	n/a	n/a	-1	n/a	n/a	n/a	n/a	n/a
2518621	REC_WORD	wordpools/wasnorm_wordpool.txt	LTP140	ltpFR	17	14	-1	HORSE	719	n/a	n/a	-1	n/a	n/a	n/a	n/a	n/a
2520103	REC_WORD	wordpools/wasnorm_wordpool.txt	LTP140	ltpFR	17	14	-1	LANDSCAPE	799	n/a	n/a	-1	n/a	n/a	n/a	n/a	n/a
2521103	REC_WORD_VV	wordpools/wasnorm_wordpool.txt	LTP140	ltpFR	17	14	n/a	<>	-1	n/a	n/a	n/a	n/a	n/a	n/a	n/a	n/a
2523630	REC_WORD	wordpools/wasnorm_wordpool.txt	LTP140	ltpFR	17	14	-1	PORTRAIT	1111	n/a	n/a	-1	n/a	n/a	n/a	n/a	n/a
2524528	REC_WORD	wordpools/wasnorm_wordpool.txt	LTP140	ltpFR	17	14	-1	LOAF	835	n/a	n/a	-1	n/a	n/a	n/a	n/a	n/a
2525551	REC_WORD	wordpools/wasnorm_wordpool.txt	LTP140	ltpFR	17	14	-1	HAMBURGER	679	n/a	n/a	-1	n/a	n/a	n/a	n/a	n/a
2526551	REC_WORD_VV	wordpools/wasnorm_wordpool.txt	LTP140	ltpFR	17	14	n/a	<>	-1	n/a	n/a	n/a	n/a	n/a	n/a	n/a	n/a
2527881	REC_WORD	wordpools/wasnorm_wordpool.txt	LTP140	ltpFR	17	14	-1	HEDGE	699	n/a	n/a	-1	n/a	n/a	n/a	n/a	n/a
2529163	REC_WORD	wordpools/wasnorm_wordpool.txt	LTP140	ltpFR	17	14	n/a	BUSH	202	n/a	n/a	n/a	n/a	n/a	n/a	n/a	n/a
2530500	REC_WORD	wordpools/wasnorm_wordpool.txt	LTP140	ltpFR	17	14	-1	ORNAMENT	985	n/a	n/a	-1	n/a	n/a	n/a	n/a	n/a
2532884	REC_WORD	wordpools/wasnorm_wordpool.txt	LTP140	ltpFR	17	14	-1	ALBUM	14	n/a	n/a	-1	n/a	n/a	n/a	n/a	n/a
2538661	REC_WORD	wordpools/wasnorm_wordpool.txt	LTP140	ltpFR	17	14	-1	TURTLE	1522	n/a	n/a	-1	n/a	n/a	n/a	n/a	n/a
2539844	REC_WORD_VV	wordpools/wasnorm_wordpool.txt	LTP140	ltpFR	17	14	n/a	<>	-1	n/a	n/a	n/a	n/a	n/a	n/a	n/a	n/a
2540193	REC_WORD	wordpools/wasnorm_wordpool.txt	LTP140	ltpFR	17	14	-1	BOUQUET	157	n/a	n/a	-1	n/a	n/a	n/a	n/a	n/a
2541988	REC_WORD	wordpools/wasnorm_wordpool.txt	LTP140	ltpFR	17	14	n/a	FLOWER	584	n/a	n/a	n/a	n/a	n/a	n/a	n/a	n/a
2549462	REC_WORD	wordpools/wasnorm_wordpool.txt	LTP140	ltpFR	17	14	-1	HORSE	719	n/a	n/a	-1	n/a	n/a	n/a	n/a	n/a
2574111	REC_WORD	wordpools/wasnorm_wordpool.txt	LTP140	ltpFR	17	14	n/a	SETTING	-1	n/a	n/a	n/a	n/a	n/a	n/a	n/a	n/a
2580262	REC_WORD	wordpools/wasnorm_wordpool.txt	LTP140	ltpFR	17	14	n/a	PICTURE	1061	n/a	n/a	n/a	n/a	n/a	n/a	n/a	n/a
2585098	WORD	wordpools/wasnorm_wordpool.txt	LTP140	ltpFR	17	15	1	ELM	527	n/a	n/a	1	0.57763671875	0.412841796875	1	upper	zerothre.ttf
2589164	WORD	wordpools/wasnorm_wordpool.txt	LTP140	ltpFR	17	15	1	ACORN	3	n/a	n/a	1	0.57763671875	0.412841796875	1	upper	zerothre.ttf
2592979	WORD	wordpools/wasnorm_wordpool.txt	LTP140	ltpFR	17	15	0	CHAUFFEUR	283	n/a	n/a	1	0.422607421875	0.5869140625	0	lower	amplitud.ttf
2596961	WORD	wordpools/wasnorm_wordpool.txt	LTP140	ltpFR	17	15	0	BALL	73	n/a	n/a	1	0.422607421875	0.5869140625	0	lower	amplitud.ttf
2600901	WORD	wordpools/wasnorm_wordpool.txt	LTP140	ltpFR	17	15	0	DICE	461	n/a	n/a	0	0.422607421875	0.5869140625	0	lower	amplitud.ttf
2604983	WORD	wordpools/wasnorm_wordpool.txt	LTP140	ltpFR	17	15	0	DANDELION	438	n/a	n/a	0	0.422607421875	0.5869140625	0	lower	amplitud.ttf
2609140	WORD	wordpools/wasnorm_wordpool.txt	LTP140	ltpFR	17	15	0	MECHANIC	884	n/a	n/a	1	0.422607421875	0.5869140625	0	lower	amplitud.ttf
2613255	WORD	wordpools/wasnorm_wordpool.txt	LTP140	ltpFR	17	15	0	PLASTER	1085	n/a	n/a	1	0.422607421875	0.5869140625	0	lower	amplitud.ttf
2617437	WORD	wordpools/wasnorm_wordpool.txt	LTP140	ltpFR	17	15	1	COOLER	375	n/a	n/a	0	0.57763671875	0.412841796875	1	upper	zerothre.ttf
2621269	WORD	wordpools/wasnorm_wordpool.txt	LTP140	ltpFR	17	15	1	CATTLE	261	n/a	n/a	1	0.57763671875	0.412841796875	1	upper	zerothre.ttf
2625317	WORD	wordpools/wasnorm_wordpool.txt	LTP140	ltpFR	17	15	0	BUS	201	n/a	n/a	1	0.422607421875	0.5869140625	0	lower	amplitud.ttf
2629333	WORD	wordpools/wasnorm_wordpool.txt	LTP140	ltpFR	17	15	0	CEILING	265	n/a	n/a	1	0.422607421875	0.5869140625	0	lower	amplitud.ttf
2633448	WORD	wordpools/wasnorm_wordpool.txt	LTP140	ltpFR	17	15	1	BRAN	167	n/a	n/a	0	0.57763671875	0.412841796875	1	upper	zerothre.ttf
2637480	WORD	wordpools/wasnorm_wordpool.txt	LTP140	ltpFR	17	15	1	BADGE	68	n/a	n/a	0	0.57763671875	0.412841796875	1	upper	zerothre.ttf
2641362	WORD	wordpools/wasnorm_wordpool.txt	LTP140	ltpFR	17	15	1	GUARD	667	n/a	n/a	1	0.57763671875	0.412841796875	1	upper	zerothre.ttf
2645394	WORD	wordpools/wasnorm_wordpool.txt	LTP140	ltpFR	17	15	1	DOCK	477	n/a	n/a	0	0.57763671875	0.412841796875	1	upper	zerothre.ttf
2650951	REC_START	n/a	LTP140	ltpFR	17	15	n/a	n/a	n/a	n/a	n/a	n/a	n/a	n/a	n/a	n/a	n/a
2651714	REC_WORD	wordpools/wasnorm_wordpool.txt	LTP140	ltpFR	17	15	1	DOCK	477	n/a	n/a	0	n/a	n/a	n/a	n/a	n/a
2652787	REC_WORD	wordpools/wasnorm_wordpool.txt	LTP140	ltpFR	17	15	1	GUARD	667	n/a	n/a	1	n/a	n/a	n/a	n/a	n/a
2653829	REC_WORD	wordpools/wasnorm_wordpool.txt	LTP140	ltpFR	17	15	1	BADGE	68	n/a	n/a	0	n/a	n/a	n/a	n/a	n/a
2654832	REC_WORD	wordpools/wasnorm_wordpool.txt	LTP140	ltpFR	17	15	1	BRAN	167	n/a	n/a	0	n/a	n/a	n/a	n/a	n/a
2656243	REC_WORD	wordpools/wasnorm_wordpool.txt	LTP140	ltpFR	17	15	0	CEILING	265	n/a	n/a	1	n/a	n/a	n/a	n/a	n/a
2657243	REC_WORD_VV	wordpools/wasnorm_wordpool.txt	LTP140	ltpFR	17	15	n/a	<>	-1	n/a	n/a	n/a	n/a	n/a	n/a	n/a	n/a
2658169	REC_WORD	wordpools/wasnorm_wordpool.txt	LTP140	ltpFR	17	15	0	BUS	201	n/a	n/a	1	n/a	n/a	n/a	n/a	n/a
2659446	REC_WORD	wordpools/wasnorm_wordpool.txt	LTP140	ltpFR	17	15	n/a	SEAT	1264	n/a	n/a	n/a	n/a	n/a	n/a	n/a	n/a
2662076	REC_WORD	wordpools/wasnorm_wordpool.txt	LTP140	ltpFR	17	15	1	DOCK	477	n/a	n/a	0	n/a	n/a	n/a	n/a	n/a
2664954	REC_WORD	wordpools/wasnorm_wordpool.txt	LTP140	ltpFR	17	15	1	ELM	527	n/a	n/a	1	n/a	n/a	n/a	n/a	n/a
2666131	REC_WORD	wordpools/wasnorm_wordpool.txt	LTP140	ltpFR	17	15	1	ACORN	3	n/a	n/a	1	n/a	n/a	n/a	n/a	n/a
2667099	REC_WORD_VV	wordpools/wasnorm_wordpool.txt	LTP140	ltpFR	17	15	n/a	<>	-1	n/a	n/a	n/a	n/a	n/a	n/a	n/a	n/a
2667892	REC_WORD_VV	wordpools/wasnorm_wordpool.txt	LTP140	ltpFR	17	15	n/a	<>	-1	n/a	n/a	n/a	n/a	n/a	n/a	n/a	n/a
2668636	REC_WORD	wordpools/wasnorm_wordpool.txt	LTP140	ltpFR	17	15	0	CHAUFFEUR	283	n/a	n/a	1	n/a	n/a	n/a	n/a	n/a
2670022	REC_WORD_VV	wordpools/wasnorm_wordpool.txt	LTP140	ltpFR	17	15	n/a	<>	-1	n/a	n/a	n/a	n/a	n/a	n/a	n/a	n/a
2670417	REC_WORD	wordpools/wasnorm_wordpool.txt	LTP140	ltpFR	17	15	n/a	LIMO	-1	n/a	n/a	n/a	n/a	n/a	n/a	n/a	n/a
2671589	REC_WORD	wordpools/wasnorm_wordpool.txt	LTP140	ltpFR	17	15	0	BALL	73	n/a	n/a	1	n/a	n/a	n/a	n/a	n/a
2672502	REC_WORD	wordpools/wasnorm_wordpool.txt	LTP140	ltpFR	17	15	0	DANDELION	438	n/a	n/a	0	n/a	n/a	n/a	n/a	n/a
2673502	REC_WORD_VV	wordpools/wasnorm_wordpool.txt	LTP140	ltpFR	17	15	n/a	<>	-1	n/a	n/a	n/a	n/a	n/a	n/a	n/a	n/a
2673739	REC_WORD	wordpools/wasnorm_wordpool.txt	LTP140	ltpFR	17	15	0	DICE	461	n/a	n/a	0	n/a	n/a	n/a	n/a	n/a
2674667	REC_WORD	wordpools/wasnorm_wordpool.txt	LTP140	ltpFR	17	15	0	MECHANIC	884	n/a	n/a	1	n/a	n/a	n/a	n/a	n/a
2675694	REC_WORD	wordpools/wasnorm_wordpool.txt	LTP140	ltpFR	17	15	0	PLASTER	1085	n/a	n/a	1	n/a	n/a	n/a	n/a	n/a
2676792	REC_WORD	wordpools/wasnorm_wordpool.txt	LTP140	ltpFR	17	15	n/a	PAINT	1003	n/a	n/a	n/a	n/a	n/a	n/a	n/a	n/a
2679616	REC_WORD	wordpools/wasnorm_wordpool.txt	LTP140	ltpFR	17	15	0	BUS	201	n/a	n/a	1	n/a	n/a	n/a	n/a	n/a
2685692	REC_WORD	wordpools/wasnorm_wordpool.txt	LTP140	ltpFR	17	15	1	MEADOW	881	n/a	n/a	0	n/a	n/a	n/a	n/a	n/a
2698333	REC_WORD	wordpools/wasnorm_wordpool.txt	LTP140	ltpFR	17	15	n/a	NUT	965	n/a	n/a	n/a	n/a	n/a	n/a	n/a	n/a
2716442	REC_WORD	wordpools/wasnorm_wordpool.txt	LTP140	ltpFR	17	15	1	BADGE	68	n/a	n/a	0	n/a	n/a	n/a	n/a	n/a
2728547	WORD	wordpools/wasnorm_wordpool.txt	LTP140	ltpFR	17	16	-1	BOSS	152	n/a	n/a	-1	1.0	1.0	1	upper	Verdana.ttf
2732513	WORD	wordpools/wasnorm_wordpool.txt	LTP140	ltpFR	17	16	-1	APARTMENT	30	n/a	n/a	-1	1.0	1.0	1	upper	Verdana.ttf
2736453	WORD	wordpools/wasnorm_wordpool.txt	LTP140	ltpFR	17	16	-1	DRIVEWAY	500	n/a	n/a	-1	1.0	1.0	1	upper	Verdana.ttf
2740293	WORD	wordpools/wasnorm_wordpool.txt	LTP140	ltpFR	17	16	-1	ICEBERG	731	n/a	n/a	-1	1.0	1.0	1	upper	Verdana.ttf
2744500	WORD	wordpools/wasnorm_wordpool.txt	LTP140	ltpFR	17	16	-1	FROST	609	n/a	n/a	-1	1.0	1.0	1	upper	Verdana.ttf
2748365	WORD	wordpools/wasnorm_wordpool.txt	LTP140	ltpFR	17	16	-1	ASSISTANT	48	n/a	n/a	-1	1.0	1.0	1	upper	Verdana.ttf
2752206	WORD	wordpools/wasnorm_wordpool.txt	LTP140	ltpFR	17	16	-1	SUPERVISOR	1410	n/a	n/a	-1	1.0	1.0	1	upper	Verdana.ttf
2756071	WORD	wordpools/wasnorm_wordpool.txt	LTP140	ltpFR	17	16	-1	STORE	1387	n/a	n/a	-1	1.0	1.0	1	upper	Verdana.ttf
2760136	WORD	wordpools/wasnorm_wordpool.txt	LTP140	ltpFR	17	16	-1	WAGON	1578	n/a	n/a	-1	1.0	1.0	1	upper	Verdana.ttf
2764043	WORD	wordpools/wasnorm_wordpool.txt	LTP140	ltpFR	17	16	-1	OX	994	n/a	n/a	-1	1.0	1.0	1	upper	Verdana.ttf
2768092	WORD	wordpools/wasnorm_wordpool.txt	LTP140	ltpFR	17	16	-1	YOKE	1632	n/a	n/a	-1	1.0	1.0	1	upper	Verdana.ttf
2771974	WORD	wordpools/wasnorm_wordpool.txt	LTP140	ltpFR	17	16	-1	HOME	712	n/a	n/a	-1	1.0	1.0	1	upper	Verdana.ttf
2775847	WORD	wordpools/wasnorm_wordpool.txt	LTP140	ltpFR	17	16	-1	COUNTRY	388	n/a	n/a	-1	1.0	1.0	1	upper	Verdana.ttf
2779854	WORD	wordpools/wasnorm_wordpool.txt	LTP140	ltpFR	17	16	-1	TAXI	1438	n/a	n/a	-1	1.0	1.0	1	upper	Verdana.ttf
2783819	WORD	wordpools/wasnorm_wordpool.txt	LTP140	ltpFR	17	16	-1	MAN	862	n/a	n/a	-1	1.0	1.0	1	upper	Verdana.ttf
2787719	WORD	wordpools/wasnorm_wordpool.txt	LTP140	ltpFR	17	16	-1	ROOM	1206	n/a	n/a	-1	1.0	1.0	1	upper	Verdana.ttf
2793517	REC_START	n/a	LTP140	ltpFR	17	16	n/a	n/a	n/a	n/a	n/a	n/a	n/a	n/a	n/a	n/a	n/a
2794255	REC_WORD	wordpools/wasnorm_wordpool.txt	LTP140	ltpFR	17	16	-1	ROOM	1206	n/a	n/a	-1	n/a	n/a	n/a	n/a	n/a
2795053	REC_WORD	wordpools/wasnorm_wordpool.txt	LTP140	ltpFR	17	16	-1	MAN	862	n/a	n/a	-1	n/a	n/a	n/a	n/a	n/a
2796036	REC_WORD	wordpools/wasnorm_wordpool.txt	LTP140	ltpFR	17	16	-1	TAXI	1438	n/a	n/a	-1	n/a	n/a	n/a	n/a	n/a
2797036	REC_WORD_VV	wordpools/wasnorm_wordpool.txt	LTP140	ltpFR	17	16	n/a	<>	-1	n/a	n/a	n/a	n/a	n/a	n/a	n/a	n/a
2798101	REC_WORD	wordpools/wasnorm_wordpool.txt	LTP140	ltpFR	17	16	-1	WAGON	1578	n/a	n/a	-1	n/a	n/a	n/a	n/a	n/a
2799089	REC_WORD	wordpools/wasnorm_wordpool.txt	LTP140	ltpFR	17	16	-1	OX	994	n/a	n/a	-1	n/a	n/a	n/a	n/a	n/a
2799942	REC_WORD	wordpools/wasnorm_wordpool.txt	LTP140	ltpFR	17	16	-1	YOKE	1632	n/a	n/a	-1	n/a	n/a	n/a	n/a	n/a
2801139	REC_WORD	wordpools/wasnorm_wordpool.txt	LTP140	ltpFR	17	16	-1	HOME	712	n/a	n/a	-1	n/a	n/a	n/a	n/a	n/a
2805639	REC_WORD	wordpools/wasnorm_wordpool.txt	LTP140	ltpFR	17	16	-1	BOSS	152	n/a	n/a	-1	n/a	n/a	n/a	n/a	n/a
2806182	REC_WORD	wordpools/wasnorm_wordpool.txt	LTP140	ltpFR	17	16	-1	SUPERVISOR	1410	n/a	n/a	-1	n/a	n/a	n/a	n/a	n/a
2807182	REC_WORD_VV	wordpools/wasnorm_wordpool.txt	LTP140	ltpFR	17	16	n/a	<>	-1	n/a	n/a	n/a	n/a	n/a	n/a	n/a	n/a
2807455	REC_WORD	wordpools/wasnorm_wordpool.txt	LTP140	ltpFR	17	16	-1	ASSISTANT	48	n/a	n/a	-1	n/a	n/a	n/a	n/a	n/a
2808617	REC_WORD	wordpools/wasnorm_wordpool.txt	LTP140	ltpFR	17	16	n/a	OFFICER	973	n/a	n/a	n/a	n/a	n/a	n/a	n/a	n/a
2809984	REC_WORD	wordpools/wasnorm_wordpool.txt	LTP140	ltpFR	17	16	-1	DRIVEWAY	500	n/a	n/a	-1	n/a	n/a	n/a	n/a	n/a
2811057	REC_WORD	wordpools/wasnorm_wordpool.txt	LTP140	ltpFR	17	16	-1	ICEBERG	731	n/a	n/a	-1	n/a	n/a	n/a	n/a	n/a
2812259	REC_WORD	wordpools/wasnorm_wordpool.txt	LTP140	ltpFR	17	16	-1	FROST	609	n/a	n/a	-1	n/a	n/a	n/a	n/a	n/a
2814738	REC_WORD	wordpools/wasnorm_wordpool.txt	LTP140	ltpFR	17	16	n/a	SNOW	-1	n/a	n/a	n/a	n/a	n/a	n/a	n/a	n/a
2821339	REC_WORD	wordpools/wasnorm_wordpool.txt	LTP140	ltpFR	17	16	-1	BOSS	152	n/a	n/a	-1	n/a	n/a	n/a	n/a	n/a
2834499	REC_WORD	wordpools/wasnorm_wordpool.txt	LTP140	ltpFR	17	16	-1	YOKE	1632	n/a	n/a	-1	n/a	n/a	n/a	n/a	n/a
2849804	REC_WORD	wordpools/wasnorm_wordpool.txt	LTP140	ltpFR	17	16	-1	STORE	1387	n/a	n/a	-1	n/a	n/a	n/a	n/a	n/a
2885434	REC_START	n/a	LTP140	ltpFR	17	n/a	n/a	n/a	n/a	n/a	n/a	n/a	n/a	n/a	n/a	n/a	n/a
2886047	FFR_REC_WORD	wordpools/wasnorm_wordpool.txt	LTP140	ltpFR	17	n/a	-1	BOSS	152	n/a	n/a	-1	n/a	n/a	n/a	n/a	n/a
2886801	FFR_REC_WORD	wordpools/wasnorm_wordpool.txt	LTP140	ltpFR	17	n/a	-1	DRIVEWAY	500	n/a	n/a	-1	n/a	n/a	n/a	n/a	n/a
2887823	FFR_REC_WORD	wordpools/wasnorm_wordpool.txt	LTP140	ltpFR	17	n/a	-1	ICEBERG	731	n/a	n/a	-1	n/a	n/a	n/a	n/a	n/a
2888826	FFR_REC_WORD	wordpools/wasnorm_wordpool.txt	LTP140	ltpFR	17	n/a	-1	FROST	609	n/a	n/a	-1	n/a	n/a	n/a	n/a	n/a
2889998	FFR_REC_WORD	wordpools/wasnorm_wordpool.txt	LTP140	ltpFR	17	n/a	-1	YOKE	1632	n/a	n/a	-1	n/a	n/a	n/a	n/a	n/a
2891111	FFR_REC_WORD	wordpools/wasnorm_wordpool.txt	LTP140	ltpFR	17	n/a	-1	OX	994	n/a	n/a	-1	n/a	n/a	n/a	n/a	n/a
2893461	FFR_REC_WORD_VV	wordpools/wasnorm_wordpool.txt	LTP140	ltpFR	17	n/a	n/a	<>	-1	n/a	n/a	n/a	n/a	n/a	n/a	n/a	n/a
2893675	FFR_REC_WORD	wordpools/wasnorm_wordpool.txt	LTP140	ltpFR	17	n/a	-1	HOME	712	n/a	n/a	-1	n/a	n/a	n/a	n/a	n/a
2894812	FFR_REC_WORD	wordpools/wasnorm_wordpool.txt	LTP140	ltpFR	17	n/a	-1	ASSISTANT	48	n/a	n/a	-1	n/a	n/a	n/a	n/a	n/a
2895641	FFR_REC_WORD	wordpools/wasnorm_wordpool.txt	LTP140	ltpFR	17	n/a	-1	SUPERVISOR	1410	n/a	n/a	-1	n/a	n/a	n/a	n/a	n/a
2896641	FFR_REC_WORD_VV	wordpools/wasnorm_wordpool.txt	LTP140	ltpFR	17	n/a	n/a	<>	-1	n/a	n/a	n/a	n/a	n/a	n/a	n/a	n/a
2896885	FFR_REC_WORD	wordpools/wasnorm_wordpool.txt	LTP140	ltpFR	17	n/a	-1	MAN	862	n/a	n/a	-1	n/a	n/a	n/a	n/a	n/a
2897576	FFR_REC_WORD	wordpools/wasnorm_wordpool.txt	LTP140	ltpFR	17	n/a	-1	TAXI	1438	n/a	n/a	-1	n/a	n/a	n/a	n/a	n/a
2898414	FFR_REC_WORD	wordpools/wasnorm_wordpool.txt	LTP140	ltpFR	17	n/a	-1	ROOM	1206	n/a	n/a	-1	n/a	n/a	n/a	n/a	n/a
2902216	FFR_REC_WORD	wordpools/wasnorm_wordpool.txt	LTP140	ltpFR	17	n/a	1	BADGE	68	n/a	n/a	0	n/a	n/a	n/a	n/a	n/a
2903054	FFR_REC_WORD	wordpools/wasnorm_wordpool.txt	LTP140	ltpFR	17	n/a	1	GUARD	667	n/a	n/a	1	n/a	n/a	n/a	n/a	n/a
2905044	FFR_REC_WORD	wordpools/wasnorm_wordpool.txt	LTP140	ltpFR	17	n/a	1	DOCK	477	n/a	n/a	0	n/a	n/a	n/a	n/a	n/a
2905997	FFR_REC_WORD	wordpools/wasnorm_wordpool.txt	LTP140	ltpFR	17	n/a	0	BUS	201	n/a	n/a	1	n/a	n/a	n/a	n/a	n/a
2906720	FFR_REC_WORD	wordpools/wasnorm_wordpool.txt	LTP140	ltpFR	17	n/a	0	CEILING	265	n/a	n/a	1	n/a	n/a	n/a	n/a	n/a
2907828	FFR_REC_WORD	wordpools/wasnorm_wordpool.txt	LTP140	ltpFR	17	n/a	1	BRAN	167	n/a	n/a	0	n/a	n/a	n/a	n/a	n/a
2909020	FFR_REC_WORD	wordpools/wasnorm_wordpool.txt	LTP140	ltpFR	17	n/a	1	ACORN	3	n/a	n/a	1	n/a	n/a	n/a	n/a	n/a
2909758	FFR_REC_WORD	wordpools/wasnorm_wordpool.txt	LTP140	ltpFR	17	n/a	0	CHAUFFEUR	283	n/a	n/a	1	n/a	n/a	n/a	n/a	n/a
2911819	FFR_REC_WORD	wordpools/wasnorm_wordpool.txt	LTP140	ltpFR	17	n/a	1	ELM	527	n/a	n/a	1	n/a	n/a	n/a	n/a	n/a
2913201	FFR_REC_WORD	wordpools/wasnorm_wordpool.txt	LTP140	ltpFR	17	n/a	0	PLASTER	1085	n/a	n/a	1	n/a	n/a	n/a	n/a	n/a
2914201	FFR_REC_WORD_VV	wordpools/wasnorm_wordpool.txt	LTP140	ltpFR	17	n/a	n/a	<>	-1	n/a	n/a	n/a	n/a	n/a	n/a	n/a	n/a
2915116	FFR_REC_WORD	wordpools/wasnorm_wordpool.txt	LTP140	ltpFR	17	n/a	0	MECHANIC	884	n/a	n/a	1	n/a	n/a	n/a	n/a	n/a
2916116	FFR_REC_WORD_VV	wordpools/wasnorm_wordpool.txt	LTP140	ltpFR	17	n/a	n/a	<>	-1	n/a	n/a	n/a	n/a	n/a	n/a	n/a	n/a
2918374	FFR_REC_WORD	wordpools/wasnorm_wordpool.txt	LTP140	ltpFR	17	n/a	-1	HORSE	719	n/a	n/a	-1	n/a	n/a	n/a	n/a	n/a
2919905	FFR_REC_WORD	wordpools/wasnorm_wordpool.txt	LTP140	ltpFR	17	n/a	-1	VIOLIN	1571	n/a	n/a	-1	n/a	n/a	n/a	n/a	n/a
2920905	FFR_REC_WORD_VV	wordpools/wasnorm_wordpool.txt	LTP140	ltpFR	17	n/a	n/a	<>	-1	n/a	n/a	n/a	n/a	n/a	n/a	n/a	n/a
2921941	FFR_REC_WORD	wordpools/wasnorm_wordpool.txt	LTP140	ltpFR	17	n/a	-1	REEF	1177	n/a	n/a	-1	n/a	n/a	n/a	n/a	n/a
2923108	FFR_REC_WORD	wordpools/wasnorm_wordpool.txt	LTP140	ltpFR	17	n/a	-1	SAXOPHONE	1240	n/a	n/a	-1	n/a	n/a	n/a	n/a	n/a
2924108	FFR_REC_WORD_VV	wordpools/wasnorm_wordpool.txt	LTP140	ltpFR	17	n/a	n/a	<>	-1	n/a	n/a	n/a	n/a	n/a	n/a	n/a	n/a
2924295	FFR_REC_WORD	wordpools/wasnorm_wordpool.txt	LTP140	ltpFR	17	n/a	-1	GUITAR	670	n/a	n/a	-1	n/a	n/a	n/a	n/a	n/a
2925797	FFR_REC_WORD	wordpools/wasnorm_wordpool.txt	LTP140	ltpFR	17	n/a	-1	LANDSCAPE	799	n/a	n/a	-1	n/a	n/a	n/a	n/a	n/a
2926919	FFR_REC_WORD	wordpools/wasnorm_wordpool.txt	LTP140	ltpFR	17	n/a	-1	PORTRAIT	1111	n/a	n/a	-1	n/a	n/a	n/a	n/a	n/a
2927792	FFR_REC_WORD	wordpools/wasnorm_wordpool.txt	LTP140	ltpFR	17	n/a	-1	LOAF	835	n/a	n/a	-1	n/a	n/a	n/a	n/a	n/a
2928504	FFR_REC_WORD	wordpools/wasnorm_wordpool.txt	LTP140	ltpFR	17	n/a	-1	HAMBURGER	679	n/a	n/a	-1	n/a	n/a	n/a	n/a	n/a
2930137	FFR_REC_WORD	wordpools/wasnorm_wordpool.txt	LTP140	ltpFR	17	n/a	-1	HEDGE	699	n/a	n/a	-1	n/a	n/a	n/a	n/a	n/a
2936467	FFR_REC_WORD	wordpools/wasnorm_wordpool.txt	LTP140	ltpFR	17	n/a	0	FINGER	567	n/a	n/a	0	n/a	n/a	n/a	n/a	n/a
2945532	FFR_REC_WORD	wordpools/wasnorm_wordpool.txt	LTP140	ltpFR	17	n/a	0	DANDELION	438	n/a	n/a	0	n/a	n/a	n/a	n/a	n/a
2946532	FFR_REC_WORD_VV	wordpools/wasnorm_wordpool.txt	LTP140	ltpFR	17	n/a	n/a	<>	-1	n/a	n/a	n/a	n/a	n/a	n/a	n/a	n/a
2951319	FFR_REC_WORD	wordpools/wasnorm_wordpool.txt	LTP140	ltpFR	17	n/a	0	JAW	751	n/a	n/a	0	n/a	n/a	n/a	n/a	n/a
2952556	FFR_REC_WORD	wordpools/wasnorm_wordpool.txt	LTP140	ltpFR	17	n/a	0	LIP	828	n/a	n/a	0	n/a	n/a	n/a	n/a	n/a
2956522	FFR_REC_WORD	wordpools/wasnorm_wordpool.txt	LTP140	ltpFR	17	n/a	0	BUGLE	189	n/a	n/a	1	n/a	n/a	n/a	n/a	n/a
2957700	FFR_REC_WORD	wordpools/wasnorm_wordpool.txt	LTP140	ltpFR	17	n/a	0	TUB	1514	n/a	n/a	1	n/a	n/a	n/a	n/a	n/a
2958822	FFR_REC_WORD	wordpools/wasnorm_wordpool.txt	LTP140	ltpFR	17	n/a	0	BALCONY	72	n/a	n/a	1	n/a	n/a	n/a	n/a	n/a
2962359	FFR_REC_WORD	wordpools/wasnorm_wordpool.txt	LTP140	ltpFR	17	n/a	0	PERCH	1048	n/a	n/a	1	n/a	n/a	n/a	n/a	n/a
2965242	FFR_REC_WORD	wordpools/wasnorm_wordpool.txt	LTP140	ltpFR	17	n/a	0	CASKET	255	n/a	n/a	1	n/a	n/a	n/a	n/a	n/a
2967871	FFR_REC_WORD	wordpools/wasnorm_wordpool.txt	LTP140	ltpFR	17	n/a	1	BASSINET	97	n/a	n/a	0	n/a	n/a	n/a	n/a	n/a
2968949	FFR_REC_WORD	wordpools/wasnorm_wordpool.txt	LTP140	ltpFR	17	n/a	1	RIVER	1194	n/a	n/a	0	n/a	n/a	n/a	n/a	n/a
2970356	FFR_REC_WORD	wordpools/wasnorm_wordpool.txt	LTP140	ltpFR	17	n/a	1	HOSE	720	n/a	n/a	0	n/a	n/a	n/a	n/a	n/a
2971468	FFR_REC_WORD	wordpools/wasnorm_wordpool.txt	LTP140	ltpFR	17	n/a	1	HOE	711	n/a	n/a	0	n/a	n/a	n/a	n/a	n/a
2972146	FFR_REC_WORD	wordpools/wasnorm_wordpool.txt	LTP140	ltpFR	17	n/a	1	MEADOW	881	n/a	n/a	0	n/a	n/a	n/a	n/a	n/a
2990839	FFR_REC_WORD	wordpools/wasnorm_wordpool.txt	LTP140	ltpFR	17	n/a	1	KITCHEN	778	n/a	n/a	0	n/a	n/a	n/a	n/a	n/a
2992451	FFR_REC_WORD	wordpools/wasnorm_wordpool.txt	LTP140	ltpFR	17	n/a	1	ROCKET	1202	n/a	n/a	0	n/a	n/a	n/a	n/a	n/a
2993812	FFR_REC_WORD	wordpools/wasnorm_wordpool.txt	LTP140	ltpFR	17	n/a	-1	MAT	877	n/a	n/a	-1	n/a	n/a	n/a	n/a	n/a
2995628	FFR_REC_WORD	wordpools/wasnorm_wordpool.txt	LTP140	ltpFR	17	n/a	-1	SLIDE	1326	n/a	n/a	-1	n/a	n/a	n/a	n/a	n/a
2997044	FFR_REC_WORD	wordpools/wasnorm_wordpool.txt	LTP140	ltpFR	17	n/a	-1	SWING	1421	n/a	n/a	-1	n/a	n/a	n/a	n/a	n/a
2998044	FFR_REC_WORD_VV	wordpools/wasnorm_wordpool.txt	LTP140	ltpFR	17	n/a	n/a	<>	-1	n/a	n/a	n/a	n/a	n/a	n/a	n/a	n/a
2999859	FFR_REC_WORD	wordpools/wasnorm_wordpool.txt	LTP140	ltpFR	17	n/a	-1	WART	1590	n/a	n/a	-1	n/a	n/a	n/a	n/a	n/a
3000896	FFR_REC_WORD	wordpools/wasnorm_wordpool.txt	LTP140	ltpFR	17	n/a	-1	BENCH	121	n/a	n/a	-1	n/a	n/a	n/a	n/a	n/a
3001896	FFR_REC_WORD_VV	wordpools/wasnorm_wordpool.txt	LTP140	ltpFR	17	n/a	n/a	<>	-1	n/a	n/a	n/a	n/a	n/a	n/a	n/a	n/a
3002967	FFR_REC_WORD	wordpools/wasnorm_wordpool.txt	LTP140	ltpFR	17	n/a	-1	KID	775	n/a	n/a	-1	n/a	n/a	n/a	n/a	n/a
3007147	FFR_REC_WORD	wordpools/wasnorm_wordpool.txt	LTP140	ltpFR	17	n/a	1	BAKER	71	n/a	n/a	1	n/a	n/a	n/a	n/a	n/a
3008868	FFR_REC_WORD	wordpools/wasnorm_wordpool.txt	LTP140	ltpFR	17	n/a	1	GARAGE	621	n/a	n/a	0	n/a	n/a	n/a	n/a	n/a
3009786	FFR_REC_WORD	wordpools/wasnorm_wordpool.txt	LTP140	ltpFR	17	n/a	1	GROUND	666	n/a	n/a	0	n/a	n/a	n/a	n/a	n/a
3011018	FFR_REC_WORD	wordpools/wasnorm_wordpool.txt	LTP140	ltpFR	17	n/a	1	SHELF	1280	n/a	n/a	0	n/a	n/a	n/a	n/a	n/a
3013069	FFR_REC_WORD	wordpools/wasnorm_wordpool.txt	LTP140	ltpFR	17	n/a	1	SHELF	1280	n/a	n/a	0	n/a	n/a	n/a	n/a	n/a
3014830	FFR_REC_WORD	wordpools/wasnorm_wordpool.txt	LTP140	ltpFR	17	n/a	1	PAPER	1011	n/a	n/a	0	n/a	n/a	n/a	n/a	n/a
3015612	FFR_REC_WORD	wordpools/wasnorm_wordpool.txt	LTP140	ltpFR	17	n/a	1	STAPLER	1372	n/a	n/a	0	n/a	n/a	n/a	n/a	n/a
3016612	FFR_REC_WORD_VV	wordpools/wasnorm_wordpool.txt	LTP140	ltpFR	17	n/a	n/a	<>	-1	n/a	n/a	n/a	n/a	n/a	n/a	n/a	n/a
3017613	FFR_REC_WORD	wordpools/wasnorm_wordpool.txt	LTP140	ltpFR	17	n/a	0	BEARD	107	n/a	n/a	0	n/a	n/a	n/a	n/a	n/a
3018411	FFR_REC_WORD	wordpools/wasnorm_wordpool.txt	LTP140	ltpFR	17	n/a	0	FACE	547	n/a	n/a	1	n/a	n/a	n/a	n/a	n/a
3020212	FFR_REC_WORD	wordpools/wasnorm_wordpool.txt	LTP140	ltpFR	17	n/a	0	STALLION	1369	n/a	n/a	1	n/a	n/a	n/a	n/a	n/a
3021212	FFR_REC_WORD_VV	wordpools/wasnorm_wordpool.txt	LTP140	ltpFR	17	n/a	n/a	<>	-1	n/a	n/a	n/a	n/a	n/a	n/a	n/a	n/a
3022742	FFR_REC_WORD	wordpools/wasnorm_wordpool.txt	LTP140	ltpFR	17	n/a	1	ASTRONAUT	51	n/a	n/a	1	n/a	n/a	n/a	n/a	n/a
3023742	FFR_REC_WORD_VV	wordpools/wasnorm_wordpool.txt	LTP140	ltpFR	17	n/a	n/a	<>	-1	n/a	n/a	n/a	n/a	n/a	n/a	n/a	n/a
3027541	FFR_REC_WORD	wordpools/wasnorm_wordpool.txt	LTP140	ltpFR	17	n/a	-1	BAND	78	n/a	n/a	-1	n/a	n/a	n/a	n/a	n/a
3028503	FFR_REC_WORD	wordpools/wasnorm_wordpool.txt	LTP140	ltpFR	17	n/a	-1	PLANT	1083	n/a	n/a	-1	n/a	n/a	n/a	n/a	n/a
3029397	FFR_REC_WORD	wordpools/wasnorm_wordpool.txt	LTP140	ltpFR	17	n/a	-1	SHRUB	1299	n/a	n/a	-1	n/a	n/a	n/a	n/a	n/a
3031771	FFR_REC_WORD	wordpools/wasnorm_wordpool.txt	LTP140	ltpFR	17	n/a	-1	WICK	1607	n/a	n/a	-1	n/a	n/a	n/a	n/a	n/a
3035074	FFR_REC_WORD	wordpools/wasnorm_wordpool.txt	LTP140	ltpFR	17	n/a	-1	BANJO	82	n/a	n/a	-1	n/a	n/a	n/a	n/a	n/a
3077981	FFR_REC_WORD	wordpools/wasnorm_wordpool.txt	LTP140	ltpFR	17	n/a	1	WORM	1623	n/a	n/a	1	n/a	n/a	n/a	n/a	n/a
3088757	FFR_REC_WORD	wordpools/wasnorm_wordpool.txt	LTP140	ltpFR	17	n/a	1	COD	340	n/a	n/a	1	n/a	n/a	n/a	n/a	n/a
3089530	FFR_REC_WORD	wordpools/wasnorm_wordpool.txt	LTP140	ltpFR	17	n/a	0	TROUT	1511	n/a	n/a	0	n/a	n/a	n/a	n/a	n/a
3091939	FFR_REC_WORD	wordpools/wasnorm_wordpool.txt	LTP140	ltpFR	17	n/a	0	SNAIL	1332	n/a	n/a	0	n/a	n/a	n/a	n/a	n/a
3092957	FFR_REC_WORD	wordpools/wasnorm_wordpool.txt	LTP140	ltpFR	17	n/a	0	PAIL	1002	n/a	n/a	1	n/a	n/a	n/a	n/a	n/a
3094963	FFR_REC_WORD	wordpools/wasnorm_wordpool.txt	LTP140	ltpFR	17	n/a	0	DIME	466	n/a	n/a	0	n/a	n/a	n/a	n/a	n/a
3096374	FFR_REC_WORD	wordpools/wasnorm_wordpool.txt	LTP140	ltpFR	17	n/a	0	VEGETABLE	1552	n/a	n/a	0	n/a	n/a	n/a	n/a	n/a
3097374	FFR_REC_WORD_VV	wordpools/wasnorm_wordpool.txt	LTP140	ltpFR	17	n/a	n/a	<>	-1	n/a	n/a	n/a	n/a	n/a	n/a	n/a	n/a
3098205	FFR_REC_WORD	wordpools/wasnorm_wordpool.txt	LTP140	ltpFR	17	n/a	1	CUCUMBER	421	n/a	n/a	1	n/a	n/a	n/a	n/a	n/a
3099248	FFR_REC_WORD	wordpools/wasnorm_wordpool.txt	LTP140	ltpFR	17	n/a	0	PICKLE	1059	n/a	n/a	0	n/a	n/a	n/a	n/a	n/a
3103663	FFR_REC_WORD	wordpools/wasnorm_wordpool.txt	LTP140	ltpFR	17	n/a	0	CHILD	299	n/a	n/a	1	n/a	n/a	n/a	n/a	n/a
3107748	FFR_REC_WORD	wordpools/wasnorm_wordpool.txt	LTP140	ltpFR	17	n/a	1	ASSOCIATE	49	n/a	n/a	1	n/a	n/a	n/a	n/a	n/a
3108748	FFR_REC_WORD_VV	wordpools/wasnorm_wordpool.txt	LTP140	ltpFR	17	n/a	n/a	<>	-1	n/a	n/a	n/a	n/a	n/a	n/a	n/a	n/a
3109799	FFR_REC_WORD	wordpools/wasnorm_wordpool.txt	LTP140	ltpFR	17	n/a	1	BRIEFCASE	175	n/a	n/a	0	n/a	n/a	n/a	n/a	n/a
3110762	FFR_REC_WORD	wordpools/wasnorm_wordpool.txt	LTP140	ltpFR	17	n/a	1	OFFICE	972	n/a	n/a	0	n/a	n/a	n/a	n/a	n/a
3112612	FFR_REC_WORD	wordpools/wasnorm_wordpool.txt	LTP140	ltpFR	17	n/a	1	BANDAGE	79	n/a	n/a	0	n/a	n/a	n/a	n/a	n/a
3113612	FFR_REC_WORD_VV	wordpools/wasnorm_wordpool.txt	LTP140	ltpFR	17	n/a	n/a	<>	-1	n/a	n/a	n/a	n/a	n/a	n/a	n/a	n/a
3117252	FFR_REC_WORD	wordpools/wasnorm_wordpool.txt	LTP140	ltpFR	17	n/a	1	KETTLE	772	n/a	n/a	0	n/a	n/a	n/a	n/a	n/a
3119961	FFR_REC_WORD	wordpools/wasnorm_wordpool.txt	LTP140	ltpFR	17	n/a	0	LAWYER	806	n/a	n/a	1	n/a	n/a	n/a	n/a	n/a
3122280	FFR_REC_WORD	wordpools/wasnorm_wordpool.txt	LTP140	ltpFR	17	n/a	0	POOL	1103	n/a	n/a	1	n/a	n/a	n/a	n/a	n/a
3134074	FFR_REC_WORD	wordpools/wasnorm_wordpool.txt	LTP140	ltpFR	17	n/a	1	WIFE	1609	n/a	n/a	1	n/a	n/a	n/a	n/a	n/a
3137930	FFR_REC_WORD	wordpools/wasnorm_wordpool.txt	LTP140	ltpFR	17	n/a	1	MOTEL	919	n/a	n/a	0	n/a	n/a	n/a	n/a	n/a
3147578	FFR_REC_WORD	wordpools/wasnorm_wordpool.txt	LTP140	ltpFR	17	n/a	0	FLANNEL	574	n/a	n/a	0	n/a	n/a	n/a	n/a	n/a
3148578	FFR_REC_WORD_VV	wordpools/wasnorm_wordpool.txt	LTP140	ltpFR	17	n/a	n/a	<>	-1	n/a	n/a	n/a	n/a	n/a	n/a	n/a	n/a
3148890	FFR_REC_WORD	wordpools/wasnorm_wordpool.txt	LTP140	ltpFR	17	n/a	0	BREAST	171	n/a	n/a	1	n/a	n/a	n/a	n/a	n/a
3149673	FFR_REC_WORD	wordpools/wasnorm_wordpool.txt	LTP140	ltpFR	17	n/a	0	LETTUCE	814	n/a	n/a	0	n/a	n/a	n/a	n/a	n/a
3150673	FFR_REC_WORD_VV	wordpools/wasnorm_wordpool.txt	LTP140	ltpFR	17	n/a	n/a	<>	-1	n/a	n/a	n/a	n/a	n/a	n/a	n/a	n/a
3155645	FFR_REC_WORD	wordpools/wasnorm_wordpool.txt	LTP140	ltpFR	17	n/a	0	DRESS	495	n/a	n/a	1	n/a	n/a	n/a	n/a	n/a
3156837	FFR_REC_WORD	wordpools/wasnorm_wordpool.txt	LTP140	ltpFR	17	n/a	0	TROUSERS	1510	n/a	n/a	1	n/a	n/a	n/a	n/a	n/a
3157837	FFR_REC_WORD_VV	wordpools/wasnorm_wordpool.txt	LTP140	ltpFR	17	n/a	n/a	<>	-1	n/a	n/a	n/a	n/a	n/a	n/a	n/a	n/a
3167009	FFR_REC_WORD	wordpools/wasnorm_wordpool.txt	LTP140	ltpFR	17	n/a	1	RELATIVE	1182	n/a	n/a	1	n/a	n/a	n/a	n/a	n/a
3168009	FFR_REC_WORD_VV	wordpools/wasnorm_wordpool.txt	LTP140	ltpFR	17	n/a	n/a	<>	-1	n/a	n/a	n/a	n/a	n/a	n/a	n/a	n/a
3174033	FFR_REC_WORD	wordpools/wasnorm_wordpool.txt	LTP140	ltpFR	17	n/a	0	PARTNER	1017	n/a	n/a	1	n/a	n/a	n/a	n/a	n/a
3179880	FFR_REC_WORD	wordpools/wasnorm_wordpool.txt	LTP140	ltpFR	17	n/a	0	PRAIRIE	1118	n/a	n/a	1	n/a	n/a	n/a	n/a	n/a
3202571	REC_START	n/a	LTP140	ltpFR	17	1	n/a	n/a	n/a	n/a	n/a	n/a	n/a	n/a	n/a	n/a	n/a
3202604	RECOG_LURE	n/a	LTP140	ltpFR	17	1	n/a	DIAPER	459	0	5	n/a	n/a	n/a	n/a	n/a	n/a
3204232	RECOG_RESP	n/a	LTP140	ltpFR	17	1	n/a	DIAPER	459	0	n/a	n/a	n/a	n/a	n/a	n/a	n/a
3205230	RECOG_CONF	n/a	LTP140	ltpFR	17	1	n/a	DIAPER	459	n/a	5	n/a	n/a	n/a	n/a	n/a	n/a
3206836	RECOG_TARGET	n/a	LTP140	ltpFR	17	1	-1	BENCH	121	1	4	-1	n/a	n/a	n/a	n/a	n/a
3207754	RECOG_RESP	n/a	LTP140	ltpFR	17	1	-1	BENCH	121	1	n/a	-1	n/a	n/a	n/a	n/a	n/a
3208442	RECOG_CONF	n/a	LTP140	ltpFR	17	1	-1	BENCH	121	n/a	4	-1	n/a	n/a	n/a	n/a	n/a
3209818	RECOG_TARGET	n/a	LTP140	ltpFR	17	1	-1	HAMBURGER	679	1	5	-1	n/a	n/a	n/a	n/a	n/a
3210458	RECOG_RESP	n/a	LTP140	ltpFR	17	1	-1	HAMBURGER	679	1	n/a	-1	n/a	n/a	n/a	n/a	n/a
3211067	RECOG_CONF	n/a	LTP140	ltpFR	17	1	-1	HAMBURGER	679	n/a	5	-1	n/a	n/a	n/a	n/a	n/a
3212350	RECOG_TARGET	n/a	LTP140	ltpFR	17	1	1	KETTLE	772	1	4	0	n/a	n/a	n/a	n/a	n/a
3212952	RECOG_RESP	n/a	LTP140	ltpFR	17	1	1	KETTLE	772	1	n/a	0	n/a	n/a	n/a	n/a	n/a
3213521	RECOG_CONF	n/a	LTP140	ltpFR	17	1	1	KETTLE	772	n/a	4	0	n/a	n/a	n/a	n/a	n/a
3214849	RECOG_TARGET	n/a	LTP140	ltpFR	17	1	-1	SLIDE	1326	1	5	-1	n/a	n/a	n/a	n/a	n/a
3215506	RECOG_RESP	n/a	LTP140	ltpFR	17	1	-1	SLIDE	1326	1	n/a	-1	n/a	n/a	n/a	n/a	n/a
3216045	RECOG_CONF	n/a	LTP140	ltpFR	17	1	-1	SLIDE	1326	n/a	5	-1	n/a	n/a	n/a	n/a	n/a
3217340	RECOG_LURE	n/a	LTP140	ltpFR	17	1	n/a	GALLON	618	0	2	n/a	n/a	n/a	n/a	n/a	n/a
3218091	RECOG_RESP	n/a	LTP140	ltpFR	17	1	n/a	GALLON	618	0	n/a	n/a	n/a	n/a	n/a	n/a	n/a
3218809	RECOG_CONF	n/a	LTP140	ltpFR	17	1	n/a	GALLON	618	n/a	2	n/a	n/a	n/a	n/a	n/a	n/a
3220123	RECOG_TARGET	n/a	LTP140	ltpFR	17	1	0	STETHOSCOPE	1379	1	5	0	n/a	n/a	n/a	n/a	n/a
3220844	RECOG_RESP	n/a	LTP140	ltpFR	17	1	0	STETHOSCOPE	1379	1	n/a	0	n/a	n/a	n/a	n/a	n/a
3221353	RECOG_CONF	n/a	LTP140	ltpFR	17	1	0	STETHOSCOPE	1379	n/a	5	0	n/a	n/a	n/a	n/a	n/a
3222597	RECOG_TARGET	n/a	LTP140	ltpFR	17	1	1	BRIEFCASE	175	1	4	0	n/a	n/a	n/a	n/a	n/a
3223259	RECOG_RESP	n/a	LTP140	ltpFR	17	1	1	BRIEFCASE	175	1	n/a	0	n/a	n/a	n/a	n/a	n/a
3223758	RECOG_CONF	n/a	LTP140	ltpFR	17	1	1	BRIEFCASE	175	n/a	4	0	n/a	n/a	n/a	n/a	n/a
3224996	RECOG_TARGET	n/a	LTP140	ltpFR	17	1	-1	ASSISTANT	48	1	4	-1	n/a	n/a	n/a	n/a	n/a
3225683	RECOG_RESP	n/a	LTP140	ltpFR	17	1	-1	ASSISTANT	48	1	n/a	-1	n/a	n/a	n/a	n/a	n/a
3226212	RECOG_CONF	n/a	LTP140	ltpFR	17	1	-1	ASSISTANT	48	n/a	4	-1	n/a	n/a	n/a	n/a	n/a
3227495	RECOG_TARGET	n/a	LTP140	ltpFR	17	1	1	KITCHEN	778	1	4	0	n/a	n/a	n/a	n/a	n/a
3228118	RECOG_RESP	n/a	LTP140	ltpFR	17	1	1	KITCHEN	778	1	n/a	0	n/a	n/a	n/a	n/a	n/a
3228637	RECOG_CONF	n/a	LTP140	ltpFR	17	1	1	KITCHEN	778	n/a	4	0	n/a	n/a	n/a	n/a	n/a
3229836	RECOG_TARGET	n/a	LTP140	ltpFR	17	1	0	FUNGUS	614	1	5	0	n/a	n/a	n/a	n/a	n/a
3230512	RECOG_RESP	n/a	LTP140	ltpFR	17	1	0	FUNGUS	614	1	n/a	0	n/a	n/a	n/a	n/a	n/a
3231031	RECOG_CONF	n/a	LTP140	ltpFR	17	1	0	FUNGUS	614	n/a	5	0	n/a	n/a	n/a	n/a	n/a
3232277	RECOG_LURE	n/a	LTP140	ltpFR	17	1	n/a	DEER	444	0	4	n/a	n/a	n/a	n/a	n/a	n/a
3232957	RECOG_RESP	n/a	LTP140	ltpFR	17	1	n/a	DEER	444	0	n/a	n/a	n/a	n/a	n/a	n/a	n/a
3233771	RECOG_CONF	n/a	LTP140	ltpFR	17	1	n/a	DEER	444	n/a	4	n/a	n/a	n/a	n/a	n/a	n/a
3234751	RECOG_LURE	n/a	LTP140	ltpFR	17	1	n/a	ANIMAL	23	0	4	n/a	n/a	n/a	n/a	n/a	n/a
3235501	RECOG_RESP	n/a	LTP140	ltpFR	17	1	n/a	ANIMAL	23	0	n/a	n/a	n/a	n/a	n/a	n/a	n/a
3236050	RECOG_CONF	n/a	LTP140	ltpFR	17	1	n/a	ANIMAL	23	n/a	4	n/a	n/a	n/a	n/a	n/a	n/a
3237208	RECOG_LURE	n/a	LTP140	ltpFR	17	1	n/a	CHARCOAL	281	0	3	n/a	n/a	n/a	n/a	n/a	n/a
3237906	RECOG_RESP	n/a	LTP140	ltpFR	17	1	n/a	CHARCOAL	281	0	n/a	n/a	n/a	n/a	n/a	n/a	n/a
3238444	RECOG_CONF	n/a	LTP140	ltpFR	17	1	n/a	CHARCOAL	281	n/a	3	n/a	n/a	n/a	n/a	n/a	n/a
3239649	RECOG_LURE	n/a	LTP140	ltpFR	17	1	n/a	RECORD	1176	1	2	n/a	n/a	n/a	n/a	n/a	n/a
3241238	RECOG_RESP_VV	n/a	LTP140	ltpFR	17	1	n/a	RECORD	1176	0	n/a	n/a	n/a	n/a	n/a	n/a	n/a
3241677	RECOG_RESP	n/a	LTP140	ltpFR	17	1	n/a	RECORD	1176	1	n/a	n/a	n/a	n/a	n/a	n/a	n/a
3242256	RECOG_CONF	n/a	LTP140	ltpFR	17	1	n/a	RECORD	1176	n/a	2	n/a	n/a	n/a	n/a	n/a	n/a
3243639	RECOG_TARGET	n/a	LTP140	ltpFR	17	1	-1	HORSE	719	1	4	-1	n/a	n/a	n/a	n/a	n/a
3244251	RECOG_RESP	n/a	LTP140	ltpFR	17	1	-1	HORSE	719	1	n/a	-1	n/a	n/a	n/a	n/a	n/a
3244780	RECOG_CONF	n/a	LTP140	ltpFR	17	1	-1	HORSE	719	n/a	4	-1	n/a	n/a	n/a	n/a	n/a
3246063	RECOG_TARGET	n/a	LTP140	ltpFR	17	1	-1	WART	1590	1	5	-1	n/a	n/a	n/a	n/a	n/a
3246696	RECOG_RESP	n/a	LTP140	ltpFR	17	1	-1	WART	1590	1	n/a	-1	n/a	n/a	n/a	n/a	n/a
3247174	RECOG_CONF	n/a	LTP140	ltpFR	17	1	-1	WART	1590	n/a	5	-1	n/a	n/a	n/a	n/a	n/a
3248412	RECOG_LURE	n/a	LTP140	ltpFR	17	1	n/a	SHOELACE	1289	0	4	n/a	n/a	n/a	n/a	n/a	n/a
3249170	RECOG_RESP	n/a	LTP140	ltpFR	17	1	n/a	SHOELACE	1289	0	n/a	n/a	n/a	n/a	n/a	n/a	n/a
3249699	RECOG_CONF	n/a	LTP140	ltpFR	17	1	n/a	SHOELACE	1289	n/a	4	n/a	n/a	n/a	n/a	n/a	n/a
3250887	RECOG_TARGET	n/a	LTP140	ltpFR	17	1	1	GARAGE	621	1	4	0	n/a	n/a	n/a	n/a	n/a
3251664	RECOG_RESP	n/a	LTP140	ltpFR	17	1	1	GARAGE	621	1	n/a	0	n/a	n/a	n/a	n/a	n/a
3252163	RECOG_CONF	n/a	LTP140	ltpFR	17	1	1	GARAGE	621	n/a	4	0	n/a	n/a	n/a	n/a	n/a
3253452	RECOG_LURE	n/a	LTP140	ltpFR	17	1	n/a	SCREW	1254	0	4	n/a	n/a	n/a	n/a	n/a	n/a
3254159	RECOG_RESP	n/a	LTP140	ltpFR	17	1	n/a	SCREW	1254	0	n/a	n/a	n/a	n/a	n/a	n/a	n/a
3254687	RECOG_CONF	n/a	LTP140	ltpFR	17	1	n/a	SCREW	1254	n/a	4	n/a	n/a	n/a	n/a	n/a	n/a
3258132	REC_START	n/a	LTP140	ltpFR	17	2	n/a	n/a	n/a	n/a	n/a	n/a	n/a	n/a	n/a	n/a	n/a
3258167	RECOG_TARGET	n/a	LTP140	ltpFR	17	2	1	PUBLICATION	1136	1	4	0	n/a	n/a	n/a	n/a	n/a
3259115	RECOG_RESP	n/a	LTP140	ltpFR	17	2	1	PUBLICATION	1136	1	n/a	0	n/a	n/a	n/a	n/a	n/a
3259603	RECOG_CONF	n/a	LTP140	ltpFR	17	2	1	PUBLICATION	1136	n/a	4	0	n/a	n/a	n/a	n/a	n/a
3260841	RECOG_TARGET	n/a	LTP140	ltpFR	17	2	1	RELATIVE	1182	1	5	1	n/a	n/a	n/a	n/a	n/a
3261469	RECOG_RESP	n/a	LTP140	ltpFR	17	2	1	RELATIVE	1182	1	n/a	1	n/a	n/a	n/a	n/a	n/a
3261958	RECOG_CONF	n/a	LTP140	ltpFR	17	2	1	RELATIVE	1182	n/a	5	1	n/a	n/a	n/a	n/a	n/a
3263224	RECOG_LURE	n/a	LTP140	ltpFR	17	2	n/a	CORN	381	0	4	n/a	n/a	n/a	n/a	n/a	n/a
3263894	RECOG_RESP	n/a	LTP140	ltpFR	17	2	n/a	CORN	381	0	n/a	n/a	n/a	n/a	n/a	n/a	n/a
3264479	RECOG_CONF	n/a	LTP140	ltpFR	17	2	n/a	CORN	381	n/a	4	n/a	n/a	n/a	n/a	n/a	n/a
3265573	RECOG_TARGET	n/a	LTP140	ltpFR	17	2	-1	SAILOR	1223	0	3	-1	n/a	n/a	n/a	n/a	n/a
3266248	RECOG_RESP	n/a	LTP140	ltpFR	17	2	-1	SAILOR	1223	0	n/a	-1	n/a	n/a	n/a	n/a	n/a
3266737	RECOG_CONF	n/a	LTP140	ltpFR	17	2	-1	SAILOR	1223	n/a	3	-1	n/a	n/a	n/a	n/a	n/a
3267980	RECOG_TARGET	n/a	LTP140	ltpFR	17	2	-1	FLASHLIGHT	575	0	1	-1	n/a	n/a	n/a	n/a	n/a
3268753	RECOG_RESP	n/a	LTP140	ltpFR	17	2	-1	FLASHLIGHT	575	0	n/a	-1	n/a	n/a	n/a	n/a	n/a
3270130	RECOG_CONF	n/a	LTP140	ltpFR	17	2	-1	FLASHLIGHT	575	n/a	1	-1	n/a	n/a	n/a	n/a	n/a
3271413	RECOG_LURE	n/a	LTP140	ltpFR	17	2	n/a	SERPENT	1270	0	4	n/a	n/a	n/a	n/a	n/a	n/a
3272225	RECOG_RESP	n/a	LTP140	ltpFR	17	2	n/a	SERPENT	1270	0	n/a	n/a	n/a	n/a	n/a	n/a	n/a
3273033	RECOG_CONF	n/a	LTP140	ltpFR	17	2	n/a	SERPENT	1270	n/a	4	n/a	n/a	n/a	n/a	n/a	n/a
3273887	RECOG_TARGET	n/a	LTP140	ltpFR	17	2	-1	OUTFIT	988	1	4	-1	n/a	n/a	n/a	n/a	n/a
3274639	RECOG_RESP	n/a	LTP140	ltpFR	17	2	-1	OUTFIT	988	1	n/a	-1	n/a	n/a	n/a	n/a	n/a
3275118	RECOG_CONF	n/a	LTP140	ltpFR	17	2	-1	OUTFIT	988	n/a	4	-1	n/a	n/a	n/a	n/a	n/a
3276328	RECOG_LURE	n/a	LTP140	ltpFR	17	2	n/a	BRAKE	166	0	3	n/a	n/a	n/a	n/a	n/a	n/a
3277054	RECOG_RESP	n/a	LTP140	ltpFR	17	2	n/a	BRAKE	166	0	n/a	n/a	n/a	n/a	n/a	n/a	n/a
3277533	RECOG_CONF	n/a	LTP140	ltpFR	17	2	n/a	BRAKE	166	n/a	3	n/a	n/a	n/a	n/a	n/a	n/a
3278785	RECOG_TARGET	n/a	LTP140	ltpFR	17	2	1	MEAL	882	1	2	0	n/a	n/a	n/a	n/a	n/a
3279808	RECOG_RESP	n/a	LTP140	ltpFR	17	2	1	MEAL	882	1	n/a	0	n/a	n/a	n/a	n/a	n/a
3280316	RECOG_CONF	n/a	LTP140	ltpFR	17	2	1	MEAL	882	n/a	2	0	n/a	n/a	n/a	n/a	n/a
3281592	RECOG_LURE	n/a	LTP140	ltpFR	17	2	n/a	WATER	1594	0	2	n/a	n/a	n/a	n/a	n/a	n/a
3282312	RECOG_RESP	n/a	LTP140	ltpFR	17	2	n/a	WATER	1594	0	n/a	n/a	n/a	n/a	n/a	n/a	n/a
3282731	RECOG_CONF	n/a	LTP140	ltpFR	17	2	n/a	WATER	1594	n/a	2	n/a	n/a	n/a	n/a	n/a	n/a
3283916	RECOG_TARGET	n/a	LTP140	ltpFR	17	2	1	DENTIST	447	1	5	1	n/a	n/a	n/a	n/a	n/a
3284567	RECOG_RESP	n/a	LTP140	ltpFR	17	2	1	DENTIST	447	1	n/a	1	n/a	n/a	n/a	n/a	n/a
3285056	RECOG_CONF	n/a	LTP140	ltpFR	17	2	1	DENTIST	447	n/a	5	1	n/a	n/a	n/a	n/a	n/a
3286249	RECOG_LURE	n/a	LTP140	ltpFR	17	2	n/a	LIME	823	0	2	n/a	n/a	n/a	n/a	n/a	n/a
3286991	RECOG_RESP	n/a	LTP140	ltpFR	17	2	n/a	LIME	823	0	n/a	n/a	n/a	n/a	n/a	n/a	n/a
3287430	RECOG_CONF	n/a	LTP140	ltpFR	17	2	n/a	LIME	823	n/a	2	n/a	n/a	n/a	n/a	n/a	n/a
3288640	RECOG_TARGET	n/a	LTP140	ltpFR	17	2	0	POET	1095	1	n/a	1	n/a	n/a	n/a	n/a	n/a
3289296	RECOG_RESP	n/a	LTP140	ltpFR	17	2	0	POET	1095	1	n/a	1	n/a	n/a	n/a	n/a	n/a
3290981	RECOG_LURE	n/a	LTP140	ltpFR	17	2	n/a	SAGE	1222	0	2	n/a	n/a	n/a	n/a	n/a	n/a
3291691	RECOG_RESP	n/a	LTP140	ltpFR	17	2	n/a	SAGE	1222	0	n/a	n/a	n/a	n/a	n/a	n/a	n/a
3292150	RECOG_CONF	n/a	LTP140	ltpFR	17	2	n/a	SAGE	1222	n/a	2	n/a	n/a	n/a	n/a	n/a	n/a
3293388	RECOG_TARGET	n/a	LTP140	ltpFR	17	2	1	DUCK	504	1	4	1	n/a	n/a	n/a	n/a	n/a
3293985	RECOG_RESP	n/a	LTP140	ltpFR	17	2	1	DUCK	504	1	n/a	1	n/a	n/a	n/a	n/a	n/a
3294474	RECOG_CONF	n/a	LTP140	ltpFR	17	2	1	DUCK	504	n/a	4	1	n/a	n/a	n/a	n/a	n/a
3295646	RECOG_LURE	n/a	LTP140	ltpFR	17	2	n/a	WINGS	1614	0	2	n/a	n/a	n/a	n/a	n/a	n/a
3296350	RECOG_RESP	n/a	LTP140	ltpFR	17	2	n/a	WINGS	1614	0	n/a	n/a	n/a	n/a	n/a	n/a	n/a
3296829	RECOG_CONF	n/a	LTP140	ltpFR	17	2	n/a	WINGS	1614	n/a	2	n/a	n/a	n/a	n/a	n/a	n/a
3298086	RECOG_LURE	n/a	LTP140	ltpFR	17	2	n/a	ACTRESS	6	0	2	n/a	n/a	n/a	n/a	n/a	n/a
3298794	RECOG_RESP	n/a	LTP140	ltpFR	17	2	n/a	ACTRESS	6	0	n/a	n/a	n/a	n/a	n/a	n/a	n/a
3299323	RECOG_CONF	n/a	LTP140	ltpFR	17	2	n/a	ACTRESS	6	n/a	2	n/a	n/a	n/a	n/a	n/a	n/a
3300594	RECOG_LURE	n/a	LTP140	ltpFR	17	2	n/a	MOVIE	927	0	2	n/a	n/a	n/a	n/a	n/a	n/a
3301339	RECOG_RESP	n/a	LTP140	ltpFR	17	2	n/a	MOVIE	927	0	n/a	n/a	n/a	n/a	n/a	n/a	n/a
3301788	RECOG_CONF	n/a	LTP140	ltpFR	17	2	n/a	MOVIE	927	n/a	2	n/a	n/a	n/a	n/a	n/a	n/a
3303018	RECOG_LURE	n/a	LTP140	ltpFR	17	2	n/a	DRUM	502	0	2	n/a	n/a	n/a	n/a	n/a	n/a
3303823	RECOG_RESP	n/a	LTP140	ltpFR	17	2	n/a	DRUM	502	0	n/a	n/a	n/a	n/a	n/a	n/a	n/a
3304282	RECOG_CONF	n/a	LTP140	ltpFR	17	2	n/a	DRUM	502	n/a	2	n/a	n/a	n/a	n/a	n/a	n/a
3305500	RECOG_LURE	n/a	LTP140	ltpFR	17	2	n/a	MAJOR	859	0	2	n/a	n/a	n/a	n/a	n/a	n/a
3306257	RECOG_RESP	n/a	LTP140	ltpFR	17	2	n/a	MAJOR	859	0	n/a	n/a	n/a	n/a	n/a	n/a	n/a
3306706	RECOG_CONF	n/a	LTP140	ltpFR	17	2	n/a	MAJOR	859	n/a	2	n/a	n/a	n/a	n/a	n/a	n/a
3315029	REC_START	n/a	LTP140	ltpFR	17	3	n/a	n/a	n/a	n/a	n/a	n/a	n/a	n/a	n/a	n/a	n/a
3315064	RECOG_TARGET	n/a	LTP140	ltpFR	17	3	-1	FOUNTAIN	597	0	2	-1	n/a	n/a	n/a	n/a	n/a
3315852	RECOG_RESP	n/a	LTP140	ltpFR	17	3	-1	FOUNTAIN	597	0	n/a	-1	n/a	n/a	n/a	n/a	n/a
3316311	RECOG_CONF	n/a	LTP140	ltpFR	17	3	-1	FOUNTAIN	597	n/a	2	-1	n/a	n/a	n/a	n/a	n/a
3317604	RECOG_LURE	n/a	LTP140	ltpFR	17	3	n/a	BAY	102	1	3	n/a	n/a	n/a	n/a	n/a	n/a
3318985	RECOG_RESP	n/a	LTP140	ltpFR	17	3	n/a	BAY	102	1	n/a	n/a	n/a	n/a	n/a	n/a	n/a
3319474	RECOG_CONF	n/a	LTP140	ltpFR	17	3	n/a	BAY	102	n/a	3	n/a	n/a	n/a	n/a	n/a	n/a
3320803	RECOG_LURE	n/a	LTP140	ltpFR	17	3	n/a	OVEN	991	1	3	n/a	n/a	n/a	n/a	n/a	n/a
3321559	RECOG_RESP	n/a	LTP140	ltpFR	17	3	n/a	OVEN	991	1	n/a	n/a	n/a	n/a	n/a	n/a	n/a
3321998	RECOG_CONF	n/a	LTP140	ltpFR	17	3	n/a	OVEN	991	n/a	3	n/a	n/a	n/a	n/a	n/a	n/a
3323202	RECOG_TARGET	n/a	LTP140	ltpFR	17	3	-1	CHISEL	305	1	4	-1	n/a	n/a	n/a	n/a	n/a
3324103	RECOG_RESP	n/a	LTP140	ltpFR	17	3	-1	CHISEL	305	1	n/a	-1	n/a	n/a	n/a	n/a	n/a
3324582	RECOG_CONF	n/a	LTP140	ltpFR	17	3	-1	CHISEL	305	n/a	4	-1	n/a	n/a	n/a	n/a	n/a
3325743	RECOG_TARGET	n/a	LTP140	ltpFR	17	3	1	NOTE	958	1	4	0	n/a	n/a	n/a	n/a	n/a
3326508	RECOG_RESP	n/a	LTP140	ltpFR	17	3	1	NOTE	958	1	n/a	0	n/a	n/a	n/a	n/a	n/a
3326957	RECOG_CONF	n/a	LTP140	ltpFR	17	3	1	NOTE	958	n/a	4	0	n/a	n/a	n/a	n/a	n/a
3328209	RECOG_TARGET	n/a	LTP140	ltpFR	17	3	1	WORM	1623	1	5	1	n/a	n/a	n/a	n/a	n/a
3328803	RECOG_RESP	n/a	LTP140	ltpFR	17	3	1	WORM	1623	1	n/a	1	n/a	n/a	n/a	n/a	n/a
3329251	RECOG_CONF	n/a	LTP140	ltpFR	17	3	1	WORM	1623	n/a	5	1	n/a	n/a	n/a	n/a	n/a
3330516	RECOG_TARGET	n/a	LTP140	ltpFR	17	3	0	SUN	1406	1	2	1	n/a	n/a	n/a	n/a	n/a
3331197	RECOG_RESP	n/a	LTP140	ltpFR	17	3	0	SUN	1406	1	n/a	1	n/a	n/a	n/a	n/a	n/a
3331636	RECOG_CONF	n/a	LTP140	ltpFR	17	3	0	SUN	1406	n/a	2	1	n/a	n/a	n/a	n/a	n/a
3332941	RECOG_TARGET	n/a	LTP140	ltpFR	17	3	0	FLASK	576	1	2	0	n/a	n/a	n/a	n/a	n/a
3333552	RECOG_RESP	n/a	LTP140	ltpFR	17	3	0	FLASK	576	1	n/a	0	n/a	n/a	n/a	n/a	n/a
3333971	RECOG_CONF	n/a	LTP140	ltpFR	17	3	0	FLASK	576	n/a	2	0	n/a	n/a	n/a	n/a	n/a
3335182	RECOG_TARGET	n/a	LTP140	ltpFR	17	3	1	ROBIN	1199	1	3	1	n/a	n/a	n/a	n/a	n/a
3335767	RECOG_RESP	n/a	LTP140	ltpFR	17	3	1	ROBIN	1199	1	n/a	1	n/a	n/a	n/a	n/a	n/a
3336206	RECOG_CONF	n/a	LTP140	ltpFR	17	3	1	ROBIN	1199	n/a	3	1	n/a	n/a	n/a	n/a	n/a
3337481	RECOG_TARGET	n/a	LTP140	ltpFR	17	3	0	DICE	461	1	4	0	n/a	n/a	n/a	n/a	n/a
3338071	RECOG_RESP	n/a	LTP140	ltpFR	17	3	0	DICE	461	1	n/a	0	n/a	n/a	n/a	n/a	n/a
