onset	duration	trial_type	sample	stim_file	subject	experiment	session	trial	item_name	item_num	list	answer	test_x	test_y	test_z
216.226	n/a	SESS_START	108113	n/a	LTP280	ltpFR2	2	n/a	n/a	n/a	n/a	n/a	0	0	0
241.248	n/a	START	120624	n/a	LTP280	ltpFR2	2	n/a	n/a	n/a	-1	n/a	n/a	n/a	n/a
241.28	n/a	PROB	120640	n/a	LTP280	ltpFR2	2	n/a	n/a	n/a	-1	16	5	6	5
242.632	n/a	PROB	121316	n/a	LTP280	ltpFR2	2	n/a	n/a	n/a	-1	18	6	3	9
243.85	n/a	PROB	121925	n/a	LTP280	ltpFR2	2	n/a	n/a	n/a	-1	18	8	5	4
245.15	n/a	PROB	122575	n/a	LTP280	ltpFR2	2	n/a	n/a	n/a	-1	17	6	9	2
246.568	n/a	PROB	123284	n/a	LTP280	ltpFR2	2	n/a	n/a	n/a	-1	18	6	6	6
247.636	n/a	PROB	123818	n/a	LTP280	ltpFR2	2	n/a	n/a	n/a	-1	17	8	5	4
249.502	n/a	PROB	124751	n/a	LTP280	ltpFR2	2	n/a	n/a	n/a	-1	17	8	6	3
251.056	n/a	PROB	125528	n/a	LTP280	ltpFR2	2	n/a	n/a	n/a	-1	16	2	5	9
252.504	n/a	STOP	126252	n/a	LTP280	ltpFR2	2	n/a	n/a	n/a	-1	n/a	n/a	n/a	n/a
283.932	n/a	DISTRACTOR	141966	n/a	LTP280	ltpFR2	2	1	n/a	n/a	n/a	n/a	0	0	0
283.934	n/a	START	141967	n/a	LTP280	ltpFR2	2	n/a	n/a	n/a	1	n/a	n/a	n/a	n/a
283.966	n/a	PROB	141983	n/a	LTP280	ltpFR2	2	n/a	n/a	n/a	1	17	9	7	1
285.3	n/a	PROB	142650	n/a	LTP280	ltpFR2	2	n/a	n/a	n/a	1	18	7	4	7
286.868	n/a	PROB	143434	n/a	LTP280	ltpFR2	2	n/a	n/a	n/a	1	1	6	7	9
288.604	n/a	PROB	144302	n/a	LTP280	ltpFR2	2	n/a	n/a	n/a	1	19	8	7	4
290.372	n/a	PROB	145186	n/a	LTP280	ltpFR2	2	n/a	n/a	n/a	1	18	9	6	3
291.674	n/a	PROB	145837	n/a	LTP280	ltpFR2	2	n/a	n/a	n/a	1	10	4	2	8
293.54	n/a	PROB	146770	n/a	LTP280	ltpFR2	2	n/a	n/a	n/a	1	16	1	7	8
294.842	n/a	PROB	147421	n/a	LTP280	ltpFR2	2	n/a	n/a	n/a	1	11	2	1	8
295.894	n/a	PROB	147947	n/a	LTP280	ltpFR2	2	n/a	n/a	n/a	1	18	5	6	7
297.144	n/a	PROB	148572	n/a	LTP280	ltpFR2	2	n/a	n/a	n/a	1	187	6	7	4
298.662	n/a	PROB	149331	n/a	LTP280	ltpFR2	2	n/a	n/a	n/a	1	14	1	5	8
299.764	n/a	PROB	149882	n/a	LTP280	ltpFR2	2	n/a	n/a	n/a	1	6	2	2	2
300.73	n/a	PROB	150365	n/a	LTP280	ltpFR2	2	n/a	n/a	n/a	1	12	3	3	6
302.366	n/a	PROB	151183	n/a	LTP280	ltpFR2	2	n/a	n/a	n/a	1	15	5	5	5
303.266	n/a	PROB	151633	n/a	LTP280	ltpFR2	2	n/a	n/a	n/a	1	17	7	4	6
304.484	n/a	PROB	152242	n/a	LTP280	ltpFR2	2	n/a	n/a	n/a	1	15	7	2	6
306.236	n/a	PROB	153118	n/a	LTP280	ltpFR2	2	n/a	n/a	n/a	1	10	1	4	5
307.154	n/a	STOP	153577	n/a	LTP280	ltpFR2	2	n/a	n/a	n/a	1	n/a	n/a	n/a	n/a
308.954	n/a	WORD	154477	wordpools/wasnorm_wordpool_576.txt	LTP280	ltpFR2	2	1	PORTRAIT	1111	n/a	n/a	0	0	0
311.49	n/a	WORD	155745	wordpools/wasnorm_wordpool_576.txt	LTP280	ltpFR2	2	1	LOFT	840	n/a	n/a	0	0	0
314.126	n/a	WORD	157063	wordpools/wasnorm_wordpool_576.txt	LTP280	ltpFR2	2	1	CATCHER	258	n/a	n/a	0	0	0
316.628	n/a	WORD	158314	wordpools/wasnorm_wordpool_576.txt	LTP280	ltpFR2	2	1	HOUND	724	n/a	n/a	0	0	0
319.33	n/a	WORD	159665	wordpools/wasnorm_wordpool_576.txt	LTP280	ltpFR2	2	1	CLAM	315	n/a	n/a	0	0	0
322.15	n/a	WORD	161075	wordpools/wasnorm_wordpool_576.txt	LTP280	ltpFR2	2	1	GARBAGE	622	n/a	n/a	0	0	0
324.784	n/a	WORD	162392	wordpools/wasnorm_wordpool_576.txt	LTP280	ltpFR2	2	1	COUCH	386	n/a	n/a	0	0	0
327.354	n/a	WORD	163677	wordpools/wasnorm_wordpool_576.txt	LTP280	ltpFR2	2	1	HERO	706	n/a	n/a	0	0	0
329.972	n/a	WORD	164986	wordpools/wasnorm_wordpool_576.txt	LTP280	ltpFR2	2	1	MATTRESS	879	n/a	n/a	0	0	0
332.658	n/a	WORD	166329	wordpools/wasnorm_wordpool_576.txt	LTP280	ltpFR2	2	1	VAGRANT	1544	n/a	n/a	0	0	0
335.244	n/a	WORD	167622	wordpools/wasnorm_wordpool_576.txt	LTP280	ltpFR2	2	1	HEADBAND	696	n/a	n/a	0	0	0
337.778	n/a	WORD	168889	wordpools/wasnorm_wordpool_576.txt	LTP280	ltpFR2	2	1	FRAME	600	n/a	n/a	0	0	0
340.314	n/a	WORD	170157	wordpools/wasnorm_wordpool_576.txt	LTP280	ltpFR2	2	1	POET	1095	n/a	n/a	0	0	0
342.816	n/a	WORD	171408	wordpools/wasnorm_wordpool_576.txt	LTP280	ltpFR2	2	1	ULCER	1533	n/a	n/a	0	0	0
345.502	n/a	WORD	172751	wordpools/wasnorm_wordpool_576.txt	LTP280	ltpFR2	2	1	ANTLER	29	n/a	n/a	0	0	0
348.122	n/a	WORD	174061	wordpools/wasnorm_wordpool_576.txt	LTP280	ltpFR2	2	1	FRANCE	601	n/a	n/a	0	0	0
350.674	n/a	WORD	175337	wordpools/wasnorm_wordpool_576.txt	LTP280	ltpFR2	2	1	POSSUM	1112	n/a	n/a	0	0	0
353.192	n/a	WORD	176596	wordpools/wasnorm_wordpool_576.txt	LTP280	ltpFR2	2	1	PANTHER	1009	n/a	n/a	0	0	0
355.66	n/a	WORD	177830	wordpools/wasnorm_wordpool_576.txt	LTP280	ltpFR2	2	1	GAZELLE	628	n/a	n/a	0	0	0
358.346	n/a	WORD	179173	wordpools/wasnorm_wordpool_576.txt	LTP280	ltpFR2	2	1	PILOT	1070	n/a	n/a	0	0	0
360.816	n/a	WORD	180408	wordpools/wasnorm_wordpool_576.txt	LTP280	ltpFR2	2	1	GHETTO	633	n/a	n/a	0	0	0
363.568	n/a	WORD	181784	wordpools/wasnorm_wordpool_576.txt	LTP280	ltpFR2	2	1	SLUG	1329	n/a	n/a	0	0	0
366.236	n/a	WORD	183118	wordpools/wasnorm_wordpool_576.txt	LTP280	ltpFR2	2	1	SNAIL	1332	n/a	n/a	0	0	0
368.94	n/a	WORD	184470	wordpools/wasnorm_wordpool_576.txt	LTP280	ltpFR2	2	1	OX	994	n/a	n/a	0	0	0
370.558	n/a	START	185279	n/a	LTP280	ltpFR2	2	n/a	n/a	n/a	2	n/a	n/a	n/a	n/a
371.414	n/a	DISTRACTOR	185707	n/a	LTP280	ltpFR2	2	1	n/a	n/a	n/a	n/a	0	0	0
371.424	n/a	PROB	185712	n/a	LTP280	ltpFR2	2	n/a	n/a	n/a	2	3	5	8	9
373.276	n/a	PROB	186638	n/a	LTP280	ltpFR2	2	n/a	n/a	n/a	2	18	8	2	8
375.378	n/a	PROB	187689	n/a	LTP280	ltpFR2	2	n/a	n/a	n/a	2	17	2	7	8
376.746	n/a	PROB	188373	n/a	LTP280	ltpFR2	2	n/a	n/a	n/a	2	21	3	9	8
378.03	n/a	PROB	189015	n/a	LTP280	ltpFR2	2	n/a	n/a	n/a	2	14	8	1	5
379.514	n/a	PROB	189757	n/a	LTP280	ltpFR2	2	n/a	n/a	n/a	2	15	2	5	8
380.716	n/a	PROB	190358	n/a	LTP280	ltpFR2	2	n/a	n/a	n/a	2	8	1	6	1
381.582	n/a	PROB	190791	n/a	LTP280	ltpFR2	2	n/a	n/a	n/a	2	10	3	2	5
382.65	n/a	PROB	191325	n/a	LTP280	ltpFR2	2	n/a	n/a	n/a	2	23	8	7	8
384.102	n/a	PROB	192051	n/a	LTP280	ltpFR2	2	n/a	n/a	n/a	2	122	8	3	2
385.436	n/a	PROB	192718	n/a	LTP280	ltpFR2	2	n/a	n/a	n/a	2	18	8	8	2
386.92	n/a	PROB	193460	n/a	LTP280	ltpFR2	2	n/a	n/a	n/a	2	15	4	8	3
388.438	n/a	PROB	194219	n/a	LTP280	ltpFR2	2	n/a	n/a	n/a	2	25	6	9	9
389.956	n/a	PROB	194978	n/a	LTP280	ltpFR2	2	n/a	n/a	n/a	2	11	4	2	5
391.274	n/a	PROB	195637	n/a	LTP280	ltpFR2	2	n/a	n/a	n/a	2	14	4	9	1
394.556	n/a	STOP	197278	n/a	LTP280	ltpFR2	2	n/a	n/a	n/a	2	n/a	n/a	n/a	n/a
396.346	n/a	REC_START	198173	n/a	LTP280	ltpFR2	2	1	n/a	n/a	n/a	n/a	0	0	0
396.47	n/a	REC_WORD	198235	wordpools/wasnorm_wordpool_576.txt	LTP280	ltpFR2	2	1	GHETTO	633	n/a	n/a	0	0	0
397.168	n/a	REC_WORD	198584	wordpools/wasnorm_wordpool_576.txt	LTP280	ltpFR2	2	1	SLUG	1329	n/a	n/a	0	0	0
399.236	n/a	REC_WORD	199618	wordpools/wasnorm_wordpool_576.txt	LTP280	ltpFR2	2	1	SNAIL	1332	n/a	n/a	0	0	0
400.93	n/a	REC_WORD	200465	wordpools/wasnorm_wordpool_576.txt	LTP280	ltpFR2	2	1	ANTLER	29	n/a	n/a	0	0	0
403.05	n/a	REC_WORD	201525	wordpools/wasnorm_wordpool_576.txt	LTP280	ltpFR2	2	1	MATTRESS	879	n/a	n/a	0	0	0
404.354	n/a	REC_WORD	202177	wordpools/wasnorm_wordpool_576.txt	LTP280	ltpFR2	2	1	CLAM	315	n/a	n/a	0	0	0
405.108	n/a	REC_WORD	202554	wordpools/wasnorm_wordpool_576.txt	LTP280	ltpFR2	2	1	OX	994	n/a	n/a	0	0	0
406.512	n/a	REC_WORD	203256	wordpools/wasnorm_wordpool_576.txt	LTP280	ltpFR2	2	1	GAZELLE	628	n/a	n/a	0	0	0
407.462	n/a	REC_WORD	203731	wordpools/wasnorm_wordpool_576.txt	LTP280	ltpFR2	2	1	PANTHER	1009	n/a	n/a	0	0	0
408.754	n/a	REC_WORD	204377	wordpools/wasnorm_wordpool_576.txt	LTP280	ltpFR2	2	1	CATCHER	258	n/a	n/a	0	0	0
410.834	n/a	REC_WORD	205417	wordpools/wasnorm_wordpool_576.txt	LTP280	ltpFR2	2	1	PORTRAIT	1111	n/a	n/a	0	0	0
411.756	n/a	REC_WORD	205878	wordpools/wasnorm_wordpool_576.txt	LTP280	ltpFR2	2	1	ULCER	1533	n/a	n/a	0	0	0
413.916	n/a	REC_WORD	206958	wordpools/wasnorm_wordpool_576.txt	LTP280	ltpFR2	2	1	LAWN	805	n/a	n/a	0	0	0
418.924	n/a	REC_WORD	209462	wordpools/wasnorm_wordpool_576.txt	LTP280	ltpFR2	2	1	HOUND	724	n/a	n/a	0	0	0
436.446	n/a	REC_WORD	218223	wordpools/wasnorm_wordpool_576.txt	LTP280	ltpFR2	2	1	FRANCE	601	n/a	n/a	0	0	0
446.262	n/a	REC_WORD	223131	wordpools/wasnorm_wordpool_576.txt	LTP280	ltpFR2	2	1	GARBAGE	622	n/a	n/a	0	0	0
486.99	n/a	WORD	243495	wordpools/wasnorm_wordpool_576.txt	LTP280	ltpFR2	2	2	FRECKLE	602	n/a	n/a	0	0	0
489.824	n/a	WORD	244912	wordpools/wasnorm_wordpool_576.txt	LTP280	ltpFR2	2	2	BLOUSE	139	n/a	n/a	0	0	0
492.61	n/a	WORD	246305	wordpools/wasnorm_wordpool_576.txt	LTP280	ltpFR2	2	2	COCKTAIL	338	n/a	n/a	0	0	0
495.096	n/a	WORD	247548	wordpools/wasnorm_wordpool_576.txt	LTP280	ltpFR2	2	2	DENIM	446	n/a	n/a	0	0	0
497.798	n/a	WORD	248899	wordpools/wasnorm_wordpool_576.txt	LTP280	ltpFR2	2	2	BABY	64	n/a	n/a	0	0	0
500.416	n/a	WORD	250208	wordpools/wasnorm_wordpool_576.txt	LTP280	ltpFR2	2	2	CELLAR	267	n/a	n/a	0	0	0
503.002	n/a	WORD	251501	wordpools/wasnorm_wordpool_576.txt	LTP280	ltpFR2	2	2	AIRPORT	13	n/a	n/a	0	0	0
505.572	n/a	WORD	252786	wordpools/wasnorm_wordpool_576.txt	LTP280	ltpFR2	2	2	PATIENT	1024	n/a	n/a	0	0	0
508.124	n/a	WORD	254062	wordpools/wasnorm_wordpool_576.txt	LTP280	ltpFR2	2	2	PECAN	1036	n/a	n/a	0	0	0
510.944	n/a	WORD	255472	wordpools/wasnorm_wordpool_576.txt	LTP280	ltpFR2	2	2	INMATE	738	n/a	n/a	0	0	0
513.596	n/a	WORD	256798	wordpools/wasnorm_wordpool_576.txt	LTP280	ltpFR2	2	2	SKIRT	1319	n/a	n/a	0	0	0
516.182	n/a	WORD	258091	wordpools/wasnorm_wordpool_576.txt	LTP280	ltpFR2	2	2	SPHINX	1349	n/a	n/a	0	0	0
518.766	n/a	WORD	259383	wordpools/wasnorm_wordpool_576.txt	LTP280	ltpFR2	2	2	TEMPLE	1448	n/a	n/a	0	0	0
521.45	n/a	WORD	260725	wordpools/wasnorm_wordpool_576.txt	LTP280	ltpFR2	2	2	CREATURE	403	n/a	n/a	0	0	0
524.104	n/a	WORD	262052	wordpools/wasnorm_wordpool_576.txt	LTP280	ltpFR2	2	2	COCOON	339	n/a	n/a	0	0	0
526.622	n/a	WORD	263311	wordpools/wasnorm_wordpool_576.txt	LTP280	ltpFR2	2	2	CHIPMUNK	304	n/a	n/a	0	0	0
529.44	n/a	WORD	264720	wordpools/wasnorm_wordpool_576.txt	LTP280	ltpFR2	2	2	PLAID	1080	n/a	n/a	0	0	0
532.044	n/a	WORD	266022	wordpools/wasnorm_wordpool_576.txt	LTP280	ltpFR2	2	2	CLIMBER	323	n/a	n/a	0	0	0
534.712	n/a	WORD	267356	wordpools/wasnorm_wordpool_576.txt	LTP280	ltpFR2	2	2	UNCLE	1536	n/a	n/a	0	0	0
537.382	n/a	WORD	268691	wordpools/wasnorm_wordpool_576.txt	LTP280	ltpFR2	2	2	DAISY	435	n/a	n/a	0	0	0
539.934	n/a	WORD	269967	wordpools/wasnorm_wordpool_576.txt	LTP280	ltpFR2	2	2	TOURIST	1488	n/a	n/a	0	0	0
542.586	n/a	WORD	271293	wordpools/wasnorm_wordpool_576.txt	LTP280	ltpFR2	2	2	WRENCH	1625	n/a	n/a	0	0	0
545.272	n/a	WORD	272636	wordpools/wasnorm_wordpool_576.txt	LTP280	ltpFR2	2	2	PLIERS	1089	n/a	n/a	0	0	0
547.708	n/a	WORD	273854	wordpools/wasnorm_wordpool_576.txt	LTP280	ltpFR2	2	2	LAPEL	800	n/a	n/a	0	0	0
549.31	n/a	START	274655	n/a	LTP280	ltpFR2	2	n/a	n/a	n/a	3	n/a	n/a	n/a	n/a
550.298	n/a	DISTRACTOR	275149	n/a	LTP280	ltpFR2	2	2	n/a	n/a	n/a	n/a	0	0	0
550.31	n/a	PROB	275155	n/a	LTP280	ltpFR2	2	n/a	n/a	n/a	3	16	7	3	6
551.476	n/a	PROB	275738	n/a	LTP280	ltpFR2	2	n/a	n/a	n/a	3	17	2	8	7
552.812	n/a	PROB	276406	n/a	LTP280	ltpFR2	2	n/a	n/a	n/a	3	8	3	2	3
554.164	n/a	PROB	277082	n/a	LTP280	ltpFR2	2	n/a	n/a	n/a	3	19	5	5	9
555.214	n/a	PROB	277607	n/a	LTP280	ltpFR2	2	n/a	n/a	n/a	3	7	2	4	1
556.164	n/a	PROB	278082	n/a	LTP280	ltpFR2	2	n/a	n/a	n/a	3	18	6	7	4
557.482	n/a	PROB	278741	n/a	LTP280	ltpFR2	2	n/a	n/a	n/a	3	18	6	9	2
558.85	n/a	PROB	279425	n/a	LTP280	ltpFR2	2	n/a	n/a	n/a	3	14	1	4	9
559.902	n/a	PROB	279951	n/a	LTP280	ltpFR2	2	n/a	n/a	n/a	3	12	2	6	4
561.402	n/a	PROB	280701	n/a	LTP280	ltpFR2	2	n/a	n/a	n/a	3	25	9	8	8
562.97	n/a	PROB	281485	n/a	LTP280	ltpFR2	2	n/a	n/a	n/a	3	12	3	6	3
565.056	n/a	PROB	282528	n/a	LTP280	ltpFR2	2	n/a	n/a	n/a	3	16	7	7	2
566.19	n/a	PROB	283095	n/a	LTP280	ltpFR2	2	n/a	n/a	n/a	3	17	6	3	8
568.326	n/a	PROB	284163	n/a	LTP280	ltpFR2	2	n/a	n/a	n/a	3	18	4	8	6
569.776	n/a	PROB	284888	n/a	LTP280	ltpFR2	2	n/a	n/a	n/a	3	14	2	8	4
570.844	n/a	PROB	285422	n/a	LTP280	ltpFR2	2	n/a	n/a	n/a	3	15	4	5	6
571.942	n/a	STOP	285971	n/a	LTP280	ltpFR2	2	n/a	n/a	n/a	3	n/a	n/a	n/a	n/a
575.13	n/a	REC_START	287565	n/a	LTP280	ltpFR2	2	2	n/a	n/a	n/a	n/a	0	0	0
576.298	n/a	REC_WORD	288149	wordpools/wasnorm_wordpool_576.txt	LTP280	ltpFR2	2	2	WRENCH	1625	n/a	n/a	0	0	0
576.8	n/a	REC_WORD	288400	wordpools/wasnorm_wordpool_576.txt	LTP280	ltpFR2	2	2	PLIERS	1089	n/a	n/a	0	0	0
577.338	n/a	REC_WORD	288669	wordpools/wasnorm_wordpool_576.txt	LTP280	ltpFR2	2	2	LAPEL	800	n/a	n/a	0	0	0
578.598	n/a	REC_WORD	289299	wordpools/wasnorm_wordpool_576.txt	LTP280	ltpFR2	2	2	COCOON	339	n/a	n/a	0	0	0
582.244	n/a	REC_WORD	291122	wordpools/wasnorm_wordpool_576.txt	LTP280	ltpFR2	2	2	BABY	64	n/a	n/a	0	0	0
582.754	n/a	REC_WORD	291377	wordpools/wasnorm_wordpool_576.txt	LTP280	ltpFR2	2	2	CELLAR	267	n/a	n/a	0	0	0
588.134	n/a	REC_WORD	294067	wordpools/wasnorm_wordpool_576.txt	LTP280	ltpFR2	2	2	COCKTAIL	338	n/a	n/a	0	0	0
590.724	n/a	REC_WORD	295362	wordpools/wasnorm_wordpool_576.txt	LTP280	ltpFR2	2	2	SPHINX	1349	n/a	n/a	0	0	0
599.534	n/a	REC_WORD	299767	wordpools/wasnorm_wordpool_576.txt	LTP280	ltpFR2	2	2	UNCLE	1536	n/a	n/a	0	0	0
665.724	n/a	WORD	332862	wordpools/wasnorm_wordpool_576.txt	LTP280	ltpFR2	2	3	COLONEL	348	n/a	n/a	0	0	0
668.378	n/a	WORD	334189	wordpools/wasnorm_wordpool_576.txt	LTP280	ltpFR2	2	3	JELLY	755	n/a	n/a	0	0	0
671.128	n/a	WORD	335564	wordpools/wasnorm_wordpool_576.txt	LTP280	ltpFR2	2	3	SPOON	1357	n/a	n/a	0	0	0
673.564	n/a	WORD	336782	wordpools/wasnorm_wordpool_576.txt	LTP280	ltpFR2	2	3	PIGEON	1065	n/a	n/a	0	0	0
676.35	n/a	WORD	338175	wordpools/wasnorm_wordpool_576.txt	LTP280	ltpFR2	2	3	CIGAR	308	n/a	n/a	0	0	0
678.936	n/a	WORD	339468	wordpools/wasnorm_wordpool_576.txt	LTP280	ltpFR2	2	3	COBRA	336	n/a	n/a	0	0	0
681.722	n/a	WORD	340861	wordpools/wasnorm_wordpool_576.txt	LTP280	ltpFR2	2	3	FIREPLACE	570	n/a	n/a	0	0	0
684.206	n/a	WORD	342103	wordpools/wasnorm_wordpool_576.txt	LTP280	ltpFR2	2	3	FIREMAN	569	n/a	n/a	0	0	0
686.676	n/a	WORD	343338	wordpools/wasnorm_wordpool_576.txt	LTP280	ltpFR2	2	3	NOTEBOOK	959	n/a	n/a	0	0	0
689.278	n/a	WORD	344639	wordpools/wasnorm_wordpool_576.txt	LTP280	ltpFR2	2	3	RAZOR	1171	n/a	n/a	0	0	0
691.93	n/a	WORD	345965	wordpools/wasnorm_wordpool_576.txt	LTP280	ltpFR2	2	3	WHISKERS	1605	n/a	n/a	0	0	0
694.566	n/a	WORD	347283	wordpools/wasnorm_wordpool_576.txt	LTP280	ltpFR2	2	3	PICTURE	1061	n/a	n/a	0	0	0
697.352	n/a	WORD	348676	wordpools/wasnorm_wordpool_576.txt	LTP280	ltpFR2	2	3	DUSTPAN	509	n/a	n/a	0	0	0
699.82	n/a	WORD	349910	wordpools/wasnorm_wordpool_576.txt	LTP280	ltpFR2	2	3	TREAT	1501	n/a	n/a	0	0	0
702.438	n/a	WORD	351219	wordpools/wasnorm_wordpool_576.txt	LTP280	ltpFR2	2	3	GUARD	667	n/a	n/a	0	0	0
705.174	n/a	WORD	352587	wordpools/wasnorm_wordpool_576.txt	LTP280	ltpFR2	2	3	GLOBE	641	n/a	n/a	0	0	0
707.744	n/a	WORD	353872	wordpools/wasnorm_wordpool_576.txt	LTP280	ltpFR2	2	3	POISON	1096	n/a	n/a	0	0	0
710.428	n/a	WORD	355214	wordpools/wasnorm_wordpool_576.txt	LTP280	ltpFR2	2	3	CUPBOARD	425	n/a	n/a	0	0	0
713.148	n/a	WORD	356574	wordpools/wasnorm_wordpool_576.txt	LTP280	ltpFR2	2	3	SNACK	1331	n/a	n/a	0	0	0
715.984	n/a	WORD	357992	wordpools/wasnorm_wordpool_576.txt	LTP280	ltpFR2	2	3	BEEF	113	n/a	n/a	0	0	0
718.57	n/a	WORD	359285	wordpools/wasnorm_wordpool_576.txt	LTP280	ltpFR2	2	3	SUPPER	1411	n/a	n/a	0	0	0
721.188	n/a	WORD	360594	wordpools/wasnorm_wordpool_576.txt	LTP280	ltpFR2	2	3	SPOUSE	1358	n/a	n/a	0	0	0
723.99	n/a	WORD	361995	wordpools/wasnorm_wordpool_576.txt	LTP280	ltpFR2	2	3	TAXI	1438	n/a	n/a	0	0	0
726.726	n/a	WORD	363363	wordpools/wasnorm_wordpool_576.txt	LTP280	ltpFR2	2	3	SCRIBBLE	1256	n/a	n/a	0	0	0
728.344	n/a	START	364172	n/a	LTP280	ltpFR2	2	n/a	n/a	n/a	4	n/a	n/a	n/a	n/a
729.306	n/a	DISTRACTOR	364653	n/a	LTP280	ltpFR2	2	3	n/a	n/a	n/a	n/a	0	0	0
729.328	n/a	PROB	364664	n/a	LTP280	ltpFR2	2	n/a	n/a	n/a	4	12	2	3	7
731.296	n/a	PROB	365648	n/a	LTP280	ltpFR2	2	n/a	n/a	n/a	4	7	3	2	2
732.798	n/a	PROB	366399	n/a	LTP280	ltpFR2	2	n/a	n/a	n/a	4	14	6	7	1
734.016	n/a	PROB	367008	n/a	LTP280	ltpFR2	2	n/a	n/a	n/a	4	10	5	3	2
735.384	n/a	PROB	367692	n/a	LTP280	ltpFR2	2	n/a	n/a	n/a	4	9	2	1	6
736.466	n/a	PROB	368233	n/a	LTP280	ltpFR2	2	n/a	n/a	n/a	4	24	7	9	9
738.02	n/a	PROB	369010	n/a	LTP280	ltpFR2	2	n/a	n/a	n/a	4	10	1	5	4
739.104	n/a	PROB	369552	n/a	LTP280	ltpFR2	2	n/a	n/a	n/a	4	18	8	8	2
740.572	n/a	PROB	370286	n/a	LTP280	ltpFR2	2	n/a	n/a	n/a	4	14	5	1	8
741.688	n/a	PROB	370844	n/a	LTP280	ltpFR2	2	n/a	n/a	n/a	4	14	1	8	5
743.19	n/a	PROB	371595	n/a	LTP280	ltpFR2	2	n/a	n/a	n/a	4	18	5	8	5
744.624	n/a	PROB	372312	n/a	LTP280	ltpFR2	2	n/a	n/a	n/a	4	20	6	8	8
746.326	n/a	PROB	373163	n/a	LTP280	ltpFR2	2	n/a	n/a	n/a	4	15	5	6	4
747.476	n/a	PROB	373738	n/a	LTP280	ltpFR2	2	n/a	n/a	n/a	4	17	4	8	5
748.762	n/a	PROB	374381	n/a	LTP280	ltpFR2	2	n/a	n/a	n/a	4	20	8	8	4
750.096	n/a	PROB	375048	n/a	LTP280	ltpFR2	2	n/a	n/a	n/a	4	21	7	8	6
751.898	n/a	STOP	375949	n/a	LTP280	ltpFR2	2	n/a	n/a	n/a	4	n/a	n/a	n/a	n/a
754.318	n/a	REC_START	377159	n/a	LTP280	ltpFR2	2	3	n/a	n/a	n/a	n/a	0	0	0
754.352	n/a	REC_WORD	377176	wordpools/wasnorm_wordpool_576.txt	LTP280	ltpFR2	2	3	SPOUSE	1358	n/a	n/a	0	0	0
755.008	n/a	REC_WORD	377504	wordpools/wasnorm_wordpool_576.txt	LTP280	ltpFR2	2	3	SEA	1259	n/a	n/a	0	0	0
755.766	n/a	REC_WORD	377883	wordpools/wasnorm_wordpool_576.txt	LTP280	ltpFR2	2	3	TAXI	1438	n/a	n/a	0	0	0
757.02	n/a	REC_WORD	378510	wordpools/wasnorm_wordpool_576.txt	LTP280	ltpFR2	2	3	GLOBE	641	n/a	n/a	0	0	0
764.286	n/a	REC_WORD	382143	wordpools/wasnorm_wordpool_576.txt	LTP280	ltpFR2	2	3	JELLY	755	n/a	n/a	0	0	0
764.846	n/a	REC_WORD	382423	wordpools/wasnorm_wordpool_576.txt	LTP280	ltpFR2	2	3	SPOON	1357	n/a	n/a	0	0	0
765.866	n/a	REC_WORD	382933	wordpools/wasnorm_wordpool_576.txt	LTP280	ltpFR2	2	3	DOCTOR	478	n/a	n/a	0	0	0
817.924	n/a	REC_WORD	408962	wordpools/wasnorm_wordpool_576.txt	LTP280	ltpFR2	2	3	UMPIRE	1535	n/a	n/a	0	0	0
844.76	n/a	DISTRACTOR	422380	n/a	LTP280	ltpFR2	2	4	n/a	n/a	n/a	n/a	0	0	0
844.76	n/a	START	422380	n/a	LTP280	ltpFR2	2	n/a	n/a	n/a	5	n/a	n/a	n/a	n/a
844.776	n/a	PROB	422388	n/a	LTP280	ltpFR2	2	n/a	n/a	n/a	5	9	5	1	3
845.828	n/a	PROB	422914	n/a	LTP280	ltpFR2	2	n/a	n/a	n/a	5	19	5	5	9
846.878	n/a	PROB	423439	n/a	LTP280	ltpFR2	2	n/a	n/a	n/a	5	9	6	1	2
848.164	n/a	PROB	424082	n/a	LTP280	ltpFR2	2	n/a	n/a	n/a	5	144	5	3	6
850.816	n/a	PROB	425408	n/a	LTP280	ltpFR2	2	n/a	n/a	n/a	5	5	1	2	2
851.732	n/a	PROB	425866	n/a	LTP280	ltpFR2	2	n/a	n/a	n/a	5	24	8	8	9
853.368	n/a	PROB	426684	n/a	LTP280	ltpFR2	2	n/a	n/a	n/a	5	1	2	5	4
854.618	n/a	PROB	427309	n/a	LTP280	ltpFR2	2	n/a	n/a	n/a	5	8	1	1	6
855.636	n/a	PROB	427818	n/a	LTP280	ltpFR2	2	n/a	n/a	n/a	5	19	9	2	8
857.272	n/a	PROB	428636	n/a	LTP280	ltpFR2	2	n/a	n/a	n/a	5	19	9	4	6
859.172	n/a	PROB	429586	n/a	LTP280	ltpFR2	2	n/a	n/a	n/a	5	12	2	2	8
860.29	n/a	PROB	430145	n/a	LTP280	ltpFR2	2	n/a	n/a	n/a	5	12	5	4	3
861.508	n/a	PROB	430754	n/a	LTP280	ltpFR2	2	n/a	n/a	n/a	5	12	6	2	4
862.96	n/a	PROB	431480	n/a	LTP280	ltpFR2	2	n/a	n/a	n/a	5	19	7	8	4
864.394	n/a	PROB	432197	n/a	LTP280	ltpFR2	2	n/a	n/a	n/a	5	174	8	8	3
865.696	n/a	PROB	432848	n/a	LTP280	ltpFR2	2	n/a	n/a	n/a	5	13	3	9	1
867.18	n/a	PROB	433590	n/a	LTP280	ltpFR2	2	n/a	n/a	n/a	5	10	1	1	8
868.14	n/a	STOP	434070	n/a	LTP280	ltpFR2	2	n/a	n/a	n/a	5	n/a	n/a	n/a	n/a
869.914	n/a	WORD	434957	wordpools/wasnorm_wordpool_576.txt	LTP280	ltpFR2	2	4	MARROW	872	n/a	n/a	0	0	0
872.516	n/a	WORD	436258	wordpools/wasnorm_wordpool_576.txt	LTP280	ltpFR2	2	4	ICING	732	n/a	n/a	0	0	0
875.27	n/a	WORD	437635	wordpools/wasnorm_wordpool_576.txt	LTP280	ltpFR2	2	4	WAITRESS	1581	n/a	n/a	0	0	0
878.004	n/a	WORD	439002	wordpools/wasnorm_wordpool_576.txt	LTP280	ltpFR2	2	4	TRUCK	1512	n/a	n/a	0	0	0
880.758	n/a	WORD	440379	wordpools/wasnorm_wordpool_576.txt	LTP280	ltpFR2	2	4	RUST	1219	n/a	n/a	0	0	0
883.56	n/a	WORD	441780	wordpools/wasnorm_wordpool_576.txt	LTP280	ltpFR2	2	4	HARP	689	n/a	n/a	0	0	0
886.146	n/a	WORD	443073	wordpools/wasnorm_wordpool_576.txt	LTP280	ltpFR2	2	4	PASTRY	1022	n/a	n/a	0	0	0
888.798	n/a	WORD	444399	wordpools/wasnorm_wordpool_576.txt	LTP280	ltpFR2	2	4	COMPASS	358	n/a	n/a	0	0	0
891.634	n/a	WORD	445817	wordpools/wasnorm_wordpool_576.txt	LTP280	ltpFR2	2	4	SCARF	1246	n/a	n/a	0	0	0
894.402	n/a	WORD	447201	wordpools/wasnorm_wordpool_576.txt	LTP280	ltpFR2	2	4	COOK	372	n/a	n/a	0	0	0
896.854	n/a	WORD	448427	wordpools/wasnorm_wordpool_576.txt	LTP280	ltpFR2	2	4	CITRUS	313	n/a	n/a	0	0	0
899.39	n/a	WORD	449695	wordpools/wasnorm_wordpool_576.txt	LTP280	ltpFR2	2	4	SUSPECT	1415	n/a	n/a	0	0	0
901.842	n/a	WORD	450921	wordpools/wasnorm_wordpool_576.txt	LTP280	ltpFR2	2	4	DRAGON	492	n/a	n/a	0	0	0
904.31	n/a	WORD	452155	wordpools/wasnorm_wordpool_576.txt	LTP280	ltpFR2	2	4	CHEMIST	292	n/a	n/a	0	0	0
906.88	n/a	WORD	453440	wordpools/wasnorm_wordpool_576.txt	LTP280	ltpFR2	2	4	CRICKET	408	n/a	n/a	0	0	0
909.616	n/a	WORD	454808	wordpools/wasnorm_wordpool_576.txt	LTP280	ltpFR2	2	4	DINER	467	n/a	n/a	0	0	0
912.218	n/a	WORD	456109	wordpools/wasnorm_wordpool_576.txt	LTP280	ltpFR2	2	4	MACHINE	852	n/a	n/a	0	0	0
914.72	n/a	WORD	457360	wordpools/wasnorm_wordpool_576.txt	LTP280	ltpFR2	2	4	FLASK	576	n/a	n/a	0	0	0
917.338	n/a	WORD	458669	wordpools/wasnorm_wordpool_576.txt	LTP280	ltpFR2	2	4	PATROL	1027	n/a	n/a	0	0	0
919.806	n/a	WORD	459903	wordpools/wasnorm_wordpool_576.txt	LTP280	ltpFR2	2	4	CRUTCH	417	n/a	n/a	0	0	0
922.508	n/a	WORD	461254	wordpools/wasnorm_wordpool_576.txt	LTP280	ltpFR2	2	4	SLIME	1327	n/a	n/a	0	0	0
925.012	n/a	WORD	462506	wordpools/wasnorm_wordpool_576.txt	LTP280	ltpFR2	2	4	LIPSTICK	829	n/a	n/a	0	0	0
927.664	n/a	WORD	463832	wordpools/wasnorm_wordpool_576.txt	LTP280	ltpFR2	2	4	FLOWER	584	n/a	n/a	0	0	0
930.464	n/a	WORD	465232	wordpools/wasnorm_wordpool_576.txt	LTP280	ltpFR2	2	4	ORCHID	982	n/a	n/a	0	0	0
932.084	n/a	START	466042	n/a	LTP280	ltpFR2	2	n/a	n/a	n/a	6	n/a	n/a	n/a	n/a
933.046	n/a	DISTRACTOR	466523	n/a	LTP280	ltpFR2	2	4	n/a	n/a	n/a	n/a	0	0	0
933.068	n/a	PROB	466534	n/a	LTP280	ltpFR2	2	n/a	n/a	n/a	6	15	3	3	9
934.536	n/a	PROB	467268	n/a	LTP280	ltpFR2	2	n/a	n/a	n/a	6	19	9	6	4
935.97	n/a	PROB	467985	n/a	LTP280	ltpFR2	2	n/a	n/a	n/a	6	19	6	8	5
938.456	n/a	PROB	469228	n/a	LTP280	ltpFR2	2	n/a	n/a	n/a	6	19	6	9	8
940.142	n/a	PROB	470071	n/a	LTP280	ltpFR2	2	n/a	n/a	n/a	6	10	2	1	7
941.292	n/a	PROB	470646	n/a	LTP280	ltpFR2	2	n/a	n/a	n/a	6	16	3	5	8
942.76	n/a	PROB	471380	n/a	LTP280	ltpFR2	2	n/a	n/a	n/a	6	19	9	3	6
944.51	n/a	PROB	472255	n/a	LTP280	ltpFR2	2	n/a	n/a	n/a	6	26	9	9	8
946.478	n/a	PROB	473239	n/a	LTP280	ltpFR2	2	n/a	n/a	n/a	6	11	1	3	7
947.464	n/a	PROB	473732	n/a	LTP280	ltpFR2	2	n/a	n/a	n/a	6	17	8	1	8
948.564	n/a	PROB	474282	n/a	LTP280	ltpFR2	2	n/a	n/a	n/a	6	9	3	4	2
949.866	n/a	PROB	474933	n/a	LTP280	ltpFR2	2	n/a	n/a	n/a	6	13	4	2	9
952.418	n/a	PROB	476209	n/a	LTP280	ltpFR2	2	n/a	n/a	n/a	6	1	9	8	6
954.07	n/a	PROB	477035	n/a	LTP280	ltpFR2	2	n/a	n/a	n/a	6	18	9	1	8
955.31	n/a	STOP	477655	n/a	LTP280	ltpFR2	2	n/a	n/a	n/a	6	n/a	n/a	n/a	n/a
957.94	n/a	REC_START	478970	n/a	LTP280	ltpFR2	2	4	n/a	n/a	n/a	n/a	0	0	0
958.202	n/a	REC_WORD	479101	wordpools/wasnorm_wordpool_576.txt	LTP280	ltpFR2	2	4	DINER	467	n/a	n/a	0	0	0
958.684	n/a	REC_WORD	479342	wordpools/wasnorm_wordpool_576.txt	LTP280	ltpFR2	2	4	MACHINE	852	n/a	n/a	0	0	0
959.368	n/a	REC_WORD	479684	wordpools/wasnorm_wordpool_576.txt	LTP280	ltpFR2	2	4	WAITRESS	1581	n/a	n/a	0	0	0
960.088	n/a	REC_WORD	480044	wordpools/wasnorm_wordpool_576.txt	LTP280	ltpFR2	2	4	FLASK	576	n/a	n/a	0	0	0
961.57	n/a	REC_WORD	480785	wordpools/wasnorm_wordpool_576.txt	LTP280	ltpFR2	2	4	CRUTCH	417	n/a	n/a	0	0	0
962.35	n/a	REC_WORD	481175	wordpools/wasnorm_wordpool_576.txt	LTP280	ltpFR2	2	4	TRUCK	1512	n/a	n/a	0	0	0
963.536	n/a	REC_WORD	481768	wordpools/wasnorm_wordpool_576.txt	LTP280	ltpFR2	2	4	RUST	1219	n/a	n/a	0	0	0
966.276	n/a	REC_WORD	483138	wordpools/wasnorm_wordpool_576.txt	LTP280	ltpFR2	2	4	MARROW	872	n/a	n/a	0	0	0
967.054	n/a	REC_WORD	483527	wordpools/wasnorm_wordpool_576.txt	LTP280	ltpFR2	2	4	ICING	732	n/a	n/a	0	0	0
998.058	n/a	REC_WORD	499029	wordpools/wasnorm_wordpool_576.txt	LTP280	ltpFR2	2	4	LIPSTICK	829	n/a	n/a	0	0	0
1048.398	n/a	WORD	524199	wordpools/wasnorm_wordpool_576.txt	LTP280	ltpFR2	2	5	FRAGRANCE	599	n/a	n/a	0	0	0
1050.902	n/a	WORD	525451	wordpools/wasnorm_wordpool_576.txt	LTP280	ltpFR2	2	5	YARN	1631	n/a	n/a	0	0	0
1053.47	n/a	WORD	526735	wordpools/wasnorm_wordpool_576.txt	LTP280	ltpFR2	2	5	SPOOL	1356	n/a	n/a	0	0	0
1056.024	n/a	WORD	528012	wordpools/wasnorm_wordpool_576.txt	LTP280	ltpFR2	2	5	APPLE	33	n/a	n/a	0	0	0
1058.658	n/a	WORD	529329	wordpools/wasnorm_wordpool_576.txt	LTP280	ltpFR2	2	5	PARENT	1013	n/a	n/a	0	0	0
1061.46	n/a	WORD	530730	wordpools/wasnorm_wordpool_576.txt	LTP280	ltpFR2	2	5	BARLEY	88	n/a	n/a	0	0	0
1063.964	n/a	WORD	531982	wordpools/wasnorm_wordpool_576.txt	LTP280	ltpFR2	2	5	POPCORN	1104	n/a	n/a	0	0	0
1066.7	n/a	WORD	533350	wordpools/wasnorm_wordpool_576.txt	LTP280	ltpFR2	2	5	ONION	977	n/a	n/a	0	0	0
1069.318	n/a	WORD	534659	wordpools/wasnorm_wordpool_576.txt	LTP280	ltpFR2	2	5	PIANO	1057	n/a	n/a	0	0	0
1071.952	n/a	WORD	535976	wordpools/wasnorm_wordpool_576.txt	LTP280	ltpFR2	2	5	MAMMAL	861	n/a	n/a	0	0	0
1074.538	n/a	WORD	537269	wordpools/wasnorm_wordpool_576.txt	LTP280	ltpFR2	2	5	MEDAL	885	n/a	n/a	0	0	0
1076.974	n/a	WORD	538487	wordpools/wasnorm_wordpool_576.txt	LTP280	ltpFR2	2	5	LUGGAGE	847	n/a	n/a	0	0	0
1079.442	n/a	WORD	539721	wordpools/wasnorm_wordpool_576.txt	LTP280	ltpFR2	2	5	DOLPHIN	483	n/a	n/a	0	0	0
1082.044	n/a	WORD	541022	wordpools/wasnorm_wordpool_576.txt	LTP280	ltpFR2	2	5	HIKER	708	n/a	n/a	0	0	0
1084.864	n/a	WORD	542432	wordpools/wasnorm_wordpool_576.txt	LTP280	ltpFR2	2	5	CORAL	378	n/a	n/a	0	0	0
1087.366	n/a	WORD	543683	wordpools/wasnorm_wordpool_576.txt	LTP280	ltpFR2	2	5	PEBBLE	1035	n/a	n/a	0	0	0
1089.902	n/a	WORD	544951	wordpools/wasnorm_wordpool_576.txt	LTP280	ltpFR2	2	5	FUNGUS	614	n/a	n/a	0	0	0
1092.588	n/a	WORD	546294	wordpools/wasnorm_wordpool_576.txt	LTP280	ltpFR2	2	5	CONTRACT	368	n/a	n/a	0	0	0
1095.106	n/a	WORD	547553	wordpools/wasnorm_wordpool_576.txt	LTP280	ltpFR2	2	5	COUSIN	392	n/a	n/a	0	0	0
1097.558	n/a	WORD	548779	wordpools/wasnorm_wordpool_576.txt	LTP280	ltpFR2	2	5	GOBLIN	645	n/a	n/a	0	0	0
1100.36	n/a	WORD	550180	wordpools/wasnorm_wordpool_576.txt	LTP280	ltpFR2	2	5	HEDGE	699	n/a	n/a	0	0	0
1103.064	n/a	WORD	551532	wordpools/wasnorm_wordpool_576.txt	LTP280	ltpFR2	2	5	BEAVER	109	n/a	n/a	0	0	0
1105.85	n/a	WORD	552925	wordpools/wasnorm_wordpool_576.txt	LTP280	ltpFR2	2	5	DONKEY	484	n/a	n/a	0	0	0
1108.318	n/a	WORD	554159	wordpools/wasnorm_wordpool_576.txt	LTP280	ltpFR2	2	5	DRAWING	494	n/a	n/a	0	0	0
1109.936	n/a	START	554968	n/a	LTP280	ltpFR2	2	n/a	n/a	n/a	7	n/a	n/a	n/a	n/a
1111.04	n/a	DISTRACTOR	555520	n/a	LTP280	ltpFR2	2	5	n/a	n/a	n/a	n/a	0	0	0
1111.054	n/a	PROB	555527	n/a	LTP280	ltpFR2	2	n/a	n/a	n/a	7	7	2	4	1
1112.372	n/a	PROB	556186	n/a	LTP280	ltpFR2	2	n/a	n/a	n/a	7	12	3	5	4
1114.64	n/a	PROB	557320	n/a	LTP280	ltpFR2	2	n/a	n/a	n/a	7	18	7	9	4
1116.292	n/a	PROB	558146	n/a	LTP280	ltpFR2	2	n/a	n/a	n/a	7	19	7	5	7
1118.326	n/a	PROB	559163	n/a	LTP280	ltpFR2	2	n/a	n/a	n/a	7	12	1	3	8
1119.426	n/a	PROB	559713	n/a	LTP280	ltpFR2	2	n/a	n/a	n/a	7	11	5	2	4
1121.044	n/a	PROB	560522	n/a	LTP280	ltpFR2	2	n/a	n/a	n/a	7	6	8	5	3
1122.63	n/a	PROB	561315	n/a	LTP280	ltpFR2	2	n/a	n/a	n/a	7	15	1	9	5
1123.88	n/a	PROB	561940	n/a	LTP280	ltpFR2	2	n/a	n/a	n/a	7	24	7	8	9
1125.464	n/a	PROB	562732	n/a	LTP280	ltpFR2	2	n/a	n/a	n/a	7	17	9	1	7
1126.716	n/a	PROB	563358	n/a	LTP280	ltpFR2	2	n/a	n/a	n/a	7	19	6	4	9
1127.85	n/a	PROB	563925	n/a	LTP280	ltpFR2	2	n/a	n/a	n/a	7	11	1	1	9
1128.902	n/a	PROB	564451	n/a	LTP280	ltpFR2	2	n/a	n/a	n/a	7	20	8	3	9
1132.038	n/a	PROB	566019	n/a	LTP280	ltpFR2	2	n/a	n/a	n/a	7	19	9	5	5
1133.154	n/a	STOP	566577	n/a	LTP280	ltpFR2	2	n/a	n/a	n/a	7	n/a	n/a	n/a	n/a
1135.708	n/a	REC_START	567854	n/a	LTP280	ltpFR2	2	5	n/a	n/a	n/a	n/a	0	0	0
1136.114	n/a	REC_WORD	568057	wordpools/wasnorm_wordpool_576.txt	LTP280	ltpFR2	2	5	DONKEY	484	n/a	n/a	0	0	0
1136.74	n/a	REC_WORD	568370	wordpools/wasnorm_wordpool_576.txt	LTP280	ltpFR2	2	5	FRAGRANCE	599	n/a	n/a	0	0	0
1138.026	n/a	REC_WORD	569013	wordpools/wasnorm_wordpool_576.txt	LTP280	ltpFR2	2	5	HOUND	724	n/a	n/a	0	0	0
1143.276	n/a	REC_WORD	571638	wordpools/wasnorm_wordpool_576.txt	LTP280	ltpFR2	2	5	TRACTOR	1493	n/a	n/a	0	0	0
1148.232	n/a	REC_WORD	574116	wordpools/wasnorm_wordpool_576.txt	LTP280	ltpFR2	2	5	ONION	977	n/a	n/a	0	0	0
1152.112	n/a	REC_WORD	576056	wordpools/wasnorm_wordpool_576.txt	LTP280	ltpFR2	2	5	PARSLEY	1016	n/a	n/a	0	0	0
1159.412	n/a	REC_WORD	579706	wordpools/wasnorm_wordpool_576.txt	LTP280	ltpFR2	2	5	MOTHER	921	n/a	n/a	0	0	0
1170.26	n/a	REC_WORD	585130	wordpools/wasnorm_wordpool_576.txt	LTP280	ltpFR2	2	5	PARENT	1013	n/a	n/a	0	0	0
1195.898	n/a	REC_WORD	597949	wordpools/wasnorm_wordpool_576.txt	LTP280	ltpFR2	2	5	GOBLIN	645	n/a	n/a	0	0	0
1284.2	n/a	WORD	642100	wordpools/wasnorm_wordpool_576.txt	LTP280	ltpFR2	2	6	GREASE	660	n/a	n/a	0	0	0
1286.636	n/a	WORD	643318	wordpools/wasnorm_wordpool_576.txt	LTP280	ltpFR2	2	6	HOOD	714	n/a	n/a	0	0	0
1289.254	n/a	WORD	644627	wordpools/wasnorm_wordpool_576.txt	LTP280	ltpFR2	2	6	MASK	876	n/a	n/a	0	0	0
1291.774	n/a	WORD	645887	wordpools/wasnorm_wordpool_576.txt	LTP280	ltpFR2	2	6	CHEST	295	n/a	n/a	0	0	0
1294.31	n/a	WORD	647155	wordpools/wasnorm_wordpool_576.txt	LTP280	ltpFR2	2	6	APRON	35	n/a	n/a	0	0	0
1296.878	n/a	WORD	648439	wordpools/wasnorm_wordpool_576.txt	LTP280	ltpFR2	2	6	GARLIC	624	n/a	n/a	0	0	0
1299.546	n/a	WORD	649773	wordpools/wasnorm_wordpool_576.txt	LTP280	ltpFR2	2	6	PEDAL	1037	n/a	n/a	0	0	0
1302.0	n/a	WORD	651000	wordpools/wasnorm_wordpool_576.txt	LTP280	ltpFR2	2	6	BIKE	125	n/a	n/a	0	0	0
1304.534	n/a	WORD	652267	wordpools/wasnorm_wordpool_576.txt	LTP280	ltpFR2	2	6	SPARROW	1347	n/a	n/a	0	0	0
1307.136	n/a	WORD	653568	wordpools/wasnorm_wordpool_576.txt	LTP280	ltpFR2	2	6	FLESH	579	n/a	n/a	0	0	0
1309.956	n/a	WORD	654978	wordpools/wasnorm_wordpool_576.txt	LTP280	ltpFR2	2	6	GIRL	637	n/a	n/a	0	0	0
1312.524	n/a	WORD	656262	wordpools/wasnorm_wordpool_576.txt	LTP280	ltpFR2	2	6	BALLOON	75	n/a	n/a	0	0	0
1315.06	n/a	WORD	657530	wordpools/wasnorm_wordpool_576.txt	LTP280	ltpFR2	2	6	LEOPARD	812	n/a	n/a	0	0	0
1317.612	n/a	WORD	658806	wordpools/wasnorm_wordpool_576.txt	LTP280	ltpFR2	2	6	DASHBOARD	441	n/a	n/a	0	0	0
1320.248	n/a	WORD	660124	wordpools/wasnorm_wordpool_576.txt	LTP280	ltpFR2	2	6	DUST	508	n/a	n/a	0	0	0
1322.782	n/a	WORD	661391	wordpools/wasnorm_wordpool_576.txt	LTP280	ltpFR2	2	6	PARSLEY	1016	n/a	n/a	0	0	0
1325.368	n/a	WORD	662684	wordpools/wasnorm_wordpool_576.txt	LTP280	ltpFR2	2	6	CUSTARD	429	n/a	n/a	0	0	0
1328.038	n/a	WORD	664019	wordpools/wasnorm_wordpool_576.txt	LTP280	ltpFR2	2	6	QUAIL	1147	n/a	n/a	0	0	0
1330.756	n/a	WORD	665378	wordpools/wasnorm_wordpool_576.txt	LTP280	ltpFR2	2	6	SUNSET	1408	n/a	n/a	0	0	0
1333.542	n/a	WORD	666771	wordpools/wasnorm_wordpool_576.txt	LTP280	ltpFR2	2	6	BRANCH	168	n/a	n/a	0	0	0
1336.362	n/a	WORD	668181	wordpools/wasnorm_wordpool_576.txt	LTP280	ltpFR2	2	6	LUMBER	848	n/a	n/a	0	0	0
1339.114	n/a	WORD	669557	wordpools/wasnorm_wordpool_576.txt	LTP280	ltpFR2	2	6	NURSE	963	n/a	n/a	0	0	0
1341.616	n/a	WORD	670808	wordpools/wasnorm_wordpool_576.txt	LTP280	ltpFR2	2	6	PUDDING	1139	n/a	n/a	0	0	0
1344.4	n/a	WORD	672200	wordpools/wasnorm_wordpool_576.txt	LTP280	ltpFR2	2	6	BREAST	171	n/a	n/a	0	0	0
1346.02	n/a	START	673010	n/a	LTP280	ltpFR2	2	n/a	n/a	n/a	8	n/a	n/a	n/a	n/a
1346.872	n/a	DISTRACTOR	673436	n/a	LTP280	ltpFR2	2	6	n/a	n/a	n/a	n/a	0	0	0
1346.888	n/a	PROB	673444	n/a	LTP280	ltpFR2	2	n/a	n/a	n/a	8	14	2	6	6
1348.856	n/a	PROB	674428	n/a	LTP280	ltpFR2	2	n/a	n/a	n/a	8	2	5	8	6
1350.558	n/a	PROB	675279	n/a	LTP280	ltpFR2	2	n/a	n/a	n/a	8	9	6	2	1
1351.592	n/a	PROB	675796	n/a	LTP280	ltpFR2	2	n/a	n/a	n/a	8	9	5	1	3
1352.626	n/a	PROB	676313	n/a	LTP280	ltpFR2	2	n/a	n/a	n/a	8	13	2	8	3
1353.71	n/a	PROB	676855	n/a	LTP280	ltpFR2	2	n/a	n/a	n/a	8	15	4	8	3
1356.078	n/a	PROB	678039	n/a	LTP280	ltpFR2	2	n/a	n/a	n/a	8	15	4	9	2
1357.428	n/a	PROB	678714	n/a	LTP280	ltpFR2	2	n/a	n/a	n/a	8	14	4	7	3
1358.814	n/a	PROB	679407	n/a	LTP280	ltpFR2	2	n/a	n/a	n/a	8	13	4	3	6
1360.282	n/a	PROB	680141	n/a	LTP280	ltpFR2	2	n/a	n/a	n/a	8	13	5	3	5
1361.65	n/a	PROB	680825	n/a	LTP280	ltpFR2	2	n/a	n/a	n/a	8	21	9	7	5
1363.252	n/a	PROB	681626	n/a	LTP280	ltpFR2	2	n/a	n/a	n/a	8	13	4	1	8
1364.37	n/a	PROB	682185	n/a	LTP280	ltpFR2	2	n/a	n/a	n/a	8	10	1	3	6
1365.434	n/a	PROB	682717	n/a	LTP280	ltpFR2	2	n/a	n/a	n/a	8	20	6	9	5
1368.288	n/a	PROB	684144	n/a	LTP280	ltpFR2	2	n/a	n/a	n/a	8	16	6	7	3
1369.614	n/a	STOP	684807	n/a	LTP280	ltpFR2	2	n/a	n/a	n/a	8	n/a	n/a	n/a	n/a
1371.924	n/a	REC_START	685962	n/a	LTP280	ltpFR2	2	6	n/a	n/a	n/a	n/a	0	0	0
1372.382	n/a	REC_WORD	686191	wordpools/wasnorm_wordpool_576.txt	LTP280	ltpFR2	2	6	PUDDING	1139	n/a	n/a	0	0	0
1373.34	n/a	REC_WORD	686670	wordpools/wasnorm_wordpool_576.txt	LTP280	ltpFR2	2	6	BREAST	171	n/a	n/a	0	0	0
1373.96	n/a	REC_WORD	686980	wordpools/wasnorm_wordpool_576.txt	LTP280	ltpFR2	2	6	MASK	876	n/a	n/a	0	0	0
1374.644	n/a	REC_WORD	687322	wordpools/wasnorm_wordpool_576.txt	LTP280	ltpFR2	2	6	GARLIC	624	n/a	n/a	0	0	0
1375.266	n/a	REC_WORD	687633	wordpools/wasnorm_wordpool_576.txt	LTP280	ltpFR2	2	6	CHEST	295	n/a	n/a	0	0	0
1383.34	n/a	REC_WORD	691670	wordpools/wasnorm_wordpool_576.txt	LTP280	ltpFR2	2	6	PARSLEY	1016	n/a	n/a	0	0	0
1401.914	n/a	REC_WORD	700957	wordpools/wasnorm_wordpool_576.txt	LTP280	ltpFR2	2	6	QUAIL	1147	n/a	n/a	0	0	0
1462.552	n/a	DISTRACTOR	731276	n/a	LTP280	ltpFR2	2	7	n/a	n/a	n/a	n/a	0	0	0
1462.552	n/a	START	731276	n/a	LTP280	ltpFR2	2	n/a	n/a	n/a	9	n/a	n/a	n/a	n/a
1462.586	n/a	PROB	731293	n/a	LTP280	ltpFR2	2	n/a	n/a	n/a	9	11	6	3	2
1464.102	n/a	PROB	732051	n/a	LTP280	ltpFR2	2	n/a	n/a	n/a	9	18	9	2	7
1465.486	n/a	PROB	732743	n/a	LTP280	ltpFR2	2	n/a	n/a	n/a	9	24	9	7	8
1467.106	n/a	PROB	733553	n/a	LTP280	ltpFR2	2	n/a	n/a	n/a	9	14	1	6	7
1468.156	n/a	PROB	734078	n/a	LTP280	ltpFR2	2	n/a	n/a	n/a	9	16	8	7	1
1469.358	n/a	PROB	734679	n/a	LTP280	ltpFR2	2	n/a	n/a	n/a	9	10	2	5	3
1471.292	n/a	PROB	735646	n/a	LTP280	ltpFR2	2	n/a	n/a	n/a	9	13	9	2	2
1472.744	n/a	PROB	736372	n/a	LTP280	ltpFR2	2	n/a	n/a	n/a	9	15	2	9	4
1474.044	n/a	PROB	737022	n/a	LTP280	ltpFR2	2	n/a	n/a	n/a	9	17	7	9	1
1475.212	n/a	PROB	737606	n/a	LTP280	ltpFR2	2	n/a	n/a	n/a	9	12	3	6	3
1476.314	n/a	PROB	738157	n/a	LTP280	ltpFR2	2	n/a	n/a	n/a	9	1	4	2	3
1477.748	n/a	PROB	738874	n/a	LTP280	ltpFR2	2	n/a	n/a	n/a	9	16	2	9	5
1479.116	n/a	PROB	739558	n/a	LTP280	ltpFR2	2	n/a	n/a	n/a	9	6	3	2	1
1480.234	n/a	PROB	740117	n/a	LTP280	ltpFR2	2	n/a	n/a	n/a	9	24	9	9	7
1481.752	n/a	PROB	740876	n/a	LTP280	ltpFR2	2	n/a	n/a	n/a	9	17	6	4	7
1482.82	n/a	PROB	741410	n/a	LTP280	ltpFR2	2	n/a	n/a	n/a	9	8	1	4	3
1483.854	n/a	PROB	741927	n/a	LTP280	ltpFR2	2	n/a	n/a	n/a	9	12	6	3	6
1484.97	n/a	PROB	742485	n/a	LTP280	ltpFR2	2	n/a	n/a	n/a	9	21	9	8	3
1486.352	n/a	STOP	743176	n/a	LTP280	ltpFR2	2	n/a	n/a	n/a	9	n/a	n/a	n/a	n/a
1487.438	n/a	WORD	743719	wordpools/wasnorm_wordpool_576.txt	LTP280	ltpFR2	2	7	VICTIM	1562	n/a	n/a	0	0	0
1490.276	n/a	WORD	745138	wordpools/wasnorm_wordpool_576.txt	LTP280	ltpFR2	2	7	DORM	488	n/a	n/a	0	0	0
1492.762	n/a	WORD	746381	wordpools/wasnorm_wordpool_576.txt	LTP280	ltpFR2	2	7	GRAVE	658	n/a	n/a	0	0	0
1495.596	n/a	WORD	747798	wordpools/wasnorm_wordpool_576.txt	LTP280	ltpFR2	2	7	WIDOW	1608	n/a	n/a	0	0	0
1498.432	n/a	WORD	749216	wordpools/wasnorm_wordpool_576.txt	LTP280	ltpFR2	2	7	TWEEZERS	1526	n/a	n/a	0	0	0
1500.884	n/a	WORD	750442	wordpools/wasnorm_wordpool_576.txt	LTP280	ltpFR2	2	7	THREAD	1460	n/a	n/a	0	0	0
1503.67	n/a	WORD	751835	wordpools/wasnorm_wordpool_576.txt	LTP280	ltpFR2	2	7	CRAYON	401	n/a	n/a	0	0	0
1506.122	n/a	WORD	753061	wordpools/wasnorm_wordpool_576.txt	LTP280	ltpFR2	2	7	PIGMENT	1066	n/a	n/a	0	0	0
1508.842	n/a	WORD	754421	wordpools/wasnorm_wordpool_576.txt	LTP280	ltpFR2	2	7	HOSTESS	723	n/a	n/a	0	0	0
1511.476	n/a	WORD	755738	wordpools/wasnorm_wordpool_576.txt	LTP280	ltpFR2	2	7	RATTLE	1170	n/a	n/a	0	0	0
1513.928	n/a	WORD	756964	wordpools/wasnorm_wordpool_576.txt	LTP280	ltpFR2	2	7	LEADER	807	n/a	n/a	0	0	0
1516.446	n/a	WORD	758223	wordpools/wasnorm_wordpool_576.txt	LTP280	ltpFR2	2	7	LACE	792	n/a	n/a	0	0	0
1518.982	n/a	WORD	759491	wordpools/wasnorm_wordpool_576.txt	LTP280	ltpFR2	2	7	LAMP	798	n/a	n/a	0	0	0
1521.602	n/a	WORD	760801	wordpools/wasnorm_wordpool_576.txt	LTP280	ltpFR2	2	7	MUSTARD	935	n/a	n/a	0	0	0
1524.42	n/a	WORD	762210	wordpools/wasnorm_wordpool_576.txt	LTP280	ltpFR2	2	7	PERFUME	1049	n/a	n/a	0	0	0
1526.906	n/a	WORD	763453	wordpools/wasnorm_wordpool_576.txt	LTP280	ltpFR2	2	7	POCKET	1093	n/a	n/a	0	0	0
1529.608	n/a	WORD	764804	wordpools/wasnorm_wordpool_576.txt	LTP280	ltpFR2	2	7	LIZARD	834	n/a	n/a	0	0	0
1532.128	n/a	WORD	766064	wordpools/wasnorm_wordpool_576.txt	LTP280	ltpFR2	2	7	CONCERT	360	n/a	n/a	0	0	0
1534.864	n/a	WORD	767432	wordpools/wasnorm_wordpool_576.txt	LTP280	ltpFR2	2	7	BUNNY	198	n/a	n/a	0	0	0
1537.414	n/a	WORD	768707	wordpools/wasnorm_wordpool_576.txt	LTP280	ltpFR2	2	7	TURTLE	1522	n/a	n/a	0	0	0
1540.002	n/a	WORD	770001	wordpools/wasnorm_wordpool_576.txt	LTP280	ltpFR2	2	7	FOREHEAD	592	n/a	n/a	0	0	0
1542.704	n/a	WORD	771352	wordpools/wasnorm_wordpool_576.txt	LTP280	ltpFR2	2	7	TUTU	1524	n/a	n/a	0	0	0
1545.29	n/a	WORD	772645	wordpools/wasnorm_wordpool_576.txt	LTP280	ltpFR2	2	7	CHURCH	307	n/a	n/a	0	0	0
1547.992	n/a	WORD	773996	wordpools/wasnorm_wordpool_576.txt	LTP280	ltpFR2	2	7	PLATE	1086	n/a	n/a	0	0	0
1549.61	n/a	START	774805	n/a	LTP280	ltpFR2	2	n/a	n/a	n/a	10	n/a	n/a	n/a	n/a
1550.498	n/a	DISTRACTOR	775249	n/a	LTP280	ltpFR2	2	7	n/a	n/a	n/a	n/a	0	0	0
1550.51	n/a	PROB	775255	n/a	LTP280	ltpFR2	2	n/a	n/a	n/a	10	15	2	5	8
1552.362	n/a	PROB	776181	n/a	LTP280	ltpFR2	2	n/a	n/a	n/a	10	15	8	6	1
1553.478	n/a	PROB	776739	n/a	LTP280	ltpFR2	2	n/a	n/a	n/a	10	5	2	1	2
1554.412	n/a	PROB	777206	n/a	LTP280	ltpFR2	2	n/a	n/a	n/a	10	14	3	5	6
1556.316	n/a	PROB	778158	n/a	LTP280	ltpFR2	2	n/a	n/a	n/a	10	16	4	7	5
1557.784	n/a	PROB	778892	n/a	LTP280	ltpFR2	2	n/a	n/a	n/a	10	13	1	4	8
1558.85	n/a	PROB	779425	n/a	LTP280	ltpFR2	2	n/a	n/a	n/a	10	12	7	4	1
1560.068	n/a	PROB	780034	n/a	LTP280	ltpFR2	2	n/a	n/a	n/a	10	9	1	7	1
1561.236	n/a	PROB	780618	n/a	LTP280	ltpFR2	2	n/a	n/a	n/a	10	13	1	7	4
1562.654	n/a	PROB	781327	n/a	LTP280	ltpFR2	2	n/a	n/a	n/a	10	23	9	8	5
1564.704	n/a	PROB	782352	n/a	LTP280	ltpFR2	2	n/a	n/a	n/a	10	9	4	1	4
1565.64	n/a	PROB	782820	n/a	LTP280	ltpFR2	2	n/a	n/a	n/a	10	16	7	3	6
1568.892	n/a	PROB	784446	n/a	LTP280	ltpFR2	2	n/a	n/a	n/a	10	3	1	1	1
1569.842	n/a	PROB	784921	n/a	LTP280	ltpFR2	2	n/a	n/a	n/a	10	9	1	1	7
1571.028	n/a	PROB	785514	n/a	LTP280	ltpFR2	2	n/a	n/a	n/a	10	15	6	7	2
1572.21	n/a	STOP	786105	n/a	LTP280	ltpFR2	2	n/a	n/a	n/a	10	n/a	n/a	n/a	n/a
1575.448	n/a	REC_START	787724	n/a	LTP280	ltpFR2	2	7	n/a	n/a	n/a	n/a	0	0	0
1575.692	n/a	REC_WORD	787846	wordpools/wasnorm_wordpool_576.txt	LTP280	ltpFR2	2	7	FOREHEAD	592	n/a	n/a	0	0	0
1576.536	n/a	REC_WORD	788268	wordpools/wasnorm_wordpool_576.txt	LTP280	ltpFR2	2	7	TUTU	1524	n/a	n/a	0	0	0
1577.238	n/a	REC_WORD	788619	wordpools/wasnorm_wordpool_576.txt	LTP280	ltpFR2	2	7	CHURCH	307	n/a	n/a	0	0	0
1577.996	n/a	REC_WORD	788998	wordpools/wasnorm_wordpool_576.txt	LTP280	ltpFR2	2	7	RATTLE	1170	n/a	n/a	0	0	0
1578.356	n/a	REC_WORD	789178	wordpools/wasnorm_wordpool_576.txt	LTP280	ltpFR2	2	7	SNAKE	1333	n/a	n/a	0	0	0
1583.224	n/a	REC_WORD	791612	wordpools/wasnorm_wordpool_576.txt	LTP280	ltpFR2	2	7	PARSLEY	1016	n/a	n/a	0	0	0
1585.632	n/a	REC_WORD	792816	wordpools/wasnorm_wordpool_576.txt	LTP280	ltpFR2	2	7	HOSTESS	723	n/a	n/a	0	0	0
1666.074	n/a	DISTRACTOR	833037	n/a	LTP280	ltpFR2	2	8	n/a	n/a	n/a	n/a	0	0	0
1666.074	n/a	START	833037	n/a	LTP280	ltpFR2	2	n/a	n/a	n/a	11	n/a	n/a	n/a	n/a
1666.108	n/a	PROB	833054	n/a	LTP280	ltpFR2	2	n/a	n/a	n/a	11	11	2	3	6
1667.642	n/a	PROB	833821	n/a	LTP280	ltpFR2	2	n/a	n/a	n/a	11	16	5	8	6
1668.86	n/a	PROB	834430	n/a	LTP280	ltpFR2	2	n/a	n/a	n/a	11	15	1	8	6
1670.294	n/a	PROB	835147	n/a	LTP280	ltpFR2	2	n/a	n/a	n/a	11	15	6	7	5
1671.762	n/a	PROB	835881	n/a	LTP280	ltpFR2	2	n/a	n/a	n/a	11	13	2	6	5
1673.348	n/a	PROB	836674	n/a	LTP280	ltpFR2	2	n/a	n/a	n/a	11	12	1	7	4
1674.532	n/a	PROB	837266	n/a	LTP280	ltpFR2	2	n/a	n/a	n/a	11	12	1	3	8
1675.582	n/a	PROB	837791	n/a	LTP280	ltpFR2	2	n/a	n/a	n/a	11	21	9	9	3
1676.868	n/a	PROB	838434	n/a	LTP280	ltpFR2	2	n/a	n/a	n/a	11	1	4	9	7
1679.536	n/a	PROB	839768	n/a	LTP280	ltpFR2	2	n/a	n/a	n/a	11	18	6	8	2
1681.254	n/a	PROB	840627	n/a	LTP280	ltpFR2	2	n/a	n/a	n/a	11	12	7	7	7
1682.356	n/a	PROB	841178	n/a	LTP280	ltpFR2	2	n/a	n/a	n/a	11	12	1	3	8
1683.756	n/a	PROB	841878	n/a	LTP280	ltpFR2	2	n/a	n/a	n/a	11	12	5	5	2
1684.974	n/a	PROB	842487	n/a	LTP280	ltpFR2	2	n/a	n/a	n/a	11	19	2	8	9
1686.626	n/a	PROB	843313	n/a	LTP280	ltpFR2	2	n/a	n/a	n/a	11	14	8	1	5
1687.876	n/a	PROB	843938	n/a	LTP280	ltpFR2	2	n/a	n/a	n/a	11	16	7	6	3
1689.284	n/a	STOP	844642	n/a	LTP280	ltpFR2	2	n/a	n/a	n/a	11	n/a	n/a	n/a	n/a
1691.03	n/a	WORD	845515	wordpools/wasnorm_wordpool_576.txt	LTP280	ltpFR2	2	8	MOP	916	n/a	n/a	0	0	0
1693.582	n/a	WORD	846791	wordpools/wasnorm_wordpool_576.txt	LTP280	ltpFR2	2	8	FILM	565	n/a	n/a	0	0	0
1696.4	n/a	WORD	848200	wordpools/wasnorm_wordpool_576.txt	LTP280	ltpFR2	2	8	ACTRESS	6	n/a	n/a	0	0	0
1699.02	n/a	WORD	849510	wordpools/wasnorm_wordpool_576.txt	LTP280	ltpFR2	2	8	MARINE	869	n/a	n/a	0	0	0
1701.588	n/a	WORD	850794	wordpools/wasnorm_wordpool_576.txt	LTP280	ltpFR2	2	8	PERCH	1048	n/a	n/a	0	0	0
1704.406	n/a	WORD	852203	wordpools/wasnorm_wordpool_576.txt	LTP280	ltpFR2	2	8	MARKET	871	n/a	n/a	0	0	0
1706.86	n/a	WORD	853430	wordpools/wasnorm_wordpool_576.txt	LTP280	ltpFR2	2	8	TRENCH	1503	n/a	n/a	0	0	0
1709.362	n/a	WORD	854681	wordpools/wasnorm_wordpool_576.txt	LTP280	ltpFR2	2	8	STONE	1385	n/a	n/a	0	0	0
1711.848	n/a	WORD	855924	wordpools/wasnorm_wordpool_576.txt	LTP280	ltpFR2	2	8	STATUE	1374	n/a	n/a	0	0	0
1714.6	n/a	WORD	857300	wordpools/wasnorm_wordpool_576.txt	LTP280	ltpFR2	2	8	TEACHER	1440	n/a	n/a	0	0	0
1717.118	n/a	WORD	858559	wordpools/wasnorm_wordpool_576.txt	LTP280	ltpFR2	2	8	PROTON	1132	n/a	n/a	0	0	0
1719.804	n/a	WORD	859902	wordpools/wasnorm_wordpool_576.txt	LTP280	ltpFR2	2	8	LAKE	796	n/a	n/a	0	0	0
1722.306	n/a	WORD	861153	wordpools/wasnorm_wordpool_576.txt	LTP280	ltpFR2	2	8	DIVER	476	n/a	n/a	0	0	0
1724.974	n/a	WORD	862487	wordpools/wasnorm_wordpool_576.txt	LTP280	ltpFR2	2	8	THIEF	1456	n/a	n/a	0	0	0
1727.51	n/a	WORD	863755	wordpools/wasnorm_wordpool_576.txt	LTP280	ltpFR2	2	8	NAPKIN	937	n/a	n/a	0	0	0
1730.312	n/a	WORD	865156	wordpools/wasnorm_wordpool_576.txt	LTP280	ltpFR2	2	8	BROTHER	179	n/a	n/a	0	0	0
1732.948	n/a	WORD	866474	wordpools/wasnorm_wordpool_576.txt	LTP280	ltpFR2	2	8	MARKER	870	n/a	n/a	0	0	0
1735.684	n/a	WORD	867842	wordpools/wasnorm_wordpool_576.txt	LTP280	ltpFR2	2	8	BLUEPRINT	142	n/a	n/a	0	0	0
1738.152	n/a	WORD	869076	wordpools/wasnorm_wordpool_576.txt	LTP280	ltpFR2	2	8	PLAZA	1088	n/a	n/a	0	0	0
1740.988	n/a	WORD	870494	wordpools/wasnorm_wordpool_576.txt	LTP280	ltpFR2	2	8	AWARD	63	n/a	n/a	0	0	0
1743.474	n/a	WORD	871737	wordpools/wasnorm_wordpool_576.txt	LTP280	ltpFR2	2	8	FOOT	590	n/a	n/a	0	0	0
1745.926	n/a	WORD	872963	wordpools/wasnorm_wordpool_576.txt	LTP280	ltpFR2	2	8	PLAYGROUND	1087	n/a	n/a	0	0	0
1748.528	n/a	WORD	874264	wordpools/wasnorm_wordpool_576.txt	LTP280	ltpFR2	2	8	EXPERT	543	n/a	n/a	0	0	0
1751.164	n/a	WORD	875582	wordpools/wasnorm_wordpool_576.txt	LTP280	ltpFR2	2	8	ISLAND	745	n/a	n/a	0	0	0
1752.766	n/a	START	876383	n/a	LTP280	ltpFR2	2	n/a	n/a	n/a	12	n/a	n/a	n/a	n/a
1753.594	n/a	DISTRACTOR	876797	n/a	LTP280	ltpFR2	2	8	n/a	n/a	n/a	n/a	0	0	0
1753.6	n/a	PROB	876800	n/a	LTP280	ltpFR2	2	n/a	n/a	n/a	12	15	2	8	5
1755.152	n/a	PROB	877576	n/a	LTP280	ltpFR2	2	n/a	n/a	n/a	12	25	8	9	9
1757.37	n/a	PROB	878685	n/a	LTP280	ltpFR2	2	n/a	n/a	n/a	12	15	8	4	3
1758.688	n/a	PROB	879344	n/a	LTP280	ltpFR2	2	n/a	n/a	n/a	12	15	6	2	7
1760.69	n/a	PROB	880345	n/a	LTP280	ltpFR2	2	n/a	n/a	n/a	12	21	6	8	8
1762.59	n/a	PROB	881295	n/a	LTP280	ltpFR2	2	n/a	n/a	n/a	12	26	8	9	8
1765.56	n/a	PROB	882780	n/a	LTP280	ltpFR2	2	n/a	n/a	n/a	12	19	8	5	6
1767.394	n/a	PROB	883697	n/a	LTP280	ltpFR2	2	n/a	n/a	n/a	12	11	3	5	3
1769.262	n/a	PROB	884631	n/a	LTP280	ltpFR2	2	n/a	n/a	n/a	12	7	2	2	3
1770.948	n/a	PROB	885474	n/a	LTP280	ltpFR2	2	n/a	n/a	n/a	12	12	5	5	2
1771.964	n/a	PROB	885982	n/a	LTP280	ltpFR2	2	n/a	n/a	n/a	12	19	6	8	5
1773.666	n/a	PROB	886833	n/a	LTP280	ltpFR2	2	n/a	n/a	n/a	12	16	7	7	2
1775.292	n/a	STOP	887646	n/a	LTP280	ltpFR2	2	n/a	n/a	n/a	12	n/a	n/a	n/a	n/a
1778.622	n/a	REC_START	889311	n/a	LTP280	ltpFR2	2	8	n/a	n/a	n/a	n/a	0	0	0
1778.76	n/a	REC_WORD	889380	wordpools/wasnorm_wordpool_576.txt	LTP280	ltpFR2	2	8	PLAYGROUND	1087	n/a	n/a	0	0	0
1779.484	n/a	REC_WORD_VV	889742	wordpools/wasnorm_wordpool_576.txt	LTP280	ltpFR2	2	8	<>	-1	n/a	n/a	0	0	0
1780.612	n/a	REC_WORD	890306	wordpools/wasnorm_wordpool_576.txt	LTP280	ltpFR2	2	8	EXPERT	543	n/a	n/a	0	0	0
1783.234	n/a	REC_WORD	891617	wordpools/wasnorm_wordpool_576.txt	LTP280	ltpFR2	2	8	BLUEPRINT	142	n/a	n/a	0	0	0
1786.92	n/a	REC_WORD	893460	wordpools/wasnorm_wordpool_576.txt	LTP280	ltpFR2	2	8	MARKER	870	n/a	n/a	0	0	0
1788.144	n/a	REC_WORD	894072	wordpools/wasnorm_wordpool_576.txt	LTP280	ltpFR2	2	8	AWARD	63	n/a	n/a	0	0	0
1789.778	n/a	REC_WORD	894889	wordpools/wasnorm_wordpool_576.txt	LTP280	ltpFR2	2	8	FILM	565	n/a	n/a	0	0	0
1790.552	n/a	REC_WORD	895276	wordpools/wasnorm_wordpool_576.txt	LTP280	ltpFR2	2	8	ACTRESS	6	n/a	n/a	0	0	0
1791.458	n/a	REC_WORD	895729	wordpools/wasnorm_wordpool_576.txt	LTP280	ltpFR2	2	8	PERCH	1048	n/a	n/a	0	0	0
1829.762	n/a	REC_WORD	914881	wordpools/wasnorm_wordpool_576.txt	LTP280	ltpFR2	2	8	PROTON	1132	n/a	n/a	0	0	0
1835.044	n/a	REC_WORD	917522	wordpools/wasnorm_wordpool_576.txt	LTP280	ltpFR2	2	8	UTAH	-1	n/a	n/a	0	0	0
1855.17	n/a	REST_REWET	927585	n/a	LTP280	ltpFR2	2	8	n/a	n/a	n/a	n/a	0	0	0
2043.212	n/a	DISTRACTOR	1021606	n/a	LTP280	ltpFR2	2	9	n/a	n/a	n/a	n/a	0	0	0
2043.212	n/a	START	1021606	n/a	LTP280	ltpFR2	2	n/a	n/a	n/a	13	n/a	n/a	n/a	n/a
2043.23	n/a	PROB	1021615	n/a	LTP280	ltpFR2	2	n/a	n/a	n/a	13	17	7	6	4
2045.098	n/a	PROB	1022549	n/a	LTP280	ltpFR2	2	n/a	n/a	n/a	13	13	7	1	5
2046.332	n/a	PROB	1023166	n/a	LTP280	ltpFR2	2	n/a	n/a	n/a	13	10	1	9	1
2047.634	n/a	PROB	1023817	n/a	LTP280	ltpFR2	2	n/a	n/a	n/a	13	19	6	5	8
2049.152	n/a	PROB	1024576	n/a	LTP280	ltpFR2	2	n/a	n/a	n/a	13	21	9	8	4
2050.87	n/a	PROB	1025435	n/a	LTP280	ltpFR2	2	n/a	n/a	n/a	13	11	2	2	7
2052.386	n/a	PROB	1026193	n/a	LTP280	ltpFR2	2	n/a	n/a	n/a	13	12	7	3	2
2053.47	n/a	PROB	1026735	n/a	LTP280	ltpFR2	2	n/a	n/a	n/a	13	18	4	9	5
2055.54	n/a	PROB	1027770	n/a	LTP280	ltpFR2	2	n/a	n/a	n/a	13	20	5	7	8
2056.79	n/a	PROB	1028395	n/a	LTP280	ltpFR2	2	n/a	n/a	n/a	13	10	4	2	4
2058.508	n/a	PROB	1029254	n/a	LTP280	ltpFR2	2	n/a	n/a	n/a	13	8	4	2	2
2059.544	n/a	PROB	1029772	n/a	LTP280	ltpFR2	2	n/a	n/a	n/a	13	16	6	8	2
2060.976	n/a	PROB	1030488	n/a	LTP280	ltpFR2	2	n/a	n/a	n/a	13	12	3	5	4
2062.612	n/a	PROB	1031306	n/a	LTP280	ltpFR2	2	n/a	n/a	n/a	13	18	7	2	9
2064.73	n/a	PROB	1032365	n/a	LTP280	ltpFR2	2	n/a	n/a	n/a	13	10	4	4	2
2065.738	n/a	STOP	1032869	n/a	LTP280	ltpFR2	2	n/a	n/a	n/a	13	n/a	n/a	n/a	n/a
2068.382	n/a	WORD	1034191	wordpools/wasnorm_wordpool_576.txt	LTP280	ltpFR2	2	9	SNAKE	1333	n/a	n/a	0	0	0
2071.152	n/a	WORD	1035576	wordpools/wasnorm_wordpool_576.txt	LTP280	ltpFR2	2	9	SANDWICH	1232	n/a	n/a	0	0	0
2073.804	n/a	WORD	1036902	wordpools/wasnorm_wordpool_576.txt	LTP280	ltpFR2	2	9	BUTCHER	203	n/a	n/a	0	0	0
2076.306	n/a	WORD	1038153	wordpools/wasnorm_wordpool_576.txt	LTP280	ltpFR2	2	9	LODGE	839	n/a	n/a	0	0	0
2078.96	n/a	WORD	1039480	wordpools/wasnorm_wordpool_576.txt	LTP280	ltpFR2	2	9	FOOTBALL	591	n/a	n/a	0	0	0
2081.578	n/a	WORD	1040789	wordpools/wasnorm_wordpool_576.txt	LTP280	ltpFR2	2	9	SUITCASE	1403	n/a	n/a	0	0	0
2084.08	n/a	WORD	1042040	wordpools/wasnorm_wordpool_576.txt	LTP280	ltpFR2	2	9	TURKEY	1520	n/a	n/a	0	0	0
2086.582	n/a	WORD	1043291	wordpools/wasnorm_wordpool_576.txt	LTP280	ltpFR2	2	9	POSTAGE	1113	n/a	n/a	0	0	0
2089.034	n/a	WORD	1044517	wordpools/wasnorm_wordpool_576.txt	LTP280	ltpFR2	2	9	MAILMAN	858	n/a	n/a	0	0	0
2091.654	n/a	WORD	1045827	wordpools/wasnorm_wordpool_576.txt	LTP280	ltpFR2	2	9	WHISTLE	1606	n/a	n/a	0	0	0
2094.09	n/a	WORD	1047045	wordpools/wasnorm_wordpool_576.txt	LTP280	ltpFR2	2	9	REPORT	1184	n/a	n/a	0	0	0
2096.892	n/a	WORD	1048446	wordpools/wasnorm_wordpool_576.txt	LTP280	ltpFR2	2	9	BRIEFCASE	175	n/a	n/a	0	0	0
2099.71	n/a	WORD	1049855	wordpools/wasnorm_wordpool_576.txt	LTP280	ltpFR2	2	9	PLUTO	1092	n/a	n/a	0	0	0
2102.262	n/a	WORD	1051131	wordpools/wasnorm_wordpool_576.txt	LTP280	ltpFR2	2	9	PEPPER	1047	n/a	n/a	0	0	0
2104.916	n/a	WORD	1052458	wordpools/wasnorm_wordpool_576.txt	LTP280	ltpFR2	2	9	PUPIL	1143	n/a	n/a	0	0	0
2107.568	n/a	WORD	1053784	wordpools/wasnorm_wordpool_576.txt	LTP280	ltpFR2	2	9	RABBIT	1152	n/a	n/a	0	0	0
2110.252	n/a	WORD	1055126	wordpools/wasnorm_wordpool_576.txt	LTP280	ltpFR2	2	9	FINGER	567	n/a	n/a	0	0	0
2112.804	n/a	WORD	1056402	wordpools/wasnorm_wordpool_576.txt	LTP280	ltpFR2	2	9	SISTER	1312	n/a	n/a	0	0	0
2115.44	n/a	WORD	1057720	wordpools/wasnorm_wordpool_576.txt	LTP280	ltpFR2	2	9	MOTEL	919	n/a	n/a	0	0	0
2117.958	n/a	WORD	1058979	wordpools/wasnorm_wordpool_576.txt	LTP280	ltpFR2	2	9	GIFT	635	n/a	n/a	0	0	0
2120.628	n/a	WORD	1060314	wordpools/wasnorm_wordpool_576.txt	LTP280	ltpFR2	2	9	BUG	187	n/a	n/a	0	0	0
2123.314	n/a	WORD	1061657	wordpools/wasnorm_wordpool_576.txt	LTP280	ltpFR2	2	9	CASHIER	254	n/a	n/a	0	0	0
2125.916	n/a	WORD	1062958	wordpools/wasnorm_wordpool_576.txt	LTP280	ltpFR2	2	9	CAFE	216	n/a	n/a	0	0	0
2128.702	n/a	WORD	1064351	wordpools/wasnorm_wordpool_576.txt	LTP280	ltpFR2	2	9	FLUTE	585	n/a	n/a	0	0	0
2130.32	n/a	START	1065160	n/a	LTP280	ltpFR2	2	n/a	n/a	n/a	14	n/a	n/a	n/a	n/a
2131.464	n/a	DISTRACTOR	1065732	n/a	LTP280	ltpFR2	2	9	n/a	n/a	n/a	n/a	0	0	0
2131.486	n/a	PROB	1065743	n/a	LTP280	ltpFR2	2	n/a	n/a	n/a	14	10	4	2	4
2132.622	n/a	PROB	1066311	n/a	LTP280	ltpFR2	2	n/a	n/a	n/a	14	16	2	7	7
2133.99	n/a	PROB	1066995	n/a	LTP280	ltpFR2	2	n/a	n/a	n/a	14	15	6	8	1
2135.24	n/a	PROB	1067620	n/a	LTP280	ltpFR2	2	n/a	n/a	n/a	14	16	5	6	5
2136.558	n/a	PROB	1068279	n/a	LTP280	ltpFR2	2	n/a	n/a	n/a	14	19	3	7	9
2137.71	n/a	PROB	1068855	n/a	LTP280	ltpFR2	2	n/a	n/a	n/a	14	15	4	8	3
2138.778	n/a	PROB	1069389	n/a	LTP280	ltpFR2	2	n/a	n/a	n/a	14	25	6	8	9
2141.146	n/a	PROB	1070573	n/a	LTP280	ltpFR2	2	n/a	n/a	n/a	14	24	8	6	9
2143.148	n/a	PROB	1071574	n/a	LTP280	ltpFR2	2	n/a	n/a	n/a	14	18	4	9	5
2146.968	n/a	PROB	1073484	n/a	LTP280	ltpFR2	2	n/a	n/a	n/a	14	8	5	1	2
2148.136	n/a	PROB	1074068	n/a	LTP280	ltpFR2	2	n/a	n/a	n/a	14	9	4	4	1
2149.386	n/a	PROB	1074693	n/a	LTP280	ltpFR2	2	n/a	n/a	n/a	14	13	3	2	8
2151.138	n/a	PROB	1075569	n/a	LTP280	ltpFR2	2	n/a	n/a	n/a	14	11	4	1	6
2152.122	n/a	PROB	1076061	n/a	LTP280	ltpFR2	2	n/a	n/a	n/a	14	21	5	6	9
2153.628	n/a	STOP	1076814	n/a	LTP280	ltpFR2	2	n/a	n/a	n/a	14	n/a	n/a	n/a	n/a
2156.16	n/a	REC_START	1078080	n/a	LTP280	ltpFR2	2	9	n/a	n/a	n/a	n/a	0	0	0
2156.49	n/a	REC_WORD	1078245	wordpools/wasnorm_wordpool_576.txt	LTP280	ltpFR2	2	9	CASHIER	254	n/a	n/a	0	0	0
2157.318	n/a	REC_WORD	1078659	wordpools/wasnorm_wordpool_576.txt	LTP280	ltpFR2	2	9	CAFE	216	n/a	n/a	0	0	0
2157.978	n/a	REC_WORD	1078989	wordpools/wasnorm_wordpool_576.txt	LTP280	ltpFR2	2	9	FLUTE	585	n/a	n/a	0	0	0
2159.382	n/a	REC_WORD	1079691	wordpools/wasnorm_wordpool_576.txt	LTP280	ltpFR2	2	9	SNAKE	1333	n/a	n/a	0	0	0
2160.2	n/a	REC_WORD	1080100	wordpools/wasnorm_wordpool_576.txt	LTP280	ltpFR2	2	9	SANDWICH	1232	n/a	n/a	0	0	0
2179.36	n/a	REC_WORD	1089680	wordpools/wasnorm_wordpool_576.txt	LTP280	ltpFR2	2	9	JUDGE	761	n/a	n/a	0	0	0
2269.47	n/a	DISTRACTOR	1134735	n/a	LTP280	ltpFR2	2	10	n/a	n/a	n/a	n/a	0	0	0
2269.47	n/a	START	1134735	n/a	LTP280	ltpFR2	2	n/a	n/a	n/a	15	n/a	n/a	n/a	n/a
2269.486	n/a	PROB	1134743	n/a	LTP280	ltpFR2	2	n/a	n/a	n/a	15	15	9	5	1
2270.738	n/a	PROB	1135369	n/a	LTP280	ltpFR2	2	n/a	n/a	n/a	15	14	2	3	9
2272.324	n/a	PROB	1136162	n/a	LTP280	ltpFR2	2	n/a	n/a	n/a	15	21	8	4	9
2273.758	n/a	PROB	1136879	n/a	LTP280	ltpFR2	2	n/a	n/a	n/a	15	15	3	4	8
2275.126	n/a	PROB	1137563	n/a	LTP280	ltpFR2	2	n/a	n/a	n/a	15	15	2	9	4
2277.044	n/a	PROB	1138522	n/a	LTP280	ltpFR2	2	n/a	n/a	n/a	15	18	4	8	6
2278.562	n/a	PROB	1139281	n/a	LTP280	ltpFR2	2	n/a	n/a	n/a	15	19	6	9	4
2280.08	n/a	PROB	1140040	n/a	LTP280	ltpFR2	2	n/a	n/a	n/a	15	12	6	4	2
2281.064	n/a	PROB	1140532	n/a	LTP280	ltpFR2	2	n/a	n/a	n/a	15	10	7	1	2
2282.098	n/a	PROB	1141049	n/a	LTP280	ltpFR2	2	n/a	n/a	n/a	15	16	3	7	6
2283.448	n/a	PROB	1141724	n/a	LTP280	ltpFR2	2	n/a	n/a	n/a	15	21	8	5	8
2285.168	n/a	PROB	1142584	n/a	LTP280	ltpFR2	2	n/a	n/a	n/a	15	27	8	9	8
2287.354	n/a	PROB	1143677	n/a	LTP280	ltpFR2	2	n/a	n/a	n/a	15	14	3	2	9
2288.622	n/a	PROB	1144311	n/a	LTP280	ltpFR2	2	n/a	n/a	n/a	15	17	5	7	5
2290.14	n/a	PROB	1145070	n/a	LTP280	ltpFR2	2	n/a	n/a	n/a	15	15	2	5	8
2291.524	n/a	PROB	1145762	n/a	LTP280	ltpFR2	2	n/a	n/a	n/a	15	4	1	1	2
2292.536	n/a	STOP	1146268	n/a	LTP280	ltpFR2	2	n/a	n/a	n/a	15	n/a	n/a	n/a	n/a
2294.492	n/a	WORD	1147246	wordpools/wasnorm_wordpool_576.txt	LTP280	ltpFR2	2	10	CASHEW	253	n/a	n/a	0	0	0
2296.946	n/a	WORD	1148473	wordpools/wasnorm_wordpool_576.txt	LTP280	ltpFR2	2	10	PEANUT	1032	n/a	n/a	0	0	0
2299.748	n/a	WORD	1149874	wordpools/wasnorm_wordpool_576.txt	LTP280	ltpFR2	2	10	SCULPTURE	1258	n/a	n/a	0	0	0
2302.498	n/a	WORD	1151249	wordpools/wasnorm_wordpool_576.txt	LTP280	ltpFR2	2	10	PISTOL	1075	n/a	n/a	0	0	0
2305.102	n/a	WORD	1152551	wordpools/wasnorm_wordpool_576.txt	LTP280	ltpFR2	2	10	BEAKER	104	n/a	n/a	0	0	0
2307.688	n/a	WORD	1153844	wordpools/wasnorm_wordpool_576.txt	LTP280	ltpFR2	2	10	CARROT	249	n/a	n/a	0	0	0
2310.422	n/a	WORD	1155211	wordpools/wasnorm_wordpool_576.txt	LTP280	ltpFR2	2	10	RADISH	1158	n/a	n/a	0	0	0
2312.958	n/a	WORD	1156479	wordpools/wasnorm_wordpool_576.txt	LTP280	ltpFR2	2	10	COOKBOOK	373	n/a	n/a	0	0	0
2315.726	n/a	WORD	1157863	wordpools/wasnorm_wordpool_576.txt	LTP280	ltpFR2	2	10	COWBOY	395	n/a	n/a	0	0	0
2318.462	n/a	WORD	1159231	wordpools/wasnorm_wordpool_576.txt	LTP280	ltpFR2	2	10	COIN	343	n/a	n/a	0	0	0
2321.282	n/a	WORD	1160641	wordpools/wasnorm_wordpool_576.txt	LTP280	ltpFR2	2	10	LUNCH	849	n/a	n/a	0	0	0
2323.934	n/a	WORD	1161967	wordpools/wasnorm_wordpool_576.txt	LTP280	ltpFR2	2	10	GYMNAST	675	n/a	n/a	0	0	0
2326.604	n/a	WORD	1163302	wordpools/wasnorm_wordpool_576.txt	LTP280	ltpFR2	2	10	CLAMP	316	n/a	n/a	0	0	0
2329.322	n/a	WORD	1164661	wordpools/wasnorm_wordpool_576.txt	LTP280	ltpFR2	2	10	EAGLE	512	n/a	n/a	0	0	0
2331.808	n/a	WORD	1165904	wordpools/wasnorm_wordpool_576.txt	LTP280	ltpFR2	2	10	RIVER	1194	n/a	n/a	0	0	0
2334.46	n/a	WORD	1167230	wordpools/wasnorm_wordpool_576.txt	LTP280	ltpFR2	2	10	DIME	466	n/a	n/a	0	0	0
2337.196	n/a	WORD	1168598	wordpools/wasnorm_wordpool_576.txt	LTP280	ltpFR2	2	10	COUNTY	389	n/a	n/a	0	0	0
2339.698	n/a	WORD	1169849	wordpools/wasnorm_wordpool_576.txt	LTP280	ltpFR2	2	10	BADGE	68	n/a	n/a	0	0	0
2342.15	n/a	WORD	1171075	wordpools/wasnorm_wordpool_576.txt	LTP280	ltpFR2	2	10	GANGSTER	620	n/a	n/a	0	0	0
2344.718	n/a	WORD	1172359	wordpools/wasnorm_wordpool_576.txt	LTP280	ltpFR2	2	10	STOVE	1388	n/a	n/a	0	0	0
2347.154	n/a	WORD	1173577	wordpools/wasnorm_wordpool_576.txt	LTP280	ltpFR2	2	10	KLEENEX	782	n/a	n/a	0	0	0
2349.874	n/a	WORD	1174937	wordpools/wasnorm_wordpool_576.txt	LTP280	ltpFR2	2	10	BOARD	143	n/a	n/a	0	0	0
2352.642	n/a	WORD	1176321	wordpools/wasnorm_wordpool_576.txt	LTP280	ltpFR2	2	10	SERVER	1272	n/a	n/a	0	0	0
2355.394	n/a	WORD	1177697	wordpools/wasnorm_wordpool_576.txt	LTP280	ltpFR2	2	10	SEAL	1262	n/a	n/a	0	0	0
2357.014	n/a	START	1178507	n/a	LTP280	ltpFR2	2	n/a	n/a	n/a	16	n/a	n/a	n/a	n/a
2357.892	n/a	DISTRACTOR	1178946	n/a	LTP280	ltpFR2	2	10	n/a	n/a	n/a	n/a	0	0	0
2357.912	n/a	PROB	1178956	n/a	LTP280	ltpFR2	2	n/a	n/a	n/a	16	20	6	6	8
2359.932	n/a	PROB	1179966	n/a	LTP280	ltpFR2	2	n/a	n/a	n/a	16	15	7	1	6
2361.432	n/a	PROB	1180716	n/a	LTP280	ltpFR2	2	n/a	n/a	n/a	16	21	9	3	9
2362.884	n/a	PROB	1181442	n/a	LTP280	ltpFR2	2	n/a	n/a	n/a	16	14	6	6	2
2364.252	n/a	PROB	1182126	n/a	LTP280	ltpFR2	2	n/a	n/a	n/a	16	13	1	3	9
2365.302	n/a	PROB	1182651	n/a	LTP280	ltpFR2	2	n/a	n/a	n/a	16	14	1	7	6
2366.904	n/a	PROB	1183452	n/a	LTP280	ltpFR2	2	n/a	n/a	n/a	16	10	1	6	3
2368.038	n/a	PROB	1184019	n/a	LTP280	ltpFR2	2	n/a	n/a	n/a	16	17	6	4	7
2369.422	n/a	PROB	1184711	n/a	LTP280	ltpFR2	2	n/a	n/a	n/a	16	11	2	7	2
2370.74	n/a	PROB	1185370	n/a	LTP280	ltpFR2	2	n/a	n/a	n/a	16	10	3	2	5
2372.176	n/a	PROB	1186088	n/a	LTP280	ltpFR2	2	n/a	n/a	n/a	16	19	2	8	9
2373.458	n/a	PROB	1186729	n/a	LTP280	ltpFR2	2	n/a	n/a	n/a	16	20	4	9	7
2376.562	n/a	PROB	1188281	n/a	LTP280	ltpFR2	2	n/a	n/a	n/a	16	11	6	1	4
2377.564	n/a	PROB	1188782	n/a	LTP280	ltpFR2	2	n/a	n/a	n/a	16	10	3	2	5
2379.114	n/a	PROB	1189557	n/a	LTP280	ltpFR2	2	n/a	n/a	n/a	16	14	6	4	4
2379.992	n/a	STOP	1189996	n/a	LTP280	ltpFR2	2	n/a	n/a	n/a	16	n/a	n/a	n/a	n/a
2382.968	n/a	REC_START	1191484	n/a	LTP280	ltpFR2	2	10	n/a	n/a	n/a	n/a	0	0	0
2383.174	n/a	REC_WORD	1191587	wordpools/wasnorm_wordpool_576.txt	LTP280	ltpFR2	2	10	GANGSTER	620	n/a	n/a	0	0	0
2383.736	n/a	REC_WORD	1191868	wordpools/wasnorm_wordpool_576.txt	LTP280	ltpFR2	2	10	STOVE	1388	n/a	n/a	0	0	0
2384.266	n/a	REC_WORD	1192133	wordpools/wasnorm_wordpool_576.txt	LTP280	ltpFR2	2	10	CLEANUP	-1	n/a	n/a	0	0	0
2384.976	n/a	REC_WORD	1192488	wordpools/wasnorm_wordpool_576.txt	LTP280	ltpFR2	2	10	COUNTY	389	n/a	n/a	0	0	0
2385.688	n/a	REC_WORD	1192844	wordpools/wasnorm_wordpool_576.txt	LTP280	ltpFR2	2	10	BADGE	68	n/a	n/a	0	0	0
2387.744	n/a	REC_WORD	1193872	wordpools/wasnorm_wordpool_576.txt	LTP280	ltpFR2	2	10	COOKBOOK	373	n/a	n/a	0	0	0
2389.722	n/a	REC_WORD	1194861	wordpools/wasnorm_wordpool_576.txt	LTP280	ltpFR2	2	10	COWBOY	395	n/a	n/a	0	0	0
2391.32	n/a	REC_WORD	1195660	wordpools/wasnorm_wordpool_576.txt	LTP280	ltpFR2	2	10	RADISH	1158	n/a	n/a	0	0	0
2392.104	n/a	REC_WORD	1196052	wordpools/wasnorm_wordpool_576.txt	LTP280	ltpFR2	2	10	CARROT	249	n/a	n/a	0	0	0
2392.696	n/a	REC_WORD	1196348	wordpools/wasnorm_wordpool_576.txt	LTP280	ltpFR2	2	10	CASHEW	253	n/a	n/a	0	0	0
2393.428	n/a	REC_WORD	1196714	wordpools/wasnorm_wordpool_576.txt	LTP280	ltpFR2	2	10	PEANUT	1032	n/a	n/a	0	0	0
2473.594	n/a	WORD	1236797	wordpools/wasnorm_wordpool_576.txt	LTP280	ltpFR2	2	11	RECORD	1176	n/a	n/a	0	0	0
2476.314	n/a	WORD	1238157	wordpools/wasnorm_wordpool_576.txt	LTP280	ltpFR2	2	11	HELMET	702	n/a	n/a	0	0	0
2478.866	n/a	WORD	1239433	wordpools/wasnorm_wordpool_576.txt	LTP280	ltpFR2	2	11	BLOCKADE	137	n/a	n/a	0	0	0
2481.652	n/a	WORD	1240826	wordpools/wasnorm_wordpool_576.txt	LTP280	ltpFR2	2	11	BRAKE	166	n/a	n/a	0	0	0
2484.338	n/a	WORD	1242169	wordpools/wasnorm_wordpool_576.txt	LTP280	ltpFR2	2	11	PRINCE	1124	n/a	n/a	0	0	0
2486.79	n/a	WORD	1243395	wordpools/wasnorm_wordpool_576.txt	LTP280	ltpFR2	2	11	AIRPLANE	12	n/a	n/a	0	0	0
2489.508	n/a	WORD	1244754	wordpools/wasnorm_wordpool_576.txt	LTP280	ltpFR2	2	11	SHARK	1275	n/a	n/a	0	0	0
2492.212	n/a	WORD	1246106	wordpools/wasnorm_wordpool_576.txt	LTP280	ltpFR2	2	11	LONDON	843	n/a	n/a	0	0	0
2494.78	n/a	WORD	1247390	wordpools/wasnorm_wordpool_576.txt	LTP280	ltpFR2	2	11	RUG	1215	n/a	n/a	0	0	0
2497.6	n/a	WORD	1248800	wordpools/wasnorm_wordpool_576.txt	LTP280	ltpFR2	2	11	SPIDER	1351	n/a	n/a	0	0	0
2500.302	n/a	WORD	1250151	wordpools/wasnorm_wordpool_576.txt	LTP280	ltpFR2	2	11	PREACHER	1119	n/a	n/a	0	0	0
2503.038	n/a	WORD	1251519	wordpools/wasnorm_wordpool_576.txt	LTP280	ltpFR2	2	11	HUSBAND	728	n/a	n/a	0	0	0
2505.84	n/a	WORD	1252920	wordpools/wasnorm_wordpool_576.txt	LTP280	ltpFR2	2	11	SWAMP	1416	n/a	n/a	0	0	0
2508.34	n/a	WORD	1254170	wordpools/wasnorm_wordpool_576.txt	LTP280	ltpFR2	2	11	CANAL	226	n/a	n/a	0	0	0
2511.076	n/a	WORD	1255538	wordpools/wasnorm_wordpool_576.txt	LTP280	ltpFR2	2	11	SPACE	1345	n/a	n/a	0	0	0
2513.662	n/a	WORD	1256831	wordpools/wasnorm_wordpool_576.txt	LTP280	ltpFR2	2	11	SLOPE	1328	n/a	n/a	0	0	0
2516.23	n/a	WORD	1258115	wordpools/wasnorm_wordpool_576.txt	LTP280	ltpFR2	2	11	CRATER	400	n/a	n/a	0	0	0
2518.816	n/a	WORD	1259408	wordpools/wasnorm_wordpool_576.txt	LTP280	ltpFR2	2	11	TROUT	1511	n/a	n/a	0	0	0
2521.302	n/a	WORD	1260651	wordpools/wasnorm_wordpool_576.txt	LTP280	ltpFR2	2	11	STAR	1373	n/a	n/a	0	0	0
2523.82	n/a	WORD	1261910	wordpools/wasnorm_wordpool_576.txt	LTP280	ltpFR2	2	11	INFANT	737	n/a	n/a	0	0	0
2526.406	n/a	WORD	1263203	wordpools/wasnorm_wordpool_576.txt	LTP280	ltpFR2	2	11	ROBBER	1197	n/a	n/a	0	0	0
2529.176	n/a	WORD	1264588	wordpools/wasnorm_wordpool_576.txt	LTP280	ltpFR2	2	11	HIGHWAY	707	n/a	n/a	0	0	0
2531.678	n/a	WORD	1265839	wordpools/wasnorm_wordpool_576.txt	LTP280	ltpFR2	2	11	SMOG	1330	n/a	n/a	0	0	0
2534.496	n/a	WORD	1267248	wordpools/wasnorm_wordpool_576.txt	LTP280	ltpFR2	2	11	MISSILE	900	n/a	n/a	0	0	0
2536.116	n/a	START	1268058	n/a	LTP280	ltpFR2	2	n/a	n/a	n/a	17	n/a	n/a	n/a	n/a
2537.238	n/a	DISTRACTOR	1268619	n/a	LTP280	ltpFR2	2	11	n/a	n/a	n/a	n/a	0	0	0
2537.25	n/a	PROB	1268625	n/a	LTP280	ltpFR2	2	n/a	n/a	n/a	17	13	1	6	6
2538.366	n/a	PROB	1269183	n/a	LTP280	ltpFR2	2	n/a	n/a	n/a	17	11	5	5	1
2539.318	n/a	PROB	1269659	n/a	LTP280	ltpFR2	2	n/a	n/a	n/a	17	19	8	2	9
2540.718	n/a	PROB	1270359	n/a	LTP280	ltpFR2	2	n/a	n/a	n/a	17	25	8	9	6
2542.236	n/a	PROB	1271118	n/a	LTP280	ltpFR2	2	n/a	n/a	n/a	17	23	6	9	8
2544.454	n/a	PROB	1272227	n/a	LTP280	ltpFR2	2	n/a	n/a	n/a	17	8	1	2	5
2545.522	n/a	PROB	1272761	n/a	LTP280	ltpFR2	2	n/a	n/a	n/a	17	25	8	9	6
2546.924	n/a	PROB	1273462	n/a	LTP280	ltpFR2	2	n/a	n/a	n/a	17	10	1	8	1
2547.926	n/a	PROB	1273963	n/a	LTP280	ltpFR2	2	n/a	n/a	n/a	17	19	4	2	3
2549.676	n/a	PROB	1274838	n/a	LTP280	ltpFR2	2	n/a	n/a	n/a	17	16	7	8	1
2550.878	n/a	PROB	1275439	n/a	LTP280	ltpFR2	2	n/a	n/a	n/a	17	9	2	2	5
2552.312	n/a	PROB	1276156	n/a	LTP280	ltpFR2	2	n/a	n/a	n/a	17	17	8	4	5
2553.58	n/a	PROB	1276790	n/a	LTP280	ltpFR2	2	n/a	n/a	n/a	17	9	4	4	1
2554.496	n/a	PROB	1277248	n/a	LTP280	ltpFR2	2	n/a	n/a	n/a	17	153	6	3	7
2557.8	n/a	PROB	1278900	n/a	LTP280	ltpFR2	2	n/a	n/a	n/a	17	15	7	2	6
2559.172	n/a	STOP	1279586	n/a	LTP280	ltpFR2	2	n/a	n/a	n/a	17	n/a	n/a	n/a	n/a
2561.904	n/a	REC_START	1280952	n/a	LTP280	ltpFR2	2	11	n/a	n/a	n/a	n/a	0	0	0
2562.158	n/a	REC_WORD	1281079	wordpools/wasnorm_wordpool_576.txt	LTP280	ltpFR2	2	11	INFANT	737	n/a	n/a	0	0	0
2562.654	n/a	REC_WORD	1281327	wordpools/wasnorm_wordpool_576.txt	LTP280	ltpFR2	2	11	SMOG	1330	n/a	n/a	0	0	0
2564.018	n/a	REC_WORD	1282009	wordpools/wasnorm_wordpool_576.txt	LTP280	ltpFR2	2	11	MISSILE	900	n/a	n/a	0	0	0
2564.814	n/a	REC_WORD	1282407	wordpools/wasnorm_wordpool_576.txt	LTP280	ltpFR2	2	11	CRATER	400	n/a	n/a	0	0	0
2565.742	n/a	REC_WORD	1282871	wordpools/wasnorm_wordpool_576.txt	LTP280	ltpFR2	2	11	SLOPE	1328	n/a	n/a	0	0	0
2573.986	n/a	REC_WORD	1286993	wordpools/wasnorm_wordpool_576.txt	LTP280	ltpFR2	2	11	CANAL	226	n/a	n/a	0	0	0
2600.296	n/a	REC_WORD	1300148	wordpools/wasnorm_wordpool_576.txt	LTP280	ltpFR2	2	11	HELMET	702	n/a	n/a	0	0	0
2601.256	n/a	REC_WORD	1300628	wordpools/wasnorm_wordpool_576.txt	LTP280	ltpFR2	2	11	BARRICADE	-1	n/a	n/a	0	0	0
2602.93	n/a	REC_WORD	1301465	wordpools/wasnorm_wordpool_576.txt	LTP280	ltpFR2	2	11	RECORD	1176	n/a	n/a	0	0	0
2606.27	n/a	REC_WORD	1303135	wordpools/wasnorm_wordpool_576.txt	LTP280	ltpFR2	2	11	LONDON	843	n/a	n/a	0	0	0
2609.072	n/a	REC_WORD	1304536	wordpools/wasnorm_wordpool_576.txt	LTP280	ltpFR2	2	11	FOG	-1	n/a	n/a	0	0	0
2652.548	n/a	DISTRACTOR	1326274	n/a	LTP280	ltpFR2	2	12	n/a	n/a	n/a	n/a	0	0	0
2652.548	n/a	START	1326274	n/a	LTP280	ltpFR2	2	n/a	n/a	n/a	18	n/a	n/a	n/a	n/a
2652.58	n/a	PROB	1326290	n/a	LTP280	ltpFR2	2	n/a	n/a	n/a	18	10	4	3	3
2653.932	n/a	PROB	1326966	n/a	LTP280	ltpFR2	2	n/a	n/a	n/a	18	22	5	9	7
2655.832	n/a	PROB	1327916	n/a	LTP280	ltpFR2	2	n/a	n/a	n/a	18	13	1	5	7
2657.534	n/a	PROB	1328767	n/a	LTP280	ltpFR2	2	n/a	n/a	n/a	18	21	7	6	9
2659.368	n/a	PROB	1329684	n/a	LTP280	ltpFR2	2	n/a	n/a	n/a	18	15	3	5	7
2661.138	n/a	PROB	1330569	n/a	LTP280	ltpFR2	2	n/a	n/a	n/a	18	20	7	6	7
2663.14	n/a	PROB	1331570	n/a	LTP280	ltpFR2	2	n/a	n/a	n/a	18	12	2	4	6
2664.456	n/a	PROB	1332228	n/a	LTP280	ltpFR2	2	n/a	n/a	n/a	18	9	3	2	4
2665.858	n/a	PROB	1332929	n/a	LTP280	ltpFR2	2	n/a	n/a	n/a	18	8	4	1	3
2666.942	n/a	PROB	1333471	n/a	LTP280	ltpFR2	2	n/a	n/a	n/a	18	15	6	6	3
2668.16	n/a	PROB	1334080	n/a	LTP280	ltpFR2	2	n/a	n/a	n/a	18	15	8	4	3
2669.41	n/a	PROB	1334705	n/a	LTP280	ltpFR2	2	n/a	n/a	n/a	18	21	5	8	8
2670.78	n/a	PROB	1335390	n/a	LTP280	ltpFR2	2	n/a	n/a	n/a	18	8	4	1	3
2671.73	n/a	PROB	1335865	n/a	LTP280	ltpFR2	2	n/a	n/a	n/a	18	7	4	2	1
2672.98	n/a	PROB	1336490	n/a	LTP280	ltpFR2	2	n/a	n/a	n/a	18	5	2	1	2
2673.932	n/a	PROB	1336966	n/a	LTP280	ltpFR2	2	n/a	n/a	n/a	18	14	4	7	3
2675.31	n/a	STOP	1337655	n/a	LTP280	ltpFR2	2	n/a	n/a	n/a	18	n/a	n/a	n/a	n/a
2677.618	n/a	WORD	1338809	wordpools/wasnorm_wordpool_576.txt	LTP280	ltpFR2	2	12	FRIEND	606	n/a	n/a	0	0	0
2680.07	n/a	WORD	1340035	wordpools/wasnorm_wordpool_576.txt	LTP280	ltpFR2	2	12	BUCKET	184	n/a	n/a	0	0	0
2682.806	n/a	WORD	1341403	wordpools/wasnorm_wordpool_576.txt	LTP280	ltpFR2	2	12	EYELASH	546	n/a	n/a	0	0	0
2685.424	n/a	WORD	1342712	wordpools/wasnorm_wordpool_576.txt	LTP280	ltpFR2	2	12	VALVE	1546	n/a	n/a	0	0	0
2687.878	n/a	WORD	1343939	wordpools/wasnorm_wordpool_576.txt	LTP280	ltpFR2	2	12	CANYON	235	n/a	n/a	0	0	0
2690.428	n/a	WORD	1345214	wordpools/wasnorm_wordpool_576.txt	LTP280	ltpFR2	2	12	STREAM	1392	n/a	n/a	0	0	0
2693.132	n/a	WORD	1346566	wordpools/wasnorm_wordpool_576.txt	LTP280	ltpFR2	2	12	MONEY	908	n/a	n/a	0	0	0
2695.768	n/a	WORD	1347884	wordpools/wasnorm_wordpool_576.txt	LTP280	ltpFR2	2	12	CHAMPAGNE	278	n/a	n/a	0	0	0
2698.22	n/a	WORD	1349110	wordpools/wasnorm_wordpool_576.txt	LTP280	ltpFR2	2	12	NOMAD	955	n/a	n/a	0	0	0
2700.856	n/a	WORD	1350428	wordpools/wasnorm_wordpool_576.txt	LTP280	ltpFR2	2	12	BANJO	82	n/a	n/a	0	0	0
2703.524	n/a	WORD	1351762	wordpools/wasnorm_wordpool_576.txt	LTP280	ltpFR2	2	12	SHELTER	1282	n/a	n/a	0	0	0
2706.142	n/a	WORD	1353071	wordpools/wasnorm_wordpool_576.txt	LTP280	ltpFR2	2	12	FLASHLIGHT	575	n/a	n/a	0	0	0
2708.694	n/a	WORD	1354347	wordpools/wasnorm_wordpool_576.txt	LTP280	ltpFR2	2	12	LASER	801	n/a	n/a	0	0	0
2711.164	n/a	WORD	1355582	wordpools/wasnorm_wordpool_576.txt	LTP280	ltpFR2	2	12	HATCHET	691	n/a	n/a	0	0	0
2713.682	n/a	WORD	1356841	wordpools/wasnorm_wordpool_576.txt	LTP280	ltpFR2	2	12	BASEMENT	94	n/a	n/a	0	0	0
2716.252	n/a	WORD	1358126	wordpools/wasnorm_wordpool_576.txt	LTP280	ltpFR2	2	12	KEEPER	769	n/a	n/a	0	0	0
2719.004	n/a	WORD	1359502	wordpools/wasnorm_wordpool_576.txt	LTP280	ltpFR2	2	12	PLASTER	1085	n/a	n/a	0	0	0
2721.572	n/a	WORD	1360786	wordpools/wasnorm_wordpool_576.txt	LTP280	ltpFR2	2	12	BRICK	172	n/a	n/a	0	0	0
2724.124	n/a	WORD	1362062	wordpools/wasnorm_wordpool_576.txt	LTP280	ltpFR2	2	12	KITCHEN	778	n/a	n/a	0	0	0
2726.576	n/a	WORD	1363288	wordpools/wasnorm_wordpool_576.txt	LTP280	ltpFR2	2	12	IDOL	733	n/a	n/a	0	0	0
2729.178	n/a	WORD	1364589	wordpools/wasnorm_wordpool_576.txt	LTP280	ltpFR2	2	12	HEART	697	n/a	n/a	0	0	0
2731.732	n/a	WORD	1365866	wordpools/wasnorm_wordpool_576.txt	LTP280	ltpFR2	2	12	MISTER	901	n/a	n/a	0	0	0
2734.366	n/a	WORD	1367183	wordpools/wasnorm_wordpool_576.txt	LTP280	ltpFR2	2	12	MAILBOX	857	n/a	n/a	0	0	0
2736.886	n/a	WORD	1368443	wordpools/wasnorm_wordpool_576.txt	LTP280	ltpFR2	2	12	PACKAGE	997	n/a	n/a	0	0	0
2738.504	n/a	START	1369252	n/a	LTP280	ltpFR2	2	n/a	n/a	n/a	19	n/a	n/a	n/a	n/a
2739.674	n/a	DISTRACTOR	1369837	n/a	LTP280	ltpFR2	2	12	n/a	n/a	n/a	n/a	0	0	0
2739.688	n/a	PROB	1369844	n/a	LTP280	ltpFR2	2	n/a	n/a	n/a	19	13	5	6	2
2741.04	n/a	PROB	1370520	n/a	LTP280	ltpFR2	2	n/a	n/a	n/a	19	15	4	4	7
2742.658	n/a	PROB	1371329	n/a	LTP280	ltpFR2	2	n/a	n/a	n/a	19	17	4	8	5
2744.126	n/a	PROB	1372063	n/a	LTP280	ltpFR2	2	n/a	n/a	n/a	19	14	9	3	2
2745.71	n/a	PROB	1372855	n/a	LTP280	ltpFR2	2	n/a	n/a	n/a	19	11	2	1	8
2746.66	n/a	PROB	1373330	n/a	LTP280	ltpFR2	2	n/a	n/a	n/a	19	22	7	8	7
2748.462	n/a	PROB	1374231	n/a	LTP280	ltpFR2	2	n/a	n/a	n/a	19	15	5	2	8
2749.664	n/a	PROB	1374832	n/a	LTP280	ltpFR2	2	n/a	n/a	n/a	19	23	7	9	8
2751.264	n/a	PROB	1375632	n/a	LTP280	ltpFR2	2	n/a	n/a	n/a	19	15	5	1	9
2752.382	n/a	PROB	1376191	n/a	LTP280	ltpFR2	2	n/a	n/a	n/a	19	22	8	5	9
2753.95	n/a	PROB	1376975	n/a	LTP280	ltpFR2	2	n/a	n/a	n/a	19	21	7	8	4
2756.268	n/a	PROB	1378134	n/a	LTP280	ltpFR2	2	n/a	n/a	n/a	19	16	3	7	6
2757.402	n/a	PROB	1378701	n/a	LTP280	ltpFR2	2	n/a	n/a	n/a	19	17	6	5	6
2758.754	n/a	PROB	1379377	n/a	LTP280	ltpFR2	2	n/a	n/a	n/a	19	22	8	9	5
2760.188	n/a	PROB	1380094	n/a	LTP280	ltpFR2	2	n/a	n/a	n/a	19	12	7	4	1
2761.232	n/a	STOP	1380616	n/a	LTP280	ltpFR2	2	n/a	n/a	n/a	19	n/a	n/a	n/a	n/a
2764.408	n/a	REC_START	1382204	n/a	LTP280	ltpFR2	2	12	n/a	n/a	n/a	n/a	0	0	0
2764.674	n/a	REC_WORD	1382337	wordpools/wasnorm_wordpool_576.txt	LTP280	ltpFR2	2	12	FLASHLIGHT	575	n/a	n/a	0	0	0
2765.38	n/a	REC_WORD	1382690	wordpools/wasnorm_wordpool_576.txt	LTP280	ltpFR2	2	12	FLASHLIGHT	575	n/a	n/a	0	0	0
2766.188	n/a	REC_WORD_VV	1383094	wordpools/wasnorm_wordpool_576.txt	LTP280	ltpFR2	2	12	<>	-1	n/a	n/a	0	0	0
2766.614	n/a	REC_WORD	1383307	wordpools/wasnorm_wordpool_576.txt	LTP280	ltpFR2	2	12	FLASHLIGHT	575	n/a	n/a	0	0	0
2767.454	n/a	REC_WORD	1383727	wordpools/wasnorm_wordpool_576.txt	LTP280	ltpFR2	2	12	KITCHEN	778	n/a	n/a	0	0	0
2768.07	n/a	REC_WORD	1384035	wordpools/wasnorm_wordpool_576.txt	LTP280	ltpFR2	2	12	IDOL	733	n/a	n/a	0	0	0
2769.834	n/a	REC_WORD	1384917	wordpools/wasnorm_wordpool_576.txt	LTP280	ltpFR2	2	12	MISTER	901	n/a	n/a	0	0	0
2771.252	n/a	REC_WORD	1385626	wordpools/wasnorm_wordpool_576.txt	LTP280	ltpFR2	2	12	MAILBOX	857	n/a	n/a	0	0	0
2774.342	n/a	REC_WORD	1387171	wordpools/wasnorm_wordpool_576.txt	LTP280	ltpFR2	2	12	LASER	801	n/a	n/a	0	0	0
2784.186	n/a	REC_WORD	1392093	wordpools/wasnorm_wordpool_576.txt	LTP280	ltpFR2	2	12	CHAMPAGNE	278	n/a	n/a	0	0	0
2785.31	n/a	REC_WORD	1392655	wordpools/wasnorm_wordpool_576.txt	LTP280	ltpFR2	2	12	MONEY	908	n/a	n/a	0	0	0
2925.196	n/a	DISTRACTOR	1462598	n/a	LTP280	ltpFR2	2	13	n/a	n/a	n/a	n/a	0	0	0
2925.196	n/a	START	1462598	n/a	LTP280	ltpFR2	2	n/a	n/a	n/a	20	n/a	n/a	n/a	n/a
2925.228	n/a	PROB	1462614	n/a	LTP280	ltpFR2	2	n/a	n/a	n/a	20	22	9	5	8
2927.164	n/a	PROB	1463582	n/a	LTP280	ltpFR2	2	n/a	n/a	n/a	20	12	7	3	2
2928.198	n/a	PROB	1464099	n/a	LTP280	ltpFR2	2	n/a	n/a	n/a	20	13	4	6	3
2929.482	n/a	PROB	1464741	n/a	LTP280	ltpFR2	2	n/a	n/a	n/a	20	12	1	8	3
2930.65	n/a	PROB	1465325	n/a	LTP280	ltpFR2	2	n/a	n/a	n/a	20	9	2	5	2
2931.902	n/a	PROB	1465951	n/a	LTP280	ltpFR2	2	n/a	n/a	n/a	20	17	6	5	6
2933.152	n/a	PROB	1466576	n/a	LTP280	ltpFR2	2	n/a	n/a	n/a	20	8	2	3	3
2934.554	n/a	PROB	1467277	n/a	LTP280	ltpFR2	2	n/a	n/a	n/a	20	11	6	4	1
2935.504	n/a	PROB	1467752	n/a	LTP280	ltpFR2	2	n/a	n/a	n/a	20	19	6	6	7
2936.99	n/a	PROB	1468495	n/a	LTP280	ltpFR2	2	n/a	n/a	n/a	20	7	1	2	5
2938.358	n/a	PROB	1469179	n/a	LTP280	ltpFR2	2	n/a	n/a	n/a	20	15	3	4	8
2939.708	n/a	PROB	1469854	n/a	LTP280	ltpFR2	2	n/a	n/a	n/a	20	2	7	3	2
2940.91	n/a	PROB	1470455	n/a	LTP280	ltpFR2	2	n/a	n/a	n/a	20	14	7	6	1
2942.344	n/a	PROB	1471172	n/a	LTP280	ltpFR2	2	n/a	n/a	n/a	20	18	7	4	7
2944.278	n/a	PROB	1472139	n/a	LTP280	ltpFR2	2	n/a	n/a	n/a	20	18	7	7	4
2945.664	n/a	PROB	1472832	n/a	LTP280	ltpFR2	2	n/a	n/a	n/a	20	17	3	9	4
2947.148	n/a	PROB	1473574	n/a	LTP280	ltpFR2	2	n/a	n/a	n/a	20	14	5	5	4
2948.3	n/a	STOP	1474150	n/a	LTP280	ltpFR2	2	n/a	n/a	n/a	20	n/a	n/a	n/a	n/a
2950.35	n/a	WORD	1475175	wordpools/wasnorm_wordpool_576.txt	LTP280	ltpFR2	2	13	OYSTER	995	n/a	n/a	0	0	0
2952.87	n/a	WORD	1476435	wordpools/wasnorm_wordpool_576.txt	LTP280	ltpFR2	2	13	PAIL	1002	n/a	n/a	0	0	0
2955.52	n/a	WORD	1477760	wordpools/wasnorm_wordpool_576.txt	LTP280	ltpFR2	2	13	AGENT	10	n/a	n/a	0	0	0
2958.074	n/a	WORD	1479037	wordpools/wasnorm_wordpool_576.txt	LTP280	ltpFR2	2	13	GALLON	618	n/a	n/a	0	0	0
2960.608	n/a	WORD	1480304	wordpools/wasnorm_wordpool_576.txt	LTP280	ltpFR2	2	13	STAPLE	1371	n/a	n/a	0	0	0
2963.11	n/a	WORD	1481555	wordpools/wasnorm_wordpool_576.txt	LTP280	ltpFR2	2	13	BINDER	127	n/a	n/a	0	0	0
2965.73	n/a	WORD	1482865	wordpools/wasnorm_wordpool_576.txt	LTP280	ltpFR2	2	13	ARMY	39	n/a	n/a	0	0	0
2968.432	n/a	WORD	1484216	wordpools/wasnorm_wordpool_576.txt	LTP280	ltpFR2	2	13	DRUG	501	n/a	n/a	0	0	0
2971.168	n/a	WORD	1485584	wordpools/wasnorm_wordpool_576.txt	LTP280	ltpFR2	2	13	OINTMENT	974	n/a	n/a	0	0	0
2973.62	n/a	WORD	1486810	wordpools/wasnorm_wordpool_576.txt	LTP280	ltpFR2	2	13	VENUS	1557	n/a	n/a	0	0	0
2976.056	n/a	WORD	1488028	wordpools/wasnorm_wordpool_576.txt	LTP280	ltpFR2	2	13	PUPPY	1144	n/a	n/a	0	0	0
2978.842	n/a	WORD	1489421	wordpools/wasnorm_wordpool_576.txt	LTP280	ltpFR2	2	13	CAMEL	223	n/a	n/a	0	0	0
2981.426	n/a	WORD	1490713	wordpools/wasnorm_wordpool_576.txt	LTP280	ltpFR2	2	13	EGYPT	519	n/a	n/a	0	0	0
2984.23	n/a	WORD	1492115	wordpools/wasnorm_wordpool_576.txt	LTP280	ltpFR2	2	13	SIBLING	1301	n/a	n/a	0	0	0
2986.982	n/a	WORD	1493491	wordpools/wasnorm_wordpool_576.txt	LTP280	ltpFR2	2	13	GUITAR	670	n/a	n/a	0	0	0
2989.518	n/a	WORD	1494759	wordpools/wasnorm_wordpool_576.txt	LTP280	ltpFR2	2	13	COTTAGE	384	n/a	n/a	0	0	0
2992.086	n/a	WORD	1496043	wordpools/wasnorm_wordpool_576.txt	LTP280	ltpFR2	2	13	STAKE	1368	n/a	n/a	0	0	0
2994.872	n/a	WORD	1497436	wordpools/wasnorm_wordpool_576.txt	LTP280	ltpFR2	2	13	FIDDLE	561	n/a	n/a	0	0	0
2997.358	n/a	WORD	1498679	wordpools/wasnorm_wordpool_576.txt	LTP280	ltpFR2	2	13	COUNTRY	388	n/a	n/a	0	0	0
3000.11	n/a	WORD	1500055	wordpools/wasnorm_wordpool_576.txt	LTP280	ltpFR2	2	13	GARDEN	623	n/a	n/a	0	0	0
3002.562	n/a	WORD	1501281	wordpools/wasnorm_wordpool_576.txt	LTP280	ltpFR2	2	13	TWISTER	1530	n/a	n/a	0	0	0
3005.046	n/a	WORD	1502523	wordpools/wasnorm_wordpool_576.txt	LTP280	ltpFR2	2	13	CYCLONE	431	n/a	n/a	0	0	0
3007.566	n/a	WORD	1503783	wordpools/wasnorm_wordpool_576.txt	LTP280	ltpFR2	2	13	FOX	598	n/a	n/a	0	0	0
3010.284	n/a	WORD	1505142	wordpools/wasnorm_wordpool_576.txt	LTP280	ltpFR2	2	13	LEG	809	n/a	n/a	0	0	0
3011.902	n/a	START	1505951	n/a	LTP280	ltpFR2	2	n/a	n/a	n/a	21	n/a	n/a	n/a	n/a
3013.082	n/a	DISTRACTOR	1506541	n/a	LTP280	ltpFR2	2	13	n/a	n/a	n/a	n/a	0	0	0
3013.086	n/a	PROB	1506543	n/a	LTP280	ltpFR2	2	n/a	n/a	n/a	21	7	5	1	1
3014.288	n/a	PROB	1507144	n/a	LTP280	ltpFR2	2	n/a	n/a	n/a	21	18	6	7	4
3015.706	n/a	PROB	1507853	n/a	LTP280	ltpFR2	2	n/a	n/a	n/a	21	11	2	1	8
3017.124	n/a	PROB	1508562	n/a	LTP280	ltpFR2	2	n/a	n/a	n/a	21	19	3	7	9
3018.842	n/a	PROB	1509421	n/a	LTP280	ltpFR2	2	n/a	n/a	n/a	21	8	4	3	1
3019.842	n/a	PROB	1509921	n/a	LTP280	ltpFR2	2	n/a	n/a	n/a	21	14	4	5	4
3021.828	n/a	PROB	1510914	n/a	LTP280	ltpFR2	2	n/a	n/a	n/a	21	1	9	3	8
3023.712	n/a	PROB	1511856	n/a	LTP280	ltpFR2	2	n/a	n/a	n/a	21	14	7	6	2
3024.746	n/a	PROB	1512373	n/a	LTP280	ltpFR2	2	n/a	n/a	n/a	21	14	6	8	6
3026.082	n/a	PROB	1513041	n/a	LTP280	ltpFR2	2	n/a	n/a	n/a	21	10	1	7	2
3027.266	n/a	PROB	1513633	n/a	LTP280	ltpFR2	2	n/a	n/a	n/a	21	15	1	6	8
3028.45	n/a	PROB	1514225	n/a	LTP280	ltpFR2	2	n/a	n/a	n/a	21	10	5	1	4
3029.45	n/a	PROB	1514725	n/a	LTP280	ltpFR2	2	n/a	n/a	n/a	21	12	5	1	6
3030.636	n/a	PROB	1515318	n/a	LTP280	ltpFR2	2	n/a	n/a	n/a	21	9	3	4	2
3031.82	n/a	PROB	1515910	n/a	LTP280	ltpFR2	2	n/a	n/a	n/a	21	16	6	4	6
3033.338	n/a	PROB	1516669	n/a	LTP280	ltpFR2	2	n/a	n/a	n/a	21	13	3	7	3
3034.38	n/a	STOP	1517190	n/a	LTP280	ltpFR2	2	n/a	n/a	n/a	21	n/a	n/a	n/a	n/a
3037.808	n/a	REC_START	1518904	n/a	LTP280	ltpFR2	2	13	n/a	n/a	n/a	n/a	0	0	0
3038.292	n/a	REC_WORD	1519146	wordpools/wasnorm_wordpool_576.txt	LTP280	ltpFR2	2	13	COTTAGE	384	n/a	n/a	0	0	0
3038.966	n/a	REC_WORD	1519483	wordpools/wasnorm_wordpool_576.txt	LTP280	ltpFR2	2	13	FOX	598	n/a	n/a	0	0	0
3040.258	n/a	REC_WORD	1520129	wordpools/wasnorm_wordpool_576.txt	LTP280	ltpFR2	2	13	OYSTER	995	n/a	n/a	0	0	0
3041.598	n/a	REC_WORD	1520799	wordpools/wasnorm_wordpool_576.txt	LTP280	ltpFR2	2	13	PAIL	1002	n/a	n/a	0	0	0
3042.314	n/a	REC_WORD	1521157	wordpools/wasnorm_wordpool_576.txt	LTP280	ltpFR2	2	13	SIBLING	1301	n/a	n/a	0	0	0
3044.028	n/a	REC_WORD	1522014	wordpools/wasnorm_wordpool_576.txt	LTP280	ltpFR2	2	13	EGYPT	519	n/a	n/a	0	0	0
3044.782	n/a	REC_WORD	1522391	wordpools/wasnorm_wordpool_576.txt	LTP280	ltpFR2	2	13	CAMEL	223	n/a	n/a	0	0	0
3058.84	n/a	REC_WORD	1529420	wordpools/wasnorm_wordpool_576.txt	LTP280	ltpFR2	2	13	COTTAGE	384	n/a	n/a	0	0	0
3109.828	n/a	REC_WORD	1554914	wordpools/wasnorm_wordpool_576.txt	LTP280	ltpFR2	2	13	CYCLONE	431	n/a	n/a	0	0	0
3128.45	n/a	WORD	1564225	wordpools/wasnorm_wordpool_576.txt	LTP280	ltpFR2	2	14	BULLET	194	n/a	n/a	0	0	0
3131.154	n/a	WORD	1565577	wordpools/wasnorm_wordpool_576.txt	LTP280	ltpFR2	2	14	CLOTHES	327	n/a	n/a	0	0	0
3133.756	n/a	WORD	1566878	wordpools/wasnorm_wordpool_576.txt	LTP280	ltpFR2	2	14	OUTDOORS	987	n/a	n/a	0	0	0
3136.408	n/a	WORD	1568204	wordpools/wasnorm_wordpool_576.txt	LTP280	ltpFR2	2	14	RIFLE	1192	n/a	n/a	0	0	0
3139.178	n/a	WORD	1569589	wordpools/wasnorm_wordpool_576.txt	LTP280	ltpFR2	2	14	COURSE	390	n/a	n/a	0	0	0
3141.83	n/a	WORD	1570915	wordpools/wasnorm_wordpool_576.txt	LTP280	ltpFR2	2	14	COLLEGE	346	n/a	n/a	0	0	0
3144.516	n/a	WORD	1572258	wordpools/wasnorm_wordpool_576.txt	LTP280	ltpFR2	2	14	POWDER	1117	n/a	n/a	0	0	0
3147.252	n/a	WORD	1573626	wordpools/wasnorm_wordpool_576.txt	LTP280	ltpFR2	2	14	STALLION	1369	n/a	n/a	0	0	0
3149.954	n/a	WORD	1574977	wordpools/wasnorm_wordpool_576.txt	LTP280	ltpFR2	2	14	JAPAN	749	n/a	n/a	0	0	0
3152.738	n/a	WORD	1576369	wordpools/wasnorm_wordpool_576.txt	LTP280	ltpFR2	2	14	PARROT	1015	n/a	n/a	0	0	0
3155.224	n/a	WORD	1577612	wordpools/wasnorm_wordpool_576.txt	LTP280	ltpFR2	2	14	VALLEY	1545	n/a	n/a	0	0	0
3158.01	n/a	WORD	1579005	wordpools/wasnorm_wordpool_576.txt	LTP280	ltpFR2	2	14	TILE	1468	n/a	n/a	0	0	0
3160.746	n/a	WORD	1580373	wordpools/wasnorm_wordpool_576.txt	LTP280	ltpFR2	2	14	QUEEN	1149	n/a	n/a	0	0	0
3163.314	n/a	WORD	1581657	wordpools/wasnorm_wordpool_576.txt	LTP280	ltpFR2	2	14	PALACE	1006	n/a	n/a	0	0	0
3166.15	n/a	WORD	1583075	wordpools/wasnorm_wordpool_576.txt	LTP280	ltpFR2	2	14	BARREL	91	n/a	n/a	0	0	0
3168.82	n/a	WORD	1584410	wordpools/wasnorm_wordpool_576.txt	LTP280	ltpFR2	2	14	GAVEL	627	n/a	n/a	0	0	0
3171.538	n/a	WORD	1585769	wordpools/wasnorm_wordpool_576.txt	LTP280	ltpFR2	2	14	WARDROBE	1587	n/a	n/a	0	0	0
3174.224	n/a	WORD	1587112	wordpools/wasnorm_wordpool_576.txt	LTP280	ltpFR2	2	14	SILK	1307	n/a	n/a	0	0	0
3177.026	n/a	WORD	1588513	wordpools/wasnorm_wordpool_576.txt	LTP280	ltpFR2	2	14	PADDLE	1000	n/a	n/a	0	0	0
3179.846	n/a	WORD	1589923	wordpools/wasnorm_wordpool_576.txt	LTP280	ltpFR2	2	14	BROOK	177	n/a	n/a	0	0	0
3182.348	n/a	WORD	1591174	wordpools/wasnorm_wordpool_576.txt	LTP280	ltpFR2	2	14	STOMACH	1384	n/a	n/a	0	0	0
3184.866	n/a	WORD	1592433	wordpools/wasnorm_wordpool_576.txt	LTP280	ltpFR2	2	14	XEROX	1628	n/a	n/a	0	0	0
3187.484	n/a	WORD	1593742	wordpools/wasnorm_wordpool_576.txt	LTP280	ltpFR2	2	14	QUARTER	1148	n/a	n/a	0	0	0
3190.02	n/a	WORD	1595010	wordpools/wasnorm_wordpool_576.txt	LTP280	ltpFR2	2	14	BUREAU	199	n/a	n/a	0	0	0
3191.64	n/a	START	1595820	n/a	LTP280	ltpFR2	2	n/a	n/a	n/a	22	n/a	n/a	n/a	n/a
3192.706	n/a	DISTRACTOR	1596353	n/a	LTP280	ltpFR2	2	14	n/a	n/a	n/a	n/a	0	0	0
3192.724	n/a	PROB	1596362	n/a	LTP280	ltpFR2	2	n/a	n/a	n/a	22	8	6	1	1
3193.792	n/a	PROB	1596896	n/a	LTP280	ltpFR2	2	n/a	n/a	n/a	22	18	8	6	4
3195.192	n/a	PROB	1597596	n/a	LTP280	ltpFR2	2	n/a	n/a	n/a	22	14	9	2	3
3197.712	n/a	PROB	1598856	n/a	LTP280	ltpFR2	2	n/a	n/a	n/a	22	22	6	7	9
3199.73	n/a	PROB	1599865	n/a	LTP280	ltpFR2	2	n/a	n/a	n/a	22	13	6	6	1
3201.014	n/a	PROB	1600507	n/a	LTP280	ltpFR2	2	n/a	n/a	n/a	22	16	4	8	4
3202.298	n/a	PROB	1601149	n/a	LTP280	ltpFR2	2	n/a	n/a	n/a	22	25	9	9	6
3203.882	n/a	PROB	1601941	n/a	LTP280	ltpFR2	2	n/a	n/a	n/a	22	18	3	8	7
3205.55	n/a	PROB	1602775	n/a	LTP280	ltpFR2	2	n/a	n/a	n/a	22	8	2	4	2
3206.618	n/a	PROB	1603309	n/a	LTP280	ltpFR2	2	n/a	n/a	n/a	22	9	7	1	1
3207.552	n/a	PROB	1603776	n/a	LTP280	ltpFR2	2	n/a	n/a	n/a	22	7	2	2	3
3208.77	n/a	PROB	1604385	n/a	LTP280	ltpFR2	2	n/a	n/a	n/a	22	25	9	6	9
3211.256	n/a	PROB	1605628	n/a	LTP280	ltpFR2	2	n/a	n/a	n/a	22	9	7	1	1
3212.24	n/a	PROB	1606120	n/a	LTP280	ltpFR2	2	n/a	n/a	n/a	22	10	2	1	7
3213.958	n/a	PROB	1606979	n/a	LTP280	ltpFR2	2	n/a	n/a	n/a	22	1	9	7	9
3215.382	n/a	STOP	1607691	n/a	LTP280	ltpFR2	2	n/a	n/a	n/a	22	n/a	n/a	n/a	n/a
3217.444	n/a	REC_START	1608722	n/a	LTP280	ltpFR2	2	14	n/a	n/a	n/a	n/a	0	0	0
3217.642	n/a	REC_WORD	1608821	wordpools/wasnorm_wordpool_576.txt	LTP280	ltpFR2	2	14	STOMACH	1384	n/a	n/a	0	0	0
3218.22	n/a	REC_WORD	1609110	wordpools/wasnorm_wordpool_576.txt	LTP280	ltpFR2	2	14	XEROX	1628	n/a	n/a	0	0	0
3219.08	n/a	REC_WORD	1609540	wordpools/wasnorm_wordpool_576.txt	LTP280	ltpFR2	2	14	QUARTER	1148	n/a	n/a	0	0	0
3219.99	n/a	REC_WORD	1609995	wordpools/wasnorm_wordpool_576.txt	LTP280	ltpFR2	2	14	BUREAU	199	n/a	n/a	0	0	0
3225.396	n/a	REC_WORD	1612698	wordpools/wasnorm_wordpool_576.txt	LTP280	ltpFR2	2	14	BULLET	194	n/a	n/a	0	0	0
3226.506	n/a	REC_WORD	1613253	wordpools/wasnorm_wordpool_576.txt	LTP280	ltpFR2	2	14	RIFLE	1192	n/a	n/a	0	0	0
3228.71	n/a	REC_WORD	1614355	wordpools/wasnorm_wordpool_576.txt	LTP280	ltpFR2	2	14	GAVEL	627	n/a	n/a	0	0	0
3229.558	n/a	REC_WORD	1614779	wordpools/wasnorm_wordpool_576.txt	LTP280	ltpFR2	2	14	BARREL	91	n/a	n/a	0	0	0
3235.758	n/a	REC_WORD	1617879	wordpools/wasnorm_wordpool_576.txt	LTP280	ltpFR2	2	14	QUEEN	1149	n/a	n/a	0	0	0
3236.534	n/a	REC_WORD	1618267	wordpools/wasnorm_wordpool_576.txt	LTP280	ltpFR2	2	14	PALACE	1006	n/a	n/a	0	0	0
3237.824	n/a	REC_WORD	1618912	wordpools/wasnorm_wordpool_576.txt	LTP280	ltpFR2	2	14	SILK	1307	n/a	n/a	0	0	0
3238.41	n/a	REC_WORD	1619205	wordpools/wasnorm_wordpool_576.txt	LTP280	ltpFR2	2	14	WARDROBE	1587	n/a	n/a	0	0	0
3323.184	n/a	DISTRACTOR	1661592	n/a	LTP280	ltpFR2	2	15	n/a	n/a	n/a	n/a	0	0	0
3323.184	n/a	START	1661592	n/a	LTP280	ltpFR2	2	n/a	n/a	n/a	23	n/a	n/a	n/a	n/a
3323.218	n/a	PROB	1661609	n/a	LTP280	ltpFR2	2	n/a	n/a	n/a	23	10	4	5	1
3324.218	n/a	PROB	1662109	n/a	LTP280	ltpFR2	2	n/a	n/a	n/a	23	6	1	3	2
3325.22	n/a	PROB	1662610	n/a	LTP280	ltpFR2	2	n/a	n/a	n/a	23	11	3	6	2
3326.504	n/a	PROB	1663252	n/a	LTP280	ltpFR2	2	n/a	n/a	n/a	23	11	1	4	6
3327.454	n/a	PROB	1663727	n/a	LTP280	ltpFR2	2	n/a	n/a	n/a	23	17	1	7	9
3328.588	n/a	PROB	1664294	n/a	LTP280	ltpFR2	2	n/a	n/a	n/a	23	13	5	7	1
3329.672	n/a	PROB	1664836	n/a	LTP280	ltpFR2	2	n/a	n/a	n/a	23	20	4	8	8
3331.14	n/a	PROB	1665570	n/a	LTP280	ltpFR2	2	n/a	n/a	n/a	23	13	5	7	1
3332.242	n/a	PROB	1666121	n/a	LTP280	ltpFR2	2	n/a	n/a	n/a	23	11	2	8	1
3333.126	n/a	PROB	1666563	n/a	LTP280	ltpFR2	2	n/a	n/a	n/a	23	19	8	7	4
3334.944	n/a	PROB	1667472	n/a	LTP280	ltpFR2	2	n/a	n/a	n/a	23	16	6	9	1
3336.528	n/a	PROB	1668264	n/a	LTP280	ltpFR2	2	n/a	n/a	n/a	23	14	7	3	4
3337.63	n/a	PROB	1668815	n/a	LTP280	ltpFR2	2	n/a	n/a	n/a	23	25	9	8	9
3339.582	n/a	PROB	1669791	n/a	LTP280	ltpFR2	2	n/a	n/a	n/a	23	22	6	9	7
3341.266	n/a	PROB	1670633	n/a	LTP280	ltpFR2	2	n/a	n/a	n/a	23	19	1	9	9
3342.834	n/a	PROB	1671417	n/a	LTP280	ltpFR2	2	n/a	n/a	n/a	23	15	6	6	3
3343.952	n/a	PROB	1671976	n/a	LTP280	ltpFR2	2	n/a	n/a	n/a	23	9	1	7	1
3344.87	n/a	PROB	1672435	n/a	LTP280	ltpFR2	2	n/a	n/a	n/a	23	17	9	4	3
3346.202	n/a	STOP	1673101	n/a	LTP280	ltpFR2	2	n/a	n/a	n/a	23	n/a	n/a	n/a	n/a
3348.122	n/a	WORD	1674061	wordpools/wasnorm_wordpool_576.txt	LTP280	ltpFR2	2	15	SCOTCH	1251	n/a	n/a	0	0	0
3350.908	n/a	WORD	1675454	wordpools/wasnorm_wordpool_576.txt	LTP280	ltpFR2	2	15	SUMMIT	1405	n/a	n/a	0	0	0
3353.542	n/a	WORD	1676771	wordpools/wasnorm_wordpool_576.txt	LTP280	ltpFR2	2	15	FOREST	593	n/a	n/a	0	0	0
3356.044	n/a	WORD	1678022	wordpools/wasnorm_wordpool_576.txt	LTP280	ltpFR2	2	15	COD	340	n/a	n/a	0	0	0
3358.648	n/a	WORD	1679324	wordpools/wasnorm_wordpool_576.txt	LTP280	ltpFR2	2	15	SALMON	1227	n/a	n/a	0	0	0
3361.182	n/a	WORD	1680591	wordpools/wasnorm_wordpool_576.txt	LTP280	ltpFR2	2	15	JUGGLER	763	n/a	n/a	0	0	0
3363.668	n/a	WORD	1681834	wordpools/wasnorm_wordpool_576.txt	LTP280	ltpFR2	2	15	KNAPSACK	783	n/a	n/a	0	0	0
3366.386	n/a	WORD	1683193	wordpools/wasnorm_wordpool_576.txt	LTP280	ltpFR2	2	15	ITEM	746	n/a	n/a	0	0	0
3369.04	n/a	WORD	1684520	wordpools/wasnorm_wordpool_576.txt	LTP280	ltpFR2	2	15	MARSH	874	n/a	n/a	0	0	0
3371.842	n/a	WORD	1685921	wordpools/wasnorm_wordpool_576.txt	LTP280	ltpFR2	2	15	SPONGE	1355	n/a	n/a	0	0	0
3374.494	n/a	WORD	1687247	wordpools/wasnorm_wordpool_576.txt	LTP280	ltpFR2	2	15	WOMAN	1620	n/a	n/a	0	0	0
3377.114	n/a	WORD	1688557	wordpools/wasnorm_wordpool_576.txt	LTP280	ltpFR2	2	15	VIRUS	1572	n/a	n/a	0	0	0
3379.882	n/a	WORD	1689941	wordpools/wasnorm_wordpool_576.txt	LTP280	ltpFR2	2	15	DRIVER	499	n/a	n/a	0	0	0
3382.668	n/a	WORD	1691334	wordpools/wasnorm_wordpool_576.txt	LTP280	ltpFR2	2	15	SLIDE	1326	n/a	n/a	0	0	0
3385.204	n/a	WORD	1692602	wordpools/wasnorm_wordpool_576.txt	LTP280	ltpFR2	2	15	SHRUB	1299	n/a	n/a	0	0	0
3387.79	n/a	WORD	1693895	wordpools/wasnorm_wordpool_576.txt	LTP280	ltpFR2	2	15	BOYFRIEND	162	n/a	n/a	0	0	0
3390.592	n/a	WORD	1695296	wordpools/wasnorm_wordpool_576.txt	LTP280	ltpFR2	2	15	TART	1436	n/a	n/a	0	0	0
3393.36	n/a	WORD	1696680	wordpools/wasnorm_wordpool_576.txt	LTP280	ltpFR2	2	15	HANDBAG	684	n/a	n/a	0	0	0
3396.196	n/a	WORD	1698098	wordpools/wasnorm_wordpool_576.txt	LTP280	ltpFR2	2	15	BRANDY	169	n/a	n/a	0	0	0
3398.716	n/a	WORD	1699358	wordpools/wasnorm_wordpool_576.txt	LTP280	ltpFR2	2	15	IGLOO	734	n/a	n/a	0	0	0
3401.184	n/a	WORD	1700592	wordpools/wasnorm_wordpool_576.txt	LTP280	ltpFR2	2	15	PENGUIN	1044	n/a	n/a	0	0	0
3403.768	n/a	WORD	1701884	wordpools/wasnorm_wordpool_576.txt	LTP280	ltpFR2	2	15	SHELF	1280	n/a	n/a	0	0	0
3406.254	n/a	WORD	1703127	wordpools/wasnorm_wordpool_576.txt	LTP280	ltpFR2	2	15	CRAB	397	n/a	n/a	0	0	0
3408.84	n/a	WORD	1704420	wordpools/wasnorm_wordpool_576.txt	LTP280	ltpFR2	2	15	GRIZZLY	662	n/a	n/a	0	0	0
3410.456	n/a	START	1705228	n/a	LTP280	ltpFR2	2	n/a	n/a	n/a	24	n/a	n/a	n/a	n/a
3411.606	n/a	DISTRACTOR	1705803	n/a	LTP280	ltpFR2	2	15	n/a	n/a	n/a	n/a	0	0	0
3411.626	n/a	PROB	1705813	n/a	LTP280	ltpFR2	2	n/a	n/a	n/a	24	19	8	3	8
3413.392	n/a	PROB	1706696	n/a	LTP280	ltpFR2	2	n/a	n/a	n/a	24	14	7	3	4
3414.728	n/a	PROB	1707364	n/a	LTP280	ltpFR2	2	n/a	n/a	n/a	24	10	5	2	3
3416.062	n/a	PROB	1708031	n/a	LTP280	ltpFR2	2	n/a	n/a	n/a	24	9	6	2	1
3417.63	n/a	PROB	1708815	n/a	LTP280	ltpFR2	2	n/a	n/a	n/a	24	14	4	3	7
3418.982	n/a	PROB	1709491	n/a	LTP280	ltpFR2	2	n/a	n/a	n/a	24	21	5	9	6
3420.784	n/a	PROB	1710392	n/a	LTP280	ltpFR2	2	n/a	n/a	n/a	24	21	9	8	6
3422.818	n/a	PROB	1711409	n/a	LTP280	ltpFR2	2	n/a	n/a	n/a	24	18	4	8	6
3424.236	n/a	PROB	1712118	n/a	LTP280	ltpFR2	2	n/a	n/a	n/a	24	18	9	7	2
3425.622	n/a	PROB	1712811	n/a	LTP280	ltpFR2	2	n/a	n/a	n/a	24	13	5	7	1
3426.872	n/a	PROB	1713436	n/a	LTP280	ltpFR2	2	n/a	n/a	n/a	24	12	4	5	2
3428.09	n/a	PROB	1714045	n/a	LTP280	ltpFR2	2	n/a	n/a	n/a	24	21	9	3	9
3429.608	n/a	PROB	1714804	n/a	LTP280	ltpFR2	2	n/a	n/a	n/a	24	18	5	7	6
3431.392	n/a	PROB	1715696	n/a	LTP280	ltpFR2	2	n/a	n/a	n/a	24	16	4	3	9
3432.81	n/a	PROB	1716405	n/a	LTP280	ltpFR2	2	n/a	n/a	n/a	24	5	1	2	2
3433.636	n/a	STOP	1716818	n/a	LTP280	ltpFR2	2	n/a	n/a	n/a	24	n/a	n/a	n/a	n/a
3436.348	n/a	REC_START	1718174	n/a	LTP280	ltpFR2	2	15	n/a	n/a	n/a	n/a	0	0	0
3436.774	n/a	REC_WORD	1718387	wordpools/wasnorm_wordpool_576.txt	LTP280	ltpFR2	2	15	PENGUIN	1044	n/a	n/a	0	0	0
3437.314	n/a	REC_WORD	1718657	wordpools/wasnorm_wordpool_576.txt	LTP280	ltpFR2	2	15	SHELF	1280	n/a	n/a	0	0	0
3438.116	n/a	REC_WORD	1719058	wordpools/wasnorm_wordpool_576.txt	LTP280	ltpFR2	2	15	CRAB	397	n/a	n/a	0	0	0
3439.802	n/a	REC_WORD	1719901	wordpools/wasnorm_wordpool_576.txt	LTP280	ltpFR2	2	15	COD	340	n/a	n/a	0	0	0
3440.77	n/a	REC_WORD	1720385	wordpools/wasnorm_wordpool_576.txt	LTP280	ltpFR2	2	15	SALMON	1227	n/a	n/a	0	0	0
3444.698	n/a	REC_WORD	1722349	wordpools/wasnorm_wordpool_576.txt	LTP280	ltpFR2	2	15	SUMMIT	1405	n/a	n/a	0	0	0
3446.358	n/a	REC_WORD	1723179	wordpools/wasnorm_wordpool_576.txt	LTP280	ltpFR2	2	15	MOUNTAIN	924	n/a	n/a	0	0	0
3457.812	n/a	REC_WORD	1728906	wordpools/wasnorm_wordpool_576.txt	LTP280	ltpFR2	2	15	BOYFRIEND	162	n/a	n/a	0	0	0
3526.808	n/a	DISTRACTOR	1763404	n/a	LTP280	ltpFR2	2	16	n/a	n/a	n/a	n/a	0	0	0
3526.808	n/a	START	1763404	n/a	LTP280	ltpFR2	2	n/a	n/a	n/a	25	n/a	n/a	n/a	n/a
3526.824	n/a	PROB	1763412	n/a	LTP280	ltpFR2	2	n/a	n/a	n/a	25	8	4	2	2
3527.824	n/a	PROB	1763912	n/a	LTP280	ltpFR2	2	n/a	n/a	n/a	25	11	1	9	2
3529.01	n/a	PROB	1764505	n/a	LTP280	ltpFR2	2	n/a	n/a	n/a	25	20	9	5	6
3531.21	n/a	PROB	1765605	n/a	LTP280	ltpFR2	2	n/a	n/a	n/a	25	17	4	8	6
3532.596	n/a	PROB	1766298	n/a	LTP280	ltpFR2	2	n/a	n/a	n/a	25	16	5	9	2
3534.064	n/a	PROB	1767032	n/a	LTP280	ltpFR2	2	n/a	n/a	n/a	25	21	7	9	6
3535.732	n/a	PROB	1767866	n/a	LTP280	ltpFR2	2	n/a	n/a	n/a	25	14	2	8	4
3537.132	n/a	PROB	1768566	n/a	LTP280	ltpFR2	2	n/a	n/a	n/a	25	14	6	1	7
3538.284	n/a	PROB	1769142	n/a	LTP280	ltpFR2	2	n/a	n/a	n/a	25	13	4	7	2
3539.634	n/a	PROB	1769817	n/a	LTP280	ltpFR2	2	n/a	n/a	n/a	25	15	7	1	7
3540.652	n/a	PROB	1770326	n/a	LTP280	ltpFR2	2	n/a	n/a	n/a	25	8	1	2	6
3541.686	n/a	PROB	1770843	n/a	LTP280	ltpFR2	2	n/a	n/a	n/a	25	16	6	3	7
3543.238	n/a	PROB	1771619	n/a	LTP280	ltpFR2	2	n/a	n/a	n/a	25	17	8	8	1
3544.354	n/a	PROB	1772177	n/a	LTP280	ltpFR2	2	n/a	n/a	n/a	25	14	2	3	9
3546.124	n/a	PROB	1773062	n/a	LTP280	ltpFR2	2	n/a	n/a	n/a	25	15	9	5	1
3547.39	n/a	PROB	1773695	n/a	LTP280	ltpFR2	2	n/a	n/a	n/a	25	21	7	5	9
3548.842	n/a	PROB	1774421	n/a	LTP280	ltpFR2	2	n/a	n/a	n/a	25	17	1	9	7
3550.006	n/a	STOP	1775003	n/a	LTP280	ltpFR2	2	n/a	n/a	n/a	25	n/a	n/a	n/a	n/a
3551.912	n/a	WORD	1775956	wordpools/wasnorm_wordpool_576.txt	LTP280	ltpFR2	2	16	ANKLE	24	n/a	n/a	0	0	0
3554.446	n/a	WORD	1777223	wordpools/wasnorm_wordpool_576.txt	LTP280	ltpFR2	2	16	DRESS	495	n/a	n/a	0	0	0
3557.25	n/a	WORD	1778625	wordpools/wasnorm_wordpool_576.txt	LTP280	ltpFR2	2	16	SADDLE	1221	n/a	n/a	0	0	0
3559.768	n/a	WORD	1779884	wordpools/wasnorm_wordpool_576.txt	LTP280	ltpFR2	2	16	JEANS	752	n/a	n/a	0	0	0
3562.554	n/a	WORD	1781277	wordpools/wasnorm_wordpool_576.txt	LTP280	ltpFR2	2	16	HAND	683	n/a	n/a	0	0	0
3565.29	n/a	WORD	1782645	wordpools/wasnorm_wordpool_576.txt	LTP280	ltpFR2	2	16	CRIB	407	n/a	n/a	0	0	0
3567.808	n/a	WORD	1783904	wordpools/wasnorm_wordpool_576.txt	LTP280	ltpFR2	2	16	BUGGY	188	n/a	n/a	0	0	0
3570.528	n/a	WORD	1785264	wordpools/wasnorm_wordpool_576.txt	LTP280	ltpFR2	2	16	CREVICE	405	n/a	n/a	0	0	0
3573.114	n/a	WORD	1786557	wordpools/wasnorm_wordpool_576.txt	LTP280	ltpFR2	2	16	THRONE	1461	n/a	n/a	0	0	0
3575.848	n/a	WORD	1787924	wordpools/wasnorm_wordpool_576.txt	LTP280	ltpFR2	2	16	HORSE	719	n/a	n/a	0	0	0
3578.434	n/a	WORD	1789217	wordpools/wasnorm_wordpool_576.txt	LTP280	ltpFR2	2	16	OZONE	996	n/a	n/a	0	0	0
3581.236	n/a	WORD	1790618	wordpools/wasnorm_wordpool_576.txt	LTP280	ltpFR2	2	16	SWIMMER	1420	n/a	n/a	0	0	0
3583.89	n/a	WORD	1791945	wordpools/wasnorm_wordpool_576.txt	LTP280	ltpFR2	2	16	VELVET	1555	n/a	n/a	0	0	0
3586.524	n/a	WORD	1793262	wordpools/wasnorm_wordpool_576.txt	LTP280	ltpFR2	2	16	MUMMY	932	n/a	n/a	0	0	0
3589.344	n/a	WORD	1794672	wordpools/wasnorm_wordpool_576.txt	LTP280	ltpFR2	2	16	FARMER	553	n/a	n/a	0	0	0
3591.996	n/a	WORD	1795998	wordpools/wasnorm_wordpool_576.txt	LTP280	ltpFR2	2	16	RACKET	1155	n/a	n/a	0	0	0
3594.464	n/a	WORD	1797232	wordpools/wasnorm_wordpool_576.txt	LTP280	ltpFR2	2	16	SHIRT	1287	n/a	n/a	0	0	0
3596.918	n/a	WORD	1798459	wordpools/wasnorm_wordpool_576.txt	LTP280	ltpFR2	2	16	VIKING	1565	n/a	n/a	0	0	0
3599.368	n/a	WORD	1799684	wordpools/wasnorm_wordpool_576.txt	LTP280	ltpFR2	2	16	YACHT	1629	n/a	n/a	0	0	0
3601.988	n/a	WORD	1800994	wordpools/wasnorm_wordpool_576.txt	LTP280	ltpFR2	2	16	BACKBONE	66	n/a	n/a	0	0	0
3604.59	n/a	WORD	1802295	wordpools/wasnorm_wordpool_576.txt	LTP280	ltpFR2	2	16	ROD	1203	n/a	n/a	0	0	0
3607.042	n/a	WORD	1803521	wordpools/wasnorm_wordpool_576.txt	LTP280	ltpFR2	2	16	TOMBSTONE	1478	n/a	n/a	0	0	0
3609.678	n/a	WORD	1804839	wordpools/wasnorm_wordpool_576.txt	LTP280	ltpFR2	2	16	PIZZA	1079	n/a	n/a	0	0	0
3612.262	n/a	WORD	1806131	wordpools/wasnorm_wordpool_576.txt	LTP280	ltpFR2	2	16	BATHTUB	100	n/a	n/a	0	0	0
3613.882	n/a	START	1806941	n/a	LTP280	ltpFR2	2	n/a	n/a	n/a	26	n/a	n/a	n/a	n/a
3614.718	n/a	DISTRACTOR	1807359	n/a	LTP280	ltpFR2	2	16	n/a	n/a	n/a	n/a	0	0	0
3614.732	n/a	PROB	1807366	n/a	LTP280	ltpFR2	2	n/a	n/a	n/a	26	11	5	3	3
3616.132	n/a	PROB	1808066	n/a	LTP280	ltpFR2	2	n/a	n/a	n/a	26	19	8	5	6
3617.518	n/a	PROB	1808759	n/a	LTP280	ltpFR2	2	n/a	n/a	n/a	26	24	9	9	5
3618.886	n/a	PROB	1809443	n/a	LTP280	ltpFR2	2	n/a	n/a	n/a	26	16	8	5	3
3620.386	n/a	PROB	1810193	n/a	LTP280	ltpFR2	2	n/a	n/a	n/a	26	24	8	6	9
3621.988	n/a	PROB	1810994	n/a	LTP280	ltpFR2	2	n/a	n/a	n/a	26	17	3	7	7
3623.29	n/a	PROB	1811645	n/a	LTP280	ltpFR2	2	n/a	n/a	n/a	26	19	9	2	7
3625.074	n/a	PROB	1812537	n/a	LTP280	ltpFR2	2	n/a	n/a	n/a	26	9	3	5	1
3626.124	n/a	PROB	1813062	n/a	LTP280	ltpFR2	2	n/a	n/a	n/a	26	15	7	6	2
3627.342	n/a	PROB	1813671	n/a	LTP280	ltpFR2	2	n/a	n/a	n/a	26	27	9	9	9
3628.61	n/a	PROB	1814305	n/a	LTP280	ltpFR2	2	n/a	n/a	n/a	26	16	9	4	3
3630.46	n/a	PROB	1815230	n/a	LTP280	ltpFR2	2	n/a	n/a	n/a	26	11	7	3	1
3631.378	n/a	PROB	1815689	n/a	LTP280	ltpFR2	2	n/a	n/a	n/a	26	12	9	1	2
3632.446	n/a	PROB	1816223	n/a	LTP280	ltpFR2	2	n/a	n/a	n/a	26	14	5	1	8
3633.514	n/a	PROB	1816757	n/a	LTP280	ltpFR2	2	n/a	n/a	n/a	26	20	9	3	7
3634.916	n/a	PROB	1817458	n/a	LTP280	ltpFR2	2	n/a	n/a	n/a	26	18	7	7	4
3636.284	n/a	PROB	1818142	n/a	LTP280	ltpFR2	2	n/a	n/a	n/a	26	12	3	6	3
3637.6	n/a	STOP	1818800	n/a	LTP280	ltpFR2	2	n/a	n/a	n/a	26	n/a	n/a	n/a	n/a
3639.854	n/a	REC_START	1819927	n/a	LTP280	ltpFR2	2	16	n/a	n/a	n/a	n/a	0	0	0
3641.368	n/a	REC_WORD	1820684	wordpools/wasnorm_wordpool_576.txt	LTP280	ltpFR2	2	16	BATHROOM	99	n/a	n/a	0	0	0
3642.05	n/a	REC_WORD	1821025	wordpools/wasnorm_wordpool_576.txt	LTP280	ltpFR2	2	16	CURTAIN	427	n/a	n/a	0	0	0
3643.03	n/a	REC_WORD	1821515	wordpools/wasnorm_wordpool_576.txt	LTP280	ltpFR2	2	16	ROD	1203	n/a	n/a	0	0	0
3655.376	n/a	REC_WORD	1827688	wordpools/wasnorm_wordpool_576.txt	LTP280	ltpFR2	2	16	VELVET	1555	n/a	n/a	0	0	0
3711.674	n/a	REC_WORD	1855837	wordpools/wasnorm_wordpool_576.txt	LTP280	ltpFR2	2	16	FARMER	553	n/a	n/a	0	0	0
3716.4	n/a	REST_REWET	1858200	n/a	LTP280	ltpFR2	2	16	n/a	n/a	n/a	n/a	0	0	0
3895.02	n/a	WORD	1947510	wordpools/wasnorm_wordpool_576.txt	LTP280	ltpFR2	2	17	SEAGULL	1261	n/a	n/a	0	0	0
3897.522	n/a	WORD	1948761	wordpools/wasnorm_wordpool_576.txt	LTP280	ltpFR2	2	17	SALAD	1224	n/a	n/a	0	0	0
3900.208	n/a	WORD	1950104	wordpools/wasnorm_wordpool_576.txt	LTP280	ltpFR2	2	17	LOVER	846	n/a	n/a	0	0	0
3902.844	n/a	WORD	1951422	wordpools/wasnorm_wordpool_576.txt	LTP280	ltpFR2	2	17	PARTNER	1017	n/a	n/a	0	0	0
3905.578	n/a	WORD	1952789	wordpools/wasnorm_wordpool_576.txt	LTP280	ltpFR2	2	17	TURNIP	1521	n/a	n/a	0	0	0
3908.282	n/a	WORD	1954141	wordpools/wasnorm_wordpool_576.txt	LTP280	ltpFR2	2	17	BLENDER	136	n/a	n/a	0	0	0
3911.1	n/a	WORD	1955550	wordpools/wasnorm_wordpool_576.txt	LTP280	ltpFR2	2	17	TABLE	1426	n/a	n/a	0	0	0
3913.802	n/a	WORD	1956901	wordpools/wasnorm_wordpool_576.txt	LTP280	ltpFR2	2	17	PADDING	999	n/a	n/a	0	0	0
3916.454	n/a	WORD	1958227	wordpools/wasnorm_wordpool_576.txt	LTP280	ltpFR2	2	17	CEILING	265	n/a	n/a	0	0	0
3919.14	n/a	WORD	1959570	wordpools/wasnorm_wordpool_576.txt	LTP280	ltpFR2	2	17	SURVEY	1414	n/a	n/a	0	0	0
3921.726	n/a	WORD	1960863	wordpools/wasnorm_wordpool_576.txt	LTP280	ltpFR2	2	17	CURTAIN	427	n/a	n/a	0	0	0
3924.428	n/a	WORD	1962214	wordpools/wasnorm_wordpool_576.txt	LTP280	ltpFR2	2	17	SCARECROW	1245	n/a	n/a	0	0	0
3926.848	n/a	WORD	1963424	wordpools/wasnorm_wordpool_576.txt	LTP280	ltpFR2	2	17	FREEZER	604	n/a	n/a	0	0	0
3929.484	n/a	WORD	1964742	wordpools/wasnorm_wordpool_576.txt	LTP280	ltpFR2	2	17	LABEL	790	n/a	n/a	0	0	0
3932.002	n/a	WORD	1966001	wordpools/wasnorm_wordpool_576.txt	LTP280	ltpFR2	2	17	ROOSTER	1209	n/a	n/a	0	0	0
3934.654	n/a	WORD	1967327	wordpools/wasnorm_wordpool_576.txt	LTP280	ltpFR2	2	17	TRIBE	1505	n/a	n/a	0	0	0
3937.388	n/a	WORD	1968694	wordpools/wasnorm_wordpool_576.txt	LTP280	ltpFR2	2	17	BISON	131	n/a	n/a	0	0	0
3939.976	n/a	WORD	1969988	wordpools/wasnorm_wordpool_576.txt	LTP280	ltpFR2	2	17	ICEBERG	731	n/a	n/a	0	0	0
3942.544	n/a	WORD	1971272	wordpools/wasnorm_wordpool_576.txt	LTP280	ltpFR2	2	17	PICNIC	1060	n/a	n/a	0	0	0
3945.164	n/a	WORD	1972582	wordpools/wasnorm_wordpool_576.txt	LTP280	ltpFR2	2	17	FEMALE	559	n/a	n/a	0	0	0
3947.848	n/a	WORD	1973924	wordpools/wasnorm_wordpool_576.txt	LTP280	ltpFR2	2	17	BANQUET	86	n/a	n/a	0	0	0
3950.382	n/a	WORD	1975191	wordpools/wasnorm_wordpool_576.txt	LTP280	ltpFR2	2	17	LADY	794	n/a	n/a	0	0	0
3952.92	n/a	WORD	1976460	wordpools/wasnorm_wordpool_576.txt	LTP280	ltpFR2	2	17	SOFTBALL	1343	n/a	n/a	0	0	0
3955.572	n/a	WORD	1977786	wordpools/wasnorm_wordpool_576.txt	LTP280	ltpFR2	2	17	RELISH	1183	n/a	n/a	0	0	0
3957.19	n/a	START	1978595	n/a	LTP280	ltpFR2	2	n/a	n/a	n/a	27	n/a	n/a	n/a	n/a
3958.222	n/a	DISTRACTOR	1979111	n/a	LTP280	ltpFR2	2	17	n/a	n/a	n/a	n/a	0	0	0
3958.24	n/a	PROB	1979120	n/a	LTP280	ltpFR2	2	n/a	n/a	n/a	27	16	4	5	7
3960.424	n/a	PROB	1980212	n/a	LTP280	ltpFR2	2	n/a	n/a	n/a	27	13	1	8	4
3961.676	n/a	PROB	1980838	n/a	LTP280	ltpFR2	2	n/a	n/a	n/a	27	21	7	8	6
3963.012	n/a	PROB	1981506	n/a	LTP280	ltpFR2	2	n/a	n/a	n/a	27	16	9	3	4
3964.378	n/a	PROB	1982189	n/a	LTP280	ltpFR2	2	n/a	n/a	n/a	27	11	1	7	3
3965.796	n/a	PROB	1982898	n/a	LTP280	ltpFR2	2	n/a	n/a	n/a	27	19	5	5	9
3967.032	n/a	PROB	1983516	n/a	LTP280	ltpFR2	2	n/a	n/a	n/a	27	15	9	4	2
3968.216	n/a	PROB	1984108	n/a	LTP280	ltpFR2	2	n/a	n/a	n/a	27	21	3	9	9
3969.55	n/a	PROB	1984775	n/a	LTP280	ltpFR2	2	n/a	n/a	n/a	27	15	1	8	6
3970.618	n/a	PROB	1985309	n/a	LTP280	ltpFR2	2	n/a	n/a	n/a	27	23	4	9	9
3972.32	n/a	PROB	1986160	n/a	LTP280	ltpFR2	2	n/a	n/a	n/a	27	12	7	2	3
3974.604	n/a	PROB	1987302	n/a	LTP280	ltpFR2	2	n/a	n/a	n/a	27	17	8	2	7
3975.788	n/a	PROB	1987894	n/a	LTP280	ltpFR2	2	n/a	n/a	n/a	27	7	1	3	3
3976.722	n/a	PROB	1988361	n/a	LTP280	ltpFR2	2	n/a	n/a	n/a	27	18	6	3	9
3978.058	n/a	PROB	1989029	n/a	LTP280	ltpFR2	2	n/a	n/a	n/a	27	21	7	6	6
3980.094	n/a	STOP	1990047	n/a	LTP280	ltpFR2	2	n/a	n/a	n/a	27	n/a	n/a	n/a	n/a
3983.062	n/a	REC_START	1991531	n/a	LTP280	ltpFR2	2	17	n/a	n/a	n/a	n/a	0	0	0
3983.78	n/a	REC_WORD	1991890	wordpools/wasnorm_wordpool_576.txt	LTP280	ltpFR2	2	17	SEAGULL	1261	n/a	n/a	0	0	0
3984.436	n/a	REC_WORD	1992218	wordpools/wasnorm_wordpool_576.txt	LTP280	ltpFR2	2	17	SALAD	1224	n/a	n/a	0	0	0
3985.204	n/a	REC_WORD	1992602	wordpools/wasnorm_wordpool_576.txt	LTP280	ltpFR2	2	17	LOVER	846	n/a	n/a	0	0	0
3986.632	n/a	REC_WORD	1993316	wordpools/wasnorm_wordpool_576.txt	LTP280	ltpFR2	2	17	PARTNER	1017	n/a	n/a	0	0	0
3987.324	n/a	REC_WORD	1993662	wordpools/wasnorm_wordpool_576.txt	LTP280	ltpFR2	2	17	LADY	794	n/a	n/a	0	0	0
3988.076	n/a	REC_WORD	1994038	wordpools/wasnorm_wordpool_576.txt	LTP280	ltpFR2	2	17	FEMALE	559	n/a	n/a	0	0	0
3989.11	n/a	REC_WORD	1994555	wordpools/wasnorm_wordpool_576.txt	LTP280	ltpFR2	2	17	BANQUET	86	n/a	n/a	0	0	0
3990.434	n/a	REC_WORD	1995217	wordpools/wasnorm_wordpool_576.txt	LTP280	ltpFR2	2	17	BISON	131	n/a	n/a	0	0	0
4006.756	n/a	REC_WORD	2003378	wordpools/wasnorm_wordpool_576.txt	LTP280	ltpFR2	2	17	CURTAIN	427	n/a	n/a	0	0	0
4073.706	n/a	WORD	2036853	wordpools/wasnorm_wordpool_576.txt	LTP280	ltpFR2	2	18	SERVANT	1271	n/a	n/a	0	0	0
4076.508	n/a	WORD	2038254	wordpools/wasnorm_wordpool_576.txt	LTP280	ltpFR2	2	18	WORKER	1621	n/a	n/a	0	0	0
4079.16	n/a	WORD	2039580	wordpools/wasnorm_wordpool_576.txt	LTP280	ltpFR2	2	18	FLIPPER	580	n/a	n/a	0	0	0
4081.696	n/a	WORD	2040848	wordpools/wasnorm_wordpool_576.txt	LTP280	ltpFR2	2	18	TORTOISE	1486	n/a	n/a	0	0	0
4084.248	n/a	WORD	2042124	wordpools/wasnorm_wordpool_576.txt	LTP280	ltpFR2	2	18	WAITER	1580	n/a	n/a	0	0	0
4086.85	n/a	WORD	2043425	wordpools/wasnorm_wordpool_576.txt	LTP280	ltpFR2	2	18	PRIMATE	1123	n/a	n/a	0	0	0
4089.552	n/a	WORD	2044776	wordpools/wasnorm_wordpool_576.txt	LTP280	ltpFR2	2	18	WASHER	1592	n/a	n/a	0	0	0
4092.222	n/a	WORD	2046111	wordpools/wasnorm_wordpool_576.txt	LTP280	ltpFR2	2	18	OFFICE	972	n/a	n/a	0	0	0
4094.79	n/a	WORD	2047395	wordpools/wasnorm_wordpool_576.txt	LTP280	ltpFR2	2	18	JURY	766	n/a	n/a	0	0	0
4097.558	n/a	WORD	2048779	wordpools/wasnorm_wordpool_576.txt	LTP280	ltpFR2	2	18	DENTIST	447	n/a	n/a	0	0	0
4100.11	n/a	WORD	2050055	wordpools/wasnorm_wordpool_576.txt	LTP280	ltpFR2	2	18	SKILLET	1317	n/a	n/a	0	0	0
4102.58	n/a	WORD	2051290	wordpools/wasnorm_wordpool_576.txt	LTP280	ltpFR2	2	18	MESSAGE	888	n/a	n/a	0	0	0
4105.216	n/a	WORD	2052608	wordpools/wasnorm_wordpool_576.txt	LTP280	ltpFR2	2	18	STAMP	1370	n/a	n/a	0	0	0
4108.034	n/a	WORD	2054017	wordpools/wasnorm_wordpool_576.txt	LTP280	ltpFR2	2	18	WINDOW	1611	n/a	n/a	0	0	0
4110.72	n/a	WORD	2055360	wordpools/wasnorm_wordpool_576.txt	LTP280	ltpFR2	2	18	DRILL	497	n/a	n/a	0	0	0
4113.438	n/a	WORD	2056719	wordpools/wasnorm_wordpool_576.txt	LTP280	ltpFR2	2	18	YOLK	1633	n/a	n/a	0	0	0
4115.908	n/a	WORD	2057954	wordpools/wasnorm_wordpool_576.txt	LTP280	ltpFR2	2	18	ROCKET	1202	n/a	n/a	0	0	0
4118.576	n/a	WORD	2059288	wordpools/wasnorm_wordpool_576.txt	LTP280	ltpFR2	2	18	BOX	159	n/a	n/a	0	0	0
4121.096	n/a	WORD	2060548	wordpools/wasnorm_wordpool_576.txt	LTP280	ltpFR2	2	18	MONSTER	912	n/a	n/a	0	0	0
4123.714	n/a	WORD	2061857	wordpools/wasnorm_wordpool_576.txt	LTP280	ltpFR2	2	18	SEAFOOD	1260	n/a	n/a	0	0	0
4126.25	n/a	WORD	2063125	wordpools/wasnorm_wordpool_576.txt	LTP280	ltpFR2	2	18	HOOK	715	n/a	n/a	0	0	0
4128.786	n/a	WORD	2064393	wordpools/wasnorm_wordpool_576.txt	LTP280	ltpFR2	2	18	TOASTER	1472	n/a	n/a	0	0	0
4131.37	n/a	WORD	2065685	wordpools/wasnorm_wordpool_576.txt	LTP280	ltpFR2	2	18	MUFFIN	929	n/a	n/a	0	0	0
4134.04	n/a	WORD	2067020	wordpools/wasnorm_wordpool_576.txt	LTP280	ltpFR2	2	18	TROMBONE	1508	n/a	n/a	0	0	0
4135.658	n/a	START	2067829	n/a	LTP280	ltpFR2	2	n/a	n/a	n/a	28	n/a	n/a	n/a	n/a
4136.526	n/a	DISTRACTOR	2068263	n/a	LTP280	ltpFR2	2	18	n/a	n/a	n/a	n/a	0	0	0
4136.542	n/a	PROB	2068271	n/a	LTP280	ltpFR2	2	n/a	n/a	n/a	28	14	6	1	7
4137.776	n/a	PROB	2068888	n/a	LTP280	ltpFR2	2	n/a	n/a	n/a	28	13	6	4	3
4139.012	n/a	PROB	2069506	n/a	LTP280	ltpFR2	2	n/a	n/a	n/a	28	11	5	4	2
4140.112	n/a	PROB	2070056	n/a	LTP280	ltpFR2	2	n/a	n/a	n/a	28	13	8	4	1
4141.23	n/a	PROB	2070615	n/a	LTP280	ltpFR2	2	n/a	n/a	n/a	28	19	5	6	8
4142.564	n/a	PROB	2071282	n/a	LTP280	ltpFR2	2	n/a	n/a	n/a	28	14	1	7	6
