onset	duration	trial_type	sample	stim_file	subject	experiment	session	trial	item_name	item_num	list	answer	test_x	test_y	test_z
218.766	n/a	SESS_START	109383	n/a	LTP290	ltpFR2	15	n/a	n/a	n/a	n/a	n/a	0	0	0
232.45	n/a	START	116225	n/a	LTP290	ltpFR2	15	n/a	n/a	n/a	-1	n/a	n/a	n/a	n/a
232.498	n/a	PROB	116249	n/a	LTP290	ltpFR2	15	n/a	n/a	n/a	-1	5	1	2	2
233.938	n/a	PROB	116969	n/a	LTP290	ltpFR2	15	n/a	n/a	n/a	-1	25	9	9	7
236.23	n/a	PROB	118115	n/a	LTP290	ltpFR2	15	n/a	n/a	n/a	-1	18	9	2	7
237.63	n/a	PROB	118815	n/a	LTP290	ltpFR2	15	n/a	n/a	n/a	-1	15	1	5	9
239.408	n/a	PROB	119704	n/a	LTP290	ltpFR2	15	n/a	n/a	n/a	-1	17	7	3	7
240.798	n/a	PROB	120399	n/a	LTP290	ltpFR2	15	n/a	n/a	n/a	-1	6	1	2	3
242.186	n/a	PROB	121093	n/a	LTP290	ltpFR2	15	n/a	n/a	n/a	-1	16	9	6	1
243.962	n/a	STOP	121981	n/a	LTP290	ltpFR2	15	n/a	n/a	n/a	-1	n/a	n/a	n/a	n/a
275.18	n/a	WORD	137590	wordpools/wasnorm_wordpool_576.txt	LTP290	ltpFR2	15	1	CASHIER	254	n/a	n/a	0	0	0
277.806	n/a	WORD	138903	wordpools/wasnorm_wordpool_576.txt	LTP290	ltpFR2	15	1	TOURIST	1488	n/a	n/a	0	0	0
280.5	n/a	WORD	140250	wordpools/wasnorm_wordpool_576.txt	LTP290	ltpFR2	15	1	ZIPPER	1636	n/a	n/a	0	0	0
283.172	n/a	WORD	141586	wordpools/wasnorm_wordpool_576.txt	LTP290	ltpFR2	15	1	COMET	353	n/a	n/a	0	0	0
285.754	n/a	WORD	142877	wordpools/wasnorm_wordpool_576.txt	LTP290	ltpFR2	15	1	ROCKET	1202	n/a	n/a	0	0	0
288.262	n/a	WORD	144131	wordpools/wasnorm_wordpool_576.txt	LTP290	ltpFR2	15	1	ATOM	55	n/a	n/a	0	0	0
290.822	n/a	WORD	145411	wordpools/wasnorm_wordpool_576.txt	LTP290	ltpFR2	15	1	HEDGE	699	n/a	n/a	0	0	0
293.348	n/a	WORD	146674	wordpools/wasnorm_wordpool_576.txt	LTP290	ltpFR2	15	1	CRAYON	401	n/a	n/a	0	0	0
295.958	n/a	WORD	147979	wordpools/wasnorm_wordpool_576.txt	LTP290	ltpFR2	15	1	PIGMENT	1066	n/a	n/a	0	0	0
298.612	n/a	WORD	149306	wordpools/wasnorm_wordpool_576.txt	LTP290	ltpFR2	15	1	LONDON	843	n/a	n/a	0	0	0
301.38	n/a	WORD	150690	wordpools/wasnorm_wordpool_576.txt	LTP290	ltpFR2	15	1	SHERIFF	1284	n/a	n/a	0	0	0
303.99	n/a	WORD	151995	wordpools/wasnorm_wordpool_576.txt	LTP290	ltpFR2	15	1	TOASTER	1472	n/a	n/a	0	0	0
306.684	n/a	WORD	153342	wordpools/wasnorm_wordpool_576.txt	LTP290	ltpFR2	15	1	BRACES	164	n/a	n/a	0	0	0
309.36	n/a	WORD	154680	wordpools/wasnorm_wordpool_576.txt	LTP290	ltpFR2	15	1	FOOT	590	n/a	n/a	0	0	0
311.82	n/a	WORD	155910	wordpools/wasnorm_wordpool_576.txt	LTP290	ltpFR2	15	1	ASIA	46	n/a	n/a	0	0	0
314.462	n/a	WORD	157231	wordpools/wasnorm_wordpool_576.txt	LTP290	ltpFR2	15	1	SWAMP	1416	n/a	n/a	0	0	0
317.056	n/a	WORD	158528	wordpools/wasnorm_wordpool_576.txt	LTP290	ltpFR2	15	1	STOVE	1388	n/a	n/a	0	0	0
319.65	n/a	WORD	159825	wordpools/wasnorm_wordpool_576.txt	LTP290	ltpFR2	15	1	CONVICT	371	n/a	n/a	0	0	0
322.226	n/a	WORD	161113	wordpools/wasnorm_wordpool_576.txt	LTP290	ltpFR2	15	1	CRUTCH	417	n/a	n/a	0	0	0
325.048	n/a	WORD	162524	wordpools/wasnorm_wordpool_576.txt	LTP290	ltpFR2	15	1	UMPIRE	1535	n/a	n/a	0	0	0
327.86	n/a	WORD	163930	wordpools/wasnorm_wordpool_576.txt	LTP290	ltpFR2	15	1	PUDDING	1139	n/a	n/a	0	0	0
330.418	n/a	WORD	165209	wordpools/wasnorm_wordpool_576.txt	LTP290	ltpFR2	15	1	VELVET	1555	n/a	n/a	0	0	0
332.866	n/a	WORD	166433	wordpools/wasnorm_wordpool_576.txt	LTP290	ltpFR2	15	1	MARINE	869	n/a	n/a	0	0	0
335.592	n/a	WORD	167796	wordpools/wasnorm_wordpool_576.txt	LTP290	ltpFR2	15	1	FARMER	553	n/a	n/a	0	0	0
337.2	n/a	START	168600	n/a	LTP290	ltpFR2	15	n/a	n/a	n/a	1	n/a	n/a	n/a	n/a
338.062	n/a	DISTRACTOR	169031	n/a	LTP290	ltpFR2	15	1	n/a	n/a	n/a	n/a	0	0	0
338.07	n/a	PROB	169035	n/a	LTP290	ltpFR2	15	n/a	n/a	n/a	1	13	1	6	6
339.442	n/a	PROB	169721	n/a	LTP290	ltpFR2	15	n/a	n/a	n/a	1	21	4	9	8
341.232	n/a	PROB	170616	n/a	LTP290	ltpFR2	15	n/a	n/a	n/a	1	16	6	5	5
342.704	n/a	PROB	171352	n/a	LTP290	ltpFR2	15	n/a	n/a	n/a	1	9	2	6	1
345.934	n/a	PROB	172967	n/a	LTP290	ltpFR2	15	n/a	n/a	n/a	1	16	2	6	8
347.354	n/a	PROB	173677	n/a	LTP290	ltpFR2	15	n/a	n/a	n/a	1	19	8	4	7
348.912	n/a	PROB	174456	n/a	LTP290	ltpFR2	15	n/a	n/a	n/a	1	14	8	4	2
350.752	n/a	PROB	175376	n/a	LTP290	ltpFR2	15	n/a	n/a	n/a	1	19	2	9	8
352.19	n/a	PROB	176095	n/a	LTP290	ltpFR2	15	n/a	n/a	n/a	1	11	1	7	3
353.494	n/a	PROB	176747	n/a	LTP290	ltpFR2	15	n/a	n/a	n/a	1	12	2	6	4
355.33	n/a	PROB	177665	n/a	LTP290	ltpFR2	15	n/a	n/a	n/a	1	14	5	5	4
356.786	n/a	PROB	178393	n/a	LTP290	ltpFR2	15	n/a	n/a	n/a	1	13	3	9	1
358.264	n/a	PROB	179132	n/a	LTP290	ltpFR2	15	n/a	n/a	n/a	1	17	4	7	6
359.704	n/a	STOP	179852	n/a	LTP290	ltpFR2	15	n/a	n/a	n/a	1	n/a	n/a	n/a	n/a
363.028	n/a	REC_START	181514	n/a	LTP290	ltpFR2	15	1	n/a	n/a	n/a	n/a	0	0	0
363.652	n/a	REC_WORD_VV	181826	wordpools/wasnorm_wordpool_576.txt	LTP290	ltpFR2	15	1	<>	-1	n/a	n/a	0	0	0
364.806	n/a	REC_WORD	182403	wordpools/wasnorm_wordpool_576.txt	LTP290	ltpFR2	15	1	CASHIER	254	n/a	n/a	0	0	0
365.288	n/a	REC_WORD	182644	wordpools/wasnorm_wordpool_576.txt	LTP290	ltpFR2	15	1	TOURIST	1488	n/a	n/a	0	0	0
366.06	n/a	REC_WORD	183030	wordpools/wasnorm_wordpool_576.txt	LTP290	ltpFR2	15	1	ROCKET	1202	n/a	n/a	0	0	0
366.522	n/a	REC_WORD	183261	wordpools/wasnorm_wordpool_576.txt	LTP290	ltpFR2	15	1	FARMER	553	n/a	n/a	0	0	0
368.1	n/a	REC_WORD	184050	wordpools/wasnorm_wordpool_576.txt	LTP290	ltpFR2	15	1	CRAYON	401	n/a	n/a	0	0	0
368.6	n/a	REC_WORD	184300	wordpools/wasnorm_wordpool_576.txt	LTP290	ltpFR2	15	1	HEDGE	699	n/a	n/a	0	0	0
369.27	n/a	REC_WORD	184635	wordpools/wasnorm_wordpool_576.txt	LTP290	ltpFR2	15	1	PIGMENT	1066	n/a	n/a	0	0	0
371.65	n/a	REC_WORD	185825	wordpools/wasnorm_wordpool_576.txt	LTP290	ltpFR2	15	1	ATOM	55	n/a	n/a	0	0	0
454.164	n/a	WORD	227082	wordpools/wasnorm_wordpool_576.txt	LTP290	ltpFR2	15	2	FRANCE	601	n/a	n/a	0	0	0
456.674	n/a	WORD	228337	wordpools/wasnorm_wordpool_576.txt	LTP290	ltpFR2	15	2	EUROPE	541	n/a	n/a	0	0	0
459.3	n/a	WORD	229650	wordpools/wasnorm_wordpool_576.txt	LTP290	ltpFR2	15	2	NOVEL	960	n/a	n/a	0	0	0
461.838	n/a	WORD	230919	wordpools/wasnorm_wordpool_576.txt	LTP290	ltpFR2	15	2	SEAGULL	1261	n/a	n/a	0	0	0
464.568	n/a	WORD	232284	wordpools/wasnorm_wordpool_576.txt	LTP290	ltpFR2	15	2	DRUG	501	n/a	n/a	0	0	0
467.314	n/a	WORD	233657	wordpools/wasnorm_wordpool_576.txt	LTP290	ltpFR2	15	2	CHAPEL	280	n/a	n/a	0	0	0
469.902	n/a	WORD	234951	wordpools/wasnorm_wordpool_576.txt	LTP290	ltpFR2	15	2	HATCHET	691	n/a	n/a	0	0	0
472.55	n/a	WORD	236275	wordpools/wasnorm_wordpool_576.txt	LTP290	ltpFR2	15	2	LASER	801	n/a	n/a	0	0	0
475.312	n/a	WORD	237656	wordpools/wasnorm_wordpool_576.txt	LTP290	ltpFR2	15	2	RIFLE	1192	n/a	n/a	0	0	0
477.888	n/a	WORD	238944	wordpools/wasnorm_wordpool_576.txt	LTP290	ltpFR2	15	2	SHIRT	1287	n/a	n/a	0	0	0
480.648	n/a	WORD	240324	wordpools/wasnorm_wordpool_576.txt	LTP290	ltpFR2	15	2	HIKER	708	n/a	n/a	0	0	0
483.44	n/a	WORD	241720	wordpools/wasnorm_wordpool_576.txt	LTP290	ltpFR2	15	2	COLLEGE	346	n/a	n/a	0	0	0
485.936	n/a	WORD	242968	wordpools/wasnorm_wordpool_576.txt	LTP290	ltpFR2	15	2	TRACTOR	1493	n/a	n/a	0	0	0
488.512	n/a	WORD	244256	wordpools/wasnorm_wordpool_576.txt	LTP290	ltpFR2	15	2	MISTER	901	n/a	n/a	0	0	0
491.122	n/a	WORD	245561	wordpools/wasnorm_wordpool_576.txt	LTP290	ltpFR2	15	2	NOMAD	955	n/a	n/a	0	0	0
493.882	n/a	WORD	246941	wordpools/wasnorm_wordpool_576.txt	LTP290	ltpFR2	15	2	STUDENT	1395	n/a	n/a	0	0	0
496.524	n/a	WORD	248262	wordpools/wasnorm_wordpool_576.txt	LTP290	ltpFR2	15	2	PUPPY	1144	n/a	n/a	0	0	0
499.036	n/a	WORD	249518	wordpools/wasnorm_wordpool_576.txt	LTP290	ltpFR2	15	2	BRANDY	169	n/a	n/a	0	0	0
501.594	n/a	WORD	250797	wordpools/wasnorm_wordpool_576.txt	LTP290	ltpFR2	15	2	BLADE	134	n/a	n/a	0	0	0
504.084	n/a	WORD	252042	wordpools/wasnorm_wordpool_576.txt	LTP290	ltpFR2	15	2	LADDER	793	n/a	n/a	0	0	0
506.894	n/a	WORD	253447	wordpools/wasnorm_wordpool_576.txt	LTP290	ltpFR2	15	2	CASKET	255	n/a	n/a	0	0	0
509.44	n/a	WORD	254720	wordpools/wasnorm_wordpool_576.txt	LTP290	ltpFR2	15	2	PASSAGE	1019	n/a	n/a	0	0	0
512.198	n/a	WORD	256099	wordpools/wasnorm_wordpool_576.txt	LTP290	ltpFR2	15	2	COCKTAIL	338	n/a	n/a	0	0	0
514.762	n/a	WORD	257381	wordpools/wasnorm_wordpool_576.txt	LTP290	ltpFR2	15	2	LODGE	839	n/a	n/a	0	0	0
516.38	n/a	START	258190	n/a	LTP290	ltpFR2	15	n/a	n/a	n/a	2	n/a	n/a	n/a	n/a
517.182	n/a	DISTRACTOR	258591	n/a	LTP290	ltpFR2	15	2	n/a	n/a	n/a	n/a	0	0	0
517.2	n/a	PROB	258600	n/a	LTP290	ltpFR2	15	n/a	n/a	n/a	2	11	5	2	4
518.57	n/a	PROB	259285	n/a	LTP290	ltpFR2	15	n/a	n/a	n/a	2	17	7	7	3
520.328	n/a	PROB	260164	n/a	LTP290	ltpFR2	15	n/a	n/a	n/a	2	9	3	2	4
521.852	n/a	PROB	260926	n/a	LTP290	ltpFR2	15	n/a	n/a	n/a	2	7	3	2	2
523.808	n/a	PROB	261904	n/a	LTP290	ltpFR2	15	n/a	n/a	n/a	2	18	6	4	8
525.002	n/a	PROB	262501	n/a	LTP290	ltpFR2	15	n/a	n/a	n/a	2	11	5	1	5
526.084	n/a	PROB	263042	n/a	LTP290	ltpFR2	15	n/a	n/a	n/a	2	16	6	6	4
527.69	n/a	PROB	263845	n/a	LTP290	ltpFR2	15	n/a	n/a	n/a	2	13	5	6	2
530.724	n/a	PROB	265362	n/a	LTP290	ltpFR2	15	n/a	n/a	n/a	2	22	8	5	9
534.536	n/a	PROB	267268	n/a	LTP290	ltpFR2	15	n/a	n/a	n/a	2	10	1	7	2
535.788	n/a	PROB	267894	n/a	LTP290	ltpFR2	15	n/a	n/a	n/a	2	20	4	8	8
538.162	n/a	PROB	269081	n/a	LTP290	ltpFR2	15	n/a	n/a	n/a	2	6	1	4	1
539.202	n/a	STOP	269601	n/a	LTP290	ltpFR2	15	n/a	n/a	n/a	2	n/a	n/a	n/a	n/a
542.33	n/a	REC_START	271165	n/a	LTP290	ltpFR2	15	2	n/a	n/a	n/a	n/a	0	0	0
544.45	n/a	REC_WORD	272225	wordpools/wasnorm_wordpool_576.txt	LTP290	ltpFR2	15	2	CASKET	255	n/a	n/a	0	0	0
545.096	n/a	REC_WORD	272548	wordpools/wasnorm_wordpool_576.txt	LTP290	ltpFR2	15	2	PASSAGE	1019	n/a	n/a	0	0	0
552.566	n/a	REC_WORD	276283	wordpools/wasnorm_wordpool_576.txt	LTP290	ltpFR2	15	2	COCKTAIL	338	n/a	n/a	0	0	0
553.23	n/a	REC_WORD	276615	wordpools/wasnorm_wordpool_576.txt	LTP290	ltpFR2	15	2	LODGE	839	n/a	n/a	0	0	0
633.382	n/a	DISTRACTOR	316691	n/a	LTP290	ltpFR2	15	3	n/a	n/a	n/a	n/a	0	0	0
633.382	n/a	START	316691	n/a	LTP290	ltpFR2	15	n/a	n/a	n/a	3	n/a	n/a	n/a	n/a
633.432	n/a	PROB	316716	n/a	LTP290	ltpFR2	15	n/a	n/a	n/a	3	18	8	7	3
634.65	n/a	PROB	317325	n/a	LTP290	ltpFR2	15	n/a	n/a	n/a	3	13	2	2	9
636.104	n/a	PROB	318052	n/a	LTP290	ltpFR2	15	n/a	n/a	n/a	3	11	5	3	3
637.326	n/a	PROB	318663	n/a	LTP290	ltpFR2	15	n/a	n/a	n/a	3	16	7	7	2
638.564	n/a	PROB	319282	n/a	LTP290	ltpFR2	15	n/a	n/a	n/a	3	15	4	8	3
641.776	n/a	PROB	320888	n/a	LTP290	ltpFR2	15	n/a	n/a	n/a	3	13	1	7	5
643.098	n/a	PROB	321549	n/a	LTP290	ltpFR2	15	n/a	n/a	n/a	3	15	5	5	5
644.186	n/a	PROB	322093	n/a	LTP290	ltpFR2	15	n/a	n/a	n/a	3	15	4	3	8
645.422	n/a	PROB	322711	n/a	LTP290	ltpFR2	15	n/a	n/a	n/a	3	10	1	8	1
646.51	n/a	PROB	323255	n/a	LTP290	ltpFR2	15	n/a	n/a	n/a	3	8	5	1	2
648.122	n/a	PROB	324061	n/a	LTP290	ltpFR2	15	n/a	n/a	n/a	3	16	6	8	2
649.52	n/a	PROB	324760	n/a	LTP290	ltpFR2	15	n/a	n/a	n/a	3	10	7	2	1
650.812	n/a	PROB	325406	n/a	LTP290	ltpFR2	15	n/a	n/a	n/a	3	12	4	7	1
652.818	n/a	PROB	326409	n/a	LTP290	ltpFR2	15	n/a	n/a	n/a	3	10	5	2	3
654.664	n/a	PROB	327332	n/a	LTP290	ltpFR2	15	n/a	n/a	n/a	3	11	4	6	1
655.976	n/a	STOP	327988	n/a	LTP290	ltpFR2	15	n/a	n/a	n/a	3	n/a	n/a	n/a	n/a
658.228	n/a	WORD	329114	wordpools/wasnorm_wordpool_576.txt	LTP290	ltpFR2	15	3	BLOCKADE	137	n/a	n/a	0	0	0
660.698	n/a	WORD	330349	wordpools/wasnorm_wordpool_576.txt	LTP290	ltpFR2	15	3	CRAB	397	n/a	n/a	0	0	0
663.496	n/a	WORD	331748	wordpools/wasnorm_wordpool_576.txt	LTP290	ltpFR2	15	3	GUARD	667	n/a	n/a	0	0	0
666.124	n/a	WORD	333062	wordpools/wasnorm_wordpool_576.txt	LTP290	ltpFR2	15	3	HORNET	718	n/a	n/a	0	0	0
668.548	n/a	WORD	334274	wordpools/wasnorm_wordpool_576.txt	LTP290	ltpFR2	15	3	ARMY	39	n/a	n/a	0	0	0
671.36	n/a	WORD	335680	wordpools/wasnorm_wordpool_576.txt	LTP290	ltpFR2	15	3	PARENT	1013	n/a	n/a	0	0	0
674.088	n/a	WORD	337044	wordpools/wasnorm_wordpool_576.txt	LTP290	ltpFR2	15	3	POLICE	1098	n/a	n/a	0	0	0
676.898	n/a	WORD	338449	wordpools/wasnorm_wordpool_576.txt	LTP290	ltpFR2	15	3	STICKER	1382	n/a	n/a	0	0	0
679.408	n/a	WORD	339704	wordpools/wasnorm_wordpool_576.txt	LTP290	ltpFR2	15	3	SEAL	1262	n/a	n/a	0	0	0
682.002	n/a	WORD	341001	wordpools/wasnorm_wordpool_576.txt	LTP290	ltpFR2	15	3	SHARK	1275	n/a	n/a	0	0	0
684.79	n/a	WORD	342395	wordpools/wasnorm_wordpool_576.txt	LTP290	ltpFR2	15	3	HOOK	715	n/a	n/a	0	0	0
687.488	n/a	WORD	343744	wordpools/wasnorm_wordpool_576.txt	LTP290	ltpFR2	15	3	SPOON	1357	n/a	n/a	0	0	0
690.116	n/a	WORD	345058	wordpools/wasnorm_wordpool_576.txt	LTP290	ltpFR2	15	3	SHOVEL	1295	n/a	n/a	0	0	0
692.742	n/a	WORD	346371	wordpools/wasnorm_wordpool_576.txt	LTP290	ltpFR2	15	3	WHISTLE	1606	n/a	n/a	0	0	0
695.486	n/a	WORD	347743	wordpools/wasnorm_wordpool_576.txt	LTP290	ltpFR2	15	3	COIN	343	n/a	n/a	0	0	0
697.908	n/a	WORD	348954	wordpools/wasnorm_wordpool_576.txt	LTP290	ltpFR2	15	3	KNIFE	785	n/a	n/a	0	0	0
700.348	n/a	WORD	350174	wordpools/wasnorm_wordpool_576.txt	LTP290	ltpFR2	15	3	ROD	1203	n/a	n/a	0	0	0
702.848	n/a	WORD	351424	wordpools/wasnorm_wordpool_576.txt	LTP290	ltpFR2	15	3	OX	994	n/a	n/a	0	0	0
705.456	n/a	WORD	352728	wordpools/wasnorm_wordpool_576.txt	LTP290	ltpFR2	15	3	CREATURE	403	n/a	n/a	0	0	0
707.946	n/a	WORD	353973	wordpools/wasnorm_wordpool_576.txt	LTP290	ltpFR2	15	3	PIANO	1057	n/a	n/a	0	0	0
710.694	n/a	WORD	355347	wordpools/wasnorm_wordpool_576.txt	LTP290	ltpFR2	15	3	VAGRANT	1544	n/a	n/a	0	0	0
713.232	n/a	WORD	356616	wordpools/wasnorm_wordpool_576.txt	LTP290	ltpFR2	15	3	CATTLE	261	n/a	n/a	0	0	0
715.86	n/a	WORD	357930	wordpools/wasnorm_wordpool_576.txt	LTP290	ltpFR2	15	3	MILK	895	n/a	n/a	0	0	0
718.49	n/a	WORD	359245	wordpools/wasnorm_wordpool_576.txt	LTP290	ltpFR2	15	3	STAPLE	1371	n/a	n/a	0	0	0
720.098	n/a	START	360049	n/a	LTP290	ltpFR2	15	n/a	n/a	n/a	4	n/a	n/a	n/a	n/a
721.002	n/a	DISTRACTOR	360501	n/a	LTP290	ltpFR2	15	3	n/a	n/a	n/a	n/a	0	0	0
721.016	n/a	PROB	360508	n/a	LTP290	ltpFR2	15	n/a	n/a	n/a	4	11	1	9	1
722.188	n/a	PROB	361094	n/a	LTP290	ltpFR2	15	n/a	n/a	n/a	4	13	9	1	3
723.57	n/a	PROB	361785	n/a	LTP290	ltpFR2	15	n/a	n/a	n/a	4	16	4	9	3
725.196	n/a	PROB	362598	n/a	LTP290	ltpFR2	15	n/a	n/a	n/a	4	13	7	4	2
726.84	n/a	PROB	363420	n/a	LTP290	ltpFR2	15	n/a	n/a	n/a	4	15	3	9	3
728.776	n/a	PROB	364388	n/a	LTP290	ltpFR2	15	n/a	n/a	n/a	4	12	4	2	6
730.766	n/a	PROB	365383	n/a	LTP290	ltpFR2	15	n/a	n/a	n/a	4	13	5	7	1
732.438	n/a	PROB	366219	n/a	LTP290	ltpFR2	15	n/a	n/a	n/a	4	19	8	7	4
733.962	n/a	PROB	366981	n/a	LTP290	ltpFR2	15	n/a	n/a	n/a	4	8	1	4	3
735.35	n/a	PROB	367675	n/a	LTP290	ltpFR2	15	n/a	n/a	n/a	4	13	5	6	2
736.722	n/a	PROB	368361	n/a	LTP290	ltpFR2	15	n/a	n/a	n/a	4	11	5	3	3
737.948	n/a	PROB	368974	n/a	LTP290	ltpFR2	15	n/a	n/a	n/a	4	7	1	1	5
739.098	n/a	PROB	369549	n/a	LTP290	ltpFR2	15	n/a	n/a	n/a	4	3	1	1	1
740.168	n/a	PROB	370084	n/a	LTP290	ltpFR2	15	n/a	n/a	n/a	4	15	6	7	2
742.11	n/a	PROB	371055	n/a	LTP290	ltpFR2	15	n/a	n/a	n/a	4	21	7	7	7
743.46	n/a	STOP	371730	n/a	LTP290	ltpFR2	15	n/a	n/a	n/a	4	n/a	n/a	n/a	n/a
746.042	n/a	REC_START	373021	n/a	LTP290	ltpFR2	15	3	n/a	n/a	n/a	n/a	0	0	0
747.834	n/a	REC_WORD_VV	373917	wordpools/wasnorm_wordpool_576.txt	LTP290	ltpFR2	15	3	<>	-1	n/a	n/a	0	0	0
748.506	n/a	REC_WORD	374253	wordpools/wasnorm_wordpool_576.txt	LTP290	ltpFR2	15	3	HORNET	718	n/a	n/a	0	0	0
749.122	n/a	REC_WORD	374561	wordpools/wasnorm_wordpool_576.txt	LTP290	ltpFR2	15	3	ARMY	39	n/a	n/a	0	0	0
749.728	n/a	REC_WORD	374864	wordpools/wasnorm_wordpool_576.txt	LTP290	ltpFR2	15	3	PARENT	1013	n/a	n/a	0	0	0
752.668	n/a	REC_WORD	376334	wordpools/wasnorm_wordpool_576.txt	LTP290	ltpFR2	15	3	SEAL	1262	n/a	n/a	0	0	0
768.172	n/a	REC_WORD	384086	wordpools/wasnorm_wordpool_576.txt	LTP290	ltpFR2	15	3	VAGRANT	1544	n/a	n/a	0	0	0
769.516	n/a	REC_WORD	384758	wordpools/wasnorm_wordpool_576.txt	LTP290	ltpFR2	15	3	PIANO	1057	n/a	n/a	0	0	0
837.078	n/a	DISTRACTOR	418539	n/a	LTP290	ltpFR2	15	4	n/a	n/a	n/a	n/a	0	0	0
837.078	n/a	START	418539	n/a	LTP290	ltpFR2	15	n/a	n/a	n/a	5	n/a	n/a	n/a	n/a
837.128	n/a	PROB	418564	n/a	LTP290	ltpFR2	15	n/a	n/a	n/a	5	16	9	5	2
838.814	n/a	PROB	419407	n/a	LTP290	ltpFR2	15	n/a	n/a	n/a	5	11	3	4	4
840.286	n/a	PROB	420143	n/a	LTP290	ltpFR2	15	n/a	n/a	n/a	5	17	3	7	7
841.622	n/a	PROB	420811	n/a	LTP290	ltpFR2	15	n/a	n/a	n/a	5	14	3	8	3
843.97	n/a	PROB	421985	n/a	LTP290	ltpFR2	15	n/a	n/a	n/a	5	9	4	2	3
845.354	n/a	PROB	422677	n/a	LTP290	ltpFR2	15	n/a	n/a	n/a	5	18	3	8	4
846.994	n/a	PROB	423497	n/a	LTP290	ltpFR2	15	n/a	n/a	n/a	5	19	5	9	5
848.386	n/a	PROB	424193	n/a	LTP290	ltpFR2	15	n/a	n/a	n/a	5	17	5	6	6
850.172	n/a	PROB	425086	n/a	LTP290	ltpFR2	15	n/a	n/a	n/a	5	13	8	3	2
851.762	n/a	PROB	425881	n/a	LTP290	ltpFR2	15	n/a	n/a	n/a	5	14	6	6	2
853.188	n/a	PROB	426594	n/a	LTP290	ltpFR2	15	n/a	n/a	n/a	5	20	9	2	9
856.686	n/a	PROB	428343	n/a	LTP290	ltpFR2	15	n/a	n/a	n/a	5	21	7	7	7
857.724	n/a	PROB	428862	n/a	LTP290	ltpFR2	15	n/a	n/a	n/a	5	18	7	3	8
859.262	n/a	PROB	429631	n/a	LTP290	ltpFR2	15	n/a	n/a	n/a	5	16	2	9	5
860.652	n/a	STOP	430326	n/a	LTP290	ltpFR2	15	n/a	n/a	n/a	5	n/a	n/a	n/a	n/a
862.006	n/a	WORD	431003	wordpools/wasnorm_wordpool_576.txt	LTP290	ltpFR2	15	4	ZEBRA	1635	n/a	n/a	0	0	0
864.526	n/a	WORD	432263	wordpools/wasnorm_wordpool_576.txt	LTP290	ltpFR2	15	4	STALLION	1369	n/a	n/a	0	0	0
867.076	n/a	WORD	433538	wordpools/wasnorm_wordpool_576.txt	LTP290	ltpFR2	15	4	SNAKE	1333	n/a	n/a	0	0	0
869.634	n/a	WORD	434817	wordpools/wasnorm_wordpool_576.txt	LTP290	ltpFR2	15	4	COTTAGE	384	n/a	n/a	0	0	0
872.224	n/a	WORD	436112	wordpools/wasnorm_wordpool_576.txt	LTP290	ltpFR2	15	4	PARSLEY	1016	n/a	n/a	0	0	0
874.75	n/a	WORD	437375	wordpools/wasnorm_wordpool_576.txt	LTP290	ltpFR2	15	4	STONE	1385	n/a	n/a	0	0	0
877.248	n/a	WORD	438624	wordpools/wasnorm_wordpool_576.txt	LTP290	ltpFR2	15	4	JUDGE	761	n/a	n/a	0	0	0
879.986	n/a	WORD	439993	wordpools/wasnorm_wordpool_576.txt	LTP290	ltpFR2	15	4	MILDEW	893	n/a	n/a	0	0	0
882.412	n/a	WORD	441206	wordpools/wasnorm_wordpool_576.txt	LTP290	ltpFR2	15	4	GANGSTER	620	n/a	n/a	0	0	0
885.174	n/a	WORD	442587	wordpools/wasnorm_wordpool_576.txt	LTP290	ltpFR2	15	4	LEADER	807	n/a	n/a	0	0	0
887.632	n/a	WORD	443816	wordpools/wasnorm_wordpool_576.txt	LTP290	ltpFR2	15	4	FOOTBALL	591	n/a	n/a	0	0	0
890.348	n/a	WORD	445174	wordpools/wasnorm_wordpool_576.txt	LTP290	ltpFR2	15	4	PEBBLE	1035	n/a	n/a	0	0	0
892.874	n/a	WORD	446437	wordpools/wasnorm_wordpool_576.txt	LTP290	ltpFR2	15	4	BRICK	172	n/a	n/a	0	0	0
895.58	n/a	WORD	447790	wordpools/wasnorm_wordpool_576.txt	LTP290	ltpFR2	15	4	MOTEL	919	n/a	n/a	0	0	0
898.372	n/a	WORD	449186	wordpools/wasnorm_wordpool_576.txt	LTP290	ltpFR2	15	4	LOFT	840	n/a	n/a	0	0	0
900.866	n/a	WORD	450433	wordpools/wasnorm_wordpool_576.txt	LTP290	ltpFR2	15	4	STOMACH	1384	n/a	n/a	0	0	0
903.396	n/a	WORD	451698	wordpools/wasnorm_wordpool_576.txt	LTP290	ltpFR2	15	4	VIKING	1565	n/a	n/a	0	0	0
906.092	n/a	WORD	453046	wordpools/wasnorm_wordpool_576.txt	LTP290	ltpFR2	15	4	SKIRT	1319	n/a	n/a	0	0	0
908.814	n/a	WORD	454407	wordpools/wasnorm_wordpool_576.txt	LTP290	ltpFR2	15	4	PERFUME	1049	n/a	n/a	0	0	0
911.428	n/a	WORD	455714	wordpools/wasnorm_wordpool_576.txt	LTP290	ltpFR2	15	4	GARLIC	624	n/a	n/a	0	0	0
913.988	n/a	WORD	456994	wordpools/wasnorm_wordpool_576.txt	LTP290	ltpFR2	15	4	CELLAR	267	n/a	n/a	0	0	0
916.442	n/a	WORD	458221	wordpools/wasnorm_wordpool_576.txt	LTP290	ltpFR2	15	4	SKETCH	1315	n/a	n/a	0	0	0
918.936	n/a	WORD	459468	wordpools/wasnorm_wordpool_576.txt	LTP290	ltpFR2	15	4	CONCERT	360	n/a	n/a	0	0	0
921.68	n/a	WORD	460840	wordpools/wasnorm_wordpool_576.txt	LTP290	ltpFR2	15	4	HELMET	702	n/a	n/a	0	0	0
923.29	n/a	START	461645	n/a	LTP290	ltpFR2	15	n/a	n/a	n/a	6	n/a	n/a	n/a	n/a
924.43	n/a	DISTRACTOR	462215	n/a	LTP290	ltpFR2	15	4	n/a	n/a	n/a	n/a	0	0	0
924.444	n/a	PROB	462222	n/a	LTP290	ltpFR2	15	n/a	n/a	n/a	6	12	3	7	2
925.962	n/a	PROB	462981	n/a	LTP290	ltpFR2	15	n/a	n/a	n/a	6	20	8	6	6
927.656	n/a	PROB	463828	n/a	LTP290	ltpFR2	15	n/a	n/a	n/a	6	22	7	8	7
931.752	n/a	PROB	465876	n/a	LTP290	ltpFR2	15	n/a	n/a	n/a	6	5	1	1	3
932.89	n/a	PROB	466445	n/a	LTP290	ltpFR2	15	n/a	n/a	n/a	6	16	6	9	1
934.512	n/a	PROB	467256	n/a	LTP290	ltpFR2	15	n/a	n/a	n/a	6	14	8	3	3
935.95	n/a	PROB	467975	n/a	LTP290	ltpFR2	15	n/a	n/a	n/a	6	10	2	5	3
938.008	n/a	PROB	469004	n/a	LTP290	ltpFR2	15	n/a	n/a	n/a	6	13	2	8	3
939.53	n/a	PROB	469765	n/a	LTP290	ltpFR2	15	n/a	n/a	n/a	6	16	3	6	7
941.626	n/a	PROB	470813	n/a	LTP290	ltpFR2	15	n/a	n/a	n/a	6	13	3	3	7
943.262	n/a	PROB	471631	n/a	LTP290	ltpFR2	15	n/a	n/a	n/a	6	19	8	8	3
945.118	n/a	PROB	472559	n/a	LTP290	ltpFR2	15	n/a	n/a	n/a	6	15	2	8	5
946.24	n/a	STOP	473120	n/a	LTP290	ltpFR2	15	n/a	n/a	n/a	6	n/a	n/a	n/a	n/a
949.168	n/a	REC_START	474584	n/a	LTP290	ltpFR2	15	4	n/a	n/a	n/a	n/a	0	0	0
950.414	n/a	REC_WORD	475207	wordpools/wasnorm_wordpool_576.txt	LTP290	ltpFR2	15	4	HELMET	702	n/a	n/a	0	0	0
950.928	n/a	REC_WORD	475464	wordpools/wasnorm_wordpool_576.txt	LTP290	ltpFR2	15	4	CONCERT	360	n/a	n/a	0	0	0
952.332	n/a	REC_WORD_VV	476166	wordpools/wasnorm_wordpool_576.txt	LTP290	ltpFR2	15	4	<>	-1	n/a	n/a	0	0	0
955.184	n/a	REC_WORD	477592	wordpools/wasnorm_wordpool_576.txt	LTP290	ltpFR2	15	4	ZEBRA	1635	n/a	n/a	0	0	0
958.012	n/a	REC_WORD	479006	wordpools/wasnorm_wordpool_576.txt	LTP290	ltpFR2	15	4	COBRA	336	n/a	n/a	0	0	0
1040.222	n/a	DISTRACTOR	520111	n/a	LTP290	ltpFR2	15	5	n/a	n/a	n/a	n/a	0	0	0
1040.222	n/a	START	520111	n/a	LTP290	ltpFR2	15	n/a	n/a	n/a	7	n/a	n/a	n/a	n/a
1040.272	n/a	PROB	520136	n/a	LTP290	ltpFR2	15	n/a	n/a	n/a	7	13	3	3	7
1041.486	n/a	PROB	520743	n/a	LTP290	ltpFR2	15	n/a	n/a	n/a	7	15	3	7	5
1043.6	n/a	PROB	521800	n/a	LTP290	ltpFR2	15	n/a	n/a	n/a	7	24	7	9	8
1046.824	n/a	PROB	523412	n/a	LTP290	ltpFR2	15	n/a	n/a	n/a	7	13	4	7	2
1048.246	n/a	PROB	524123	n/a	LTP290	ltpFR2	15	n/a	n/a	n/a	7	11	5	4	2
1049.618	n/a	PROB	524809	n/a	LTP290	ltpFR2	15	n/a	n/a	n/a	7	15	4	8	3
1051.062	n/a	PROB	525531	n/a	LTP290	ltpFR2	15	n/a	n/a	n/a	7	18	5	7	6
1052.78	n/a	PROB	526390	n/a	LTP290	ltpFR2	15	n/a	n/a	n/a	7	19	7	6	6
1054.636	n/a	PROB	527318	n/a	LTP290	ltpFR2	15	n/a	n/a	n/a	7	9	5	1	3
1056.16	n/a	PROB	528080	n/a	LTP290	ltpFR2	15	n/a	n/a	n/a	7	20	8	6	6
1057.766	n/a	PROB	528883	n/a	LTP290	ltpFR2	15	n/a	n/a	n/a	7	23	9	7	7
1060.398	n/a	PROB	530199	n/a	LTP290	ltpFR2	15	n/a	n/a	n/a	7	18	8	9	1
1061.904	n/a	PROB	530952	n/a	LTP290	ltpFR2	15	n/a	n/a	n/a	7	19	8	8	3
1063.358	n/a	STOP	531679	n/a	LTP290	ltpFR2	15	n/a	n/a	n/a	7	n/a	n/a	n/a	n/a
1065.366	n/a	WORD	532683	wordpools/wasnorm_wordpool_576.txt	LTP290	ltpFR2	15	5	CANYON	235	n/a	n/a	0	0	0
1067.822	n/a	WORD	533911	wordpools/wasnorm_wordpool_576.txt	LTP290	ltpFR2	15	5	FOX	598	n/a	n/a	0	0	0
1070.402	n/a	WORD	535201	wordpools/wasnorm_wordpool_576.txt	LTP290	ltpFR2	15	5	PREACHER	1119	n/a	n/a	0	0	0
1073.046	n/a	WORD	536523	wordpools/wasnorm_wordpool_576.txt	LTP290	ltpFR2	15	5	WORKER	1621	n/a	n/a	0	0	0
1075.538	n/a	WORD	537769	wordpools/wasnorm_wordpool_576.txt	LTP290	ltpFR2	15	5	MARKET	871	n/a	n/a	0	0	0
1078.116	n/a	WORD	539058	wordpools/wasnorm_wordpool_576.txt	LTP290	ltpFR2	15	5	TRUCK	1512	n/a	n/a	0	0	0
1080.574	n/a	WORD	540287	wordpools/wasnorm_wordpool_576.txt	LTP290	ltpFR2	15	5	IDOL	733	n/a	n/a	0	0	0
1083.114	n/a	WORD	541557	wordpools/wasnorm_wordpool_576.txt	LTP290	ltpFR2	15	5	SPARROW	1347	n/a	n/a	0	0	0
1085.824	n/a	WORD	542912	wordpools/wasnorm_wordpool_576.txt	LTP290	ltpFR2	15	5	PENGUIN	1044	n/a	n/a	0	0	0
1088.37	n/a	WORD	544185	wordpools/wasnorm_wordpool_576.txt	LTP290	ltpFR2	15	5	POPCORN	1104	n/a	n/a	0	0	0
1091.182	n/a	WORD	545591	wordpools/wasnorm_wordpool_576.txt	LTP290	ltpFR2	15	5	GHETTO	633	n/a	n/a	0	0	0
1093.77	n/a	WORD	546885	wordpools/wasnorm_wordpool_576.txt	LTP290	ltpFR2	15	5	SLOPE	1328	n/a	n/a	0	0	0
1096.418	n/a	WORD	548209	wordpools/wasnorm_wordpool_576.txt	LTP290	ltpFR2	15	5	ORCHID	982	n/a	n/a	0	0	0
1098.896	n/a	WORD	549448	wordpools/wasnorm_wordpool_576.txt	LTP290	ltpFR2	15	5	PLUTO	1092	n/a	n/a	0	0	0
1101.42	n/a	WORD	550710	wordpools/wasnorm_wordpool_576.txt	LTP290	ltpFR2	15	5	ROBOT	1200	n/a	n/a	0	0	0
1104.178	n/a	WORD	552089	wordpools/wasnorm_wordpool_576.txt	LTP290	ltpFR2	15	5	WASHER	1592	n/a	n/a	0	0	0
1106.776	n/a	WORD	553388	wordpools/wasnorm_wordpool_576.txt	LTP290	ltpFR2	15	5	GRAVE	658	n/a	n/a	0	0	0
1109.318	n/a	WORD	554659	wordpools/wasnorm_wordpool_576.txt	LTP290	ltpFR2	15	5	CARRIAGE	248	n/a	n/a	0	0	0
1111.962	n/a	WORD	555981	wordpools/wasnorm_wordpool_576.txt	LTP290	ltpFR2	15	5	MOTOR	922	n/a	n/a	0	0	0
1114.42	n/a	WORD	557210	wordpools/wasnorm_wordpool_576.txt	LTP290	ltpFR2	15	5	PASTA	1021	n/a	n/a	0	0	0
1116.998	n/a	WORD	558499	wordpools/wasnorm_wordpool_576.txt	LTP290	ltpFR2	15	5	POWDER	1117	n/a	n/a	0	0	0
1119.49	n/a	WORD	559745	wordpools/wasnorm_wordpool_576.txt	LTP290	ltpFR2	15	5	POISON	1096	n/a	n/a	0	0	0
1121.916	n/a	WORD	560958	wordpools/wasnorm_wordpool_576.txt	LTP290	ltpFR2	15	5	PIMPLE	1071	n/a	n/a	0	0	0
1124.738	n/a	WORD	562369	wordpools/wasnorm_wordpool_576.txt	LTP290	ltpFR2	15	5	LUGGAGE	847	n/a	n/a	0	0	0
1126.35	n/a	START	563175	n/a	LTP290	ltpFR2	15	n/a	n/a	n/a	8	n/a	n/a	n/a	n/a
1127.276	n/a	DISTRACTOR	563638	n/a	LTP290	ltpFR2	15	5	n/a	n/a	n/a	n/a	0	0	0
1127.286	n/a	PROB	563643	n/a	LTP290	ltpFR2	15	n/a	n/a	n/a	8	17	9	2	6
1129.544	n/a	PROB	564772	n/a	LTP290	ltpFR2	15	n/a	n/a	n/a	8	18	5	7	6
1131.286	n/a	PROB	565643	n/a	LTP290	ltpFR2	15	n/a	n/a	n/a	8	10	1	8	1
1132.434	n/a	PROB	566217	n/a	LTP290	ltpFR2	15	n/a	n/a	n/a	8	23	7	8	8
1136.902	n/a	PROB	568451	n/a	LTP290	ltpFR2	15	n/a	n/a	n/a	8	17	5	5	7
1138.246	n/a	PROB	569123	n/a	LTP290	ltpFR2	15	n/a	n/a	n/a	8	13	3	6	4
1139.444	n/a	PROB	569722	n/a	LTP290	ltpFR2	15	n/a	n/a	n/a	8	12	1	9	2
1141.32	n/a	PROB	570660	n/a	LTP290	ltpFR2	15	n/a	n/a	n/a	8	19	8	4	7
1142.842	n/a	PROB	571421	n/a	LTP290	ltpFR2	15	n/a	n/a	n/a	8	15	9	1	5
1144.23	n/a	PROB	572115	n/a	LTP290	ltpFR2	15	n/a	n/a	n/a	8	15	9	2	4
1146.07	n/a	PROB	573035	n/a	LTP290	ltpFR2	15	n/a	n/a	n/a	8	17	9	6	2
1147.794	n/a	PROB	573897	n/a	LTP290	ltpFR2	15	n/a	n/a	n/a	8	11	3	3	5
1149.018	n/a	STOP	574509	n/a	LTP290	ltpFR2	15	n/a	n/a	n/a	8	n/a	n/a	n/a	n/a
1152.262	n/a	REC_START	576131	n/a	LTP290	ltpFR2	15	5	n/a	n/a	n/a	n/a	0	0	0
1158.604	n/a	REC_WORD_VV	579302	wordpools/wasnorm_wordpool_576.txt	LTP290	ltpFR2	15	5	<>	-1	n/a	n/a	0	0	0
1159.478	n/a	REC_WORD	579739	wordpools/wasnorm_wordpool_576.txt	LTP290	ltpFR2	15	5	ORCHID	982	n/a	n/a	0	0	0
1202.07	n/a	REC_WORD	601035	wordpools/wasnorm_wordpool_576.txt	LTP290	ltpFR2	15	5	MOTOR	922	n/a	n/a	0	0	0
1243.298	n/a	WORD	621649	wordpools/wasnorm_wordpool_576.txt	LTP290	ltpFR2	15	6	CLOTHES	327	n/a	n/a	0	0	0
1245.908	n/a	WORD	622954	wordpools/wasnorm_wordpool_576.txt	LTP290	ltpFR2	15	6	PLAZA	1088	n/a	n/a	0	0	0
1248.334	n/a	WORD	624167	wordpools/wasnorm_wordpool_576.txt	LTP290	ltpFR2	15	6	CREVICE	405	n/a	n/a	0	0	0
1251.056	n/a	WORD	625528	wordpools/wasnorm_wordpool_576.txt	LTP290	ltpFR2	15	6	SIBLING	1301	n/a	n/a	0	0	0
1253.716	n/a	WORD	626858	wordpools/wasnorm_wordpool_576.txt	LTP290	ltpFR2	15	6	BANK	83	n/a	n/a	0	0	0
1256.474	n/a	WORD	628237	wordpools/wasnorm_wordpool_576.txt	LTP290	ltpFR2	15	6	MATTRESS	879	n/a	n/a	0	0	0
1259.124	n/a	WORD	629562	wordpools/wasnorm_wordpool_576.txt	LTP290	ltpFR2	15	6	SPIDER	1351	n/a	n/a	0	0	0
1261.868	n/a	WORD	630934	wordpools/wasnorm_wordpool_576.txt	LTP290	ltpFR2	15	6	COCOON	339	n/a	n/a	0	0	0
1264.478	n/a	WORD	632239	wordpools/wasnorm_wordpool_576.txt	LTP290	ltpFR2	15	6	ANKLE	24	n/a	n/a	0	0	0
1267.138	n/a	WORD	633569	wordpools/wasnorm_wordpool_576.txt	LTP290	ltpFR2	15	6	TEMPLE	1448	n/a	n/a	0	0	0
1269.766	n/a	WORD	634883	wordpools/wasnorm_wordpool_576.txt	LTP290	ltpFR2	15	6	LABEL	790	n/a	n/a	0	0	0
1272.292	n/a	WORD	636146	wordpools/wasnorm_wordpool_576.txt	LTP290	ltpFR2	15	6	MUMMY	932	n/a	n/a	0	0	0
1274.902	n/a	WORD	637451	wordpools/wasnorm_wordpool_576.txt	LTP290	ltpFR2	15	6	STATUE	1374	n/a	n/a	0	0	0
1277.388	n/a	WORD	638694	wordpools/wasnorm_wordpool_576.txt	LTP290	ltpFR2	15	6	RUST	1219	n/a	n/a	0	0	0
1280.206	n/a	WORD	640103	wordpools/wasnorm_wordpool_576.txt	LTP290	ltpFR2	15	6	BEAVER	109	n/a	n/a	0	0	0
1282.878	n/a	WORD	641439	wordpools/wasnorm_wordpool_576.txt	LTP290	ltpFR2	15	6	BEAST	108	n/a	n/a	0	0	0
1285.524	n/a	WORD	642762	wordpools/wasnorm_wordpool_576.txt	LTP290	ltpFR2	15	6	WHISKERS	1605	n/a	n/a	0	0	0
1288.052	n/a	WORD	644026	wordpools/wasnorm_wordpool_576.txt	LTP290	ltpFR2	15	6	SHOULDER	1294	n/a	n/a	0	0	0
1290.576	n/a	WORD	645288	wordpools/wasnorm_wordpool_576.txt	LTP290	ltpFR2	15	6	PLATE	1086	n/a	n/a	0	0	0
1293.334	n/a	WORD	646667	wordpools/wasnorm_wordpool_576.txt	LTP290	ltpFR2	15	6	CIGAR	308	n/a	n/a	0	0	0
1295.998	n/a	WORD	647999	wordpools/wasnorm_wordpool_576.txt	LTP290	ltpFR2	15	6	DENIM	446	n/a	n/a	0	0	0
1298.608	n/a	WORD	649304	wordpools/wasnorm_wordpool_576.txt	LTP290	ltpFR2	15	6	CHURCH	307	n/a	n/a	0	0	0
1301.068	n/a	WORD	650534	wordpools/wasnorm_wordpool_576.txt	LTP290	ltpFR2	15	6	COUSIN	392	n/a	n/a	0	0	0
1303.526	n/a	WORD	651763	wordpools/wasnorm_wordpool_576.txt	LTP290	ltpFR2	15	6	HUMAN	726	n/a	n/a	0	0	0
1305.134	n/a	START	652567	n/a	LTP290	ltpFR2	15	n/a	n/a	n/a	9	n/a	n/a	n/a	n/a
1306.256	n/a	DISTRACTOR	653128	n/a	LTP290	ltpFR2	15	6	n/a	n/a	n/a	n/a	0	0	0
1306.272	n/a	PROB	653136	n/a	LTP290	ltpFR2	15	n/a	n/a	n/a	9	12	6	4	2
1307.76	n/a	PROB	653880	n/a	LTP290	ltpFR2	15	n/a	n/a	n/a	9	11	1	3	7
1309.066	n/a	PROB	654533	n/a	LTP290	ltpFR2	15	n/a	n/a	n/a	9	12	2	9	2
1310.504	n/a	PROB	655252	n/a	LTP290	ltpFR2	15	n/a	n/a	n/a	9	25	9	8	8
1313.282	n/a	PROB	656641	n/a	LTP290	ltpFR2	15	n/a	n/a	n/a	9	18	6	6	6
1316.744	n/a	PROB	658372	n/a	LTP290	ltpFR2	15	n/a	n/a	n/a	9	16	8	7	1
1318.162	n/a	PROB	659081	n/a	LTP290	ltpFR2	15	n/a	n/a	n/a	9	11	4	1	6
1319.15	n/a	PROB	659575	n/a	LTP290	ltpFR2	15	n/a	n/a	n/a	9	15	5	3	7
1320.57	n/a	PROB	660285	n/a	LTP290	ltpFR2	15	n/a	n/a	n/a	9	13	4	2	7
1322.528	n/a	PROB	661264	n/a	LTP290	ltpFR2	15	n/a	n/a	n/a	9	15	8	4	3
1324.602	n/a	PROB	662301	n/a	LTP290	ltpFR2	15	n/a	n/a	n/a	9	17	5	6	6
1326.31	n/a	PROB	663155	n/a	LTP290	ltpFR2	15	n/a	n/a	n/a	9	16	6	5	5
1327.596	n/a	STOP	663798	n/a	LTP290	ltpFR2	15	n/a	n/a	n/a	9	n/a	n/a	n/a	n/a
1331.028	n/a	REC_START	665514	n/a	LTP290	ltpFR2	15	6	n/a	n/a	n/a	n/a	0	0	0
1422.098	n/a	DISTRACTOR	711049	n/a	LTP290	ltpFR2	15	7	n/a	n/a	n/a	n/a	0	0	0
1422.098	n/a	START	711049	n/a	LTP290	ltpFR2	15	n/a	n/a	n/a	10	n/a	n/a	n/a	n/a
1422.148	n/a	PROB	711074	n/a	LTP290	ltpFR2	15	n/a	n/a	n/a	10	10	4	2	4
1423.63	n/a	PROB	711815	n/a	LTP290	ltpFR2	15	n/a	n/a	n/a	10	16	9	8	2
1424.886	n/a	PROB	712443	n/a	LTP290	ltpFR2	15	n/a	n/a	n/a	10	13	4	2	7
1426.81	n/a	PROB	713405	n/a	LTP290	ltpFR2	15	n/a	n/a	n/a	10	20	6	7	7
1428.55	n/a	PROB	714275	n/a	LTP290	ltpFR2	15	n/a	n/a	n/a	10	14	2	6	6
1430.158	n/a	PROB	715079	n/a	LTP290	ltpFR2	15	n/a	n/a	n/a	10	17	6	8	3
1432.482	n/a	PROB	716241	n/a	LTP290	ltpFR2	15	n/a	n/a	n/a	10	19	5	9	5
1434.188	n/a	PROB	717094	n/a	LTP290	ltpFR2	15	n/a	n/a	n/a	10	9	4	2	3
1435.712	n/a	PROB	717856	n/a	LTP290	ltpFR2	15	n/a	n/a	n/a	10	12	5	5	2
1436.888	n/a	PROB	718444	n/a	LTP290	ltpFR2	15	n/a	n/a	n/a	10	18	8	7	3
1438.22	n/a	PROB	719110	n/a	LTP290	ltpFR2	15	n/a	n/a	n/a	10	15	7	4	4
1439.794	n/a	PROB	719897	n/a	LTP290	ltpFR2	15	n/a	n/a	n/a	10	11	1	9	1
1440.886	n/a	PROB	720443	n/a	LTP290	ltpFR2	15	n/a	n/a	n/a	10	7	4	2	1
1442.27	n/a	PROB	721135	n/a	LTP290	ltpFR2	15	n/a	n/a	n/a	10	18	8	3	7
1446.098	n/a	STOP	723049	n/a	LTP290	ltpFR2	15	n/a	n/a	n/a	10	n/a	n/a	n/a	n/a
1447.06	n/a	WORD	723530	wordpools/wasnorm_wordpool_576.txt	LTP290	ltpFR2	15	7	TROMBONE	1508	n/a	n/a	0	0	0
1449.564	n/a	WORD	724782	wordpools/wasnorm_wordpool_576.txt	LTP290	ltpFR2	15	7	BRIEFCASE	175	n/a	n/a	0	0	0
1452.096	n/a	WORD	726048	wordpools/wasnorm_wordpool_576.txt	LTP290	ltpFR2	15	7	STAKE	1368	n/a	n/a	0	0	0
1454.79	n/a	WORD	727395	wordpools/wasnorm_wordpool_576.txt	LTP290	ltpFR2	15	7	ARM	38	n/a	n/a	0	0	0
1457.41	n/a	WORD	728705	wordpools/wasnorm_wordpool_576.txt	LTP290	ltpFR2	15	7	WRIST	1626	n/a	n/a	0	0	0
1459.926	n/a	WORD	729963	wordpools/wasnorm_wordpool_576.txt	LTP290	ltpFR2	15	7	JURY	766	n/a	n/a	0	0	0
1462.668	n/a	WORD	731334	wordpools/wasnorm_wordpool_576.txt	LTP290	ltpFR2	15	7	SODA	1341	n/a	n/a	0	0	0
1465.424	n/a	WORD	732712	wordpools/wasnorm_wordpool_576.txt	LTP290	ltpFR2	15	7	PISTON	1076	n/a	n/a	0	0	0
1468.124	n/a	WORD	734062	wordpools/wasnorm_wordpool_576.txt	LTP290	ltpFR2	15	7	GAVEL	627	n/a	n/a	0	0	0
1470.648	n/a	WORD	735324	wordpools/wasnorm_wordpool_576.txt	LTP290	ltpFR2	15	7	SILK	1307	n/a	n/a	0	0	0
1473.306	n/a	WORD	736653	wordpools/wasnorm_wordpool_576.txt	LTP290	ltpFR2	15	7	FREEZER	604	n/a	n/a	0	0	0
1475.964	n/a	WORD	737982	wordpools/wasnorm_wordpool_576.txt	LTP290	ltpFR2	15	7	WORLD	1622	n/a	n/a	0	0	0
1478.73	n/a	WORD	739365	wordpools/wasnorm_wordpool_576.txt	LTP290	ltpFR2	15	7	QUARTER	1148	n/a	n/a	0	0	0
1481.484	n/a	WORD	740742	wordpools/wasnorm_wordpool_576.txt	LTP290	ltpFR2	15	7	SUITCASE	1403	n/a	n/a	0	0	0
1484.13	n/a	WORD	742065	wordpools/wasnorm_wordpool_576.txt	LTP290	ltpFR2	15	7	DORM	488	n/a	n/a	0	0	0
1486.928	n/a	WORD	743464	wordpools/wasnorm_wordpool_576.txt	LTP290	ltpFR2	15	7	MISSILE	900	n/a	n/a	0	0	0
1489.566	n/a	WORD	744783	wordpools/wasnorm_wordpool_576.txt	LTP290	ltpFR2	15	7	TREAT	1501	n/a	n/a	0	0	0
1492.35	n/a	WORD	746175	wordpools/wasnorm_wordpool_576.txt	LTP290	ltpFR2	15	7	TART	1436	n/a	n/a	0	0	0
1494.804	n/a	WORD	747402	wordpools/wasnorm_wordpool_576.txt	LTP290	ltpFR2	15	7	EGYPT	519	n/a	n/a	0	0	0
1497.518	n/a	WORD	748759	wordpools/wasnorm_wordpool_576.txt	LTP290	ltpFR2	15	7	PADDING	999	n/a	n/a	0	0	0
1500.078	n/a	WORD	750039	wordpools/wasnorm_wordpool_576.txt	LTP290	ltpFR2	15	7	SCARF	1246	n/a	n/a	0	0	0
1502.654	n/a	WORD	751327	wordpools/wasnorm_wordpool_576.txt	LTP290	ltpFR2	15	7	DRIVER	499	n/a	n/a	0	0	0
1505.194	n/a	WORD	752597	wordpools/wasnorm_wordpool_576.txt	LTP290	ltpFR2	15	7	YACHT	1629	n/a	n/a	0	0	0
1507.808	n/a	WORD	753904	wordpools/wasnorm_wordpool_576.txt	LTP290	ltpFR2	15	7	LAKE	796	n/a	n/a	0	0	0
1509.426	n/a	START	754713	n/a	LTP290	ltpFR2	15	n/a	n/a	n/a	11	n/a	n/a	n/a	n/a
1510.454	n/a	DISTRACTOR	755227	n/a	LTP290	ltpFR2	15	7	n/a	n/a	n/a	n/a	0	0	0
1510.468	n/a	PROB	755234	n/a	LTP290	ltpFR2	15	n/a	n/a	n/a	11	16	6	1	9
1513.258	n/a	PROB	756629	n/a	LTP290	ltpFR2	15	n/a	n/a	n/a	11	13	4	3	6
1514.45	n/a	PROB	757225	n/a	LTP290	ltpFR2	15	n/a	n/a	n/a	11	15	8	1	6
1516.074	n/a	PROB	758037	n/a	LTP290	ltpFR2	15	n/a	n/a	n/a	11	9	2	6	1
1519.034	n/a	PROB	759517	n/a	LTP290	ltpFR2	15	n/a	n/a	n/a	11	17	3	5	9
1520.736	n/a	PROB	760368	n/a	LTP290	ltpFR2	15	n/a	n/a	n/a	11	19	4	8	7
1523.314	n/a	PROB	761657	n/a	LTP290	ltpFR2	15	n/a	n/a	n/a	11	11	8	1	2
1524.634	n/a	PROB	762317	n/a	LTP290	ltpFR2	15	n/a	n/a	n/a	11	20	6	9	5
1526.09	n/a	PROB	763045	n/a	LTP290	ltpFR2	15	n/a	n/a	n/a	11	13	2	9	1
1527.262	n/a	PROB	763631	n/a	LTP290	ltpFR2	15	n/a	n/a	n/a	11	11	1	9	1
1529.352	n/a	PROB	764676	n/a	LTP290	ltpFR2	15	n/a	n/a	n/a	11	9	2	2	5
1533.426	n/a	STOP	766713	n/a	LTP290	ltpFR2	15	n/a	n/a	n/a	11	n/a	n/a	n/a	n/a
1535.376	n/a	REC_START	767688	n/a	LTP290	ltpFR2	15	7	n/a	n/a	n/a	n/a	0	0	0
1535.636	n/a	REC_WORD_VV	767818	wordpools/wasnorm_wordpool_576.txt	LTP290	ltpFR2	15	7	<>	-1	n/a	n/a	0	0	0
1540.332	n/a	REC_WORD	770166	wordpools/wasnorm_wordpool_576.txt	LTP290	ltpFR2	15	7	JURY	766	n/a	n/a	0	0	0
1540.89	n/a	REC_WORD	770445	wordpools/wasnorm_wordpool_576.txt	LTP290	ltpFR2	15	7	PISTON	1076	n/a	n/a	0	0	0
1542.142	n/a	REC_WORD	771071	wordpools/wasnorm_wordpool_576.txt	LTP290	ltpFR2	15	7	GAVEL	627	n/a	n/a	0	0	0
1545.224	n/a	REC_WORD	772612	wordpools/wasnorm_wordpool_576.txt	LTP290	ltpFR2	15	7	SILK	1307	n/a	n/a	0	0	0
1546.34	n/a	REC_WORD	773170	wordpools/wasnorm_wordpool_576.txt	LTP290	ltpFR2	15	7	FREEZER	604	n/a	n/a	0	0	0
1547.334	n/a	REC_WORD	773667	wordpools/wasnorm_wordpool_576.txt	LTP290	ltpFR2	15	7	WORLD	1622	n/a	n/a	0	0	0
1548.536	n/a	REC_WORD	774268	wordpools/wasnorm_wordpool_576.txt	LTP290	ltpFR2	15	7	QUARTER	1148	n/a	n/a	0	0	0
1626.428	n/a	DISTRACTOR	813214	n/a	LTP290	ltpFR2	15	8	n/a	n/a	n/a	n/a	0	0	0
1626.428	n/a	START	813214	n/a	LTP290	ltpFR2	15	n/a	n/a	n/a	12	n/a	n/a	n/a	n/a
1626.478	n/a	PROB	813239	n/a	LTP290	ltpFR2	15	n/a	n/a	n/a	12	17	6	2	9
1628.364	n/a	PROB	814182	n/a	LTP290	ltpFR2	15	n/a	n/a	n/a	12	12	2	2	8
1629.668	n/a	PROB	814834	n/a	LTP290	ltpFR2	15	n/a	n/a	n/a	12	21	8	4	9
1633.858	n/a	PROB	816929	n/a	LTP290	ltpFR2	15	n/a	n/a	n/a	12	11	1	8	2
1635.24	n/a	PROB	817620	n/a	LTP290	ltpFR2	15	n/a	n/a	n/a	12	15	3	7	5
1636.384	n/a	PROB	818192	n/a	LTP290	ltpFR2	15	n/a	n/a	n/a	12	13	3	6	4
1638.124	n/a	PROB	819062	n/a	LTP290	ltpFR2	15	n/a	n/a	n/a	12	22	9	7	6
1640.576	n/a	PROB	820288	n/a	LTP290	ltpFR2	15	n/a	n/a	n/a	12	9	5	1	3
1642.518	n/a	PROB	821259	n/a	LTP290	ltpFR2	15	n/a	n/a	n/a	12	19	7	3	9
1643.856	n/a	PROB	821928	n/a	LTP290	ltpFR2	15	n/a	n/a	n/a	12	19	4	8	7
1647.252	n/a	PROB	823626	n/a	LTP290	ltpFR2	15	n/a	n/a	n/a	12	13	6	5	2
1649.19	n/a	STOP	824595	n/a	LTP290	ltpFR2	15	n/a	n/a	n/a	12	n/a	n/a	n/a	n/a
1651.452	n/a	WORD	825726	wordpools/wasnorm_wordpool_576.txt	LTP290	ltpFR2	15	8	CHAUFFEUR	283	n/a	n/a	0	0	0
1654.118	n/a	WORD	827059	wordpools/wasnorm_wordpool_576.txt	LTP290	ltpFR2	15	8	CUSTARD	429	n/a	n/a	0	0	0
1656.594	n/a	WORD	828297	wordpools/wasnorm_wordpool_576.txt	LTP290	ltpFR2	15	8	ICING	732	n/a	n/a	0	0	0
1659.32	n/a	WORD	829660	wordpools/wasnorm_wordpool_576.txt	LTP290	ltpFR2	15	8	SCRIBBLE	1256	n/a	n/a	0	0	0
1661.792	n/a	WORD	830896	wordpools/wasnorm_wordpool_576.txt	LTP290	ltpFR2	15	8	PORTRAIT	1111	n/a	n/a	0	0	0
1664.29	n/a	WORD	832145	wordpools/wasnorm_wordpool_576.txt	LTP290	ltpFR2	15	8	HARP	689	n/a	n/a	0	0	0
1666.832	n/a	WORD	833416	wordpools/wasnorm_wordpool_576.txt	LTP290	ltpFR2	15	8	VALVE	1546	n/a	n/a	0	0	0
1669.488	n/a	WORD	834744	wordpools/wasnorm_wordpool_576.txt	LTP290	ltpFR2	15	8	DASHBOARD	441	n/a	n/a	0	0	0
1671.986	n/a	WORD	835993	wordpools/wasnorm_wordpool_576.txt	LTP290	ltpFR2	15	8	WIDOW	1608	n/a	n/a	0	0	0
1674.746	n/a	WORD	837373	wordpools/wasnorm_wordpool_576.txt	LTP290	ltpFR2	15	8	JELLO	754	n/a	n/a	0	0	0
1677.434	n/a	WORD	838717	wordpools/wasnorm_wordpool_576.txt	LTP290	ltpFR2	15	8	CAMEL	223	n/a	n/a	0	0	0
1680.078	n/a	WORD	840039	wordpools/wasnorm_wordpool_576.txt	LTP290	ltpFR2	15	8	CABBAGE	210	n/a	n/a	0	0	0
1682.592	n/a	WORD	841296	wordpools/wasnorm_wordpool_576.txt	LTP290	ltpFR2	15	8	BOARD	143	n/a	n/a	0	0	0
1685.152	n/a	WORD	842576	wordpools/wasnorm_wordpool_576.txt	LTP290	ltpFR2	15	8	PEANUT	1032	n/a	n/a	0	0	0
1687.646	n/a	WORD	843823	wordpools/wasnorm_wordpool_576.txt	LTP290	ltpFR2	15	8	OUTDOORS	987	n/a	n/a	0	0	0
1690.456	n/a	WORD	845228	wordpools/wasnorm_wordpool_576.txt	LTP290	ltpFR2	15	8	WAGON	1578	n/a	n/a	0	0	0
1693.062	n/a	WORD	846531	wordpools/wasnorm_wordpool_576.txt	LTP290	ltpFR2	15	8	CANDY	230	n/a	n/a	0	0	0
1695.872	n/a	WORD	847936	wordpools/wasnorm_wordpool_576.txt	LTP290	ltpFR2	15	8	BULLET	194	n/a	n/a	0	0	0
1698.452	n/a	WORD	849226	wordpools/wasnorm_wordpool_576.txt	LTP290	ltpFR2	15	8	BUG	187	n/a	n/a	0	0	0
1701.23	n/a	WORD	850615	wordpools/wasnorm_wordpool_576.txt	LTP290	ltpFR2	15	8	MARROW	872	n/a	n/a	0	0	0
1703.774	n/a	WORD	851887	wordpools/wasnorm_wordpool_576.txt	LTP290	ltpFR2	15	8	XEROX	1628	n/a	n/a	0	0	0
1706.412	n/a	WORD	853206	wordpools/wasnorm_wordpool_576.txt	LTP290	ltpFR2	15	8	MACHINE	852	n/a	n/a	0	0	0
1709.128	n/a	WORD	854564	wordpools/wasnorm_wordpool_576.txt	LTP290	ltpFR2	15	8	AIRPORT	13	n/a	n/a	0	0	0
1711.868	n/a	WORD	855934	wordpools/wasnorm_wordpool_576.txt	LTP290	ltpFR2	15	8	THIEF	1456	n/a	n/a	0	0	0
1713.478	n/a	START	856739	n/a	LTP290	ltpFR2	15	n/a	n/a	n/a	13	n/a	n/a	n/a	n/a
1714.556	n/a	DISTRACTOR	857278	n/a	LTP290	ltpFR2	15	8	n/a	n/a	n/a	n/a	0	0	0
1714.564	n/a	PROB	857282	n/a	LTP290	ltpFR2	15	n/a	n/a	n/a	13	13	8	1	4
1717.004	n/a	PROB	858502	n/a	LTP290	ltpFR2	15	n/a	n/a	n/a	13	14	7	3	4
1718.246	n/a	PROB	859123	n/a	LTP290	ltpFR2	15	n/a	n/a	n/a	13	14	4	7	3
1720.182	n/a	PROB	860091	n/a	LTP290	ltpFR2	15	n/a	n/a	n/a	13	15	9	4	2
1721.788	n/a	PROB	860894	n/a	LTP290	ltpFR2	15	n/a	n/a	n/a	13	13	5	3	5
1723.494	n/a	PROB	861747	n/a	LTP290	ltpFR2	15	n/a	n/a	n/a	13	18	9	7	2
1725.468	n/a	PROB	862734	n/a	LTP290	ltpFR2	15	n/a	n/a	n/a	13	15	4	7	4
1727.426	n/a	PROB	863713	n/a	LTP290	ltpFR2	15	n/a	n/a	n/a	13	17	1	9	7
1729.166	n/a	PROB	864583	n/a	LTP290	ltpFR2	15	n/a	n/a	n/a	13	10	7	1	2
1731.292	n/a	PROB	865646	n/a	LTP290	ltpFR2	15	n/a	n/a	n/a	13	10	1	1	8
1732.416	n/a	PROB	866208	n/a	LTP290	ltpFR2	15	n/a	n/a	n/a	13	25	8	8	9
1734.056	n/a	PROB	867028	n/a	LTP290	ltpFR2	15	n/a	n/a	n/a	13	16	2	6	8
1735.444	n/a	PROB	867722	n/a	LTP290	ltpFR2	15	n/a	n/a	n/a	13	19	9	7	3
1737.082	n/a	STOP	868541	n/a	LTP290	ltpFR2	15	n/a	n/a	n/a	13	n/a	n/a	n/a	n/a
1739.338	n/a	REC_START	869669	n/a	LTP290	ltpFR2	15	8	n/a	n/a	n/a	n/a	0	0	0
1741.61	n/a	REC_WORD_VV	870805	wordpools/wasnorm_wordpool_576.txt	LTP290	ltpFR2	15	8	<>	-1	n/a	n/a	0	0	0
1742.392	n/a	REC_WORD	871196	wordpools/wasnorm_wordpool_576.txt	LTP290	ltpFR2	15	8	CUSTARD	429	n/a	n/a	0	0	0
1742.826	n/a	REC_WORD	871413	wordpools/wasnorm_wordpool_576.txt	LTP290	ltpFR2	15	8	CHAUFFEUR	283	n/a	n/a	0	0	0
1743.476	n/a	REC_WORD	871738	wordpools/wasnorm_wordpool_576.txt	LTP290	ltpFR2	15	8	ICING	732	n/a	n/a	0	0	0
1816.132	n/a	REST_REWET	908066	n/a	LTP290	ltpFR2	15	8	n/a	n/a	n/a	n/a	0	0	0
2194.332	n/a	WORD	1097166	wordpools/wasnorm_wordpool_576.txt	LTP290	ltpFR2	15	9	RELISH	1183	n/a	n/a	0	0	0
2197.038	n/a	WORD	1098519	wordpools/wasnorm_wordpool_576.txt	LTP290	ltpFR2	15	9	TWIG	1527	n/a	n/a	0	0	0
2199.702	n/a	WORD	1099851	wordpools/wasnorm_wordpool_576.txt	LTP290	ltpFR2	15	9	LUMBER	848	n/a	n/a	0	0	0
2202.162	n/a	WORD	1101081	wordpools/wasnorm_wordpool_576.txt	LTP290	ltpFR2	15	9	QUAIL	1147	n/a	n/a	0	0	0
2204.632	n/a	WORD	1102316	wordpools/wasnorm_wordpool_576.txt	LTP290	ltpFR2	15	9	SLUG	1329	n/a	n/a	0	0	0
2207.3	n/a	WORD	1103650	wordpools/wasnorm_wordpool_576.txt	LTP290	ltpFR2	15	9	POCKET	1093	n/a	n/a	0	0	0
2209.826	n/a	WORD	1104913	wordpools/wasnorm_wordpool_576.txt	LTP290	ltpFR2	15	9	KETCHUP	771	n/a	n/a	0	0	0
2212.586	n/a	WORD	1106293	wordpools/wasnorm_wordpool_576.txt	LTP290	ltpFR2	15	9	KIDNEY	776	n/a	n/a	0	0	0
2215.146	n/a	WORD	1107573	wordpools/wasnorm_wordpool_576.txt	LTP290	ltpFR2	15	9	COMPASS	358	n/a	n/a	0	0	0
2217.632	n/a	WORD	1108816	wordpools/wasnorm_wordpool_576.txt	LTP290	ltpFR2	15	9	BACKBONE	66	n/a	n/a	0	0	0
2220.432	n/a	WORD	1110216	wordpools/wasnorm_wordpool_576.txt	LTP290	ltpFR2	15	9	TORTOISE	1486	n/a	n/a	0	0	0
2222.992	n/a	WORD	1111496	wordpools/wasnorm_wordpool_576.txt	LTP290	ltpFR2	15	9	PARROT	1015	n/a	n/a	0	0	0
2225.782	n/a	WORD	1112891	wordpools/wasnorm_wordpool_576.txt	LTP290	ltpFR2	15	9	JUGGLER	763	n/a	n/a	0	0	0
2228.28	n/a	WORD	1114140	wordpools/wasnorm_wordpool_576.txt	LTP290	ltpFR2	15	9	COSTUME	383	n/a	n/a	0	0	0
2230.89	n/a	WORD	1115445	wordpools/wasnorm_wordpool_576.txt	LTP290	ltpFR2	15	9	SHELTER	1282	n/a	n/a	0	0	0
2233.716	n/a	WORD	1116858	wordpools/wasnorm_wordpool_576.txt	LTP290	ltpFR2	15	9	CABIN	211	n/a	n/a	0	0	0
2236.276	n/a	WORD	1118138	wordpools/wasnorm_wordpool_576.txt	LTP290	ltpFR2	15	9	WITNESS	1618	n/a	n/a	0	0	0
2238.964	n/a	WORD	1119482	wordpools/wasnorm_wordpool_576.txt	LTP290	ltpFR2	15	9	PILOT	1070	n/a	n/a	0	0	0
2241.574	n/a	WORD	1120787	wordpools/wasnorm_wordpool_576.txt	LTP290	ltpFR2	15	9	MAPLE	866	n/a	n/a	0	0	0
2244.056	n/a	WORD	1122028	wordpools/wasnorm_wordpool_576.txt	LTP290	ltpFR2	15	9	BRANCH	168	n/a	n/a	0	0	0
2246.616	n/a	WORD	1123308	wordpools/wasnorm_wordpool_576.txt	LTP290	ltpFR2	15	9	FOREHEAD	592	n/a	n/a	0	0	0
2249.294	n/a	WORD	1124647	wordpools/wasnorm_wordpool_576.txt	LTP290	ltpFR2	15	9	OINTMENT	974	n/a	n/a	0	0	0
2251.964	n/a	WORD	1125982	wordpools/wasnorm_wordpool_576.txt	LTP290	ltpFR2	15	9	PORK	1108	n/a	n/a	0	0	0
2254.456	n/a	WORD	1127228	wordpools/wasnorm_wordpool_576.txt	LTP290	ltpFR2	15	9	POSTAGE	1113	n/a	n/a	0	0	0
2256.068	n/a	START	1128034	n/a	LTP290	ltpFR2	15	n/a	n/a	n/a	14	n/a	n/a	n/a	n/a
2256.964	n/a	DISTRACTOR	1128482	n/a	LTP290	ltpFR2	15	9	n/a	n/a	n/a	n/a	0	0	0
2256.972	n/a	PROB	1128486	n/a	LTP290	ltpFR2	15	n/a	n/a	n/a	14	18	5	4	9
2258.672	n/a	PROB	1129336	n/a	LTP290	ltpFR2	15	n/a	n/a	n/a	14	18	9	8	1
2260.97	n/a	PROB	1130485	n/a	LTP290	ltpFR2	15	n/a	n/a	n/a	14	16	8	4	4
2262.554	n/a	PROB	1131277	n/a	LTP290	ltpFR2	15	n/a	n/a	n/a	14	14	5	4	5
2264.396	n/a	PROB	1132198	n/a	LTP290	ltpFR2	15	n/a	n/a	n/a	14	19	7	9	3
2266.254	n/a	PROB	1133127	n/a	LTP290	ltpFR2	15	n/a	n/a	n/a	14	9	1	6	2
2268.73	n/a	PROB	1134365	n/a	LTP290	ltpFR2	15	n/a	n/a	n/a	14	16	8	6	2
2270.218	n/a	PROB	1135109	n/a	LTP290	ltpFR2	15	n/a	n/a	n/a	14	8	6	1	1
2271.472	n/a	PROB	1135736	n/a	LTP290	ltpFR2	15	n/a	n/a	n/a	14	13	1	3	9
2273.848	n/a	PROB	1136924	n/a	LTP290	ltpFR2	15	n/a	n/a	n/a	14	16	5	2	9
2275.354	n/a	PROB	1137677	n/a	LTP290	ltpFR2	15	n/a	n/a	n/a	14	22	8	5	9
2277.73	n/a	PROB	1138865	n/a	LTP290	ltpFR2	15	n/a	n/a	n/a	14	11	4	5	2
2279.312	n/a	STOP	1139656	n/a	LTP290	ltpFR2	15	n/a	n/a	n/a	14	n/a	n/a	n/a	n/a
2281.88	n/a	REC_START	1140940	n/a	LTP290	ltpFR2	15	9	n/a	n/a	n/a	n/a	0	0	0
2291.918	n/a	REC_WORD_VV	1145959	wordpools/wasnorm_wordpool_576.txt	LTP290	ltpFR2	15	9	<>	-1	n/a	n/a	0	0	0
2292.522	n/a	REC_WORD	1146261	wordpools/wasnorm_wordpool_576.txt	LTP290	ltpFR2	15	9	QUAIL	1147	n/a	n/a	0	0	0
2295.714	n/a	REC_WORD	1147857	wordpools/wasnorm_wordpool_576.txt	LTP290	ltpFR2	15	9	COSTUME	383	n/a	n/a	0	0	0
2297.1	n/a	REC_WORD	1148550	wordpools/wasnorm_wordpool_576.txt	LTP290	ltpFR2	15	9	CLOSET	326	n/a	n/a	0	0	0
2372.916	n/a	WORD	1186458	wordpools/wasnorm_wordpool_576.txt	LTP290	ltpFR2	15	10	UNCLE	1536	n/a	n/a	0	0	0
2375.474	n/a	WORD	1187737	wordpools/wasnorm_wordpool_576.txt	LTP290	ltpFR2	15	10	ROOSTER	1209	n/a	n/a	0	0	0
2378.252	n/a	WORD	1189126	wordpools/wasnorm_wordpool_576.txt	LTP290	ltpFR2	15	10	BUTCHER	203	n/a	n/a	0	0	0
2380.796	n/a	WORD	1190398	wordpools/wasnorm_wordpool_576.txt	LTP290	ltpFR2	15	10	TWISTER	1530	n/a	n/a	0	0	0
2383.588	n/a	WORD	1191794	wordpools/wasnorm_wordpool_576.txt	LTP290	ltpFR2	15	10	CYCLONE	431	n/a	n/a	0	0	0
2386.178	n/a	WORD	1193089	wordpools/wasnorm_wordpool_576.txt	LTP290	ltpFR2	15	10	PATIENT	1024	n/a	n/a	0	0	0
2388.738	n/a	WORD	1194369	wordpools/wasnorm_wordpool_576.txt	LTP290	ltpFR2	15	10	ORANGE	980	n/a	n/a	0	0	0
2391.286	n/a	WORD	1195643	wordpools/wasnorm_wordpool_576.txt	LTP290	ltpFR2	15	10	TILE	1468	n/a	n/a	0	0	0
2393.762	n/a	WORD	1196881	wordpools/wasnorm_wordpool_576.txt	LTP290	ltpFR2	15	10	GLOBE	641	n/a	n/a	0	0	0
2396.522	n/a	WORD	1198261	wordpools/wasnorm_wordpool_576.txt	LTP290	ltpFR2	15	10	COOK	372	n/a	n/a	0	0	0
2399.312	n/a	WORD	1199656	wordpools/wasnorm_wordpool_576.txt	LTP290	ltpFR2	15	10	TWEEZERS	1526	n/a	n/a	0	0	0
2401.892	n/a	WORD	1200946	wordpools/wasnorm_wordpool_576.txt	LTP290	ltpFR2	15	10	FLOWER	584	n/a	n/a	0	0	0
2404.386	n/a	WORD	1202193	wordpools/wasnorm_wordpool_576.txt	LTP290	ltpFR2	15	10	BLACKBOARD	133	n/a	n/a	0	0	0
2406.946	n/a	WORD	1203473	wordpools/wasnorm_wordpool_576.txt	LTP290	ltpFR2	15	10	TURTLE	1522	n/a	n/a	0	0	0
2409.756	n/a	WORD	1204878	wordpools/wasnorm_wordpool_576.txt	LTP290	ltpFR2	15	10	BLOUSE	139	n/a	n/a	0	0	0
2412.232	n/a	WORD	1206116	wordpools/wasnorm_wordpool_576.txt	LTP290	ltpFR2	15	10	KITCHEN	778	n/a	n/a	0	0	0
2414.976	n/a	WORD	1207488	wordpools/wasnorm_wordpool_576.txt	LTP290	ltpFR2	15	10	MOP	916	n/a	n/a	0	0	0
2417.602	n/a	WORD	1208801	wordpools/wasnorm_wordpool_576.txt	LTP290	ltpFR2	15	10	ATLAS	53	n/a	n/a	0	0	0
2420.264	n/a	WORD	1210132	wordpools/wasnorm_wordpool_576.txt	LTP290	ltpFR2	15	10	CURTAIN	427	n/a	n/a	0	0	0
2422.956	n/a	WORD	1211478	wordpools/wasnorm_wordpool_576.txt	LTP290	ltpFR2	15	10	TRIBE	1505	n/a	n/a	0	0	0
2425.682	n/a	WORD	1212841	wordpools/wasnorm_wordpool_576.txt	LTP290	ltpFR2	15	10	BLUEPRINT	142	n/a	n/a	0	0	0
2428.26	n/a	WORD	1214130	wordpools/wasnorm_wordpool_576.txt	LTP290	ltpFR2	15	10	COURSE	390	n/a	n/a	0	0	0
2431.004	n/a	WORD	1215502	wordpools/wasnorm_wordpool_576.txt	LTP290	ltpFR2	15	10	HORSE	719	n/a	n/a	0	0	0
2433.748	n/a	WORD	1216874	wordpools/wasnorm_wordpool_576.txt	LTP290	ltpFR2	15	10	COWBOY	395	n/a	n/a	0	0	0
2435.354	n/a	START	1217677	n/a	LTP290	ltpFR2	15	n/a	n/a	n/a	15	n/a	n/a	n/a	n/a
2436.436	n/a	DISTRACTOR	1218218	n/a	LTP290	ltpFR2	15	10	n/a	n/a	n/a	n/a	0	0	0
2436.452	n/a	PROB	1218226	n/a	LTP290	ltpFR2	15	n/a	n/a	n/a	15	12	1	3	8
2439.13	n/a	PROB	1219565	n/a	LTP290	ltpFR2	15	n/a	n/a	n/a	15	15	4	8	3
2440.804	n/a	PROB	1220402	n/a	LTP290	ltpFR2	15	n/a	n/a	n/a	15	4	1	1	2
2442.314	n/a	PROB	1221157	n/a	LTP290	ltpFR2	15	n/a	n/a	n/a	15	22	9	9	4
2444.538	n/a	PROB	1222269	n/a	LTP290	ltpFR2	15	n/a	n/a	n/a	15	16	5	8	3
2446.228	n/a	PROB	1223114	n/a	LTP290	ltpFR2	15	n/a	n/a	n/a	15	9	4	4	1
2447.964	n/a	PROB	1223982	n/a	LTP290	ltpFR2	15	n/a	n/a	n/a	15	16	6	8	2
2449.436	n/a	PROB	1224718	n/a	LTP290	ltpFR2	15	n/a	n/a	n/a	15	17	1	7	9
2451.582	n/a	PROB	1225791	n/a	LTP290	ltpFR2	15	n/a	n/a	n/a	15	15	4	2	9
2453.402	n/a	PROB	1226701	n/a	LTP290	ltpFR2	15	n/a	n/a	n/a	15	7	2	3	2
2459.356	n/a	STOP	1229678	n/a	LTP290	ltpFR2	15	n/a	n/a	n/a	15	n/a	n/a	n/a	n/a
2461.166	n/a	REC_START	1230583	n/a	LTP290	ltpFR2	15	10	n/a	n/a	n/a	n/a	0	0	0
2472.716	n/a	REC_WORD	1236358	wordpools/wasnorm_wordpool_576.txt	LTP290	ltpFR2	15	10	COOK	372	n/a	n/a	0	0	0
2473.104	n/a	REC_WORD	1236552	wordpools/wasnorm_wordpool_576.txt	LTP290	ltpFR2	15	10	FLOWER	584	n/a	n/a	0	0	0
2473.75	n/a	REC_WORD	1236875	wordpools/wasnorm_wordpool_576.txt	LTP290	ltpFR2	15	10	TWEEZERS	1526	n/a	n/a	0	0	0
2474.318	n/a	REC_WORD	1237159	wordpools/wasnorm_wordpool_576.txt	LTP290	ltpFR2	15	10	BLACKBOARD	133	n/a	n/a	0	0	0
2475.054	n/a	REC_WORD	1237527	wordpools/wasnorm_wordpool_576.txt	LTP290	ltpFR2	15	10	TURTLE	1522	n/a	n/a	0	0	0
2475.668	n/a	REC_WORD	1237834	wordpools/wasnorm_wordpool_576.txt	LTP290	ltpFR2	15	10	BLOUSE	139	n/a	n/a	0	0	0
2477.204	n/a	REC_WORD	1238602	wordpools/wasnorm_wordpool_576.txt	LTP290	ltpFR2	15	10	MOP	916	n/a	n/a	0	0	0
2477.818	n/a	REC_WORD	1238909	wordpools/wasnorm_wordpool_576.txt	LTP290	ltpFR2	15	10	ATLAS	53	n/a	n/a	0	0	0
2552.2	n/a	WORD	1276100	wordpools/wasnorm_wordpool_576.txt	LTP290	ltpFR2	15	11	HAND	683	n/a	n/a	0	0	0
2555.022	n/a	WORD	1277511	wordpools/wasnorm_wordpool_576.txt	LTP290	ltpFR2	15	11	GOBLIN	645	n/a	n/a	0	0	0
2557.772	n/a	WORD	1278886	wordpools/wasnorm_wordpool_576.txt	LTP290	ltpFR2	15	11	HIGHWAY	707	n/a	n/a	0	0	0
2560.476	n/a	WORD	1280238	wordpools/wasnorm_wordpool_576.txt	LTP290	ltpFR2	15	11	DOLPHIN	483	n/a	n/a	0	0	0
2563.21	n/a	WORD	1281605	wordpools/wasnorm_wordpool_576.txt	LTP290	ltpFR2	15	11	GYMNAST	675	n/a	n/a	0	0	0
2565.702	n/a	WORD	1282851	wordpools/wasnorm_wordpool_576.txt	LTP290	ltpFR2	15	11	BINDER	127	n/a	n/a	0	0	0
2568.38	n/a	WORD	1284190	wordpools/wasnorm_wordpool_576.txt	LTP290	ltpFR2	15	11	KEEPER	769	n/a	n/a	0	0	0
2571.072	n/a	WORD	1285536	wordpools/wasnorm_wordpool_576.txt	LTP290	ltpFR2	15	11	PIGEON	1065	n/a	n/a	0	0	0
2573.664	n/a	WORD	1286832	wordpools/wasnorm_wordpool_576.txt	LTP290	ltpFR2	15	11	CAPTIVE	240	n/a	n/a	0	0	0
2576.342	n/a	WORD	1288171	wordpools/wasnorm_wordpool_576.txt	LTP290	ltpFR2	15	11	SUSPECT	1415	n/a	n/a	0	0	0
2578.882	n/a	WORD	1289441	wordpools/wasnorm_wordpool_576.txt	LTP290	ltpFR2	15	11	CLAM	315	n/a	n/a	0	0	0
2581.624	n/a	WORD	1290812	wordpools/wasnorm_wordpool_576.txt	LTP290	ltpFR2	15	11	ACTOR	5	n/a	n/a	0	0	0
2584.352	n/a	WORD	1292176	wordpools/wasnorm_wordpool_576.txt	LTP290	ltpFR2	15	11	FRECKLE	602	n/a	n/a	0	0	0
2586.816	n/a	WORD	1293408	wordpools/wasnorm_wordpool_576.txt	LTP290	ltpFR2	15	11	FINGER	567	n/a	n/a	0	0	0
2589.388	n/a	WORD	1294694	wordpools/wasnorm_wordpool_576.txt	LTP290	ltpFR2	15	11	VICTIM	1562	n/a	n/a	0	0	0
2592.166	n/a	WORD	1296083	wordpools/wasnorm_wordpool_576.txt	LTP290	ltpFR2	15	11	BALLOON	75	n/a	n/a	0	0	0
2594.948	n/a	WORD	1297474	wordpools/wasnorm_wordpool_576.txt	LTP290	ltpFR2	15	11	SCARECROW	1245	n/a	n/a	0	0	0
2597.456	n/a	WORD	1298728	wordpools/wasnorm_wordpool_576.txt	LTP290	ltpFR2	15	11	GARBAGE	622	n/a	n/a	0	0	0
2600.23	n/a	WORD	1300115	wordpools/wasnorm_wordpool_576.txt	LTP290	ltpFR2	15	11	HAWK	692	n/a	n/a	0	0	0
2602.744	n/a	WORD	1301372	wordpools/wasnorm_wordpool_576.txt	LTP290	ltpFR2	15	11	PERCH	1048	n/a	n/a	0	0	0
2605.554	n/a	WORD	1302777	wordpools/wasnorm_wordpool_576.txt	LTP290	ltpFR2	15	11	DIVER	476	n/a	n/a	0	0	0
2608.026	n/a	WORD	1304013	wordpools/wasnorm_wordpool_576.txt	LTP290	ltpFR2	15	11	RAFT	1159	n/a	n/a	0	0	0
2610.792	n/a	WORD	1305396	wordpools/wasnorm_wordpool_576.txt	LTP290	ltpFR2	15	11	EYELASH	546	n/a	n/a	0	0	0
2613.53	n/a	WORD	1306765	wordpools/wasnorm_wordpool_576.txt	LTP290	ltpFR2	15	11	INMATE	738	n/a	n/a	0	0	0
2615.142	n/a	START	1307571	n/a	LTP290	ltpFR2	15	n/a	n/a	n/a	16	n/a	n/a	n/a	n/a
2616.3	n/a	DISTRACTOR	1308150	n/a	LTP290	ltpFR2	15	11	n/a	n/a	n/a	n/a	0	0	0
2616.312	n/a	PROB	1308156	n/a	LTP290	ltpFR2	15	n/a	n/a	n/a	16	18	9	2	7
2617.802	n/a	PROB	1308901	n/a	LTP290	ltpFR2	15	n/a	n/a	n/a	16	12	7	2	3
2619.236	n/a	PROB	1309618	n/a	LTP290	ltpFR2	15	n/a	n/a	n/a	16	10	6	2	2
2620.556	n/a	PROB	1310278	n/a	LTP290	ltpFR2	15	n/a	n/a	n/a	16	16	1	8	7
2621.984	n/a	PROB	1310992	n/a	LTP290	ltpFR2	15	n/a	n/a	n/a	16	21	5	7	9
2623.55	n/a	PROB	1311775	n/a	LTP290	ltpFR2	15	n/a	n/a	n/a	16	15	3	8	4
2625.192	n/a	PROB	1312596	n/a	LTP290	ltpFR2	15	n/a	n/a	n/a	16	19	6	7	6
2626.948	n/a	PROB	1313474	n/a	LTP290	ltpFR2	15	n/a	n/a	n/a	16	20	7	5	8
2629.724	n/a	PROB	1314862	n/a	LTP290	ltpFR2	15	n/a	n/a	n/a	16	16	8	5	3
2631.08	n/a	PROB	1315540	n/a	LTP290	ltpFR2	15	n/a	n/a	n/a	16	11	2	6	3
2632.458	n/a	PROB	1316229	n/a	LTP290	ltpFR2	15	n/a	n/a	n/a	16	15	1	6	8
2634.784	n/a	PROB	1317392	n/a	LTP290	ltpFR2	15	n/a	n/a	n/a	16	12	5	1	6
2636.206	n/a	PROB	1318103	n/a	LTP290	ltpFR2	15	n/a	n/a	n/a	16	20	8	8	4
2637.708	n/a	STOP	1318854	n/a	LTP290	ltpFR2	15	n/a	n/a	n/a	16	n/a	n/a	n/a	n/a
2641.02	n/a	REC_START	1320510	n/a	LTP290	ltpFR2	15	11	n/a	n/a	n/a	n/a	0	0	0
2732.056	n/a	DISTRACTOR	1366028	n/a	LTP290	ltpFR2	15	12	n/a	n/a	n/a	n/a	0	0	0
2732.056	n/a	START	1366028	n/a	LTP290	ltpFR2	15	n/a	n/a	n/a	17	n/a	n/a	n/a	n/a
2732.106	n/a	PROB	1366053	n/a	LTP290	ltpFR2	15	n/a	n/a	n/a	17	19	9	9	1
2736.016	n/a	PROB	1368008	n/a	LTP290	ltpFR2	15	n/a	n/a	n/a	17	20	2	9	9
2737.586	n/a	PROB	1368793	n/a	LTP290	ltpFR2	15	n/a	n/a	n/a	17	16	9	5	2
2739.06	n/a	PROB	1369530	n/a	LTP290	ltpFR2	15	n/a	n/a	n/a	17	14	3	8	3
2740.498	n/a	PROB	1370249	n/a	LTP290	ltpFR2	15	n/a	n/a	n/a	17	13	7	4	2
2743.41	n/a	PROB	1371705	n/a	LTP290	ltpFR2	15	n/a	n/a	n/a	17	11	1	4	6
2745.302	n/a	PROB	1372651	n/a	LTP290	ltpFR2	15	n/a	n/a	n/a	17	13	7	3	3
2746.912	n/a	PROB	1373456	n/a	LTP290	ltpFR2	15	n/a	n/a	n/a	17	7	4	2	1
2748.278	n/a	PROB	1374139	n/a	LTP290	ltpFR2	15	n/a	n/a	n/a	17	16	4	9	3
2749.918	n/a	PROB	1374959	n/a	LTP290	ltpFR2	15	n/a	n/a	n/a	17	10	2	3	5
2751.69	n/a	PROB	1375845	n/a	LTP290	ltpFR2	15	n/a	n/a	n/a	17	19	9	2	8
2753.332	n/a	PROB	1376666	n/a	LTP290	ltpFR2	15	n/a	n/a	n/a	17	18	2	7	9
2754.85	n/a	STOP	1377425	n/a	LTP290	ltpFR2	15	n/a	n/a	n/a	17	n/a	n/a	n/a	n/a
2757.034	n/a	WORD	1378517	wordpools/wasnorm_wordpool_576.txt	LTP290	ltpFR2	15	12	CHEMIST	292	n/a	n/a	0	0	0
2759.592	n/a	WORD	1379796	wordpools/wasnorm_wordpool_576.txt	LTP290	ltpFR2	15	12	CARROT	249	n/a	n/a	0	0	0
2762.404	n/a	WORD	1381202	wordpools/wasnorm_wordpool_576.txt	LTP290	ltpFR2	15	12	FRIAR	605	n/a	n/a	0	0	0
2765.148	n/a	WORD	1382574	wordpools/wasnorm_wordpool_576.txt	LTP290	ltpFR2	15	12	BURGLAR	200	n/a	n/a	0	0	0
2767.708	n/a	WORD	1383854	wordpools/wasnorm_wordpool_576.txt	LTP290	ltpFR2	15	12	NEUTRON	947	n/a	n/a	0	0	0
2770.2	n/a	WORD	1385100	wordpools/wasnorm_wordpool_576.txt	LTP290	ltpFR2	15	12	ACTRESS	6	n/a	n/a	0	0	0
2772.822	n/a	WORD	1386411	wordpools/wasnorm_wordpool_576.txt	LTP290	ltpFR2	15	12	APRON	35	n/a	n/a	0	0	0
2775.47	n/a	WORD	1387735	wordpools/wasnorm_wordpool_576.txt	LTP290	ltpFR2	15	12	SKILLET	1317	n/a	n/a	0	0	0
2778.076	n/a	WORD	1389038	wordpools/wasnorm_wordpool_576.txt	LTP290	ltpFR2	15	12	DOUGHNUT	490	n/a	n/a	0	0	0
2780.892	n/a	WORD	1390446	wordpools/wasnorm_wordpool_576.txt	LTP290	ltpFR2	15	12	RECEIPT	1173	n/a	n/a	0	0	0
2783.618	n/a	WORD	1391809	wordpools/wasnorm_wordpool_576.txt	LTP290	ltpFR2	15	12	CONTRACT	368	n/a	n/a	0	0	0
2786.246	n/a	WORD	1393123	wordpools/wasnorm_wordpool_576.txt	LTP290	ltpFR2	15	12	PECAN	1036	n/a	n/a	0	0	0
2788.838	n/a	WORD	1394419	wordpools/wasnorm_wordpool_576.txt	LTP290	ltpFR2	15	12	CASHEW	253	n/a	n/a	0	0	0
2791.298	n/a	WORD	1395649	wordpools/wasnorm_wordpool_576.txt	LTP290	ltpFR2	15	12	SAUSAGE	1238	n/a	n/a	0	0	0
2793.942	n/a	WORD	1396971	wordpools/wasnorm_wordpool_576.txt	LTP290	ltpFR2	15	12	MATCH	878	n/a	n/a	0	0	0
2796.562	n/a	WORD	1398281	wordpools/wasnorm_wordpool_576.txt	LTP290	ltpFR2	15	12	BASEMENT	94	n/a	n/a	0	0	0
2799.342	n/a	WORD	1399671	wordpools/wasnorm_wordpool_576.txt	LTP290	ltpFR2	15	12	BUNNY	198	n/a	n/a	0	0	0
2801.94	n/a	WORD	1400970	wordpools/wasnorm_wordpool_576.txt	LTP290	ltpFR2	15	12	ROBIN	1199	n/a	n/a	0	0	0
2804.594	n/a	WORD	1402297	wordpools/wasnorm_wordpool_576.txt	LTP290	ltpFR2	15	12	FIREMAN	569	n/a	n/a	0	0	0
2807.226	n/a	WORD	1403613	wordpools/wasnorm_wordpool_576.txt	LTP290	ltpFR2	15	12	SANDWICH	1232	n/a	n/a	0	0	0
2809.668	n/a	WORD	1404834	wordpools/wasnorm_wordpool_576.txt	LTP290	ltpFR2	15	12	WAITER	1580	n/a	n/a	0	0	0
2812.11	n/a	WORD	1406055	wordpools/wasnorm_wordpool_576.txt	LTP290	ltpFR2	15	12	LETTUCE	814	n/a	n/a	0	0	0
2814.816	n/a	WORD	1407408	wordpools/wasnorm_wordpool_576.txt	LTP290	ltpFR2	15	12	PLIERS	1089	n/a	n/a	0	0	0
2817.366	n/a	WORD	1408683	wordpools/wasnorm_wordpool_576.txt	LTP290	ltpFR2	15	12	CORAL	378	n/a	n/a	0	0	0
2818.984	n/a	START	1409492	n/a	LTP290	ltpFR2	15	n/a	n/a	n/a	18	n/a	n/a	n/a	n/a
2820.038	n/a	DISTRACTOR	1410019	n/a	LTP290	ltpFR2	15	12	n/a	n/a	n/a	n/a	0	0	0
2820.054	n/a	PROB	1410027	n/a	LTP290	ltpFR2	15	n/a	n/a	n/a	18	14	3	7	4
2822.45	n/a	PROB	1411225	n/a	LTP290	ltpFR2	15	n/a	n/a	n/a	18	19	5	9	5
2824.108	n/a	PROB	1412054	n/a	LTP290	ltpFR2	15	n/a	n/a	n/a	18	9	3	4	2
2825.59	n/a	PROB	1412795	n/a	LTP290	ltpFR2	15	n/a	n/a	n/a	18	16	7	8	1
2827.28	n/a	PROB	1413640	n/a	LTP290	ltpFR2	15	n/a	n/a	n/a	18	12	4	4	4
2828.468	n/a	PROB	1414234	n/a	LTP290	ltpFR2	15	n/a	n/a	n/a	18	16	2	9	5
2830.124	n/a	PROB	1415062	n/a	LTP290	ltpFR2	15	n/a	n/a	n/a	18	10	4	3	3
2831.618	n/a	PROB	1415809	n/a	LTP290	ltpFR2	15	n/a	n/a	n/a	18	18	4	5	9
2833.392	n/a	PROB	1416696	n/a	LTP290	ltpFR2	15	n/a	n/a	n/a	18	16	9	6	1
2834.926	n/a	PROB	1417463	n/a	LTP290	ltpFR2	15	n/a	n/a	n/a	18	18	8	1	9
2836.282	n/a	PROB	1418141	n/a	LTP290	ltpFR2	15	n/a	n/a	n/a	18	19	9	1	9
2838.106	n/a	PROB	1419053	n/a	LTP290	ltpFR2	15	n/a	n/a	n/a	18	7	1	1	5
2839.51	n/a	PROB	1419755	n/a	LTP290	ltpFR2	15	n/a	n/a	n/a	18	18	3	9	6
2841.416	n/a	STOP	1420708	n/a	LTP290	ltpFR2	15	n/a	n/a	n/a	18	n/a	n/a	n/a	n/a
2844.932	n/a	REC_START	1422466	n/a	LTP290	ltpFR2	15	12	n/a	n/a	n/a	n/a	0	0	0
2848.216	n/a	REC_WORD_VV	1424108	wordpools/wasnorm_wordpool_576.txt	LTP290	ltpFR2	15	12	<>	-1	n/a	n/a	0	0	0
2850.784	n/a	REC_WORD	1425392	wordpools/wasnorm_wordpool_576.txt	LTP290	ltpFR2	15	12	CONTRACT	368	n/a	n/a	0	0	0
2851.602	n/a	REC_WORD	1425801	wordpools/wasnorm_wordpool_576.txt	LTP290	ltpFR2	15	12	CASHEW	253	n/a	n/a	0	0	0
2852.622	n/a	REC_WORD	1426311	wordpools/wasnorm_wordpool_576.txt	LTP290	ltpFR2	15	12	PECAN	1036	n/a	n/a	0	0	0
2853.292	n/a	REC_WORD	1426646	wordpools/wasnorm_wordpool_576.txt	LTP290	ltpFR2	15	12	SAUSAGE	1238	n/a	n/a	0	0	0
2854.07	n/a	REC_WORD	1427035	wordpools/wasnorm_wordpool_576.txt	LTP290	ltpFR2	15	12	MATCH	878	n/a	n/a	0	0	0
2854.734	n/a	REC_WORD	1427367	wordpools/wasnorm_wordpool_576.txt	LTP290	ltpFR2	15	12	BASEMENT	94	n/a	n/a	0	0	0
2857.948	n/a	REC_WORD	1428974	wordpools/wasnorm_wordpool_576.txt	LTP290	ltpFR2	15	12	FRIAR	605	n/a	n/a	0	0	0
2860.712	n/a	REC_WORD	1430356	wordpools/wasnorm_wordpool_576.txt	LTP290	ltpFR2	15	12	CHEMIST	292	n/a	n/a	0	0	0
2936.018	n/a	DISTRACTOR	1468009	n/a	LTP290	ltpFR2	15	13	n/a	n/a	n/a	n/a	0	0	0
2936.018	n/a	START	1468009	n/a	LTP290	ltpFR2	15	n/a	n/a	n/a	19	n/a	n/a	n/a	n/a
2936.068	n/a	PROB	1468034	n/a	LTP290	ltpFR2	15	n/a	n/a	n/a	19	15	2	6	7
2937.942	n/a	PROB	1468971	n/a	LTP290	ltpFR2	15	n/a	n/a	n/a	19	12	6	3	3
2939.526	n/a	PROB	1469763	n/a	LTP290	ltpFR2	15	n/a	n/a	n/a	19	13	8	3	2
2941.384	n/a	PROB	1470692	n/a	LTP290	ltpFR2	15	n/a	n/a	n/a	19	10	2	7	1
2943.346	n/a	PROB	1471673	n/a	LTP290	ltpFR2	15	n/a	n/a	n/a	19	12	1	9	2
2945.85	n/a	PROB	1472925	n/a	LTP290	ltpFR2	15	n/a	n/a	n/a	19	17	7	5	5
2947.574	n/a	PROB	1473787	n/a	LTP290	ltpFR2	15	n/a	n/a	n/a	19	17	7	1	9
2949.95	n/a	PROB	1474975	n/a	LTP290	ltpFR2	15	n/a	n/a	n/a	19	16	3	7	6
2951.222	n/a	PROB	1475611	n/a	LTP290	ltpFR2	15	n/a	n/a	n/a	19	13	7	2	4
2953.512	n/a	PROB	1476756	n/a	LTP290	ltpFR2	15	n/a	n/a	n/a	19	16	8	1	7
2955.086	n/a	PROB	1477543	n/a	LTP290	ltpFR2	15	n/a	n/a	n/a	19	8	3	3	2
2956.624	n/a	PROB	1478312	n/a	LTP290	ltpFR2	15	n/a	n/a	n/a	19	23	9	9	5
2960.02	n/a	STOP	1480010	n/a	LTP290	ltpFR2	15	n/a	n/a	n/a	19	n/a	n/a	n/a	n/a
2961.158	n/a	WORD	1480579	wordpools/wasnorm_wordpool_576.txt	LTP290	ltpFR2	15	13	AUTHOR	61	n/a	n/a	0	0	0
2963.656	n/a	WORD	1481828	wordpools/wasnorm_wordpool_576.txt	LTP290	ltpFR2	15	13	PROTON	1132	n/a	n/a	0	0	0
2966.25	n/a	WORD	1483125	wordpools/wasnorm_wordpool_576.txt	LTP290	ltpFR2	15	13	SCALPEL	1243	n/a	n/a	0	0	0
2969.028	n/a	WORD	1484514	wordpools/wasnorm_wordpool_576.txt	LTP290	ltpFR2	15	13	NURSE	963	n/a	n/a	0	0	0
2971.486	n/a	WORD	1485743	wordpools/wasnorm_wordpool_576.txt	LTP290	ltpFR2	15	13	LIZARD	834	n/a	n/a	0	0	0
2974.046	n/a	WORD	1487023	wordpools/wasnorm_wordpool_576.txt	LTP290	ltpFR2	15	13	SALT	1229	n/a	n/a	0	0	0
2976.768	n/a	WORD	1488384	wordpools/wasnorm_wordpool_576.txt	LTP290	ltpFR2	15	13	CRATER	400	n/a	n/a	0	0	0
2979.334	n/a	WORD	1489667	wordpools/wasnorm_wordpool_576.txt	LTP290	ltpFR2	15	13	RUG	1215	n/a	n/a	0	0	0
2982.106	n/a	WORD	1491053	wordpools/wasnorm_wordpool_576.txt	LTP290	ltpFR2	15	13	HOUND	724	n/a	n/a	0	0	0
2984.554	n/a	WORD	1492277	wordpools/wasnorm_wordpool_576.txt	LTP290	ltpFR2	15	13	LILY	821	n/a	n/a	0	0	0
2987.114	n/a	WORD	1493557	wordpools/wasnorm_wordpool_576.txt	LTP290	ltpFR2	15	13	INFANT	737	n/a	n/a	0	0	0
2989.87	n/a	WORD	1494935	wordpools/wasnorm_wordpool_576.txt	LTP290	ltpFR2	15	13	POSSUM	1112	n/a	n/a	0	0	0
2992.45	n/a	WORD	1496225	wordpools/wasnorm_wordpool_576.txt	LTP290	ltpFR2	15	13	DAUGHTER	442	n/a	n/a	0	0	0
2994.994	n/a	WORD	1497497	wordpools/wasnorm_wordpool_576.txt	LTP290	ltpFR2	15	13	BABY	64	n/a	n/a	0	0	0
2997.752	n/a	WORD	1498876	wordpools/wasnorm_wordpool_576.txt	LTP290	ltpFR2	15	13	POET	1095	n/a	n/a	0	0	0
3000.442	n/a	WORD	1500221	wordpools/wasnorm_wordpool_576.txt	LTP290	ltpFR2	15	13	TOMBSTONE	1478	n/a	n/a	0	0	0
3003.158	n/a	WORD	1501579	wordpools/wasnorm_wordpool_576.txt	LTP290	ltpFR2	15	13	GROUND	666	n/a	n/a	0	0	0
3005.662	n/a	WORD	1502831	wordpools/wasnorm_wordpool_576.txt	LTP290	ltpFR2	15	13	CEILING	265	n/a	n/a	0	0	0
3008.478	n/a	WORD	1504239	wordpools/wasnorm_wordpool_576.txt	LTP290	ltpFR2	15	13	SWITCH	1422	n/a	n/a	0	0	0
3011.172	n/a	WORD	1505586	wordpools/wasnorm_wordpool_576.txt	LTP290	ltpFR2	15	13	GRIZZLY	662	n/a	n/a	0	0	0
3013.764	n/a	WORD	1506882	wordpools/wasnorm_wordpool_576.txt	LTP290	ltpFR2	15	13	TABLET	1427	n/a	n/a	0	0	0
3016.386	n/a	WORD	1508193	wordpools/wasnorm_wordpool_576.txt	LTP290	ltpFR2	15	13	BANJO	82	n/a	n/a	0	0	0
3018.852	n/a	WORD	1509426	wordpools/wasnorm_wordpool_576.txt	LTP290	ltpFR2	15	13	COUCH	386	n/a	n/a	0	0	0
3021.674	n/a	WORD	1510837	wordpools/wasnorm_wordpool_576.txt	LTP290	ltpFR2	15	13	HERO	706	n/a	n/a	0	0	0
3023.286	n/a	START	1511643	n/a	LTP290	ltpFR2	15	n/a	n/a	n/a	20	n/a	n/a	n/a	n/a
3024.31	n/a	DISTRACTOR	1512155	n/a	LTP290	ltpFR2	15	13	n/a	n/a	n/a	n/a	0	0	0
3024.322	n/a	PROB	1512161	n/a	LTP290	ltpFR2	15	n/a	n/a	n/a	20	13	7	4	2
3026.346	n/a	PROB	1513173	n/a	LTP290	ltpFR2	15	n/a	n/a	n/a	20	14	3	9	2
3027.964	n/a	PROB	1513982	n/a	LTP290	ltpFR2	15	n/a	n/a	n/a	20	7	2	3	2
3031.662	n/a	PROB	1515831	n/a	LTP290	ltpFR2	15	n/a	n/a	n/a	20	9	7	1	1
3032.988	n/a	PROB	1516494	n/a	LTP290	ltpFR2	15	n/a	n/a	n/a	20	7	5	1	1
3034.31	n/a	PROB	1517155	n/a	LTP290	ltpFR2	15	n/a	n/a	n/a	20	18	9	3	6
3036.25	n/a	PROB	1518125	n/a	LTP290	ltpFR2	15	n/a	n/a	n/a	20	16	3	8	8
3038.258	n/a	PROB	1519129	n/a	LTP290	ltpFR2	15	n/a	n/a	n/a	20	13	4	5	4
3040.63	n/a	PROB	1520315	n/a	LTP290	ltpFR2	15	n/a	n/a	n/a	20	10	2	1	7
3042.002	n/a	PROB	1521001	n/a	LTP290	ltpFR2	15	n/a	n/a	n/a	20	12	4	6	2
3043.306	n/a	PROB	1521653	n/a	LTP290	ltpFR2	15	n/a	n/a	n/a	20	18	4	8	6
3047.286	n/a	STOP	1523643	n/a	LTP290	ltpFR2	15	n/a	n/a	n/a	20	n/a	n/a	n/a	n/a
3049.102	n/a	REC_START	1524551	n/a	LTP290	ltpFR2	15	13	n/a	n/a	n/a	n/a	0	0	0
3062.37	n/a	REC_WORD	1531185	wordpools/wasnorm_wordpool_576.txt	LTP290	ltpFR2	15	13	AUTHOR	61	n/a	n/a	0	0	0
3062.958	n/a	REC_WORD	1531479	wordpools/wasnorm_wordpool_576.txt	LTP290	ltpFR2	15	13	ATOM	55	n/a	n/a	0	0	0
3065.048	n/a	REC_WORD	1532524	wordpools/wasnorm_wordpool_576.txt	LTP290	ltpFR2	15	13	PROTON	1132	n/a	n/a	0	0	0
3069.458	n/a	REC_WORD	1534729	wordpools/wasnorm_wordpool_576.txt	LTP290	ltpFR2	15	13	SCALPEL	1243	n/a	n/a	0	0	0
3071.956	n/a	REC_WORD	1535978	wordpools/wasnorm_wordpool_576.txt	LTP290	ltpFR2	15	13	SALT	1229	n/a	n/a	0	0	0
3072.744	n/a	REC_WORD	1536372	wordpools/wasnorm_wordpool_576.txt	LTP290	ltpFR2	15	13	LIZARD	834	n/a	n/a	0	0	0
3073.79	n/a	REC_WORD	1536895	wordpools/wasnorm_wordpool_576.txt	LTP290	ltpFR2	15	13	NURSE	963	n/a	n/a	0	0	0
3075.606	n/a	REC_WORD	1537803	wordpools/wasnorm_wordpool_576.txt	LTP290	ltpFR2	15	13	HOUND	724	n/a	n/a	0	0	0
3076.258	n/a	REC_WORD	1538129	wordpools/wasnorm_wordpool_576.txt	LTP290	ltpFR2	15	13	LILY	821	n/a	n/a	0	0	0
3140.132	n/a	DISTRACTOR	1570066	n/a	LTP290	ltpFR2	15	14	n/a	n/a	n/a	n/a	0	0	0
3140.132	n/a	START	1570066	n/a	LTP290	ltpFR2	15	n/a	n/a	n/a	21	n/a	n/a	n/a	n/a
3140.182	n/a	PROB	1570091	n/a	LTP290	ltpFR2	15	n/a	n/a	n/a	21	18	6	8	4
3141.816	n/a	PROB	1570908	n/a	LTP290	ltpFR2	15	n/a	n/a	n/a	21	10	7	2	1
3143.022	n/a	PROB	1571511	n/a	LTP290	ltpFR2	15	n/a	n/a	n/a	21	13	5	4	4
3144.676	n/a	PROB	1572338	n/a	LTP290	ltpFR2	15	n/a	n/a	n/a	21	15	1	5	9
3146.418	n/a	PROB	1573209	n/a	LTP290	ltpFR2	15	n/a	n/a	n/a	21	15	6	5	4
3148.158	n/a	PROB	1574079	n/a	LTP290	ltpFR2	15	n/a	n/a	n/a	21	11	1	3	7
3149.896	n/a	PROB	1574948	n/a	LTP290	ltpFR2	15	n/a	n/a	n/a	21	14	5	1	8
3151.292	n/a	PROB	1575646	n/a	LTP290	ltpFR2	15	n/a	n/a	n/a	21	25	8	8	9
3153.148	n/a	PROB	1576574	n/a	LTP290	ltpFR2	15	n/a	n/a	n/a	21	17	9	2	6
3154.884	n/a	PROB	1577442	n/a	LTP290	ltpFR2	15	n/a	n/a	n/a	21	24	9	7	8
3157.146	n/a	PROB	1578573	n/a	LTP290	ltpFR2	15	n/a	n/a	n/a	21	16	8	2	6
3158.562	n/a	PROB	1579281	n/a	LTP290	ltpFR2	15	n/a	n/a	n/a	21	14	6	1	7
3160.074	n/a	PROB	1580037	n/a	LTP290	ltpFR2	15	n/a	n/a	n/a	21	23	8	6	9
3161.994	n/a	PROB	1580997	n/a	LTP290	ltpFR2	15	n/a	n/a	n/a	21	12	4	7	1
3163.584	n/a	STOP	1581792	n/a	LTP290	ltpFR2	15	n/a	n/a	n/a	21	n/a	n/a	n/a	n/a
3165.306	n/a	WORD	1582653	wordpools/wasnorm_wordpool_576.txt	LTP290	ltpFR2	15	14	COOKBOOK	373	n/a	n/a	0	0	0
3167.838	n/a	WORD	1583919	wordpools/wasnorm_wordpool_576.txt	LTP290	ltpFR2	15	14	DINER	467	n/a	n/a	0	0	0
3170.53	n/a	WORD	1585265	wordpools/wasnorm_wordpool_576.txt	LTP290	ltpFR2	15	14	PERMIT	1051	n/a	n/a	0	0	0
3173.292	n/a	WORD	1586646	wordpools/wasnorm_wordpool_576.txt	LTP290	ltpFR2	15	14	VALLEY	1545	n/a	n/a	0	0	0
3175.734	n/a	WORD	1587867	wordpools/wasnorm_wordpool_576.txt	LTP290	ltpFR2	15	14	KLEENEX	782	n/a	n/a	0	0	0
3178.21	n/a	WORD	1589105	wordpools/wasnorm_wordpool_576.txt	LTP290	ltpFR2	15	14	PLAYGROUND	1087	n/a	n/a	0	0	0
3180.782	n/a	WORD	1590391	wordpools/wasnorm_wordpool_576.txt	LTP290	ltpFR2	15	14	PICTURE	1061	n/a	n/a	0	0	0
3183.464	n/a	WORD	1591732	wordpools/wasnorm_wordpool_576.txt	LTP290	ltpFR2	15	14	GALLON	618	n/a	n/a	0	0	0
3186.274	n/a	WORD	1593137	wordpools/wasnorm_wordpool_576.txt	LTP290	ltpFR2	15	14	DRAGON	492	n/a	n/a	0	0	0
3189.018	n/a	WORD	1594509	wordpools/wasnorm_wordpool_576.txt	LTP290	ltpFR2	15	14	DRILL	497	n/a	n/a	0	0	0
3191.724	n/a	WORD	1595862	wordpools/wasnorm_wordpool_576.txt	LTP290	ltpFR2	15	14	GIFT	635	n/a	n/a	0	0	0
3194.154	n/a	WORD	1597077	wordpools/wasnorm_wordpool_576.txt	LTP290	ltpFR2	15	14	FLUTE	585	n/a	n/a	0	0	0
3196.614	n/a	WORD	1598307	wordpools/wasnorm_wordpool_576.txt	LTP290	ltpFR2	15	14	FILM	565	n/a	n/a	0	0	0
3199.074	n/a	WORD	1599537	wordpools/wasnorm_wordpool_576.txt	LTP290	ltpFR2	15	14	RATTLE	1170	n/a	n/a	0	0	0
3201.75	n/a	WORD	1600875	wordpools/wasnorm_wordpool_576.txt	LTP290	ltpFR2	15	14	DONKEY	484	n/a	n/a	0	0	0
3204.51	n/a	WORD	1602255	wordpools/wasnorm_wordpool_576.txt	LTP290	ltpFR2	15	14	DRESS	495	n/a	n/a	0	0	0
3207.25	n/a	WORD	1603625	wordpools/wasnorm_wordpool_576.txt	LTP290	ltpFR2	15	14	COBRA	336	n/a	n/a	0	0	0
3210.0	n/a	WORD	1605000	wordpools/wasnorm_wordpool_576.txt	LTP290	ltpFR2	15	14	SLIDE	1326	n/a	n/a	0	0	0
3212.47	n/a	WORD	1606235	wordpools/wasnorm_wordpool_576.txt	LTP290	ltpFR2	15	14	COD	340	n/a	n/a	0	0	0
3215.252	n/a	WORD	1607626	wordpools/wasnorm_wordpool_576.txt	LTP290	ltpFR2	15	14	BRAKE	166	n/a	n/a	0	0	0
3218.062	n/a	WORD	1609031	wordpools/wasnorm_wordpool_576.txt	LTP290	ltpFR2	15	14	CRIB	407	n/a	n/a	0	0	0
3220.89	n/a	WORD	1610445	wordpools/wasnorm_wordpool_576.txt	LTP290	ltpFR2	15	14	CANAL	226	n/a	n/a	0	0	0
3223.494	n/a	WORD	1611747	wordpools/wasnorm_wordpool_576.txt	LTP290	ltpFR2	15	14	BODY	145	n/a	n/a	0	0	0
3226.11	n/a	WORD	1613055	wordpools/wasnorm_wordpool_576.txt	LTP290	ltpFR2	15	14	SEAFOOD	1260	n/a	n/a	0	0	0
3227.728	n/a	START	1613864	n/a	LTP290	ltpFR2	15	n/a	n/a	n/a	22	n/a	n/a	n/a	n/a
3228.734	n/a	DISTRACTOR	1614367	n/a	LTP290	ltpFR2	15	14	n/a	n/a	n/a	n/a	0	0	0
3228.748	n/a	PROB	1614374	n/a	LTP290	ltpFR2	15	n/a	n/a	n/a	22	23	7	8	8
3232.87	n/a	PROB	1616435	n/a	LTP290	ltpFR2	15	n/a	n/a	n/a	22	15	4	6	5
3234.454	n/a	PROB	1617227	n/a	LTP290	ltpFR2	15	n/a	n/a	n/a	22	17	6	7	4
3235.96	n/a	PROB	1617980	n/a	LTP290	ltpFR2	15	n/a	n/a	n/a	22	16	2	9	5
3237.698	n/a	PROB	1618849	n/a	LTP290	ltpFR2	15	n/a	n/a	n/a	22	17	6	7	4
3239.44	n/a	PROB	1619720	n/a	LTP290	ltpFR2	15	n/a	n/a	n/a	22	17	5	8	4
3241.414	n/a	PROB	1620707	n/a	LTP290	ltpFR2	15	n/a	n/a	n/a	22	12	4	7	1
3243.176	n/a	PROB	1621588	n/a	LTP290	ltpFR2	15	n/a	n/a	n/a	22	12	2	6	4
3244.966	n/a	PROB	1622483	n/a	LTP290	ltpFR2	15	n/a	n/a	n/a	22	10	7	2	1
3246.138	n/a	PROB	1623069	n/a	LTP290	ltpFR2	15	n/a	n/a	n/a	22	19	9	2	8
3247.704	n/a	PROB	1623852	n/a	LTP290	ltpFR2	15	n/a	n/a	n/a	22	16	1	7	8
3249.248	n/a	PROB	1624624	n/a	LTP290	ltpFR2	15	n/a	n/a	n/a	22	13	2	8	3
3250.462	n/a	STOP	1625231	n/a	LTP290	ltpFR2	15	n/a	n/a	n/a	22	n/a	n/a	n/a	n/a
3253.564	n/a	REC_START	1626782	n/a	LTP290	ltpFR2	15	14	n/a	n/a	n/a	n/a	0	0	0
3255.716	n/a	REC_WORD_VV	1627858	wordpools/wasnorm_wordpool_576.txt	LTP290	ltpFR2	15	14	<>	-1	n/a	n/a	0	0	0
3256.516	n/a	REC_WORD	1628258	wordpools/wasnorm_wordpool_576.txt	LTP290	ltpFR2	15	14	COOKBOOK	373	n/a	n/a	0	0	0
3344.612	n/a	WORD	1672306	wordpools/wasnorm_wordpool_576.txt	LTP290	ltpFR2	15	15	CLOCK	325	n/a	n/a	0	0	0
3347.156	n/a	WORD	1673578	wordpools/wasnorm_wordpool_576.txt	LTP290	ltpFR2	15	15	PAIL	1002	n/a	n/a	0	0	0
3349.9	n/a	WORD	1674950	wordpools/wasnorm_wordpool_576.txt	LTP290	ltpFR2	15	15	TRENCH	1503	n/a	n/a	0	0	0
3352.542	n/a	WORD	1676271	wordpools/wasnorm_wordpool_576.txt	LTP290	ltpFR2	15	15	FLAG	573	n/a	n/a	0	0	0
3355.17	n/a	WORD	1677585	wordpools/wasnorm_wordpool_576.txt	LTP290	ltpFR2	15	15	DRESSER	496	n/a	n/a	0	0	0
3357.742	n/a	WORD	1678871	wordpools/wasnorm_wordpool_576.txt	LTP290	ltpFR2	15	15	COFFEE	341	n/a	n/a	0	0	0
3360.386	n/a	WORD	1680193	wordpools/wasnorm_wordpool_576.txt	LTP290	ltpFR2	15	15	APPLE	33	n/a	n/a	0	0	0
3363.05	n/a	WORD	1681525	wordpools/wasnorm_wordpool_576.txt	LTP290	ltpFR2	15	15	JUNGLE	764	n/a	n/a	0	0	0
3365.878	n/a	WORD	1682939	wordpools/wasnorm_wordpool_576.txt	LTP290	ltpFR2	15	15	CHIPMUNK	304	n/a	n/a	0	0	0
3368.47	n/a	WORD	1684235	wordpools/wasnorm_wordpool_576.txt	LTP290	ltpFR2	15	15	PEPPER	1047	n/a	n/a	0	0	0
3371.226	n/a	WORD	1685613	wordpools/wasnorm_wordpool_576.txt	LTP290	ltpFR2	15	15	BUGGY	188	n/a	n/a	0	0	0
3373.876	n/a	WORD	1686938	wordpools/wasnorm_wordpool_576.txt	LTP290	ltpFR2	15	15	MAMMAL	861	n/a	n/a	0	0	0
3376.364	n/a	WORD	1688182	wordpools/wasnorm_wordpool_576.txt	LTP290	ltpFR2	15	15	BOYFRIEND	162	n/a	n/a	0	0	0
3378.956	n/a	WORD	1689478	wordpools/wasnorm_wordpool_576.txt	LTP290	ltpFR2	15	15	LOVER	846	n/a	n/a	0	0	0
3381.688	n/a	WORD	1690844	wordpools/wasnorm_wordpool_576.txt	LTP290	ltpFR2	15	15	FLESH	579	n/a	n/a	0	0	0
3384.498	n/a	WORD	1692249	wordpools/wasnorm_wordpool_576.txt	LTP290	ltpFR2	15	15	PADDLE	1000	n/a	n/a	0	0	0
3387.054	n/a	WORD	1693527	wordpools/wasnorm_wordpool_576.txt	LTP290	ltpFR2	15	15	WAITRESS	1581	n/a	n/a	0	0	0
3389.702	n/a	WORD	1694851	wordpools/wasnorm_wordpool_576.txt	LTP290	ltpFR2	15	15	SUMMIT	1405	n/a	n/a	0	0	0
3392.178	n/a	WORD	1696089	wordpools/wasnorm_wordpool_576.txt	LTP290	ltpFR2	15	15	TAXI	1438	n/a	n/a	0	0	0
3394.772	n/a	WORD	1697386	wordpools/wasnorm_wordpool_576.txt	LTP290	ltpFR2	15	15	MEAT	883	n/a	n/a	0	0	0
3397.514	n/a	WORD	1698757	wordpools/wasnorm_wordpool_576.txt	LTP290	ltpFR2	15	15	PATROL	1027	n/a	n/a	0	0	0
3400.292	n/a	WORD	1700146	wordpools/wasnorm_wordpool_576.txt	LTP290	ltpFR2	15	15	CITRUS	313	n/a	n/a	0	0	0
3402.802	n/a	WORD	1701401	wordpools/wasnorm_wordpool_576.txt	LTP290	ltpFR2	15	15	RAZOR	1171	n/a	n/a	0	0	0
3405.494	n/a	WORD	1702747	wordpools/wasnorm_wordpool_576.txt	LTP290	ltpFR2	15	15	OMELET	976	n/a	n/a	0	0	0
3407.102	n/a	START	1703551	n/a	LTP290	ltpFR2	15	n/a	n/a	n/a	23	n/a	n/a	n/a	n/a
3408.282	n/a	DISTRACTOR	1704141	n/a	LTP290	ltpFR2	15	15	n/a	n/a	n/a	n/a	0	0	0
3408.29	n/a	PROB	1704145	n/a	LTP290	ltpFR2	15	n/a	n/a	n/a	23	23	7	7	9
3410.626	n/a	PROB	1705313	n/a	LTP290	ltpFR2	15	n/a	n/a	n/a	23	18	7	9	2
3412.234	n/a	PROB	1706117	n/a	LTP290	ltpFR2	15	n/a	n/a	n/a	23	19	8	3	8
3413.89	n/a	PROB	1706945	n/a	LTP290	ltpFR2	15	n/a	n/a	n/a	23	19	6	8	5
3415.712	n/a	PROB	1707856	n/a	LTP290	ltpFR2	15	n/a	n/a	n/a	23	14	6	1	7
3417.37	n/a	PROB	1708685	n/a	LTP290	ltpFR2	15	n/a	n/a	n/a	23	13	1	3	9
3418.892	n/a	PROB	1709446	n/a	LTP290	ltpFR2	15	n/a	n/a	n/a	23	9	3	4	2
3420.834	n/a	PROB	1710417	n/a	LTP290	ltpFR2	15	n/a	n/a	n/a	23	15	6	3	6
3422.272	n/a	PROB	1711136	n/a	LTP290	ltpFR2	15	n/a	n/a	n/a	23	15	6	4	5
3423.794	n/a	PROB	1711897	n/a	LTP290	ltpFR2	15	n/a	n/a	n/a	23	20	5	7	8
3425.55	n/a	PROB	1712775	n/a	LTP290	ltpFR2	15	n/a	n/a	n/a	23	21	9	5	7
3428.216	n/a	PROB	1714108	n/a	LTP290	ltpFR2	15	n/a	n/a	n/a	23	15	3	3	9
3429.554	n/a	PROB	1714777	n/a	LTP290	ltpFR2	15	n/a	n/a	n/a	23	10	2	1	7
3430.67	n/a	STOP	1715335	n/a	LTP290	ltpFR2	15	n/a	n/a	n/a	23	n/a	n/a	n/a	n/a
3432.868	n/a	REC_START	1716434	n/a	LTP290	ltpFR2	15	15	n/a	n/a	n/a	n/a	0	0	0
3523.916	n/a	DISTRACTOR	1761958	n/a	LTP290	ltpFR2	15	16	n/a	n/a	n/a	n/a	0	0	0
3523.916	n/a	START	1761958	n/a	LTP290	ltpFR2	15	n/a	n/a	n/a	24	n/a	n/a	n/a	n/a
3523.966	n/a	PROB	1761983	n/a	LTP290	ltpFR2	15	n/a	n/a	n/a	24	16	7	1	8
3526.002	n/a	PROB	1763001	n/a	LTP290	ltpFR2	15	n/a	n/a	n/a	24	13	1	8	4
3527.424	n/a	PROB	1763712	n/a	LTP290	ltpFR2	15	n/a	n/a	n/a	24	18	6	7	5
3529.37	n/a	PROB	1764685	n/a	LTP290	ltpFR2	15	n/a	n/a	n/a	24	10	6	3	1
3530.486	n/a	PROB	1765243	n/a	LTP290	ltpFR2	15	n/a	n/a	n/a	24	15	7	5	3
3532.192	n/a	PROB	1766096	n/a	LTP290	ltpFR2	15	n/a	n/a	n/a	24	6	2	3	1
3533.63	n/a	PROB	1766815	n/a	LTP290	ltpFR2	15	n/a	n/a	n/a	24	12	4	3	5
3536.158	n/a	PROB	1768079	n/a	LTP290	ltpFR2	15	n/a	n/a	n/a	24	24	8	9	7
3538.648	n/a	PROB	1769324	n/a	LTP290	ltpFR2	15	n/a	n/a	n/a	24	12	6	1	5
3539.96	n/a	PROB	1769980	n/a	LTP290	ltpFR2	15	n/a	n/a	n/a	24	8	3	4	1
3541.494	n/a	PROB	1770747	n/a	LTP290	ltpFR2	15	n/a	n/a	n/a	24	14	3	5	6
3543.652	n/a	PROB	1771826	n/a	LTP290	ltpFR2	15	n/a	n/a	n/a	24	20	3	8	9
3545.744	n/a	PROB	1772872	n/a	LTP290	ltpFR2	15	n/a	n/a	n/a	24	15	8	5	2
3547.516	n/a	STOP	1773758	n/a	LTP290	ltpFR2	15	n/a	n/a	n/a	24	n/a	n/a	n/a	n/a
3548.856	n/a	WORD	1774428	wordpools/wasnorm_wordpool_576.txt	LTP290	ltpFR2	15	16	PRIMATE	1123	n/a	n/a	0	0	0
3551.42	n/a	WORD	1775710	wordpools/wasnorm_wordpool_576.txt	LTP290	ltpFR2	15	16	RABBIT	1152	n/a	n/a	0	0	0
3553.964	n/a	WORD	1776982	wordpools/wasnorm_wordpool_576.txt	LTP290	ltpFR2	15	16	TERMITE	1451	n/a	n/a	0	0	0
3556.618	n/a	WORD	1778309	wordpools/wasnorm_wordpool_576.txt	LTP290	ltpFR2	15	16	CRICKET	408	n/a	n/a	0	0	0
3559.1	n/a	WORD	1779550	wordpools/wasnorm_wordpool_576.txt	LTP290	ltpFR2	15	16	LAMP	798	n/a	n/a	0	0	0
3561.86	n/a	WORD	1780930	wordpools/wasnorm_wordpool_576.txt	LTP290	ltpFR2	15	16	OUTLAW	989	n/a	n/a	0	0	0
3564.398	n/a	WORD	1782199	wordpools/wasnorm_wordpool_576.txt	LTP290	ltpFR2	15	16	DUST	508	n/a	n/a	0	0	0
3567.148	n/a	WORD	1783574	wordpools/wasnorm_wordpool_576.txt	LTP290	ltpFR2	15	16	DANDRUFF	439	n/a	n/a	0	0	0
3569.672	n/a	WORD	1784836	wordpools/wasnorm_wordpool_576.txt	LTP290	ltpFR2	15	16	SPHINX	1349	n/a	n/a	0	0	0
3572.434	n/a	WORD	1786217	wordpools/wasnorm_wordpool_576.txt	LTP290	ltpFR2	15	16	BIKE	125	n/a	n/a	0	0	0
3575.222	n/a	WORD	1787611	wordpools/wasnorm_wordpool_576.txt	LTP290	ltpFR2	15	16	PUPIL	1143	n/a	n/a	0	0	0
3577.922	n/a	WORD	1788961	wordpools/wasnorm_wordpool_576.txt	LTP290	ltpFR2	15	16	BOX	159	n/a	n/a	0	0	0
3580.682	n/a	WORD	1790341	wordpools/wasnorm_wordpool_576.txt	LTP290	ltpFR2	15	16	MARKER	870	n/a	n/a	0	0	0
3583.208	n/a	WORD	1791604	wordpools/wasnorm_wordpool_576.txt	LTP290	ltpFR2	15	16	SPACE	1345	n/a	n/a	0	0	0
3585.634	n/a	WORD	1792817	wordpools/wasnorm_wordpool_576.txt	LTP290	ltpFR2	15	16	WRENCH	1625	n/a	n/a	0	0	0
3588.362	n/a	WORD	1794181	wordpools/wasnorm_wordpool_576.txt	LTP290	ltpFR2	15	16	CLOUD	328	n/a	n/a	0	0	0
3591.1	n/a	WORD	1795550	wordpools/wasnorm_wordpool_576.txt	LTP290	ltpFR2	15	16	BACON	67	n/a	n/a	0	0	0
3593.676	n/a	WORD	1796838	wordpools/wasnorm_wordpool_576.txt	LTP290	ltpFR2	15	16	FLASHLIGHT	575	n/a	n/a	0	0	0
3596.422	n/a	WORD	1798211	wordpools/wasnorm_wordpool_576.txt	LTP290	ltpFR2	15	16	MESSAGE	888	n/a	n/a	0	0	0
3599.052	n/a	WORD	1799526	wordpools/wasnorm_wordpool_576.txt	LTP290	ltpFR2	15	16	MAILBOX	857	n/a	n/a	0	0	0
3601.846	n/a	WORD	1800923	wordpools/wasnorm_wordpool_576.txt	LTP290	ltpFR2	15	16	REBEL	1172	n/a	n/a	0	0	0
3604.622	n/a	WORD	1802311	wordpools/wasnorm_wordpool_576.txt	LTP290	ltpFR2	15	16	LIGHTNING	820	n/a	n/a	0	0	0
3607.25	n/a	WORD	1803625	wordpools/wasnorm_wordpool_576.txt	LTP290	ltpFR2	15	16	RIVER	1194	n/a	n/a	0	0	0
3609.758	n/a	WORD	1804879	wordpools/wasnorm_wordpool_576.txt	LTP290	ltpFR2	15	16	SCALLOP	1242	n/a	n/a	0	0	0
3611.366	n/a	START	1805683	n/a	LTP290	ltpFR2	15	n/a	n/a	n/a	25	n/a	n/a	n/a	n/a
3612.2	n/a	DISTRACTOR	1806100	n/a	LTP290	ltpFR2	15	16	n/a	n/a	n/a	n/a	0	0	0
3612.214	n/a	PROB	1806107	n/a	LTP290	ltpFR2	15	n/a	n/a	n/a	25	10	6	2	2
3614.312	n/a	PROB	1807156	n/a	LTP290	ltpFR2	15	n/a	n/a	n/a	25	7	4	1	2
3617.82	n/a	PROB	1808910	n/a	LTP290	ltpFR2	15	n/a	n/a	n/a	25	21	8	4	9
3621.65	n/a	PROB	1810825	n/a	LTP290	ltpFR2	15	n/a	n/a	n/a	25	8	2	2	4
3623.106	n/a	PROB	1811553	n/a	LTP290	ltpFR2	15	n/a	n/a	n/a	25	7	5	1	1
3625.18	n/a	PROB	1812590	n/a	LTP290	ltpFR2	15	n/a	n/a	n/a	25	14	7	6	1
3626.838	n/a	PROB	1813419	n/a	LTP290	ltpFR2	15	n/a	n/a	n/a	25	18	9	2	7
3628.46	n/a	PROB	1814230	n/a	LTP290	ltpFR2	15	n/a	n/a	n/a	25	9	1	6	2
3630.516	n/a	PROB	1815258	n/a	LTP290	ltpFR2	15	n/a	n/a	n/a	25	12	9	2	1
3632.492	n/a	PROB	1816246	n/a	LTP290	ltpFR2	15	n/a	n/a	n/a	25	17	2	8	7
3633.946	n/a	STOP	1816973	n/a	LTP290	ltpFR2	15	n/a	n/a	n/a	25	n/a	n/a	n/a	n/a
3637.312	n/a	REC_START	1818656	n/a	LTP290	ltpFR2	15	16	n/a	n/a	n/a	n/a	0	0	0
3649.042	n/a	REC_WORD_VV	1824521	wordpools/wasnorm_wordpool_576.txt	LTP290	ltpFR2	15	16	<>	-1	n/a	n/a	0	0	0
3649.984	n/a	REC_WORD	1824992	wordpools/wasnorm_wordpool_576.txt	LTP290	ltpFR2	15	16	CLOCK	325	n/a	n/a	0	0	0
3714.088	n/a	REST_REWET	1857044	n/a	LTP290	ltpFR2	15	16	n/a	n/a	n/a	n/a	0	0	0
4066.69	n/a	DISTRACTOR	2033345	n/a	LTP290	ltpFR2	15	17	n/a	n/a	n/a	n/a	0	0	0
4066.69	n/a	START	2033345	n/a	LTP290	ltpFR2	15	n/a	n/a	n/a	26	n/a	n/a	n/a	n/a
4066.74	n/a	PROB	2033370	n/a	LTP290	ltpFR2	15	n/a	n/a	n/a	26	15	6	6	3
4068.342	n/a	PROB	2034171	n/a	LTP290	ltpFR2	15	n/a	n/a	n/a	26	9	5	2	2
4070.054	n/a	PROB	2035027	n/a	LTP290	ltpFR2	15	n/a	n/a	n/a	26	21	7	5	9
4071.704	n/a	PROB	2035852	n/a	LTP290	ltpFR2	15	n/a	n/a	n/a	26	8	1	5	2
4074.854	n/a	PROB	2037427	n/a	LTP290	ltpFR2	15	n/a	n/a	n/a	26	18	6	8	4
4076.494	n/a	PROB	2038247	n/a	LTP290	ltpFR2	15	n/a	n/a	n/a	26	21	7	8	6
4078.414	n/a	PROB	2039207	n/a	LTP290	ltpFR2	15	n/a	n/a	n/a	26	11	1	8	2
4081.658	n/a	PROB	2040829	n/a	LTP290	ltpFR2	15	n/a	n/a	n/a	26	12	2	2	8
4082.83	n/a	PROB	2041415	n/a	LTP290	ltpFR2	15	n/a	n/a	n/a	26	22	9	6	7
4084.486	n/a	PROB	2042243	n/a	LTP290	ltpFR2	15	n/a	n/a	n/a	26	16	3	7	6
4085.74	n/a	PROB	2042870	n/a	LTP290	ltpFR2	15	n/a	n/a	n/a	26	16	9	6	1
4087.252	n/a	PROB	2043626	n/a	LTP290	ltpFR2	15	n/a	n/a	n/a	26	17	4	4	9
4089.642	n/a	STOP	2044821	n/a	LTP290	ltpFR2	15	n/a	n/a	n/a	26	n/a	n/a	n/a	n/a
4091.584	n/a	WORD	2045792	wordpools/wasnorm_wordpool_576.txt	LTP290	ltpFR2	15	17	MARSH	874	n/a	n/a	0	0	0
4094.056	n/a	WORD	2047028	wordpools/wasnorm_wordpool_576.txt	LTP290	ltpFR2	15	17	SCOTCH	1251	n/a	n/a	0	0	0
4096.7	n/a	WORD	2048350	wordpools/wasnorm_wordpool_576.txt	LTP290	ltpFR2	15	17	PRINCESS	1125	n/a	n/a	0	0	0
4099.214	n/a	WORD	2049607	wordpools/wasnorm_wordpool_576.txt	LTP290	ltpFR2	15	17	STREAM	1392	n/a	n/a	0	0	0
4101.706	n/a	WORD	2050853	wordpools/wasnorm_wordpool_576.txt	LTP290	ltpFR2	15	17	HOOD	714	n/a	n/a	0	0	0
4104.228	n/a	WORD	2052114	wordpools/wasnorm_wordpool_576.txt	LTP290	ltpFR2	15	17	FRUIT	610	n/a	n/a	0	0	0
4106.704	n/a	WORD	2053352	wordpools/wasnorm_wordpool_576.txt	LTP290	ltpFR2	15	17	BARREL	91	n/a	n/a	0	0	0
4109.47	n/a	WORD	2054735	wordpools/wasnorm_wordpool_576.txt	LTP290	ltpFR2	15	17	BANQUET	86	n/a	n/a	0	0	0
4112.076	n/a	WORD	2056038	wordpools/wasnorm_wordpool_576.txt	LTP290	ltpFR2	15	17	CHILD	299	n/a	n/a	0	0	0
4114.786	n/a	WORD	2057393	wordpools/wasnorm_wordpool_576.txt	LTP290	ltpFR2	15	17	PICNIC	1060	n/a	n/a	0	0	0
4117.412	n/a	WORD	2058706	wordpools/wasnorm_wordpool_576.txt	LTP290	ltpFR2	15	17	TABLE	1426	n/a	n/a	0	0	0
4120.078	n/a	WORD	2060039	wordpools/wasnorm_wordpool_576.txt	LTP290	ltpFR2	15	17	LAVA	804	n/a	n/a	0	0	0
4122.67	n/a	WORD	2061335	wordpools/wasnorm_wordpool_576.txt	LTP290	ltpFR2	15	17	THREAD	1460	n/a	n/a	0	0	0
4125.432	n/a	WORD	2062716	wordpools/wasnorm_wordpool_576.txt	LTP290	ltpFR2	15	17	TUBA	1515	n/a	n/a	0	0	0
4128.238	n/a	WORD	2064119	wordpools/wasnorm_wordpool_576.txt	LTP290	ltpFR2	15	17	FIREPLACE	570	n/a	n/a	0	0	0
4130.768	n/a	WORD	2065384	wordpools/wasnorm_wordpool_576.txt	LTP290	ltpFR2	15	17	CLAMP	316	n/a	n/a	0	0	0
4133.508	n/a	WORD	2066754	wordpools/wasnorm_wordpool_576.txt	LTP290	ltpFR2	15	17	MAILMAN	858	n/a	n/a	0	0	0
4136.04	n/a	WORD	2068020	wordpools/wasnorm_wordpool_576.txt	LTP290	ltpFR2	15	17	PACKAGE	997	n/a	n/a	0	0	0
4138.614	n/a	WORD	2069307	wordpools/wasnorm_wordpool_576.txt	LTP290	ltpFR2	15	17	GLOVE	642	n/a	n/a	0	0	0
4141.41	n/a	WORD	2070705	wordpools/wasnorm_wordpool_576.txt	LTP290	ltpFR2	15	17	FIDDLE	561	n/a	n/a	0	0	0
4144.03	n/a	WORD	2072015	wordpools/wasnorm_wordpool_576.txt	LTP290	ltpFR2	15	17	FRIEND	606	n/a	n/a	0	0	0
4146.762	n/a	WORD	2073381	wordpools/wasnorm_wordpool_576.txt	LTP290	ltpFR2	15	17	QUEEN	1149	n/a	n/a	0	0	0
4149.406	n/a	WORD	2074703	wordpools/wasnorm_wordpool_576.txt	LTP290	ltpFR2	15	17	LEG	809	n/a	n/a	0	0	0
4152.218	n/a	WORD	2076109	wordpools/wasnorm_wordpool_576.txt	LTP290	ltpFR2	15	17	ELBOW	520	n/a	n/a	0	0	0
4153.836	n/a	START	2076918	n/a	LTP290	ltpFR2	15	n/a	n/a	n/a	27	n/a	n/a	n/a	n/a
4154.692	n/a	DISTRACTOR	2077346	n/a	LTP290	ltpFR2	15	17	n/a	n/a	n/a	n/a	0	0	0
4154.71	n/a	PROB	2077355	n/a	LTP290	ltpFR2	15	n/a	n/a	n/a	27	20	4	7	9
4157.098	n/a	PROB	2078549	n/a	LTP290	ltpFR2	15	n/a	n/a	n/a	27	14	8	1	5
4158.552	n/a	PROB	2079276	n/a	LTP290	ltpFR2	15	n/a	n/a	n/a	27	17	2	6	9
4160.142	n/a	PROB	2080071	n/a	LTP290	ltpFR2	15	n/a	n/a	n/a	27	22	9	5	8
4161.73	n/a	PROB	2080865	n/a	LTP290	ltpFR2	15	n/a	n/a	n/a	27	17	5	6	6
4163.394	n/a	PROB	2081697	n/a	LTP290	ltpFR2	15	n/a	n/a	n/a	27	17	7	5	5
4165.144	n/a	PROB	2082572	n/a	LTP290	ltpFR2	15	n/a	n/a	n/a	27	23	8	8	7
4167.52	n/a	PROB	2083760	n/a	LTP290	ltpFR2	15	n/a	n/a	n/a	27	15	6	4	5
4169.212	n/a	PROB	2084606	n/a	LTP290	ltpFR2	15	n/a	n/a	n/a	27	19	3	9	7
4171.336	n/a	PROB	2085668	n/a	LTP290	ltpFR2	15	n/a	n/a	n/a	27	4	1	2	1
4172.594	n/a	PROB	2086297	n/a	LTP290	ltpFR2	15	n/a	n/a	n/a	27	15	9	5	1
4177.836	n/a	STOP	2088918	n/a	LTP290	ltpFR2	15	n/a	n/a	n/a	27	n/a	n/a	n/a	n/a
4179.684	n/a	REC_START	2089842	n/a	LTP290	ltpFR2	15	17	n/a	n/a	n/a	n/a	0	0	0
4180.554	n/a	REC_WORD_VV	2090277	wordpools/wasnorm_wordpool_576.txt	LTP290	ltpFR2	15	17	<>	-1	n/a	n/a	0	0	0
4181.266	n/a	REC_WORD	2090633	wordpools/wasnorm_wordpool_576.txt	LTP290	ltpFR2	15	17	PACKAGE	997	n/a	n/a	0	0	0
4181.852	n/a	REC_WORD	2090926	wordpools/wasnorm_wordpool_576.txt	LTP290	ltpFR2	15	17	GLOVE	642	n/a	n/a	0	0	0
4183.662	n/a	REC_WORD	2091831	wordpools/wasnorm_wordpool_576.txt	LTP290	ltpFR2	15	17	FIDDLE	561	n/a	n/a	0	0	0
4270.72	n/a	DISTRACTOR	2135360	n/a	LTP290	ltpFR2	15	18	n/a	n/a	n/a	n/a	0	0	0
4270.72	n/a	START	2135360	n/a	LTP290	ltpFR2	15	n/a	n/a	n/a	28	n/a	n/a	n/a	n/a
4270.77	n/a	PROB	2135385	n/a	LTP290	ltpFR2	15	n/a	n/a	n/a	28	18	3	9	6
4272.542	n/a	PROB	2136271	n/a	LTP290	ltpFR2	15	n/a	n/a	n/a	28	15	5	7	3
4274.078	n/a	PROB	2137039	n/a	LTP290	ltpFR2	15	n/a	n/a	n/a	28	14	9	1	4
4275.534	n/a	PROB	2137767	n/a	LTP290	ltpFR2	15	n/a	n/a	n/a	28	15	4	4	7
4277.122	n/a	PROB	2138561	n/a	LTP290	ltpFR2	15	n/a	n/a	n/a	28	18	7	5	6
4278.766	n/a	PROB	2139383	n/a	LTP290	ltpFR2	15	n/a	n/a	n/a	28	22	5	9	8
4281.16	n/a	PROB	2140580	n/a	LTP290	ltpFR2	15	n/a	n/a	n/a	28	12	3	3	6
4284.434	n/a	PROB	2142217	n/a	LTP290	ltpFR2	15	n/a	n/a	n/a	28	8	4	1	3
4287.078	n/a	PROB	2143539	n/a	LTP290	ltpFR2	15	n/a	n/a	n/a	28	13	3	3	7
4289.844	n/a	PROB	2144922	n/a	LTP290	ltpFR2	15	n/a	n/a	n/a	28	14	3	6	5
4293.39	n/a	STOP	2146695	n/a	LTP290	ltpFR2	15	n/a	n/a	n/a	28	n/a	n/a	n/a	n/a
4295.866	n/a	WORD	2147933	wordpools/wasnorm_wordpool_576.txt	LTP290	ltpFR2	15	18	YOLK	1633	n/a	n/a	0	0	0
4298.51	n/a	WORD	2149255	wordpools/wasnorm_wordpool_576.txt	LTP290	ltpFR2	15	18	ISLAND	745	n/a	n/a	0	0	0
4301.166	n/a	WORD	2150583	wordpools/wasnorm_wordpool_576.txt	LTP290	ltpFR2	15	18	SHELF	1280	n/a	n/a	0	0	0
4303.848	n/a	WORD	2151924	wordpools/wasnorm_wordpool_576.txt	LTP290	ltpFR2	15	18	BOUQUET	157	n/a	n/a	0	0	0
4306.618	n/a	WORD	2153309	wordpools/wasnorm_wordpool_576.txt	LTP290	ltpFR2	15	18	TURKEY	1520	n/a	n/a	0	0	0
4309.184	n/a	WORD	2154592	wordpools/wasnorm_wordpool_576.txt	LTP290	ltpFR2	15	18	CROWN	415	n/a	n/a	0	0	0
4311.89	n/a	WORD	2155945	wordpools/wasnorm_wordpool_576.txt	LTP290	ltpFR2	15	18	PALACE	1006	n/a	n/a	0	0	0
4314.682	n/a	WORD	2157341	wordpools/wasnorm_wordpool_576.txt	LTP290	ltpFR2	15	18	PAPER	1011	n/a	n/a	0	0	0
4317.332	n/a	WORD	2158666	wordpools/wasnorm_wordpool_576.txt	LTP290	ltpFR2	15	18	AIRPLANE	12	n/a	n/a	0	0	0
4319.79	n/a	WORD	2159895	wordpools/wasnorm_wordpool_576.txt	LTP290	ltpFR2	15	18	HAMPER	682	n/a	n/a	0	0	0
4322.334	n/a	WORD	2161167	wordpools/wasnorm_wordpool_576.txt	LTP290	ltpFR2	15	18	BUREAU	199	n/a	n/a	0	0	0
4324.826	n/a	WORD	2162413	wordpools/wasnorm_wordpool_576.txt	LTP290	ltpFR2	15	18	PARTNER	1017	n/a	n/a	0	0	0
4327.466	n/a	WORD	2163733	wordpools/wasnorm_wordpool_576.txt	LTP290	ltpFR2	15	18	PEDAL	1037	n/a	n/a	0	0	0
4330.114	n/a	WORD	2165057	wordpools/wasnorm_wordpool_576.txt	LTP290	ltpFR2	15	18	MUSTARD	935	n/a	n/a	0	0	0
4332.87	n/a	WORD	2166435	wordpools/wasnorm_wordpool_576.txt	LTP290	ltpFR2	15	18	BREAST	171	n/a	n/a	0	0	0
4335.3	n/a	WORD	2167650	wordpools/wasnorm_wordpool_576.txt	LTP290	ltpFR2	15	18	SALMON	1227	n/a	n/a	0	0	0
4337.754	n/a	WORD	2168877	wordpools/wasnorm_wordpool_576.txt	LTP290	ltpFR2	15	18	CATCHER	258	n/a	n/a	0	0	0
4340.57	n/a	WORD	2170285	wordpools/wasnorm_wordpool_576.txt	LTP290	ltpFR2	15	18	TUNNEL	1519	n/a	n/a	0	0	0
4343.18	n/a	WORD	2171590	wordpools/wasnorm_wordpool_576.txt	LTP290	ltpFR2	15	18	CHEST	295	n/a	n/a	0	0	0
4345.79	n/a	WORD	2172895	wordpools/wasnorm_wordpool_576.txt	LTP290	ltpFR2	15	18	SOFTBALL	1343	n/a	n/a	0	0	0
4348.234	n/a	WORD	2174117	wordpools/wasnorm_wordpool_576.txt	LTP290	ltpFR2	15	18	GARDEN	623	n/a	n/a	0	0	0
4350.944	n/a	WORD	2175472	wordpools/wasnorm_wordpool_576.txt	LTP290	ltpFR2	15	18	SUNSET	1408	n/a	n/a	0	0	0
4353.486	n/a	WORD	2176743	wordpools/wasnorm_wordpool_576.txt	LTP290	ltpFR2	15	18	MARS	873	n/a	n/a	0	0	0
4356.114	n/a	WORD	2178057	wordpools/wasnorm_wordpool_576.txt	LTP290	ltpFR2	15	18	OZONE	996	n/a	n/a	0	0	0
4357.73	n/a	START	2178865	n/a	LTP290	ltpFR2	15	n/a	n/a	n/a	29	n/a	n/a	n/a	n/a
4358.824	n/a	DISTRACTOR	2179412	n/a	LTP290	ltpFR2	15	18	n/a	n/a	n/a	n/a	0	0	0
4358.84	n/a	PROB	2179420	n/a	LTP290	ltpFR2	15	n/a	n/a	n/a	29	13	5	4	4
4361.544	n/a	PROB	2180772	n/a	LTP290	ltpFR2	15	n/a	n/a	n/a	29	13	2	4	7
4363.002	n/a	PROB	2181501	n/a	LTP290	ltpFR2	15	n/a	n/a	n/a	29	11	6	1	4
4364.29	n/a	PROB	2182145	n/a	LTP290	ltpFR2	15	n/a	n/a	n/a	29	21	5	7	9
4365.846	n/a	PROB	2182923	n/a	LTP290	ltpFR2	15	n/a	n/a	n/a	29	18	7	7	4
4367.302	n/a	PROB	2183651	n/a	LTP290	ltpFR2	15	n/a	n/a	n/a	29	16	2	6	8
4368.676	n/a	PROB	2184338	n/a	LTP290	ltpFR2	15	n/a	n/a	n/a	29	13	5	7	1
4370.446	n/a	PROB	2185223	n/a	LTP290	ltpFR2	15	n/a	n/a	n/a	29	15	4	8	3
4371.99	n/a	PROB	2185995	n/a	LTP290	ltpFR2	15	n/a	n/a	n/a	29	11	3	1	7
4373.224	n/a	PROB	2186612	n/a	LTP290	ltpFR2	15	n/a	n/a	n/a	29	17	4	8	5
4375.8	n/a	PROB	2187900	n/a	LTP290	ltpFR2	15	n/a	n/a	n/a	29	19	8	4	7
4377.992	n/a	PROB	2188996	n/a	LTP290	ltpFR2	15	n/a	n/a	n/a	29	18	2	9	7
4380.842	n/a	STOP	2190421	n/a	LTP290	ltpFR2	15	n/a	n/a	n/a	29	n/a	n/a	n/a	n/a
4383.53	n/a	REC_START	2191765	n/a	LTP290	ltpFR2	15	18	n/a	n/a	n/a	n/a	0	0	0
4386.498	n/a	REC_WORD	2193249	wordpools/wasnorm_wordpool_576.txt	LTP290	ltpFR2	15	18	TUNNEL	1519	n/a	n/a	0	0	0
4387.066	n/a	REC_WORD	2193533	wordpools/wasnorm_wordpool_576.txt	LTP290	ltpFR2	15	18	CHEST	295	n/a	n/a	0	0	0
4474.598	n/a	WORD	2237299	wordpools/wasnorm_wordpool_576.txt	LTP290	ltpFR2	15	19	LAPEL	800	n/a	n/a	0	0	0
4477.356	n/a	WORD	2238678	wordpools/wasnorm_wordpool_576.txt	LTP290	ltpFR2	15	19	FRAGRANCE	599	n/a	n/a	0	0	0
4479.964	n/a	WORD	2239982	wordpools/wasnorm_wordpool_576.txt	LTP290	ltpFR2	15	19	HANDBAG	684	n/a	n/a	0	0	0
4482.446	n/a	WORD	2241223	wordpools/wasnorm_wordpool_576.txt	LTP290	ltpFR2	15	19	KNAPSACK	783	n/a	n/a	0	0	0
4485.19	n/a	WORD	2242595	wordpools/wasnorm_wordpool_576.txt	LTP290	ltpFR2	15	19	CUPBOARD	425	n/a	n/a	0	0	0
4487.716	n/a	WORD	2243858	wordpools/wasnorm_wordpool_576.txt	LTP290	ltpFR2	15	19	GRAPE	654	n/a	n/a	0	0	0
4490.326	n/a	WORD	2245163	wordpools/wasnorm_wordpool_576.txt	LTP290	ltpFR2	15	19	SISTER	1312	n/a	n/a	0	0	0
4492.848	n/a	WORD	2246424	wordpools/wasnorm_wordpool_576.txt	LTP290	ltpFR2	15	19	COUNTY	389	n/a	n/a	0	0	0
4495.662	n/a	WORD	2247831	wordpools/wasnorm_wordpool_576.txt	LTP290	ltpFR2	15	19	DAISY	435	n/a	n/a	0	0	0
4498.324	n/a	WORD	2249162	wordpools/wasnorm_wordpool_576.txt	LTP290	ltpFR2	15	19	CHAMPAGNE	278	n/a	n/a	0	0	0
4501.068	n/a	WORD	2250534	wordpools/wasnorm_wordpool_576.txt	LTP290	ltpFR2	15	19	CROSS	413	n/a	n/a	0	0	0
4503.79	n/a	WORD	2251895	wordpools/wasnorm_wordpool_576.txt	LTP290	ltpFR2	15	19	HOSTESS	723	n/a	n/a	0	0	0
4506.522	n/a	WORD	2253261	wordpools/wasnorm_wordpool_576.txt	LTP290	ltpFR2	15	19	SERVANT	1271	n/a	n/a	0	0	0
4509.198	n/a	WORD	2254599	wordpools/wasnorm_wordpool_576.txt	LTP290	ltpFR2	15	19	TUTU	1524	n/a	n/a	0	0	0
4511.858	n/a	WORD	2255929	wordpools/wasnorm_wordpool_576.txt	LTP290	ltpFR2	15	19	DENTIST	447	n/a	n/a	0	0	0
4514.464	n/a	WORD	2257232	wordpools/wasnorm_wordpool_576.txt	LTP290	ltpFR2	15	19	MASK	876	n/a	n/a	0	0	0
4516.922	n/a	WORD	2258461	wordpools/wasnorm_wordpool_576.txt	LTP290	ltpFR2	15	19	PLASTER	1085	n/a	n/a	0	0	0
4519.55	n/a	WORD	2259775	wordpools/wasnorm_wordpool_576.txt	LTP290	ltpFR2	15	19	LACE	792	n/a	n/a	0	0	0
4522.132	n/a	WORD	2261066	wordpools/wasnorm_wordpool_576.txt	LTP290	ltpFR2	15	19	WINDOW	1611	n/a	n/a	0	0	0
4524.888	n/a	WORD	2262444	wordpools/wasnorm_wordpool_576.txt	LTP290	ltpFR2	15	19	DUSTPAN	509	n/a	n/a	0	0	0
4527.468	n/a	WORD	2263734	wordpools/wasnorm_wordpool_576.txt	LTP290	ltpFR2	15	19	PRINCE	1124	n/a	n/a	0	0	0
4530.178	n/a	WORD	2265089	wordpools/wasnorm_wordpool_576.txt	LTP290	ltpFR2	15	19	WIFE	1609	n/a	n/a	0	0	0
4532.72	n/a	WORD	2266360	wordpools/wasnorm_wordpool_576.txt	LTP290	ltpFR2	15	19	SPOUSE	1358	n/a	n/a	0	0	0
4535.466	n/a	WORD	2267733	wordpools/wasnorm_wordpool_576.txt	LTP290	ltpFR2	15	19	DANCER	437	n/a	n/a	0	0	0
4537.072	n/a	START	2268536	n/a	LTP290	ltpFR2	15	n/a	n/a	n/a	30	n/a	n/a	n/a	n/a
4537.922	n/a	DISTRACTOR	2268961	n/a	LTP290	ltpFR2	15	19	n/a	n/a	n/a	n/a	0	0	0
4537.936	n/a	PROB	2268968	n/a	LTP290	ltpFR2	15	n/a	n/a	n/a	30	12	5	3	4
4539.46	n/a	PROB	2269730	n/a	LTP290	ltpFR2	15	n/a	n/a	n/a	30	14	2	4	8
4541.366	n/a	PROB	2270683	n/a	LTP290	ltpFR2	15	n/a	n/a	n/a	30	12	3	5	4
4542.742	n/a	PROB	2271371	n/a	LTP290	ltpFR2	15	n/a	n/a	n/a	30	16	3	9	4
4545.42	n/a	PROB	2272710	n/a	LTP290	ltpFR2	15	n/a	n/a	n/a	30	14	7	6	1
4547.094	n/a	PROB	2273547	n/a	LTP290	ltpFR2	15	n/a	n/a	n/a	30	12	7	1	4
4548.644	n/a	PROB	2274322	n/a	LTP290	ltpFR2	15	n/a	n/a	n/a	30	18	5	5	8
4550.318	n/a	PROB	2275159	n/a	LTP290	ltpFR2	15	n/a	n/a	n/a	30	11	2	4	5
4551.694	n/a	PROB	2275847	n/a	LTP290	ltpFR2	15	n/a	n/a	n/a	30	13	4	4	5
4553.278	n/a	PROB	2276639	n/a	LTP290	ltpFR2	15	n/a	n/a	n/a	30	17	7	4	6
4554.968	n/a	PROB	2277484	n/a	LTP290	ltpFR2	15	n/a	n/a	n/a	30	19	9	7	3
4556.39	n/a	PROB	2278195	n/a	LTP290	ltpFR2	15	n/a	n/a	n/a	30	22	9	9	4
4558.47	n/a	PROB	2279235	n/a	LTP290	ltpFR2	15	n/a	n/a	n/a	30	6	2	2	2
4561.072	n/a	STOP	2280536	n/a	LTP290	ltpFR2	15	n/a	n/a	n/a	30	n/a	n/a	n/a	n/a
4562.836	n/a	REC_START	2281418	n/a	LTP290	ltpFR2	15	19	n/a	n/a	n/a	n/a	0	0	0
4581.088	n/a	REC_WORD_VV	2290544	wordpools/wasnorm_wordpool_576.txt	LTP290	ltpFR2	15	19	<>	-1	n/a	n/a	0	0	0
4582.018	n/a	REC_WORD	2291009	wordpools/wasnorm_wordpool_576.txt	LTP290	ltpFR2	15	19	PRINCE	1124	n/a	n/a	0	0	0
4653.902	n/a	WORD	2326951	wordpools/wasnorm_wordpool_576.txt	LTP290	ltpFR2	15	20	SMOG	1330	n/a	n/a	0	0	0
4656.578	n/a	WORD	2328289	wordpools/wasnorm_wordpool_576.txt	LTP290	ltpFR2	15	20	TYPIST	1532	n/a	n/a	0	0	0
4659.022	n/a	WORD	2329511	wordpools/wasnorm_wordpool_576.txt	LTP290	ltpFR2	15	20	PLAID	1080	n/a	n/a	0	0	0
4661.76	n/a	WORD	2330880	wordpools/wasnorm_wordpool_576.txt	LTP290	ltpFR2	15	20	SHORTS	1293	n/a	n/a	0	0	0
4664.302	n/a	WORD	2332151	wordpools/wasnorm_wordpool_576.txt	LTP290	ltpFR2	15	20	GREASE	660	n/a	n/a	0	0	0
4667.118	n/a	WORD	2333559	wordpools/wasnorm_wordpool_576.txt	LTP290	ltpFR2	15	20	EMPIRE	530	n/a	n/a	0	0	0
4669.864	n/a	WORD	2334932	wordpools/wasnorm_wordpool_576.txt	LTP290	ltpFR2	15	20	FLIPPER	580	n/a	n/a	0	0	0
4672.672	n/a	WORD	2336336	wordpools/wasnorm_wordpool_576.txt	LTP290	ltpFR2	15	20	OFFICE	972	n/a	n/a	0	0	0
4675.412	n/a	WORD	2337706	wordpools/wasnorm_wordpool_576.txt	LTP290	ltpFR2	15	20	MONSTER	912	n/a	n/a	0	0	0
4678.072	n/a	WORD	2339036	wordpools/wasnorm_wordpool_576.txt	LTP290	ltpFR2	15	20	WASP	1593	n/a	n/a	0	0	0
4680.732	n/a	WORD	2340366	wordpools/wasnorm_wordpool_576.txt	LTP290	ltpFR2	15	20	SUBWAY	1400	n/a	n/a	0	0	0
4683.43	n/a	WORD	2341715	wordpools/wasnorm_wordpool_576.txt	LTP290	ltpFR2	15	20	NAPKIN	937	n/a	n/a	0	0	0
4686.174	n/a	WORD	2343087	wordpools/wasnorm_wordpool_576.txt	LTP290	ltpFR2	15	20	JOURNAL	760	n/a	n/a	0	0	0
4688.65	n/a	WORD	2344325	wordpools/wasnorm_wordpool_576.txt	LTP290	ltpFR2	15	20	NIGHTGOWN	953	n/a	n/a	0	0	0
4691.106	n/a	WORD	2345553	wordpools/wasnorm_wordpool_576.txt	LTP290	ltpFR2	15	20	CRITIC	410	n/a	n/a	0	0	0
4693.554	n/a	WORD	2346777	wordpools/wasnorm_wordpool_576.txt	LTP290	ltpFR2	15	20	PEACH	1031	n/a	n/a	0	0	0
4696.33	n/a	WORD	2348165	wordpools/wasnorm_wordpool_576.txt	LTP290	ltpFR2	15	20	ONION	977	n/a	n/a	0	0	0
4698.958	n/a	WORD	2349479	wordpools/wasnorm_wordpool_576.txt	LTP290	ltpFR2	15	20	NECKLACE	940	n/a	n/a	0	0	0
4701.478	n/a	WORD	2350739	wordpools/wasnorm_wordpool_576.txt	LTP290	ltpFR2	15	20	THRONE	1461	n/a	n/a	0	0	0
4704.126	n/a	WORD	2352063	wordpools/wasnorm_wordpool_576.txt	LTP290	ltpFR2	15	20	OUTFIT	988	n/a	n/a	0	0	0
4706.72	n/a	WORD	2353360	wordpools/wasnorm_wordpool_576.txt	LTP290	ltpFR2	15	20	BARLEY	88	n/a	n/a	0	0	0
4709.196	n/a	WORD	2354598	wordpools/wasnorm_wordpool_576.txt	LTP290	ltpFR2	15	20	SALAD	1224	n/a	n/a	0	0	0
4711.806	n/a	WORD	2355903	wordpools/wasnorm_wordpool_576.txt	LTP290	ltpFR2	15	20	SLIME	1327	n/a	n/a	0	0	0
4714.45	n/a	WORD	2357225	wordpools/wasnorm_wordpool_576.txt	LTP290	ltpFR2	15	20	MEDAL	885	n/a	n/a	0	0	0
4716.056	n/a	START	2358028	n/a	LTP290	ltpFR2	15	n/a	n/a	n/a	31	n/a	n/a	n/a	n/a
4716.878	n/a	DISTRACTOR	2358439	n/a	LTP290	ltpFR2	15	20	n/a	n/a	n/a	n/a	0	0	0
4716.892	n/a	PROB	2358446	n/a	LTP290	ltpFR2	15	n/a	n/a	n/a	31	21	9	6	6
4718.744	n/a	PROB	2359372	n/a	LTP290	ltpFR2	15	n/a	n/a	n/a	31	21	5	7	9
4720.368	n/a	PROB	2360184	n/a	LTP290	ltpFR2	15	n/a	n/a	n/a	31	19	3	7	9
4723.128	n/a	PROB	2361564	n/a	LTP290	ltpFR2	15	n/a	n/a	n/a	31	17	2	7	8
4724.968	n/a	PROB	2362484	n/a	LTP290	ltpFR2	15	n/a	n/a	n/a	31	20	6	6	8
4726.33	n/a	PROB	2363165	n/a	LTP290	ltpFR2	15	n/a	n/a	n/a	31	18	5	6	7
4728.738	n/a	PROB	2364369	n/a	LTP290	ltpFR2	15	n/a	n/a	n/a	31	12	5	6	2
4731.21	n/a	PROB	2365605	n/a	LTP290	ltpFR2	15	n/a	n/a	n/a	31	9	4	3	2
4732.938	n/a	PROB	2366469	n/a	LTP290	ltpFR2	15	n/a	n/a	n/a	31	20	8	5	7
4735.392	n/a	PROB	2367696	n/a	LTP290	ltpFR2	15	n/a	n/a	n/a	31	13	2	6	5
4738.118	n/a	PROB	2369059	n/a	LTP290	ltpFR2	15	n/a	n/a	n/a	31	18	2	8	8
4739.542	n/a	STOP	2369771	n/a	LTP290	ltpFR2	15	n/a	n/a	n/a	31	n/a	n/a	n/a	n/a
4741.888	n/a	REC_START	2370944	n/a	LTP290	ltpFR2	15	20	n/a	n/a	n/a	n/a	0	0	0
4745.328	n/a	REC_WORD_VV	2372664	wordpools/wasnorm_wordpool_576.txt	LTP290	ltpFR2	15	20	<>	-1	n/a	n/a	0	0	0
4746.086	n/a	REC_WORD	2373043	wordpools/wasnorm_wordpool_576.txt	LTP290	ltpFR2	15	20	SMOG	1330	n/a	n/a	0	0	0
4747.046	n/a	REC_WORD	2373523	wordpools/wasnorm_wordpool_576.txt	LTP290	ltpFR2	15	20	TYPIST	1532	n/a	n/a	0	0	0
4747.79	n/a	REC_WORD	2373895	wordpools/wasnorm_wordpool_576.txt	LTP290	ltpFR2	15	20	PLAID	1080	n/a	n/a	0	0	0
4748.494	n/a	REC_WORD	2374247	wordpools/wasnorm_wordpool_576.txt	LTP290	ltpFR2	15	20	SHORTS	1293	n/a	n/a	0	0	0
4832.952	n/a	WORD	2416476	wordpools/wasnorm_wordpool_576.txt	LTP290	ltpFR2	15	21	AGENT	10	n/a	n/a	0	0	0
4835.474	n/a	WORD	2417737	wordpools/wasnorm_wordpool_576.txt	LTP290	ltpFR2	15	21	LAGOON	795	n/a	n/a	0	0	0
4838.034	n/a	WORD	2419017	wordpools/wasnorm_wordpool_576.txt	LTP290	ltpFR2	15	21	PANTHER	1009	n/a	n/a	0	0	0
4840.532	n/a	WORD	2420266	wordpools/wasnorm_wordpool_576.txt	LTP290	ltpFR2	15	21	LEOPARD	812	n/a	n/a	0	0	0
4842.974	n/a	WORD	2421487	wordpools/wasnorm_wordpool_576.txt	LTP290	ltpFR2	15	21	JEANS	752	n/a	n/a	0	0	0
4845.584	n/a	WORD	2422792	wordpools/wasnorm_wordpool_576.txt	LTP290	ltpFR2	15	21	ICEBERG	731	n/a	n/a	0	0	0
4848.022	n/a	WORD	2424011	wordpools/wasnorm_wordpool_576.txt	LTP290	ltpFR2	15	21	COUNTRY	388	n/a	n/a	0	0	0
4850.804	n/a	WORD	2425402	wordpools/wasnorm_wordpool_576.txt	LTP290	ltpFR2	15	21	DIME	466	n/a	n/a	0	0	0
4853.33	n/a	WORD	2426665	wordpools/wasnorm_wordpool_576.txt	LTP290	ltpFR2	15	21	SWORD	1423	n/a	n/a	0	0	0
4855.756	n/a	WORD	2427878	wordpools/wasnorm_wordpool_576.txt	LTP290	ltpFR2	15	21	FRAME	600	n/a	n/a	0	0	0
4858.468	n/a	WORD	2429234	wordpools/wasnorm_wordpool_576.txt	LTP290	ltpFR2	15	21	BROTHER	179	n/a	n/a	0	0	0
4861.178	n/a	WORD	2430589	wordpools/wasnorm_wordpool_576.txt	LTP290	ltpFR2	15	21	BANKER	84	n/a	n/a	0	0	0
4863.752	n/a	WORD	2431876	wordpools/wasnorm_wordpool_576.txt	LTP290	ltpFR2	15	21	SCULPTURE	1258	n/a	n/a	0	0	0
4866.392	n/a	WORD	2433196	wordpools/wasnorm_wordpool_576.txt	LTP290	ltpFR2	15	21	TURNIP	1521	n/a	n/a	0	0	0
4869.136	n/a	WORD	2434568	wordpools/wasnorm_wordpool_576.txt	LTP290	ltpFR2	15	21	FUNGUS	614	n/a	n/a	0	0	0
4871.828	n/a	WORD	2435914	wordpools/wasnorm_wordpool_576.txt	LTP290	ltpFR2	15	21	AWARD	63	n/a	n/a	0	0	0
4874.612	n/a	WORD	2437306	wordpools/wasnorm_wordpool_576.txt	LTP290	ltpFR2	15	21	RACKET	1155	n/a	n/a	0	0	0
4877.29	n/a	WORD	2438645	wordpools/wasnorm_wordpool_576.txt	LTP290	ltpFR2	15	21	SCISSORS	1250	n/a	n/a	0	0	0
4879.76	n/a	WORD	2439880	wordpools/wasnorm_wordpool_576.txt	LTP290	ltpFR2	15	21	EXPERT	543	n/a	n/a	0	0	0
4882.392	n/a	WORD	2441196	wordpools/wasnorm_wordpool_576.txt	LTP290	ltpFR2	15	21	TEACHER	1440	n/a	n/a	0	0	0
4885.136	n/a	WORD	2442568	wordpools/wasnorm_wordpool_576.txt	LTP290	ltpFR2	15	21	BADGE	68	n/a	n/a	0	0	0
4887.824	n/a	WORD	2443912	wordpools/wasnorm_wordpool_576.txt	LTP290	ltpFR2	15	21	ROBBER	1197	n/a	n/a	0	0	0
4890.372	n/a	WORD	2445186	wordpools/wasnorm_wordpool_576.txt	LTP290	ltpFR2	15	21	IGLOO	734	n/a	n/a	0	0	0
4893.066	n/a	WORD	2446533	wordpools/wasnorm_wordpool_576.txt	LTP290	ltpFR2	15	21	DRAWING	494	n/a	n/a	0	0	0
4894.684	n/a	START	2447342	n/a	LTP290	ltpFR2	15	n/a	n/a	n/a	32	n/a	n/a	n/a	n/a
4895.486	n/a	DISTRACTOR	2447743	n/a	LTP290	ltpFR2	15	21	n/a	n/a	n/a	n/a	0	0	0
4895.492	n/a	PROB	2447746	n/a	LTP290	ltpFR2	15	n/a	n/a	n/a	32	13	8	3	2
4898.114	n/a	PROB	2449057	n/a	LTP290	ltpFR2	15	n/a	n/a	n/a	32	12	7	3	2
4899.752	n/a	PROB	2449876	n/a	LTP290	ltpFR2	15	n/a	n/a	n/a	32	7	2	3	2
4901.894	n/a	PROB	2450947	n/a	LTP290	ltpFR2	15	n/a	n/a	n/a	32	16	8	6	2
4903.4	n/a	PROB	2451700	n/a	LTP290	ltpFR2	15	n/a	n/a	n/a	32	14	3	8	3
4905.492	n/a	PROB	2452746	n/a	LTP290	ltpFR2	15	n/a	n/a	n/a	32	13	3	6	4
4906.914	n/a	PROB	2453457	n/a	LTP290	ltpFR2	15	n/a	n/a	n/a	32	22	9	4	9
4909.96	n/a	PROB	2454980	n/a	LTP290	ltpFR2	15	n/a	n/a	n/a	32	15	8	1	6
4912.184	n/a	PROB	2456092	n/a	LTP290	ltpFR2	15	n/a	n/a	n/a	32	16	8	4	4
4914.058	n/a	PROB	2457029	n/a	LTP290	ltpFR2	15	n/a	n/a	n/a	32	11	3	4	4
4915.33	n/a	PROB	2457665	n/a	LTP290	ltpFR2	15	n/a	n/a	n/a	32	22	8	5	9
4918.662	n/a	STOP	2459331	n/a	LTP290	ltpFR2	15	n/a	n/a	n/a	32	n/a	n/a	n/a	n/a
4920.55	n/a	REC_START	2460275	n/a	LTP290	ltpFR2	15	21	n/a	n/a	n/a	n/a	0	0	0
4995.554	n/a	REC_WORD_VV	2497777	wordpools/wasnorm_wordpool_576.txt	LTP290	ltpFR2	15	21	<>	-1	n/a	n/a	0	0	0
5011.602	n/a	WORD	2505801	wordpools/wasnorm_wordpool_576.txt	LTP290	ltpFR2	15	22	GLASS	639	n/a	n/a	0	0	0
5014.414	n/a	WORD	2507207	wordpools/wasnorm_wordpool_576.txt	LTP290	ltpFR2	15	22	SWIMMER	1420	n/a	n/a	0	0	0
