onset	duration	trial_type	sample	stim_file	subject	experiment	session	trial	item_name	item_num	list	answer	test_x	test_y	test_z
213.328	n/a	SESS_START	106664	n/a	LTP327	ltpFR2	10	n/a	n/a	n/a	n/a	n/a	0	0	0
230.078	n/a	START	115039	n/a	LTP327	ltpFR2	10	n/a	n/a	n/a	-1	n/a	n/a	n/a	n/a
230.11	n/a	PROB	115055	n/a	LTP327	ltpFR2	10	n/a	n/a	n/a	-1	12	7	3	2
231.51	n/a	PROB	115755	n/a	LTP327	ltpFR2	10	n/a	n/a	n/a	-1	16	7	7	2
232.694	n/a	PROB	116347	n/a	LTP327	ltpFR2	10	n/a	n/a	n/a	-1	17	6	6	5
234.564	n/a	PROB	117282	n/a	LTP327	ltpFR2	10	n/a	n/a	n/a	-1	19	9	3	7
236.148	n/a	PROB	118074	n/a	LTP327	ltpFR2	10	n/a	n/a	n/a	-1	13	9	3	1
237.682	n/a	PROB	118841	n/a	LTP327	ltpFR2	10	n/a	n/a	n/a	-1	15	2	7	6
239.068	n/a	PROB	119534	n/a	LTP327	ltpFR2	10	n/a	n/a	n/a	-1	15	2	7	6
240.534	n/a	PROB	120267	n/a	LTP327	ltpFR2	10	n/a	n/a	n/a	-1	16	5	7	4
241.968	n/a	STOP	120984	n/a	LTP327	ltpFR2	10	n/a	n/a	n/a	-1	n/a	n/a	n/a	n/a
272.646	n/a	WORD	136323	wordpools/wasnorm_wordpool_576.txt	LTP327	ltpFR2	10	1	LADY	794	n/a	n/a	0	0	0
275.114	n/a	WORD	137557	wordpools/wasnorm_wordpool_576.txt	LTP327	ltpFR2	10	1	PARTNER	1017	n/a	n/a	0	0	0
277.85	n/a	WORD	138925	wordpools/wasnorm_wordpool_576.txt	LTP327	ltpFR2	10	1	TREAT	1501	n/a	n/a	0	0	0
280.436	n/a	WORD	140218	wordpools/wasnorm_wordpool_576.txt	LTP327	ltpFR2	10	1	DUST	508	n/a	n/a	0	0	0
282.904	n/a	WORD	141452	wordpools/wasnorm_wordpool_576.txt	LTP327	ltpFR2	10	1	PILOT	1070	n/a	n/a	0	0	0
285.656	n/a	WORD	142828	wordpools/wasnorm_wordpool_576.txt	LTP327	ltpFR2	10	1	FLASK	576	n/a	n/a	0	0	0
288.176	n/a	WORD	144088	wordpools/wasnorm_wordpool_576.txt	LTP327	ltpFR2	10	1	BRACES	164	n/a	n/a	0	0	0
290.626	n/a	WORD	145313	wordpools/wasnorm_wordpool_576.txt	LTP327	ltpFR2	10	1	OUTFIT	988	n/a	n/a	0	0	0
293.346	n/a	WORD	146673	wordpools/wasnorm_wordpool_576.txt	LTP327	ltpFR2	10	1	FEMALE	559	n/a	n/a	0	0	0
295.932	n/a	WORD	147966	wordpools/wasnorm_wordpool_576.txt	LTP327	ltpFR2	10	1	CASKET	255	n/a	n/a	0	0	0
298.6	n/a	WORD	149300	wordpools/wasnorm_wordpool_576.txt	LTP327	ltpFR2	10	1	FLUTE	585	n/a	n/a	0	0	0
301.42	n/a	WORD	150710	wordpools/wasnorm_wordpool_576.txt	LTP327	ltpFR2	10	1	CHEMIST	292	n/a	n/a	0	0	0
304.022	n/a	WORD	152011	wordpools/wasnorm_wordpool_576.txt	LTP327	ltpFR2	10	1	SHORTS	1293	n/a	n/a	0	0	0
306.808	n/a	WORD	153404	wordpools/wasnorm_wordpool_576.txt	LTP327	ltpFR2	10	1	DENIM	446	n/a	n/a	0	0	0
309.576	n/a	WORD	154788	wordpools/wasnorm_wordpool_576.txt	LTP327	ltpFR2	10	1	SPACE	1345	n/a	n/a	0	0	0
312.23	n/a	WORD	156115	wordpools/wasnorm_wordpool_576.txt	LTP327	ltpFR2	10	1	OZONE	996	n/a	n/a	0	0	0
314.948	n/a	WORD	157474	wordpools/wasnorm_wordpool_576.txt	LTP327	ltpFR2	10	1	JUNGLE	764	n/a	n/a	0	0	0
317.584	n/a	WORD	158792	wordpools/wasnorm_wordpool_576.txt	LTP327	ltpFR2	10	1	SLUG	1329	n/a	n/a	0	0	0
320.302	n/a	WORD	160151	wordpools/wasnorm_wordpool_576.txt	LTP327	ltpFR2	10	1	QUEEN	1149	n/a	n/a	0	0	0
322.972	n/a	WORD	161486	wordpools/wasnorm_wordpool_576.txt	LTP327	ltpFR2	10	1	PRINCESS	1125	n/a	n/a	0	0	0
325.49	n/a	WORD	162745	wordpools/wasnorm_wordpool_576.txt	LTP327	ltpFR2	10	1	ROCKET	1202	n/a	n/a	0	0	0
328.11	n/a	WORD	164055	wordpools/wasnorm_wordpool_576.txt	LTP327	ltpFR2	10	1	TRACTOR	1493	n/a	n/a	0	0	0
330.878	n/a	WORD	165439	wordpools/wasnorm_wordpool_576.txt	LTP327	ltpFR2	10	1	PISTOL	1075	n/a	n/a	0	0	0
333.68	n/a	WORD	166840	wordpools/wasnorm_wordpool_576.txt	LTP327	ltpFR2	10	1	POWDER	1117	n/a	n/a	0	0	0
335.298	n/a	START	167649	n/a	LTP327	ltpFR2	10	n/a	n/a	n/a	1	n/a	n/a	n/a	n/a
336.308	n/a	DISTRACTOR	168154	n/a	LTP327	ltpFR2	10	1	n/a	n/a	n/a	n/a	0	0	0
336.332	n/a	PROB	168166	n/a	LTP327	ltpFR2	10	n/a	n/a	n/a	1	20	6	6	8
337.984	n/a	PROB	168992	n/a	LTP327	ltpFR2	10	n/a	n/a	n/a	1	14	6	6	2
339.852	n/a	PROB	169926	n/a	LTP327	ltpFR2	10	n/a	n/a	n/a	1	11	2	6	3
341.17	n/a	PROB	170585	n/a	LTP327	ltpFR2	10	n/a	n/a	n/a	1	13	1	7	5
342.32	n/a	PROB	171160	n/a	LTP327	ltpFR2	10	n/a	n/a	n/a	1	17	6	4	7
343.806	n/a	PROB	171903	n/a	LTP327	ltpFR2	10	n/a	n/a	n/a	1	15	4	4	7
345.224	n/a	PROB	172612	n/a	LTP327	ltpFR2	10	n/a	n/a	n/a	1	16	1	7	8
346.524	n/a	PROB	173262	n/a	LTP327	ltpFR2	10	n/a	n/a	n/a	1	13	4	6	3
347.826	n/a	PROB	173913	n/a	LTP327	ltpFR2	10	n/a	n/a	n/a	1	17	6	5	6
350.662	n/a	PROB	175331	n/a	LTP327	ltpFR2	10	n/a	n/a	n/a	1	21	9	8	4
352.296	n/a	PROB	176148	n/a	LTP327	ltpFR2	10	n/a	n/a	n/a	1	24	6	9	9
353.932	n/a	PROB	176966	n/a	LTP327	ltpFR2	10	n/a	n/a	n/a	1	20	7	9	4
355.416	n/a	PROB	177708	n/a	LTP327	ltpFR2	10	n/a	n/a	n/a	1	17	2	8	7
356.718	n/a	PROB	178359	n/a	LTP327	ltpFR2	10	n/a	n/a	n/a	1	14	3	5	6
357.946	n/a	STOP	178973	n/a	LTP327	ltpFR2	10	n/a	n/a	n/a	1	n/a	n/a	n/a	n/a
361.206	n/a	REC_START	180603	n/a	LTP327	ltpFR2	10	1	n/a	n/a	n/a	n/a	0	0	0
362.508	n/a	REC_WORD	181254	wordpools/wasnorm_wordpool_576.txt	LTP327	ltpFR2	10	1	POWDER	1117	n/a	n/a	0	0	0
363.804	n/a	REC_WORD	181902	wordpools/wasnorm_wordpool_576.txt	LTP327	ltpFR2	10	1	JUNGLE	764	n/a	n/a	0	0	0
365.02	n/a	REC_WORD	182510	wordpools/wasnorm_wordpool_576.txt	LTP327	ltpFR2	10	1	OZONE	996	n/a	n/a	0	0	0
366.08	n/a	REC_WORD	183040	wordpools/wasnorm_wordpool_576.txt	LTP327	ltpFR2	10	1	TRACTOR	1493	n/a	n/a	0	0	0
367.384	n/a	REC_WORD	183692	wordpools/wasnorm_wordpool_576.txt	LTP327	ltpFR2	10	1	ROCKET	1202	n/a	n/a	0	0	0
368.596	n/a	REC_WORD	184298	wordpools/wasnorm_wordpool_576.txt	LTP327	ltpFR2	10	1	PISTOL	1075	n/a	n/a	0	0	0
372.986	n/a	REC_WORD	186493	wordpools/wasnorm_wordpool_576.txt	LTP327	ltpFR2	10	1	SLUG	1329	n/a	n/a	0	0	0
374.462	n/a	REC_WORD	187231	wordpools/wasnorm_wordpool_576.txt	LTP327	ltpFR2	10	1	QUEEN	1149	n/a	n/a	0	0	0
375.872	n/a	REC_WORD	187936	wordpools/wasnorm_wordpool_576.txt	LTP327	ltpFR2	10	1	PRINCESS	1125	n/a	n/a	0	0	0
378.24	n/a	REC_WORD	189120	wordpools/wasnorm_wordpool_576.txt	LTP327	ltpFR2	10	1	CASKET	255	n/a	n/a	0	0	0
379.61	n/a	REC_WORD	189805	wordpools/wasnorm_wordpool_576.txt	LTP327	ltpFR2	10	1	FLUTE	585	n/a	n/a	0	0	0
381.242	n/a	REC_WORD	190621	wordpools/wasnorm_wordpool_576.txt	LTP327	ltpFR2	10	1	CHEMIST	292	n/a	n/a	0	0	0
383.62	n/a	REC_WORD	191810	wordpools/wasnorm_wordpool_576.txt	LTP327	ltpFR2	10	1	DENIM	446	n/a	n/a	0	0	0
384.52	n/a	REC_WORD	192260	wordpools/wasnorm_wordpool_576.txt	LTP327	ltpFR2	10	1	SHORTS	1293	n/a	n/a	0	0	0
385.806	n/a	REC_WORD	192903	wordpools/wasnorm_wordpool_576.txt	LTP327	ltpFR2	10	1	OUTFIT	988	n/a	n/a	0	0	0
386.754	n/a	REC_WORD	193377	wordpools/wasnorm_wordpool_576.txt	LTP327	ltpFR2	10	1	SPACE	1345	n/a	n/a	0	0	0
388.546	n/a	REC_WORD	194273	wordpools/wasnorm_wordpool_576.txt	LTP327	ltpFR2	10	1	LADY	794	n/a	n/a	0	0	0
389.492	n/a	REC_WORD	194746	wordpools/wasnorm_wordpool_576.txt	LTP327	ltpFR2	10	1	PARTNER	1017	n/a	n/a	0	0	0
390.424	n/a	REC_WORD	195212	wordpools/wasnorm_wordpool_576.txt	LTP327	ltpFR2	10	1	FEMALE	559	n/a	n/a	0	0	0
395.392	n/a	REC_WORD	197696	wordpools/wasnorm_wordpool_576.txt	LTP327	ltpFR2	10	1	PILOT	1070	n/a	n/a	0	0	0
397.398	n/a	REC_WORD	198699	wordpools/wasnorm_wordpool_576.txt	LTP327	ltpFR2	10	1	DUST	508	n/a	n/a	0	0	0
398.58	n/a	REC_WORD	199290	wordpools/wasnorm_wordpool_576.txt	LTP327	ltpFR2	10	1	TREAT	1501	n/a	n/a	0	0	0
399.716	n/a	REC_WORD	199858	wordpools/wasnorm_wordpool_576.txt	LTP327	ltpFR2	10	1	FLASK	576	n/a	n/a	0	0	0
427.372	n/a	REC_WORD	213686	wordpools/wasnorm_wordpool_576.txt	LTP327	ltpFR2	10	1	ROCKET	1202	n/a	n/a	0	0	0
451.864	n/a	WORD	225932	wordpools/wasnorm_wordpool_576.txt	LTP327	ltpFR2	10	2	PUPIL	1143	n/a	n/a	0	0	0
454.448	n/a	WORD	227224	wordpools/wasnorm_wordpool_576.txt	LTP327	ltpFR2	10	2	BROTHER	179	n/a	n/a	0	0	0
457.036	n/a	WORD	228518	wordpools/wasnorm_wordpool_576.txt	LTP327	ltpFR2	10	2	DIVER	476	n/a	n/a	0	0	0
459.654	n/a	WORD	229827	wordpools/wasnorm_wordpool_576.txt	LTP327	ltpFR2	10	2	ZIPPER	1636	n/a	n/a	0	0	0
462.19	n/a	WORD	231095	wordpools/wasnorm_wordpool_576.txt	LTP327	ltpFR2	10	2	VALLEY	1545	n/a	n/a	0	0	0
464.64	n/a	WORD	232320	wordpools/wasnorm_wordpool_576.txt	LTP327	ltpFR2	10	2	STATUE	1374	n/a	n/a	0	0	0
467.376	n/a	WORD	233688	wordpools/wasnorm_wordpool_576.txt	LTP327	ltpFR2	10	2	BELLY	119	n/a	n/a	0	0	0
470.08	n/a	WORD	235040	wordpools/wasnorm_wordpool_576.txt	LTP327	ltpFR2	10	2	MARKET	871	n/a	n/a	0	0	0
472.564	n/a	WORD	236282	wordpools/wasnorm_wordpool_576.txt	LTP327	ltpFR2	10	2	HEADBAND	696	n/a	n/a	0	0	0
475.184	n/a	WORD	237592	wordpools/wasnorm_wordpool_576.txt	LTP327	ltpFR2	10	2	SCISSORS	1250	n/a	n/a	0	0	0
477.886	n/a	WORD	238943	wordpools/wasnorm_wordpool_576.txt	LTP327	ltpFR2	10	2	EGYPT	519	n/a	n/a	0	0	0
480.438	n/a	WORD	240219	wordpools/wasnorm_wordpool_576.txt	LTP327	ltpFR2	10	2	SCULPTURE	1258	n/a	n/a	0	0	0
483.074	n/a	WORD	241537	wordpools/wasnorm_wordpool_576.txt	LTP327	ltpFR2	10	2	LUNCH	849	n/a	n/a	0	0	0
485.844	n/a	WORD	242922	wordpools/wasnorm_wordpool_576.txt	LTP327	ltpFR2	10	2	WINDOW	1611	n/a	n/a	0	0	0
488.36	n/a	WORD	244180	wordpools/wasnorm_wordpool_576.txt	LTP327	ltpFR2	10	2	BURGLAR	200	n/a	n/a	0	0	0
490.948	n/a	WORD	245474	wordpools/wasnorm_wordpool_576.txt	LTP327	ltpFR2	10	2	DINER	467	n/a	n/a	0	0	0
493.382	n/a	WORD	246691	wordpools/wasnorm_wordpool_576.txt	LTP327	ltpFR2	10	2	SUBWAY	1400	n/a	n/a	0	0	0
496.184	n/a	WORD	248092	wordpools/wasnorm_wordpool_576.txt	LTP327	ltpFR2	10	2	BLACKBOARD	133	n/a	n/a	0	0	0
498.704	n/a	WORD	249352	wordpools/wasnorm_wordpool_576.txt	LTP327	ltpFR2	10	2	LOFT	840	n/a	n/a	0	0	0
501.488	n/a	WORD	250744	wordpools/wasnorm_wordpool_576.txt	LTP327	ltpFR2	10	2	MEAT	883	n/a	n/a	0	0	0
503.958	n/a	WORD	251979	wordpools/wasnorm_wordpool_576.txt	LTP327	ltpFR2	10	2	CEILING	265	n/a	n/a	0	0	0
506.626	n/a	WORD	253313	wordpools/wasnorm_wordpool_576.txt	LTP327	ltpFR2	10	2	RUG	1215	n/a	n/a	0	0	0
509.362	n/a	WORD	254681	wordpools/wasnorm_wordpool_576.txt	LTP327	ltpFR2	10	2	SUITCASE	1403	n/a	n/a	0	0	0
511.998	n/a	WORD	255999	wordpools/wasnorm_wordpool_576.txt	LTP327	ltpFR2	10	2	KNAPSACK	783	n/a	n/a	0	0	0
513.616	n/a	START	256808	n/a	LTP327	ltpFR2	10	n/a	n/a	n/a	2	n/a	n/a	n/a	n/a
514.706	n/a	DISTRACTOR	257353	n/a	LTP327	ltpFR2	10	2	n/a	n/a	n/a	n/a	0	0	0
514.718	n/a	PROB	257359	n/a	LTP327	ltpFR2	10	n/a	n/a	n/a	2	14	1	7	6
516.434	n/a	PROB	258217	n/a	LTP327	ltpFR2	10	n/a	n/a	n/a	2	12	5	5	2
517.57	n/a	PROB	258785	n/a	LTP327	ltpFR2	10	n/a	n/a	n/a	2	9	3	2	4
521.006	n/a	PROB	260503	n/a	LTP327	ltpFR2	10	n/a	n/a	n/a	2	7	3	2	2
522.54	n/a	PROB	261270	n/a	LTP327	ltpFR2	10	n/a	n/a	n/a	2	5	2	1	2
523.574	n/a	PROB	261787	n/a	LTP327	ltpFR2	10	n/a	n/a	n/a	2	15	8	2	5
525.026	n/a	PROB	262513	n/a	LTP327	ltpFR2	10	n/a	n/a	n/a	2	24	9	6	9
526.578	n/a	PROB	263289	n/a	LTP327	ltpFR2	10	n/a	n/a	n/a	2	21	8	5	8
527.978	n/a	PROB	263989	n/a	LTP327	ltpFR2	10	n/a	n/a	n/a	2	17	3	5	9
529.428	n/a	PROB	264714	n/a	LTP327	ltpFR2	10	n/a	n/a	n/a	2	9	4	2	3
530.83	n/a	PROB	265415	n/a	LTP327	ltpFR2	10	n/a	n/a	n/a	2	18	4	6	8
532.264	n/a	PROB	266132	n/a	LTP327	ltpFR2	10	n/a	n/a	n/a	2	12	3	2	7
533.398	n/a	PROB	266699	n/a	LTP327	ltpFR2	10	n/a	n/a	n/a	2	18	7	2	9
534.734	n/a	PROB	267367	n/a	LTP327	ltpFR2	10	n/a	n/a	n/a	2	11	5	5	1
535.918	n/a	PROB	267959	n/a	LTP327	ltpFR2	10	n/a	n/a	n/a	2	10	1	2	7
537.076	n/a	STOP	268538	n/a	LTP327	ltpFR2	10	n/a	n/a	n/a	2	n/a	n/a	n/a	n/a
539.572	n/a	REC_START	269786	n/a	LTP327	ltpFR2	10	2	n/a	n/a	n/a	n/a	0	0	0
541.188	n/a	REC_WORD	270594	wordpools/wasnorm_wordpool_576.txt	LTP327	ltpFR2	10	2	RUG	1215	n/a	n/a	0	0	0
542.154	n/a	REC_WORD	271077	wordpools/wasnorm_wordpool_576.txt	LTP327	ltpFR2	10	2	MEAT	883	n/a	n/a	0	0	0
543.23	n/a	REC_WORD	271615	wordpools/wasnorm_wordpool_576.txt	LTP327	ltpFR2	10	2	BLACKBIRD	-1	n/a	n/a	0	0	0
544.478	n/a	REC_WORD	272239	wordpools/wasnorm_wordpool_576.txt	LTP327	ltpFR2	10	2	CEILING	265	n/a	n/a	0	0	0
545.878	n/a	REC_WORD	272939	wordpools/wasnorm_wordpool_576.txt	LTP327	ltpFR2	10	2	KNAPSACK	783	n/a	n/a	0	0	0
547.17	n/a	REC_WORD	273585	wordpools/wasnorm_wordpool_576.txt	LTP327	ltpFR2	10	2	BRIEFCASE	175	n/a	n/a	0	0	0
549.708	n/a	REC_WORD	274854	wordpools/wasnorm_wordpool_576.txt	LTP327	ltpFR2	10	2	LOFT	840	n/a	n/a	0	0	0
553.734	n/a	REC_WORD	276867	wordpools/wasnorm_wordpool_576.txt	LTP327	ltpFR2	10	2	DINER	467	n/a	n/a	0	0	0
554.724	n/a	REC_WORD	277362	wordpools/wasnorm_wordpool_576.txt	LTP327	ltpFR2	10	2	SUBWAY	1400	n/a	n/a	0	0	0
555.928	n/a	REC_WORD	277964	wordpools/wasnorm_wordpool_576.txt	LTP327	ltpFR2	10	2	WINDOW	1611	n/a	n/a	0	0	0
557.228	n/a	REC_WORD	278614	wordpools/wasnorm_wordpool_576.txt	LTP327	ltpFR2	10	2	BURGLAR	200	n/a	n/a	0	0	0
562.518	n/a	REC_WORD	281259	wordpools/wasnorm_wordpool_576.txt	LTP327	ltpFR2	10	2	DIVER	476	n/a	n/a	0	0	0
563.708	n/a	REC_WORD	281854	wordpools/wasnorm_wordpool_576.txt	LTP327	ltpFR2	10	2	BROTHER	179	n/a	n/a	0	0	0
564.74	n/a	REC_WORD	282370	wordpools/wasnorm_wordpool_576.txt	LTP327	ltpFR2	10	2	ZIPPER	1636	n/a	n/a	0	0	0
565.83	n/a	REC_WORD	282915	wordpools/wasnorm_wordpool_576.txt	LTP327	ltpFR2	10	2	VALLEY	1545	n/a	n/a	0	0	0
566.91	n/a	REC_WORD	283455	wordpools/wasnorm_wordpool_576.txt	LTP327	ltpFR2	10	2	SCULPTURE	1258	n/a	n/a	0	0	0
568.036	n/a	REC_WORD	284018	wordpools/wasnorm_wordpool_576.txt	LTP327	ltpFR2	10	2	STATUE	1374	n/a	n/a	0	0	0
569.398	n/a	REC_WORD	284699	wordpools/wasnorm_wordpool_576.txt	LTP327	ltpFR2	10	2	BELLY	119	n/a	n/a	0	0	0
570.284	n/a	REC_WORD	285142	wordpools/wasnorm_wordpool_576.txt	LTP327	ltpFR2	10	2	LUNCH	849	n/a	n/a	0	0	0
572.774	n/a	REC_WORD	286387	wordpools/wasnorm_wordpool_576.txt	LTP327	ltpFR2	10	2	MARKET	871	n/a	n/a	0	0	0
573.752	n/a	REC_WORD	286876	wordpools/wasnorm_wordpool_576.txt	LTP327	ltpFR2	10	2	EGYPT	519	n/a	n/a	0	0	0
574.604	n/a	REC_WORD	287302	wordpools/wasnorm_wordpool_576.txt	LTP327	ltpFR2	10	2	HEADBAND	696	n/a	n/a	0	0	0
575.492	n/a	REC_WORD	287746	wordpools/wasnorm_wordpool_576.txt	LTP327	ltpFR2	10	2	SCISSORS	1250	n/a	n/a	0	0	0
579.146	n/a	REC_WORD	289573	wordpools/wasnorm_wordpool_576.txt	LTP327	ltpFR2	10	2	PUPIL	1143	n/a	n/a	0	0	0
630.216	n/a	WORD	315108	wordpools/wasnorm_wordpool_576.txt	LTP327	ltpFR2	10	3	COBRA	336	n/a	n/a	0	0	0
632.65	n/a	WORD	316325	wordpools/wasnorm_wordpool_576.txt	LTP327	ltpFR2	10	3	KITCHEN	778	n/a	n/a	0	0	0
635.436	n/a	WORD	317718	wordpools/wasnorm_wordpool_576.txt	LTP327	ltpFR2	10	3	SLOPE	1328	n/a	n/a	0	0	0
637.922	n/a	WORD	318961	wordpools/wasnorm_wordpool_576.txt	LTP327	ltpFR2	10	3	TOMBSTONE	1478	n/a	n/a	0	0	0
640.44	n/a	WORD	320220	wordpools/wasnorm_wordpool_576.txt	LTP327	ltpFR2	10	3	FILM	565	n/a	n/a	0	0	0
643.194	n/a	WORD	321597	wordpools/wasnorm_wordpool_576.txt	LTP327	ltpFR2	10	3	FLAG	573	n/a	n/a	0	0	0
645.678	n/a	WORD	322839	wordpools/wasnorm_wordpool_576.txt	LTP327	ltpFR2	10	3	HEART	697	n/a	n/a	0	0	0
648.214	n/a	WORD	324107	wordpools/wasnorm_wordpool_576.txt	LTP327	ltpFR2	10	3	POSTAGE	1113	n/a	n/a	0	0	0
650.85	n/a	WORD	325425	wordpools/wasnorm_wordpool_576.txt	LTP327	ltpFR2	10	3	COMET	353	n/a	n/a	0	0	0
653.334	n/a	WORD	326667	wordpools/wasnorm_wordpool_576.txt	LTP327	ltpFR2	10	3	DRAGON	492	n/a	n/a	0	0	0
655.904	n/a	WORD	327952	wordpools/wasnorm_wordpool_576.txt	LTP327	ltpFR2	10	3	CAPTIVE	240	n/a	n/a	0	0	0
658.706	n/a	WORD	329353	wordpools/wasnorm_wordpool_576.txt	LTP327	ltpFR2	10	3	PARROT	1015	n/a	n/a	0	0	0
661.29	n/a	WORD	330645	wordpools/wasnorm_wordpool_576.txt	LTP327	ltpFR2	10	3	LIVER	833	n/a	n/a	0	0	0
663.894	n/a	WORD	331947	wordpools/wasnorm_wordpool_576.txt	LTP327	ltpFR2	10	3	RATTLE	1170	n/a	n/a	0	0	0
666.462	n/a	WORD	333231	wordpools/wasnorm_wordpool_576.txt	LTP327	ltpFR2	10	3	YACHT	1629	n/a	n/a	0	0	0
669.098	n/a	WORD	334549	wordpools/wasnorm_wordpool_576.txt	LTP327	ltpFR2	10	3	RAFT	1159	n/a	n/a	0	0	0
671.818	n/a	WORD	335909	wordpools/wasnorm_wordpool_576.txt	LTP327	ltpFR2	10	3	GUARD	667	n/a	n/a	0	0	0
674.536	n/a	WORD	337268	wordpools/wasnorm_wordpool_576.txt	LTP327	ltpFR2	10	3	PORTRAIT	1111	n/a	n/a	0	0	0
677.238	n/a	WORD	338619	wordpools/wasnorm_wordpool_576.txt	LTP327	ltpFR2	10	3	AIRPORT	13	n/a	n/a	0	0	0
679.892	n/a	WORD	339946	wordpools/wasnorm_wordpool_576.txt	LTP327	ltpFR2	10	3	SWORD	1423	n/a	n/a	0	0	0
682.342	n/a	WORD	341171	wordpools/wasnorm_wordpool_576.txt	LTP327	ltpFR2	10	3	JEANS	752	n/a	n/a	0	0	0
685.062	n/a	WORD	342531	wordpools/wasnorm_wordpool_576.txt	LTP327	ltpFR2	10	3	FOREST	593	n/a	n/a	0	0	0
687.748	n/a	WORD	343874	wordpools/wasnorm_wordpool_576.txt	LTP327	ltpFR2	10	3	MAPLE	866	n/a	n/a	0	0	0
690.548	n/a	WORD	345274	wordpools/wasnorm_wordpool_576.txt	LTP327	ltpFR2	10	3	BRANCH	168	n/a	n/a	0	0	0
692.168	n/a	START	346084	n/a	LTP327	ltpFR2	10	n/a	n/a	n/a	3	n/a	n/a	n/a	n/a
693.324	n/a	DISTRACTOR	346662	n/a	LTP327	ltpFR2	10	3	n/a	n/a	n/a	n/a	0	0	0
693.35	n/a	PROB	346675	n/a	LTP327	ltpFR2	10	n/a	n/a	n/a	3	14	3	6	5
695.02	n/a	PROB	347510	n/a	LTP327	ltpFR2	10	n/a	n/a	n/a	3	17	4	8	5
696.286	n/a	PROB	348143	n/a	LTP327	ltpFR2	10	n/a	n/a	n/a	3	14	1	5	8
697.554	n/a	PROB	348777	n/a	LTP327	ltpFR2	10	n/a	n/a	n/a	3	15	7	4	4
698.906	n/a	PROB	349453	n/a	LTP327	ltpFR2	10	n/a	n/a	n/a	3	21	9	5	7
700.256	n/a	PROB	350128	n/a	LTP327	ltpFR2	10	n/a	n/a	n/a	3	18	9	2	7
701.558	n/a	PROB	350779	n/a	LTP327	ltpFR2	10	n/a	n/a	n/a	3	11	2	4	5
702.744	n/a	PROB	351372	n/a	LTP327	ltpFR2	10	n/a	n/a	n/a	3	8	1	4	3
705.394	n/a	PROB	352697	n/a	LTP327	ltpFR2	10	n/a	n/a	n/a	3	16	7	5	4
707.014	n/a	PROB	353507	n/a	LTP327	ltpFR2	10	n/a	n/a	n/a	3	16	6	5	5
708.564	n/a	PROB	354282	n/a	LTP327	ltpFR2	10	n/a	n/a	n/a	3	16	3	8	5
709.932	n/a	PROB	354966	n/a	LTP327	ltpFR2	10	n/a	n/a	n/a	3	19	8	7	4
711.35	n/a	PROB	355675	n/a	LTP327	ltpFR2	10	n/a	n/a	n/a	3	19	7	8	4
712.634	n/a	PROB	356317	n/a	LTP327	ltpFR2	10	n/a	n/a	n/a	3	13	4	4	5
716.168	n/a	STOP	358084	n/a	LTP327	ltpFR2	10	n/a	n/a	n/a	3	n/a	n/a	n/a	n/a
718.006	n/a	REC_START	359003	n/a	LTP327	ltpFR2	10	3	n/a	n/a	n/a	n/a	0	0	0
718.886	n/a	REC_WORD	359443	wordpools/wasnorm_wordpool_576.txt	LTP327	ltpFR2	10	3	MAPLE	866	n/a	n/a	0	0	0
719.806	n/a	REC_WORD	359903	wordpools/wasnorm_wordpool_576.txt	LTP327	ltpFR2	10	3	FOREST	593	n/a	n/a	0	0	0
721.1	n/a	REC_WORD	360550	wordpools/wasnorm_wordpool_576.txt	LTP327	ltpFR2	10	3	BRANCH	168	n/a	n/a	0	0	0
722.94	n/a	REC_WORD	361470	wordpools/wasnorm_wordpool_576.txt	LTP327	ltpFR2	10	3	RAFT	1159	n/a	n/a	0	0	0
723.998	n/a	REC_WORD	361999	wordpools/wasnorm_wordpool_576.txt	LTP327	ltpFR2	10	3	SWORD	1423	n/a	n/a	0	0	0
725.258	n/a	REC_WORD	362629	wordpools/wasnorm_wordpool_576.txt	LTP327	ltpFR2	10	3	JEANS	752	n/a	n/a	0	0	0
726.92	n/a	REC_WORD	363460	wordpools/wasnorm_wordpool_576.txt	LTP327	ltpFR2	10	3	GUARD	667	n/a	n/a	0	0	0
727.88	n/a	REC_WORD	363940	wordpools/wasnorm_wordpool_576.txt	LTP327	ltpFR2	10	3	PORTRAIT	1111	n/a	n/a	0	0	0
730.762	n/a	REC_WORD	365381	wordpools/wasnorm_wordpool_576.txt	LTP327	ltpFR2	10	3	SHORE	1291	n/a	n/a	0	0	0
732.79	n/a	REC_WORD	366395	wordpools/wasnorm_wordpool_576.txt	LTP327	ltpFR2	10	3	YACHT	1629	n/a	n/a	0	0	0
737.542	n/a	REC_WORD	368771	wordpools/wasnorm_wordpool_576.txt	LTP327	ltpFR2	10	3	COBRA	336	n/a	n/a	0	0	0
738.616	n/a	REC_WORD	369308	wordpools/wasnorm_wordpool_576.txt	LTP327	ltpFR2	10	3	SLOPE	1328	n/a	n/a	0	0	0
739.984	n/a	REC_WORD	369992	wordpools/wasnorm_wordpool_576.txt	LTP327	ltpFR2	10	3	KITCHEN	778	n/a	n/a	0	0	0
742.248	n/a	REC_WORD	371124	wordpools/wasnorm_wordpool_576.txt	LTP327	ltpFR2	10	3	TOMBSTONE	1478	n/a	n/a	0	0	0
743.558	n/a	REC_WORD	371779	wordpools/wasnorm_wordpool_576.txt	LTP327	ltpFR2	10	3	HEART	697	n/a	n/a	0	0	0
744.61	n/a	REC_WORD	372305	wordpools/wasnorm_wordpool_576.txt	LTP327	ltpFR2	10	3	FLAG	573	n/a	n/a	0	0	0
745.73	n/a	REC_WORD	372865	wordpools/wasnorm_wordpool_576.txt	LTP327	ltpFR2	10	3	FILM	565	n/a	n/a	0	0	0
752.168	n/a	REC_WORD	376084	wordpools/wasnorm_wordpool_576.txt	LTP327	ltpFR2	10	3	DRAGON	492	n/a	n/a	0	0	0
753.134	n/a	REC_WORD	376567	wordpools/wasnorm_wordpool_576.txt	LTP327	ltpFR2	10	3	COMET	353	n/a	n/a	0	0	0
754.1	n/a	REC_WORD	377050	wordpools/wasnorm_wordpool_576.txt	LTP327	ltpFR2	10	3	PARROT	1015	n/a	n/a	0	0	0
755.08	n/a	REC_WORD	377540	wordpools/wasnorm_wordpool_576.txt	LTP327	ltpFR2	10	3	CAPTIVE	240	n/a	n/a	0	0	0
757.422	n/a	REC_WORD	378711	wordpools/wasnorm_wordpool_576.txt	LTP327	ltpFR2	10	3	LIVER	833	n/a	n/a	0	0	0
759.148	n/a	REC_WORD	379574	wordpools/wasnorm_wordpool_576.txt	LTP327	ltpFR2	10	3	RATTLE	1170	n/a	n/a	0	0	0
808.466	n/a	DISTRACTOR	404233	n/a	LTP327	ltpFR2	10	4	n/a	n/a	n/a	n/a	0	0	0
808.466	n/a	START	404233	n/a	LTP327	ltpFR2	10	n/a	n/a	n/a	4	n/a	n/a	n/a	n/a
808.482	n/a	PROB	404241	n/a	LTP327	ltpFR2	10	n/a	n/a	n/a	4	16	5	2	9
810.218	n/a	PROB	405109	n/a	LTP327	ltpFR2	10	n/a	n/a	n/a	4	20	4	8	8
811.836	n/a	PROB	405918	n/a	LTP327	ltpFR2	10	n/a	n/a	n/a	4	16	7	8	1
813.154	n/a	PROB	406577	n/a	LTP327	ltpFR2	10	n/a	n/a	n/a	4	14	4	6	4
815.004	n/a	PROB	407502	n/a	LTP327	ltpFR2	10	n/a	n/a	n/a	4	21	9	7	5
816.456	n/a	PROB	408228	n/a	LTP327	ltpFR2	10	n/a	n/a	n/a	4	16	6	5	5
817.708	n/a	PROB	408854	n/a	LTP327	ltpFR2	10	n/a	n/a	n/a	4	24	7	9	8
819.374	n/a	PROB	409687	n/a	LTP327	ltpFR2	10	n/a	n/a	n/a	4	9	6	2	1
820.744	n/a	PROB	410372	n/a	LTP327	ltpFR2	10	n/a	n/a	n/a	4	8	3	2	3
822.46	n/a	PROB	411230	n/a	LTP327	ltpFR2	10	n/a	n/a	n/a	4	14	6	4	4
823.644	n/a	PROB	411822	n/a	LTP327	ltpFR2	10	n/a	n/a	n/a	4	13	1	4	8
825.214	n/a	PROB	412607	n/a	LTP327	ltpFR2	10	n/a	n/a	n/a	4	19	4	6	9
826.614	n/a	PROB	413307	n/a	LTP327	ltpFR2	10	n/a	n/a	n/a	4	12	5	2	5
827.982	n/a	PROB	413991	n/a	LTP327	ltpFR2	10	n/a	n/a	n/a	4	15	4	5	6
830.218	n/a	PROB	415109	n/a	LTP327	ltpFR2	10	n/a	n/a	n/a	4	15	3	9	3
831.48	n/a	STOP	415740	n/a	LTP327	ltpFR2	10	n/a	n/a	n/a	4	n/a	n/a	n/a	n/a
833.57	n/a	WORD	416785	wordpools/wasnorm_wordpool_576.txt	LTP327	ltpFR2	10	4	RACKET	1155	n/a	n/a	0	0	0
836.04	n/a	WORD	418020	wordpools/wasnorm_wordpool_576.txt	LTP327	ltpFR2	10	4	LABEL	790	n/a	n/a	0	0	0
838.524	n/a	WORD	419262	wordpools/wasnorm_wordpool_576.txt	LTP327	ltpFR2	10	4	SEAL	1262	n/a	n/a	0	0	0
840.978	n/a	WORD	420489	wordpools/wasnorm_wordpool_576.txt	LTP327	ltpFR2	10	4	CREATURE	403	n/a	n/a	0	0	0
843.462	n/a	WORD	421731	wordpools/wasnorm_wordpool_576.txt	LTP327	ltpFR2	10	4	CRAB	397	n/a	n/a	0	0	0
846.216	n/a	WORD	423108	wordpools/wasnorm_wordpool_576.txt	LTP327	ltpFR2	10	4	SODA	1341	n/a	n/a	0	0	0
848.852	n/a	WORD	424426	wordpools/wasnorm_wordpool_576.txt	LTP327	ltpFR2	10	4	DUSTPAN	509	n/a	n/a	0	0	0
851.418	n/a	WORD	425709	wordpools/wasnorm_wordpool_576.txt	LTP327	ltpFR2	10	4	COCKTAIL	338	n/a	n/a	0	0	0
853.888	n/a	WORD	426944	wordpools/wasnorm_wordpool_576.txt	LTP327	ltpFR2	10	4	MARKER	870	n/a	n/a	0	0	0
856.456	n/a	WORD	428228	wordpools/wasnorm_wordpool_576.txt	LTP327	ltpFR2	10	4	FLEET	578	n/a	n/a	0	0	0
859.258	n/a	WORD	429629	wordpools/wasnorm_wordpool_576.txt	LTP327	ltpFR2	10	4	DAUGHTER	442	n/a	n/a	0	0	0
861.978	n/a	WORD	430989	wordpools/wasnorm_wordpool_576.txt	LTP327	ltpFR2	10	4	SEAFOOD	1260	n/a	n/a	0	0	0
864.512	n/a	WORD	432256	wordpools/wasnorm_wordpool_576.txt	LTP327	ltpFR2	10	4	PARSLEY	1016	n/a	n/a	0	0	0
867.248	n/a	WORD	433624	wordpools/wasnorm_wordpool_576.txt	LTP327	ltpFR2	10	4	SUSPECT	1415	n/a	n/a	0	0	0
870.018	n/a	WORD	435009	wordpools/wasnorm_wordpool_576.txt	LTP327	ltpFR2	10	4	CONVICT	371	n/a	n/a	0	0	0
872.82	n/a	WORD	436410	wordpools/wasnorm_wordpool_576.txt	LTP327	ltpFR2	10	4	TEACHER	1440	n/a	n/a	0	0	0
875.438	n/a	WORD	437719	wordpools/wasnorm_wordpool_576.txt	LTP327	ltpFR2	10	4	STAPLE	1371	n/a	n/a	0	0	0
877.908	n/a	WORD	438954	wordpools/wasnorm_wordpool_576.txt	LTP327	ltpFR2	10	4	WARDROBE	1587	n/a	n/a	0	0	0
880.61	n/a	WORD	440305	wordpools/wasnorm_wordpool_576.txt	LTP327	ltpFR2	10	4	PLUTO	1092	n/a	n/a	0	0	0
883.278	n/a	WORD	441639	wordpools/wasnorm_wordpool_576.txt	LTP327	ltpFR2	10	4	GLASS	639	n/a	n/a	0	0	0
885.932	n/a	WORD	442966	wordpools/wasnorm_wordpool_576.txt	LTP327	ltpFR2	10	4	THIEF	1456	n/a	n/a	0	0	0
888.768	n/a	WORD	444384	wordpools/wasnorm_wordpool_576.txt	LTP327	ltpFR2	10	4	TURNIP	1521	n/a	n/a	0	0	0
891.22	n/a	WORD	445610	wordpools/wasnorm_wordpool_576.txt	LTP327	ltpFR2	10	4	PISTON	1076	n/a	n/a	0	0	0
893.804	n/a	WORD	446902	wordpools/wasnorm_wordpool_576.txt	LTP327	ltpFR2	10	4	NOTEBOOK	959	n/a	n/a	0	0	0
895.422	n/a	START	447711	n/a	LTP327	ltpFR2	10	n/a	n/a	n/a	5	n/a	n/a	n/a	n/a
896.46	n/a	DISTRACTOR	448230	n/a	LTP327	ltpFR2	10	4	n/a	n/a	n/a	n/a	0	0	0
896.472	n/a	PROB	448236	n/a	LTP327	ltpFR2	10	n/a	n/a	n/a	5	17	9	1	7
898.158	n/a	PROB	449079	n/a	LTP327	ltpFR2	10	n/a	n/a	n/a	5	18	9	1	8
899.376	n/a	PROB	449688	n/a	LTP327	ltpFR2	10	n/a	n/a	n/a	5	13	8	3	2
900.878	n/a	PROB	450439	n/a	LTP327	ltpFR2	10	n/a	n/a	n/a	5	19	7	3	9
902.578	n/a	PROB	451289	n/a	LTP327	ltpFR2	10	n/a	n/a	n/a	5	14	6	5	3
903.78	n/a	PROB	451890	n/a	LTP327	ltpFR2	10	n/a	n/a	n/a	5	19	5	6	8
905.298	n/a	PROB	452649	n/a	LTP327	ltpFR2	10	n/a	n/a	n/a	5	16	3	5	8
906.616	n/a	PROB	453308	n/a	LTP327	ltpFR2	10	n/a	n/a	n/a	5	11	6	2	3
908.05	n/a	PROB	454025	n/a	LTP327	ltpFR2	10	n/a	n/a	n/a	5	13	5	5	3
909.102	n/a	PROB	454551	n/a	LTP327	ltpFR2	10	n/a	n/a	n/a	5	13	1	4	8
910.334	n/a	PROB	455167	n/a	LTP327	ltpFR2	10	n/a	n/a	n/a	5	20	5	9	6
912.088	n/a	PROB	456044	n/a	LTP327	ltpFR2	10	n/a	n/a	n/a	5	11	1	9	1
913.156	n/a	PROB	456578	n/a	LTP327	ltpFR2	10	n/a	n/a	n/a	5	15	6	1	8
914.406	n/a	PROB	457203	n/a	LTP327	ltpFR2	10	n/a	n/a	n/a	5	16	2	7	7
915.858	n/a	PROB	457929	n/a	LTP327	ltpFR2	10	n/a	n/a	n/a	5	17	6	9	2
917.658	n/a	PROB	458829	n/a	LTP327	ltpFR2	10	n/a	n/a	n/a	5	15	5	3	7
918.956	n/a	STOP	459478	n/a	LTP327	ltpFR2	10	n/a	n/a	n/a	5	n/a	n/a	n/a	n/a
921.228	n/a	REC_START	460614	n/a	LTP327	ltpFR2	10	4	n/a	n/a	n/a	n/a	0	0	0
921.994	n/a	REC_WORD	460997	wordpools/wasnorm_wordpool_576.txt	LTP327	ltpFR2	10	4	PISTON	1076	n/a	n/a	0	0	0
922.872	n/a	REC_WORD	461436	wordpools/wasnorm_wordpool_576.txt	LTP327	ltpFR2	10	4	NOTEBOOK	959	n/a	n/a	0	0	0
923.966	n/a	REC_WORD	461983	wordpools/wasnorm_wordpool_576.txt	LTP327	ltpFR2	10	4	TURNIP	1521	n/a	n/a	0	0	0
925.018	n/a	REC_WORD	462509	wordpools/wasnorm_wordpool_576.txt	LTP327	ltpFR2	10	4	THIEF	1456	n/a	n/a	0	0	0
926.124	n/a	REC_WORD	463062	wordpools/wasnorm_wordpool_576.txt	LTP327	ltpFR2	10	4	GLASS	639	n/a	n/a	0	0	0
931.262	n/a	REC_WORD	465631	wordpools/wasnorm_wordpool_576.txt	LTP327	ltpFR2	10	4	WARDROBE	1587	n/a	n/a	0	0	0
932.21	n/a	REC_WORD	466105	wordpools/wasnorm_wordpool_576.txt	LTP327	ltpFR2	10	4	STAPLE	1371	n/a	n/a	0	0	0
933.682	n/a	REC_WORD	466841	wordpools/wasnorm_wordpool_576.txt	LTP327	ltpFR2	10	4	TEACHER	1440	n/a	n/a	0	0	0
935.688	n/a	REC_WORD	467844	wordpools/wasnorm_wordpool_576.txt	LTP327	ltpFR2	10	4	DAUGHTER	442	n/a	n/a	0	0	0
938.002	n/a	REC_WORD	469001	wordpools/wasnorm_wordpool_576.txt	LTP327	ltpFR2	10	4	CONVICT	371	n/a	n/a	0	0	0
939.494	n/a	REC_WORD	469747	wordpools/wasnorm_wordpool_576.txt	LTP327	ltpFR2	10	4	PARSLEY	1016	n/a	n/a	0	0	0
940.832	n/a	REC_WORD	470416	wordpools/wasnorm_wordpool_576.txt	LTP327	ltpFR2	10	4	FOOD	-1	n/a	n/a	0	0	0
942.06	n/a	REC_WORD	471030	wordpools/wasnorm_wordpool_576.txt	LTP327	ltpFR2	10	4	CRAB	397	n/a	n/a	0	0	0
942.962	n/a	REC_WORD	471481	wordpools/wasnorm_wordpool_576.txt	LTP327	ltpFR2	10	4	CREATURE	403	n/a	n/a	0	0	0
943.828	n/a	REC_WORD	471914	wordpools/wasnorm_wordpool_576.txt	LTP327	ltpFR2	10	4	FLEET	578	n/a	n/a	0	0	0
944.88	n/a	REC_WORD	472440	wordpools/wasnorm_wordpool_576.txt	LTP327	ltpFR2	10	4	SODA	1341	n/a	n/a	0	0	0
945.852	n/a	REC_WORD	472926	wordpools/wasnorm_wordpool_576.txt	LTP327	ltpFR2	10	4	COCKTAIL	338	n/a	n/a	0	0	0
948.476	n/a	REC_WORD	474238	wordpools/wasnorm_wordpool_576.txt	LTP327	ltpFR2	10	4	RACKET	1155	n/a	n/a	0	0	0
949.628	n/a	REC_WORD	474814	wordpools/wasnorm_wordpool_576.txt	LTP327	ltpFR2	10	4	LABEL	790	n/a	n/a	0	0	0
950.578	n/a	REC_WORD	475289	wordpools/wasnorm_wordpool_576.txt	LTP327	ltpFR2	10	4	SEAL	1262	n/a	n/a	0	0	0
954.03	n/a	REC_WORD	477015	wordpools/wasnorm_wordpool_576.txt	LTP327	ltpFR2	10	4	MARKER	870	n/a	n/a	0	0	0
1011.688	n/a	WORD	505844	wordpools/wasnorm_wordpool_576.txt	LTP327	ltpFR2	10	5	BEAKER	104	n/a	n/a	0	0	0
1014.256	n/a	WORD	507128	wordpools/wasnorm_wordpool_576.txt	LTP327	ltpFR2	10	5	PERFUME	1049	n/a	n/a	0	0	0
1016.726	n/a	WORD	508363	wordpools/wasnorm_wordpool_576.txt	LTP327	ltpFR2	10	5	FRAGRANCE	599	n/a	n/a	0	0	0
1019.41	n/a	WORD	509705	wordpools/wasnorm_wordpool_576.txt	LTP327	ltpFR2	10	5	GIRL	637	n/a	n/a	0	0	0
1022.046	n/a	WORD	511023	wordpools/wasnorm_wordpool_576.txt	LTP327	ltpFR2	10	5	PIGMENT	1066	n/a	n/a	0	0	0
1024.766	n/a	WORD	512383	wordpools/wasnorm_wordpool_576.txt	LTP327	ltpFR2	10	5	BLOCKADE	137	n/a	n/a	0	0	0
1027.418	n/a	WORD	513709	wordpools/wasnorm_wordpool_576.txt	LTP327	ltpFR2	10	5	SWAMP	1416	n/a	n/a	0	0	0
1030.004	n/a	WORD	515002	wordpools/wasnorm_wordpool_576.txt	LTP327	ltpFR2	10	5	ROBBER	1197	n/a	n/a	0	0	0
1032.488	n/a	WORD	516244	wordpools/wasnorm_wordpool_576.txt	LTP327	ltpFR2	10	5	LION	827	n/a	n/a	0	0	0
1034.924	n/a	WORD	517462	wordpools/wasnorm_wordpool_576.txt	LTP327	ltpFR2	10	5	GRIZZLY	662	n/a	n/a	0	0	0
1037.46	n/a	WORD	518730	wordpools/wasnorm_wordpool_576.txt	LTP327	ltpFR2	10	5	CHAPEL	280	n/a	n/a	0	0	0
1040.046	n/a	WORD	520023	wordpools/wasnorm_wordpool_576.txt	LTP327	ltpFR2	10	5	FLESH	579	n/a	n/a	0	0	0
1042.848	n/a	WORD	521424	wordpools/wasnorm_wordpool_576.txt	LTP327	ltpFR2	10	5	LEG	809	n/a	n/a	0	0	0
1045.616	n/a	WORD	522808	wordpools/wasnorm_wordpool_576.txt	LTP327	ltpFR2	10	5	ANKLE	24	n/a	n/a	0	0	0
1048.236	n/a	WORD	524118	wordpools/wasnorm_wordpool_576.txt	LTP327	ltpFR2	10	5	VIKING	1565	n/a	n/a	0	0	0
1050.688	n/a	WORD	525344	wordpools/wasnorm_wordpool_576.txt	LTP327	ltpFR2	10	5	CLAMP	316	n/a	n/a	0	0	0
1053.306	n/a	WORD	526653	wordpools/wasnorm_wordpool_576.txt	LTP327	ltpFR2	10	5	GRILL	661	n/a	n/a	0	0	0
1055.858	n/a	WORD	527929	wordpools/wasnorm_wordpool_576.txt	LTP327	ltpFR2	10	5	TEMPLE	1448	n/a	n/a	0	0	0
1058.544	n/a	WORD	529272	wordpools/wasnorm_wordpool_576.txt	LTP327	ltpFR2	10	5	BANK	83	n/a	n/a	0	0	0
1061.246	n/a	WORD	530623	wordpools/wasnorm_wordpool_576.txt	LTP327	ltpFR2	10	5	SOFTBALL	1343	n/a	n/a	0	0	0
1063.916	n/a	WORD	531958	wordpools/wasnorm_wordpool_576.txt	LTP327	ltpFR2	10	5	PLAYGROUND	1087	n/a	n/a	0	0	0
1066.734	n/a	WORD	533367	wordpools/wasnorm_wordpool_576.txt	LTP327	ltpFR2	10	5	WHISTLE	1606	n/a	n/a	0	0	0
1069.402	n/a	WORD	534701	wordpools/wasnorm_wordpool_576.txt	LTP327	ltpFR2	10	5	CANAL	226	n/a	n/a	0	0	0
1071.94	n/a	WORD	535970	wordpools/wasnorm_wordpool_576.txt	LTP327	ltpFR2	10	5	ATOM	55	n/a	n/a	0	0	0
1073.556	n/a	START	536778	n/a	LTP327	ltpFR2	10	n/a	n/a	n/a	6	n/a	n/a	n/a	n/a
1074.654	n/a	DISTRACTOR	537327	n/a	LTP327	ltpFR2	10	5	n/a	n/a	n/a	n/a	0	0	0
1074.674	n/a	PROB	537337	n/a	LTP327	ltpFR2	10	n/a	n/a	n/a	6	9	1	2	6
1077.294	n/a	PROB	538647	n/a	LTP327	ltpFR2	10	n/a	n/a	n/a	6	20	7	6	7
1079.796	n/a	PROB	539898	n/a	LTP327	ltpFR2	10	n/a	n/a	n/a	6	14	3	5	6
1081.148	n/a	PROB	540574	n/a	LTP327	ltpFR2	10	n/a	n/a	n/a	6	19	4	8	7
1082.348	n/a	PROB	541174	n/a	LTP327	ltpFR2	10	n/a	n/a	n/a	6	18	9	6	3
1083.632	n/a	PROB	541816	n/a	LTP327	ltpFR2	10	n/a	n/a	n/a	6	6	2	3	1
1084.632	n/a	PROB	542316	n/a	LTP327	ltpFR2	10	n/a	n/a	n/a	6	19	2	9	8
1086.002	n/a	PROB	543001	n/a	LTP327	ltpFR2	10	n/a	n/a	n/a	6	11	7	1	3
1087.82	n/a	PROB	543910	n/a	LTP327	ltpFR2	10	n/a	n/a	n/a	6	13	5	5	3
1088.854	n/a	PROB	544427	n/a	LTP327	ltpFR2	10	n/a	n/a	n/a	6	20	4	7	9
1090.338	n/a	PROB	545169	n/a	LTP327	ltpFR2	10	n/a	n/a	n/a	6	21	7	7	7
1091.556	n/a	PROB	545778	n/a	LTP327	ltpFR2	10	n/a	n/a	n/a	6	21	5	8	8
1093.042	n/a	PROB	546521	n/a	LTP327	ltpFR2	10	n/a	n/a	n/a	6	17	6	2	9
1094.692	n/a	PROB	547346	n/a	LTP327	ltpFR2	10	n/a	n/a	n/a	6	8	3	3	2
1096.11	n/a	STOP	548055	n/a	LTP327	ltpFR2	10	n/a	n/a	n/a	6	n/a	n/a	n/a	n/a
1099.496	n/a	REC_START	549748	n/a	LTP327	ltpFR2	10	5	n/a	n/a	n/a	n/a	0	0	0
1102.876	n/a	REC_WORD	551438	wordpools/wasnorm_wordpool_576.txt	LTP327	ltpFR2	10	5	BEAKER	104	n/a	n/a	0	0	0
1103.894	n/a	REC_WORD	551947	wordpools/wasnorm_wordpool_576.txt	LTP327	ltpFR2	10	5	PERFUME	1049	n/a	n/a	0	0	0
1104.956	n/a	REC_WORD_VV	552478	wordpools/wasnorm_wordpool_576.txt	LTP327	ltpFR2	10	5	<>	-1	n/a	n/a	0	0	0
1105.59	n/a	REC_WORD	552795	wordpools/wasnorm_wordpool_576.txt	LTP327	ltpFR2	10	5	FRAGRANCE	599	n/a	n/a	0	0	0
1107.714	n/a	REC_WORD	553857	wordpools/wasnorm_wordpool_576.txt	LTP327	ltpFR2	10	5	LEG	809	n/a	n/a	0	0	0
1109.25	n/a	REC_WORD	554625	wordpools/wasnorm_wordpool_576.txt	LTP327	ltpFR2	10	5	FOOT	590	n/a	n/a	0	0	0
1111.97	n/a	REC_WORD	555985	wordpools/wasnorm_wordpool_576.txt	LTP327	ltpFR2	10	5	BLOCKADE	137	n/a	n/a	0	0	0
1115.646	n/a	REC_WORD_VV	557823	wordpools/wasnorm_wordpool_576.txt	LTP327	ltpFR2	10	5	<>	-1	n/a	n/a	0	0	0
1116.032	n/a	REC_WORD	558016	wordpools/wasnorm_wordpool_576.txt	LTP327	ltpFR2	10	5	FLESH	579	n/a	n/a	0	0	0
1117.304	n/a	REC_WORD	558652	wordpools/wasnorm_wordpool_576.txt	LTP327	ltpFR2	10	5	CHAPEL	280	n/a	n/a	0	0	0
1118.282	n/a	REC_WORD	559141	wordpools/wasnorm_wordpool_576.txt	LTP327	ltpFR2	10	5	TEMPLE	1448	n/a	n/a	0	0	0
1119.318	n/a	REC_WORD	559659	wordpools/wasnorm_wordpool_576.txt	LTP327	ltpFR2	10	5	BANK	83	n/a	n/a	0	0	0
1120.074	n/a	REC_WORD	560037	wordpools/wasnorm_wordpool_576.txt	LTP327	ltpFR2	10	5	SOFTBALL	1343	n/a	n/a	0	0	0
1121.334	n/a	REC_WORD	560667	wordpools/wasnorm_wordpool_576.txt	LTP327	ltpFR2	10	5	PLAYGROUND	1087	n/a	n/a	0	0	0
1122.402	n/a	REC_WORD	561201	wordpools/wasnorm_wordpool_576.txt	LTP327	ltpFR2	10	5	GRILL	661	n/a	n/a	0	0	0
1125.85	n/a	REC_WORD	562925	wordpools/wasnorm_wordpool_576.txt	LTP327	ltpFR2	10	5	GRIZZLY	662	n/a	n/a	0	0	0
1126.846	n/a	REC_WORD	563423	wordpools/wasnorm_wordpool_576.txt	LTP327	ltpFR2	10	5	LION	827	n/a	n/a	0	0	0
1127.756	n/a	REC_WORD	563878	wordpools/wasnorm_wordpool_576.txt	LTP327	ltpFR2	10	5	ROBBER	1197	n/a	n/a	0	0	0
1133.146	n/a	REC_WORD	566573	wordpools/wasnorm_wordpool_576.txt	LTP327	ltpFR2	10	5	SWAMP	1416	n/a	n/a	0	0	0
1190.156	n/a	WORD	595078	wordpools/wasnorm_wordpool_576.txt	LTP327	ltpFR2	10	6	GARLIC	624	n/a	n/a	0	0	0
1192.658	n/a	WORD	596329	wordpools/wasnorm_wordpool_576.txt	LTP327	ltpFR2	10	6	GREASE	660	n/a	n/a	0	0	0
1195.31	n/a	WORD	597655	wordpools/wasnorm_wordpool_576.txt	LTP327	ltpFR2	10	6	PICTURE	1061	n/a	n/a	0	0	0
1198.114	n/a	WORD	599057	wordpools/wasnorm_wordpool_576.txt	LTP327	ltpFR2	10	6	GUITAR	670	n/a	n/a	0	0	0
1200.816	n/a	WORD	600408	wordpools/wasnorm_wordpool_576.txt	LTP327	ltpFR2	10	6	TRENCH	1503	n/a	n/a	0	0	0
1203.3	n/a	WORD	601650	wordpools/wasnorm_wordpool_576.txt	LTP327	ltpFR2	10	6	DOUGHNUT	490	n/a	n/a	0	0	0
1205.82	n/a	WORD	602910	wordpools/wasnorm_wordpool_576.txt	LTP327	ltpFR2	10	6	VICTIM	1562	n/a	n/a	0	0	0
1208.388	n/a	WORD	604194	wordpools/wasnorm_wordpool_576.txt	LTP327	ltpFR2	10	6	JUGGLER	763	n/a	n/a	0	0	0
1210.89	n/a	WORD	605445	wordpools/wasnorm_wordpool_576.txt	LTP327	ltpFR2	10	6	WRENCH	1625	n/a	n/a	0	0	0
1213.658	n/a	WORD	606829	wordpools/wasnorm_wordpool_576.txt	LTP327	ltpFR2	10	6	ZEBRA	1635	n/a	n/a	0	0	0
1216.362	n/a	WORD	608181	wordpools/wasnorm_wordpool_576.txt	LTP327	ltpFR2	10	6	PATROL	1027	n/a	n/a	0	0	0
1218.83	n/a	WORD	609415	wordpools/wasnorm_wordpool_576.txt	LTP327	ltpFR2	10	6	DRAWING	494	n/a	n/a	0	0	0
1221.348	n/a	WORD	610674	wordpools/wasnorm_wordpool_576.txt	LTP327	ltpFR2	10	6	SIDEWALK	1303	n/a	n/a	0	0	0
1224.068	n/a	WORD	612034	wordpools/wasnorm_wordpool_576.txt	LTP327	ltpFR2	10	6	HIGHWAY	707	n/a	n/a	0	0	0
1226.586	n/a	WORD	613293	wordpools/wasnorm_wordpool_576.txt	LTP327	ltpFR2	10	6	SCALPEL	1243	n/a	n/a	0	0	0
1229.354	n/a	WORD	614677	wordpools/wasnorm_wordpool_576.txt	LTP327	ltpFR2	10	6	CLOCK	325	n/a	n/a	0	0	0
1232.108	n/a	WORD	616054	wordpools/wasnorm_wordpool_576.txt	LTP327	ltpFR2	10	6	LETTUCE	814	n/a	n/a	0	0	0
1234.61	n/a	WORD	617305	wordpools/wasnorm_wordpool_576.txt	LTP327	ltpFR2	10	6	TYPIST	1532	n/a	n/a	0	0	0
1237.196	n/a	WORD	618598	wordpools/wasnorm_wordpool_576.txt	LTP327	ltpFR2	10	6	ROD	1203	n/a	n/a	0	0	0
1239.932	n/a	WORD	619966	wordpools/wasnorm_wordpool_576.txt	LTP327	ltpFR2	10	6	ORANGE	980	n/a	n/a	0	0	0
1242.366	n/a	WORD	621183	wordpools/wasnorm_wordpool_576.txt	LTP327	ltpFR2	10	6	RADISH	1158	n/a	n/a	0	0	0
1245.12	n/a	WORD	622560	wordpools/wasnorm_wordpool_576.txt	LTP327	ltpFR2	10	6	TRANSPLANT	1496	n/a	n/a	0	0	0
1247.638	n/a	WORD	623819	wordpools/wasnorm_wordpool_576.txt	LTP327	ltpFR2	10	6	SCARF	1246	n/a	n/a	0	0	0
1250.074	n/a	WORD	625037	wordpools/wasnorm_wordpool_576.txt	LTP327	ltpFR2	10	6	RECORD	1176	n/a	n/a	0	0	0
1251.692	n/a	START	625846	n/a	LTP327	ltpFR2	10	n/a	n/a	n/a	7	n/a	n/a	n/a	n/a
1252.7	n/a	DISTRACTOR	626350	n/a	LTP327	ltpFR2	10	6	n/a	n/a	n/a	n/a	0	0	0
1252.71	n/a	PROB	626355	n/a	LTP327	ltpFR2	10	n/a	n/a	n/a	7	8	3	3	2
1254.344	n/a	PROB	627172	n/a	LTP327	ltpFR2	10	n/a	n/a	n/a	7	11	4	3	4
1255.762	n/a	PROB	627881	n/a	LTP327	ltpFR2	10	n/a	n/a	n/a	7	24	9	6	6
1258.866	n/a	PROB	629433	n/a	LTP327	ltpFR2	10	n/a	n/a	n/a	7	15	2	5	8
1260.464	n/a	PROB	630232	n/a	LTP327	ltpFR2	10	n/a	n/a	n/a	7	12	4	5	3
1263.034	n/a	PROB	631517	n/a	LTP327	ltpFR2	10	n/a	n/a	n/a	7	22	6	9	7
1265.02	n/a	PROB	632510	n/a	LTP327	ltpFR2	10	n/a	n/a	n/a	7	14	2	4	8
1266.32	n/a	PROB	633160	n/a	LTP327	ltpFR2	10	n/a	n/a	n/a	7	13	5	3	5
1267.57	n/a	PROB	633785	n/a	LTP327	ltpFR2	10	n/a	n/a	n/a	7	21	7	6	8
1268.922	n/a	PROB	634461	n/a	LTP327	ltpFR2	10	n/a	n/a	n/a	7	12	2	2	8
1270.306	n/a	PROB	635153	n/a	LTP327	ltpFR2	10	n/a	n/a	n/a	7	11	2	2	7
1272.358	n/a	PROB	636179	n/a	LTP327	ltpFR2	10	n/a	n/a	n/a	7	14	1	6	7
1273.626	n/a	PROB	636813	n/a	LTP327	ltpFR2	10	n/a	n/a	n/a	7	10	8	1	1
1274.808	n/a	STOP	637404	n/a	LTP327	ltpFR2	10	n/a	n/a	n/a	7	n/a	n/a	n/a	n/a
1277.48	n/a	REC_START	638740	n/a	LTP327	ltpFR2	10	6	n/a	n/a	n/a	n/a	0	0	0
1277.918	n/a	REC_WORD	638959	wordpools/wasnorm_wordpool_576.txt	LTP327	ltpFR2	10	6	SCARF	1246	n/a	n/a	0	0	0
1279.064	n/a	REC_WORD	639532	wordpools/wasnorm_wordpool_576.txt	LTP327	ltpFR2	10	6	RECORD	1176	n/a	n/a	0	0	0
1279.874	n/a	REC_WORD	639937	wordpools/wasnorm_wordpool_576.txt	LTP327	ltpFR2	10	6	PATROL	1027	n/a	n/a	0	0	0
1280.852	n/a	REC_WORD	640426	wordpools/wasnorm_wordpool_576.txt	LTP327	ltpFR2	10	6	TYPIST	1532	n/a	n/a	0	0	0
1281.86	n/a	REC_WORD	640930	wordpools/wasnorm_wordpool_576.txt	LTP327	ltpFR2	10	6	LETTUCE	814	n/a	n/a	0	0	0
1283.002	n/a	REC_WORD	641501	wordpools/wasnorm_wordpool_576.txt	LTP327	ltpFR2	10	6	ORANGE	980	n/a	n/a	0	0	0
1284.042	n/a	REC_WORD	642021	wordpools/wasnorm_wordpool_576.txt	LTP327	ltpFR2	10	6	ROD	1203	n/a	n/a	0	0	0
1285.414	n/a	REC_WORD	642707	wordpools/wasnorm_wordpool_576.txt	LTP327	ltpFR2	10	6	RADISH	1158	n/a	n/a	0	0	0
1290.18	n/a	REC_WORD	645090	wordpools/wasnorm_wordpool_576.txt	LTP327	ltpFR2	10	6	PICTURE	1061	n/a	n/a	0	0	0
1291.346	n/a	REC_WORD	645673	wordpools/wasnorm_wordpool_576.txt	LTP327	ltpFR2	10	6	DOUGHNUT	490	n/a	n/a	0	0	0
1292.918	n/a	REC_WORD	646459	wordpools/wasnorm_wordpool_576.txt	LTP327	ltpFR2	10	6	GARLIC	624	n/a	n/a	0	0	0
1293.938	n/a	REC_WORD	646969	wordpools/wasnorm_wordpool_576.txt	LTP327	ltpFR2	10	6	GREASE	660	n/a	n/a	0	0	0
1294.908	n/a	REC_WORD	647454	wordpools/wasnorm_wordpool_576.txt	LTP327	ltpFR2	10	6	GUITAR	670	n/a	n/a	0	0	0
1296.032	n/a	REC_WORD	648016	wordpools/wasnorm_wordpool_576.txt	LTP327	ltpFR2	10	6	TRENCH	1503	n/a	n/a	0	0	0
1297.898	n/a	REC_WORD	648949	wordpools/wasnorm_wordpool_576.txt	LTP327	ltpFR2	10	6	HIGHWAY	707	n/a	n/a	0	0	0
1298.85	n/a	REC_WORD	649425	wordpools/wasnorm_wordpool_576.txt	LTP327	ltpFR2	10	6	SIDEWALK	1303	n/a	n/a	0	0	0
1301.978	n/a	REC_WORD	650989	wordpools/wasnorm_wordpool_576.txt	LTP327	ltpFR2	10	6	DRAWING	494	n/a	n/a	0	0	0
1303.49	n/a	REC_WORD	651745	wordpools/wasnorm_wordpool_576.txt	LTP327	ltpFR2	10	6	PATROL	1027	n/a	n/a	0	0	0
1311.776	n/a	REC_WORD	655888	wordpools/wasnorm_wordpool_576.txt	LTP327	ltpFR2	10	6	SCALPEL	1243	n/a	n/a	0	0	0
1314.384	n/a	REC_WORD	657192	wordpools/wasnorm_wordpool_576.txt	LTP327	ltpFR2	10	6	JUGGLER	763	n/a	n/a	0	0	0
1315.48	n/a	REC_WORD	657740	wordpools/wasnorm_wordpool_576.txt	LTP327	ltpFR2	10	6	VICTIM	1562	n/a	n/a	0	0	0
1316.662	n/a	REC_WORD	658331	wordpools/wasnorm_wordpool_576.txt	LTP327	ltpFR2	10	6	WRENCH	1625	n/a	n/a	0	0	0
1328.68	n/a	REC_WORD	664340	wordpools/wasnorm_wordpool_576.txt	LTP327	ltpFR2	10	6	TRANSPLANT	1496	n/a	n/a	0	0	0
1368.108	n/a	DISTRACTOR	684054	n/a	LTP327	ltpFR2	10	7	n/a	n/a	n/a	n/a	0	0	0
1368.108	n/a	START	684054	n/a	LTP327	ltpFR2	10	n/a	n/a	n/a	8	n/a	n/a	n/a	n/a
1368.14	n/a	PROB	684070	n/a	LTP327	ltpFR2	10	n/a	n/a	n/a	8	20	6	7	7
1369.926	n/a	PROB	684963	n/a	LTP327	ltpFR2	10	n/a	n/a	n/a	8	6	2	1	3
1371.16	n/a	PROB	685580	n/a	LTP327	ltpFR2	10	n/a	n/a	n/a	8	15	6	8	1
1372.41	n/a	PROB	686205	n/a	LTP327	ltpFR2	10	n/a	n/a	n/a	8	7	2	1	4
1373.644	n/a	PROB	686822	n/a	LTP327	ltpFR2	10	n/a	n/a	n/a	8	16	4	6	6
1374.796	n/a	PROB	687398	n/a	LTP327	ltpFR2	10	n/a	n/a	n/a	8	11	2	7	2
1376.114	n/a	PROB	688057	n/a	LTP327	ltpFR2	10	n/a	n/a	n/a	8	5	1	2	2
1377.182	n/a	PROB	688591	n/a	LTP327	ltpFR2	10	n/a	n/a	n/a	8	19	8	8	3
1378.85	n/a	PROB	689425	n/a	LTP327	ltpFR2	10	n/a	n/a	n/a	8	14	6	3	5
1380.25	n/a	PROB	690125	n/a	LTP327	ltpFR2	10	n/a	n/a	n/a	8	13	5	7	1
1381.35	n/a	PROB	690675	n/a	LTP327	ltpFR2	10	n/a	n/a	n/a	8	8	2	4	2
1382.552	n/a	PROB	691276	n/a	LTP327	ltpFR2	10	n/a	n/a	n/a	8	20	6	7	7
1384.252	n/a	PROB	692126	n/a	LTP327	ltpFR2	10	n/a	n/a	n/a	8	10	1	2	7
1385.42	n/a	PROB	692710	n/a	LTP327	ltpFR2	10	n/a	n/a	n/a	8	18	2	8	8
1386.622	n/a	PROB	693311	n/a	LTP327	ltpFR2	10	n/a	n/a	n/a	8	13	8	1	4
1387.924	n/a	PROB	693962	n/a	LTP327	ltpFR2	10	n/a	n/a	n/a	8	12	4	2	6
1389.574	n/a	PROB	694787	n/a	LTP327	ltpFR2	10	n/a	n/a	n/a	8	14	8	2	4
1390.802	n/a	STOP	695401	n/a	LTP327	ltpFR2	10	n/a	n/a	n/a	8	n/a	n/a	n/a	n/a
1393.062	n/a	WORD	696531	wordpools/wasnorm_wordpool_576.txt	LTP327	ltpFR2	10	7	POPCORN	1104	n/a	n/a	0	0	0
1395.68	n/a	WORD	697840	wordpools/wasnorm_wordpool_576.txt	LTP327	ltpFR2	10	7	CLIMBER	323	n/a	n/a	0	0	0
1398.448	n/a	WORD	699224	wordpools/wasnorm_wordpool_576.txt	LTP327	ltpFR2	10	7	CANYON	235	n/a	n/a	0	0	0
1401.202	n/a	WORD	700601	wordpools/wasnorm_wordpool_576.txt	LTP327	ltpFR2	10	7	CRAYON	401	n/a	n/a	0	0	0
1403.92	n/a	WORD	701960	wordpools/wasnorm_wordpool_576.txt	LTP327	ltpFR2	10	7	SKETCH	1315	n/a	n/a	0	0	0
1406.522	n/a	WORD	703261	wordpools/wasnorm_wordpool_576.txt	LTP327	ltpFR2	10	7	PRINCE	1124	n/a	n/a	0	0	0
1409.292	n/a	WORD	704646	wordpools/wasnorm_wordpool_576.txt	LTP327	ltpFR2	10	7	TWISTER	1530	n/a	n/a	0	0	0
1412.044	n/a	WORD	706022	wordpools/wasnorm_wordpool_576.txt	LTP327	ltpFR2	10	7	COD	340	n/a	n/a	0	0	0
1414.88	n/a	WORD	707440	wordpools/wasnorm_wordpool_576.txt	LTP327	ltpFR2	10	7	TOASTER	1472	n/a	n/a	0	0	0
1417.716	n/a	WORD	708858	wordpools/wasnorm_wordpool_576.txt	LTP327	ltpFR2	10	7	SUMMIT	1405	n/a	n/a	0	0	0
1420.368	n/a	WORD	710184	wordpools/wasnorm_wordpool_576.txt	LTP327	ltpFR2	10	7	FRIEND	606	n/a	n/a	0	0	0
1422.986	n/a	WORD	711493	wordpools/wasnorm_wordpool_576.txt	LTP327	ltpFR2	10	7	BLENDER	136	n/a	n/a	0	0	0
1425.538	n/a	WORD	712769	wordpools/wasnorm_wordpool_576.txt	LTP327	ltpFR2	10	7	COUCH	386	n/a	n/a	0	0	0
1428.29	n/a	WORD	714145	wordpools/wasnorm_wordpool_576.txt	LTP327	ltpFR2	10	7	SCARECROW	1245	n/a	n/a	0	0	0
1430.926	n/a	WORD	715463	wordpools/wasnorm_wordpool_576.txt	LTP327	ltpFR2	10	7	FLIPPER	580	n/a	n/a	0	0	0
1433.494	n/a	WORD	716747	wordpools/wasnorm_wordpool_576.txt	LTP327	ltpFR2	10	7	KIDNEY	776	n/a	n/a	0	0	0
1436.014	n/a	WORD	718007	wordpools/wasnorm_wordpool_576.txt	LTP327	ltpFR2	10	7	PEBBLE	1035	n/a	n/a	0	0	0
1438.498	n/a	WORD	719249	wordpools/wasnorm_wordpool_576.txt	LTP327	ltpFR2	10	7	HOOK	715	n/a	n/a	0	0	0
1441.136	n/a	WORD	720568	wordpools/wasnorm_wordpool_576.txt	LTP327	ltpFR2	10	7	BASEMENT	94	n/a	n/a	0	0	0
1443.554	n/a	WORD	721777	wordpools/wasnorm_wordpool_576.txt	LTP327	ltpFR2	10	7	SHARK	1275	n/a	n/a	0	0	0
1446.14	n/a	WORD	723070	wordpools/wasnorm_wordpool_576.txt	LTP327	ltpFR2	10	7	HUMAN	726	n/a	n/a	0	0	0
1448.726	n/a	WORD	724363	wordpools/wasnorm_wordpool_576.txt	LTP327	ltpFR2	10	7	BOX	159	n/a	n/a	0	0	0
1451.476	n/a	WORD	725738	wordpools/wasnorm_wordpool_576.txt	LTP327	ltpFR2	10	7	CUSTARD	429	n/a	n/a	0	0	0
1454.148	n/a	WORD	727074	wordpools/wasnorm_wordpool_576.txt	LTP327	ltpFR2	10	7	CREVICE	405	n/a	n/a	0	0	0
1455.766	n/a	START	727883	n/a	LTP327	ltpFR2	10	n/a	n/a	n/a	9	n/a	n/a	n/a	n/a
1456.636	n/a	DISTRACTOR	728318	n/a	LTP327	ltpFR2	10	7	n/a	n/a	n/a	n/a	0	0	0
1456.648	n/a	PROB	728324	n/a	LTP327	ltpFR2	10	n/a	n/a	n/a	9	24	9	8	7
1458.7	n/a	PROB	729350	n/a	LTP327	ltpFR2	10	n/a	n/a	n/a	9	18	4	7	7
1460.352	n/a	PROB	730176	n/a	LTP327	ltpFR2	10	n/a	n/a	n/a	9	278	9	9	9
1462.188	n/a	PROB	731094	n/a	LTP327	ltpFR2	10	n/a	n/a	n/a	9	10	1	3	6
1463.636	n/a	PROB	731818	n/a	LTP327	ltpFR2	10	n/a	n/a	n/a	9	15	1	7	7
1465.404	n/a	PROB	732702	n/a	LTP327	ltpFR2	10	n/a	n/a	n/a	9	8	2	4	2
1466.622	n/a	PROB	733311	n/a	LTP327	ltpFR2	10	n/a	n/a	n/a	9	9	2	3	4
1468.258	n/a	PROB	734129	n/a	LTP327	ltpFR2	10	n/a	n/a	n/a	9	20	8	9	3
1469.576	n/a	PROB	734788	n/a	LTP327	ltpFR2	10	n/a	n/a	n/a	9	10	1	7	2
1470.828	n/a	PROB	735414	n/a	LTP327	ltpFR2	10	n/a	n/a	n/a	9	18	1	9	8
1472.494	n/a	PROB	736247	n/a	LTP327	ltpFR2	10	n/a	n/a	n/a	9	24	7	9	8
1474.014	n/a	PROB	737007	n/a	LTP327	ltpFR2	10	n/a	n/a	n/a	9	21	5	8	8
1475.314	n/a	PROB	737657	n/a	LTP327	ltpFR2	10	n/a	n/a	n/a	9	7	4	2	1
1476.95	n/a	PROB	738475	n/a	LTP327	ltpFR2	10	n/a	n/a	n/a	9	16	6	4	6
1477.984	n/a	PROB	738992	n/a	LTP327	ltpFR2	10	n/a	n/a	n/a	9	23	6	8	9
1479.418	n/a	STOP	739709	n/a	LTP327	ltpFR2	10	n/a	n/a	n/a	9	n/a	n/a	n/a	n/a
1481.536	n/a	REC_START	740768	n/a	LTP327	ltpFR2	10	7	n/a	n/a	n/a	n/a	0	0	0
1482.442	n/a	REC_WORD	741221	wordpools/wasnorm_wordpool_576.txt	LTP327	ltpFR2	10	7	SHARK	1275	n/a	n/a	0	0	0
1483.502	n/a	REC_WORD	741751	wordpools/wasnorm_wordpool_576.txt	LTP327	ltpFR2	10	7	BASEMENT	94	n/a	n/a	0	0	0
1485.024	n/a	REC_WORD	742512	wordpools/wasnorm_wordpool_576.txt	LTP327	ltpFR2	10	7	HUMAN	726	n/a	n/a	0	0	0
1485.89	n/a	REC_WORD	742945	wordpools/wasnorm_wordpool_576.txt	LTP327	ltpFR2	10	7	PEBBLE	1035	n/a	n/a	0	0	0
1486.836	n/a	REC_WORD	743418	wordpools/wasnorm_wordpool_576.txt	LTP327	ltpFR2	10	7	BOX	159	n/a	n/a	0	0	0
1487.942	n/a	REC_WORD	743971	wordpools/wasnorm_wordpool_576.txt	LTP327	ltpFR2	10	7	CUSTARD	429	n/a	n/a	0	0	0
1489.072	n/a	REC_WORD	744536	wordpools/wasnorm_wordpool_576.txt	LTP327	ltpFR2	10	7	CREVICE	405	n/a	n/a	0	0	0
1490.104	n/a	REC_WORD	745052	wordpools/wasnorm_wordpool_576.txt	LTP327	ltpFR2	10	7	HOOK	715	n/a	n/a	0	0	0
1490.902	n/a	REC_WORD	745451	wordpools/wasnorm_wordpool_576.txt	LTP327	ltpFR2	10	7	SCARECROW	1245	n/a	n/a	0	0	0
1492.218	n/a	REC_WORD	746109	wordpools/wasnorm_wordpool_576.txt	LTP327	ltpFR2	10	7	KIDNEY	776	n/a	n/a	0	0	0
1493.036	n/a	REC_WORD	746518	wordpools/wasnorm_wordpool_576.txt	LTP327	ltpFR2	10	7	FLIPPER	580	n/a	n/a	0	0	0
1498.45	n/a	REC_WORD	749225	wordpools/wasnorm_wordpool_576.txt	LTP327	ltpFR2	10	7	CANYON	235	n/a	n/a	0	0	0
1499.566	n/a	REC_WORD	749783	wordpools/wasnorm_wordpool_576.txt	LTP327	ltpFR2	10	7	CLIMBER	323	n/a	n/a	0	0	0
1500.584	n/a	REC_WORD	750292	wordpools/wasnorm_wordpool_576.txt	LTP327	ltpFR2	10	7	POPCORN	1104	n/a	n/a	0	0	0
1501.656	n/a	REC_WORD	750828	wordpools/wasnorm_wordpool_576.txt	LTP327	ltpFR2	10	7	CRAYON	401	n/a	n/a	0	0	0
1503.436	n/a	REC_WORD	751718	wordpools/wasnorm_wordpool_576.txt	LTP327	ltpFR2	10	7	SKETCH	1315	n/a	n/a	0	0	0
1505.044	n/a	REC_WORD	752522	wordpools/wasnorm_wordpool_576.txt	LTP327	ltpFR2	10	7	PRINCE	1124	n/a	n/a	0	0	0
1505.972	n/a	REC_WORD	752986	wordpools/wasnorm_wordpool_576.txt	LTP327	ltpFR2	10	7	COD	340	n/a	n/a	0	0	0
1506.844	n/a	REC_WORD	753422	wordpools/wasnorm_wordpool_576.txt	LTP327	ltpFR2	10	7	TOASTER	1472	n/a	n/a	0	0	0
1507.668	n/a	REC_WORD	753834	wordpools/wasnorm_wordpool_576.txt	LTP327	ltpFR2	10	7	TWISTER	1530	n/a	n/a	0	0	0
1509.336	n/a	REC_WORD	754668	wordpools/wasnorm_wordpool_576.txt	LTP327	ltpFR2	10	7	BLENDER	136	n/a	n/a	0	0	0
1510.174	n/a	REC_WORD	755087	wordpools/wasnorm_wordpool_576.txt	LTP327	ltpFR2	10	7	COUCH	386	n/a	n/a	0	0	0
1512.282	n/a	REC_WORD	756141	wordpools/wasnorm_wordpool_576.txt	LTP327	ltpFR2	10	7	FRIEND	606	n/a	n/a	0	0	0
1529.928	n/a	REC_WORD	764964	wordpools/wasnorm_wordpool_576.txt	LTP327	ltpFR2	10	7	SUMMIT	1405	n/a	n/a	0	0	0
1572.146	n/a	DISTRACTOR	786073	n/a	LTP327	ltpFR2	10	8	n/a	n/a	n/a	n/a	0	0	0
1572.146	n/a	START	786073	n/a	LTP327	ltpFR2	10	n/a	n/a	n/a	10	n/a	n/a	n/a	n/a
1572.18	n/a	PROB	786090	n/a	LTP327	ltpFR2	10	n/a	n/a	n/a	10	24	7	9	8
1574.532	n/a	PROB	787266	n/a	LTP327	ltpFR2	10	n/a	n/a	n/a	10	16	3	6	7
1576.9	n/a	PROB	788450	n/a	LTP327	ltpFR2	10	n/a	n/a	n/a	10	9	3	4	2
1578.152	n/a	PROB	789076	n/a	LTP327	ltpFR2	10	n/a	n/a	n/a	10	10	1	8	1
1579.286	n/a	PROB	789643	n/a	LTP327	ltpFR2	10	n/a	n/a	n/a	10	14	6	7	1
1580.72	n/a	PROB	790360	n/a	LTP327	ltpFR2	10	n/a	n/a	n/a	10	16	5	5	6
1581.806	n/a	PROB	790903	n/a	LTP327	ltpFR2	10	n/a	n/a	n/a	10	24	7	8	9
1583.456	n/a	PROB	791728	n/a	LTP327	ltpFR2	10	n/a	n/a	n/a	10	17	9	2	6
1584.956	n/a	PROB	792478	n/a	LTP327	ltpFR2	10	n/a	n/a	n/a	10	16	5	8	3
1586.208	n/a	PROB	793104	n/a	LTP327	ltpFR2	10	n/a	n/a	n/a	10	19	8	4	7
1589.226	n/a	PROB	794613	n/a	LTP327	ltpFR2	10	n/a	n/a	n/a	10	16	8	6	2
1590.444	n/a	PROB	795222	n/a	LTP327	ltpFR2	10	n/a	n/a	n/a	10	11	3	2	6
1591.662	n/a	PROB	795831	n/a	LTP327	ltpFR2	10	n/a	n/a	n/a	10	13	2	7	4
1592.948	n/a	PROB	796474	n/a	LTP327	ltpFR2	10	n/a	n/a	n/a	10	15	4	5	6
1596.146	n/a	STOP	798073	n/a	LTP327	ltpFR2	10	n/a	n/a	n/a	10	n/a	n/a	n/a	n/a
1597.018	n/a	WORD	798509	wordpools/wasnorm_wordpool_576.txt	LTP327	ltpFR2	10	8	MOTOR	922	n/a	n/a	0	0	0
1599.586	n/a	WORD	799793	wordpools/wasnorm_wordpool_576.txt	LTP327	ltpFR2	10	8	SHELF	1280	n/a	n/a	0	0	0
1602.172	n/a	WORD	801086	wordpools/wasnorm_wordpool_576.txt	LTP327	ltpFR2	10	8	FARMER	553	n/a	n/a	0	0	0
1604.858	n/a	WORD	802429	wordpools/wasnorm_wordpool_576.txt	LTP327	ltpFR2	10	8	PADDLE	1000	n/a	n/a	0	0	0
1607.642	n/a	WORD	803821	wordpools/wasnorm_wordpool_576.txt	LTP327	ltpFR2	10	8	PEPPER	1047	n/a	n/a	0	0	0
1610.096	n/a	WORD	805048	wordpools/wasnorm_wordpool_576.txt	LTP327	ltpFR2	10	8	BLADE	134	n/a	n/a	0	0	0
1612.646	n/a	WORD	806323	wordpools/wasnorm_wordpool_576.txt	LTP327	ltpFR2	10	8	SHERIFF	1284	n/a	n/a	0	0	0
1615.432	n/a	WORD	807716	wordpools/wasnorm_wordpool_576.txt	LTP327	ltpFR2	10	8	MARINE	869	n/a	n/a	0	0	0
1618.136	n/a	WORD	809068	wordpools/wasnorm_wordpool_576.txt	LTP327	ltpFR2	10	8	DENTIST	447	n/a	n/a	0	0	0
1620.804	n/a	WORD	810402	wordpools/wasnorm_wordpool_576.txt	LTP327	ltpFR2	10	8	FLASHLIGHT	575	n/a	n/a	0	0	0
1623.54	n/a	WORD	811770	wordpools/wasnorm_wordpool_576.txt	LTP327	ltpFR2	10	8	PADDING	999	n/a	n/a	0	0	0
1626.142	n/a	WORD	813071	wordpools/wasnorm_wordpool_576.txt	LTP327	ltpFR2	10	8	MAILMAN	858	n/a	n/a	0	0	0
1628.878	n/a	WORD	814439	wordpools/wasnorm_wordpool_576.txt	LTP327	ltpFR2	10	8	PACKAGE	997	n/a	n/a	0	0	0
1631.53	n/a	WORD	815765	wordpools/wasnorm_wordpool_576.txt	LTP327	ltpFR2	10	8	HAMPER	682	n/a	n/a	0	0	0
1634.116	n/a	WORD	817058	wordpools/wasnorm_wordpool_576.txt	LTP327	ltpFR2	10	8	PIGEON	1065	n/a	n/a	0	0	0
1636.634	n/a	WORD	818317	wordpools/wasnorm_wordpool_576.txt	LTP327	ltpFR2	10	8	SUPPER	1411	n/a	n/a	0	0	0
1639.252	n/a	WORD	819626	wordpools/wasnorm_wordpool_576.txt	LTP327	ltpFR2	10	8	COOKBOOK	373	n/a	n/a	0	0	0
1641.756	n/a	WORD	820878	wordpools/wasnorm_wordpool_576.txt	LTP327	ltpFR2	10	8	BISON	131	n/a	n/a	0	0	0
1644.506	n/a	WORD	822253	wordpools/wasnorm_wordpool_576.txt	LTP327	ltpFR2	10	8	SNAKE	1333	n/a	n/a	0	0	0
1647.21	n/a	WORD	823605	wordpools/wasnorm_wordpool_576.txt	LTP327	ltpFR2	10	8	BEAST	108	n/a	n/a	0	0	0
1649.93	n/a	WORD	824965	wordpools/wasnorm_wordpool_576.txt	LTP327	ltpFR2	10	8	TUNNEL	1519	n/a	n/a	0	0	0
1652.43	n/a	WORD	826215	wordpools/wasnorm_wordpool_576.txt	LTP327	ltpFR2	10	8	TABLE	1426	n/a	n/a	0	0	0
1655.266	n/a	WORD	827633	wordpools/wasnorm_wordpool_576.txt	LTP327	ltpFR2	10	8	VALVE	1546	n/a	n/a	0	0	0
1657.802	n/a	WORD	828901	wordpools/wasnorm_wordpool_576.txt	LTP327	ltpFR2	10	8	LOVER	846	n/a	n/a	0	0	0
1659.42	n/a	START	829710	n/a	LTP327	ltpFR2	10	n/a	n/a	n/a	11	n/a	n/a	n/a	n/a
1660.262	n/a	DISTRACTOR	830131	n/a	LTP327	ltpFR2	10	8	n/a	n/a	n/a	n/a	0	0	0
1660.288	n/a	PROB	830144	n/a	LTP327	ltpFR2	10	n/a	n/a	n/a	11	18	2	7	9
1662.94	n/a	PROB	831470	n/a	LTP327	ltpFR2	10	n/a	n/a	n/a	11	14	9	3	2
1664.274	n/a	PROB	832137	n/a	LTP327	ltpFR2	10	n/a	n/a	n/a	11	14	1	8	5
1666.026	n/a	PROB	833013	n/a	LTP327	ltpFR2	10	n/a	n/a	n/a	11	15	4	4	7
1667.31	n/a	PROB	833655	n/a	LTP327	ltpFR2	10	n/a	n/a	n/a	11	18	9	6	3
1668.626	n/a	PROB	834313	n/a	LTP327	ltpFR2	10	n/a	n/a	n/a	11	14	8	4	2
1669.98	n/a	PROB	834990	n/a	LTP327	ltpFR2	10	n/a	n/a	n/a	11	18	6	9	3
1671.296	n/a	PROB	835648	n/a	LTP327	ltpFR2	10	n/a	n/a	n/a	11	16	8	5	3
1672.53	n/a	PROB	836265	n/a	LTP327	ltpFR2	10	n/a	n/a	n/a	11	14	6	7	1
1673.85	n/a	PROB	836925	n/a	LTP327	ltpFR2	10	n/a	n/a	n/a	11	13	2	9	2
1675.35	n/a	PROB	837675	n/a	LTP327	ltpFR2	10	n/a	n/a	n/a	11	13	3	9	1
1677.602	n/a	PROB	838801	n/a	LTP327	ltpFR2	10	n/a	n/a	n/a	11	15	6	5	4
1678.92	n/a	PROB	839460	n/a	LTP327	ltpFR2	10	n/a	n/a	n/a	11	17	7	5	5
1680.922	n/a	PROB	840461	n/a	LTP327	ltpFR2	10	n/a	n/a	n/a	11	16	8	4	4
1681.982	n/a	STOP	840991	n/a	LTP327	ltpFR2	10	n/a	n/a	n/a	11	n/a	n/a	n/a	n/a
1685.276	n/a	REC_START	842638	n/a	LTP327	ltpFR2	10	8	n/a	n/a	n/a	n/a	0	0	0
1685.99	n/a	REC_WORD	842995	wordpools/wasnorm_wordpool_576.txt	LTP327	ltpFR2	10	8	LOVER	846	n/a	n/a	0	0	0
1686.666	n/a	REC_WORD	843333	wordpools/wasnorm_wordpool_576.txt	LTP327	ltpFR2	10	8	VALVE	1546	n/a	n/a	0	0	0
1687.592	n/a	REC_WORD	843796	wordpools/wasnorm_wordpool_576.txt	LTP327	ltpFR2	10	8	TUNNEL	1519	n/a	n/a	0	0	0
1688.496	n/a	REC_WORD	844248	wordpools/wasnorm_wordpool_576.txt	LTP327	ltpFR2	10	8	TABLE	1426	n/a	n/a	0	0	0
1689.398	n/a	REC_WORD	844699	wordpools/wasnorm_wordpool_576.txt	LTP327	ltpFR2	10	8	COOKBOOK	373	n/a	n/a	0	0	0
1690.532	n/a	REC_WORD	845266	wordpools/wasnorm_wordpool_576.txt	LTP327	ltpFR2	10	8	PIGEON	1065	n/a	n/a	0	0	0
1691.596	n/a	REC_WORD	845798	wordpools/wasnorm_wordpool_576.txt	LTP327	ltpFR2	10	8	BISON	131	n/a	n/a	0	0	0
1692.49	n/a	REC_WORD	846245	wordpools/wasnorm_wordpool_576.txt	LTP327	ltpFR2	10	8	SNAKE	1333	n/a	n/a	0	0	0
1693.672	n/a	REC_WORD	846836	wordpools/wasnorm_wordpool_576.txt	LTP327	ltpFR2	10	8	BEAST	108	n/a	n/a	0	0	0
1694.44	n/a	REC_WORD	847220	wordpools/wasnorm_wordpool_576.txt	LTP327	ltpFR2	10	8	SUPPER	1411	n/a	n/a	0	0	0
1699.236	n/a	REC_WORD	849618	wordpools/wasnorm_wordpool_576.txt	LTP327	ltpFR2	10	8	MARINE	869	n/a	n/a	0	0	0
1700.168	n/a	REC_WORD	850084	wordpools/wasnorm_wordpool_576.txt	LTP327	ltpFR2	10	8	FLASHLIGHT	575	n/a	n/a	0	0	0
1701.358	n/a	REC_WORD	850679	wordpools/wasnorm_wordpool_576.txt	LTP327	ltpFR2	10	8	PADDLE	1000	n/a	n/a	0	0	0
1705.304	n/a	REC_WORD	852652	wordpools/wasnorm_wordpool_576.txt	LTP327	ltpFR2	10	8	DENTIST	447	n/a	n/a	0	0	0
1707.282	n/a	REC_WORD	853641	wordpools/wasnorm_wordpool_576.txt	LTP327	ltpFR2	10	8	FARMER	553	n/a	n/a	0	0	0
1708.03	n/a	REC_WORD	854015	wordpools/wasnorm_wordpool_576.txt	LTP327	ltpFR2	10	8	SHELF	1280	n/a	n/a	0	0	0
1708.88	n/a	REC_WORD	854440	wordpools/wasnorm_wordpool_576.txt	LTP327	ltpFR2	10	8	MOTOR	922	n/a	n/a	0	0	0
1711.374	n/a	REC_WORD	855687	wordpools/wasnorm_wordpool_576.txt	LTP327	ltpFR2	10	8	MAILBOX	857	n/a	n/a	0	0	0
1712.406	n/a	REC_WORD_VV	856203	wordpools/wasnorm_wordpool_576.txt	LTP327	ltpFR2	10	8	<>	-1	n/a	n/a	0	0	0
1712.754	n/a	REC_WORD	856377	wordpools/wasnorm_wordpool_576.txt	LTP327	ltpFR2	10	8	MAILMAN	858	n/a	n/a	0	0	0
1714.322	n/a	REC_WORD	857161	wordpools/wasnorm_wordpool_576.txt	LTP327	ltpFR2	10	8	PACKAGE	997	n/a	n/a	0	0	0
1715.408	n/a	REC_WORD	857704	wordpools/wasnorm_wordpool_576.txt	LTP327	ltpFR2	10	8	PADDING	999	n/a	n/a	0	0	0
1738.982	n/a	REC_WORD	869491	wordpools/wasnorm_wordpool_576.txt	LTP327	ltpFR2	10	8	VALVE	1546	n/a	n/a	0	0	0
1761.808	n/a	REST_REWET	880904	n/a	LTP327	ltpFR2	10	8	n/a	n/a	n/a	n/a	0	0	0
1965.628	n/a	DISTRACTOR	982814	n/a	LTP327	ltpFR2	10	9	n/a	n/a	n/a	n/a	0	0	0
1965.63	n/a	START	982815	n/a	LTP327	ltpFR2	10	n/a	n/a	n/a	12	n/a	n/a	n/a	n/a
1965.646	n/a	PROB	982823	n/a	LTP327	ltpFR2	10	n/a	n/a	n/a	12	13	1	6	6
1967.048	n/a	PROB	983524	n/a	LTP327	ltpFR2	10	n/a	n/a	n/a	12	11	2	3	6
1968.382	n/a	PROB	984191	n/a	LTP327	ltpFR2	10	n/a	n/a	n/a	12	14	3	7	4
1969.632	n/a	PROB	984816	n/a	LTP327	ltpFR2	10	n/a	n/a	n/a	12	25	8	8	9
1971.118	n/a	PROB	985559	n/a	LTP327	ltpFR2	10	n/a	n/a	n/a	12	18	8	9	1
1972.87	n/a	PROB	986435	n/a	LTP327	ltpFR2	10	n/a	n/a	n/a	12	20	3	9	8
1975.404	n/a	PROB	987702	n/a	LTP327	ltpFR2	10	n/a	n/a	n/a	12	14	7	1	6
1976.99	n/a	PROB	988495	n/a	LTP327	ltpFR2	10	n/a	n/a	n/a	12	12	1	5	6
1978.224	n/a	PROB	989112	n/a	LTP327	ltpFR2	10	n/a	n/a	n/a	12	16	2	7	7
1979.59	n/a	PROB	989795	n/a	LTP327	ltpFR2	10	n/a	n/a	n/a	12	20	8	6	6
1981.176	n/a	PROB	990588	n/a	LTP327	ltpFR2	10	n/a	n/a	n/a	12	15	2	5	8
1982.444	n/a	PROB	991222	n/a	LTP327	ltpFR2	10	n/a	n/a	n/a	12	16	7	1	8
1984.346	n/a	PROB	992173	n/a	LTP327	ltpFR2	10	n/a	n/a	n/a	12	16	4	5	7
1985.612	n/a	PROB	992806	n/a	LTP327	ltpFR2	10	n/a	n/a	n/a	12	10	5	2	3
1987.082	n/a	PROB	993541	n/a	LTP327	ltpFR2	10	n/a	n/a	n/a	12	13	4	3	6
1989.426	n/a	STOP	994713	n/a	LTP327	ltpFR2	10	n/a	n/a	n/a	12	n/a	n/a	n/a	n/a
1990.818	n/a	WORD	995409	wordpools/wasnorm_wordpool_576.txt	LTP327	ltpFR2	10	9	STOMACH	1384	n/a	n/a	0	0	0
1993.502	n/a	WORD	996751	wordpools/wasnorm_wordpool_576.txt	LTP327	ltpFR2	10	9	SWITCH	1422	n/a	n/a	0	0	0
1996.222	n/a	WORD	998111	wordpools/wasnorm_wordpool_576.txt	LTP327	ltpFR2	10	9	GIFT	635	n/a	n/a	0	0	0
1998.842	n/a	WORD	999421	wordpools/wasnorm_wordpool_576.txt	LTP327	ltpFR2	10	9	SHELTER	1282	n/a	n/a	0	0	0
2001.576	n/a	WORD	1000788	wordpools/wasnorm_wordpool_576.txt	LTP327	ltpFR2	10	9	APPLE	33	n/a	n/a	0	0	0
2004.196	n/a	WORD	1002098	wordpools/wasnorm_wordpool_576.txt	LTP327	ltpFR2	10	9	WIDOW	1608	n/a	n/a	0	0	0
2006.848	n/a	WORD	1003424	wordpools/wasnorm_wordpool_576.txt	LTP327	ltpFR2	10	9	HOSTESS	723	n/a	n/a	0	0	0
2009.65	n/a	WORD	1004825	wordpools/wasnorm_wordpool_576.txt	LTP327	ltpFR2	10	9	TRUCK	1512	n/a	n/a	0	0	0
2012.202	n/a	WORD	1006101	wordpools/wasnorm_wordpool_576.txt	LTP327	ltpFR2	10	9	BIKE	125	n/a	n/a	0	0	0
2014.754	n/a	WORD	1007377	wordpools/wasnorm_wordpool_576.txt	LTP327	ltpFR2	10	9	PECAN	1036	n/a	n/a	0	0	0
2017.34	n/a	WORD	1008670	wordpools/wasnorm_wordpool_576.txt	LTP327	ltpFR2	10	9	PEANUT	1032	n/a	n/a	0	0	0
2020.11	n/a	WORD	1010055	wordpools/wasnorm_wordpool_576.txt	LTP327	ltpFR2	10	9	GRAVEL	659	n/a	n/a	0	0	0
2022.812	n/a	WORD	1011406	wordpools/wasnorm_wordpool_576.txt	LTP327	ltpFR2	10	9	WAGON	1578	n/a	n/a	0	0	0
2025.264	n/a	WORD	1012632	wordpools/wasnorm_wordpool_576.txt	LTP327	ltpFR2	10	9	HAWK	692	n/a	n/a	0	0	0
2028.016	n/a	WORD	1014008	wordpools/wasnorm_wordpool_576.txt	LTP327	ltpFR2	10	9	TILE	1468	n/a	n/a	0	0	0
2030.702	n/a	WORD	1015351	wordpools/wasnorm_wordpool_576.txt	LTP327	ltpFR2	10	9	GROUND	666	n/a	n/a	0	0	0
2033.402	n/a	WORD	1016701	wordpools/wasnorm_wordpool_576.txt	LTP327	ltpFR2	10	9	COURSE	390	n/a	n/a	0	0	0
2036.238	n/a	WORD	1018119	wordpools/wasnorm_wordpool_576.txt	LTP327	ltpFR2	10	9	LASER	801	n/a	n/a	0	0	0
2038.842	n/a	WORD	1019421	wordpools/wasnorm_wordpool_576.txt	LTP327	ltpFR2	10	9	WAITRESS	1581	n/a	n/a	0	0	0
2041.66	n/a	WORD	1020830	wordpools/wasnorm_wordpool_576.txt	LTP327	ltpFR2	10	9	AIRPLANE	12	n/a	n/a	0	0	0
2044.428	n/a	WORD	1022214	wordpools/wasnorm_wordpool_576.txt	LTP327	ltpFR2	10	9	MISSILE	900	n/a	n/a	0	0	0
2046.916	n/a	WORD	1023458	wordpools/wasnorm_wordpool_576.txt	LTP327	ltpFR2	10	9	PIZZA	1079	n/a	n/a	0	0	0
2049.5	n/a	WORD	1024750	wordpools/wasnorm_wordpool_576.txt	LTP327	ltpFR2	10	9	INMATE	738	n/a	n/a	0	0	0
2052.252	n/a	WORD	1026126	wordpools/wasnorm_wordpool_576.txt	LTP327	ltpFR2	10	9	ROOSTER	1209	n/a	n/a	0	0	0
2053.872	n/a	START	1026936	n/a	LTP327	ltpFR2	10	n/a	n/a	n/a	13	n/a	n/a	n/a	n/a
2054.898	n/a	DISTRACTOR	1027449	n/a	LTP327	ltpFR2	10	9	n/a	n/a	n/a	n/a	0	0	0
2054.922	n/a	PROB	1027461	n/a	LTP327	ltpFR2	10	n/a	n/a	n/a	13	5	1	2	2
2056.44	n/a	PROB	1028220	n/a	LTP327	ltpFR2	10	n/a	n/a	n/a	13	14	4	6	4
2057.758	n/a	PROB	1028879	n/a	LTP327	ltpFR2	10	n/a	n/a	n/a	13	9	3	5	1
2059.442	n/a	PROB	1029721	n/a	LTP327	ltpFR2	10	n/a	n/a	n/a	13	12	1	8	3
2060.844	n/a	PROB	1030422	n/a	LTP327	ltpFR2	10	n/a	n/a	n/a	13	15	6	5	4
2062.096	n/a	PROB	1031048	n/a	LTP327	ltpFR2	10	n/a	n/a	n/a	13	14	4	8	2
2063.428	n/a	PROB	1031714	n/a	LTP327	ltpFR2	10	n/a	n/a	n/a	13	13	7	5	1
2064.664	n/a	PROB	1032332	n/a	LTP327	ltpFR2	10	n/a	n/a	n/a	13	11	2	2	7
2066.032	n/a	PROB	1033016	n/a	LTP327	ltpFR2	10	n/a	n/a	n/a	13	5	3	1	1
2067.134	n/a	PROB	1033567	n/a	LTP327	ltpFR2	10	n/a	n/a	n/a	13	19	5	9	5
2068.718	n/a	PROB	1034359	n/a	LTP327	ltpFR2	10	n/a	n/a	n/a	13	13	4	1	8
2069.868	n/a	PROB	1034934	n/a	LTP327	ltpFR2	10	n/a	n/a	n/a	13	12	7	3	2
2071.17	n/a	PROB	1035585	n/a	LTP327	ltpFR2	10	n/a	n/a	n/a	13	22	5	8	9
2072.686	n/a	PROB	1036343	n/a	LTP327	ltpFR2	10	n/a	n/a	n/a	13	10	3	2	5
2073.988	n/a	PROB	1036994	n/a	LTP327	ltpFR2	10	n/a	n/a	n/a	13	24	8	9	7
2076.174	n/a	PROB	1038087	n/a	LTP327	ltpFR2	10	n/a	n/a	n/a	13	11	5	3	3
2077.596	n/a	STOP	1038798	n/a	LTP327	ltpFR2	10	n/a	n/a	n/a	13	n/a	n/a	n/a	n/a
2079.694	n/a	REC_START	1039847	n/a	LTP327	ltpFR2	10	9	n/a	n/a	n/a	n/a	0	0	0
2080.622	n/a	REC_WORD	1040311	wordpools/wasnorm_wordpool_576.txt	LTP327	ltpFR2	10	9	INMATE	738	n/a	n/a	0	0	0
2081.546	n/a	REC_WORD	1040773	wordpools/wasnorm_wordpool_576.txt	LTP327	ltpFR2	10	9	ROOSTER	1209	n/a	n/a	0	0	0
2082.644	n/a	REC_WORD	1041322	wordpools/wasnorm_wordpool_576.txt	LTP327	ltpFR2	10	9	PIZZA	1079	n/a	n/a	0	0	0
2084.4	n/a	REC_WORD	1042200	wordpools/wasnorm_wordpool_576.txt	LTP327	ltpFR2	10	9	STOMACH	1384	n/a	n/a	0	0	0
2085.34	n/a	REC_WORD	1042670	wordpools/wasnorm_wordpool_576.txt	LTP327	ltpFR2	10	9	SWITCH	1422	n/a	n/a	0	0	0
2086.566	n/a	REC_WORD	1043283	wordpools/wasnorm_wordpool_576.txt	LTP327	ltpFR2	10	9	GIFT	635	n/a	n/a	0	0	0
2088.932	n/a	REC_WORD	1044466	wordpools/wasnorm_wordpool_576.txt	LTP327	ltpFR2	10	9	APPLE	33	n/a	n/a	0	0	0
2096.164	n/a	REC_WORD	1048082	wordpools/wasnorm_wordpool_576.txt	LTP327	ltpFR2	10	9	WINDOW	1611	n/a	n/a	0	0	0
2097.094	n/a	REC_WORD	1048547	wordpools/wasnorm_wordpool_576.txt	LTP327	ltpFR2	10	9	HOSTESS	723	n/a	n/a	0	0	0
2098.668	n/a	REC_WORD	1049334	wordpools/wasnorm_wordpool_576.txt	LTP327	ltpFR2	10	9	WAITRESS	1581	n/a	n/a	0	0	0
2099.952	n/a	REC_WORD	1049976	wordpools/wasnorm_wordpool_576.txt	LTP327	ltpFR2	10	9	PEANUT	1032	n/a	n/a	0	0	0
2100.936	n/a	REC_WORD	1050468	wordpools/wasnorm_wordpool_576.txt	LTP327	ltpFR2	10	9	PECAN	1036	n/a	n/a	0	0	0
2101.98	n/a	REC_WORD	1050990	wordpools/wasnorm_wordpool_576.txt	LTP327	ltpFR2	10	9	TRUCK	1512	n/a	n/a	0	0	0
2102.914	n/a	REC_WORD	1051457	wordpools/wasnorm_wordpool_576.txt	LTP327	ltpFR2	10	9	GRAVEL	659	n/a	n/a	0	0	0
2105.006	n/a	REC_WORD	1052503	wordpools/wasnorm_wordpool_576.txt	LTP327	ltpFR2	10	9	WAGON	1578	n/a	n/a	0	0	0
2105.96	n/a	REC_WORD	1052980	wordpools/wasnorm_wordpool_576.txt	LTP327	ltpFR2	10	9	TILE	1468	n/a	n/a	0	0	0
2106.806	n/a	REC_WORD	1053403	wordpools/wasnorm_wordpool_576.txt	LTP327	ltpFR2	10	9	COURSE	390	n/a	n/a	0	0	0
2112.428	n/a	REC_WORD	1056214	wordpools/wasnorm_wordpool_576.txt	LTP327	ltpFR2	10	9	AIRPLANE	12	n/a	n/a	0	0	0
2113.354	n/a	REC_WORD	1056677	wordpools/wasnorm_wordpool_576.txt	LTP327	ltpFR2	10	9	MISSILE	900	n/a	n/a	0	0	0
2170.268	n/a	DISTRACTOR	1085134	n/a	LTP327	ltpFR2	10	10	n/a	n/a	n/a	n/a	0	0	0
2170.27	n/a	START	1085135	n/a	LTP327	ltpFR2	10	n/a	n/a	n/a	14	n/a	n/a	n/a	n/a
2170.286	n/a	PROB	1085143	n/a	LTP327	ltpFR2	10	n/a	n/a	n/a	14	6	1	3	2
2171.47	n/a	PROB	1085735	n/a	LTP327	ltpFR2	10	n/a	n/a	n/a	14	10	1	8	1
2172.888	n/a	PROB	1086444	n/a	LTP327	ltpFR2	10	n/a	n/a	n/a	14	14	2	6	6
2174.622	n/a	PROB	1087311	n/a	LTP327	ltpFR2	10	n/a	n/a	n/a	14	13	3	7	3
2175.924	n/a	PROB	1087962	n/a	LTP327	ltpFR2	10	n/a	n/a	n/a	14	12	6	2	4
2178.31	n/a	PROB	1089155	n/a	LTP327	ltpFR2	10	n/a	n/a	n/a	14	22	7	7	8
2179.844	n/a	PROB	1089922	n/a	LTP327	ltpFR2	10	n/a	n/a	n/a	14	19	6	5	8
2181.228	n/a	PROB	1090614	n/a	LTP327	ltpFR2	10	n/a	n/a	n/a	14	17	8	3	6
2183.514	n/a	PROB	1091757	n/a	LTP327	ltpFR2	10	n/a	n/a	n/a	14	14	8	1	5
2184.932	n/a	PROB	1092466	n/a	LTP327	ltpFR2	10	n/a	n/a	n/a	14	17	8	3	6
2186.634	n/a	PROB	1093317	n/a	LTP327	ltpFR2	10	n/a	n/a	n/a	14	20	8	3	9
2189.104	n/a	PROB	1094552	n/a	LTP327	ltpFR2	10	n/a	n/a	n/a	14	17	8	8	1
2190.854	n/a	PROB	1095427	n/a	LTP327	ltpFR2	10	n/a	n/a	n/a	14	12	2	1	9
2192.088	n/a	PROB	1096044	n/a	LTP327	ltpFR2	10	n/a	n/a	n/a	14	15	2	6	7
2193.654	n/a	STOP	1096827	n/a	LTP327	ltpFR2	10	n/a	n/a	n/a	14	n/a	n/a	n/a	n/a
2195.34	n/a	WORD	1097670	wordpools/wasnorm_wordpool_576.txt	LTP327	ltpFR2	10	10	COTTAGE	384	n/a	n/a	0	0	0
2198.126	n/a	WORD	1099063	wordpools/wasnorm_wordpool_576.txt	LTP327	ltpFR2	10	10	COWBOY	395	n/a	n/a	0	0	0
2200.962	n/a	WORD	1100481	wordpools/wasnorm_wordpool_576.txt	LTP327	ltpFR2	10	10	GAZELLE	628	n/a	n/a	0	0	0
2203.664	n/a	WORD	1101832	wordpools/wasnorm_wordpool_576.txt	LTP327	ltpFR2	10	10	LEADER	807	n/a	n/a	0	0	0
2206.332	n/a	WORD	1103166	wordpools/wasnorm_wordpool_576.txt	LTP327	ltpFR2	10	10	COUSIN	392	n/a	n/a	0	0	0
2208.986	n/a	WORD	1104493	wordpools/wasnorm_wordpool_576.txt	LTP327	ltpFR2	10	10	STAMP	1370	n/a	n/a	0	0	0
2211.454	n/a	WORD	1105727	wordpools/wasnorm_wordpool_576.txt	LTP327	ltpFR2	10	10	FOX	598	n/a	n/a	0	0	0
2214.108	n/a	WORD	1107054	wordpools/wasnorm_wordpool_576.txt	LTP327	ltpFR2	10	10	SLIME	1327	n/a	n/a	0	0	0
2216.642	n/a	WORD	1108321	wordpools/wasnorm_wordpool_576.txt	LTP327	ltpFR2	10	10	OFFICE	972	n/a	n/a	0	0	0
2219.144	n/a	WORD	1109572	wordpools/wasnorm_wordpool_576.txt	LTP327	ltpFR2	10	10	CHAUFFEUR	283	n/a	n/a	0	0	0
2221.798	n/a	WORD	1110899	wordpools/wasnorm_wordpool_576.txt	LTP327	ltpFR2	10	10	ROBOT	1200	n/a	n/a	0	0	0
2224.498	n/a	WORD	1112249	wordpools/wasnorm_wordpool_576.txt	LTP327	ltpFR2	10	10	MACHINE	852	n/a	n/a	0	0	0
2227.234	n/a	WORD	1113617	wordpools/wasnorm_wordpool_576.txt	LTP327	ltpFR2	10	10	COUNTRY	388	n/a	n/a	0	0	0
2229.854	n/a	WORD	1114927	wordpools/wasnorm_wordpool_576.txt	LTP327	ltpFR2	10	10	SALT	1229	n/a	n/a	0	0	0
2232.406	n/a	WORD	1116203	wordpools/wasnorm_wordpool_576.txt	LTP327	ltpFR2	10	10	BARLEY	88	n/a	n/a	0	0	0
2235.192	n/a	WORD	1117596	wordpools/wasnorm_wordpool_576.txt	LTP327	ltpFR2	10	10	COLONEL	348	n/a	n/a	0	0	0
2237.676	n/a	WORD	1118838	wordpools/wasnorm_wordpool_576.txt	LTP327	ltpFR2	10	10	LEOPARD	812	n/a	n/a	0	0	0
2240.146	n/a	WORD	1120073	wordpools/wasnorm_wordpool_576.txt	LTP327	ltpFR2	10	10	DOLPHIN	483	n/a	n/a	0	0	0
2242.832	n/a	WORD	1121416	wordpools/wasnorm_wordpool_576.txt	LTP327	ltpFR2	10	10	PASSAGE	1019	n/a	n/a	0	0	0
2245.6	n/a	WORD	1122800	wordpools/wasnorm_wordpool_576.txt	LTP327	ltpFR2	10	10	MILDEW	893	n/a	n/a	0	0	0
2248.136	n/a	WORD	1124068	wordpools/wasnorm_wordpool_576.txt	LTP327	ltpFR2	10	10	SCRIBBLE	1256	n/a	n/a	0	0	0
2250.722	n/a	WORD	1125361	wordpools/wasnorm_wordpool_576.txt	LTP327	ltpFR2	10	10	NOVEL	960	n/a	n/a	0	0	0
2253.422	n/a	WORD	1126711	wordpools/wasnorm_wordpool_576.txt	LTP327	ltpFR2	10	10	WOMAN	1620	n/a	n/a	0	0	0
2255.876	n/a	WORD	1127938	wordpools/wasnorm_wordpool_576.txt	LTP327	ltpFR2	10	10	ACTOR	5	n/a	n/a	0	0	0
2257.494	n/a	START	1128747	n/a	LTP327	ltpFR2	10	n/a	n/a	n/a	15	n/a	n/a	n/a	n/a
2258.308	n/a	DISTRACTOR	1129154	n/a	LTP327	ltpFR2	10	10	n/a	n/a	n/a	n/a	0	0	0
2258.328	n/a	PROB	1129164	n/a	LTP327	ltpFR2	10	n/a	n/a	n/a	15	10	3	5	2
2259.896	n/a	PROB	1129948	n/a	LTP327	ltpFR2	10	n/a	n/a	n/a	15	12	3	7	2
2261.212	n/a	PROB	1130606	n/a	LTP327	ltpFR2	10	n/a	n/a	n/a	15	20	2	9	9
2263.264	n/a	PROB	1131632	n/a	LTP327	ltpFR2	10	n/a	n/a	n/a	15	10	3	4	3
2264.566	n/a	PROB	1132283	n/a	LTP327	ltpFR2	10	n/a	n/a	n/a	15	13	2	7	4
2265.918	n/a	PROB	1132959	n/a	LTP327	ltpFR2	10	n/a	n/a	n/a	15	17	7	4	6
2267.786	n/a	PROB	1133893	n/a	LTP327	ltpFR2	10	n/a	n/a	n/a	15	20	9	3	8
2269.804	n/a	PROB	1134902	n/a	LTP327	ltpFR2	10	n/a	n/a	n/a	15	15	6	3	6
2271.388	n/a	PROB	1135694	n/a	LTP327	ltpFR2	10	n/a	n/a	n/a	15	26	9	8	9
2273.54	n/a	PROB	1136770	n/a	LTP327	ltpFR2	10	n/a	n/a	n/a	15	10	2	5	3
2274.892	n/a	PROB	1137446	n/a	LTP327	ltpFR2	10	n/a	n/a	n/a	15	20	9	6	5
2276.292	n/a	PROB	1138146	n/a	LTP327	ltpFR2	10	n/a	n/a	n/a	15	18	5	9	4
2278.244	n/a	PROB	1139122	n/a	LTP327	ltpFR2	10	n/a	n/a	n/a	15	11	4	6	1
2279.394	n/a	PROB	1139697	n/a	LTP327	ltpFR2	10	n/a	n/a	n/a	15	11	6	1	4
2280.558	n/a	STOP	1140279	n/a	LTP327	ltpFR2	10	n/a	n/a	n/a	15	n/a	n/a	n/a	n/a
2283.282	n/a	REC_START	1141641	n/a	LTP327	ltpFR2	10	10	n/a	n/a	n/a	n/a	0	0	0
2283.728	n/a	REC_WORD	1141864	wordpools/wasnorm_wordpool_576.txt	LTP327	ltpFR2	10	10	MILDEW	893	n/a	n/a	0	0	0
2284.964	n/a	REC_WORD	1142482	wordpools/wasnorm_wordpool_576.txt	LTP327	ltpFR2	10	10	WOMAN	1620	n/a	n/a	0	0	0
2285.888	n/a	REC_WORD	1142944	wordpools/wasnorm_wordpool_576.txt	LTP327	ltpFR2	10	10	ACTOR	5	n/a	n/a	0	0	0
2291.036	n/a	REC_WORD	1145518	wordpools/wasnorm_wordpool_576.txt	LTP327	ltpFR2	10	10	LEOPARD	812	n/a	n/a	0	0	0
2295.36	n/a	REC_WORD	1147680	wordpools/wasnorm_wordpool_576.txt	LTP327	ltpFR2	10	10	POLICE	1098	n/a	n/a	0	0	0
2297.51	n/a	REC_WORD	1148755	wordpools/wasnorm_wordpool_576.txt	LTP327	ltpFR2	10	10	GAZELLE	628	n/a	n/a	0	0	0
2299.398	n/a	REC_WORD	1149699	wordpools/wasnorm_wordpool_576.txt	LTP327	ltpFR2	10	10	PASSAGE	1019	n/a	n/a	0	0	0
2302.696	n/a	REC_WORD	1151348	wordpools/wasnorm_wordpool_576.txt	LTP327	ltpFR2	10	10	COWBOY	395	n/a	n/a	0	0	0
2303.832	n/a	REC_WORD	1151916	wordpools/wasnorm_wordpool_576.txt	LTP327	ltpFR2	10	10	COTTAGE	384	n/a	n/a	0	0	0
2304.84	n/a	REC_WORD	1152420	wordpools/wasnorm_wordpool_576.txt	LTP327	ltpFR2	10	10	SLIME	1327	n/a	n/a	0	0	0
2306.01	n/a	REC_WORD	1153005	wordpools/wasnorm_wordpool_576.txt	LTP327	ltpFR2	10	10	ROBOT	1200	n/a	n/a	0	0	0
2306.902	n/a	REC_WORD	1153451	wordpools/wasnorm_wordpool_576.txt	LTP327	ltpFR2	10	10	CHAUFFEUR	283	n/a	n/a	0	0	0
2308.058	n/a	REC_WORD	1154029	wordpools/wasnorm_wordpool_576.txt	LTP327	ltpFR2	10	10	MACHINE	852	n/a	n/a	0	0	0
2309.174	n/a	REC_WORD	1154587	wordpools/wasnorm_wordpool_576.txt	LTP327	ltpFR2	10	10	STAMP	1370	n/a	n/a	0	0	0
2310.874	n/a	REC_WORD	1155437	wordpools/wasnorm_wordpool_576.txt	LTP327	ltpFR2	10	10	FOX	598	n/a	n/a	0	0	0
2312.28	n/a	REC_WORD	1156140	wordpools/wasnorm_wordpool_576.txt	LTP327	ltpFR2	10	10	POSTAGE	1113	n/a	n/a	0	0	0
2314.418	n/a	REC_WORD	1157209	wordpools/wasnorm_wordpool_576.txt	LTP327	ltpFR2	10	10	COUSIN	392	n/a	n/a	0	0	0
2316.11	n/a	REC_WORD	1158055	wordpools/wasnorm_wordpool_576.txt	LTP327	ltpFR2	10	10	LEADER	807	n/a	n/a	0	0	0
2326.552	n/a	REC_WORD	1163276	wordpools/wasnorm_wordpool_576.txt	LTP327	ltpFR2	10	10	SALT	1229	n/a	n/a	0	0	0
2327.504	n/a	REC_WORD	1163752	wordpools/wasnorm_wordpool_576.txt	LTP327	ltpFR2	10	10	BARLEY	88	n/a	n/a	0	0	0
2374.01	n/a	WORD	1187005	wordpools/wasnorm_wordpool_576.txt	LTP327	ltpFR2	10	11	LUGGAGE	847	n/a	n/a	0	0	0
2376.476	n/a	WORD	1188238	wordpools/wasnorm_wordpool_576.txt	LTP327	ltpFR2	10	11	CURTAIN	427	n/a	n/a	0	0	0
2379.196	n/a	WORD	1189598	wordpools/wasnorm_wordpool_576.txt	LTP327	ltpFR2	10	11	CYCLONE	431	n/a	n/a	0	0	0
2381.682	n/a	WORD	1190841	wordpools/wasnorm_wordpool_576.txt	LTP327	ltpFR2	10	11	DONKEY	484	n/a	n/a	0	0	0
2384.5	n/a	WORD	1192250	wordpools/wasnorm_wordpool_576.txt	LTP327	ltpFR2	10	11	SNAIL	1332	n/a	n/a	0	0	0
2387.02	n/a	WORD	1193510	wordpools/wasnorm_wordpool_576.txt	LTP327	ltpFR2	10	11	ONION	977	n/a	n/a	0	0	0
2389.538	n/a	WORD	1194769	wordpools/wasnorm_wordpool_576.txt	LTP327	ltpFR2	10	11	GHETTO	633	n/a	n/a	0	0	0
2391.974	n/a	WORD	1195987	wordpools/wasnorm_wordpool_576.txt	LTP327	ltpFR2	10	11	FRUIT	610	n/a	n/a	0	0	0
2394.51	n/a	WORD	1197255	wordpools/wasnorm_wordpool_576.txt	LTP327	ltpFR2	10	11	TORTOISE	1486	n/a	n/a	0	0	0
2397.13	n/a	WORD	1198565	wordpools/wasnorm_wordpool_576.txt	LTP327	ltpFR2	10	11	WIFE	1609	n/a	n/a	0	0	0
2399.88	n/a	WORD	1199940	wordpools/wasnorm_wordpool_576.txt	LTP327	ltpFR2	10	11	BADGE	68	n/a	n/a	0	0	0
2402.7	n/a	WORD	1201350	wordpools/wasnorm_wordpool_576.txt	LTP327	ltpFR2	10	11	COUNTY	389	n/a	n/a	0	0	0
2405.434	n/a	WORD	1202717	wordpools/wasnorm_wordpool_576.txt	LTP327	ltpFR2	10	11	SLIDE	1326	n/a	n/a	0	0	0
2407.838	n/a	WORD	1203919	wordpools/wasnorm_wordpool_576.txt	LTP327	ltpFR2	10	11	DRESS	495	n/a	n/a	0	0	0
2410.356	n/a	WORD	1205178	wordpools/wasnorm_wordpool_576.txt	LTP327	ltpFR2	10	11	JOURNAL	760	n/a	n/a	0	0	0
2413.008	n/a	WORD	1206504	wordpools/wasnorm_wordpool_576.txt	LTP327	ltpFR2	10	11	AUTHOR	61	n/a	n/a	0	0	0
2415.644	n/a	WORD	1207822	wordpools/wasnorm_wordpool_576.txt	LTP327	ltpFR2	10	11	BEEF	113	n/a	n/a	0	0	0
2418.446	n/a	WORD	1209223	wordpools/wasnorm_wordpool_576.txt	LTP327	ltpFR2	10	11	CATTLE	261	n/a	n/a	0	0	0
2420.882	n/a	WORD	1210441	wordpools/wasnorm_wordpool_576.txt	LTP327	ltpFR2	10	11	BRANDY	169	n/a	n/a	0	0	0
2423.568	n/a	WORD	1211784	wordpools/wasnorm_wordpool_576.txt	LTP327	ltpFR2	10	11	RIVER	1194	n/a	n/a	0	0	0
2426.02	n/a	WORD	1213010	wordpools/wasnorm_wordpool_576.txt	LTP327	ltpFR2	10	11	MARROW	872	n/a	n/a	0	0	0
2428.504	n/a	WORD	1214252	wordpools/wasnorm_wordpool_576.txt	LTP327	ltpFR2	10	11	SHIRT	1287	n/a	n/a	0	0	0
2431.224	n/a	WORD	1215612	wordpools/wasnorm_wordpool_576.txt	LTP327	ltpFR2	10	11	ATLAS	53	n/a	n/a	0	0	0
2433.96	n/a	WORD	1216980	wordpools/wasnorm_wordpool_576.txt	LTP327	ltpFR2	10	11	OUTDOORS	987	n/a	n/a	0	0	0
2435.578	n/a	START	1217789	n/a	LTP327	ltpFR2	10	n/a	n/a	n/a	16	n/a	n/a	n/a	n/a
2436.392	n/a	DISTRACTOR	1218196	n/a	LTP327	ltpFR2	10	11	n/a	n/a	n/a	n/a	0	0	0
2436.412	n/a	PROB	1218206	n/a	LTP327	ltpFR2	10	n/a	n/a	n/a	16	23	6	8	9
2438.114	n/a	PROB	1219057	n/a	LTP327	ltpFR2	10	n/a	n/a	n/a	16	20	8	9	3
2439.58	n/a	PROB	1219790	n/a	LTP327	ltpFR2	10	n/a	n/a	n/a	16	11	3	4	4
2441.198	n/a	PROB	1220599	n/a	LTP327	ltpFR2	10	n/a	n/a	n/a	16	18	6	9	3
2443.0	n/a	PROB	1221500	n/a	LTP327	ltpFR2	10	n/a	n/a	n/a	16	20	6	7	7
2444.534	n/a	PROB	1222267	n/a	LTP327	ltpFR2	10	n/a	n/a	n/a	16	17	2	8	7
2445.754	n/a	PROB	1222877	n/a	LTP327	ltpFR2	10	n/a	n/a	n/a	16	10	1	6	3
2448.038	n/a	PROB	1224019	n/a	LTP327	ltpFR2	10	n/a	n/a	n/a	16	15	4	6	5
2449.438	n/a	PROB	1224719	n/a	LTP327	ltpFR2	10	n/a	n/a	n/a	16	16	7	3	3
2450.522	n/a	PROB	1225261	n/a	LTP327	ltpFR2	10	n/a	n/a	n/a	16	22	7	8	8
2453.944	n/a	PROB	1226972	n/a	LTP327	ltpFR2	10	n/a	n/a	n/a	16	8	3	3	2
2455.244	n/a	PROB	1227622	n/a	LTP327	ltpFR2	10	n/a	n/a	n/a	16	16	8	4	4
2456.578	n/a	PROB	1228289	n/a	LTP327	ltpFR2	10	n/a	n/a	n/a	16	15	3	8	4
2458.226	n/a	STOP	1229113	n/a	LTP327	ltpFR2	10	n/a	n/a	n/a	16	n/a	n/a	n/a	n/a
2461.366	n/a	REC_START	1230683	n/a	LTP327	ltpFR2	10	11	n/a	n/a	n/a	n/a	0	0	0
2461.676	n/a	REC_WORD	1230838	wordpools/wasnorm_wordpool_576.txt	LTP327	ltpFR2	10	11	RIVER	1194	n/a	n/a	0	0	0
2462.55	n/a	REC_WORD	1231275	wordpools/wasnorm_wordpool_576.txt	LTP327	ltpFR2	10	11	MARROW	872	n/a	n/a	0	0	0
2463.704	n/a	REC_WORD	1231852	wordpools/wasnorm_wordpool_576.txt	LTP327	ltpFR2	10	11	OUTDOORS	987	n/a	n/a	0	0	0
2465.58	n/a	REC_WORD	1232790	wordpools/wasnorm_wordpool_576.txt	LTP327	ltpFR2	10	11	ATLAS	53	n/a	n/a	0	0	0
2467.442	n/a	REC_WORD	1233721	wordpools/wasnorm_wordpool_576.txt	LTP327	ltpFR2	10	11	SHIRT	1287	n/a	n/a	0	0	0
2468.296	n/a	REC_WORD	1234148	wordpools/wasnorm_wordpool_576.txt	LTP327	ltpFR2	10	11	DRESS	495	n/a	n/a	0	0	0
2469.144	n/a	REC_WORD	1234572	wordpools/wasnorm_wordpool_576.txt	LTP327	ltpFR2	10	11	SLIDE	1326	n/a	n/a	0	0	0
2470.376	n/a	REC_WORD	1235188	wordpools/wasnorm_wordpool_576.txt	LTP327	ltpFR2	10	11	AUTHOR	61	n/a	n/a	0	0	0
2471.614	n/a	REC_WORD	1235807	wordpools/wasnorm_wordpool_576.txt	LTP327	ltpFR2	10	11	COUNTY	389	n/a	n/a	0	0	0
2473.016	n/a	REC_WORD	1236508	wordpools/wasnorm_wordpool_576.txt	LTP327	ltpFR2	10	11	BADGE	68	n/a	n/a	0	0	0
2477.39	n/a	REC_WORD	1238695	wordpools/wasnorm_wordpool_576.txt	LTP327	ltpFR2	10	11	CURTAIN	427	n/a	n/a	0	0	0
2478.416	n/a	REC_WORD	1239208	wordpools/wasnorm_wordpool_576.txt	LTP327	ltpFR2	10	11	LUGGAGE	847	n/a	n/a	0	0	0
2479.366	n/a	REC_WORD	1239683	wordpools/wasnorm_wordpool_576.txt	LTP327	ltpFR2	10	11	CYCLONE	431	n/a	n/a	0	0	0
2481.37	n/a	REC_WORD	1240685	wordpools/wasnorm_wordpool_576.txt	LTP327	ltpFR2	10	11	ONION	977	n/a	n/a	0	0	0
2482.252	n/a	REC_WORD	1241126	wordpools/wasnorm_wordpool_576.txt	LTP327	ltpFR2	10	11	FRUIT	610	n/a	n/a	0	0	0
2483.446	n/a	REC_WORD	1241723	wordpools/wasnorm_wordpool_576.txt	LTP327	ltpFR2	10	11	GHETTO	633	n/a	n/a	0	0	0
2485.178	n/a	REC_WORD	1242589	wordpools/wasnorm_wordpool_576.txt	LTP327	ltpFR2	10	11	SNAIL	1332	n/a	n/a	0	0	0
2498.102	n/a	REC_WORD	1249051	wordpools/wasnorm_wordpool_576.txt	LTP327	ltpFR2	10	11	BEEF	113	n/a	n/a	0	0	0
2498.858	n/a	REC_WORD	1249429	wordpools/wasnorm_wordpool_576.txt	LTP327	ltpFR2	10	11	CATTLE	261	n/a	n/a	0	0	0
2504.496	n/a	REC_WORD	1252248	wordpools/wasnorm_wordpool_576.txt	LTP327	ltpFR2	10	11	TORTOISE	1486	n/a	n/a	0	0	0
2507.55	n/a	REC_WORD	1253775	wordpools/wasnorm_wordpool_576.txt	LTP327	ltpFR2	10	11	FRUIT	610	n/a	n/a	0	0	0
2512.518	n/a	REC_WORD	1256259	wordpools/wasnorm_wordpool_576.txt	LTP327	ltpFR2	10	11	WIFE	1609	n/a	n/a	0	0	0
2523.06	n/a	REC_WORD	1261530	wordpools/wasnorm_wordpool_576.txt	LTP327	ltpFR2	10	11	BRANDY	169	n/a	n/a	0	0	0
2534.304	n/a	REC_WORD	1267152	wordpools/wasnorm_wordpool_576.txt	LTP327	ltpFR2	10	11	JOURNAL	760	n/a	n/a	0	0	0
2551.994	n/a	DISTRACTOR	1275997	n/a	LTP327	ltpFR2	10	12	n/a	n/a	n/a	n/a	0	0	0
2551.994	n/a	START	1275997	n/a	LTP327	ltpFR2	10	n/a	n/a	n/a	17	n/a	n/a	n/a	n/a
2552.028	n/a	PROB	1276014	n/a	LTP327	ltpFR2	10	n/a	n/a	n/a	17	12	7	4	1
2553.796	n/a	PROB	1276898	n/a	LTP327	ltpFR2	10	n/a	n/a	n/a	17	6	1	3	2
2555.08	n/a	PROB	1277540	n/a	LTP327	ltpFR2	10	n/a	n/a	n/a	17	15	6	7	2
2556.764	n/a	PROB	1278382	n/a	LTP327	ltpFR2	10	n/a	n/a	n/a	17	14	8	4	2
2557.982	n/a	PROB	1278991	n/a	LTP327	ltpFR2	10	n/a	n/a	n/a	17	17	7	8	2
2559.5	n/a	PROB	1279750	n/a	LTP327	ltpFR2	10	n/a	n/a	n/a	17	16	4	6	6
2560.752	n/a	PROB	1280376	n/a	LTP327	ltpFR2	10	n/a	n/a	n/a	17	15	3	6	6
2562.484	n/a	PROB	1281242	n/a	LTP327	ltpFR2	10	n/a	n/a	n/a	17	10	4	4	2
2564.92	n/a	PROB	1282460	n/a	LTP327	ltpFR2	10	n/a	n/a	n/a	17	12	3	2	7
2566.138	n/a	PROB	1283069	n/a	LTP327	ltpFR2	10	n/a	n/a	n/a	17	21	8	7	6
2569.174	n/a	PROB	1284587	n/a	LTP327	ltpFR2	10	n/a	n/a	n/a	17	17	5	4	8
2570.676	n/a	PROB	1285338	n/a	LTP327	ltpFR2	10	n/a	n/a	n/a	17	7	1	1	5
2571.826	n/a	PROB	1285913	n/a	LTP327	ltpFR2	10	n/a	n/a	n/a	17	26	8	9	9
2573.378	n/a	PROB	1286689	n/a	LTP327	ltpFR2	10	n/a	n/a	n/a	17	14	2	9	3
2574.74	n/a	STOP	1287370	n/a	LTP327	ltpFR2	10	n/a	n/a	n/a	17	n/a	n/a	n/a	n/a
2576.864	n/a	WORD	1288432	wordpools/wasnorm_wordpool_576.txt	LTP327	ltpFR2	10	12	BUREAU	199	n/a	n/a	0	0	0
2579.632	n/a	WORD	1289816	wordpools/wasnorm_wordpool_576.txt	LTP327	ltpFR2	10	12	POLICE	1098	n/a	n/a	0	0	0
2582.252	n/a	WORD	1291126	wordpools/wasnorm_wordpool_576.txt	LTP327	ltpFR2	10	12	AWARD	63	n/a	n/a	0	0	0
2584.938	n/a	WORD	1292469	wordpools/wasnorm_wordpool_576.txt	LTP327	ltpFR2	10	12	KNIFE	785	n/a	n/a	0	0	0
2587.708	n/a	WORD	1293854	wordpools/wasnorm_wordpool_576.txt	LTP327	ltpFR2	10	12	DAISY	435	n/a	n/a	0	0	0
2590.358	n/a	WORD	1295179	wordpools/wasnorm_wordpool_576.txt	LTP327	ltpFR2	10	12	HIKER	708	n/a	n/a	0	0	0
2593.178	n/a	WORD	1296589	wordpools/wasnorm_wordpool_576.txt	LTP327	ltpFR2	10	12	LAPEL	800	n/a	n/a	0	0	0
2595.664	n/a	WORD	1297832	wordpools/wasnorm_wordpool_576.txt	LTP327	ltpFR2	10	12	GYMNAST	675	n/a	n/a	0	0	0
2598.366	n/a	WORD	1299183	wordpools/wasnorm_wordpool_576.txt	LTP327	ltpFR2	10	12	THREAD	1460	n/a	n/a	0	0	0
2601.202	n/a	WORD	1300601	wordpools/wasnorm_wordpool_576.txt	LTP327	ltpFR2	10	12	BRICK	172	n/a	n/a	0	0	0
2603.686	n/a	WORD	1301843	wordpools/wasnorm_wordpool_576.txt	LTP327	ltpFR2	10	12	CABIN	211	n/a	n/a	0	0	0
2606.338	n/a	WORD	1303169	wordpools/wasnorm_wordpool_576.txt	LTP327	ltpFR2	10	12	SPOOL	1356	n/a	n/a	0	0	0
2608.792	n/a	WORD	1304396	wordpools/wasnorm_wordpool_576.txt	LTP327	ltpFR2	10	12	KEEPER	769	n/a	n/a	0	0	0
2611.41	n/a	WORD	1305705	wordpools/wasnorm_wordpool_576.txt	LTP327	ltpFR2	10	12	PLAID	1080	n/a	n/a	0	0	0
2614.228	n/a	WORD	1307114	wordpools/wasnorm_wordpool_576.txt	LTP327	ltpFR2	10	12	SPOUSE	1358	n/a	n/a	0	0	0
2616.948	n/a	WORD	1308474	wordpools/wasnorm_wordpool_576.txt	LTP327	ltpFR2	10	12	XEROX	1628	n/a	n/a	0	0	0
2619.734	n/a	WORD	1309867	wordpools/wasnorm_wordpool_576.txt	LTP327	ltpFR2	10	12	COMPASS	358	n/a	n/a	0	0	0
2622.518	n/a	WORD	1311259	wordpools/wasnorm_wordpool_576.txt	LTP327	ltpFR2	10	12	JELLY	755	n/a	n/a	0	0	0
2625.204	n/a	WORD	1312602	wordpools/wasnorm_wordpool_576.txt	LTP327	ltpFR2	10	12	WASP	1593	n/a	n/a	0	0	0
2627.774	n/a	WORD	1313887	wordpools/wasnorm_wordpool_576.txt	LTP327	ltpFR2	10	12	FIDDLE	561	n/a	n/a	0	0	0
2630.292	n/a	WORD	1315146	wordpools/wasnorm_wordpool_576.txt	LTP327	ltpFR2	10	12	HARP	689	n/a	n/a	0	0	0
2632.828	n/a	WORD	1316414	wordpools/wasnorm_wordpool_576.txt	LTP327	ltpFR2	10	12	ANTLER	29	n/a	n/a	0	0	0
2635.546	n/a	WORD	1317773	wordpools/wasnorm_wordpool_576.txt	LTP327	ltpFR2	10	12	TRIBE	1505	n/a	n/a	0	0	0
2638.366	n/a	WORD	1319183	wordpools/wasnorm_wordpool_576.txt	LTP327	ltpFR2	10	12	NOMAD	955	n/a	n/a	0	0	0
2639.986	n/a	START	1319993	n/a	LTP327	ltpFR2	10	n/a	n/a	n/a	18	n/a	n/a	n/a	n/a
2641.076	n/a	DISTRACTOR	1320538	n/a	LTP327	ltpFR2	10	12	n/a	n/a	n/a	n/a	0	0	0
2641.102	n/a	PROB	1320551	n/a	LTP327	ltpFR2	10	n/a	n/a	n/a	18	19	4	9	6
2643.452	n/a	PROB	1321726	n/a	LTP327	ltpFR2	10	n/a	n/a	n/a	18	17	2	9	6
2644.938	n/a	PROB	1322469	n/a	LTP327	ltpFR2	10	n/a	n/a	n/a	18	13	3	8	2
2646.572	n/a	PROB	1323286	n/a	LTP327	ltpFR2	10	n/a	n/a	n/a	18	15	5	6	4
2647.808	n/a	PROB	1323904	n/a	LTP327	ltpFR2	10	n/a	n/a	n/a	18	14	9	2	3
2649.076	n/a	PROB	1324538	n/a	LTP327	ltpFR2	10	n/a	n/a	n/a	18	12	6	3	3
2650.726	n/a	PROB	1325363	n/a	LTP327	ltpFR2	10	n/a	n/a	n/a	18	14	9	3	2
2652.41	n/a	PROB	1326205	n/a	LTP327	ltpFR2	10	n/a	n/a	n/a	18	23	4	9	9
2654.03	n/a	PROB	1327015	n/a	LTP327	ltpFR2	10	n/a	n/a	n/a	18	17	7	8	2
2655.63	n/a	PROB	1327815	n/a	LTP327	ltpFR2	10	n/a	n/a	n/a	18	20	6	5	9
2656.966	n/a	PROB	1328483	n/a	LTP327	ltpFR2	10	n/a	n/a	n/a	18	12	6	2	4
2658.366	n/a	PROB	1329183	n/a	LTP327	ltpFR2	10	n/a	n/a	n/a	18	15	3	8	4
2659.734	n/a	PROB	1329867	n/a	LTP327	ltpFR2	10	n/a	n/a	n/a	18	19	7	7	5
2663.984	n/a	STOP	1331992	n/a	LTP327	ltpFR2	10	n/a	n/a	n/a	18	n/a	n/a	n/a	n/a
2665.756	n/a	REC_START	1332878	n/a	LTP327	ltpFR2	10	12	n/a	n/a	n/a	n/a	0	0	0
2668.416	n/a	REC_WORD	1334208	wordpools/wasnorm_wordpool_576.txt	LTP327	ltpFR2	10	12	NOMAD	955	n/a	n/a	0	0	0
2669.578	n/a	REC_WORD	1334789	wordpools/wasnorm_wordpool_576.txt	LTP327	ltpFR2	10	12	TRIBE	1505	n/a	n/a	0	0	0
2670.87	n/a	REC_WORD	1335435	wordpools/wasnorm_wordpool_576.txt	LTP327	ltpFR2	10	12	JELLY	755	n/a	n/a	0	0	0
2672.004	n/a	REC_WORD	1336002	wordpools/wasnorm_wordpool_576.txt	LTP327	ltpFR2	10	12	WASP	1593	n/a	n/a	0	0	0
2673.252	n/a	REC_WORD	1336626	wordpools/wasnorm_wordpool_576.txt	LTP327	ltpFR2	10	12	ANTLER	29	n/a	n/a	0	0	0
2676.496	n/a	REC_WORD	1338248	wordpools/wasnorm_wordpool_576.txt	LTP327	ltpFR2	10	12	COMPASS	358	n/a	n/a	0	0	0
2678.06	n/a	REC_WORD	1339030	wordpools/wasnorm_wordpool_576.txt	LTP327	ltpFR2	10	12	HARP	689	n/a	n/a	0	0	0
2679.13	n/a	REC_WORD	1339565	wordpools/wasnorm_wordpool_576.txt	LTP327	ltpFR2	10	12	FIDDLE	561	n/a	n/a	0	0	0
2682.798	n/a	REC_WORD	1341399	wordpools/wasnorm_wordpool_576.txt	LTP327	ltpFR2	10	12	XEROX	1628	n/a	n/a	0	0	0
2684.038	n/a	REC_WORD	1342019	wordpools/wasnorm_wordpool_576.txt	LTP327	ltpFR2	10	12	SPOUSE	1358	n/a	n/a	0	0	0
2685.942	n/a	REC_WORD	1342971	wordpools/wasnorm_wordpool_576.txt	LTP327	ltpFR2	10	12	LAPEL	800	n/a	n/a	0	0	0
2687.074	n/a	REC_WORD	1343537	wordpools/wasnorm_wordpool_576.txt	LTP327	ltpFR2	10	12	KNIFE	785	n/a	n/a	0	0	0
2688.148	n/a	REC_WORD	1344074	wordpools/wasnorm_wordpool_576.txt	LTP327	ltpFR2	10	12	AWARD	63	n/a	n/a	0	0	0
2689.33	n/a	REC_WORD	1344665	wordpools/wasnorm_wordpool_576.txt	LTP327	ltpFR2	10	12	POLICE	1098	n/a	n/a	0	0	0
2690.416	n/a	REC_WORD	1345208	wordpools/wasnorm_wordpool_576.txt	LTP327	ltpFR2	10	12	BUREAU	199	n/a	n/a	0	0	0
2692.574	n/a	REC_WORD	1346287	wordpools/wasnorm_wordpool_576.txt	LTP327	ltpFR2	10	12	CABIN	211	n/a	n/a	0	0	0
2695.174	n/a	REC_WORD	1347587	wordpools/wasnorm_wordpool_576.txt	LTP327	ltpFR2	10	12	KEEPER	769	n/a	n/a	0	0	0
2705.35	n/a	REC_WORD	1352675	wordpools/wasnorm_wordpool_576.txt	LTP327	ltpFR2	10	12	LILY	821	n/a	n/a	0	0	0
2706.45	n/a	REC_WORD	1353225	wordpools/wasnorm_wordpool_576.txt	LTP327	ltpFR2	10	12	GYMNAST	675	n/a	n/a	0	0	0
2707.354	n/a	REC_WORD	1353677	wordpools/wasnorm_wordpool_576.txt	LTP327	ltpFR2	10	12	SPOOL	1356	n/a	n/a	0	0	0
2708.536	n/a	REC_WORD	1354268	wordpools/wasnorm_wordpool_576.txt	LTP327	ltpFR2	10	12	THREAD	1460	n/a	n/a	0	0	0
2709.486	n/a	REC_WORD	1354743	wordpools/wasnorm_wordpool_576.txt	LTP327	ltpFR2	10	12	BRICK	172	n/a	n/a	0	0	0
2756.25	n/a	DISTRACTOR	1378125	n/a	LTP327	ltpFR2	10	13	n/a	n/a	n/a	n/a	0	0	0
2756.25	n/a	START	1378125	n/a	LTP327	ltpFR2	10	n/a	n/a	n/a	19	n/a	n/a	n/a	n/a
2756.282	n/a	PROB	1378141	n/a	LTP327	ltpFR2	10	n/a	n/a	n/a	19	14	4	5	5
2757.834	n/a	PROB	1378917	n/a	LTP327	ltpFR2	10	n/a	n/a	n/a	19	16	8	3	5
2759.052	n/a	PROB	1379526	n/a	LTP327	ltpFR2	10	n/a	n/a	n/a	19	18	4	9	5
2761.304	n/a	PROB	1380652	n/a	LTP327	ltpFR2	10	n/a	n/a	n/a	19	13	3	2	8
2762.472	n/a	PROB	1381236	n/a	LTP327	ltpFR2	10	n/a	n/a	n/a	19	9	5	1	3
2763.856	n/a	PROB	1381928	n/a	LTP327	ltpFR2	10	n/a	n/a	n/a	19	14	2	8	4
2765.156	n/a	PROB	1382578	n/a	LTP327	ltpFR2	10	n/a	n/a	n/a	19	6	1	4	1
2766.158	n/a	PROB	1383079	n/a	LTP327	ltpFR2	10	n/a	n/a	n/a	19	14	9	1	4
2767.408	n/a	PROB	1383704	n/a	LTP327	ltpFR2	10	n/a	n/a	n/a	19	15	5	7	3
2769.442	n/a	PROB	1384721	n/a	LTP327	ltpFR2	10	n/a	n/a	n/a	19	16	7	3	6
2770.694	n/a	PROB	1385347	n/a	LTP327	ltpFR2	10	n/a	n/a	n/a	19	9	7	1	1
2771.796	n/a	PROB	1385898	n/a	LTP327	ltpFR2	10	n/a	n/a	n/a	19	13	5	5	3
2772.946	n/a	PROB	1386473	n/a	LTP327	ltpFR2	10	n/a	n/a	n/a	19	20	9	9	2
2774.414	n/a	PROB	1387207	n/a	LTP327	ltpFR2	10	n/a	n/a	n/a	19	13	4	7	2
2776.034	n/a	PROB	1388017	n/a	LTP327	ltpFR2	10	n/a	n/a	n/a	19	12	6	3	3
2777.2	n/a	PROB	1388600	n/a	LTP327	ltpFR2	10	n/a	n/a	n/a	19	16	2	9	5
2778.468	n/a	PROB	1389234	n/a	LTP327	ltpFR2	10	n/a	n/a	n/a	19	11	5	1	5
2779.622	n/a	STOP	1389811	n/a	LTP327	ltpFR2	10	n/a	n/a	n/a	19	n/a	n/a	n/a	n/a
2781.47	n/a	WORD	1390735	wordpools/wasnorm_wordpool_576.txt	LTP327	ltpFR2	10	13	CRITIC	410	n/a	n/a	0	0	0
2783.99	n/a	WORD	1391995	wordpools/wasnorm_wordpool_576.txt	LTP327	ltpFR2	10	13	WHISKERS	1605	n/a	n/a	0	0	0
2786.742	n/a	WORD	1393371	wordpools/wasnorm_wordpool_576.txt	LTP327	ltpFR2	10	13	THRONE	1461	n/a	n/a	0	0	0
2789.41	n/a	WORD	1394705	wordpools/wasnorm_wordpool_576.txt	LTP327	ltpFR2	10	13	MUSTARD	935	n/a	n/a	0	0	0
2792.08	n/a	WORD	1396040	wordpools/wasnorm_wordpool_576.txt	LTP327	ltpFR2	10	13	PORK	1108	n/a	n/a	0	0	0
2794.598	n/a	WORD	1397299	wordpools/wasnorm_wordpool_576.txt	LTP327	ltpFR2	10	13	SAUSAGE	1238	n/a	n/a	0	0	0
2797.102	n/a	WORD	1398551	wordpools/wasnorm_wordpool_576.txt	LTP327	ltpFR2	10	13	TWEEZERS	1526	n/a	n/a	0	0	0
2799.82	n/a	WORD	1399910	wordpools/wasnorm_wordpool_576.txt	LTP327	ltpFR2	10	13	EAGLE	512	n/a	n/a	0	0	0
2802.488	n/a	WORD	1401244	wordpools/wasnorm_wordpool_576.txt	LTP327	ltpFR2	10	13	LAVA	804	n/a	n/a	0	0	0
2805.14	n/a	WORD	1402570	wordpools/wasnorm_wordpool_576.txt	LTP327	ltpFR2	10	13	IDOL	733	n/a	n/a	0	0	0
2807.794	n/a	WORD	1403897	wordpools/wasnorm_wordpool_576.txt	LTP327	ltpFR2	10	13	SADDLE	1221	n/a	n/a	0	0	0
2810.562	n/a	WORD	1405281	wordpools/wasnorm_wordpool_576.txt	LTP327	ltpFR2	10	13	PEDAL	1037	n/a	n/a	0	0	0
2813.048	n/a	WORD	1406524	wordpools/wasnorm_wordpool_576.txt	LTP327	ltpFR2	10	13	CRICKET	408	n/a	n/a	0	0	0
2815.834	n/a	WORD	1407917	wordpools/wasnorm_wordpool_576.txt	LTP327	ltpFR2	10	13	DRINK	498	n/a	n/a	0	0	0
2818.634	n/a	WORD	1409317	wordpools/wasnorm_wordpool_576.txt	LTP327	ltpFR2	10	13	TERMITE	1451	n/a	n/a	0	0	0
2821.072	n/a	WORD	1410536	wordpools/wasnorm_wordpool_576.txt	LTP327	ltpFR2	10	13	FIREPLACE	570	n/a	n/a	0	0	0
2823.774	n/a	WORD	1411887	wordpools/wasnorm_wordpool_576.txt	LTP327	ltpFR2	10	13	TUBA	1515	n/a	n/a	0	0	0
2826.392	n/a	WORD	1413196	wordpools/wasnorm_wordpool_576.txt	LTP327	ltpFR2	10	13	ORCHID	982	n/a	n/a	0	0	0
2828.962	n/a	WORD	1414481	wordpools/wasnorm_wordpool_576.txt	LTP327	ltpFR2	10	13	LILY	821	n/a	n/a	0	0	0
2831.664	n/a	WORD	1415832	wordpools/wasnorm_wordpool_576.txt	LTP327	ltpFR2	10	13	MONSTER	912	n/a	n/a	0	0	0
2834.416	n/a	WORD	1417208	wordpools/wasnorm_wordpool_576.txt	LTP327	ltpFR2	10	13	UNCLE	1536	n/a	n/a	0	0	0
2837.184	n/a	WORD	1418592	wordpools/wasnorm_wordpool_576.txt	LTP327	ltpFR2	10	13	CABBAGE	210	n/a	n/a	0	0	0
2839.754	n/a	WORD	1419877	wordpools/wasnorm_wordpool_576.txt	LTP327	ltpFR2	10	13	FOREHEAD	592	n/a	n/a	0	0	0
2842.438	n/a	WORD	1421219	wordpools/wasnorm_wordpool_576.txt	LTP327	ltpFR2	10	13	BUG	187	n/a	n/a	0	0	0
2844.058	n/a	START	1422029	n/a	LTP327	ltpFR2	10	n/a	n/a	n/a	20	n/a	n/a	n/a	n/a
2844.974	n/a	DISTRACTOR	1422487	n/a	LTP327	ltpFR2	10	13	n/a	n/a	n/a	n/a	0	0	0
2844.992	n/a	PROB	1422496	n/a	LTP327	ltpFR2	10	n/a	n/a	n/a	20	14	6	6	2
2846.408	n/a	PROB	1423204	n/a	LTP327	ltpFR2	10	n/a	n/a	n/a	20	18	4	6	8
2847.826	n/a	PROB	1423913	n/a	LTP327	ltpFR2	10	n/a	n/a	n/a	20	15	2	7	6
2849.244	n/a	PROB	1424622	n/a	LTP327	ltpFR2	10	n/a	n/a	n/a	20	17	9	2	6
2850.712	n/a	PROB	1425356	n/a	LTP327	ltpFR2	10	n/a	n/a	n/a	20	19	8	7	4
2852.03	n/a	PROB	1426015	n/a	LTP327	ltpFR2	10	n/a	n/a	n/a	20	4	1	1	2
2853.082	n/a	PROB	1426541	n/a	LTP327	ltpFR2	10	n/a	n/a	n/a	20	19	8	3	8
2854.364	n/a	PROB	1427182	n/a	LTP327	ltpFR2	10	n/a	n/a	n/a	20	19	2	8	9
2855.75	n/a	PROB	1427875	n/a	LTP327	ltpFR2	10	n/a	n/a	n/a	20	18	4	8	6
2857.584	n/a	PROB	1428792	n/a	LTP327	ltpFR2	10	n/a	n/a	n/a	20	13	2	6	5
2858.904	n/a	PROB	1429452	n/a	LTP327	ltpFR2	10	n/a	n/a	n/a	20	13	6	1	6
2860.22	n/a	PROB	1430110	n/a	LTP327	ltpFR2	10	n/a	n/a	n/a	20	15	2	5	8
2861.538	n/a	PROB	1430769	n/a	LTP327	ltpFR2	10	n/a	n/a	n/a	20	19	9	2	8
2862.806	n/a	PROB	1431403	n/a	LTP327	ltpFR2	10	n/a	n/a	n/a	20	24	9	6	9
2864.374	n/a	PROB	1432187	n/a	LTP327	ltpFR2	10	n/a	n/a	n/a	20	12	4	5	3
2865.676	n/a	PROB	1432838	n/a	LTP327	ltpFR2	10	n/a	n/a	n/a	20	17	5	3	9
2867.122	n/a	STOP	1433561	n/a	LTP327	ltpFR2	10	n/a	n/a	n/a	20	n/a	n/a	n/a	n/a
2869.896	n/a	REC_START	1434948	n/a	LTP327	ltpFR2	10	13	n/a	n/a	n/a	n/a	0	0	0
2871.148	n/a	REC_WORD	1435574	wordpools/wasnorm_wordpool_576.txt	LTP327	ltpFR2	10	13	CABBAGE	210	n/a	n/a	0	0	0
2872.032	n/a	REC_WORD	1436016	wordpools/wasnorm_wordpool_576.txt	LTP327	ltpFR2	10	13	FOREHEAD	592	n/a	n/a	0	0	0
2873.128	n/a	REC_WORD	1436564	wordpools/wasnorm_wordpool_576.txt	LTP327	ltpFR2	10	13	UNCLE	1536	n/a	n/a	0	0	0
2874.104	n/a	REC_WORD	1437052	wordpools/wasnorm_wordpool_576.txt	LTP327	ltpFR2	10	13	MONSTER	912	n/a	n/a	0	0	0
2875.342	n/a	REC_WORD	1437671	wordpools/wasnorm_wordpool_576.txt	LTP327	ltpFR2	10	13	BUG	187	n/a	n/a	0	0	0
2876.59	n/a	REC_WORD	1438295	wordpools/wasnorm_wordpool_576.txt	LTP327	ltpFR2	10	13	THRONE	1461	n/a	n/a	0	0	0
2877.914	n/a	REC_WORD	1438957	wordpools/wasnorm_wordpool_576.txt	LTP327	ltpFR2	10	13	MUSTARD	935	n/a	n/a	0	0	0
2879.07	n/a	REC_WORD	1439535	wordpools/wasnorm_wordpool_576.txt	LTP327	ltpFR2	10	13	PORK	1108	n/a	n/a	0	0	0
2879.996	n/a	REC_WORD	1439998	wordpools/wasnorm_wordpool_576.txt	LTP327	ltpFR2	10	13	SAUSAGE	1238	n/a	n/a	0	0	0
2881.046	n/a	REC_WORD	1440523	wordpools/wasnorm_wordpool_576.txt	LTP327	ltpFR2	10	13	WHISKERS	1605	n/a	n/a	0	0	0
2882.216	n/a	REC_WORD	1441108	wordpools/wasnorm_wordpool_576.txt	LTP327	ltpFR2	10	13	CRITIC	410	n/a	n/a	0	0	0
2883.312	n/a	REC_WORD	1441656	wordpools/wasnorm_wordpool_576.txt	LTP327	ltpFR2	10	13	IDOL	733	n/a	n/a	0	0	0
2893.9	n/a	REC_WORD	1446950	wordpools/wasnorm_wordpool_576.txt	LTP327	ltpFR2	10	13	TWEEZERS	1526	n/a	n/a	0	0	0
2897.132	n/a	REC_WORD	1448566	wordpools/wasnorm_wordpool_576.txt	LTP327	ltpFR2	10	13	SADDLE	1221	n/a	n/a	0	0	0
2899.786	n/a	REC_WORD	1449893	wordpools/wasnorm_wordpool_576.txt	LTP327	ltpFR2	10	13	PEDAL	1037	n/a	n/a	0	0	0
2900.752	n/a	REC_WORD	1450376	wordpools/wasnorm_wordpool_576.txt	LTP327	ltpFR2	10	13	DRINK	498	n/a	n/a	0	0	0
2901.778	n/a	REC_WORD	1450889	wordpools/wasnorm_wordpool_576.txt	LTP327	ltpFR2	10	13	TERMITE	1451	n/a	n/a	0	0	0
2902.794	n/a	REC_WORD	1451397	wordpools/wasnorm_wordpool_576.txt	LTP327	ltpFR2	10	13	CRICKET	408	n/a	n/a	0	0	0
2904.518	n/a	REC_WORD	1452259	wordpools/wasnorm_wordpool_576.txt	LTP327	ltpFR2	10	13	FIREPLACE	570	n/a	n/a	0	0	0
2906.71	n/a	REC_WORD	1453355	wordpools/wasnorm_wordpool_576.txt	LTP327	ltpFR2	10	13	ORCHID	982	n/a	n/a	0	0	0
2907.784	n/a	REC_WORD	1453892	wordpools/wasnorm_wordpool_576.txt	LTP327	ltpFR2	10	13	LILY	821	n/a	n/a	0	0	0
2909.254	n/a	REC_WORD	1454627	wordpools/wasnorm_wordpool_576.txt	LTP327	ltpFR2	10	13	TUBA	1515	n/a	n/a	0	0	0
2960.356	n/a	DISTRACTOR	1480178	n/a	LTP327	ltpFR2	10	14	n/a	n/a	n/a	n/a	0	0	0
2960.356	n/a	START	1480178	n/a	LTP327	ltpFR2	10	n/a	n/a	n/a	21	n/a	n/a	n/a	n/a
2960.372	n/a	PROB	1480186	n/a	LTP327	ltpFR2	10	n/a	n/a	n/a	21	15	5	1	9
2962.108	n/a	PROB	1481054	n/a	LTP327	ltpFR2	10	n/a	n/a	n/a	21	21	5	9	7
2964.094	n/a	PROB	1482047	n/a	LTP327	ltpFR2	10	n/a	n/a	n/a	21	10	1	8	1
2965.41	n/a	PROB	1482705	n/a	LTP327	ltpFR2	10	n/a	n/a	n/a	21	14	9	2	3
2966.728	n/a	PROB	1483364	n/a	LTP327	ltpFR2	10	n/a	n/a	n/a	21	20	7	6	7
2967.978	n/a	PROB	1483989	n/a	LTP327	ltpFR2	10	n/a	n/a	n/a	21	18	4	9	5
2969.328	n/a	PROB	1484664	n/a	LTP327	ltpFR2	10	n/a	n/a	n/a	21	15	4	4	7
2970.914	n/a	PROB	1485457	n/a	LTP327	ltpFR2	10	n/a	n/a	n/a	21	8	6	1	1
2971.982	n/a	PROB	1485991	n/a	LTP327	ltpFR2	10	n/a	n/a	n/a	21	10	7	2	1
2973.75	n/a	PROB	1486875	n/a	LTP327	ltpFR2	10	n/a	n/a	n/a	21	13	4	5	4
2974.902	n/a	PROB	1487451	n/a	LTP327	ltpFR2	10	n/a	n/a	n/a	21	21	8	6	7
2976.384	n/a	PROB	1488192	n/a	LTP327	ltpFR2	10	n/a	n/a	n/a	21	12	8	1	3
2977.502	n/a	PROB	1488751	n/a	LTP327	ltpFR2	10	n/a	n/a	n/a	21	13	4	8	1
2978.704	n/a	PROB	1489352	n/a	LTP327	ltpFR2	10	n/a	n/a	n/a	21	14	1	5	8
2980.472	n/a	PROB	1490236	n/a	LTP327	ltpFR2	10	n/a	n/a	n/a	21	15	5	5	5
2981.708	n/a	PROB	1490854	n/a	LTP327	ltpFR2	10	n/a	n/a	n/a	21	7	3	1	3
2983.098	n/a	STOP	1491549	n/a	LTP327	ltpFR2	10	n/a	n/a	n/a	21	n/a	n/a	n/a	n/a
2985.576	n/a	WORD	1492788	wordpools/wasnorm_wordpool_576.txt	LTP327	ltpFR2	10	14	FUNGUS	614	n/a	n/a	0	0	0
2988.362	n/a	WORD	1494181	wordpools/wasnorm_wordpool_576.txt	LTP327	ltpFR2	10	14	PENGUIN	1044	n/a	n/a	0	0	0
2991.132	n/a	WORD	1495566	wordpools/wasnorm_wordpool_576.txt	LTP327	ltpFR2	10	14	PAPER	1011	n/a	n/a	0	0	0
2993.768	n/a	WORD	1496884	wordpools/wasnorm_wordpool_576.txt	LTP327	ltpFR2	10	14	REPORT	1184	n/a	n/a	0	0	0
2996.486	n/a	WORD	1498243	wordpools/wasnorm_wordpool_576.txt	LTP327	ltpFR2	10	14	CHILD	299	n/a	n/a	0	0	0
2998.922	n/a	WORD	1499461	wordpools/wasnorm_wordpool_576.txt	LTP327	ltpFR2	10	14	TAXI	1438	n/a	n/a	0	0	0
3001.374	n/a	WORD	1500687	wordpools/wasnorm_wordpool_576.txt	LTP327	ltpFR2	10	14	ARM	38	n/a	n/a	0	0	0
3003.994	n/a	WORD	1501997	wordpools/wasnorm_wordpool_576.txt	LTP327	ltpFR2	10	14	SWIMMER	1420	n/a	n/a	0	0	0
3006.462	n/a	WORD	1503231	wordpools/wasnorm_wordpool_576.txt	LTP327	ltpFR2	10	14	EXPERT	543	n/a	n/a	0	0	0
3008.93	n/a	WORD	1504465	wordpools/wasnorm_wordpool_576.txt	LTP327	ltpFR2	10	14	HONEY	713	n/a	n/a	0	0	0
3011.448	n/a	WORD	1505724	wordpools/wasnorm_wordpool_576.txt	LTP327	ltpFR2	10	14	HELMET	702	n/a	n/a	0	0	0
3014.134	n/a	WORD	1507067	wordpools/wasnorm_wordpool_576.txt	LTP327	ltpFR2	10	14	FOOTBALL	591	n/a	n/a	0	0	0
3016.704	n/a	WORD	1508352	wordpools/wasnorm_wordpool_576.txt	LTP327	ltpFR2	10	14	ICEBERG	731	n/a	n/a	0	0	0
3019.454	n/a	WORD	1509727	wordpools/wasnorm_wordpool_576.txt	LTP327	ltpFR2	10	14	NECKLACE	940	n/a	n/a	0	0	0
3022.19	n/a	WORD	1511095	wordpools/wasnorm_wordpool_576.txt	LTP327	ltpFR2	10	14	MEDAL	885	n/a	n/a	0	0	0
3024.66	n/a	WORD	1512330	wordpools/wasnorm_wordpool_576.txt	LTP327	ltpFR2	10	14	UMPIRE	1535	n/a	n/a	0	0	0
3027.228	n/a	WORD	1513614	wordpools/wasnorm_wordpool_576.txt	LTP327	ltpFR2	10	14	MILK	895	n/a	n/a	0	0	0
3029.782	n/a	WORD	1514891	wordpools/wasnorm_wordpool_576.txt	LTP327	ltpFR2	10	14	VIRUS	1572	n/a	n/a	0	0	0
3032.4	n/a	WORD	1516200	wordpools/wasnorm_wordpool_576.txt	LTP327	ltpFR2	10	14	SALAD	1224	n/a	n/a	0	0	0
3035.036	n/a	WORD	1517518	wordpools/wasnorm_wordpool_576.txt	LTP327	ltpFR2	10	14	SMOG	1330	n/a	n/a	0	0	0
3037.488	n/a	WORD	1518744	wordpools/wasnorm_wordpool_576.txt	LTP327	ltpFR2	10	14	SHRUB	1299	n/a	n/a	0	0	0
3040.274	n/a	WORD	1520137	wordpools/wasnorm_wordpool_576.txt	LTP327	ltpFR2	10	14	GALLON	618	n/a	n/a	0	0	0
3043.06	n/a	WORD	1521530	wordpools/wasnorm_wordpool_576.txt	LTP327	ltpFR2	10	14	JAPAN	749	n/a	n/a	0	0	0
3045.678	n/a	WORD	1522839	wordpools/wasnorm_wordpool_576.txt	LTP327	ltpFR2	10	14	CLOUD	328	n/a	n/a	0	0	0
3047.296	n/a	START	1523648	n/a	LTP327	ltpFR2	10	n/a	n/a	n/a	22	n/a	n/a	n/a	n/a
3048.15	n/a	DISTRACTOR	1524075	n/a	LTP327	ltpFR2	10	14	n/a	n/a	n/a	n/a	0	0	0
3048.164	n/a	PROB	1524082	n/a	LTP327	ltpFR2	10	n/a	n/a	n/a	22	13	3	8	2
3049.782	n/a	PROB	1524891	n/a	LTP327	ltpFR2	10	n/a	n/a	n/a	22	15	9	2	4
3051.382	n/a	PROB	1525691	n/a	LTP327	ltpFR2	10	n/a	n/a	n/a	22	13	2	2	9
3052.566	n/a	PROB	1526283	n/a	LTP327	ltpFR2	10	n/a	n/a	n/a	22	16	6	9	1
3054.018	n/a	PROB	1527009	n/a	LTP327	ltpFR2	10	n/a	n/a	n/a	22	19	8	7	4
3055.402	n/a	PROB	1527701	n/a	LTP327	ltpFR2	10	n/a	n/a	n/a	22	20	8	6	6
3058.138	n/a	PROB	1529069	n/a	LTP327	ltpFR2	10	n/a	n/a	n/a	22	12	1	6	5
3060.49	n/a	PROB	1530245	n/a	LTP327	ltpFR2	10	n/a	n/a	n/a	22	20	8	5	7
3061.858	n/a	PROB	1530929	n/a	LTP327	ltpFR2	10	n/a	n/a	n/a	22	13	4	6	3
3063.442	n/a	PROB	1531721	n/a	LTP327	ltpFR2	10	n/a	n/a	n/a	22	13	4	1	8
3064.912	n/a	PROB	1532456	n/a	LTP327	ltpFR2	10	n/a	n/a	n/a	22	10	1	4	5
3066.194	n/a	PROB	1533097	n/a	LTP327	ltpFR2	10	n/a	n/a	n/a	22	16	6	6	4
3067.462	n/a	PROB	1533731	n/a	LTP327	ltpFR2	10	n/a	n/a	n/a	22	16	6	7	3
3068.932	n/a	PROB	1534466	n/a	LTP327	ltpFR2	10	n/a	n/a	n/a	22	16	5	5	6
3070.012	n/a	STOP	1535006	n/a	LTP327	ltpFR2	10	n/a	n/a	n/a	22	n/a	n/a	n/a	n/a
3073.218	n/a	REC_START	1536609	n/a	LTP327	ltpFR2	10	14	n/a	n/a	n/a	n/a	0	0	0
3073.876	n/a	REC_WORD	1536938	wordpools/wasnorm_wordpool_576.txt	LTP327	ltpFR2	10	14	GALLON	618	n/a	n/a	0	0	0
3074.75	n/a	REC_WORD	1537375	wordpools/wasnorm_wordpool_576.txt	LTP327	ltpFR2	10	14	SHRUB	1299	n/a	n/a	0	0	0
3075.816	n/a	REC_WORD	1537908	wordpools/wasnorm_wordpool_576.txt	LTP327	ltpFR2	10	14	JAPAN	749	n/a	n/a	0	0	0
3078.844	n/a	REC_WORD	1539422	wordpools/wasnorm_wordpool_576.txt	LTP327	ltpFR2	10	14	CLOUD	328	n/a	n/a	0	0	0
3081.612	n/a	REC_WORD	1540806	wordpools/wasnorm_wordpool_576.txt	LTP327	ltpFR2	10	14	MILK	895	n/a	n/a	0	0	0
3082.586	n/a	REC_WORD	1541293	wordpools/wasnorm_wordpool_576.txt	LTP327	ltpFR2	10	14	VIRUS	1572	n/a	n/a	0	0	0
3084.696	n/a	REC_WORD	1542348	wordpools/wasnorm_wordpool_576.txt	LTP327	ltpFR2	10	14	PENGUIN	1044	n/a	n/a	0	0	0
3085.594	n/a	REC_WORD	1542797	wordpools/wasnorm_wordpool_576.txt	LTP327	ltpFR2	10	14	PAPER	1011	n/a	n/a	0	0	0
3086.51	n/a	REC_WORD	1543255	wordpools/wasnorm_wordpool_576.txt	LTP327	ltpFR2	10	14	REPORT	1184	n/a	n/a	0	0	0
3087.586	n/a	REC_WORD	1543793	wordpools/wasnorm_wordpool_576.txt	LTP327	ltpFR2	10	14	FUNGUS	614	n/a	n/a	0	0	0
3088.904	n/a	REC_WORD	1544452	wordpools/wasnorm_wordpool_576.txt	LTP327	ltpFR2	10	14	HONEY	713	n/a	n/a	0	0	0
3089.826	n/a	REC_WORD	1544913	wordpools/wasnorm_wordpool_576.txt	LTP327	ltpFR2	10	14	HELMET	702	n/a	n/a	0	0	0
3090.796	n/a	REC_WORD	1545398	wordpools/wasnorm_wordpool_576.txt	LTP327	ltpFR2	10	14	SWIMMER	1420	n/a	n/a	0	0	0
3092.04	n/a	REC_WORD	1546020	wordpools/wasnorm_wordpool_576.txt	LTP327	ltpFR2	10	14	ARM	38	n/a	n/a	0	0	0
3093.788	n/a	REC_WORD	1546894	wordpools/wasnorm_wordpool_576.txt	LTP327	ltpFR2	10	14	NECKLACE	940	n/a	n/a	0	0	0
3094.744	n/a	REC_WORD	1547372	wordpools/wasnorm_wordpool_576.txt	LTP327	ltpFR2	10	14	MEDAL	885	n/a	n/a	0	0	0
3095.588	n/a	REC_WORD	1547794	wordpools/wasnorm_wordpool_576.txt	LTP327	ltpFR2	10	14	UMPIRE	1535	n/a	n/a	0	0	0
3123.01	n/a	REC_WORD	1561505	wordpools/wasnorm_wordpool_576.txt	LTP327	ltpFR2	10	14	ARM	38	n/a	n/a	0	0	0
3163.678	n/a	WORD	1581839	wordpools/wasnorm_wordpool_576.txt	LTP327	ltpFR2	10	15	FRIAR	605	n/a	n/a	0	0	0
3166.48	n/a	WORD	1583240	wordpools/wasnorm_wordpool_576.txt	LTP327	ltpFR2	10	15	LONDON	843	n/a	n/a	0	0	0
3169.116	n/a	WORD	1584558	wordpools/wasnorm_wordpool_576.txt	LTP327	ltpFR2	10	15	EUROPE	541	n/a	n/a	0	0	0
3171.934	n/a	WORD	1585967	wordpools/wasnorm_wordpool_576.txt	LTP327	ltpFR2	10	15	STONE	1385	n/a	n/a	0	0	0
3174.52	n/a	WORD	1587260	wordpools/wasnorm_wordpool_576.txt	LTP327	ltpFR2	10	15	RAZOR	1171	n/a	n/a	0	0	0
3177.356	n/a	WORD	1588678	wordpools/wasnorm_wordpool_576.txt	LTP327	ltpFR2	10	15	SPOON	1357	n/a	n/a	0	0	0
3180.126	n/a	WORD	1590063	wordpools/wasnorm_wordpool_576.txt	LTP327	ltpFR2	10	15	FIREMAN	569	n/a	n/a	0	0	0
3182.694	n/a	WORD	1591347	wordpools/wasnorm_wordpool_576.txt	LTP327	ltpFR2	10	15	CIGAR	308	n/a	n/a	0	0	0
3185.196	n/a	WORD	1592598	wordpools/wasnorm_wordpool_576.txt	LTP327	ltpFR2	10	15	BLOUSE	139	n/a	n/a	0	0	0
3187.698	n/a	WORD	1593849	wordpools/wasnorm_wordpool_576.txt	LTP327	ltpFR2	10	15	TABLET	1427	n/a	n/a	0	0	0
3190.434	n/a	WORD	1595217	wordpools/wasnorm_wordpool_576.txt	LTP327	ltpFR2	10	15	STALLION	1369	n/a	n/a	0	0	0
3192.986	n/a	WORD	1596493	wordpools/wasnorm_wordpool_576.txt	LTP327	ltpFR2	10	15	CROWN	415	n/a	n/a	0	0	0
3195.672	n/a	WORD	1597836	wordpools/wasnorm_wordpool_576.txt	LTP327	ltpFR2	10	15	GRAPE	654	n/a	n/a	0	0	0
3198.356	n/a	WORD	1599178	wordpools/wasnorm_wordpool_576.txt	LTP327	ltpFR2	10	15	TART	1436	n/a	n/a	0	0	0
3200.81	n/a	WORD	1600405	wordpools/wasnorm_wordpool_576.txt	LTP327	ltpFR2	10	15	CRATER	400	n/a	n/a	0	0	0
3203.444	n/a	WORD	1601722	wordpools/wasnorm_wordpool_576.txt	LTP327	ltpFR2	10	15	PUDDLE	1140	n/a	n/a	0	0	0
3206.132	n/a	WORD	1603066	wordpools/wasnorm_wordpool_576.txt	LTP327	ltpFR2	10	15	GARBAGE	622	n/a	n/a	0	0	0
3208.65	n/a	WORD	1604325	wordpools/wasnorm_wordpool_576.txt	LTP327	ltpFR2	10	15	BANKER	84	n/a	n/a	0	0	0
3211.284	n/a	WORD	1605642	wordpools/wasnorm_wordpool_576.txt	LTP327	ltpFR2	10	15	LACE	792	n/a	n/a	0	0	0
3213.904	n/a	WORD	1606952	wordpools/wasnorm_wordpool_576.txt	LTP327	ltpFR2	10	15	STAKE	1368	n/a	n/a	0	0	0
