mstime	trial_type	stim_file	subject	experiment	session	trial	item_name	item_num	list	answer	test_x	test_y	test_z
0	SESS_START	n/a	LTP393	ltpFR2	12	n/a	n/a	n/a	n/a	n/a	0	0	0
14819	START	n/a	LTP393	ltpFR2	12	n/a	n/a	n/a	-1	n/a	n/a	n/a	n/a
14840	PROB	n/a	LTP393	ltpFR2	12	n/a	n/a	n/a	-1	18	9	6	3
17448	PROB	n/a	LTP393	ltpFR2	12	n/a	n/a	n/a	-1	196	7	9	3
20080	PROB	n/a	LTP393	ltpFR2	12	n/a	n/a	n/a	-1	18	3	7	8
21568	PROB	n/a	LTP393	ltpFR2	12	n/a	n/a	n/a	-1	17	9	3	5
23740	PROB	n/a	LTP393	ltpFR2	12	n/a	n/a	n/a	-1	10	4	2	4
25160	PROB	n/a	LTP393	ltpFR2	12	n/a	n/a	n/a	-1	17	8	7	2
26807	STOP	n/a	LTP393	ltpFR2	12	n/a	n/a	n/a	-1	n/a	n/a	n/a	n/a
57063	DISTRACTOR	n/a	LTP393	ltpFR2	12	1	n/a	n/a	n/a	n/a	0	0	0
57063	START	n/a	LTP393	ltpFR2	12	n/a	n/a	n/a	1	n/a	n/a	n/a	n/a
57079	PROB	n/a	LTP393	ltpFR2	12	n/a	n/a	n/a	1	11	4	3	4
59235	PROB	n/a	LTP393	ltpFR2	12	n/a	n/a	n/a	1	18	6	3	9
61032	PROB	n/a	LTP393	ltpFR2	12	n/a	n/a	n/a	1	4	1	1	2
62151	PROB	n/a	LTP393	ltpFR2	12	n/a	n/a	n/a	1	14	8	3	3
63698	PROB	n/a	LTP393	ltpFR2	12	n/a	n/a	n/a	1	21	9	5	7
67156	PROB	n/a	LTP393	ltpFR2	12	n/a	n/a	n/a	1	18	8	6	4
68595	PROB	n/a	LTP393	ltpFR2	12	n/a	n/a	n/a	1	10	6	2	2
70307	PROB	n/a	LTP393	ltpFR2	12	n/a	n/a	n/a	1	22	9	5	8
72103	PROB	n/a	LTP393	ltpFR2	12	n/a	n/a	n/a	1	24	6	8	8
74276	PROB	n/a	LTP393	ltpFR2	12	n/a	n/a	n/a	1	23	8	8	7
76924	PROB	n/a	LTP393	ltpFR2	12	n/a	n/a	n/a	1	7	1	4	2
79682	STOP	n/a	LTP393	ltpFR2	12	n/a	n/a	n/a	1	n/a	n/a	n/a	n/a
82072	WORD	wordpools/wasnorm_wordpool_576.txt	LTP393	ltpFR2	12	1	OUTFIT	988	n/a	n/a	0	0	0
84554	WORD	wordpools/wasnorm_wordpool_576.txt	LTP393	ltpFR2	12	1	PRINCESS	1125	n/a	n/a	0	0	0
87010	WORD	wordpools/wasnorm_wordpool_576.txt	LTP393	ltpFR2	12	1	HARP	689	n/a	n/a	0	0	0
89752	WORD	wordpools/wasnorm_wordpool_576.txt	LTP393	ltpFR2	12	1	FIREMAN	569	n/a	n/a	0	0	0
92332	WORD	wordpools/wasnorm_wordpool_576.txt	LTP393	ltpFR2	12	1	DRILL	497	n/a	n/a	0	0	0
95048	WORD	wordpools/wasnorm_wordpool_576.txt	LTP393	ltpFR2	12	1	CHIPMUNK	304	n/a	n/a	0	0	0
97556	WORD	wordpools/wasnorm_wordpool_576.txt	LTP393	ltpFR2	12	1	STALLION	1369	n/a	n/a	0	0	0
100070	WORD	wordpools/wasnorm_wordpool_576.txt	LTP393	ltpFR2	12	1	GREASE	660	n/a	n/a	0	0	0
102819	WORD	wordpools/wasnorm_wordpool_576.txt	LTP393	ltpFR2	12	1	COCOON	339	n/a	n/a	0	0	0
105494	WORD	wordpools/wasnorm_wordpool_576.txt	LTP393	ltpFR2	12	1	LABEL	790	n/a	n/a	0	0	0
108000	WORD	wordpools/wasnorm_wordpool_576.txt	LTP393	ltpFR2	12	1	WARDROBE	1587	n/a	n/a	0	0	0
110516	WORD	wordpools/wasnorm_wordpool_576.txt	LTP393	ltpFR2	12	1	CHAUFFEUR	283	n/a	n/a	0	0	0
113281	WORD	wordpools/wasnorm_wordpool_576.txt	LTP393	ltpFR2	12	1	FOREHEAD	592	n/a	n/a	0	0	0
115747	WORD	wordpools/wasnorm_wordpool_576.txt	LTP393	ltpFR2	12	1	BLACKBOARD	133	n/a	n/a	0	0	0
118496	WORD	wordpools/wasnorm_wordpool_576.txt	LTP393	ltpFR2	12	1	POPCORN	1104	n/a	n/a	0	0	0
121194	WORD	wordpools/wasnorm_wordpool_576.txt	LTP393	ltpFR2	12	1	DRAWING	494	n/a	n/a	0	0	0
123976	WORD	wordpools/wasnorm_wordpool_576.txt	LTP393	ltpFR2	12	1	PORTRAIT	1111	n/a	n/a	0	0	0
126592	WORD	wordpools/wasnorm_wordpool_576.txt	LTP393	ltpFR2	12	1	SALAD	1224	n/a	n/a	0	0	0
129015	WORD	wordpools/wasnorm_wordpool_576.txt	LTP393	ltpFR2	12	1	SMOG	1330	n/a	n/a	0	0	0
131497	WORD	wordpools/wasnorm_wordpool_576.txt	LTP393	ltpFR2	12	1	CAMEL	223	n/a	n/a	0	0	0
134195	WORD	wordpools/wasnorm_wordpool_576.txt	LTP393	ltpFR2	12	1	THRONE	1461	n/a	n/a	0	0	0
136678	WORD	wordpools/wasnorm_wordpool_576.txt	LTP393	ltpFR2	12	1	DORM	488	n/a	n/a	0	0	0
139359	WORD	wordpools/wasnorm_wordpool_576.txt	LTP393	ltpFR2	12	1	CASHEW	253	n/a	n/a	0	0	0
141866	WORD	wordpools/wasnorm_wordpool_576.txt	LTP393	ltpFR2	12	1	COIN	343	n/a	n/a	0	0	0
143472	START	n/a	LTP393	ltpFR2	12	n/a	n/a	n/a	2	n/a	n/a	n/a	n/a
144426	DISTRACTOR	n/a	LTP393	ltpFR2	12	1	n/a	n/a	n/a	n/a	0	0	0
144432	PROB	n/a	LTP393	ltpFR2	12	n/a	n/a	n/a	2	14	9	2	3
146821	PROB	n/a	LTP393	ltpFR2	12	n/a	n/a	n/a	2	15	6	1	8
148635	PROB	n/a	LTP393	ltpFR2	12	n/a	n/a	n/a	2	19	8	2	9
150113	PROB	n/a	LTP393	ltpFR2	12	n/a	n/a	n/a	2	18	4	9	5
152169	PROB	n/a	LTP393	ltpFR2	12	n/a	n/a	n/a	2	17	7	1	9
153565	PROB	n/a	LTP393	ltpFR2	12	n/a	n/a	n/a	2	18	6	6	6
154809	PROB	n/a	LTP393	ltpFR2	12	n/a	n/a	n/a	2	11	5	5	1
155946	PROB	n/a	LTP393	ltpFR2	12	n/a	n/a	n/a	2	15	9	5	1
157842	PROB	n/a	LTP393	ltpFR2	12	n/a	n/a	n/a	2	14	1	5	8
159138	PROB	n/a	LTP393	ltpFR2	12	n/a	n/a	n/a	2	19	9	3	7
160349	PROB	n/a	LTP393	ltpFR2	12	n/a	n/a	n/a	2	14	2	4	8
162095	PROB	n/a	LTP393	ltpFR2	12	n/a	n/a	n/a	2	15	4	2	9
163642	PROB	n/a	LTP393	ltpFR2	12	n/a	n/a	n/a	2	17	7	6	4
164987	PROB	n/a	LTP393	ltpFR2	12	n/a	n/a	n/a	2	15	8	4	3
166324	STOP	n/a	LTP393	ltpFR2	12	n/a	n/a	n/a	2	n/a	n/a	n/a	n/a
169282	REC_START	n/a	LTP393	ltpFR2	12	1	n/a	n/a	n/a	n/a	0	0	0
171129	REC_WORD	wordpools/wasnorm_wordpool_576.txt	LTP393	ltpFR2	12	1	THRONE	1461	n/a	n/a	0	0	0
172710	REC_WORD	wordpools/wasnorm_wordpool_576.txt	LTP393	ltpFR2	12	1	DORM	488	n/a	n/a	0	0	0
174494	REC_WORD	wordpools/wasnorm_wordpool_576.txt	LTP393	ltpFR2	12	1	WARDROBE	1587	n/a	n/a	0	0	0
175914	REC_WORD	wordpools/wasnorm_wordpool_576.txt	LTP393	ltpFR2	12	1	BLACKBOARD	133	n/a	n/a	0	0	0
177651	REC_WORD	wordpools/wasnorm_wordpool_576.txt	LTP393	ltpFR2	12	1	POPCORN	1104	n/a	n/a	0	0	0
179508	REC_WORD	wordpools/wasnorm_wordpool_576.txt	LTP393	ltpFR2	12	1	STALLION	1369	n/a	n/a	0	0	0
184330	REC_WORD	wordpools/wasnorm_wordpool_576.txt	LTP393	ltpFR2	12	1	CAMEL	223	n/a	n/a	0	0	0
200374	REC_WORD	wordpools/wasnorm_wordpool_576.txt	LTP393	ltpFR2	12	1	CASHEW	253	n/a	n/a	0	0	0
259709	DISTRACTOR	n/a	LTP393	ltpFR2	12	2	n/a	n/a	n/a	n/a	0	0	0
259710	START	n/a	LTP393	ltpFR2	12	n/a	n/a	n/a	3	n/a	n/a	n/a	n/a
259726	PROB	n/a	LTP393	ltpFR2	12	n/a	n/a	n/a	3	14	5	3	6
261523	PROB	n/a	LTP393	ltpFR2	12	n/a	n/a	n/a	3	15	1	5	9
263218	PROB	n/a	LTP393	ltpFR2	12	n/a	n/a	n/a	3	20	6	7	7
264681	PROB	n/a	LTP393	ltpFR2	12	n/a	n/a	n/a	3	13	2	5	6
267329	PROB	n/a	LTP393	ltpFR2	12	n/a	n/a	n/a	3	12	2	4	6
268791	PROB	n/a	LTP393	ltpFR2	12	n/a	n/a	n/a	3	15	8	2	5
270672	PROB	n/a	LTP393	ltpFR2	12	n/a	n/a	n/a	3	19	6	5	8
272452	PROB	n/a	LTP393	ltpFR2	12	n/a	n/a	n/a	3	114	4	2	8
274474	PROB	n/a	LTP393	ltpFR2	12	n/a	n/a	n/a	3	18	5	7	6
276655	PROB	n/a	LTP393	ltpFR2	12	n/a	n/a	n/a	3	21	9	6	6
279219	PROB	n/a	LTP393	ltpFR2	12	n/a	n/a	n/a	3	13	4	3	6
280924	PROB	n/a	LTP393	ltpFR2	12	n/a	n/a	n/a	3	21	8	7	6
283000	STOP	n/a	LTP393	ltpFR2	12	n/a	n/a	n/a	3	n/a	n/a	n/a	n/a
284576	WORD	wordpools/wasnorm_wordpool_576.txt	LTP393	ltpFR2	12	2	LONDON	843	n/a	n/a	0	0	0
287266	WORD	wordpools/wasnorm_wordpool_576.txt	LTP393	ltpFR2	12	2	GALLON	618	n/a	n/a	0	0	0
289823	WORD	wordpools/wasnorm_wordpool_576.txt	LTP393	ltpFR2	12	2	MILK	895	n/a	n/a	0	0	0
292514	WORD	wordpools/wasnorm_wordpool_576.txt	LTP393	ltpFR2	12	2	JELLO	754	n/a	n/a	0	0	0
295254	WORD	wordpools/wasnorm_wordpool_576.txt	LTP393	ltpFR2	12	2	TWEEZERS	1526	n/a	n/a	0	0	0
297928	WORD	wordpools/wasnorm_wordpool_576.txt	LTP393	ltpFR2	12	2	BANQUET	86	n/a	n/a	0	0	0
300402	WORD	wordpools/wasnorm_wordpool_576.txt	LTP393	ltpFR2	12	2	PENGUIN	1044	n/a	n/a	0	0	0
303100	WORD	wordpools/wasnorm_wordpool_576.txt	LTP393	ltpFR2	12	2	SKIRT	1319	n/a	n/a	0	0	0
305508	WORD	wordpools/wasnorm_wordpool_576.txt	LTP393	ltpFR2	12	2	REBEL	1172	n/a	n/a	0	0	0
308005	WORD	wordpools/wasnorm_wordpool_576.txt	LTP393	ltpFR2	12	2	SERVER	1272	n/a	n/a	0	0	0
310697	WORD	wordpools/wasnorm_wordpool_576.txt	LTP393	ltpFR2	12	2	GRILL	661	n/a	n/a	0	0	0
313294	WORD	wordpools/wasnorm_wordpool_576.txt	LTP393	ltpFR2	12	2	JEANS	752	n/a	n/a	0	0	0
315776	WORD	wordpools/wasnorm_wordpool_576.txt	LTP393	ltpFR2	12	2	CARROT	249	n/a	n/a	0	0	0
318250	WORD	wordpools/wasnorm_wordpool_576.txt	LTP393	ltpFR2	12	2	COLLEGE	346	n/a	n/a	0	0	0
321057	WORD	wordpools/wasnorm_wordpool_576.txt	LTP393	ltpFR2	12	2	TEACHER	1440	n/a	n/a	0	0	0
323831	WORD	wordpools/wasnorm_wordpool_576.txt	LTP393	ltpFR2	12	2	COCKTAIL	338	n/a	n/a	0	0	0
326456	WORD	wordpools/wasnorm_wordpool_576.txt	LTP393	ltpFR2	12	2	SPHINX	1349	n/a	n/a	0	0	0
328978	WORD	wordpools/wasnorm_wordpool_576.txt	LTP393	ltpFR2	12	2	LIZARD	834	n/a	n/a	0	0	0
331770	WORD	wordpools/wasnorm_wordpool_576.txt	LTP393	ltpFR2	12	2	MARINE	869	n/a	n/a	0	0	0
334301	WORD	wordpools/wasnorm_wordpool_576.txt	LTP393	ltpFR2	12	2	WRENCH	1625	n/a	n/a	0	0	0
336891	WORD	wordpools/wasnorm_wordpool_576.txt	LTP393	ltpFR2	12	2	SKILLET	1317	n/a	n/a	0	0	0
339331	WORD	wordpools/wasnorm_wordpool_576.txt	LTP393	ltpFR2	12	2	ZIPPER	1636	n/a	n/a	0	0	0
342114	WORD	wordpools/wasnorm_wordpool_576.txt	LTP393	ltpFR2	12	2	KITCHEN	778	n/a	n/a	0	0	0
344638	WORD	wordpools/wasnorm_wordpool_576.txt	LTP393	ltpFR2	12	2	FUNGUS	614	n/a	n/a	0	0	0
346242	START	n/a	LTP393	ltpFR2	12	n/a	n/a	n/a	4	n/a	n/a	n/a	n/a
347281	DISTRACTOR	n/a	LTP393	ltpFR2	12	2	n/a	n/a	n/a	n/a	0	0	0
347286	PROB	n/a	LTP393	ltpFR2	12	n/a	n/a	n/a	4	8	2	1	5
349793	PROB	n/a	LTP393	ltpFR2	12	n/a	n/a	n/a	4	13	7	5	1
351507	PROB	n/a	LTP393	ltpFR2	12	n/a	n/a	n/a	4	15	4	4	7
352893	PROB	n/a	LTP393	ltpFR2	12	n/a	n/a	n/a	4	25	8	8	9
355274	PROB	n/a	LTP393	ltpFR2	12	n/a	n/a	n/a	4	12	2	4	6
356754	PROB	n/a	LTP393	ltpFR2	12	n/a	n/a	n/a	4	17	9	4	4
358817	PROB	n/a	LTP393	ltpFR2	12	n/a	n/a	n/a	4	10	8	1	1
360037	PROB	n/a	LTP393	ltpFR2	12	n/a	n/a	n/a	4	20	9	9	2
361867	PROB	n/a	LTP393	ltpFR2	12	n/a	n/a	n/a	4	16	5	5	6
363481	PROB	n/a	LTP393	ltpFR2	12	n/a	n/a	n/a	4	8	1	2	5
365494	PROB	n/a	LTP393	ltpFR2	12	n/a	n/a	n/a	4	16	3	9	4
370241	STOP	n/a	LTP393	ltpFR2	12	n/a	n/a	n/a	4	n/a	n/a	n/a	n/a
372020	REC_START	n/a	LTP393	ltpFR2	12	2	n/a	n/a	n/a	n/a	0	0	0
372888	REC_WORD	wordpools/wasnorm_wordpool_576.txt	LTP393	ltpFR2	12	2	FUNGUS	614	n/a	n/a	0	0	0
375984	REC_WORD	wordpools/wasnorm_wordpool_576.txt	LTP393	ltpFR2	12	2	COLLEGE	346	n/a	n/a	0	0	0
379109	REC_WORD	wordpools/wasnorm_wordpool_576.txt	LTP393	ltpFR2	12	2	TEACHER	1440	n/a	n/a	0	0	0
382578	REC_WORD	wordpools/wasnorm_wordpool_576.txt	LTP393	ltpFR2	12	2	MARINE	869	n/a	n/a	0	0	0
384355	REC_WORD	wordpools/wasnorm_wordpool_576.txt	LTP393	ltpFR2	12	2	WRENCH	1625	n/a	n/a	0	0	0
390153	REC_WORD	wordpools/wasnorm_wordpool_576.txt	LTP393	ltpFR2	12	2	SPHINX	1349	n/a	n/a	0	0	0
402550	REC_WORD	wordpools/wasnorm_wordpool_576.txt	LTP393	ltpFR2	12	2	COIN	343	n/a	n/a	0	0	0
405591	REC_WORD	wordpools/wasnorm_wordpool_576.txt	LTP393	ltpFR2	12	2	QUARTER	1148	n/a	n/a	0	0	0
462456	WORD	wordpools/wasnorm_wordpool_576.txt	LTP393	ltpFR2	12	3	BATHTUB	100	n/a	n/a	0	0	0
465237	WORD	wordpools/wasnorm_wordpool_576.txt	LTP393	ltpFR2	12	3	SPONGE	1355	n/a	n/a	0	0	0
468028	WORD	wordpools/wasnorm_wordpool_576.txt	LTP393	ltpFR2	12	3	ONION	977	n/a	n/a	0	0	0
470536	WORD	wordpools/wasnorm_wordpool_576.txt	LTP393	ltpFR2	12	3	GARLIC	624	n/a	n/a	0	0	0
472958	WORD	wordpools/wasnorm_wordpool_576.txt	LTP393	ltpFR2	12	3	BADGE	68	n/a	n/a	0	0	0
475599	WORD	wordpools/wasnorm_wordpool_576.txt	LTP393	ltpFR2	12	3	GLOBE	641	n/a	n/a	0	0	0
478180	WORD	wordpools/wasnorm_wordpool_576.txt	LTP393	ltpFR2	12	3	LEG	809	n/a	n/a	0	0	0
480613	WORD	wordpools/wasnorm_wordpool_576.txt	LTP393	ltpFR2	12	3	FLAG	573	n/a	n/a	0	0	0
483327	WORD	wordpools/wasnorm_wordpool_576.txt	LTP393	ltpFR2	12	3	LAMP	798	n/a	n/a	0	0	0
486026	WORD	wordpools/wasnorm_wordpool_576.txt	LTP393	ltpFR2	12	3	MARKER	870	n/a	n/a	0	0	0
488593	WORD	wordpools/wasnorm_wordpool_576.txt	LTP393	ltpFR2	12	3	SCRIBBLE	1256	n/a	n/a	0	0	0
491182	WORD	wordpools/wasnorm_wordpool_576.txt	LTP393	ltpFR2	12	3	THIEF	1456	n/a	n/a	0	0	0
493631	WORD	wordpools/wasnorm_wordpool_576.txt	LTP393	ltpFR2	12	3	BURGLAR	200	n/a	n/a	0	0	0
496380	WORD	wordpools/wasnorm_wordpool_576.txt	LTP393	ltpFR2	12	3	POISON	1096	n/a	n/a	0	0	0
498986	WORD	wordpools/wasnorm_wordpool_576.txt	LTP393	ltpFR2	12	3	EUROPE	541	n/a	n/a	0	0	0
501469	WORD	wordpools/wasnorm_wordpool_576.txt	LTP393	ltpFR2	12	3	FLESH	579	n/a	n/a	0	0	0
503950	WORD	wordpools/wasnorm_wordpool_576.txt	LTP393	ltpFR2	12	3	DAISY	435	n/a	n/a	0	0	0
506491	WORD	wordpools/wasnorm_wordpool_576.txt	LTP393	ltpFR2	12	3	JAPAN	749	n/a	n/a	0	0	0
508988	WORD	wordpools/wasnorm_wordpool_576.txt	LTP393	ltpFR2	12	3	ROBBER	1197	n/a	n/a	0	0	0
511655	WORD	wordpools/wasnorm_wordpool_576.txt	LTP393	ltpFR2	12	3	PLUTO	1092	n/a	n/a	0	0	0
514395	WORD	wordpools/wasnorm_wordpool_576.txt	LTP393	ltpFR2	12	3	PUPPY	1144	n/a	n/a	0	0	0
517060	WORD	wordpools/wasnorm_wordpool_576.txt	LTP393	ltpFR2	12	3	ICEBERG	731	n/a	n/a	0	0	0
519484	WORD	wordpools/wasnorm_wordpool_576.txt	LTP393	ltpFR2	12	3	TRENCH	1503	n/a	n/a	0	0	0
522107	WORD	wordpools/wasnorm_wordpool_576.txt	LTP393	ltpFR2	12	3	POET	1095	n/a	n/a	0	0	0
523713	START	n/a	LTP393	ltpFR2	12	n/a	n/a	n/a	5	n/a	n/a	n/a	n/a
524870	DISTRACTOR	n/a	LTP393	ltpFR2	12	3	n/a	n/a	n/a	n/a	0	0	0
524873	PROB	n/a	LTP393	ltpFR2	12	n/a	n/a	n/a	5	10	2	3	5
531282	PROB	n/a	LTP393	ltpFR2	12	n/a	n/a	n/a	5	6	1	2	3
533287	PROB	n/a	LTP393	ltpFR2	12	n/a	n/a	n/a	5	17	4	2	9
535619	PROB	n/a	LTP393	ltpFR2	12	n/a	n/a	n/a	5	14	5	7	2
537474	PROB	n/a	LTP393	ltpFR2	12	n/a	n/a	n/a	5	7	3	3	1
538969	PROB	n/a	LTP393	ltpFR2	12	n/a	n/a	n/a	5	13	6	1	6
541083	PROB	n/a	LTP393	ltpFR2	12	n/a	n/a	n/a	5	15	9	2	4
542371	PROB	n/a	LTP393	ltpFR2	12	n/a	n/a	n/a	5	15	2	4	9
544041	PROB	n/a	LTP393	ltpFR2	12	n/a	n/a	n/a	5	14	8	3	1
547713	STOP	n/a	LTP393	ltpFR2	12	n/a	n/a	n/a	5	n/a	n/a	n/a	n/a
549608	REC_START	n/a	LTP393	ltpFR2	12	3	n/a	n/a	n/a	n/a	0	0	0
550764	REC_WORD	wordpools/wasnorm_wordpool_576.txt	LTP393	ltpFR2	12	3	DAISY	435	n/a	n/a	0	0	0
552014	REC_WORD	wordpools/wasnorm_wordpool_576.txt	LTP393	ltpFR2	12	3	RELISH	1183	n/a	n/a	0	0	0
552982	REC_WORD	wordpools/wasnorm_wordpool_576.txt	LTP393	ltpFR2	12	3	FLESH	579	n/a	n/a	0	0	0
557005	REC_WORD	wordpools/wasnorm_wordpool_576.txt	LTP393	ltpFR2	12	3	WILD	-1	n/a	n/a	0	0	0
561660	REC_WORD	wordpools/wasnorm_wordpool_576.txt	LTP393	ltpFR2	12	3	BANQUET	86	n/a	n/a	0	0	0
640033	DISTRACTOR	n/a	LTP393	ltpFR2	12	4	n/a	n/a	n/a	n/a	0	0	0
640033	START	n/a	LTP393	ltpFR2	12	n/a	n/a	n/a	6	n/a	n/a	n/a	n/a
640050	PROB	n/a	LTP393	ltpFR2	12	n/a	n/a	n/a	6	22	8	7	7
642382	PROB	n/a	LTP393	ltpFR2	12	n/a	n/a	n/a	6	16	7	3	6
644605	PROB	n/a	LTP393	ltpFR2	12	n/a	n/a	n/a	6	10	3	2	5
646476	PROB	n/a	LTP393	ltpFR2	12	n/a	n/a	n/a	6	13	1	5	7
648130	PROB	n/a	LTP393	ltpFR2	12	n/a	n/a	n/a	6	16	5	8	3
649976	PROB	n/a	LTP393	ltpFR2	12	n/a	n/a	n/a	6	17	4	9	4
652392	PROB	n/a	LTP393	ltpFR2	12	n/a	n/a	n/a	6	8	3	1	4
654188	PROB	n/a	LTP393	ltpFR2	12	n/a	n/a	n/a	6	8	1	4	3
655867	PROB	n/a	LTP393	ltpFR2	12	n/a	n/a	n/a	6	15	5	4	6
657531	PROB	n/a	LTP393	ltpFR2	12	n/a	n/a	n/a	6	16	6	5	5
658959	PROB	n/a	LTP393	ltpFR2	12	n/a	n/a	n/a	6	20	6	9	5
661006	PROB	n/a	LTP393	ltpFR2	12	n/a	n/a	n/a	6	11	4	6	1
662235	PROB	n/a	LTP393	ltpFR2	12	n/a	n/a	n/a	6	12	5	2	5
663477	STOP	n/a	LTP393	ltpFR2	12	n/a	n/a	n/a	6	n/a	n/a	n/a	n/a
665092	WORD	wordpools/wasnorm_wordpool_576.txt	LTP393	ltpFR2	12	4	TYPIST	1532	n/a	n/a	0	0	0
667725	WORD	wordpools/wasnorm_wordpool_576.txt	LTP393	ltpFR2	12	4	FLASHLIGHT	575	n/a	n/a	0	0	0
670348	WORD	wordpools/wasnorm_wordpool_576.txt	LTP393	ltpFR2	12	4	LUGGAGE	847	n/a	n/a	0	0	0
672788	WORD	wordpools/wasnorm_wordpool_576.txt	LTP393	ltpFR2	12	4	PREACHER	1119	n/a	n/a	0	0	0
675261	WORD	wordpools/wasnorm_wordpool_576.txt	LTP393	ltpFR2	12	4	NAPKIN	937	n/a	n/a	0	0	0
677918	WORD	wordpools/wasnorm_wordpool_576.txt	LTP393	ltpFR2	12	4	TUNNEL	1519	n/a	n/a	0	0	0
680485	WORD	wordpools/wasnorm_wordpool_576.txt	LTP393	ltpFR2	12	4	HUSBAND	728	n/a	n/a	0	0	0
683057	WORD	wordpools/wasnorm_wordpool_576.txt	LTP393	ltpFR2	12	4	OUTDOORS	987	n/a	n/a	0	0	0
685523	WORD	wordpools/wasnorm_wordpool_576.txt	LTP393	ltpFR2	12	4	DIVER	476	n/a	n/a	0	0	0
688305	WORD	wordpools/wasnorm_wordpool_576.txt	LTP393	ltpFR2	12	4	SPOUSE	1358	n/a	n/a	0	0	0
690746	WORD	wordpools/wasnorm_wordpool_576.txt	LTP393	ltpFR2	12	4	FOOTBALL	591	n/a	n/a	0	0	0
693520	WORD	wordpools/wasnorm_wordpool_576.txt	LTP393	ltpFR2	12	4	SOFTBALL	1343	n/a	n/a	0	0	0
696251	WORD	wordpools/wasnorm_wordpool_576.txt	LTP393	ltpFR2	12	4	WITNESS	1618	n/a	n/a	0	0	0
698667	WORD	wordpools/wasnorm_wordpool_576.txt	LTP393	ltpFR2	12	4	CANDY	230	n/a	n/a	0	0	0
701340	WORD	wordpools/wasnorm_wordpool_576.txt	LTP393	ltpFR2	12	4	SKETCH	1315	n/a	n/a	0	0	0
704114	WORD	wordpools/wasnorm_wordpool_576.txt	LTP393	ltpFR2	12	4	SLIDE	1326	n/a	n/a	0	0	0
706697	WORD	wordpools/wasnorm_wordpool_576.txt	LTP393	ltpFR2	12	4	BUCKET	184	n/a	n/a	0	0	0
709496	WORD	wordpools/wasnorm_wordpool_576.txt	LTP393	ltpFR2	12	4	LAGOON	795	n/a	n/a	0	0	0
712077	WORD	wordpools/wasnorm_wordpool_576.txt	LTP393	ltpFR2	12	4	FLASK	576	n/a	n/a	0	0	0
714784	WORD	wordpools/wasnorm_wordpool_576.txt	LTP393	ltpFR2	12	4	PAIL	1002	n/a	n/a	0	0	0
717417	WORD	wordpools/wasnorm_wordpool_576.txt	LTP393	ltpFR2	12	4	TILE	1468	n/a	n/a	0	0	0
720049	WORD	wordpools/wasnorm_wordpool_576.txt	LTP393	ltpFR2	12	4	WAITER	1580	n/a	n/a	0	0	0
722523	WORD	wordpools/wasnorm_wordpool_576.txt	LTP393	ltpFR2	12	4	PEDAL	1037	n/a	n/a	0	0	0
725212	WORD	wordpools/wasnorm_wordpool_576.txt	LTP393	ltpFR2	12	4	OFFICE	972	n/a	n/a	0	0	0
726817	START	n/a	LTP393	ltpFR2	12	n/a	n/a	n/a	7	n/a	n/a	n/a	n/a
727635	DISTRACTOR	n/a	LTP393	ltpFR2	12	4	n/a	n/a	n/a	n/a	0	0	0
727637	PROB	n/a	LTP393	ltpFR2	12	n/a	n/a	n/a	7	21	5	7	9
733819	PROB	n/a	LTP393	ltpFR2	12	n/a	n/a	n/a	7	21	9	4	8
735767	PROB	n/a	LTP393	ltpFR2	12	n/a	n/a	n/a	7	10	2	2	6
737094	PROB	n/a	LTP393	ltpFR2	12	n/a	n/a	n/a	7	20	9	3	8
738849	PROB	n/a	LTP393	ltpFR2	12	n/a	n/a	n/a	7	19	9	7	3
740261	PROB	n/a	LTP393	ltpFR2	12	n/a	n/a	n/a	7	15	3	3	9
742652	PROB	n/a	LTP393	ltpFR2	12	n/a	n/a	n/a	7	14	7	6	1
744230	PROB	n/a	LTP393	ltpFR2	12	n/a	n/a	n/a	7	17	7	1	9
745710	PROB	n/a	LTP393	ltpFR2	12	n/a	n/a	n/a	7	17	4	7	6
747381	PROB	n/a	LTP393	ltpFR2	12	n/a	n/a	n/a	7	15	7	2	6
748977	PROB	n/a	LTP393	ltpFR2	12	n/a	n/a	n/a	7	7	1	4	2
750783	STOP	n/a	LTP393	ltpFR2	12	n/a	n/a	n/a	7	n/a	n/a	n/a	n/a
752546	REC_START	n/a	LTP393	ltpFR2	12	4	n/a	n/a	n/a	n/a	0	0	0
753450	REC_WORD	wordpools/wasnorm_wordpool_576.txt	LTP393	ltpFR2	12	4	NAPKIN	937	n/a	n/a	0	0	0
758221	REC_WORD	wordpools/wasnorm_wordpool_576.txt	LTP393	ltpFR2	12	4	JUDGE	761	n/a	n/a	0	0	0
759968	REC_WORD	wordpools/wasnorm_wordpool_576.txt	LTP393	ltpFR2	12	4	SOFTBALL	1343	n/a	n/a	0	0	0
761830	REC_WORD	wordpools/wasnorm_wordpool_576.txt	LTP393	ltpFR2	12	4	BASEBALL	93	n/a	n/a	0	0	0
764910	REC_WORD	wordpools/wasnorm_wordpool_576.txt	LTP393	ltpFR2	12	4	FOOTBALL	591	n/a	n/a	0	0	0
766401	REC_WORD	wordpools/wasnorm_wordpool_576.txt	LTP393	ltpFR2	12	4	FOOTBALL	591	n/a	n/a	0	0	0
769413	REC_WORD_VV	wordpools/wasnorm_wordpool_576.txt	LTP393	ltpFR2	12	4	<>	-1	n/a	n/a	0	0	0
769823	REC_WORD	wordpools/wasnorm_wordpool_576.txt	LTP393	ltpFR2	12	4	FOOTBALL	591	n/a	n/a	0	0	0
774503	REC_WORD	wordpools/wasnorm_wordpool_576.txt	LTP393	ltpFR2	12	4	SOFTBALL	1343	n/a	n/a	0	0	0
775505	REC_WORD	wordpools/wasnorm_wordpool_576.txt	LTP393	ltpFR2	12	4	FOOTBALL	591	n/a	n/a	0	0	0
842971	DISTRACTOR	n/a	LTP393	ltpFR2	12	5	n/a	n/a	n/a	n/a	0	0	0
842971	START	n/a	LTP393	ltpFR2	12	n/a	n/a	n/a	8	n/a	n/a	n/a	n/a
842988	PROB	n/a	LTP393	ltpFR2	12	n/a	n/a	n/a	8	18	2	8	8
854562	PROB	n/a	LTP393	ltpFR2	12	n/a	n/a	n/a	8	10	6	1	3
859048	PROB	n/a	LTP393	ltpFR2	12	n/a	n/a	n/a	8	11	5	2	4
861087	PROB	n/a	LTP393	ltpFR2	12	n/a	n/a	n/a	8	13	3	8	2
862858	PROB	n/a	LTP393	ltpFR2	12	n/a	n/a	n/a	8	13	4	3	6
866971	STOP	n/a	LTP393	ltpFR2	12	n/a	n/a	n/a	8	n/a	n/a	n/a	n/a
867914	WORD	wordpools/wasnorm_wordpool_576.txt	LTP393	ltpFR2	12	5	PARENT	1013	n/a	n/a	0	0	0
870513	WORD	wordpools/wasnorm_wordpool_576.txt	LTP393	ltpFR2	12	5	GANGSTER	620	n/a	n/a	0	0	0
873270	WORD	wordpools/wasnorm_wordpool_576.txt	LTP393	ltpFR2	12	5	PISTOL	1075	n/a	n/a	0	0	0
875793	WORD	wordpools/wasnorm_wordpool_576.txt	LTP393	ltpFR2	12	5	CRITIC	410	n/a	n/a	0	0	0
878518	WORD	wordpools/wasnorm_wordpool_576.txt	LTP393	ltpFR2	12	5	CHEMIST	292	n/a	n/a	0	0	0
880999	WORD	wordpools/wasnorm_wordpool_576.txt	LTP393	ltpFR2	12	5	SISTER	1312	n/a	n/a	0	0	0
883757	WORD	wordpools/wasnorm_wordpool_576.txt	LTP393	ltpFR2	12	5	KEEPER	769	n/a	n/a	0	0	0
886255	WORD	wordpools/wasnorm_wordpool_576.txt	LTP393	ltpFR2	12	5	BASEMENT	94	n/a	n/a	0	0	0
888746	WORD	wordpools/wasnorm_wordpool_576.txt	LTP393	ltpFR2	12	5	BELLY	119	n/a	n/a	0	0	0
891251	WORD	wordpools/wasnorm_wordpool_576.txt	LTP393	ltpFR2	12	5	HAMPER	682	n/a	n/a	0	0	0
893833	WORD	wordpools/wasnorm_wordpool_576.txt	LTP393	ltpFR2	12	5	GRAVE	658	n/a	n/a	0	0	0
896475	WORD	wordpools/wasnorm_wordpool_576.txt	LTP393	ltpFR2	12	5	STAR	1373	n/a	n/a	0	0	0
899206	WORD	wordpools/wasnorm_wordpool_576.txt	LTP393	ltpFR2	12	5	AIRPLANE	12	n/a	n/a	0	0	0
901739	WORD	wordpools/wasnorm_wordpool_576.txt	LTP393	ltpFR2	12	5	SIDEWALK	1303	n/a	n/a	0	0	0
904236	WORD	wordpools/wasnorm_wordpool_576.txt	LTP393	ltpFR2	12	5	SIBLING	1301	n/a	n/a	0	0	0
907019	WORD	wordpools/wasnorm_wordpool_576.txt	LTP393	ltpFR2	12	5	MATTRESS	879	n/a	n/a	0	0	0
909493	WORD	wordpools/wasnorm_wordpool_576.txt	LTP393	ltpFR2	12	5	RIFLE	1192	n/a	n/a	0	0	0
912166	WORD	wordpools/wasnorm_wordpool_576.txt	LTP393	ltpFR2	12	5	DRESS	495	n/a	n/a	0	0	0
914757	WORD	wordpools/wasnorm_wordpool_576.txt	LTP393	ltpFR2	12	5	TURTLE	1522	n/a	n/a	0	0	0
917221	WORD	wordpools/wasnorm_wordpool_576.txt	LTP393	ltpFR2	12	5	SEAL	1262	n/a	n/a	0	0	0
919746	WORD	wordpools/wasnorm_wordpool_576.txt	LTP393	ltpFR2	12	5	DANCER	437	n/a	n/a	0	0	0
922411	WORD	wordpools/wasnorm_wordpool_576.txt	LTP393	ltpFR2	12	5	MOTOR	922	n/a	n/a	0	0	0
925051	WORD	wordpools/wasnorm_wordpool_576.txt	LTP393	ltpFR2	12	5	VALVE	1546	n/a	n/a	0	0	0
927550	WORD	wordpools/wasnorm_wordpool_576.txt	LTP393	ltpFR2	12	5	HERO	706	n/a	n/a	0	0	0
929154	START	n/a	LTP393	ltpFR2	12	n/a	n/a	n/a	9	n/a	n/a	n/a	n/a
930030	DISTRACTOR	n/a	LTP393	ltpFR2	12	5	n/a	n/a	n/a	n/a	0	0	0
930039	PROB	n/a	LTP393	ltpFR2	12	n/a	n/a	n/a	9	11	7	3	1
946057	PROB	n/a	LTP393	ltpFR2	12	n/a	n/a	n/a	9	18	2	7	9
948415	PROB	n/a	LTP393	ltpFR2	12	n/a	n/a	n/a	9	19	9	9	1
949792	PROB	n/a	LTP393	ltpFR2	12	n/a	n/a	n/a	9	16	9	1	6
951271	PROB	n/a	LTP393	ltpFR2	12	n/a	n/a	n/a	9	21	9	3	9
953078	STOP	n/a	LTP393	ltpFR2	12	n/a	n/a	n/a	9	n/a	n/a	n/a	n/a
955049	REC_START	n/a	LTP393	ltpFR2	12	5	n/a	n/a	n/a	n/a	0	0	0
1030044	REC_WORD_VV	wordpools/wasnorm_wordpool_576.txt	LTP393	ltpFR2	12	5	<>	-1	n/a	n/a	0	0	0
1045485	WORD	wordpools/wasnorm_wordpool_576.txt	LTP393	ltpFR2	12	6	QUARTER	1148	n/a	n/a	0	0	0
1048132	WORD	wordpools/wasnorm_wordpool_576.txt	LTP393	ltpFR2	12	6	HIGHWAY	707	n/a	n/a	0	0	0
1050665	WORD	wordpools/wasnorm_wordpool_576.txt	LTP393	ltpFR2	12	6	PATIENT	1024	n/a	n/a	0	0	0
1053171	WORD	wordpools/wasnorm_wordpool_576.txt	LTP393	ltpFR2	12	6	LION	827	n/a	n/a	0	0	0
1055853	WORD	wordpools/wasnorm_wordpool_576.txt	LTP393	ltpFR2	12	6	VAGRANT	1544	n/a	n/a	0	0	0
1058603	WORD	wordpools/wasnorm_wordpool_576.txt	LTP393	ltpFR2	12	6	PARSLEY	1016	n/a	n/a	0	0	0
1061251	WORD	wordpools/wasnorm_wordpool_576.txt	LTP393	ltpFR2	12	6	MESSAGE	888	n/a	n/a	0	0	0
1063692	WORD	wordpools/wasnorm_wordpool_576.txt	LTP393	ltpFR2	12	6	GUITAR	670	n/a	n/a	0	0	0
1066433	WORD	wordpools/wasnorm_wordpool_576.txt	LTP393	ltpFR2	12	6	OZONE	996	n/a	n/a	0	0	0
1068947	WORD	wordpools/wasnorm_wordpool_576.txt	LTP393	ltpFR2	12	6	RELISH	1183	n/a	n/a	0	0	0
1071379	WORD	wordpools/wasnorm_wordpool_576.txt	LTP393	ltpFR2	12	6	SANDWICH	1232	n/a	n/a	0	0	0
1074153	WORD	wordpools/wasnorm_wordpool_576.txt	LTP393	ltpFR2	12	6	TRUCK	1512	n/a	n/a	0	0	0
1076669	WORD	wordpools/wasnorm_wordpool_576.txt	LTP393	ltpFR2	12	6	GRAVEL	659	n/a	n/a	0	0	0
1079426	WORD	wordpools/wasnorm_wordpool_576.txt	LTP393	ltpFR2	12	6	PICNIC	1060	n/a	n/a	0	0	0
1081990	WORD	wordpools/wasnorm_wordpool_576.txt	LTP393	ltpFR2	12	6	COUSIN	392	n/a	n/a	0	0	0
1084582	WORD	wordpools/wasnorm_wordpool_576.txt	LTP393	ltpFR2	12	6	BISON	131	n/a	n/a	0	0	0
1087246	WORD	wordpools/wasnorm_wordpool_576.txt	LTP393	ltpFR2	12	6	NOMAD	955	n/a	n/a	0	0	0
1089995	WORD	wordpools/wasnorm_wordpool_576.txt	LTP393	ltpFR2	12	6	STAPLE	1371	n/a	n/a	0	0	0
1092670	WORD	wordpools/wasnorm_wordpool_576.txt	LTP393	ltpFR2	12	6	EXPERT	543	n/a	n/a	0	0	0
1095293	WORD	wordpools/wasnorm_wordpool_576.txt	LTP393	ltpFR2	12	6	PIMPLE	1071	n/a	n/a	0	0	0
1097725	WORD	wordpools/wasnorm_wordpool_576.txt	LTP393	ltpFR2	12	6	WHISKERS	1605	n/a	n/a	0	0	0
1100147	WORD	wordpools/wasnorm_wordpool_576.txt	LTP393	ltpFR2	12	6	EAGLE	512	n/a	n/a	0	0	0
1102897	WORD	wordpools/wasnorm_wordpool_576.txt	LTP393	ltpFR2	12	6	SPARROW	1347	n/a	n/a	0	0	0
1105513	WORD	wordpools/wasnorm_wordpool_576.txt	LTP393	ltpFR2	12	6	LUNCH	849	n/a	n/a	0	0	0
1107116	START	n/a	LTP393	ltpFR2	12	n/a	n/a	n/a	10	n/a	n/a	n/a	n/a
1107968	DISTRACTOR	n/a	LTP393	ltpFR2	12	6	n/a	n/a	n/a	n/a	0	0	0
1107977	PROB	n/a	LTP393	ltpFR2	12	n/a	n/a	n/a	10	7	3	1	3
1112063	PROB	n/a	LTP393	ltpFR2	12	n/a	n/a	n/a	10	13	7	3	3
1114404	PROB	n/a	LTP393	ltpFR2	12	n/a	n/a	n/a	10	12	4	1	7
1117845	PROB	n/a	LTP393	ltpFR2	12	n/a	n/a	n/a	10	9	5	2	2
1119216	PROB	n/a	LTP393	ltpFR2	12	n/a	n/a	n/a	10	13	8	1	4
1121372	PROB	n/a	LTP393	ltpFR2	12	n/a	n/a	n/a	10	17	6	5	6
1122917	PROB	n/a	LTP393	ltpFR2	12	n/a	n/a	n/a	10	19	9	6	4
1124287	PROB	n/a	LTP393	ltpFR2	12	n/a	n/a	n/a	10	14	2	4	8
1126234	PROB	n/a	LTP393	ltpFR2	12	n/a	n/a	n/a	10	19	1	9	9
1128483	PROB	n/a	LTP393	ltpFR2	12	n/a	n/a	n/a	10	12	1	3	8
1130196	STOP	n/a	LTP393	ltpFR2	12	n/a	n/a	n/a	10	n/a	n/a	n/a	n/a
1132911	REC_START	n/a	LTP393	ltpFR2	12	6	n/a	n/a	n/a	n/a	0	0	0
1133593	REC_WORD	wordpools/wasnorm_wordpool_576.txt	LTP393	ltpFR2	12	6	LION	827	n/a	n/a	0	0	0
1223338	DISTRACTOR	n/a	LTP393	ltpFR2	12	7	n/a	n/a	n/a	n/a	0	0	0
1223338	START	n/a	LTP393	ltpFR2	12	n/a	n/a	n/a	11	n/a	n/a	n/a	n/a
1223354	PROB	n/a	LTP393	ltpFR2	12	n/a	n/a	n/a	11	13	4	5	4
1226689	PROB	n/a	LTP393	ltpFR2	12	n/a	n/a	n/a	11	11	2	8	1
1227850	PROB	n/a	LTP393	ltpFR2	12	n/a	n/a	n/a	11	20	9	3	8
1229723	PROB	n/a	LTP393	ltpFR2	12	n/a	n/a	n/a	11	16	9	2	5
1231636	PROB	n/a	LTP393	ltpFR2	12	n/a	n/a	n/a	11	19	8	9	2
1233625	PROB	n/a	LTP393	ltpFR2	12	n/a	n/a	n/a	11	15	3	5	7
1235153	PROB	n/a	LTP393	ltpFR2	12	n/a	n/a	n/a	11	19	6	4	9
1237016	PROB	n/a	LTP393	ltpFR2	12	n/a	n/a	n/a	11	18	7	8	3
1238647	PROB	n/a	LTP393	ltpFR2	12	n/a	n/a	n/a	11	15	6	7	2
1240376	PROB	n/a	LTP393	ltpFR2	12	n/a	n/a	n/a	11	8	1	1	6
1241529	PROB	n/a	LTP393	ltpFR2	12	n/a	n/a	n/a	11	13	6	5	2
1243435	PROB	n/a	LTP393	ltpFR2	12	n/a	n/a	n/a	11	12	1	7	4
1245004	PROB	n/a	LTP393	ltpFR2	12	n/a	n/a	n/a	11	17	5	7	5
1246729	STOP	n/a	LTP393	ltpFR2	12	n/a	n/a	n/a	11	n/a	n/a	n/a	n/a
1248523	WORD	wordpools/wasnorm_wordpool_576.txt	LTP393	ltpFR2	12	7	VALLEY	1545	n/a	n/a	0	0	0
1251230	WORD	wordpools/wasnorm_wordpool_576.txt	LTP393	ltpFR2	12	7	LACE	792	n/a	n/a	0	0	0
1253803	WORD	wordpools/wasnorm_wordpool_576.txt	LTP393	ltpFR2	12	7	BRACES	164	n/a	n/a	0	0	0
1256394	WORD	wordpools/wasnorm_wordpool_576.txt	LTP393	ltpFR2	12	7	SURVEY	1414	n/a	n/a	0	0	0
1259151	WORD	wordpools/wasnorm_wordpool_576.txt	LTP393	ltpFR2	12	7	ISLAND	745	n/a	n/a	0	0	0
1261709	WORD	wordpools/wasnorm_wordpool_576.txt	LTP393	ltpFR2	12	7	BROTHER	179	n/a	n/a	0	0	0
1264290	WORD	wordpools/wasnorm_wordpool_576.txt	LTP393	ltpFR2	12	7	PUDDING	1139	n/a	n/a	0	0	0
1267064	WORD	wordpools/wasnorm_wordpool_576.txt	LTP393	ltpFR2	12	7	PASTRY	1022	n/a	n/a	0	0	0
1269630	WORD	wordpools/wasnorm_wordpool_576.txt	LTP393	ltpFR2	12	7	SILK	1307	n/a	n/a	0	0	0
1272371	WORD	wordpools/wasnorm_wordpool_576.txt	LTP393	ltpFR2	12	7	WIFE	1609	n/a	n/a	0	0	0
1275102	WORD	wordpools/wasnorm_wordpool_576.txt	LTP393	ltpFR2	12	7	FRIEND	606	n/a	n/a	0	0	0
1277610	WORD	wordpools/wasnorm_wordpool_576.txt	LTP393	ltpFR2	12	7	CRICKET	408	n/a	n/a	0	0	0
1280216	WORD	wordpools/wasnorm_wordpool_576.txt	LTP393	ltpFR2	12	7	TURNIP	1521	n/a	n/a	0	0	0
1282957	WORD	wordpools/wasnorm_wordpool_576.txt	LTP393	ltpFR2	12	7	FLOWER	584	n/a	n/a	0	0	0
1285698	WORD	wordpools/wasnorm_wordpool_576.txt	LTP393	ltpFR2	12	7	BRICK	172	n/a	n/a	0	0	0
1288304	WORD	wordpools/wasnorm_wordpool_576.txt	LTP393	ltpFR2	12	7	PLASTER	1085	n/a	n/a	0	0	0
1291079	WORD	wordpools/wasnorm_wordpool_576.txt	LTP393	ltpFR2	12	7	CAPTIVE	240	n/a	n/a	0	0	0
1293720	WORD	wordpools/wasnorm_wordpool_576.txt	LTP393	ltpFR2	12	7	SPIDER	1351	n/a	n/a	0	0	0
1296452	WORD	wordpools/wasnorm_wordpool_576.txt	LTP393	ltpFR2	12	7	CASHIER	254	n/a	n/a	0	0	0
1298991	WORD	wordpools/wasnorm_wordpool_576.txt	LTP393	ltpFR2	12	7	WINDOW	1611	n/a	n/a	0	0	0
1301474	WORD	wordpools/wasnorm_wordpool_576.txt	LTP393	ltpFR2	12	7	DRAGON	492	n/a	n/a	0	0	0
1304264	WORD	wordpools/wasnorm_wordpool_576.txt	LTP393	ltpFR2	12	7	COUNTRY	388	n/a	n/a	0	0	0
1306905	WORD	wordpools/wasnorm_wordpool_576.txt	LTP393	ltpFR2	12	7	ROD	1203	n/a	n/a	0	0	0
1309671	WORD	wordpools/wasnorm_wordpool_576.txt	LTP393	ltpFR2	12	7	TURKEY	1520	n/a	n/a	0	0	0
1311275	START	n/a	LTP393	ltpFR2	12	n/a	n/a	n/a	12	n/a	n/a	n/a	n/a
1312433	DISTRACTOR	n/a	LTP393	ltpFR2	12	7	n/a	n/a	n/a	n/a	0	0	0
1312437	PROB	n/a	LTP393	ltpFR2	12	n/a	n/a	n/a	12	15	9	3	3
1314468	PROB	n/a	LTP393	ltpFR2	12	n/a	n/a	n/a	12	13	9	2	2
1316990	PROB	n/a	LTP393	ltpFR2	12	n/a	n/a	n/a	12	19	8	9	2
1318787	PROB	n/a	LTP393	ltpFR2	12	n/a	n/a	n/a	12	7	1	2	4
1321595	PROB	n/a	LTP393	ltpFR2	12	n/a	n/a	n/a	12	8	2	1	5
1322906	PROB	n/a	LTP393	ltpFR2	12	n/a	n/a	n/a	12	19	8	8	3
1324886	PROB	n/a	LTP393	ltpFR2	12	n/a	n/a	n/a	12	19	9	9	1
1326475	PROB	n/a	LTP393	ltpFR2	12	n/a	n/a	n/a	12	21	9	8	4
1329700	PROB	n/a	LTP393	ltpFR2	12	n/a	n/a	n/a	12	23	9	9	5
1331731	PROB	n/a	LTP393	ltpFR2	12	n/a	n/a	n/a	12	19	4	6	9
1335275	STOP	n/a	LTP393	ltpFR2	12	n/a	n/a	n/a	12	n/a	n/a	n/a	n/a
1337128	REC_START	n/a	LTP393	ltpFR2	12	7	n/a	n/a	n/a	n/a	0	0	0
1337941	REC_WORD	wordpools/wasnorm_wordpool_576.txt	LTP393	ltpFR2	12	7	WINDOW	1611	n/a	n/a	0	0	0
1339117	REC_WORD	wordpools/wasnorm_wordpool_576.txt	LTP393	ltpFR2	12	7	CAPTIVE	240	n/a	n/a	0	0	0
1345616	REC_WORD	wordpools/wasnorm_wordpool_576.txt	LTP393	ltpFR2	12	7	BROTHER	179	n/a	n/a	0	0	0
1427572	WORD	wordpools/wasnorm_wordpool_576.txt	LTP393	ltpFR2	12	8	CRIB	407	n/a	n/a	0	0	0
1430178	WORD	wordpools/wasnorm_wordpool_576.txt	LTP393	ltpFR2	12	8	FOOT	590	n/a	n/a	0	0	0
1432961	WORD	wordpools/wasnorm_wordpool_576.txt	LTP393	ltpFR2	12	8	TABLE	1426	n/a	n/a	0	0	0
1435694	WORD	wordpools/wasnorm_wordpool_576.txt	LTP393	ltpFR2	12	8	PERFUME	1049	n/a	n/a	0	0	0
1438376	WORD	wordpools/wasnorm_wordpool_576.txt	LTP393	ltpFR2	12	8	FLEET	578	n/a	n/a	0	0	0
1440991	WORD	wordpools/wasnorm_wordpool_576.txt	LTP393	ltpFR2	12	8	COLONEL	348	n/a	n/a	0	0	0
1443632	WORD	wordpools/wasnorm_wordpool_576.txt	LTP393	ltpFR2	12	8	ANKLE	24	n/a	n/a	0	0	0
1446205	WORD	wordpools/wasnorm_wordpool_576.txt	LTP393	ltpFR2	12	8	HANDBAG	684	n/a	n/a	0	0	0
1448987	WORD	wordpools/wasnorm_wordpool_576.txt	LTP393	ltpFR2	12	8	BACKBONE	66	n/a	n/a	0	0	0
1451629	WORD	wordpools/wasnorm_wordpool_576.txt	LTP393	ltpFR2	12	8	FRANCE	601	n/a	n/a	0	0	0
1454386	WORD	wordpools/wasnorm_wordpool_576.txt	LTP393	ltpFR2	12	8	NECKLACE	940	n/a	n/a	0	0	0
1457026	WORD	wordpools/wasnorm_wordpool_576.txt	LTP393	ltpFR2	12	8	UNCLE	1536	n/a	n/a	0	0	0
1459583	WORD	wordpools/wasnorm_wordpool_576.txt	LTP393	ltpFR2	12	8	YOLK	1633	n/a	n/a	0	0	0
1462273	WORD	wordpools/wasnorm_wordpool_576.txt	LTP393	ltpFR2	12	8	CLOTHES	327	n/a	n/a	0	0	0
1464714	WORD	wordpools/wasnorm_wordpool_576.txt	LTP393	ltpFR2	12	8	SWAMP	1416	n/a	n/a	0	0	0
1467136	WORD	wordpools/wasnorm_wordpool_576.txt	LTP393	ltpFR2	12	8	EGYPT	519	n/a	n/a	0	0	0
1469544	WORD	wordpools/wasnorm_wordpool_576.txt	LTP393	ltpFR2	12	8	TEMPLE	1448	n/a	n/a	0	0	0
1472166	WORD	wordpools/wasnorm_wordpool_576.txt	LTP393	ltpFR2	12	8	PARROT	1015	n/a	n/a	0	0	0
1474582	WORD	wordpools/wasnorm_wordpool_576.txt	LTP393	ltpFR2	12	8	SCARECROW	1245	n/a	n/a	0	0	0
1477347	WORD	wordpools/wasnorm_wordpool_576.txt	LTP393	ltpFR2	12	8	DRINK	498	n/a	n/a	0	0	0
1479804	WORD	wordpools/wasnorm_wordpool_576.txt	LTP393	ltpFR2	12	8	TRACTOR	1493	n/a	n/a	0	0	0
1482437	WORD	wordpools/wasnorm_wordpool_576.txt	LTP393	ltpFR2	12	8	BUNNY	198	n/a	n/a	0	0	0
1485068	WORD	wordpools/wasnorm_wordpool_576.txt	LTP393	ltpFR2	12	8	BLUEPRINT	142	n/a	n/a	0	0	0
1487825	WORD	wordpools/wasnorm_wordpool_576.txt	LTP393	ltpFR2	12	8	RATTLE	1170	n/a	n/a	0	0	0
1489431	START	n/a	LTP393	ltpFR2	12	n/a	n/a	n/a	13	n/a	n/a	n/a	n/a
1490458	DISTRACTOR	n/a	LTP393	ltpFR2	12	8	n/a	n/a	n/a	n/a	0	0	0
1490467	PROB	n/a	LTP393	ltpFR2	12	n/a	n/a	n/a	13	18	8	6	4
1495872	PROB	n/a	LTP393	ltpFR2	12	n/a	n/a	n/a	13	16	5	9	2
1497544	PROB	n/a	LTP393	ltpFR2	12	n/a	n/a	n/a	13	9	1	1	7
1499072	PROB	n/a	LTP393	ltpFR2	12	n/a	n/a	n/a	13	19	6	9	4
1500977	PROB	n/a	LTP393	ltpFR2	12	n/a	n/a	n/a	13	22	8	6	8
1503267	PROB	n/a	LTP393	ltpFR2	12	n/a	n/a	n/a	13	15	5	4	6
1505080	PROB	n/a	LTP393	ltpFR2	12	n/a	n/a	n/a	13	11	8	3	2
1507479	PROB	n/a	LTP393	ltpFR2	12	n/a	n/a	n/a	13	15	6	6	3
1509593	PROB	n/a	LTP393	ltpFR2	12	n/a	n/a	n/a	13	14	3	5	6
1511180	PROB	n/a	LTP393	ltpFR2	12	n/a	n/a	n/a	13	15	4	4	7
1512657	STOP	n/a	LTP393	ltpFR2	12	n/a	n/a	n/a	13	n/a	n/a	n/a	n/a
1515233	REC_START	n/a	LTP393	ltpFR2	12	8	n/a	n/a	n/a	n/a	0	0	0
1516846	REC_WORD	wordpools/wasnorm_wordpool_576.txt	LTP393	ltpFR2	12	8	EGYPT	519	n/a	n/a	0	0	0
1518021	REC_WORD	wordpools/wasnorm_wordpool_576.txt	LTP393	ltpFR2	12	8	FRANCE	601	n/a	n/a	0	0	0
1523359	REC_WORD	wordpools/wasnorm_wordpool_576.txt	LTP393	ltpFR2	12	8	SWAMP	1416	n/a	n/a	0	0	0
1529405	REC_WORD	wordpools/wasnorm_wordpool_576.txt	LTP393	ltpFR2	12	8	BACKBONE	66	n/a	n/a	0	0	0
1531498	REC_WORD	wordpools/wasnorm_wordpool_576.txt	LTP393	ltpFR2	12	8	CLOTHES	327	n/a	n/a	0	0	0
1532887	REC_WORD	wordpools/wasnorm_wordpool_576.txt	LTP393	ltpFR2	12	8	NECKLACE	940	n/a	n/a	0	0	0
1534748	REC_WORD	wordpools/wasnorm_wordpool_576.txt	LTP393	ltpFR2	12	8	HANDBAG	684	n/a	n/a	0	0	0
1546044	REC_WORD	wordpools/wasnorm_wordpool_576.txt	LTP393	ltpFR2	12	8	MOUNTAIN	924	n/a	n/a	0	0	0
1591756	REST_REWET	n/a	LTP393	ltpFR2	12	8	n/a	n/a	n/a	n/a	0	0	0
1750023	WORD	wordpools/wasnorm_wordpool_576.txt	LTP393	ltpFR2	12	9	PROTON	1132	n/a	n/a	0	0	0
1752498	WORD	wordpools/wasnorm_wordpool_576.txt	LTP393	ltpFR2	12	9	CURTAIN	427	n/a	n/a	0	0	0
1755162	WORD	wordpools/wasnorm_wordpool_576.txt	LTP393	ltpFR2	12	9	AWARD	63	n/a	n/a	0	0	0
1757802	WORD	wordpools/wasnorm_wordpool_576.txt	LTP393	ltpFR2	12	9	MEDAL	885	n/a	n/a	0	0	0
1760469	WORD	wordpools/wasnorm_wordpool_576.txt	LTP393	ltpFR2	12	9	HOSTESS	723	n/a	n/a	0	0	0
1763000	WORD	wordpools/wasnorm_wordpool_576.txt	LTP393	ltpFR2	12	9	SNACK	1331	n/a	n/a	0	0	0
1765591	WORD	wordpools/wasnorm_wordpool_576.txt	LTP393	ltpFR2	12	9	HONEY	713	n/a	n/a	0	0	0
1768356	WORD	wordpools/wasnorm_wordpool_576.txt	LTP393	ltpFR2	12	9	STAKE	1368	n/a	n/a	0	0	0
1771155	WORD	wordpools/wasnorm_wordpool_576.txt	LTP393	ltpFR2	12	9	SPOON	1357	n/a	n/a	0	0	0
1773812	WORD	wordpools/wasnorm_wordpool_576.txt	LTP393	ltpFR2	12	9	SALMON	1227	n/a	n/a	0	0	0
1776404	WORD	wordpools/wasnorm_wordpool_576.txt	LTP393	ltpFR2	12	9	RUST	1219	n/a	n/a	0	0	0
1779210	WORD	wordpools/wasnorm_wordpool_576.txt	LTP393	ltpFR2	12	9	BANK	83	n/a	n/a	0	0	0
1781693	WORD	wordpools/wasnorm_wordpool_576.txt	LTP393	ltpFR2	12	9	TWIG	1527	n/a	n/a	0	0	0
1784107	WORD	wordpools/wasnorm_wordpool_576.txt	LTP393	ltpFR2	12	9	BIKE	125	n/a	n/a	0	0	0
1786690	WORD	wordpools/wasnorm_wordpool_576.txt	LTP393	ltpFR2	12	9	GLASS	639	n/a	n/a	0	0	0
1789439	WORD	wordpools/wasnorm_wordpool_576.txt	LTP393	ltpFR2	12	9	SEAFOOD	1260	n/a	n/a	0	0	0
1791995	WORD	wordpools/wasnorm_wordpool_576.txt	LTP393	ltpFR2	12	9	PRINCE	1124	n/a	n/a	0	0	0
1794461	WORD	wordpools/wasnorm_wordpool_576.txt	LTP393	ltpFR2	12	9	PALACE	1006	n/a	n/a	0	0	0
1797150	WORD	wordpools/wasnorm_wordpool_576.txt	LTP393	ltpFR2	12	9	PIANO	1057	n/a	n/a	0	0	0
1799700	WORD	wordpools/wasnorm_wordpool_576.txt	LTP393	ltpFR2	12	9	PATROL	1027	n/a	n/a	0	0	0
1802239	WORD	wordpools/wasnorm_wordpool_576.txt	LTP393	ltpFR2	12	9	COOK	372	n/a	n/a	0	0	0
1804904	WORD	wordpools/wasnorm_wordpool_576.txt	LTP393	ltpFR2	12	9	CREATURE	403	n/a	n/a	0	0	0
1807588	WORD	wordpools/wasnorm_wordpool_576.txt	LTP393	ltpFR2	12	9	PASSAGE	1019	n/a	n/a	0	0	0
1810177	WORD	wordpools/wasnorm_wordpool_576.txt	LTP393	ltpFR2	12	9	CANYON	235	n/a	n/a	0	0	0
1811782	START	n/a	LTP393	ltpFR2	12	n/a	n/a	n/a	14	n/a	n/a	n/a	n/a
1812698	DISTRACTOR	n/a	LTP393	ltpFR2	12	9	n/a	n/a	n/a	n/a	0	0	0
1812701	PROB	n/a	LTP393	ltpFR2	12	n/a	n/a	n/a	14	11	4	2	5
1821492	PROB	n/a	LTP393	ltpFR2	12	n/a	n/a	n/a	14	11	5	4	2
1823045	PROB	n/a	LTP393	ltpFR2	12	n/a	n/a	n/a	14	12	1	4	7
1824791	PROB	n/a	LTP393	ltpFR2	12	n/a	n/a	n/a	14	10	4	4	2
1826748	PROB	n/a	LTP393	ltpFR2	12	n/a	n/a	n/a	14	13	6	2	5
1828402	PROB	n/a	LTP393	ltpFR2	12	n/a	n/a	n/a	14	18	7	2	9
1830816	PROB	n/a	LTP393	ltpFR2	12	n/a	n/a	n/a	14	19	8	9	2
1832730	PROB	n/a	LTP393	ltpFR2	12	n/a	n/a	n/a	14	18	9	6	3
1834971	STOP	n/a	LTP393	ltpFR2	12	n/a	n/a	n/a	14	n/a	n/a	n/a	n/a
1837627	REC_START	n/a	LTP393	ltpFR2	12	9	n/a	n/a	n/a	n/a	0	0	0
1845547	REC_WORD	wordpools/wasnorm_wordpool_576.txt	LTP393	ltpFR2	12	9	COD	340	n/a	n/a	0	0	0
1846617	REC_WORD	wordpools/wasnorm_wordpool_576.txt	LTP393	ltpFR2	12	9	SALMON	1227	n/a	n/a	0	0	0
1848848	REC_WORD	wordpools/wasnorm_wordpool_576.txt	LTP393	ltpFR2	12	9	SEAFOOD	1260	n/a	n/a	0	0	0
1851093	REC_WORD	wordpools/wasnorm_wordpool_576.txt	LTP393	ltpFR2	12	9	PRINCE	1124	n/a	n/a	0	0	0
1852494	REC_WORD	wordpools/wasnorm_wordpool_576.txt	LTP393	ltpFR2	12	9	PALACE	1006	n/a	n/a	0	0	0
1928061	WORD	wordpools/wasnorm_wordpool_576.txt	LTP393	ltpFR2	12	10	VICTIM	1562	n/a	n/a	0	0	0
1930694	WORD	wordpools/wasnorm_wordpool_576.txt	LTP393	ltpFR2	12	10	OYSTER	995	n/a	n/a	0	0	0
1933359	WORD	wordpools/wasnorm_wordpool_576.txt	LTP393	ltpFR2	12	10	HUMAN	726	n/a	n/a	0	0	0
1935824	WORD	wordpools/wasnorm_wordpool_576.txt	LTP393	ltpFR2	12	10	CROWN	415	n/a	n/a	0	0	0
1938599	WORD	wordpools/wasnorm_wordpool_576.txt	LTP393	ltpFR2	12	10	PLATE	1086	n/a	n/a	0	0	0
1941038	WORD	wordpools/wasnorm_wordpool_576.txt	LTP393	ltpFR2	12	10	ACTRESS	6	n/a	n/a	0	0	0
1943770	WORD	wordpools/wasnorm_wordpool_576.txt	LTP393	ltpFR2	12	10	SUSPECT	1415	n/a	n/a	0	0	0
1946378	WORD	wordpools/wasnorm_wordpool_576.txt	LTP393	ltpFR2	12	10	HATCHET	691	n/a	n/a	0	0	0
1949135	WORD	wordpools/wasnorm_wordpool_576.txt	LTP393	ltpFR2	12	10	TWISTER	1530	n/a	n/a	0	0	0
1951783	WORD	wordpools/wasnorm_wordpool_576.txt	LTP393	ltpFR2	12	10	PECAN	1036	n/a	n/a	0	0	0
1954340	WORD	wordpools/wasnorm_wordpool_576.txt	LTP393	ltpFR2	12	10	OINTMENT	974	n/a	n/a	0	0	0
1956956	WORD	wordpools/wasnorm_wordpool_576.txt	LTP393	ltpFR2	12	10	SHORTS	1293	n/a	n/a	0	0	0
1959706	WORD	wordpools/wasnorm_wordpool_576.txt	LTP393	ltpFR2	12	10	TROMBONE	1508	n/a	n/a	0	0	0
1962371	WORD	wordpools/wasnorm_wordpool_576.txt	LTP393	ltpFR2	12	10	RECORD	1176	n/a	n/a	0	0	0
1965044	WORD	wordpools/wasnorm_wordpool_576.txt	LTP393	ltpFR2	12	10	TUTU	1524	n/a	n/a	0	0	0
1967468	WORD	wordpools/wasnorm_wordpool_576.txt	LTP393	ltpFR2	12	10	DRESSER	496	n/a	n/a	0	0	0
1969966	WORD	wordpools/wasnorm_wordpool_576.txt	LTP393	ltpFR2	12	10	PEANUT	1032	n/a	n/a	0	0	0
1972749	WORD	wordpools/wasnorm_wordpool_576.txt	LTP393	ltpFR2	12	10	FINGER	567	n/a	n/a	0	0	0
1975498	WORD	wordpools/wasnorm_wordpool_576.txt	LTP393	ltpFR2	12	10	HIKER	708	n/a	n/a	0	0	0
1978121	WORD	wordpools/wasnorm_wordpool_576.txt	LTP393	ltpFR2	12	10	STUDENT	1395	n/a	n/a	0	0	0
1980604	WORD	wordpools/wasnorm_wordpool_576.txt	LTP393	ltpFR2	12	10	VELVET	1555	n/a	n/a	0	0	0
1983268	WORD	wordpools/wasnorm_wordpool_576.txt	LTP393	ltpFR2	12	10	CELLAR	267	n/a	n/a	0	0	0
1985850	WORD	wordpools/wasnorm_wordpool_576.txt	LTP393	ltpFR2	12	10	MAILBOX	857	n/a	n/a	0	0	0
1988391	WORD	wordpools/wasnorm_wordpool_576.txt	LTP393	ltpFR2	12	10	POSTAGE	1113	n/a	n/a	0	0	0
1989995	START	n/a	LTP393	ltpFR2	12	n/a	n/a	n/a	15	n/a	n/a	n/a	n/a
1990867	DISTRACTOR	n/a	LTP393	ltpFR2	12	10	n/a	n/a	n/a	n/a	0	0	0
1990872	PROB	n/a	LTP393	ltpFR2	12	n/a	n/a	n/a	15	19	7	6	6
2001325	PROB	n/a	LTP393	ltpFR2	12	n/a	n/a	n/a	15	13	7	5	1
2004183	PROB	n/a	LTP393	ltpFR2	12	n/a	n/a	n/a	15	12	1	8	3
2005837	PROB	n/a	LTP393	ltpFR2	12	n/a	n/a	n/a	15	9	2	5	2
2007568	PROB	n/a	LTP393	ltpFR2	12	n/a	n/a	n/a	15	11	2	4	5
2009196	PROB	n/a	LTP393	ltpFR2	12	n/a	n/a	n/a	15	21	8	5	8
2013177	STOP	n/a	LTP393	ltpFR2	12	n/a	n/a	n/a	15	n/a	n/a	n/a	n/a
2015915	REC_START	n/a	LTP393	ltpFR2	12	10	n/a	n/a	n/a	n/a	0	0	0
2016557	REC_WORD	wordpools/wasnorm_wordpool_576.txt	LTP393	ltpFR2	12	10	RECORD	1176	n/a	n/a	0	0	0
2106342	DISTRACTOR	n/a	LTP393	ltpFR2	12	11	n/a	n/a	n/a	n/a	0	0	0
2106342	START	n/a	LTP393	ltpFR2	12	n/a	n/a	n/a	16	n/a	n/a	n/a	n/a
2130342	STOP	n/a	LTP393	ltpFR2	12	n/a	n/a	n/a	16	n/a	n/a	n/a	n/a
2131192	WORD	wordpools/wasnorm_wordpool_576.txt	LTP393	ltpFR2	12	11	INMATE	738	n/a	n/a	0	0	0
2133899	WORD	wordpools/wasnorm_wordpool_576.txt	LTP393	ltpFR2	12	11	PIZZA	1079	n/a	n/a	0	0	0
2136691	WORD	wordpools/wasnorm_wordpool_576.txt	LTP393	ltpFR2	12	11	COD	340	n/a	n/a	0	0	0
2139105	WORD	wordpools/wasnorm_wordpool_576.txt	LTP393	ltpFR2	12	11	APRON	35	n/a	n/a	0	0	0
2141579	WORD	wordpools/wasnorm_wordpool_576.txt	LTP393	ltpFR2	12	11	CUPBOARD	425	n/a	n/a	0	0	0
2144035	WORD	wordpools/wasnorm_wordpool_576.txt	LTP393	ltpFR2	12	11	COUNTY	389	n/a	n/a	0	0	0
2146526	WORD	wordpools/wasnorm_wordpool_576.txt	LTP393	ltpFR2	12	11	MISSILE	900	n/a	n/a	0	0	0
2148990	WORD	wordpools/wasnorm_wordpool_576.txt	LTP393	ltpFR2	12	11	ROOSTER	1209	n/a	n/a	0	0	0
2151639	WORD	wordpools/wasnorm_wordpool_576.txt	LTP393	ltpFR2	12	11	TOMBSTONE	1478	n/a	n/a	0	0	0
2154145	WORD	wordpools/wasnorm_wordpool_576.txt	LTP393	ltpFR2	12	11	TABLET	1427	n/a	n/a	0	0	0
2156636	WORD	wordpools/wasnorm_wordpool_576.txt	LTP393	ltpFR2	12	11	BEAVER	109	n/a	n/a	0	0	0
2159394	WORD	wordpools/wasnorm_wordpool_576.txt	LTP393	ltpFR2	12	11	POSSUM	1112	n/a	n/a	0	0	0
2162192	WORD	wordpools/wasnorm_wordpool_576.txt	LTP393	ltpFR2	12	11	ASIA	46	n/a	n/a	0	0	0
2164683	WORD	wordpools/wasnorm_wordpool_576.txt	LTP393	ltpFR2	12	11	FARMER	553	n/a	n/a	0	0	0
2167222	WORD	wordpools/wasnorm_wordpool_576.txt	LTP393	ltpFR2	12	11	MARS	873	n/a	n/a	0	0	0
2169705	WORD	wordpools/wasnorm_wordpool_576.txt	LTP393	ltpFR2	12	11	SHELF	1280	n/a	n/a	0	0	0
2172454	WORD	wordpools/wasnorm_wordpool_576.txt	LTP393	ltpFR2	12	11	ARMY	39	n/a	n/a	0	0	0
2175060	WORD	wordpools/wasnorm_wordpool_576.txt	LTP393	ltpFR2	12	11	VENUS	1557	n/a	n/a	0	0	0
2177543	WORD	wordpools/wasnorm_wordpool_576.txt	LTP393	ltpFR2	12	11	TUBA	1515	n/a	n/a	0	0	0
2180291	WORD	wordpools/wasnorm_wordpool_576.txt	LTP393	ltpFR2	12	11	IDOL	733	n/a	n/a	0	0	0
2182789	WORD	wordpools/wasnorm_wordpool_576.txt	LTP393	ltpFR2	12	11	BREAST	171	n/a	n/a	0	0	0
2185363	WORD	wordpools/wasnorm_wordpool_576.txt	LTP393	ltpFR2	12	11	COOKBOOK	373	n/a	n/a	0	0	0
2187919	WORD	wordpools/wasnorm_wordpool_576.txt	LTP393	ltpFR2	12	11	FRAGRANCE	599	n/a	n/a	0	0	0
2190653	WORD	wordpools/wasnorm_wordpool_576.txt	LTP393	ltpFR2	12	11	HAWK	692	n/a	n/a	0	0	0
2192256	START	n/a	LTP393	ltpFR2	12	n/a	n/a	n/a	17	n/a	n/a	n/a	n/a
2193220	DISTRACTOR	n/a	LTP393	ltpFR2	12	11	n/a	n/a	n/a	n/a	0	0	0
2216256	STOP	n/a	LTP393	ltpFR2	12	n/a	n/a	n/a	17	n/a	n/a	n/a	n/a
2218076	REC_START	n/a	LTP393	ltpFR2	12	11	n/a	n/a	n/a	n/a	0	0	0
2224758	REC_WORD	wordpools/wasnorm_wordpool_576.txt	LTP393	ltpFR2	12	11	MINER	896	n/a	n/a	0	0	0
2229475	REC_WORD	wordpools/wasnorm_wordpool_576.txt	LTP393	ltpFR2	12	11	BANNER	85	n/a	n/a	0	0	0
2232398	REC_WORD_VV	wordpools/wasnorm_wordpool_576.txt	LTP393	ltpFR2	12	11	<>	-1	n/a	n/a	0	0	0
2308520	WORD	wordpools/wasnorm_wordpool_576.txt	LTP393	ltpFR2	12	12	OMELET	976	n/a	n/a	0	0	0
2311277	WORD	wordpools/wasnorm_wordpool_576.txt	LTP393	ltpFR2	12	12	OX	994	n/a	n/a	0	0	0
2314018	WORD	wordpools/wasnorm_wordpool_576.txt	LTP393	ltpFR2	12	12	PEBBLE	1035	n/a	n/a	0	0	0
2316743	WORD	wordpools/wasnorm_wordpool_576.txt	LTP393	ltpFR2	12	12	AUTHOR	61	n/a	n/a	0	0	0
2319232	WORD	wordpools/wasnorm_wordpool_576.txt	LTP393	ltpFR2	12	12	SUNSET	1408	n/a	n/a	0	0	0
2321739	WORD	wordpools/wasnorm_wordpool_576.txt	LTP393	ltpFR2	12	12	ORCHID	982	n/a	n/a	0	0	0
2324162	WORD	wordpools/wasnorm_wordpool_576.txt	LTP393	ltpFR2	12	12	LADDER	793	n/a	n/a	0	0	0
2326744	WORD	wordpools/wasnorm_wordpool_576.txt	LTP393	ltpFR2	12	12	HORSE	719	n/a	n/a	0	0	0
2329477	WORD	wordpools/wasnorm_wordpool_576.txt	LTP393	ltpFR2	12	12	SADDLE	1221	n/a	n/a	0	0	0
2332100	WORD	wordpools/wasnorm_wordpool_576.txt	LTP393	ltpFR2	12	12	BULLET	194	n/a	n/a	0	0	0
2334633	WORD	wordpools/wasnorm_wordpool_576.txt	LTP393	ltpFR2	12	12	SPOOL	1356	n/a	n/a	0	0	0
2337138	WORD	wordpools/wasnorm_wordpool_576.txt	LTP393	ltpFR2	12	12	FIDDLE	561	n/a	n/a	0	0	0
2339612	WORD	wordpools/wasnorm_wordpool_576.txt	LTP393	ltpFR2	12	12	BACON	67	n/a	n/a	0	0	0
2342043	WORD	wordpools/wasnorm_wordpool_576.txt	LTP393	ltpFR2	12	12	NOTEBOOK	959	n/a	n/a	0	0	0
2344651	WORD	wordpools/wasnorm_wordpool_576.txt	LTP393	ltpFR2	12	12	BRIEFCASE	175	n/a	n/a	0	0	0
2347132	WORD	wordpools/wasnorm_wordpool_576.txt	LTP393	ltpFR2	12	12	RAFT	1159	n/a	n/a	0	0	0
2349889	WORD	wordpools/wasnorm_wordpool_576.txt	LTP393	ltpFR2	12	12	PLAZA	1088	n/a	n/a	0	0	0
2352614	WORD	wordpools/wasnorm_wordpool_576.txt	LTP393	ltpFR2	12	12	FRECKLE	602	n/a	n/a	0	0	0
2355304	WORD	wordpools/wasnorm_wordpool_576.txt	LTP393	ltpFR2	12	12	VIKING	1565	n/a	n/a	0	0	0
2357761	WORD	wordpools/wasnorm_wordpool_576.txt	LTP393	ltpFR2	12	12	PORK	1108	n/a	n/a	0	0	0
2360544	WORD	wordpools/wasnorm_wordpool_576.txt	LTP393	ltpFR2	12	12	CRATER	400	n/a	n/a	0	0	0
2363125	WORD	wordpools/wasnorm_wordpool_576.txt	LTP393	ltpFR2	12	12	SUNRISE	1407	n/a	n/a	0	0	0
2365591	WORD	wordpools/wasnorm_wordpool_576.txt	LTP393	ltpFR2	12	12	APPLE	33	n/a	n/a	0	0	0
2368364	WORD	wordpools/wasnorm_wordpool_576.txt	LTP393	ltpFR2	12	12	LIVER	833	n/a	n/a	0	0	0
2369969	START	n/a	LTP393	ltpFR2	12	n/a	n/a	n/a	18	n/a	n/a	n/a	n/a
2370876	DISTRACTOR	n/a	LTP393	ltpFR2	12	12	n/a	n/a	n/a	n/a	0	0	0
2370879	PROB	n/a	LTP393	ltpFR2	12	n/a	n/a	n/a	18	13	4	3	6
2372951	PROB	n/a	LTP393	ltpFR2	12	n/a	n/a	n/a	18	24	8	8	8
2374363	PROB	n/a	LTP393	ltpFR2	12	n/a	n/a	n/a	18	17	4	6	7
2376428	PROB	n/a	LTP393	ltpFR2	12	n/a	n/a	n/a	18	13	7	4	2
2379704	PROB	n/a	LTP393	ltpFR2	12	n/a	n/a	n/a	18	24	8	9	7
2382360	PROB	n/a	LTP393	ltpFR2	12	n/a	n/a	n/a	18	12	3	5	4
2388786	PROB	n/a	LTP393	ltpFR2	12	n/a	n/a	n/a	18	18	6	7	5
2390841	PROB	n/a	LTP393	ltpFR2	12	n/a	n/a	n/a	18	11	5	4	2
2392869	STOP	n/a	LTP393	ltpFR2	12	n/a	n/a	n/a	18	n/a	n/a	n/a	n/a
2395872	REC_START	n/a	LTP393	ltpFR2	12	12	n/a	n/a	n/a	n/a	0	0	0
2396657	REC_WORD	wordpools/wasnorm_wordpool_576.txt	LTP393	ltpFR2	12	12	BULLET	194	n/a	n/a	0	0	0
2398972	REC_WORD	wordpools/wasnorm_wordpool_576.txt	LTP393	ltpFR2	12	12	NOTEBOOK	959	n/a	n/a	0	0	0
2400247	REC_WORD	wordpools/wasnorm_wordpool_576.txt	LTP393	ltpFR2	12	12	SUNSET	1408	n/a	n/a	0	0	0
2401747	REC_WORD	wordpools/wasnorm_wordpool_576.txt	LTP393	ltpFR2	12	12	SUNRISE	1407	n/a	n/a	0	0	0
2421400	REC_WORD	wordpools/wasnorm_wordpool_576.txt	LTP393	ltpFR2	12	12	RAFT	1159	n/a	n/a	0	0	0
2486307	WORD	wordpools/wasnorm_wordpool_576.txt	LTP393	ltpFR2	12	13	CONVICT	371	n/a	n/a	0	0	0
2489047	WORD	wordpools/wasnorm_wordpool_576.txt	LTP393	ltpFR2	12	13	BOUQUET	157	n/a	n/a	0	0	0
2491655	WORD	wordpools/wasnorm_wordpool_576.txt	LTP393	ltpFR2	12	13	CLOCK	325	n/a	n/a	0	0	0
2494236	WORD	wordpools/wasnorm_wordpool_576.txt	LTP393	ltpFR2	12	13	GAVEL	627	n/a	n/a	0	0	0
2496753	WORD	wordpools/wasnorm_wordpool_576.txt	LTP393	ltpFR2	12	13	DONKEY	484	n/a	n/a	0	0	0
2499527	WORD	wordpools/wasnorm_wordpool_576.txt	LTP393	ltpFR2	12	13	OUTLAW	989	n/a	n/a	0	0	0
2502316	WORD	wordpools/wasnorm_wordpool_576.txt	LTP393	ltpFR2	12	13	STICKER	1382	n/a	n/a	0	0	0
2505057	WORD	wordpools/wasnorm_wordpool_576.txt	LTP393	ltpFR2	12	13	LEOPARD	812	n/a	n/a	0	0	0
2507699	WORD	wordpools/wasnorm_wordpool_576.txt	LTP393	ltpFR2	12	13	CYCLONE	431	n/a	n/a	0	0	0
2510346	WORD	wordpools/wasnorm_wordpool_576.txt	LTP393	ltpFR2	12	13	HOOD	714	n/a	n/a	0	0	0
2512920	WORD	wordpools/wasnorm_wordpool_576.txt	LTP393	ltpFR2	12	13	DASHBOARD	441	n/a	n/a	0	0	0
2515419	WORD	wordpools/wasnorm_wordpool_576.txt	LTP393	ltpFR2	12	13	BANKER	84	n/a	n/a	0	0	0
2518151	WORD	wordpools/wasnorm_wordpool_576.txt	LTP393	ltpFR2	12	13	PANTHER	1009	n/a	n/a	0	0	0
2520875	WORD	wordpools/wasnorm_wordpool_576.txt	LTP393	ltpFR2	12	13	GYMNAST	675	n/a	n/a	0	0	0
2523298	WORD	wordpools/wasnorm_wordpool_576.txt	LTP393	ltpFR2	12	13	MARSH	874	n/a	n/a	0	0	0
2525747	WORD	wordpools/wasnorm_wordpool_576.txt	LTP393	ltpFR2	12	13	CANAL	226	n/a	n/a	0	0	0
2528362	WORD	wordpools/wasnorm_wordpool_576.txt	LTP393	ltpFR2	12	13	STREAM	1392	n/a	n/a	0	0	0
2530776	WORD	wordpools/wasnorm_wordpool_576.txt	LTP393	ltpFR2	12	13	FRAME	600	n/a	n/a	0	0	0
2533443	WORD	wordpools/wasnorm_wordpool_576.txt	LTP393	ltpFR2	12	13	PUPIL	1143	n/a	n/a	0	0	0
2535932	WORD	wordpools/wasnorm_wordpool_576.txt	LTP393	ltpFR2	12	13	ORANGE	980	n/a	n/a	0	0	0
2538565	WORD	wordpools/wasnorm_wordpool_576.txt	LTP393	ltpFR2	12	13	DIME	466	n/a	n/a	0	0	0
2541012	WORD	wordpools/wasnorm_wordpool_576.txt	LTP393	ltpFR2	12	13	HOOK	715	n/a	n/a	0	0	0
2543487	WORD	wordpools/wasnorm_wordpool_576.txt	LTP393	ltpFR2	12	13	MAMMAL	861	n/a	n/a	0	0	0
2546276	WORD	wordpools/wasnorm_wordpool_576.txt	LTP393	ltpFR2	12	13	COTTAGE	384	n/a	n/a	0	0	0
2547881	START	n/a	LTP393	ltpFR2	12	n/a	n/a	n/a	19	n/a	n/a	n/a	n/a
2548770	DISTRACTOR	n/a	LTP393	ltpFR2	12	13	n/a	n/a	n/a	n/a	0	0	0
2548775	PROB	n/a	LTP393	ltpFR2	12	n/a	n/a	n/a	19	15	4	6	5
2551248	PROB	n/a	LTP393	ltpFR2	12	n/a	n/a	n/a	19	20	6	5	9
2555695	PROB	n/a	LTP393	ltpFR2	12	n/a	n/a	n/a	19	16	4	8	4
2558444	PROB	n/a	LTP393	ltpFR2	12	n/a	n/a	n/a	19	20	7	6	7
2561158	PROB	n/a	LTP393	ltpFR2	12	n/a	n/a	n/a	19	8	3	3	2
2566882	PROB	n/a	LTP393	ltpFR2	12	n/a	n/a	n/a	19	15	8	3	4
2571881	STOP	n/a	LTP393	ltpFR2	12	n/a	n/a	n/a	19	n/a	n/a	n/a	n/a
2573610	REC_START	n/a	LTP393	ltpFR2	12	13	n/a	n/a	n/a	n/a	0	0	0
2577787	REC_WORD	wordpools/wasnorm_wordpool_576.txt	LTP393	ltpFR2	12	13	MARSHLAND	-1	n/a	n/a	0	0	0
2580374	REC_WORD	wordpools/wasnorm_wordpool_576.txt	LTP393	ltpFR2	12	13	GYMNAST	675	n/a	n/a	0	0	0
2664044	WORD	wordpools/wasnorm_wordpool_576.txt	LTP393	ltpFR2	12	14	THREAD	1460	n/a	n/a	0	0	0
2666793	WORD	wordpools/wasnorm_wordpool_576.txt	LTP393	ltpFR2	12	14	YARN	1631	n/a	n/a	0	0	0
2669249	WORD	wordpools/wasnorm_wordpool_576.txt	LTP393	ltpFR2	12	14	ROCKET	1202	n/a	n/a	0	0	0
2672040	WORD	wordpools/wasnorm_wordpool_576.txt	LTP393	ltpFR2	12	14	CASKET	255	n/a	n/a	0	0	0
2674598	WORD	wordpools/wasnorm_wordpool_576.txt	LTP393	ltpFR2	12	14	QUAIL	1147	n/a	n/a	0	0	0
2677096	WORD	wordpools/wasnorm_wordpool_576.txt	LTP393	ltpFR2	12	14	DANDRUFF	439	n/a	n/a	0	0	0
2679895	WORD	wordpools/wasnorm_wordpool_576.txt	LTP393	ltpFR2	12	14	MONSTER	912	n/a	n/a	0	0	0
2682519	WORD	wordpools/wasnorm_wordpool_576.txt	LTP393	ltpFR2	12	14	MUMMY	932	n/a	n/a	0	0	0
2685084	WORD	wordpools/wasnorm_wordpool_576.txt	LTP393	ltpFR2	12	14	JUDGE	761	n/a	n/a	0	0	0
2687816	WORD	wordpools/wasnorm_wordpool_576.txt	LTP393	ltpFR2	12	14	PLIERS	1089	n/a	n/a	0	0	0
2690508	WORD	wordpools/wasnorm_wordpool_576.txt	LTP393	ltpFR2	12	14	TORTOISE	1486	n/a	n/a	0	0	0
2692988	WORD	wordpools/wasnorm_wordpool_576.txt	LTP393	ltpFR2	12	14	CHILD	299	n/a	n/a	0	0	0
2695705	WORD	wordpools/wasnorm_wordpool_576.txt	LTP393	ltpFR2	12	14	SHARK	1275	n/a	n/a	0	0	0
2698479	WORD	wordpools/wasnorm_wordpool_576.txt	LTP393	ltpFR2	12	14	CLAMP	316	n/a	n/a	0	0	0
2700960	WORD	wordpools/wasnorm_wordpool_576.txt	LTP393	ltpFR2	12	14	SNAKE	1333	n/a	n/a	0	0	0
2703426	WORD	wordpools/wasnorm_wordpool_576.txt	LTP393	ltpFR2	12	14	CHEST	295	n/a	n/a	0	0	0
2706032	WORD	wordpools/wasnorm_wordpool_576.txt	LTP393	ltpFR2	12	14	SEAGULL	1261	n/a	n/a	0	0	0
2708698	WORD	wordpools/wasnorm_wordpool_576.txt	LTP393	ltpFR2	12	14	GOBLIN	645	n/a	n/a	0	0	0
2711279	WORD	wordpools/wasnorm_wordpool_576.txt	LTP393	ltpFR2	12	14	COSTUME	383	n/a	n/a	0	0	0
2713911	WORD	wordpools/wasnorm_wordpool_576.txt	LTP393	ltpFR2	12	14	BEAST	108	n/a	n/a	0	0	0
2716586	WORD	wordpools/wasnorm_wordpool_576.txt	LTP393	ltpFR2	12	14	MAILMAN	858	n/a	n/a	0	0	0
2719267	WORD	wordpools/wasnorm_wordpool_576.txt	LTP393	ltpFR2	12	14	PACKAGE	997	n/a	n/a	0	0	0
2722025	WORD	wordpools/wasnorm_wordpool_576.txt	LTP393	ltpFR2	12	14	COMPASS	358	n/a	n/a	0	0	0
2724516	WORD	wordpools/wasnorm_wordpool_576.txt	LTP393	ltpFR2	12	14	INFANT	737	n/a	n/a	0	0	0
2726120	START	n/a	LTP393	ltpFR2	12	n/a	n/a	n/a	20	n/a	n/a	n/a	n/a
2727291	DISTRACTOR	n/a	LTP393	ltpFR2	12	14	n/a	n/a	n/a	n/a	0	0	0
2750119	STOP	n/a	LTP393	ltpFR2	12	n/a	n/a	n/a	20	n/a	n/a	n/a	n/a
2751890	REC_START	n/a	LTP393	ltpFR2	12	14	n/a	n/a	n/a	n/a	0	0	0
2755284	REC_WORD_VV	wordpools/wasnorm_wordpool_576.txt	LTP393	ltpFR2	12	14	<>	-1	n/a	n/a	0	0	0
2842316	DISTRACTOR	n/a	LTP393	ltpFR2	12	15	n/a	n/a	n/a	n/a	0	0	0
2842316	START	n/a	LTP393	ltpFR2	12	n/a	n/a	n/a	21	n/a	n/a	n/a	n/a
2842332	PROB	n/a	LTP393	ltpFR2	12	n/a	n/a	n/a	21	11	4	3	4
2845592	PROB	n/a	LTP393	ltpFR2	12	n/a	n/a	n/a	21	7	2	3	2
2848173	PROB	n/a	LTP393	ltpFR2	12	n/a	n/a	n/a	21	18	9	5	4
2849628	PROB	n/a	LTP393	ltpFR2	12	n/a	n/a	n/a	21	20	9	7	4
2851734	PROB	n/a	LTP393	ltpFR2	12	n/a	n/a	n/a	21	1	5	8	5
2853863	PROB	n/a	LTP393	ltpFR2	12	n/a	n/a	n/a	21	20	8	8	4
2855661	PROB	n/a	LTP393	ltpFR2	12	n/a	n/a	n/a	21	17	2	6	9
2857466	PROB	n/a	LTP393	ltpFR2	12	n/a	n/a	n/a	21	14	4	3	7
2858719	PROB	n/a	LTP393	ltpFR2	12	n/a	n/a	n/a	21	15	4	8	3
2860874	PROB	n/a	LTP393	ltpFR2	12	n/a	n/a	n/a	21	17	1	8	8
2863105	PROB	n/a	LTP393	ltpFR2	12	n/a	n/a	n/a	21	19	3	7	9
2865510	STOP	n/a	LTP393	ltpFR2	12	n/a	n/a	n/a	21	n/a	n/a	n/a	n/a
2867366	WORD	wordpools/wasnorm_wordpool_576.txt	LTP393	ltpFR2	12	15	CHAMPAGNE	278	n/a	n/a	0	0	0
2870040	WORD	wordpools/wasnorm_wordpool_576.txt	LTP393	ltpFR2	12	15	BARLEY	88	n/a	n/a	0	0	0
2872657	WORD	wordpools/wasnorm_wordpool_576.txt	LTP393	ltpFR2	12	15	SCOTCH	1251	n/a	n/a	0	0	0
2875238	WORD	wordpools/wasnorm_wordpool_576.txt	LTP393	ltpFR2	12	15	POCKET	1093	n/a	n/a	0	0	0
2877754	WORD	wordpools/wasnorm_wordpool_576.txt	LTP393	ltpFR2	12	15	RAZOR	1171	n/a	n/a	0	0	0
2880528	WORD	wordpools/wasnorm_wordpool_576.txt	LTP393	ltpFR2	12	15	KNIFE	785	n/a	n/a	0	0	0
2883000	WORD	wordpools/wasnorm_wordpool_576.txt	LTP393	ltpFR2	12	15	BRANCH	168	n/a	n/a	0	0	0
2885808	WORD	wordpools/wasnorm_wordpool_576.txt	LTP393	ltpFR2	12	15	MAPLE	866	n/a	n/a	0	0	0
2888315	WORD	wordpools/wasnorm_wordpool_576.txt	LTP393	ltpFR2	12	15	GLOVE	642	n/a	n/a	0	0	0
2891047	WORD	wordpools/wasnorm_wordpool_576.txt	LTP393	ltpFR2	12	15	CATTLE	261	n/a	n/a	0	0	0
2893454	WORD	wordpools/wasnorm_wordpool_576.txt	LTP393	ltpFR2	12	15	WASHER	1592	n/a	n/a	0	0	0
2895885	WORD	wordpools/wasnorm_wordpool_576.txt	LTP393	ltpFR2	12	15	PAPER	1011	n/a	n/a	0	0	0
2898593	WORD	wordpools/wasnorm_wordpool_576.txt	LTP393	ltpFR2	12	15	WRIST	1626	n/a	n/a	0	0	0
2901066	WORD	wordpools/wasnorm_wordpool_576.txt	LTP393	ltpFR2	12	15	LAPEL	800	n/a	n/a	0	0	0
2903674	WORD	wordpools/wasnorm_wordpool_576.txt	LTP393	ltpFR2	12	15	NEUTRON	947	n/a	n/a	0	0	0
2906196	WORD	wordpools/wasnorm_wordpool_576.txt	LTP393	ltpFR2	12	15	POLICE	1098	n/a	n/a	0	0	0
2908737	WORD	wordpools/wasnorm_wordpool_576.txt	LTP393	ltpFR2	12	15	PARTNER	1017	n/a	n/a	0	0	0
2911403	WORD	wordpools/wasnorm_wordpool_576.txt	LTP393	ltpFR2	12	15	DUST	508	n/a	n/a	0	0	0
2913858	WORD	wordpools/wasnorm_wordpool_576.txt	LTP393	ltpFR2	12	15	BRANDY	169	n/a	n/a	0	0	0
2916583	WORD	wordpools/wasnorm_wordpool_576.txt	LTP393	ltpFR2	12	15	GARDEN	623	n/a	n/a	0	0	0
2918997	WORD	wordpools/wasnorm_wordpool_576.txt	LTP393	ltpFR2	12	15	SNAIL	1332	n/a	n/a	0	0	0
2921788	WORD	wordpools/wasnorm_wordpool_576.txt	LTP393	ltpFR2	12	15	QUEEN	1149	n/a	n/a	0	0	0
2924513	WORD	wordpools/wasnorm_wordpool_576.txt	LTP393	ltpFR2	12	15	HELMET	702	n/a	n/a	0	0	0
2927286	WORD	wordpools/wasnorm_wordpool_576.txt	LTP393	ltpFR2	12	15	SHOVEL	1295	n/a	n/a	0	0	0
2928891	START	n/a	LTP393	ltpFR2	12	n/a	n/a	n/a	22	n/a	n/a	n/a	n/a
2929957	DISTRACTOR	n/a	LTP393	ltpFR2	12	15	n/a	n/a	n/a	n/a	0	0	0
2929960	PROB	n/a	LTP393	ltpFR2	12	n/a	n/a	n/a	22	15	5	8	2
2933937	PROB	n/a	LTP393	ltpFR2	12	n/a	n/a	n/a	22	10	5	3	2
2937004	PROB	n/a	LTP393	ltpFR2	12	n/a	n/a	n/a	22	20	5	8	7
2938859	PROB	n/a	LTP393	ltpFR2	12	n/a	n/a	n/a	22	14	2	4	8
2940656	PROB	n/a	LTP393	ltpFR2	12	n/a	n/a	n/a	22	13	7	4	2
2943931	PROB	n/a	LTP393	ltpFR2	12	n/a	n/a	n/a	22	10	6	2	2
2945378	PROB	n/a	LTP393	ltpFR2	12	n/a	n/a	n/a	22	14	2	3	9
2947675	PROB	n/a	LTP393	ltpFR2	12	n/a	n/a	n/a	22	14	4	7	3
2949380	PROB	n/a	LTP393	ltpFR2	12	n/a	n/a	n/a	22	158	8	6	4
2952891	STOP	n/a	LTP393	ltpFR2	12	n/a	n/a	n/a	22	n/a	n/a	n/a	n/a
2954753	REC_START	n/a	LTP393	ltpFR2	12	15	n/a	n/a	n/a	n/a	0	0	0
2959781	REC_WORD_VV	wordpools/wasnorm_wordpool_576.txt	LTP393	ltpFR2	12	15	<>	-1	n/a	n/a	0	0	0
3045179	DISTRACTOR	n/a	LTP393	ltpFR2	12	16	n/a	n/a	n/a	n/a	0	0	0
3045179	START	n/a	LTP393	ltpFR2	12	n/a	n/a	n/a	23	n/a	n/a	n/a	n/a
3069178	STOP	n/a	LTP393	ltpFR2	12	n/a	n/a	n/a	23	n/a	n/a	n/a	n/a
3070146	WORD	wordpools/wasnorm_wordpool_576.txt	LTP393	ltpFR2	12	16	HAND	683	n/a	n/a	0	0	0
3072595	WORD	wordpools/wasnorm_wordpool_576.txt	LTP393	ltpFR2	12	16	BUG	187	n/a	n/a	0	0	0
3075327	WORD	wordpools/wasnorm_wordpool_576.txt	LTP393	ltpFR2	12	16	RUG	1215	n/a	n/a	0	0	0
3077842	WORD	wordpools/wasnorm_wordpool_576.txt	LTP393	ltpFR2	12	16	MISTER	901	n/a	n/a	0	0	0
3080416	WORD	wordpools/wasnorm_wordpool_576.txt	LTP393	ltpFR2	12	16	TOASTER	1472	n/a	n/a	0	0	0
3082989	WORD	wordpools/wasnorm_wordpool_576.txt	LTP393	ltpFR2	12	16	SODA	1341	n/a	n/a	0	0	0
3085455	WORD	wordpools/wasnorm_wordpool_576.txt	LTP393	ltpFR2	12	16	STOVE	1388	n/a	n/a	0	0	0
3088153	WORD	wordpools/wasnorm_wordpool_576.txt	LTP393	ltpFR2	12	16	LADY	794	n/a	n/a	0	0	0
3090935	WORD	wordpools/wasnorm_wordpool_576.txt	LTP393	ltpFR2	12	16	MARKET	871	n/a	n/a	0	0	0
3093669	WORD	wordpools/wasnorm_wordpool_576.txt	LTP393	ltpFR2	12	16	SHOULDER	1294	n/a	n/a	0	0	0
3096199	WORD	wordpools/wasnorm_wordpool_576.txt	LTP393	ltpFR2	12	16	COUCH	386	n/a	n/a	0	0	0
3098890	WORD	wordpools/wasnorm_wordpool_576.txt	LTP393	ltpFR2	12	16	SCALLOP	1242	n/a	n/a	0	0	0
3101523	WORD	wordpools/wasnorm_wordpool_576.txt	LTP393	ltpFR2	12	16	SHRUB	1299	n/a	n/a	0	0	0
3104054	WORD	wordpools/wasnorm_wordpool_576.txt	LTP393	ltpFR2	12	16	FOREST	593	n/a	n/a	0	0	0
3106470	WORD	wordpools/wasnorm_wordpool_576.txt	LTP393	ltpFR2	12	16	CRUTCH	417	n/a	n/a	0	0	0
3108892	WORD	wordpools/wasnorm_wordpool_576.txt	LTP393	ltpFR2	12	16	LASER	801	n/a	n/a	0	0	0
3111357	WORD	wordpools/wasnorm_wordpool_576.txt	LTP393	ltpFR2	12	16	XEROX	1628	n/a	n/a	0	0	0
3113772	WORD	wordpools/wasnorm_wordpool_576.txt	LTP393	ltpFR2	12	16	MOTEL	919	n/a	n/a	0	0	0
3116488	WORD	wordpools/wasnorm_wordpool_576.txt	LTP393	ltpFR2	12	16	STONE	1385	n/a	n/a	0	0	0
3119019	WORD	wordpools/wasnorm_wordpool_576.txt	LTP393	ltpFR2	12	16	SCULPTURE	1258	n/a	n/a	0	0	0
3121793	WORD	wordpools/wasnorm_wordpool_576.txt	LTP393	ltpFR2	12	16	CARRIAGE	248	n/a	n/a	0	0	0
3124510	WORD	wordpools/wasnorm_wordpool_576.txt	LTP393	ltpFR2	12	16	COWBOY	395	n/a	n/a	0	0	0
3127166	WORD	wordpools/wasnorm_wordpool_576.txt	LTP393	ltpFR2	12	16	DAUGHTER	442	n/a	n/a	0	0	0
3129649	WORD	wordpools/wasnorm_wordpool_576.txt	LTP393	ltpFR2	12	16	CUSTARD	429	n/a	n/a	0	0	0
3131252	START	n/a	LTP393	ltpFR2	12	n/a	n/a	n/a	24	n/a	n/a	n/a	n/a
3132339	DISTRACTOR	n/a	LTP393	ltpFR2	12	16	n/a	n/a	n/a	n/a	0	0	0
3155252	STOP	n/a	LTP393	ltpFR2	12	n/a	n/a	n/a	24	n/a	n/a	n/a	n/a
3157156	REC_START	n/a	LTP393	ltpFR2	12	16	n/a	n/a	n/a	n/a	0	0	0
3232156	REC_WORD_VV	wordpools/wasnorm_wordpool_576.txt	LTP393	ltpFR2	12	16	<>	-1	n/a	n/a	0	0	0
3233696	REST_REWET	n/a	LTP393	ltpFR2	12	16	n/a	n/a	n/a	n/a	0	0	0
3565898	DISTRACTOR	n/a	LTP393	ltpFR2	12	17	n/a	n/a	n/a	n/a	0	0	0
3565898	START	n/a	LTP393	ltpFR2	12	n/a	n/a	n/a	25	n/a	n/a	n/a	n/a
3565914	PROB	n/a	LTP393	ltpFR2	12	n/a	n/a	n/a	25	11	5	5	1
3567962	PROB	n/a	LTP393	ltpFR2	12	n/a	n/a	n/a	25	18	3	6	9
3570578	PROB	n/a	LTP393	ltpFR2	12	n/a	n/a	n/a	25	17	6	4	7
3571939	PROB	n/a	LTP393	ltpFR2	12	n/a	n/a	n/a	25	25	8	9	8
3575433	PROB	n/a	LTP393	ltpFR2	12	n/a	n/a	n/a	25	13	3	1	9
3577405	PROB	n/a	LTP393	ltpFR2	12	n/a	n/a	n/a	25	11	2	6	3
3580337	PROB	n/a	LTP393	ltpFR2	12	n/a	n/a	n/a	25	18	5	9	4
3584658	PROB	n/a	LTP393	ltpFR2	12	n/a	n/a	n/a	25	4	2	1	1
3585685	PROB	n/a	LTP393	ltpFR2	12	n/a	n/a	n/a	25	15	1	9	4
3589898	STOP	n/a	LTP393	ltpFR2	12	n/a	n/a	n/a	25	n/a	n/a	n/a	n/a
3590782	WORD	wordpools/wasnorm_wordpool_576.txt	LTP393	ltpFR2	12	17	MILDEW	893	n/a	n/a	0	0	0
3593490	WORD	wordpools/wasnorm_wordpool_576.txt	LTP393	ltpFR2	12	17	CLAM	315	n/a	n/a	0	0	0
3595962	WORD	wordpools/wasnorm_wordpool_576.txt	LTP393	ltpFR2	12	17	CHURCH	307	n/a	n/a	0	0	0
3598445	WORD	wordpools/wasnorm_wordpool_576.txt	LTP393	ltpFR2	12	17	RADISH	1158	n/a	n/a	0	0	0
3601126	WORD	wordpools/wasnorm_wordpool_576.txt	LTP393	ltpFR2	12	17	MOP	916	n/a	n/a	0	0	0
3603767	WORD	wordpools/wasnorm_wordpool_576.txt	LTP393	ltpFR2	12	17	DUSTPAN	509	n/a	n/a	0	0	0
3606567	WORD	wordpools/wasnorm_wordpool_576.txt	LTP393	ltpFR2	12	17	PLAID	1080	n/a	n/a	0	0	0
3609298	WORD	wordpools/wasnorm_wordpool_576.txt	LTP393	ltpFR2	12	17	WORLD	1622	n/a	n/a	0	0	0
3612047	WORD	wordpools/wasnorm_wordpool_576.txt	LTP393	ltpFR2	12	17	SLIME	1327	n/a	n/a	0	0	0
3614530	WORD	wordpools/wasnorm_wordpool_576.txt	LTP393	ltpFR2	12	17	CABBAGE	210	n/a	n/a	0	0	0
3616977	WORD	wordpools/wasnorm_wordpool_576.txt	LTP393	ltpFR2	12	17	SLUG	1329	n/a	n/a	0	0	0
3619602	WORD	wordpools/wasnorm_wordpool_576.txt	LTP393	ltpFR2	12	17	SUITCASE	1403	n/a	n/a	0	0	0
3622024	WORD	wordpools/wasnorm_wordpool_576.txt	LTP393	ltpFR2	12	17	HOUND	724	n/a	n/a	0	0	0
3624732	WORD	wordpools/wasnorm_wordpool_576.txt	LTP393	ltpFR2	12	17	CABIN	211	n/a	n/a	0	0	0
3627506	WORD	wordpools/wasnorm_wordpool_576.txt	LTP393	ltpFR2	12	17	GROUND	666	n/a	n/a	0	0	0
3630046	WORD	wordpools/wasnorm_wordpool_576.txt	LTP393	ltpFR2	12	17	TREAT	1501	n/a	n/a	0	0	0
3632704	WORD	wordpools/wasnorm_wordpool_576.txt	LTP393	ltpFR2	12	17	CROSS	413	n/a	n/a	0	0	0
3635201	WORD	wordpools/wasnorm_wordpool_576.txt	LTP393	ltpFR2	12	17	GAZELLE	628	n/a	n/a	0	0	0
3637675	WORD	wordpools/wasnorm_wordpool_576.txt	LTP393	ltpFR2	12	17	ZEBRA	1635	n/a	n/a	0	0	0
3640223	WORD	wordpools/wasnorm_wordpool_576.txt	LTP393	ltpFR2	12	17	BOX	159	n/a	n/a	0	0	0
3642822	WORD	wordpools/wasnorm_wordpool_576.txt	LTP393	ltpFR2	12	17	SCARF	1246	n/a	n/a	0	0	0
3645270	WORD	wordpools/wasnorm_wordpool_576.txt	LTP393	ltpFR2	12	17	MACHINE	852	n/a	n/a	0	0	0
3648027	WORD	wordpools/wasnorm_wordpool_576.txt	LTP393	ltpFR2	12	17	PASTA	1021	n/a	n/a	0	0	0
3650669	WORD	wordpools/wasnorm_wordpool_576.txt	LTP393	ltpFR2	12	17	KNAPSACK	783	n/a	n/a	0	0	0
3652272	START	n/a	LTP393	ltpFR2	12	n/a	n/a	n/a	26	n/a	n/a	n/a	n/a
3653096	DISTRACTOR	n/a	LTP393	ltpFR2	12	17	n/a	n/a	n/a	n/a	0	0	0
3653099	PROB	n/a	LTP393	ltpFR2	12	n/a	n/a	n/a	26	14	9	2	3
3655999	PROB	n/a	LTP393	ltpFR2	12	n/a	n/a	n/a	26	4	1	1	2
3657571	PROB	n/a	LTP393	ltpFR2	12	n/a	n/a	n/a	26	10	3	3	4
3659258	PROB	n/a	LTP393	ltpFR2	12	n/a	n/a	n/a	26	8	5	1	2
3661607	PROB	n/a	LTP393	ltpFR2	12	n/a	n/a	n/a	26	12	3	1	8
3663754	PROB	n/a	LTP393	ltpFR2	12	n/a	n/a	n/a	26	13	4	8	1
3665642	PROB	n/a	LTP393	ltpFR2	12	n/a	n/a	n/a	26	9	3	2	4
3667581	PROB	n/a	LTP393	ltpFR2	12	n/a	n/a	n/a	26	15	4	7	4
3669326	PROB	n/a	LTP393	ltpFR2	12	n/a	n/a	n/a	26	11	1	2	8
3671816	PROB	n/a	LTP393	ltpFR2	12	n/a	n/a	n/a	26	15	8	2	5
3676272	STOP	n/a	LTP393	ltpFR2	12	n/a	n/a	n/a	26	n/a	n/a	n/a	n/a
3678176	REC_START	n/a	LTP393	ltpFR2	12	17	n/a	n/a	n/a	n/a	0	0	0
3678778	REC_WORD	wordpools/wasnorm_wordpool_576.txt	LTP393	ltpFR2	12	17	GAZELLE	628	n/a	n/a	0	0	0
3679922	REC_WORD	wordpools/wasnorm_wordpool_576.txt	LTP393	ltpFR2	12	17	ZEBRA	1635	n/a	n/a	0	0	0
3681787	REC_WORD	wordpools/wasnorm_wordpool_576.txt	LTP393	ltpFR2	12	17	CLAM	315	n/a	n/a	0	0	0
3683754	REC_WORD	wordpools/wasnorm_wordpool_576.txt	LTP393	ltpFR2	12	17	MILDEW	893	n/a	n/a	0	0	0
3689020	REC_WORD	wordpools/wasnorm_wordpool_576.txt	LTP393	ltpFR2	12	17	HOUND	724	n/a	n/a	0	0	0
3693091	REC_WORD	wordpools/wasnorm_wordpool_576.txt	LTP393	ltpFR2	12	17	GROUND	666	n/a	n/a	0	0	0
3697582	REC_WORD	wordpools/wasnorm_wordpool_576.txt	LTP393	ltpFR2	12	17	CROSS	413	n/a	n/a	0	0	0
3768603	DISTRACTOR	n/a	LTP393	ltpFR2	12	18	n/a	n/a	n/a	n/a	0	0	0
3768603	START	n/a	LTP393	ltpFR2	12	n/a	n/a	n/a	27	n/a	n/a	n/a	n/a
3768620	PROB	n/a	LTP393	ltpFR2	12	n/a	n/a	n/a	27	21	6	8	7
3783225	PROB	n/a	LTP393	ltpFR2	12	n/a	n/a	n/a	27	20	4	8	8
3786476	PROB	n/a	LTP393	ltpFR2	12	n/a	n/a	n/a	27	11	2	2	7
3788415	PROB	n/a	LTP393	ltpFR2	12	n/a	n/a	n/a	27	14	3	2	9
3790018	PROB	n/a	LTP393	ltpFR2	12	n/a	n/a	n/a	27	11	3	4	4
3791867	STOP	n/a	LTP393	ltpFR2	12	n/a	n/a	n/a	27	n/a	n/a	n/a	n/a
3793654	WORD	wordpools/wasnorm_wordpool_576.txt	LTP393	ltpFR2	12	18	ELBOW	520	n/a	n/a	0	0	0
3796428	WORD	wordpools/wasnorm_wordpool_576.txt	LTP393	ltpFR2	12	18	ARM	38	n/a	n/a	0	0	0
3799118	WORD	wordpools/wasnorm_wordpool_576.txt	LTP393	ltpFR2	12	18	SUMMIT	1405	n/a	n/a	0	0	0
3801808	WORD	wordpools/wasnorm_wordpool_576.txt	LTP393	ltpFR2	12	18	LIGHTNING	820	n/a	n/a	0	0	0
3804290	WORD	wordpools/wasnorm_wordpool_576.txt	LTP393	ltpFR2	12	18	GRAPE	654	n/a	n/a	0	0	0
3806897	WORD	wordpools/wasnorm_wordpool_576.txt	LTP393	ltpFR2	12	18	CRAYON	401	n/a	n/a	0	0	0
3809455	WORD	wordpools/wasnorm_wordpool_576.txt	LTP393	ltpFR2	12	18	RACKET	1155	n/a	n/a	0	0	0
3811952	WORD	wordpools/wasnorm_wordpool_576.txt	LTP393	ltpFR2	12	18	DENTIST	447	n/a	n/a	0	0	0
3814535	WORD	wordpools/wasnorm_wordpool_576.txt	LTP393	ltpFR2	12	18	ROBIN	1199	n/a	n/a	0	0	0
3817292	WORD	wordpools/wasnorm_wordpool_576.txt	LTP393	ltpFR2	12	18	SHERIFF	1284	n/a	n/a	0	0	0
3819807	WORD	wordpools/wasnorm_wordpool_576.txt	LTP393	ltpFR2	12	18	TROUT	1511	n/a	n/a	0	0	0
3822381	WORD	wordpools/wasnorm_wordpool_576.txt	LTP393	ltpFR2	12	18	WORKER	1621	n/a	n/a	0	0	0
3825138	WORD	wordpools/wasnorm_wordpool_576.txt	LTP393	ltpFR2	12	18	SHELTER	1282	n/a	n/a	0	0	0
3827862	WORD	wordpools/wasnorm_wordpool_576.txt	LTP393	ltpFR2	12	18	CEILING	265	n/a	n/a	0	0	0
3830620	WORD	wordpools/wasnorm_wordpool_576.txt	LTP393	ltpFR2	12	18	WOMAN	1620	n/a	n/a	0	0	0
3833394	WORD	wordpools/wasnorm_wordpool_576.txt	LTP393	ltpFR2	12	18	FLUTE	585	n/a	n/a	0	0	0
3836176	WORD	wordpools/wasnorm_wordpool_576.txt	LTP393	ltpFR2	12	18	LILY	821	n/a	n/a	0	0	0
3838684	WORD	wordpools/wasnorm_wordpool_576.txt	LTP393	ltpFR2	12	18	REPORT	1184	n/a	n/a	0	0	0
3841382	WORD	wordpools/wasnorm_wordpool_576.txt	LTP393	ltpFR2	12	18	JOURNAL	760	n/a	n/a	0	0	0
3843805	WORD	wordpools/wasnorm_wordpool_576.txt	LTP393	ltpFR2	12	18	CLIMBER	323	n/a	n/a	0	0	0
3846571	WORD	wordpools/wasnorm_wordpool_576.txt	LTP393	ltpFR2	12	18	HEDGE	699	n/a	n/a	0	0	0
3849019	WORD	wordpools/wasnorm_wordpool_576.txt	LTP393	ltpFR2	12	18	ATLAS	53	n/a	n/a	0	0	0
3851776	WORD	wordpools/wasnorm_wordpool_576.txt	LTP393	ltpFR2	12	18	PIGEON	1065	n/a	n/a	0	0	0
3854249	WORD	wordpools/wasnorm_wordpool_576.txt	LTP393	ltpFR2	12	18	BROOK	177	n/a	n/a	0	0	0
3855854	START	n/a	LTP393	ltpFR2	12	n/a	n/a	n/a	28	n/a	n/a	n/a	n/a
3857031	DISTRACTOR	n/a	LTP393	ltpFR2	12	18	n/a	n/a	n/a	n/a	0	0	0
3857040	PROB	n/a	LTP393	ltpFR2	12	n/a	n/a	n/a	28	8	1	5	2
3862948	PROB	n/a	LTP393	ltpFR2	12	n/a	n/a	n/a	28	18	1	8	9
3864828	PROB	n/a	LTP393	ltpFR2	12	n/a	n/a	n/a	28	14	9	1	4
3866173	PROB	n/a	LTP393	ltpFR2	12	n/a	n/a	n/a	28	19	5	5	9
3867745	PROB	n/a	LTP393	ltpFR2	12	n/a	n/a	n/a	28	10	5	3	2
3869567	PROB	n/a	LTP393	ltpFR2	12	n/a	n/a	n/a	28	10	2	1	7
3871455	PROB	n/a	LTP393	ltpFR2	12	n/a	n/a	n/a	28	15	2	4	9
3873527	PROB	n/a	LTP393	ltpFR2	12	n/a	n/a	n/a	28	13	2	9	2
3875214	PROB	n/a	LTP393	ltpFR2	12	n/a	n/a	n/a	28	12	7	3	2
3876860	PROB	n/a	LTP393	ltpFR2	12	n/a	n/a	n/a	28	15	6	2	7
3878719	STOP	n/a	LTP393	ltpFR2	12	n/a	n/a	n/a	28	n/a	n/a	n/a	n/a
3881591	REC_START	n/a	LTP393	ltpFR2	12	18	n/a	n/a	n/a	n/a	0	0	0
3882993	REC_WORD	wordpools/wasnorm_wordpool_576.txt	LTP393	ltpFR2	12	18	ELBOW	520	n/a	n/a	0	0	0
3884177	REC_WORD	wordpools/wasnorm_wordpool_576.txt	LTP393	ltpFR2	12	18	ARM	38	n/a	n/a	0	0	0
3885643	REC_WORD	wordpools/wasnorm_wordpool_576.txt	LTP393	ltpFR2	12	18	SUMMIT	1405	n/a	n/a	0	0	0
3887001	REC_WORD	wordpools/wasnorm_wordpool_576.txt	LTP393	ltpFR2	12	18	LIGHTNING	820	n/a	n/a	0	0	0
3888706	REC_WORD	wordpools/wasnorm_wordpool_576.txt	LTP393	ltpFR2	12	18	CANYON	235	n/a	n/a	0	0	0
3890950	REC_WORD	wordpools/wasnorm_wordpool_576.txt	LTP393	ltpFR2	12	18	REPORT	1184	n/a	n/a	0	0	0
3892891	REC_WORD	wordpools/wasnorm_wordpool_576.txt	LTP393	ltpFR2	12	18	JOURNAL	760	n/a	n/a	0	0	0
3896924	REC_WORD	wordpools/wasnorm_wordpool_576.txt	LTP393	ltpFR2	12	18	CLIMBER	323	n/a	n/a	0	0	0
3972025	DISTRACTOR	n/a	LTP393	ltpFR2	12	19	n/a	n/a	n/a	n/a	0	0	0
3972025	START	n/a	LTP393	ltpFR2	12	n/a	n/a	n/a	29	n/a	n/a	n/a	n/a
3972042	PROB	n/a	LTP393	ltpFR2	12	n/a	n/a	n/a	29	16	2	8	6
3986607	PROB	n/a	LTP393	ltpFR2	12	n/a	n/a	n/a	29	8	3	3	2
3988729	PROB	n/a	LTP393	ltpFR2	12	n/a	n/a	n/a	29	17	5	6	6
3990542	PROB	n/a	LTP393	ltpFR2	12	n/a	n/a	n/a	29	18	8	7	3
3992213	PROB	n/a	LTP393	ltpFR2	12	n/a	n/a	n/a	29	10	1	8	1
3993467	PROB	n/a	LTP393	ltpFR2	12	n/a	n/a	n/a	29	15	5	3	7
3994682	STOP	n/a	LTP393	ltpFR2	12	n/a	n/a	n/a	29	n/a	n/a	n/a	n/a
3997168	WORD	wordpools/wasnorm_wordpool_576.txt	LTP393	ltpFR2	12	19	FRUIT	610	n/a	n/a	0	0	0
3999650	WORD	wordpools/wasnorm_wordpool_576.txt	LTP393	ltpFR2	12	19	BOARD	143	n/a	n/a	0	0	0
4002181	WORD	wordpools/wasnorm_wordpool_576.txt	LTP393	ltpFR2	12	19	KETCHUP	771	n/a	n/a	0	0	0
4004656	WORD	wordpools/wasnorm_wordpool_576.txt	LTP393	ltpFR2	12	19	MUSTARD	935	n/a	n/a	0	0	0
4007405	WORD	wordpools/wasnorm_wordpool_576.txt	LTP393	ltpFR2	12	19	ACTOR	5	n/a	n/a	0	0	0
4010094	WORD	wordpools/wasnorm_wordpool_576.txt	LTP393	ltpFR2	12	19	BRAKE	166	n/a	n/a	0	0	0
4012577	WORD	wordpools/wasnorm_wordpool_576.txt	LTP393	ltpFR2	12	19	GIRL	637	n/a	n/a	0	0	0
4015024	WORD	wordpools/wasnorm_wordpool_576.txt	LTP393	ltpFR2	12	19	ATOM	55	n/a	n/a	0	0	0
4017565	WORD	wordpools/wasnorm_wordpool_576.txt	LTP393	ltpFR2	12	19	PISTON	1076	n/a	n/a	0	0	0
4020096	WORD	wordpools/wasnorm_wordpool_576.txt	LTP393	ltpFR2	12	19	TRIBE	1505	n/a	n/a	0	0	0
4022820	WORD	wordpools/wasnorm_wordpool_576.txt	LTP393	ltpFR2	12	19	HEADBAND	696	n/a	n/a	0	0	0
4025370	WORD	wordpools/wasnorm_wordpool_576.txt	LTP393	ltpFR2	12	19	BODY	145	n/a	n/a	0	0	0
4027992	WORD	wordpools/wasnorm_wordpool_576.txt	LTP393	ltpFR2	12	19	BLOUSE	139	n/a	n/a	0	0	0
4030508	WORD	wordpools/wasnorm_wordpool_576.txt	LTP393	ltpFR2	12	19	ITEM	746	n/a	n/a	0	0	0
4033273	WORD	wordpools/wasnorm_wordpool_576.txt	LTP393	ltpFR2	12	19	SWORD	1423	n/a	n/a	0	0	0
4035748	WORD	wordpools/wasnorm_wordpool_576.txt	LTP393	ltpFR2	12	19	FREEZER	604	n/a	n/a	0	0	0
4038228	WORD	wordpools/wasnorm_wordpool_576.txt	LTP393	ltpFR2	12	19	SLOPE	1328	n/a	n/a	0	0	0
4040961	WORD	wordpools/wasnorm_wordpool_576.txt	LTP393	ltpFR2	12	19	CATCHER	258	n/a	n/a	0	0	0
4043410	WORD	wordpools/wasnorm_wordpool_576.txt	LTP393	ltpFR2	12	19	MARROW	872	n/a	n/a	0	0	0
4045874	WORD	wordpools/wasnorm_wordpool_576.txt	LTP393	ltpFR2	12	19	NIGHTGOWN	953	n/a	n/a	0	0	0
4048574	WORD	wordpools/wasnorm_wordpool_576.txt	LTP393	ltpFR2	12	19	UMPIRE	1535	n/a	n/a	0	0	0
4051155	WORD	wordpools/wasnorm_wordpool_576.txt	LTP393	ltpFR2	12	19	FILM	565	n/a	n/a	0	0	0
4053845	WORD	wordpools/wasnorm_wordpool_576.txt	LTP393	ltpFR2	12	19	BABY	64	n/a	n/a	0	0	0
4056620	WORD	wordpools/wasnorm_wordpool_576.txt	LTP393	ltpFR2	12	19	POWDER	1117	n/a	n/a	0	0	0
4058224	START	n/a	LTP393	ltpFR2	12	n/a	n/a	n/a	30	n/a	n/a	n/a	n/a
4059230	DISTRACTOR	n/a	LTP393	ltpFR2	12	19	n/a	n/a	n/a	n/a	0	0	0
4059235	PROB	n/a	LTP393	ltpFR2	12	n/a	n/a	n/a	30	6	1	3	2
4065084	PROB	n/a	LTP393	ltpFR2	12	n/a	n/a	n/a	30	9	1	5	3
4067064	PROB	n/a	LTP393	ltpFR2	12	n/a	n/a	n/a	30	27	9	9	9
4068903	PROB	n/a	LTP393	ltpFR2	12	n/a	n/a	n/a	30	14	6	2	6
4070533	PROB	n/a	LTP393	ltpFR2	12	n/a	n/a	n/a	30	12	7	4	1
4072061	PROB	n/a	LTP393	ltpFR2	12	n/a	n/a	n/a	30	21	8	7	6
4074234	PROB	n/a	LTP393	ltpFR2	12	n/a	n/a	n/a	30	19	5	6	8
4076172	PROB	n/a	LTP393	ltpFR2	12	n/a	n/a	n/a	30	18	8	9	1
4077427	PROB	n/a	LTP393	ltpFR2	12	n/a	n/a	n/a	30	20	9	9	2
4078921	PROB	n/a	LTP393	ltpFR2	12	n/a	n/a	n/a	30	1	3	6	4
4082224	STOP	n/a	LTP393	ltpFR2	12	n/a	n/a	n/a	30	n/a	n/a	n/a	n/a
4084036	REC_START	n/a	LTP393	ltpFR2	12	19	n/a	n/a	n/a	n/a	0	0	0
4084622	REC_WORD	wordpools/wasnorm_wordpool_576.txt	LTP393	ltpFR2	12	19	KETCHUP	771	n/a	n/a	0	0	0
4085534	REC_WORD	wordpools/wasnorm_wordpool_576.txt	LTP393	ltpFR2	12	19	MUSTARD	935	n/a	n/a	0	0	0
4105747	REC_WORD	wordpools/wasnorm_wordpool_576.txt	LTP393	ltpFR2	12	19	HEADBAND	696	n/a	n/a	0	0	0
4111441	REC_WORD	wordpools/wasnorm_wordpool_576.txt	LTP393	ltpFR2	12	19	UMPIRE	1535	n/a	n/a	0	0	0
4174471	WORD	wordpools/wasnorm_wordpool_576.txt	LTP393	ltpFR2	12	20	SUBWAY	1400	n/a	n/a	0	0	0
4176952	WORD	wordpools/wasnorm_wordpool_576.txt	LTP393	ltpFR2	12	20	WHISTLE	1606	n/a	n/a	0	0	0
4179660	WORD	wordpools/wasnorm_wordpool_576.txt	LTP393	ltpFR2	12	20	RABBIT	1152	n/a	n/a	0	0	0
4182141	WORD	wordpools/wasnorm_wordpool_576.txt	LTP393	ltpFR2	12	20	FLIPPER	580	n/a	n/a	0	0	0
4184573	WORD	wordpools/wasnorm_wordpool_576.txt	LTP393	ltpFR2	12	20	DOLPHIN	483	n/a	n/a	0	0	0
4187230	WORD	wordpools/wasnorm_wordpool_576.txt	LTP393	ltpFR2	12	20	GHETTO	633	n/a	n/a	0	0	0
4189778	WORD	wordpools/wasnorm_wordpool_576.txt	LTP393	ltpFR2	12	20	SCALPEL	1243	n/a	n/a	0	0	0
4192285	WORD	wordpools/wasnorm_wordpool_576.txt	LTP393	ltpFR2	12	20	LIPSTICK	829	n/a	n/a	0	0	0
4194709	WORD	wordpools/wasnorm_wordpool_576.txt	LTP393	ltpFR2	12	20	SAUSAGE	1238	n/a	n/a	0	0	0
4197156	WORD	wordpools/wasnorm_wordpool_576.txt	LTP393	ltpFR2	12	20	JURY	766	n/a	n/a	0	0	0
4199897	WORD	wordpools/wasnorm_wordpool_576.txt	LTP393	ltpFR2	12	20	CONTRACT	368	n/a	n/a	0	0	0
4202505	WORD	wordpools/wasnorm_wordpool_576.txt	LTP393	ltpFR2	12	20	MUFFIN	929	n/a	n/a	0	0	0
4204927	WORD	wordpools/wasnorm_wordpool_576.txt	LTP393	ltpFR2	12	20	DRIVER	499	n/a	n/a	0	0	0
4207552	WORD	wordpools/wasnorm_wordpool_576.txt	LTP393	ltpFR2	12	20	BEEF	113	n/a	n/a	0	0	0
4209966	WORD	wordpools/wasnorm_wordpool_576.txt	LTP393	ltpFR2	12	20	COFFEE	341	n/a	n/a	0	0	0
4212666	WORD	wordpools/wasnorm_wordpool_576.txt	LTP393	ltpFR2	12	20	BUREAU	199	n/a	n/a	0	0	0
4215205	WORD	wordpools/wasnorm_wordpool_576.txt	LTP393	ltpFR2	12	20	TAXI	1438	n/a	n/a	0	0	0
4217988	WORD	wordpools/wasnorm_wordpool_576.txt	LTP393	ltpFR2	12	20	CIGAR	308	n/a	n/a	0	0	0
4220746	WORD	wordpools/wasnorm_wordpool_576.txt	LTP393	ltpFR2	12	20	MONEY	908	n/a	n/a	0	0	0
4223520	WORD	wordpools/wasnorm_wordpool_576.txt	LTP393	ltpFR2	12	20	AGENT	10	n/a	n/a	0	0	0
4226001	WORD	wordpools/wasnorm_wordpool_576.txt	LTP393	ltpFR2	12	20	WAITRESS	1581	n/a	n/a	0	0	0
4228617	WORD	wordpools/wasnorm_wordpool_576.txt	LTP393	ltpFR2	12	20	SERVANT	1271	n/a	n/a	0	0	0
4231198	WORD	wordpools/wasnorm_wordpool_576.txt	LTP393	ltpFR2	12	20	SHIRT	1287	n/a	n/a	0	0	0
4233797	WORD	wordpools/wasnorm_wordpool_576.txt	LTP393	ltpFR2	12	20	FIREPLACE	570	n/a	n/a	0	0	0
4235402	START	n/a	LTP393	ltpFR2	12	n/a	n/a	n/a	31	n/a	n/a	n/a	n/a
4236458	DISTRACTOR	n/a	LTP393	ltpFR2	12	20	n/a	n/a	n/a	n/a	0	0	0
4236463	PROB	n/a	LTP393	ltpFR2	12	n/a	n/a	n/a	31	16	4	3	9
4240105	PROB	n/a	LTP393	ltpFR2	12	n/a	n/a	n/a	31	19	3	7	9
4241544	PROB	n/a	LTP393	ltpFR2	12	n/a	n/a	n/a	31	12	7	3	2
4242980	PROB	n/a	LTP393	ltpFR2	12	n/a	n/a	n/a	31	8	1	2	5
4245019	PROB	n/a	LTP393	ltpFR2	12	n/a	n/a	n/a	31	18	3	9	6
4248471	PROB	n/a	LTP393	ltpFR2	12	n/a	n/a	n/a	31	22	9	4	8
4253090	PROB	n/a	LTP393	ltpFR2	12	n/a	n/a	n/a	31	11	1	4	6
4254428	PROB	n/a	LTP393	ltpFR2	12	n/a	n/a	n/a	31	19	7	3	9
4256299	PROB	n/a	LTP393	ltpFR2	12	n/a	n/a	n/a	31	17	5	7	5
4257938	STOP	n/a	LTP393	ltpFR2	12	n/a	n/a	n/a	31	n/a	n/a	n/a	n/a
4261163	REC_START	n/a	LTP393	ltpFR2	12	20	n/a	n/a	n/a	n/a	0	0	0
4263957	REC_WORD	wordpools/wasnorm_wordpool_576.txt	LTP393	ltpFR2	12	20	SAUSAGE	1238	n/a	n/a	0	0	0
4265351	REC_WORD	wordpools/wasnorm_wordpool_576.txt	LTP393	ltpFR2	12	20	LIPSTICK	829	n/a	n/a	0	0	0
4267204	REC_WORD	wordpools/wasnorm_wordpool_576.txt	LTP393	ltpFR2	12	20	GHETTO	633	n/a	n/a	0	0	0
4268405	REC_WORD	wordpools/wasnorm_wordpool_576.txt	LTP393	ltpFR2	12	20	SCALPEL	1243	n/a	n/a	0	0	0
4271196	REC_WORD	wordpools/wasnorm_wordpool_576.txt	LTP393	ltpFR2	12	20	DOLPHIN	483	n/a	n/a	0	0	0
4272649	REC_WORD	wordpools/wasnorm_wordpool_576.txt	LTP393	ltpFR2	12	20	FLIPPER	580	n/a	n/a	0	0	0
4275661	REC_WORD	wordpools/wasnorm_wordpool_576.txt	LTP393	ltpFR2	12	20	RABBIT	1152	n/a	n/a	0	0	0
4276966	REC_WORD	wordpools/wasnorm_wordpool_576.txt	LTP393	ltpFR2	12	20	SUBWAY	1400	n/a	n/a	0	0	0
4278731	REC_WORD	wordpools/wasnorm_wordpool_576.txt	LTP393	ltpFR2	12	20	WHISTLE	1606	n/a	n/a	0	0	0
4351598	WORD	wordpools/wasnorm_wordpool_576.txt	LTP393	ltpFR2	12	21	EMPIRE	530	n/a	n/a	0	0	0
4354037	WORD	wordpools/wasnorm_wordpool_576.txt	LTP393	ltpFR2	12	21	CONCERT	360	n/a	n/a	0	0	0
4356820	WORD	wordpools/wasnorm_wordpool_576.txt	LTP393	ltpFR2	12	21	PIGMENT	1066	n/a	n/a	0	0	0
4359570	WORD	wordpools/wasnorm_wordpool_576.txt	LTP393	ltpFR2	12	21	GRIZZLY	662	n/a	n/a	0	0	0
4362059	WORD	wordpools/wasnorm_wordpool_576.txt	LTP393	ltpFR2	12	21	ULCER	1533	n/a	n/a	0	0	0
4364825	WORD	wordpools/wasnorm_wordpool_576.txt	LTP393	ltpFR2	12	21	STOMACH	1384	n/a	n/a	0	0	0
4367483	WORD	wordpools/wasnorm_wordpool_576.txt	LTP393	ltpFR2	12	21	RECEIPT	1173	n/a	n/a	0	0	0
4370264	WORD	wordpools/wasnorm_wordpool_576.txt	LTP393	ltpFR2	12	21	EYELASH	546	n/a	n/a	0	0	0
4372838	WORD	wordpools/wasnorm_wordpool_576.txt	LTP393	ltpFR2	12	21	KLEENEX	782	n/a	n/a	0	0	0
4375463	WORD	wordpools/wasnorm_wordpool_576.txt	LTP393	ltpFR2	12	21	JUGGLER	763	n/a	n/a	0	0	0
4378060	WORD	wordpools/wasnorm_wordpool_576.txt	LTP393	ltpFR2	12	21	COMET	353	n/a	n/a	0	0	0
4380851	WORD	wordpools/wasnorm_wordpool_576.txt	LTP393	ltpFR2	12	21	DRUG	501	n/a	n/a	0	0	0
4383609	WORD	wordpools/wasnorm_wordpool_576.txt	LTP393	ltpFR2	12	21	SWITCH	1422	n/a	n/a	0	0	0
4386182	WORD	wordpools/wasnorm_wordpool_576.txt	LTP393	ltpFR2	12	21	HORNET	718	n/a	n/a	0	0	0
4388732	WORD	wordpools/wasnorm_wordpool_576.txt	LTP393	ltpFR2	12	21	WASP	1593	n/a	n/a	0	0	0
4391154	WORD	wordpools/wasnorm_wordpool_576.txt	LTP393	ltpFR2	12	21	SALT	1229	n/a	n/a	0	0	0
4393945	WORD	wordpools/wasnorm_wordpool_576.txt	LTP393	ltpFR2	12	21	BLENDER	136	n/a	n/a	0	0	0
4396603	WORD	wordpools/wasnorm_wordpool_576.txt	LTP393	ltpFR2	12	21	WIDOW	1608	n/a	n/a	0	0	0
4399075	WORD	wordpools/wasnorm_wordpool_576.txt	LTP393	ltpFR2	12	21	CREVICE	405	n/a	n/a	0	0	0
4401566	WORD	wordpools/wasnorm_wordpool_576.txt	LTP393	ltpFR2	12	21	GUARD	667	n/a	n/a	0	0	0
4404155	WORD	wordpools/wasnorm_wordpool_576.txt	LTP393	ltpFR2	12	21	FOX	598	n/a	n/a	0	0	0
4406871	WORD	wordpools/wasnorm_wordpool_576.txt	LTP393	ltpFR2	12	21	IGLOO	734	n/a	n/a	0	0	0
4409479	WORD	wordpools/wasnorm_wordpool_576.txt	LTP393	ltpFR2	12	21	BANJO	82	n/a	n/a	0	0	0
4412135	WORD	wordpools/wasnorm_wordpool_576.txt	LTP393	ltpFR2	12	21	ANTLER	29	n/a	n/a	0	0	0
4413741	START	n/a	LTP393	ltpFR2	12	n/a	n/a	n/a	32	n/a	n/a	n/a	n/a
4414573	DISTRACTOR	n/a	LTP393	ltpFR2	12	21	n/a	n/a	n/a	n/a	0	0	0
4414576	PROB	n/a	LTP393	ltpFR2	12	n/a	n/a	n/a	32	21	7	8	6
4417543	PROB	n/a	LTP393	ltpFR2	12	n/a	n/a	n/a	32	20	8	9	3
4419531	PROB	n/a	LTP393	ltpFR2	12	n/a	n/a	n/a	32	10	1	2	7
4420909	PROB	n/a	LTP393	ltpFR2	12	n/a	n/a	n/a	32	27	9	9	9
4422931	PROB	n/a	LTP393	ltpFR2	12	n/a	n/a	n/a	32	16	7	2	7
4424953	PROB	n/a	LTP393	ltpFR2	12	n/a	n/a	n/a	32	18	4	9	5
4432733	PROB	n/a	LTP393	ltpFR2	12	n/a	n/a	n/a	32	13	4	5	4
4435298	PROB	n/a	LTP393	ltpFR2	12	n/a	n/a	n/a	32	14	8	4	2
4437080	STOP	n/a	LTP393	ltpFR2	12	n/a	n/a	n/a	32	n/a	n/a	n/a	n/a
4439527	REC_START	n/a	LTP393	ltpFR2	12	21	n/a	n/a	n/a	n/a	0	0	0
4440555	REC_WORD	wordpools/wasnorm_wordpool_576.txt	LTP393	ltpFR2	12	21	IGLOO	734	n/a	n/a	0	0	0
4442209	REC_WORD	wordpools/wasnorm_wordpool_576.txt	LTP393	ltpFR2	12	21	BANJO	82	n/a	n/a	0	0	0
4443796	REC_WORD	wordpools/wasnorm_wordpool_576.txt	LTP393	ltpFR2	12	21	ALTER	-1	n/a	n/a	0	0	0
4446021	REC_WORD	wordpools/wasnorm_wordpool_576.txt	LTP393	ltpFR2	12	21	STOMACH	1384	n/a	n/a	0	0	0
4447298	REC_WORD	wordpools/wasnorm_wordpool_576.txt	LTP393	ltpFR2	12	21	ULCER	1533	n/a	n/a	0	0	0
4448899	REC_WORD	wordpools/wasnorm_wordpool_576.txt	LTP393	ltpFR2	12	21	GRIZZLY	662	n/a	n/a	0	0	0
4450460	REC_WORD	wordpools/wasnorm_wordpool_576.txt	LTP393	ltpFR2	12	21	PIGMENT	1066	n/a	n/a	0	0	0
4529961	WORD	wordpools/wasnorm_wordpool_576.txt	LTP393	ltpFR2	12	22	RIVER	1194	n/a	n/a	0	0	0
4532410	WORD	wordpools/wasnorm_wordpool_576.txt	LTP393	ltpFR2	12	22	SPACE	1345	n/a	n/a	0	0	0
4534966	WORD	wordpools/wasnorm_wordpool_576.txt	LTP393	ltpFR2	12	22	ROBOT	1200	n/a	n/a	0	0	0
4537641	WORD	wordpools/wasnorm_wordpool_576.txt	LTP393	ltpFR2	12	22	JELLY	755	n/a	n/a	0	0	0
4540289	WORD	wordpools/wasnorm_wordpool_576.txt	LTP393	ltpFR2	12	22	TOURIST	1488	n/a	n/a	0	0	0
4543030	WORD	wordpools/wasnorm_wordpool_576.txt	LTP393	ltpFR2	12	22	FEMALE	559	n/a	n/a	0	0	0
4545654	WORD	wordpools/wasnorm_wordpool_576.txt	LTP393	ltpFR2	12	22	PUDDLE	1140	n/a	n/a	0	0	0
4548118	WORD	wordpools/wasnorm_wordpool_576.txt	LTP393	ltpFR2	12	22	BOYFRIEND	162	n/a	n/a	0	0	0
4550593	WORD	wordpools/wasnorm_wordpool_576.txt	LTP393	ltpFR2	12	22	TART	1436	n/a	n/a	0	0	0
4553349	WORD	wordpools/wasnorm_wordpool_576.txt	LTP393	ltpFR2	12	22	LAVA	804	n/a	n/a	0	0	0
4555772	WORD	wordpools/wasnorm_wordpool_576.txt	LTP393	ltpFR2	12	22	GARBAGE	622	n/a	n/a	0	0	0
4558271	WORD	wordpools/wasnorm_wordpool_576.txt	LTP393	ltpFR2	12	22	BUBBLE	183	n/a	n/a	0	0	0
4560695	WORD	wordpools/wasnorm_wordpool_576.txt	LTP393	ltpFR2	12	22	KIDNEY	776	n/a	n/a	0	0	0
4563402	WORD	wordpools/wasnorm_wordpool_576.txt	LTP393	ltpFR2	12	22	DONOR	485	n/a	n/a	0	0	0
4566159	WORD	wordpools/wasnorm_wordpool_576.txt	LTP393	ltpFR2	12	22	YACHT	1629	n/a	n/a	0	0	0
4568658	WORD	wordpools/wasnorm_wordpool_576.txt	LTP393	ltpFR2	12	22	PADDLE	1000	n/a	n/a	0	0	0
4571424	WORD	wordpools/wasnorm_wordpool_576.txt	LTP393	ltpFR2	12	22	LOVER	846	n/a	n/a	0	0	0
4573963	WORD	wordpools/wasnorm_wordpool_576.txt	LTP393	ltpFR2	12	22	STATUE	1374	n/a	n/a	0	0	0
4576705	WORD	wordpools/wasnorm_wordpool_576.txt	LTP393	ltpFR2	12	22	LETTUCE	814	n/a	n/a	0	0	0
4579202	WORD	wordpools/wasnorm_wordpool_576.txt	LTP393	ltpFR2	12	22	CITRUS	313	n/a	n/a	0	0	0
4581901	WORD	wordpools/wasnorm_wordpool_576.txt	LTP393	ltpFR2	12	22	BUTCHER	203	n/a	n/a	0	0	0
4584341	WORD	wordpools/wasnorm_wordpool_576.txt	LTP393	ltpFR2	12	22	SWIMMER	1420	n/a	n/a	0	0	0
4587148	WORD	wordpools/wasnorm_wordpool_576.txt	LTP393	ltpFR2	12	22	PICTURE	1061	n/a	n/a	0	0	0
4589831	WORD	wordpools/wasnorm_wordpool_576.txt	LTP393	ltpFR2	12	22	CAFE	216	n/a	n/a	0	0	0
4591436	START	n/a	LTP393	ltpFR2	12	n/a	n/a	n/a	33	n/a	n/a	n/a	n/a
4592516	DISTRACTOR	n/a	LTP393	ltpFR2	12	22	n/a	n/a	n/a	n/a	0	0	0
4592522	PROB	n/a	LTP393	ltpFR2	12	n/a	n/a	n/a	33	9	3	3	3
4594703	PROB	n/a	LTP393	ltpFR2	12	n/a	n/a	n/a	33	18	7	4	7
4597745	PROB	n/a	LTP393	ltpFR2	12	n/a	n/a	n/a	33	5	1	1	3
4598830	PROB	n/a	LTP393	ltpFR2	12	n/a	n/a	n/a	33	9	1	3	5
4601630	PROB	n/a	LTP393	ltpFR2	12	n/a	n/a	n/a	33	14	3	4	7
4603376	PROB	n/a	LTP393	ltpFR2	12	n/a	n/a	n/a	33	19	9	1	9
4605038	PROB	n/a	LTP393	ltpFR2	12	n/a	n/a	n/a	33	15	1	9	5
4606660	PROB	n/a	LTP393	ltpFR2	12	n/a	n/a	n/a	33	13	3	2	8
4608180	PROB	n/a	LTP393	ltpFR2	12	n/a	n/a	n/a	33	20	3	9	8
4611590	PROB	n/a	LTP393	ltpFR2	12	n/a	n/a	n/a	33	16	5	6	5
4614813	STOP	n/a	LTP393	ltpFR2	12	n/a	n/a	n/a	33	n/a	n/a	n/a	n/a
4617322	REC_START	n/a	LTP393	ltpFR2	12	22	n/a	n/a	n/a	n/a	0	0	0
4618074	REC_WORD	wordpools/wasnorm_wordpool_576.txt	LTP393	ltpFR2	12	22	DONOR	485	n/a	n/a	0	0	0
4619237	REC_WORD	wordpools/wasnorm_wordpool_576.txt	LTP393	ltpFR2	12	22	CITRUS	313	n/a	n/a	0	0	0
4620773	REC_WORD	wordpools/wasnorm_wordpool_576.txt	LTP393	ltpFR2	12	22	LETTUCE	814	n/a	n/a	0	0	0
4621999	REC_WORD	wordpools/wasnorm_wordpool_576.txt	LTP393	ltpFR2	12	22	SWIMMER	1420	n/a	n/a	0	0	0
4631040	REC_WORD	wordpools/wasnorm_wordpool_576.txt	LTP393	ltpFR2	12	22	KIDNEY	776	n/a	n/a	0	0	0
4707758	WORD	wordpools/wasnorm_wordpool_576.txt	LTP393	ltpFR2	12	23	COBRA	336	n/a	n/a	0	0	0
4710465	WORD	wordpools/wasnorm_wordpool_576.txt	LTP393	ltpFR2	12	23	PILOT	1070	n/a	n/a	0	0	0
4712870	WORD	wordpools/wasnorm_wordpool_576.txt	LTP393	ltpFR2	12	23	CRAB	397	n/a	n/a	0	0	0
4715378	WORD	wordpools/wasnorm_wordpool_576.txt	LTP393	ltpFR2	12	23	CORAL	378	n/a	n/a	0	0	0
4718135	WORD	wordpools/wasnorm_wordpool_576.txt	LTP393	ltpFR2	12	23	ICING	732	n/a	n/a	0	0	0
4720934	WORD	wordpools/wasnorm_wordpool_576.txt	LTP393	ltpFR2	12	23	BEAKER	104	n/a	n/a	0	0	0
4723726	WORD	wordpools/wasnorm_wordpool_576.txt	LTP393	ltpFR2	12	23	STAMP	1370	n/a	n/a	0	0	0
4726374	WORD	wordpools/wasnorm_wordpool_576.txt	LTP393	ltpFR2	12	23	BINDER	127	n/a	n/a	0	0	0
4729164	WORD	wordpools/wasnorm_wordpool_576.txt	LTP393	ltpFR2	12	23	COURSE	390	n/a	n/a	0	0	0
4731905	WORD	wordpools/wasnorm_wordpool_576.txt	LTP393	ltpFR2	12	23	GIFT	635	n/a	n/a	0	0	0
4734353	WORD	wordpools/wasnorm_wordpool_576.txt	LTP393	ltpFR2	12	23	DENIM	446	n/a	n/a	0	0	0
4736977	WORD	wordpools/wasnorm_wordpool_576.txt	LTP393	ltpFR2	12	23	FRIAR	605	n/a	n/a	0	0	0
4739744	WORD	wordpools/wasnorm_wordpool_576.txt	LTP393	ltpFR2	12	23	CHAPEL	280	n/a	n/a	0	0	0
4742341	WORD	wordpools/wasnorm_wordpool_576.txt	LTP393	ltpFR2	12	23	SHORTCAKE	1292	n/a	n/a	0	0	0
4745141	WORD	wordpools/wasnorm_wordpool_576.txt	LTP393	ltpFR2	12	23	VIRUS	1572	n/a	n/a	0	0	0
4747673	WORD	wordpools/wasnorm_wordpool_576.txt	LTP393	ltpFR2	12	23	BLADE	134	n/a	n/a	0	0	0
4750087	WORD	wordpools/wasnorm_wordpool_576.txt	LTP393	ltpFR2	12	23	MEAT	883	n/a	n/a	0	0	0
4752853	WORD	wordpools/wasnorm_wordpool_576.txt	LTP393	ltpFR2	12	23	LODGE	839	n/a	n/a	0	0	0
4755301	WORD	wordpools/wasnorm_wordpool_576.txt	LTP393	ltpFR2	12	23	PEPPER	1047	n/a	n/a	0	0	0
4757892	WORD	wordpools/wasnorm_wordpool_576.txt	LTP393	ltpFR2	12	23	AIRPORT	13	n/a	n/a	0	0	0
4760399	WORD	wordpools/wasnorm_wordpool_576.txt	LTP393	ltpFR2	12	23	SCISSORS	1250	n/a	n/a	0	0	0
4763206	WORD	wordpools/wasnorm_wordpool_576.txt	LTP393	ltpFR2	12	23	PERMIT	1051	n/a	n/a	0	0	0
4765664	WORD	wordpools/wasnorm_wordpool_576.txt	LTP393	ltpFR2	12	23	TERMITE	1451	n/a	n/a	0	0	0
4768286	WORD	wordpools/wasnorm_wordpool_576.txt	LTP393	ltpFR2	12	23	MATCH	878	n/a	n/a	0	0	0
4769891	START	n/a	LTP393	ltpFR2	12	n/a	n/a	n/a	34	n/a	n/a	n/a	n/a
4770867	DISTRACTOR	n/a	LTP393	ltpFR2	12	23	n/a	n/a	n/a	n/a	0	0	0
4770877	PROB	n/a	LTP393	ltpFR2	12	n/a	n/a	n/a	34	20	8	7	5
4774002	PROB	n/a	LTP393	ltpFR2	12	n/a	n/a	n/a	34	20	6	5	9
4777143	PROB	n/a	LTP393	ltpFR2	12	n/a	n/a	n/a	34	15	8	1	6
4778682	PROB	n/a	LTP393	ltpFR2	12	n/a	n/a	n/a	34	12	1	9	2
4779884	PROB	n/a	LTP393	ltpFR2	12	n/a	n/a	n/a	34	15	5	2	8
4781112	PROB	n/a	LTP393	ltpFR2	12	n/a	n/a	n/a	34	1	4	9	1
4782316	PROB	n/a	LTP393	ltpFR2	12	n/a	n/a	n/a	34	18	9	8	1
4783903	PROB	n/a	LTP393	ltpFR2	12	n/a	n/a	n/a	34	15	2	7	6
4785617	PROB	n/a	LTP393	ltpFR2	12	n/a	n/a	n/a	34	8	5	1	2
4787797	PROB	n/a	LTP393	ltpFR2	12	n/a	n/a	n/a	34	8	3	2	3
4789628	PROB	n/a	LTP393	ltpFR2	12	n/a	n/a	n/a	34	10	5	4	1
4791064	PROB	n/a	LTP393	ltpFR2	12	n/a	n/a	n/a	34	22	8	9	5
4793732	STOP	n/a	LTP393	ltpFR2	12	n/a	n/a	n/a	34	n/a	n/a	n/a	n/a
4795720	REC_START	n/a	LTP393	ltpFR2	12	23	n/a	n/a	n/a	n/a	0	0	0
4796649	REC_WORD	wordpools/wasnorm_wordpool_576.txt	LTP393	ltpFR2	12	23	TERMITE	1451	n/a	n/a	0	0	0
4797373	REC_WORD	wordpools/wasnorm_wordpool_576.txt	LTP393	ltpFR2	12	23	MATCH	878	n/a	n/a	0	0	0
4800031	REC_WORD	wordpools/wasnorm_wordpool_576.txt	LTP393	ltpFR2	12	23	IGLOO	734	n/a	n/a	0	0	0
4807429	REC_WORD	wordpools/wasnorm_wordpool_576.txt	LTP393	ltpFR2	12	23	PENGUIN	1044	n/a	n/a	0	0	0
4810177	REC_WORD	wordpools/wasnorm_wordpool_576.txt	LTP393	ltpFR2	12	23	CORAL	378	n/a	n/a	0	0	0
4810886	REC_WORD	wordpools/wasnorm_wordpool_576.txt	LTP393	ltpFR2	12	23	CANAL	226	n/a	n/a	0	0	0
4814358	REC_WORD	wordpools/wasnorm_wordpool_576.txt	LTP393	ltpFR2	12	23	DENIM	446	n/a	n/a	0	0	0
4886162	DISTRACTOR	n/a	LTP393	ltpFR2	12	24	n/a	n/a	n/a	n/a	0	0	0
4886162	START	n/a	LTP393	ltpFR2	12	n/a	n/a	n/a	35	n/a	n/a	n/a	n/a
4886179	PROB	n/a	LTP393	ltpFR2	12	n/a	n/a	n/a	35	17	2	6	9
4889664	PROB	n/a	LTP393	ltpFR2	12	n/a	n/a	n/a	35	20	4	9	8
4892354	PROB	n/a	LTP393	ltpFR2	12	n/a	n/a	n/a	35	12	1	7	4
4893900	PROB	n/a	LTP393	ltpFR2	12	n/a	n/a	n/a	35	22	7	7	8
4895863	PROB	n/a	LTP393	ltpFR2	12	n/a	n/a	n/a	35	19	5	6	8
4897510	PROB	n/a	LTP393	ltpFR2	12	n/a	n/a	n/a	35	20	8	6	6
4899264	PROB	n/a	LTP393	ltpFR2	12	n/a	n/a	n/a	35	12	6	2	4
4902222	PROB	n/a	LTP393	ltpFR2	12	n/a	n/a	n/a	35	18	1	9	8
4903493	PROB	n/a	LTP393	ltpFR2	12	n/a	n/a	n/a	35	15	4	5	6
4905172	PROB	n/a	LTP393	ltpFR2	12	n/a	n/a	n/a	35	12	9	2	1
4907043	PROB	n/a	LTP393	ltpFR2	12	n/a	n/a	n/a	35	17	4	9	4
4909183	STOP	n/a	LTP393	ltpFR2	12	n/a	n/a	n/a	35	n/a	n/a	n/a	n/a
4911146	WORD	wordpools/wasnorm_wordpool_576.txt	LTP393	ltpFR2	12	24	DINER	467	n/a	n/a	0	0	0
4913587	WORD	wordpools/wasnorm_wordpool_576.txt	LTP393	ltpFR2	12	24	PEACH	1031	n/a	n/a	0	0	0
4916218	WORD	wordpools/wasnorm_wordpool_576.txt	LTP393	ltpFR2	12	24	DOUGHNUT	490	n/a	n/a	0	0	0
4918726	WORD	wordpools/wasnorm_wordpool_576.txt	LTP393	ltpFR2	12	24	PLAYGROUND	1087	n/a	n/a	0	0	0
4921517	WORD	wordpools/wasnorm_wordpool_576.txt	LTP393	ltpFR2	12	24	NURSE	963	n/a	n/a	0	0	0
4924315	WORD	wordpools/wasnorm_wordpool_576.txt	LTP393	ltpFR2	12	24	PERCH	1048	n/a	n/a	0	0	0
4926888	WORD	wordpools/wasnorm_wordpool_576.txt	LTP393	ltpFR2	12	24	LEADER	807	n/a	n/a	0	0	0
4929320	WORD	wordpools/wasnorm_wordpool_576.txt	LTP393	ltpFR2	12	24	WAGON	1578	n/a	n/a	0	0	0
4931810	WORD	wordpools/wasnorm_wordpool_576.txt	LTP393	ltpFR2	12	24	BALLOON	75	n/a	n/a	0	0	0
4934308	WORD	wordpools/wasnorm_wordpool_576.txt	LTP393	ltpFR2	12	24	NOVEL	960	n/a	n/a	0	0	0
4937074	WORD	wordpools/wasnorm_wordpool_576.txt	LTP393	ltpFR2	12	24	BLOCKADE	137	n/a	n/a	0	0	0
4939857	WORD	wordpools/wasnorm_wordpool_576.txt	LTP393	ltpFR2	12	24	LUMBER	848	n/a	n/a	0	0	0
4942288	WORD	wordpools/wasnorm_wordpool_576.txt	LTP393	ltpFR2	12	24	SUPPER	1411	n/a	n/a	0	0	0
4944954	WORD	wordpools/wasnorm_wordpool_576.txt	LTP393	ltpFR2	12	24	BARREL	91	n/a	n/a	0	0	0
4947578	WORD	wordpools/wasnorm_wordpool_576.txt	LTP393	ltpFR2	12	24	LOFT	840	n/a	n/a	0	0	0
4950134	WORD	wordpools/wasnorm_wordpool_576.txt	LTP393	ltpFR2	12	24	PADDING	999	n/a	n/a	0	0	0
4952659	WORD	wordpools/wasnorm_wordpool_576.txt	LTP393	ltpFR2	12	24	CLOUD	328	n/a	n/a	0	0	0
4955115	WORD	wordpools/wasnorm_wordpool_576.txt	LTP393	ltpFR2	12	24	JUNGLE	764	n/a	n/a	0	0	0
4957864	WORD	wordpools/wasnorm_wordpool_576.txt	LTP393	ltpFR2	12	24	BUGGY	188	n/a	n/a	0	0	0
4960563	WORD	wordpools/wasnorm_wordpool_576.txt	LTP393	ltpFR2	12	24	HEART	697	n/a	n/a	0	0	0
4963094	WORD	wordpools/wasnorm_wordpool_576.txt	LTP393	ltpFR2	12	24	TRANSPLANT	1496	n/a	n/a	0	0	0
4965902	WORD	wordpools/wasnorm_wordpool_576.txt	LTP393	ltpFR2	12	24	PRIMATE	1123	n/a	n/a	0	0	0
4968619	WORD	wordpools/wasnorm_wordpool_576.txt	LTP393	ltpFR2	12	24	LAKE	796	n/a	n/a	0	0	0
4971066	WORD	wordpools/wasnorm_wordpool_576.txt	LTP393	ltpFR2	12	24	MASK	876	n/a	n/a	0	0	0
4972671	START	n/a	LTP393	ltpFR2	12	n/a	n/a	n/a	36	n/a	n/a	n/a	n/a
4973789	DISTRACTOR	n/a	LTP393	ltpFR2	12	24	n/a	n/a	n/a	n/a	0	0	0
4973798	PROB	n/a	LTP393	ltpFR2	12	n/a	n/a	n/a	36	20	8	6	6
4975713	PROB	n/a	LTP393	ltpFR2	12	n/a	n/a	n/a	36	7	5	1	1
4977442	PROB	n/a	LTP393	ltpFR2	12	n/a	n/a	n/a	36	16	6	7	3
4978837	PROB	n/a	LTP393	ltpFR2	12	n/a	n/a	n/a	36	13	1	8	4
4980693	PROB	n/a	LTP393	ltpFR2	12	n/a	n/a	n/a	36	10	7	1	2
4982146	PROB	n/a	LTP393	ltpFR2	12	n/a	n/a	n/a	36	11	2	6	3
4984411	PROB	n/a	LTP393	ltpFR2	12	n/a	n/a	n/a	36	12	6	5	1
4985989	PROB	n/a	LTP393	ltpFR2	12	n/a	n/a	n/a	36	12	2	5	5
4987168	PROB	n/a	LTP393	ltpFR2	12	n/a	n/a	n/a	36	14	5	1	8
4989282	PROB	n/a	LTP393	ltpFR2	12	n/a	n/a	n/a	36	13	5	3	5
4990736	PROB	n/a	LTP393	ltpFR2	12	n/a	n/a	n/a	36	13	4	2	7
4992348	PROB	n/a	LTP393	ltpFR2	12	n/a	n/a	n/a	36	15	1	6	8
4994572	PROB	n/a	LTP393	ltpFR2	12	n/a	n/a	n/a	36	14	7	5	2
4995970	STOP	n/a	LTP393	ltpFR2	12	n/a	n/a	n/a	36	n/a	n/a	n/a	n/a
4998450	REC_START	n/a	LTP393	ltpFR2	12	24	n/a	n/a	n/a	n/a	0	0	0
4999479	REC_WORD	wordpools/wasnorm_wordpool_576.txt	LTP393	ltpFR2	12	24	DINER	467	n/a	n/a	0	0	0
5000665	REC_WORD	wordpools/wasnorm_wordpool_576.txt	LTP393	ltpFR2	12	24	PRIMATE	1123	n/a	n/a	0	0	0
5001981	REC_WORD	wordpools/wasnorm_wordpool_576.txt	LTP393	ltpFR2	12	24	MASK	876	n/a	n/a	0	0	0
5003448	REC_WORD	wordpools/wasnorm_wordpool_576.txt	LTP393	ltpFR2	12	24	CLOUD	328	n/a	n/a	0	0	0
5004878	REC_WORD	wordpools/wasnorm_wordpool_576.txt	LTP393	ltpFR2	12	24	JUNGLE	764	n/a	n/a	0	0	0
5006399	REC_WORD	wordpools/wasnorm_wordpool_576.txt	LTP393	ltpFR2	12	24	PADDING	999	n/a	n/a	0	0	0
5079367	SESS_END	n/a	LTP393	ltpFR2	12	24	n/a	n/a	n/a	n/a	0	0	0
