onset	duration	trial_type	sample	stim_file	subject	experiment	session	trial	task	item_name	item_num	recog_conf	resp	answer	test_x	test_y	test_z	color_b	color_g	color_r	case	font
293.69	n/a	SESS_START	146845	n/a	LTP187	ltpFR	12	n/a	n/a	n/a	n/a	2	n/a	n/a	0	0	0	n/a	n/a	n/a	n/a	n/a
334.966	n/a	START	167483	n/a	LTP187	ltpFR	12	n/a	n/a	n/a	n/a	n/a	n/a	n/a	n/a	n/a	n/a	n/a	n/a	n/a	n/a	n/a
335.014	n/a	PROB	167507	n/a	LTP187	ltpFR	12	n/a	n/a	n/a	n/a	n/a	n/a	13	2	4	7	n/a	n/a	n/a	n/a	n/a
337.148	n/a	PROB	168574	n/a	LTP187	ltpFR	12	n/a	n/a	n/a	n/a	n/a	n/a	23	9	8	5	n/a	n/a	n/a	n/a	n/a
341.902	n/a	PROB	170951	n/a	LTP187	ltpFR	12	n/a	n/a	n/a	n/a	n/a	n/a	19	6	4	9	n/a	n/a	n/a	n/a	n/a
343.714	n/a	PROB	171857	n/a	LTP187	ltpFR	12	n/a	n/a	n/a	n/a	n/a	n/a	19	8	9	2	n/a	n/a	n/a	n/a	n/a
345.57	n/a	PROB	172785	n/a	LTP187	ltpFR	12	n/a	n/a	n/a	n/a	n/a	n/a	19	3	8	8	n/a	n/a	n/a	n/a	n/a
347.12	n/a	PROB	173560	n/a	LTP187	ltpFR	12	n/a	n/a	n/a	n/a	n/a	n/a	10	6	1	3	n/a	n/a	n/a	n/a	n/a
348.626	n/a	PROB	174313	n/a	LTP187	ltpFR	12	n/a	n/a	n/a	n/a	n/a	n/a	17	3	5	9	n/a	n/a	n/a	n/a	n/a
350.7	n/a	PROB	175350	n/a	LTP187	ltpFR	12	n/a	n/a	n/a	n/a	n/a	n/a	10	2	3	5	n/a	n/a	n/a	n/a	n/a
352.074	n/a	PROB	176037	n/a	LTP187	ltpFR	12	n/a	n/a	n/a	n/a	n/a	n/a	14	2	4	8	n/a	n/a	n/a	n/a	n/a
353.518	n/a	STOP	176759	n/a	LTP187	ltpFR	12	n/a	n/a	n/a	n/a	n/a	n/a	n/a	n/a	n/a	n/a	n/a	n/a	n/a	n/a	n/a
394.926	n/a	WORD	197463	wordpools/wasnorm_wordpool_less_exclusions.txt	LTP187	ltpFR	12	1	0	BRIDGE	174	n/a	0	n/a	0	0	0	0	0.5869140625	0.422607421875	upper	../fonts/zerothre.ttf
398.942	n/a	WORD	199471	wordpools/wasnorm_wordpool_less_exclusions.txt	LTP187	ltpFR	12	1	0	FOREST	593	n/a	1	n/a	0	0	0	0	0.5869140625	0.422607421875	upper	../fonts/zerothre.ttf
403.074	n/a	WORD	201537	wordpools/wasnorm_wordpool_less_exclusions.txt	LTP187	ltpFR	12	1	0	BANDANNA	80	n/a	0	n/a	0	0	0	0	0.5869140625	0.422607421875	upper	../fonts/zerothre.ttf
407.29	n/a	WORD	203645	wordpools/wasnorm_wordpool_less_exclusions.txt	LTP187	ltpFR	12	1	0	WHALE	1601	n/a	1	n/a	0	0	0	0	0.5869140625	0.422607421875	upper	../fonts/zerothre.ttf
411.338	n/a	WORD	205669	wordpools/wasnorm_wordpool_less_exclusions.txt	LTP187	ltpFR	12	1	0	PLANET	1082	n/a	1	n/a	0	0	0	0	0.5869140625	0.422607421875	upper	../fonts/zerothre.ttf
415.186	n/a	WORD	207593	wordpools/wasnorm_wordpool_less_exclusions.txt	LTP187	ltpFR	12	1	1	ZUCCHINI	1638	n/a	1	n/a	0	0	0	1	0.412841796875	0.57763671875	lower	../fonts/amplitud.ttf
419.336	n/a	WORD	209668	wordpools/wasnorm_wordpool_less_exclusions.txt	LTP187	ltpFR	12	1	1	LUMBER	848	n/a	0	n/a	0	0	0	1	0.412841796875	0.57763671875	lower	../fonts/amplitud.ttf
423.228	n/a	WORD	211614	wordpools/wasnorm_wordpool_less_exclusions.txt	LTP187	ltpFR	12	1	1	ROOST	1208	n/a	0	n/a	0	0	0	1	0.412841796875	0.57763671875	lower	../fonts/amplitud.ttf
427.094	n/a	WORD	213547	wordpools/wasnorm_wordpool_less_exclusions.txt	LTP187	ltpFR	12	1	1	CROW	414	n/a	1	n/a	0	0	0	1	0.412841796875	0.57763671875	lower	../fonts/amplitud.ttf
431.008	n/a	WORD	215504	wordpools/wasnorm_wordpool_less_exclusions.txt	LTP187	ltpFR	12	1	0	BRANDY	169	n/a	0	n/a	0	0	0	0	0.5869140625	0.422607421875	upper	../fonts/zerothre.ttf
434.862	n/a	WORD	217431	wordpools/wasnorm_wordpool_less_exclusions.txt	LTP187	ltpFR	12	1	0	BEETLE	116	n/a	0	n/a	0	0	0	0	0.5869140625	0.422607421875	upper	../fonts/zerothre.ttf
438.744	n/a	WORD	219372	wordpools/wasnorm_wordpool_less_exclusions.txt	LTP187	ltpFR	12	1	0	CRICKET	408	n/a	0	n/a	0	0	0	0	0.5869140625	0.422607421875	upper	../fonts/zerothre.ttf
442.686	n/a	WORD	221343	wordpools/wasnorm_wordpool_less_exclusions.txt	LTP187	ltpFR	12	1	1	ORCHID	982	n/a	1	n/a	0	0	0	1	0.412841796875	0.57763671875	lower	../fonts/amplitud.ttf
446.768	n/a	WORD	223384	wordpools/wasnorm_wordpool_less_exclusions.txt	LTP187	ltpFR	12	1	1	STATUE	1374	n/a	0	n/a	0	0	0	1	0.412841796875	0.57763671875	lower	../fonts/amplitud.ttf
450.74	n/a	WORD	225370	wordpools/wasnorm_wordpool_less_exclusions.txt	LTP187	ltpFR	12	1	1	BELL	118	n/a	0	n/a	0	0	0	1	0.412841796875	0.57763671875	lower	../fonts/amplitud.ttf
454.666	n/a	WORD	227333	wordpools/wasnorm_wordpool_less_exclusions.txt	LTP187	ltpFR	12	1	1	COCKTAIL	338	n/a	0	n/a	0	0	0	1	0.412841796875	0.57763671875	lower	../fonts/amplitud.ttf
457.676	n/a	START	228838	n/a	LTP187	ltpFR	12	n/a	n/a	n/a	n/a	n/a	n/a	n/a	n/a	n/a	n/a	n/a	n/a	n/a	n/a	n/a
458.586	n/a	PROB	229293	n/a	LTP187	ltpFR	12	n/a	n/a	n/a	n/a	n/a	n/a	13	4	5	4	n/a	n/a	n/a	n/a	n/a
461.028	n/a	PROB	230514	n/a	LTP187	ltpFR	12	n/a	n/a	n/a	n/a	n/a	n/a	18	7	3	8	n/a	n/a	n/a	n/a	n/a
462.728	n/a	PROB	231364	n/a	LTP187	ltpFR	12	n/a	n/a	n/a	n/a	n/a	n/a	14	9	1	4	n/a	n/a	n/a	n/a	n/a
464.1	n/a	PROB	232050	n/a	LTP187	ltpFR	12	n/a	n/a	n/a	n/a	n/a	n/a	11	6	4	1	n/a	n/a	n/a	n/a	n/a
465.268	n/a	STOP	232634	n/a	LTP187	ltpFR	12	n/a	n/a	n/a	n/a	n/a	n/a	n/a	n/a	n/a	n/a	n/a	n/a	n/a	n/a	n/a
467.632	n/a	REC_START	233816	n/a	LTP187	ltpFR	12	1	n/a	n/a	n/a	n/a	n/a	n/a	0	0	0	n/a	n/a	n/a	n/a	n/a
469.312	n/a	REC_WORD	234656	wordpools/wasnorm_wordpool_less_exclusions.txt	LTP187	ltpFR	12	1	1	STATUE	1374	n/a	0	n/a	0	0	0	n/a	n/a	n/a	n/a	n/a
471.13	n/a	REC_WORD	235565	wordpools/wasnorm_wordpool_less_exclusions.txt	LTP187	ltpFR	12	1	0	BEETLE	116	n/a	0	n/a	0	0	0	n/a	n/a	n/a	n/a	n/a
474.118	n/a	REC_WORD	237059	wordpools/wasnorm_wordpool_less_exclusions.txt	LTP187	ltpFR	12	1	0	FOREST	593	n/a	1	n/a	0	0	0	n/a	n/a	n/a	n/a	n/a
475.718	n/a	REC_WORD	237859	wordpools/wasnorm_wordpool_less_exclusions.txt	LTP187	ltpFR	12	1	0	BRIDGE	174	n/a	0	n/a	0	0	0	n/a	n/a	n/a	n/a	n/a
476.982	n/a	REC_WORD	238491	wordpools/wasnorm_wordpool_less_exclusions.txt	LTP187	ltpFR	12	1	0	BANDANNA	80	n/a	0	n/a	0	0	0	n/a	n/a	n/a	n/a	n/a
478.578	n/a	REC_WORD	239289	wordpools/wasnorm_wordpool_less_exclusions.txt	LTP187	ltpFR	12	1	0	WHALE	1601	n/a	1	n/a	0	0	0	n/a	n/a	n/a	n/a	n/a
494.228	n/a	REC_WORD	247114	wordpools/wasnorm_wordpool_less_exclusions.txt	LTP187	ltpFR	12	1	1	LUMBER	848	n/a	0	n/a	0	0	0	n/a	n/a	n/a	n/a	n/a
495.744	n/a	REC_WORD	247872	wordpools/wasnorm_wordpool_less_exclusions.txt	LTP187	ltpFR	12	1	1	ORCHID	982	n/a	1	n/a	0	0	0	n/a	n/a	n/a	n/a	n/a
496.902	n/a	REC_WORD	248451	wordpools/wasnorm_wordpool_less_exclusions.txt	LTP187	ltpFR	12	1	1	CROW	414	n/a	1	n/a	0	0	0	n/a	n/a	n/a	n/a	n/a
498.194	n/a	REC_WORD	249097	wordpools/wasnorm_wordpool_less_exclusions.txt	LTP187	ltpFR	12	1	1	ROOST	1208	n/a	0	n/a	0	0	0	n/a	n/a	n/a	n/a	n/a
505.04	n/a	REC_WORD	252520	wordpools/wasnorm_wordpool_less_exclusions.txt	LTP187	ltpFR	12	1	1	ZUCCHINI	1638	n/a	1	n/a	0	0	0	n/a	n/a	n/a	n/a	n/a
519.456	n/a	REC_WORD	259728	wordpools/wasnorm_wordpool_less_exclusions.txt	LTP187	ltpFR	12	1	1	BELL	118	n/a	0	n/a	0	0	0	n/a	n/a	n/a	n/a	n/a
544.532	n/a	START	272266	n/a	LTP187	ltpFR	12	n/a	n/a	n/a	n/a	n/a	n/a	n/a	n/a	n/a	n/a	n/a	n/a	n/a	n/a	n/a
546.048	n/a	PROB	273024	n/a	LTP187	ltpFR	12	n/a	n/a	n/a	n/a	n/a	n/a	15	5	8	2	n/a	n/a	n/a	n/a	n/a
548.338	n/a	PROB	274169	n/a	LTP187	ltpFR	12	n/a	n/a	n/a	n/a	n/a	n/a	10	1	4	5	n/a	n/a	n/a	n/a	n/a
549.644	n/a	PROB	274822	n/a	LTP187	ltpFR	12	n/a	n/a	n/a	n/a	n/a	n/a	8	4	2	2	n/a	n/a	n/a	n/a	n/a
550.984	n/a	PROB	275492	n/a	LTP187	ltpFR	12	n/a	n/a	n/a	n/a	n/a	n/a	6	1	1	4	n/a	n/a	n/a	n/a	n/a
552.016	n/a	STOP	276008	n/a	LTP187	ltpFR	12	n/a	n/a	n/a	n/a	n/a	n/a	n/a	n/a	n/a	n/a	n/a	n/a	n/a	n/a	n/a
553.666	n/a	WORD	276833	wordpools/wasnorm_wordpool_less_exclusions.txt	LTP187	ltpFR	12	2	0	SAW	1239	n/a	1	n/a	0	0	0	0	0.5869140625	0.422607421875	upper	../fonts/zerothre.ttf
556.678	n/a	START	278339	n/a	LTP187	ltpFR	12	n/a	n/a	n/a	n/a	n/a	n/a	n/a	n/a	n/a	n/a	n/a	n/a	n/a	n/a	n/a
557.848	n/a	PROB	278924	n/a	LTP187	ltpFR	12	n/a	n/a	n/a	n/a	n/a	n/a	13	4	8	1	n/a	n/a	n/a	n/a	n/a
559.874	n/a	PROB	279937	n/a	LTP187	ltpFR	12	n/a	n/a	n/a	n/a	n/a	n/a	8	2	5	1	n/a	n/a	n/a	n/a	n/a
561.378	n/a	PROB	280689	n/a	LTP187	ltpFR	12	n/a	n/a	n/a	n/a	n/a	n/a	15	4	9	2	n/a	n/a	n/a	n/a	n/a
563.208	n/a	STOP	281604	n/a	LTP187	ltpFR	12	n/a	n/a	n/a	n/a	n/a	n/a	n/a	n/a	n/a	n/a	n/a	n/a	n/a	n/a	n/a
565.538	n/a	WORD	282769	wordpools/wasnorm_wordpool_less_exclusions.txt	LTP187	ltpFR	12	2	0	BENCH	121	n/a	1	n/a	0	0	0	0	0.5869140625	0.422607421875	upper	../fonts/zerothre.ttf
568.556	n/a	START	284278	n/a	LTP187	ltpFR	12	n/a	n/a	n/a	n/a	n/a	n/a	n/a	n/a	n/a	n/a	n/a	n/a	n/a	n/a	n/a
569.71	n/a	PROB	284855	n/a	LTP187	ltpFR	12	n/a	n/a	n/a	n/a	n/a	n/a	20	6	8	6	n/a	n/a	n/a	n/a	n/a
571.746	n/a	PROB	285873	n/a	LTP187	ltpFR	12	n/a	n/a	n/a	n/a	n/a	n/a	16	3	5	8	n/a	n/a	n/a	n/a	n/a
573.434	n/a	PROB	286717	n/a	LTP187	ltpFR	12	n/a	n/a	n/a	n/a	n/a	n/a	23	8	8	7	n/a	n/a	n/a	n/a	n/a
575.456	n/a	STOP	287728	n/a	LTP187	ltpFR	12	n/a	n/a	n/a	n/a	n/a	n/a	n/a	n/a	n/a	n/a	n/a	n/a	n/a	n/a	n/a
577.524	n/a	WORD	288762	wordpools/wasnorm_wordpool_less_exclusions.txt	LTP187	ltpFR	12	2	0	LAPEL	800	n/a	1	n/a	0	0	0	0	0.5869140625	0.422607421875	upper	../fonts/zerothre.ttf
580.536	n/a	START	290268	n/a	LTP187	ltpFR	12	n/a	n/a	n/a	n/a	n/a	n/a	n/a	n/a	n/a	n/a	n/a	n/a	n/a	n/a	n/a
581.372	n/a	PROB	290686	n/a	LTP187	ltpFR	12	n/a	n/a	n/a	n/a	n/a	n/a	19	9	8	2	n/a	n/a	n/a	n/a	n/a
583.424	n/a	PROB	291712	n/a	LTP187	ltpFR	12	n/a	n/a	n/a	n/a	n/a	n/a	14	5	2	7	n/a	n/a	n/a	n/a	n/a
588.536	n/a	STOP	294268	n/a	LTP187	ltpFR	12	n/a	n/a	n/a	n/a	n/a	n/a	n/a	n/a	n/a	n/a	n/a	n/a	n/a	n/a	n/a
589.452	n/a	WORD	294726	wordpools/wasnorm_wordpool_less_exclusions.txt	LTP187	ltpFR	12	2	0	SKIRT	1319	n/a	0	n/a	0	0	0	0	0.5869140625	0.422607421875	upper	../fonts/zerothre.ttf
592.464	n/a	START	296232	n/a	LTP187	ltpFR	12	n/a	n/a	n/a	n/a	n/a	n/a	n/a	n/a	n/a	n/a	n/a	n/a	n/a	n/a	n/a
593.602	n/a	PROB	296801	n/a	LTP187	ltpFR	12	n/a	n/a	n/a	n/a	n/a	n/a	9	1	3	5	n/a	n/a	n/a	n/a	n/a
595.234	n/a	PROB	297617	n/a	LTP187	ltpFR	12	n/a	n/a	n/a	n/a	n/a	n/a	14	8	3	3	n/a	n/a	n/a	n/a	n/a
597.26	n/a	PROB	298630	n/a	LTP187	ltpFR	12	n/a	n/a	n/a	n/a	n/a	n/a	9	4	3	2	n/a	n/a	n/a	n/a	n/a
598.956	n/a	STOP	299478	n/a	LTP187	ltpFR	12	n/a	n/a	n/a	n/a	n/a	n/a	n/a	n/a	n/a	n/a	n/a	n/a	n/a	n/a	n/a
601.482	n/a	WORD	300741	wordpools/wasnorm_wordpool_less_exclusions.txt	LTP187	ltpFR	12	2	0	INN	739	n/a	1	n/a	0	0	0	0	0.5869140625	0.422607421875	upper	../fonts/zerothre.ttf
604.494	n/a	START	302247	n/a	LTP187	ltpFR	12	n/a	n/a	n/a	n/a	n/a	n/a	n/a	n/a	n/a	n/a	n/a	n/a	n/a	n/a	n/a
605.642	n/a	PROB	302821	n/a	LTP187	ltpFR	12	n/a	n/a	n/a	n/a	n/a	n/a	15	1	6	8	n/a	n/a	n/a	n/a	n/a
607.85	n/a	PROB	303925	n/a	LTP187	ltpFR	12	n/a	n/a	n/a	n/a	n/a	n/a	19	6	7	6	n/a	n/a	n/a	n/a	n/a
610.116	n/a	PROB	305058	n/a	LTP187	ltpFR	12	n/a	n/a	n/a	n/a	n/a	n/a	25	7	9	9	n/a	n/a	n/a	n/a	n/a
611.684	n/a	STOP	305842	n/a	LTP187	ltpFR	12	n/a	n/a	n/a	n/a	n/a	n/a	n/a	n/a	n/a	n/a	n/a	n/a	n/a	n/a	n/a
613.344	n/a	WORD	306672	wordpools/wasnorm_wordpool_less_exclusions.txt	LTP187	ltpFR	12	2	0	LOBBY	836	n/a	1	n/a	0	0	0	0	0.5869140625	0.422607421875	upper	../fonts/zerothre.ttf
616.356	n/a	START	308178	n/a	LTP187	ltpFR	12	n/a	n/a	n/a	n/a	n/a	n/a	n/a	n/a	n/a	n/a	n/a	n/a	n/a	n/a	n/a
617.476	n/a	PROB	308738	n/a	LTP187	ltpFR	12	n/a	n/a	n/a	n/a	n/a	n/a	11	3	4	4	n/a	n/a	n/a	n/a	n/a
620.236	n/a	PROB	310118	n/a	LTP187	ltpFR	12	n/a	n/a	n/a	n/a	n/a	n/a	19	9	4	6	n/a	n/a	n/a	n/a	n/a
624.356	n/a	STOP	312178	n/a	LTP187	ltpFR	12	n/a	n/a	n/a	n/a	n/a	n/a	n/a	n/a	n/a	n/a	n/a	n/a	n/a	n/a	n/a
625.372	n/a	WORD	312686	wordpools/wasnorm_wordpool_less_exclusions.txt	LTP187	ltpFR	12	2	0	PEAR	1033	n/a	0	n/a	0	0	0	0	0.5869140625	0.422607421875	upper	../fonts/zerothre.ttf
628.384	n/a	START	314192	n/a	LTP187	ltpFR	12	n/a	n/a	n/a	n/a	n/a	n/a	n/a	n/a	n/a	n/a	n/a	n/a	n/a	n/a	n/a
629.214	n/a	PROB	314607	n/a	LTP187	ltpFR	12	n/a	n/a	n/a	n/a	n/a	n/a	5	2	1	2	n/a	n/a	n/a	n/a	n/a
631.038	n/a	PROB	315519	n/a	LTP187	ltpFR	12	n/a	n/a	n/a	n/a	n/a	n/a	13	1	4	8	n/a	n/a	n/a	n/a	n/a
633.13	n/a	PROB	316565	n/a	LTP187	ltpFR	12	n/a	n/a	n/a	n/a	n/a	n/a	14	5	7	2	n/a	n/a	n/a	n/a	n/a
634.862	n/a	STOP	317431	n/a	LTP187	ltpFR	12	n/a	n/a	n/a	n/a	n/a	n/a	n/a	n/a	n/a	n/a	n/a	n/a	n/a	n/a	n/a
637.246	n/a	WORD	318623	wordpools/wasnorm_wordpool_less_exclusions.txt	LTP187	ltpFR	12	2	0	HARE	688	n/a	0	n/a	0	0	0	0	0.5869140625	0.422607421875	upper	../fonts/zerothre.ttf
640.258	n/a	START	320129	n/a	LTP187	ltpFR	12	n/a	n/a	n/a	n/a	n/a	n/a	n/a	n/a	n/a	n/a	n/a	n/a	n/a	n/a	n/a
641.228	n/a	PROB	320614	n/a	LTP187	ltpFR	12	n/a	n/a	n/a	n/a	n/a	n/a	18	4	8	6	n/a	n/a	n/a	n/a	n/a
642.934	n/a	PROB	321467	n/a	LTP187	ltpFR	12	n/a	n/a	n/a	n/a	n/a	n/a	16	7	5	4	n/a	n/a	n/a	n/a	n/a
645.35	n/a	PROB	322675	n/a	LTP187	ltpFR	12	n/a	n/a	n/a	n/a	n/a	n/a	18	9	5	4	n/a	n/a	n/a	n/a	n/a
647.718	n/a	STOP	323859	n/a	LTP187	ltpFR	12	n/a	n/a	n/a	n/a	n/a	n/a	n/a	n/a	n/a	n/a	n/a	n/a	n/a	n/a	n/a
649.314	n/a	WORD	324657	wordpools/wasnorm_wordpool_less_exclusions.txt	LTP187	ltpFR	12	2	0	CANYON	235	n/a	1	n/a	0	0	0	0	0.5869140625	0.422607421875	upper	../fonts/zerothre.ttf
652.326	n/a	START	326163	n/a	LTP187	ltpFR	12	n/a	n/a	n/a	n/a	n/a	n/a	n/a	n/a	n/a	n/a	n/a	n/a	n/a	n/a	n/a
653.18	n/a	PROB	326590	n/a	LTP187	ltpFR	12	n/a	n/a	n/a	n/a	n/a	n/a	9	2	3	4	n/a	n/a	n/a	n/a	n/a
654.83	n/a	PROB	327415	n/a	LTP187	ltpFR	12	n/a	n/a	n/a	n/a	n/a	n/a	20	9	7	4	n/a	n/a	n/a	n/a	n/a
657.172	n/a	PROB	328586	n/a	LTP187	ltpFR	12	n/a	n/a	n/a	n/a	n/a	n/a	12	3	6	3	n/a	n/a	n/a	n/a	n/a
658.886	n/a	STOP	329443	n/a	LTP187	ltpFR	12	n/a	n/a	n/a	n/a	n/a	n/a	n/a	n/a	n/a	n/a	n/a	n/a	n/a	n/a	n/a
661.394	n/a	WORD	330697	wordpools/wasnorm_wordpool_less_exclusions.txt	LTP187	ltpFR	12	2	0	THICKET	1455	n/a	1	n/a	0	0	0	0	0.5869140625	0.422607421875	upper	../fonts/zerothre.ttf
664.406	n/a	START	332203	n/a	LTP187	ltpFR	12	n/a	n/a	n/a	n/a	n/a	n/a	n/a	n/a	n/a	n/a	n/a	n/a	n/a	n/a	n/a
665.292	n/a	PROB	332646	n/a	LTP187	ltpFR	12	n/a	n/a	n/a	n/a	n/a	n/a	14	3	7	4	n/a	n/a	n/a	n/a	n/a
666.692	n/a	PROB	333346	n/a	LTP187	ltpFR	12	n/a	n/a	n/a	n/a	n/a	n/a	20	8	3	9	n/a	n/a	n/a	n/a	n/a
668.8	n/a	PROB	334400	n/a	LTP187	ltpFR	12	n/a	n/a	n/a	n/a	n/a	n/a	7	3	2	2	n/a	n/a	n/a	n/a	n/a
670.822	n/a	STOP	335411	n/a	LTP187	ltpFR	12	n/a	n/a	n/a	n/a	n/a	n/a	n/a	n/a	n/a	n/a	n/a	n/a	n/a	n/a	n/a
673.4	n/a	WORD	336700	wordpools/wasnorm_wordpool_less_exclusions.txt	LTP187	ltpFR	12	2	0	CLAM	315	n/a	0	n/a	0	0	0	0	0.5869140625	0.422607421875	upper	../fonts/zerothre.ttf
676.412	n/a	START	338206	n/a	LTP187	ltpFR	12	n/a	n/a	n/a	n/a	n/a	n/a	n/a	n/a	n/a	n/a	n/a	n/a	n/a	n/a	n/a
677.316	n/a	PROB	338658	n/a	LTP187	ltpFR	12	n/a	n/a	n/a	n/a	n/a	n/a	11	2	4	5	n/a	n/a	n/a	n/a	n/a
679.708	n/a	PROB	339854	n/a	LTP187	ltpFR	12	n/a	n/a	n/a	n/a	n/a	n/a	15	4	7	4	n/a	n/a	n/a	n/a	n/a
681.598	n/a	PROB	340799	n/a	LTP187	ltpFR	12	n/a	n/a	n/a	n/a	n/a	n/a	13	4	5	4	n/a	n/a	n/a	n/a	n/a
683.992	n/a	STOP	341996	n/a	LTP187	ltpFR	12	n/a	n/a	n/a	n/a	n/a	n/a	n/a	n/a	n/a	n/a	n/a	n/a	n/a	n/a	n/a
685.368	n/a	WORD	342684	wordpools/wasnorm_wordpool_less_exclusions.txt	LTP187	ltpFR	12	2	0	FENCE	560	n/a	1	n/a	0	0	0	0	0.5869140625	0.422607421875	upper	../fonts/zerothre.ttf
688.38	n/a	START	344190	n/a	LTP187	ltpFR	12	n/a	n/a	n/a	n/a	n/a	n/a	n/a	n/a	n/a	n/a	n/a	n/a	n/a	n/a	n/a
689.266	n/a	PROB	344633	n/a	LTP187	ltpFR	12	n/a	n/a	n/a	n/a	n/a	n/a	23	6	9	8	n/a	n/a	n/a	n/a	n/a
692.106	n/a	PROB	346053	n/a	LTP187	ltpFR	12	n/a	n/a	n/a	n/a	n/a	n/a	15	8	4	3	n/a	n/a	n/a	n/a	n/a
694.246	n/a	PROB	347123	n/a	LTP187	ltpFR	12	n/a	n/a	n/a	n/a	n/a	n/a	13	4	4	5	n/a	n/a	n/a	n/a	n/a
696.176	n/a	STOP	348088	n/a	LTP187	ltpFR	12	n/a	n/a	n/a	n/a	n/a	n/a	n/a	n/a	n/a	n/a	n/a	n/a	n/a	n/a	n/a
697.516	n/a	WORD	348758	wordpools/wasnorm_wordpool_less_exclusions.txt	LTP187	ltpFR	12	2	0	MOUNTAIN	924	n/a	1	n/a	0	0	0	0	0.5869140625	0.422607421875	upper	../fonts/zerothre.ttf
700.528	n/a	START	350264	n/a	LTP187	ltpFR	12	n/a	n/a	n/a	n/a	n/a	n/a	n/a	n/a	n/a	n/a	n/a	n/a	n/a	n/a	n/a
701.43	n/a	PROB	350715	n/a	LTP187	ltpFR	12	n/a	n/a	n/a	n/a	n/a	n/a	12	6	4	2	n/a	n/a	n/a	n/a	n/a
703.672	n/a	PROB	351836	n/a	LTP187	ltpFR	12	n/a	n/a	n/a	n/a	n/a	n/a	16	6	1	9	n/a	n/a	n/a	n/a	n/a
705.68	n/a	PROB	352840	n/a	LTP187	ltpFR	12	n/a	n/a	n/a	n/a	n/a	n/a	7	1	4	2	n/a	n/a	n/a	n/a	n/a
707.312	n/a	STOP	353656	n/a	LTP187	ltpFR	12	n/a	n/a	n/a	n/a	n/a	n/a	n/a	n/a	n/a	n/a	n/a	n/a	n/a	n/a	n/a
709.422	n/a	WORD	354711	wordpools/wasnorm_wordpool_less_exclusions.txt	LTP187	ltpFR	12	2	0	JAW	751	n/a	n/a	n/a	0	0	0	0	0.5869140625	0.422607421875	upper	../fonts/zerothre.ttf
712.472	n/a	SLOW_MSG	356236	n/a	LTP187	ltpFR	12	2	n/a	n/a	n/a	n/a	n/a	n/a	0	0	0	n/a	n/a	n/a	n/a	n/a
714.006	n/a	START	357003	n/a	LTP187	ltpFR	12	n/a	n/a	n/a	n/a	n/a	n/a	n/a	n/a	n/a	n/a	n/a	n/a	n/a	n/a	n/a
715.182	n/a	PROB	357591	n/a	LTP187	ltpFR	12	n/a	n/a	n/a	n/a	n/a	n/a	14	8	5	1	n/a	n/a	n/a	n/a	n/a
717.302	n/a	PROB	358651	n/a	LTP187	ltpFR	12	n/a	n/a	n/a	n/a	n/a	n/a	15	6	5	4	n/a	n/a	n/a	n/a	n/a
718.506	n/a	PROB	359253	n/a	LTP187	ltpFR	12	n/a	n/a	n/a	n/a	n/a	n/a	13	2	9	1	n/a	n/a	n/a	n/a	n/a
722.006	n/a	STOP	361003	n/a	LTP187	ltpFR	12	n/a	n/a	n/a	n/a	n/a	n/a	n/a	n/a	n/a	n/a	n/a	n/a	n/a	n/a	n/a
723.174	n/a	WORD	361587	wordpools/wasnorm_wordpool_less_exclusions.txt	LTP187	ltpFR	12	2	0	NECK	939	n/a	0	n/a	0	0	0	0	0.5869140625	0.422607421875	upper	../fonts/zerothre.ttf
726.186	n/a	START	363093	n/a	LTP187	ltpFR	12	n/a	n/a	n/a	n/a	n/a	n/a	n/a	n/a	n/a	n/a	n/a	n/a	n/a	n/a	n/a
727.356	n/a	PROB	363678	n/a	LTP187	ltpFR	12	n/a	n/a	n/a	n/a	n/a	n/a	17	2	7	8	n/a	n/a	n/a	n/a	n/a
734.186	n/a	STOP	367093	n/a	LTP187	ltpFR	12	n/a	n/a	n/a	n/a	n/a	n/a	n/a	n/a	n/a	n/a	n/a	n/a	n/a	n/a	n/a
735.254	n/a	WORD	367627	wordpools/wasnorm_wordpool_less_exclusions.txt	LTP187	ltpFR	12	2	0	KNOB	787	n/a	0	n/a	0	0	0	0	0.5869140625	0.422607421875	upper	../fonts/zerothre.ttf
738.264	n/a	START	369132	n/a	LTP187	ltpFR	12	n/a	n/a	n/a	n/a	n/a	n/a	n/a	n/a	n/a	n/a	n/a	n/a	n/a	n/a	n/a
739.392	n/a	PROB	369696	n/a	LTP187	ltpFR	12	n/a	n/a	n/a	n/a	n/a	n/a	17	3	7	7	n/a	n/a	n/a	n/a	n/a
741.662	n/a	PROB	370831	n/a	LTP187	ltpFR	12	n/a	n/a	n/a	n/a	n/a	n/a	12	2	3	7	n/a	n/a	n/a	n/a	n/a
746.266	n/a	STOP	373133	n/a	LTP187	ltpFR	12	n/a	n/a	n/a	n/a	n/a	n/a	n/a	n/a	n/a	n/a	n/a	n/a	n/a	n/a	n/a
748.06	n/a	REC_START	374030	n/a	LTP187	ltpFR	12	2	n/a	n/a	n/a	n/a	n/a	n/a	0	0	0	n/a	n/a	n/a	n/a	n/a
749.75	n/a	REC_WORD	374875	wordpools/wasnorm_wordpool_less_exclusions.txt	LTP187	ltpFR	12	2	0	BENCH	121	n/a	1	n/a	0	0	0	n/a	n/a	n/a	n/a	n/a
751.224	n/a	REC_WORD	375612	wordpools/wasnorm_wordpool_less_exclusions.txt	LTP187	ltpFR	12	2	0	SAW	1239	n/a	1	n/a	0	0	0	n/a	n/a	n/a	n/a	n/a
752.904	n/a	REC_WORD	376452	wordpools/wasnorm_wordpool_less_exclusions.txt	LTP187	ltpFR	12	2	n/a	BLOUSE	139	n/a	n/a	n/a	0	0	0	n/a	n/a	n/a	n/a	n/a
755.798	n/a	REC_WORD	377899	wordpools/wasnorm_wordpool_less_exclusions.txt	LTP187	ltpFR	12	2	0	LAPEL	800	n/a	1	n/a	0	0	0	n/a	n/a	n/a	n/a	n/a
758.83	n/a	REC_WORD	379415	wordpools/wasnorm_wordpool_less_exclusions.txt	LTP187	ltpFR	12	2	0	SKIRT	1319	n/a	0	n/a	0	0	0	n/a	n/a	n/a	n/a	n/a
761.22	n/a	REC_WORD	380610	wordpools/wasnorm_wordpool_less_exclusions.txt	LTP187	ltpFR	12	2	0	CANYON	235	n/a	1	n/a	0	0	0	n/a	n/a	n/a	n/a	n/a
762.972	n/a	REC_WORD	381486	wordpools/wasnorm_wordpool_less_exclusions.txt	LTP187	ltpFR	12	2	0	NECK	939	n/a	0	n/a	0	0	0	n/a	n/a	n/a	n/a	n/a
792.766	n/a	REC_WORD	396383	wordpools/wasnorm_wordpool_less_exclusions.txt	LTP187	ltpFR	12	2	0	JAW	751	n/a	n/a	n/a	0	0	0	n/a	n/a	n/a	n/a	n/a
805.548	n/a	REC_WORD	402774	wordpools/wasnorm_wordpool_less_exclusions.txt	LTP187	ltpFR	12	2	0	HARE	688	n/a	0	n/a	0	0	0	n/a	n/a	n/a	n/a	n/a
806.78	n/a	REC_WORD	403390	wordpools/wasnorm_wordpool_less_exclusions.txt	LTP187	ltpFR	12	2	0	THICKET	1455	n/a	1	n/a	0	0	0	n/a	n/a	n/a	n/a	n/a
857.002	n/a	WORD	428501	wordpools/wasnorm_wordpool_less_exclusions.txt	LTP187	ltpFR	12	3	0	VOLCANO	1575	n/a	1	n/a	0	0	0	0	0.5869140625	0.422607421875	upper	../fonts/zerothre.ttf
860.874	n/a	WORD	430437	wordpools/wasnorm_wordpool_less_exclusions.txt	LTP187	ltpFR	12	3	0	LAVA	804	n/a	1	n/a	0	0	0	0	0.5869140625	0.422607421875	upper	../fonts/zerothre.ttf
864.772	n/a	WORD	432386	wordpools/wasnorm_wordpool_less_exclusions.txt	LTP187	ltpFR	12	3	0	DRESS	495	n/a	0	n/a	0	0	0	0	0.5869140625	0.422607421875	upper	../fonts/zerothre.ttf
868.972	n/a	WORD	434486	wordpools/wasnorm_wordpool_less_exclusions.txt	LTP187	ltpFR	12	3	0	ELK	526	n/a	1	n/a	0	0	0	0	0.5869140625	0.422607421875	upper	../fonts/zerothre.ttf
872.83	n/a	WORD	436415	wordpools/wasnorm_wordpool_less_exclusions.txt	LTP187	ltpFR	12	3	0	HANDBAG	684	n/a	0	n/a	0	0	0	0	0.5869140625	0.422607421875	upper	../fonts/zerothre.ttf
876.684	n/a	WORD	438342	wordpools/wasnorm_wordpool_less_exclusions.txt	LTP187	ltpFR	12	3	0	TOOTHPASTE	1483	n/a	0	n/a	0	0	0	0	0.5869140625	0.422607421875	upper	../fonts/zerothre.ttf
880.65	n/a	WORD	440325	wordpools/wasnorm_wordpool_less_exclusions.txt	LTP187	ltpFR	12	3	0	GUM	672	n/a	0	n/a	0	0	0	0	0.5869140625	0.422607421875	upper	../fonts/zerothre.ttf
884.782	n/a	WORD	442391	wordpools/wasnorm_wordpool_less_exclusions.txt	LTP187	ltpFR	12	3	0	BRANCH	168	n/a	1	n/a	0	0	0	0	0.5869140625	0.422607421875	upper	../fonts/zerothre.ttf
888.764	n/a	WORD	444382	wordpools/wasnorm_wordpool_less_exclusions.txt	LTP187	ltpFR	12	3	0	STAIRS	1367	n/a	1	n/a	0	0	0	0	0.5869140625	0.422607421875	upper	../fonts/zerothre.ttf
892.94	n/a	WORD	446470	wordpools/wasnorm_wordpool_less_exclusions.txt	LTP187	ltpFR	12	3	0	ANTELOPE	27	n/a	1	n/a	0	0	0	0	0.5869140625	0.422607421875	upper	../fonts/zerothre.ttf
897.09	n/a	WORD	448545	wordpools/wasnorm_wordpool_less_exclusions.txt	LTP187	ltpFR	12	3	0	ZIPPER	1636	n/a	0	n/a	0	0	0	0	0.5869140625	0.422607421875	upper	../fonts/zerothre.ttf
900.92	n/a	WORD	450460	wordpools/wasnorm_wordpool_less_exclusions.txt	LTP187	ltpFR	12	3	0	PLATE	1086	n/a	1	n/a	0	0	0	0	0.5869140625	0.422607421875	upper	../fonts/zerothre.ttf
904.858	n/a	WORD	452429	wordpools/wasnorm_wordpool_less_exclusions.txt	LTP187	ltpFR	12	3	0	SCREEN	1253	n/a	0	n/a	0	0	0	0	0.5869140625	0.422607421875	upper	../fonts/zerothre.ttf
908.774	n/a	WORD	454387	wordpools/wasnorm_wordpool_less_exclusions.txt	LTP187	ltpFR	12	3	0	ANTENNA	28	n/a	0	n/a	0	0	0	0	0.5869140625	0.422607421875	upper	../fonts/zerothre.ttf
912.982	n/a	WORD	456491	wordpools/wasnorm_wordpool_less_exclusions.txt	LTP187	ltpFR	12	3	0	CREAM	402	n/a	0	n/a	0	0	0	0	0.5869140625	0.422607421875	upper	../fonts/zerothre.ttf
917.05	n/a	WORD	458525	wordpools/wasnorm_wordpool_less_exclusions.txt	LTP187	ltpFR	12	3	0	DOG	480	n/a	0	n/a	0	0	0	0	0.5869140625	0.422607421875	upper	../fonts/zerothre.ttf
920.06	n/a	START	460030	n/a	LTP187	ltpFR	12	n/a	n/a	n/a	n/a	n/a	n/a	n/a	n/a	n/a	n/a	n/a	n/a	n/a	n/a	n/a
921.03	n/a	PROB	460515	n/a	LTP187	ltpFR	12	n/a	n/a	n/a	n/a	n/a	n/a	10	1	7	2	n/a	n/a	n/a	n/a	n/a
923.648	n/a	PROB	461824	n/a	LTP187	ltpFR	12	n/a	n/a	n/a	n/a	n/a	n/a	17	8	5	4	n/a	n/a	n/a	n/a	n/a
926.35	n/a	PROB	463175	n/a	LTP187	ltpFR	12	n/a	n/a	n/a	n/a	n/a	n/a	11	2	5	4	n/a	n/a	n/a	n/a	n/a
928.34	n/a	PROB	464170	n/a	LTP187	ltpFR	12	n/a	n/a	n/a	n/a	n/a	n/a	8	3	4	1	n/a	n/a	n/a	n/a	n/a
929.618	n/a	PROB	464809	n/a	LTP187	ltpFR	12	n/a	n/a	n/a	n/a	n/a	n/a	16	6	6	4	n/a	n/a	n/a	n/a	n/a
932.356	n/a	PROB	466178	n/a	LTP187	ltpFR	12	n/a	n/a	n/a	n/a	n/a	n/a	14	2	3	9	n/a	n/a	n/a	n/a	n/a
934.612	n/a	STOP	467306	n/a	LTP187	ltpFR	12	n/a	n/a	n/a	n/a	n/a	n/a	n/a	n/a	n/a	n/a	n/a	n/a	n/a	n/a	n/a
937.87	n/a	REC_START	468935	n/a	LTP187	ltpFR	12	3	n/a	n/a	n/a	n/a	n/a	n/a	0	0	0	n/a	n/a	n/a	n/a	n/a
939.272	n/a	REC_WORD	469636	wordpools/wasnorm_wordpool_less_exclusions.txt	LTP187	ltpFR	12	3	0	VOLCANO	1575	n/a	1	n/a	0	0	0	n/a	n/a	n/a	n/a	n/a
941.082	n/a	REC_WORD	470541	wordpools/wasnorm_wordpool_less_exclusions.txt	LTP187	ltpFR	12	3	0	LAVA	804	n/a	1	n/a	0	0	0	n/a	n/a	n/a	n/a	n/a
943.69	n/a	REC_WORD	471845	wordpools/wasnorm_wordpool_less_exclusions.txt	LTP187	ltpFR	12	3	0	DRESS	495	n/a	0	n/a	0	0	0	n/a	n/a	n/a	n/a	n/a
946.984	n/a	REC_WORD	473492	wordpools/wasnorm_wordpool_less_exclusions.txt	LTP187	ltpFR	12	3	0	ELK	526	n/a	1	n/a	0	0	0	n/a	n/a	n/a	n/a	n/a
949.442	n/a	REC_WORD	474721	wordpools/wasnorm_wordpool_less_exclusions.txt	LTP187	ltpFR	12	3	0	HANDBAG	684	n/a	0	n/a	0	0	0	n/a	n/a	n/a	n/a	n/a
951.268	n/a	REC_WORD	475634	wordpools/wasnorm_wordpool_less_exclusions.txt	LTP187	ltpFR	12	3	0	TOOTHPASTE	1483	n/a	0	n/a	0	0	0	n/a	n/a	n/a	n/a	n/a
959.262	n/a	REC_WORD	479631	wordpools/wasnorm_wordpool_less_exclusions.txt	LTP187	ltpFR	12	3	0	ZIPPER	1636	n/a	0	n/a	0	0	0	n/a	n/a	n/a	n/a	n/a
960.848	n/a	REC_WORD	480424	wordpools/wasnorm_wordpool_less_exclusions.txt	LTP187	ltpFR	12	3	0	STAIRS	1367	n/a	1	n/a	0	0	0	n/a	n/a	n/a	n/a	n/a
965.926	n/a	REC_WORD	482963	wordpools/wasnorm_wordpool_less_exclusions.txt	LTP187	ltpFR	12	3	0	ANTENNA	28	n/a	0	n/a	0	0	0	n/a	n/a	n/a	n/a	n/a
973.606	n/a	REC_WORD	486803	wordpools/wasnorm_wordpool_less_exclusions.txt	LTP187	ltpFR	12	3	0	PLATE	1086	n/a	1	n/a	0	0	0	n/a	n/a	n/a	n/a	n/a
977.82	n/a	REC_WORD	488910	wordpools/wasnorm_wordpool_less_exclusions.txt	LTP187	ltpFR	12	3	0	ANTELOPE	27	n/a	1	n/a	0	0	0	n/a	n/a	n/a	n/a	n/a
999.85	n/a	REC_WORD	499925	wordpools/wasnorm_wordpool_less_exclusions.txt	LTP187	ltpFR	12	3	0	DOG	480	n/a	0	n/a	0	0	0	n/a	n/a	n/a	n/a	n/a
1002.48	n/a	REC_WORD	501240	wordpools/wasnorm_wordpool_less_exclusions.txt	LTP187	ltpFR	12	3	0	CREAM	402	n/a	0	n/a	0	0	0	n/a	n/a	n/a	n/a	n/a
1026.482	n/a	START	513241	n/a	LTP187	ltpFR	12	n/a	n/a	n/a	n/a	n/a	n/a	n/a	n/a	n/a	n/a	n/a	n/a	n/a	n/a	n/a
1027.996	n/a	PROB	513998	n/a	LTP187	ltpFR	12	n/a	n/a	n/a	n/a	n/a	n/a	9	2	6	1	n/a	n/a	n/a	n/a	n/a
1029.618	n/a	PROB	514809	n/a	LTP187	ltpFR	12	n/a	n/a	n/a	n/a	n/a	n/a	18	5	4	9	n/a	n/a	n/a	n/a	n/a
1031.174	n/a	PROB	515587	n/a	LTP187	ltpFR	12	n/a	n/a	n/a	n/a	n/a	n/a	15	4	4	7	n/a	n/a	n/a	n/a	n/a
1034.29	n/a	STOP	517145	n/a	LTP187	ltpFR	12	n/a	n/a	n/a	n/a	n/a	n/a	n/a	n/a	n/a	n/a	n/a	n/a	n/a	n/a	n/a
1035.474	n/a	WORD	517737	wordpools/wasnorm_wordpool_less_exclusions.txt	LTP187	ltpFR	12	4	1	WATERFALL	1595	n/a	0	n/a	0	0	0	1	0.412841796875	0.57763671875	lower	../fonts/amplitud.ttf
1038.486	n/a	START	519243	n/a	LTP187	ltpFR	12	n/a	n/a	n/a	n/a	n/a	n/a	n/a	n/a	n/a	n/a	n/a	n/a	n/a	n/a	n/a
1039.322	n/a	PROB	519661	n/a	LTP187	ltpFR	12	n/a	n/a	n/a	n/a	n/a	n/a	17	8	1	8	n/a	n/a	n/a	n/a	n/a
1040.99	n/a	PROB	520495	n/a	LTP187	ltpFR	12	n/a	n/a	n/a	n/a	n/a	n/a	11	9	1	1	n/a	n/a	n/a	n/a	n/a
1042.51	n/a	PROB	521255	n/a	LTP187	ltpFR	12	n/a	n/a	n/a	n/a	n/a	n/a	21	9	4	8	n/a	n/a	n/a	n/a	n/a
1045.458	n/a	STOP	522729	n/a	LTP187	ltpFR	12	n/a	n/a	n/a	n/a	n/a	n/a	n/a	n/a	n/a	n/a	n/a	n/a	n/a	n/a	n/a
1047.62	n/a	WORD	523810	wordpools/wasnorm_wordpool_less_exclusions.txt	LTP187	ltpFR	12	4	1	WORM	1623	n/a	0	n/a	0	0	0	1	0.412841796875	0.57763671875	lower	../fonts/amplitud.ttf
1050.632	n/a	START	525316	n/a	LTP187	ltpFR	12	n/a	n/a	n/a	n/a	n/a	n/a	n/a	n/a	n/a	n/a	n/a	n/a	n/a	n/a	n/a
1051.536	n/a	PROB	525768	n/a	LTP187	ltpFR	12	n/a	n/a	n/a	n/a	n/a	n/a	14	2	3	9	n/a	n/a	n/a	n/a	n/a
1053.52	n/a	PROB	526760	n/a	LTP187	ltpFR	12	n/a	n/a	n/a	n/a	n/a	n/a	17	7	9	1	n/a	n/a	n/a	n/a	n/a
1056.18	n/a	PROB	528090	n/a	LTP187	ltpFR	12	n/a	n/a	n/a	n/a	n/a	n/a	20	3	9	8	n/a	n/a	n/a	n/a	n/a
1057.892	n/a	STOP	528946	n/a	LTP187	ltpFR	12	n/a	n/a	n/a	n/a	n/a	n/a	n/a	n/a	n/a	n/a	n/a	n/a	n/a	n/a	n/a
1059.844	n/a	WORD	529922	wordpools/wasnorm_wordpool_less_exclusions.txt	LTP187	ltpFR	12	4	1	BOAT	144	n/a	0	n/a	0	0	0	1	0.412841796875	0.57763671875	lower	../fonts/amplitud.ttf
1062.856	n/a	START	531428	n/a	LTP187	ltpFR	12	n/a	n/a	n/a	n/a	n/a	n/a	n/a	n/a	n/a	n/a	n/a	n/a	n/a	n/a	n/a
1063.944	n/a	PROB	531972	n/a	LTP187	ltpFR	12	n/a	n/a	n/a	n/a	n/a	n/a	12	7	2	3	n/a	n/a	n/a	n/a	n/a
1065.718	n/a	PROB	532859	n/a	LTP187	ltpFR	12	n/a	n/a	n/a	n/a	n/a	n/a	8	5	2	1	n/a	n/a	n/a	n/a	n/a
1067.174	n/a	PROB	533587	n/a	LTP187	ltpFR	12	n/a	n/a	n/a	n/a	n/a	n/a	8	1	4	3	n/a	n/a	n/a	n/a	n/a
1068.902	n/a	PROB	534451	n/a	LTP187	ltpFR	12	n/a	n/a	n/a	n/a	n/a	n/a	19	2	9	8	n/a	n/a	n/a	n/a	n/a
1070.34	n/a	STOP	535170	n/a	LTP187	ltpFR	12	n/a	n/a	n/a	n/a	n/a	n/a	n/a	n/a	n/a	n/a	n/a	n/a	n/a	n/a	n/a
1071.974	n/a	WORD	535987	wordpools/wasnorm_wordpool_less_exclusions.txt	LTP187	ltpFR	12	4	1	TUBE	1516	n/a	0	n/a	0	0	0	1	0.412841796875	0.57763671875	lower	../fonts/amplitud.ttf
1074.986	n/a	START	537493	n/a	LTP187	ltpFR	12	n/a	n/a	n/a	n/a	n/a	n/a	n/a	n/a	n/a	n/a	n/a	n/a	n/a	n/a	n/a
1075.812	n/a	PROB	537906	n/a	LTP187	ltpFR	12	n/a	n/a	n/a	n/a	n/a	n/a	17	1	8	8	n/a	n/a	n/a	n/a	n/a
1078.248	n/a	PROB	539124	n/a	LTP187	ltpFR	12	n/a	n/a	n/a	n/a	n/a	n/a	18	2	7	9	n/a	n/a	n/a	n/a	n/a
1080.172	n/a	PROB	540086	n/a	LTP187	ltpFR	12	n/a	n/a	n/a	n/a	n/a	n/a	15	9	3	3	n/a	n/a	n/a	n/a	n/a
1081.996	n/a	STOP	540998	n/a	LTP187	ltpFR	12	n/a	n/a	n/a	n/a	n/a	n/a	n/a	n/a	n/a	n/a	n/a	n/a	n/a	n/a	n/a
1084.16	n/a	WORD	542080	wordpools/wasnorm_wordpool_less_exclusions.txt	LTP187	ltpFR	12	4	1	DANDELION	438	n/a	0	n/a	0	0	0	1	0.412841796875	0.57763671875	lower	../fonts/amplitud.ttf
1087.172	n/a	START	543586	n/a	LTP187	ltpFR	12	n/a	n/a	n/a	n/a	n/a	n/a	n/a	n/a	n/a	n/a	n/a	n/a	n/a	n/a	n/a
1088.17	n/a	PROB	544085	n/a	LTP187	ltpFR	12	n/a	n/a	n/a	n/a	n/a	n/a	12	6	2	4	n/a	n/a	n/a	n/a	n/a
1090.026	n/a	PROB	545013	n/a	LTP187	ltpFR	12	n/a	n/a	n/a	n/a	n/a	n/a	25	8	8	9	n/a	n/a	n/a	n/a	n/a
1094.79	n/a	STOP	547395	n/a	LTP187	ltpFR	12	n/a	n/a	n/a	n/a	n/a	n/a	n/a	n/a	n/a	n/a	n/a	n/a	n/a	n/a	n/a
1096.34	n/a	WORD	548170	wordpools/wasnorm_wordpool_less_exclusions.txt	LTP187	ltpFR	12	4	1	MARINE	869	n/a	1	n/a	0	0	0	1	0.412841796875	0.57763671875	lower	../fonts/amplitud.ttf
1099.352	n/a	START	549676	n/a	LTP187	ltpFR	12	n/a	n/a	n/a	n/a	n/a	n/a	n/a	n/a	n/a	n/a	n/a	n/a	n/a	n/a	n/a
1100.566	n/a	PROB	550283	n/a	LTP187	ltpFR	12	n/a	n/a	n/a	n/a	n/a	n/a	14	6	5	3	n/a	n/a	n/a	n/a	n/a
1107.352	n/a	STOP	553676	n/a	LTP187	ltpFR	12	n/a	n/a	n/a	n/a	n/a	n/a	n/a	n/a	n/a	n/a	n/a	n/a	n/a	n/a	n/a
1108.184	n/a	WORD	554092	wordpools/wasnorm_wordpool_less_exclusions.txt	LTP187	ltpFR	12	4	1	JEANS	752	n/a	0	n/a	0	0	0	1	0.412841796875	0.57763671875	lower	../fonts/amplitud.ttf
1111.196	n/a	START	555598	n/a	LTP187	ltpFR	12	n/a	n/a	n/a	n/a	n/a	n/a	n/a	n/a	n/a	n/a	n/a	n/a	n/a	n/a	n/a
1112.216	n/a	PROB	556108	n/a	LTP187	ltpFR	12	n/a	n/a	n/a	n/a	n/a	n/a	11	2	6	3	n/a	n/a	n/a	n/a	n/a
1114.602	n/a	PROB	557301	n/a	LTP187	ltpFR	12	n/a	n/a	n/a	n/a	n/a	n/a	16	7	6	3	n/a	n/a	n/a	n/a	n/a
1116.226	n/a	PROB	558113	n/a	LTP187	ltpFR	12	n/a	n/a	n/a	n/a	n/a	n/a	20	8	7	5	n/a	n/a	n/a	n/a	n/a
1118.35	n/a	STOP	559175	n/a	LTP187	ltpFR	12	n/a	n/a	n/a	n/a	n/a	n/a	n/a	n/a	n/a	n/a	n/a	n/a	n/a	n/a	n/a
1120.348	n/a	WORD	560174	wordpools/wasnorm_wordpool_less_exclusions.txt	LTP187	ltpFR	12	4	1	THIGH	1457	n/a	0	n/a	0	0	0	1	0.412841796875	0.57763671875	lower	../fonts/amplitud.ttf
1123.36	n/a	START	561680	n/a	LTP187	ltpFR	12	n/a	n/a	n/a	n/a	n/a	n/a	n/a	n/a	n/a	n/a	n/a	n/a	n/a	n/a	n/a
1124.18	n/a	PROB	562090	n/a	LTP187	ltpFR	12	n/a	n/a	n/a	n/a	n/a	n/a	14	1	5	8	n/a	n/a	n/a	n/a	n/a
1126.79	n/a	PROB	563395	n/a	LTP187	ltpFR	12	n/a	n/a	n/a	n/a	n/a	n/a	17	6	8	3	n/a	n/a	n/a	n/a	n/a
1129.526	n/a	PROB	564763	n/a	LTP187	ltpFR	12	n/a	n/a	n/a	n/a	n/a	n/a	16	6	8	2	n/a	n/a	n/a	n/a	n/a
1130.904	n/a	STOP	565452	n/a	LTP187	ltpFR	12	n/a	n/a	n/a	n/a	n/a	n/a	n/a	n/a	n/a	n/a	n/a	n/a	n/a	n/a	n/a
1132.21	n/a	WORD	566105	wordpools/wasnorm_wordpool_less_exclusions.txt	LTP187	ltpFR	12	4	1	SHOWER	1296	n/a	0	n/a	0	0	0	1	0.412841796875	0.57763671875	lower	../fonts/amplitud.ttf
1135.222	n/a	START	567611	n/a	LTP187	ltpFR	12	n/a	n/a	n/a	n/a	n/a	n/a	n/a	n/a	n/a	n/a	n/a	n/a	n/a	n/a	n/a
1136.342	n/a	PROB	568171	n/a	LTP187	ltpFR	12	n/a	n/a	n/a	n/a	n/a	n/a	11	8	1	2	n/a	n/a	n/a	n/a	n/a
1138.144	n/a	PROB	569072	n/a	LTP187	ltpFR	12	n/a	n/a	n/a	n/a	n/a	n/a	18	6	4	8	n/a	n/a	n/a	n/a	n/a
1139.554	n/a	PROB	569777	n/a	LTP187	ltpFR	12	n/a	n/a	n/a	n/a	n/a	n/a	14	3	5	6	n/a	n/a	n/a	n/a	n/a
1141.648	n/a	STOP	570824	n/a	LTP187	ltpFR	12	n/a	n/a	n/a	n/a	n/a	n/a	n/a	n/a	n/a	n/a	n/a	n/a	n/a	n/a	n/a
1144.406	n/a	WORD	572203	wordpools/wasnorm_wordpool_less_exclusions.txt	LTP187	ltpFR	12	4	1	LAGOON	795	n/a	0	n/a	0	0	0	1	0.412841796875	0.57763671875	lower	../fonts/amplitud.ttf
1147.418	n/a	START	573709	n/a	LTP187	ltpFR	12	n/a	n/a	n/a	n/a	n/a	n/a	n/a	n/a	n/a	n/a	n/a	n/a	n/a	n/a	n/a
1148.59	n/a	PROB	574295	n/a	LTP187	ltpFR	12	n/a	n/a	n/a	n/a	n/a	n/a	15	2	8	5	n/a	n/a	n/a	n/a	n/a
1149.99	n/a	PROB	574995	n/a	LTP187	ltpFR	12	n/a	n/a	n/a	n/a	n/a	n/a	12	5	6	1	n/a	n/a	n/a	n/a	n/a
1152.098	n/a	PROB	576049	n/a	LTP187	ltpFR	12	n/a	n/a	n/a	n/a	n/a	n/a	16	3	9	4	n/a	n/a	n/a	n/a	n/a
1153.81	n/a	PROB	576905	n/a	LTP187	ltpFR	12	n/a	n/a	n/a	n/a	n/a	n/a	11	8	1	2	n/a	n/a	n/a	n/a	n/a
1155.248	n/a	STOP	577624	n/a	LTP187	ltpFR	12	n/a	n/a	n/a	n/a	n/a	n/a	n/a	n/a	n/a	n/a	n/a	n/a	n/a	n/a	n/a
1156.552	n/a	WORD	578276	wordpools/wasnorm_wordpool_less_exclusions.txt	LTP187	ltpFR	12	4	1	CONTAINER	366	n/a	0	n/a	0	0	0	1	0.412841796875	0.57763671875	lower	../fonts/amplitud.ttf
1159.566	n/a	START	579783	n/a	LTP187	ltpFR	12	n/a	n/a	n/a	n/a	n/a	n/a	n/a	n/a	n/a	n/a	n/a	n/a	n/a	n/a	n/a
1160.72	n/a	PROB	580360	n/a	LTP187	ltpFR	12	n/a	n/a	n/a	n/a	n/a	n/a	11	1	5	5	n/a	n/a	n/a	n/a	n/a
1162.42	n/a	PROB	581210	n/a	LTP187	ltpFR	12	n/a	n/a	n/a	n/a	n/a	n/a	20	7	5	8	n/a	n/a	n/a	n/a	n/a
1164.434	n/a	PROB	582217	n/a	LTP187	ltpFR	12	n/a	n/a	n/a	n/a	n/a	n/a	15	4	9	2	n/a	n/a	n/a	n/a	n/a
1166.85	n/a	STOP	583425	n/a	LTP187	ltpFR	12	n/a	n/a	n/a	n/a	n/a	n/a	n/a	n/a	n/a	n/a	n/a	n/a	n/a	n/a	n/a
1168.414	n/a	WORD	584207	wordpools/wasnorm_wordpool_less_exclusions.txt	LTP187	ltpFR	12	4	1	TULIP	1517	n/a	0	n/a	0	0	0	1	0.412841796875	0.57763671875	lower	../fonts/amplitud.ttf
1171.426	n/a	START	585713	n/a	LTP187	ltpFR	12	n/a	n/a	n/a	n/a	n/a	n/a	n/a	n/a	n/a	n/a	n/a	n/a	n/a	n/a	n/a
1172.464	n/a	PROB	586232	n/a	LTP187	ltpFR	12	n/a	n/a	n/a	n/a	n/a	n/a	12	2	1	9	n/a	n/a	n/a	n/a	n/a
1174.114	n/a	PROB	587057	n/a	LTP187	ltpFR	12	n/a	n/a	n/a	n/a	n/a	n/a	14	2	4	8	n/a	n/a	n/a	n/a	n/a
1176.022	n/a	PROB	588011	n/a	LTP187	ltpFR	12	n/a	n/a	n/a	n/a	n/a	n/a	14	1	5	8	n/a	n/a	n/a	n/a	n/a
1178.89	n/a	STOP	589445	n/a	LTP187	ltpFR	12	n/a	n/a	n/a	n/a	n/a	n/a	n/a	n/a	n/a	n/a	n/a	n/a	n/a	n/a	n/a
1180.36	n/a	WORD	590180	wordpools/wasnorm_wordpool_less_exclusions.txt	LTP187	ltpFR	12	4	1	BUTTERFLY	206	n/a	1	n/a	0	0	0	1	0.412841796875	0.57763671875	lower	../fonts/amplitud.ttf
1183.372	n/a	START	591686	n/a	LTP187	ltpFR	12	n/a	n/a	n/a	n/a	n/a	n/a	n/a	n/a	n/a	n/a	n/a	n/a	n/a	n/a	n/a
1184.426	n/a	PROB	592213	n/a	LTP187	ltpFR	12	n/a	n/a	n/a	n/a	n/a	n/a	10	5	2	3	n/a	n/a	n/a	n/a	n/a
1186.964	n/a	PROB	593482	n/a	LTP187	ltpFR	12	n/a	n/a	n/a	n/a	n/a	n/a	13	5	4	4	n/a	n/a	n/a	n/a	n/a
1188.844	n/a	PROB	594422	n/a	LTP187	ltpFR	12	n/a	n/a	n/a	n/a	n/a	n/a	10	4	5	1	n/a	n/a	n/a	n/a	n/a
1190.514	n/a	STOP	595257	n/a	LTP187	ltpFR	12	n/a	n/a	n/a	n/a	n/a	n/a	n/a	n/a	n/a	n/a	n/a	n/a	n/a	n/a	n/a
1192.366	n/a	WORD	596183	wordpools/wasnorm_wordpool_less_exclusions.txt	LTP187	ltpFR	12	4	1	MONSTER	912	n/a	1	n/a	0	0	0	1	0.412841796875	0.57763671875	lower	../fonts/amplitud.ttf
1195.378	n/a	START	597689	n/a	LTP187	ltpFR	12	n/a	n/a	n/a	n/a	n/a	n/a	n/a	n/a	n/a	n/a	n/a	n/a	n/a	n/a	n/a
1196.516	n/a	PROB	598258	n/a	LTP187	ltpFR	12	n/a	n/a	n/a	n/a	n/a	n/a	19	6	5	8	n/a	n/a	n/a	n/a	n/a
1199.194	n/a	PROB	599597	n/a	LTP187	ltpFR	12	n/a	n/a	n/a	n/a	n/a	n/a	16	4	8	4	n/a	n/a	n/a	n/a	n/a
1201.034	n/a	PROB	600517	n/a	LTP187	ltpFR	12	n/a	n/a	n/a	n/a	n/a	n/a	19	8	2	9	n/a	n/a	n/a	n/a	n/a
1202.298	n/a	STOP	601149	n/a	LTP187	ltpFR	12	n/a	n/a	n/a	n/a	n/a	n/a	n/a	n/a	n/a	n/a	n/a	n/a	n/a	n/a	n/a
1204.236	n/a	WORD	602118	wordpools/wasnorm_wordpool_less_exclusions.txt	LTP187	ltpFR	12	4	1	PADDLE	1000	n/a	0	n/a	0	0	0	1	0.412841796875	0.57763671875	lower	../fonts/amplitud.ttf
1207.246	n/a	START	603623	n/a	LTP187	ltpFR	12	n/a	n/a	n/a	n/a	n/a	n/a	n/a	n/a	n/a	n/a	n/a	n/a	n/a	n/a	n/a
1208.294	n/a	PROB	604147	n/a	LTP187	ltpFR	12	n/a	n/a	n/a	n/a	n/a	n/a	20	9	4	7	n/a	n/a	n/a	n/a	n/a
1210.468	n/a	PROB	605234	n/a	LTP187	ltpFR	12	n/a	n/a	n/a	n/a	n/a	n/a	15	8	3	4	n/a	n/a	n/a	n/a	n/a
1211.992	n/a	PROB	605996	n/a	LTP187	ltpFR	12	n/a	n/a	n/a	n/a	n/a	n/a	20	7	4	9	n/a	n/a	n/a	n/a	n/a
1214.218	n/a	STOP	607109	n/a	LTP187	ltpFR	12	n/a	n/a	n/a	n/a	n/a	n/a	n/a	n/a	n/a	n/a	n/a	n/a	n/a	n/a	n/a
1216.448	n/a	WORD	608224	wordpools/wasnorm_wordpool_less_exclusions.txt	LTP187	ltpFR	12	4	1	DOCK	477	n/a	2	n/a	0	0	0	1	0.412841796875	0.57763671875	lower	../fonts/amplitud.ttf
1218.842	n/a	KEY_MSG	609421	n/a	LTP187	ltpFR	12	4	n/a	n/a	n/a	n/a	n/a	n/a	0	0	0	n/a	n/a	n/a	n/a	n/a
1220.374	n/a	START	610187	n/a	LTP187	ltpFR	12	n/a	n/a	n/a	n/a	n/a	n/a	n/a	n/a	n/a	n/a	n/a	n/a	n/a	n/a	n/a
1221.468	n/a	PROB	610734	n/a	LTP187	ltpFR	12	n/a	n/a	n/a	n/a	n/a	n/a	19	3	8	8	n/a	n/a	n/a	n/a	n/a
1223.086	n/a	PROB	611543	n/a	LTP187	ltpFR	12	n/a	n/a	n/a	n/a	n/a	n/a	15	8	3	4	n/a	n/a	n/a	n/a	n/a
1224.64	n/a	PROB	612320	n/a	LTP187	ltpFR	12	n/a	n/a	n/a	n/a	n/a	n/a	15	7	7	1	n/a	n/a	n/a	n/a	n/a
1226.336	n/a	PROB	613168	n/a	LTP187	ltpFR	12	n/a	n/a	n/a	n/a	n/a	n/a	18	8	3	7	n/a	n/a	n/a	n/a	n/a
1227.644	n/a	STOP	613822	n/a	LTP187	ltpFR	12	n/a	n/a	n/a	n/a	n/a	n/a	n/a	n/a	n/a	n/a	n/a	n/a	n/a	n/a	n/a
1230.162	n/a	REC_START	615081	n/a	LTP187	ltpFR	12	4	n/a	n/a	n/a	n/a	n/a	n/a	0	0	0	n/a	n/a	n/a	n/a	n/a
1237.94	n/a	REC_WORD	618970	wordpools/wasnorm_wordpool_less_exclusions.txt	LTP187	ltpFR	12	4	1	WORM	1623	n/a	0	n/a	0	0	0	n/a	n/a	n/a	n/a	n/a
1240.07	n/a	REC_WORD	620035	wordpools/wasnorm_wordpool_less_exclusions.txt	LTP187	ltpFR	12	4	1	DOCK	477	n/a	2	n/a	0	0	0	n/a	n/a	n/a	n/a	n/a
1247.798	n/a	REC_WORD	623899	wordpools/wasnorm_wordpool_less_exclusions.txt	LTP187	ltpFR	12	4	1	BUTTERFLY	206	n/a	1	n/a	0	0	0	n/a	n/a	n/a	n/a	n/a
1335.386	n/a	WORD	667693	wordpools/wasnorm_wordpool_less_exclusions.txt	LTP187	ltpFR	12	5	1	DIGGER	464	n/a	1	n/a	0	0	0	1	0.412841796875	0.57763671875	lower	../fonts/amplitud.ttf
1339.352	n/a	WORD	669676	wordpools/wasnorm_wordpool_less_exclusions.txt	LTP187	ltpFR	12	5	1	OYSTER	995	n/a	0	n/a	0	0	0	1	0.412841796875	0.57763671875	lower	../fonts/amplitud.ttf
1343.434	n/a	WORD	671717	wordpools/wasnorm_wordpool_less_exclusions.txt	LTP187	ltpFR	12	5	1	COUSIN	392	n/a	1	n/a	0	0	0	1	0.412841796875	0.57763671875	lower	../fonts/amplitud.ttf
1347.566	n/a	WORD	673783	wordpools/wasnorm_wordpool_less_exclusions.txt	LTP187	ltpFR	12	5	1	CRYSTAL	418	n/a	0	n/a	0	0	0	1	0.412841796875	0.57763671875	lower	../fonts/amplitud.ttf
1351.392	n/a	WORD	675696	wordpools/wasnorm_wordpool_less_exclusions.txt	LTP187	ltpFR	12	5	1	ENGINE	535	n/a	0	n/a	0	0	0	1	0.412841796875	0.57763671875	lower	../fonts/amplitud.ttf
1355.564	n/a	WORD	677782	wordpools/wasnorm_wordpool_less_exclusions.txt	LTP187	ltpFR	12	5	1	ANKLE	24	n/a	0	n/a	0	0	0	1	0.412841796875	0.57763671875	lower	../fonts/amplitud.ttf
1359.588	n/a	WORD	679794	wordpools/wasnorm_wordpool_less_exclusions.txt	LTP187	ltpFR	12	5	1	JOINT	758	n/a	0	n/a	0	0	0	1	0.412841796875	0.57763671875	lower	../fonts/amplitud.ttf
1363.66	n/a	WORD	681830	wordpools/wasnorm_wordpool_less_exclusions.txt	LTP187	ltpFR	12	5	1	SICKLE	1302	n/a	0	n/a	0	0	0	1	0.412841796875	0.57763671875	lower	../fonts/amplitud.ttf
1367.788	n/a	WORD	683894	wordpools/wasnorm_wordpool_less_exclusions.txt	LTP187	ltpFR	12	5	1	CORN	381	n/a	0	n/a	0	0	0	1	0.412841796875	0.57763671875	lower	../fonts/amplitud.ttf
1371.91	n/a	WORD	685955	wordpools/wasnorm_wordpool_less_exclusions.txt	LTP187	ltpFR	12	5	1	JAR	750	n/a	0	n/a	0	0	0	1	0.412841796875	0.57763671875	lower	../fonts/amplitud.ttf
1376.008	n/a	WORD	688004	wordpools/wasnorm_wordpool_less_exclusions.txt	LTP187	ltpFR	12	5	1	CHECK	284	n/a	0	n/a	0	0	0	1	0.412841796875	0.57763671875	lower	../fonts/amplitud.ttf
1379.908	n/a	WORD	689954	wordpools/wasnorm_wordpool_less_exclusions.txt	LTP187	ltpFR	12	5	1	CENT	270	n/a	0	n/a	0	0	0	1	0.412841796875	0.57763671875	lower	../fonts/amplitud.ttf
1384.016	n/a	WORD	692008	wordpools/wasnorm_wordpool_less_exclusions.txt	LTP187	ltpFR	12	5	1	TAXI	1438	n/a	0	n/a	0	0	0	1	0.412841796875	0.57763671875	lower	../fonts/amplitud.ttf
1387.922	n/a	WORD	693961	wordpools/wasnorm_wordpool_less_exclusions.txt	LTP187	ltpFR	12	5	1	MUG	930	n/a	0	n/a	0	0	0	1	0.412841796875	0.57763671875	lower	../fonts/amplitud.ttf
1392.088	n/a	WORD	696044	wordpools/wasnorm_wordpool_less_exclusions.txt	LTP187	ltpFR	12	5	1	RECEPTIONIST	1174	n/a	1	n/a	0	0	0	1	0.412841796875	0.57763671875	lower	../fonts/amplitud.ttf
1396.246	n/a	WORD	698123	wordpools/wasnorm_wordpool_less_exclusions.txt	LTP187	ltpFR	12	5	1	FAMILY	550	n/a	1	n/a	0	0	0	1	0.412841796875	0.57763671875	lower	../fonts/amplitud.ttf
1399.258	n/a	START	699629	n/a	LTP187	ltpFR	12	n/a	n/a	n/a	n/a	n/a	n/a	n/a	n/a	n/a	n/a	n/a	n/a	n/a	n/a	n/a
1400.194	n/a	PROB	700097	n/a	LTP187	ltpFR	12	n/a	n/a	n/a	n/a	n/a	n/a	19	2	8	9	n/a	n/a	n/a	n/a	n/a
1402.136	n/a	PROB	701068	n/a	LTP187	ltpFR	12	n/a	n/a	n/a	n/a	n/a	n/a	10	1	8	1	n/a	n/a	n/a	n/a	n/a
1403.296	n/a	PROB	701648	n/a	LTP187	ltpFR	12	n/a	n/a	n/a	n/a	n/a	n/a	14	5	5	4	n/a	n/a	n/a	n/a	n/a
1404.468	n/a	PROB	702234	n/a	LTP187	ltpFR	12	n/a	n/a	n/a	n/a	n/a	n/a	19	4	9	6	n/a	n/a	n/a	n/a	n/a
1406.022	n/a	STOP	703011	n/a	LTP187	ltpFR	12	n/a	n/a	n/a	n/a	n/a	n/a	n/a	n/a	n/a	n/a	n/a	n/a	n/a	n/a	n/a
1409.104	n/a	REC_START	704552	n/a	LTP187	ltpFR	12	5	n/a	n/a	n/a	n/a	n/a	n/a	0	0	0	n/a	n/a	n/a	n/a	n/a
1410.28	n/a	REC_WORD	705140	wordpools/wasnorm_wordpool_less_exclusions.txt	LTP187	ltpFR	12	5	1	ANKLE	24	n/a	0	n/a	0	0	0	n/a	n/a	n/a	n/a	n/a
1411.756	n/a	REC_WORD	705878	wordpools/wasnorm_wordpool_less_exclusions.txt	LTP187	ltpFR	12	5	1	JOINT	758	n/a	0	n/a	0	0	0	n/a	n/a	n/a	n/a	n/a
1413.838	n/a	REC_WORD	706919	wordpools/wasnorm_wordpool_less_exclusions.txt	LTP187	ltpFR	12	5	1	DIGGER	464	n/a	1	n/a	0	0	0	n/a	n/a	n/a	n/a	n/a
1417.126	n/a	REC_WORD	708563	wordpools/wasnorm_wordpool_less_exclusions.txt	LTP187	ltpFR	12	5	1	COUSIN	392	n/a	1	n/a	0	0	0	n/a	n/a	n/a	n/a	n/a
1418.9	n/a	REC_WORD	709450	wordpools/wasnorm_wordpool_less_exclusions.txt	LTP187	ltpFR	12	5	1	FAMILY	550	n/a	1	n/a	0	0	0	n/a	n/a	n/a	n/a	n/a
1511.712	n/a	START	755856	n/a	LTP187	ltpFR	12	n/a	n/a	n/a	n/a	n/a	n/a	n/a	n/a	n/a	n/a	n/a	n/a	n/a	n/a	n/a
1513.226	n/a	PROB	756613	n/a	LTP187	ltpFR	12	n/a	n/a	n/a	n/a	n/a	n/a	21	6	8	7	n/a	n/a	n/a	n/a	n/a
1516.512	n/a	PROB	758256	n/a	LTP187	ltpFR	12	n/a	n/a	n/a	n/a	n/a	n/a	17	5	3	9	n/a	n/a	n/a	n/a	n/a
1518.956	n/a	PROB	759478	n/a	LTP187	ltpFR	12	n/a	n/a	n/a	n/a	n/a	n/a	19	8	2	9	n/a	n/a	n/a	n/a	n/a
1520.054	n/a	PROB	760027	n/a	LTP187	ltpFR	12	n/a	n/a	n/a	n/a	n/a	n/a	15	9	1	5	n/a	n/a	n/a	n/a	n/a
1521.114	n/a	PROB	760557	n/a	LTP187	ltpFR	12	n/a	n/a	n/a	n/a	n/a	n/a	9	5	2	2	n/a	n/a	n/a	n/a	n/a
1522.546	n/a	PROB	761273	n/a	LTP187	ltpFR	12	n/a	n/a	n/a	n/a	n/a	n/a	19	6	5	8	n/a	n/a	n/a	n/a	n/a
1523.874	n/a	PROB	761937	n/a	LTP187	ltpFR	12	n/a	n/a	n/a	n/a	n/a	n/a	8	3	1	4	n/a	n/a	n/a	n/a	n/a
1525.106	n/a	PROB	762553	n/a	LTP187	ltpFR	12	n/a	n/a	n/a	n/a	n/a	n/a	8	4	2	2	n/a	n/a	n/a	n/a	n/a
1526.212	n/a	STOP	763106	n/a	LTP187	ltpFR	12	n/a	n/a	n/a	n/a	n/a	n/a	n/a	n/a	n/a	n/a	n/a	n/a	n/a	n/a	n/a
1528.776	n/a	WORD	764388	wordpools/wasnorm_wordpool_less_exclusions.txt	LTP187	ltpFR	12	6	1	DESIGNER	451	n/a	1	n/a	0	0	0	1	0.412841796875	0.57763671875	lower	../fonts/amplitud.ttf
1531.788	n/a	START	765894	n/a	LTP187	ltpFR	12	n/a	n/a	n/a	n/a	n/a	n/a	n/a	n/a	n/a	n/a	n/a	n/a	n/a	n/a	n/a
1532.666	n/a	PROB	766333	n/a	LTP187	ltpFR	12	n/a	n/a	n/a	n/a	n/a	n/a	14	3	8	3	n/a	n/a	n/a	n/a	n/a
1534.406	n/a	PROB	767203	n/a	LTP187	ltpFR	12	n/a	n/a	n/a	n/a	n/a	n/a	14	4	8	2	n/a	n/a	n/a	n/a	n/a
1536.004	n/a	PROB	768002	n/a	LTP187	ltpFR	12	n/a	n/a	n/a	n/a	n/a	n/a	12	3	4	5	n/a	n/a	n/a	n/a	n/a
1538.792	n/a	PROB	769396	n/a	LTP187	ltpFR	12	n/a	n/a	n/a	n/a	n/a	n/a	9	3	5	1	n/a	n/a	n/a	n/a	n/a
1540.28	n/a	PROB	770140	n/a	LTP187	ltpFR	12	n/a	n/a	n/a	n/a	n/a	n/a	22	9	9	4	n/a	n/a	n/a	n/a	n/a
1541.676	n/a	PROB	770838	n/a	LTP187	ltpFR	12	n/a	n/a	n/a	n/a	n/a	n/a	13	2	8	3	n/a	n/a	n/a	n/a	n/a
1543.532	n/a	PROB	771766	n/a	LTP187	ltpFR	12	n/a	n/a	n/a	n/a	n/a	n/a	17	7	5	5	n/a	n/a	n/a	n/a	n/a
1544.972	n/a	PROB	772486	n/a	LTP187	ltpFR	12	n/a	n/a	n/a	n/a	n/a	n/a	10	2	7	1	n/a	n/a	n/a	n/a	n/a
1547.014	n/a	STOP	773507	n/a	LTP187	ltpFR	12	n/a	n/a	n/a	n/a	n/a	n/a	n/a	n/a	n/a	n/a	n/a	n/a	n/a	n/a	n/a
1548.618	n/a	WORD	774309	wordpools/wasnorm_wordpool_less_exclusions.txt	LTP187	ltpFR	12	6	1	POCKET	1093	n/a	0	n/a	0	0	0	1	0.412841796875	0.57763671875	lower	../fonts/amplitud.ttf
1551.63	n/a	START	775815	n/a	LTP187	ltpFR	12	n/a	n/a	n/a	n/a	n/a	n/a	n/a	n/a	n/a	n/a	n/a	n/a	n/a	n/a	n/a
1552.812	n/a	PROB	776406	n/a	LTP187	ltpFR	12	n/a	n/a	n/a	n/a	n/a	n/a	14	6	7	1	n/a	n/a	n/a	n/a	n/a
1554.686	n/a	PROB	777343	n/a	LTP187	ltpFR	12	n/a	n/a	n/a	n/a	n/a	n/a	18	9	8	1	n/a	n/a	n/a	n/a	n/a
1556.648	n/a	PROB	778324	n/a	LTP187	ltpFR	12	n/a	n/a	n/a	n/a	n/a	n/a	15	4	2	9	n/a	n/a	n/a	n/a	n/a
1558.172	n/a	PROB	779086	n/a	LTP187	ltpFR	12	n/a	n/a	n/a	n/a	n/a	n/a	22	7	7	8	n/a	n/a	n/a	n/a	n/a
1561.076	n/a	PROB	780538	n/a	LTP187	ltpFR	12	n/a	n/a	n/a	n/a	n/a	n/a	16	1	6	9	n/a	n/a	n/a	n/a	n/a
1563.168	n/a	PROB	781584	n/a	LTP187	ltpFR	12	n/a	n/a	n/a	n/a	n/a	n/a	13	5	2	6	n/a	n/a	n/a	n/a	n/a
1565.71	n/a	PROB	782855	n/a	LTP187	ltpFR	12	n/a	n/a	n/a	n/a	n/a	n/a	9	1	2	6	n/a	n/a	n/a	n/a	n/a
1566.902	n/a	STOP	783451	n/a	LTP187	ltpFR	12	n/a	n/a	n/a	n/a	n/a	n/a	n/a	n/a	n/a	n/a	n/a	n/a	n/a	n/a	n/a
1568.678	n/a	WORD	784339	wordpools/wasnorm_wordpool_less_exclusions.txt	LTP187	ltpFR	12	6	1	CELERY	266	n/a	1	n/a	0	0	0	1	0.412841796875	0.57763671875	lower	../fonts/amplitud.ttf
1571.69	n/a	START	785845	n/a	LTP187	ltpFR	12	n/a	n/a	n/a	n/a	n/a	n/a	n/a	n/a	n/a	n/a	n/a	n/a	n/a	n/a	n/a
1572.678	n/a	PROB	786339	n/a	LTP187	ltpFR	12	n/a	n/a	n/a	n/a	n/a	n/a	14	3	6	5	n/a	n/a	n/a	n/a	n/a
1575.682	n/a	PROB	787841	n/a	LTP187	ltpFR	12	n/a	n/a	n/a	n/a	n/a	n/a	23	9	8	6	n/a	n/a	n/a	n/a	n/a
1580.724	n/a	PROB	790362	n/a	LTP187	ltpFR	12	n/a	n/a	n/a	n/a	n/a	n/a	13	7	3	3	n/a	n/a	n/a	n/a	n/a
1581.906	n/a	PROB	790953	n/a	LTP187	ltpFR	12	n/a	n/a	n/a	n/a	n/a	n/a	20	9	7	4	n/a	n/a	n/a	n/a	n/a
1583.836	n/a	PROB	791918	n/a	LTP187	ltpFR	12	n/a	n/a	n/a	n/a	n/a	n/a	9	6	2	1	n/a	n/a	n/a	n/a	n/a
1585.352	n/a	PROB	792676	n/a	LTP187	ltpFR	12	n/a	n/a	n/a	n/a	n/a	n/a	12	6	3	3	n/a	n/a	n/a	n/a	n/a
1587.27	n/a	STOP	793635	n/a	LTP187	ltpFR	12	n/a	n/a	n/a	n/a	n/a	n/a	n/a	n/a	n/a	n/a	n/a	n/a	n/a	n/a	n/a
1588.57	n/a	WORD	794285	wordpools/wasnorm_wordpool_less_exclusions.txt	LTP187	ltpFR	12	6	1	ICING	732	n/a	0	n/a	0	0	0	1	0.412841796875	0.57763671875	lower	../fonts/amplitud.ttf
1591.582	n/a	START	795791	n/a	LTP187	ltpFR	12	n/a	n/a	n/a	n/a	n/a	n/a	n/a	n/a	n/a	n/a	n/a	n/a	n/a	n/a	n/a
1592.502	n/a	PROB	796251	n/a	LTP187	ltpFR	12	n/a	n/a	n/a	n/a	n/a	n/a	12	3	2	7	n/a	n/a	n/a	n/a	n/a
1594.538	n/a	PROB	797269	n/a	LTP187	ltpFR	12	n/a	n/a	n/a	n/a	n/a	n/a	11	8	1	2	n/a	n/a	n/a	n/a	n/a
1596.412	n/a	PROB	798206	n/a	LTP187	ltpFR	12	n/a	n/a	n/a	n/a	n/a	n/a	18	3	9	6	n/a	n/a	n/a	n/a	n/a
1599.178	n/a	PROB	799589	n/a	LTP187	ltpFR	12	n/a	n/a	n/a	n/a	n/a	n/a	17	7	1	9	n/a	n/a	n/a	n/a	n/a
1601.13	n/a	PROB	800565	n/a	LTP187	ltpFR	12	n/a	n/a	n/a	n/a	n/a	n/a	21	8	6	7	n/a	n/a	n/a	n/a	n/a
1604.548	n/a	PROB	802274	n/a	LTP187	ltpFR	12	n/a	n/a	n/a	n/a	n/a	n/a	12	3	3	6	n/a	n/a	n/a	n/a	n/a
1605.786	n/a	PROB	802893	n/a	LTP187	ltpFR	12	n/a	n/a	n/a	n/a	n/a	n/a	8	1	1	6	n/a	n/a	n/a	n/a	n/a
1606.84	n/a	STOP	803420	n/a	LTP187	ltpFR	12	n/a	n/a	n/a	n/a	n/a	n/a	n/a	n/a	n/a	n/a	n/a	n/a	n/a	n/a	n/a
1608.446	n/a	WORD	804223	wordpools/wasnorm_wordpool_less_exclusions.txt	LTP187	ltpFR	12	6	0	CHAIRPERSON	275	n/a	1	n/a	0	0	0	0	0.5869140625	0.422607421875	upper	../fonts/zerothre.ttf
1611.458	n/a	START	805729	n/a	LTP187	ltpFR	12	n/a	n/a	n/a	n/a	n/a	n/a	n/a	n/a	n/a	n/a	n/a	n/a	n/a	n/a	n/a
1612.44	n/a	PROB	806220	n/a	LTP187	ltpFR	12	n/a	n/a	n/a	n/a	n/a	n/a	13	6	4	3	n/a	n/a	n/a	n/a	n/a
1615.424	n/a	PROB	807712	n/a	LTP187	ltpFR	12	n/a	n/a	n/a	n/a	n/a	n/a	23	8	5	9	n/a	n/a	n/a	n/a	n/a
1621.556	n/a	PROB	810778	n/a	LTP187	ltpFR	12	n/a	n/a	n/a	n/a	n/a	n/a	18	5	9	4	n/a	n/a	n/a	n/a	n/a
1626.664	n/a	STOP	813332	n/a	LTP187	ltpFR	12	n/a	n/a	n/a	n/a	n/a	n/a	n/a	n/a	n/a	n/a	n/a	n/a	n/a	n/a	n/a
1628.356	n/a	WORD	814178	wordpools/wasnorm_wordpool_less_exclusions.txt	LTP187	ltpFR	12	6	0	TAPE	1433	n/a	0	n/a	0	0	0	0	0.5869140625	0.422607421875	upper	../fonts/zerothre.ttf
1631.368	n/a	START	815684	n/a	LTP187	ltpFR	12	n/a	n/a	n/a	n/a	n/a	n/a	n/a	n/a	n/a	n/a	n/a	n/a	n/a	n/a	n/a
1632.438	n/a	PROB	816219	n/a	LTP187	ltpFR	12	n/a	n/a	n/a	n/a	n/a	n/a	14	1	8	5	n/a	n/a	n/a	n/a	n/a
1635.426	n/a	PROB	817713	n/a	LTP187	ltpFR	12	n/a	n/a	n/a	n/a	n/a	n/a	11	3	4	4	n/a	n/a	n/a	n/a	n/a
1637.056	n/a	PROB	818528	n/a	LTP187	ltpFR	12	n/a	n/a	n/a	n/a	n/a	n/a	22	9	8	5	n/a	n/a	n/a	n/a	n/a
1640.112	n/a	PROB	820056	n/a	LTP187	ltpFR	12	n/a	n/a	n/a	n/a	n/a	n/a	12	2	4	6	n/a	n/a	n/a	n/a	n/a
1641.6	n/a	PROB	820800	n/a	LTP187	ltpFR	12	n/a	n/a	n/a	n/a	n/a	n/a	14	3	7	4	n/a	n/a	n/a	n/a	n/a
1643.046	n/a	PROB	821523	n/a	LTP187	ltpFR	12	n/a	n/a	n/a	n/a	n/a	n/a	5	1	3	1	n/a	n/a	n/a	n/a	n/a
1644.428	n/a	PROB	822214	n/a	LTP187	ltpFR	12	n/a	n/a	n/a	n/a	n/a	n/a	16	6	4	6	n/a	n/a	n/a	n/a	n/a
1646.914	n/a	STOP	823457	n/a	LTP187	ltpFR	12	n/a	n/a	n/a	n/a	n/a	n/a	n/a	n/a	n/a	n/a	n/a	n/a	n/a	n/a	n/a
1648.232	n/a	WORD	824116	wordpools/wasnorm_wordpool_less_exclusions.txt	LTP187	ltpFR	12	6	0	SILVERWARE	1308	n/a	n/a	n/a	0	0	0	0	0.5869140625	0.422607421875	upper	../fonts/zerothre.ttf
1651.278	n/a	SLOW_MSG	825639	n/a	LTP187	ltpFR	12	6	n/a	n/a	n/a	n/a	n/a	n/a	0	0	0	n/a	n/a	n/a	n/a	n/a
1652.812	n/a	START	826406	n/a	LTP187	ltpFR	12	n/a	n/a	n/a	n/a	n/a	n/a	n/a	n/a	n/a	n/a	n/a	n/a	n/a	n/a	n/a
1653.854	n/a	PROB	826927	n/a	LTP187	ltpFR	12	n/a	n/a	n/a	n/a	n/a	n/a	12	3	7	2	n/a	n/a	n/a	n/a	n/a
1656.306	n/a	PROB	828153	n/a	LTP187	ltpFR	12	n/a	n/a	n/a	n/a	n/a	n/a	16	3	5	8	n/a	n/a	n/a	n/a	n/a
1658.75	n/a	PROB	829375	n/a	LTP187	ltpFR	12	n/a	n/a	n/a	n/a	n/a	n/a	20	6	7	7	n/a	n/a	n/a	n/a	n/a
1660.646	n/a	PROB	830323	n/a	LTP187	ltpFR	12	n/a	n/a	n/a	n/a	n/a	n/a	19	6	9	4	n/a	n/a	n/a	n/a	n/a
1662.596	n/a	PROB	831298	n/a	LTP187	ltpFR	12	n/a	n/a	n/a	n/a	n/a	n/a	10	2	6	2	n/a	n/a	n/a	n/a	n/a
1664.286	n/a	PROB	832143	n/a	LTP187	ltpFR	12	n/a	n/a	n/a	n/a	n/a	n/a	6	4	1	1	n/a	n/a	n/a	n/a	n/a
1668.812	n/a	STOP	834406	n/a	LTP187	ltpFR	12	n/a	n/a	n/a	n/a	n/a	n/a	n/a	n/a	n/a	n/a	n/a	n/a	n/a	n/a	n/a
1669.726	n/a	WORD	834863	wordpools/wasnorm_wordpool_less_exclusions.txt	LTP187	ltpFR	12	6	0	VILLAGE	1566	n/a	1	n/a	0	0	0	0	0.5869140625	0.422607421875	upper	../fonts/zerothre.ttf
1672.738	n/a	START	836369	n/a	LTP187	ltpFR	12	n/a	n/a	n/a	n/a	n/a	n/a	n/a	n/a	n/a	n/a	n/a	n/a	n/a	n/a	n/a
1673.606	n/a	PROB	836803	n/a	LTP187	ltpFR	12	n/a	n/a	n/a	n/a	n/a	n/a	11	5	1	5	n/a	n/a	n/a	n/a	n/a
1675.036	n/a	PROB	837518	n/a	LTP187	ltpFR	12	n/a	n/a	n/a	n/a	n/a	n/a	22	9	7	6	n/a	n/a	n/a	n/a	n/a
1681.772	n/a	PROB	840886	n/a	LTP187	ltpFR	12	n/a	n/a	n/a	n/a	n/a	n/a	17	4	5	8	n/a	n/a	n/a	n/a	n/a
1685.208	n/a	PROB	842604	n/a	LTP187	ltpFR	12	n/a	n/a	n/a	n/a	n/a	n/a	16	7	4	5	n/a	n/a	n/a	n/a	n/a
1686.874	n/a	PROB	843437	n/a	LTP187	ltpFR	12	n/a	n/a	n/a	n/a	n/a	n/a	16	7	4	5	n/a	n/a	n/a	n/a	n/a
1688.34	n/a	STOP	844170	n/a	LTP187	ltpFR	12	n/a	n/a	n/a	n/a	n/a	n/a	n/a	n/a	n/a	n/a	n/a	n/a	n/a	n/a	n/a
1689.6	n/a	WORD	844800	wordpools/wasnorm_wordpool_less_exclusions.txt	LTP187	ltpFR	12	6	1	BARK	87	n/a	0	n/a	0	0	0	1	0.412841796875	0.57763671875	lower	../fonts/amplitud.ttf
1692.612	n/a	START	846306	n/a	LTP187	ltpFR	12	n/a	n/a	n/a	n/a	n/a	n/a	n/a	n/a	n/a	n/a	n/a	n/a	n/a	n/a	n/a
1693.706	n/a	PROB	846853	n/a	LTP187	ltpFR	12	n/a	n/a	n/a	n/a	n/a	n/a	10	7	1	2	n/a	n/a	n/a	n/a	n/a
1697.146	n/a	PROB	848573	n/a	LTP187	ltpFR	12	n/a	n/a	n/a	n/a	n/a	n/a	23	6	9	8	n/a	n/a	n/a	n/a	n/a
1708.486	n/a	STOP	854243	n/a	LTP187	ltpFR	12	n/a	n/a	n/a	n/a	n/a	n/a	n/a	n/a	n/a	n/a	n/a	n/a	n/a	n/a	n/a
1709.45	n/a	WORD	854725	wordpools/wasnorm_wordpool_less_exclusions.txt	LTP187	ltpFR	12	6	1	TURNIP	1521	n/a	0	n/a	0	0	0	1	0.412841796875	0.57763671875	lower	../fonts/amplitud.ttf
1712.462	n/a	START	856231	n/a	LTP187	ltpFR	12	n/a	n/a	n/a	n/a	n/a	n/a	n/a	n/a	n/a	n/a	n/a	n/a	n/a	n/a	n/a
1713.514	n/a	PROB	856757	n/a	LTP187	ltpFR	12	n/a	n/a	n/a	n/a	n/a	n/a	18	8	3	7	n/a	n/a	n/a	n/a	n/a
1715.366	n/a	PROB	857683	n/a	LTP187	ltpFR	12	n/a	n/a	n/a	n/a	n/a	n/a	15	4	1	9	n/a	n/a	n/a	n/a	n/a
1716.754	n/a	PROB	858377	n/a	LTP187	ltpFR	12	n/a	n/a	n/a	n/a	n/a	n/a	16	5	4	7	n/a	n/a	n/a	n/a	n/a
1722.996	n/a	PROB	861498	n/a	LTP187	ltpFR	12	n/a	n/a	n/a	n/a	n/a	n/a	18	9	4	5	n/a	n/a	n/a	n/a	n/a
1724.776	n/a	PROB	862388	n/a	LTP187	ltpFR	12	n/a	n/a	n/a	n/a	n/a	n/a	8	3	3	2	n/a	n/a	n/a	n/a	n/a
1726.408	n/a	PROB	863204	n/a	LTP187	ltpFR	12	n/a	n/a	n/a	n/a	n/a	n/a	10	2	6	2	n/a	n/a	n/a	n/a	n/a
1727.856	n/a	STOP	863928	n/a	LTP187	ltpFR	12	n/a	n/a	n/a	n/a	n/a	n/a	n/a	n/a	n/a	n/a	n/a	n/a	n/a	n/a	n/a
1729.408	n/a	WORD	864704	wordpools/wasnorm_wordpool_less_exclusions.txt	LTP187	ltpFR	12	6	0	MUSHROOM	934	n/a	1	n/a	0	0	0	0	0.5869140625	0.422607421875	upper	../fonts/zerothre.ttf
1732.42	n/a	START	866210	n/a	LTP187	ltpFR	12	n/a	n/a	n/a	n/a	n/a	n/a	n/a	n/a	n/a	n/a	n/a	n/a	n/a	n/a	n/a
1733.374	n/a	PROB	866687	n/a	LTP187	ltpFR	12	n/a	n/a	n/a	n/a	n/a	n/a	19	9	9	1	n/a	n/a	n/a	n/a	n/a
1736.636	n/a	PROB	868318	n/a	LTP187	ltpFR	12	n/a	n/a	n/a	n/a	n/a	n/a	6	1	3	2	n/a	n/a	n/a	n/a	n/a
1738.872	n/a	PROB	869436	n/a	LTP187	ltpFR	12	n/a	n/a	n/a	n/a	n/a	n/a	22	9	9	4	n/a	n/a	n/a	n/a	n/a
1740.428	n/a	PROB	870214	n/a	LTP187	ltpFR	12	n/a	n/a	n/a	n/a	n/a	n/a	14	9	1	4	n/a	n/a	n/a	n/a	n/a
1741.666	n/a	PROB	870833	n/a	LTP187	ltpFR	12	n/a	n/a	n/a	n/a	n/a	n/a	21	6	7	8	n/a	n/a	n/a	n/a	n/a
1744.042	n/a	PROB	872021	n/a	LTP187	ltpFR	12	n/a	n/a	n/a	n/a	n/a	n/a	14	5	1	8	n/a	n/a	n/a	n/a	n/a
1746.14	n/a	PROB	873070	n/a	LTP187	ltpFR	12	n/a	n/a	n/a	n/a	n/a	n/a	13	5	1	7	n/a	n/a	n/a	n/a	n/a
1747.632	n/a	STOP	873816	n/a	LTP187	ltpFR	12	n/a	n/a	n/a	n/a	n/a	n/a	n/a	n/a	n/a	n/a	n/a	n/a	n/a	n/a	n/a
1749.536	n/a	WORD	874768	wordpools/wasnorm_wordpool_less_exclusions.txt	LTP187	ltpFR	12	6	0	ORCHESTRA	981	n/a	1	n/a	0	0	0	0	0.5869140625	0.422607421875	upper	../fonts/zerothre.ttf
1752.548	n/a	START	876274	n/a	LTP187	ltpFR	12	n/a	n/a	n/a	n/a	n/a	n/a	n/a	n/a	n/a	n/a	n/a	n/a	n/a	n/a	n/a
1753.718	n/a	PROB	876859	n/a	LTP187	ltpFR	12	n/a	n/a	n/a	n/a	n/a	n/a	7	2	1	4	n/a	n/a	n/a	n/a	n/a
1756.572	n/a	PROB	878286	n/a	LTP187	ltpFR	12	n/a	n/a	n/a	n/a	n/a	n/a	18	9	3	6	n/a	n/a	n/a	n/a	n/a
1758.464	n/a	PROB	879232	n/a	LTP187	ltpFR	12	n/a	n/a	n/a	n/a	n/a	n/a	13	4	7	2	n/a	n/a	n/a	n/a	n/a
1760.444	n/a	PROB	880222	n/a	LTP187	ltpFR	12	n/a	n/a	n/a	n/a	n/a	n/a	19	7	8	4	n/a	n/a	n/a	n/a	n/a
1762.872	n/a	PROB	881436	n/a	LTP187	ltpFR	12	n/a	n/a	n/a	n/a	n/a	n/a	22	7	8	7	n/a	n/a	n/a	n/a	n/a
1765.9	n/a	PROB	882950	n/a	LTP187	ltpFR	12	n/a	n/a	n/a	n/a	n/a	n/a	10	4	5	1	n/a	n/a	n/a	n/a	n/a
1767.754	n/a	STOP	883877	n/a	LTP187	ltpFR	12	n/a	n/a	n/a	n/a	n/a	n/a	n/a	n/a	n/a	n/a	n/a	n/a	n/a	n/a	n/a
1769.672	n/a	WORD	884836	wordpools/wasnorm_wordpool_less_exclusions.txt	LTP187	ltpFR	12	6	0	GOVERNOR	651	n/a	1	n/a	0	0	0	0	0.5869140625	0.422607421875	upper	../fonts/zerothre.ttf
1772.684	n/a	START	886342	n/a	LTP187	ltpFR	12	n/a	n/a	n/a	n/a	n/a	n/a	n/a	n/a	n/a	n/a	n/a	n/a	n/a	n/a	n/a
1773.756	n/a	PROB	886878	n/a	LTP187	ltpFR	12	n/a	n/a	n/a	n/a	n/a	n/a	10	3	6	1	n/a	n/a	n/a	n/a	n/a
1776.734	n/a	PROB	888367	n/a	LTP187	ltpFR	12	n/a	n/a	n/a	n/a	n/a	n/a	17	4	8	5	n/a	n/a	n/a	n/a	n/a
1778.908	n/a	PROB	889454	n/a	LTP187	ltpFR	12	n/a	n/a	n/a	n/a	n/a	n/a	13	2	4	7	n/a	n/a	n/a	n/a	n/a
1781.34	n/a	PROB	890670	n/a	LTP187	ltpFR	12	n/a	n/a	n/a	n/a	n/a	n/a	12	4	2	6	n/a	n/a	n/a	n/a	n/a
1783.132	n/a	PROB	891566	n/a	LTP187	ltpFR	12	n/a	n/a	n/a	n/a	n/a	n/a	17	8	8	1	n/a	n/a	n/a	n/a	n/a
1787.474	n/a	STOP	893737	n/a	LTP187	ltpFR	12	n/a	n/a	n/a	n/a	n/a	n/a	n/a	n/a	n/a	n/a	n/a	n/a	n/a	n/a	n/a
1789.556	n/a	WORD	894778	wordpools/wasnorm_wordpool_less_exclusions.txt	LTP187	ltpFR	12	6	0	BATHROOM	99	n/a	1	n/a	0	0	0	0	0.5869140625	0.422607421875	upper	../fonts/zerothre.ttf
1792.568	n/a	START	896284	n/a	LTP187	ltpFR	12	n/a	n/a	n/a	n/a	n/a	n/a	n/a	n/a	n/a	n/a	n/a	n/a	n/a	n/a	n/a
1793.396	n/a	PROB	896698	n/a	LTP187	ltpFR	12	n/a	n/a	n/a	n/a	n/a	n/a	16	1	8	7	n/a	n/a	n/a	n/a	n/a
1795.958	n/a	PROB	897979	n/a	LTP187	ltpFR	12	n/a	n/a	n/a	n/a	n/a	n/a	22	7	8	7	n/a	n/a	n/a	n/a	n/a
1798.516	n/a	PROB	899258	n/a	LTP187	ltpFR	12	n/a	n/a	n/a	n/a	n/a	n/a	15	2	7	6	n/a	n/a	n/a	n/a	n/a
1800.558	n/a	PROB	900279	n/a	LTP187	ltpFR	12	n/a	n/a	n/a	n/a	n/a	n/a	15	5	1	9	n/a	n/a	n/a	n/a	n/a
1802.588	n/a	PROB	901294	n/a	LTP187	ltpFR	12	n/a	n/a	n/a	n/a	n/a	n/a	16	6	7	3	n/a	n/a	n/a	n/a	n/a
1804.406	n/a	PROB	902203	n/a	LTP187	ltpFR	12	n/a	n/a	n/a	n/a	n/a	n/a	26	8	1	7	n/a	n/a	n/a	n/a	n/a
1807.482	n/a	STOP	903741	n/a	LTP187	ltpFR	12	n/a	n/a	n/a	n/a	n/a	n/a	n/a	n/a	n/a	n/a	n/a	n/a	n/a	n/a	n/a
1809.658	n/a	WORD	904829	wordpools/wasnorm_wordpool_less_exclusions.txt	LTP187	ltpFR	12	6	1	RADIATOR	1156	n/a	0	n/a	0	0	0	1	0.412841796875	0.57763671875	lower	../fonts/amplitud.ttf
1812.67	n/a	START	906335	n/a	LTP187	ltpFR	12	n/a	n/a	n/a	n/a	n/a	n/a	n/a	n/a	n/a	n/a	n/a	n/a	n/a	n/a	n/a
1813.692	n/a	PROB	906846	n/a	LTP187	ltpFR	12	n/a	n/a	n/a	n/a	n/a	n/a	16	2	9	5	n/a	n/a	n/a	n/a	n/a
1816.152	n/a	PROB	908076	n/a	LTP187	ltpFR	12	n/a	n/a	n/a	n/a	n/a	n/a	12	4	6	2	n/a	n/a	n/a	n/a	n/a
1819.504	n/a	PROB	909752	n/a	LTP187	ltpFR	12	n/a	n/a	n/a	n/a	n/a	n/a	18	1	9	8	n/a	n/a	n/a	n/a	n/a
1820.904	n/a	PROB	910452	n/a	LTP187	ltpFR	12	n/a	n/a	n/a	n/a	n/a	n/a	21	9	4	8	n/a	n/a	n/a	n/a	n/a
1823.848	n/a	PROB	911924	n/a	LTP187	ltpFR	12	n/a	n/a	n/a	n/a	n/a	n/a	21	4	9	8	n/a	n/a	n/a	n/a	n/a
1826.18	n/a	PROB	913090	n/a	LTP187	ltpFR	12	n/a	n/a	n/a	n/a	n/a	n/a	18	7	8	3	n/a	n/a	n/a	n/a	n/a
1827.524	n/a	STOP	913762	n/a	LTP187	ltpFR	12	n/a	n/a	n/a	n/a	n/a	n/a	n/a	n/a	n/a	n/a	n/a	n/a	n/a	n/a	n/a
1829.642	n/a	WORD	914821	wordpools/wasnorm_wordpool_less_exclusions.txt	LTP187	ltpFR	12	6	1	DRIVER	499	n/a	1	n/a	0	0	0	1	0.412841796875	0.57763671875	lower	../fonts/amplitud.ttf
1832.654	n/a	START	916327	n/a	LTP187	ltpFR	12	n/a	n/a	n/a	n/a	n/a	n/a	n/a	n/a	n/a	n/a	n/a	n/a	n/a	n/a	n/a
1833.684	n/a	PROB	916842	n/a	LTP187	ltpFR	12	n/a	n/a	n/a	n/a	n/a	n/a	22	9	8	5	n/a	n/a	n/a	n/a	n/a
1840.65	n/a	PROB	920325	n/a	LTP187	ltpFR	12	n/a	n/a	n/a	n/a	n/a	n/a	17	9	2	6	n/a	n/a	n/a	n/a	n/a
1842.652	n/a	PROB	921326	n/a	LTP187	ltpFR	12	n/a	n/a	n/a	n/a	n/a	n/a	13	5	7	1	n/a	n/a	n/a	n/a	n/a
1844.884	n/a	PROB	922442	n/a	LTP187	ltpFR	12	n/a	n/a	n/a	n/a	n/a	n/a	17	8	4	5	n/a	n/a	n/a	n/a	n/a
1847.668	n/a	STOP	923834	n/a	LTP187	ltpFR	12	n/a	n/a	n/a	n/a	n/a	n/a	n/a	n/a	n/a	n/a	n/a	n/a	n/a	n/a	n/a
1850.6	n/a	REC_START	925300	n/a	LTP187	ltpFR	12	6	n/a	n/a	n/a	n/a	n/a	n/a	0	0	0	n/a	n/a	n/a	n/a	n/a
1854.532	n/a	REC_WORD	927266	wordpools/wasnorm_wordpool_less_exclusions.txt	LTP187	ltpFR	12	6	0	MUSHROOM	934	n/a	1	n/a	0	0	0	n/a	n/a	n/a	n/a	n/a
1856.552	n/a	REC_WORD	928276	wordpools/wasnorm_wordpool_less_exclusions.txt	LTP187	ltpFR	12	6	1	DRIVER	499	n/a	1	n/a	0	0	0	n/a	n/a	n/a	n/a	n/a
1858.292	n/a	REC_WORD	929146	wordpools/wasnorm_wordpool_less_exclusions.txt	LTP187	ltpFR	12	6	1	TAXI	1438	n/a	0	n/a	0	0	0	n/a	n/a	n/a	n/a	n/a
1864.154	n/a	REC_WORD	932077	wordpools/wasnorm_wordpool_less_exclusions.txt	LTP187	ltpFR	12	6	1	DESIGNER	451	n/a	1	n/a	0	0	0	n/a	n/a	n/a	n/a	n/a
1870.386	n/a	REC_WORD	935193	wordpools/wasnorm_wordpool_less_exclusions.txt	LTP187	ltpFR	12	6	1	POCKET	1093	n/a	0	n/a	0	0	0	n/a	n/a	n/a	n/a	n/a
1949.752	n/a	WORD	974876	wordpools/wasnorm_wordpool_less_exclusions.txt	LTP187	ltpFR	12	7	1	SPACE	1345	n/a	0	n/a	0	0	0	1	0.412841796875	0.57763671875	lower	../fonts/amplitud.ttf
1953.962	n/a	WORD	976981	wordpools/wasnorm_wordpool_less_exclusions.txt	LTP187	ltpFR	12	7	1	HERO	706	n/a	1	n/a	0	0	0	1	0.412841796875	0.57763671875	lower	../fonts/amplitud.ttf
1958.094	n/a	WORD	979047	wordpools/wasnorm_wordpool_less_exclusions.txt	LTP187	ltpFR	12	7	1	COMMANDER	354	n/a	1	n/a	0	0	0	1	0.412841796875	0.57763671875	lower	../fonts/amplitud.ttf
1962.126	n/a	WORD	981063	wordpools/wasnorm_wordpool_less_exclusions.txt	LTP187	ltpFR	12	7	1	PRESIDENT	1121	n/a	1	n/a	0	0	0	1	0.412841796875	0.57763671875	lower	../fonts/amplitud.ttf
1966.314	n/a	WORD	983157	wordpools/wasnorm_wordpool_less_exclusions.txt	LTP187	ltpFR	12	7	1	CREW	406	n/a	1	n/a	0	0	0	1	0.412841796875	0.57763671875	lower	../fonts/amplitud.ttf
1970.424	n/a	WORD	985212	wordpools/wasnorm_wordpool_less_exclusions.txt	LTP187	ltpFR	12	7	1	COMMUNITY	356	n/a	1	n/a	0	0	0	1	0.412841796875	0.57763671875	lower	../fonts/amplitud.ttf
1974.338	n/a	WORD	987169	wordpools/wasnorm_wordpool_less_exclusions.txt	LTP187	ltpFR	12	7	1	WARDROBE	1587	n/a	0	n/a	0	0	0	1	0.412841796875	0.57763671875	lower	../fonts/amplitud.ttf
1978.51	n/a	WORD	989255	wordpools/wasnorm_wordpool_less_exclusions.txt	LTP187	ltpFR	12	7	1	BEAD	103	n/a	0	n/a	0	0	0	1	0.412841796875	0.57763671875	lower	../fonts/amplitud.ttf
1982.374	n/a	WORD	991187	wordpools/wasnorm_wordpool_less_exclusions.txt	LTP187	ltpFR	12	7	1	MILK	895	n/a	0	n/a	0	0	0	1	0.412841796875	0.57763671875	lower	../fonts/amplitud.ttf
1986.29	n/a	WORD	993145	wordpools/wasnorm_wordpool_less_exclusions.txt	LTP187	ltpFR	12	7	1	GALLON	618	n/a	1	n/a	0	0	0	1	0.412841796875	0.57763671875	lower	../fonts/amplitud.ttf
1990.45	n/a	WORD	995225	wordpools/wasnorm_wordpool_less_exclusions.txt	LTP187	ltpFR	12	7	1	CORPORATION	382	n/a	0	n/a	0	0	0	1	0.412841796875	0.57763671875	lower	../fonts/amplitud.ttf
1994.282	n/a	WORD	997141	wordpools/wasnorm_wordpool_less_exclusions.txt	LTP187	ltpFR	12	7	1	LAUNDRY	803	n/a	0	n/a	0	0	0	1	0.412841796875	0.57763671875	lower	../fonts/amplitud.ttf
1998.464	n/a	WORD	999232	wordpools/wasnorm_wordpool_less_exclusions.txt	LTP187	ltpFR	12	7	1	EARRING	514	n/a	0	n/a	0	0	0	1	0.412841796875	0.57763671875	lower	../fonts/amplitud.ttf
2002.562	n/a	WORD	1001281	wordpools/wasnorm_wordpool_less_exclusions.txt	LTP187	ltpFR	12	7	1	ELF	525	n/a	1	n/a	0	0	0	1	0.412841796875	0.57763671875	lower	../fonts/amplitud.ttf
2006.494	n/a	WORD	1003247	wordpools/wasnorm_wordpool_less_exclusions.txt	LTP187	ltpFR	12	7	1	ASSISTANT	48	n/a	1	n/a	0	0	0	1	0.412841796875	0.57763671875	lower	../fonts/amplitud.ttf
2010.544	n/a	WORD	1005272	wordpools/wasnorm_wordpool_less_exclusions.txt	LTP187	ltpFR	12	7	1	BROOM	178	n/a	0	n/a	0	0	0	1	0.412841796875	0.57763671875	lower	../fonts/amplitud.ttf
2016.184	n/a	REC_START	1008092	n/a	LTP187	ltpFR	12	7	n/a	n/a	n/a	n/a	n/a	n/a	0	0	0	n/a	n/a	n/a	n/a	n/a
2022.948	n/a	REC_WORD	1011474	wordpools/wasnorm_wordpool_less_exclusions.txt	LTP187	ltpFR	12	7	1	WARDROBE	1587	n/a	0	n/a	0	0	0	n/a	n/a	n/a	n/a	n/a
2024.326	n/a	REC_WORD	1012163	wordpools/wasnorm_wordpool_less_exclusions.txt	LTP187	ltpFR	12	7	1	COMMUNITY	356	n/a	1	n/a	0	0	0	n/a	n/a	n/a	n/a	n/a
2048.408	n/a	REC_WORD	1024204	wordpools/wasnorm_wordpool_less_exclusions.txt	LTP187	ltpFR	12	7	1	PRESIDENT	1121	n/a	1	n/a	0	0	0	n/a	n/a	n/a	n/a	n/a
2056.612	n/a	REC_WORD	1028306	wordpools/wasnorm_wordpool_less_exclusions.txt	LTP187	ltpFR	12	7	1	BEAD	103	n/a	0	n/a	0	0	0	n/a	n/a	n/a	n/a	n/a
2112.254	n/a	WORD	1056127	wordpools/wasnorm_wordpool_less_exclusions.txt	LTP187	ltpFR	12	8	0	HEN	703	n/a	0	n/a	0	0	0	0	0.5869140625	0.422607421875	upper	../fonts/zerothre.ttf
2116.104	n/a	WORD	1058052	wordpools/wasnorm_wordpool_less_exclusions.txt	LTP187	ltpFR	12	8	0	BUGGY	188	n/a	0	n/a	0	0	0	0	0.5869140625	0.422607421875	upper	../fonts/zerothre.ttf
2120.096	n/a	WORD	1060048	wordpools/wasnorm_wordpool_less_exclusions.txt	LTP187	ltpFR	12	8	0	SADDLE	1221	n/a	0	n/a	0	0	0	0	0.5869140625	0.422607421875	upper	../fonts/zerothre.ttf
2124.152	n/a	WORD	1062076	wordpools/wasnorm_wordpool_less_exclusions.txt	LTP187	ltpFR	12	8	1	ANIMAL	23	n/a	1	n/a	0	0	0	1	0.412841796875	0.57763671875	lower	../fonts/amplitud.ttf
2128.066	n/a	WORD	1064033	wordpools/wasnorm_wordpool_less_exclusions.txt	LTP187	ltpFR	12	8	1	BRAKE	166	n/a	0	n/a	0	0	0	1	0.412841796875	0.57763671875	lower	../fonts/amplitud.ttf
2132.132	n/a	WORD	1066066	wordpools/wasnorm_wordpool_less_exclusions.txt	LTP187	ltpFR	12	8	0	JEEP	753	n/a	0	n/a	0	0	0	0	0.5869140625	0.422607421875	upper	../fonts/zerothre.ttf
2136.014	n/a	WORD	1068007	wordpools/wasnorm_wordpool_less_exclusions.txt	LTP187	ltpFR	12	8	0	FOOTBALL	591	n/a	0	n/a	0	0	0	0	0.5869140625	0.422607421875	upper	../fonts/zerothre.ttf
2140.18	n/a	WORD	1070090	wordpools/wasnorm_wordpool_less_exclusions.txt	LTP187	ltpFR	12	8	0	TREE	1502	n/a	1	n/a	0	0	0	0	0.5869140625	0.422607421875	upper	../fonts/zerothre.ttf
2144.194	n/a	WORD	1072097	wordpools/wasnorm_wordpool_less_exclusions.txt	LTP187	ltpFR	12	8	1	REINDEER	1181	n/a	1	n/a	0	0	0	1	0.412841796875	0.57763671875	lower	../fonts/amplitud.ttf
2148.31	n/a	WORD	1074155	wordpools/wasnorm_wordpool_less_exclusions.txt	LTP187	ltpFR	12	8	1	MAGICIAN	854	n/a	1	n/a	0	0	0	1	0.412841796875	0.57763671875	lower	../fonts/amplitud.ttf
2152.442	n/a	WORD	1076221	wordpools/wasnorm_wordpool_less_exclusions.txt	LTP187	ltpFR	12	8	1	CHICK	296	n/a	1	n/a	0	0	0	1	0.412841796875	0.57763671875	lower	../fonts/amplitud.ttf
2156.424	n/a	WORD	1078212	wordpools/wasnorm_wordpool_less_exclusions.txt	LTP187	ltpFR	12	8	1	DICE	461	n/a	0	n/a	0	0	0	1	0.412841796875	0.57763671875	lower	../fonts/amplitud.ttf
2160.54	n/a	WORD	1080270	wordpools/wasnorm_wordpool_less_exclusions.txt	LTP187	ltpFR	12	8	1	TOOL	1480	n/a	3	n/a	0	0	0	1	0.412841796875	0.57763671875	lower	../fonts/amplitud.ttf
2162.75	n/a	KEY_MSG	1081375	n/a	LTP187	ltpFR	12	8	n/a	n/a	n/a	n/a	n/a	n/a	0	0	0	n/a	n/a	n/a	n/a	n/a
2165.158	n/a	WORD	1082579	wordpools/wasnorm_wordpool_less_exclusions.txt	LTP187	ltpFR	12	8	1	MECHANIC	884	n/a	1	n/a	0	0	0	1	0.412841796875	0.57763671875	lower	../fonts/amplitud.ttf
2169.316	n/a	WORD	1084658	wordpools/wasnorm_wordpool_less_exclusions.txt	LTP187	ltpFR	12	8	0	LETTER	813	n/a	0	n/a	0	0	0	0	0.5869140625	0.422607421875	upper	../fonts/zerothre.ttf
2173.49	n/a	WORD	1086745	wordpools/wasnorm_wordpool_less_exclusions.txt	LTP187	ltpFR	12	8	0	POSTAGE	1113	n/a	0	n/a	0	0	0	0	0.5869140625	0.422607421875	upper	../fonts/zerothre.ttf
2176.502	n/a	START	1088251	n/a	LTP187	ltpFR	12	n/a	n/a	n/a	n/a	n/a	n/a	n/a	n/a	n/a	n/a	n/a	n/a	n/a	n/a	n/a
2177.548	n/a	PROB	1088774	n/a	LTP187	ltpFR	12	n/a	n/a	n/a	n/a	n/a	n/a	14	3	6	5	n/a	n/a	n/a	n/a	n/a
2180.36	n/a	PROB	1090180	n/a	LTP187	ltpFR	12	n/a	n/a	n/a	n/a	n/a	n/a	16	6	1	9	n/a	n/a	n/a	n/a	n/a
2182.218	n/a	PROB	1091109	n/a	LTP187	ltpFR	12	n/a	n/a	n/a	n/a	n/a	n/a	11	1	3	7	n/a	n/a	n/a	n/a	n/a
2183.72	n/a	STOP	1091860	n/a	LTP187	ltpFR	12	n/a	n/a	n/a	n/a	n/a	n/a	n/a	n/a	n/a	n/a	n/a	n/a	n/a	n/a	n/a
2186.332	n/a	REC_START	1093166	n/a	LTP187	ltpFR	12	8	n/a	n/a	n/a	n/a	n/a	n/a	0	0	0	n/a	n/a	n/a	n/a	n/a
2189.834	n/a	REC_WORD	1094917	wordpools/wasnorm_wordpool_less_exclusions.txt	LTP187	ltpFR	12	8	1	MECHANIC	884	n/a	1	n/a	0	0	0	n/a	n/a	n/a	n/a	n/a
2191.346	n/a	REC_WORD	1095673	wordpools/wasnorm_wordpool_less_exclusions.txt	LTP187	ltpFR	12	8	0	LETTER	813	n/a	0	n/a	0	0	0	n/a	n/a	n/a	n/a	n/a
2193.018	n/a	REC_WORD	1096509	wordpools/wasnorm_wordpool_less_exclusions.txt	LTP187	ltpFR	12	8	0	FOOTBALL	591	n/a	0	n/a	0	0	0	n/a	n/a	n/a	n/a	n/a
2212.64	n/a	REC_WORD	1106320	wordpools/wasnorm_wordpool_less_exclusions.txt	LTP187	ltpFR	12	8	0	TREE	1502	n/a	1	n/a	0	0	0	n/a	n/a	n/a	n/a	n/a
2284.674	n/a	START	1142337	n/a	LTP187	ltpFR	12	n/a	n/a	n/a	n/a	n/a	n/a	n/a	n/a	n/a	n/a	n/a	n/a	n/a	n/a	n/a
2286.188	n/a	PROB	1143094	n/a	LTP187	ltpFR	12	n/a	n/a	n/a	n/a	n/a	n/a	17	6	9	2	n/a	n/a	n/a	n/a	n/a
2288.876	n/a	PROB	1144438	n/a	LTP187	ltpFR	12	n/a	n/a	n/a	n/a	n/a	n/a	13	9	1	3	n/a	n/a	n/a	n/a	n/a
2290.396	n/a	PROB	1145198	n/a	LTP187	ltpFR	12	n/a	n/a	n/a	n/a	n/a	n/a	13	7	4	2	n/a	n/a	n/a	n/a	n/a
2291.998	n/a	STOP	1145999	n/a	LTP187	ltpFR	12	n/a	n/a	n/a	n/a	n/a	n/a	n/a	n/a	n/a	n/a	n/a	n/a	n/a	n/a	n/a
2293.794	n/a	WORD	1146897	wordpools/wasnorm_wordpool_less_exclusions.txt	LTP187	ltpFR	12	9	1	BRAN	167	n/a	0	n/a	0	0	0	1	0.412841796875	0.57763671875	lower	../fonts/amplitud.ttf
2296.806	n/a	START	1148403	n/a	LTP187	ltpFR	12	n/a	n/a	n/a	n/a	n/a	n/a	n/a	n/a	n/a	n/a	n/a	n/a	n/a	n/a	n/a
2297.814	n/a	PROB	1148907	n/a	LTP187	ltpFR	12	n/a	n/a	n/a	n/a	n/a	n/a	22	8	5	9	n/a	n/a	n/a	n/a	n/a
2301.454	n/a	PROB	1150727	n/a	LTP187	ltpFR	12	n/a	n/a	n/a	n/a	n/a	n/a	14	9	2	3	n/a	n/a	n/a	n/a	n/a
2303.588	n/a	STOP	1151794	n/a	LTP187	ltpFR	12	n/a	n/a	n/a	n/a	n/a	n/a	n/a	n/a	n/a	n/a	n/a	n/a	n/a	n/a	n/a
2305.874	n/a	WORD	1152937	wordpools/wasnorm_wordpool_less_exclusions.txt	LTP187	ltpFR	12	9	1	RESORT	1186	n/a	1	n/a	0	0	0	1	0.412841796875	0.57763671875	lower	../fonts/amplitud.ttf
2308.886	n/a	START	1154443	n/a	LTP187	ltpFR	12	n/a	n/a	n/a	n/a	n/a	n/a	n/a	n/a	n/a	n/a	n/a	n/a	n/a	n/a	n/a
2309.928	n/a	PROB	1154964	n/a	LTP187	ltpFR	12	n/a	n/a	n/a	n/a	n/a	n/a	11	2	1	8	n/a	n/a	n/a	n/a	n/a
2311.644	n/a	PROB	1155822	n/a	LTP187	ltpFR	12	n/a	n/a	n/a	n/a	n/a	n/a	11	4	5	2	n/a	n/a	n/a	n/a	n/a
2313.776	n/a	PROB	1156888	n/a	LTP187	ltpFR	12	n/a	n/a	n/a	n/a	n/a	n/a	13	7	1	5	n/a	n/a	n/a	n/a	n/a
2315.75	n/a	STOP	1157875	n/a	LTP187	ltpFR	12	n/a	n/a	n/a	n/a	n/a	n/a	n/a	n/a	n/a	n/a	n/a	n/a	n/a	n/a	n/a
2318.026	n/a	WORD	1159013	wordpools/wasnorm_wordpool_less_exclusions.txt	LTP187	ltpFR	12	9	1	HALL	677	n/a	0	n/a	0	0	0	1	0.412841796875	0.57763671875	lower	../fonts/amplitud.ttf
2321.038	n/a	START	1160519	n/a	LTP187	ltpFR	12	n/a	n/a	n/a	n/a	n/a	n/a	n/a	n/a	n/a	n/a	n/a	n/a	n/a	n/a	n/a
2322.074	n/a	PROB	1161037	n/a	LTP187	ltpFR	12	n/a	n/a	n/a	n/a	n/a	n/a	21	8	7	6	n/a	n/a	n/a	n/a	n/a
2324.762	n/a	PROB	1162381	n/a	LTP187	ltpFR	12	n/a	n/a	n/a	n/a	n/a	n/a	21	8	6	7	n/a	n/a	n/a	n/a	n/a
2327.51	n/a	STOP	1163755	n/a	LTP187	ltpFR	12	n/a	n/a	n/a	n/a	n/a	n/a	n/a	n/a	n/a	n/a	n/a	n/a	n/a	n/a	n/a
2330.216	n/a	WORD	1165108	wordpools/wasnorm_wordpool_less_exclusions.txt	LTP187	ltpFR	12	9	1	UMPIRE	1535	n/a	1	n/a	0	0	0	1	0.412841796875	0.57763671875	lower	../fonts/amplitud.ttf
2333.228	n/a	START	1166614	n/a	LTP187	ltpFR	12	n/a	n/a	n/a	n/a	n/a	n/a	n/a	n/a	n/a	n/a	n/a	n/a	n/a	n/a	n/a
2334.12	n/a	PROB	1167060	n/a	LTP187	ltpFR	12	n/a	n/a	n/a	n/a	n/a	n/a	10	1	2	7	n/a	n/a	n/a	n/a	n/a
2335.586	n/a	PROB	1167793	n/a	LTP187	ltpFR	12	n/a	n/a	n/a	n/a	n/a	n/a	16	9	4	3	n/a	n/a	n/a	n/a	n/a
2337.996	n/a	PROB	1168998	n/a	LTP187	ltpFR	12	n/a	n/a	n/a	n/a	n/a	n/a	17	6	8	3	n/a	n/a	n/a	n/a	n/a
2339.71	n/a	STOP	1169855	n/a	LTP187	ltpFR	12	n/a	n/a	n/a	n/a	n/a	n/a	n/a	n/a	n/a	n/a	n/a	n/a	n/a	n/a	n/a
2342.352	n/a	WORD	1171176	wordpools/wasnorm_wordpool_less_exclusions.txt	LTP187	ltpFR	12	9	0	EDITORIAL	517	n/a	1	n/a	0	0	0	0	0.5869140625	0.422607421875	upper	../fonts/zerothre.ttf
2345.364	n/a	START	1172682	n/a	LTP187	ltpFR	12	n/a	n/a	n/a	n/a	n/a	n/a	n/a	n/a	n/a	n/a	n/a	n/a	n/a	n/a	n/a
2346.484	n/a	PROB	1173242	n/a	LTP187	ltpFR	12	n/a	n/a	n/a	n/a	n/a	n/a	13	3	6	4	n/a	n/a	n/a	n/a	n/a
2348.82	n/a	PROB	1174410	n/a	LTP187	ltpFR	12	n/a	n/a	n/a	n/a	n/a	n/a	20	8	9	3	n/a	n/a	n/a	n/a	n/a
2350.996	n/a	PROB	1175498	n/a	LTP187	ltpFR	12	n/a	n/a	n/a	n/a	n/a	n/a	20	8	8	4	n/a	n/a	n/a	n/a	n/a
2352.344	n/a	STOP	1176172	n/a	LTP187	ltpFR	12	n/a	n/a	n/a	n/a	n/a	n/a	n/a	n/a	n/a	n/a	n/a	n/a	n/a	n/a	n/a
2354.306	n/a	WORD	1177153	wordpools/wasnorm_wordpool_less_exclusions.txt	LTP187	ltpFR	12	9	0	TOY	1492	n/a	0	n/a	0	0	0	0	0.5869140625	0.422607421875	upper	../fonts/zerothre.ttf
2357.318	n/a	START	1178659	n/a	LTP187	ltpFR	12	n/a	n/a	n/a	n/a	n/a	n/a	n/a	n/a	n/a	n/a	n/a	n/a	n/a	n/a	n/a
2358.446	n/a	PROB	1179223	n/a	LTP187	ltpFR	12	n/a	n/a	n/a	n/a	n/a	n/a	17	7	3	7	n/a	n/a	n/a	n/a	n/a
2360.214	n/a	PROB	1180107	n/a	LTP187	ltpFR	12	n/a	n/a	n/a	n/a	n/a	n/a	18	6	6	6	n/a	n/a	n/a	n/a	n/a
2361.928	n/a	PROB	1180964	n/a	LTP187	ltpFR	12	n/a	n/a	n/a	n/a	n/a	n/a	22	6	8	8	n/a	n/a	n/a	n/a	n/a
2364.234	n/a	STOP	1182117	n/a	LTP187	ltpFR	12	n/a	n/a	n/a	n/a	n/a	n/a	n/a	n/a	n/a	n/a	n/a	n/a	n/a	n/a	n/a
2366.154	n/a	WORD	1183077	wordpools/wasnorm_wordpool_less_exclusions.txt	LTP187	ltpFR	12	9	0	CHILD	299	n/a	0	n/a	0	0	0	0	0.5869140625	0.422607421875	upper	../fonts/zerothre.ttf
2369.166	n/a	START	1184583	n/a	LTP187	ltpFR	12	n/a	n/a	n/a	n/a	n/a	n/a	n/a	n/a	n/a	n/a	n/a	n/a	n/a	n/a	n/a
2370.108	n/a	PROB	1185054	n/a	LTP187	ltpFR	12	n/a	n/a	n/a	n/a	n/a	n/a	9	2	6	1	n/a	n/a	n/a	n/a	n/a
2371.948	n/a	PROB	1185974	n/a	LTP187	ltpFR	12	n/a	n/a	n/a	n/a	n/a	n/a	23	8	7	8	n/a	n/a	n/a	n/a	n/a
2374.634	n/a	PROB	1187317	n/a	LTP187	ltpFR	12	n/a	n/a	n/a	n/a	n/a	n/a	13	9	3	2	n/a	n/a	n/a	n/a	n/a
2376.576	n/a	STOP	1188288	n/a	LTP187	ltpFR	12	n/a	n/a	n/a	n/a	n/a	n/a	n/a	n/a	n/a	n/a	n/a	n/a	n/a	n/a	n/a
2378.216	n/a	WORD	1189108	wordpools/wasnorm_wordpool_less_exclusions.txt	LTP187	ltpFR	12	9	0	FRIAR	605	n/a	0	n/a	0	0	0	0	0.5869140625	0.422607421875	upper	../fonts/zerothre.ttf
2381.228	n/a	START	1190614	n/a	LTP187	ltpFR	12	n/a	n/a	n/a	n/a	n/a	n/a	n/a	n/a	n/a	n/a	n/a	n/a	n/a	n/a	n/a
2382.082	n/a	PROB	1191041	n/a	LTP187	ltpFR	12	n/a	n/a	n/a	n/a	n/a	n/a	19	7	7	5	n/a	n/a	n/a	n/a	n/a
2384.122	n/a	PROB	1192061	n/a	LTP187	ltpFR	12	n/a	n/a	n/a	n/a	n/a	n/a	9	1	2	6	n/a	n/a	n/a	n/a	n/a
2385.31	n/a	PROB	1192655	n/a	LTP187	ltpFR	12	n/a	n/a	n/a	n/a	n/a	n/a	16	6	3	7	n/a	n/a	n/a	n/a	n/a
2389.218	n/a	STOP	1194609	n/a	LTP187	ltpFR	12	n/a	n/a	n/a	n/a	n/a	n/a	n/a	n/a	n/a	n/a	n/a	n/a	n/a	n/a	n/a
2390.35	n/a	WORD	1195175	wordpools/wasnorm_wordpool_less_exclusions.txt	LTP187	ltpFR	12	9	1	PREACHER	1119	n/a	1	n/a	0	0	0	1	0.412841796875	0.57763671875	lower	../fonts/amplitud.ttf
2393.362	n/a	START	1196681	n/a	LTP187	ltpFR	12	n/a	n/a	n/a	n/a	n/a	n/a	n/a	n/a	n/a	n/a	n/a	n/a	n/a	n/a	n/a
2394.382	n/a	PROB	1197191	n/a	LTP187	ltpFR	12	n/a	n/a	n/a	n/a	n/a	n/a	19	6	8	5	n/a	n/a	n/a	n/a	n/a
2398.828	n/a	PROB	1199414	n/a	LTP187	ltpFR	12	n/a	n/a	n/a	n/a	n/a	n/a	8	4	8	2	n/a	n/a	n/a	n/a	n/a
2400.498	n/a	STOP	1200249	n/a	LTP187	ltpFR	12	n/a	n/a	n/a	n/a	n/a	n/a	n/a	n/a	n/a	n/a	n/a	n/a	n/a	n/a	n/a
2402.582	n/a	WORD	1201291	wordpools/wasnorm_wordpool_less_exclusions.txt	LTP187	ltpFR	12	9	1	ACTOR	5	n/a	1	n/a	0	0	0	1	0.412841796875	0.57763671875	lower	../fonts/amplitud.ttf
2405.594	n/a	START	1202797	n/a	LTP187	ltpFR	12	n/a	n/a	n/a	n/a	n/a	n/a	n/a	n/a	n/a	n/a	n/a	n/a	n/a	n/a	n/a
2406.782	n/a	PROB	1203391	n/a	LTP187	ltpFR	12	n/a	n/a	n/a	n/a	n/a	n/a	15	1	8	6	n/a	n/a	n/a	n/a	n/a
2408.704	n/a	PROB	1204352	n/a	LTP187	ltpFR	12	n/a	n/a	n/a	n/a	n/a	n/a	18	9	6	3	n/a	n/a	n/a	n/a	n/a
2410.79	n/a	PROB	1205395	n/a	LTP187	ltpFR	12	n/a	n/a	n/a	n/a	n/a	n/a	16	8	5	3	n/a	n/a	n/a	n/a	n/a
2412.69	n/a	STOP	1206345	n/a	LTP187	ltpFR	12	n/a	n/a	n/a	n/a	n/a	n/a	n/a	n/a	n/a	n/a	n/a	n/a	n/a	n/a	n/a
2414.492	n/a	WORD	1207246	wordpools/wasnorm_wordpool_less_exclusions.txt	LTP187	ltpFR	12	9	0	BANJO	82	n/a	0	n/a	0	0	0	0	0.5869140625	0.422607421875	upper	../fonts/zerothre.ttf
2417.506	n/a	START	1208753	n/a	LTP187	ltpFR	12	n/a	n/a	n/a	n/a	n/a	n/a	n/a	n/a	n/a	n/a	n/a	n/a	n/a	n/a	n/a
2418.554	n/a	PROB	1209277	n/a	LTP187	ltpFR	12	n/a	n/a	n/a	n/a	n/a	n/a	26	9	8	9	n/a	n/a	n/a	n/a	n/a
2422.534	n/a	PROB	1211267	n/a	LTP187	ltpFR	12	n/a	n/a	n/a	n/a	n/a	n/a	16	7	1	8	n/a	n/a	n/a	n/a	n/a
2424.492	n/a	STOP	1212246	n/a	LTP187	ltpFR	12	n/a	n/a	n/a	n/a	n/a	n/a	n/a	n/a	n/a	n/a	n/a	n/a	n/a	n/a	n/a
2426.64	n/a	WORD	1213320	wordpools/wasnorm_wordpool_less_exclusions.txt	LTP187	ltpFR	12	9	0	TOWEL	1489	n/a	2	n/a	0	0	0	0	0.5869140625	0.422607421875	upper	../fonts/zerothre.ttf
2428.982	n/a	KEY_MSG	1214491	n/a	LTP187	ltpFR	12	9	n/a	n/a	n/a	n/a	n/a	n/a	0	0	0	n/a	n/a	n/a	n/a	n/a
2430.516	n/a	START	1215258	n/a	LTP187	ltpFR	12	n/a	n/a	n/a	n/a	n/a	n/a	n/a	n/a	n/a	n/a	n/a	n/a	n/a	n/a	n/a
2431.586	n/a	PROB	1215793	n/a	LTP187	ltpFR	12	n/a	n/a	n/a	n/a	n/a	n/a	13	4	3	6	n/a	n/a	n/a	n/a	n/a
2434.346	n/a	PROB	1217173	n/a	LTP187	ltpFR	12	n/a	n/a	n/a	n/a	n/a	n/a	18	9	4	5	n/a	n/a	n/a	n/a	n/a
2436.572	n/a	PROB	1218286	n/a	LTP187	ltpFR	12	n/a	n/a	n/a	n/a	n/a	n/a	20	9	8	3	n/a	n/a	n/a	n/a	n/a
2438.3	n/a	STOP	1219150	n/a	LTP187	ltpFR	12	n/a	n/a	n/a	n/a	n/a	n/a	n/a	n/a	n/a	n/a	n/a	n/a	n/a	n/a	n/a
2439.674	n/a	WORD	1219837	wordpools/wasnorm_wordpool_less_exclusions.txt	LTP187	ltpFR	12	9	0	STRAWBERRY	1391	n/a	0	n/a	0	0	0	0	0.5869140625	0.422607421875	upper	../fonts/zerothre.ttf
2442.686	n/a	START	1221343	n/a	LTP187	ltpFR	12	n/a	n/a	n/a	n/a	n/a	n/a	n/a	n/a	n/a	n/a	n/a	n/a	n/a	n/a	n/a
2443.616	n/a	PROB	1221808	n/a	LTP187	ltpFR	12	n/a	n/a	n/a	n/a	n/a	n/a	16	2	6	8	n/a	n/a	n/a	n/a	n/a
2445.238	n/a	PROB	1222619	n/a	LTP187	ltpFR	12	n/a	n/a	n/a	n/a	n/a	n/a	15	8	4	3	n/a	n/a	n/a	n/a	n/a
2446.978	n/a	PROB	1223489	n/a	LTP187	ltpFR	12	n/a	n/a	n/a	n/a	n/a	n/a	19	9	9	1	n/a	n/a	n/a	n/a	n/a
2448.516	n/a	PROB	1224258	n/a	LTP187	ltpFR	12	n/a	n/a	n/a	n/a	n/a	n/a	6	1	1	4	n/a	n/a	n/a	n/a	n/a
2449.894	n/a	STOP	1224947	n/a	LTP187	ltpFR	12	n/a	n/a	n/a	n/a	n/a	n/a	n/a	n/a	n/a	n/a	n/a	n/a	n/a	n/a	n/a
2451.628	n/a	WORD	1225814	wordpools/wasnorm_wordpool_less_exclusions.txt	LTP187	ltpFR	12	9	0	TUBA	1515	n/a	1	n/a	0	0	0	0	0.5869140625	0.422607421875	upper	../fonts/zerothre.ttf
2454.64	n/a	START	1227320	n/a	LTP187	ltpFR	12	n/a	n/a	n/a	n/a	n/a	n/a	n/a	n/a	n/a	n/a	n/a	n/a	n/a	n/a	n/a
2455.484	n/a	PROB	1227742	n/a	LTP187	ltpFR	12	n/a	n/a	n/a	n/a	n/a	n/a	19	8	3	8	n/a	n/a	n/a	n/a	n/a
2456.974	n/a	PROB	1228487	n/a	LTP187	ltpFR	12	n/a	n/a	n/a	n/a	n/a	n/a	21	7	6	8	n/a	n/a	n/a	n/a	n/a
2461.342	n/a	STOP	1230671	n/a	LTP187	ltpFR	12	n/a	n/a	n/a	n/a	n/a	n/a	n/a	n/a	n/a	n/a	n/a	n/a	n/a	n/a	n/a
2463.816	n/a	WORD	1231908	wordpools/wasnorm_wordpool_less_exclusions.txt	LTP187	ltpFR	12	9	1	TUB	1514	n/a	0	n/a	0	0	0	1	0.412841796875	0.57763671875	lower	../fonts/amplitud.ttf
2466.828	n/a	START	1233414	n/a	LTP187	ltpFR	12	n/a	n/a	n/a	n/a	n/a	n/a	n/a	n/a	n/a	n/a	n/a	n/a	n/a	n/a	n/a
2467.656	n/a	PROB	1233828	n/a	LTP187	ltpFR	12	n/a	n/a	n/a	n/a	n/a	n/a	14	2	6	6	n/a	n/a	n/a	n/a	n/a
2470.118	n/a	PROB	1235059	n/a	LTP187	ltpFR	12	n/a	n/a	n/a	n/a	n/a	n/a	18	3	6	9	n/a	n/a	n/a	n/a	n/a
2472.716	n/a	PROB	1236358	n/a	LTP187	ltpFR	12	n/a	n/a	n/a	n/a	n/a	n/a	19	2	8	9	n/a	n/a	n/a	n/a	n/a
2474.056	n/a	STOP	1237028	n/a	LTP187	ltpFR	12	n/a	n/a	n/a	n/a	n/a	n/a	n/a	n/a	n/a	n/a	n/a	n/a	n/a	n/a	n/a
2475.946	n/a	WORD	1237973	wordpools/wasnorm_wordpool_less_exclusions.txt	LTP187	ltpFR	12	9	1	SNORKEL	1336	n/a	2	n/a	0	0	0	1	0.412841796875	0.57763671875	lower	../fonts/amplitud.ttf
2478.354	n/a	KEY_MSG	1239177	n/a	LTP187	ltpFR	12	9	n/a	n/a	n/a	n/a	n/a	n/a	0	0	0	n/a	n/a	n/a	n/a	n/a
2479.888	n/a	START	1239944	n/a	LTP187	ltpFR	12	n/a	n/a	n/a	n/a	n/a	n/a	n/a	n/a	n/a	n/a	n/a	n/a	n/a	n/a	n/a
2480.882	n/a	PROB	1240441	n/a	LTP187	ltpFR	12	n/a	n/a	n/a	n/a	n/a	n/a	12	3	3	6	n/a	n/a	n/a	n/a	n/a
2483.54	n/a	PROB	1241770	n/a	LTP187	ltpFR	12	n/a	n/a	n/a	n/a	n/a	n/a	9	4	1	4	n/a	n/a	n/a	n/a	n/a
2484.98	n/a	PROB	1242490	n/a	LTP187	ltpFR	12	n/a	n/a	n/a	n/a	n/a	n/a	11	3	7	1	n/a	n/a	n/a	n/a	n/a
2486.294	n/a	PROB	1243147	n/a	LTP187	ltpFR	12	n/a	n/a	n/a	n/a	n/a	n/a	19	7	6	6	n/a	n/a	n/a	n/a	n/a
2487.848	n/a	STOP	1243924	n/a	LTP187	ltpFR	12	n/a	n/a	n/a	n/a	n/a	n/a	n/a	n/a	n/a	n/a	n/a	n/a	n/a	n/a	n/a
2489.68	n/a	REC_START	1244840	n/a	LTP187	ltpFR	12	9	n/a	n/a	n/a	n/a	n/a	n/a	0	0	0	n/a	n/a	n/a	n/a	n/a
2493.358	n/a	REC_WORD	1246679	wordpools/wasnorm_wordpool_less_exclusions.txt	LTP187	ltpFR	12	9	1	SNORKEL	1336	n/a	2	n/a	0	0	0	n/a	n/a	n/a	n/a	n/a
2503.06	n/a	REC_WORD	1251530	wordpools/wasnorm_wordpool_less_exclusions.txt	LTP187	ltpFR	12	9	0	LETTER	813	n/a	0	n/a	0	0	0	n/a	n/a	n/a	n/a	n/a
2504.622	n/a	REC_WORD	1252311	wordpools/wasnorm_wordpool_less_exclusions.txt	LTP187	ltpFR	12	9	0	POSTAGE	1113	n/a	0	n/a	0	0	0	n/a	n/a	n/a	n/a	n/a
2506.224	n/a	REC_WORD	1253112	wordpools/wasnorm_wordpool_less_exclusions.txt	LTP187	ltpFR	12	9	0	EDITORIAL	517	n/a	1	n/a	0	0	0	n/a	n/a	n/a	n/a	n/a
2510.972	n/a	REC_WORD	1255486	wordpools/wasnorm_wordpool_less_exclusions.txt	LTP187	ltpFR	12	9	0	FRIAR	605	n/a	0	n/a	0	0	0	n/a	n/a	n/a	n/a	n/a
2594.778	n/a	START	1297389	n/a	LTP187	ltpFR	12	n/a	n/a	n/a	n/a	n/a	n/a	n/a	n/a	n/a	n/a	n/a	n/a	n/a	n/a	n/a
2596.288	n/a	PROB	1298144	n/a	LTP187	ltpFR	12	n/a	n/a	n/a	n/a	n/a	n/a	16	3	8	5	n/a	n/a	n/a	n/a	n/a
2598.306	n/a	PROB	1299153	n/a	LTP187	ltpFR	12	n/a	n/a	n/a	n/a	n/a	n/a	16	8	1	7	n/a	n/a	n/a	n/a	n/a
2599.88	n/a	PROB	1299940	n/a	LTP187	ltpFR	12	n/a	n/a	n/a	n/a	n/a	n/a	12	2	7	3	n/a	n/a	n/a	n/a	n/a
2601.674	n/a	PROB	1300837	n/a	LTP187	ltpFR	12	n/a	n/a	n/a	n/a	n/a	n/a	18	8	4	6	n/a	n/a	n/a	n/a	n/a
2603.226	n/a	PROB	1301613	n/a	LTP187	ltpFR	12	n/a	n/a	n/a	n/a	n/a	n/a	6	1	1	4	n/a	n/a	n/a	n/a	n/a
2604.412	n/a	PROB	1302206	n/a	LTP187	ltpFR	12	n/a	n/a	n/a	n/a	n/a	n/a	19	5	7	7	n/a	n/a	n/a	n/a	n/a
2610.778	n/a	STOP	1305389	n/a	LTP187	ltpFR	12	n/a	n/a	n/a	n/a	n/a	n/a	n/a	n/a	n/a	n/a	n/a	n/a	n/a	n/a	n/a
2611.708	n/a	WORD	1305854	wordpools/wasnorm_wordpool_less_exclusions.txt	LTP187	ltpFR	12	10	0	TEAPOT	1442	n/a	3	n/a	0	0	0	0	0.5869140625	0.422607421875	upper	../fonts/zerothre.ttf
2613.94	n/a	KEY_MSG	1306970	n/a	LTP187	ltpFR	12	10	n/a	n/a	n/a	n/a	n/a	n/a	0	0	0	n/a	n/a	n/a	n/a	n/a
2615.472	n/a	START	1307736	n/a	LTP187	ltpFR	12	n/a	n/a	n/a	n/a	n/a	n/a	n/a	n/a	n/a	n/a	n/a	n/a	n/a	n/a	n/a
2616.532	n/a	PROB	1308266	n/a	LTP187	ltpFR	12	n/a	n/a	n/a	n/a	n/a	n/a	15	3	9	3	n/a	n/a	n/a	n/a	n/a
2619.12	n/a	PROB	1309560	n/a	LTP187	ltpFR	12	n/a	n/a	n/a	n/a	n/a	n/a	17	8	3	6	n/a	n/a	n/a	n/a	n/a
2620.916	n/a	PROB	1310458	n/a	LTP187	ltpFR	12	n/a	n/a	n/a	n/a	n/a	n/a	12	6	4	2	n/a	n/a	n/a	n/a	n/a
2624.776	n/a	PROB	1312388	n/a	LTP187	ltpFR	12	n/a	n/a	n/a	n/a	n/a	n/a	25	9	8	8	n/a	n/a	n/a	n/a	n/a
2628.456	n/a	PROB	1314228	n/a	LTP187	ltpFR	12	n/a	n/a	n/a	n/a	n/a	n/a	12	7	2	3	n/a	n/a	n/a	n/a	n/a
2631.474	n/a	STOP	1315737	n/a	LTP187	ltpFR	12	n/a	n/a	n/a	n/a	n/a	n/a	n/a	n/a	n/a	n/a	n/a	n/a	n/a	n/a	n/a
2632.36	n/a	WORD	1316180	wordpools/wasnorm_wordpool_less_exclusions.txt	LTP187	ltpFR	12	10	0	SHRUB	1299	n/a	n/a	n/a	0	0	0	0	0.5869140625	0.422607421875	upper	../fonts/zerothre.ttf
2635.404	n/a	SLOW_MSG	1317702	n/a	LTP187	ltpFR	12	10	n/a	n/a	n/a	n/a	n/a	n/a	0	0	0	n/a	n/a	n/a	n/a	n/a
2636.938	n/a	START	1318469	n/a	LTP187	ltpFR	12	n/a	n/a	n/a	n/a	n/a	n/a	n/a	n/a	n/a	n/a	n/a	n/a	n/a	n/a	n/a
2637.964	n/a	PROB	1318982	n/a	LTP187	ltpFR	12	n/a	n/a	n/a	n/a	n/a	n/a	18	1	8	9	n/a	n/a	n/a	n/a	n/a
2640.072	n/a	PROB	1320036	n/a	LTP187	ltpFR	12	n/a	n/a	n/a	n/a	n/a	n/a	8	1	5	2	n/a	n/a	n/a	n/a	n/a
2643.664	n/a	PROB	1321832	n/a	LTP187	ltpFR	12	n/a	n/a	n/a	n/a	n/a	n/a	15	9	2	4	n/a	n/a	n/a	n/a	n/a
2645.426	n/a	PROB	1322713	n/a	LTP187	ltpFR	12	n/a	n/a	n/a	n/a	n/a	n/a	17	2	8	7	n/a	n/a	n/a	n/a	n/a
2647.544	n/a	PROB	1323772	n/a	LTP187	ltpFR	12	n/a	n/a	n/a	n/a	n/a	n/a	11	6	3	2	n/a	n/a	n/a	n/a	n/a
2652.94	n/a	STOP	1326470	n/a	LTP187	ltpFR	12	n/a	n/a	n/a	n/a	n/a	n/a	n/a	n/a	n/a	n/a	n/a	n/a	n/a	n/a	n/a
2653.926	n/a	WORD	1326963	wordpools/wasnorm_wordpool_less_exclusions.txt	LTP187	ltpFR	12	10	1	TABLET	1427	n/a	3	n/a	0	0	0	1	0.412841796875	0.57763671875	lower	../fonts/amplitud.ttf
2656.228	n/a	KEY_MSG	1328114	n/a	LTP187	ltpFR	12	10	n/a	n/a	n/a	n/a	n/a	n/a	0	0	0	n/a	n/a	n/a	n/a	n/a
2657.758	n/a	START	1328879	n/a	LTP187	ltpFR	12	n/a	n/a	n/a	n/a	n/a	n/a	n/a	n/a	n/a	n/a	n/a	n/a	n/a	n/a	n/a
2658.794	n/a	PROB	1329397	n/a	LTP187	ltpFR	12	n/a	n/a	n/a	n/a	n/a	n/a	16	2	5	9	n/a	n/a	n/a	n/a	n/a
2661.884	n/a	PROB	1330942	n/a	LTP187	ltpFR	12	n/a	n/a	n/a	n/a	n/a	n/a	11	2	5	4	n/a	n/a	n/a	n/a	n/a
2663.438	n/a	PROB	1331719	n/a	LTP187	ltpFR	12	n/a	n/a	n/a	n/a	n/a	n/a	24	9	7	8	n/a	n/a	n/a	n/a	n/a
2666.91	n/a	PROB	1333455	n/a	LTP187	ltpFR	12	n/a	n/a	n/a	n/a	n/a	n/a	14	1	6	7	n/a	n/a	n/a	n/a	n/a
2668.258	n/a	PROB	1334129	n/a	LTP187	ltpFR	12	n/a	n/a	n/a	n/a	n/a	n/a	12	6	2	4	n/a	n/a	n/a	n/a	n/a
2669.73	n/a	PROB	1334865	n/a	LTP187	ltpFR	12	n/a	n/a	n/a	n/a	n/a	n/a	11	1	2	8	n/a	n/a	n/a	n/a	n/a
2673.758	n/a	STOP	1336879	n/a	LTP187	ltpFR	12	n/a	n/a	n/a	n/a	n/a	n/a	n/a	n/a	n/a	n/a	n/a	n/a	n/a	n/a	n/a
2674.966	n/a	WORD	1337483	wordpools/wasnorm_wordpool_less_exclusions.txt	LTP187	ltpFR	12	10	1	CUE	422	n/a	0	n/a	0	0	0	1	0.412841796875	0.57763671875	lower	../fonts/amplitud.ttf
2677.978	n/a	START	1338989	n/a	LTP187	ltpFR	12	n/a	n/a	n/a	n/a	n/a	n/a	n/a	n/a	n/a	n/a	n/a	n/a	n/a	n/a	n/a
2679.038	n/a	PROB	1339519	n/a	LTP187	ltpFR	12	n/a	n/a	n/a	n/a	n/a	n/a	10	3	3	4	n/a	n/a	n/a	n/a	n/a
2682.094	n/a	PROB	1341047	n/a	LTP187	ltpFR	12	n/a	n/a	n/a	n/a	n/a	n/a	15	5	5	5	n/a	n/a	n/a	n/a	n/a
2684.136	n/a	PROB	1342068	n/a	LTP187	ltpFR	12	n/a	n/a	n/a	n/a	n/a	n/a	11	7	3	1	n/a	n/a	n/a	n/a	n/a
2687.446	n/a	PROB	1343723	n/a	LTP187	ltpFR	12	n/a	n/a	n/a	n/a	n/a	n/a	9	5	1	3	n/a	n/a	n/a	n/a	n/a
2689.038	n/a	PROB	1344519	n/a	LTP187	ltpFR	12	n/a	n/a	n/a	n/a	n/a	n/a	18	6	8	4	n/a	n/a	n/a	n/a	n/a
2690.732	n/a	PROB	1345366	n/a	LTP187	ltpFR	12	n/a	n/a	n/a	n/a	n/a	n/a	13	4	4	5	n/a	n/a	n/a	n/a	n/a
2693.01	n/a	STOP	1346505	n/a	LTP187	ltpFR	12	n/a	n/a	n/a	n/a	n/a	n/a	n/a	n/a	n/a	n/a	n/a	n/a	n/a	n/a	n/a
2694.966	n/a	WORD	1347483	wordpools/wasnorm_wordpool_less_exclusions.txt	LTP187	ltpFR	12	10	1	TAIL	1430	n/a	0	n/a	0	0	0	1	0.412841796875	0.57763671875	lower	../fonts/amplitud.ttf
2697.978	n/a	START	1348989	n/a	LTP187	ltpFR	12	n/a	n/a	n/a	n/a	n/a	n/a	n/a	n/a	n/a	n/a	n/a	n/a	n/a	n/a	n/a
2698.974	n/a	PROB	1349487	n/a	LTP187	ltpFR	12	n/a	n/a	n/a	n/a	n/a	n/a	7	1	1	5	n/a	n/a	n/a	n/a	n/a
2700.688	n/a	PROB	1350344	n/a	LTP187	ltpFR	12	n/a	n/a	n/a	n/a	n/a	n/a	12	3	4	5	n/a	n/a	n/a	n/a	n/a
2702.628	n/a	PROB	1351314	n/a	LTP187	ltpFR	12	n/a	n/a	n/a	n/a	n/a	n/a	22	6	8	8	n/a	n/a	n/a	n/a	n/a
2707.072	n/a	PROB	1353536	n/a	LTP187	ltpFR	12	n/a	n/a	n/a	n/a	n/a	n/a	18	6	7	5	n/a	n/a	n/a	n/a	n/a
2709.198	n/a	PROB	1354599	n/a	LTP187	ltpFR	12	n/a	n/a	n/a	n/a	n/a	n/a	11	5	3	3	n/a	n/a	n/a	n/a	n/a
2713.978	n/a	STOP	1356989	n/a	LTP187	ltpFR	12	n/a	n/a	n/a	n/a	n/a	n/a	n/a	n/a	n/a	n/a	n/a	n/a	n/a	n/a	n/a
2714.97	n/a	WORD	1357485	wordpools/wasnorm_wordpool_less_exclusions.txt	LTP187	ltpFR	12	10	1	MARKET	871	n/a	n/a	n/a	0	0	0	1	0.412841796875	0.57763671875	lower	../fonts/amplitud.ttf
2718.022	n/a	SLOW_MSG	1359011	n/a	LTP187	ltpFR	12	10	n/a	n/a	n/a	n/a	n/a	n/a	0	0	0	n/a	n/a	n/a	n/a	n/a
2719.554	n/a	START	1359777	n/a	LTP187	ltpFR	12	n/a	n/a	n/a	n/a	n/a	n/a	n/a	n/a	n/a	n/a	n/a	n/a	n/a	n/a	n/a
2720.39	n/a	PROB	1360195	n/a	LTP187	ltpFR	12	n/a	n/a	n/a	n/a	n/a	n/a	15	8	4	3	n/a	n/a	n/a	n/a	n/a
2722.47	n/a	PROB	1361235	n/a	LTP187	ltpFR	12	n/a	n/a	n/a	n/a	n/a	n/a	10	3	2	5	n/a	n/a	n/a	n/a	n/a
2725.266	n/a	PROB	1362633	n/a	LTP187	ltpFR	12	n/a	n/a	n/a	n/a	n/a	n/a	11	4	1	6	n/a	n/a	n/a	n/a	n/a
2730.646	n/a	PROB	1365323	n/a	LTP187	ltpFR	12	n/a	n/a	n/a	n/a	n/a	n/a	13	6	3	4	n/a	n/a	n/a	n/a	n/a
2732.236	n/a	PROB	1366118	n/a	LTP187	ltpFR	12	n/a	n/a	n/a	n/a	n/a	n/a	14	8	5	1	n/a	n/a	n/a	n/a	n/a
2734.012	n/a	STOP	1367006	n/a	LTP187	ltpFR	12	n/a	n/a	n/a	n/a	n/a	n/a	n/a	n/a	n/a	n/a	n/a	n/a	n/a	n/a	n/a
2736.474	n/a	WORD	1368237	wordpools/wasnorm_wordpool_less_exclusions.txt	LTP187	ltpFR	12	10	0	STAPLER	1372	n/a	1	n/a	0	0	0	0	0.5869140625	0.422607421875	upper	../fonts/zerothre.ttf
2739.486	n/a	START	1369743	n/a	LTP187	ltpFR	12	n/a	n/a	n/a	n/a	n/a	n/a	n/a	n/a	n/a	n/a	n/a	n/a	n/a	n/a	n/a
2740.64	n/a	PROB	1370320	n/a	LTP187	ltpFR	12	n/a	n/a	n/a	n/a	n/a	n/a	11	8	1	2	n/a	n/a	n/a	n/a	n/a
2742.876	n/a	PROB	1371438	n/a	LTP187	ltpFR	12	n/a	n/a	n/a	n/a	n/a	n/a	23	9	9	5	n/a	n/a	n/a	n/a	n/a
2745.302	n/a	PROB	1372651	n/a	LTP187	ltpFR	12	n/a	n/a	n/a	n/a	n/a	n/a	15	8	1	6	n/a	n/a	n/a	n/a	n/a
2748.246	n/a	PROB	1374123	n/a	LTP187	ltpFR	12	n/a	n/a	n/a	n/a	n/a	n/a	17	7	4	6	n/a	n/a	n/a	n/a	n/a
2751.708	n/a	PROB	1375854	n/a	LTP187	ltpFR	12	n/a	n/a	n/a	n/a	n/a	n/a	21	9	5	7	n/a	n/a	n/a	n/a	n/a
2754.468	n/a	STOP	1377234	n/a	LTP187	ltpFR	12	n/a	n/a	n/a	n/a	n/a	n/a	n/a	n/a	n/a	n/a	n/a	n/a	n/a	n/a	n/a
2756.668	n/a	WORD	1378334	wordpools/wasnorm_wordpool_less_exclusions.txt	LTP187	ltpFR	12	10	0	FUGITIVE	612	n/a	n/a	n/a	0	0	0	0	0.5869140625	0.422607421875	upper	../fonts/zerothre.ttf
2759.712	n/a	SLOW_MSG	1379856	n/a	LTP187	ltpFR	12	10	n/a	n/a	n/a	n/a	n/a	n/a	0	0	0	n/a	n/a	n/a	n/a	n/a
2761.236	n/a	START	1380618	n/a	LTP187	ltpFR	12	n/a	n/a	n/a	n/a	n/a	n/a	n/a	n/a	n/a	n/a	n/a	n/a	n/a	n/a	n/a
2762.15	n/a	PROB	1381075	n/a	LTP187	ltpFR	12	n/a	n/a	n/a	n/a	n/a	n/a	15	3	6	6	n/a	n/a	n/a	n/a	n/a
2764.074	n/a	PROB	1382037	n/a	LTP187	ltpFR	12	n/a	n/a	n/a	n/a	n/a	n/a	13	3	8	2	n/a	n/a	n/a	n/a	n/a
2766.69	n/a	PROB	1383345	n/a	LTP187	ltpFR	12	n/a	n/a	n/a	n/a	n/a	n/a	5	2	2	1	n/a	n/a	n/a	n/a	n/a
2767.956	n/a	PROB	1383978	n/a	LTP187	ltpFR	12	n/a	n/a	n/a	n/a	n/a	n/a	8	4	1	3	n/a	n/a	n/a	n/a	n/a
2769.394	n/a	PROB	1384697	n/a	LTP187	ltpFR	12	n/a	n/a	n/a	n/a	n/a	n/a	12	8	1	3	n/a	n/a	n/a	n/a	n/a
2771.702	n/a	PROB	1385851	n/a	LTP187	ltpFR	12	n/a	n/a	n/a	n/a	n/a	n/a	14	4	8	2	n/a	n/a	n/a	n/a	n/a
2774.614	n/a	PROB	1387307	n/a	LTP187	ltpFR	12	n/a	n/a	n/a	n/a	n/a	n/a	13	3	1	9	n/a	n/a	n/a	n/a	n/a
2776.382	n/a	STOP	1388191	n/a	LTP187	ltpFR	12	n/a	n/a	n/a	n/a	n/a	n/a	n/a	n/a	n/a	n/a	n/a	n/a	n/a	n/a	n/a
2778.362	n/a	WORD	1389181	wordpools/wasnorm_wordpool_less_exclusions.txt	LTP187	ltpFR	12	10	0	SUSPECT	1415	n/a	2	n/a	0	0	0	0	0.5869140625	0.422607421875	upper	../fonts/zerothre.ttf
2780.938	n/a	KEY_MSG	1390469	n/a	LTP187	ltpFR	12	10	n/a	n/a	n/a	n/a	n/a	n/a	0	0	0	n/a	n/a	n/a	n/a	n/a
2782.466	n/a	START	1391233	n/a	LTP187	ltpFR	12	n/a	n/a	n/a	n/a	n/a	n/a	n/a	n/a	n/a	n/a	n/a	n/a	n/a	n/a	n/a
2783.47	n/a	PROB	1391735	n/a	LTP187	ltpFR	12	n/a	n/a	n/a	n/a	n/a	n/a	15	1	6	8	n/a	n/a	n/a	n/a	n/a
2785.37	n/a	PROB	1392685	n/a	LTP187	ltpFR	12	n/a	n/a	n/a	n/a	n/a	n/a	12	7	3	2	n/a	n/a	n/a	n/a	n/a
2786.716	n/a	PROB	1393358	n/a	LTP187	ltpFR	12	n/a	n/a	n/a	n/a	n/a	n/a	9	1	4	4	n/a	n/a	n/a	n/a	n/a
2788.356	n/a	PROB	1394178	n/a	LTP187	ltpFR	12	n/a	n/a	n/a	n/a	n/a	n/a	11	5	2	4	n/a	n/a	n/a	n/a	n/a
2789.756	n/a	PROB	1394878	n/a	LTP187	ltpFR	12	n/a	n/a	n/a	n/a	n/a	n/a	13	3	3	7	n/a	n/a	n/a	n/a	n/a
2791.066	n/a	PROB	1395533	n/a	LTP187	ltpFR	12	n/a	n/a	n/a	n/a	n/a	n/a	21	8	5	8	n/a	n/a	n/a	n/a	n/a
2792.766	n/a	PROB	1396383	n/a	LTP187	ltpFR	12	n/a	n/a	n/a	n/a	n/a	n/a	12	4	2	6	n/a	n/a	n/a	n/a	n/a
2794.006	n/a	PROB	1397003	n/a	LTP187	ltpFR	12	n/a	n/a	n/a	n/a	n/a	n/a	20	6	9	5	n/a	n/a	n/a	n/a	n/a
2796.086	n/a	PROB	1398043	n/a	LTP187	ltpFR	12	n/a	n/a	n/a	n/a	n/a	n/a	16	6	1	9	n/a	n/a	n/a	n/a	n/a
2797.64	n/a	STOP	1398820	n/a	LTP187	ltpFR	12	n/a	n/a	n/a	n/a	n/a	n/a	n/a	n/a	n/a	n/a	n/a	n/a	n/a	n/a	n/a
2799.566	n/a	WORD	1399783	wordpools/wasnorm_wordpool_less_exclusions.txt	LTP187	ltpFR	12	10	0	PRIMATE	1123	n/a	1	n/a	0	0	0	0	0.5869140625	0.422607421875	upper	../fonts/zerothre.ttf
2802.576	n/a	START	1401288	n/a	LTP187	ltpFR	12	n/a	n/a	n/a	n/a	n/a	n/a	n/a	n/a	n/a	n/a	n/a	n/a	n/a	n/a	n/a
2803.464	n/a	PROB	1401732	n/a	LTP187	ltpFR	12	n/a	n/a	n/a	n/a	n/a	n/a	15	8	5	2	n/a	n/a	n/a	n/a	n/a
2804.802	n/a	PROB	1402401	n/a	LTP187	ltpFR	12	n/a	n/a	n/a	n/a	n/a	n/a	14	2	7	5	n/a	n/a	n/a	n/a	n/a
2806.518	n/a	PROB	1403259	n/a	LTP187	ltpFR	12	n/a	n/a	n/a	n/a	n/a	n/a	16	6	6	4	n/a	n/a	n/a	n/a	n/a
2808.592	n/a	PROB	1404296	n/a	LTP187	ltpFR	12	n/a	n/a	n/a	n/a	n/a	n/a	6	1	4	1	n/a	n/a	n/a	n/a	n/a
2809.714	n/a	PROB	1404857	n/a	LTP187	ltpFR	12	n/a	n/a	n/a	n/a	n/a	n/a	9	3	5	1	n/a	n/a	n/a	n/a	n/a
2811.404	n/a	PROB	1405702	n/a	LTP187	ltpFR	12	n/a	n/a	n/a	n/a	n/a	n/a	13	9	2	2	n/a	n/a	n/a	n/a	n/a
2812.726	n/a	PROB	1406363	n/a	LTP187	ltpFR	12	n/a	n/a	n/a	n/a	n/a	n/a	11	7	2	2	n/a	n/a	n/a	n/a	n/a
2814.172	n/a	PROB	1407086	n/a	LTP187	ltpFR	12	n/a	n/a	n/a	n/a	n/a	n/a	22	7	9	6	n/a	n/a	n/a	n/a	n/a
2818.576	n/a	STOP	1409288	n/a	LTP187	ltpFR	12	n/a	n/a	n/a	n/a	n/a	n/a	n/a	n/a	n/a	n/a	n/a	n/a	n/a	n/a	n/a
2819.804	n/a	WORD	1409902	wordpools/wasnorm_wordpool_less_exclusions.txt	LTP187	ltpFR	12	10	0	COYOTE	396	n/a	1	n/a	0	0	0	0	0.5869140625	0.422607421875	upper	../fonts/zerothre.ttf
2822.816	n/a	START	1411408	n/a	LTP187	ltpFR	12	n/a	n/a	n/a	n/a	n/a	n/a	n/a	n/a	n/a	n/a	n/a	n/a	n/a	n/a	n/a
2823.952	n/a	PROB	1411976	n/a	LTP187	ltpFR	12	n/a	n/a	n/a	n/a	n/a	n/a	21	9	6	6	n/a	n/a	n/a	n/a	n/a
2826.25	n/a	PROB	1413125	n/a	LTP187	ltpFR	12	n/a	n/a	n/a	n/a	n/a	n/a	7	3	2	2	n/a	n/a	n/a	n/a	n/a
2827.516	n/a	PROB	1413758	n/a	LTP187	ltpFR	12	n/a	n/a	n/a	n/a	n/a	n/a	23	9	9	5	n/a	n/a	n/a	n/a	n/a
2828.944	n/a	PROB	1414472	n/a	LTP187	ltpFR	12	n/a	n/a	n/a	n/a	n/a	n/a	21	6	6	9	n/a	n/a	n/a	n/a	n/a
2832.39	n/a	PROB	1416195	n/a	LTP187	ltpFR	12	n/a	n/a	n/a	n/a	n/a	n/a	12	1	9	2	n/a	n/a	n/a	n/a	n/a
2833.678	n/a	PROB	1416839	n/a	LTP187	ltpFR	12	n/a	n/a	n/a	n/a	n/a	n/a	11	4	2	5	n/a	n/a	n/a	n/a	n/a
2838.816	n/a	STOP	1419408	n/a	LTP187	ltpFR	12	n/a	n/a	n/a	n/a	n/a	n/a	n/a	n/a	n/a	n/a	n/a	n/a	n/a	n/a	n/a
2839.804	n/a	WORD	1419902	wordpools/wasnorm_wordpool_less_exclusions.txt	LTP187	ltpFR	12	10	0	FARMER	553	n/a	1	n/a	0	0	0	0	0.5869140625	0.422607421875	upper	../fonts/zerothre.ttf
2842.814	n/a	START	1421407	n/a	LTP187	ltpFR	12	n/a	n/a	n/a	n/a	n/a	n/a	n/a	n/a	n/a	n/a	n/a	n/a	n/a	n/a	n/a
2843.768	n/a	PROB	1421884	n/a	LTP187	ltpFR	12	n/a	n/a	n/a	n/a	n/a	n/a	7	2	2	3	n/a	n/a	n/a	n/a	n/a
2845.234	n/a	PROB	1422617	n/a	LTP187	ltpFR	12	n/a	n/a	n/a	n/a	n/a	n/a	22	7	8	7	n/a	n/a	n/a	n/a	n/a
2847.448	n/a	PROB	1423724	n/a	LTP187	ltpFR	12	n/a	n/a	n/a	n/a	n/a	n/a	16	1	7	8	n/a	n/a	n/a	n/a	n/a
2849.406	n/a	PROB	1424703	n/a	LTP187	ltpFR	12	n/a	n/a	n/a	n/a	n/a	n/a	20	7	6	7	n/a	n/a	n/a	n/a	n/a
2852.01	n/a	PROB	1426005	n/a	LTP187	ltpFR	12	n/a	n/a	n/a	n/a	n/a	n/a	19	5	5	9	n/a	n/a	n/a	n/a	n/a
2853.182	n/a	PROB	1426591	n/a	LTP187	ltpFR	12	n/a	n/a	n/a	n/a	n/a	n/a	15	5	1	9	n/a	n/a	n/a	n/a	n/a
2854.602	n/a	PROB	1427301	n/a	LTP187	ltpFR	12	n/a	n/a	n/a	n/a	n/a	n/a	20	3	9	8	n/a	n/a	n/a	n/a	n/a
2858.816	n/a	STOP	1429408	n/a	LTP187	ltpFR	12	n/a	n/a	n/a	n/a	n/a	n/a	n/a	n/a	n/a	n/a	n/a	n/a	n/a	n/a	n/a
2860.024	n/a	WORD	1430012	wordpools/wasnorm_wordpool_less_exclusions.txt	LTP187	ltpFR	12	10	1	SEAL	1262	n/a	0	n/a	0	0	0	1	0.412841796875	0.57763671875	lower	../fonts/amplitud.ttf
2863.042	n/a	START	1431521	n/a	LTP187	ltpFR	12	n/a	n/a	n/a	n/a	n/a	n/a	n/a	n/a	n/a	n/a	n/a	n/a	n/a	n/a	n/a
2864.006	n/a	PROB	1432003	n/a	LTP187	ltpFR	12	n/a	n/a	n/a	n/a	n/a	n/a	21	9	6	6	n/a	n/a	n/a	n/a	n/a
2866.454	n/a	PROB	1433227	n/a	LTP187	ltpFR	12	n/a	n/a	n/a	n/a	n/a	n/a	14	1	8	5	n/a	n/a	n/a	n/a	n/a
2868.344	n/a	PROB	1434172	n/a	LTP187	ltpFR	12	n/a	n/a	n/a	n/a	n/a	n/a	19	1	9	9	n/a	n/a	n/a	n/a	n/a
2870.386	n/a	PROB	1435193	n/a	LTP187	ltpFR	12	n/a	n/a	n/a	n/a	n/a	n/a	17	7	5	5	n/a	n/a	n/a	n/a	n/a
2873.28	n/a	PROB	1436640	n/a	LTP187	ltpFR	12	n/a	n/a	n/a	n/a	n/a	n/a	18	9	8	1	n/a	n/a	n/a	n/a	n/a
2874.848	n/a	PROB	1437424	n/a	LTP187	ltpFR	12	n/a	n/a	n/a	n/a	n/a	n/a	16	2	5	9	n/a	n/a	n/a	n/a	n/a
2876.286	n/a	PROB	1438143	n/a	LTP187	ltpFR	12	n/a	n/a	n/a	n/a	n/a	n/a	13	3	8	2	n/a	n/a	n/a	n/a	n/a
2878.036	n/a	STOP	1439018	n/a	LTP187	ltpFR	12	n/a	n/a	n/a	n/a	n/a	n/a	n/a	n/a	n/a	n/a	n/a	n/a	n/a	n/a	n/a
2880.0	n/a	WORD	1440000	wordpools/wasnorm_wordpool_less_exclusions.txt	LTP187	ltpFR	12	10	1	ANTEATER	26	n/a	3	n/a	0	0	0	1	0.412841796875	0.57763671875	lower	../fonts/amplitud.ttf
2882.398	n/a	KEY_MSG	1441199	n/a	LTP187	ltpFR	12	10	n/a	n/a	n/a	n/a	n/a	n/a	0	0	0	n/a	n/a	n/a	n/a	n/a
2883.922	n/a	START	1441961	n/a	LTP187	ltpFR	12	n/a	n/a	n/a	n/a	n/a	n/a	n/a	n/a	n/a	n/a	n/a	n/a	n/a	n/a	n/a
2884.74	n/a	PROB	1442370	n/a	LTP187	ltpFR	12	n/a	n/a	n/a	n/a	n/a	n/a	11	1	7	3	n/a	n/a	n/a	n/a	n/a
2886.742	n/a	PROB	1443371	n/a	LTP187	ltpFR	12	n/a	n/a	n/a	n/a	n/a	n/a	12	5	5	2	n/a	n/a	n/a	n/a	n/a
2888.398	n/a	PROB	1444199	n/a	LTP187	ltpFR	12	n/a	n/a	n/a	n/a	n/a	n/a	19	6	4	9	n/a	n/a	n/a	n/a	n/a
2889.978	n/a	PROB	1444989	n/a	LTP187	ltpFR	12	n/a	n/a	n/a	n/a	n/a	n/a	21	9	8	4	n/a	n/a	n/a	n/a	n/a
2892.336	n/a	PROB	1446168	n/a	LTP187	ltpFR	12	n/a	n/a	n/a	n/a	n/a	n/a	14	1	8	5	n/a	n/a	n/a	n/a	n/a
2899.922	n/a	STOP	1449961	n/a	LTP187	ltpFR	12	n/a	n/a	n/a	n/a	n/a	n/a	n/a	n/a	n/a	n/a	n/a	n/a	n/a	n/a	n/a
2901.07	n/a	WORD	1450535	wordpools/wasnorm_wordpool_less_exclusions.txt	LTP187	ltpFR	12	10	1	DILL	465	n/a	1	n/a	0	0	0	1	0.412841796875	0.57763671875	lower	../fonts/amplitud.ttf
2904.082	n/a	START	1452041	n/a	LTP187	ltpFR	12	n/a	n/a	n/a	n/a	n/a	n/a	n/a	n/a	n/a	n/a	n/a	n/a	n/a	n/a	n/a
2905.08	n/a	PROB	1452540	n/a	LTP187	ltpFR	12	n/a	n/a	n/a	n/a	n/a	n/a	13	1	4	8	n/a	n/a	n/a	n/a	n/a
2908.292	n/a	PROB	1454146	n/a	LTP187	ltpFR	12	n/a	n/a	n/a	n/a	n/a	n/a	14	8	4	2	n/a	n/a	n/a	n/a	n/a
2909.536	n/a	PROB	1454768	n/a	LTP187	ltpFR	12	n/a	n/a	n/a	n/a	n/a	n/a	15	8	3	4	n/a	n/a	n/a	n/a	n/a
2910.706	n/a	PROB	1455353	n/a	LTP187	ltpFR	12	n/a	n/a	n/a	n/a	n/a	n/a	14	3	3	8	n/a	n/a	n/a	n/a	n/a
2912.056	n/a	PROB	1456028	n/a	LTP187	ltpFR	12	n/a	n/a	n/a	n/a	n/a	n/a	22	9	8	7	n/a	n/a	n/a	n/a	n/a
2915.158	n/a	PROB	1457579	n/a	LTP187	ltpFR	12	n/a	n/a	n/a	n/a	n/a	n/a	25	9	7	9	n/a	n/a	n/a	n/a	n/a
2919.334	n/a	STOP	1459667	n/a	LTP187	ltpFR	12	n/a	n/a	n/a	n/a	n/a	n/a	n/a	n/a	n/a	n/a	n/a	n/a	n/a	n/a	n/a
2921.114	n/a	WORD	1460557	wordpools/wasnorm_wordpool_less_exclusions.txt	LTP187	ltpFR	12	10	1	MAYONNAISE	880	n/a	0	n/a	0	0	0	1	0.412841796875	0.57763671875	lower	../fonts/amplitud.ttf
2924.124	n/a	START	1462062	n/a	LTP187	ltpFR	12	n/a	n/a	n/a	n/a	n/a	n/a	n/a	n/a	n/a	n/a	n/a	n/a	n/a	n/a	n/a
2925.312	n/a	PROB	1462656	n/a	LTP187	ltpFR	12	n/a	n/a	n/a	n/a	n/a	n/a	10	3	2	5	n/a	n/a	n/a	n/a	n/a
2928.844	n/a	PROB	1464422	n/a	LTP187	ltpFR	12	n/a	n/a	n/a	n/a	n/a	n/a	19	8	9	2	n/a	n/a	n/a	n/a	n/a
2930.198	n/a	PROB	1465099	n/a	LTP187	ltpFR	12	n/a	n/a	n/a	n/a	n/a	n/a	13	5	5	3	n/a	n/a	n/a	n/a	n/a
2932.132	n/a	PROB	1466066	n/a	LTP187	ltpFR	12	n/a	n/a	n/a	n/a	n/a	n/a	14	3	8	3	n/a	n/a	n/a	n/a	n/a
2933.906	n/a	PROB	1466953	n/a	LTP187	ltpFR	12	n/a	n/a	n/a	n/a	n/a	n/a	11	1	2	8	n/a	n/a	n/a	n/a	n/a
2935.294	n/a	PROB	1467647	n/a	LTP187	ltpFR	12	n/a	n/a	n/a	n/a	n/a	n/a	12	2	5	5	n/a	n/a	n/a	n/a	n/a
2936.538	n/a	PROB	1468269	n/a	LTP187	ltpFR	12	n/a	n/a	n/a	n/a	n/a	n/a	17	2	8	7	n/a	n/a	n/a	n/a	n/a
2937.736	n/a	PROB	1468868	n/a	LTP187	ltpFR	12	n/a	n/a	n/a	n/a	n/a	n/a	12	6	5	1	n/a	n/a	n/a	n/a	n/a
2939.192	n/a	STOP	1469596	n/a	LTP187	ltpFR	12	n/a	n/a	n/a	n/a	n/a	n/a	n/a	n/a	n/a	n/a	n/a	n/a	n/a	n/a	n/a
2942.02	n/a	REC_START	1471010	n/a	LTP187	ltpFR	12	10	n/a	n/a	n/a	n/a	n/a	n/a	0	0	0	n/a	n/a	n/a	n/a	n/a
2945.368	n/a	REC_WORD	1472684	wordpools/wasnorm_wordpool_less_exclusions.txt	LTP187	ltpFR	12	10	1	DILL	465	n/a	1	n/a	0	0	0	n/a	n/a	n/a	n/a	n/a
2947.014	n/a	REC_WORD	1473507	wordpools/wasnorm_wordpool_less_exclusions.txt	LTP187	ltpFR	12	10	1	MAYONNAISE	880	n/a	0	n/a	0	0	0	n/a	n/a	n/a	n/a	n/a
2948.426	n/a	REC_WORD	1474213	wordpools/wasnorm_wordpool_less_exclusions.txt	LTP187	ltpFR	12	10	0	COYOTE	396	n/a	1	n/a	0	0	0	n/a	n/a	n/a	n/a	n/a
3000.316	n/a	REC_WORD	1500158	wordpools/wasnorm_wordpool_less_exclusions.txt	LTP187	ltpFR	12	10	0	TEAPOT	1442	n/a	3	n/a	0	0	0	n/a	n/a	n/a	n/a	n/a
3001.608	n/a	REC_WORD	1500804	wordpools/wasnorm_wordpool_less_exclusions.txt	LTP187	ltpFR	12	10	n/a	BUSH	202	n/a	n/a	n/a	0	0	0	n/a	n/a	n/a	n/a	n/a
3017.648	n/a	REST_REWET	1508824	n/a	LTP187	ltpFR	12	10	n/a	n/a	n/a	n/a	n/a	n/a	0	0	0	n/a	n/a	n/a	n/a	n/a
3299.334	n/a	WORD	1649667	wordpools/wasnorm_wordpool_less_exclusions.txt	LTP187	ltpFR	12	11	1	SAUCER	1237	n/a	0	n/a	0	0	0	1	0.412841796875	0.57763671875	lower	../fonts/amplitud.ttf
3303.184	n/a	WORD	1651592	wordpools/wasnorm_wordpool_less_exclusions.txt	LTP187	ltpFR	12	11	1	CRAB	397	n/a	1	n/a	0	0	0	1	0.412841796875	0.57763671875	lower	../fonts/amplitud.ttf
3307.182	n/a	WORD	1653591	wordpools/wasnorm_wordpool_less_exclusions.txt	LTP187	ltpFR	12	11	1	JACKET	747	n/a	0	n/a	0	0	0	1	0.412841796875	0.57763671875	lower	../fonts/amplitud.ttf
3311.37	n/a	WORD	1655685	wordpools/wasnorm_wordpool_less_exclusions.txt	LTP187	ltpFR	12	11	1	CUP	424	n/a	0	n/a	0	0	0	1	0.412841796875	0.57763671875	lower	../fonts/amplitud.ttf
3315.214	n/a	WORD	1657607	wordpools/wasnorm_wordpool_less_exclusions.txt	LTP187	ltpFR	12	11	0	MINK	897	n/a	0	n/a	0	0	0	0	0.5869140625	0.422607421875	upper	../fonts/zerothre.ttf
3319.146	n/a	WORD	1659573	wordpools/wasnorm_wordpool_less_exclusions.txt	LTP187	ltpFR	12	11	0	PLUM	1090	n/a	0	n/a	0	0	0	0	0.5869140625	0.422607421875	upper	../fonts/zerothre.ttf
3323.194	n/a	WORD	1661597	wordpools/wasnorm_wordpool_less_exclusions.txt	LTP187	ltpFR	12	11	0	OWNER	993	n/a	1	n/a	0	0	0	0	0.5869140625	0.422607421875	upper	../fonts/zerothre.ttf
3327.232	n/a	WORD	1663616	wordpools/wasnorm_wordpool_less_exclusions.txt	LTP187	ltpFR	12	11	0	SWEATER	1419	n/a	0	n/a	0	0	0	0	0.5869140625	0.422607421875	upper	../fonts/zerothre.ttf
3331.214	n/a	WORD	1665607	wordpools/wasnorm_wordpool_less_exclusions.txt	LTP187	ltpFR	12	11	0	TABLE	1426	n/a	0	n/a	0	0	0	0	0.5869140625	0.422607421875	upper	../fonts/zerothre.ttf
3335.122	n/a	WORD	1667561	wordpools/wasnorm_wordpool_less_exclusions.txt	LTP187	ltpFR	12	11	1	LOUNGE	845	n/a	0	n/a	0	0	0	1	0.412841796875	0.57763671875	lower	../fonts/amplitud.ttf
3339.312	n/a	WORD	1669656	wordpools/wasnorm_wordpool_less_exclusions.txt	LTP187	ltpFR	12	11	1	PROFESSIONAL	1130	n/a	3	n/a	0	0	0	1	0.412841796875	0.57763671875	lower	../fonts/amplitud.ttf
3341.386	n/a	KEY_MSG	1670693	n/a	LTP187	ltpFR	12	11	n/a	n/a	n/a	n/a	n/a	n/a	0	0	0	n/a	n/a	n/a	n/a	n/a
3343.88	n/a	WORD	1671940	wordpools/wasnorm_wordpool_less_exclusions.txt	LTP187	ltpFR	12	11	1	KEY	773	n/a	0	n/a	0	0	0	1	0.412841796875	0.57763671875	lower	../fonts/amplitud.ttf
3348.046	n/a	WORD	1674023	wordpools/wasnorm_wordpool_less_exclusions.txt	LTP187	ltpFR	12	11	1	RACK	1154	n/a	0	n/a	0	0	0	1	0.412841796875	0.57763671875	lower	../fonts/amplitud.ttf
3351.944	n/a	WORD	1675972	wordpools/wasnorm_wordpool_less_exclusions.txt	LTP187	ltpFR	12	11	0	MOTORCYCLE	923	n/a	1	n/a	0	0	0	0	0.5869140625	0.422607421875	upper	../fonts/zerothre.ttf
3355.852	n/a	WORD	1677926	wordpools/wasnorm_wordpool_less_exclusions.txt	LTP187	ltpFR	12	11	0	GENERAL	630	n/a	1	n/a	0	0	0	0	0.5869140625	0.422607421875	upper	../fonts/zerothre.ttf
3359.908	n/a	WORD	1679954	wordpools/wasnorm_wordpool_less_exclusions.txt	LTP187	ltpFR	12	11	0	PATRIOT	1026	n/a	1	n/a	0	0	0	0	0.5869140625	0.422607421875	upper	../fonts/zerothre.ttf
3365.774	n/a	REC_START	1682887	n/a	LTP187	ltpFR	12	11	n/a	n/a	n/a	n/a	n/a	n/a	0	0	0	n/a	n/a	n/a	n/a	n/a
3367.544	n/a	REC_WORD	1683772	wordpools/wasnorm_wordpool_less_exclusions.txt	LTP187	ltpFR	12	11	0	GENERAL	630	n/a	1	n/a	0	0	0	n/a	n/a	n/a	n/a	n/a
3369.136	n/a	REC_WORD	1684568	wordpools/wasnorm_wordpool_less_exclusions.txt	LTP187	ltpFR	12	11	0	PATRIOT	1026	n/a	1	n/a	0	0	0	n/a	n/a	n/a	n/a	n/a
