onset	duration	trial_type	sample	stim_file	subject	experiment	session	trial	item_name	item_num	list	answer	test_x	test_y	test_z
219.536	n/a	SESS_START	109768	n/a	LTP323	ltpFR2	8	n/a	n/a	n/a	n/a	n/a	0	0	0
239.122	n/a	START	119561	n/a	LTP323	ltpFR2	8	n/a	n/a	n/a	-1	n/a	n/a	n/a	n/a
239.152	n/a	PROB	119576	n/a	LTP323	ltpFR2	8	n/a	n/a	n/a	-1	20	9	3	8
242.218	n/a	PROB	121109	n/a	LTP323	ltpFR2	8	n/a	n/a	n/a	-1	11	4	1	6
243.624	n/a	PROB	121812	n/a	LTP323	ltpFR2	8	n/a	n/a	n/a	-1	22	9	8	5
246.94	n/a	PROB	123470	n/a	LTP323	ltpFR2	8	n/a	n/a	n/a	-1	10	1	1	8
248.44	n/a	PROB	124220	n/a	LTP323	ltpFR2	8	n/a	n/a	n/a	-1	14	2	7	5
251.034	n/a	STOP	125517	n/a	LTP323	ltpFR2	8	n/a	n/a	n/a	-1	n/a	n/a	n/a	n/a
285.39	n/a	WORD	142695	wordpools/wasnorm_wordpool_576.txt	LTP323	ltpFR2	8	1	SEAFOOD	1260	n/a	n/a	0	0	0
287.912	n/a	WORD	143956	wordpools/wasnorm_wordpool_576.txt	LTP323	ltpFR2	8	1	BUNNY	198	n/a	n/a	0	0	0
290.73	n/a	WORD	145365	wordpools/wasnorm_wordpool_576.txt	LTP323	ltpFR2	8	1	LETTUCE	814	n/a	n/a	0	0	0
293.25	n/a	WORD	146625	wordpools/wasnorm_wordpool_576.txt	LTP323	ltpFR2	8	1	OYSTER	995	n/a	n/a	0	0	0
296.052	n/a	WORD	148026	wordpools/wasnorm_wordpool_576.txt	LTP323	ltpFR2	8	1	COMPASS	358	n/a	n/a	0	0	0
298.652	n/a	WORD	149326	wordpools/wasnorm_wordpool_576.txt	LTP323	ltpFR2	8	1	WORLD	1622	n/a	n/a	0	0	0
301.106	n/a	WORD	150553	wordpools/wasnorm_wordpool_576.txt	LTP323	ltpFR2	8	1	HARP	689	n/a	n/a	0	0	0
303.874	n/a	WORD	151937	wordpools/wasnorm_wordpool_576.txt	LTP323	ltpFR2	8	1	FEMALE	559	n/a	n/a	0	0	0
306.442	n/a	WORD	153221	wordpools/wasnorm_wordpool_576.txt	LTP323	ltpFR2	8	1	BLUEPRINT	142	n/a	n/a	0	0	0
308.994	n/a	WORD	154497	wordpools/wasnorm_wordpool_576.txt	LTP323	ltpFR2	8	1	ONION	977	n/a	n/a	0	0	0
311.564	n/a	WORD	155782	wordpools/wasnorm_wordpool_576.txt	LTP323	ltpFR2	8	1	MONEY	908	n/a	n/a	0	0	0
314.098	n/a	WORD	157049	wordpools/wasnorm_wordpool_576.txt	LTP323	ltpFR2	8	1	JUGGLER	763	n/a	n/a	0	0	0
316.616	n/a	WORD	158308	wordpools/wasnorm_wordpool_576.txt	LTP323	ltpFR2	8	1	TEACHER	1440	n/a	n/a	0	0	0
319.302	n/a	WORD	159651	wordpools/wasnorm_wordpool_576.txt	LTP323	ltpFR2	8	1	HUMAN	726	n/a	n/a	0	0	0
321.922	n/a	WORD	160961	wordpools/wasnorm_wordpool_576.txt	LTP323	ltpFR2	8	1	BANK	83	n/a	n/a	0	0	0
324.726	n/a	WORD	162363	wordpools/wasnorm_wordpool_576.txt	LTP323	ltpFR2	8	1	CRATER	400	n/a	n/a	0	0	0
327.226	n/a	WORD	163613	wordpools/wasnorm_wordpool_576.txt	LTP323	ltpFR2	8	1	ARM	38	n/a	n/a	0	0	0
329.71	n/a	WORD	164855	wordpools/wasnorm_wordpool_576.txt	LTP323	ltpFR2	8	1	RIVER	1194	n/a	n/a	0	0	0
332.384	n/a	WORD	166192	wordpools/wasnorm_wordpool_576.txt	LTP323	ltpFR2	8	1	PAIL	1002	n/a	n/a	0	0	0
334.948	n/a	WORD	167474	wordpools/wasnorm_wordpool_576.txt	LTP323	ltpFR2	8	1	GARBAGE	622	n/a	n/a	0	0	0
337.7	n/a	WORD	168850	wordpools/wasnorm_wordpool_576.txt	LTP323	ltpFR2	8	1	WRENCH	1625	n/a	n/a	0	0	0
340.402	n/a	WORD	170201	wordpools/wasnorm_wordpool_576.txt	LTP323	ltpFR2	8	1	SPOON	1357	n/a	n/a	0	0	0
342.86	n/a	WORD	171430	wordpools/wasnorm_wordpool_576.txt	LTP323	ltpFR2	8	1	PLATE	1086	n/a	n/a	0	0	0
345.44	n/a	WORD	172720	wordpools/wasnorm_wordpool_576.txt	LTP323	ltpFR2	8	1	IDOL	733	n/a	n/a	0	0	0
347.058	n/a	START	173529	n/a	LTP323	ltpFR2	8	n/a	n/a	n/a	1	n/a	n/a	n/a	n/a
347.892	n/a	DISTRACTOR	173946	n/a	LTP323	ltpFR2	8	1	n/a	n/a	n/a	n/a	0	0	0
347.908	n/a	PROB	173954	n/a	LTP323	ltpFR2	8	n/a	n/a	n/a	1	20	9	7	4
351.576	n/a	PROB	175788	n/a	LTP323	ltpFR2	8	n/a	n/a	n/a	1	22	8	6	8
355.178	n/a	PROB	177589	n/a	LTP323	ltpFR2	8	n/a	n/a	n/a	1	17	5	6	6
357.602	n/a	PROB	178801	n/a	LTP323	ltpFR2	8	n/a	n/a	n/a	1	19	5	6	8
359.938	n/a	PROB	179969	n/a	LTP323	ltpFR2	8	n/a	n/a	n/a	1	13	8	2	3
361.424	n/a	PROB	180712	n/a	LTP323	ltpFR2	8	n/a	n/a	n/a	1	13	6	4	3
362.76	n/a	PROB	181380	n/a	LTP323	ltpFR2	8	n/a	n/a	n/a	1	18	1	9	8
364.61	n/a	PROB	182305	n/a	LTP323	ltpFR2	8	n/a	n/a	n/a	1	10	5	4	1
366.31	n/a	PROB	183155	n/a	LTP323	ltpFR2	8	n/a	n/a	n/a	1	14	6	4	4
367.796	n/a	PROB	183898	n/a	LTP323	ltpFR2	8	n/a	n/a	n/a	1	9	3	2	4
369.582	n/a	STOP	184791	n/a	LTP323	ltpFR2	8	n/a	n/a	n/a	1	n/a	n/a	n/a	n/a
372.982	n/a	REC_START	186491	n/a	LTP323	ltpFR2	8	1	n/a	n/a	n/a	n/a	0	0	0
374.706	n/a	REC_WORD	187353	wordpools/wasnorm_wordpool_576.txt	LTP323	ltpFR2	8	1	CRATER	400	n/a	n/a	0	0	0
375.864	n/a	REC_WORD_VV	187932	wordpools/wasnorm_wordpool_576.txt	LTP323	ltpFR2	8	1	<>	-1	n/a	n/a	0	0	0
376.692	n/a	REC_WORD	188346	wordpools/wasnorm_wordpool_576.txt	LTP323	ltpFR2	8	1	RIVER	1194	n/a	n/a	0	0	0
377.66	n/a	REC_WORD	188830	wordpools/wasnorm_wordpool_576.txt	LTP323	ltpFR2	8	1	ARM	38	n/a	n/a	0	0	0
378.966	n/a	REC_WORD	189483	wordpools/wasnorm_wordpool_576.txt	LTP323	ltpFR2	8	1	GARBAGE	622	n/a	n/a	0	0	0
379.496	n/a	REC_WORD	189748	wordpools/wasnorm_wordpool_576.txt	LTP323	ltpFR2	8	1	PAIL	1002	n/a	n/a	0	0	0
380.316	n/a	REC_WORD	190158	wordpools/wasnorm_wordpool_576.txt	LTP323	ltpFR2	8	1	WRENCH	1625	n/a	n/a	0	0	0
382.692	n/a	REC_WORD	191346	wordpools/wasnorm_wordpool_576.txt	LTP323	ltpFR2	8	1	SPOON	1357	n/a	n/a	0	0	0
383.772	n/a	REC_WORD	191886	wordpools/wasnorm_wordpool_576.txt	LTP323	ltpFR2	8	1	PLATE	1086	n/a	n/a	0	0	0
385.44	n/a	REC_WORD	192720	wordpools/wasnorm_wordpool_576.txt	LTP323	ltpFR2	8	1	SEAFOOD	1260	n/a	n/a	0	0	0
386.768	n/a	REC_WORD	193384	wordpools/wasnorm_wordpool_576.txt	LTP323	ltpFR2	8	1	LETTUCE	814	n/a	n/a	0	0	0
387.392	n/a	REC_WORD	193696	wordpools/wasnorm_wordpool_576.txt	LTP323	ltpFR2	8	1	ONION	977	n/a	n/a	0	0	0
388.778	n/a	REC_WORD	194389	wordpools/wasnorm_wordpool_576.txt	LTP323	ltpFR2	8	1	OYSTER	995	n/a	n/a	0	0	0
390.88	n/a	REC_WORD	195440	wordpools/wasnorm_wordpool_576.txt	LTP323	ltpFR2	8	1	WORLD	1622	n/a	n/a	0	0	0
392.062	n/a	REC_WORD	196031	wordpools/wasnorm_wordpool_576.txt	LTP323	ltpFR2	8	1	COMPASS	358	n/a	n/a	0	0	0
394.36	n/a	REC_WORD	197180	wordpools/wasnorm_wordpool_576.txt	LTP323	ltpFR2	8	1	MONEY	908	n/a	n/a	0	0	0
395.054	n/a	REC_WORD	197527	wordpools/wasnorm_wordpool_576.txt	LTP323	ltpFR2	8	1	BANK	83	n/a	n/a	0	0	0
395.932	n/a	REC_WORD	197966	wordpools/wasnorm_wordpool_576.txt	LTP323	ltpFR2	8	1	TEACHER	1440	n/a	n/a	0	0	0
397.028	n/a	REC_WORD	198514	wordpools/wasnorm_wordpool_576.txt	LTP323	ltpFR2	8	1	JUGGLER	763	n/a	n/a	0	0	0
399.008	n/a	REC_WORD	199504	wordpools/wasnorm_wordpool_576.txt	LTP323	ltpFR2	8	1	WORLD	1622	n/a	n/a	0	0	0
400.49	n/a	REC_WORD	200245	wordpools/wasnorm_wordpool_576.txt	LTP323	ltpFR2	8	1	COMPASS	358	n/a	n/a	0	0	0
402.206	n/a	REC_WORD	201103	wordpools/wasnorm_wordpool_576.txt	LTP323	ltpFR2	8	1	HARP	689	n/a	n/a	0	0	0
403.216	n/a	REC_WORD	201608	wordpools/wasnorm_wordpool_576.txt	LTP323	ltpFR2	8	1	FEMALE	559	n/a	n/a	0	0	0
404.57	n/a	REC_WORD	202285	wordpools/wasnorm_wordpool_576.txt	LTP323	ltpFR2	8	1	BUNNY	198	n/a	n/a	0	0	0
463.46	n/a	WORD	231730	wordpools/wasnorm_wordpool_576.txt	LTP323	ltpFR2	8	2	STOVE	1388	n/a	n/a	0	0	0
466.166	n/a	WORD	233083	wordpools/wasnorm_wordpool_576.txt	LTP323	ltpFR2	8	2	TRENCH	1503	n/a	n/a	0	0	0
468.654	n/a	WORD	234327	wordpools/wasnorm_wordpool_576.txt	LTP323	ltpFR2	8	2	CLAM	315	n/a	n/a	0	0	0
471.256	n/a	WORD	235628	wordpools/wasnorm_wordpool_576.txt	LTP323	ltpFR2	8	2	TROMBONE	1508	n/a	n/a	0	0	0
473.97	n/a	WORD	236985	wordpools/wasnorm_wordpool_576.txt	LTP323	ltpFR2	8	2	CONVICT	371	n/a	n/a	0	0	0
476.624	n/a	WORD	238312	wordpools/wasnorm_wordpool_576.txt	LTP323	ltpFR2	8	2	VIRUS	1572	n/a	n/a	0	0	0
479.442	n/a	WORD	239721	wordpools/wasnorm_wordpool_576.txt	LTP323	ltpFR2	8	2	LAPEL	800	n/a	n/a	0	0	0
481.898	n/a	WORD	240949	wordpools/wasnorm_wordpool_576.txt	LTP323	ltpFR2	8	2	MONSTER	912	n/a	n/a	0	0	0
484.482	n/a	WORD	242241	wordpools/wasnorm_wordpool_576.txt	LTP323	ltpFR2	8	2	FOX	598	n/a	n/a	0	0	0
487.232	n/a	WORD	243616	wordpools/wasnorm_wordpool_576.txt	LTP323	ltpFR2	8	2	LEG	809	n/a	n/a	0	0	0
490.052	n/a	WORD	245026	wordpools/wasnorm_wordpool_576.txt	LTP323	ltpFR2	8	2	NOVEL	960	n/a	n/a	0	0	0
492.854	n/a	WORD	246427	wordpools/wasnorm_wordpool_576.txt	LTP323	ltpFR2	8	2	SHIRT	1287	n/a	n/a	0	0	0
495.408	n/a	WORD	247704	wordpools/wasnorm_wordpool_576.txt	LTP323	ltpFR2	8	2	GOBLIN	645	n/a	n/a	0	0	0
497.976	n/a	WORD	248988	wordpools/wasnorm_wordpool_576.txt	LTP323	ltpFR2	8	2	MOTEL	919	n/a	n/a	0	0	0
500.446	n/a	WORD	250223	wordpools/wasnorm_wordpool_576.txt	LTP323	ltpFR2	8	2	TOURIST	1488	n/a	n/a	0	0	0
502.98	n/a	WORD	251490	wordpools/wasnorm_wordpool_576.txt	LTP323	ltpFR2	8	2	CAPTIVE	240	n/a	n/a	0	0	0
505.634	n/a	WORD	252817	wordpools/wasnorm_wordpool_576.txt	LTP323	ltpFR2	8	2	FOOT	590	n/a	n/a	0	0	0
508.368	n/a	WORD	254184	wordpools/wasnorm_wordpool_576.txt	LTP323	ltpFR2	8	2	HOSTESS	723	n/a	n/a	0	0	0
511.088	n/a	WORD	255544	wordpools/wasnorm_wordpool_576.txt	LTP323	ltpFR2	8	2	COSTUME	383	n/a	n/a	0	0	0
513.822	n/a	WORD	256911	wordpools/wasnorm_wordpool_576.txt	LTP323	ltpFR2	8	2	LACE	792	n/a	n/a	0	0	0
516.492	n/a	WORD	258246	wordpools/wasnorm_wordpool_576.txt	LTP323	ltpFR2	8	2	CHAMPAGNE	278	n/a	n/a	0	0	0
518.926	n/a	WORD	259463	wordpools/wasnorm_wordpool_576.txt	LTP323	ltpFR2	8	2	BRANDY	169	n/a	n/a	0	0	0
521.712	n/a	WORD	260856	wordpools/wasnorm_wordpool_576.txt	LTP323	ltpFR2	8	2	AUTHOR	61	n/a	n/a	0	0	0
524.364	n/a	WORD	262182	wordpools/wasnorm_wordpool_576.txt	LTP323	ltpFR2	8	2	CASHIER	254	n/a	n/a	0	0	0
525.982	n/a	START	262991	n/a	LTP323	ltpFR2	8	n/a	n/a	n/a	2	n/a	n/a	n/a	n/a
526.952	n/a	DISTRACTOR	263476	n/a	LTP323	ltpFR2	8	2	n/a	n/a	n/a	n/a	0	0	0
526.966	n/a	PROB	263483	n/a	LTP323	ltpFR2	8	n/a	n/a	n/a	2	10	3	3	4
529.834	n/a	PROB	264917	n/a	LTP323	ltpFR2	8	n/a	n/a	n/a	2	6	3	1	2
531.818	n/a	PROB	265909	n/a	LTP323	ltpFR2	8	n/a	n/a	n/a	2	17	5	5	7
533.406	n/a	PROB	266703	n/a	LTP323	ltpFR2	8	n/a	n/a	n/a	2	16	8	7	1
535.008	n/a	PROB	267504	n/a	LTP323	ltpFR2	8	n/a	n/a	n/a	2	24	7	8	9
538.974	n/a	PROB	269487	n/a	LTP323	ltpFR2	8	n/a	n/a	n/a	2	16	6	7	3
541.428	n/a	PROB	270714	n/a	LTP323	ltpFR2	8	n/a	n/a	n/a	2	17	2	7	8
543.478	n/a	PROB	271739	n/a	LTP323	ltpFR2	8	n/a	n/a	n/a	2	12	5	1	6
549.982	n/a	STOP	274991	n/a	LTP323	ltpFR2	8	n/a	n/a	n/a	2	n/a	n/a	n/a	n/a
551.956	n/a	REC_START	275978	n/a	LTP323	ltpFR2	8	2	n/a	n/a	n/a	n/a	0	0	0
552.002	n/a	REC_WORD_VV	276001	wordpools/wasnorm_wordpool_576.txt	LTP323	ltpFR2	8	2	<>	-1	n/a	n/a	0	0	0
554.074	n/a	REC_WORD_VV	277037	wordpools/wasnorm_wordpool_576.txt	LTP323	ltpFR2	8	2	<>	-1	n/a	n/a	0	0	0
555.998	n/a	REC_WORD	277999	wordpools/wasnorm_wordpool_576.txt	LTP323	ltpFR2	8	2	TRENCH	1503	n/a	n/a	0	0	0
556.59	n/a	REC_WORD	278295	wordpools/wasnorm_wordpool_576.txt	LTP323	ltpFR2	8	2	LEG	809	n/a	n/a	0	0	0
556.984	n/a	REC_WORD	278492	wordpools/wasnorm_wordpool_576.txt	LTP323	ltpFR2	8	2	FOOT	590	n/a	n/a	0	0	0
558.51	n/a	REC_WORD	279255	wordpools/wasnorm_wordpool_576.txt	LTP323	ltpFR2	8	2	STOVE	1388	n/a	n/a	0	0	0
559.934	n/a	REC_WORD	279967	wordpools/wasnorm_wordpool_576.txt	LTP323	ltpFR2	8	2	CLAM	315	n/a	n/a	0	0	0
564.418	n/a	REC_WORD	282209	wordpools/wasnorm_wordpool_576.txt	LTP323	ltpFR2	8	2	MONSTER	912	n/a	n/a	0	0	0
565.866	n/a	REC_WORD	282933	wordpools/wasnorm_wordpool_576.txt	LTP323	ltpFR2	8	2	LAPEL	800	n/a	n/a	0	0	0
567.422	n/a	REC_WORD	283711	wordpools/wasnorm_wordpool_576.txt	LTP323	ltpFR2	8	2	TROMBONE	1508	n/a	n/a	0	0	0
568.436	n/a	REC_WORD	284218	wordpools/wasnorm_wordpool_576.txt	LTP323	ltpFR2	8	2	CONVICT	371	n/a	n/a	0	0	0
569.436	n/a	REC_WORD_VV	284718	wordpools/wasnorm_wordpool_576.txt	LTP323	ltpFR2	8	2	<>	-1	n/a	n/a	0	0	0
570.79	n/a	REC_WORD	285395	wordpools/wasnorm_wordpool_576.txt	LTP323	ltpFR2	8	2	SHIRT	1287	n/a	n/a	0	0	0
572.16	n/a	REC_WORD	286080	wordpools/wasnorm_wordpool_576.txt	LTP323	ltpFR2	8	2	AUTHOR	61	n/a	n/a	0	0	0
573.834	n/a	REC_WORD	286917	wordpools/wasnorm_wordpool_576.txt	LTP323	ltpFR2	8	2	NOVEL	960	n/a	n/a	0	0	0
578.886	n/a	REC_WORD	289443	wordpools/wasnorm_wordpool_576.txt	LTP323	ltpFR2	8	2	CHAMPAGNE	278	n/a	n/a	0	0	0
579.676	n/a	REC_WORD	289838	wordpools/wasnorm_wordpool_576.txt	LTP323	ltpFR2	8	2	BRANDY	169	n/a	n/a	0	0	0
580.39	n/a	REC_WORD	290195	wordpools/wasnorm_wordpool_576.txt	LTP323	ltpFR2	8	2	HOSTESS	723	n/a	n/a	0	0	0
581.134	n/a	REC_WORD	290567	wordpools/wasnorm_wordpool_576.txt	LTP323	ltpFR2	8	2	LACE	792	n/a	n/a	0	0	0
581.888	n/a	REC_WORD	290944	wordpools/wasnorm_wordpool_576.txt	LTP323	ltpFR2	8	2	COSTUME	383	n/a	n/a	0	0	0
583.358	n/a	REC_WORD	291679	wordpools/wasnorm_wordpool_576.txt	LTP323	ltpFR2	8	2	MOTEL	919	n/a	n/a	0	0	0
585.868	n/a	REC_WORD_VV	292934	wordpools/wasnorm_wordpool_576.txt	LTP323	ltpFR2	8	2	<>	-1	n/a	n/a	0	0	0
598.342	n/a	REC_WORD	299171	wordpools/wasnorm_wordpool_576.txt	LTP323	ltpFR2	8	2	GOBLIN	645	n/a	n/a	0	0	0
642.384	n/a	DISTRACTOR	321192	n/a	LTP323	ltpFR2	8	3	n/a	n/a	n/a	n/a	0	0	0
642.384	n/a	START	321192	n/a	LTP323	ltpFR2	8	n/a	n/a	n/a	3	n/a	n/a	n/a	n/a
642.4	n/a	PROB	321200	n/a	LTP323	ltpFR2	8	n/a	n/a	n/a	3	9	1	2	6
644.366	n/a	PROB	322183	n/a	LTP323	ltpFR2	8	n/a	n/a	n/a	3	16	7	1	8
646.068	n/a	PROB	323034	n/a	LTP323	ltpFR2	8	n/a	n/a	n/a	3	16	6	9	1
647.618	n/a	PROB	323809	n/a	LTP323	ltpFR2	8	n/a	n/a	n/a	3	13	5	7	1
650.204	n/a	PROB	325102	n/a	LTP323	ltpFR2	8	n/a	n/a	n/a	3	21	7	9	5
653.072	n/a	PROB	326536	n/a	LTP323	ltpFR2	8	n/a	n/a	n/a	3	14	7	6	1
654.94	n/a	PROB	327470	n/a	LTP323	ltpFR2	8	n/a	n/a	n/a	3	8	5	2	1
656.742	n/a	PROB	328371	n/a	LTP323	ltpFR2	8	n/a	n/a	n/a	3	10	8	1	1
658.344	n/a	PROB	329172	n/a	LTP323	ltpFR2	8	n/a	n/a	n/a	3	15	6	2	7
661.262	n/a	PROB	330631	n/a	LTP323	ltpFR2	8	n/a	n/a	n/a	3	23	5	9	9
663.532	n/a	PROB	331766	n/a	LTP323	ltpFR2	8	n/a	n/a	n/a	3	11	1	8	2
665.144	n/a	STOP	332572	n/a	LTP323	ltpFR2	8	n/a	n/a	n/a	3	n/a	n/a	n/a	n/a
667.294	n/a	WORD	333647	wordpools/wasnorm_wordpool_576.txt	LTP323	ltpFR2	8	3	INMATE	738	n/a	n/a	0	0	0
669.774	n/a	WORD	334887	wordpools/wasnorm_wordpool_576.txt	LTP323	ltpFR2	8	3	OUTLAW	989	n/a	n/a	0	0	0
672.194	n/a	WORD	336097	wordpools/wasnorm_wordpool_576.txt	LTP323	ltpFR2	8	3	PRINCESS	1125	n/a	n/a	0	0	0
674.612	n/a	WORD	337306	wordpools/wasnorm_wordpool_576.txt	LTP323	ltpFR2	8	3	GARDEN	623	n/a	n/a	0	0	0
677.348	n/a	WORD	338674	wordpools/wasnorm_wordpool_576.txt	LTP323	ltpFR2	8	3	HEDGE	699	n/a	n/a	0	0	0
679.822	n/a	WORD	339911	wordpools/wasnorm_wordpool_576.txt	LTP323	ltpFR2	8	3	SCARECROW	1245	n/a	n/a	0	0	0
682.468	n/a	WORD	341234	wordpools/wasnorm_wordpool_576.txt	LTP323	ltpFR2	8	3	EUROPE	541	n/a	n/a	0	0	0
685.176	n/a	WORD	342588	wordpools/wasnorm_wordpool_576.txt	LTP323	ltpFR2	8	3	HELMET	702	n/a	n/a	0	0	0
687.672	n/a	WORD	343836	wordpools/wasnorm_wordpool_576.txt	LTP323	ltpFR2	8	3	DAISY	435	n/a	n/a	0	0	0
690.246	n/a	WORD	345123	wordpools/wasnorm_wordpool_576.txt	LTP323	ltpFR2	8	3	ACTRESS	6	n/a	n/a	0	0	0
692.742	n/a	WORD	346371	wordpools/wasnorm_wordpool_576.txt	LTP323	ltpFR2	8	3	COCOON	339	n/a	n/a	0	0	0
695.4	n/a	WORD	347700	wordpools/wasnorm_wordpool_576.txt	LTP323	ltpFR2	8	3	CLOCK	325	n/a	n/a	0	0	0
698.018	n/a	WORD	349009	wordpools/wasnorm_wordpool_576.txt	LTP323	ltpFR2	8	3	BIKE	125	n/a	n/a	0	0	0
700.534	n/a	WORD	350267	wordpools/wasnorm_wordpool_576.txt	LTP323	ltpFR2	8	3	CHIPMUNK	304	n/a	n/a	0	0	0
703.034	n/a	WORD	351517	wordpools/wasnorm_wordpool_576.txt	LTP323	ltpFR2	8	3	KETCHUP	771	n/a	n/a	0	0	0
705.558	n/a	WORD	352779	wordpools/wasnorm_wordpool_576.txt	LTP323	ltpFR2	8	3	WIFE	1609	n/a	n/a	0	0	0
708.294	n/a	WORD	354147	wordpools/wasnorm_wordpool_576.txt	LTP323	ltpFR2	8	3	LEADER	807	n/a	n/a	0	0	0
710.876	n/a	WORD	355438	wordpools/wasnorm_wordpool_576.txt	LTP323	ltpFR2	8	3	MOP	916	n/a	n/a	0	0	0
713.496	n/a	WORD	356748	wordpools/wasnorm_wordpool_576.txt	LTP323	ltpFR2	8	3	PERCH	1048	n/a	n/a	0	0	0
716.28	n/a	WORD	358140	wordpools/wasnorm_wordpool_576.txt	LTP323	ltpFR2	8	3	CUSTARD	429	n/a	n/a	0	0	0
719.066	n/a	WORD	359533	wordpools/wasnorm_wordpool_576.txt	LTP323	ltpFR2	8	3	MEAT	883	n/a	n/a	0	0	0
721.502	n/a	WORD	360751	wordpools/wasnorm_wordpool_576.txt	LTP323	ltpFR2	8	3	BEEF	113	n/a	n/a	0	0	0
724.288	n/a	WORD	362144	wordpools/wasnorm_wordpool_576.txt	LTP323	ltpFR2	8	3	PALACE	1006	n/a	n/a	0	0	0
726.924	n/a	WORD	363462	wordpools/wasnorm_wordpool_576.txt	LTP323	ltpFR2	8	3	TYPIST	1532	n/a	n/a	0	0	0
728.542	n/a	START	364271	n/a	LTP323	ltpFR2	8	n/a	n/a	n/a	4	n/a	n/a	n/a	n/a
729.48	n/a	DISTRACTOR	364740	n/a	LTP323	ltpFR2	8	3	n/a	n/a	n/a	n/a	0	0	0
729.492	n/a	PROB	364746	n/a	LTP323	ltpFR2	8	n/a	n/a	n/a	4	18	8	2	8
732.092	n/a	PROB	366046	n/a	LTP323	ltpFR2	8	n/a	n/a	n/a	4	13	8	2	2
733.744	n/a	PROB	366872	n/a	LTP323	ltpFR2	8	n/a	n/a	n/a	4	14	4	5	5
737.414	n/a	PROB	368707	n/a	LTP323	ltpFR2	8	n/a	n/a	n/a	4	24	9	6	9
740.198	n/a	PROB	370099	n/a	LTP323	ltpFR2	8	n/a	n/a	n/a	4	13	4	2	7
742.068	n/a	PROB	371034	n/a	LTP323	ltpFR2	8	n/a	n/a	n/a	4	14	3	9	2
745.57	n/a	PROB	372785	n/a	LTP323	ltpFR2	8	n/a	n/a	n/a	4	17	8	7	2
747.972	n/a	PROB	373986	n/a	LTP323	ltpFR2	8	n/a	n/a	n/a	4	14	1	6	7
749.672	n/a	PROB	374836	n/a	LTP323	ltpFR2	8	n/a	n/a	n/a	4	11	3	5	3
751.746	n/a	STOP	375873	n/a	LTP323	ltpFR2	8	n/a	n/a	n/a	4	n/a	n/a	n/a	n/a
754.328	n/a	REC_START	377164	n/a	LTP323	ltpFR2	8	3	n/a	n/a	n/a	n/a	0	0	0
755.834	n/a	REC_WORD	377917	wordpools/wasnorm_wordpool_576.txt	LTP323	ltpFR2	8	3	OUTLAW	989	n/a	n/a	0	0	0
756.556	n/a	REC_WORD	378278	wordpools/wasnorm_wordpool_576.txt	LTP323	ltpFR2	8	3	CONVICT	371	n/a	n/a	0	0	0
758.814	n/a	REC_WORD	379407	wordpools/wasnorm_wordpool_576.txt	LTP323	ltpFR2	8	3	PALACE	1006	n/a	n/a	0	0	0
759.408	n/a	REC_WORD	379704	wordpools/wasnorm_wordpool_576.txt	LTP323	ltpFR2	8	3	PERCH	1048	n/a	n/a	0	0	0
760.418	n/a	REC_WORD	380209	wordpools/wasnorm_wordpool_576.txt	LTP323	ltpFR2	8	3	MOP	916	n/a	n/a	0	0	0
761.118	n/a	REC_WORD	380559	wordpools/wasnorm_wordpool_576.txt	LTP323	ltpFR2	8	3	CUSTARD	429	n/a	n/a	0	0	0
762.586	n/a	REC_WORD	381293	wordpools/wasnorm_wordpool_576.txt	LTP323	ltpFR2	8	3	MEAT	883	n/a	n/a	0	0	0
763.714	n/a	REC_WORD	381857	wordpools/wasnorm_wordpool_576.txt	LTP323	ltpFR2	8	3	BEEF	113	n/a	n/a	0	0	0
765.646	n/a	REC_WORD	382823	wordpools/wasnorm_wordpool_576.txt	LTP323	ltpFR2	8	3	LEADER	807	n/a	n/a	0	0	0
772.358	n/a	REC_WORD	386179	wordpools/wasnorm_wordpool_576.txt	LTP323	ltpFR2	8	3	PRINCESS	1125	n/a	n/a	0	0	0
773.574	n/a	REC_WORD	386787	wordpools/wasnorm_wordpool_576.txt	LTP323	ltpFR2	8	3	HEDGE	699	n/a	n/a	0	0	0
774.494	n/a	REC_WORD	387247	wordpools/wasnorm_wordpool_576.txt	LTP323	ltpFR2	8	3	GARDEN	623	n/a	n/a	0	0	0
775.918	n/a	REC_WORD	387959	wordpools/wasnorm_wordpool_576.txt	LTP323	ltpFR2	8	3	SCARECROW	1245	n/a	n/a	0	0	0
776.918	n/a	REC_WORD_VV	388459	wordpools/wasnorm_wordpool_576.txt	LTP323	ltpFR2	8	3	<>	-1	n/a	n/a	0	0	0
777.33	n/a	REC_WORD	388665	wordpools/wasnorm_wordpool_576.txt	LTP323	ltpFR2	8	3	HELMET	702	n/a	n/a	0	0	0
779.274	n/a	REC_WORD	389637	wordpools/wasnorm_wordpool_576.txt	LTP323	ltpFR2	8	3	EUROPE	541	n/a	n/a	0	0	0
781.39	n/a	REC_WORD	390695	wordpools/wasnorm_wordpool_576.txt	LTP323	ltpFR2	8	3	ACTRESS	6	n/a	n/a	0	0	0
782.39	n/a	REC_WORD_VV	391195	wordpools/wasnorm_wordpool_576.txt	LTP323	ltpFR2	8	3	<>	-1	n/a	n/a	0	0	0
783.132	n/a	REC_WORD	391566	wordpools/wasnorm_wordpool_576.txt	LTP323	ltpFR2	8	3	DAISY	435	n/a	n/a	0	0	0
788.328	n/a	REC_WORD	394164	wordpools/wasnorm_wordpool_576.txt	LTP323	ltpFR2	8	3	COCOON	339	n/a	n/a	0	0	0
798.892	n/a	REC_WORD	399446	wordpools/wasnorm_wordpool_576.txt	LTP323	ltpFR2	8	3	WIFE	1609	n/a	n/a	0	0	0
805.538	n/a	REC_WORD	402769	wordpools/wasnorm_wordpool_576.txt	LTP323	ltpFR2	8	3	KETCHUP	771	n/a	n/a	0	0	0
808.762	n/a	REC_WORD	404381	wordpools/wasnorm_wordpool_576.txt	LTP323	ltpFR2	8	3	CHIPMUNK	304	n/a	n/a	0	0	0
844.776	n/a	DISTRACTOR	422388	n/a	LTP323	ltpFR2	8	4	n/a	n/a	n/a	n/a	0	0	0
844.776	n/a	START	422388	n/a	LTP323	ltpFR2	8	n/a	n/a	n/a	5	n/a	n/a	n/a	n/a
844.788	n/a	PROB	422394	n/a	LTP323	ltpFR2	8	n/a	n/a	n/a	5	17	8	2	7
847.024	n/a	PROB	423512	n/a	LTP323	ltpFR2	8	n/a	n/a	n/a	5	10	3	2	5
848.908	n/a	PROB	424454	n/a	LTP323	ltpFR2	8	n/a	n/a	n/a	5	23	9	8	6
852.762	n/a	PROB	426381	n/a	LTP323	ltpFR2	8	n/a	n/a	n/a	5	19	4	7	8
854.796	n/a	PROB	427398	n/a	LTP323	ltpFR2	8	n/a	n/a	n/a	5	16	7	7	2
857.082	n/a	PROB	428541	n/a	LTP323	ltpFR2	8	n/a	n/a	n/a	5	20	9	5	6
859.418	n/a	PROB	429709	n/a	LTP323	ltpFR2	8	n/a	n/a	n/a	5	21	9	3	9
862.438	n/a	PROB	431219	n/a	LTP323	ltpFR2	8	n/a	n/a	n/a	5	9	3	4	2
864.438	n/a	PROB	432219	n/a	LTP323	ltpFR2	8	n/a	n/a	n/a	5	19	6	4	9
868.766	n/a	STOP	434383	n/a	LTP323	ltpFR2	8	n/a	n/a	n/a	5	n/a	n/a	n/a	n/a
869.788	n/a	WORD	434894	wordpools/wasnorm_wordpool_576.txt	LTP323	ltpFR2	8	4	CIGAR	308	n/a	n/a	0	0	0
872.24	n/a	WORD	436120	wordpools/wasnorm_wordpool_576.txt	LTP323	ltpFR2	8	4	DUSTPAN	509	n/a	n/a	0	0	0
874.892	n/a	WORD	437446	wordpools/wasnorm_wordpool_576.txt	LTP323	ltpFR2	8	4	NIGHTGOWN	953	n/a	n/a	0	0	0
877.56	n/a	WORD	438780	wordpools/wasnorm_wordpool_576.txt	LTP323	ltpFR2	8	4	MATTRESS	879	n/a	n/a	0	0	0
880.304	n/a	WORD	440152	wordpools/wasnorm_wordpool_576.txt	LTP323	ltpFR2	8	4	PEPPER	1047	n/a	n/a	0	0	0
882.748	n/a	WORD	441374	wordpools/wasnorm_wordpool_576.txt	LTP323	ltpFR2	8	4	BANKER	84	n/a	n/a	0	0	0
885.484	n/a	WORD	442742	wordpools/wasnorm_wordpool_576.txt	LTP323	ltpFR2	8	4	SHARK	1275	n/a	n/a	0	0	0
887.928	n/a	WORD	443964	wordpools/wasnorm_wordpool_576.txt	LTP323	ltpFR2	8	4	GREASE	660	n/a	n/a	0	0	0
890.454	n/a	WORD	445227	wordpools/wasnorm_wordpool_576.txt	LTP323	ltpFR2	8	4	BELLY	119	n/a	n/a	0	0	0
893.15	n/a	WORD	446575	wordpools/wasnorm_wordpool_576.txt	LTP323	ltpFR2	8	4	WRIST	1626	n/a	n/a	0	0	0
895.952	n/a	WORD	447976	wordpools/wasnorm_wordpool_576.txt	LTP323	ltpFR2	8	4	COD	340	n/a	n/a	0	0	0
898.728	n/a	WORD	449364	wordpools/wasnorm_wordpool_576.txt	LTP323	ltpFR2	8	4	PREACHER	1119	n/a	n/a	0	0	0
901.364	n/a	WORD	450682	wordpools/wasnorm_wordpool_576.txt	LTP323	ltpFR2	8	4	UMPIRE	1535	n/a	n/a	0	0	0
903.876	n/a	WORD	451938	wordpools/wasnorm_wordpool_576.txt	LTP323	ltpFR2	8	4	SHOVEL	1295	n/a	n/a	0	0	0
906.328	n/a	WORD	453164	wordpools/wasnorm_wordpool_576.txt	LTP323	ltpFR2	8	4	COMET	353	n/a	n/a	0	0	0
908.954	n/a	WORD	454477	wordpools/wasnorm_wordpool_576.txt	LTP323	ltpFR2	8	4	SCRIBBLE	1256	n/a	n/a	0	0	0
911.438	n/a	WORD	455719	wordpools/wasnorm_wordpool_576.txt	LTP323	ltpFR2	8	4	VICTIM	1562	n/a	n/a	0	0	0
913.99	n/a	WORD	456995	wordpools/wasnorm_wordpool_576.txt	LTP323	ltpFR2	8	4	FIDDLE	561	n/a	n/a	0	0	0
916.51	n/a	WORD	458255	wordpools/wasnorm_wordpool_576.txt	LTP323	ltpFR2	8	4	BARLEY	88	n/a	n/a	0	0	0
919.178	n/a	WORD	459589	wordpools/wasnorm_wordpool_576.txt	LTP323	ltpFR2	8	4	FARMER	553	n/a	n/a	0	0	0
921.774	n/a	WORD	460887	wordpools/wasnorm_wordpool_576.txt	LTP323	ltpFR2	8	4	CARRIAGE	248	n/a	n/a	0	0	0
924.226	n/a	WORD	462113	wordpools/wasnorm_wordpool_576.txt	LTP323	ltpFR2	8	4	OX	994	n/a	n/a	0	0	0
926.762	n/a	WORD	463381	wordpools/wasnorm_wordpool_576.txt	LTP323	ltpFR2	8	4	AGENT	10	n/a	n/a	0	0	0
929.33	n/a	WORD	464665	wordpools/wasnorm_wordpool_576.txt	LTP323	ltpFR2	8	4	POLICE	1098	n/a	n/a	0	0	0
930.938	n/a	START	465469	n/a	LTP323	ltpFR2	8	n/a	n/a	n/a	6	n/a	n/a	n/a	n/a
931.944	n/a	DISTRACTOR	465972	n/a	LTP323	ltpFR2	8	4	n/a	n/a	n/a	n/a	0	0	0
931.954	n/a	PROB	465977	n/a	LTP323	ltpFR2	8	n/a	n/a	n/a	6	22	8	8	6
935.416	n/a	PROB	467708	n/a	LTP323	ltpFR2	8	n/a	n/a	n/a	6	10	1	8	1
936.952	n/a	PROB	468476	n/a	LTP323	ltpFR2	8	n/a	n/a	n/a	6	13	9	1	3
938.57	n/a	PROB	469285	n/a	LTP323	ltpFR2	8	n/a	n/a	n/a	6	17	9	6	2
941.688	n/a	PROB	470844	n/a	LTP323	ltpFR2	8	n/a	n/a	n/a	6	13	2	3	8
943.408	n/a	PROB	471704	n/a	LTP323	ltpFR2	8	n/a	n/a	n/a	6	5	1	1	3
945.292	n/a	PROB	472646	n/a	LTP323	ltpFR2	8	n/a	n/a	n/a	6	24	7	9	8
950.396	n/a	PROB	475198	n/a	LTP323	ltpFR2	8	n/a	n/a	n/a	6	9	2	4	3
952.468	n/a	PROB	476234	n/a	LTP323	ltpFR2	8	n/a	n/a	n/a	6	13	7	2	4
954.88	n/a	STOP	477440	n/a	LTP323	ltpFR2	8	n/a	n/a	n/a	6	n/a	n/a	n/a	n/a
956.718	n/a	REC_START	478359	n/a	LTP323	ltpFR2	8	4	n/a	n/a	n/a	n/a	0	0	0
957.422	n/a	REC_WORD_VV	478711	wordpools/wasnorm_wordpool_576.txt	LTP323	ltpFR2	8	4	<>	-1	n/a	n/a	0	0	0
959.776	n/a	REC_WORD	479888	wordpools/wasnorm_wordpool_576.txt	LTP323	ltpFR2	8	4	UMPIRE	1535	n/a	n/a	0	0	0
960.772	n/a	REC_WORD	480386	wordpools/wasnorm_wordpool_576.txt	LTP323	ltpFR2	8	4	FARMER	553	n/a	n/a	0	0	0
961.67	n/a	REC_WORD	480835	wordpools/wasnorm_wordpool_576.txt	LTP323	ltpFR2	8	4	BARLEY	88	n/a	n/a	0	0	0
963.03	n/a	REC_WORD	481515	wordpools/wasnorm_wordpool_576.txt	LTP323	ltpFR2	8	4	POLICE	1098	n/a	n/a	0	0	0
963.96	n/a	REC_WORD	481980	wordpools/wasnorm_wordpool_576.txt	LTP323	ltpFR2	8	4	AGENT	10	n/a	n/a	0	0	0
964.96	n/a	REC_WORD_VV	482480	wordpools/wasnorm_wordpool_576.txt	LTP323	ltpFR2	8	4	<>	-1	n/a	n/a	0	0	0
968.052	n/a	REC_WORD	484026	wordpools/wasnorm_wordpool_576.txt	LTP323	ltpFR2	8	4	OX	994	n/a	n/a	0	0	0
969.09	n/a	REC_WORD	484545	wordpools/wasnorm_wordpool_576.txt	LTP323	ltpFR2	8	4	CARRIAGE	248	n/a	n/a	0	0	0
971.312	n/a	REC_WORD	485656	wordpools/wasnorm_wordpool_576.txt	LTP323	ltpFR2	8	4	MATTRESS	879	n/a	n/a	0	0	0
971.976	n/a	REC_WORD	485988	wordpools/wasnorm_wordpool_576.txt	LTP323	ltpFR2	8	4	NIGHTGOWN	953	n/a	n/a	0	0	0
973.284	n/a	REC_WORD	486642	wordpools/wasnorm_wordpool_576.txt	LTP323	ltpFR2	8	4	CIGAR	308	n/a	n/a	0	0	0
974.076	n/a	REC_WORD	487038	wordpools/wasnorm_wordpool_576.txt	LTP323	ltpFR2	8	4	DUSTPAN	509	n/a	n/a	0	0	0
977.352	n/a	REC_WORD	488676	wordpools/wasnorm_wordpool_576.txt	LTP323	ltpFR2	8	4	SHOVEL	1295	n/a	n/a	0	0	0
978.57	n/a	REC_WORD	489285	wordpools/wasnorm_wordpool_576.txt	LTP323	ltpFR2	8	4	COMET	353	n/a	n/a	0	0	0
985.294	n/a	REC_WORD	492647	wordpools/wasnorm_wordpool_576.txt	LTP323	ltpFR2	8	4	BANKER	84	n/a	n/a	0	0	0
985.874	n/a	REC_WORD	492937	wordpools/wasnorm_wordpool_576.txt	LTP323	ltpFR2	8	4	SHARK	1275	n/a	n/a	0	0	0
986.754	n/a	REC_WORD	493377	wordpools/wasnorm_wordpool_576.txt	LTP323	ltpFR2	8	4	GREASE	660	n/a	n/a	0	0	0
987.49	n/a	REC_WORD	493745	wordpools/wasnorm_wordpool_576.txt	LTP323	ltpFR2	8	4	WRIST	1626	n/a	n/a	0	0	0
994.508	n/a	REC_WORD	497254	wordpools/wasnorm_wordpool_576.txt	LTP323	ltpFR2	8	4	PEPPER	1047	n/a	n/a	0	0	0
1004.196	n/a	REC_WORD	502098	wordpools/wasnorm_wordpool_576.txt	LTP323	ltpFR2	8	4	PREACHER	1119	n/a	n/a	0	0	0
1005.134	n/a	REC_WORD	502567	wordpools/wasnorm_wordpool_576.txt	LTP323	ltpFR2	8	4	SCRIBBLE	1256	n/a	n/a	0	0	0
1026.024	n/a	REC_WORD	513012	wordpools/wasnorm_wordpool_576.txt	LTP323	ltpFR2	8	4	BELLY	119	n/a	n/a	0	0	0
1047.198	n/a	WORD	523599	wordpools/wasnorm_wordpool_576.txt	LTP323	ltpFR2	8	5	SWORD	1423	n/a	n/a	0	0	0
1049.83	n/a	WORD	524915	wordpools/wasnorm_wordpool_576.txt	LTP323	ltpFR2	8	5	PEDAL	1037	n/a	n/a	0	0	0
1052.416	n/a	WORD	526208	wordpools/wasnorm_wordpool_576.txt	LTP323	ltpFR2	8	5	MISTER	901	n/a	n/a	0	0	0
1055.188	n/a	WORD	527594	wordpools/wasnorm_wordpool_576.txt	LTP323	ltpFR2	8	5	NOMAD	955	n/a	n/a	0	0	0
1057.788	n/a	WORD	528894	wordpools/wasnorm_wordpool_576.txt	LTP323	ltpFR2	8	5	YACHT	1629	n/a	n/a	0	0	0
1060.226	n/a	WORD	530113	wordpools/wasnorm_wordpool_576.txt	LTP323	ltpFR2	8	5	BRIEFCASE	175	n/a	n/a	0	0	0
1062.858	n/a	WORD	531429	wordpools/wasnorm_wordpool_576.txt	LTP323	ltpFR2	8	5	SEAL	1262	n/a	n/a	0	0	0
1065.382	n/a	WORD	532691	wordpools/wasnorm_wordpool_576.txt	LTP323	ltpFR2	8	5	LASER	801	n/a	n/a	0	0	0
1067.966	n/a	WORD	533983	wordpools/wasnorm_wordpool_576.txt	LTP323	ltpFR2	8	5	PLAZA	1088	n/a	n/a	0	0	0
1070.698	n/a	WORD	535349	wordpools/wasnorm_wordpool_576.txt	LTP323	ltpFR2	8	5	CITRUS	313	n/a	n/a	0	0	0
1073.122	n/a	WORD	536561	wordpools/wasnorm_wordpool_576.txt	LTP323	ltpFR2	8	5	PEACH	1031	n/a	n/a	0	0	0
1075.656	n/a	WORD	537828	wordpools/wasnorm_wordpool_576.txt	LTP323	ltpFR2	8	5	SERVANT	1271	n/a	n/a	0	0	0
1078.142	n/a	WORD	539071	wordpools/wasnorm_wordpool_576.txt	LTP323	ltpFR2	8	5	QUARTER	1148	n/a	n/a	0	0	0
1080.778	n/a	WORD	540389	wordpools/wasnorm_wordpool_576.txt	LTP323	ltpFR2	8	5	HANDBAG	684	n/a	n/a	0	0	0
1083.214	n/a	WORD	541607	wordpools/wasnorm_wordpool_576.txt	LTP323	ltpFR2	8	5	ROBOT	1200	n/a	n/a	0	0	0
1085.666	n/a	WORD	542833	wordpools/wasnorm_wordpool_576.txt	LTP323	ltpFR2	8	5	POISON	1096	n/a	n/a	0	0	0
1088.218	n/a	WORD	544109	wordpools/wasnorm_wordpool_576.txt	LTP323	ltpFR2	8	5	COTTAGE	384	n/a	n/a	0	0	0
1090.786	n/a	WORD	545393	wordpools/wasnorm_wordpool_576.txt	LTP323	ltpFR2	8	5	LADY	794	n/a	n/a	0	0	0
1093.548	n/a	WORD	546774	wordpools/wasnorm_wordpool_576.txt	LTP323	ltpFR2	8	5	FRAME	600	n/a	n/a	0	0	0
1096.3	n/a	WORD	548150	wordpools/wasnorm_wordpool_576.txt	LTP323	ltpFR2	8	5	PAPER	1011	n/a	n/a	0	0	0
1098.804	n/a	WORD	549402	wordpools/wasnorm_wordpool_576.txt	LTP323	ltpFR2	8	5	APRON	35	n/a	n/a	0	0	0
1101.612	n/a	WORD	550806	wordpools/wasnorm_wordpool_576.txt	LTP323	ltpFR2	8	5	PADDLE	1000	n/a	n/a	0	0	0
1104.248	n/a	WORD	552124	wordpools/wasnorm_wordpool_576.txt	LTP323	ltpFR2	8	5	DONKEY	484	n/a	n/a	0	0	0
1106.794	n/a	WORD	553397	wordpools/wasnorm_wordpool_576.txt	LTP323	ltpFR2	8	5	CEILING	265	n/a	n/a	0	0	0
1108.404	n/a	START	554202	n/a	LTP323	ltpFR2	8	n/a	n/a	n/a	7	n/a	n/a	n/a	n/a
1109.254	n/a	DISTRACTOR	554627	n/a	LTP323	ltpFR2	8	5	n/a	n/a	n/a	n/a	0	0	0
1109.262	n/a	PROB	554631	n/a	LTP323	ltpFR2	8	n/a	n/a	n/a	7	20	8	5	7
1111.868	n/a	PROB	555934	n/a	LTP323	ltpFR2	8	n/a	n/a	n/a	7	13	8	1	4
1116.74	n/a	PROB	558370	n/a	LTP323	ltpFR2	8	n/a	n/a	n/a	7	18	1	9	8
1118.524	n/a	PROB	559262	n/a	LTP323	ltpFR2	8	n/a	n/a	n/a	7	17	9	6	2
1121.058	n/a	PROB	560529	n/a	LTP323	ltpFR2	8	n/a	n/a	n/a	7	13	5	1	7
1123.462	n/a	PROB	561731	n/a	LTP323	ltpFR2	8	n/a	n/a	n/a	7	20	9	8	3
1126.046	n/a	PROB	563023	n/a	LTP323	ltpFR2	8	n/a	n/a	n/a	7	19	6	5	8
1128.03	n/a	PROB	564015	n/a	LTP323	ltpFR2	8	n/a	n/a	n/a	7	19	7	3	9
1129.816	n/a	PROB	564908	n/a	LTP323	ltpFR2	8	n/a	n/a	n/a	7	15	2	8	5
1131.908	n/a	STOP	565954	n/a	LTP323	ltpFR2	8	n/a	n/a	n/a	7	n/a	n/a	n/a	n/a
1134.172	n/a	REC_START	567086	n/a	LTP323	ltpFR2	8	5	n/a	n/a	n/a	n/a	0	0	0
1134.662	n/a	REC_WORD_VV	567331	wordpools/wasnorm_wordpool_576.txt	LTP323	ltpFR2	8	5	<>	-1	n/a	n/a	0	0	0
1136.456	n/a	REC_WORD	568228	wordpools/wasnorm_wordpool_576.txt	LTP323	ltpFR2	8	5	PADDLE	1000	n/a	n/a	0	0	0
1137.03	n/a	REC_WORD	568515	wordpools/wasnorm_wordpool_576.txt	LTP323	ltpFR2	8	5	DONKEY	484	n/a	n/a	0	0	0
1137.982	n/a	REC_WORD	568991	wordpools/wasnorm_wordpool_576.txt	LTP323	ltpFR2	8	5	CEILING	265	n/a	n/a	0	0	0
1143.09	n/a	REC_WORD	571545	wordpools/wasnorm_wordpool_576.txt	LTP323	ltpFR2	8	5	LADY	794	n/a	n/a	0	0	0
1143.754	n/a	REC_WORD	571877	wordpools/wasnorm_wordpool_576.txt	LTP323	ltpFR2	8	5	COTTAGE	384	n/a	n/a	0	0	0
1145.502	n/a	REC_WORD	572751	wordpools/wasnorm_wordpool_576.txt	LTP323	ltpFR2	8	5	ROBOT	1200	n/a	n/a	0	0	0
1146.306	n/a	REC_WORD	573153	wordpools/wasnorm_wordpool_576.txt	LTP323	ltpFR2	8	5	SERVANT	1271	n/a	n/a	0	0	0
1147.834	n/a	REC_WORD	573917	wordpools/wasnorm_wordpool_576.txt	LTP323	ltpFR2	8	5	HANDBAG	684	n/a	n/a	0	0	0
1149.352	n/a	REC_WORD	574676	wordpools/wasnorm_wordpool_576.txt	LTP323	ltpFR2	8	5	QUARTER	1148	n/a	n/a	0	0	0
1154.032	n/a	REC_WORD	577016	wordpools/wasnorm_wordpool_576.txt	LTP323	ltpFR2	8	5	POISON	1096	n/a	n/a	0	0	0
1157.432	n/a	REC_WORD	578716	wordpools/wasnorm_wordpool_576.txt	LTP323	ltpFR2	8	5	PEDAL	1037	n/a	n/a	0	0	0
1158.432	n/a	REC_WORD_VV	579216	wordpools/wasnorm_wordpool_576.txt	LTP323	ltpFR2	8	5	<>	-1	n/a	n/a	0	0	0
1160.078	n/a	REC_WORD	580039	wordpools/wasnorm_wordpool_576.txt	LTP323	ltpFR2	8	5	BIKE	125	n/a	n/a	0	0	0
1160.842	n/a	REC_WORD	580421	wordpools/wasnorm_wordpool_576.txt	LTP323	ltpFR2	8	5	NOMAD	955	n/a	n/a	0	0	0
1162.298	n/a	REC_WORD	581149	wordpools/wasnorm_wordpool_576.txt	LTP323	ltpFR2	8	5	SWORD	1423	n/a	n/a	0	0	0
1171.502	n/a	REC_WORD	585751	wordpools/wasnorm_wordpool_576.txt	LTP323	ltpFR2	8	5	YACHT	1629	n/a	n/a	0	0	0
1173.018	n/a	REC_WORD	586509	wordpools/wasnorm_wordpool_576.txt	LTP323	ltpFR2	8	5	BRIEFCASE	175	n/a	n/a	0	0	0
1173.976	n/a	REC_WORD	586988	wordpools/wasnorm_wordpool_576.txt	LTP323	ltpFR2	8	5	SEAL	1262	n/a	n/a	0	0	0
1174.71	n/a	REC_WORD	587355	wordpools/wasnorm_wordpool_576.txt	LTP323	ltpFR2	8	5	LASER	801	n/a	n/a	0	0	0
1175.612	n/a	REC_WORD	587806	wordpools/wasnorm_wordpool_576.txt	LTP323	ltpFR2	8	5	PAPER	1011	n/a	n/a	0	0	0
1180.224	n/a	REC_WORD	590112	wordpools/wasnorm_wordpool_576.txt	LTP323	ltpFR2	8	5	AGENT	10	n/a	n/a	0	0	0
1224.648	n/a	WORD	612324	wordpools/wasnorm_wordpool_576.txt	LTP323	ltpFR2	8	6	GUARD	667	n/a	n/a	0	0	0
1227.336	n/a	WORD	613668	wordpools/wasnorm_wordpool_576.txt	LTP323	ltpFR2	8	6	PIANO	1057	n/a	n/a	0	0	0
1230.14	n/a	WORD	615070	wordpools/wasnorm_wordpool_576.txt	LTP323	ltpFR2	8	6	FUNGUS	614	n/a	n/a	0	0	0
1232.658	n/a	WORD	616329	wordpools/wasnorm_wordpool_576.txt	LTP323	ltpFR2	8	6	SLIME	1327	n/a	n/a	0	0	0
1235.262	n/a	WORD	617631	wordpools/wasnorm_wordpool_576.txt	LTP323	ltpFR2	8	6	TRANSPLANT	1496	n/a	n/a	0	0	0
1237.946	n/a	WORD	618973	wordpools/wasnorm_wordpool_576.txt	LTP323	ltpFR2	8	6	DRUG	501	n/a	n/a	0	0	0
1240.432	n/a	WORD	620216	wordpools/wasnorm_wordpool_576.txt	LTP323	ltpFR2	8	6	BOUQUET	157	n/a	n/a	0	0	0
1242.934	n/a	WORD	621467	wordpools/wasnorm_wordpool_576.txt	LTP323	ltpFR2	8	6	ORCHID	982	n/a	n/a	0	0	0
1245.702	n/a	WORD	622851	wordpools/wasnorm_wordpool_576.txt	LTP323	ltpFR2	8	6	GRILL	661	n/a	n/a	0	0	0
1248.254	n/a	WORD	624127	wordpools/wasnorm_wordpool_576.txt	LTP323	ltpFR2	8	6	PIZZA	1079	n/a	n/a	0	0	0
1251.006	n/a	WORD	625503	wordpools/wasnorm_wordpool_576.txt	LTP323	ltpFR2	8	6	TOMBSTONE	1478	n/a	n/a	0	0	0
1253.558	n/a	WORD	626779	wordpools/wasnorm_wordpool_576.txt	LTP323	ltpFR2	8	6	PATROL	1027	n/a	n/a	0	0	0
1256.362	n/a	WORD	628181	wordpools/wasnorm_wordpool_576.txt	LTP323	ltpFR2	8	6	COLONEL	348	n/a	n/a	0	0	0
1259.046	n/a	WORD	629523	wordpools/wasnorm_wordpool_576.txt	LTP323	ltpFR2	8	6	SPHINX	1349	n/a	n/a	0	0	0
1261.732	n/a	WORD	630866	wordpools/wasnorm_wordpool_576.txt	LTP323	ltpFR2	8	6	BREAST	171	n/a	n/a	0	0	0
1264.218	n/a	WORD	632109	wordpools/wasnorm_wordpool_576.txt	LTP323	ltpFR2	8	6	WHISTLE	1606	n/a	n/a	0	0	0
1266.786	n/a	WORD	633393	wordpools/wasnorm_wordpool_576.txt	LTP323	ltpFR2	8	6	BRACES	164	n/a	n/a	0	0	0
1269.304	n/a	WORD	634652	wordpools/wasnorm_wordpool_576.txt	LTP323	ltpFR2	8	6	LION	827	n/a	n/a	0	0	0
1271.756	n/a	WORD	635878	wordpools/wasnorm_wordpool_576.txt	LTP323	ltpFR2	8	6	PATIENT	1024	n/a	n/a	0	0	0
1274.442	n/a	WORD	637221	wordpools/wasnorm_wordpool_576.txt	LTP323	ltpFR2	8	6	RUG	1215	n/a	n/a	0	0	0
1277.128	n/a	WORD	638564	wordpools/wasnorm_wordpool_576.txt	LTP323	ltpFR2	8	6	GRIZZLY	662	n/a	n/a	0	0	0
1279.814	n/a	WORD	639907	wordpools/wasnorm_wordpool_576.txt	LTP323	ltpFR2	8	6	JELLY	755	n/a	n/a	0	0	0
1282.582	n/a	WORD	641291	wordpools/wasnorm_wordpool_576.txt	LTP323	ltpFR2	8	6	LEOPARD	812	n/a	n/a	0	0	0
1285.138	n/a	WORD	642569	wordpools/wasnorm_wordpool_576.txt	LTP323	ltpFR2	8	6	PUPPY	1144	n/a	n/a	0	0	0
1286.754	n/a	START	643377	n/a	LTP323	ltpFR2	8	n/a	n/a	n/a	8	n/a	n/a	n/a	n/a
1287.864	n/a	DISTRACTOR	643932	n/a	LTP323	ltpFR2	8	6	n/a	n/a	n/a	n/a	0	0	0
1287.872	n/a	PROB	643936	n/a	LTP323	ltpFR2	8	n/a	n/a	n/a	8	11	2	4	5
1290.838	n/a	PROB	645419	n/a	LTP323	ltpFR2	8	n/a	n/a	n/a	8	18	7	5	6
1294.422	n/a	PROB	647211	n/a	LTP323	ltpFR2	8	n/a	n/a	n/a	8	12	1	3	8
1296.756	n/a	PROB	648378	n/a	LTP323	ltpFR2	8	n/a	n/a	n/a	8	13	3	1	9
1298.158	n/a	PROB	649079	n/a	LTP323	ltpFR2	8	n/a	n/a	n/a	8	15	7	4	4
1300.86	n/a	PROB	650430	n/a	LTP323	ltpFR2	8	n/a	n/a	n/a	8	16	7	4	5
1303.366	n/a	PROB	651683	n/a	LTP323	ltpFR2	8	n/a	n/a	n/a	8	11	7	3	1
1304.996	n/a	PROB	652498	n/a	LTP323	ltpFR2	8	n/a	n/a	n/a	8	15	4	3	8
1307.404	n/a	PROB	653702	n/a	LTP323	ltpFR2	8	n/a	n/a	n/a	8	13	2	3	8
1310.754	n/a	STOP	655377	n/a	LTP323	ltpFR2	8	n/a	n/a	n/a	8	n/a	n/a	n/a	n/a
1312.64	n/a	REC_START	656320	n/a	LTP323	ltpFR2	8	6	n/a	n/a	n/a	n/a	0	0	0
1312.996	n/a	REC_WORD_VV	656498	wordpools/wasnorm_wordpool_576.txt	LTP323	ltpFR2	8	6	<>	-1	n/a	n/a	0	0	0
1313.996	n/a	REC_WORD_VV	656998	wordpools/wasnorm_wordpool_576.txt	LTP323	ltpFR2	8	6	<>	-1	n/a	n/a	0	0	0
1314.614	n/a	REC_WORD	657307	wordpools/wasnorm_wordpool_576.txt	LTP323	ltpFR2	8	6	GRIZZLY	662	n/a	n/a	0	0	0
1315.272	n/a	REC_WORD	657636	wordpools/wasnorm_wordpool_576.txt	LTP323	ltpFR2	8	6	LEOPARD	812	n/a	n/a	0	0	0
1315.95	n/a	REC_WORD	657975	wordpools/wasnorm_wordpool_576.txt	LTP323	ltpFR2	8	6	LION	827	n/a	n/a	0	0	0
1317.864	n/a	REC_WORD	658932	wordpools/wasnorm_wordpool_576.txt	LTP323	ltpFR2	8	6	COLONEL	348	n/a	n/a	0	0	0
1318.94	n/a	REC_WORD	659470	wordpools/wasnorm_wordpool_576.txt	LTP323	ltpFR2	8	6	PATROL	1027	n/a	n/a	0	0	0
1321.474	n/a	REC_WORD	660737	wordpools/wasnorm_wordpool_576.txt	LTP323	ltpFR2	8	6	WHISTLE	1606	n/a	n/a	0	0	0
1322.104	n/a	REC_WORD	661052	wordpools/wasnorm_wordpool_576.txt	LTP323	ltpFR2	8	6	BRACES	164	n/a	n/a	0	0	0
1325.532	n/a	REC_WORD	662766	wordpools/wasnorm_wordpool_576.txt	LTP323	ltpFR2	8	6	GUARD	667	n/a	n/a	0	0	0
1326.328	n/a	REC_WORD	663164	wordpools/wasnorm_wordpool_576.txt	LTP323	ltpFR2	8	6	PIANO	1057	n/a	n/a	0	0	0
1327.04	n/a	REC_WORD	663520	wordpools/wasnorm_wordpool_576.txt	LTP323	ltpFR2	8	6	FUNGUS	614	n/a	n/a	0	0	0
1327.926	n/a	REC_WORD	663963	wordpools/wasnorm_wordpool_576.txt	LTP323	ltpFR2	8	6	SLIME	1327	n/a	n/a	0	0	0
1329.606	n/a	REC_WORD	664803	wordpools/wasnorm_wordpool_576.txt	LTP323	ltpFR2	8	6	BOUQUET	157	n/a	n/a	0	0	0
1330.862	n/a	REC_WORD	665431	wordpools/wasnorm_wordpool_576.txt	LTP323	ltpFR2	8	6	ORCHID	982	n/a	n/a	0	0	0
1336.844	n/a	REC_WORD	668422	wordpools/wasnorm_wordpool_576.txt	LTP323	ltpFR2	8	6	GRILL	661	n/a	n/a	0	0	0
1337.374	n/a	REC_WORD	668687	wordpools/wasnorm_wordpool_576.txt	LTP323	ltpFR2	8	6	PIZZA	1079	n/a	n/a	0	0	0
1338.282	n/a	REC_WORD	669141	wordpools/wasnorm_wordpool_576.txt	LTP323	ltpFR2	8	6	JELLO	754	n/a	n/a	0	0	0
1342.068	n/a	REC_WORD	671034	wordpools/wasnorm_wordpool_576.txt	LTP323	ltpFR2	8	6	TOMBSTONE	1478	n/a	n/a	0	0	0
1403.072	n/a	DISTRACTOR	701536	n/a	LTP323	ltpFR2	8	7	n/a	n/a	n/a	n/a	0	0	0
1403.072	n/a	START	701536	n/a	LTP323	ltpFR2	8	n/a	n/a	n/a	9	n/a	n/a	n/a	n/a
1403.084	n/a	PROB	701542	n/a	LTP323	ltpFR2	8	n/a	n/a	n/a	9	18	7	5	6
1406.22	n/a	PROB	703110	n/a	LTP323	ltpFR2	8	n/a	n/a	n/a	9	8	1	3	4
1408.056	n/a	PROB	704028	n/a	LTP323	ltpFR2	8	n/a	n/a	n/a	9	24	9	8	7
1414.06	n/a	PROB	707030	n/a	LTP323	ltpFR2	8	n/a	n/a	n/a	9	6	2	3	1
1416.314	n/a	PROB	708157	n/a	LTP323	ltpFR2	8	n/a	n/a	n/a	9	21	6	6	9
1418.616	n/a	PROB	709308	n/a	LTP323	ltpFR2	8	n/a	n/a	n/a	9	10	6	1	3
1420.95	n/a	PROB	710475	n/a	LTP323	ltpFR2	8	n/a	n/a	n/a	9	23	7	8	8
1424.788	n/a	PROB	712394	n/a	LTP323	ltpFR2	8	n/a	n/a	n/a	9	17	2	6	9
1426.926	n/a	STOP	713463	n/a	LTP323	ltpFR2	8	n/a	n/a	n/a	9	n/a	n/a	n/a	n/a
1428.042	n/a	WORD	714021	wordpools/wasnorm_wordpool_576.txt	LTP323	ltpFR2	8	7	IGLOO	734	n/a	n/a	0	0	0
1430.748	n/a	WORD	715374	wordpools/wasnorm_wordpool_576.txt	LTP323	ltpFR2	8	7	BASEMENT	94	n/a	n/a	0	0	0
1433.432	n/a	WORD	716716	wordpools/wasnorm_wordpool_576.txt	LTP323	ltpFR2	8	7	SHELF	1280	n/a	n/a	0	0	0
1435.916	n/a	WORD	717958	wordpools/wasnorm_wordpool_576.txt	LTP323	ltpFR2	8	7	PARTNER	1017	n/a	n/a	0	0	0
1438.536	n/a	WORD	719268	wordpools/wasnorm_wordpool_576.txt	LTP323	ltpFR2	8	7	BISON	131	n/a	n/a	0	0	0
1440.988	n/a	WORD	720494	wordpools/wasnorm_wordpool_576.txt	LTP323	ltpFR2	8	7	BEAST	108	n/a	n/a	0	0	0
1443.608	n/a	WORD	721804	wordpools/wasnorm_wordpool_576.txt	LTP323	ltpFR2	8	7	LAVA	804	n/a	n/a	0	0	0
1446.144	n/a	WORD	723072	wordpools/wasnorm_wordpool_576.txt	LTP323	ltpFR2	8	7	PEBBLE	1035	n/a	n/a	0	0	0
1448.812	n/a	WORD	724406	wordpools/wasnorm_wordpool_576.txt	LTP323	ltpFR2	8	7	MESSAGE	888	n/a	n/a	0	0	0
1451.398	n/a	WORD	725699	wordpools/wasnorm_wordpool_576.txt	LTP323	ltpFR2	8	7	POSTAGE	1113	n/a	n/a	0	0	0
1454.1	n/a	WORD	727050	wordpools/wasnorm_wordpool_576.txt	LTP323	ltpFR2	8	7	TART	1436	n/a	n/a	0	0	0
1456.718	n/a	WORD	728359	wordpools/wasnorm_wordpool_576.txt	LTP323	ltpFR2	8	7	TROUT	1511	n/a	n/a	0	0	0
1459.336	n/a	WORD	729668	wordpools/wasnorm_wordpool_576.txt	LTP323	ltpFR2	8	7	TRUCK	1512	n/a	n/a	0	0	0
1462.038	n/a	WORD	731019	wordpools/wasnorm_wordpool_576.txt	LTP323	ltpFR2	8	7	BROTHER	179	n/a	n/a	0	0	0
1464.692	n/a	WORD	732346	wordpools/wasnorm_wordpool_576.txt	LTP323	ltpFR2	8	7	TAXI	1438	n/a	n/a	0	0	0
1467.344	n/a	WORD	733672	wordpools/wasnorm_wordpool_576.txt	LTP323	ltpFR2	8	7	CHAPEL	280	n/a	n/a	0	0	0
1469.964	n/a	WORD	734982	wordpools/wasnorm_wordpool_576.txt	LTP323	ltpFR2	8	7	COUCH	386	n/a	n/a	0	0	0
1472.682	n/a	WORD	736341	wordpools/wasnorm_wordpool_576.txt	LTP323	ltpFR2	8	7	DASHBOARD	441	n/a	n/a	0	0	0
1475.452	n/a	WORD	737726	wordpools/wasnorm_wordpool_576.txt	LTP323	ltpFR2	8	7	CASHEW	253	n/a	n/a	0	0	0
1478.286	n/a	WORD	739143	wordpools/wasnorm_wordpool_576.txt	LTP323	ltpFR2	8	7	MATCH	878	n/a	n/a	0	0	0
1480.922	n/a	WORD	740461	wordpools/wasnorm_wordpool_576.txt	LTP323	ltpFR2	8	7	SWITCH	1422	n/a	n/a	0	0	0
1483.392	n/a	WORD	741696	wordpools/wasnorm_wordpool_576.txt	LTP323	ltpFR2	8	7	CELLAR	267	n/a	n/a	0	0	0
1485.96	n/a	WORD	742980	wordpools/wasnorm_wordpool_576.txt	LTP323	ltpFR2	8	7	LIGHTNING	820	n/a	n/a	0	0	0
1488.644	n/a	WORD	744322	wordpools/wasnorm_wordpool_576.txt	LTP323	ltpFR2	8	7	TABLE	1426	n/a	n/a	0	0	0
1490.264	n/a	START	745132	n/a	LTP323	ltpFR2	8	n/a	n/a	n/a	10	n/a	n/a	n/a	n/a
1491.072	n/a	DISTRACTOR	745536	n/a	LTP323	ltpFR2	8	7	n/a	n/a	n/a	n/a	0	0	0
1491.08	n/a	PROB	745540	n/a	LTP323	ltpFR2	8	n/a	n/a	n/a	10	11	6	3	2
1493.466	n/a	PROB	746733	n/a	LTP323	ltpFR2	8	n/a	n/a	n/a	10	24	9	6	9
1498.97	n/a	PROB	749485	n/a	LTP323	ltpFR2	8	n/a	n/a	n/a	10	15	9	2	4
1501.302	n/a	PROB	750651	n/a	LTP323	ltpFR2	8	n/a	n/a	n/a	10	15	3	3	9
1504.726	n/a	PROB	752363	n/a	LTP323	ltpFR2	8	n/a	n/a	n/a	10	18	2	7	9
1507.178	n/a	PROB	753589	n/a	LTP323	ltpFR2	8	n/a	n/a	n/a	10	20	5	8	7
1509.794	n/a	PROB	754897	n/a	LTP323	ltpFR2	8	n/a	n/a	n/a	10	18	9	4	5
1514.266	n/a	STOP	757133	n/a	LTP323	ltpFR2	8	n/a	n/a	n/a	10	n/a	n/a	n/a	n/a
1516.152	n/a	REC_START	758076	n/a	LTP323	ltpFR2	8	7	n/a	n/a	n/a	n/a	0	0	0
1518.12	n/a	REC_WORD	759060	wordpools/wasnorm_wordpool_576.txt	LTP323	ltpFR2	8	7	TABLE	1426	n/a	n/a	0	0	0
1518.796	n/a	REC_WORD	759398	wordpools/wasnorm_wordpool_576.txt	LTP323	ltpFR2	8	7	CELLAR	267	n/a	n/a	0	0	0
1519.68	n/a	REC_WORD	759840	wordpools/wasnorm_wordpool_576.txt	LTP323	ltpFR2	8	7	LIGHTING	-1	n/a	n/a	0	0	0
1520.36	n/a	REC_WORD	760180	wordpools/wasnorm_wordpool_576.txt	LTP323	ltpFR2	8	7	SWITCH	1422	n/a	n/a	0	0	0
1522.026	n/a	REC_WORD	761013	wordpools/wasnorm_wordpool_576.txt	LTP323	ltpFR2	8	7	COUCH	386	n/a	n/a	0	0	0
1522.662	n/a	REC_WORD	761331	wordpools/wasnorm_wordpool_576.txt	LTP323	ltpFR2	8	7	CHAPEL	280	n/a	n/a	0	0	0
1523.858	n/a	REC_WORD	761929	wordpools/wasnorm_wordpool_576.txt	LTP323	ltpFR2	8	7	TAXI	1438	n/a	n/a	0	0	0
1524.664	n/a	REC_WORD	762332	wordpools/wasnorm_wordpool_576.txt	LTP323	ltpFR2	8	7	DASHBOARD	441	n/a	n/a	0	0	0
1525.682	n/a	REC_WORD	762841	wordpools/wasnorm_wordpool_576.txt	LTP323	ltpFR2	8	7	MATCH	878	n/a	n/a	0	0	0
1527.098	n/a	REC_WORD	763549	wordpools/wasnorm_wordpool_576.txt	LTP323	ltpFR2	8	7	CASHEW	253	n/a	n/a	0	0	0
1531.85	n/a	REC_WORD	765925	wordpools/wasnorm_wordpool_576.txt	LTP323	ltpFR2	8	7	PARTNER	1017	n/a	n/a	0	0	0
1533.166	n/a	REC_WORD	766583	wordpools/wasnorm_wordpool_576.txt	LTP323	ltpFR2	8	7	BROTHER	179	n/a	n/a	0	0	0
1535.7	n/a	REC_WORD_VV	767850	wordpools/wasnorm_wordpool_576.txt	LTP323	ltpFR2	8	7	<>	-1	n/a	n/a	0	0	0
1536.7	n/a	REC_WORD_VV	768350	wordpools/wasnorm_wordpool_576.txt	LTP323	ltpFR2	8	7	<>	-1	n/a	n/a	0	0	0
1539.928	n/a	REC_WORD	769964	wordpools/wasnorm_wordpool_576.txt	LTP323	ltpFR2	8	7	SHELF	1280	n/a	n/a	0	0	0
1540.816	n/a	REC_WORD	770408	wordpools/wasnorm_wordpool_576.txt	LTP323	ltpFR2	8	7	BASEMENT	94	n/a	n/a	0	0	0
1542.364	n/a	REC_WORD	771182	wordpools/wasnorm_wordpool_576.txt	LTP323	ltpFR2	8	7	IGLOO	734	n/a	n/a	0	0	0
1543.358	n/a	REC_WORD	771679	wordpools/wasnorm_wordpool_576.txt	LTP323	ltpFR2	8	7	PEBBLE	1035	n/a	n/a	0	0	0
1544.838	n/a	REC_WORD	772419	wordpools/wasnorm_wordpool_576.txt	LTP323	ltpFR2	8	7	BISON	131	n/a	n/a	0	0	0
1547.96	n/a	REC_WORD	773980	wordpools/wasnorm_wordpool_576.txt	LTP323	ltpFR2	8	7	CREATURE	403	n/a	n/a	0	0	0
1548.82	n/a	REC_WORD	774410	wordpools/wasnorm_wordpool_576.txt	LTP323	ltpFR2	8	7	BEAST	108	n/a	n/a	0	0	0
1552.09	n/a	REC_WORD	776045	wordpools/wasnorm_wordpool_576.txt	LTP323	ltpFR2	8	7	LAVA	804	n/a	n/a	0	0	0
1553.34	n/a	REC_WORD	776670	wordpools/wasnorm_wordpool_576.txt	LTP323	ltpFR2	8	7	MESSAGE	888	n/a	n/a	0	0	0
1554.252	n/a	REC_WORD	777126	wordpools/wasnorm_wordpool_576.txt	LTP323	ltpFR2	8	7	POSTAGE	1113	n/a	n/a	0	0	0
1558.712	n/a	REC_WORD	779356	wordpools/wasnorm_wordpool_576.txt	LTP323	ltpFR2	8	7	TRUCK	1512	n/a	n/a	0	0	0
1559.996	n/a	REC_WORD	779998	wordpools/wasnorm_wordpool_576.txt	LTP323	ltpFR2	8	7	TREAT	1501	n/a	n/a	0	0	0
1561.884	n/a	REC_WORD	780942	wordpools/wasnorm_wordpool_576.txt	LTP323	ltpFR2	8	7	TART	1436	n/a	n/a	0	0	0
1562.792	n/a	REC_WORD	781396	wordpools/wasnorm_wordpool_576.txt	LTP323	ltpFR2	8	7	TROUT	1511	n/a	n/a	0	0	0
1606.588	n/a	DISTRACTOR	803294	n/a	LTP323	ltpFR2	8	8	n/a	n/a	n/a	n/a	0	0	0
1606.59	n/a	START	803295	n/a	LTP323	ltpFR2	8	n/a	n/a	n/a	11	n/a	n/a	n/a	n/a
1606.602	n/a	PROB	803301	n/a	LTP323	ltpFR2	8	n/a	n/a	n/a	11	17	3	9	5
1609.696	n/a	PROB	804848	n/a	LTP323	ltpFR2	8	n/a	n/a	n/a	11	13	3	3	7
1611.85	n/a	PROB	805925	n/a	LTP323	ltpFR2	8	n/a	n/a	n/a	11	17	5	3	9
1614.05	n/a	PROB	807025	n/a	LTP323	ltpFR2	8	n/a	n/a	n/a	11	11	2	8	1
1615.718	n/a	PROB	807859	n/a	LTP323	ltpFR2	8	n/a	n/a	n/a	11	16	2	9	5
1619.306	n/a	PROB	809653	n/a	LTP323	ltpFR2	8	n/a	n/a	n/a	11	12	7	4	1
1621.39	n/a	PROB	810695	n/a	LTP323	ltpFR2	8	n/a	n/a	n/a	11	19	6	8	5
1626.094	n/a	PROB	813047	n/a	LTP323	ltpFR2	8	n/a	n/a	n/a	11	6	3	2	1
1627.88	n/a	PROB	813940	n/a	LTP323	ltpFR2	8	n/a	n/a	n/a	11	8	2	5	1
1629.972	n/a	STOP	814986	n/a	LTP323	ltpFR2	8	n/a	n/a	n/a	11	n/a	n/a	n/a	n/a
1631.658	n/a	WORD	815829	wordpools/wasnorm_wordpool_576.txt	LTP323	ltpFR2	8	8	ATLAS	53	n/a	n/a	0	0	0
1634.444	n/a	WORD	817222	wordpools/wasnorm_wordpool_576.txt	LTP323	ltpFR2	8	8	TERMITE	1451	n/a	n/a	0	0	0
1637.062	n/a	WORD	818531	wordpools/wasnorm_wordpool_576.txt	LTP323	ltpFR2	8	8	TILE	1468	n/a	n/a	0	0	0
1639.842	n/a	WORD	819921	wordpools/wasnorm_wordpool_576.txt	LTP323	ltpFR2	8	8	CURTAIN	427	n/a	n/a	0	0	0
1642.528	n/a	WORD	821264	wordpools/wasnorm_wordpool_576.txt	LTP323	ltpFR2	8	8	ROD	1203	n/a	n/a	0	0	0
1645.148	n/a	WORD	822574	wordpools/wasnorm_wordpool_576.txt	LTP323	ltpFR2	8	8	WOMAN	1620	n/a	n/a	0	0	0
1647.606	n/a	WORD	823803	wordpools/wasnorm_wordpool_576.txt	LTP323	ltpFR2	8	8	PEANUT	1032	n/a	n/a	0	0	0
1650.24	n/a	WORD	825120	wordpools/wasnorm_wordpool_576.txt	LTP323	ltpFR2	8	8	SPACE	1345	n/a	n/a	0	0	0
1652.986	n/a	WORD	826493	wordpools/wasnorm_wordpool_576.txt	LTP323	ltpFR2	8	8	STAR	1373	n/a	n/a	0	0	0
1655.728	n/a	WORD	827864	wordpools/wasnorm_wordpool_576.txt	LTP323	ltpFR2	8	8	DOUGHNUT	490	n/a	n/a	0	0	0
1658.192	n/a	WORD	829096	wordpools/wasnorm_wordpool_576.txt	LTP323	ltpFR2	8	8	PLIERS	1089	n/a	n/a	0	0	0
1660.86	n/a	WORD	830430	wordpools/wasnorm_wordpool_576.txt	LTP323	ltpFR2	8	8	MUMMY	932	n/a	n/a	0	0	0
1663.396	n/a	WORD	831698	wordpools/wasnorm_wordpool_576.txt	LTP323	ltpFR2	8	8	LUMBER	848	n/a	n/a	0	0	0
1665.996	n/a	WORD	832998	wordpools/wasnorm_wordpool_576.txt	LTP323	ltpFR2	8	8	TEMPLE	1448	n/a	n/a	0	0	0
1668.468	n/a	WORD	834234	wordpools/wasnorm_wordpool_576.txt	LTP323	ltpFR2	8	8	CHURCH	307	n/a	n/a	0	0	0
1671.152	n/a	WORD	835576	wordpools/wasnorm_wordpool_576.txt	LTP323	ltpFR2	8	8	TWIG	1527	n/a	n/a	0	0	0
1673.872	n/a	WORD	836936	wordpools/wasnorm_wordpool_576.txt	LTP323	ltpFR2	8	8	BRICK	172	n/a	n/a	0	0	0
1676.608	n/a	WORD	838304	wordpools/wasnorm_wordpool_576.txt	LTP323	ltpFR2	8	8	PUPIL	1143	n/a	n/a	0	0	0
1679.276	n/a	WORD	839638	wordpools/wasnorm_wordpool_576.txt	LTP323	ltpFR2	8	8	KITCHEN	778	n/a	n/a	0	0	0
1681.962	n/a	WORD	840981	wordpools/wasnorm_wordpool_576.txt	LTP323	ltpFR2	8	8	BLENDER	136	n/a	n/a	0	0	0
1684.782	n/a	WORD	842391	wordpools/wasnorm_wordpool_576.txt	LTP323	ltpFR2	8	8	YARN	1631	n/a	n/a	0	0	0
1687.502	n/a	WORD	843751	wordpools/wasnorm_wordpool_576.txt	LTP323	ltpFR2	8	8	STICKER	1382	n/a	n/a	0	0	0
1690.054	n/a	WORD	845027	wordpools/wasnorm_wordpool_576.txt	LTP323	ltpFR2	8	8	MAPLE	866	n/a	n/a	0	0	0
1692.638	n/a	WORD	846319	wordpools/wasnorm_wordpool_576.txt	LTP323	ltpFR2	8	8	PECAN	1036	n/a	n/a	0	0	0
1694.256	n/a	START	847128	n/a	LTP323	ltpFR2	8	n/a	n/a	n/a	12	n/a	n/a	n/a	n/a
1695.086	n/a	DISTRACTOR	847543	n/a	LTP323	ltpFR2	8	8	n/a	n/a	n/a	n/a	0	0	0
1695.092	n/a	PROB	847546	n/a	LTP323	ltpFR2	8	n/a	n/a	n/a	12	19	9	8	2
1697.722	n/a	PROB	848861	n/a	LTP323	ltpFR2	8	n/a	n/a	n/a	12	18	5	5	8
1699.674	n/a	PROB	849837	n/a	LTP323	ltpFR2	8	n/a	n/a	n/a	12	9	2	5	2
1701.576	n/a	PROB	850788	n/a	LTP323	ltpFR2	8	n/a	n/a	n/a	12	10	1	3	6
1703.694	n/a	PROB	851847	n/a	LTP323	ltpFR2	8	n/a	n/a	n/a	12	13	2	6	5
1707.096	n/a	PROB	853548	n/a	LTP323	ltpFR2	8	n/a	n/a	n/a	12	12	1	7	4
1713.07	n/a	PROB	856535	n/a	LTP323	ltpFR2	8	n/a	n/a	n/a	12	18	7	7	4
1715.49	n/a	PROB	857745	n/a	LTP323	ltpFR2	8	n/a	n/a	n/a	12	16	6	2	8
1717.006	n/a	STOP	858503	n/a	LTP323	ltpFR2	8	n/a	n/a	n/a	12	n/a	n/a	n/a	n/a
1720.058	n/a	REC_START	860029	n/a	LTP323	ltpFR2	8	8	n/a	n/a	n/a	n/a	0	0	0
1726.65	n/a	REC_WORD	863325	wordpools/wasnorm_wordpool_576.txt	LTP323	ltpFR2	8	8	YARN	1631	n/a	n/a	0	0	0
1729.134	n/a	REC_WORD	864567	wordpools/wasnorm_wordpool_576.txt	LTP323	ltpFR2	8	8	KITCHEN	778	n/a	n/a	0	0	0
1730.762	n/a	REC_WORD	865381	wordpools/wasnorm_wordpool_576.txt	LTP323	ltpFR2	8	8	BLENDER	136	n/a	n/a	0	0	0
1733.34	n/a	REC_WORD	866670	wordpools/wasnorm_wordpool_576.txt	LTP323	ltpFR2	8	8	MAPLE	866	n/a	n/a	0	0	0
1733.92	n/a	REC_WORD	866960	wordpools/wasnorm_wordpool_576.txt	LTP323	ltpFR2	8	8	PECAN	1036	n/a	n/a	0	0	0
1734.736	n/a	REC_WORD	867368	wordpools/wasnorm_wordpool_576.txt	LTP323	ltpFR2	8	8	PUPIL	1143	n/a	n/a	0	0	0
1736.882	n/a	REC_WORD	868441	wordpools/wasnorm_wordpool_576.txt	LTP323	ltpFR2	8	8	ATLAS	53	n/a	n/a	0	0	0
1737.888	n/a	REC_WORD	868944	wordpools/wasnorm_wordpool_576.txt	LTP323	ltpFR2	8	8	TILE	1468	n/a	n/a	0	0	0
1739.634	n/a	REC_WORD	869817	wordpools/wasnorm_wordpool_576.txt	LTP323	ltpFR2	8	8	TERMITE	1451	n/a	n/a	0	0	0
1741.552	n/a	REC_WORD	870776	wordpools/wasnorm_wordpool_576.txt	LTP323	ltpFR2	8	8	PLIERS	1089	n/a	n/a	0	0	0
1743.73	n/a	REC_WORD	871865	wordpools/wasnorm_wordpool_576.txt	LTP323	ltpFR2	8	8	WOMAN	1620	n/a	n/a	0	0	0
1745.534	n/a	REC_WORD	872767	wordpools/wasnorm_wordpool_576.txt	LTP323	ltpFR2	8	8	PEANUT	1032	n/a	n/a	0	0	0
1746.896	n/a	REC_WORD	873448	wordpools/wasnorm_wordpool_576.txt	LTP323	ltpFR2	8	8	DOUGHNUT	490	n/a	n/a	0	0	0
1748.532	n/a	REC_WORD_VV	874266	wordpools/wasnorm_wordpool_576.txt	LTP323	ltpFR2	8	8	<>	-1	n/a	n/a	0	0	0
1750.924	n/a	REC_WORD	875462	wordpools/wasnorm_wordpool_576.txt	LTP323	ltpFR2	8	8	SPACE	1345	n/a	n/a	0	0	0
1751.906	n/a	REC_WORD	875953	wordpools/wasnorm_wordpool_576.txt	LTP323	ltpFR2	8	8	STAR	1373	n/a	n/a	0	0	0
1756.262	n/a	REC_WORD	878131	wordpools/wasnorm_wordpool_576.txt	LTP323	ltpFR2	8	8	CURTAIN	427	n/a	n/a	0	0	0
1757.356	n/a	REC_WORD	878678	wordpools/wasnorm_wordpool_576.txt	LTP323	ltpFR2	8	8	ROD	1203	n/a	n/a	0	0	0
1758.368	n/a	REC_WORD	879184	wordpools/wasnorm_wordpool_576.txt	LTP323	ltpFR2	8	8	TEMPLE	1448	n/a	n/a	0	0	0
1759.964	n/a	REC_WORD	879982	wordpools/wasnorm_wordpool_576.txt	LTP323	ltpFR2	8	8	CHURCH	307	n/a	n/a	0	0	0
1761.068	n/a	REC_WORD	880534	wordpools/wasnorm_wordpool_576.txt	LTP323	ltpFR2	8	8	CHAPEL	280	n/a	n/a	0	0	0
1768.898	n/a	REC_WORD	884449	wordpools/wasnorm_wordpool_576.txt	LTP323	ltpFR2	8	8	MUMMY	932	n/a	n/a	0	0	0
1770.344	n/a	REC_WORD	885172	wordpools/wasnorm_wordpool_576.txt	LTP323	ltpFR2	8	8	LUMBER	848	n/a	n/a	0	0	0
1773.9	n/a	REC_WORD	886950	wordpools/wasnorm_wordpool_576.txt	LTP323	ltpFR2	8	8	TWIG	1527	n/a	n/a	0	0	0
1775.026	n/a	REC_WORD	887513	wordpools/wasnorm_wordpool_576.txt	LTP323	ltpFR2	8	8	BRICK	172	n/a	n/a	0	0	0
1784.884	n/a	REC_WORD	892442	wordpools/wasnorm_wordpool_576.txt	LTP323	ltpFR2	8	8	PILE	-1	n/a	n/a	0	0	0
1796.606	n/a	REST_REWET	898303	n/a	LTP323	ltpFR2	8	8	n/a	n/a	n/a	n/a	0	0	0
2107.278	n/a	WORD	1053639	wordpools/wasnorm_wordpool_576.txt	LTP323	ltpFR2	8	9	KIDNEY	776	n/a	n/a	0	0	0
2110.02	n/a	WORD	1055010	wordpools/wasnorm_wordpool_576.txt	LTP323	ltpFR2	8	9	BACKBONE	66	n/a	n/a	0	0	0
2112.832	n/a	WORD	1056416	wordpools/wasnorm_wordpool_576.txt	LTP323	ltpFR2	8	9	BUCKET	184	n/a	n/a	0	0	0
2115.268	n/a	WORD	1057634	wordpools/wasnorm_wordpool_576.txt	LTP323	ltpFR2	8	9	STUDENT	1395	n/a	n/a	0	0	0
2117.988	n/a	WORD	1058994	wordpools/wasnorm_wordpool_576.txt	LTP323	ltpFR2	8	9	COUNTRY	388	n/a	n/a	0	0	0
2120.63	n/a	WORD	1060315	wordpools/wasnorm_wordpool_576.txt	LTP323	ltpFR2	8	9	CROSS	413	n/a	n/a	0	0	0
2123.126	n/a	WORD	1061563	wordpools/wasnorm_wordpool_576.txt	LTP323	ltpFR2	8	9	SCULPTURE	1258	n/a	n/a	0	0	0
2125.934	n/a	WORD	1062967	wordpools/wasnorm_wordpool_576.txt	LTP323	ltpFR2	8	9	QUAIL	1147	n/a	n/a	0	0	0
2128.52	n/a	WORD	1064260	wordpools/wasnorm_wordpool_576.txt	LTP323	ltpFR2	8	9	PLAYGROUND	1087	n/a	n/a	0	0	0
2130.966	n/a	WORD	1065483	wordpools/wasnorm_wordpool_576.txt	LTP323	ltpFR2	8	9	NAPKIN	937	n/a	n/a	0	0	0
2133.584	n/a	WORD	1066792	wordpools/wasnorm_wordpool_576.txt	LTP323	ltpFR2	8	9	STALLION	1369	n/a	n/a	0	0	0
2136.068	n/a	WORD	1068034	wordpools/wasnorm_wordpool_576.txt	LTP323	ltpFR2	8	9	LONDON	843	n/a	n/a	0	0	0
2138.838	n/a	WORD	1069419	wordpools/wasnorm_wordpool_576.txt	LTP323	ltpFR2	8	9	ASIA	46	n/a	n/a	0	0	0
2141.396	n/a	WORD	1070698	wordpools/wasnorm_wordpool_576.txt	LTP323	ltpFR2	8	9	PORTRAIT	1111	n/a	n/a	0	0	0
2144.01	n/a	WORD	1072005	wordpools/wasnorm_wordpool_576.txt	LTP323	ltpFR2	8	9	TRACTOR	1493	n/a	n/a	0	0	0
2146.678	n/a	WORD	1073339	wordpools/wasnorm_wordpool_576.txt	LTP323	ltpFR2	8	9	SNAIL	1332	n/a	n/a	0	0	0
2149.302	n/a	WORD	1074651	wordpools/wasnorm_wordpool_576.txt	LTP323	ltpFR2	8	9	VALLEY	1545	n/a	n/a	0	0	0
2151.75	n/a	WORD	1075875	wordpools/wasnorm_wordpool_576.txt	LTP323	ltpFR2	8	9	CLIMBER	323	n/a	n/a	0	0	0
2154.536	n/a	WORD	1077268	wordpools/wasnorm_wordpool_576.txt	LTP323	ltpFR2	8	9	RECORD	1176	n/a	n/a	0	0	0
2157.088	n/a	WORD	1078544	wordpools/wasnorm_wordpool_576.txt	LTP323	ltpFR2	8	9	FREEZER	604	n/a	n/a	0	0	0
2159.64	n/a	WORD	1079820	wordpools/wasnorm_wordpool_576.txt	LTP323	ltpFR2	8	9	COBRA	336	n/a	n/a	0	0	0
2162.18	n/a	WORD	1081090	wordpools/wasnorm_wordpool_576.txt	LTP323	ltpFR2	8	9	DRAWING	494	n/a	n/a	0	0	0
2164.646	n/a	WORD	1082323	wordpools/wasnorm_wordpool_576.txt	LTP323	ltpFR2	8	9	MARSH	874	n/a	n/a	0	0	0
2167.38	n/a	WORD	1083690	wordpools/wasnorm_wordpool_576.txt	LTP323	ltpFR2	8	9	REPORT	1184	n/a	n/a	0	0	0
2169.0	n/a	START	1084500	n/a	LTP323	ltpFR2	8	n/a	n/a	n/a	13	n/a	n/a	n/a	n/a
2169.84	n/a	DISTRACTOR	1084920	n/a	LTP323	ltpFR2	8	9	n/a	n/a	n/a	n/a	0	0	0
2169.85	n/a	PROB	1084925	n/a	LTP323	ltpFR2	8	n/a	n/a	n/a	13	16	2	9	5
2172.564	n/a	PROB	1086282	n/a	LTP323	ltpFR2	8	n/a	n/a	n/a	13	13	2	6	4
2174.35	n/a	PROB	1087175	n/a	LTP323	ltpFR2	8	n/a	n/a	n/a	13	17	8	3	6
2178.504	n/a	PROB	1089252	n/a	LTP323	ltpFR2	8	n/a	n/a	n/a	13	17	2	9	6
2180.988	n/a	PROB	1090494	n/a	LTP323	ltpFR2	8	n/a	n/a	n/a	13	7	1	5	1
2182.674	n/a	PROB	1091337	n/a	LTP323	ltpFR2	8	n/a	n/a	n/a	13	12	3	2	7
2184.808	n/a	PROB	1092404	n/a	LTP323	ltpFR2	8	n/a	n/a	n/a	13	12	2	1	9
2187.394	n/a	PROB	1093697	n/a	LTP323	ltpFR2	8	n/a	n/a	n/a	13	11	2	8	1
2189.28	n/a	PROB	1094640	n/a	LTP323	ltpFR2	8	n/a	n/a	n/a	13	13	9	2	2
2191.644	n/a	STOP	1095822	n/a	LTP323	ltpFR2	8	n/a	n/a	n/a	13	n/a	n/a	n/a	n/a
2194.838	n/a	REC_START	1097419	n/a	LTP323	ltpFR2	8	9	n/a	n/a	n/a	n/a	0	0	0
2195.554	n/a	REC_WORD	1097777	wordpools/wasnorm_wordpool_576.txt	LTP323	ltpFR2	8	9	STALLION	1369	n/a	n/a	0	0	0
2196.554	n/a	REC_WORD_VV	1098277	wordpools/wasnorm_wordpool_576.txt	LTP323	ltpFR2	8	9	<>	-1	n/a	n/a	0	0	0
2196.864	n/a	REC_WORD	1098432	wordpools/wasnorm_wordpool_576.txt	LTP323	ltpFR2	8	9	MARSH	874	n/a	n/a	0	0	0
2197.78	n/a	REC_WORD	1098890	wordpools/wasnorm_wordpool_576.txt	LTP323	ltpFR2	8	9	VALLEY	1545	n/a	n/a	0	0	0
2198.486	n/a	REC_WORD	1099243	wordpools/wasnorm_wordpool_576.txt	LTP323	ltpFR2	8	9	CLIMBER	323	n/a	n/a	0	0	0
2199.324	n/a	REC_WORD	1099662	wordpools/wasnorm_wordpool_576.txt	LTP323	ltpFR2	8	9	SNAIL	1332	n/a	n/a	0	0	0
2202.094	n/a	REC_WORD	1101047	wordpools/wasnorm_wordpool_576.txt	LTP323	ltpFR2	8	9	PORTRAIT	1111	n/a	n/a	0	0	0
2203.094	n/a	REC_WORD_VV	1101547	wordpools/wasnorm_wordpool_576.txt	LTP323	ltpFR2	8	9	<>	-1	n/a	n/a	0	0	0
2203.74	n/a	REC_WORD	1101870	wordpools/wasnorm_wordpool_576.txt	LTP323	ltpFR2	8	9	TRACTOR	1493	n/a	n/a	0	0	0
2205.132	n/a	REC_WORD	1102566	wordpools/wasnorm_wordpool_576.txt	LTP323	ltpFR2	8	9	PLAYGROUND	1087	n/a	n/a	0	0	0
2206.152	n/a	REC_WORD	1103076	wordpools/wasnorm_wordpool_576.txt	LTP323	ltpFR2	8	9	NAPKIN	937	n/a	n/a	0	0	0
2210.688	n/a	REC_WORD	1105344	wordpools/wasnorm_wordpool_576.txt	LTP323	ltpFR2	8	9	SNAIL	1332	n/a	n/a	0	0	0
2212.012	n/a	REC_WORD	1106006	wordpools/wasnorm_wordpool_576.txt	LTP323	ltpFR2	8	9	CLIMBER	323	n/a	n/a	0	0	0
2215.246	n/a	REC_WORD	1107623	wordpools/wasnorm_wordpool_576.txt	LTP323	ltpFR2	8	9	VALLEY	1545	n/a	n/a	0	0	0
2217.922	n/a	REC_WORD	1108961	wordpools/wasnorm_wordpool_576.txt	LTP323	ltpFR2	8	9	MARSH	874	n/a	n/a	0	0	0
2222.186	n/a	REC_WORD	1111093	wordpools/wasnorm_wordpool_576.txt	LTP323	ltpFR2	8	9	DRAWING	494	n/a	n/a	0	0	0
2224.68	n/a	REC_WORD	1112340	wordpools/wasnorm_wordpool_576.txt	LTP323	ltpFR2	8	9	STUDENT	1395	n/a	n/a	0	0	0
2225.71	n/a	REC_WORD	1112855	wordpools/wasnorm_wordpool_576.txt	LTP323	ltpFR2	8	9	COUNTRY	388	n/a	n/a	0	0	0
2227.13	n/a	REC_WORD	1113565	wordpools/wasnorm_wordpool_576.txt	LTP323	ltpFR2	8	9	BACKBONE	66	n/a	n/a	0	0	0
2228.03	n/a	REC_WORD	1114015	wordpools/wasnorm_wordpool_576.txt	LTP323	ltpFR2	8	9	KIDNEY	776	n/a	n/a	0	0	0
2229.682	n/a	REC_WORD	1114841	wordpools/wasnorm_wordpool_576.txt	LTP323	ltpFR2	8	9	QUAIL	1147	n/a	n/a	0	0	0
2230.954	n/a	REC_WORD	1115477	wordpools/wasnorm_wordpool_576.txt	LTP323	ltpFR2	8	9	CROSS	413	n/a	n/a	0	0	0
2232.008	n/a	REC_WORD	1116004	wordpools/wasnorm_wordpool_576.txt	LTP323	ltpFR2	8	9	SCULPTURE	1258	n/a	n/a	0	0	0
2234.136	n/a	REC_WORD	1117068	wordpools/wasnorm_wordpool_576.txt	LTP323	ltpFR2	8	9	BUCKET	184	n/a	n/a	0	0	0
2249.114	n/a	REC_WORD	1124557	wordpools/wasnorm_wordpool_576.txt	LTP323	ltpFR2	8	9	ASIA	46	n/a	n/a	0	0	0
2250.162	n/a	REC_WORD	1125081	wordpools/wasnorm_wordpool_576.txt	LTP323	ltpFR2	8	9	LONDON	843	n/a	n/a	0	0	0
2285.306	n/a	WORD	1142653	wordpools/wasnorm_wordpool_576.txt	LTP323	ltpFR2	8	10	STONE	1385	n/a	n/a	0	0	0
2287.846	n/a	WORD	1143923	wordpools/wasnorm_wordpool_576.txt	LTP323	ltpFR2	8	10	SUMMIT	1405	n/a	n/a	0	0	0
2290.598	n/a	WORD	1145299	wordpools/wasnorm_wordpool_576.txt	LTP323	ltpFR2	8	10	GALLON	618	n/a	n/a	0	0	0
2293.206	n/a	WORD	1146603	wordpools/wasnorm_wordpool_576.txt	LTP323	ltpFR2	8	10	DAUGHTER	442	n/a	n/a	0	0	0
2295.858	n/a	WORD	1147929	wordpools/wasnorm_wordpool_576.txt	LTP323	ltpFR2	8	10	CRIB	407	n/a	n/a	0	0	0
2298.376	n/a	WORD	1149188	wordpools/wasnorm_wordpool_576.txt	LTP323	ltpFR2	8	10	REBEL	1172	n/a	n/a	0	0	0
2301.038	n/a	WORD	1150519	wordpools/wasnorm_wordpool_576.txt	LTP323	ltpFR2	8	10	SPONGE	1355	n/a	n/a	0	0	0
2303.798	n/a	WORD	1151899	wordpools/wasnorm_wordpool_576.txt	LTP323	ltpFR2	8	10	LADDER	793	n/a	n/a	0	0	0
2306.266	n/a	WORD	1153133	wordpools/wasnorm_wordpool_576.txt	LTP323	ltpFR2	8	10	MILK	895	n/a	n/a	0	0	0
2309.044	n/a	WORD	1154522	wordpools/wasnorm_wordpool_576.txt	LTP323	ltpFR2	8	10	TURTLE	1522	n/a	n/a	0	0	0
2311.854	n/a	WORD	1155927	wordpools/wasnorm_wordpool_576.txt	LTP323	ltpFR2	8	10	WASHER	1592	n/a	n/a	0	0	0
2314.522	n/a	WORD	1157261	wordpools/wasnorm_wordpool_576.txt	LTP323	ltpFR2	8	10	ROOSTER	1209	n/a	n/a	0	0	0
2317.258	n/a	WORD	1158629	wordpools/wasnorm_wordpool_576.txt	LTP323	ltpFR2	8	10	LAGOON	795	n/a	n/a	0	0	0
2319.928	n/a	WORD	1159964	wordpools/wasnorm_wordpool_576.txt	LTP323	ltpFR2	8	10	PRINCE	1124	n/a	n/a	0	0	0
2322.356	n/a	WORD	1161178	wordpools/wasnorm_wordpool_576.txt	LTP323	ltpFR2	8	10	CASKET	255	n/a	n/a	0	0	0
2324.958	n/a	WORD	1162479	wordpools/wasnorm_wordpool_576.txt	LTP323	ltpFR2	8	10	TURNIP	1521	n/a	n/a	0	0	0
2327.494	n/a	WORD	1163747	wordpools/wasnorm_wordpool_576.txt	LTP323	ltpFR2	8	10	SLOPE	1328	n/a	n/a	0	0	0
2330.054	n/a	WORD	1165027	wordpools/wasnorm_wordpool_576.txt	LTP323	ltpFR2	8	10	PASTRY	1022	n/a	n/a	0	0	0
2332.806	n/a	WORD	1166403	wordpools/wasnorm_wordpool_576.txt	LTP323	ltpFR2	8	10	BUTCHER	203	n/a	n/a	0	0	0
2335.542	n/a	WORD	1167771	wordpools/wasnorm_wordpool_576.txt	LTP323	ltpFR2	8	10	DRESS	495	n/a	n/a	0	0	0
2338.276	n/a	WORD	1169138	wordpools/wasnorm_wordpool_576.txt	LTP323	ltpFR2	8	10	PLAID	1080	n/a	n/a	0	0	0
2340.912	n/a	WORD	1170456	wordpools/wasnorm_wordpool_576.txt	LTP323	ltpFR2	8	10	RUST	1219	n/a	n/a	0	0	0
2343.698	n/a	WORD	1171849	wordpools/wasnorm_wordpool_576.txt	LTP323	ltpFR2	8	10	SAUSAGE	1238	n/a	n/a	0	0	0
2346.424	n/a	WORD	1173212	wordpools/wasnorm_wordpool_576.txt	LTP323	ltpFR2	8	10	DINER	467	n/a	n/a	0	0	0
2348.036	n/a	START	1174018	n/a	LTP323	ltpFR2	8	n/a	n/a	n/a	14	n/a	n/a	n/a	n/a
2349.158	n/a	DISTRACTOR	1174579	n/a	LTP323	ltpFR2	8	10	n/a	n/a	n/a	n/a	0	0	0
2349.17	n/a	PROB	1174585	n/a	LTP323	ltpFR2	8	n/a	n/a	n/a	14	20	8	6	6
2352.156	n/a	PROB	1176078	n/a	LTP323	ltpFR2	8	n/a	n/a	n/a	14	11	1	2	8
2353.686	n/a	PROB	1176843	n/a	LTP323	ltpFR2	8	n/a	n/a	n/a	14	13	2	7	4
2356.008	n/a	PROB	1178004	n/a	LTP323	ltpFR2	8	n/a	n/a	n/a	14	21	8	5	8
2360.31	n/a	PROB	1180155	n/a	LTP323	ltpFR2	8	n/a	n/a	n/a	14	16	7	8	1
2362.112	n/a	PROB	1181056	n/a	LTP323	ltpFR2	8	n/a	n/a	n/a	14	12	6	1	5
2364.096	n/a	PROB	1182048	n/a	LTP323	ltpFR2	8	n/a	n/a	n/a	14	12	7	2	3
2365.598	n/a	PROB	1182799	n/a	LTP323	ltpFR2	8	n/a	n/a	n/a	14	11	1	9	1
2367.116	n/a	PROB	1183558	n/a	LTP323	ltpFR2	8	n/a	n/a	n/a	14	12	4	5	3
2369.518	n/a	PROB	1184759	n/a	LTP323	ltpFR2	8	n/a	n/a	n/a	14	15	5	5	5
2370.994	n/a	STOP	1185497	n/a	LTP323	ltpFR2	8	n/a	n/a	n/a	14	n/a	n/a	n/a	n/a
2373.838	n/a	REC_START	1186919	n/a	LTP323	ltpFR2	8	10	n/a	n/a	n/a	n/a	0	0	0
2378.13	n/a	REC_WORD	1189065	wordpools/wasnorm_wordpool_576.txt	LTP323	ltpFR2	8	10	STONE	1385	n/a	n/a	0	0	0
2379.15	n/a	REC_WORD	1189575	wordpools/wasnorm_wordpool_576.txt	LTP323	ltpFR2	8	10	SUMMIT	1405	n/a	n/a	0	0	0
2380.294	n/a	REC_WORD	1190147	wordpools/wasnorm_wordpool_576.txt	LTP323	ltpFR2	8	10	GALLON	618	n/a	n/a	0	0	0
2381.304	n/a	REC_WORD	1190652	wordpools/wasnorm_wordpool_576.txt	LTP323	ltpFR2	8	10	DAUGHTER	442	n/a	n/a	0	0	0
2383.296	n/a	REC_WORD	1191648	wordpools/wasnorm_wordpool_576.txt	LTP323	ltpFR2	8	10	CRIB	407	n/a	n/a	0	0	0
2385.182	n/a	REC_WORD	1192591	wordpools/wasnorm_wordpool_576.txt	LTP323	ltpFR2	8	10	REBEL	1172	n/a	n/a	0	0	0
2390.552	n/a	REC_WORD	1195276	wordpools/wasnorm_wordpool_576.txt	LTP323	ltpFR2	8	10	SPONGE	1355	n/a	n/a	0	0	0
2391.23	n/a	REC_WORD	1195615	wordpools/wasnorm_wordpool_576.txt	LTP323	ltpFR2	8	10	LADDER	793	n/a	n/a	0	0	0
2392.264	n/a	REC_WORD	1196132	wordpools/wasnorm_wordpool_576.txt	LTP323	ltpFR2	8	10	TURTLE	1522	n/a	n/a	0	0	0
2393.248	n/a	REC_WORD	1196624	wordpools/wasnorm_wordpool_576.txt	LTP323	ltpFR2	8	10	ROOSTER	1209	n/a	n/a	0	0	0
2394.812	n/a	REC_WORD	1197406	wordpools/wasnorm_wordpool_576.txt	LTP323	ltpFR2	8	10	MILK	895	n/a	n/a	0	0	0
2396.794	n/a	REC_WORD	1198397	wordpools/wasnorm_wordpool_576.txt	LTP323	ltpFR2	8	10	WASHER	1592	n/a	n/a	0	0	0
2399.824	n/a	REC_WORD	1199912	wordpools/wasnorm_wordpool_576.txt	LTP323	ltpFR2	8	10	PLAID	1080	n/a	n/a	0	0	0
2400.822	n/a	REC_WORD	1200411	wordpools/wasnorm_wordpool_576.txt	LTP323	ltpFR2	8	10	DRESS	495	n/a	n/a	0	0	0
2401.748	n/a	REC_WORD	1200874	wordpools/wasnorm_wordpool_576.txt	LTP323	ltpFR2	8	10	SAUSAGE	1238	n/a	n/a	0	0	0
2402.748	n/a	REC_WORD_VV	1201374	wordpools/wasnorm_wordpool_576.txt	LTP323	ltpFR2	8	10	<>	-1	n/a	n/a	0	0	0
2403.484	n/a	REC_WORD	1201742	wordpools/wasnorm_wordpool_576.txt	LTP323	ltpFR2	8	10	DINER	467	n/a	n/a	0	0	0
2404.932	n/a	REC_WORD	1202466	wordpools/wasnorm_wordpool_576.txt	LTP323	ltpFR2	8	10	RUST	1219	n/a	n/a	0	0	0
2408.332	n/a	REC_WORD	1204166	wordpools/wasnorm_wordpool_576.txt	LTP323	ltpFR2	8	10	SPONGE	1355	n/a	n/a	0	0	0
2419.708	n/a	REC_WORD	1209854	wordpools/wasnorm_wordpool_576.txt	LTP323	ltpFR2	8	10	PRINCE	1124	n/a	n/a	0	0	0
2464.302	n/a	DISTRACTOR	1232151	n/a	LTP323	ltpFR2	8	11	n/a	n/a	n/a	n/a	0	0	0
2464.302	n/a	START	1232151	n/a	LTP323	ltpFR2	8	n/a	n/a	n/a	15	n/a	n/a	n/a	n/a
2464.316	n/a	PROB	1232158	n/a	LTP323	ltpFR2	8	n/a	n/a	n/a	15	20	3	8	9
2466.704	n/a	PROB	1233352	n/a	LTP323	ltpFR2	8	n/a	n/a	n/a	15	17	9	7	1
2469.504	n/a	PROB	1234752	n/a	LTP323	ltpFR2	8	n/a	n/a	n/a	15	20	7	5	8
2471.488	n/a	PROB	1235744	n/a	LTP323	ltpFR2	8	n/a	n/a	n/a	15	14	3	5	6
2473.69	n/a	PROB	1236845	n/a	LTP323	ltpFR2	8	n/a	n/a	n/a	15	11	5	3	3
2475.444	n/a	PROB	1237722	n/a	LTP323	ltpFR2	8	n/a	n/a	n/a	15	17	4	9	4
2477.614	n/a	PROB	1238807	n/a	LTP323	ltpFR2	8	n/a	n/a	n/a	15	15	7	3	5
2479.292	n/a	PROB	1239646	n/a	LTP323	ltpFR2	8	n/a	n/a	n/a	15	4	1	2	1
2481.15	n/a	PROB	1240575	n/a	LTP323	ltpFR2	8	n/a	n/a	n/a	15	12	3	1	8
2483.078	n/a	PROB	1241539	n/a	LTP323	ltpFR2	8	n/a	n/a	n/a	15	18	8	1	9
2488.302	n/a	STOP	1244151	n/a	LTP323	ltpFR2	8	n/a	n/a	n/a	15	n/a	n/a	n/a	n/a
2489.422	n/a	WORD	1244711	wordpools/wasnorm_wordpool_576.txt	LTP323	ltpFR2	8	11	RAZOR	1171	n/a	n/a	0	0	0
2492.11	n/a	WORD	1246055	wordpools/wasnorm_wordpool_576.txt	LTP323	ltpFR2	8	11	LOVER	846	n/a	n/a	0	0	0
2494.842	n/a	WORD	1247421	wordpools/wasnorm_wordpool_576.txt	LTP323	ltpFR2	8	11	WIDOW	1608	n/a	n/a	0	0	0
2497.494	n/a	WORD	1248747	wordpools/wasnorm_wordpool_576.txt	LTP323	ltpFR2	8	11	GRAVE	658	n/a	n/a	0	0	0
2500.28	n/a	WORD	1250140	wordpools/wasnorm_wordpool_576.txt	LTP323	ltpFR2	8	11	JUNGLE	764	n/a	n/a	0	0	0
2502.736	n/a	WORD	1251368	wordpools/wasnorm_wordpool_576.txt	LTP323	ltpFR2	8	11	ELBOW	520	n/a	n/a	0	0	0
2505.434	n/a	WORD	1252717	wordpools/wasnorm_wordpool_576.txt	LTP323	ltpFR2	8	11	TURKEY	1520	n/a	n/a	0	0	0
2508.068	n/a	WORD	1254034	wordpools/wasnorm_wordpool_576.txt	LTP323	ltpFR2	8	11	POET	1095	n/a	n/a	0	0	0
2510.738	n/a	WORD	1255369	wordpools/wasnorm_wordpool_576.txt	LTP323	ltpFR2	8	11	OZONE	996	n/a	n/a	0	0	0
2513.206	n/a	WORD	1256603	wordpools/wasnorm_wordpool_576.txt	LTP323	ltpFR2	8	11	KNAPSACK	783	n/a	n/a	0	0	0
2515.68	n/a	WORD	1257840	wordpools/wasnorm_wordpool_576.txt	LTP323	ltpFR2	8	11	JEANS	752	n/a	n/a	0	0	0
2518.31	n/a	WORD	1259155	wordpools/wasnorm_wordpool_576.txt	LTP323	ltpFR2	8	11	CREVICE	405	n/a	n/a	0	0	0
2520.846	n/a	WORD	1260423	wordpools/wasnorm_wordpool_576.txt	LTP323	ltpFR2	8	11	ICEBERG	731	n/a	n/a	0	0	0
2523.304	n/a	WORD	1261652	wordpools/wasnorm_wordpool_576.txt	LTP323	ltpFR2	8	11	SHORTS	1293	n/a	n/a	0	0	0
2525.972	n/a	WORD	1262986	wordpools/wasnorm_wordpool_576.txt	LTP323	ltpFR2	8	11	HAMPER	682	n/a	n/a	0	0	0
2528.636	n/a	WORD	1264318	wordpools/wasnorm_wordpool_576.txt	LTP323	ltpFR2	8	11	WARDROBE	1587	n/a	n/a	0	0	0
2531.376	n/a	WORD	1265688	wordpools/wasnorm_wordpool_576.txt	LTP323	ltpFR2	8	11	LUNCH	849	n/a	n/a	0	0	0
2534.19	n/a	WORD	1267095	wordpools/wasnorm_wordpool_576.txt	LTP323	ltpFR2	8	11	TABLET	1427	n/a	n/a	0	0	0
2536.782	n/a	WORD	1268391	wordpools/wasnorm_wordpool_576.txt	LTP323	ltpFR2	8	11	SUITCASE	1403	n/a	n/a	0	0	0
2539.276	n/a	WORD	1269638	wordpools/wasnorm_wordpool_576.txt	LTP323	ltpFR2	8	11	DRIVER	499	n/a	n/a	0	0	0
2541.868	n/a	WORD	1270934	wordpools/wasnorm_wordpool_576.txt	LTP323	ltpFR2	8	11	SIDEWALK	1303	n/a	n/a	0	0	0
2544.654	n/a	WORD	1272327	wordpools/wasnorm_wordpool_576.txt	LTP323	ltpFR2	8	11	COURSE	390	n/a	n/a	0	0	0
2547.474	n/a	WORD	1273737	wordpools/wasnorm_wordpool_576.txt	LTP323	ltpFR2	8	11	COIN	343	n/a	n/a	0	0	0
2549.976	n/a	WORD	1274988	wordpools/wasnorm_wordpool_576.txt	LTP323	ltpFR2	8	11	DENIM	446	n/a	n/a	0	0	0
2551.588	n/a	START	1275794	n/a	LTP323	ltpFR2	8	n/a	n/a	n/a	16	n/a	n/a	n/a	n/a
2552.758	n/a	DISTRACTOR	1276379	n/a	LTP323	ltpFR2	8	11	n/a	n/a	n/a	n/a	0	0	0
2552.77	n/a	PROB	1276385	n/a	LTP323	ltpFR2	8	n/a	n/a	n/a	16	18	5	7	6
2557.314	n/a	PROB	1278657	n/a	LTP323	ltpFR2	8	n/a	n/a	n/a	16	12	3	7	2
2559.132	n/a	PROB	1279566	n/a	LTP323	ltpFR2	8	n/a	n/a	n/a	16	22	9	5	8
2563.318	n/a	PROB	1281659	n/a	LTP323	ltpFR2	8	n/a	n/a	n/a	16	15	9	5	1
2565.438	n/a	PROB	1282719	n/a	LTP323	ltpFR2	8	n/a	n/a	n/a	16	18	9	8	1
2567.788	n/a	PROB	1283894	n/a	LTP323	ltpFR2	8	n/a	n/a	n/a	16	17	4	8	5
2571.592	n/a	PROB	1285796	n/a	LTP323	ltpFR2	8	n/a	n/a	n/a	16	13	6	5	2
2574.28	n/a	STOP	1287140	n/a	LTP323	ltpFR2	8	n/a	n/a	n/a	16	n/a	n/a	n/a	n/a
2577.398	n/a	REC_START	1288699	n/a	LTP323	ltpFR2	8	11	n/a	n/a	n/a	n/a	0	0	0
2578.63	n/a	REC_WORD_VV	1289315	wordpools/wasnorm_wordpool_576.txt	LTP323	ltpFR2	8	11	<>	-1	n/a	n/a	0	0	0
2581.946	n/a	REC_WORD	1290973	wordpools/wasnorm_wordpool_576.txt	LTP323	ltpFR2	8	11	JUNGLE	764	n/a	n/a	0	0	0
2582.714	n/a	REC_WORD	1291357	wordpools/wasnorm_wordpool_576.txt	LTP323	ltpFR2	8	11	TURKEY	1520	n/a	n/a	0	0	0
2583.714	n/a	REC_WORD_VV	1291857	wordpools/wasnorm_wordpool_576.txt	LTP323	ltpFR2	8	11	<>	-1	n/a	n/a	0	0	0
2583.896	n/a	REC_WORD	1291948	wordpools/wasnorm_wordpool_576.txt	LTP323	ltpFR2	8	11	ELBOW	520	n/a	n/a	0	0	0
2585.716	n/a	REC_WORD	1292858	wordpools/wasnorm_wordpool_576.txt	LTP323	ltpFR2	8	11	SIDEWALK	1303	n/a	n/a	0	0	0
2586.716	n/a	REC_WORD_VV	1293358	wordpools/wasnorm_wordpool_576.txt	LTP323	ltpFR2	8	11	<>	-1	n/a	n/a	0	0	0
2587.72	n/a	REC_WORD	1293860	wordpools/wasnorm_wordpool_576.txt	LTP323	ltpFR2	8	11	PATH	1023	n/a	n/a	0	0	0
2588.552	n/a	REC_WORD	1294276	wordpools/wasnorm_wordpool_576.txt	LTP323	ltpFR2	8	11	COURSE	390	n/a	n/a	0	0	0
2590.98	n/a	REC_WORD	1295490	wordpools/wasnorm_wordpool_576.txt	LTP323	ltpFR2	8	11	LUNCH	849	n/a	n/a	0	0	0
2591.996	n/a	REC_WORD	1295998	wordpools/wasnorm_wordpool_576.txt	LTP323	ltpFR2	8	11	TABLET	1427	n/a	n/a	0	0	0
2593.324	n/a	REC_WORD	1296662	wordpools/wasnorm_wordpool_576.txt	LTP323	ltpFR2	8	11	KNAPSACK	783	n/a	n/a	0	0	0
2594.324	n/a	REC_WORD_VV	1297162	wordpools/wasnorm_wordpool_576.txt	LTP323	ltpFR2	8	11	<>	-1	n/a	n/a	0	0	0
2595.458	n/a	REC_WORD	1297729	wordpools/wasnorm_wordpool_576.txt	LTP323	ltpFR2	8	11	DENIM	446	n/a	n/a	0	0	0
2596.542	n/a	REC_WORD	1298271	wordpools/wasnorm_wordpool_576.txt	LTP323	ltpFR2	8	11	JEANS	752	n/a	n/a	0	0	0
2597.66	n/a	REC_WORD	1298830	wordpools/wasnorm_wordpool_576.txt	LTP323	ltpFR2	8	11	SHORTS	1293	n/a	n/a	0	0	0
2602.11	n/a	REC_WORD	1301055	wordpools/wasnorm_wordpool_576.txt	LTP323	ltpFR2	8	11	DRIVER	499	n/a	n/a	0	0	0
2603.264	n/a	REC_WORD	1301632	wordpools/wasnorm_wordpool_576.txt	LTP323	ltpFR2	8	11	SUITCASE	1403	n/a	n/a	0	0	0
2604.296	n/a	REC_WORD	1302148	wordpools/wasnorm_wordpool_576.txt	LTP323	ltpFR2	8	11	WARDROBE	1587	n/a	n/a	0	0	0
2609.518	n/a	REC_WORD	1304759	wordpools/wasnorm_wordpool_576.txt	LTP323	ltpFR2	8	11	COIN	343	n/a	n/a	0	0	0
2611.344	n/a	REC_WORD_VV	1305672	wordpools/wasnorm_wordpool_576.txt	LTP323	ltpFR2	8	11	<>	-1	n/a	n/a	0	0	0
2613.416	n/a	REC_WORD	1306708	wordpools/wasnorm_wordpool_576.txt	LTP323	ltpFR2	8	11	RAZOR	1171	n/a	n/a	0	0	0
2614.022	n/a	REC_WORD	1307011	wordpools/wasnorm_wordpool_576.txt	LTP323	ltpFR2	8	11	LOVER	846	n/a	n/a	0	0	0
2615.072	n/a	REC_WORD	1307536	wordpools/wasnorm_wordpool_576.txt	LTP323	ltpFR2	8	11	WIDOW	1608	n/a	n/a	0	0	0
2618.864	n/a	REC_WORD	1309432	wordpools/wasnorm_wordpool_576.txt	LTP323	ltpFR2	8	11	GRAVE	658	n/a	n/a	0	0	0
2624.146	n/a	REC_WORD	1312073	wordpools/wasnorm_wordpool_576.txt	LTP323	ltpFR2	8	11	JUNGLE	764	n/a	n/a	0	0	0
2626.638	n/a	REC_WORD	1313319	wordpools/wasnorm_wordpool_576.txt	LTP323	ltpFR2	8	11	TURKEY	1520	n/a	n/a	0	0	0
2628.008	n/a	REC_WORD	1314004	wordpools/wasnorm_wordpool_576.txt	LTP323	ltpFR2	8	11	ELBOW	520	n/a	n/a	0	0	0
2633.586	n/a	REC_WORD	1316793	wordpools/wasnorm_wordpool_576.txt	LTP323	ltpFR2	8	11	POET	1095	n/a	n/a	0	0	0
2636.296	n/a	REC_WORD	1318148	wordpools/wasnorm_wordpool_576.txt	LTP323	ltpFR2	8	11	OZONE	996	n/a	n/a	0	0	0
2667.86	n/a	WORD	1333930	wordpools/wasnorm_wordpool_576.txt	LTP323	ltpFR2	8	12	MUSTARD	935	n/a	n/a	0	0	0
2670.364	n/a	WORD	1335182	wordpools/wasnorm_wordpool_576.txt	LTP323	ltpFR2	8	12	RELISH	1183	n/a	n/a	0	0	0
2673.116	n/a	WORD	1336558	wordpools/wasnorm_wordpool_576.txt	LTP323	ltpFR2	8	12	BLOCKADE	137	n/a	n/a	0	0	0
2675.668	n/a	WORD	1337834	wordpools/wasnorm_wordpool_576.txt	LTP323	ltpFR2	8	12	GLOBE	641	n/a	n/a	0	0	0
2678.488	n/a	WORD	1339244	wordpools/wasnorm_wordpool_576.txt	LTP323	ltpFR2	8	12	PIGMENT	1066	n/a	n/a	0	0	0
2681.088	n/a	WORD	1340544	wordpools/wasnorm_wordpool_576.txt	LTP323	ltpFR2	8	12	BALLOON	75	n/a	n/a	0	0	0
2683.842	n/a	WORD	1341921	wordpools/wasnorm_wordpool_576.txt	LTP323	ltpFR2	8	12	MARKET	871	n/a	n/a	0	0	0
2686.344	n/a	WORD	1343172	wordpools/wasnorm_wordpool_576.txt	LTP323	ltpFR2	8	12	WAITRESS	1581	n/a	n/a	0	0	0
2688.796	n/a	WORD	1344398	wordpools/wasnorm_wordpool_576.txt	LTP323	ltpFR2	8	12	ACTOR	5	n/a	n/a	0	0	0
2691.582	n/a	WORD	1345791	wordpools/wasnorm_wordpool_576.txt	LTP323	ltpFR2	8	12	ULCER	1533	n/a	n/a	0	0	0
2694.302	n/a	WORD	1347151	wordpools/wasnorm_wordpool_576.txt	LTP323	ltpFR2	8	12	EYELASH	546	n/a	n/a	0	0	0
2697.12	n/a	WORD	1348560	wordpools/wasnorm_wordpool_576.txt	LTP323	ltpFR2	8	12	MARKER	870	n/a	n/a	0	0	0
2699.57	n/a	WORD	1349785	wordpools/wasnorm_wordpool_576.txt	LTP323	ltpFR2	8	12	BRAKE	166	n/a	n/a	0	0	0
2702.324	n/a	WORD	1351162	wordpools/wasnorm_wordpool_576.txt	LTP323	ltpFR2	8	12	SHOULDER	1294	n/a	n/a	0	0	0
2704.926	n/a	WORD	1352463	wordpools/wasnorm_wordpool_576.txt	LTP323	ltpFR2	8	12	HAWK	692	n/a	n/a	0	0	0
2707.628	n/a	WORD	1353814	wordpools/wasnorm_wordpool_576.txt	LTP323	ltpFR2	8	12	ICING	732	n/a	n/a	0	0	0
2710.196	n/a	WORD	1355098	wordpools/wasnorm_wordpool_576.txt	LTP323	ltpFR2	8	12	CANDY	230	n/a	n/a	0	0	0
2712.732	n/a	WORD	1356366	wordpools/wasnorm_wordpool_576.txt	LTP323	ltpFR2	8	12	AIRPLANE	12	n/a	n/a	0	0	0
2715.434	n/a	WORD	1357717	wordpools/wasnorm_wordpool_576.txt	LTP323	ltpFR2	8	12	ANTLER	29	n/a	n/a	0	0	0
2718.252	n/a	WORD	1359126	wordpools/wasnorm_wordpool_576.txt	LTP323	ltpFR2	8	12	COOK	372	n/a	n/a	0	0	0
2720.754	n/a	WORD	1360377	wordpools/wasnorm_wordpool_576.txt	LTP323	ltpFR2	8	12	SHRUB	1299	n/a	n/a	0	0	0
2723.34	n/a	WORD	1361670	wordpools/wasnorm_wordpool_576.txt	LTP323	ltpFR2	8	12	MOTOR	922	n/a	n/a	0	0	0
2725.862	n/a	WORD	1362931	wordpools/wasnorm_wordpool_576.txt	LTP323	ltpFR2	8	12	VIKING	1565	n/a	n/a	0	0	0
2728.528	n/a	WORD	1364264	wordpools/wasnorm_wordpool_576.txt	LTP323	ltpFR2	8	12	RAFT	1159	n/a	n/a	0	0	0
2730.146	n/a	START	1365073	n/a	LTP323	ltpFR2	8	n/a	n/a	n/a	17	n/a	n/a	n/a	n/a
2731.286	n/a	DISTRACTOR	1365643	n/a	LTP323	ltpFR2	8	12	n/a	n/a	n/a	n/a	0	0	0
2731.296	n/a	PROB	1365648	n/a	LTP323	ltpFR2	8	n/a	n/a	n/a	17	17	8	6	3
2733.998	n/a	PROB	1366999	n/a	LTP323	ltpFR2	8	n/a	n/a	n/a	17	15	6	2	7
2737.398	n/a	PROB	1368699	n/a	LTP323	ltpFR2	8	n/a	n/a	n/a	17	11	3	2	6
2739.316	n/a	PROB	1369658	n/a	LTP323	ltpFR2	8	n/a	n/a	n/a	17	11	3	6	2
2741.184	n/a	PROB	1370592	n/a	LTP323	ltpFR2	8	n/a	n/a	n/a	17	13	8	3	2
2743.084	n/a	PROB	1371542	n/a	LTP323	ltpFR2	8	n/a	n/a	n/a	17	17	8	6	3
2745.706	n/a	PROB	1372853	n/a	LTP323	ltpFR2	8	n/a	n/a	n/a	17	17	5	6	6
2748.894	n/a	PROB	1374447	n/a	LTP323	ltpFR2	8	n/a	n/a	n/a	17	17	7	2	8
2754.146	n/a	STOP	1377073	n/a	LTP323	ltpFR2	8	n/a	n/a	n/a	17	n/a	n/a	n/a	n/a
2755.996	n/a	REC_START	1377998	n/a	LTP323	ltpFR2	8	12	n/a	n/a	n/a	n/a	0	0	0
2757.912	n/a	REC_WORD	1378956	wordpools/wasnorm_wordpool_576.txt	LTP323	ltpFR2	8	12	HAWK	692	n/a	n/a	0	0	0
2758.766	n/a	REC_WORD	1379383	wordpools/wasnorm_wordpool_576.txt	LTP323	ltpFR2	8	12	VIKING	1565	n/a	n/a	0	0	0
2759.962	n/a	REC_WORD	1379981	wordpools/wasnorm_wordpool_576.txt	LTP323	ltpFR2	8	12	RAFT	1159	n/a	n/a	0	0	0
2762.168	n/a	REC_WORD	1381084	wordpools/wasnorm_wordpool_576.txt	LTP323	ltpFR2	8	12	CANDY	230	n/a	n/a	0	0	0
2766.452	n/a	REC_WORD	1383226	wordpools/wasnorm_wordpool_576.txt	LTP323	ltpFR2	8	12	ICING	732	n/a	n/a	0	0	0
2769.322	n/a	REC_WORD	1384661	wordpools/wasnorm_wordpool_576.txt	LTP323	ltpFR2	8	12	MUSTARD	935	n/a	n/a	0	0	0
2770.428	n/a	REC_WORD	1385214	wordpools/wasnorm_wordpool_576.txt	LTP323	ltpFR2	8	12	RELISH	1183	n/a	n/a	0	0	0
2772.292	n/a	REC_WORD	1386146	wordpools/wasnorm_wordpool_576.txt	LTP323	ltpFR2	8	12	GLOBE	641	n/a	n/a	0	0	0
2773.428	n/a	REC_WORD	1386714	wordpools/wasnorm_wordpool_576.txt	LTP323	ltpFR2	8	12	WORLD	1622	n/a	n/a	0	0	0
2775.34	n/a	REC_WORD	1387670	wordpools/wasnorm_wordpool_576.txt	LTP323	ltpFR2	8	12	PIGMENT	1066	n/a	n/a	0	0	0
2779.86	n/a	REC_WORD	1389930	wordpools/wasnorm_wordpool_576.txt	LTP323	ltpFR2	8	12	ACTOR	5	n/a	n/a	0	0	0
2780.422	n/a	REC_WORD	1390211	wordpools/wasnorm_wordpool_576.txt	LTP323	ltpFR2	8	12	ULCER	1533	n/a	n/a	0	0	0
2781.42	n/a	REC_WORD	1390710	wordpools/wasnorm_wordpool_576.txt	LTP323	ltpFR2	8	12	WAITRESS	1581	n/a	n/a	0	0	0
2782.18	n/a	REC_WORD	1391090	wordpools/wasnorm_wordpool_576.txt	LTP323	ltpFR2	8	12	EYELASH	546	n/a	n/a	0	0	0
2785.508	n/a	REC_WORD	1392754	wordpools/wasnorm_wordpool_576.txt	LTP323	ltpFR2	8	12	SHOULDER	1294	n/a	n/a	0	0	0
2787.252	n/a	REC_WORD	1393626	wordpools/wasnorm_wordpool_576.txt	LTP323	ltpFR2	8	12	MARKER	870	n/a	n/a	0	0	0
2791.222	n/a	REC_WORD	1395611	wordpools/wasnorm_wordpool_576.txt	LTP323	ltpFR2	8	12	MOTOR	922	n/a	n/a	0	0	0
2796.36	n/a	REC_WORD	1398180	wordpools/wasnorm_wordpool_576.txt	LTP323	ltpFR2	8	12	MARKET	871	n/a	n/a	0	0	0
2797.192	n/a	REC_WORD	1398596	wordpools/wasnorm_wordpool_576.txt	LTP323	ltpFR2	8	12	BALLOON	75	n/a	n/a	0	0	0
2846.438	n/a	DISTRACTOR	1423219	n/a	LTP323	ltpFR2	8	13	n/a	n/a	n/a	n/a	0	0	0
2846.438	n/a	START	1423219	n/a	LTP323	ltpFR2	8	n/a	n/a	n/a	18	n/a	n/a	n/a	n/a
2846.45	n/a	PROB	1423225	n/a	LTP323	ltpFR2	8	n/a	n/a	n/a	18	16	4	6	6
2848.782	n/a	PROB	1424391	n/a	LTP323	ltpFR2	8	n/a	n/a	n/a	18	13	3	5	5
2850.948	n/a	PROB	1425474	n/a	LTP323	ltpFR2	8	n/a	n/a	n/a	18	5	2	1	2
2852.604	n/a	PROB	1426302	n/a	LTP323	ltpFR2	8	n/a	n/a	n/a	18	17	9	1	7
2854.736	n/a	PROB	1427368	n/a	LTP323	ltpFR2	8	n/a	n/a	n/a	18	25	9	7	9
2857.738	n/a	PROB	1428869	n/a	LTP323	ltpFR2	8	n/a	n/a	n/a	18	15	5	1	9
2859.706	n/a	PROB	1429853	n/a	LTP323	ltpFR2	8	n/a	n/a	n/a	18	17	7	3	7
2861.458	n/a	PROB	1430729	n/a	LTP323	ltpFR2	8	n/a	n/a	n/a	18	15	4	9	2
2864.944	n/a	PROB	1432472	n/a	LTP323	ltpFR2	8	n/a	n/a	n/a	18	18	4	8	6
2867.18	n/a	PROB	1433590	n/a	LTP323	ltpFR2	8	n/a	n/a	n/a	18	11	2	1	8
2870.438	n/a	STOP	1435219	n/a	LTP323	ltpFR2	8	n/a	n/a	n/a	18	n/a	n/a	n/a	n/a
2871.358	n/a	WORD	1435679	wordpools/wasnorm_wordpool_576.txt	LTP323	ltpFR2	8	13	LODGE	839	n/a	n/a	0	0	0
2874.006	n/a	WORD	1437003	wordpools/wasnorm_wordpool_576.txt	LTP323	ltpFR2	8	13	FIREMAN	569	n/a	n/a	0	0	0
2876.808	n/a	WORD	1438404	wordpools/wasnorm_wordpool_576.txt	LTP323	ltpFR2	8	13	COOKBOOK	373	n/a	n/a	0	0	0
2879.264	n/a	WORD	1439632	wordpools/wasnorm_wordpool_576.txt	LTP323	ltpFR2	8	13	FRIAR	605	n/a	n/a	0	0	0
2881.998	n/a	WORD	1440999	wordpools/wasnorm_wordpool_576.txt	LTP323	ltpFR2	8	13	HONEY	713	n/a	n/a	0	0	0
2884.666	n/a	WORD	1442333	wordpools/wasnorm_wordpool_576.txt	LTP323	ltpFR2	8	13	NECKLACE	940	n/a	n/a	0	0	0
2887.384	n/a	WORD	1443692	wordpools/wasnorm_wordpool_576.txt	LTP323	ltpFR2	8	13	RACKET	1155	n/a	n/a	0	0	0
2889.836	n/a	WORD	1444918	wordpools/wasnorm_wordpool_576.txt	LTP323	ltpFR2	8	13	EXPERT	543	n/a	n/a	0	0	0
2892.52	n/a	WORD	1446260	wordpools/wasnorm_wordpool_576.txt	LTP323	ltpFR2	8	13	UNCLE	1536	n/a	n/a	0	0	0
2895.274	n/a	WORD	1447637	wordpools/wasnorm_wordpool_576.txt	LTP323	ltpFR2	8	13	PRIMATE	1123	n/a	n/a	0	0	0
2897.76	n/a	WORD	1448880	wordpools/wasnorm_wordpool_576.txt	LTP323	ltpFR2	8	13	SCALPEL	1243	n/a	n/a	0	0	0
2900.446	n/a	WORD	1450223	wordpools/wasnorm_wordpool_576.txt	LTP323	ltpFR2	8	13	NURSE	963	n/a	n/a	0	0	0
2902.998	n/a	WORD	1451499	wordpools/wasnorm_wordpool_576.txt	LTP323	ltpFR2	8	13	BEAKER	104	n/a	n/a	0	0	0
2905.7	n/a	WORD	1452850	wordpools/wasnorm_wordpool_576.txt	LTP323	ltpFR2	8	13	ISLAND	745	n/a	n/a	0	0	0
2908.336	n/a	WORD	1454168	wordpools/wasnorm_wordpool_576.txt	LTP323	ltpFR2	8	13	SIBLING	1301	n/a	n/a	0	0	0
2911.036	n/a	WORD	1455518	wordpools/wasnorm_wordpool_576.txt	LTP323	ltpFR2	8	13	VELVET	1555	n/a	n/a	0	0	0
2913.524	n/a	WORD	1456762	wordpools/wasnorm_wordpool_576.txt	LTP323	ltpFR2	8	13	FLASHLIGHT	575	n/a	n/a	0	0	0
2916.142	n/a	WORD	1458071	wordpools/wasnorm_wordpool_576.txt	LTP323	ltpFR2	8	13	GRAVEL	659	n/a	n/a	0	0	0
2918.66	n/a	WORD	1459330	wordpools/wasnorm_wordpool_576.txt	LTP323	ltpFR2	8	13	DUST	508	n/a	n/a	0	0	0
2921.128	n/a	WORD	1460564	wordpools/wasnorm_wordpool_576.txt	LTP323	ltpFR2	8	13	PADDING	999	n/a	n/a	0	0	0
2923.598	n/a	WORD	1461799	wordpools/wasnorm_wordpool_576.txt	LTP323	ltpFR2	8	13	SOFTBALL	1343	n/a	n/a	0	0	0
2926.234	n/a	WORD	1463117	wordpools/wasnorm_wordpool_576.txt	LTP323	ltpFR2	8	13	GUITAR	670	n/a	n/a	0	0	0
2928.736	n/a	WORD	1464368	wordpools/wasnorm_wordpool_576.txt	LTP323	ltpFR2	8	13	SKILLET	1317	n/a	n/a	0	0	0
2931.206	n/a	WORD	1465603	wordpools/wasnorm_wordpool_576.txt	LTP323	ltpFR2	8	13	SURVEY	1414	n/a	n/a	0	0	0
2932.824	n/a	START	1466412	n/a	LTP323	ltpFR2	8	n/a	n/a	n/a	19	n/a	n/a	n/a	n/a
2933.904	n/a	DISTRACTOR	1466952	n/a	LTP323	ltpFR2	8	13	n/a	n/a	n/a	n/a	0	0	0
2933.924	n/a	PROB	1466962	n/a	LTP323	ltpFR2	8	n/a	n/a	n/a	19	24	9	6	9
2938.374	n/a	PROB	1469187	n/a	LTP323	ltpFR2	8	n/a	n/a	n/a	19	11	1	5	5
2939.792	n/a	PROB	1469896	n/a	LTP323	ltpFR2	8	n/a	n/a	n/a	19	15	7	2	6
2942.698	n/a	PROB	1471349	n/a	LTP323	ltpFR2	8	n/a	n/a	n/a	19	11	8	2	1
2944.18	n/a	PROB	1472090	n/a	LTP323	ltpFR2	8	n/a	n/a	n/a	19	16	5	5	6
2946.652	n/a	PROB	1473326	n/a	LTP323	ltpFR2	8	n/a	n/a	n/a	19	14	9	2	3
2948.902	n/a	PROB	1474451	n/a	LTP323	ltpFR2	8	n/a	n/a	n/a	19	14	3	4	7
2951.05	n/a	PROB	1475525	n/a	LTP323	ltpFR2	8	n/a	n/a	n/a	19	20	9	3	8
2956.824	n/a	STOP	1478412	n/a	LTP323	ltpFR2	8	n/a	n/a	n/a	19	n/a	n/a	n/a	n/a
2958.796	n/a	REC_START	1479398	n/a	LTP323	ltpFR2	8	13	n/a	n/a	n/a	n/a	0	0	0
2959.692	n/a	REC_WORD	1479846	wordpools/wasnorm_wordpool_576.txt	LTP323	ltpFR2	8	13	PADDING	999	n/a	n/a	0	0	0
2960.584	n/a	REC_WORD	1480292	wordpools/wasnorm_wordpool_576.txt	LTP323	ltpFR2	8	13	SKILLET	1317	n/a	n/a	0	0	0
2962.13	n/a	REC_WORD	1481065	wordpools/wasnorm_wordpool_576.txt	LTP323	ltpFR2	8	13	ISLAND	745	n/a	n/a	0	0	0
2963.342	n/a	REC_WORD	1481671	wordpools/wasnorm_wordpool_576.txt	LTP323	ltpFR2	8	13	SOFTBALL	1343	n/a	n/a	0	0	0
2979.252	n/a	REC_WORD	1489626	wordpools/wasnorm_wordpool_576.txt	LTP323	ltpFR2	8	13	SURVEY	1414	n/a	n/a	0	0	0
2984.664	n/a	REC_WORD	1492332	wordpools/wasnorm_wordpool_576.txt	LTP323	ltpFR2	8	13	RACKET	1155	n/a	n/a	0	0	0
2988.122	n/a	REC_WORD	1494061	wordpools/wasnorm_wordpool_576.txt	LTP323	ltpFR2	8	13	COOKBOOK	373	n/a	n/a	0	0	0
2990.536	n/a	REC_WORD	1495268	wordpools/wasnorm_wordpool_576.txt	LTP323	ltpFR2	8	13	FRIAR	605	n/a	n/a	0	0	0
2991.648	n/a	REC_WORD	1495824	wordpools/wasnorm_wordpool_576.txt	LTP323	ltpFR2	8	13	FIREMAN	569	n/a	n/a	0	0	0
2993.714	n/a	REC_WORD	1496857	wordpools/wasnorm_wordpool_576.txt	LTP323	ltpFR2	8	13	LODGE	839	n/a	n/a	0	0	0
2995.868	n/a	REC_WORD	1497934	wordpools/wasnorm_wordpool_576.txt	LTP323	ltpFR2	8	13	EXPERT	543	n/a	n/a	0	0	0
2996.672	n/a	REC_WORD	1498336	wordpools/wasnorm_wordpool_576.txt	LTP323	ltpFR2	8	13	UNCLE	1536	n/a	n/a	0	0	0
2997.376	n/a	REC_WORD	1498688	wordpools/wasnorm_wordpool_576.txt	LTP323	ltpFR2	8	13	PRIMATE	1123	n/a	n/a	0	0	0
2998.422	n/a	REC_WORD	1499211	wordpools/wasnorm_wordpool_576.txt	LTP323	ltpFR2	8	13	SCALPEL	1243	n/a	n/a	0	0	0
2999.416	n/a	REC_WORD	1499708	wordpools/wasnorm_wordpool_576.txt	LTP323	ltpFR2	8	13	NURSE	963	n/a	n/a	0	0	0
3000.688	n/a	REC_WORD	1500344	wordpools/wasnorm_wordpool_576.txt	LTP323	ltpFR2	8	13	BEAKER	104	n/a	n/a	0	0	0
3003.804	n/a	REC_WORD	1501902	wordpools/wasnorm_wordpool_576.txt	LTP323	ltpFR2	8	13	ISLAND	745	n/a	n/a	0	0	0
3008.812	n/a	REC_WORD	1504406	wordpools/wasnorm_wordpool_576.txt	LTP323	ltpFR2	8	13	SIBLING	1301	n/a	n/a	0	0	0
3049.232	n/a	DISTRACTOR	1524616	n/a	LTP323	ltpFR2	8	14	n/a	n/a	n/a	n/a	0	0	0
3049.232	n/a	START	1524616	n/a	LTP323	ltpFR2	8	n/a	n/a	n/a	20	n/a	n/a	n/a	n/a
3049.246	n/a	PROB	1524623	n/a	LTP323	ltpFR2	8	n/a	n/a	n/a	20	14	4	8	2
3051.44	n/a	PROB	1525720	n/a	LTP323	ltpFR2	8	n/a	n/a	n/a	20	17	6	7	4
3053.458	n/a	PROB	1526729	n/a	LTP323	ltpFR2	8	n/a	n/a	n/a	20	10	4	4	2
3056.226	n/a	PROB	1528113	n/a	LTP323	ltpFR2	8	n/a	n/a	n/a	20	11	1	2	8
3058.026	n/a	PROB	1529013	n/a	LTP323	ltpFR2	8	n/a	n/a	n/a	20	12	3	7	2
3059.696	n/a	PROB	1529848	n/a	LTP323	ltpFR2	8	n/a	n/a	n/a	20	12	2	6	4
3061.162	n/a	PROB	1530581	n/a	LTP323	ltpFR2	8	n/a	n/a	n/a	20	15	9	3	3
3063.648	n/a	PROB	1531824	n/a	LTP323	ltpFR2	8	n/a	n/a	n/a	20	9	6	1	2
3067.654	n/a	PROB	1533827	n/a	LTP323	ltpFR2	8	n/a	n/a	n/a	20	16	6	5	5
3069.942	n/a	PROB	1534971	n/a	LTP323	ltpFR2	8	n/a	n/a	n/a	20	20	8	8	4
3072.326	n/a	STOP	1536163	n/a	LTP323	ltpFR2	8	n/a	n/a	n/a	20	n/a	n/a	n/a	n/a
3074.16	n/a	WORD	1537080	wordpools/wasnorm_wordpool_576.txt	LTP323	ltpFR2	8	14	SODA	1341	n/a	n/a	0	0	0
3076.98	n/a	WORD	1538490	wordpools/wasnorm_wordpool_576.txt	LTP323	ltpFR2	8	14	CRAYON	401	n/a	n/a	0	0	0
3079.572	n/a	WORD	1539786	wordpools/wasnorm_wordpool_576.txt	LTP323	ltpFR2	8	14	STAMP	1370	n/a	n/a	0	0	0
3082.084	n/a	WORD	1541042	wordpools/wasnorm_wordpool_576.txt	LTP323	ltpFR2	8	14	OUTDOORS	987	n/a	n/a	0	0	0
3084.66	n/a	WORD	1542330	wordpools/wasnorm_wordpool_576.txt	LTP323	ltpFR2	8	14	FOREST	593	n/a	n/a	0	0	0
3087.306	n/a	WORD	1543653	wordpools/wasnorm_wordpool_576.txt	LTP323	ltpFR2	8	14	SHORTCAKE	1292	n/a	n/a	0	0	0
3089.974	n/a	WORD	1544987	wordpools/wasnorm_wordpool_576.txt	LTP323	ltpFR2	8	14	SNACK	1331	n/a	n/a	0	0	0
3092.676	n/a	WORD	1546338	wordpools/wasnorm_wordpool_576.txt	LTP323	ltpFR2	8	14	DRILL	497	n/a	n/a	0	0	0
3095.278	n/a	WORD	1547639	wordpools/wasnorm_wordpool_576.txt	LTP323	ltpFR2	8	14	PASTA	1021	n/a	n/a	0	0	0
3097.92	n/a	WORD	1548960	wordpools/wasnorm_wordpool_576.txt	LTP323	ltpFR2	8	14	SALAD	1224	n/a	n/a	0	0	0
3100.706	n/a	WORD	1550353	wordpools/wasnorm_wordpool_576.txt	LTP323	ltpFR2	8	14	MAILMAN	858	n/a	n/a	0	0	0
3103.14	n/a	WORD	1551570	wordpools/wasnorm_wordpool_576.txt	LTP323	ltpFR2	8	14	MAILBOX	857	n/a	n/a	0	0	0
3105.89	n/a	WORD	1552945	wordpools/wasnorm_wordpool_576.txt	LTP323	ltpFR2	8	14	JURY	766	n/a	n/a	0	0	0
3108.624	n/a	WORD	1554312	wordpools/wasnorm_wordpool_576.txt	LTP323	ltpFR2	8	14	DANCER	437	n/a	n/a	0	0	0
3111.364	n/a	WORD	1555682	wordpools/wasnorm_wordpool_576.txt	LTP323	ltpFR2	8	14	DORM	488	n/a	n/a	0	0	0
3113.944	n/a	WORD	1556972	wordpools/wasnorm_wordpool_576.txt	LTP323	ltpFR2	8	14	BARREL	91	n/a	n/a	0	0	0
3116.564	n/a	WORD	1558282	wordpools/wasnorm_wordpool_576.txt	LTP323	ltpFR2	8	14	GAVEL	627	n/a	n/a	0	0	0
3119.332	n/a	WORD	1559666	wordpools/wasnorm_wordpool_576.txt	LTP323	ltpFR2	8	14	FLESH	579	n/a	n/a	0	0	0
3121.852	n/a	WORD	1560926	wordpools/wasnorm_wordpool_576.txt	LTP323	ltpFR2	8	14	MARROW	872	n/a	n/a	0	0	0
3124.422	n/a	WORD	1562211	wordpools/wasnorm_wordpool_576.txt	LTP323	ltpFR2	8	14	CONCERT	360	n/a	n/a	0	0	0
3126.856	n/a	WORD	1563428	wordpools/wasnorm_wordpool_576.txt	LTP323	ltpFR2	8	14	DRAGON	492	n/a	n/a	0	0	0
3129.628	n/a	WORD	1564814	wordpools/wasnorm_wordpool_576.txt	LTP323	ltpFR2	8	14	HEART	697	n/a	n/a	0	0	0
3132.378	n/a	WORD	1566189	wordpools/wasnorm_wordpool_576.txt	LTP323	ltpFR2	8	14	HERO	706	n/a	n/a	0	0	0
3134.964	n/a	WORD	1567482	wordpools/wasnorm_wordpool_576.txt	LTP323	ltpFR2	8	14	THREAD	1460	n/a	n/a	0	0	0
3136.582	n/a	START	1568291	n/a	LTP323	ltpFR2	8	n/a	n/a	n/a	21	n/a	n/a	n/a	n/a
3137.52	n/a	DISTRACTOR	1568760	n/a	LTP323	ltpFR2	8	14	n/a	n/a	n/a	n/a	0	0	0
3137.532	n/a	PROB	1568766	n/a	LTP323	ltpFR2	8	n/a	n/a	n/a	21	16	2	7	7
3141.316	n/a	PROB	1570658	n/a	LTP323	ltpFR2	8	n/a	n/a	n/a	21	10	2	2	6
3143.1	n/a	PROB	1571550	n/a	LTP323	ltpFR2	8	n/a	n/a	n/a	21	19	9	3	7
3144.768	n/a	PROB	1572384	n/a	LTP323	ltpFR2	8	n/a	n/a	n/a	21	20	7	9	4
3148.672	n/a	PROB	1574336	n/a	LTP323	ltpFR2	8	n/a	n/a	n/a	21	16	5	8	3
3152.276	n/a	PROB	1576138	n/a	LTP323	ltpFR2	8	n/a	n/a	n/a	21	10	2	2	6
3153.93	n/a	PROB	1576965	n/a	LTP323	ltpFR2	8	n/a	n/a	n/a	21	17	9	2	6
3156.346	n/a	PROB	1578173	n/a	LTP323	ltpFR2	8	n/a	n/a	n/a	21	13	2	2	9
3159.456	n/a	STOP	1579728	n/a	LTP323	ltpFR2	8	n/a	n/a	n/a	21	n/a	n/a	n/a	n/a
3162.42	n/a	REC_START	1581210	n/a	LTP323	ltpFR2	8	14	n/a	n/a	n/a	n/a	0	0	0
3165.212	n/a	REC_WORD	1582606	wordpools/wasnorm_wordpool_576.txt	LTP323	ltpFR2	8	14	MAILBOX	857	n/a	n/a	0	0	0
3166.498	n/a	REC_WORD	1583249	wordpools/wasnorm_wordpool_576.txt	LTP323	ltpFR2	8	14	MAILMAN	858	n/a	n/a	0	0	0
3168.04	n/a	REC_WORD	1584020	wordpools/wasnorm_wordpool_576.txt	LTP323	ltpFR2	8	14	DRILL	497	n/a	n/a	0	0	0
3169.83	n/a	REC_WORD	1584915	wordpools/wasnorm_wordpool_576.txt	LTP323	ltpFR2	8	14	JURY	766	n/a	n/a	0	0	0
3170.82	n/a	REC_WORD	1585410	wordpools/wasnorm_wordpool_576.txt	LTP323	ltpFR2	8	14	GAVEL	627	n/a	n/a	0	0	0
3172.522	n/a	REC_WORD	1586261	wordpools/wasnorm_wordpool_576.txt	LTP323	ltpFR2	8	14	FLESH	579	n/a	n/a	0	0	0
3175.88	n/a	REC_WORD	1587940	wordpools/wasnorm_wordpool_576.txt	LTP323	ltpFR2	8	14	SHORTCAKE	1292	n/a	n/a	0	0	0
3177.714	n/a	REC_WORD	1588857	wordpools/wasnorm_wordpool_576.txt	LTP323	ltpFR2	8	14	PASTA	1021	n/a	n/a	0	0	0
3178.48	n/a	REC_WORD	1589240	wordpools/wasnorm_wordpool_576.txt	LTP323	ltpFR2	8	14	SALAD	1224	n/a	n/a	0	0	0
3252.866	n/a	DISTRACTOR	1626433	n/a	LTP323	ltpFR2	8	15	n/a	n/a	n/a	n/a	0	0	0
3252.866	n/a	START	1626433	n/a	LTP323	ltpFR2	8	n/a	n/a	n/a	22	n/a	n/a	n/a	n/a
3252.878	n/a	PROB	1626439	n/a	LTP323	ltpFR2	8	n/a	n/a	n/a	22	17	8	5	4
3256.078	n/a	PROB	1628039	n/a	LTP323	ltpFR2	8	n/a	n/a	n/a	22	10	5	1	4
3258.132	n/a	PROB	1629066	n/a	LTP323	ltpFR2	8	n/a	n/a	n/a	22	21	8	5	8
3261.62	n/a	PROB	1630810	n/a	LTP323	ltpFR2	8	n/a	n/a	n/a	22	22	9	6	7
3265.106	n/a	PROB	1632553	n/a	LTP323	ltpFR2	8	n/a	n/a	n/a	22	13	6	5	2
3267.208	n/a	PROB	1633604	n/a	LTP323	ltpFR2	8	n/a	n/a	n/a	22	18	7	7	4
3269.194	n/a	PROB	1634597	n/a	LTP323	ltpFR2	8	n/a	n/a	n/a	22	20	7	8	5
3271.496	n/a	PROB	1635748	n/a	LTP323	ltpFR2	8	n/a	n/a	n/a	22	11	2	4	5
3276.866	n/a	STOP	1638433	n/a	LTP323	ltpFR2	8	n/a	n/a	n/a	22	n/a	n/a	n/a	n/a
3277.88	n/a	WORD	1638940	wordpools/wasnorm_wordpool_576.txt	LTP323	ltpFR2	8	15	PACKAGE	997	n/a	n/a	0	0	0
3280.566	n/a	WORD	1640283	wordpools/wasnorm_wordpool_576.txt	LTP323	ltpFR2	8	15	DONOR	485	n/a	n/a	0	0	0
3283.25	n/a	WORD	1641625	wordpools/wasnorm_wordpool_576.txt	LTP323	ltpFR2	8	15	BROOK	177	n/a	n/a	0	0	0
3285.834	n/a	WORD	1642917	wordpools/wasnorm_wordpool_576.txt	LTP323	ltpFR2	8	15	BUBBLE	183	n/a	n/a	0	0	0
3288.272	n/a	WORD	1644136	wordpools/wasnorm_wordpool_576.txt	LTP323	ltpFR2	8	15	CANAL	226	n/a	n/a	0	0	0
3290.914	n/a	WORD	1645457	wordpools/wasnorm_wordpool_576.txt	LTP323	ltpFR2	8	15	ROBBER	1197	n/a	n/a	0	0	0
3293.35	n/a	WORD	1646675	wordpools/wasnorm_wordpool_576.txt	LTP323	ltpFR2	8	15	SCARF	1246	n/a	n/a	0	0	0
3295.91	n/a	WORD	1647955	wordpools/wasnorm_wordpool_576.txt	LTP323	ltpFR2	8	15	CABIN	211	n/a	n/a	0	0	0
3298.494	n/a	WORD	1649247	wordpools/wasnorm_wordpool_576.txt	LTP323	ltpFR2	8	15	GHETTO	633	n/a	n/a	0	0	0
3301.014	n/a	WORD	1650507	wordpools/wasnorm_wordpool_576.txt	LTP323	ltpFR2	8	15	FRIEND	606	n/a	n/a	0	0	0
3303.476	n/a	WORD	1651738	wordpools/wasnorm_wordpool_576.txt	LTP323	ltpFR2	8	15	WHISKERS	1605	n/a	n/a	0	0	0
3306.152	n/a	WORD	1653076	wordpools/wasnorm_wordpool_576.txt	LTP323	ltpFR2	8	15	CAFE	216	n/a	n/a	0	0	0
3308.904	n/a	WORD	1654452	wordpools/wasnorm_wordpool_576.txt	LTP323	ltpFR2	8	15	KLEENEX	782	n/a	n/a	0	0	0
3311.532	n/a	WORD	1655766	wordpools/wasnorm_wordpool_576.txt	LTP323	ltpFR2	8	15	BURGLAR	200	n/a	n/a	0	0	0
3314.268	n/a	WORD	1657134	wordpools/wasnorm_wordpool_576.txt	LTP323	ltpFR2	8	15	PASSAGE	1019	n/a	n/a	0	0	0
3316.776	n/a	WORD	1658388	wordpools/wasnorm_wordpool_576.txt	LTP323	ltpFR2	8	15	SLIDE	1326	n/a	n/a	0	0	0
3319.372	n/a	WORD	1659686	wordpools/wasnorm_wordpool_576.txt	LTP323	ltpFR2	8	15	OUTFIT	988	n/a	n/a	0	0	0
3321.958	n/a	WORD	1660979	wordpools/wasnorm_wordpool_576.txt	LTP323	ltpFR2	8	15	MARS	873	n/a	n/a	0	0	0
3324.592	n/a	WORD	1662296	wordpools/wasnorm_wordpool_576.txt	LTP323	ltpFR2	8	15	PLUTO	1092	n/a	n/a	0	0	0
3327.168	n/a	WORD	1663584	wordpools/wasnorm_wordpool_576.txt	LTP323	ltpFR2	8	15	SERVER	1272	n/a	n/a	0	0	0
3329.882	n/a	WORD	1664941	wordpools/wasnorm_wordpool_576.txt	LTP323	ltpFR2	8	15	CREATURE	403	n/a	n/a	0	0	0
3332.688	n/a	WORD	1666344	wordpools/wasnorm_wordpool_576.txt	LTP323	ltpFR2	8	15	GAZELLE	628	n/a	n/a	0	0	0
3335.224	n/a	WORD	1667612	wordpools/wasnorm_wordpool_576.txt	LTP323	ltpFR2	8	15	SUBWAY	1400	n/a	n/a	0	0	0
3338.01	n/a	WORD	1669005	wordpools/wasnorm_wordpool_576.txt	LTP323	ltpFR2	8	15	FILM	565	n/a	n/a	0	0	0
3339.624	n/a	START	1669812	n/a	LTP323	ltpFR2	8	n/a	n/a	n/a	23	n/a	n/a	n/a	n/a
3340.494	n/a	DISTRACTOR	1670247	n/a	LTP323	ltpFR2	8	15	n/a	n/a	n/a	n/a	0	0	0
3340.508	n/a	PROB	1670254	n/a	LTP323	ltpFR2	8	n/a	n/a	n/a	23	13	4	6	3
3343.874	n/a	PROB	1671937	n/a	LTP323	ltpFR2	8	n/a	n/a	n/a	23	13	3	5	5
3345.442	n/a	PROB	1672721	n/a	LTP323	ltpFR2	8	n/a	n/a	n/a	23	16	5	4	7
3347.812	n/a	PROB	1673906	n/a	LTP323	ltpFR2	8	n/a	n/a	n/a	23	222	7	6	9
3352.784	n/a	PROB	1676392	n/a	LTP323	ltpFR2	8	n/a	n/a	n/a	23	17	7	4	6
3356.368	n/a	PROB	1678184	n/a	LTP323	ltpFR2	8	n/a	n/a	n/a	23	13	6	4	3
3357.902	n/a	PROB	1678951	n/a	LTP323	ltpFR2	8	n/a	n/a	n/a	23	13	6	3	4
3360.038	n/a	PROB	1680019	n/a	LTP323	ltpFR2	8	n/a	n/a	n/a	23	19	8	4	7
3362.766	n/a	STOP	1681383	n/a	LTP323	ltpFR2	8	n/a	n/a	n/a	23	n/a	n/a	n/a	n/a
3365.576	n/a	REC_START	1682788	n/a	LTP323	ltpFR2	8	15	n/a	n/a	n/a	n/a	0	0	0
3369.536	n/a	REC_WORD	1684768	wordpools/wasnorm_wordpool_576.txt	LTP323	ltpFR2	8	15	PACKAGE	997	n/a	n/a	0	0	0
3370.536	n/a	REC_WORD_VV	1685268	wordpools/wasnorm_wordpool_576.txt	LTP323	ltpFR2	8	15	<>	-1	n/a	n/a	0	0	0
3371.242	n/a	REC_WORD_VV	1685621	wordpools/wasnorm_wordpool_576.txt	LTP323	ltpFR2	8	15	<>	-1	n/a	n/a	0	0	0
3374.252	n/a	REC_WORD	1687126	wordpools/wasnorm_wordpool_576.txt	LTP323	ltpFR2	8	15	DONOR	485	n/a	n/a	0	0	0
3376.464	n/a	REC_WORD	1688232	wordpools/wasnorm_wordpool_576.txt	LTP323	ltpFR2	8	15	THIEF	1456	n/a	n/a	0	0	0
3378.164	n/a	REC_WORD	1689082	wordpools/wasnorm_wordpool_576.txt	LTP323	ltpFR2	8	15	BURGLAR	200	n/a	n/a	0	0	0
3382.61	n/a	REC_WORD	1691305	wordpools/wasnorm_wordpool_576.txt	LTP323	ltpFR2	8	15	SCARF	1246	n/a	n/a	0	0	0
3456.056	n/a	WORD	1728028	wordpools/wasnorm_wordpool_576.txt	LTP323	ltpFR2	8	16	STOMACH	1384	n/a	n/a	0	0	0
3458.572	n/a	WORD	1729286	wordpools/wasnorm_wordpool_576.txt	LTP323	ltpFR2	8	16	ITEM	746	n/a	n/a	0	0	0
3461.39	n/a	WORD	1730695	wordpools/wasnorm_wordpool_576.txt	LTP323	ltpFR2	8	16	YOLK	1633	n/a	n/a	0	0	0
3463.976	n/a	WORD	1731988	wordpools/wasnorm_wordpool_576.txt	LTP323	ltpFR2	8	16	FOREHEAD	592	n/a	n/a	0	0	0
3466.578	n/a	WORD	1733289	wordpools/wasnorm_wordpool_576.txt	LTP323	ltpFR2	8	16	BUG	187	n/a	n/a	0	0	0
3469.03	n/a	WORD	1734515	wordpools/wasnorm_wordpool_576.txt	LTP323	ltpFR2	8	16	DENTIST	447	n/a	n/a	0	0	0
3471.616	n/a	WORD	1735808	wordpools/wasnorm_wordpool_576.txt	LTP323	ltpFR2	8	16	BULLET	194	n/a	n/a	0	0	0
3474.134	n/a	WORD	1737067	wordpools/wasnorm_wordpool_576.txt	LTP323	ltpFR2	8	16	EAGLE	512	n/a	n/a	0	0	0
3476.754	n/a	WORD	1738377	wordpools/wasnorm_wordpool_576.txt	LTP323	ltpFR2	8	16	SEAGULL	1261	n/a	n/a	0	0	0
3479.472	n/a	WORD	1739736	wordpools/wasnorm_wordpool_576.txt	LTP323	ltpFR2	8	16	FLAG	573	n/a	n/a	0	0	0
3482.078	n/a	WORD	1741039	wordpools/wasnorm_wordpool_576.txt	LTP323	ltpFR2	8	16	MILDEW	893	n/a	n/a	0	0	0
3484.782	n/a	WORD	1742391	wordpools/wasnorm_wordpool_576.txt	LTP323	ltpFR2	8	16	FRAGRANCE	599	n/a	n/a	0	0	0
3487.412	n/a	WORD	1743706	wordpools/wasnorm_wordpool_576.txt	LTP323	ltpFR2	8	16	LIVER	833	n/a	n/a	0	0	0
3490.17	n/a	WORD	1745085	wordpools/wasnorm_wordpool_576.txt	LTP323	ltpFR2	8	16	OMELET	976	n/a	n/a	0	0	0
3492.616	n/a	WORD	1746308	wordpools/wasnorm_wordpool_576.txt	LTP323	ltpFR2	8	16	MUFFIN	929	n/a	n/a	0	0	0
3495.418	n/a	WORD	1747709	wordpools/wasnorm_wordpool_576.txt	LTP323	ltpFR2	8	16	SADDLE	1221	n/a	n/a	0	0	0
3497.852	n/a	WORD	1748926	wordpools/wasnorm_wordpool_576.txt	LTP323	ltpFR2	8	16	CRICKET	408	n/a	n/a	0	0	0
3500.472	n/a	WORD	1750236	wordpools/wasnorm_wordpool_576.txt	LTP323	ltpFR2	8	16	ZEBRA	1635	n/a	n/a	0	0	0
3503.232	n/a	WORD	1751616	wordpools/wasnorm_wordpool_576.txt	LTP323	ltpFR2	8	16	CRAB	397	n/a	n/a	0	0	0
3505.934	n/a	WORD	1752967	wordpools/wasnorm_wordpool_576.txt	LTP323	ltpFR2	8	16	MASK	876	n/a	n/a	0	0	0
3508.602	n/a	WORD	1754301	wordpools/wasnorm_wordpool_576.txt	LTP323	ltpFR2	8	16	FRECKLE	602	n/a	n/a	0	0	0
3511.288	n/a	WORD	1755644	wordpools/wasnorm_wordpool_576.txt	LTP323	ltpFR2	8	16	CLOTHES	327	n/a	n/a	0	0	0
3514.098	n/a	WORD	1757049	wordpools/wasnorm_wordpool_576.txt	LTP323	ltpFR2	8	16	HORSE	719	n/a	n/a	0	0	0
3516.518	n/a	WORD	1758259	wordpools/wasnorm_wordpool_576.txt	LTP323	ltpFR2	8	16	XEROX	1628	n/a	n/a	0	0	0
3518.126	n/a	START	1759063	n/a	LTP323	ltpFR2	8	n/a	n/a	n/a	24	n/a	n/a	n/a	n/a
3519.202	n/a	DISTRACTOR	1759601	n/a	LTP323	ltpFR2	8	16	n/a	n/a	n/a	n/a	0	0	0
3519.212	n/a	PROB	1759606	n/a	LTP323	ltpFR2	8	n/a	n/a	n/a	24	11	6	1	4
3521.544	n/a	PROB	1760772	n/a	LTP323	ltpFR2	8	n/a	n/a	n/a	24	11	4	2	5
3524.632	n/a	PROB	1762316	n/a	LTP323	ltpFR2	8	n/a	n/a	n/a	24	13	1	7	4
3528.698	n/a	PROB	1764349	n/a	LTP323	ltpFR2	8	n/a	n/a	n/a	24	19	9	4	6
3535.49	n/a	PROB	1767745	n/a	LTP323	ltpFR2	8	n/a	n/a	n/a	24	1	5	4	9
3537.09	n/a	PROB	1768545	n/a	LTP323	ltpFR2	8	n/a	n/a	n/a	24	16	8	3	5
3542.128	n/a	STOP	1771064	n/a	LTP323	ltpFR2	8	n/a	n/a	n/a	24	n/a	n/a	n/a	n/a
3543.964	n/a	REC_START	1771982	n/a	LTP323	ltpFR2	8	16	n/a	n/a	n/a	n/a	0	0	0
3545.75	n/a	REC_WORD	1772875	wordpools/wasnorm_wordpool_576.txt	LTP323	ltpFR2	8	16	STOMACH	1384	n/a	n/a	0	0	0
3546.546	n/a	REC_WORD	1773273	wordpools/wasnorm_wordpool_576.txt	LTP323	ltpFR2	8	16	ITEM	746	n/a	n/a	0	0	0
3547.086	n/a	REC_WORD	1773543	wordpools/wasnorm_wordpool_576.txt	LTP323	ltpFR2	8	16	YOLK	1633	n/a	n/a	0	0	0
3548.918	n/a	REC_WORD	1774459	wordpools/wasnorm_wordpool_576.txt	LTP323	ltpFR2	8	16	FOREHEAD	592	n/a	n/a	0	0	0
3550.216	n/a	REC_WORD	1775108	wordpools/wasnorm_wordpool_576.txt	LTP323	ltpFR2	8	16	BUG	187	n/a	n/a	0	0	0
3552.042	n/a	REC_WORD	1776021	wordpools/wasnorm_wordpool_576.txt	LTP323	ltpFR2	8	16	LIVER	833	n/a	n/a	0	0	0
3563.062	n/a	REC_WORD	1781531	wordpools/wasnorm_wordpool_576.txt	LTP323	ltpFR2	8	16	OMELET	976	n/a	n/a	0	0	0
3579.652	n/a	REC_WORD	1789826	wordpools/wasnorm_wordpool_576.txt	LTP323	ltpFR2	8	16	ZEBRA	1635	n/a	n/a	0	0	0
3580.54	n/a	REC_WORD	1790270	wordpools/wasnorm_wordpool_576.txt	LTP323	ltpFR2	8	16	HORSE	719	n/a	n/a	0	0	0
3581.338	n/a	REC_WORD	1790669	wordpools/wasnorm_wordpool_576.txt	LTP323	ltpFR2	8	16	CRICKET	408	n/a	n/a	0	0	0
3582.122	n/a	REC_WORD	1791061	wordpools/wasnorm_wordpool_576.txt	LTP323	ltpFR2	8	16	SADDLE	1221	n/a	n/a	0	0	0
3620.498	n/a	REST_REWET	1810249	n/a	LTP323	ltpFR2	8	16	n/a	n/a	n/a	n/a	0	0	0
4055.68	n/a	DISTRACTOR	2027840	n/a	LTP323	ltpFR2	8	17	n/a	n/a	n/a	n/a	0	0	0
4055.68	n/a	START	2027840	n/a	LTP323	ltpFR2	8	n/a	n/a	n/a	25	n/a	n/a	n/a	n/a
4055.692	n/a	PROB	2027846	n/a	LTP323	ltpFR2	8	n/a	n/a	n/a	25	13	4	5	4
4058.34	n/a	PROB	2029170	n/a	LTP323	ltpFR2	8	n/a	n/a	n/a	25	8	1	2	5
4060.024	n/a	PROB	2030012	n/a	LTP323	ltpFR2	8	n/a	n/a	n/a	25	20	7	4	9
4062.124	n/a	PROB	2031062	n/a	LTP323	ltpFR2	8	n/a	n/a	n/a	25	14	4	3	7
4064.142	n/a	PROB	2032071	n/a	LTP323	ltpFR2	8	n/a	n/a	n/a	25	13	3	1	9
4067.934	n/a	PROB	2033967	n/a	LTP323	ltpFR2	8	n/a	n/a	n/a	25	20	8	5	7
4070.466	n/a	PROB	2035233	n/a	LTP323	ltpFR2	8	n/a	n/a	n/a	25	22	8	6	8
4073.402	n/a	PROB	2036701	n/a	LTP323	ltpFR2	8	n/a	n/a	n/a	25	12	3	8	1
4075.82	n/a	PROB	2037910	n/a	LTP323	ltpFR2	8	n/a	n/a	n/a	25	15	3	4	8
4079.682	n/a	STOP	2039841	n/a	LTP323	ltpFR2	8	n/a	n/a	n/a	25	n/a	n/a	n/a	n/a
4080.896	n/a	WORD	2040448	wordpools/wasnorm_wordpool_576.txt	LTP323	ltpFR2	8	17	LAMP	798	n/a	n/a	0	0	0
4083.53	n/a	WORD	2041765	wordpools/wasnorm_wordpool_576.txt	LTP323	ltpFR2	8	17	PORK	1108	n/a	n/a	0	0	0
4085.998	n/a	WORD	2042999	wordpools/wasnorm_wordpool_576.txt	LTP323	ltpFR2	8	17	POWDER	1117	n/a	n/a	0	0	0
4088.52	n/a	WORD	2044260	wordpools/wasnorm_wordpool_576.txt	LTP323	ltpFR2	8	17	SPARROW	1347	n/a	n/a	0	0	0
4091.238	n/a	WORD	2045619	wordpools/wasnorm_wordpool_576.txt	LTP323	ltpFR2	8	17	CAMEL	223	n/a	n/a	0	0	0
4094.056	n/a	WORD	2047028	wordpools/wasnorm_wordpool_576.txt	LTP323	ltpFR2	8	17	PERFUME	1049	n/a	n/a	0	0	0
4096.874	n/a	WORD	2048437	wordpools/wasnorm_wordpool_576.txt	LTP323	ltpFR2	8	17	GARLIC	624	n/a	n/a	0	0	0
4099.362	n/a	WORD	2049681	wordpools/wasnorm_wordpool_576.txt	LTP323	ltpFR2	8	17	FINGER	567	n/a	n/a	0	0	0
4101.814	n/a	WORD	2050907	wordpools/wasnorm_wordpool_576.txt	LTP323	ltpFR2	8	17	SCALLOP	1242	n/a	n/a	0	0	0
4104.632	n/a	WORD	2052316	wordpools/wasnorm_wordpool_576.txt	LTP323	ltpFR2	8	17	BACON	67	n/a	n/a	0	0	0
4107.302	n/a	WORD	2053651	wordpools/wasnorm_wordpool_576.txt	LTP323	ltpFR2	8	17	FRANCE	601	n/a	n/a	0	0	0
4109.82	n/a	WORD	2054910	wordpools/wasnorm_wordpool_576.txt	LTP323	ltpFR2	8	17	MEDAL	885	n/a	n/a	0	0	0
4112.438	n/a	WORD	2056219	wordpools/wasnorm_wordpool_576.txt	LTP323	ltpFR2	8	17	QUEEN	1149	n/a	n/a	0	0	0
4114.908	n/a	WORD	2057454	wordpools/wasnorm_wordpool_576.txt	LTP323	ltpFR2	8	17	THRONE	1461	n/a	n/a	0	0	0
4117.61	n/a	WORD	2058805	wordpools/wasnorm_wordpool_576.txt	LTP323	ltpFR2	8	17	CHEST	295	n/a	n/a	0	0	0
4120.396	n/a	WORD	2060198	wordpools/wasnorm_wordpool_576.txt	LTP323	ltpFR2	8	17	TUTU	1524	n/a	n/a	0	0	0
4123.13	n/a	WORD	2061565	wordpools/wasnorm_wordpool_576.txt	LTP323	ltpFR2	8	17	OINTMENT	974	n/a	n/a	0	0	0
4125.834	n/a	WORD	2062917	wordpools/wasnorm_wordpool_576.txt	LTP323	ltpFR2	8	17	STATUE	1374	n/a	n/a	0	0	0
4128.652	n/a	WORD	2064326	wordpools/wasnorm_wordpool_576.txt	LTP323	ltpFR2	8	17	INFANT	737	n/a	n/a	0	0	0
4131.136	n/a	WORD	2065568	wordpools/wasnorm_wordpool_576.txt	LTP323	ltpFR2	8	17	SKIRT	1319	n/a	n/a	0	0	0
4133.974	n/a	WORD	2066987	wordpools/wasnorm_wordpool_576.txt	LTP323	ltpFR2	8	17	SPOOL	1356	n/a	n/a	0	0	0
4136.46	n/a	WORD	2068230	wordpools/wasnorm_wordpool_576.txt	LTP323	ltpFR2	8	17	SNAKE	1333	n/a	n/a	0	0	0
