onset	duration	trial_type	sample	stim_file	subject	experiment	session	trial	task	item_name	item_num	recog_conf	resp	color_b	color_g	color_r	case	font
249.286	n/a	SESS_START	124643	n/a	LTP100	ltpFR	6	n/a	n/a	n/a	n/a	3	n/a	n/a	n/a	n/a	n/a	n/a
301.202	n/a	WORD	150601	wordpools/wasnorm_wordpool.txt	LTP100	ltpFR	6	1	1	LAWN	805	n/a	0	0	0.5869140625	0.422607421875	lower	../fonts/amplitud.ttf
305.16	n/a	WORD	152580	wordpools/wasnorm_wordpool.txt	LTP100	ltpFR	6	1	1	LINT	826	n/a	0	0	0.5869140625	0.422607421875	lower	../fonts/amplitud.ttf
309.01	n/a	WORD	154505	wordpools/wasnorm_wordpool.txt	LTP100	ltpFR	6	1	1	POSSUM	1112	n/a	1	0	0.5869140625	0.422607421875	lower	../fonts/amplitud.ttf
313.086	n/a	WORD	156543	wordpools/wasnorm_wordpool.txt	LTP100	ltpFR	6	1	1	SWAMP	1416	n/a	0	0	0.5869140625	0.422607421875	lower	../fonts/amplitud.ttf
317.21	n/a	WORD	158605	wordpools/wasnorm_wordpool.txt	LTP100	ltpFR	6	1	1	DIARY	460	n/a	0	0	0.5869140625	0.422607421875	lower	../fonts/amplitud.ttf
321.384	n/a	WORD	160692	wordpools/wasnorm_wordpool.txt	LTP100	ltpFR	6	1	0	WRITER	1627	n/a	1	1	0.412841796875	0.57763671875	upper	../fonts/zerothre.ttf
325.326	n/a	WORD	162663	wordpools/wasnorm_wordpool.txt	LTP100	ltpFR	6	1	0	IRON	744	n/a	0	1	0.412841796875	0.57763671875	upper	../fonts/zerothre.ttf
329.36	n/a	WORD	164680	wordpools/wasnorm_wordpool.txt	LTP100	ltpFR	6	1	0	LANDSCAPE	799	n/a	0	1	0.412841796875	0.57763671875	upper	../fonts/zerothre.ttf
333.526	n/a	WORD	166763	wordpools/wasnorm_wordpool.txt	LTP100	ltpFR	6	1	0	MITTEN	902	n/a	0	1	0.412841796875	0.57763671875	upper	../fonts/zerothre.ttf
337.592	n/a	WORD	168796	wordpools/wasnorm_wordpool.txt	LTP100	ltpFR	6	1	1	TORTOISE	1486	n/a	1	0	0.5869140625	0.422607421875	lower	../fonts/amplitud.ttf
341.516	n/a	WORD	170758	wordpools/wasnorm_wordpool.txt	LTP100	ltpFR	6	1	1	CHAUFFEUR	283	n/a	1	0	0.5869140625	0.422607421875	lower	../fonts/amplitud.ttf
345.666	n/a	WORD	172833	wordpools/wasnorm_wordpool.txt	LTP100	ltpFR	6	1	1	CARAVAN	242	n/a	0	0	0.5869140625	0.422607421875	lower	../fonts/amplitud.ttf
349.626	n/a	WORD	174813	wordpools/wasnorm_wordpool.txt	LTP100	ltpFR	6	1	0	WRIST	1626	n/a	0	1	0.412841796875	0.57763671875	upper	../fonts/zerothre.ttf
353.592	n/a	WORD	176796	wordpools/wasnorm_wordpool.txt	LTP100	ltpFR	6	1	0	RAZOR	1171	n/a	0	1	0.412841796875	0.57763671875	upper	../fonts/zerothre.ttf
357.616	n/a	WORD	178808	wordpools/wasnorm_wordpool.txt	LTP100	ltpFR	6	1	0	SPARROW	1347	n/a	0	1	0.412841796875	0.57763671875	upper	../fonts/zerothre.ttf
361.542	n/a	WORD	180771	wordpools/wasnorm_wordpool.txt	LTP100	ltpFR	6	1	0	HOE	711	n/a	0	1	0.412841796875	0.57763671875	upper	../fonts/zerothre.ttf
367.416	n/a	REC_START	183708	n/a	LTP100	ltpFR	6	1	n/a	n/a	n/a	n/a	n/a	n/a	n/a	n/a	n/a	n/a
369.786	n/a	REC_WORD	184893	wordpools/wasnorm_wordpool.txt	LTP100	ltpFR	6	1	0	HOE	711	n/a	0	n/a	n/a	n/a	n/a	n/a
370.622	n/a	REC_WORD	185311	wordpools/wasnorm_wordpool.txt	LTP100	ltpFR	6	1	0	SPARROW	1347	n/a	0	n/a	n/a	n/a	n/a	n/a
372.062	n/a	REC_WORD	186031	wordpools/wasnorm_wordpool.txt	LTP100	ltpFR	6	1	0	RAZOR	1171	n/a	0	n/a	n/a	n/a	n/a	n/a
373.498	n/a	REC_WORD	186749	wordpools/wasnorm_wordpool.txt	LTP100	ltpFR	6	1	0	LANDSCAPE	799	n/a	0	n/a	n/a	n/a	n/a	n/a
375.384	n/a	REC_WORD	187692	wordpools/wasnorm_wordpool.txt	LTP100	ltpFR	6	1	1	LAWN	805	n/a	0	n/a	n/a	n/a	n/a	n/a
376.492	n/a	REC_WORD	188246	wordpools/wasnorm_wordpool.txt	LTP100	ltpFR	6	1	1	LINT	826	n/a	0	n/a	n/a	n/a	n/a	n/a
380.542	n/a	REC_WORD	190271	wordpools/wasnorm_wordpool.txt	LTP100	ltpFR	6	1	1	POSSUM	1112	n/a	1	n/a	n/a	n/a	n/a	n/a
388.964	n/a	REC_WORD	194482	wordpools/wasnorm_wordpool.txt	LTP100	ltpFR	6	1	1	CARAVAN	242	n/a	0	n/a	n/a	n/a	n/a	n/a
407.378	n/a	REC_WORD	203689	wordpools/wasnorm_wordpool.txt	LTP100	ltpFR	6	1	1	CHAUFFEUR	283	n/a	1	n/a	n/a	n/a	n/a	n/a
428.226	n/a	REC_WORD	214113	wordpools/wasnorm_wordpool.txt	LTP100	ltpFR	6	1	0	IRON	744	n/a	0	n/a	n/a	n/a	n/a	n/a
449.672	n/a	WORD	224836	wordpools/wasnorm_wordpool.txt	LTP100	ltpFR	6	2	0	SKETCH	1315	n/a	0	1	0.412841796875	0.57763671875	upper	../fonts/zerothre.ttf
453.756	n/a	WORD	226878	wordpools/wasnorm_wordpool.txt	LTP100	ltpFR	6	2	0	VET	1560	n/a	1	1	0.412841796875	0.57763671875	upper	../fonts/zerothre.ttf
457.856	n/a	WORD	228928	wordpools/wasnorm_wordpool.txt	LTP100	ltpFR	6	2	1	TABLET	1427	n/a	0	0	0.5869140625	0.422607421875	lower	../fonts/amplitud.ttf
462.022	n/a	WORD	231011	wordpools/wasnorm_wordpool.txt	LTP100	ltpFR	6	2	1	VITAMIN	1574	n/a	0	0	0.5869140625	0.422607421875	lower	../fonts/amplitud.ttf
465.972	n/a	WORD	232986	wordpools/wasnorm_wordpool.txt	LTP100	ltpFR	6	2	1	LUNG	850	n/a	0	0	0.5869140625	0.422607421875	lower	../fonts/amplitud.ttf
469.798	n/a	WORD	234899	wordpools/wasnorm_wordpool.txt	LTP100	ltpFR	6	2	1	APPLICATION	34	n/a	0	0	0.5869140625	0.422607421875	lower	../fonts/amplitud.ttf
473.964	n/a	WORD	236982	wordpools/wasnorm_wordpool.txt	LTP100	ltpFR	6	2	1	DWARF	510	n/a	1	0	0.5869140625	0.422607421875	lower	../fonts/amplitud.ttf
477.788	n/a	WORD	238894	wordpools/wasnorm_wordpool.txt	LTP100	ltpFR	6	2	1	TOWER	1490	n/a	0	0	0.5869140625	0.422607421875	lower	../fonts/amplitud.ttf
481.646	n/a	WORD	240823	wordpools/wasnorm_wordpool.txt	LTP100	ltpFR	6	2	0	VILLAGE	1566	n/a	1	1	0.412841796875	0.57763671875	upper	../fonts/zerothre.ttf
485.812	n/a	WORD	242906	wordpools/wasnorm_wordpool.txt	LTP100	ltpFR	6	2	0	CITY	314	n/a	1	1	0.412841796875	0.57763671875	upper	../fonts/zerothre.ttf
489.906	n/a	WORD	244953	wordpools/wasnorm_wordpool.txt	LTP100	ltpFR	6	2	1	BEAST	108	n/a	1	0	0.5869140625	0.422607421875	lower	../fonts/amplitud.ttf
493.764	n/a	WORD	246882	wordpools/wasnorm_wordpool.txt	LTP100	ltpFR	6	2	1	PAINTING	1005	n/a	0	0	0.5869140625	0.422607421875	lower	../fonts/amplitud.ttf
497.912	n/a	WORD	248956	wordpools/wasnorm_wordpool.txt	LTP100	ltpFR	6	2	0	CAMEL	223	n/a	1	1	0.412841796875	0.57763671875	upper	../fonts/zerothre.ttf
502.106	n/a	WORD	251053	wordpools/wasnorm_wordpool.txt	LTP100	ltpFR	6	2	0	AWARD	63	n/a	1	1	0.412841796875	0.57763671875	upper	../fonts/zerothre.ttf
506.08	n/a	WORD	253040	wordpools/wasnorm_wordpool.txt	LTP100	ltpFR	6	2	0	PAN	1008	n/a	1	1	0.412841796875	0.57763671875	upper	../fonts/zerothre.ttf
510.296	n/a	WORD	255148	wordpools/wasnorm_wordpool.txt	LTP100	ltpFR	6	2	0	SERVANT	1271	n/a	1	1	0.412841796875	0.57763671875	upper	../fonts/zerothre.ttf
516.03	n/a	REC_START	258015	n/a	LTP100	ltpFR	6	2	n/a	n/a	n/a	n/a	n/a	n/a	n/a	n/a	n/a	n/a
517.572	n/a	REC_WORD	258786	wordpools/wasnorm_wordpool.txt	LTP100	ltpFR	6	2	0	CAMEL	223	n/a	1	n/a	n/a	n/a	n/a	n/a
518.188	n/a	REC_WORD	259094	wordpools/wasnorm_wordpool.txt	LTP100	ltpFR	6	2	0	AWARD	63	n/a	1	n/a	n/a	n/a	n/a	n/a
519.238	n/a	REC_WORD	259619	wordpools/wasnorm_wordpool.txt	LTP100	ltpFR	6	2	0	PAN	1008	n/a	1	n/a	n/a	n/a	n/a	n/a
520.246	n/a	REC_WORD	260123	wordpools/wasnorm_wordpool.txt	LTP100	ltpFR	6	2	0	SERVANT	1271	n/a	1	n/a	n/a	n/a	n/a	n/a
529.49	n/a	REC_WORD	264745	wordpools/wasnorm_wordpool.txt	LTP100	ltpFR	6	2	0	CITY	314	n/a	1	n/a	n/a	n/a	n/a	n/a
531.466	n/a	REC_WORD	265733	wordpools/wasnorm_wordpool.txt	LTP100	ltpFR	6	2	0	VET	1560	n/a	1	n/a	n/a	n/a	n/a	n/a
598.278	n/a	WORD	299139	wordpools/wasnorm_wordpool.txt	LTP100	ltpFR	6	3	1	CARD	243	n/a	0	0	0.5869140625	0.422607421875	lower	../fonts/amplitud.ttf
602.294	n/a	WORD	301147	wordpools/wasnorm_wordpool.txt	LTP100	ltpFR	6	3	1	SOFTBALL	1343	n/a	0	0	0.5869140625	0.422607421875	lower	../fonts/amplitud.ttf
606.352	n/a	WORD	303176	wordpools/wasnorm_wordpool.txt	LTP100	ltpFR	6	3	0	SHARK	1275	n/a	1	1	0.412841796875	0.57763671875	upper	../fonts/zerothre.ttf
610.276	n/a	WORD	305138	wordpools/wasnorm_wordpool.txt	LTP100	ltpFR	6	3	0	SEA	1259	n/a	1	1	0.412841796875	0.57763671875	upper	../fonts/zerothre.ttf
614.176	n/a	WORD	307088	wordpools/wasnorm_wordpool.txt	LTP100	ltpFR	6	3	0	VESSEL	1558	n/a	1	1	0.412841796875	0.57763671875	upper	../fonts/zerothre.ttf
618.276	n/a	WORD	309138	wordpools/wasnorm_wordpool.txt	LTP100	ltpFR	6	3	1	LIME	823	n/a	0	0	0.5869140625	0.422607421875	lower	../fonts/amplitud.ttf
622.334	n/a	WORD	311167	wordpools/wasnorm_wordpool.txt	LTP100	ltpFR	6	3	1	ATHLETE	52	n/a	1	0	0.5869140625	0.422607421875	lower	../fonts/amplitud.ttf
626.31	n/a	WORD	313155	wordpools/wasnorm_wordpool.txt	LTP100	ltpFR	6	3	1	FIN	566	n/a	0	0	0.5869140625	0.422607421875	lower	../fonts/amplitud.ttf
630.476	n/a	WORD	315238	wordpools/wasnorm_wordpool.txt	LTP100	ltpFR	6	3	0	TANGERINE	1431	n/a	0	1	0.412841796875	0.57763671875	upper	../fonts/zerothre.ttf
634.294	n/a	WORD	317147	wordpools/wasnorm_wordpool.txt	LTP100	ltpFR	6	3	0	JAM	748	n/a	0	1	0.412841796875	0.57763671875	upper	../fonts/zerothre.ttf
638.268	n/a	WORD	319134	wordpools/wasnorm_wordpool.txt	LTP100	ltpFR	6	3	0	WALRUS	1585	n/a	1	1	0.412841796875	0.57763671875	upper	../fonts/zerothre.ttf
642.26	n/a	WORD	321130	wordpools/wasnorm_wordpool.txt	LTP100	ltpFR	6	3	0	LEG	809	n/a	0	1	0.412841796875	0.57763671875	upper	../fonts/zerothre.ttf
646.184	n/a	WORD	323092	wordpools/wasnorm_wordpool.txt	LTP100	ltpFR	6	3	0	RELATIVE	1182	n/a	1	1	0.412841796875	0.57763671875	upper	../fonts/zerothre.ttf
650.15	n/a	WORD	325075	wordpools/wasnorm_wordpool.txt	LTP100	ltpFR	6	3	1	CANAL	226	n/a	0	0	0.5869140625	0.422607421875	lower	../fonts/amplitud.ttf
654.15	n/a	WORD	327075	wordpools/wasnorm_wordpool.txt	LTP100	ltpFR	6	3	1	DIVER	476	n/a	1	0	0.5869140625	0.422607421875	lower	../fonts/amplitud.ttf
658.358	n/a	WORD	329179	wordpools/wasnorm_wordpool.txt	LTP100	ltpFR	6	3	1	NET	946	n/a	0	0	0.5869140625	0.422607421875	lower	../fonts/amplitud.ttf
664.45	n/a	REC_START	332225	n/a	LTP100	ltpFR	6	3	n/a	n/a	n/a	n/a	n/a	n/a	n/a	n/a	n/a	n/a
666.99	n/a	REC_WORD	333495	wordpools/wasnorm_wordpool.txt	LTP100	ltpFR	6	3	0	RELATIVE	1182	n/a	1	n/a	n/a	n/a	n/a	n/a
668.038	n/a	REC_WORD	334019	wordpools/wasnorm_wordpool.txt	LTP100	ltpFR	6	3	1	CANAL	226	n/a	0	n/a	n/a	n/a	n/a	n/a
669.194	n/a	REC_WORD	334597	wordpools/wasnorm_wordpool.txt	LTP100	ltpFR	6	3	1	DIVER	476	n/a	1	n/a	n/a	n/a	n/a	n/a
670.322	n/a	REC_WORD	335161	wordpools/wasnorm_wordpool.txt	LTP100	ltpFR	6	3	1	NET	946	n/a	0	n/a	n/a	n/a	n/a	n/a
672.334	n/a	REC_WORD	336167	wordpools/wasnorm_wordpool.txt	LTP100	ltpFR	6	3	0	VESSEL	1558	n/a	1	n/a	n/a	n/a	n/a	n/a
673.496	n/a	REC_WORD	336748	wordpools/wasnorm_wordpool.txt	LTP100	ltpFR	6	3	0	SHARK	1275	n/a	1	n/a	n/a	n/a	n/a	n/a
674.868	n/a	REC_WORD	337434	wordpools/wasnorm_wordpool.txt	LTP100	ltpFR	6	3	1	FIN	566	n/a	0	n/a	n/a	n/a	n/a	n/a
705.244	n/a	REC_WORD	352622	wordpools/wasnorm_wordpool.txt	LTP100	ltpFR	6	3	0	JAM	748	n/a	0	n/a	n/a	n/a	n/a	n/a
706.542	n/a	REC_WORD	353271	wordpools/wasnorm_wordpool.txt	LTP100	ltpFR	6	3	0	LEG	809	n/a	0	n/a	n/a	n/a	n/a	n/a
745.514	n/a	WORD	372757	wordpools/wasnorm_wordpool.txt	LTP100	ltpFR	6	4	1	GUARD	667	n/a	1	0	0.5869140625	0.422607421875	lower	../fonts/amplitud.ttf
749.64	n/a	WORD	374820	wordpools/wasnorm_wordpool.txt	LTP100	ltpFR	6	4	1	BILL	126	n/a	0	0	0.5869140625	0.422607421875	lower	../fonts/amplitud.ttf
753.666	n/a	WORD	376833	wordpools/wasnorm_wordpool.txt	LTP100	ltpFR	6	4	1	MICROSCOPE	891	n/a	0	0	0.5869140625	0.422607421875	lower	../fonts/amplitud.ttf
757.624	n/a	WORD	378812	wordpools/wasnorm_wordpool.txt	LTP100	ltpFR	6	4	1	SKULL	1320	n/a	0	0	0.5869140625	0.422607421875	lower	../fonts/amplitud.ttf
761.64	n/a	WORD	380820	wordpools/wasnorm_wordpool.txt	LTP100	ltpFR	6	4	1	TEMPLE	1448	n/a	0	0	0.5869140625	0.422607421875	lower	../fonts/amplitud.ttf
765.764	n/a	WORD	382882	wordpools/wasnorm_wordpool.txt	LTP100	ltpFR	6	4	1	HOOD	714	n/a	0	0	0.5869140625	0.422607421875	lower	../fonts/amplitud.ttf
769.606	n/a	WORD	384803	wordpools/wasnorm_wordpool.txt	LTP100	ltpFR	6	4	1	MINK	897	n/a	0	0	0.5869140625	0.422607421875	lower	../fonts/amplitud.ttf
773.532	n/a	WORD	386766	wordpools/wasnorm_wordpool.txt	LTP100	ltpFR	6	4	1	BLACKBOARD	133	n/a	0	0	0.5869140625	0.422607421875	lower	../fonts/amplitud.ttf
777.49	n/a	WORD	388745	wordpools/wasnorm_wordpool.txt	LTP100	ltpFR	6	4	1	BULLETIN	195	n/a	0	0	0.5869140625	0.422607421875	lower	../fonts/amplitud.ttf
781.338	n/a	WORD	390669	wordpools/wasnorm_wordpool.txt	LTP100	ltpFR	6	4	1	STRANGER	1389	n/a	0	0	0.5869140625	0.422607421875	lower	../fonts/amplitud.ttf
785.322	n/a	WORD	392661	wordpools/wasnorm_wordpool.txt	LTP100	ltpFR	6	4	1	SALMON	1227	n/a	1	0	0.5869140625	0.422607421875	lower	../fonts/amplitud.ttf
789.396	n/a	WORD	394698	wordpools/wasnorm_wordpool.txt	LTP100	ltpFR	6	4	1	SHELL	1281	n/a	0	0	0.5869140625	0.422607421875	lower	../fonts/amplitud.ttf
793.606	n/a	WORD	396803	wordpools/wasnorm_wordpool.txt	LTP100	ltpFR	6	4	1	ENEMY	534	n/a	1	0	0.5869140625	0.422607421875	lower	../fonts/amplitud.ttf
797.488	n/a	WORD	398744	wordpools/wasnorm_wordpool.txt	LTP100	ltpFR	6	4	1	BIOLOGIST	128	n/a	1	0	0.5869140625	0.422607421875	lower	../fonts/amplitud.ttf
801.472	n/a	WORD	400736	wordpools/wasnorm_wordpool.txt	LTP100	ltpFR	6	4	1	DOCK	477	n/a	0	0	0.5869140625	0.422607421875	lower	../fonts/amplitud.ttf
805.388	n/a	WORD	402694	wordpools/wasnorm_wordpool.txt	LTP100	ltpFR	6	4	1	MANAGER	863	n/a	1	0	0.5869140625	0.422607421875	lower	../fonts/amplitud.ttf
811.114	n/a	REC_START	405557	n/a	LTP100	ltpFR	6	4	n/a	n/a	n/a	n/a	n/a	n/a	n/a	n/a	n/a	n/a
812.018	n/a	REC_WORD	406009	wordpools/wasnorm_wordpool.txt	LTP100	ltpFR	6	4	1	ENEMY	534	n/a	1	n/a	n/a	n/a	n/a	n/a
812.666	n/a	REC_WORD	406333	wordpools/wasnorm_wordpool.txt	LTP100	ltpFR	6	4	1	BIOLOGIST	128	n/a	1	n/a	n/a	n/a	n/a	n/a
813.894	n/a	REC_WORD	406947	wordpools/wasnorm_wordpool.txt	LTP100	ltpFR	6	4	1	DOCK	477	n/a	0	n/a	n/a	n/a	n/a	n/a
814.782	n/a	REC_WORD	407391	wordpools/wasnorm_wordpool.txt	LTP100	ltpFR	6	4	1	MANAGER	863	n/a	1	n/a	n/a	n/a	n/a	n/a
818.404	n/a	REC_WORD	409202	wordpools/wasnorm_wordpool.txt	LTP100	ltpFR	6	4	1	MICROSCOPE	891	n/a	0	n/a	n/a	n/a	n/a	n/a
842.436	n/a	REC_WORD	421218	wordpools/wasnorm_wordpool.txt	LTP100	ltpFR	6	4	1	BLACKBOARD	133	n/a	0	n/a	n/a	n/a	n/a	n/a
844.694	n/a	REC_WORD	422347	wordpools/wasnorm_wordpool.txt	LTP100	ltpFR	6	4	1	BULLETIN	195	n/a	0	n/a	n/a	n/a	n/a	n/a
860.23	n/a	REC_WORD	430115	wordpools/wasnorm_wordpool.txt	LTP100	ltpFR	6	4	1	BILL	126	n/a	0	n/a	n/a	n/a	n/a	n/a
895.07	n/a	WORD	447535	wordpools/wasnorm_wordpool.txt	LTP100	ltpFR	6	5	0	BOYFRIEND	162	n/a	1	1	0.412841796875	0.57763671875	upper	../fonts/zerothre.ttf
898.97	n/a	WORD	449485	wordpools/wasnorm_wordpool.txt	LTP100	ltpFR	6	5	0	ACORN	3	n/a	0	1	0.412841796875	0.57763671875	upper	../fonts/zerothre.ttf
902.894	n/a	WORD	451447	wordpools/wasnorm_wordpool.txt	LTP100	ltpFR	6	5	1	CATTLE	261	n/a	1	0	0.5869140625	0.422607421875	lower	../fonts/amplitud.ttf
907.078	n/a	WORD	453539	wordpools/wasnorm_wordpool.txt	LTP100	ltpFR	6	5	1	CERAMICS	271	n/a	0	0	0.5869140625	0.422607421875	lower	../fonts/amplitud.ttf
911.036	n/a	WORD	455518	wordpools/wasnorm_wordpool.txt	LTP100	ltpFR	6	5	1	HATCHET	691	n/a	0	0	0.5869140625	0.422607421875	lower	../fonts/amplitud.ttf
914.986	n/a	WORD	457493	wordpools/wasnorm_wordpool.txt	LTP100	ltpFR	6	5	1	SAW	1239	n/a	0	0	0.5869140625	0.422607421875	lower	../fonts/amplitud.ttf
919.178	n/a	WORD	459589	wordpools/wasnorm_wordpool.txt	LTP100	ltpFR	6	5	0	WARRIOR	1589	n/a	1	1	0.412841796875	0.57763671875	upper	../fonts/zerothre.ttf
923.276	n/a	WORD	461638	wordpools/wasnorm_wordpool.txt	LTP100	ltpFR	6	5	0	CHIEF	298	n/a	1	1	0.412841796875	0.57763671875	upper	../fonts/zerothre.ttf
927.244	n/a	WORD	463622	wordpools/wasnorm_wordpool.txt	LTP100	ltpFR	6	5	0	FOREST	593	n/a	1	1	0.412841796875	0.57763671875	upper	../fonts/zerothre.ttf
931.06	n/a	WORD	465530	wordpools/wasnorm_wordpool.txt	LTP100	ltpFR	6	5	1	CRAB	397	n/a	1	0	0.5869140625	0.422607421875	lower	../fonts/amplitud.ttf
934.91	n/a	WORD	467455	wordpools/wasnorm_wordpool.txt	LTP100	ltpFR	6	5	1	SPATULA	1348	n/a	0	0	0.5869140625	0.422607421875	lower	../fonts/amplitud.ttf
938.868	n/a	WORD	469434	wordpools/wasnorm_wordpool.txt	LTP100	ltpFR	6	5	1	TUNNEL	1519	n/a	0	0	0.5869140625	0.422607421875	lower	../fonts/amplitud.ttf
942.876	n/a	WORD	471438	wordpools/wasnorm_wordpool.txt	LTP100	ltpFR	6	5	1	FUNGUS	614	n/a	1	0	0.5869140625	0.422607421875	lower	../fonts/amplitud.ttf
946.926	n/a	WORD	473463	wordpools/wasnorm_wordpool.txt	LTP100	ltpFR	6	5	0	BAKER	71	n/a	1	1	0.412841796875	0.57763671875	upper	../fonts/zerothre.ttf
951.094	n/a	WORD	475547	wordpools/wasnorm_wordpool.txt	LTP100	ltpFR	6	5	0	SALESMAN	1225	n/a	1	1	0.412841796875	0.57763671875	upper	../fonts/zerothre.ttf
955.144	n/a	WORD	477572	wordpools/wasnorm_wordpool.txt	LTP100	ltpFR	6	5	0	COUNTY	389	n/a	1	1	0.412841796875	0.57763671875	upper	../fonts/zerothre.ttf
960.752	n/a	REC_START	480376	n/a	LTP100	ltpFR	6	5	n/a	n/a	n/a	n/a	n/a	n/a	n/a	n/a	n/a	n/a
962.152	n/a	REC_WORD	481076	wordpools/wasnorm_wordpool.txt	LTP100	ltpFR	6	5	0	FOREST	593	n/a	1	n/a	n/a	n/a	n/a	n/a
963.26	n/a	REC_WORD	481630	wordpools/wasnorm_wordpool.txt	LTP100	ltpFR	6	5	0	BAKER	71	n/a	1	n/a	n/a	n/a	n/a	n/a
964.004	n/a	REC_WORD	482002	wordpools/wasnorm_wordpool.txt	LTP100	ltpFR	6	5	0	SALESMAN	1225	n/a	1	n/a	n/a	n/a	n/a	n/a
965.316	n/a	REC_WORD	482658	wordpools/wasnorm_wordpool.txt	LTP100	ltpFR	6	5	0	COUNTY	389	n/a	1	n/a	n/a	n/a	n/a	n/a
968.164	n/a	REC_WORD	484082	wordpools/wasnorm_wordpool.txt	LTP100	ltpFR	6	5	0	BOYFRIEND	162	n/a	1	n/a	n/a	n/a	n/a	n/a
971.742	n/a	REC_WORD	485871	wordpools/wasnorm_wordpool.txt	LTP100	ltpFR	6	5	1	HATCHET	691	n/a	0	n/a	n/a	n/a	n/a	n/a
972.49	n/a	REC_WORD	486245	wordpools/wasnorm_wordpool.txt	LTP100	ltpFR	6	5	1	SAW	1239	n/a	0	n/a	n/a	n/a	n/a	n/a
990.954	n/a	REC_WORD	495477	wordpools/wasnorm_wordpool.txt	LTP100	ltpFR	6	5	1	CERAMICS	271	n/a	0	n/a	n/a	n/a	n/a	n/a
996.926	n/a	REC_WORD	498463	wordpools/wasnorm_wordpool.txt	LTP100	ltpFR	6	5	1	FUNGUS	614	n/a	1	n/a	n/a	n/a	n/a	n/a
1021.312	n/a	REC_WORD	510656	wordpools/wasnorm_wordpool.txt	LTP100	ltpFR	6	5	0	ACORN	3	n/a	0	n/a	n/a	n/a	n/a	n/a
1039.166	n/a	WORD	519583	wordpools/wasnorm_wordpool.txt	LTP100	ltpFR	6	6	-1	MEDAL	885	n/a	-1	1	1.0	1.0	upper	../fonts/Verdana.ttf
1043.216	n/a	WORD	521608	wordpools/wasnorm_wordpool.txt	LTP100	ltpFR	6	6	-1	TROPHY	1509	n/a	-1	1	1.0	1.0	upper	../fonts/Verdana.ttf
1047.406	n/a	WORD	523703	wordpools/wasnorm_wordpool.txt	LTP100	ltpFR	6	6	-1	SHEPHERD	1283	n/a	-1	1	1.0	1.0	upper	../fonts/Verdana.ttf
1051.414	n/a	WORD	525707	wordpools/wasnorm_wordpool.txt	LTP100	ltpFR	6	6	-1	ARM	38	n/a	-1	1	1.0	1.0	upper	../fonts/Verdana.ttf
1055.55	n/a	WORD	527775	wordpools/wasnorm_wordpool.txt	LTP100	ltpFR	6	6	-1	TWINE	1529	n/a	-1	1	1.0	1.0	upper	../fonts/Verdana.ttf
1059.708	n/a	WORD	529854	wordpools/wasnorm_wordpool.txt	LTP100	ltpFR	6	6	-1	MOAT	903	n/a	-1	1	1.0	1.0	upper	../fonts/Verdana.ttf
1063.774	n/a	WORD	531887	wordpools/wasnorm_wordpool.txt	LTP100	ltpFR	6	6	-1	WHALE	1601	n/a	-1	1	1.0	1.0	upper	../fonts/Verdana.ttf
1067.614	n/a	WORD	533807	wordpools/wasnorm_wordpool.txt	LTP100	ltpFR	6	6	-1	CHALK	276	n/a	-1	1	1.0	1.0	upper	../fonts/Verdana.ttf
1071.448	n/a	WORD	535724	wordpools/wasnorm_wordpool.txt	LTP100	ltpFR	6	6	-1	VIDEO	1564	n/a	-1	1	1.0	1.0	upper	../fonts/Verdana.ttf
1075.548	n/a	WORD	537774	wordpools/wasnorm_wordpool.txt	LTP100	ltpFR	6	6	-1	MECHANIC	884	n/a	-1	1	1.0	1.0	upper	../fonts/Verdana.ttf
1079.606	n/a	WORD	539803	wordpools/wasnorm_wordpool.txt	LTP100	ltpFR	6	6	-1	BRAKE	166	n/a	-1	1	1.0	1.0	upper	../fonts/Verdana.ttf
1083.614	n/a	WORD	541807	wordpools/wasnorm_wordpool.txt	LTP100	ltpFR	6	6	-1	COCOON	339	n/a	-1	1	1.0	1.0	upper	../fonts/Verdana.ttf
1087.58	n/a	WORD	543790	wordpools/wasnorm_wordpool.txt	LTP100	ltpFR	6	6	-1	ORCHESTRA	981	n/a	-1	1	1.0	1.0	upper	../fonts/Verdana.ttf
1091.43	n/a	WORD	545715	wordpools/wasnorm_wordpool.txt	LTP100	ltpFR	6	6	-1	JOINT	758	n/a	-1	1	1.0	1.0	upper	../fonts/Verdana.ttf
1095.488	n/a	WORD	547744	wordpools/wasnorm_wordpool.txt	LTP100	ltpFR	6	6	-1	RUM	1217	n/a	-1	1	1.0	1.0	upper	../fonts/Verdana.ttf
1099.372	n/a	WORD	549686	wordpools/wasnorm_wordpool.txt	LTP100	ltpFR	6	6	-1	WHISTLE	1606	n/a	-1	1	1.0	1.0	upper	../fonts/Verdana.ttf
1105.264	n/a	REC_START	552632	n/a	LTP100	ltpFR	6	6	n/a	n/a	n/a	n/a	n/a	n/a	n/a	n/a	n/a	n/a
1107.354	n/a	REC_WORD	553677	wordpools/wasnorm_wordpool.txt	LTP100	ltpFR	6	6	-1	COCOON	339	n/a	-1	n/a	n/a	n/a	n/a	n/a
1108.402	n/a	REC_WORD	554201	wordpools/wasnorm_wordpool.txt	LTP100	ltpFR	6	6	-1	ORCHESTRA	981	n/a	-1	n/a	n/a	n/a	n/a	n/a
1109.58	n/a	REC_WORD	554790	wordpools/wasnorm_wordpool.txt	LTP100	ltpFR	6	6	-1	JOINT	758	n/a	-1	n/a	n/a	n/a	n/a	n/a
1110.478	n/a	REC_WORD	555239	wordpools/wasnorm_wordpool.txt	LTP100	ltpFR	6	6	n/a	DRUM	502	n/a	n/a	n/a	n/a	n/a	n/a	n/a
1111.564	n/a	REC_WORD	555782	wordpools/wasnorm_wordpool.txt	LTP100	ltpFR	6	6	-1	WHISTLE	1606	n/a	-1	n/a	n/a	n/a	n/a	n/a
1116.914	n/a	REC_WORD	558457	wordpools/wasnorm_wordpool.txt	LTP100	ltpFR	6	6	-1	MEDAL	885	n/a	-1	n/a	n/a	n/a	n/a	n/a
1145.17	n/a	REC_WORD	572585	wordpools/wasnorm_wordpool.txt	LTP100	ltpFR	6	6	-1	MECHANIC	884	n/a	-1	n/a	n/a	n/a	n/a	n/a
1192.912	n/a	WORD	596456	wordpools/wasnorm_wordpool.txt	LTP100	ltpFR	6	7	0	TRANSPLANT	1496	n/a	0	1	0.412841796875	0.57763671875	upper	../fonts/zerothre.ttf
1197.114	n/a	WORD	598557	wordpools/wasnorm_wordpool.txt	LTP100	ltpFR	6	7	0	ENCYCLOPEDIA	533	n/a	0	1	0.412841796875	0.57763671875	upper	../fonts/zerothre.ttf
1201.27	n/a	WORD	600635	wordpools/wasnorm_wordpool.txt	LTP100	ltpFR	6	7	0	VISITOR	1573	n/a	1	1	0.412841796875	0.57763671875	upper	../fonts/zerothre.ttf
1205.444	n/a	WORD	602722	wordpools/wasnorm_wordpool.txt	LTP100	ltpFR	6	7	0	SALIVA	1226	n/a	0	1	0.412841796875	0.57763671875	upper	../fonts/zerothre.ttf
1209.62	n/a	WORD	604810	wordpools/wasnorm_wordpool.txt	LTP100	ltpFR	6	7	0	PAW	1029	n/a	0	1	0.412841796875	0.57763671875	upper	../fonts/zerothre.ttf
1213.77	n/a	WORD	606885	wordpools/wasnorm_wordpool.txt	LTP100	ltpFR	6	7	0	AIRPORT	13	n/a	1	1	0.412841796875	0.57763671875	upper	../fonts/zerothre.ttf
1217.736	n/a	WORD	608868	wordpools/wasnorm_wordpool.txt	LTP100	ltpFR	6	7	0	DAM	436	n/a	1	1	0.412841796875	0.57763671875	upper	../fonts/zerothre.ttf
1221.594	n/a	WORD	610797	wordpools/wasnorm_wordpool.txt	LTP100	ltpFR	6	7	0	CARPENTER	246	n/a	1	1	0.412841796875	0.57763671875	upper	../fonts/zerothre.ttf
1225.552	n/a	WORD	612776	wordpools/wasnorm_wordpool.txt	LTP100	ltpFR	6	7	0	DEER	444	n/a	1	1	0.412841796875	0.57763671875	upper	../fonts/zerothre.ttf
1229.694	n/a	WORD	614847	wordpools/wasnorm_wordpool.txt	LTP100	ltpFR	6	7	0	TICKET	1464	n/a	0	1	0.412841796875	0.57763671875	upper	../fonts/zerothre.ttf
1233.868	n/a	WORD	616934	wordpools/wasnorm_wordpool.txt	LTP100	ltpFR	6	7	0	KIDNEY	776	n/a	0	1	0.412841796875	0.57763671875	upper	../fonts/zerothre.ttf
1238.062	n/a	WORD	619031	wordpools/wasnorm_wordpool.txt	LTP100	ltpFR	6	7	0	BIBLE	124	n/a	0	1	0.412841796875	0.57763671875	upper	../fonts/zerothre.ttf
1242.036	n/a	WORD	621018	wordpools/wasnorm_wordpool.txt	LTP100	ltpFR	6	7	0	CATCHER	258	n/a	1	1	0.412841796875	0.57763671875	upper	../fonts/zerothre.ttf
1246.128	n/a	WORD	623064	wordpools/wasnorm_wordpool.txt	LTP100	ltpFR	6	7	0	BARK	87	n/a	1	1	0.412841796875	0.57763671875	upper	../fonts/zerothre.ttf
1250.286	n/a	WORD	625143	wordpools/wasnorm_wordpool.txt	LTP100	ltpFR	6	7	0	CONVENT	370	n/a	1	1	0.412841796875	0.57763671875	upper	../fonts/zerothre.ttf
1254.394	n/a	WORD	627197	wordpools/wasnorm_wordpool.txt	LTP100	ltpFR	6	7	0	PRIEST	1122	n/a	1	1	0.412841796875	0.57763671875	upper	../fonts/zerothre.ttf
1260.22	n/a	REC_START	630110	n/a	LTP100	ltpFR	6	7	n/a	n/a	n/a	n/a	n/a	n/a	n/a	n/a	n/a	n/a
1261.592	n/a	REC_WORD	630796	wordpools/wasnorm_wordpool.txt	LTP100	ltpFR	6	7	0	CATCHER	258	n/a	1	n/a	n/a	n/a	n/a	n/a
1262.598	n/a	REC_WORD	631299	wordpools/wasnorm_wordpool.txt	LTP100	ltpFR	6	7	0	BARK	87	n/a	1	n/a	n/a	n/a	n/a	n/a
1263.416	n/a	REC_WORD	631708	wordpools/wasnorm_wordpool.txt	LTP100	ltpFR	6	7	0	CONVENT	370	n/a	1	n/a	n/a	n/a	n/a	n/a
1264.704	n/a	REC_WORD	632352	wordpools/wasnorm_wordpool.txt	LTP100	ltpFR	6	7	0	PRIEST	1122	n/a	1	n/a	n/a	n/a	n/a	n/a
1266.12	n/a	REC_WORD	633060	wordpools/wasnorm_wordpool.txt	LTP100	ltpFR	6	7	0	CARPENTER	246	n/a	1	n/a	n/a	n/a	n/a	n/a
1268.864	n/a	REC_WORD	634432	wordpools/wasnorm_wordpool.txt	LTP100	ltpFR	6	7	0	ENCYCLOPEDIA	533	n/a	0	n/a	n/a	n/a	n/a	n/a
1271.408	n/a	REC_WORD	635704	wordpools/wasnorm_wordpool.txt	LTP100	ltpFR	6	7	0	BIBLE	124	n/a	0	n/a	n/a	n/a	n/a	n/a
1276.024	n/a	REC_WORD	638012	wordpools/wasnorm_wordpool.txt	LTP100	ltpFR	6	7	0	TRANSPLANT	1496	n/a	0	n/a	n/a	n/a	n/a	n/a
1277.246	n/a	REC_WORD	638623	wordpools/wasnorm_wordpool.txt	LTP100	ltpFR	6	7	0	KIDNEY	776	n/a	0	n/a	n/a	n/a	n/a	n/a
1282.45	n/a	REC_WORD	641225	wordpools/wasnorm_wordpool.txt	LTP100	ltpFR	6	7	0	VISITOR	1573	n/a	1	n/a	n/a	n/a	n/a	n/a
1293.924	n/a	REC_WORD	646962	wordpools/wasnorm_wordpool.txt	LTP100	ltpFR	6	7	0	SALIVA	1226	n/a	0	n/a	n/a	n/a	n/a	n/a
1338.516	n/a	WORD	669258	wordpools/wasnorm_wordpool.txt	LTP100	ltpFR	6	8	-1	TUNA	1518	n/a	-1	1	1.0	1.0	upper	../fonts/Verdana.ttf
1342.342	n/a	WORD	671171	wordpools/wasnorm_wordpool.txt	LTP100	ltpFR	6	8	-1	CLIMBER	323	n/a	-1	1	1.0	1.0	upper	../fonts/Verdana.ttf
1346.424	n/a	WORD	673212	wordpools/wasnorm_wordpool.txt	LTP100	ltpFR	6	8	-1	APARTMENT	30	n/a	-1	1	1.0	1.0	upper	../fonts/Verdana.ttf
1350.24	n/a	WORD	675120	wordpools/wasnorm_wordpool.txt	LTP100	ltpFR	6	8	-1	BUILDING	191	n/a	-1	1	1.0	1.0	upper	../fonts/Verdana.ttf
1354.266	n/a	WORD	677133	wordpools/wasnorm_wordpool.txt	LTP100	ltpFR	6	8	-1	SEAL	1262	n/a	-1	1	1.0	1.0	upper	../fonts/Verdana.ttf
1358.248	n/a	WORD	679124	wordpools/wasnorm_wordpool.txt	LTP100	ltpFR	6	8	-1	TUBE	1516	n/a	-1	1	1.0	1.0	upper	../fonts/Verdana.ttf
1362.142	n/a	WORD	681071	wordpools/wasnorm_wordpool.txt	LTP100	ltpFR	6	8	-1	STADIUM	1364	n/a	-1	1	1.0	1.0	upper	../fonts/Verdana.ttf
1366.016	n/a	WORD	683008	wordpools/wasnorm_wordpool.txt	LTP100	ltpFR	6	8	-1	RICE	1190	n/a	-1	1	1.0	1.0	upper	../fonts/Verdana.ttf
1369.99	n/a	WORD	684995	wordpools/wasnorm_wordpool.txt	LTP100	ltpFR	6	8	-1	DRYER	503	n/a	-1	1	1.0	1.0	upper	../fonts/Verdana.ttf
1374.058	n/a	WORD	687029	wordpools/wasnorm_wordpool.txt	LTP100	ltpFR	6	8	-1	NOOSE	956	n/a	-1	1	1.0	1.0	upper	../fonts/Verdana.ttf
1377.882	n/a	WORD	688941	wordpools/wasnorm_wordpool.txt	LTP100	ltpFR	6	8	-1	ROPE	1211	n/a	-1	1	1.0	1.0	upper	../fonts/Verdana.ttf
1381.758	n/a	WORD	690879	wordpools/wasnorm_wordpool.txt	LTP100	ltpFR	6	8	-1	BLACKBERRY	132	n/a	-1	1	1.0	1.0	upper	../fonts/Verdana.ttf
1385.966	n/a	WORD	692983	wordpools/wasnorm_wordpool.txt	LTP100	ltpFR	6	8	-1	DRAWER	493	n/a	-1	1	1.0	1.0	upper	../fonts/Verdana.ttf
1389.798	n/a	WORD	694899	wordpools/wasnorm_wordpool.txt	LTP100	ltpFR	6	8	-1	LOBSTER	837	n/a	-1	1	1.0	1.0	upper	../fonts/Verdana.ttf
1393.964	n/a	WORD	696982	wordpools/wasnorm_wordpool.txt	LTP100	ltpFR	6	8	-1	DOCTOR	478	n/a	-1	1	1.0	1.0	upper	../fonts/Verdana.ttf
1398.048	n/a	WORD	699024	wordpools/wasnorm_wordpool.txt	LTP100	ltpFR	6	8	-1	HOOK	715	n/a	-1	1	1.0	1.0	upper	../fonts/Verdana.ttf
1404.134	n/a	REC_START	702067	n/a	LTP100	ltpFR	6	8	n/a	n/a	n/a	n/a	n/a	n/a	n/a	n/a	n/a	n/a
1405.594	n/a	REC_WORD	702797	wordpools/wasnorm_wordpool.txt	LTP100	ltpFR	6	8	-1	DRAWER	493	n/a	-1	n/a	n/a	n/a	n/a	n/a
1406.572	n/a	REC_WORD	703286	wordpools/wasnorm_wordpool.txt	LTP100	ltpFR	6	8	-1	LOBSTER	837	n/a	-1	n/a	n/a	n/a	n/a	n/a
1407.69	n/a	REC_WORD	703845	wordpools/wasnorm_wordpool.txt	LTP100	ltpFR	6	8	-1	DOCTOR	478	n/a	-1	n/a	n/a	n/a	n/a	n/a
1408.768	n/a	REC_WORD	704384	wordpools/wasnorm_wordpool.txt	LTP100	ltpFR	6	8	-1	HOOK	715	n/a	-1	n/a	n/a	n/a	n/a	n/a
1421.67	n/a	REC_WORD	710835	wordpools/wasnorm_wordpool.txt	LTP100	ltpFR	6	8	-1	TUNA	1518	n/a	-1	n/a	n/a	n/a	n/a	n/a
1423.57	n/a	REC_WORD	711785	wordpools/wasnorm_wordpool.txt	LTP100	ltpFR	6	8	-1	SEAL	1262	n/a	-1	n/a	n/a	n/a	n/a	n/a
1435.358	n/a	REC_WORD	717679	wordpools/wasnorm_wordpool.txt	LTP100	ltpFR	6	8	-1	NOOSE	956	n/a	-1	n/a	n/a	n/a	n/a	n/a
1436.266	n/a	REC_WORD	718133	wordpools/wasnorm_wordpool.txt	LTP100	ltpFR	6	8	-1	ROPE	1211	n/a	-1	n/a	n/a	n/a	n/a	n/a
1437.104	n/a	REC_WORD	718552	wordpools/wasnorm_wordpool.txt	LTP100	ltpFR	6	8	-1	BLACKBERRY	132	n/a	-1	n/a	n/a	n/a	n/a	n/a
1461.372	n/a	REC_WORD	730686	wordpools/wasnorm_wordpool.txt	LTP100	ltpFR	6	8	-1	BUILDING	191	n/a	-1	n/a	n/a	n/a	n/a	n/a
1493.17	n/a	WORD	746585	wordpools/wasnorm_wordpool.txt	LTP100	ltpFR	6	9	-1	SLIDE	1326	n/a	-1	1	1.0	1.0	upper	../fonts/Verdana.ttf
1496.986	n/a	WORD	748493	wordpools/wasnorm_wordpool.txt	LTP100	ltpFR	6	9	-1	DINNER	468	n/a	-1	1	1.0	1.0	upper	../fonts/Verdana.ttf
1500.954	n/a	WORD	750477	wordpools/wasnorm_wordpool.txt	LTP100	ltpFR	6	9	-1	CLOWN	330	n/a	-1	1	1.0	1.0	upper	../fonts/Verdana.ttf
1505.13	n/a	WORD	752565	wordpools/wasnorm_wordpool.txt	LTP100	ltpFR	6	9	-1	QUILT	1151	n/a	-1	1	1.0	1.0	upper	../fonts/Verdana.ttf
1509.22	n/a	WORD	754610	wordpools/wasnorm_wordpool.txt	LTP100	ltpFR	6	9	-1	HAMMOCK	681	n/a	-1	1	1.0	1.0	upper	../fonts/Verdana.ttf
1513.344	n/a	WORD	756672	wordpools/wasnorm_wordpool.txt	LTP100	ltpFR	6	9	-1	ACROBAT	4	n/a	-1	1	1.0	1.0	upper	../fonts/Verdana.ttf
1517.42	n/a	WORD	758710	wordpools/wasnorm_wordpool.txt	LTP100	ltpFR	6	9	-1	LOFT	840	n/a	-1	1	1.0	1.0	upper	../fonts/Verdana.ttf
1521.62	n/a	WORD	760810	wordpools/wasnorm_wordpool.txt	LTP100	ltpFR	6	9	-1	SHORTCAKE	1292	n/a	-1	1	1.0	1.0	upper	../fonts/Verdana.ttf
1525.728	n/a	WORD	762864	wordpools/wasnorm_wordpool.txt	LTP100	ltpFR	6	9	-1	AIRPLANE	12	n/a	-1	1	1.0	1.0	upper	../fonts/Verdana.ttf
1529.652	n/a	WORD	764826	wordpools/wasnorm_wordpool.txt	LTP100	ltpFR	6	9	-1	SHRUB	1299	n/a	-1	1	1.0	1.0	upper	../fonts/Verdana.ttf
1533.536	n/a	WORD	766768	wordpools/wasnorm_wordpool.txt	LTP100	ltpFR	6	9	-1	WEED	1599	n/a	-1	1	1.0	1.0	upper	../fonts/Verdana.ttf
1537.502	n/a	WORD	768751	wordpools/wasnorm_wordpool.txt	LTP100	ltpFR	6	9	-1	CAKE	219	n/a	-1	1	1.0	1.0	upper	../fonts/Verdana.ttf
1541.362	n/a	WORD	770681	wordpools/wasnorm_wordpool.txt	LTP100	ltpFR	6	9	-1	PLUM	1090	n/a	-1	1	1.0	1.0	upper	../fonts/Verdana.ttf
1545.478	n/a	WORD	772739	wordpools/wasnorm_wordpool.txt	LTP100	ltpFR	6	9	-1	GEM	629	n/a	-1	1	1.0	1.0	upper	../fonts/Verdana.ttf
1549.586	n/a	WORD	774793	wordpools/wasnorm_wordpool.txt	LTP100	ltpFR	6	9	-1	DIAMOND	458	n/a	-1	1	1.0	1.0	upper	../fonts/Verdana.ttf
1553.728	n/a	WORD	776864	wordpools/wasnorm_wordpool.txt	LTP100	ltpFR	6	9	-1	BRIDGE	174	n/a	-1	1	1.0	1.0	upper	../fonts/Verdana.ttf
1559.386	n/a	REC_START	779693	n/a	LTP100	ltpFR	6	9	n/a	n/a	n/a	n/a	n/a	n/a	n/a	n/a	n/a	n/a
1561.396	n/a	REC_WORD	780698	wordpools/wasnorm_wordpool.txt	LTP100	ltpFR	6	9	-1	SHRUB	1299	n/a	-1	n/a	n/a	n/a	n/a	n/a
1562.674	n/a	REC_WORD	781337	wordpools/wasnorm_wordpool.txt	LTP100	ltpFR	6	9	-1	WEED	1599	n/a	-1	n/a	n/a	n/a	n/a	n/a
1563.632	n/a	REC_WORD	781816	wordpools/wasnorm_wordpool.txt	LTP100	ltpFR	6	9	-1	CAKE	219	n/a	-1	n/a	n/a	n/a	n/a	n/a
1564.818	n/a	REC_WORD	782409	wordpools/wasnorm_wordpool.txt	LTP100	ltpFR	6	9	-1	PLUM	1090	n/a	-1	n/a	n/a	n/a	n/a	n/a
1567.128	n/a	REC_WORD	783564	wordpools/wasnorm_wordpool.txt	LTP100	ltpFR	6	9	-1	DIAMOND	458	n/a	-1	n/a	n/a	n/a	n/a	n/a
1568.202	n/a	REC_WORD	784101	wordpools/wasnorm_wordpool.txt	LTP100	ltpFR	6	9	-1	GEM	629	n/a	-1	n/a	n/a	n/a	n/a	n/a
1569.868	n/a	REC_WORD	784934	wordpools/wasnorm_wordpool.txt	LTP100	ltpFR	6	9	-1	CLOWN	330	n/a	-1	n/a	n/a	n/a	n/a	n/a
1570.766	n/a	REC_WORD	785383	wordpools/wasnorm_wordpool.txt	LTP100	ltpFR	6	9	-1	ACROBAT	4	n/a	-1	n/a	n/a	n/a	n/a	n/a
1632.508	n/a	REC_WORD	816254	wordpools/wasnorm_wordpool.txt	LTP100	ltpFR	6	9	-1	DRYER	503	n/a	-1	n/a	n/a	n/a	n/a	n/a
1638.35	n/a	WORD	819175	wordpools/wasnorm_wordpool.txt	LTP100	ltpFR	6	10	0	CONSOLE	364	n/a	1	1	0.412841796875	0.57763671875	upper	../fonts/zerothre.ttf
1642.268	n/a	WORD	821134	wordpools/wasnorm_wordpool.txt	LTP100	ltpFR	6	10	0	CAR	241	n/a	1	1	0.412841796875	0.57763671875	upper	../fonts/zerothre.ttf
1646.142	n/a	WORD	823071	wordpools/wasnorm_wordpool.txt	LTP100	ltpFR	6	10	0	ALLEY	15	n/a	1	1	0.412841796875	0.57763671875	upper	../fonts/zerothre.ttf
1650.324	n/a	WORD	825162	wordpools/wasnorm_wordpool.txt	LTP100	ltpFR	6	10	0	BUTLER	204	n/a	1	1	0.412841796875	0.57763671875	upper	../fonts/zerothre.ttf
1654.382	n/a	WORD	827191	wordpools/wasnorm_wordpool.txt	LTP100	ltpFR	6	10	1	MOLECULE	905	n/a	0	0	0.5869140625	0.422607421875	lower	../fonts/amplitud.ttf
1658.532	n/a	WORD	829266	wordpools/wasnorm_wordpool.txt	LTP100	ltpFR	6	10	1	GARBAGE	622	n/a	0	0	0.5869140625	0.422607421875	lower	../fonts/amplitud.ttf
1662.566	n/a	WORD	831283	wordpools/wasnorm_wordpool.txt	LTP100	ltpFR	6	10	1	STEAM	1375	n/a	0	0	0.5869140625	0.422607421875	lower	../fonts/amplitud.ttf
1666.442	n/a	WORD	833221	wordpools/wasnorm_wordpool.txt	LTP100	ltpFR	6	10	0	NEUTRON	947	n/a	0	1	0.412841796875	0.57763671875	upper	../fonts/zerothre.ttf
1670.616	n/a	WORD	835308	wordpools/wasnorm_wordpool.txt	LTP100	ltpFR	6	10	0	PRINTER	1126	n/a	1	1	0.412841796875	0.57763671875	upper	../fonts/zerothre.ttf
1674.658	n/a	WORD	837329	wordpools/wasnorm_wordpool.txt	LTP100	ltpFR	6	10	0	BOUILLON	154	n/a	0	1	0.412841796875	0.57763671875	upper	../fonts/zerothre.ttf
1678.558	n/a	WORD	839279	wordpools/wasnorm_wordpool.txt	LTP100	ltpFR	6	10	0	FRIAR	605	n/a	1	1	0.412841796875	0.57763671875	upper	../fonts/zerothre.ttf
1682.408	n/a	WORD	841204	wordpools/wasnorm_wordpool.txt	LTP100	ltpFR	6	10	1	CHAPEL	280	n/a	0	0	0.5869140625	0.422607421875	lower	../fonts/amplitud.ttf
1686.55	n/a	WORD	843275	wordpools/wasnorm_wordpool.txt	LTP100	ltpFR	6	10	1	PIZZA	1079	n/a	0	0	0.5869140625	0.422607421875	lower	../fonts/amplitud.ttf
1690.448	n/a	WORD	845224	wordpools/wasnorm_wordpool.txt	LTP100	ltpFR	6	10	1	RACCOON	1153	n/a	1	0	0.5869140625	0.422607421875	lower	../fonts/amplitud.ttf
1694.624	n/a	WORD	847312	wordpools/wasnorm_wordpool.txt	LTP100	ltpFR	6	10	1	CUB	419	n/a	1	0	0.5869140625	0.422607421875	lower	../fonts/amplitud.ttf
1698.606	n/a	WORD	849303	wordpools/wasnorm_wordpool.txt	LTP100	ltpFR	6	10	1	SAUSAGE	1238	n/a	0	0	0.5869140625	0.422607421875	lower	../fonts/amplitud.ttf
1704.508	n/a	REC_START	852254	n/a	LTP100	ltpFR	6	10	n/a	n/a	n/a	n/a	n/a	n/a	n/a	n/a	n/a	n/a
1705.89	n/a	REC_WORD	852945	wordpools/wasnorm_wordpool.txt	LTP100	ltpFR	6	10	1	RACCOON	1153	n/a	1	n/a	n/a	n/a	n/a	n/a
1706.698	n/a	REC_WORD	853349	wordpools/wasnorm_wordpool.txt	LTP100	ltpFR	6	10	1	CUB	419	n/a	1	n/a	n/a	n/a	n/a	n/a
1707.41	n/a	REC_WORD	853705	wordpools/wasnorm_wordpool.txt	LTP100	ltpFR	6	10	1	SAUSAGE	1238	n/a	0	n/a	n/a	n/a	n/a	n/a
1710.158	n/a	REC_WORD	855079	wordpools/wasnorm_wordpool.txt	LTP100	ltpFR	6	10	0	FRIAR	605	n/a	1	n/a	n/a	n/a	n/a	n/a
1711.072	n/a	REC_WORD	855536	wordpools/wasnorm_wordpool.txt	LTP100	ltpFR	6	10	0	BOUILLON	154	n/a	0	n/a	n/a	n/a	n/a	n/a
1729.756	n/a	REC_WORD	864878	wordpools/wasnorm_wordpool.txt	LTP100	ltpFR	6	10	1	CHAPEL	280	n/a	0	n/a	n/a	n/a	n/a	n/a
1735.442	n/a	REC_WORD	867721	wordpools/wasnorm_wordpool.txt	LTP100	ltpFR	6	10	0	ALLEY	15	n/a	1	n/a	n/a	n/a	n/a	n/a
1747.366	n/a	REC_WORD	873683	wordpools/wasnorm_wordpool.txt	LTP100	ltpFR	6	10	1	MOLECULE	905	n/a	0	n/a	n/a	n/a	n/a	n/a
1748.29	n/a	REC_WORD	874145	wordpools/wasnorm_wordpool.txt	LTP100	ltpFR	6	10	0	NEUTRON	947	n/a	0	n/a	n/a	n/a	n/a	n/a
1757.19	n/a	REC_WORD	878595	wordpools/wasnorm_wordpool.txt	LTP100	ltpFR	6	10	1	GARBAGE	622	n/a	0	n/a	n/a	n/a	n/a	n/a
1782.796	n/a	WORD	891398	wordpools/wasnorm_wordpool.txt	LTP100	ltpFR	6	11	1	DOG	480	n/a	1	0	0.5869140625	0.422607421875	lower	../fonts/amplitud.ttf
1786.906	n/a	WORD	893453	wordpools/wasnorm_wordpool.txt	LTP100	ltpFR	6	11	1	BOOT	150	n/a	0	0	0.5869140625	0.422607421875	lower	../fonts/amplitud.ttf
1791.064	n/a	WORD	895532	wordpools/wasnorm_wordpool.txt	LTP100	ltpFR	6	11	0	PILOT	1070	n/a	1	1	0.412841796875	0.57763671875	upper	../fonts/zerothre.ttf
1795.13	n/a	WORD	897565	wordpools/wasnorm_wordpool.txt	LTP100	ltpFR	6	11	0	FLY	586	n/a	0	1	0.412841796875	0.57763671875	upper	../fonts/zerothre.ttf
1799.296	n/a	WORD	899648	wordpools/wasnorm_wordpool.txt	LTP100	ltpFR	6	11	0	QUARTER	1148	n/a	0	1	0.412841796875	0.57763671875	upper	../fonts/zerothre.ttf
1803.488	n/a	WORD	901744	wordpools/wasnorm_wordpool.txt	LTP100	ltpFR	6	11	0	SIREN	1310	n/a	1	1	0.412841796875	0.57763671875	upper	../fonts/zerothre.ttf
1807.354	n/a	WORD	903677	wordpools/wasnorm_wordpool.txt	LTP100	ltpFR	6	11	0	TICK	1463	n/a	0	1	0.412841796875	0.57763671875	upper	../fonts/zerothre.ttf
1811.488	n/a	WORD	905744	wordpools/wasnorm_wordpool.txt	LTP100	ltpFR	6	11	1	RECEIPT	1173	n/a	0	0	0.5869140625	0.422607421875	lower	../fonts/amplitud.ttf
1815.42	n/a	WORD	907710	wordpools/wasnorm_wordpool.txt	LTP100	ltpFR	6	11	1	ACID	2	n/a	0	0	0.5869140625	0.422607421875	lower	../fonts/amplitud.ttf
1819.386	n/a	WORD	909693	wordpools/wasnorm_wordpool.txt	LTP100	ltpFR	6	11	1	HARP	689	n/a	0	0	0.5869140625	0.422607421875	lower	../fonts/amplitud.ttf
1823.586	n/a	WORD	911793	wordpools/wasnorm_wordpool.txt	LTP100	ltpFR	6	11	1	HANDBAG	684	n/a	0	0	0.5869140625	0.422607421875	lower	../fonts/amplitud.ttf
1827.746	n/a	WORD	913873	wordpools/wasnorm_wordpool.txt	LTP100	ltpFR	6	11	1	SCIENTIST	1249	n/a	1	0	0.5869140625	0.422607421875	lower	../fonts/amplitud.ttf
1831.928	n/a	WORD	915964	wordpools/wasnorm_wordpool.txt	LTP100	ltpFR	6	11	1	DAD	433	n/a	1	0	0.5869140625	0.422607421875	lower	../fonts/amplitud.ttf
1835.87	n/a	WORD	917935	wordpools/wasnorm_wordpool.txt	LTP100	ltpFR	6	11	0	APRON	35	n/a	0	1	0.412841796875	0.57763671875	upper	../fonts/zerothre.ttf
1839.77	n/a	WORD	919885	wordpools/wasnorm_wordpool.txt	LTP100	ltpFR	6	11	0	BATHTUB	100	n/a	1	1	0.412841796875	0.57763671875	upper	../fonts/zerothre.ttf
1843.72	n/a	WORD	921860	wordpools/wasnorm_wordpool.txt	LTP100	ltpFR	6	11	0	BATH	98	n/a	1	1	0.412841796875	0.57763671875	upper	../fonts/zerothre.ttf
1849.446	n/a	REC_START	924723	n/a	LTP100	ltpFR	6	11	n/a	n/a	n/a	n/a	n/a	n/a	n/a	n/a	n/a	n/a
1851.266	n/a	REC_WORD	925633	wordpools/wasnorm_wordpool.txt	LTP100	ltpFR	6	11	1	DAD	433	n/a	1	n/a	n/a	n/a	n/a	n/a
1852.134	n/a	REC_WORD	926067	wordpools/wasnorm_wordpool.txt	LTP100	ltpFR	6	11	0	APRON	35	n/a	0	n/a	n/a	n/a	n/a	n/a
1853.102	n/a	REC_WORD	926551	wordpools/wasnorm_wordpool.txt	LTP100	ltpFR	6	11	0	BATHTUB	100	n/a	1	n/a	n/a	n/a	n/a	n/a
1854.538	n/a	REC_WORD	927269	wordpools/wasnorm_wordpool.txt	LTP100	ltpFR	6	11	0	BATH	98	n/a	1	n/a	n/a	n/a	n/a	n/a
1855.706	n/a	REC_WORD	927853	wordpools/wasnorm_wordpool.txt	LTP100	ltpFR	6	11	1	DOG	480	n/a	1	n/a	n/a	n/a	n/a	n/a
1860.91	n/a	REC_WORD	930455	wordpools/wasnorm_wordpool.txt	LTP100	ltpFR	6	11	0	QUARTER	1148	n/a	0	n/a	n/a	n/a	n/a	n/a
1862.37	n/a	REC_WORD	931185	wordpools/wasnorm_wordpool.txt	LTP100	ltpFR	6	11	0	TICK	1463	n/a	0	n/a	n/a	n/a	n/a	n/a
1863.942	n/a	REC_WORD	931971	wordpools/wasnorm_wordpool.txt	LTP100	ltpFR	6	11	0	FLY	586	n/a	0	n/a	n/a	n/a	n/a	n/a
1869.786	n/a	REC_WORD	934893	wordpools/wasnorm_wordpool.txt	LTP100	ltpFR	6	11	0	PILOT	1070	n/a	1	n/a	n/a	n/a	n/a	n/a
1891.84	n/a	REC_WORD	945920	wordpools/wasnorm_wordpool.txt	LTP100	ltpFR	6	11	1	HARP	689	n/a	0	n/a	n/a	n/a	n/a	n/a
1935.542	n/a	WORD	967771	wordpools/wasnorm_wordpool.txt	LTP100	ltpFR	6	12	1	BEGGAR	117	n/a	1	0	0.5869140625	0.422607421875	lower	../fonts/amplitud.ttf
1939.584	n/a	WORD	969792	wordpools/wasnorm_wordpool.txt	LTP100	ltpFR	6	12	1	VAGRANT	1544	n/a	1	0	0.5869140625	0.422607421875	lower	../fonts/amplitud.ttf
1943.4	n/a	WORD	971700	wordpools/wasnorm_wordpool.txt	LTP100	ltpFR	6	12	1	SKUNK	1321	n/a	1	0	0.5869140625	0.422607421875	lower	../fonts/amplitud.ttf
1947.25	n/a	WORD	973625	wordpools/wasnorm_wordpool.txt	LTP100	ltpFR	6	12	1	PIKE	1067	n/a	0	0	0.5869140625	0.422607421875	lower	../fonts/amplitud.ttf
1951.076	n/a	WORD	975538	wordpools/wasnorm_wordpool.txt	LTP100	ltpFR	6	12	1	BRUISE	180	n/a	0	0	0.5869140625	0.422607421875	lower	../fonts/amplitud.ttf
1955.094	n/a	WORD	977547	wordpools/wasnorm_wordpool.txt	LTP100	ltpFR	6	12	1	SENATE	1267	n/a	0	0	0.5869140625	0.422607421875	lower	../fonts/amplitud.ttf
1958.942	n/a	WORD	979471	wordpools/wasnorm_wordpool.txt	LTP100	ltpFR	6	12	1	BUREAU	199	n/a	0	0	0.5869140625	0.422607421875	lower	../fonts/amplitud.ttf
1963.142	n/a	WORD	981571	wordpools/wasnorm_wordpool.txt	LTP100	ltpFR	6	12	1	PERFUME	1049	n/a	0	0	0.5869140625	0.422607421875	lower	../fonts/amplitud.ttf
1967.234	n/a	WORD	983617	wordpools/wasnorm_wordpool.txt	LTP100	ltpFR	6	12	1	REEF	1177	n/a	1	0	0.5869140625	0.422607421875	lower	../fonts/amplitud.ttf
1971.11	n/a	WORD	985555	wordpools/wasnorm_wordpool.txt	LTP100	ltpFR	6	12	1	SHRIMP	1297	n/a	1	0	0.5869140625	0.422607421875	lower	../fonts/amplitud.ttf
1975.1	n/a	WORD	987550	wordpools/wasnorm_wordpool.txt	LTP100	ltpFR	6	12	1	ATTIRE	57	n/a	0	0	0.5869140625	0.422607421875	lower	../fonts/amplitud.ttf
1979.3	n/a	WORD	989650	wordpools/wasnorm_wordpool.txt	LTP100	ltpFR	6	12	1	SCISSORS	1250	n/a	0	0	0.5869140625	0.422607421875	lower	../fonts/amplitud.ttf
1983.358	n/a	WORD	991679	wordpools/wasnorm_wordpool.txt	LTP100	ltpFR	6	12	1	SQUID	1361	n/a	1	0	0.5869140625	0.422607421875	lower	../fonts/amplitud.ttf
1987.334	n/a	WORD	993667	wordpools/wasnorm_wordpool.txt	LTP100	ltpFR	6	12	1	TOOL	1480	n/a	0	0	0.5869140625	0.422607421875	lower	../fonts/amplitud.ttf
1991.416	n/a	WORD	995708	wordpools/wasnorm_wordpool.txt	LTP100	ltpFR	6	12	1	CRUTCH	417	n/a	0	0	0.5869140625	0.422607421875	lower	../fonts/amplitud.ttf
1995.458	n/a	WORD	997729	wordpools/wasnorm_wordpool.txt	LTP100	ltpFR	6	12	1	TANK	1432	n/a	0	0	0.5869140625	0.422607421875	lower	../fonts/amplitud.ttf
2001.324	n/a	REC_START	1000662	n/a	LTP100	ltpFR	6	12	n/a	n/a	n/a	n/a	n/a	n/a	n/a	n/a	n/a	n/a
2002.218	n/a	REC_WORD	1001109	wordpools/wasnorm_wordpool.txt	LTP100	ltpFR	6	12	1	SHRIMP	1297	n/a	1	n/a	n/a	n/a	n/a	n/a
2003.1	n/a	REC_WORD	1001550	wordpools/wasnorm_wordpool.txt	LTP100	ltpFR	6	12	1	ATTIRE	57	n/a	0	n/a	n/a	n/a	n/a	n/a
2004.352	n/a	REC_WORD	1002176	wordpools/wasnorm_wordpool.txt	LTP100	ltpFR	6	12	1	SCISSORS	1250	n/a	0	n/a	n/a	n/a	n/a	n/a
2005.524	n/a	REC_WORD	1002762	wordpools/wasnorm_wordpool.txt	LTP100	ltpFR	6	12	1	SQUID	1361	n/a	1	n/a	n/a	n/a	n/a	n/a
2006.942	n/a	REC_WORD	1003471	wordpools/wasnorm_wordpool.txt	LTP100	ltpFR	6	12	1	TOOL	1480	n/a	0	n/a	n/a	n/a	n/a	n/a
2007.994	n/a	REC_WORD	1003997	wordpools/wasnorm_wordpool.txt	LTP100	ltpFR	6	12	1	CRUTCH	417	n/a	0	n/a	n/a	n/a	n/a	n/a
2016.79	n/a	REC_WORD	1008395	wordpools/wasnorm_wordpool.txt	LTP100	ltpFR	6	12	1	VAGRANT	1544	n/a	1	n/a	n/a	n/a	n/a	n/a
2019.36	n/a	REC_WORD	1009680	wordpools/wasnorm_wordpool.txt	LTP100	ltpFR	6	12	1	BEGGAR	117	n/a	1	n/a	n/a	n/a	n/a	n/a
2076.914	n/a	REST_REWET	1038457	n/a	LTP100	ltpFR	6	12	n/a	n/a	n/a	n/a	n/a	n/a	n/a	n/a	n/a	n/a
2553.044	n/a	WORD	1276522	wordpools/wasnorm_wordpool.txt	LTP100	ltpFR	6	13	-1	SNACK	1331	n/a	-1	1	1.0	1.0	upper	../fonts/Verdana.ttf
2557.102	n/a	WORD	1278551	wordpools/wasnorm_wordpool.txt	LTP100	ltpFR	6	13	-1	CAULIFLOWER	262	n/a	-1	1	1.0	1.0	upper	../fonts/Verdana.ttf
2561.26	n/a	WORD	1280630	wordpools/wasnorm_wordpool.txt	LTP100	ltpFR	6	13	-1	FOOT	590	n/a	-1	1	1.0	1.0	upper	../fonts/Verdana.ttf
2565.086	n/a	WORD	1282543	wordpools/wasnorm_wordpool.txt	LTP100	ltpFR	6	13	-1	SPY	1360	n/a	-1	1	1.0	1.0	upper	../fonts/Verdana.ttf
2569.242	n/a	WORD	1284621	wordpools/wasnorm_wordpool.txt	LTP100	ltpFR	6	13	-1	DILL	465	n/a	-1	1	1.0	1.0	upper	../fonts/Verdana.ttf
2573.226	n/a	WORD	1286613	wordpools/wasnorm_wordpool.txt	LTP100	ltpFR	6	13	-1	CANDY	230	n/a	-1	1	1.0	1.0	upper	../fonts/Verdana.ttf
2577.318	n/a	WORD	1288659	wordpools/wasnorm_wordpool.txt	LTP100	ltpFR	6	13	-1	NEEDLE	941	n/a	-1	1	1.0	1.0	upper	../fonts/Verdana.ttf
2581.384	n/a	WORD	1290692	wordpools/wasnorm_wordpool.txt	LTP100	ltpFR	6	13	-1	PIN	1072	n/a	-1	1	1.0	1.0	upper	../fonts/Verdana.ttf
2585.418	n/a	WORD	1292709	wordpools/wasnorm_wordpool.txt	LTP100	ltpFR	6	13	-1	GROCERIES	663	n/a	-1	1	1.0	1.0	upper	../fonts/Verdana.ttf
2589.318	n/a	WORD	1294659	wordpools/wasnorm_wordpool.txt	LTP100	ltpFR	6	13	-1	TOENAIL	1474	n/a	-1	1	1.0	1.0	upper	../fonts/Verdana.ttf
2593.518	n/a	WORD	1296759	wordpools/wasnorm_wordpool.txt	LTP100	ltpFR	6	13	-1	GLOBE	641	n/a	-1	1	1.0	1.0	upper	../fonts/Verdana.ttf
2597.51	n/a	WORD	1298755	wordpools/wasnorm_wordpool.txt	LTP100	ltpFR	6	13	-1	PATIO	1025	n/a	-1	1	1.0	1.0	upper	../fonts/Verdana.ttf
2601.368	n/a	WORD	1300684	wordpools/wasnorm_wordpool.txt	LTP100	ltpFR	6	13	-1	CHART	282	n/a	-1	1	1.0	1.0	upper	../fonts/Verdana.ttf
2605.55	n/a	WORD	1302775	wordpools/wasnorm_wordpool.txt	LTP100	ltpFR	6	13	-1	BARN	89	n/a	-1	1	1.0	1.0	upper	../fonts/Verdana.ttf
2609.684	n/a	WORD	1304842	wordpools/wasnorm_wordpool.txt	LTP100	ltpFR	6	13	-1	BUGGY	188	n/a	-1	1	1.0	1.0	upper	../fonts/Verdana.ttf
2613.742	n/a	WORD	1306871	wordpools/wasnorm_wordpool.txt	LTP100	ltpFR	6	13	-1	DESSERT	453	n/a	-1	1	1.0	1.0	upper	../fonts/Verdana.ttf
2619.618	n/a	REC_START	1309809	n/a	LTP100	ltpFR	6	13	n/a	n/a	n/a	n/a	n/a	n/a	n/a	n/a	n/a	n/a
2621.258	n/a	REC_WORD	1310629	wordpools/wasnorm_wordpool.txt	LTP100	ltpFR	6	13	-1	PATIO	1025	n/a	-1	n/a	n/a	n/a	n/a	n/a
2622.256	n/a	REC_WORD	1311128	wordpools/wasnorm_wordpool.txt	LTP100	ltpFR	6	13	-1	CHART	282	n/a	-1	n/a	n/a	n/a	n/a	n/a
2623.264	n/a	REC_WORD	1311632	wordpools/wasnorm_wordpool.txt	LTP100	ltpFR	6	13	-1	BARN	89	n/a	-1	n/a	n/a	n/a	n/a	n/a
2624.452	n/a	REC_WORD	1312226	wordpools/wasnorm_wordpool.txt	LTP100	ltpFR	6	13	-1	BUGGY	188	n/a	-1	n/a	n/a	n/a	n/a	n/a
2625.324	n/a	REC_WORD	1312662	wordpools/wasnorm_wordpool.txt	LTP100	ltpFR	6	13	-1	DESSERT	453	n/a	-1	n/a	n/a	n/a	n/a	n/a
2627.514	n/a	REC_WORD	1313757	wordpools/wasnorm_wordpool.txt	LTP100	ltpFR	6	13	-1	TOENAIL	1474	n/a	-1	n/a	n/a	n/a	n/a	n/a
2630.752	n/a	REC_WORD	1315376	wordpools/wasnorm_wordpool.txt	LTP100	ltpFR	6	13	-1	SNACK	1331	n/a	-1	n/a	n/a	n/a	n/a	n/a
2633.386	n/a	REC_WORD	1316693	wordpools/wasnorm_wordpool.txt	LTP100	ltpFR	6	13	-1	CAULIFLOWER	262	n/a	-1	n/a	n/a	n/a	n/a	n/a
2634.404	n/a	REC_WORD	1317202	wordpools/wasnorm_wordpool.txt	LTP100	ltpFR	6	13	-1	GROCERIES	663	n/a	-1	n/a	n/a	n/a	n/a	n/a
2637.382	n/a	REC_WORD	1318691	wordpools/wasnorm_wordpool.txt	LTP100	ltpFR	6	13	-1	DILL	465	n/a	-1	n/a	n/a	n/a	n/a	n/a
2638.256	n/a	REC_WORD	1319128	wordpools/wasnorm_wordpool.txt	LTP100	ltpFR	6	13	-1	CANDY	230	n/a	-1	n/a	n/a	n/a	n/a	n/a
2698.748	n/a	WORD	1349374	wordpools/wasnorm_wordpool.txt	LTP100	ltpFR	6	14	1	MEAT	883	n/a	0	0	0.5869140625	0.422607421875	lower	../fonts/amplitud.ttf
2702.69	n/a	WORD	1351345	wordpools/wasnorm_wordpool.txt	LTP100	ltpFR	6	14	1	MINER	896	n/a	1	0	0.5869140625	0.422607421875	lower	../fonts/amplitud.ttf
2706.89	n/a	WORD	1353445	wordpools/wasnorm_wordpool.txt	LTP100	ltpFR	6	14	1	FOE	587	n/a	1	0	0.5869140625	0.422607421875	lower	../fonts/amplitud.ttf
2710.914	n/a	WORD	1355457	wordpools/wasnorm_wordpool.txt	LTP100	ltpFR	6	14	1	COOKBOOK	373	n/a	0	0	0.5869140625	0.422607421875	lower	../fonts/amplitud.ttf
2714.806	n/a	WORD	1357403	wordpools/wasnorm_wordpool.txt	LTP100	ltpFR	6	14	1	MUG	930	n/a	0	0	0.5869140625	0.422607421875	lower	../fonts/amplitud.ttf
2718.99	n/a	WORD	1359495	wordpools/wasnorm_wordpool.txt	LTP100	ltpFR	6	14	1	MARKER	870	n/a	0	0	0.5869140625	0.422607421875	lower	../fonts/amplitud.ttf
2722.838	n/a	WORD	1361419	wordpools/wasnorm_wordpool.txt	LTP100	ltpFR	6	14	1	BUFFALO	186	n/a	1	0	0.5869140625	0.422607421875	lower	../fonts/amplitud.ttf
2726.838	n/a	WORD	1363419	wordpools/wasnorm_wordpool.txt	LTP100	ltpFR	6	14	1	MOOSE	915	n/a	1	0	0.5869140625	0.422607421875	lower	../fonts/amplitud.ttf
2730.796	n/a	WORD	1365398	wordpools/wasnorm_wordpool.txt	LTP100	ltpFR	6	14	1	DICTATOR	462	n/a	1	0	0.5869140625	0.422607421875	lower	../fonts/amplitud.ttf
2734.68	n/a	WORD	1367340	wordpools/wasnorm_wordpool.txt	LTP100	ltpFR	6	14	1	STAFF	1365	n/a	1	0	0.5869140625	0.422607421875	lower	../fonts/amplitud.ttf
2738.888	n/a	WORD	1369444	wordpools/wasnorm_wordpool.txt	LTP100	ltpFR	6	14	1	PLAZA	1088	n/a	0	0	0.5869140625	0.422607421875	lower	../fonts/amplitud.ttf
2742.722	n/a	WORD	1371361	wordpools/wasnorm_wordpool.txt	LTP100	ltpFR	6	14	1	GROCERY	664	n/a	0	0	0.5869140625	0.422607421875	lower	../fonts/amplitud.ttf
2746.746	n/a	WORD	1373373	wordpools/wasnorm_wordpool.txt	LTP100	ltpFR	6	14	1	FLOUR	583	n/a	0	0	0.5869140625	0.422607421875	lower	../fonts/amplitud.ttf
2750.704	n/a	WORD	1375352	wordpools/wasnorm_wordpool.txt	LTP100	ltpFR	6	14	1	SATURN	1236	n/a	0	0	0.5869140625	0.422607421875	lower	../fonts/amplitud.ttf
2754.706	n/a	WORD	1377353	wordpools/wasnorm_wordpool.txt	LTP100	ltpFR	6	14	1	TAVERN	1437	n/a	0	0	0.5869140625	0.422607421875	lower	../fonts/amplitud.ttf
2758.654	n/a	WORD	1379327	wordpools/wasnorm_wordpool.txt	LTP100	ltpFR	6	14	1	FRIEND	606	n/a	1	0	0.5869140625	0.422607421875	lower	../fonts/amplitud.ttf
2764.214	n/a	REC_START	1382107	n/a	LTP100	ltpFR	6	14	n/a	n/a	n/a	n/a	n/a	n/a	n/a	n/a	n/a	n/a
2766.904	n/a	REC_WORD	1383452	wordpools/wasnorm_wordpool.txt	LTP100	ltpFR	6	14	1	GROCERY	664	n/a	0	n/a	n/a	n/a	n/a	n/a
2767.55	n/a	REC_WORD	1383775	wordpools/wasnorm_wordpool.txt	LTP100	ltpFR	6	14	1	SATURN	1236	n/a	0	n/a	n/a	n/a	n/a	n/a
2768.324	n/a	REC_WORD	1384162	wordpools/wasnorm_wordpool.txt	LTP100	ltpFR	6	14	1	TAVERN	1437	n/a	0	n/a	n/a	n/a	n/a	n/a
2770.306	n/a	REC_WORD	1385153	wordpools/wasnorm_wordpool.txt	LTP100	ltpFR	6	14	1	PLAZA	1088	n/a	0	n/a	n/a	n/a	n/a	n/a
2771.058	n/a	REC_WORD	1385529	wordpools/wasnorm_wordpool.txt	LTP100	ltpFR	6	14	1	FRIEND	606	n/a	1	n/a	n/a	n/a	n/a	n/a
2772.23	n/a	REC_WORD	1386115	wordpools/wasnorm_wordpool.txt	LTP100	ltpFR	6	14	1	FOE	587	n/a	1	n/a	n/a	n/a	n/a	n/a
2776.214	n/a	REC_WORD	1388107	wordpools/wasnorm_wordpool.txt	LTP100	ltpFR	6	14	1	MEAT	883	n/a	0	n/a	n/a	n/a	n/a	n/a
2783.266	n/a	REC_WORD	1391633	wordpools/wasnorm_wordpool.txt	LTP100	ltpFR	6	14	1	MINER	896	n/a	1	n/a	n/a	n/a	n/a	n/a
2788.874	n/a	REC_WORD	1394437	wordpools/wasnorm_wordpool.txt	LTP100	ltpFR	6	14	1	DICTATOR	462	n/a	1	n/a	n/a	n/a	n/a	n/a
2870.684	n/a	WORD	1435342	wordpools/wasnorm_wordpool.txt	LTP100	ltpFR	6	15	0	GRASS	655	n/a	0	1	0.412841796875	0.57763671875	upper	../fonts/zerothre.ttf
2874.876	n/a	WORD	1437438	wordpools/wasnorm_wordpool.txt	LTP100	ltpFR	6	15	0	RUG	1215	n/a	1	1	0.412841796875	0.57763671875	upper	../fonts/zerothre.ttf
2879.068	n/a	WORD	1439534	wordpools/wasnorm_wordpool.txt	LTP100	ltpFR	6	15	0	MARINE	869	n/a	1	1	0.412841796875	0.57763671875	upper	../fonts/zerothre.ttf
2883.152	n/a	WORD	1441576	wordpools/wasnorm_wordpool.txt	LTP100	ltpFR	6	15	0	VALVE	1546	n/a	0	1	0.412841796875	0.57763671875	upper	../fonts/zerothre.ttf
2887.136	n/a	WORD	1443568	wordpools/wasnorm_wordpool.txt	LTP100	ltpFR	6	15	0	CHARCOAL	281	n/a	0	1	0.412841796875	0.57763671875	upper	../fonts/zerothre.ttf
2891.268	n/a	WORD	1445634	wordpools/wasnorm_wordpool.txt	LTP100	ltpFR	6	15	0	BOXER	160	n/a	1	1	0.412841796875	0.57763671875	upper	../fonts/zerothre.ttf
2895.334	n/a	WORD	1447667	wordpools/wasnorm_wordpool.txt	LTP100	ltpFR	6	15	0	HOSTAGE	722	n/a	1	1	0.412841796875	0.57763671875	upper	../fonts/zerothre.ttf
2899.526	n/a	WORD	1449763	wordpools/wasnorm_wordpool.txt	LTP100	ltpFR	6	15	0	SHOWER	1296	n/a	1	1	0.412841796875	0.57763671875	upper	../fonts/zerothre.ttf
2903.392	n/a	WORD	1451696	wordpools/wasnorm_wordpool.txt	LTP100	ltpFR	6	15	0	NAPKIN	937	n/a	1	1	0.412841796875	0.57763671875	upper	../fonts/zerothre.ttf
2907.55	n/a	WORD	1453775	wordpools/wasnorm_wordpool.txt	LTP100	ltpFR	6	15	0	PASTRY	1022	n/a	0	1	0.412841796875	0.57763671875	upper	../fonts/zerothre.ttf
2911.65	n/a	WORD	1455825	wordpools/wasnorm_wordpool.txt	LTP100	ltpFR	6	15	0	DOORBELL	487	n/a	0	1	0.412841796875	0.57763671875	upper	../fonts/zerothre.ttf
2915.526	n/a	WORD	1457763	wordpools/wasnorm_wordpool.txt	LTP100	ltpFR	6	15	0	CHIME	300	n/a	0	1	0.412841796875	0.57763671875	upper	../fonts/zerothre.ttf
2919.61	n/a	WORD	1459805	wordpools/wasnorm_wordpool.txt	LTP100	ltpFR	6	15	0	CAFETERIA	217	n/a	1	1	0.412841796875	0.57763671875	upper	../fonts/zerothre.ttf
2923.6	n/a	WORD	1461800	wordpools/wasnorm_wordpool.txt	LTP100	ltpFR	6	15	0	CAPTIVE	240	n/a	1	1	0.412841796875	0.57763671875	upper	../fonts/zerothre.ttf
2927.584	n/a	WORD	1463792	wordpools/wasnorm_wordpool.txt	LTP100	ltpFR	6	15	0	ANKLE	24	n/a	0	1	0.412841796875	0.57763671875	upper	../fonts/zerothre.ttf
2931.55	n/a	WORD	1465775	wordpools/wasnorm_wordpool.txt	LTP100	ltpFR	6	15	0	HEEL	700	n/a	0	1	0.412841796875	0.57763671875	upper	../fonts/zerothre.ttf
2937.484	n/a	REC_START	1468742	n/a	LTP100	ltpFR	6	15	n/a	n/a	n/a	n/a	n/a	n/a	n/a	n/a	n/a	n/a
2939.016	n/a	REC_WORD	1469508	wordpools/wasnorm_wordpool.txt	LTP100	ltpFR	6	15	0	CAFETERIA	217	n/a	1	n/a	n/a	n/a	n/a	n/a
2940.254	n/a	REC_WORD	1470127	wordpools/wasnorm_wordpool.txt	LTP100	ltpFR	6	15	0	DOORBELL	487	n/a	0	n/a	n/a	n/a	n/a	n/a
2941.16	n/a	REC_WORD	1470580	wordpools/wasnorm_wordpool.txt	LTP100	ltpFR	6	15	0	CHIME	300	n/a	0	n/a	n/a	n/a	n/a	n/a
2942.458	n/a	REC_WORD	1471229	wordpools/wasnorm_wordpool.txt	LTP100	ltpFR	6	15	0	ANKLE	24	n/a	0	n/a	n/a	n/a	n/a	n/a
2943.082	n/a	REC_WORD	1471541	wordpools/wasnorm_wordpool.txt	LTP100	ltpFR	6	15	0	HEEL	700	n/a	0	n/a	n/a	n/a	n/a	n/a
2967.792	n/a	REC_WORD	1483896	wordpools/wasnorm_wordpool.txt	LTP100	ltpFR	6	15	0	MARINE	869	n/a	1	n/a	n/a	n/a	n/a	n/a
2979.796	n/a	REC_WORD	1489898	wordpools/wasnorm_wordpool.txt	LTP100	ltpFR	6	15	0	BOXER	160	n/a	1	n/a	n/a	n/a	n/a	n/a
3038.048	n/a	WORD	1519024	wordpools/wasnorm_wordpool.txt	LTP100	ltpFR	6	16	0	VOLLEYBALL	1576	n/a	1	1	0.412841796875	0.57763671875	upper	../fonts/zerothre.ttf
3041.872	n/a	WORD	1520936	wordpools/wasnorm_wordpool.txt	LTP100	ltpFR	6	16	0	SADDLE	1221	n/a	1	1	0.412841796875	0.57763671875	upper	../fonts/zerothre.ttf
3045.722	n/a	WORD	1522861	wordpools/wasnorm_wordpool.txt	LTP100	ltpFR	6	16	0	HAYSTACK	694	n/a	1	1	0.412841796875	0.57763671875	upper	../fonts/zerothre.ttf
3049.838	n/a	WORD	1524919	wordpools/wasnorm_wordpool.txt	LTP100	ltpFR	6	16	0	BASKETBALL	96	n/a	1	1	0.412841796875	0.57763671875	upper	../fonts/zerothre.ttf
3053.656	n/a	WORD	1526828	wordpools/wasnorm_wordpool.txt	LTP100	ltpFR	6	16	0	STREAM	1392	n/a	1	1	0.412841796875	0.57763671875	upper	../fonts/zerothre.ttf
3057.522	n/a	WORD	1528761	wordpools/wasnorm_wordpool.txt	LTP100	ltpFR	6	16	0	CUE	422	n/a	0	1	0.412841796875	0.57763671875	upper	../fonts/zerothre.ttf
3061.614	n/a	WORD	1530807	wordpools/wasnorm_wordpool.txt	LTP100	ltpFR	6	16	0	YACHT	1629	n/a	1	1	0.412841796875	0.57763671875	upper	../fonts/zerothre.ttf
3065.722	n/a	WORD	1532861	wordpools/wasnorm_wordpool.txt	LTP100	ltpFR	6	16	0	NITROGEN	954	n/a	0	1	0.412841796875	0.57763671875	upper	../fonts/zerothre.ttf
3069.546	n/a	WORD	1534773	wordpools/wasnorm_wordpool.txt	LTP100	ltpFR	6	16	0	VENT	1556	n/a	1	1	0.412841796875	0.57763671875	upper	../fonts/zerothre.ttf
3073.462	n/a	WORD	1536731	wordpools/wasnorm_wordpool.txt	LTP100	ltpFR	6	16	0	RACKET	1155	n/a	1	1	0.412841796875	0.57763671875	upper	../fonts/zerothre.ttf
3077.446	n/a	WORD	1538723	wordpools/wasnorm_wordpool.txt	LTP100	ltpFR	6	16	0	BADGE	68	n/a	1	1	0.412841796875	0.57763671875	upper	../fonts/zerothre.ttf
3081.464	n/a	WORD	1540732	wordpools/wasnorm_wordpool.txt	LTP100	ltpFR	6	16	0	OFFICER	973	n/a	1	1	0.412841796875	0.57763671875	upper	../fonts/zerothre.ttf
3085.446	n/a	WORD	1542723	wordpools/wasnorm_wordpool.txt	LTP100	ltpFR	6	16	0	FINGER	567	n/a	0	1	0.412841796875	0.57763671875	upper	../fonts/zerothre.ttf
3089.63	n/a	WORD	1544815	wordpools/wasnorm_wordpool.txt	LTP100	ltpFR	6	16	0	BANNER	85	n/a	1	1	0.412841796875	0.57763671875	upper	../fonts/zerothre.ttf
3093.72	n/a	WORD	1546860	wordpools/wasnorm_wordpool.txt	LTP100	ltpFR	6	16	0	PITCHFORK	1078	n/a	1	1	0.412841796875	0.57763671875	upper	../fonts/zerothre.ttf
3097.772	n/a	WORD	1548886	wordpools/wasnorm_wordpool.txt	LTP100	ltpFR	6	16	0	WATERFALL	1595	n/a	1	1	0.412841796875	0.57763671875	upper	../fonts/zerothre.ttf
3103.538	n/a	REC_START	1551769	n/a	LTP100	ltpFR	6	16	n/a	n/a	n/a	n/a	n/a	n/a	n/a	n/a	n/a	n/a
3108.034	n/a	REC_WORD	1554017	wordpools/wasnorm_wordpool.txt	LTP100	ltpFR	6	16	0	BADGE	68	n/a	1	n/a	n/a	n/a	n/a	n/a
3108.836	n/a	REC_WORD	1554418	wordpools/wasnorm_wordpool.txt	LTP100	ltpFR	6	16	0	OFFICER	973	n/a	1	n/a	n/a	n/a	n/a	n/a
3112.048	n/a	REC_WORD	1556024	wordpools/wasnorm_wordpool.txt	LTP100	ltpFR	6	16	0	RACKET	1155	n/a	1	n/a	n/a	n/a	n/a	n/a
3113.864	n/a	REC_WORD	1556932	wordpools/wasnorm_wordpool.txt	LTP100	ltpFR	6	16	0	WATERFALL	1595	n/a	1	n/a	n/a	n/a	n/a	n/a
3115.088	n/a	REC_WORD	1557544	wordpools/wasnorm_wordpool.txt	LTP100	ltpFR	6	16	0	STREAM	1392	n/a	1	n/a	n/a	n/a	n/a	n/a
3119.732	n/a	REC_WORD	1559866	wordpools/wasnorm_wordpool.txt	LTP100	ltpFR	6	16	0	FINGER	567	n/a	0	n/a	n/a	n/a	n/a	n/a
3125.754	n/a	REC_WORD	1562877	wordpools/wasnorm_wordpool.txt	LTP100	ltpFR	6	16	0	BASKETBALL	96	n/a	1	n/a	n/a	n/a	n/a	n/a
3126.532	n/a	REC_WORD	1563266	wordpools/wasnorm_wordpool.txt	LTP100	ltpFR	6	16	0	VOLLEYBALL	1576	n/a	1	n/a	n/a	n/a	n/a	n/a
3149.336	n/a	REC_WORD	1574668	wordpools/wasnorm_wordpool.txt	LTP100	ltpFR	6	16	0	BANNER	85	n/a	1	n/a	n/a	n/a	n/a	n/a
3173.598	n/a	REC_WORD	1586799	wordpools/wasnorm_wordpool.txt	LTP100	ltpFR	6	16	0	YACHT	1629	n/a	1	n/a	n/a	n/a	n/a	n/a
3203.302	n/a	REC_START	1601651	n/a	LTP100	ltpFR	6	n/a	n/a	n/a	n/a	n/a	n/a	n/a	n/a	n/a	n/a	n/a
3205.212	n/a	FFR_REC_WORD	1602606	wordpools/wasnorm_wordpool.txt	LTP100	ltpFR	6	n/a	0	YACHT	1629	n/a	1	n/a	n/a	n/a	n/a	n/a
3206.032	n/a	FFR_REC_WORD	1603016	wordpools/wasnorm_wordpool.txt	LTP100	ltpFR	6	n/a	0	VOLLEYBALL	1576	n/a	1	n/a	n/a	n/a	n/a	n/a
3207.268	n/a	FFR_REC_WORD	1603634	wordpools/wasnorm_wordpool.txt	LTP100	ltpFR	6	n/a	0	BASKETBALL	96	n/a	1	n/a	n/a	n/a	n/a	n/a
3208.884	n/a	FFR_REC_WORD	1604442	wordpools/wasnorm_wordpool.txt	LTP100	ltpFR	6	n/a	0	BOYFRIEND	162	n/a	1	n/a	n/a	n/a	n/a	n/a
3213.334	n/a	FFR_REC_WORD	1606667	wordpools/wasnorm_wordpool.txt	LTP100	ltpFR	6	n/a	-1	MECHANIC	884	n/a	-1	n/a	n/a	n/a	n/a	n/a
3215.818	n/a	FFR_REC_WORD	1607909	wordpools/wasnorm_wordpool.txt	LTP100	ltpFR	6	n/a	0	CARPENTER	246	n/a	1	n/a	n/a	n/a	n/a	n/a
3216.644	n/a	FFR_REC_WORD	1608322	wordpools/wasnorm_wordpool.txt	LTP100	ltpFR	6	n/a	-1	BUILDING	191	n/a	-1	n/a	n/a	n/a	n/a	n/a
3220.26	n/a	FFR_REC_WORD	1610130	wordpools/wasnorm_wordpool.txt	LTP100	ltpFR	6	n/a	-1	CAULIFLOWER	262	n/a	-1	n/a	n/a	n/a	n/a	n/a
3221.168	n/a	FFR_REC_WORD	1610584	wordpools/wasnorm_wordpool.txt	LTP100	ltpFR	6	n/a	1	GROCERY	664	n/a	0	n/a	n/a	n/a	n/a	n/a
3221.986	n/a	FFR_REC_WORD	1610993	wordpools/wasnorm_wordpool.txt	LTP100	ltpFR	6	n/a	-1	GROCERIES	663	n/a	-1	n/a	n/a	n/a	n/a	n/a
3223.626	n/a	FFR_REC_WORD	1611813	wordpools/wasnorm_wordpool.txt	LTP100	ltpFR	6	n/a	1	FLOUR	583	n/a	0	n/a	n/a	n/a	n/a	n/a
3225.886	n/a	FFR_REC_WORD	1612943	wordpools/wasnorm_wordpool.txt	LTP100	ltpFR	6	n/a	1	RACCOON	1153	n/a	1	n/a	n/a	n/a	n/a	n/a
3227.264	n/a	FFR_REC_WORD	1613632	wordpools/wasnorm_wordpool.txt	LTP100	ltpFR	6	n/a	1	DOG	480	n/a	1	n/a	n/a	n/a	n/a	n/a
3228.162	n/a	FFR_REC_WORD	1614081	wordpools/wasnorm_wordpool.txt	LTP100	ltpFR	6	n/a	1	DAD	433	n/a	1	n/a	n/a	n/a	n/a	n/a
3231.604	n/a	FFR_REC_WORD	1615802	wordpools/wasnorm_wordpool.txt	LTP100	ltpFR	6	n/a	1	DICTATOR	462	n/a	1	n/a	n/a	n/a	n/a	n/a
3233.898	n/a	FFR_REC_WORD	1616949	wordpools/wasnorm_wordpool.txt	LTP100	ltpFR	6	n/a	1	VAGRANT	1544	n/a	1	n/a	n/a	n/a	n/a	n/a
3234.862	n/a	FFR_REC_WORD	1617431	wordpools/wasnorm_wordpool.txt	LTP100	ltpFR	6	n/a	1	BEGGAR	117	n/a	1	n/a	n/a	n/a	n/a	n/a
3239.926	n/a	FFR_REC_WORD	1619963	wordpools/wasnorm_wordpool.txt	LTP100	ltpFR	6	n/a	0	ANKLE	24	n/a	0	n/a	n/a	n/a	n/a	n/a
3244.092	n/a	FFR_REC_WORD	1622046	wordpools/wasnorm_wordpool.txt	LTP100	ltpFR	6	n/a	0	FINGER	567	n/a	0	n/a	n/a	n/a	n/a	n/a
3244.984	n/a	FFR_REC_WORD	1622492	wordpools/wasnorm_wordpool.txt	LTP100	ltpFR	6	n/a	-1	FOOT	590	n/a	-1	n/a	n/a	n/a	n/a	n/a
3252.102	n/a	FFR_REC_WORD	1626051	wordpools/wasnorm_wordpool.txt	LTP100	ltpFR	6	n/a	-1	SNACK	1331	n/a	-1	n/a	n/a	n/a	n/a	n/a
3254.492	n/a	FFR_REC_WORD	1627246	wordpools/wasnorm_wordpool.txt	LTP100	ltpFR	6	n/a	1	MEAT	883	n/a	0	n/a	n/a	n/a	n/a	n/a
3260.44	n/a	FFR_REC_WORD	1630220	wordpools/wasnorm_wordpool.txt	LTP100	ltpFR	6	n/a	-1	HOOK	715	n/a	-1	n/a	n/a	n/a	n/a	n/a
3281.782	n/a	FFR_REC_WORD	1640891	wordpools/wasnorm_wordpool.txt	LTP100	ltpFR	6	n/a	1	MINER	896	n/a	1	n/a	n/a	n/a	n/a	n/a
3289.066	n/a	FFR_REC_WORD	1644533	wordpools/wasnorm_wordpool.txt	LTP100	ltpFR	6	n/a	0	SALIVA	1226	n/a	0	n/a	n/a	n/a	n/a	n/a
3290.732	n/a	FFR_REC_WORD	1645366	wordpools/wasnorm_wordpool.txt	LTP100	ltpFR	6	n/a	0	BIBLE	124	n/a	0	n/a	n/a	n/a	n/a	n/a
3291.606	n/a	FFR_REC_WORD	1645803	wordpools/wasnorm_wordpool.txt	LTP100	ltpFR	6	n/a	0	ENCYCLOPEDIA	533	n/a	0	n/a	n/a	n/a	n/a	n/a
3297.088	n/a	FFR_REC_WORD	1648544	wordpools/wasnorm_wordpool.txt	LTP100	ltpFR	6	n/a	0	RUG	1215	n/a	1	n/a	n/a	n/a	n/a	n/a
3308.418	n/a	FFR_REC_WORD	1654209	wordpools/wasnorm_wordpool.txt	LTP100	ltpFR	6	n/a	0	PRIEST	1122	n/a	1	n/a	n/a	n/a	n/a	n/a
3319.234	n/a	FFR_REC_WORD	1659617	wordpools/wasnorm_wordpool.txt	LTP100	ltpFR	6	n/a	-1	COCOON	339	n/a	-1	n/a	n/a	n/a	n/a	n/a
3321.614	n/a	FFR_REC_WORD	1660807	wordpools/wasnorm_wordpool.txt	LTP100	ltpFR	6	n/a	-1	NOOSE	956	n/a	-1	n/a	n/a	n/a	n/a	n/a
3322.432	n/a	FFR_REC_WORD	1661216	wordpools/wasnorm_wordpool.txt	LTP100	ltpFR	6	n/a	-1	ROPE	1211	n/a	-1	n/a	n/a	n/a	n/a	n/a
3327.824	n/a	FFR_REC_WORD	1663912	wordpools/wasnorm_wordpool.txt	LTP100	ltpFR	6	n/a	1	FRIEND	606	n/a	1	n/a	n/a	n/a	n/a	n/a
3328.942	n/a	FFR_REC_WORD	1664471	wordpools/wasnorm_wordpool.txt	LTP100	ltpFR	6	n/a	1	FOE	587	n/a	1	n/a	n/a	n/a	n/a	n/a
3330.544	n/a	FFR_REC_WORD	1665272	wordpools/wasnorm_wordpool.txt	LTP100	ltpFR	6	n/a	1	ENEMY	534	n/a	1	n/a	n/a	n/a	n/a	n/a
3334.78	n/a	FFR_REC_WORD	1667390	wordpools/wasnorm_wordpool.txt	LTP100	ltpFR	6	n/a	0	HOE	711	n/a	0	n/a	n/a	n/a	n/a	n/a
3342.188	n/a	FFR_REC_WORD	1671094	wordpools/wasnorm_wordpool.txt	LTP100	ltpFR	6	n/a	-1	DILL	465	n/a	-1	n/a	n/a	n/a	n/a	n/a
3365.582	n/a	FFR_REC_WORD	1682791	wordpools/wasnorm_wordpool.txt	LTP100	ltpFR	6	n/a	-1	RUM	1217	n/a	-1	n/a	n/a	n/a	n/a	n/a
3381.196	n/a	FFR_REC_WORD	1690598	wordpools/wasnorm_wordpool.txt	LTP100	ltpFR	6	n/a	1	BEAST	108	n/a	1	n/a	n/a	n/a	n/a	n/a
3391.714	n/a	FFR_REC_WORD	1695857	wordpools/wasnorm_wordpool.txt	LTP100	ltpFR	6	n/a	1	MOOSE	915	n/a	1	n/a	n/a	n/a	n/a	n/a
3410.616	n/a	FFR_REC_WORD	1705308	wordpools/wasnorm_wordpool.txt	LTP100	ltpFR	6	n/a	1	GARBAGE	622	n/a	0	n/a	n/a	n/a	n/a	n/a
3419.256	n/a	FFR_REC_WORD	1709628	wordpools/wasnorm_wordpool.txt	LTP100	ltpFR	6	n/a	1	MICROSCOPE	891	n/a	0	n/a	n/a	n/a	n/a	n/a
3420.204	n/a	FFR_REC_WORD	1710102	wordpools/wasnorm_wordpool.txt	LTP100	ltpFR	6	n/a	0	NEUTRON	947	n/a	0	n/a	n/a	n/a	n/a	n/a
3423.198	n/a	FFR_REC_WORD	1711599	wordpools/wasnorm_wordpool.txt	LTP100	ltpFR	6	n/a	1	MOLECULE	905	n/a	0	n/a	n/a	n/a	n/a	n/a
3426.502	n/a	FFR_REC_WORD	1713251	wordpools/wasnorm_wordpool.txt	LTP100	ltpFR	6	n/a	0	TICK	1463	n/a	0	n/a	n/a	n/a	n/a	n/a
3462.562	n/a	FFR_REC_WORD	1731281	wordpools/wasnorm_wordpool.txt	LTP100	ltpFR	6	n/a	0	BATH	98	n/a	1	n/a	n/a	n/a	n/a	n/a
3463.528	n/a	FFR_REC_WORD	1731764	wordpools/wasnorm_wordpool.txt	LTP100	ltpFR	6	n/a	0	BATHTUB	100	n/a	1	n/a	n/a	n/a	n/a	n/a
3491.222	n/a	FFR_REC_WORD	1745611	wordpools/wasnorm_wordpool.txt	LTP100	ltpFR	6	n/a	0	STREAM	1392	n/a	1	n/a	n/a	n/a	n/a	n/a
3492.344	n/a	FFR_REC_WORD	1746172	wordpools/wasnorm_wordpool.txt	LTP100	ltpFR	6	n/a	0	ALLEY	15	n/a	1	n/a	n/a	n/a	n/a	n/a
3520.302	n/a	REC_START	1760151	n/a	LTP100	ltpFR	6	1	n/a	n/a	n/a	n/a	n/a	n/a	n/a	n/a	n/a	n/a
3520.342	n/a	RECOG_TARGET	1760171	n/a	LTP100	ltpFR	6	1	0	WATERFALL	1595	5	1	n/a	n/a	n/a	n/a	n/a
3521.514	n/a	RECOG_RESP	1760757	n/a	LTP100	ltpFR	6	1	0	WATERFALL	1595	n/a	1	n/a	n/a	n/a	n/a	n/a
3522.882	n/a	RECOG_CONF	1761441	n/a	LTP100	ltpFR	6	1	0	WATERFALL	1595	5	1	n/a	n/a	n/a	n/a	n/a
3524.452	n/a	RECOG_LURE	1762226	n/a	LTP100	ltpFR	6	1	n/a	CALENDAR	221	2	n/a	n/a	n/a	n/a	n/a	n/a
3525.596	n/a	RECOG_RESP	1762798	n/a	LTP100	ltpFR	6	1	n/a	CALENDAR	221	n/a	n/a	n/a	n/a	n/a	n/a	n/a
3526.604	n/a	RECOG_CONF	1763302	n/a	LTP100	ltpFR	6	1	n/a	CALENDAR	221	2	n/a	n/a	n/a	n/a	n/a	n/a
3527.926	n/a	RECOG_TARGET	1763963	n/a	LTP100	ltpFR	6	1	0	NEUTRON	947	4	0	n/a	n/a	n/a	n/a	n/a
3528.69	n/a	RECOG_RESP	1764345	n/a	LTP100	ltpFR	6	1	0	NEUTRON	947	n/a	0	n/a	n/a	n/a	n/a	n/a
3529.508	n/a	RECOG_CONF	1764754	n/a	LTP100	ltpFR	6	1	0	NEUTRON	947	4	0	n/a	n/a	n/a	n/a	n/a
3530.86	n/a	RECOG_TARGET	1765430	n/a	LTP100	ltpFR	6	1	0	VALVE	1546	5	0	n/a	n/a	n/a	n/a	n/a
3531.518	n/a	RECOG_RESP	1765759	n/a	LTP100	ltpFR	6	1	0	VALVE	1546	n/a	0	n/a	n/a	n/a	n/a	n/a
3532.262	n/a	RECOG_CONF	1766131	n/a	LTP100	ltpFR	6	1	0	VALVE	1546	5	0	n/a	n/a	n/a	n/a	n/a
3533.576	n/a	RECOG_TARGET	1766788	n/a	LTP100	ltpFR	6	1	0	ENCYCLOPEDIA	533	5	0	n/a	n/a	n/a	n/a	n/a
3534.296	n/a	RECOG_RESP	1767148	n/a	LTP100	ltpFR	6	1	0	ENCYCLOPEDIA	533	n/a	0	n/a	n/a	n/a	n/a	n/a
3535.064	n/a	RECOG_CONF	1767532	n/a	LTP100	ltpFR	6	1	0	ENCYCLOPEDIA	533	5	0	n/a	n/a	n/a	n/a	n/a
3536.418	n/a	RECOG_LURE	1768209	n/a	LTP100	ltpFR	6	1	n/a	OWNER	993	2	n/a	n/a	n/a	n/a	n/a	n/a
3537.898	n/a	RECOG_RESP	1768949	n/a	LTP100	ltpFR	6	1	n/a	OWNER	993	n/a	n/a	n/a	n/a	n/a	n/a	n/a
3539.096	n/a	RECOG_CONF	1769548	n/a	LTP100	ltpFR	6	1	n/a	OWNER	993	2	n/a	n/a	n/a	n/a	n/a	n/a
3540.46	n/a	RECOG_LURE	1770230	n/a	LTP100	ltpFR	6	1	n/a	PLASTER	1085	2	n/a	n/a	n/a	n/a	n/a	n/a
3541.614	n/a	RECOG_RESP	1770807	n/a	LTP100	ltpFR	6	1	n/a	PLASTER	1085	n/a	n/a	n/a	n/a	n/a	n/a	n/a
3542.528	n/a	RECOG_CONF	1771264	n/a	LTP100	ltpFR	6	1	n/a	PLASTER	1085	2	n/a	n/a	n/a	n/a	n/a	n/a
3544.044	n/a	RECOG_LURE	1772022	n/a	LTP100	ltpFR	6	1	n/a	FLOOR	581	2	n/a	n/a	n/a	n/a	n/a	n/a
3545.95	n/a	RECOG_RESP	1772975	n/a	LTP100	ltpFR	6	1	n/a	FLOOR	581	n/a	n/a	n/a	n/a	n/a	n/a	n/a
3547.228	n/a	RECOG_CONF	1773614	n/a	LTP100	ltpFR	6	1	n/a	FLOOR	581	2	n/a	n/a	n/a	n/a	n/a	n/a
3548.702	n/a	RECOG_LURE	1774351	n/a	LTP100	ltpFR	6	1	n/a	SERVER	1272	3	n/a	n/a	n/a	n/a	n/a	n/a
3549.876	n/a	RECOG_RESP	1774938	n/a	LTP100	ltpFR	6	1	n/a	SERVER	1272	n/a	n/a	n/a	n/a	n/a	n/a	n/a
3551.398	n/a	RECOG_CONF	1775699	n/a	LTP100	ltpFR	6	1	n/a	SERVER	1272	3	n/a	n/a	n/a	n/a	n/a	n/a
3552.784	n/a	RECOG_TARGET	1776392	n/a	LTP100	ltpFR	6	1	-1	DILL	465	5	-1	n/a	n/a	n/a	n/a	n/a
3553.454	n/a	RECOG_RESP	1776727	n/a	LTP100	ltpFR	6	1	-1	DILL	465	n/a	-1	n/a	n/a	n/a	n/a	n/a
3554.132	n/a	RECOG_CONF	1777066	n/a	LTP100	ltpFR	6	1	-1	DILL	465	5	-1	n/a	n/a	n/a	n/a	n/a
3555.584	n/a	RECOG_TARGET	1777792	n/a	LTP100	ltpFR	6	1	-1	SHRUB	1299	5	-1	n/a	n/a	n/a	n/a	n/a
3556.556	n/a	RECOG_RESP	1778278	n/a	LTP100	ltpFR	6	1	-1	SHRUB	1299	n/a	-1	n/a	n/a	n/a	n/a	n/a
3557.414	n/a	RECOG_CONF	1778707	n/a	LTP100	ltpFR	6	1	-1	SHRUB	1299	5	-1	n/a	n/a	n/a	n/a	n/a
3558.868	n/a	RECOG_TARGET	1779434	n/a	LTP100	ltpFR	6	1	1	CUB	419	5	1	n/a	n/a	n/a	n/a	n/a
3559.86	n/a	RECOG_RESP	1779930	n/a	LTP100	ltpFR	6	1	1	CUB	419	n/a	1	n/a	n/a	n/a	n/a	n/a
3560.658	n/a	RECOG_CONF	1780329	n/a	LTP100	ltpFR	6	1	1	CUB	419	5	1	n/a	n/a	n/a	n/a	n/a
3562.084	n/a	RECOG_TARGET	1781042	n/a	LTP100	ltpFR	6	1	0	AWARD	63	5	1	n/a	n/a	n/a	n/a	n/a
3562.904	n/a	RECOG_RESP	1781452	n/a	LTP100	ltpFR	6	1	0	AWARD	63	n/a	1	n/a	n/a	n/a	n/a	n/a
3563.792	n/a	RECOG_CONF	1781896	n/a	LTP100	ltpFR	6	1	0	AWARD	63	5	1	n/a	n/a	n/a	n/a	n/a
3565.236	n/a	RECOG_TARGET	1782618	n/a	LTP100	ltpFR	6	1	-1	BUGGY	188	5	-1	n/a	n/a	n/a	n/a	n/a
3565.956	n/a	RECOG_RESP	1782978	n/a	LTP100	ltpFR	6	1	-1	BUGGY	188	n/a	-1	n/a	n/a	n/a	n/a	n/a
3566.784	n/a	RECOG_CONF	1783392	n/a	LTP100	ltpFR	6	1	-1	BUGGY	188	5	-1	n/a	n/a	n/a	n/a	n/a
3568.16	n/a	RECOG_LURE	1784080	n/a	LTP100	ltpFR	6	1	n/a	FOSSIL	596	3	n/a	n/a	n/a	n/a	n/a	n/a
3569.08	n/a	RECOG_RESP	1784540	n/a	LTP100	ltpFR	6	1	n/a	FOSSIL	596	n/a	n/a	n/a	n/a	n/a	n/a	n/a
3569.928	n/a	RECOG_CONF	1784964	n/a	LTP100	ltpFR	6	1	n/a	FOSSIL	596	3	n/a	n/a	n/a	n/a	n/a	n/a
3571.3	n/a	RECOG_LURE	1785650	n/a	LTP100	ltpFR	6	1	n/a	DRESS	495	3	n/a	n/a	n/a	n/a	n/a	n/a
3572.192	n/a	RECOG_RESP	1786096	n/a	LTP100	ltpFR	6	1	n/a	DRESS	495	n/a	n/a	n/a	n/a	n/a	n/a	n/a
3573.33	n/a	RECOG_CONF	1786665	n/a	LTP100	ltpFR	6	1	n/a	DRESS	495	3	n/a	n/a	n/a	n/a	n/a	n/a
3574.834	n/a	RECOG_LURE	1787417	n/a	LTP100	ltpFR	6	1	n/a	CACTUS	215	2	n/a	n/a	n/a	n/a	n/a	n/a
3576.054	n/a	RECOG_RESP	1788027	n/a	LTP100	ltpFR	6	1	n/a	CACTUS	215	n/a	n/a	n/a	n/a	n/a	n/a	n/a
3576.942	n/a	RECOG_CONF	1788471	n/a	LTP100	ltpFR	6	1	n/a	CACTUS	215	2	n/a	n/a	n/a	n/a	n/a	n/a
3578.342	n/a	RECOG_LURE	1789171	n/a	LTP100	ltpFR	6	1	n/a	LUMBER	848	3	n/a	n/a	n/a	n/a	n/a	n/a
3579.89	n/a	RECOG_RESP	1789945	n/a	LTP100	ltpFR	6	1	n/a	LUMBER	848	n/a	n/a	n/a	n/a	n/a	n/a	n/a
3581.132	n/a	RECOG_CONF	1790566	n/a	LTP100	ltpFR	6	1	n/a	LUMBER	848	3	n/a	n/a	n/a	n/a	n/a	n/a
3582.532	n/a	RECOG_LURE	1791266	n/a	LTP100	ltpFR	6	1	n/a	DEPARTMENT	449	2	n/a	n/a	n/a	n/a	n/a	n/a
3583.478	n/a	RECOG_RESP	1791739	n/a	LTP100	ltpFR	6	1	n/a	DEPARTMENT	449	n/a	n/a	n/a	n/a	n/a	n/a	n/a
3584.724	n/a	RECOG_CONF	1792362	n/a	LTP100	ltpFR	6	1	n/a	DEPARTMENT	449	2	n/a	n/a	n/a	n/a	n/a	n/a
3586.1	n/a	RECOG_TARGET	1793050	n/a	LTP100	ltpFR	6	1	0	STREAM	1392	5	1	n/a	n/a	n/a	n/a	n/a
3586.806	n/a	RECOG_RESP	1793403	n/a	LTP100	ltpFR	6	1	0	STREAM	1392	n/a	1	n/a	n/a	n/a	n/a	n/a
3587.548	n/a	RECOG_CONF	1793774	n/a	LTP100	ltpFR	6	1	0	STREAM	1392	5	1	n/a	n/a	n/a	n/a	n/a
3590.688	n/a	REC_START	1795344	n/a	LTP100	ltpFR	6	2	n/a	n/a	n/a	n/a	n/a	n/a	n/a	n/a	n/a	n/a
3590.724	n/a	RECOG_LURE	1795362	n/a	LTP100	ltpFR	6	2	n/a	WAITER	1580	3	n/a	n/a	n/a	n/a	n/a	n/a
3591.592	n/a	RECOG_RESP	1795796	n/a	LTP100	ltpFR	6	2	n/a	WAITER	1580	n/a	n/a	n/a	n/a	n/a	n/a	n/a
3592.46	n/a	RECOG_CONF	1796230	n/a	LTP100	ltpFR	6	2	n/a	WAITER	1580	3	n/a	n/a	n/a	n/a	n/a	n/a
3593.792	n/a	RECOG_LURE	1796896	n/a	LTP100	ltpFR	6	2	n/a	SHAMPOO	1274	4	n/a	n/a	n/a	n/a	n/a	n/a
3595.044	n/a	RECOG_RESP	1797522	n/a	LTP100	ltpFR	6	2	n/a	SHAMPOO	1274	n/a	n/a	n/a	n/a	n/a	n/a	n/a
3596.49	n/a	RECOG_CONF	1798245	n/a	LTP100	ltpFR	6	2	n/a	SHAMPOO	1274	4	n/a	n/a	n/a	n/a	n/a	n/a
3597.85	n/a	RECOG_TARGET	1798925	n/a	LTP100	ltpFR	6	2	1	CANAL	226	5	0	n/a	n/a	n/a	n/a	n/a
3598.944	n/a	RECOG_RESP	1799472	n/a	LTP100	ltpFR	6	2	1	CANAL	226	n/a	0	n/a	n/a	n/a	n/a	n/a
3599.852	n/a	RECOG_CONF	1799926	n/a	LTP100	ltpFR	6	2	1	CANAL	226	5	0	n/a	n/a	n/a	n/a	n/a
3601.242	n/a	RECOG_TARGET	1800621	n/a	LTP100	ltpFR	6	2	-1	COCOON	339	5	-1	n/a	n/a	n/a	n/a	n/a
3602.062	n/a	RECOG_RESP	1801031	n/a	LTP100	ltpFR	6	2	-1	COCOON	339	n/a	-1	n/a	n/a	n/a	n/a	n/a
3602.816	n/a	RECOG_CONF	1801408	n/a	LTP100	ltpFR	6	2	-1	COCOON	339	5	-1	n/a	n/a	n/a	n/a	n/a
3604.234	n/a	RECOG_TARGET	1802117	n/a	LTP100	ltpFR	6	2	0	BATHTUB	100	5	1	n/a	n/a	n/a	n/a	n/a
3604.902	n/a	RECOG_RESP	1802451	n/a	LTP100	ltpFR	6	2	0	BATHTUB	100	n/a	1	n/a	n/a	n/a	n/a	n/a
3605.76	n/a	RECOG_CONF	1802880	n/a	LTP100	ltpFR	6	2	0	BATHTUB	100	5	1	n/a	n/a	n/a	n/a	n/a
3607.134	n/a	RECOG_TARGET	1803567	n/a	LTP100	ltpFR	6	2	0	HEEL	700	5	0	n/a	n/a	n/a	n/a	n/a
3607.856	n/a	RECOG_RESP	1803928	n/a	LTP100	ltpFR	6	2	0	HEEL	700	n/a	0	n/a	n/a	n/a	n/a	n/a
3608.634	n/a	RECOG_CONF	1804317	n/a	LTP100	ltpFR	6	2	0	HEEL	700	5	0	n/a	n/a	n/a	n/a	n/a
3610.024	n/a	RECOG_TARGET	1805012	n/a	LTP100	ltpFR	6	2	1	STAFF	1365	5	1	n/a	n/a	n/a	n/a	n/a
3611.262	n/a	RECOG_RESP	1805631	n/a	LTP100	ltpFR	6	2	1	STAFF	1365	n/a	1	n/a	n/a	n/a	n/a	n/a
3612.156	n/a	RECOG_CONF	1806078	n/a	LTP100	ltpFR	6	2	1	STAFF	1365	5	1	n/a	n/a	n/a	n/a	n/a
3613.516	n/a	RECOG_TARGET	1806758	n/a	LTP100	ltpFR	6	2	0	CAMEL	223	5	1	n/a	n/a	n/a	n/a	n/a
3614.436	n/a	RECOG_RESP	1807218	n/a	LTP100	ltpFR	6	2	0	CAMEL	223	n/a	1	n/a	n/a	n/a	n/a	n/a
3615.308	n/a	RECOG_CONF	1807654	n/a	LTP100	ltpFR	6	2	0	CAMEL	223	5	1	n/a	n/a	n/a	n/a	n/a
3616.7	n/a	RECOG_TARGET	1808350	n/a	LTP100	ltpFR	6	2	0	DOORBELL	487	5	0	n/a	n/a	n/a	n/a	n/a
3617.538	n/a	RECOG_RESP	1808769	n/a	LTP100	ltpFR	6	2	0	DOORBELL	487	n/a	0	n/a	n/a	n/a	n/a	n/a
3618.432	n/a	RECOG_CONF	1809216	n/a	LTP100	ltpFR	6	2	0	DOORBELL	487	5	0	n/a	n/a	n/a	n/a	n/a
3619.858	n/a	RECOG_LURE	1809929	n/a	LTP100	ltpFR	6	2	n/a	ROD	1203	2	n/a	n/a	n/a	n/a	n/a	n/a
3621.006	n/a	RECOG_RESP	1810503	n/a	LTP100	ltpFR	6	2	n/a	ROD	1203	n/a	n/a	n/a	n/a	n/a	n/a	n/a
3621.914	n/a	RECOG_CONF	1810957	n/a	LTP100	ltpFR	6	2	n/a	ROD	1203	2	n/a	n/a	n/a	n/a	n/a	n/a
3623.466	n/a	RECOG_TARGET	1811733	n/a	LTP100	ltpFR	6	2	0	WRIST	1626	4	0	n/a	n/a	n/a	n/a	n/a
3624.304	n/a	RECOG_RESP	1812152	n/a	LTP100	ltpFR	6	2	0	WRIST	1626	n/a	0	n/a	n/a	n/a	n/a	n/a
3625.616	n/a	RECOG_CONF	1812808	n/a	LTP100	ltpFR	6	2	0	WRIST	1626	4	0	n/a	n/a	n/a	n/a	n/a
3627.04	n/a	RECOG_LURE	1813520	n/a	LTP100	ltpFR	6	2	n/a	HAND	683	2	n/a	n/a	n/a	n/a	n/a	n/a
3628.174	n/a	RECOG_RESP	1814087	n/a	LTP100	ltpFR	6	2	n/a	HAND	683	n/a	n/a	n/a	n/a	n/a	n/a	n/a
3629.716	n/a	RECOG_CONF	1814858	n/a	LTP100	ltpFR	6	2	n/a	HAND	683	2	n/a	n/a	n/a	n/a	n/a	n/a
3631.174	n/a	RECOG_TARGET	1815587	n/a	LTP100	ltpFR	6	2	0	NITROGEN	954	5	0	n/a	n/a	n/a	n/a	n/a
3632.37	n/a	RECOG_RESP	1816185	n/a	LTP100	ltpFR	6	2	0	NITROGEN	954	n/a	0	n/a	n/a	n/a	n/a	n/a
3633.178	n/a	RECOG_CONF	1816589	n/a	LTP100	ltpFR	6	2	0	NITROGEN	954	5	0	n/a	n/a	n/a	n/a	n/a
3634.582	n/a	RECOG_LURE	1817291	n/a	LTP100	ltpFR	6	2	n/a	CINNAMON	310	4	n/a	n/a	n/a	n/a	n/a	n/a
3635.574	n/a	RECOG_RESP	1817787	n/a	LTP100	ltpFR	6	2	n/a	CINNAMON	310	n/a	n/a	n/a	n/a	n/a	n/a	n/a
3636.412	n/a	RECOG_CONF	1818206	n/a	LTP100	ltpFR	6	2	n/a	CINNAMON	310	4	n/a	n/a	n/a	n/a	n/a	n/a
3637.69	n/a	RECOG_LURE	1818845	n/a	LTP100	ltpFR	6	2	n/a	LILY	821	4	n/a	n/a	n/a	n/a	n/a	n/a
3638.586	n/a	RECOG_RESP	1819293	n/a	LTP100	ltpFR	6	2	n/a	LILY	821	n/a	n/a	n/a	n/a	n/a	n/a	n/a
3639.924	n/a	RECOG_CONF	1819962	n/a	LTP100	ltpFR	6	2	n/a	LILY	821	4	n/a	n/a	n/a	n/a	n/a	n/a
3641.274	n/a	RECOG_LURE	1820637	n/a	LTP100	ltpFR	6	2	n/a	BEETLE	116	2	n/a	n/a	n/a	n/a	n/a	n/a
3643.246	n/a	RECOG_RESP	1821623	n/a	LTP100	ltpFR	6	2	n/a	BEETLE	116	n/a	n/a	n/a	n/a	n/a	n/a	n/a
3644.214	n/a	RECOG_CONF	1822107	n/a	LTP100	ltpFR	6	2	n/a	BEETLE	116	2	n/a	n/a	n/a	n/a	n/a	n/a
3645.64	n/a	RECOG_TARGET	1822820	n/a	LTP100	ltpFR	6	2	1	STEAM	1375	3	0	n/a	n/a	n/a	n/a	n/a
3646.718	n/a	RECOG_RESP	1823359	n/a	LTP100	ltpFR	6	2	1	STEAM	1375	n/a	0	n/a	n/a	n/a	n/a	n/a
3647.856	n/a	RECOG_CONF	1823928	n/a	LTP100	ltpFR	6	2	1	STEAM	1375	3	0	n/a	n/a	n/a	n/a	n/a
3649.25	n/a	RECOG_LURE	1824625	n/a	LTP100	ltpFR	6	2	n/a	TREAT	1501	2	n/a	n/a	n/a	n/a	n/a	n/a
3650.012	n/a	RECOG_RESP	1825006	n/a	LTP100	ltpFR	6	2	n/a	TREAT	1501	n/a	n/a	n/a	n/a	n/a	n/a	n/a
3651.368	n/a	RECOG_CONF	1825684	n/a	LTP100	ltpFR	6	2	n/a	TREAT	1501	2	n/a	n/a	n/a	n/a	n/a	n/a
3652.682	n/a	RECOG_LURE	1826341	n/a	LTP100	ltpFR	6	2	n/a	TOILET	1475	4	n/a	n/a	n/a	n/a	n/a	n/a
3653.624	n/a	RECOG_RESP	1826812	n/a	LTP100	ltpFR	6	2	n/a	TOILET	1475	n/a	n/a	n/a	n/a	n/a	n/a	n/a
3655.08	n/a	RECOG_CONF	1827540	n/a	LTP100	ltpFR	6	2	n/a	TOILET	1475	4	n/a	n/a	n/a	n/a	n/a	n/a
3656.422	n/a	RECOG_TARGET	1828211	n/a	LTP100	ltpFR	6	2	-1	WEED	1599	2	-1	n/a	n/a	n/a	n/a	n/a
3657.36	n/a	RECOG_RESP	1828680	n/a	LTP100	ltpFR	6	2	-1	WEED	1599	n/a	-1	n/a	n/a	n/a	n/a	n/a
3658.772	n/a	RECOG_CONF	1829386	n/a	LTP100	ltpFR	6	2	-1	WEED	1599	2	-1	n/a	n/a	n/a	n/a	n/a
3662.048	n/a	REC_START	1831024	n/a	LTP100	ltpFR	6	3	n/a	n/a	n/a	n/a	n/a	n/a	n/a	n/a	n/a	n/a
3662.08	n/a	RECOG_LURE	1831040	n/a	LTP100	ltpFR	6	3	n/a	GUN	673	3	n/a	n/a	n/a	n/a	n/a	n/a
3663.14	n/a	RECOG_RESP	1831570	n/a	LTP100	ltpFR	6	3	n/a	GUN	673	n/a	n/a	n/a	n/a	n/a	n/a	n/a
3664.16	n/a	RECOG_CONF	1832080	n/a	LTP100	ltpFR	6	3	n/a	GUN	673	3	n/a	n/a	n/a	n/a	n/a	n/a
3665.498	n/a	RECOG_TARGET	1832749	n/a	LTP100	ltpFR	6	3	-1	TWINE	1529	2	-1	n/a	n/a	n/a	n/a	n/a
3666.894	n/a	RECOG_RESP	1833447	n/a	LTP100	ltpFR	6	3	-1	TWINE	1529	n/a	-1	n/a	n/a	n/a	n/a	n/a
3667.91	n/a	RECOG_CONF	1833955	n/a	LTP100	ltpFR	6	3	-1	TWINE	1529	2	-1	n/a	n/a	n/a	n/a	n/a
3669.432	n/a	RECOG_LURE	1834716	n/a	LTP100	ltpFR	6	3	n/a	DUSTPAN	509	4	n/a	n/a	n/a	n/a	n/a	n/a
3670.356	n/a	RECOG_RESP	1835178	n/a	LTP100	ltpFR	6	3	n/a	DUSTPAN	509	n/a	n/a	n/a	n/a	n/a	n/a	n/a
3671.264	n/a	RECOG_CONF	1835632	n/a	LTP100	ltpFR	6	3	n/a	DUSTPAN	509	4	n/a	n/a	n/a	n/a	n/a	n/a
3672.764	n/a	RECOG_LURE	1836382	n/a	LTP100	ltpFR	6	3	n/a	SHEEP	1278	3	n/a	n/a	n/a	n/a	n/a	n/a
3673.678	n/a	RECOG_RESP	1836839	n/a	LTP100	ltpFR	6	3	n/a	SHEEP	1278	n/a	n/a	n/a	n/a	n/a	n/a	n/a
3674.636	n/a	RECOG_CONF	1837318	n/a	LTP100	ltpFR	6	3	n/a	SHEEP	1278	3	n/a	n/a	n/a	n/a	n/a	n/a
3676.03	n/a	RECOG_LURE	1838015	n/a	LTP100	ltpFR	6	3	n/a	STOVE	1388	3	n/a	n/a	n/a	n/a	n/a	n/a
3676.94	n/a	RECOG_RESP	1838470	n/a	LTP100	ltpFR	6	3	n/a	STOVE	1388	n/a	n/a	n/a	n/a	n/a	n/a	n/a
3678.328	n/a	RECOG_CONF	1839164	n/a	LTP100	ltpFR	6	3	n/a	STOVE	1388	3	n/a	n/a	n/a	n/a	n/a	n/a
3679.814	n/a	RECOG_LURE	1839907	n/a	LTP100	ltpFR	6	3	n/a	NECK	939	3	n/a	n/a	n/a	n/a	n/a	n/a
3681.066	n/a	RECOG_RESP	1840533	n/a	LTP100	ltpFR	6	3	n/a	NECK	939	n/a	n/a	n/a	n/a	n/a	n/a	n/a
3682.078	n/a	RECOG_CONF	1841039	n/a	LTP100	ltpFR	6	3	n/a	NECK	939	3	n/a	n/a	n/a	n/a	n/a	n/a
3683.506	n/a	RECOG_LURE	1841753	n/a	LTP100	ltpFR	6	3	n/a	TROUSERS	1510	4	n/a	n/a	n/a	n/a	n/a	n/a
3684.838	n/a	RECOG_RESP	1842419	n/a	LTP100	ltpFR	6	3	n/a	TROUSERS	1510	n/a	n/a	n/a	n/a	n/a	n/a	n/a
3686.1	n/a	RECOG_CONF	1843050	n/a	LTP100	ltpFR	6	3	n/a	TROUSERS	1510	4	n/a	n/a	n/a	n/a	n/a	n/a
3687.522	n/a	RECOG_LURE	1843761	n/a	LTP100	ltpFR	6	3	n/a	MOSQUITO	917	4	n/a	n/a	n/a	n/a	n/a	n/a
3688.346	n/a	RECOG_RESP	1844173	n/a	LTP100	ltpFR	6	3	n/a	MOSQUITO	917	n/a	n/a	n/a	n/a	n/a	n/a	n/a
3689.254	n/a	RECOG_CONF	1844627	n/a	LTP100	ltpFR	6	3	n/a	MOSQUITO	917	4	n/a	n/a	n/a	n/a	n/a	n/a
3690.598	n/a	RECOG_LURE	1845299	n/a	LTP100	ltpFR	6	3	n/a	MUSHROOM	934	2	n/a	n/a	n/a	n/a	n/a	n/a
3692.116	n/a	RECOG_RESP	1846058	n/a	LTP100	ltpFR	6	3	n/a	MUSHROOM	934	n/a	n/a	n/a	n/a	n/a	n/a	n/a
3693.084	n/a	RECOG_CONF	1846542	n/a	LTP100	ltpFR	6	3	n/a	MUSHROOM	934	2	n/a	n/a	n/a	n/a	n/a	n/a
3694.514	n/a	RECOG_TARGET	1847257	n/a	LTP100	ltpFR	6	3	1	SKULL	1320	5	0	n/a	n/a	n/a	n/a	n/a
3695.21	n/a	RECOG_RESP	1847605	n/a	LTP100	ltpFR	6	3	1	SKULL	1320	n/a	0	n/a	n/a	n/a	n/a	n/a
3695.998	n/a	RECOG_CONF	1847999	n/a	LTP100	ltpFR	6	3	1	SKULL	1320	5	0	n/a	n/a	n/a	n/a	n/a
3697.446	n/a	RECOG_LURE	1848723	n/a	LTP100	ltpFR	6	3	n/a	RIFLE	1192	3	n/a	n/a	n/a	n/a	n/a	n/a
3698.222	n/a	RECOG_RESP	1849111	n/a	LTP100	ltpFR	6	3	n/a	RIFLE	1192	n/a	n/a	n/a	n/a	n/a	n/a	n/a
3699.032	n/a	RECOG_CONF	1849516	n/a	LTP100	ltpFR	6	3	n/a	RIFLE	1192	3	n/a	n/a	n/a	n/a	n/a	n/a
3700.396	n/a	RECOG_LURE	1850198	n/a	LTP100	ltpFR	6	3	n/a	GLUE	643	4	n/a	n/a	n/a	n/a	n/a	n/a
3701.166	n/a	RECOG_RESP	1850583	n/a	LTP100	ltpFR	6	3	n/a	GLUE	643	n/a	n/a	n/a	n/a	n/a	n/a	n/a
3701.964	n/a	RECOG_CONF	1850982	n/a	LTP100	ltpFR	6	3	n/a	GLUE	643	4	n/a	n/a	n/a	n/a	n/a	n/a
3703.314	n/a	RECOG_LURE	1851657	n/a	LTP100	ltpFR	6	3	n/a	MUMMY	932	2	n/a	n/a	n/a	n/a	n/a	n/a
3704.918	n/a	RECOG_RESP	1852459	n/a	LTP100	ltpFR	6	3	n/a	MUMMY	932	n/a	n/a	n/a	n/a	n/a	n/a	n/a
3706.326	n/a	RECOG_CONF	1853163	n/a	LTP100	ltpFR	6	3	n/a	MUMMY	932	2	n/a	n/a	n/a	n/a	n/a	n/a
3707.722	n/a	RECOG_TARGET	1853861	n/a	LTP100	ltpFR	6	3	1	SOFTBALL	1343	4	0	n/a	n/a	n/a	n/a	n/a
3708.51	n/a	RECOG_RESP	1854255	n/a	LTP100	ltpFR	6	3	1	SOFTBALL	1343	n/a	0	n/a	n/a	n/a	n/a	n/a
3709.438	n/a	RECOG_CONF	1854719	n/a	LTP100	ltpFR	6	3	1	SOFTBALL	1343	4	0	n/a	n/a	n/a	n/a	n/a
3710.848	n/a	RECOG_LURE	1855424	n/a	LTP100	ltpFR	6	3	n/a	NEPTUNE	943	3	n/a	n/a	n/a	n/a	n/a	n/a
3712.042	n/a	RECOG_RESP	1856021	n/a	LTP100	ltpFR	6	3	n/a	NEPTUNE	943	n/a	n/a	n/a	n/a	n/a	n/a	n/a
3713.16	n/a	RECOG_CONF	1856580	n/a	LTP100	ltpFR	6	3	n/a	NEPTUNE	943	3	n/a	n/a	n/a	n/a	n/a	n/a
3714.454	n/a	RECOG_LURE	1857227	n/a	LTP100	ltpFR	6	3	n/a	DETECTIVE	454	2	n/a	n/a	n/a	n/a	n/a	n/a
3715.854	n/a	RECOG_RESP	1857927	n/a	LTP100	ltpFR	6	3	n/a	DETECTIVE	454	n/a	n/a	n/a	n/a	n/a	n/a	n/a
3717.062	n/a	RECOG_CONF	1858531	n/a	LTP100	ltpFR	6	3	n/a	DETECTIVE	454	2	n/a	n/a	n/a	n/a	n/a	n/a
3718.546	n/a	RECOG_LURE	1859273	n/a	LTP100	ltpFR	6	3	n/a	MARS	873	4	n/a	n/a	n/a	n/a	n/a	n/a
3719.45	n/a	RECOG_RESP	1859725	n/a	LTP100	ltpFR	6	3	n/a	MARS	873	n/a	n/a	n/a	n/a	n/a	n/a	n/a
3720.294	n/a	RECOG_CONF	1860147	n/a	LTP100	ltpFR	6	3	n/a	MARS	873	4	n/a	n/a	n/a	n/a	n/a	n/a
3721.722	n/a	RECOG_LURE	1860861	n/a	LTP100	ltpFR	6	3	n/a	BERRY	122	4	n/a	n/a	n/a	n/a	n/a	n/a
3722.718	n/a	RECOG_RESP	1861359	n/a	LTP100	ltpFR	6	3	n/a	BERRY	122	n/a	n/a	n/a	n/a	n/a	n/a	n/a
3723.646	n/a	RECOG_CONF	1861823	n/a	LTP100	ltpFR	6	3	n/a	BERRY	122	4	n/a	n/a	n/a	n/a	n/a	n/a
3725.056	n/a	RECOG_TARGET	1862528	n/a	LTP100	ltpFR	6	3	0	RACKET	1155	4	1	n/a	n/a	n/a	n/a	n/a
3725.938	n/a	RECOG_RESP	1862969	n/a	LTP100	ltpFR	6	3	0	RACKET	1155	n/a	1	n/a	n/a	n/a	n/a	n/a
3726.84	n/a	RECOG_CONF	1863420	n/a	LTP100	ltpFR	6	3	0	RACKET	1155	4	1	n/a	n/a	n/a	n/a	n/a
3728.264	n/a	RECOG_TARGET	1864132	n/a	LTP100	ltpFR	6	3	1	APPLICATION	34	2	0	n/a	n/a	n/a	n/a	n/a
3729.22	n/a	RECOG_RESP	1864610	n/a	LTP100	ltpFR	6	3	1	APPLICATION	34	n/a	0	n/a	n/a	n/a	n/a	n/a
3730.682	n/a	RECOG_CONF	1865341	n/a	LTP100	ltpFR	6	3	1	APPLICATION	34	2	0	n/a	n/a	n/a	n/a	n/a
3733.714	n/a	REC_START	1866857	n/a	LTP100	ltpFR	6	4	n/a	n/a	n/a	n/a	n/a	n/a	n/a	n/a	n/a	n/a
3733.746	n/a	RECOG_LURE	1866873	n/a	LTP100	ltpFR	6	4	n/a	SHOVEL	1295	2	n/a	n/a	n/a	n/a	n/a	n/a
3734.422	n/a	RECOG_RESP	1867211	n/a	LTP100	ltpFR	6	4	n/a	SHOVEL	1295	n/a	n/a	n/a	n/a	n/a	n/a	n/a
3735.984	n/a	RECOG_CONF	1867992	n/a	LTP100	ltpFR	6	4	n/a	SHOVEL	1295	2	n/a	n/a	n/a	n/a	n/a	n/a
3737.38	n/a	RECOG_TARGET	1868690	n/a	LTP100	ltpFR	6	4	0	VET	1560	5	1	n/a	n/a	n/a	n/a	n/a
3738.298	n/a	RECOG_RESP	1869149	n/a	LTP100	ltpFR	6	4	0	VET	1560	n/a	1	n/a	n/a	n/a	n/a	n/a
3739.136	n/a	RECOG_CONF	1869568	n/a	LTP100	ltpFR	6	4	0	VET	1560	5	1	n/a	n/a	n/a	n/a	n/a
3740.57	n/a	RECOG_LURE	1870285	n/a	LTP100	ltpFR	6	4	n/a	AUTOMOBILE	62	3	n/a	n/a	n/a	n/a	n/a	n/a
3741.456	n/a	RECOG_RESP	1870728	n/a	LTP100	ltpFR	6	4	n/a	AUTOMOBILE	62	n/a	n/a	n/a	n/a	n/a	n/a	n/a
3742.398	n/a	RECOG_CONF	1871199	n/a	LTP100	ltpFR	6	4	n/a	AUTOMOBILE	62	3	n/a	n/a	n/a	n/a	n/a	n/a
3743.754	n/a	RECOG_TARGET	1871877	n/a	LTP100	ltpFR	6	4	0	CUE	422	5	0	n/a	n/a	n/a	n/a	n/a
3744.594	n/a	RECOG_RESP	1872297	n/a	LTP100	ltpFR	6	4	0	CUE	422	n/a	0	n/a	n/a	n/a	n/a	n/a
3745.382	n/a	RECOG_CONF	1872691	n/a	LTP100	ltpFR	6	4	0	CUE	422	5	0	n/a	n/a	n/a	n/a	n/a
3746.738	n/a	RECOG_LURE	1873369	n/a	LTP100	ltpFR	6	4	n/a	SYRINGE	1424	3	n/a	n/a	n/a	n/a	n/a	n/a
3748.016	n/a	RECOG_RESP	1874008	n/a	LTP100	ltpFR	6	4	n/a	SYRINGE	1424	n/a	n/a	n/a	n/a	n/a	n/a	n/a
3748.766	n/a	RECOG_CONF	1874383	n/a	LTP100	ltpFR	6	4	n/a	SYRINGE	1424	3	n/a	n/a	n/a	n/a	n/a	n/a
3750.08	n/a	RECOG_TARGET	1875040	n/a	LTP100	ltpFR	6	4	0	RUG	1215	4	1	n/a	n/a	n/a	n/a	n/a
3750.78	n/a	RECOG_RESP	1875390	n/a	LTP100	ltpFR	6	4	0	RUG	1215	n/a	1	n/a	n/a	n/a	n/a	n/a
3751.608	n/a	RECOG_CONF	1875804	n/a	LTP100	ltpFR	6	4	0	RUG	1215	4	1	n/a	n/a	n/a	n/a	n/a
3753.12	n/a	RECOG_LURE	1876560	n/a	LTP100	ltpFR	6	4	n/a	CAPE	237	4	n/a	n/a	n/a	n/a	n/a	n/a
3753.948	n/a	RECOG_RESP	1876974	n/a	LTP100	ltpFR	6	4	n/a	CAPE	237	n/a	n/a	n/a	n/a	n/a	n/a	n/a
3754.972	n/a	RECOG_CONF	1877486	n/a	LTP100	ltpFR	6	4	n/a	CAPE	237	4	n/a	n/a	n/a	n/a	n/a	n/a
3756.404	n/a	RECOG_TARGET	1878202	n/a	LTP100	ltpFR	6	4	1	CERAMICS	271	5	0	n/a	n/a	n/a	n/a	n/a
3757.206	n/a	RECOG_RESP	1878603	n/a	LTP100	ltpFR	6	4	1	CERAMICS	271	n/a	0	n/a	n/a	n/a	n/a	n/a
3757.974	n/a	RECOG_CONF	1878987	n/a	LTP100	ltpFR	6	4	1	CERAMICS	271	5	0	n/a	n/a	n/a	n/a	n/a
3759.42	n/a	RECOG_TARGET	1879710	n/a	LTP100	ltpFR	6	4	-1	RUM	1217	5	-1	n/a	n/a	n/a	n/a	n/a
3760.114	n/a	RECOG_RESP	1880057	n/a	LTP100	ltpFR	6	4	-1	RUM	1217	n/a	-1	n/a	n/a	n/a	n/a	n/a
3760.918	n/a	RECOG_CONF	1880459	n/a	LTP100	ltpFR	6	4	-1	RUM	1217	5	-1	n/a	n/a	n/a	n/a	n/a
3762.286	n/a	RECOG_TARGET	1881143	n/a	LTP100	ltpFR	6	4	1	RECEIPT	1173	1	0	n/a	n/a	n/a	n/a	n/a
3763.602	n/a	RECOG_RESP	1881801	n/a	LTP100	ltpFR	6	4	1	RECEIPT	1173	n/a	0	n/a	n/a	n/a	n/a	n/a
3764.728	n/a	RECOG_CONF	1882364	n/a	LTP100	ltpFR	6	4	1	RECEIPT	1173	1	0	n/a	n/a	n/a	n/a	n/a
3766.13	n/a	RECOG_LURE	1883065	n/a	LTP100	ltpFR	6	4	n/a	RATTLE	1170	3	n/a	n/a	n/a	n/a	n/a	n/a
3768.262	n/a	RECOG_RESP	1884131	n/a	LTP100	ltpFR	6	4	n/a	RATTLE	1170	n/a	n/a	n/a	n/a	n/a	n/a	n/a
3769.44	n/a	RECOG_CONF	1884720	n/a	LTP100	ltpFR	6	4	n/a	RATTLE	1170	3	n/a	n/a	n/a	n/a	n/a	n/a
3770.82	n/a	RECOG_LURE	1885410	n/a	LTP100	ltpFR	6	4	n/a	FLEA	577	4	n/a	n/a	n/a	n/a	n/a	n/a
3771.754	n/a	RECOG_RESP	1885877	n/a	LTP100	ltpFR	6	4	n/a	FLEA	577	n/a	n/a	n/a	n/a	n/a	n/a	n/a
3772.742	n/a	RECOG_CONF	1886371	n/a	LTP100	ltpFR	6	4	n/a	FLEA	577	4	n/a	n/a	n/a	n/a	n/a	n/a
3774.146	n/a	RECOG_TARGET	1887073	n/a	LTP100	ltpFR	6	4	1	MINER	896	5	1	n/a	n/a	n/a	n/a	n/a
3774.976	n/a	RECOG_RESP	1887488	n/a	LTP100	ltpFR	6	4	1	MINER	896	n/a	1	n/a	n/a	n/a	n/a	n/a
3775.794	n/a	RECOG_CONF	1887897	n/a	LTP100	ltpFR	6	4	1	MINER	896	5	1	n/a	n/a	n/a	n/a	n/a
3777.154	n/a	RECOG_LURE	1888577	n/a	LTP100	ltpFR	6	4	n/a	LOVER	846	5	n/a	n/a	n/a	n/a	n/a	n/a
3778.074	n/a	RECOG_RESP	1889037	n/a	LTP100	ltpFR	6	4	n/a	LOVER	846	n/a	n/a	n/a	n/a	n/a	n/a	n/a
3778.878	n/a	RECOG_CONF	1889439	n/a	LTP100	ltpFR	6	4	n/a	LOVER	846	5	n/a	n/a	n/a	n/a	n/a	n/a
3780.304	n/a	RECOG_TARGET	1890152	n/a	LTP100	ltpFR	6	4	1	SCIENTIST	1249	2	1	n/a	n/a	n/a	n/a	n/a
3781.392	n/a	RECOG_RESP	1890696	n/a	LTP100	ltpFR	6	4	1	SCIENTIST	1249	n/a	1	n/a	n/a	n/a	n/a	n/a
3782.708	n/a	RECOG_CONF	1891354	n/a	LTP100	ltpFR	6	4	1	SCIENTIST	1249	2	1	n/a	n/a	n/a	n/a	n/a
3784.204	n/a	RECOG_LURE	1892102	n/a	LTP100	ltpFR	6	4	n/a	YOLK	1633	4	n/a	n/a	n/a	n/a	n/a	n/a
3785.118	n/a	RECOG_RESP	1892559	n/a	LTP100	ltpFR	6	4	n/a	YOLK	1633	n/a	n/a	n/a	n/a	n/a	n/a	n/a
3786.202	n/a	RECOG_CONF	1893101	n/a	LTP100	ltpFR	6	4	n/a	YOLK	1633	4	n/a	n/a	n/a	n/a	n/a	n/a
3787.628	n/a	RECOG_TARGET	1893814	n/a	LTP100	ltpFR	6	4	1	CATTLE	261	3	1	n/a	n/a	n/a	n/a	n/a
3788.896	n/a	RECOG_RESP	1894448	n/a	LTP100	ltpFR	6	4	1	CATTLE	261	n/a	1	n/a	n/a	n/a	n/a	n/a
3790.074	n/a	RECOG_CONF	1895037	n/a	LTP100	ltpFR	6	4	1	CATTLE	261	3	1	n/a	n/a	n/a	n/a	n/a
3791.52	n/a	RECOG_TARGET	1895760	n/a	LTP100	ltpFR	6	4	1	HANDBAG	684	5	0	n/a	n/a	n/a	n/a	n/a
3792.304	n/a	RECOG_RESP	1896152	n/a	LTP100	ltpFR	6	4	1	HANDBAG	684	n/a	0	n/a	n/a	n/a	n/a	n/a
3793.116	n/a	RECOG_CONF	1896558	n/a	LTP100	ltpFR	6	4	1	HANDBAG	684	5	0	n/a	n/a	n/a	n/a	n/a
3794.536	n/a	RECOG_TARGET	1897268	n/a	LTP100	ltpFR	6	4	0	SADDLE	1221	5	1	n/a	n/a	n/a	n/a	n/a
3795.52	n/a	RECOG_RESP	1897760	n/a	LTP100	ltpFR	6	4	0	SADDLE	1221	n/a	1	n/a	n/a	n/a	n/a	n/a
3796.598	n/a	RECOG_CONF	1898299	n/a	LTP100	ltpFR	6	4	0	SADDLE	1221	5	1	n/a	n/a	n/a	n/a	n/a
3797.936	n/a	RECOG_LURE	1898968	n/a	LTP100	ltpFR	6	4	n/a	CUSTOMER	430	2	n/a	n/a	n/a	n/a	n/a	n/a
3799.112	n/a	RECOG_RESP	1899556	n/a	LTP100	ltpFR	6	4	n/a	CUSTOMER	430	n/a	n/a	n/a	n/a	n/a	n/a	n/a
3800.73	n/a	RECOG_CONF	1900365	n/a	LTP100	ltpFR	6	4	n/a	CUSTOMER	430	2	n/a	n/a	n/a	n/a	n/a	n/a
3804.236	n/a	REC_START	1902118	n/a	LTP100	ltpFR	6	5	n/a	n/a	n/a	n/a	n/a	n/a	n/a	n/a	n/a	n/a
3804.27	n/a	RECOG_TARGET	1902135	n/a	LTP100	ltpFR	6	5	1	TABLET	1427	5	0	n/a	n/a	n/a	n/a	n/a
3805.248	n/a	RECOG_RESP	1902624	n/a	LTP100	ltpFR	6	5	1	TABLET	1427	n/a	0	n/a	n/a	n/a	n/a	n/a
3806.038	n/a	RECOG_CONF	1903019	n/a	LTP100	ltpFR	6	5	1	TABLET	1427	5	0	n/a	n/a	n/a	n/a	n/a
3807.328	n/a	RECOG_TARGET	1903664	n/a	LTP100	ltpFR	6	5	0	SALIVA	1226	5	0	n/a	n/a	n/a	n/a	n/a
3807.992	n/a	RECOG_RESP	1903996	n/a	LTP100	ltpFR	6	5	0	SALIVA	1226	n/a	0	n/a	n/a	n/a	n/a	n/a
3808.8	n/a	RECOG_CONF	1904400	n/a	LTP100	ltpFR	6	5	0	SALIVA	1226	5	0	n/a	n/a	n/a	n/a	n/a
3810.062	n/a	RECOG_TARGET	1905031	n/a	LTP100	ltpFR	6	5	0	VOLLEYBALL	1576	4	1	n/a	n/a	n/a	n/a	n/a
3810.852	n/a	RECOG_RESP	1905426	n/a	LTP100	ltpFR	6	5	0	VOLLEYBALL	1576	n/a	1	n/a	n/a	n/a	n/a	n/a
3811.694	n/a	RECOG_CONF	1905847	n/a	LTP100	ltpFR	6	5	0	VOLLEYBALL	1576	4	1	n/a	n/a	n/a	n/a	n/a
3813.01	n/a	RECOG_LURE	1906505	n/a	LTP100	ltpFR	6	5	n/a	PHILOSOPHER	1054	3	n/a	n/a	n/a	n/a	n/a	n/a
3813.9	n/a	RECOG_RESP	1906950	n/a	LTP100	ltpFR	6	5	n/a	PHILOSOPHER	1054	n/a	n/a	n/a	n/a	n/a	n/a	n/a
3814.758	n/a	RECOG_CONF	1907379	n/a	LTP100	ltpFR	6	5	n/a	PHILOSOPHER	1054	3	n/a	n/a	n/a	n/a	n/a	n/a
3816.02	n/a	RECOG_TARGET	1908010	n/a	LTP100	ltpFR	6	5	-1	ACROBAT	4	4	-1	n/a	n/a	n/a	n/a	n/a
3816.748	n/a	RECOG_RESP	1908374	n/a	LTP100	ltpFR	6	5	-1	ACROBAT	4	n/a	-1	n/a	n/a	n/a	n/a	n/a
3817.58	n/a	RECOG_CONF	1908790	n/a	LTP100	ltpFR	6	5	-1	ACROBAT	4	4	-1	n/a	n/a	n/a	n/a	n/a
3818.944	n/a	RECOG_TARGET	1909472	n/a	LTP100	ltpFR	6	5	-1	FOOT	590	2	-1	n/a	n/a	n/a	n/a	n/a
3820.21	n/a	RECOG_RESP	1910105	n/a	LTP100	ltpFR	6	5	-1	FOOT	590	n/a	-1	n/a	n/a	n/a	n/a	n/a
3821.182	n/a	RECOG_CONF	1910591	n/a	LTP100	ltpFR	6	5	-1	FOOT	590	2	-1	n/a	n/a	n/a	n/a	n/a
3822.502	n/a	RECOG_LURE	1911251	n/a	LTP100	ltpFR	6	5	n/a	COLUMN	350	1	n/a	n/a	n/a	n/a	n/a	n/a
3823.322	n/a	RECOG_RESP	1911661	n/a	LTP100	ltpFR	6	5	n/a	COLUMN	350	n/a	n/a	n/a	n/a	n/a	n/a	n/a
3824.376	n/a	RECOG_CONF	1912188	n/a	LTP100	ltpFR	6	5	n/a	COLUMN	350	1	n/a	n/a	n/a	n/a	n/a	n/a
3825.952	n/a	RECOG_LURE	1912976	n/a	LTP100	ltpFR	6	5	n/a	SKELETON	1314	3	n/a	n/a	n/a	n/a	n/a	n/a
3827.046	n/a	RECOG_RESP	1913523	n/a	LTP100	ltpFR	6	5	n/a	SKELETON	1314	n/a	n/a	n/a	n/a	n/a	n/a	n/a
3827.878	n/a	RECOG_CONF	1913939	n/a	LTP100	ltpFR	6	5	n/a	SKELETON	1314	3	n/a	n/a	n/a	n/a	n/a	n/a
3829.204	n/a	RECOG_LURE	1914602	n/a	LTP100	ltpFR	6	5	n/a	RULER	1216	3	n/a	n/a	n/a	n/a	n/a	n/a
3831.67	n/a	RECOG_RESP	1915835	n/a	LTP100	ltpFR	6	5	n/a	RULER	1216	n/a	n/a	n/a	n/a	n/a	n/a	n/a
3832.578	n/a	RECOG_CONF	1916289	n/a	LTP100	ltpFR	6	5	n/a	RULER	1216	3	n/a	n/a	n/a	n/a	n/a	n/a
3833.986	n/a	RECOG_LURE	1916993	n/a	LTP100	ltpFR	6	5	n/a	SALT	1229	4	n/a	n/a	n/a	n/a	n/a	n/a
3835.008	n/a	RECOG_RESP	1917504	n/a	LTP100	ltpFR	6	5	n/a	SALT	1229	n/a	n/a	n/a	n/a	n/a	n/a	n/a
3836.04	n/a	RECOG_CONF	1918020	n/a	LTP100	ltpFR	6	5	n/a	SALT	1229	4	n/a	n/a	n/a	n/a	n/a	n/a
3837.36	n/a	RECOG_TARGET	1918680	n/a	LTP100	ltpFR	6	5	-1	GEM	629	4	-1	n/a	n/a	n/a	n/a	n/a
3838.076	n/a	RECOG_RESP	1919038	n/a	LTP100	ltpFR	6	5	-1	GEM	629	n/a	-1	n/a	n/a	n/a	n/a	n/a
3838.854	n/a	RECOG_CONF	1919427	n/a	LTP100	ltpFR	6	5	-1	GEM	629	4	-1	n/a	n/a	n/a	n/a	n/a
3840.228	n/a	RECOG_LURE	1920114	n/a	LTP100	ltpFR	6	5	n/a	CARROT	249	4	n/a	n/a	n/a	n/a	n/a	n/a
3841.168	n/a	RECOG_RESP	1920584	n/a	LTP100	ltpFR	6	5	n/a	CARROT	249	n/a	n/a	n/a	n/a	n/a	n/a	n/a
3842.036	n/a	RECOG_CONF	1921018	n/a	LTP100	ltpFR	6	5	n/a	CARROT	249	4	n/a	n/a	n/a	n/a	n/a	n/a
3843.384	n/a	RECOG_TARGET	1921692	n/a	LTP100	ltpFR	6	5	1	MANAGER	863	2	1	n/a	n/a	n/a	n/a	n/a
3844.65	n/a	RECOG_RESP	1922325	n/a	LTP100	ltpFR	6	5	1	MANAGER	863	n/a	1	n/a	n/a	n/a	n/a	n/a
3845.828	n/a	RECOG_CONF	1922914	n/a	LTP100	ltpFR	6	5	1	MANAGER	863	2	1	n/a	n/a	n/a	n/a	n/a
3847.31	n/a	RECOG_TARGET	1923655	n/a	LTP100	ltpFR	6	5	0	PAN	1008	1	1	n/a	n/a	n/a	n/a	n/a
3849.76	n/a	RECOG_CONF	1924880	n/a	LTP100	ltpFR	6	5	0	PAN	1008	1	1	n/a	n/a	n/a	n/a	n/a
3851.27	n/a	RECOG_TARGET	1925635	n/a	LTP100	ltpFR	6	5	1	SCISSORS	1250	4	0	n/a	n/a	n/a	n/a	n/a
3853.032	n/a	RECOG_RESP	1926516	n/a	LTP100	ltpFR	6	5	1	SCISSORS	1250	n/a	0	n/a	n/a	n/a	n/a	n/a
3853.97	n/a	RECOG_CONF	1926985	n/a	LTP100	ltpFR	6	5	1	SCISSORS	1250	4	0	n/a	n/a	n/a	n/a	n/a
3855.46	n/a	RECOG_LURE	1927730	n/a	LTP100	ltpFR	6	5	n/a	LASER	801	3	n/a	n/a	n/a	n/a	n/a	n/a
3856.36	n/a	RECOG_RESP	1928180	n/a	LTP100	ltpFR	6	5	n/a	LASER	801	n/a	n/a	n/a	n/a	n/a	n/a	n/a
3857.842	n/a	RECOG_CONF	1928921	n/a	LTP100	ltpFR	6	5	n/a	LASER	801	3	n/a	n/a	n/a	n/a	n/a	n/a
3859.186	n/a	RECOG_LURE	1929593	n/a	LTP100	ltpFR	6	5	n/a	BOULEVARD	156	5	n/a	n/a	n/a	n/a	n/a	n/a
3860.072	n/a	RECOG_RESP	1930036	n/a	LTP100	ltpFR	6	5	n/a	BOULEVARD	156	n/a	n/a	n/a	n/a	n/a	n/a	n/a
3860.834	n/a	RECOG_CONF	1930417	n/a	LTP100	ltpFR	6	5	n/a	BOULEVARD	156	5	n/a	n/a	n/a	n/a	n/a	n/a
3862.226	n/a	RECOG_LURE	1931113	n/a	LTP100	ltpFR	6	5	n/a	DINER	467	2	n/a	n/a	n/a	n/a	n/a	n/a
3863.084	n/a	RECOG_RESP	1931542	n/a	LTP100	ltpFR	6	5	n/a	DINER	467	n/a	n/a	n/a	n/a	n/a	n/a	n/a
3863.898	n/a	RECOG_CONF	1931949	n/a	LTP100	ltpFR	6	5	n/a	DINER	467	2	n/a	n/a	n/a	n/a	n/a	n/a
3865.26	n/a	RECOG_TARGET	1932630	n/a	LTP100	ltpFR	6	5	0	CARPENTER	246	5	1	n/a	n/a	n/a	n/a	n/a
3866.194	n/a	RECOG_RESP	1933097	n/a	LTP100	ltpFR	6	5	0	CARPENTER	246	n/a	1	n/a	n/a	n/a	n/a	n/a
3866.892	n/a	RECOG_CONF	1933446	n/a	LTP100	ltpFR	6	5	0	CARPENTER	246	5	1	n/a	n/a	n/a	n/a	n/a
3868.276	n/a	RECOG_LURE	1934138	n/a	LTP100	ltpFR	6	5	n/a	MILDEW	893	4	n/a	n/a	n/a	n/a	n/a	n/a
3869.306	n/a	RECOG_RESP	1934653	n/a	LTP100	ltpFR	6	5	n/a	MILDEW	893	n/a	n/a	n/a	n/a	n/a	n/a	n/a
3870.268	n/a	RECOG_CONF	1935134	n/a	LTP100	ltpFR	6	5	n/a	MILDEW	893	4	n/a	n/a	n/a	n/a	n/a	n/a
3874.058	n/a	REC_START	1937029	n/a	LTP100	ltpFR	6	6	n/a	n/a	n/a	n/a	n/a	n/a	n/a	n/a	n/a	n/a
3874.092	n/a	RECOG_LURE	1937046	n/a	LTP100	ltpFR	6	6	n/a	CREVICE	405	5	n/a	n/a	n/a	n/a	n/a	n/a
3874.966	n/a	RECOG_RESP	1937483	n/a	LTP100	ltpFR	6	6	n/a	CREVICE	405	n/a	n/a	n/a	n/a	n/a	n/a	n/a
3876.048	n/a	RECOG_CONF	1938024	n/a	LTP100	ltpFR	6	6	n/a	CREVICE	405	5	n/a	n/a	n/a	n/a	n/a	n/a
3877.576	n/a	RECOG_TARGET	1938788	n/a	LTP100	ltpFR	6	6	1	SPATULA	1348	2	0	n/a	n/a	n/a	n/a	n/a
3878.726	n/a	RECOG_RESP_VV	1939363	n/a	LTP100	ltpFR	6	6	1	SPATULA	1348	n/a	0	n/a	n/a	n/a	n/a	n/a
3880.314	n/a	RECOG_RESP	1940157	n/a	LTP100	ltpFR	6	6	1	SPATULA	1348	n/a	0	n/a	n/a	n/a	n/a	n/a
3881.894	n/a	RECOG_CONF	1940947	n/a	LTP100	ltpFR	6	6	1	SPATULA	1348	2	0	n/a	n/a	n/a	n/a	n/a
3883.376	n/a	RECOG_LURE	1941688	n/a	LTP100	ltpFR	6	6	n/a	FATHER	554	3	n/a	n/a	n/a	n/a	n/a	n/a
3884.644	n/a	RECOG_RESP	1942322	n/a	LTP100	ltpFR	6	6	n/a	FATHER	554	n/a	n/a	n/a	n/a	n/a	n/a	n/a
3885.656	n/a	RECOG_CONF	1942828	n/a	LTP100	ltpFR	6	6	n/a	FATHER	554	3	n/a	n/a	n/a	n/a	n/a	n/a
3887.026	n/a	RECOG_LURE	1943513	n/a	LTP100	ltpFR	6	6	n/a	BUTTON	207	3	n/a	n/a	n/a	n/a	n/a	n/a
3888.36	n/a	RECOG_RESP	1944180	n/a	LTP100	ltpFR	6	6	n/a	BUTTON	207	n/a	n/a	n/a	n/a	n/a	n/a	n/a
3889.348	n/a	RECOG_CONF	1944674	n/a	LTP100	ltpFR	6	6	n/a	BUTTON	207	3	n/a	n/a	n/a	n/a	n/a	n/a
3890.726	n/a	RECOG_TARGET	1945363	n/a	LTP100	ltpFR	6	6	1	FIN	566	4	0	n/a	n/a	n/a	n/a	n/a
3891.514	n/a	RECOG_RESP	1945757	n/a	LTP100	ltpFR	6	6	1	FIN	566	n/a	0	n/a	n/a	n/a	n/a	n/a
3892.362	n/a	RECOG_CONF	1946181	n/a	LTP100	ltpFR	6	6	1	FIN	566	4	0	n/a	n/a	n/a	n/a	n/a
3893.742	n/a	RECOG_TARGET	1946871	n/a	LTP100	ltpFR	6	6	-1	WHALE	1601	4	-1	n/a	n/a	n/a	n/a	n/a
3894.492	n/a	RECOG_RESP	1947246	n/a	LTP100	ltpFR	6	6	-1	WHALE	1601	n/a	-1	n/a	n/a	n/a	n/a	n/a
3895.344	n/a	RECOG_CONF	1947672	n/a	LTP100	ltpFR	6	6	-1	WHALE	1601	4	-1	n/a	n/a	n/a	n/a	n/a
3896.642	n/a	RECOG_TARGET	1948321	n/a	LTP100	ltpFR	6	6	-1	GLOBE	641	2	-1	n/a	n/a	n/a	n/a	n/a
3897.684	n/a	RECOG_RESP	1948842	n/a	LTP100	ltpFR	6	6	-1	GLOBE	641	n/a	-1	n/a	n/a	n/a	n/a	n/a
3898.866	n/a	RECOG_CONF	1949433	n/a	LTP100	ltpFR	6	6	-1	GLOBE	641	2	-1	n/a	n/a	n/a	n/a	n/a
3900.126	n/a	RECOG_TARGET	1950063	n/a	LTP100	ltpFR	6	6	1	LINT	826	3	0	n/a	n/a	n/a	n/a	n/a
3901.026	n/a	RECOG_RESP	1950513	n/a	LTP100	ltpFR	6	6	1	LINT	826	n/a	0	n/a	n/a	n/a	n/a	n/a
3901.89	n/a	RECOG_CONF	1950945	n/a	LTP100	ltpFR	6	6	1	LINT	826	3	0	n/a	n/a	n/a	n/a	n/a
3903.366	n/a	RECOG_LURE	1951683	n/a	LTP100	ltpFR	6	6	n/a	NICKEL	950	3	n/a	n/a	n/a	n/a	n/a	n/a
3904.548	n/a	RECOG_RESP	1952274	n/a	LTP100	ltpFR	6	6	n/a	NICKEL	950	n/a	n/a	n/a	n/a	n/a	n/a	n/a
3905.462	n/a	RECOG_CONF	1952731	n/a	LTP100	ltpFR	6	6	n/a	NICKEL	950	3	n/a	n/a	n/a	n/a	n/a	n/a
3906.85	n/a	RECOG_LURE	1953425	n/a	LTP100	ltpFR	6	6	n/a	CORN	381	3	n/a	n/a	n/a	n/a	n/a	n/a
3907.712	n/a	RECOG_RESP	1953856	n/a	LTP100	ltpFR	6	6	n/a	CORN	381	n/a	n/a	n/a	n/a	n/a	n/a	n/a
3908.746	n/a	RECOG_CONF	1954373	n/a	LTP100	ltpFR	6	6	n/a	CORN	381	3	n/a	n/a	n/a	n/a	n/a	n/a
3910.316	n/a	RECOG_TARGET	1955158	n/a	LTP100	ltpFR	6	6	1	DOG	480	5	1	n/a	n/a	n/a	n/a	n/a
3911.144	n/a	RECOG_RESP	1955572	n/a	LTP100	ltpFR	6	6	1	DOG	480	n/a	1	n/a	n/a	n/a	n/a	n/a
3912.138	n/a	RECOG_CONF	1956069	n/a	LTP100	ltpFR	6	6	1	DOG	480	5	1	n/a	n/a	n/a	n/a	n/a
3913.484	n/a	RECOG_TARGET	1956742	n/a	LTP100	ltpFR	6	6	1	COOKBOOK	373	4	0	n/a	n/a	n/a	n/a	n/a
3914.746	n/a	RECOG_RESP	1957373	n/a	LTP100	ltpFR	6	6	1	COOKBOOK	373	n/a	0	n/a	n/a	n/a	n/a	n/a
3915.6	n/a	RECOG_CONF	1957800	n/a	LTP100	ltpFR	6	6	1	COOKBOOK	373	4	0	n/a	n/a	n/a	n/a	n/a
3917.042	n/a	RECOG_TARGET	1958521	n/a	LTP100	ltpFR	6	6	1	PIKE	1067	5	0	n/a	n/a	n/a	n/a	n/a
3917.794	n/a	RECOG_RESP	1958897	n/a	LTP100	ltpFR	6	6	1	PIKE	1067	n/a	0	n/a	n/a	n/a	n/a	n/a
3918.614	n/a	RECOG_CONF	1959307	n/a	LTP100	ltpFR	6	6	1	PIKE	1067	5	0	n/a	n/a	n/a	n/a	n/a
3919.982	n/a	RECOG_TARGET	1959991	n/a	LTP100	ltpFR	6	6	1	MOLECULE	905	5	0	n/a	n/a	n/a	n/a	n/a
3920.688	n/a	RECOG_RESP	1960344	n/a	LTP100	ltpFR	6	6	1	MOLECULE	905	n/a	0	n/a	n/a	n/a	n/a	n/a
3921.576	n/a	RECOG_CONF	1960788	n/a	LTP100	ltpFR	6	6	1	MOLECULE	905	5	0	n/a	n/a	n/a	n/a	n/a
3922.94	n/a	RECOG_LURE	1961470	n/a	LTP100	ltpFR	6	6	n/a	SERPENT	1270	4	n/a	n/a	n/a	n/a	n/a	n/a
3923.676	n/a	RECOG_RESP	1961838	n/a	LTP100	ltpFR	6	6	n/a	SERPENT	1270	n/a	n/a	n/a	n/a	n/a	n/a	n/a
3924.44	n/a	RECOG_CONF	1962220	n/a	LTP100	ltpFR	6	6	n/a	SERPENT	1270	4	n/a	n/a	n/a	n/a	n/a	n/a
3925.708	n/a	RECOG_TARGET	1962854	n/a	LTP100	ltpFR	6	6	0	CHIEF	298	3	1	n/a	n/a	n/a	n/a	n/a
3926.506	n/a	RECOG_RESP	1963253	n/a	LTP100	ltpFR	6	6	0	CHIEF	298	n/a	1	n/a	n/a	n/a	n/a	n/a
3927.414	n/a	RECOG_CONF	1963707	n/a	LTP100	ltpFR	6	6	0	CHIEF	298	3	1	n/a	n/a	n/a	n/a	n/a
3928.792	n/a	RECOG_LURE	1964396	n/a	LTP100	ltpFR	6	6	n/a	WAIST	1579	2	n/a	n/a	n/a	n/a	n/a	n/a
3929.764	n/a	RECOG_RESP	1964882	n/a	LTP100	ltpFR	6	6	n/a	WAIST	1579	n/a	n/a	n/a	n/a	n/a	n/a	n/a
3930.626	n/a	RECOG_CONF	1965313	n/a	LTP100	ltpFR	6	6	n/a	WAIST	1579	2	n/a	n/a	n/a	n/a	n/a	n/a
3931.984	n/a	RECOG_LURE	1965992	n/a	LTP100	ltpFR	6	6	n/a	TRIBE	1505	1	n/a	n/a	n/a	n/a	n/a	n/a
3934.522	n/a	RECOG_RESP	1967261	n/a	LTP100	ltpFR	6	6	n/a	TRIBE	1505	n/a	n/a	n/a	n/a	n/a	n/a	n/a
3935.676	n/a	RECOG_CONF	1967838	n/a	LTP100	ltpFR	6	6	n/a	TRIBE	1505	1	n/a	n/a	n/a	n/a	n/a	n/a
3937.09	n/a	RECOG_LURE	1968545	n/a	LTP100	ltpFR	6	6	n/a	ZIPPER	1636	2	n/a	n/a	n/a	n/a	n/a	n/a
3938.728	n/a	RECOG_RESP	1969364	n/a	LTP100	ltpFR	6	6	n/a	ZIPPER	1636	n/a	n/a	n/a	n/a	n/a	n/a	n/a
3939.776	n/a	RECOG_CONF	1969888	n/a	LTP100	ltpFR	6	6	n/a	ZIPPER	1636	2	n/a	n/a	n/a	n/a	n/a	n/a
3941.082	n/a	RECOG_LURE	1970541	n/a	LTP100	ltpFR	6	6	n/a	STAPLER	1372	3	n/a	n/a	n/a	n/a	n/a	n/a
3942.036	n/a	RECOG_RESP	1971018	n/a	LTP100	ltpFR	6	6	n/a	STAPLER	1372	n/a	n/a	n/a	n/a	n/a	n/a	n/a
3942.868	n/a	RECOG_CONF	1971434	n/a	LTP100	ltpFR	6	6	n/a	STAPLER	1372	3	n/a	n/a	n/a	n/a	n/a	n/a
3946.162	n/a	REC_START	1973081	n/a	LTP100	ltpFR	6	7	n/a	n/a	n/a	n/a	n/a	n/a	n/a	n/a	n/a	n/a
3946.2	n/a	RECOG_TARGET	1973100	n/a	LTP100	ltpFR	6	7	-1	STADIUM	1364	2	-1	n/a	n/a	n/a	n/a	n/a
3947.924	n/a	RECOG_RESP	1973962	n/a	LTP100	ltpFR	6	7	-1	STADIUM	1364	n/a	-1	n/a	n/a	n/a	n/a	n/a
3949.002	n/a	RECOG_CONF	1974501	n/a	LTP100	ltpFR	6	7	-1	STADIUM	1364	2	-1	n/a	n/a	n/a	n/a	n/a
3950.408	n/a	RECOG_LURE	1975204	n/a	LTP100	ltpFR	6	7	n/a	CUP	424	2	n/a	n/a	n/a	n/a	n/a	n/a
3952.484	n/a	RECOG_RESP	1976242	n/a	LTP100	ltpFR	6	7	n/a	CUP	424	n/a	n/a	n/a	n/a	n/a	n/a	n/a
3953.452	n/a	RECOG_CONF	1976726	n/a	LTP100	ltpFR	6	7	n/a	CUP	424	2	n/a	n/a	n/a	n/a	n/a	n/a
3954.748	n/a	RECOG_LURE	1977374	n/a	LTP100	ltpFR	6	7	n/a	COWBOY	395	3	n/a	n/a	n/a	n/a	n/a	n/a
3955.726	n/a	RECOG_RESP	1977863	n/a	LTP100	ltpFR	6	7	n/a	COWBOY	395	n/a	n/a	n/a	n/a	n/a	n/a	n/a
3956.574	n/a	RECOG_CONF	1978287	n/a	LTP100	ltpFR	6	7	n/a	COWBOY	395	3	n/a	n/a	n/a	n/a	n/a	n/a
3957.866	n/a	RECOG_LURE	1978933	n/a	LTP100	ltpFR	6	7	n/a	CHOCOLATE	306	4	n/a	n/a	n/a	n/a	n/a	n/a
3958.794	n/a	RECOG_RESP_VV	1979397	n/a	LTP100	ltpFR	6	7	n/a	CHOCOLATE	306	n/a	n/a	n/a	n/a	n/a	n/a	n/a
3959.828	n/a	RECOG_RESP	1979914	n/a	LTP100	ltpFR	6	7	n/a	CHOCOLATE	306	n/a	n/a	n/a	n/a	n/a	n/a	n/a
3961.534	n/a	RECOG_CONF	1980767	n/a	LTP100	ltpFR	6	7	n/a	CHOCOLATE	306	4	n/a	n/a	n/a	n/a	n/a	n/a
3963.064	n/a	RECOG_TARGET	1981532	n/a	LTP100	ltpFR	6	7	1	RACCOON	1153	2	1	n/a	n/a	n/a	n/a	n/a
3965.194	n/a	RECOG_RESP	1982597	n/a	LTP100	ltpFR	6	7	1	RACCOON	1153	n/a	1	n/a	n/a	n/a	n/a	n/a
3967.382	n/a	RECOG_CONF	1983691	n/a	LTP100	ltpFR	6	7	1	RACCOON	1153	2	1	n/a	n/a	n/a	n/a	n/a
3968.816	n/a	RECOG_LURE	1984408	n/a	LTP100	ltpFR	6	7	n/a	PERISCOPE	1050	3	n/a	n/a	n/a	n/a	n/a	n/a
3969.68	n/a	RECOG_RESP	1984840	n/a	LTP100	ltpFR	6	7	n/a	PERISCOPE	1050	n/a	n/a	n/a	n/a	n/a	n/a	n/a
3970.504	n/a	RECOG_CONF	1985252	n/a	LTP100	ltpFR	6	7	n/a	PERISCOPE	1050	3	n/a	n/a	n/a	n/a	n/a	n/a
3971.882	n/a	RECOG_TARGET	1985941	n/a	LTP100	ltpFR	6	7	1	TUNNEL	1519	2	0	n/a	n/a	n/a	n/a	n/a
3973.092	n/a	RECOG_RESP	1986546	n/a	LTP100	ltpFR	6	7	1	TUNNEL	1519	n/a	0	n/a	n/a	n/a	n/a	n/a
3974.336	n/a	RECOG_CONF	1987168	n/a	LTP100	ltpFR	6	7	1	TUNNEL	1519	2	0	n/a	n/a	n/a	n/a	n/a
3975.674	n/a	RECOG_LURE	1987837	n/a	LTP100	ltpFR	6	7	n/a	TRUCK	1512	2	n/a	n/a	n/a	n/a	n/a	n/a
3976.58	n/a	RECOG_RESP	1988290	n/a	LTP100	ltpFR	6	7	n/a	TRUCK	1512	n/a	n/a	n/a	n/a	n/a	n/a	n/a
3977.938	n/a	RECOG_CONF	1988969	n/a	LTP100	ltpFR	6	7	n/a	TRUCK	1512	2	n/a	n/a	n/a	n/a	n/a	n/a
3979.064	n/a	RECOG_TARGET	1989532	n/a	LTP100	ltpFR	6	7	0	RELATIVE	1182	3	1	n/a	n/a	n/a	n/a	n/a
3980.352	n/a	RECOG_RESP	1990176	n/a	LTP100	ltpFR	6	7	0	RELATIVE	1182	n/a	1	n/a	n/a	n/a	n/a	n/a
3981.49	n/a	RECOG_CONF	1990745	n/a	LTP100	ltpFR	6	7	0	RELATIVE	1182	3	1	n/a	n/a	n/a	n/a	n/a
3982.972	n/a	RECOG_LURE	1991486	n/a	LTP100	ltpFR	6	7	n/a	MOB	904	2	n/a	n/a	n/a	n/a	n/a	n/a
3984.358	n/a	RECOG_RESP	1992179	n/a	LTP100	ltpFR	6	7	n/a	MOB	904	n/a	n/a	n/a	n/a	n/a	n/a	n/a
3985.2	n/a	RECOG_CONF	1992600	n/a	LTP100	ltpFR	6	7	n/a	MOB	904	2	n/a	n/a	n/a	n/a	n/a	n/a
3986.564	n/a	RECOG_TARGET	1993282	n/a	LTP100	ltpFR	6	7	1	ENEMY	534	5	1	n/a	n/a	n/a	n/a	n/a
3987.306	n/a	RECOG_RESP	1993653	n/a	LTP100	ltpFR	6	7	1	ENEMY	534	n/a	1	n/a	n/a	n/a	n/a	n/a
3988.066	n/a	RECOG_CONF	1994033	n/a	LTP100	ltpFR	6	7	1	ENEMY	534	5	1	n/a	n/a	n/a	n/a	n/a
3989.482	n/a	RECOG_LURE	1994741	n/a	LTP100	ltpFR	6	7	n/a	BOLT	146	3	n/a	n/a	n/a	n/a	n/a	n/a
3990.66	n/a	RECOG_RESP	1995330	n/a	LTP100	ltpFR	6	7	n/a	BOLT	146	n/a	n/a	n/a	n/a	n/a	n/a	n/a
3991.528	n/a	RECOG_CONF	1995764	n/a	LTP100	ltpFR	6	7	n/a	BOLT	146	3	n/a	n/a	n/a	n/a	n/a	n/a
