onset	duration	trial_type	sample	stim_file	subject	experiment	session	trial	task	item_name	item_num	recog_resp	recog_conf	resp	color_r	color_g	color_b	case	font
307.3	n/a	SESS_START	153650	n/a	LTP198	ltpFR	0	n/a	n/a	n/a	n/a	1	n/a	n/a	n/a	n/a	n/a	n/a	n/a
471.83	n/a	WORD	235915	wordpools/wasnorm_wordpool_less_exclusions.txt	LTP198	ltpFR	0	1	-1	SNORKEL	1336	n/a	n/a	-1	1.0	1.0	1	upper	Verdana.ttf
475.776	n/a	WORD	237888	wordpools/wasnorm_wordpool_less_exclusions.txt	LTP198	ltpFR	0	1	-1	ANCHOR	21	n/a	n/a	-1	1.0	1.0	1	upper	Verdana.ttf
479.752	n/a	WORD	239876	wordpools/wasnorm_wordpool_less_exclusions.txt	LTP198	ltpFR	0	1	-1	POSTAGE	1113	n/a	n/a	-1	1.0	1.0	1	upper	Verdana.ttf
483.912	n/a	WORD	241956	wordpools/wasnorm_wordpool_less_exclusions.txt	LTP198	ltpFR	0	1	-1	PARCEL	1012	n/a	n/a	-1	1.0	1.0	1	upper	Verdana.ttf
488.022	n/a	WORD	244011	wordpools/wasnorm_wordpool_less_exclusions.txt	LTP198	ltpFR	0	1	-1	SALMON	1227	n/a	n/a	-1	1.0	1.0	1	upper	Verdana.ttf
491.918	n/a	WORD	245959	wordpools/wasnorm_wordpool_less_exclusions.txt	LTP198	ltpFR	0	1	-1	FEAST	556	n/a	n/a	-1	1.0	1.0	1	upper	Verdana.ttf
495.912	n/a	WORD	247956	wordpools/wasnorm_wordpool_less_exclusions.txt	LTP198	ltpFR	0	1	-1	SKATE	1313	n/a	n/a	-1	1.0	1.0	1	upper	Verdana.ttf
499.872	n/a	WORD	249936	wordpools/wasnorm_wordpool_less_exclusions.txt	LTP198	ltpFR	0	1	-1	CAFETERIA	217	n/a	n/a	-1	1.0	1.0	1	upper	Verdana.ttf
503.932	n/a	WORD	251966	wordpools/wasnorm_wordpool_less_exclusions.txt	LTP198	ltpFR	0	1	-1	WIRE	1616	n/a	n/a	-1	1.0	1.0	1	upper	Verdana.ttf
507.976	n/a	WORD	253988	wordpools/wasnorm_wordpool_less_exclusions.txt	LTP198	ltpFR	0	1	-1	PUMP	1141	n/a	n/a	-1	1.0	1.0	1	upper	Verdana.ttf
512.104	n/a	WORD	256052	wordpools/wasnorm_wordpool_less_exclusions.txt	LTP198	ltpFR	0	1	-1	MAMMAL	861	n/a	n/a	-1	1.0	1.0	1	upper	Verdana.ttf
515.982	n/a	WORD	257991	wordpools/wasnorm_wordpool_less_exclusions.txt	LTP198	ltpFR	0	1	-1	BEAST	108	n/a	n/a	-1	1.0	1.0	1	upper	Verdana.ttf
519.908	n/a	WORD	259954	wordpools/wasnorm_wordpool_less_exclusions.txt	LTP198	ltpFR	0	1	-1	REFRIGERATOR	1179	n/a	n/a	-1	1.0	1.0	1	upper	Verdana.ttf
523.82	n/a	WORD	261910	wordpools/wasnorm_wordpool_less_exclusions.txt	LTP198	ltpFR	0	1	-1	HANDKERCHIEF	686	n/a	n/a	-1	1.0	1.0	1	upper	Verdana.ttf
527.88	n/a	WORD	263940	wordpools/wasnorm_wordpool_less_exclusions.txt	LTP198	ltpFR	0	1	-1	OTTER	986	n/a	n/a	-1	1.0	1.0	1	upper	Verdana.ttf
532.074	n/a	WORD	266037	wordpools/wasnorm_wordpool_less_exclusions.txt	LTP198	ltpFR	0	1	-1	TUBE	1516	n/a	n/a	-1	1.0	1.0	1	upper	Verdana.ttf
537.982	n/a	REC_START	268991	n/a	LTP198	ltpFR	0	1	n/a	n/a	n/a	n/a	n/a	n/a	n/a	n/a	n/a	n/a	n/a
539.414	n/a	REC_WORD	269707	wordpools/wasnorm_wordpool_less_exclusions.txt	LTP198	ltpFR	0	1	-1	SNORKEL	1336	n/a	n/a	-1	n/a	n/a	n/a	n/a	n/a
540.596	n/a	REC_WORD	270298	wordpools/wasnorm_wordpool_less_exclusions.txt	LTP198	ltpFR	0	1	-1	ANCHOR	21	n/a	n/a	-1	n/a	n/a	n/a	n/a	n/a
541.754	n/a	REC_WORD	270877	wordpools/wasnorm_wordpool_less_exclusions.txt	LTP198	ltpFR	0	1	-1	WIRE	1616	n/a	n/a	-1	n/a	n/a	n/a	n/a	n/a
542.936	n/a	REC_WORD	271468	wordpools/wasnorm_wordpool_less_exclusions.txt	LTP198	ltpFR	0	1	-1	SKATE	1313	n/a	n/a	-1	n/a	n/a	n/a	n/a	n/a
544.004	n/a	REC_WORD	272002	wordpools/wasnorm_wordpool_less_exclusions.txt	LTP198	ltpFR	0	1	-1	CAFETERIA	217	n/a	n/a	-1	n/a	n/a	n/a	n/a	n/a
545.422	n/a	REC_WORD	272711	wordpools/wasnorm_wordpool_less_exclusions.txt	LTP198	ltpFR	0	1	-1	REFRIGERATOR	1179	n/a	n/a	-1	n/a	n/a	n/a	n/a	n/a
548.076	n/a	REC_WORD	274038	wordpools/wasnorm_wordpool_less_exclusions.txt	LTP198	ltpFR	0	1	-1	BEAST	108	n/a	n/a	-1	n/a	n/a	n/a	n/a	n/a
549.082	n/a	REC_WORD	274541	wordpools/wasnorm_wordpool_less_exclusions.txt	LTP198	ltpFR	0	1	-1	SALMON	1227	n/a	n/a	-1	n/a	n/a	n/a	n/a	n/a
551.382	n/a	REC_WORD	275691	wordpools/wasnorm_wordpool_less_exclusions.txt	LTP198	ltpFR	0	1	-1	POSTAGE	1113	n/a	n/a	-1	n/a	n/a	n/a	n/a	n/a
553.154	n/a	REC_WORD	276577	wordpools/wasnorm_wordpool_less_exclusions.txt	LTP198	ltpFR	0	1	-1	PARCEL	1012	n/a	n/a	-1	n/a	n/a	n/a	n/a	n/a
560.576	n/a	REC_WORD	280288	wordpools/wasnorm_wordpool_less_exclusions.txt	LTP198	ltpFR	0	1	-1	HANDKERCHIEF	686	n/a	n/a	-1	n/a	n/a	n/a	n/a	n/a
566.762	n/a	REC_WORD	283381	wordpools/wasnorm_wordpool_less_exclusions.txt	LTP198	ltpFR	0	1	-1	TUBE	1516	n/a	n/a	-1	n/a	n/a	n/a	n/a	n/a
578.806	n/a	REC_WORD	289403	wordpools/wasnorm_wordpool_less_exclusions.txt	LTP198	ltpFR	0	1	-1	PUMP	1141	n/a	n/a	-1	n/a	n/a	n/a	n/a	n/a
648.404	n/a	WORD	324202	wordpools/wasnorm_wordpool_less_exclusions.txt	LTP198	ltpFR	0	2	-1	CONSOLE	364	n/a	n/a	-1	1.0	1.0	1	upper	Verdana.ttf
652.246	n/a	WORD	326123	wordpools/wasnorm_wordpool_less_exclusions.txt	LTP198	ltpFR	0	2	-1	VAN	1548	n/a	n/a	-1	1.0	1.0	1	upper	Verdana.ttf
656.24	n/a	WORD	328120	wordpools/wasnorm_wordpool_less_exclusions.txt	LTP198	ltpFR	0	2	-1	SWITCH	1422	n/a	n/a	-1	1.0	1.0	1	upper	Verdana.ttf
660.318	n/a	WORD	330159	wordpools/wasnorm_wordpool_less_exclusions.txt	LTP198	ltpFR	0	2	-1	COMPUTER	359	n/a	n/a	-1	1.0	1.0	1	upper	Verdana.ttf
664.262	n/a	WORD	332131	wordpools/wasnorm_wordpool_less_exclusions.txt	LTP198	ltpFR	0	2	-1	BLUEPRINT	142	n/a	n/a	-1	1.0	1.0	1	upper	Verdana.ttf
668.39	n/a	WORD	334195	wordpools/wasnorm_wordpool_less_exclusions.txt	LTP198	ltpFR	0	2	-1	CROW	414	n/a	n/a	-1	1.0	1.0	1	upper	Verdana.ttf
672.334	n/a	WORD	336167	wordpools/wasnorm_wordpool_less_exclusions.txt	LTP198	ltpFR	0	2	-1	COIN	343	n/a	n/a	-1	1.0	1.0	1	upper	Verdana.ttf
676.194	n/a	WORD	338097	wordpools/wasnorm_wordpool_less_exclusions.txt	LTP198	ltpFR	0	2	-1	BANKER	84	n/a	n/a	-1	1.0	1.0	1	upper	Verdana.ttf
680.322	n/a	WORD	340161	wordpools/wasnorm_wordpool_less_exclusions.txt	LTP198	ltpFR	0	2	-1	ENCYCLOPEDIA	533	n/a	n/a	-1	1.0	1.0	1	upper	Verdana.ttf
684.466	n/a	WORD	342233	wordpools/wasnorm_wordpool_less_exclusions.txt	LTP198	ltpFR	0	2	-1	ALBUM	14	n/a	n/a	-1	1.0	1.0	1	upper	Verdana.ttf
688.362	n/a	WORD	344181	wordpools/wasnorm_wordpool_less_exclusions.txt	LTP198	ltpFR	0	2	-1	LENS	811	n/a	n/a	-1	1.0	1.0	1	upper	Verdana.ttf
692.422	n/a	WORD	346211	wordpools/wasnorm_wordpool_less_exclusions.txt	LTP198	ltpFR	0	2	-1	PARROT	1015	n/a	n/a	-1	1.0	1.0	1	upper	Verdana.ttf
696.482	n/a	WORD	348241	wordpools/wasnorm_wordpool_less_exclusions.txt	LTP198	ltpFR	0	2	-1	COBRA	336	n/a	n/a	-1	1.0	1.0	1	upper	Verdana.ttf
700.394	n/a	WORD	350197	wordpools/wasnorm_wordpool_less_exclusions.txt	LTP198	ltpFR	0	2	-1	APARTMENT	30	n/a	n/a	-1	1.0	1.0	1	upper	Verdana.ttf
704.604	n/a	WORD	352302	wordpools/wasnorm_wordpool_less_exclusions.txt	LTP198	ltpFR	0	2	-1	MONASTERY	907	n/a	n/a	-1	1.0	1.0	1	upper	Verdana.ttf
708.798	n/a	WORD	354399	wordpools/wasnorm_wordpool_less_exclusions.txt	LTP198	ltpFR	0	2	-1	PRODUCER	1129	n/a	n/a	-1	1.0	1.0	1	upper	Verdana.ttf
714.788	n/a	REC_START	357394	n/a	LTP198	ltpFR	0	2	n/a	n/a	n/a	n/a	n/a	n/a	n/a	n/a	n/a	n/a	n/a
715.78	n/a	REC_WORD	357890	wordpools/wasnorm_wordpool_less_exclusions.txt	LTP198	ltpFR	0	2	-1	VAN	1548	n/a	n/a	-1	n/a	n/a	n/a	n/a	n/a
716.67	n/a	REC_WORD	358335	wordpools/wasnorm_wordpool_less_exclusions.txt	LTP198	ltpFR	0	2	-1	CROW	414	n/a	n/a	-1	n/a	n/a	n/a	n/a	n/a
717.502	n/a	REC_WORD	358751	wordpools/wasnorm_wordpool_less_exclusions.txt	LTP198	ltpFR	0	2	n/a	SNAKE	1333	n/a	n/a	n/a	n/a	n/a	n/a	n/a	n/a
718.614	n/a	REC_WORD	359307	wordpools/wasnorm_wordpool_less_exclusions.txt	LTP198	ltpFR	0	2	-1	PARROT	1015	n/a	n/a	-1	n/a	n/a	n/a	n/a	n/a
719.678	n/a	REC_WORD	359839	wordpools/wasnorm_wordpool_less_exclusions.txt	LTP198	ltpFR	0	2	-1	MONASTERY	907	n/a	n/a	-1	n/a	n/a	n/a	n/a	n/a
720.63	n/a	REC_WORD	360315	wordpools/wasnorm_wordpool_less_exclusions.txt	LTP198	ltpFR	0	2	-1	ENCYCLOPEDIA	533	n/a	n/a	-1	n/a	n/a	n/a	n/a	n/a
722.416	n/a	REC_WORD	361208	wordpools/wasnorm_wordpool_less_exclusions.txt	LTP198	ltpFR	0	2	-1	BANKER	84	n/a	n/a	-1	n/a	n/a	n/a	n/a	n/a
723.604	n/a	REC_WORD	361802	wordpools/wasnorm_wordpool_less_exclusions.txt	LTP198	ltpFR	0	2	-1	CONSOLE	364	n/a	n/a	-1	n/a	n/a	n/a	n/a	n/a
724.6	n/a	REC_WORD	362300	wordpools/wasnorm_wordpool_less_exclusions.txt	LTP198	ltpFR	0	2	-1	COMPUTER	359	n/a	n/a	-1	n/a	n/a	n/a	n/a	n/a
727.21	n/a	REC_WORD	363605	wordpools/wasnorm_wordpool_less_exclusions.txt	LTP198	ltpFR	0	2	-1	CROW	414	n/a	n/a	-1	n/a	n/a	n/a	n/a	n/a
730.038	n/a	REC_WORD	365019	wordpools/wasnorm_wordpool_less_exclusions.txt	LTP198	ltpFR	0	2	-1	ALBUM	14	n/a	n/a	-1	n/a	n/a	n/a	n/a	n/a
733.326	n/a	REC_WORD	366663	wordpools/wasnorm_wordpool_less_exclusions.txt	LTP198	ltpFR	0	2	-1	SWITCH	1422	n/a	n/a	-1	n/a	n/a	n/a	n/a	n/a
734.468	n/a	REC_WORD	367234	wordpools/wasnorm_wordpool_less_exclusions.txt	LTP198	ltpFR	0	2	-1	LENS	811	n/a	n/a	-1	n/a	n/a	n/a	n/a	n/a
759.792	n/a	REC_WORD	379896	wordpools/wasnorm_wordpool_less_exclusions.txt	LTP198	ltpFR	0	2	-1	PRODUCER	1129	n/a	n/a	-1	n/a	n/a	n/a	n/a	n/a
765.564	n/a	REC_WORD	382782	wordpools/wasnorm_wordpool_less_exclusions.txt	LTP198	ltpFR	0	2	-1	APARTMENT	30	n/a	n/a	-1	n/a	n/a	n/a	n/a	n/a
804.622	n/a	WORD	402311	wordpools/wasnorm_wordpool_less_exclusions.txt	LTP198	ltpFR	0	3	-1	TIDE	1465	n/a	n/a	-1	1.0	1.0	1	upper	Verdana.ttf
808.65	n/a	WORD	404325	wordpools/wasnorm_wordpool_less_exclusions.txt	LTP198	ltpFR	0	3	-1	CABBAGE	210	n/a	n/a	-1	1.0	1.0	1	upper	Verdana.ttf
812.81	n/a	WORD	406405	wordpools/wasnorm_wordpool_less_exclusions.txt	LTP198	ltpFR	0	3	-1	FARMER	553	n/a	n/a	-1	1.0	1.0	1	upper	Verdana.ttf
816.952	n/a	WORD	408476	wordpools/wasnorm_wordpool_less_exclusions.txt	LTP198	ltpFR	0	3	-1	PRAIRIE	1118	n/a	n/a	-1	1.0	1.0	1	upper	Verdana.ttf
821.03	n/a	WORD	410515	wordpools/wasnorm_wordpool_less_exclusions.txt	LTP198	ltpFR	0	3	-1	COTTAGE	384	n/a	n/a	-1	1.0	1.0	1	upper	Verdana.ttf
825.206	n/a	WORD	412603	wordpools/wasnorm_wordpool_less_exclusions.txt	LTP198	ltpFR	0	3	-1	CHEF	290	n/a	n/a	-1	1.0	1.0	1	upper	Verdana.ttf
829.15	n/a	WORD	414575	wordpools/wasnorm_wordpool_less_exclusions.txt	LTP198	ltpFR	0	3	-1	BOOK	149	n/a	n/a	-1	1.0	1.0	1	upper	Verdana.ttf
833.246	n/a	WORD	416623	wordpools/wasnorm_wordpool_less_exclusions.txt	LTP198	ltpFR	0	3	-1	KNOT	788	n/a	n/a	-1	1.0	1.0	1	upper	Verdana.ttf
837.106	n/a	WORD	418553	wordpools/wasnorm_wordpool_less_exclusions.txt	LTP198	ltpFR	0	3	-1	TWINE	1529	n/a	n/a	-1	1.0	1.0	1	upper	Verdana.ttf
841.034	n/a	WORD	420517	wordpools/wasnorm_wordpool_less_exclusions.txt	LTP198	ltpFR	0	3	-1	REPTILE	1185	n/a	n/a	-1	1.0	1.0	1	upper	Verdana.ttf
845.228	n/a	WORD	422614	wordpools/wasnorm_wordpool_less_exclusions.txt	LTP198	ltpFR	0	3	-1	BANK	83	n/a	n/a	-1	1.0	1.0	1	upper	Verdana.ttf
849.188	n/a	WORD	424594	wordpools/wasnorm_wordpool_less_exclusions.txt	LTP198	ltpFR	0	3	-1	UNIVERSE	1540	n/a	n/a	-1	1.0	1.0	1	upper	Verdana.ttf
853.182	n/a	WORD	426591	wordpools/wasnorm_wordpool_less_exclusions.txt	LTP198	ltpFR	0	3	-1	PAIL	1002	n/a	n/a	-1	1.0	1.0	1	upper	Verdana.ttf
857.044	n/a	WORD	428522	wordpools/wasnorm_wordpool_less_exclusions.txt	LTP198	ltpFR	0	3	-1	SIGNATURE	1306	n/a	n/a	-1	1.0	1.0	1	upper	Verdana.ttf
861.038	n/a	WORD	430519	wordpools/wasnorm_wordpool_less_exclusions.txt	LTP198	ltpFR	0	3	-1	CONTRACT	368	n/a	n/a	-1	1.0	1.0	1	upper	Verdana.ttf
864.948	n/a	WORD	432474	wordpools/wasnorm_wordpool_less_exclusions.txt	LTP198	ltpFR	0	3	-1	THESAURUS	1454	n/a	n/a	-1	1.0	1.0	1	upper	Verdana.ttf
870.84	n/a	REC_START	435420	n/a	LTP198	ltpFR	0	3	n/a	n/a	n/a	n/a	n/a	n/a	n/a	n/a	n/a	n/a	n/a
871.604	n/a	REC_WORD	435802	wordpools/wasnorm_wordpool_less_exclusions.txt	LTP198	ltpFR	0	3	-1	THESAURUS	1454	n/a	n/a	-1	n/a	n/a	n/a	n/a	n/a
872.526	n/a	REC_WORD	436263	wordpools/wasnorm_wordpool_less_exclusions.txt	LTP198	ltpFR	0	3	-1	SIGNATURE	1306	n/a	n/a	-1	n/a	n/a	n/a	n/a	n/a
873.54	n/a	REC_WORD	436770	wordpools/wasnorm_wordpool_less_exclusions.txt	LTP198	ltpFR	0	3	-1	CONTRACT	368	n/a	n/a	-1	n/a	n/a	n/a	n/a	n/a
874.786	n/a	REC_WORD	437393	wordpools/wasnorm_wordpool_less_exclusions.txt	LTP198	ltpFR	0	3	-1	FARMER	553	n/a	n/a	-1	n/a	n/a	n/a	n/a	n/a
875.934	n/a	REC_WORD	437967	wordpools/wasnorm_wordpool_less_exclusions.txt	LTP198	ltpFR	0	3	-1	BANK	83	n/a	n/a	-1	n/a	n/a	n/a	n/a	n/a
876.872	n/a	REC_WORD	438436	wordpools/wasnorm_wordpool_less_exclusions.txt	LTP198	ltpFR	0	3	-1	REPTILE	1185	n/a	n/a	-1	n/a	n/a	n/a	n/a	n/a
877.924	n/a	REC_WORD	438962	wordpools/wasnorm_wordpool_less_exclusions.txt	LTP198	ltpFR	0	3	-1	TIDE	1465	n/a	n/a	-1	n/a	n/a	n/a	n/a	n/a
878.902	n/a	REC_WORD	439451	wordpools/wasnorm_wordpool_less_exclusions.txt	LTP198	ltpFR	0	3	-1	CABBAGE	210	n/a	n/a	-1	n/a	n/a	n/a	n/a	n/a
879.834	n/a	REC_WORD	439917	wordpools/wasnorm_wordpool_less_exclusions.txt	LTP198	ltpFR	0	3	-1	CHEF	290	n/a	n/a	-1	n/a	n/a	n/a	n/a	n/a
881.052	n/a	REC_WORD	440526	wordpools/wasnorm_wordpool_less_exclusions.txt	LTP198	ltpFR	0	3	-1	BOOK	149	n/a	n/a	-1	n/a	n/a	n/a	n/a	n/a
882.584	n/a	REC_WORD	441292	wordpools/wasnorm_wordpool_less_exclusions.txt	LTP198	ltpFR	0	3	-1	PRAIRIE	1118	n/a	n/a	-1	n/a	n/a	n/a	n/a	n/a
884.126	n/a	REC_WORD	442063	wordpools/wasnorm_wordpool_less_exclusions.txt	LTP198	ltpFR	0	3	-1	COTTAGE	384	n/a	n/a	-1	n/a	n/a	n/a	n/a	n/a
889.996	n/a	REC_WORD	444998	wordpools/wasnorm_wordpool_less_exclusions.txt	LTP198	ltpFR	0	3	-1	TWINE	1529	n/a	n/a	-1	n/a	n/a	n/a	n/a	n/a
890.85	n/a	REC_WORD	445425	wordpools/wasnorm_wordpool_less_exclusions.txt	LTP198	ltpFR	0	3	-1	KNOT	788	n/a	n/a	-1	n/a	n/a	n/a	n/a	n/a
894.69	n/a	REC_WORD	447345	wordpools/wasnorm_wordpool_less_exclusions.txt	LTP198	ltpFR	0	3	-1	UNIVERSE	1540	n/a	n/a	-1	n/a	n/a	n/a	n/a	n/a
952.37	n/a	WORD	476185	wordpools/wasnorm_wordpool_less_exclusions.txt	LTP198	ltpFR	0	4	-1	CHEDDAR	286	n/a	n/a	-1	1.0	1.0	1	upper	Verdana.ttf
956.514	n/a	WORD	478257	wordpools/wasnorm_wordpool_less_exclusions.txt	LTP198	ltpFR	0	4	-1	MACARONI	851	n/a	n/a	-1	1.0	1.0	1	upper	Verdana.ttf
960.408	n/a	WORD	480204	wordpools/wasnorm_wordpool_less_exclusions.txt	LTP198	ltpFR	0	4	-1	SNEAKER	1334	n/a	n/a	-1	1.0	1.0	1	upper	Verdana.ttf
964.318	n/a	WORD	482159	wordpools/wasnorm_wordpool_less_exclusions.txt	LTP198	ltpFR	0	4	-1	STEAM	1375	n/a	n/a	-1	1.0	1.0	1	upper	Verdana.ttf
968.262	n/a	WORD	484131	wordpools/wasnorm_wordpool_less_exclusions.txt	LTP198	ltpFR	0	4	-1	HEATER	698	n/a	n/a	-1	1.0	1.0	1	upper	Verdana.ttf
972.272	n/a	WORD	486136	wordpools/wasnorm_wordpool_less_exclusions.txt	LTP198	ltpFR	0	4	-1	PASSAGE	1019	n/a	n/a	-1	1.0	1.0	1	upper	Verdana.ttf
976.418	n/a	WORD	488209	wordpools/wasnorm_wordpool_less_exclusions.txt	LTP198	ltpFR	0	4	-1	CACTUS	215	n/a	n/a	-1	1.0	1.0	1	upper	Verdana.ttf
980.596	n/a	WORD	490298	wordpools/wasnorm_wordpool_less_exclusions.txt	LTP198	ltpFR	0	4	-1	SKIRT	1319	n/a	n/a	-1	1.0	1.0	1	upper	Verdana.ttf
984.722	n/a	WORD	492361	wordpools/wasnorm_wordpool_less_exclusions.txt	LTP198	ltpFR	0	4	-1	ROAD	1196	n/a	n/a	-1	1.0	1.0	1	upper	Verdana.ttf
988.932	n/a	WORD	494466	wordpools/wasnorm_wordpool_less_exclusions.txt	LTP198	ltpFR	0	4	-1	BULL	193	n/a	n/a	-1	1.0	1.0	1	upper	Verdana.ttf
992.826	n/a	WORD	496413	wordpools/wasnorm_wordpool_less_exclusions.txt	LTP198	ltpFR	0	4	-1	BELLY	119	n/a	n/a	-1	1.0	1.0	1	upper	Verdana.ttf
996.886	n/a	WORD	498443	wordpools/wasnorm_wordpool_less_exclusions.txt	LTP198	ltpFR	0	4	-1	CAT	257	n/a	n/a	-1	1.0	1.0	1	upper	Verdana.ttf
1001.03	n/a	WORD	500515	wordpools/wasnorm_wordpool_less_exclusions.txt	LTP198	ltpFR	0	4	-1	PORCUPINE	1107	n/a	n/a	-1	1.0	1.0	1	upper	Verdana.ttf
1005.042	n/a	WORD	502521	wordpools/wasnorm_wordpool_less_exclusions.txt	LTP198	ltpFR	0	4	-1	ASSOCIATE	49	n/a	n/a	-1	1.0	1.0	1	upper	Verdana.ttf
1008.936	n/a	WORD	504468	wordpools/wasnorm_wordpool_less_exclusions.txt	LTP198	ltpFR	0	4	-1	MANAGER	863	n/a	n/a	-1	1.0	1.0	1	upper	Verdana.ttf
1012.764	n/a	WORD	506382	wordpools/wasnorm_wordpool_less_exclusions.txt	LTP198	ltpFR	0	4	-1	CATTLE	261	n/a	n/a	-1	1.0	1.0	1	upper	Verdana.ttf
1018.788	n/a	REC_START	509394	n/a	LTP198	ltpFR	0	4	n/a	n/a	n/a	n/a	n/a	n/a	n/a	n/a	n/a	n/a	n/a
1019.596	n/a	REC_WORD	509798	wordpools/wasnorm_wordpool_less_exclusions.txt	LTP198	ltpFR	0	4	-1	CATTLE	261	n/a	n/a	-1	n/a	n/a	n/a	n/a	n/a
1020.59	n/a	REC_WORD	510295	wordpools/wasnorm_wordpool_less_exclusions.txt	LTP198	ltpFR	0	4	-1	MANAGER	863	n/a	n/a	-1	n/a	n/a	n/a	n/a	n/a
1021.666	n/a	REC_WORD	510833	wordpools/wasnorm_wordpool_less_exclusions.txt	LTP198	ltpFR	0	4	-1	ROAD	1196	n/a	n/a	-1	n/a	n/a	n/a	n/a	n/a
1022.844	n/a	REC_WORD	511422	wordpools/wasnorm_wordpool_less_exclusions.txt	LTP198	ltpFR	0	4	-1	PASSAGE	1019	n/a	n/a	-1	n/a	n/a	n/a	n/a	n/a
1023.892	n/a	REC_WORD	511946	wordpools/wasnorm_wordpool_less_exclusions.txt	LTP198	ltpFR	0	4	-1	ASSOCIATE	49	n/a	n/a	-1	n/a	n/a	n/a	n/a	n/a
1025.294	n/a	REC_WORD	512647	wordpools/wasnorm_wordpool_less_exclusions.txt	LTP198	ltpFR	0	4	-1	CAT	257	n/a	n/a	-1	n/a	n/a	n/a	n/a	n/a
1026.43	n/a	REC_WORD	513215	wordpools/wasnorm_wordpool_less_exclusions.txt	LTP198	ltpFR	0	4	-1	BELLY	119	n/a	n/a	-1	n/a	n/a	n/a	n/a	n/a
1027.752	n/a	REC_WORD	513876	wordpools/wasnorm_wordpool_less_exclusions.txt	LTP198	ltpFR	0	4	-1	MACARONI	851	n/a	n/a	-1	n/a	n/a	n/a	n/a	n/a
1028.98	n/a	REC_WORD	514490	wordpools/wasnorm_wordpool_less_exclusions.txt	LTP198	ltpFR	0	4	-1	CHEDDAR	286	n/a	n/a	-1	n/a	n/a	n/a	n/a	n/a
1030.092	n/a	REC_WORD	515046	wordpools/wasnorm_wordpool_less_exclusions.txt	LTP198	ltpFR	0	4	-1	STEAM	1375	n/a	n/a	-1	n/a	n/a	n/a	n/a	n/a
1031.22	n/a	REC_WORD	515610	wordpools/wasnorm_wordpool_less_exclusions.txt	LTP198	ltpFR	0	4	-1	SNEAKER	1334	n/a	n/a	-1	n/a	n/a	n/a	n/a	n/a
1032.442	n/a	REC_WORD	516221	wordpools/wasnorm_wordpool_less_exclusions.txt	LTP198	ltpFR	0	4	-1	SKIRT	1319	n/a	n/a	-1	n/a	n/a	n/a	n/a	n/a
1044.056	n/a	REC_WORD	522028	wordpools/wasnorm_wordpool_less_exclusions.txt	LTP198	ltpFR	0	4	-1	HEATER	698	n/a	n/a	-1	n/a	n/a	n/a	n/a	n/a
1049.074	n/a	REC_WORD	524537	wordpools/wasnorm_wordpool_less_exclusions.txt	LTP198	ltpFR	0	4	-1	PORCUPINE	1107	n/a	n/a	-1	n/a	n/a	n/a	n/a	n/a
1050.332	n/a	REC_WORD	525166	wordpools/wasnorm_wordpool_less_exclusions.txt	LTP198	ltpFR	0	4	-1	CACTUS	215	n/a	n/a	-1	n/a	n/a	n/a	n/a	n/a
1345.222	n/a	WORD	672611	wordpools/wasnorm_wordpool_less_exclusions.txt	LTP198	ltpFR	0	5	0	IGLOO	734	n/a	n/a	n/a	0.422607421875	0.5869140625	0	upper	zerothre.ttf
1348.25	n/a	SLOW_MSG	674125	n/a	LTP198	ltpFR	0	5	n/a	n/a	n/a	n/a	n/a	n/a	n/a	n/a	n/a	n/a	n/a
1350.732	n/a	WORD	675366	wordpools/wasnorm_wordpool_less_exclusions.txt	LTP198	ltpFR	0	5	0	CONDUCTOR	362	n/a	n/a	1	0.422607421875	0.5869140625	0	upper	zerothre.ttf
1354.626	n/a	WORD	677313	wordpools/wasnorm_wordpool_less_exclusions.txt	LTP198	ltpFR	0	5	0	SUBWAY	1400	n/a	n/a	1	0.422607421875	0.5869140625	0	upper	zerothre.ttf
1358.834	n/a	WORD	679417	wordpools/wasnorm_wordpool_less_exclusions.txt	LTP198	ltpFR	0	5	0	HOUND	724	n/a	n/a	1	0.422607421875	0.5869140625	0	upper	zerothre.ttf
1362.78	n/a	WORD	681390	wordpools/wasnorm_wordpool_less_exclusions.txt	LTP198	ltpFR	0	5	0	SARDINE	1235	n/a	n/a	1	0.422607421875	0.5869140625	0	upper	zerothre.ttf
1366.69	n/a	WORD	683345	wordpools/wasnorm_wordpool_less_exclusions.txt	LTP198	ltpFR	0	5	0	BUTLER	204	n/a	n/a	1	0.422607421875	0.5869140625	0	upper	zerothre.ttf
1370.85	n/a	WORD	685425	wordpools/wasnorm_wordpool_less_exclusions.txt	LTP198	ltpFR	0	5	0	OCEAN	970	n/a	n/a	1	0.422607421875	0.5869140625	0	upper	zerothre.ttf
1374.978	n/a	WORD	687489	wordpools/wasnorm_wordpool_less_exclusions.txt	LTP198	ltpFR	0	5	0	DILL	465	n/a	n/a	0	0.422607421875	0.5869140625	0	upper	zerothre.ttf
1378.888	n/a	WORD	689444	wordpools/wasnorm_wordpool_less_exclusions.txt	LTP198	ltpFR	0	5	0	SPINACH	1352	n/a	n/a	0	0.422607421875	0.5869140625	0	upper	zerothre.ttf
1382.716	n/a	WORD	691358	wordpools/wasnorm_wordpool_less_exclusions.txt	LTP198	ltpFR	0	5	0	TAR	1435	n/a	n/a	1	0.422607421875	0.5869140625	0	upper	zerothre.ttf
1386.778	n/a	WORD	693389	wordpools/wasnorm_wordpool_less_exclusions.txt	LTP198	ltpFR	0	5	0	RAILROAD	1162	n/a	n/a	1	0.422607421875	0.5869140625	0	upper	zerothre.ttf
1390.92	n/a	WORD	695460	wordpools/wasnorm_wordpool_less_exclusions.txt	LTP198	ltpFR	0	5	0	FISH	571	n/a	n/a	0	0.422607421875	0.5869140625	0	upper	zerothre.ttf
1394.816	n/a	WORD	697408	wordpools/wasnorm_wordpool_less_exclusions.txt	LTP198	ltpFR	0	5	0	SKIN	1318	n/a	n/a	1	0.422607421875	0.5869140625	0	upper	zerothre.ttf
1398.776	n/a	WORD	699388	wordpools/wasnorm_wordpool_less_exclusions.txt	LTP198	ltpFR	0	5	0	COLLEGE	346	n/a	n/a	1	0.422607421875	0.5869140625	0	upper	zerothre.ttf
1402.654	n/a	WORD	701327	wordpools/wasnorm_wordpool_less_exclusions.txt	LTP198	ltpFR	0	5	0	FIN	566	n/a	n/a	0	0.422607421875	0.5869140625	0	upper	zerothre.ttf
1406.798	n/a	WORD	703399	wordpools/wasnorm_wordpool_less_exclusions.txt	LTP198	ltpFR	0	5	0	BRIDE	173	n/a	n/a	1	0.422607421875	0.5869140625	0	upper	zerothre.ttf
1412.89	n/a	REC_START	706445	n/a	LTP198	ltpFR	0	5	n/a	n/a	n/a	n/a	n/a	n/a	n/a	n/a	n/a	n/a	n/a
1413.612	n/a	REC_WORD	706806	wordpools/wasnorm_wordpool_less_exclusions.txt	LTP198	ltpFR	0	5	0	BRIDE	173	n/a	n/a	1	n/a	n/a	n/a	n/a	n/a
1414.526	n/a	REC_WORD	707263	wordpools/wasnorm_wordpool_less_exclusions.txt	LTP198	ltpFR	0	5	0	BUTLER	204	n/a	n/a	1	n/a	n/a	n/a	n/a	n/a
1415.224	n/a	REC_WORD	707612	wordpools/wasnorm_wordpool_less_exclusions.txt	LTP198	ltpFR	0	5	0	FISH	571	n/a	n/a	0	n/a	n/a	n/a	n/a	n/a
1416.132	n/a	REC_WORD	708066	wordpools/wasnorm_wordpool_less_exclusions.txt	LTP198	ltpFR	0	5	0	FIN	566	n/a	n/a	0	n/a	n/a	n/a	n/a	n/a
1416.91	n/a	REC_WORD	708455	wordpools/wasnorm_wordpool_less_exclusions.txt	LTP198	ltpFR	0	5	0	SARDINE	1235	n/a	n/a	1	n/a	n/a	n/a	n/a	n/a
1418.316	n/a	REC_WORD	709158	wordpools/wasnorm_wordpool_less_exclusions.txt	LTP198	ltpFR	0	5	0	DILL	465	n/a	n/a	0	n/a	n/a	n/a	n/a	n/a
1419.204	n/a	REC_WORD	709602	wordpools/wasnorm_wordpool_less_exclusions.txt	LTP198	ltpFR	0	5	0	SPINACH	1352	n/a	n/a	0	n/a	n/a	n/a	n/a	n/a
1420.318	n/a	REC_WORD	710159	wordpools/wasnorm_wordpool_less_exclusions.txt	LTP198	ltpFR	0	5	0	CONDUCTOR	362	n/a	n/a	1	n/a	n/a	n/a	n/a	n/a
1421.394	n/a	REC_WORD	710697	wordpools/wasnorm_wordpool_less_exclusions.txt	LTP198	ltpFR	0	5	0	SUBWAY	1400	n/a	n/a	1	n/a	n/a	n/a	n/a	n/a
1422.608	n/a	REC_WORD	711304	wordpools/wasnorm_wordpool_less_exclusions.txt	LTP198	ltpFR	0	5	0	RAILROAD	1162	n/a	n/a	1	n/a	n/a	n/a	n/a	n/a
1426.06	n/a	REC_WORD	713030	wordpools/wasnorm_wordpool_less_exclusions.txt	LTP198	ltpFR	0	5	0	OCEAN	970	n/a	n/a	1	n/a	n/a	n/a	n/a	n/a
1431.812	n/a	REC_WORD	715906	wordpools/wasnorm_wordpool_less_exclusions.txt	LTP198	ltpFR	0	5	0	BRIDE	173	n/a	n/a	1	n/a	n/a	n/a	n/a	n/a
1438.126	n/a	REC_WORD	719063	wordpools/wasnorm_wordpool_less_exclusions.txt	LTP198	ltpFR	0	5	0	COLLEGE	346	n/a	n/a	1	n/a	n/a	n/a	n/a	n/a
1514.97	n/a	WORD	757485	wordpools/wasnorm_wordpool_less_exclusions.txt	LTP198	ltpFR	0	6	0	CHEMICAL	291	n/a	n/a	0	0.422607421875	0.5869140625	0	upper	zerothre.ttf
1519.064	n/a	WORD	759532	wordpools/wasnorm_wordpool_less_exclusions.txt	LTP198	ltpFR	0	6	0	ROCK	1201	n/a	n/a	0	0.422607421875	0.5869140625	0	upper	zerothre.ttf
1522.908	n/a	WORD	761454	wordpools/wasnorm_wordpool_less_exclusions.txt	LTP198	ltpFR	0	6	0	CHECK	284	n/a	n/a	0	0.422607421875	0.5869140625	0	upper	zerothre.ttf
1526.82	n/a	WORD	763410	wordpools/wasnorm_wordpool_less_exclusions.txt	LTP198	ltpFR	0	6	0	WALLET	1583	n/a	n/a	0	0.422607421875	0.5869140625	0	upper	zerothre.ttf
1530.914	n/a	WORD	765457	wordpools/wasnorm_wordpool_less_exclusions.txt	LTP198	ltpFR	0	6	0	FURNITURE	616	n/a	n/a	1	0.422607421875	0.5869140625	0	upper	zerothre.ttf
1534.99	n/a	WORD	767495	wordpools/wasnorm_wordpool_less_exclusions.txt	LTP198	ltpFR	0	6	0	SHACK	1273	n/a	n/a	1	0.422607421875	0.5869140625	0	upper	zerothre.ttf
1538.968	n/a	WORD	769484	wordpools/wasnorm_wordpool_less_exclusions.txt	LTP198	ltpFR	0	6	0	SPY	1360	n/a	n/a	1	0.422607421875	0.5869140625	0	upper	zerothre.ttf
1543.094	n/a	WORD	771547	wordpools/wasnorm_wordpool_less_exclusions.txt	LTP198	ltpFR	0	6	0	ATTORNEY	58	n/a	n/a	1	0.422607421875	0.5869140625	0	upper	zerothre.ttf
1547.056	n/a	WORD	773528	wordpools/wasnorm_wordpool_less_exclusions.txt	LTP198	ltpFR	0	6	0	VIOLIN	1571	n/a	n/a	1	0.422607421875	0.5869140625	0	upper	zerothre.ttf
1551.082	n/a	WORD	775541	wordpools/wasnorm_wordpool_less_exclusions.txt	LTP198	ltpFR	0	6	0	CLASS	318	n/a	n/a	1	0.422607421875	0.5869140625	0	upper	zerothre.ttf
1554.978	n/a	WORD	777489	wordpools/wasnorm_wordpool_less_exclusions.txt	LTP198	ltpFR	0	6	0	NITROGEN	954	n/a	n/a	0	0.422607421875	0.5869140625	0	upper	zerothre.ttf
1559.106	n/a	WORD	779553	wordpools/wasnorm_wordpool_less_exclusions.txt	LTP198	ltpFR	0	6	0	BROTHER	179	n/a	n/a	1	0.422607421875	0.5869140625	0	upper	zerothre.ttf
1563.1	n/a	WORD	781550	wordpools/wasnorm_wordpool_less_exclusions.txt	LTP198	ltpFR	0	6	0	SHOVEL	1295	n/a	n/a	1	0.422607421875	0.5869140625	0	upper	zerothre.ttf
1567.094	n/a	WORD	783547	wordpools/wasnorm_wordpool_less_exclusions.txt	LTP198	ltpFR	0	6	0	PASTA	1021	n/a	n/a	0	0.422607421875	0.5869140625	0	upper	zerothre.ttf
1571.238	n/a	WORD	785619	wordpools/wasnorm_wordpool_less_exclusions.txt	LTP198	ltpFR	0	6	0	CHEESE	289	n/a	n/a	0	0.422607421875	0.5869140625	0	upper	zerothre.ttf
1575.164	n/a	WORD	787582	wordpools/wasnorm_wordpool_less_exclusions.txt	LTP198	ltpFR	0	6	0	SIBLING	1301	n/a	n/a	1	0.422607421875	0.5869140625	0	upper	zerothre.ttf
1580.99	n/a	REC_START	790495	n/a	LTP198	ltpFR	0	6	n/a	n/a	n/a	n/a	n/a	n/a	n/a	n/a	n/a	n/a	n/a
1581.682	n/a	REC_WORD	790841	wordpools/wasnorm_wordpool_less_exclusions.txt	LTP198	ltpFR	0	6	0	SIBLING	1301	n/a	n/a	1	n/a	n/a	n/a	n/a	n/a
1582.65	n/a	REC_WORD	791325	wordpools/wasnorm_wordpool_less_exclusions.txt	LTP198	ltpFR	0	6	0	BROTHER	179	n/a	n/a	1	n/a	n/a	n/a	n/a	n/a
1583.384	n/a	REC_WORD	791692	wordpools/wasnorm_wordpool_less_exclusions.txt	LTP198	ltpFR	0	6	0	SPY	1360	n/a	n/a	1	n/a	n/a	n/a	n/a	n/a
1584.386	n/a	REC_WORD	792193	wordpools/wasnorm_wordpool_less_exclusions.txt	LTP198	ltpFR	0	6	0	ATTORNEY	58	n/a	n/a	1	n/a	n/a	n/a	n/a	n/a
1585.354	n/a	REC_WORD	792677	wordpools/wasnorm_wordpool_less_exclusions.txt	LTP198	ltpFR	0	6	0	SHACK	1273	n/a	n/a	1	n/a	n/a	n/a	n/a	n/a
1586.298	n/a	REC_WORD	793149	wordpools/wasnorm_wordpool_less_exclusions.txt	LTP198	ltpFR	0	6	0	FURNITURE	616	n/a	n/a	1	n/a	n/a	n/a	n/a	n/a
1587.434	n/a	REC_WORD	793717	wordpools/wasnorm_wordpool_less_exclusions.txt	LTP198	ltpFR	0	6	0	WALLET	1583	n/a	n/a	0	n/a	n/a	n/a	n/a	n/a
1588.388	n/a	REC_WORD	794194	wordpools/wasnorm_wordpool_less_exclusions.txt	LTP198	ltpFR	0	6	0	CHECK	284	n/a	n/a	0	n/a	n/a	n/a	n/a	n/a
1592.158	n/a	REC_WORD	796079	wordpools/wasnorm_wordpool_less_exclusions.txt	LTP198	ltpFR	0	6	0	CHEESE	289	n/a	n/a	0	n/a	n/a	n/a	n/a	n/a
1593.406	n/a	REC_WORD	796703	wordpools/wasnorm_wordpool_less_exclusions.txt	LTP198	ltpFR	0	6	0	PASTA	1021	n/a	n/a	0	n/a	n/a	n/a	n/a	n/a
1601.578	n/a	REC_WORD	800789	wordpools/wasnorm_wordpool_less_exclusions.txt	LTP198	ltpFR	0	6	0	NITROGEN	954	n/a	n/a	0	n/a	n/a	n/a	n/a	n/a
1602.646	n/a	REC_WORD	801323	wordpools/wasnorm_wordpool_less_exclusions.txt	LTP198	ltpFR	0	6	0	CHEMICAL	291	n/a	n/a	0	n/a	n/a	n/a	n/a	n/a
1608.502	n/a	REC_WORD	804251	wordpools/wasnorm_wordpool_less_exclusions.txt	LTP198	ltpFR	0	6	0	ROCK	1201	n/a	n/a	0	n/a	n/a	n/a	n/a	n/a
1610.518	n/a	REC_WORD	805259	wordpools/wasnorm_wordpool_less_exclusions.txt	LTP198	ltpFR	0	6	0	VIOLIN	1571	n/a	n/a	1	n/a	n/a	n/a	n/a	n/a
1665.548	n/a	WORD	832774	wordpools/wasnorm_wordpool_less_exclusions.txt	LTP198	ltpFR	0	7	0	RELISH	1183	n/a	n/a	0	0.422607421875	0.5869140625	0	upper	zerothre.ttf
1669.476	n/a	WORD	834738	wordpools/wasnorm_wordpool_less_exclusions.txt	LTP198	ltpFR	0	7	0	HOE	711	n/a	n/a	1	0.422607421875	0.5869140625	0	upper	zerothre.ttf
1673.47	n/a	WORD	836735	wordpools/wasnorm_wordpool_less_exclusions.txt	LTP198	ltpFR	0	7	0	PIT	1077	n/a	n/a	1	0.422607421875	0.5869140625	0	upper	zerothre.ttf
1677.614	n/a	WORD	838807	wordpools/wasnorm_wordpool_less_exclusions.txt	LTP198	ltpFR	0	7	0	PERCH	1048	n/a	n/a	1	0.422607421875	0.5869140625	0	upper	zerothre.ttf
1681.474	n/a	WORD	840737	wordpools/wasnorm_wordpool_less_exclusions.txt	LTP198	ltpFR	0	7	0	RAG	1160	n/a	n/a	0	0.422607421875	0.5869140625	0	upper	zerothre.ttf
1685.386	n/a	WORD	842693	wordpools/wasnorm_wordpool_less_exclusions.txt	LTP198	ltpFR	0	7	0	PIANO	1057	n/a	n/a	1	0.422607421875	0.5869140625	0	upper	zerothre.ttf
1689.446	n/a	WORD	844723	wordpools/wasnorm_wordpool_less_exclusions.txt	LTP198	ltpFR	0	7	0	QUAIL	1147	n/a	n/a	1	0.422607421875	0.5869140625	0	upper	zerothre.ttf
1693.574	n/a	WORD	846787	wordpools/wasnorm_wordpool_less_exclusions.txt	LTP198	ltpFR	0	7	0	SPATULA	1348	n/a	n/a	1	0.422607421875	0.5869140625	0	upper	zerothre.ttf
1697.634	n/a	WORD	848817	wordpools/wasnorm_wordpool_less_exclusions.txt	LTP198	ltpFR	0	7	0	ICING	732	n/a	n/a	0	0.422607421875	0.5869140625	0	upper	zerothre.ttf
1701.662	n/a	WORD	850831	wordpools/wasnorm_wordpool_less_exclusions.txt	LTP198	ltpFR	0	7	0	DESIGNER	451	n/a	n/a	1	0.422607421875	0.5869140625	0	upper	zerothre.ttf
1705.79	n/a	WORD	852895	wordpools/wasnorm_wordpool_less_exclusions.txt	LTP198	ltpFR	0	7	0	WELL	1600	n/a	n/a	1	0.422607421875	0.5869140625	0	upper	zerothre.ttf
1709.666	n/a	WORD	854833	wordpools/wasnorm_wordpool_less_exclusions.txt	LTP198	ltpFR	0	7	0	TOMATO	1476	n/a	n/a	0	0.422607421875	0.5869140625	0	upper	zerothre.ttf
1713.678	n/a	WORD	856839	wordpools/wasnorm_wordpool_less_exclusions.txt	LTP198	ltpFR	0	7	0	SILK	1307	n/a	n/a	1	0.422607421875	0.5869140625	0	upper	zerothre.ttf
1717.606	n/a	WORD	858803	wordpools/wasnorm_wordpool_less_exclusions.txt	LTP198	ltpFR	0	7	0	SPICE	1350	n/a	n/a	0	0.422607421875	0.5869140625	0	upper	zerothre.ttf
1721.716	n/a	WORD	860858	wordpools/wasnorm_wordpool_less_exclusions.txt	LTP198	ltpFR	0	7	0	CLOVE	329	n/a	n/a	0	0.422607421875	0.5869140625	0	upper	zerothre.ttf
1725.644	n/a	WORD	862822	wordpools/wasnorm_wordpool_less_exclusions.txt	LTP198	ltpFR	0	7	0	SERVANT	1271	n/a	n/a	1	0.422607421875	0.5869140625	0	upper	zerothre.ttf
1731.552	n/a	REC_START	865776	n/a	LTP198	ltpFR	0	7	n/a	n/a	n/a	n/a	n/a	n/a	n/a	n/a	n/a	n/a	n/a
1731.984	n/a	REC_WORD	865992	wordpools/wasnorm_wordpool_less_exclusions.txt	LTP198	ltpFR	0	7	0	SERVANT	1271	n/a	n/a	1	n/a	n/a	n/a	n/a	n/a
1733.142	n/a	REC_WORD	866571	wordpools/wasnorm_wordpool_less_exclusions.txt	LTP198	ltpFR	0	7	0	DESIGNER	451	n/a	n/a	1	n/a	n/a	n/a	n/a	n/a
1734.136	n/a	REC_WORD	867068	wordpools/wasnorm_wordpool_less_exclusions.txt	LTP198	ltpFR	0	7	0	SPATULA	1348	n/a	n/a	1	n/a	n/a	n/a	n/a	n/a
1735.288	n/a	REC_WORD	867644	wordpools/wasnorm_wordpool_less_exclusions.txt	LTP198	ltpFR	0	7	0	ICING	732	n/a	n/a	0	n/a	n/a	n/a	n/a	n/a
1736.38	n/a	REC_WORD	868190	wordpools/wasnorm_wordpool_less_exclusions.txt	LTP198	ltpFR	0	7	0	RELISH	1183	n/a	n/a	0	n/a	n/a	n/a	n/a	n/a
1737.458	n/a	REC_WORD	868729	wordpools/wasnorm_wordpool_less_exclusions.txt	LTP198	ltpFR	0	7	0	HOE	711	n/a	n/a	1	n/a	n/a	n/a	n/a	n/a
1740.436	n/a	REC_WORD	870218	wordpools/wasnorm_wordpool_less_exclusions.txt	LTP198	ltpFR	0	7	0	SILK	1307	n/a	n/a	1	n/a	n/a	n/a	n/a	n/a
1748.768	n/a	REC_WORD	874384	wordpools/wasnorm_wordpool_less_exclusions.txt	LTP198	ltpFR	0	7	0	CLOVE	329	n/a	n/a	0	n/a	n/a	n/a	n/a	n/a
1799.214	n/a	REC_WORD	899607	wordpools/wasnorm_wordpool_less_exclusions.txt	LTP198	ltpFR	0	7	0	SPICE	1350	n/a	n/a	0	n/a	n/a	n/a	n/a	n/a
1815.192	n/a	WORD	907596	wordpools/wasnorm_wordpool_less_exclusions.txt	LTP198	ltpFR	0	8	0	CART	250	n/a	n/a	1	0.422607421875	0.5869140625	0	upper	zerothre.ttf
1819.32	n/a	WORD	909660	wordpools/wasnorm_wordpool_less_exclusions.txt	LTP198	ltpFR	0	8	0	VALVE	1546	n/a	n/a	0	0.422607421875	0.5869140625	0	upper	zerothre.ttf
1823.348	n/a	WORD	911674	wordpools/wasnorm_wordpool_less_exclusions.txt	LTP198	ltpFR	0	8	0	TAVERN	1437	n/a	n/a	1	0.422607421875	0.5869140625	0	upper	zerothre.ttf
1827.376	n/a	WORD	913688	wordpools/wasnorm_wordpool_less_exclusions.txt	LTP198	ltpFR	0	8	0	BOTTLE	153	n/a	n/a	0	0.422607421875	0.5869140625	0	upper	zerothre.ttf
1831.286	n/a	WORD	915643	wordpools/wasnorm_wordpool_less_exclusions.txt	LTP198	ltpFR	0	8	0	COOKBOOK	373	n/a	n/a	1	0.422607421875	0.5869140625	0	upper	zerothre.ttf
1835.446	n/a	WORD	917723	wordpools/wasnorm_wordpool_less_exclusions.txt	LTP198	ltpFR	0	8	0	PUDDLE	1140	n/a	n/a	1	0.422607421875	0.5869140625	0	upper	zerothre.ttf
1839.374	n/a	WORD	919687	wordpools/wasnorm_wordpool_less_exclusions.txt	LTP198	ltpFR	0	8	0	SPIT	1354	n/a	n/a	0	0.422607421875	0.5869140625	0	upper	zerothre.ttf
1843.368	n/a	WORD	921684	wordpools/wasnorm_wordpool_less_exclusions.txt	LTP198	ltpFR	0	8	0	BAND	78	n/a	n/a	1	0.422607421875	0.5869140625	0	upper	zerothre.ttf
1847.296	n/a	WORD	923648	wordpools/wasnorm_wordpool_less_exclusions.txt	LTP198	ltpFR	0	8	0	CANDLE	229	n/a	n/a	0	0.422607421875	0.5869140625	0	upper	zerothre.ttf
1851.49	n/a	WORD	925745	wordpools/wasnorm_wordpool_less_exclusions.txt	LTP198	ltpFR	0	8	0	PONY	1102	n/a	n/a	1	0.422607421875	0.5869140625	0	upper	zerothre.ttf
1855.484	n/a	WORD	927742	wordpools/wasnorm_wordpool_less_exclusions.txt	LTP198	ltpFR	0	8	0	DANDRUFF	439	n/a	n/a	0	0.422607421875	0.5869140625	0	upper	zerothre.ttf
1859.512	n/a	WORD	929756	wordpools/wasnorm_wordpool_less_exclusions.txt	LTP198	ltpFR	0	8	0	CHAUFFEUR	283	n/a	n/a	1	0.422607421875	0.5869140625	0	upper	zerothre.ttf
1863.372	n/a	WORD	931686	wordpools/wasnorm_wordpool_less_exclusions.txt	LTP198	ltpFR	0	8	0	CHICKEN	297	n/a	n/a	0	0.422607421875	0.5869140625	0	upper	zerothre.ttf
1867.316	n/a	WORD	933658	wordpools/wasnorm_wordpool_less_exclusions.txt	LTP198	ltpFR	0	8	0	BREAST	171	n/a	n/a	1	0.422607421875	0.5869140625	0	upper	zerothre.ttf
1871.444	n/a	WORD	935722	wordpools/wasnorm_wordpool_less_exclusions.txt	LTP198	ltpFR	0	8	0	TRIBE	1505	n/a	n/a	1	0.422607421875	0.5869140625	0	upper	zerothre.ttf
1875.32	n/a	WORD	937660	wordpools/wasnorm_wordpool_less_exclusions.txt	LTP198	ltpFR	0	8	0	DESSERT	453	n/a	n/a	0	0.422607421875	0.5869140625	0	upper	zerothre.ttf
1881.096	n/a	REC_START	940548	n/a	LTP198	ltpFR	0	8	n/a	n/a	n/a	n/a	n/a	n/a	n/a	n/a	n/a	n/a	n/a
1882.348	n/a	REC_WORD	941174	wordpools/wasnorm_wordpool_less_exclusions.txt	LTP198	ltpFR	0	8	0	CHICKEN	297	n/a	n/a	0	n/a	n/a	n/a	n/a	n/a
1883.146	n/a	REC_WORD	941573	wordpools/wasnorm_wordpool_less_exclusions.txt	LTP198	ltpFR	0	8	0	BREAST	171	n/a	n/a	1	n/a	n/a	n/a	n/a	n/a
1883.968	n/a	REC_WORD	941984	wordpools/wasnorm_wordpool_less_exclusions.txt	LTP198	ltpFR	0	8	0	TRIBE	1505	n/a	n/a	1	n/a	n/a	n/a	n/a	n/a
1884.872	n/a	REC_WORD	942436	wordpools/wasnorm_wordpool_less_exclusions.txt	LTP198	ltpFR	0	8	0	DESSERT	453	n/a	n/a	0	n/a	n/a	n/a	n/a	n/a
1886.658	n/a	REC_WORD	943329	wordpools/wasnorm_wordpool_less_exclusions.txt	LTP198	ltpFR	0	8	0	CART	250	n/a	n/a	1	n/a	n/a	n/a	n/a	n/a
1887.49	n/a	REC_WORD	943745	wordpools/wasnorm_wordpool_less_exclusions.txt	LTP198	ltpFR	0	8	0	PONY	1102	n/a	n/a	1	n/a	n/a	n/a	n/a	n/a
1888.324	n/a	REC_WORD	944162	wordpools/wasnorm_wordpool_less_exclusions.txt	LTP198	ltpFR	0	8	0	CHAUFFEUR	283	n/a	n/a	1	n/a	n/a	n/a	n/a	n/a
1911.546	n/a	REC_WORD	955773	wordpools/wasnorm_wordpool_less_exclusions.txt	LTP198	ltpFR	0	8	0	BAND	78	n/a	n/a	1	n/a	n/a	n/a	n/a	n/a
1966.62	n/a	WORD	983310	wordpools/wasnorm_wordpool_less_exclusions.txt	LTP198	ltpFR	0	9	1	BUTTERFLY	206	n/a	n/a	1	0.57763671875	0.412841796875	1	lower	amplitud.ttf
1970.464	n/a	WORD	985232	wordpools/wasnorm_wordpool_less_exclusions.txt	LTP198	ltpFR	0	9	1	WILDERNESS	1610	n/a	n/a	1	0.57763671875	0.412841796875	1	lower	amplitud.ttf
1974.59	n/a	WORD	987295	wordpools/wasnorm_wordpool_less_exclusions.txt	LTP198	ltpFR	0	9	1	SWIMMER	1420	n/a	n/a	1	0.57763671875	0.412841796875	1	lower	amplitud.ttf
1978.734	n/a	WORD	989367	wordpools/wasnorm_wordpool_less_exclusions.txt	LTP198	ltpFR	0	9	1	KITE	779	n/a	n/a	0	0.57763671875	0.412841796875	1	lower	amplitud.ttf
1982.612	n/a	WORD	991306	wordpools/wasnorm_wordpool_less_exclusions.txt	LTP198	ltpFR	0	9	1	ENGINE	535	n/a	n/a	1	0.57763671875	0.412841796875	1	lower	amplitud.ttf
1986.806	n/a	WORD	993403	wordpools/wasnorm_wordpool_less_exclusions.txt	LTP198	ltpFR	0	9	1	PALM	1007	n/a	n/a	1	0.57763671875	0.412841796875	1	lower	amplitud.ttf
1990.684	n/a	WORD	995342	wordpools/wasnorm_wordpool_less_exclusions.txt	LTP198	ltpFR	0	9	1	TERMINAL	1450	n/a	n/a	0	0.57763671875	0.412841796875	1	lower	amplitud.ttf
1994.86	n/a	WORD	997430	wordpools/wasnorm_wordpool_less_exclusions.txt	LTP198	ltpFR	0	9	1	SAILOR	1223	n/a	n/a	1	0.57763671875	0.412841796875	1	lower	amplitud.ttf
1998.69	n/a	WORD	999345	wordpools/wasnorm_wordpool_less_exclusions.txt	LTP198	ltpFR	0	9	1	SHIP	1286	n/a	n/a	0	0.57763671875	0.412841796875	1	lower	amplitud.ttf
2002.55	n/a	WORD	1001275	wordpools/wasnorm_wordpool_less_exclusions.txt	LTP198	ltpFR	0	9	1	COLESLAW	344	n/a	n/a	0	0.57763671875	0.412841796875	1	lower	amplitud.ttf
2006.71	n/a	WORD	1003355	wordpools/wasnorm_wordpool_less_exclusions.txt	LTP198	ltpFR	0	9	1	BANQUET	86	n/a	n/a	0	0.57763671875	0.412841796875	1	lower	amplitud.ttf
2010.904	n/a	WORD	1005452	wordpools/wasnorm_wordpool_less_exclusions.txt	LTP198	ltpFR	0	9	1	CREEK	404	n/a	n/a	1	0.57763671875	0.412841796875	1	lower	amplitud.ttf
2015.098	n/a	WORD	1007549	wordpools/wasnorm_wordpool_less_exclusions.txt	LTP198	ltpFR	0	9	1	BOUQUET	157	n/a	n/a	1	0.57763671875	0.412841796875	1	lower	amplitud.ttf
2018.924	n/a	WORD	1009462	wordpools/wasnorm_wordpool_less_exclusions.txt	LTP198	ltpFR	0	9	1	TURKEY	1520	n/a	n/a	1	0.57763671875	0.412841796875	1	lower	amplitud.ttf
2022.82	n/a	WORD	1011410	wordpools/wasnorm_wordpool_less_exclusions.txt	LTP198	ltpFR	0	9	1	PASTRY	1022	n/a	n/a	0	0.57763671875	0.412841796875	1	lower	amplitud.ttf
2026.78	n/a	WORD	1013390	wordpools/wasnorm_wordpool_less_exclusions.txt	LTP198	ltpFR	0	9	1	STRING	1394	n/a	n/a	0	0.57763671875	0.412841796875	1	lower	amplitud.ttf
2032.722	n/a	REC_START	1016361	n/a	LTP198	ltpFR	0	9	n/a	n/a	n/a	n/a	n/a	n/a	n/a	n/a	n/a	n/a	n/a
2033.126	n/a	REC_WORD	1016563	wordpools/wasnorm_wordpool_less_exclusions.txt	LTP198	ltpFR	0	9	1	STRING	1394	n/a	n/a	0	n/a	n/a	n/a	n/a	n/a
2034.258	n/a	REC_WORD	1017129	wordpools/wasnorm_wordpool_less_exclusions.txt	LTP198	ltpFR	0	9	1	TURKEY	1520	n/a	n/a	1	n/a	n/a	n/a	n/a	n/a
2035.116	n/a	REC_WORD	1017558	wordpools/wasnorm_wordpool_less_exclusions.txt	LTP198	ltpFR	0	9	1	PASTRY	1022	n/a	n/a	0	n/a	n/a	n/a	n/a	n/a
2036.214	n/a	REC_WORD	1018107	wordpools/wasnorm_wordpool_less_exclusions.txt	LTP198	ltpFR	0	9	1	SWIMMER	1420	n/a	n/a	1	n/a	n/a	n/a	n/a	n/a
2037.266	n/a	REC_WORD	1018633	wordpools/wasnorm_wordpool_less_exclusions.txt	LTP198	ltpFR	0	9	1	SAILOR	1223	n/a	n/a	1	n/a	n/a	n/a	n/a	n/a
2040.758	n/a	REC_WORD	1020379	wordpools/wasnorm_wordpool_less_exclusions.txt	LTP198	ltpFR	0	9	1	WILDERNESS	1610	n/a	n/a	1	n/a	n/a	n/a	n/a	n/a
2052.946	n/a	REC_WORD	1026473	wordpools/wasnorm_wordpool_less_exclusions.txt	LTP198	ltpFR	0	9	1	BUTTERFLY	206	n/a	n/a	1	n/a	n/a	n/a	n/a	n/a
2067.324	n/a	REC_WORD	1033662	wordpools/wasnorm_wordpool_less_exclusions.txt	LTP198	ltpFR	0	9	1	TERMINAL	1450	n/a	n/a	0	n/a	n/a	n/a	n/a	n/a
2114.234	n/a	WORD	1057117	wordpools/wasnorm_wordpool_less_exclusions.txt	LTP198	ltpFR	0	10	1	CHAMBER	277	n/a	n/a	1	0.57763671875	0.412841796875	1	lower	amplitud.ttf
2118.378	n/a	WORD	1059189	wordpools/wasnorm_wordpool_less_exclusions.txt	LTP198	ltpFR	0	10	1	SAP	1233	n/a	n/a	1	0.57763671875	0.412841796875	1	lower	amplitud.ttf
2122.238	n/a	WORD	1061119	wordpools/wasnorm_wordpool_less_exclusions.txt	LTP198	ltpFR	0	10	1	OLIVE	975	n/a	n/a	0	0.57763671875	0.412841796875	1	lower	amplitud.ttf
2126.132	n/a	WORD	1063066	wordpools/wasnorm_wordpool_less_exclusions.txt	LTP198	ltpFR	0	10	1	VET	1560	n/a	n/a	1	0.57763671875	0.412841796875	1	lower	amplitud.ttf
2130.192	n/a	WORD	1065096	wordpools/wasnorm_wordpool_less_exclusions.txt	LTP198	ltpFR	0	10	1	FLEA	577	n/a	n/a	1	0.57763671875	0.412841796875	1	lower	amplitud.ttf
2134.32	n/a	WORD	1067160	wordpools/wasnorm_wordpool_less_exclusions.txt	LTP198	ltpFR	0	10	1	JUNGLE	764	n/a	n/a	1	0.57763671875	0.412841796875	1	lower	amplitud.ttf
2138.516	n/a	WORD	1069258	wordpools/wasnorm_wordpool_less_exclusions.txt	LTP198	ltpFR	0	10	1	CHIMPANZEE	302	n/a	n/a	1	0.57763671875	0.412841796875	1	lower	amplitud.ttf
2142.394	n/a	WORD	1071197	wordpools/wasnorm_wordpool_less_exclusions.txt	LTP198	ltpFR	0	10	1	CAVE	263	n/a	n/a	0	0.57763671875	0.412841796875	1	lower	amplitud.ttf
2146.42	n/a	WORD	1073210	wordpools/wasnorm_wordpool_less_exclusions.txt	LTP198	ltpFR	0	10	1	ALLIGATOR	16	n/a	n/a	1	0.57763671875	0.412841796875	1	lower	amplitud.ttf
2150.448	n/a	WORD	1075224	wordpools/wasnorm_wordpool_less_exclusions.txt	LTP198	ltpFR	0	10	1	METEOR	889	n/a	n/a	0	0.57763671875	0.412841796875	1	lower	amplitud.ttf
2154.324	n/a	WORD	1077162	wordpools/wasnorm_wordpool_less_exclusions.txt	LTP198	ltpFR	0	10	1	GORILLA	650	n/a	n/a	1	0.57763671875	0.412841796875	1	lower	amplitud.ttf
2158.436	n/a	WORD	1079218	wordpools/wasnorm_wordpool_less_exclusions.txt	LTP198	ltpFR	0	10	1	MONGOOSE	909	n/a	n/a	1	0.57763671875	0.412841796875	1	lower	amplitud.ttf
2162.596	n/a	WORD	1081298	wordpools/wasnorm_wordpool_less_exclusions.txt	LTP198	ltpFR	0	10	1	ASTEROID	50	n/a	n/a	0	0.57763671875	0.412841796875	1	lower	amplitud.ttf
2166.708	n/a	WORD	1083354	wordpools/wasnorm_wordpool_less_exclusions.txt	LTP198	ltpFR	0	10	1	HORNET	718	n/a	n/a	1	0.57763671875	0.412841796875	1	lower	amplitud.ttf
2170.734	n/a	WORD	1085367	wordpools/wasnorm_wordpool_less_exclusions.txt	LTP198	ltpFR	0	10	1	THORN	1459	n/a	n/a	0	0.57763671875	0.412841796875	1	lower	amplitud.ttf
2174.578	n/a	WORD	1087289	wordpools/wasnorm_wordpool_less_exclusions.txt	LTP198	ltpFR	0	10	1	TROPHY	1509	n/a	n/a	1	0.57763671875	0.412841796875	1	lower	amplitud.ttf
2180.32	n/a	REC_START	1090160	n/a	LTP198	ltpFR	0	10	n/a	n/a	n/a	n/a	n/a	n/a	n/a	n/a	n/a	n/a	n/a
2180.908	n/a	REC_WORD	1090454	wordpools/wasnorm_wordpool_less_exclusions.txt	LTP198	ltpFR	0	10	1	TROPHY	1509	n/a	n/a	1	n/a	n/a	n/a	n/a	n/a
2181.726	n/a	REC_WORD	1090863	wordpools/wasnorm_wordpool_less_exclusions.txt	LTP198	ltpFR	0	10	1	VET	1560	n/a	n/a	1	n/a	n/a	n/a	n/a	n/a
2182.524	n/a	REC_WORD	1091262	wordpools/wasnorm_wordpool_less_exclusions.txt	LTP198	ltpFR	0	10	1	FLEA	577	n/a	n/a	1	n/a	n/a	n/a	n/a	n/a
2183.652	n/a	REC_WORD	1091826	wordpools/wasnorm_wordpool_less_exclusions.txt	LTP198	ltpFR	0	10	1	ALLIGATOR	16	n/a	n/a	1	n/a	n/a	n/a	n/a	n/a
2184.684	n/a	REC_WORD	1092342	wordpools/wasnorm_wordpool_less_exclusions.txt	LTP198	ltpFR	0	10	1	CHIMPANZEE	302	n/a	n/a	1	n/a	n/a	n/a	n/a	n/a
2186.032	n/a	REC_WORD	1093016	wordpools/wasnorm_wordpool_less_exclusions.txt	LTP198	ltpFR	0	10	1	GORILLA	650	n/a	n/a	1	n/a	n/a	n/a	n/a	n/a
2187.178	n/a	REC_WORD	1093589	wordpools/wasnorm_wordpool_less_exclusions.txt	LTP198	ltpFR	0	10	1	THORN	1459	n/a	n/a	0	n/a	n/a	n/a	n/a	n/a
2189.712	n/a	REC_WORD	1094856	wordpools/wasnorm_wordpool_less_exclusions.txt	LTP198	ltpFR	0	10	1	CAVE	263	n/a	n/a	0	n/a	n/a	n/a	n/a	n/a
2190.64	n/a	REC_WORD	1095320	wordpools/wasnorm_wordpool_less_exclusions.txt	LTP198	ltpFR	0	10	1	JUNGLE	764	n/a	n/a	1	n/a	n/a	n/a	n/a	n/a
2191.494	n/a	REC_WORD	1095747	wordpools/wasnorm_wordpool_less_exclusions.txt	LTP198	ltpFR	0	10	1	METEOR	889	n/a	n/a	0	n/a	n/a	n/a	n/a	n/a
2192.486	n/a	REC_WORD	1096243	wordpools/wasnorm_wordpool_less_exclusions.txt	LTP198	ltpFR	0	10	1	ASTEROID	50	n/a	n/a	0	n/a	n/a	n/a	n/a	n/a
2195.03	n/a	REC_WORD	1097515	wordpools/wasnorm_wordpool_less_exclusions.txt	LTP198	ltpFR	0	10	1	SAP	1233	n/a	n/a	1	n/a	n/a	n/a	n/a	n/a
2232.412	n/a	REC_WORD	1116206	wordpools/wasnorm_wordpool_less_exclusions.txt	LTP198	ltpFR	0	10	1	HORNET	718	n/a	n/a	1	n/a	n/a	n/a	n/a	n/a
2233.32	n/a	REC_WORD	1116660	wordpools/wasnorm_wordpool_less_exclusions.txt	LTP198	ltpFR	0	10	1	MONGOOSE	909	n/a	n/a	1	n/a	n/a	n/a	n/a	n/a
2245.512	n/a	REC_WORD	1122756	wordpools/wasnorm_wordpool_less_exclusions.txt	LTP198	ltpFR	0	10	1	CHAMBER	277	n/a	n/a	1	n/a	n/a	n/a	n/a	n/a
2283.702	n/a	WORD	1141851	wordpools/wasnorm_wordpool_less_exclusions.txt	LTP198	ltpFR	0	11	1	BAY	102	n/a	n/a	0	0.57763671875	0.412841796875	1	lower	amplitud.ttf
2287.762	n/a	WORD	1143881	wordpools/wasnorm_wordpool_less_exclusions.txt	LTP198	ltpFR	0	11	1	FATHER	554	n/a	n/a	1	0.57763671875	0.412841796875	1	lower	amplitud.ttf
2291.756	n/a	WORD	1145878	wordpools/wasnorm_wordpool_less_exclusions.txt	LTP198	ltpFR	0	11	1	COUGAR	387	n/a	n/a	1	0.57763671875	0.412841796875	1	lower	amplitud.ttf
2295.616	n/a	WORD	1147808	wordpools/wasnorm_wordpool_less_exclusions.txt	LTP198	ltpFR	0	11	1	DOG	480	n/a	n/a	1	0.57763671875	0.412841796875	1	lower	amplitud.ttf
2299.578	n/a	WORD	1149789	wordpools/wasnorm_wordpool_less_exclusions.txt	LTP198	ltpFR	0	11	1	TORNADO	1485	n/a	n/a	0	0.57763671875	0.412841796875	1	lower	amplitud.ttf
2303.406	n/a	WORD	1151703	wordpools/wasnorm_wordpool_less_exclusions.txt	LTP198	ltpFR	0	11	1	TWISTER	1530	n/a	n/a	0	0.57763671875	0.412841796875	1	lower	amplitud.ttf
2307.282	n/a	WORD	1153641	wordpools/wasnorm_wordpool_less_exclusions.txt	LTP198	ltpFR	0	11	1	CLAW	319	n/a	n/a	0	0.57763671875	0.412841796875	1	lower	amplitud.ttf
2311.326	n/a	WORD	1155663	wordpools/wasnorm_wordpool_less_exclusions.txt	LTP198	ltpFR	0	11	1	TENT	1449	n/a	n/a	0	0.57763671875	0.412841796875	1	lower	amplitud.ttf
2315.52	n/a	WORD	1157760	wordpools/wasnorm_wordpool_less_exclusions.txt	LTP198	ltpFR	0	11	1	CABLE	213	n/a	n/a	0	0.57763671875	0.412841796875	1	lower	amplitud.ttf
2319.382	n/a	WORD	1159691	wordpools/wasnorm_wordpool_less_exclusions.txt	LTP198	ltpFR	0	11	1	BEAR	106	n/a	n/a	1	0.57763671875	0.412841796875	1	lower	amplitud.ttf
2323.34	n/a	WORD	1161670	wordpools/wasnorm_wordpool_less_exclusions.txt	LTP198	ltpFR	0	11	1	GLACIER	638	n/a	n/a	0	0.57763671875	0.412841796875	1	lower	amplitud.ttf
2327.168	n/a	WORD	1163584	wordpools/wasnorm_wordpool_less_exclusions.txt	LTP198	ltpFR	0	11	1	TRAITOR	1495	n/a	n/a	1	0.57763671875	0.412841796875	1	lower	amplitud.ttf
2331.28	n/a	WORD	1165640	wordpools/wasnorm_wordpool_less_exclusions.txt	LTP198	ltpFR	0	11	1	SHINGLE	1285	n/a	n/a	0	0.57763671875	0.412841796875	1	lower	amplitud.ttf
2335.156	n/a	WORD	1167578	wordpools/wasnorm_wordpool_less_exclusions.txt	LTP198	ltpFR	0	11	1	FREEZER	604	n/a	n/a	0	0.57763671875	0.412841796875	1	lower	amplitud.ttf
2339.35	n/a	WORD	1169675	wordpools/wasnorm_wordpool_less_exclusions.txt	LTP198	ltpFR	0	11	1	CARPENTER	246	n/a	n/a	1	0.57763671875	0.412841796875	1	lower	amplitud.ttf
2343.562	n/a	WORD	1171781	wordpools/wasnorm_wordpool_less_exclusions.txt	LTP198	ltpFR	0	11	1	SHELTER	1282	n/a	n/a	0	0.57763671875	0.412841796875	1	lower	amplitud.ttf
2349.636	n/a	REC_START	1174818	n/a	LTP198	ltpFR	0	11	n/a	n/a	n/a	n/a	n/a	n/a	n/a	n/a	n/a	n/a	n/a
2350.166	n/a	REC_WORD	1175083	wordpools/wasnorm_wordpool_less_exclusions.txt	LTP198	ltpFR	0	11	1	SHELTER	1282	n/a	n/a	0	n/a	n/a	n/a	n/a	n/a
2351.068	n/a	REC_WORD	1175534	wordpools/wasnorm_wordpool_less_exclusions.txt	LTP198	ltpFR	0	11	1	SHINGLE	1285	n/a	n/a	0	n/a	n/a	n/a	n/a	n/a
2352.066	n/a	REC_WORD	1176033	wordpools/wasnorm_wordpool_less_exclusions.txt	LTP198	ltpFR	0	11	1	CARPENTER	246	n/a	n/a	1	n/a	n/a	n/a	n/a	n/a
2353.014	n/a	REC_WORD	1176507	wordpools/wasnorm_wordpool_less_exclusions.txt	LTP198	ltpFR	0	11	1	FREEZER	604	n/a	n/a	0	n/a	n/a	n/a	n/a	n/a
2354.266	n/a	REC_WORD	1177133	wordpools/wasnorm_wordpool_less_exclusions.txt	LTP198	ltpFR	0	11	1	DOG	480	n/a	n/a	1	n/a	n/a	n/a	n/a	n/a
2355.28	n/a	REC_WORD	1177640	wordpools/wasnorm_wordpool_less_exclusions.txt	LTP198	ltpFR	0	11	1	BEAR	106	n/a	n/a	1	n/a	n/a	n/a	n/a	n/a
2356.212	n/a	REC_WORD	1178106	wordpools/wasnorm_wordpool_less_exclusions.txt	LTP198	ltpFR	0	11	1	CLAW	319	n/a	n/a	0	n/a	n/a	n/a	n/a	n/a
2357.31	n/a	REC_WORD	1178655	wordpools/wasnorm_wordpool_less_exclusions.txt	LTP198	ltpFR	0	11	1	TENT	1449	n/a	n/a	0	n/a	n/a	n/a	n/a	n/a
2358.302	n/a	REC_WORD	1179151	wordpools/wasnorm_wordpool_less_exclusions.txt	LTP198	ltpFR	0	11	1	CABLE	213	n/a	n/a	0	n/a	n/a	n/a	n/a	n/a
2359.216	n/a	REC_WORD	1179608	wordpools/wasnorm_wordpool_less_exclusions.txt	LTP198	ltpFR	0	11	1	FATHER	554	n/a	n/a	1	n/a	n/a	n/a	n/a	n/a
2360.412	n/a	REC_WORD	1180206	wordpools/wasnorm_wordpool_less_exclusions.txt	LTP198	ltpFR	0	11	1	BAY	102	n/a	n/a	0	n/a	n/a	n/a	n/a	n/a
2361.526	n/a	REC_WORD	1180763	wordpools/wasnorm_wordpool_less_exclusions.txt	LTP198	ltpFR	0	11	1	COUGAR	387	n/a	n/a	1	n/a	n/a	n/a	n/a	n/a
2367.436	n/a	REC_WORD	1183718	wordpools/wasnorm_wordpool_less_exclusions.txt	LTP198	ltpFR	0	11	1	TRAITOR	1495	n/a	n/a	1	n/a	n/a	n/a	n/a	n/a
2438.954	n/a	WORD	1219477	wordpools/wasnorm_wordpool_less_exclusions.txt	LTP198	ltpFR	0	12	1	CAKE	219	n/a	n/a	0	0.57763671875	0.412841796875	1	lower	amplitud.ttf
2443.114	n/a	WORD	1221557	wordpools/wasnorm_wordpool_less_exclusions.txt	LTP198	ltpFR	0	12	1	FOUNTAIN	597	n/a	n/a	0	0.57763671875	0.412841796875	1	lower	amplitud.ttf
2446.942	n/a	WORD	1223471	wordpools/wasnorm_wordpool_less_exclusions.txt	LTP198	ltpFR	0	12	1	TRACTOR	1493	n/a	n/a	0	0.57763671875	0.412841796875	1	lower	amplitud.ttf
2450.852	n/a	WORD	1225426	wordpools/wasnorm_wordpool_less_exclusions.txt	LTP198	ltpFR	0	12	1	CELLO	268	n/a	n/a	0	0.57763671875	0.412841796875	1	lower	amplitud.ttf
2454.782	n/a	WORD	1227391	wordpools/wasnorm_wordpool_less_exclusions.txt	LTP198	ltpFR	0	12	1	NOTE	958	n/a	n/a	0	0.57763671875	0.412841796875	1	lower	amplitud.ttf
2459.008	n/a	WORD	1229504	wordpools/wasnorm_wordpool_less_exclusions.txt	LTP198	ltpFR	0	12	1	FRAME	600	n/a	n/a	0	0.57763671875	0.412841796875	1	lower	amplitud.ttf
2462.918	n/a	WORD	1231459	wordpools/wasnorm_wordpool_less_exclusions.txt	LTP198	ltpFR	0	12	1	MUSEUM	933	n/a	n/a	0	0.57763671875	0.412841796875	1	lower	amplitud.ttf
2466.83	n/a	WORD	1233415	wordpools/wasnorm_wordpool_less_exclusions.txt	LTP198	ltpFR	0	12	1	HUMAN	726	n/a	n/a	1	0.57763671875	0.412841796875	1	lower	amplitud.ttf
2470.956	n/a	WORD	1235478	wordpools/wasnorm_wordpool_less_exclusions.txt	LTP198	ltpFR	0	12	1	OX	994	n/a	n/a	1	0.57763671875	0.412841796875	1	lower	amplitud.ttf
2475.116	n/a	WORD	1237558	wordpools/wasnorm_wordpool_less_exclusions.txt	LTP198	ltpFR	0	12	1	PERSON	1052	n/a	n/a	1	0.57763671875	0.412841796875	1	lower	amplitud.ttf
2479.11	n/a	WORD	1239555	wordpools/wasnorm_wordpool_less_exclusions.txt	LTP198	ltpFR	0	12	1	COMMITTEE	355	n/a	n/a	1	0.57763671875	0.412841796875	1	lower	amplitud.ttf
2483.004	n/a	WORD	1241502	wordpools/wasnorm_wordpool_less_exclusions.txt	LTP198	ltpFR	0	12	1	GARDEN	623	n/a	n/a	0	0.57763671875	0.412841796875	1	lower	amplitud.ttf
2487.198	n/a	WORD	1243599	wordpools/wasnorm_wordpool_less_exclusions.txt	LTP198	ltpFR	0	12	1	LEADER	807	n/a	n/a	1	0.57763671875	0.412841796875	1	lower	amplitud.ttf
2491.192	n/a	WORD	1245596	wordpools/wasnorm_wordpool_less_exclusions.txt	LTP198	ltpFR	0	12	1	COMMANDER	354	n/a	n/a	1	0.57763671875	0.412841796875	1	lower	amplitud.ttf
2495.154	n/a	WORD	1247577	wordpools/wasnorm_wordpool_less_exclusions.txt	LTP198	ltpFR	0	12	1	FUDGE	611	n/a	n/a	0	0.57763671875	0.412841796875	1	lower	amplitud.ttf
2499.282	n/a	WORD	1249641	wordpools/wasnorm_wordpool_less_exclusions.txt	LTP198	ltpFR	0	12	1	SOCIETY	1338	n/a	n/a	1	0.57763671875	0.412841796875	1	lower	amplitud.ttf
2505.256	n/a	REC_START	1252628	n/a	LTP198	ltpFR	0	12	n/a	n/a	n/a	n/a	n/a	n/a	n/a	n/a	n/a	n/a	n/a
2506.06	n/a	REC_WORD	1253030	wordpools/wasnorm_wordpool_less_exclusions.txt	LTP198	ltpFR	0	12	1	HUMAN	726	n/a	n/a	1	n/a	n/a	n/a	n/a	n/a
2506.932	n/a	REC_WORD	1253466	wordpools/wasnorm_wordpool_less_exclusions.txt	LTP198	ltpFR	0	12	1	PERSON	1052	n/a	n/a	1	n/a	n/a	n/a	n/a	n/a
2507.696	n/a	REC_WORD	1253848	wordpools/wasnorm_wordpool_less_exclusions.txt	LTP198	ltpFR	0	12	1	COMMITTEE	355	n/a	n/a	1	n/a	n/a	n/a	n/a	n/a
2508.688	n/a	REC_WORD	1254344	wordpools/wasnorm_wordpool_less_exclusions.txt	LTP198	ltpFR	0	12	1	LEADER	807	n/a	n/a	1	n/a	n/a	n/a	n/a	n/a
2509.746	n/a	REC_WORD	1254873	wordpools/wasnorm_wordpool_less_exclusions.txt	LTP198	ltpFR	0	12	1	SOCIETY	1338	n/a	n/a	1	n/a	n/a	n/a	n/a	n/a
2511.766	n/a	REC_WORD	1255883	wordpools/wasnorm_wordpool_less_exclusions.txt	LTP198	ltpFR	0	12	1	TRACTOR	1493	n/a	n/a	0	n/a	n/a	n/a	n/a	n/a
2512.69	n/a	REC_WORD	1256345	wordpools/wasnorm_wordpool_less_exclusions.txt	LTP198	ltpFR	0	12	1	FOUNTAIN	597	n/a	n/a	0	n/a	n/a	n/a	n/a	n/a
2513.572	n/a	REC_WORD	1256786	wordpools/wasnorm_wordpool_less_exclusions.txt	LTP198	ltpFR	0	12	1	FUDGE	611	n/a	n/a	0	n/a	n/a	n/a	n/a	n/a
2514.606	n/a	REC_WORD	1257303	wordpools/wasnorm_wordpool_less_exclusions.txt	LTP198	ltpFR	0	12	1	MUSEUM	933	n/a	n/a	0	n/a	n/a	n/a	n/a	n/a
2516.102	n/a	REC_WORD	1258051	wordpools/wasnorm_wordpool_less_exclusions.txt	LTP198	ltpFR	0	12	1	CAKE	219	n/a	n/a	0	n/a	n/a	n/a	n/a	n/a
2531.102	n/a	REC_WORD	1265551	wordpools/wasnorm_wordpool_less_exclusions.txt	LTP198	ltpFR	0	12	1	OX	994	n/a	n/a	1	n/a	n/a	n/a	n/a	n/a
2580.844	n/a	REST_REWET	1290422	n/a	LTP198	ltpFR	0	12	n/a	n/a	n/a	n/a	n/a	n/a	n/a	n/a	n/a	n/a	n/a
3002.202	n/a	WORD	1501101	wordpools/wasnorm_wordpool_less_exclusions.txt	LTP198	ltpFR	0	13	1	WINGS	1614	n/a	n/a	1	0.57763671875	0.412841796875	1	lower	amplitud.ttf
3006.366	n/a	WORD	1503183	wordpools/wasnorm_wordpool_less_exclusions.txt	LTP198	ltpFR	0	13	1	SEAGULL	1261	n/a	n/a	1	0.57763671875	0.412841796875	1	lower	amplitud.ttf
3010.292	n/a	WORD	1505146	wordpools/wasnorm_wordpool_less_exclusions.txt	LTP198	ltpFR	0	13	0	MICROSCOPE	891	n/a	n/a	0	0.422607421875	0.5869140625	0	upper	zerothre.ttf
3014.202	n/a	WORD	1507101	wordpools/wasnorm_wordpool_less_exclusions.txt	LTP198	ltpFR	0	13	0	KETTLE	772	n/a	n/a	0	0.422607421875	0.5869140625	0	upper	zerothre.ttf
3018.146	n/a	WORD	1509073	wordpools/wasnorm_wordpool_less_exclusions.txt	LTP198	ltpFR	0	13	0	BASKET	95	n/a	n/a	1	0.422607421875	0.5869140625	0	upper	zerothre.ttf
3022.008	n/a	WORD	1511004	wordpools/wasnorm_wordpool_less_exclusions.txt	LTP198	ltpFR	0	13	1	SPHINX	1349	n/a	n/a	1	0.57763671875	0.412841796875	1	lower	amplitud.ttf
3025.902	n/a	WORD	1512951	wordpools/wasnorm_wordpool_less_exclusions.txt	LTP198	ltpFR	0	13	1	FAUCET	555	n/a	n/a	0	0.57763671875	0.412841796875	1	lower	amplitud.ttf
3029.98	n/a	WORD	1514990	wordpools/wasnorm_wordpool_less_exclusions.txt	LTP198	ltpFR	0	13	1	BOWL	158	n/a	n/a	0	0.57763671875	0.412841796875	1	lower	amplitud.ttf
3034.156	n/a	WORD	1517078	wordpools/wasnorm_wordpool_less_exclusions.txt	LTP198	ltpFR	0	13	1	DINNER	468	n/a	n/a	0	0.57763671875	0.412841796875	1	lower	amplitud.ttf
3038.116	n/a	WORD	1519058	wordpools/wasnorm_wordpool_less_exclusions.txt	LTP198	ltpFR	0	13	0	SENATE	1267	n/a	n/a	1	0.422607421875	0.5869140625	0	upper	zerothre.ttf
3042.178	n/a	WORD	1521089	wordpools/wasnorm_wordpool_less_exclusions.txt	LTP198	ltpFR	0	13	0	COMMUNITY	356	n/a	n/a	1	0.422607421875	0.5869140625	0	upper	zerothre.ttf
3046.022	n/a	WORD	1523011	wordpools/wasnorm_wordpool_less_exclusions.txt	LTP198	ltpFR	0	13	0	FOX	598	n/a	n/a	1	0.422607421875	0.5869140625	0	upper	zerothre.ttf
3049.982	n/a	WORD	1524991	wordpools/wasnorm_wordpool_less_exclusions.txt	LTP198	ltpFR	0	13	0	BEAVER	109	n/a	n/a	1	0.422607421875	0.5869140625	0	upper	zerothre.ttf
3053.994	n/a	WORD	1526997	wordpools/wasnorm_wordpool_less_exclusions.txt	LTP198	ltpFR	0	13	0	KANGAROO	768	n/a	n/a	1	0.422607421875	0.5869140625	0	upper	zerothre.ttf
3057.92	n/a	WORD	1528960	wordpools/wasnorm_wordpool_less_exclusions.txt	LTP198	ltpFR	0	13	1	CONTAINER	366	n/a	n/a	0	0.57763671875	0.412841796875	1	lower	amplitud.ttf
3061.998	n/a	WORD	1530999	wordpools/wasnorm_wordpool_less_exclusions.txt	LTP198	ltpFR	0	13	1	PERISCOPE	1050	n/a	n/a	0	0.57763671875	0.412841796875	1	lower	amplitud.ttf
3067.658	n/a	REC_START	1533829	n/a	LTP198	ltpFR	0	13	n/a	n/a	n/a	n/a	n/a	n/a	n/a	n/a	n/a	n/a	n/a
3068.536	n/a	REC_WORD	1534268	wordpools/wasnorm_wordpool_less_exclusions.txt	LTP198	ltpFR	0	13	1	CONTAINER	366	n/a	n/a	0	n/a	n/a	n/a	n/a	n/a
3069.692	n/a	REC_WORD	1534846	wordpools/wasnorm_wordpool_less_exclusions.txt	LTP198	ltpFR	0	13	1	PERISCOPE	1050	n/a	n/a	0	n/a	n/a	n/a	n/a	n/a
3070.666	n/a	REC_WORD	1535333	wordpools/wasnorm_wordpool_less_exclusions.txt	LTP198	ltpFR	0	13	0	FOX	598	n/a	n/a	1	n/a	n/a	n/a	n/a	n/a
3071.982	n/a	REC_WORD	1535991	wordpools/wasnorm_wordpool_less_exclusions.txt	LTP198	ltpFR	0	13	0	BEAVER	109	n/a	n/a	1	n/a	n/a	n/a	n/a	n/a
3072.95	n/a	REC_WORD	1536475	wordpools/wasnorm_wordpool_less_exclusions.txt	LTP198	ltpFR	0	13	1	SEAGULL	1261	n/a	n/a	1	n/a	n/a	n/a	n/a	n/a
3074.278	n/a	REC_WORD	1537139	wordpools/wasnorm_wordpool_less_exclusions.txt	LTP198	ltpFR	0	13	1	WINGS	1614	n/a	n/a	1	n/a	n/a	n/a	n/a	n/a
3076.862	n/a	REC_WORD	1538431	wordpools/wasnorm_wordpool_less_exclusions.txt	LTP198	ltpFR	0	13	0	MICROSCOPE	891	n/a	n/a	0	n/a	n/a	n/a	n/a	n/a
3080.11	n/a	REC_WORD	1540055	wordpools/wasnorm_wordpool_less_exclusions.txt	LTP198	ltpFR	0	13	0	SENATE	1267	n/a	n/a	1	n/a	n/a	n/a	n/a	n/a
3081.162	n/a	REC_WORD	1540581	wordpools/wasnorm_wordpool_less_exclusions.txt	LTP198	ltpFR	0	13	0	COMMUNITY	356	n/a	n/a	1	n/a	n/a	n/a	n/a	n/a
3091.076	n/a	REC_WORD	1545538	wordpools/wasnorm_wordpool_less_exclusions.txt	LTP198	ltpFR	0	13	0	BASKET	95	n/a	n/a	1	n/a	n/a	n/a	n/a	n/a
3160.918	n/a	WORD	1580459	wordpools/wasnorm_wordpool_less_exclusions.txt	LTP198	ltpFR	0	14	1	TREE	1502	n/a	n/a	1	0.57763671875	0.412841796875	1	lower	amplitud.ttf
3164.748	n/a	WORD	1582374	wordpools/wasnorm_wordpool_less_exclusions.txt	LTP198	ltpFR	0	14	1	PAINT	1003	n/a	n/a	0	0.57763671875	0.412841796875	1	lower	amplitud.ttf
3168.742	n/a	WORD	1584371	wordpools/wasnorm_wordpool_less_exclusions.txt	LTP198	ltpFR	0	14	1	HAMPER	682	n/a	n/a	0	0.57763671875	0.412841796875	1	lower	amplitud.ttf
3172.818	n/a	WORD	1586409	wordpools/wasnorm_wordpool_less_exclusions.txt	LTP198	ltpFR	0	14	1	PRIMATE	1123	n/a	n/a	1	0.57763671875	0.412841796875	1	lower	amplitud.ttf
3176.746	n/a	WORD	1588373	wordpools/wasnorm_wordpool_less_exclusions.txt	LTP198	ltpFR	0	14	0	GIRAFFE	636	n/a	n/a	1	0.422607421875	0.5869140625	0	upper	zerothre.ttf
3180.64	n/a	WORD	1590320	wordpools/wasnorm_wordpool_less_exclusions.txt	LTP198	ltpFR	0	14	0	TIGER	1467	n/a	n/a	1	0.422607421875	0.5869140625	0	upper	zerothre.ttf
3184.784	n/a	WORD	1592392	wordpools/wasnorm_wordpool_less_exclusions.txt	LTP198	ltpFR	0	14	0	DETERGENT	455	n/a	n/a	0	0.422607421875	0.5869140625	0	upper	zerothre.ttf
3188.91	n/a	WORD	1594455	wordpools/wasnorm_wordpool_less_exclusions.txt	LTP198	ltpFR	0	14	0	SCREWDRIVER	1255	n/a	n/a	0	0.422607421875	0.5869140625	0	upper	zerothre.ttf
3193.004	n/a	WORD	1596502	wordpools/wasnorm_wordpool_less_exclusions.txt	LTP198	ltpFR	0	14	0	WRENCH	1625	n/a	n/a	0	0.422607421875	0.5869140625	0	upper	zerothre.ttf
3196.866	n/a	WORD	1598433	wordpools/wasnorm_wordpool_less_exclusions.txt	LTP198	ltpFR	0	14	1	BLOUSE	139	n/a	n/a	0	0.57763671875	0.412841796875	1	lower	amplitud.ttf
3200.71	n/a	WORD	1600355	wordpools/wasnorm_wordpool_less_exclusions.txt	LTP198	ltpFR	0	14	1	TROUSERS	1510	n/a	n/a	0	0.57763671875	0.412841796875	1	lower	amplitud.ttf
3204.654	n/a	WORD	1602327	wordpools/wasnorm_wordpool_less_exclusions.txt	LTP198	ltpFR	0	14	1	NUT	965	n/a	n/a	1	0.57763671875	0.412841796875	1	lower	amplitud.ttf
3208.516	n/a	WORD	1604258	wordpools/wasnorm_wordpool_less_exclusions.txt	LTP198	ltpFR	0	14	1	ROOT	1210	n/a	n/a	1	0.57763671875	0.412841796875	1	lower	amplitud.ttf
3212.476	n/a	WORD	1606238	wordpools/wasnorm_wordpool_less_exclusions.txt	LTP198	ltpFR	0	14	0	CARTON	251	n/a	n/a	1	0.422607421875	0.5869140625	0	upper	zerothre.ttf
3216.536	n/a	WORD	1608268	wordpools/wasnorm_wordpool_less_exclusions.txt	LTP198	ltpFR	0	14	0	SALESMAN	1225	n/a	n/a	1	0.422607421875	0.5869140625	0	upper	zerothre.ttf
3220.448	n/a	WORD	1610224	wordpools/wasnorm_wordpool_less_exclusions.txt	LTP198	ltpFR	0	14	0	PUMPKIN	1142	n/a	n/a	1	0.422607421875	0.5869140625	0	upper	zerothre.ttf
3226.322	n/a	REC_START	1613161	n/a	LTP198	ltpFR	0	14	n/a	n/a	n/a	n/a	n/a	n/a	n/a	n/a	n/a	n/a	n/a
3227.066	n/a	REC_WORD	1613533	wordpools/wasnorm_wordpool_less_exclusions.txt	LTP198	ltpFR	0	14	0	CARTON	251	n/a	n/a	1	n/a	n/a	n/a	n/a	n/a
3227.904	n/a	REC_WORD	1613952	wordpools/wasnorm_wordpool_less_exclusions.txt	LTP198	ltpFR	0	14	0	PUMPKIN	1142	n/a	n/a	1	n/a	n/a	n/a	n/a	n/a
3228.732	n/a	REC_WORD	1614366	wordpools/wasnorm_wordpool_less_exclusions.txt	LTP198	ltpFR	0	14	0	SALESMAN	1225	n/a	n/a	1	n/a	n/a	n/a	n/a	n/a
3229.824	n/a	REC_WORD	1614912	wordpools/wasnorm_wordpool_less_exclusions.txt	LTP198	ltpFR	0	14	1	BLOUSE	139	n/a	n/a	0	n/a	n/a	n/a	n/a	n/a
3230.732	n/a	REC_WORD_VV	1615366	wordpools/wasnorm_wordpool_less_exclusions.txt	LTP198	ltpFR	0	14	n/a	<>	-1	n/a	n/a	n/a	n/a	n/a	n/a	n/a	n/a
3231.39	n/a	REC_WORD	1615695	wordpools/wasnorm_wordpool_less_exclusions.txt	LTP198	ltpFR	0	14	1	TROUSERS	1510	n/a	n/a	0	n/a	n/a	n/a	n/a	n/a
3234.308	n/a	REC_WORD	1617154	wordpools/wasnorm_wordpool_less_exclusions.txt	LTP198	ltpFR	0	14	0	DETERGENT	455	n/a	n/a	0	n/a	n/a	n/a	n/a	n/a
3235.666	n/a	REC_WORD	1617833	wordpools/wasnorm_wordpool_less_exclusions.txt	LTP198	ltpFR	0	14	1	HAMPER	682	n/a	n/a	0	n/a	n/a	n/a	n/a	n/a
3236.928	n/a	REC_WORD	1618464	wordpools/wasnorm_wordpool_less_exclusions.txt	LTP198	ltpFR	0	14	1	PAINT	1003	n/a	n/a	0	n/a	n/a	n/a	n/a	n/a
3238.0	n/a	REC_WORD	1619000	wordpools/wasnorm_wordpool_less_exclusions.txt	LTP198	ltpFR	0	14	0	SCREWDRIVER	1255	n/a	n/a	0	n/a	n/a	n/a	n/a	n/a
3239.608	n/a	REC_WORD	1619804	wordpools/wasnorm_wordpool_less_exclusions.txt	LTP198	ltpFR	0	14	1	TREE	1502	n/a	n/a	1	n/a	n/a	n/a	n/a	n/a
3241.144	n/a	REC_WORD	1620572	wordpools/wasnorm_wordpool_less_exclusions.txt	LTP198	ltpFR	0	14	1	ROOT	1210	n/a	n/a	1	n/a	n/a	n/a	n/a	n/a
3245.808	n/a	REC_WORD	1622904	wordpools/wasnorm_wordpool_less_exclusions.txt	LTP198	ltpFR	0	14	1	NUT	965	n/a	n/a	1	n/a	n/a	n/a	n/a	n/a
3256.584	n/a	REC_WORD	1628292	wordpools/wasnorm_wordpool_less_exclusions.txt	LTP198	ltpFR	0	14	1	PRIMATE	1123	n/a	n/a	1	n/a	n/a	n/a	n/a	n/a
3265.718	n/a	REC_WORD	1632859	wordpools/wasnorm_wordpool_less_exclusions.txt	LTP198	ltpFR	0	14	0	CARTON	251	n/a	n/a	1	n/a	n/a	n/a	n/a	n/a
3321.666	n/a	WORD	1660833	wordpools/wasnorm_wordpool_less_exclusions.txt	LTP198	ltpFR	0	15	0	JURY	766	n/a	n/a	1	0.422607421875	0.5869140625	0	upper	zerothre.ttf
3325.76	n/a	WORD	1662880	wordpools/wasnorm_wordpool_less_exclusions.txt	LTP198	ltpFR	0	15	0	WITNESS	1618	n/a	n/a	1	0.422607421875	0.5869140625	0	upper	zerothre.ttf
3329.67	n/a	WORD	1664835	wordpools/wasnorm_wordpool_less_exclusions.txt	LTP198	ltpFR	0	15	1	BARREL	91	n/a	n/a	0	0.57763671875	0.412841796875	1	lower	amplitud.ttf
3333.88	n/a	WORD	1666940	wordpools/wasnorm_wordpool_less_exclusions.txt	LTP198	ltpFR	0	15	1	ICEBERG	731	n/a	n/a	0	0.57763671875	0.412841796875	1	lower	amplitud.ttf
3338.09	n/a	WORD	1669045	wordpools/wasnorm_wordpool_less_exclusions.txt	LTP198	ltpFR	0	15	1	NAVIGATOR	938	n/a	n/a	1	0.57763671875	0.412841796875	1	lower	amplitud.ttf
3342.068	n/a	WORD	1671034	wordpools/wasnorm_wordpool_less_exclusions.txt	LTP198	ltpFR	0	15	1	RUM	1217	n/a	n/a	0	0.57763671875	0.412841796875	1	lower	amplitud.ttf
3346.178	n/a	WORD	1673089	wordpools/wasnorm_wordpool_less_exclusions.txt	LTP198	ltpFR	0	15	0	BUSH	202	n/a	n/a	1	0.422607421875	0.5869140625	0	upper	zerothre.ttf
3350.39	n/a	WORD	1675195	wordpools/wasnorm_wordpool_less_exclusions.txt	LTP198	ltpFR	0	15	0	PASSENGER	1020	n/a	n/a	1	0.422607421875	0.5869140625	0	upper	zerothre.ttf
3354.566	n/a	WORD	1677283	wordpools/wasnorm_wordpool_less_exclusions.txt	LTP198	ltpFR	0	15	0	PISTON	1076	n/a	n/a	0	0.422607421875	0.5869140625	0	upper	zerothre.ttf
3358.576	n/a	WORD	1679288	wordpools/wasnorm_wordpool_less_exclusions.txt	LTP198	ltpFR	0	15	0	ORNAMENT	985	n/a	n/a	0	0.422607421875	0.5869140625	0	upper	zerothre.ttf
3362.538	n/a	WORD	1681269	wordpools/wasnorm_wordpool_less_exclusions.txt	LTP198	ltpFR	0	15	1	FINGERNAIL	568	n/a	n/a	0	0.57763671875	0.412841796875	1	lower	amplitud.ttf
3366.548	n/a	WORD	1683274	wordpools/wasnorm_wordpool_less_exclusions.txt	LTP198	ltpFR	0	15	1	LACE	792	n/a	n/a	0	0.57763671875	0.412841796875	1	lower	amplitud.ttf
3370.626	n/a	WORD	1685313	wordpools/wasnorm_wordpool_less_exclusions.txt	LTP198	ltpFR	0	15	1	GALAXY	617	n/a	n/a	1	0.57763671875	0.412841796875	1	lower	amplitud.ttf
3374.654	n/a	WORD	1687327	wordpools/wasnorm_wordpool_less_exclusions.txt	LTP198	ltpFR	0	15	1	IDOL	733	n/a	n/a	0	0.57763671875	0.412841796875	1	lower	amplitud.ttf
3378.514	n/a	WORD	1689257	wordpools/wasnorm_wordpool_less_exclusions.txt	LTP198	ltpFR	0	15	0	STEWARDESS	1381	n/a	n/a	1	0.422607421875	0.5869140625	0	upper	zerothre.ttf
3382.708	n/a	WORD	1691354	wordpools/wasnorm_wordpool_less_exclusions.txt	LTP198	ltpFR	0	15	0	BEAKER	104	n/a	n/a	0	0.422607421875	0.5869140625	0	upper	zerothre.ttf
3388.35	n/a	REC_START	1694175	n/a	LTP198	ltpFR	0	15	n/a	n/a	n/a	n/a	n/a	n/a	n/a	n/a	n/a	n/a	n/a
3389.272	n/a	REC_WORD	1694636	wordpools/wasnorm_wordpool_less_exclusions.txt	LTP198	ltpFR	0	15	0	BEAKER	104	n/a	n/a	0	n/a	n/a	n/a	n/a	n/a
3389.966	n/a	REC_WORD	1694983	wordpools/wasnorm_wordpool_less_exclusions.txt	LTP198	ltpFR	0	15	0	STEWARDESS	1381	n/a	n/a	1	n/a	n/a	n/a	n/a	n/a
3391.168	n/a	REC_WORD	1695584	wordpools/wasnorm_wordpool_less_exclusions.txt	LTP198	ltpFR	0	15	1	ICEBERG	731	n/a	n/a	0	n/a	n/a	n/a	n/a	n/a
3392.156	n/a	REC_WORD	1696078	wordpools/wasnorm_wordpool_less_exclusions.txt	LTP198	ltpFR	0	15	1	BARREL	91	n/a	n/a	0	n/a	n/a	n/a	n/a	n/a
3393.154	n/a	REC_WORD	1696577	wordpools/wasnorm_wordpool_less_exclusions.txt	LTP198	ltpFR	0	15	1	RUM	1217	n/a	n/a	0	n/a	n/a	n/a	n/a	n/a
3394.256	n/a	REC_WORD	1697128	wordpools/wasnorm_wordpool_less_exclusions.txt	LTP198	ltpFR	0	15	1	NAVIGATOR	938	n/a	n/a	1	n/a	n/a	n/a	n/a	n/a
3395.444	n/a	REC_WORD	1697722	wordpools/wasnorm_wordpool_less_exclusions.txt	LTP198	ltpFR	0	15	0	WITNESS	1618	n/a	n/a	1	n/a	n/a	n/a	n/a	n/a
3396.596	n/a	REC_WORD	1698298	wordpools/wasnorm_wordpool_less_exclusions.txt	LTP198	ltpFR	0	15	0	JURY	766	n/a	n/a	1	n/a	n/a	n/a	n/a	n/a
3397.732	n/a	REC_WORD	1698866	wordpools/wasnorm_wordpool_less_exclusions.txt	LTP198	ltpFR	0	15	1	ICEBERG	731	n/a	n/a	0	n/a	n/a	n/a	n/a	n/a
3398.95	n/a	REC_WORD	1699475	wordpools/wasnorm_wordpool_less_exclusions.txt	LTP198	ltpFR	0	15	0	PISTON	1076	n/a	n/a	0	n/a	n/a	n/a	n/a	n/a
3414.984	n/a	REC_WORD	1707492	wordpools/wasnorm_wordpool_less_exclusions.txt	LTP198	ltpFR	0	15	1	GALAXY	617	n/a	n/a	1	n/a	n/a	n/a	n/a	n/a
3482.908	n/a	WORD	1741454	wordpools/wasnorm_wordpool_less_exclusions.txt	LTP198	ltpFR	0	16	0	KITTEN	780	n/a	n/a	0	0.422607421875	0.5869140625	0	upper	zerothre.ttf
3486.754	n/a	WORD	1743377	wordpools/wasnorm_wordpool_less_exclusions.txt	LTP198	ltpFR	0	16	0	TERMITE	1451	n/a	n/a	0	0.422607421875	0.5869140625	0	upper	zerothre.ttf
3490.864	n/a	WORD	1745432	wordpools/wasnorm_wordpool_less_exclusions.txt	LTP198	ltpFR	0	16	0	GROCERIES	663	n/a	n/a	1	0.422607421875	0.5869140625	0	upper	zerothre.ttf
3495.09	n/a	WORD	1747545	wordpools/wasnorm_wordpool_less_exclusions.txt	LTP198	ltpFR	0	16	0	SUPERMARKET	1409	n/a	n/a	1	0.422607421875	0.5869140625	0	upper	zerothre.ttf
3499.284	n/a	WORD	1749642	wordpools/wasnorm_wordpool_less_exclusions.txt	LTP198	ltpFR	0	16	0	PIER	1063	n/a	n/a	1	0.422607421875	0.5869140625	0	upper	zerothre.ttf
3503.362	n/a	WORD	1751681	wordpools/wasnorm_wordpool_less_exclusions.txt	LTP198	ltpFR	0	16	0	ESCALATOR	539	n/a	n/a	1	0.422607421875	0.5869140625	0	upper	zerothre.ttf
3507.272	n/a	WORD	1753636	wordpools/wasnorm_wordpool_less_exclusions.txt	LTP198	ltpFR	0	16	1	SHORTCAKE	1292	n/a	n/a	0	0.57763671875	0.412841796875	1	lower	amplitud.ttf
3511.316	n/a	WORD	1755658	wordpools/wasnorm_wordpool_less_exclusions.txt	LTP198	ltpFR	0	16	1	MOUSE	925	n/a	n/a	1	0.57763671875	0.412841796875	1	lower	amplitud.ttf
3515.244	n/a	WORD	1757622	wordpools/wasnorm_wordpool_less_exclusions.txt	LTP198	ltpFR	0	16	0	NEUTRON	947	n/a	n/a	0	0.422607421875	0.5869140625	0	upper	zerothre.ttf
3519.406	n/a	WORD	1759703	wordpools/wasnorm_wordpool_less_exclusions.txt	LTP198	ltpFR	0	16	0	TOWEL	1489	n/a	n/a	0	0.422607421875	0.5869140625	0	upper	zerothre.ttf
3523.516	n/a	WORD	1761758	wordpools/wasnorm_wordpool_less_exclusions.txt	LTP198	ltpFR	0	16	1	MOSQUITO	917	n/a	n/a	1	0.57763671875	0.412841796875	1	lower	amplitud.ttf
3527.544	n/a	WORD	1763772	wordpools/wasnorm_wordpool_less_exclusions.txt	LTP198	ltpFR	0	16	1	CAPITAL	238	n/a	n/a	0	0.57763671875	0.412841796875	1	lower	amplitud.ttf
3531.588	n/a	WORD	1765794	wordpools/wasnorm_wordpool_less_exclusions.txt	LTP198	ltpFR	0	16	1	MINK	897	n/a	n/a	1	0.57763671875	0.412841796875	1	lower	amplitud.ttf
3535.532	n/a	WORD	1767766	wordpools/wasnorm_wordpool_less_exclusions.txt	LTP198	ltpFR	0	16	1	ANIMAL	23	n/a	n/a	1	0.57763671875	0.412841796875	1	lower	amplitud.ttf
3539.71	n/a	WORD	1769855	wordpools/wasnorm_wordpool_less_exclusions.txt	LTP198	ltpFR	0	16	1	POOL	1103	n/a	n/a	0	0.57763671875	0.412841796875	1	lower	amplitud.ttf
3543.918	n/a	WORD	1771959	wordpools/wasnorm_wordpool_less_exclusions.txt	LTP198	ltpFR	0	16	1	HOSE	720	n/a	n/a	0	0.57763671875	0.412841796875	1	lower	amplitud.ttf
3549.662	n/a	REC_START	1774831	n/a	LTP198	ltpFR	0	16	n/a	n/a	n/a	n/a	n/a	n/a	n/a	n/a	n/a	n/a	n/a
3550.464	n/a	REC_WORD	1775232	wordpools/wasnorm_wordpool_less_exclusions.txt	LTP198	ltpFR	0	16	1	POOL	1103	n/a	n/a	0	n/a	n/a	n/a	n/a	n/a
3551.192	n/a	REC_WORD	1775596	wordpools/wasnorm_wordpool_less_exclusions.txt	LTP198	ltpFR	0	16	1	HOSE	720	n/a	n/a	0	n/a	n/a	n/a	n/a	n/a
3552.056	n/a	REC_WORD	1776028	wordpools/wasnorm_wordpool_less_exclusions.txt	LTP198	ltpFR	0	16	0	PIER	1063	n/a	n/a	1	n/a	n/a	n/a	n/a	n/a
3553.158	n/a	REC_WORD	1776579	wordpools/wasnorm_wordpool_less_exclusions.txt	LTP198	ltpFR	0	16	0	KITTEN	780	n/a	n/a	0	n/a	n/a	n/a	n/a	n/a
3554.092	n/a	REC_WORD	1777046	wordpools/wasnorm_wordpool_less_exclusions.txt	LTP198	ltpFR	0	16	0	TERMITE	1451	n/a	n/a	0	n/a	n/a	n/a	n/a	n/a
3555.278	n/a	REC_WORD	1777639	wordpools/wasnorm_wordpool_less_exclusions.txt	LTP198	ltpFR	0	16	1	MOUSE	925	n/a	n/a	1	n/a	n/a	n/a	n/a	n/a
3556.9	n/a	REC_WORD	1778450	wordpools/wasnorm_wordpool_less_exclusions.txt	LTP198	ltpFR	0	16	0	GROCERIES	663	n/a	n/a	1	n/a	n/a	n/a	n/a	n/a
3557.672	n/a	REC_WORD	1778836	wordpools/wasnorm_wordpool_less_exclusions.txt	LTP198	ltpFR	0	16	0	SUPERMARKET	1409	n/a	n/a	1	n/a	n/a	n/a	n/a	n/a
3558.696	n/a	REC_WORD	1779348	wordpools/wasnorm_wordpool_less_exclusions.txt	LTP198	ltpFR	0	16	1	CAPITAL	238	n/a	n/a	0	n/a	n/a	n/a	n/a	n/a
3559.484	n/a	REC_WORD	1779742	wordpools/wasnorm_wordpool_less_exclusions.txt	LTP198	ltpFR	0	16	1	MINK	897	n/a	n/a	1	n/a	n/a	n/a	n/a	n/a
3564.084	n/a	REC_WORD	1782042	wordpools/wasnorm_wordpool_less_exclusions.txt	LTP198	ltpFR	0	16	0	ESCALATOR	539	n/a	n/a	1	n/a	n/a	n/a	n/a	n/a
3565.91	n/a	REC_WORD	1782955	wordpools/wasnorm_wordpool_less_exclusions.txt	LTP198	ltpFR	0	16	0	NEUTRON	947	n/a	n/a	0	n/a	n/a	n/a	n/a	n/a
3582.8	n/a	REC_WORD	1791400	wordpools/wasnorm_wordpool_less_exclusions.txt	LTP198	ltpFR	0	16	0	TOWEL	1489	n/a	n/a	0	n/a	n/a	n/a	n/a	n/a
3729.344	n/a	REC_START	1864672	n/a	LTP198	ltpFR	0	n/a	n/a	n/a	n/a	n/a	n/a	n/a	n/a	n/a	n/a	n/a	n/a
3730.062	n/a	FFR_REC_WORD	1865031	wordpools/wasnorm_wordpool_less_exclusions.txt	LTP198	ltpFR	0	n/a	0	ATTORNEY	58	n/a	n/a	1	n/a	n/a	n/a	n/a	n/a
3731.156	n/a	FFR_REC_WORD	1865578	wordpools/wasnorm_wordpool_less_exclusions.txt	LTP198	ltpFR	0	n/a	0	JURY	766	n/a	n/a	1	n/a	n/a	n/a	n/a	n/a
3732.288	n/a	FFR_REC_WORD	1866144	wordpools/wasnorm_wordpool_less_exclusions.txt	LTP198	ltpFR	0	n/a	0	WITNESS	1618	n/a	n/a	1	n/a	n/a	n/a	n/a	n/a
3733.132	n/a	FFR_REC_WORD	1866566	wordpools/wasnorm_wordpool_less_exclusions.txt	LTP198	ltpFR	0	n/a	0	SPY	1360	n/a	n/a	1	n/a	n/a	n/a	n/a	n/a
3734.23	n/a	FFR_REC_WORD	1867115	wordpools/wasnorm_wordpool_less_exclusions.txt	LTP198	ltpFR	0	n/a	0	SHACK	1273	n/a	n/a	1	n/a	n/a	n/a	n/a	n/a
3736.25	n/a	FFR_REC_WORD	1868125	wordpools/wasnorm_wordpool_less_exclusions.txt	LTP198	ltpFR	0	n/a	-1	ANCHOR	21	n/a	n/a	-1	n/a	n/a	n/a	n/a	n/a
3738.43	n/a	FFR_REC_WORD	1869215	wordpools/wasnorm_wordpool_less_exclusions.txt	LTP198	ltpFR	0	n/a	1	SOCIETY	1338	n/a	n/a	1	n/a	n/a	n/a	n/a	n/a
3739.596	n/a	FFR_REC_WORD	1869798	wordpools/wasnorm_wordpool_less_exclusions.txt	LTP198	ltpFR	0	n/a	1	CAPITAL	238	n/a	n/a	0	n/a	n/a	n/a	n/a	n/a
3743.01	n/a	FFR_REC_WORD	1871505	wordpools/wasnorm_wordpool_less_exclusions.txt	LTP198	ltpFR	0	n/a	n/a	HUMANITY	-1	n/a	n/a	n/a	n/a	n/a	n/a	n/a	n/a
3744.72	n/a	FFR_REC_WORD	1872360	wordpools/wasnorm_wordpool_less_exclusions.txt	LTP198	ltpFR	0	n/a	1	GALAXY	617	n/a	n/a	1	n/a	n/a	n/a	n/a	n/a
3747.524	n/a	FFR_REC_WORD	1873762	wordpools/wasnorm_wordpool_less_exclusions.txt	LTP198	ltpFR	0	n/a	1	WILDERNESS	1610	n/a	n/a	1	n/a	n/a	n/a	n/a	n/a
3748.572	n/a	FFR_REC_WORD	1874286	wordpools/wasnorm_wordpool_less_exclusions.txt	LTP198	ltpFR	0	n/a	1	WINGS	1614	n/a	n/a	1	n/a	n/a	n/a	n/a	n/a
3749.51	n/a	FFR_REC_WORD	1874755	wordpools/wasnorm_wordpool_less_exclusions.txt	LTP198	ltpFR	0	n/a	1	BUTTERFLY	206	n/a	n/a	1	n/a	n/a	n/a	n/a	n/a
3750.422	n/a	FFR_REC_WORD	1875211	wordpools/wasnorm_wordpool_less_exclusions.txt	LTP198	ltpFR	0	n/a	1	SEAGULL	1261	n/a	n/a	1	n/a	n/a	n/a	n/a	n/a
3752.048	n/a	FFR_REC_WORD	1876024	wordpools/wasnorm_wordpool_less_exclusions.txt	LTP198	ltpFR	0	n/a	1	BAY	102	n/a	n/a	0	n/a	n/a	n/a	n/a	n/a
3753.64	n/a	FFR_REC_WORD	1876820	wordpools/wasnorm_wordpool_less_exclusions.txt	LTP198	ltpFR	0	n/a	1	COUGAR	387	n/a	n/a	1	n/a	n/a	n/a	n/a	n/a
3754.818	n/a	FFR_REC_WORD	1877409	wordpools/wasnorm_wordpool_less_exclusions.txt	LTP198	ltpFR	0	n/a	1	DOG	480	n/a	n/a	1	n/a	n/a	n/a	n/a	n/a
3756.498	n/a	FFR_REC_WORD	1878249	wordpools/wasnorm_wordpool_less_exclusions.txt	LTP198	ltpFR	0	n/a	-1	CAT	257	n/a	n/a	-1	n/a	n/a	n/a	n/a	n/a
3757.386	n/a	FFR_REC_WORD	1878693	wordpools/wasnorm_wordpool_less_exclusions.txt	LTP198	ltpFR	0	n/a	0	KITTEN	780	n/a	n/a	0	n/a	n/a	n/a	n/a	n/a
3758.354	n/a	FFR_REC_WORD	1879177	wordpools/wasnorm_wordpool_less_exclusions.txt	LTP198	ltpFR	0	n/a	-1	BELLY	119	n/a	n/a	-1	n/a	n/a	n/a	n/a	n/a
3762.78	n/a	FFR_REC_WORD	1881390	wordpools/wasnorm_wordpool_less_exclusions.txt	LTP198	ltpFR	0	n/a	1	NAVIGATOR	938	n/a	n/a	1	n/a	n/a	n/a	n/a	n/a
3763.622	n/a	FFR_REC_WORD	1881811	wordpools/wasnorm_wordpool_less_exclusions.txt	LTP198	ltpFR	0	n/a	1	COMMANDER	354	n/a	n/a	1	n/a	n/a	n/a	n/a	n/a
3764.27	n/a	FFR_REC_WORD	1882135	wordpools/wasnorm_wordpool_less_exclusions.txt	LTP198	ltpFR	0	n/a	0	STEWARDESS	1381	n/a	n/a	1	n/a	n/a	n/a	n/a	n/a
3765.538	n/a	FFR_REC_WORD	1882769	wordpools/wasnorm_wordpool_less_exclusions.txt	LTP198	ltpFR	0	n/a	0	BUTLER	204	n/a	n/a	1	n/a	n/a	n/a	n/a	n/a
3766.236	n/a	FFR_REC_WORD	1883118	wordpools/wasnorm_wordpool_less_exclusions.txt	LTP198	ltpFR	0	n/a	0	CHAUFFEUR	283	n/a	n/a	1	n/a	n/a	n/a	n/a	n/a
3767.494	n/a	FFR_REC_WORD	1883747	wordpools/wasnorm_wordpool_less_exclusions.txt	LTP198	ltpFR	0	n/a	0	PONY	1102	n/a	n/a	1	n/a	n/a	n/a	n/a	n/a
3768.486	n/a	FFR_REC_WORD	1884243	wordpools/wasnorm_wordpool_less_exclusions.txt	LTP198	ltpFR	0	n/a	0	CART	250	n/a	n/a	1	n/a	n/a	n/a	n/a	n/a
3770.022	n/a	FFR_REC_WORD	1885011	wordpools/wasnorm_wordpool_less_exclusions.txt	LTP198	ltpFR	0	n/a	-1	ANCHOR	21	n/a	n/a	-1	n/a	n/a	n/a	n/a	n/a
3770.886	n/a	FFR_REC_WORD	1885443	wordpools/wasnorm_wordpool_less_exclusions.txt	LTP198	ltpFR	0	n/a	-1	KNOT	788	n/a	n/a	-1	n/a	n/a	n/a	n/a	n/a
3771.894	n/a	FFR_REC_WORD	1885947	wordpools/wasnorm_wordpool_less_exclusions.txt	LTP198	ltpFR	0	n/a	1	CABLE	213	n/a	n/a	0	n/a	n/a	n/a	n/a	n/a
3772.912	n/a	FFR_REC_WORD	1886456	wordpools/wasnorm_wordpool_less_exclusions.txt	LTP198	ltpFR	0	n/a	1	TENT	1449	n/a	n/a	0	n/a	n/a	n/a	n/a	n/a
3773.888	n/a	FFR_REC_WORD	1886944	wordpools/wasnorm_wordpool_less_exclusions.txt	LTP198	ltpFR	0	n/a	1	CLAW	319	n/a	n/a	0	n/a	n/a	n/a	n/a	n/a
3775.036	n/a	FFR_REC_WORD	1887518	wordpools/wasnorm_wordpool_less_exclusions.txt	LTP198	ltpFR	0	n/a	1	BEAR	106	n/a	n/a	1	n/a	n/a	n/a	n/a	n/a
3783.278	n/a	FFR_REC_WORD	1891639	wordpools/wasnorm_wordpool_less_exclusions.txt	LTP198	ltpFR	0	n/a	-1	SNORKEL	1336	n/a	n/a	-1	n/a	n/a	n/a	n/a	n/a
3784.436	n/a	FFR_REC_WORD	1892218	wordpools/wasnorm_wordpool_less_exclusions.txt	LTP198	ltpFR	0	n/a	-1	TUBE	1516	n/a	n/a	-1	n/a	n/a	n/a	n/a	n/a
3789.278	n/a	FFR_REC_WORD	1894639	wordpools/wasnorm_wordpool_less_exclusions.txt	LTP198	ltpFR	0	n/a	-1	FARMER	553	n/a	n/a	-1	n/a	n/a	n/a	n/a	n/a
3790.252	n/a	FFR_REC_WORD	1895126	wordpools/wasnorm_wordpool_less_exclusions.txt	LTP198	ltpFR	0	n/a	-1	CABBAGE	210	n/a	n/a	-1	n/a	n/a	n/a	n/a	n/a
3791.31	n/a	FFR_REC_WORD	1895655	wordpools/wasnorm_wordpool_less_exclusions.txt	LTP198	ltpFR	0	n/a	-1	TIDE	1465	n/a	n/a	-1	n/a	n/a	n/a	n/a	n/a
3795.48	n/a	FFR_REC_WORD	1897740	wordpools/wasnorm_wordpool_less_exclusions.txt	LTP198	ltpFR	0	n/a	-1	BOOK	149	n/a	n/a	-1	n/a	n/a	n/a	n/a	n/a
3798.11	n/a	FFR_REC_WORD	1899055	wordpools/wasnorm_wordpool_less_exclusions.txt	LTP198	ltpFR	0	n/a	-1	COTTAGE	384	n/a	n/a	-1	n/a	n/a	n/a	n/a	n/a
3799.914	n/a	FFR_REC_WORD	1899957	wordpools/wasnorm_wordpool_less_exclusions.txt	LTP198	ltpFR	0	n/a	0	NEUTRON	947	n/a	n/a	0	n/a	n/a	n/a	n/a	n/a
3801.022	n/a	FFR_REC_WORD	1900511	wordpools/wasnorm_wordpool_less_exclusions.txt	LTP198	ltpFR	0	n/a	0	CHEMICAL	291	n/a	n/a	0	n/a	n/a	n/a	n/a	n/a
3801.99	n/a	FFR_REC_WORD	1900995	wordpools/wasnorm_wordpool_less_exclusions.txt	LTP198	ltpFR	0	n/a	0	NITROGEN	954	n/a	n/a	0	n/a	n/a	n/a	n/a	n/a
3809.408	n/a	FFR_REC_WORD	1904704	wordpools/wasnorm_wordpool_less_exclusions.txt	LTP198	ltpFR	0	n/a	-1	SNEAKER	1334	n/a	n/a	-1	n/a	n/a	n/a	n/a	n/a
3810.312	n/a	FFR_REC_WORD	1905156	wordpools/wasnorm_wordpool_less_exclusions.txt	LTP198	ltpFR	0	n/a	-1	SKIRT	1319	n/a	n/a	-1	n/a	n/a	n/a	n/a	n/a
3812.742	n/a	FFR_REC_WORD	1906371	wordpools/wasnorm_wordpool_less_exclusions.txt	LTP198	ltpFR	0	n/a	1	TROUSERS	1510	n/a	n/a	0	n/a	n/a	n/a	n/a	n/a
3813.604	n/a	FFR_REC_WORD	1906802	wordpools/wasnorm_wordpool_less_exclusions.txt	LTP198	ltpFR	0	n/a	1	BLOUSE	139	n/a	n/a	0	n/a	n/a	n/a	n/a	n/a
3814.348	n/a	FFR_REC_WORD	1907174	wordpools/wasnorm_wordpool_less_exclusions.txt	LTP198	ltpFR	0	n/a	0	DETERGENT	455	n/a	n/a	0	n/a	n/a	n/a	n/a	n/a
3815.212	n/a	FFR_REC_WORD	1907606	wordpools/wasnorm_wordpool_less_exclusions.txt	LTP198	ltpFR	0	n/a	1	HAMPER	682	n/a	n/a	0	n/a	n/a	n/a	n/a	n/a
3816.054	n/a	FFR_REC_WORD	1908027	wordpools/wasnorm_wordpool_less_exclusions.txt	LTP198	ltpFR	0	n/a	1	TREE	1502	n/a	n/a	1	n/a	n/a	n/a	n/a	n/a
3817.028	n/a	FFR_REC_WORD	1908514	wordpools/wasnorm_wordpool_less_exclusions.txt	LTP198	ltpFR	0	n/a	1	PAINT	1003	n/a	n/a	0	n/a	n/a	n/a	n/a	n/a
3819.012	n/a	FFR_REC_WORD	1909506	wordpools/wasnorm_wordpool_less_exclusions.txt	LTP198	ltpFR	0	n/a	n/a	LAUNDRY	803	n/a	n/a	n/a	n/a	n/a	n/a	n/a	n/a
3820.804	n/a	FFR_REC_WORD	1910402	wordpools/wasnorm_wordpool_less_exclusions.txt	LTP198	ltpFR	0	n/a	1	ROOT	1210	n/a	n/a	1	n/a	n/a	n/a	n/a	n/a
3823.766	n/a	FFR_REC_WORD	1911883	wordpools/wasnorm_wordpool_less_exclusions.txt	LTP198	ltpFR	0	n/a	-1	PASSAGE	1019	n/a	n/a	-1	n/a	n/a	n/a	n/a	n/a
3826.56	n/a	FFR_REC_WORD	1913280	wordpools/wasnorm_wordpool_less_exclusions.txt	LTP198	ltpFR	0	n/a	0	CHEESE	289	n/a	n/a	0	n/a	n/a	n/a	n/a	n/a
3827.434	n/a	FFR_REC_WORD	1913717	wordpools/wasnorm_wordpool_less_exclusions.txt	LTP198	ltpFR	0	n/a	-1	CHEDDAR	286	n/a	n/a	-1	n/a	n/a	n/a	n/a	n/a
3828.286	n/a	FFR_REC_WORD	1914143	wordpools/wasnorm_wordpool_less_exclusions.txt	LTP198	ltpFR	0	n/a	-1	MACARONI	851	n/a	n/a	-1	n/a	n/a	n/a	n/a	n/a
3829.504	n/a	FFR_REC_WORD	1914752	wordpools/wasnorm_wordpool_less_exclusions.txt	LTP198	ltpFR	0	n/a	-1	STEAM	1375	n/a	n/a	-1	n/a	n/a	n/a	n/a	n/a
3834.782	n/a	FFR_REC_WORD	1917391	wordpools/wasnorm_wordpool_less_exclusions.txt	LTP198	ltpFR	0	n/a	0	DILL	465	n/a	n/a	0	n/a	n/a	n/a	n/a	n/a
3838.718	n/a	FFR_REC_WORD	1919359	wordpools/wasnorm_wordpool_less_exclusions.txt	LTP198	ltpFR	0	n/a	n/a	CLOVER	-1	n/a	n/a	n/a	n/a	n/a	n/a	n/a	n/a
3840.752	n/a	FFR_REC_WORD	1920376	wordpools/wasnorm_wordpool_less_exclusions.txt	LTP198	ltpFR	0	n/a	0	SPICE	1350	n/a	n/a	0	n/a	n/a	n/a	n/a	n/a
3843.008	n/a	FFR_REC_WORD	1921504	wordpools/wasnorm_wordpool_less_exclusions.txt	LTP198	ltpFR	0	n/a	-1	SALMON	1227	n/a	n/a	-1	n/a	n/a	n/a	n/a	n/a
3844.974	n/a	FFR_REC_WORD	1922487	wordpools/wasnorm_wordpool_less_exclusions.txt	LTP198	ltpFR	0	n/a	0	SARDINE	1235	n/a	n/a	1	n/a	n/a	n/a	n/a	n/a
3859.486	n/a	FFR_REC_WORD	1929743	wordpools/wasnorm_wordpool_less_exclusions.txt	LTP198	ltpFR	0	n/a	0	TOWEL	1489	n/a	n/a	0	n/a	n/a	n/a	n/a	n/a
3861.442	n/a	FFR_REC_WORD_VV	1930721	wordpools/wasnorm_wordpool_less_exclusions.txt	LTP198	ltpFR	0	n/a	n/a	<>	-1	n/a	n/a	n/a	n/a	n/a	n/a	n/a	n/a
3864.888	n/a	FFR_REC_WORD	1932444	wordpools/wasnorm_wordpool_less_exclusions.txt	LTP198	ltpFR	0	n/a	1	RUM	1217	n/a	n/a	0	n/a	n/a	n/a	n/a	n/a
3865.95	n/a	FFR_REC_WORD	1932975	wordpools/wasnorm_wordpool_less_exclusions.txt	LTP198	ltpFR	0	n/a	1	BARREL	91	n/a	n/a	0	n/a	n/a	n/a	n/a	n/a
3869.886	n/a	FFR_REC_WORD	1934943	wordpools/wasnorm_wordpool_less_exclusions.txt	LTP198	ltpFR	0	n/a	0	HOE	711	n/a	n/a	1	n/a	n/a	n/a	n/a	n/a
3870.744	n/a	FFR_REC_WORD	1935372	wordpools/wasnorm_wordpool_less_exclusions.txt	LTP198	ltpFR	0	n/a	0	RELISH	1183	n/a	n/a	0	n/a	n/a	n/a	n/a	n/a
3876.094	n/a	FFR_REC_WORD	1938047	wordpools/wasnorm_wordpool_less_exclusions.txt	LTP198	ltpFR	0	n/a	1	VET	1560	n/a	n/a	1	n/a	n/a	n/a	n/a	n/a
3877.242	n/a	FFR_REC_WORD	1938621	wordpools/wasnorm_wordpool_less_exclusions.txt	LTP198	ltpFR	0	n/a	n/a	APE	31	n/a	n/a	n/a	n/a	n/a	n/a	n/a	n/a
3878.074	n/a	FFR_REC_WORD	1939037	wordpools/wasnorm_wordpool_less_exclusions.txt	LTP198	ltpFR	0	n/a	1	GORILLA	650	n/a	n/a	1	n/a	n/a	n/a	n/a	n/a
3879.146	n/a	FFR_REC_WORD	1939573	wordpools/wasnorm_wordpool_less_exclusions.txt	LTP198	ltpFR	0	n/a	1	SAP	1233	n/a	n/a	1	n/a	n/a	n/a	n/a	n/a
3880.24	n/a	FFR_REC_WORD	1940120	wordpools/wasnorm_wordpool_less_exclusions.txt	LTP198	ltpFR	0	n/a	1	CAVE	263	n/a	n/a	0	n/a	n/a	n/a	n/a	n/a
3881.238	n/a	FFR_REC_WORD	1940619	wordpools/wasnorm_wordpool_less_exclusions.txt	LTP198	ltpFR	0	n/a	1	JUNGLE	764	n/a	n/a	1	n/a	n/a	n/a	n/a	n/a
3886.176	n/a	FFR_REC_WORD	1943088	wordpools/wasnorm_wordpool_less_exclusions.txt	LTP198	ltpFR	0	n/a	1	TERMINAL	1450	n/a	n/a	0	n/a	n/a	n/a	n/a	n/a
3887.038	n/a	FFR_REC_WORD	1943519	wordpools/wasnorm_wordpool_less_exclusions.txt	LTP198	ltpFR	0	n/a	1	FLEA	577	n/a	n/a	1	n/a	n/a	n/a	n/a	n/a
3888.87	n/a	FFR_REC_WORD	1944435	wordpools/wasnorm_wordpool_less_exclusions.txt	LTP198	ltpFR	0	n/a	1	ALLIGATOR	16	n/a	n/a	1	n/a	n/a	n/a	n/a	n/a
3889.958	n/a	FFR_REC_WORD	1944979	wordpools/wasnorm_wordpool_less_exclusions.txt	LTP198	ltpFR	0	n/a	1	MINK	897	n/a	n/a	1	n/a	n/a	n/a	n/a	n/a
3890.816	n/a	FFR_REC_WORD	1945408	wordpools/wasnorm_wordpool_less_exclusions.txt	LTP198	ltpFR	0	n/a	1	MONGOOSE	909	n/a	n/a	1	n/a	n/a	n/a	n/a	n/a
3899.306	n/a	FFR_REC_WORD	1949653	wordpools/wasnorm_wordpool_less_exclusions.txt	LTP198	ltpFR	0	n/a	1	SAILOR	1223	n/a	n/a	1	n/a	n/a	n/a	n/a	n/a
3902.888	n/a	FFR_REC_WORD	1951444	wordpools/wasnorm_wordpool_less_exclusions.txt	LTP198	ltpFR	0	n/a	-1	CAFETERIA	217	n/a	n/a	-1	n/a	n/a	n/a	n/a	n/a
3903.996	n/a	FFR_REC_WORD	1951998	wordpools/wasnorm_wordpool_less_exclusions.txt	LTP198	ltpFR	0	n/a	1	FREEZER	604	n/a	n/a	0	n/a	n/a	n/a	n/a	n/a
3904.994	n/a	FFR_REC_WORD	1952497	wordpools/wasnorm_wordpool_less_exclusions.txt	LTP198	ltpFR	0	n/a	-1	REFRIGERATOR	1179	n/a	n/a	-1	n/a	n/a	n/a	n/a	n/a
3906.01	n/a	FFR_REC_WORD	1953005	wordpools/wasnorm_wordpool_less_exclusions.txt	LTP198	ltpFR	0	n/a	1	TRAITOR	1495	n/a	n/a	1	n/a	n/a	n/a	n/a	n/a
3907.092	n/a	FFR_REC_WORD	1953546	wordpools/wasnorm_wordpool_less_exclusions.txt	LTP198	ltpFR	0	n/a	0	SPY	1360	n/a	n/a	1	n/a	n/a	n/a	n/a	n/a
3920.074	n/a	FFR_REC_WORD	1960037	wordpools/wasnorm_wordpool_less_exclusions.txt	LTP198	ltpFR	0	n/a	0	SCREWDRIVER	1255	n/a	n/a	0	n/a	n/a	n/a	n/a	n/a
3923.192	n/a	FFR_REC_WORD	1961596	wordpools/wasnorm_wordpool_less_exclusions.txt	LTP198	ltpFR	0	n/a	0	SPATULA	1348	n/a	n/a	1	n/a	n/a	n/a	n/a	n/a
3924.22	n/a	FFR_REC_WORD	1962110	wordpools/wasnorm_wordpool_less_exclusions.txt	LTP198	ltpFR	0	n/a	n/a	FROSTING	-1	n/a	n/a	n/a	n/a	n/a	n/a	n/a	n/a
3925.582	n/a	FFR_REC_WORD	1962791	wordpools/wasnorm_wordpool_less_exclusions.txt	LTP198	ltpFR	0	n/a	1	CAKE	219	n/a	n/a	0	n/a	n/a	n/a	n/a	n/a
3926.528	n/a	FFR_REC_WORD	1963264	wordpools/wasnorm_wordpool_less_exclusions.txt	LTP198	ltpFR	0	n/a	1	FOUNTAIN	597	n/a	n/a	0	n/a	n/a	n/a	n/a	n/a
3927.458	n/a	FFR_REC_WORD	1963729	wordpools/wasnorm_wordpool_less_exclusions.txt	LTP198	ltpFR	0	n/a	1	MUSEUM	933	n/a	n/a	0	n/a	n/a	n/a	n/a	n/a
3929.598	n/a	FFR_REC_WORD	1964799	wordpools/wasnorm_wordpool_less_exclusions.txt	LTP198	ltpFR	0	n/a	1	TRACTOR	1493	n/a	n/a	0	n/a	n/a	n/a	n/a	n/a
3934.392	n/a	FFR_REC_WORD	1967196	wordpools/wasnorm_wordpool_less_exclusions.txt	LTP198	ltpFR	0	n/a	1	LEADER	807	n/a	n/a	1	n/a	n/a	n/a	n/a	n/a
3935.334	n/a	FFR_REC_WORD	1967667	wordpools/wasnorm_wordpool_less_exclusions.txt	LTP198	ltpFR	0	n/a	1	COMMANDER	354	n/a	n/a	1	n/a	n/a	n/a	n/a	n/a
3938.542	n/a	FFR_REC_WORD_VV	1969271	wordpools/wasnorm_wordpool_less_exclusions.txt	LTP198	ltpFR	0	n/a	n/a	<>	-1	n/a	n/a	n/a	n/a	n/a	n/a	n/a	n/a
3939.51	n/a	FFR_REC_WORD_VV	1969755	wordpools/wasnorm_wordpool_less_exclusions.txt	LTP198	ltpFR	0	n/a	n/a	<>	-1	n/a	n/a	n/a	n/a	n/a	n/a	n/a	n/a
3987.442	n/a	FFR_REC_WORD	1993721	wordpools/wasnorm_wordpool_less_exclusions.txt	LTP198	ltpFR	0	n/a	-1	VAN	1548	n/a	n/a	-1	n/a	n/a	n/a	n/a	n/a
3988.534	n/a	FFR_REC_WORD	1994267	wordpools/wasnorm_wordpool_less_exclusions.txt	LTP198	ltpFR	0	n/a	-1	PRODUCER	1129	n/a	n/a	-1	n/a	n/a	n/a	n/a	n/a
3989.862	n/a	FFR_REC_WORD	1994931	wordpools/wasnorm_wordpool_less_exclusions.txt	LTP198	ltpFR	0	n/a	-1	BANKER	84	n/a	n/a	-1	n/a	n/a	n/a	n/a	n/a
3991.238	n/a	FFR_REC_WORD	1995619	wordpools/wasnorm_wordpool_less_exclusions.txt	LTP198	ltpFR	0	n/a	-1	BANK	83	n/a	n/a	-1	n/a	n/a	n/a	n/a	n/a
3993.034	n/a	FFR_REC_WORD	1996517	wordpools/wasnorm_wordpool_less_exclusions.txt	LTP198	ltpFR	0	n/a	-1	CONSOLE	364	n/a	n/a	-1	n/a	n/a	n/a	n/a	n/a
3994.032	n/a	FFR_REC_WORD	1997016	wordpools/wasnorm_wordpool_less_exclusions.txt	LTP198	ltpFR	0	n/a	-1	COMPUTER	359	n/a	n/a	-1	n/a	n/a	n/a	n/a	n/a
3996.392	n/a	FFR_REC_WORD	1998196	wordpools/wasnorm_wordpool_less_exclusions.txt	LTP198	ltpFR	0	n/a	-1	CROW	414	n/a	n/a	-1	n/a	n/a	n/a	n/a	n/a
3997.454	n/a	FFR_REC_WORD	1998727	wordpools/wasnorm_wordpool_less_exclusions.txt	LTP198	ltpFR	0	n/a	-1	PARROT	1015	n/a	n/a	-1	n/a	n/a	n/a	n/a	n/a
4000.166	n/a	FFR_REC_WORD_VV	2000083	wordpools/wasnorm_wordpool_less_exclusions.txt	LTP198	ltpFR	0	n/a	n/a	<>	-1	n/a	n/a	n/a	n/a	n/a	n/a	n/a	n/a
4000.702	n/a	FFR_REC_WORD	2000351	wordpools/wasnorm_wordpool_less_exclusions.txt	LTP198	ltpFR	0	n/a	-1	COBRA	336	n/a	n/a	-1	n/a	n/a	n/a	n/a	n/a
4010.854	n/a	FFR_REC_WORD	2005427	wordpools/wasnorm_wordpool_less_exclusions.txt	LTP198	ltpFR	0	n/a	-1	BLUEPRINT	142	n/a	n/a	-1	n/a	n/a	n/a	n/a	n/a
4429.544	n/a	REC_START	2214772	n/a	LTP198	ltpFR	0	1	n/a	n/a	n/a	n/a	n/a	n/a	n/a	n/a	n/a	n/a	n/a
4429.576	n/a	RECOG_TARGET	2214788	n/a	LTP198	ltpFR	0	1	-1	STEAM	1375	1	5	-1	n/a	n/a	n/a	n/a	n/a
4431.35	n/a	RECOG_RESP	2215675	n/a	LTP198	ltpFR	0	1	-1	STEAM	1375	1	n/a	-1	n/a	n/a	n/a	n/a	n/a
4433.556	n/a	RECOG_CONF	2216778	n/a	LTP198	ltpFR	0	1	-1	STEAM	1375	n/a	5	-1	n/a	n/a	n/a	n/a	n/a
4436.098	n/a	RECOG_LURE	2218049	n/a	LTP198	ltpFR	0	1	n/a	TOMB	1477	0	5	n/a	n/a	n/a	n/a	n/a	n/a
4437.472	n/a	RECOG_RESP	2218736	n/a	LTP198	ltpFR	0	1	n/a	TOMB	1477	0	n/a	n/a	n/a	n/a	n/a	n/a	n/a
4440.584	n/a	RECOG_CONF	2220292	n/a	LTP198	ltpFR	0	1	n/a	TOMB	1477	n/a	5	n/a	n/a	n/a	n/a	n/a	n/a
4442.956	n/a	RECOG_LURE	2221478	n/a	LTP198	ltpFR	0	1	n/a	APPLE	33	0	5	n/a	n/a	n/a	n/a	n/a	n/a
4444.512	n/a	RECOG_RESP	2222256	n/a	LTP198	ltpFR	0	1	n/a	APPLE	33	0	n/a	n/a	n/a	n/a	n/a	n/a	n/a
4446.538	n/a	RECOG_CONF	2223269	n/a	LTP198	ltpFR	0	1	n/a	APPLE	33	n/a	5	n/a	n/a	n/a	n/a	n/a	n/a
4448.946	n/a	RECOG_TARGET	2224473	n/a	LTP198	ltpFR	0	1	0	TERMITE	1451	1	5	0	n/a	n/a	n/a	n/a	n/a
4450.35	n/a	RECOG_RESP	2225175	n/a	LTP198	ltpFR	0	1	0	TERMITE	1451	1	n/a	0	n/a	n/a	n/a	n/a	n/a
4452.642	n/a	RECOG_CONF	2226321	n/a	LTP198	ltpFR	0	1	0	TERMITE	1451	n/a	5	0	n/a	n/a	n/a	n/a	n/a
4455.104	n/a	RECOG_LURE	2227552	n/a	LTP198	ltpFR	0	1	n/a	BATHROOM	99	0	4	n/a	n/a	n/a	n/a	n/a	n/a
4455.97	n/a	RECOG_RESP	2227985	n/a	LTP198	ltpFR	0	1	n/a	BATHROOM	99	0	n/a	n/a	n/a	n/a	n/a	n/a	n/a
4457.98	n/a	RECOG_CONF	2228990	n/a	LTP198	ltpFR	0	1	n/a	BATHROOM	99	n/a	4	n/a	n/a	n/a	n/a	n/a	n/a
4460.398	n/a	RECOG_TARGET	2230199	n/a	LTP198	ltpFR	0	1	0	QUAIL	1147	1	4	1	n/a	n/a	n/a	n/a	n/a
4461.88	n/a	RECOG_RESP	2230940	n/a	LTP198	ltpFR	0	1	0	QUAIL	1147	1	n/a	1	n/a	n/a	n/a	n/a	n/a
4464.408	n/a	RECOG_CONF	2232204	n/a	LTP198	ltpFR	0	1	0	QUAIL	1147	n/a	4	1	n/a	n/a	n/a	n/a	n/a
4466.656	n/a	RECOG_LURE	2233328	n/a	LTP198	ltpFR	0	1	n/a	DIAPER	459	0	5	n/a	n/a	n/a	n/a	n/a	n/a
4468.08	n/a	RECOG_RESP	2234040	n/a	LTP198	ltpFR	0	1	n/a	DIAPER	459	0	n/a	n/a	n/a	n/a	n/a	n/a	n/a
4470.148	n/a	RECOG_CONF	2235074	n/a	LTP198	ltpFR	0	1	n/a	DIAPER	459	n/a	5	n/a	n/a	n/a	n/a	n/a	n/a
4472.346	n/a	RECOG_TARGET	2236173	n/a	LTP198	ltpFR	0	1	0	BREAST	171	1	5	1	n/a	n/a	n/a	n/a	n/a
4473.266	n/a	RECOG_RESP	2236633	n/a	LTP198	ltpFR	0	1	0	BREAST	171	1	n/a	1	n/a	n/a	n/a	n/a	n/a
4475.27	n/a	RECOG_CONF	2237635	n/a	LTP198	ltpFR	0	1	0	BREAST	171	n/a	5	1	n/a	n/a	n/a	n/a	n/a
4477.606	n/a	RECOG_TARGET	2238803	n/a	LTP198	ltpFR	0	1	0	JURY	766	1	5	1	n/a	n/a	n/a	n/a	n/a
4478.466	n/a	RECOG_RESP	2239233	n/a	LTP198	ltpFR	0	1	0	JURY	766	1	n/a	1	n/a	n/a	n/a	n/a	n/a
4480.464	n/a	RECOG_CONF	2240232	n/a	LTP198	ltpFR	0	1	0	JURY	766	n/a	5	1	n/a	n/a	n/a	n/a	n/a
4482.914	n/a	RECOG_TARGET	2241457	n/a	LTP198	ltpFR	0	1	0	ICING	732	1	5	0	n/a	n/a	n/a	n/a	n/a
4484.064	n/a	RECOG_RESP	2242032	n/a	LTP198	ltpFR	0	1	0	ICING	732	1	n/a	0	n/a	n/a	n/a	n/a	n/a
4486.176	n/a	RECOG_CONF	2243088	n/a	LTP198	ltpFR	0	1	0	ICING	732	n/a	5	0	n/a	n/a	n/a	n/a	n/a
4488.49	n/a	RECOG_TARGET	2244245	n/a	LTP198	ltpFR	0	1	1	BANQUET	86	0	2	0	n/a	n/a	n/a	n/a	n/a
4489.918	n/a	RECOG_RESP	2244959	n/a	LTP198	ltpFR	0	1	1	BANQUET	86	0	n/a	0	n/a	n/a	n/a	n/a	n/a
4492.008	n/a	RECOG_CONF	2246004	n/a	LTP198	ltpFR	0	1	1	BANQUET	86	n/a	2	0	n/a	n/a	n/a	n/a	n/a
4494.43	n/a	RECOG_LURE	2247215	n/a	LTP198	ltpFR	0	1	n/a	RACKET	1155	0	2	n/a	n/a	n/a	n/a	n/a	n/a
4495.774	n/a	RECOG_RESP	2247887	n/a	LTP198	ltpFR	0	1	n/a	RACKET	1155	0	n/a	n/a	n/a	n/a	n/a	n/a	n/a
4497.9	n/a	RECOG_CONF	2248950	n/a	LTP198	ltpFR	0	1	n/a	RACKET	1155	n/a	2	n/a	n/a	n/a	n/a	n/a	n/a
4500.354	n/a	RECOG_LURE	2250177	n/a	LTP198	ltpFR	0	1	n/a	FLUTE	585	0	4	n/a	n/a	n/a	n/a	n/a	n/a
4501.934	n/a	RECOG_RESP	2250967	n/a	LTP198	ltpFR	0	1	n/a	FLUTE	585	0	n/a	n/a	n/a	n/a	n/a	n/a	n/a
4503.894	n/a	RECOG_CONF	2251947	n/a	LTP198	ltpFR	0	1	n/a	FLUTE	585	n/a	4	n/a	n/a	n/a	n/a	n/a	n/a
4506.396	n/a	RECOG_TARGET	2253198	n/a	LTP198	ltpFR	0	1	0	SILK	1307	1	5	1	n/a	n/a	n/a	n/a	n/a
4507.724	n/a	RECOG_RESP	2253862	n/a	LTP198	ltpFR	0	1	0	SILK	1307	1	n/a	1	n/a	n/a	n/a	n/a	n/a
4509.594	n/a	RECOG_CONF	2254797	n/a	LTP198	ltpFR	0	1	0	SILK	1307	n/a	5	1	n/a	n/a	n/a	n/a	n/a
4511.688	n/a	RECOG_TARGET	2255844	n/a	LTP198	ltpFR	0	1	0	SIBLING	1301	1	5	1	n/a	n/a	n/a	n/a	n/a
4512.82	n/a	RECOG_RESP	2256410	n/a	LTP198	ltpFR	0	1	0	SIBLING	1301	1	n/a	1	n/a	n/a	n/a	n/a	n/a
4514.926	n/a	RECOG_CONF	2257463	n/a	LTP198	ltpFR	0	1	0	SIBLING	1301	n/a	5	1	n/a	n/a	n/a	n/a	n/a
4517.146	n/a	RECOG_LURE	2258573	n/a	LTP198	ltpFR	0	1	n/a	JACKET	747	0	3	n/a	n/a	n/a	n/a	n/a	n/a
4518.206	n/a	RECOG_RESP	2259103	n/a	LTP198	ltpFR	0	1	n/a	JACKET	747	0	n/a	n/a	n/a	n/a	n/a	n/a	n/a
4520.96	n/a	RECOG_CONF	2260480	n/a	LTP198	ltpFR	0	1	n/a	JACKET	747	n/a	3	n/a	n/a	n/a	n/a	n/a	n/a
4523.186	n/a	RECOG_TARGET	2261593	n/a	LTP198	ltpFR	0	1	-1	PAIL	1002	1	4	-1	n/a	n/a	n/a	n/a	n/a
4524.444	n/a	RECOG_RESP	2262222	n/a	LTP198	ltpFR	0	1	-1	PAIL	1002	1	n/a	-1	n/a	n/a	n/a	n/a	n/a
4526.48	n/a	RECOG_CONF	2263240	n/a	LTP198	ltpFR	0	1	-1	PAIL	1002	n/a	4	-1	n/a	n/a	n/a	n/a	n/a
4528.878	n/a	RECOG_TARGET	2264439	n/a	LTP198	ltpFR	0	1	0	CANDLE	229	1	4	0	n/a	n/a	n/a	n/a	n/a
4530.008	n/a	RECOG_RESP	2265004	n/a	LTP198	ltpFR	0	1	0	CANDLE	229	1	n/a	0	n/a	n/a	n/a	n/a	n/a
4531.962	n/a	RECOG_CONF	2265981	n/a	LTP198	ltpFR	0	1	0	CANDLE	229	n/a	4	0	n/a	n/a	n/a	n/a	n/a
4534.22	n/a	RECOG_TARGET	2267110	n/a	LTP198	ltpFR	0	1	0	BRIDE	173	1	5	1	n/a	n/a	n/a	n/a	n/a
4534.95	n/a	RECOG_RESP	2267475	n/a	LTP198	ltpFR	0	1	0	BRIDE	173	1	n/a	1	n/a	n/a	n/a	n/a	n/a
4536.834	n/a	RECOG_CONF	2268417	n/a	LTP198	ltpFR	0	1	0	BRIDE	173	n/a	5	1	n/a	n/a	n/a	n/a	n/a
4539.13	n/a	RECOG_TARGET	2269565	n/a	LTP198	ltpFR	0	1	1	SHELTER	1282	1	2	0	n/a	n/a	n/a	n/a	n/a
4540.83	n/a	RECOG_RESP	2270415	n/a	LTP198	ltpFR	0	1	1	SHELTER	1282	1	n/a	0	n/a	n/a	n/a	n/a	n/a
4542.838	n/a	RECOG_CONF	2271419	n/a	LTP198	ltpFR	0	1	1	SHELTER	1282	n/a	2	0	n/a	n/a	n/a	n/a	n/a
4653.938	n/a	REC_START	2326969	n/a	LTP198	ltpFR	0	2	n/a	n/a	n/a	n/a	n/a	n/a	n/a	n/a	n/a	n/a	n/a
4653.976	n/a	RECOG_LURE	2326988	n/a	LTP198	ltpFR	0	2	n/a	EAR	513	0	2	n/a	n/a	n/a	n/a	n/a	n/a
4654.972	n/a	RECOG_RESP	2327486	n/a	LTP198	ltpFR	0	2	n/a	EAR	513	0	n/a	n/a	n/a	n/a	n/a	n/a	n/a
4656.878	n/a	RECOG_CONF	2328439	n/a	LTP198	ltpFR	0	2	n/a	EAR	513	n/a	2	n/a	n/a	n/a	n/a	n/a	n/a
4658.82	n/a	RECOG_TARGET	2329410	n/a	LTP198	ltpFR	0	2	-1	KNOT	788	1	5	-1	n/a	n/a	n/a	n/a	n/a
4659.736	n/a	RECOG_RESP	2329868	n/a	LTP198	ltpFR	0	2	-1	KNOT	788	1	n/a	-1	n/a	n/a	n/a	n/a	n/a
4661.48	n/a	RECOG_CONF	2330740	n/a	LTP198	ltpFR	0	2	-1	KNOT	788	n/a	5	-1	n/a	n/a	n/a	n/a	n/a
4663.53	n/a	RECOG_TARGET	2331765	n/a	LTP198	ltpFR	0	2	1	SWIMMER	1420	1	5	1	n/a	n/a	n/a	n/a	n/a
4664.358	n/a	RECOG_RESP	2332179	n/a	LTP198	ltpFR	0	2	1	SWIMMER	1420	1	n/a	1	n/a	n/a	n/a	n/a	n/a
4666.304	n/a	RECOG_CONF	2333152	n/a	LTP198	ltpFR	0	2	1	SWIMMER	1420	n/a	5	1	n/a	n/a	n/a	n/a	n/a
4668.354	n/a	RECOG_LURE	2334177	n/a	LTP198	ltpFR	0	2	n/a	CHURCH	307	0	3	n/a	n/a	n/a	n/a	n/a	n/a
4669.248	n/a	RECOG_RESP	2334624	n/a	LTP198	ltpFR	0	2	n/a	CHURCH	307	0	n/a	n/a	n/a	n/a	n/a	n/a	n/a
4671.144	n/a	RECOG_CONF	2335572	n/a	LTP198	ltpFR	0	2	n/a	CHURCH	307	n/a	3	n/a	n/a	n/a	n/a	n/a	n/a
4673.216	n/a	RECOG_LURE	2336608	n/a	LTP198	ltpFR	0	2	n/a	POTTERY	1116	0	2	n/a	n/a	n/a	n/a	n/a	n/a
4674.238	n/a	RECOG_RESP	2337119	n/a	LTP198	ltpFR	0	2	n/a	POTTERY	1116	0	n/a	n/a	n/a	n/a	n/a	n/a	n/a
4676.038	n/a	RECOG_CONF	2338019	n/a	LTP198	ltpFR	0	2	n/a	POTTERY	1116	n/a	2	n/a	n/a	n/a	n/a	n/a	n/a
4678.008	n/a	RECOG_TARGET	2339004	n/a	LTP198	ltpFR	0	2	0	PIANO	1057	1	5	1	n/a	n/a	n/a	n/a	n/a
4679.752	n/a	RECOG_RESP	2339876	n/a	LTP198	ltpFR	0	2	0	PIANO	1057	1	n/a	1	n/a	n/a	n/a	n/a	n/a
4681.466	n/a	RECOG_CONF	2340733	n/a	LTP198	ltpFR	0	2	0	PIANO	1057	n/a	5	1	n/a	n/a	n/a	n/a	n/a
4683.484	n/a	RECOG_LURE	2341742	n/a	LTP198	ltpFR	0	2	n/a	STALLION	1369	0	4	n/a	n/a	n/a	n/a	n/a	n/a
4684.478	n/a	RECOG_RESP	2342239	n/a	LTP198	ltpFR	0	2	n/a	STALLION	1369	0	n/a	n/a	n/a	n/a	n/a	n/a	n/a
4685.956	n/a	RECOG_CONF	2342978	n/a	LTP198	ltpFR	0	2	n/a	STALLION	1369	n/a	4	n/a	n/a	n/a	n/a	n/a	n/a
4688.144	n/a	RECOG_TARGET	2344072	n/a	LTP198	ltpFR	0	2	0	VALVE	1546	1	5	0	n/a	n/a	n/a	n/a	n/a
4689.384	n/a	RECOG_RESP	2344692	n/a	LTP198	ltpFR	0	2	0	VALVE	1546	1	n/a	0	n/a	n/a	n/a	n/a	n/a
4691.268	n/a	RECOG_CONF	2345634	n/a	LTP198	ltpFR	0	2	0	VALVE	1546	n/a	5	0	n/a	n/a	n/a	n/a	n/a
4693.42	n/a	RECOG_TARGET	2346710	n/a	LTP198	ltpFR	0	2	-1	REFRIGERATOR	1179	1	5	-1	n/a	n/a	n/a	n/a	n/a
4694.322	n/a	RECOG_RESP	2347161	n/a	LTP198	ltpFR	0	2	-1	REFRIGERATOR	1179	1	n/a	-1	n/a	n/a	n/a	n/a	n/a
4696.278	n/a	RECOG_CONF	2348139	n/a	LTP198	ltpFR	0	2	-1	REFRIGERATOR	1179	n/a	5	-1	n/a	n/a	n/a	n/a	n/a
4698.478	n/a	RECOG_LURE	2349239	n/a	LTP198	ltpFR	0	2	n/a	QUARTER	1148	0	4	n/a	n/a	n/a	n/a	n/a	n/a
4699.386	n/a	RECOG_RESP	2349693	n/a	LTP198	ltpFR	0	2	n/a	QUARTER	1148	0	n/a	n/a	n/a	n/a	n/a	n/a	n/a
4701.728	n/a	RECOG_CONF	2350864	n/a	LTP198	ltpFR	0	2	n/a	QUARTER	1148	n/a	4	n/a	n/a	n/a	n/a	n/a	n/a
4703.654	n/a	RECOG_TARGET	2351827	n/a	LTP198	ltpFR	0	2	1	ANIMAL	23	1	4	1	n/a	n/a	n/a	n/a	n/a
4704.836	n/a	RECOG_RESP	2352418	n/a	LTP198	ltpFR	0	2	1	ANIMAL	23	1	n/a	1	n/a	n/a	n/a	n/a	n/a
4706.592	n/a	RECOG_CONF	2353296	n/a	LTP198	ltpFR	0	2	1	ANIMAL	23	n/a	4	1	n/a	n/a	n/a	n/a	n/a
4708.43	n/a	RECOG_TARGET	2354215	n/a	LTP198	ltpFR	0	2	1	JUNGLE	764	1	5	1	n/a	n/a	n/a	n/a	n/a
4709.246	n/a	RECOG_RESP	2354623	n/a	LTP198	ltpFR	0	2	1	JUNGLE	764	1	n/a	1	n/a	n/a	n/a	n/a	n/a
4711.064	n/a	RECOG_CONF	2355532	n/a	LTP198	ltpFR	0	2	1	JUNGLE	764	n/a	5	1	n/a	n/a	n/a	n/a	n/a
4713.39	n/a	RECOG_LURE	2356695	n/a	LTP198	ltpFR	0	2	n/a	BOY	161	0	2	n/a	n/a	n/a	n/a	n/a	n/a
4714.238	n/a	RECOG_RESP	2357119	n/a	LTP198	ltpFR	0	2	n/a	BOY	161	0	n/a	n/a	n/a	n/a	n/a	n/a	n/a
4716.074	n/a	RECOG_CONF	2358037	n/a	LTP198	ltpFR	0	2	n/a	BOY	161	n/a	2	n/a	n/a	n/a	n/a	n/a	n/a
4718.132	n/a	RECOG_TARGET	2359066	n/a	LTP198	ltpFR	0	2	0	NITROGEN	954	1	5	0	n/a	n/a	n/a	n/a	n/a
4719.122	n/a	RECOG_RESP	2359561	n/a	LTP198	ltpFR	0	2	0	NITROGEN	954	1	n/a	0	n/a	n/a	n/a	n/a	n/a
4721.062	n/a	RECOG_CONF	2360531	n/a	LTP198	ltpFR	0	2	0	NITROGEN	954	n/a	5	0	n/a	n/a	n/a	n/a	n/a
4722.958	n/a	RECOG_TARGET	2361479	n/a	LTP198	ltpFR	0	2	0	SCREWDRIVER	1255	1	5	0	n/a	n/a	n/a	n/a	n/a
4723.794	n/a	RECOG_RESP	2361897	n/a	LTP198	ltpFR	0	2	0	SCREWDRIVER	1255	1	n/a	0	n/a	n/a	n/a	n/a	n/a
4725.582	n/a	RECOG_CONF	2362791	n/a	LTP198	ltpFR	0	2	0	SCREWDRIVER	1255	n/a	5	0	n/a	n/a	n/a	n/a	n/a
4727.518	n/a	RECOG_TARGET	2363759	n/a	LTP198	ltpFR	0	2	-1	SKIRT	1319	1	5	-1	n/a	n/a	n/a	n/a	n/a
4728.404	n/a	RECOG_RESP	2364202	n/a	LTP198	ltpFR	0	2	-1	SKIRT	1319	1	n/a	-1	n/a	n/a	n/a	n/a	n/a
4729.98	n/a	RECOG_CONF	2364990	n/a	LTP198	ltpFR	0	2	-1	SKIRT	1319	n/a	5	-1	n/a	n/a	n/a	n/a	n/a
4732.028	n/a	RECOG_LURE	2366014	n/a	LTP198	ltpFR	0	2	n/a	CABIN	211	1	1	n/a	n/a	n/a	n/a	n/a	n/a
4733.894	n/a	RECOG_RESP	2366947	n/a	LTP198	ltpFR	0	2	n/a	CABIN	211	1	n/a	n/a	n/a	n/a	n/a	n/a	n/a
4735.646	n/a	RECOG_CONF	2367823	n/a	LTP198	ltpFR	0	2	n/a	CABIN	211	n/a	1	n/a	n/a	n/a	n/a	n/a	n/a
4737.754	n/a	RECOG_LURE	2368877	n/a	LTP198	ltpFR	0	2	n/a	NOMAD	955	0	5	n/a	n/a	n/a	n/a	n/a	n/a
4738.65	n/a	RECOG_RESP	2369325	n/a	LTP198	ltpFR	0	2	n/a	NOMAD	955	0	n/a	n/a	n/a	n/a	n/a	n/a	n/a
4740.138	n/a	RECOG_CONF	2370069	n/a	LTP198	ltpFR	0	2	n/a	NOMAD	955	n/a	5	n/a	n/a	n/a	n/a	n/a	n/a
4742.08	n/a	RECOG_TARGET	2371040	n/a	LTP198	ltpFR	0	2	1	MINK	897	1	4	1	n/a	n/a	n/a	n/a	n/a
4743.138	n/a	RECOG_RESP	2371569	n/a	LTP198	ltpFR	0	2	1	MINK	897	1	n/a	1	n/a	n/a	n/a	n/a	n/a
4744.698	n/a	RECOG_CONF	2372349	n/a	LTP198	ltpFR	0	2	1	MINK	897	n/a	4	1	n/a	n/a	n/a	n/a	n/a
4746.658	n/a	RECOG_TARGET	2373329	n/a	LTP198	ltpFR	0	2	1	COMMANDER	354	1	5	1	n/a	n/a	n/a	n/a	n/a
4747.428	n/a	RECOG_RESP	2373714	n/a	LTP198	ltpFR	0	2	1	COMMANDER	354	1	n/a	1	n/a	n/a	n/a	n/a	n/a
4748.894	n/a	RECOG_CONF	2374447	n/a	LTP198	ltpFR	0	2	1	COMMANDER	354	n/a	5	1	n/a	n/a	n/a	n/a	n/a
4791.092	n/a	REC_START	2395546	n/a	LTP198	ltpFR	0	3	n/a	n/a	n/a	n/a	n/a	n/a	n/a	n/a	n/a	n/a	n/a
4791.124	n/a	RECOG_TARGET	2395562	n/a	LTP198	ltpFR	0	3	1	ROOT	1210	1	5	1	n/a	n/a	n/a	n/a	n/a
4792.21	n/a	RECOG_RESP	2396105	n/a	LTP198	ltpFR	0	3	1	ROOT	1210	1	n/a	1	n/a	n/a	n/a	n/a	n/a
4794.262	n/a	RECOG_CONF	2397131	n/a	LTP198	ltpFR	0	3	1	ROOT	1210	n/a	5	1	n/a	n/a	n/a	n/a	n/a
4796.0	n/a	RECOG_LURE	2398000	n/a	LTP198	ltpFR	0	3	n/a	CHIMNEY	301	0	3	n/a	n/a	n/a	n/a	n/a	n/a
4796.804	n/a	RECOG_RESP	2398402	n/a	LTP198	ltpFR	0	3	n/a	CHIMNEY	301	0	n/a	n/a	n/a	n/a	n/a	n/a	n/a
4798.53	n/a	RECOG_CONF	2399265	n/a	LTP198	ltpFR	0	3	n/a	CHIMNEY	301	n/a	3	n/a	n/a	n/a	n/a	n/a	n/a
4800.36	n/a	RECOG_TARGET	2400180	n/a	LTP198	ltpFR	0	3	1	SOCIETY	1338	1	4	1	n/a	n/a	n/a	n/a	n/a
4801.366	n/a	RECOG_RESP	2400683	n/a	LTP198	ltpFR	0	3	1	SOCIETY	1338	1	n/a	1	n/a	n/a	n/a	n/a	n/a
4803.164	n/a	RECOG_CONF	2401582	n/a	LTP198	ltpFR	0	3	1	SOCIETY	1338	n/a	4	1	n/a	n/a	n/a	n/a	n/a
4804.77	n/a	RECOG_TARGET	2402385	n/a	LTP198	ltpFR	0	3	1	DINNER	468	0	3	0	n/a	n/a	n/a	n/a	n/a
4805.664	n/a	RECOG_RESP	2402832	n/a	LTP198	ltpFR	0	3	1	DINNER	468	0	n/a	0	n/a	n/a	n/a	n/a	n/a
4807.354	n/a	RECOG_CONF	2403677	n/a	LTP198	ltpFR	0	3	1	DINNER	468	n/a	3	0	n/a	n/a	n/a	n/a	n/a
4809.246	n/a	RECOG_LURE	2404623	n/a	LTP198	ltpFR	0	3	n/a	MAJOR	859	0	3	n/a	n/a	n/a	n/a	n/a	n/a
4810.774	n/a	RECOG_RESP	2405387	n/a	LTP198	ltpFR	0	3	n/a	MAJOR	859	0	n/a	n/a	n/a	n/a	n/a	n/a	n/a
4812.41	n/a	RECOG_CONF	2406205	n/a	LTP198	ltpFR	0	3	n/a	MAJOR	859	n/a	3	n/a	n/a	n/a	n/a	n/a	n/a
4814.574	n/a	RECOG_TARGET	2407287	n/a	LTP198	ltpFR	0	3	1	FUDGE	611	1	5	0	n/a	n/a	n/a	n/a	n/a
4815.352	n/a	RECOG_RESP	2407676	n/a	LTP198	ltpFR	0	3	1	FUDGE	611	1	n/a	0	n/a	n/a	n/a	n/a	n/a
4816.718	n/a	RECOG_CONF	2408359	n/a	LTP198	ltpFR	0	3	1	FUDGE	611	n/a	5	0	n/a	n/a	n/a	n/a	n/a
4818.634	n/a	RECOG_TARGET	2409317	n/a	LTP198	ltpFR	0	3	1	TRACTOR	1493	1	5	0	n/a	n/a	n/a	n/a	n/a
4819.304	n/a	RECOG_RESP	2409652	n/a	LTP198	ltpFR	0	3	1	TRACTOR	1493	1	n/a	0	n/a	n/a	n/a	n/a	n/a
4820.912	n/a	RECOG_CONF	2410456	n/a	LTP198	ltpFR	0	3	1	TRACTOR	1493	n/a	5	0	n/a	n/a	n/a	n/a	n/a
4822.862	n/a	RECOG_LURE	2411431	n/a	LTP198	ltpFR	0	3	n/a	MICROWAVE	892	0	1	n/a	n/a	n/a	n/a	n/a	n/a
4823.924	n/a	RECOG_RESP	2411962	n/a	LTP198	ltpFR	0	3	n/a	MICROWAVE	892	0	n/a	n/a	n/a	n/a	n/a	n/a	n/a
4825.404	n/a	RECOG_CONF	2412702	n/a	LTP198	ltpFR	0	3	n/a	MICROWAVE	892	n/a	1	n/a	n/a	n/a	n/a	n/a	n/a
4827.388	n/a	RECOG_LURE	2413694	n/a	LTP198	ltpFR	0	3	n/a	AIRPLANE	12	0	4	n/a	n/a	n/a	n/a	n/a	n/a
4828.45	n/a	RECOG_RESP	2414225	n/a	LTP198	ltpFR	0	3	n/a	AIRPLANE	12	0	n/a	n/a	n/a	n/a	n/a	n/a	n/a
4830.108	n/a	RECOG_CONF	2415054	n/a	LTP198	ltpFR	0	3	n/a	AIRPLANE	12	n/a	4	n/a	n/a	n/a	n/a	n/a	n/a
4832.114	n/a	RECOG_TARGET	2416057	n/a	LTP198	ltpFR	0	3	1	TENT	1449	1	5	0	n/a	n/a	n/a	n/a	n/a
4832.814	n/a	RECOG_RESP	2416407	n/a	LTP198	ltpFR	0	3	1	TENT	1449	1	n/a	0	n/a	n/a	n/a	n/a	n/a
4834.614	n/a	RECOG_CONF	2417307	n/a	LTP198	ltpFR	0	3	1	TENT	1449	n/a	5	0	n/a	n/a	n/a	n/a	n/a
4836.708	n/a	RECOG_TARGET	2418354	n/a	LTP198	ltpFR	0	3	0	WALLET	1583	1	5	0	n/a	n/a	n/a	n/a	n/a
