onset	duration	trial_type	sample	stim_file	subject	experiment	session	trial	task	item_name	item_num	recog_conf	resp	answer	test_x	test_y	test_z	color_b	color_g	color_r	case	font
255.81	n/a	SESS_START	127905	n/a	LTP090	ltpFR	11	n/a	n/a	n/a	n/a	4	n/a	n/a	0	0	0	n/a	n/a	n/a	n/a	n/a
284.762	n/a	START	142381	n/a	LTP090	ltpFR	11	n/a	n/a	n/a	n/a	n/a	n/a	n/a	n/a	n/a	n/a	n/a	n/a	n/a	n/a	n/a
284.788	n/a	PROB	142394	n/a	LTP090	ltpFR	11	n/a	n/a	n/a	n/a	n/a	n/a	24	8	7	9	n/a	n/a	n/a	n/a	n/a
288.248	n/a	PROB	144124	n/a	LTP090	ltpFR	11	n/a	n/a	n/a	n/a	n/a	n/a	17	7	2	8	n/a	n/a	n/a	n/a	n/a
290.28	n/a	PROB	145140	n/a	LTP090	ltpFR	11	n/a	n/a	n/a	n/a	n/a	n/a	15	3	3	9	n/a	n/a	n/a	n/a	n/a
292.51	n/a	PROB	146255	n/a	LTP090	ltpFR	11	n/a	n/a	n/a	n/a	n/a	n/a	8	4	3	1	n/a	n/a	n/a	n/a	n/a
294.234	n/a	PROB	147117	n/a	LTP090	ltpFR	11	n/a	n/a	n/a	n/a	n/a	n/a	20	9	8	3	n/a	n/a	n/a	n/a	n/a
297.106	n/a	PROB	148553	n/a	LTP090	ltpFR	11	n/a	n/a	n/a	n/a	n/a	n/a	16	1	7	8	n/a	n/a	n/a	n/a	n/a
298.87	n/a	PROB	149435	n/a	LTP090	ltpFR	11	n/a	n/a	n/a	n/a	n/a	n/a	18	8	2	8	n/a	n/a	n/a	n/a	n/a
300.484	n/a	PROB	150242	n/a	LTP090	ltpFR	11	n/a	n/a	n/a	n/a	n/a	n/a	19	8	4	5	n/a	n/a	n/a	n/a	n/a
304.762	n/a	STOP	152381	n/a	LTP090	ltpFR	11	n/a	n/a	n/a	n/a	n/a	n/a	n/a	n/a	n/a	n/a	n/a	n/a	n/a	n/a	n/a
328.352	n/a	WORD	164176	wordpools/wasnorm_wordpool.txt	LTP090	ltpFR	11	1	1	TURNIP	1521	n/a	0	n/a	0	0	0	1	0.412841796875	0.57763671875	lower	../fonts/zerothre.ttf
332.272	n/a	WORD	166136	wordpools/wasnorm_wordpool.txt	LTP090	ltpFR	11	1	1	PLANT	1083	n/a	1	n/a	0	0	0	1	0.412841796875	0.57763671875	lower	../fonts/zerothre.ttf
336.226	n/a	WORD	168113	wordpools/wasnorm_wordpool.txt	LTP090	ltpFR	11	1	0	SUITCASE	1403	n/a	0	n/a	0	0	0	0	0.5869140625	0.422607421875	upper	../fonts/amplitud.ttf
340.096	n/a	WORD	170048	wordpools/wasnorm_wordpool.txt	LTP090	ltpFR	11	1	0	BACK	65	n/a	0	n/a	0	0	0	0	0.5869140625	0.422607421875	upper	../fonts/amplitud.ttf
344.002	n/a	WORD	172001	wordpools/wasnorm_wordpool.txt	LTP090	ltpFR	11	1	1	PIPE	1073	n/a	0	n/a	0	0	0	1	0.412841796875	0.57763671875	lower	../fonts/zerothre.ttf
348.196	n/a	WORD	174098	wordpools/wasnorm_wordpool.txt	LTP090	ltpFR	11	1	1	SKETCH	1315	n/a	0	n/a	0	0	0	1	0.412841796875	0.57763671875	lower	../fonts/zerothre.ttf
352.15	n/a	WORD	176075	wordpools/wasnorm_wordpool.txt	LTP090	ltpFR	11	1	0	HEDGE	699	n/a	0	n/a	0	0	0	0	0.5869140625	0.422607421875	upper	../fonts/amplitud.ttf
356.162	n/a	WORD	178081	wordpools/wasnorm_wordpool.txt	LTP090	ltpFR	11	1	0	ROSE	1212	n/a	0	n/a	0	0	0	0	0.5869140625	0.422607421875	upper	../fonts/amplitud.ttf
360.0	n/a	WORD	180000	wordpools/wasnorm_wordpool.txt	LTP090	ltpFR	11	1	0	THORN	1459	n/a	0	n/a	0	0	0	0	0.5869140625	0.422607421875	upper	../fonts/amplitud.ttf
363.846	n/a	WORD	181923	wordpools/wasnorm_wordpool.txt	LTP090	ltpFR	11	1	0	CASHIER	254	n/a	1	n/a	0	0	0	0	0.5869140625	0.422607421875	upper	../fonts/amplitud.ttf
368.0	n/a	WORD	184000	wordpools/wasnorm_wordpool.txt	LTP090	ltpFR	11	1	0	CANARY	227	n/a	0	n/a	0	0	0	0	0.5869140625	0.422607421875	upper	../fonts/amplitud.ttf
372.11	n/a	WORD	186055	wordpools/wasnorm_wordpool.txt	LTP090	ltpFR	11	1	0	KITE	779	n/a	0	n/a	0	0	0	0	0.5869140625	0.422607421875	upper	../fonts/amplitud.ttf
375.932	n/a	WORD	187966	wordpools/wasnorm_wordpool.txt	LTP090	ltpFR	11	1	1	SINK	1309	n/a	0	n/a	0	0	0	1	0.412841796875	0.57763671875	lower	../fonts/zerothre.ttf
380.118	n/a	WORD	190059	wordpools/wasnorm_wordpool.txt	LTP090	ltpFR	11	1	1	WILDERNESS	1610	n/a	1	n/a	0	0	0	1	0.412841796875	0.57763671875	lower	../fonts/zerothre.ttf
384.08	n/a	WORD	192040	wordpools/wasnorm_wordpool.txt	LTP090	ltpFR	11	1	1	MISTER	901	n/a	1	n/a	0	0	0	1	0.412841796875	0.57763671875	lower	../fonts/zerothre.ttf
388.092	n/a	WORD	194046	wordpools/wasnorm_wordpool.txt	LTP090	ltpFR	11	1	1	BANK	83	n/a	0	n/a	0	0	0	1	0.412841796875	0.57763671875	lower	../fonts/zerothre.ttf
391.096	n/a	START	195548	n/a	LTP090	ltpFR	11	n/a	n/a	n/a	n/a	n/a	n/a	n/a	n/a	n/a	n/a	n/a	n/a	n/a	n/a	n/a
392.246	n/a	PROB	196123	n/a	LTP090	ltpFR	11	n/a	n/a	n/a	n/a	n/a	n/a	17	8	1	8	n/a	n/a	n/a	n/a	n/a
396.274	n/a	PROB	198137	n/a	LTP090	ltpFR	11	n/a	n/a	n/a	n/a	n/a	n/a	11	1	7	3	n/a	n/a	n/a	n/a	n/a
398.514	n/a	STOP	199257	n/a	LTP090	ltpFR	11	n/a	n/a	n/a	n/a	n/a	n/a	n/a	n/a	n/a	n/a	n/a	n/a	n/a	n/a	n/a
400.978	n/a	REC_START	200489	n/a	LTP090	ltpFR	11	1	n/a	n/a	n/a	n/a	n/a	n/a	0	0	0	n/a	n/a	n/a	n/a	n/a
403.526	n/a	REC_WORD	201763	wordpools/wasnorm_wordpool.txt	LTP090	ltpFR	11	1	1	SINK	1309	n/a	0	n/a	0	0	0	n/a	n/a	n/a	n/a	n/a
404.804	n/a	REC_WORD	202402	wordpools/wasnorm_wordpool.txt	LTP090	ltpFR	11	1	1	WILDERNESS	1610	n/a	1	n/a	0	0	0	n/a	n/a	n/a	n/a	n/a
406.176	n/a	REC_WORD	203088	wordpools/wasnorm_wordpool.txt	LTP090	ltpFR	11	1	1	BANK	83	n/a	0	n/a	0	0	0	n/a	n/a	n/a	n/a	n/a
408.91	n/a	REC_WORD	204455	wordpools/wasnorm_wordpool.txt	LTP090	ltpFR	11	1	1	TURNIP	1521	n/a	0	n/a	0	0	0	n/a	n/a	n/a	n/a	n/a
409.864	n/a	REC_WORD	204932	wordpools/wasnorm_wordpool.txt	LTP090	ltpFR	11	1	1	PLANT	1083	n/a	1	n/a	0	0	0	n/a	n/a	n/a	n/a	n/a
411.026	n/a	REC_WORD	205513	wordpools/wasnorm_wordpool.txt	LTP090	ltpFR	11	1	0	SUITCASE	1403	n/a	0	n/a	0	0	0	n/a	n/a	n/a	n/a	n/a
412.026	n/a	REC_WORD_VV	206013	wordpools/wasnorm_wordpool.txt	LTP090	ltpFR	11	1	n/a	<>	-1	n/a	n/a	n/a	0	0	0	n/a	n/a	n/a	n/a	n/a
413.29	n/a	REC_WORD	206645	wordpools/wasnorm_wordpool.txt	LTP090	ltpFR	11	1	0	BACK	65	n/a	0	n/a	0	0	0	n/a	n/a	n/a	n/a	n/a
418.524	n/a	REC_WORD	209262	wordpools/wasnorm_wordpool.txt	LTP090	ltpFR	11	1	1	MISTER	901	n/a	1	n/a	0	0	0	n/a	n/a	n/a	n/a	n/a
419.796	n/a	REC_WORD	209898	wordpools/wasnorm_wordpool.txt	LTP090	ltpFR	11	1	0	CANARY	227	n/a	0	n/a	0	0	0	n/a	n/a	n/a	n/a	n/a
426.35	n/a	REC_WORD	213175	wordpools/wasnorm_wordpool.txt	LTP090	ltpFR	11	1	0	CASHIER	254	n/a	1	n/a	0	0	0	n/a	n/a	n/a	n/a	n/a
427.548	n/a	REC_WORD	213774	wordpools/wasnorm_wordpool.txt	LTP090	ltpFR	11	1	0	KITE	779	n/a	0	n/a	0	0	0	n/a	n/a	n/a	n/a	n/a
446.526	n/a	REC_WORD_VV	223263	wordpools/wasnorm_wordpool.txt	LTP090	ltpFR	11	1	n/a	<>	-1	n/a	n/a	n/a	0	0	0	n/a	n/a	n/a	n/a	n/a
467.818	n/a	REC_WORD	233909	wordpools/wasnorm_wordpool.txt	LTP090	ltpFR	11	1	1	PIPE	1073	n/a	0	n/a	0	0	0	n/a	n/a	n/a	n/a	n/a
485.148	n/a	START	242574	n/a	LTP090	ltpFR	11	n/a	n/a	n/a	n/a	n/a	n/a	n/a	n/a	n/a	n/a	n/a	n/a	n/a	n/a	n/a
486.654	n/a	PROB	243327	n/a	LTP090	ltpFR	11	n/a	n/a	n/a	n/a	n/a	n/a	18	3	9	6	n/a	n/a	n/a	n/a	n/a
488.794	n/a	PROB	244397	n/a	LTP090	ltpFR	11	n/a	n/a	n/a	n/a	n/a	n/a	12	6	2	4	n/a	n/a	n/a	n/a	n/a
491.198	n/a	PROB	245599	n/a	LTP090	ltpFR	11	n/a	n/a	n/a	n/a	n/a	n/a	10	7	2	1	n/a	n/a	n/a	n/a	n/a
492.916	n/a	STOP	246458	n/a	LTP090	ltpFR	11	n/a	n/a	n/a	n/a	n/a	n/a	n/a	n/a	n/a	n/a	n/a	n/a	n/a	n/a	n/a
494.094	n/a	WORD	247047	wordpools/wasnorm_wordpool.txt	LTP090	ltpFR	11	2	0	SHARK	1275	n/a	1	n/a	0	0	0	0	0.5869140625	0.422607421875	upper	../fonts/amplitud.ttf
497.1	n/a	START	248550	n/a	LTP090	ltpFR	11	n/a	n/a	n/a	n/a	n/a	n/a	n/a	n/a	n/a	n/a	n/a	n/a	n/a	n/a	n/a
498.182	n/a	PROB	249091	n/a	LTP090	ltpFR	11	n/a	n/a	n/a	n/a	n/a	n/a	16	8	2	6	n/a	n/a	n/a	n/a	n/a
499.756	n/a	PROB	249878	n/a	LTP090	ltpFR	11	n/a	n/a	n/a	n/a	n/a	n/a	18	9	4	5	n/a	n/a	n/a	n/a	n/a
501.72	n/a	PROB	250860	n/a	LTP090	ltpFR	11	n/a	n/a	n/a	n/a	n/a	n/a	12	3	3	6	n/a	n/a	n/a	n/a	n/a
503.442	n/a	PROB	251721	n/a	LTP090	ltpFR	11	n/a	n/a	n/a	n/a	n/a	n/a	15	6	4	1	n/a	n/a	n/a	n/a	n/a
504.676	n/a	STOP	252338	n/a	LTP090	ltpFR	11	n/a	n/a	n/a	n/a	n/a	n/a	n/a	n/a	n/a	n/a	n/a	n/a	n/a	n/a	n/a
506.206	n/a	WORD	253103	wordpools/wasnorm_wordpool.txt	LTP090	ltpFR	11	2	0	ROOSTER	1209	n/a	0	n/a	0	0	0	0	0.5869140625	0.422607421875	upper	../fonts/amplitud.ttf
509.212	n/a	START	254606	n/a	LTP090	ltpFR	11	n/a	n/a	n/a	n/a	n/a	n/a	n/a	n/a	n/a	n/a	n/a	n/a	n/a	n/a	n/a
510.41	n/a	PROB	255205	n/a	LTP090	ltpFR	11	n/a	n/a	n/a	n/a	n/a	n/a	17	7	4	6	n/a	n/a	n/a	n/a	n/a
512.342	n/a	PROB	256171	n/a	LTP090	ltpFR	11	n/a	n/a	n/a	n/a	n/a	n/a	12	2	5	5	n/a	n/a	n/a	n/a	n/a
513.65	n/a	PROB	256825	n/a	LTP090	ltpFR	11	n/a	n/a	n/a	n/a	n/a	n/a	19	5	8	6	n/a	n/a	n/a	n/a	n/a
516.974	n/a	STOP	258487	n/a	LTP090	ltpFR	11	n/a	n/a	n/a	n/a	n/a	n/a	n/a	n/a	n/a	n/a	n/a	n/a	n/a	n/a	n/a
518.192	n/a	WORD	259096	wordpools/wasnorm_wordpool.txt	LTP090	ltpFR	11	2	1	SUPPER	1411	n/a	0	n/a	0	0	0	1	0.412841796875	0.57763671875	lower	../fonts/zerothre.ttf
521.198	n/a	START	260599	n/a	LTP090	ltpFR	11	n/a	n/a	n/a	n/a	n/a	n/a	n/a	n/a	n/a	n/a	n/a	n/a	n/a	n/a	n/a
522.246	n/a	PROB	261123	n/a	LTP090	ltpFR	11	n/a	n/a	n/a	n/a	n/a	n/a	20	2	9	9	n/a	n/a	n/a	n/a	n/a
524.878	n/a	PROB	262439	n/a	LTP090	ltpFR	11	n/a	n/a	n/a	n/a	n/a	n/a	13	8	1	4	n/a	n/a	n/a	n/a	n/a
529.198	n/a	STOP	264599	n/a	LTP090	ltpFR	11	n/a	n/a	n/a	n/a	n/a	n/a	n/a	n/a	n/a	n/a	n/a	n/a	n/a	n/a	n/a
530.12	n/a	WORD	265060	wordpools/wasnorm_wordpool.txt	LTP090	ltpFR	11	2	1	REFRIGERATOR	1179	n/a	0	n/a	0	0	0	1	0.412841796875	0.57763671875	lower	../fonts/zerothre.ttf
533.126	n/a	START	266563	n/a	LTP090	ltpFR	11	n/a	n/a	n/a	n/a	n/a	n/a	n/a	n/a	n/a	n/a	n/a	n/a	n/a	n/a	n/a
534.166	n/a	PROB	267083	n/a	LTP090	ltpFR	11	n/a	n/a	n/a	n/a	n/a	n/a	8	2	1	5	n/a	n/a	n/a	n/a	n/a
537.17	n/a	PROB	268585	n/a	LTP090	ltpFR	11	n/a	n/a	n/a	n/a	n/a	n/a	15	5	7	3	n/a	n/a	n/a	n/a	n/a
538.952	n/a	PROB	269476	n/a	LTP090	ltpFR	11	n/a	n/a	n/a	n/a	n/a	n/a	15	3	4	8	n/a	n/a	n/a	n/a	n/a
540.998	n/a	STOP	270499	n/a	LTP090	ltpFR	11	n/a	n/a	n/a	n/a	n/a	n/a	n/a	n/a	n/a	n/a	n/a	n/a	n/a	n/a	n/a
541.992	n/a	WORD	270996	wordpools/wasnorm_wordpool.txt	LTP090	ltpFR	11	2	1	PAD	998	n/a	0	n/a	0	0	0	1	0.412841796875	0.57763671875	lower	../fonts/zerothre.ttf
544.996	n/a	START	272498	n/a	LTP090	ltpFR	11	n/a	n/a	n/a	n/a	n/a	n/a	n/a	n/a	n/a	n/a	n/a	n/a	n/a	n/a	n/a
545.97	n/a	PROB	272985	n/a	LTP090	ltpFR	11	n/a	n/a	n/a	n/a	n/a	n/a	8	1	3	5	n/a	n/a	n/a	n/a	n/a
547.434	n/a	PROB	273717	n/a	LTP090	ltpFR	11	n/a	n/a	n/a	n/a	n/a	n/a	13	9	3	1	n/a	n/a	n/a	n/a	n/a
549.448	n/a	PROB	274724	n/a	LTP090	ltpFR	11	n/a	n/a	n/a	n/a	n/a	n/a	26	8	9	9	n/a	n/a	n/a	n/a	n/a
551.902	n/a	STOP	275951	n/a	LTP090	ltpFR	11	n/a	n/a	n/a	n/a	n/a	n/a	n/a	n/a	n/a	n/a	n/a	n/a	n/a	n/a	n/a
554.134	n/a	WORD	277067	wordpools/wasnorm_wordpool.txt	LTP090	ltpFR	11	2	1	CARTON	251	n/a	0	n/a	0	0	0	1	0.412841796875	0.57763671875	lower	../fonts/zerothre.ttf
557.14	n/a	START	278570	n/a	LTP090	ltpFR	11	n/a	n/a	n/a	n/a	n/a	n/a	n/a	n/a	n/a	n/a	n/a	n/a	n/a	n/a	n/a
558.096	n/a	PROB	279048	n/a	LTP090	ltpFR	11	n/a	n/a	n/a	n/a	n/a	n/a	13	7	2	4	n/a	n/a	n/a	n/a	n/a
560.144	n/a	PROB	280072	n/a	LTP090	ltpFR	11	n/a	n/a	n/a	n/a	n/a	n/a	24	9	7	8	n/a	n/a	n/a	n/a	n/a
565.14	n/a	STOP	282570	n/a	LTP090	ltpFR	11	n/a	n/a	n/a	n/a	n/a	n/a	n/a	n/a	n/a	n/a	n/a	n/a	n/a	n/a	n/a
565.964	n/a	WORD	282982	wordpools/wasnorm_wordpool.txt	LTP090	ltpFR	11	2	1	WARDROBE	1587	n/a	0	n/a	0	0	0	1	0.412841796875	0.57763671875	lower	../fonts/zerothre.ttf
568.968	n/a	START	284484	n/a	LTP090	ltpFR	11	n/a	n/a	n/a	n/a	n/a	n/a	n/a	n/a	n/a	n/a	n/a	n/a	n/a	n/a	n/a
570.14	n/a	PROB	285070	n/a	LTP090	ltpFR	11	n/a	n/a	n/a	n/a	n/a	n/a	19	9	5	5	n/a	n/a	n/a	n/a	n/a
571.53	n/a	PROB	285765	n/a	LTP090	ltpFR	11	n/a	n/a	n/a	n/a	n/a	n/a	18	8	4	6	n/a	n/a	n/a	n/a	n/a
573.32	n/a	PROB	286660	n/a	LTP090	ltpFR	11	n/a	n/a	n/a	n/a	n/a	n/a	11	7	3	1	n/a	n/a	n/a	n/a	n/a
576.968	n/a	STOP	288484	n/a	LTP090	ltpFR	11	n/a	n/a	n/a	n/a	n/a	n/a	n/a	n/a	n/a	n/a	n/a	n/a	n/a	n/a	n/a
577.842	n/a	WORD	288921	wordpools/wasnorm_wordpool.txt	LTP090	ltpFR	11	2	0	BAIT	70	n/a	0	n/a	0	0	0	0	0.5869140625	0.422607421875	upper	../fonts/amplitud.ttf
580.846	n/a	START	290423	n/a	LTP090	ltpFR	11	n/a	n/a	n/a	n/a	n/a	n/a	n/a	n/a	n/a	n/a	n/a	n/a	n/a	n/a	n/a
581.744	n/a	PROB	290872	n/a	LTP090	ltpFR	11	n/a	n/a	n/a	n/a	n/a	n/a	4	1	1	2	n/a	n/a	n/a	n/a	n/a
584.018	n/a	PROB	292009	n/a	LTP090	ltpFR	11	n/a	n/a	n/a	n/a	n/a	n/a	17	3	5	9	n/a	n/a	n/a	n/a	n/a
588.848	n/a	STOP	294424	n/a	LTP090	ltpFR	11	n/a	n/a	n/a	n/a	n/a	n/a	n/a	n/a	n/a	n/a	n/a	n/a	n/a	n/a	n/a
589.92	n/a	WORD	294960	wordpools/wasnorm_wordpool.txt	LTP090	ltpFR	11	2	0	CAPTAIN	239	n/a	1	n/a	0	0	0	0	0.5869140625	0.422607421875	upper	../fonts/amplitud.ttf
592.926	n/a	START	296463	n/a	LTP090	ltpFR	11	n/a	n/a	n/a	n/a	n/a	n/a	n/a	n/a	n/a	n/a	n/a	n/a	n/a	n/a	n/a
593.898	n/a	PROB	296949	n/a	LTP090	ltpFR	11	n/a	n/a	n/a	n/a	n/a	n/a	12	2	7	3	n/a	n/a	n/a	n/a	n/a
595.52	n/a	PROB	297760	n/a	LTP090	ltpFR	11	n/a	n/a	n/a	n/a	n/a	n/a	16	6	8	2	n/a	n/a	n/a	n/a	n/a
597.67	n/a	PROB	298835	n/a	LTP090	ltpFR	11	n/a	n/a	n/a	n/a	n/a	n/a	13	2	8	3	n/a	n/a	n/a	n/a	n/a
599.324	n/a	PROB	299662	n/a	LTP090	ltpFR	11	n/a	n/a	n/a	n/a	n/a	n/a	9	1	7	1	n/a	n/a	n/a	n/a	n/a
600.71	n/a	STOP	300355	n/a	LTP090	ltpFR	11	n/a	n/a	n/a	n/a	n/a	n/a	n/a	n/a	n/a	n/a	n/a	n/a	n/a	n/a	n/a
602.022	n/a	WORD	301011	wordpools/wasnorm_wordpool.txt	LTP090	ltpFR	11	2	0	LUGGAGE	847	n/a	1	n/a	0	0	0	0	0.5869140625	0.422607421875	upper	../fonts/amplitud.ttf
605.028	n/a	START	302514	n/a	LTP090	ltpFR	11	n/a	n/a	n/a	n/a	n/a	n/a	n/a	n/a	n/a	n/a	n/a	n/a	n/a	n/a	n/a
606.142	n/a	PROB	303071	n/a	LTP090	ltpFR	11	n/a	n/a	n/a	n/a	n/a	n/a	23	9	8	7	n/a	n/a	n/a	n/a	n/a
609.322	n/a	PROB	304661	n/a	LTP090	ltpFR	11	n/a	n/a	n/a	n/a	n/a	n/a	12	4	4	6	n/a	n/a	n/a	n/a	n/a
611.774	n/a	STOP	305887	n/a	LTP090	ltpFR	11	n/a	n/a	n/a	n/a	n/a	n/a	n/a	n/a	n/a	n/a	n/a	n/a	n/a	n/a	n/a
614.14	n/a	WORD	307070	wordpools/wasnorm_wordpool.txt	LTP090	ltpFR	11	2	0	GRILL	661	n/a	n/a	n/a	0	0	0	0	0.5869140625	0.422607421875	upper	../fonts/amplitud.ttf
617.162	n/a	SLOW_MSG	308581	n/a	LTP090	ltpFR	11	2	n/a	n/a	n/a	n/a	n/a	n/a	0	0	0	n/a	n/a	n/a	n/a	n/a
618.678	n/a	START	309339	n/a	LTP090	ltpFR	11	n/a	n/a	n/a	n/a	n/a	n/a	n/a	n/a	n/a	n/a	n/a	n/a	n/a	n/a	n/a
619.668	n/a	PROB	309834	n/a	LTP090	ltpFR	11	n/a	n/a	n/a	n/a	n/a	n/a	9	3	3	3	n/a	n/a	n/a	n/a	n/a
622.264	n/a	PROB	311132	n/a	LTP090	ltpFR	11	n/a	n/a	n/a	n/a	n/a	n/a	20	9	8	3	n/a	n/a	n/a	n/a	n/a
626.678	n/a	STOP	313339	n/a	LTP090	ltpFR	11	n/a	n/a	n/a	n/a	n/a	n/a	n/a	n/a	n/a	n/a	n/a	n/a	n/a	n/a	n/a
627.858	n/a	WORD	313929	wordpools/wasnorm_wordpool.txt	LTP090	ltpFR	11	2	0	POLICE	1098	n/a	1	n/a	0	0	0	0	0.5869140625	0.422607421875	upper	../fonts/amplitud.ttf
630.864	n/a	START	315432	n/a	LTP090	ltpFR	11	n/a	n/a	n/a	n/a	n/a	n/a	n/a	n/a	n/a	n/a	n/a	n/a	n/a	n/a	n/a
631.954	n/a	PROB	315977	n/a	LTP090	ltpFR	11	n/a	n/a	n/a	n/a	n/a	n/a	17	7	1	9	n/a	n/a	n/a	n/a	n/a
635.108	n/a	PROB	317554	n/a	LTP090	ltpFR	11	n/a	n/a	n/a	n/a	n/a	n/a	13	6	5	2	n/a	n/a	n/a	n/a	n/a
638.864	n/a	STOP	319432	n/a	LTP090	ltpFR	11	n/a	n/a	n/a	n/a	n/a	n/a	n/a	n/a	n/a	n/a	n/a	n/a	n/a	n/a	n/a
639.836	n/a	WORD	319918	wordpools/wasnorm_wordpool.txt	LTP090	ltpFR	11	2	0	THERMOMETER	1453	n/a	0	n/a	0	0	0	0	0.5869140625	0.422607421875	upper	../fonts/amplitud.ttf
642.842	n/a	START	321421	n/a	LTP090	ltpFR	11	n/a	n/a	n/a	n/a	n/a	n/a	n/a	n/a	n/a	n/a	n/a	n/a	n/a	n/a	n/a
643.874	n/a	PROB	321937	n/a	LTP090	ltpFR	11	n/a	n/a	n/a	n/a	n/a	n/a	12	6	1	5	n/a	n/a	n/a	n/a	n/a
646.204	n/a	PROB	323102	n/a	LTP090	ltpFR	11	n/a	n/a	n/a	n/a	n/a	n/a	23	9	6	8	n/a	n/a	n/a	n/a	n/a
650.086	n/a	STOP	325043	n/a	LTP090	ltpFR	11	n/a	n/a	n/a	n/a	n/a	n/a	n/a	n/a	n/a	n/a	n/a	n/a	n/a	n/a	n/a
652.046	n/a	WORD	326023	wordpools/wasnorm_wordpool.txt	LTP090	ltpFR	11	2	1	PICKLE	1059	n/a	0	n/a	0	0	0	1	0.412841796875	0.57763671875	lower	../fonts/zerothre.ttf
655.052	n/a	START	327526	n/a	LTP090	ltpFR	11	n/a	n/a	n/a	n/a	n/a	n/a	n/a	n/a	n/a	n/a	n/a	n/a	n/a	n/a	n/a
655.992	n/a	PROB	327996	n/a	LTP090	ltpFR	11	n/a	n/a	n/a	n/a	n/a	n/a	21	7	8	6	n/a	n/a	n/a	n/a	n/a
659.906	n/a	PROB	329953	n/a	LTP090	ltpFR	11	n/a	n/a	n/a	n/a	n/a	n/a	13	9	1	3	n/a	n/a	n/a	n/a	n/a
661.518	n/a	STOP	330759	n/a	LTP090	ltpFR	11	n/a	n/a	n/a	n/a	n/a	n/a	n/a	n/a	n/a	n/a	n/a	n/a	n/a	n/a	n/a
663.984	n/a	WORD	331992	wordpools/wasnorm_wordpool.txt	LTP090	ltpFR	11	2	1	FUNGUS	614	n/a	0	n/a	0	0	0	1	0.412841796875	0.57763671875	lower	../fonts/zerothre.ttf
666.99	n/a	START	333495	n/a	LTP090	ltpFR	11	n/a	n/a	n/a	n/a	n/a	n/a	n/a	n/a	n/a	n/a	n/a	n/a	n/a	n/a	n/a
667.888	n/a	PROB	333944	n/a	LTP090	ltpFR	11	n/a	n/a	n/a	n/a	n/a	n/a	6	1	4	1	n/a	n/a	n/a	n/a	n/a
670.06	n/a	PROB	335030	n/a	LTP090	ltpFR	11	n/a	n/a	n/a	n/a	n/a	n/a	20	5	6	9	n/a	n/a	n/a	n/a	n/a
672.398	n/a	PROB	336199	n/a	LTP090	ltpFR	11	n/a	n/a	n/a	n/a	n/a	n/a	17	3	9	5	n/a	n/a	n/a	n/a	n/a
674.824	n/a	STOP	337412	n/a	LTP090	ltpFR	11	n/a	n/a	n/a	n/a	n/a	n/a	n/a	n/a	n/a	n/a	n/a	n/a	n/a	n/a	n/a
676.136	n/a	WORD	338068	wordpools/wasnorm_wordpool.txt	LTP090	ltpFR	11	2	1	NEST	945	n/a	1	n/a	0	0	0	1	0.412841796875	0.57763671875	lower	../fonts/zerothre.ttf
679.142	n/a	START	339571	n/a	LTP090	ltpFR	11	n/a	n/a	n/a	n/a	n/a	n/a	n/a	n/a	n/a	n/a	n/a	n/a	n/a	n/a	n/a
680.182	n/a	PROB	340091	n/a	LTP090	ltpFR	11	n/a	n/a	n/a	n/a	n/a	n/a	18	9	7	2	n/a	n/a	n/a	n/a	n/a
682.13	n/a	PROB	341065	n/a	LTP090	ltpFR	11	n/a	n/a	n/a	n/a	n/a	n/a	19	4	8	7	n/a	n/a	n/a	n/a	n/a
687.142	n/a	STOP	343571	n/a	LTP090	ltpFR	11	n/a	n/a	n/a	n/a	n/a	n/a	n/a	n/a	n/a	n/a	n/a	n/a	n/a	n/a	n/a
688.914	n/a	REC_START	344457	n/a	LTP090	ltpFR	11	2	n/a	n/a	n/a	n/a	n/a	n/a	0	0	0	n/a	n/a	n/a	n/a	n/a
691.578	n/a	REC_WORD	345789	wordpools/wasnorm_wordpool.txt	LTP090	ltpFR	11	2	1	FUNGUS	614	n/a	0	n/a	0	0	0	n/a	n/a	n/a	n/a	n/a
692.578	n/a	REC_WORD_VV	346289	wordpools/wasnorm_wordpool.txt	LTP090	ltpFR	11	2	n/a	<>	-1	n/a	n/a	n/a	0	0	0	n/a	n/a	n/a	n/a	n/a
693.07	n/a	REC_WORD	346535	wordpools/wasnorm_wordpool.txt	LTP090	ltpFR	11	2	1	NEST	945	n/a	1	n/a	0	0	0	n/a	n/a	n/a	n/a	n/a
694.07	n/a	REC_WORD_VV	347035	wordpools/wasnorm_wordpool.txt	LTP090	ltpFR	11	2	n/a	<>	-1	n/a	n/a	n/a	0	0	0	n/a	n/a	n/a	n/a	n/a
697.4	n/a	REC_WORD	348700	wordpools/wasnorm_wordpool.txt	LTP090	ltpFR	11	2	1	REFRIGERATOR	1179	n/a	0	n/a	0	0	0	n/a	n/a	n/a	n/a	n/a
698.4	n/a	REC_WORD_VV	349200	wordpools/wasnorm_wordpool.txt	LTP090	ltpFR	11	2	n/a	<>	-1	n/a	n/a	n/a	0	0	0	n/a	n/a	n/a	n/a	n/a
703.102	n/a	REC_WORD	351551	wordpools/wasnorm_wordpool.txt	LTP090	ltpFR	11	2	0	POLICE	1098	n/a	1	n/a	0	0	0	n/a	n/a	n/a	n/a	n/a
704.102	n/a	REC_WORD_VV	352051	wordpools/wasnorm_wordpool.txt	LTP090	ltpFR	11	2	n/a	<>	-1	n/a	n/a	n/a	0	0	0	n/a	n/a	n/a	n/a	n/a
704.818	n/a	REC_WORD	352409	wordpools/wasnorm_wordpool.txt	LTP090	ltpFR	11	2	0	CAPTAIN	239	n/a	1	n/a	0	0	0	n/a	n/a	n/a	n/a	n/a
706.658	n/a	REC_WORD	353329	wordpools/wasnorm_wordpool.txt	LTP090	ltpFR	11	2	0	LUGGAGE	847	n/a	1	n/a	0	0	0	n/a	n/a	n/a	n/a	n/a
786.676	n/a	WORD	393338	wordpools/wasnorm_wordpool.txt	LTP090	ltpFR	11	3	1	PARSLEY	1016	n/a	0	n/a	0	0	0	1	0.412841796875	0.57763671875	lower	../fonts/zerothre.ttf
790.588	n/a	WORD	395294	wordpools/wasnorm_wordpool.txt	LTP090	ltpFR	11	3	1	HERB	704	n/a	0	n/a	0	0	0	1	0.412841796875	0.57763671875	lower	../fonts/zerothre.ttf
794.574	n/a	WORD	397287	wordpools/wasnorm_wordpool.txt	LTP090	ltpFR	11	3	1	DAISY	435	n/a	0	n/a	0	0	0	1	0.412841796875	0.57763671875	lower	../fonts/zerothre.ttf
798.73	n/a	WORD	399365	wordpools/wasnorm_wordpool.txt	LTP090	ltpFR	11	3	1	PLANE	1081	n/a	1	n/a	0	0	0	1	0.412841796875	0.57763671875	lower	../fonts/zerothre.ttf
802.79	n/a	WORD	401395	wordpools/wasnorm_wordpool.txt	LTP090	ltpFR	11	3	1	CLAW	319	n/a	1	n/a	0	0	0	1	0.412841796875	0.57763671875	lower	../fonts/zerothre.ttf
806.82	n/a	WORD	403410	wordpools/wasnorm_wordpool.txt	LTP090	ltpFR	11	3	1	BLANKET	135	n/a	0	n/a	0	0	0	1	0.412841796875	0.57763671875	lower	../fonts/zerothre.ttf
810.682	n/a	WORD	405341	wordpools/wasnorm_wordpool.txt	LTP090	ltpFR	11	3	1	SEED	1266	n/a	1	n/a	0	0	0	1	0.412841796875	0.57763671875	lower	../fonts/zerothre.ttf
814.66	n/a	WORD	407330	wordpools/wasnorm_wordpool.txt	LTP090	ltpFR	11	3	1	FLY	586	n/a	1	n/a	0	0	0	1	0.412841796875	0.57763671875	lower	../fonts/zerothre.ttf
818.864	n/a	WORD	409432	wordpools/wasnorm_wordpool.txt	LTP090	ltpFR	11	3	1	COAT	333	n/a	0	n/a	0	0	0	1	0.412841796875	0.57763671875	lower	../fonts/zerothre.ttf
822.96	n/a	WORD	411480	wordpools/wasnorm_wordpool.txt	LTP090	ltpFR	11	3	1	PHYSICIAN	1056	n/a	1	n/a	0	0	0	1	0.412841796875	0.57763671875	lower	../fonts/zerothre.ttf
826.956	n/a	WORD	413478	wordpools/wasnorm_wordpool.txt	LTP090	ltpFR	11	3	1	DOCTOR	478	n/a	1	n/a	0	0	0	1	0.412841796875	0.57763671875	lower	../fonts/zerothre.ttf
830.91	n/a	WORD	415455	wordpools/wasnorm_wordpool.txt	LTP090	ltpFR	11	3	1	ROOF	1205	n/a	0	n/a	0	0	0	1	0.412841796875	0.57763671875	lower	../fonts/zerothre.ttf
835.03	n/a	WORD	417515	wordpools/wasnorm_wordpool.txt	LTP090	ltpFR	11	3	1	COTTAGE	384	n/a	0	n/a	0	0	0	1	0.412841796875	0.57763671875	lower	../fonts/zerothre.ttf
839.232	n/a	WORD	419616	wordpools/wasnorm_wordpool.txt	LTP090	ltpFR	11	3	1	ELK	526	n/a	0	n/a	0	0	0	1	0.412841796875	0.57763671875	lower	../fonts/zerothre.ttf
843.228	n/a	WORD	421614	wordpools/wasnorm_wordpool.txt	LTP090	ltpFR	11	3	1	OX	994	n/a	1	n/a	0	0	0	1	0.412841796875	0.57763671875	lower	../fonts/zerothre.ttf
847.09	n/a	WORD	423545	wordpools/wasnorm_wordpool.txt	LTP090	ltpFR	11	3	1	SLIME	1327	n/a	0	n/a	0	0	0	1	0.412841796875	0.57763671875	lower	../fonts/zerothre.ttf
853.042	n/a	REC_START	426521	n/a	LTP090	ltpFR	11	3	n/a	n/a	n/a	n/a	n/a	n/a	0	0	0	n/a	n/a	n/a	n/a	n/a
854.064	n/a	REC_WORD	427032	wordpools/wasnorm_wordpool.txt	LTP090	ltpFR	11	3	1	SLIME	1327	n/a	0	n/a	0	0	0	n/a	n/a	n/a	n/a	n/a
855.796	n/a	REC_WORD	427898	wordpools/wasnorm_wordpool.txt	LTP090	ltpFR	11	3	1	ELK	526	n/a	0	n/a	0	0	0	n/a	n/a	n/a	n/a	n/a
857.976	n/a	REC_WORD	428988	wordpools/wasnorm_wordpool.txt	LTP090	ltpFR	11	3	1	OX	994	n/a	1	n/a	0	0	0	n/a	n/a	n/a	n/a	n/a
862.67	n/a	REC_WORD	431335	wordpools/wasnorm_wordpool.txt	LTP090	ltpFR	11	3	1	PARSLEY	1016	n/a	0	n/a	0	0	0	n/a	n/a	n/a	n/a	n/a
863.928	n/a	REC_WORD	431964	wordpools/wasnorm_wordpool.txt	LTP090	ltpFR	11	3	1	HERB	704	n/a	0	n/a	0	0	0	n/a	n/a	n/a	n/a	n/a
869.026	n/a	REC_WORD	434513	wordpools/wasnorm_wordpool.txt	LTP090	ltpFR	11	3	1	DAISY	435	n/a	0	n/a	0	0	0	n/a	n/a	n/a	n/a	n/a
870.628	n/a	REC_WORD	435314	wordpools/wasnorm_wordpool.txt	LTP090	ltpFR	11	3	1	CLAW	319	n/a	1	n/a	0	0	0	n/a	n/a	n/a	n/a	n/a
874.594	n/a	REC_WORD	437297	wordpools/wasnorm_wordpool.txt	LTP090	ltpFR	11	3	1	SEED	1266	n/a	1	n/a	0	0	0	n/a	n/a	n/a	n/a	n/a
880.126	n/a	REC_WORD	440063	wordpools/wasnorm_wordpool.txt	LTP090	ltpFR	11	3	1	BLANKET	135	n/a	0	n/a	0	0	0	n/a	n/a	n/a	n/a	n/a
881.408	n/a	REC_WORD	440704	wordpools/wasnorm_wordpool.txt	LTP090	ltpFR	11	3	1	COAT	333	n/a	0	n/a	0	0	0	n/a	n/a	n/a	n/a	n/a
885.982	n/a	REC_WORD	442991	wordpools/wasnorm_wordpool.txt	LTP090	ltpFR	11	3	1	PHYSICIAN	1056	n/a	1	n/a	0	0	0	n/a	n/a	n/a	n/a	n/a
887.39	n/a	REC_WORD	443695	wordpools/wasnorm_wordpool.txt	LTP090	ltpFR	11	3	1	DOCTOR	478	n/a	1	n/a	0	0	0	n/a	n/a	n/a	n/a	n/a
944.012	n/a	WORD	472006	wordpools/wasnorm_wordpool.txt	LTP090	ltpFR	11	4	1	PERSONNEL	1053	n/a	1	n/a	0	0	0	1	0.412841796875	0.57763671875	lower	../fonts/zerothre.ttf
948.182	n/a	WORD	474091	wordpools/wasnorm_wordpool.txt	LTP090	ltpFR	11	4	1	RIB	1188	n/a	0	n/a	0	0	0	1	0.412841796875	0.57763671875	lower	../fonts/zerothre.ttf
952.276	n/a	WORD	476138	wordpools/wasnorm_wordpool.txt	LTP090	ltpFR	11	4	1	MANSION	864	n/a	0	n/a	0	0	0	1	0.412841796875	0.57763671875	lower	../fonts/zerothre.ttf
956.422	n/a	WORD	478211	wordpools/wasnorm_wordpool.txt	LTP090	ltpFR	11	4	1	APRON	35	n/a	0	n/a	0	0	0	1	0.412841796875	0.57763671875	lower	../fonts/zerothre.ttf
960.25	n/a	WORD	480125	wordpools/wasnorm_wordpool.txt	LTP090	ltpFR	11	4	1	INSECT	740	n/a	1	n/a	0	0	0	1	0.412841796875	0.57763671875	lower	../fonts/zerothre.ttf
964.13	n/a	WORD	482065	wordpools/wasnorm_wordpool.txt	LTP090	ltpFR	11	4	1	ANT	25	n/a	1	n/a	0	0	0	1	0.412841796875	0.57763671875	lower	../fonts/zerothre.ttf
967.96	n/a	WORD	483980	wordpools/wasnorm_wordpool.txt	LTP090	ltpFR	11	4	1	BISON	131	n/a	1	n/a	0	0	0	1	0.412841796875	0.57763671875	lower	../fonts/zerothre.ttf
971.814	n/a	WORD	485907	wordpools/wasnorm_wordpool.txt	LTP090	ltpFR	11	4	1	SCIENTIST	1249	n/a	1	n/a	0	0	0	1	0.412841796875	0.57763671875	lower	../fonts/zerothre.ttf
975.9	n/a	WORD	487950	wordpools/wasnorm_wordpool.txt	LTP090	ltpFR	11	4	1	MARKER	870	n/a	0	n/a	0	0	0	1	0.412841796875	0.57763671875	lower	../fonts/zerothre.ttf
979.93	n/a	WORD	489965	wordpools/wasnorm_wordpool.txt	LTP090	ltpFR	11	4	1	HOME	712	n/a	1	n/a	0	0	0	1	0.412841796875	0.57763671875	lower	../fonts/zerothre.ttf
983.842	n/a	WORD	491921	wordpools/wasnorm_wordpool.txt	LTP090	ltpFR	11	4	1	MAP	865	n/a	0	n/a	0	0	0	1	0.412841796875	0.57763671875	lower	../fonts/zerothre.ttf
987.688	n/a	WORD	493844	wordpools/wasnorm_wordpool.txt	LTP090	ltpFR	11	4	1	ROAD	1196	n/a	0	n/a	0	0	0	1	0.412841796875	0.57763671875	lower	../fonts/zerothre.ttf
991.608	n/a	WORD	495804	wordpools/wasnorm_wordpool.txt	LTP090	ltpFR	11	4	1	FREEZER	604	n/a	0	n/a	0	0	0	1	0.412841796875	0.57763671875	lower	../fonts/zerothre.ttf
995.636	n/a	WORD	497818	wordpools/wasnorm_wordpool.txt	LTP090	ltpFR	11	4	1	SKATE	1313	n/a	0	n/a	0	0	0	1	0.412841796875	0.57763671875	lower	../fonts/zerothre.ttf
999.54	n/a	WORD	499770	wordpools/wasnorm_wordpool.txt	LTP090	ltpFR	11	4	1	DESSERT	453	n/a	0	n/a	0	0	0	1	0.412841796875	0.57763671875	lower	../fonts/zerothre.ttf
1003.652	n/a	WORD	501826	wordpools/wasnorm_wordpool.txt	LTP090	ltpFR	11	4	1	GANGSTER	620	n/a	1	n/a	0	0	0	1	0.412841796875	0.57763671875	lower	../fonts/zerothre.ttf
1006.658	n/a	START	503329	n/a	LTP090	ltpFR	11	n/a	n/a	n/a	n/a	n/a	n/a	n/a	n/a	n/a	n/a	n/a	n/a	n/a	n/a	n/a
1007.53	n/a	PROB	503765	n/a	LTP090	ltpFR	11	n/a	n/a	n/a	n/a	n/a	n/a	13	4	7	2	n/a	n/a	n/a	n/a	n/a
1010.368	n/a	PROB	505184	n/a	LTP090	ltpFR	11	n/a	n/a	n/a	n/a	n/a	n/a	16	1	7	8	n/a	n/a	n/a	n/a	n/a
1011.96	n/a	PROB	505980	n/a	LTP090	ltpFR	11	n/a	n/a	n/a	n/a	n/a	n/a	14	4	4	5	n/a	n/a	n/a	n/a	n/a
1014.098	n/a	PROB	507049	n/a	LTP090	ltpFR	11	n/a	n/a	n/a	n/a	n/a	n/a	20	8	5	7	n/a	n/a	n/a	n/a	n/a
1017.268	n/a	PROB	508634	n/a	LTP090	ltpFR	11	n/a	n/a	n/a	n/a	n/a	n/a	13	5	3	5	n/a	n/a	n/a	n/a	n/a
1018.784	n/a	PROB	509392	n/a	LTP090	ltpFR	11	n/a	n/a	n/a	n/a	n/a	n/a	15	5	3	7	n/a	n/a	n/a	n/a	n/a
1022.658	n/a	STOP	511329	n/a	LTP090	ltpFR	11	n/a	n/a	n/a	n/a	n/a	n/a	n/a	n/a	n/a	n/a	n/a	n/a	n/a	n/a	n/a
1024.51	n/a	REC_START	512255	n/a	LTP090	ltpFR	11	4	n/a	n/a	n/a	n/a	n/a	n/a	0	0	0	n/a	n/a	n/a	n/a	n/a
1036.378	n/a	REC_WORD	518189	wordpools/wasnorm_wordpool.txt	LTP090	ltpFR	11	4	1	PERSONNEL	1053	n/a	1	n/a	0	0	0	n/a	n/a	n/a	n/a	n/a
1038.14	n/a	REC_WORD	519070	wordpools/wasnorm_wordpool.txt	LTP090	ltpFR	11	4	1	RIB	1188	n/a	0	n/a	0	0	0	n/a	n/a	n/a	n/a	n/a
1041.646	n/a	REC_WORD	520823	wordpools/wasnorm_wordpool.txt	LTP090	ltpFR	11	4	1	MANSION	864	n/a	0	n/a	0	0	0	n/a	n/a	n/a	n/a	n/a
1043.188	n/a	REC_WORD	521594	wordpools/wasnorm_wordpool.txt	LTP090	ltpFR	11	4	1	HOME	712	n/a	1	n/a	0	0	0	n/a	n/a	n/a	n/a	n/a
1044.754	n/a	REC_WORD	522377	wordpools/wasnorm_wordpool.txt	LTP090	ltpFR	11	4	1	APRON	35	n/a	0	n/a	0	0	0	n/a	n/a	n/a	n/a	n/a
1049.394	n/a	REC_WORD	524697	wordpools/wasnorm_wordpool.txt	LTP090	ltpFR	11	4	1	INSECT	740	n/a	1	n/a	0	0	0	n/a	n/a	n/a	n/a	n/a
1050.8	n/a	REC_WORD	525400	wordpools/wasnorm_wordpool.txt	LTP090	ltpFR	11	4	1	ANT	25	n/a	1	n/a	0	0	0	n/a	n/a	n/a	n/a	n/a
1054.772	n/a	REC_WORD	527386	wordpools/wasnorm_wordpool.txt	LTP090	ltpFR	11	4	1	DESSERT	453	n/a	0	n/a	0	0	0	n/a	n/a	n/a	n/a	n/a
1057.736	n/a	REC_WORD	528868	wordpools/wasnorm_wordpool.txt	LTP090	ltpFR	11	4	1	MAP	865	n/a	0	n/a	0	0	0	n/a	n/a	n/a	n/a	n/a
1058.914	n/a	REC_WORD	529457	wordpools/wasnorm_wordpool.txt	LTP090	ltpFR	11	4	1	ROAD	1196	n/a	0	n/a	0	0	0	n/a	n/a	n/a	n/a	n/a
1060.524	n/a	REC_WORD	530262	wordpools/wasnorm_wordpool.txt	LTP090	ltpFR	11	4	1	GANGSTER	620	n/a	1	n/a	0	0	0	n/a	n/a	n/a	n/a	n/a
1062.406	n/a	REC_WORD	531203	wordpools/wasnorm_wordpool.txt	LTP090	ltpFR	11	4	1	SCIENTIST	1249	n/a	1	n/a	0	0	0	n/a	n/a	n/a	n/a	n/a
1063.406	n/a	REC_WORD_VV	531703	wordpools/wasnorm_wordpool.txt	LTP090	ltpFR	11	4	n/a	<>	-1	n/a	n/a	n/a	0	0	0	n/a	n/a	n/a	n/a	n/a
1101.822	n/a	START	550911	n/a	LTP090	ltpFR	11	n/a	n/a	n/a	n/a	n/a	n/a	n/a	n/a	n/a	n/a	n/a	n/a	n/a	n/a	n/a
1103.328	n/a	PROB	551664	n/a	LTP090	ltpFR	11	n/a	n/a	n/a	n/a	n/a	n/a	14	1	8	5	n/a	n/a	n/a	n/a	n/a
1105.86	n/a	PROB	552930	n/a	LTP090	ltpFR	11	n/a	n/a	n/a	n/a	n/a	n/a	13	6	4	3	n/a	n/a	n/a	n/a	n/a
1109.822	n/a	STOP	554911	n/a	LTP090	ltpFR	11	n/a	n/a	n/a	n/a	n/a	n/a	n/a	n/a	n/a	n/a	n/a	n/a	n/a	n/a	n/a
1110.928	n/a	WORD	555464	wordpools/wasnorm_wordpool.txt	LTP090	ltpFR	11	5	0	SUGAR	1401	n/a	0	n/a	0	0	0	0	0.5869140625	0.422607421875	upper	../fonts/amplitud.ttf
1113.934	n/a	START	556967	n/a	LTP090	ltpFR	11	n/a	n/a	n/a	n/a	n/a	n/a	n/a	n/a	n/a	n/a	n/a	n/a	n/a	n/a	n/a
1114.824	n/a	PROB	557412	n/a	LTP090	ltpFR	11	n/a	n/a	n/a	n/a	n/a	n/a	15	3	5	7	n/a	n/a	n/a	n/a	n/a
1116.996	n/a	PROB	558498	n/a	LTP090	ltpFR	11	n/a	n/a	n/a	n/a	n/a	n/a	14	1	4	9	n/a	n/a	n/a	n/a	n/a
1118.86	n/a	PROB	559430	n/a	LTP090	ltpFR	11	n/a	n/a	n/a	n/a	n/a	n/a	11	3	3	5	n/a	n/a	n/a	n/a	n/a
1121.044	n/a	STOP	560522	n/a	LTP090	ltpFR	11	n/a	n/a	n/a	n/a	n/a	n/a	n/a	n/a	n/a	n/a	n/a	n/a	n/a	n/a	n/a
1123.056	n/a	WORD	561528	wordpools/wasnorm_wordpool.txt	LTP090	ltpFR	11	5	0	TROUT	1511	n/a	0	n/a	0	0	0	0	0.5869140625	0.422607421875	upper	../fonts/amplitud.ttf
1126.06	n/a	START	563030	n/a	LTP090	ltpFR	11	n/a	n/a	n/a	n/a	n/a	n/a	n/a	n/a	n/a	n/a	n/a	n/a	n/a	n/a	n/a
1127.184	n/a	PROB	563592	n/a	LTP090	ltpFR	11	n/a	n/a	n/a	n/a	n/a	n/a	9	1	5	3	n/a	n/a	n/a	n/a	n/a
1128.94	n/a	PROB	564470	n/a	LTP090	ltpFR	11	n/a	n/a	n/a	n/a	n/a	n/a	17	4	9	4	n/a	n/a	n/a	n/a	n/a
1130.814	n/a	PROB	565407	n/a	LTP090	ltpFR	11	n/a	n/a	n/a	n/a	n/a	n/a	12	7	3	2	n/a	n/a	n/a	n/a	n/a
1134.062	n/a	STOP	567031	n/a	LTP090	ltpFR	11	n/a	n/a	n/a	n/a	n/a	n/a	n/a	n/a	n/a	n/a	n/a	n/a	n/a	n/a	n/a
1135.168	n/a	WORD	567584	wordpools/wasnorm_wordpool.txt	LTP090	ltpFR	11	5	0	FIN	566	n/a	0	n/a	0	0	0	0	0.5869140625	0.422607421875	upper	../fonts/amplitud.ttf
1138.172	n/a	START	569086	n/a	LTP090	ltpFR	11	n/a	n/a	n/a	n/a	n/a	n/a	n/a	n/a	n/a	n/a	n/a	n/a	n/a	n/a	n/a
1139.062	n/a	PROB	569531	n/a	LTP090	ltpFR	11	n/a	n/a	n/a	n/a	n/a	n/a	8	3	3	2	n/a	n/a	n/a	n/a	n/a
1141.902	n/a	PROB	570951	n/a	LTP090	ltpFR	11	n/a	n/a	n/a	n/a	n/a	n/a	18	7	9	2	n/a	n/a	n/a	n/a	n/a
1144.702	n/a	STOP	572351	n/a	LTP090	ltpFR	11	n/a	n/a	n/a	n/a	n/a	n/a	n/a	n/a	n/a	n/a	n/a	n/a	n/a	n/a	n/a
1147.228	n/a	WORD	573614	wordpools/wasnorm_wordpool.txt	LTP090	ltpFR	11	5	1	KID	775	n/a	1	n/a	0	0	0	1	0.412841796875	0.57763671875	lower	../fonts/zerothre.ttf
1150.234	n/a	START	575117	n/a	LTP090	ltpFR	11	n/a	n/a	n/a	n/a	n/a	n/a	n/a	n/a	n/a	n/a	n/a	n/a	n/a	n/a	n/a
1151.248	n/a	PROB	575624	n/a	LTP090	ltpFR	11	n/a	n/a	n/a	n/a	n/a	n/a	18	8	7	3	n/a	n/a	n/a	n/a	n/a
1152.74	n/a	PROB	576370	n/a	LTP090	ltpFR	11	n/a	n/a	n/a	n/a	n/a	n/a	11	1	5	7	n/a	n/a	n/a	n/a	n/a
1154.194	n/a	PROB	577097	n/a	LTP090	ltpFR	11	n/a	n/a	n/a	n/a	n/a	n/a	15	3	5	7	n/a	n/a	n/a	n/a	n/a
1158.234	n/a	STOP	579117	n/a	LTP090	ltpFR	11	n/a	n/a	n/a	n/a	n/a	n/a	n/a	n/a	n/a	n/a	n/a	n/a	n/a	n/a	n/a
1159.248	n/a	WORD	579624	wordpools/wasnorm_wordpool.txt	LTP090	ltpFR	11	5	1	NUT	965	n/a	0	n/a	0	0	0	1	0.412841796875	0.57763671875	lower	../fonts/zerothre.ttf
1162.252	n/a	START	581126	n/a	LTP090	ltpFR	11	n/a	n/a	n/a	n/a	n/a	n/a	n/a	n/a	n/a	n/a	n/a	n/a	n/a	n/a	n/a
1163.326	n/a	PROB	581663	n/a	LTP090	ltpFR	11	n/a	n/a	n/a	n/a	n/a	n/a	18	8	9	1	n/a	n/a	n/a	n/a	n/a
1165.456	n/a	PROB	582728	n/a	LTP090	ltpFR	11	n/a	n/a	n/a	n/a	n/a	n/a	17	8	4	5	n/a	n/a	n/a	n/a	n/a
1169.918	n/a	STOP	584959	n/a	LTP090	ltpFR	11	n/a	n/a	n/a	n/a	n/a	n/a	n/a	n/a	n/a	n/a	n/a	n/a	n/a	n/a	n/a
1171.142	n/a	WORD	585571	wordpools/wasnorm_wordpool.txt	LTP090	ltpFR	11	5	0	COLESLAW	344	n/a	1	n/a	0	0	0	0	0.5869140625	0.422607421875	upper	../fonts/amplitud.ttf
1174.148	n/a	START	587074	n/a	LTP090	ltpFR	11	n/a	n/a	n/a	n/a	n/a	n/a	n/a	n/a	n/a	n/a	n/a	n/a	n/a	n/a	n/a
1174.964	n/a	PROB	587482	n/a	LTP090	ltpFR	11	n/a	n/a	n/a	n/a	n/a	n/a	16	7	4	5	n/a	n/a	n/a	n/a	n/a
1177.626	n/a	PROB	588813	n/a	LTP090	ltpFR	11	n/a	n/a	n/a	n/a	n/a	n/a	15	8	2	5	n/a	n/a	n/a	n/a	n/a
1179.09	n/a	PROB	589545	n/a	LTP090	ltpFR	11	n/a	n/a	n/a	n/a	n/a	n/a	18	7	2	9	n/a	n/a	n/a	n/a	n/a
1180.798	n/a	STOP	590399	n/a	LTP090	ltpFR	11	n/a	n/a	n/a	n/a	n/a	n/a	n/a	n/a	n/a	n/a	n/a	n/a	n/a	n/a	n/a
1183.02	n/a	WORD	591510	wordpools/wasnorm_wordpool.txt	LTP090	ltpFR	11	5	0	HEATER	698	n/a	0	n/a	0	0	0	0	0.5869140625	0.422607421875	upper	../fonts/amplitud.ttf
1186.026	n/a	START	593013	n/a	LTP090	ltpFR	11	n/a	n/a	n/a	n/a	n/a	n/a	n/a	n/a	n/a	n/a	n/a	n/a	n/a	n/a	n/a
1187.016	n/a	PROB	593508	n/a	LTP090	ltpFR	11	n/a	n/a	n/a	n/a	n/a	n/a	14	6	7	1	n/a	n/a	n/a	n/a	n/a
1189.696	n/a	PROB	594848	n/a	LTP090	ltpFR	11	n/a	n/a	n/a	n/a	n/a	n/a	18	5	8	5	n/a	n/a	n/a	n/a	n/a
1190.97	n/a	PROB	595485	n/a	LTP090	ltpFR	11	n/a	n/a	n/a	n/a	n/a	n/a	19	9	3	7	n/a	n/a	n/a	n/a	n/a
1192.572	n/a	STOP	596286	n/a	LTP090	ltpFR	11	n/a	n/a	n/a	n/a	n/a	n/a	n/a	n/a	n/a	n/a	n/a	n/a	n/a	n/a	n/a
1194.948	n/a	WORD	597474	wordpools/wasnorm_wordpool.txt	LTP090	ltpFR	11	5	0	VAULT	1550	n/a	1	n/a	0	0	0	0	0.5869140625	0.422607421875	upper	../fonts/amplitud.ttf
1197.954	n/a	START	598977	n/a	LTP090	ltpFR	11	n/a	n/a	n/a	n/a	n/a	n/a	n/a	n/a	n/a	n/a	n/a	n/a	n/a	n/a	n/a
1198.77	n/a	PROB	599385	n/a	LTP090	ltpFR	11	n/a	n/a	n/a	n/a	n/a	n/a	18	7	6	5	n/a	n/a	n/a	n/a	n/a
1202.38	n/a	PROB	601190	n/a	LTP090	ltpFR	11	n/a	n/a	n/a	n/a	n/a	n/a	17	7	6	4	n/a	n/a	n/a	n/a	n/a
1205.18	n/a	STOP	602590	n/a	LTP090	ltpFR	11	n/a	n/a	n/a	n/a	n/a	n/a	n/a	n/a	n/a	n/a	n/a	n/a	n/a	n/a	n/a
1207.134	n/a	WORD	603567	wordpools/wasnorm_wordpool.txt	LTP090	ltpFR	11	5	1	STOMACH	1384	n/a	0	n/a	0	0	0	1	0.412841796875	0.57763671875	lower	../fonts/zerothre.ttf
1210.138	n/a	START	605069	n/a	LTP090	ltpFR	11	n/a	n/a	n/a	n/a	n/a	n/a	n/a	n/a	n/a	n/a	n/a	n/a	n/a	n/a	n/a
1211.28	n/a	PROB	605640	n/a	LTP090	ltpFR	11	n/a	n/a	n/a	n/a	n/a	n/a	22	6	8	8	n/a	n/a	n/a	n/a	n/a
1213.612	n/a	PROB	606806	n/a	LTP090	ltpFR	11	n/a	n/a	n/a	n/a	n/a	n/a	14	3	6	5	n/a	n/a	n/a	n/a	n/a
1215.718	n/a	PROB	607859	n/a	LTP090	ltpFR	11	n/a	n/a	n/a	n/a	n/a	n/a	16	6	4	6	n/a	n/a	n/a	n/a	n/a
1217.766	n/a	STOP	608883	n/a	LTP090	ltpFR	11	n/a	n/a	n/a	n/a	n/a	n/a	n/a	n/a	n/a	n/a	n/a	n/a	n/a	n/a	n/a
1219.296	n/a	WORD	609648	wordpools/wasnorm_wordpool.txt	LTP090	ltpFR	11	5	1	PRAIRIE	1118	n/a	0	n/a	0	0	0	1	0.412841796875	0.57763671875	lower	../fonts/zerothre.ttf
1222.3	n/a	START	611150	n/a	LTP090	ltpFR	11	n/a	n/a	n/a	n/a	n/a	n/a	n/a	n/a	n/a	n/a	n/a	n/a	n/a	n/a	n/a
1223.34	n/a	PROB	611670	n/a	LTP090	ltpFR	11	n/a	n/a	n/a	n/a	n/a	n/a	14	6	4	4	n/a	n/a	n/a	n/a	n/a
1226.954	n/a	PROB	613477	n/a	LTP090	ltpFR	11	n/a	n/a	n/a	n/a	n/a	n/a	11	3	2	6	n/a	n/a	n/a	n/a	n/a
1229.566	n/a	STOP	614783	n/a	LTP090	ltpFR	11	n/a	n/a	n/a	n/a	n/a	n/a	n/a	n/a	n/a	n/a	n/a	n/a	n/a	n/a	n/a
1231.14	n/a	WORD	615570	wordpools/wasnorm_wordpool.txt	LTP090	ltpFR	11	5	1	TICK	1463	n/a	1	n/a	0	0	0	1	0.412841796875	0.57763671875	lower	../fonts/zerothre.ttf
1234.144	n/a	START	617072	n/a	LTP090	ltpFR	11	n/a	n/a	n/a	n/a	n/a	n/a	n/a	n/a	n/a	n/a	n/a	n/a	n/a	n/a	n/a
1235.226	n/a	PROB	617613	n/a	LTP090	ltpFR	11	n/a	n/a	n/a	n/a	n/a	n/a	19	5	7	6	n/a	n/a	n/a	n/a	n/a
1237.598	n/a	PROB	618799	n/a	LTP090	ltpFR	11	n/a	n/a	n/a	n/a	n/a	n/a	12	6	2	4	n/a	n/a	n/a	n/a	n/a
1240.188	n/a	PROB	620094	n/a	LTP090	ltpFR	11	n/a	n/a	n/a	n/a	n/a	n/a	6	2	2	2	n/a	n/a	n/a	n/a	n/a
1241.862	n/a	STOP	620931	n/a	LTP090	ltpFR	11	n/a	n/a	n/a	n/a	n/a	n/a	n/a	n/a	n/a	n/a	n/a	n/a	n/a	n/a	n/a
1243.142	n/a	WORD	621571	wordpools/wasnorm_wordpool.txt	LTP090	ltpFR	11	5	1	BOLT	146	n/a	0	n/a	0	0	0	1	0.412841796875	0.57763671875	lower	../fonts/zerothre.ttf
1246.148	n/a	START	623074	n/a	LTP090	ltpFR	11	n/a	n/a	n/a	n/a	n/a	n/a	n/a	n/a	n/a	n/a	n/a	n/a	n/a	n/a	n/a
1247.138	n/a	PROB	623569	n/a	LTP090	ltpFR	11	n/a	n/a	n/a	n/a	n/a	n/a	12	8	1	3	n/a	n/a	n/a	n/a	n/a
1249.584	n/a	PROB	624792	n/a	LTP090	ltpFR	11	n/a	n/a	n/a	n/a	n/a	n/a	13	2	3	8	n/a	n/a	n/a	n/a	n/a
1252.098	n/a	PROB	626049	n/a	LTP090	ltpFR	11	n/a	n/a	n/a	n/a	n/a	n/a	13	2	3	8	n/a	n/a	n/a	n/a	n/a
1253.966	n/a	STOP	626983	n/a	LTP090	ltpFR	11	n/a	n/a	n/a	n/a	n/a	n/a	n/a	n/a	n/a	n/a	n/a	n/a	n/a	n/a	n/a
1255.246	n/a	WORD	627623	wordpools/wasnorm_wordpool.txt	LTP090	ltpFR	11	5	1	SAGE	1222	n/a	1	n/a	0	0	0	1	0.412841796875	0.57763671875	lower	../fonts/zerothre.ttf
1258.25	n/a	START	629125	n/a	LTP090	ltpFR	11	n/a	n/a	n/a	n/a	n/a	n/a	n/a	n/a	n/a	n/a	n/a	n/a	n/a	n/a	n/a
1259.182	n/a	PROB	629591	n/a	LTP090	ltpFR	11	n/a	n/a	n/a	n/a	n/a	n/a	19	9	4	6	n/a	n/a	n/a	n/a	n/a
1262.014	n/a	PROB	631007	n/a	LTP090	ltpFR	11	n/a	n/a	n/a	n/a	n/a	n/a	16	3	7	6	n/a	n/a	n/a	n/a	n/a
1263.444	n/a	PROB	631722	n/a	LTP090	ltpFR	11	n/a	n/a	n/a	n/a	n/a	n/a	13	3	2	8	n/a	n/a	n/a	n/a	n/a
1264.99	n/a	STOP	632495	n/a	LTP090	ltpFR	11	n/a	n/a	n/a	n/a	n/a	n/a	n/a	n/a	n/a	n/a	n/a	n/a	n/a	n/a	n/a
1267.182	n/a	WORD	633591	wordpools/wasnorm_wordpool.txt	LTP090	ltpFR	11	5	1	COMMUNITY	356	n/a	1	n/a	0	0	0	1	0.412841796875	0.57763671875	lower	../fonts/zerothre.ttf
1270.186	n/a	START	635093	n/a	LTP090	ltpFR	11	n/a	n/a	n/a	n/a	n/a	n/a	n/a	n/a	n/a	n/a	n/a	n/a	n/a	n/a	n/a
1271.076	n/a	PROB	635538	n/a	LTP090	ltpFR	11	n/a	n/a	n/a	n/a	n/a	n/a	18	5	6	7	n/a	n/a	n/a	n/a	n/a
1273.332	n/a	PROB	636666	n/a	LTP090	ltpFR	11	n/a	n/a	n/a	n/a	n/a	n/a	19	8	8	3	n/a	n/a	n/a	n/a	n/a
1278.186	n/a	STOP	639093	n/a	LTP090	ltpFR	11	n/a	n/a	n/a	n/a	n/a	n/a	n/a	n/a	n/a	n/a	n/a	n/a	n/a	n/a	n/a
1279.334	n/a	WORD	639667	wordpools/wasnorm_wordpool.txt	LTP090	ltpFR	11	5	0	AUDIENCE	59	n/a	1	n/a	0	0	0	0	0.5869140625	0.422607421875	upper	../fonts/amplitud.ttf
1282.34	n/a	START	641170	n/a	LTP090	ltpFR	11	n/a	n/a	n/a	n/a	n/a	n/a	n/a	n/a	n/a	n/a	n/a	n/a	n/a	n/a	n/a
1283.488	n/a	PROB	641744	n/a	LTP090	ltpFR	11	n/a	n/a	n/a	n/a	n/a	n/a	13	2	4	7	n/a	n/a	n/a	n/a	n/a
1285.352	n/a	PROB	642676	n/a	LTP090	ltpFR	11	n/a	n/a	n/a	n/a	n/a	n/a	18	7	2	9	n/a	n/a	n/a	n/a	n/a
1287.174	n/a	PROB	643587	n/a	LTP090	ltpFR	11	n/a	n/a	n/a	n/a	n/a	n/a	10	3	1	6	n/a	n/a	n/a	n/a	n/a
1289.318	n/a	STOP	644659	n/a	LTP090	ltpFR	11	n/a	n/a	n/a	n/a	n/a	n/a	n/a	n/a	n/a	n/a	n/a	n/a	n/a	n/a	n/a
1291.254	n/a	WORD	645627	wordpools/wasnorm_wordpool.txt	LTP090	ltpFR	11	5	0	TWIN	1528	n/a	1	n/a	0	0	0	0	0.5869140625	0.422607421875	upper	../fonts/amplitud.ttf
1294.26	n/a	START	647130	n/a	LTP090	ltpFR	11	n/a	n/a	n/a	n/a	n/a	n/a	n/a	n/a	n/a	n/a	n/a	n/a	n/a	n/a	n/a
1295.25	n/a	PROB	647625	n/a	LTP090	ltpFR	11	n/a	n/a	n/a	n/a	n/a	n/a	15	1	7	7	n/a	n/a	n/a	n/a	n/a
1296.648	n/a	PROB	648324	n/a	LTP090	ltpFR	11	n/a	n/a	n/a	n/a	n/a	n/a	8	3	3	2	n/a	n/a	n/a	n/a	n/a
1298.238	n/a	PROB	649119	n/a	LTP090	ltpFR	11	n/a	n/a	n/a	n/a	n/a	n/a	21	8	7	6	n/a	n/a	n/a	n/a	n/a
1300.518	n/a	PROB	650259	n/a	LTP090	ltpFR	11	n/a	n/a	n/a	n/a	n/a	n/a	15	7	3	5	n/a	n/a	n/a	n/a	n/a
1301.784	n/a	STOP	650892	n/a	LTP090	ltpFR	11	n/a	n/a	n/a	n/a	n/a	n/a	n/a	n/a	n/a	n/a	n/a	n/a	n/a	n/a	n/a
1304.114	n/a	REC_START	652057	n/a	LTP090	ltpFR	11	5	n/a	n/a	n/a	n/a	n/a	n/a	0	0	0	n/a	n/a	n/a	n/a	n/a
1306.024	n/a	REC_WORD	653012	wordpools/wasnorm_wordpool.txt	LTP090	ltpFR	11	5	0	AUDIENCE	59	n/a	1	n/a	0	0	0	n/a	n/a	n/a	n/a	n/a
1307.024	n/a	REC_WORD_VV	653512	wordpools/wasnorm_wordpool.txt	LTP090	ltpFR	11	5	n/a	<>	-1	n/a	n/a	n/a	0	0	0	n/a	n/a	n/a	n/a	n/a
1307.452	n/a	REC_WORD	653726	wordpools/wasnorm_wordpool.txt	LTP090	ltpFR	11	5	1	COMMUNITY	356	n/a	1	n/a	0	0	0	n/a	n/a	n/a	n/a	n/a
1311.038	n/a	REC_WORD	655519	wordpools/wasnorm_wordpool.txt	LTP090	ltpFR	11	5	0	TROUT	1511	n/a	0	n/a	0	0	0	n/a	n/a	n/a	n/a	n/a
1312.122	n/a	REC_WORD	656061	wordpools/wasnorm_wordpool.txt	LTP090	ltpFR	11	5	0	FIN	566	n/a	0	n/a	0	0	0	n/a	n/a	n/a	n/a	n/a
1313.622	n/a	REC_WORD	656811	wordpools/wasnorm_wordpool.txt	LTP090	ltpFR	11	5	1	KID	775	n/a	1	n/a	0	0	0	n/a	n/a	n/a	n/a	n/a
1315.02	n/a	REC_WORD	657510	wordpools/wasnorm_wordpool.txt	LTP090	ltpFR	11	5	1	NUT	965	n/a	0	n/a	0	0	0	n/a	n/a	n/a	n/a	n/a
1319.948	n/a	REC_WORD	659974	wordpools/wasnorm_wordpool.txt	LTP090	ltpFR	11	5	0	VAULT	1550	n/a	1	n/a	0	0	0	n/a	n/a	n/a	n/a	n/a
1323.036	n/a	REC_WORD	661518	wordpools/wasnorm_wordpool.txt	LTP090	ltpFR	11	5	1	BOLT	146	n/a	0	n/a	0	0	0	n/a	n/a	n/a	n/a	n/a
1325.266	n/a	REC_WORD	662633	wordpools/wasnorm_wordpool.txt	LTP090	ltpFR	11	5	1	PRAIRIE	1118	n/a	0	n/a	0	0	0	n/a	n/a	n/a	n/a	n/a
1326.712	n/a	REC_WORD	663356	wordpools/wasnorm_wordpool.txt	LTP090	ltpFR	11	5	1	TICK	1463	n/a	1	n/a	0	0	0	n/a	n/a	n/a	n/a	n/a
1328.02	n/a	REC_WORD	664010	wordpools/wasnorm_wordpool.txt	LTP090	ltpFR	11	5	1	SAGE	1222	n/a	1	n/a	0	0	0	n/a	n/a	n/a	n/a	n/a
1329.02	n/a	REC_WORD_VV	664510	wordpools/wasnorm_wordpool.txt	LTP090	ltpFR	11	5	n/a	<>	-1	n/a	n/a	n/a	0	0	0	n/a	n/a	n/a	n/a	n/a
1382.932	n/a	WORD	691466	wordpools/wasnorm_wordpool.txt	LTP090	ltpFR	11	6	0	FOLLOWER	589	n/a	1	n/a	0	0	0	0	0.5869140625	0.422607421875	upper	../fonts/amplitud.ttf
1387.118	n/a	WORD	693559	wordpools/wasnorm_wordpool.txt	LTP090	ltpFR	11	6	0	BRIEFCASE	175	n/a	0	n/a	0	0	0	0	0.5869140625	0.422607421875	upper	../fonts/amplitud.ttf
1391.288	n/a	WORD	695644	wordpools/wasnorm_wordpool.txt	LTP090	ltpFR	11	6	0	VEHICLE	1553	n/a	1	n/a	0	0	0	0	0.5869140625	0.422607421875	upper	../fonts/amplitud.ttf
1395.318	n/a	WORD	697659	wordpools/wasnorm_wordpool.txt	LTP090	ltpFR	11	6	0	RAISIN	1163	n/a	0	n/a	0	0	0	0	0.5869140625	0.422607421875	upper	../fonts/amplitud.ttf
1399.422	n/a	WORD	699711	wordpools/wasnorm_wordpool.txt	LTP090	ltpFR	11	6	0	REPORT	1184	n/a	0	n/a	0	0	0	0	0.5869140625	0.422607421875	upper	../fonts/amplitud.ttf
1403.4	n/a	WORD	701700	wordpools/wasnorm_wordpool.txt	LTP090	ltpFR	11	6	0	POOL	1103	n/a	1	n/a	0	0	0	0	0.5869140625	0.422607421875	upper	../fonts/amplitud.ttf
1407.578	n/a	WORD	703789	wordpools/wasnorm_wordpool.txt	LTP090	ltpFR	11	6	0	DIVER	476	n/a	0	n/a	0	0	0	0	0.5869140625	0.422607421875	upper	../fonts/amplitud.ttf
1411.516	n/a	WORD	705758	wordpools/wasnorm_wordpool.txt	LTP090	ltpFR	11	6	0	PERCH	1048	n/a	0	n/a	0	0	0	0	0.5869140625	0.422607421875	upper	../fonts/amplitud.ttf
1415.646	n/a	WORD	707823	wordpools/wasnorm_wordpool.txt	LTP090	ltpFR	11	6	0	BATH	98	n/a	0	n/a	0	0	0	0	0.5869140625	0.422607421875	upper	../fonts/amplitud.ttf
1419.724	n/a	WORD	709862	wordpools/wasnorm_wordpool.txt	LTP090	ltpFR	11	6	0	SHORE	1291	n/a	1	n/a	0	0	0	0	0.5869140625	0.422607421875	upper	../fonts/amplitud.ttf
1423.62	n/a	WORD	711810	wordpools/wasnorm_wordpool.txt	LTP090	ltpFR	11	6	0	HURRICANE	727	n/a	1	n/a	0	0	0	0	0.5869140625	0.422607421875	upper	../fonts/amplitud.ttf
1427.698	n/a	WORD	713849	wordpools/wasnorm_wordpool.txt	LTP090	ltpFR	11	6	0	LAPEL	800	n/a	0	n/a	0	0	0	0	0.5869140625	0.422607421875	upper	../fonts/amplitud.ttf
1431.61	n/a	WORD	715805	wordpools/wasnorm_wordpool.txt	LTP090	ltpFR	11	6	0	TAXI	1438	n/a	0	n/a	0	0	0	0	0.5869140625	0.422607421875	upper	../fonts/amplitud.ttf
1435.696	n/a	WORD	717848	wordpools/wasnorm_wordpool.txt	LTP090	ltpFR	11	6	0	POLITICIAN	1099	n/a	1	n/a	0	0	0	0	0.5869140625	0.422607421875	upper	../fonts/amplitud.ttf
1439.592	n/a	WORD	719796	wordpools/wasnorm_wordpool.txt	LTP090	ltpFR	11	6	0	BALLOT	76	n/a	0	n/a	0	0	0	0	0.5869140625	0.422607421875	upper	../fonts/amplitud.ttf
1443.778	n/a	WORD	721889	wordpools/wasnorm_wordpool.txt	LTP090	ltpFR	11	6	0	SOCKET	1340	n/a	0	n/a	0	0	0	0	0.5869140625	0.422607421875	upper	../fonts/amplitud.ttf
1446.784	n/a	START	723392	n/a	LTP090	ltpFR	11	n/a	n/a	n/a	n/a	n/a	n/a	n/a	n/a	n/a	n/a	n/a	n/a	n/a	n/a	n/a
1447.592	n/a	PROB	723796	n/a	LTP090	ltpFR	11	n/a	n/a	n/a	n/a	n/a	n/a	14	6	4	4	n/a	n/a	n/a	n/a	n/a
1450.188	n/a	PROB	725094	n/a	LTP090	ltpFR	11	n/a	n/a	n/a	n/a	n/a	n/a	20	1	8	8	n/a	n/a	n/a	n/a	n/a
1454.784	n/a	STOP	727392	n/a	LTP090	ltpFR	11	n/a	n/a	n/a	n/a	n/a	n/a	n/a	n/a	n/a	n/a	n/a	n/a	n/a	n/a	n/a
1456.64	n/a	REC_START	728320	n/a	LTP090	ltpFR	11	6	n/a	n/a	n/a	n/a	n/a	n/a	0	0	0	n/a	n/a	n/a	n/a	n/a
1458.012	n/a	REC_WORD	729006	wordpools/wasnorm_wordpool.txt	LTP090	ltpFR	11	6	0	BALLOT	76	n/a	0	n/a	0	0	0	n/a	n/a	n/a	n/a	n/a
1459.04	n/a	REC_WORD_VV	729520	wordpools/wasnorm_wordpool.txt	LTP090	ltpFR	11	6	n/a	<>	-1	n/a	n/a	n/a	0	0	0	n/a	n/a	n/a	n/a	n/a
1460.86	n/a	REC_WORD	730430	wordpools/wasnorm_wordpool.txt	LTP090	ltpFR	11	6	0	POLITICIAN	1099	n/a	1	n/a	0	0	0	n/a	n/a	n/a	n/a	n/a
1464.174	n/a	REC_WORD	732087	wordpools/wasnorm_wordpool.txt	LTP090	ltpFR	11	6	0	TAXI	1438	n/a	0	n/a	0	0	0	n/a	n/a	n/a	n/a	n/a
1465.48	n/a	REC_WORD	732740	wordpools/wasnorm_wordpool.txt	LTP090	ltpFR	11	6	0	VEHICLE	1553	n/a	1	n/a	0	0	0	n/a	n/a	n/a	n/a	n/a
1467.656	n/a	REC_WORD	733828	wordpools/wasnorm_wordpool.txt	LTP090	ltpFR	11	6	0	FOLLOWER	589	n/a	1	n/a	0	0	0	n/a	n/a	n/a	n/a	n/a
1468.682	n/a	REC_WORD	734341	wordpools/wasnorm_wordpool.txt	LTP090	ltpFR	11	6	0	BRIEFCASE	175	n/a	0	n/a	0	0	0	n/a	n/a	n/a	n/a	n/a
1471.058	n/a	REC_WORD	735529	wordpools/wasnorm_wordpool.txt	LTP090	ltpFR	11	6	0	BATH	98	n/a	0	n/a	0	0	0	n/a	n/a	n/a	n/a	n/a
1472.414	n/a	REC_WORD	736207	wordpools/wasnorm_wordpool.txt	LTP090	ltpFR	11	6	0	POOL	1103	n/a	1	n/a	0	0	0	n/a	n/a	n/a	n/a	n/a
1473.656	n/a	REC_WORD	736828	wordpools/wasnorm_wordpool.txt	LTP090	ltpFR	11	6	0	SHORE	1291	n/a	1	n/a	0	0	0	n/a	n/a	n/a	n/a	n/a
1475.108	n/a	REC_WORD	737554	wordpools/wasnorm_wordpool.txt	LTP090	ltpFR	11	6	0	REPORT	1184	n/a	0	n/a	0	0	0	n/a	n/a	n/a	n/a	n/a
1477.038	n/a	REC_WORD_VV	738519	wordpools/wasnorm_wordpool.txt	LTP090	ltpFR	11	6	n/a	<>	-1	n/a	n/a	n/a	0	0	0	n/a	n/a	n/a	n/a	n/a
1477.384	n/a	REC_WORD	738692	wordpools/wasnorm_wordpool.txt	LTP090	ltpFR	11	6	0	LAPEL	800	n/a	0	n/a	0	0	0	n/a	n/a	n/a	n/a	n/a
1481.144	n/a	REC_WORD	740572	wordpools/wasnorm_wordpool.txt	LTP090	ltpFR	11	6	0	RAISIN	1163	n/a	0	n/a	0	0	0	n/a	n/a	n/a	n/a	n/a
1534.466	n/a	START	767233	n/a	LTP090	ltpFR	11	n/a	n/a	n/a	n/a	n/a	n/a	n/a	n/a	n/a	n/a	n/a	n/a	n/a	n/a	n/a
1535.974	n/a	PROB	767987	n/a	LTP090	ltpFR	11	n/a	n/a	n/a	n/a	n/a	n/a	14	5	3	6	n/a	n/a	n/a	n/a	n/a
1537.722	n/a	PROB	768861	n/a	LTP090	ltpFR	11	n/a	n/a	n/a	n/a	n/a	n/a	16	6	4	6	n/a	n/a	n/a	n/a	n/a
1539.568	n/a	PROB	769784	n/a	LTP090	ltpFR	11	n/a	n/a	n/a	n/a	n/a	n/a	17	3	7	7	n/a	n/a	n/a	n/a	n/a
1544.988	n/a	PROB	772494	n/a	LTP090	ltpFR	11	n/a	n/a	n/a	n/a	n/a	n/a	5	1	1	3	n/a	n/a	n/a	n/a	n/a
1546.836	n/a	PROB	773418	n/a	LTP090	ltpFR	11	n/a	n/a	n/a	n/a	n/a	n/a	12	2	8	2	n/a	n/a	n/a	n/a	n/a
1550.466	n/a	STOP	775233	n/a	LTP090	ltpFR	11	n/a	n/a	n/a	n/a	n/a	n/a	n/a	n/a	n/a	n/a	n/a	n/a	n/a	n/a	n/a
1551.522	n/a	WORD	775761	wordpools/wasnorm_wordpool.txt	LTP090	ltpFR	11	7	1	DAM	436	n/a	2	n/a	0	0	0	1	0.412841796875	0.57763671875	lower	../fonts/zerothre.ttf
1553.97	n/a	KEY_MSG	776985	n/a	LTP090	ltpFR	11	7	n/a	n/a	n/a	n/a	n/a	n/a	0	0	0	n/a	n/a	n/a	n/a	n/a
1555.484	n/a	START	777742	n/a	LTP090	ltpFR	11	n/a	n/a	n/a	n/a	n/a	n/a	n/a	n/a	n/a	n/a	n/a	n/a	n/a	n/a	n/a
1556.65	n/a	PROB	778325	n/a	LTP090	ltpFR	11	n/a	n/a	n/a	n/a	n/a	n/a	15	9	2	4	n/a	n/a	n/a	n/a	n/a
1560.278	n/a	PROB	780139	n/a	LTP090	ltpFR	11	n/a	n/a	n/a	n/a	n/a	n/a	20	6	6	8	n/a	n/a	n/a	n/a	n/a
1562.292	n/a	PROB	781146	n/a	LTP090	ltpFR	11	n/a	n/a	n/a	n/a	n/a	n/a	13	9	2	2	n/a	n/a	n/a	n/a	n/a
1564.264	n/a	PROB	782132	n/a	LTP090	ltpFR	11	n/a	n/a	n/a	n/a	n/a	n/a	18	8	5	5	n/a	n/a	n/a	n/a	n/a
1565.69	n/a	PROB	782845	n/a	LTP090	ltpFR	11	n/a	n/a	n/a	n/a	n/a	n/a	6	1	3	2	n/a	n/a	n/a	n/a	n/a
1567.378	n/a	PROB	783689	n/a	LTP090	ltpFR	11	n/a	n/a	n/a	n/a	n/a	n/a	15	4	8	3	n/a	n/a	n/a	n/a	n/a
1569.442	n/a	PROB	784721	n/a	LTP090	ltpFR	11	n/a	n/a	n/a	n/a	n/a	n/a	14	4	8	2	n/a	n/a	n/a	n/a	n/a
1571.01	n/a	STOP	785505	n/a	LTP090	ltpFR	11	n/a	n/a	n/a	n/a	n/a	n/a	n/a	n/a	n/a	n/a	n/a	n/a	n/a	n/a	n/a
1572.364	n/a	WORD	786182	wordpools/wasnorm_wordpool.txt	LTP090	ltpFR	11	7	1	BATHTUB	100	n/a	0	n/a	0	0	0	1	0.412841796875	0.57763671875	lower	../fonts/zerothre.ttf
1575.37	n/a	START	787685	n/a	LTP090	ltpFR	11	n/a	n/a	n/a	n/a	n/a	n/a	n/a	n/a	n/a	n/a	n/a	n/a	n/a	n/a	n/a
1576.568	n/a	PROB	788284	n/a	LTP090	ltpFR	11	n/a	n/a	n/a	n/a	n/a	n/a	13	6	4	3	n/a	n/a	n/a	n/a	n/a
1578.382	n/a	PROB	789191	n/a	LTP090	ltpFR	11	n/a	n/a	n/a	n/a	n/a	n/a	7	2	3	2	n/a	n/a	n/a	n/a	n/a
1581.038	n/a	PROB	790519	n/a	LTP090	ltpFR	11	n/a	n/a	n/a	n/a	n/a	n/a	16	7	8	1	n/a	n/a	n/a	n/a	n/a
1582.802	n/a	PROB	791401	n/a	LTP090	ltpFR	11	n/a	n/a	n/a	n/a	n/a	n/a	8	2	3	3	n/a	n/a	n/a	n/a	n/a
1584.818	n/a	PROB	792409	n/a	LTP090	ltpFR	11	n/a	n/a	n/a	n/a	n/a	n/a	16	1	7	8	n/a	n/a	n/a	n/a	n/a
1586.172	n/a	PROB	793086	n/a	LTP090	ltpFR	11	n/a	n/a	n/a	n/a	n/a	n/a	11	1	7	3	n/a	n/a	n/a	n/a	n/a
1588.57	n/a	PROB	794285	n/a	LTP090	ltpFR	11	n/a	n/a	n/a	n/a	n/a	n/a	17	8	2	7	n/a	n/a	n/a	n/a	n/a
1590.778	n/a	STOP	795389	n/a	LTP090	ltpFR	11	n/a	n/a	n/a	n/a	n/a	n/a	n/a	n/a	n/a	n/a	n/a	n/a	n/a	n/a	n/a
1592.3	n/a	WORD	796150	wordpools/wasnorm_wordpool.txt	LTP090	ltpFR	11	7	1	ORCHID	982	n/a	0	n/a	0	0	0	1	0.412841796875	0.57763671875	lower	../fonts/zerothre.ttf
1595.304	n/a	START	797652	n/a	LTP090	ltpFR	11	n/a	n/a	n/a	n/a	n/a	n/a	n/a	n/a	n/a	n/a	n/a	n/a	n/a	n/a	n/a
1596.452	n/a	PROB	798226	n/a	LTP090	ltpFR	11	n/a	n/a	n/a	n/a	n/a	n/a	11	1	6	4	n/a	n/a	n/a	n/a	n/a
1598.226	n/a	PROB	799113	n/a	LTP090	ltpFR	11	n/a	n/a	n/a	n/a	n/a	n/a	16	3	8	5	n/a	n/a	n/a	n/a	n/a
1600.782	n/a	PROB	800391	n/a	LTP090	ltpFR	11	n/a	n/a	n/a	n/a	n/a	n/a	16	9	2	5	n/a	n/a	n/a	n/a	n/a
1603.08	n/a	PROB	801540	n/a	LTP090	ltpFR	11	n/a	n/a	n/a	n/a	n/a	n/a	13	9	3	1	n/a	n/a	n/a	n/a	n/a
1604.712	n/a	PROB	802356	n/a	LTP090	ltpFR	11	n/a	n/a	n/a	n/a	n/a	n/a	7	2	4	1	n/a	n/a	n/a	n/a	n/a
1608.94	n/a	PROB	804470	n/a	LTP090	ltpFR	11	n/a	n/a	n/a	n/a	n/a	n/a	16	3	7	7	n/a	n/a	n/a	n/a	n/a
1610.62	n/a	STOP	805310	n/a	LTP090	ltpFR	11	n/a	n/a	n/a	n/a	n/a	n/a	n/a	n/a	n/a	n/a	n/a	n/a	n/a	n/a	n/a
1612.176	n/a	WORD	806088	wordpools/wasnorm_wordpool.txt	LTP090	ltpFR	11	7	1	BOUQUET	157	n/a	0	n/a	0	0	0	1	0.412841796875	0.57763671875	lower	../fonts/zerothre.ttf
1615.182	n/a	START	807591	n/a	LTP090	ltpFR	11	n/a	n/a	n/a	n/a	n/a	n/a	n/a	n/a	n/a	n/a	n/a	n/a	n/a	n/a	n/a
1616.38	n/a	PROB	808190	n/a	LTP090	ltpFR	11	n/a	n/a	n/a	n/a	n/a	n/a	17	7	7	3	n/a	n/a	n/a	n/a	n/a
1618.294	n/a	PROB	809147	n/a	LTP090	ltpFR	11	n/a	n/a	n/a	n/a	n/a	n/a	20	9	5	6	n/a	n/a	n/a	n/a	n/a
1620.834	n/a	PROB	810417	n/a	LTP090	ltpFR	11	n/a	n/a	n/a	n/a	n/a	n/a	18	3	9	6	n/a	n/a	n/a	n/a	n/a
1624.272	n/a	PROB	812136	n/a	LTP090	ltpFR	11	n/a	n/a	n/a	n/a	n/a	n/a	11	3	2	6	n/a	n/a	n/a	n/a	n/a
1626.252	n/a	PROB	813126	n/a	LTP090	ltpFR	11	n/a	n/a	n/a	n/a	n/a	n/a	13	7	2	4	n/a	n/a	n/a	n/a	n/a
1628.784	n/a	PROB	814392	n/a	LTP090	ltpFR	11	n/a	n/a	n/a	n/a	n/a	n/a	11	1	4	6	n/a	n/a	n/a	n/a	n/a
1630.716	n/a	STOP	815358	n/a	LTP090	ltpFR	11	n/a	n/a	n/a	n/a	n/a	n/a	n/a	n/a	n/a	n/a	n/a	n/a	n/a	n/a	n/a
1632.362	n/a	WORD	816181	wordpools/wasnorm_wordpool.txt	LTP090	ltpFR	11	7	0	ADULT	8	n/a	1	n/a	0	0	0	0	0.5869140625	0.422607421875	upper	../fonts/amplitud.ttf
1635.368	n/a	START	817684	n/a	LTP090	ltpFR	11	n/a	n/a	n/a	n/a	n/a	n/a	n/a	n/a	n/a	n/a	n/a	n/a	n/a	n/a	n/a
1636.524	n/a	PROB	818262	n/a	LTP090	ltpFR	11	n/a	n/a	n/a	n/a	n/a	n/a	11	7	2	2	n/a	n/a	n/a	n/a	n/a
1639.178	n/a	PROB	819589	n/a	LTP090	ltpFR	11	n/a	n/a	n/a	n/a	n/a	n/a	13	6	4	3	n/a	n/a	n/a	n/a	n/a
1640.612	n/a	PROB	820306	n/a	LTP090	ltpFR	11	n/a	n/a	n/a	n/a	n/a	n/a	21	8	5	7	n/a	n/a	n/a	n/a	n/a
1645.172	n/a	PROB	822586	n/a	LTP090	ltpFR	11	n/a	n/a	n/a	n/a	n/a	n/a	19	7	3	9	n/a	n/a	n/a	n/a	n/a
1647.72	n/a	PROB	823860	n/a	LTP090	ltpFR	11	n/a	n/a	n/a	n/a	n/a	n/a	14	4	7	3	n/a	n/a	n/a	n/a	n/a
1651.366	n/a	STOP	825683	n/a	LTP090	ltpFR	11	n/a	n/a	n/a	n/a	n/a	n/a	n/a	n/a	n/a	n/a	n/a	n/a	n/a	n/a	n/a
1652.456	n/a	WORD	826228	wordpools/wasnorm_wordpool.txt	LTP090	ltpFR	11	7	0	ROBIN	1199	n/a	0	n/a	0	0	0	0	0.5869140625	0.422607421875	upper	../fonts/amplitud.ttf
1655.46	n/a	START	827730	n/a	LTP090	ltpFR	11	n/a	n/a	n/a	n/a	n/a	n/a	n/a	n/a	n/a	n/a	n/a	n/a	n/a	n/a	n/a
1656.576	n/a	PROB	828288	n/a	LTP090	ltpFR	11	n/a	n/a	n/a	n/a	n/a	n/a	10	1	3	6	n/a	n/a	n/a	n/a	n/a
1658.398	n/a	PROB	829199	n/a	LTP090	ltpFR	11	n/a	n/a	n/a	n/a	n/a	n/a	8	2	2	4	n/a	n/a	n/a	n/a	n/a
1660.112	n/a	PROB	830056	n/a	LTP090	ltpFR	11	n/a	n/a	n/a	n/a	n/a	n/a	8	2	1	5	n/a	n/a	n/a	n/a	n/a
1662.202	n/a	PROB	831101	n/a	LTP090	ltpFR	11	n/a	n/a	n/a	n/a	n/a	n/a	8	1	1	6	n/a	n/a	n/a	n/a	n/a
1663.476	n/a	PROB	831738	n/a	LTP090	ltpFR	11	n/a	n/a	n/a	n/a	n/a	n/a	3	1	1	1	n/a	n/a	n/a	n/a	n/a
1664.642	n/a	PROB	832321	n/a	LTP090	ltpFR	11	n/a	n/a	n/a	n/a	n/a	n/a	12	6	5	2	n/a	n/a	n/a	n/a	n/a
1666.632	n/a	PROB	833316	n/a	LTP090	ltpFR	11	n/a	n/a	n/a	n/a	n/a	n/a	17	7	9	1	n/a	n/a	n/a	n/a	n/a
1670.322	n/a	STOP	835161	n/a	LTP090	ltpFR	11	n/a	n/a	n/a	n/a	n/a	n/a	n/a	n/a	n/a	n/a	n/a	n/a	n/a	n/a	n/a
1672.548	n/a	WORD	836274	wordpools/wasnorm_wordpool.txt	LTP090	ltpFR	11	7	0	FURNITURE	616	n/a	0	n/a	0	0	0	0	0.5869140625	0.422607421875	upper	../fonts/amplitud.ttf
1675.554	n/a	START	837777	n/a	LTP090	ltpFR	11	n/a	n/a	n/a	n/a	n/a	n/a	n/a	n/a	n/a	n/a	n/a	n/a	n/a	n/a	n/a
1676.736	n/a	PROB	838368	n/a	LTP090	ltpFR	11	n/a	n/a	n/a	n/a	n/a	n/a	14	9	3	2	n/a	n/a	n/a	n/a	n/a
1678.858	n/a	PROB	839429	n/a	LTP090	ltpFR	11	n/a	n/a	n/a	n/a	n/a	n/a	14	7	3	4	n/a	n/a	n/a	n/a	n/a
1680.398	n/a	PROB	840199	n/a	LTP090	ltpFR	11	n/a	n/a	n/a	n/a	n/a	n/a	13	6	3	4	n/a	n/a	n/a	n/a	n/a
1682.254	n/a	PROB	841127	n/a	LTP090	ltpFR	11	n/a	n/a	n/a	n/a	n/a	n/a	10	2	5	3	n/a	n/a	n/a	n/a	n/a
1684.17	n/a	PROB	842085	n/a	LTP090	ltpFR	11	n/a	n/a	n/a	n/a	n/a	n/a	19	1	9	9	n/a	n/a	n/a	n/a	n/a
1685.934	n/a	PROB	842967	n/a	LTP090	ltpFR	11	n/a	n/a	n/a	n/a	n/a	n/a	17	7	6	5	n/a	n/a	n/a	n/a	n/a
1689.546	n/a	PROB	844773	n/a	LTP090	ltpFR	11	n/a	n/a	n/a	n/a	n/a	n/a	4	2	1	1	n/a	n/a	n/a	n/a	n/a
1691.076	n/a	STOP	845538	n/a	LTP090	ltpFR	11	n/a	n/a	n/a	n/a	n/a	n/a	n/a	n/a	n/a	n/a	n/a	n/a	n/a	n/a	n/a
1692.368	n/a	WORD	846184	wordpools/wasnorm_wordpool.txt	LTP090	ltpFR	11	7	0	BARTENDER	92	n/a	1	n/a	0	0	0	0	0.5869140625	0.422607421875	upper	../fonts/amplitud.ttf
1695.374	n/a	START	847687	n/a	LTP090	ltpFR	11	n/a	n/a	n/a	n/a	n/a	n/a	n/a	n/a	n/a	n/a	n/a	n/a	n/a	n/a	n/a
1696.546	n/a	PROB	848273	n/a	LTP090	ltpFR	11	n/a	n/a	n/a	n/a	n/a	n/a	17	8	1	8	n/a	n/a	n/a	n/a	n/a
1698.552	n/a	PROB	849276	n/a	LTP090	ltpFR	11	n/a	n/a	n/a	n/a	n/a	n/a	23	8	9	5	n/a	n/a	n/a	n/a	n/a
1700.818	n/a	PROB	850409	n/a	LTP090	ltpFR	11	n/a	n/a	n/a	n/a	n/a	n/a	11	4	1	6	n/a	n/a	n/a	n/a	n/a
1702.406	n/a	PROB	851203	n/a	LTP090	ltpFR	11	n/a	n/a	n/a	n/a	n/a	n/a	12	8	1	3	n/a	n/a	n/a	n/a	n/a
1704.83	n/a	PROB	852415	n/a	LTP090	ltpFR	11	n/a	n/a	n/a	n/a	n/a	n/a	11	2	3	6	n/a	n/a	n/a	n/a	n/a
1708.0	n/a	PROB	854000	n/a	LTP090	ltpFR	11	n/a	n/a	n/a	n/a	n/a	n/a	20	7	8	5	n/a	n/a	n/a	n/a	n/a
1710.42	n/a	STOP	855210	n/a	LTP090	ltpFR	11	n/a	n/a	n/a	n/a	n/a	n/a	n/a	n/a	n/a	n/a	n/a	n/a	n/a	n/a	n/a
1712.278	n/a	WORD	856139	wordpools/wasnorm_wordpool.txt	LTP090	ltpFR	11	7	1	MICROSCOPE	891	n/a	0	n/a	0	0	0	1	0.412841796875	0.57763671875	lower	../fonts/zerothre.ttf
1715.284	n/a	START	857642	n/a	LTP090	ltpFR	11	n/a	n/a	n/a	n/a	n/a	n/a	n/a	n/a	n/a	n/a	n/a	n/a	n/a	n/a	n/a
1716.19	n/a	PROB	858095	n/a	LTP090	ltpFR	11	n/a	n/a	n/a	n/a	n/a	n/a	18	7	2	9	n/a	n/a	n/a	n/a	n/a
1717.864	n/a	PROB	858932	n/a	LTP090	ltpFR	11	n/a	n/a	n/a	n/a	n/a	n/a	10	4	4	2	n/a	n/a	n/a	n/a	n/a
1719.838	n/a	PROB	859919	n/a	LTP090	ltpFR	11	n/a	n/a	n/a	n/a	n/a	n/a	21	6	8	7	n/a	n/a	n/a	n/a	n/a
1723.348	n/a	PROB	861674	n/a	LTP090	ltpFR	11	n/a	n/a	n/a	n/a	n/a	n/a	16	8	4	4	n/a	n/a	n/a	n/a	n/a
1725.806	n/a	PROB	862903	n/a	LTP090	ltpFR	11	n/a	n/a	n/a	n/a	n/a	n/a	18	7	8	3	n/a	n/a	n/a	n/a	n/a
1727.186	n/a	PROB	863593	n/a	LTP090	ltpFR	11	n/a	n/a	n/a	n/a	n/a	n/a	9	3	5	1	n/a	n/a	n/a	n/a	n/a
1731.282	n/a	STOP	865641	n/a	LTP090	ltpFR	11	n/a	n/a	n/a	n/a	n/a	n/a	n/a	n/a	n/a	n/a	n/a	n/a	n/a	n/a	n/a
1732.122	n/a	WORD	866061	wordpools/wasnorm_wordpool.txt	LTP090	ltpFR	11	7	1	BERRY	122	n/a	0	n/a	0	0	0	1	0.412841796875	0.57763671875	lower	../fonts/zerothre.ttf
1735.128	n/a	START	867564	n/a	LTP090	ltpFR	11	n/a	n/a	n/a	n/a	n/a	n/a	n/a	n/a	n/a	n/a	n/a	n/a	n/a	n/a	n/a
1736.084	n/a	PROB	868042	n/a	LTP090	ltpFR	11	n/a	n/a	n/a	n/a	n/a	n/a	17	7	3	7	n/a	n/a	n/a	n/a	n/a
1739.522	n/a	PROB	869761	n/a	LTP090	ltpFR	11	n/a	n/a	n/a	n/a	n/a	n/a	17	7	6	4	n/a	n/a	n/a	n/a	n/a
1741.544	n/a	PROB	870772	n/a	LTP090	ltpFR	11	n/a	n/a	n/a	n/a	n/a	n/a	16	9	6	1	n/a	n/a	n/a	n/a	n/a
1744.258	n/a	PROB	872129	n/a	LTP090	ltpFR	11	n/a	n/a	n/a	n/a	n/a	n/a	12	6	1	5	n/a	n/a	n/a	n/a	n/a
1746.064	n/a	PROB	873032	n/a	LTP090	ltpFR	11	n/a	n/a	n/a	n/a	n/a	n/a	15	2	9	4	n/a	n/a	n/a	n/a	n/a
1747.962	n/a	PROB	873981	n/a	LTP090	ltpFR	11	n/a	n/a	n/a	n/a	n/a	n/a	19	7	5	6	n/a	n/a	n/a	n/a	n/a
1749.996	n/a	STOP	874998	n/a	LTP090	ltpFR	11	n/a	n/a	n/a	n/a	n/a	n/a	n/a	n/a	n/a	n/a	n/a	n/a	n/a	n/a	n/a
1751.966	n/a	WORD	875983	wordpools/wasnorm_wordpool.txt	LTP090	ltpFR	11	7	0	PEAR	1033	n/a	0	n/a	0	0	0	0	0.5869140625	0.422607421875	upper	../fonts/amplitud.ttf
1754.972	n/a	START	877486	n/a	LTP090	ltpFR	11	n/a	n/a	n/a	n/a	n/a	n/a	n/a	n/a	n/a	n/a	n/a	n/a	n/a	n/a	n/a
1755.796	n/a	PROB	877898	n/a	LTP090	ltpFR	11	n/a	n/a	n/a	n/a	n/a	n/a	17	5	5	7	n/a	n/a	n/a	n/a	n/a
1757.234	n/a	PROB	878617	n/a	LTP090	ltpFR	11	n/a	n/a	n/a	n/a	n/a	n/a	15	4	2	9	n/a	n/a	n/a	n/a	n/a
1759.6	n/a	PROB	879800	n/a	LTP090	ltpFR	11	n/a	n/a	n/a	n/a	n/a	n/a	13	7	3	3	n/a	n/a	n/a	n/a	n/a
1761.072	n/a	PROB	880536	n/a	LTP090	ltpFR	11	n/a	n/a	n/a	n/a	n/a	n/a	17	7	6	4	n/a	n/a	n/a	n/a	n/a
1762.664	n/a	PROB	881332	n/a	LTP090	ltpFR	11	n/a	n/a	n/a	n/a	n/a	n/a	15	6	6	3	n/a	n/a	n/a	n/a	n/a
1764.652	n/a	PROB	882326	n/a	LTP090	ltpFR	11	n/a	n/a	n/a	n/a	n/a	n/a	15	5	1	9	n/a	n/a	n/a	n/a	n/a
1766.15	n/a	PROB	883075	n/a	LTP090	ltpFR	11	n/a	n/a	n/a	n/a	n/a	n/a	21	7	5	9	n/a	n/a	n/a	n/a	n/a
1769.196	n/a	PROB	884598	n/a	LTP090	ltpFR	11	n/a	n/a	n/a	n/a	n/a	n/a	14	7	3	4	n/a	n/a	n/a	n/a	n/a
1770.702	n/a	STOP	885351	n/a	LTP090	ltpFR	11	n/a	n/a	n/a	n/a	n/a	n/a	n/a	n/a	n/a	n/a	n/a	n/a	n/a	n/a	n/a
1771.86	n/a	WORD	885930	wordpools/wasnorm_wordpool.txt	LTP090	ltpFR	11	7	0	PENGUIN	1044	n/a	0	n/a	0	0	0	0	0.5869140625	0.422607421875	upper	../fonts/amplitud.ttf
1774.866	n/a	START	887433	n/a	LTP090	ltpFR	11	n/a	n/a	n/a	n/a	n/a	n/a	n/a	n/a	n/a	n/a	n/a	n/a	n/a	n/a	n/a
1775.724	n/a	PROB	887862	n/a	LTP090	ltpFR	11	n/a	n/a	n/a	n/a	n/a	n/a	18	5	5	8	n/a	n/a	n/a	n/a	n/a
1777.762	n/a	PROB	888881	n/a	LTP090	ltpFR	11	n/a	n/a	n/a	n/a	n/a	n/a	17	6	7	4	n/a	n/a	n/a	n/a	n/a
1779.276	n/a	PROB	889638	n/a	LTP090	ltpFR	11	n/a	n/a	n/a	n/a	n/a	n/a	14	4	6	4	n/a	n/a	n/a	n/a	n/a
1780.934	n/a	PROB	890467	n/a	LTP090	ltpFR	11	n/a	n/a	n/a	n/a	n/a	n/a	18	3	6	9	n/a	n/a	n/a	n/a	n/a
1783.856	n/a	PROB	891928	n/a	LTP090	ltpFR	11	n/a	n/a	n/a	n/a	n/a	n/a	22	9	8	5	n/a	n/a	n/a	n/a	n/a
1786.184	n/a	PROB	893092	n/a	LTP090	ltpFR	11	n/a	n/a	n/a	n/a	n/a	n/a	24	8	8	8	n/a	n/a	n/a	n/a	n/a
1788.2	n/a	PROB	894100	n/a	LTP090	ltpFR	11	n/a	n/a	n/a	n/a	n/a	n/a	15	1	7	7	n/a	n/a	n/a	n/a	n/a
1789.516	n/a	STOP	894758	n/a	LTP090	ltpFR	11	n/a	n/a	n/a	n/a	n/a	n/a	n/a	n/a	n/a	n/a	n/a	n/a	n/a	n/a	n/a
1792.062	n/a	WORD	896031	wordpools/wasnorm_wordpool.txt	LTP090	ltpFR	11	7	0	PUB	1135	n/a	0	n/a	0	0	0	0	0.5869140625	0.422607421875	upper	../fonts/amplitud.ttf
1795.066	n/a	START	897533	n/a	LTP090	ltpFR	11	n/a	n/a	n/a	n/a	n/a	n/a	n/a	n/a	n/a	n/a	n/a	n/a	n/a	n/a	n/a
1796.24	n/a	PROB	898120	n/a	LTP090	ltpFR	11	n/a	n/a	n/a	n/a	n/a	n/a	14	1	9	4	n/a	n/a	n/a	n/a	n/a
1799.552	n/a	PROB	899776	n/a	LTP090	ltpFR	11	n/a	n/a	n/a	n/a	n/a	n/a	15	5	2	8	n/a	n/a	n/a	n/a	n/a
1802.342	n/a	PROB	901171	n/a	LTP090	ltpFR	11	n/a	n/a	n/a	n/a	n/a	n/a	19	3	8	8	n/a	n/a	n/a	n/a	n/a
1804.364	n/a	PROB	902182	n/a	LTP090	ltpFR	11	n/a	n/a	n/a	n/a	n/a	n/a	14	1	5	8	n/a	n/a	n/a	n/a	n/a
1806.278	n/a	PROB	903139	n/a	LTP090	ltpFR	11	n/a	n/a	n/a	n/a	n/a	n/a	14	2	9	3	n/a	n/a	n/a	n/a	n/a
1811.066	n/a	STOP	905533	n/a	LTP090	ltpFR	11	n/a	n/a	n/a	n/a	n/a	n/a	n/a	n/a	n/a	n/a	n/a	n/a	n/a	n/a	n/a
1811.99	n/a	WORD	905995	wordpools/wasnorm_wordpool.txt	LTP090	ltpFR	11	7	0	BUREAU	199	n/a	1	n/a	0	0	0	0	0.5869140625	0.422607421875	upper	../fonts/amplitud.ttf
1815.002	n/a	START	907501	n/a	LTP090	ltpFR	11	n/a	n/a	n/a	n/a	n/a	n/a	n/a	n/a	n/a	n/a	n/a	n/a	n/a	n/a	n/a
1816.026	n/a	PROB	908013	n/a	LTP090	ltpFR	11	n/a	n/a	n/a	n/a	n/a	n/a	12	6	2	4	n/a	n/a	n/a	n/a	n/a
1819.596	n/a	PROB	909798	n/a	LTP090	ltpFR	11	n/a	n/a	n/a	n/a	n/a	n/a	13	2	2	9	n/a	n/a	n/a	n/a	n/a
1823.1	n/a	PROB	911550	n/a	LTP090	ltpFR	11	n/a	n/a	n/a	n/a	n/a	n/a	23	6	8	9	n/a	n/a	n/a	n/a	n/a
1831.002	n/a	STOP	915501	n/a	LTP090	ltpFR	11	n/a	n/a	n/a	n/a	n/a	n/a	n/a	n/a	n/a	n/a	n/a	n/a	n/a	n/a	n/a
1832.098	n/a	WORD	916049	wordpools/wasnorm_wordpool.txt	LTP090	ltpFR	11	7	1	CHEST	295	n/a	1	n/a	0	0	0	1	0.412841796875	0.57763671875	lower	../fonts/zerothre.ttf
1835.104	n/a	START	917552	n/a	LTP090	ltpFR	11	n/a	n/a	n/a	n/a	n/a	n/a	n/a	n/a	n/a	n/a	n/a	n/a	n/a	n/a	n/a
1836.038	n/a	PROB	918019	n/a	LTP090	ltpFR	11	n/a	n/a	n/a	n/a	n/a	n/a	23	9	5	9	n/a	n/a	n/a	n/a	n/a
1839.366	n/a	PROB	919683	n/a	LTP090	ltpFR	11	n/a	n/a	n/a	n/a	n/a	n/a	1	1	3	7	n/a	n/a	n/a	n/a	n/a
1841.74	n/a	PROB	920870	n/a	LTP090	ltpFR	11	n/a	n/a	n/a	n/a	n/a	n/a	20	9	9	2	n/a	n/a	n/a	n/a	n/a
1850.518	n/a	STOP	925259	n/a	LTP090	ltpFR	11	n/a	n/a	n/a	n/a	n/a	n/a	n/a	n/a	n/a	n/a	n/a	n/a	n/a	n/a	n/a
1852.192	n/a	WORD	926096	wordpools/wasnorm_wordpool.txt	LTP090	ltpFR	11	7	1	CAPE	237	n/a	0	n/a	0	0	0	1	0.412841796875	0.57763671875	lower	../fonts/zerothre.ttf
1855.198	n/a	START	927599	n/a	LTP090	ltpFR	11	n/a	n/a	n/a	n/a	n/a	n/a	n/a	n/a	n/a	n/a	n/a	n/a	n/a	n/a	n/a
1856.272	n/a	PROB	928136	n/a	LTP090	ltpFR	11	n/a	n/a	n/a	n/a	n/a	n/a	16	8	6	2	n/a	n/a	n/a	n/a	n/a
1858.16	n/a	PROB	929080	n/a	LTP090	ltpFR	11	n/a	n/a	n/a	n/a	n/a	n/a	22	9	4	9	n/a	n/a	n/a	n/a	n/a
1861.382	n/a	PROB	930691	n/a	LTP090	ltpFR	11	n/a	n/a	n/a	n/a	n/a	n/a	15	4	4	7	n/a	n/a	n/a	n/a	n/a
1863.238	n/a	PROB	931619	n/a	LTP090	ltpFR	11	n/a	n/a	n/a	n/a	n/a	n/a	21	8	5	7	n/a	n/a	n/a	n/a	n/a
1866.076	n/a	PROB	933038	n/a	LTP090	ltpFR	11	n/a	n/a	n/a	n/a	n/a	n/a	9	1	5	3	n/a	n/a	n/a	n/a	n/a
1868.532	n/a	PROB	934266	n/a	LTP090	ltpFR	11	n/a	n/a	n/a	n/a	n/a	n/a	14	5	1	8	n/a	n/a	n/a	n/a	n/a
1870.542	n/a	STOP	935271	n/a	LTP090	ltpFR	11	n/a	n/a	n/a	n/a	n/a	n/a	n/a	n/a	n/a	n/a	n/a	n/a	n/a	n/a	n/a
1873.118	n/a	REC_START	936559	n/a	LTP090	ltpFR	11	7	n/a	n/a	n/a	n/a	n/a	n/a	0	0	0	n/a	n/a	n/a	n/a	n/a
1875.966	n/a	REC_WORD_VV	937983	wordpools/wasnorm_wordpool.txt	LTP090	ltpFR	11	7	n/a	<>	-1	n/a	n/a	n/a	0	0	0	n/a	n/a	n/a	n/a	n/a
1879.36	n/a	REC_WORD	939680	wordpools/wasnorm_wordpool.txt	LTP090	ltpFR	11	7	0	BUREAU	199	n/a	1	n/a	0	0	0	n/a	n/a	n/a	n/a	n/a
1881.4	n/a	REC_WORD	940700	wordpools/wasnorm_wordpool.txt	LTP090	ltpFR	11	7	1	CHEST	295	n/a	1	n/a	0	0	0	n/a	n/a	n/a	n/a	n/a
1950.838	n/a	START	975419	n/a	LTP090	ltpFR	11	n/a	n/a	n/a	n/a	n/a	n/a	n/a	n/a	n/a	n/a	n/a	n/a	n/a	n/a	n/a
1952.344	n/a	PROB	976172	n/a	LTP090	ltpFR	11	n/a	n/a	n/a	n/a	n/a	n/a	19	7	6	6	n/a	n/a	n/a	n/a	n/a
1956.114	n/a	PROB	978057	n/a	LTP090	ltpFR	11	n/a	n/a	n/a	n/a	n/a	n/a	15	2	7	6	n/a	n/a	n/a	n/a	n/a
1962.19	n/a	PROB	981095	n/a	LTP090	ltpFR	11	n/a	n/a	n/a	n/a	n/a	n/a	16	5	9	2	n/a	n/a	n/a	n/a	n/a
1965.12	n/a	PROB	982560	n/a	LTP090	ltpFR	11	n/a	n/a	n/a	n/a	n/a	n/a	5	1	2	2	n/a	n/a	n/a	n/a	n/a
1966.792	n/a	STOP	983396	n/a	LTP090	ltpFR	11	n/a	n/a	n/a	n/a	n/a	n/a	n/a	n/a	n/a	n/a	n/a	n/a	n/a	n/a	n/a
1967.71	n/a	WORD	983855	wordpools/wasnorm_wordpool.txt	LTP090	ltpFR	11	8	1	DISHWASHER	475	n/a	0	n/a	0	0	0	1	0.412841796875	0.57763671875	lower	../fonts/zerothre.ttf
1970.716	n/a	START	985358	n/a	LTP090	ltpFR	11	n/a	n/a	n/a	n/a	n/a	n/a	n/a	n/a	n/a	n/a	n/a	n/a	n/a	n/a	n/a
1971.798	n/a	PROB	985899	n/a	LTP090	ltpFR	11	n/a	n/a	n/a	n/a	n/a	n/a	20	3	8	9	n/a	n/a	n/a	n/a	n/a
1975.3	n/a	PROB	987650	n/a	LTP090	ltpFR	11	n/a	n/a	n/a	n/a	n/a	n/a	12	1	6	5	n/a	n/a	n/a	n/a	n/a
1976.742	n/a	PROB	988371	n/a	LTP090	ltpFR	11	n/a	n/a	n/a	n/a	n/a	n/a	15	5	5	5	n/a	n/a	n/a	n/a	n/a
1977.974	n/a	PROB	988987	n/a	LTP090	ltpFR	11	n/a	n/a	n/a	n/a	n/a	n/a	21	9	5	7	n/a	n/a	n/a	n/a	n/a
1981.144	n/a	PROB	990572	n/a	LTP090	ltpFR	11	n/a	n/a	n/a	n/a	n/a	n/a	12	7	4	1	n/a	n/a	n/a	n/a	n/a
1986.714	n/a	STOP	993357	n/a	LTP090	ltpFR	11	n/a	n/a	n/a	n/a	n/a	n/a	n/a	n/a	n/a	n/a	n/a	n/a	n/a	n/a	n/a
1987.654	n/a	WORD	993827	wordpools/wasnorm_wordpool.txt	LTP090	ltpFR	11	8	1	RATTLE	1170	n/a	0	n/a	0	0	0	1	0.412841796875	0.57763671875	lower	../fonts/zerothre.ttf
1990.66	n/a	START	995330	n/a	LTP090	ltpFR	11	n/a	n/a	n/a	n/a	n/a	n/a	n/a	n/a	n/a	n/a	n/a	n/a	n/a	n/a	n/a
1991.598	n/a	PROB	995799	n/a	LTP090	ltpFR	11	n/a	n/a	n/a	n/a	n/a	n/a	16	3	4	9	n/a	n/a	n/a	n/a	n/a
1994.604	n/a	PROB	997302	n/a	LTP090	ltpFR	11	n/a	n/a	n/a	n/a	n/a	n/a	18	6	8	3	n/a	n/a	n/a	n/a	n/a
1999.59	n/a	PROB	999795	n/a	LTP090	ltpFR	11	n/a	n/a	n/a	n/a	n/a	n/a	10	4	4	2	n/a	n/a	n/a	n/a	n/a
2006.658	n/a	STOP	1003329	n/a	LTP090	ltpFR	11	n/a	n/a	n/a	n/a	n/a	n/a	n/a	n/a	n/a	n/a	n/a	n/a	n/a	n/a	n/a
2007.798	n/a	WORD	1003899	wordpools/wasnorm_wordpool.txt	LTP090	ltpFR	11	8	1	ENEMY	534	n/a	1	n/a	0	0	0	1	0.412841796875	0.57763671875	lower	../fonts/zerothre.ttf
2010.804	n/a	START	1005402	n/a	LTP090	ltpFR	11	n/a	n/a	n/a	n/a	n/a	n/a	n/a	n/a	n/a	n/a	n/a	n/a	n/a	n/a	n/a
2011.876	n/a	PROB	1005938	n/a	LTP090	ltpFR	11	n/a	n/a	n/a	n/a	n/a	n/a	10	4	1	5	n/a	n/a	n/a	n/a	n/a
2013.556	n/a	PROB	1006778	n/a	LTP090	ltpFR	11	n/a	n/a	n/a	n/a	n/a	n/a	11	1	9	1	n/a	n/a	n/a	n/a	n/a
2015.73	n/a	PROB	1007865	n/a	LTP090	ltpFR	11	n/a	n/a	n/a	n/a	n/a	n/a	19	8	3	8	n/a	n/a	n/a	n/a	n/a
2017.494	n/a	PROB	1008747	n/a	LTP090	ltpFR	11	n/a	n/a	n/a	n/a	n/a	n/a	22	5	8	9	n/a	n/a	n/a	n/a	n/a
2026.802	n/a	STOP	1013401	n/a	LTP090	ltpFR	11	n/a	n/a	n/a	n/a	n/a	n/a	n/a	n/a	n/a	n/a	n/a	n/a	n/a	n/a	n/a
2027.692	n/a	WORD	1013846	wordpools/wasnorm_wordpool.txt	LTP090	ltpFR	11	8	1	EMPLOYER	532	n/a	1	n/a	0	0	0	1	0.412841796875	0.57763671875	lower	../fonts/zerothre.ttf
2030.696	n/a	START	1015348	n/a	LTP090	ltpFR	11	n/a	n/a	n/a	n/a	n/a	n/a	n/a	n/a	n/a	n/a	n/a	n/a	n/a	n/a	n/a
2031.72	n/a	PROB	1015860	n/a	LTP090	ltpFR	11	n/a	n/a	n/a	n/a	n/a	n/a	15	8	6	1	n/a	n/a	n/a	n/a	n/a
2033.542	n/a	PROB	1016771	n/a	LTP090	ltpFR	11	n/a	n/a	n/a	n/a	n/a	n/a	10	7	1	2	n/a	n/a	n/a	n/a	n/a
2035.24	n/a	PROB	1017620	n/a	LTP090	ltpFR	11	n/a	n/a	n/a	n/a	n/a	n/a	16	6	9	1	n/a	n/a	n/a	n/a	n/a
2036.806	n/a	PROB	1018403	n/a	LTP090	ltpFR	11	n/a	n/a	n/a	n/a	n/a	n/a	22	5	8	9	n/a	n/a	n/a	n/a	n/a
2041.018	n/a	PROB	1020509	n/a	LTP090	ltpFR	11	n/a	n/a	n/a	n/a	n/a	n/a	6	4	1	1	n/a	n/a	n/a	n/a	n/a
2043.706	n/a	PROB	1021853	n/a	LTP090	ltpFR	11	n/a	n/a	n/a	n/a	n/a	n/a	13	1	3	9	n/a	n/a	n/a	n/a	n/a
2045.448	n/a	STOP	1022724	n/a	LTP090	ltpFR	11	n/a	n/a	n/a	n/a	n/a	n/a	n/a	n/a	n/a	n/a	n/a	n/a	n/a	n/a	n/a
2047.902	n/a	WORD	1023951	wordpools/wasnorm_wordpool.txt	LTP090	ltpFR	11	8	1	STRING	1394	n/a	0	n/a	0	0	0	1	0.412841796875	0.57763671875	lower	../fonts/zerothre.ttf
2050.906	n/a	START	1025453	n/a	LTP090	ltpFR	11	n/a	n/a	n/a	n/a	n/a	n/a	n/a	n/a	n/a	n/a	n/a	n/a	n/a	n/a	n/a
2051.73	n/a	PROB	1025865	n/a	LTP090	ltpFR	11	n/a	n/a	n/a	n/a	n/a	n/a	17	6	2	9	n/a	n/a	n/a	n/a	n/a
2055.192	n/a	PROB	1027596	n/a	LTP090	ltpFR	11	n/a	n/a	n/a	n/a	n/a	n/a	21	8	6	7	n/a	n/a	n/a	n/a	n/a
2057.774	n/a	PROB	1028887	n/a	LTP090	ltpFR	11	n/a	n/a	n/a	n/a	n/a	n/a	17	4	7	6	n/a	n/a	n/a	n/a	n/a
2059.638	n/a	PROB	1029819	n/a	LTP090	ltpFR	11	n/a	n/a	n/a	n/a	n/a	n/a	21	8	7	6	n/a	n/a	n/a	n/a	n/a
2062.484	n/a	PROB	1031242	n/a	LTP090	ltpFR	11	n/a	n/a	n/a	n/a	n/a	n/a	13	6	4	3	n/a	n/a	n/a	n/a	n/a
2063.732	n/a	PROB	1031866	n/a	LTP090	ltpFR	11	n/a	n/a	n/a	n/a	n/a	n/a	10	3	2	5	n/a	n/a	n/a	n/a	n/a
2066.152	n/a	STOP	1033076	n/a	LTP090	ltpFR	11	n/a	n/a	n/a	n/a	n/a	n/a	n/a	n/a	n/a	n/a	n/a	n/a	n/a	n/a	n/a
2068.086	n/a	WORD	1034043	wordpools/wasnorm_wordpool.txt	LTP090	ltpFR	11	8	1	BANJO	82	n/a	0	n/a	0	0	0	1	0.412841796875	0.57763671875	lower	../fonts/zerothre.ttf
2071.092	n/a	START	1035546	n/a	LTP090	ltpFR	11	n/a	n/a	n/a	n/a	n/a	n/a	n/a	n/a	n/a	n/a	n/a	n/a	n/a	n/a	n/a
2071.932	n/a	PROB	1035966	n/a	LTP090	ltpFR	11	n/a	n/a	n/a	n/a	n/a	n/a	22	9	8	5	n/a	n/a	n/a	n/a	n/a
2076.352	n/a	PROB	1038176	n/a	LTP090	ltpFR	11	n/a	n/a	n/a	n/a	n/a	n/a	16	6	2	8	n/a	n/a	n/a	n/a	n/a
2078.2	n/a	PROB	1039100	n/a	LTP090	ltpFR	11	n/a	n/a	n/a	n/a	n/a	n/a	20	7	9	4	n/a	n/a	n/a	n/a	n/a
2081.204	n/a	PROB	1040602	n/a	LTP090	ltpFR	11	n/a	n/a	n/a	n/a	n/a	n/a	7	1	4	4	n/a	n/a	n/a	n/a	n/a
2083.02	n/a	PROB	1041510	n/a	LTP090	ltpFR	11	n/a	n/a	n/a	n/a	n/a	n/a	8	3	1	4	n/a	n/a	n/a	n/a	n/a
2087.092	n/a	STOP	1043546	n/a	LTP090	ltpFR	11	n/a	n/a	n/a	n/a	n/a	n/a	n/a	n/a	n/a	n/a	n/a	n/a	n/a	n/a	n/a
2088.172	n/a	WORD	1044086	wordpools/wasnorm_wordpool.txt	LTP090	ltpFR	11	8	1	GAVEL	627	n/a	0	n/a	0	0	0	1	0.412841796875	0.57763671875	lower	../fonts/zerothre.ttf
2091.176	n/a	START	1045588	n/a	LTP090	ltpFR	11	n/a	n/a	n/a	n/a	n/a	n/a	n/a	n/a	n/a	n/a	n/a	n/a	n/a	n/a	n/a
2092.242	n/a	PROB	1046121	n/a	LTP090	ltpFR	11	n/a	n/a	n/a	n/a	n/a	n/a	21	5	8	7	n/a	n/a	n/a	n/a	n/a
2096.32	n/a	PROB	1048160	n/a	LTP090	ltpFR	11	n/a	n/a	n/a	n/a	n/a	n/a	13	2	8	3	n/a	n/a	n/a	n/a	n/a
2098.192	n/a	PROB	1049096	n/a	LTP090	ltpFR	11	n/a	n/a	n/a	n/a	n/a	n/a	18	4	6	8	n/a	n/a	n/a	n/a	n/a
2099.65	n/a	PROB	1049825	n/a	LTP090	ltpFR	11	n/a	n/a	n/a	n/a	n/a	n/a	8	2	4	2	n/a	n/a	n/a	n/a	n/a
2102.296	n/a	PROB	1051148	n/a	LTP090	ltpFR	11	n/a	n/a	n/a	n/a	n/a	n/a	16	6	5	5	n/a	n/a	n/a	n/a	n/a
2103.638	n/a	PROB	1051819	n/a	LTP090	ltpFR	11	n/a	n/a	n/a	n/a	n/a	n/a	20	5	8	7	n/a	n/a	n/a	n/a	n/a
2105.698	n/a	STOP	1052849	n/a	LTP090	ltpFR	11	n/a	n/a	n/a	n/a	n/a	n/a	n/a	n/a	n/a	n/a	n/a	n/a	n/a	n/a	n/a
2108.282	n/a	WORD	1054141	wordpools/wasnorm_wordpool.txt	LTP090	ltpFR	11	8	1	STRAW	1390	n/a	0	n/a	0	0	0	1	0.412841796875	0.57763671875	lower	../fonts/zerothre.ttf
2111.286	n/a	START	1055643	n/a	LTP090	ltpFR	11	n/a	n/a	n/a	n/a	n/a	n/a	n/a	n/a	n/a	n/a	n/a	n/a	n/a	n/a	n/a
2112.16	n/a	PROB	1056080	n/a	LTP090	ltpFR	11	n/a	n/a	n/a	n/a	n/a	n/a	13	4	1	8	n/a	n/a	n/a	n/a	n/a
2114.324	n/a	PROB	1057162	n/a	LTP090	ltpFR	11	n/a	n/a	n/a	n/a	n/a	n/a	22	6	9	7	n/a	n/a	n/a	n/a	n/a
2118.704	n/a	PROB	1059352	n/a	LTP090	ltpFR	11	n/a	n/a	n/a	n/a	n/a	n/a	9	4	3	2	n/a	n/a	n/a	n/a	n/a
2120.826	n/a	PROB	1060413	n/a	LTP090	ltpFR	11	n/a	n/a	n/a	n/a	n/a	n/a	14	4	5	5	n/a	n/a	n/a	n/a	n/a
2122.156	n/a	PROB	1061078	n/a	LTP090	ltpFR	11	n/a	n/a	n/a	n/a	n/a	n/a	12	6	3	3	n/a	n/a	n/a	n/a	n/a
2124.296	n/a	PROB	1062148	n/a	LTP090	ltpFR	11	n/a	n/a	n/a	n/a	n/a	n/a	13	5	5	3	n/a	n/a	n/a	n/a	n/a
2125.478	n/a	PROB	1062739	n/a	LTP090	ltpFR	11	n/a	n/a	n/a	n/a	n/a	n/a	10	2	4	4	n/a	n/a	n/a	n/a	n/a
2127.05	n/a	STOP	1063525	n/a	LTP090	ltpFR	11	n/a	n/a	n/a	n/a	n/a	n/a	n/a	n/a	n/a	n/a	n/a	n/a	n/a	n/a	n/a
2128.15	n/a	WORD	1064075	wordpools/wasnorm_wordpool.txt	LTP090	ltpFR	11	8	1	SERPENT	1270	n/a	1	n/a	0	0	0	1	0.412841796875	0.57763671875	lower	../fonts/zerothre.ttf
2131.156	n/a	START	1065578	n/a	LTP090	ltpFR	11	n/a	n/a	n/a	n/a	n/a	n/a	n/a	n/a	n/a	n/a	n/a	n/a	n/a	n/a	n/a
2132.262	n/a	PROB	1066131	n/a	LTP090	ltpFR	11	n/a	n/a	n/a	n/a	n/a	n/a	9	4	3	2	n/a	n/a	n/a	n/a	n/a
2134.46	n/a	PROB	1067230	n/a	LTP090	ltpFR	11	n/a	n/a	n/a	n/a	n/a	n/a	19	9	6	4	n/a	n/a	n/a	n/a	n/a
2136.624	n/a	PROB	1068312	n/a	LTP090	ltpFR	11	n/a	n/a	n/a	n/a	n/a	n/a	11	2	1	8	n/a	n/a	n/a	n/a	n/a
2138.53	n/a	PROB	1069265	n/a	LTP090	ltpFR	11	n/a	n/a	n/a	n/a	n/a	n/a	14	8	5	1	n/a	n/a	n/a	n/a	n/a
2141.168	n/a	PROB	1070584	n/a	LTP090	ltpFR	11	n/a	n/a	n/a	n/a	n/a	n/a	11	6	1	4	n/a	n/a	n/a	n/a	n/a
2142.75	n/a	PROB	1071375	n/a	LTP090	ltpFR	11	n/a	n/a	n/a	n/a	n/a	n/a	19	6	9	4	n/a	n/a	n/a	n/a	n/a
2144.774	n/a	PROB	1072387	n/a	LTP090	ltpFR	11	n/a	n/a	n/a	n/a	n/a	n/a	17	9	1	7	n/a	n/a	n/a	n/a	n/a
2146.384	n/a	STOP	1073192	n/a	LTP090	ltpFR	11	n/a	n/a	n/a	n/a	n/a	n/a	n/a	n/a	n/a	n/a	n/a	n/a	n/a	n/a	n/a
2148.076	n/a	WORD	1074038	wordpools/wasnorm_wordpool.txt	LTP090	ltpFR	11	8	1	RICE	1190	n/a	0	n/a	0	0	0	1	0.412841796875	0.57763671875	lower	../fonts/zerothre.ttf
2151.082	n/a	START	1075541	n/a	LTP090	ltpFR	11	n/a	n/a	n/a	n/a	n/a	n/a	n/a	n/a	n/a	n/a	n/a	n/a	n/a	n/a	n/a
2151.982	n/a	PROB	1075991	n/a	LTP090	ltpFR	11	n/a	n/a	n/a	n/a	n/a	n/a	8	2	4	2	n/a	n/a	n/a	n/a	n/a
2154.204	n/a	PROB	1077102	n/a	LTP090	ltpFR	11	n/a	n/a	n/a	n/a	n/a	n/a	11	7	3	1	n/a	n/a	n/a	n/a	n/a
2160.454	n/a	PROB	1080227	n/a	LTP090	ltpFR	11	n/a	n/a	n/a	n/a	n/a	n/a	20	6	5	9	n/a	n/a	n/a	n/a	n/a
2167.082	n/a	STOP	1083541	n/a	LTP090	ltpFR	11	n/a	n/a	n/a	n/a	n/a	n/a	n/a	n/a	n/a	n/a	n/a	n/a	n/a	n/a	n/a
2168.18	n/a	WORD	1084090	wordpools/wasnorm_wordpool.txt	LTP090	ltpFR	11	8	1	ZIPPER	1636	n/a	0	n/a	0	0	0	1	0.412841796875	0.57763671875	lower	../fonts/zerothre.ttf
2171.184	n/a	START	1085592	n/a	LTP090	ltpFR	11	n/a	n/a	n/a	n/a	n/a	n/a	n/a	n/a	n/a	n/a	n/a	n/a	n/a	n/a	n/a
2172.374	n/a	PROB	1086187	n/a	LTP090	ltpFR	11	n/a	n/a	n/a	n/a	n/a	n/a	14	7	2	5	n/a	n/a	n/a	n/a	n/a
2175.262	n/a	PROB	1087631	n/a	LTP090	ltpFR	11	n/a	n/a	n/a	n/a	n/a	n/a	16	2	9	5	n/a	n/a	n/a	n/a	n/a
2177.336	n/a	PROB	1088668	n/a	LTP090	ltpFR	11	n/a	n/a	n/a	n/a	n/a	n/a	7	3	1	3	n/a	n/a	n/a	n/a	n/a
2179.05	n/a	PROB	1089525	n/a	LTP090	ltpFR	11	n/a	n/a	n/a	n/a	n/a	n/a	22	8	4	9	n/a	n/a	n/a	n/a	n/a
2182.764	n/a	PROB	1091382	n/a	LTP090	ltpFR	11	n/a	n/a	n/a	n/a	n/a	n/a	21	4	9	8	n/a	n/a	n/a	n/a	n/a
2185.634	n/a	PROB	1092817	n/a	LTP090	ltpFR	11	n/a	n/a	n/a	n/a	n/a	n/a	15	7	7	1	n/a	n/a	n/a	n/a	n/a
2187.01	n/a	STOP	1093505	n/a	LTP090	ltpFR	11	n/a	n/a	n/a	n/a	n/a	n/a	n/a	n/a	n/a	n/a	n/a	n/a	n/a	n/a	n/a
2188.28	n/a	WORD	1094140	wordpools/wasnorm_wordpool.txt	LTP090	ltpFR	11	8	1	BUTTON	207	n/a	0	n/a	0	0	0	1	0.412841796875	0.57763671875	lower	../fonts/zerothre.ttf
2191.286	n/a	START	1095643	n/a	LTP090	ltpFR	11	n/a	n/a	n/a	n/a	n/a	n/a	n/a	n/a	n/a	n/a	n/a	n/a	n/a	n/a	n/a
2192.46	n/a	PROB	1096230	n/a	LTP090	ltpFR	11	n/a	n/a	n/a	n/a	n/a	n/a	18	6	8	4	n/a	n/a	n/a	n/a	n/a
2194.19	n/a	PROB	1097095	n/a	LTP090	ltpFR	11	n/a	n/a	n/a	n/a	n/a	n/a	5	1	1	2	n/a	n/a	n/a	n/a	n/a
2195.648	n/a	PROB	1097824	n/a	LTP090	ltpFR	11	n/a	n/a	n/a	n/a	n/a	n/a	12	3	7	2	n/a	n/a	n/a	n/a	n/a
2201.474	n/a	PROB	1100737	n/a	LTP090	ltpFR	11	n/a	n/a	n/a	n/a	n/a	n/a	12	3	2	7	n/a	n/a	n/a	n/a	n/a
2203.806	n/a	PROB	1101903	n/a	LTP090	ltpFR	11	n/a	n/a	n/a	n/a	n/a	n/a	8	2	2	4	n/a	n/a	n/a	n/a	n/a
2205.786	n/a	PROB	1102893	n/a	LTP090	ltpFR	11	n/a	n/a	n/a	n/a	n/a	n/a	13	1	6	6	n/a	n/a	n/a	n/a	n/a
2207.026	n/a	STOP	1103513	n/a	LTP090	ltpFR	11	n/a	n/a	n/a	n/a	n/a	n/a	n/a	n/a	n/a	n/a	n/a	n/a	n/a	n/a	n/a
2208.1	n/a	WORD	1104050	wordpools/wasnorm_wordpool.txt	LTP090	ltpFR	11	8	1	COACH	331	n/a	1	n/a	0	0	0	1	0.412841796875	0.57763671875	lower	../fonts/zerothre.ttf
2211.104	n/a	START	1105552	n/a	LTP090	ltpFR	11	n/a	n/a	n/a	n/a	n/a	n/a	n/a	n/a	n/a	n/a	n/a	n/a	n/a	n/a	n/a
2211.954	n/a	PROB	1105977	n/a	LTP090	ltpFR	11	n/a	n/a	n/a	n/a	n/a	n/a	13	3	9	1	n/a	n/a	n/a	n/a	n/a
2213.96	n/a	PROB	1106980	n/a	LTP090	ltpFR	11	n/a	n/a	n/a	n/a	n/a	n/a	13	6	1	6	n/a	n/a	n/a	n/a	n/a
2215.466	n/a	PROB	1107733	n/a	LTP090	ltpFR	11	n/a	n/a	n/a	n/a	n/a	n/a	14	9	2	3	n/a	n/a	n/a	n/a	n/a
2217.596	n/a	PROB	1108798	n/a	LTP090	ltpFR	11	n/a	n/a	n/a	n/a	n/a	n/a	13	5	4	4	n/a	n/a	n/a	n/a	n/a
2222.284	n/a	PROB	1111142	n/a	LTP090	ltpFR	11	n/a	n/a	n/a	n/a	n/a	n/a	18	9	1	8	n/a	n/a	n/a	n/a	n/a
2224.008	n/a	PROB	1112004	n/a	LTP090	ltpFR	11	n/a	n/a	n/a	n/a	n/a	n/a	22	8	9	5	n/a	n/a	n/a	n/a	n/a
2226.716	n/a	STOP	1113358	n/a	LTP090	ltpFR	11	n/a	n/a	n/a	n/a	n/a	n/a	n/a	n/a	n/a	n/a	n/a	n/a	n/a	n/a	n/a
2228.228	n/a	WORD	1114114	wordpools/wasnorm_wordpool.txt	LTP090	ltpFR	11	8	1	REFEREE	1178	n/a	1	n/a	0	0	0	1	0.412841796875	0.57763671875	lower	../fonts/zerothre.ttf
2231.232	n/a	START	1115616	n/a	LTP090	ltpFR	11	n/a	n/a	n/a	n/a	n/a	n/a	n/a	n/a	n/a	n/a	n/a	n/a	n/a	n/a	n/a
2232.114	n/a	PROB	1116057	n/a	LTP090	ltpFR	11	n/a	n/a	n/a	n/a	n/a	n/a	16	2	8	6	n/a	n/a	n/a	n/a	n/a
2234.186	n/a	PROB	1117093	n/a	LTP090	ltpFR	11	n/a	n/a	n/a	n/a	n/a	n/a	12	6	4	2	n/a	n/a	n/a	n/a	n/a
2235.518	n/a	PROB	1117759	n/a	LTP090	ltpFR	11	n/a	n/a	n/a	n/a	n/a	n/a	16	9	2	5	n/a	n/a	n/a	n/a	n/a
2238.274	n/a	PROB	1119137	n/a	LTP090	ltpFR	11	n/a	n/a	n/a	n/a	n/a	n/a	6	1	1	4	n/a	n/a	n/a	n/a	n/a
2240.238	n/a	PROB	1120119	n/a	LTP090	ltpFR	11	n/a	n/a	n/a	n/a	n/a	n/a	14	6	5	3	n/a	n/a	n/a	n/a	n/a
2242.386	n/a	PROB	1121193	n/a	LTP090	ltpFR	11	n/a	n/a	n/a	n/a	n/a	n/a	12	6	5	1	n/a	n/a	n/a	n/a	n/a
2244.392	n/a	PROB	1122196	n/a	LTP090	ltpFR	11	n/a	n/a	n/a	n/a	n/a	n/a	11	6	4	1	n/a	n/a	n/a	n/a	n/a
2246.916	n/a	STOP	1123458	n/a	LTP090	ltpFR	11	n/a	n/a	n/a	n/a	n/a	n/a	n/a	n/a	n/a	n/a	n/a	n/a	n/a	n/a	n/a
2248.204	n/a	WORD	1124102	wordpools/wasnorm_wordpool.txt	LTP090	ltpFR	11	8	1	RECIPE	1175	n/a	0	n/a	0	0	0	1	0.412841796875	0.57763671875	lower	../fonts/zerothre.ttf
2251.21	n/a	START	1125605	n/a	LTP090	ltpFR	11	n/a	n/a	n/a	n/a	n/a	n/a	n/a	n/a	n/a	n/a	n/a	n/a	n/a	n/a	n/a
2252.274	n/a	PROB	1126137	n/a	LTP090	ltpFR	11	n/a	n/a	n/a	n/a	n/a	n/a	23	6	8	9	n/a	n/a	n/a	n/a	n/a
2256.378	n/a	PROB	1128189	n/a	LTP090	ltpFR	11	n/a	n/a	n/a	n/a	n/a	n/a	15	7	5	3	n/a	n/a	n/a	n/a	n/a
2258.326	n/a	PROB	1129163	n/a	LTP090	ltpFR	11	n/a	n/a	n/a	n/a	n/a	n/a	21	7	6	8	n/a	n/a	n/a	n/a	n/a
2260.932	n/a	PROB	1130466	n/a	LTP090	ltpFR	11	n/a	n/a	n/a	n/a	n/a	n/a	18	4	9	5	n/a	n/a	n/a	n/a	n/a
2262.972	n/a	PROB	1131486	n/a	LTP090	ltpFR	11	n/a	n/a	n/a	n/a	n/a	n/a	20	5	8	7	n/a	n/a	n/a	n/a	n/a
2267.21	n/a	STOP	1133605	n/a	LTP090	ltpFR	11	n/a	n/a	n/a	n/a	n/a	n/a	n/a	n/a	n/a	n/a	n/a	n/a	n/a	n/a	n/a
2268.238	n/a	WORD	1134119	wordpools/wasnorm_wordpool.txt	LTP090	ltpFR	11	8	1	CAP	236	n/a	0	n/a	0	0	0	1	0.412841796875	0.57763671875	lower	../fonts/zerothre.ttf
2271.244	n/a	START	1135622	n/a	LTP090	ltpFR	11	n/a	n/a	n/a	n/a	n/a	n/a	n/a	n/a	n/a	n/a	n/a	n/a	n/a	n/a	n/a
2272.326	n/a	PROB	1136163	n/a	LTP090	ltpFR	11	n/a	n/a	n/a	n/a	n/a	n/a	24	9	6	9	n/a	n/a	n/a	n/a	n/a
2278.352	n/a	PROB	1139176	n/a	LTP090	ltpFR	11	n/a	n/a	n/a	n/a	n/a	n/a	14	4	6	4	n/a	n/a	n/a	n/a	n/a
2279.868	n/a	PROB	1139934	n/a	LTP090	ltpFR	11	n/a	n/a	n/a	n/a	n/a	n/a	19	8	7	4	n/a	n/a	n/a	n/a	n/a
2281.598	n/a	PROB	1140799	n/a	LTP090	ltpFR	11	n/a	n/a	n/a	n/a	n/a	n/a	21	6	9	6	n/a	n/a	n/a	n/a	n/a
2283.83	n/a	PROB	1141915	n/a	LTP090	ltpFR	11	n/a	n/a	n/a	n/a	n/a	n/a	8	4	3	1	n/a	n/a	n/a	n/a	n/a
2286.378	n/a	STOP	1143189	n/a	LTP090	ltpFR	11	n/a	n/a	n/a	n/a	n/a	n/a	n/a	n/a	n/a	n/a	n/a	n/a	n/a	n/a	n/a
2289.05	n/a	REC_START	1144525	n/a	LTP090	ltpFR	11	8	n/a	n/a	n/a	n/a	n/a	n/a	0	0	0	n/a	n/a	n/a	n/a	n/a
2290.7	n/a	REC_WORD	1145350	wordpools/wasnorm_wordpool.txt	LTP090	ltpFR	11	8	1	REFEREE	1178	n/a	1	n/a	0	0	0	n/a	n/a	n/a	n/a	n/a
2292.332	n/a	REC_WORD	1146166	wordpools/wasnorm_wordpool.txt	LTP090	ltpFR	11	8	1	COACH	331	n/a	1	n/a	0	0	0	n/a	n/a	n/a	n/a	n/a
2294.092	n/a	REC_WORD	1147046	wordpools/wasnorm_wordpool.txt	LTP090	ltpFR	11	8	1	CAP	236	n/a	0	n/a	0	0	0	n/a	n/a	n/a	n/a	n/a
2295.544	n/a	REC_WORD	1147772	wordpools/wasnorm_wordpool.txt	LTP090	ltpFR	11	8	1	RECIPE	1175	n/a	0	n/a	0	0	0	n/a	n/a	n/a	n/a	n/a
2298.732	n/a	REC_WORD	1149366	wordpools/wasnorm_wordpool.txt	LTP090	ltpFR	11	8	1	BANJO	82	n/a	0	n/a	0	0	0	n/a	n/a	n/a	n/a	n/a
2299.86	n/a	REC_WORD	1149930	wordpools/wasnorm_wordpool.txt	LTP090	ltpFR	11	8	1	STRAW	1390	n/a	0	n/a	0	0	0	n/a	n/a	n/a	n/a	n/a
2301.172	n/a	REC_WORD	1150586	wordpools/wasnorm_wordpool.txt	LTP090	ltpFR	11	8	1	STRING	1394	n/a	0	n/a	0	0	0	n/a	n/a	n/a	n/a	n/a
2304.74	n/a	REC_WORD	1152370	wordpools/wasnorm_wordpool.txt	LTP090	ltpFR	11	8	1	ENEMY	534	n/a	1	n/a	0	0	0	n/a	n/a	n/a	n/a	n/a
2305.798	n/a	REC_WORD	1152899	wordpools/wasnorm_wordpool.txt	LTP090	ltpFR	11	8	1	EMPLOYER	532	n/a	1	n/a	0	0	0	n/a	n/a	n/a	n/a	n/a
2307.158	n/a	REC_WORD	1153579	wordpools/wasnorm_wordpool.txt	LTP090	ltpFR	11	8	1	SERPENT	1270	n/a	1	n/a	0	0	0	n/a	n/a	n/a	n/a	n/a
2308.656	n/a	REC_WORD	1154328	wordpools/wasnorm_wordpool.txt	LTP090	ltpFR	11	8	1	BUTTON	207	n/a	0	n/a	0	0	0	n/a	n/a	n/a	n/a	n/a
2312.622	n/a	REC_WORD	1156311	wordpools/wasnorm_wordpool.txt	LTP090	ltpFR	11	8	1	ZIPPER	1636	n/a	0	n/a	0	0	0	n/a	n/a	n/a	n/a	n/a
2368.44	n/a	WORD	1184220	wordpools/wasnorm_wordpool.txt	LTP090	ltpFR	11	9	0	EWE	542	n/a	1	n/a	0	0	0	0	0.5869140625	0.422607421875	upper	../fonts/amplitud.ttf
2372.552	n/a	WORD	1186276	wordpools/wasnorm_wordpool.txt	LTP090	ltpFR	11	9	0	PEACH	1031	n/a	0	n/a	0	0	0	0	0.5869140625	0.422607421875	upper	../fonts/amplitud.ttf
2376.664	n/a	WORD	1188332	wordpools/wasnorm_wordpool.txt	LTP090	ltpFR	11	9	0	SLOPE	1328	n/a	1	n/a	0	0	0	0	0.5869140625	0.422607421875	upper	../fonts/amplitud.ttf
2380.694	n/a	WORD	1190347	wordpools/wasnorm_wordpool.txt	LTP090	ltpFR	11	9	0	TEMPLE	1448	n/a	1	n/a	0	0	0	0	0.5869140625	0.422607421875	upper	../fonts/amplitud.ttf
2384.514	n/a	WORD	1192257	wordpools/wasnorm_wordpool.txt	LTP090	ltpFR	11	9	0	MATTRESS	879	n/a	0	n/a	0	0	0	0	0.5869140625	0.422607421875	upper	../fonts/amplitud.ttf
2388.652	n/a	WORD	1194326	wordpools/wasnorm_wordpool.txt	LTP090	ltpFR	11	9	0	APPLE	33	n/a	0	n/a	0	0	0	0	0.5869140625	0.422607421875	upper	../fonts/amplitud.ttf
2392.514	n/a	WORD	1196257	wordpools/wasnorm_wordpool.txt	LTP090	ltpFR	11	9	0	LETTUCE	814	n/a	0	n/a	0	0	0	0	0.5869140625	0.422607421875	upper	../fonts/amplitud.ttf
2396.45	n/a	WORD	1198225	wordpools/wasnorm_wordpool.txt	LTP090	ltpFR	11	9	0	BLACKBERRY	132	n/a	0	n/a	0	0	0	0	0.5869140625	0.422607421875	upper	../fonts/amplitud.ttf
2400.346	n/a	WORD	1200173	wordpools/wasnorm_wordpool.txt	LTP090	ltpFR	11	9	0	GRAPE	654	n/a	0	n/a	0	0	0	0	0.5869140625	0.422607421875	upper	../fonts/amplitud.ttf
2404.216	n/a	WORD	1202108	wordpools/wasnorm_wordpool.txt	LTP090	ltpFR	11	9	0	FIDDLE	561	n/a	0	n/a	0	0	0	0	0.5869140625	0.422607421875	upper	../fonts/amplitud.ttf
2408.262	n/a	WORD	1204131	wordpools/wasnorm_wordpool.txt	LTP090	ltpFR	11	9	0	BARN	89	n/a	1	n/a	0	0	0	0	0.5869140625	0.422607421875	upper	../fonts/amplitud.ttf
2412.274	n/a	WORD	1206137	wordpools/wasnorm_wordpool.txt	LTP090	ltpFR	11	9	0	HAY	693	n/a	0	n/a	0	0	0	0	0.5869140625	0.422607421875	upper	../fonts/amplitud.ttf
2416.252	n/a	WORD	1208126	wordpools/wasnorm_wordpool.txt	LTP090	ltpFR	11	9	0	SEAL	1262	n/a	1	n/a	0	0	0	0	0.5869140625	0.422607421875	upper	../fonts/amplitud.ttf
2420.372	n/a	WORD	1210186	wordpools/wasnorm_wordpool.txt	LTP090	ltpFR	11	9	0	VINE	1568	n/a	0	n/a	0	0	0	0	0.5869140625	0.422607421875	upper	../fonts/amplitud.ttf
2424.368	n/a	WORD	1212184	wordpools/wasnorm_wordpool.txt	LTP090	ltpFR	11	9	0	STEREO	1378	n/a	1	n/a	0	0	0	0	0.5869140625	0.422607421875	upper	../fonts/amplitud.ttf
2428.264	n/a	WORD	1214132	wordpools/wasnorm_wordpool.txt	LTP090	ltpFR	11	9	0	TROPHY	1509	n/a	0	n/a	0	0	0	0	0.5869140625	0.422607421875	upper	../fonts/amplitud.ttf
2431.268	n/a	START	1215634	n/a	LTP090	ltpFR	11	n/a	n/a	n/a	n/a	n/a	n/a	n/a	n/a	n/a	n/a	n/a	n/a	n/a	n/a	n/a
2432.376	n/a	PROB	1216188	n/a	LTP090	ltpFR	11	n/a	n/a	n/a	n/a	n/a	n/a	18	6	4	8	n/a	n/a	n/a	n/a	n/a
2434.106	n/a	PROB	1217053	n/a	LTP090	ltpFR	11	n/a	n/a	n/a	n/a	n/a	n/a	13	8	4	1	n/a	n/a	n/a	n/a	n/a
2436.22	n/a	PROB	1218110	n/a	LTP090	ltpFR	11	n/a	n/a	n/a	n/a	n/a	n/a	9	1	2	6	n/a	n/a	n/a	n/a	n/a
2439.268	n/a	STOP	1219634	n/a	LTP090	ltpFR	11	n/a	n/a	n/a	n/a	n/a	n/a	n/a	n/a	n/a	n/a	n/a	n/a	n/a	n/a	n/a
2441.024	n/a	REC_START	1220512	n/a	LTP090	ltpFR	11	9	n/a	n/a	n/a	n/a	n/a	n/a	0	0	0	n/a	n/a	n/a	n/a	n/a
2443.508	n/a	REC_WORD	1221754	wordpools/wasnorm_wordpool.txt	LTP090	ltpFR	11	9	0	BARN	89	n/a	1	n/a	0	0	0	n/a	n/a	n/a	n/a	n/a
2444.268	n/a	REC_WORD	1222134	wordpools/wasnorm_wordpool.txt	LTP090	ltpFR	11	9	0	HAY	693	n/a	0	n/a	0	0	0	n/a	n/a	n/a	n/a	n/a
2445.758	n/a	REC_WORD	1222879	wordpools/wasnorm_wordpool.txt	LTP090	ltpFR	11	9	0	EWE	542	n/a	1	n/a	0	0	0	n/a	n/a	n/a	n/a	n/a
2448.612	n/a	REC_WORD	1224306	wordpools/wasnorm_wordpool.txt	LTP090	ltpFR	11	9	0	PEACH	1031	n/a	0	n/a	0	0	0	n/a	n/a	n/a	n/a	n/a
2449.54	n/a	REC_WORD	1224770	wordpools/wasnorm_wordpool.txt	LTP090	ltpFR	11	9	0	SLOPE	1328	n/a	1	n/a	0	0	0	n/a	n/a	n/a	n/a	n/a
2451.036	n/a	REC_WORD	1225518	wordpools/wasnorm_wordpool.txt	LTP090	ltpFR	11	9	0	APPLE	33	n/a	0	n/a	0	0	0	n/a	n/a	n/a	n/a	n/a
2452.09	n/a	REC_WORD	1226045	wordpools/wasnorm_wordpool.txt	LTP090	ltpFR	11	9	0	LETTUCE	814	n/a	0	n/a	0	0	0	n/a	n/a	n/a	n/a	n/a
2453.332	n/a	REC_WORD	1226666	wordpools/wasnorm_wordpool.txt	LTP090	ltpFR	11	9	0	GRAPE	654	n/a	0	n/a	0	0	0	n/a	n/a	n/a	n/a	n/a
2454.754	n/a	REC_WORD	1227377	wordpools/wasnorm_wordpool.txt	LTP090	ltpFR	11	9	0	BLACKBERRY	132	n/a	0	n/a	0	0	0	n/a	n/a	n/a	n/a	n/a
2455.914	n/a	REC_WORD	1227957	wordpools/wasnorm_wordpool.txt	LTP090	ltpFR	11	9	0	STEREO	1378	n/a	1	n/a	0	0	0	n/a	n/a	n/a	n/a	n/a
2456.914	n/a	REC_WORD_VV	1228457	wordpools/wasnorm_wordpool.txt	LTP090	ltpFR	11	9	n/a	<>	-1	n/a	n/a	n/a	0	0	0	n/a	n/a	n/a	n/a	n/a
2457.406	n/a	REC_WORD	1228703	wordpools/wasnorm_wordpool.txt	LTP090	ltpFR	11	9	0	MATTRESS	879	n/a	0	n/a	0	0	0	n/a	n/a	n/a	n/a	n/a
2460.29	n/a	REC_WORD	1230145	wordpools/wasnorm_wordpool.txt	LTP090	ltpFR	11	9	0	TEMPLE	1448	n/a	1	n/a	0	0	0	n/a	n/a	n/a	n/a	n/a
2519.868	n/a	WORD	1259934	wordpools/wasnorm_wordpool.txt	LTP090	ltpFR	11	10	0	WEED	1599	n/a	1	n/a	0	0	0	0	0.5869140625	0.422607421875	upper	../fonts/amplitud.ttf
2524.004	n/a	WORD	1262002	wordpools/wasnorm_wordpool.txt	LTP090	ltpFR	11	10	0	STEWARDESS	1381	n/a	1	n/a	0	0	0	0	0.5869140625	0.422607421875	upper	../fonts/amplitud.ttf
2527.974	n/a	WORD	1263987	wordpools/wasnorm_wordpool.txt	LTP090	ltpFR	11	10	1	STRANGER	1389	n/a	1	n/a	0	0	0	1	0.412841796875	0.57763671875	lower	../fonts/zerothre.ttf
2531.812	n/a	WORD	1265906	wordpools/wasnorm_wordpool.txt	LTP090	ltpFR	11	10	1	LANDSCAPE	799	n/a	1	n/a	0	0	0	1	0.412841796875	0.57763671875	lower	../fonts/zerothre.ttf
2536.006	n/a	WORD	1268003	wordpools/wasnorm_wordpool.txt	LTP090	ltpFR	11	10	1	STAGE	1366	n/a	1	n/a	0	0	0	1	0.412841796875	0.57763671875	lower	../fonts/zerothre.ttf
2539.886	n/a	WORD	1269943	wordpools/wasnorm_wordpool.txt	LTP090	ltpFR	11	10	1	PLATE	1086	n/a	0	n/a	0	0	0	1	0.412841796875	0.57763671875	lower	../fonts/zerothre.ttf
2543.84	n/a	WORD	1271920	wordpools/wasnorm_wordpool.txt	LTP090	ltpFR	11	10	0	FEAST	556	n/a	1	n/a	0	0	0	0	0.5869140625	0.422607421875	upper	../fonts/amplitud.ttf
2547.836	n/a	WORD	1273918	wordpools/wasnorm_wordpool.txt	LTP090	ltpFR	11	10	0	ELM	527	n/a	1	n/a	0	0	0	0	0.5869140625	0.422607421875	upper	../fonts/amplitud.ttf
2551.682	n/a	WORD	1275841	wordpools/wasnorm_wordpool.txt	LTP090	ltpFR	11	10	1	CIRCUS	311	n/a	1	n/a	0	0	0	1	0.412841796875	0.57763671875	lower	../fonts/zerothre.ttf
2555.584	n/a	WORD	1277792	wordpools/wasnorm_wordpool.txt	LTP090	ltpFR	11	10	1	FIREMAN	569	n/a	1	n/a	0	0	0	1	0.412841796875	0.57763671875	lower	../fonts/zerothre.ttf
2559.462	n/a	WORD	1279731	wordpools/wasnorm_wordpool.txt	LTP090	ltpFR	11	10	1	GOO	648	n/a	0	n/a	0	0	0	1	0.412841796875	0.57763671875	lower	../fonts/zerothre.ttf
2563.566	n/a	WORD	1281783	wordpools/wasnorm_wordpool.txt	LTP090	ltpFR	11	10	1	EYELASH	546	n/a	0	n/a	0	0	0	1	0.412841796875	0.57763671875	lower	../fonts/zerothre.ttf
2567.404	n/a	WORD	1283702	wordpools/wasnorm_wordpool.txt	LTP090	ltpFR	11	10	0	SAW	1239	n/a	0	n/a	0	0	0	0	0.5869140625	0.422607421875	upper	../fonts/amplitud.ttf
2571.448	n/a	WORD	1285724	wordpools/wasnorm_wordpool.txt	LTP090	ltpFR	11	10	0	DISH	474	n/a	0	n/a	0	0	0	0	0.5869140625	0.422607421875	upper	../fonts/amplitud.ttf
2575.37	n/a	WORD	1287685	wordpools/wasnorm_wordpool.txt	LTP090	ltpFR	11	10	0	MUG	930	n/a	0	n/a	0	0	0	0	0.5869140625	0.422607421875	upper	../fonts/amplitud.ttf
2579.256	n/a	WORD	1289628	wordpools/wasnorm_wordpool.txt	LTP090	ltpFR	11	10	0	PARTNER	1017	n/a	1	n/a	0	0	0	0	0.5869140625	0.422607421875	upper	../fonts/amplitud.ttf
2584.984	n/a	REC_START	1292492	n/a	LTP090	ltpFR	11	10	n/a	n/a	n/a	n/a	n/a	n/a	0	0	0	n/a	n/a	n/a	n/a	n/a
2586.142	n/a	REC_WORD	1293071	wordpools/wasnorm_wordpool.txt	LTP090	ltpFR	11	10	0	PARTNER	1017	n/a	1	n/a	0	0	0	n/a	n/a	n/a	n/a	n/a
2595.43	n/a	REC_WORD	1297715	wordpools/wasnorm_wordpool.txt	LTP090	ltpFR	11	10	0	STEWARDESS	1381	n/a	1	n/a	0	0	0	n/a	n/a	n/a	n/a	n/a
2596.43	n/a	REC_WORD_VV	1298215	wordpools/wasnorm_wordpool.txt	LTP090	ltpFR	11	10	n/a	<>	-1	n/a	n/a	n/a	0	0	0	n/a	n/a	n/a	n/a	n/a
2599.486	n/a	REC_WORD	1299743	wordpools/wasnorm_wordpool.txt	LTP090	ltpFR	11	10	1	STRANGER	1389	n/a	1	n/a	0	0	0	n/a	n/a	n/a	n/a	n/a
2600.486	n/a	REC_WORD_VV	1300243	wordpools/wasnorm_wordpool.txt	LTP090	ltpFR	11	10	n/a	<>	-1	n/a	n/a	n/a	0	0	0	n/a	n/a	n/a	n/a	n/a
2603.018	n/a	REC_WORD	1301509	wordpools/wasnorm_wordpool.txt	LTP090	ltpFR	11	10	1	LANDSCAPE	799	n/a	1	n/a	0	0	0	n/a	n/a	n/a	n/a	n/a
2604.018	n/a	REC_WORD_VV	1302009	wordpools/wasnorm_wordpool.txt	LTP090	ltpFR	11	10	n/a	<>	-1	n/a	n/a	n/a	0	0	0	n/a	n/a	n/a	n/a	n/a
2604.584	n/a	REC_WORD	1302292	wordpools/wasnorm_wordpool.txt	LTP090	ltpFR	11	10	0	MUG	930	n/a	0	n/a	0	0	0	n/a	n/a	n/a	n/a	n/a
2606.43	n/a	REC_WORD	1303215	wordpools/wasnorm_wordpool.txt	LTP090	ltpFR	11	10	0	DISH	474	n/a	0	n/a	0	0	0	n/a	n/a	n/a	n/a	n/a
2607.334	n/a	REC_WORD	1303667	wordpools/wasnorm_wordpool.txt	LTP090	ltpFR	11	10	1	PLATE	1086	n/a	0	n/a	0	0	0	n/a	n/a	n/a	n/a	n/a
2609.658	n/a	REC_WORD	1304829	wordpools/wasnorm_wordpool.txt	LTP090	ltpFR	11	10	0	FEAST	556	n/a	1	n/a	0	0	0	n/a	n/a	n/a	n/a	n/a
2614.398	n/a	REC_WORD	1307199	wordpools/wasnorm_wordpool.txt	LTP090	ltpFR	11	10	1	FIREMAN	569	n/a	1	n/a	0	0	0	n/a	n/a	n/a	n/a	n/a
2660.554	n/a	REST_REWET	1330277	n/a	LTP090	ltpFR	11	10	n/a	n/a	n/a	n/a	n/a	n/a	0	0	0	n/a	n/a	n/a	n/a	n/a
3168.956	n/a	START	1584478	n/a	LTP090	ltpFR	11	n/a	n/a	n/a	n/a	n/a	n/a	n/a	n/a	n/a	n/a	n/a	n/a	n/a	n/a	n/a
3170.46	n/a	PROB	1585230	n/a	LTP090	ltpFR	11	n/a	n/a	n/a	n/a	n/a	n/a	12	3	5	3	n/a	n/a	n/a	n/a	n/a
3173.076	n/a	PROB	1586538	n/a	LTP090	ltpFR	11	n/a	n/a	n/a	n/a	n/a	n/a	25	9	9	7	n/a	n/a	n/a	n/a	n/a
3176.374	n/a	STOP	1588187	n/a	LTP090	ltpFR	11	n/a	n/a	n/a	n/a	n/a	n/a	n/a	n/a	n/a	n/a	n/a	n/a	n/a	n/a	n/a
3177.852	n/a	WORD	1588926	wordpools/wasnorm_wordpool.txt	LTP090	ltpFR	11	11	0	LIBRARY	816	n/a	1	n/a	0	0	0	0	0.5869140625	0.422607421875	upper	../fonts/amplitud.ttf
3180.858	n/a	START	1590429	n/a	LTP090	ltpFR	11	n/a	n/a	n/a	n/a	n/a	n/a	n/a	n/a	n/a	n/a	n/a	n/a	n/a	n/a	n/a
3181.69	n/a	PROB	1590845	n/a	LTP090	ltpFR	11	n/a	n/a	n/a	n/a	n/a	n/a	18	6	9	3	n/a	n/a	n/a	n/a	n/a
3183.854	n/a	PROB	1591927	n/a	LTP090	ltpFR	11	n/a	n/a	n/a	n/a	n/a	n/a	11	8	2	1	n/a	n/a	n/a	n/a	n/a
3187.058	n/a	PROB	1593529	n/a	LTP090	ltpFR	11	n/a	n/a	n/a	n/a	n/a	n/a	21	7	7	7	n/a	n/a	n/a	n/a	n/a
3188.664	n/a	STOP	1594332	n/a	LTP090	ltpFR	11	n/a	n/a	n/a	n/a	n/a	n/a	n/a	n/a	n/a	n/a	n/a	n/a	n/a	n/a	n/a
3190.064	n/a	WORD	1595032	wordpools/wasnorm_wordpool.txt	LTP090	ltpFR	11	11	0	CHEF	290	n/a	1	n/a	0	0	0	0	0.5869140625	0.422607421875	upper	../fonts/amplitud.ttf
3193.068	n/a	START	1596534	n/a	LTP090	ltpFR	11	n/a	n/a	n/a	n/a	n/a	n/a	n/a	n/a	n/a	n/a	n/a	n/a	n/a	n/a	n/a
3194.142	n/a	PROB	1597071	n/a	LTP090	ltpFR	11	n/a	n/a	n/a	n/a	n/a	n/a	9	3	5	1	n/a	n/a	n/a	n/a	n/a
3197.462	n/a	PROB	1598731	n/a	LTP090	ltpFR	11	n/a	n/a	n/a	n/a	n/a	n/a	20	3	9	8	n/a	n/a	n/a	n/a	n/a
3200.302	n/a	STOP	1600151	n/a	LTP090	ltpFR	11	n/a	n/a	n/a	n/a	n/a	n/a	n/a	n/a	n/a	n/a	n/a	n/a	n/a	n/a	n/a
3202.232	n/a	WORD	1601116	wordpools/wasnorm_wordpool.txt	LTP090	ltpFR	11	11	0	RUST	1219	n/a	1	n/a	0	0	0	0	0.5869140625	0.422607421875	upper	../fonts/amplitud.ttf
3205.238	n/a	START	1602619	n/a	LTP090	ltpFR	11	n/a	n/a	n/a	n/a	n/a	n/a	n/a	n/a	n/a	n/a	n/a	n/a	n/a	n/a	n/a
3206.428	n/a	PROB	1603214	n/a	LTP090	ltpFR	11	n/a	n/a	n/a	n/a	n/a	n/a	18	8	3	7	n/a	n/a	n/a	n/a	n/a
3208.092	n/a	PROB	1604046	n/a	LTP090	ltpFR	11	n/a	n/a	n/a	n/a	n/a	n/a	19	7	7	5	n/a	n/a	n/a	n/a	n/a
3213.236	n/a	STOP	1606618	n/a	LTP090	ltpFR	11	n/a	n/a	n/a	n/a	n/a	n/a	n/a	n/a	n/a	n/a	n/a	n/a	n/a	n/a	n/a
3214.36	n/a	WORD	1607180	wordpools/wasnorm_wordpool.txt	LTP090	ltpFR	11	11	0	DIARY	460	n/a	0	n/a	0	0	0	0	0.5869140625	0.422607421875	upper	../fonts/amplitud.ttf
3217.364	n/a	START	1608682	n/a	LTP090	ltpFR	11	n/a	n/a	n/a	n/a	n/a	n/a	n/a	n/a	n/a	n/a	n/a	n/a	n/a	n/a	n/a
3218.254	n/a	PROB	1609127	n/a	LTP090	ltpFR	11	n/a	n/a	n/a	n/a	n/a	n/a	15	8	6	1	n/a	n/a	n/a	n/a	n/a
3219.904	n/a	PROB	1609952	n/a	LTP090	ltpFR	11	n/a	n/a	n/a	n/a	n/a	n/a	8	4	2	2	n/a	n/a	n/a	n/a	n/a
3221.76	n/a	PROB	1610880	n/a	LTP090	ltpFR	11	n/a	n/a	n/a	n/a	n/a	n/a	6	2	2	2	n/a	n/a	n/a	n/a	n/a
3222.884	n/a	PROB	1611442	n/a	LTP090	ltpFR	11	n/a	n/a	n/a	n/a	n/a	n/a	16	7	6	3	n/a	n/a	n/a	n/a	n/a
3224.648	n/a	STOP	1612324	n/a	LTP090	ltpFR	11	n/a	n/a	n/a	n/a	n/a	n/a	n/a	n/a	n/a	n/a	n/a	n/a	n/a	n/a	n/a
3226.546	n/a	WORD	1613273	wordpools/wasnorm_wordpool.txt	LTP090	ltpFR	11	11	0	DOOR	486	n/a	1	n/a	0	0	0	0	0.5869140625	0.422607421875	upper	../fonts/amplitud.ttf
3229.55	n/a	START	1614775	n/a	LTP090	ltpFR	11	n/a	n/a	n/a	n/a	n/a	n/a	n/a	n/a	n/a	n/a	n/a	n/a	n/a	n/a	n/a
3230.716	n/a	PROB	1615358	n/a	LTP090	ltpFR	11	n/a	n/a	n/a	n/a	n/a	n/a	16	4	4	8	n/a	n/a	n/a	n/a	n/a
3232.248	n/a	PROB	1616124	n/a	LTP090	ltpFR	11	n/a	n/a	n/a	n/a	n/a	n/a	19	7	5	6	n/a	n/a	n/a	n/a	n/a
3234.178	n/a	PROB	1617089	n/a	LTP090	ltpFR	11	n/a	n/a	n/a	n/a	n/a	n/a	11	6	3	2	n/a	n/a	n/a	n/a	n/a
3236.438	n/a	STOP	1618219	n/a	LTP090	ltpFR	11	n/a	n/a	n/a	n/a	n/a	n/a	n/a	n/a	n/a	n/a	n/a	n/a	n/a	n/a	n/a
3238.606	n/a	WORD	1619303	wordpools/wasnorm_wordpool.txt	LTP090	ltpFR	11	11	0	CABINET	212	n/a	1	n/a	0	0	0	0	0.5869140625	0.422607421875	upper	../fonts/amplitud.ttf
3241.612	n/a	START	1620806	n/a	LTP090	ltpFR	11	n/a	n/a	n/a	n/a	n/a	n/a	n/a	n/a	n/a	n/a	n/a	n/a	n/a	n/a	n/a
3242.636	n/a	PROB	1621318	n/a	LTP090	ltpFR	11	n/a	n/a	n/a	n/a	n/a	n/a	16	6	5	5	n/a	n/a	n/a	n/a	n/a
3244.384	n/a	PROB	1622192	n/a	LTP090	ltpFR	11	n/a	n/a	n/a	n/a	n/a	n/a	19	5	7	6	n/a	n/a	n/a	n/a	n/a
3246.256	n/a	PROB	1623128	n/a	LTP090	ltpFR	11	n/a	n/a	n/a	n/a	n/a	n/a	15	5	1	9	n/a	n/a	n/a	n/a	n/a
3248.014	n/a	PROB	1624007	n/a	LTP090	ltpFR	11	n/a	n/a	n/a	n/a	n/a	n/a	13	3	9	1	n/a	n/a	n/a	n/a	n/a
3249.336	n/a	STOP	1624668	n/a	LTP090	ltpFR	11	n/a	n/a	n/a	n/a	n/a	n/a	n/a	n/a	n/a	n/a	n/a	n/a	n/a	n/a	n/a
3250.694	n/a	WORD	1625347	wordpools/wasnorm_wordpool.txt	LTP090	ltpFR	11	11	0	ROUGE	1213	n/a	1	n/a	0	0	0	0	0.5869140625	0.422607421875	upper	../fonts/amplitud.ttf
3253.7	n/a	START	1626850	n/a	LTP090	ltpFR	11	n/a	n/a	n/a	n/a	n/a	n/a	n/a	n/a	n/a	n/a	n/a	n/a	n/a	n/a	n/a
3254.832	n/a	PROB	1627416	n/a	LTP090	ltpFR	11	n/a	n/a	n/a	n/a	n/a	n/a	11	4	1	6	n/a	n/a	n/a	n/a	n/a
3257.902	n/a	PROB	1628951	n/a	LTP090	ltpFR	11	n/a	n/a	n/a	n/a	n/a	n/a	21	7	6	9	n/a	n/a	n/a	n/a	n/a
3260.944	n/a	STOP	1630472	n/a	LTP090	ltpFR	11	n/a	n/a	n/a	n/a	n/a	n/a	n/a	n/a	n/a	n/a	n/a	n/a	n/a	n/a	n/a
3262.554	n/a	WORD	1631277	wordpools/wasnorm_wordpool.txt	LTP090	ltpFR	11	11	0	BANQUET	86	n/a	1	n/a	0	0	0	0	0.5869140625	0.422607421875	upper	../fonts/amplitud.ttf
3265.56	n/a	START	1632780	n/a	LTP090	ltpFR	11	n/a	n/a	n/a	n/a	n/a	n/a	n/a	n/a	n/a	n/a	n/a	n/a	n/a	n/a	n/a
3266.484	n/a	PROB	1633242	n/a	LTP090	ltpFR	11	n/a	n/a	n/a	n/a	n/a	n/a	12	3	2	7	n/a	n/a	n/a	n/a	n/a
3267.842	n/a	PROB	1633921	n/a	LTP090	ltpFR	11	n/a	n/a	n/a	n/a	n/a	n/a	10	6	1	3	n/a	n/a	n/a	n/a	n/a
3269.906	n/a	PROB	1634953	n/a	LTP090	ltpFR	11	n/a	n/a	n/a	n/a	n/a	n/a	13	1	9	3	n/a	n/a	n/a	n/a	n/a
3271.178	n/a	PROB	1635589	n/a	LTP090	ltpFR	11	n/a	n/a	n/a	n/a	n/a	n/a	19	7	3	9	n/a	n/a	n/a	n/a	n/a
3272.336	n/a	STOP	1636168	n/a	LTP090	ltpFR	11	n/a	n/a	n/a	n/a	n/a	n/a	n/a	n/a	n/a	n/a	n/a	n/a	n/a	n/a	n/a
3274.598	n/a	WORD	1637299	wordpools/wasnorm_wordpool.txt	LTP090	ltpFR	11	11	0	BINDER	127	n/a	0	n/a	0	0	0	0	0.5869140625	0.422607421875	upper	../fonts/amplitud.ttf
3277.604	n/a	START	1638802	n/a	LTP090	ltpFR	11	n/a	n/a	n/a	n/a	n/a	n/a	n/a	n/a	n/a	n/a	n/a	n/a	n/a	n/a	n/a
3278.786	n/a	PROB	1639393	n/a	LTP090	ltpFR	11	n/a	n/a	n/a	n/a	n/a	n/a	13	4	3	6	n/a	n/a	n/a	n/a	n/a
3281.174	n/a	PROB	1640587	n/a	LTP090	ltpFR	11	n/a	n/a	n/a	n/a	n/a	n/a	15	5	4	6	n/a	n/a	n/a	n/a	n/a
3284.264	n/a	STOP	1642132	n/a	LTP090	ltpFR	11	n/a	n/a	n/a	n/a	n/a	n/a	n/a	n/a	n/a	n/a	n/a	n/a	n/a	n/a	n/a
3286.768	n/a	WORD	1643384	wordpools/wasnorm_wordpool.txt	LTP090	ltpFR	11	11	0	BOOK	149	n/a	0	n/a	0	0	0	0	0.5869140625	0.422607421875	upper	../fonts/amplitud.ttf
3289.774	n/a	START	1644887	n/a	LTP090	ltpFR	11	n/a	n/a	n/a	n/a	n/a	n/a	n/a	n/a	n/a	n/a	n/a	n/a	n/a	n/a	n/a
3290.748	n/a	PROB	1645374	n/a	LTP090	ltpFR	11	n/a	n/a	n/a	n/a	n/a	n/a	12	2	5	5	n/a	n/a	n/a	n/a	n/a
3292.154	n/a	PROB	1646077	n/a	LTP090	ltpFR	11	n/a	n/a	n/a	n/a	n/a	n/a	18	4	6	8	n/a	n/a	n/a	n/a	n/a
3293.576	n/a	PROB	1646788	n/a	LTP090	ltpFR	11	n/a	n/a	n/a	n/a	n/a	n/a	23	7	9	7	n/a	n/a	n/a	n/a	n/a
3296.376	n/a	STOP	1648188	n/a	LTP090	ltpFR	11	n/a	n/a	n/a	n/a	n/a	n/a	n/a	n/a	n/a	n/a	n/a	n/a	n/a	n/a	n/a
3298.846	n/a	WORD	1649423	wordpools/wasnorm_wordpool.txt	LTP090	ltpFR	11	11	0	CASKET	255	n/a	0	n/a	0	0	0	0	0.5869140625	0.422607421875	upper	../fonts/amplitud.ttf
3301.852	n/a	START	1650926	n/a	LTP090	ltpFR	11	n/a	n/a	n/a	n/a	n/a	n/a	n/a	n/a	n/a	n/a	n/a	n/a	n/a	n/a	n/a
3302.942	n/a	PROB	1651471	n/a	LTP090	ltpFR	11	n/a	n/a	n/a	n/a	n/a	n/a	20	8	6	6	n/a	n/a	n/a	n/a	n/a
3305.246	n/a	PROB	1652623	n/a	LTP090	ltpFR	11	n/a	n/a	n/a	n/a	n/a	n/a	5	1	2	2	n/a	n/a	n/a	n/a	n/a
3306.704	n/a	PROB	1653352	n/a	LTP090	ltpFR	11	n/a	n/a	n/a	n/a	n/a	n/a	15	7	6	2	n/a	n/a	n/a	n/a	n/a
3308.4	n/a	STOP	1654200	n/a	LTP090	ltpFR	11	n/a	n/a	n/a	n/a	n/a	n/a	n/a	n/a	n/a	n/a	n/a	n/a	n/a	n/a	n/a
3310.95	n/a	WORD	1655475	wordpools/wasnorm_wordpool.txt	LTP090	ltpFR	11	11	0	SKIN	1318	n/a	0	n/a	0	0	0	0	0.5869140625	0.422607421875	upper	../fonts/amplitud.ttf
3313.954	n/a	START	1656977	n/a	LTP090	ltpFR	11	n/a	n/a	n/a	n/a	n/a	n/a	n/a	n/a	n/a	n/a	n/a	n/a	n/a	n/a	n/a
3314.878	n/a	PROB	1657439	n/a	LTP090	ltpFR	11	n/a	n/a	n/a	n/a	n/a	n/a	12	3	7	2	n/a	n/a	n/a	n/a	n/a
3316.142	n/a	PROB	1658071	n/a	LTP090	ltpFR	11	n/a	n/a	n/a	n/a	n/a	n/a	18	8	7	3	n/a	n/a	n/a	n/a	n/a
3317.424	n/a	PROB	1658712	n/a	LTP090	ltpFR	11	n/a	n/a	n/a	n/a	n/a	n/a	13	3	7	3	n/a	n/a	n/a	n/a	n/a
3318.806	n/a	PROB	1659403	n/a	LTP090	ltpFR	11	n/a	n/a	n/a	n/a	n/a	n/a	17	6	5	6	n/a	n/a	n/a	n/a	n/a
3321.746	n/a	STOP	1660873	n/a	LTP090	ltpFR	11	n/a	n/a	n/a	n/a	n/a	n/a	n/a	n/a	n/a	n/a	n/a	n/a	n/a	n/a	n/a
3322.986	n/a	WORD	1661493	wordpools/wasnorm_wordpool.txt	LTP090	ltpFR	11	11	0	COUNTY	389	n/a	1	n/a	0	0	0	0	0.5869140625	0.422607421875	upper	../fonts/amplitud.ttf
3325.992	n/a	START	1662996	n/a	LTP090	ltpFR	11	n/a	n/a	n/a	n/a	n/a	n/a	n/a	n/a	n/a	n/a	n/a	n/a	n/a	n/a	n/a
3326.974	n/a	PROB	1663487	n/a	LTP090	ltpFR	11	n/a	n/a	n/a	n/a	n/a	n/a	17	7	6	4	n/a	n/a	n/a	n/a	n/a
3329.728	n/a	PROB	1664864	n/a	LTP090	ltpFR	11	n/a	n/a	n/a	n/a	n/a	n/a	15	9	3	3	n/a	n/a	n/a	n/a	n/a
3333.992	n/a	STOP	1666996	n/a	LTP090	ltpFR	11	n/a	n/a	n/a	n/a	n/a	n/a	n/a	n/a	n/a	n/a	n/a	n/a	n/a	n/a	n/a
3335.096	n/a	WORD	1667548	wordpools/wasnorm_wordpool.txt	LTP090	ltpFR	11	11	0	JOKER	759	n/a	1	n/a	0	0	0	0	0.5869140625	0.422607421875	upper	../fonts/amplitud.ttf
3338.102	n/a	START	1669051	n/a	LTP090	ltpFR	11	n/a	n/a	n/a	n/a	n/a	n/a	n/a	n/a	n/a	n/a	n/a	n/a	n/a	n/a	n/a
3338.918	n/a	PROB	1669459	n/a	LTP090	ltpFR	11	n/a	n/a	n/a	n/a	n/a	n/a	22	8	5	9	n/a	n/a	n/a	n/a	n/a
3341.288	n/a	PROB	1670644	n/a	LTP090	ltpFR	11	n/a	n/a	n/a	n/a	n/a	n/a	19	5	6	8	n/a	n/a	n/a	n/a	n/a
3343.37	n/a	PROB	1671685	n/a	LTP090	ltpFR	11	n/a	n/a	n/a	n/a	n/a	n/a	8	5	2	1	n/a	n/a	n/a	n/a	n/a
3344.85	n/a	STOP	1672425	n/a	LTP090	ltpFR	11	n/a	n/a	n/a	n/a	n/a	n/a	n/a	n/a	n/a	n/a	n/a	n/a	n/a	n/a	n/a
3347.016	n/a	WORD	1673508	wordpools/wasnorm_wordpool.txt	LTP090	ltpFR	11	11	0	CONTRACT	368	n/a	0	n/a	0	0	0	0	0.5869140625	0.422607421875	upper	../fonts/amplitud.ttf
3350.022	n/a	START	1675011	n/a	LTP090	ltpFR	11	n/a	n/a	n/a	n/a	n/a	n/a	n/a	n/a	n/a	n/a	n/a	n/a	n/a	n/a	n/a
3350.996	n/a	PROB	1675498	n/a	LTP090	ltpFR	11	n/a	n/a	n/a	n/a	n/a	n/a	18	7	7	4	n/a	n/a	n/a	n/a	n/a
3353.01	n/a	PROB	1676505	n/a	LTP090	ltpFR	11	n/a	n/a	n/a	n/a	n/a	n/a	11	2	3	6	n/a	n/a	n/a	n/a	n/a
3354.616	n/a	PROB	1677308	n/a	LTP090	ltpFR	11	n/a	n/a	n/a	n/a	n/a	n/a	13	9	1	3	n/a	n/a	n/a	n/a	n/a
3356.014	n/a	PROB	1678007	n/a	LTP090	ltpFR	11	n/a	n/a	n/a	n/a	n/a	n/a	17	8	5	4	n/a	n/a	n/a	n/a	n/a
3357.794	n/a	STOP	1678897	n/a	LTP090	ltpFR	11	n/a	n/a	n/a	n/a	n/a	n/a	n/a	n/a	n/a	n/a	n/a	n/a	n/a	n/a	n/a
3359.184	n/a	WORD	1679592	wordpools/wasnorm_wordpool.txt	LTP090	ltpFR	11	11	0	OINTMENT	974	n/a	0	n/a	0	0	0	0	0.5869140625	0.422607421875	upper	../fonts/amplitud.ttf
3362.19	n/a	START	1681095	n/a	LTP090	ltpFR	11	n/a	n/a	n/a	n/a	n/a	n/a	n/a	n/a	n/a	n/a	n/a	n/a	n/a	n/a	n/a
3363.014	n/a	PROB	1681507	n/a	LTP090	ltpFR	11	n/a	n/a	n/a	n/a	n/a	n/a	8	2	3	3	n/a	n/a	n/a	n/a	n/a
3365.452	n/a	PROB	1682726	n/a	LTP090	ltpFR	11	n/a	n/a	n/a	n/a	n/a	n/a	14	6	1	7	n/a	n/a	n/a	n/a	n/a
3367.018	n/a	PROB	1683509	n/a	LTP090	ltpFR	11	n/a	n/a	n/a	n/a	n/a	n/a	14	8	4	2	n/a	n/a	n/a	n/a	n/a
3370.19	n/a	STOP	1685095	n/a	LTP090	ltpFR	11	n/a	n/a	n/a	n/a	n/a	n/a	n/a	n/a	n/a	n/a	n/a	n/a	n/a	n/a	n/a
3371.98	n/a	REC_START	1685990	n/a	LTP090	ltpFR	11	11	n/a	n/a	n/a	n/a	n/a	n/a	0	0	0	n/a	n/a	n/a	n/a	n/a
3374.324	n/a	REC_WORD	1687162	wordpools/wasnorm_wordpool.txt	LTP090	ltpFR	11	11	0	OINTMENT	974	n/a	0	n/a	0	0	0	n/a	n/a	n/a	n/a	n/a
3376.888	n/a	REC_WORD	1688444	wordpools/wasnorm_wordpool.txt	LTP090	ltpFR	11	11	0	BINDER	127	n/a	0	n/a	0	0	0	n/a	n/a	n/a	n/a	n/a
3378.434	n/a	REC_WORD	1689217	wordpools/wasnorm_wordpool.txt	LTP090	ltpFR	11	11	0	CONTRACT	368	n/a	0	n/a	0	0	0	n/a	n/a	n/a	n/a	n/a
3379.434	n/a	REC_WORD_VV	1689717	wordpools/wasnorm_wordpool.txt	LTP090	ltpFR	11	11	n/a	<>	-1	n/a	n/a	n/a	0	0	0	n/a	n/a	n/a	n/a	n/a
3380.03	n/a	REC_WORD	1690015	wordpools/wasnorm_wordpool.txt	LTP090	ltpFR	11	11	0	ROUGE	1213	n/a	1	n/a	0	0	0	n/a	n/a	n/a	n/a	n/a
3384.086	n/a	REC_WORD	1692043	wordpools/wasnorm_wordpool.txt	LTP090	ltpFR	11	11	0	BANQUET	86	n/a	1	n/a	0	0	0	n/a	n/a	n/a	n/a	n/a
3385.742	n/a	REC_WORD	1692871	wordpools/wasnorm_wordpool.txt	LTP090	ltpFR	11	11	0	CHEF	290	n/a	1	n/a	0	0	0	n/a	n/a	n/a	n/a	n/a
3386.896	n/a	REC_WORD	1693448	wordpools/wasnorm_wordpool.txt	LTP090	ltpFR	11	11	0	LIBRARY	816	n/a	1	n/a	0	0	0	n/a	n/a	n/a	n/a	n/a
3388.452	n/a	REC_WORD	1694226	wordpools/wasnorm_wordpool.txt	LTP090	ltpFR	11	11	0	BOOK	149	n/a	0	n/a	0	0	0	n/a	n/a	n/a	n/a	n/a
3389.574	n/a	REC_WORD	1694787	wordpools/wasnorm_wordpool.txt	LTP090	ltpFR	11	11	0	DIARY	460	n/a	0	n/a	0	0	0	n/a	n/a	n/a	n/a	n/a
3391.19	n/a	REC_WORD	1695595	wordpools/wasnorm_wordpool.txt	LTP090	ltpFR	11	11	0	CABINET	212	n/a	1	n/a	0	0	0	n/a	n/a	n/a	n/a	n/a
3392.882	n/a	REC_WORD	1696441	wordpools/wasnorm_wordpool.txt	LTP090	ltpFR	11	11	0	DOOR	486	n/a	1	n/a	0	0	0	n/a	n/a	n/a	n/a	n/a
