onset	duration	trial_type	sample	stim_file	subject	experiment	session	trial	task	item_name	item_num	recog_resp	recog_conf	resp	color_r	color_g	color_b	case	font
333.382	n/a	SESS_START	166691	n/a	LTP087	ltpFR	0	n/a	n/a	n/a	n/a	0	5	n/a	n/a	n/a	n/a	n/a	n/a
388.55	n/a	WORD	194275	wordpools/wasnorm_wordpool.txt	LTP087	ltpFR	0	1	-1	HORSE	719	0	n/a	-1	1.0	1.0	1	upper	Verdana.ttf
392.382	n/a	WORD	196191	wordpools/wasnorm_wordpool.txt	LTP087	ltpFR	0	1	-1	POLICE	1098	n/a	n/a	-1	1.0	1.0	1	upper	Verdana.ttf
396.524	n/a	WORD	198262	wordpools/wasnorm_wordpool.txt	LTP087	ltpFR	0	1	-1	SUSPECT	1415	n/a	n/a	-1	1.0	1.0	1	upper	Verdana.ttf
400.606	n/a	WORD	200303	wordpools/wasnorm_wordpool.txt	LTP087	ltpFR	0	1	-1	FRIAR	605	n/a	n/a	-1	1.0	1.0	1	upper	Verdana.ttf
404.724	n/a	WORD	202362	wordpools/wasnorm_wordpool.txt	LTP087	ltpFR	0	1	-1	EARRING	514	n/a	n/a	-1	1.0	1.0	1	upper	Verdana.ttf
408.758	n/a	WORD	204379	wordpools/wasnorm_wordpool.txt	LTP087	ltpFR	0	1	-1	PRODUCER	1129	n/a	n/a	-1	1.0	1.0	1	upper	Verdana.ttf
412.824	n/a	WORD	206412	wordpools/wasnorm_wordpool.txt	LTP087	ltpFR	0	1	-1	COP	376	n/a	n/a	-1	1.0	1.0	1	upper	Verdana.ttf
416.93	n/a	WORD	208465	wordpools/wasnorm_wordpool.txt	LTP087	ltpFR	0	1	-1	SHRINE	1298	n/a	n/a	-1	1.0	1.0	1	upper	Verdana.ttf
420.964	n/a	WORD	210482	wordpools/wasnorm_wordpool.txt	LTP087	ltpFR	0	1	-1	MOVIE	927	n/a	n/a	-1	1.0	1.0	1	upper	Verdana.ttf
425.13	n/a	WORD	212565	wordpools/wasnorm_wordpool.txt	LTP087	ltpFR	0	1	-1	OCEAN	970	n/a	n/a	-1	1.0	1.0	1	upper	Verdana.ttf
429.264	n/a	WORD	214632	wordpools/wasnorm_wordpool.txt	LTP087	ltpFR	0	1	-1	SHRIMP	1297	n/a	n/a	-1	1.0	1.0	1	upper	Verdana.ttf
433.406	n/a	WORD	216703	wordpools/wasnorm_wordpool.txt	LTP087	ltpFR	0	1	-1	AIRCRAFT	11	n/a	n/a	-1	1.0	1.0	1	upper	Verdana.ttf
437.304	n/a	WORD	218652	wordpools/wasnorm_wordpool.txt	LTP087	ltpFR	0	1	-1	WAREHOUSE	1588	n/a	n/a	-1	1.0	1.0	1	upper	Verdana.ttf
441.254	n/a	WORD	220627	wordpools/wasnorm_wordpool.txt	LTP087	ltpFR	0	1	-1	BUILDING	191	n/a	n/a	-1	1.0	1.0	1	upper	Verdana.ttf
445.08	n/a	WORD	222540	wordpools/wasnorm_wordpool.txt	LTP087	ltpFR	0	1	-1	FOOTBALL	591	n/a	n/a	-1	1.0	1.0	1	upper	Verdana.ttf
449.13	n/a	WORD	224565	wordpools/wasnorm_wordpool.txt	LTP087	ltpFR	0	1	-1	STADIUM	1364	n/a	n/a	-1	1.0	1.0	1	upper	Verdana.ttf
455.156	n/a	REC_START	227578	n/a	LTP087	ltpFR	0	1	n/a	n/a	n/a	n/a	n/a	n/a	n/a	n/a	n/a	n/a	n/a
455.854	n/a	REC_WORD	227927	wordpools/wasnorm_wordpool.txt	LTP087	ltpFR	0	1	-1	STADIUM	1364	n/a	n/a	-1	n/a	n/a	n/a	n/a	n/a
457.466	n/a	REC_WORD	228733	wordpools/wasnorm_wordpool.txt	LTP087	ltpFR	0	1	-1	WAREHOUSE	1588	n/a	n/a	-1	n/a	n/a	n/a	n/a	n/a
458.732	n/a	REC_WORD	229366	wordpools/wasnorm_wordpool.txt	LTP087	ltpFR	0	1	-1	POLICE	1098	n/a	n/a	-1	n/a	n/a	n/a	n/a	n/a
460.004	n/a	REC_WORD	230002	wordpools/wasnorm_wordpool.txt	LTP087	ltpFR	0	1	-1	COP	376	n/a	n/a	-1	n/a	n/a	n/a	n/a	n/a
461.136	n/a	REC_WORD	230568	wordpools/wasnorm_wordpool.txt	LTP087	ltpFR	0	1	-1	SUSPECT	1415	n/a	n/a	-1	n/a	n/a	n/a	n/a	n/a
462.424	n/a	REC_WORD	231212	wordpools/wasnorm_wordpool.txt	LTP087	ltpFR	0	1	-1	HORSE	719	n/a	n/a	-1	n/a	n/a	n/a	n/a	n/a
467.184	n/a	REC_WORD	233592	wordpools/wasnorm_wordpool.txt	LTP087	ltpFR	0	1	-1	SHRIMP	1297	n/a	n/a	-1	n/a	n/a	n/a	n/a	n/a
475.27	n/a	REC_WORD	237635	wordpools/wasnorm_wordpool.txt	LTP087	ltpFR	0	1	-1	FRIAR	605	n/a	n/a	-1	n/a	n/a	n/a	n/a	n/a
509.65	n/a	REC_WORD	254825	wordpools/wasnorm_wordpool.txt	LTP087	ltpFR	0	1	-1	BUILDING	191	n/a	n/a	-1	n/a	n/a	n/a	n/a	n/a
517.432	n/a	REC_WORD	258716	wordpools/wasnorm_wordpool.txt	LTP087	ltpFR	0	1	-1	EARRING	514	n/a	n/a	-1	n/a	n/a	n/a	n/a	n/a
534.328	n/a	WORD	267164	wordpools/wasnorm_wordpool.txt	LTP087	ltpFR	0	2	-1	LUNCH	849	n/a	n/a	-1	1.0	1.0	1	upper	Verdana.ttf
538.244	n/a	WORD	269122	wordpools/wasnorm_wordpool.txt	LTP087	ltpFR	0	2	-1	MEAL	882	n/a	n/a	-1	1.0	1.0	1	upper	Verdana.ttf
542.078	n/a	WORD	271039	wordpools/wasnorm_wordpool.txt	LTP087	ltpFR	0	2	-1	CELLAR	267	n/a	n/a	-1	1.0	1.0	1	upper	Verdana.ttf
546.228	n/a	WORD	273114	wordpools/wasnorm_wordpool.txt	LTP087	ltpFR	0	2	-1	BASEMENT	94	n/a	n/a	-1	1.0	1.0	1	upper	Verdana.ttf
550.404	n/a	WORD	275202	wordpools/wasnorm_wordpool.txt	LTP087	ltpFR	0	2	-1	PELT	1040	n/a	n/a	-1	1.0	1.0	1	upper	Verdana.ttf
554.294	n/a	WORD	277147	wordpools/wasnorm_wordpool.txt	LTP087	ltpFR	0	2	-1	CANYON	235	n/a	n/a	-1	1.0	1.0	1	upper	Verdana.ttf
558.378	n/a	WORD	279189	wordpools/wasnorm_wordpool.txt	LTP087	ltpFR	0	2	-1	LIST	830	n/a	n/a	-1	1.0	1.0	1	upper	Verdana.ttf
562.386	n/a	WORD	281193	wordpools/wasnorm_wordpool.txt	LTP087	ltpFR	0	2	-1	ATHLETE	52	n/a	n/a	-1	1.0	1.0	1	upper	Verdana.ttf
566.294	n/a	WORD	283147	wordpools/wasnorm_wordpool.txt	LTP087	ltpFR	0	2	-1	HOOK	715	n/a	n/a	-1	1.0	1.0	1	upper	Verdana.ttf
570.344	n/a	WORD	285172	wordpools/wasnorm_wordpool.txt	LTP087	ltpFR	0	2	-1	HERB	704	n/a	n/a	-1	1.0	1.0	1	upper	Verdana.ttf
574.176	n/a	WORD	287088	wordpools/wasnorm_wordpool.txt	LTP087	ltpFR	0	2	-1	HEDGE	699	n/a	n/a	-1	1.0	1.0	1	upper	Verdana.ttf
578.01	n/a	WORD	289005	wordpools/wasnorm_wordpool.txt	LTP087	ltpFR	0	2	-1	LION	827	n/a	n/a	-1	1.0	1.0	1	upper	Verdana.ttf
581.836	n/a	WORD	290918	wordpools/wasnorm_wordpool.txt	LTP087	ltpFR	0	2	-1	PEBBLE	1035	n/a	n/a	-1	1.0	1.0	1	upper	Verdana.ttf
585.778	n/a	WORD	292889	wordpools/wasnorm_wordpool.txt	LTP087	ltpFR	0	2	-1	NAPKIN	937	n/a	n/a	-1	1.0	1.0	1	upper	Verdana.ttf
589.76	n/a	WORD	294880	wordpools/wasnorm_wordpool.txt	LTP087	ltpFR	0	2	-1	SHEET	1279	n/a	n/a	-1	1.0	1.0	1	upper	Verdana.ttf
593.636	n/a	WORD	296818	wordpools/wasnorm_wordpool.txt	LTP087	ltpFR	0	2	-1	LEOPARD	812	n/a	n/a	-1	1.0	1.0	1	upper	Verdana.ttf
599.352	n/a	REC_START	299676	n/a	LTP087	ltpFR	0	2	n/a	n/a	n/a	n/a	n/a	n/a	n/a	n/a	n/a	n/a	n/a
600.354	n/a	REC_WORD	300177	wordpools/wasnorm_wordpool.txt	LTP087	ltpFR	0	2	-1	LEOPARD	812	n/a	n/a	-1	n/a	n/a	n/a	n/a	n/a
602.46	n/a	REC_WORD	301230	wordpools/wasnorm_wordpool.txt	LTP087	ltpFR	0	2	-1	SHEET	1279	n/a	n/a	-1	n/a	n/a	n/a	n/a	n/a
610.182	n/a	REC_WORD	305091	wordpools/wasnorm_wordpool.txt	LTP087	ltpFR	0	2	-1	HOOK	715	n/a	n/a	-1	n/a	n/a	n/a	n/a	n/a
614.892	n/a	REC_WORD	307446	wordpools/wasnorm_wordpool.txt	LTP087	ltpFR	0	2	-1	LUNCH	849	n/a	n/a	-1	n/a	n/a	n/a	n/a	n/a
616.09	n/a	REC_WORD	308045	wordpools/wasnorm_wordpool.txt	LTP087	ltpFR	0	2	-1	MEAL	882	n/a	n/a	-1	n/a	n/a	n/a	n/a	n/a
618.784	n/a	REC_WORD	309392	wordpools/wasnorm_wordpool.txt	LTP087	ltpFR	0	2	-1	BASEMENT	94	n/a	n/a	-1	n/a	n/a	n/a	n/a	n/a
620.224	n/a	REC_WORD	310112	wordpools/wasnorm_wordpool.txt	LTP087	ltpFR	0	2	-1	PELT	1040	n/a	n/a	-1	n/a	n/a	n/a	n/a	n/a
678.016	n/a	WORD	339008	wordpools/wasnorm_wordpool.txt	LTP087	ltpFR	0	3	-1	CARROT	249	n/a	n/a	-1	1.0	1.0	1	upper	Verdana.ttf
682.166	n/a	WORD	341083	wordpools/wasnorm_wordpool.txt	LTP087	ltpFR	0	3	-1	BANANA	77	n/a	n/a	-1	1.0	1.0	1	upper	Verdana.ttf
686.1	n/a	WORD	343050	wordpools/wasnorm_wordpool.txt	LTP087	ltpFR	0	3	-1	PIE	1062	n/a	n/a	-1	1.0	1.0	1	upper	Verdana.ttf
690.098	n/a	WORD	345049	wordpools/wasnorm_wordpool.txt	LTP087	ltpFR	0	3	-1	STAKE	1368	n/a	n/a	-1	1.0	1.0	1	upper	Verdana.ttf
694.106	n/a	WORD	347053	wordpools/wasnorm_wordpool.txt	LTP087	ltpFR	0	3	-1	BEAD	103	n/a	n/a	-1	1.0	1.0	1	upper	Verdana.ttf
698.24	n/a	WORD	349120	wordpools/wasnorm_wordpool.txt	LTP087	ltpFR	0	3	-1	IDOL	733	n/a	n/a	-1	1.0	1.0	1	upper	Verdana.ttf
702.398	n/a	WORD	351199	wordpools/wasnorm_wordpool.txt	LTP087	ltpFR	0	3	-1	STAR	1373	n/a	n/a	-1	1.0	1.0	1	upper	Verdana.ttf
706.298	n/a	WORD	353149	wordpools/wasnorm_wordpool.txt	LTP087	ltpFR	0	3	-1	BUBBLE	183	n/a	n/a	-1	1.0	1.0	1	upper	Verdana.ttf
710.216	n/a	WORD	355108	wordpools/wasnorm_wordpool.txt	LTP087	ltpFR	0	3	-1	BATHTUB	100	n/a	n/a	-1	1.0	1.0	1	upper	Verdana.ttf
714.29	n/a	WORD	357145	wordpools/wasnorm_wordpool.txt	LTP087	ltpFR	0	3	-1	NECKLACE	940	n/a	n/a	-1	1.0	1.0	1	upper	Verdana.ttf
718.424	n/a	WORD	359212	wordpools/wasnorm_wordpool.txt	LTP087	ltpFR	0	3	-1	MOP	916	n/a	n/a	-1	1.0	1.0	1	upper	Verdana.ttf
722.382	n/a	WORD	361191	wordpools/wasnorm_wordpool.txt	LTP087	ltpFR	0	3	-1	SERGEANT	1269	n/a	n/a	-1	1.0	1.0	1	upper	Verdana.ttf
726.274	n/a	WORD	363137	wordpools/wasnorm_wordpool.txt	LTP087	ltpFR	0	3	-1	ARMY	39	n/a	n/a	-1	1.0	1.0	1	upper	Verdana.ttf
730.164	n/a	WORD	365082	wordpools/wasnorm_wordpool.txt	LTP087	ltpFR	0	3	-1	FENCE	560	n/a	n/a	-1	1.0	1.0	1	upper	Verdana.ttf
734.198	n/a	WORD	367099	wordpools/wasnorm_wordpool.txt	LTP087	ltpFR	0	3	-1	FLOOR	581	n/a	n/a	-1	1.0	1.0	1	upper	Verdana.ttf
738.322	n/a	WORD	369161	wordpools/wasnorm_wordpool.txt	LTP087	ltpFR	0	3	-1	LOLLIPOP	842	n/a	n/a	-1	1.0	1.0	1	upper	Verdana.ttf
744.248	n/a	REC_START	372124	n/a	LTP087	ltpFR	0	3	n/a	n/a	n/a	n/a	n/a	n/a	n/a	n/a	n/a	n/a	n/a
745.042	n/a	REC_WORD	372521	wordpools/wasnorm_wordpool.txt	LTP087	ltpFR	0	3	-1	LOLLIPOP	842	n/a	n/a	-1	n/a	n/a	n/a	n/a	n/a
746.288	n/a	REC_WORD	373144	wordpools/wasnorm_wordpool.txt	LTP087	ltpFR	0	3	-1	FLOOR	581	n/a	n/a	-1	n/a	n/a	n/a	n/a	n/a
757.01	n/a	REC_WORD	378505	wordpools/wasnorm_wordpool.txt	LTP087	ltpFR	0	3	-1	BATHTUB	100	n/a	n/a	-1	n/a	n/a	n/a	n/a	n/a
763.53	n/a	REC_WORD	381765	wordpools/wasnorm_wordpool.txt	LTP087	ltpFR	0	3	-1	PIE	1062	n/a	n/a	-1	n/a	n/a	n/a	n/a	n/a
764.408	n/a	REC_WORD	382204	wordpools/wasnorm_wordpool.txt	LTP087	ltpFR	0	3	-1	CARROT	249	n/a	n/a	-1	n/a	n/a	n/a	n/a	n/a
772.974	n/a	REC_WORD	386487	wordpools/wasnorm_wordpool.txt	LTP087	ltpFR	0	3	-1	SERGEANT	1269	n/a	n/a	-1	n/a	n/a	n/a	n/a	n/a
774.326	n/a	REC_WORD	387163	wordpools/wasnorm_wordpool.txt	LTP087	ltpFR	0	3	-1	ARMY	39	n/a	n/a	-1	n/a	n/a	n/a	n/a	n/a
782.288	n/a	REC_WORD	391144	wordpools/wasnorm_wordpool.txt	LTP087	ltpFR	0	3	-1	STAR	1373	n/a	n/a	-1	n/a	n/a	n/a	n/a	n/a
783.896	n/a	REC_WORD	391948	wordpools/wasnorm_wordpool.txt	LTP087	ltpFR	0	3	-1	BUBBLE	183	n/a	n/a	-1	n/a	n/a	n/a	n/a	n/a
825.406	n/a	WORD	412703	wordpools/wasnorm_wordpool.txt	LTP087	ltpFR	0	4	-1	TAPE	1433	n/a	n/a	-1	1.0	1.0	1	upper	Verdana.ttf
829.304	n/a	WORD	414652	wordpools/wasnorm_wordpool.txt	LTP087	ltpFR	0	4	-1	ELECTRICIAN	521	n/a	n/a	-1	1.0	1.0	1	upper	Verdana.ttf
833.404	n/a	WORD	416702	wordpools/wasnorm_wordpool.txt	LTP087	ltpFR	0	4	-1	PADDLE	1000	n/a	n/a	-1	1.0	1.0	1	upper	Verdana.ttf
837.228	n/a	WORD	418614	wordpools/wasnorm_wordpool.txt	LTP087	ltpFR	0	4	-1	ORGAN	984	n/a	n/a	-1	1.0	1.0	1	upper	Verdana.ttf
841.112	n/a	WORD	420556	wordpools/wasnorm_wordpool.txt	LTP087	ltpFR	0	4	-1	COTTAGE	384	n/a	n/a	-1	1.0	1.0	1	upper	Verdana.ttf
844.936	n/a	WORD	422468	wordpools/wasnorm_wordpool.txt	LTP087	ltpFR	0	4	-1	WINE	1613	n/a	n/a	-1	1.0	1.0	1	upper	Verdana.ttf
848.804	n/a	WORD	424402	wordpools/wasnorm_wordpool.txt	LTP087	ltpFR	0	4	-1	LUMBER	848	n/a	n/a	-1	1.0	1.0	1	upper	Verdana.ttf
852.762	n/a	WORD	426381	wordpools/wasnorm_wordpool.txt	LTP087	ltpFR	0	4	-1	BEAN	105	n/a	n/a	-1	1.0	1.0	1	upper	Verdana.ttf
856.596	n/a	WORD	428298	wordpools/wasnorm_wordpool.txt	LTP087	ltpFR	0	4	-1	SAUSAGE	1238	n/a	n/a	-1	1.0	1.0	1	upper	Verdana.ttf
860.486	n/a	WORD	430243	wordpools/wasnorm_wordpool.txt	LTP087	ltpFR	0	4	-1	OAR	966	n/a	n/a	-1	1.0	1.0	1	upper	Verdana.ttf
864.654	n/a	WORD	432327	wordpools/wasnorm_wordpool.txt	LTP087	ltpFR	0	4	-1	ANKLE	24	n/a	n/a	-1	1.0	1.0	1	upper	Verdana.ttf
868.562	n/a	WORD	434281	wordpools/wasnorm_wordpool.txt	LTP087	ltpFR	0	4	-1	ATTORNEY	58	n/a	n/a	-1	1.0	1.0	1	upper	Verdana.ttf
872.404	n/a	WORD	436202	wordpools/wasnorm_wordpool.txt	LTP087	ltpFR	0	4	-1	HANDBAG	684	n/a	n/a	-1	1.0	1.0	1	upper	Verdana.ttf
876.544	n/a	WORD	438272	wordpools/wasnorm_wordpool.txt	LTP087	ltpFR	0	4	-1	SANDPAPER	1231	n/a	n/a	-1	1.0	1.0	1	upper	Verdana.ttf
880.502	n/a	WORD	440251	wordpools/wasnorm_wordpool.txt	LTP087	ltpFR	0	4	-1	MECHANIC	884	n/a	n/a	-1	1.0	1.0	1	upper	Verdana.ttf
884.436	n/a	WORD	442218	wordpools/wasnorm_wordpool.txt	LTP087	ltpFR	0	4	-1	WHEEL	1603	n/a	n/a	-1	1.0	1.0	1	upper	Verdana.ttf
890.17	n/a	REC_START	445085	n/a	LTP087	ltpFR	0	4	n/a	n/a	n/a	n/a	n/a	n/a	n/a	n/a	n/a	n/a	n/a
891.052	n/a	REC_WORD	445526	wordpools/wasnorm_wordpool.txt	LTP087	ltpFR	0	4	-1	WHEEL	1603	n/a	n/a	-1	n/a	n/a	n/a	n/a	n/a
892.628	n/a	REC_WORD	446314	wordpools/wasnorm_wordpool.txt	LTP087	ltpFR	0	4	-1	MECHANIC	884	n/a	n/a	-1	n/a	n/a	n/a	n/a	n/a
894.65	n/a	REC_WORD	447325	wordpools/wasnorm_wordpool.txt	LTP087	ltpFR	0	4	-1	ORGAN	984	n/a	n/a	-1	n/a	n/a	n/a	n/a	n/a
902.572	n/a	REC_WORD	451286	wordpools/wasnorm_wordpool.txt	LTP087	ltpFR	0	4	-1	SANDPAPER	1231	n/a	n/a	-1	n/a	n/a	n/a	n/a	n/a
920.716	n/a	REC_WORD	460358	wordpools/wasnorm_wordpool.txt	LTP087	ltpFR	0	4	-1	WHEEL	1603	n/a	n/a	-1	n/a	n/a	n/a	n/a	n/a
932.15	n/a	REC_WORD	466075	wordpools/wasnorm_wordpool.txt	LTP087	ltpFR	0	4	-1	LUMBER	848	n/a	n/a	-1	n/a	n/a	n/a	n/a	n/a
1128.648	n/a	WORD	564324	wordpools/wasnorm_wordpool.txt	LTP087	ltpFR	0	5	1	TERMITE	1451	n/a	n/a	n/a	0.57763671875	0.412841796875	1	upper	amplitud.ttf
1131.672	n/a	SLOW_MSG	565836	n/a	LTP087	ltpFR	0	5	n/a	n/a	n/a	n/a	n/a	n/a	n/a	n/a	n/a	n/a	n/a
1134.104	n/a	WORD	567052	wordpools/wasnorm_wordpool.txt	LTP087	ltpFR	0	5	1	ONION	977	n/a	n/a	0	0.57763671875	0.412841796875	1	upper	amplitud.ttf
1138.028	n/a	WORD	569014	wordpools/wasnorm_wordpool.txt	LTP087	ltpFR	0	5	1	VISITOR	1573	n/a	n/a	1	0.57763671875	0.412841796875	1	upper	amplitud.ttf
1141.928	n/a	WORD	570964	wordpools/wasnorm_wordpool.txt	LTP087	ltpFR	0	5	1	TRIANGLE	1504	n/a	n/a	0	0.57763671875	0.412841796875	1	upper	amplitud.ttf
1145.88	n/a	WORD	572940	wordpools/wasnorm_wordpool.txt	LTP087	ltpFR	0	5	1	CYLINDER	432	n/a	n/a	0	0.57763671875	0.412841796875	1	upper	amplitud.ttf
1150.096	n/a	WORD	575048	wordpools/wasnorm_wordpool.txt	LTP087	ltpFR	0	5	1	SALESMAN	1225	n/a	n/a	1	0.57763671875	0.412841796875	1	upper	amplitud.ttf
1154.004	n/a	WORD	577002	wordpools/wasnorm_wordpool.txt	LTP087	ltpFR	0	5	1	BUGGY	188	n/a	n/a	1	0.57763671875	0.412841796875	1	upper	amplitud.ttf
1157.986	n/a	WORD	578993	wordpools/wasnorm_wordpool.txt	LTP087	ltpFR	0	5	1	CUCUMBER	421	n/a	n/a	0	0.57763671875	0.412841796875	1	upper	amplitud.ttf
1162.178	n/a	WORD	581089	wordpools/wasnorm_wordpool.txt	LTP087	ltpFR	0	5	1	GYMNAST	675	n/a	n/a	1	0.57763671875	0.412841796875	1	upper	amplitud.ttf
1165.996	n/a	WORD	582998	wordpools/wasnorm_wordpool.txt	LTP087	ltpFR	0	5	1	BUCKET	184	n/a	n/a	0	0.57763671875	0.412841796875	1	upper	amplitud.ttf
1169.954	n/a	WORD	584977	wordpools/wasnorm_wordpool.txt	LTP087	ltpFR	0	5	1	SURF	1412	n/a	n/a	0	0.57763671875	0.412841796875	1	upper	amplitud.ttf
1173.838	n/a	WORD	586919	wordpools/wasnorm_wordpool.txt	LTP087	ltpFR	0	5	1	SEED	1266	n/a	n/a	0	0.57763671875	0.412841796875	1	upper	amplitud.ttf
1177.72	n/a	WORD	588860	wordpools/wasnorm_wordpool.txt	LTP087	ltpFR	0	5	1	STRAW	1390	n/a	n/a	0	0.57763671875	0.412841796875	1	upper	amplitud.ttf
1181.662	n/a	WORD	590831	wordpools/wasnorm_wordpool.txt	LTP087	ltpFR	0	5	1	GARLIC	624	n/a	n/a	0	0.57763671875	0.412841796875	1	upper	amplitud.ttf
1185.762	n/a	WORD	592881	wordpools/wasnorm_wordpool.txt	LTP087	ltpFR	0	5	1	ASSOCIATE	49	n/a	n/a	0	0.57763671875	0.412841796875	1	upper	amplitud.ttf
1189.612	n/a	WORD	594806	wordpools/wasnorm_wordpool.txt	LTP087	ltpFR	0	5	1	BANDANNA	80	n/a	n/a	0	0.57763671875	0.412841796875	1	upper	amplitud.ttf
1195.244	n/a	REC_START	597622	n/a	LTP087	ltpFR	0	5	n/a	n/a	n/a	n/a	n/a	n/a	n/a	n/a	n/a	n/a	n/a
1196.258	n/a	REC_WORD	598129	wordpools/wasnorm_wordpool.txt	LTP087	ltpFR	0	5	1	ASSOCIATE	49	n/a	n/a	0	n/a	n/a	n/a	n/a	n/a
1197.724	n/a	REC_WORD	598862	wordpools/wasnorm_wordpool.txt	LTP087	ltpFR	0	5	1	BANDANNA	80	n/a	n/a	0	n/a	n/a	n/a	n/a	n/a
1199.51	n/a	REC_WORD	599755	wordpools/wasnorm_wordpool.txt	LTP087	ltpFR	0	5	1	ONION	977	n/a	n/a	0	n/a	n/a	n/a	n/a	n/a
1200.742	n/a	REC_WORD	600371	wordpools/wasnorm_wordpool.txt	LTP087	ltpFR	0	5	1	GARLIC	624	n/a	n/a	0	n/a	n/a	n/a	n/a	n/a
1201.904	n/a	REC_WORD	600952	wordpools/wasnorm_wordpool.txt	LTP087	ltpFR	0	5	1	STRAW	1390	n/a	n/a	0	n/a	n/a	n/a	n/a	n/a
1203.76	n/a	REC_WORD	601880	wordpools/wasnorm_wordpool.txt	LTP087	ltpFR	0	5	1	SALESMAN	1225	n/a	n/a	1	n/a	n/a	n/a	n/a	n/a
1211.364	n/a	REC_WORD	605682	wordpools/wasnorm_wordpool.txt	LTP087	ltpFR	0	5	1	BUGGY	188	n/a	n/a	1	n/a	n/a	n/a	n/a	n/a
1218.866	n/a	REC_WORD	609433	wordpools/wasnorm_wordpool.txt	LTP087	ltpFR	0	5	1	TRIANGLE	1504	n/a	n/a	0	n/a	n/a	n/a	n/a	n/a
1223.836	n/a	REC_WORD	611918	wordpools/wasnorm_wordpool.txt	LTP087	ltpFR	0	5	1	CYLINDER	432	n/a	n/a	0	n/a	n/a	n/a	n/a	n/a
1265.724	n/a	REC_WORD	632862	wordpools/wasnorm_wordpool.txt	LTP087	ltpFR	0	5	1	CUCUMBER	421	n/a	n/a	0	n/a	n/a	n/a	n/a	n/a
1277.442	n/a	WORD	638721	wordpools/wasnorm_wordpool.txt	LTP087	ltpFR	0	6	1	COCKTAIL	338	n/a	n/a	0	0.57763671875	0.412841796875	1	upper	amplitud.ttf
1281.642	n/a	WORD	640821	wordpools/wasnorm_wordpool.txt	LTP087	ltpFR	0	6	1	LOUNGE	845	n/a	n/a	0	0.57763671875	0.412841796875	1	upper	amplitud.ttf
1285.552	n/a	WORD	642776	wordpools/wasnorm_wordpool.txt	LTP087	ltpFR	0	6	1	CARPENTER	246	n/a	n/a	1	0.57763671875	0.412841796875	1	upper	amplitud.ttf
1289.434	n/a	WORD	644717	wordpools/wasnorm_wordpool.txt	LTP087	ltpFR	0	6	1	FLESH	579	n/a	n/a	0	0.57763671875	0.412841796875	1	upper	amplitud.ttf
1293.334	n/a	WORD	646667	wordpools/wasnorm_wordpool.txt	LTP087	ltpFR	0	6	1	MOLECULE	905	n/a	n/a	1	0.57763671875	0.412841796875	1	upper	amplitud.ttf
1297.192	n/a	WORD	648596	wordpools/wasnorm_wordpool.txt	LTP087	ltpFR	0	6	1	LIZARD	834	n/a	n/a	1	0.57763671875	0.412841796875	1	upper	amplitud.ttf
1301.358	n/a	WORD	650679	wordpools/wasnorm_wordpool.txt	LTP087	ltpFR	0	6	1	HAT	690	n/a	n/a	0	0.57763671875	0.412841796875	1	upper	amplitud.ttf
1305.308	n/a	WORD	652654	wordpools/wasnorm_wordpool.txt	LTP087	ltpFR	0	6	1	SALOON	1228	n/a	n/a	0	0.57763671875	0.412841796875	1	upper	amplitud.ttf
1309.134	n/a	WORD	654567	wordpools/wasnorm_wordpool.txt	LTP087	ltpFR	0	6	1	ABDOMEN	1	n/a	n/a	0	0.57763671875	0.412841796875	1	upper	amplitud.ttf
1313.292	n/a	WORD	656646	wordpools/wasnorm_wordpool.txt	LTP087	ltpFR	0	6	1	BACK	65	n/a	n/a	0	0.57763671875	0.412841796875	1	upper	amplitud.ttf
1317.258	n/a	WORD	658629	wordpools/wasnorm_wordpool.txt	LTP087	ltpFR	0	6	1	TIMBER	1469	n/a	n/a	0	0.57763671875	0.412841796875	1	upper	amplitud.ttf
1321.374	n/a	WORD	660687	wordpools/wasnorm_wordpool.txt	LTP087	ltpFR	0	6	1	OPERA	978	n/a	n/a	0	0.57763671875	0.412841796875	1	upper	amplitud.ttf
1325.258	n/a	WORD	662629	wordpools/wasnorm_wordpool.txt	LTP087	ltpFR	0	6	1	CANARY	227	n/a	n/a	0	0.57763671875	0.412841796875	1	upper	amplitud.ttf
1329.324	n/a	WORD	664662	wordpools/wasnorm_wordpool.txt	LTP087	ltpFR	0	6	1	WINGS	1614	n/a	n/a	1	0.57763671875	0.412841796875	1	upper	amplitud.ttf
1333.208	n/a	WORD	666604	wordpools/wasnorm_wordpool.txt	LTP087	ltpFR	0	6	1	NEUTRON	947	n/a	n/a	1	0.57763671875	0.412841796875	1	upper	amplitud.ttf
1337.124	n/a	WORD	668562	wordpools/wasnorm_wordpool.txt	LTP087	ltpFR	0	6	1	SIRLOIN	1311	n/a	n/a	0	0.57763671875	0.412841796875	1	upper	amplitud.ttf
1342.774	n/a	REC_START	671387	n/a	LTP087	ltpFR	0	6	n/a	n/a	n/a	n/a	n/a	n/a	n/a	n/a	n/a	n/a	n/a
1343.558	n/a	REC_WORD	671779	wordpools/wasnorm_wordpool.txt	LTP087	ltpFR	0	6	1	SIRLOIN	1311	n/a	n/a	0	n/a	n/a	n/a	n/a	n/a
1355.098	n/a	REC_WORD	677549	wordpools/wasnorm_wordpool.txt	LTP087	ltpFR	0	6	1	SALOON	1228	n/a	n/a	0	n/a	n/a	n/a	n/a	n/a
1373.73	n/a	REC_WORD	686865	wordpools/wasnorm_wordpool.txt	LTP087	ltpFR	0	6	1	WINGS	1614	n/a	n/a	1	n/a	n/a	n/a	n/a	n/a
1379.028	n/a	REC_WORD	689514	wordpools/wasnorm_wordpool.txt	LTP087	ltpFR	0	6	1	NEUTRON	947	n/a	n/a	1	n/a	n/a	n/a	n/a	n/a
1384.936	n/a	REC_WORD	692468	wordpools/wasnorm_wordpool.txt	LTP087	ltpFR	0	6	1	ABDOMEN	1	n/a	n/a	0	n/a	n/a	n/a	n/a	n/a
1386.304	n/a	REC_WORD	693152	wordpools/wasnorm_wordpool.txt	LTP087	ltpFR	0	6	1	BACK	65	n/a	n/a	0	n/a	n/a	n/a	n/a	n/a
1409.96	n/a	REC_WORD	704980	wordpools/wasnorm_wordpool.txt	LTP087	ltpFR	0	6	1	OPERA	978	n/a	n/a	0	n/a	n/a	n/a	n/a	n/a
1424.972	n/a	WORD	712486	wordpools/wasnorm_wordpool.txt	LTP087	ltpFR	0	7	1	DINER	467	n/a	n/a	n/a	0.57763671875	0.412841796875	1	upper	amplitud.ttf
1427.996	n/a	SLOW_MSG	713998	n/a	LTP087	ltpFR	0	7	n/a	n/a	n/a	n/a	n/a	n/a	n/a	n/a	n/a	n/a	n/a
1430.664	n/a	WORD	715332	wordpools/wasnorm_wordpool.txt	LTP087	ltpFR	0	7	1	BIBLE	124	n/a	n/a	0	0.57763671875	0.412841796875	1	upper	amplitud.ttf
1434.53	n/a	WORD	717265	wordpools/wasnorm_wordpool.txt	LTP087	ltpFR	0	7	1	CABLE	213	n/a	n/a	0	0.57763671875	0.412841796875	1	upper	amplitud.ttf
1438.546	n/a	WORD	719273	wordpools/wasnorm_wordpool.txt	LTP087	ltpFR	0	7	1	OTTER	986	n/a	n/a	0	0.57763671875	0.412841796875	1	upper	amplitud.ttf
1442.714	n/a	WORD	721357	wordpools/wasnorm_wordpool.txt	LTP087	ltpFR	0	7	1	PAIL	1002	n/a	n/a	0	0.57763671875	0.412841796875	1	upper	amplitud.ttf
1446.914	n/a	WORD	723457	wordpools/wasnorm_wordpool.txt	LTP087	ltpFR	0	7	1	TURKEY	1520	n/a	n/a	1	0.57763671875	0.412841796875	1	upper	amplitud.ttf
1450.772	n/a	WORD	725386	wordpools/wasnorm_wordpool.txt	LTP087	ltpFR	0	7	1	CATHEDRAL	260	n/a	n/a	0	0.57763671875	0.412841796875	1	upper	amplitud.ttf
1454.664	n/a	WORD	727332	wordpools/wasnorm_wordpool.txt	LTP087	ltpFR	0	7	1	PICNIC	1060	n/a	n/a	0	0.57763671875	0.412841796875	1	upper	amplitud.ttf
1458.572	n/a	WORD	729286	wordpools/wasnorm_wordpool.txt	LTP087	ltpFR	0	7	1	HIKER	708	n/a	n/a	1	0.57763671875	0.412841796875	1	upper	amplitud.ttf
1462.48	n/a	WORD	731240	wordpools/wasnorm_wordpool.txt	LTP087	ltpFR	0	7	1	POSSUM	1112	n/a	n/a	0	0.57763671875	0.412841796875	1	upper	amplitud.ttf
1466.596	n/a	WORD	733298	wordpools/wasnorm_wordpool.txt	LTP087	ltpFR	0	7	1	MULE	931	n/a	n/a	0	0.57763671875	0.412841796875	1	upper	amplitud.ttf
1470.722	n/a	WORD	735361	wordpools/wasnorm_wordpool.txt	LTP087	ltpFR	0	7	1	JEANS	752	n/a	n/a	0	0.57763671875	0.412841796875	1	upper	amplitud.ttf
1474.712	n/a	WORD	737356	wordpools/wasnorm_wordpool.txt	LTP087	ltpFR	0	7	1	PANTS	1010	n/a	n/a	0	0.57763671875	0.412841796875	1	upper	amplitud.ttf
1478.604	n/a	WORD	739302	wordpools/wasnorm_wordpool.txt	LTP087	ltpFR	0	7	1	CARDINAL	244	n/a	n/a	0	0.57763671875	0.412841796875	1	upper	amplitud.ttf
1482.696	n/a	WORD	741348	wordpools/wasnorm_wordpool.txt	LTP087	ltpFR	0	7	1	BUTTER	205	n/a	n/a	0	0.57763671875	0.412841796875	1	upper	amplitud.ttf
1486.73	n/a	WORD	743365	wordpools/wasnorm_wordpool.txt	LTP087	ltpFR	0	7	1	HAMMOCK	681	n/a	n/a	0	0.57763671875	0.412841796875	1	upper	amplitud.ttf
1492.722	n/a	REC_START	746361	n/a	LTP087	ltpFR	0	7	n/a	n/a	n/a	n/a	n/a	n/a	n/a	n/a	n/a	n/a	n/a
1493.236	n/a	REC_WORD	746618	wordpools/wasnorm_wordpool.txt	LTP087	ltpFR	0	7	1	HAMMOCK	681	n/a	n/a	0	n/a	n/a	n/a	n/a	n/a
1494.442	n/a	REC_WORD	747221	wordpools/wasnorm_wordpool.txt	LTP087	ltpFR	0	7	1	BUTTER	205	n/a	n/a	0	n/a	n/a	n/a	n/a	n/a
1496.388	n/a	REC_WORD	748194	wordpools/wasnorm_wordpool.txt	LTP087	ltpFR	0	7	1	CATHEDRAL	260	n/a	n/a	0	n/a	n/a	n/a	n/a	n/a
1545.55	n/a	REC_WORD	772775	wordpools/wasnorm_wordpool.txt	LTP087	ltpFR	0	7	1	BIBLE	124	n/a	n/a	0	n/a	n/a	n/a	n/a	n/a
1595.744	n/a	WORD	797872	wordpools/wasnorm_wordpool.txt	LTP087	ltpFR	0	8	1	FAUCET	555	n/a	n/a	0	0.57763671875	0.412841796875	1	upper	amplitud.ttf
1599.71	n/a	WORD	799855	wordpools/wasnorm_wordpool.txt	LTP087	ltpFR	0	8	1	CHAPEL	280	n/a	n/a	0	0.57763671875	0.412841796875	1	upper	amplitud.ttf
1603.9	n/a	WORD	801950	wordpools/wasnorm_wordpool.txt	LTP087	ltpFR	0	8	1	CHECK	284	n/a	n/a	0	0.57763671875	0.412841796875	1	upper	amplitud.ttf
1607.76	n/a	WORD	803880	wordpools/wasnorm_wordpool.txt	LTP087	ltpFR	0	8	1	PENNY	1045	n/a	n/a	0	0.57763671875	0.412841796875	1	upper	amplitud.ttf
1611.66	n/a	WORD	805830	wordpools/wasnorm_wordpool.txt	LTP087	ltpFR	0	8	1	COURSE	390	n/a	n/a	0	0.57763671875	0.412841796875	1	upper	amplitud.ttf
1615.86	n/a	WORD	807930	wordpools/wasnorm_wordpool.txt	LTP087	ltpFR	0	8	1	PROFESSOR	1131	n/a	n/a	1	0.57763671875	0.412841796875	1	upper	amplitud.ttf
1619.734	n/a	WORD	809867	wordpools/wasnorm_wordpool.txt	LTP087	ltpFR	0	8	1	PERISCOPE	1050	n/a	n/a	0	0.57763671875	0.412841796875	1	upper	amplitud.ttf
1623.85	n/a	WORD	811925	wordpools/wasnorm_wordpool.txt	LTP087	ltpFR	0	8	1	STEAM	1375	n/a	n/a	0	0.57763671875	0.412841796875	1	upper	amplitud.ttf
1627.768	n/a	WORD	813884	wordpools/wasnorm_wordpool.txt	LTP087	ltpFR	0	8	1	LEAF	808	n/a	n/a	0	0.57763671875	0.412841796875	1	upper	amplitud.ttf
1631.668	n/a	WORD	815834	wordpools/wasnorm_wordpool.txt	LTP087	ltpFR	0	8	1	BROOK	177	n/a	n/a	0	0.57763671875	0.412841796875	1	upper	amplitud.ttf
1635.592	n/a	WORD	817796	wordpools/wasnorm_wordpool.txt	LTP087	ltpFR	0	8	1	FURNITURE	616	n/a	n/a	0	0.57763671875	0.412841796875	1	upper	amplitud.ttf
1639.566	n/a	WORD	819783	wordpools/wasnorm_wordpool.txt	LTP087	ltpFR	0	8	1	WINNER	1615	n/a	n/a	1	0.57763671875	0.412841796875	1	upper	amplitud.ttf
1643.7	n/a	WORD	821850	wordpools/wasnorm_wordpool.txt	LTP087	ltpFR	0	8	1	ROACH	1195	n/a	n/a	1	0.57763671875	0.412841796875	1	upper	amplitud.ttf
1647.708	n/a	WORD	823854	wordpools/wasnorm_wordpool.txt	LTP087	ltpFR	0	8	1	KITE	779	n/a	n/a	0	0.57763671875	0.412841796875	1	upper	amplitud.ttf
1651.876	n/a	WORD	825938	wordpools/wasnorm_wordpool.txt	LTP087	ltpFR	0	8	1	DOCTOR	478	n/a	n/a	1	0.57763671875	0.412841796875	1	upper	amplitud.ttf
1656.082	n/a	WORD	828041	wordpools/wasnorm_wordpool.txt	LTP087	ltpFR	0	8	1	LAGOON	795	n/a	n/a	0	0.57763671875	0.412841796875	1	upper	amplitud.ttf
1662.04	n/a	REC_START	831020	n/a	LTP087	ltpFR	0	8	n/a	n/a	n/a	n/a	n/a	n/a	n/a	n/a	n/a	n/a	n/a
1662.924	n/a	REC_WORD	831462	wordpools/wasnorm_wordpool.txt	LTP087	ltpFR	0	8	1	LAGOON	795	n/a	n/a	0	n/a	n/a	n/a	n/a	n/a
1664.924	n/a	REC_WORD	832462	wordpools/wasnorm_wordpool.txt	LTP087	ltpFR	0	8	1	DOCTOR	478	n/a	n/a	1	n/a	n/a	n/a	n/a	n/a
1666.356	n/a	REC_WORD	833178	wordpools/wasnorm_wordpool.txt	LTP087	ltpFR	0	8	1	PROFESSOR	1131	n/a	n/a	1	n/a	n/a	n/a	n/a	n/a
1675.246	n/a	REC_WORD	837623	wordpools/wasnorm_wordpool.txt	LTP087	ltpFR	0	8	1	ROACH	1195	n/a	n/a	1	n/a	n/a	n/a	n/a	n/a
1677.362	n/a	REC_WORD	838681	wordpools/wasnorm_wordpool.txt	LTP087	ltpFR	0	8	1	LEAF	808	n/a	n/a	0	n/a	n/a	n/a	n/a	n/a
1689.156	n/a	REC_WORD	844578	wordpools/wasnorm_wordpool.txt	LTP087	ltpFR	0	8	1	COURSE	390	n/a	n/a	0	n/a	n/a	n/a	n/a	n/a
1746.172	n/a	WORD	873086	wordpools/wasnorm_wordpool.txt	LTP087	ltpFR	0	9	0	PELICAN	1039	n/a	n/a	0	0.422607421875	0.5869140625	0	lower	zerothre.ttf
1750.096	n/a	WORD	875048	wordpools/wasnorm_wordpool.txt	LTP087	ltpFR	0	9	0	MICROSCOPE	891	n/a	n/a	0	0.422607421875	0.5869140625	0	lower	zerothre.ttf
1754.304	n/a	WORD	877152	wordpools/wasnorm_wordpool.txt	LTP087	ltpFR	0	9	0	SOFA	1342	n/a	n/a	1	0.422607421875	0.5869140625	0	lower	zerothre.ttf
1758.246	n/a	WORD	879123	wordpools/wasnorm_wordpool.txt	LTP087	ltpFR	0	9	0	STOOL	1386	n/a	n/a	1	0.422607421875	0.5869140625	0	lower	zerothre.ttf
1762.304	n/a	WORD	881152	wordpools/wasnorm_wordpool.txt	LTP087	ltpFR	0	9	0	CREAM	402	n/a	n/a	0	0.422607421875	0.5869140625	0	lower	zerothre.ttf
1766.154	n/a	WORD	883077	wordpools/wasnorm_wordpool.txt	LTP087	ltpFR	0	9	0	AMBULANCE	19	n/a	n/a	1	0.422607421875	0.5869140625	0	lower	zerothre.ttf
1770.212	n/a	WORD	885106	wordpools/wasnorm_wordpool.txt	LTP087	ltpFR	0	9	0	COFFIN	342	n/a	n/a	1	0.422607421875	0.5869140625	0	lower	zerothre.ttf
1774.196	n/a	WORD	887098	wordpools/wasnorm_wordpool.txt	LTP087	ltpFR	0	9	0	PENGUIN	1044	n/a	n/a	0	0.422607421875	0.5869140625	0	lower	zerothre.ttf
1778.02	n/a	WORD	889010	wordpools/wasnorm_wordpool.txt	LTP087	ltpFR	0	9	0	HAIL	676	n/a	n/a	0	0.422607421875	0.5869140625	0	lower	zerothre.ttf
1782.154	n/a	WORD	891077	wordpools/wasnorm_wordpool.txt	LTP087	ltpFR	0	9	0	CHAMPION	279	n/a	n/a	1	0.422607421875	0.5869140625	0	lower	zerothre.ttf
1786.162	n/a	WORD	893081	wordpools/wasnorm_wordpool.txt	LTP087	ltpFR	0	9	0	PIGEON	1065	n/a	n/a	0	0.422607421875	0.5869140625	0	lower	zerothre.ttf
1790.22	n/a	WORD	895110	wordpools/wasnorm_wordpool.txt	LTP087	ltpFR	0	9	0	CAGE	218	n/a	n/a	1	0.422607421875	0.5869140625	0	lower	zerothre.ttf
1794.062	n/a	WORD	897031	wordpools/wasnorm_wordpool.txt	LTP087	ltpFR	0	9	0	PEAR	1033	n/a	n/a	0	0.422607421875	0.5869140625	0	lower	zerothre.ttf
1798.046	n/a	WORD	899023	wordpools/wasnorm_wordpool.txt	LTP087	ltpFR	0	9	0	WAGON	1578	n/a	n/a	1	0.422607421875	0.5869140625	0	lower	zerothre.ttf
1802.136	n/a	WORD	901068	wordpools/wasnorm_wordpool.txt	LTP087	ltpFR	0	9	0	JEWEL	757	n/a	n/a	0	0.422607421875	0.5869140625	0	lower	zerothre.ttf
1806.054	n/a	WORD	903027	wordpools/wasnorm_wordpool.txt	LTP087	ltpFR	0	9	0	BELL	118	n/a	n/a	0	0.422607421875	0.5869140625	0	lower	zerothre.ttf
1811.946	n/a	REC_START	905973	n/a	LTP087	ltpFR	0	9	n/a	n/a	n/a	n/a	n/a	n/a	n/a	n/a	n/a	n/a	n/a
1812.858	n/a	REC_WORD	906429	wordpools/wasnorm_wordpool.txt	LTP087	ltpFR	0	9	0	JEWEL	757	n/a	n/a	0	n/a	n/a	n/a	n/a	n/a
1814.086	n/a	REC_WORD	907043	wordpools/wasnorm_wordpool.txt	LTP087	ltpFR	0	9	0	BELL	118	n/a	n/a	0	n/a	n/a	n/a	n/a	n/a
1817.288	n/a	REC_WORD	908644	wordpools/wasnorm_wordpool.txt	LTP087	ltpFR	0	9	1	LAGOON	795	n/a	n/a	0	n/a	n/a	n/a	n/a	n/a
1823.144	n/a	REC_WORD	911572	wordpools/wasnorm_wordpool.txt	LTP087	ltpFR	0	9	0	MICROSCOPE	891	n/a	n/a	0	n/a	n/a	n/a	n/a	n/a
1824.416	n/a	REC_WORD	912208	wordpools/wasnorm_wordpool.txt	LTP087	ltpFR	0	9	0	STOOL	1386	n/a	n/a	1	n/a	n/a	n/a	n/a	n/a
1825.95	n/a	REC_WORD	912975	wordpools/wasnorm_wordpool.txt	LTP087	ltpFR	0	9	0	CAGE	218	n/a	n/a	1	n/a	n/a	n/a	n/a	n/a
1827.536	n/a	REC_WORD	913768	wordpools/wasnorm_wordpool.txt	LTP087	ltpFR	0	9	0	PIGEON	1065	n/a	n/a	0	n/a	n/a	n/a	n/a	n/a
1831.816	n/a	REC_WORD	915908	wordpools/wasnorm_wordpool.txt	LTP087	ltpFR	0	9	0	CREAM	402	n/a	n/a	0	n/a	n/a	n/a	n/a	n/a
1833.836	n/a	REC_WORD	916918	wordpools/wasnorm_wordpool.txt	LTP087	ltpFR	0	9	1	WINNER	1615	n/a	n/a	1	n/a	n/a	n/a	n/a	n/a
1895.636	n/a	WORD	947818	wordpools/wasnorm_wordpool.txt	LTP087	ltpFR	0	10	0	DISHWASHER	475	n/a	n/a	1	0.422607421875	0.5869140625	0	lower	zerothre.ttf
1899.776	n/a	WORD	949888	wordpools/wasnorm_wordpool.txt	LTP087	ltpFR	0	10	0	JAM	748	n/a	n/a	0	0.422607421875	0.5869140625	0	lower	zerothre.ttf
1903.744	n/a	WORD	951872	wordpools/wasnorm_wordpool.txt	LTP087	ltpFR	0	10	0	THORN	1459	n/a	n/a	0	0.422607421875	0.5869140625	0	lower	zerothre.ttf
1907.568	n/a	WORD	953784	wordpools/wasnorm_wordpool.txt	LTP087	ltpFR	0	10	0	ROSE	1212	n/a	n/a	0	0.422607421875	0.5869140625	0	lower	zerothre.ttf
1911.502	n/a	WORD	955751	wordpools/wasnorm_wordpool.txt	LTP087	ltpFR	0	10	0	TAR	1435	n/a	n/a	0	0.422607421875	0.5869140625	0	lower	zerothre.ttf
1915.308	n/a	WORD	957654	wordpools/wasnorm_wordpool.txt	LTP087	ltpFR	0	10	0	FARMER	553	n/a	n/a	1	0.422607421875	0.5869140625	0	lower	zerothre.ttf
1919.316	n/a	WORD	959658	wordpools/wasnorm_wordpool.txt	LTP087	ltpFR	0	10	0	LEVER	815	n/a	n/a	1	0.422607421875	0.5869140625	0	lower	zerothre.ttf
1923.424	n/a	WORD	961712	wordpools/wasnorm_wordpool.txt	LTP087	ltpFR	0	10	0	GOAT	644	n/a	n/a	1	0.422607421875	0.5869140625	0	lower	zerothre.ttf
1927.544	n/a	WORD	963772	wordpools/wasnorm_wordpool.txt	LTP087	ltpFR	0	10	0	GLASSES	640	n/a	n/a	0	0.422607421875	0.5869140625	0	lower	zerothre.ttf
1931.408	n/a	WORD	965704	wordpools/wasnorm_wordpool.txt	LTP087	ltpFR	0	10	0	RACKET	1155	n/a	n/a	0	0.422607421875	0.5869140625	0	lower	zerothre.ttf
1935.292	n/a	WORD	967646	wordpools/wasnorm_wordpool.txt	LTP087	ltpFR	0	10	0	BARN	89	n/a	n/a	1	0.422607421875	0.5869140625	0	lower	zerothre.ttf
1939.3	n/a	WORD	969650	wordpools/wasnorm_wordpool.txt	LTP087	ltpFR	0	10	0	VELVET	1555	n/a	n/a	0	0.422607421875	0.5869140625	0	lower	zerothre.ttf
1943.324	n/a	WORD	971662	wordpools/wasnorm_wordpool.txt	LTP087	ltpFR	0	10	0	LACE	792	n/a	n/a	0	0.422607421875	0.5869140625	0	lower	zerothre.ttf
1947.442	n/a	WORD	973721	wordpools/wasnorm_wordpool.txt	LTP087	ltpFR	0	10	0	ALLEY	15	n/a	n/a	1	0.422607421875	0.5869140625	0	lower	zerothre.ttf
1951.46	n/a	WORD	975730	wordpools/wasnorm_wordpool.txt	LTP087	ltpFR	0	10	0	PEACH	1031	n/a	n/a	0	0.422607421875	0.5869140625	0	lower	zerothre.ttf
1955.392	n/a	WORD	977696	wordpools/wasnorm_wordpool.txt	LTP087	ltpFR	0	10	0	COBBLER	335	n/a	n/a	0	0.422607421875	0.5869140625	0	lower	zerothre.ttf
1961.332	n/a	REC_START	980666	n/a	LTP087	ltpFR	0	10	n/a	n/a	n/a	n/a	n/a	n/a	n/a	n/a	n/a	n/a	n/a
1962.046	n/a	REC_WORD	981023	wordpools/wasnorm_wordpool.txt	LTP087	ltpFR	0	10	0	COBBLER	335	n/a	n/a	0	n/a	n/a	n/a	n/a	n/a
1963.648	n/a	REC_WORD	981824	wordpools/wasnorm_wordpool.txt	LTP087	ltpFR	0	10	0	PEACH	1031	n/a	n/a	0	n/a	n/a	n/a	n/a	n/a
1964.98	n/a	REC_WORD	982490	wordpools/wasnorm_wordpool.txt	LTP087	ltpFR	0	10	0	ALLEY	15	n/a	n/a	1	n/a	n/a	n/a	n/a	n/a
2012.734	n/a	REC_WORD	1006367	wordpools/wasnorm_wordpool.txt	LTP087	ltpFR	0	10	0	FARMER	553	n/a	n/a	1	n/a	n/a	n/a	n/a	n/a
2014.654	n/a	REC_WORD	1007327	wordpools/wasnorm_wordpool.txt	LTP087	ltpFR	0	10	0	BARN	89	n/a	n/a	1	n/a	n/a	n/a	n/a	n/a
2042.164	n/a	WORD	1021082	wordpools/wasnorm_wordpool.txt	LTP087	ltpFR	0	11	0	PAW	1029	n/a	n/a	0	0.422607421875	0.5869140625	0	lower	zerothre.ttf
2046.082	n/a	WORD	1023041	wordpools/wasnorm_wordpool.txt	LTP087	ltpFR	0	11	0	AUDIENCE	59	n/a	n/a	1	0.422607421875	0.5869140625	0	lower	zerothre.ttf
2049.898	n/a	WORD	1024949	wordpools/wasnorm_wordpool.txt	LTP087	ltpFR	0	11	0	NOTE	958	n/a	n/a	0	0.422607421875	0.5869140625	0	lower	zerothre.ttf
2053.806	n/a	WORD	1026903	wordpools/wasnorm_wordpool.txt	LTP087	ltpFR	0	11	0	LOAF	835	n/a	n/a	0	0.422607421875	0.5869140625	0	lower	zerothre.ttf
2057.732	n/a	WORD	1028866	wordpools/wasnorm_wordpool.txt	LTP087	ltpFR	0	11	0	STY	1397	n/a	n/a	0	0.422607421875	0.5869140625	0	lower	zerothre.ttf
2061.68	n/a	WORD	1030840	wordpools/wasnorm_wordpool.txt	LTP087	ltpFR	0	11	0	CABBAGE	210	n/a	n/a	0	0.422607421875	0.5869140625	0	lower	zerothre.ttf
2065.748	n/a	WORD	1032874	wordpools/wasnorm_wordpool.txt	LTP087	ltpFR	0	11	0	BEET	115	n/a	n/a	0	0.422607421875	0.5869140625	0	lower	zerothre.ttf
2069.848	n/a	WORD	1034924	wordpools/wasnorm_wordpool.txt	LTP087	ltpFR	0	11	0	RACK	1154	n/a	n/a	0	0.422607421875	0.5869140625	0	lower	zerothre.ttf
2073.94	n/a	WORD	1036970	wordpools/wasnorm_wordpool.txt	LTP087	ltpFR	0	11	0	FRIEND	606	n/a	n/a	1	0.422607421875	0.5869140625	0	lower	zerothre.ttf
2077.838	n/a	WORD	1038919	wordpools/wasnorm_wordpool.txt	LTP087	ltpFR	0	11	0	PARTNER	1017	n/a	n/a	1	0.422607421875	0.5869140625	0	lower	zerothre.ttf
2081.714	n/a	WORD	1040857	wordpools/wasnorm_wordpool.txt	LTP087	ltpFR	0	11	0	BANJO	82	n/a	n/a	0	0.422607421875	0.5869140625	0	lower	zerothre.ttf
2085.832	n/a	WORD	1042916	wordpools/wasnorm_wordpool.txt	LTP087	ltpFR	0	11	0	GOWN	652	n/a	n/a	1	0.422607421875	0.5869140625	0	lower	zerothre.ttf
2089.996	n/a	WORD	1044998	wordpools/wasnorm_wordpool.txt	LTP087	ltpFR	0	11	0	COWBOY	395	n/a	n/a	1	0.422607421875	0.5869140625	0	lower	zerothre.ttf
2093.822	n/a	WORD	1046911	wordpools/wasnorm_wordpool.txt	LTP087	ltpFR	0	11	0	HUT	729	n/a	n/a	1	0.422607421875	0.5869140625	0	lower	zerothre.ttf
2097.664	n/a	WORD	1048832	wordpools/wasnorm_wordpool.txt	LTP087	ltpFR	0	11	0	WATER	1594	n/a	n/a	1	0.422607421875	0.5869140625	0	lower	zerothre.ttf
2101.604	n/a	WORD	1050802	wordpools/wasnorm_wordpool.txt	LTP087	ltpFR	0	11	0	EYE	545	n/a	n/a	0	0.422607421875	0.5869140625	0	lower	zerothre.ttf
2107.422	n/a	REC_START	1053711	n/a	LTP087	ltpFR	0	11	n/a	n/a	n/a	n/a	n/a	n/a	n/a	n/a	n/a	n/a	n/a
2108.404	n/a	REC_WORD	1054202	wordpools/wasnorm_wordpool.txt	LTP087	ltpFR	0	11	0	EYE	545	n/a	n/a	0	n/a	n/a	n/a	n/a	n/a
2110.32	n/a	REC_WORD	1055160	wordpools/wasnorm_wordpool.txt	LTP087	ltpFR	0	11	0	HUT	729	n/a	n/a	1	n/a	n/a	n/a	n/a	n/a
2118.462	n/a	REC_WORD	1059231	wordpools/wasnorm_wordpool.txt	LTP087	ltpFR	0	11	0	CABBAGE	210	n/a	n/a	0	n/a	n/a	n/a	n/a	n/a
2128.978	n/a	REC_WORD	1064489	wordpools/wasnorm_wordpool.txt	LTP087	ltpFR	0	11	0	GOWN	652	n/a	n/a	1	n/a	n/a	n/a	n/a	n/a
2130.554	n/a	REC_WORD	1065277	wordpools/wasnorm_wordpool.txt	LTP087	ltpFR	0	11	0	FRIEND	606	n/a	n/a	1	n/a	n/a	n/a	n/a	n/a
2133.248	n/a	REC_WORD	1066624	wordpools/wasnorm_wordpool.txt	LTP087	ltpFR	0	11	0	PARTNER	1017	n/a	n/a	1	n/a	n/a	n/a	n/a	n/a
2164.688	n/a	REC_WORD	1082344	wordpools/wasnorm_wordpool.txt	LTP087	ltpFR	0	11	0	RACK	1154	n/a	n/a	0	n/a	n/a	n/a	n/a	n/a
2190.678	n/a	WORD	1095339	wordpools/wasnorm_wordpool.txt	LTP087	ltpFR	0	12	0	STEW	1380	n/a	n/a	0	0.422607421875	0.5869140625	0	lower	zerothre.ttf
2194.82	n/a	WORD	1097410	wordpools/wasnorm_wordpool.txt	LTP087	ltpFR	0	12	0	BUN	197	n/a	n/a	0	0.422607421875	0.5869140625	0	lower	zerothre.ttf
2198.994	n/a	WORD	1099497	wordpools/wasnorm_wordpool.txt	LTP087	ltpFR	0	12	0	SISTER	1312	n/a	n/a	1	0.422607421875	0.5869140625	0	lower	zerothre.ttf
2202.952	n/a	WORD	1101476	wordpools/wasnorm_wordpool.txt	LTP087	ltpFR	0	12	0	PARENT	1013	n/a	n/a	1	0.422607421875	0.5869140625	0	lower	zerothre.ttf
2206.828	n/a	WORD	1103414	wordpools/wasnorm_wordpool.txt	LTP087	ltpFR	0	12	0	BUG	187	n/a	n/a	0	0.422607421875	0.5869140625	0	lower	zerothre.ttf
2210.828	n/a	WORD	1105414	wordpools/wasnorm_wordpool.txt	LTP087	ltpFR	0	12	0	FARM	552	n/a	n/a	1	0.422607421875	0.5869140625	0	lower	zerothre.ttf
2214.76	n/a	WORD	1107380	wordpools/wasnorm_wordpool.txt	LTP087	ltpFR	0	12	0	SCENERY	1247	n/a	n/a	0	0.422607421875	0.5869140625	0	lower	zerothre.ttf
2218.852	n/a	WORD	1109426	wordpools/wasnorm_wordpool.txt	LTP087	ltpFR	0	12	0	SCOTCH	1251	n/a	n/a	0	0.422607421875	0.5869140625	0	lower	zerothre.ttf
2222.992	n/a	WORD	1111496	wordpools/wasnorm_wordpool.txt	LTP087	ltpFR	0	12	0	CATERPILLAR	259	n/a	n/a	0	0.422607421875	0.5869140625	0	lower	zerothre.ttf
2226.894	n/a	WORD	1113447	wordpools/wasnorm_wordpool.txt	LTP087	ltpFR	0	12	0	PEANUT	1032	n/a	n/a	0	0.422607421875	0.5869140625	0	lower	zerothre.ttf
2230.736	n/a	WORD	1115368	wordpools/wasnorm_wordpool.txt	LTP087	ltpFR	0	12	0	CASHEW	253	n/a	n/a	0	0.422607421875	0.5869140625	0	lower	zerothre.ttf
2234.852	n/a	WORD	1117426	wordpools/wasnorm_wordpool.txt	LTP087	ltpFR	0	12	0	KEG	770	n/a	n/a	0	0.422607421875	0.5869140625	0	lower	zerothre.ttf
2238.91	n/a	WORD	1119455	wordpools/wasnorm_wordpool.txt	LTP087	ltpFR	0	12	0	LIP	828	n/a	n/a	0	0.422607421875	0.5869140625	0	lower	zerothre.ttf
2242.976	n/a	WORD	1121488	wordpools/wasnorm_wordpool.txt	LTP087	ltpFR	0	12	0	BLACKBERRY	132	n/a	n/a	1	0.422607421875	0.5869140625	0	lower	zerothre.ttf
2247.092	n/a	WORD	1123546	wordpools/wasnorm_wordpool.txt	LTP087	ltpFR	0	12	0	FOLLOWER	589	n/a	n/a	1	0.422607421875	0.5869140625	0	lower	zerothre.ttf
2250.934	n/a	WORD	1125467	wordpools/wasnorm_wordpool.txt	LTP087	ltpFR	0	12	0	SUPERVISOR	1410	n/a	n/a	1	0.422607421875	0.5869140625	0	lower	zerothre.ttf
2256.594	n/a	REC_START	1128297	n/a	LTP087	ltpFR	0	12	n/a	n/a	n/a	n/a	n/a	n/a	n/a	n/a	n/a	n/a	n/a
2257.556	n/a	REC_WORD	1128778	wordpools/wasnorm_wordpool.txt	LTP087	ltpFR	0	12	0	SUPERVISOR	1410	n/a	n/a	1	n/a	n/a	n/a	n/a	n/a
2259.232	n/a	REC_WORD	1129616	wordpools/wasnorm_wordpool.txt	LTP087	ltpFR	0	12	0	BLACKBERRY	132	n/a	n/a	1	n/a	n/a	n/a	n/a	n/a
2260.54	n/a	REC_WORD	1130270	wordpools/wasnorm_wordpool.txt	LTP087	ltpFR	0	12	0	FOLLOWER	589	n/a	n/a	1	n/a	n/a	n/a	n/a	n/a
2263.418	n/a	REC_WORD	1131709	wordpools/wasnorm_wordpool.txt	LTP087	ltpFR	0	12	0	SISTER	1312	n/a	n/a	1	n/a	n/a	n/a	n/a	n/a
2265.5	n/a	REC_WORD	1132750	wordpools/wasnorm_wordpool.txt	LTP087	ltpFR	0	12	0	PARENT	1013	n/a	n/a	1	n/a	n/a	n/a	n/a	n/a
2274.788	n/a	REC_WORD	1137394	wordpools/wasnorm_wordpool.txt	LTP087	ltpFR	0	12	0	KEG	770	n/a	n/a	0	n/a	n/a	n/a	n/a	n/a
2316.604	n/a	REC_WORD	1158302	wordpools/wasnorm_wordpool.txt	LTP087	ltpFR	0	12	0	SCOTCH	1251	n/a	n/a	0	n/a	n/a	n/a	n/a	n/a
2322.158	n/a	REC_WORD	1161079	wordpools/wasnorm_wordpool.txt	LTP087	ltpFR	0	12	0	FARMER	553	n/a	n/a	1	n/a	n/a	n/a	n/a	n/a
2332.206	n/a	REST_REWET	1166103	n/a	LTP087	ltpFR	0	12	n/a	n/a	n/a	n/a	n/a	n/a	n/a	n/a	n/a	n/a	n/a
3074.964	n/a	WORD	1537482	wordpools/wasnorm_wordpool.txt	LTP087	ltpFR	0	13	0	PISTON	1076	n/a	n/a	0	0.422607421875	0.5869140625	0	lower	zerothre.ttf
3079.038	n/a	WORD	1539519	wordpools/wasnorm_wordpool.txt	LTP087	ltpFR	0	13	0	RADIATOR	1156	n/a	n/a	0	0.422607421875	0.5869140625	0	lower	zerothre.ttf
3082.896	n/a	WORD	1541448	wordpools/wasnorm_wordpool.txt	LTP087	ltpFR	0	13	0	GIRAFFE	636	n/a	n/a	1	0.422607421875	0.5869140625	0	lower	zerothre.ttf
3086.996	n/a	WORD	1543498	wordpools/wasnorm_wordpool.txt	LTP087	ltpFR	0	13	0	BASKETBALL	96	n/a	n/a	0	0.422607421875	0.5869140625	0	lower	zerothre.ttf
3090.93	n/a	WORD	1545465	wordpools/wasnorm_wordpool.txt	LTP087	ltpFR	0	13	0	ANIMAL	23	n/a	n/a	1	0.422607421875	0.5869140625	0	lower	zerothre.ttf
3094.754	n/a	WORD	1547377	wordpools/wasnorm_wordpool.txt	LTP087	ltpFR	0	13	1	TORTOISE	1486	n/a	n/a	0	0.57763671875	0.412841796875	1	upper	amplitud.ttf
3098.722	n/a	WORD	1549361	wordpools/wasnorm_wordpool.txt	LTP087	ltpFR	0	13	1	ALBUM	14	n/a	n/a	0	0.57763671875	0.412841796875	1	upper	amplitud.ttf
3102.538	n/a	WORD	1551269	wordpools/wasnorm_wordpool.txt	LTP087	ltpFR	0	13	1	STEREO	1378	n/a	n/a	0	0.57763671875	0.412841796875	1	upper	amplitud.ttf
3106.436	n/a	WORD	1553218	wordpools/wasnorm_wordpool.txt	LTP087	ltpFR	0	13	0	SWEATER	1419	n/a	n/a	0	0.422607421875	0.5869140625	0	lower	zerothre.ttf
3110.512	n/a	WORD	1555256	wordpools/wasnorm_wordpool.txt	LTP087	ltpFR	0	13	0	UMPIRE	1535	n/a	n/a	0	0.422607421875	0.5869140625	0	lower	zerothre.ttf
3114.57	n/a	WORD	1557285	wordpools/wasnorm_wordpool.txt	LTP087	ltpFR	0	13	0	HEN	703	n/a	n/a	0	0.422607421875	0.5869140625	0	lower	zerothre.ttf
3118.596	n/a	WORD	1559298	wordpools/wasnorm_wordpool.txt	LTP087	ltpFR	0	13	1	SNAIL	1332	n/a	n/a	1	0.57763671875	0.412841796875	1	upper	amplitud.ttf
3122.712	n/a	WORD	1561356	wordpools/wasnorm_wordpool.txt	LTP087	ltpFR	0	13	1	CUFF	423	n/a	n/a	0	0.57763671875	0.412841796875	1	upper	amplitud.ttf
3126.604	n/a	WORD	1563302	wordpools/wasnorm_wordpool.txt	LTP087	ltpFR	0	13	1	SIDEWALK	1303	n/a	n/a	0	0.57763671875	0.412841796875	1	upper	amplitud.ttf
3130.778	n/a	WORD	1565389	wordpools/wasnorm_wordpool.txt	LTP087	ltpFR	0	13	1	BRANDY	169	n/a	n/a	0	0.57763671875	0.412841796875	1	upper	amplitud.ttf
3134.696	n/a	WORD	1567348	wordpools/wasnorm_wordpool.txt	LTP087	ltpFR	0	13	1	CHEST	295	n/a	n/a	0	0.57763671875	0.412841796875	1	upper	amplitud.ttf
3140.662	n/a	REC_START	1570331	n/a	LTP087	ltpFR	0	13	n/a	n/a	n/a	n/a	n/a	n/a	n/a	n/a	n/a	n/a	n/a
3141.49	n/a	REC_WORD	1570745	wordpools/wasnorm_wordpool.txt	LTP087	ltpFR	0	13	1	CHEST	295	n/a	n/a	0	n/a	n/a	n/a	n/a	n/a
3142.782	n/a	REC_WORD	1571391	wordpools/wasnorm_wordpool.txt	LTP087	ltpFR	0	13	1	BRANDY	169	n/a	n/a	0	n/a	n/a	n/a	n/a	n/a
3144.21	n/a	REC_WORD	1572105	wordpools/wasnorm_wordpool.txt	LTP087	ltpFR	0	13	0	GIRAFFE	636	n/a	n/a	1	n/a	n/a	n/a	n/a	n/a
3145.168	n/a	REC_WORD	1572584	wordpools/wasnorm_wordpool.txt	LTP087	ltpFR	0	13	0	ANIMAL	23	n/a	n/a	1	n/a	n/a	n/a	n/a	n/a
3146.066	n/a	REC_WORD	1573033	wordpools/wasnorm_wordpool.txt	LTP087	ltpFR	0	13	0	HEN	703	n/a	n/a	0	n/a	n/a	n/a	n/a	n/a
3148.596	n/a	REC_WORD	1574298	wordpools/wasnorm_wordpool.txt	LTP087	ltpFR	0	13	1	CUFF	423	n/a	n/a	0	n/a	n/a	n/a	n/a	n/a
3163.296	n/a	REC_WORD	1581648	wordpools/wasnorm_wordpool.txt	LTP087	ltpFR	0	13	1	SNAIL	1332	n/a	n/a	1	n/a	n/a	n/a	n/a	n/a
3165.302	n/a	REC_WORD	1582651	wordpools/wasnorm_wordpool.txt	LTP087	ltpFR	0	13	1	CHEST	295	n/a	n/a	0	n/a	n/a	n/a	n/a	n/a
3188.81	n/a	REC_WORD	1594405	wordpools/wasnorm_wordpool.txt	LTP087	ltpFR	0	13	0	UMPIRE	1535	n/a	n/a	0	n/a	n/a	n/a	n/a	n/a
3231.534	n/a	WORD	1615767	wordpools/wasnorm_wordpool.txt	LTP087	ltpFR	0	14	0	DICTATOR	462	n/a	n/a	1	0.422607421875	0.5869140625	0	lower	zerothre.ttf
3235.734	n/a	WORD	1617867	wordpools/wasnorm_wordpool.txt	LTP087	ltpFR	0	14	0	MOB	904	n/a	n/a	1	0.422607421875	0.5869140625	0	lower	zerothre.ttf
3239.676	n/a	WORD	1619838	wordpools/wasnorm_wordpool.txt	LTP087	ltpFR	0	14	1	NOOSE	956	n/a	n/a	0	0.57763671875	0.412841796875	1	upper	amplitud.ttf
3243.8	n/a	WORD	1621900	wordpools/wasnorm_wordpool.txt	LTP087	ltpFR	0	14	1	HOUND	724	n/a	n/a	0	0.57763671875	0.412841796875	1	upper	amplitud.ttf
3247.792	n/a	WORD	1623896	wordpools/wasnorm_wordpool.txt	LTP087	ltpFR	0	14	1	SPIT	1354	n/a	n/a	0	0.57763671875	0.412841796875	1	upper	amplitud.ttf
3251.8	n/a	WORD	1625900	wordpools/wasnorm_wordpool.txt	LTP087	ltpFR	0	14	1	PEOPLE	1046	n/a	n/a	1	0.57763671875	0.412841796875	1	upper	amplitud.ttf
3255.642	n/a	WORD	1627821	wordpools/wasnorm_wordpool.txt	LTP087	ltpFR	0	14	1	BOUQUET	157	n/a	n/a	0	0.57763671875	0.412841796875	1	upper	amplitud.ttf
3259.55	n/a	WORD	1629775	wordpools/wasnorm_wordpool.txt	LTP087	ltpFR	0	14	1	CHAIRPERSON	275	n/a	n/a	1	0.57763671875	0.412841796875	1	upper	amplitud.ttf
3263.724	n/a	WORD	1631862	wordpools/wasnorm_wordpool.txt	LTP087	ltpFR	0	14	0	CORK	380	n/a	n/a	0	0.422607421875	0.5869140625	0	lower	zerothre.ttf
3267.926	n/a	WORD	1633963	wordpools/wasnorm_wordpool.txt	LTP087	ltpFR	0	14	0	FLASK	576	n/a	n/a	0	0.422607421875	0.5869140625	0	lower	zerothre.ttf
3271.958	n/a	WORD	1635979	wordpools/wasnorm_wordpool.txt	LTP087	ltpFR	0	14	0	RIVER	1194	n/a	n/a	1	0.422607421875	0.5869140625	0	lower	zerothre.ttf
3276.04	n/a	WORD	1638020	wordpools/wasnorm_wordpool.txt	LTP087	ltpFR	0	14	0	POPCORN	1104	n/a	n/a	0	0.422607421875	0.5869140625	0	lower	zerothre.ttf
3280.04	n/a	WORD	1640020	wordpools/wasnorm_wordpool.txt	LTP087	ltpFR	0	14	1	SCREEN	1253	n/a	n/a	0	0.57763671875	0.412841796875	1	upper	amplitud.ttf
3284.082	n/a	WORD	1642041	wordpools/wasnorm_wordpool.txt	LTP087	ltpFR	0	14	1	RACCOON	1153	n/a	n/a	1	0.57763671875	0.412841796875	1	upper	amplitud.ttf
3287.916	n/a	WORD	1643958	wordpools/wasnorm_wordpool.txt	LTP087	ltpFR	0	14	0	AUTOMOBILE	62	n/a	n/a	1	0.422607421875	0.5869140625	0	lower	zerothre.ttf
3291.9	n/a	WORD	1645950	wordpools/wasnorm_wordpool.txt	LTP087	ltpFR	0	14	0	DESIGNER	451	n/a	n/a	1	0.422607421875	0.5869140625	0	lower	zerothre.ttf
3297.774	n/a	REC_START	1648887	n/a	LTP087	ltpFR	0	14	n/a	n/a	n/a	n/a	n/a	n/a	n/a	n/a	n/a	n/a	n/a
3298.698	n/a	REC_WORD	1649349	wordpools/wasnorm_wordpool.txt	LTP087	ltpFR	0	14	0	DESIGNER	451	n/a	n/a	1	n/a	n/a	n/a	n/a	n/a
3300.592	n/a	REC_WORD	1650296	wordpools/wasnorm_wordpool.txt	LTP087	ltpFR	0	14	0	POPCORN	1104	n/a	n/a	0	n/a	n/a	n/a	n/a	n/a
3304.026	n/a	REC_WORD	1652013	wordpools/wasnorm_wordpool.txt	LTP087	ltpFR	0	14	1	RACCOON	1153	n/a	n/a	1	n/a	n/a	n/a	n/a	n/a
3306.87	n/a	REC_WORD	1653435	wordpools/wasnorm_wordpool.txt	LTP087	ltpFR	0	14	1	CHAIRPERSON	275	n/a	n/a	1	n/a	n/a	n/a	n/a	n/a
3378.488	n/a	WORD	1689244	wordpools/wasnorm_wordpool.txt	LTP087	ltpFR	0	15	1	COLLAR	345	n/a	n/a	0	0.57763671875	0.412841796875	1	upper	amplitud.ttf
3382.656	n/a	WORD	1691328	wordpools/wasnorm_wordpool.txt	LTP087	ltpFR	0	15	1	HARP	689	n/a	n/a	0	0.57763671875	0.412841796875	1	upper	amplitud.ttf
3386.746	n/a	WORD	1693373	wordpools/wasnorm_wordpool.txt	LTP087	ltpFR	0	15	0	BREAST	171	n/a	n/a	0	0.422607421875	0.5869140625	0	lower	zerothre.ttf
3390.856	n/a	WORD	1695428	wordpools/wasnorm_wordpool.txt	LTP087	ltpFR	0	15	0	TREE	1502	n/a	n/a	1	0.422607421875	0.5869140625	0	lower	zerothre.ttf
3394.738	n/a	WORD	1697369	wordpools/wasnorm_wordpool.txt	LTP087	ltpFR	0	15	0	TWIG	1527	n/a	n/a	0	0.422607421875	0.5869140625	0	lower	zerothre.ttf
3398.814	n/a	WORD	1699407	wordpools/wasnorm_wordpool.txt	LTP087	ltpFR	0	15	0	CROCODILE	411	n/a	n/a	1	0.422607421875	0.5869140625	0	lower	zerothre.ttf
3402.822	n/a	WORD	1701411	wordpools/wasnorm_wordpool.txt	LTP087	ltpFR	0	15	0	PUPPY	1144	n/a	n/a	0	0.422607421875	0.5869140625	0	lower	zerothre.ttf
3406.722	n/a	WORD	1703361	wordpools/wasnorm_wordpool.txt	LTP087	ltpFR	0	15	1	BOY	161	n/a	n/a	1	0.57763671875	0.412841796875	1	upper	amplitud.ttf
3410.546	n/a	WORD	1705273	wordpools/wasnorm_wordpool.txt	LTP087	ltpFR	0	15	1	PROFESSIONAL	1130	n/a	n/a	1	0.57763671875	0.412841796875	1	upper	amplitud.ttf
3414.746	n/a	WORD	1707373	wordpools/wasnorm_wordpool.txt	LTP087	ltpFR	0	15	1	SAXOPHONE	1240	n/a	n/a	0	0.57763671875	0.412841796875	1	upper	amplitud.ttf
3418.812	n/a	WORD	1709406	wordpools/wasnorm_wordpool.txt	LTP087	ltpFR	0	15	1	MESSAGE	888	n/a	n/a	0	0.57763671875	0.412841796875	1	upper	amplitud.ttf
3422.646	n/a	WORD	1711323	wordpools/wasnorm_wordpool.txt	LTP087	ltpFR	0	15	1	ENVELOPE	537	n/a	n/a	0	0.57763671875	0.412841796875	1	upper	amplitud.ttf
3426.486	n/a	WORD	1713243	wordpools/wasnorm_wordpool.txt	LTP087	ltpFR	0	15	1	TOWEL	1489	n/a	n/a	0	0.57763671875	0.412841796875	1	upper	amplitud.ttf
3430.688	n/a	WORD	1715344	wordpools/wasnorm_wordpool.txt	LTP087	ltpFR	0	15	0	UMBRELLA	1534	n/a	n/a	0	0.422607421875	0.5869140625	0	lower	zerothre.ttf
3434.522	n/a	WORD	1717261	wordpools/wasnorm_wordpool.txt	LTP087	ltpFR	0	15	0	FIREPLACE	570	n/a	n/a	1	0.422607421875	0.5869140625	0	lower	zerothre.ttf
3438.596	n/a	WORD	1719298	wordpools/wasnorm_wordpool.txt	LTP087	ltpFR	0	15	0	TAIL	1430	n/a	n/a	0	0.422607421875	0.5869140625	0	lower	zerothre.ttf
3444.42	n/a	REC_START	1722210	n/a	LTP087	ltpFR	0	15	n/a	n/a	n/a	n/a	n/a	n/a	n/a	n/a	n/a	n/a	n/a
3445.442	n/a	REC_WORD	1722721	wordpools/wasnorm_wordpool.txt	LTP087	ltpFR	0	15	0	TAIL	1430	n/a	n/a	0	n/a	n/a	n/a	n/a	n/a
3446.684	n/a	REC_WORD	1723342	wordpools/wasnorm_wordpool.txt	LTP087	ltpFR	0	15	0	UMBRELLA	1534	n/a	n/a	0	n/a	n/a	n/a	n/a	n/a
3448.068	n/a	REC_WORD	1724034	wordpools/wasnorm_wordpool.txt	LTP087	ltpFR	0	15	0	FIREPLACE	570	n/a	n/a	1	n/a	n/a	n/a	n/a	n/a
3449.982	n/a	REC_WORD	1724991	wordpools/wasnorm_wordpool.txt	LTP087	ltpFR	0	15	1	BOY	161	n/a	n/a	1	n/a	n/a	n/a	n/a	n/a
3451.13	n/a	REC_WORD	1725565	wordpools/wasnorm_wordpool.txt	LTP087	ltpFR	0	15	1	PROFESSIONAL	1130	n/a	n/a	1	n/a	n/a	n/a	n/a	n/a
3453.33	n/a	REC_WORD	1726665	wordpools/wasnorm_wordpool.txt	LTP087	ltpFR	0	15	1	ENVELOPE	537	n/a	n/a	0	n/a	n/a	n/a	n/a	n/a
3455.466	n/a	REC_WORD	1727733	wordpools/wasnorm_wordpool.txt	LTP087	ltpFR	0	15	1	MESSAGE	888	n/a	n/a	0	n/a	n/a	n/a	n/a	n/a
3459.362	n/a	REC_WORD	1729681	wordpools/wasnorm_wordpool.txt	LTP087	ltpFR	0	15	1	TOWEL	1489	n/a	n/a	0	n/a	n/a	n/a	n/a	n/a
3467.394	n/a	REC_WORD	1733697	wordpools/wasnorm_wordpool.txt	LTP087	ltpFR	0	15	0	BREAST	171	n/a	n/a	0	n/a	n/a	n/a	n/a	n/a
3469.784	n/a	REC_WORD	1734892	wordpools/wasnorm_wordpool.txt	LTP087	ltpFR	0	15	0	CROCODILE	411	n/a	n/a	1	n/a	n/a	n/a	n/a	n/a
3525.042	n/a	WORD	1762521	wordpools/wasnorm_wordpool.txt	LTP087	ltpFR	0	16	1	TRAIN	1494	n/a	n/a	1	0.57763671875	0.412841796875	1	upper	amplitud.ttf
3528.86	n/a	WORD	1764430	wordpools/wasnorm_wordpool.txt	LTP087	ltpFR	0	16	1	COACH	331	n/a	n/a	0	0.57763671875	0.412841796875	1	upper	amplitud.ttf
3532.926	n/a	WORD	1766463	wordpools/wasnorm_wordpool.txt	LTP087	ltpFR	0	16	0	SUBMARINE	1398	n/a	n/a	1	0.422607421875	0.5869140625	0	lower	zerothre.ttf
3536.81	n/a	WORD	1768405	wordpools/wasnorm_wordpool.txt	LTP087	ltpFR	0	16	0	CARNIVAL	245	n/a	n/a	1	0.422607421875	0.5869140625	0	lower	zerothre.ttf
3540.66	n/a	WORD	1770330	wordpools/wasnorm_wordpool.txt	LTP087	ltpFR	0	16	0	SHOE	1288	n/a	n/a	0	0.422607421875	0.5869140625	0	lower	zerothre.ttf
3544.484	n/a	WORD	1772242	wordpools/wasnorm_wordpool.txt	LTP087	ltpFR	0	16	0	FIREMAN	569	n/a	n/a	1	0.422607421875	0.5869140625	0	lower	zerothre.ttf
3548.36	n/a	WORD	1774180	wordpools/wasnorm_wordpool.txt	LTP087	ltpFR	0	16	1	SPRINKLE	1359	n/a	n/a	0	0.57763671875	0.412841796875	1	upper	amplitud.ttf
3552.56	n/a	WORD	1776280	wordpools/wasnorm_wordpool.txt	LTP087	ltpFR	0	16	1	FLIPPER	580	n/a	n/a	0	0.57763671875	0.412841796875	1	upper	amplitud.ttf
3556.416	n/a	WORD	1778208	wordpools/wasnorm_wordpool.txt	LTP087	ltpFR	0	16	0	CAPTAIN	239	n/a	n/a	1	0.422607421875	0.5869140625	0	lower	zerothre.ttf
3560.274	n/a	WORD	1780137	wordpools/wasnorm_wordpool.txt	LTP087	ltpFR	0	16	0	SPONGE	1355	n/a	n/a	0	0.422607421875	0.5869140625	0	lower	zerothre.ttf
3564.182	n/a	WORD	1782091	wordpools/wasnorm_wordpool.txt	LTP087	ltpFR	0	16	0	TUB	1514	n/a	n/a	1	0.422607421875	0.5869140625	0	lower	zerothre.ttf
3568.042	n/a	WORD	1784021	wordpools/wasnorm_wordpool.txt	LTP087	ltpFR	0	16	0	SAILOR	1223	n/a	n/a	1	0.422607421875	0.5869140625	0	lower	zerothre.ttf
3572.124	n/a	WORD	1786062	wordpools/wasnorm_wordpool.txt	LTP087	ltpFR	0	16	1	PLUM	1090	n/a	n/a	0	0.57763671875	0.412841796875	1	upper	amplitud.ttf
3576.308	n/a	WORD	1788154	wordpools/wasnorm_wordpool.txt	LTP087	ltpFR	0	16	1	ROOT	1210	n/a	n/a	0	0.57763671875	0.412841796875	1	upper	amplitud.ttf
3580.142	n/a	WORD	1790071	wordpools/wasnorm_wordpool.txt	LTP087	ltpFR	0	16	1	CHAIR	274	n/a	n/a	0	0.57763671875	0.412841796875	1	upper	amplitud.ttf
3584.182	n/a	WORD	1792091	wordpools/wasnorm_wordpool.txt	LTP087	ltpFR	0	16	1	DIVER	476	n/a	n/a	1	0.57763671875	0.412841796875	1	upper	amplitud.ttf
3590.142	n/a	REC_START	1795071	n/a	LTP087	ltpFR	0	16	n/a	n/a	n/a	n/a	n/a	n/a	n/a	n/a	n/a	n/a	n/a
3590.774	n/a	REC_WORD	1795387	wordpools/wasnorm_wordpool.txt	LTP087	ltpFR	0	16	1	ROOT	1210	n/a	n/a	0	n/a	n/a	n/a	n/a	n/a
3591.742	n/a	REC_WORD	1795871	wordpools/wasnorm_wordpool.txt	LTP087	ltpFR	0	16	1	CHAIR	274	n/a	n/a	0	n/a	n/a	n/a	n/a	n/a
3593.2	n/a	REC_WORD	1796600	wordpools/wasnorm_wordpool.txt	LTP087	ltpFR	0	16	1	DIVER	476	n/a	n/a	1	n/a	n/a	n/a	n/a	n/a
3594.72	n/a	REC_WORD	1797360	wordpools/wasnorm_wordpool.txt	LTP087	ltpFR	0	16	0	TUB	1514	n/a	n/a	1	n/a	n/a	n/a	n/a	n/a
3597.4	n/a	REC_WORD	1798700	wordpools/wasnorm_wordpool.txt	LTP087	ltpFR	0	16	0	FIREMAN	569	n/a	n/a	1	n/a	n/a	n/a	n/a	n/a
3697.514	n/a	REC_START	1848757	n/a	LTP087	ltpFR	0	n/a	n/a	n/a	n/a	n/a	n/a	n/a	n/a	n/a	n/a	n/a	n/a
3700.576	n/a	FFR_REC_WORD	1850288	wordpools/wasnorm_wordpool.txt	LTP087	ltpFR	0	n/a	0	GIRAFFE	636	n/a	n/a	1	n/a	n/a	n/a	n/a	n/a
3703.006	n/a	FFR_REC_WORD	1851503	wordpools/wasnorm_wordpool.txt	LTP087	ltpFR	0	n/a	0	TUB	1514	n/a	n/a	1	n/a	n/a	n/a	n/a	n/a
3707.462	n/a	FFR_REC_WORD	1853731	wordpools/wasnorm_wordpool.txt	LTP087	ltpFR	0	n/a	0	SUBMARINE	1398	n/a	n/a	1	n/a	n/a	n/a	n/a	n/a
3710.0	n/a	FFR_REC_WORD	1855000	wordpools/wasnorm_wordpool.txt	LTP087	ltpFR	0	n/a	0	BREAST	171	n/a	n/a	0	n/a	n/a	n/a	n/a	n/a
3714.012	n/a	FFR_REC_WORD	1857006	wordpools/wasnorm_wordpool.txt	LTP087	ltpFR	0	n/a	1	PROFESSIONAL	1130	n/a	n/a	1	n/a	n/a	n/a	n/a	n/a
3724.792	n/a	FFR_REC_WORD	1862396	wordpools/wasnorm_wordpool.txt	LTP087	ltpFR	0	n/a	-1	EARRING	514	n/a	n/a	-1	n/a	n/a	n/a	n/a	n/a
3733.548	n/a	FFR_REC_WORD	1866774	wordpools/wasnorm_wordpool.txt	LTP087	ltpFR	0	n/a	-1	BUILDING	191	n/a	n/a	-1	n/a	n/a	n/a	n/a	n/a
3742.308	n/a	FFR_REC_WORD	1871154	wordpools/wasnorm_wordpool.txt	LTP087	ltpFR	0	n/a	0	FIREMAN	569	n/a	n/a	1	n/a	n/a	n/a	n/a	n/a
3751.958	n/a	FFR_REC_WORD	1875979	wordpools/wasnorm_wordpool.txt	LTP087	ltpFR	0	n/a	1	ONION	977	n/a	n/a	0	n/a	n/a	n/a	n/a	n/a
3753.52	n/a	FFR_REC_WORD	1876760	wordpools/wasnorm_wordpool.txt	LTP087	ltpFR	0	n/a	-1	CARROT	249	n/a	n/a	-1	n/a	n/a	n/a	n/a	n/a
3778.658	n/a	FFR_REC_WORD	1889329	wordpools/wasnorm_wordpool.txt	LTP087	ltpFR	0	n/a	-1	PIE	1062	n/a	n/a	-1	n/a	n/a	n/a	n/a	n/a
3795.95	n/a	FFR_REC_WORD	1897975	wordpools/wasnorm_wordpool.txt	LTP087	ltpFR	0	n/a	0	LIP	828	n/a	n/a	0	n/a	n/a	n/a	n/a	n/a
3803.114	n/a	FFR_REC_WORD	1901557	wordpools/wasnorm_wordpool.txt	LTP087	ltpFR	0	n/a	-1	WAREHOUSE	1588	n/a	n/a	-1	n/a	n/a	n/a	n/a	n/a
3840.566	n/a	FFR_REC_WORD	1920283	wordpools/wasnorm_wordpool.txt	LTP087	ltpFR	0	n/a	1	PROFESSOR	1131	n/a	n/a	1	n/a	n/a	n/a	n/a	n/a
3842.016	n/a	FFR_REC_WORD	1921008	wordpools/wasnorm_wordpool.txt	LTP087	ltpFR	0	n/a	1	COURSE	390	n/a	n/a	0	n/a	n/a	n/a	n/a	n/a
3851.506	n/a	FFR_REC_WORD	1925753	wordpools/wasnorm_wordpool.txt	LTP087	ltpFR	0	n/a	-1	ARMY	39	n/a	n/a	-1	n/a	n/a	n/a	n/a	n/a
3852.384	n/a	FFR_REC_WORD	1926192	wordpools/wasnorm_wordpool.txt	LTP087	ltpFR	0	n/a	-1	SERGEANT	1269	n/a	n/a	-1	n/a	n/a	n/a	n/a	n/a
3862.452	n/a	FFR_REC_WORD	1931226	wordpools/wasnorm_wordpool.txt	LTP087	ltpFR	0	n/a	0	POPCORN	1104	n/a	n/a	0	n/a	n/a	n/a	n/a	n/a
3888.344	n/a	FFR_REC_WORD	1944172	wordpools/wasnorm_wordpool.txt	LTP087	ltpFR	0	n/a	-1	CELLAR	267	n/a	n/a	-1	n/a	n/a	n/a	n/a	n/a
3917.04	n/a	FFR_REC_WORD	1958520	wordpools/wasnorm_wordpool.txt	LTP087	ltpFR	0	n/a	-1	COP	376	n/a	n/a	-1	n/a	n/a	n/a	n/a	n/a
3925.412	n/a	FFR_REC_WORD	1962706	wordpools/wasnorm_wordpool.txt	LTP087	ltpFR	0	n/a	-1	POLICE	1098	n/a	n/a	-1	n/a	n/a	n/a	n/a	n/a
3934.662	n/a	FFR_REC_WORD	1967331	wordpools/wasnorm_wordpool.txt	LTP087	ltpFR	0	n/a	-1	MECHANIC	884	n/a	n/a	-1	n/a	n/a	n/a	n/a	n/a
3938.114	n/a	FFR_REC_WORD	1969057	wordpools/wasnorm_wordpool.txt	LTP087	ltpFR	0	n/a	1	MESSAGE	888	n/a	n/a	0	n/a	n/a	n/a	n/a	n/a
3948.69	n/a	FFR_REC_WORD	1974345	wordpools/wasnorm_wordpool.txt	LTP087	ltpFR	0	n/a	0	MICROSCOPE	891	n/a	n/a	0	n/a	n/a	n/a	n/a	n/a
3955.924	n/a	FFR_REC_WORD	1977962	wordpools/wasnorm_wordpool.txt	LTP087	ltpFR	0	n/a	1	CHEST	295	n/a	n/a	0	n/a	n/a	n/a	n/a	n/a
3960.378	n/a	FFR_REC_WORD	1980189	wordpools/wasnorm_wordpool.txt	LTP087	ltpFR	0	n/a	0	COBBLER	335	n/a	n/a	0	n/a	n/a	n/a	n/a	n/a
3961.602	n/a	FFR_REC_WORD	1980801	wordpools/wasnorm_wordpool.txt	LTP087	ltpFR	0	n/a	0	PEACH	1031	n/a	n/a	0	n/a	n/a	n/a	n/a	n/a
3980.778	n/a	FFR_REC_WORD	1990389	wordpools/wasnorm_wordpool.txt	LTP087	ltpFR	0	n/a	-1	BUBBLE	183	n/a	n/a	-1	n/a	n/a	n/a	n/a	n/a
4086.554	n/a	REC_START	2043277	n/a	LTP087	ltpFR	0	1	n/a	n/a	n/a	n/a	n/a	n/a	n/a	n/a	n/a	n/a	n/a
4086.588	n/a	RECOG_LURE	2043294	n/a	LTP087	ltpFR	0	1	n/a	CRAYON	401	0	5	n/a	n/a	n/a	n/a	n/a	n/a
4088.686	n/a	RECOG_RESP	2044343	n/a	LTP087	ltpFR	0	1	n/a	CRAYON	401	0	n/a	n/a	n/a	n/a	n/a	n/a	n/a
4090.67	n/a	RECOG_CONF	2045335	n/a	LTP087	ltpFR	0	1	n/a	CRAYON	401	n/a	5	n/a	n/a	n/a	n/a	n/a	n/a
4094.812	n/a	RECOG_LURE	2047406	n/a	LTP087	ltpFR	0	1	n/a	SIGNATURE	1306	0	5	n/a	n/a	n/a	n/a	n/a	n/a
4096.064	n/a	RECOG_RESP	2048032	n/a	LTP087	ltpFR	0	1	n/a	SIGNATURE	1306	0	n/a	n/a	n/a	n/a	n/a	n/a	n/a
4097.416	n/a	RECOG_CONF	2048708	n/a	LTP087	ltpFR	0	1	n/a	SIGNATURE	1306	n/a	5	n/a	n/a	n/a	n/a	n/a	n/a
4099.102	n/a	RECOG_LURE	2049551	n/a	LTP087	ltpFR	0	1	n/a	COWARD	394	0	5	n/a	n/a	n/a	n/a	n/a	n/a
4100.29	n/a	RECOG_RESP	2050145	n/a	LTP087	ltpFR	0	1	n/a	COWARD	394	0	n/a	n/a	n/a	n/a	n/a	n/a	n/a
4101.606	n/a	RECOG_CONF	2050803	n/a	LTP087	ltpFR	0	1	n/a	COWARD	394	n/a	5	n/a	n/a	n/a	n/a	n/a	n/a
4103.302	n/a	RECOG_TARGET	2051651	n/a	LTP087	ltpFR	0	1	-1	MEAL	882	1	5	-1	n/a	n/a	n/a	n/a	n/a
4104.978	n/a	RECOG_RESP	2052489	n/a	LTP087	ltpFR	0	1	-1	MEAL	882	1	n/a	-1	n/a	n/a	n/a	n/a	n/a
4106.316	n/a	RECOG_CONF	2053158	n/a	LTP087	ltpFR	0	1	-1	MEAL	882	n/a	5	-1	n/a	n/a	n/a	n/a	n/a
4108.104	n/a	RECOG_TARGET	2054052	n/a	LTP087	ltpFR	0	1	0	NOTE	958	0	5	0	n/a	n/a	n/a	n/a	n/a
4109.06	n/a	RECOG_RESP	2054530	n/a	LTP087	ltpFR	0	1	0	NOTE	958	0	n/a	0	n/a	n/a	n/a	n/a	n/a
4110.308	n/a	RECOG_CONF	2055154	n/a	LTP087	ltpFR	0	1	0	NOTE	958	n/a	5	0	n/a	n/a	n/a	n/a	n/a
4112.02	n/a	RECOG_TARGET	2056010	n/a	LTP087	ltpFR	0	1	-1	STAR	1373	1	5	-1	n/a	n/a	n/a	n/a	n/a
4113.654	n/a	RECOG_RESP	2056827	n/a	LTP087	ltpFR	0	1	-1	STAR	1373	1	n/a	-1	n/a	n/a	n/a	n/a	n/a
4115.316	n/a	RECOG_CONF	2057658	n/a	LTP087	ltpFR	0	1	-1	STAR	1373	n/a	5	-1	n/a	n/a	n/a	n/a	n/a
4116.936	n/a	RECOG_LURE	2058468	n/a	LTP087	ltpFR	0	1	n/a	BOX	159	0	4	n/a	n/a	n/a	n/a	n/a	n/a
4118.438	n/a	RECOG_RESP	2059219	n/a	LTP087	ltpFR	0	1	n/a	BOX	159	0	n/a	n/a	n/a	n/a	n/a	n/a	n/a
4120.076	n/a	RECOG_CONF	2060038	n/a	LTP087	ltpFR	0	1	n/a	BOX	159	n/a	4	n/a	n/a	n/a	n/a	n/a	n/a
4121.836	n/a	RECOG_LURE	2060918	n/a	LTP087	ltpFR	0	1	n/a	BUTTERFLY	206	0	5	n/a	n/a	n/a	n/a	n/a	n/a
4123.068	n/a	RECOG_RESP	2061534	n/a	LTP087	ltpFR	0	1	n/a	BUTTERFLY	206	0	n/a	n/a	n/a	n/a	n/a	n/a	n/a
4124.486	n/a	RECOG_CONF	2062243	n/a	LTP087	ltpFR	0	1	n/a	BUTTERFLY	206	n/a	5	n/a	n/a	n/a	n/a	n/a	n/a
4126.252	n/a	RECOG_TARGET	2063126	n/a	LTP087	ltpFR	0	1	0	WATER	1594	0	5	1	n/a	n/a	n/a	n/a	n/a
4127.428	n/a	RECOG_RESP	2063714	n/a	LTP087	ltpFR	0	1	0	WATER	1594	0	n/a	1	n/a	n/a	n/a	n/a	n/a
4128.806	n/a	RECOG_CONF	2064403	n/a	LTP087	ltpFR	0	1	0	WATER	1594	n/a	5	1	n/a	n/a	n/a	n/a	n/a
4130.428	n/a	RECOG_LURE	2065214	n/a	LTP087	ltpFR	0	1	n/a	ARTERY	41	0	3	n/a	n/a	n/a	n/a	n/a	n/a
4131.87	n/a	RECOG_RESP	2065935	n/a	LTP087	ltpFR	0	1	n/a	ARTERY	41	0	n/a	n/a	n/a	n/a	n/a	n/a	n/a
4133.914	n/a	RECOG_CONF	2066957	n/a	LTP087	ltpFR	0	1	n/a	ARTERY	41	n/a	3	n/a	n/a	n/a	n/a	n/a	n/a
4135.502	n/a	RECOG_TARGET	2067751	n/a	LTP087	ltpFR	0	1	1	NOOSE	956	1	4	0	n/a	n/a	n/a	n/a	n/a
4137.138	n/a	RECOG_RESP	2068569	n/a	LTP087	ltpFR	0	1	1	NOOSE	956	1	n/a	0	n/a	n/a	n/a	n/a	n/a
4138.454	n/a	RECOG_CONF	2069227	n/a	LTP087	ltpFR	0	1	1	NOOSE	956	n/a	4	0	n/a	n/a	n/a	n/a	n/a
4140.036	n/a	RECOG_TARGET	2070018	n/a	LTP087	ltpFR	0	1	1	WINNER	1615	1	5	1	n/a	n/a	n/a	n/a	n/a
4141.088	n/a	RECOG_RESP	2070544	n/a	LTP087	ltpFR	0	1	1	WINNER	1615	1	n/a	1	n/a	n/a	n/a	n/a	n/a
4142.346	n/a	RECOG_CONF	2071173	n/a	LTP087	ltpFR	0	1	1	WINNER	1615	n/a	5	1	n/a	n/a	n/a	n/a	n/a
4144.076	n/a	RECOG_TARGET	2072038	n/a	LTP087	ltpFR	0	1	1	KITE	779	1	5	0	n/a	n/a	n/a	n/a	n/a
4145.688	n/a	RECOG_RESP	2072844	n/a	LTP087	ltpFR	0	1	1	KITE	779	1	n/a	0	n/a	n/a	n/a	n/a	n/a
4146.816	n/a	RECOG_CONF	2073408	n/a	LTP087	ltpFR	0	1	1	KITE	779	n/a	5	0	n/a	n/a	n/a	n/a	n/a
4148.444	n/a	RECOG_LURE	2074222	n/a	LTP087	ltpFR	0	1	n/a	EMPLOYER	532	0	4	n/a	n/a	n/a	n/a	n/a	n/a
4150.088	n/a	RECOG_RESP	2075044	n/a	LTP087	ltpFR	0	1	n/a	EMPLOYER	532	0	n/a	n/a	n/a	n/a	n/a	n/a	n/a
4151.206	n/a	RECOG_CONF	2075603	n/a	LTP087	ltpFR	0	1	n/a	EMPLOYER	532	n/a	4	n/a	n/a	n/a	n/a	n/a	n/a
4153.002	n/a	RECOG_TARGET	2076501	n/a	LTP087	ltpFR	0	1	0	CREAM	402	1	3	0	n/a	n/a	n/a	n/a	n/a
4154.824	n/a	RECOG_RESP	2077412	n/a	LTP087	ltpFR	0	1	0	CREAM	402	1	n/a	0	n/a	n/a	n/a	n/a	n/a
4156.076	n/a	RECOG_CONF	2078038	n/a	LTP087	ltpFR	0	1	0	CREAM	402	n/a	3	0	n/a	n/a	n/a	n/a	n/a
4157.586	n/a	RECOG_LURE	2078793	n/a	LTP087	ltpFR	0	1	n/a	TOENAIL	1474	0	3	n/a	n/a	n/a	n/a	n/a	n/a
4159.328	n/a	RECOG_RESP	2079664	n/a	LTP087	ltpFR	0	1	n/a	TOENAIL	1474	0	n/a	n/a	n/a	n/a	n/a	n/a	n/a
4160.496	n/a	RECOG_CONF	2080248	n/a	LTP087	ltpFR	0	1	n/a	TOENAIL	1474	n/a	3	n/a	n/a	n/a	n/a	n/a	n/a
4162.102	n/a	RECOG_TARGET	2081051	n/a	LTP087	ltpFR	0	1	0	EYE	545	1	5	0	n/a	n/a	n/a	n/a	n/a
4163.14	n/a	RECOG_RESP	2081570	n/a	LTP087	ltpFR	0	1	0	EYE	545	1	n/a	0	n/a	n/a	n/a	n/a	n/a
4164.346	n/a	RECOG_CONF	2082173	n/a	LTP087	ltpFR	0	1	0	EYE	545	n/a	5	0	n/a	n/a	n/a	n/a	n/a
4166.15	n/a	RECOG_LURE	2083075	n/a	LTP087	ltpFR	0	1	n/a	RADIO	1157	0	5	n/a	n/a	n/a	n/a	n/a	n/a
4167.31	n/a	RECOG_RESP	2083655	n/a	LTP087	ltpFR	0	1	n/a	RADIO	1157	0	n/a	n/a	n/a	n/a	n/a	n/a	n/a
4168.718	n/a	RECOG_CONF	2084359	n/a	LTP087	ltpFR	0	1	n/a	RADIO	1157	n/a	5	n/a	n/a	n/a	n/a	n/a	n/a
4170.344	n/a	RECOG_TARGET	2085172	n/a	LTP087	ltpFR	0	1	0	CORK	380	1	5	0	n/a	n/a	n/a	n/a	n/a
4172.016	n/a	RECOG_RESP	2086008	n/a	LTP087	ltpFR	0	1	0	CORK	380	1	n/a	0	n/a	n/a	n/a	n/a	n/a
4174.116	n/a	RECOG_CONF	2087058	n/a	LTP087	ltpFR	0	1	0	CORK	380	n/a	5	0	n/a	n/a	n/a	n/a	n/a
4175.752	n/a	RECOG_TARGET	2087876	n/a	LTP087	ltpFR	0	1	0	HAIL	676	1	3	0	n/a	n/a	n/a	n/a	n/a
4177.388	n/a	RECOG_RESP	2088694	n/a	LTP087	ltpFR	0	1	0	HAIL	676	1	n/a	0	n/a	n/a	n/a	n/a	n/a
4178.546	n/a	RECOG_CONF	2089273	n/a	LTP087	ltpFR	0	1	0	HAIL	676	n/a	3	0	n/a	n/a	n/a	n/a	n/a
4245.088	n/a	REC_START	2122544	n/a	LTP087	ltpFR	0	2	n/a	n/a	n/a	n/a	n/a	n/a	n/a	n/a	n/a	n/a	n/a
4245.124	n/a	RECOG_TARGET	2122562	n/a	LTP087	ltpFR	0	2	0	UMBRELLA	1534	0	3	0	n/a	n/a	n/a	n/a	n/a
4246.226	n/a	RECOG_RESP	2123113	n/a	LTP087	ltpFR	0	2	0	UMBRELLA	1534	0	n/a	0	n/a	n/a	n/a	n/a	n/a
4248.386	n/a	RECOG_CONF	2124193	n/a	LTP087	ltpFR	0	2	0	UMBRELLA	1534	n/a	3	0	n/a	n/a	n/a	n/a	n/a
4249.958	n/a	RECOG_TARGET	2124979	n/a	LTP087	ltpFR	0	2	0	BELL	118	1	4	0	n/a	n/a	n/a	n/a	n/a
4251.08	n/a	RECOG_RESP	2125540	n/a	LTP087	ltpFR	0	2	0	BELL	118	1	n/a	0	n/a	n/a	n/a	n/a	n/a
4251.948	n/a	RECOG_CONF	2125974	n/a	LTP087	ltpFR	0	2	0	BELL	118	n/a	4	0	n/a	n/a	n/a	n/a	n/a
4253.54	n/a	RECOG_LURE	2126770	n/a	LTP087	ltpFR	0	2	n/a	CASTLE	256	0	3	n/a	n/a	n/a	n/a	n/a	n/a
4255.16	n/a	RECOG_RESP	2127580	n/a	LTP087	ltpFR	0	2	n/a	CASTLE	256	0	n/a	n/a	n/a	n/a	n/a	n/a	n/a
4256.258	n/a	RECOG_CONF	2128129	n/a	LTP087	ltpFR	0	2	n/a	CASTLE	256	n/a	3	n/a	n/a	n/a	n/a	n/a	n/a
4257.65	n/a	RECOG_LURE	2128825	n/a	LTP087	ltpFR	0	2	n/a	TABLE	1426	0	4	n/a	n/a	n/a	n/a	n/a	n/a
4258.682	n/a	RECOG_RESP	2129341	n/a	LTP087	ltpFR	0	2	n/a	TABLE	1426	0	n/a	n/a	n/a	n/a	n/a	n/a	n/a
4259.54	n/a	RECOG_CONF	2129770	n/a	LTP087	ltpFR	0	2	n/a	TABLE	1426	n/a	4	n/a	n/a	n/a	n/a	n/a	n/a
4261.024	n/a	RECOG_TARGET	2130512	n/a	LTP087	ltpFR	0	2	1	COLLAR	345	1	3	0	n/a	n/a	n/a	n/a	n/a
4262.464	n/a	RECOG_RESP	2131232	n/a	LTP087	ltpFR	0	2	1	COLLAR	345	1	n/a	0	n/a	n/a	n/a	n/a	n/a
4263.402	n/a	RECOG_CONF	2131701	n/a	LTP087	ltpFR	0	2	1	COLLAR	345	n/a	3	0	n/a	n/a	n/a	n/a	n/a
4265.0	n/a	RECOG_LURE	2132500	n/a	LTP087	ltpFR	0	2	n/a	RELISH	1183	0	5	n/a	n/a	n/a	n/a	n/a	n/a
4266.076	n/a	RECOG_RESP	2133038	n/a	LTP087	ltpFR	0	2	n/a	RELISH	1183	0	n/a	n/a	n/a	n/a	n/a	n/a	n/a
4266.894	n/a	RECOG_CONF	2133447	n/a	LTP087	ltpFR	0	2	n/a	RELISH	1183	n/a	5	n/a	n/a	n/a	n/a	n/a	n/a
4268.634	n/a	RECOG_TARGET	2134317	n/a	LTP087	ltpFR	0	2	-1	NAPKIN	937	1	5	-1	n/a	n/a	n/a	n/a	n/a
4269.728	n/a	RECOG_RESP	2134864	n/a	LTP087	ltpFR	0	2	-1	NAPKIN	937	1	n/a	-1	n/a	n/a	n/a	n/a	n/a
4270.756	n/a	RECOG_CONF	2135378	n/a	LTP087	ltpFR	0	2	-1	NAPKIN	937	n/a	5	-1	n/a	n/a	n/a	n/a	n/a
4272.358	n/a	RECOG_LURE	2136179	n/a	LTP087	ltpFR	0	2	n/a	CREATURE	403	0	5	n/a	n/a	n/a	n/a	n/a	n/a
4273.7	n/a	RECOG_RESP	2136850	n/a	LTP087	ltpFR	0	2	n/a	CREATURE	403	0	n/a	n/a	n/a	n/a	n/a	n/a	n/a
4274.458	n/a	RECOG_CONF	2137229	n/a	LTP087	ltpFR	0	2	n/a	CREATURE	403	n/a	5	n/a	n/a	n/a	n/a	n/a	n/a
4276.166	n/a	RECOG_LURE	2138083	n/a	LTP087	ltpFR	0	2	n/a	HAWK	692	0	5	n/a	n/a	n/a	n/a	n/a	n/a
4277.332	n/a	RECOG_RESP	2138666	n/a	LTP087	ltpFR	0	2	n/a	HAWK	692	0	n/a	n/a	n/a	n/a	n/a	n/a	n/a
4278.358	n/a	RECOG_CONF	2139179	n/a	LTP087	ltpFR	0	2	n/a	HAWK	692	n/a	5	n/a	n/a	n/a	n/a	n/a	n/a
4279.89	n/a	RECOG_TARGET	2139945	n/a	LTP087	ltpFR	0	2	-1	CARROT	249	1	5	-1	n/a	n/a	n/a	n/a	n/a
4280.804	n/a	RECOG_RESP	2140402	n/a	LTP087	ltpFR	0	2	-1	CARROT	249	1	n/a	-1	n/a	n/a	n/a	n/a	n/a
4281.632	n/a	RECOG_CONF	2140816	n/a	LTP087	ltpFR	0	2	-1	CARROT	249	n/a	5	-1	n/a	n/a	n/a	n/a	n/a
4283.306	n/a	RECOG_LURE	2141653	n/a	LTP087	ltpFR	0	2	n/a	PERFUME	1049	0	5	n/a	n/a	n/a	n/a	n/a	n/a
4284.286	n/a	RECOG_RESP	2142143	n/a	LTP087	ltpFR	0	2	n/a	PERFUME	1049	0	n/a	n/a	n/a	n/a	n/a	n/a	n/a
4285.024	n/a	RECOG_CONF	2142512	n/a	LTP087	ltpFR	0	2	n/a	PERFUME	1049	n/a	5	n/a	n/a	n/a	n/a	n/a	n/a
4286.808	n/a	RECOG_LURE	2143404	n/a	LTP087	ltpFR	0	2	n/a	CROW	414	0	4	n/a	n/a	n/a	n/a	n/a	n/a
4288.296	n/a	RECOG_RESP	2144148	n/a	LTP087	ltpFR	0	2	n/a	CROW	414	0	n/a	n/a	n/a	n/a	n/a	n/a	n/a
4289.344	n/a	RECOG_CONF	2144672	n/a	LTP087	ltpFR	0	2	n/a	CROW	414	n/a	4	n/a	n/a	n/a	n/a	n/a	n/a
4290.966	n/a	RECOG_LURE	2145483	n/a	LTP087	ltpFR	0	2	n/a	SURVEY	1414	0	4	n/a	n/a	n/a	n/a	n/a	n/a
4292.238	n/a	RECOG_RESP	2146119	n/a	LTP087	ltpFR	0	2	n/a	SURVEY	1414	0	n/a	n/a	n/a	n/a	n/a	n/a	n/a
4293.366	n/a	RECOG_CONF	2146683	n/a	LTP087	ltpFR	0	2	n/a	SURVEY	1414	n/a	4	n/a	n/a	n/a	n/a	n/a	n/a
4295.032	n/a	RECOG_TARGET	2147516	n/a	LTP087	ltpFR	0	2	-1	EARRING	514	1	5	-1	n/a	n/a	n/a	n/a	n/a
4296.06	n/a	RECOG_RESP	2148030	n/a	LTP087	ltpFR	0	2	-1	EARRING	514	1	n/a	-1	n/a	n/a	n/a	n/a	n/a
4297.216	n/a	RECOG_CONF	2148608	n/a	LTP087	ltpFR	0	2	-1	EARRING	514	n/a	5	-1	n/a	n/a	n/a	n/a	n/a
4298.89	n/a	RECOG_TARGET	2149445	n/a	LTP087	ltpFR	0	2	0	PIGEON	1065	1	5	0	n/a	n/a	n/a	n/a	n/a
4300.09	n/a	RECOG_RESP	2150045	n/a	LTP087	ltpFR	0	2	0	PIGEON	1065	1	n/a	0	n/a	n/a	n/a	n/a	n/a
4301.038	n/a	RECOG_CONF	2150519	n/a	LTP087	ltpFR	0	2	0	PIGEON	1065	n/a	5	0	n/a	n/a	n/a	n/a	n/a
4302.472	n/a	RECOG_TARGET	2151236	n/a	LTP087	ltpFR	0	2	1	PAIL	1002	1	4	0	n/a	n/a	n/a	n/a	n/a
4303.552	n/a	RECOG_RESP	2151776	n/a	LTP087	ltpFR	0	2	1	PAIL	1002	1	n/a	0	n/a	n/a	n/a	n/a	n/a
4304.54	n/a	RECOG_CONF	2152270	n/a	LTP087	ltpFR	0	2	1	PAIL	1002	n/a	4	0	n/a	n/a	n/a	n/a	n/a
4306.098	n/a	RECOG_TARGET	2153049	n/a	LTP087	ltpFR	0	2	0	STOOL	1386	1	5	1	n/a	n/a	n/a	n/a	n/a
4307.014	n/a	RECOG_RESP	2153507	n/a	LTP087	ltpFR	0	2	0	STOOL	1386	1	n/a	1	n/a	n/a	n/a	n/a	n/a
4307.962	n/a	RECOG_CONF	2153981	n/a	LTP087	ltpFR	0	2	0	STOOL	1386	n/a	5	1	n/a	n/a	n/a	n/a	n/a
4309.522	n/a	RECOG_LURE	2154761	n/a	LTP087	ltpFR	0	2	n/a	CAT	257	0	4	n/a	n/a	n/a	n/a	n/a	n/a
4310.528	n/a	RECOG_RESP	2155264	n/a	LTP087	ltpFR	0	2	n/a	CAT	257	0	n/a	n/a	n/a	n/a	n/a	n/a	n/a
4311.596	n/a	RECOG_CONF	2155798	n/a	LTP087	ltpFR	0	2	n/a	CAT	257	n/a	4	n/a	n/a	n/a	n/a	n/a	n/a
4313.222	n/a	RECOG_LURE	2156611	n/a	LTP087	ltpFR	0	2	n/a	CAPE	237	0	4	n/a	n/a	n/a	n/a	n/a	n/a
4314.528	n/a	RECOG_RESP	2157264	n/a	LTP087	ltpFR	0	2	n/a	CAPE	237	0	n/a	n/a	n/a	n/a	n/a	n/a	n/a
4315.476	n/a	RECOG_CONF	2157738	n/a	LTP087	ltpFR	0	2	n/a	CAPE	237	n/a	4	n/a	n/a	n/a	n/a	n/a	n/a
4317.056	n/a	RECOG_TARGET	2158528	n/a	LTP087	ltpFR	0	2	0	TAR	1435	1	5	0	n/a	n/a	n/a	n/a	n/a
4318.39	n/a	RECOG_RESP	2159195	n/a	LTP087	ltpFR	0	2	0	TAR	1435	1	n/a	0	n/a	n/a	n/a	n/a	n/a
4319.308	n/a	RECOG_CONF	2159654	n/a	LTP087	ltpFR	0	2	0	TAR	1435	n/a	5	0	n/a	n/a	n/a	n/a	n/a
4326.114	n/a	REC_START	2163057	n/a	LTP087	ltpFR	0	3	n/a	n/a	n/a	n/a	n/a	n/a	n/a	n/a	n/a	n/a	n/a
4326.146	n/a	RECOG_TARGET	2163073	n/a	LTP087	ltpFR	0	3	-1	OCEAN	970	1	5	-1	n/a	n/a	n/a	n/a	n/a
4327.286	n/a	RECOG_RESP	2163643	n/a	LTP087	ltpFR	0	3	-1	OCEAN	970	1	n/a	-1	n/a	n/a	n/a	n/a	n/a
4328.164	n/a	RECOG_CONF	2164082	n/a	LTP087	ltpFR	0	3	-1	OCEAN	970	n/a	5	-1	n/a	n/a	n/a	n/a	n/a
4329.832	n/a	RECOG_LURE	2164916	n/a	LTP087	ltpFR	0	3	n/a	OWNER	993	0	5	n/a	n/a	n/a	n/a	n/a	n/a
4331.088	n/a	RECOG_RESP	2165544	n/a	LTP087	ltpFR	0	3	n/a	OWNER	993	0	n/a	n/a	n/a	n/a	n/a	n/a	n/a
4331.776	n/a	RECOG_CONF	2165888	n/a	LTP087	ltpFR	0	3	n/a	OWNER	993	n/a	5	n/a	n/a	n/a	n/a	n/a	n/a
4333.38	n/a	RECOG_TARGET	2166690	n/a	LTP087	ltpFR	0	3	0	CROCODILE	411	1	5	1	n/a	n/a	n/a	n/a	n/a
4334.36	n/a	RECOG_RESP	2167180	n/a	LTP087	ltpFR	0	3	0	CROCODILE	411	1	n/a	1	n/a	n/a	n/a	n/a	n/a
4335.218	n/a	RECOG_CONF	2167609	n/a	LTP087	ltpFR	0	3	0	CROCODILE	411	n/a	5	1	n/a	n/a	n/a	n/a	n/a
4336.872	n/a	RECOG_TARGET	2168436	n/a	LTP087	ltpFR	0	3	-1	PRODUCER	1129	1	4	-1	n/a	n/a	n/a	n/a	n/a
4338.202	n/a	RECOG_RESP	2169101	n/a	LTP087	ltpFR	0	3	-1	PRODUCER	1129	1	n/a	-1	n/a	n/a	n/a	n/a	n/a
4339.02	n/a	RECOG_CONF	2169510	n/a	LTP087	ltpFR	0	3	-1	PRODUCER	1129	n/a	4	-1	n/a	n/a	n/a	n/a	n/a
4340.63	n/a	RECOG_TARGET	2170315	n/a	LTP087	ltpFR	0	3	-1	ATHLETE	52	0	3	-1	n/a	n/a	n/a	n/a	n/a
4342.742	n/a	RECOG_RESP	2171371	n/a	LTP087	ltpFR	0	3	-1	ATHLETE	52	0	n/a	-1	n/a	n/a	n/a	n/a	n/a
4343.77	n/a	RECOG_CONF	2171885	n/a	LTP087	ltpFR	0	3	-1	ATHLETE	52	n/a	3	-1	n/a	n/a	n/a	n/a	n/a
4345.238	n/a	RECOG_LURE	2172619	n/a	LTP087	ltpFR	0	3	n/a	BERRY	122	0	3	n/a	n/a	n/a	n/a	n/a	n/a
4347.182	n/a	RECOG_RESP	2173591	n/a	LTP087	ltpFR	0	3	n/a	BERRY	122	0	n/a	n/a	n/a	n/a	n/a	n/a	n/a
4348.278	n/a	RECOG_CONF	2174139	n/a	LTP087	ltpFR	0	3	n/a	BERRY	122	n/a	3	n/a	n/a	n/a	n/a	n/a	n/a
4349.79	n/a	RECOG_TARGET	2174895	n/a	LTP087	ltpFR	0	3	-1	FRIAR	605	1	5	-1	n/a	n/a	n/a	n/a	n/a
4351.154	n/a	RECOG_RESP	2175577	n/a	LTP087	ltpFR	0	3	-1	FRIAR	605	1	n/a	-1	n/a	n/a	n/a	n/a	n/a
4352.062	n/a	RECOG_CONF	2176031	n/a	LTP087	ltpFR	0	3	-1	FRIAR	605	n/a	5	-1	n/a	n/a	n/a	n/a	n/a
4353.564	n/a	RECOG_LURE	2176782	n/a	LTP087	ltpFR	0	3	n/a	ELM	527	0	5	n/a	n/a	n/a	n/a	n/a	n/a
4354.516	n/a	RECOG_RESP	2177258	n/a	LTP087	ltpFR	0	3	n/a	ELM	527	0	n/a	n/a	n/a	n/a	n/a	n/a	n/a
4355.334	n/a	RECOG_CONF	2177667	n/a	LTP087	ltpFR	0	3	n/a	ELM	527	n/a	5	n/a	n/a	n/a	n/a	n/a	n/a
4356.94	n/a	RECOG_TARGET	2178470	n/a	LTP087	ltpFR	0	3	-1	FOOTBALL	591	1	1	-1	n/a	n/a	n/a	n/a	n/a
4357.978	n/a	RECOG_RESP	2178989	n/a	LTP087	ltpFR	0	3	-1	FOOTBALL	591	1	n/a	-1	n/a	n/a	n/a	n/a	n/a
4359.474	n/a	RECOG_CONF	2179737	n/a	LTP087	ltpFR	0	3	-1	FOOTBALL	591	n/a	1	-1	n/a	n/a	n/a	n/a	n/a
4361.112	n/a	RECOG_TARGET	2180556	n/a	LTP087	ltpFR	0	3	1	TORTOISE	1486	0	2	0	n/a	n/a	n/a	n/a	n/a
4363.934	n/a	RECOG_RESP	2181967	n/a	LTP087	ltpFR	0	3	1	TORTOISE	1486	0	n/a	0	n/a	n/a	n/a	n/a	n/a
4365.382	n/a	RECOG_CONF	2182691	n/a	LTP087	ltpFR	0	3	1	TORTOISE	1486	n/a	2	0	n/a	n/a	n/a	n/a	n/a
4366.964	n/a	RECOG_LURE	2183482	n/a	LTP087	ltpFR	0	3	n/a	STREET	1393	1	3	n/a	n/a	n/a	n/a	n/a	n/a
4368.204	n/a	RECOG_RESP	2184102	n/a	LTP087	ltpFR	0	3	n/a	STREET	1393	1	n/a	n/a	n/a	n/a	n/a	n/a	n/a
4369.134	n/a	RECOG_CONF	2184567	n/a	LTP087	ltpFR	0	3	n/a	STREET	1393	n/a	3	n/a	n/a	n/a	n/a	n/a	n/a
4370.656	n/a	RECOG_TARGET	2185328	n/a	LTP087	ltpFR	0	3	0	COFFIN	342	1	5	1	n/a	n/a	n/a	n/a	n/a
4371.978	n/a	RECOG_RESP	2185989	n/a	LTP087	ltpFR	0	3	0	COFFIN	342	1	n/a	1	n/a	n/a	n/a	n/a	n/a
4372.716	n/a	RECOG_CONF	2186358	n/a	LTP087	ltpFR	0	3	0	COFFIN	342	n/a	5	1	n/a	n/a	n/a	n/a	n/a
4374.312	n/a	RECOG_TARGET	2187156	n/a	LTP087	ltpFR	0	3	0	HUT	729	1	4	1	n/a	n/a	n/a	n/a	n/a
4375.958	n/a	RECOG_RESP	2187979	n/a	LTP087	ltpFR	0	3	0	HUT	729	1	n/a	1	n/a	n/a	n/a	n/a	n/a
4376.866	n/a	RECOG_CONF	2188433	n/a	LTP087	ltpFR	0	3	0	HUT	729	n/a	4	1	n/a	n/a	n/a	n/a	n/a
4378.462	n/a	RECOG_TARGET	2189231	n/a	LTP087	ltpFR	0	3	1	BOY	161	1	3	1	n/a	n/a	n/a	n/a	n/a
4379.988	n/a	RECOG_RESP	2189994	n/a	LTP087	ltpFR	0	3	1	BOY	161	1	n/a	1	n/a	n/a	n/a	n/a	n/a
4380.906	n/a	RECOG_CONF	2190453	n/a	LTP087	ltpFR	0	3	1	BOY	161	n/a	3	1	n/a	n/a	n/a	n/a	n/a
4382.462	n/a	RECOG_LURE	2191231	n/a	LTP087	ltpFR	0	3	n/a	MINER	896	0	4	n/a	n/a	n/a	n/a	n/a	n/a
4383.74	n/a	RECOG_RESP	2191870	n/a	LTP087	ltpFR	0	3	n/a	MINER	896	0	n/a	n/a	n/a	n/a	n/a	n/a	n/a
4384.708	n/a	RECOG_CONF	2192354	n/a	LTP087	ltpFR	0	3	n/a	MINER	896	n/a	4	n/a	n/a	n/a	n/a	n/a	n/a
4386.254	n/a	RECOG_LURE	2193127	n/a	LTP087	ltpFR	0	3	n/a	SKIN	1318	0	3	n/a	n/a	n/a	n/a	n/a	n/a
4388.59	n/a	RECOG_RESP	2194295	n/a	LTP087	ltpFR	0	3	n/a	SKIN	1318	0	n/a	n/a	n/a	n/a	n/a	n/a	n/a
4389.598	n/a	RECOG_CONF	2194799	n/a	LTP087	ltpFR	0	3	n/a	SKIN	1318	n/a	3	n/a	n/a	n/a	n/a	n/a	n/a
4391.112	n/a	RECOG_LURE	2195556	n/a	LTP087	ltpFR	0	3	n/a	DANCER	437	0	4	n/a	n/a	n/a	n/a	n/a	n/a
4392.272	n/a	RECOG_RESP	2196136	n/a	LTP087	ltpFR	0	3	n/a	DANCER	437	0	n/a	n/a	n/a	n/a	n/a	n/a	n/a
4393.13	n/a	RECOG_CONF	2196565	n/a	LTP087	ltpFR	0	3	n/a	DANCER	437	n/a	4	n/a	n/a	n/a	n/a	n/a	n/a
4394.772	n/a	RECOG_TARGET	2197386	n/a	LTP087	ltpFR	0	3	-1	BANANA	77	1	4	-1	n/a	n/a	n/a	n/a	n/a
4395.67	n/a	RECOG_RESP	2197835	n/a	LTP087	ltpFR	0	3	-1	BANANA	77	1	n/a	-1	n/a	n/a	n/a	n/a	n/a
4396.712	n/a	RECOG_CONF	2198356	n/a	LTP087	ltpFR	0	3	-1	BANANA	77	n/a	4	-1	n/a	n/a	n/a	n/a	n/a
4398.162	n/a	RECOG_TARGET	2199081	n/a	LTP087	ltpFR	0	3	0	FOLLOWER	589	1	5	1	n/a	n/a	n/a	n/a	n/a
4399.646	n/a	RECOG_RESP	2199823	n/a	LTP087	ltpFR	0	3	0	FOLLOWER	589	1	n/a	1	n/a	n/a	n/a	n/a	n/a
4400.444	n/a	RECOG_CONF	2200222	n/a	LTP087	ltpFR	0	3	0	FOLLOWER	589	n/a	5	1	n/a	n/a	n/a	n/a	n/a
4402.12	n/a	RECOG_TARGET	2201060	n/a	LTP087	ltpFR	0	3	1	CANARY	227	0	3	0	n/a	n/a	n/a	n/a	n/a
4403.616	n/a	RECOG_RESP	2201808	n/a	LTP087	ltpFR	0	3	1	CANARY	227	0	n/a	0	n/a	n/a	n/a	n/a	n/a
4404.614	n/a	RECOG_CONF	2202307	n/a	LTP087	ltpFR	0	3	1	CANARY	227	n/a	3	0	n/a	n/a	n/a	n/a	n/a
4409.122	n/a	REC_START	2204561	n/a	LTP087	ltpFR	0	4	n/a	n/a	n/a	n/a	n/a	n/a	n/a	n/a	n/a	n/a	n/a
4409.162	n/a	RECOG_TARGET	2204581	n/a	LTP087	ltpFR	0	4	0	AMBULANCE	19	1	5	1	n/a	n/a	n/a	n/a	n/a
4410.254	n/a	RECOG_RESP	2205127	n/a	LTP087	ltpFR	0	4	0	AMBULANCE	19	1	n/a	1	n/a	n/a	n/a	n/a	n/a
4410.992	n/a	RECOG_CONF	2205496	n/a	LTP087	ltpFR	0	4	0	AMBULANCE	19	n/a	5	1	n/a	n/a	n/a	n/a	n/a
4412.428	n/a	RECOG_TARGET	2206214	n/a	LTP087	ltpFR	0	4	1	CUCUMBER	421	1	5	0	n/a	n/a	n/a	n/a	n/a
4413.246	n/a	RECOG_RESP	2206623	n/a	LTP087	ltpFR	0	4	1	CUCUMBER	421	1	n/a	0	n/a	n/a	n/a	n/a	n/a
4413.936	n/a	RECOG_CONF	2206968	n/a	LTP087	ltpFR	0	4	1	CUCUMBER	421	n/a	5	0	n/a	n/a	n/a	n/a	n/a
4415.394	n/a	RECOG_LURE	2207697	n/a	LTP087	ltpFR	0	4	n/a	INMATE	738	0	5	n/a	n/a	n/a	n/a	n/a	n/a
4417.008	n/a	RECOG_RESP	2208504	n/a	LTP087	ltpFR	0	4	n/a	INMATE	738	0	n/a	n/a	n/a	n/a	n/a	n/a	n/a
4417.646	n/a	RECOG_CONF	2208823	n/a	LTP087	ltpFR	0	4	n/a	INMATE	738	n/a	5	n/a	n/a	n/a	n/a	n/a	n/a
4419.178	n/a	RECOG_LURE	2209589	n/a	LTP087	ltpFR	0	4	n/a	SALAD	1224	0	5	n/a	n/a	n/a	n/a	n/a	n/a
4420.222	n/a	RECOG_RESP	2210111	n/a	LTP087	ltpFR	0	4	n/a	SALAD	1224	0	n/a	n/a	n/a	n/a	n/a	n/a	n/a
4420.77	n/a	RECOG_CONF	2210385	n/a	LTP087	ltpFR	0	4	n/a	SALAD	1224	n/a	5	n/a	n/a	n/a	n/a	n/a	n/a
4422.37	n/a	RECOG_LURE	2211185	n/a	LTP087	ltpFR	0	4	n/a	BOYFRIEND	162	0	5	n/a	n/a	n/a	n/a	n/a	n/a
4423.264	n/a	RECOG_RESP	2211632	n/a	LTP087	ltpFR	0	4	n/a	BOYFRIEND	162	0	n/a	n/a	n/a	n/a	n/a	n/a	n/a
4424.052	n/a	RECOG_CONF	2212026	n/a	LTP087	ltpFR	0	4	n/a	BOYFRIEND	162	n/a	5	n/a	n/a	n/a	n/a	n/a	n/a
4425.746	n/a	RECOG_LURE	2212873	n/a	LTP087	ltpFR	0	4	n/a	NUN	962	0	5	n/a	n/a	n/a	n/a	n/a	n/a
4426.566	n/a	RECOG_RESP	2213283	n/a	LTP087	ltpFR	0	4	n/a	NUN	962	0	n/a	n/a	n/a	n/a	n/a	n/a	n/a
4427.206	n/a	RECOG_CONF	2213603	n/a	LTP087	ltpFR	0	4	n/a	NUN	962	n/a	5	n/a	n/a	n/a	n/a	n/a	n/a
4428.688	n/a	RECOG_LURE	2214344	n/a	LTP087	ltpFR	0	4	n/a	WASHCLOTH	1591	0	5	n/a	n/a	n/a	n/a	n/a	n/a
4429.55	n/a	RECOG_RESP	2214775	n/a	LTP087	ltpFR	0	4	n/a	WASHCLOTH	1591	0	n/a	n/a	n/a	n/a	n/a	n/a	n/a
4430.29	n/a	RECOG_CONF	2215145	n/a	LTP087	ltpFR	0	4	n/a	WASHCLOTH	1591	n/a	5	n/a	n/a	n/a	n/a	n/a	n/a
4431.812	n/a	RECOG_TARGET	2215906	n/a	LTP087	ltpFR	0	4	0	BUN	197	1	5	0	n/a	n/a	n/a	n/a	n/a
4433.132	n/a	RECOG_RESP	2216566	n/a	LTP087	ltpFR	0	4	0	BUN	197	1	n/a	0	n/a	n/a	n/a	n/a	n/a
4433.842	n/a	RECOG_CONF	2216921	n/a	LTP087	ltpFR	0	4	0	BUN	197	n/a	5	0	n/a	n/a	n/a	n/a	n/a
4435.312	n/a	RECOG_TARGET	2217656	n/a	LTP087	ltpFR	0	4	1	SPRINKLE	1359	1	5	0	n/a	n/a	n/a	n/a	n/a
4436.166	n/a	RECOG_RESP	2218083	n/a	LTP087	ltpFR	0	4	1	SPRINKLE	1359	1	n/a	0	n/a	n/a	n/a	n/a	n/a
4436.854	n/a	RECOG_CONF	2218427	n/a	LTP087	ltpFR	0	4	1	SPRINKLE	1359	n/a	5	0	n/a	n/a	n/a	n/a	n/a
4438.27	n/a	RECOG_LURE	2219135	n/a	LTP087	ltpFR	0	4	n/a	MARBLE	867	0	5	n/a	n/a	n/a	n/a	n/a	n/a
4439.188	n/a	RECOG_RESP	2219594	n/a	LTP087	ltpFR	0	4	n/a	MARBLE	867	0	n/a	n/a	n/a	n/a	n/a	n/a	n/a
4440.008	n/a	RECOG_CONF	2220004	n/a	LTP087	ltpFR	0	4	n/a	MARBLE	867	n/a	5	n/a	n/a	n/a	n/a	n/a	n/a
4441.536	n/a	RECOG_LURE	2220768	n/a	LTP087	ltpFR	0	4	n/a	MALL	860	0	5	n/a	n/a	n/a	n/a	n/a	n/a
4442.692	n/a	RECOG_RESP	2221346	n/a	LTP087	ltpFR	0	4	n/a	MALL	860	0	n/a	n/a	n/a	n/a	n/a	n/a	n/a
4443.43	n/a	RECOG_CONF	2221715	n/a	LTP087	ltpFR	0	4	n/a	MALL	860	n/a	5	n/a	n/a	n/a	n/a	n/a	n/a
4444.904	n/a	RECOG_LURE	2222452	n/a	LTP087	ltpFR	0	4	n/a	BANQUET	86	1	5	n/a	n/a	n/a	n/a	n/a	n/a
4445.894	n/a	RECOG_RESP	2222947	n/a	LTP087	ltpFR	0	4	n/a	BANQUET	86	1	n/a	n/a	n/a	n/a	n/a	n/a	n/a
4446.572	n/a	RECOG_CONF	2223286	n/a	LTP087	ltpFR	0	4	n/a	BANQUET	86	n/a	5	n/a	n/a	n/a	n/a	n/a	n/a
4448.094	n/a	RECOG_TARGET	2224047	n/a	LTP087	ltpFR	0	4	0	SHOE	1288	0	3	0	n/a	n/a	n/a	n/a	n/a
4449.406	n/a	RECOG_RESP	2224703	n/a	LTP087	ltpFR	0	4	0	SHOE	1288	0	n/a	0	n/a	n/a	n/a	n/a	n/a
4450.184	n/a	RECOG_CONF	2225092	n/a	LTP087	ltpFR	0	4	0	SHOE	1288	n/a	3	0	n/a	n/a	n/a	n/a	n/a
4451.612	n/a	RECOG_TARGET	2225806	n/a	LTP087	ltpFR	0	4	0	RACKET	1155	1	4	0	n/a	n/a	n/a	n/a	n/a
4452.958	n/a	RECOG_RESP	2226479	n/a	LTP087	ltpFR	0	4	0	RACKET	1155	1	n/a	0	n/a	n/a	n/a	n/a	n/a
4453.658	n/a	RECOG_CONF	2226829	n/a	LTP087	ltpFR	0	4	0	RACKET	1155	n/a	4	0	n/a	n/a	n/a	n/a	n/a
4455.16	n/a	RECOG_TARGET	2227580	n/a	LTP087	ltpFR	0	4	0	JAM	748	0	4	0	n/a	n/a	n/a	n/a	n/a
4456.42	n/a	RECOG_RESP	2228210	n/a	LTP087	ltpFR	0	4	0	JAM	748	0	n/a	0	n/a	n/a	n/a	n/a	n/a
4457.818	n/a	RECOG_CONF	2228909	n/a	LTP087	ltpFR	0	4	0	JAM	748	n/a	4	0	n/a	n/a	n/a	n/a	n/a
4459.352	n/a	RECOG_TARGET	2229676	n/a	LTP087	ltpFR	0	4	0	MOB	904	1	5	1	n/a	n/a	n/a	n/a	n/a
4460.612	n/a	RECOG_RESP	2230306	n/a	LTP087	ltpFR	0	4	0	MOB	904	1	n/a	1	n/a	n/a	n/a	n/a	n/a
4461.308	n/a	RECOG_CONF	2230654	n/a	LTP087	ltpFR	0	4	0	MOB	904	n/a	5	1	n/a	n/a	n/a	n/a	n/a
4462.852	n/a	RECOG_TARGET	2231426	n/a	LTP087	ltpFR	0	4	0	PUPPY	1144	1	5	0	n/a	n/a	n/a	n/a	n/a
4464.024	n/a	RECOG_RESP	2232012	n/a	LTP087	ltpFR	0	4	0	PUPPY	1144	1	n/a	0	n/a	n/a	n/a	n/a	n/a
4464.752	n/a	RECOG_CONF	2232376	n/a	LTP087	ltpFR	0	4	0	PUPPY	1144	n/a	5	0	n/a	n/a	n/a	n/a	n/a
4466.21	n/a	RECOG_LURE	2233105	n/a	LTP087	ltpFR	0	4	n/a	POWDER	1117	0	2	n/a	n/a	n/a	n/a	n/a	n/a
4469.112	n/a	RECOG_RESP	2234556	n/a	LTP087	ltpFR	0	4	n/a	POWDER	1117	0	n/a	n/a	n/a	n/a	n/a	n/a	n/a
4470.27	n/a	RECOG_CONF	2235135	n/a	LTP087	ltpFR	0	4	n/a	POWDER	1117	n/a	2	n/a	n/a	n/a	n/a	n/a	n/a
4471.754	n/a	RECOG_TARGET	2235877	n/a	LTP087	ltpFR	0	4	1	GARLIC	624	1	5	0	n/a	n/a	n/a	n/a	n/a
4472.694	n/a	RECOG_RESP	2236347	n/a	LTP087	ltpFR	0	4	1	GARLIC	624	1	n/a	0	n/a	n/a	n/a	n/a	n/a
4473.414	n/a	RECOG_CONF	2236707	n/a	LTP087	ltpFR	0	4	1	GARLIC	624	n/a	5	0	n/a	n/a	n/a	n/a	n/a
4474.902	n/a	RECOG_LURE	2237451	n/a	LTP087	ltpFR	0	4	n/a	RAT	1169	0	2	n/a	n/a	n/a	n/a	n/a	n/a
4476.786	n/a	RECOG_RESP	2238393	n/a	LTP087	ltpFR	0	4	n/a	RAT	1169	0	n/a	n/a	n/a	n/a	n/a	n/a	n/a
4477.704	n/a	RECOG_CONF	2238852	n/a	LTP087	ltpFR	0	4	n/a	RAT	1169	n/a	2	n/a	n/a	n/a	n/a	n/a	n/a
4481.168	n/a	REC_START	2240584	n/a	LTP087	ltpFR	0	5	n/a	n/a	n/a	n/a	n/a	n/a	n/a	n/a	n/a	n/a	n/a
4481.202	n/a	RECOG_TARGET	2240601	n/a	LTP087	ltpFR	0	5	1	ALBUM	14	0	4	0	n/a	n/a	n/a	n/a	n/a
4482.4	n/a	RECOG_RESP	2241200	n/a	LTP087	ltpFR	0	5	1	ALBUM	14	0	n/a	0	n/a	n/a	n/a	n/a	n/a
4484.356	n/a	RECOG_CONF	2242178	n/a	LTP087	ltpFR	0	5	1	ALBUM	14	n/a	4	0	n/a	n/a	n/a	n/a	n/a
4485.886	n/a	RECOG_LURE	2242943	n/a	LTP087	ltpFR	0	5	n/a	WOLF	1619	0	5	n/a	n/a	n/a	n/a	n/a	n/a
4487.622	n/a	RECOG_RESP	2243811	n/a	LTP087	ltpFR	0	5	n/a	WOLF	1619	0	n/a	n/a	n/a	n/a	n/a	n/a	n/a
4488.278	n/a	RECOG_CONF	2244139	n/a	LTP087	ltpFR	0	5	n/a	WOLF	1619	n/a	5	n/a	n/a	n/a	n/a	n/a	n/a
4489.802	n/a	RECOG_LURE	2244901	n/a	LTP087	ltpFR	0	5	n/a	HONEY	713	0	5	n/a	n/a	n/a	n/a	n/a	n/a
4490.782	n/a	RECOG_RESP	2245391	n/a	LTP087	ltpFR	0	5	n/a	HONEY	713	0	n/a	n/a	n/a	n/a	n/a	n/a	n/a
4491.53	n/a	RECOG_CONF	2245765	n/a	LTP087	ltpFR	0	5	n/a	HONEY	713	n/a	5	n/a	n/a	n/a	n/a	n/a	n/a
4493.002	n/a	RECOG_TARGET	2246501	n/a	LTP087	ltpFR	0	5	0	FARM	552	1	5	1	n/a	n/a	n/a	n/a	n/a
4494.05	n/a	RECOG_RESP	2247025	n/a	LTP087	ltpFR	0	5	0	FARM	552	1	n/a	1	n/a	n/a	n/a	n/a	n/a
4494.798	n/a	RECOG_CONF	2247399	n/a	LTP087	ltpFR	0	5	0	FARM	552	n/a	5	1	n/a	n/a	n/a	n/a	n/a
4496.218	n/a	RECOG_LURE	2248109	n/a	LTP087	ltpFR	0	5	n/a	WRENCH	1625	0	5	n/a	n/a	n/a	n/a	n/a	n/a
4497.148	n/a	RECOG_RESP	2248574	n/a	LTP087	ltpFR	0	5	n/a	WRENCH	1625	0	n/a	n/a	n/a	n/a	n/a	n/a	n/a
4497.846	n/a	RECOG_CONF	2248923	n/a	LTP087	ltpFR	0	5	n/a	WRENCH	1625	n/a	5	n/a	n/a	n/a	n/a	n/a	n/a
4499.418	n/a	RECOG_TARGET	2249709	n/a	LTP087	ltpFR	0	5	1	PICNIC	1060	0	5	0	n/a	n/a	n/a	n/a	n/a
4500.728	n/a	RECOG_RESP_VV	2250364	n/a	LTP087	ltpFR	0	5	1	PICNIC	1060	1	n/a	0	n/a	n/a	n/a	n/a	n/a
4502.02	n/a	RECOG_RESP	2251010	n/a	LTP087	ltpFR	0	5	1	PICNIC	1060	0	n/a	0	n/a	n/a	n/a	n/a	n/a
4502.634	n/a	RECOG_CONF	2251317	n/a	LTP087	ltpFR	0	5	1	PICNIC	1060	n/a	5	0	n/a	n/a	n/a	n/a	n/a
4504.55	n/a	RECOG_LURE	2252275	n/a	LTP087	ltpFR	0	5	n/a	BULLETIN	195	0	4	n/a	n/a	n/a	n/a	n/a	n/a
4507.04	n/a	RECOG_RESP	2253520	n/a	LTP087	ltpFR	0	5	n/a	BULLETIN	195	0	n/a	n/a	n/a	n/a	n/a	n/a	n/a
4508.102	n/a	RECOG_CONF	2254051	n/a	LTP087	ltpFR	0	5	n/a	BULLETIN	195	n/a	4	n/a	n/a	n/a	n/a	n/a	n/a
4509.594	n/a	RECOG_TARGET	2254797	n/a	LTP087	ltpFR	0	5	-1	ARMY	39	1	5	-1	n/a	n/a	n/a	n/a	n/a
4510.518	n/a	RECOG_RESP	2255259	n/a	LTP087	ltpFR	0	5	-1	ARMY	39	1	n/a	-1	n/a	n/a	n/a	n/a	n/a
4511.214	n/a	RECOG_CONF	2255607	n/a	LTP087	ltpFR	0	5	-1	ARMY	39	n/a	5	-1	n/a	n/a	n/a	n/a	n/a
4512.744	n/a	RECOG_LURE	2256372	n/a	LTP087	ltpFR	0	5	n/a	MOWER	928	0	5	n/a	n/a	n/a	n/a	n/a	n/a
4514.274	n/a	RECOG_RESP	2257137	n/a	LTP087	ltpFR	0	5	n/a	MOWER	928	0	n/a	n/a	n/a	n/a	n/a	n/a	n/a
4514.906	n/a	RECOG_CONF	2257453	n/a	LTP087	ltpFR	0	5	n/a	MOWER	928	n/a	5	n/a	n/a	n/a	n/a	n/a	n/a
4516.4	n/a	RECOG_LURE	2258200	n/a	LTP087	ltpFR	0	5	n/a	FOSSIL	596	0	5	n/a	n/a	n/a	n/a	n/a	n/a
4517.512	n/a	RECOG_RESP	2258756	n/a	LTP087	ltpFR	0	5	n/a	FOSSIL	596	0	n/a	n/a	n/a	n/a	n/a	n/a	n/a
4518.798	n/a	RECOG_CONF	2259399	n/a	LTP087	ltpFR	0	5	n/a	FOSSIL	596	n/a	5	n/a	n/a	n/a	n/a	n/a	n/a
4520.218	n/a	RECOG_LURE	2260109	n/a	LTP087	ltpFR	0	5	n/a	TOAD	1470	0	5	n/a	n/a	n/a	n/a	n/a	n/a
4521.314	n/a	RECOG_RESP	2260657	n/a	LTP087	ltpFR	0	5	n/a	TOAD	1470	0	n/a	n/a	n/a	n/a	n/a	n/a	n/a
4522.092	n/a	RECOG_CONF	2261046	n/a	LTP087	ltpFR	0	5	n/a	TOAD	1470	n/a	5	n/a	n/a	n/a	n/a	n/a	n/a
4523.558	n/a	RECOG_TARGET	2261779	n/a	LTP087	ltpFR	0	5	0	CHAMPION	279	1	5	1	n/a	n/a	n/a	n/a	n/a
4525.034	n/a	RECOG_RESP	2262517	n/a	LTP087	ltpFR	0	5	0	CHAMPION	279	1	n/a	1	n/a	n/a	n/a	n/a	n/a
4525.744	n/a	RECOG_CONF	2262872	n/a	LTP087	ltpFR	0	5	0	CHAMPION	279	n/a	5	1	n/a	n/a	n/a	n/a	n/a
4527.184	n/a	RECOG_LURE	2263592	n/a	LTP087	ltpFR	0	5	n/a	RIBBON	1189	0	3	n/a	n/a	n/a	n/a	n/a	n/a
4529.036	n/a	RECOG_RESP	2264518	n/a	LTP087	ltpFR	0	5	n/a	RIBBON	1189	0	n/a	n/a	n/a	n/a	n/a	n/a	n/a
4530.314	n/a	RECOG_CONF	2265157	n/a	LTP087	ltpFR	0	5	n/a	RIBBON	1189	n/a	3	n/a	n/a	n/a	n/a	n/a	n/a
4531.752	n/a	RECOG_TARGET	2265876	n/a	LTP087	ltpFR	0	5	1	HOUND	724	0	5	0	n/a	n/a	n/a	n/a	n/a
4533.306	n/a	RECOG_RESP	2266653	n/a	LTP087	ltpFR	0	5	1	HOUND	724	0	n/a	0	n/a	n/a	n/a	n/a	n/a
4534.114	n/a	RECOG_CONF	2267057	n/a	LTP087	ltpFR	0	5	1	HOUND	724	n/a	5	0	n/a	n/a	n/a	n/a	n/a
4535.642	n/a	RECOG_LURE	2267821	n/a	LTP087	ltpFR	0	5	n/a	CHIP	303	0	3	n/a	n/a	n/a	n/a	n/a	n/a
4537.966	n/a	RECOG_RESP	2268983	n/a	LTP087	ltpFR	0	5	n/a	CHIP	303	0	n/a	n/a	n/a	n/a	n/a	n/a	n/a
4538.734	n/a	RECOG_CONF	2269367	n/a	LTP087	ltpFR	0	5	n/a	CHIP	303	n/a	3	n/a	n/a	n/a	n/a	n/a	n/a
4540.2	n/a	RECOG_TARGET	2270100	n/a	LTP087	ltpFR	0	5	1	TOWEL	1489	1	5	0	n/a	n/a	n/a	n/a	n/a
4541.188	n/a	RECOG_RESP	2270594	n/a	LTP087	ltpFR	0	5	1	TOWEL	1489	1	n/a	0	n/a	n/a	n/a	n/a	n/a
4541.898	n/a	RECOG_CONF	2270949	n/a	LTP087	ltpFR	0	5	1	TOWEL	1489	n/a	5	0	n/a	n/a	n/a	n/a	n/a
4543.358	n/a	RECOG_LURE	2271679	n/a	LTP087	ltpFR	0	5	n/a	METEOR	889	0	4	n/a	n/a	n/a	n/a	n/a	n/a
4544.93	n/a	RECOG_RESP	2272465	n/a	LTP087	ltpFR	0	5	n/a	METEOR	889	0	n/a	n/a	n/a	n/a	n/a	n/a	n/a
4545.558	n/a	RECOG_CONF	2272779	n/a	LTP087	ltpFR	0	5	n/a	METEOR	889	n/a	4	n/a	n/a	n/a	n/a	n/a	n/a
4547.1	n/a	RECOG_TARGET	2273550	n/a	LTP087	ltpFR	0	5	1	MULE	931	1	5	0	n/a	n/a	n/a	n/a	n/a
4548.452	n/a	RECOG_RESP	2274226	n/a	LTP087	ltpFR	0	5	1	MULE	931	1	n/a	0	n/a	n/a	n/a	n/a	n/a
4549.132	n/a	RECOG_CONF	2274566	n/a	LTP087	ltpFR	0	5	1	MULE	931	n/a	5	0	n/a	n/a	n/a	n/a	n/a
4550.592	n/a	RECOG_TARGET	2275296	n/a	LTP087	ltpFR	0	5	-1	CELLAR	267	1	5	-1	n/a	n/a	n/a	n/a	n/a
4552.006	n/a	RECOG_RESP	2276003	n/a	LTP087	ltpFR	0	5	-1	CELLAR	267	1	n/a	-1	n/a	n/a	n/a	n/a	n/a
4552.724	n/a	RECOG_CONF	2276362	n/a	LTP087	ltpFR	0	5	-1	CELLAR	267	n/a	5	-1	n/a	n/a	n/a	n/a	n/a
4554.224	n/a	RECOG_TARGET	2277112	n/a	LTP087	ltpFR	0	5	0	BARN	89	1	5	1	n/a	n/a	n/a	n/a	n/a
4555.078	n/a	RECOG_RESP	2277539	n/a	LTP087	ltpFR	0	5	0	BARN	89	1	n/a	1	n/a	n/a	n/a	n/a	n/a
4555.876	n/a	RECOG_CONF	2277938	n/a	LTP087	ltpFR	0	5	0	BARN	89	n/a	5	1	n/a	n/a	n/a	n/a	n/a
4559.084	n/a	REC_START	2279542	n/a	LTP087	ltpFR	0	6	n/a	n/a	n/a	n/a	n/a	n/a	n/a	n/a	n/a	n/a	n/a
4559.116	n/a	RECOG_TARGET	2279558	n/a	LTP087	ltpFR	0	6	1	DIVER	476	1	3	1	n/a	n/a	n/a	n/a	n/a
4560.666	n/a	RECOG_RESP	2280333	n/a	LTP087	ltpFR	0	6	1	DIVER	476	1	n/a	1	n/a	n/a	n/a	n/a	n/a
4561.384	n/a	RECOG_CONF	2280692	n/a	LTP087	ltpFR	0	6	1	DIVER	476	n/a	3	1	n/a	n/a	n/a	n/a	n/a
4562.766	n/a	RECOG_LURE	2281383	n/a	LTP087	ltpFR	0	6	n/a	SWORD	1423	0	4	n/a	n/a	n/a	n/a	n/a	n/a
4563.948	n/a	RECOG_RESP	2281974	n/a	LTP087	ltpFR	0	6	n/a	SWORD	1423	0	n/a	n/a	n/a	n/a	n/a	n/a	n/a
4564.696	n/a	RECOG_CONF	2282348	n/a	LTP087	ltpFR	0	6	n/a	SWORD	1423	n/a	4	n/a	n/a	n/a	n/a	n/a	n/a
4566.09	n/a	RECOG_TARGET	2283045	n/a	LTP087	ltpFR	0	6	-1	MECHANIC	884	1	5	-1	n/a	n/a	n/a	n/a	n/a
4566.982	n/a	RECOG_RESP	2283491	n/a	LTP087	ltpFR	0	6	-1	MECHANIC	884	1	n/a	-1	n/a	n/a	n/a	n/a	n/a
4567.62	n/a	RECOG_CONF	2283810	n/a	LTP087	ltpFR	0	6	-1	MECHANIC	884	n/a	5	-1	n/a	n/a	n/a	n/a	n/a
4569.108	n/a	RECOG_LURE	2284554	n/a	LTP087	ltpFR	0	6	n/a	CLIFF	322	0	4	n/a	n/a	n/a	n/a	n/a	n/a
4570.066	n/a	RECOG_RESP	2285033	n/a	LTP087	ltpFR	0	6	n/a	CLIFF	322	0	n/a	n/a	n/a	n/a	n/a	n/a	n/a
4571.352	n/a	RECOG_CONF	2285676	n/a	LTP087	ltpFR	0	6	n/a	CLIFF	322	n/a	4	n/a	n/a	n/a	n/a	n/a	n/a
4572.808	n/a	RECOG_TARGET	2286404	n/a	LTP087	ltpFR	0	6	-1	SERGEANT	1269	1	5	-1	n/a	n/a	n/a	n/a	n/a
4574.246	n/a	RECOG_RESP	2287123	n/a	LTP087	ltpFR	0	6	-1	SERGEANT	1269	1	n/a	-1	n/a	n/a	n/a	n/a	n/a
4574.826	n/a	RECOG_CONF	2287413	n/a	LTP087	ltpFR	0	6	-1	SERGEANT	1269	n/a	5	-1	n/a	n/a	n/a	n/a	n/a
4576.332	n/a	RECOG_TARGET	2288166	n/a	LTP087	ltpFR	0	6	1	CHEST	295	1	5	0	n/a	n/a	n/a	n/a	n/a
4577.588	n/a	RECOG_RESP	2288794	n/a	LTP087	ltpFR	0	6	1	CHEST	295	1	n/a	0	n/a	n/a	n/a	n/a	n/a
4578.336	n/a	RECOG_CONF	2289168	n/a	LTP087	ltpFR	0	6	1	CHEST	295	n/a	5	0	n/a	n/a	n/a	n/a	n/a
4579.816	n/a	RECOG_TARGET	2289908	n/a	LTP087	ltpFR	0	6	-1	PIE	1062	1	5	-1	n/a	n/a	n/a	n/a	n/a
4581.3	n/a	RECOG_RESP	2290650	n/a	LTP087	ltpFR	0	6	-1	PIE	1062	1	n/a	-1	n/a	n/a	n/a	n/a	n/a
4582.068	n/a	RECOG_CONF	2291034	n/a	LTP087	ltpFR	0	6	-1	PIE	1062	n/a	5	-1	n/a	n/a	n/a	n/a	n/a
4583.498	n/a	RECOG_LURE	2291749	n/a	LTP087	ltpFR	0	6	n/a	TOY	1492	0	4	n/a	n/a	n/a	n/a	n/a	n/a
4584.582	n/a	RECOG_RESP	2292291	n/a	LTP087	ltpFR	0	6	n/a	TOY	1492	0	n/a	n/a	n/a	n/a	n/a	n/a	n/a
4585.256	n/a	RECOG_CONF	2292628	n/a	LTP087	ltpFR	0	6	n/a	TOY	1492	n/a	4	n/a	n/a	n/a	n/a	n/a	n/a
4586.682	n/a	RECOG_LURE	2293341	n/a	LTP087	ltpFR	0	6	n/a	CHILD	299	0	4	n/a	n/a	n/a	n/a	n/a	n/a
4588.234	n/a	RECOG_RESP	2294117	n/a	LTP087	ltpFR	0	6	n/a	CHILD	299	0	n/a	n/a	n/a	n/a	n/a	n/a	n/a
4589.114	n/a	RECOG_CONF	2294557	n/a	LTP087	ltpFR	0	6	n/a	CHILD	299	n/a	4	n/a	n/a	n/a	n/a	n/a	n/a
4590.626	n/a	RECOG_TARGET	2295313	n/a	LTP087	ltpFR	0	6	1	BOUQUET	157	1	4	0	n/a	n/a	n/a	n/a	n/a
4592.316	n/a	RECOG_RESP	2296158	n/a	LTP087	ltpFR	0	6	1	BOUQUET	157	1	n/a	0	n/a	n/a	n/a	n/a	n/a
4592.964	n/a	RECOG_CONF	2296482	n/a	LTP087	ltpFR	0	6	1	BOUQUET	157	n/a	4	0	n/a	n/a	n/a	n/a	n/a
4594.458	n/a	RECOG_TARGET	2297229	n/a	LTP087	ltpFR	0	6	0	THORN	1459	1	5	0	n/a	n/a	n/a	n/a	n/a
4595.638	n/a	RECOG_RESP	2297819	n/a	LTP087	ltpFR	0	6	0	THORN	1459	1	n/a	0	n/a	n/a	n/a	n/a	n/a
4596.526	n/a	RECOG_CONF	2298263	n/a	LTP087	ltpFR	0	6	0	THORN	1459	n/a	5	0	n/a	n/a	n/a	n/a	n/a
4598.0	n/a	RECOG_TARGET	2299000	n/a	LTP087	ltpFR	0	6	0	BREAST	171	1	5	0	n/a	n/a	n/a	n/a	n/a
4599.13	n/a	RECOG_RESP	2299565	n/a	LTP087	ltpFR	0	6	0	BREAST	171	1	n/a	0	n/a	n/a	n/a	n/a	n/a
4599.978	n/a	RECOG_CONF	2299989	n/a	LTP087	ltpFR	0	6	0	BREAST	171	n/a	5	0	n/a	n/a	n/a	n/a	n/a
4601.6	n/a	RECOG_TARGET	2300800	n/a	LTP087	ltpFR	0	6	1	PERISCOPE	1050	0	3	0	n/a	n/a	n/a	n/a	n/a
4603.062	n/a	RECOG_RESP	2301531	n/a	LTP087	ltpFR	0	6	1	PERISCOPE	1050	0	n/a	0	n/a	n/a	n/a	n/a	n/a
4603.98	n/a	RECOG_CONF	2301990	n/a	LTP087	ltpFR	0	6	1	PERISCOPE	1050	n/a	3	0	n/a	n/a	n/a	n/a	n/a
4605.472	n/a	RECOG_TARGET	2302736	n/a	LTP087	ltpFR	0	6	-1	LUNCH	849	0	3	-1	n/a	n/a	n/a	n/a	n/a
4607.81	n/a	RECOG_RESP	2303905	n/a	LTP087	ltpFR	0	6	-1	LUNCH	849	0	n/a	-1	n/a	n/a	n/a	n/a	n/a
4608.578	n/a	RECOG_CONF	2304289	n/a	LTP087	ltpFR	0	6	-1	LUNCH	849	n/a	3	-1	n/a	n/a	n/a	n/a	n/a
4610.098	n/a	RECOG_TARGET	2305049	n/a	LTP087	ltpFR	0	6	0	BANJO	82	0	5	0	n/a	n/a	n/a	n/a	n/a
4611.574	n/a	RECOG_RESP	2305787	n/a	LTP087	ltpFR	0	6	0	BANJO	82	0	n/a	0	n/a	n/a	n/a	n/a	n/a
4612.192	n/a	RECOG_CONF	2306096	n/a	LTP087	ltpFR	0	6	0	BANJO	82	n/a	5	0	n/a	n/a	n/a	n/a	n/a
4613.824	n/a	RECOG_TARGET	2306912	n/a	LTP087	ltpFR	0	6	-1	BATHTUB	100	1	5	-1	n/a	n/a	n/a	n/a	n/a
4616.038	n/a	RECOG_RESP	2308019	n/a	LTP087	ltpFR	0	6	-1	BATHTUB	100	1	n/a	-1	n/a	n/a	n/a	n/a	n/a
4616.944	n/a	RECOG_CONF	2308472	n/a	LTP087	ltpFR	0	6	-1	BATHTUB	100	n/a	5	-1	n/a	n/a	n/a	n/a	n/a
4618.382	n/a	RECOG_LURE	2309191	n/a	LTP087	ltpFR	0	6	n/a	SIREN	1310	0	4	n/a	n/a	n/a	n/a	n/a	n/a
4619.59	n/a	RECOG_RESP	2309795	n/a	LTP087	ltpFR	0	6	n/a	SIREN	1310	0	n/a	n/a	n/a	n/a	n/a	n/a	n/a
4620.314	n/a	RECOG_CONF	2310157	n/a	LTP087	ltpFR	0	6	n/a	SIREN	1310	n/a	4	n/a	n/a	n/a	n/a	n/a	n/a
4621.632	n/a	RECOG_TARGET	2310816	n/a	LTP087	ltpFR	0	6	0	SUBMARINE	1398	1	4	1	n/a	n/a	n/a	n/a	n/a
4623.226	n/a	RECOG_RESP	2311613	n/a	LTP087	ltpFR	0	6	0	SUBMARINE	1398	1	n/a	1	n/a	n/a	n/a	n/a	n/a
4623.906	n/a	RECOG_CONF	2311953	n/a	LTP087	ltpFR	0	6	0	SUBMARINE	1398	n/a	4	1	n/a	n/a	n/a	n/a	n/a
4625.306	n/a	RECOG_LURE	2312653	n/a	LTP087	ltpFR	0	6	n/a	KEY	773	0	2	n/a	n/a	n/a	n/a	n/a	n/a
4626.794	n/a	RECOG_RESP	2313397	n/a	LTP087	ltpFR	0	6	n/a	KEY	773	0	n/a	n/a	n/a	n/a	n/a	n/a	n/a
4628.256	n/a	RECOG_CONF	2314128	n/a	LTP087	ltpFR	0	6	n/a	KEY	773	n/a	2	n/a	n/a	n/a	n/a	n/a	n/a
4629.674	n/a	RECOG_TARGET	2314837	n/a	LTP087	ltpFR	0	6	0	RADIATOR	1156	0	3	0	n/a	n/a	n/a	n/a	n/a
4632.238	n/a	RECOG_RESP	2316119	n/a	LTP087	ltpFR	0	6	0	RADIATOR	1156	0	n/a	0	n/a	n/a	n/a	n/a	n/a
4633.394	n/a	RECOG_CONF	2316697	n/a	LTP087	ltpFR	0	6	0	RADIATOR	1156	n/a	3	0	n/a	n/a	n/a	n/a	n/a
4637.264	n/a	REC_START	2318632	n/a	LTP087	ltpFR	0	7	n/a	n/a	n/a	n/a	n/a	n/a	n/a	n/a	n/a	n/a	n/a
4637.298	n/a	RECOG_LURE	2318649	n/a	LTP087	ltpFR	0	7	n/a	YOLK	1633	0	4	n/a	n/a	n/a	n/a	n/a	n/a
4638.596	n/a	RECOG_RESP	2319298	n/a	LTP087	ltpFR	0	7	n/a	YOLK	1633	0	n/a	n/a	n/a	n/a	n/a	n/a	n/a
4639.294	n/a	RECOG_CONF	2319647	n/a	LTP087	ltpFR	0	7	n/a	YOLK	1633	n/a	4	n/a	n/a	n/a	n/a	n/a	n/a
4640.79	n/a	RECOG_TARGET	2320395	n/a	LTP087	ltpFR	0	7	-1	STAKE	1368	1	5	-1	n/a	n/a	n/a	n/a	n/a
4642.986	n/a	RECOG_RESP	2321493	n/a	LTP087	ltpFR	0	7	-1	STAKE	1368	1	n/a	-1	n/a	n/a	n/a	n/a	n/a
4643.664	n/a	RECOG_CONF	2321832	n/a	LTP087	ltpFR	0	7	-1	STAKE	1368	n/a	5	-1	n/a	n/a	n/a	n/a	n/a
4645.164	n/a	RECOG_LURE	2322582	n/a	LTP087	ltpFR	0	7	n/a	TUBE	1516	0	4	n/a	n/a	n/a	n/a	n/a	n/a
4647.426	n/a	RECOG_RESP	2323713	n/a	LTP087	ltpFR	0	7	n/a	TUBE	1516	0	n/a	n/a	n/a	n/a	n/a	n/a	n/a
4648.294	n/a	RECOG_CONF	2324147	n/a	LTP087	ltpFR	0	7	n/a	TUBE	1516	n/a	4	n/a	n/a	n/a	n/a	n/a	n/a
4649.774	n/a	RECOG_LURE	2324887	n/a	LTP087	ltpFR	0	7	n/a	ELECTRON	522	0	4	n/a	n/a	n/a	n/a	n/a	n/a
4651.702	n/a	RECOG_RESP	2325851	n/a	LTP087	ltpFR	0	7	n/a	ELECTRON	522	0	n/a	n/a	n/a	n/a	n/a	n/a	n/a
4652.404	n/a	RECOG_CONF	2326202	n/a	LTP087	ltpFR	0	7	n/a	ELECTRON	522	n/a	4	n/a	n/a	n/a	n/a	n/a	n/a
4653.798	n/a	RECOG_TARGET	2326899	n/a	LTP087	ltpFR	0	7	1	CHECK	284	0	4	0	n/a	n/a	n/a	n/a	n/a
4655.138	n/a	RECOG_RESP	2327569	n/a	LTP087	ltpFR	0	7	1	CHECK	284	0	n/a	0	n/a	n/a	n/a	n/a	n/a
4655.65	n/a	RECOG_CONF	2327825	n/a	LTP087	ltpFR	0	7	1	CHECK	284	n/a	4	0	n/a	n/a	n/a	n/a	n/a
4657.264	n/a	RECOG_TARGET	2328632	n/a	LTP087	ltpFR	0	7	1	SEED	1266	1	5	0	n/a	n/a	n/a	n/a	n/a
4658.322	n/a	RECOG_RESP	2329161	n/a	LTP087	ltpFR	0	7	1	SEED	1266	1	n/a	0	n/a	n/a	n/a	n/a	n/a
4658.92	n/a	RECOG_CONF	2329460	n/a	LTP087	ltpFR	0	7	1	SEED	1266	n/a	5	0	n/a	n/a	n/a	n/a	n/a
4660.38	n/a	RECOG_LURE	2330190	n/a	LTP087	ltpFR	0	7	n/a	NOSE	957	0	4	n/a	n/a	n/a	n/a	n/a	n/a
4661.324	n/a	RECOG_RESP	2330662	n/a	LTP087	ltpFR	0	7	n/a	NOSE	957	0	n/a	n/a	n/a	n/a	n/a	n/a	n/a
4661.836	n/a	RECOG_CONF	2330918	n/a	LTP087	ltpFR	0	7	n/a	NOSE	957	n/a	4	n/a	n/a	n/a	n/a	n/a	n/a
4663.438	n/a	RECOG_LURE	2331719	n/a	LTP087	ltpFR	0	7	n/a	PUDDLE	1140	0	5	n/a	n/a	n/a	n/a	n/a	n/a
4664.388	n/a	RECOG_RESP	2332194	n/a	LTP087	ltpFR	0	7	n/a	PUDDLE	1140	0	n/a	n/a	n/a	n/a	n/a	n/a	n/a
4664.876	n/a	RECOG_CONF	2332438	n/a	LTP087	ltpFR	0	7	n/a	PUDDLE	1140	n/a	5	n/a	n/a	n/a	n/a	n/a	n/a
4666.438	n/a	RECOG_LURE	2333219	n/a	LTP087	ltpFR	0	7	n/a	OZONE	996	0	5	n/a	n/a	n/a	n/a	n/a	n/a
4667.172	n/a	RECOG_RESP	2333586	n/a	LTP087	ltpFR	0	7	n/a	OZONE	996	0	n/a	n/a	n/a	n/a	n/a	n/a	n/a
4667.79	n/a	RECOG_CONF	2333895	n/a	LTP087	ltpFR	0	7	n/a	OZONE	996	n/a	5	n/a	n/a	n/a	n/a	n/a	n/a
4669.248	n/a	RECOG_TARGET	2334624	n/a	LTP087	ltpFR	0	7	-1	POLICE	1098	1	5	-1	n/a	n/a	n/a	n/a	n/a
4670.336	n/a	RECOG_RESP	2335168	n/a	LTP087	ltpFR	0	7	-1	POLICE	1098	1	n/a	-1	n/a	n/a	n/a	n/a	n/a
4671.682	n/a	RECOG_CONF	2335841	n/a	LTP087	ltpFR	0	7	-1	POLICE	1098	n/a	5	-1	n/a	n/a	n/a	n/a	n/a
4673.088	n/a	RECOG_LURE	2336544	n/a	LTP087	ltpFR	0	7	n/a	TOTE	1487	0	5	n/a	n/a	n/a	n/a	n/a	n/a
4674.126	n/a	RECOG_RESP	2337063	n/a	LTP087	ltpFR	0	7	n/a	TOTE	1487	0	n/a	n/a	n/a	n/a	n/a	n/a	n/a
4674.814	n/a	RECOG_CONF	2337407	n/a	LTP087	ltpFR	0	7	n/a	TOTE	1487	n/a	5	n/a	n/a	n/a	n/a	n/a	n/a
4676.272	n/a	RECOG_LURE	2338136	n/a	LTP087	ltpFR	0	7	n/a	PERCH	1048	0	5	n/a	n/a	n/a	n/a	n/a	n/a
4677.23	n/a	RECOG_RESP	2338615	n/a	LTP087	ltpFR	0	7	n/a	PERCH	1048	0	n/a	n/a	n/a	n/a	n/a	n/a	n/a
4678.028	n/a	RECOG_CONF	2339014	n/a	LTP087	ltpFR	0	7	n/a	PERCH	1048	n/a	5	n/a	n/a	n/a	n/a	n/a	n/a
4679.438	n/a	RECOG_TARGET	2339719	n/a	LTP087	ltpFR	0	7	-1	FENCE	560	1	5	-1	n/a	n/a	n/a	n/a	n/a
4680.692	n/a	RECOG_RESP	2340346	n/a	LTP087	ltpFR	0	7	-1	FENCE	560	1	n/a	-1	n/a	n/a	n/a	n/a	n/a
4682.048	n/a	RECOG_CONF	2341024	n/a	LTP087	ltpFR	0	7	-1	FENCE	560	n/a	5	-1	n/a	n/a	n/a	n/a	n/a
4683.656	n/a	RECOG_TARGET	2341828	n/a	LTP087	ltpFR	0	7	0	TWIG	1527	1	5	0	n/a	n/a	n/a	n/a	n/a
4684.942	n/a	RECOG_RESP	2342471	n/a	LTP087	ltpFR	0	7	0	TWIG	1527	1	n/a	0	n/a	n/a	n/a	n/a	n/a
4685.59	n/a	RECOG_CONF	2342795	n/a	LTP087	ltpFR	0	7	0	TWIG	1527	n/a	5	0	n/a	n/a	n/a	n/a	n/a
4687.038	n/a	RECOG_LURE	2343519	n/a	LTP087	ltpFR	0	7	n/a	MONKEY	911	0	5	n/a	n/a	n/a	n/a	n/a	n/a
4687.996	n/a	RECOG_RESP	2343998	n/a	LTP087	ltpFR	0	7	n/a	MONKEY	911	0	n/a	n/a	n/a	n/a	n/a	n/a	n/a
4688.552	n/a	RECOG_CONF	2344276	n/a	LTP087	ltpFR	0	7	n/a	MONKEY	911	n/a	5	n/a	n/a	n/a	n/a	n/a	n/a
4689.956	n/a	RECOG_TARGET	2344978	n/a	LTP087	ltpFR	0	7	0	GLASSES	640	1	5	0	n/a	n/a	n/a	n/a	n/a
4690.93	n/a	RECOG_RESP	2345465	n/a	LTP087	ltpFR	0	7	0	GLASSES	640	1	n/a	0	n/a	n/a	n/a	n/a	n/a
4691.588	n/a	RECOG_CONF	2345794	n/a	LTP087	ltpFR	0	7	0	GLASSES	640	n/a	5	0	n/a	n/a	n/a	n/a	n/a
4693.03	n/a	RECOG_LURE	2346515	n/a	LTP087	ltpFR	0	7	n/a	SUMMIT	1405	0	4	n/a	n/a	n/a	n/a	n/a	n/a
4694.462	n/a	RECOG_RESP	2347231	n/a	LTP087	ltpFR	0	7	n/a	SUMMIT	1405	0	n/a	n/a	n/a	n/a	n/a	n/a	n/a
4695.12	n/a	RECOG_CONF	2347560	n/a	LTP087	ltpFR	0	7	n/a	SUMMIT	1405	n/a	4	n/a	n/a	n/a	n/a	n/a	n/a
4696.472	n/a	RECOG_LURE	2348236	n/a	LTP087	ltpFR	0	7	n/a	BOLT	146	0	4	n/a	n/a	n/a	n/a	n/a	n/a
4697.954	n/a	RECOG_RESP	2348977	n/a	LTP087	ltpFR	0	7	n/a	BOLT	146	0	n/a	n/a	n/a	n/a	n/a	n/a	n/a
4698.534	n/a	RECOG_CONF	2349267	n/a	LTP087	ltpFR	0	7	n/a	BOLT	146	n/a	4	n/a	n/a	n/a	n/a	n/a	n/a
4699.988	n/a	RECOG_LURE	2349994	n/a	LTP087	ltpFR	0	7	n/a	CRUTCH	417	0	5	n/a	n/a	n/a	n/a	n/a	n/a
4701.336	n/a	RECOG_RESP	2350668	n/a	LTP087	ltpFR	0	7	n/a	CRUTCH	417	0	n/a	n/a	n/a	n/a	n/a	n/a	n/a
4701.984	n/a	RECOG_CONF	2350992	n/a	LTP087	ltpFR	0	7	n/a	CRUTCH	417	n/a	5	n/a	n/a	n/a	n/a	n/a	n/a
4703.478	n/a	RECOG_TARGET	2351739	n/a	LTP087	ltpFR	0	7	-1	HEDGE	699	1	5	-1	n/a	n/a	n/a	n/a	n/a
4704.678	n/a	RECOG_RESP	2352339	n/a	LTP087	ltpFR	0	7	-1	HEDGE	699	1	n/a	-1	n/a	n/a	n/a	n/a	n/a
4705.282	n/a	RECOG_CONF	2352641	n/a	LTP087	ltpFR	0	7	-1	HEDGE	699	n/a	5	-1	n/a	n/a	n/a	n/a	n/a
4708.728	n/a	REC_START	2354364	n/a	LTP087	ltpFR	0	8	n/a	n/a	n/a	n/a	n/a	n/a	n/a	n/a	n/a	n/a	n/a
4708.762	n/a	RECOG_LURE	2354381	n/a	LTP087	ltpFR	0	8	n/a	BISON	131	0	4	n/a	n/a	n/a	n/a	n/a	n/a
4709.8	n/a	RECOG_RESP	2354900	n/a	LTP087	ltpFR	0	8	n/a	BISON	131	0	n/a	n/a	n/a	n/a	n/a	n/a	n/a
4710.498	n/a	RECOG_CONF	2355249	n/a	LTP087	ltpFR	0	8	n/a	BISON	131	n/a	4	n/a	n/a	n/a	n/a	n/a	n/a
4711.922	n/a	RECOG_LURE	2355961	n/a	LTP087	ltpFR	0	8	n/a	GARBAGE	622	1	3	n/a	n/a	n/a	n/a	n/a	n/a
4713.892	n/a	RECOG_RESP	2356946	n/a	LTP087	ltpFR	0	8	n/a	GARBAGE	622	1	n/a	n/a	n/a	n/a	n/a	n/a	n/a
4714.92	n/a	RECOG_CONF	2357460	n/a	LTP087	ltpFR	0	8	n/a	GARBAGE	622	n/a	3	n/a	n/a	n/a	n/a	n/a	n/a
4716.346	n/a	RECOG_TARGET	2358173	n/a	LTP087	ltpFR	0	8	1	HARP	689	1	4	0	n/a	n/a	n/a	n/a	n/a
4717.772	n/a	RECOG_RESP	2358886	n/a	LTP087	ltpFR	0	8	1	HARP	689	1	n/a	0	n/a	n/a	n/a	n/a	n/a
4718.392	n/a	RECOG_CONF	2359196	n/a	LTP087	ltpFR	0	8	1	HARP	689	n/a	4	0	n/a	n/a	n/a	n/a	n/a
4719.796	n/a	RECOG_LURE	2359898	n/a	LTP087	ltpFR	0	8	n/a	OVEN	991	0	5	n/a	n/a	n/a	n/a	n/a	n/a
4720.886	n/a	RECOG_RESP	2360443	n/a	LTP087	ltpFR	0	8	n/a	OVEN	991	0	n/a	n/a	n/a	n/a	n/a	n/a	n/a
4721.42	n/a	RECOG_CONF	2360710	n/a	LTP087	ltpFR	0	8	n/a	OVEN	991	n/a	5	n/a	n/a	n/a	n/a	n/a	n/a
4722.872	n/a	RECOG_TARGET	2361436	n/a	LTP087	ltpFR	0	8	1	LAGOON	795	1	5	0	n/a	n/a	n/a	n/a	n/a
4723.978	n/a	RECOG_RESP	2361989	n/a	LTP087	ltpFR	0	8	1	LAGOON	795	1	n/a	0	n/a	n/a	n/a	n/a	n/a
4724.538	n/a	RECOG_CONF	2362269	n/a	LTP087	ltpFR	0	8	1	LAGOON	795	n/a	5	0	n/a	n/a	n/a	n/a	n/a
4725.962	n/a	RECOG_LURE	2362981	n/a	LTP087	ltpFR	0	8	n/a	CORD	379	0	3	n/a	n/a	n/a	n/a	n/a	n/a
4727.64	n/a	RECOG_RESP	2363820	n/a	LTP087	ltpFR	0	8	n/a	CORD	379	0	n/a	n/a	n/a	n/a	n/a	n/a	n/a
4728.348	n/a	RECOG_CONF	2364174	n/a	LTP087	ltpFR	0	8	n/a	CORD	379	n/a	3	n/a	n/a	n/a	n/a	n/a	n/a
4729.738	n/a	RECOG_LURE	2364869	n/a	LTP087	ltpFR	0	8	n/a	SIGN	1305	0	3	n/a	n/a	n/a	n/a	n/a	n/a
4731.084	n/a	RECOG_RESP	2365542	n/a	LTP087	ltpFR	0	8	n/a	SIGN	1305	0	n/a	n/a	n/a	n/a	n/a	n/a	n/a
4731.802	n/a	RECOG_CONF	2365901	n/a	LTP087	ltpFR	0	8	n/a	SIGN	1305	n/a	3	n/a	n/a	n/a	n/a	n/a	n/a
4733.17	n/a	RECOG_LURE	2366585	n/a	LTP087	ltpFR	0	8	n/a	APPLICATION	34	0	5	n/a	n/a	n/a	n/a	n/a	n/a
4734.406	n/a	RECOG_RESP	2367203	n/a	LTP087	ltpFR	0	8	n/a	APPLICATION	34	0	n/a	n/a	n/a	n/a	n/a	n/a	n/a
4735.014	n/a	RECOG_CONF	2367507	n/a	LTP087	ltpFR	0	8	n/a	APPLICATION	34	n/a	5	n/a	n/a	n/a	n/a	n/a	n/a
4736.504	n/a	RECOG_TARGET	2368252	n/a	LTP087	ltpFR	0	8	1	ROACH	1195	1	5	1	n/a	n/a	n/a	n/a	n/a
4737.758	n/a	RECOG_RESP	2368879	n/a	LTP087	ltpFR	0	8	1	ROACH	1195	1	n/a	1	n/a	n/a	n/a	n/a	n/a
4738.596	n/a	RECOG_CONF	2369298	n/a	LTP087	ltpFR	0	8	1	ROACH	1195	n/a	5	1	n/a	n/a	n/a	n/a	n/a
4740.112	n/a	RECOG_LURE	2370056	n/a	LTP087	ltpFR	0	8	n/a	FAIRY	549	0	3	n/a	n/a	n/a	n/a	n/a	n/a
4741.44	n/a	RECOG_RESP	2370720	n/a	LTP087	ltpFR	0	8	n/a	FAIRY	549	0	n/a	n/a	n/a	n/a	n/a	n/a	n/a
4742.218	n/a	RECOG_CONF	2371109	n/a	LTP087	ltpFR	0	8	n/a	FAIRY	549	n/a	3	n/a	n/a	n/a	n/a	n/a	n/a
4743.604	n/a	RECOG_LURE	2371802	n/a	LTP087	ltpFR	0	8	n/a	DISC	473	0	5	n/a	n/a	n/a	n/a	n/a	n/a
4744.762	n/a	RECOG_RESP	2372381	n/a	LTP087	ltpFR	0	8	n/a	DISC	473	0	n/a	n/a	n/a	n/a	n/a	n/a	n/a
