mstime	trial_type	stim_file	subject	experiment	session	trial	task	item_name	item_num	recog_conf	resp	answer	test_x	test_y	test_z	color_b	color_g	color_r	case	font
0	SESS_START	n/a	LTP067	ltpFR	9	n/a	n/a	n/a	n/a	1	n/a	n/a	0	0	0	n/a	n/a	n/a	n/a	n/a
38553	START	n/a	LTP067	ltpFR	9	n/a	n/a	n/a	n/a	n/a	n/a	n/a	n/a	n/a	n/a	n/a	n/a	n/a	n/a	n/a
38578	PROB	n/a	LTP067	ltpFR	9	n/a	n/a	n/a	n/a	n/a	n/a	7	5	1	1	n/a	n/a	n/a	n/a	n/a
39984	PROB	n/a	LTP067	ltpFR	9	n/a	n/a	n/a	n/a	n/a	n/a	5	2	2	1	n/a	n/a	n/a	n/a	n/a
41074	PROB	n/a	LTP067	ltpFR	9	n/a	n/a	n/a	n/a	n/a	n/a	10	5	1	4	n/a	n/a	n/a	n/a	n/a
42606	PROB	n/a	LTP067	ltpFR	9	n/a	n/a	n/a	n/a	n/a	n/a	17	6	2	9	n/a	n/a	n/a	n/a	n/a
44288	PROB	n/a	LTP067	ltpFR	9	n/a	n/a	n/a	n/a	n/a	n/a	7	1	3	3	n/a	n/a	n/a	n/a	n/a
46959	PROB	n/a	LTP067	ltpFR	9	n/a	n/a	n/a	n/a	n/a	n/a	15	1	9	5	n/a	n/a	n/a	n/a	n/a
48475	PROB	n/a	LTP067	ltpFR	9	n/a	n/a	n/a	n/a	n/a	n/a	20	8	6	6	n/a	n/a	n/a	n/a	n/a
50372	PROB	n/a	LTP067	ltpFR	9	n/a	n/a	n/a	n/a	n/a	n/a	18	4	5	9	n/a	n/a	n/a	n/a	n/a
52028	PROB	n/a	LTP067	ltpFR	9	n/a	n/a	n/a	n/a	n/a	n/a	18	3	8	7	n/a	n/a	n/a	n/a	n/a
54210	PROB	n/a	LTP067	ltpFR	9	n/a	n/a	n/a	n/a	n/a	n/a	15	2	5	8	n/a	n/a	n/a	n/a	n/a
55791	PROB	n/a	LTP067	ltpFR	9	n/a	n/a	n/a	n/a	n/a	n/a	13	3	8	2	n/a	n/a	n/a	n/a	n/a
57325	STOP	n/a	LTP067	ltpFR	9	n/a	n/a	n/a	n/a	n/a	n/a	n/a	n/a	n/a	n/a	n/a	n/a	n/a	n/a	n/a
87246	WORD	wordpools/wasnorm_wordpool.txt	LTP067	ltpFR	9	1	1	RADISH	1158	n/a	0	n/a	0	0	0	1	0.412841796875	0.57763671875	lower	../fonts/amplitud.ttf
91158	WORD	wordpools/wasnorm_wordpool.txt	LTP067	ltpFR	9	1	1	KIWI	781	n/a	0	n/a	0	0	0	1	0.412841796875	0.57763671875	lower	../fonts/amplitud.ttf
95195	WORD	wordpools/wasnorm_wordpool.txt	LTP067	ltpFR	9	1	1	COIN	343	n/a	0	n/a	0	0	0	1	0.412841796875	0.57763671875	lower	../fonts/amplitud.ttf
99232	WORD	wordpools/wasnorm_wordpool.txt	LTP067	ltpFR	9	1	0	FUNGUS	614	n/a	0	n/a	0	0	0	0	0.5869140625	0.422607421875	upper	../fonts/zerothre.ttf
103110	WORD	wordpools/wasnorm_wordpool.txt	LTP067	ltpFR	9	1	0	CHILD	299	n/a	1	n/a	0	0	0	0	0.5869140625	0.422607421875	upper	../fonts/zerothre.ttf
107198	WORD	wordpools/wasnorm_wordpool.txt	LTP067	ltpFR	9	1	0	BASSINET	97	n/a	0	n/a	0	0	0	0	0.5869140625	0.422607421875	upper	../fonts/zerothre.ttf
111117	WORD	wordpools/wasnorm_wordpool.txt	LTP067	ltpFR	9	1	0	SUSPECT	1415	n/a	1	n/a	0	0	0	0	0.5869140625	0.422607421875	upper	../fonts/zerothre.ttf
114979	WORD	wordpools/wasnorm_wordpool.txt	LTP067	ltpFR	9	1	0	REPTILE	1185	n/a	1	n/a	0	0	0	0	0.5869140625	0.422607421875	upper	../fonts/zerothre.ttf
118941	WORD	wordpools/wasnorm_wordpool.txt	LTP067	ltpFR	9	1	0	PRIEST	1122	n/a	1	n/a	0	0	0	0	0.5869140625	0.422607421875	upper	../fonts/zerothre.ttf
122813	WORD	wordpools/wasnorm_wordpool.txt	LTP067	ltpFR	9	1	1	FRUIT	610	n/a	0	n/a	0	0	0	1	0.412841796875	0.57763671875	lower	../fonts/amplitud.ttf
127023	WORD	wordpools/wasnorm_wordpool.txt	LTP067	ltpFR	9	1	1	SICKLE	1302	n/a	0	n/a	0	0	0	1	0.412841796875	0.57763671875	lower	../fonts/amplitud.ttf
130861	WORD	wordpools/wasnorm_wordpool.txt	LTP067	ltpFR	9	1	1	FOREST	593	n/a	0	n/a	0	0	0	1	0.412841796875	0.57763671875	lower	../fonts/amplitud.ttf
134964	WORD	wordpools/wasnorm_wordpool.txt	LTP067	ltpFR	9	1	0	TRIANGLE	1504	n/a	0	n/a	0	0	0	0	0.5869140625	0.422607421875	upper	../fonts/zerothre.ttf
138934	WORD	wordpools/wasnorm_wordpool.txt	LTP067	ltpFR	9	1	0	EGYPT	519	n/a	1	n/a	0	0	0	0	0.5869140625	0.422607421875	upper	../fonts/zerothre.ttf
142980	WORD	wordpools/wasnorm_wordpool.txt	LTP067	ltpFR	9	1	1	CHICKEN	297	n/a	1	n/a	0	0	0	1	0.412841796875	0.57763671875	lower	../fonts/amplitud.ttf
147033	WORD	wordpools/wasnorm_wordpool.txt	LTP067	ltpFR	9	1	1	HAM	678	n/a	0	n/a	0	0	0	1	0.412841796875	0.57763671875	lower	../fonts/amplitud.ttf
150038	START	n/a	LTP067	ltpFR	9	n/a	n/a	n/a	n/a	n/a	n/a	n/a	n/a	n/a	n/a	n/a	n/a	n/a	n/a	n/a
151238	PROB	n/a	LTP067	ltpFR	9	n/a	n/a	n/a	n/a	n/a	n/a	15	8	4	3	n/a	n/a	n/a	n/a	n/a
152993	PROB	n/a	LTP067	ltpFR	9	n/a	n/a	n/a	n/a	n/a	n/a	18	5	6	7	n/a	n/a	n/a	n/a	n/a
155133	PROB	n/a	LTP067	ltpFR	9	n/a	n/a	n/a	n/a	n/a	n/a	18	9	1	8	n/a	n/a	n/a	n/a	n/a
158038	STOP	n/a	LTP067	ltpFR	9	n/a	n/a	n/a	n/a	n/a	n/a	n/a	n/a	n/a	n/a	n/a	n/a	n/a	n/a	n/a
159812	REC_START	n/a	LTP067	ltpFR	9	1	n/a	n/a	n/a	n/a	n/a	n/a	0	0	0	n/a	n/a	n/a	n/a	n/a
160841	REC_WORD	wordpools/wasnorm_wordpool.txt	LTP067	ltpFR	9	1	0	PRIEST	1122	n/a	1	n/a	0	0	0	n/a	n/a	n/a	n/a	n/a
161551	REC_WORD_VV	wordpools/wasnorm_wordpool.txt	LTP067	ltpFR	9	1	n/a	<>	-1	n/a	n/a	n/a	0	0	0	n/a	n/a	n/a	n/a	n/a
161988	REC_WORD	wordpools/wasnorm_wordpool.txt	LTP067	ltpFR	9	1	0	PRIEST	1122	n/a	1	n/a	0	0	0	n/a	n/a	n/a	n/a	n/a
162407	REC_WORD	wordpools/wasnorm_wordpool.txt	LTP067	ltpFR	9	1	0	TRIANGLE	1504	n/a	0	n/a	0	0	0	n/a	n/a	n/a	n/a	n/a
163448	REC_WORD	wordpools/wasnorm_wordpool.txt	LTP067	ltpFR	9	1	0	EGYPT	519	n/a	1	n/a	0	0	0	n/a	n/a	n/a	n/a	n/a
168405	REC_WORD	wordpools/wasnorm_wordpool.txt	LTP067	ltpFR	9	1	1	COIN	343	n/a	0	n/a	0	0	0	n/a	n/a	n/a	n/a	n/a
169373	REC_WORD	wordpools/wasnorm_wordpool.txt	LTP067	ltpFR	9	1	1	RADISH	1158	n/a	0	n/a	0	0	0	n/a	n/a	n/a	n/a	n/a
169937	REC_WORD	wordpools/wasnorm_wordpool.txt	LTP067	ltpFR	9	1	1	KIWI	781	n/a	0	n/a	0	0	0	n/a	n/a	n/a	n/a	n/a
171153	REC_WORD	wordpools/wasnorm_wordpool.txt	LTP067	ltpFR	9	1	1	FOREST	593	n/a	0	n/a	0	0	0	n/a	n/a	n/a	n/a	n/a
171838	REC_WORD	wordpools/wasnorm_wordpool.txt	LTP067	ltpFR	9	1	1	FRUIT	610	n/a	0	n/a	0	0	0	n/a	n/a	n/a	n/a	n/a
172354	REC_WORD	wordpools/wasnorm_wordpool.txt	LTP067	ltpFR	9	1	1	SICKLE	1302	n/a	0	n/a	0	0	0	n/a	n/a	n/a	n/a	n/a
179926	REC_WORD	wordpools/wasnorm_wordpool.txt	LTP067	ltpFR	9	1	0	FUNGUS	614	n/a	0	n/a	0	0	0	n/a	n/a	n/a	n/a	n/a
180893	REC_WORD	wordpools/wasnorm_wordpool.txt	LTP067	ltpFR	9	1	0	CHILD	299	n/a	1	n/a	0	0	0	n/a	n/a	n/a	n/a	n/a
221028	REC_WORD_VV	wordpools/wasnorm_wordpool.txt	LTP067	ltpFR	9	1	n/a	<>	-1	n/a	n/a	n/a	0	0	0	n/a	n/a	n/a	n/a	n/a
223254	REC_WORD_VV	wordpools/wasnorm_wordpool.txt	LTP067	ltpFR	9	1	n/a	<>	-1	n/a	n/a	n/a	0	0	0	n/a	n/a	n/a	n/a	n/a
224566	REC_WORD_VV	wordpools/wasnorm_wordpool.txt	LTP067	ltpFR	9	1	n/a	<>	-1	n/a	n/a	n/a	0	0	0	n/a	n/a	n/a	n/a	n/a
225912	REC_WORD_VV	wordpools/wasnorm_wordpool.txt	LTP067	ltpFR	9	1	n/a	<>	-1	n/a	n/a	n/a	0	0	0	n/a	n/a	n/a	n/a	n/a
236239	START	n/a	LTP067	ltpFR	9	n/a	n/a	n/a	n/a	n/a	n/a	n/a	n/a	n/a	n/a	n/a	n/a	n/a	n/a	n/a
237745	PROB	n/a	LTP067	ltpFR	9	n/a	n/a	n/a	n/a	n/a	n/a	6	1	4	1	n/a	n/a	n/a	n/a	n/a
239126	PROB	n/a	LTP067	ltpFR	9	n/a	n/a	n/a	n/a	n/a	n/a	10	2	5	3	n/a	n/a	n/a	n/a	n/a
240592	PROB	n/a	LTP067	ltpFR	9	n/a	n/a	n/a	n/a	n/a	n/a	21	7	9	3	n/a	n/a	n/a	n/a	n/a
242323	PROB	n/a	LTP067	ltpFR	9	n/a	n/a	n/a	n/a	n/a	n/a	7	1	2	4	n/a	n/a	n/a	n/a	n/a
243844	STOP	n/a	LTP067	ltpFR	9	n/a	n/a	n/a	n/a	n/a	n/a	n/a	n/a	n/a	n/a	n/a	n/a	n/a	n/a	n/a
245203	WORD	wordpools/wasnorm_wordpool.txt	LTP067	ltpFR	9	2	0	DAISY	435	n/a	0	n/a	0	0	0	0	0.5869140625	0.422607421875	upper	../fonts/zerothre.ttf
248208	START	n/a	LTP067	ltpFR	9	n/a	n/a	n/a	n/a	n/a	n/a	n/a	n/a	n/a	n/a	n/a	n/a	n/a	n/a	n/a
249114	PROB	n/a	LTP067	ltpFR	9	n/a	n/a	n/a	n/a	n/a	n/a	9	2	3	4	n/a	n/a	n/a	n/a	n/a
250547	PROB	n/a	LTP067	ltpFR	9	n/a	n/a	n/a	n/a	n/a	n/a	16	3	8	5	n/a	n/a	n/a	n/a	n/a
251886	PROB	n/a	LTP067	ltpFR	9	n/a	n/a	n/a	n/a	n/a	n/a	17	9	7	1	n/a	n/a	n/a	n/a	n/a
254467	PROB	n/a	LTP067	ltpFR	9	n/a	n/a	n/a	n/a	n/a	n/a	19	3	9	7	n/a	n/a	n/a	n/a	n/a
256036	STOP	n/a	LTP067	ltpFR	9	n/a	n/a	n/a	n/a	n/a	n/a	n/a	n/a	n/a	n/a	n/a	n/a	n/a	n/a	n/a
257239	WORD	wordpools/wasnorm_wordpool.txt	LTP067	ltpFR	9	2	0	MEADOW	881	n/a	1	n/a	0	0	0	0	0.5869140625	0.422607421875	upper	../fonts/zerothre.ttf
260244	START	n/a	LTP067	ltpFR	9	n/a	n/a	n/a	n/a	n/a	n/a	n/a	n/a	n/a	n/a	n/a	n/a	n/a	n/a	n/a
261176	PROB	n/a	LTP067	ltpFR	9	n/a	n/a	n/a	n/a	n/a	n/a	14	4	7	3	n/a	n/a	n/a	n/a	n/a
262599	PROB	n/a	LTP067	ltpFR	9	n/a	n/a	n/a	n/a	n/a	n/a	13	4	7	2	n/a	n/a	n/a	n/a	n/a
263930	PROB	n/a	LTP067	ltpFR	9	n/a	n/a	n/a	n/a	n/a	n/a	16	7	8	1	n/a	n/a	n/a	n/a	n/a
265596	PROB	n/a	LTP067	ltpFR	9	n/a	n/a	n/a	n/a	n/a	n/a	23	7	7	9	n/a	n/a	n/a	n/a	n/a
267293	STOP	n/a	LTP067	ltpFR	9	n/a	n/a	n/a	n/a	n/a	n/a	n/a	n/a	n/a	n/a	n/a	n/a	n/a	n/a	n/a
269400	WORD	wordpools/wasnorm_wordpool.txt	LTP067	ltpFR	9	2	0	FIGHTER	564	n/a	1	n/a	0	0	0	0	0.5869140625	0.422607421875	upper	../fonts/zerothre.ttf
272405	START	n/a	LTP067	ltpFR	9	n/a	n/a	n/a	n/a	n/a	n/a	n/a	n/a	n/a	n/a	n/a	n/a	n/a	n/a	n/a
273503	PROB	n/a	LTP067	ltpFR	9	n/a	n/a	n/a	n/a	n/a	n/a	9	3	4	2	n/a	n/a	n/a	n/a	n/a
275042	PROB	n/a	LTP067	ltpFR	9	n/a	n/a	n/a	n/a	n/a	n/a	19	9	6	4	n/a	n/a	n/a	n/a	n/a
276566	PROB	n/a	LTP067	ltpFR	9	n/a	n/a	n/a	n/a	n/a	n/a	16	1	9	6	n/a	n/a	n/a	n/a	n/a
277731	PROB	n/a	LTP067	ltpFR	9	n/a	n/a	n/a	n/a	n/a	n/a	9	7	1	1	n/a	n/a	n/a	n/a	n/a
278908	STOP	n/a	LTP067	ltpFR	9	n/a	n/a	n/a	n/a	n/a	n/a	n/a	n/a	n/a	n/a	n/a	n/a	n/a	n/a	n/a
281286	WORD	wordpools/wasnorm_wordpool.txt	LTP067	ltpFR	9	2	0	CHAUFFEUR	283	n/a	1	n/a	0	0	0	0	0.5869140625	0.422607421875	upper	../fonts/zerothre.ttf
284291	START	n/a	LTP067	ltpFR	9	n/a	n/a	n/a	n/a	n/a	n/a	n/a	n/a	n/a	n/a	n/a	n/a	n/a	n/a	n/a
285281	PROB	n/a	LTP067	ltpFR	9	n/a	n/a	n/a	n/a	n/a	n/a	14	2	8	4	n/a	n/a	n/a	n/a	n/a
287036	PROB	n/a	LTP067	ltpFR	9	n/a	n/a	n/a	n/a	n/a	n/a	19	7	5	7	n/a	n/a	n/a	n/a	n/a
288818	PROB	n/a	LTP067	ltpFR	9	n/a	n/a	n/a	n/a	n/a	n/a	17	1	8	8	n/a	n/a	n/a	n/a	n/a
290641	PROB	n/a	LTP067	ltpFR	9	n/a	n/a	n/a	n/a	n/a	n/a	11	3	5	3	n/a	n/a	n/a	n/a	n/a
292012	STOP	n/a	LTP067	ltpFR	9	n/a	n/a	n/a	n/a	n/a	n/a	n/a	n/a	n/a	n/a	n/a	n/a	n/a	n/a	n/a
293313	WORD	wordpools/wasnorm_wordpool.txt	LTP067	ltpFR	9	2	0	TORCH	1484	n/a	1	n/a	0	0	0	0	0.5869140625	0.422607421875	upper	../fonts/zerothre.ttf
296319	START	n/a	LTP067	ltpFR	9	n/a	n/a	n/a	n/a	n/a	n/a	n/a	n/a	n/a	n/a	n/a	n/a	n/a	n/a	n/a
297234	PROB	n/a	LTP067	ltpFR	9	n/a	n/a	n/a	n/a	n/a	n/a	7	5	1	1	n/a	n/a	n/a	n/a	n/a
298790	PROB	n/a	LTP067	ltpFR	9	n/a	n/a	n/a	n/a	n/a	n/a	19	3	9	7	n/a	n/a	n/a	n/a	n/a
300121	PROB	n/a	LTP067	ltpFR	9	n/a	n/a	n/a	n/a	n/a	n/a	18	5	8	5	n/a	n/a	n/a	n/a	n/a
302136	PROB	n/a	LTP067	ltpFR	9	n/a	n/a	n/a	n/a	n/a	n/a	15	2	9	4	n/a	n/a	n/a	n/a	n/a
303333	STOP	n/a	LTP067	ltpFR	9	n/a	n/a	n/a	n/a	n/a	n/a	n/a	n/a	n/a	n/a	n/a	n/a	n/a	n/a	n/a
305141	WORD	wordpools/wasnorm_wordpool.txt	LTP067	ltpFR	9	2	0	LIGHTER	819	n/a	0	n/a	0	0	0	0	0.5869140625	0.422607421875	upper	../fonts/zerothre.ttf
308146	START	n/a	LTP067	ltpFR	9	n/a	n/a	n/a	n/a	n/a	n/a	n/a	n/a	n/a	n/a	n/a	n/a	n/a	n/a	n/a
309211	PROB	n/a	LTP067	ltpFR	9	n/a	n/a	n/a	n/a	n/a	n/a	14	1	5	8	n/a	n/a	n/a	n/a	n/a
310585	PROB	n/a	LTP067	ltpFR	9	n/a	n/a	n/a	n/a	n/a	n/a	23	5	9	9	n/a	n/a	n/a	n/a	n/a
312973	PROB	n/a	LTP067	ltpFR	9	n/a	n/a	n/a	n/a	n/a	n/a	16	8	7	1	n/a	n/a	n/a	n/a	n/a
315149	STOP	n/a	LTP067	ltpFR	9	n/a	n/a	n/a	n/a	n/a	n/a	n/a	n/a	n/a	n/a	n/a	n/a	n/a	n/a	n/a
317144	WORD	wordpools/wasnorm_wordpool.txt	LTP067	ltpFR	9	2	0	CANE	231	n/a	0	n/a	0	0	0	0	0.5869140625	0.422607421875	upper	../fonts/zerothre.ttf
320149	START	n/a	LTP067	ltpFR	9	n/a	n/a	n/a	n/a	n/a	n/a	n/a	n/a	n/a	n/a	n/a	n/a	n/a	n/a	n/a
321331	PROB	n/a	LTP067	ltpFR	9	n/a	n/a	n/a	n/a	n/a	n/a	14	1	9	4	n/a	n/a	n/a	n/a	n/a
322512	PROB	n/a	LTP067	ltpFR	9	n/a	n/a	n/a	n/a	n/a	n/a	16	6	9	1	n/a	n/a	n/a	n/a	n/a
323728	PROB	n/a	LTP067	ltpFR	9	n/a	n/a	n/a	n/a	n/a	n/a	17	5	3	9	n/a	n/a	n/a	n/a	n/a
325284	PROB	n/a	LTP067	ltpFR	9	n/a	n/a	n/a	n/a	n/a	n/a	8	6	1	1	n/a	n/a	n/a	n/a	n/a
326491	PROB	n/a	LTP067	ltpFR	9	n/a	n/a	n/a	n/a	n/a	n/a	15	5	1	9	n/a	n/a	n/a	n/a	n/a
328108	STOP	n/a	LTP067	ltpFR	9	n/a	n/a	n/a	n/a	n/a	n/a	n/a	n/a	n/a	n/a	n/a	n/a	n/a	n/a	n/a
329296	WORD	wordpools/wasnorm_wordpool.txt	LTP067	ltpFR	9	2	0	STRAWBERRY	1391	n/a	0	n/a	0	0	0	0	0.5869140625	0.422607421875	upper	../fonts/zerothre.ttf
332301	START	n/a	LTP067	ltpFR	9	n/a	n/a	n/a	n/a	n/a	n/a	n/a	n/a	n/a	n/a	n/a	n/a	n/a	n/a	n/a
333308	PROB	n/a	LTP067	ltpFR	9	n/a	n/a	n/a	n/a	n/a	n/a	19	7	5	7	n/a	n/a	n/a	n/a	n/a
334864	PROB	n/a	LTP067	ltpFR	9	n/a	n/a	n/a	n/a	n/a	n/a	13	5	2	6	n/a	n/a	n/a	n/a	n/a
337453	PROB	n/a	LTP067	ltpFR	9	n/a	n/a	n/a	n/a	n/a	n/a	17	7	2	8	n/a	n/a	n/a	n/a	n/a
339116	STOP	n/a	LTP067	ltpFR	9	n/a	n/a	n/a	n/a	n/a	n/a	n/a	n/a	n/a	n/a	n/a	n/a	n/a	n/a	n/a
341274	WORD	wordpools/wasnorm_wordpool.txt	LTP067	ltpFR	9	2	0	GARAGE	621	n/a	1	n/a	0	0	0	0	0.5869140625	0.422607421875	upper	../fonts/zerothre.ttf
344279	START	n/a	LTP067	ltpFR	9	n/a	n/a	n/a	n/a	n/a	n/a	n/a	n/a	n/a	n/a	n/a	n/a	n/a	n/a	n/a
345319	PROB	n/a	LTP067	ltpFR	9	n/a	n/a	n/a	n/a	n/a	n/a	16	2	7	7	n/a	n/a	n/a	n/a	n/a
346792	PROB	n/a	LTP067	ltpFR	9	n/a	n/a	n/a	n/a	n/a	n/a	7	2	3	2	n/a	n/a	n/a	n/a	n/a
348399	PROB	n/a	LTP067	ltpFR	9	n/a	n/a	n/a	n/a	n/a	n/a	16	2	7	7	n/a	n/a	n/a	n/a	n/a
349689	PROB	n/a	LTP067	ltpFR	9	n/a	n/a	n/a	n/a	n/a	n/a	13	2	5	6	n/a	n/a	n/a	n/a	n/a
351501	STOP	n/a	LTP067	ltpFR	9	n/a	n/a	n/a	n/a	n/a	n/a	n/a	n/a	n/a	n/a	n/a	n/a	n/a	n/a	n/a
353335	WORD	wordpools/wasnorm_wordpool.txt	LTP067	ltpFR	9	2	0	MOSS	918	n/a	0	n/a	0	0	0	0	0.5869140625	0.422607421875	upper	../fonts/zerothre.ttf
356340	START	n/a	LTP067	ltpFR	9	n/a	n/a	n/a	n/a	n/a	n/a	n/a	n/a	n/a	n/a	n/a	n/a	n/a	n/a	n/a
357447	PROB	n/a	LTP067	ltpFR	9	n/a	n/a	n/a	n/a	n/a	n/a	16	4	7	5	n/a	n/a	n/a	n/a	n/a
359178	PROB	n/a	LTP067	ltpFR	9	n/a	n/a	n/a	n/a	n/a	n/a	13	3	8	2	n/a	n/a	n/a	n/a	n/a
360593	PROB	n/a	LTP067	ltpFR	9	n/a	n/a	n/a	n/a	n/a	n/a	17	6	6	3	n/a	n/a	n/a	n/a	n/a
362024	PROB	n/a	LTP067	ltpFR	9	n/a	n/a	n/a	n/a	n/a	n/a	16	7	8	1	n/a	n/a	n/a	n/a	n/a
363733	STOP	n/a	LTP067	ltpFR	9	n/a	n/a	n/a	n/a	n/a	n/a	n/a	n/a	n/a	n/a	n/a	n/a	n/a	n/a	n/a
365204	WORD	wordpools/wasnorm_wordpool.txt	LTP067	ltpFR	9	2	0	ACORN	3	n/a	0	n/a	0	0	0	0	0.5869140625	0.422607421875	upper	../fonts/zerothre.ttf
368209	START	n/a	LTP067	ltpFR	9	n/a	n/a	n/a	n/a	n/a	n/a	n/a	n/a	n/a	n/a	n/a	n/a	n/a	n/a	n/a
369283	PROB	n/a	LTP067	ltpFR	9	n/a	n/a	n/a	n/a	n/a	n/a	10	3	6	1	n/a	n/a	n/a	n/a	n/a
371688	PROB	n/a	LTP067	ltpFR	9	n/a	n/a	n/a	n/a	n/a	n/a	16	5	8	3	n/a	n/a	n/a	n/a	n/a
373603	PROB	n/a	LTP067	ltpFR	9	n/a	n/a	n/a	n/a	n/a	n/a	13	4	8	1	n/a	n/a	n/a	n/a	n/a
374900	STOP	n/a	LTP067	ltpFR	9	n/a	n/a	n/a	n/a	n/a	n/a	n/a	n/a	n/a	n/a	n/a	n/a	n/a	n/a	n/a
377415	WORD	wordpools/wasnorm_wordpool.txt	LTP067	ltpFR	9	2	0	SUGAR	1401	n/a	0	n/a	0	0	0	0	0.5869140625	0.422607421875	upper	../fonts/zerothre.ttf
380420	START	n/a	LTP067	ltpFR	9	n/a	n/a	n/a	n/a	n/a	n/a	n/a	n/a	n/a	n/a	n/a	n/a	n/a	n/a	n/a
381427	PROB	n/a	LTP067	ltpFR	9	n/a	n/a	n/a	n/a	n/a	n/a	17	7	1	9	n/a	n/a	n/a	n/a	n/a
382792	PROB	n/a	LTP067	ltpFR	9	n/a	n/a	n/a	n/a	n/a	n/a	17	9	5	3	n/a	n/a	n/a	n/a	n/a
388420	STOP	n/a	LTP067	ltpFR	9	n/a	n/a	n/a	n/a	n/a	n/a	n/a	n/a	n/a	n/a	n/a	n/a	n/a	n/a	n/a
389592	WORD	wordpools/wasnorm_wordpool.txt	LTP067	ltpFR	9	2	0	CLAMP	316	n/a	1	n/a	0	0	0	0	0.5869140625	0.422607421875	upper	../fonts/zerothre.ttf
392598	START	n/a	LTP067	ltpFR	9	n/a	n/a	n/a	n/a	n/a	n/a	n/a	n/a	n/a	n/a	n/a	n/a	n/a	n/a	n/a
393454	PROB	n/a	LTP067	ltpFR	9	n/a	n/a	n/a	n/a	n/a	n/a	19	9	1	9	n/a	n/a	n/a	n/a	n/a
394595	PROB	n/a	LTP067	ltpFR	9	n/a	n/a	n/a	n/a	n/a	n/a	16	4	3	9	n/a	n/a	n/a	n/a	n/a
396343	PROB	n/a	LTP067	ltpFR	9	n/a	n/a	n/a	n/a	n/a	n/a	18	6	4	8	n/a	n/a	n/a	n/a	n/a
397575	PROB	n/a	LTP067	ltpFR	9	n/a	n/a	n/a	n/a	n/a	n/a	18	8	8	2	n/a	n/a	n/a	n/a	n/a
399333	STOP	n/a	LTP067	ltpFR	9	n/a	n/a	n/a	n/a	n/a	n/a	n/a	n/a	n/a	n/a	n/a	n/a	n/a	n/a	n/a
401653	WORD	wordpools/wasnorm_wordpool.txt	LTP067	ltpFR	9	2	0	GRILL	661	n/a	1	n/a	0	0	0	0	0.5869140625	0.422607421875	upper	../fonts/zerothre.ttf
404659	START	n/a	LTP067	ltpFR	9	n/a	n/a	n/a	n/a	n/a	n/a	n/a	n/a	n/a	n/a	n/a	n/a	n/a	n/a	n/a
405540	PROB	n/a	LTP067	ltpFR	9	n/a	n/a	n/a	n/a	n/a	n/a	9	2	2	5	n/a	n/a	n/a	n/a	n/a
407230	PROB	n/a	LTP067	ltpFR	9	n/a	n/a	n/a	n/a	n/a	n/a	17	9	7	1	n/a	n/a	n/a	n/a	n/a
408637	PROB	n/a	LTP067	ltpFR	9	n/a	n/a	n/a	n/a	n/a	n/a	16	3	5	8	n/a	n/a	n/a	n/a	n/a
410251	PROB	n/a	LTP067	ltpFR	9	n/a	n/a	n/a	n/a	n/a	n/a	13	8	1	4	n/a	n/a	n/a	n/a	n/a
411637	STOP	n/a	LTP067	ltpFR	9	n/a	n/a	n/a	n/a	n/a	n/a	n/a	n/a	n/a	n/a	n/a	n/a	n/a	n/a	n/a
413821	WORD	wordpools/wasnorm_wordpool.txt	LTP067	ltpFR	9	2	0	LUMBER	848	n/a	1	n/a	0	0	0	0	0.5869140625	0.422607421875	upper	../fonts/zerothre.ttf
416827	START	n/a	LTP067	ltpFR	9	n/a	n/a	n/a	n/a	n/a	n/a	n/a	n/a	n/a	n/a	n/a	n/a	n/a	n/a	n/a
417892	PROB	n/a	LTP067	ltpFR	9	n/a	n/a	n/a	n/a	n/a	n/a	10	2	6	2	n/a	n/a	n/a	n/a	n/a
419291	PROB	n/a	LTP067	ltpFR	9	n/a	n/a	n/a	n/a	n/a	n/a	19	3	8	8	n/a	n/a	n/a	n/a	n/a
420723	PROB	n/a	LTP067	ltpFR	9	n/a	n/a	n/a	n/a	n/a	n/a	18	3	6	9	n/a	n/a	n/a	n/a	n/a
422804	PROB	n/a	LTP067	ltpFR	9	n/a	n/a	n/a	n/a	n/a	n/a	9	4	1	4	n/a	n/a	n/a	n/a	n/a
424269	STOP	n/a	LTP067	ltpFR	9	n/a	n/a	n/a	n/a	n/a	n/a	n/a	n/a	n/a	n/a	n/a	n/a	n/a	n/a	n/a
425659	WORD	wordpools/wasnorm_wordpool.txt	LTP067	ltpFR	9	2	0	STEP	1377	n/a	0	n/a	0	0	0	0	0.5869140625	0.422607421875	upper	../fonts/zerothre.ttf
428663	START	n/a	LTP067	ltpFR	9	n/a	n/a	n/a	n/a	n/a	n/a	n/a	n/a	n/a	n/a	n/a	n/a	n/a	n/a	n/a
429621	PROB	n/a	LTP067	ltpFR	9	n/a	n/a	n/a	n/a	n/a	n/a	9	3	1	5	n/a	n/a	n/a	n/a	n/a
431377	PROB	n/a	LTP067	ltpFR	9	n/a	n/a	n/a	n/a	n/a	n/a	15	4	9	2	n/a	n/a	n/a	n/a	n/a
433250	PROB	n/a	LTP067	ltpFR	9	n/a	n/a	n/a	n/a	n/a	n/a	16	5	9	2	n/a	n/a	n/a	n/a	n/a
436653	STOP	n/a	LTP067	ltpFR	9	n/a	n/a	n/a	n/a	n/a	n/a	n/a	n/a	n/a	n/a	n/a	n/a	n/a	n/a	n/a
438394	REC_START	n/a	LTP067	ltpFR	9	2	n/a	n/a	n/a	n/a	n/a	n/a	0	0	0	n/a	n/a	n/a	n/a	n/a
439978	REC_WORD	wordpools/wasnorm_wordpool.txt	LTP067	ltpFR	9	2	0	MEADOW	881	n/a	1	n/a	0	0	0	n/a	n/a	n/a	n/a	n/a
440978	REC_WORD_VV	wordpools/wasnorm_wordpool.txt	LTP067	ltpFR	9	2	n/a	<>	-1	n/a	n/a	n/a	0	0	0	n/a	n/a	n/a	n/a	n/a
442771	REC_WORD	wordpools/wasnorm_wordpool.txt	LTP067	ltpFR	9	2	0	LUMBER	848	n/a	1	n/a	0	0	0	n/a	n/a	n/a	n/a	n/a
448065	REC_WORD	wordpools/wasnorm_wordpool.txt	LTP067	ltpFR	9	2	0	STEP	1377	n/a	0	n/a	0	0	0	n/a	n/a	n/a	n/a	n/a
457349	REC_WORD_VV	wordpools/wasnorm_wordpool.txt	LTP067	ltpFR	9	2	n/a	<>	-1	n/a	n/a	n/a	0	0	0	n/a	n/a	n/a	n/a	n/a
464112	REC_WORD_VV	wordpools/wasnorm_wordpool.txt	LTP067	ltpFR	9	2	n/a	<>	-1	n/a	n/a	n/a	0	0	0	n/a	n/a	n/a	n/a	n/a
483335	REC_WORD_VV	wordpools/wasnorm_wordpool.txt	LTP067	ltpFR	9	2	n/a	<>	-1	n/a	n/a	n/a	0	0	0	n/a	n/a	n/a	n/a	n/a
486804	REC_WORD_VV	wordpools/wasnorm_wordpool.txt	LTP067	ltpFR	9	2	n/a	<>	-1	n/a	n/a	n/a	0	0	0	n/a	n/a	n/a	n/a	n/a
519191	WORD	wordpools/wasnorm_wordpool.txt	LTP067	ltpFR	9	3	1	BERRY	122	n/a	0	n/a	0	0	0	1	0.412841796875	0.57763671875	lower	../fonts/amplitud.ttf
523077	WORD	wordpools/wasnorm_wordpool.txt	LTP067	ltpFR	9	3	1	DILL	465	n/a	0	n/a	0	0	0	1	0.412841796875	0.57763671875	lower	../fonts/amplitud.ttf
526972	WORD	wordpools/wasnorm_wordpool.txt	LTP067	ltpFR	9	3	1	CRADLE	399	n/a	0	n/a	0	0	0	1	0.412841796875	0.57763671875	lower	../fonts/amplitud.ttf
531152	WORD	wordpools/wasnorm_wordpool.txt	LTP067	ltpFR	9	3	1	SPY	1360	n/a	1	n/a	0	0	0	1	0.412841796875	0.57763671875	lower	../fonts/amplitud.ttf
535314	WORD	wordpools/wasnorm_wordpool.txt	LTP067	ltpFR	9	3	1	BADGE	68	n/a	0	n/a	0	0	0	1	0.412841796875	0.57763671875	lower	../fonts/amplitud.ttf
539392	WORD	wordpools/wasnorm_wordpool.txt	LTP067	ltpFR	9	3	1	RUNNER	1218	n/a	1	n/a	0	0	0	1	0.412841796875	0.57763671875	lower	../fonts/amplitud.ttf
543238	WORD	wordpools/wasnorm_wordpool.txt	LTP067	ltpFR	9	3	1	FELLOW	558	n/a	1	n/a	0	0	0	1	0.412841796875	0.57763671875	lower	../fonts/amplitud.ttf
547316	WORD	wordpools/wasnorm_wordpool.txt	LTP067	ltpFR	9	3	1	FRIAR	605	n/a	1	n/a	0	0	0	1	0.412841796875	0.57763671875	lower	../fonts/amplitud.ttf
551262	WORD	wordpools/wasnorm_wordpool.txt	LTP067	ltpFR	9	3	1	PREACHER	1119	n/a	1	n/a	0	0	0	1	0.412841796875	0.57763671875	lower	../fonts/amplitud.ttf
555382	WORD	wordpools/wasnorm_wordpool.txt	LTP067	ltpFR	9	3	1	FIG	563	n/a	0	n/a	0	0	0	1	0.412841796875	0.57763671875	lower	../fonts/amplitud.ttf
559460	WORD	wordpools/wasnorm_wordpool.txt	LTP067	ltpFR	9	3	1	SALAD	1224	n/a	0	n/a	0	0	0	1	0.412841796875	0.57763671875	lower	../fonts/amplitud.ttf
563522	WORD	wordpools/wasnorm_wordpool.txt	LTP067	ltpFR	9	3	1	PAPER	1011	n/a	0	n/a	0	0	0	1	0.412841796875	0.57763671875	lower	../fonts/amplitud.ttf
567584	WORD	wordpools/wasnorm_wordpool.txt	LTP067	ltpFR	9	3	1	PELICAN	1039	n/a	1	n/a	0	0	0	1	0.412841796875	0.57763671875	lower	../fonts/amplitud.ttf
571746	WORD	wordpools/wasnorm_wordpool.txt	LTP067	ltpFR	9	3	1	SHORTS	1293	n/a	0	n/a	0	0	0	1	0.412841796875	0.57763671875	lower	../fonts/amplitud.ttf
575658	WORD	wordpools/wasnorm_wordpool.txt	LTP067	ltpFR	9	3	1	LOBSTER	837	n/a	1	n/a	0	0	0	1	0.412841796875	0.57763671875	lower	../fonts/amplitud.ttf
579628	WORD	wordpools/wasnorm_wordpool.txt	LTP067	ltpFR	9	3	1	ZUCCHINI	1638	n/a	0	n/a	0	0	0	1	0.412841796875	0.57763671875	lower	../fonts/amplitud.ttf
585472	REC_START	n/a	LTP067	ltpFR	9	3	n/a	n/a	n/a	n/a	n/a	n/a	0	0	0	n/a	n/a	n/a	n/a	n/a
586452	REC_WORD	wordpools/wasnorm_wordpool.txt	LTP067	ltpFR	9	3	1	LOBSTER	837	n/a	1	n/a	0	0	0	n/a	n/a	n/a	n/a	n/a
587012	REC_WORD	wordpools/wasnorm_wordpool.txt	LTP067	ltpFR	9	3	1	SHORTS	1293	n/a	0	n/a	0	0	0	n/a	n/a	n/a	n/a	n/a
587611	REC_WORD	wordpools/wasnorm_wordpool.txt	LTP067	ltpFR	9	3	1	PELICAN	1039	n/a	1	n/a	0	0	0	n/a	n/a	n/a	n/a	n/a
593586	REC_WORD_VV	wordpools/wasnorm_wordpool.txt	LTP067	ltpFR	9	3	n/a	<>	-1	n/a	n/a	n/a	0	0	0	n/a	n/a	n/a	n/a	n/a
595472	REC_WORD	wordpools/wasnorm_wordpool.txt	LTP067	ltpFR	9	3	1	BERRY	122	n/a	0	n/a	0	0	0	n/a	n/a	n/a	n/a	n/a
596419	REC_WORD	wordpools/wasnorm_wordpool.txt	LTP067	ltpFR	9	3	1	DILL	465	n/a	0	n/a	0	0	0	n/a	n/a	n/a	n/a	n/a
597043	REC_WORD	wordpools/wasnorm_wordpool.txt	LTP067	ltpFR	9	3	1	CRADLE	399	n/a	0	n/a	0	0	0	n/a	n/a	n/a	n/a	n/a
597577	REC_WORD	wordpools/wasnorm_wordpool.txt	LTP067	ltpFR	9	3	1	SPY	1360	n/a	1	n/a	0	0	0	n/a	n/a	n/a	n/a	n/a
598300	REC_WORD	wordpools/wasnorm_wordpool.txt	LTP067	ltpFR	9	3	1	BADGE	68	n/a	0	n/a	0	0	0	n/a	n/a	n/a	n/a	n/a
602830	REC_WORD	wordpools/wasnorm_wordpool.txt	LTP067	ltpFR	9	3	1	SALAD	1224	n/a	0	n/a	0	0	0	n/a	n/a	n/a	n/a	n/a
603744	REC_WORD	wordpools/wasnorm_wordpool.txt	LTP067	ltpFR	9	3	1	FIG	563	n/a	0	n/a	0	0	0	n/a	n/a	n/a	n/a	n/a
604346	REC_WORD	wordpools/wasnorm_wordpool.txt	LTP067	ltpFR	9	3	1	FRIAR	605	n/a	1	n/a	0	0	0	n/a	n/a	n/a	n/a	n/a
605187	REC_WORD	wordpools/wasnorm_wordpool.txt	LTP067	ltpFR	9	3	1	PREACHER	1119	n/a	1	n/a	0	0	0	n/a	n/a	n/a	n/a	n/a
663405	WORD	wordpools/wasnorm_wordpool.txt	LTP067	ltpFR	9	4	0	BRUNETTE	181	n/a	1	n/a	0	0	0	0	0.5869140625	0.422607421875	upper	../fonts/zerothre.ttf
667584	WORD	wordpools/wasnorm_wordpool.txt	LTP067	ltpFR	9	4	0	TRANSPLANT	1496	n/a	0	n/a	0	0	0	0	0.5869140625	0.422607421875	upper	../fonts/zerothre.ttf
671521	WORD	wordpools/wasnorm_wordpool.txt	LTP067	ltpFR	9	4	0	INTESTINE	742	n/a	0	n/a	0	0	0	0	0.5869140625	0.422607421875	upper	../fonts/zerothre.ttf
675408	WORD	wordpools/wasnorm_wordpool.txt	LTP067	ltpFR	9	4	1	KNAPSACK	783	n/a	0	n/a	0	0	0	1	0.412841796875	0.57763671875	lower	../fonts/amplitud.ttf
679262	WORD	wordpools/wasnorm_wordpool.txt	LTP067	ltpFR	9	4	1	PURSE	1145	n/a	0	n/a	0	0	0	1	0.412841796875	0.57763671875	lower	../fonts/amplitud.ttf
683349	WORD	wordpools/wasnorm_wordpool.txt	LTP067	ltpFR	9	4	1	ULCER	1533	n/a	0	n/a	0	0	0	1	0.412841796875	0.57763671875	lower	../fonts/amplitud.ttf
687261	WORD	wordpools/wasnorm_wordpool.txt	LTP067	ltpFR	9	4	1	EXPERT	543	n/a	1	n/a	0	0	0	1	0.412841796875	0.57763671875	lower	../fonts/amplitud.ttf
691130	WORD	wordpools/wasnorm_wordpool.txt	LTP067	ltpFR	9	4	1	GAUZE	626	n/a	0	n/a	0	0	0	1	0.412841796875	0.57763671875	lower	../fonts/amplitud.ttf
694951	WORD	wordpools/wasnorm_wordpool.txt	LTP067	ltpFR	9	4	1	REFEREE	1178	n/a	1	n/a	0	0	0	1	0.412841796875	0.57763671875	lower	../fonts/amplitud.ttf
698963	WORD	wordpools/wasnorm_wordpool.txt	LTP067	ltpFR	9	4	0	BED	110	n/a	1	n/a	0	0	0	0	0.5869140625	0.422607421875	upper	../fonts/zerothre.ttf
703033	WORD	wordpools/wasnorm_wordpool.txt	LTP067	ltpFR	9	4	0	VEIN	1554	n/a	0	n/a	0	0	0	0	0.5869140625	0.422607421875	upper	../fonts/zerothre.ttf
707238	WORD	wordpools/wasnorm_wordpool.txt	LTP067	ltpFR	9	4	1	HEDGE	699	n/a	0	n/a	0	0	0	1	0.412841796875	0.57763671875	lower	../fonts/amplitud.ttf
711158	WORD	wordpools/wasnorm_wordpool.txt	LTP067	ltpFR	9	4	1	BUSH	202	n/a	0	n/a	0	0	0	1	0.412841796875	0.57763671875	lower	../fonts/amplitud.ttf
715027	WORD	wordpools/wasnorm_wordpool.txt	LTP067	ltpFR	9	4	0	FARMER	553	n/a	1	n/a	0	0	0	0	0.5869140625	0.422607421875	upper	../fonts/zerothre.ttf
719089	WORD	wordpools/wasnorm_wordpool.txt	LTP067	ltpFR	9	4	0	CROSS	413	n/a	0	n/a	0	0	0	0	0.5869140625	0.422607421875	upper	../fonts/zerothre.ttf
723035	WORD	wordpools/wasnorm_wordpool.txt	LTP067	ltpFR	9	4	0	VOLLEYBALL	1576	n/a	1	n/a	0	0	0	0	0.5869140625	0.422607421875	upper	../fonts/zerothre.ttf
726040	START	n/a	LTP067	ltpFR	9	n/a	n/a	n/a	n/a	n/a	n/a	n/a	n/a	n/a	n/a	n/a	n/a	n/a	n/a	n/a
726988	PROB	n/a	LTP067	ltpFR	9	n/a	n/a	n/a	n/a	n/a	n/a	17	7	7	3	n/a	n/a	n/a	n/a	n/a
728771	PROB	n/a	LTP067	ltpFR	9	n/a	n/a	n/a	n/a	n/a	n/a	14	2	8	4	n/a	n/a	n/a	n/a	n/a
729985	PROB	n/a	LTP067	ltpFR	9	n/a	n/a	n/a	n/a	n/a	n/a	13	4	7	2	n/a	n/a	n/a	n/a	n/a
731293	PROB	n/a	LTP067	ltpFR	9	n/a	n/a	n/a	n/a	n/a	n/a	15	5	4	6	n/a	n/a	n/a	n/a	n/a
732683	PROB	n/a	LTP067	ltpFR	9	n/a	n/a	n/a	n/a	n/a	n/a	11	2	5	4	n/a	n/a	n/a	n/a	n/a
734589	PROB	n/a	LTP067	ltpFR	9	n/a	n/a	n/a	n/a	n/a	n/a	7	1	1	5	n/a	n/a	n/a	n/a	n/a
735936	PROB	n/a	LTP067	ltpFR	9	n/a	n/a	n/a	n/a	n/a	n/a	16	5	5	6	n/a	n/a	n/a	n/a	n/a
737077	PROB	n/a	LTP067	ltpFR	9	n/a	n/a	n/a	n/a	n/a	n/a	15	5	6	4	n/a	n/a	n/a	n/a	n/a
739417	PROB	n/a	LTP067	ltpFR	9	n/a	n/a	n/a	n/a	n/a	n/a	22	9	6	7	n/a	n/a	n/a	n/a	n/a
741844	STOP	n/a	LTP067	ltpFR	9	n/a	n/a	n/a	n/a	n/a	n/a	n/a	n/a	n/a	n/a	n/a	n/a	n/a	n/a	n/a
743886	REC_START	n/a	LTP067	ltpFR	9	4	n/a	n/a	n/a	n/a	n/a	n/a	0	0	0	n/a	n/a	n/a	n/a	n/a
744305	REC_WORD	wordpools/wasnorm_wordpool.txt	LTP067	ltpFR	9	4	1	HEDGE	699	n/a	0	n/a	0	0	0	n/a	n/a	n/a	n/a	n/a
745159	REC_WORD	wordpools/wasnorm_wordpool.txt	LTP067	ltpFR	9	4	1	BUSH	202	n/a	0	n/a	0	0	0	n/a	n/a	n/a	n/a	n/a
746093	REC_WORD	wordpools/wasnorm_wordpool.txt	LTP067	ltpFR	9	4	0	VOLLEYBALL	1576	n/a	1	n/a	0	0	0	n/a	n/a	n/a	n/a	n/a
748800	REC_WORD	wordpools/wasnorm_wordpool.txt	LTP067	ltpFR	9	4	0	INTESTINE	742	n/a	0	n/a	0	0	0	n/a	n/a	n/a	n/a	n/a
749607	REC_WORD	wordpools/wasnorm_wordpool.txt	LTP067	ltpFR	9	4	0	TRANSPLANT	1496	n/a	0	n/a	0	0	0	n/a	n/a	n/a	n/a	n/a
750833	REC_WORD	wordpools/wasnorm_wordpool.txt	LTP067	ltpFR	9	4	0	BRUNETTE	181	n/a	1	n/a	0	0	0	n/a	n/a	n/a	n/a	n/a
751718	REC_WORD	wordpools/wasnorm_wordpool.txt	LTP067	ltpFR	9	4	1	EXPERT	543	n/a	1	n/a	0	0	0	n/a	n/a	n/a	n/a	n/a
753262	REC_WORD	wordpools/wasnorm_wordpool.txt	LTP067	ltpFR	9	4	1	PURSE	1145	n/a	0	n/a	0	0	0	n/a	n/a	n/a	n/a	n/a
753861	REC_WORD	wordpools/wasnorm_wordpool.txt	LTP067	ltpFR	9	4	1	KNAPSACK	783	n/a	0	n/a	0	0	0	n/a	n/a	n/a	n/a	n/a
799243	REC_WORD	wordpools/wasnorm_wordpool.txt	LTP067	ltpFR	9	4	1	REFEREE	1178	n/a	1	n/a	0	0	0	n/a	n/a	n/a	n/a	n/a
822935	WORD	wordpools/wasnorm_wordpool.txt	LTP067	ltpFR	9	5	1	CROCODILE	411	n/a	1	n/a	0	0	0	1	0.412841796875	0.57763671875	lower	../fonts/amplitud.ttf
827113	WORD	wordpools/wasnorm_wordpool.txt	LTP067	ltpFR	9	5	1	WIRE	1616	n/a	0	n/a	0	0	0	1	0.412841796875	0.57763671875	lower	../fonts/amplitud.ttf
831309	WORD	wordpools/wasnorm_wordpool.txt	LTP067	ltpFR	9	5	1	VENT	1556	n/a	0	n/a	0	0	0	1	0.412841796875	0.57763671875	lower	../fonts/amplitud.ttf
835371	WORD	wordpools/wasnorm_wordpool.txt	LTP067	ltpFR	9	5	0	CAFE	216	n/a	1	n/a	0	0	0	0	0.5869140625	0.422607421875	upper	../fonts/zerothre.ttf
839391	WORD	wordpools/wasnorm_wordpool.txt	LTP067	ltpFR	9	5	0	SEAGULL	1261	n/a	1	n/a	0	0	0	0	0.5869140625	0.422607421875	upper	../fonts/zerothre.ttf
843262	WORD	wordpools/wasnorm_wordpool.txt	LTP067	ltpFR	9	5	0	SHEPHERD	1283	n/a	1	n/a	0	0	0	0	0.5869140625	0.422607421875	upper	../fonts/zerothre.ttf
847274	WORD	wordpools/wasnorm_wordpool.txt	LTP067	ltpFR	9	5	0	SANDWICH	1232	n/a	0	n/a	0	0	0	0	0.5869140625	0.422607421875	upper	../fonts/zerothre.ttf
851469	WORD	wordpools/wasnorm_wordpool.txt	LTP067	ltpFR	9	5	1	PHOTO	1055	n/a	0	n/a	0	0	0	1	0.412841796875	0.57763671875	lower	../fonts/amplitud.ttf
855564	WORD	wordpools/wasnorm_wordpool.txt	LTP067	ltpFR	9	5	1	FLEA	577	n/a	1	n/a	0	0	0	1	0.412841796875	0.57763671875	lower	../fonts/amplitud.ttf
859376	WORD	wordpools/wasnorm_wordpool.txt	LTP067	ltpFR	9	5	1	HAWK	692	n/a	1	n/a	0	0	0	1	0.412841796875	0.57763671875	lower	../fonts/amplitud.ttf
863530	WORD	wordpools/wasnorm_wordpool.txt	LTP067	ltpFR	9	5	1	BOAT	144	n/a	0	n/a	0	0	0	1	0.412841796875	0.57763671875	lower	../fonts/amplitud.ttf
867558	WORD	wordpools/wasnorm_wordpool.txt	LTP067	ltpFR	9	5	1	DOCK	477	n/a	0	n/a	0	0	0	1	0.412841796875	0.57763671875	lower	../fonts/amplitud.ttf
871479	WORD	wordpools/wasnorm_wordpool.txt	LTP067	ltpFR	9	5	0	WATERFALL	1595	n/a	1	n/a	0	0	0	0	0.5869140625	0.422607421875	upper	../fonts/zerothre.ttf
875666	WORD	wordpools/wasnorm_wordpool.txt	LTP067	ltpFR	9	5	0	PUMP	1141	n/a	1	n/a	0	0	0	0	0.5869140625	0.422607421875	upper	../fonts/zerothre.ttf
879636	WORD	wordpools/wasnorm_wordpool.txt	LTP067	ltpFR	9	5	0	PAIL	1002	n/a	1	n/a	0	0	0	0	0.5869140625	0.422607421875	upper	../fonts/zerothre.ttf
883598	WORD	wordpools/wasnorm_wordpool.txt	LTP067	ltpFR	9	5	0	WASHCLOTH	1591	n/a	0	n/a	0	0	0	0	0.5869140625	0.422607421875	upper	../fonts/zerothre.ttf
886603	START	n/a	LTP067	ltpFR	9	n/a	n/a	n/a	n/a	n/a	n/a	n/a	n/a	n/a	n/a	n/a	n/a	n/a	n/a	n/a
887702	PROB	n/a	LTP067	ltpFR	9	n/a	n/a	n/a	n/a	n/a	n/a	18	7	7	4	n/a	n/a	n/a	n/a	n/a
889150	PROB	n/a	LTP067	ltpFR	9	n/a	n/a	n/a	n/a	n/a	n/a	21	5	8	8	n/a	n/a	n/a	n/a	n/a
891030	PROB	n/a	LTP067	ltpFR	9	n/a	n/a	n/a	n/a	n/a	n/a	24	9	9	6	n/a	n/a	n/a	n/a	n/a
894603	STOP	n/a	LTP067	ltpFR	9	n/a	n/a	n/a	n/a	n/a	n/a	n/a	n/a	n/a	n/a	n/a	n/a	n/a	n/a	n/a
896500	REC_START	n/a	LTP067	ltpFR	9	5	n/a	n/a	n/a	n/a	n/a	n/a	0	0	0	n/a	n/a	n/a	n/a	n/a
896918	REC_WORD_VV	wordpools/wasnorm_wordpool.txt	LTP067	ltpFR	9	5	n/a	<>	-1	n/a	n/a	n/a	0	0	0	n/a	n/a	n/a	n/a	n/a
898366	REC_WORD	wordpools/wasnorm_wordpool.txt	LTP067	ltpFR	9	5	0	PAIL	1002	n/a	1	n/a	0	0	0	n/a	n/a	n/a	n/a	n/a
899256	REC_WORD	wordpools/wasnorm_wordpool.txt	LTP067	ltpFR	9	5	0	WASHCLOTH	1591	n/a	0	n/a	0	0	0	n/a	n/a	n/a	n/a	n/a
902454	REC_WORD	wordpools/wasnorm_wordpool.txt	LTP067	ltpFR	9	5	1	HAWK	692	n/a	1	n/a	0	0	0	n/a	n/a	n/a	n/a	n/a
903018	REC_WORD	wordpools/wasnorm_wordpool.txt	LTP067	ltpFR	9	5	1	FLEA	577	n/a	1	n/a	0	0	0	n/a	n/a	n/a	n/a	n/a
903524	REC_WORD	wordpools/wasnorm_wordpool.txt	LTP067	ltpFR	9	5	1	PHOTO	1055	n/a	0	n/a	0	0	0	n/a	n/a	n/a	n/a	n/a
912493	REC_WORD	wordpools/wasnorm_wordpool.txt	LTP067	ltpFR	9	5	0	SANDWICH	1232	n/a	0	n/a	0	0	0	n/a	n/a	n/a	n/a	n/a
913712	REC_WORD	wordpools/wasnorm_wordpool.txt	LTP067	ltpFR	9	5	0	PRIEST	1122	n/a	1	n/a	0	0	0	n/a	n/a	n/a	n/a	n/a
915340	REC_WORD	wordpools/wasnorm_wordpool.txt	LTP067	ltpFR	9	5	0	SEAGULL	1261	n/a	1	n/a	0	0	0	n/a	n/a	n/a	n/a	n/a
916129	REC_WORD	wordpools/wasnorm_wordpool.txt	LTP067	ltpFR	9	5	0	CAFE	216	n/a	1	n/a	0	0	0	n/a	n/a	n/a	n/a	n/a
945933	REC_WORD_VV	wordpools/wasnorm_wordpool.txt	LTP067	ltpFR	9	5	n/a	<>	-1	n/a	n/a	n/a	0	0	0	n/a	n/a	n/a	n/a	n/a
946934	REC_WORD_VV	wordpools/wasnorm_wordpool.txt	LTP067	ltpFR	9	5	n/a	<>	-1	n/a	n/a	n/a	0	0	0	n/a	n/a	n/a	n/a	n/a
947934	REC_WORD_VV	wordpools/wasnorm_wordpool.txt	LTP067	ltpFR	9	5	n/a	<>	-1	n/a	n/a	n/a	0	0	0	n/a	n/a	n/a	n/a	n/a
948934	REC_WORD_VV	wordpools/wasnorm_wordpool.txt	LTP067	ltpFR	9	5	n/a	<>	-1	n/a	n/a	n/a	0	0	0	n/a	n/a	n/a	n/a	n/a
949934	REC_WORD_VV	wordpools/wasnorm_wordpool.txt	LTP067	ltpFR	9	5	n/a	<>	-1	n/a	n/a	n/a	0	0	0	n/a	n/a	n/a	n/a	n/a
950934	REC_WORD_VV	wordpools/wasnorm_wordpool.txt	LTP067	ltpFR	9	5	n/a	<>	-1	n/a	n/a	n/a	0	0	0	n/a	n/a	n/a	n/a	n/a
951934	REC_WORD_VV	wordpools/wasnorm_wordpool.txt	LTP067	ltpFR	9	5	n/a	<>	-1	n/a	n/a	n/a	0	0	0	n/a	n/a	n/a	n/a	n/a
952934	REC_WORD_VV	wordpools/wasnorm_wordpool.txt	LTP067	ltpFR	9	5	n/a	<>	-1	n/a	n/a	n/a	0	0	0	n/a	n/a	n/a	n/a	n/a
953934	REC_WORD_VV	wordpools/wasnorm_wordpool.txt	LTP067	ltpFR	9	5	n/a	<>	-1	n/a	n/a	n/a	0	0	0	n/a	n/a	n/a	n/a	n/a
961651	REC_WORD	wordpools/wasnorm_wordpool.txt	LTP067	ltpFR	9	5	0	WATERFALL	1595	n/a	1	n/a	0	0	0	n/a	n/a	n/a	n/a	n/a
962618	REC_WORD	wordpools/wasnorm_wordpool.txt	LTP067	ltpFR	9	5	1	BOAT	144	n/a	0	n/a	0	0	0	n/a	n/a	n/a	n/a	n/a
963019	REC_WORD	wordpools/wasnorm_wordpool.txt	LTP067	ltpFR	9	5	n/a	PORT	1110	n/a	n/a	n/a	0	0	0	n/a	n/a	n/a	n/a	n/a
964140	REC_WORD_VV	wordpools/wasnorm_wordpool.txt	LTP067	ltpFR	9	5	n/a	<>	-1	n/a	n/a	n/a	0	0	0	n/a	n/a	n/a	n/a	n/a
973144	START	n/a	LTP067	ltpFR	9	n/a	n/a	n/a	n/a	n/a	n/a	n/a	n/a	n/a	n/a	n/a	n/a	n/a	n/a	n/a
974650	PROB	n/a	LTP067	ltpFR	9	n/a	n/a	n/a	n/a	n/a	n/a	11	2	8	1	n/a	n/a	n/a	n/a	n/a
976190	PROB	n/a	LTP067	ltpFR	9	n/a	n/a	n/a	n/a	n/a	n/a	15	1	5	9	n/a	n/a	n/a	n/a	n/a
977630	PROB	n/a	LTP067	ltpFR	9	n/a	n/a	n/a	n/a	n/a	n/a	20	8	8	4	n/a	n/a	n/a	n/a	n/a
979951	PROB	n/a	LTP067	ltpFR	9	n/a	n/a	n/a	n/a	n/a	n/a	25	9	8	8	n/a	n/a	n/a	n/a	n/a
981990	PROB	n/a	LTP067	ltpFR	9	n/a	n/a	n/a	n/a	n/a	n/a	19	4	7	8	n/a	n/a	n/a	n/a	n/a
983398	PROB	n/a	LTP067	ltpFR	9	n/a	n/a	n/a	n/a	n/a	n/a	12	4	5	3	n/a	n/a	n/a	n/a	n/a
984780	PROB	n/a	LTP067	ltpFR	9	n/a	n/a	n/a	n/a	n/a	n/a	13	3	7	3	n/a	n/a	n/a	n/a	n/a
986278	PROB	n/a	LTP067	ltpFR	9	n/a	n/a	n/a	n/a	n/a	n/a	9	1	4	4	n/a	n/a	n/a	n/a	n/a
988165	STOP	n/a	LTP067	ltpFR	9	n/a	n/a	n/a	n/a	n/a	n/a	n/a	n/a	n/a	n/a	n/a	n/a	n/a	n/a	n/a
990331	WORD	wordpools/wasnorm_wordpool.txt	LTP067	ltpFR	9	6	0	CART	250	n/a	1	n/a	0	0	0	0	0.5869140625	0.422607421875	upper	../fonts/zerothre.ttf
993337	START	n/a	LTP067	ltpFR	9	n/a	n/a	n/a	n/a	n/a	n/a	n/a	n/a	n/a	n/a	n/a	n/a	n/a	n/a	n/a
994293	PROB	n/a	LTP067	ltpFR	9	n/a	n/a	n/a	n/a	n/a	n/a	24	8	7	9	n/a	n/a	n/a	n/a	n/a
996815	PROB	n/a	LTP067	ltpFR	9	n/a	n/a	n/a	n/a	n/a	n/a	13	4	8	1	n/a	n/a	n/a	n/a	n/a
998489	PROB	n/a	LTP067	ltpFR	9	n/a	n/a	n/a	n/a	n/a	n/a	12	5	2	5	n/a	n/a	n/a	n/a	n/a
1000212	PROB	n/a	LTP067	ltpFR	9	n/a	n/a	n/a	n/a	n/a	n/a	16	4	6	6	n/a	n/a	n/a	n/a	n/a
1001552	PROB	n/a	LTP067	ltpFR	9	n/a	n/a	n/a	n/a	n/a	n/a	11	6	2	3	n/a	n/a	n/a	n/a	n/a
1003641	PROB	n/a	LTP067	ltpFR	9	n/a	n/a	n/a	n/a	n/a	n/a	12	1	8	3	n/a	n/a	n/a	n/a	n/a
1005156	PROB	n/a	LTP067	ltpFR	9	n/a	n/a	n/a	n/a	n/a	n/a	13	5	5	3	n/a	n/a	n/a	n/a	n/a
1006338	PROB	n/a	LTP067	ltpFR	9	n/a	n/a	n/a	n/a	n/a	n/a	10	7	1	2	n/a	n/a	n/a	n/a	n/a
1008317	STOP	n/a	LTP067	ltpFR	9	n/a	n/a	n/a	n/a	n/a	n/a	n/a	n/a	n/a	n/a	n/a	n/a	n/a	n/a	n/a
1010508	WORD	wordpools/wasnorm_wordpool.txt	LTP067	ltpFR	9	6	0	REBEL	1172	n/a	1	n/a	0	0	0	0	0.5869140625	0.422607421875	upper	../fonts/zerothre.ttf
1013513	START	n/a	LTP067	ltpFR	9	n/a	n/a	n/a	n/a	n/a	n/a	n/a	n/a	n/a	n/a	n/a	n/a	n/a	n/a	n/a
1014428	PROB	n/a	LTP067	ltpFR	9	n/a	n/a	n/a	n/a	n/a	n/a	6	2	1	3	n/a	n/a	n/a	n/a	n/a
1016484	PROB	n/a	LTP067	ltpFR	9	n/a	n/a	n/a	n/a	n/a	n/a	10	1	7	2	n/a	n/a	n/a	n/a	n/a
1018106	PROB	n/a	LTP067	ltpFR	9	n/a	n/a	n/a	n/a	n/a	n/a	10	3	5	2	n/a	n/a	n/a	n/a	n/a
1019364	PROB	n/a	LTP067	ltpFR	9	n/a	n/a	n/a	n/a	n/a	n/a	13	7	2	4	n/a	n/a	n/a	n/a	n/a
1021094	PROB	n/a	LTP067	ltpFR	9	n/a	n/a	n/a	n/a	n/a	n/a	13	6	5	2	n/a	n/a	n/a	n/a	n/a
1022817	PROB	n/a	LTP067	ltpFR	9	n/a	n/a	n/a	n/a	n/a	n/a	18	8	5	5	n/a	n/a	n/a	n/a	n/a
1024099	PROB	n/a	LTP067	ltpFR	9	n/a	n/a	n/a	n/a	n/a	n/a	23	8	9	6	n/a	n/a	n/a	n/a	n/a
1029513	STOP	n/a	LTP067	ltpFR	9	n/a	n/a	n/a	n/a	n/a	n/a	n/a	n/a	n/a	n/a	n/a	n/a	n/a	n/a	n/a
1030343	WORD	wordpools/wasnorm_wordpool.txt	LTP067	ltpFR	9	6	0	VIOLIN	1571	n/a	1	n/a	0	0	0	0	0.5869140625	0.422607421875	upper	../fonts/zerothre.ttf
1033348	START	n/a	LTP067	ltpFR	9	n/a	n/a	n/a	n/a	n/a	n/a	n/a	n/a	n/a	n/a	n/a	n/a	n/a	n/a	n/a
1034438	PROB	n/a	LTP067	ltpFR	9	n/a	n/a	n/a	n/a	n/a	n/a	17	4	7	6	n/a	n/a	n/a	n/a	n/a
1036269	PROB	n/a	LTP067	ltpFR	9	n/a	n/a	n/a	n/a	n/a	n/a	8	5	1	2	n/a	n/a	n/a	n/a	n/a
1037916	PROB	n/a	LTP067	ltpFR	9	n/a	n/a	n/a	n/a	n/a	n/a	5	1	3	1	n/a	n/a	n/a	n/a	n/a
1038999	PROB	n/a	LTP067	ltpFR	9	n/a	n/a	n/a	n/a	n/a	n/a	14	5	2	7	n/a	n/a	n/a	n/a	n/a
1040589	PROB	n/a	LTP067	ltpFR	9	n/a	n/a	n/a	n/a	n/a	n/a	20	7	4	9	n/a	n/a	n/a	n/a	n/a
1042720	PROB	n/a	LTP067	ltpFR	9	n/a	n/a	n/a	n/a	n/a	n/a	16	7	6	3	n/a	n/a	n/a	n/a	n/a
1044883	PROB	n/a	LTP067	ltpFR	9	n/a	n/a	n/a	n/a	n/a	n/a	12	7	3	2	n/a	n/a	n/a	n/a	n/a
1046082	PROB	n/a	LTP067	ltpFR	9	n/a	n/a	n/a	n/a	n/a	n/a	13	1	5	7	n/a	n/a	n/a	n/a	n/a
1047828	STOP	n/a	LTP067	ltpFR	9	n/a	n/a	n/a	n/a	n/a	n/a	n/a	n/a	n/a	n/a	n/a	n/a	n/a	n/a	n/a
1050270	WORD	wordpools/wasnorm_wordpool.txt	LTP067	ltpFR	9	6	0	STEREO	1378	n/a	1	n/a	0	0	0	0	0.5869140625	0.422607421875	upper	../fonts/zerothre.ttf
1053275	START	n/a	LTP067	ltpFR	9	n/a	n/a	n/a	n/a	n/a	n/a	n/a	n/a	n/a	n/a	n/a	n/a	n/a	n/a	n/a
1054157	PROB	n/a	LTP067	ltpFR	9	n/a	n/a	n/a	n/a	n/a	n/a	16	3	4	9	n/a	n/a	n/a	n/a	n/a
1055763	PROB	n/a	LTP067	ltpFR	9	n/a	n/a	n/a	n/a	n/a	n/a	16	8	4	4	n/a	n/a	n/a	n/a	n/a
1057212	PROB	n/a	LTP067	ltpFR	9	n/a	n/a	n/a	n/a	n/a	n/a	14	4	3	7	n/a	n/a	n/a	n/a	n/a
1058751	PROB	n/a	LTP067	ltpFR	9	n/a	n/a	n/a	n/a	n/a	n/a	17	2	8	7	n/a	n/a	n/a	n/a	n/a
1060116	PROB	n/a	LTP067	ltpFR	9	n/a	n/a	n/a	n/a	n/a	n/a	12	3	2	7	n/a	n/a	n/a	n/a	n/a
1061540	PROB	n/a	LTP067	ltpFR	9	n/a	n/a	n/a	n/a	n/a	n/a	7	2	1	4	n/a	n/a	n/a	n/a	n/a
1063662	PROB	n/a	LTP067	ltpFR	9	n/a	n/a	n/a	n/a	n/a	n/a	13	2	7	4	n/a	n/a	n/a	n/a	n/a
1065277	PROB	n/a	LTP067	ltpFR	9	n/a	n/a	n/a	n/a	n/a	n/a	15	8	5	2	n/a	n/a	n/a	n/a	n/a
1067024	PROB	n/a	LTP067	ltpFR	9	n/a	n/a	n/a	n/a	n/a	n/a	15	1	6	8	n/a	n/a	n/a	n/a	n/a
1068884	STOP	n/a	LTP067	ltpFR	9	n/a	n/a	n/a	n/a	n/a	n/a	n/a	n/a	n/a	n/a	n/a	n/a	n/a	n/a	n/a
1070180	WORD	wordpools/wasnorm_wordpool.txt	LTP067	ltpFR	9	6	1	GRAVEL	659	n/a	0	n/a	0	0	0	1	0.412841796875	0.57763671875	lower	../fonts/amplitud.ttf
1073185	START	n/a	LTP067	ltpFR	9	n/a	n/a	n/a	n/a	n/a	n/a	n/a	n/a	n/a	n/a	n/a	n/a	n/a	n/a	n/a
1074267	PROB	n/a	LTP067	ltpFR	9	n/a	n/a	n/a	n/a	n/a	n/a	21	6	7	8	n/a	n/a	n/a	n/a	n/a
1077172	PROB	n/a	LTP067	ltpFR	9	n/a	n/a	n/a	n/a	n/a	n/a	5	1	1	3	n/a	n/a	n/a	n/a	n/a
1078537	PROB	n/a	LTP067	ltpFR	9	n/a	n/a	n/a	n/a	n/a	n/a	25	9	7	9	n/a	n/a	n/a	n/a	n/a
1080409	PROB	n/a	LTP067	ltpFR	9	n/a	n/a	n/a	n/a	n/a	n/a	19	1	9	9	n/a	n/a	n/a	n/a	n/a
1081832	PROB	n/a	LTP067	ltpFR	9	n/a	n/a	n/a	n/a	n/a	n/a	12	2	6	4	n/a	n/a	n/a	n/a	n/a
1083722	PROB	n/a	LTP067	ltpFR	9	n/a	n/a	n/a	n/a	n/a	n/a	10	6	1	3	n/a	n/a	n/a	n/a	n/a
1085237	PROB	n/a	LTP067	ltpFR	9	n/a	n/a	n/a	n/a	n/a	n/a	11	1	6	4	n/a	n/a	n/a	n/a	n/a
1086710	PROB	n/a	LTP067	ltpFR	9	n/a	n/a	n/a	n/a	n/a	n/a	15	7	1	7	n/a	n/a	n/a	n/a	n/a
1087996	STOP	n/a	LTP067	ltpFR	9	n/a	n/a	n/a	n/a	n/a	n/a	n/a	n/a	n/a	n/a	n/a	n/a	n/a	n/a	n/a
1090281	WORD	wordpools/wasnorm_wordpool.txt	LTP067	ltpFR	9	6	1	FACTORY	548	n/a	0	n/a	0	0	0	1	0.412841796875	0.57763671875	lower	../fonts/amplitud.ttf
1093286	START	n/a	LTP067	ltpFR	9	n/a	n/a	n/a	n/a	n/a	n/a	n/a	n/a	n/a	n/a	n/a	n/a	n/a	n/a	n/a
1094451	PROB	n/a	LTP067	ltpFR	9	n/a	n/a	n/a	n/a	n/a	n/a	20	9	2	9	n/a	n/a	n/a	n/a	n/a
1096324	PROB	n/a	LTP067	ltpFR	9	n/a	n/a	n/a	n/a	n/a	n/a	17	2	7	8	n/a	n/a	n/a	n/a	n/a
1098021	PROB	n/a	LTP067	ltpFR	9	n/a	n/a	n/a	n/a	n/a	n/a	15	3	4	8	n/a	n/a	n/a	n/a	n/a
1102692	PROB	n/a	LTP067	ltpFR	9	n/a	n/a	n/a	n/a	n/a	n/a	9	2	4	3	n/a	n/a	n/a	n/a	n/a
1104781	PROB	n/a	LTP067	ltpFR	9	n/a	n/a	n/a	n/a	n/a	n/a	8	2	4	2	n/a	n/a	n/a	n/a	n/a
1106329	PROB	n/a	LTP067	ltpFR	9	n/a	n/a	n/a	n/a	n/a	n/a	13	7	4	2	n/a	n/a	n/a	n/a	n/a
1107757	STOP	n/a	LTP067	ltpFR	9	n/a	n/a	n/a	n/a	n/a	n/a	n/a	n/a	n/a	n/a	n/a	n/a	n/a	n/a	n/a
1110466	WORD	wordpools/wasnorm_wordpool.txt	LTP067	ltpFR	9	6	1	DANDELION	438	n/a	0	n/a	0	0	0	1	0.412841796875	0.57763671875	lower	../fonts/amplitud.ttf
1113471	START	n/a	LTP067	ltpFR	9	n/a	n/a	n/a	n/a	n/a	n/a	n/a	n/a	n/a	n/a	n/a	n/a	n/a	n/a	n/a
1114503	PROB	n/a	LTP067	ltpFR	9	n/a	n/a	n/a	n/a	n/a	n/a	21	5	7	9	n/a	n/a	n/a	n/a	n/a
1116767	PROB	n/a	LTP067	ltpFR	9	n/a	n/a	n/a	n/a	n/a	n/a	13	2	7	4	n/a	n/a	n/a	n/a	n/a
1118290	PROB	n/a	LTP067	ltpFR	9	n/a	n/a	n/a	n/a	n/a	n/a	17	8	3	6	n/a	n/a	n/a	n/a	n/a
1119797	PROB	n/a	LTP067	ltpFR	9	n/a	n/a	n/a	n/a	n/a	n/a	16	6	3	7	n/a	n/a	n/a	n/a	n/a
1121178	PROB	n/a	LTP067	ltpFR	9	n/a	n/a	n/a	n/a	n/a	n/a	15	1	6	8	n/a	n/a	n/a	n/a	n/a
1123100	PROB	n/a	LTP067	ltpFR	9	n/a	n/a	n/a	n/a	n/a	n/a	21	7	9	5	n/a	n/a	n/a	n/a	n/a
1125149	PROB	n/a	LTP067	ltpFR	9	n/a	n/a	n/a	n/a	n/a	n/a	17	6	9	2	n/a	n/a	n/a	n/a	n/a
1129471	STOP	n/a	LTP067	ltpFR	9	n/a	n/a	n/a	n/a	n/a	n/a	n/a	n/a	n/a	n/a	n/a	n/a	n/a	n/a	n/a
1130601	WORD	wordpools/wasnorm_wordpool.txt	LTP067	ltpFR	9	6	0	GREASE	660	n/a	0	n/a	0	0	0	0	0.5869140625	0.422607421875	upper	../fonts/zerothre.ttf
1133606	START	n/a	LTP067	ltpFR	9	n/a	n/a	n/a	n/a	n/a	n/a	n/a	n/a	n/a	n/a	n/a	n/a	n/a	n/a	n/a
1134471	PROB	n/a	LTP067	ltpFR	9	n/a	n/a	n/a	n/a	n/a	n/a	17	5	8	4	n/a	n/a	n/a	n/a	n/a
1136302	PROB	n/a	LTP067	ltpFR	9	n/a	n/a	n/a	n/a	n/a	n/a	11	4	1	6	n/a	n/a	n/a	n/a	n/a
1138150	PROB	n/a	LTP067	ltpFR	9	n/a	n/a	n/a	n/a	n/a	n/a	19	8	6	5	n/a	n/a	n/a	n/a	n/a
1140039	PROB	n/a	LTP067	ltpFR	9	n/a	n/a	n/a	n/a	n/a	n/a	16	1	6	9	n/a	n/a	n/a	n/a	n/a
1141505	PROB	n/a	LTP067	ltpFR	9	n/a	n/a	n/a	n/a	n/a	n/a	15	9	3	3	n/a	n/a	n/a	n/a	n/a
1143052	PROB	n/a	LTP067	ltpFR	9	n/a	n/a	n/a	n/a	n/a	n/a	13	6	4	3	n/a	n/a	n/a	n/a	n/a
1144351	PROB	n/a	LTP067	ltpFR	9	n/a	n/a	n/a	n/a	n/a	n/a	14	4	1	9	n/a	n/a	n/a	n/a	n/a
1145957	PROB	n/a	LTP067	ltpFR	9	n/a	n/a	n/a	n/a	n/a	n/a	20	5	7	8	n/a	n/a	n/a	n/a	n/a
1147639	PROB	n/a	LTP067	ltpFR	9	n/a	n/a	n/a	n/a	n/a	n/a	15	1	8	6	n/a	n/a	n/a	n/a	n/a
1149189	STOP	n/a	LTP067	ltpFR	9	n/a	n/a	n/a	n/a	n/a	n/a	n/a	n/a	n/a	n/a	n/a	n/a	n/a	n/a	n/a
1150644	WORD	wordpools/wasnorm_wordpool.txt	LTP067	ltpFR	9	6	0	HERD	705	n/a	1	n/a	0	0	0	0	0.5869140625	0.422607421875	upper	../fonts/zerothre.ttf
1153649	START	n/a	LTP067	ltpFR	9	n/a	n/a	n/a	n/a	n/a	n/a	n/a	n/a	n/a	n/a	n/a	n/a	n/a	n/a	n/a
1154648	PROB	n/a	LTP067	ltpFR	9	n/a	n/a	n/a	n/a	n/a	n/a	19	2	9	8	n/a	n/a	n/a	n/a	n/a
1156204	PROB	n/a	LTP067	ltpFR	9	n/a	n/a	n/a	n/a	n/a	n/a	5	1	1	3	n/a	n/a	n/a	n/a	n/a
1157270	PROB	n/a	LTP067	ltpFR	9	n/a	n/a	n/a	n/a	n/a	n/a	19	6	5	8	n/a	n/a	n/a	n/a	n/a
1159108	PROB	n/a	LTP067	ltpFR	9	n/a	n/a	n/a	n/a	n/a	n/a	14	3	8	3	n/a	n/a	n/a	n/a	n/a
1160607	PROB	n/a	LTP067	ltpFR	9	n/a	n/a	n/a	n/a	n/a	n/a	14	3	2	9	n/a	n/a	n/a	n/a	n/a
1163313	PROB	n/a	LTP067	ltpFR	9	n/a	n/a	n/a	n/a	n/a	n/a	13	6	5	2	n/a	n/a	n/a	n/a	n/a
1165084	PROB	n/a	LTP067	ltpFR	9	n/a	n/a	n/a	n/a	n/a	n/a	18	3	8	7	n/a	n/a	n/a	n/a	n/a
1166857	PROB	n/a	LTP067	ltpFR	9	n/a	n/a	n/a	n/a	n/a	n/a	13	6	3	4	n/a	n/a	n/a	n/a	n/a
1168956	STOP	n/a	LTP067	ltpFR	9	n/a	n/a	n/a	n/a	n/a	n/a	n/a	n/a	n/a	n/a	n/a	n/a	n/a	n/a	n/a
1170671	WORD	wordpools/wasnorm_wordpool.txt	LTP067	ltpFR	9	6	0	BEEF	113	n/a	0	n/a	0	0	0	0	0.5869140625	0.422607421875	upper	../fonts/zerothre.ttf
1173676	START	n/a	LTP067	ltpFR	9	n/a	n/a	n/a	n/a	n/a	n/a	n/a	n/a	n/a	n/a	n/a	n/a	n/a	n/a	n/a
1174574	PROB	n/a	LTP067	ltpFR	9	n/a	n/a	n/a	n/a	n/a	n/a	16	7	3	6	n/a	n/a	n/a	n/a	n/a
1176122	PROB	n/a	LTP067	ltpFR	9	n/a	n/a	n/a	n/a	n/a	n/a	9	4	1	3	n/a	n/a	n/a	n/a	n/a
1177762	PROB	n/a	LTP067	ltpFR	9	n/a	n/a	n/a	n/a	n/a	n/a	11	2	7	2	n/a	n/a	n/a	n/a	n/a
1180151	PROB	n/a	LTP067	ltpFR	9	n/a	n/a	n/a	n/a	n/a	n/a	17	3	8	6	n/a	n/a	n/a	n/a	n/a
1182307	PROB	n/a	LTP067	ltpFR	9	n/a	n/a	n/a	n/a	n/a	n/a	17	8	7	2	n/a	n/a	n/a	n/a	n/a
1184112	PROB	n/a	LTP067	ltpFR	9	n/a	n/a	n/a	n/a	n/a	n/a	10	2	1	7	n/a	n/a	n/a	n/a	n/a
1185653	PROB	n/a	LTP067	ltpFR	9	n/a	n/a	n/a	n/a	n/a	n/a	14	8	1	5	n/a	n/a	n/a	n/a	n/a
1187393	PROB	n/a	LTP067	ltpFR	9	n/a	n/a	n/a	n/a	n/a	n/a	13	2	5	6	n/a	n/a	n/a	n/a	n/a
1189237	STOP	n/a	LTP067	ltpFR	9	n/a	n/a	n/a	n/a	n/a	n/a	n/a	n/a	n/a	n/a	n/a	n/a	n/a	n/a	n/a
1190664	WORD	wordpools/wasnorm_wordpool.txt	LTP067	ltpFR	9	6	0	GALAXY	617	n/a	1	n/a	0	0	0	0	0.5869140625	0.422607421875	upper	../fonts/zerothre.ttf
1193669	START	n/a	LTP067	ltpFR	9	n/a	n/a	n/a	n/a	n/a	n/a	n/a	n/a	n/a	n/a	n/a	n/a	n/a	n/a	n/a
1194734	PROB	n/a	LTP067	ltpFR	9	n/a	n/a	n/a	n/a	n/a	n/a	17	6	2	9	n/a	n/a	n/a	n/a	n/a
1196732	PROB	n/a	LTP067	ltpFR	9	n/a	n/a	n/a	n/a	n/a	n/a	10	2	6	2	n/a	n/a	n/a	n/a	n/a
1198688	PROB	n/a	LTP067	ltpFR	9	n/a	n/a	n/a	n/a	n/a	n/a	19	8	4	7	n/a	n/a	n/a	n/a	n/a
1200261	PROB	n/a	LTP067	ltpFR	9	n/a	n/a	n/a	n/a	n/a	n/a	16	2	5	9	n/a	n/a	n/a	n/a	n/a
1201816	PROB	n/a	LTP067	ltpFR	9	n/a	n/a	n/a	n/a	n/a	n/a	19	5	5	9	n/a	n/a	n/a	n/a	n/a
1203007	PROB	n/a	LTP067	ltpFR	9	n/a	n/a	n/a	n/a	n/a	n/a	16	6	8	2	n/a	n/a	n/a	n/a	n/a
1204314	PROB	n/a	LTP067	ltpFR	9	n/a	n/a	n/a	n/a	n/a	n/a	9	2	5	2	n/a	n/a	n/a	n/a	n/a
1205771	PROB	n/a	LTP067	ltpFR	9	n/a	n/a	n/a	n/a	n/a	n/a	14	3	6	5	n/a	n/a	n/a	n/a	n/a
1209668	STOP	n/a	LTP067	ltpFR	9	n/a	n/a	n/a	n/a	n/a	n/a	n/a	n/a	n/a	n/a	n/a	n/a	n/a	n/a	n/a
1210516	WORD	wordpools/wasnorm_wordpool.txt	LTP067	ltpFR	9	6	1	LILY	821	n/a	1	n/a	0	0	0	1	0.412841796875	0.57763671875	lower	../fonts/amplitud.ttf
1213521	START	n/a	LTP067	ltpFR	9	n/a	n/a	n/a	n/a	n/a	n/a	n/a	n/a	n/a	n/a	n/a	n/a	n/a	n/a	n/a
1214328	PROB	n/a	LTP067	ltpFR	9	n/a	n/a	n/a	n/a	n/a	n/a	17	7	6	4	n/a	n/a	n/a	n/a	n/a
1216792	PROB	n/a	LTP067	ltpFR	9	n/a	n/a	n/a	n/a	n/a	n/a	16	5	3	8	n/a	n/a	n/a	n/a	n/a
1218182	PROB	n/a	LTP067	ltpFR	9	n/a	n/a	n/a	n/a	n/a	n/a	15	7	7	1	n/a	n/a	n/a	n/a	n/a
1219622	PROB	n/a	LTP067	ltpFR	9	n/a	n/a	n/a	n/a	n/a	n/a	13	5	7	1	n/a	n/a	n/a	n/a	n/a
1222084	PROB	n/a	LTP067	ltpFR	9	n/a	n/a	n/a	n/a	n/a	n/a	17	9	4	4	n/a	n/a	n/a	n/a	n/a
1224015	PROB	n/a	LTP067	ltpFR	9	n/a	n/a	n/a	n/a	n/a	n/a	12	8	1	3	n/a	n/a	n/a	n/a	n/a
1225781	PROB	n/a	LTP067	ltpFR	9	n/a	n/a	n/a	n/a	n/a	n/a	9	1	1	7	n/a	n/a	n/a	n/a	n/a
1227004	PROB	n/a	LTP067	ltpFR	9	n/a	n/a	n/a	n/a	n/a	n/a	15	7	3	5	n/a	n/a	n/a	n/a	n/a
1228205	STOP	n/a	LTP067	ltpFR	9	n/a	n/a	n/a	n/a	n/a	n/a	n/a	n/a	n/a	n/a	n/a	n/a	n/a	n/a	n/a
1230542	WORD	wordpools/wasnorm_wordpool.txt	LTP067	ltpFR	9	6	1	BUILDER	190	n/a	1	n/a	0	0	0	1	0.412841796875	0.57763671875	lower	../fonts/amplitud.ttf
1233547	START	n/a	LTP067	ltpFR	9	n/a	n/a	n/a	n/a	n/a	n/a	n/a	n/a	n/a	n/a	n/a	n/a	n/a	n/a	n/a
1234396	PROB	n/a	LTP067	ltpFR	9	n/a	n/a	n/a	n/a	n/a	n/a	16	5	7	4	n/a	n/a	n/a	n/a	n/a
1235761	PROB	n/a	LTP067	ltpFR	9	n/a	n/a	n/a	n/a	n/a	n/a	19	5	8	6	n/a	n/a	n/a	n/a	n/a
1237576	PROB	n/a	LTP067	ltpFR	9	n/a	n/a	n/a	n/a	n/a	n/a	6	1	1	4	n/a	n/a	n/a	n/a	n/a
1238716	PROB	n/a	LTP067	ltpFR	9	n/a	n/a	n/a	n/a	n/a	n/a	17	9	5	3	n/a	n/a	n/a	n/a	n/a
1240887	PROB	n/a	LTP067	ltpFR	9	n/a	n/a	n/a	n/a	n/a	n/a	13	8	2	3	n/a	n/a	n/a	n/a	n/a
1241978	PROB	n/a	LTP067	ltpFR	9	n/a	n/a	n/a	n/a	n/a	n/a	13	6	6	1	n/a	n/a	n/a	n/a	n/a
1243693	PROB	n/a	LTP067	ltpFR	9	n/a	n/a	n/a	n/a	n/a	n/a	16	4	8	4	n/a	n/a	n/a	n/a	n/a
1245150	PROB	n/a	LTP067	ltpFR	9	n/a	n/a	n/a	n/a	n/a	n/a	13	7	2	4	n/a	n/a	n/a	n/a	n/a
1246682	PROB	n/a	LTP067	ltpFR	9	n/a	n/a	n/a	n/a	n/a	n/a	13	1	8	4	n/a	n/a	n/a	n/a	n/a
1248028	STOP	n/a	LTP067	ltpFR	9	n/a	n/a	n/a	n/a	n/a	n/a	n/a	n/a	n/a	n/a	n/a	n/a	n/a	n/a	n/a
1250569	WORD	wordpools/wasnorm_wordpool.txt	LTP067	ltpFR	9	6	1	MOTEL	919	n/a	0	n/a	0	0	0	1	0.412841796875	0.57763671875	lower	../fonts/amplitud.ttf
1253574	START	n/a	LTP067	ltpFR	9	n/a	n/a	n/a	n/a	n/a	n/a	n/a	n/a	n/a	n/a	n/a	n/a	n/a	n/a	n/a
1254406	PROB	n/a	LTP067	ltpFR	9	n/a	n/a	n/a	n/a	n/a	n/a	17	4	7	6	n/a	n/a	n/a	n/a	n/a
1256095	PROB	n/a	LTP067	ltpFR	9	n/a	n/a	n/a	n/a	n/a	n/a	20	7	4	9	n/a	n/a	n/a	n/a	n/a
1257727	PROB	n/a	LTP067	ltpFR	9	n/a	n/a	n/a	n/a	n/a	n/a	9	2	3	4	n/a	n/a	n/a	n/a	n/a
1259083	PROB	n/a	LTP067	ltpFR	9	n/a	n/a	n/a	n/a	n/a	n/a	15	9	5	1	n/a	n/a	n/a	n/a	n/a
1260499	PROB	n/a	LTP067	ltpFR	9	n/a	n/a	n/a	n/a	n/a	n/a	17	8	2	7	n/a	n/a	n/a	n/a	n/a
1261954	PROB	n/a	LTP067	ltpFR	9	n/a	n/a	n/a	n/a	n/a	n/a	24	9	9	6	n/a	n/a	n/a	n/a	n/a
1263554	PROB	n/a	LTP067	ltpFR	9	n/a	n/a	n/a	n/a	n/a	n/a	16	5	2	9	n/a	n/a	n/a	n/a	n/a
1265101	PROB	n/a	LTP067	ltpFR	9	n/a	n/a	n/a	n/a	n/a	n/a	16	3	5	8	n/a	n/a	n/a	n/a	n/a
1266608	PROB	n/a	LTP067	ltpFR	9	n/a	n/a	n/a	n/a	n/a	n/a	11	2	3	6	n/a	n/a	n/a	n/a	n/a
1267881	PROB	n/a	LTP067	ltpFR	9	n/a	n/a	n/a	n/a	n/a	n/a	11	6	4	1	n/a	n/a	n/a	n/a	n/a
1268972	STOP	n/a	LTP067	ltpFR	9	n/a	n/a	n/a	n/a	n/a	n/a	n/a	n/a	n/a	n/a	n/a	n/a	n/a	n/a	n/a
1270429	WORD	wordpools/wasnorm_wordpool.txt	LTP067	ltpFR	9	6	1	PHYSICIAN	1056	n/a	1	n/a	0	0	0	1	0.412841796875	0.57763671875	lower	../fonts/amplitud.ttf
1273434	START	n/a	LTP067	ltpFR	9	n/a	n/a	n/a	n/a	n/a	n/a	n/a	n/a	n/a	n/a	n/a	n/a	n/a	n/a	n/a
1274516	PROB	n/a	LTP067	ltpFR	9	n/a	n/a	n/a	n/a	n/a	n/a	14	2	8	3	n/a	n/a	n/a	n/a	n/a
1276189	PROB	n/a	LTP067	ltpFR	9	n/a	n/a	n/a	n/a	n/a	n/a	4	2	1	1	n/a	n/a	n/a	n/a	n/a
1277462	PROB	n/a	LTP067	ltpFR	9	n/a	n/a	n/a	n/a	n/a	n/a	20	9	8	3	n/a	n/a	n/a	n/a	n/a
1279568	PROB	n/a	LTP067	ltpFR	9	n/a	n/a	n/a	n/a	n/a	n/a	20	5	7	8	n/a	n/a	n/a	n/a	n/a
1282182	PROB	n/a	LTP067	ltpFR	9	n/a	n/a	n/a	n/a	n/a	n/a	15	3	4	8	n/a	n/a	n/a	n/a	n/a
1284562	PROB	n/a	LTP067	ltpFR	9	n/a	n/a	n/a	n/a	n/a	n/a	8	4	2	2	n/a	n/a	n/a	n/a	n/a
1286627	PROB	n/a	LTP067	ltpFR	9	n/a	n/a	n/a	n/a	n/a	n/a	11	6	1	4	n/a	n/a	n/a	n/a	n/a
1289084	STOP	n/a	LTP067	ltpFR	9	n/a	n/a	n/a	n/a	n/a	n/a	n/a	n/a	n/a	n/a	n/a	n/a	n/a	n/a	n/a
1290430	WORD	wordpools/wasnorm_wordpool.txt	LTP067	ltpFR	9	6	1	WITCH	1617	n/a	1	n/a	0	0	0	1	0.412841796875	0.57763671875	lower	../fonts/amplitud.ttf
1293436	START	n/a	LTP067	ltpFR	9	n/a	n/a	n/a	n/a	n/a	n/a	n/a	n/a	n/a	n/a	n/a	n/a	n/a	n/a	n/a
1294551	PROB	n/a	LTP067	ltpFR	9	n/a	n/a	n/a	n/a	n/a	n/a	10	4	5	1	n/a	n/a	n/a	n/a	n/a
1295881	PROB	n/a	LTP067	ltpFR	9	n/a	n/a	n/a	n/a	n/a	n/a	15	3	4	8	n/a	n/a	n/a	n/a	n/a
1298205	PROB	n/a	LTP067	ltpFR	9	n/a	n/a	n/a	n/a	n/a	n/a	15	8	4	3	n/a	n/a	n/a	n/a	n/a
1299977	PROB	n/a	LTP067	ltpFR	9	n/a	n/a	n/a	n/a	n/a	n/a	19	4	6	9	n/a	n/a	n/a	n/a	n/a
1301759	PROB	n/a	LTP067	ltpFR	9	n/a	n/a	n/a	n/a	n/a	n/a	13	1	9	3	n/a	n/a	n/a	n/a	n/a
1302965	PROB	n/a	LTP067	ltpFR	9	n/a	n/a	n/a	n/a	n/a	n/a	13	3	3	7	n/a	n/a	n/a	n/a	n/a
1304356	PROB	n/a	LTP067	ltpFR	9	n/a	n/a	n/a	n/a	n/a	n/a	19	2	9	8	n/a	n/a	n/a	n/a	n/a
1306069	PROB	n/a	LTP067	ltpFR	9	n/a	n/a	n/a	n/a	n/a	n/a	18	5	6	7	n/a	n/a	n/a	n/a	n/a
1307585	PROB	n/a	LTP067	ltpFR	9	n/a	n/a	n/a	n/a	n/a	n/a	19	9	6	4	n/a	n/a	n/a	n/a	n/a
1309205	STOP	n/a	LTP067	ltpFR	9	n/a	n/a	n/a	n/a	n/a	n/a	n/a	n/a	n/a	n/a	n/a	n/a	n/a	n/a	n/a
1311240	REC_START	n/a	LTP067	ltpFR	9	6	n/a	n/a	n/a	n/a	n/a	n/a	0	0	0	n/a	n/a	n/a	n/a	n/a
1312216	REC_WORD	wordpools/wasnorm_wordpool.txt	LTP067	ltpFR	9	6	1	WITCH	1617	n/a	1	n/a	0	0	0	n/a	n/a	n/a	n/a	n/a
1312631	REC_WORD	wordpools/wasnorm_wordpool.txt	LTP067	ltpFR	9	6	1	LILY	821	n/a	1	n/a	0	0	0	n/a	n/a	n/a	n/a	n/a
1313083	REC_WORD	wordpools/wasnorm_wordpool.txt	LTP067	ltpFR	9	6	1	DANDELION	438	n/a	0	n/a	0	0	0	n/a	n/a	n/a	n/a	n/a
1314298	REC_WORD	wordpools/wasnorm_wordpool.txt	LTP067	ltpFR	9	6	1	BUILDER	190	n/a	1	n/a	0	0	0	n/a	n/a	n/a	n/a	n/a
1321439	REC_WORD	wordpools/wasnorm_wordpool.txt	LTP067	ltpFR	9	6	0	BEEF	113	n/a	0	n/a	0	0	0	n/a	n/a	n/a	n/a	n/a
1328445	REC_WORD_VV	wordpools/wasnorm_wordpool.txt	LTP067	ltpFR	9	6	n/a	<>	-1	n/a	n/a	n/a	0	0	0	n/a	n/a	n/a	n/a	n/a
1329445	REC_WORD_VV	wordpools/wasnorm_wordpool.txt	LTP067	ltpFR	9	6	n/a	<>	-1	n/a	n/a	n/a	0	0	0	n/a	n/a	n/a	n/a	n/a
1330445	REC_WORD_VV	wordpools/wasnorm_wordpool.txt	LTP067	ltpFR	9	6	n/a	<>	-1	n/a	n/a	n/a	0	0	0	n/a	n/a	n/a	n/a	n/a
1331445	REC_WORD_VV	wordpools/wasnorm_wordpool.txt	LTP067	ltpFR	9	6	n/a	<>	-1	n/a	n/a	n/a	0	0	0	n/a	n/a	n/a	n/a	n/a
1332422	REC_WORD_VV	wordpools/wasnorm_wordpool.txt	LTP067	ltpFR	9	6	n/a	<>	-1	n/a	n/a	n/a	0	0	0	n/a	n/a	n/a	n/a	n/a
1333422	REC_WORD_VV	wordpools/wasnorm_wordpool.txt	LTP067	ltpFR	9	6	n/a	<>	-1	n/a	n/a	n/a	0	0	0	n/a	n/a	n/a	n/a	n/a
1334422	REC_WORD_VV	wordpools/wasnorm_wordpool.txt	LTP067	ltpFR	9	6	n/a	<>	-1	n/a	n/a	n/a	0	0	0	n/a	n/a	n/a	n/a	n/a
1335422	REC_WORD_VV	wordpools/wasnorm_wordpool.txt	LTP067	ltpFR	9	6	n/a	<>	-1	n/a	n/a	n/a	0	0	0	n/a	n/a	n/a	n/a	n/a
1336422	REC_WORD_VV	wordpools/wasnorm_wordpool.txt	LTP067	ltpFR	9	6	n/a	<>	-1	n/a	n/a	n/a	0	0	0	n/a	n/a	n/a	n/a	n/a
1337422	REC_WORD_VV	wordpools/wasnorm_wordpool.txt	LTP067	ltpFR	9	6	n/a	<>	-1	n/a	n/a	n/a	0	0	0	n/a	n/a	n/a	n/a	n/a
1338422	REC_WORD_VV	wordpools/wasnorm_wordpool.txt	LTP067	ltpFR	9	6	n/a	<>	-1	n/a	n/a	n/a	0	0	0	n/a	n/a	n/a	n/a	n/a
1348266	REC_WORD_VV	wordpools/wasnorm_wordpool.txt	LTP067	ltpFR	9	6	n/a	<>	-1	n/a	n/a	n/a	0	0	0	n/a	n/a	n/a	n/a	n/a
1356922	REC_WORD_VV	wordpools/wasnorm_wordpool.txt	LTP067	ltpFR	9	6	n/a	<>	-1	n/a	n/a	n/a	0	0	0	n/a	n/a	n/a	n/a	n/a
1372804	REC_WORD	wordpools/wasnorm_wordpool.txt	LTP067	ltpFR	9	6	1	PHYSICIAN	1056	n/a	1	n/a	0	0	0	n/a	n/a	n/a	n/a	n/a
1388275	START	n/a	LTP067	ltpFR	9	n/a	n/a	n/a	n/a	n/a	n/a	n/a	n/a	n/a	n/a	n/a	n/a	n/a	n/a	n/a
1389781	PROB	n/a	LTP067	ltpFR	9	n/a	n/a	n/a	n/a	n/a	n/a	14	5	5	4	n/a	n/a	n/a	n/a	n/a
1391004	PROB	n/a	LTP067	ltpFR	9	n/a	n/a	n/a	n/a	n/a	n/a	11	1	7	3	n/a	n/a	n/a	n/a	n/a
1392361	PROB	n/a	LTP067	ltpFR	9	n/a	n/a	n/a	n/a	n/a	n/a	14	9	3	2	n/a	n/a	n/a	n/a	n/a
1394575	PROB	n/a	LTP067	ltpFR	9	n/a	n/a	n/a	n/a	n/a	n/a	16	6	7	3	n/a	n/a	n/a	n/a	n/a
1395757	STOP	n/a	LTP067	ltpFR	9	n/a	n/a	n/a	n/a	n/a	n/a	n/a	n/a	n/a	n/a	n/a	n/a	n/a	n/a	n/a
1397272	WORD	wordpools/wasnorm_wordpool.txt	LTP067	ltpFR	9	7	1	EAR	513	n/a	0	n/a	0	0	0	1	0.412841796875	0.57763671875	lower	../fonts/amplitud.ttf
1400277	START	n/a	LTP067	ltpFR	9	n/a	n/a	n/a	n/a	n/a	n/a	n/a	n/a	n/a	n/a	n/a	n/a	n/a	n/a	n/a
1401392	PROB	n/a	LTP067	ltpFR	9	n/a	n/a	n/a	n/a	n/a	n/a	23	5	9	9	n/a	n/a	n/a	n/a	n/a
1403081	PROB	n/a	LTP067	ltpFR	9	n/a	n/a	n/a	n/a	n/a	n/a	9	2	5	2	n/a	n/a	n/a	n/a	n/a
1404730	PROB	n/a	LTP067	ltpFR	9	n/a	n/a	n/a	n/a	n/a	n/a	19	5	7	7	n/a	n/a	n/a	n/a	n/a
1406636	PROB	n/a	LTP067	ltpFR	9	n/a	n/a	n/a	n/a	n/a	n/a	24	8	8	8	n/a	n/a	n/a	n/a	n/a
1407956	STOP	n/a	LTP067	ltpFR	9	n/a	n/a	n/a	n/a	n/a	n/a	n/a	n/a	n/a	n/a	n/a	n/a	n/a	n/a	n/a
1409107	WORD	wordpools/wasnorm_wordpool.txt	LTP067	ltpFR	9	7	1	BRAN	167	n/a	0	n/a	0	0	0	1	0.412841796875	0.57763671875	lower	../fonts/amplitud.ttf
1412113	START	n/a	LTP067	ltpFR	9	n/a	n/a	n/a	n/a	n/a	n/a	n/a	n/a	n/a	n/a	n/a	n/a	n/a	n/a	n/a
1413303	PROB	n/a	LTP067	ltpFR	9	n/a	n/a	n/a	n/a	n/a	n/a	9	2	6	1	n/a	n/a	n/a	n/a	n/a
1414718	PROB	n/a	LTP067	ltpFR	9	n/a	n/a	n/a	n/a	n/a	n/a	8	1	6	1	n/a	n/a	n/a	n/a	n/a
1416124	PROB	n/a	LTP067	ltpFR	9	n/a	n/a	n/a	n/a	n/a	n/a	15	1	8	6	n/a	n/a	n/a	n/a	n/a
1417615	PROB	n/a	LTP067	ltpFR	9	n/a	n/a	n/a	n/a	n/a	n/a	9	4	3	2	n/a	n/a	n/a	n/a	n/a
1418693	STOP	n/a	LTP067	ltpFR	9	n/a	n/a	n/a	n/a	n/a	n/a	n/a	n/a	n/a	n/a	n/a	n/a	n/a	n/a	n/a
1421261	WORD	wordpools/wasnorm_wordpool.txt	LTP067	ltpFR	9	7	0	REFRIGERATOR	1179	n/a	1	n/a	0	0	0	0	0.5869140625	0.422607421875	upper	../fonts/zerothre.ttf
1424266	START	n/a	LTP067	ltpFR	9	n/a	n/a	n/a	n/a	n/a	n/a	n/a	n/a	n/a	n/a	n/a	n/a	n/a	n/a	n/a
1425264	PROB	n/a	LTP067	ltpFR	9	n/a	n/a	n/a	n/a	n/a	n/a	15	6	4	5	n/a	n/a	n/a	n/a	n/a
1426446	PROB	n/a	LTP067	ltpFR	9	n/a	n/a	n/a	n/a	n/a	n/a	13	7	5	1	n/a	n/a	n/a	n/a	n/a
1428868	PROB	n/a	LTP067	ltpFR	9	n/a	n/a	n/a	n/a	n/a	n/a	10	1	2	7	n/a	n/a	n/a	n/a	n/a
1430099	PROB	n/a	LTP067	ltpFR	9	n/a	n/a	n/a	n/a	n/a	n/a	20	6	5	9	n/a	n/a	n/a	n/a	n/a
1431908	STOP	n/a	LTP067	ltpFR	9	n/a	n/a	n/a	n/a	n/a	n/a	n/a	n/a	n/a	n/a	n/a	n/a	n/a	n/a	n/a
1433238	WORD	wordpools/wasnorm_wordpool.txt	LTP067	ltpFR	9	7	0	TRAY	1498	n/a	1	n/a	0	0	0	0	0.5869140625	0.422607421875	upper	../fonts/zerothre.ttf
1436244	START	n/a	LTP067	ltpFR	9	n/a	n/a	n/a	n/a	n/a	n/a	n/a	n/a	n/a	n/a	n/a	n/a	n/a	n/a	n/a
1437192	PROB	n/a	LTP067	ltpFR	9	n/a	n/a	n/a	n/a	n/a	n/a	19	7	7	5	n/a	n/a	n/a	n/a	n/a
1438499	PROB	n/a	LTP067	ltpFR	9	n/a	n/a	n/a	n/a	n/a	n/a	15	7	5	3	n/a	n/a	n/a	n/a	n/a
1440513	PROB	n/a	LTP067	ltpFR	9	n/a	n/a	n/a	n/a	n/a	n/a	12	9	2	1	n/a	n/a	n/a	n/a	n/a
1441737	PROB	n/a	LTP067	ltpFR	9	n/a	n/a	n/a	n/a	n/a	n/a	20	6	9	5	n/a	n/a	n/a	n/a	n/a
1443453	STOP	n/a	LTP067	ltpFR	9	n/a	n/a	n/a	n/a	n/a	n/a	n/a	n/a	n/a	n/a	n/a	n/a	n/a	n/a	n/a
1445366	WORD	wordpools/wasnorm_wordpool.txt	LTP067	ltpFR	9	7	0	POSSUM	1112	n/a	1	n/a	0	0	0	0	0.5869140625	0.422607421875	upper	../fonts/zerothre.ttf
1448371	START	n/a	LTP067	ltpFR	9	n/a	n/a	n/a	n/a	n/a	n/a	n/a	n/a	n/a	n/a	n/a	n/a	n/a	n/a	n/a
1449461	PROB	n/a	LTP067	ltpFR	9	n/a	n/a	n/a	n/a	n/a	n/a	23	8	8	7	n/a	n/a	n/a	n/a	n/a
1450900	PROB	n/a	LTP067	ltpFR	9	n/a	n/a	n/a	n/a	n/a	n/a	15	4	5	6	n/a	n/a	n/a	n/a	n/a
1452864	PROB	n/a	LTP067	ltpFR	9	n/a	n/a	n/a	n/a	n/a	n/a	10	1	8	1	n/a	n/a	n/a	n/a	n/a
1454206	PROB	n/a	LTP067	ltpFR	9	n/a	n/a	n/a	n/a	n/a	n/a	17	6	8	3	n/a	n/a	n/a	n/a	n/a
1455828	STOP	n/a	LTP067	ltpFR	9	n/a	n/a	n/a	n/a	n/a	n/a	n/a	n/a	n/a	n/a	n/a	n/a	n/a	n/a	n/a
1457244	WORD	wordpools/wasnorm_wordpool.txt	LTP067	ltpFR	9	7	0	SIBLING	1301	n/a	1	n/a	0	0	0	0	0.5869140625	0.422607421875	upper	../fonts/zerothre.ttf
1460249	START	n/a	LTP067	ltpFR	9	n/a	n/a	n/a	n/a	n/a	n/a	n/a	n/a	n/a	n/a	n/a	n/a	n/a	n/a	n/a
1461414	PROB	n/a	LTP067	ltpFR	9	n/a	n/a	n/a	n/a	n/a	n/a	7	2	3	2	n/a	n/a	n/a	n/a	n/a
1463053	PROB	n/a	LTP067	ltpFR	9	n/a	n/a	n/a	n/a	n/a	n/a	13	6	6	1	n/a	n/a	n/a	n/a	n/a
1464319	PROB	n/a	LTP067	ltpFR	9	n/a	n/a	n/a	n/a	n/a	n/a	10	8	1	1	n/a	n/a	n/a	n/a	n/a
1468249	STOP	n/a	LTP067	ltpFR	9	n/a	n/a	n/a	n/a	n/a	n/a	n/a	n/a	n/a	n/a	n/a	n/a	n/a	n/a	n/a
1469404	WORD	wordpools/wasnorm_wordpool.txt	LTP067	ltpFR	9	7	1	TEA	1439	n/a	0	n/a	0	0	0	1	0.412841796875	0.57763671875	lower	../fonts/amplitud.ttf
1472410	START	n/a	LTP067	ltpFR	9	n/a	n/a	n/a	n/a	n/a	n/a	n/a	n/a	n/a	n/a	n/a	n/a	n/a	n/a	n/a
1473516	PROB	n/a	LTP067	ltpFR	9	n/a	n/a	n/a	n/a	n/a	n/a	16	2	6	8	n/a	n/a	n/a	n/a	n/a
1475181	PROB	n/a	LTP067	ltpFR	9	n/a	n/a	n/a	n/a	n/a	n/a	17	7	2	8	n/a	n/a	n/a	n/a	n/a
1476538	PROB	n/a	LTP067	ltpFR	9	n/a	n/a	n/a	n/a	n/a	n/a	14	2	9	3	n/a	n/a	n/a	n/a	n/a
1479012	STOP	n/a	LTP067	ltpFR	9	n/a	n/a	n/a	n/a	n/a	n/a	n/a	n/a	n/a	n/a	n/a	n/a	n/a	n/a	n/a
1481349	WORD	wordpools/wasnorm_wordpool.txt	LTP067	ltpFR	9	7	1	CUPBOARD	425	n/a	0	n/a	0	0	0	1	0.412841796875	0.57763671875	lower	../fonts/amplitud.ttf
1484354	START	n/a	LTP067	ltpFR	9	n/a	n/a	n/a	n/a	n/a	n/a	n/a	n/a	n/a	n/a	n/a	n/a	n/a	n/a	n/a
1485411	PROB	n/a	LTP067	ltpFR	9	n/a	n/a	n/a	n/a	n/a	n/a	9	3	1	5	n/a	n/a	n/a	n/a	n/a
1487608	PROB	n/a	LTP067	ltpFR	9	n/a	n/a	n/a	n/a	n/a	n/a	15	3	3	9	n/a	n/a	n/a	n/a	n/a
1489979	PROB	n/a	LTP067	ltpFR	9	n/a	n/a	n/a	n/a	n/a	n/a	11	1	1	9	n/a	n/a	n/a	n/a	n/a
1491149	STOP	n/a	LTP067	ltpFR	9	n/a	n/a	n/a	n/a	n/a	n/a	n/a	n/a	n/a	n/a	n/a	n/a	n/a	n/a	n/a
1493501	WORD	wordpools/wasnorm_wordpool.txt	LTP067	ltpFR	9	7	1	PAINTER	1004	n/a	1	n/a	0	0	0	1	0.412841796875	0.57763671875	lower	../fonts/amplitud.ttf
1496507	START	n/a	LTP067	ltpFR	9	n/a	n/a	n/a	n/a	n/a	n/a	n/a	n/a	n/a	n/a	n/a	n/a	n/a	n/a	n/a
1497405	PROB	n/a	LTP067	ltpFR	9	n/a	n/a	n/a	n/a	n/a	n/a	15	4	5	6	n/a	n/a	n/a	n/a	n/a
1499478	PROB	n/a	LTP067	ltpFR	9	n/a	n/a	n/a	n/a	n/a	n/a	13	5	4	4	n/a	n/a	n/a	n/a	n/a
1501234	PROB	n/a	LTP067	ltpFR	9	n/a	n/a	n/a	n/a	n/a	n/a	13	1	7	5	n/a	n/a	n/a	n/a	n/a
1503028	STOP	n/a	LTP067	ltpFR	9	n/a	n/a	n/a	n/a	n/a	n/a	n/a	n/a	n/a	n/a	n/a	n/a	n/a	n/a	n/a
1505512	WORD	wordpools/wasnorm_wordpool.txt	LTP067	ltpFR	9	7	0	PIGMENT	1066	n/a	0	n/a	0	0	0	0	0.5869140625	0.422607421875	upper	../fonts/zerothre.ttf
1508518	START	n/a	LTP067	ltpFR	9	n/a	n/a	n/a	n/a	n/a	n/a	n/a	n/a	n/a	n/a	n/a	n/a	n/a	n/a	n/a
1509524	PROB	n/a	LTP067	ltpFR	9	n/a	n/a	n/a	n/a	n/a	n/a	16	5	8	3	n/a	n/a	n/a	n/a	n/a
1511046	PROB	n/a	LTP067	ltpFR	9	n/a	n/a	n/a	n/a	n/a	n/a	14	3	5	6	n/a	n/a	n/a	n/a	n/a
1512944	PROB	n/a	LTP067	ltpFR	9	n/a	n/a	n/a	n/a	n/a	n/a	16	5	8	3	n/a	n/a	n/a	n/a	n/a
1514377	PROB	n/a	LTP067	ltpFR	9	n/a	n/a	n/a	n/a	n/a	n/a	17	7	8	2	n/a	n/a	n/a	n/a	n/a
1515773	STOP	n/a	LTP067	ltpFR	9	n/a	n/a	n/a	n/a	n/a	n/a	n/a	n/a	n/a	n/a	n/a	n/a	n/a	n/a	n/a
1517673	WORD	wordpools/wasnorm_wordpool.txt	LTP067	ltpFR	9	7	0	RACCOON	1153	n/a	1	n/a	0	0	0	0	0.5869140625	0.422607421875	upper	../fonts/zerothre.ttf
1520678	START	n/a	LTP067	ltpFR	9	n/a	n/a	n/a	n/a	n/a	n/a	n/a	n/a	n/a	n/a	n/a	n/a	n/a	n/a	n/a
1521884	PROB	n/a	LTP067	ltpFR	9	n/a	n/a	n/a	n/a	n/a	n/a	24	8	9	7	n/a	n/a	n/a	n/a	n/a
1524847	PROB	n/a	LTP067	ltpFR	9	n/a	n/a	n/a	n/a	n/a	n/a	11	7	1	3	n/a	n/a	n/a	n/a	n/a
1526288	PROB	n/a	LTP067	ltpFR	9	n/a	n/a	n/a	n/a	n/a	n/a	11	3	2	6	n/a	n/a	n/a	n/a	n/a
1527820	STOP	n/a	LTP067	ltpFR	9	n/a	n/a	n/a	n/a	n/a	n/a	n/a	n/a	n/a	n/a	n/a	n/a	n/a	n/a	n/a
1529742	WORD	wordpools/wasnorm_wordpool.txt	LTP067	ltpFR	9	7	0	MOUSE	925	n/a	0	n/a	0	0	0	0	0.5869140625	0.422607421875	upper	../fonts/zerothre.ttf
1532748	START	n/a	LTP067	ltpFR	9	n/a	n/a	n/a	n/a	n/a	n/a	n/a	n/a	n/a	n/a	n/a	n/a	n/a	n/a	n/a
1533729	PROB	n/a	LTP067	ltpFR	9	n/a	n/a	n/a	n/a	n/a	n/a	11	1	8	2	n/a	n/a	n/a	n/a	n/a
1534960	PROB	n/a	LTP067	ltpFR	9	n/a	n/a	n/a	n/a	n/a	n/a	16	6	1	9	n/a	n/a	n/a	n/a	n/a
1536268	PROB	n/a	LTP067	ltpFR	9	n/a	n/a	n/a	n/a	n/a	n/a	17	7	6	4	n/a	n/a	n/a	n/a	n/a
1537915	PROB	n/a	LTP067	ltpFR	9	n/a	n/a	n/a	n/a	n/a	n/a	18	8	8	2	n/a	n/a	n/a	n/a	n/a
1539206	PROB	n/a	LTP067	ltpFR	9	n/a	n/a	n/a	n/a	n/a	n/a	16	7	5	4	n/a	n/a	n/a	n/a	n/a
1540589	STOP	n/a	LTP067	ltpFR	9	n/a	n/a	n/a	n/a	n/a	n/a	n/a	n/a	n/a	n/a	n/a	n/a	n/a	n/a	n/a
1541737	WORD	wordpools/wasnorm_wordpool.txt	LTP067	ltpFR	9	7	0	PENNY	1045	n/a	0	n/a	0	0	0	0	0.5869140625	0.422607421875	upper	../fonts/zerothre.ttf
1544742	START	n/a	LTP067	ltpFR	9	n/a	n/a	n/a	n/a	n/a	n/a	n/a	n/a	n/a	n/a	n/a	n/a	n/a	n/a	n/a
1545914	PROB	n/a	LTP067	ltpFR	9	n/a	n/a	n/a	n/a	n/a	n/a	13	1	7	5	n/a	n/a	n/a	n/a	n/a
1547496	PROB	n/a	LTP067	ltpFR	9	n/a	n/a	n/a	n/a	n/a	n/a	21	8	5	8	n/a	n/a	n/a	n/a	n/a
1549170	PROB	n/a	LTP067	ltpFR	9	n/a	n/a	n/a	n/a	n/a	n/a	22	4	9	9	n/a	n/a	n/a	n/a	n/a
1550585	PROB	n/a	LTP067	ltpFR	9	n/a	n/a	n/a	n/a	n/a	n/a	19	8	3	8	n/a	n/a	n/a	n/a	n/a
1552108	STOP	n/a	LTP067	ltpFR	9	n/a	n/a	n/a	n/a	n/a	n/a	n/a	n/a	n/a	n/a	n/a	n/a	n/a	n/a	n/a
1553689	WORD	wordpools/wasnorm_wordpool.txt	LTP067	ltpFR	9	7	1	RASH	1167	n/a	0	n/a	0	0	0	1	0.412841796875	0.57763671875	lower	../fonts/amplitud.ttf
1556695	START	n/a	LTP067	ltpFR	9	n/a	n/a	n/a	n/a	n/a	n/a	n/a	n/a	n/a	n/a	n/a	n/a	n/a	n/a	n/a
1557883	PROB	n/a	LTP067	ltpFR	9	n/a	n/a	n/a	n/a	n/a	n/a	14	2	6	6	n/a	n/a	n/a	n/a	n/a
1559931	PROB	n/a	LTP067	ltpFR	9	n/a	n/a	n/a	n/a	n/a	n/a	20	4	9	7	n/a	n/a	n/a	n/a	n/a
1562238	PROB	n/a	LTP067	ltpFR	9	n/a	n/a	n/a	n/a	n/a	n/a	14	7	1	6	n/a	n/a	n/a	n/a	n/a
1563717	STOP	n/a	LTP067	ltpFR	9	n/a	n/a	n/a	n/a	n/a	n/a	n/a	n/a	n/a	n/a	n/a	n/a	n/a	n/a	n/a
1565725	WORD	wordpools/wasnorm_wordpool.txt	LTP067	ltpFR	9	7	1	HORSE	719	n/a	1	n/a	0	0	0	1	0.412841796875	0.57763671875	lower	../fonts/amplitud.ttf
1568730	START	n/a	LTP067	ltpFR	9	n/a	n/a	n/a	n/a	n/a	n/a	n/a	n/a	n/a	n/a	n/a	n/a	n/a	n/a	n/a
1569770	PROB	n/a	LTP067	ltpFR	9	n/a	n/a	n/a	n/a	n/a	n/a	13	5	6	2	n/a	n/a	n/a	n/a	n/a
1571577	PROB	n/a	LTP067	ltpFR	9	n/a	n/a	n/a	n/a	n/a	n/a	18	8	2	8	n/a	n/a	n/a	n/a	n/a
1573166	PROB	n/a	LTP067	ltpFR	9	n/a	n/a	n/a	n/a	n/a	n/a	14	6	4	4	n/a	n/a	n/a	n/a	n/a
1574432	PROB	n/a	LTP067	ltpFR	9	n/a	n/a	n/a	n/a	n/a	n/a	15	9	1	5	n/a	n/a	n/a	n/a	n/a
1575565	STOP	n/a	LTP067	ltpFR	9	n/a	n/a	n/a	n/a	n/a	n/a	n/a	n/a	n/a	n/a	n/a	n/a	n/a	n/a	n/a
1577827	WORD	wordpools/wasnorm_wordpool.txt	LTP067	ltpFR	9	7	1	BILL	126	n/a	0	n/a	0	0	0	1	0.412841796875	0.57763671875	lower	../fonts/amplitud.ttf
1580832	START	n/a	LTP067	ltpFR	9	n/a	n/a	n/a	n/a	n/a	n/a	n/a	n/a	n/a	n/a	n/a	n/a	n/a	n/a	n/a
1581706	PROB	n/a	LTP067	ltpFR	9	n/a	n/a	n/a	n/a	n/a	n/a	15	5	2	8	n/a	n/a	n/a	n/a	n/a
1582854	PROB	n/a	LTP067	ltpFR	9	n/a	n/a	n/a	n/a	n/a	n/a	20	9	7	4	n/a	n/a	n/a	n/a	n/a
1585327	PROB	n/a	LTP067	ltpFR	9	n/a	n/a	n/a	n/a	n/a	n/a	14	7	6	1	n/a	n/a	n/a	n/a	n/a
1586667	PROB	n/a	LTP067	ltpFR	9	n/a	n/a	n/a	n/a	n/a	n/a	11	1	1	9	n/a	n/a	n/a	n/a	n/a
1587645	STOP	n/a	LTP067	ltpFR	9	n/a	n/a	n/a	n/a	n/a	n/a	n/a	n/a	n/a	n/a	n/a	n/a	n/a	n/a	n/a
1590638	REC_START	n/a	LTP067	ltpFR	9	7	n/a	n/a	n/a	n/a	n/a	n/a	0	0	0	n/a	n/a	n/a	n/a	n/a
1592285	REC_WORD	wordpools/wasnorm_wordpool.txt	LTP067	ltpFR	9	7	1	BILL	126	n/a	0	n/a	0	0	0	n/a	n/a	n/a	n/a	n/a
1592782	REC_WORD	wordpools/wasnorm_wordpool.txt	LTP067	ltpFR	9	7	1	RASH	1167	n/a	0	n/a	0	0	0	n/a	n/a	n/a	n/a	n/a
1593534	REC_WORD	wordpools/wasnorm_wordpool.txt	LTP067	ltpFR	9	7	0	PENNY	1045	n/a	0	n/a	0	0	0	n/a	n/a	n/a	n/a	n/a
1597727	REC_WORD	wordpools/wasnorm_wordpool.txt	LTP067	ltpFR	9	7	1	EAR	513	n/a	0	n/a	0	0	0	n/a	n/a	n/a	n/a	n/a
1602631	REC_WORD	wordpools/wasnorm_wordpool.txt	LTP067	ltpFR	9	7	0	REFRIGERATOR	1179	n/a	1	n/a	0	0	0	n/a	n/a	n/a	n/a	n/a
1603473	REC_WORD	wordpools/wasnorm_wordpool.txt	LTP067	ltpFR	9	7	0	TRAY	1498	n/a	1	n/a	0	0	0	n/a	n/a	n/a	n/a	n/a
1605583	REC_WORD	wordpools/wasnorm_wordpool.txt	LTP067	ltpFR	9	7	1	CUPBOARD	425	n/a	0	n/a	0	0	0	n/a	n/a	n/a	n/a	n/a
1608041	REC_WORD	wordpools/wasnorm_wordpool.txt	LTP067	ltpFR	9	7	0	RACCOON	1153	n/a	1	n/a	0	0	0	n/a	n/a	n/a	n/a	n/a
1608851	REC_WORD	wordpools/wasnorm_wordpool.txt	LTP067	ltpFR	9	7	0	POSSUM	1112	n/a	1	n/a	0	0	0	n/a	n/a	n/a	n/a	n/a
1609491	REC_WORD	wordpools/wasnorm_wordpool.txt	LTP067	ltpFR	9	7	0	MOUSE	925	n/a	0	n/a	0	0	0	n/a	n/a	n/a	n/a	n/a
1647219	REC_WORD_VV	wordpools/wasnorm_wordpool.txt	LTP067	ltpFR	9	7	n/a	<>	-1	n/a	n/a	n/a	0	0	0	n/a	n/a	n/a	n/a	n/a
1648219	REC_WORD_VV	wordpools/wasnorm_wordpool.txt	LTP067	ltpFR	9	7	n/a	<>	-1	n/a	n/a	n/a	0	0	0	n/a	n/a	n/a	n/a	n/a
1649219	REC_WORD_VV	wordpools/wasnorm_wordpool.txt	LTP067	ltpFR	9	7	n/a	<>	-1	n/a	n/a	n/a	0	0	0	n/a	n/a	n/a	n/a	n/a
1650219	REC_WORD_VV	wordpools/wasnorm_wordpool.txt	LTP067	ltpFR	9	7	n/a	<>	-1	n/a	n/a	n/a	0	0	0	n/a	n/a	n/a	n/a	n/a
1651219	REC_WORD_VV	wordpools/wasnorm_wordpool.txt	LTP067	ltpFR	9	7	n/a	<>	-1	n/a	n/a	n/a	0	0	0	n/a	n/a	n/a	n/a	n/a
1652219	REC_WORD_VV	wordpools/wasnorm_wordpool.txt	LTP067	ltpFR	9	7	n/a	<>	-1	n/a	n/a	n/a	0	0	0	n/a	n/a	n/a	n/a	n/a
1653219	REC_WORD_VV	wordpools/wasnorm_wordpool.txt	LTP067	ltpFR	9	7	n/a	<>	-1	n/a	n/a	n/a	0	0	0	n/a	n/a	n/a	n/a	n/a
1657892	REC_WORD_VV	wordpools/wasnorm_wordpool.txt	LTP067	ltpFR	9	7	n/a	<>	-1	n/a	n/a	n/a	0	0	0	n/a	n/a	n/a	n/a	n/a
1667557	START	n/a	LTP067	ltpFR	9	n/a	n/a	n/a	n/a	n/a	n/a	n/a	n/a	n/a	n/a	n/a	n/a	n/a	n/a	n/a
1669062	PROB	n/a	LTP067	ltpFR	9	n/a	n/a	n/a	n/a	n/a	n/a	19	9	7	3	n/a	n/a	n/a	n/a	n/a
1670901	PROB	n/a	LTP067	ltpFR	9	n/a	n/a	n/a	n/a	n/a	n/a	18	5	9	4	n/a	n/a	n/a	n/a	n/a
1672700	PROB	n/a	LTP067	ltpFR	9	n/a	n/a	n/a	n/a	n/a	n/a	16	7	4	5	n/a	n/a	n/a	n/a	n/a
1674165	PROB	n/a	LTP067	ltpFR	9	n/a	n/a	n/a	n/a	n/a	n/a	10	3	3	4	n/a	n/a	n/a	n/a	n/a
1675862	PROB	n/a	LTP067	ltpFR	9	n/a	n/a	n/a	n/a	n/a	n/a	14	4	2	8	n/a	n/a	n/a	n/a	n/a
1677345	PROB	n/a	LTP067	ltpFR	9	n/a	n/a	n/a	n/a	n/a	n/a	15	4	2	9	n/a	n/a	n/a	n/a	n/a
1678908	PROB	n/a	LTP067	ltpFR	9	n/a	n/a	n/a	n/a	n/a	n/a	17	7	8	2	n/a	n/a	n/a	n/a	n/a
1680216	PROB	n/a	LTP067	ltpFR	9	n/a	n/a	n/a	n/a	n/a	n/a	14	3	3	8	n/a	n/a	n/a	n/a	n/a
1682429	STOP	n/a	LTP067	ltpFR	9	n/a	n/a	n/a	n/a	n/a	n/a	n/a	n/a	n/a	n/a	n/a	n/a	n/a	n/a	n/a
1684436	WORD	wordpools/wasnorm_wordpool.txt	LTP067	ltpFR	9	8	0	TOOL	1480	n/a	0	n/a	0	0	0	0	0.5869140625	0.422607421875	upper	../fonts/zerothre.ttf
1687442	START	n/a	LTP067	ltpFR	9	n/a	n/a	n/a	n/a	n/a	n/a	n/a	n/a	n/a	n/a	n/a	n/a	n/a	n/a	n/a
1688598	PROB	n/a	LTP067	ltpFR	9	n/a	n/a	n/a	n/a	n/a	n/a	12	7	4	1	n/a	n/a	n/a	n/a	n/a
1690221	PROB	n/a	LTP067	ltpFR	9	n/a	n/a	n/a	n/a	n/a	n/a	8	4	3	1	n/a	n/a	n/a	n/a	n/a
1692319	PROB	n/a	LTP067	ltpFR	9	n/a	n/a	n/a	n/a	n/a	n/a	19	9	1	9	n/a	n/a	n/a	n/a	n/a
1693484	PROB	n/a	LTP067	ltpFR	9	n/a	n/a	n/a	n/a	n/a	n/a	13	6	6	1	n/a	n/a	n/a	n/a	n/a
1694666	PROB	n/a	LTP067	ltpFR	9	n/a	n/a	n/a	n/a	n/a	n/a	12	3	5	4	n/a	n/a	n/a	n/a	n/a
1696639	PROB	n/a	LTP067	ltpFR	9	n/a	n/a	n/a	n/a	n/a	n/a	13	5	7	1	n/a	n/a	n/a	n/a	n/a
1698462	PROB	n/a	LTP067	ltpFR	9	n/a	n/a	n/a	n/a	n/a	n/a	17	7	9	1	n/a	n/a	n/a	n/a	n/a
1699652	PROB	n/a	LTP067	ltpFR	9	n/a	n/a	n/a	n/a	n/a	n/a	20	3	9	8	n/a	n/a	n/a	n/a	n/a
1702573	STOP	n/a	LTP067	ltpFR	9	n/a	n/a	n/a	n/a	n/a	n/a	n/a	n/a	n/a	n/a	n/a	n/a	n/a	n/a	n/a
1704571	WORD	wordpools/wasnorm_wordpool.txt	LTP067	ltpFR	9	8	0	RICE	1190	n/a	0	n/a	0	0	0	0	0.5869140625	0.422607421875	upper	../fonts/zerothre.ttf
1707576	START	n/a	LTP067	ltpFR	9	n/a	n/a	n/a	n/a	n/a	n/a	n/a	n/a	n/a	n/a	n/a	n/a	n/a	n/a	n/a
1708516	PROB	n/a	LTP067	ltpFR	9	n/a	n/a	n/a	n/a	n/a	n/a	19	5	8	6	n/a	n/a	n/a	n/a	n/a
1710348	PROB	n/a	LTP067	ltpFR	9	n/a	n/a	n/a	n/a	n/a	n/a	18	4	8	6	n/a	n/a	n/a	n/a	n/a
1711912	PROB	n/a	LTP067	ltpFR	9	n/a	n/a	n/a	n/a	n/a	n/a	13	7	1	8	n/a	n/a	n/a	n/a	n/a
1713336	PROB	n/a	LTP067	ltpFR	9	n/a	n/a	n/a	n/a	n/a	n/a	25	9	8	8	n/a	n/a	n/a	n/a	n/a
1716665	PROB	n/a	LTP067	ltpFR	9	n/a	n/a	n/a	n/a	n/a	n/a	17	7	1	9	n/a	n/a	n/a	n/a	n/a
1718029	PROB	n/a	LTP067	ltpFR	9	n/a	n/a	n/a	n/a	n/a	n/a	17	5	5	7	n/a	n/a	n/a	n/a	n/a
1719321	PROB	n/a	LTP067	ltpFR	9	n/a	n/a	n/a	n/a	n/a	n/a	12	5	1	6	n/a	n/a	n/a	n/a	n/a
1721468	PROB	n/a	LTP067	ltpFR	9	n/a	n/a	n/a	n/a	n/a	n/a	11	1	1	9	n/a	n/a	n/a	n/a	n/a
1722517	STOP	n/a	LTP067	ltpFR	9	n/a	n/a	n/a	n/a	n/a	n/a	n/a	n/a	n/a	n/a	n/a	n/a	n/a	n/a	n/a
1724564	WORD	wordpools/wasnorm_wordpool.txt	LTP067	ltpFR	9	8	0	SYRINGE	1424	n/a	0	n/a	0	0	0	0	0.5869140625	0.422607421875	upper	../fonts/zerothre.ttf
1727570	START	n/a	LTP067	ltpFR	9	n/a	n/a	n/a	n/a	n/a	n/a	n/a	n/a	n/a	n/a	n/a	n/a	n/a	n/a	n/a
1728402	PROB	n/a	LTP067	ltpFR	9	n/a	n/a	n/a	n/a	n/a	n/a	19	6	7	6	n/a	n/a	n/a	n/a	n/a
1730774	PROB	n/a	LTP067	ltpFR	9	n/a	n/a	n/a	n/a	n/a	n/a	14	5	7	2	n/a	n/a	n/a	n/a	n/a
1732497	PROB	n/a	LTP067	ltpFR	9	n/a	n/a	n/a	n/a	n/a	n/a	16	9	1	6	n/a	n/a	n/a	n/a	n/a
1733828	PROB	n/a	LTP067	ltpFR	9	n/a	n/a	n/a	n/a	n/a	n/a	10	1	2	7	n/a	n/a	n/a	n/a	n/a
1735126	PROB	n/a	LTP067	ltpFR	9	n/a	n/a	n/a	n/a	n/a	n/a	17	6	4	7	n/a	n/a	n/a	n/a	n/a
1737065	PROB	n/a	LTP067	ltpFR	9	n/a	n/a	n/a	n/a	n/a	n/a	23	7	7	9	n/a	n/a	n/a	n/a	n/a
1738996	PROB	n/a	LTP067	ltpFR	9	n/a	n/a	n/a	n/a	n/a	n/a	16	1	8	7	n/a	n/a	n/a	n/a	n/a
1740720	PROB	n/a	LTP067	ltpFR	9	n/a	n/a	n/a	n/a	n/a	n/a	12	4	1	7	n/a	n/a	n/a	n/a	n/a
1742813	STOP	n/a	LTP067	ltpFR	9	n/a	n/a	n/a	n/a	n/a	n/a	n/a	n/a	n/a	n/a	n/a	n/a	n/a	n/a	n/a
1744441	WORD	wordpools/wasnorm_wordpool.txt	LTP067	ltpFR	9	8	0	HAY	693	n/a	0	n/a	0	0	0	0	0.5869140625	0.422607421875	upper	../fonts/zerothre.ttf
1747446	START	n/a	LTP067	ltpFR	9	n/a	n/a	n/a	n/a	n/a	n/a	n/a	n/a	n/a	n/a	n/a	n/a	n/a	n/a	n/a
1748337	PROB	n/a	LTP067	ltpFR	9	n/a	n/a	n/a	n/a	n/a	n/a	15	6	7	2	n/a	n/a	n/a	n/a	n/a
1749834	PROB	n/a	LTP067	ltpFR	9	n/a	n/a	n/a	n/a	n/a	n/a	17	9	1	7	n/a	n/a	n/a	n/a	n/a
1751066	PROB	n/a	LTP067	ltpFR	9	n/a	n/a	n/a	n/a	n/a	n/a	16	8	7	1	n/a	n/a	n/a	n/a	n/a
1753339	PROB	n/a	LTP067	ltpFR	9	n/a	n/a	n/a	n/a	n/a	n/a	11	1	2	8	n/a	n/a	n/a	n/a	n/a
1754629	PROB	n/a	LTP067	ltpFR	9	n/a	n/a	n/a	n/a	n/a	n/a	19	8	2	9	n/a	n/a	n/a	n/a	n/a
1756126	PROB	n/a	LTP067	ltpFR	9	n/a	n/a	n/a	n/a	n/a	n/a	23	8	9	6	n/a	n/a	n/a	n/a	n/a
1760105	PROB	n/a	LTP067	ltpFR	9	n/a	n/a	n/a	n/a	n/a	n/a	19	7	6	6	n/a	n/a	n/a	n/a	n/a
1763445	STOP	n/a	LTP067	ltpFR	9	n/a	n/a	n/a	n/a	n/a	n/a	n/a	n/a	n/a	n/a	n/a	n/a	n/a	n/a	n/a
1764451	WORD	wordpools/wasnorm_wordpool.txt	LTP067	ltpFR	9	8	0	RESORT	1186	n/a	1	n/a	0	0	0	0	0.5869140625	0.422607421875	upper	../fonts/zerothre.ttf
1767456	START	n/a	LTP067	ltpFR	9	n/a	n/a	n/a	n/a	n/a	n/a	n/a	n/a	n/a	n/a	n/a	n/a	n/a	n/a	n/a
1768538	PROB	n/a	LTP067	ltpFR	9	n/a	n/a	n/a	n/a	n/a	n/a	18	5	4	9	n/a	n/a	n/a	n/a	n/a
1770826	PROB	n/a	LTP067	ltpFR	9	n/a	n/a	n/a	n/a	n/a	n/a	5	2	1	2	n/a	n/a	n/a	n/a	n/a
1772267	PROB	n/a	LTP067	ltpFR	9	n/a	n/a	n/a	n/a	n/a	n/a	19	5	7	7	n/a	n/a	n/a	n/a	n/a
1773607	PROB	n/a	LTP067	ltpFR	9	n/a	n/a	n/a	n/a	n/a	n/a	10	2	4	4	n/a	n/a	n/a	n/a	n/a
1775129	PROB	n/a	LTP067	ltpFR	9	n/a	n/a	n/a	n/a	n/a	n/a	18	8	4	6	n/a	n/a	n/a	n/a	n/a
1776687	PROB	n/a	LTP067	ltpFR	9	n/a	n/a	n/a	n/a	n/a	n/a	10	7	1	2	n/a	n/a	n/a	n/a	n/a
1778202	PROB	n/a	LTP067	ltpFR	9	n/a	n/a	n/a	n/a	n/a	n/a	10	4	1	5	n/a	n/a	n/a	n/a	n/a
1779899	PROB	n/a	LTP067	ltpFR	9	n/a	n/a	n/a	n/a	n/a	n/a	21	9	5	7	n/a	n/a	n/a	n/a	n/a
1782437	STOP	n/a	LTP067	ltpFR	9	n/a	n/a	n/a	n/a	n/a	n/a	n/a	n/a	n/a	n/a	n/a	n/a	n/a	n/a	n/a
1784394	WORD	wordpools/wasnorm_wordpool.txt	LTP067	ltpFR	9	8	0	GARLIC	624	n/a	0	n/a	0	0	0	0	0.5869140625	0.422607421875	upper	../fonts/zerothre.ttf
1787400	START	n/a	LTP067	ltpFR	9	n/a	n/a	n/a	n/a	n/a	n/a	n/a	n/a	n/a	n/a	n/a	n/a	n/a	n/a	n/a
1788381	PROB	n/a	LTP067	ltpFR	9	n/a	n/a	n/a	n/a	n/a	n/a	10	3	5	2	n/a	n/a	n/a	n/a	n/a
1790028	PROB	n/a	LTP067	ltpFR	9	n/a	n/a	n/a	n/a	n/a	n/a	6	2	3	1	n/a	n/a	n/a	n/a	n/a
1792318	PROB	n/a	LTP067	ltpFR	9	n/a	n/a	n/a	n/a	n/a	n/a	15	2	8	5	n/a	n/a	n/a	n/a	n/a
1793783	PROB	n/a	LTP067	ltpFR	9	n/a	n/a	n/a	n/a	n/a	n/a	15	6	2	7	n/a	n/a	n/a	n/a	n/a
1795822	PROB	n/a	LTP067	ltpFR	9	n/a	n/a	n/a	n/a	n/a	n/a	14	2	7	5	n/a	n/a	n/a	n/a	n/a
1797671	PROB	n/a	LTP067	ltpFR	9	n/a	n/a	n/a	n/a	n/a	n/a	5	2	2	1	n/a	n/a	n/a	n/a	n/a
1799344	PROB	n/a	LTP067	ltpFR	9	n/a	n/a	n/a	n/a	n/a	n/a	8	3	1	4	n/a	n/a	n/a	n/a	n/a
1800974	PROB	n/a	LTP067	ltpFR	9	n/a	n/a	n/a	n/a	n/a	n/a	3	1	1	1	n/a	n/a	n/a	n/a	n/a
1802092	STOP	n/a	LTP067	ltpFR	9	n/a	n/a	n/a	n/a	n/a	n/a	n/a	n/a	n/a	n/a	n/a	n/a	n/a	n/a	n/a
1804254	WORD	wordpools/wasnorm_wordpool.txt	LTP067	ltpFR	9	8	0	HOME	712	n/a	1	n/a	0	0	0	0	0.5869140625	0.422607421875	upper	../fonts/zerothre.ttf
1807260	START	n/a	LTP067	ltpFR	9	n/a	n/a	n/a	n/a	n/a	n/a	n/a	n/a	n/a	n/a	n/a	n/a	n/a	n/a	n/a
1808275	PROB	n/a	LTP067	ltpFR	9	n/a	n/a	n/a	n/a	n/a	n/a	8	1	4	3	n/a	n/a	n/a	n/a	n/a
1809781	PROB	n/a	LTP067	ltpFR	9	n/a	n/a	n/a	n/a	n/a	n/a	16	4	6	6	n/a	n/a	n/a	n/a	n/a
1812312	PROB	n/a	LTP067	ltpFR	9	n/a	n/a	n/a	n/a	n/a	n/a	20	7	6	7	n/a	n/a	n/a	n/a	n/a
1815508	PROB	n/a	LTP067	ltpFR	9	n/a	n/a	n/a	n/a	n/a	n/a	16	8	1	7	n/a	n/a	n/a	n/a	n/a
1816782	PROB	n/a	LTP067	ltpFR	9	n/a	n/a	n/a	n/a	n/a	n/a	20	5	7	8	n/a	n/a	n/a	n/a	n/a
1818280	PROB	n/a	LTP067	ltpFR	9	n/a	n/a	n/a	n/a	n/a	n/a	13	4	8	1	n/a	n/a	n/a	n/a	n/a
1819636	PROB	n/a	LTP067	ltpFR	9	n/a	n/a	n/a	n/a	n/a	n/a	17	2	7	8	n/a	n/a	n/a	n/a	n/a
1823260	STOP	n/a	LTP067	ltpFR	9	n/a	n/a	n/a	n/a	n/a	n/a	n/a	n/a	n/a	n/a	n/a	n/a	n/a	n/a	n/a
1824289	WORD	wordpools/wasnorm_wordpool.txt	LTP067	ltpFR	9	8	0	VILLAGE	1566	n/a	1	n/a	0	0	0	0	0.5869140625	0.422607421875	upper	../fonts/zerothre.ttf
1827295	START	n/a	LTP067	ltpFR	9	n/a	n/a	n/a	n/a	n/a	n/a	n/a	n/a	n/a	n/a	n/a	n/a	n/a	n/a	n/a
1828101	PROB	n/a	LTP067	ltpFR	9	n/a	n/a	n/a	n/a	n/a	n/a	17	8	7	2	n/a	n/a	n/a	n/a	n/a
1829849	PROB	n/a	LTP067	ltpFR	9	n/a	n/a	n/a	n/a	n/a	n/a	18	5	8	5	n/a	n/a	n/a	n/a	n/a
1831681	PROB	n/a	LTP067	ltpFR	9	n/a	n/a	n/a	n/a	n/a	n/a	9	1	6	2	n/a	n/a	n/a	n/a	n/a
1832945	PROB	n/a	LTP067	ltpFR	9	n/a	n/a	n/a	n/a	n/a	n/a	8	1	1	6	n/a	n/a	n/a	n/a	n/a
1834052	PROB	n/a	LTP067	ltpFR	9	n/a	n/a	n/a	n/a	n/a	n/a	13	1	7	4	n/a	n/a	n/a	n/a	n/a
1836267	PROB	n/a	LTP067	ltpFR	9	n/a	n/a	n/a	n/a	n/a	n/a	21	6	6	9	n/a	n/a	n/a	n/a	n/a
1838198	PROB	n/a	LTP067	ltpFR	9	n/a	n/a	n/a	n/a	n/a	n/a	7	1	1	5	n/a	n/a	n/a	n/a	n/a
1839405	PROB	n/a	LTP067	ltpFR	9	n/a	n/a	n/a	n/a	n/a	n/a	14	2	9	3	n/a	n/a	n/a	n/a	n/a
1841060	PROB	n/a	LTP067	ltpFR	9	n/a	n/a	n/a	n/a	n/a	n/a	15	6	7	2	n/a	n/a	n/a	n/a	n/a
1842685	STOP	n/a	LTP067	ltpFR	9	n/a	n/a	n/a	n/a	n/a	n/a	n/a	n/a	n/a	n/a	n/a	n/a	n/a	n/a	n/a
1844474	WORD	wordpools/wasnorm_wordpool.txt	LTP067	ltpFR	9	8	0	KNOT	788	n/a	0	n/a	0	0	0	0	0.5869140625	0.422607421875	upper	../fonts/zerothre.ttf
1847479	START	n/a	LTP067	ltpFR	9	n/a	n/a	n/a	n/a	n/a	n/a	n/a	n/a	n/a	n/a	n/a	n/a	n/a	n/a	n/a
1848628	PROB	n/a	LTP067	ltpFR	9	n/a	n/a	n/a	n/a	n/a	n/a	7	5	1	1	n/a	n/a	n/a	n/a	n/a
1849892	PROB	n/a	LTP067	ltpFR	9	n/a	n/a	n/a	n/a	n/a	n/a	12	2	5	5	n/a	n/a	n/a	n/a	n/a
1851208	PROB	n/a	LTP067	ltpFR	9	n/a	n/a	n/a	n/a	n/a	n/a	9	1	7	1	n/a	n/a	n/a	n/a	n/a
1852523	PROB	n/a	LTP067	ltpFR	9	n/a	n/a	n/a	n/a	n/a	n/a	16	4	7	5	n/a	n/a	n/a	n/a	n/a
1854496	PROB	n/a	LTP067	ltpFR	9	n/a	n/a	n/a	n/a	n/a	n/a	6	2	2	2	n/a	n/a	n/a	n/a	n/a
1855644	PROB	n/a	LTP067	ltpFR	9	n/a	n/a	n/a	n/a	n/a	n/a	14	5	8	1	n/a	n/a	n/a	n/a	n/a
1857426	PROB	n/a	LTP067	ltpFR	9	n/a	n/a	n/a	n/a	n/a	n/a	18	8	6	4	n/a	n/a	n/a	n/a	n/a
1859174	PROB	n/a	LTP067	ltpFR	9	n/a	n/a	n/a	n/a	n/a	n/a	7	2	1	4	n/a	n/a	n/a	n/a	n/a
1860946	PROB	n/a	LTP067	ltpFR	9	n/a	n/a	n/a	n/a	n/a	n/a	18	2	7	9	n/a	n/a	n/a	n/a	n/a
1862605	STOP	n/a	LTP067	ltpFR	9	n/a	n/a	n/a	n/a	n/a	n/a	n/a	n/a	n/a	n/a	n/a	n/a	n/a	n/a	n/a
1864418	WORD	wordpools/wasnorm_wordpool.txt	LTP067	ltpFR	9	8	0	VAGRANT	1544	n/a	1	n/a	0	0	0	0	0.5869140625	0.422607421875	upper	../fonts/zerothre.ttf
1867423	START	n/a	LTP067	ltpFR	9	n/a	n/a	n/a	n/a	n/a	n/a	n/a	n/a	n/a	n/a	n/a	n/a	n/a	n/a	n/a
1868629	PROB	n/a	LTP067	ltpFR	9	n/a	n/a	n/a	n/a	n/a	n/a	18	7	6	5	n/a	n/a	n/a	n/a	n/a
1870093	PROB	n/a	LTP067	ltpFR	9	n/a	n/a	n/a	n/a	n/a	n/a	14	5	1	8	n/a	n/a	n/a	n/a	n/a
1871684	PROB	n/a	LTP067	ltpFR	9	n/a	n/a	n/a	n/a	n/a	n/a	12	3	8	1	n/a	n/a	n/a	n/a	n/a
1873141	PROB	n/a	LTP067	ltpFR	9	n/a	n/a	n/a	n/a	n/a	n/a	17	8	5	4	n/a	n/a	n/a	n/a	n/a
1875121	PROB	n/a	LTP067	ltpFR	9	n/a	n/a	n/a	n/a	n/a	n/a	6	2	2	2	n/a	n/a	n/a	n/a	n/a
1876011	PROB	n/a	LTP067	ltpFR	9	n/a	n/a	n/a	n/a	n/a	n/a	19	5	5	9	n/a	n/a	n/a	n/a	n/a
1877352	PROB	n/a	LTP067	ltpFR	9	n/a	n/a	n/a	n/a	n/a	n/a	23	7	9	9	n/a	n/a	n/a	n/a	n/a
1878941	PROB	n/a	LTP067	ltpFR	9	n/a	n/a	n/a	n/a	n/a	n/a	12	8	3	1	n/a	n/a	n/a	n/a	n/a
1880732	PROB	n/a	LTP067	ltpFR	9	n/a	n/a	n/a	n/a	n/a	n/a	15	5	4	6	n/a	n/a	n/a	n/a	n/a
1882237	STOP	n/a	LTP067	ltpFR	9	n/a	n/a	n/a	n/a	n/a	n/a	n/a	n/a	n/a	n/a	n/a	n/a	n/a	n/a	n/a
1884244	WORD	wordpools/wasnorm_wordpool.txt	LTP067	ltpFR	9	8	0	CHISEL	305	n/a	0	n/a	0	0	0	0	0.5869140625	0.422607421875	upper	../fonts/zerothre.ttf
1887250	START	n/a	LTP067	ltpFR	9	n/a	n/a	n/a	n/a	n/a	n/a	n/a	n/a	n/a	n/a	n/a	n/a	n/a	n/a	n/a
1888306	PROB	n/a	LTP067	ltpFR	9	n/a	n/a	n/a	n/a	n/a	n/a	13	7	5	1	n/a	n/a	n/a	n/a	n/a
1889962	PROB	n/a	LTP067	ltpFR	9	n/a	n/a	n/a	n/a	n/a	n/a	21	8	7	8	n/a	n/a	n/a	n/a	n/a
1893151	PROB	n/a	LTP067	ltpFR	9	n/a	n/a	n/a	n/a	n/a	n/a	14	4	5	5	n/a	n/a	n/a	n/a	n/a
1895390	PROB	n/a	LTP067	ltpFR	9	n/a	n/a	n/a	n/a	n/a	n/a	18	6	6	6	n/a	n/a	n/a	n/a	n/a
1896696	PROB	n/a	LTP067	ltpFR	9	n/a	n/a	n/a	n/a	n/a	n/a	13	5	6	2	n/a	n/a	n/a	n/a	n/a
1898386	PROB	n/a	LTP067	ltpFR	9	n/a	n/a	n/a	n/a	n/a	n/a	12	3	1	8	n/a	n/a	n/a	n/a	n/a
1900151	PROB	n/a	LTP067	ltpFR	9	n/a	n/a	n/a	n/a	n/a	n/a	14	7	5	2	n/a	n/a	n/a	n/a	n/a
1902124	STOP	n/a	LTP067	ltpFR	9	n/a	n/a	n/a	n/a	n/a	n/a	n/a	n/a	n/a	n/a	n/a	n/a	n/a	n/a	n/a
1904229	WORD	wordpools/wasnorm_wordpool.txt	LTP067	ltpFR	9	8	0	FARM	552	n/a	1	n/a	0	0	0	0	0.5869140625	0.422607421875	upper	../fonts/zerothre.ttf
1907235	START	n/a	LTP067	ltpFR	9	n/a	n/a	n/a	n/a	n/a	n/a	n/a	n/a	n/a	n/a	n/a	n/a	n/a	n/a	n/a
1908275	PROB	n/a	LTP067	ltpFR	9	n/a	n/a	n/a	n/a	n/a	n/a	12	7	3	2	n/a	n/a	n/a	n/a	n/a
1909723	PROB	n/a	LTP067	ltpFR	9	n/a	n/a	n/a	n/a	n/a	n/a	14	2	3	9	n/a	n/a	n/a	n/a	n/a
1911844	PROB	n/a	LTP067	ltpFR	9	n/a	n/a	n/a	n/a	n/a	n/a	15	5	7	3	n/a	n/a	n/a	n/a	n/a
1913235	PROB	n/a	LTP067	ltpFR	9	n/a	n/a	n/a	n/a	n/a	n/a	21	8	5	8	n/a	n/a	n/a	n/a	n/a
1915007	PROB	n/a	LTP067	ltpFR	9	n/a	n/a	n/a	n/a	n/a	n/a	12	2	4	6	n/a	n/a	n/a	n/a	n/a
1916581	PROB	n/a	LTP067	ltpFR	9	n/a	n/a	n/a	n/a	n/a	n/a	13	3	6	4	n/a	n/a	n/a	n/a	n/a
1918230	PROB	n/a	LTP067	ltpFR	9	n/a	n/a	n/a	n/a	n/a	n/a	13	3	3	7	n/a	n/a	n/a	n/a	n/a
1919670	PROB	n/a	LTP067	ltpFR	9	n/a	n/a	n/a	n/a	n/a	n/a	18	6	5	7	n/a	n/a	n/a	n/a	n/a
1923235	STOP	n/a	LTP067	ltpFR	9	n/a	n/a	n/a	n/a	n/a	n/a	n/a	n/a	n/a	n/a	n/a	n/a	n/a	n/a	n/a
1924281	WORD	wordpools/wasnorm_wordpool.txt	LTP067	ltpFR	9	8	0	SCREEN	1253	n/a	1	n/a	0	0	0	0	0.5869140625	0.422607421875	upper	../fonts/zerothre.ttf
1927286	START	n/a	LTP067	ltpFR	9	n/a	n/a	n/a	n/a	n/a	n/a	n/a	n/a	n/a	n/a	n/a	n/a	n/a	n/a	n/a
1928326	PROB	n/a	LTP067	ltpFR	9	n/a	n/a	n/a	n/a	n/a	n/a	19	7	7	5	n/a	n/a	n/a	n/a	n/a
1930141	PROB	n/a	LTP067	ltpFR	9	n/a	n/a	n/a	n/a	n/a	n/a	6	1	2	3	n/a	n/a	n/a	n/a	n/a
1931656	PROB	n/a	LTP067	ltpFR	9	n/a	n/a	n/a	n/a	n/a	n/a	16	3	8	5	n/a	n/a	n/a	n/a	n/a
1932961	PROB	n/a	LTP067	ltpFR	9	n/a	n/a	n/a	n/a	n/a	n/a	12	4	7	1	n/a	n/a	n/a	n/a	n/a
1935051	PROB	n/a	LTP067	ltpFR	9	n/a	n/a	n/a	n/a	n/a	n/a	17	9	4	4	n/a	n/a	n/a	n/a	n/a
1937365	PROB	n/a	LTP067	ltpFR	9	n/a	n/a	n/a	n/a	n/a	n/a	14	2	8	4	n/a	n/a	n/a	n/a	n/a
1938904	PROB	n/a	LTP067	ltpFR	9	n/a	n/a	n/a	n/a	n/a	n/a	22	8	6	8	n/a	n/a	n/a	n/a	n/a
1943286	STOP	n/a	LTP067	ltpFR	9	n/a	n/a	n/a	n/a	n/a	n/a	n/a	n/a	n/a	n/a	n/a	n/a	n/a	n/a	n/a
1944349	WORD	wordpools/wasnorm_wordpool.txt	LTP067	ltpFR	9	8	0	PUDDLE	1140	n/a	1	n/a	0	0	0	0	0.5869140625	0.422607421875	upper	../fonts/zerothre.ttf
1947354	START	n/a	LTP067	ltpFR	9	n/a	n/a	n/a	n/a	n/a	n/a	n/a	n/a	n/a	n/a	n/a	n/a	n/a	n/a	n/a
1948319	PROB	n/a	LTP067	ltpFR	9	n/a	n/a	n/a	n/a	n/a	n/a	11	1	3	7	n/a	n/a	n/a	n/a	n/a
1949426	PROB	n/a	LTP067	ltpFR	9	n/a	n/a	n/a	n/a	n/a	n/a	15	6	8	1	n/a	n/a	n/a	n/a	n/a
1950840	PROB	n/a	LTP067	ltpFR	9	n/a	n/a	n/a	n/a	n/a	n/a	18	2	7	9	n/a	n/a	n/a	n/a	n/a
1952698	PROB	n/a	LTP067	ltpFR	9	n/a	n/a	n/a	n/a	n/a	n/a	12	6	4	2	n/a	n/a	n/a	n/a	n/a
1953987	PROB	n/a	LTP067	ltpFR	9	n/a	n/a	n/a	n/a	n/a	n/a	16	5	2	9	n/a	n/a	n/a	n/a	n/a
1955636	PROB	n/a	LTP067	ltpFR	9	n/a	n/a	n/a	n/a	n/a	n/a	19	9	2	8	n/a	n/a	n/a	n/a	n/a
1957865	PROB	n/a	LTP067	ltpFR	9	n/a	n/a	n/a	n/a	n/a	n/a	13	2	2	9	n/a	n/a	n/a	n/a	n/a
1960130	PROB	n/a	LTP067	ltpFR	9	n/a	n/a	n/a	n/a	n/a	n/a	13	3	8	2	n/a	n/a	n/a	n/a	n/a
1963353	STOP	n/a	LTP067	ltpFR	9	n/a	n/a	n/a	n/a	n/a	n/a	n/a	n/a	n/a	n/a	n/a	n/a	n/a	n/a	n/a
1964292	WORD	wordpools/wasnorm_wordpool.txt	LTP067	ltpFR	9	8	0	FAUCET	555	n/a	0	n/a	0	0	0	0	0.5869140625	0.422607421875	upper	../fonts/zerothre.ttf
1967298	START	n/a	LTP067	ltpFR	9	n/a	n/a	n/a	n/a	n/a	n/a	n/a	n/a	n/a	n/a	n/a	n/a	n/a	n/a	n/a
1968288	PROB	n/a	LTP067	ltpFR	9	n/a	n/a	n/a	n/a	n/a	n/a	14	4	7	3	n/a	n/a	n/a	n/a	n/a
1969478	PROB	n/a	LTP067	ltpFR	9	n/a	n/a	n/a	n/a	n/a	n/a	12	2	8	2	n/a	n/a	n/a	n/a	n/a
1970602	PROB	n/a	LTP067	ltpFR	9	n/a	n/a	n/a	n/a	n/a	n/a	14	5	7	2	n/a	n/a	n/a	n/a	n/a
1972433	PROB	n/a	LTP067	ltpFR	9	n/a	n/a	n/a	n/a	n/a	n/a	9	6	1	2	n/a	n/a	n/a	n/a	n/a
1974281	PROB	n/a	LTP067	ltpFR	9	n/a	n/a	n/a	n/a	n/a	n/a	18	7	5	6	n/a	n/a	n/a	n/a	n/a
1975820	PROB	n/a	LTP067	ltpFR	9	n/a	n/a	n/a	n/a	n/a	n/a	10	3	5	2	n/a	n/a	n/a	n/a	n/a
1977402	PROB	n/a	LTP067	ltpFR	9	n/a	n/a	n/a	n/a	n/a	n/a	17	7	2	8	n/a	n/a	n/a	n/a	n/a
1978809	PROB	n/a	LTP067	ltpFR	9	n/a	n/a	n/a	n/a	n/a	n/a	23	6	8	9	n/a	n/a	n/a	n/a	n/a
1981664	PROB	n/a	LTP067	ltpFR	9	n/a	n/a	n/a	n/a	n/a	n/a	8	3	3	2	n/a	n/a	n/a	n/a	n/a
1983124	STOP	n/a	LTP067	ltpFR	9	n/a	n/a	n/a	n/a	n/a	n/a	n/a	n/a	n/a	n/a	n/a	n/a	n/a	n/a	n/a
1984386	WORD	wordpools/wasnorm_wordpool.txt	LTP067	ltpFR	9	8	0	BARLEY	88	n/a	1	n/a	0	0	0	0	0.5869140625	0.422607421875	upper	../fonts/zerothre.ttf
1987390	START	n/a	LTP067	ltpFR	9	n/a	n/a	n/a	n/a	n/a	n/a	n/a	n/a	n/a	n/a	n/a	n/a	n/a	n/a	n/a
1988472	PROB	n/a	LTP067	ltpFR	9	n/a	n/a	n/a	n/a	n/a	n/a	13	6	6	1	n/a	n/a	n/a	n/a	n/a
1990111	PROB	n/a	LTP067	ltpFR	9	n/a	n/a	n/a	n/a	n/a	n/a	9	3	5	1	n/a	n/a	n/a	n/a	n/a
1992310	PROB	n/a	LTP067	ltpFR	9	n/a	n/a	n/a	n/a	n/a	n/a	13	3	7	3	n/a	n/a	n/a	n/a	n/a
1993558	PROB	n/a	LTP067	ltpFR	9	n/a	n/a	n/a	n/a	n/a	n/a	21	7	6	8	n/a	n/a	n/a	n/a	n/a
1996088	PROB	n/a	LTP067	ltpFR	9	n/a	n/a	n/a	n/a	n/a	n/a	17	5	6	6	n/a	n/a	n/a	n/a	n/a
1998502	PROB	n/a	LTP067	ltpFR	9	n/a	n/a	n/a	n/a	n/a	n/a	15	7	7	1	n/a	n/a	n/a	n/a	n/a
1999883	PROB	n/a	LTP067	ltpFR	9	n/a	n/a	n/a	n/a	n/a	n/a	16	7	6	3	n/a	n/a	n/a	n/a	n/a
2003389	STOP	n/a	LTP067	ltpFR	9	n/a	n/a	n/a	n/a	n/a	n/a	n/a	n/a	n/a	n/a	n/a	n/a	n/a	n/a	n/a
2005237	REC_START	n/a	LTP067	ltpFR	9	8	n/a	n/a	n/a	n/a	n/a	n/a	0	0	0	n/a	n/a	n/a	n/a	n/a
2006571	REC_WORD	wordpools/wasnorm_wordpool.txt	LTP067	ltpFR	9	8	0	FAUCET	555	n/a	0	n/a	0	0	0	n/a	n/a	n/a	n/a	n/a
2007448	REC_WORD	wordpools/wasnorm_wordpool.txt	LTP067	ltpFR	9	8	0	PUDDLE	1140	n/a	1	n/a	0	0	0	n/a	n/a	n/a	n/a	n/a
2012148	REC_WORD_VV	wordpools/wasnorm_wordpool.txt	LTP067	ltpFR	9	8	n/a	<>	-1	n/a	n/a	n/a	0	0	0	n/a	n/a	n/a	n/a	n/a
2014135	REC_WORD	wordpools/wasnorm_wordpool.txt	LTP067	ltpFR	9	8	0	FAUCET	555	n/a	0	n/a	0	0	0	n/a	n/a	n/a	n/a	n/a
2014740	REC_WORD	wordpools/wasnorm_wordpool.txt	LTP067	ltpFR	9	8	0	PUDDLE	1140	n/a	1	n/a	0	0	0	n/a	n/a	n/a	n/a	n/a
2030317	REC_WORD_VV	wordpools/wasnorm_wordpool.txt	LTP067	ltpFR	9	8	n/a	<>	-1	n/a	n/a	n/a	0	0	0	n/a	n/a	n/a	n/a	n/a
2031366	REC_WORD_VV	wordpools/wasnorm_wordpool.txt	LTP067	ltpFR	9	8	n/a	<>	-1	n/a	n/a	n/a	0	0	0	n/a	n/a	n/a	n/a	n/a
2040307	REC_WORD_VV	wordpools/wasnorm_wordpool.txt	LTP067	ltpFR	9	8	n/a	<>	-1	n/a	n/a	n/a	0	0	0	n/a	n/a	n/a	n/a	n/a
2049564	REC_WORD_VV	wordpools/wasnorm_wordpool.txt	LTP067	ltpFR	9	8	n/a	<>	-1	n/a	n/a	n/a	0	0	0	n/a	n/a	n/a	n/a	n/a
2050564	REC_WORD_VV	wordpools/wasnorm_wordpool.txt	LTP067	ltpFR	9	8	n/a	<>	-1	n/a	n/a	n/a	0	0	0	n/a	n/a	n/a	n/a	n/a
2051564	REC_WORD_VV	wordpools/wasnorm_wordpool.txt	LTP067	ltpFR	9	8	n/a	<>	-1	n/a	n/a	n/a	0	0	0	n/a	n/a	n/a	n/a	n/a
2053243	REC_WORD	wordpools/wasnorm_wordpool.txt	LTP067	ltpFR	9	8	1	BILL	126	n/a	0	n/a	0	0	0	n/a	n/a	n/a	n/a	n/a
2053691	REC_WORD	wordpools/wasnorm_wordpool.txt	LTP067	ltpFR	9	8	0	VIOLIN	1571	n/a	1	n/a	0	0	0	n/a	n/a	n/a	n/a	n/a
2061648	REC_WORD_VV	wordpools/wasnorm_wordpool.txt	LTP067	ltpFR	9	8	n/a	<>	-1	n/a	n/a	n/a	0	0	0	n/a	n/a	n/a	n/a	n/a
2084909	WORD	wordpools/wasnorm_wordpool.txt	LTP067	ltpFR	9	9	0	NICKEL	950	n/a	0	n/a	0	0	0	0	0.5869140625	0.422607421875	upper	../fonts/zerothre.ttf
2088995	WORD	wordpools/wasnorm_wordpool.txt	LTP067	ltpFR	9	9	0	QUARTER	1148	n/a	0	n/a	0	0	0	0	0.5869140625	0.422607421875	upper	../fonts/zerothre.ttf
2092957	WORD	wordpools/wasnorm_wordpool.txt	LTP067	ltpFR	9	9	0	PATROL	1027	n/a	1	n/a	0	0	0	0	0.5869140625	0.422607421875	upper	../fonts/zerothre.ttf
2096928	WORD	wordpools/wasnorm_wordpool.txt	LTP067	ltpFR	9	9	1	PUB	1135	n/a	0	n/a	0	0	0	1	0.412841796875	0.57763671875	lower	../fonts/amplitud.ttf
2101106	WORD	wordpools/wasnorm_wordpool.txt	LTP067	ltpFR	9	9	1	SHERIFF	1284	n/a	1	n/a	0	0	0	1	0.412841796875	0.57763671875	lower	../fonts/amplitud.ttf
2104944	WORD	wordpools/wasnorm_wordpool.txt	LTP067	ltpFR	9	9	1	BAG	69	n/a	0	n/a	0	0	0	1	0.412841796875	0.57763671875	lower	../fonts/amplitud.ttf
2109014	WORD	wordpools/wasnorm_wordpool.txt	LTP067	ltpFR	9	9	1	SCARECROW	1245	n/a	0	n/a	0	0	0	1	0.412841796875	0.57763671875	lower	../fonts/amplitud.ttf
2113084	WORD	wordpools/wasnorm_wordpool.txt	LTP067	ltpFR	9	9	0	ROOT	1210	n/a	0	n/a	0	0	0	0	0.5869140625	0.422607421875	upper	../fonts/zerothre.ttf
2117029	WORD	wordpools/wasnorm_wordpool.txt	LTP067	ltpFR	9	9	0	SEED	1266	n/a	0	n/a	0	0	0	0	0.5869140625	0.422607421875	upper	../fonts/zerothre.ttf
2120958	WORD	wordpools/wasnorm_wordpool.txt	LTP067	ltpFR	9	9	0	OX	994	n/a	1	n/a	0	0	0	0	0.5869140625	0.422607421875	upper	../fonts/zerothre.ttf
2124845	WORD	wordpools/wasnorm_wordpool.txt	LTP067	ltpFR	9	9	0	FOX	598	n/a	1	n/a	0	0	0	0	0.5869140625	0.422607421875	upper	../fonts/zerothre.ttf
2128891	WORD	wordpools/wasnorm_wordpool.txt	LTP067	ltpFR	9	9	0	PERFUME	1049	n/a	0	n/a	0	0	0	0	0.5869140625	0.422607421875	upper	../fonts/zerothre.ttf
2132704	WORD	wordpools/wasnorm_wordpool.txt	LTP067	ltpFR	9	9	1	SPOON	1357	n/a	0	n/a	0	0	0	1	0.412841796875	0.57763671875	lower	../fonts/amplitud.ttf
2136881	WORD	wordpools/wasnorm_wordpool.txt	LTP067	ltpFR	9	9	1	AGENT	10	n/a	1	n/a	0	0	0	1	0.412841796875	0.57763671875	lower	../fonts/amplitud.ttf
2140860	WORD	wordpools/wasnorm_wordpool.txt	LTP067	ltpFR	9	9	1	POLICE	1098	n/a	1	n/a	0	0	0	1	0.412841796875	0.57763671875	lower	../fonts/amplitud.ttf
2144798	WORD	wordpools/wasnorm_wordpool.txt	LTP067	ltpFR	9	9	1	LUNCH	849	n/a	0	n/a	0	0	0	1	0.412841796875	0.57763671875	lower	../fonts/amplitud.ttf
2150683	REC_START	n/a	LTP067	ltpFR	9	9	n/a	n/a	n/a	n/a	n/a	n/a	0	0	0	n/a	n/a	n/a	n/a	n/a
2151836	REC_WORD	wordpools/wasnorm_wordpool.txt	LTP067	ltpFR	9	9	1	POLICE	1098	n/a	1	n/a	0	0	0	n/a	n/a	n/a	n/a	n/a
2154556	REC_WORD	wordpools/wasnorm_wordpool.txt	LTP067	ltpFR	9	9	0	PATROL	1027	n/a	1	n/a	0	0	0	n/a	n/a	n/a	n/a	n/a
2155672	REC_WORD	wordpools/wasnorm_wordpool.txt	LTP067	ltpFR	9	9	0	QUARTER	1148	n/a	0	n/a	0	0	0	n/a	n/a	n/a	n/a	n/a
2156486	REC_WORD	wordpools/wasnorm_wordpool.txt	LTP067	ltpFR	9	9	0	NICKEL	950	n/a	0	n/a	0	0	0	n/a	n/a	n/a	n/a	n/a
2157943	REC_WORD	wordpools/wasnorm_wordpool.txt	LTP067	ltpFR	9	9	1	BAG	69	n/a	0	n/a	0	0	0	n/a	n/a	n/a	n/a	n/a
2159532	REC_WORD	wordpools/wasnorm_wordpool.txt	LTP067	ltpFR	9	9	1	SCARECROW	1245	n/a	0	n/a	0	0	0	n/a	n/a	n/a	n/a	n/a
2163093	REC_WORD	wordpools/wasnorm_wordpool.txt	LTP067	ltpFR	9	9	0	ROOT	1210	n/a	0	n/a	0	0	0	n/a	n/a	n/a	n/a	n/a
2163677	REC_WORD	wordpools/wasnorm_wordpool.txt	LTP067	ltpFR	9	9	0	SEED	1266	n/a	0	n/a	0	0	0	n/a	n/a	n/a	n/a	n/a
2169422	REC_WORD_VV	wordpools/wasnorm_wordpool.txt	LTP067	ltpFR	9	9	n/a	<>	-1	n/a	n/a	n/a	0	0	0	n/a	n/a	n/a	n/a	n/a
2170422	REC_WORD_VV	wordpools/wasnorm_wordpool.txt	LTP067	ltpFR	9	9	n/a	<>	-1	n/a	n/a	n/a	0	0	0	n/a	n/a	n/a	n/a	n/a
2171422	REC_WORD_VV	wordpools/wasnorm_wordpool.txt	LTP067	ltpFR	9	9	n/a	<>	-1	n/a	n/a	n/a	0	0	0	n/a	n/a	n/a	n/a	n/a
2172422	REC_WORD_VV	wordpools/wasnorm_wordpool.txt	LTP067	ltpFR	9	9	n/a	<>	-1	n/a	n/a	n/a	0	0	0	n/a	n/a	n/a	n/a	n/a
2173422	REC_WORD_VV	wordpools/wasnorm_wordpool.txt	LTP067	ltpFR	9	9	n/a	<>	-1	n/a	n/a	n/a	0	0	0	n/a	n/a	n/a	n/a	n/a
2174348	REC_WORD	wordpools/wasnorm_wordpool.txt	LTP067	ltpFR	9	9	0	PERFUME	1049	n/a	0	n/a	0	0	0	n/a	n/a	n/a	n/a	n/a
2175566	REC_WORD	wordpools/wasnorm_wordpool.txt	LTP067	ltpFR	9	9	1	SPOON	1357	n/a	0	n/a	0	0	0	n/a	n/a	n/a	n/a	n/a
2215488	REC_WORD	wordpools/wasnorm_wordpool.txt	LTP067	ltpFR	9	9	0	OX	994	n/a	1	n/a	0	0	0	n/a	n/a	n/a	n/a	n/a
2216981	REC_WORD	wordpools/wasnorm_wordpool.txt	LTP067	ltpFR	9	9	0	FOX	598	n/a	1	n/a	0	0	0	n/a	n/a	n/a	n/a	n/a
2227643	START	n/a	LTP067	ltpFR	9	n/a	n/a	n/a	n/a	n/a	n/a	n/a	n/a	n/a	n/a	n/a	n/a	n/a	n/a	n/a
2229149	PROB	n/a	LTP067	ltpFR	9	n/a	n/a	n/a	n/a	n/a	n/a	15	5	2	6	n/a	n/a	n/a	n/a	n/a
2232778	PROB	n/a	LTP067	ltpFR	9	n/a	n/a	n/a	n/a	n/a	n/a	17	6	7	4	n/a	n/a	n/a	n/a	n/a
2234820	STOP	n/a	LTP067	ltpFR	9	n/a	n/a	n/a	n/a	n/a	n/a	n/a	n/a	n/a	n/a	n/a	n/a	n/a	n/a	n/a
2236641	WORD	wordpools/wasnorm_wordpool.txt	LTP067	ltpFR	9	10	0	ASSOCIATE	49	n/a	1	n/a	0	0	0	0	0.5869140625	0.422607421875	upper	../fonts/zerothre.ttf
2239646	START	n/a	LTP067	ltpFR	9	n/a	n/a	n/a	n/a	n/a	n/a	n/a	n/a	n/a	n/a	n/a	n/a	n/a	n/a	n/a
2240528	PROB	n/a	LTP067	ltpFR	9	n/a	n/a	n/a	n/a	n/a	n/a	11	4	1	6	n/a	n/a	n/a	n/a	n/a
2241809	PROB	n/a	LTP067	ltpFR	9	n/a	n/a	n/a	n/a	n/a	n/a	15	2	4	9	n/a	n/a	n/a	n/a	n/a
2243873	PROB	n/a	LTP067	ltpFR	9	n/a	n/a	n/a	n/a	n/a	n/a	14	7	4	3	n/a	n/a	n/a	n/a	n/a
2247645	STOP	n/a	LTP067	ltpFR	9	n/a	n/a	n/a	n/a	n/a	n/a	n/a	n/a	n/a	n/a	n/a	n/a	n/a	n/a	n/a
2248726	WORD	wordpools/wasnorm_wordpool.txt	LTP067	ltpFR	9	10	0	PROFESSOR	1131	n/a	1	n/a	0	0	0	0	0.5869140625	0.422607421875	upper	../fonts/zerothre.ttf
2251732	START	n/a	LTP067	ltpFR	9	n/a	n/a	n/a	n/a	n/a	n/a	n/a	n/a	n/a	n/a	n/a	n/a	n/a	n/a	n/a
2252605	PROB	n/a	LTP067	ltpFR	9	n/a	n/a	n/a	n/a	n/a	n/a	19	8	3	8	n/a	n/a	n/a	n/a	n/a
2254370	PROB	n/a	LTP067	ltpFR	9	n/a	n/a	n/a	n/a	n/a	n/a	10	3	2	5	n/a	n/a	n/a	n/a	n/a
2256317	PROB	n/a	LTP067	ltpFR	9	n/a	n/a	n/a	n/a	n/a	n/a	16	8	3	5	n/a	n/a	n/a	n/a	n/a
2259732	STOP	n/a	LTP067	ltpFR	9	n/a	n/a	n/a	n/a	n/a	n/a	n/a	n/a	n/a	n/a	n/a	n/a	n/a	n/a	n/a
2260804	WORD	wordpools/wasnorm_wordpool.txt	LTP067	ltpFR	9	10	0	DUSTPAN	509	n/a	1	n/a	0	0	0	0	0.5869140625	0.422607421875	upper	../fonts/zerothre.ttf
2263809	START	n/a	LTP067	ltpFR	9	n/a	n/a	n/a	n/a	n/a	n/a	n/a	n/a	n/a	n/a	n/a	n/a	n/a	n/a	n/a
2264799	PROB	n/a	LTP067	ltpFR	9	n/a	n/a	n/a	n/a	n/a	n/a	18	5	5	8	n/a	n/a	n/a	n/a	n/a
2266189	PROB	n/a	LTP067	ltpFR	9	n/a	n/a	n/a	n/a	n/a	n/a	21	8	8	5	n/a	n/a	n/a	n/a	n/a
2268028	PROB	n/a	LTP067	ltpFR	9	n/a	n/a	n/a	n/a	n/a	n/a	14	4	5	5	n/a	n/a	n/a	n/a	n/a
2271809	STOP	n/a	LTP067	ltpFR	9	n/a	n/a	n/a	n/a	n/a	n/a	n/a	n/a	n/a	n/a	n/a	n/a	n/a	n/a	n/a
2272682	WORD	wordpools/wasnorm_wordpool.txt	LTP067	ltpFR	9	10	0	MARBLE	867	n/a	0	n/a	0	0	0	0	0.5869140625	0.422607421875	upper	../fonts/zerothre.ttf
2275687	START	n/a	LTP067	ltpFR	9	n/a	n/a	n/a	n/a	n/a	n/a	n/a	n/a	n/a	n/a	n/a	n/a	n/a	n/a	n/a
2276876	PROB	n/a	LTP067	ltpFR	9	n/a	n/a	n/a	n/a	n/a	n/a	11	4	4	3	n/a	n/a	n/a	n/a	n/a
2278857	PROB	n/a	LTP067	ltpFR	9	n/a	n/a	n/a	n/a	n/a	n/a	17	8	8	1	n/a	n/a	n/a	n/a	n/a
2280606	PROB	n/a	LTP067	ltpFR	9	n/a	n/a	n/a	n/a	n/a	n/a	21	6	9	6	n/a	n/a	n/a	n/a	n/a
2282373	STOP	n/a	LTP067	ltpFR	9	n/a	n/a	n/a	n/a	n/a	n/a	n/a	n/a	n/a	n/a	n/a	n/a	n/a	n/a	n/a
2284634	WORD	wordpools/wasnorm_wordpool.txt	LTP067	ltpFR	9	10	0	FRIES	607	n/a	1	n/a	0	0	0	0	0.5869140625	0.422607421875	upper	../fonts/zerothre.ttf
2287640	START	n/a	LTP067	ltpFR	9	n/a	n/a	n/a	n/a	n/a	n/a	n/a	n/a	n/a	n/a	n/a	n/a	n/a	n/a	n/a
2288746	PROB	n/a	LTP067	ltpFR	9	n/a	n/a	n/a	n/a	n/a	n/a	21	9	7	5	n/a	n/a	n/a	n/a	n/a
2290586	PROB	n/a	LTP067	ltpFR	9	n/a	n/a	n/a	n/a	n/a	n/a	15	5	3	7	n/a	n/a	n/a	n/a	n/a
2291966	PROB	n/a	LTP067	ltpFR	9	n/a	n/a	n/a	n/a	n/a	n/a	21	8	9	4	n/a	n/a	n/a	n/a	n/a
2293939	PROB	n/a	LTP067	ltpFR	9	n/a	n/a	n/a	n/a	n/a	n/a	14	5	7	2	n/a	n/a	n/a	n/a	n/a
2295501	STOP	n/a	LTP067	ltpFR	9	n/a	n/a	n/a	n/a	n/a	n/a	n/a	n/a	n/a	n/a	n/a	n/a	n/a	n/a	n/a
2296454	WORD	wordpools/wasnorm_wordpool.txt	LTP067	ltpFR	9	10	0	RELATIVE	1182	n/a	1	n/a	0	0	0	0	0.5869140625	0.422607421875	upper	../fonts/zerothre.ttf
2299459	START	n/a	LTP067	ltpFR	9	n/a	n/a	n/a	n/a	n/a	n/a	n/a	n/a	n/a	n/a	n/a	n/a	n/a	n/a	n/a
2300416	PROB	n/a	LTP067	ltpFR	9	n/a	n/a	n/a	n/a	n/a	n/a	12	1	6	5	n/a	n/a	n/a	n/a	n/a
2303053	PROB	n/a	LTP067	ltpFR	9	n/a	n/a	n/a	n/a	n/a	n/a	18	7	7	4	n/a	n/a	n/a	n/a	n/a
2304569	PROB	n/a	LTP067	ltpFR	9	n/a	n/a	n/a	n/a	n/a	n/a	21	3	8	8	n/a	n/a	n/a	n/a	n/a
2306149	STOP	n/a	LTP067	ltpFR	9	n/a	n/a	n/a	n/a	n/a	n/a	n/a	n/a	n/a	n/a	n/a	n/a	n/a	n/a	n/a
2308390	WORD	wordpools/wasnorm_wordpool.txt	LTP067	ltpFR	9	10	0	KEG	770	n/a	1	n/a	0	0	0	0	0.5869140625	0.422607421875	upper	../fonts/zerothre.ttf
2311395	START	n/a	LTP067	ltpFR	9	n/a	n/a	n/a	n/a	n/a	n/a	n/a	n/a	n/a	n/a	n/a	n/a	n/a	n/a	n/a
2312485	PROB	n/a	LTP067	ltpFR	9	n/a	n/a	n/a	n/a	n/a	n/a	16	9	3	4	n/a	n/a	n/a	n/a	n/a
2314041	PROB	n/a	LTP067	ltpFR	9	n/a	n/a	n/a	n/a	n/a	n/a	20	8	8	4	n/a	n/a	n/a	n/a	n/a
2316414	PROB	n/a	LTP067	ltpFR	9	n/a	n/a	n/a	n/a	n/a	n/a	16	2	8	6	n/a	n/a	n/a	n/a	n/a
2317787	PROB	n/a	LTP067	ltpFR	9	n/a	n/a	n/a	n/a	n/a	n/a	12	2	4	6	n/a	n/a	n/a	n/a	n/a
2319325	STOP	n/a	LTP067	ltpFR	9	n/a	n/a	n/a	n/a	n/a	n/a	n/a	n/a	n/a	n/a	n/a	n/a	n/a	n/a	n/a
2320393	WORD	wordpools/wasnorm_wordpool.txt	LTP067	ltpFR	9	10	0	BOTTLE	153	n/a	0	n/a	0	0	0	0	0.5869140625	0.422607421875	upper	../fonts/zerothre.ttf
2323398	START	n/a	LTP067	ltpFR	9	n/a	n/a	n/a	n/a	n/a	n/a	n/a	n/a	n/a	n/a	n/a	n/a	n/a	n/a	n/a
2324263	PROB	n/a	LTP067	ltpFR	9	n/a	n/a	n/a	n/a	n/a	n/a	7	2	3	2	n/a	n/a	n/a	n/a	n/a
2325818	PROB	n/a	LTP067	ltpFR	9	n/a	n/a	n/a	n/a	n/a	n/a	12	3	2	7	n/a	n/a	n/a	n/a	n/a
2327334	PROB	n/a	LTP067	ltpFR	9	n/a	n/a	n/a	n/a	n/a	n/a	14	3	9	3	n/a	n/a	n/a	n/a	n/a
2329048	PROB	n/a	LTP067	ltpFR	9	n/a	n/a	n/a	n/a	n/a	n/a	17	5	5	7	n/a	n/a	n/a	n/a	n/a
2330669	STOP	n/a	LTP067	ltpFR	9	n/a	n/a	n/a	n/a	n/a	n/a	n/a	n/a	n/a	n/a	n/a	n/a	n/a	n/a	n/a
2332237	WORD	wordpools/wasnorm_wordpool.txt	LTP067	ltpFR	9	10	0	INSTRUCTOR	741	n/a	1	n/a	0	0	0	0	0.5869140625	0.422607421875	upper	../fonts/zerothre.ttf
2335242	START	n/a	LTP067	ltpFR	9	n/a	n/a	n/a	n/a	n/a	n/a	n/a	n/a	n/a	n/a	n/a	n/a	n/a	n/a	n/a
2336415	PROB	n/a	LTP067	ltpFR	9	n/a	n/a	n/a	n/a	n/a	n/a	14	2	5	7	n/a	n/a	n/a	n/a	n/a
2338188	PROB	n/a	LTP067	ltpFR	9	n/a	n/a	n/a	n/a	n/a	n/a	16	6	5	5	n/a	n/a	n/a	n/a	n/a
2339662	PROB	n/a	LTP067	ltpFR	9	n/a	n/a	n/a	n/a	n/a	n/a	15	4	6	5	n/a	n/a	n/a	n/a	n/a
2340926	PROB	n/a	LTP067	ltpFR	9	n/a	n/a	n/a	n/a	n/a	n/a	14	4	1	9	n/a	n/a	n/a	n/a	n/a
2342068	STOP	n/a	LTP067	ltpFR	9	n/a	n/a	n/a	n/a	n/a	n/a	n/a	n/a	n/a	n/a	n/a	n/a	n/a	n/a	n/a
2344256	WORD	wordpools/wasnorm_wordpool.txt	LTP067	ltpFR	9	10	0	PIRATE	1074	n/a	1	n/a	0	0	0	0	0.5869140625	0.422607421875	upper	../fonts/zerothre.ttf
2347262	START	n/a	LTP067	ltpFR	9	n/a	n/a	n/a	n/a	n/a	n/a	n/a	n/a	n/a	n/a	n/a	n/a	n/a	n/a	n/a
2348235	PROB	n/a	LTP067	ltpFR	9	n/a	n/a	n/a	n/a	n/a	n/a	9	1	3	5	n/a	n/a	n/a	n/a	n/a
2349932	PROB	n/a	LTP067	ltpFR	9	n/a	n/a	n/a	n/a	n/a	n/a	11	5	3	3	n/a	n/a	n/a	n/a	n/a
2351273	PROB	n/a	LTP067	ltpFR	9	n/a	n/a	n/a	n/a	n/a	n/a	13	6	3	4	n/a	n/a	n/a	n/a	n/a
2352995	PROB	n/a	LTP067	ltpFR	9	n/a	n/a	n/a	n/a	n/a	n/a	16	1	6	9	n/a	n/a	n/a	n/a	n/a
2354429	STOP	n/a	LTP067	ltpFR	9	n/a	n/a	n/a	n/a	n/a	n/a	n/a	n/a	n/a	n/a	n/a	n/a	n/a	n/a	n/a
2356267	WORD	wordpools/wasnorm_wordpool.txt	LTP067	ltpFR	9	10	0	BLOUSE	139	n/a	0	n/a	0	0	0	0	0.5869140625	0.422607421875	upper	../fonts/zerothre.ttf
2359273	START	n/a	LTP067	ltpFR	9	n/a	n/a	n/a	n/a	n/a	n/a	n/a	n/a	n/a	n/a	n/a	n/a	n/a	n/a	n/a
2360179	PROB	n/a	LTP067	ltpFR	9	n/a	n/a	n/a	n/a	n/a	n/a	9	2	5	2	n/a	n/a	n/a	n/a	n/a
2362660	PROB	n/a	LTP067	ltpFR	9	n/a	n/a	n/a	n/a	n/a	n/a	9	1	7	1	n/a	n/a	n/a	n/a	n/a
2363758	PROB	n/a	LTP067	ltpFR	9	n/a	n/a	n/a	n/a	n/a	n/a	21	9	9	3	n/a	n/a	n/a	n/a	n/a
2365165	PROB	n/a	LTP067	ltpFR	9	n/a	n/a	n/a	n/a	n/a	n/a	8	5	2	1	n/a	n/a	n/a	n/a	n/a
2366461	STOP	n/a	LTP067	ltpFR	9	n/a	n/a	n/a	n/a	n/a	n/a	n/a	n/a	n/a	n/a	n/a	n/a	n/a	n/a	n/a
2368162	WORD	wordpools/wasnorm_wordpool.txt	LTP067	ltpFR	9	10	0	FLANNEL	574	n/a	0	n/a	0	0	0	0	0.5869140625	0.422607421875	upper	../fonts/zerothre.ttf
2371167	START	n/a	LTP067	ltpFR	9	n/a	n/a	n/a	n/a	n/a	n/a	n/a	n/a	n/a	n/a	n/a	n/a	n/a	n/a	n/a
2372149	PROB	n/a	LTP067	ltpFR	9	n/a	n/a	n/a	n/a	n/a	n/a	8	6	1	1	n/a	n/a	n/a	n/a	n/a
2373805	PROB	n/a	LTP067	ltpFR	9	n/a	n/a	n/a	n/a	n/a	n/a	13	3	4	6	n/a	n/a	n/a	n/a	n/a
2375412	PROB	n/a	LTP067	ltpFR	9	n/a	n/a	n/a	n/a	n/a	n/a	15	5	6	4	n/a	n/a	n/a	n/a	n/a
2376718	PROB	n/a	LTP067	ltpFR	9	n/a	n/a	n/a	n/a	n/a	n/a	19	5	6	8	n/a	n/a	n/a	n/a	n/a
2378525	STOP	n/a	LTP067	ltpFR	9	n/a	n/a	n/a	n/a	n/a	n/a	n/a	n/a	n/a	n/a	n/a	n/a	n/a	n/a	n/a
2380063	WORD	wordpools/wasnorm_wordpool.txt	LTP067	ltpFR	9	10	0	BULLET	194	n/a	0	n/a	0	0	0	0	0.5869140625	0.422607421875	upper	../fonts/zerothre.ttf
2383069	START	n/a	LTP067	ltpFR	9	n/a	n/a	n/a	n/a	n/a	n/a	n/a	n/a	n/a	n/a	n/a	n/a	n/a	n/a	n/a
2383934	PROB	n/a	LTP067	ltpFR	9	n/a	n/a	n/a	n/a	n/a	n/a	11	1	2	8	n/a	n/a	n/a	n/a	n/a
2385475	PROB	n/a	LTP067	ltpFR	9	n/a	n/a	n/a	n/a	n/a	n/a	10	2	1	7	n/a	n/a	n/a	n/a	n/a
2386872	PROB	n/a	LTP067	ltpFR	9	n/a	n/a	n/a	n/a	n/a	n/a	19	7	9	3	n/a	n/a	n/a	n/a	n/a
2388222	PROB	n/a	LTP067	ltpFR	9	n/a	n/a	n/a	n/a	n/a	n/a	21	9	4	8	n/a	n/a	n/a	n/a	n/a
2390100	STOP	n/a	LTP067	ltpFR	9	n/a	n/a	n/a	n/a	n/a	n/a	n/a	n/a	n/a	n/a	n/a	n/a	n/a	n/a	n/a
2391941	WORD	wordpools/wasnorm_wordpool.txt	LTP067	ltpFR	9	10	0	WAGON	1578	n/a	1	n/a	0	0	0	0	0.5869140625	0.422607421875	upper	../fonts/zerothre.ttf
2394946	START	n/a	LTP067	ltpFR	9	n/a	n/a	n/a	n/a	n/a	n/a	n/a	n/a	n/a	n/a	n/a	n/a	n/a	n/a	n/a
2395862	PROB	n/a	LTP067	ltpFR	9	n/a	n/a	n/a	n/a	n/a	n/a	22	9	9	4	n/a	n/a	n/a	n/a	n/a
2397377	PROB	n/a	LTP067	ltpFR	9	n/a	n/a	n/a	n/a	n/a	n/a	15	1	6	8	n/a	n/a	n/a	n/a	n/a
2399650	PROB	n/a	LTP067	ltpFR	9	n/a	n/a	n/a	n/a	n/a	n/a	21	8	5	8	n/a	n/a	n/a	n/a	n/a
2401406	PROB	n/a	LTP067	ltpFR	9	n/a	n/a	n/a	n/a	n/a	n/a	16	1	8	7	n/a	n/a	n/a	n/a	n/a
2402765	STOP	n/a	LTP067	ltpFR	9	n/a	n/a	n/a	n/a	n/a	n/a	n/a	n/a	n/a	n/a	n/a	n/a	n/a	n/a	n/a
2404035	WORD	wordpools/wasnorm_wordpool.txt	LTP067	ltpFR	9	10	0	PIER	1063	n/a	1	n/a	0	0	0	0	0.5869140625	0.422607421875	upper	../fonts/zerothre.ttf
2407041	START	n/a	LTP067	ltpFR	9	n/a	n/a	n/a	n/a	n/a	n/a	n/a	n/a	n/a	n/a	n/a	n/a	n/a	n/a	n/a
2407873	PROB	n/a	LTP067	ltpFR	9	n/a	n/a	n/a	n/a	n/a	n/a	17	7	4	6	n/a	n/a	n/a	n/a	n/a
2409862	PROB	n/a	LTP067	ltpFR	9	n/a	n/a	n/a	n/a	n/a	n/a	18	8	9	1	n/a	n/a	n/a	n/a	n/a
2411035	PROB	n/a	LTP067	ltpFR	9	n/a	n/a	n/a	n/a	n/a	n/a	16	6	4	6	n/a	n/a	n/a	n/a	n/a
2412169	PROB	n/a	LTP067	ltpFR	9	n/a	n/a	n/a	n/a	n/a	n/a	11	1	1	9	n/a	n/a	n/a	n/a	n/a
2413342	PROB	n/a	LTP067	ltpFR	9	n/a	n/a	n/a	n/a	n/a	n/a	11	1	6	4	n/a	n/a	n/a	n/a	n/a
2414589	STOP	n/a	LTP067	ltpFR	9	n/a	n/a	n/a	n/a	n/a	n/a	n/a	n/a	n/a	n/a	n/a	n/a	n/a	n/a	n/a
2416030	WORD	wordpools/wasnorm_wordpool.txt	LTP067	ltpFR	9	10	0	PRODUCER	1129	n/a	1	n/a	0	0	0	0	0.5869140625	0.422607421875	upper	../fonts/zerothre.ttf
2419035	START	n/a	LTP067	ltpFR	9	n/a	n/a	n/a	n/a	n/a	n/a	n/a	n/a	n/a	n/a	n/a	n/a	n/a	n/a	n/a
2420108	PROB	n/a	LTP067	ltpFR	9	n/a	n/a	n/a	n/a	n/a	n/a	13	2	3	8	n/a	n/a	n/a	n/a	n/a
2421566	PROB	n/a	LTP067	ltpFR	9	n/a	n/a	n/a	n/a	n/a	n/a	14	3	5	6	n/a	n/a	n/a	n/a	n/a
2423206	PROB	n/a	LTP067	ltpFR	9	n/a	n/a	n/a	n/a	n/a	n/a	25	8	9	8	n/a	n/a	n/a	n/a	n/a
2426413	STOP	n/a	LTP067	ltpFR	9	n/a	n/a	n/a	n/a	n/a	n/a	n/a	n/a	n/a	n/a	n/a	n/a	n/a	n/a	n/a
2428766	REC_START	n/a	LTP067	ltpFR	9	10	n/a	n/a	n/a	n/a	n/a	n/a	0	0	0	n/a	n/a	n/a	n/a	n/a
2429471	REC_WORD	wordpools/wasnorm_wordpool.txt	LTP067	ltpFR	9	10	0	PRODUCER	1129	n/a	1	n/a	0	0	0	n/a	n/a	n/a	n/a	n/a
2430542	REC_WORD	wordpools/wasnorm_wordpool.txt	LTP067	ltpFR	9	10	0	PIER	1063	n/a	1	n/a	0	0	0	n/a	n/a	n/a	n/a	n/a
2432499	REC_WORD_VV	wordpools/wasnorm_wordpool.txt	LTP067	ltpFR	9	10	n/a	<>	-1	n/a	n/a	n/a	0	0	0	n/a	n/a	n/a	n/a	n/a
2433891	REC_WORD	wordpools/wasnorm_wordpool.txt	LTP067	ltpFR	9	10	0	PIRATE	1074	n/a	1	n/a	0	0	0	n/a	n/a	n/a	n/a	n/a
2434447	REC_WORD	wordpools/wasnorm_wordpool.txt	LTP067	ltpFR	9	10	0	ASSOCIATE	49	n/a	1	n/a	0	0	0	n/a	n/a	n/a	n/a	n/a
2435352	REC_WORD	wordpools/wasnorm_wordpool.txt	LTP067	ltpFR	9	10	0	RELATIVE	1182	n/a	1	n/a	0	0	0	n/a	n/a	n/a	n/a	n/a
2444430	REC_WORD_VV	wordpools/wasnorm_wordpool.txt	LTP067	ltpFR	9	10	n/a	<>	-1	n/a	n/a	n/a	0	0	0	n/a	n/a	n/a	n/a	n/a
2452281	REC_WORD	wordpools/wasnorm_wordpool.txt	LTP067	ltpFR	9	10	0	BULLET	194	n/a	0	n/a	0	0	0	n/a	n/a	n/a	n/a	n/a
2452708	REC_WORD	wordpools/wasnorm_wordpool.txt	LTP067	ltpFR	9	10	0	WAGON	1578	n/a	1	n/a	0	0	0	n/a	n/a	n/a	n/a	n/a
2455478	REC_WORD	wordpools/wasnorm_wordpool.txt	LTP067	ltpFR	9	10	0	FLANNEL	574	n/a	0	n/a	0	0	0	n/a	n/a	n/a	n/a	n/a
2456533	REC_WORD	wordpools/wasnorm_wordpool.txt	LTP067	ltpFR	9	10	0	BLOUSE	139	n/a	0	n/a	0	0	0	n/a	n/a	n/a	n/a	n/a
2470874	REC_WORD	wordpools/wasnorm_wordpool.txt	LTP067	ltpFR	9	10	0	MARBLE	867	n/a	0	n/a	0	0	0	n/a	n/a	n/a	n/a	n/a
2507048	WORD	wordpools/wasnorm_wordpool.txt	LTP067	ltpFR	9	11	1	PORCH	1106	n/a	0	n/a	0	0	0	1	0.412841796875	0.57763671875	lower	../fonts/amplitud.ttf
2511219	WORD	wordpools/wasnorm_wordpool.txt	LTP067	ltpFR	9	11	1	WINE	1613	n/a	0	n/a	0	0	0	1	0.412841796875	0.57763671875	lower	../fonts/amplitud.ttf
