onset	duration	trial_type	sample	stim_file	subject	experiment	session	trial	task	item_name	item_num	recog_resp	recog_conf	resp	color_r	color_g	color_b	case	font
265.504	n/a	SESS_START	132752	n/a	LTP129	ltpFR	4	n/a	n/a	n/a	n/a	1	3	n/a	n/a	n/a	n/a	n/a	n/a
322.596	n/a	WORD	161298	wordpools/wasnorm_wordpool.txt	LTP129	ltpFR	4	1	0	TIDE	1465	0	n/a	1	0.422607421875	0.5869140625	0	upper	zerothre.ttf
326.736	n/a	WORD	163368	wordpools/wasnorm_wordpool.txt	LTP129	ltpFR	4	1	0	CRAB	397	n/a	n/a	0	0.422607421875	0.5869140625	0	upper	zerothre.ttf
330.894	n/a	WORD	165447	wordpools/wasnorm_wordpool.txt	LTP129	ltpFR	4	1	0	COB	334	n/a	n/a	0	0.422607421875	0.5869140625	0	upper	zerothre.ttf
334.81	n/a	WORD	167405	wordpools/wasnorm_wordpool.txt	LTP129	ltpFR	4	1	1	POLITICIAN	1099	n/a	n/a	1	0.57763671875	0.412841796875	1	lower	amplitud.ttf
338.682	n/a	WORD	169341	wordpools/wasnorm_wordpool.txt	LTP129	ltpFR	4	1	1	NECKLACE	940	n/a	n/a	0	0.57763671875	0.412841796875	1	lower	amplitud.ttf
342.84	n/a	WORD	171420	wordpools/wasnorm_wordpool.txt	LTP129	ltpFR	4	1	1	CONCERT	360	n/a	n/a	0	0.57763671875	0.412841796875	1	lower	amplitud.ttf
346.814	n/a	WORD	173407	wordpools/wasnorm_wordpool.txt	LTP129	ltpFR	4	1	1	BINDER	127	n/a	n/a	0	0.57763671875	0.412841796875	1	lower	amplitud.ttf
350.63	n/a	WORD	175315	wordpools/wasnorm_wordpool.txt	LTP129	ltpFR	4	1	1	RAG	1160	n/a	n/a	0	0.57763671875	0.412841796875	1	lower	amplitud.ttf
354.636	n/a	WORD	177318	wordpools/wasnorm_wordpool.txt	LTP129	ltpFR	4	1	1	CONVICT	371	n/a	n/a	1	0.57763671875	0.412841796875	1	lower	amplitud.ttf
358.71	n/a	WORD	179355	wordpools/wasnorm_wordpool.txt	LTP129	ltpFR	4	1	0	CRIMINAL	409	n/a	n/a	1	0.422607421875	0.5869140625	0	upper	zerothre.ttf
362.642	n/a	WORD	181321	wordpools/wasnorm_wordpool.txt	LTP129	ltpFR	4	1	0	CHAIN	273	n/a	n/a	0	0.422607421875	0.5869140625	0	upper	zerothre.ttf
366.558	n/a	WORD	183279	wordpools/wasnorm_wordpool.txt	LTP129	ltpFR	4	1	1	CUPBOARD	425	n/a	n/a	0	0.57763671875	0.412841796875	1	lower	amplitud.ttf
370.766	n/a	WORD	185383	wordpools/wasnorm_wordpool.txt	LTP129	ltpFR	4	1	1	CAFETERIA	217	n/a	n/a	0	0.57763671875	0.412841796875	1	lower	amplitud.ttf
374.764	n/a	WORD	187382	wordpools/wasnorm_wordpool.txt	LTP129	ltpFR	4	1	0	CONDUCTOR	362	n/a	n/a	1	0.422607421875	0.5869140625	0	upper	zerothre.ttf
378.696	n/a	WORD	189348	wordpools/wasnorm_wordpool.txt	LTP129	ltpFR	4	1	0	JELLY	755	n/a	n/a	0	0.422607421875	0.5869140625	0	upper	zerothre.ttf
382.82	n/a	WORD	191410	wordpools/wasnorm_wordpool.txt	LTP129	ltpFR	4	1	0	FLESH	579	n/a	n/a	0	0.422607421875	0.5869140625	0	upper	zerothre.ttf
388.744	n/a	REC_START	194372	n/a	LTP129	ltpFR	4	1	n/a	n/a	n/a	n/a	n/a	n/a	n/a	n/a	n/a	n/a	n/a
389.592	n/a	REC_WORD	194796	wordpools/wasnorm_wordpool.txt	LTP129	ltpFR	4	1	0	CONDUCTOR	362	n/a	n/a	1	n/a	n/a	n/a	n/a	n/a
390.58	n/a	REC_WORD	195290	wordpools/wasnorm_wordpool.txt	LTP129	ltpFR	4	1	0	JELLY	755	n/a	n/a	0	n/a	n/a	n/a	n/a	n/a
391.462	n/a	REC_WORD	195731	wordpools/wasnorm_wordpool.txt	LTP129	ltpFR	4	1	0	FLESH	579	n/a	n/a	0	n/a	n/a	n/a	n/a	n/a
392.6	n/a	REC_WORD	196300	wordpools/wasnorm_wordpool.txt	LTP129	ltpFR	4	1	1	POLITICIAN	1099	n/a	n/a	1	n/a	n/a	n/a	n/a	n/a
393.806	n/a	REC_WORD	196903	wordpools/wasnorm_wordpool.txt	LTP129	ltpFR	4	1	0	CRIMINAL	409	n/a	n/a	1	n/a	n/a	n/a	n/a	n/a
394.894	n/a	REC_WORD	197447	wordpools/wasnorm_wordpool.txt	LTP129	ltpFR	4	1	0	CRAB	397	n/a	n/a	0	n/a	n/a	n/a	n/a	n/a
396.756	n/a	REC_WORD	198378	wordpools/wasnorm_wordpool.txt	LTP129	ltpFR	4	1	0	COB	334	n/a	n/a	0	n/a	n/a	n/a	n/a	n/a
397.822	n/a	REC_WORD	198911	wordpools/wasnorm_wordpool.txt	LTP129	ltpFR	4	1	0	TIDE	1465	n/a	n/a	1	n/a	n/a	n/a	n/a	n/a
401.764	n/a	REC_WORD	200882	wordpools/wasnorm_wordpool.txt	LTP129	ltpFR	4	1	1	NECKLACE	940	n/a	n/a	0	n/a	n/a	n/a	n/a	n/a
410.868	n/a	REC_WORD	205434	wordpools/wasnorm_wordpool.txt	LTP129	ltpFR	4	1	1	CONCERT	360	n/a	n/a	0	n/a	n/a	n/a	n/a	n/a
424.942	n/a	REC_WORD	212471	wordpools/wasnorm_wordpool.txt	LTP129	ltpFR	4	1	1	CUPBOARD	425	n/a	n/a	0	n/a	n/a	n/a	n/a	n/a
469.918	n/a	WORD	234959	wordpools/wasnorm_wordpool.txt	LTP129	ltpFR	4	2	1	GRAVEL	659	n/a	n/a	0	0.57763671875	0.412841796875	1	lower	amplitud.ttf
473.75	n/a	WORD	236875	wordpools/wasnorm_wordpool.txt	LTP129	ltpFR	4	2	1	BRUISE	180	n/a	n/a	0	0.57763671875	0.412841796875	1	lower	amplitud.ttf
477.782	n/a	WORD	238891	wordpools/wasnorm_wordpool.txt	LTP129	ltpFR	4	2	1	GAUZE	626	n/a	n/a	0	0.57763671875	0.412841796875	1	lower	amplitud.ttf
481.606	n/a	WORD	240803	wordpools/wasnorm_wordpool.txt	LTP129	ltpFR	4	2	1	PAW	1029	n/a	n/a	0	0.57763671875	0.412841796875	1	lower	amplitud.ttf
485.538	n/a	WORD	242769	wordpools/wasnorm_wordpool.txt	LTP129	ltpFR	4	2	1	SAUSAGE	1238	n/a	n/a	0	0.57763671875	0.412841796875	1	lower	amplitud.ttf
489.588	n/a	WORD	244794	wordpools/wasnorm_wordpool.txt	LTP129	ltpFR	4	2	1	TECHNICIAN	1443	n/a	n/a	1	0.57763671875	0.412841796875	1	lower	amplitud.ttf
493.56	n/a	WORD	246780	wordpools/wasnorm_wordpool.txt	LTP129	ltpFR	4	2	0	OVAL	990	n/a	n/a	0	0.422607421875	0.5869140625	0	upper	zerothre.ttf
497.392	n/a	WORD	248696	wordpools/wasnorm_wordpool.txt	LTP129	ltpFR	4	2	0	SCHOOL	1248	n/a	n/a	1	0.422607421875	0.5869140625	0	upper	zerothre.ttf
501.492	n/a	WORD	250746	wordpools/wasnorm_wordpool.txt	LTP129	ltpFR	4	2	0	WORM	1623	n/a	n/a	0	0.422607421875	0.5869140625	0	upper	zerothre.ttf
505.49	n/a	WORD	252745	wordpools/wasnorm_wordpool.txt	LTP129	ltpFR	4	2	0	WOLF	1619	n/a	n/a	1	0.422607421875	0.5869140625	0	upper	zerothre.ttf
509.622	n/a	WORD	254811	wordpools/wasnorm_wordpool.txt	LTP129	ltpFR	4	2	0	SACK	1220	n/a	n/a	0	0.422607421875	0.5869140625	0	upper	zerothre.ttf
513.672	n/a	WORD	256836	wordpools/wasnorm_wordpool.txt	LTP129	ltpFR	4	2	0	PUPIL	1143	n/a	n/a	0	0.422607421875	0.5869140625	0	upper	zerothre.ttf
517.878	n/a	WORD	258939	wordpools/wasnorm_wordpool.txt	LTP129	ltpFR	4	2	1	ORGAN	984	n/a	n/a	1	0.57763671875	0.412841796875	1	lower	amplitud.ttf
521.82	n/a	WORD	260910	wordpools/wasnorm_wordpool.txt	LTP129	ltpFR	4	2	1	TRANSPLANT	1496	n/a	n/a	0	0.57763671875	0.412841796875	1	lower	amplitud.ttf
525.86	n/a	WORD	262930	wordpools/wasnorm_wordpool.txt	LTP129	ltpFR	4	2	0	WALL	1582	n/a	n/a	1	0.422607421875	0.5869140625	0	upper	zerothre.ttf
529.966	n/a	WORD	264983	wordpools/wasnorm_wordpool.txt	LTP129	ltpFR	4	2	0	FENCE	560	n/a	n/a	0	0.422607421875	0.5869140625	0	upper	zerothre.ttf
535.516	n/a	REC_START	267758	n/a	LTP129	ltpFR	4	2	n/a	n/a	n/a	n/a	n/a	n/a	n/a	n/a	n/a	n/a	n/a
536.214	n/a	REC_WORD	268107	wordpools/wasnorm_wordpool.txt	LTP129	ltpFR	4	2	0	WALL	1582	n/a	n/a	1	n/a	n/a	n/a	n/a	n/a
536.906	n/a	REC_WORD	268453	wordpools/wasnorm_wordpool.txt	LTP129	ltpFR	4	2	0	FENCE	560	n/a	n/a	0	n/a	n/a	n/a	n/a	n/a
539.436	n/a	REC_WORD	269718	wordpools/wasnorm_wordpool.txt	LTP129	ltpFR	4	2	1	BRUISE	180	n/a	n/a	0	n/a	n/a	n/a	n/a	n/a
540.52	n/a	REC_WORD	270260	wordpools/wasnorm_wordpool.txt	LTP129	ltpFR	4	2	1	GAUZE	626	n/a	n/a	0	n/a	n/a	n/a	n/a	n/a
541.542	n/a	REC_WORD	270771	wordpools/wasnorm_wordpool.txt	LTP129	ltpFR	4	2	1	PAW	1029	n/a	n/a	0	n/a	n/a	n/a	n/a	n/a
543.662	n/a	REC_WORD	271831	wordpools/wasnorm_wordpool.txt	LTP129	ltpFR	4	2	1	GRAVEL	659	n/a	n/a	0	n/a	n/a	n/a	n/a	n/a
546.582	n/a	REC_WORD	273291	wordpools/wasnorm_wordpool.txt	LTP129	ltpFR	4	2	1	TECHNICIAN	1443	n/a	n/a	1	n/a	n/a	n/a	n/a	n/a
549.444	n/a	REC_WORD	274722	wordpools/wasnorm_wordpool.txt	LTP129	ltpFR	4	2	0	OVAL	990	n/a	n/a	0	n/a	n/a	n/a	n/a	n/a
550.134	n/a	REC_WORD	275067	wordpools/wasnorm_wordpool.txt	LTP129	ltpFR	4	2	0	SCHOOL	1248	n/a	n/a	1	n/a	n/a	n/a	n/a	n/a
560.99	n/a	REC_WORD	280495	wordpools/wasnorm_wordpool.txt	LTP129	ltpFR	4	2	1	ORGAN	984	n/a	n/a	1	n/a	n/a	n/a	n/a	n/a
566.138	n/a	REC_WORD	283069	wordpools/wasnorm_wordpool.txt	LTP129	ltpFR	4	2	1	SAUSAGE	1238	n/a	n/a	0	n/a	n/a	n/a	n/a	n/a
596.64	n/a	REC_WORD	298320	wordpools/wasnorm_wordpool.txt	LTP129	ltpFR	4	2	0	PUPIL	1143	n/a	n/a	0	n/a	n/a	n/a	n/a	n/a
614.29	n/a	WORD	307145	wordpools/wasnorm_wordpool.txt	LTP129	ltpFR	4	3	-1	MISTER	901	n/a	n/a	-1	1.0	1.0	1	upper	Verdana.ttf
618.266	n/a	WORD	309133	wordpools/wasnorm_wordpool.txt	LTP129	ltpFR	4	3	-1	PUMPKIN	1142	n/a	n/a	-1	1.0	1.0	1	upper	Verdana.ttf
622.138	n/a	WORD	311069	wordpools/wasnorm_wordpool.txt	LTP129	ltpFR	4	3	-1	HOUND	724	n/a	n/a	-1	1.0	1.0	1	upper	Verdana.ttf
626.22	n/a	WORD	313110	wordpools/wasnorm_wordpool.txt	LTP129	ltpFR	4	3	-1	DOLLAR	482	n/a	n/a	-1	1.0	1.0	1	upper	Verdana.ttf
630.428	n/a	WORD	315214	wordpools/wasnorm_wordpool.txt	LTP129	ltpFR	4	3	-1	COOKIE	374	n/a	n/a	-1	1.0	1.0	1	upper	Verdana.ttf
634.594	n/a	WORD	317297	wordpools/wasnorm_wordpool.txt	LTP129	ltpFR	4	3	-1	BANQUET	86	n/a	n/a	-1	1.0	1.0	1	upper	Verdana.ttf
638.584	n/a	WORD	319292	wordpools/wasnorm_wordpool.txt	LTP129	ltpFR	4	3	-1	DINNER	468	n/a	n/a	-1	1.0	1.0	1	upper	Verdana.ttf
642.54	n/a	WORD	321270	wordpools/wasnorm_wordpool.txt	LTP129	ltpFR	4	3	-1	GROCERY	664	n/a	n/a	-1	1.0	1.0	1	upper	Verdana.ttf
646.556	n/a	WORD	323278	wordpools/wasnorm_wordpool.txt	LTP129	ltpFR	4	3	-1	FLY	586	n/a	n/a	-1	1.0	1.0	1	upper	Verdana.ttf
650.388	n/a	WORD	325194	wordpools/wasnorm_wordpool.txt	LTP129	ltpFR	4	3	-1	SWATTER	1418	n/a	n/a	-1	1.0	1.0	1	upper	Verdana.ttf
654.554	n/a	WORD	327277	wordpools/wasnorm_wordpool.txt	LTP129	ltpFR	4	3	-1	MONEY	908	n/a	n/a	-1	1.0	1.0	1	upper	Verdana.ttf
658.702	n/a	WORD	329351	wordpools/wasnorm_wordpool.txt	LTP129	ltpFR	4	3	-1	TAIL	1430	n/a	n/a	-1	1.0	1.0	1	upper	Verdana.ttf
662.652	n/a	WORD	331326	wordpools/wasnorm_wordpool.txt	LTP129	ltpFR	4	3	-1	SAND	1230	n/a	n/a	-1	1.0	1.0	1	upper	Verdana.ttf
666.7	n/a	WORD	333350	wordpools/wasnorm_wordpool.txt	LTP129	ltpFR	4	3	-1	CITIZEN	312	n/a	n/a	-1	1.0	1.0	1	upper	Verdana.ttf
670.624	n/a	WORD	335312	wordpools/wasnorm_wordpool.txt	LTP129	ltpFR	4	3	-1	COLLAR	345	n/a	n/a	-1	1.0	1.0	1	upper	Verdana.ttf
674.448	n/a	WORD	337224	wordpools/wasnorm_wordpool.txt	LTP129	ltpFR	4	3	-1	POCKET	1093	n/a	n/a	-1	1.0	1.0	1	upper	Verdana.ttf
680.388	n/a	REC_START	340194	n/a	LTP129	ltpFR	4	3	n/a	n/a	n/a	n/a	n/a	n/a	n/a	n/a	n/a	n/a	n/a
681.132	n/a	REC_WORD	340566	wordpools/wasnorm_wordpool.txt	LTP129	ltpFR	4	3	-1	TAIL	1430	n/a	n/a	-1	n/a	n/a	n/a	n/a	n/a
681.544	n/a	REC_WORD	340772	wordpools/wasnorm_wordpool.txt	LTP129	ltpFR	4	3	-1	SAND	1230	n/a	n/a	-1	n/a	n/a	n/a	n/a	n/a
682.134	n/a	REC_WORD	341067	wordpools/wasnorm_wordpool.txt	LTP129	ltpFR	4	3	-1	CITIZEN	312	n/a	n/a	-1	n/a	n/a	n/a	n/a	n/a
683.142	n/a	REC_WORD	341571	wordpools/wasnorm_wordpool.txt	LTP129	ltpFR	4	3	-1	COLLAR	345	n/a	n/a	-1	n/a	n/a	n/a	n/a	n/a
683.816	n/a	REC_WORD	341908	wordpools/wasnorm_wordpool.txt	LTP129	ltpFR	4	3	-1	POCKET	1093	n/a	n/a	-1	n/a	n/a	n/a	n/a	n/a
687.402	n/a	REC_WORD	343701	wordpools/wasnorm_wordpool.txt	LTP129	ltpFR	4	3	-1	HOUND	724	n/a	n/a	-1	n/a	n/a	n/a	n/a	n/a
690.826	n/a	REC_WORD	345413	wordpools/wasnorm_wordpool.txt	LTP129	ltpFR	4	3	n/a	NAPKIN	937	n/a	n/a	n/a	n/a	n/a	n/a	n/a	n/a
691.604	n/a	REC_WORD	345802	wordpools/wasnorm_wordpool.txt	LTP129	ltpFR	4	3	-1	MISTER	901	n/a	n/a	-1	n/a	n/a	n/a	n/a	n/a
696.378	n/a	REC_WORD	348189	wordpools/wasnorm_wordpool.txt	LTP129	ltpFR	4	3	-1	DOLLAR	482	n/a	n/a	-1	n/a	n/a	n/a	n/a	n/a
705.098	n/a	REC_WORD	352549	wordpools/wasnorm_wordpool.txt	LTP129	ltpFR	4	3	-1	COOKIE	374	n/a	n/a	-1	n/a	n/a	n/a	n/a	n/a
708.626	n/a	REC_WORD	354313	wordpools/wasnorm_wordpool.txt	LTP129	ltpFR	4	3	-1	BANQUET	86	n/a	n/a	-1	n/a	n/a	n/a	n/a	n/a
709.644	n/a	REC_WORD	354822	wordpools/wasnorm_wordpool.txt	LTP129	ltpFR	4	3	-1	DINNER	468	n/a	n/a	-1	n/a	n/a	n/a	n/a	n/a
713.964	n/a	REC_WORD	356982	wordpools/wasnorm_wordpool.txt	LTP129	ltpFR	4	3	-1	FLY	586	n/a	n/a	-1	n/a	n/a	n/a	n/a	n/a
714.836	n/a	REC_WORD	357418	wordpools/wasnorm_wordpool.txt	LTP129	ltpFR	4	3	-1	SWATTER	1418	n/a	n/a	-1	n/a	n/a	n/a	n/a	n/a
718.988	n/a	REC_WORD	359494	wordpools/wasnorm_wordpool.txt	LTP129	ltpFR	4	3	-1	GROCERY	664	n/a	n/a	-1	n/a	n/a	n/a	n/a	n/a
746.066	n/a	REC_WORD	373033	wordpools/wasnorm_wordpool.txt	LTP129	ltpFR	4	3	-1	MONEY	908	n/a	n/a	-1	n/a	n/a	n/a	n/a	n/a
764.07	n/a	WORD	382035	wordpools/wasnorm_wordpool.txt	LTP129	ltpFR	4	4	-1	ASTEROID	50	n/a	n/a	-1	1.0	1.0	1	upper	Verdana.ttf
768.128	n/a	WORD	384064	wordpools/wasnorm_wordpool.txt	LTP129	ltpFR	4	4	-1	OLIVE	975	n/a	n/a	-1	1.0	1.0	1	upper	Verdana.ttf
772.142	n/a	WORD	386071	wordpools/wasnorm_wordpool.txt	LTP129	ltpFR	4	4	-1	PICKLE	1059	n/a	n/a	-1	1.0	1.0	1	upper	Verdana.ttf
775.976	n/a	WORD	387988	wordpools/wasnorm_wordpool.txt	LTP129	ltpFR	4	4	-1	GAZELLE	628	n/a	n/a	-1	1.0	1.0	1	upper	Verdana.ttf
779.95	n/a	WORD	389975	wordpools/wasnorm_wordpool.txt	LTP129	ltpFR	4	4	-1	ANTLER	29	n/a	n/a	-1	1.0	1.0	1	upper	Verdana.ttf
783.872	n/a	WORD	391936	wordpools/wasnorm_wordpool.txt	LTP129	ltpFR	4	4	-1	DICTIONARY	463	n/a	n/a	-1	1.0	1.0	1	upper	Verdana.ttf
787.98	n/a	WORD	393990	wordpools/wasnorm_wordpool.txt	LTP129	ltpFR	4	4	-1	COMET	353	n/a	n/a	-1	1.0	1.0	1	upper	Verdana.ttf
792.07	n/a	WORD	396035	wordpools/wasnorm_wordpool.txt	LTP129	ltpFR	4	4	-1	CABINET	212	n/a	n/a	-1	1.0	1.0	1	upper	Verdana.ttf
795.886	n/a	WORD	397943	wordpools/wasnorm_wordpool.txt	LTP129	ltpFR	4	4	-1	MAYONNAISE	880	n/a	n/a	-1	1.0	1.0	1	upper	Verdana.ttf
799.868	n/a	WORD	399934	wordpools/wasnorm_wordpool.txt	LTP129	ltpFR	4	4	-1	CITRUS	313	n/a	n/a	-1	1.0	1.0	1	upper	Verdana.ttf
803.984	n/a	WORD	401992	wordpools/wasnorm_wordpool.txt	LTP129	ltpFR	4	4	-1	ATLAS	53	n/a	n/a	-1	1.0	1.0	1	upper	Verdana.ttf
807.924	n/a	WORD	403962	wordpools/wasnorm_wordpool.txt	LTP129	ltpFR	4	4	-1	BARTENDER	92	n/a	n/a	-1	1.0	1.0	1	upper	Verdana.ttf
811.756	n/a	WORD	405878	wordpools/wasnorm_wordpool.txt	LTP129	ltpFR	4	4	-1	POTATO	1115	n/a	n/a	-1	1.0	1.0	1	upper	Verdana.ttf
815.622	n/a	WORD	407811	wordpools/wasnorm_wordpool.txt	LTP129	ltpFR	4	4	-1	DOCUMENT	479	n/a	n/a	-1	1.0	1.0	1	upper	Verdana.ttf
819.778	n/a	WORD	409889	wordpools/wasnorm_wordpool.txt	LTP129	ltpFR	4	4	-1	ZIPPER	1636	n/a	n/a	-1	1.0	1.0	1	upper	Verdana.ttf
823.828	n/a	WORD	411914	wordpools/wasnorm_wordpool.txt	LTP129	ltpFR	4	4	-1	VEST	1559	n/a	n/a	-1	1.0	1.0	1	upper	Verdana.ttf
829.544	n/a	REC_START	414772	n/a	LTP129	ltpFR	4	4	n/a	n/a	n/a	n/a	n/a	n/a	n/a	n/a	n/a	n/a	n/a
830.222	n/a	REC_WORD	415111	wordpools/wasnorm_wordpool.txt	LTP129	ltpFR	4	4	-1	BARTENDER	92	n/a	n/a	-1	n/a	n/a	n/a	n/a	n/a
830.93	n/a	REC_WORD	415465	wordpools/wasnorm_wordpool.txt	LTP129	ltpFR	4	4	-1	POTATO	1115	n/a	n/a	-1	n/a	n/a	n/a	n/a	n/a
832.542	n/a	REC_WORD	416271	wordpools/wasnorm_wordpool.txt	LTP129	ltpFR	4	4	-1	DOCUMENT	479	n/a	n/a	-1	n/a	n/a	n/a	n/a	n/a
833.564	n/a	REC_WORD	416782	wordpools/wasnorm_wordpool.txt	LTP129	ltpFR	4	4	-1	ZIPPER	1636	n/a	n/a	-1	n/a	n/a	n/a	n/a	n/a
835.66	n/a	REC_WORD	417830	wordpools/wasnorm_wordpool.txt	LTP129	ltpFR	4	4	-1	VEST	1559	n/a	n/a	-1	n/a	n/a	n/a	n/a	n/a
839.62	n/a	REC_WORD	419810	wordpools/wasnorm_wordpool.txt	LTP129	ltpFR	4	4	-1	ASTEROID	50	n/a	n/a	-1	n/a	n/a	n/a	n/a	n/a
843.352	n/a	REC_WORD	421676	wordpools/wasnorm_wordpool.txt	LTP129	ltpFR	4	4	-1	OLIVE	975	n/a	n/a	-1	n/a	n/a	n/a	n/a	n/a
844.61	n/a	REC_WORD	422305	wordpools/wasnorm_wordpool.txt	LTP129	ltpFR	4	4	-1	PICKLE	1059	n/a	n/a	-1	n/a	n/a	n/a	n/a	n/a
852.282	n/a	REC_WORD	426141	wordpools/wasnorm_wordpool.txt	LTP129	ltpFR	4	4	-1	GAZELLE	628	n/a	n/a	-1	n/a	n/a	n/a	n/a	n/a
853.614	n/a	REC_WORD	426807	wordpools/wasnorm_wordpool.txt	LTP129	ltpFR	4	4	-1	ANTLER	29	n/a	n/a	-1	n/a	n/a	n/a	n/a	n/a
855.89	n/a	REC_WORD	427945	wordpools/wasnorm_wordpool.txt	LTP129	ltpFR	4	4	-1	ANTLER	29	n/a	n/a	-1	n/a	n/a	n/a	n/a	n/a
858.458	n/a	REC_WORD	429229	wordpools/wasnorm_wordpool.txt	LTP129	ltpFR	4	4	-1	DICTIONARY	463	n/a	n/a	-1	n/a	n/a	n/a	n/a	n/a
861.328	n/a	REC_WORD	430664	wordpools/wasnorm_wordpool.txt	LTP129	ltpFR	4	4	-1	COMET	353	n/a	n/a	-1	n/a	n/a	n/a	n/a	n/a
867.144	n/a	REC_WORD	433572	wordpools/wasnorm_wordpool.txt	LTP129	ltpFR	4	4	-1	CABINET	212	n/a	n/a	-1	n/a	n/a	n/a	n/a	n/a
868.242	n/a	REC_WORD	434121	wordpools/wasnorm_wordpool.txt	LTP129	ltpFR	4	4	-1	ATLAS	53	n/a	n/a	-1	n/a	n/a	n/a	n/a	n/a
869.738	n/a	REC_WORD	434869	wordpools/wasnorm_wordpool.txt	LTP129	ltpFR	4	4	-1	MAYONNAISE	880	n/a	n/a	-1	n/a	n/a	n/a	n/a	n/a
919.14	n/a	WORD	459570	wordpools/wasnorm_wordpool.txt	LTP129	ltpFR	4	5	0	CATHEDRAL	260	n/a	n/a	1	0.422607421875	0.5869140625	0	upper	zerothre.ttf
923.206	n/a	WORD	461603	wordpools/wasnorm_wordpool.txt	LTP129	ltpFR	4	5	0	PORCUPINE	1107	n/a	n/a	0	0.422607421875	0.5869140625	0	upper	zerothre.ttf
927.162	n/a	WORD	463581	wordpools/wasnorm_wordpool.txt	LTP129	ltpFR	4	5	0	POSSUM	1112	n/a	n/a	0	0.422607421875	0.5869140625	0	upper	zerothre.ttf
931.186	n/a	WORD	465593	wordpools/wasnorm_wordpool.txt	LTP129	ltpFR	4	5	0	CALF	222	n/a	n/a	0	0.422607421875	0.5869140625	0	upper	zerothre.ttf
935.176	n/a	WORD	467588	wordpools/wasnorm_wordpool.txt	LTP129	ltpFR	4	5	0	CHIEF	298	n/a	n/a	1	0.422607421875	0.5869140625	0	upper	zerothre.ttf
939.068	n/a	WORD	469534	wordpools/wasnorm_wordpool.txt	LTP129	ltpFR	4	5	0	FEATHER	557	n/a	n/a	0	0.422607421875	0.5869140625	0	upper	zerothre.ttf
943.25	n/a	WORD	471625	wordpools/wasnorm_wordpool.txt	LTP129	ltpFR	4	5	0	TUTU	1524	n/a	n/a	0	0.422607421875	0.5869140625	0	upper	zerothre.ttf
947.282	n/a	WORD	473641	wordpools/wasnorm_wordpool.txt	LTP129	ltpFR	4	5	0	SPARROW	1347	n/a	n/a	0	0.422607421875	0.5869140625	0	upper	zerothre.ttf
951.448	n/a	WORD	475724	wordpools/wasnorm_wordpool.txt	LTP129	ltpFR	4	5	0	NEST	945	n/a	n/a	0	0.422607421875	0.5869140625	0	upper	zerothre.ttf
955.506	n/a	WORD	477753	wordpools/wasnorm_wordpool.txt	LTP129	ltpFR	4	5	0	HEAD	695	n/a	n/a	1	0.422607421875	0.5869140625	0	upper	zerothre.ttf
959.496	n/a	WORD	479748	wordpools/wasnorm_wordpool.txt	LTP129	ltpFR	4	5	0	PLANT	1083	n/a	n/a	0	0.422607421875	0.5869140625	0	upper	zerothre.ttf
963.344	n/a	WORD	481672	wordpools/wasnorm_wordpool.txt	LTP129	ltpFR	4	5	0	BROOM	178	n/a	n/a	0	0.422607421875	0.5869140625	0	upper	zerothre.ttf
967.2	n/a	WORD	483600	wordpools/wasnorm_wordpool.txt	LTP129	ltpFR	4	5	0	WITCH	1617	n/a	n/a	1	0.422607421875	0.5869140625	0	upper	zerothre.ttf
971.266	n/a	WORD	485633	wordpools/wasnorm_wordpool.txt	LTP129	ltpFR	4	5	0	FOLLOWER	589	n/a	n/a	1	0.422607421875	0.5869140625	0	upper	zerothre.ttf
975.174	n/a	WORD	487587	wordpools/wasnorm_wordpool.txt	LTP129	ltpFR	4	5	0	FLOWER	584	n/a	n/a	0	0.422607421875	0.5869140625	0	upper	zerothre.ttf
979.272	n/a	WORD	489636	wordpools/wasnorm_wordpool.txt	LTP129	ltpFR	4	5	0	PRIEST	1122	n/a	n/a	0	0.422607421875	0.5869140625	0	upper	zerothre.ttf
985.038	n/a	REC_START	492519	n/a	LTP129	ltpFR	4	5	n/a	n/a	n/a	n/a	n/a	n/a	n/a	n/a	n/a	n/a	n/a
985.55	n/a	REC_WORD	492775	wordpools/wasnorm_wordpool.txt	LTP129	ltpFR	4	5	0	BROOM	178	n/a	n/a	0	n/a	n/a	n/a	n/a	n/a
986.294	n/a	REC_WORD	493147	wordpools/wasnorm_wordpool.txt	LTP129	ltpFR	4	5	0	WITCH	1617	n/a	n/a	1	n/a	n/a	n/a	n/a	n/a
986.888	n/a	REC_WORD	493444	wordpools/wasnorm_wordpool.txt	LTP129	ltpFR	4	5	0	FOLLOWER	589	n/a	n/a	1	n/a	n/a	n/a	n/a	n/a
987.512	n/a	REC_WORD	493756	wordpools/wasnorm_wordpool.txt	LTP129	ltpFR	4	5	0	FLOWER	584	n/a	n/a	0	n/a	n/a	n/a	n/a	n/a
988.434	n/a	REC_WORD	494217	wordpools/wasnorm_wordpool.txt	LTP129	ltpFR	4	5	0	PLANT	1083	n/a	n/a	0	n/a	n/a	n/a	n/a	n/a
990.17	n/a	REC_WORD	495085	wordpools/wasnorm_wordpool.txt	LTP129	ltpFR	4	5	0	PRIEST	1122	n/a	n/a	0	n/a	n/a	n/a	n/a	n/a
993.982	n/a	REC_WORD	496991	wordpools/wasnorm_wordpool.txt	LTP129	ltpFR	4	5	0	CATHEDRAL	260	n/a	n/a	1	n/a	n/a	n/a	n/a	n/a
995.32	n/a	REC_WORD	497660	wordpools/wasnorm_wordpool.txt	LTP129	ltpFR	4	5	0	PORCUPINE	1107	n/a	n/a	0	n/a	n/a	n/a	n/a	n/a
996.198	n/a	REC_WORD	498099	wordpools/wasnorm_wordpool.txt	LTP129	ltpFR	4	5	0	POSSUM	1112	n/a	n/a	0	n/a	n/a	n/a	n/a	n/a
998.024	n/a	REC_WORD	499012	wordpools/wasnorm_wordpool.txt	LTP129	ltpFR	4	5	0	CALF	222	n/a	n/a	0	n/a	n/a	n/a	n/a	n/a
998.792	n/a	REC_WORD	499396	wordpools/wasnorm_wordpool.txt	LTP129	ltpFR	4	5	0	CHIEF	298	n/a	n/a	1	n/a	n/a	n/a	n/a	n/a
1034.338	n/a	REC_WORD	517169	wordpools/wasnorm_wordpool.txt	LTP129	ltpFR	4	5	0	SPARROW	1347	n/a	n/a	0	n/a	n/a	n/a	n/a	n/a
1035.784	n/a	REC_WORD	517892	wordpools/wasnorm_wordpool.txt	LTP129	ltpFR	4	5	0	NEST	945	n/a	n/a	0	n/a	n/a	n/a	n/a	n/a
1037.876	n/a	REC_WORD	518938	wordpools/wasnorm_wordpool.txt	LTP129	ltpFR	4	5	0	TUTU	1524	n/a	n/a	0	n/a	n/a	n/a	n/a	n/a
1076.552	n/a	WORD	538276	wordpools/wasnorm_wordpool.txt	LTP129	ltpFR	4	6	0	TOWEL	1489	n/a	n/a	0	0.422607421875	0.5869140625	0	upper	zerothre.ttf
1080.616	n/a	WORD	540308	wordpools/wasnorm_wordpool.txt	LTP129	ltpFR	4	6	0	PIER	1063	n/a	n/a	1	0.422607421875	0.5869140625	0	upper	zerothre.ttf
1084.806	n/a	WORD	542403	wordpools/wasnorm_wordpool.txt	LTP129	ltpFR	4	6	0	ROOF	1205	n/a	n/a	1	0.422607421875	0.5869140625	0	upper	zerothre.ttf
1088.732	n/a	WORD	544366	wordpools/wasnorm_wordpool.txt	LTP129	ltpFR	4	6	0	CANE	231	n/a	n/a	0	0.422607421875	0.5869140625	0	upper	zerothre.ttf
1092.58	n/a	WORD	546290	wordpools/wasnorm_wordpool.txt	LTP129	ltpFR	4	6	0	MINT	898	n/a	n/a	1	0.422607421875	0.5869140625	0	upper	zerothre.ttf
1096.636	n/a	WORD	548318	wordpools/wasnorm_wordpool.txt	LTP129	ltpFR	4	6	0	BRACES	164	n/a	n/a	0	0.422607421875	0.5869140625	0	upper	zerothre.ttf
1100.71	n/a	WORD	550355	wordpools/wasnorm_wordpool.txt	LTP129	ltpFR	4	6	0	SWAMP	1416	n/a	n/a	0	0.422607421875	0.5869140625	0	upper	zerothre.ttf
1104.526	n/a	WORD	552263	wordpools/wasnorm_wordpool.txt	LTP129	ltpFR	4	6	0	OTTER	986	n/a	n/a	0	0.422607421875	0.5869140625	0	upper	zerothre.ttf
1108.468	n/a	WORD	554234	wordpools/wasnorm_wordpool.txt	LTP129	ltpFR	4	6	0	BUTLER	204	n/a	n/a	1	0.422607421875	0.5869140625	0	upper	zerothre.ttf
1112.4	n/a	WORD	556200	wordpools/wasnorm_wordpool.txt	LTP129	ltpFR	4	6	0	SIREN	1310	n/a	n/a	0	0.422607421875	0.5869140625	0	upper	zerothre.ttf
1116.414	n/a	WORD	558207	wordpools/wasnorm_wordpool.txt	LTP129	ltpFR	4	6	0	TONGUE	1479	n/a	n/a	0	0.422607421875	0.5869140625	0	upper	zerothre.ttf
1120.272	n/a	WORD	560136	wordpools/wasnorm_wordpool.txt	LTP129	ltpFR	4	6	0	BISON	131	n/a	n/a	1	0.422607421875	0.5869140625	0	upper	zerothre.ttf
1124.454	n/a	WORD	562227	wordpools/wasnorm_wordpool.txt	LTP129	ltpFR	4	6	0	BUFFALO	186	n/a	n/a	0	0.422607421875	0.5869140625	0	upper	zerothre.ttf
1128.586	n/a	WORD	564293	wordpools/wasnorm_wordpool.txt	LTP129	ltpFR	4	6	0	ROOM	1206	n/a	n/a	1	0.422607421875	0.5869140625	0	upper	zerothre.ttf
1132.51	n/a	WORD	566255	wordpools/wasnorm_wordpool.txt	LTP129	ltpFR	4	6	0	PHILOSOPHER	1054	n/a	n/a	1	0.422607421875	0.5869140625	0	upper	zerothre.ttf
1136.708	n/a	WORD	568354	wordpools/wasnorm_wordpool.txt	LTP129	ltpFR	4	6	0	POLICE	1098	n/a	n/a	1	0.422607421875	0.5869140625	0	upper	zerothre.ttf
1142.532	n/a	REC_START	571266	n/a	LTP129	ltpFR	4	6	n/a	n/a	n/a	n/a	n/a	n/a	n/a	n/a	n/a	n/a	n/a
1143.04	n/a	REC_WORD	571520	wordpools/wasnorm_wordpool.txt	LTP129	ltpFR	4	6	0	PHILOSOPHER	1054	n/a	n/a	1	n/a	n/a	n/a	n/a	n/a
1144.002	n/a	REC_WORD	572001	wordpools/wasnorm_wordpool.txt	LTP129	ltpFR	4	6	0	POLICE	1098	n/a	n/a	1	n/a	n/a	n/a	n/a	n/a
1146.19	n/a	REC_WORD	573095	wordpools/wasnorm_wordpool.txt	LTP129	ltpFR	4	6	0	BUTLER	204	n/a	n/a	1	n/a	n/a	n/a	n/a	n/a
1147.312	n/a	REC_WORD	573656	wordpools/wasnorm_wordpool.txt	LTP129	ltpFR	4	6	n/a	ALARM	-1	n/a	n/a	n/a	n/a	n/a	n/a	n/a	n/a
1150.056	n/a	REC_WORD	575028	wordpools/wasnorm_wordpool.txt	LTP129	ltpFR	4	6	0	SIREN	1310	n/a	n/a	0	n/a	n/a	n/a	n/a	n/a
1155.502	n/a	REC_WORD	577751	wordpools/wasnorm_wordpool.txt	LTP129	ltpFR	4	6	0	BUFFALO	186	n/a	n/a	0	n/a	n/a	n/a	n/a	n/a
1156.61	n/a	REC_WORD	578305	wordpools/wasnorm_wordpool.txt	LTP129	ltpFR	4	6	0	BISON	131	n/a	n/a	1	n/a	n/a	n/a	n/a	n/a
1159.32	n/a	REC_WORD	579660	wordpools/wasnorm_wordpool.txt	LTP129	ltpFR	4	6	0	TONGUE	1479	n/a	n/a	0	n/a	n/a	n/a	n/a	n/a
1187.282	n/a	REC_WORD	593641	wordpools/wasnorm_wordpool.txt	LTP129	ltpFR	4	6	0	PIER	1063	n/a	n/a	1	n/a	n/a	n/a	n/a	n/a
1221.392	n/a	WORD	610696	wordpools/wasnorm_wordpool.txt	LTP129	ltpFR	4	7	-1	BLOSSOM	138	n/a	n/a	-1	1.0	1.0	1	upper	Verdana.ttf
1225.29	n/a	WORD	612645	wordpools/wasnorm_wordpool.txt	LTP129	ltpFR	4	7	-1	OFFICER	973	n/a	n/a	-1	1.0	1.0	1	upper	Verdana.ttf
1229.146	n/a	WORD	614573	wordpools/wasnorm_wordpool.txt	LTP129	ltpFR	4	7	-1	SAGE	1222	n/a	n/a	-1	1.0	1.0	1	upper	Verdana.ttf
1233.112	n/a	WORD	616556	wordpools/wasnorm_wordpool.txt	LTP129	ltpFR	4	7	-1	OREGANO	983	n/a	n/a	-1	1.0	1.0	1	upper	Verdana.ttf
1236.97	n/a	WORD	618485	wordpools/wasnorm_wordpool.txt	LTP129	ltpFR	4	7	-1	SCENERY	1247	n/a	n/a	-1	1.0	1.0	1	upper	Verdana.ttf
1241.01	n/a	WORD	620505	wordpools/wasnorm_wordpool.txt	LTP129	ltpFR	4	7	-1	MOUTH	926	n/a	n/a	-1	1.0	1.0	1	upper	Verdana.ttf
1245.05	n/a	WORD	622525	wordpools/wasnorm_wordpool.txt	LTP129	ltpFR	4	7	-1	TOOTHBRUSH	1482	n/a	n/a	-1	1.0	1.0	1	upper	Verdana.ttf
1249.05	n/a	WORD	624525	wordpools/wasnorm_wordpool.txt	LTP129	ltpFR	4	7	-1	ANT	25	n/a	n/a	-1	1.0	1.0	1	upper	Verdana.ttf
1253.04	n/a	WORD	626520	wordpools/wasnorm_wordpool.txt	LTP129	ltpFR	4	7	-1	KITE	779	n/a	n/a	-1	1.0	1.0	1	upper	Verdana.ttf
1257.236	n/a	WORD	628618	wordpools/wasnorm_wordpool.txt	LTP129	ltpFR	4	7	-1	PEAR	1033	n/a	n/a	-1	1.0	1.0	1	upper	Verdana.ttf
1261.438	n/a	WORD	630719	wordpools/wasnorm_wordpool.txt	LTP129	ltpFR	4	7	-1	SERVANT	1271	n/a	n/a	-1	1.0	1.0	1	upper	Verdana.ttf
1265.444	n/a	WORD	632722	wordpools/wasnorm_wordpool.txt	LTP129	ltpFR	4	7	-1	VEGETABLE	1552	n/a	n/a	-1	1.0	1.0	1	upper	Verdana.ttf
1269.352	n/a	WORD	634676	wordpools/wasnorm_wordpool.txt	LTP129	ltpFR	4	7	-1	GHETTO	633	n/a	n/a	-1	1.0	1.0	1	upper	Verdana.ttf
1273.434	n/a	WORD	636717	wordpools/wasnorm_wordpool.txt	LTP129	ltpFR	4	7	-1	TULIP	1517	n/a	n/a	-1	1.0	1.0	1	upper	Verdana.ttf
1277.274	n/a	WORD	638637	wordpools/wasnorm_wordpool.txt	LTP129	ltpFR	4	7	-1	SHORTCAKE	1292	n/a	n/a	-1	1.0	1.0	1	upper	Verdana.ttf
1281.482	n/a	WORD	640741	wordpools/wasnorm_wordpool.txt	LTP129	ltpFR	4	7	-1	OUTLAW	989	n/a	n/a	-1	1.0	1.0	1	upper	Verdana.ttf
1287.046	n/a	REC_START	643523	n/a	LTP129	ltpFR	4	7	n/a	n/a	n/a	n/a	n/a	n/a	n/a	n/a	n/a	n/a	n/a
1288.388	n/a	REC_WORD	644194	wordpools/wasnorm_wordpool.txt	LTP129	ltpFR	4	7	-1	TULIP	1517	n/a	n/a	-1	n/a	n/a	n/a	n/a	n/a
1288.922	n/a	REC_WORD	644461	wordpools/wasnorm_wordpool.txt	LTP129	ltpFR	4	7	-1	SHORTCAKE	1292	n/a	n/a	-1	n/a	n/a	n/a	n/a	n/a
1290.15	n/a	REC_WORD	645075	wordpools/wasnorm_wordpool.txt	LTP129	ltpFR	4	7	-1	OUTLAW	989	n/a	n/a	-1	n/a	n/a	n/a	n/a	n/a
1293.96	n/a	REC_WORD	646980	wordpools/wasnorm_wordpool.txt	LTP129	ltpFR	4	7	-1	BLOSSOM	138	n/a	n/a	-1	n/a	n/a	n/a	n/a	n/a
1295.562	n/a	REC_WORD	647781	wordpools/wasnorm_wordpool.txt	LTP129	ltpFR	4	7	-1	OFFICER	973	n/a	n/a	-1	n/a	n/a	n/a	n/a	n/a
1298.936	n/a	REC_WORD	649468	wordpools/wasnorm_wordpool.txt	LTP129	ltpFR	4	7	-1	SAGE	1222	n/a	n/a	-1	n/a	n/a	n/a	n/a	n/a
1299.464	n/a	REC_WORD	649732	wordpools/wasnorm_wordpool.txt	LTP129	ltpFR	4	7	-1	OREGANO	983	n/a	n/a	-1	n/a	n/a	n/a	n/a	n/a
1300.158	n/a	REC_WORD	650079	wordpools/wasnorm_wordpool.txt	LTP129	ltpFR	4	7	-1	MOUTH	926	n/a	n/a	-1	n/a	n/a	n/a	n/a	n/a
1300.776	n/a	REC_WORD	650388	wordpools/wasnorm_wordpool.txt	LTP129	ltpFR	4	7	-1	TOOTHBRUSH	1482	n/a	n/a	-1	n/a	n/a	n/a	n/a	n/a
1303.43	n/a	REC_WORD	651715	wordpools/wasnorm_wordpool.txt	LTP129	ltpFR	4	7	-1	ANT	25	n/a	n/a	-1	n/a	n/a	n/a	n/a	n/a
1304.284	n/a	REC_WORD	652142	wordpools/wasnorm_wordpool.txt	LTP129	ltpFR	4	7	-1	KITE	779	n/a	n/a	-1	n/a	n/a	n/a	n/a	n/a
1306.718	n/a	REC_WORD	653359	wordpools/wasnorm_wordpool.txt	LTP129	ltpFR	4	7	-1	SERVANT	1271	n/a	n/a	-1	n/a	n/a	n/a	n/a	n/a
1309.068	n/a	REC_WORD	654534	wordpools/wasnorm_wordpool.txt	LTP129	ltpFR	4	7	n/a	PEACH	1031	n/a	n/a	n/a	n/a	n/a	n/a	n/a	n/a
1309.77	n/a	REC_WORD	654885	wordpools/wasnorm_wordpool.txt	LTP129	ltpFR	4	7	-1	VEGETABLE	1552	n/a	n/a	-1	n/a	n/a	n/a	n/a	n/a
1320.518	n/a	REC_WORD	660259	wordpools/wasnorm_wordpool.txt	LTP129	ltpFR	4	7	-1	GHETTO	633	n/a	n/a	-1	n/a	n/a	n/a	n/a	n/a
1370.262	n/a	WORD	685131	wordpools/wasnorm_wordpool.txt	LTP129	ltpFR	4	8	1	COLT	349	n/a	n/a	1	0.57763671875	0.412841796875	1	lower	amplitud.ttf
1374.21	n/a	WORD	687105	wordpools/wasnorm_wordpool.txt	LTP129	ltpFR	4	8	1	HERB	704	n/a	n/a	0	0.57763671875	0.412841796875	1	lower	amplitud.ttf
1378.086	n/a	WORD	689043	wordpools/wasnorm_wordpool.txt	LTP129	ltpFR	4	8	1	CLAM	315	n/a	n/a	1	0.57763671875	0.412841796875	1	lower	amplitud.ttf
1382.158	n/a	WORD	691079	wordpools/wasnorm_wordpool.txt	LTP129	ltpFR	4	8	1	TANK	1432	n/a	n/a	1	0.57763671875	0.412841796875	1	lower	amplitud.ttf
1386.232	n/a	WORD	693116	wordpools/wasnorm_wordpool.txt	LTP129	ltpFR	4	8	1	ATTIC	56	n/a	n/a	1	0.57763671875	0.412841796875	1	lower	amplitud.ttf
1390.164	n/a	WORD	695082	wordpools/wasnorm_wordpool.txt	LTP129	ltpFR	4	8	1	BALCONY	72	n/a	n/a	0	0.57763671875	0.412841796875	1	lower	amplitud.ttf
1394.272	n/a	WORD	697136	wordpools/wasnorm_wordpool.txt	LTP129	ltpFR	4	8	1	STAPLE	1371	n/a	n/a	0	0.57763671875	0.412841796875	1	lower	amplitud.ttf
1398.32	n/a	WORD	699160	wordpools/wasnorm_wordpool.txt	LTP129	ltpFR	4	8	1	SALMON	1227	n/a	n/a	1	0.57763671875	0.412841796875	1	lower	amplitud.ttf
1402.202	n/a	WORD	701101	wordpools/wasnorm_wordpool.txt	LTP129	ltpFR	4	8	1	SEA	1259	n/a	n/a	1	0.57763671875	0.412841796875	1	lower	amplitud.ttf
1406.126	n/a	WORD	703063	wordpools/wasnorm_wordpool.txt	LTP129	ltpFR	4	8	1	VINEGAR	1569	n/a	n/a	0	0.57763671875	0.412841796875	1	lower	amplitud.ttf
1410.068	n/a	WORD	705034	wordpools/wasnorm_wordpool.txt	LTP129	ltpFR	4	8	1	BANKER	84	n/a	n/a	1	0.57763671875	0.412841796875	1	lower	amplitud.ttf
1414.274	n/a	WORD	707137	wordpools/wasnorm_wordpool.txt	LTP129	ltpFR	4	8	1	CASHIER	254	n/a	n/a	0	0.57763671875	0.412841796875	1	lower	amplitud.ttf
1418.422	n/a	WORD	709211	wordpools/wasnorm_wordpool.txt	LTP129	ltpFR	4	8	1	RACK	1154	n/a	n/a	0	0.57763671875	0.412841796875	1	lower	amplitud.ttf
1422.546	n/a	WORD	711273	wordpools/wasnorm_wordpool.txt	LTP129	ltpFR	4	8	1	SUGAR	1401	n/a	n/a	0	0.57763671875	0.412841796875	1	lower	amplitud.ttf
1426.686	n/a	WORD	713343	wordpools/wasnorm_wordpool.txt	LTP129	ltpFR	4	8	1	TEA	1439	n/a	n/a	1	0.57763671875	0.412841796875	1	lower	amplitud.ttf
1430.894	n/a	WORD	715447	wordpools/wasnorm_wordpool.txt	LTP129	ltpFR	4	8	1	RIDER	1191	n/a	n/a	0	0.57763671875	0.412841796875	1	lower	amplitud.ttf
1436.768	n/a	REC_START	718384	n/a	LTP129	ltpFR	4	8	n/a	n/a	n/a	n/a	n/a	n/a	n/a	n/a	n/a	n/a	n/a
1437.172	n/a	REC_WORD	718586	wordpools/wasnorm_wordpool.txt	LTP129	ltpFR	4	8	1	RIDER	1191	n/a	n/a	0	n/a	n/a	n/a	n/a	n/a
1438.314	n/a	REC_WORD	719157	wordpools/wasnorm_wordpool.txt	LTP129	ltpFR	4	8	1	TEA	1439	n/a	n/a	1	n/a	n/a	n/a	n/a	n/a
1439.478	n/a	REC_WORD	719739	wordpools/wasnorm_wordpool.txt	LTP129	ltpFR	4	8	1	SUGAR	1401	n/a	n/a	0	n/a	n/a	n/a	n/a	n/a
1441.218	n/a	REC_WORD	720609	wordpools/wasnorm_wordpool.txt	LTP129	ltpFR	4	8	1	ATTIC	56	n/a	n/a	1	n/a	n/a	n/a	n/a	n/a
1442.026	n/a	REC_WORD	721013	wordpools/wasnorm_wordpool.txt	LTP129	ltpFR	4	8	1	BALCONY	72	n/a	n/a	0	n/a	n/a	n/a	n/a	n/a
1462.766	n/a	REC_WORD	731383	wordpools/wasnorm_wordpool.txt	LTP129	ltpFR	4	8	1	COLT	349	n/a	n/a	1	n/a	n/a	n/a	n/a	n/a
1484.406	n/a	REC_WORD	742203	wordpools/wasnorm_wordpool.txt	LTP129	ltpFR	4	8	1	SEA	1259	n/a	n/a	1	n/a	n/a	n/a	n/a	n/a
1510.18	n/a	REC_WORD	755090	wordpools/wasnorm_wordpool.txt	LTP129	ltpFR	4	8	1	STAPLE	1371	n/a	n/a	0	n/a	n/a	n/a	n/a	n/a
1553.448	n/a	WORD	776724	wordpools/wasnorm_wordpool.txt	LTP129	ltpFR	4	9	1	DIRECTOR	471	n/a	n/a	1	0.57763671875	0.412841796875	1	lower	amplitud.ttf
1557.622	n/a	WORD	778811	wordpools/wasnorm_wordpool.txt	LTP129	ltpFR	4	9	1	STEAM	1375	n/a	n/a	0	0.57763671875	0.412841796875	1	lower	amplitud.ttf
1561.788	n/a	WORD	780894	wordpools/wasnorm_wordpool.txt	LTP129	ltpFR	4	9	1	DENTIST	447	n/a	n/a	1	0.57763671875	0.412841796875	1	lower	amplitud.ttf
1565.796	n/a	WORD	782898	wordpools/wasnorm_wordpool.txt	LTP129	ltpFR	4	9	1	SEED	1266	n/a	n/a	0	0.57763671875	0.412841796875	1	lower	amplitud.ttf
1569.786	n/a	WORD	784893	wordpools/wasnorm_wordpool.txt	LTP129	ltpFR	4	9	0	DIAMOND	458	n/a	n/a	1	0.422607421875	0.5869140625	0	upper	zerothre.ttf
1573.91	n/a	WORD	786955	wordpools/wasnorm_wordpool.txt	LTP129	ltpFR	4	9	0	DOORBELL	487	n/a	n/a	0	0.422607421875	0.5869140625	0	upper	zerothre.ttf
1577.916	n/a	WORD	788958	wordpools/wasnorm_wordpool.txt	LTP129	ltpFR	4	9	0	BRIDGE	174	n/a	n/a	1	0.422607421875	0.5869140625	0	upper	zerothre.ttf
1581.782	n/a	WORD	790891	wordpools/wasnorm_wordpool.txt	LTP129	ltpFR	4	9	1	OCEAN	970	n/a	n/a	1	0.57763671875	0.412841796875	1	lower	amplitud.ttf
1585.806	n/a	WORD	792903	wordpools/wasnorm_wordpool.txt	LTP129	ltpFR	4	9	1	BABY	64	n/a	n/a	0	0.57763671875	0.412841796875	1	lower	amplitud.ttf
1589.738	n/a	WORD	794869	wordpools/wasnorm_wordpool.txt	LTP129	ltpFR	4	9	1	SAILOR	1223	n/a	n/a	1	0.57763671875	0.412841796875	1	lower	amplitud.ttf
1593.694	n/a	WORD	796847	wordpools/wasnorm_wordpool.txt	LTP129	ltpFR	4	9	1	LILY	821	n/a	n/a	0	0.57763671875	0.412841796875	1	lower	amplitud.ttf
1597.718	n/a	WORD	798859	wordpools/wasnorm_wordpool.txt	LTP129	ltpFR	4	9	0	WALRUS	1585	n/a	n/a	1	0.422607421875	0.5869140625	0	upper	zerothre.ttf
1601.902	n/a	WORD	800951	wordpools/wasnorm_wordpool.txt	LTP129	ltpFR	4	9	0	PAVEMENT	1028	n/a	n/a	0	0.422607421875	0.5869140625	0	upper	zerothre.ttf
1605.716	n/a	WORD	802858	wordpools/wasnorm_wordpool.txt	LTP129	ltpFR	4	9	0	BLOCKADE	137	n/a	n/a	1	0.422607421875	0.5869140625	0	upper	zerothre.ttf
1609.664	n/a	WORD	804832	wordpools/wasnorm_wordpool.txt	LTP129	ltpFR	4	9	0	EMPLOYER	532	n/a	n/a	1	0.422607421875	0.5869140625	0	upper	zerothre.ttf
1613.722	n/a	WORD	806861	wordpools/wasnorm_wordpool.txt	LTP129	ltpFR	4	9	0	BARK	87	n/a	n/a	0	0.422607421875	0.5869140625	0	upper	zerothre.ttf
1619.412	n/a	REC_START	809706	n/a	LTP129	ltpFR	4	9	n/a	n/a	n/a	n/a	n/a	n/a	n/a	n/a	n/a	n/a	n/a
1620.016	n/a	REC_WORD	810008	wordpools/wasnorm_wordpool.txt	LTP129	ltpFR	4	9	0	BARK	87	n/a	n/a	0	n/a	n/a	n/a	n/a	n/a
1620.674	n/a	REC_WORD	810337	wordpools/wasnorm_wordpool.txt	LTP129	ltpFR	4	9	0	BLOCKADE	137	n/a	n/a	1	n/a	n/a	n/a	n/a	n/a
1622.57	n/a	REC_WORD	811285	wordpools/wasnorm_wordpool.txt	LTP129	ltpFR	4	9	1	DIRECTOR	471	n/a	n/a	1	n/a	n/a	n/a	n/a	n/a
1623.538	n/a	REC_WORD	811769	wordpools/wasnorm_wordpool.txt	LTP129	ltpFR	4	9	1	STEAM	1375	n/a	n/a	0	n/a	n/a	n/a	n/a	n/a
1630.478	n/a	REC_WORD	815239	wordpools/wasnorm_wordpool.txt	LTP129	ltpFR	4	9	1	SEED	1266	n/a	n/a	0	n/a	n/a	n/a	n/a	n/a
1656.514	n/a	REC_WORD	828257	wordpools/wasnorm_wordpool.txt	LTP129	ltpFR	4	9	0	DIAMOND	458	n/a	n/a	1	n/a	n/a	n/a	n/a	n/a
1659.03	n/a	REC_WORD_VV	829515	wordpools/wasnorm_wordpool.txt	LTP129	ltpFR	4	9	n/a	<>	-1	n/a	n/a	n/a	n/a	n/a	n/a	n/a	n/a
1659.918	n/a	REC_WORD_VV	829959	wordpools/wasnorm_wordpool.txt	LTP129	ltpFR	4	9	n/a	<>	-1	n/a	n/a	n/a	n/a	n/a	n/a	n/a	n/a
1661.988	n/a	REC_WORD	830994	wordpools/wasnorm_wordpool.txt	LTP129	ltpFR	4	9	0	DOORBELL	487	n/a	n/a	0	n/a	n/a	n/a	n/a	n/a
1673.866	n/a	REC_WORD	836933	wordpools/wasnorm_wordpool.txt	LTP129	ltpFR	4	9	0	WALRUS	1585	n/a	n/a	1	n/a	n/a	n/a	n/a	n/a
1676.266	n/a	REC_WORD	838133	wordpools/wasnorm_wordpool.txt	LTP129	ltpFR	4	9	1	OCEAN	970	n/a	n/a	1	n/a	n/a	n/a	n/a	n/a
1687.156	n/a	REC_WORD	843578	wordpools/wasnorm_wordpool.txt	LTP129	ltpFR	4	9	1	LILY	821	n/a	n/a	0	n/a	n/a	n/a	n/a	n/a
1692.678	n/a	REC_WORD	846339	wordpools/wasnorm_wordpool.txt	LTP129	ltpFR	4	9	0	PAVEMENT	1028	n/a	n/a	0	n/a	n/a	n/a	n/a	n/a
1707.292	n/a	WORD	853646	wordpools/wasnorm_wordpool.txt	LTP129	ltpFR	4	10	1	STOOL	1386	n/a	n/a	0	0.57763671875	0.412841796875	1	lower	amplitud.ttf
1711.5	n/a	WORD	855750	wordpools/wasnorm_wordpool.txt	LTP129	ltpFR	4	10	1	HOOK	715	n/a	n/a	0	0.57763671875	0.412841796875	1	lower	amplitud.ttf
1715.624	n/a	WORD	857812	wordpools/wasnorm_wordpool.txt	LTP129	ltpFR	4	10	1	SAXOPHONE	1240	n/a	n/a	0	0.57763671875	0.412841796875	1	lower	amplitud.ttf
1719.806	n/a	WORD	859903	wordpools/wasnorm_wordpool.txt	LTP129	ltpFR	4	10	0	TORTOISE	1486	n/a	n/a	1	0.422607421875	0.5869140625	0	upper	zerothre.ttf
1723.63	n/a	WORD	861815	wordpools/wasnorm_wordpool.txt	LTP129	ltpFR	4	10	0	WARRIOR	1589	n/a	n/a	1	0.422607421875	0.5869140625	0	upper	zerothre.ttf
1727.812	n/a	WORD	863906	wordpools/wasnorm_wordpool.txt	LTP129	ltpFR	4	10	0	POSTAGE	1113	n/a	n/a	0	0.422607421875	0.5869140625	0	upper	zerothre.ttf
1731.996	n/a	WORD	865998	wordpools/wasnorm_wordpool.txt	LTP129	ltpFR	4	10	0	FURNITURE	616	n/a	n/a	1	0.422607421875	0.5869140625	0	upper	zerothre.ttf
1736.036	n/a	WORD	868018	wordpools/wasnorm_wordpool.txt	LTP129	ltpFR	4	10	1	TUBE	1516	n/a	n/a	0	0.57763671875	0.412841796875	1	lower	amplitud.ttf
1740.05	n/a	WORD	870025	wordpools/wasnorm_wordpool.txt	LTP129	ltpFR	4	10	1	SURVEY	1414	n/a	n/a	1	0.57763671875	0.412841796875	1	lower	amplitud.ttf
1743.974	n/a	WORD	871987	wordpools/wasnorm_wordpool.txt	LTP129	ltpFR	4	10	1	MONGOOSE	909	n/a	n/a	1	0.57763671875	0.412841796875	1	lower	amplitud.ttf
1747.84	n/a	WORD	873920	wordpools/wasnorm_wordpool.txt	LTP129	ltpFR	4	10	0	REPTILE	1185	n/a	n/a	1	0.422607421875	0.5869140625	0	upper	zerothre.ttf
1751.872	n/a	WORD	875936	wordpools/wasnorm_wordpool.txt	LTP129	ltpFR	4	10	0	VICTIM	1562	n/a	n/a	0	0.422607421875	0.5869140625	0	upper	zerothre.ttf
1755.854	n/a	WORD	877927	wordpools/wasnorm_wordpool.txt	LTP129	ltpFR	4	10	0	DUNGEON	507	n/a	n/a	1	0.422607421875	0.5869140625	0	upper	zerothre.ttf
1759.912	n/a	WORD	879956	wordpools/wasnorm_wordpool.txt	LTP129	ltpFR	4	10	0	WARDROBE	1587	n/a	n/a	1	0.422607421875	0.5869140625	0	upper	zerothre.ttf
1763.794	n/a	WORD	881897	wordpools/wasnorm_wordpool.txt	LTP129	ltpFR	4	10	1	BUGLE	189	n/a	n/a	1	0.57763671875	0.412841796875	1	lower	amplitud.ttf
1767.934	n/a	WORD	883967	wordpools/wasnorm_wordpool.txt	LTP129	ltpFR	4	10	1	OYSTER	995	n/a	n/a	1	0.57763671875	0.412841796875	1	lower	amplitud.ttf
1773.758	n/a	REC_START	886879	n/a	LTP129	ltpFR	4	10	n/a	n/a	n/a	n/a	n/a	n/a	n/a	n/a	n/a	n/a	n/a
1774.606	n/a	REC_WORD	887303	wordpools/wasnorm_wordpool.txt	LTP129	ltpFR	4	10	1	BUGLE	189	n/a	n/a	1	n/a	n/a	n/a	n/a	n/a
1775.578	n/a	REC_WORD	887789	wordpools/wasnorm_wordpool.txt	LTP129	ltpFR	4	10	1	OYSTER	995	n/a	n/a	1	n/a	n/a	n/a	n/a	n/a
1776.696	n/a	REC_WORD	888348	wordpools/wasnorm_wordpool.txt	LTP129	ltpFR	4	10	0	DUNGEON	507	n/a	n/a	1	n/a	n/a	n/a	n/a	n/a
1779.848	n/a	REC_WORD	889924	wordpools/wasnorm_wordpool.txt	LTP129	ltpFR	4	10	n/a	SERPENT	1270	n/a	n/a	n/a	n/a	n/a	n/a	n/a	n/a
1784.144	n/a	REC_WORD	892072	wordpools/wasnorm_wordpool.txt	LTP129	ltpFR	4	10	0	VICTIM	1562	n/a	n/a	0	n/a	n/a	n/a	n/a	n/a
1786.378	n/a	REC_WORD	893189	wordpools/wasnorm_wordpool.txt	LTP129	ltpFR	4	10	1	MONGOOSE	909	n/a	n/a	1	n/a	n/a	n/a	n/a	n/a
1790.794	n/a	REC_WORD	895397	wordpools/wasnorm_wordpool.txt	LTP129	ltpFR	4	10	0	WARDROBE	1587	n/a	n/a	1	n/a	n/a	n/a	n/a	n/a
1798.752	n/a	REC_WORD	899376	wordpools/wasnorm_wordpool.txt	LTP129	ltpFR	4	10	1	HOOK	715	n/a	n/a	0	n/a	n/a	n/a	n/a	n/a
1911.374	n/a	WORD	955687	wordpools/wasnorm_wordpool.txt	LTP129	ltpFR	4	11	1	INSTRUCTOR	741	n/a	n/a	1	0.57763671875	0.412841796875	1	lower	amplitud.ttf
1915.456	n/a	WORD	957728	wordpools/wasnorm_wordpool.txt	LTP129	ltpFR	4	11	1	STY	1397	n/a	n/a	0	0.57763671875	0.412841796875	1	lower	amplitud.ttf
1919.48	n/a	WORD	959740	wordpools/wasnorm_wordpool.txt	LTP129	ltpFR	4	11	1	LOLLIPOP	842	n/a	n/a	0	0.57763671875	0.412841796875	1	lower	amplitud.ttf
1923.586	n/a	WORD	961793	wordpools/wasnorm_wordpool.txt	LTP129	ltpFR	4	11	1	CANDY	230	n/a	n/a	0	0.57763671875	0.412841796875	1	lower	amplitud.ttf
1927.768	n/a	WORD	963884	wordpools/wasnorm_wordpool.txt	LTP129	ltpFR	4	11	1	CARD	243	n/a	n/a	0	0.57763671875	0.412841796875	1	lower	amplitud.ttf
1931.776	n/a	WORD	965888	wordpools/wasnorm_wordpool.txt	LTP129	ltpFR	4	11	1	MAILMAN	858	n/a	n/a	1	0.57763671875	0.412841796875	1	lower	amplitud.ttf
1935.632	n/a	WORD	967816	wordpools/wasnorm_wordpool.txt	LTP129	ltpFR	4	11	1	CANARY	227	n/a	n/a	0	0.57763671875	0.412841796875	1	lower	amplitud.ttf
1939.632	n/a	WORD	969816	wordpools/wasnorm_wordpool.txt	LTP129	ltpFR	4	11	1	PERISCOPE	1050	n/a	n/a	0	0.57763671875	0.412841796875	1	lower	amplitud.ttf
1943.83	n/a	WORD	971915	wordpools/wasnorm_wordpool.txt	LTP129	ltpFR	4	11	1	BOY	161	n/a	n/a	1	0.57763671875	0.412841796875	1	lower	amplitud.ttf
1947.73	n/a	WORD	973865	wordpools/wasnorm_wordpool.txt	LTP129	ltpFR	4	11	1	BOX	159	n/a	n/a	0	0.57763671875	0.412841796875	1	lower	amplitud.ttf
1951.662	n/a	WORD	975831	wordpools/wasnorm_wordpool.txt	LTP129	ltpFR	4	11	1	CARPENTER	246	n/a	n/a	0	0.57763671875	0.412841796875	1	lower	amplitud.ttf
1955.718	n/a	WORD	977859	wordpools/wasnorm_wordpool.txt	LTP129	ltpFR	4	11	1	LASH	802	n/a	n/a	0	0.57763671875	0.412841796875	1	lower	amplitud.ttf
1959.892	n/a	WORD	979946	wordpools/wasnorm_wordpool.txt	LTP129	ltpFR	4	11	1	LAKE	796	n/a	n/a	1	0.57763671875	0.412841796875	1	lower	amplitud.ttf
1963.834	n/a	WORD	981917	wordpools/wasnorm_wordpool.txt	LTP129	ltpFR	4	11	1	HOSE	720	n/a	n/a	0	0.57763671875	0.412841796875	1	lower	amplitud.ttf
1968.006	n/a	WORD	984003	wordpools/wasnorm_wordpool.txt	LTP129	ltpFR	4	11	1	STUDENT	1395	n/a	n/a	0	0.57763671875	0.412841796875	1	lower	amplitud.ttf
1972.08	n/a	WORD	986040	wordpools/wasnorm_wordpool.txt	LTP129	ltpFR	4	11	1	CRATER	400	n/a	n/a	0	0.57763671875	0.412841796875	1	lower	amplitud.ttf
1978.022	n/a	REC_START	989011	n/a	LTP129	ltpFR	4	11	n/a	n/a	n/a	n/a	n/a	n/a	n/a	n/a	n/a	n/a	n/a
1978.57	n/a	REC_WORD	989285	wordpools/wasnorm_wordpool.txt	LTP129	ltpFR	4	11	1	HOSE	720	n/a	n/a	0	n/a	n/a	n/a	n/a	n/a
1979.622	n/a	REC_WORD	989811	wordpools/wasnorm_wordpool.txt	LTP129	ltpFR	4	11	1	CRATER	400	n/a	n/a	0	n/a	n/a	n/a	n/a	n/a
1980.776	n/a	REC_WORD	990388	wordpools/wasnorm_wordpool.txt	LTP129	ltpFR	4	11	1	PERISCOPE	1050	n/a	n/a	0	n/a	n/a	n/a	n/a	n/a
1981.892	n/a	REC_WORD	990946	wordpools/wasnorm_wordpool.txt	LTP129	ltpFR	4	11	1	BOY	161	n/a	n/a	1	n/a	n/a	n/a	n/a	n/a
1982.74	n/a	REC_WORD	991370	wordpools/wasnorm_wordpool.txt	LTP129	ltpFR	4	11	1	BOX	159	n/a	n/a	0	n/a	n/a	n/a	n/a	n/a
1983.684	n/a	REC_WORD	991842	wordpools/wasnorm_wordpool.txt	LTP129	ltpFR	4	11	1	CARPENTER	246	n/a	n/a	0	n/a	n/a	n/a	n/a	n/a
1990.582	n/a	REC_WORD	995291	wordpools/wasnorm_wordpool.txt	LTP129	ltpFR	4	11	1	INSTRUCTOR	741	n/a	n/a	1	n/a	n/a	n/a	n/a	n/a
1996.39	n/a	REC_WORD	998195	wordpools/wasnorm_wordpool.txt	LTP129	ltpFR	4	11	1	STY	1397	n/a	n/a	0	n/a	n/a	n/a	n/a	n/a
1997.698	n/a	REC_WORD	998849	wordpools/wasnorm_wordpool.txt	LTP129	ltpFR	4	11	1	LOLLIPOP	842	n/a	n/a	0	n/a	n/a	n/a	n/a	n/a
2000.766	n/a	REC_WORD	1000383	wordpools/wasnorm_wordpool.txt	LTP129	ltpFR	4	11	1	CANDY	230	n/a	n/a	0	n/a	n/a	n/a	n/a	n/a
2068.66	n/a	WORD	1034330	wordpools/wasnorm_wordpool.txt	LTP129	ltpFR	4	12	1	WAVE	1596	n/a	n/a	1	0.57763671875	0.412841796875	1	lower	amplitud.ttf
2072.692	n/a	WORD	1036346	wordpools/wasnorm_wordpool.txt	LTP129	ltpFR	4	12	1	POOL	1103	n/a	n/a	0	0.57763671875	0.412841796875	1	lower	amplitud.ttf
2076.632	n/a	WORD	1038316	wordpools/wasnorm_wordpool.txt	LTP129	ltpFR	4	12	1	LIZARD	834	n/a	n/a	1	0.57763671875	0.412841796875	1	lower	amplitud.ttf
2080.764	n/a	WORD	1040382	wordpools/wasnorm_wordpool.txt	LTP129	ltpFR	4	12	1	FIDDLE	561	n/a	n/a	0	0.57763671875	0.412841796875	1	lower	amplitud.ttf
2084.772	n/a	WORD	1042386	wordpools/wasnorm_wordpool.txt	LTP129	ltpFR	4	12	1	PUBLICATION	1136	n/a	n/a	1	0.57763671875	0.412841796875	1	lower	amplitud.ttf
2088.652	n/a	WORD	1044326	wordpools/wasnorm_wordpool.txt	LTP129	ltpFR	4	12	1	BOOK	149	n/a	n/a	0	0.57763671875	0.412841796875	1	lower	amplitud.ttf
2092.786	n/a	WORD	1046393	wordpools/wasnorm_wordpool.txt	LTP129	ltpFR	4	12	1	DUNE	506	n/a	n/a	0	0.57763671875	0.412841796875	1	lower	amplitud.ttf
2096.884	n/a	WORD	1048442	wordpools/wasnorm_wordpool.txt	LTP129	ltpFR	4	12	1	BADGE	68	n/a	n/a	0	0.57763671875	0.412841796875	1	lower	amplitud.ttf
2100.832	n/a	WORD	1050416	wordpools/wasnorm_wordpool.txt	LTP129	ltpFR	4	12	1	LEOPARD	812	n/a	n/a	0	0.57763671875	0.412841796875	1	lower	amplitud.ttf
2104.956	n/a	WORD	1052478	wordpools/wasnorm_wordpool.txt	LTP129	ltpFR	4	12	1	HOOP	716	n/a	n/a	1	0.57763671875	0.412841796875	1	lower	amplitud.ttf
2109.082	n/a	WORD	1054541	wordpools/wasnorm_wordpool.txt	LTP129	ltpFR	4	12	1	RATTLE	1170	n/a	n/a	1	0.57763671875	0.412841796875	1	lower	amplitud.ttf
2113.278	n/a	WORD	1056639	wordpools/wasnorm_wordpool.txt	LTP129	ltpFR	4	12	1	SENATOR	1268	n/a	n/a	1	0.57763671875	0.412841796875	1	lower	amplitud.ttf
2117.12	n/a	WORD	1058560	wordpools/wasnorm_wordpool.txt	LTP129	ltpFR	4	12	1	CHAIRPERSON	275	n/a	n/a	1	0.57763671875	0.412841796875	1	lower	amplitud.ttf
2121.168	n/a	WORD	1060584	wordpools/wasnorm_wordpool.txt	LTP129	ltpFR	4	12	1	KNOT	788	n/a	n/a	0	0.57763671875	0.412841796875	1	lower	amplitud.ttf
2125.042	n/a	WORD	1062521	wordpools/wasnorm_wordpool.txt	LTP129	ltpFR	4	12	1	CROCODILE	411	n/a	n/a	1	0.57763671875	0.412841796875	1	lower	amplitud.ttf
2128.974	n/a	WORD	1064487	wordpools/wasnorm_wordpool.txt	LTP129	ltpFR	4	12	1	RECORD	1176	n/a	n/a	0	0.57763671875	0.412841796875	1	lower	amplitud.ttf
2134.748	n/a	REC_START	1067374	n/a	LTP129	ltpFR	4	12	n/a	n/a	n/a	n/a	n/a	n/a	n/a	n/a	n/a	n/a	n/a
2135.158	n/a	REC_WORD	1067579	wordpools/wasnorm_wordpool.txt	LTP129	ltpFR	4	12	1	RECORD	1176	n/a	n/a	0	n/a	n/a	n/a	n/a	n/a
2136.224	n/a	REC_WORD	1068112	wordpools/wasnorm_wordpool.txt	LTP129	ltpFR	4	12	1	WAVE	1596	n/a	n/a	1	n/a	n/a	n/a	n/a	n/a
2136.754	n/a	REC_WORD	1068377	wordpools/wasnorm_wordpool.txt	LTP129	ltpFR	4	12	1	POOL	1103	n/a	n/a	0	n/a	n/a	n/a	n/a	n/a
2139.466	n/a	REC_WORD	1069733	wordpools/wasnorm_wordpool.txt	LTP129	ltpFR	4	12	1	PUBLICATION	1136	n/a	n/a	1	n/a	n/a	n/a	n/a	n/a
2140.546	n/a	REC_WORD	1070273	wordpools/wasnorm_wordpool.txt	LTP129	ltpFR	4	12	1	BOOK	149	n/a	n/a	0	n/a	n/a	n/a	n/a	n/a
2144.146	n/a	REC_WORD	1072073	wordpools/wasnorm_wordpool.txt	LTP129	ltpFR	4	12	1	RATTLE	1170	n/a	n/a	1	n/a	n/a	n/a	n/a	n/a
2187.85	n/a	REC_WORD	1093925	wordpools/wasnorm_wordpool.txt	LTP129	ltpFR	4	12	1	KNOT	788	n/a	n/a	0	n/a	n/a	n/a	n/a	n/a
2210.35	n/a	REST_REWET	1105175	n/a	LTP129	ltpFR	4	12	n/a	n/a	n/a	n/a	n/a	n/a	n/a	n/a	n/a	n/a	n/a
2490.782	n/a	WORD	1245391	wordpools/wasnorm_wordpool.txt	LTP129	ltpFR	4	13	-1	VALVE	1546	n/a	n/a	-1	1.0	1.0	1	upper	Verdana.ttf
2494.722	n/a	WORD	1247361	wordpools/wasnorm_wordpool.txt	LTP129	ltpFR	4	13	-1	CUBE	420	n/a	n/a	-1	1.0	1.0	1	upper	Verdana.ttf
2498.78	n/a	WORD	1249390	wordpools/wasnorm_wordpool.txt	LTP129	ltpFR	4	13	-1	BAKER	71	n/a	n/a	-1	1.0	1.0	1	upper	Verdana.ttf
2502.852	n/a	WORD	1251426	wordpools/wasnorm_wordpool.txt	LTP129	ltpFR	4	13	-1	SKETCH	1315	n/a	n/a	-1	1.0	1.0	1	upper	Verdana.ttf
2506.968	n/a	WORD	1253484	wordpools/wasnorm_wordpool.txt	LTP129	ltpFR	4	13	-1	TAPE	1433	n/a	n/a	-1	1.0	1.0	1	upper	Verdana.ttf
2511.16	n/a	WORD	1255580	wordpools/wasnorm_wordpool.txt	LTP129	ltpFR	4	13	-1	STEP	1377	n/a	n/a	-1	1.0	1.0	1	upper	Verdana.ttf
2515.0	n/a	WORD	1257500	wordpools/wasnorm_wordpool.txt	LTP129	ltpFR	4	13	-1	OWL	992	n/a	n/a	-1	1.0	1.0	1	upper	Verdana.ttf
2519.082	n/a	WORD	1259541	wordpools/wasnorm_wordpool.txt	LTP129	ltpFR	4	13	-1	ASH	44	n/a	n/a	-1	1.0	1.0	1	upper	Verdana.ttf
2523.288	n/a	WORD	1261644	wordpools/wasnorm_wordpool.txt	LTP129	ltpFR	4	13	-1	LIGHTER	819	n/a	n/a	-1	1.0	1.0	1	upper	Verdana.ttf
2527.22	n/a	WORD	1263610	wordpools/wasnorm_wordpool.txt	LTP129	ltpFR	4	13	-1	PAINTING	1005	n/a	n/a	-1	1.0	1.0	1	upper	Verdana.ttf
2531.42	n/a	WORD	1265710	wordpools/wasnorm_wordpool.txt	LTP129	ltpFR	4	13	-1	TRAY	1498	n/a	n/a	-1	1.0	1.0	1	upper	Verdana.ttf
2535.61	n/a	WORD	1267805	wordpools/wasnorm_wordpool.txt	LTP129	ltpFR	4	13	-1	PUB	1135	n/a	n/a	-1	1.0	1.0	1	upper	Verdana.ttf
2539.592	n/a	WORD	1269796	wordpools/wasnorm_wordpool.txt	LTP129	ltpFR	4	13	-1	BARREL	91	n/a	n/a	-1	1.0	1.0	1	upper	Verdana.ttf
2543.75	n/a	WORD	1271875	wordpools/wasnorm_wordpool.txt	LTP129	ltpFR	4	13	-1	COOK	372	n/a	n/a	-1	1.0	1.0	1	upper	Verdana.ttf
2547.848	n/a	WORD	1273924	wordpools/wasnorm_wordpool.txt	LTP129	ltpFR	4	13	-1	LOAF	835	n/a	n/a	-1	1.0	1.0	1	upper	Verdana.ttf
2551.664	n/a	WORD	1275832	wordpools/wasnorm_wordpool.txt	LTP129	ltpFR	4	13	-1	CONSOLE	364	n/a	n/a	-1	1.0	1.0	1	upper	Verdana.ttf
2557.378	n/a	REC_START	1278689	n/a	LTP129	ltpFR	4	13	n/a	n/a	n/a	n/a	n/a	n/a	n/a	n/a	n/a	n/a	n/a
2557.918	n/a	REC_WORD	1278959	wordpools/wasnorm_wordpool.txt	LTP129	ltpFR	4	13	-1	CONSOLE	364	n/a	n/a	-1	n/a	n/a	n/a	n/a	n/a
2559.988	n/a	REC_WORD	1279994	wordpools/wasnorm_wordpool.txt	LTP129	ltpFR	4	13	-1	LOAF	835	n/a	n/a	-1	n/a	n/a	n/a	n/a	n/a
2566.998	n/a	REC_WORD	1283499	wordpools/wasnorm_wordpool.txt	LTP129	ltpFR	4	13	-1	VALVE	1546	n/a	n/a	-1	n/a	n/a	n/a	n/a	n/a
2570.076	n/a	REC_WORD	1285038	wordpools/wasnorm_wordpool.txt	LTP129	ltpFR	4	13	-1	CUBE	420	n/a	n/a	-1	n/a	n/a	n/a	n/a	n/a
2571.338	n/a	REC_WORD	1285669	wordpools/wasnorm_wordpool.txt	LTP129	ltpFR	4	13	-1	BAKER	71	n/a	n/a	-1	n/a	n/a	n/a	n/a	n/a
2572.79	n/a	REC_WORD	1286395	wordpools/wasnorm_wordpool.txt	LTP129	ltpFR	4	13	-1	SKETCH	1315	n/a	n/a	-1	n/a	n/a	n/a	n/a	n/a
2574.576	n/a	REC_WORD	1287288	wordpools/wasnorm_wordpool.txt	LTP129	ltpFR	4	13	-1	TAPE	1433	n/a	n/a	-1	n/a	n/a	n/a	n/a	n/a
2579.124	n/a	REC_WORD	1289562	wordpools/wasnorm_wordpool.txt	LTP129	ltpFR	4	13	-1	STEP	1377	n/a	n/a	-1	n/a	n/a	n/a	n/a	n/a
2590.27	n/a	REC_WORD	1295135	wordpools/wasnorm_wordpool.txt	LTP129	ltpFR	4	13	-1	OWL	992	n/a	n/a	-1	n/a	n/a	n/a	n/a	n/a
2591.728	n/a	REC_WORD	1295864	wordpools/wasnorm_wordpool.txt	LTP129	ltpFR	4	13	-1	LIGHTER	819	n/a	n/a	-1	n/a	n/a	n/a	n/a	n/a
2593.454	n/a	REC_WORD	1296727	wordpools/wasnorm_wordpool.txt	LTP129	ltpFR	4	13	-1	ASH	44	n/a	n/a	-1	n/a	n/a	n/a	n/a	n/a
2596.108	n/a	REC_WORD	1298054	wordpools/wasnorm_wordpool.txt	LTP129	ltpFR	4	13	-1	TRAY	1498	n/a	n/a	-1	n/a	n/a	n/a	n/a	n/a
2600.918	n/a	REC_WORD	1300459	wordpools/wasnorm_wordpool.txt	LTP129	ltpFR	4	13	-1	PAINTING	1005	n/a	n/a	-1	n/a	n/a	n/a	n/a	n/a
2604.34	n/a	REC_WORD	1302170	wordpools/wasnorm_wordpool.txt	LTP129	ltpFR	4	13	-1	PUB	1135	n/a	n/a	-1	n/a	n/a	n/a	n/a	n/a
2606.02	n/a	REC_WORD	1303010	wordpools/wasnorm_wordpool.txt	LTP129	ltpFR	4	13	-1	BARREL	91	n/a	n/a	-1	n/a	n/a	n/a	n/a	n/a
2609.288	n/a	REC_WORD	1304644	wordpools/wasnorm_wordpool.txt	LTP129	ltpFR	4	13	-1	COOK	372	n/a	n/a	-1	n/a	n/a	n/a	n/a	n/a
2619.426	n/a	REC_WORD	1309713	wordpools/wasnorm_wordpool.txt	LTP129	ltpFR	4	13	-1	CONSOLE	364	n/a	n/a	-1	n/a	n/a	n/a	n/a	n/a
2637.636	n/a	WORD	1318818	wordpools/wasnorm_wordpool.txt	LTP129	ltpFR	4	14	0	TRENCH	1503	n/a	n/a	1	0.422607421875	0.5869140625	0	upper	zerothre.ttf
2641.762	n/a	WORD	1320881	wordpools/wasnorm_wordpool.txt	LTP129	ltpFR	4	14	0	PRODUCER	1129	n/a	n/a	1	0.422607421875	0.5869140625	0	upper	zerothre.ttf
2645.944	n/a	WORD	1322972	wordpools/wasnorm_wordpool.txt	LTP129	ltpFR	4	14	0	CROWN	415	n/a	n/a	1	0.422607421875	0.5869140625	0	upper	zerothre.ttf
2649.766	n/a	WORD	1324883	wordpools/wasnorm_wordpool.txt	LTP129	ltpFR	4	14	0	PALACE	1006	n/a	n/a	1	0.422607421875	0.5869140625	0	upper	zerothre.ttf
2653.974	n/a	WORD	1326987	wordpools/wasnorm_wordpool.txt	LTP129	ltpFR	4	14	0	SPOUSE	1358	n/a	n/a	0	0.422607421875	0.5869140625	0	upper	zerothre.ttf
2657.914	n/a	WORD	1328957	wordpools/wasnorm_wordpool.txt	LTP129	ltpFR	4	14	0	TAR	1435	n/a	n/a	0	0.422607421875	0.5869140625	0	upper	zerothre.ttf
2661.814	n/a	WORD	1330907	wordpools/wasnorm_wordpool.txt	LTP129	ltpFR	4	14	0	RUG	1215	n/a	n/a	0	0.422607421875	0.5869140625	0	upper	zerothre.ttf
2665.988	n/a	WORD	1332994	wordpools/wasnorm_wordpool.txt	LTP129	ltpFR	4	14	0	TEAPOT	1442	n/a	n/a	0	0.422607421875	0.5869140625	0	upper	zerothre.ttf
2669.886	n/a	WORD	1334943	wordpools/wasnorm_wordpool.txt	LTP129	ltpFR	4	14	0	CREVICE	405	n/a	n/a	0	0.422607421875	0.5869140625	0	upper	zerothre.ttf
2674.026	n/a	WORD	1337013	wordpools/wasnorm_wordpool.txt	LTP129	ltpFR	4	14	0	ENGINEER	536	n/a	n/a	1	0.422607421875	0.5869140625	0	upper	zerothre.ttf
2678.208	n/a	WORD	1339104	wordpools/wasnorm_wordpool.txt	LTP129	ltpFR	4	14	0	WAITER	1580	n/a	n/a	1	0.422607421875	0.5869140625	0	upper	zerothre.ttf
2682.09	n/a	WORD	1341045	wordpools/wasnorm_wordpool.txt	LTP129	ltpFR	4	14	0	SNACK	1331	n/a	n/a	0	0.422607421875	0.5869140625	0	upper	zerothre.ttf
2685.94	n/a	WORD	1342970	wordpools/wasnorm_wordpool.txt	LTP129	ltpFR	4	14	0	BEEF	113	n/a	n/a	1	0.422607421875	0.5869140625	0	upper	zerothre.ttf
2690.038	n/a	WORD	1345019	wordpools/wasnorm_wordpool.txt	LTP129	ltpFR	4	14	0	WATER	1594	n/a	n/a	1	0.422607421875	0.5869140625	0	upper	zerothre.ttf
2693.962	n/a	WORD	1346981	wordpools/wasnorm_wordpool.txt	LTP129	ltpFR	4	14	0	WIFE	1609	n/a	n/a	0	0.422607421875	0.5869140625	0	upper	zerothre.ttf
2698.094	n/a	WORD	1349047	wordpools/wasnorm_wordpool.txt	LTP129	ltpFR	4	14	0	PILL	1068	n/a	n/a	0	0.422607421875	0.5869140625	0	upper	zerothre.ttf
2703.884	n/a	REC_START	1351942	n/a	LTP129	ltpFR	4	14	n/a	n/a	n/a	n/a	n/a	n/a	n/a	n/a	n/a	n/a	n/a
2707.068	n/a	REC_WORD	1353534	wordpools/wasnorm_wordpool.txt	LTP129	ltpFR	4	14	0	TRENCH	1503	n/a	n/a	1	n/a	n/a	n/a	n/a	n/a
2708.254	n/a	REC_WORD	1354127	wordpools/wasnorm_wordpool.txt	LTP129	ltpFR	4	14	0	PRODUCER	1129	n/a	n/a	1	n/a	n/a	n/a	n/a	n/a
2709.85	n/a	REC_WORD	1354925	wordpools/wasnorm_wordpool.txt	LTP129	ltpFR	4	14	0	CROWN	415	n/a	n/a	1	n/a	n/a	n/a	n/a	n/a
2711.004	n/a	REC_WORD	1355502	wordpools/wasnorm_wordpool.txt	LTP129	ltpFR	4	14	0	PALACE	1006	n/a	n/a	1	n/a	n/a	n/a	n/a	n/a
2713.762	n/a	REC_WORD	1356881	wordpools/wasnorm_wordpool.txt	LTP129	ltpFR	4	14	0	SPOUSE	1358	n/a	n/a	0	n/a	n/a	n/a	n/a	n/a
2718.682	n/a	REC_WORD	1359341	wordpools/wasnorm_wordpool.txt	LTP129	ltpFR	4	14	0	RUG	1215	n/a	n/a	0	n/a	n/a	n/a	n/a	n/a
2726.04	n/a	REC_WORD	1363020	wordpools/wasnorm_wordpool.txt	LTP129	ltpFR	4	14	0	CREVICE	405	n/a	n/a	0	n/a	n/a	n/a	n/a	n/a
2727.516	n/a	REC_WORD	1363758	wordpools/wasnorm_wordpool.txt	LTP129	ltpFR	4	14	0	ENGINEER	536	n/a	n/a	1	n/a	n/a	n/a	n/a	n/a
2733.16	n/a	REC_WORD	1366580	wordpools/wasnorm_wordpool.txt	LTP129	ltpFR	4	14	0	WIFE	1609	n/a	n/a	0	n/a	n/a	n/a	n/a	n/a
2740.718	n/a	REC_WORD	1370359	wordpools/wasnorm_wordpool.txt	LTP129	ltpFR	4	14	0	WAITER	1580	n/a	n/a	1	n/a	n/a	n/a	n/a	n/a
2743.078	n/a	REC_WORD	1371539	wordpools/wasnorm_wordpool.txt	LTP129	ltpFR	4	14	0	BEEF	113	n/a	n/a	1	n/a	n/a	n/a	n/a	n/a
2744.444	n/a	REC_WORD	1372222	wordpools/wasnorm_wordpool.txt	LTP129	ltpFR	4	14	0	SNACK	1331	n/a	n/a	0	n/a	n/a	n/a	n/a	n/a
2749.902	n/a	REC_WORD	1374951	wordpools/wasnorm_wordpool.txt	LTP129	ltpFR	4	14	0	WATER	1594	n/a	n/a	1	n/a	n/a	n/a	n/a	n/a
2757.844	n/a	REC_WORD	1378922	wordpools/wasnorm_wordpool.txt	LTP129	ltpFR	4	14	0	TEAPOT	1442	n/a	n/a	0	n/a	n/a	n/a	n/a	n/a
2815.466	n/a	WORD	1407733	wordpools/wasnorm_wordpool.txt	LTP129	ltpFR	4	15	0	BODY	145	n/a	n/a	1	0.422607421875	0.5869140625	0	upper	zerothre.ttf
2819.458	n/a	WORD	1409729	wordpools/wasnorm_wordpool.txt	LTP129	ltpFR	4	15	0	HANDKERCHIEF	686	n/a	n/a	0	0.422607421875	0.5869140625	0	upper	zerothre.ttf
2823.522	n/a	WORD	1411761	wordpools/wasnorm_wordpool.txt	LTP129	ltpFR	4	15	0	WHISKERS	1605	n/a	n/a	0	0.422607421875	0.5869140625	0	upper	zerothre.ttf
2827.58	n/a	WORD	1413790	wordpools/wasnorm_wordpool.txt	LTP129	ltpFR	4	15	0	PADDING	999	n/a	n/a	0	0.422607421875	0.5869140625	0	upper	zerothre.ttf
2831.62	n/a	WORD	1415810	wordpools/wasnorm_wordpool.txt	LTP129	ltpFR	4	15	1	DIPLOMA	470	n/a	n/a	0	0.57763671875	0.412841796875	1	lower	amplitud.ttf
2835.528	n/a	WORD	1417764	wordpools/wasnorm_wordpool.txt	LTP129	ltpFR	4	15	1	UNIVERSITY	1541	n/a	n/a	1	0.57763671875	0.412841796875	1	lower	amplitud.ttf
2839.55	n/a	WORD	1419775	wordpools/wasnorm_wordpool.txt	LTP129	ltpFR	4	15	0	PARENT	1013	n/a	n/a	1	0.422607421875	0.5869140625	0	upper	zerothre.ttf
2843.658	n/a	WORD	1421829	wordpools/wasnorm_wordpool.txt	LTP129	ltpFR	4	15	0	DOCTOR	478	n/a	n/a	1	0.422607421875	0.5869140625	0	upper	zerothre.ttf
2847.632	n/a	WORD	1423816	wordpools/wasnorm_wordpool.txt	LTP129	ltpFR	4	15	0	KNEE	784	n/a	n/a	0	0.422607421875	0.5869140625	0	upper	zerothre.ttf
2851.772	n/a	WORD	1425886	wordpools/wasnorm_wordpool.txt	LTP129	ltpFR	4	15	0	DRAWING	494	n/a	n/a	0	0.422607421875	0.5869140625	0	upper	zerothre.ttf
2855.654	n/a	WORD	1427827	wordpools/wasnorm_wordpool.txt	LTP129	ltpFR	4	15	1	MOTHER	921	n/a	n/a	1	0.57763671875	0.412841796875	1	lower	amplitud.ttf
2859.862	n/a	WORD	1429931	wordpools/wasnorm_wordpool.txt	LTP129	ltpFR	4	15	1	SCIENTIST	1249	n/a	n/a	1	0.57763671875	0.412841796875	1	lower	amplitud.ttf
2863.844	n/a	WORD	1431922	wordpools/wasnorm_wordpool.txt	LTP129	ltpFR	4	15	1	SHEARS	1276	n/a	n/a	0	0.57763671875	0.412841796875	1	lower	amplitud.ttf
2867.91	n/a	WORD	1433955	wordpools/wasnorm_wordpool.txt	LTP129	ltpFR	4	15	1	HATCHET	691	n/a	n/a	0	0.57763671875	0.412841796875	1	lower	amplitud.ttf
2871.9	n/a	WORD	1435950	wordpools/wasnorm_wordpool.txt	LTP129	ltpFR	4	15	1	CREEK	404	n/a	n/a	0	0.57763671875	0.412841796875	1	lower	amplitud.ttf
2876.032	n/a	WORD	1438016	wordpools/wasnorm_wordpool.txt	LTP129	ltpFR	4	15	1	CHECK	284	n/a	n/a	0	0.57763671875	0.412841796875	1	lower	amplitud.ttf
2882.022	n/a	REC_START	1441011	n/a	LTP129	ltpFR	4	15	n/a	n/a	n/a	n/a	n/a	n/a	n/a	n/a	n/a	n/a	n/a
2882.694	n/a	REC_WORD	1441347	wordpools/wasnorm_wordpool.txt	LTP129	ltpFR	4	15	1	SHEARS	1276	n/a	n/a	0	n/a	n/a	n/a	n/a	n/a
2883.738	n/a	REC_WORD	1441869	wordpools/wasnorm_wordpool.txt	LTP129	ltpFR	4	15	1	HATCHET	691	n/a	n/a	0	n/a	n/a	n/a	n/a	n/a
2884.722	n/a	REC_WORD	1442361	wordpools/wasnorm_wordpool.txt	LTP129	ltpFR	4	15	1	CREEK	404	n/a	n/a	0	n/a	n/a	n/a	n/a	n/a
2887.15	n/a	REC_WORD	1443575	wordpools/wasnorm_wordpool.txt	LTP129	ltpFR	4	15	1	CHECK	284	n/a	n/a	0	n/a	n/a	n/a	n/a	n/a
2888.438	n/a	REC_WORD	1444219	wordpools/wasnorm_wordpool.txt	LTP129	ltpFR	4	15	1	MOTHER	921	n/a	n/a	1	n/a	n/a	n/a	n/a	n/a
2889.55	n/a	REC_WORD	1444775	wordpools/wasnorm_wordpool.txt	LTP129	ltpFR	4	15	0	PARENT	1013	n/a	n/a	1	n/a	n/a	n/a	n/a	n/a
2891.002	n/a	REC_WORD	1445501	wordpools/wasnorm_wordpool.txt	LTP129	ltpFR	4	15	0	KNEE	784	n/a	n/a	0	n/a	n/a	n/a	n/a	n/a
2893.176	n/a	REC_WORD	1446588	wordpools/wasnorm_wordpool.txt	LTP129	ltpFR	4	15	0	DOCTOR	478	n/a	n/a	1	n/a	n/a	n/a	n/a	n/a
2900.046	n/a	REC_WORD_VV	1450023	wordpools/wasnorm_wordpool.txt	LTP129	ltpFR	4	15	n/a	<>	-1	n/a	n/a	n/a	n/a	n/a	n/a	n/a	n/a
2907.616	n/a	REC_WORD	1453808	wordpools/wasnorm_wordpool.txt	LTP129	ltpFR	4	15	1	CREEK	404	n/a	n/a	0	n/a	n/a	n/a	n/a	n/a
2913.632	n/a	REC_WORD	1456816	wordpools/wasnorm_wordpool.txt	LTP129	ltpFR	4	15	1	UNIVERSITY	1541	n/a	n/a	1	n/a	n/a	n/a	n/a	n/a
2914.828	n/a	REC_WORD	1457414	wordpools/wasnorm_wordpool.txt	LTP129	ltpFR	4	15	1	DIPLOMA	470	n/a	n/a	0	n/a	n/a	n/a	n/a	n/a
2990.68	n/a	WORD	1495340	wordpools/wasnorm_wordpool.txt	LTP129	ltpFR	4	16	0	KITTEN	780	n/a	n/a	0	0.422607421875	0.5869140625	0	upper	zerothre.ttf
2994.82	n/a	WORD	1497410	wordpools/wasnorm_wordpool.txt	LTP129	ltpFR	4	16	0	TABLE	1426	n/a	n/a	0	0.422607421875	0.5869140625	0	upper	zerothre.ttf
2998.704	n/a	WORD	1499352	wordpools/wasnorm_wordpool.txt	LTP129	ltpFR	4	16	1	BULLY	196	n/a	n/a	1	0.57763671875	0.412841796875	1	lower	amplitud.ttf
3002.786	n/a	WORD	1501393	wordpools/wasnorm_wordpool.txt	LTP129	ltpFR	4	16	1	PIT	1077	n/a	n/a	0	0.57763671875	0.412841796875	1	lower	amplitud.ttf
3006.718	n/a	WORD	1503359	wordpools/wasnorm_wordpool.txt	LTP129	ltpFR	4	16	1	PORCH	1106	n/a	n/a	0	0.57763671875	0.412841796875	1	lower	amplitud.ttf
3010.75	n/a	WORD	1505375	wordpools/wasnorm_wordpool.txt	LTP129	ltpFR	4	16	1	PANTHER	1009	n/a	n/a	0	0.57763671875	0.412841796875	1	lower	amplitud.ttf
3014.78	n/a	WORD	1507390	wordpools/wasnorm_wordpool.txt	LTP129	ltpFR	4	16	1	COD	340	n/a	n/a	0	0.57763671875	0.412841796875	1	lower	amplitud.ttf
3018.664	n/a	WORD	1509332	wordpools/wasnorm_wordpool.txt	LTP129	ltpFR	4	16	0	PATIO	1025	n/a	n/a	0	0.422607421875	0.5869140625	0	upper	zerothre.ttf
3022.738	n/a	WORD	1511369	wordpools/wasnorm_wordpool.txt	LTP129	ltpFR	4	16	0	CHAMBER	277	n/a	n/a	0	0.422607421875	0.5869140625	0	upper	zerothre.ttf
3026.728	n/a	WORD	1513364	wordpools/wasnorm_wordpool.txt	LTP129	ltpFR	4	16	0	RADIO	1157	n/a	n/a	0	0.422607421875	0.5869140625	0	upper	zerothre.ttf
3030.818	n/a	WORD	1515409	wordpools/wasnorm_wordpool.txt	LTP129	ltpFR	4	16	0	BAND	78	n/a	n/a	0	0.422607421875	0.5869140625	0	upper	zerothre.ttf
3034.792	n/a	WORD	1517396	wordpools/wasnorm_wordpool.txt	LTP129	ltpFR	4	16	1	LOUNGE	845	n/a	n/a	0	0.57763671875	0.412841796875	1	lower	amplitud.ttf
3038.974	n/a	WORD	1519487	wordpools/wasnorm_wordpool.txt	LTP129	ltpFR	4	16	1	BARLEY	88	n/a	n/a	0	0.57763671875	0.412841796875	1	lower	amplitud.ttf
3042.822	n/a	WORD	1521411	wordpools/wasnorm_wordpool.txt	LTP129	ltpFR	4	16	1	BUTTER	205	n/a	n/a	0	0.57763671875	0.412841796875	1	lower	amplitud.ttf
3046.988	n/a	WORD	1523494	wordpools/wasnorm_wordpool.txt	LTP129	ltpFR	4	16	0	DESIGNER	451	n/a	n/a	1	0.422607421875	0.5869140625	0	upper	zerothre.ttf
3051.054	n/a	WORD	1525527	wordpools/wasnorm_wordpool.txt	LTP129	ltpFR	4	16	0	CLOSET	326	n/a	n/a	0	0.422607421875	0.5869140625	0	upper	zerothre.ttf
3056.894	n/a	REC_START	1528447	n/a	LTP129	ltpFR	4	16	n/a	n/a	n/a	n/a	n/a	n/a	n/a	n/a	n/a	n/a	n/a
3057.552	n/a	REC_WORD	1528776	wordpools/wasnorm_wordpool.txt	LTP129	ltpFR	4	16	0	DESIGNER	451	n/a	n/a	1	n/a	n/a	n/a	n/a	n/a
3058.476	n/a	REC_WORD	1529238	wordpools/wasnorm_wordpool.txt	LTP129	ltpFR	4	16	0	CLOSET	326	n/a	n/a	0	n/a	n/a	n/a	n/a	n/a
3060.436	n/a	REC_WORD	1530218	wordpools/wasnorm_wordpool.txt	LTP129	ltpFR	4	16	1	PANTHER	1009	n/a	n/a	0	n/a	n/a	n/a	n/a	n/a
3061.424	n/a	REC_WORD	1530712	wordpools/wasnorm_wordpool.txt	LTP129	ltpFR	4	16	1	COD	340	n/a	n/a	0	n/a	n/a	n/a	n/a	n/a
3063.45	n/a	REC_WORD	1531725	wordpools/wasnorm_wordpool.txt	LTP129	ltpFR	4	16	0	KITTEN	780	n/a	n/a	0	n/a	n/a	n/a	n/a	n/a
3072.944	n/a	REC_WORD	1536472	wordpools/wasnorm_wordpool.txt	LTP129	ltpFR	4	16	1	BULLY	196	n/a	n/a	1	n/a	n/a	n/a	n/a	n/a
3073.842	n/a	REC_WORD	1536921	wordpools/wasnorm_wordpool.txt	LTP129	ltpFR	4	16	1	PIT	1077	n/a	n/a	0	n/a	n/a	n/a	n/a	n/a
3095.568	n/a	REC_WORD	1547784	wordpools/wasnorm_wordpool.txt	LTP129	ltpFR	4	16	0	RADIO	1157	n/a	n/a	0	n/a	n/a	n/a	n/a	n/a
3096.582	n/a	REC_WORD	1548291	wordpools/wasnorm_wordpool.txt	LTP129	ltpFR	4	16	0	BAND	78	n/a	n/a	0	n/a	n/a	n/a	n/a	n/a
3161.27	n/a	REC_START	1580635	n/a	LTP129	ltpFR	4	n/a	n/a	n/a	n/a	n/a	n/a	n/a	n/a	n/a	n/a	n/a	n/a
3162.596	n/a	FFR_REC_WORD	1581298	wordpools/wasnorm_wordpool.txt	LTP129	ltpFR	4	n/a	0	KITTEN	780	n/a	n/a	0	n/a	n/a	n/a	n/a	n/a
3163.45	n/a	FFR_REC_WORD	1581725	wordpools/wasnorm_wordpool.txt	LTP129	ltpFR	4	n/a	0	BAND	78	n/a	n/a	0	n/a	n/a	n/a	n/a	n/a
3164.262	n/a	FFR_REC_WORD	1582131	wordpools/wasnorm_wordpool.txt	LTP129	ltpFR	4	n/a	0	RADIO	1157	n/a	n/a	0	n/a	n/a	n/a	n/a	n/a
3167.042	n/a	FFR_REC_WORD	1583521	wordpools/wasnorm_wordpool.txt	LTP129	ltpFR	4	n/a	1	POLITICIAN	1099	n/a	n/a	1	n/a	n/a	n/a	n/a	n/a
3168.922	n/a	FFR_REC_WORD	1584461	wordpools/wasnorm_wordpool.txt	LTP129	ltpFR	4	n/a	1	PIT	1077	n/a	n/a	0	n/a	n/a	n/a	n/a	n/a
3169.746	n/a	FFR_REC_WORD	1584873	wordpools/wasnorm_wordpool.txt	LTP129	ltpFR	4	n/a	1	BULLY	196	n/a	n/a	1	n/a	n/a	n/a	n/a	n/a
3172.424	n/a	FFR_REC_WORD	1586212	wordpools/wasnorm_wordpool.txt	LTP129	ltpFR	4	n/a	1	CANARY	227	n/a	n/a	0	n/a	n/a	n/a	n/a	n/a
3179.982	n/a	FFR_REC_WORD	1589991	wordpools/wasnorm_wordpool.txt	LTP129	ltpFR	4	n/a	1	SEA	1259	n/a	n/a	1	n/a	n/a	n/a	n/a	n/a
3180.916	n/a	FFR_REC_WORD	1590458	wordpools/wasnorm_wordpool.txt	LTP129	ltpFR	4	n/a	1	OCEAN	970	n/a	n/a	1	n/a	n/a	n/a	n/a	n/a
3182.054	n/a	FFR_REC_WORD	1591027	wordpools/wasnorm_wordpool.txt	LTP129	ltpFR	4	n/a	0	CRAB	397	n/a	n/a	0	n/a	n/a	n/a	n/a	n/a
3183.03	n/a	FFR_REC_WORD	1591515	wordpools/wasnorm_wordpool.txt	LTP129	ltpFR	4	n/a	1	COD	340	n/a	n/a	0	n/a	n/a	n/a	n/a	n/a
3184.244	n/a	FFR_REC_WORD	1592122	wordpools/wasnorm_wordpool.txt	LTP129	ltpFR	4	n/a	1	PANTHER	1009	n/a	n/a	0	n/a	n/a	n/a	n/a	n/a
3188.544	n/a	FFR_REC_WORD	1594272	wordpools/wasnorm_wordpool.txt	LTP129	ltpFR	4	n/a	1	UNIVERSITY	1541	n/a	n/a	1	n/a	n/a	n/a	n/a	n/a
3189.496	n/a	FFR_REC_WORD	1594748	wordpools/wasnorm_wordpool.txt	LTP129	ltpFR	4	n/a	1	DIPLOMA	470	n/a	n/a	0	n/a	n/a	n/a	n/a	n/a
3191.722	n/a	FFR_REC_WORD	1595861	wordpools/wasnorm_wordpool.txt	LTP129	ltpFR	4	n/a	0	KNEE	784	n/a	n/a	0	n/a	n/a	n/a	n/a	n/a
3192.51	n/a	FFR_REC_WORD	1596255	wordpools/wasnorm_wordpool.txt	LTP129	ltpFR	4	n/a	1	MOTHER	921	n/a	n/a	1	n/a	n/a	n/a	n/a	n/a
3193.822	n/a	FFR_REC_WORD	1596911	wordpools/wasnorm_wordpool.txt	LTP129	ltpFR	4	n/a	0	PARENT	1013	n/a	n/a	1	n/a	n/a	n/a	n/a	n/a
3196.108	n/a	FFR_REC_WORD	1598054	wordpools/wasnorm_wordpool.txt	LTP129	ltpFR	4	n/a	0	DOCTOR	478	n/a	n/a	1	n/a	n/a	n/a	n/a	n/a
3197.474	n/a	FFR_REC_WORD	1598737	wordpools/wasnorm_wordpool.txt	LTP129	ltpFR	4	n/a	1	SCIENTIST	1249	n/a	n/a	1	n/a	n/a	n/a	n/a	n/a
3204.652	n/a	FFR_REC_WORD	1602326	wordpools/wasnorm_wordpool.txt	LTP129	ltpFR	4	n/a	1	SHEARS	1276	n/a	n/a	0	n/a	n/a	n/a	n/a	n/a
3208.4	n/a	FFR_REC_WORD	1604200	wordpools/wasnorm_wordpool.txt	LTP129	ltpFR	4	n/a	1	HATCHET	691	n/a	n/a	0	n/a	n/a	n/a	n/a	n/a
3212.276	n/a	FFR_REC_WORD	1606138	wordpools/wasnorm_wordpool.txt	LTP129	ltpFR	4	n/a	-1	CONSOLE	364	n/a	n/a	-1	n/a	n/a	n/a	n/a	n/a
3213.524	n/a	FFR_REC_WORD	1606762	wordpools/wasnorm_wordpool.txt	LTP129	ltpFR	4	n/a	-1	BARTENDER	92	n/a	n/a	-1	n/a	n/a	n/a	n/a	n/a
3215.698	n/a	FFR_REC_WORD	1607849	wordpools/wasnorm_wordpool.txt	LTP129	ltpFR	4	n/a	-1	COOK	372	n/a	n/a	-1	n/a	n/a	n/a	n/a	n/a
3217.374	n/a	FFR_REC_WORD	1608687	wordpools/wasnorm_wordpool.txt	LTP129	ltpFR	4	n/a	-1	CUBE	420	n/a	n/a	-1	n/a	n/a	n/a	n/a	n/a
3221.406	n/a	FFR_REC_WORD	1610703	wordpools/wasnorm_wordpool.txt	LTP129	ltpFR	4	n/a	-1	VALVE	1546	n/a	n/a	-1	n/a	n/a	n/a	n/a	n/a
3222.878	n/a	FFR_REC_WORD	1611439	wordpools/wasnorm_wordpool.txt	LTP129	ltpFR	4	n/a	-1	BAKER	71	n/a	n/a	-1	n/a	n/a	n/a	n/a	n/a
3224.464	n/a	FFR_REC_WORD	1612232	wordpools/wasnorm_wordpool.txt	LTP129	ltpFR	4	n/a	-1	SKETCH	1315	n/a	n/a	-1	n/a	n/a	n/a	n/a	n/a
3225.776	n/a	FFR_REC_WORD	1612888	wordpools/wasnorm_wordpool.txt	LTP129	ltpFR	4	n/a	-1	TAPE	1433	n/a	n/a	-1	n/a	n/a	n/a	n/a	n/a
3235.01	n/a	FFR_REC_WORD	1617505	wordpools/wasnorm_wordpool.txt	LTP129	ltpFR	4	n/a	-1	OWL	992	n/a	n/a	-1	n/a	n/a	n/a	n/a	n/a
3245.712	n/a	FFR_REC_WORD	1622856	wordpools/wasnorm_wordpool.txt	LTP129	ltpFR	4	n/a	-1	LIGHTER	819	n/a	n/a	-1	n/a	n/a	n/a	n/a	n/a
3246.784	n/a	FFR_REC_WORD	1623392	wordpools/wasnorm_wordpool.txt	LTP129	ltpFR	4	n/a	-1	ASH	44	n/a	n/a	-1	n/a	n/a	n/a	n/a	n/a
3248.56	n/a	FFR_REC_WORD	1624280	wordpools/wasnorm_wordpool.txt	LTP129	ltpFR	4	n/a	-1	TRAY	1498	n/a	n/a	-1	n/a	n/a	n/a	n/a	n/a
3252.736	n/a	FFR_REC_WORD	1626368	wordpools/wasnorm_wordpool.txt	LTP129	ltpFR	4	n/a	-1	PUB	1135	n/a	n/a	-1	n/a	n/a	n/a	n/a	n/a
3253.494	n/a	FFR_REC_WORD	1626747	wordpools/wasnorm_wordpool.txt	LTP129	ltpFR	4	n/a	-1	BARREL	91	n/a	n/a	-1	n/a	n/a	n/a	n/a	n/a
3260.284	n/a	FFR_REC_WORD	1630142	wordpools/wasnorm_wordpool.txt	LTP129	ltpFR	4	n/a	-1	OUTLAW	989	n/a	n/a	-1	n/a	n/a	n/a	n/a	n/a
3263.678	n/a	FFR_REC_WORD	1631839	wordpools/wasnorm_wordpool.txt	LTP129	ltpFR	4	n/a	0	CRIMINAL	409	n/a	n/a	1	n/a	n/a	n/a	n/a	n/a
3264.726	n/a	FFR_REC_WORD	1632363	wordpools/wasnorm_wordpool.txt	LTP129	ltpFR	4	n/a	0	DUNGEON	507	n/a	n/a	1	n/a	n/a	n/a	n/a	n/a
3265.508	n/a	FFR_REC_WORD	1632754	wordpools/wasnorm_wordpool.txt	LTP129	ltpFR	4	n/a	n/a	SERPENT	1270	n/a	n/a	n/a	n/a	n/a	n/a	n/a	n/a
3266.472	n/a	FFR_REC_WORD	1633236	wordpools/wasnorm_wordpool.txt	LTP129	ltpFR	4	n/a	1	MONGOOSE	909	n/a	n/a	1	n/a	n/a	n/a	n/a	n/a
3270.238	n/a	FFR_REC_WORD	1635119	wordpools/wasnorm_wordpool.txt	LTP129	ltpFR	4	n/a	0	VICTIM	1562	n/a	n/a	0	n/a	n/a	n/a	n/a	n/a
3274.508	n/a	FFR_REC_WORD	1637254	wordpools/wasnorm_wordpool.txt	LTP129	ltpFR	4	n/a	-1	GHETTO	633	n/a	n/a	-1	n/a	n/a	n/a	n/a	n/a
3276.484	n/a	FFR_REC_WORD	1638242	wordpools/wasnorm_wordpool.txt	LTP129	ltpFR	4	n/a	-1	ANT	25	n/a	n/a	-1	n/a	n/a	n/a	n/a	n/a
3279.496	n/a	FFR_REC_WORD	1639748	wordpools/wasnorm_wordpool.txt	LTP129	ltpFR	4	n/a	-1	KITE	779	n/a	n/a	-1	n/a	n/a	n/a	n/a	n/a
3282.006	n/a	FFR_REC_WORD	1641003	wordpools/wasnorm_wordpool.txt	LTP129	ltpFR	4	n/a	n/a	PEACH	1031	n/a	n/a	n/a	n/a	n/a	n/a	n/a	n/a
3285.184	n/a	FFR_REC_WORD	1642592	wordpools/wasnorm_wordpool.txt	LTP129	ltpFR	4	n/a	-1	VEGETABLE	1552	n/a	n/a	-1	n/a	n/a	n/a	n/a	n/a
3287.12	n/a	FFR_REC_WORD	1643560	wordpools/wasnorm_wordpool.txt	LTP129	ltpFR	4	n/a	-1	SERVANT	1271	n/a	n/a	-1	n/a	n/a	n/a	n/a	n/a
3292.384	n/a	FFR_REC_WORD	1646192	wordpools/wasnorm_wordpool.txt	LTP129	ltpFR	4	n/a	-1	BLOSSOM	138	n/a	n/a	-1	n/a	n/a	n/a	n/a	n/a
3293.322	n/a	FFR_REC_WORD	1646661	wordpools/wasnorm_wordpool.txt	LTP129	ltpFR	4	n/a	-1	OFFICER	973	n/a	n/a	-1	n/a	n/a	n/a	n/a	n/a
3295.246	n/a	FFR_REC_WORD_VV	1647623	wordpools/wasnorm_wordpool.txt	LTP129	ltpFR	4	n/a	n/a	<>	-1	n/a	n/a	n/a	n/a	n/a	n/a	n/a	n/a
3297.816	n/a	FFR_REC_WORD	1648908	wordpools/wasnorm_wordpool.txt	LTP129	ltpFR	4	n/a	-1	OREGANO	983	n/a	n/a	-1	n/a	n/a	n/a	n/a	n/a
3300.97	n/a	FFR_REC_WORD	1650485	wordpools/wasnorm_wordpool.txt	LTP129	ltpFR	4	n/a	-1	SAGE	1222	n/a	n/a	-1	n/a	n/a	n/a	n/a	n/a
3304.308	n/a	FFR_REC_WORD	1652154	wordpools/wasnorm_wordpool.txt	LTP129	ltpFR	4	n/a	-1	MOUTH	926	n/a	n/a	-1	n/a	n/a	n/a	n/a	n/a
3306.088	n/a	FFR_REC_WORD	1653044	wordpools/wasnorm_wordpool.txt	LTP129	ltpFR	4	n/a	0	TONGUE	1479	n/a	n/a	0	n/a	n/a	n/a	n/a	n/a
3307.41	n/a	FFR_REC_WORD	1653705	wordpools/wasnorm_wordpool.txt	LTP129	ltpFR	4	n/a	-1	TOOTHBRUSH	1482	n/a	n/a	-1	n/a	n/a	n/a	n/a	n/a
3344.238	n/a	FFR_REC_WORD	1672119	wordpools/wasnorm_wordpool.txt	LTP129	ltpFR	4	n/a	1	PERISCOPE	1050	n/a	n/a	0	n/a	n/a	n/a	n/a	n/a
3345.386	n/a	FFR_REC_WORD	1672693	wordpools/wasnorm_wordpool.txt	LTP129	ltpFR	4	n/a	1	BOY	161	n/a	n/a	1	n/a	n/a	n/a	n/a	n/a
3346.792	n/a	FFR_REC_WORD	1673396	wordpools/wasnorm_wordpool.txt	LTP129	ltpFR	4	n/a	1	BOX	159	n/a	n/a	0	n/a	n/a	n/a	n/a	n/a
3347.71	n/a	FFR_REC_WORD	1673855	wordpools/wasnorm_wordpool.txt	LTP129	ltpFR	4	n/a	1	CARPENTER	246	n/a	n/a	0	n/a	n/a	n/a	n/a	n/a
3358.428	n/a	FFR_REC_WORD	1679214	wordpools/wasnorm_wordpool.txt	LTP129	ltpFR	4	n/a	-1	PUMPKIN	1142	n/a	n/a	-1	n/a	n/a	n/a	n/a	n/a
3359.326	n/a	FFR_REC_WORD	1679663	wordpools/wasnorm_wordpool.txt	LTP129	ltpFR	4	n/a	-1	MISTER	901	n/a	n/a	-1	n/a	n/a	n/a	n/a	n/a
3365.196	n/a	FFR_REC_WORD	1682598	wordpools/wasnorm_wordpool.txt	LTP129	ltpFR	4	n/a	-1	HOUND	724	n/a	n/a	-1	n/a	n/a	n/a	n/a	n/a
3366.284	n/a	FFR_REC_WORD	1683142	wordpools/wasnorm_wordpool.txt	LTP129	ltpFR	4	n/a	-1	COLLAR	345	n/a	n/a	-1	n/a	n/a	n/a	n/a	n/a
3369.552	n/a	FFR_REC_WORD	1684776	wordpools/wasnorm_wordpool.txt	LTP129	ltpFR	4	n/a	-1	BANQUET	86	n/a	n/a	-1	n/a	n/a	n/a	n/a	n/a
3370.554	n/a	FFR_REC_WORD	1685277	wordpools/wasnorm_wordpool.txt	LTP129	ltpFR	4	n/a	-1	DINNER	468	n/a	n/a	-1	n/a	n/a	n/a	n/a	n/a
3371.162	n/a	FFR_REC_WORD	1685581	wordpools/wasnorm_wordpool.txt	LTP129	ltpFR	4	n/a	-1	FLY	586	n/a	n/a	-1	n/a	n/a	n/a	n/a	n/a
3371.912	n/a	FFR_REC_WORD	1685956	wordpools/wasnorm_wordpool.txt	LTP129	ltpFR	4	n/a	-1	SWATTER	1418	n/a	n/a	-1	n/a	n/a	n/a	n/a	n/a
3375.794	n/a	FFR_REC_WORD	1687897	wordpools/wasnorm_wordpool.txt	LTP129	ltpFR	4	n/a	1	CARD	243	n/a	n/a	0	n/a	n/a	n/a	n/a	n/a
3378.876	n/a	FFR_REC_WORD	1689438	wordpools/wasnorm_wordpool.txt	LTP129	ltpFR	4	n/a	1	STY	1397	n/a	n/a	0	n/a	n/a	n/a	n/a	n/a
3380.702	n/a	FFR_REC_WORD	1690351	wordpools/wasnorm_wordpool.txt	LTP129	ltpFR	4	n/a	1	INSTRUCTOR	741	n/a	n/a	1	n/a	n/a	n/a	n/a	n/a
3386.784	n/a	FFR_REC_WORD	1693392	wordpools/wasnorm_wordpool.txt	LTP129	ltpFR	4	n/a	1	LOLLIPOP	842	n/a	n/a	0	n/a	n/a	n/a	n/a	n/a
3387.782	n/a	FFR_REC_WORD	1693891	wordpools/wasnorm_wordpool.txt	LTP129	ltpFR	4	n/a	1	CANDY	230	n/a	n/a	0	n/a	n/a	n/a	n/a	n/a
3405.736	n/a	FFR_REC_WORD	1702868	wordpools/wasnorm_wordpool.txt	LTP129	ltpFR	4	n/a	0	HANDKERCHIEF	686	n/a	n/a	0	n/a	n/a	n/a	n/a	n/a
3407.004	n/a	FFR_REC_WORD	1703502	wordpools/wasnorm_wordpool.txt	LTP129	ltpFR	4	n/a	0	BODY	145	n/a	n/a	1	n/a	n/a	n/a	n/a	n/a
3408.974	n/a	FFR_REC_WORD	1704487	wordpools/wasnorm_wordpool.txt	LTP129	ltpFR	4	n/a	0	WIFE	1609	n/a	n/a	0	n/a	n/a	n/a	n/a	n/a
3411.578	n/a	FFR_REC_WORD	1705789	wordpools/wasnorm_wordpool.txt	LTP129	ltpFR	4	n/a	0	CREVICE	405	n/a	n/a	0	n/a	n/a	n/a	n/a	n/a
3413.05	n/a	FFR_REC_WORD	1706525	wordpools/wasnorm_wordpool.txt	LTP129	ltpFR	4	n/a	0	ENGINEER	536	n/a	n/a	1	n/a	n/a	n/a	n/a	n/a
3421.072	n/a	FFR_REC_WORD	1710536	wordpools/wasnorm_wordpool.txt	LTP129	ltpFR	4	n/a	0	PRODUCER	1129	n/a	n/a	1	n/a	n/a	n/a	n/a	n/a
3423.498	n/a	FFR_REC_WORD	1711749	wordpools/wasnorm_wordpool.txt	LTP129	ltpFR	4	n/a	1	STEAM	1375	n/a	n/a	0	n/a	n/a	n/a	n/a	n/a
3432.188	n/a	FFR_REC_WORD	1716094	wordpools/wasnorm_wordpool.txt	LTP129	ltpFR	4	n/a	0	PLANT	1083	n/a	n/a	0	n/a	n/a	n/a	n/a	n/a
3433.466	n/a	FFR_REC_WORD	1716733	wordpools/wasnorm_wordpool.txt	LTP129	ltpFR	4	n/a	0	FLOWER	584	n/a	n/a	0	n/a	n/a	n/a	n/a	n/a
3434.748	n/a	FFR_REC_WORD	1717374	wordpools/wasnorm_wordpool.txt	LTP129	ltpFR	4	n/a	1	SEED	1266	n/a	n/a	0	n/a	n/a	n/a	n/a	n/a
3438.26	n/a	FFR_REC_WORD	1719130	wordpools/wasnorm_wordpool.txt	LTP129	ltpFR	4	n/a	0	CROWN	415	n/a	n/a	1	n/a	n/a	n/a	n/a	n/a
3439.792	n/a	FFR_REC_WORD	1719896	wordpools/wasnorm_wordpool.txt	LTP129	ltpFR	4	n/a	1	DIRECTOR	471	n/a	n/a	1	n/a	n/a	n/a	n/a	n/a
3450.078	n/a	FFR_REC_WORD	1725039	wordpools/wasnorm_wordpool.txt	LTP129	ltpFR	4	n/a	0	PALACE	1006	n/a	n/a	1	n/a	n/a	n/a	n/a	n/a
3453.282	n/a	FFR_REC_WORD	1726641	wordpools/wasnorm_wordpool.txt	LTP129	ltpFR	4	n/a	0	RUG	1215	n/a	n/a	0	n/a	n/a	n/a	n/a	n/a
3455.202	n/a	FFR_REC_WORD	1727601	wordpools/wasnorm_wordpool.txt	LTP129	ltpFR	4	n/a	0	SPOUSE	1358	n/a	n/a	0	n/a	n/a	n/a	n/a	n/a
3504.226	n/a	REC_START	1752113	n/a	LTP129	ltpFR	4	1	n/a	n/a	n/a	n/a	n/a	n/a	n/a	n/a	n/a	n/a	n/a
3504.256	n/a	RECOG_TARGET	1752128	n/a	LTP129	ltpFR	4	1	0	KITTEN	780	1	5	0	n/a	n/a	n/a	n/a	n/a
3506.488	n/a	RECOG_RESP	1753244	n/a	LTP129	ltpFR	4	1	0	KITTEN	780	1	n/a	0	n/a	n/a	n/a	n/a	n/a
3508.478	n/a	RECOG_CONF	1754239	n/a	LTP129	ltpFR	4	1	0	KITTEN	780	n/a	5	0	n/a	n/a	n/a	n/a	n/a
3509.956	n/a	RECOG_TARGET	1754978	n/a	LTP129	ltpFR	4	1	1	BULLY	196	1	5	1	n/a	n/a	n/a	n/a	n/a
3510.598	n/a	RECOG_RESP	1755299	n/a	LTP129	ltpFR	4	1	1	BULLY	196	1	n/a	1	n/a	n/a	n/a	n/a	n/a
3511.63	n/a	RECOG_CONF	1755815	n/a	LTP129	ltpFR	4	1	1	BULLY	196	n/a	5	1	n/a	n/a	n/a	n/a	n/a
3513.08	n/a	RECOG_LURE	1756540	n/a	LTP129	ltpFR	4	1	n/a	BED	110	0	3	n/a	n/a	n/a	n/a	n/a	n/a
3514.296	n/a	RECOG_RESP	1757148	n/a	LTP129	ltpFR	4	1	n/a	BED	110	0	n/a	n/a	n/a	n/a	n/a	n/a	n/a
3515.112	n/a	RECOG_CONF	1757556	n/a	LTP129	ltpFR	4	1	n/a	BED	110	n/a	3	n/a	n/a	n/a	n/a	n/a	n/a
3516.588	n/a	RECOG_TARGET	1758294	n/a	LTP129	ltpFR	4	1	0	BUFFALO	186	1	5	0	n/a	n/a	n/a	n/a	n/a
3517.214	n/a	RECOG_RESP	1758607	n/a	LTP129	ltpFR	4	1	0	BUFFALO	186	1	n/a	0	n/a	n/a	n/a	n/a	n/a
3518.158	n/a	RECOG_CONF	1759079	n/a	LTP129	ltpFR	4	1	0	BUFFALO	186	n/a	5	0	n/a	n/a	n/a	n/a	n/a
3519.62	n/a	RECOG_LURE	1759810	n/a	LTP129	ltpFR	4	1	n/a	INMATE	738	0	3	n/a	n/a	n/a	n/a	n/a	n/a
3521.906	n/a	RECOG_RESP	1760953	n/a	LTP129	ltpFR	4	1	n/a	INMATE	738	0	n/a	n/a	n/a	n/a	n/a	n/a	n/a
3523.368	n/a	RECOG_CONF	1761684	n/a	LTP129	ltpFR	4	1	n/a	INMATE	738	n/a	3	n/a	n/a	n/a	n/a	n/a	n/a
3524.776	n/a	RECOG_TARGET	1762388	n/a	LTP129	ltpFR	4	1	0	SCHOOL	1248	1	5	1	n/a	n/a	n/a	n/a	n/a
3525.656	n/a	RECOG_RESP	1762828	n/a	LTP129	ltpFR	4	1	0	SCHOOL	1248	1	n/a	1	n/a	n/a	n/a	n/a	n/a
3526.518	n/a	RECOG_CONF	1763259	n/a	LTP129	ltpFR	4	1	0	SCHOOL	1248	n/a	5	1	n/a	n/a	n/a	n/a	n/a
3528.044	n/a	RECOG_TARGET	1764022	n/a	LTP129	ltpFR	4	1	0	SIREN	1310	1	5	0	n/a	n/a	n/a	n/a	n/a
3528.718	n/a	RECOG_RESP	1764359	n/a	LTP129	ltpFR	4	1	0	SIREN	1310	1	n/a	0	n/a	n/a	n/a	n/a	n/a
3529.578	n/a	RECOG_CONF	1764789	n/a	LTP129	ltpFR	4	1	0	SIREN	1310	n/a	5	0	n/a	n/a	n/a	n/a	n/a
3531.108	n/a	RECOG_LURE	1765554	n/a	LTP129	ltpFR	4	1	n/a	TRAIN	1494	0	5	n/a	n/a	n/a	n/a	n/a	n/a
3532.074	n/a	RECOG_RESP	1766037	n/a	LTP129	ltpFR	4	1	n/a	TRAIN	1494	0	n/a	n/a	n/a	n/a	n/a	n/a	n/a
3532.866	n/a	RECOG_CONF	1766433	n/a	LTP129	ltpFR	4	1	n/a	TRAIN	1494	n/a	5	n/a	n/a	n/a	n/a	n/a	n/a
3534.458	n/a	RECOG_TARGET	1767229	n/a	LTP129	ltpFR	4	1	0	BODY	145	1	5	1	n/a	n/a	n/a	n/a	n/a
3535.154	n/a	RECOG_RESP	1767577	n/a	LTP129	ltpFR	4	1	0	BODY	145	1	n/a	1	n/a	n/a	n/a	n/a	n/a
3536.0	n/a	RECOG_CONF	1768000	n/a	LTP129	ltpFR	4	1	0	BODY	145	n/a	5	1	n/a	n/a	n/a	n/a	n/a
3537.556	n/a	RECOG_TARGET	1768778	n/a	LTP129	ltpFR	4	1	1	HATCHET	691	1	5	0	n/a	n/a	n/a	n/a	n/a
3538.276	n/a	RECOG_RESP	1769138	n/a	LTP129	ltpFR	4	1	1	HATCHET	691	1	n/a	0	n/a	n/a	n/a	n/a	n/a
3539.08	n/a	RECOG_CONF	1769540	n/a	LTP129	ltpFR	4	1	1	HATCHET	691	n/a	5	0	n/a	n/a	n/a	n/a	n/a
3540.556	n/a	RECOG_TARGET	1770278	n/a	LTP129	ltpFR	4	1	0	HANDKERCHIEF	686	1	5	0	n/a	n/a	n/a	n/a	n/a
3541.404	n/a	RECOG_RESP	1770702	n/a	LTP129	ltpFR	4	1	0	HANDKERCHIEF	686	1	n/a	0	n/a	n/a	n/a	n/a	n/a
3542.222	n/a	RECOG_CONF	1771111	n/a	LTP129	ltpFR	4	1	0	HANDKERCHIEF	686	n/a	5	0	n/a	n/a	n/a	n/a	n/a
3543.72	n/a	RECOG_TARGET	1771860	n/a	LTP129	ltpFR	4	1	0	PADDING	999	1	5	0	n/a	n/a	n/a	n/a	n/a
3544.516	n/a	RECOG_RESP	1772258	n/a	LTP129	ltpFR	4	1	0	PADDING	999	1	n/a	0	n/a	n/a	n/a	n/a	n/a
3545.29	n/a	RECOG_CONF	1772645	n/a	LTP129	ltpFR	4	1	0	PADDING	999	n/a	5	0	n/a	n/a	n/a	n/a	n/a
3546.804	n/a	RECOG_TARGET	1773402	n/a	LTP129	ltpFR	4	1	0	DESIGNER	451	1	5	1	n/a	n/a	n/a	n/a	n/a
3547.592	n/a	RECOG_RESP	1773796	n/a	LTP129	ltpFR	4	1	0	DESIGNER	451	1	n/a	1	n/a	n/a	n/a	n/a	n/a
3548.578	n/a	RECOG_CONF	1774289	n/a	LTP129	ltpFR	4	1	0	DESIGNER	451	n/a	5	1	n/a	n/a	n/a	n/a	n/a
3550.112	n/a	RECOG_LURE	1775056	n/a	LTP129	ltpFR	4	1	n/a	JAR	750	0	3	n/a	n/a	n/a	n/a	n/a	n/a
3552.956	n/a	RECOG_RESP	1776478	n/a	LTP129	ltpFR	4	1	n/a	JAR	750	0	n/a	n/a	n/a	n/a	n/a	n/a	n/a
3553.878	n/a	RECOG_CONF	1776939	n/a	LTP129	ltpFR	4	1	n/a	JAR	750	n/a	3	n/a	n/a	n/a	n/a	n/a	n/a
3555.326	n/a	RECOG_LURE	1777663	n/a	LTP129	ltpFR	4	1	n/a	ROCK	1201	0	5	n/a	n/a	n/a	n/a	n/a	n/a
3556.244	n/a	RECOG_RESP	1778122	n/a	LTP129	ltpFR	4	1	n/a	ROCK	1201	0	n/a	n/a	n/a	n/a	n/a	n/a	n/a
3556.946	n/a	RECOG_CONF	1778473	n/a	LTP129	ltpFR	4	1	n/a	ROCK	1201	n/a	5	n/a	n/a	n/a	n/a	n/a	n/a
3558.492	n/a	RECOG_TARGET	1779246	n/a	LTP129	ltpFR	4	1	-1	PUB	1135	1	5	-1	n/a	n/a	n/a	n/a	n/a
3559.268	n/a	RECOG_RESP	1779634	n/a	LTP129	ltpFR	4	1	-1	PUB	1135	1	n/a	-1	n/a	n/a	n/a	n/a	n/a
3560.104	n/a	RECOG_CONF	1780052	n/a	LTP129	ltpFR	4	1	-1	PUB	1135	n/a	5	-1	n/a	n/a	n/a	n/a	n/a
3561.632	n/a	RECOG_TARGET	1780816	n/a	LTP129	ltpFR	4	1	-1	STEP	1377	1	5	-1	n/a	n/a	n/a	n/a	n/a
3562.358	n/a	RECOG_RESP	1781179	n/a	LTP129	ltpFR	4	1	-1	STEP	1377	1	n/a	-1	n/a	n/a	n/a	n/a	n/a
3563.21	n/a	RECOG_CONF	1781605	n/a	LTP129	ltpFR	4	1	-1	STEP	1377	n/a	5	-1	n/a	n/a	n/a	n/a	n/a
3564.732	n/a	RECOG_LURE	1782366	n/a	LTP129	ltpFR	4	1	n/a	GRADUATE	653	0	5	n/a	n/a	n/a	n/a	n/a	n/a
3565.666	n/a	RECOG_RESP	1782833	n/a	LTP129	ltpFR	4	1	n/a	GRADUATE	653	0	n/a	n/a	n/a	n/a	n/a	n/a	n/a
3566.444	n/a	RECOG_CONF	1783222	n/a	LTP129	ltpFR	4	1	n/a	GRADUATE	653	n/a	5	n/a	n/a	n/a	n/a	n/a	n/a
3567.848	n/a	RECOG_LURE	1783924	n/a	LTP129	ltpFR	4	1	n/a	SINK	1309	0	3	n/a	n/a	n/a	n/a	n/a	n/a
3569.068	n/a	RECOG_RESP	1784534	n/a	LTP129	ltpFR	4	1	n/a	SINK	1309	0	n/a	n/a	n/a	n/a	n/a	n/a	n/a
3569.954	n/a	RECOG_CONF	1784977	n/a	LTP129	ltpFR	4	1	n/a	SINK	1309	n/a	3	n/a	n/a	n/a	n/a	n/a	n/a
3571.328	n/a	RECOG_TARGET	1785664	n/a	LTP129	ltpFR	4	1	1	COD	340	1	5	0	n/a	n/a	n/a	n/a	n/a
3572.066	n/a	RECOG_RESP	1786033	n/a	LTP129	ltpFR	4	1	1	COD	340	1	n/a	0	n/a	n/a	n/a	n/a	n/a
3572.884	n/a	RECOG_CONF	1786442	n/a	LTP129	ltpFR	4	1	1	COD	340	n/a	5	0	n/a	n/a	n/a	n/a	n/a
3576.522	n/a	REC_START	1788261	n/a	LTP129	ltpFR	4	2	n/a	n/a	n/a	n/a	n/a	n/a	n/a	n/a	n/a	n/a	n/a
3576.552	n/a	RECOG_LURE	1788276	n/a	LTP129	ltpFR	4	2	n/a	CAGE	218	0	3	n/a	n/a	n/a	n/a	n/a	n/a
3577.75	n/a	RECOG_RESP	1788875	n/a	LTP129	ltpFR	4	2	n/a	CAGE	218	0	n/a	n/a	n/a	n/a	n/a	n/a	n/a
3578.566	n/a	RECOG_CONF	1789283	n/a	LTP129	ltpFR	4	2	n/a	CAGE	218	n/a	3	n/a	n/a	n/a	n/a	n/a	n/a
3579.984	n/a	RECOG_TARGET	1789992	n/a	LTP129	ltpFR	4	2	-1	PUMPKIN	1142	1	5	-1	n/a	n/a	n/a	n/a	n/a
3580.632	n/a	RECOG_RESP	1790316	n/a	LTP129	ltpFR	4	2	-1	PUMPKIN	1142	1	n/a	-1	n/a	n/a	n/a	n/a	n/a
3581.426	n/a	RECOG_CONF	1790713	n/a	LTP129	ltpFR	4	2	-1	PUMPKIN	1142	n/a	5	-1	n/a	n/a	n/a	n/a	n/a
3582.892	n/a	RECOG_TARGET	1791446	n/a	LTP129	ltpFR	4	2	1	LOUNGE	845	1	5	0	n/a	n/a	n/a	n/a	n/a
3583.576	n/a	RECOG_RESP	1791788	n/a	LTP129	ltpFR	4	2	1	LOUNGE	845	1	n/a	0	n/a	n/a	n/a	n/a	n/a
3584.34	n/a	RECOG_CONF	1792170	n/a	LTP129	ltpFR	4	2	1	LOUNGE	845	n/a	5	0	n/a	n/a	n/a	n/a	n/a
3585.8	n/a	RECOG_TARGET	1792900	n/a	LTP129	ltpFR	4	2	1	CROCODILE	411	1	5	1	n/a	n/a	n/a	n/a	n/a
3586.532	n/a	RECOG_RESP	1793266	n/a	LTP129	ltpFR	4	2	1	CROCODILE	411	1	n/a	1	n/a	n/a	n/a	n/a	n/a
3587.336	n/a	RECOG_CONF	1793668	n/a	LTP129	ltpFR	4	2	1	CROCODILE	411	n/a	5	1	n/a	n/a	n/a	n/a	n/a
3588.832	n/a	RECOG_TARGET	1794416	n/a	LTP129	ltpFR	4	2	0	WIFE	1609	1	5	0	n/a	n/a	n/a	n/a	n/a
3589.534	n/a	RECOG_RESP	1794767	n/a	LTP129	ltpFR	4	2	0	WIFE	1609	1	n/a	0	n/a	n/a	n/a	n/a	n/a
3590.344	n/a	RECOG_CONF	1795172	n/a	LTP129	ltpFR	4	2	0	WIFE	1609	n/a	5	0	n/a	n/a	n/a	n/a	n/a
3591.89	n/a	RECOG_TARGET	1795945	n/a	LTP129	ltpFR	4	2	0	WARRIOR	1589	1	5	1	n/a	n/a	n/a	n/a	n/a
3592.55	n/a	RECOG_RESP	1796275	n/a	LTP129	ltpFR	4	2	0	WARRIOR	1589	1	n/a	1	n/a	n/a	n/a	n/a	n/a
3593.568	n/a	RECOG_CONF	1796784	n/a	LTP129	ltpFR	4	2	0	WARRIOR	1589	n/a	5	1	n/a	n/a	n/a	n/a	n/a
3595.038	n/a	RECOG_TARGET	1797519	n/a	LTP129	ltpFR	4	2	0	DUNGEON	507	1	5	1	n/a	n/a	n/a	n/a	n/a
3595.652	n/a	RECOG_RESP	1797826	n/a	LTP129	ltpFR	4	2	0	DUNGEON	507	1	n/a	1	n/a	n/a	n/a	n/a	n/a
3596.612	n/a	RECOG_CONF	1798306	n/a	LTP129	ltpFR	4	2	0	DUNGEON	507	n/a	5	1	n/a	n/a	n/a	n/a	n/a
3598.138	n/a	RECOG_TARGET	1799069	n/a	LTP129	ltpFR	4	2	1	FIDDLE	561	0	3	0	n/a	n/a	n/a	n/a	n/a
3601.312	n/a	RECOG_RESP	1800656	n/a	LTP129	ltpFR	4	2	1	FIDDLE	561	0	n/a	0	n/a	n/a	n/a	n/a	n/a
3602.134	n/a	RECOG_CONF	1801067	n/a	LTP129	ltpFR	4	2	1	FIDDLE	561	n/a	3	0	n/a	n/a	n/a	n/a	n/a
3603.636	n/a	RECOG_TARGET	1801818	n/a	LTP129	ltpFR	4	2	-1	MOUTH	926	1	5	-1	n/a	n/a	n/a	n/a	n/a
3604.266	n/a	RECOG_RESP	1802133	n/a	LTP129	ltpFR	4	2	-1	MOUTH	926	1	n/a	-1	n/a	n/a	n/a	n/a	n/a
3605.088	n/a	RECOG_CONF	1802544	n/a	LTP129	ltpFR	4	2	-1	MOUTH	926	n/a	5	-1	n/a	n/a	n/a	n/a	n/a
3606.552	n/a	RECOG_LURE	1803276	n/a	LTP129	ltpFR	4	2	n/a	CAP	236	1	3	n/a	n/a	n/a	n/a	n/a	n/a
3607.774	n/a	RECOG_RESP	1803887	n/a	LTP129	ltpFR	4	2	n/a	CAP	236	1	n/a	n/a	n/a	n/a	n/a	n/a	n/a
3608.822	n/a	RECOG_CONF	1804411	n/a	LTP129	ltpFR	4	2	n/a	CAP	236	n/a	3	n/a	n/a	n/a	n/a	n/a	n/a
3610.308	n/a	RECOG_TARGET	1805154	n/a	LTP129	ltpFR	4	2	-1	SKETCH	1315	1	5	-1	n/a	n/a	n/a	n/a	n/a
3610.928	n/a	RECOG_RESP	1805464	n/a	LTP129	ltpFR	4	2	-1	SKETCH	1315	1	n/a	-1	n/a	n/a	n/a	n/a	n/a
3611.784	n/a	RECOG_CONF	1805892	n/a	LTP129	ltpFR	4	2	-1	SKETCH	1315	n/a	5	-1	n/a	n/a	n/a	n/a	n/a
3613.476	n/a	RECOG_TARGET	1806738	n/a	LTP129	ltpFR	4	2	-1	COMET	353	1	5	-1	n/a	n/a	n/a	n/a	n/a
3614.226	n/a	RECOG_RESP	1807113	n/a	LTP129	ltpFR	4	2	-1	COMET	353	1	n/a	-1	n/a	n/a	n/a	n/a	n/a
3615.112	n/a	RECOG_CONF	1807556	n/a	LTP129	ltpFR	4	2	-1	COMET	353	n/a	5	-1	n/a	n/a	n/a	n/a	n/a
3616.616	n/a	RECOG_TARGET	1808308	n/a	LTP129	ltpFR	4	2	0	PAVEMENT	1028	1	5	0	n/a	n/a	n/a	n/a	n/a
3617.46	n/a	RECOG_RESP	1808730	n/a	LTP129	ltpFR	4	2	0	PAVEMENT	1028	1	n/a	0	n/a	n/a	n/a	n/a	n/a
3618.216	n/a	RECOG_CONF	1809108	n/a	LTP129	ltpFR	4	2	0	PAVEMENT	1028	n/a	5	0	n/a	n/a	n/a	n/a	n/a
3619.764	n/a	RECOG_TARGET	1809882	n/a	LTP129	ltpFR	4	2	0	BUTLER	204	1	5	1	n/a	n/a	n/a	n/a	n/a
3620.37	n/a	RECOG_RESP	1810185	n/a	LTP129	ltpFR	4	2	0	BUTLER	204	1	n/a	1	n/a	n/a	n/a	n/a	n/a
3621.236	n/a	RECOG_CONF	1810618	n/a	LTP129	ltpFR	4	2	0	BUTLER	204	n/a	5	1	n/a	n/a	n/a	n/a	n/a
3622.822	n/a	RECOG_TARGET	1811411	n/a	LTP129	ltpFR	4	2	-1	VEGETABLE	1552	1	5	-1	n/a	n/a	n/a	n/a	n/a
3623.402	n/a	RECOG_RESP	1811701	n/a	LTP129	ltpFR	4	2	-1	VEGETABLE	1552	1	n/a	-1	n/a	n/a	n/a	n/a	n/a
3624.174	n/a	RECOG_CONF	1812087	n/a	LTP129	ltpFR	4	2	-1	VEGETABLE	1552	n/a	5	-1	n/a	n/a	n/a	n/a	n/a
3625.656	n/a	RECOG_LURE	1812828	n/a	LTP129	ltpFR	4	2	n/a	FRAGRANCE	599	0	3	n/a	n/a	n/a	n/a	n/a	n/a
3627.208	n/a	RECOG_RESP	1813604	n/a	LTP129	ltpFR	4	2	n/a	FRAGRANCE	599	0	n/a	n/a	n/a	n/a	n/a	n/a	n/a
3628.254	n/a	RECOG_CONF	1814127	n/a	LTP129	ltpFR	4	2	n/a	FRAGRANCE	599	n/a	3	n/a	n/a	n/a	n/a	n/a	n/a
3629.628	n/a	RECOG_TARGET	1814814	n/a	LTP129	ltpFR	4	2	1	HOOP	716	1	5	1	n/a	n/a	n/a	n/a	n/a
3630.564	n/a	RECOG_RESP	1815282	n/a	LTP129	ltpFR	4	2	1	HOOP	716	1	n/a	1	n/a	n/a	n/a	n/a	n/a
3631.316	n/a	RECOG_CONF	1815658	n/a	LTP129	ltpFR	4	2	1	HOOP	716	n/a	5	1	n/a	n/a	n/a	n/a	n/a
3632.82	n/a	RECOG_LURE	1816410	n/a	LTP129	ltpFR	4	2	n/a	STRANGER	1389	0	5	n/a	n/a	n/a	n/a	n/a	n/a
3634.092	n/a	RECOG_RESP	1817046	n/a	LTP129	ltpFR	4	2	n/a	STRANGER	1389	0	n/a	n/a	n/a	n/a	n/a	n/a	n/a
3634.896	n/a	RECOG_CONF	1817448	n/a	LTP129	ltpFR	4	2	n/a	STRANGER	1389	n/a	5	n/a	n/a	n/a	n/a	n/a	n/a
3636.284	n/a	RECOG_TARGET	1818142	n/a	LTP129	ltpFR	4	2	0	BARK	87	1	5	0	n/a	n/a	n/a	n/a	n/a
3636.972	n/a	RECOG_RESP	1818486	n/a	LTP129	ltpFR	4	2	0	BARK	87	1	n/a	0	n/a	n/a	n/a	n/a	n/a
3637.776	n/a	RECOG_CONF	1818888	n/a	LTP129	ltpFR	4	2	0	BARK	87	n/a	5	0	n/a	n/a	n/a	n/a	n/a
3639.076	n/a	RECOG_TARGET	1819538	n/a	LTP129	ltpFR	4	2	1	CARPENTER	246	1	5	0	n/a	n/a	n/a	n/a	n/a
3639.724	n/a	RECOG_RESP	1819862	n/a	LTP129	ltpFR	4	2	1	CARPENTER	246	1	n/a	0	n/a	n/a	n/a	n/a	n/a
3640.414	n/a	RECOG_CONF	1820207	n/a	LTP129	ltpFR	4	2	1	CARPENTER	246	n/a	5	0	n/a	n/a	n/a	n/a	n/a
3643.624	n/a	REC_START	1821812	n/a	LTP129	ltpFR	4	3	n/a	n/a	n/a	n/a	n/a	n/a	n/a	n/a	n/a	n/a	n/a
3643.658	n/a	RECOG_TARGET	1821829	n/a	LTP129	ltpFR	4	3	-1	TAIL	1430	1	5	-1	n/a	n/a	n/a	n/a	n/a
3644.366	n/a	RECOG_RESP	1822183	n/a	LTP129	ltpFR	4	3	-1	TAIL	1430	1	n/a	-1	n/a	n/a	n/a	n/a	n/a
3645.15	n/a	RECOG_CONF	1822575	n/a	LTP129	ltpFR	4	3	-1	TAIL	1430	n/a	5	-1	n/a	n/a	n/a	n/a	n/a
3646.624	n/a	RECOG_TARGET	1823312	n/a	LTP129	ltpFR	4	3	1	GAUZE	626	1	5	0	n/a	n/a	n/a	n/a	n/a
3647.896	n/a	RECOG_RESP	1823948	n/a	LTP129	ltpFR	4	3	1	GAUZE	626	1	n/a	0	n/a	n/a	n/a	n/a	n/a
3648.698	n/a	RECOG_CONF	1824349	n/a	LTP129	ltpFR	4	3	1	GAUZE	626	n/a	5	0	n/a	n/a	n/a	n/a	n/a
3650.172	n/a	RECOG_TARGET	1825086	n/a	LTP129	ltpFR	4	3	-1	TAPE	1433	1	5	-1	n/a	n/a	n/a	n/a	n/a
3650.81	n/a	RECOG_RESP	1825405	n/a	LTP129	ltpFR	4	3	-1	TAPE	1433	1	n/a	-1	n/a	n/a	n/a	n/a	n/a
3651.55	n/a	RECOG_CONF	1825775	n/a	LTP129	ltpFR	4	3	-1	TAPE	1433	n/a	5	-1	n/a	n/a	n/a	n/a	n/a
3652.996	n/a	RECOG_TARGET	1826498	n/a	LTP129	ltpFR	4	3	0	SACK	1220	1	5	0	n/a	n/a	n/a	n/a	n/a
3653.66	n/a	RECOG_RESP	1826830	n/a	LTP129	ltpFR	4	3	0	SACK	1220	1	n/a	0	n/a	n/a	n/a	n/a	n/a
3654.414	n/a	RECOG_CONF	1827207	n/a	LTP129	ltpFR	4	3	0	SACK	1220	n/a	5	0	n/a	n/a	n/a	n/a	n/a
3655.77	n/a	RECOG_TARGET	1827885	n/a	LTP129	ltpFR	4	3	0	PARENT	1013	1	5	1	n/a	n/a	n/a	n/a	n/a
3656.4	n/a	RECOG_RESP	1828200	n/a	LTP129	ltpFR	4	3	0	PARENT	1013	1	n/a	1	n/a	n/a	n/a	n/a	n/a
3657.182	n/a	RECOG_CONF	1828591	n/a	LTP129	ltpFR	4	3	0	PARENT	1013	n/a	5	1	n/a	n/a	n/a	n/a	n/a
3658.62	n/a	RECOG_TARGET	1829310	n/a	LTP129	ltpFR	4	3	1	STAPLE	1371	1	5	0	n/a	n/a	n/a	n/a	n/a
3659.222	n/a	RECOG_RESP	1829611	n/a	LTP129	ltpFR	4	3	1	STAPLE	1371	1	n/a	0	n/a	n/a	n/a	n/a	n/a
3659.958	n/a	RECOG_CONF	1829979	n/a	LTP129	ltpFR	4	3	1	STAPLE	1371	n/a	5	0	n/a	n/a	n/a	n/a	n/a
3661.336	n/a	RECOG_LURE	1830668	n/a	LTP129	ltpFR	4	3	n/a	SCREW	1254	0	3	n/a	n/a	n/a	n/a	n/a	n/a
3663.556	n/a	RECOG_RESP	1831778	n/a	LTP129	ltpFR	4	3	n/a	SCREW	1254	0	n/a	n/a	n/a	n/a	n/a	n/a	n/a
3664.394	n/a	RECOG_CONF	1832197	n/a	LTP129	ltpFR	4	3	n/a	SCREW	1254	n/a	3	n/a	n/a	n/a	n/a	n/a	n/a
3665.984	n/a	RECOG_TARGET	1832992	n/a	LTP129	ltpFR	4	3	-1	COLLAR	345	1	5	-1	n/a	n/a	n/a	n/a	n/a
3666.574	n/a	RECOG_RESP	1833287	n/a	LTP129	ltpFR	4	3	-1	COLLAR	345	1	n/a	-1	n/a	n/a	n/a	n/a	n/a
3667.296	n/a	RECOG_CONF	1833648	n/a	LTP129	ltpFR	4	3	-1	COLLAR	345	n/a	5	-1	n/a	n/a	n/a	n/a	n/a
3668.708	n/a	RECOG_TARGET	1834354	n/a	LTP129	ltpFR	4	3	0	CREVICE	405	1	5	0	n/a	n/a	n/a	n/a	n/a
3669.368	n/a	RECOG_RESP	1834684	n/a	LTP129	ltpFR	4	3	0	CREVICE	405	1	n/a	0	n/a	n/a	n/a	n/a	n/a
3670.064	n/a	RECOG_CONF	1835032	n/a	LTP129	ltpFR	4	3	0	CREVICE	405	n/a	5	0	n/a	n/a	n/a	n/a	n/a
3671.59	n/a	RECOG_TARGET	1835795	n/a	LTP129	ltpFR	4	3	0	WAITER	1580	1	5	1	n/a	n/a	n/a	n/a	n/a
3672.554	n/a	RECOG_RESP	1836277	n/a	LTP129	ltpFR	4	3	0	WAITER	1580	1	n/a	1	n/a	n/a	n/a	n/a	n/a
3673.36	n/a	RECOG_CONF	1836680	n/a	LTP129	ltpFR	4	3	0	WAITER	1580	n/a	5	1	n/a	n/a	n/a	n/a	n/a
3674.848	n/a	RECOG_TARGET	1837424	n/a	LTP129	ltpFR	4	3	-1	BLOSSOM	138	1	5	-1	n/a	n/a	n/a	n/a	n/a
3675.474	n/a	RECOG_RESP	1837737	n/a	LTP129	ltpFR	4	3	-1	BLOSSOM	138	1	n/a	-1	n/a	n/a	n/a	n/a	n/a
3676.232	n/a	RECOG_CONF	1838116	n/a	LTP129	ltpFR	4	3	-1	BLOSSOM	138	n/a	5	-1	n/a	n/a	n/a	n/a	n/a
3677.596	n/a	RECOG_LURE	1838798	n/a	LTP129	ltpFR	4	3	n/a	EWE	542	0	5	n/a	n/a	n/a	n/a	n/a	n/a
3678.696	n/a	RECOG_RESP	1839348	n/a	LTP129	ltpFR	4	3	n/a	EWE	542	0	n/a	n/a	n/a	n/a	n/a	n/a	n/a
3679.434	n/a	RECOG_CONF	1839717	n/a	LTP129	ltpFR	4	3	n/a	EWE	542	n/a	5	n/a	n/a	n/a	n/a	n/a	n/a
3680.946	n/a	RECOG_LURE	1840473	n/a	LTP129	ltpFR	4	3	n/a	EMPEROR	529	0	5	n/a	n/a	n/a	n/a	n/a	n/a
3682.08	n/a	RECOG_RESP	1841040	n/a	LTP129	ltpFR	4	3	n/a	EMPEROR	529	0	n/a	n/a	n/a	n/a	n/a	n/a	n/a
3682.942	n/a	RECOG_CONF	1841471	n/a	LTP129	ltpFR	4	3	n/a	EMPEROR	529	n/a	5	n/a	n/a	n/a	n/a	n/a	n/a
3684.512	n/a	RECOG_LURE	1842256	n/a	LTP129	ltpFR	4	3	n/a	COLUMN	350	0	5	n/a	n/a	n/a	n/a	n/a	n/a
3685.316	n/a	RECOG_RESP	1842658	n/a	LTP129	ltpFR	4	3	n/a	COLUMN	350	0	n/a	n/a	n/a	n/a	n/a	n/a	n/a
3686.104	n/a	RECOG_CONF	1843052	n/a	LTP129	ltpFR	4	3	n/a	COLUMN	350	n/a	5	n/a	n/a	n/a	n/a	n/a	n/a
3687.586	n/a	RECOG_LURE	1843793	n/a	LTP129	ltpFR	4	3	n/a	DRILL	497	0	5	n/a	n/a	n/a	n/a	n/a	n/a
3688.334	n/a	RECOG_RESP	1844167	n/a	LTP129	ltpFR	4	3	n/a	DRILL	497	0	n/a	n/a	n/a	n/a	n/a	n/a	n/a
3689.102	n/a	RECOG_CONF	1844551	n/a	LTP129	ltpFR	4	3	n/a	DRILL	497	n/a	5	n/a	n/a	n/a	n/a	n/a	n/a
3690.618	n/a	RECOG_TARGET	1845309	n/a	LTP129	ltpFR	4	3	1	CUPBOARD	425	1	5	0	n/a	n/a	n/a	n/a	n/a
3691.308	n/a	RECOG_RESP	1845654	n/a	LTP129	ltpFR	4	3	1	CUPBOARD	425	1	n/a	0	n/a	n/a	n/a	n/a	n/a
3692.15	n/a	RECOG_CONF	1846075	n/a	LTP129	ltpFR	4	3	1	CUPBOARD	425	n/a	5	0	n/a	n/a	n/a	n/a	n/a
3693.626	n/a	RECOG_TARGET	1846813	n/a	LTP129	ltpFR	4	3	1	BABY	64	0	1	0	n/a	n/a	n/a	n/a	n/a
3695.218	n/a	RECOG_RESP	1847609	n/a	LTP129	ltpFR	4	3	1	BABY	64	0	n/a	0	n/a	n/a	n/a	n/a	n/a
3698.696	n/a	RECOG_CONF	1849348	n/a	LTP129	ltpFR	4	3	1	BABY	64	n/a	1	0	n/a	n/a	n/a	n/a	n/a
3700.124	n/a	RECOG_TARGET	1850062	n/a	LTP129	ltpFR	4	3	1	RATTLE	1170	1	5	1	n/a	n/a	n/a	n/a	n/a
3700.89	n/a	RECOG_RESP	1850445	n/a	LTP129	ltpFR	4	3	1	RATTLE	1170	1	n/a	1	n/a	n/a	n/a	n/a	n/a
3701.682	n/a	RECOG_CONF	1850841	n/a	LTP129	ltpFR	4	3	1	RATTLE	1170	n/a	5	1	n/a	n/a	n/a	n/a	n/a
3703.206	n/a	RECOG_TARGET	1851603	n/a	LTP129	ltpFR	4	3	0	ROOF	1205	1	5	1	n/a	n/a	n/a	n/a	n/a
3703.81	n/a	RECOG_RESP	1851905	n/a	LTP129	ltpFR	4	3	0	ROOF	1205	1	n/a	1	n/a	n/a	n/a	n/a	n/a
3704.454	n/a	RECOG_CONF	1852227	n/a	LTP129	ltpFR	4	3	0	ROOF	1205	n/a	5	1	n/a	n/a	n/a	n/a	n/a
3705.93	n/a	RECOG_LURE	1852965	n/a	LTP129	ltpFR	4	3	n/a	RAM	1165	0	3	n/a	n/a	n/a	n/a	n/a	n/a
3706.788	n/a	RECOG_RESP	1853394	n/a	LTP129	ltpFR	4	3	n/a	RAM	1165	0	n/a	n/a	n/a	n/a	n/a	n/a	n/a
3707.674	n/a	RECOG_CONF	1853837	n/a	LTP129	ltpFR	4	3	n/a	RAM	1165	n/a	3	n/a	n/a	n/a	n/a	n/a	n/a
3710.824	n/a	REC_START	1855412	n/a	LTP129	ltpFR	4	4	n/a	n/a	n/a	n/a	n/a	n/a	n/a	n/a	n/a	n/a	n/a
3710.862	n/a	RECOG_LURE	1855431	n/a	LTP129	ltpFR	4	4	n/a	MILITARY	894	1	3	n/a	n/a	n/a	n/a	n/a	n/a
3713.026	n/a	RECOG_RESP	1856513	n/a	LTP129	ltpFR	4	4	n/a	MILITARY	894	1	n/a	n/a	n/a	n/a	n/a	n/a	n/a
3713.868	n/a	RECOG_CONF	1856934	n/a	LTP129	ltpFR	4	4	n/a	MILITARY	894	n/a	3	n/a	n/a	n/a	n/a	n/a	n/a
3715.334	n/a	RECOG_TARGET	1857667	n/a	LTP129	ltpFR	4	4	0	WHISKERS	1605	1	5	0	n/a	n/a	n/a	n/a	n/a
3716.138	n/a	RECOG_RESP	1858069	n/a	LTP129	ltpFR	4	4	0	WHISKERS	1605	1	n/a	0	n/a	n/a	n/a	n/a	n/a
3716.878	n/a	RECOG_CONF	1858439	n/a	LTP129	ltpFR	4	4	0	WHISKERS	1605	n/a	5	0	n/a	n/a	n/a	n/a	n/a
3718.402	n/a	RECOG_LURE	1859201	n/a	LTP129	ltpFR	4	4	n/a	COMPANION	357	1	3	n/a	n/a	n/a	n/a	n/a	n/a
3721.41	n/a	RECOG_RESP	1860705	n/a	LTP129	ltpFR	4	4	n/a	COMPANION	357	1	n/a	n/a	n/a	n/a	n/a	n/a	n/a
3722.216	n/a	RECOG_CONF	1861108	n/a	LTP129	ltpFR	4	4	n/a	COMPANION	357	n/a	3	n/a	n/a	n/a	n/a	n/a	n/a
3723.808	n/a	RECOG_LURE	1861904	n/a	LTP129	ltpFR	4	4	n/a	COMPUTER	359	0	5	n/a	n/a	n/a	n/a	n/a	n/a
3724.806	n/a	RECOG_RESP	1862403	n/a	LTP129	ltpFR	4	4	n/a	COMPUTER	359	0	n/a	n/a	n/a	n/a	n/a	n/a	n/a
3725.57	n/a	RECOG_CONF	1862785	n/a	LTP129	ltpFR	4	4	n/a	COMPUTER	359	n/a	5	n/a	n/a	n/a	n/a	n/a	n/a
3727.082	n/a	RECOG_TARGET	1863541	n/a	LTP129	ltpFR	4	4	1	BRUISE	180	1	5	0	n/a	n/a	n/a	n/a	n/a
3727.994	n/a	RECOG_RESP	1863997	n/a	LTP129	ltpFR	4	4	1	BRUISE	180	1	n/a	0	n/a	n/a	n/a	n/a	n/a
3728.682	n/a	RECOG_CONF	1864341	n/a	LTP129	ltpFR	4	4	1	BRUISE	180	n/a	5	0	n/a	n/a	n/a	n/a	n/a
3730.148	n/a	RECOG_TARGET	1865074	n/a	LTP129	ltpFR	4	4	-1	VEST	1559	1	5	-1	n/a	n/a	n/a	n/a	n/a
3730.788	n/a	RECOG_RESP	1865394	n/a	LTP129	ltpFR	4	4	-1	VEST	1559	1	n/a	-1	n/a	n/a	n/a	n/a	n/a
3731.376	n/a	RECOG_CONF	1865688	n/a	LTP129	ltpFR	4	4	-1	VEST	1559	n/a	5	-1	n/a	n/a	n/a	n/a	n/a
3732.806	n/a	RECOG_TARGET	1866403	n/a	LTP129	ltpFR	4	4	0	SWAMP	1416	1	5	0	n/a	n/a	n/a	n/a	n/a
3733.402	n/a	RECOG_RESP	1866701	n/a	LTP129	ltpFR	4	4	0	SWAMP	1416	1	n/a	0	n/a	n/a	n/a	n/a	n/a
3734.176	n/a	RECOG_CONF	1867088	n/a	LTP129	ltpFR	4	4	0	SWAMP	1416	n/a	5	0	n/a	n/a	n/a	n/a	n/a
3735.772	n/a	RECOG_LURE	1867886	n/a	LTP129	ltpFR	4	4	n/a	INFANT	737	0	3	n/a	n/a	n/a	n/a	n/a	n/a
3738.322	n/a	RECOG_RESP	1869161	n/a	LTP129	ltpFR	4	4	n/a	INFANT	737	0	n/a	n/a	n/a	n/a	n/a	n/a	n/a
3739.232	n/a	RECOG_CONF	1869616	n/a	LTP129	ltpFR	4	4	n/a	INFANT	737	n/a	3	n/a	n/a	n/a	n/a	n/a	n/a
3740.712	n/a	RECOG_TARGET	1870356	n/a	LTP129	ltpFR	4	4	1	LAKE	796	1	5	1	n/a	n/a	n/a	n/a	n/a
3741.328	n/a	RECOG_RESP	1870664	n/a	LTP129	ltpFR	4	4	1	LAKE	796	1	n/a	1	n/a	n/a	n/a	n/a	n/a
3741.994	n/a	RECOG_CONF	1870997	n/a	LTP129	ltpFR	4	4	1	LAKE	796	n/a	5	1	n/a	n/a	n/a	n/a	n/a
3743.41	n/a	RECOG_TARGET	1871705	n/a	LTP129	ltpFR	4	4	1	DIRECTOR	471	1	5	1	n/a	n/a	n/a	n/a	n/a
3744.004	n/a	RECOG_RESP	1872002	n/a	LTP129	ltpFR	4	4	1	DIRECTOR	471	1	n/a	1	n/a	n/a	n/a	n/a	n/a
3744.614	n/a	RECOG_CONF	1872307	n/a	LTP129	ltpFR	4	4	1	DIRECTOR	471	n/a	5	1	n/a	n/a	n/a	n/a	n/a
3746.084	n/a	RECOG_LURE	1873042	n/a	LTP129	ltpFR	4	4	n/a	DECK	443	0	3	n/a	n/a	n/a	n/a	n/a	n/a
3747.962	n/a	RECOG_RESP	1873981	n/a	LTP129	ltpFR	4	4	n/a	DECK	443	0	n/a	n/a	n/a	n/a	n/a	n/a	n/a
3748.74	n/a	RECOG_CONF	1874370	n/a	LTP129	ltpFR	4	4	n/a	DECK	443	n/a	3	n/a	n/a	n/a	n/a	n/a	n/a
3750.084	n/a	RECOG_LURE	1875042	n/a	LTP129	ltpFR	4	4	n/a	HEADBAND	696	0	5	n/a	n/a	n/a	n/a	n/a	n/a
3751.114	n/a	RECOG_RESP	1875557	n/a	LTP129	ltpFR	4	4	n/a	HEADBAND	696	0	n/a	n/a	n/a	n/a	n/a	n/a	n/a
3751.856	n/a	RECOG_CONF	1875928	n/a	LTP129	ltpFR	4	4	n/a	HEADBAND	696	n/a	5	n/a	n/a	n/a	n/a	n/a	n/a
3753.298	n/a	RECOG_TARGET	1876649	n/a	LTP129	ltpFR	4	4	0	WALRUS	1585	1	5	1	n/a	n/a	n/a	n/a	n/a
3753.98	n/a	RECOG_RESP	1876990	n/a	LTP129	ltpFR	4	4	0	WALRUS	1585	1	n/a	1	n/a	n/a	n/a	n/a	n/a
3754.788	n/a	RECOG_CONF	1877394	n/a	LTP129	ltpFR	4	4	0	WALRUS	1585	n/a	5	1	n/a	n/a	n/a	n/a	n/a
3756.29	n/a	RECOG_TARGET	1878145	n/a	LTP129	ltpFR	4	4	1	CARD	243	1	5	0	n/a	n/a	n/a	n/a	n/a
3756.912	n/a	RECOG_RESP	1878456	n/a	LTP129	ltpFR	4	4	1	CARD	243	1	n/a	0	n/a	n/a	n/a	n/a	n/a
3757.65	n/a	RECOG_CONF	1878825	n/a	LTP129	ltpFR	4	4	1	CARD	243	n/a	5	0	n/a	n/a	n/a	n/a	n/a
3759.106	n/a	RECOG_LURE	1879553	n/a	LTP129	ltpFR	4	4	n/a	BATHTUB	100	0	5	n/a	n/a	n/a	n/a	n/a	n/a
3760.14	n/a	RECOG_RESP	1880070	n/a	LTP129	ltpFR	4	4	n/a	BATHTUB	100	0	n/a	n/a	n/a	n/a	n/a	n/a	n/a
3760.85	n/a	RECOG_CONF	1880425	n/a	LTP129	ltpFR	4	4	n/a	BATHTUB	100	n/a	5	n/a	n/a	n/a	n/a	n/a	n/a
3762.28	n/a	RECOG_TARGET	1881140	n/a	LTP129	ltpFR	4	4	-1	SHORTCAKE	1292	1	5	-1	n/a	n/a	n/a	n/a	n/a
3762.96	n/a	RECOG_RESP	1881480	n/a	LTP129	ltpFR	4	4	-1	SHORTCAKE	1292	1	n/a	-1	n/a	n/a	n/a	n/a	n/a
3763.64	n/a	RECOG_CONF	1881820	n/a	LTP129	ltpFR	4	4	-1	SHORTCAKE	1292	n/a	5	-1	n/a	n/a	n/a	n/a	n/a
3765.22	n/a	RECOG_TARGET	1882610	n/a	LTP129	ltpFR	4	4	1	RECORD	1176	1	5	0	n/a	n/a	n/a	n/a	n/a
3766.002	n/a	RECOG_RESP	1883001	n/a	LTP129	ltpFR	4	4	1	RECORD	1176	1	n/a	0	n/a	n/a	n/a	n/a	n/a
3766.87	n/a	RECOG_CONF	1883435	n/a	LTP129	ltpFR	4	4	1	RECORD	1176	n/a	5	0	n/a	n/a	n/a	n/a	n/a
3768.31	n/a	RECOG_TARGET	1884155	n/a	LTP129	ltpFR	4	4	1	HERB	704	1	5	0	n/a	n/a	n/a	n/a	n/a
3768.98	n/a	RECOG_RESP	1884490	n/a	LTP129	ltpFR	4	4	1	HERB	704	1	n/a	0	n/a	n/a	n/a	n/a	n/a
3769.638	n/a	RECOG_CONF	1884819	n/a	LTP129	ltpFR	4	4	1	HERB	704	n/a	5	0	n/a	n/a	n/a	n/a	n/a
3771.218	n/a	RECOG_LURE	1885609	n/a	LTP129	ltpFR	4	4	n/a	FUNERAL	613	0	5	n/a	n/a	n/a	n/a	n/a	n/a
3772.004	n/a	RECOG_RESP	1886002	n/a	LTP129	ltpFR	4	4	n/a	FUNERAL	613	0	n/a	n/a	n/a	n/a	n/a	n/a	n/a
3772.716	n/a	RECOG_CONF	1886358	n/a	LTP129	ltpFR	4	4	n/a	FUNERAL	613	n/a	5	n/a	n/a	n/a	n/a	n/a	n/a
3774.136	n/a	RECOG_TARGET	1887068	n/a	LTP129	ltpFR	4	4	-1	LIGHTER	819	1	5	-1	n/a	n/a	n/a	n/a	n/a
3775.13	n/a	RECOG_RESP	1887565	n/a	LTP129	ltpFR	4	4	-1	LIGHTER	819	1	n/a	-1	n/a	n/a	n/a	n/a	n/a
3775.804	n/a	RECOG_CONF	1887902	n/a	LTP129	ltpFR	4	4	-1	LIGHTER	819	n/a	5	-1	n/a	n/a	n/a	n/a	n/a
3779.102	n/a	REC_START	1889551	n/a	LTP129	ltpFR	4	5	n/a	n/a	n/a	n/a	n/a	n/a	n/a	n/a	n/a	n/a	n/a
3779.142	n/a	RECOG_TARGET	1889571	n/a	LTP129	ltpFR	4	5	0	POSSUM	1112	1	5	0	n/a	n/a	n/a	n/a	n/a
3780.036	n/a	RECOG_RESP	1890018	n/a	LTP129	ltpFR	4	5	0	POSSUM	1112	1	n/a	0	n/a	n/a	n/a	n/a	n/a
3780.702	n/a	RECOG_CONF	1890351	n/a	LTP129	ltpFR	4	5	0	POSSUM	1112	n/a	5	0	n/a	n/a	n/a	n/a	n/a
3782.266	n/a	RECOG_LURE	1891133	n/a	LTP129	ltpFR	4	5	n/a	CHICKEN	297	0	5	n/a	n/a	n/a	n/a	n/a	n/a
3783.03	n/a	RECOG_RESP	1891515	n/a	LTP129	ltpFR	4	5	n/a	CHICKEN	297	0	n/a	n/a	n/a	n/a	n/a	n/a	n/a
3783.662	n/a	RECOG_CONF	1891831	n/a	LTP129	ltpFR	4	5	n/a	CHICKEN	297	n/a	5	n/a	n/a	n/a	n/a	n/a	n/a
3785.114	n/a	RECOG_TARGET	1892557	n/a	LTP129	ltpFR	4	5	0	FLESH	579	1	3	0	n/a	n/a	n/a	n/a	n/a
3785.882	n/a	RECOG_RESP	1892941	n/a	LTP129	ltpFR	4	5	0	FLESH	579	1	n/a	0	n/a	n/a	n/a	n/a	n/a
3786.634	n/a	RECOG_CONF	1893317	n/a	LTP129	ltpFR	4	5	0	FLESH	579	n/a	3	0	n/a	n/a	n/a	n/a	n/a
3788.064	n/a	RECOG_LURE	1894032	n/a	LTP129	ltpFR	4	5	n/a	WRITER	1627	0	3	n/a	n/a	n/a	n/a	n/a	n/a
3789.378	n/a	RECOG_RESP	1894689	n/a	LTP129	ltpFR	4	5	n/a	WRITER	1627	0	n/a	n/a	n/a	n/a	n/a	n/a	n/a
3790.314	n/a	RECOG_CONF	1895157	n/a	LTP129	ltpFR	4	5	n/a	WRITER	1627	n/a	3	n/a	n/a	n/a	n/a	n/a	n/a
3791.772	n/a	RECOG_TARGET	1895886	n/a	LTP129	ltpFR	4	5	-1	KITE	779	1	5	-1	n/a	n/a	n/a	n/a	n/a
3792.698	n/a	RECOG_RESP	1896349	n/a	LTP129	ltpFR	4	5	-1	KITE	779	1	n/a	-1	n/a	n/a	n/a	n/a	n/a
3793.408	n/a	RECOG_CONF	1896704	n/a	LTP129	ltpFR	4	5	-1	KITE	779	n/a	5	-1	n/a	n/a	n/a	n/a	n/a
3794.846	n/a	RECOG_LURE	1897423	n/a	LTP129	ltpFR	4	5	n/a	DICTATOR	462	0	3	n/a	n/a	n/a	n/a	n/a	n/a
3796.136	n/a	RECOG_RESP	1898068	n/a	LTP129	ltpFR	4	5	n/a	DICTATOR	462	0	n/a	n/a	n/a	n/a	n/a	n/a	n/a
3796.972	n/a	RECOG_CONF	1898486	n/a	LTP129	ltpFR	4	5	n/a	DICTATOR	462	n/a	3	n/a	n/a	n/a	n/a	n/a	n/a
3798.694	n/a	RECOG_TARGET	1899347	n/a	LTP129	ltpFR	4	5	-1	SCENERY	1247	1	5	-1	n/a	n/a	n/a	n/a	n/a
3799.37	n/a	RECOG_RESP	1899685	n/a	LTP129	ltpFR	4	5	-1	SCENERY	1247	1	n/a	-1	n/a	n/a	n/a	n/a	n/a
3800.092	n/a	RECOG_CONF	1900046	n/a	LTP129	ltpFR	4	5	-1	SCENERY	1247	n/a	5	-1	n/a	n/a	n/a	n/a	n/a
3801.534	n/a	RECOG_LURE	1900767	n/a	LTP129	ltpFR	4	5	n/a	VICTOR	1563	0	3	n/a	n/a	n/a	n/a	n/a	n/a
3803.126	n/a	RECOG_RESP	1901563	n/a	LTP129	ltpFR	4	5	n/a	VICTOR	1563	0	n/a	n/a	n/a	n/a	n/a	n/a	n/a
3803.774	n/a	RECOG_CONF	1901887	n/a	LTP129	ltpFR	4	5	n/a	VICTOR	1563	n/a	3	n/a	n/a	n/a	n/a	n/a	n/a
3805.2	n/a	RECOG_TARGET	1902600	n/a	LTP129	ltpFR	4	5	0	CATHEDRAL	260	1	5	1	n/a	n/a	n/a	n/a	n/a
3805.844	n/a	RECOG_RESP	1902922	n/a	LTP129	ltpFR	4	5	0	CATHEDRAL	260	1	n/a	1	n/a	n/a	n/a	n/a	n/a
3806.484	n/a	RECOG_CONF	1903242	n/a	LTP129	ltpFR	4	5	0	CATHEDRAL	260	n/a	5	1	n/a	n/a	n/a	n/a	n/a
3807.94	n/a	RECOG_LURE	1903970	n/a	LTP129	ltpFR	4	5	n/a	BEAKER	104	0	5	n/a	n/a	n/a	n/a	n/a	n/a
3808.882	n/a	RECOG_RESP	1904441	n/a	LTP129	ltpFR	4	5	n/a	BEAKER	104	0	n/a	n/a	n/a	n/a	n/a	n/a	n/a
3809.544	n/a	RECOG_CONF	1904772	n/a	LTP129	ltpFR	4	5	n/a	BEAKER	104	n/a	5	n/a	n/a	n/a	n/a	n/a	n/a
3811.0	n/a	RECOG_TARGET	1905500	n/a	LTP129	ltpFR	4	5	0	PILL	1068	1	5	0	n/a	n/a	n/a	n/a	n/a
3811.678	n/a	RECOG_RESP	1905839	n/a	LTP129	ltpFR	4	5	0	PILL	1068	1	n/a	0	n/a	n/a	n/a	n/a	n/a
3812.352	n/a	RECOG_CONF	1906176	n/a	LTP129	ltpFR	4	5	0	PILL	1068	n/a	5	0	n/a	n/a	n/a	n/a	n/a
3813.832	n/a	RECOG_LURE	1906916	n/a	LTP129	ltpFR	4	5	n/a	MATCH	878	0	3	n/a	n/a	n/a	n/a	n/a	n/a
3815.018	n/a	RECOG_RESP	1907509	n/a	LTP129	ltpFR	4	5	n/a	MATCH	878	0	n/a	n/a	n/a	n/a	n/a	n/a	n/a
3815.83	n/a	RECOG_CONF	1907915	n/a	LTP129	ltpFR	4	5	n/a	MATCH	878	n/a	3	n/a	n/a	n/a	n/a	n/a	n/a
3817.198	n/a	RECOG_TARGET	1908599	n/a	LTP129	ltpFR	4	5	-1	OFFICER	973	1	5	-1	n/a	n/a	n/a	n/a	n/a
3817.836	n/a	RECOG_RESP	1908918	n/a	LTP129	ltpFR	4	5	-1	OFFICER	973	1	n/a	-1	n/a	n/a	n/a	n/a	n/a
3818.556	n/a	RECOG_CONF	1909278	n/a	LTP129	ltpFR	4	5	-1	OFFICER	973	n/a	5	-1	n/a	n/a	n/a	n/a	n/a
3820.038	n/a	RECOG_LURE	1910019	n/a	LTP129	ltpFR	4	5	n/a	CHICK	296	0	5	n/a	n/a	n/a	n/a	n/a	n/a
3820.954	n/a	RECOG_RESP	1910477	n/a	LTP129	ltpFR	4	5	n/a	CHICK	296	0	n/a	n/a	n/a	n/a	n/a	n/a	n/a
3821.552	n/a	RECOG_CONF	1910776	n/a	LTP129	ltpFR	4	5	n/a	CHICK	296	n/a	5	n/a	n/a	n/a	n/a	n/a	n/a
3823.12	n/a	RECOG_TARGET	1911560	n/a	LTP129	ltpFR	4	5	1	DIPLOMA	470	1	5	0	n/a	n/a	n/a	n/a	n/a
3824.03	n/a	RECOG_RESP	1912015	n/a	LTP129	ltpFR	4	5	1	DIPLOMA	470	1	n/a	0	n/a	n/a	n/a	n/a	n/a
