onset	duration	trial_type	sample	stim_file	subject	experiment	session	trial	item_name	item_num	list	answer	test_x	test_y	test_z
803.71	n/a	SESS_START	401855	n/a	LTP280	ltpFR2	17	n/a	n/a	n/a	n/a	n/a	0	0	0
815.938	n/a	START	407969	n/a	LTP280	ltpFR2	17	n/a	n/a	n/a	-1	n/a	n/a	n/a	n/a
815.954	n/a	PROB	407977	n/a	LTP280	ltpFR2	17	n/a	n/a	n/a	-1	15	5	9	1
817.072	n/a	PROB	408536	n/a	LTP280	ltpFR2	17	n/a	n/a	n/a	-1	21	9	8	4
818.686	n/a	PROB	409343	n/a	LTP280	ltpFR2	17	n/a	n/a	n/a	-1	19	8	7	4
820.038	n/a	PROB	410019	n/a	LTP280	ltpFR2	17	n/a	n/a	n/a	-1	154	6	7	2
821.138	n/a	PROB	410569	n/a	LTP280	ltpFR2	17	n/a	n/a	n/a	-1	13	3	8	2
822.89	n/a	PROB	411445	n/a	LTP280	ltpFR2	17	n/a	n/a	n/a	-1	11	8	2	1
823.86	n/a	PROB	411930	n/a	LTP280	ltpFR2	17	n/a	n/a	n/a	-1	8	2	2	4
824.792	n/a	PROB	412396	n/a	LTP280	ltpFR2	17	n/a	n/a	n/a	-1	19	3	8	8
826.144	n/a	PROB	413072	n/a	LTP280	ltpFR2	17	n/a	n/a	n/a	-1	22	5	8	9
827.612	n/a	STOP	413806	n/a	LTP280	ltpFR2	17	n/a	n/a	n/a	-1	n/a	n/a	n/a	n/a
845.71	n/a	WORD	422855	wordpools/wasnorm_wordpool_576.txt	LTP280	ltpFR2	17	1	HEADBAND	696	n/a	n/a	0	0	0
848.264	n/a	WORD	424132	wordpools/wasnorm_wordpool_576.txt	LTP280	ltpFR2	17	1	MOTOR	922	n/a	n/a	0	0	0
850.954	n/a	WORD	425477	wordpools/wasnorm_wordpool_576.txt	LTP280	ltpFR2	17	1	SPOON	1357	n/a	n/a	0	0	0
853.716	n/a	WORD	426858	wordpools/wasnorm_wordpool_576.txt	LTP280	ltpFR2	17	1	FOX	598	n/a	n/a	0	0	0
856.386	n/a	WORD	428193	wordpools/wasnorm_wordpool_576.txt	LTP280	ltpFR2	17	1	WARDROBE	1587	n/a	n/a	0	0	0
858.994	n/a	WORD	429497	wordpools/wasnorm_wordpool_576.txt	LTP280	ltpFR2	17	1	COSTUME	383	n/a	n/a	0	0	0
861.48	n/a	WORD	430740	wordpools/wasnorm_wordpool_576.txt	LTP280	ltpFR2	17	1	SHORTS	1293	n/a	n/a	0	0	0
863.958	n/a	WORD	431979	wordpools/wasnorm_wordpool_576.txt	LTP280	ltpFR2	17	1	LUMBER	848	n/a	n/a	0	0	0
866.742	n/a	WORD	433371	wordpools/wasnorm_wordpool_576.txt	LTP280	ltpFR2	17	1	TAXI	1438	n/a	n/a	0	0	0
869.38	n/a	WORD	434690	wordpools/wasnorm_wordpool_576.txt	LTP280	ltpFR2	17	1	SUBWAY	1400	n/a	n/a	0	0	0
872.13	n/a	WORD	436065	wordpools/wasnorm_wordpool_576.txt	LTP280	ltpFR2	17	1	PRIMATE	1123	n/a	n/a	0	0	0
874.874	n/a	WORD	437437	wordpools/wasnorm_wordpool_576.txt	LTP280	ltpFR2	17	1	PERFUME	1049	n/a	n/a	0	0	0
877.358	n/a	WORD	438679	wordpools/wasnorm_wordpool_576.txt	LTP280	ltpFR2	17	1	BEAST	108	n/a	n/a	0	0	0
879.786	n/a	WORD	439893	wordpools/wasnorm_wordpool_576.txt	LTP280	ltpFR2	17	1	HELMET	702	n/a	n/a	0	0	0
882.456	n/a	WORD	441228	wordpools/wasnorm_wordpool_576.txt	LTP280	ltpFR2	17	1	ZIPPER	1636	n/a	n/a	0	0	0
885.008	n/a	WORD	442504	wordpools/wasnorm_wordpool_576.txt	LTP280	ltpFR2	17	1	PARROT	1015	n/a	n/a	0	0	0
887.576	n/a	WORD	443788	wordpools/wasnorm_wordpool_576.txt	LTP280	ltpFR2	17	1	HORNET	718	n/a	n/a	0	0	0
890.22	n/a	WORD	445110	wordpools/wasnorm_wordpool_576.txt	LTP280	ltpFR2	17	1	BANK	83	n/a	n/a	0	0	0
892.706	n/a	WORD	446353	wordpools/wasnorm_wordpool_576.txt	LTP280	ltpFR2	17	1	COIN	343	n/a	n/a	0	0	0
895.132	n/a	WORD	447566	wordpools/wasnorm_wordpool_576.txt	LTP280	ltpFR2	17	1	HOOD	714	n/a	n/a	0	0	0
897.634	n/a	WORD	448817	wordpools/wasnorm_wordpool_576.txt	LTP280	ltpFR2	17	1	ORCHID	982	n/a	n/a	0	0	0
900.42	n/a	WORD	450210	wordpools/wasnorm_wordpool_576.txt	LTP280	ltpFR2	17	1	TWIG	1527	n/a	n/a	0	0	0
902.904	n/a	WORD	451452	wordpools/wasnorm_wordpool_576.txt	LTP280	ltpFR2	17	1	SHIRT	1287	n/a	n/a	0	0	0
905.49	n/a	WORD	452745	wordpools/wasnorm_wordpool_576.txt	LTP280	ltpFR2	17	1	GIRL	637	n/a	n/a	0	0	0
907.102	n/a	START	453551	n/a	LTP280	ltpFR2	17	n/a	n/a	n/a	1	n/a	n/a	n/a	n/a
908.222	n/a	DISTRACTOR	454111	n/a	LTP280	ltpFR2	17	1	n/a	n/a	n/a	n/a	0	0	0
908.228	n/a	PROB	454114	n/a	LTP280	ltpFR2	17	n/a	n/a	n/a	1	13	7	5	1
909.312	n/a	PROB	454656	n/a	LTP280	ltpFR2	17	n/a	n/a	n/a	1	15	5	1	8
910.462	n/a	PROB	455231	n/a	LTP280	ltpFR2	17	n/a	n/a	n/a	1	22	5	8	9
913.128	n/a	PROB	456564	n/a	LTP280	ltpFR2	17	n/a	n/a	n/a	1	11	3	6	2
914.096	n/a	PROB	457048	n/a	LTP280	ltpFR2	17	n/a	n/a	n/a	1	11	5	5	1
914.896	n/a	PROB	457448	n/a	LTP280	ltpFR2	17	n/a	n/a	n/a	1	13	3	8	2
915.964	n/a	PROB	457982	n/a	LTP280	ltpFR2	17	n/a	n/a	n/a	1	16	6	7	3
917.114	n/a	PROB	458557	n/a	LTP280	ltpFR2	17	n/a	n/a	n/a	1	15	4	6	5
918.032	n/a	PROB	459016	n/a	LTP280	ltpFR2	17	n/a	n/a	n/a	1	14	4	1	9
919.082	n/a	PROB	459541	n/a	LTP280	ltpFR2	17	n/a	n/a	n/a	1	17	5	9	3
920.286	n/a	PROB	460143	n/a	LTP280	ltpFR2	17	n/a	n/a	n/a	1	13	4	7	2
921.268	n/a	PROB	460634	n/a	LTP280	ltpFR2	17	n/a	n/a	n/a	1	16	8	2	6
922.254	n/a	PROB	461127	n/a	LTP280	ltpFR2	17	n/a	n/a	n/a	1	14	3	2	9
923.504	n/a	PROB	461752	n/a	LTP280	ltpFR2	17	n/a	n/a	n/a	1	7	3	2	2
925.854	n/a	PROB	462927	n/a	LTP280	ltpFR2	17	n/a	n/a	n/a	1	14	1	7	6
926.906	n/a	PROB	463453	n/a	LTP280	ltpFR2	17	n/a	n/a	n/a	1	14	4	5	5
927.94	n/a	PROB	463970	n/a	LTP280	ltpFR2	17	n/a	n/a	n/a	1	9	2	3	4
929.56	n/a	PROB	464780	n/a	LTP280	ltpFR2	17	n/a	n/a	n/a	1	11	3	6	2
930.772	n/a	STOP	465386	n/a	LTP280	ltpFR2	17	n/a	n/a	n/a	1	n/a	n/a	n/a	n/a
932.978	n/a	REC_START	466489	n/a	LTP280	ltpFR2	17	1	n/a	n/a	n/a	n/a	0	0	0
933.402	n/a	REC_WORD	466701	wordpools/wasnorm_wordpool_576.txt	LTP280	ltpFR2	17	1	PRIMATE	1123	n/a	n/a	0	0	0
934.006	n/a	REC_WORD	467003	wordpools/wasnorm_wordpool_576.txt	LTP280	ltpFR2	17	1	HELMET	702	n/a	n/a	0	0	0
934.614	n/a	REC_WORD	467307	wordpools/wasnorm_wordpool_576.txt	LTP280	ltpFR2	17	1	ZIPPER	1636	n/a	n/a	0	0	0
936.204	n/a	REC_WORD_VV	468102	wordpools/wasnorm_wordpool_576.txt	LTP280	ltpFR2	17	1	<>	-1	n/a	n/a	0	0	0
936.386	n/a	REC_WORD	468193	wordpools/wasnorm_wordpool_576.txt	LTP280	ltpFR2	17	1	HOOD	714	n/a	n/a	0	0	0
939.298	n/a	REC_WORD_VV	469649	wordpools/wasnorm_wordpool_576.txt	LTP280	ltpFR2	17	1	<>	-1	n/a	n/a	0	0	0
939.394	n/a	REC_WORD	469697	wordpools/wasnorm_wordpool_576.txt	LTP280	ltpFR2	17	1	SHORTS	1293	n/a	n/a	0	0	0
940.328	n/a	REC_WORD	470164	wordpools/wasnorm_wordpool_576.txt	LTP280	ltpFR2	17	1	SHIRT	1287	n/a	n/a	0	0	0
943.454	n/a	REC_WORD	471727	wordpools/wasnorm_wordpool_576.txt	LTP280	ltpFR2	17	1	WARDROBE	1587	n/a	n/a	0	0	0
944.972	n/a	REC_WORD	472486	wordpools/wasnorm_wordpool_576.txt	LTP280	ltpFR2	17	1	COSTUME	383	n/a	n/a	0	0	0
946.282	n/a	REC_WORD	473141	wordpools/wasnorm_wordpool_576.txt	LTP280	ltpFR2	17	1	HEADBAND	696	n/a	n/a	0	0	0
947.24	n/a	REC_WORD	473620	wordpools/wasnorm_wordpool_576.txt	LTP280	ltpFR2	17	1	MOTOR	922	n/a	n/a	0	0	0
947.904	n/a	REC_WORD	473952	wordpools/wasnorm_wordpool_576.txt	LTP280	ltpFR2	17	1	FOX	598	n/a	n/a	0	0	0
948.988	n/a	REC_WORD	474494	wordpools/wasnorm_wordpool_576.txt	LTP280	ltpFR2	17	1	SPOON	1357	n/a	n/a	0	0	0
1023.4	n/a	DISTRACTOR	511700	n/a	LTP280	ltpFR2	17	2	n/a	n/a	n/a	n/a	0	0	0
1023.4	n/a	START	511700	n/a	LTP280	ltpFR2	17	n/a	n/a	n/a	2	n/a	n/a	n/a	n/a
1023.416	n/a	PROB	511708	n/a	LTP280	ltpFR2	17	n/a	n/a	n/a	2	18	4	5	9
1025.034	n/a	PROB	512517	n/a	LTP280	ltpFR2	17	n/a	n/a	n/a	2	10	7	1	2
1025.934	n/a	PROB	512967	n/a	LTP280	ltpFR2	17	n/a	n/a	n/a	2	10	8	1	1
1027.368	n/a	PROB	513684	n/a	LTP280	ltpFR2	17	n/a	n/a	n/a	2	20	2	9	9
1028.488	n/a	PROB	514244	n/a	LTP280	ltpFR2	17	n/a	n/a	n/a	2	13	3	3	7
1029.952	n/a	PROB	514976	n/a	LTP280	ltpFR2	17	n/a	n/a	n/a	2	20	8	9	3
1031.088	n/a	PROB	515544	n/a	LTP280	ltpFR2	17	n/a	n/a	n/a	2	17	6	2	9
1032.64	n/a	PROB	516320	n/a	LTP280	ltpFR2	17	n/a	n/a	n/a	2	19	9	6	4
1034.124	n/a	PROB	517062	n/a	LTP280	ltpFR2	17	n/a	n/a	n/a	2	13	8	3	2
1035.374	n/a	PROB	517687	n/a	LTP280	ltpFR2	17	n/a	n/a	n/a	2	16	5	9	2
1036.492	n/a	PROB	518246	n/a	LTP280	ltpFR2	17	n/a	n/a	n/a	2	13	4	5	4
1038.178	n/a	PROB	519089	n/a	LTP280	ltpFR2	17	n/a	n/a	n/a	2	24	8	7	9
1039.444	n/a	PROB	519722	n/a	LTP280	ltpFR2	17	n/a	n/a	n/a	2	19	9	7	3
1040.894	n/a	PROB	520447	n/a	LTP280	ltpFR2	17	n/a	n/a	n/a	2	11	4	4	3
1042.114	n/a	PROB	521057	n/a	LTP280	ltpFR2	17	n/a	n/a	n/a	2	16	9	5	2
1043.316	n/a	PROB	521658	n/a	LTP280	ltpFR2	17	n/a	n/a	n/a	2	11	1	2	8
1044.164	n/a	PROB	522082	n/a	LTP280	ltpFR2	17	n/a	n/a	n/a	2	12	4	4	4
1045.098	n/a	PROB	522549	n/a	LTP280	ltpFR2	17	n/a	n/a	n/a	2	9	1	5	3
1045.95	n/a	STOP	522975	n/a	LTP280	ltpFR2	17	n/a	n/a	n/a	2	n/a	n/a	n/a	n/a
1048.536	n/a	WORD	524268	wordpools/wasnorm_wordpool_576.txt	LTP280	ltpFR2	17	2	CHILD	299	n/a	n/a	0	0	0
1051.324	n/a	WORD	525662	wordpools/wasnorm_wordpool_576.txt	LTP280	ltpFR2	17	2	GLASS	639	n/a	n/a	0	0	0
1053.824	n/a	WORD	526912	wordpools/wasnorm_wordpool_576.txt	LTP280	ltpFR2	17	2	ASIA	46	n/a	n/a	0	0	0
1056.408	n/a	WORD	528204	wordpools/wasnorm_wordpool_576.txt	LTP280	ltpFR2	17	2	NURSE	963	n/a	n/a	0	0	0
1058.862	n/a	WORD	529431	wordpools/wasnorm_wordpool_576.txt	LTP280	ltpFR2	17	2	COCKTAIL	338	n/a	n/a	0	0	0
1061.432	n/a	WORD	530716	wordpools/wasnorm_wordpool_576.txt	LTP280	ltpFR2	17	2	LADDER	793	n/a	n/a	0	0	0
1064.068	n/a	WORD	532034	wordpools/wasnorm_wordpool_576.txt	LTP280	ltpFR2	17	2	SLOPE	1328	n/a	n/a	0	0	0
1066.716	n/a	WORD	533358	wordpools/wasnorm_wordpool_576.txt	LTP280	ltpFR2	17	2	MUMMY	932	n/a	n/a	0	0	0
1069.318	n/a	WORD	534659	wordpools/wasnorm_wordpool_576.txt	LTP280	ltpFR2	17	2	YOLK	1633	n/a	n/a	0	0	0
1071.836	n/a	WORD	535918	wordpools/wasnorm_wordpool_576.txt	LTP280	ltpFR2	17	2	LUGGAGE	847	n/a	n/a	0	0	0
1074.406	n/a	WORD	537203	wordpools/wasnorm_wordpool_576.txt	LTP280	ltpFR2	17	2	PEDAL	1037	n/a	n/a	0	0	0
1077.156	n/a	WORD	538578	wordpools/wasnorm_wordpool_576.txt	LTP280	ltpFR2	17	2	CHAUFFEUR	283	n/a	n/a	0	0	0
1079.68	n/a	WORD	539840	wordpools/wasnorm_wordpool_576.txt	LTP280	ltpFR2	17	2	SPHINX	1349	n/a	n/a	0	0	0
1082.446	n/a	WORD	541223	wordpools/wasnorm_wordpool_576.txt	LTP280	ltpFR2	17	2	COUNTRY	388	n/a	n/a	0	0	0
1084.984	n/a	WORD	542492	wordpools/wasnorm_wordpool_576.txt	LTP280	ltpFR2	17	2	ROOSTER	1209	n/a	n/a	0	0	0
1087.588	n/a	WORD	543794	wordpools/wasnorm_wordpool_576.txt	LTP280	ltpFR2	17	2	ATOM	55	n/a	n/a	0	0	0
1090.29	n/a	WORD	545145	wordpools/wasnorm_wordpool_576.txt	LTP280	ltpFR2	17	2	PERCH	1048	n/a	n/a	0	0	0
1093.036	n/a	WORD	546518	wordpools/wasnorm_wordpool_576.txt	LTP280	ltpFR2	17	2	SALT	1229	n/a	n/a	0	0	0
1095.588	n/a	WORD	547794	wordpools/wasnorm_wordpool_576.txt	LTP280	ltpFR2	17	2	COTTAGE	384	n/a	n/a	0	0	0
1098.342	n/a	WORD	549171	wordpools/wasnorm_wordpool_576.txt	LTP280	ltpFR2	17	2	CARROT	249	n/a	n/a	0	0	0
1100.982	n/a	WORD	550491	wordpools/wasnorm_wordpool_576.txt	LTP280	ltpFR2	17	2	BUNNY	198	n/a	n/a	0	0	0
1103.644	n/a	WORD	551822	wordpools/wasnorm_wordpool_576.txt	LTP280	ltpFR2	17	2	ONION	977	n/a	n/a	0	0	0
1106.396	n/a	WORD	553198	wordpools/wasnorm_wordpool_576.txt	LTP280	ltpFR2	17	2	GARLIC	624	n/a	n/a	0	0	0
1108.872	n/a	WORD	554436	wordpools/wasnorm_wordpool_576.txt	LTP280	ltpFR2	17	2	INMATE	738	n/a	n/a	0	0	0
1110.484	n/a	START	555242	n/a	LTP280	ltpFR2	17	n/a	n/a	n/a	3	n/a	n/a	n/a	n/a
1111.5	n/a	DISTRACTOR	555750	n/a	LTP280	ltpFR2	17	2	n/a	n/a	n/a	n/a	0	0	0
1111.508	n/a	PROB	555754	n/a	LTP280	ltpFR2	17	n/a	n/a	n/a	3	15	6	8	1
1112.552	n/a	PROB	556276	n/a	LTP280	ltpFR2	17	n/a	n/a	n/a	3	22	6	8	8
1114.986	n/a	PROB	557493	n/a	LTP280	ltpFR2	17	n/a	n/a	n/a	3	15	5	4	6
1116.104	n/a	PROB	558052	n/a	LTP280	ltpFR2	17	n/a	n/a	n/a	3	13	7	1	5
1117.324	n/a	PROB	558662	n/a	LTP280	ltpFR2	17	n/a	n/a	n/a	3	11	6	2	3
1118.474	n/a	PROB	559237	n/a	LTP280	ltpFR2	17	n/a	n/a	n/a	3	16	8	1	7
1119.658	n/a	PROB	559829	n/a	LTP280	ltpFR2	17	n/a	n/a	n/a	3	21	7	8	6
1120.842	n/a	PROB	560421	n/a	LTP280	ltpFR2	17	n/a	n/a	n/a	3	15	2	8	5
1122.024	n/a	PROB	561012	n/a	LTP280	ltpFR2	17	n/a	n/a	n/a	3	15	5	9	1
1123.228	n/a	PROB	561614	n/a	LTP280	ltpFR2	17	n/a	n/a	n/a	3	17	6	8	3
1124.544	n/a	PROB	562272	n/a	LTP280	ltpFR2	17	n/a	n/a	n/a	3	15	1	5	9
1125.46	n/a	PROB	562730	n/a	LTP280	ltpFR2	17	n/a	n/a	n/a	3	16	8	4	4
1126.912	n/a	PROB	563456	n/a	LTP280	ltpFR2	17	n/a	n/a	n/a	3	13	7	3	3
1127.846	n/a	PROB	563923	n/a	LTP280	ltpFR2	17	n/a	n/a	n/a	3	13	1	8	4
1128.864	n/a	PROB	564432	n/a	LTP280	ltpFR2	17	n/a	n/a	n/a	3	14	5	7	2
1130.432	n/a	PROB	565216	n/a	LTP280	ltpFR2	17	n/a	n/a	n/a	3	10	3	2	5
1131.734	n/a	PROB	565867	n/a	LTP280	ltpFR2	17	n/a	n/a	n/a	3	15	4	9	2
1132.85	n/a	PROB	566425	n/a	LTP280	ltpFR2	17	n/a	n/a	n/a	3	8	2	2	4
1133.792	n/a	STOP	566896	n/a	LTP280	ltpFR2	17	n/a	n/a	n/a	3	n/a	n/a	n/a	n/a
1136.32	n/a	REC_START	568160	n/a	LTP280	ltpFR2	17	2	n/a	n/a	n/a	n/a	0	0	0
1137.174	n/a	REC_WORD	568587	wordpools/wasnorm_wordpool_576.txt	LTP280	ltpFR2	17	2	CHINA	-1	n/a	n/a	0	0	0
1137.776	n/a	REC_WORD	568888	wordpools/wasnorm_wordpool_576.txt	LTP280	ltpFR2	17	2	GLASS	639	n/a	n/a	0	0	0
1140.742	n/a	REC_WORD	570371	wordpools/wasnorm_wordpool_576.txt	LTP280	ltpFR2	17	2	ASIA	46	n/a	n/a	0	0	0
1141.664	n/a	REC_WORD	570832	wordpools/wasnorm_wordpool_576.txt	LTP280	ltpFR2	17	2	LUGGAGE	847	n/a	n/a	0	0	0
1142.486	n/a	REC_WORD	571243	wordpools/wasnorm_wordpool_576.txt	LTP280	ltpFR2	17	2	SALT	1229	n/a	n/a	0	0	0
1143.45	n/a	REC_WORD	571725	wordpools/wasnorm_wordpool_576.txt	LTP280	ltpFR2	17	2	PERCH	1048	n/a	n/a	0	0	0
1145.106	n/a	REC_WORD	572553	wordpools/wasnorm_wordpool_576.txt	LTP280	ltpFR2	17	2	WALLET	1583	n/a	n/a	0	0	0
1145.774	n/a	REC_WORD_VV	572887	wordpools/wasnorm_wordpool_576.txt	LTP280	ltpFR2	17	2	<>	-1	n/a	n/a	0	0	0
1146.86	n/a	REC_WORD	573430	wordpools/wasnorm_wordpool_576.txt	LTP280	ltpFR2	17	2	ONION	977	n/a	n/a	0	0	0
1149.72	n/a	REC_WORD	574860	wordpools/wasnorm_wordpool_576.txt	LTP280	ltpFR2	17	2	GARLIC	624	n/a	n/a	0	0	0
1151.502	n/a	REC_WORD	575751	wordpools/wasnorm_wordpool_576.txt	LTP280	ltpFR2	17	2	CARROT	249	n/a	n/a	0	0	0
1155.638	n/a	REC_WORD	577819	wordpools/wasnorm_wordpool_576.txt	LTP280	ltpFR2	17	2	BUNNY	198	n/a	n/a	0	0	0
1226.772	n/a	WORD	613386	wordpools/wasnorm_wordpool_576.txt	LTP280	ltpFR2	17	3	PUDDING	1139	n/a	n/a	0	0	0
1229.326	n/a	WORD	614663	wordpools/wasnorm_wordpool_576.txt	LTP280	ltpFR2	17	3	PALACE	1006	n/a	n/a	0	0	0
1231.778	n/a	WORD	615889	wordpools/wasnorm_wordpool_576.txt	LTP280	ltpFR2	17	3	STAMP	1370	n/a	n/a	0	0	0
1234.246	n/a	WORD	617123	wordpools/wasnorm_wordpool_576.txt	LTP280	ltpFR2	17	3	COMET	353	n/a	n/a	0	0	0
1236.714	n/a	WORD	618357	wordpools/wasnorm_wordpool_576.txt	LTP280	ltpFR2	17	3	LAVA	804	n/a	n/a	0	0	0
1239.452	n/a	WORD	619726	wordpools/wasnorm_wordpool_576.txt	LTP280	ltpFR2	17	3	PRINCE	1124	n/a	n/a	0	0	0
1242.102	n/a	WORD	621051	wordpools/wasnorm_wordpool_576.txt	LTP280	ltpFR2	17	3	GREASE	660	n/a	n/a	0	0	0
1244.672	n/a	WORD	622336	wordpools/wasnorm_wordpool_576.txt	LTP280	ltpFR2	17	3	NEUTRON	947	n/a	n/a	0	0	0
1247.174	n/a	WORD	623587	wordpools/wasnorm_wordpool_576.txt	LTP280	ltpFR2	17	3	DRAWING	494	n/a	n/a	0	0	0
1249.658	n/a	WORD	624829	wordpools/wasnorm_wordpool_576.txt	LTP280	ltpFR2	17	3	DIME	466	n/a	n/a	0	0	0
1252.092	n/a	WORD	626046	wordpools/wasnorm_wordpool_576.txt	LTP280	ltpFR2	17	3	FOREST	593	n/a	n/a	0	0	0
1254.63	n/a	WORD	627315	wordpools/wasnorm_wordpool_576.txt	LTP280	ltpFR2	17	3	GRILL	661	n/a	n/a	0	0	0
1257.08	n/a	WORD	628540	wordpools/wasnorm_wordpool_576.txt	LTP280	ltpFR2	17	3	LEG	809	n/a	n/a	0	0	0
1259.866	n/a	WORD	629933	wordpools/wasnorm_wordpool_576.txt	LTP280	ltpFR2	17	3	WORLD	1622	n/a	n/a	0	0	0
1262.336	n/a	WORD	631168	wordpools/wasnorm_wordpool_576.txt	LTP280	ltpFR2	17	3	PROTON	1132	n/a	n/a	0	0	0
1265.138	n/a	WORD	632569	wordpools/wasnorm_wordpool_576.txt	LTP280	ltpFR2	17	3	BEAVER	109	n/a	n/a	0	0	0
1267.84	n/a	WORD	633920	wordpools/wasnorm_wordpool_576.txt	LTP280	ltpFR2	17	3	THIEF	1456	n/a	n/a	0	0	0
1270.392	n/a	WORD	635196	wordpools/wasnorm_wordpool_576.txt	LTP280	ltpFR2	17	3	DASHBOARD	441	n/a	n/a	0	0	0
1273.178	n/a	WORD	636589	wordpools/wasnorm_wordpool_576.txt	LTP280	ltpFR2	17	3	NOVEL	960	n/a	n/a	0	0	0
1275.962	n/a	WORD	637981	wordpools/wasnorm_wordpool_576.txt	LTP280	ltpFR2	17	3	SHELF	1280	n/a	n/a	0	0	0
1278.532	n/a	WORD	639266	wordpools/wasnorm_wordpool_576.txt	LTP280	ltpFR2	17	3	TEACHER	1440	n/a	n/a	0	0	0
1281.0	n/a	WORD	640500	wordpools/wasnorm_wordpool_576.txt	LTP280	ltpFR2	17	3	BLACKBOARD	133	n/a	n/a	0	0	0
1283.72	n/a	WORD	641860	wordpools/wasnorm_wordpool_576.txt	LTP280	ltpFR2	17	3	SHERIFF	1284	n/a	n/a	0	0	0
1286.422	n/a	WORD	643211	wordpools/wasnorm_wordpool_576.txt	LTP280	ltpFR2	17	3	AGENT	10	n/a	n/a	0	0	0
1288.038	n/a	START	644019	n/a	LTP280	ltpFR2	17	n/a	n/a	n/a	4	n/a	n/a	n/a	n/a
1289.024	n/a	DISTRACTOR	644512	n/a	LTP280	ltpFR2	17	3	n/a	n/a	n/a	n/a	0	0	0
1289.04	n/a	PROB	644520	n/a	LTP280	ltpFR2	17	n/a	n/a	n/a	4	16	8	3	5
1290.358	n/a	PROB	645179	n/a	LTP280	ltpFR2	17	n/a	n/a	n/a	4	16	5	4	7
1291.558	n/a	PROB	645779	n/a	LTP280	ltpFR2	17	n/a	n/a	n/a	4	18	7	5	6
1293.076	n/a	PROB	646538	n/a	LTP280	ltpFR2	17	n/a	n/a	n/a	4	17	2	8	7
1294.142	n/a	PROB	647071	n/a	LTP280	ltpFR2	17	n/a	n/a	n/a	4	14	5	8	1
1295.126	n/a	PROB	647563	n/a	LTP280	ltpFR2	17	n/a	n/a	n/a	4	23	8	8	7
1296.528	n/a	PROB	648264	n/a	LTP280	ltpFR2	17	n/a	n/a	n/a	4	23	6	8	9
1298.012	n/a	PROB	649006	n/a	LTP280	ltpFR2	17	n/a	n/a	n/a	4	16	6	5	5
1299.08	n/a	PROB	649540	n/a	LTP280	ltpFR2	17	n/a	n/a	n/a	4	12	2	3	7
1300.264	n/a	PROB	650132	n/a	LTP280	ltpFR2	17	n/a	n/a	n/a	4	18	4	8	6
1301.916	n/a	PROB	650958	n/a	LTP280	ltpFR2	17	n/a	n/a	n/a	4	8	4	3	1
1302.866	n/a	PROB	651433	n/a	LTP280	ltpFR2	17	n/a	n/a	n/a	4	14	2	6	6
1303.982	n/a	PROB	651991	n/a	LTP280	ltpFR2	17	n/a	n/a	n/a	4	19	6	9	4
1305.352	n/a	PROB	652676	n/a	LTP280	ltpFR2	17	n/a	n/a	n/a	4	20	7	6	7
1307.086	n/a	PROB	653543	n/a	LTP280	ltpFR2	17	n/a	n/a	n/a	4	9	1	5	2
1308.254	n/a	PROB	654127	n/a	LTP280	ltpFR2	17	n/a	n/a	n/a	4	16	4	8	4
1310.138	n/a	PROB	655069	n/a	LTP280	ltpFR2	17	n/a	n/a	n/a	4	20	8	8	6
1311.332	n/a	STOP	655666	n/a	LTP280	ltpFR2	17	n/a	n/a	n/a	4	n/a	n/a	n/a	n/a
1313.874	n/a	REC_START	656937	n/a	LTP280	ltpFR2	17	3	n/a	n/a	n/a	n/a	0	0	0
1314.21	n/a	REC_WORD	657105	wordpools/wasnorm_wordpool_576.txt	LTP280	ltpFR2	17	3	NOVEL	960	n/a	n/a	0	0	0
1314.76	n/a	REC_WORD	657380	wordpools/wasnorm_wordpool_576.txt	LTP280	ltpFR2	17	3	SHELF	1280	n/a	n/a	0	0	0
1316.118	n/a	REC_WORD	658059	wordpools/wasnorm_wordpool_576.txt	LTP280	ltpFR2	17	3	TEACHER	1440	n/a	n/a	0	0	0
1316.778	n/a	REC_WORD	658389	wordpools/wasnorm_wordpool_576.txt	LTP280	ltpFR2	17	3	BLACKBOARD	133	n/a	n/a	0	0	0
1317.536	n/a	REC_WORD	658768	wordpools/wasnorm_wordpool_576.txt	LTP280	ltpFR2	17	3	SHERIFF	1284	n/a	n/a	0	0	0
1318.354	n/a	REC_WORD	659177	wordpools/wasnorm_wordpool_576.txt	LTP280	ltpFR2	17	3	AGENT	10	n/a	n/a	0	0	0
1320.238	n/a	REC_WORD	660119	wordpools/wasnorm_wordpool_576.txt	LTP280	ltpFR2	17	3	PUDDING	1139	n/a	n/a	0	0	0
1320.858	n/a	REC_WORD	660429	wordpools/wasnorm_wordpool_576.txt	LTP280	ltpFR2	17	3	PALACE	1006	n/a	n/a	0	0	0
1321.886	n/a	REC_WORD	660943	wordpools/wasnorm_wordpool_576.txt	LTP280	ltpFR2	17	3	PRINCE	1124	n/a	n/a	0	0	0
1323.136	n/a	REC_WORD	661568	wordpools/wasnorm_wordpool_576.txt	LTP280	ltpFR2	17	3	THRONE	1461	n/a	n/a	0	0	0
1348.58	n/a	REC_WORD	674290	wordpools/wasnorm_wordpool_576.txt	LTP280	ltpFR2	17	3	DIME	466	n/a	n/a	0	0	0
1404.29	n/a	DISTRACTOR	702145	n/a	LTP280	ltpFR2	17	4	n/a	n/a	n/a	n/a	0	0	0
1404.292	n/a	START	702146	n/a	LTP280	ltpFR2	17	n/a	n/a	n/a	5	n/a	n/a	n/a	n/a
1404.308	n/a	PROB	702154	n/a	LTP280	ltpFR2	17	n/a	n/a	n/a	5	17	7	5	5
1405.346	n/a	PROB	702673	n/a	LTP280	ltpFR2	17	n/a	n/a	n/a	5	9	2	2	5
1406.282	n/a	PROB	703141	n/a	LTP280	ltpFR2	17	n/a	n/a	n/a	5	6	2	2	2
1407.214	n/a	PROB	703607	n/a	LTP280	ltpFR2	17	n/a	n/a	n/a	5	12	1	3	8
1408.214	n/a	PROB	704107	n/a	LTP280	ltpFR2	17	n/a	n/a	n/a	5	7	1	4	2
1409.184	n/a	PROB	704592	n/a	LTP280	ltpFR2	17	n/a	n/a	n/a	5	13	7	1	5
1410.168	n/a	PROB	705084	n/a	LTP280	ltpFR2	17	n/a	n/a	n/a	5	16	7	1	8
1411.52	n/a	PROB	705760	n/a	LTP280	ltpFR2	17	n/a	n/a	n/a	5	19	3	9	7
1412.868	n/a	PROB	706434	n/a	LTP280	ltpFR2	17	n/a	n/a	n/a	5	11	4	1	6
1413.818	n/a	PROB	706909	n/a	LTP280	ltpFR2	17	n/a	n/a	n/a	5	14	2	5	7
1415.136	n/a	PROB	707568	n/a	LTP280	ltpFR2	17	n/a	n/a	n/a	5	20	4	9	7
1416.67	n/a	PROB	708335	n/a	LTP280	ltpFR2	17	n/a	n/a	n/a	5	12	2	1	9
1417.906	n/a	PROB	708953	n/a	LTP280	ltpFR2	17	n/a	n/a	n/a	5	19	3	9	7
1419.374	n/a	PROB	709687	n/a	LTP280	ltpFR2	17	n/a	n/a	n/a	5	21	9	5	7
1421.026	n/a	PROB	710513	n/a	LTP280	ltpFR2	17	n/a	n/a	n/a	5	13	6	2	5
1422.294	n/a	PROB	711147	n/a	LTP280	ltpFR2	17	n/a	n/a	n/a	5	24	9	7	8
1424.244	n/a	PROB	712122	n/a	LTP280	ltpFR2	17	n/a	n/a	n/a	5	18	9	4	5
1425.746	n/a	PROB	712873	n/a	LTP280	ltpFR2	17	n/a	n/a	n/a	5	15	9	4	2
1427.382	n/a	STOP	713691	n/a	LTP280	ltpFR2	17	n/a	n/a	n/a	5	n/a	n/a	n/a	n/a
1429.228	n/a	WORD	714614	wordpools/wasnorm_wordpool_576.txt	LTP280	ltpFR2	17	4	BOX	159	n/a	n/a	0	0	0
1431.712	n/a	WORD	715856	wordpools/wasnorm_wordpool_576.txt	LTP280	ltpFR2	17	4	PACKAGE	997	n/a	n/a	0	0	0
1434.45	n/a	WORD	717225	wordpools/wasnorm_wordpool_576.txt	LTP280	ltpFR2	17	4	JAPAN	749	n/a	n/a	0	0	0
1437.218	n/a	WORD	718609	wordpools/wasnorm_wordpool_576.txt	LTP280	ltpFR2	17	4	HERO	706	n/a	n/a	0	0	0
1439.904	n/a	WORD	719952	wordpools/wasnorm_wordpool_576.txt	LTP280	ltpFR2	17	4	FRANCE	601	n/a	n/a	0	0	0
1442.356	n/a	WORD	721178	wordpools/wasnorm_wordpool_576.txt	LTP280	ltpFR2	17	4	GRIZZLY	662	n/a	n/a	0	0	0
1444.908	n/a	WORD	722454	wordpools/wasnorm_wordpool_576.txt	LTP280	ltpFR2	17	4	LEOPARD	812	n/a	n/a	0	0	0
1447.644	n/a	WORD	723822	wordpools/wasnorm_wordpool_576.txt	LTP280	ltpFR2	17	4	COFFEE	341	n/a	n/a	0	0	0
1450.062	n/a	WORD	725031	wordpools/wasnorm_wordpool_576.txt	LTP280	ltpFR2	17	4	EUROPE	541	n/a	n/a	0	0	0
1452.664	n/a	WORD	726332	wordpools/wasnorm_wordpool_576.txt	LTP280	ltpFR2	17	4	SEAGULL	1261	n/a	n/a	0	0	0
1455.386	n/a	WORD	727693	wordpools/wasnorm_wordpool_576.txt	LTP280	ltpFR2	17	4	OMELET	976	n/a	n/a	0	0	0
1458.002	n/a	WORD	729001	wordpools/wasnorm_wordpool_576.txt	LTP280	ltpFR2	17	4	COOK	372	n/a	n/a	0	0	0
1460.77	n/a	WORD	730385	wordpools/wasnorm_wordpool_576.txt	LTP280	ltpFR2	17	4	CREVICE	405	n/a	n/a	0	0	0
1463.308	n/a	WORD	731654	wordpools/wasnorm_wordpool_576.txt	LTP280	ltpFR2	17	4	MONSTER	912	n/a	n/a	0	0	0
1465.778	n/a	WORD	732889	wordpools/wasnorm_wordpool_576.txt	LTP280	ltpFR2	17	4	SILK	1307	n/a	n/a	0	0	0
1468.296	n/a	WORD	734148	wordpools/wasnorm_wordpool_576.txt	LTP280	ltpFR2	17	4	SLIME	1327	n/a	n/a	0	0	0
1470.83	n/a	WORD	735415	wordpools/wasnorm_wordpool_576.txt	LTP280	ltpFR2	17	4	TURNIP	1521	n/a	n/a	0	0	0
1473.366	n/a	WORD	736683	wordpools/wasnorm_wordpool_576.txt	LTP280	ltpFR2	17	4	HOUND	724	n/a	n/a	0	0	0
1476.152	n/a	WORD	738076	wordpools/wasnorm_wordpool_576.txt	LTP280	ltpFR2	17	4	BLUEPRINT	142	n/a	n/a	0	0	0
1478.752	n/a	WORD	739376	wordpools/wasnorm_wordpool_576.txt	LTP280	ltpFR2	17	4	MAILBOX	857	n/a	n/a	0	0	0
1481.524	n/a	WORD	740762	wordpools/wasnorm_wordpool_576.txt	LTP280	ltpFR2	17	4	LONDON	843	n/a	n/a	0	0	0
1484.156	n/a	WORD	742078	wordpools/wasnorm_wordpool_576.txt	LTP280	ltpFR2	17	4	CASHEW	253	n/a	n/a	0	0	0
1486.708	n/a	WORD	743354	wordpools/wasnorm_wordpool_576.txt	LTP280	ltpFR2	17	4	PIZZA	1079	n/a	n/a	0	0	0
1489.178	n/a	WORD	744589	wordpools/wasnorm_wordpool_576.txt	LTP280	ltpFR2	17	4	SERVANT	1271	n/a	n/a	0	0	0
1490.796	n/a	START	745398	n/a	LTP280	ltpFR2	17	n/a	n/a	n/a	6	n/a	n/a	n/a	n/a
1491.664	n/a	DISTRACTOR	745832	n/a	LTP280	ltpFR2	17	4	n/a	n/a	n/a	n/a	0	0	0
1491.68	n/a	PROB	745840	n/a	LTP280	ltpFR2	17	n/a	n/a	n/a	6	8	4	1	3
1492.866	n/a	PROB	746433	n/a	LTP280	ltpFR2	17	n/a	n/a	n/a	6	13	4	2	7
1494.432	n/a	PROB	747216	n/a	LTP280	ltpFR2	17	n/a	n/a	n/a	6	8	4	2	2
1495.382	n/a	PROB	747691	n/a	LTP280	ltpFR2	17	n/a	n/a	n/a	6	14	9	1	4
1496.42	n/a	PROB	748210	n/a	LTP280	ltpFR2	17	n/a	n/a	n/a	6	12	6	4	2
1497.436	n/a	PROB	748718	n/a	LTP280	ltpFR2	17	n/a	n/a	n/a	6	15	8	1	6
1498.47	n/a	PROB	749235	n/a	LTP280	ltpFR2	17	n/a	n/a	n/a	6	12	7	3	2
1499.488	n/a	PROB	749744	n/a	LTP280	ltpFR2	17	n/a	n/a	n/a	6	17	4	9	4
1501.12	n/a	PROB	750560	n/a	LTP280	ltpFR2	17	n/a	n/a	n/a	6	18	6	5	7
1502.256	n/a	PROB	751128	n/a	LTP280	ltpFR2	17	n/a	n/a	n/a	6	14	3	3	8
1503.606	n/a	PROB	751803	n/a	LTP280	ltpFR2	17	n/a	n/a	n/a	6	15	9	3	3
1505.324	n/a	PROB	752662	n/a	LTP280	ltpFR2	17	n/a	n/a	n/a	6	6	3	2	1
1506.526	n/a	PROB	753263	n/a	LTP280	ltpFR2	17	n/a	n/a	n/a	6	9	3	1	5
1508.044	n/a	PROB	754022	n/a	LTP280	ltpFR2	17	n/a	n/a	n/a	6	14	5	4	5
1509.346	n/a	PROB	754673	n/a	LTP280	ltpFR2	17	n/a	n/a	n/a	6	25	8	9	8
1511.428	n/a	PROB	755714	n/a	LTP280	ltpFR2	17	n/a	n/a	n/a	6	17	7	9	1
1512.548	n/a	PROB	756274	n/a	LTP280	ltpFR2	17	n/a	n/a	n/a	6	6	2	3	1
1513.416	n/a	STOP	756708	n/a	LTP280	ltpFR2	17	n/a	n/a	n/a	6	n/a	n/a	n/a	n/a
1516.684	n/a	REC_START	758342	n/a	LTP280	ltpFR2	17	4	n/a	n/a	n/a	n/a	0	0	0
1516.892	n/a	REC_WORD_VV	758446	wordpools/wasnorm_wordpool_576.txt	LTP280	ltpFR2	17	4	<>	-1	n/a	n/a	0	0	0
1517.412	n/a	REC_WORD_VV	758706	wordpools/wasnorm_wordpool_576.txt	LTP280	ltpFR2	17	4	<>	-1	n/a	n/a	0	0	0
1518.43	n/a	REC_WORD	759215	wordpools/wasnorm_wordpool_576.txt	LTP280	ltpFR2	17	4	MAILBOX	857	n/a	n/a	0	0	0
1519.194	n/a	REC_WORD	759597	wordpools/wasnorm_wordpool_576.txt	LTP280	ltpFR2	17	4	BLUEPRINT	142	n/a	n/a	0	0	0
1521.358	n/a	REC_WORD	760679	wordpools/wasnorm_wordpool_576.txt	LTP280	ltpFR2	17	4	CASHEW	253	n/a	n/a	0	0	0
1522.0	n/a	REC_WORD	761000	wordpools/wasnorm_wordpool_576.txt	LTP280	ltpFR2	17	4	PIZZA	1079	n/a	n/a	0	0	0
1522.7	n/a	REC_WORD	761350	wordpools/wasnorm_wordpool_576.txt	LTP280	ltpFR2	17	4	SERVANT	1271	n/a	n/a	0	0	0
1525.324	n/a	REC_WORD	762662	wordpools/wasnorm_wordpool_576.txt	LTP280	ltpFR2	17	4	BOX	159	n/a	n/a	0	0	0
1525.906	n/a	REC_WORD	762953	wordpools/wasnorm_wordpool_576.txt	LTP280	ltpFR2	17	4	PACKAGE	997	n/a	n/a	0	0	0
1526.862	n/a	REC_WORD	763431	wordpools/wasnorm_wordpool_576.txt	LTP280	ltpFR2	17	4	GRIZZLY	662	n/a	n/a	0	0	0
1527.768	n/a	REC_WORD	763884	wordpools/wasnorm_wordpool_576.txt	LTP280	ltpFR2	17	4	MONSTER	912	n/a	n/a	0	0	0
1555.448	n/a	REC_WORD	777724	wordpools/wasnorm_wordpool_576.txt	LTP280	ltpFR2	17	4	JAPAN	749	n/a	n/a	0	0	0
1556.526	n/a	REC_WORD	778263	wordpools/wasnorm_wordpool_576.txt	LTP280	ltpFR2	17	4	LONDON	843	n/a	n/a	0	0	0
1558.086	n/a	REC_WORD	779043	wordpools/wasnorm_wordpool_576.txt	LTP280	ltpFR2	17	4	FRANCE	601	n/a	n/a	0	0	0
1558.832	n/a	REC_WORD	779416	wordpools/wasnorm_wordpool_576.txt	LTP280	ltpFR2	17	4	EUROPE	541	n/a	n/a	0	0	0
1559.616	n/a	REC_WORD	779808	wordpools/wasnorm_wordpool_576.txt	LTP280	ltpFR2	17	4	SILK	1307	n/a	n/a	0	0	0
1607.122	n/a	WORD	803561	wordpools/wasnorm_wordpool_576.txt	LTP280	ltpFR2	17	5	VICTIM	1562	n/a	n/a	0	0	0
1609.84	n/a	WORD	804920	wordpools/wasnorm_wordpool_576.txt	LTP280	ltpFR2	17	5	PLAID	1080	n/a	n/a	0	0	0
1612.544	n/a	WORD	806272	wordpools/wasnorm_wordpool_576.txt	LTP280	ltpFR2	17	5	NIGHTGOWN	953	n/a	n/a	0	0	0
1615.052	n/a	WORD	807526	wordpools/wasnorm_wordpool_576.txt	LTP280	ltpFR2	17	5	RAZOR	1171	n/a	n/a	0	0	0
1617.714	n/a	WORD	808857	wordpools/wasnorm_wordpool_576.txt	LTP280	ltpFR2	17	5	CRAYON	401	n/a	n/a	0	0	0
1620.224	n/a	WORD	810112	wordpools/wasnorm_wordpool_576.txt	LTP280	ltpFR2	17	5	BUG	187	n/a	n/a	0	0	0
1622.676	n/a	WORD	811338	wordpools/wasnorm_wordpool_576.txt	LTP280	ltpFR2	17	5	GOBLIN	645	n/a	n/a	0	0	0
1625.328	n/a	WORD	812664	wordpools/wasnorm_wordpool_576.txt	LTP280	ltpFR2	17	5	PECAN	1036	n/a	n/a	0	0	0
1627.828	n/a	WORD	813914	wordpools/wasnorm_wordpool_576.txt	LTP280	ltpFR2	17	5	MUSTARD	935	n/a	n/a	0	0	0
1630.256	n/a	WORD	815128	wordpools/wasnorm_wordpool_576.txt	LTP280	ltpFR2	17	5	KETCHUP	771	n/a	n/a	0	0	0
1632.858	n/a	WORD	816429	wordpools/wasnorm_wordpool_576.txt	LTP280	ltpFR2	17	5	ICEBERG	731	n/a	n/a	0	0	0
1635.328	n/a	WORD	817664	wordpools/wasnorm_wordpool_576.txt	LTP280	ltpFR2	17	5	PAIL	1002	n/a	n/a	0	0	0
1638.104	n/a	WORD	819052	wordpools/wasnorm_wordpool_576.txt	LTP280	ltpFR2	17	5	MEAT	883	n/a	n/a	0	0	0
1640.814	n/a	WORD	820407	wordpools/wasnorm_wordpool_576.txt	LTP280	ltpFR2	17	5	RELISH	1183	n/a	n/a	0	0	0
1643.534	n/a	WORD	821767	wordpools/wasnorm_wordpool_576.txt	LTP280	ltpFR2	17	5	DANCER	437	n/a	n/a	0	0	0
1646.128	n/a	WORD	823064	wordpools/wasnorm_wordpool_576.txt	LTP280	ltpFR2	17	5	BEEF	113	n/a	n/a	0	0	0
1648.582	n/a	WORD	824291	wordpools/wasnorm_wordpool_576.txt	LTP280	ltpFR2	17	5	LAKE	796	n/a	n/a	0	0	0
1651.284	n/a	WORD	825642	wordpools/wasnorm_wordpool_576.txt	LTP280	ltpFR2	17	5	ISLAND	745	n/a	n/a	0	0	0
1653.736	n/a	WORD	826868	wordpools/wasnorm_wordpool_576.txt	LTP280	ltpFR2	17	5	JELLY	755	n/a	n/a	0	0	0
1656.36	n/a	WORD	828180	wordpools/wasnorm_wordpool_576.txt	LTP280	ltpFR2	17	5	SEAFOOD	1260	n/a	n/a	0	0	0
1659.028	n/a	WORD	829514	wordpools/wasnorm_wordpool_576.txt	LTP280	ltpFR2	17	5	FIREPLACE	570	n/a	n/a	0	0	0
1661.724	n/a	WORD	830862	wordpools/wasnorm_wordpool_576.txt	LTP280	ltpFR2	17	5	TART	1436	n/a	n/a	0	0	0
1664.178	n/a	WORD	832089	wordpools/wasnorm_wordpool_576.txt	LTP280	ltpFR2	17	5	THREAD	1460	n/a	n/a	0	0	0
1666.896	n/a	WORD	833448	wordpools/wasnorm_wordpool_576.txt	LTP280	ltpFR2	17	5	SCARF	1246	n/a	n/a	0	0	0
1668.5	n/a	START	834250	n/a	LTP280	ltpFR2	17	n/a	n/a	n/a	7	n/a	n/a	n/a	n/a
1669.422	n/a	DISTRACTOR	834711	n/a	LTP280	ltpFR2	17	5	n/a	n/a	n/a	n/a	0	0	0
1669.434	n/a	PROB	834717	n/a	LTP280	ltpFR2	17	n/a	n/a	n/a	7	13	7	4	2
1670.638	n/a	PROB	835319	n/a	LTP280	ltpFR2	17	n/a	n/a	n/a	7	17	6	4	7
1671.788	n/a	PROB	835894	n/a	LTP280	ltpFR2	17	n/a	n/a	n/a	7	13	3	9	1
1672.938	n/a	PROB	836469	n/a	LTP280	ltpFR2	17	n/a	n/a	n/a	7	16	6	2	8
1674.524	n/a	PROB	837262	n/a	LTP280	ltpFR2	17	n/a	n/a	n/a	7	11	7	1	3
1675.44	n/a	PROB	837720	n/a	LTP280	ltpFR2	17	n/a	n/a	n/a	7	14	2	5	7
1676.974	n/a	PROB	838487	n/a	LTP280	ltpFR2	17	n/a	n/a	n/a	7	17	4	8	5
1678.144	n/a	PROB	839072	n/a	LTP280	ltpFR2	17	n/a	n/a	n/a	7	16	4	6	6
1679.478	n/a	PROB	839739	n/a	LTP280	ltpFR2	17	n/a	n/a	n/a	7	12	8	1	3
1680.474	n/a	PROB	840237	n/a	LTP280	ltpFR2	17	n/a	n/a	n/a	7	12	8	2	2
1681.69	n/a	PROB	840845	n/a	LTP280	ltpFR2	17	n/a	n/a	n/a	7	10	4	4	2
1682.812	n/a	PROB	841406	n/a	LTP280	ltpFR2	17	n/a	n/a	n/a	7	13	7	4	2
1683.992	n/a	PROB	841996	n/a	LTP280	ltpFR2	17	n/a	n/a	n/a	7	21	9	5	7
1685.994	n/a	PROB	842997	n/a	LTP280	ltpFR2	17	n/a	n/a	n/a	7	18	1	9	8
1687.066	n/a	PROB	843533	n/a	LTP280	ltpFR2	17	n/a	n/a	n/a	7	19	5	5	9
1688.168	n/a	PROB	844084	n/a	LTP280	ltpFR2	17	n/a	n/a	n/a	7	15	8	6	1
1689.096	n/a	PROB	844548	n/a	LTP280	ltpFR2	17	n/a	n/a	n/a	7	13	7	1	5
1690.466	n/a	PROB	845233	n/a	LTP280	ltpFR2	17	n/a	n/a	n/a	7	17	3	9	5
1692.034	n/a	STOP	846017	n/a	LTP280	ltpFR2	17	n/a	n/a	n/a	7	n/a	n/a	n/a	n/a
1694.358	n/a	REC_START	847179	n/a	LTP280	ltpFR2	17	5	n/a	n/a	n/a	n/a	0	0	0
1694.782	n/a	REC_WORD	847391	wordpools/wasnorm_wordpool_576.txt	LTP280	ltpFR2	17	5	BEEF	113	n/a	n/a	0	0	0
1695.216	n/a	REC_WORD	847608	wordpools/wasnorm_wordpool_576.txt	LTP280	ltpFR2	17	5	MEAT	883	n/a	n/a	0	0	0
1695.84	n/a	REC_WORD	847920	wordpools/wasnorm_wordpool_576.txt	LTP280	ltpFR2	17	5	JELLY	755	n/a	n/a	0	0	0
1696.464	n/a	REC_WORD	848232	wordpools/wasnorm_wordpool_576.txt	LTP280	ltpFR2	17	5	SEAFOOD	1260	n/a	n/a	0	0	0
1698.192	n/a	REC_WORD	849096	wordpools/wasnorm_wordpool_576.txt	LTP280	ltpFR2	17	5	TART	1436	n/a	n/a	0	0	0
1698.902	n/a	REC_WORD	849451	wordpools/wasnorm_wordpool_576.txt	LTP280	ltpFR2	17	5	SCARF	1246	n/a	n/a	0	0	0
1702.332	n/a	REC_WORD	851166	wordpools/wasnorm_wordpool_576.txt	LTP280	ltpFR2	17	5	CASHEW	253	n/a	n/a	0	0	0
1703.432	n/a	REC_WORD_VV	851716	wordpools/wasnorm_wordpool_576.txt	LTP280	ltpFR2	17	5	<>	-1	n/a	n/a	0	0	0
1703.696	n/a	REC_WORD_VV	851848	wordpools/wasnorm_wordpool_576.txt	LTP280	ltpFR2	17	5	<>	-1	n/a	n/a	0	0	0
1704.56	n/a	REC_WORD	852280	wordpools/wasnorm_wordpool_576.txt	LTP280	ltpFR2	17	5	PECAN	1036	n/a	n/a	0	0	0
1706.0	n/a	REC_WORD	853000	wordpools/wasnorm_wordpool_576.txt	LTP280	ltpFR2	17	5	MUSTARD	935	n/a	n/a	0	0	0
1706.792	n/a	REC_WORD	853396	wordpools/wasnorm_wordpool_576.txt	LTP280	ltpFR2	17	5	KETCHUP	771	n/a	n/a	0	0	0
1707.446	n/a	REC_WORD	853723	wordpools/wasnorm_wordpool_576.txt	LTP280	ltpFR2	17	5	RELISH	1183	n/a	n/a	0	0	0
1741.254	n/a	REC_WORD	870627	wordpools/wasnorm_wordpool_576.txt	LTP280	ltpFR2	17	5	PAIL	1002	n/a	n/a	0	0	0
1784.792	n/a	DISTRACTOR	892396	n/a	LTP280	ltpFR2	17	6	n/a	n/a	n/a	n/a	0	0	0
1784.792	n/a	START	892396	n/a	LTP280	ltpFR2	17	n/a	n/a	n/a	8	n/a	n/a	n/a	n/a
1784.81	n/a	PROB	892405	n/a	LTP280	ltpFR2	17	n/a	n/a	n/a	8	14	7	5	5
1785.908	n/a	PROB	892954	n/a	LTP280	ltpFR2	17	n/a	n/a	n/a	8	20	5	8	7
1787.296	n/a	PROB	893648	n/a	LTP280	ltpFR2	17	n/a	n/a	n/a	8	6	3	2	1
1788.18	n/a	PROB	894090	n/a	LTP280	ltpFR2	17	n/a	n/a	n/a	8	15	7	2	6
1789.28	n/a	PROB	894640	n/a	LTP280	ltpFR2	17	n/a	n/a	n/a	8	22	9	8	5
1790.548	n/a	PROB	895274	n/a	LTP280	ltpFR2	17	n/a	n/a	n/a	8	7	3	1	3
1791.48	n/a	PROB	895740	n/a	LTP280	ltpFR2	17	n/a	n/a	n/a	8	19	6	4	9
1792.582	n/a	PROB	896291	n/a	LTP280	ltpFR2	17	n/a	n/a	n/a	8	15	8	6	1
1793.516	n/a	PROB	896758	n/a	LTP280	ltpFR2	17	n/a	n/a	n/a	8	22	5	9	8
1795.584	n/a	PROB	897792	n/a	LTP280	ltpFR2	17	n/a	n/a	n/a	8	11	1	1	9
1796.652	n/a	PROB	898326	n/a	LTP280	ltpFR2	17	n/a	n/a	n/a	8	19	8	5	6
1798.172	n/a	PROB	899086	n/a	LTP280	ltpFR2	17	n/a	n/a	n/a	8	11	4	2	5
1799.288	n/a	PROB	899644	n/a	LTP280	ltpFR2	17	n/a	n/a	n/a	8	20	8	5	7
1800.588	n/a	PROB	900294	n/a	LTP280	ltpFR2	17	n/a	n/a	n/a	8	5	3	1	1
1801.39	n/a	PROB	900695	n/a	LTP280	ltpFR2	17	n/a	n/a	n/a	8	15	8	3	4
1802.592	n/a	PROB	901296	n/a	LTP280	ltpFR2	17	n/a	n/a	n/a	8	19	9	9	1
1803.592	n/a	PROB	901796	n/a	LTP280	ltpFR2	17	n/a	n/a	n/a	8	14	4	3	7
1805.308	n/a	PROB	902654	n/a	LTP280	ltpFR2	17	n/a	n/a	n/a	8	16	3	8	5
1806.428	n/a	PROB	903214	n/a	LTP280	ltpFR2	17	n/a	n/a	n/a	8	9	1	3	5
1807.382	n/a	STOP	903691	n/a	LTP280	ltpFR2	17	n/a	n/a	n/a	8	n/a	n/a	n/a	n/a
1809.78	n/a	WORD	904890	wordpools/wasnorm_wordpool_576.txt	LTP280	ltpFR2	17	6	CIGAR	308	n/a	n/a	0	0	0
1812.332	n/a	WORD	906166	wordpools/wasnorm_wordpool_576.txt	LTP280	ltpFR2	17	6	ELBOW	520	n/a	n/a	0	0	0
1814.872	n/a	WORD	907436	wordpools/wasnorm_wordpool_576.txt	LTP280	ltpFR2	17	6	POLICE	1098	n/a	n/a	0	0	0
1817.57	n/a	WORD	908785	wordpools/wasnorm_wordpool_576.txt	LTP280	ltpFR2	17	6	MASK	876	n/a	n/a	0	0	0
1820.354	n/a	WORD	910177	wordpools/wasnorm_wordpool_576.txt	LTP280	ltpFR2	17	6	IDOL	733	n/a	n/a	0	0	0
1822.99	n/a	WORD	911495	wordpools/wasnorm_wordpool_576.txt	LTP280	ltpFR2	17	6	TRENCH	1503	n/a	n/a	0	0	0
1825.608	n/a	WORD	912804	wordpools/wasnorm_wordpool_576.txt	LTP280	ltpFR2	17	6	AUTHOR	61	n/a	n/a	0	0	0
1828.366	n/a	WORD	914183	wordpools/wasnorm_wordpool_576.txt	LTP280	ltpFR2	17	6	THRONE	1461	n/a	n/a	0	0	0
1831.012	n/a	WORD	915506	wordpools/wasnorm_wordpool_576.txt	LTP280	ltpFR2	17	6	PRINCESS	1125	n/a	n/a	0	0	0
1833.466	n/a	WORD	916733	wordpools/wasnorm_wordpool_576.txt	LTP280	ltpFR2	17	6	SPARROW	1347	n/a	n/a	0	0	0
1836.032	n/a	WORD	918016	wordpools/wasnorm_wordpool_576.txt	LTP280	ltpFR2	17	6	TURKEY	1520	n/a	n/a	0	0	0
1838.626	n/a	WORD	919313	wordpools/wasnorm_wordpool_576.txt	LTP280	ltpFR2	17	6	CLIMBER	323	n/a	n/a	0	0	0
1841.428	n/a	WORD	920714	wordpools/wasnorm_wordpool_576.txt	LTP280	ltpFR2	17	6	PARSLEY	1016	n/a	n/a	0	0	0
1843.89	n/a	WORD	921945	wordpools/wasnorm_wordpool_576.txt	LTP280	ltpFR2	17	6	FOREHEAD	592	n/a	n/a	0	0	0
1846.392	n/a	WORD	923196	wordpools/wasnorm_wordpool_576.txt	LTP280	ltpFR2	17	6	MILK	895	n/a	n/a	0	0	0
1849.052	n/a	WORD	924526	wordpools/wasnorm_wordpool_576.txt	LTP280	ltpFR2	17	6	GALLON	618	n/a	n/a	0	0	0
1851.522	n/a	WORD	925761	wordpools/wasnorm_wordpool_576.txt	LTP280	ltpFR2	17	6	BODY	145	n/a	n/a	0	0	0
1854.29	n/a	WORD	927145	wordpools/wasnorm_wordpool_576.txt	LTP280	ltpFR2	17	6	SWORD	1423	n/a	n/a	0	0	0
1856.732	n/a	WORD	928366	wordpools/wasnorm_wordpool_576.txt	LTP280	ltpFR2	17	6	POET	1095	n/a	n/a	0	0	0
1859.202	n/a	WORD	929601	wordpools/wasnorm_wordpool_576.txt	LTP280	ltpFR2	17	6	DUSTPAN	509	n/a	n/a	0	0	0
1861.902	n/a	WORD	930951	wordpools/wasnorm_wordpool_576.txt	LTP280	ltpFR2	17	6	MAPLE	866	n/a	n/a	0	0	0
1864.324	n/a	WORD	932162	wordpools/wasnorm_wordpool_576.txt	LTP280	ltpFR2	17	6	CABIN	211	n/a	n/a	0	0	0
1867.1	n/a	WORD	933550	wordpools/wasnorm_wordpool_576.txt	LTP280	ltpFR2	17	6	KNIFE	785	n/a	n/a	0	0	0
1869.902	n/a	WORD	934951	wordpools/wasnorm_wordpool_576.txt	LTP280	ltpFR2	17	6	CAMEL	223	n/a	n/a	0	0	0
1871.512	n/a	START	935756	n/a	LTP280	ltpFR2	17	n/a	n/a	n/a	9	n/a	n/a	n/a	n/a
1872.318	n/a	DISTRACTOR	936159	n/a	LTP280	ltpFR2	17	6	n/a	n/a	n/a	n/a	0	0	0
1872.322	n/a	PROB	936161	n/a	LTP280	ltpFR2	17	n/a	n/a	n/a	9	9	4	4	1
1873.38	n/a	PROB	936690	n/a	LTP280	ltpFR2	17	n/a	n/a	n/a	9	7	3	1	3
1874.48	n/a	PROB	937240	n/a	LTP280	ltpFR2	17	n/a	n/a	n/a	9	13	3	2	8
1875.796	n/a	PROB	937898	n/a	LTP280	ltpFR2	17	n/a	n/a	n/a	9	18	6	8	4
1877.298	n/a	PROB	938649	n/a	LTP280	ltpFR2	17	n/a	n/a	n/a	9	14	2	6	6
1878.468	n/a	PROB	939234	n/a	LTP280	ltpFR2	17	n/a	n/a	n/a	9	16	4	5	7
1879.7	n/a	PROB	939850	n/a	LTP280	ltpFR2	17	n/a	n/a	n/a	9	19	8	9	2
1881.202	n/a	PROB	940601	n/a	LTP280	ltpFR2	17	n/a	n/a	n/a	9	8	5	1	2
1883.068	n/a	PROB	941534	n/a	LTP280	ltpFR2	17	n/a	n/a	n/a	9	14	6	3	5
1884.42	n/a	PROB	942210	n/a	LTP280	ltpFR2	17	n/a	n/a	n/a	9	16	7	1	8
1885.504	n/a	PROB	942752	n/a	LTP280	ltpFR2	17	n/a	n/a	n/a	9	15	7	4	4
1886.754	n/a	PROB	943377	n/a	LTP280	ltpFR2	17	n/a	n/a	n/a	9	16	9	3	4
1888.424	n/a	PROB	944212	n/a	LTP280	ltpFR2	17	n/a	n/a	n/a	9	12	5	6	1
1889.542	n/a	PROB	944771	n/a	LTP280	ltpFR2	17	n/a	n/a	n/a	9	11	2	6	3
1890.908	n/a	PROB	945454	n/a	LTP280	ltpFR2	17	n/a	n/a	n/a	9	17	7	6	4
1892.91	n/a	PROB	946455	n/a	LTP280	ltpFR2	17	n/a	n/a	n/a	9	6	2	3	1
1894.206	n/a	STOP	947103	n/a	LTP280	ltpFR2	17	n/a	n/a	n/a	9	n/a	n/a	n/a	n/a
1897.432	n/a	REC_START	948716	n/a	LTP280	ltpFR2	17	6	n/a	n/a	n/a	n/a	0	0	0
1898.012	n/a	REC_WORD	949006	wordpools/wasnorm_wordpool_576.txt	LTP280	ltpFR2	17	6	DUSTPAN	509	n/a	n/a	0	0	0
1898.704	n/a	REC_WORD	949352	wordpools/wasnorm_wordpool_576.txt	LTP280	ltpFR2	17	6	MAPLE	866	n/a	n/a	0	0	0
1899.82	n/a	REC_WORD	949910	wordpools/wasnorm_wordpool_576.txt	LTP280	ltpFR2	17	6	PRINCESS	1125	n/a	n/a	0	0	0
1907.566	n/a	REC_WORD	953783	wordpools/wasnorm_wordpool_576.txt	LTP280	ltpFR2	17	6	THRONE	1461	n/a	n/a	0	0	0
1987.884	n/a	DISTRACTOR	993942	n/a	LTP280	ltpFR2	17	7	n/a	n/a	n/a	n/a	0	0	0
1987.884	n/a	START	993942	n/a	LTP280	ltpFR2	17	n/a	n/a	n/a	10	n/a	n/a	n/a	n/a
1987.902	n/a	PROB	993951	n/a	LTP280	ltpFR2	17	n/a	n/a	n/a	10	16	9	4	3
1989.984	n/a	PROB	994992	n/a	LTP280	ltpFR2	17	n/a	n/a	n/a	10	17	9	3	5
1991.322	n/a	PROB	995661	n/a	LTP280	ltpFR2	17	n/a	n/a	n/a	10	12	3	8	1
1992.324	n/a	PROB	996162	n/a	LTP280	ltpFR2	17	n/a	n/a	n/a	10	9	4	2	3
1993.84	n/a	PROB	996920	n/a	LTP280	ltpFR2	17	n/a	n/a	n/a	10	12	3	7	2
1995.206	n/a	PROB	997603	n/a	LTP280	ltpFR2	17	n/a	n/a	n/a	10	14	4	7	3
1996.558	n/a	PROB	998279	n/a	LTP280	ltpFR2	17	n/a	n/a	n/a	10	20	5	6	9
1997.792	n/a	PROB	998896	n/a	LTP280	ltpFR2	17	n/a	n/a	n/a	10	23	8	7	8
1999.162	n/a	PROB	999581	n/a	LTP280	ltpFR2	17	n/a	n/a	n/a	10	11	1	3	7
2000.31	n/a	PROB	1000155	n/a	LTP280	ltpFR2	17	n/a	n/a	n/a	10	21	9	8	4
2001.912	n/a	PROB	1000956	n/a	LTP280	ltpFR2	17	n/a	n/a	n/a	10	9	1	7	1
2003.198	n/a	PROB	1001599	n/a	LTP280	ltpFR2	17	n/a	n/a	n/a	10	7	1	1	5
2004.198	n/a	PROB	1002099	n/a	LTP280	ltpFR2	17	n/a	n/a	n/a	10	18	7	5	6
2005.764	n/a	PROB	1002882	n/a	LTP280	ltpFR2	17	n/a	n/a	n/a	10	12	5	5	2
2006.734	n/a	PROB	1003367	n/a	LTP280	ltpFR2	17	n/a	n/a	n/a	10	11	2	1	8
2007.582	n/a	PROB	1003791	n/a	LTP280	ltpFR2	17	n/a	n/a	n/a	10	21	8	6	7
2008.782	n/a	PROB	1004391	n/a	LTP280	ltpFR2	17	n/a	n/a	n/a	10	20	6	5	9
2009.866	n/a	PROB	1004933	n/a	LTP280	ltpFR2	17	n/a	n/a	n/a	10	15	7	4	4
2010.992	n/a	STOP	1005496	n/a	LTP280	ltpFR2	17	n/a	n/a	n/a	10	n/a	n/a	n/a	n/a
2012.724	n/a	WORD	1006362	wordpools/wasnorm_wordpool_576.txt	LTP280	ltpFR2	17	7	STOMACH	1384	n/a	n/a	0	0	0
2015.29	n/a	WORD	1007645	wordpools/wasnorm_wordpool_576.txt	LTP280	ltpFR2	17	7	PIGMENT	1066	n/a	n/a	0	0	0
2018.074	n/a	WORD	1009037	wordpools/wasnorm_wordpool_576.txt	LTP280	ltpFR2	17	7	RADISH	1158	n/a	n/a	0	0	0
2020.76	n/a	WORD	1010380	wordpools/wasnorm_wordpool_576.txt	LTP280	ltpFR2	17	7	GLOBE	641	n/a	n/a	0	0	0
2023.232	n/a	WORD	1011616	wordpools/wasnorm_wordpool_576.txt	LTP280	ltpFR2	17	7	TOMBSTONE	1478	n/a	n/a	0	0	0
2025.882	n/a	WORD	1012941	wordpools/wasnorm_wordpool_576.txt	LTP280	ltpFR2	17	7	GLOVE	642	n/a	n/a	0	0	0
2028.684	n/a	WORD	1014342	wordpools/wasnorm_wordpool_576.txt	LTP280	ltpFR2	17	7	KLEENEX	782	n/a	n/a	0	0	0
2031.42	n/a	WORD	1015710	wordpools/wasnorm_wordpool_576.txt	LTP280	ltpFR2	17	7	CHURCH	307	n/a	n/a	0	0	0
2033.972	n/a	WORD	1016986	wordpools/wasnorm_wordpool_576.txt	LTP280	ltpFR2	17	7	WIDOW	1608	n/a	n/a	0	0	0
2036.506	n/a	WORD	1018253	wordpools/wasnorm_wordpool_576.txt	LTP280	ltpFR2	17	7	VAGRANT	1544	n/a	n/a	0	0	0
2039.108	n/a	WORD	1019554	wordpools/wasnorm_wordpool_576.txt	LTP280	ltpFR2	17	7	APRON	35	n/a	n/a	0	0	0
2041.55	n/a	WORD	1020775	wordpools/wasnorm_wordpool_576.txt	LTP280	ltpFR2	17	7	GANGSTER	620	n/a	n/a	0	0	0
2044.23	n/a	WORD	1022115	wordpools/wasnorm_wordpool_576.txt	LTP280	ltpFR2	17	7	INFANT	737	n/a	n/a	0	0	0
2046.73	n/a	WORD	1023365	wordpools/wasnorm_wordpool_576.txt	LTP280	ltpFR2	17	7	BOUQUET	157	n/a	n/a	0	0	0
2049.188	n/a	WORD	1024594	wordpools/wasnorm_wordpool_576.txt	LTP280	ltpFR2	17	7	CONTRACT	368	n/a	n/a	0	0	0
2051.718	n/a	WORD	1025859	wordpools/wasnorm_wordpool_576.txt	LTP280	ltpFR2	17	7	CANDY	230	n/a	n/a	0	0	0
2054.272	n/a	WORD	1027136	wordpools/wasnorm_wordpool_576.txt	LTP280	ltpFR2	17	7	PASTRY	1022	n/a	n/a	0	0	0
2056.904	n/a	WORD	1028452	wordpools/wasnorm_wordpool_576.txt	LTP280	ltpFR2	17	7	BELLY	119	n/a	n/a	0	0	0
2059.548	n/a	WORD	1029774	wordpools/wasnorm_wordpool_576.txt	LTP280	ltpFR2	17	7	TABLET	1427	n/a	n/a	0	0	0
2062.114	n/a	WORD	1031057	wordpools/wasnorm_wordpool_576.txt	LTP280	ltpFR2	17	7	DRUG	501	n/a	n/a	0	0	0
2064.934	n/a	WORD	1032467	wordpools/wasnorm_wordpool_576.txt	LTP280	ltpFR2	17	7	CRATER	400	n/a	n/a	0	0	0
2067.714	n/a	WORD	1033857	wordpools/wasnorm_wordpool_576.txt	LTP280	ltpFR2	17	7	SUSPECT	1415	n/a	n/a	0	0	0
2070.4	n/a	WORD	1035200	wordpools/wasnorm_wordpool_576.txt	LTP280	ltpFR2	17	7	PUPIL	1143	n/a	n/a	0	0	0
2072.858	n/a	WORD	1036429	wordpools/wasnorm_wordpool_576.txt	LTP280	ltpFR2	17	7	STUDENT	1395	n/a	n/a	0	0	0
2074.47	n/a	START	1037235	n/a	LTP280	ltpFR2	17	n/a	n/a	n/a	11	n/a	n/a	n/a	n/a
2075.49	n/a	DISTRACTOR	1037745	n/a	LTP280	ltpFR2	17	7	n/a	n/a	n/a	n/a	0	0	0
2075.494	n/a	PROB	1037747	n/a	LTP280	ltpFR2	17	n/a	n/a	n/a	11	47	3	8	3
2077.24	n/a	PROB	1038620	n/a	LTP280	ltpFR2	17	n/a	n/a	n/a	11	16	7	1	8
2078.554	n/a	PROB	1039277	n/a	LTP280	ltpFR2	17	n/a	n/a	n/a	11	12	3	3	6
2079.54	n/a	PROB	1039770	n/a	LTP280	ltpFR2	17	n/a	n/a	n/a	11	21	9	8	4
2080.69	n/a	PROB	1040345	n/a	LTP280	ltpFR2	17	n/a	n/a	n/a	11	21	8	8	5
2082.86	n/a	PROB	1041430	n/a	LTP280	ltpFR2	17	n/a	n/a	n/a	11	19	2	8	9
2084.294	n/a	PROB	1042147	n/a	LTP280	ltpFR2	17	n/a	n/a	n/a	11	15	5	6	4
2085.56	n/a	PROB	1042780	n/a	LTP280	ltpFR2	17	n/a	n/a	n/a	11	10	3	6	1
2086.68	n/a	PROB	1043340	n/a	LTP280	ltpFR2	17	n/a	n/a	n/a	11	6	2	1	3
2087.562	n/a	PROB	1043781	n/a	LTP280	ltpFR2	17	n/a	n/a	n/a	11	12	9	1	2
2088.664	n/a	PROB	1044332	n/a	LTP280	ltpFR2	17	n/a	n/a	n/a	11	6	1	4	1
2089.598	n/a	PROB	1044799	n/a	LTP280	ltpFR2	17	n/a	n/a	n/a	11	7	1	5	1
2090.582	n/a	PROB	1045291	n/a	LTP280	ltpFR2	17	n/a	n/a	n/a	11	9	5	1	3
2091.8	n/a	PROB	1045900	n/a	LTP280	ltpFR2	17	n/a	n/a	n/a	11	12	4	4	4
2092.734	n/a	PROB	1046367	n/a	LTP280	ltpFR2	17	n/a	n/a	n/a	11	21	8	6	7
2094.302	n/a	PROB	1047151	n/a	LTP280	ltpFR2	17	n/a	n/a	n/a	11	13	7	5	1
2095.386	n/a	PROB	1047693	n/a	LTP280	ltpFR2	17	n/a	n/a	n/a	11	9	1	1	7
2096.37	n/a	PROB	1048185	n/a	LTP280	ltpFR2	17	n/a	n/a	n/a	11	12	2	3	7
2098.274	n/a	STOP	1049137	n/a	LTP280	ltpFR2	17	n/a	n/a	n/a	11	n/a	n/a	n/a	n/a
2100.322	n/a	REC_START	1050161	n/a	LTP280	ltpFR2	17	7	n/a	n/a	n/a	n/a	0	0	0
2100.846	n/a	REC_WORD	1050423	wordpools/wasnorm_wordpool_576.txt	LTP280	ltpFR2	17	7	STUDENT	1395	n/a	n/a	0	0	0
2101.544	n/a	REC_WORD	1050772	wordpools/wasnorm_wordpool_576.txt	LTP280	ltpFR2	17	7	PUPIL	1143	n/a	n/a	0	0	0
2102.948	n/a	REC_WORD	1051474	wordpools/wasnorm_wordpool_576.txt	LTP280	ltpFR2	17	7	CRATER	400	n/a	n/a	0	0	0
2107.002	n/a	REC_WORD	1053501	wordpools/wasnorm_wordpool_576.txt	LTP280	ltpFR2	17	7	TOMBSTONE	1478	n/a	n/a	0	0	0
2109.494	n/a	REC_WORD	1054747	wordpools/wasnorm_wordpool_576.txt	LTP280	ltpFR2	17	7	KLEENEX	782	n/a	n/a	0	0	0
2110.362	n/a	REC_WORD	1055181	wordpools/wasnorm_wordpool_576.txt	LTP280	ltpFR2	17	7	WIDOW	1608	n/a	n/a	0	0	0
2112.362	n/a	REC_WORD	1056181	wordpools/wasnorm_wordpool_576.txt	LTP280	ltpFR2	17	7	CHURCH	307	n/a	n/a	0	0	0
2114.308	n/a	REC_WORD	1057154	wordpools/wasnorm_wordpool_576.txt	LTP280	ltpFR2	17	7	VAGRANT	1544	n/a	n/a	0	0	0
2122.298	n/a	REC_WORD	1061149	wordpools/wasnorm_wordpool_576.txt	LTP280	ltpFR2	17	7	SUSPECT	1415	n/a	n/a	0	0	0
2191.076	n/a	WORD	1095538	wordpools/wasnorm_wordpool_576.txt	LTP280	ltpFR2	17	8	FRAGRANCE	599	n/a	n/a	0	0	0
2193.562	n/a	WORD	1096781	wordpools/wasnorm_wordpool_576.txt	LTP280	ltpFR2	17	8	HIKER	708	n/a	n/a	0	0	0
2196.18	n/a	WORD	1098090	wordpools/wasnorm_wordpool_576.txt	LTP280	ltpFR2	17	8	DRESSER	496	n/a	n/a	0	0	0
2198.814	n/a	WORD	1099407	wordpools/wasnorm_wordpool_576.txt	LTP280	ltpFR2	17	8	BUGGY	188	n/a	n/a	0	0	0
2201.418	n/a	WORD	1100709	wordpools/wasnorm_wordpool_576.txt	LTP280	ltpFR2	17	8	SURVEY	1414	n/a	n/a	0	0	0
2204.034	n/a	WORD	1102017	wordpools/wasnorm_wordpool_576.txt	LTP280	ltpFR2	17	8	FILM	565	n/a	n/a	0	0	0
2206.788	n/a	WORD	1103394	wordpools/wasnorm_wordpool_576.txt	LTP280	ltpFR2	17	8	POPCORN	1104	n/a	n/a	0	0	0
2209.474	n/a	WORD	1104737	wordpools/wasnorm_wordpool_576.txt	LTP280	ltpFR2	17	8	LETTUCE	814	n/a	n/a	0	0	0
2211.926	n/a	WORD	1105963	wordpools/wasnorm_wordpool_576.txt	LTP280	ltpFR2	17	8	JUNGLE	764	n/a	n/a	0	0	0
2214.696	n/a	WORD	1107348	wordpools/wasnorm_wordpool_576.txt	LTP280	ltpFR2	17	8	SPOUSE	1358	n/a	n/a	0	0	0
2217.182	n/a	WORD	1108591	wordpools/wasnorm_wordpool_576.txt	LTP280	ltpFR2	17	8	TOASTER	1472	n/a	n/a	0	0	0
2219.966	n/a	WORD	1109983	wordpools/wasnorm_wordpool_576.txt	LTP280	ltpFR2	17	8	KITCHEN	778	n/a	n/a	0	0	0
2222.686	n/a	WORD	1111343	wordpools/wasnorm_wordpool_576.txt	LTP280	ltpFR2	17	8	VALVE	1546	n/a	n/a	0	0	0
2225.322	n/a	WORD	1112661	wordpools/wasnorm_wordpool_576.txt	LTP280	ltpFR2	17	8	LILY	821	n/a	n/a	0	0	0
2227.772	n/a	WORD	1113886	wordpools/wasnorm_wordpool_576.txt	LTP280	ltpFR2	17	8	LAMP	798	n/a	n/a	0	0	0
2230.492	n/a	WORD	1115246	wordpools/wasnorm_wordpool_576.txt	LTP280	ltpFR2	17	8	MESSAGE	888	n/a	n/a	0	0	0
2233.01	n/a	WORD	1116505	wordpools/wasnorm_wordpool_576.txt	LTP280	ltpFR2	17	8	NAPKIN	937	n/a	n/a	0	0	0
2235.696	n/a	WORD	1117848	wordpools/wasnorm_wordpool_576.txt	LTP280	ltpFR2	17	8	NOTEBOOK	959	n/a	n/a	0	0	0
2238.382	n/a	WORD	1119191	wordpools/wasnorm_wordpool_576.txt	LTP280	ltpFR2	17	8	SUMMIT	1405	n/a	n/a	0	0	0
2240.966	n/a	WORD	1120483	wordpools/wasnorm_wordpool_576.txt	LTP280	ltpFR2	17	8	CRITIC	410	n/a	n/a	0	0	0
2243.552	n/a	WORD	1121776	wordpools/wasnorm_wordpool_576.txt	LTP280	ltpFR2	17	8	MISTER	901	n/a	n/a	0	0	0
2246.354	n/a	WORD	1123177	wordpools/wasnorm_wordpool_576.txt	LTP280	ltpFR2	17	8	DOUGHNUT	490	n/a	n/a	0	0	0
2249.088	n/a	WORD	1124544	wordpools/wasnorm_wordpool_576.txt	LTP280	ltpFR2	17	8	VALLEY	1545	n/a	n/a	0	0	0
2251.774	n/a	WORD	1125887	wordpools/wasnorm_wordpool_576.txt	LTP280	ltpFR2	17	8	GUITAR	670	n/a	n/a	0	0	0
2253.378	n/a	START	1126689	n/a	LTP280	ltpFR2	17	n/a	n/a	n/a	12	n/a	n/a	n/a	n/a
2254.234	n/a	DISTRACTOR	1127117	n/a	LTP280	ltpFR2	17	8	n/a	n/a	n/a	n/a	0	0	0
2254.244	n/a	PROB	1127122	n/a	LTP280	ltpFR2	17	n/a	n/a	n/a	12	13	2	5	6
2255.494	n/a	PROB	1127747	n/a	LTP280	ltpFR2	17	n/a	n/a	n/a	12	9	1	5	3
2256.594	n/a	PROB	1128297	n/a	LTP280	ltpFR2	17	n/a	n/a	n/a	12	14	7	4	3
2257.744	n/a	PROB	1128872	n/a	LTP280	ltpFR2	17	n/a	n/a	n/a	12	11	5	1	5
2259.028	n/a	PROB	1129514	n/a	LTP280	ltpFR2	17	n/a	n/a	n/a	12	17	1	8	8
2260.08	n/a	PROB	1130040	n/a	LTP280	ltpFR2	17	n/a	n/a	n/a	12	12	5	1	6
2260.964	n/a	PROB	1130482	n/a	LTP280	ltpFR2	17	n/a	n/a	n/a	12	12	1	3	8
2262.032	n/a	PROB	1131016	n/a	LTP280	ltpFR2	17	n/a	n/a	n/a	12	9	6	2	1
2263.182	n/a	PROB	1131591	n/a	LTP280	ltpFR2	17	n/a	n/a	n/a	12	17	8	2	7
2264.268	n/a	PROB	1132134	n/a	LTP280	ltpFR2	17	n/a	n/a	n/a	12	16	6	2	9
2265.784	n/a	PROB	1132892	n/a	LTP280	ltpFR2	17	n/a	n/a	n/a	12	22	9	4	9
2267.968	n/a	PROB	1133984	n/a	LTP280	ltpFR2	17	n/a	n/a	n/a	12	17	3	9	4
2269.388	n/a	PROB	1134694	n/a	LTP280	ltpFR2	17	n/a	n/a	n/a	12	17	4	4	9
2271.19	n/a	PROB	1135595	n/a	LTP280	ltpFR2	17	n/a	n/a	n/a	12	17	8	1	8
2272.856	n/a	PROB	1136428	n/a	LTP280	ltpFR2	17	n/a	n/a	n/a	12	15	8	1	6
2273.906	n/a	PROB	1136953	n/a	LTP280	ltpFR2	17	n/a	n/a	n/a	12	25	9	8	7
2275.46	n/a	PROB	1137730	n/a	LTP280	ltpFR2	17	n/a	n/a	n/a	12	21	9	5	7
2277.318	n/a	STOP	1138659	n/a	LTP280	ltpFR2	17	n/a	n/a	n/a	12	n/a	n/a	n/a	n/a
2279.18	n/a	REC_START	1139590	n/a	LTP280	ltpFR2	17	8	n/a	n/a	n/a	n/a	0	0	0
2279.714	n/a	REC_WORD	1139857	wordpools/wasnorm_wordpool_576.txt	LTP280	ltpFR2	17	8	MISTER	901	n/a	n/a	0	0	0
2280.314	n/a	REC_WORD	1140157	wordpools/wasnorm_wordpool_576.txt	LTP280	ltpFR2	17	8	DOUGHNUT	490	n/a	n/a	0	0	0
2280.942	n/a	REC_WORD	1140471	wordpools/wasnorm_wordpool_576.txt	LTP280	ltpFR2	17	8	CRITIC	410	n/a	n/a	0	0	0
2282.398	n/a	REC_WORD	1141199	wordpools/wasnorm_wordpool_576.txt	LTP280	ltpFR2	17	8	VALLEY	1545	n/a	n/a	0	0	0
2283.736	n/a	REC_WORD	1141868	wordpools/wasnorm_wordpool_576.txt	LTP280	ltpFR2	17	8	GUITAR	670	n/a	n/a	0	0	0
2295.274	n/a	REC_WORD	1147637	wordpools/wasnorm_wordpool_576.txt	LTP280	ltpFR2	17	8	LILY	821	n/a	n/a	0	0	0
2346.062	n/a	REC_WORD	1173031	wordpools/wasnorm_wordpool_576.txt	LTP280	ltpFR2	17	8	HIKER	708	n/a	n/a	0	0	0
2346.594	n/a	REC_WORD	1173297	wordpools/wasnorm_wordpool_576.txt	LTP280	ltpFR2	17	8	FRAGRANCE	599	n/a	n/a	0	0	0
2355.706	n/a	REST_REWET	1177853	n/a	LTP280	ltpFR2	17	8	n/a	n/a	n/a	n/a	0	0	0
2618.594	n/a	WORD	1309297	wordpools/wasnorm_wordpool_576.txt	LTP280	ltpFR2	17	9	TILE	1468	n/a	n/a	0	0	0
2621.276	n/a	WORD	1310638	wordpools/wasnorm_wordpool_576.txt	LTP280	ltpFR2	17	9	STICKER	1382	n/a	n/a	0	0	0
2623.694	n/a	WORD	1311847	wordpools/wasnorm_wordpool_576.txt	LTP280	ltpFR2	17	9	TRACTOR	1493	n/a	n/a	0	0	0
2626.368	n/a	WORD	1313184	wordpools/wasnorm_wordpool_576.txt	LTP280	ltpFR2	17	9	CURTAIN	427	n/a	n/a	0	0	0
2628.896	n/a	WORD	1314448	wordpools/wasnorm_wordpool_576.txt	LTP280	ltpFR2	17	9	ANKLE	24	n/a	n/a	0	0	0
2631.698	n/a	WORD	1315849	wordpools/wasnorm_wordpool_576.txt	LTP280	ltpFR2	17	9	ULCER	1533	n/a	n/a	0	0	0
2634.436	n/a	WORD	1317218	wordpools/wasnorm_wordpool_576.txt	LTP280	ltpFR2	17	9	LADY	794	n/a	n/a	0	0	0
2636.886	n/a	WORD	1318443	wordpools/wasnorm_wordpool_576.txt	LTP280	ltpFR2	17	9	SPACE	1345	n/a	n/a	0	0	0
2639.69	n/a	WORD	1319845	wordpools/wasnorm_wordpool_576.txt	LTP280	ltpFR2	17	9	CONVICT	371	n/a	n/a	0	0	0
2642.226	n/a	WORD	1321113	wordpools/wasnorm_wordpool_576.txt	LTP280	ltpFR2	17	9	SADDLE	1221	n/a	n/a	0	0	0
2644.844	n/a	WORD	1322422	wordpools/wasnorm_wordpool_576.txt	LTP280	ltpFR2	17	9	COBRA	336	n/a	n/a	0	0	0
2647.364	n/a	WORD	1323682	wordpools/wasnorm_wordpool_576.txt	LTP280	ltpFR2	17	9	LACE	792	n/a	n/a	0	0	0
2650.1	n/a	WORD	1325050	wordpools/wasnorm_wordpool_576.txt	LTP280	ltpFR2	17	9	MISSILE	900	n/a	n/a	0	0	0
2652.57	n/a	WORD	1326285	wordpools/wasnorm_wordpool_576.txt	LTP280	ltpFR2	17	9	COD	340	n/a	n/a	0	0	0
2655.154	n/a	WORD	1327577	wordpools/wasnorm_wordpool_576.txt	LTP280	ltpFR2	17	9	CRAB	397	n/a	n/a	0	0	0
2657.672	n/a	WORD	1328836	wordpools/wasnorm_wordpool_576.txt	LTP280	ltpFR2	17	9	PLASTER	1085	n/a	n/a	0	0	0
2660.09	n/a	WORD	1330045	wordpools/wasnorm_wordpool_576.txt	LTP280	ltpFR2	17	9	MATCH	878	n/a	n/a	0	0	0
2662.66	n/a	WORD	1331330	wordpools/wasnorm_wordpool_576.txt	LTP280	ltpFR2	17	9	SANDWICH	1232	n/a	n/a	0	0	0
2665.262	n/a	WORD	1332631	wordpools/wasnorm_wordpool_576.txt	LTP280	ltpFR2	17	9	CAPTIVE	240	n/a	n/a	0	0	0
2667.714	n/a	WORD	1333857	wordpools/wasnorm_wordpool_576.txt	LTP280	ltpFR2	17	9	SCISSORS	1250	n/a	n/a	0	0	0
2670.184	n/a	WORD	1335092	wordpools/wasnorm_wordpool_576.txt	LTP280	ltpFR2	17	9	BRANCH	168	n/a	n/a	0	0	0
2672.868	n/a	WORD	1336434	wordpools/wasnorm_wordpool_576.txt	LTP280	ltpFR2	17	9	SHRUB	1299	n/a	n/a	0	0	0
2675.32	n/a	WORD	1337660	wordpools/wasnorm_wordpool_576.txt	LTP280	ltpFR2	17	9	FLEET	578	n/a	n/a	0	0	0
2677.772	n/a	WORD	1338886	wordpools/wasnorm_wordpool_576.txt	LTP280	ltpFR2	17	9	GROUND	666	n/a	n/a	0	0	0
2679.376	n/a	START	1339688	n/a	LTP280	ltpFR2	17	n/a	n/a	n/a	13	n/a	n/a	n/a	n/a
2680.564	n/a	DISTRACTOR	1340282	n/a	LTP280	ltpFR2	17	9	n/a	n/a	n/a	n/a	0	0	0
2680.574	n/a	PROB	1340287	n/a	LTP280	ltpFR2	17	n/a	n/a	n/a	13	13	7	4	2
2681.99	n/a	PROB	1340995	n/a	LTP280	ltpFR2	17	n/a	n/a	n/a	13	20	7	9	4
2683.878	n/a	PROB	1341939	n/a	LTP280	ltpFR2	17	n/a	n/a	n/a	13	4	1	2	1
2684.744	n/a	PROB	1342372	n/a	LTP280	ltpFR2	17	n/a	n/a	n/a	13	11	1	4	6
2685.794	n/a	PROB	1342897	n/a	LTP280	ltpFR2	17	n/a	n/a	n/a	13	9	7	1	1
2686.848	n/a	PROB	1343424	n/a	LTP280	ltpFR2	17	n/a	n/a	n/a	13	11	4	1	6
2687.798	n/a	PROB	1343899	n/a	LTP280	ltpFR2	17	n/a	n/a	n/a	13	13	6	3	4
2689.584	n/a	PROB	1344792	n/a	LTP280	ltpFR2	17	n/a	n/a	n/a	13	16	6	5	3
2691.434	n/a	PROB	1345717	n/a	LTP280	ltpFR2	17	n/a	n/a	n/a	13	11	7	3	2
2692.436	n/a	PROB	1346218	n/a	LTP280	ltpFR2	17	n/a	n/a	n/a	13	16	2	7	7
2694.986	n/a	PROB	1347493	n/a	LTP280	ltpFR2	17	n/a	n/a	n/a	13	15	6	2	7
2696.688	n/a	PROB	1348344	n/a	LTP280	ltpFR2	17	n/a	n/a	n/a	13	19	8	2	9
2698.272	n/a	PROB	1349136	n/a	LTP280	ltpFR2	17	n/a	n/a	n/a	13	11	7	3	1
2699.174	n/a	PROB	1349587	n/a	LTP280	ltpFR2	17	n/a	n/a	n/a	13	14	5	7	2
2700.19	n/a	PROB	1350095	n/a	LTP280	ltpFR2	17	n/a	n/a	n/a	13	15	2	4	9
2701.46	n/a	PROB	1350730	n/a	LTP280	ltpFR2	17	n/a	n/a	n/a	13	19	7	3	9
2702.676	n/a	STOP	1351338	n/a	LTP280	ltpFR2	17	n/a	n/a	n/a	13	n/a	n/a	n/a	n/a
2705.214	n/a	REC_START	1352607	n/a	LTP280	ltpFR2	17	9	n/a	n/a	n/a	n/a	0	0	0
2705.69	n/a	REC_WORD	1352845	wordpools/wasnorm_wordpool_576.txt	LTP280	ltpFR2	17	9	SHRUB	1299	n/a	n/a	0	0	0
2706.354	n/a	REC_WORD	1353177	wordpools/wasnorm_wordpool_576.txt	LTP280	ltpFR2	17	9	FLEET	578	n/a	n/a	0	0	0
2707.256	n/a	REC_WORD	1353628	wordpools/wasnorm_wordpool_576.txt	LTP280	ltpFR2	17	9	COD	340	n/a	n/a	0	0	0
2708.648	n/a	REC_WORD	1354324	wordpools/wasnorm_wordpool_576.txt	LTP280	ltpFR2	17	9	CRAB	397	n/a	n/a	0	0	0
2709.45	n/a	REC_WORD	1354725	wordpools/wasnorm_wordpool_576.txt	LTP280	ltpFR2	17	9	PLASTER	1085	n/a	n/a	0	0	0
2713.038	n/a	REC_WORD	1356519	wordpools/wasnorm_wordpool_576.txt	LTP280	ltpFR2	17	9	ANKLE	24	n/a	n/a	0	0	0
2713.85	n/a	REC_WORD	1356925	wordpools/wasnorm_wordpool_576.txt	LTP280	ltpFR2	17	9	ULCER	1533	n/a	n/a	0	0	0
2717.998	n/a	REC_WORD	1358999	wordpools/wasnorm_wordpool_576.txt	LTP280	ltpFR2	17	9	TILE	1468	n/a	n/a	0	0	0
2718.866	n/a	REC_WORD	1359433	wordpools/wasnorm_wordpool_576.txt	LTP280	ltpFR2	17	9	CURTAIN	427	n/a	n/a	0	0	0
2795.646	n/a	WORD	1397823	wordpools/wasnorm_wordpool_576.txt	LTP280	ltpFR2	17	10	MAILMAN	858	n/a	n/a	0	0	0
2798.292	n/a	WORD	1399146	wordpools/wasnorm_wordpool_576.txt	LTP280	ltpFR2	17	10	PANTHER	1009	n/a	n/a	0	0	0
2800.954	n/a	WORD	1400477	wordpools/wasnorm_wordpool_576.txt	LTP280	ltpFR2	17	10	LODGE	839	n/a	n/a	0	0	0
2803.672	n/a	WORD	1401836	wordpools/wasnorm_wordpool_576.txt	LTP280	ltpFR2	17	10	PLUTO	1092	n/a	n/a	0	0	0
2806.108	n/a	WORD	1403054	wordpools/wasnorm_wordpool_576.txt	LTP280	ltpFR2	17	10	DENIM	446	n/a	n/a	0	0	0
2808.55	n/a	WORD	1404275	wordpools/wasnorm_wordpool_576.txt	LTP280	ltpFR2	17	10	ANTLER	29	n/a	n/a	0	0	0
2811.07	n/a	WORD	1405535	wordpools/wasnorm_wordpool_576.txt	LTP280	ltpFR2	17	10	PUPPY	1144	n/a	n/a	0	0	0
2813.796	n/a	WORD	1406898	wordpools/wasnorm_wordpool_576.txt	LTP280	ltpFR2	17	10	MILDEW	893	n/a	n/a	0	0	0
2816.292	n/a	WORD	1408146	wordpools/wasnorm_wordpool_576.txt	LTP280	ltpFR2	17	10	BIKE	125	n/a	n/a	0	0	0
2819.0	n/a	WORD	1409500	wordpools/wasnorm_wordpool_576.txt	LTP280	ltpFR2	17	10	WIFE	1609	n/a	n/a	0	0	0
2821.444	n/a	WORD	1410722	wordpools/wasnorm_wordpool_576.txt	LTP280	ltpFR2	17	10	FRECKLE	602	n/a	n/a	0	0	0
2823.904	n/a	WORD	1411952	wordpools/wasnorm_wordpool_576.txt	LTP280	ltpFR2	17	10	PIMPLE	1071	n/a	n/a	0	0	0
2826.382	n/a	WORD	1413191	wordpools/wasnorm_wordpool_576.txt	LTP280	ltpFR2	17	10	PUDDLE	1140	n/a	n/a	0	0	0
2828.916	n/a	WORD	1414458	wordpools/wasnorm_wordpool_576.txt	LTP280	ltpFR2	17	10	ROBBER	1197	n/a	n/a	0	0	0
2831.702	n/a	WORD	1415851	wordpools/wasnorm_wordpool_576.txt	LTP280	ltpFR2	17	10	JEANS	752	n/a	n/a	0	0	0
2834.256	n/a	WORD	1417128	wordpools/wasnorm_wordpool_576.txt	LTP280	ltpFR2	17	10	GAZELLE	628	n/a	n/a	0	0	0
2836.706	n/a	WORD	1418353	wordpools/wasnorm_wordpool_576.txt	LTP280	ltpFR2	17	10	STAR	1373	n/a	n/a	0	0	0
2839.36	n/a	WORD	1419680	wordpools/wasnorm_wordpool_576.txt	LTP280	ltpFR2	17	10	PASTA	1021	n/a	n/a	0	0	0
2841.778	n/a	WORD	1420889	wordpools/wasnorm_wordpool_576.txt	LTP280	ltpFR2	17	10	SAUSAGE	1238	n/a	n/a	0	0	0
2844.288	n/a	WORD	1422144	wordpools/wasnorm_wordpool_576.txt	LTP280	ltpFR2	17	10	HARP	689	n/a	n/a	0	0	0
2846.84	n/a	WORD	1423420	wordpools/wasnorm_wordpool_576.txt	LTP280	ltpFR2	17	10	TUBA	1515	n/a	n/a	0	0	0
2849.418	n/a	WORD	1424709	wordpools/wasnorm_wordpool_576.txt	LTP280	ltpFR2	17	10	REBEL	1172	n/a	n/a	0	0	0
2852.222	n/a	WORD	1426111	wordpools/wasnorm_wordpool_576.txt	LTP280	ltpFR2	17	10	RIVER	1194	n/a	n/a	0	0	0
2854.89	n/a	WORD	1427445	wordpools/wasnorm_wordpool_576.txt	LTP280	ltpFR2	17	10	CREATURE	403	n/a	n/a	0	0	0
2856.498	n/a	START	1428249	n/a	LTP280	ltpFR2	17	n/a	n/a	n/a	14	n/a	n/a	n/a	n/a
2857.61	n/a	DISTRACTOR	1428805	n/a	LTP280	ltpFR2	17	10	n/a	n/a	n/a	n/a	0	0	0
2857.614	n/a	PROB	1428807	n/a	LTP280	ltpFR2	17	n/a	n/a	n/a	14	16	8	7	1
2858.598	n/a	PROB	1429299	n/a	LTP280	ltpFR2	17	n/a	n/a	n/a	14	14	1	6	7
2859.666	n/a	PROB	1429833	n/a	LTP280	ltpFR2	17	n/a	n/a	n/a	14	9	1	4	4
2860.616	n/a	PROB	1430308	n/a	LTP280	ltpFR2	17	n/a	n/a	n/a	14	15	5	1	9
2862.518	n/a	PROB	1431259	n/a	LTP280	ltpFR2	17	n/a	n/a	n/a	14	15	3	5	7
2863.684	n/a	PROB	1431842	n/a	LTP280	ltpFR2	17	n/a	n/a	n/a	14	16	4	3	9
2865.618	n/a	PROB	1432809	n/a	LTP280	ltpFR2	17	n/a	n/a	n/a	14	9	2	4	3
2867.002	n/a	PROB	1433501	n/a	LTP280	ltpFR2	17	n/a	n/a	n/a	14	9	2	4	3
2867.954	n/a	PROB	1433977	n/a	LTP280	ltpFR2	17	n/a	n/a	n/a	14	21	4	8	9
2869.34	n/a	PROB	1434670	n/a	LTP280	ltpFR2	17	n/a	n/a	n/a	14	12	1	7	4
2870.424	n/a	PROB	1435212	n/a	LTP280	ltpFR2	17	n/a	n/a	n/a	14	11	2	2	7
2871.706	n/a	PROB	1435853	n/a	LTP280	ltpFR2	17	n/a	n/a	n/a	14	17	4	4	9
2873.11	n/a	PROB	1436555	n/a	LTP280	ltpFR2	17	n/a	n/a	n/a	14	23	9	7	7
2874.578	n/a	PROB	1437289	n/a	LTP280	ltpFR2	17	n/a	n/a	n/a	14	20	7	9	4
2876.062	n/a	PROB	1438031	n/a	LTP280	ltpFR2	17	n/a	n/a	n/a	14	11	4	2	5
2877.264	n/a	PROB	1438632	n/a	LTP280	ltpFR2	17	n/a	n/a	n/a	14	15	7	2	6
2879.152	n/a	STOP	1439576	n/a	LTP280	ltpFR2	17	n/a	n/a	n/a	14	n/a	n/a	n/a	n/a
2882.284	n/a	REC_START	1441142	n/a	LTP280	ltpFR2	17	10	n/a	n/a	n/a	n/a	0	0	0
2882.612	n/a	REC_WORD	1441306	wordpools/wasnorm_wordpool_576.txt	LTP280	ltpFR2	17	10	GAZELLE	628	n/a	n/a	0	0	0
2883.196	n/a	REC_WORD	1441598	wordpools/wasnorm_wordpool_576.txt	LTP280	ltpFR2	17	10	STAR	1373	n/a	n/a	0	0	0
2883.652	n/a	REC_WORD	1441826	wordpools/wasnorm_wordpool_576.txt	LTP280	ltpFR2	17	10	RIVER	1194	n/a	n/a	0	0	0
2884.01	n/a	REC_WORD	1442005	wordpools/wasnorm_wordpool_576.txt	LTP280	ltpFR2	17	10	PASTA	1021	n/a	n/a	0	0	0
2884.618	n/a	REC_WORD	1442309	wordpools/wasnorm_wordpool_576.txt	LTP280	ltpFR2	17	10	SAUSAGE	1238	n/a	n/a	0	0	0
2893.768	n/a	REC_WORD	1446884	wordpools/wasnorm_wordpool_576.txt	LTP280	ltpFR2	17	10	RABBIT	1152	n/a	n/a	0	0	0
2905.894	n/a	REC_WORD	1452947	wordpools/wasnorm_wordpool_576.txt	LTP280	ltpFR2	17	10	PLUTO	1092	n/a	n/a	0	0	0
2906.584	n/a	REC_WORD	1453292	wordpools/wasnorm_wordpool_576.txt	LTP280	ltpFR2	17	10	DENIM	446	n/a	n/a	0	0	0
2909.474	n/a	REC_WORD	1454737	wordpools/wasnorm_wordpool_576.txt	LTP280	ltpFR2	17	10	FRECKLE	602	n/a	n/a	0	0	0
2910.774	n/a	REC_WORD	1455387	wordpools/wasnorm_wordpool_576.txt	LTP280	ltpFR2	17	10	WIFE	1609	n/a	n/a	0	0	0
2919.692	n/a	REC_WORD	1459846	wordpools/wasnorm_wordpool_576.txt	LTP280	ltpFR2	17	10	RIVER	1194	n/a	n/a	0	0	0
2920.26	n/a	REC_WORD	1460130	wordpools/wasnorm_wordpool_576.txt	LTP280	ltpFR2	17	10	CREATURE	403	n/a	n/a	0	0	0
2972.736	n/a	DISTRACTOR	1486368	n/a	LTP280	ltpFR2	17	11	n/a	n/a	n/a	n/a	0	0	0
2972.736	n/a	START	1486368	n/a	LTP280	ltpFR2	17	n/a	n/a	n/a	15	n/a	n/a	n/a	n/a
2972.752	n/a	PROB	1486376	n/a	LTP280	ltpFR2	17	n/a	n/a	n/a	15	22	9	5	8
2974.838	n/a	PROB	1487419	n/a	LTP280	ltpFR2	17	n/a	n/a	n/a	15	15	7	1	7
2975.906	n/a	PROB	1487953	n/a	LTP280	ltpFR2	17	n/a	n/a	n/a	15	15	5	4	6
2977.09	n/a	PROB	1488545	n/a	LTP280	ltpFR2	17	n/a	n/a	n/a	15	9	2	6	1
2978.058	n/a	PROB	1489029	n/a	LTP280	ltpFR2	17	n/a	n/a	n/a	15	8	3	2	3
2979.242	n/a	PROB	1489621	n/a	LTP280	ltpFR2	17	n/a	n/a	n/a	15	22	7	9	6
2980.578	n/a	PROB	1490289	n/a	LTP280	ltpFR2	17	n/a	n/a	n/a	15	14	5	7	2
2981.71	n/a	PROB	1490855	n/a	LTP280	ltpFR2	17	n/a	n/a	n/a	15	19	8	2	9
2982.76	n/a	PROB	1491380	n/a	LTP280	ltpFR2	17	n/a	n/a	n/a	15	9	5	1	3
2983.778	n/a	PROB	1491889	n/a	LTP280	ltpFR2	17	n/a	n/a	n/a	15	15	3	4	8
2985.614	n/a	PROB	1492807	n/a	LTP280	ltpFR2	17	n/a	n/a	n/a	15	19	9	4	5
2987.014	n/a	PROB	1493507	n/a	LTP280	ltpFR2	17	n/a	n/a	n/a	15	17	3	8	6
2988.534	n/a	PROB	1494267	n/a	LTP280	ltpFR2	17	n/a	n/a	n/a	15	21	9	6	6
2990.05	n/a	PROB	1495025	n/a	LTP280	ltpFR2	17	n/a	n/a	n/a	15	17	4	9	4
2991.668	n/a	PROB	1495834	n/a	LTP280	ltpFR2	17	n/a	n/a	n/a	15	19	9	5	5
2992.82	n/a	PROB	1496410	n/a	LTP280	ltpFR2	17	n/a	n/a	n/a	15	11	2	5	4
2993.97	n/a	PROB	1496985	n/a	LTP280	ltpFR2	17	n/a	n/a	n/a	15	17	5	9	3
2995.206	n/a	PROB	1497603	n/a	LTP280	ltpFR2	17	n/a	n/a	n/a	15	13	8	2	3
2996.37	n/a	STOP	1498185	n/a	LTP280	ltpFR2	17	n/a	n/a	n/a	15	n/a	n/a	n/a	n/a
2997.774	n/a	WORD	1498887	wordpools/wasnorm_wordpool_576.txt	LTP280	ltpFR2	17	11	TREAT	1501	n/a	n/a	0	0	0
3000.542	n/a	WORD	1500271	wordpools/wasnorm_wordpool_576.txt	LTP280	ltpFR2	17	11	CORAL	378	n/a	n/a	0	0	0
3003.246	n/a	WORD	1501623	wordpools/wasnorm_wordpool_576.txt	LTP280	ltpFR2	17	11	RAFT	1159	n/a	n/a	0	0	0
3005.846	n/a	WORD	1502923	wordpools/wasnorm_wordpool_576.txt	LTP280	ltpFR2	17	11	PEACH	1031	n/a	n/a	0	0	0
3008.504	n/a	WORD	1504252	wordpools/wasnorm_wordpool_576.txt	LTP280	ltpFR2	17	11	CITRUS	313	n/a	n/a	0	0	0
3011.3	n/a	WORD	1505650	wordpools/wasnorm_wordpool_576.txt	LTP280	ltpFR2	17	11	OUTLAW	989	n/a	n/a	0	0	0
3014.04	n/a	WORD	1507020	wordpools/wasnorm_wordpool_576.txt	LTP280	ltpFR2	17	11	BRANDY	169	n/a	n/a	0	0	0
3016.61	n/a	WORD	1508305	wordpools/wasnorm_wordpool_576.txt	LTP280	ltpFR2	17	11	CLAMP	316	n/a	n/a	0	0	0
3019.106	n/a	WORD	1509553	wordpools/wasnorm_wordpool_576.txt	LTP280	ltpFR2	17	11	LEADER	807	n/a	n/a	0	0	0
3021.642	n/a	WORD	1510821	wordpools/wasnorm_wordpool_576.txt	LTP280	ltpFR2	17	11	WORKER	1621	n/a	n/a	0	0	0
3024.344	n/a	WORD	1512172	wordpools/wasnorm_wordpool_576.txt	LTP280	ltpFR2	17	11	GAVEL	627	n/a	n/a	0	0	0
3027.146	n/a	WORD	1513573	wordpools/wasnorm_wordpool_576.txt	LTP280	ltpFR2	17	11	SWITCH	1422	n/a	n/a	0	0	0
3029.964	n/a	WORD	1514982	wordpools/wasnorm_wordpool_576.txt	LTP280	ltpFR2	17	11	OINTMENT	974	n/a	n/a	0	0	0
3032.668	n/a	WORD	1516334	wordpools/wasnorm_wordpool_576.txt	LTP280	ltpFR2	17	11	POWDER	1117	n/a	n/a	0	0	0
3035.436	n/a	WORD	1517718	wordpools/wasnorm_wordpool_576.txt	LTP280	ltpFR2	17	11	OFFICE	972	n/a	n/a	0	0	0
3038.172	n/a	WORD	1519086	wordpools/wasnorm_wordpool_576.txt	LTP280	ltpFR2	17	11	FLASHLIGHT	575	n/a	n/a	0	0	0
3040.806	n/a	WORD	1520403	wordpools/wasnorm_wordpool_576.txt	LTP280	ltpFR2	17	11	BLADE	134	n/a	n/a	0	0	0
3043.4	n/a	WORD	1521700	wordpools/wasnorm_wordpool_576.txt	LTP280	ltpFR2	17	11	STATUE	1374	n/a	n/a	0	0	0
3046.178	n/a	WORD	1523089	wordpools/wasnorm_wordpool_576.txt	LTP280	ltpFR2	17	11	SCULPTURE	1258	n/a	n/a	0	0	0
3048.77	n/a	WORD	1524385	wordpools/wasnorm_wordpool_576.txt	LTP280	ltpFR2	17	11	LIGHTNING	820	n/a	n/a	0	0	0
3051.24	n/a	WORD	1525620	wordpools/wasnorm_wordpool_576.txt	LTP280	ltpFR2	17	11	PEPPER	1047	n/a	n/a	0	0	0
3053.868	n/a	WORD	1526934	wordpools/wasnorm_wordpool_576.txt	LTP280	ltpFR2	17	11	LOFT	840	n/a	n/a	0	0	0
3056.668	n/a	WORD	1528334	wordpools/wasnorm_wordpool_576.txt	LTP280	ltpFR2	17	11	JURY	766	n/a	n/a	0	0	0
3059.154	n/a	WORD	1529577	wordpools/wasnorm_wordpool_576.txt	LTP280	ltpFR2	17	11	PATROL	1027	n/a	n/a	0	0	0
3060.764	n/a	START	1530382	n/a	LTP280	ltpFR2	17	n/a	n/a	n/a	16	n/a	n/a	n/a	n/a
3061.928	n/a	DISTRACTOR	1530964	n/a	LTP280	ltpFR2	17	11	n/a	n/a	n/a	n/a	0	0	0
3061.938	n/a	PROB	1530969	n/a	LTP280	ltpFR2	17	n/a	n/a	n/a	16	14	2	4	8
3063.224	n/a	PROB	1531612	n/a	LTP280	ltpFR2	17	n/a	n/a	n/a	16	14	9	1	4
3064.408	n/a	PROB	1532204	n/a	LTP280	ltpFR2	17	n/a	n/a	n/a	16	12	3	8	1
3065.558	n/a	PROB	1532779	n/a	LTP280	ltpFR2	17	n/a	n/a	n/a	16	19	6	6	7
3067.244	n/a	PROB	1533622	n/a	LTP280	ltpFR2	17	n/a	n/a	n/a	16	22	7	8	7
3068.56	n/a	PROB	1534280	n/a	LTP280	ltpFR2	17	n/a	n/a	n/a	16	13	2	8	3
3070.362	n/a	PROB	1535181	n/a	LTP280	ltpFR2	17	n/a	n/a	n/a	16	9	4	1	4
3071.33	n/a	PROB	1535665	n/a	LTP280	ltpFR2	17	n/a	n/a	n/a	16	25	9	8	6
3072.714	n/a	PROB	1536357	n/a	LTP280	ltpFR2	17	n/a	n/a	n/a	16	17	5	5	7
3073.832	n/a	PROB	1536916	n/a	LTP280	ltpFR2	17	n/a	n/a	n/a	16	19	9	3	7
3075.082	n/a	PROB	1537541	n/a	LTP280	ltpFR2	17	n/a	n/a	n/a	16	19	8	5	6
3076.518	n/a	PROB	1538259	n/a	LTP280	ltpFR2	17	n/a	n/a	n/a	16	22	9	5	8
3078.986	n/a	PROB	1539493	n/a	LTP280	ltpFR2	17	n/a	n/a	n/a	16	8	2	1	5
3080.388	n/a	PROB	1540194	n/a	LTP280	ltpFR2	17	n/a	n/a	n/a	16	12	9	1	2
3081.506	n/a	PROB	1540753	n/a	LTP280	ltpFR2	17	n/a	n/a	n/a	16	19	6	7	6
3083.072	n/a	PROB	1541536	n/a	LTP280	ltpFR2	17	n/a	n/a	n/a	16	15	4	5	6
3084.098	n/a	STOP	1542049	n/a	LTP280	ltpFR2	17	n/a	n/a	n/a	16	n/a	n/a	n/a	n/a
3086.692	n/a	REC_START	1543346	n/a	LTP280	ltpFR2	17	11	n/a	n/a	n/a	n/a	0	0	0
3087.0	n/a	REC_WORD	1543500	wordpools/wasnorm_wordpool_576.txt	LTP280	ltpFR2	17	11	PATROL	1027	n/a	n/a	0	0	0
3087.66	n/a	REC_WORD	1543830	wordpools/wasnorm_wordpool_576.txt	LTP280	ltpFR2	17	11	FLASHLIGHT	575	n/a	n/a	0	0	0
3090.626	n/a	REC_WORD	1545313	wordpools/wasnorm_wordpool_576.txt	LTP280	ltpFR2	17	11	LEADER	807	n/a	n/a	0	0	0
3091.174	n/a	REC_WORD	1545587	wordpools/wasnorm_wordpool_576.txt	LTP280	ltpFR2	17	11	WORKER	1621	n/a	n/a	0	0	0
3092.502	n/a	REC_WORD	1546251	wordpools/wasnorm_wordpool_576.txt	LTP280	ltpFR2	17	11	GAVEL	627	n/a	n/a	0	0	0
3093.564	n/a	REC_WORD	1546782	wordpools/wasnorm_wordpool_576.txt	LTP280	ltpFR2	17	11	OFFICE	972	n/a	n/a	0	0	0
3097.436	n/a	REC_WORD	1548718	wordpools/wasnorm_wordpool_576.txt	LTP280	ltpFR2	17	11	PEACH	1031	n/a	n/a	0	0	0
3097.89	n/a	REC_WORD	1548945	wordpools/wasnorm_wordpool_576.txt	LTP280	ltpFR2	17	11	CITRUS	313	n/a	n/a	0	0	0
3101.304	n/a	REC_WORD	1550652	wordpools/wasnorm_wordpool_576.txt	LTP280	ltpFR2	17	11	POWDER	1117	n/a	n/a	0	0	0
3101.902	n/a	REC_WORD	1550951	wordpools/wasnorm_wordpool_576.txt	LTP280	ltpFR2	17	11	OINTMENT	974	n/a	n/a	0	0	0
3103.904	n/a	REC_WORD	1551952	wordpools/wasnorm_wordpool_576.txt	LTP280	ltpFR2	17	11	BRANDY	169	n/a	n/a	0	0	0
3104.684	n/a	REC_WORD	1552342	wordpools/wasnorm_wordpool_576.txt	LTP280	ltpFR2	17	11	OUTLAW	989	n/a	n/a	0	0	0
3177.148	n/a	DISTRACTOR	1588574	n/a	LTP280	ltpFR2	17	12	n/a	n/a	n/a	n/a	0	0	0
3177.148	n/a	START	1588574	n/a	LTP280	ltpFR2	17	n/a	n/a	n/a	17	n/a	n/a	n/a	n/a
3177.162	n/a	PROB	1588581	n/a	LTP280	ltpFR2	17	n/a	n/a	n/a	17	20	9	2	9
3179.15	n/a	PROB	1589575	n/a	LTP280	ltpFR2	17	n/a	n/a	n/a	17	8	1	2	5
3180.214	n/a	PROB	1590107	n/a	LTP280	ltpFR2	17	n/a	n/a	n/a	17	16	6	6	4
3181.916	n/a	PROB	1590958	n/a	LTP280	ltpFR2	17	n/a	n/a	n/a	17	3	1	1	1
3183.534	n/a	PROB	1591767	n/a	LTP280	ltpFR2	17	n/a	n/a	n/a	17	16	1	6	9
3184.686	n/a	PROB	1592343	n/a	LTP280	ltpFR2	17	n/a	n/a	n/a	17	16	7	8	1
3185.72	n/a	PROB	1592860	n/a	LTP280	ltpFR2	17	n/a	n/a	n/a	17	14	4	8	2
3186.804	n/a	PROB	1593402	n/a	LTP280	ltpFR2	17	n/a	n/a	n/a	17	14	3	6	5
3188.004	n/a	PROB	1594002	n/a	LTP280	ltpFR2	17	n/a	n/a	n/a	17	25	9	8	8
3189.238	n/a	PROB	1594619	n/a	LTP280	ltpFR2	17	n/a	n/a	n/a	17	20	7	5	8
3190.556	n/a	PROB	1595278	n/a	LTP280	ltpFR2	17	n/a	n/a	n/a	17	21	8	4	9
3192.308	n/a	PROB	1596154	n/a	LTP280	ltpFR2	17	n/a	n/a	n/a	17	6	1	2	3
3193.192	n/a	PROB	1596596	n/a	LTP280	ltpFR2	17	n/a	n/a	n/a	17	21	9	6	6
3194.46	n/a	PROB	1597230	n/a	LTP280	ltpFR2	17	n/a	n/a	n/a	17	9	1	5	3
3195.46	n/a	PROB	1597730	n/a	LTP280	ltpFR2	17	n/a	n/a	n/a	17	6	3	2	1
3196.312	n/a	PROB	1598156	n/a	LTP280	ltpFR2	17	n/a	n/a	n/a	17	17	6	5	6
3197.812	n/a	PROB	1598906	n/a	LTP280	ltpFR2	17	n/a	n/a	n/a	17	12	4	5	3
3199.094	n/a	PROB	1599547	n/a	LTP280	ltpFR2	17	n/a	n/a	n/a	17	15	7	3	5
3200.06	n/a	STOP	1600030	n/a	LTP280	ltpFR2	17	n/a	n/a	n/a	17	n/a	n/a	n/a	n/a
3202.366	n/a	WORD	1601183	wordpools/wasnorm_wordpool_576.txt	LTP280	ltpFR2	17	12	RECEIPT	1173	n/a	n/a	0	0	0
3205.0	n/a	WORD	1602500	wordpools/wasnorm_wordpool_576.txt	LTP280	ltpFR2	17	12	HAWK	692	n/a	n/a	0	0	0
3207.488	n/a	WORD	1603744	wordpools/wasnorm_wordpool_576.txt	LTP280	ltpFR2	17	12	DIVER	476	n/a	n/a	0	0	0
3210.122	n/a	WORD	1605061	wordpools/wasnorm_wordpool_576.txt	LTP280	ltpFR2	17	12	JUDGE	761	n/a	n/a	0	0	0
3212.69	n/a	WORD	1606345	wordpools/wasnorm_wordpool_576.txt	LTP280	ltpFR2	17	12	ATLAS	53	n/a	n/a	0	0	0
3215.108	n/a	WORD	1607554	wordpools/wasnorm_wordpool_576.txt	LTP280	ltpFR2	17	12	EXPERT	543	n/a	n/a	0	0	0
3217.846	n/a	WORD	1608923	wordpools/wasnorm_wordpool_576.txt	LTP280	ltpFR2	17	12	BANKER	84	n/a	n/a	0	0	0
3220.564	n/a	WORD	1610282	wordpools/wasnorm_wordpool_576.txt	LTP280	ltpFR2	17	12	HANDBAG	684	n/a	n/a	0	0	0
3223.2	n/a	WORD	1611600	wordpools/wasnorm_wordpool_576.txt	LTP280	ltpFR2	17	12	TRUCK	1512	n/a	n/a	0	0	0
3225.634	n/a	WORD	1612817	wordpools/wasnorm_wordpool_576.txt	LTP280	ltpFR2	17	12	BARREL	91	n/a	n/a	0	0	0
3228.354	n/a	WORD	1614177	wordpools/wasnorm_wordpool_576.txt	LTP280	ltpFR2	17	12	BLOUSE	139	n/a	n/a	0	0	0
3230.792	n/a	WORD	1615396	wordpools/wasnorm_wordpool_576.txt	LTP280	ltpFR2	17	12	HONEY	713	n/a	n/a	0	0	0
3233.542	n/a	WORD	1616771	wordpools/wasnorm_wordpool_576.txt	LTP280	ltpFR2	17	12	AIRPLANE	12	n/a	n/a	0	0	0
3236.042	n/a	WORD	1618021	wordpools/wasnorm_wordpool_576.txt	LTP280	ltpFR2	17	12	PLIERS	1089	n/a	n/a	0	0	0
3238.462	n/a	WORD	1619231	wordpools/wasnorm_wordpool_576.txt	LTP280	ltpFR2	17	12	DUST	508	n/a	n/a	0	0	0
3241.13	n/a	WORD	1620565	wordpools/wasnorm_wordpool_576.txt	LTP280	ltpFR2	17	12	STALLION	1369	n/a	n/a	0	0	0
3243.882	n/a	WORD	1621941	wordpools/wasnorm_wordpool_576.txt	LTP280	ltpFR2	17	12	WAGON	1578	n/a	n/a	0	0	0
3246.616	n/a	WORD	1623308	wordpools/wasnorm_wordpool_576.txt	LTP280	ltpFR2	17	12	LAGOON	795	n/a	n/a	0	0	0
3249.152	n/a	WORD	1624576	wordpools/wasnorm_wordpool_576.txt	LTP280	ltpFR2	17	12	BROTHER	179	n/a	n/a	0	0	0
3251.622	n/a	WORD	1625811	wordpools/wasnorm_wordpool_576.txt	LTP280	ltpFR2	17	12	SIBLING	1301	n/a	n/a	0	0	0
3254.158	n/a	WORD	1627079	wordpools/wasnorm_wordpool_576.txt	LTP280	ltpFR2	17	12	BRAKE	166	n/a	n/a	0	0	0
3256.858	n/a	WORD	1628429	wordpools/wasnorm_wordpool_576.txt	LTP280	ltpFR2	17	12	SPIDER	1351	n/a	n/a	0	0	0
3259.512	n/a	WORD	1629756	wordpools/wasnorm_wordpool_576.txt	LTP280	ltpFR2	17	12	GARBAGE	622	n/a	n/a	0	0	0
3262.314	n/a	WORD	1631157	wordpools/wasnorm_wordpool_576.txt	LTP280	ltpFR2	17	12	OYSTER	995	n/a	n/a	0	0	0
3263.92	n/a	START	1631960	n/a	LTP280	ltpFR2	17	n/a	n/a	n/a	18	n/a	n/a	n/a	n/a
3264.952	n/a	DISTRACTOR	1632476	n/a	LTP280	ltpFR2	17	12	n/a	n/a	n/a	n/a	0	0	0
3264.964	n/a	PROB	1632482	n/a	LTP280	ltpFR2	17	n/a	n/a	n/a	18	13	9	3	1
3266.216	n/a	PROB	1633108	n/a	LTP280	ltpFR2	17	n/a	n/a	n/a	18	10	1	2	7
3267.266	n/a	PROB	1633633	n/a	LTP280	ltpFR2	17	n/a	n/a	n/a	18	17	4	7	3
3268.536	n/a	PROB	1634268	n/a	LTP280	ltpFR2	17	n/a	n/a	n/a	18	14	9	4	1
3269.834	n/a	PROB	1634917	n/a	LTP280	ltpFR2	17	n/a	n/a	n/a	18	16	5	2	9
3271.636	n/a	PROB	1635818	n/a	LTP280	ltpFR2	17	n/a	n/a	n/a	18	8	1	3	4
3272.736	n/a	PROB	1636368	n/a	LTP280	ltpFR2	17	n/a	n/a	n/a	18	18	8	4	6
3273.988	n/a	PROB	1636994	n/a	LTP280	ltpFR2	17	n/a	n/a	n/a	18	20	4	9	7
3275.256	n/a	PROB	1637628	n/a	LTP280	ltpFR2	17	n/a	n/a	n/a	18	14	9	2	3
3277.624	n/a	PROB	1638812	n/a	LTP280	ltpFR2	17	n/a	n/a	n/a	18	17	8	2	7
3278.758	n/a	PROB	1639379	n/a	LTP280	ltpFR2	17	n/a	n/a	n/a	18	8	3	2	3
3280.026	n/a	PROB	1640013	n/a	LTP280	ltpFR2	17	n/a	n/a	n/a	18	7	2	4	1
3281.01	n/a	PROB	1640505	n/a	LTP280	ltpFR2	17	n/a	n/a	n/a	18	6	4	1	1
3281.996	n/a	PROB	1640998	n/a	LTP280	ltpFR2	17	n/a	n/a	n/a	18	16	3	6	7
3283.198	n/a	PROB	1641599	n/a	LTP280	ltpFR2	17	n/a	n/a	n/a	18	16	5	4	7
3284.264	n/a	PROB	1642132	n/a	LTP280	ltpFR2	17	n/a	n/a	n/a	18	23	6	9	8
3285.73	n/a	PROB	1642865	n/a	LTP280	ltpFR2	17	n/a	n/a	n/a	18	8	1	2	5
3286.608	n/a	STOP	1643304	n/a	LTP280	ltpFR2	17	n/a	n/a	n/a	18	n/a	n/a	n/a	n/a
3289.668	n/a	REC_START	1644834	n/a	LTP280	ltpFR2	17	12	n/a	n/a	n/a	n/a	0	0	0
3289.92	n/a	REC_WORD	1644960	wordpools/wasnorm_wordpool_576.txt	LTP280	ltpFR2	17	12	BLOUSE	139	n/a	n/a	0	0	0
3290.466	n/a	REC_WORD	1645233	wordpools/wasnorm_wordpool_576.txt	LTP280	ltpFR2	17	12	HONEY	713	n/a	n/a	0	0	0
3291.13	n/a	REC_WORD	1645565	wordpools/wasnorm_wordpool_576.txt	LTP280	ltpFR2	17	12	AIRPLANE	12	n/a	n/a	0	0	0
3292.4	n/a	REC_WORD	1646200	wordpools/wasnorm_wordpool_576.txt	LTP280	ltpFR2	17	12	DUST	508	n/a	n/a	0	0	0
3313.304	n/a	REC_WORD	1656652	wordpools/wasnorm_wordpool_576.txt	LTP280	ltpFR2	17	12	ATLAS	53	n/a	n/a	0	0	0
3313.986	n/a	REC_WORD	1656993	wordpools/wasnorm_wordpool_576.txt	LTP280	ltpFR2	17	12	EXPERT	543	n/a	n/a	0	0	0
3351.424	n/a	REC_WORD_VV	1675712	wordpools/wasnorm_wordpool_576.txt	LTP280	ltpFR2	17	12	<>	-1	n/a	n/a	0	0	0
3380.1	n/a	WORD	1690050	wordpools/wasnorm_wordpool_576.txt	LTP280	ltpFR2	17	13	DRILL	497	n/a	n/a	0	0	0
3382.572	n/a	WORD	1691286	wordpools/wasnorm_wordpool_576.txt	LTP280	ltpFR2	17	13	SHARK	1275	n/a	n/a	0	0	0
3385.306	n/a	WORD	1692653	wordpools/wasnorm_wordpool_576.txt	LTP280	ltpFR2	17	13	PICTURE	1061	n/a	n/a	0	0	0
3387.876	n/a	WORD	1693938	wordpools/wasnorm_wordpool_576.txt	LTP280	ltpFR2	17	13	BURGLAR	200	n/a	n/a	0	0	0
3390.594	n/a	WORD	1695297	wordpools/wasnorm_wordpool_576.txt	LTP280	ltpFR2	17	13	ARMY	39	n/a	n/a	0	0	0
3393.028	n/a	WORD	1696514	wordpools/wasnorm_wordpool_576.txt	LTP280	ltpFR2	17	13	FIREMAN	569	n/a	n/a	0	0	0
3395.632	n/a	WORD	1697816	wordpools/wasnorm_wordpool_576.txt	LTP280	ltpFR2	17	13	COCOON	339	n/a	n/a	0	0	0
3398.368	n/a	WORD	1699184	wordpools/wasnorm_wordpool_576.txt	LTP280	ltpFR2	17	13	POISON	1096	n/a	n/a	0	0	0
3401.12	n/a	WORD	1700560	wordpools/wasnorm_wordpool_576.txt	LTP280	ltpFR2	17	13	SODA	1341	n/a	n/a	0	0	0
3403.738	n/a	WORD	1701869	wordpools/wasnorm_wordpool_576.txt	LTP280	ltpFR2	17	13	BALLOON	75	n/a	n/a	0	0	0
3406.358	n/a	WORD	1703179	wordpools/wasnorm_wordpool_576.txt	LTP280	ltpFR2	17	13	SKILLET	1317	n/a	n/a	0	0	0
3408.976	n/a	WORD	1704488	wordpools/wasnorm_wordpool_576.txt	LTP280	ltpFR2	17	13	CEILING	265	n/a	n/a	0	0	0
3411.778	n/a	WORD	1705889	wordpools/wasnorm_wordpool_576.txt	LTP280	ltpFR2	17	13	SKETCH	1315	n/a	n/a	0	0	0
3414.566	n/a	WORD	1707283	wordpools/wasnorm_wordpool_576.txt	LTP280	ltpFR2	17	13	BOARD	143	n/a	n/a	0	0	0
3417.066	n/a	WORD	1708533	wordpools/wasnorm_wordpool_576.txt	LTP280	ltpFR2	17	13	SOFTBALL	1343	n/a	n/a	0	0	0
3419.604	n/a	WORD	1709802	wordpools/wasnorm_wordpool_576.txt	LTP280	ltpFR2	17	13	CRUTCH	417	n/a	n/a	0	0	0
3422.372	n/a	WORD	1711186	wordpools/wasnorm_wordpool_576.txt	LTP280	ltpFR2	17	13	MARINE	869	n/a	n/a	0	0	0
3425.158	n/a	WORD	1712579	wordpools/wasnorm_wordpool_576.txt	LTP280	ltpFR2	17	13	GRAVE	658	n/a	n/a	0	0	0
3427.726	n/a	WORD	1713863	wordpools/wasnorm_wordpool_576.txt	LTP280	ltpFR2	17	13	CASKET	255	n/a	n/a	0	0	0
3430.262	n/a	WORD	1715131	wordpools/wasnorm_wordpool_576.txt	LTP280	ltpFR2	17	13	BUCKET	184	n/a	n/a	0	0	0
3432.778	n/a	WORD	1716389	wordpools/wasnorm_wordpool_576.txt	LTP280	ltpFR2	17	13	ROCKET	1202	n/a	n/a	0	0	0
3435.266	n/a	WORD	1717633	wordpools/wasnorm_wordpool_576.txt	LTP280	ltpFR2	17	13	MARKER	870	n/a	n/a	0	0	0
3437.966	n/a	WORD	1718983	wordpools/wasnorm_wordpool_576.txt	LTP280	ltpFR2	17	13	PISTOL	1075	n/a	n/a	0	0	0
3440.436	n/a	WORD	1720218	wordpools/wasnorm_wordpool_576.txt	LTP280	ltpFR2	17	13	EAGLE	512	n/a	n/a	0	0	0
3442.052	n/a	START	1721026	n/a	LTP280	ltpFR2	17	n/a	n/a	n/a	19	n/a	n/a	n/a	n/a
3442.964	n/a	DISTRACTOR	1721482	n/a	LTP280	ltpFR2	17	13	n/a	n/a	n/a	n/a	0	0	0
3442.97	n/a	PROB	1721485	n/a	LTP280	ltpFR2	17	n/a	n/a	n/a	19	16	4	8	4
3444.27	n/a	PROB	1722135	n/a	LTP280	ltpFR2	17	n/a	n/a	n/a	19	10	5	2	3
3445.656	n/a	PROB	1722828	n/a	LTP280	ltpFR2	17	n/a	n/a	n/a	19	22	4	9	9
3447.104	n/a	PROB	1723552	n/a	LTP280	ltpFR2	17	n/a	n/a	n/a	19	19	7	3	9
3448.208	n/a	PROB	1724104	n/a	LTP280	ltpFR2	17	n/a	n/a	n/a	19	14	1	9	4
3449.326	n/a	PROB	1724663	n/a	LTP280	ltpFR2	17	n/a	n/a	n/a	19	13	1	7	5
3450.476	n/a	PROB	1725238	n/a	LTP280	ltpFR2	17	n/a	n/a	n/a	19	12	7	1	4
3451.71	n/a	PROB	1725855	n/a	LTP280	ltpFR2	17	n/a	n/a	n/a	19	11	3	3	5
3452.744	n/a	PROB	1726372	n/a	LTP280	ltpFR2	17	n/a	n/a	n/a	19	13	5	7	1
3454.18	n/a	PROB	1727090	n/a	LTP280	ltpFR2	17	n/a	n/a	n/a	19	17	4	4	9
3455.48	n/a	PROB	1727740	n/a	LTP280	ltpFR2	17	n/a	n/a	n/a	19	19	6	9	4
3457.932	n/a	PROB	1728966	n/a	LTP280	ltpFR2	17	n/a	n/a	n/a	19	18	5	4	9
3459.1	n/a	PROB	1729550	n/a	LTP280	ltpFR2	17	n/a	n/a	n/a	19	11	3	5	3
3460.35	n/a	PROB	1730175	n/a	LTP280	ltpFR2	17	n/a	n/a	n/a	19	20	8	8	4
3461.52	n/a	PROB	1730760	n/a	LTP280	ltpFR2	17	n/a	n/a	n/a	19	13	5	3	5
3462.852	n/a	PROB	1731426	n/a	LTP280	ltpFR2	17	n/a	n/a	n/a	19	14	4	9	1
3463.92	n/a	PROB	1731960	n/a	LTP280	ltpFR2	17	n/a	n/a	n/a	19	15	1	6	8
3465.25	n/a	STOP	1732625	n/a	LTP280	ltpFR2	17	n/a	n/a	n/a	19	n/a	n/a	n/a	n/a
3467.872	n/a	REC_START	1733936	n/a	LTP280	ltpFR2	17	13	n/a	n/a	n/a	n/a	0	0	0
3468.32	n/a	REC_WORD	1734160	wordpools/wasnorm_wordpool_576.txt	LTP280	ltpFR2	17	13	ROCKET	1202	n/a	n/a	0	0	0
3468.9	n/a	REC_WORD	1734450	wordpools/wasnorm_wordpool_576.txt	LTP280	ltpFR2	17	13	MARKER	870	n/a	n/a	0	0	0
3469.764	n/a	REC_WORD	1734882	wordpools/wasnorm_wordpool_576.txt	LTP280	ltpFR2	17	13	PISTOL	1075	n/a	n/a	0	0	0
3470.566	n/a	REC_WORD	1735283	wordpools/wasnorm_wordpool_576.txt	LTP280	ltpFR2	17	13	EAGLE	512	n/a	n/a	0	0	0
3477.726	n/a	REC_WORD	1738863	wordpools/wasnorm_wordpool_576.txt	LTP280	ltpFR2	17	13	SHARK	1275	n/a	n/a	0	0	0
3478.522	n/a	REC_WORD	1739261	wordpools/wasnorm_wordpool_576.txt	LTP280	ltpFR2	17	13	BURGLAR	200	n/a	n/a	0	0	0
3558.31	n/a	WORD	1779155	wordpools/wasnorm_wordpool_576.txt	LTP280	ltpFR2	17	14	TEMPLE	1448	n/a	n/a	0	0	0
3561.112	n/a	WORD	1780556	wordpools/wasnorm_wordpool_576.txt	LTP280	ltpFR2	17	14	FEMALE	559	n/a	n/a	0	0	0
3563.614	n/a	WORD	1781807	wordpools/wasnorm_wordpool_576.txt	LTP280	ltpFR2	17	14	COWBOY	395	n/a	n/a	0	0	0
3566.212	n/a	WORD	1783106	wordpools/wasnorm_wordpool_576.txt	LTP280	ltpFR2	17	14	BARLEY	88	n/a	n/a	0	0	0
3568.93	n/a	WORD	1784465	wordpools/wasnorm_wordpool_576.txt	LTP280	ltpFR2	17	14	MARSH	874	n/a	n/a	0	0	0
3571.698	n/a	WORD	1785849	wordpools/wasnorm_wordpool_576.txt	LTP280	ltpFR2	17	14	QUEEN	1149	n/a	n/a	0	0	0
3574.368	n/a	WORD	1787184	wordpools/wasnorm_wordpool_576.txt	LTP280	ltpFR2	17	14	SHELTER	1282	n/a	n/a	0	0	0
3576.82	n/a	WORD	1788410	wordpools/wasnorm_wordpool_576.txt	LTP280	ltpFR2	17	14	FINGER	567	n/a	n/a	0	0	0
3579.56	n/a	WORD	1789780	wordpools/wasnorm_wordpool_576.txt	LTP280	ltpFR2	17	14	EGYPT	519	n/a	n/a	0	0	0
3582.112	n/a	WORD	1791056	wordpools/wasnorm_wordpool_576.txt	LTP280	ltpFR2	17	14	AIRPORT	13	n/a	n/a	0	0	0
3584.764	n/a	WORD	1792382	wordpools/wasnorm_wordpool_576.txt	LTP280	ltpFR2	17	14	PILOT	1070	n/a	n/a	0	0	0
3587.494	n/a	WORD	1793747	wordpools/wasnorm_wordpool_576.txt	LTP280	ltpFR2	17	14	WAITRESS	1581	n/a	n/a	0	0	0
3590.132	n/a	WORD	1795066	wordpools/wasnorm_wordpool_576.txt	LTP280	ltpFR2	17	14	DINER	467	n/a	n/a	0	0	0
3592.782	n/a	WORD	1796391	wordpools/wasnorm_wordpool_576.txt	LTP280	ltpFR2	17	14	ARM	38	n/a	n/a	0	0	0
3595.574	n/a	WORD	1797787	wordpools/wasnorm_wordpool_576.txt	LTP280	ltpFR2	17	14	PLAYGROUND	1087	n/a	n/a	0	0	0
3598.09	n/a	WORD	1799045	wordpools/wasnorm_wordpool_576.txt	LTP280	ltpFR2	17	14	DRINK	498	n/a	n/a	0	0	0
3600.86	n/a	WORD	1800430	wordpools/wasnorm_wordpool_576.txt	LTP280	ltpFR2	17	14	OZONE	996	n/a	n/a	0	0	0
3603.396	n/a	WORD	1801698	wordpools/wasnorm_wordpool_576.txt	LTP280	ltpFR2	17	14	SMOG	1330	n/a	n/a	0	0	0
3605.882	n/a	WORD	1802941	wordpools/wasnorm_wordpool_576.txt	LTP280	ltpFR2	17	14	WASP	1593	n/a	n/a	0	0	0
3608.312	n/a	WORD	1804156	wordpools/wasnorm_wordpool_576.txt	LTP280	ltpFR2	17	14	NECKLACE	940	n/a	n/a	0	0	0
3611.002	n/a	WORD	1805501	wordpools/wasnorm_wordpool_576.txt	LTP280	ltpFR2	17	14	LAPEL	800	n/a	n/a	0	0	0
3613.7	n/a	WORD	1806850	wordpools/wasnorm_wordpool_576.txt	LTP280	ltpFR2	17	14	SCRIBBLE	1256	n/a	n/a	0	0	0
3616.138	n/a	WORD	1808069	wordpools/wasnorm_wordpool_576.txt	LTP280	ltpFR2	17	14	CROWN	415	n/a	n/a	0	0	0
3618.638	n/a	WORD	1809319	wordpools/wasnorm_wordpool_576.txt	LTP280	ltpFR2	17	14	XEROX	1628	n/a	n/a	0	0	0
3620.24	n/a	START	1810120	n/a	LTP280	ltpFR2	17	n/a	n/a	n/a	20	n/a	n/a	n/a	n/a
3621.422	n/a	DISTRACTOR	1810711	n/a	LTP280	ltpFR2	17	14	n/a	n/a	n/a	n/a	0	0	0
3621.426	n/a	PROB	1810713	n/a	LTP280	ltpFR2	17	n/a	n/a	n/a	20	16	6	1	9
3622.592	n/a	PROB	1811296	n/a	LTP280	ltpFR2	17	n/a	n/a	n/a	20	9	4	4	1
3623.61	n/a	PROB	1811805	n/a	LTP280	ltpFR2	17	n/a	n/a	n/a	20	10	1	3	6
3624.612	n/a	PROB	1812306	n/a	LTP280	ltpFR2	17	n/a	n/a	n/a	20	11	4	5	2
3625.676	n/a	PROB	1812838	n/a	LTP280	ltpFR2	17	n/a	n/a	n/a	20	17	8	2	7
3626.928	n/a	PROB	1813464	n/a	LTP280	ltpFR2	17	n/a	n/a	n/a	20	8	3	4	1
3627.944	n/a	PROB	1813972	n/a	LTP280	ltpFR2	17	n/a	n/a	n/a	20	15	3	6	6
3629.062	n/a	PROB	1814531	n/a	LTP280	ltpFR2	17	n/a	n/a	n/a	20	12	6	5	1
3630.062	n/a	PROB	1815031	n/a	LTP280	ltpFR2	17	n/a	n/a	n/a	20	16	6	5	5
3631.5	n/a	PROB	1815750	n/a	LTP280	ltpFR2	17	n/a	n/a	n/a	20	13	2	4	7
3632.882	n/a	PROB	1816441	n/a	LTP280	ltpFR2	17	n/a	n/a	n/a	20	25	7	9	9
3635.284	n/a	PROB	1817642	n/a	LTP280	ltpFR2	17	n/a	n/a	n/a	20	17	3	6	8
3637.038	n/a	PROB	1818519	n/a	LTP280	ltpFR2	17	n/a	n/a	n/a	20	16	6	5	5
3638.206	n/a	PROB	1819103	n/a	LTP280	ltpFR2	17	n/a	n/a	n/a	20	19	8	6	5
3640.442	n/a	PROB	1820221	n/a	LTP280	ltpFR2	17	n/a	n/a	n/a	20	18	4	8	4
3641.858	n/a	PROB	1820929	n/a	LTP280	ltpFR2	17	n/a	n/a	n/a	20	13	4	1	8
3642.972	n/a	STOP	1821486	n/a	LTP280	ltpFR2	17	n/a	n/a	n/a	20	n/a	n/a	n/a	n/a
3645.994	n/a	REC_START	1822997	n/a	LTP280	ltpFR2	17	14	n/a	n/a	n/a	n/a	0	0	0
3646.88	n/a	REC_WORD	1823440	wordpools/wasnorm_wordpool_576.txt	LTP280	ltpFR2	17	14	SCRIBBLE	1256	n/a	n/a	0	0	0
3647.55	n/a	REC_WORD	1823775	wordpools/wasnorm_wordpool_576.txt	LTP280	ltpFR2	17	14	CROWN	415	n/a	n/a	0	0	0
3649.594	n/a	REC_WORD	1824797	wordpools/wasnorm_wordpool_576.txt	LTP280	ltpFR2	17	14	XEROX	1628	n/a	n/a	0	0	0
3652.728	n/a	REC_WORD	1826364	wordpools/wasnorm_wordpool_576.txt	LTP280	ltpFR2	17	14	EGYPT	519	n/a	n/a	0	0	0
3653.384	n/a	REC_WORD	1826692	wordpools/wasnorm_wordpool_576.txt	LTP280	ltpFR2	17	14	DINER	467	n/a	n/a	0	0	0
3653.89	n/a	REC_WORD	1826945	wordpools/wasnorm_wordpool_576.txt	LTP280	ltpFR2	17	14	WAITRESS	1581	n/a	n/a	0	0	0
3654.714	n/a	REC_WORD	1827357	wordpools/wasnorm_wordpool_576.txt	LTP280	ltpFR2	17	14	DRINK	498	n/a	n/a	0	0	0
3736.388	n/a	DISTRACTOR	1868194	n/a	LTP280	ltpFR2	17	15	n/a	n/a	n/a	n/a	0	0	0
3736.39	n/a	START	1868195	n/a	LTP280	ltpFR2	17	n/a	n/a	n/a	21	n/a	n/a	n/a	n/a
3736.406	n/a	PROB	1868203	n/a	LTP280	ltpFR2	17	n/a	n/a	n/a	21	13	6	5	2
3737.516	n/a	PROB	1868758	n/a	LTP280	ltpFR2	17	n/a	n/a	n/a	21	5	2	1	2
3738.434	n/a	PROB	1869217	n/a	LTP280	ltpFR2	17	n/a	n/a	n/a	21	16	3	5	7
3739.75	n/a	PROB	1869875	n/a	LTP280	ltpFR2	17	n/a	n/a	n/a	21	6	2	2	2
3740.652	n/a	PROB	1870326	n/a	LTP280	ltpFR2	17	n/a	n/a	n/a	21	16	6	3	7
3742.188	n/a	PROB	1871094	n/a	LTP280	ltpFR2	17	n/a	n/a	n/a	21	25	7	7	9
3743.854	n/a	PROB	1871927	n/a	LTP280	ltpFR2	17	n/a	n/a	n/a	21	13	4	8	1
3744.77	n/a	PROB	1872385	n/a	LTP280	ltpFR2	17	n/a	n/a	n/a	21	18	9	5	4
3746.706	n/a	PROB	1873353	n/a	LTP280	ltpFR2	17	n/a	n/a	n/a	21	13	8	1	4
3747.758	n/a	PROB	1873879	n/a	LTP280	ltpFR2	17	n/a	n/a	n/a	21	8	4	1	3
3748.81	n/a	PROB	1874405	n/a	LTP280	ltpFR2	17	n/a	n/a	n/a	21	16	3	9	4
3750.042	n/a	PROB	1875021	n/a	LTP280	ltpFR2	17	n/a	n/a	n/a	21	17	7	9	1
3751.244	n/a	PROB	1875622	n/a	LTP280	ltpFR2	17	n/a	n/a	n/a	21	9	1	7	1
3752.18	n/a	PROB	1876090	n/a	LTP280	ltpFR2	17	n/a	n/a	n/a	21	7	3	1	3
3753.128	n/a	PROB	1876564	n/a	LTP280	ltpFR2	17	n/a	n/a	n/a	21	11	2	7	2
3754.514	n/a	PROB	1877257	n/a	LTP280	ltpFR2	17	n/a	n/a	n/a	21	21	8	9	7
3755.78	n/a	PROB	1877890	n/a	LTP280	ltpFR2	17	n/a	n/a	n/a	21	21	9	7	5
3757.398	n/a	PROB	1878699	n/a	LTP280	ltpFR2	17	n/a	n/a	n/a	21	12	4	5	3
3760.192	n/a	STOP	1880096	n/a	LTP280	ltpFR2	17	n/a	n/a	n/a	21	n/a	n/a	n/a	n/a
3761.502	n/a	WORD	1880751	wordpools/wasnorm_wordpool_576.txt	LTP280	ltpFR2	17	15	TURTLE	1522	n/a	n/a	0	0	0
3764.288	n/a	WORD	1882144	wordpools/wasnorm_wordpool_576.txt	LTP280	ltpFR2	17	15	POCKET	1093	n/a	n/a	0	0	0
3767.098	n/a	WORD	1883549	wordpools/wasnorm_wordpool_576.txt	LTP280	ltpFR2	17	15	OUTDOORS	987	n/a	n/a	0	0	0
3769.55	n/a	WORD	1884775	wordpools/wasnorm_wordpool_576.txt	LTP280	ltpFR2	17	15	FLOWER	584	n/a	n/a	0	0	0
3772.236	n/a	WORD	1886118	wordpools/wasnorm_wordpool_576.txt	LTP280	ltpFR2	17	15	DENTIST	447	n/a	n/a	0	0	0
3774.686	n/a	WORD	1887343	wordpools/wasnorm_wordpool_576.txt	LTP280	ltpFR2	17	15	SCALPEL	1243	n/a	n/a	0	0	0
3777.314	n/a	WORD	1888657	wordpools/wasnorm_wordpool_576.txt	LTP280	ltpFR2	17	15	FOOTBALL	591	n/a	n/a	0	0	0
3779.74	n/a	WORD	1889870	wordpools/wasnorm_wordpool_576.txt	LTP280	ltpFR2	17	15	HOSTESS	723	n/a	n/a	0	0	0
3782.178	n/a	WORD	1891089	wordpools/wasnorm_wordpool_576.txt	LTP280	ltpFR2	17	15	SERVER	1272	n/a	n/a	0	0	0
3784.796	n/a	WORD	1892398	wordpools/wasnorm_wordpool_576.txt	LTP280	ltpFR2	17	15	TOURIST	1488	n/a	n/a	0	0	0
3787.508	n/a	WORD	1893754	wordpools/wasnorm_wordpool_576.txt	LTP280	ltpFR2	17	15	SUITCASE	1403	n/a	n/a	0	0	0
3789.934	n/a	WORD	1894967	wordpools/wasnorm_wordpool_576.txt	LTP280	ltpFR2	17	15	SNAIL	1332	n/a	n/a	0	0	0
3792.66	n/a	WORD	1896330	wordpools/wasnorm_wordpool_576.txt	LTP280	ltpFR2	17	15	LABEL	790	n/a	n/a	0	0	0
3795.154	n/a	WORD	1897577	wordpools/wasnorm_wordpool_576.txt	LTP280	ltpFR2	17	15	WRENCH	1625	n/a	n/a	0	0	0
3797.598	n/a	WORD	1898799	wordpools/wasnorm_wordpool_576.txt	LTP280	ltpFR2	17	15	PENGUIN	1044	n/a	n/a	0	0	0
3800.344	n/a	WORD	1900172	wordpools/wasnorm_wordpool_576.txt	LTP280	ltpFR2	17	15	BLOCKADE	137	n/a	n/a	0	0	0
3802.952	n/a	WORD	1901476	wordpools/wasnorm_wordpool_576.txt	LTP280	ltpFR2	17	15	MUFFIN	929	n/a	n/a	0	0	0
3805.646	n/a	WORD	1902823	wordpools/wasnorm_wordpool_576.txt	LTP280	ltpFR2	17	15	UMPIRE	1535	n/a	n/a	0	0	0
3808.45	n/a	WORD	1904225	wordpools/wasnorm_wordpool_576.txt	LTP280	ltpFR2	17	15	TROMBONE	1508	n/a	n/a	0	0	0
3810.902	n/a	WORD	1905451	wordpools/wasnorm_wordpool_576.txt	LTP280	ltpFR2	17	15	PASSAGE	1019	n/a	n/a	0	0	0
3813.494	n/a	WORD	1906747	wordpools/wasnorm_wordpool_576.txt	LTP280	ltpFR2	17	15	BLENDER	136	n/a	n/a	0	0	0
3816.224	n/a	WORD	1908112	wordpools/wasnorm_wordpool_576.txt	LTP280	ltpFR2	17	15	HAMPER	682	n/a	n/a	0	0	0
3818.724	n/a	WORD	1909362	wordpools/wasnorm_wordpool_576.txt	LTP280	ltpFR2	17	15	BUREAU	199	n/a	n/a	0	0	0
3821.476	n/a	WORD	1910738	wordpools/wasnorm_wordpool_576.txt	LTP280	ltpFR2	17	15	ROBIN	1199	n/a	n/a	0	0	0
3823.084	n/a	START	1911542	n/a	LTP280	ltpFR2	17	n/a	n/a	n/a	22	n/a	n/a	n/a	n/a
3824.04	n/a	DISTRACTOR	1912020	n/a	LTP280	ltpFR2	17	15	n/a	n/a	n/a	n/a	0	0	0
3824.046	n/a	PROB	1912023	n/a	LTP280	ltpFR2	17	n/a	n/a	n/a	22	16	6	7	3
3825.268	n/a	PROB	1912634	n/a	LTP280	ltpFR2	17	n/a	n/a	n/a	22	12	2	1	9
3826.352	n/a	PROB	1913176	n/a	LTP280	ltpFR2	17	n/a	n/a	n/a	22	21	6	9	6
3827.636	n/a	PROB	1913818	n/a	LTP280	ltpFR2	17	n/a	n/a	n/a	22	10	1	8	1
3828.67	n/a	PROB	1914335	n/a	LTP280	ltpFR2	17	n/a	n/a	n/a	22	15	5	5	5
3829.606	n/a	PROB	1914803	n/a	LTP280	ltpFR2	17	n/a	n/a	n/a	22	9	4	3	2
3831.29	n/a	PROB	1915645	n/a	LTP280	ltpFR2	17	n/a	n/a	n/a	22	21	9	7	5
3832.456	n/a	PROB	1916228	n/a	LTP280	ltpFR2	17	n/a	n/a	n/a	22	20	9	4	7
3834.658	n/a	PROB	1917329	n/a	LTP280	ltpFR2	17	n/a	n/a	n/a	22	14	4	7	3
3836.562	n/a	PROB	1918281	n/a	LTP280	ltpFR2	17	n/a	n/a	n/a	22	14	7	4	3
3837.912	n/a	PROB	1918956	n/a	LTP280	ltpFR2	17	n/a	n/a	n/a	22	11	2	8	1
3839.414	n/a	PROB	1919707	n/a	LTP280	ltpFR2	17	n/a	n/a	n/a	22	14	2	9	3
3840.864	n/a	PROB	1920432	n/a	LTP280	ltpFR2	17	n/a	n/a	n/a	22	16	1	9	6
3841.916	n/a	PROB	1920958	n/a	LTP280	ltpFR2	17	n/a	n/a	n/a	22	10	4	3	3
3843.248	n/a	PROB	1921624	n/a	LTP280	ltpFR2	17	n/a	n/a	n/a	22	16	5	9	2
3844.484	n/a	PROB	1922242	n/a	LTP280	ltpFR2	17	n/a	n/a	n/a	22	10	1	3	6
3845.68	n/a	STOP	1922840	n/a	LTP280	ltpFR2	17	n/a	n/a	n/a	22	n/a	n/a	n/a	n/a
3848.934	n/a	REC_START	1924467	n/a	LTP280	ltpFR2	17	15	n/a	n/a	n/a	n/a	0	0	0
3849.67	n/a	REC_WORD	1924835	wordpools/wasnorm_wordpool_576.txt	LTP280	ltpFR2	17	15	MUFFIN	929	n/a	n/a	0	0	0
3850.258	n/a	REC_WORD	1925129	wordpools/wasnorm_wordpool_576.txt	LTP280	ltpFR2	17	15	TROMBONE	1508	n/a	n/a	0	0	0
3851.292	n/a	REC_WORD	1925646	wordpools/wasnorm_wordpool_576.txt	LTP280	ltpFR2	17	15	TOASTER	1472	n/a	n/a	0	0	0
3857.34	n/a	REC_WORD	1928670	wordpools/wasnorm_wordpool_576.txt	LTP280	ltpFR2	17	15	TURTLE	1522	n/a	n/a	0	0	0
3857.842	n/a	REC_WORD	1928921	wordpools/wasnorm_wordpool_576.txt	LTP280	ltpFR2	17	15	POCKET	1093	n/a	n/a	0	0	0
3858.66	n/a	REC_WORD	1929330	wordpools/wasnorm_wordpool_576.txt	LTP280	ltpFR2	17	15	OUTDOORS	987	n/a	n/a	0	0	0
3860.966	n/a	REC_WORD	1930483	wordpools/wasnorm_wordpool_576.txt	LTP280	ltpFR2	17	15	FLOWER	584	n/a	n/a	0	0	0
3862.612	n/a	REC_WORD	1931306	wordpools/wasnorm_wordpool_576.txt	LTP280	ltpFR2	17	15	DENTIST	447	n/a	n/a	0	0	0
3863.296	n/a	REC_WORD	1931648	wordpools/wasnorm_wordpool_576.txt	LTP280	ltpFR2	17	15	SCALPEL	1243	n/a	n/a	0	0	0
3939.374	n/a	WORD	1969687	wordpools/wasnorm_wordpool_576.txt	LTP280	ltpFR2	17	16	FARMER	553	n/a	n/a	0	0	0
3942.144	n/a	WORD	1971072	wordpools/wasnorm_wordpool_576.txt	LTP280	ltpFR2	17	16	MONEY	908	n/a	n/a	0	0	0
3944.946	n/a	WORD	1972473	wordpools/wasnorm_wordpool_576.txt	LTP280	ltpFR2	17	16	RATTLE	1170	n/a	n/a	0	0	0
3947.382	n/a	WORD	1973691	wordpools/wasnorm_wordpool_576.txt	LTP280	ltpFR2	17	16	LIZARD	834	n/a	n/a	0	0	0
3949.836	n/a	WORD	1974918	wordpools/wasnorm_wordpool_576.txt	LTP280	ltpFR2	17	16	PLATE	1086	n/a	n/a	0	0	0
3952.302	n/a	WORD	1976151	wordpools/wasnorm_wordpool_576.txt	LTP280	ltpFR2	17	16	CABBAGE	210	n/a	n/a	0	0	0
3954.808	n/a	WORD	1977404	wordpools/wasnorm_wordpool_576.txt	LTP280	ltpFR2	17	16	NOMAD	955	n/a	n/a	0	0	0
3957.306	n/a	WORD	1978653	wordpools/wasnorm_wordpool_576.txt	LTP280	ltpFR2	17	16	TRIBE	1505	n/a	n/a	0	0	0
3960.078	n/a	WORD	1980039	wordpools/wasnorm_wordpool_576.txt	LTP280	ltpFR2	17	16	GIFT	635	n/a	n/a	0	0	0
3962.692	n/a	WORD	1981346	wordpools/wasnorm_wordpool_576.txt	LTP280	ltpFR2	17	16	WOMAN	1620	n/a	n/a	0	0	0
3965.346	n/a	WORD	1982673	wordpools/wasnorm_wordpool_576.txt	LTP280	ltpFR2	17	16	PEBBLE	1035	n/a	n/a	0	0	0
3968.096	n/a	WORD	1984048	wordpools/wasnorm_wordpool_576.txt	LTP280	ltpFR2	17	16	QUARTER	1148	n/a	n/a	0	0	0
3970.682	n/a	WORD	1985341	wordpools/wasnorm_wordpool_576.txt	LTP280	ltpFR2	17	16	ROD	1203	n/a	n/a	0	0	0
3973.452	n/a	WORD	1986726	wordpools/wasnorm_wordpool_576.txt	LTP280	ltpFR2	17	16	PORTRAIT	1111	n/a	n/a	0	0	0
3976.238	n/a	WORD	1988119	wordpools/wasnorm_wordpool_576.txt	LTP280	ltpFR2	17	16	LION	827	n/a	n/a	0	0	0
3978.756	n/a	WORD	1989378	wordpools/wasnorm_wordpool_576.txt	LTP280	ltpFR2	17	16	SKIRT	1319	n/a	n/a	0	0	0
3981.292	n/a	WORD	1990646	wordpools/wasnorm_wordpool_576.txt	LTP280	ltpFR2	17	16	HAND	683	n/a	n/a	0	0	0
3984.042	n/a	WORD	1992021	wordpools/wasnorm_wordpool_576.txt	LTP280	ltpFR2	17	16	SCARECROW	1245	n/a	n/a	0	0	0
3986.812	n/a	WORD	1993406	wordpools/wasnorm_wordpool_576.txt	LTP280	ltpFR2	17	16	GARDEN	623	n/a	n/a	0	0	0
3989.264	n/a	WORD	1994632	wordpools/wasnorm_wordpool_576.txt	LTP280	ltpFR2	17	16	CANYON	235	n/a	n/a	0	0	0
3991.682	n/a	WORD	1995841	wordpools/wasnorm_wordpool_576.txt	LTP280	ltpFR2	17	16	POSTAGE	1113	n/a	n/a	0	0	0
3994.202	n/a	WORD	1997101	wordpools/wasnorm_wordpool_576.txt	LTP280	ltpFR2	17	16	WHISKERS	1605	n/a	n/a	0	0	0
3996.626	n/a	WORD	1998313	wordpools/wasnorm_wordpool_576.txt	LTP280	ltpFR2	17	16	TABLE	1426	n/a	n/a	0	0	0
3999.406	n/a	WORD	1999703	wordpools/wasnorm_wordpool_576.txt	LTP280	ltpFR2	17	16	DANDRUFF	439	n/a	n/a	0	0	0
4001.014	n/a	START	2000507	n/a	LTP280	ltpFR2	17	n/a	n/a	n/a	23	n/a	n/a	n/a	n/a
4002.126	n/a	DISTRACTOR	2001063	n/a	LTP280	ltpFR2	17	16	n/a	n/a	n/a	n/a	0	0	0
4002.13	n/a	PROB	2001065	n/a	LTP280	ltpFR2	17	n/a	n/a	n/a	23	11	5	1	5
4003.09	n/a	PROB	2001545	n/a	LTP280	ltpFR2	17	n/a	n/a	n/a	23	15	7	3	5
4004.142	n/a	PROB	2002071	n/a	LTP280	ltpFR2	17	n/a	n/a	n/a	23	13	1	9	3
4005.594	n/a	PROB	2002797	n/a	LTP280	ltpFR2	17	n/a	n/a	n/a	23	17	6	3	8
4008.876	n/a	PROB	2004438	n/a	LTP280	ltpFR2	17	n/a	n/a	n/a	23	16	4	8	4
4010.362	n/a	PROB	2005181	n/a	LTP280	ltpFR2	17	n/a	n/a	n/a	23	13	2	8	3
4011.514	n/a	PROB	2005757	n/a	LTP280	ltpFR2	17	n/a	n/a	n/a	23	15	1	5	9
4012.464	n/a	PROB	2006232	n/a	LTP280	ltpFR2	17	n/a	n/a	n/a	23	15	5	1	9
4013.45	n/a	PROB	2006725	n/a	LTP280	ltpFR2	17	n/a	n/a	n/a	23	19	5	9	5
4015.5	n/a	PROB	2007750	n/a	LTP280	ltpFR2	17	n/a	n/a	n/a	23	20	5	7	8
4016.95	n/a	PROB	2008475	n/a	LTP280	ltpFR2	17	n/a	n/a	n/a	23	19	9	4	6
4018.354	n/a	PROB	2009177	n/a	LTP280	ltpFR2	17	n/a	n/a	n/a	23	12	6	1	5
4019.238	n/a	PROB	2009619	n/a	LTP280	ltpFR2	17	n/a	n/a	n/a	23	20	3	8	9
4021.338	n/a	PROB	2010669	n/a	LTP280	ltpFR2	17	n/a	n/a	n/a	23	20	9	4	7
4022.738	n/a	PROB	2011369	n/a	LTP280	ltpFR2	17	n/a	n/a	n/a	23	18	8	5	5
4023.932	n/a	STOP	2011966	n/a	LTP280	ltpFR2	17	n/a	n/a	n/a	23	n/a	n/a	n/a	n/a
4026.926	n/a	REC_START	2013463	n/a	LTP280	ltpFR2	17	16	n/a	n/a	n/a	n/a	0	0	0
4027.7	n/a	REC_WORD	2013850	wordpools/wasnorm_wordpool_576.txt	LTP280	ltpFR2	17	16	SKIRT	1319	n/a	n/a	0	0	0
4028.408	n/a	REC_WORD	2014204	wordpools/wasnorm_wordpool_576.txt	LTP280	ltpFR2	17	16	GARDEN	623	n/a	n/a	0	0	0
4029.736	n/a	REC_WORD	2014868	wordpools/wasnorm_wordpool_576.txt	LTP280	ltpFR2	17	16	SCARECROW	1245	n/a	n/a	0	0	0
4077.472	n/a	REC_WORD	2038736	wordpools/wasnorm_wordpool_576.txt	LTP280	ltpFR2	17	16	ROD	1203	n/a	n/a	0	0	0
4103.454	n/a	REST_REWET	2051727	n/a	LTP280	ltpFR2	17	16	n/a	n/a	n/a	n/a	0	0	0
4373.728	n/a	DISTRACTOR	2186864	n/a	LTP280	ltpFR2	17	17	n/a	n/a	n/a	n/a	0	0	0
4373.728	n/a	START	2186864	n/a	LTP280	ltpFR2	17	n/a	n/a	n/a	24	n/a	n/a	n/a	n/a
4373.746	n/a	PROB	2186873	n/a	LTP280	ltpFR2	17	n/a	n/a	n/a	24	13	4	6	3
4374.78	n/a	PROB	2187390	n/a	LTP280	ltpFR2	17	n/a	n/a	n/a	24	21	5	9	7
4376.448	n/a	PROB	2188224	n/a	LTP280	ltpFR2	17	n/a	n/a	n/a	24	16	5	9	2
4378.534	n/a	PROB	2189267	n/a	LTP280	ltpFR2	17	n/a	n/a	n/a	24	16	7	3	6
4379.502	n/a	PROB	2189751	n/a	LTP280	ltpFR2	17	n/a	n/a	n/a	24	7	1	1	5
4380.452	n/a	PROB	2190226	n/a	LTP280	ltpFR2	17	n/a	n/a	n/a	24	17	8	1	8
4381.87	n/a	PROB	2190935	n/a	LTP280	ltpFR2	17	n/a	n/a	n/a	24	11	1	2	8
4382.952	n/a	PROB	2191476	n/a	LTP280	ltpFR2	17	n/a	n/a	n/a	24	25	7	9	9
4385.156	n/a	PROB	2192578	n/a	LTP280	ltpFR2	17	n/a	n/a	n/a	24	26	8	9	9
4386.606	n/a	PROB	2193303	n/a	LTP280	ltpFR2	17	n/a	n/a	n/a	24	14	6	5	3
4387.79	n/a	PROB	2193895	n/a	LTP280	ltpFR2	17	n/a	n/a	n/a	24	12	3	2	7
4389.074	n/a	PROB	2194537	n/a	LTP280	ltpFR2	17	n/a	n/a	n/a	24	20	9	8	3
4390.476	n/a	PROB	2195238	n/a	LTP280	ltpFR2	17	n/a	n/a	n/a	24	16	5	6	5
4391.526	n/a	PROB	2195763	n/a	LTP280	ltpFR2	17	n/a	n/a	n/a	24	13	8	3	2
4392.644	n/a	PROB	2196322	n/a	LTP280	ltpFR2	17	n/a	n/a	n/a	24	12	1	4	7
4393.728	n/a	PROB	2196864	n/a	LTP280	ltpFR2	17	n/a	n/a	n/a	24	9	7	1	1
4394.662	n/a	PROB	2197331	n/a	LTP280	ltpFR2	17	n/a	n/a	n/a	24	8	2	3	3
4395.762	n/a	PROB	2197881	n/a	LTP280	ltpFR2	17	n/a	n/a	n/a	24	18	5	7	6
4397.01	n/a	STOP	2198505	n/a	LTP280	ltpFR2	17	n/a	n/a	n/a	24	n/a	n/a	n/a	n/a
4398.932	n/a	WORD	2199466	wordpools/wasnorm_wordpool_576.txt	LTP280	ltpFR2	17	17	BRICK	172	n/a	n/a	0	0	0
4401.652	n/a	WORD	2200826	wordpools/wasnorm_wordpool_576.txt	LTP280	ltpFR2	17	17	CLOUD	328	n/a	n/a	0	0	0
4404.154	n/a	WORD	2202077	wordpools/wasnorm_wordpool_576.txt	LTP280	ltpFR2	17	17	CUSTARD	429	n/a	n/a	0	0	0
4406.706	n/a	WORD	2203353	wordpools/wasnorm_wordpool_576.txt	LTP280	ltpFR2	17	17	JELLO	754	n/a	n/a	0	0	0
4409.358	n/a	WORD	2204679	wordpools/wasnorm_wordpool_576.txt	LTP280	ltpFR2	17	17	MARROW	872	n/a	n/a	0	0	0
4411.844	n/a	WORD	2205922	wordpools/wasnorm_wordpool_576.txt	LTP280	ltpFR2	17	17	PLAZA	1088	n/a	n/a	0	0	0
4414.412	n/a	WORD	2207206	wordpools/wasnorm_wordpool_576.txt	LTP280	ltpFR2	17	17	FUNGUS	614	n/a	n/a	0	0	0
4416.93	n/a	WORD	2208465	wordpools/wasnorm_wordpool_576.txt	LTP280	ltpFR2	17	17	BUBBLE	183	n/a	n/a	0	0	0
4419.45	n/a	WORD	2209725	wordpools/wasnorm_wordpool_576.txt	LTP280	ltpFR2	17	17	MARKET	871	n/a	n/a	0	0	0
4422.084	n/a	WORD	2211042	wordpools/wasnorm_wordpool_576.txt	LTP280	ltpFR2	17	17	VIRUS	1572	n/a	n/a	0	0	0
4424.688	n/a	WORD	2212344	wordpools/wasnorm_wordpool_576.txt	LTP280	ltpFR2	17	17	HIGHWAY	707	n/a	n/a	0	0	0
4427.292	n/a	WORD	2213646	wordpools/wasnorm_wordpool_576.txt	LTP280	ltpFR2	17	17	FRIAR	605	n/a	n/a	0	0	0
4429.728	n/a	WORD	2214864	wordpools/wasnorm_wordpool_576.txt	LTP280	ltpFR2	17	17	COUNTY	389	n/a	n/a	0	0	0
4432.346	n/a	WORD	2216173	wordpools/wasnorm_wordpool_576.txt	LTP280	ltpFR2	17	17	HOOK	715	n/a	n/a	0	0	0
4434.778	n/a	WORD	2217389	wordpools/wasnorm_wordpool_576.txt	LTP280	ltpFR2	17	17	FRIEND	606	n/a	n/a	0	0	0
4437.33	n/a	WORD	2218665	wordpools/wasnorm_wordpool_576.txt	LTP280	ltpFR2	17	17	BOYFRIEND	162	n/a	n/a	0	0	0
4439.832	n/a	WORD	2219916	wordpools/wasnorm_wordpool_576.txt	LTP280	ltpFR2	17	17	SHOULDER	1294	n/a	n/a	0	0	0
4442.634	n/a	WORD	2221317	wordpools/wasnorm_wordpool_576.txt	LTP280	ltpFR2	17	17	PADDLE	1000	n/a	n/a	0	0	0
4445.274	n/a	WORD	2222637	wordpools/wasnorm_wordpool_576.txt	LTP280	ltpFR2	17	17	AWARD	63	n/a	n/a	0	0	0
4447.724	n/a	WORD	2223862	wordpools/wasnorm_wordpool_576.txt	LTP280	ltpFR2	17	17	BATHTUB	100	n/a	n/a	0	0	0
4450.424	n/a	WORD	2225212	wordpools/wasnorm_wordpool_576.txt	LTP280	ltpFR2	17	17	PATIENT	1024	n/a	n/a	0	0	0
4453.23	n/a	WORD	2226615	wordpools/wasnorm_wordpool_576.txt	LTP280	ltpFR2	17	17	FLAG	573	n/a	n/a	0	0	0
4455.966	n/a	WORD	2227983	wordpools/wasnorm_wordpool_576.txt	LTP280	ltpFR2	17	17	CHEST	295	n/a	n/a	0	0	0
4458.63	n/a	WORD	2229315	wordpools/wasnorm_wordpool_576.txt	LTP280	ltpFR2	17	17	BACKBONE	66	n/a	n/a	0	0	0
4460.238	n/a	START	2230119	n/a	LTP280	ltpFR2	17	n/a	n/a	n/a	25	n/a	n/a	n/a	n/a
4461.36	n/a	DISTRACTOR	2230680	n/a	LTP280	ltpFR2	17	17	n/a	n/a	n/a	n/a	0	0	0
4461.366	n/a	PROB	2230683	n/a	LTP280	ltpFR2	17	n/a	n/a	n/a	25	18	9	6	3
4462.766	n/a	PROB	2231383	n/a	LTP280	ltpFR2	17	n/a	n/a	n/a	25	19	9	1	9
4463.9	n/a	PROB	2231950	n/a	LTP280	ltpFR2	17	n/a	n/a	n/a	25	19	8	4	7
4465.15	n/a	PROB	2232575	n/a	LTP280	ltpFR2	17	n/a	n/a	n/a	25	20	9	7	4
4467.002	n/a	PROB	2233501	n/a	LTP280	ltpFR2	17	n/a	n/a	n/a	25	16	4	8	4
4468.654	n/a	PROB	2234327	n/a	LTP280	ltpFR2	17	n/a	n/a	n/a	25	17	3	5	9
4471.022	n/a	PROB	2235511	n/a	LTP280	ltpFR2	17	n/a	n/a	n/a	25	26	8	9	9
4472.558	n/a	PROB	2236279	n/a	LTP280	ltpFR2	17	n/a	n/a	n/a	25	19	6	4	9
4473.708	n/a	PROB	2236854	n/a	LTP280	ltpFR2	17	n/a	n/a	n/a	25	20	6	7	7
4476.262	n/a	PROB	2238131	n/a	LTP280	ltpFR2	17	n/a	n/a	n/a	25	20	7	8	5
4477.844	n/a	PROB	2238922	n/a	LTP280	ltpFR2	17	n/a	n/a	n/a	25	14	5	1	8
4478.844	n/a	PROB	2239422	n/a	LTP280	ltpFR2	17	n/a	n/a	n/a	25	13	2	8	3
4479.912	n/a	PROB	2239956	n/a	LTP280	ltpFR2	17	n/a	n/a	n/a	25	15	2	8	5
4481.43	n/a	PROB	2240715	n/a	LTP280	ltpFR2	17	n/a	n/a	n/a	25	6	2	1	3
4482.514	n/a	PROB	2241257	n/a	LTP280	ltpFR2	17	n/a	n/a	n/a	25	19	6	5	7
4483.644	n/a	STOP	2241822	n/a	LTP280	ltpFR2	17	n/a	n/a	n/a	25	n/a	n/a	n/a	n/a
4486.052	n/a	REC_START	2243026	n/a	LTP280	ltpFR2	17	17	n/a	n/a	n/a	n/a	0	0	0
4486.286	n/a	REC_WORD	2243143	wordpools/wasnorm_wordpool_576.txt	LTP280	ltpFR2	17	17	COUNTY	389	n/a	n/a	0	0	0
4486.878	n/a	REC_WORD	2243439	wordpools/wasnorm_wordpool_576.txt	LTP280	ltpFR2	17	17	HOOK	715	n/a	n/a	0	0	0
4487.614	n/a	REC_WORD	2243807	wordpools/wasnorm_wordpool_576.txt	LTP280	ltpFR2	17	17	FRIEND	606	n/a	n/a	0	0	0
4488.396	n/a	REC_WORD	2244198	wordpools/wasnorm_wordpool_576.txt	LTP280	ltpFR2	17	17	BOYFRIEND	162	n/a	n/a	0	0	0
4490.044	n/a	REC_WORD_VV	2245022	wordpools/wasnorm_wordpool_576.txt	LTP280	ltpFR2	17	17	<>	-1	n/a	n/a	0	0	0
4490.484	n/a	REC_WORD	2245242	wordpools/wasnorm_wordpool_576.txt	LTP280	ltpFR2	17	17	BRICK	172	n/a	n/a	0	0	0
4490.88	n/a	REC_WORD	2245440	wordpools/wasnorm_wordpool_576.txt	LTP280	ltpFR2	17	17	CLOUD	328	n/a	n/a	0	0	0
4491.934	n/a	REC_WORD	2245967	wordpools/wasnorm_wordpool_576.txt	LTP280	ltpFR2	17	17	CUSTARD	429	n/a	n/a	0	0	0
4493.112	n/a	REC_WORD	2246556	wordpools/wasnorm_wordpool_576.txt	LTP280	ltpFR2	17	17	JELLO	754	n/a	n/a	0	0	0
4493.788	n/a	REC_WORD	2246894	wordpools/wasnorm_wordpool_576.txt	LTP280	ltpFR2	17	17	MARROW	872	n/a	n/a	0	0	0
4495.702	n/a	REC_WORD	2247851	wordpools/wasnorm_wordpool_576.txt	LTP280	ltpFR2	17	17	BUBBLE	183	n/a	n/a	0	0	0
4506.454	n/a	REC_WORD	2253227	wordpools/wasnorm_wordpool_576.txt	LTP280	ltpFR2	17	17	PATIENT	1024	n/a	n/a	0	0	0
4507.142	n/a	REC_WORD	2253571	wordpools/wasnorm_wordpool_576.txt	LTP280	ltpFR2	17	17	FLAG	573	n/a	n/a	0	0	0
4509.758	n/a	REC_WORD	2254879	wordpools/wasnorm_wordpool_576.txt	LTP280	ltpFR2	17	17	BACKBONE	66	n/a	n/a	0	0	0
4576.47	n/a	DISTRACTOR	2288235	n/a	LTP280	ltpFR2	17	18	n/a	n/a	n/a	n/a	0	0	0
4576.47	n/a	START	2288235	n/a	LTP280	ltpFR2	17	n/a	n/a	n/a	26	n/a	n/a	n/a	n/a
4576.486	n/a	PROB	2288243	n/a	LTP280	ltpFR2	17	n/a	n/a	n/a	26	18	5	7	6
4577.868	n/a	PROB	2288934	n/a	LTP280	ltpFR2	17	n/a	n/a	n/a	26	10	2	1	7
4578.874	n/a	PROB	2289437	n/a	LTP280	ltpFR2	17	n/a	n/a	n/a	26	15	5	1	9
4579.852	n/a	PROB	2289926	n/a	LTP280	ltpFR2	17	n/a	n/a	n/a	26	9	1	2	6
4581.104	n/a	PROB	2290552	n/a	LTP280	ltpFR2	17	n/a	n/a	n/a	26	12	4	4	4
4582.006	n/a	PROB	2291003	n/a	LTP280	ltpFR2	17	n/a	n/a	n/a	26	16	7	1	8
4583.006	n/a	PROB	2291503	n/a	LTP280	ltpFR2	17	n/a	n/a	n/a	26	11	1	3	7
4583.856	n/a	PROB	2291928	n/a	LTP280	ltpFR2	17	n/a	n/a	n/a	26	18	2	8	8
