onset	duration	trial_type	sample	stim_file	subject	experiment	session	trial	task	item_name	item_num	recog_conf	resp	color_b	color_g	color_r	case	font
284.978	n/a	SESS_START	142489	n/a	LTP180	ltpFR	5	n/a	n/a	n/a	n/a	3	n/a	n/a	n/a	n/a	n/a	n/a
439.074	n/a	WORD	219537	wordpools/wasnorm_wordpool_less_exclusions.txt	LTP180	ltpFR	5	1	0	MARINE	869	5	0	0	0.5869140625	0.422607421875	upper	../fonts/zerothre.ttf
443.254	n/a	WORD	221627	wordpools/wasnorm_wordpool_less_exclusions.txt	LTP180	ltpFR	5	1	0	BATHROOM	99	n/a	0	0	0.5869140625	0.422607421875	upper	../fonts/zerothre.ttf
447.37	n/a	WORD	223685	wordpools/wasnorm_wordpool_less_exclusions.txt	LTP180	ltpFR	5	1	0	PLUMBER	1091	n/a	0	0	0.5869140625	0.422607421875	upper	../fonts/zerothre.ttf
451.468	n/a	WORD	225734	wordpools/wasnorm_wordpool_less_exclusions.txt	LTP180	ltpFR	5	1	0	CHILD	299	n/a	0	0	0.5869140625	0.422607421875	upper	../fonts/zerothre.ttf
455.5	n/a	WORD	227750	wordpools/wasnorm_wordpool_less_exclusions.txt	LTP180	ltpFR	5	1	0	MAGICIAN	854	n/a	0	0	0.5869140625	0.422607421875	upper	../fonts/zerothre.ttf
459.516	n/a	WORD	229758	wordpools/wasnorm_wordpool_less_exclusions.txt	LTP180	ltpFR	5	1	1	SIGNATURE	1306	n/a	1	1	0.412841796875	0.57763671875	lower	../fonts/amplitud.ttf
463.582	n/a	WORD	231791	wordpools/wasnorm_wordpool_less_exclusions.txt	LTP180	ltpFR	5	1	1	GENERAL	630	n/a	1	1	0.412841796875	0.57763671875	lower	../fonts/amplitud.ttf
467.434	n/a	WORD	233717	wordpools/wasnorm_wordpool_less_exclusions.txt	LTP180	ltpFR	5	1	1	MEAL	882	n/a	1	1	0.412841796875	0.57763671875	lower	../fonts/amplitud.ttf
471.428	n/a	WORD	235714	wordpools/wasnorm_wordpool_less_exclusions.txt	LTP180	ltpFR	5	1	0	LAWYER	806	n/a	0	0	0.5869140625	0.422607421875	upper	../fonts/zerothre.ttf
475.444	n/a	WORD	237722	wordpools/wasnorm_wordpool_less_exclusions.txt	LTP180	ltpFR	5	1	0	CORPORATION	382	n/a	1	0	0.5869140625	0.422607421875	upper	../fonts/zerothre.ttf
479.476	n/a	WORD	239738	wordpools/wasnorm_wordpool_less_exclusions.txt	LTP180	ltpFR	5	1	0	SCROLL	1257	n/a	0	0	0.5869140625	0.422607421875	upper	../fonts/zerothre.ttf
483.524	n/a	WORD	241762	wordpools/wasnorm_wordpool_less_exclusions.txt	LTP180	ltpFR	5	1	1	PLATE	1086	n/a	0	1	0.412841796875	0.57763671875	lower	../fonts/amplitud.ttf
487.422	n/a	WORD	243711	wordpools/wasnorm_wordpool_less_exclusions.txt	LTP180	ltpFR	5	1	1	PERCH	1048	n/a	0	1	0.412841796875	0.57763671875	lower	../fonts/amplitud.ttf
491.588	n/a	WORD	245794	wordpools/wasnorm_wordpool_less_exclusions.txt	LTP180	ltpFR	5	1	1	MARKER	870	n/a	0	1	0.412841796875	0.57763671875	lower	../fonts/amplitud.ttf
495.454	n/a	WORD	247727	wordpools/wasnorm_wordpool_less_exclusions.txt	LTP180	ltpFR	5	1	1	GOVERNOR	651	n/a	1	1	0.412841796875	0.57763671875	lower	../fonts/amplitud.ttf
499.404	n/a	WORD	249702	wordpools/wasnorm_wordpool_less_exclusions.txt	LTP180	ltpFR	5	1	1	COUNTY	389	n/a	0	1	0.412841796875	0.57763671875	lower	../fonts/amplitud.ttf
505.308	n/a	REC_START	252654	n/a	LTP180	ltpFR	5	1	n/a	n/a	n/a	n/a	n/a	n/a	n/a	n/a	n/a	n/a
506.026	n/a	REC_WORD	253013	wordpools/wasnorm_wordpool_less_exclusions.txt	LTP180	ltpFR	5	1	0	MARINE	869	n/a	0	n/a	n/a	n/a	n/a	n/a
506.93	n/a	REC_WORD_VV	253465	wordpools/wasnorm_wordpool_less_exclusions.txt	LTP180	ltpFR	5	1	n/a	<>	-1	n/a	n/a	n/a	n/a	n/a	n/a	n/a
507.224	n/a	REC_WORD	253612	wordpools/wasnorm_wordpool_less_exclusions.txt	LTP180	ltpFR	5	1	0	PLUMBER	1091	n/a	0	n/a	n/a	n/a	n/a	n/a
508.286	n/a	REC_WORD	254143	wordpools/wasnorm_wordpool_less_exclusions.txt	LTP180	ltpFR	5	1	1	COUNTY	389	n/a	0	n/a	n/a	n/a	n/a	n/a
510.472	n/a	REC_WORD	255236	wordpools/wasnorm_wordpool_less_exclusions.txt	LTP180	ltpFR	5	1	0	CHILD	299	n/a	0	n/a	n/a	n/a	n/a	n/a
513.804	n/a	REC_WORD	256902	wordpools/wasnorm_wordpool_less_exclusions.txt	LTP180	ltpFR	5	1	0	SCROLL	1257	n/a	0	n/a	n/a	n/a	n/a	n/a
516.808	n/a	REC_WORD	258404	wordpools/wasnorm_wordpool_less_exclusions.txt	LTP180	ltpFR	5	1	1	GOVERNOR	651	n/a	1	n/a	n/a	n/a	n/a	n/a
584.694	n/a	WORD	292347	wordpools/wasnorm_wordpool_less_exclusions.txt	LTP180	ltpFR	5	2	1	WORLD	1622	n/a	n/a	1	0.412841796875	0.57763671875	lower	../fonts/amplitud.ttf
587.728	n/a	SLOW_MSG	293864	n/a	LTP180	ltpFR	5	2	n/a	n/a	n/a	n/a	n/a	n/a	n/a	n/a	n/a	n/a
590.3	n/a	WORD	295150	wordpools/wasnorm_wordpool_less_exclusions.txt	LTP180	ltpFR	5	2	1	AFRICA	9	n/a	1	1	0.412841796875	0.57763671875	lower	../fonts/amplitud.ttf
594.154	n/a	WORD	297077	wordpools/wasnorm_wordpool_less_exclusions.txt	LTP180	ltpFR	5	2	0	IRON	744	n/a	2	0	0.5869140625	0.422607421875	upper	../fonts/zerothre.ttf
596.172	n/a	KEY_MSG	298086	n/a	LTP180	ltpFR	5	2	n/a	n/a	n/a	n/a	n/a	n/a	n/a	n/a	n/a	n/a
598.548	n/a	WORD	299274	wordpools/wasnorm_wordpool_less_exclusions.txt	LTP180	ltpFR	5	2	0	TRUCK	1512	n/a	1	0	0.5869140625	0.422607421875	upper	../fonts/zerothre.ttf
602.378	n/a	WORD	301189	wordpools/wasnorm_wordpool_less_exclusions.txt	LTP180	ltpFR	5	2	0	DETECTIVE	454	n/a	1	0	0.5869140625	0.422607421875	upper	../fonts/zerothre.ttf
606.48	n/a	WORD	303240	wordpools/wasnorm_wordpool_less_exclusions.txt	LTP180	ltpFR	5	2	0	SEAL	1262	n/a	0	0	0.5869140625	0.422607421875	upper	../fonts/zerothre.ttf
610.56	n/a	WORD	305280	wordpools/wasnorm_wordpool_less_exclusions.txt	LTP180	ltpFR	5	2	1	ANKLE	24	n/a	1	1	0.412841796875	0.57763671875	lower	../fonts/amplitud.ttf
614.442	n/a	WORD	307221	wordpools/wasnorm_wordpool_less_exclusions.txt	LTP180	ltpFR	5	2	1	SOCK	1339	n/a	0	1	0.412841796875	0.57763671875	lower	../fonts/amplitud.ttf
618.406	n/a	WORD	309203	wordpools/wasnorm_wordpool_less_exclusions.txt	LTP180	ltpFR	5	2	1	MAT	877	n/a	0	1	0.412841796875	0.57763671875	lower	../fonts/amplitud.ttf
622.304	n/a	WORD	311152	wordpools/wasnorm_wordpool_less_exclusions.txt	LTP180	ltpFR	5	2	1	LIMB	822	n/a	1	1	0.412841796875	0.57763671875	lower	../fonts/amplitud.ttf
626.254	n/a	WORD	313127	wordpools/wasnorm_wordpool_less_exclusions.txt	LTP180	ltpFR	5	2	0	COP	376	n/a	0	0	0.5869140625	0.422607421875	upper	../fonts/zerothre.ttf
630.168	n/a	WORD	315084	wordpools/wasnorm_wordpool_less_exclusions.txt	LTP180	ltpFR	5	2	0	HONEY	713	n/a	0	0	0.5869140625	0.422607421875	upper	../fonts/zerothre.ttf
634.334	n/a	WORD	317167	wordpools/wasnorm_wordpool_less_exclusions.txt	LTP180	ltpFR	5	2	0	WATERFALL	1595	n/a	0	0	0.5869140625	0.422607421875	upper	../fonts/zerothre.ttf
638.2	n/a	WORD	319100	wordpools/wasnorm_wordpool_less_exclusions.txt	LTP180	ltpFR	5	2	0	HOOD	714	n/a	0	0	0.5869140625	0.422607421875	upper	../fonts/zerothre.ttf
642.148	n/a	WORD	321074	wordpools/wasnorm_wordpool_less_exclusions.txt	LTP180	ltpFR	5	2	1	CONTRACTOR	369	n/a	n/a	1	0.412841796875	0.57763671875	lower	../fonts/amplitud.ttf
645.178	n/a	SLOW_MSG	322589	n/a	LTP180	ltpFR	5	2	n/a	n/a	n/a	n/a	n/a	n/a	n/a	n/a	n/a	n/a
647.568	n/a	WORD	323784	wordpools/wasnorm_wordpool_less_exclusions.txt	LTP180	ltpFR	5	2	1	SKYSCRAPER	1322	n/a	0	1	0.412841796875	0.57763671875	lower	../fonts/amplitud.ttf
653.476	n/a	REC_START	326738	n/a	LTP180	ltpFR	5	2	n/a	n/a	n/a	n/a	n/a	n/a	n/a	n/a	n/a	n/a
654.054	n/a	REC_WORD_VV	327027	wordpools/wasnorm_wordpool_less_exclusions.txt	LTP180	ltpFR	5	2	n/a	<>	-1	n/a	n/a	n/a	n/a	n/a	n/a	n/a
654.204	n/a	REC_WORD	327102	wordpools/wasnorm_wordpool_less_exclusions.txt	LTP180	ltpFR	5	2	1	SKYSCRAPER	1322	n/a	0	n/a	n/a	n/a	n/a	n/a
655.204	n/a	REC_WORD_VV	327602	wordpools/wasnorm_wordpool_less_exclusions.txt	LTP180	ltpFR	5	2	n/a	<>	-1	n/a	n/a	n/a	n/a	n/a	n/a	n/a
659.252	n/a	REC_WORD	329626	wordpools/wasnorm_wordpool_less_exclusions.txt	LTP180	ltpFR	5	2	0	WATERFALL	1595	n/a	0	n/a	n/a	n/a	n/a	n/a
666.778	n/a	REC_WORD_VV	333389	wordpools/wasnorm_wordpool_less_exclusions.txt	LTP180	ltpFR	5	2	n/a	<>	-1	n/a	n/a	n/a	n/a	n/a	n/a	n/a
667.778	n/a	REC_WORD_VV	333889	wordpools/wasnorm_wordpool_less_exclusions.txt	LTP180	ltpFR	5	2	n/a	<>	-1	n/a	n/a	n/a	n/a	n/a	n/a	n/a
681.662	n/a	REC_WORD_VV	340831	wordpools/wasnorm_wordpool_less_exclusions.txt	LTP180	ltpFR	5	2	n/a	<>	-1	n/a	n/a	n/a	n/a	n/a	n/a	n/a
682.662	n/a	REC_WORD_VV	341331	wordpools/wasnorm_wordpool_less_exclusions.txt	LTP180	ltpFR	5	2	n/a	<>	-1	n/a	n/a	n/a	n/a	n/a	n/a	n/a
683.204	n/a	REC_WORD	341602	wordpools/wasnorm_wordpool_less_exclusions.txt	LTP180	ltpFR	5	2	1	AFRICA	9	n/a	1	n/a	n/a	n/a	n/a	n/a
684.186	n/a	REC_WORD	342093	wordpools/wasnorm_wordpool_less_exclusions.txt	LTP180	ltpFR	5	2	n/a	CONTINENT	367	n/a	n/a	n/a	n/a	n/a	n/a	n/a
687.11	n/a	REC_WORD	343555	wordpools/wasnorm_wordpool_less_exclusions.txt	LTP180	ltpFR	5	2	1	WORLD	1622	n/a	n/a	n/a	n/a	n/a	n/a	n/a
718.976	n/a	REC_WORD_VV	359488	wordpools/wasnorm_wordpool_less_exclusions.txt	LTP180	ltpFR	5	2	n/a	<>	-1	n/a	n/a	n/a	n/a	n/a	n/a	n/a
719.976	n/a	REC_WORD_VV	359988	wordpools/wasnorm_wordpool_less_exclusions.txt	LTP180	ltpFR	5	2	n/a	<>	-1	n/a	n/a	n/a	n/a	n/a	n/a	n/a
732.728	n/a	WORD	366364	wordpools/wasnorm_wordpool_less_exclusions.txt	LTP180	ltpFR	5	3	0	WHEAT	1602	n/a	n/a	0	0.5869140625	0.422607421875	upper	../fonts/zerothre.ttf
735.758	n/a	SLOW_MSG	367879	n/a	LTP180	ltpFR	5	3	n/a	n/a	n/a	n/a	n/a	n/a	n/a	n/a	n/a	n/a
738.114	n/a	WORD	369057	wordpools/wasnorm_wordpool_less_exclusions.txt	LTP180	ltpFR	5	3	0	CRICKET	408	n/a	0	0	0.5869140625	0.422607421875	upper	../fonts/zerothre.ttf
742.028	n/a	WORD	371014	wordpools/wasnorm_wordpool_less_exclusions.txt	LTP180	ltpFR	5	3	0	RODENT	1204	n/a	0	0	0.5869140625	0.422607421875	upper	../fonts/zerothre.ttf
746.246	n/a	WORD	373123	wordpools/wasnorm_wordpool_less_exclusions.txt	LTP180	ltpFR	5	3	0	SNORKEL	1336	n/a	0	0	0.5869140625	0.422607421875	upper	../fonts/zerothre.ttf
750.26	n/a	WORD	375130	wordpools/wasnorm_wordpool_less_exclusions.txt	LTP180	ltpFR	5	3	0	SKATE	1313	n/a	0	0	0.5869140625	0.422607421875	upper	../fonts/zerothre.ttf
754.326	n/a	WORD	377163	wordpools/wasnorm_wordpool_less_exclusions.txt	LTP180	ltpFR	5	3	0	BLACKBOARD	133	n/a	0	0	0.5869140625	0.422607421875	upper	../fonts/zerothre.ttf
758.358	n/a	WORD	379179	wordpools/wasnorm_wordpool_less_exclusions.txt	LTP180	ltpFR	5	3	0	SAXOPHONE	1240	n/a	1	0	0.5869140625	0.422607421875	upper	../fonts/zerothre.ttf
762.226	n/a	WORD	381113	wordpools/wasnorm_wordpool_less_exclusions.txt	LTP180	ltpFR	5	3	0	BUGLE	189	n/a	1	0	0.5869140625	0.422607421875	upper	../fonts/zerothre.ttf
766.406	n/a	WORD	383203	wordpools/wasnorm_wordpool_less_exclusions.txt	LTP180	ltpFR	5	3	0	MEADOW	881	n/a	1	0	0.5869140625	0.422607421875	upper	../fonts/zerothre.ttf
770.542	n/a	WORD	385271	wordpools/wasnorm_wordpool_less_exclusions.txt	LTP180	ltpFR	5	3	0	COD	340	n/a	1	0	0.5869140625	0.422607421875	upper	../fonts/zerothre.ttf
774.57	n/a	WORD	387285	wordpools/wasnorm_wordpool_less_exclusions.txt	LTP180	ltpFR	5	3	0	CUFF	423	n/a	1	0	0.5869140625	0.422607421875	upper	../fonts/zerothre.ttf
778.468	n/a	WORD	389234	wordpools/wasnorm_wordpool_less_exclusions.txt	LTP180	ltpFR	5	3	0	KNOB	787	n/a	n/a	0	0.5869140625	0.422607421875	upper	../fonts/zerothre.ttf
781.496	n/a	SLOW_MSG	390748	n/a	LTP180	ltpFR	5	3	n/a	n/a	n/a	n/a	n/a	n/a	n/a	n/a	n/a	n/a
783.838	n/a	WORD	391919	wordpools/wasnorm_wordpool_less_exclusions.txt	LTP180	ltpFR	5	3	0	BOARD	143	n/a	0	0	0.5869140625	0.422607421875	upper	../fonts/zerothre.ttf
787.872	n/a	WORD	393936	wordpools/wasnorm_wordpool_less_exclusions.txt	LTP180	ltpFR	5	3	0	PHOTO	1055	n/a	0	0	0.5869140625	0.422607421875	upper	../fonts/zerothre.ttf
792.002	n/a	WORD	396001	wordpools/wasnorm_wordpool_less_exclusions.txt	LTP180	ltpFR	5	3	0	ALBUM	14	n/a	0	0	0.5869140625	0.422607421875	upper	../fonts/zerothre.ttf
795.938	n/a	WORD	397969	wordpools/wasnorm_wordpool_less_exclusions.txt	LTP180	ltpFR	5	3	0	SCARECROW	1245	n/a	0	0	0.5869140625	0.422607421875	upper	../fonts/zerothre.ttf
801.69	n/a	REC_START	400845	n/a	LTP180	ltpFR	5	3	n/a	n/a	n/a	n/a	n/a	n/a	n/a	n/a	n/a	n/a
802.504	n/a	REC_WORD_VV	401252	wordpools/wasnorm_wordpool_less_exclusions.txt	LTP180	ltpFR	5	3	n/a	<>	-1	n/a	n/a	n/a	n/a	n/a	n/a	n/a
803.492	n/a	REC_WORD	401746	wordpools/wasnorm_wordpool_less_exclusions.txt	LTP180	ltpFR	5	3	0	ALBUM	14	n/a	0	n/a	n/a	n/a	n/a	n/a
804.08	n/a	REC_WORD	402040	wordpools/wasnorm_wordpool_less_exclusions.txt	LTP180	ltpFR	5	3	0	SCARECROW	1245	n/a	0	n/a	n/a	n/a	n/a	n/a
805.508	n/a	REC_WORD	402754	wordpools/wasnorm_wordpool_less_exclusions.txt	LTP180	ltpFR	5	3	n/a	PICTURE	1061	n/a	n/a	n/a	n/a	n/a	n/a	n/a
807.728	n/a	REC_WORD	403864	wordpools/wasnorm_wordpool_less_exclusions.txt	LTP180	ltpFR	5	3	0	RODENT	1204	n/a	0	n/a	n/a	n/a	n/a	n/a
808.6	n/a	REC_WORD	404300	wordpools/wasnorm_wordpool_less_exclusions.txt	LTP180	ltpFR	5	3	0	SCARECROW	1245	n/a	0	n/a	n/a	n/a	n/a	n/a
813.594	n/a	REC_WORD	406797	wordpools/wasnorm_wordpool_less_exclusions.txt	LTP180	ltpFR	5	3	0	WHEAT	1602	n/a	n/a	n/a	n/a	n/a	n/a	n/a
819.042	n/a	REC_WORD	409521	wordpools/wasnorm_wordpool_less_exclusions.txt	LTP180	ltpFR	5	3	0	KNOB	787	n/a	n/a	n/a	n/a	n/a	n/a	n/a
821.162	n/a	REC_WORD	410581	wordpools/wasnorm_wordpool_less_exclusions.txt	LTP180	ltpFR	5	3	0	CUFF	423	n/a	1	n/a	n/a	n/a	n/a	n/a
826.306	n/a	REC_WORD_VV	413153	wordpools/wasnorm_wordpool_less_exclusions.txt	LTP180	ltpFR	5	3	n/a	<>	-1	n/a	n/a	n/a	n/a	n/a	n/a	n/a
826.75	n/a	REC_WORD	413375	wordpools/wasnorm_wordpool_less_exclusions.txt	LTP180	ltpFR	5	3	1	ANKLE	24	n/a	1	n/a	n/a	n/a	n/a	n/a
840.44	n/a	REC_WORD	420220	wordpools/wasnorm_wordpool_less_exclusions.txt	LTP180	ltpFR	5	3	1	LIMB	822	n/a	1	n/a	n/a	n/a	n/a	n/a
871.446	n/a	REC_WORD_VV	435723	wordpools/wasnorm_wordpool_less_exclusions.txt	LTP180	ltpFR	5	3	n/a	<>	-1	n/a	n/a	n/a	n/a	n/a	n/a	n/a
872.446	n/a	REC_WORD_VV	436223	wordpools/wasnorm_wordpool_less_exclusions.txt	LTP180	ltpFR	5	3	n/a	<>	-1	n/a	n/a	n/a	n/a	n/a	n/a	n/a
873.446	n/a	REC_WORD_VV	436723	wordpools/wasnorm_wordpool_less_exclusions.txt	LTP180	ltpFR	5	3	n/a	<>	-1	n/a	n/a	n/a	n/a	n/a	n/a	n/a
881.048	n/a	WORD	440524	wordpools/wasnorm_wordpool_less_exclusions.txt	LTP180	ltpFR	5	4	-1	OPERA	978	n/a	-1	1	1.0	1.0	upper	../fonts/Verdana.ttf
885.024	n/a	WORD	442512	wordpools/wasnorm_wordpool_less_exclusions.txt	LTP180	ltpFR	5	4	-1	PARENT	1013	n/a	-1	1	1.0	1.0	upper	../fonts/Verdana.ttf
889.108	n/a	WORD	444554	wordpools/wasnorm_wordpool_less_exclusions.txt	LTP180	ltpFR	5	4	-1	PEDAL	1037	n/a	-1	1	1.0	1.0	upper	../fonts/Verdana.ttf
893.176	n/a	WORD	446588	wordpools/wasnorm_wordpool_less_exclusions.txt	LTP180	ltpFR	5	4	-1	HAT	690	n/a	-1	1	1.0	1.0	upper	../fonts/Verdana.ttf
897.004	n/a	WORD	448502	wordpools/wasnorm_wordpool_less_exclusions.txt	LTP180	ltpFR	5	4	-1	COUSIN	392	n/a	-1	1	1.0	1.0	upper	../fonts/Verdana.ttf
901.17	n/a	WORD	450585	wordpools/wasnorm_wordpool_less_exclusions.txt	LTP180	ltpFR	5	4	-1	TRAY	1498	n/a	-1	1	1.0	1.0	upper	../fonts/Verdana.ttf
905.27	n/a	WORD	452635	wordpools/wasnorm_wordpool_less_exclusions.txt	LTP180	ltpFR	5	4	-1	RIB	1188	n/a	-1	1	1.0	1.0	upper	../fonts/Verdana.ttf
909.202	n/a	WORD	454601	wordpools/wasnorm_wordpool_less_exclusions.txt	LTP180	ltpFR	5	4	-1	BEAN	105	n/a	-1	1	1.0	1.0	upper	../fonts/Verdana.ttf
913.4	n/a	WORD	456700	wordpools/wasnorm_wordpool_less_exclusions.txt	LTP180	ltpFR	5	4	-1	OATMEAL	967	n/a	-1	1	1.0	1.0	upper	../fonts/Verdana.ttf
917.59	n/a	WORD	458795	wordpools/wasnorm_wordpool_less_exclusions.txt	LTP180	ltpFR	5	4	-1	FROST	609	n/a	-1	1	1.0	1.0	upper	../fonts/Verdana.ttf
921.618	n/a	WORD	460809	wordpools/wasnorm_wordpool_less_exclusions.txt	LTP180	ltpFR	5	4	-1	BEEF	113	n/a	-1	1	1.0	1.0	upper	../fonts/Verdana.ttf
925.648	n/a	WORD	462824	wordpools/wasnorm_wordpool_less_exclusions.txt	LTP180	ltpFR	5	4	-1	SIRLOIN	1311	n/a	-1	1	1.0	1.0	upper	../fonts/Verdana.ttf
929.684	n/a	WORD	464842	wordpools/wasnorm_wordpool_less_exclusions.txt	LTP180	ltpFR	5	4	-1	HELMET	702	n/a	-1	1	1.0	1.0	upper	../fonts/Verdana.ttf
933.56	n/a	WORD	466780	wordpools/wasnorm_wordpool_less_exclusions.txt	LTP180	ltpFR	5	4	-1	TURNIP	1521	n/a	-1	1	1.0	1.0	upper	../fonts/Verdana.ttf
937.576	n/a	WORD	468788	wordpools/wasnorm_wordpool_less_exclusions.txt	LTP180	ltpFR	5	4	-1	PORT	1110	n/a	-1	1	1.0	1.0	upper	../fonts/Verdana.ttf
941.562	n/a	WORD	470781	wordpools/wasnorm_wordpool_less_exclusions.txt	LTP180	ltpFR	5	4	-1	HAYSTACK	694	n/a	-1	1	1.0	1.0	upper	../fonts/Verdana.ttf
947.33	n/a	REC_START	473665	n/a	LTP180	ltpFR	5	4	n/a	n/a	n/a	n/a	n/a	n/a	n/a	n/a	n/a	n/a
947.544	n/a	REC_WORD	473772	wordpools/wasnorm_wordpool_less_exclusions.txt	LTP180	ltpFR	5	4	-1	HAYSTACK	694	n/a	-1	n/a	n/a	n/a	n/a	n/a
948.158	n/a	REC_WORD	474079	wordpools/wasnorm_wordpool_less_exclusions.txt	LTP180	ltpFR	5	4	-1	OPERA	978	n/a	-1	n/a	n/a	n/a	n/a	n/a
948.762	n/a	REC_WORD	474381	wordpools/wasnorm_wordpool_less_exclusions.txt	LTP180	ltpFR	5	4	-1	PORT	1110	n/a	-1	n/a	n/a	n/a	n/a	n/a
949.674	n/a	REC_WORD	474837	wordpools/wasnorm_wordpool_less_exclusions.txt	LTP180	ltpFR	5	4	-1	PARENT	1013	n/a	-1	n/a	n/a	n/a	n/a	n/a
957.054	n/a	REC_WORD	478527	wordpools/wasnorm_wordpool_less_exclusions.txt	LTP180	ltpFR	5	4	n/a	STAKE	1368	n/a	n/a	n/a	n/a	n/a	n/a	n/a
959.932	n/a	REC_WORD	479966	wordpools/wasnorm_wordpool_less_exclusions.txt	LTP180	ltpFR	5	4	-1	SIRLOIN	1311	n/a	-1	n/a	n/a	n/a	n/a	n/a
964.412	n/a	REC_WORD	482206	wordpools/wasnorm_wordpool_less_exclusions.txt	LTP180	ltpFR	5	4	-1	HAYSTACK	694	n/a	-1	n/a	n/a	n/a	n/a	n/a
966.976	n/a	REC_WORD	483488	wordpools/wasnorm_wordpool_less_exclusions.txt	LTP180	ltpFR	5	4	-1	TURNIP	1521	n/a	-1	n/a	n/a	n/a	n/a	n/a
997.04	n/a	REC_WORD	498520	wordpools/wasnorm_wordpool_less_exclusions.txt	LTP180	ltpFR	5	4	-1	TRAY	1498	n/a	-1	n/a	n/a	n/a	n/a	n/a
997.898	n/a	REC_WORD	498949	wordpools/wasnorm_wordpool_less_exclusions.txt	LTP180	ltpFR	5	4	n/a	ASHTRAY	45	n/a	n/a	n/a	n/a	n/a	n/a	n/a
999.206	n/a	REC_WORD	499603	wordpools/wasnorm_wordpool_less_exclusions.txt	LTP180	ltpFR	5	4	n/a	ASHTRAY	45	n/a	n/a	n/a	n/a	n/a	n/a	n/a
999.918	n/a	REC_WORD	499959	wordpools/wasnorm_wordpool_less_exclusions.txt	LTP180	ltpFR	5	4	-1	TRAY	1498	n/a	-1	n/a	n/a	n/a	n/a	n/a
1002.024	n/a	REC_WORD_VV	501012	wordpools/wasnorm_wordpool_less_exclusions.txt	LTP180	ltpFR	5	4	n/a	<>	-1	n/a	n/a	n/a	n/a	n/a	n/a	n/a
1026.616	n/a	WORD	513308	wordpools/wasnorm_wordpool_less_exclusions.txt	LTP180	ltpFR	5	5	0	WATER	1594	n/a	n/a	0	0.5869140625	0.422607421875	upper	../fonts/zerothre.ttf
1029.652	n/a	SLOW_MSG	514826	n/a	LTP180	ltpFR	5	5	n/a	n/a	n/a	n/a	n/a	n/a	n/a	n/a	n/a	n/a
1032.24	n/a	WORD	516120	wordpools/wasnorm_wordpool_less_exclusions.txt	LTP180	ltpFR	5	5	0	BRIDGE	174	n/a	n/a	0	0.5869140625	0.422607421875	upper	../fonts/zerothre.ttf
1035.27	n/a	SLOW_MSG	517635	n/a	LTP180	ltpFR	5	5	n/a	n/a	n/a	n/a	n/a	n/a	n/a	n/a	n/a	n/a
1037.918	n/a	WORD	518959	wordpools/wasnorm_wordpool_less_exclusions.txt	LTP180	ltpFR	5	5	1	SHELL	1281	n/a	0	1	0.412841796875	0.57763671875	lower	../fonts/amplitud.ttf
1042.058	n/a	WORD	521029	wordpools/wasnorm_wordpool_less_exclusions.txt	LTP180	ltpFR	5	5	1	HOOK	715	n/a	0	1	0.412841796875	0.57763671875	lower	../fonts/amplitud.ttf
1046.074	n/a	WORD	523037	wordpools/wasnorm_wordpool_less_exclusions.txt	LTP180	ltpFR	5	5	1	GUEST	669	n/a	1	1	0.412841796875	0.57763671875	lower	../fonts/amplitud.ttf
1050.09	n/a	WORD	525045	wordpools/wasnorm_wordpool_less_exclusions.txt	LTP180	ltpFR	5	5	1	TROUT	1511	n/a	1	1	0.412841796875	0.57763671875	lower	../fonts/amplitud.ttf
1054.188	n/a	WORD	527094	wordpools/wasnorm_wordpool_less_exclusions.txt	LTP180	ltpFR	5	5	0	PAINTING	1005	n/a	0	0	0.5869140625	0.422607421875	upper	../fonts/zerothre.ttf
1058.372	n/a	WORD	529186	wordpools/wasnorm_wordpool_less_exclusions.txt	LTP180	ltpFR	5	5	0	ROOMMATE	1207	n/a	0	0	0.5869140625	0.422607421875	upper	../fonts/zerothre.ttf
1062.438	n/a	WORD	531219	wordpools/wasnorm_wordpool_less_exclusions.txt	LTP180	ltpFR	5	5	0	SCALLOP	1242	n/a	0	0	0.5869140625	0.422607421875	upper	../fonts/zerothre.ttf
1066.318	n/a	WORD	533159	wordpools/wasnorm_wordpool_less_exclusions.txt	LTP180	ltpFR	5	5	0	ROBOT	1200	n/a	0	0	0.5869140625	0.422607421875	upper	../fonts/zerothre.ttf
1070.434	n/a	WORD	535217	wordpools/wasnorm_wordpool_less_exclusions.txt	LTP180	ltpFR	5	5	0	TYPIST	1532	n/a	0	0	0.5869140625	0.422607421875	upper	../fonts/zerothre.ttf
1074.566	n/a	WORD	537283	wordpools/wasnorm_wordpool_less_exclusions.txt	LTP180	ltpFR	5	5	0	BOUQUET	157	n/a	0	0	0.5869140625	0.422607421875	upper	../fonts/zerothre.ttf
1078.732	n/a	WORD	539366	wordpools/wasnorm_wordpool_less_exclusions.txt	LTP180	ltpFR	5	5	1	WARRIOR	1589	n/a	1	1	0.412841796875	0.57763671875	lower	../fonts/amplitud.ttf
1082.68	n/a	WORD	541340	wordpools/wasnorm_wordpool_less_exclusions.txt	LTP180	ltpFR	5	5	1	WORKER	1621	n/a	1	1	0.412841796875	0.57763671875	lower	../fonts/amplitud.ttf
1086.746	n/a	WORD	543373	wordpools/wasnorm_wordpool_less_exclusions.txt	LTP180	ltpFR	5	5	1	OFFICE	972	n/a	1	1	0.412841796875	0.57763671875	lower	../fonts/amplitud.ttf
1090.762	n/a	WORD	545381	wordpools/wasnorm_wordpool_less_exclusions.txt	LTP180	ltpFR	5	5	1	PICKLE	1059	n/a	1	1	0.412841796875	0.57763671875	lower	../fonts/amplitud.ttf
1096.568	n/a	REC_START	548284	n/a	LTP180	ltpFR	5	5	n/a	n/a	n/a	n/a	n/a	n/a	n/a	n/a	n/a	n/a
1097.39	n/a	REC_WORD_VV	548695	wordpools/wasnorm_wordpool_less_exclusions.txt	LTP180	ltpFR	5	5	n/a	<>	-1	n/a	n/a	n/a	n/a	n/a	n/a	n/a
1097.844	n/a	REC_WORD	548922	wordpools/wasnorm_wordpool_less_exclusions.txt	LTP180	ltpFR	5	5	0	TYPIST	1532	n/a	0	n/a	n/a	n/a	n/a	n/a
1098.642	n/a	REC_WORD	549321	wordpools/wasnorm_wordpool_less_exclusions.txt	LTP180	ltpFR	5	5	1	OFFICE	972	n/a	1	n/a	n/a	n/a	n/a	n/a
1099.69	n/a	REC_WORD	549845	wordpools/wasnorm_wordpool_less_exclusions.txt	LTP180	ltpFR	5	5	0	BRIDGE	174	n/a	n/a	n/a	n/a	n/a	n/a	n/a
1100.248	n/a	REC_WORD	550124	wordpools/wasnorm_wordpool_less_exclusions.txt	LTP180	ltpFR	5	5	0	WATER	1594	n/a	n/a	n/a	n/a	n/a	n/a	n/a
1101.292	n/a	REC_WORD	550646	wordpools/wasnorm_wordpool_less_exclusions.txt	LTP180	ltpFR	5	5	1	PICKLE	1059	n/a	1	n/a	n/a	n/a	n/a	n/a
1109.584	n/a	REC_WORD	554792	wordpools/wasnorm_wordpool_less_exclusions.txt	LTP180	ltpFR	5	5	1	TROUT	1511	n/a	1	n/a	n/a	n/a	n/a	n/a
1126.426	n/a	REC_WORD	563213	wordpools/wasnorm_wordpool_less_exclusions.txt	LTP180	ltpFR	5	5	1	PICKLE	1059	n/a	1	n/a	n/a	n/a	n/a	n/a
1175.808	n/a	WORD	587904	wordpools/wasnorm_wordpool_less_exclusions.txt	LTP180	ltpFR	5	6	-1	CYLINDER	432	n/a	-1	1	1.0	1.0	upper	../fonts/Verdana.ttf
1179.82	n/a	WORD	589910	wordpools/wasnorm_wordpool_less_exclusions.txt	LTP180	ltpFR	5	6	-1	CAN	225	n/a	-1	1	1.0	1.0	upper	../fonts/Verdana.ttf
1183.834	n/a	WORD	591917	wordpools/wasnorm_wordpool_less_exclusions.txt	LTP180	ltpFR	5	6	-1	CHIMNEY	301	n/a	-1	1	1.0	1.0	upper	../fonts/Verdana.ttf
1187.986	n/a	WORD	593993	wordpools/wasnorm_wordpool_less_exclusions.txt	LTP180	ltpFR	5	6	-1	SENATOR	1268	n/a	-1	1	1.0	1.0	upper	../fonts/Verdana.ttf
1191.964	n/a	WORD	595982	wordpools/wasnorm_wordpool_less_exclusions.txt	LTP180	ltpFR	5	6	-1	DISH	474	n/a	-1	1	1.0	1.0	upper	../fonts/Verdana.ttf
1196.1	n/a	WORD	598050	wordpools/wasnorm_wordpool_less_exclusions.txt	LTP180	ltpFR	5	6	-1	TIE	1466	n/a	-1	1	1.0	1.0	upper	../fonts/Verdana.ttf
1200.298	n/a	WORD	600149	wordpools/wasnorm_wordpool_less_exclusions.txt	LTP180	ltpFR	5	6	-1	TUXEDO	1525	n/a	-1	1	1.0	1.0	upper	../fonts/Verdana.ttf
1204.212	n/a	WORD	602106	wordpools/wasnorm_wordpool_less_exclusions.txt	LTP180	ltpFR	5	6	-1	ASTEROID	50	n/a	-1	1	1.0	1.0	upper	../fonts/Verdana.ttf
1208.096	n/a	WORD	604048	wordpools/wasnorm_wordpool_less_exclusions.txt	LTP180	ltpFR	5	6	-1	ASTRONAUT	51	n/a	-1	1	1.0	1.0	upper	../fonts/Verdana.ttf
1212.008	n/a	WORD	606004	wordpools/wasnorm_wordpool_less_exclusions.txt	LTP180	ltpFR	5	6	-1	SENATE	1267	n/a	-1	1	1.0	1.0	upper	../fonts/Verdana.ttf
1215.912	n/a	WORD	607956	wordpools/wasnorm_wordpool_less_exclusions.txt	LTP180	ltpFR	5	6	-1	COFFEE	341	n/a	-1	1	1.0	1.0	upper	../fonts/Verdana.ttf
1219.922	n/a	WORD	609961	wordpools/wasnorm_wordpool_less_exclusions.txt	LTP180	ltpFR	5	6	-1	UNIVERSE	1540	n/a	-1	1	1.0	1.0	upper	../fonts/Verdana.ttf
1223.938	n/a	WORD	611969	wordpools/wasnorm_wordpool_less_exclusions.txt	LTP180	ltpFR	5	6	-1	CALF	222	n/a	-1	1	1.0	1.0	upper	../fonts/Verdana.ttf
1227.99	n/a	WORD	613995	wordpools/wasnorm_wordpool_less_exclusions.txt	LTP180	ltpFR	5	6	-1	BULLY	196	n/a	-1	1	1.0	1.0	upper	../fonts/Verdana.ttf
1231.85	n/a	WORD	615925	wordpools/wasnorm_wordpool_less_exclusions.txt	LTP180	ltpFR	5	6	-1	CRATER	400	n/a	-1	1	1.0	1.0	upper	../fonts/Verdana.ttf
1235.816	n/a	WORD	617908	wordpools/wasnorm_wordpool_less_exclusions.txt	LTP180	ltpFR	5	6	-1	BANDIT	81	n/a	-1	1	1.0	1.0	upper	../fonts/Verdana.ttf
1241.438	n/a	REC_START	620719	n/a	LTP180	ltpFR	5	6	n/a	n/a	n/a	n/a	n/a	n/a	n/a	n/a	n/a	n/a
1241.752	n/a	REC_WORD	620876	wordpools/wasnorm_wordpool_less_exclusions.txt	LTP180	ltpFR	5	6	-1	BANDIT	81	n/a	-1	n/a	n/a	n/a	n/a	n/a
1242.422	n/a	REC_WORD	621211	wordpools/wasnorm_wordpool_less_exclusions.txt	LTP180	ltpFR	5	6	-1	ASTRONAUT	51	n/a	-1	n/a	n/a	n/a	n/a	n/a
1243.518	n/a	REC_WORD_VV	621759	wordpools/wasnorm_wordpool_less_exclusions.txt	LTP180	ltpFR	5	6	n/a	<>	-1	n/a	n/a	n/a	n/a	n/a	n/a	n/a
1243.968	n/a	REC_WORD	621984	wordpools/wasnorm_wordpool_less_exclusions.txt	LTP180	ltpFR	5	6	-1	ASTRONAUT	51	n/a	-1	n/a	n/a	n/a	n/a	n/a
1244.71	n/a	REC_WORD	622355	wordpools/wasnorm_wordpool_less_exclusions.txt	LTP180	ltpFR	5	6	-1	ASTRONAUT	51	n/a	-1	n/a	n/a	n/a	n/a	n/a
1245.944	n/a	REC_WORD	622972	wordpools/wasnorm_wordpool_less_exclusions.txt	LTP180	ltpFR	5	6	-1	SENATE	1267	n/a	-1	n/a	n/a	n/a	n/a	n/a
1246.752	n/a	REC_WORD	623376	wordpools/wasnorm_wordpool_less_exclusions.txt	LTP180	ltpFR	5	6	-1	SENATOR	1268	n/a	-1	n/a	n/a	n/a	n/a	n/a
1247.754	n/a	REC_WORD	623877	wordpools/wasnorm_wordpool_less_exclusions.txt	LTP180	ltpFR	5	6	-1	TIE	1466	n/a	-1	n/a	n/a	n/a	n/a	n/a
1258.056	n/a	REC_WORD	629028	wordpools/wasnorm_wordpool_less_exclusions.txt	LTP180	ltpFR	5	6	-1	CAN	225	n/a	-1	n/a	n/a	n/a	n/a	n/a
1266.642	n/a	REC_WORD	633321	wordpools/wasnorm_wordpool_less_exclusions.txt	LTP180	ltpFR	5	6	-1	ASTEROID	50	n/a	-1	n/a	n/a	n/a	n/a	n/a
1306.534	n/a	REC_WORD	653267	wordpools/wasnorm_wordpool_less_exclusions.txt	LTP180	ltpFR	5	6	-1	CYLINDER	432	n/a	-1	n/a	n/a	n/a	n/a	n/a
1308.34	n/a	REC_WORD_VV	654170	wordpools/wasnorm_wordpool_less_exclusions.txt	LTP180	ltpFR	5	6	n/a	<>	-1	n/a	n/a	n/a	n/a	n/a	n/a	n/a
1320.69	n/a	WORD	660345	wordpools/wasnorm_wordpool_less_exclusions.txt	LTP180	ltpFR	5	7	0	PIGEON	1065	n/a	0	0	0.5869140625	0.422607421875	upper	../fonts/zerothre.ttf
1324.89	n/a	WORD	662445	wordpools/wasnorm_wordpool_less_exclusions.txt	LTP180	ltpFR	5	7	0	NEST	945	n/a	0	0	0.5869140625	0.422607421875	upper	../fonts/zerothre.ttf
1328.888	n/a	WORD	664444	wordpools/wasnorm_wordpool_less_exclusions.txt	LTP180	ltpFR	5	7	0	BILL	126	n/a	0	0	0.5869140625	0.422607421875	upper	../fonts/zerothre.ttf
1332.938	n/a	WORD	666469	wordpools/wasnorm_wordpool_less_exclusions.txt	LTP180	ltpFR	5	7	0	NOSE	957	n/a	0	0	0.5869140625	0.422607421875	upper	../fonts/zerothre.ttf
1337.086	n/a	WORD	668543	wordpools/wasnorm_wordpool_less_exclusions.txt	LTP180	ltpFR	5	7	0	VINEGAR	1569	n/a	0	0	0.5869140625	0.422607421875	upper	../fonts/zerothre.ttf
1340.934	n/a	WORD	670467	wordpools/wasnorm_wordpool_less_exclusions.txt	LTP180	ltpFR	5	7	0	CHAMPAGNE	278	n/a	0	0	0.5869140625	0.422607421875	upper	../fonts/zerothre.ttf
1344.838	n/a	WORD	672419	wordpools/wasnorm_wordpool_less_exclusions.txt	LTP180	ltpFR	5	7	0	BELLY	119	n/a	0	0	0.5869140625	0.422607421875	upper	../fonts/zerothre.ttf
1349.03	n/a	WORD	674515	wordpools/wasnorm_wordpool_less_exclusions.txt	LTP180	ltpFR	5	7	0	PENNY	1045	n/a	0	0	0.5869140625	0.422607421875	upper	../fonts/zerothre.ttf
1353.036	n/a	WORD	676518	wordpools/wasnorm_wordpool_less_exclusions.txt	LTP180	ltpFR	5	7	0	CLASS	318	n/a	1	0	0.5869140625	0.422607421875	upper	../fonts/zerothre.ttf
1357.028	n/a	WORD	678514	wordpools/wasnorm_wordpool_less_exclusions.txt	LTP180	ltpFR	5	7	0	PUMP	1141	n/a	1	0	0.5869140625	0.422607421875	upper	../fonts/zerothre.ttf
1360.862	n/a	WORD	680431	wordpools/wasnorm_wordpool_less_exclusions.txt	LTP180	ltpFR	5	7	0	SALIVA	1226	n/a	0	0	0.5869140625	0.422607421875	upper	../fonts/zerothre.ttf
1364.858	n/a	WORD	682429	wordpools/wasnorm_wordpool_less_exclusions.txt	LTP180	ltpFR	5	7	0	QUARTER	1148	n/a	0	0	0.5869140625	0.422607421875	upper	../fonts/zerothre.ttf
1369.026	n/a	WORD	684513	wordpools/wasnorm_wordpool_less_exclusions.txt	LTP180	ltpFR	5	7	0	GARLIC	624	n/a	0	0	0.5869140625	0.422607421875	upper	../fonts/zerothre.ttf
1372.906	n/a	WORD	686453	wordpools/wasnorm_wordpool_less_exclusions.txt	LTP180	ltpFR	5	7	0	BARLEY	88	n/a	0	0	0.5869140625	0.422607421875	upper	../fonts/zerothre.ttf
1376.792	n/a	WORD	688396	wordpools/wasnorm_wordpool_less_exclusions.txt	LTP180	ltpFR	5	7	0	COPIER	377	n/a	0	0	0.5869140625	0.422607421875	upper	../fonts/zerothre.ttf
1380.654	n/a	WORD	690327	wordpools/wasnorm_wordpool_less_exclusions.txt	LTP180	ltpFR	5	7	0	DOLPHIN	483	n/a	1	0	0.5869140625	0.422607421875	upper	../fonts/zerothre.ttf
1386.61	n/a	REC_START	693305	n/a	LTP180	ltpFR	5	7	n/a	n/a	n/a	n/a	n/a	n/a	n/a	n/a	n/a	n/a
1387.262	n/a	REC_WORD	693631	wordpools/wasnorm_wordpool_less_exclusions.txt	LTP180	ltpFR	5	7	0	DOLPHIN	483	n/a	1	n/a	n/a	n/a	n/a	n/a
1388.69	n/a	REC_WORD	694345	wordpools/wasnorm_wordpool_less_exclusions.txt	LTP180	ltpFR	5	7	0	NOSE	957	n/a	0	n/a	n/a	n/a	n/a	n/a
1389.708	n/a	REC_WORD_VV	694854	wordpools/wasnorm_wordpool_less_exclusions.txt	LTP180	ltpFR	5	7	n/a	<>	-1	n/a	n/a	n/a	n/a	n/a	n/a	n/a
1390.736	n/a	REC_WORD	695368	wordpools/wasnorm_wordpool_less_exclusions.txt	LTP180	ltpFR	5	7	0	QUARTER	1148	n/a	0	n/a	n/a	n/a	n/a	n/a
1391.534	n/a	REC_WORD	695767	wordpools/wasnorm_wordpool_less_exclusions.txt	LTP180	ltpFR	5	7	0	PENNY	1045	n/a	0	n/a	n/a	n/a	n/a	n/a
1395.574	n/a	REC_WORD	697787	wordpools/wasnorm_wordpool_less_exclusions.txt	LTP180	ltpFR	5	7	0	PIGEON	1065	n/a	0	n/a	n/a	n/a	n/a	n/a
1396.588	n/a	REC_WORD	698294	wordpools/wasnorm_wordpool_less_exclusions.txt	LTP180	ltpFR	5	7	0	NEST	945	n/a	0	n/a	n/a	n/a	n/a	n/a
1426.8	n/a	REC_WORD	713400	wordpools/wasnorm_wordpool_less_exclusions.txt	LTP180	ltpFR	5	7	-1	RIB	1188	n/a	-1	n/a	n/a	n/a	n/a	n/a
1439.692	n/a	REC_WORD	719846	wordpools/wasnorm_wordpool_less_exclusions.txt	LTP180	ltpFR	5	7	-1	RIB	1188	n/a	-1	n/a	n/a	n/a	n/a	n/a
1440.216	n/a	REC_WORD	720108	wordpools/wasnorm_wordpool_less_exclusions.txt	LTP180	ltpFR	5	7	n/a	CHEST	295	n/a	n/a	n/a	n/a	n/a	n/a	n/a
1465.6	n/a	WORD	732800	wordpools/wasnorm_wordpool_less_exclusions.txt	LTP180	ltpFR	5	8	-1	CACTUS	215	n/a	-1	1	1.0	1.0	upper	../fonts/Verdana.ttf
1469.778	n/a	WORD	734889	wordpools/wasnorm_wordpool_less_exclusions.txt	LTP180	ltpFR	5	8	-1	ROOF	1205	n/a	-1	1	1.0	1.0	upper	../fonts/Verdana.ttf
1473.942	n/a	WORD	736971	wordpools/wasnorm_wordpool_less_exclusions.txt	LTP180	ltpFR	5	8	-1	SHOP	1290	n/a	-1	1	1.0	1.0	upper	../fonts/Verdana.ttf
1478.024	n/a	WORD	739012	wordpools/wasnorm_wordpool_less_exclusions.txt	LTP180	ltpFR	5	8	-1	FIDDLE	561	n/a	-1	1	1.0	1.0	upper	../fonts/Verdana.ttf
1482.038	n/a	WORD	741019	wordpools/wasnorm_wordpool_less_exclusions.txt	LTP180	ltpFR	5	8	-1	CIGARETTE	309	n/a	-1	1	1.0	1.0	upper	../fonts/Verdana.ttf
1485.926	n/a	WORD	742963	wordpools/wasnorm_wordpool_less_exclusions.txt	LTP180	ltpFR	5	8	-1	CAPITAL	238	n/a	-1	1	1.0	1.0	upper	../fonts/Verdana.ttf
1489.87	n/a	WORD	744935	wordpools/wasnorm_wordpool_less_exclusions.txt	LTP180	ltpFR	5	8	-1	FEMALE	559	n/a	-1	1	1.0	1.0	upper	../fonts/Verdana.ttf
1493.986	n/a	WORD	746993	wordpools/wasnorm_wordpool_less_exclusions.txt	LTP180	ltpFR	5	8	-1	BREAST	171	n/a	-1	1	1.0	1.0	upper	../fonts/Verdana.ttf
1498.0	n/a	WORD	749000	wordpools/wasnorm_wordpool_less_exclusions.txt	LTP180	ltpFR	5	8	-1	RECEIPT	1173	n/a	-1	1	1.0	1.0	upper	../fonts/Verdana.ttf
1502.084	n/a	WORD	751042	wordpools/wasnorm_wordpool_less_exclusions.txt	LTP180	ltpFR	5	8	-1	MONEY	908	n/a	-1	1	1.0	1.0	upper	../fonts/Verdana.ttf
1506.202	n/a	WORD	753101	wordpools/wasnorm_wordpool_less_exclusions.txt	LTP180	ltpFR	5	8	-1	POCKETBOOK	1094	n/a	-1	1	1.0	1.0	upper	../fonts/Verdana.ttf
1510.182	n/a	WORD	755091	wordpools/wasnorm_wordpool_less_exclusions.txt	LTP180	ltpFR	5	8	-1	LADDER	793	n/a	-1	1	1.0	1.0	upper	../fonts/Verdana.ttf
1514.3	n/a	WORD	757150	wordpools/wasnorm_wordpool_less_exclusions.txt	LTP180	ltpFR	5	8	-1	JEEP	753	n/a	-1	1	1.0	1.0	upper	../fonts/Verdana.ttf
1518.262	n/a	WORD	759131	wordpools/wasnorm_wordpool_less_exclusions.txt	LTP180	ltpFR	5	8	-1	VIOLIN	1571	n/a	-1	1	1.0	1.0	upper	../fonts/Verdana.ttf
1522.478	n/a	WORD	761239	wordpools/wasnorm_wordpool_less_exclusions.txt	LTP180	ltpFR	5	8	-1	CATERPILLAR	259	n/a	-1	1	1.0	1.0	upper	../fonts/Verdana.ttf
1526.394	n/a	WORD	763197	wordpools/wasnorm_wordpool_less_exclusions.txt	LTP180	ltpFR	5	8	-1	BUTTERFLY	206	n/a	-1	1	1.0	1.0	upper	../fonts/Verdana.ttf
1532.45	n/a	REC_START	766225	n/a	LTP180	ltpFR	5	8	n/a	n/a	n/a	n/a	n/a	n/a	n/a	n/a	n/a	n/a
1533.268	n/a	REC_WORD_VV	766634	wordpools/wasnorm_wordpool_less_exclusions.txt	LTP180	ltpFR	5	8	n/a	<>	-1	n/a	n/a	n/a	n/a	n/a	n/a	n/a
1533.592	n/a	REC_WORD	766796	wordpools/wasnorm_wordpool_less_exclusions.txt	LTP180	ltpFR	5	8	-1	BUTTERFLY	206	n/a	-1	n/a	n/a	n/a	n/a	n/a
1534.586	n/a	REC_WORD	767293	wordpools/wasnorm_wordpool_less_exclusions.txt	LTP180	ltpFR	5	8	-1	ROOF	1205	n/a	-1	n/a	n/a	n/a	n/a	n/a
1535.178	n/a	REC_WORD	767589	wordpools/wasnorm_wordpool_less_exclusions.txt	LTP180	ltpFR	5	8	-1	FIDDLE	561	n/a	-1	n/a	n/a	n/a	n/a	n/a
1536.412	n/a	REC_WORD	768206	wordpools/wasnorm_wordpool_less_exclusions.txt	LTP180	ltpFR	5	8	-1	BREAST	171	n/a	-1	n/a	n/a	n/a	n/a	n/a
1537.144	n/a	REC_WORD	768572	wordpools/wasnorm_wordpool_less_exclusions.txt	LTP180	ltpFR	5	8	-1	CAPITAL	238	n/a	-1	n/a	n/a	n/a	n/a	n/a
1550.704	n/a	REC_WORD	775352	wordpools/wasnorm_wordpool_less_exclusions.txt	LTP180	ltpFR	5	8	-1	CATERPILLAR	259	n/a	-1	n/a	n/a	n/a	n/a	n/a
1558.652	n/a	REC_WORD	779326	wordpools/wasnorm_wordpool_less_exclusions.txt	LTP180	ltpFR	5	8	-1	VIOLIN	1571	n/a	-1	n/a	n/a	n/a	n/a	n/a
1573.704	n/a	REC_WORD	786852	wordpools/wasnorm_wordpool_less_exclusions.txt	LTP180	ltpFR	5	8	-1	LADDER	793	n/a	-1	n/a	n/a	n/a	n/a	n/a
1586.804	n/a	REC_WORD	793402	wordpools/wasnorm_wordpool_less_exclusions.txt	LTP180	ltpFR	5	8	-1	FEMALE	559	n/a	-1	n/a	n/a	n/a	n/a	n/a
1588.172	n/a	REC_WORD_VV	794086	wordpools/wasnorm_wordpool_less_exclusions.txt	LTP180	ltpFR	5	8	n/a	<>	-1	n/a	n/a	n/a	n/a	n/a	n/a	n/a
1590.352	n/a	REC_WORD	795176	wordpools/wasnorm_wordpool_less_exclusions.txt	LTP180	ltpFR	5	8	-1	FEMALE	559	n/a	-1	n/a	n/a	n/a	n/a	n/a
1611.456	n/a	WORD	805728	wordpools/wasnorm_wordpool_less_exclusions.txt	LTP180	ltpFR	5	9	-1	COLUMN	350	n/a	-1	1	1.0	1.0	upper	../fonts/Verdana.ttf
1615.518	n/a	WORD	807759	wordpools/wasnorm_wordpool_less_exclusions.txt	LTP180	ltpFR	5	9	-1	FRUIT	610	n/a	-1	1	1.0	1.0	upper	../fonts/Verdana.ttf
1619.634	n/a	WORD	809817	wordpools/wasnorm_wordpool_less_exclusions.txt	LTP180	ltpFR	5	9	-1	ELEVATOR	524	n/a	-1	1	1.0	1.0	upper	../fonts/Verdana.ttf
1623.798	n/a	WORD	811899	wordpools/wasnorm_wordpool_less_exclusions.txt	LTP180	ltpFR	5	9	-1	SADDLE	1221	n/a	-1	1	1.0	1.0	upper	../fonts/Verdana.ttf
1627.914	n/a	WORD	813957	wordpools/wasnorm_wordpool_less_exclusions.txt	LTP180	ltpFR	5	9	-1	ICEBERG	731	n/a	-1	1	1.0	1.0	upper	../fonts/Verdana.ttf
1632.096	n/a	WORD	816048	wordpools/wasnorm_wordpool_less_exclusions.txt	LTP180	ltpFR	5	9	-1	PEAR	1033	n/a	-1	1	1.0	1.0	upper	../fonts/Verdana.ttf
1636.162	n/a	WORD	818081	wordpools/wasnorm_wordpool_less_exclusions.txt	LTP180	ltpFR	5	9	-1	RADISH	1158	n/a	-1	1	1.0	1.0	upper	../fonts/Verdana.ttf
1640.128	n/a	WORD	820064	wordpools/wasnorm_wordpool_less_exclusions.txt	LTP180	ltpFR	5	9	-1	VINE	1568	n/a	-1	1	1.0	1.0	upper	../fonts/Verdana.ttf
1644.31	n/a	WORD	822155	wordpools/wasnorm_wordpool_less_exclusions.txt	LTP180	ltpFR	5	9	-1	GRAPE	654	n/a	-1	1	1.0	1.0	upper	../fonts/Verdana.ttf
1648.292	n/a	WORD	824146	wordpools/wasnorm_wordpool_less_exclusions.txt	LTP180	ltpFR	5	9	-1	KIWI	781	n/a	-1	1	1.0	1.0	upper	../fonts/Verdana.ttf
1652.458	n/a	WORD	826229	wordpools/wasnorm_wordpool_less_exclusions.txt	LTP180	ltpFR	5	9	-1	CABBAGE	210	n/a	-1	1	1.0	1.0	upper	../fonts/Verdana.ttf
1656.34	n/a	WORD	828170	wordpools/wasnorm_wordpool_less_exclusions.txt	LTP180	ltpFR	5	9	-1	SALAD	1224	n/a	-1	1	1.0	1.0	upper	../fonts/Verdana.ttf
1660.558	n/a	WORD	830279	wordpools/wasnorm_wordpool_less_exclusions.txt	LTP180	ltpFR	5	9	-1	SCRIBBLE	1256	n/a	-1	1	1.0	1.0	upper	../fonts/Verdana.ttf
1664.704	n/a	WORD	832352	wordpools/wasnorm_wordpool_less_exclusions.txt	LTP180	ltpFR	5	9	-1	MATCH	878	n/a	-1	1	1.0	1.0	upper	../fonts/Verdana.ttf
1668.57	n/a	WORD	834285	wordpools/wasnorm_wordpool_less_exclusions.txt	LTP180	ltpFR	5	9	-1	LAKE	796	n/a	-1	1	1.0	1.0	upper	../fonts/Verdana.ttf
1672.536	n/a	WORD	836268	wordpools/wasnorm_wordpool_less_exclusions.txt	LTP180	ltpFR	5	9	-1	DUCK	504	n/a	-1	1	1.0	1.0	upper	../fonts/Verdana.ttf
1678.358	n/a	REC_START	839179	n/a	LTP180	ltpFR	5	9	n/a	n/a	n/a	n/a	n/a	n/a	n/a	n/a	n/a	n/a
1678.802	n/a	REC_WORD	839401	wordpools/wasnorm_wordpool_less_exclusions.txt	LTP180	ltpFR	5	9	-1	DUCK	504	n/a	-1	n/a	n/a	n/a	n/a	n/a
1679.182	n/a	REC_WORD	839591	wordpools/wasnorm_wordpool_less_exclusions.txt	LTP180	ltpFR	5	9	-1	LAKE	796	n/a	-1	n/a	n/a	n/a	n/a	n/a
1679.68	n/a	REC_WORD	839840	wordpools/wasnorm_wordpool_less_exclusions.txt	LTP180	ltpFR	5	9	-1	FRUIT	610	n/a	-1	n/a	n/a	n/a	n/a	n/a
1680.19	n/a	REC_WORD	840095	wordpools/wasnorm_wordpool_less_exclusions.txt	LTP180	ltpFR	5	9	-1	COLUMN	350	n/a	-1	n/a	n/a	n/a	n/a	n/a
1681.536	n/a	REC_WORD_VV	840768	wordpools/wasnorm_wordpool_less_exclusions.txt	LTP180	ltpFR	5	9	n/a	<>	-1	n/a	n/a	n/a	n/a	n/a	n/a	n/a
1681.94	n/a	REC_WORD	840970	wordpools/wasnorm_wordpool_less_exclusions.txt	LTP180	ltpFR	5	9	-1	KIWI	781	n/a	-1	n/a	n/a	n/a	n/a	n/a
1682.814	n/a	REC_WORD	841407	wordpools/wasnorm_wordpool_less_exclusions.txt	LTP180	ltpFR	5	9	-1	GRAPE	654	n/a	-1	n/a	n/a	n/a	n/a	n/a
1683.502	n/a	REC_WORD	841751	wordpools/wasnorm_wordpool_less_exclusions.txt	LTP180	ltpFR	5	9	-1	VINE	1568	n/a	-1	n/a	n/a	n/a	n/a	n/a
1686.166	n/a	REC_WORD	843083	wordpools/wasnorm_wordpool_less_exclusions.txt	LTP180	ltpFR	5	9	-1	LAKE	796	n/a	-1	n/a	n/a	n/a	n/a	n/a
1700.314	n/a	REC_WORD	850157	wordpools/wasnorm_wordpool_less_exclusions.txt	LTP180	ltpFR	5	9	-1	COLUMN	350	n/a	-1	n/a	n/a	n/a	n/a	n/a
1704.06	n/a	REC_WORD	852030	wordpools/wasnorm_wordpool_less_exclusions.txt	LTP180	ltpFR	5	9	-1	MATCH	878	n/a	-1	n/a	n/a	n/a	n/a	n/a
1726.836	n/a	REC_WORD	863418	wordpools/wasnorm_wordpool_less_exclusions.txt	LTP180	ltpFR	5	9	-1	DUCK	504	n/a	-1	n/a	n/a	n/a	n/a	n/a
1727.25	n/a	REC_WORD	863625	wordpools/wasnorm_wordpool_less_exclusions.txt	LTP180	ltpFR	5	9	n/a	POND	1101	n/a	n/a	n/a	n/a	n/a	n/a	n/a
1758.362	n/a	WORD	879181	wordpools/wasnorm_wordpool_less_exclusions.txt	LTP180	ltpFR	5	10	1	TRUMPET	1513	n/a	0	1	0.412841796875	0.57763671875	lower	../fonts/amplitud.ttf
1762.578	n/a	WORD	881289	wordpools/wasnorm_wordpool_less_exclusions.txt	LTP180	ltpFR	5	10	1	RAKE	1164	n/a	0	1	0.412841796875	0.57763671875	lower	../fonts/amplitud.ttf
1766.728	n/a	WORD	883364	wordpools/wasnorm_wordpool_less_exclusions.txt	LTP180	ltpFR	5	10	1	LOCK	838	n/a	0	1	0.412841796875	0.57763671875	lower	../fonts/amplitud.ttf
1770.814	n/a	WORD	885407	wordpools/wasnorm_wordpool_less_exclusions.txt	LTP180	ltpFR	5	10	1	CARTON	251	n/a	0	1	0.412841796875	0.57763671875	lower	../fonts/amplitud.ttf
1775.01	n/a	WORD	887505	wordpools/wasnorm_wordpool_less_exclusions.txt	LTP180	ltpFR	5	10	1	CROWN	415	n/a	0	1	0.412841796875	0.57763671875	lower	../fonts/amplitud.ttf
1778.874	n/a	WORD	889437	wordpools/wasnorm_wordpool_less_exclusions.txt	LTP180	ltpFR	5	10	0	MONARCH	906	n/a	1	0	0.5869140625	0.422607421875	upper	../fonts/zerothre.ttf
1782.908	n/a	WORD	891454	wordpools/wasnorm_wordpool_less_exclusions.txt	LTP180	ltpFR	5	10	0	ENGINE	535	n/a	0	0	0.5869140625	0.422607421875	upper	../fonts/zerothre.ttf
1786.772	n/a	WORD	893386	wordpools/wasnorm_wordpool_less_exclusions.txt	LTP180	ltpFR	5	10	0	DRAGON	492	n/a	0	0	0.5869140625	0.422607421875	upper	../fonts/zerothre.ttf
1790.708	n/a	WORD	895354	wordpools/wasnorm_wordpool_less_exclusions.txt	LTP180	ltpFR	5	10	0	GROOM	665	n/a	0	0	0.5869140625	0.422607421875	upper	../fonts/zerothre.ttf
1794.786	n/a	WORD	897393	wordpools/wasnorm_wordpool_less_exclusions.txt	LTP180	ltpFR	5	10	1	DOOR	486	n/a	0	1	0.412841796875	0.57763671875	lower	../fonts/amplitud.ttf
1798.9	n/a	WORD	899450	wordpools/wasnorm_wordpool_less_exclusions.txt	LTP180	ltpFR	5	10	1	LETTUCE	814	n/a	1	1	0.412841796875	0.57763671875	lower	../fonts/amplitud.ttf
1803.032	n/a	WORD	901516	wordpools/wasnorm_wordpool_less_exclusions.txt	LTP180	ltpFR	5	10	1	CARROT	249	n/a	1	1	0.412841796875	0.57763671875	lower	../fonts/amplitud.ttf
1806.982	n/a	WORD	903491	wordpools/wasnorm_wordpool_less_exclusions.txt	LTP180	ltpFR	5	10	0	ARTIST	43	n/a	0	0	0.5869140625	0.422607421875	upper	../fonts/zerothre.ttf
1811.08	n/a	WORD	905540	wordpools/wasnorm_wordpool_less_exclusions.txt	LTP180	ltpFR	5	10	0	FATHER	554	n/a	0	0	0.5869140625	0.422607421875	upper	../fonts/zerothre.ttf
1814.946	n/a	WORD	907473	wordpools/wasnorm_wordpool_less_exclusions.txt	LTP180	ltpFR	5	10	0	CIGAR	308	n/a	0	0	0.5869140625	0.422607421875	upper	../fonts/zerothre.ttf
1818.794	n/a	WORD	909397	wordpools/wasnorm_wordpool_less_exclusions.txt	LTP180	ltpFR	5	10	0	WEED	1599	n/a	0	0	0.5869140625	0.422607421875	upper	../fonts/zerothre.ttf
1824.65	n/a	REC_START	912325	n/a	LTP180	ltpFR	5	10	n/a	n/a	n/a	n/a	n/a	n/a	n/a	n/a	n/a	n/a
1825.144	n/a	REC_WORD	912572	wordpools/wasnorm_wordpool_less_exclusions.txt	LTP180	ltpFR	5	10	0	WEED	1599	n/a	0	n/a	n/a	n/a	n/a	n/a
1825.558	n/a	REC_WORD	912779	wordpools/wasnorm_wordpool_less_exclusions.txt	LTP180	ltpFR	5	10	0	FATHER	554	n/a	0	n/a	n/a	n/a	n/a	n/a
1826.97	n/a	REC_WORD	913485	wordpools/wasnorm_wordpool_less_exclusions.txt	LTP180	ltpFR	5	10	0	ARTIST	43	n/a	0	n/a	n/a	n/a	n/a	n/a
1827.614	n/a	REC_WORD	913807	wordpools/wasnorm_wordpool_less_exclusions.txt	LTP180	ltpFR	5	10	0	MONARCH	906	n/a	1	n/a	n/a	n/a	n/a	n/a
1833.894	n/a	REC_WORD	916947	wordpools/wasnorm_wordpool_less_exclusions.txt	LTP180	ltpFR	5	10	0	CIGAR	308	n/a	0	n/a	n/a	n/a	n/a	n/a
1844.276	n/a	REC_WORD	922138	wordpools/wasnorm_wordpool_less_exclusions.txt	LTP180	ltpFR	5	10	1	TRUMPET	1513	n/a	0	n/a	n/a	n/a	n/a	n/a
1852.184	n/a	REC_WORD	926092	wordpools/wasnorm_wordpool_less_exclusions.txt	LTP180	ltpFR	5	10	1	LETTUCE	814	n/a	1	n/a	n/a	n/a	n/a	n/a
1904.22	n/a	WORD	952110	wordpools/wasnorm_wordpool_less_exclusions.txt	LTP180	ltpFR	5	11	1	WITNESS	1618	n/a	0	1	0.412841796875	0.57763671875	lower	../fonts/amplitud.ttf
1908.118	n/a	WORD	954059	wordpools/wasnorm_wordpool_less_exclusions.txt	LTP180	ltpFR	5	11	1	COURT	391	n/a	1	1	0.412841796875	0.57763671875	lower	../fonts/amplitud.ttf
1912.134	n/a	WORD	956067	wordpools/wasnorm_wordpool_less_exclusions.txt	LTP180	ltpFR	5	11	1	CREATURE	403	n/a	1	1	0.412841796875	0.57763671875	lower	../fonts/amplitud.ttf
1916.064	n/a	WORD	958032	wordpools/wasnorm_wordpool_less_exclusions.txt	LTP180	ltpFR	5	11	1	GAZELLE	628	n/a	1	1	0.412841796875	0.57763671875	lower	../fonts/amplitud.ttf
1920.148	n/a	WORD	960074	wordpools/wasnorm_wordpool_less_exclusions.txt	LTP180	ltpFR	5	11	1	OYSTER	995	n/a	1	1	0.412841796875	0.57763671875	lower	../fonts/amplitud.ttf
1923.98	n/a	WORD	961990	wordpools/wasnorm_wordpool_less_exclusions.txt	LTP180	ltpFR	5	11	1	TORTOISE	1486	n/a	1	1	0.412841796875	0.57763671875	lower	../fonts/amplitud.ttf
1927.81	n/a	WORD	963905	wordpools/wasnorm_wordpool_less_exclusions.txt	LTP180	ltpFR	5	11	1	SALOON	1228	n/a	1	1	0.412841796875	0.57763671875	lower	../fonts/amplitud.ttf
1931.876	n/a	WORD	965938	wordpools/wasnorm_wordpool_less_exclusions.txt	LTP180	ltpFR	5	11	1	SARDINE	1235	n/a	1	1	0.412841796875	0.57763671875	lower	../fonts/amplitud.ttf
1935.808	n/a	WORD	967904	wordpools/wasnorm_wordpool_less_exclusions.txt	LTP180	ltpFR	5	11	1	ROOM	1206	n/a	0	1	0.412841796875	0.57763671875	lower	../fonts/amplitud.ttf
1939.728	n/a	WORD	969864	wordpools/wasnorm_wordpool_less_exclusions.txt	LTP180	ltpFR	5	11	1	BARREL	91	n/a	0	1	0.412841796875	0.57763671875	lower	../fonts/amplitud.ttf
1943.772	n/a	WORD	971886	wordpools/wasnorm_wordpool_less_exclusions.txt	LTP180	ltpFR	5	11	1	SQUID	1361	n/a	1	1	0.412841796875	0.57763671875	lower	../fonts/amplitud.ttf
1947.77	n/a	WORD	973885	wordpools/wasnorm_wordpool_less_exclusions.txt	LTP180	ltpFR	5	11	1	SAUCER	1237	n/a	0	1	0.412841796875	0.57763671875	lower	../fonts/amplitud.ttf
1951.918	n/a	WORD	975959	wordpools/wasnorm_wordpool_less_exclusions.txt	LTP180	ltpFR	5	11	1	GATE	625	n/a	0	1	0.412841796875	0.57763671875	lower	../fonts/amplitud.ttf
1955.834	n/a	WORD	977917	wordpools/wasnorm_wordpool_less_exclusions.txt	LTP180	ltpFR	5	11	1	CORD	379	n/a	0	1	0.412841796875	0.57763671875	lower	../fonts/amplitud.ttf
1960.0	n/a	WORD	980000	wordpools/wasnorm_wordpool_less_exclusions.txt	LTP180	ltpFR	5	11	1	MOTEL	919	n/a	0	1	0.412841796875	0.57763671875	lower	../fonts/amplitud.ttf
1964.032	n/a	WORD	982016	wordpools/wasnorm_wordpool_less_exclusions.txt	LTP180	ltpFR	5	11	1	REBEL	1172	n/a	1	1	0.412841796875	0.57763671875	lower	../fonts/amplitud.ttf
1969.788	n/a	REC_START	984894	n/a	LTP180	ltpFR	5	11	n/a	n/a	n/a	n/a	n/a	n/a	n/a	n/a	n/a	n/a
1970.486	n/a	REC_WORD	985243	wordpools/wasnorm_wordpool_less_exclusions.txt	LTP180	ltpFR	5	11	1	MOTEL	919	n/a	0	n/a	n/a	n/a	n/a	n/a
1971.18	n/a	REC_WORD_VV	985590	wordpools/wasnorm_wordpool_less_exclusions.txt	LTP180	ltpFR	5	11	n/a	<>	-1	n/a	n/a	n/a	n/a	n/a	n/a	n/a
1971.424	n/a	REC_WORD	985712	wordpools/wasnorm_wordpool_less_exclusions.txt	LTP180	ltpFR	5	11	1	MOTEL	919	n/a	0	n/a	n/a	n/a	n/a	n/a
1971.958	n/a	REC_WORD	985979	wordpools/wasnorm_wordpool_less_exclusions.txt	LTP180	ltpFR	5	11	1	REBEL	1172	n/a	1	n/a	n/a	n/a	n/a	n/a
1972.79	n/a	REC_WORD	986395	wordpools/wasnorm_wordpool_less_exclusions.txt	LTP180	ltpFR	5	11	1	GAZELLE	628	n/a	1	n/a	n/a	n/a	n/a	n/a
1973.434	n/a	REC_WORD	986717	wordpools/wasnorm_wordpool_less_exclusions.txt	LTP180	ltpFR	5	11	n/a	LIZARD	834	n/a	n/a	n/a	n/a	n/a	n/a	n/a
1974.432	n/a	REC_WORD	987216	wordpools/wasnorm_wordpool_less_exclusions.txt	LTP180	ltpFR	5	11	1	COURT	391	n/a	1	n/a	n/a	n/a	n/a	n/a
1975.694	n/a	REC_WORD_VV	987847	wordpools/wasnorm_wordpool_less_exclusions.txt	LTP180	ltpFR	5	11	n/a	<>	-1	n/a	n/a	n/a	n/a	n/a	n/a	n/a
1976.708	n/a	REC_WORD	988354	wordpools/wasnorm_wordpool_less_exclusions.txt	LTP180	ltpFR	5	11	1	COURT	391	n/a	1	n/a	n/a	n/a	n/a	n/a
1977.416	n/a	REC_WORD	988708	wordpools/wasnorm_wordpool_less_exclusions.txt	LTP180	ltpFR	5	11	1	WITNESS	1618	n/a	0	n/a	n/a	n/a	n/a	n/a
1979.092	n/a	REC_WORD	989546	wordpools/wasnorm_wordpool_less_exclusions.txt	LTP180	ltpFR	5	11	1	ROOM	1206	n/a	0	n/a	n/a	n/a	n/a	n/a
1986.824	n/a	REC_WORD	993412	wordpools/wasnorm_wordpool_less_exclusions.txt	LTP180	ltpFR	5	11	n/a	LIZARD	834	n/a	n/a	n/a	n/a	n/a	n/a	n/a
2003.886	n/a	REC_WORD	1001943	wordpools/wasnorm_wordpool_less_exclusions.txt	LTP180	ltpFR	5	11	1	GAZELLE	628	n/a	1	n/a	n/a	n/a	n/a	n/a
2004.886	n/a	REC_WORD_VV	1002443	wordpools/wasnorm_wordpool_less_exclusions.txt	LTP180	ltpFR	5	11	n/a	<>	-1	n/a	n/a	n/a	n/a	n/a	n/a	n/a
2049.192	n/a	WORD	1024596	wordpools/wasnorm_wordpool_less_exclusions.txt	LTP180	ltpFR	5	12	1	TART	1436	n/a	0	1	0.412841796875	0.57763671875	lower	../fonts/amplitud.ttf
2053.23	n/a	WORD	1026615	wordpools/wasnorm_wordpool_less_exclusions.txt	LTP180	ltpFR	5	12	1	PASTRY	1022	n/a	0	1	0.412841796875	0.57763671875	lower	../fonts/amplitud.ttf
2057.122	n/a	WORD	1028561	wordpools/wasnorm_wordpool_less_exclusions.txt	LTP180	ltpFR	5	12	1	SHOE	1288	n/a	0	1	0.412841796875	0.57763671875	lower	../fonts/amplitud.ttf
2061.154	n/a	WORD	1030577	wordpools/wasnorm_wordpool_less_exclusions.txt	LTP180	ltpFR	5	12	1	COMEDIAN	352	n/a	1	1	0.412841796875	0.57763671875	lower	../fonts/amplitud.ttf
2065.19	n/a	WORD	1032595	wordpools/wasnorm_wordpool_less_exclusions.txt	LTP180	ltpFR	5	12	1	TOURIST	1488	n/a	1	1	0.412841796875	0.57763671875	lower	../fonts/amplitud.ttf
2069.15	n/a	WORD	1034575	wordpools/wasnorm_wordpool_less_exclusions.txt	LTP180	ltpFR	5	12	1	LEAF	808	n/a	1	1	0.412841796875	0.57763671875	lower	../fonts/amplitud.ttf
2073.316	n/a	WORD	1036658	wordpools/wasnorm_wordpool_less_exclusions.txt	LTP180	ltpFR	5	12	1	DOUGHNUT	490	n/a	0	1	0.412841796875	0.57763671875	lower	../fonts/amplitud.ttf
2077.448	n/a	WORD	1038724	wordpools/wasnorm_wordpool_less_exclusions.txt	LTP180	ltpFR	5	12	1	GYMNAST	675	n/a	1	1	0.412841796875	0.57763671875	lower	../fonts/amplitud.ttf
2081.548	n/a	WORD	1040774	wordpools/wasnorm_wordpool_less_exclusions.txt	LTP180	ltpFR	5	12	1	SWAN	1417	n/a	1	1	0.412841796875	0.57763671875	lower	../fonts/amplitud.ttf
2085.696	n/a	WORD	1042848	wordpools/wasnorm_wordpool_less_exclusions.txt	LTP180	ltpFR	5	12	1	FINGERNAIL	568	n/a	1	1	0.412841796875	0.57763671875	lower	../fonts/amplitud.ttf
2089.712	n/a	WORD	1044856	wordpools/wasnorm_wordpool_less_exclusions.txt	LTP180	ltpFR	5	12	1	BADGE	68	n/a	0	1	0.412841796875	0.57763671875	lower	../fonts/amplitud.ttf
2093.544	n/a	WORD	1046772	wordpools/wasnorm_wordpool_less_exclusions.txt	LTP180	ltpFR	5	12	1	CHAUFFEUR	283	n/a	1	1	0.412841796875	0.57763671875	lower	../fonts/amplitud.ttf
2097.442	n/a	WORD	1048721	wordpools/wasnorm_wordpool_less_exclusions.txt	LTP180	ltpFR	5	12	1	VEHICLE	1553	n/a	0	1	0.412841796875	0.57763671875	lower	../fonts/amplitud.ttf
2101.54	n/a	WORD	1050770	wordpools/wasnorm_wordpool_less_exclusions.txt	LTP180	ltpFR	5	12	1	GROCERIES	663	n/a	0	1	0.412841796875	0.57763671875	lower	../fonts/amplitud.ttf
2105.476	n/a	WORD	1052738	wordpools/wasnorm_wordpool_less_exclusions.txt	LTP180	ltpFR	5	12	1	SHERIFF	1284	n/a	1	1	0.412841796875	0.57763671875	lower	../fonts/amplitud.ttf
2109.472	n/a	WORD	1054736	wordpools/wasnorm_wordpool_less_exclusions.txt	LTP180	ltpFR	5	12	1	MARKET	871	n/a	0	1	0.412841796875	0.57763671875	lower	../fonts/amplitud.ttf
2115.178	n/a	REC_START	1057589	n/a	LTP180	ltpFR	5	12	n/a	n/a	n/a	n/a	n/a	n/a	n/a	n/a	n/a	n/a
2115.732	n/a	REC_WORD	1057866	wordpools/wasnorm_wordpool_less_exclusions.txt	LTP180	ltpFR	5	12	1	TART	1436	n/a	0	n/a	n/a	n/a	n/a	n/a
2117.232	n/a	REC_WORD	1058616	wordpools/wasnorm_wordpool_less_exclusions.txt	LTP180	ltpFR	5	12	1	TOURIST	1488	n/a	1	n/a	n/a	n/a	n/a	n/a
2117.92	n/a	REC_WORD	1058960	wordpools/wasnorm_wordpool_less_exclusions.txt	LTP180	ltpFR	5	12	1	MARKET	871	n/a	0	n/a	n/a	n/a	n/a	n/a
2118.594	n/a	REC_WORD	1059297	wordpools/wasnorm_wordpool_less_exclusions.txt	LTP180	ltpFR	5	12	1	SHERIFF	1284	n/a	1	n/a	n/a	n/a	n/a	n/a
2120.38	n/a	REC_WORD	1060190	wordpools/wasnorm_wordpool_less_exclusions.txt	LTP180	ltpFR	5	12	1	SHOE	1288	n/a	0	n/a	n/a	n/a	n/a	n/a
2134.924	n/a	REC_WORD	1067462	wordpools/wasnorm_wordpool_less_exclusions.txt	LTP180	ltpFR	5	12	1	GROCERIES	663	n/a	0	n/a	n/a	n/a	n/a	n/a
2137.234	n/a	REC_WORD_VV	1068617	wordpools/wasnorm_wordpool_less_exclusions.txt	LTP180	ltpFR	5	12	n/a	<>	-1	n/a	n/a	n/a	n/a	n/a	n/a	n/a
2141.892	n/a	REC_WORD	1070946	wordpools/wasnorm_wordpool_less_exclusions.txt	LTP180	ltpFR	5	12	1	MARKET	871	n/a	0	n/a	n/a	n/a	n/a	n/a
2150.904	n/a	REC_WORD	1075452	wordpools/wasnorm_wordpool_less_exclusions.txt	LTP180	ltpFR	5	12	1	SHELL	1281	n/a	0	n/a	n/a	n/a	n/a	n/a
2190.798	n/a	REST_REWET	1095399	n/a	LTP180	ltpFR	5	12	n/a	n/a	n/a	n/a	n/a	n/a	n/a	n/a	n/a	n/a
2566.638	n/a	WORD	1283319	wordpools/wasnorm_wordpool_less_exclusions.txt	LTP180	ltpFR	5	13	1	VET	1560	n/a	0	1	0.412841796875	0.57763671875	lower	../fonts/amplitud.ttf
2570.7	n/a	WORD	1285350	wordpools/wasnorm_wordpool_less_exclusions.txt	LTP180	ltpFR	5	13	1	KITCHEN	778	n/a	0	1	0.412841796875	0.57763671875	lower	../fonts/amplitud.ttf
2574.85	n/a	WORD	1287425	wordpools/wasnorm_wordpool_less_exclusions.txt	LTP180	ltpFR	5	13	0	TAPIOCA	1434	n/a	1	0	0.5869140625	0.422607421875	upper	../fonts/zerothre.ttf
2578.95	n/a	WORD	1289475	wordpools/wasnorm_wordpool_less_exclusions.txt	LTP180	ltpFR	5	13	0	OLIVE	975	n/a	0	0	0.5869140625	0.422607421875	upper	../fonts/zerothre.ttf
2582.796	n/a	WORD	1291398	wordpools/wasnorm_wordpool_less_exclusions.txt	LTP180	ltpFR	5	13	0	PORCUPINE	1107	n/a	0	0	0.5869140625	0.422607421875	upper	../fonts/zerothre.ttf
2586.778	n/a	WORD	1293389	wordpools/wasnorm_wordpool_less_exclusions.txt	LTP180	ltpFR	5	13	0	DESSERT	453	n/a	0	0	0.5869140625	0.422607421875	upper	../fonts/zerothre.ttf
2590.85	n/a	WORD	1295425	wordpools/wasnorm_wordpool_less_exclusions.txt	LTP180	ltpFR	5	13	0	PLANT	1083	n/a	0	0	0.5869140625	0.422607421875	upper	../fonts/zerothre.ttf
2594.842	n/a	WORD	1297421	wordpools/wasnorm_wordpool_less_exclusions.txt	LTP180	ltpFR	5	13	1	ROOT	1210	n/a	0	1	0.412841796875	0.57763671875	lower	../fonts/amplitud.ttf
2599.042	n/a	WORD	1299521	wordpools/wasnorm_wordpool_less_exclusions.txt	LTP180	ltpFR	5	13	1	LOOP	844	n/a	0	1	0.412841796875	0.57763671875	lower	../fonts/amplitud.ttf
2603.224	n/a	WORD	1301612	wordpools/wasnorm_wordpool_less_exclusions.txt	LTP180	ltpFR	5	13	1	ANIMAL	23	n/a	1	1	0.412841796875	0.57763671875	lower	../fonts/amplitud.ttf
2607.072	n/a	WORD	1303536	wordpools/wasnorm_wordpool_less_exclusions.txt	LTP180	ltpFR	5	13	1	PAWN	1030	n/a	0	1	0.412841796875	0.57763671875	lower	../fonts/amplitud.ttf
2611.038	n/a	WORD	1305519	wordpools/wasnorm_wordpool_less_exclusions.txt	LTP180	ltpFR	5	13	0	PLAZA	1088	n/a	0	0	0.5869140625	0.422607421875	upper	../fonts/zerothre.ttf
2615.172	n/a	WORD	1307586	wordpools/wasnorm_wordpool_less_exclusions.txt	LTP180	ltpFR	5	13	0	GUARD	667	n/a	0	0	0.5869140625	0.422607421875	upper	../fonts/zerothre.ttf
2619.254	n/a	WORD	1309627	wordpools/wasnorm_wordpool_less_exclusions.txt	LTP180	ltpFR	5	13	0	PUPPY	1144	n/a	0	0	0.5869140625	0.422607421875	upper	../fonts/zerothre.ttf
2623.218	n/a	WORD	1311609	wordpools/wasnorm_wordpool_less_exclusions.txt	LTP180	ltpFR	5	13	1	PREACHER	1119	n/a	1	1	0.412841796875	0.57763671875	lower	../fonts/amplitud.ttf
2627.166	n/a	WORD	1313583	wordpools/wasnorm_wordpool_less_exclusions.txt	LTP180	ltpFR	5	13	1	RESTAURANT	1187	n/a	0	1	0.412841796875	0.57763671875	lower	../fonts/amplitud.ttf
2632.938	n/a	REC_START	1316469	n/a	LTP180	ltpFR	5	13	n/a	n/a	n/a	n/a	n/a	n/a	n/a	n/a	n/a	n/a
2633.686	n/a	REC_WORD	1316843	wordpools/wasnorm_wordpool_less_exclusions.txt	LTP180	ltpFR	5	13	0	TAPIOCA	1434	n/a	1	n/a	n/a	n/a	n/a	n/a
2634.546	n/a	REC_WORD	1317273	wordpools/wasnorm_wordpool_less_exclusions.txt	LTP180	ltpFR	5	13	1	RESTAURANT	1187	n/a	0	n/a	n/a	n/a	n/a	n/a
2635.942	n/a	REC_WORD	1317971	wordpools/wasnorm_wordpool_less_exclusions.txt	LTP180	ltpFR	5	13	1	PREACHER	1119	n/a	1	n/a	n/a	n/a	n/a	n/a
2637.14	n/a	REC_WORD	1318570	wordpools/wasnorm_wordpool_less_exclusions.txt	LTP180	ltpFR	5	13	0	PUPPY	1144	n/a	0	n/a	n/a	n/a	n/a	n/a
2649.232	n/a	REC_WORD	1324616	wordpools/wasnorm_wordpool_less_exclusions.txt	LTP180	ltpFR	5	13	1	KITCHEN	778	n/a	0	n/a	n/a	n/a	n/a	n/a
2656.632	n/a	REC_WORD	1328316	wordpools/wasnorm_wordpool_less_exclusions.txt	LTP180	ltpFR	5	13	1	RESTAURANT	1187	n/a	0	n/a	n/a	n/a	n/a	n/a
2657.632	n/a	REC_WORD_VV	1328816	wordpools/wasnorm_wordpool_less_exclusions.txt	LTP180	ltpFR	5	13	n/a	<>	-1	n/a	n/a	n/a	n/a	n/a	n/a	n/a
2668.274	n/a	REC_WORD	1334137	wordpools/wasnorm_wordpool_less_exclusions.txt	LTP180	ltpFR	5	13	n/a	PUDDING	1139	n/a	n/a	n/a	n/a	n/a	n/a	n/a
2712.144	n/a	WORD	1356072	wordpools/wasnorm_wordpool_less_exclusions.txt	LTP180	ltpFR	5	14	0	SHINGLE	1285	n/a	n/a	0	0.5869140625	0.422607421875	upper	../fonts/zerothre.ttf
2715.174	n/a	SLOW_MSG	1357587	n/a	LTP180	ltpFR	5	14	n/a	n/a	n/a	n/a	n/a	n/a	n/a	n/a	n/a	n/a
2717.864	n/a	WORD	1358932	wordpools/wasnorm_wordpool_less_exclusions.txt	LTP180	ltpFR	5	14	0	CONE	363	n/a	n/a	0	0.5869140625	0.422607421875	upper	../fonts/zerothre.ttf
2720.892	n/a	SLOW_MSG	1360446	n/a	LTP180	ltpFR	5	14	n/a	n/a	n/a	n/a	n/a	n/a	n/a	n/a	n/a	n/a
2723.484	n/a	WORD	1361742	wordpools/wasnorm_wordpool_less_exclusions.txt	LTP180	ltpFR	5	14	0	BAND	78	n/a	0	0	0.5869140625	0.422607421875	upper	../fonts/zerothre.ttf
2727.482	n/a	WORD	1363741	wordpools/wasnorm_wordpool_less_exclusions.txt	LTP180	ltpFR	5	14	0	KITE	779	n/a	0	0	0.5869140625	0.422607421875	upper	../fonts/zerothre.ttf
2731.332	n/a	WORD	1365666	wordpools/wasnorm_wordpool_less_exclusions.txt	LTP180	ltpFR	5	14	0	FEATHER	557	n/a	0	0	0.5869140625	0.422607421875	upper	../fonts/zerothre.ttf
2735.434	n/a	WORD	1367717	wordpools/wasnorm_wordpool_less_exclusions.txt	LTP180	ltpFR	5	14	0	PERMIT	1051	n/a	0	0	0.5869140625	0.422607421875	upper	../fonts/zerothre.ttf
2739.328	n/a	WORD	1369664	wordpools/wasnorm_wordpool_less_exclusions.txt	LTP180	ltpFR	5	14	0	DASHBOARD	441	n/a	0	0	0.5869140625	0.422607421875	upper	../fonts/zerothre.ttf
2743.31	n/a	WORD	1371655	wordpools/wasnorm_wordpool_less_exclusions.txt	LTP180	ltpFR	5	14	0	RADIATOR	1156	n/a	0	0	0.5869140625	0.422607421875	upper	../fonts/zerothre.ttf
2747.14	n/a	WORD	1373570	wordpools/wasnorm_wordpool_less_exclusions.txt	LTP180	ltpFR	5	14	0	WALL	1582	n/a	0	0	0.5869140625	0.422607421875	upper	../fonts/zerothre.ttf
2751.324	n/a	WORD	1375662	wordpools/wasnorm_wordpool_less_exclusions.txt	LTP180	ltpFR	5	14	0	FLOOR	581	n/a	0	0	0.5869140625	0.422607421875	upper	../fonts/zerothre.ttf
2755.428	n/a	WORD	1377714	wordpools/wasnorm_wordpool_less_exclusions.txt	LTP180	ltpFR	5	14	0	TERRITORY	1452	n/a	0	0	0.5869140625	0.422607421875	upper	../fonts/zerothre.ttf
2759.288	n/a	WORD	1379644	wordpools/wasnorm_wordpool_less_exclusions.txt	LTP180	ltpFR	5	14	0	PRESIDENT	1121	n/a	0	0	0.5869140625	0.422607421875	upper	../fonts/zerothre.ttf
2763.202	n/a	WORD	1381601	wordpools/wasnorm_wordpool_less_exclusions.txt	LTP180	ltpFR	5	14	0	CAKE	219	n/a	0	0	0.5869140625	0.422607421875	upper	../fonts/zerothre.ttf
2767.034	n/a	WORD	1383517	wordpools/wasnorm_wordpool_less_exclusions.txt	LTP180	ltpFR	5	14	0	BEDROOM	111	n/a	0	0	0.5869140625	0.422607421875	upper	../fonts/zerothre.ttf
2771.184	n/a	WORD	1385592	wordpools/wasnorm_wordpool_less_exclusions.txt	LTP180	ltpFR	5	14	0	LODGE	839	n/a	0	0	0.5869140625	0.422607421875	upper	../fonts/zerothre.ttf
2775.014	n/a	WORD	1387507	wordpools/wasnorm_wordpool_less_exclusions.txt	LTP180	ltpFR	5	14	0	TROMBONE	1508	n/a	0	0	0.5869140625	0.422607421875	upper	../fonts/zerothre.ttf
2780.838	n/a	REC_START	1390419	n/a	LTP180	ltpFR	5	14	n/a	n/a	n/a	n/a	n/a	n/a	n/a	n/a	n/a	n/a
2781.332	n/a	REC_WORD_VV	1390666	wordpools/wasnorm_wordpool_less_exclusions.txt	LTP180	ltpFR	5	14	n/a	<>	-1	n/a	n/a	n/a	n/a	n/a	n/a	n/a
2781.632	n/a	REC_WORD	1390816	wordpools/wasnorm_wordpool_less_exclusions.txt	LTP180	ltpFR	5	14	0	DASHBOARD	441	n/a	0	n/a	n/a	n/a	n/a	n/a
2782.868	n/a	REC_WORD	1391434	wordpools/wasnorm_wordpool_less_exclusions.txt	LTP180	ltpFR	5	14	0	PRESIDENT	1121	n/a	0	n/a	n/a	n/a	n/a	n/a
2784.41	n/a	REC_WORD	1392205	wordpools/wasnorm_wordpool_less_exclusions.txt	LTP180	ltpFR	5	14	0	FLOOR	581	n/a	0	n/a	n/a	n/a	n/a	n/a
2785.852	n/a	REC_WORD	1392926	wordpools/wasnorm_wordpool_less_exclusions.txt	LTP180	ltpFR	5	14	1	ROOM	1206	n/a	0	n/a	n/a	n/a	n/a	n/a
2799.372	n/a	REC_WORD_VV	1399686	wordpools/wasnorm_wordpool_less_exclusions.txt	LTP180	ltpFR	5	14	n/a	<>	-1	n/a	n/a	n/a	n/a	n/a	n/a	n/a
2800.372	n/a	REC_WORD_VV	1400186	wordpools/wasnorm_wordpool_less_exclusions.txt	LTP180	ltpFR	5	14	n/a	<>	-1	n/a	n/a	n/a	n/a	n/a	n/a	n/a
2820.13	n/a	REC_WORD	1410065	wordpools/wasnorm_wordpool_less_exclusions.txt	LTP180	ltpFR	5	14	0	TROMBONE	1508	n/a	0	n/a	n/a	n/a	n/a	n/a
2860.106	n/a	WORD	1430053	wordpools/wasnorm_wordpool_less_exclusions.txt	LTP180	ltpFR	5	15	0	BATHTUB	100	n/a	0	0	0.5869140625	0.422607421875	upper	../fonts/zerothre.ttf
2864.006	n/a	WORD	1432003	wordpools/wasnorm_wordpool_less_exclusions.txt	LTP180	ltpFR	5	15	0	SINK	1309	n/a	0	0	0.5869140625	0.422607421875	upper	../fonts/zerothre.ttf
2867.906	n/a	WORD	1433953	wordpools/wasnorm_wordpool_less_exclusions.txt	LTP180	ltpFR	5	15	1	BRANDY	169	n/a	0	1	0.412841796875	0.57763671875	lower	../fonts/amplitud.ttf
2871.968	n/a	WORD	1435984	wordpools/wasnorm_wordpool_less_exclusions.txt	LTP180	ltpFR	5	15	1	PERSONNEL	1053	n/a	1	1	0.412841796875	0.57763671875	lower	../fonts/amplitud.ttf
2876.022	n/a	WORD	1438011	wordpools/wasnorm_wordpool_less_exclusions.txt	LTP180	ltpFR	5	15	1	FENCE	560	n/a	0	1	0.412841796875	0.57763671875	lower	../fonts/amplitud.ttf
2880.168	n/a	WORD	1440084	wordpools/wasnorm_wordpool_less_exclusions.txt	LTP180	ltpFR	5	15	0	COCKTAIL	338	n/a	0	0	0.5869140625	0.422607421875	upper	../fonts/zerothre.ttf
2884.222	n/a	WORD	1442111	wordpools/wasnorm_wordpool_less_exclusions.txt	LTP180	ltpFR	5	15	0	BLADE	134	n/a	n/a	0	0.5869140625	0.422607421875	upper	../fonts/zerothre.ttf
2887.252	n/a	SLOW_MSG	1443626	n/a	LTP180	ltpFR	5	15	n/a	n/a	n/a	n/a	n/a	n/a	n/a	n/a	n/a	n/a
2889.786	n/a	WORD	1444893	wordpools/wasnorm_wordpool_less_exclusions.txt	LTP180	ltpFR	5	15	0	YARD	1630	n/a	0	0	0.5869140625	0.422607421875	upper	../fonts/zerothre.ttf
2893.952	n/a	WORD	1446976	wordpools/wasnorm_wordpool_less_exclusions.txt	LTP180	ltpFR	5	15	0	DORM	488	n/a	1	0	0.5869140625	0.422607421875	upper	../fonts/zerothre.ttf
2897.872	n/a	WORD	1448936	wordpools/wasnorm_wordpool_less_exclusions.txt	LTP180	ltpFR	5	15	1	HALL	677	n/a	0	1	0.412841796875	0.57763671875	lower	../fonts/amplitud.ttf
2901.7	n/a	WORD	1450850	wordpools/wasnorm_wordpool_less_exclusions.txt	LTP180	ltpFR	5	15	1	FLUTE	585	n/a	0	1	0.412841796875	0.57763671875	lower	../fonts/amplitud.ttf
2905.714	n/a	WORD	1452857	wordpools/wasnorm_wordpool_less_exclusions.txt	LTP180	ltpFR	5	15	1	FLEA	577	n/a	0	1	0.412841796875	0.57763671875	lower	../fonts/amplitud.ttf
2909.712	n/a	WORD	1454856	wordpools/wasnorm_wordpool_less_exclusions.txt	LTP180	ltpFR	5	15	1	OBOE	969	n/a	0	1	0.412841796875	0.57763671875	lower	../fonts/amplitud.ttf
2913.896	n/a	WORD	1456948	wordpools/wasnorm_wordpool_less_exclusions.txt	LTP180	ltpFR	5	15	1	CLIMBER	323	n/a	1	1	0.412841796875	0.57763671875	lower	../fonts/amplitud.ttf
2918.012	n/a	WORD	1459006	wordpools/wasnorm_wordpool_less_exclusions.txt	LTP180	ltpFR	5	15	0	MOB	904	n/a	1	0	0.5869140625	0.422607421875	upper	../fonts/zerothre.ttf
2922.044	n/a	WORD	1461022	wordpools/wasnorm_wordpool_less_exclusions.txt	LTP180	ltpFR	5	15	0	MONK	910	n/a	1	0	0.5869140625	0.422607421875	upper	../fonts/zerothre.ttf
2927.984	n/a	REC_START	1463992	n/a	LTP180	ltpFR	5	15	n/a	n/a	n/a	n/a	n/a	n/a	n/a	n/a	n/a	n/a
2928.442	n/a	REC_WORD	1464221	wordpools/wasnorm_wordpool_less_exclusions.txt	LTP180	ltpFR	5	15	0	MONK	910	n/a	1	n/a	n/a	n/a	n/a	n/a
2929.216	n/a	REC_WORD	1464608	wordpools/wasnorm_wordpool_less_exclusions.txt	LTP180	ltpFR	5	15	1	FLEA	577	n/a	0	n/a	n/a	n/a	n/a	n/a
2930.128	n/a	REC_WORD	1465064	wordpools/wasnorm_wordpool_less_exclusions.txt	LTP180	ltpFR	5	15	n/a	TICK	1463	n/a	n/a	n/a	n/a	n/a	n/a	n/a
2931.012	n/a	REC_WORD	1465506	wordpools/wasnorm_wordpool_less_exclusions.txt	LTP180	ltpFR	5	15	0	BATHTUB	100	n/a	0	n/a	n/a	n/a	n/a	n/a
2948.692	n/a	REC_WORD	1474346	wordpools/wasnorm_wordpool_less_exclusions.txt	LTP180	ltpFR	5	15	0	MOB	904	n/a	1	n/a	n/a	n/a	n/a	n/a
2975.194	n/a	REC_WORD	1487597	wordpools/wasnorm_wordpool_less_exclusions.txt	LTP180	ltpFR	5	15	1	FLUTE	585	n/a	0	n/a	n/a	n/a	n/a	n/a
2983.704	n/a	REC_WORD	1491852	wordpools/wasnorm_wordpool_less_exclusions.txt	LTP180	ltpFR	5	15	1	CLIMBER	323	n/a	1	n/a	n/a	n/a	n/a	n/a
3007.07	n/a	WORD	1503535	wordpools/wasnorm_wordpool_less_exclusions.txt	LTP180	ltpFR	5	16	1	TUNNEL	1519	n/a	0	1	0.412841796875	0.57763671875	lower	../fonts/amplitud.ttf
3010.932	n/a	WORD	1505466	wordpools/wasnorm_wordpool_less_exclusions.txt	LTP180	ltpFR	5	16	1	MISTER	901	n/a	1	1	0.412841796875	0.57763671875	lower	../fonts/amplitud.ttf
3014.798	n/a	WORD	1507399	wordpools/wasnorm_wordpool_less_exclusions.txt	LTP180	ltpFR	5	16	1	SCREW	1254	n/a	0	1	0.412841796875	0.57763671875	lower	../fonts/amplitud.ttf
3018.998	n/a	WORD	1509499	wordpools/wasnorm_wordpool_less_exclusions.txt	LTP180	ltpFR	5	16	1	CASHIER	254	n/a	1	1	0.412841796875	0.57763671875	lower	../fonts/amplitud.ttf
3022.828	n/a	WORD	1511414	wordpools/wasnorm_wordpool_less_exclusions.txt	LTP180	ltpFR	5	16	1	RAILROAD	1162	n/a	0	1	0.412841796875	0.57763671875	lower	../fonts/amplitud.ttf
3026.826	n/a	WORD	1513413	wordpools/wasnorm_wordpool_less_exclusions.txt	LTP180	ltpFR	5	16	1	ESSAY	540	n/a	0	1	0.412841796875	0.57763671875	lower	../fonts/amplitud.ttf
3030.992	n/a	WORD	1515496	wordpools/wasnorm_wordpool_less_exclusions.txt	LTP180	ltpFR	5	16	1	LIST	830	n/a	0	1	0.412841796875	0.57763671875	lower	../fonts/amplitud.ttf
3035.176	n/a	WORD	1517588	wordpools/wasnorm_wordpool_less_exclusions.txt	LTP180	ltpFR	5	16	1	ELEPHANT	523	n/a	1	1	0.412841796875	0.57763671875	lower	../fonts/amplitud.ttf
3039.208	n/a	WORD	1519604	wordpools/wasnorm_wordpool_less_exclusions.txt	LTP180	ltpFR	5	16	1	APPLE	33	n/a	1	1	0.412841796875	0.57763671875	lower	../fonts/amplitud.ttf
3043.038	n/a	WORD	1521519	wordpools/wasnorm_wordpool_less_exclusions.txt	LTP180	ltpFR	5	16	1	SERVER	1272	n/a	1	1	0.412841796875	0.57763671875	lower	../fonts/amplitud.ttf
3047.104	n/a	WORD	1523552	wordpools/wasnorm_wordpool_less_exclusions.txt	LTP180	ltpFR	5	16	1	CRAB	397	n/a	1	1	0.412841796875	0.57763671875	lower	../fonts/amplitud.ttf
3050.938	n/a	WORD	1525469	wordpools/wasnorm_wordpool_less_exclusions.txt	LTP180	ltpFR	5	16	1	WALLET	1583	n/a	0	1	0.412841796875	0.57763671875	lower	../fonts/amplitud.ttf
3054.902	n/a	WORD	1527451	wordpools/wasnorm_wordpool_less_exclusions.txt	LTP180	ltpFR	5	16	1	PELT	1040	n/a	0	1	0.412841796875	0.57763671875	lower	../fonts/amplitud.ttf
3058.934	n/a	WORD	1529467	wordpools/wasnorm_wordpool_less_exclusions.txt	LTP180	ltpFR	5	16	1	BLACKBERRY	132	n/a	1	1	0.412841796875	0.57763671875	lower	../fonts/amplitud.ttf
3062.798	n/a	WORD	1531399	wordpools/wasnorm_wordpool_less_exclusions.txt	LTP180	ltpFR	5	16	1	PEACH	1031	n/a	1	1	0.412841796875	0.57763671875	lower	../fonts/amplitud.ttf
3066.93	n/a	WORD	1533465	wordpools/wasnorm_wordpool_less_exclusions.txt	LTP180	ltpFR	5	16	1	OWL	992	n/a	1	1	0.412841796875	0.57763671875	lower	../fonts/amplitud.ttf
3072.888	n/a	REC_START	1536444	n/a	LTP180	ltpFR	5	16	n/a	n/a	n/a	n/a	n/a	n/a	n/a	n/a	n/a	n/a
3074.378	n/a	REC_WORD	1537189	wordpools/wasnorm_wordpool_less_exclusions.txt	LTP180	ltpFR	5	16	1	TUNNEL	1519	n/a	0	n/a	n/a	n/a	n/a	n/a
3075.108	n/a	REC_WORD	1537554	wordpools/wasnorm_wordpool_less_exclusions.txt	LTP180	ltpFR	5	16	1	OWL	992	n/a	1	n/a	n/a	n/a	n/a	n/a
3075.81	n/a	REC_WORD	1537905	wordpools/wasnorm_wordpool_less_exclusions.txt	LTP180	ltpFR	5	16	1	PEACH	1031	n/a	1	n/a	n/a	n/a	n/a	n/a
3076.514	n/a	REC_WORD	1538257	wordpools/wasnorm_wordpool_less_exclusions.txt	LTP180	ltpFR	5	16	1	BLACKBERRY	132	n/a	1	n/a	n/a	n/a	n/a	n/a
3077.812	n/a	REC_WORD	1538906	wordpools/wasnorm_wordpool_less_exclusions.txt	LTP180	ltpFR	5	16	1	MISTER	901	n/a	1	n/a	n/a	n/a	n/a	n/a
3079.856	n/a	REC_WORD_VV	1539928	wordpools/wasnorm_wordpool_less_exclusions.txt	LTP180	ltpFR	5	16	n/a	<>	-1	n/a	n/a	n/a	n/a	n/a	n/a	n/a
3080.514	n/a	REC_WORD	1540257	wordpools/wasnorm_wordpool_less_exclusions.txt	LTP180	ltpFR	5	16	1	WALLET	1583	n/a	0	n/a	n/a	n/a	n/a	n/a
3091.82	n/a	REC_WORD	1545910	wordpools/wasnorm_wordpool_less_exclusions.txt	LTP180	ltpFR	5	16	1	BLACKBERRY	132	n/a	1	n/a	n/a	n/a	n/a	n/a
3100.48	n/a	REC_WORD	1550240	wordpools/wasnorm_wordpool_less_exclusions.txt	LTP180	ltpFR	5	16	1	OWL	992	n/a	1	n/a	n/a	n/a	n/a	n/a
3146.918	n/a	REC_WORD	1573459	wordpools/wasnorm_wordpool_less_exclusions.txt	LTP180	ltpFR	5	16	1	ELEPHANT	523	n/a	1	n/a	n/a	n/a	n/a	n/a
3172.318	n/a	REC_START	1586159	n/a	LTP180	ltpFR	5	n/a	n/a	n/a	n/a	n/a	n/a	n/a	n/a	n/a	n/a	n/a
3172.946	n/a	FFR_REC_WORD	1586473	wordpools/wasnorm_wordpool_less_exclusions.txt	LTP180	ltpFR	5	n/a	1	TUNNEL	1519	n/a	0	n/a	n/a	n/a	n/a	n/a
3173.878	n/a	FFR_REC_WORD	1586939	wordpools/wasnorm_wordpool_less_exclusions.txt	LTP180	ltpFR	5	n/a	1	BLACKBERRY	132	n/a	1	n/a	n/a	n/a	n/a	n/a
3175.336	n/a	FFR_REC_WORD	1587668	wordpools/wasnorm_wordpool_less_exclusions.txt	LTP180	ltpFR	5	n/a	1	OWL	992	n/a	1	n/a	n/a	n/a	n/a	n/a
3176.064	n/a	FFR_REC_WORD	1588032	wordpools/wasnorm_wordpool_less_exclusions.txt	LTP180	ltpFR	5	n/a	1	RESTAURANT	1187	n/a	0	n/a	n/a	n/a	n/a	n/a
3179.322	n/a	FFR_REC_WORD	1589661	wordpools/wasnorm_wordpool_less_exclusions.txt	LTP180	ltpFR	5	n/a	1	MISTER	901	n/a	1	n/a	n/a	n/a	n/a	n/a
3181.462	n/a	FFR_REC_WORD	1590731	wordpools/wasnorm_wordpool_less_exclusions.txt	LTP180	ltpFR	5	n/a	-1	BREAST	171	n/a	-1	n/a	n/a	n/a	n/a	n/a
3182.744	n/a	FFR_REC_WORD_VV	1591372	wordpools/wasnorm_wordpool_less_exclusions.txt	LTP180	ltpFR	5	n/a	n/a	<>	-1	n/a	n/a	n/a	n/a	n/a	n/a	n/a
3183.45	n/a	FFR_REC_WORD	1591725	wordpools/wasnorm_wordpool_less_exclusions.txt	LTP180	ltpFR	5	n/a	-1	FEMALE	559	n/a	-1	n/a	n/a	n/a	n/a	n/a
3189.066	n/a	FFR_REC_WORD	1594533	wordpools/wasnorm_wordpool_less_exclusions.txt	LTP180	ltpFR	5	n/a	1	GROCERIES	663	n/a	0	n/a	n/a	n/a	n/a	n/a
3191.62	n/a	FFR_REC_WORD	1595810	wordpools/wasnorm_wordpool_less_exclusions.txt	LTP180	ltpFR	5	n/a	n/a	SUPERMARKET	1409	n/a	n/a	n/a	n/a	n/a	n/a	n/a
3192.668	n/a	FFR_REC_WORD	1596334	wordpools/wasnorm_wordpool_less_exclusions.txt	LTP180	ltpFR	5	n/a	1	TUNNEL	1519	n/a	0	n/a	n/a	n/a	n/a	n/a
3198.784	n/a	FFR_REC_WORD	1599392	wordpools/wasnorm_wordpool_less_exclusions.txt	LTP180	ltpFR	5	n/a	n/a	LIZARD	834	n/a	n/a	n/a	n/a	n/a	n/a	n/a
3200.5	n/a	FFR_REC_WORD	1600250	wordpools/wasnorm_wordpool_less_exclusions.txt	LTP180	ltpFR	5	n/a	n/a	TICK	1463	n/a	n/a	n/a	n/a	n/a	n/a	n/a
3202.386	n/a	FFR_REC_WORD	1601193	wordpools/wasnorm_wordpool_less_exclusions.txt	LTP180	ltpFR	5	n/a	1	FLEA	577	n/a	0	n/a	n/a	n/a	n/a	n/a
3205.568	n/a	FFR_REC_WORD	1602784	wordpools/wasnorm_wordpool_less_exclusions.txt	LTP180	ltpFR	5	n/a	1	ELEPHANT	523	n/a	1	n/a	n/a	n/a	n/a	n/a
3207.818	n/a	FFR_REC_WORD_VV	1603909	wordpools/wasnorm_wordpool_less_exclusions.txt	LTP180	ltpFR	5	n/a	n/a	<>	-1	n/a	n/a	n/a	n/a	n/a	n/a	n/a
3214.838	n/a	FFR_REC_WORD	1607419	wordpools/wasnorm_wordpool_less_exclusions.txt	LTP180	ltpFR	5	n/a	1	MISTER	901	n/a	1	n/a	n/a	n/a	n/a	n/a
3228.598	n/a	FFR_REC_WORD	1614299	wordpools/wasnorm_wordpool_less_exclusions.txt	LTP180	ltpFR	5	n/a	n/a	LIZARD	834	n/a	n/a	n/a	n/a	n/a	n/a	n/a
3235.536	n/a	FFR_REC_WORD	1617768	wordpools/wasnorm_wordpool_less_exclusions.txt	LTP180	ltpFR	5	n/a	1	SERVER	1272	n/a	1	n/a	n/a	n/a	n/a	n/a
3237.816	n/a	FFR_REC_WORD	1618908	wordpools/wasnorm_wordpool_less_exclusions.txt	LTP180	ltpFR	5	n/a	n/a	WAITRESS	1581	n/a	n/a	n/a	n/a	n/a	n/a	n/a
3244.492	n/a	FFR_REC_WORD	1622246	wordpools/wasnorm_wordpool_less_exclusions.txt	LTP180	ltpFR	5	n/a	0	PRESIDENT	1121	n/a	0	n/a	n/a	n/a	n/a	n/a
3246.008	n/a	FFR_REC_WORD	1623004	wordpools/wasnorm_wordpool_less_exclusions.txt	LTP180	ltpFR	5	n/a	1	OFFICE	972	n/a	1	n/a	n/a	n/a	n/a	n/a
3247.012	n/a	FFR_REC_WORD	1623506	wordpools/wasnorm_wordpool_less_exclusions.txt	LTP180	ltpFR	5	n/a	-1	SENATE	1267	n/a	-1	n/a	n/a	n/a	n/a	n/a
3247.88	n/a	FFR_REC_WORD	1623940	wordpools/wasnorm_wordpool_less_exclusions.txt	LTP180	ltpFR	5	n/a	-1	SENATOR	1268	n/a	-1	n/a	n/a	n/a	n/a	n/a
3261.314	n/a	FFR_REC_WORD	1630657	wordpools/wasnorm_wordpool_less_exclusions.txt	LTP180	ltpFR	5	n/a	1	ROOM	1206	n/a	0	n/a	n/a	n/a	n/a	n/a
3263.34	n/a	FFR_REC_WORD	1631670	wordpools/wasnorm_wordpool_less_exclusions.txt	LTP180	ltpFR	5	n/a	1	COURT	391	n/a	1	n/a	n/a	n/a	n/a	n/a
3264.982	n/a	FFR_REC_WORD	1632491	wordpools/wasnorm_wordpool_less_exclusions.txt	LTP180	ltpFR	5	n/a	1	WITNESS	1618	n/a	0	n/a	n/a	n/a	n/a	n/a
3275.098	n/a	FFR_REC_WORD	1637549	wordpools/wasnorm_wordpool_less_exclusions.txt	LTP180	ltpFR	5	n/a	1	WALLET	1583	n/a	0	n/a	n/a	n/a	n/a	n/a
3277.794	n/a	FFR_REC_WORD	1638897	wordpools/wasnorm_wordpool_less_exclusions.txt	LTP180	ltpFR	5	n/a	1	SHOE	1288	n/a	0	n/a	n/a	n/a	n/a	n/a
3289.202	n/a	FFR_REC_WORD	1644601	wordpools/wasnorm_wordpool_less_exclusions.txt	LTP180	ltpFR	5	n/a	n/a	HOME	712	n/a	n/a	n/a	n/a	n/a	n/a	n/a
3304.744	n/a	FFR_REC_WORD	1652372	wordpools/wasnorm_wordpool_less_exclusions.txt	LTP180	ltpFR	5	n/a	n/a	LOBSTER	837	n/a	n/a	n/a	n/a	n/a	n/a	n/a
3314.02	n/a	FFR_REC_WORD_VV	1657010	wordpools/wasnorm_wordpool_less_exclusions.txt	LTP180	ltpFR	5	n/a	n/a	<>	-1	n/a	n/a	n/a	n/a	n/a	n/a	n/a
3315.02	n/a	FFR_REC_WORD_VV	1657510	wordpools/wasnorm_wordpool_less_exclusions.txt	LTP180	ltpFR	5	n/a	n/a	<>	-1	n/a	n/a	n/a	n/a	n/a	n/a	n/a
3326.928	n/a	FFR_REC_WORD	1663464	wordpools/wasnorm_wordpool_less_exclusions.txt	LTP180	ltpFR	5	n/a	n/a	PANTS	1010	n/a	n/a	n/a	n/a	n/a	n/a	n/a
3333.47	n/a	FFR_REC_WORD	1666735	wordpools/wasnorm_wordpool_less_exclusions.txt	LTP180	ltpFR	5	n/a	1	ANKLE	24	n/a	1	n/a	n/a	n/a	n/a	n/a
3353.4	n/a	FFR_REC_WORD	1676700	wordpools/wasnorm_wordpool_less_exclusions.txt	LTP180	ltpFR	5	n/a	-1	FIDDLE	561	n/a	-1	n/a	n/a	n/a	n/a	n/a
3354.454	n/a	FFR_REC_WORD	1677227	wordpools/wasnorm_wordpool_less_exclusions.txt	LTP180	ltpFR	5	n/a	-1	VIOLIN	1571	n/a	-1	n/a	n/a	n/a	n/a	n/a
3363.438	n/a	FFR_REC_WORD	1681719	wordpools/wasnorm_wordpool_less_exclusions.txt	LTP180	ltpFR	5	n/a	1	TRUMPET	1513	n/a	0	n/a	n/a	n/a	n/a	n/a
3377.278	n/a	FFR_REC_WORD	1688639	wordpools/wasnorm_wordpool_less_exclusions.txt	LTP180	ltpFR	5	n/a	1	TUNNEL	1519	n/a	0	n/a	n/a	n/a	n/a	n/a
3383.294	n/a	FFR_REC_WORD	1691647	wordpools/wasnorm_wordpool_less_exclusions.txt	LTP180	ltpFR	5	n/a	1	RAILROAD	1162	n/a	0	n/a	n/a	n/a	n/a	n/a
3384.89	n/a	FFR_REC_WORD_VV	1692445	wordpools/wasnorm_wordpool_less_exclusions.txt	LTP180	ltpFR	5	n/a	n/a	<>	-1	n/a	n/a	n/a	n/a	n/a	n/a	n/a
3402.088	n/a	FFR_REC_WORD	1701044	wordpools/wasnorm_wordpool_less_exclusions.txt	LTP180	ltpFR	5	n/a	1	OBOE	969	n/a	0	n/a	n/a	n/a	n/a	n/a
3414.464	n/a	FFR_REC_WORD	1707232	wordpools/wasnorm_wordpool_less_exclusions.txt	LTP180	ltpFR	5	n/a	-1	TURNIP	1521	n/a	-1	n/a	n/a	n/a	n/a	n/a
3427.596	n/a	FFR_REC_WORD	1713798	wordpools/wasnorm_wordpool_less_exclusions.txt	LTP180	ltpFR	5	n/a	0	NOSE	957	n/a	0	n/a	n/a	n/a	n/a	n/a
3449.802	n/a	FFR_REC_WORD	1724901	wordpools/wasnorm_wordpool_less_exclusions.txt	LTP180	ltpFR	5	n/a	1	SCREW	1254	n/a	0	n/a	n/a	n/a	n/a	n/a
3471.188	n/a	FFR_REC_WORD	1735594	wordpools/wasnorm_wordpool_less_exclusions.txt	LTP180	ltpFR	5	n/a	1	RESTAURANT	1187	n/a	0	n/a	n/a	n/a	n/a	n/a
3472.188	n/a	FFR_REC_WORD_VV	1736094	wordpools/wasnorm_wordpool_less_exclusions.txt	LTP180	ltpFR	5	n/a	n/a	<>	-1	n/a	n/a	n/a	n/a	n/a	n/a	n/a
3529.684	n/a	REC_START	1764842	n/a	LTP180	ltpFR	5	1	n/a	n/a	n/a	n/a	n/a	n/a	n/a	n/a	n/a	n/a
3529.736	n/a	RECOG_LURE	1764868	n/a	LTP180	ltpFR	5	1	n/a	DEODORANT	448	3	n/a	n/a	n/a	n/a	n/a	n/a
3534.338	n/a	RECOG_RESP	1767169	n/a	LTP180	ltpFR	5	1	n/a	DEODORANT	448	n/a	n/a	n/a	n/a	n/a	n/a	n/a
3537.024	n/a	RECOG_CONF	1768512	n/a	LTP180	ltpFR	5	1	n/a	DEODORANT	448	3	n/a	n/a	n/a	n/a	n/a	n/a
3539.0	n/a	RECOG_LURE	1769500	n/a	LTP180	ltpFR	5	1	n/a	SACK	1220	3	n/a	n/a	n/a	n/a	n/a	n/a
3542.836	n/a	RECOG_RESP	1771418	n/a	LTP180	ltpFR	5	1	n/a	SACK	1220	n/a	n/a	n/a	n/a	n/a	n/a	n/a
3544.11	n/a	RECOG_CONF	1772055	n/a	LTP180	ltpFR	5	1	n/a	SACK	1220	3	n/a	n/a	n/a	n/a	n/a	n/a
3546.228	n/a	RECOG_TARGET	1773114	n/a	LTP180	ltpFR	5	1	0	BRIDGE	174	5	n/a	n/a	n/a	n/a	n/a	n/a
3547.244	n/a	RECOG_RESP	1773622	n/a	LTP180	ltpFR	5	1	0	BRIDGE	174	n/a	n/a	n/a	n/a	n/a	n/a	n/a
3549.016	n/a	RECOG_CONF	1774508	n/a	LTP180	ltpFR	5	1	0	BRIDGE	174	5	n/a	n/a	n/a	n/a	n/a	n/a
3551.064	n/a	RECOG_TARGET	1775532	n/a	LTP180	ltpFR	5	1	1	SHERIFF	1284	5	1	n/a	n/a	n/a	n/a	n/a
3552.144	n/a	RECOG_RESP	1776072	n/a	LTP180	ltpFR	5	1	1	SHERIFF	1284	n/a	1	n/a	n/a	n/a	n/a	n/a
3553.262	n/a	RECOG_CONF	1776631	n/a	LTP180	ltpFR	5	1	1	SHERIFF	1284	5	1	n/a	n/a	n/a	n/a	n/a
3555.078	n/a	RECOG_TARGET	1777539	n/a	LTP180	ltpFR	5	1	-1	SENATOR	1268	5	-1	n/a	n/a	n/a	n/a	n/a
3556.084	n/a	RECOG_RESP	1778042	n/a	LTP180	ltpFR	5	1	-1	SENATOR	1268	n/a	-1	n/a	n/a	n/a	n/a	n/a
3557.514	n/a	RECOG_CONF	1778757	n/a	LTP180	ltpFR	5	1	-1	SENATOR	1268	5	-1	n/a	n/a	n/a	n/a	n/a
3559.278	n/a	RECOG_TARGET	1779639	n/a	LTP180	ltpFR	5	1	-1	FRUIT	610	5	-1	n/a	n/a	n/a	n/a	n/a
3560.254	n/a	RECOG_RESP	1780127	n/a	LTP180	ltpFR	5	1	-1	FRUIT	610	n/a	-1	n/a	n/a	n/a	n/a	n/a
3561.414	n/a	RECOG_CONF	1780707	n/a	LTP180	ltpFR	5	1	-1	FRUIT	610	5	-1	n/a	n/a	n/a	n/a	n/a
3563.264	n/a	RECOG_LURE	1781632	n/a	LTP180	ltpFR	5	1	n/a	TAR	1435	2	n/a	n/a	n/a	n/a	n/a	n/a
3565.694	n/a	RECOG_RESP	1782847	n/a	LTP180	ltpFR	5	1	n/a	TAR	1435	n/a	n/a	n/a	n/a	n/a	n/a	n/a
3566.762	n/a	RECOG_CONF	1783381	n/a	LTP180	ltpFR	5	1	n/a	TAR	1435	2	n/a	n/a	n/a	n/a	n/a	n/a
3568.814	n/a	RECOG_TARGET	1784407	n/a	LTP180	ltpFR	5	1	-1	PORT	1110	3	-1	n/a	n/a	n/a	n/a	n/a
3569.882	n/a	RECOG_RESP	1784941	n/a	LTP180	ltpFR	5	1	-1	PORT	1110	n/a	-1	n/a	n/a	n/a	n/a	n/a
3570.932	n/a	RECOG_CONF	1785466	n/a	LTP180	ltpFR	5	1	-1	PORT	1110	3	-1	n/a	n/a	n/a	n/a	n/a
3572.646	n/a	RECOG_TARGET	1786323	n/a	LTP180	ltpFR	5	1	-1	PEAR	1033	3	-1	n/a	n/a	n/a	n/a	n/a
3573.556	n/a	RECOG_RESP	1786778	n/a	LTP180	ltpFR	5	1	-1	PEAR	1033	n/a	-1	n/a	n/a	n/a	n/a	n/a
3574.636	n/a	RECOG_CONF	1787318	n/a	LTP180	ltpFR	5	1	-1	PEAR	1033	3	-1	n/a	n/a	n/a	n/a	n/a
3576.414	n/a	RECOG_TARGET	1788207	n/a	LTP180	ltpFR	5	1	0	BOARD	143	1	0	n/a	n/a	n/a	n/a	n/a
3578.556	n/a	RECOG_RESP	1789278	n/a	LTP180	ltpFR	5	1	0	BOARD	143	n/a	0	n/a	n/a	n/a	n/a	n/a
3579.398	n/a	RECOG_CONF	1789699	n/a	LTP180	ltpFR	5	1	0	BOARD	143	1	0	n/a	n/a	n/a	n/a	n/a
3581.598	n/a	RECOG_LURE	1790799	n/a	LTP180	ltpFR	5	1	n/a	PUB	1135	5	n/a	n/a	n/a	n/a	n/a	n/a
3582.994	n/a	RECOG_RESP	1791497	n/a	LTP180	ltpFR	5	1	n/a	PUB	1135	n/a	n/a	n/a	n/a	n/a	n/a	n/a
3584.556	n/a	RECOG_CONF	1792278	n/a	LTP180	ltpFR	5	1	n/a	PUB	1135	5	n/a	n/a	n/a	n/a	n/a	n/a
3586.448	n/a	RECOG_LURE	1793224	n/a	LTP180	ltpFR	5	1	n/a	GARDEN	623	2	n/a	n/a	n/a	n/a	n/a	n/a
3589.074	n/a	RECOG_RESP	1794537	n/a	LTP180	ltpFR	5	1	n/a	GARDEN	623	n/a	n/a	n/a	n/a	n/a	n/a	n/a
3590.152	n/a	RECOG_CONF	1795076	n/a	LTP180	ltpFR	5	1	n/a	GARDEN	623	2	n/a	n/a	n/a	n/a	n/a	n/a
3592.462	n/a	RECOG_TARGET	1796231	n/a	LTP180	ltpFR	5	1	0	RODENT	1204	1	0	n/a	n/a	n/a	n/a	n/a
3594.102	n/a	RECOG_RESP	1797051	n/a	LTP180	ltpFR	5	1	0	RODENT	1204	n/a	0	n/a	n/a	n/a	n/a	n/a
3595.298	n/a	RECOG_CONF	1797649	n/a	LTP180	ltpFR	5	1	0	RODENT	1204	1	0	n/a	n/a	n/a	n/a	n/a
3597.072	n/a	RECOG_LURE	1798536	n/a	LTP180	ltpFR	5	1	n/a	LEADER	807	3	n/a	n/a	n/a	n/a	n/a	n/a
3600.224	n/a	RECOG_RESP	1800112	n/a	LTP180	ltpFR	5	1	n/a	LEADER	807	n/a	n/a	n/a	n/a	n/a	n/a	n/a
3601.562	n/a	RECOG_CONF	1800781	n/a	LTP180	ltpFR	5	1	n/a	LEADER	807	3	n/a	n/a	n/a	n/a	n/a	n/a
3603.23	n/a	RECOG_TARGET	1801615	n/a	LTP180	ltpFR	5	1	0	VINEGAR	1569	3	0	n/a	n/a	n/a	n/a	n/a
3605.082	n/a	RECOG_RESP	1802541	n/a	LTP180	ltpFR	5	1	0	VINEGAR	1569	n/a	0	n/a	n/a	n/a	n/a	n/a
3606.248	n/a	RECOG_CONF	1803124	n/a	LTP180	ltpFR	5	1	0	VINEGAR	1569	3	0	n/a	n/a	n/a	n/a	n/a
3608.13	n/a	RECOG_LURE	1804065	n/a	LTP180	ltpFR	5	1	n/a	PISTOL	1075	3	n/a	n/a	n/a	n/a	n/a	n/a
3609.214	n/a	RECOG_RESP	1804607	n/a	LTP180	ltpFR	5	1	n/a	PISTOL	1075	n/a	n/a	n/a	n/a	n/a	n/a	n/a
3610.246	n/a	RECOG_CONF	1805123	n/a	LTP180	ltpFR	5	1	n/a	PISTOL	1075	3	n/a	n/a	n/a	n/a	n/a	n/a
3611.732	n/a	RECOG_TARGET	1805866	n/a	LTP180	ltpFR	5	1	-1	CAPITAL	238	5	-1	n/a	n/a	n/a	n/a	n/a
3612.696	n/a	RECOG_RESP	1806348	n/a	LTP180	ltpFR	5	1	-1	CAPITAL	238	n/a	-1	n/a	n/a	n/a	n/a	n/a
3613.738	n/a	RECOG_CONF	1806869	n/a	LTP180	ltpFR	5	1	-1	CAPITAL	238	5	-1	n/a	n/a	n/a	n/a	n/a
3615.56	n/a	RECOG_TARGET	1807780	n/a	LTP180	ltpFR	5	1	-1	TRAY	1498	2	-1	n/a	n/a	n/a	n/a	n/a
3617.316	n/a	RECOG_RESP	1808658	n/a	LTP180	ltpFR	5	1	-1	TRAY	1498	n/a	-1	n/a	n/a	n/a	n/a	n/a
3618.43	n/a	RECOG_CONF	1809215	n/a	LTP180	ltpFR	5	1	-1	TRAY	1498	2	-1	n/a	n/a	n/a	n/a	n/a
3620.126	n/a	RECOG_LURE	1810063	n/a	LTP180	ltpFR	5	1	n/a	XEROX	1628	5	n/a	n/a	n/a	n/a	n/a	n/a
3621.106	n/a	RECOG_RESP	1810553	n/a	LTP180	ltpFR	5	1	n/a	XEROX	1628	n/a	n/a	n/a	n/a	n/a	n/a	n/a
3622.068	n/a	RECOG_CONF	1811034	n/a	LTP180	ltpFR	5	1	n/a	XEROX	1628	5	n/a	n/a	n/a	n/a	n/a	n/a
3623.608	n/a	RECOG_TARGET	1811804	n/a	LTP180	ltpFR	5	1	0	LAWYER	806	5	0	n/a	n/a	n/a	n/a	n/a
3624.83	n/a	RECOG_RESP	1812415	n/a	LTP180	ltpFR	5	1	0	LAWYER	806	n/a	0	n/a	n/a	n/a	n/a	n/a
3625.694	n/a	RECOG_CONF	1812847	n/a	LTP180	ltpFR	5	1	0	LAWYER	806	5	0	n/a	n/a	n/a	n/a	n/a
3631.424	n/a	REC_START	1815712	n/a	LTP180	ltpFR	5	2	n/a	n/a	n/a	n/a	n/a	n/a	n/a	n/a	n/a	n/a
3631.47	n/a	RECOG_LURE	1815735	n/a	LTP180	ltpFR	5	2	n/a	SUGAR	1401	5	n/a	n/a	n/a	n/a	n/a	n/a
3632.916	n/a	RECOG_RESP	1816458	n/a	LTP180	ltpFR	5	2	n/a	SUGAR	1401	n/a	n/a	n/a	n/a	n/a	n/a	n/a
3634.05	n/a	RECOG_CONF	1817025	n/a	LTP180	ltpFR	5	2	n/a	SUGAR	1401	5	n/a	n/a	n/a	n/a	n/a	n/a
3635.956	n/a	RECOG_LURE	1817978	n/a	LTP180	ltpFR	5	2	n/a	SODA	1341	5	n/a	n/a	n/a	n/a	n/a	n/a
3636.964	n/a	RECOG_RESP	1818482	n/a	LTP180	ltpFR	5	2	n/a	SODA	1341	n/a	n/a	n/a	n/a	n/a	n/a	n/a
3637.934	n/a	RECOG_CONF	1818967	n/a	LTP180	ltpFR	5	2	n/a	SODA	1341	5	n/a	n/a	n/a	n/a	n/a	n/a
3639.72	n/a	RECOG_TARGET	1819860	n/a	LTP180	ltpFR	5	2	1	MARKER	870	3	0	n/a	n/a	n/a	n/a	n/a
3641.172	n/a	RECOG_RESP	1820586	n/a	LTP180	ltpFR	5	2	1	MARKER	870	n/a	0	n/a	n/a	n/a	n/a	n/a
3642.296	n/a	RECOG_CONF	1821148	n/a	LTP180	ltpFR	5	2	1	MARKER	870	3	0	n/a	n/a	n/a	n/a	n/a
3644.22	n/a	RECOG_TARGET	1822110	n/a	LTP180	ltpFR	5	2	1	SAUCER	1237	5	0	n/a	n/a	n/a	n/a	n/a
3645.512	n/a	RECOG_RESP	1822756	n/a	LTP180	ltpFR	5	2	1	SAUCER	1237	n/a	0	n/a	n/a	n/a	n/a	n/a
3646.486	n/a	RECOG_CONF	1823243	n/a	LTP180	ltpFR	5	2	1	SAUCER	1237	5	0	n/a	n/a	n/a	n/a	n/a
3648.05	n/a	RECOG_TARGET	1824025	n/a	LTP180	ltpFR	5	2	1	PICKLE	1059	5	1	n/a	n/a	n/a	n/a	n/a
3649.252	n/a	RECOG_RESP	1824626	n/a	LTP180	ltpFR	5	2	1	PICKLE	1059	n/a	1	n/a	n/a	n/a	n/a	n/a
3650.14	n/a	RECOG_CONF	1825070	n/a	LTP180	ltpFR	5	2	1	PICKLE	1059	5	1	n/a	n/a	n/a	n/a	n/a
3651.832	n/a	RECOG_LURE	1825916	n/a	LTP180	ltpFR	5	2	n/a	ARROW	40	5	n/a	n/a	n/a	n/a	n/a	n/a
3652.82	n/a	RECOG_RESP	1826410	n/a	LTP180	ltpFR	5	2	n/a	ARROW	40	n/a	n/a	n/a	n/a	n/a	n/a	n/a
3653.72	n/a	RECOG_CONF	1826860	n/a	LTP180	ltpFR	5	2	n/a	ARROW	40	5	n/a	n/a	n/a	n/a	n/a	n/a
3655.698	n/a	RECOG_TARGET	1827849	n/a	LTP180	ltpFR	5	2	0	PERMIT	1051	5	0	n/a	n/a	n/a	n/a	n/a
3657.006	n/a	RECOG_RESP	1828503	n/a	LTP180	ltpFR	5	2	0	PERMIT	1051	n/a	0	n/a	n/a	n/a	n/a	n/a
3657.992	n/a	RECOG_CONF	1828996	n/a	LTP180	ltpFR	5	2	0	PERMIT	1051	5	0	n/a	n/a	n/a	n/a	n/a
3659.812	n/a	RECOG_LURE	1829906	n/a	LTP180	ltpFR	5	2	n/a	SHELTER	1282	2	n/a	n/a	n/a	n/a	n/a	n/a
3661.426	n/a	RECOG_RESP	1830713	n/a	LTP180	ltpFR	5	2	n/a	SHELTER	1282	n/a	n/a	n/a	n/a	n/a	n/a	n/a
3662.644	n/a	RECOG_CONF	1831322	n/a	LTP180	ltpFR	5	2	n/a	SHELTER	1282	2	n/a	n/a	n/a	n/a	n/a	n/a
3664.414	n/a	RECOG_TARGET	1832207	n/a	LTP180	ltpFR	5	2	0	ARTIST	43	5	0	n/a	n/a	n/a	n/a	n/a
3665.34	n/a	RECOG_RESP	1832670	n/a	LTP180	ltpFR	5	2	0	ARTIST	43	n/a	0	n/a	n/a	n/a	n/a	n/a
3666.266	n/a	RECOG_CONF	1833133	n/a	LTP180	ltpFR	5	2	0	ARTIST	43	5	0	n/a	n/a	n/a	n/a	n/a
3668.176	n/a	RECOG_LURE	1834088	n/a	LTP180	ltpFR	5	2	n/a	YACHT	1629	4	n/a	n/a	n/a	n/a	n/a	n/a
3669.46	n/a	RECOG_RESP	1834730	n/a	LTP180	ltpFR	5	2	n/a	YACHT	1629	n/a	n/a	n/a	n/a	n/a	n/a	n/a
3670.802	n/a	RECOG_CONF	1835401	n/a	LTP180	ltpFR	5	2	n/a	YACHT	1629	4	n/a	n/a	n/a	n/a	n/a	n/a
3672.694	n/a	RECOG_TARGET	1836347	n/a	LTP180	ltpFR	5	2	1	PREACHER	1119	5	1	n/a	n/a	n/a	n/a	n/a
3677.302	n/a	RECOG_RESP	1838651	n/a	LTP180	ltpFR	5	2	1	PREACHER	1119	n/a	1	n/a	n/a	n/a	n/a	n/a
3678.92	n/a	RECOG_CONF	1839460	n/a	LTP180	ltpFR	5	2	1	PREACHER	1119	5	1	n/a	n/a	n/a	n/a	n/a
3680.926	n/a	RECOG_TARGET	1840463	n/a	LTP180	ltpFR	5	2	1	PERSONNEL	1053	5	1	n/a	n/a	n/a	n/a	n/a
3682.204	n/a	RECOG_RESP	1841102	n/a	LTP180	ltpFR	5	2	1	PERSONNEL	1053	n/a	1	n/a	n/a	n/a	n/a	n/a
3683.09	n/a	RECOG_CONF	1841545	n/a	LTP180	ltpFR	5	2	1	PERSONNEL	1053	5	1	n/a	n/a	n/a	n/a	n/a
3684.942	n/a	RECOG_TARGET	1842471	n/a	LTP180	ltpFR	5	2	0	LODGE	839	2	0	n/a	n/a	n/a	n/a	n/a
3686.138	n/a	RECOG_RESP	1843069	n/a	LTP180	ltpFR	5	2	0	LODGE	839	n/a	0	n/a	n/a	n/a	n/a	n/a
3687.232	n/a	RECOG_CONF	1843616	n/a	LTP180	ltpFR	5	2	0	LODGE	839	2	0	n/a	n/a	n/a	n/a	n/a
3688.776	n/a	RECOG_LURE	1844388	n/a	LTP180	ltpFR	5	2	n/a	DISHWASHER	475	5	n/a	n/a	n/a	n/a	n/a	n/a
3690.164	n/a	RECOG_RESP	1845082	n/a	LTP180	ltpFR	5	2	n/a	DISHWASHER	475	n/a	n/a	n/a	n/a	n/a	n/a	n/a
3691.186	n/a	RECOG_CONF	1845593	n/a	LTP180	ltpFR	5	2	n/a	DISHWASHER	475	5	n/a	n/a	n/a	n/a	n/a	n/a
3692.98	n/a	RECOG_TARGET	1846490	n/a	LTP180	ltpFR	5	2	1	REBEL	1172	3	1	n/a	n/a	n/a	n/a	n/a
3694.96	n/a	RECOG_RESP	1847480	n/a	LTP180	ltpFR	5	2	1	REBEL	1172	n/a	1	n/a	n/a	n/a	n/a	n/a
3695.808	n/a	RECOG_CONF	1847904	n/a	LTP180	ltpFR	5	2	1	REBEL	1172	3	1	n/a	n/a	n/a	n/a	n/a
3698.008	n/a	RECOG_TARGET	1849004	n/a	LTP180	ltpFR	5	2	1	WARRIOR	1589	3	1	n/a	n/a	n/a	n/a	n/a
3699.118	n/a	RECOG_RESP	1849559	n/a	LTP180	ltpFR	5	2	1	WARRIOR	1589	n/a	1	n/a	n/a	n/a	n/a	n/a
3700.038	n/a	RECOG_CONF	1850019	n/a	LTP180	ltpFR	5	2	1	WARRIOR	1589	3	1	n/a	n/a	n/a	n/a	n/a
3701.722	n/a	RECOG_LURE	1850861	n/a	LTP180	ltpFR	5	2	n/a	SLEEVE	1324	3	n/a	n/a	n/a	n/a	n/a	n/a
3703.454	n/a	RECOG_RESP	1851727	n/a	LTP180	ltpFR	5	2	n/a	SLEEVE	1324	n/a	n/a	n/a	n/a	n/a	n/a	n/a
3704.436	n/a	RECOG_CONF	1852218	n/a	LTP180	ltpFR	5	2	n/a	SLEEVE	1324	3	n/a	n/a	n/a	n/a	n/a	n/a
3706.624	n/a	RECOG_LURE	1853312	n/a	LTP180	ltpFR	5	2	n/a	NURSERY	964	5	n/a	n/a	n/a	n/a	n/a	n/a
3707.698	n/a	RECOG_RESP	1853849	n/a	LTP180	ltpFR	5	2	n/a	NURSERY	964	n/a	n/a	n/a	n/a	n/a	n/a	n/a
3708.618	n/a	RECOG_CONF	1854309	n/a	LTP180	ltpFR	5	2	n/a	NURSERY	964	5	n/a	n/a	n/a	n/a	n/a	n/a
3710.49	n/a	RECOG_TARGET	1855245	n/a	LTP180	ltpFR	5	2	1	SCREW	1254	5	0	n/a	n/a	n/a	n/a	n/a
3711.512	n/a	RECOG_RESP	1855756	n/a	LTP180	ltpFR	5	2	1	SCREW	1254	n/a	0	n/a	n/a	n/a	n/a	n/a
3712.464	n/a	RECOG_CONF	1856232	n/a	LTP180	ltpFR	5	2	1	SCREW	1254	5	0	n/a	n/a	n/a	n/a	n/a
3714.07	n/a	RECOG_LURE	1857035	n/a	LTP180	ltpFR	5	2	n/a	WELL	1600	5	n/a	n/a	n/a	n/a	n/a	n/a
3715.072	n/a	RECOG_RESP	1857536	n/a	LTP180	ltpFR	5	2	n/a	WELL	1600	n/a	n/a	n/a	n/a	n/a	n/a	n/a
3716.208	n/a	RECOG_CONF	1858104	n/a	LTP180	ltpFR	5	2	n/a	WELL	1600	5	n/a	n/a	n/a	n/a	n/a	n/a
3722.132	n/a	REC_START	1861066	n/a	LTP180	ltpFR	5	3	n/a	n/a	n/a	n/a	n/a	n/a	n/a	n/a	n/a	n/a
3722.184	n/a	RECOG_LURE	1861092	n/a	LTP180	ltpFR	5	3	n/a	BUYER	208	4	n/a	n/a	n/a	n/a	n/a	n/a
3723.512	n/a	RECOG_RESP	1861756	n/a	LTP180	ltpFR	5	3	n/a	BUYER	208	n/a	n/a	n/a	n/a	n/a	n/a	n/a
3724.502	n/a	RECOG_CONF	1862251	n/a	LTP180	ltpFR	5	3	n/a	BUYER	208	4	n/a	n/a	n/a	n/a	n/a	n/a
3726.668	n/a	RECOG_LURE	1863334	n/a	LTP180	ltpFR	5	3	n/a	BINDER	127	4	n/a	n/a	n/a	n/a	n/a	n/a
3728.022	n/a	RECOG_RESP	1864011	n/a	LTP180	ltpFR	5	3	n/a	BINDER	127	n/a	n/a	n/a	n/a	n/a	n/a	n/a
3729.124	n/a	RECOG_CONF	1864562	n/a	LTP180	ltpFR	5	3	n/a	BINDER	127	4	n/a	n/a	n/a	n/a	n/a	n/a
3731.236	n/a	RECOG_TARGET	1865618	n/a	LTP180	ltpFR	5	3	-1	CHIMNEY	301	5	-1	n/a	n/a	n/a	n/a	n/a
3732.29	n/a	RECOG_RESP	1866145	n/a	LTP180	ltpFR	5	3	-1	CHIMNEY	301	n/a	-1	n/a	n/a	n/a	n/a	n/a
3733.606	n/a	RECOG_CONF	1866803	n/a	LTP180	ltpFR	5	3	-1	CHIMNEY	301	5	-1	n/a	n/a	n/a	n/a	n/a
3735.356	n/a	RECOG_LURE	1867678	n/a	LTP180	ltpFR	5	3	n/a	CAULIFLOWER	262	4	n/a	n/a	n/a	n/a	n/a	n/a
3737.686	n/a	RECOG_RESP	1868843	n/a	LTP180	ltpFR	5	3	n/a	CAULIFLOWER	262	n/a	n/a	n/a	n/a	n/a	n/a	n/a
3738.652	n/a	RECOG_CONF	1869326	n/a	LTP180	ltpFR	5	3	n/a	CAULIFLOWER	262	4	n/a	n/a	n/a	n/a	n/a	n/a
3740.554	n/a	RECOG_TARGET	1870277	n/a	LTP180	ltpFR	5	3	1	CONTRACTOR	369	3	n/a	n/a	n/a	n/a	n/a	n/a
3742.212	n/a	RECOG_RESP	1871106	n/a	LTP180	ltpFR	5	3	1	CONTRACTOR	369	n/a	n/a	n/a	n/a	n/a	n/a	n/a
3743.37	n/a	RECOG_CONF	1871685	n/a	LTP180	ltpFR	5	3	1	CONTRACTOR	369	3	n/a	n/a	n/a	n/a	n/a	n/a
3745.544	n/a	RECOG_TARGET	1872772	n/a	LTP180	ltpFR	5	3	1	GATE	625	3	0	n/a	n/a	n/a	n/a	n/a
3747.27	n/a	RECOG_RESP	1873635	n/a	LTP180	ltpFR	5	3	1	GATE	625	n/a	0	n/a	n/a	n/a	n/a	n/a
3748.254	n/a	RECOG_CONF	1874127	n/a	LTP180	ltpFR	5	3	1	GATE	625	3	0	n/a	n/a	n/a	n/a	n/a
3750.358	n/a	RECOG_LURE	1875179	n/a	LTP180	ltpFR	5	3	n/a	BRANCH	168	3	n/a	n/a	n/a	n/a	n/a	n/a
3751.486	n/a	RECOG_RESP	1875743	n/a	LTP180	ltpFR	5	3	n/a	BRANCH	168	n/a	n/a	n/a	n/a	n/a	n/a	n/a
3752.424	n/a	RECOG_CONF	1876212	n/a	LTP180	ltpFR	5	3	n/a	BRANCH	168	3	n/a	n/a	n/a	n/a	n/a	n/a
3754.26	n/a	RECOG_LURE	1877130	n/a	LTP180	ltpFR	5	3	n/a	TANK	1432	5	n/a	n/a	n/a	n/a	n/a	n/a
3755.286	n/a	RECOG_RESP	1877643	n/a	LTP180	ltpFR	5	3	n/a	TANK	1432	n/a	n/a	n/a	n/a	n/a	n/a	n/a
3756.278	n/a	RECOG_CONF	1878139	n/a	LTP180	ltpFR	5	3	n/a	TANK	1432	5	n/a	n/a	n/a	n/a	n/a	n/a
3757.938	n/a	RECOG_LURE	1878969	n/a	LTP180	ltpFR	5	3	n/a	TRACTOR	1493	1	n/a	n/a	n/a	n/a	n/a	n/a
3760.116	n/a	RECOG_RESP	1880058	n/a	LTP180	ltpFR	5	3	n/a	TRACTOR	1493	n/a	n/a	n/a	n/a	n/a	n/a	n/a
3761.176	n/a	RECOG_CONF	1880588	n/a	LTP180	ltpFR	5	3	n/a	TRACTOR	1493	1	n/a	n/a	n/a	n/a	n/a	n/a
3762.974	n/a	RECOG_LURE	1881487	n/a	LTP180	ltpFR	5	3	n/a	YARN	1631	1	n/a	n/a	n/a	n/a	n/a	n/a
3766.368	n/a	RECOG_RESP	1883184	n/a	LTP180	ltpFR	5	3	n/a	YARN	1631	n/a	n/a	n/a	n/a	n/a	n/a	n/a
3767.392	n/a	RECOG_CONF	1883696	n/a	LTP180	ltpFR	5	3	n/a	YARN	1631	1	n/a	n/a	n/a	n/a	n/a	n/a
3769.08	n/a	RECOG_LURE	1884540	n/a	LTP180	ltpFR	5	3	n/a	ERASER	538	5	n/a	n/a	n/a	n/a	n/a	n/a
3770.126	n/a	RECOG_RESP	1885063	n/a	LTP180	ltpFR	5	3	n/a	ERASER	538	n/a	n/a	n/a	n/a	n/a	n/a	n/a
3770.976	n/a	RECOG_CONF	1885488	n/a	LTP180	ltpFR	5	3	n/a	ERASER	538	5	n/a	n/a	n/a	n/a	n/a	n/a
3772.68	n/a	RECOG_LURE	1886340	n/a	LTP180	ltpFR	5	3	n/a	CHEMICAL	291	4	n/a	n/a	n/a	n/a	n/a	n/a
3773.966	n/a	RECOG_RESP	1886983	n/a	LTP180	ltpFR	5	3	n/a	CHEMICAL	291	n/a	n/a	n/a	n/a	n/a	n/a	n/a
3774.99	n/a	RECOG_CONF	1887495	n/a	LTP180	ltpFR	5	3	n/a	CHEMICAL	291	4	n/a	n/a	n/a	n/a	n/a	n/a
3776.76	n/a	RECOG_TARGET	1888380	n/a	LTP180	ltpFR	5	3	0	PRESIDENT	1121	5	0	n/a	n/a	n/a	n/a	n/a
3777.762	n/a	RECOG_RESP	1888881	n/a	LTP180	ltpFR	5	3	0	PRESIDENT	1121	n/a	0	n/a	n/a	n/a	n/a	n/a
3778.966	n/a	RECOG_CONF	1889483	n/a	LTP180	ltpFR	5	3	0	PRESIDENT	1121	5	0	n/a	n/a	n/a	n/a	n/a
3780.658	n/a	RECOG_LURE	1890329	n/a	LTP180	ltpFR	5	3	n/a	SEAT	1264	4	n/a	n/a	n/a	n/a	n/a	n/a
3781.96	n/a	RECOG_RESP	1890980	n/a	LTP180	ltpFR	5	3	n/a	SEAT	1264	n/a	n/a	n/a	n/a	n/a	n/a	n/a
3782.886	n/a	RECOG_CONF	1891443	n/a	LTP180	ltpFR	5	3	n/a	SEAT	1264	4	n/a	n/a	n/a	n/a	n/a	n/a
3784.89	n/a	RECOG_TARGET	1892445	n/a	LTP180	ltpFR	5	3	-1	POCKETBOOK	1094	5	-1	n/a	n/a	n/a	n/a	n/a
3786.46	n/a	RECOG_RESP	1893230	n/a	LTP180	ltpFR	5	3	-1	POCKETBOOK	1094	n/a	-1	n/a	n/a	n/a	n/a	n/a
3787.304	n/a	RECOG_CONF	1893652	n/a	LTP180	ltpFR	5	3	-1	POCKETBOOK	1094	5	-1	n/a	n/a	n/a	n/a	n/a
3788.962	n/a	RECOG_TARGET	1894481	n/a	LTP180	ltpFR	5	3	-1	SADDLE	1221	5	-1	n/a	n/a	n/a	n/a	n/a
3790.2	n/a	RECOG_RESP	1895100	n/a	LTP180	ltpFR	5	3	-1	SADDLE	1221	n/a	-1	n/a	n/a	n/a	n/a	n/a
3791.06	n/a	RECOG_CONF	1895530	n/a	LTP180	ltpFR	5	3	-1	SADDLE	1221	5	-1	n/a	n/a	n/a	n/a	n/a
3792.688	n/a	RECOG_LURE	1896344	n/a	LTP180	ltpFR	5	3	n/a	MERMAID	887	5	n/a	n/a	n/a	n/a	n/a	n/a
3794.1	n/a	RECOG_RESP	1897050	n/a	LTP180	ltpFR	5	3	n/a	MERMAID	887	n/a	n/a	n/a	n/a	n/a	n/a	n/a
3795.01	n/a	RECOG_CONF	1897505	n/a	LTP180	ltpFR	5	3	n/a	MERMAID	887	5	n/a	n/a	n/a	n/a	n/a	n/a
3796.652	n/a	RECOG_LURE	1898326	n/a	LTP180	ltpFR	5	3	n/a	GRIZZLY	662	4	n/a	n/a	n/a	n/a	n/a	n/a
3797.832	n/a	RECOG_RESP	1898916	n/a	LTP180	ltpFR	5	3	n/a	GRIZZLY	662	n/a	n/a	n/a	n/a	n/a	n/a	n/a
3798.704	n/a	RECOG_CONF	1899352	n/a	LTP180	ltpFR	5	3	n/a	GRIZZLY	662	4	n/a	n/a	n/a	n/a	n/a	n/a
3800.5	n/a	RECOG_TARGET	1900250	n/a	LTP180	ltpFR	5	3	-1	FEMALE	559	5	-1	n/a	n/a	n/a	n/a	n/a
3801.538	n/a	RECOG_RESP	1900769	n/a	LTP180	ltpFR	5	3	-1	FEMALE	559	n/a	-1	n/a	n/a	n/a	n/a	n/a
3802.784	n/a	RECOG_CONF	1901392	n/a	LTP180	ltpFR	5	3	-1	FEMALE	559	5	-1	n/a	n/a	n/a	n/a	n/a
3804.568	n/a	RECOG_TARGET	1902284	n/a	LTP180	ltpFR	5	3	1	MISTER	901	5	1	n/a	n/a	n/a	n/a	n/a
3806.02	n/a	RECOG_RESP	1903010	n/a	LTP180	ltpFR	5	3	1	MISTER	901	n/a	1	n/a	n/a	n/a	n/a	n/a
3807.11	n/a	RECOG_CONF	1903555	n/a	LTP180	ltpFR	5	3	1	MISTER	901	5	1	n/a	n/a	n/a	n/a	n/a
3812.972	n/a	REC_START	1906486	n/a	LTP180	ltpFR	5	4	n/a	n/a	n/a	n/a	n/a	n/a	n/a	n/a	n/a	n/a
3813.016	n/a	RECOG_TARGET	1906508	n/a	LTP180	ltpFR	5	4	0	WATERFALL	1595	2	0	n/a	n/a	n/a	n/a	n/a
3816.02	n/a	RECOG_RESP	1908010	n/a	LTP180	ltpFR	5	4	0	WATERFALL	1595	n/a	0	n/a	n/a	n/a	n/a	n/a
3817.43	n/a	RECOG_CONF	1908715	n/a	LTP180	ltpFR	5	4	0	WATERFALL	1595	2	0	n/a	n/a	n/a	n/a	n/a
3819.104	n/a	RECOG_TARGET	1909552	n/a	LTP180	ltpFR	5	4	1	OBOE	969	2	0	n/a	n/a	n/a	n/a	n/a
3820.756	n/a	RECOG_RESP	1910378	n/a	LTP180	ltpFR	5	4	1	OBOE	969	n/a	0	n/a	n/a	n/a	n/a	n/a
3822.05	n/a	RECOG_CONF	1911025	n/a	LTP180	ltpFR	5	4	1	OBOE	969	2	0	n/a	n/a	n/a	n/a	n/a
3823.806	n/a	RECOG_LURE	1911903	n/a	LTP180	ltpFR	5	4	n/a	TUTU	1524	5	n/a	n/a	n/a	n/a	n/a	n/a
3825.178	n/a	RECOG_RESP	1912589	n/a	LTP180	ltpFR	5	4	n/a	TUTU	1524	n/a	n/a	n/a	n/a	n/a	n/a	n/a
3826.162	n/a	RECOG_CONF	1913081	n/a	LTP180	ltpFR	5	4	n/a	TUTU	1524	5	n/a	n/a	n/a	n/a	n/a	n/a
3827.872	n/a	RECOG_TARGET	1913936	n/a	LTP180	ltpFR	5	4	-1	RECEIPT	1173	3	-1	n/a	n/a	n/a	n/a	n/a
3831.92	n/a	RECOG_RESP	1915960	n/a	LTP180	ltpFR	5	4	-1	RECEIPT	1173	n/a	-1	n/a	n/a	n/a	n/a	n/a
3833.246	n/a	RECOG_CONF	1916623	n/a	LTP180	ltpFR	5	4	-1	RECEIPT	1173	3	-1	n/a	n/a	n/a	n/a	n/a
3835.384	n/a	RECOG_LURE	1917692	n/a	LTP180	ltpFR	5	4	n/a	CHARCOAL	281	5	n/a	n/a	n/a	n/a	n/a	n/a
3836.478	n/a	RECOG_RESP	1918239	n/a	LTP180	ltpFR	5	4	n/a	CHARCOAL	281	n/a	n/a	n/a	n/a	n/a	n/a	n/a
3837.254	n/a	RECOG_CONF	1918627	n/a	LTP180	ltpFR	5	4	n/a	CHARCOAL	281	5	n/a	n/a	n/a	n/a	n/a	n/a
3838.814	n/a	RECOG_TARGET	1919407	n/a	LTP180	ltpFR	5	4	-1	SIRLOIN	1311	3	-1	n/a	n/a	n/a	n/a	n/a
3841.358	n/a	RECOG_RESP	1920679	n/a	LTP180	ltpFR	5	4	-1	SIRLOIN	1311	n/a	-1	n/a	n/a	n/a	n/a	n/a
3842.612	n/a	RECOG_CONF	1921306	n/a	LTP180	ltpFR	5	4	-1	SIRLOIN	1311	3	-1	n/a	n/a	n/a	n/a	n/a
3844.368	n/a	RECOG_TARGET	1922184	n/a	LTP180	ltpFR	5	4	-1	HAYSTACK	694	5	-1	n/a	n/a	n/a	n/a	n/a
3845.458	n/a	RECOG_RESP	1922729	n/a	LTP180	ltpFR	5	4	-1	HAYSTACK	694	n/a	-1	n/a	n/a	n/a	n/a	n/a
3846.452	n/a	RECOG_CONF	1923226	n/a	LTP180	ltpFR	5	4	-1	HAYSTACK	694	5	-1	n/a	n/a	n/a	n/a	n/a
3848.198	n/a	RECOG_TARGET	1924099	n/a	LTP180	ltpFR	5	4	0	PLUMBER	1091	5	0	n/a	n/a	n/a	n/a	n/a
3849.26	n/a	RECOG_RESP	1924630	n/a	LTP180	ltpFR	5	4	0	PLUMBER	1091	n/a	0	n/a	n/a	n/a	n/a	n/a
3850.624	n/a	RECOG_CONF	1925312	n/a	LTP180	ltpFR	5	4	0	PLUMBER	1091	5	0	n/a	n/a	n/a	n/a	n/a
3852.432	n/a	RECOG_LURE	1926216	n/a	LTP180	ltpFR	5	4	n/a	LIPSTICK	829	4	n/a	n/a	n/a	n/a	n/a	n/a
3853.54	n/a	RECOG_RESP	1926770	n/a	LTP180	ltpFR	5	4	n/a	LIPSTICK	829	n/a	n/a	n/a	n/a	n/a	n/a	n/a
3854.504	n/a	RECOG_CONF	1927252	n/a	LTP180	ltpFR	5	4	n/a	LIPSTICK	829	4	n/a	n/a	n/a	n/a	n/a	n/a
3856.564	n/a	RECOG_TARGET	1928282	n/a	LTP180	ltpFR	5	4	0	PENNY	1045	5	0	n/a	n/a	n/a	n/a	n/a
3857.656	n/a	RECOG_RESP	1928828	n/a	LTP180	ltpFR	5	4	0	PENNY	1045	n/a	0	n/a	n/a	n/a	n/a	n/a
3858.626	n/a	RECOG_CONF	1929313	n/a	LTP180	ltpFR	5	4	0	PENNY	1045	5	0	n/a	n/a	n/a	n/a	n/a
3860.914	n/a	RECOG_TARGET	1930457	n/a	LTP180	ltpFR	5	4	1	SALOON	1228	3	1	n/a	n/a	n/a	n/a	n/a
3862.886	n/a	RECOG_RESP	1931443	n/a	LTP180	ltpFR	5	4	1	SALOON	1228	n/a	1	n/a	n/a	n/a	n/a	n/a
3864.284	n/a	RECOG_CONF	1932142	n/a	LTP180	ltpFR	5	4	1	SALOON	1228	3	1	n/a	n/a	n/a	n/a	n/a
3866.168	n/a	RECOG_TARGET	1933084	n/a	LTP180	ltpFR	5	4	-1	CYLINDER	432	5	-1	n/a	n/a	n/a	n/a	n/a
3867.44	n/a	RECOG_RESP	1933720	n/a	LTP180	ltpFR	5	4	-1	CYLINDER	432	n/a	-1	n/a	n/a	n/a	n/a	n/a
3868.306	n/a	RECOG_CONF	1934153	n/a	LTP180	ltpFR	5	4	-1	CYLINDER	432	5	-1	n/a	n/a	n/a	n/a	n/a
3870.032	n/a	RECOG_TARGET	1935016	n/a	LTP180	ltpFR	5	4	1	GENERAL	630	2	1	n/a	n/a	n/a	n/a	n/a
3871.634	n/a	RECOG_RESP	1935817	n/a	LTP180	ltpFR	5	4	1	GENERAL	630	n/a	1	n/a	n/a	n/a	n/a	n/a
3872.724	n/a	RECOG_CONF	1936362	n/a	LTP180	ltpFR	5	4	1	GENERAL	630	2	1	n/a	n/a	n/a	n/a	n/a
3874.354	n/a	RECOG_TARGET	1937177	n/a	LTP180	ltpFR	5	4	1	SOCK	1339	3	0	n/a	n/a	n/a	n/a	n/a
3875.664	n/a	RECOG_RESP	1937832	n/a	LTP180	ltpFR	5	4	1	SOCK	1339	n/a	0	n/a	n/a	n/a	n/a	n/a
3876.502	n/a	RECOG_CONF	1938251	n/a	LTP180	ltpFR	5	4	1	SOCK	1339	3	0	n/a	n/a	n/a	n/a	n/a
3878.348	n/a	RECOG_TARGET	1939174	n/a	LTP180	ltpFR	5	4	0	BILL	126	2	0	n/a	n/a	n/a	n/a	n/a
3879.786	n/a	RECOG_RESP	1939893	n/a	LTP180	ltpFR	5	4	0	BILL	126	n/a	0	n/a	n/a	n/a	n/a	n/a
3880.772	n/a	RECOG_CONF	1940386	n/a	LTP180	ltpFR	5	4	0	BILL	126	2	0	n/a	n/a	n/a	n/a	n/a
3882.296	n/a	RECOG_TARGET	1941148	n/a	LTP180	ltpFR	5	4	0	MOB	904	5	1	n/a	n/a	n/a	n/a	n/a
3883.426	n/a	RECOG_RESP	1941713	n/a	LTP180	ltpFR	5	4	0	MOB	904	n/a	1	n/a	n/a	n/a	n/a	n/a
3884.488	n/a	RECOG_CONF	1942244	n/a	LTP180	ltpFR	5	4	0	MOB	904	5	1	n/a	n/a	n/a	n/a	n/a
3886.328	n/a	RECOG_TARGET	1943164	n/a	LTP180	ltpFR	5	4	0	SHINGLE	1285	5	n/a	n/a	n/a	n/a	n/a	n/a
3887.58	n/a	RECOG_RESP	1943790	n/a	LTP180	ltpFR	5	4	0	SHINGLE	1285	n/a	n/a	n/a	n/a	n/a	n/a	n/a
3889.104	n/a	RECOG_CONF	1944552	n/a	LTP180	ltpFR	5	4	0	SHINGLE	1285	5	n/a	n/a	n/a	n/a	n/a	n/a
3890.644	n/a	RECOG_TARGET	1945322	n/a	LTP180	ltpFR	5	4	1	MARKET	871	5	0	n/a	n/a	n/a	n/a	n/a
3891.69	n/a	RECOG_RESP	1945845	n/a	LTP180	ltpFR	5	4	1	MARKET	871	n/a	0	n/a	n/a	n/a	n/a	n/a
3892.684	n/a	RECOG_CONF	1946342	n/a	LTP180	ltpFR	5	4	1	MARKET	871	5	0	n/a	n/a	n/a	n/a	n/a
3894.308	n/a	RECOG_LURE	1947154	n/a	LTP180	ltpFR	5	4	n/a	FLIPPER	580	4	n/a	n/a	n/a	n/a	n/a	n/a
3895.952	n/a	RECOG_RESP	1947976	n/a	LTP180	ltpFR	5	4	n/a	FLIPPER	580	n/a	n/a	n/a	n/a	n/a	n/a	n/a
3896.846	n/a	RECOG_CONF	1948423	n/a	LTP180	ltpFR	5	4	n/a	FLIPPER	580	4	n/a	n/a	n/a	n/a	n/a	n/a
3898.574	n/a	RECOG_LURE	1949287	n/a	LTP180	ltpFR	5	4	n/a	SOFA	1342	4	n/a	n/a	n/a	n/a	n/a	n/a
3899.858	n/a	RECOG_RESP	1949929	n/a	LTP180	ltpFR	5	4	n/a	SOFA	1342	n/a	n/a	n/a	n/a	n/a	n/a	n/a
3900.91	n/a	RECOG_CONF	1950455	n/a	LTP180	ltpFR	5	4	n/a	SOFA	1342	4	n/a	n/a	n/a	n/a	n/a	n/a
3906.428	n/a	REC_START	1953214	n/a	LTP180	ltpFR	5	5	n/a	n/a	n/a	n/a	n/a	n/a	n/a	n/a	n/a	n/a
3906.472	n/a	RECOG_TARGET	1953236	n/a	LTP180	ltpFR	5	5	-1	RIB	1188	5	-1	n/a	n/a	n/a	n/a	n/a
3907.524	n/a	RECOG_RESP	1953762	n/a	LTP180	ltpFR	5	5	-1	RIB	1188	n/a	-1	n/a	n/a	n/a	n/a	n/a
3908.41	n/a	RECOG_CONF	1954205	n/a	LTP180	ltpFR	5	5	-1	RIB	1188	5	-1	n/a	n/a	n/a	n/a	n/a
3910.136	n/a	RECOG_TARGET	1955068	n/a	LTP180	ltpFR	5	5	1	BARREL	91	5	0	n/a	n/a	n/a	n/a	n/a
3911.416	n/a	RECOG_RESP	1955708	n/a	LTP180	ltpFR	5	5	1	BARREL	91	n/a	0	n/a	n/a	n/a	n/a	n/a
3912.368	n/a	RECOG_CONF	1956184	n/a	LTP180	ltpFR	5	5	1	BARREL	91	5	0	n/a	n/a	n/a	n/a	n/a
3914.034	n/a	RECOG_TARGET	1957017	n/a	LTP180	ltpFR	5	5	1	OWL	992	5	1	n/a	n/a	n/a	n/a	n/a
3915.028	n/a	RECOG_RESP	1957514	n/a	LTP180	ltpFR	5	5	1	OWL	992	n/a	1	n/a	n/a	n/a	n/a	n/a
3915.912	n/a	RECOG_CONF	1957956	n/a	LTP180	ltpFR	5	5	1	OWL	992	5	1	n/a	n/a	n/a	n/a	n/a
3917.58	n/a	RECOG_LURE	1958790	n/a	LTP180	ltpFR	5	5	n/a	EMPIRE	530	3	n/a	n/a	n/a	n/a	n/a	n/a
3921.186	n/a	RECOG_RESP	1960593	n/a	LTP180	ltpFR	5	5	n/a	EMPIRE	530	n/a	n/a	n/a	n/a	n/a	n/a	n/a
3922.542	n/a	RECOG_CONF	1961271	n/a	LTP180	ltpFR	5	5	n/a	EMPIRE	530	3	n/a	n/a	n/a	n/a	n/a	n/a
3924.508	n/a	RECOG_LURE	1962254	n/a	LTP180	ltpFR	5	5	n/a	SCULPTURE	1258	3	n/a	n/a	n/a	n/a	n/a	n/a
3926.102	n/a	RECOG_RESP	1963051	n/a	LTP180	ltpFR	5	5	n/a	SCULPTURE	1258	n/a	n/a	n/a	n/a	n/a	n/a	n/a
3927.39	n/a	RECOG_CONF	1963695	n/a	LTP180	ltpFR	5	5	n/a	SCULPTURE	1258	3	n/a	n/a	n/a	n/a	n/a	n/a
3929.074	n/a	RECOG_TARGET	1964537	n/a	LTP180	ltpFR	5	5	0	ALBUM	14	4	0	n/a	n/a	n/a	n/a	n/a
3930.338	n/a	RECOG_RESP	1965169	n/a	LTP180	ltpFR	5	5	0	ALBUM	14	n/a	0	n/a	n/a	n/a	n/a	n/a
3931.416	n/a	RECOG_CONF	1965708	n/a	LTP180	ltpFR	5	5	0	ALBUM	14	4	0	n/a	n/a	n/a	n/a	n/a
3933.074	n/a	RECOG_TARGET	1966537	n/a	LTP180	ltpFR	5	5	0	DETECTIVE	454	5	1	n/a	n/a	n/a	n/a	n/a
3934.254	n/a	RECOG_RESP	1967127	n/a	LTP180	ltpFR	5	5	0	DETECTIVE	454	n/a	1	n/a	n/a	n/a	n/a	n/a
3935.186	n/a	RECOG_CONF	1967593	n/a	LTP180	ltpFR	5	5	0	DETECTIVE	454	5	1	n/a	n/a	n/a	n/a	n/a
3936.974	n/a	RECOG_LURE	1968487	n/a	LTP180	ltpFR	5	5	n/a	APARTMENT	30	3	n/a	n/a	n/a	n/a	n/a	n/a
3939.368	n/a	RECOG_RESP	1969684	n/a	LTP180	ltpFR	5	5	n/a	APARTMENT	30	n/a	n/a	n/a	n/a	n/a	n/a	n/a
3940.628	n/a	RECOG_CONF	1970314	n/a	LTP180	ltpFR	5	5	n/a	APARTMENT	30	3	n/a	n/a	n/a	n/a	n/a	n/a
3942.326	n/a	RECOG_LURE	1971163	n/a	LTP180	ltpFR	5	5	n/a	LION	827	5	n/a	n/a	n/a	n/a	n/a	n/a
3943.354	n/a	RECOG_RESP	1971677	n/a	LTP180	ltpFR	5	5	n/a	LION	827	n/a	n/a	n/a	n/a	n/a	n/a	n/a
3944.344	n/a	RECOG_CONF	1972172	n/a	LTP180	ltpFR	5	5	n/a	LION	827	5	n/a	n/a	n/a	n/a	n/a	n/a
3946.524	n/a	RECOG_TARGET	1973262	n/a	LTP180	ltpFR	5	5	0	IRON	744	4	2	n/a	n/a	n/a	n/a	n/a
3947.99	n/a	RECOG_RESP	1973995	n/a	LTP180	ltpFR	5	5	0	IRON	744	n/a	2	n/a	n/a	n/a	n/a	n/a
3948.926	n/a	RECOG_CONF	1974463	n/a	LTP180	ltpFR	5	5	0	IRON	744	4	2	n/a	n/a	n/a	n/a	n/a
3950.574	n/a	RECOG_TARGET	1975287	n/a	LTP180	ltpFR	5	5	-1	FROST	609	5	-1	n/a	n/a	n/a	n/a	n/a
3951.73	n/a	RECOG_RESP	1975865	n/a	LTP180	ltpFR	5	5	-1	FROST	609	n/a	-1	n/a	n/a	n/a	n/a	n/a
3952.818	n/a	RECOG_CONF	1976409	n/a	LTP180	ltpFR	5	5	-1	FROST	609	5	-1	n/a	n/a	n/a	n/a	n/a
3954.354	n/a	RECOG_TARGET	1977177	n/a	LTP180	ltpFR	5	5	0	BLADE	134	5	n/a	n/a	n/a	n/a	n/a	n/a
3955.452	n/a	RECOG_RESP	1977726	n/a	LTP180	ltpFR	5	5	0	BLADE	134	n/a	n/a	n/a	n/a	n/a	n/a	n/a
3957.244	n/a	RECOG_CONF	1978622	n/a	LTP180	ltpFR	5	5	0	BLADE	134	5	n/a	n/a	n/a	n/a	n/a	n/a
3959.274	n/a	RECOG_TARGET	1979637	n/a	LTP180	ltpFR	5	5	1	DOOR	486	5	0	n/a	n/a	n/a	n/a	n/a
3960.358	n/a	RECOG_RESP	1980179	n/a	LTP180	ltpFR	5	5	1	DOOR	486	n/a	0	n/a	n/a	n/a	n/a	n/a
3961.626	n/a	RECOG_CONF	1980813	n/a	LTP180	ltpFR	5	5	1	DOOR	486	5	0	n/a	n/a	n/a	n/a	n/a
3963.29	n/a	RECOG_TARGET	1981645	n/a	LTP180	ltpFR	5	5	1	ROOM	1206	5	0	n/a	n/a	n/a	n/a	n/a
3964.446	n/a	RECOG_RESP	1982223	n/a	LTP180	ltpFR	5	5	1	ROOM	1206	n/a	0	n/a	n/a	n/a	n/a	n/a
3965.532	n/a	RECOG_CONF	1982766	n/a	LTP180	ltpFR	5	5	1	ROOM	1206	5	0	n/a	n/a	n/a	n/a	n/a
3967.036	n/a	RECOG_LURE	1983518	n/a	LTP180	ltpFR	5	5	n/a	RATTLE	1170	4	n/a	n/a	n/a	n/a	n/a	n/a
