onset	duration	trial_type	sample	stim_file	subject	experiment	session	trial	item_name	item_num	list	answer	test_x	test_y	test_z
205.208	n/a	SESS_START	102604	n/a	LTP326	ltpFR2	13	n/a	n/a	n/a	n/a	n/a	0	0	0
217.202	n/a	START	108601	n/a	LTP326	ltpFR2	13	n/a	n/a	n/a	-1	n/a	n/a	n/a	n/a
217.216	n/a	PROB	108608	n/a	LTP326	ltpFR2	13	n/a	n/a	n/a	-1	15	2	6	7
219.214	n/a	PROB	109607	n/a	LTP326	ltpFR2	13	n/a	n/a	n/a	-1	20	9	5	6
221.102	n/a	PROB	110551	n/a	LTP326	ltpFR2	13	n/a	n/a	n/a	-1	14	5	1	8
222.336	n/a	PROB	111168	n/a	LTP326	ltpFR2	13	n/a	n/a	n/a	-1	20	4	7	9
224.604	n/a	PROB	112302	n/a	LTP326	ltpFR2	13	n/a	n/a	n/a	-1	12	2	3	7
226.172	n/a	PROB	113086	n/a	LTP326	ltpFR2	13	n/a	n/a	n/a	-1	20	7	4	9
228.166	n/a	STOP	114083	n/a	LTP326	ltpFR2	13	n/a	n/a	n/a	-1	n/a	n/a	n/a	n/a
262.368	n/a	WORD	131184	wordpools/wasnorm_wordpool_576.txt	LTP326	ltpFR2	13	1	CRAYON	401	n/a	n/a	0	0	0
264.986	n/a	WORD	132493	wordpools/wasnorm_wordpool_576.txt	LTP326	ltpFR2	13	1	MARKER	870	n/a	n/a	0	0	0
267.47	n/a	WORD	133735	wordpools/wasnorm_wordpool_576.txt	LTP326	ltpFR2	13	1	PERMIT	1051	n/a	n/a	0	0	0
269.94	n/a	WORD	134970	wordpools/wasnorm_wordpool_576.txt	LTP326	ltpFR2	13	1	STICKER	1382	n/a	n/a	0	0	0
272.742	n/a	WORD	136371	wordpools/wasnorm_wordpool_576.txt	LTP326	ltpFR2	13	1	APPLE	33	n/a	n/a	0	0	0
275.394	n/a	WORD	137697	wordpools/wasnorm_wordpool_576.txt	LTP326	ltpFR2	13	1	FRIAR	605	n/a	n/a	0	0	0
278.132	n/a	WORD	139066	wordpools/wasnorm_wordpool_576.txt	LTP326	ltpFR2	13	1	SHOULDER	1294	n/a	n/a	0	0	0
280.6	n/a	WORD	140300	wordpools/wasnorm_wordpool_576.txt	LTP326	ltpFR2	13	1	MARROW	872	n/a	n/a	0	0	0
283.268	n/a	WORD	141634	wordpools/wasnorm_wordpool_576.txt	LTP326	ltpFR2	13	1	PREACHER	1119	n/a	n/a	0	0	0
286.036	n/a	WORD	143018	wordpools/wasnorm_wordpool_576.txt	LTP326	ltpFR2	13	1	CONTRACT	368	n/a	n/a	0	0	0
288.754	n/a	WORD	144377	wordpools/wasnorm_wordpool_576.txt	LTP326	ltpFR2	13	1	BODY	145	n/a	n/a	0	0	0
291.54	n/a	WORD	145770	wordpools/wasnorm_wordpool_576.txt	LTP326	ltpFR2	13	1	BRACES	164	n/a	n/a	0	0	0
294.092	n/a	WORD	147046	wordpools/wasnorm_wordpool_576.txt	LTP326	ltpFR2	13	1	GRIZZLY	662	n/a	n/a	0	0	0
296.528	n/a	WORD	148264	wordpools/wasnorm_wordpool_576.txt	LTP326	ltpFR2	13	1	IDOL	733	n/a	n/a	0	0	0
299.012	n/a	WORD	149506	wordpools/wasnorm_wordpool_576.txt	LTP326	ltpFR2	13	1	FIDDLE	561	n/a	n/a	0	0	0
301.564	n/a	WORD	150782	wordpools/wasnorm_wordpool_576.txt	LTP326	ltpFR2	13	1	BEAKER	104	n/a	n/a	0	0	0
304.118	n/a	WORD	152059	wordpools/wasnorm_wordpool_576.txt	LTP326	ltpFR2	13	1	MACHINE	852	n/a	n/a	0	0	0
306.72	n/a	WORD	153360	wordpools/wasnorm_wordpool_576.txt	LTP326	ltpFR2	13	1	DENTIST	447	n/a	n/a	0	0	0
309.406	n/a	WORD	154703	wordpools/wasnorm_wordpool_576.txt	LTP326	ltpFR2	13	1	SPHINX	1349	n/a	n/a	0	0	0
311.924	n/a	WORD	155962	wordpools/wasnorm_wordpool_576.txt	LTP326	ltpFR2	13	1	CLOTHES	327	n/a	n/a	0	0	0
314.694	n/a	WORD	157347	wordpools/wasnorm_wordpool_576.txt	LTP326	ltpFR2	13	1	FOREST	593	n/a	n/a	0	0	0
317.328	n/a	WORD	158664	wordpools/wasnorm_wordpool_576.txt	LTP326	ltpFR2	13	1	STATUE	1374	n/a	n/a	0	0	0
319.964	n/a	WORD	159982	wordpools/wasnorm_wordpool_576.txt	LTP326	ltpFR2	13	1	ASIA	46	n/a	n/a	0	0	0
322.498	n/a	WORD	161249	wordpools/wasnorm_wordpool_576.txt	LTP326	ltpFR2	13	1	LONDON	843	n/a	n/a	0	0	0
324.102	n/a	START	162051	n/a	LTP326	ltpFR2	13	n/a	n/a	n/a	1	n/a	n/a	n/a	n/a
324.936	n/a	DISTRACTOR	162468	n/a	LTP326	ltpFR2	13	1	n/a	n/a	n/a	n/a	0	0	0
324.95	n/a	PROB	162475	n/a	LTP326	ltpFR2	13	n/a	n/a	n/a	1	17	9	4	4
326.668	n/a	PROB	163334	n/a	LTP326	ltpFR2	13	n/a	n/a	n/a	1	8	1	5	2
328.052	n/a	PROB	164026	n/a	LTP326	ltpFR2	13	n/a	n/a	n/a	1	13	5	1	5
331.038	n/a	PROB	165519	n/a	LTP326	ltpFR2	13	n/a	n/a	n/a	1	11	6	2	3
335.04	n/a	PROB	167520	n/a	LTP326	ltpFR2	13	n/a	n/a	n/a	1	16	4	3	9
337.16	n/a	PROB	168580	n/a	LTP326	ltpFR2	13	n/a	n/a	n/a	1	21	8	7	6
340.012	n/a	PROB	170006	n/a	LTP326	ltpFR2	13	n/a	n/a	n/a	1	12	1	4	7
341.246	n/a	PROB	170623	n/a	LTP326	ltpFR2	13	n/a	n/a	n/a	1	15	8	2	5
342.83	n/a	PROB	171415	n/a	LTP326	ltpFR2	13	n/a	n/a	n/a	1	20	9	9	2
344.516	n/a	PROB	172258	n/a	LTP326	ltpFR2	13	n/a	n/a	n/a	1	20	7	9	4
347.128	n/a	STOP	173564	n/a	LTP326	ltpFR2	13	n/a	n/a	n/a	1	n/a	n/a	n/a	n/a
349.968	n/a	REC_START	174984	n/a	LTP326	ltpFR2	13	1	n/a	n/a	n/a	n/a	0	0	0
352.394	n/a	REC_WORD	176197	wordpools/wasnorm_wordpool_576.txt	LTP326	ltpFR2	13	1	FRIAR	605	n/a	n/a	0	0	0
353.512	n/a	REC_WORD	176756	wordpools/wasnorm_wordpool_576.txt	LTP326	ltpFR2	13	1	PREACHER	1119	n/a	n/a	0	0	0
355.452	n/a	REC_WORD	177726	wordpools/wasnorm_wordpool_576.txt	LTP326	ltpFR2	13	1	CRAYON	401	n/a	n/a	0	0	0
356.486	n/a	REC_WORD	178243	wordpools/wasnorm_wordpool_576.txt	LTP326	ltpFR2	13	1	MARKER	870	n/a	n/a	0	0	0
358.096	n/a	REC_WORD	179048	wordpools/wasnorm_wordpool_576.txt	LTP326	ltpFR2	13	1	PERMIT	1051	n/a	n/a	0	0	0
361.808	n/a	REC_WORD	180904	wordpools/wasnorm_wordpool_576.txt	LTP326	ltpFR2	13	1	SPHINX	1349	n/a	n/a	0	0	0
362.808	n/a	REC_WORD_VV	181404	wordpools/wasnorm_wordpool_576.txt	LTP326	ltpFR2	13	1	<>	-1	n/a	n/a	0	0	0
363.512	n/a	REC_WORD	181756	wordpools/wasnorm_wordpool_576.txt	LTP326	ltpFR2	13	1	FOREST	593	n/a	n/a	0	0	0
364.738	n/a	REC_WORD	182369	wordpools/wasnorm_wordpool_576.txt	LTP326	ltpFR2	13	1	STATUE	1374	n/a	n/a	0	0	0
365.738	n/a	REC_WORD_VV	182869	wordpools/wasnorm_wordpool_576.txt	LTP326	ltpFR2	13	1	<>	-1	n/a	n/a	0	0	0
367.652	n/a	REC_WORD	183826	wordpools/wasnorm_wordpool_576.txt	LTP326	ltpFR2	13	1	BRACES	164	n/a	n/a	0	0	0
369.108	n/a	REC_WORD	184554	wordpools/wasnorm_wordpool_576.txt	LTP326	ltpFR2	13	1	DENTIST	447	n/a	n/a	0	0	0
370.646	n/a	REC_WORD	185323	wordpools/wasnorm_wordpool_576.txt	LTP326	ltpFR2	13	1	BODY	145	n/a	n/a	0	0	0
371.836	n/a	REC_WORD	185918	wordpools/wasnorm_wordpool_576.txt	LTP326	ltpFR2	13	1	SHOULDER	1294	n/a	n/a	0	0	0
373.414	n/a	REC_WORD	186707	wordpools/wasnorm_wordpool_576.txt	LTP326	ltpFR2	13	1	MARROW	872	n/a	n/a	0	0	0
379.998	n/a	REC_WORD	189999	wordpools/wasnorm_wordpool_576.txt	LTP326	ltpFR2	13	1	ASIA	46	n/a	n/a	0	0	0
381.056	n/a	REC_WORD	190528	wordpools/wasnorm_wordpool_576.txt	LTP326	ltpFR2	13	1	LONDON	843	n/a	n/a	0	0	0
394.26	n/a	REC_WORD	197130	wordpools/wasnorm_wordpool_576.txt	LTP326	ltpFR2	13	1	GRIZZLY	662	n/a	n/a	0	0	0
410.06	n/a	REC_WORD	205030	wordpools/wasnorm_wordpool_576.txt	LTP326	ltpFR2	13	1	CONTRACT	368	n/a	n/a	0	0	0
421.24	n/a	REC_WORD	210620	wordpools/wasnorm_wordpool_576.txt	LTP326	ltpFR2	13	1	CLOTHES	327	n/a	n/a	0	0	0
440.386	n/a	DISTRACTOR	220193	n/a	LTP326	ltpFR2	13	2	n/a	n/a	n/a	n/a	0	0	0
440.386	n/a	START	220193	n/a	LTP326	ltpFR2	13	n/a	n/a	n/a	2	n/a	n/a	n/a	n/a
440.4	n/a	PROB	220200	n/a	LTP326	ltpFR2	13	n/a	n/a	n/a	2	13	4	6	3
442.224	n/a	PROB	221112	n/a	LTP326	ltpFR2	13	n/a	n/a	n/a	2	15	2	7	6
444.212	n/a	PROB	222106	n/a	LTP326	ltpFR2	13	n/a	n/a	n/a	2	11	2	6	3
446.28	n/a	PROB	223140	n/a	LTP326	ltpFR2	13	n/a	n/a	n/a	2	15	7	4	4
448.528	n/a	PROB	224264	n/a	LTP326	ltpFR2	13	n/a	n/a	n/a	2	13	5	2	6
451.182	n/a	PROB	225591	n/a	LTP326	ltpFR2	13	n/a	n/a	n/a	2	20	9	4	7
453.918	n/a	PROB	226959	n/a	LTP326	ltpFR2	13	n/a	n/a	n/a	2	9	1	6	2
455.452	n/a	PROB	227726	n/a	LTP326	ltpFR2	13	n/a	n/a	n/a	2	13	6	5	2
457.302	n/a	PROB	228651	n/a	LTP326	ltpFR2	13	n/a	n/a	n/a	2	17	7	7	3
458.586	n/a	PROB	229293	n/a	LTP326	ltpFR2	13	n/a	n/a	n/a	2	11	4	3	4
459.988	n/a	PROB	229994	n/a	LTP326	ltpFR2	13	n/a	n/a	n/a	2	14	5	1	8
461.668	n/a	PROB	230834	n/a	LTP326	ltpFR2	13	n/a	n/a	n/a	2	12	2	8	2
462.656	n/a	PROB	231328	n/a	LTP326	ltpFR2	13	n/a	n/a	n/a	2	18	4	7	7
464.218	n/a	STOP	232109	n/a	LTP326	ltpFR2	13	n/a	n/a	n/a	2	n/a	n/a	n/a	n/a
465.206	n/a	WORD	232603	wordpools/wasnorm_wordpool_576.txt	LTP326	ltpFR2	13	2	WHISTLE	1606	n/a	n/a	0	0	0
467.944	n/a	WORD	233972	wordpools/wasnorm_wordpool_576.txt	LTP326	ltpFR2	13	2	CURTAIN	427	n/a	n/a	0	0	0
470.626	n/a	WORD	235313	wordpools/wasnorm_wordpool_576.txt	LTP326	ltpFR2	13	2	VALLEY	1545	n/a	n/a	0	0	0
473.296	n/a	WORD	236648	wordpools/wasnorm_wordpool_576.txt	LTP326	ltpFR2	13	2	BEEF	113	n/a	n/a	0	0	0
475.864	n/a	WORD	237932	wordpools/wasnorm_wordpool_576.txt	LTP326	ltpFR2	13	2	SPOOL	1356	n/a	n/a	0	0	0
478.55	n/a	WORD	239275	wordpools/wasnorm_wordpool_576.txt	LTP326	ltpFR2	13	2	YARN	1631	n/a	n/a	0	0	0
481.22	n/a	WORD	240610	wordpools/wasnorm_wordpool_576.txt	LTP326	ltpFR2	13	2	VELVET	1555	n/a	n/a	0	0	0
484.022	n/a	WORD	242011	wordpools/wasnorm_wordpool_576.txt	LTP326	ltpFR2	13	2	DAISY	435	n/a	n/a	0	0	0
486.842	n/a	WORD	243421	wordpools/wasnorm_wordpool_576.txt	LTP326	ltpFR2	13	2	MONEY	908	n/a	n/a	0	0	0
489.392	n/a	WORD	244696	wordpools/wasnorm_wordpool_576.txt	LTP326	ltpFR2	13	2	WAITER	1580	n/a	n/a	0	0	0
491.944	n/a	WORD	245972	wordpools/wasnorm_wordpool_576.txt	LTP326	ltpFR2	13	2	DUSTPAN	509	n/a	n/a	0	0	0
494.396	n/a	WORD	247198	wordpools/wasnorm_wordpool_576.txt	LTP326	ltpFR2	13	2	SCALPEL	1243	n/a	n/a	0	0	0
497.15	n/a	WORD	248575	wordpools/wasnorm_wordpool_576.txt	LTP326	ltpFR2	13	2	BASEMENT	94	n/a	n/a	0	0	0
499.834	n/a	WORD	249917	wordpools/wasnorm_wordpool_576.txt	LTP326	ltpFR2	13	2	COTTAGE	384	n/a	n/a	0	0	0
502.42	n/a	WORD	251210	wordpools/wasnorm_wordpool_576.txt	LTP326	ltpFR2	13	2	MISSILE	900	n/a	n/a	0	0	0
505.156	n/a	WORD	252578	wordpools/wasnorm_wordpool_576.txt	LTP326	ltpFR2	13	2	LADDER	793	n/a	n/a	0	0	0
507.858	n/a	WORD	253929	wordpools/wasnorm_wordpool_576.txt	LTP326	ltpFR2	13	2	PLUTO	1092	n/a	n/a	0	0	0
510.444	n/a	WORD	255222	wordpools/wasnorm_wordpool_576.txt	LTP326	ltpFR2	13	2	SCARECROW	1245	n/a	n/a	0	0	0
512.98	n/a	WORD	256490	wordpools/wasnorm_wordpool_576.txt	LTP326	ltpFR2	13	2	FLAG	573	n/a	n/a	0	0	0
515.782	n/a	WORD	257891	wordpools/wasnorm_wordpool_576.txt	LTP326	ltpFR2	13	2	KEEPER	769	n/a	n/a	0	0	0
518.468	n/a	WORD	259234	wordpools/wasnorm_wordpool_576.txt	LTP326	ltpFR2	13	2	SHELTER	1282	n/a	n/a	0	0	0
521.054	n/a	WORD	260527	wordpools/wasnorm_wordpool_576.txt	LTP326	ltpFR2	13	2	MAILBOX	857	n/a	n/a	0	0	0
523.872	n/a	WORD	261936	wordpools/wasnorm_wordpool_576.txt	LTP326	ltpFR2	13	2	SILK	1307	n/a	n/a	0	0	0
526.34	n/a	WORD	263170	wordpools/wasnorm_wordpool_576.txt	LTP326	ltpFR2	13	2	GRILL	661	n/a	n/a	0	0	0
527.96	n/a	START	263980	n/a	LTP326	ltpFR2	13	n/a	n/a	n/a	3	n/a	n/a	n/a	n/a
528.982	n/a	DISTRACTOR	264491	n/a	LTP326	ltpFR2	13	2	n/a	n/a	n/a	n/a	0	0	0
528.992	n/a	PROB	264496	n/a	LTP326	ltpFR2	13	n/a	n/a	n/a	3	16	8	5	3
531.726	n/a	PROB	265863	n/a	LTP326	ltpFR2	13	n/a	n/a	n/a	3	11	4	1	6
533.162	n/a	PROB	266581	n/a	LTP326	ltpFR2	13	n/a	n/a	n/a	3	11	5	5	1
534.11	n/a	PROB	267055	n/a	LTP326	ltpFR2	13	n/a	n/a	n/a	3	19	8	2	9
535.512	n/a	PROB	267756	n/a	LTP326	ltpFR2	13	n/a	n/a	n/a	3	18	5	8	5
537.348	n/a	PROB	268674	n/a	LTP326	ltpFR2	13	n/a	n/a	n/a	3	14	4	2	8
538.648	n/a	PROB	269324	n/a	LTP326	ltpFR2	13	n/a	n/a	n/a	3	22	6	8	8
540.568	n/a	PROB	270284	n/a	LTP326	ltpFR2	13	n/a	n/a	n/a	3	11	2	1	8
542.536	n/a	PROB	271268	n/a	LTP326	ltpFR2	13	n/a	n/a	n/a	3	17	9	6	2
544.52	n/a	PROB	272260	n/a	LTP326	ltpFR2	13	n/a	n/a	n/a	3	22	9	6	9
546.822	n/a	PROB	273411	n/a	LTP326	ltpFR2	13	n/a	n/a	n/a	3	19	7	6	6
549.376	n/a	PROB	274688	n/a	LTP326	ltpFR2	13	n/a	n/a	n/a	3	10	3	4	3
551.01	n/a	STOP	275505	n/a	LTP326	ltpFR2	13	n/a	n/a	n/a	3	n/a	n/a	n/a	n/a
553.728	n/a	REC_START	276864	n/a	LTP326	ltpFR2	13	2	n/a	n/a	n/a	n/a	0	0	0
557.73	n/a	REC_WORD	278865	wordpools/wasnorm_wordpool_576.txt	LTP326	ltpFR2	13	2	VELVET	1555	n/a	n/a	0	0	0
558.882	n/a	REC_WORD	279441	wordpools/wasnorm_wordpool_576.txt	LTP326	ltpFR2	13	2	SILK	1307	n/a	n/a	0	0	0
560.408	n/a	REC_WORD	280204	wordpools/wasnorm_wordpool_576.txt	LTP326	ltpFR2	13	2	CURTAIN	427	n/a	n/a	0	0	0
564.868	n/a	REC_WORD	282434	wordpools/wasnorm_wordpool_576.txt	LTP326	ltpFR2	13	2	PLUTO	1092	n/a	n/a	0	0	0
565.978	n/a	REC_WORD	282989	wordpools/wasnorm_wordpool_576.txt	LTP326	ltpFR2	13	2	LADDER	793	n/a	n/a	0	0	0
567.174	n/a	REC_WORD	283587	wordpools/wasnorm_wordpool_576.txt	LTP326	ltpFR2	13	2	SCARECROW	1245	n/a	n/a	0	0	0
568.174	n/a	REC_WORD_VV	284087	wordpools/wasnorm_wordpool_576.txt	LTP326	ltpFR2	13	2	<>	-1	n/a	n/a	0	0	0
568.986	n/a	REC_WORD	284493	wordpools/wasnorm_wordpool_576.txt	LTP326	ltpFR2	13	2	MISSILE	900	n/a	n/a	0	0	0
573.062	n/a	REC_WORD	286531	wordpools/wasnorm_wordpool_576.txt	LTP326	ltpFR2	13	2	WHISTLE	1606	n/a	n/a	0	0	0
577.542	n/a	REC_WORD	288771	wordpools/wasnorm_wordpool_576.txt	LTP326	ltpFR2	13	2	GRILL	661	n/a	n/a	0	0	0
580.644	n/a	REC_WORD	290322	wordpools/wasnorm_wordpool_576.txt	LTP326	ltpFR2	13	2	SHELTER	1282	n/a	n/a	0	0	0
610.188	n/a	REC_WORD	305094	wordpools/wasnorm_wordpool_576.txt	LTP326	ltpFR2	13	2	YARN	1631	n/a	n/a	0	0	0
610.98	n/a	REC_WORD	305490	wordpools/wasnorm_wordpool_576.txt	LTP326	ltpFR2	13	2	SPOOL	1356	n/a	n/a	0	0	0
644.15	n/a	DISTRACTOR	322075	n/a	LTP326	ltpFR2	13	3	n/a	n/a	n/a	n/a	0	0	0
644.152	n/a	START	322076	n/a	LTP326	ltpFR2	13	n/a	n/a	n/a	4	n/a	n/a	n/a	n/a
644.166	n/a	PROB	322083	n/a	LTP326	ltpFR2	13	n/a	n/a	n/a	4	16	7	7	2
645.75	n/a	PROB	322875	n/a	LTP326	ltpFR2	13	n/a	n/a	n/a	4	5	1	3	1
646.8	n/a	PROB	323400	n/a	LTP326	ltpFR2	13	n/a	n/a	n/a	4	20	9	3	8
648.502	n/a	PROB	324251	n/a	LTP326	ltpFR2	13	n/a	n/a	n/a	4	18	2	8	8
649.652	n/a	PROB	324826	n/a	LTP326	ltpFR2	13	n/a	n/a	n/a	4	19	6	4	9
651.138	n/a	PROB	325569	n/a	LTP326	ltpFR2	13	n/a	n/a	n/a	4	14	8	2	4
652.136	n/a	PROB	326068	n/a	LTP326	ltpFR2	13	n/a	n/a	n/a	4	10	4	3	3
653.654	n/a	PROB	326827	n/a	LTP326	ltpFR2	13	n/a	n/a	n/a	4	24	8	9	7
655.874	n/a	PROB	327937	n/a	LTP326	ltpFR2	13	n/a	n/a	n/a	4	18	9	1	7
657.024	n/a	PROB	328512	n/a	LTP326	ltpFR2	13	n/a	n/a	n/a	4	23	9	7	7
660.276	n/a	PROB	330138	n/a	LTP326	ltpFR2	13	n/a	n/a	n/a	4	12	7	1	4
662.094	n/a	PROB	331047	n/a	LTP326	ltpFR2	13	n/a	n/a	n/a	4	13	2	3	8
663.83	n/a	PROB	331915	n/a	LTP326	ltpFR2	13	n/a	n/a	n/a	4	18	3	6	9
665.214	n/a	PROB	332607	n/a	LTP326	ltpFR2	13	n/a	n/a	n/a	4	23	6	8	9
667.796	n/a	STOP	333898	n/a	LTP326	ltpFR2	13	n/a	n/a	n/a	4	n/a	n/a	n/a	n/a
669.196	n/a	WORD	334598	wordpools/wasnorm_wordpool_576.txt	LTP326	ltpFR2	13	3	ELBOW	520	n/a	n/a	0	0	0
671.68	n/a	WORD	335840	wordpools/wasnorm_wordpool_576.txt	LTP326	ltpFR2	13	3	TRIBE	1505	n/a	n/a	0	0	0
674.122	n/a	WORD	337061	wordpools/wasnorm_wordpool_576.txt	LTP326	ltpFR2	13	3	LEG	809	n/a	n/a	0	0	0
676.702	n/a	WORD	338351	wordpools/wasnorm_wordpool_576.txt	LTP326	ltpFR2	13	3	GRAPE	654	n/a	n/a	0	0	0
679.16	n/a	WORD	339580	wordpools/wasnorm_wordpool_576.txt	LTP326	ltpFR2	13	3	POET	1095	n/a	n/a	0	0	0
681.822	n/a	WORD	340911	wordpools/wasnorm_wordpool_576.txt	LTP326	ltpFR2	13	3	HEDGE	699	n/a	n/a	0	0	0
684.542	n/a	WORD	342271	wordpools/wasnorm_wordpool_576.txt	LTP326	ltpFR2	13	3	BUCKET	184	n/a	n/a	0	0	0
687.278	n/a	WORD	343639	wordpools/wasnorm_wordpool_576.txt	LTP326	ltpFR2	13	3	SPONGE	1355	n/a	n/a	0	0	0
690.064	n/a	WORD	345032	wordpools/wasnorm_wordpool_576.txt	LTP326	ltpFR2	13	3	FLESH	579	n/a	n/a	0	0	0
692.636	n/a	WORD	346318	wordpools/wasnorm_wordpool_576.txt	LTP326	ltpFR2	13	3	ACTOR	5	n/a	n/a	0	0	0
695.188	n/a	WORD	347594	wordpools/wasnorm_wordpool_576.txt	LTP326	ltpFR2	13	3	HAMPER	682	n/a	n/a	0	0	0
697.836	n/a	WORD	348918	wordpools/wasnorm_wordpool_576.txt	LTP326	ltpFR2	13	3	REPORT	1184	n/a	n/a	0	0	0
700.47	n/a	WORD	350235	wordpools/wasnorm_wordpool_576.txt	LTP326	ltpFR2	13	3	CRUTCH	417	n/a	n/a	0	0	0
703.174	n/a	WORD	351587	wordpools/wasnorm_wordpool_576.txt	LTP326	ltpFR2	13	3	SUNRISE	1407	n/a	n/a	0	0	0
705.676	n/a	WORD	352838	wordpools/wasnorm_wordpool_576.txt	LTP326	ltpFR2	13	3	SANDWICH	1232	n/a	n/a	0	0	0
708.348	n/a	WORD	354174	wordpools/wasnorm_wordpool_576.txt	LTP326	ltpFR2	13	3	PAPER	1011	n/a	n/a	0	0	0
710.78	n/a	WORD	355390	wordpools/wasnorm_wordpool_576.txt	LTP326	ltpFR2	13	3	BINDER	127	n/a	n/a	0	0	0
713.366	n/a	WORD	356683	wordpools/wasnorm_wordpool_576.txt	LTP326	ltpFR2	13	3	COSTUME	383	n/a	n/a	0	0	0
716.118	n/a	WORD	358059	wordpools/wasnorm_wordpool_576.txt	LTP326	ltpFR2	13	3	NOTEBOOK	959	n/a	n/a	0	0	0
718.82	n/a	WORD	359410	wordpools/wasnorm_wordpool_576.txt	LTP326	ltpFR2	13	3	ACTRESS	6	n/a	n/a	0	0	0
721.24	n/a	WORD	360620	wordpools/wasnorm_wordpool_576.txt	LTP326	ltpFR2	13	3	LUMBER	848	n/a	n/a	0	0	0
724.042	n/a	WORD	362021	wordpools/wasnorm_wordpool_576.txt	LTP326	ltpFR2	13	3	POCKET	1093	n/a	n/a	0	0	0
726.78	n/a	WORD	363390	wordpools/wasnorm_wordpool_576.txt	LTP326	ltpFR2	13	3	CYCLONE	431	n/a	n/a	0	0	0
729.314	n/a	WORD	364657	wordpools/wasnorm_wordpool_576.txt	LTP326	ltpFR2	13	3	PUDDLE	1140	n/a	n/a	0	0	0
730.932	n/a	START	365466	n/a	LTP326	ltpFR2	13	n/a	n/a	n/a	5	n/a	n/a	n/a	n/a
731.896	n/a	DISTRACTOR	365948	n/a	LTP326	ltpFR2	13	3	n/a	n/a	n/a	n/a	0	0	0
731.916	n/a	PROB	365958	n/a	LTP326	ltpFR2	13	n/a	n/a	n/a	5	24	7	8	9
735.05	n/a	PROB	367525	n/a	LTP326	ltpFR2	13	n/a	n/a	n/a	5	15	5	6	4
736.172	n/a	PROB	368086	n/a	LTP326	ltpFR2	13	n/a	n/a	n/a	5	20	6	6	8
737.57	n/a	PROB	368785	n/a	LTP326	ltpFR2	13	n/a	n/a	n/a	5	21	9	7	5
739.756	n/a	PROB	369878	n/a	LTP326	ltpFR2	13	n/a	n/a	n/a	5	16	4	4	8
742.942	n/a	PROB	371471	n/a	LTP326	ltpFR2	13	n/a	n/a	n/a	5	13	2	2	9
744.36	n/a	PROB	372180	n/a	LTP326	ltpFR2	13	n/a	n/a	n/a	5	19	9	8	2
745.91	n/a	PROB	372955	n/a	LTP326	ltpFR2	13	n/a	n/a	n/a	5	22	5	8	9
748.38	n/a	PROB	374190	n/a	LTP326	ltpFR2	13	n/a	n/a	n/a	5	13	8	2	3
749.948	n/a	PROB	374974	n/a	LTP326	ltpFR2	13	n/a	n/a	n/a	5	12	1	4	7
751.464	n/a	PROB	375732	n/a	LTP326	ltpFR2	13	n/a	n/a	n/a	5	19	5	7	7
753.25	n/a	PROB	376625	n/a	LTP326	ltpFR2	13	n/a	n/a	n/a	5	10	6	3	1
754.55	n/a	STOP	377275	n/a	LTP326	ltpFR2	13	n/a	n/a	n/a	5	n/a	n/a	n/a	n/a
756.87	n/a	REC_START	378435	n/a	LTP326	ltpFR2	13	3	n/a	n/a	n/a	n/a	0	0	0
759.62	n/a	REC_WORD	379810	wordpools/wasnorm_wordpool_576.txt	LTP326	ltpFR2	13	3	TRIBE	1505	n/a	n/a	0	0	0
762.448	n/a	REC_WORD	381224	wordpools/wasnorm_wordpool_576.txt	LTP326	ltpFR2	13	3	FLESH	579	n/a	n/a	0	0	0
763.448	n/a	REC_WORD_VV	381724	wordpools/wasnorm_wordpool_576.txt	LTP326	ltpFR2	13	3	<>	-1	n/a	n/a	0	0	0
764.576	n/a	REC_WORD	382288	wordpools/wasnorm_wordpool_576.txt	LTP326	ltpFR2	13	3	ELBOW	520	n/a	n/a	0	0	0
765.992	n/a	REC_WORD	382996	wordpools/wasnorm_wordpool_576.txt	LTP326	ltpFR2	13	3	LEG	809	n/a	n/a	0	0	0
768.054	n/a	REC_WORD	384027	wordpools/wasnorm_wordpool_576.txt	LTP326	ltpFR2	13	3	CRUTCH	417	n/a	n/a	0	0	0
776.268	n/a	REC_WORD	388134	wordpools/wasnorm_wordpool_576.txt	LTP326	ltpFR2	13	3	ACTOR	5	n/a	n/a	0	0	0
777.43	n/a	REC_WORD	388715	wordpools/wasnorm_wordpool_576.txt	LTP326	ltpFR2	13	3	ACTRESS	6	n/a	n/a	0	0	0
778.97	n/a	REC_WORD	389485	wordpools/wasnorm_wordpool_576.txt	LTP326	ltpFR2	13	3	NOTEBOOK	959	n/a	n/a	0	0	0
779.97	n/a	REC_WORD_VV	389985	wordpools/wasnorm_wordpool_576.txt	LTP326	ltpFR2	13	3	<>	-1	n/a	n/a	0	0	0
790.98	n/a	REC_WORD	395490	wordpools/wasnorm_wordpool_576.txt	LTP326	ltpFR2	13	3	BINDER	127	n/a	n/a	0	0	0
795.536	n/a	REC_WORD	397768	wordpools/wasnorm_wordpool_576.txt	LTP326	ltpFR2	13	3	STAPLE	1371	n/a	n/a	0	0	0
814.382	n/a	REC_WORD	407191	wordpools/wasnorm_wordpool_576.txt	LTP326	ltpFR2	13	3	BUCKET	184	n/a	n/a	0	0	0
816.94	n/a	REC_WORD	408470	wordpools/wasnorm_wordpool_576.txt	LTP326	ltpFR2	13	3	SPONGE	1355	n/a	n/a	0	0	0
847.306	n/a	WORD	423653	wordpools/wasnorm_wordpool_576.txt	LTP326	ltpFR2	13	4	GALLON	618	n/a	n/a	0	0	0
849.876	n/a	WORD	424938	wordpools/wasnorm_wordpool_576.txt	LTP326	ltpFR2	13	4	KITCHEN	778	n/a	n/a	0	0	0
852.612	n/a	WORD	426306	wordpools/wasnorm_wordpool_576.txt	LTP326	ltpFR2	13	4	PADDLE	1000	n/a	n/a	0	0	0
855.264	n/a	WORD	427632	wordpools/wasnorm_wordpool_576.txt	LTP326	ltpFR2	13	4	TEACHER	1440	n/a	n/a	0	0	0
857.846	n/a	WORD	428923	wordpools/wasnorm_wordpool_576.txt	LTP326	ltpFR2	13	4	SERVANT	1271	n/a	n/a	0	0	0
860.522	n/a	WORD	430261	wordpools/wasnorm_wordpool_576.txt	LTP326	ltpFR2	13	4	WAITRESS	1581	n/a	n/a	0	0	0
863.178	n/a	WORD	431589	wordpools/wasnorm_wordpool_576.txt	LTP326	ltpFR2	13	4	JAPAN	749	n/a	n/a	0	0	0
865.878	n/a	WORD	432939	wordpools/wasnorm_wordpool_576.txt	LTP326	ltpFR2	13	4	COUNTRY	388	n/a	n/a	0	0	0
868.388	n/a	WORD	434194	wordpools/wasnorm_wordpool_576.txt	LTP326	ltpFR2	13	4	COLONEL	348	n/a	n/a	0	0	0
870.966	n/a	WORD	435483	wordpools/wasnorm_wordpool_576.txt	LTP326	ltpFR2	13	4	GUARD	667	n/a	n/a	0	0	0
873.76	n/a	WORD	436880	wordpools/wasnorm_wordpool_576.txt	LTP326	ltpFR2	13	4	DRINK	498	n/a	n/a	0	0	0
876.346	n/a	WORD	438173	wordpools/wasnorm_wordpool_576.txt	LTP326	ltpFR2	13	4	SISTER	1312	n/a	n/a	0	0	0
878.864	n/a	WORD	439432	wordpools/wasnorm_wordpool_576.txt	LTP326	ltpFR2	13	4	WINDOW	1611	n/a	n/a	0	0	0
881.566	n/a	WORD	440783	wordpools/wasnorm_wordpool_576.txt	LTP326	ltpFR2	13	4	IGLOO	734	n/a	n/a	0	0	0
884.178	n/a	WORD	442089	wordpools/wasnorm_wordpool_576.txt	LTP326	ltpFR2	13	4	CHURCH	307	n/a	n/a	0	0	0
886.98	n/a	WORD	443490	wordpools/wasnorm_wordpool_576.txt	LTP326	ltpFR2	13	4	NOMAD	955	n/a	n/a	0	0	0
889.716	n/a	WORD	444858	wordpools/wasnorm_wordpool_576.txt	LTP326	ltpFR2	13	4	ICING	732	n/a	n/a	0	0	0
892.308	n/a	WORD	446154	wordpools/wasnorm_wordpool_576.txt	LTP326	ltpFR2	13	4	BRANDY	169	n/a	n/a	0	0	0
895.02	n/a	WORD	447510	wordpools/wasnorm_wordpool_576.txt	LTP326	ltpFR2	13	4	ROCKET	1202	n/a	n/a	0	0	0
897.712	n/a	WORD	448856	wordpools/wasnorm_wordpool_576.txt	LTP326	ltpFR2	13	4	TUBA	1515	n/a	n/a	0	0	0
900.29	n/a	WORD	450145	wordpools/wasnorm_wordpool_576.txt	LTP326	ltpFR2	13	4	DENIM	446	n/a	n/a	0	0	0
902.76	n/a	WORD	451380	wordpools/wasnorm_wordpool_576.txt	LTP326	ltpFR2	13	4	MISTER	901	n/a	n/a	0	0	0
905.462	n/a	WORD	452731	wordpools/wasnorm_wordpool_576.txt	LTP326	ltpFR2	13	4	SLIDE	1326	n/a	n/a	0	0	0
907.93	n/a	WORD	453965	wordpools/wasnorm_wordpool_576.txt	LTP326	ltpFR2	13	4	EXPERT	543	n/a	n/a	0	0	0
909.54	n/a	START	454770	n/a	LTP326	ltpFR2	13	n/a	n/a	n/a	6	n/a	n/a	n/a	n/a
910.358	n/a	DISTRACTOR	455179	n/a	LTP326	ltpFR2	13	4	n/a	n/a	n/a	n/a	0	0	0
910.366	n/a	PROB	455183	n/a	LTP326	ltpFR2	13	n/a	n/a	n/a	6	7	1	3	3
912.206	n/a	PROB	456103	n/a	LTP326	ltpFR2	13	n/a	n/a	n/a	6	19	8	6	5
914.142	n/a	PROB	457071	n/a	LTP326	ltpFR2	13	n/a	n/a	n/a	6	21	7	7	7
915.96	n/a	PROB	457980	n/a	LTP326	ltpFR2	13	n/a	n/a	n/a	6	13	7	2	4
918.078	n/a	PROB	459039	n/a	LTP326	ltpFR2	13	n/a	n/a	n/a	6	12	2	1	9
920.298	n/a	PROB	460149	n/a	LTP326	ltpFR2	13	n/a	n/a	n/a	6	20	5	9	6
922.798	n/a	PROB	461399	n/a	LTP326	ltpFR2	13	n/a	n/a	n/a	6	13	7	3	3
923.998	n/a	PROB	461999	n/a	LTP326	ltpFR2	13	n/a	n/a	n/a	6	20	9	6	5
925.484	n/a	PROB	462742	n/a	LTP326	ltpFR2	13	n/a	n/a	n/a	6	16	3	9	4
928.002	n/a	PROB	464001	n/a	LTP326	ltpFR2	13	n/a	n/a	n/a	6	14	4	1	9
929.504	n/a	PROB	464752	n/a	LTP326	ltpFR2	13	n/a	n/a	n/a	6	21	6	9	6
933.54	n/a	STOP	466770	n/a	LTP326	ltpFR2	13	n/a	n/a	n/a	6	n/a	n/a	n/a	n/a
935.426	n/a	REC_START	467713	n/a	LTP326	ltpFR2	13	4	n/a	n/a	n/a	n/a	0	0	0
937.706	n/a	REC_WORD	468853	wordpools/wasnorm_wordpool_576.txt	LTP326	ltpFR2	13	4	GALLON	618	n/a	n/a	0	0	0
939.198	n/a	REC_WORD	469599	wordpools/wasnorm_wordpool_576.txt	LTP326	ltpFR2	13	4	DRINK	498	n/a	n/a	0	0	0
940.562	n/a	REC_WORD	470281	wordpools/wasnorm_wordpool_576.txt	LTP326	ltpFR2	13	4	KITCHEN	778	n/a	n/a	0	0	0
942.27	n/a	REC_WORD	471135	wordpools/wasnorm_wordpool_576.txt	LTP326	ltpFR2	13	4	ICING	732	n/a	n/a	0	0	0
943.624	n/a	REC_WORD	471812	wordpools/wasnorm_wordpool_576.txt	LTP326	ltpFR2	13	4	BRANDY	169	n/a	n/a	0	0	0
945.022	n/a	REC_WORD	472511	wordpools/wasnorm_wordpool_576.txt	LTP326	ltpFR2	13	4	WINDOW	1611	n/a	n/a	0	0	0
946.684	n/a	REC_WORD	473342	wordpools/wasnorm_wordpool_576.txt	LTP326	ltpFR2	13	4	EXPERT	543	n/a	n/a	0	0	0
948.076	n/a	REC_WORD	474038	wordpools/wasnorm_wordpool_576.txt	LTP326	ltpFR2	13	4	SLIDE	1326	n/a	n/a	0	0	0
950.4	n/a	REC_WORD	475200	wordpools/wasnorm_wordpool_576.txt	LTP326	ltpFR2	13	4	GUARD	667	n/a	n/a	0	0	0
952.354	n/a	REC_WORD	476177	wordpools/wasnorm_wordpool_576.txt	LTP326	ltpFR2	13	4	TEACHER	1440	n/a	n/a	0	0	0
957.198	n/a	REC_WORD	478599	wordpools/wasnorm_wordpool_576.txt	LTP326	ltpFR2	13	4	SISTER	1312	n/a	n/a	0	0	0
965.892	n/a	REC_WORD	482946	wordpools/wasnorm_wordpool_576.txt	LTP326	ltpFR2	13	4	NOMAD	955	n/a	n/a	0	0	0
967.822	n/a	REC_WORD	483911	wordpools/wasnorm_wordpool_576.txt	LTP326	ltpFR2	13	4	IGLOO	734	n/a	n/a	0	0	0
970.356	n/a	REC_WORD	485178	wordpools/wasnorm_wordpool_576.txt	LTP326	ltpFR2	13	4	CHURCH	307	n/a	n/a	0	0	0
991.104	n/a	REC_WORD	495552	wordpools/wasnorm_wordpool_576.txt	LTP326	ltpFR2	13	4	WITNESS	1618	n/a	n/a	0	0	0
1025.896	n/a	WORD	512948	wordpools/wasnorm_wordpool_576.txt	LTP326	ltpFR2	13	5	BEAST	108	n/a	n/a	0	0	0
1028.514	n/a	WORD	514257	wordpools/wasnorm_wordpool_576.txt	LTP326	ltpFR2	13	5	POSSUM	1112	n/a	n/a	0	0	0
1031.25	n/a	WORD	515625	wordpools/wasnorm_wordpool_576.txt	LTP326	ltpFR2	13	5	CHIPMUNK	304	n/a	n/a	0	0	0
1034.068	n/a	WORD	517034	wordpools/wasnorm_wordpool_576.txt	LTP326	ltpFR2	13	5	TWEEZERS	1526	n/a	n/a	0	0	0
1036.756	n/a	WORD	518378	wordpools/wasnorm_wordpool_576.txt	LTP326	ltpFR2	13	5	PLAZA	1088	n/a	n/a	0	0	0
1039.306	n/a	WORD	519653	wordpools/wasnorm_wordpool_576.txt	LTP326	ltpFR2	13	5	LASER	801	n/a	n/a	0	0	0
1041.858	n/a	WORD	520929	wordpools/wasnorm_wordpool_576.txt	LTP326	ltpFR2	13	5	RIFLE	1192	n/a	n/a	0	0	0
1044.56	n/a	WORD	522280	wordpools/wasnorm_wordpool_576.txt	LTP326	ltpFR2	13	5	RAFT	1159	n/a	n/a	0	0	0
1047.328	n/a	WORD	523664	wordpools/wasnorm_wordpool_576.txt	LTP326	ltpFR2	13	5	LAKE	796	n/a	n/a	0	0	0
1049.764	n/a	WORD	524882	wordpools/wasnorm_wordpool_576.txt	LTP326	ltpFR2	13	5	FIREMAN	569	n/a	n/a	0	0	0
1052.4	n/a	WORD	526200	wordpools/wasnorm_wordpool_576.txt	LTP326	ltpFR2	13	5	GYMNAST	675	n/a	n/a	0	0	0
1054.936	n/a	WORD	527468	wordpools/wasnorm_wordpool_576.txt	LTP326	ltpFR2	13	5	BULLET	194	n/a	n/a	0	0	0
1057.37	n/a	WORD	528685	wordpools/wasnorm_wordpool_576.txt	LTP326	ltpFR2	13	5	TRACTOR	1493	n/a	n/a	0	0	0
1059.906	n/a	WORD	529953	wordpools/wasnorm_wordpool_576.txt	LTP326	ltpFR2	13	5	RECEIPT	1173	n/a	n/a	0	0	0
1062.644	n/a	WORD	531322	wordpools/wasnorm_wordpool_576.txt	LTP326	ltpFR2	13	5	YOLK	1633	n/a	n/a	0	0	0
1065.46	n/a	WORD	532730	wordpools/wasnorm_wordpool_576.txt	LTP326	ltpFR2	13	5	SHORTCAKE	1292	n/a	n/a	0	0	0
1068.062	n/a	WORD	534031	wordpools/wasnorm_wordpool_576.txt	LTP326	ltpFR2	13	5	BADGE	68	n/a	n/a	0	0	0
1070.68	n/a	WORD	535340	wordpools/wasnorm_wordpool_576.txt	LTP326	ltpFR2	13	5	CHILD	299	n/a	n/a	0	0	0
1073.298	n/a	WORD	536649	wordpools/wasnorm_wordpool_576.txt	LTP326	ltpFR2	13	5	OFFICE	972	n/a	n/a	0	0	0
1076.052	n/a	WORD	538026	wordpools/wasnorm_wordpool_576.txt	LTP326	ltpFR2	13	5	TOURIST	1488	n/a	n/a	0	0	0
1078.72	n/a	WORD	539360	wordpools/wasnorm_wordpool_576.txt	LTP326	ltpFR2	13	5	PORTRAIT	1111	n/a	n/a	0	0	0
1081.422	n/a	WORD	540711	wordpools/wasnorm_wordpool_576.txt	LTP326	ltpFR2	13	5	DRAGON	492	n/a	n/a	0	0	0
1083.99	n/a	WORD	541995	wordpools/wasnorm_wordpool_576.txt	LTP326	ltpFR2	13	5	HERO	706	n/a	n/a	0	0	0
1086.644	n/a	WORD	543322	wordpools/wasnorm_wordpool_576.txt	LTP326	ltpFR2	13	5	ORANGE	980	n/a	n/a	0	0	0
1088.252	n/a	START	544126	n/a	LTP326	ltpFR2	13	n/a	n/a	n/a	7	n/a	n/a	n/a	n/a
1089.276	n/a	DISTRACTOR	544638	n/a	LTP326	ltpFR2	13	5	n/a	n/a	n/a	n/a	0	0	0
1089.284	n/a	PROB	544642	n/a	LTP326	ltpFR2	13	n/a	n/a	n/a	7	18	2	7	9
1091.162	n/a	PROB	545581	n/a	LTP326	ltpFR2	13	n/a	n/a	n/a	7	7	1	1	5
1092.414	n/a	PROB	546207	n/a	LTP326	ltpFR2	13	n/a	n/a	n/a	7	16	4	8	4
1094.082	n/a	PROB	547041	n/a	LTP326	ltpFR2	13	n/a	n/a	n/a	7	17	3	5	9
1096.368	n/a	PROB	548184	n/a	LTP326	ltpFR2	13	n/a	n/a	n/a	7	22	9	8	5
1098.784	n/a	PROB	549392	n/a	LTP326	ltpFR2	13	n/a	n/a	n/a	7	15	7	1	7
1100.37	n/a	PROB	550185	n/a	LTP326	ltpFR2	13	n/a	n/a	n/a	7	18	8	8	2
1101.822	n/a	PROB	550911	n/a	LTP326	ltpFR2	13	n/a	n/a	n/a	7	21	8	7	6
1104.722	n/a	PROB	552361	n/a	LTP326	ltpFR2	13	n/a	n/a	n/a	7	16	3	7	6
1105.922	n/a	PROB	552961	n/a	LTP326	ltpFR2	13	n/a	n/a	n/a	7	14	7	5	2
1107.59	n/a	PROB	553795	n/a	LTP326	ltpFR2	13	n/a	n/a	n/a	7	23	9	6	8
1109.476	n/a	PROB	554738	n/a	LTP326	ltpFR2	13	n/a	n/a	n/a	7	18	5	4	9
1110.988	n/a	STOP	555494	n/a	LTP326	ltpFR2	13	n/a	n/a	n/a	7	n/a	n/a	n/a	n/a
1114.032	n/a	REC_START	557016	n/a	LTP326	ltpFR2	13	5	n/a	n/a	n/a	n/a	0	0	0
1119.588	n/a	REC_WORD	559794	wordpools/wasnorm_wordpool_576.txt	LTP326	ltpFR2	13	5	PLAZA	1088	n/a	n/a	0	0	0
1120.588	n/a	REC_WORD_VV	560294	wordpools/wasnorm_wordpool_576.txt	LTP326	ltpFR2	13	5	<>	-1	n/a	n/a	0	0	0
1120.888	n/a	REC_WORD	560444	wordpools/wasnorm_wordpool_576.txt	LTP326	ltpFR2	13	5	LASER	801	n/a	n/a	0	0	0
1122.372	n/a	REC_WORD	561186	wordpools/wasnorm_wordpool_576.txt	LTP326	ltpFR2	13	5	RIFLE	1192	n/a	n/a	0	0	0
1123.864	n/a	REC_WORD	561932	wordpools/wasnorm_wordpool_576.txt	LTP326	ltpFR2	13	5	BULLET	194	n/a	n/a	0	0	0
1126.72	n/a	REC_WORD	563360	wordpools/wasnorm_wordpool_576.txt	LTP326	ltpFR2	13	5	TRACTOR	1493	n/a	n/a	0	0	0
1128.288	n/a	REC_WORD	564144	wordpools/wasnorm_wordpool_576.txt	LTP326	ltpFR2	13	5	FIREMAN	569	n/a	n/a	0	0	0
1129.288	n/a	REC_WORD_VV	564644	wordpools/wasnorm_wordpool_576.txt	LTP326	ltpFR2	13	5	<>	-1	n/a	n/a	0	0	0
1129.748	n/a	REC_WORD	564874	wordpools/wasnorm_wordpool_576.txt	LTP326	ltpFR2	13	5	LAKE	796	n/a	n/a	0	0	0
1131.224	n/a	REC_WORD	565612	wordpools/wasnorm_wordpool_576.txt	LTP326	ltpFR2	13	5	PORTRAIT	1111	n/a	n/a	0	0	0
1135.73	n/a	REC_WORD	567865	wordpools/wasnorm_wordpool_576.txt	LTP326	ltpFR2	13	5	BEAST	108	n/a	n/a	0	0	0
1136.87	n/a	REC_WORD	568435	wordpools/wasnorm_wordpool_576.txt	LTP326	ltpFR2	13	5	CHIPMUNK	304	n/a	n/a	0	0	0
1137.87	n/a	REC_WORD_VV	568935	wordpools/wasnorm_wordpool_576.txt	LTP326	ltpFR2	13	5	<>	-1	n/a	n/a	0	0	0
1140.308	n/a	REC_WORD	570154	wordpools/wasnorm_wordpool_576.txt	LTP326	ltpFR2	13	5	POSSUM	1112	n/a	n/a	0	0	0
1152.654	n/a	REC_WORD	576327	wordpools/wasnorm_wordpool_576.txt	LTP326	ltpFR2	13	5	OFFICE	972	n/a	n/a	0	0	0
1153.978	n/a	REC_WORD	576989	wordpools/wasnorm_wordpool_576.txt	LTP326	ltpFR2	13	5	BADGE	68	n/a	n/a	0	0	0
1155.788	n/a	REC_WORD	577894	wordpools/wasnorm_wordpool_576.txt	LTP326	ltpFR2	13	5	POLICE	1098	n/a	n/a	0	0	0
1204.484	n/a	DISTRACTOR	602242	n/a	LTP326	ltpFR2	13	6	n/a	n/a	n/a	n/a	0	0	0
1204.484	n/a	START	602242	n/a	LTP326	ltpFR2	13	n/a	n/a	n/a	8	n/a	n/a	n/a	n/a
1204.5	n/a	PROB	602250	n/a	LTP326	ltpFR2	13	n/a	n/a	n/a	8	8	5	2	1
1206.118	n/a	PROB	603059	n/a	LTP326	ltpFR2	13	n/a	n/a	n/a	8	8	1	3	4
1207.402	n/a	PROB	603701	n/a	LTP326	ltpFR2	13	n/a	n/a	n/a	8	20	9	5	6
1209.77	n/a	PROB	604885	n/a	LTP326	ltpFR2	13	n/a	n/a	n/a	8	15	1	8	6
1211.138	n/a	PROB	605569	n/a	LTP326	ltpFR2	13	n/a	n/a	n/a	8	19	7	9	3
1213.974	n/a	PROB	606987	n/a	LTP326	ltpFR2	13	n/a	n/a	n/a	8	13	1	9	3
1215.128	n/a	PROB	607564	n/a	LTP326	ltpFR2	13	n/a	n/a	n/a	8	23	8	7	8
1218.428	n/a	PROB	609214	n/a	LTP326	ltpFR2	13	n/a	n/a	n/a	8	15	5	3	7
1219.96	n/a	PROB	609980	n/a	LTP326	ltpFR2	13	n/a	n/a	n/a	8	11	9	1	1
1221.064	n/a	PROB	610532	n/a	LTP326	ltpFR2	13	n/a	n/a	n/a	8	22	9	3	9
1222.848	n/a	PROB	611424	n/a	LTP326	ltpFR2	13	n/a	n/a	n/a	8	10	2	6	4
1228.482	n/a	STOP	614241	n/a	LTP326	ltpFR2	13	n/a	n/a	n/a	8	n/a	n/a	n/a	n/a
1229.652	n/a	WORD	614826	wordpools/wasnorm_wordpool_576.txt	LTP326	ltpFR2	13	6	PACKAGE	997	n/a	n/a	0	0	0
1232.206	n/a	WORD	616103	wordpools/wasnorm_wordpool_576.txt	LTP326	ltpFR2	13	6	LAVA	804	n/a	n/a	0	0	0
1234.892	n/a	WORD	617446	wordpools/wasnorm_wordpool_576.txt	LTP326	ltpFR2	13	6	CRATER	400	n/a	n/a	0	0	0
1237.394	n/a	WORD	618697	wordpools/wasnorm_wordpool_576.txt	LTP326	ltpFR2	13	6	LIZARD	834	n/a	n/a	0	0	0
1240.028	n/a	WORD	620014	wordpools/wasnorm_wordpool_576.txt	LTP326	ltpFR2	13	6	PLAYGROUND	1087	n/a	n/a	0	0	0
1242.832	n/a	WORD	621416	wordpools/wasnorm_wordpool_576.txt	LTP326	ltpFR2	13	6	FLIPPER	580	n/a	n/a	0	0	0
1245.632	n/a	WORD	622816	wordpools/wasnorm_wordpool_576.txt	LTP326	ltpFR2	13	6	MAMMAL	861	n/a	n/a	0	0	0
1248.186	n/a	WORD	624093	wordpools/wasnorm_wordpool_576.txt	LTP326	ltpFR2	13	6	SWITCH	1422	n/a	n/a	0	0	0
1250.67	n/a	WORD	625335	wordpools/wasnorm_wordpool_576.txt	LTP326	ltpFR2	13	6	BANK	83	n/a	n/a	0	0	0
1253.14	n/a	WORD	626570	wordpools/wasnorm_wordpool_576.txt	LTP326	ltpFR2	13	6	ITEM	746	n/a	n/a	0	0	0
1255.574	n/a	WORD	627787	wordpools/wasnorm_wordpool_576.txt	LTP326	ltpFR2	13	6	DAUGHTER	442	n/a	n/a	0	0	0
1258.292	n/a	WORD	629146	wordpools/wasnorm_wordpool_576.txt	LTP326	ltpFR2	13	6	FLASHLIGHT	575	n/a	n/a	0	0	0
1261.028	n/a	WORD	630514	wordpools/wasnorm_wordpool_576.txt	LTP326	ltpFR2	13	6	ROBBER	1197	n/a	n/a	0	0	0
1263.764	n/a	WORD	631882	wordpools/wasnorm_wordpool_576.txt	LTP326	ltpFR2	13	6	INFANT	737	n/a	n/a	0	0	0
1266.398	n/a	WORD	633199	wordpools/wasnorm_wordpool_576.txt	LTP326	ltpFR2	13	6	LIVER	833	n/a	n/a	0	0	0
1268.918	n/a	WORD	634459	wordpools/wasnorm_wordpool_576.txt	LTP326	ltpFR2	13	6	STOVE	1388	n/a	n/a	0	0	0
1271.736	n/a	WORD	635868	wordpools/wasnorm_wordpool_576.txt	LTP326	ltpFR2	13	6	BANQUET	86	n/a	n/a	0	0	0
1274.504	n/a	WORD	637252	wordpools/wasnorm_wordpool_576.txt	LTP326	ltpFR2	13	6	LAGOON	795	n/a	n/a	0	0	0
1277.058	n/a	WORD	638529	wordpools/wasnorm_wordpool_576.txt	LTP326	ltpFR2	13	6	ATLAS	53	n/a	n/a	0	0	0
1279.61	n/a	WORD	639805	wordpools/wasnorm_wordpool_576.txt	LTP326	ltpFR2	13	6	FRAME	600	n/a	n/a	0	0	0
1282.078	n/a	WORD	641039	wordpools/wasnorm_wordpool_576.txt	LTP326	ltpFR2	13	6	CANAL	226	n/a	n/a	0	0	0
1284.65	n/a	WORD	642325	wordpools/wasnorm_wordpool_576.txt	LTP326	ltpFR2	13	6	KIDNEY	776	n/a	n/a	0	0	0
1287.216	n/a	WORD	643608	wordpools/wasnorm_wordpool_576.txt	LTP326	ltpFR2	13	6	NAPKIN	937	n/a	n/a	0	0	0
1289.818	n/a	WORD	644909	wordpools/wasnorm_wordpool_576.txt	LTP326	ltpFR2	13	6	JELLY	755	n/a	n/a	0	0	0
1291.422	n/a	START	645711	n/a	LTP326	ltpFR2	13	n/a	n/a	n/a	9	n/a	n/a	n/a	n/a
1292.416	n/a	DISTRACTOR	646208	n/a	LTP326	ltpFR2	13	6	n/a	n/a	n/a	n/a	0	0	0
1292.424	n/a	PROB	646212	n/a	LTP326	ltpFR2	13	n/a	n/a	n/a	9	13	3	8	2
1293.886	n/a	PROB	646943	n/a	LTP326	ltpFR2	13	n/a	n/a	n/a	9	13	7	2	4
1296.572	n/a	PROB	648286	n/a	LTP326	ltpFR2	13	n/a	n/a	n/a	9	14	8	2	4
1297.674	n/a	PROB	648837	n/a	LTP326	ltpFR2	13	n/a	n/a	n/a	9	23	6	8	9
1299.208	n/a	PROB	649604	n/a	LTP326	ltpFR2	13	n/a	n/a	n/a	9	7	4	1	2
1301.042	n/a	PROB	650521	n/a	LTP326	ltpFR2	13	n/a	n/a	n/a	9	18	5	8	5
1303.196	n/a	PROB	651598	n/a	LTP326	ltpFR2	13	n/a	n/a	n/a	9	19	5	9	8
1306.698	n/a	PROB	653349	n/a	LTP326	ltpFR2	13	n/a	n/a	n/a	9	19	6	8	5
1308.914	n/a	PROB	654457	n/a	LTP326	ltpFR2	13	n/a	n/a	n/a	9	15	7	7	1
1310.366	n/a	PROB	655183	n/a	LTP326	ltpFR2	13	n/a	n/a	n/a	9	19	6	6	7
1313.068	n/a	PROB	656534	n/a	LTP326	ltpFR2	13	n/a	n/a	n/a	9	19	5	8	6
1314.822	n/a	STOP	657411	n/a	LTP326	ltpFR2	13	n/a	n/a	n/a	9	n/a	n/a	n/a	n/a
1317.174	n/a	REC_START	658587	n/a	LTP326	ltpFR2	13	6	n/a	n/a	n/a	n/a	0	0	0
1321.492	n/a	REC_WORD	660746	wordpools/wasnorm_wordpool_576.txt	LTP326	ltpFR2	13	6	CRATER	400	n/a	n/a	0	0	0
1322.914	n/a	REC_WORD	661457	wordpools/wasnorm_wordpool_576.txt	LTP326	ltpFR2	13	6	LAVA	804	n/a	n/a	0	0	0
1327.546	n/a	REC_WORD	663773	wordpools/wasnorm_wordpool_576.txt	LTP326	ltpFR2	13	6	LAGOON	795	n/a	n/a	0	0	0
1328.59	n/a	REC_WORD	664295	wordpools/wasnorm_wordpool_576.txt	LTP326	ltpFR2	13	6	CANAL	226	n/a	n/a	0	0	0
1330.574	n/a	REC_WORD	665287	wordpools/wasnorm_wordpool_576.txt	LTP326	ltpFR2	13	6	DAUGHTER	442	n/a	n/a	0	0	0
1331.642	n/a	REC_WORD	665821	wordpools/wasnorm_wordpool_576.txt	LTP326	ltpFR2	13	6	INFANT	737	n/a	n/a	0	0	0
1332.924	n/a	REC_WORD	666462	wordpools/wasnorm_wordpool_576.txt	LTP326	ltpFR2	13	6	KIDNEY	776	n/a	n/a	0	0	0
1334.85	n/a	REC_WORD	667425	wordpools/wasnorm_wordpool_576.txt	LTP326	ltpFR2	13	6	BANK	83	n/a	n/a	0	0	0
1336.08	n/a	REC_WORD	668040	wordpools/wasnorm_wordpool_576.txt	LTP326	ltpFR2	13	6	SWITCH	1422	n/a	n/a	0	0	0
1337.792	n/a	REC_WORD	668896	wordpools/wasnorm_wordpool_576.txt	LTP326	ltpFR2	13	6	ROBBER	1197	n/a	n/a	0	0	0
1341.828	n/a	REC_WORD	670914	wordpools/wasnorm_wordpool_576.txt	LTP326	ltpFR2	13	6	NAPKIN	937	n/a	n/a	0	0	0
1343.13	n/a	REC_WORD	671565	wordpools/wasnorm_wordpool_576.txt	LTP326	ltpFR2	13	6	JELLY	755	n/a	n/a	0	0	0
1350.65	n/a	REC_WORD	675325	wordpools/wasnorm_wordpool_576.txt	LTP326	ltpFR2	13	6	FRAME	600	n/a	n/a	0	0	0
1407.592	n/a	DISTRACTOR	703796	n/a	LTP326	ltpFR2	13	7	n/a	n/a	n/a	n/a	0	0	0
1407.592	n/a	START	703796	n/a	LTP326	ltpFR2	13	n/a	n/a	n/a	10	n/a	n/a	n/a	n/a
1407.608	n/a	PROB	703804	n/a	LTP326	ltpFR2	13	n/a	n/a	n/a	10	16	2	9	5
1410.128	n/a	PROB	705064	n/a	LTP326	ltpFR2	13	n/a	n/a	n/a	10	10	4	2	4
1412.012	n/a	PROB	706006	n/a	LTP326	ltpFR2	13	n/a	n/a	n/a	10	19	4	6	9
1413.53	n/a	PROB	706765	n/a	LTP326	ltpFR2	13	n/a	n/a	n/a	10	14	3	7	4
1414.53	n/a	PROB	707265	n/a	LTP326	ltpFR2	13	n/a	n/a	n/a	10	14	2	5	7
1416.15	n/a	PROB	708075	n/a	LTP326	ltpFR2	13	n/a	n/a	n/a	10	1	3	4	7
1417.266	n/a	PROB	708633	n/a	LTP326	ltpFR2	13	n/a	n/a	n/a	10	17	7	9	1
1419.068	n/a	PROB	709534	n/a	LTP326	ltpFR2	13	n/a	n/a	n/a	10	16	4	8	4
1420.52	n/a	PROB	710260	n/a	LTP326	ltpFR2	13	n/a	n/a	n/a	10	17	3	7	7
1421.72	n/a	PROB	710860	n/a	LTP326	ltpFR2	13	n/a	n/a	n/a	10	8	5	1	2
1423.37	n/a	PROB	711685	n/a	LTP326	ltpFR2	13	n/a	n/a	n/a	10	22	8	8	6
1426.09	n/a	PROB	713045	n/a	LTP326	ltpFR2	13	n/a	n/a	n/a	10	15	5	3	7
1427.492	n/a	PROB	713746	n/a	LTP326	ltpFR2	13	n/a	n/a	n/a	10	12	6	4	2
1428.688	n/a	PROB	714344	n/a	LTP326	ltpFR2	13	n/a	n/a	n/a	10	14	4	1	9
1430.696	n/a	STOP	715348	n/a	LTP326	ltpFR2	13	n/a	n/a	n/a	10	n/a	n/a	n/a	n/a
1432.51	n/a	WORD	716255	wordpools/wasnorm_wordpool_576.txt	LTP326	ltpFR2	13	7	LILY	821	n/a	n/a	0	0	0
1435.13	n/a	WORD	717565	wordpools/wasnorm_wordpool_576.txt	LTP326	ltpFR2	13	7	SEAL	1262	n/a	n/a	0	0	0
1437.646	n/a	WORD	718823	wordpools/wasnorm_wordpool_576.txt	LTP326	ltpFR2	13	7	HUSBAND	728	n/a	n/a	0	0	0
1440.102	n/a	WORD	720051	wordpools/wasnorm_wordpool_576.txt	LTP326	ltpFR2	13	7	SADDLE	1221	n/a	n/a	0	0	0
1442.9	n/a	WORD	721450	wordpools/wasnorm_wordpool_576.txt	LTP326	ltpFR2	13	7	STALLION	1369	n/a	n/a	0	0	0
1445.622	n/a	WORD	722811	wordpools/wasnorm_wordpool_576.txt	LTP326	ltpFR2	13	7	FLUTE	585	n/a	n/a	0	0	0
1448.388	n/a	WORD	724194	wordpools/wasnorm_wordpool_576.txt	LTP326	ltpFR2	13	7	POSTAGE	1113	n/a	n/a	0	0	0
1451.194	n/a	WORD	725597	wordpools/wasnorm_wordpool_576.txt	LTP326	ltpFR2	13	7	SCISSORS	1250	n/a	n/a	0	0	0
1453.912	n/a	WORD	726956	wordpools/wasnorm_wordpool_576.txt	LTP326	ltpFR2	13	7	SEAGULL	1261	n/a	n/a	0	0	0
1456.58	n/a	WORD	728290	wordpools/wasnorm_wordpool_576.txt	LTP326	ltpFR2	13	7	TERMITE	1451	n/a	n/a	0	0	0
1459.082	n/a	WORD	729541	wordpools/wasnorm_wordpool_576.txt	LTP326	ltpFR2	13	7	DRAWING	494	n/a	n/a	0	0	0
1461.734	n/a	WORD	730867	wordpools/wasnorm_wordpool_576.txt	LTP326	ltpFR2	13	7	PLASTER	1085	n/a	n/a	0	0	0
1464.42	n/a	WORD	732210	wordpools/wasnorm_wordpool_576.txt	LTP326	ltpFR2	13	7	MEDAL	885	n/a	n/a	0	0	0
1466.888	n/a	WORD	733444	wordpools/wasnorm_wordpool_576.txt	LTP326	ltpFR2	13	7	LUNCH	849	n/a	n/a	0	0	0
1469.624	n/a	WORD	734812	wordpools/wasnorm_wordpool_576.txt	LTP326	ltpFR2	13	7	TURNIP	1521	n/a	n/a	0	0	0
1472.424	n/a	WORD	736212	wordpools/wasnorm_wordpool_576.txt	LTP326	ltpFR2	13	7	STOMACH	1384	n/a	n/a	0	0	0
1475.028	n/a	WORD	737514	wordpools/wasnorm_wordpool_576.txt	LTP326	ltpFR2	13	7	ULCER	1533	n/a	n/a	0	0	0
1477.646	n/a	WORD	738823	wordpools/wasnorm_wordpool_576.txt	LTP326	ltpFR2	13	7	PICNIC	1060	n/a	n/a	0	0	0
1480.132	n/a	WORD	740066	wordpools/wasnorm_wordpool_576.txt	LTP326	ltpFR2	13	7	LABEL	790	n/a	n/a	0	0	0
1482.634	n/a	WORD	741317	wordpools/wasnorm_wordpool_576.txt	LTP326	ltpFR2	13	7	TROMBONE	1508	n/a	n/a	0	0	0
1485.368	n/a	WORD	742684	wordpools/wasnorm_wordpool_576.txt	LTP326	ltpFR2	13	7	DORM	488	n/a	n/a	0	0	0
1488.088	n/a	WORD	744044	wordpools/wasnorm_wordpool_576.txt	LTP326	ltpFR2	13	7	PISTOL	1075	n/a	n/a	0	0	0
1490.774	n/a	WORD	745387	wordpools/wasnorm_wordpool_576.txt	LTP326	ltpFR2	13	7	MAPLE	866	n/a	n/a	0	0	0
1493.526	n/a	WORD	746763	wordpools/wasnorm_wordpool_576.txt	LTP326	ltpFR2	13	7	MILK	895	n/a	n/a	0	0	0
1495.146	n/a	START	747573	n/a	LTP326	ltpFR2	13	n/a	n/a	n/a	11	n/a	n/a	n/a	n/a
1496.286	n/a	DISTRACTOR	748143	n/a	LTP326	ltpFR2	13	7	n/a	n/a	n/a	n/a	0	0	0
1496.294	n/a	PROB	748147	n/a	LTP326	ltpFR2	13	n/a	n/a	n/a	11	13	4	6	3
1498.112	n/a	PROB	749056	n/a	LTP326	ltpFR2	13	n/a	n/a	n/a	11	1	3	1	6
1499.282	n/a	PROB	749641	n/a	LTP326	ltpFR2	13	n/a	n/a	n/a	11	10	2	7	1
1500.866	n/a	PROB	750433	n/a	LTP326	ltpFR2	13	n/a	n/a	n/a	11	17	8	7	2
1502.8	n/a	PROB	751400	n/a	LTP326	ltpFR2	13	n/a	n/a	n/a	11	18	6	4	8
1504.616	n/a	PROB	752308	n/a	LTP326	ltpFR2	13	n/a	n/a	n/a	11	8	3	3	2
1506.254	n/a	PROB	753127	n/a	LTP326	ltpFR2	13	n/a	n/a	n/a	11	16	4	7	5
1508.02	n/a	PROB	754010	n/a	LTP326	ltpFR2	13	n/a	n/a	n/a	11	9	2	2	5
1509.656	n/a	PROB	754828	n/a	LTP326	ltpFR2	13	n/a	n/a	n/a	11	19	7	4	8
1511.49	n/a	PROB	755745	n/a	LTP326	ltpFR2	13	n/a	n/a	n/a	11	10	1	7	2
1513.24	n/a	PROB	756620	n/a	LTP326	ltpFR2	13	n/a	n/a	n/a	11	10	2	3	5
1514.542	n/a	PROB	757271	n/a	LTP326	ltpFR2	13	n/a	n/a	n/a	11	13	1	5	7
1519.144	n/a	STOP	759572	n/a	LTP326	ltpFR2	13	n/a	n/a	n/a	11	n/a	n/a	n/a	n/a
1520.932	n/a	REC_START	760466	n/a	LTP326	ltpFR2	13	7	n/a	n/a	n/a	n/a	0	0	0
1526.67	n/a	REC_WORD	763335	wordpools/wasnorm_wordpool_576.txt	LTP326	ltpFR2	13	7	SEAL	1262	n/a	n/a	0	0	0
1528.8	n/a	REC_WORD	764400	wordpools/wasnorm_wordpool_576.txt	LTP326	ltpFR2	13	7	STALLION	1369	n/a	n/a	0	0	0
1530.458	n/a	REC_WORD	765229	wordpools/wasnorm_wordpool_576.txt	LTP326	ltpFR2	13	7	SADDLE	1221	n/a	n/a	0	0	0
1532.066	n/a	REC_WORD	766033	wordpools/wasnorm_wordpool_576.txt	LTP326	ltpFR2	13	7	HUSBAND	728	n/a	n/a	0	0	0
1533.524	n/a	REC_WORD	766762	wordpools/wasnorm_wordpool_576.txt	LTP326	ltpFR2	13	7	STOMACH	1384	n/a	n/a	0	0	0
1535.374	n/a	REC_WORD	767687	wordpools/wasnorm_wordpool_576.txt	LTP326	ltpFR2	13	7	ULCER	1533	n/a	n/a	0	0	0
1538.22	n/a	REC_WORD	769110	wordpools/wasnorm_wordpool_576.txt	LTP326	ltpFR2	13	7	TURNIP	1521	n/a	n/a	0	0	0
1539.446	n/a	REC_WORD	769723	wordpools/wasnorm_wordpool_576.txt	LTP326	ltpFR2	13	7	LUNCH	849	n/a	n/a	0	0	0
1541.122	n/a	REC_WORD	770561	wordpools/wasnorm_wordpool_576.txt	LTP326	ltpFR2	13	7	PICNIC	1060	n/a	n/a	0	0	0
1542.586	n/a	REC_WORD	771293	wordpools/wasnorm_wordpool_576.txt	LTP326	ltpFR2	13	7	FIDDLE	561	n/a	n/a	0	0	0
1544.28	n/a	REC_WORD	772140	wordpools/wasnorm_wordpool_576.txt	LTP326	ltpFR2	13	7	TROMBONE	1508	n/a	n/a	0	0	0
1558.498	n/a	REC_WORD	779249	wordpools/wasnorm_wordpool_576.txt	LTP326	ltpFR2	13	7	LILY	821	n/a	n/a	0	0	0
1560.364	n/a	REC_WORD	780182	wordpools/wasnorm_wordpool_576.txt	LTP326	ltpFR2	13	7	SCISSORS	1250	n/a	n/a	0	0	0
1569.654	n/a	REC_WORD	784827	wordpools/wasnorm_wordpool_576.txt	LTP326	ltpFR2	13	7	DRAWING	494	n/a	n/a	0	0	0
1590.38	n/a	REC_WORD	795190	wordpools/wasnorm_wordpool_576.txt	LTP326	ltpFR2	13	7	MILK	895	n/a	n/a	0	0	0
1611.368	n/a	WORD	805684	wordpools/wasnorm_wordpool_576.txt	LTP326	ltpFR2	13	8	HATCHET	691	n/a	n/a	0	0	0
1614.02	n/a	WORD	807010	wordpools/wasnorm_wordpool_576.txt	LTP326	ltpFR2	13	8	CIGAR	308	n/a	n/a	0	0	0
1616.488	n/a	WORD	808244	wordpools/wasnorm_wordpool_576.txt	LTP326	ltpFR2	13	8	TORTOISE	1486	n/a	n/a	0	0	0
1619.142	n/a	WORD	809571	wordpools/wasnorm_wordpool_576.txt	LTP326	ltpFR2	13	8	HOOK	715	n/a	n/a	0	0	0
1621.876	n/a	WORD	810938	wordpools/wasnorm_wordpool_576.txt	LTP326	ltpFR2	13	8	RUG	1215	n/a	n/a	0	0	0
1624.356	n/a	WORD	812178	wordpools/wasnorm_wordpool_576.txt	LTP326	ltpFR2	13	8	EAGLE	512	n/a	n/a	0	0	0
1626.856	n/a	WORD	813428	wordpools/wasnorm_wordpool_576.txt	LTP326	ltpFR2	13	8	BATHTUB	100	n/a	n/a	0	0	0
1629.526	n/a	WORD	814763	wordpools/wasnorm_wordpool_576.txt	LTP326	ltpFR2	13	8	HELMET	702	n/a	n/a	0	0	0
1632.084	n/a	WORD	816042	wordpools/wasnorm_wordpool_576.txt	LTP326	ltpFR2	13	8	ROOSTER	1209	n/a	n/a	0	0	0
1634.662	n/a	WORD	817331	wordpools/wasnorm_wordpool_576.txt	LTP326	ltpFR2	13	8	QUARTER	1148	n/a	n/a	0	0	0
1637.088	n/a	WORD	818544	wordpools/wasnorm_wordpool_576.txt	LTP326	ltpFR2	13	8	AGENT	10	n/a	n/a	0	0	0
1639.9	n/a	WORD	819950	wordpools/wasnorm_wordpool_576.txt	LTP326	ltpFR2	13	8	JUDGE	761	n/a	n/a	0	0	0
1642.626	n/a	WORD	821313	wordpools/wasnorm_wordpool_576.txt	LTP326	ltpFR2	13	8	PENGUIN	1044	n/a	n/a	0	0	0
1645.088	n/a	WORD	822544	wordpools/wasnorm_wordpool_576.txt	LTP326	ltpFR2	13	8	CLIMBER	323	n/a	n/a	0	0	0
1647.774	n/a	WORD	823887	wordpools/wasnorm_wordpool_576.txt	LTP326	ltpFR2	13	8	PEDAL	1037	n/a	n/a	0	0	0
1650.244	n/a	WORD	825122	wordpools/wasnorm_wordpool_576.txt	LTP326	ltpFR2	13	8	BIKE	125	n/a	n/a	0	0	0
1652.696	n/a	WORD	826348	wordpools/wasnorm_wordpool_576.txt	LTP326	ltpFR2	13	8	SODA	1341	n/a	n/a	0	0	0
1655.446	n/a	WORD	827723	wordpools/wasnorm_wordpool_576.txt	LTP326	ltpFR2	13	8	FARMER	553	n/a	n/a	0	0	0
1658.234	n/a	WORD	829117	wordpools/wasnorm_wordpool_576.txt	LTP326	ltpFR2	13	8	CASKET	255	n/a	n/a	0	0	0
1660.868	n/a	WORD	830434	wordpools/wasnorm_wordpool_576.txt	LTP326	ltpFR2	13	8	WIDOW	1608	n/a	n/a	0	0	0
1663.354	n/a	WORD	831677	wordpools/wasnorm_wordpool_576.txt	LTP326	ltpFR2	13	8	HIKER	708	n/a	n/a	0	0	0
1665.874	n/a	WORD	832937	wordpools/wasnorm_wordpool_576.txt	LTP326	ltpFR2	13	8	VALVE	1546	n/a	n/a	0	0	0
1668.628	n/a	WORD	834314	wordpools/wasnorm_wordpool_576.txt	LTP326	ltpFR2	13	8	HEADBAND	696	n/a	n/a	0	0	0
1671.394	n/a	WORD	835697	wordpools/wasnorm_wordpool_576.txt	LTP326	ltpFR2	13	8	BROOK	177	n/a	n/a	0	0	0
1673.0	n/a	START	836500	n/a	LTP326	ltpFR2	13	n/a	n/a	n/a	12	n/a	n/a	n/a	n/a
1674.188	n/a	DISTRACTOR	837094	n/a	LTP326	ltpFR2	13	8	n/a	n/a	n/a	n/a	0	0	0
1674.198	n/a	PROB	837099	n/a	LTP326	ltpFR2	13	n/a	n/a	n/a	12	10	2	6	1
1675.646	n/a	PROB	837823	n/a	LTP326	ltpFR2	13	n/a	n/a	n/a	12	8	1	6	1
1678.416	n/a	PROB	839208	n/a	LTP326	ltpFR2	13	n/a	n/a	n/a	12	22	7	6	9
1681.388	n/a	PROB	840694	n/a	LTP326	ltpFR2	13	n/a	n/a	n/a	12	13	3	9	1
1682.838	n/a	PROB	841419	n/a	LTP326	ltpFR2	13	n/a	n/a	n/a	12	16	3	7	6
1684.304	n/a	PROB	842152	n/a	LTP326	ltpFR2	13	n/a	n/a	n/a	12	17	9	2	6
1686.16	n/a	PROB	843080	n/a	LTP326	ltpFR2	13	n/a	n/a	n/a	12	12	5	1	6
1687.79	n/a	PROB	843895	n/a	LTP326	ltpFR2	13	n/a	n/a	n/a	12	14	3	3	8
1689.846	n/a	PROB	844923	n/a	LTP326	ltpFR2	13	n/a	n/a	n/a	12	21	6	6	9
1691.494	n/a	PROB	845747	n/a	LTP326	ltpFR2	13	n/a	n/a	n/a	12	13	4	8	1
1694.714	n/a	PROB	847357	n/a	LTP326	ltpFR2	13	n/a	n/a	n/a	12	25	9	8	8
1696.948	n/a	STOP	848474	n/a	LTP326	ltpFR2	13	n/a	n/a	n/a	12	n/a	n/a	n/a	n/a
1698.936	n/a	REC_START	849468	n/a	LTP326	ltpFR2	13	8	n/a	n/a	n/a	n/a	0	0	0
1706.774	n/a	REC_WORD	853387	wordpools/wasnorm_wordpool_576.txt	LTP326	ltpFR2	13	8	RUG	1215	n/a	n/a	0	0	0
1708.226	n/a	REC_WORD	854113	wordpools/wasnorm_wordpool_576.txt	LTP326	ltpFR2	13	8	CLIMBER	323	n/a	n/a	0	0	0
1709.81	n/a	REC_WORD	854905	wordpools/wasnorm_wordpool_576.txt	LTP326	ltpFR2	13	8	HIKER	708	n/a	n/a	0	0	0
1713.452	n/a	REC_WORD	856726	wordpools/wasnorm_wordpool_576.txt	LTP326	ltpFR2	13	8	TORTOISE	1486	n/a	n/a	0	0	0
1716.842	n/a	REC_WORD	858421	wordpools/wasnorm_wordpool_576.txt	LTP326	ltpFR2	13	8	TURTLE	1522	n/a	n/a	0	0	0
1718.026	n/a	REC_WORD	859013	wordpools/wasnorm_wordpool_576.txt	LTP326	ltpFR2	13	8	PENGUIN	1044	n/a	n/a	0	0	0
1721.432	n/a	REC_WORD	860716	wordpools/wasnorm_wordpool_576.txt	LTP326	ltpFR2	13	8	HEADBAND	696	n/a	n/a	0	0	0
1722.526	n/a	REC_WORD	861263	wordpools/wasnorm_wordpool_576.txt	LTP326	ltpFR2	13	8	WIDOW	1608	n/a	n/a	0	0	0
1728.524	n/a	REC_WORD	864262	wordpools/wasnorm_wordpool_576.txt	LTP326	ltpFR2	13	8	SODA	1341	n/a	n/a	0	0	0
1732.3	n/a	REC_WORD	866150	wordpools/wasnorm_wordpool_576.txt	LTP326	ltpFR2	13	8	CIGAR	308	n/a	n/a	0	0	0
1775.462	n/a	REST_REWET	887731	n/a	LTP326	ltpFR2	13	8	n/a	n/a	n/a	n/a	0	0	0
2131.966	n/a	WORD	1065983	wordpools/wasnorm_wordpool_576.txt	LTP326	ltpFR2	13	9	MAILMAN	858	n/a	n/a	0	0	0
2134.602	n/a	WORD	1067301	wordpools/wasnorm_wordpool_576.txt	LTP326	ltpFR2	13	9	HAWK	692	n/a	n/a	0	0	0
2137.222	n/a	WORD	1068611	wordpools/wasnorm_wordpool_576.txt	LTP326	ltpFR2	13	9	TRENCH	1503	n/a	n/a	0	0	0
2139.892	n/a	WORD	1069946	wordpools/wasnorm_wordpool_576.txt	LTP326	ltpFR2	13	9	VIRUS	1572	n/a	n/a	0	0	0
2142.626	n/a	WORD	1071313	wordpools/wasnorm_wordpool_576.txt	LTP326	ltpFR2	13	9	SPARROW	1347	n/a	n/a	0	0	0
2145.382	n/a	WORD	1072691	wordpools/wasnorm_wordpool_576.txt	LTP326	ltpFR2	13	9	FILM	565	n/a	n/a	0	0	0
2148.12	n/a	WORD	1074060	wordpools/wasnorm_wordpool_576.txt	LTP326	ltpFR2	13	9	VENUS	1557	n/a	n/a	0	0	0
2150.686	n/a	WORD	1075343	wordpools/wasnorm_wordpool_576.txt	LTP326	ltpFR2	13	9	GLOVE	642	n/a	n/a	0	0	0
2153.502	n/a	WORD	1076751	wordpools/wasnorm_wordpool_576.txt	LTP326	ltpFR2	13	9	MESSAGE	888	n/a	n/a	0	0	0
2156.256	n/a	WORD	1078128	wordpools/wasnorm_wordpool_576.txt	LTP326	ltpFR2	13	9	BLUEPRINT	142	n/a	n/a	0	0	0
2158.942	n/a	WORD	1079471	wordpools/wasnorm_wordpool_576.txt	LTP326	ltpFR2	13	9	CHAMPAGNE	278	n/a	n/a	0	0	0
2161.476	n/a	WORD	1080738	wordpools/wasnorm_wordpool_576.txt	LTP326	ltpFR2	13	9	CELLAR	267	n/a	n/a	0	0	0
2164.012	n/a	WORD	1082006	wordpools/wasnorm_wordpool_576.txt	LTP326	ltpFR2	13	9	POLICE	1098	n/a	n/a	0	0	0
2166.73	n/a	WORD	1083365	wordpools/wasnorm_wordpool_576.txt	LTP326	ltpFR2	13	9	GOBLIN	645	n/a	n/a	0	0	0
2169.152	n/a	WORD	1084576	wordpools/wasnorm_wordpool_576.txt	LTP326	ltpFR2	13	9	SLOPE	1328	n/a	n/a	0	0	0
2171.886	n/a	WORD	1085943	wordpools/wasnorm_wordpool_576.txt	LTP326	ltpFR2	13	9	SUMMIT	1405	n/a	n/a	0	0	0
2174.52	n/a	WORD	1087260	wordpools/wasnorm_wordpool_576.txt	LTP326	ltpFR2	13	9	THIEF	1456	n/a	n/a	0	0	0
2176.956	n/a	WORD	1088478	wordpools/wasnorm_wordpool_576.txt	LTP326	ltpFR2	13	9	OUTLAW	989	n/a	n/a	0	0	0
2179.792	n/a	WORD	1089896	wordpools/wasnorm_wordpool_576.txt	LTP326	ltpFR2	13	9	MOTEL	919	n/a	n/a	0	0	0
2182.36	n/a	WORD	1091180	wordpools/wasnorm_wordpool_576.txt	LTP326	ltpFR2	13	9	TART	1436	n/a	n/a	0	0	0
2185.164	n/a	WORD	1092582	wordpools/wasnorm_wordpool_576.txt	LTP326	ltpFR2	13	9	KNIFE	785	n/a	n/a	0	0	0
2187.682	n/a	WORD	1093841	wordpools/wasnorm_wordpool_576.txt	LTP326	ltpFR2	13	9	TAXI	1438	n/a	n/a	0	0	0
2190.218	n/a	WORD	1095109	wordpools/wasnorm_wordpool_576.txt	LTP326	ltpFR2	13	9	CONVICT	371	n/a	n/a	0	0	0
2192.686	n/a	WORD	1096343	wordpools/wasnorm_wordpool_576.txt	LTP326	ltpFR2	13	9	NOVEL	960	n/a	n/a	0	0	0
2194.304	n/a	START	1097152	n/a	LTP326	ltpFR2	13	n/a	n/a	n/a	13	n/a	n/a	n/a	n/a
2195.366	n/a	DISTRACTOR	1097683	n/a	LTP326	ltpFR2	13	9	n/a	n/a	n/a	n/a	0	0	0
2195.37	n/a	PROB	1097685	n/a	LTP326	ltpFR2	13	n/a	n/a	n/a	13	19	9	2	8
2197.158	n/a	PROB	1098579	n/a	LTP326	ltpFR2	13	n/a	n/a	n/a	13	16	4	9	3
2201.076	n/a	PROB	1100538	n/a	LTP326	ltpFR2	13	n/a	n/a	n/a	13	11	8	1	2
2203.012	n/a	PROB	1101506	n/a	LTP326	ltpFR2	13	n/a	n/a	n/a	13	19	6	4	9
2204.63	n/a	PROB	1102315	n/a	LTP326	ltpFR2	13	n/a	n/a	n/a	13	17	6	9	2
2206.182	n/a	PROB	1103091	n/a	LTP326	ltpFR2	13	n/a	n/a	n/a	13	16	8	4	4
2208.282	n/a	PROB	1104141	n/a	LTP326	ltpFR2	13	n/a	n/a	n/a	13	17	9	6	2
2210.032	n/a	PROB	1105016	n/a	LTP326	ltpFR2	13	n/a	n/a	n/a	13	11	2	7	2
2211.434	n/a	PROB	1105717	n/a	LTP326	ltpFR2	13	n/a	n/a	n/a	13	17	3	9	5
2213.836	n/a	PROB	1106918	n/a	LTP326	ltpFR2	13	n/a	n/a	n/a	13	14	4	8	2
2214.92	n/a	PROB	1107460	n/a	LTP326	ltpFR2	13	n/a	n/a	n/a	13	18	9	4	5
2217.252	n/a	STOP	1108626	n/a	LTP326	ltpFR2	13	n/a	n/a	n/a	13	n/a	n/a	n/a	n/a
2220.21	n/a	REC_START	1110105	n/a	LTP326	ltpFR2	13	9	n/a	n/a	n/a	n/a	0	0	0
2224.49	n/a	REC_WORD	1112245	wordpools/wasnorm_wordpool_576.txt	LTP326	ltpFR2	13	9	SUMMIT	1405	n/a	n/a	0	0	0
2225.588	n/a	REC_WORD	1112794	wordpools/wasnorm_wordpool_576.txt	LTP326	ltpFR2	13	9	CHAMPAGNE	278	n/a	n/a	0	0	0
2228.954	n/a	REC_WORD	1114477	wordpools/wasnorm_wordpool_576.txt	LTP326	ltpFR2	13	9	POLICE	1098	n/a	n/a	0	0	0
2230.252	n/a	REC_WORD	1115126	wordpools/wasnorm_wordpool_576.txt	LTP326	ltpFR2	13	9	OUTLAW	989	n/a	n/a	0	0	0
2231.902	n/a	REC_WORD	1115951	wordpools/wasnorm_wordpool_576.txt	LTP326	ltpFR2	13	9	SUSPECT	1415	n/a	n/a	0	0	0
2232.902	n/a	REC_WORD_VV	1116451	wordpools/wasnorm_wordpool_576.txt	LTP326	ltpFR2	13	9	<>	-1	n/a	n/a	0	0	0
2240.466	n/a	REC_WORD	1120233	wordpools/wasnorm_wordpool_576.txt	LTP326	ltpFR2	13	9	TAXI	1438	n/a	n/a	0	0	0
2241.872	n/a	REC_WORD	1120936	wordpools/wasnorm_wordpool_576.txt	LTP326	ltpFR2	13	9	KNIFE	785	n/a	n/a	0	0	0
2252.3	n/a	REC_WORD	1126150	wordpools/wasnorm_wordpool_576.txt	LTP326	ltpFR2	13	9	FIRE	-1	n/a	n/a	0	0	0
2310.628	n/a	DISTRACTOR	1155314	n/a	LTP326	ltpFR2	13	10	n/a	n/a	n/a	n/a	0	0	0
2310.63	n/a	START	1155315	n/a	LTP326	ltpFR2	13	n/a	n/a	n/a	14	n/a	n/a	n/a	n/a
2310.644	n/a	PROB	1155322	n/a	LTP326	ltpFR2	13	n/a	n/a	n/a	14	9	4	4	1
2312.064	n/a	PROB	1156032	n/a	LTP326	ltpFR2	13	n/a	n/a	n/a	14	15	6	6	3
2313.898	n/a	PROB	1156949	n/a	LTP326	ltpFR2	13	n/a	n/a	n/a	14	11	4	5	2
2315.616	n/a	PROB	1157808	n/a	LTP326	ltpFR2	13	n/a	n/a	n/a	14	15	8	3	4
2317.634	n/a	PROB	1158817	n/a	LTP326	ltpFR2	13	n/a	n/a	n/a	14	25	9	8	8
2319.618	n/a	PROB	1159809	n/a	LTP326	ltpFR2	13	n/a	n/a	n/a	14	7	1	4	2
2321.068	n/a	PROB	1160534	n/a	LTP326	ltpFR2	13	n/a	n/a	n/a	14	5	1	2	2
2322.37	n/a	PROB	1161185	n/a	LTP326	ltpFR2	13	n/a	n/a	n/a	14	13	1	4	8
2323.972	n/a	PROB	1161986	n/a	LTP326	ltpFR2	13	n/a	n/a	n/a	14	14	7	2	5
2325.624	n/a	PROB	1162812	n/a	LTP326	ltpFR2	13	n/a	n/a	n/a	14	11	4	2	5
2327.558	n/a	PROB	1163779	n/a	LTP326	ltpFR2	13	n/a	n/a	n/a	14	5	2	1	2
2328.526	n/a	PROB	1164263	n/a	LTP326	ltpFR2	13	n/a	n/a	n/a	14	19	6	5	8
2331.694	n/a	PROB	1165847	n/a	LTP326	ltpFR2	13	n/a	n/a	n/a	14	12	6	4	2
2333.216	n/a	STOP	1166608	n/a	LTP326	ltpFR2	13	n/a	n/a	n/a	14	n/a	n/a	n/a	n/a
2335.564	n/a	WORD	1167782	wordpools/wasnorm_wordpool_576.txt	LTP326	ltpFR2	13	10	SHERIFF	1284	n/a	n/a	0	0	0
2338.232	n/a	WORD	1169116	wordpools/wasnorm_wordpool_576.txt	LTP326	ltpFR2	13	10	GUITAR	670	n/a	n/a	0	0	0
2341.012	n/a	WORD	1170506	wordpools/wasnorm_wordpool_576.txt	LTP326	ltpFR2	13	10	RECORD	1176	n/a	n/a	0	0	0
2343.68	n/a	WORD	1171840	wordpools/wasnorm_wordpool_576.txt	LTP326	ltpFR2	13	10	JELLO	754	n/a	n/a	0	0	0
2346.482	n/a	WORD	1173241	wordpools/wasnorm_wordpool_576.txt	LTP326	ltpFR2	13	10	STREAM	1392	n/a	n/a	0	0	0
2349.11	n/a	WORD	1174555	wordpools/wasnorm_wordpool_576.txt	LTP326	ltpFR2	13	10	MARINE	869	n/a	n/a	0	0	0
2351.57	n/a	WORD	1175785	wordpools/wasnorm_wordpool_576.txt	LTP326	ltpFR2	13	10	OZONE	996	n/a	n/a	0	0	0
2354.162	n/a	WORD	1177081	wordpools/wasnorm_wordpool_576.txt	LTP326	ltpFR2	13	10	JOURNAL	760	n/a	n/a	0	0	0
2356.842	n/a	WORD	1178421	wordpools/wasnorm_wordpool_576.txt	LTP326	ltpFR2	13	10	TABLET	1427	n/a	n/a	0	0	0
2359.46	n/a	WORD	1179730	wordpools/wasnorm_wordpool_576.txt	LTP326	ltpFR2	13	10	BURGLAR	200	n/a	n/a	0	0	0
2362.098	n/a	WORD	1181049	wordpools/wasnorm_wordpool_576.txt	LTP326	ltpFR2	13	10	SIDEWALK	1303	n/a	n/a	0	0	0
2364.866	n/a	WORD	1182433	wordpools/wasnorm_wordpool_576.txt	LTP326	ltpFR2	13	10	FLOWER	584	n/a	n/a	0	0	0
2367.618	n/a	WORD	1183809	wordpools/wasnorm_wordpool_576.txt	LTP326	ltpFR2	13	10	PATIENT	1024	n/a	n/a	0	0	0
2370.22	n/a	WORD	1185110	wordpools/wasnorm_wordpool_576.txt	LTP326	ltpFR2	13	10	CARROT	249	n/a	n/a	0	0	0
2372.67	n/a	WORD	1186335	wordpools/wasnorm_wordpool_576.txt	LTP326	ltpFR2	13	10	GRAVEL	659	n/a	n/a	0	0	0
2375.196	n/a	WORD	1187598	wordpools/wasnorm_wordpool_576.txt	LTP326	ltpFR2	13	10	PUPPY	1144	n/a	n/a	0	0	0
2377.91	n/a	WORD	1188955	wordpools/wasnorm_wordpool_576.txt	LTP326	ltpFR2	13	10	ICEBERG	731	n/a	n/a	0	0	0
2380.55	n/a	WORD	1190275	wordpools/wasnorm_wordpool_576.txt	LTP326	ltpFR2	13	10	QUAIL	1147	n/a	n/a	0	0	0
2383.086	n/a	WORD	1191543	wordpools/wasnorm_wordpool_576.txt	LTP326	ltpFR2	13	10	PARSLEY	1016	n/a	n/a	0	0	0
2385.534	n/a	WORD	1192767	wordpools/wasnorm_wordpool_576.txt	LTP326	ltpFR2	13	10	KETCHUP	771	n/a	n/a	0	0	0
2388.352	n/a	WORD	1194176	wordpools/wasnorm_wordpool_576.txt	LTP326	ltpFR2	13	10	HIGHWAY	707	n/a	n/a	0	0	0
2391.156	n/a	WORD	1195578	wordpools/wasnorm_wordpool_576.txt	LTP326	ltpFR2	13	10	VIKING	1565	n/a	n/a	0	0	0
2393.89	n/a	WORD	1196945	wordpools/wasnorm_wordpool_576.txt	LTP326	ltpFR2	13	10	HOUND	724	n/a	n/a	0	0	0
2396.41	n/a	WORD	1198205	wordpools/wasnorm_wordpool_576.txt	LTP326	ltpFR2	13	10	CASHIER	254	n/a	n/a	0	0	0
2398.014	n/a	START	1199007	n/a	LTP326	ltpFR2	13	n/a	n/a	n/a	15	n/a	n/a	n/a	n/a
2399.168	n/a	DISTRACTOR	1199584	n/a	LTP326	ltpFR2	13	10	n/a	n/a	n/a	n/a	0	0	0
2399.18	n/a	PROB	1199590	n/a	LTP326	ltpFR2	13	n/a	n/a	n/a	15	15	6	3	5
2400.812	n/a	PROB	1200406	n/a	LTP326	ltpFR2	13	n/a	n/a	n/a	15	11	2	1	8
2402.612	n/a	PROB	1201306	n/a	LTP326	ltpFR2	13	n/a	n/a	n/a	15	14	8	5	1
2404.098	n/a	PROB	1202049	n/a	LTP326	ltpFR2	13	n/a	n/a	n/a	15	8	2	2	4
2406.188	n/a	PROB	1203094	n/a	LTP326	ltpFR2	13	n/a	n/a	n/a	15	21	5	9	8
2409.418	n/a	PROB	1204709	n/a	LTP326	ltpFR2	13	n/a	n/a	n/a	15	18	4	9	5
2411.054	n/a	PROB	1205527	n/a	LTP326	ltpFR2	13	n/a	n/a	n/a	15	16	6	5	5
2412.122	n/a	PROB	1206061	n/a	LTP326	ltpFR2	13	n/a	n/a	n/a	15	20	9	4	7
2415.058	n/a	PROB	1207529	n/a	LTP326	ltpFR2	13	n/a	n/a	n/a	15	16	6	1	9
2416.892	n/a	PROB	1208446	n/a	LTP326	ltpFR2	13	n/a	n/a	n/a	15	19	8	3	8
2419.06	n/a	PROB	1209530	n/a	LTP326	ltpFR2	13	n/a	n/a	n/a	15	6	2	2	2
2420.412	n/a	PROB	1210206	n/a	LTP326	ltpFR2	13	n/a	n/a	n/a	15	14	4	3	7
2421.72	n/a	STOP	1210860	n/a	LTP326	ltpFR2	13	n/a	n/a	n/a	15	n/a	n/a	n/a	n/a
2423.966	n/a	REC_START	1211983	n/a	LTP326	ltpFR2	13	10	n/a	n/a	n/a	n/a	0	0	0
2426.458	n/a	REC_WORD	1213229	wordpools/wasnorm_wordpool_576.txt	LTP326	ltpFR2	13	10	PUPPY	1144	n/a	n/a	0	0	0
2427.9	n/a	REC_WORD	1213950	wordpools/wasnorm_wordpool_576.txt	LTP326	ltpFR2	13	10	HOUND	724	n/a	n/a	0	0	0
2430.06	n/a	REC_WORD	1215030	wordpools/wasnorm_wordpool_576.txt	LTP326	ltpFR2	13	10	ICEBERG	731	n/a	n/a	0	0	0
2432.216	n/a	REC_WORD	1216108	wordpools/wasnorm_wordpool_576.txt	LTP326	ltpFR2	13	10	VIKING	1565	n/a	n/a	0	0	0
2436.588	n/a	REC_WORD	1218294	wordpools/wasnorm_wordpool_576.txt	LTP326	ltpFR2	13	10	QUAIL	1147	n/a	n/a	0	0	0
2445.27	n/a	REC_WORD	1222635	wordpools/wasnorm_wordpool_576.txt	LTP326	ltpFR2	13	10	PATIENT	1024	n/a	n/a	0	0	0
2449.746	n/a	REC_WORD	1224873	wordpools/wasnorm_wordpool_576.txt	LTP326	ltpFR2	13	10	GRAVEL	659	n/a	n/a	0	0	0
2514.388	n/a	DISTRACTOR	1257194	n/a	LTP326	ltpFR2	13	11	n/a	n/a	n/a	n/a	0	0	0
2514.388	n/a	START	1257194	n/a	LTP326	ltpFR2	13	n/a	n/a	n/a	16	n/a	n/a	n/a	n/a
2514.402	n/a	PROB	1257201	n/a	LTP326	ltpFR2	13	n/a	n/a	n/a	16	19	2	9	8
2516.238	n/a	PROB	1258119	n/a	LTP326	ltpFR2	13	n/a	n/a	n/a	16	18	2	9	7
2518.656	n/a	PROB	1259328	n/a	LTP326	ltpFR2	13	n/a	n/a	n/a	16	17	6	9	2
2520.408	n/a	PROB	1260204	n/a	LTP326	ltpFR2	13	n/a	n/a	n/a	16	16	6	1	9
2522.758	n/a	PROB	1261379	n/a	LTP326	ltpFR2	13	n/a	n/a	n/a	16	14	2	9	3
2526.914	n/a	PROB	1263457	n/a	LTP326	ltpFR2	13	n/a	n/a	n/a	16	10	2	6	4
2528.782	n/a	PROB	1264391	n/a	LTP326	ltpFR2	13	n/a	n/a	n/a	16	21	9	6	7
2531.016	n/a	PROB	1265508	n/a	LTP326	ltpFR2	13	n/a	n/a	n/a	16	16	7	5	4
2533.536	n/a	PROB	1266768	n/a	LTP326	ltpFR2	13	n/a	n/a	n/a	16	16	1	9	6
2534.82	n/a	PROB	1267410	n/a	LTP326	ltpFR2	13	n/a	n/a	n/a	16	11	1	1	9
2535.886	n/a	PROB	1267943	n/a	LTP326	ltpFR2	13	n/a	n/a	n/a	16	17	6	4	7
2537.634	n/a	STOP	1268817	n/a	LTP326	ltpFR2	13	n/a	n/a	n/a	16	n/a	n/a	n/a	n/a
2539.462	n/a	WORD	1269731	wordpools/wasnorm_wordpool_576.txt	LTP326	ltpFR2	13	11	VAGRANT	1544	n/a	n/a	0	0	0
2542.2	n/a	WORD	1271100	wordpools/wasnorm_wordpool_576.txt	LTP326	ltpFR2	13	11	OX	994	n/a	n/a	0	0	0
2544.644	n/a	WORD	1272322	wordpools/wasnorm_wordpool_576.txt	LTP326	ltpFR2	13	11	WOMAN	1620	n/a	n/a	0	0	0
2547.186	n/a	WORD	1273593	wordpools/wasnorm_wordpool_576.txt	LTP326	ltpFR2	13	11	LADY	794	n/a	n/a	0	0	0
2549.62	n/a	WORD	1274810	wordpools/wasnorm_wordpool_576.txt	LTP326	ltpFR2	13	11	DINER	467	n/a	n/a	0	0	0
2552.366	n/a	WORD	1276183	wordpools/wasnorm_wordpool_576.txt	LTP326	ltpFR2	13	11	LACE	792	n/a	n/a	0	0	0
2555.068	n/a	WORD	1277534	wordpools/wasnorm_wordpool_576.txt	LTP326	ltpFR2	13	11	ZEBRA	1635	n/a	n/a	0	0	0
2557.862	n/a	WORD	1278931	wordpools/wasnorm_wordpool_576.txt	LTP326	ltpFR2	13	11	WASHER	1592	n/a	n/a	0	0	0
2560.672	n/a	WORD	1280336	wordpools/wasnorm_wordpool_576.txt	LTP326	ltpFR2	13	11	PIANO	1057	n/a	n/a	0	0	0
2563.184	n/a	WORD	1281592	wordpools/wasnorm_wordpool_576.txt	LTP326	ltpFR2	13	11	BARREL	91	n/a	n/a	0	0	0
2565.978	n/a	WORD	1282989	wordpools/wasnorm_wordpool_576.txt	LTP326	ltpFR2	13	11	SCULPTURE	1258	n/a	n/a	0	0	0
2568.664	n/a	WORD	1284332	wordpools/wasnorm_wordpool_576.txt	LTP326	ltpFR2	13	11	CATTLE	261	n/a	n/a	0	0	0
2571.366	n/a	WORD	1285683	wordpools/wasnorm_wordpool_576.txt	LTP326	ltpFR2	13	11	BISON	131	n/a	n/a	0	0	0
2573.876	n/a	WORD	1286938	wordpools/wasnorm_wordpool_576.txt	LTP326	ltpFR2	13	11	COFFEE	341	n/a	n/a	0	0	0
2576.352	n/a	WORD	1288176	wordpools/wasnorm_wordpool_576.txt	LTP326	ltpFR2	13	11	COCKTAIL	338	n/a	n/a	0	0	0
2579.148	n/a	WORD	1289574	wordpools/wasnorm_wordpool_576.txt	LTP326	ltpFR2	13	11	EGYPT	519	n/a	n/a	0	0	0
2581.9	n/a	WORD	1290950	wordpools/wasnorm_wordpool_576.txt	LTP326	ltpFR2	13	11	TUTU	1524	n/a	n/a	0	0	0
2584.558	n/a	WORD	1292279	wordpools/wasnorm_wordpool_576.txt	LTP326	ltpFR2	13	11	WRIST	1626	n/a	n/a	0	0	0
2587.138	n/a	WORD	1293569	wordpools/wasnorm_wordpool_576.txt	LTP326	ltpFR2	13	11	FINGER	567	n/a	n/a	0	0	0
2589.778	n/a	WORD	1294889	wordpools/wasnorm_wordpool_576.txt	LTP326	ltpFR2	13	11	LIPSTICK	829	n/a	n/a	0	0	0
2592.314	n/a	WORD	1296157	wordpools/wasnorm_wordpool_576.txt	LTP326	ltpFR2	13	11	FRANCE	601	n/a	n/a	0	0	0
2594.85	n/a	WORD	1297425	wordpools/wasnorm_wordpool_576.txt	LTP326	ltpFR2	13	11	SKETCH	1315	n/a	n/a	0	0	0
2597.336	n/a	WORD	1298668	wordpools/wasnorm_wordpool_576.txt	LTP326	ltpFR2	13	11	PEACH	1031	n/a	n/a	0	0	0
2600.138	n/a	WORD	1300069	wordpools/wasnorm_wordpool_576.txt	LTP326	ltpFR2	13	11	GARBAGE	622	n/a	n/a	0	0	0
2601.75	n/a	START	1300875	n/a	LTP326	ltpFR2	13	n/a	n/a	n/a	17	n/a	n/a	n/a	n/a
2602.838	n/a	DISTRACTOR	1301419	n/a	LTP326	ltpFR2	13	11	n/a	n/a	n/a	n/a	0	0	0
2602.85	n/a	PROB	1301425	n/a	LTP326	ltpFR2	13	n/a	n/a	n/a	17	12	3	3	6
2604.758	n/a	PROB	1302379	n/a	LTP326	ltpFR2	13	n/a	n/a	n/a	17	15	2	5	8
2606.258	n/a	PROB	1303129	n/a	LTP326	ltpFR2	13	n/a	n/a	n/a	17	18	5	7	6
2608.026	n/a	PROB	1304013	n/a	LTP326	ltpFR2	13	n/a	n/a	n/a	17	9	1	2	6
2609.476	n/a	PROB	1304738	n/a	LTP326	ltpFR2	13	n/a	n/a	n/a	17	10	1	5	4
2611.346	n/a	PROB	1305673	n/a	LTP326	ltpFR2	13	n/a	n/a	n/a	17	12	8	2	6
2612.414	n/a	PROB	1306207	n/a	LTP326	ltpFR2	13	n/a	n/a	n/a	17	19	6	9	4
2614.9	n/a	PROB	1307450	n/a	LTP326	ltpFR2	13	n/a	n/a	n/a	17	8	5	1	2
2617.7	n/a	PROB	1308850	n/a	LTP326	ltpFR2	13	n/a	n/a	n/a	17	10	3	4	3
2619.918	n/a	PROB	1309959	n/a	LTP326	ltpFR2	13	n/a	n/a	n/a	17	15	6	5	4
2621.654	n/a	PROB	1310827	n/a	LTP326	ltpFR2	13	n/a	n/a	n/a	17	16	7	6	3
2623.002	n/a	PROB	1311501	n/a	LTP326	ltpFR2	13	n/a	n/a	n/a	17	11	3	5	3
2624.938	n/a	STOP	1312469	n/a	LTP326	ltpFR2	13	n/a	n/a	n/a	17	n/a	n/a	n/a	n/a
2627.51	n/a	REC_START	1313755	n/a	LTP326	ltpFR2	13	11	n/a	n/a	n/a	n/a	0	0	0
2630.754	n/a	REC_WORD	1315377	wordpools/wasnorm_wordpool_576.txt	LTP326	ltpFR2	13	11	WOMAN	1620	n/a	n/a	0	0	0
2631.912	n/a	REC_WORD	1315956	wordpools/wasnorm_wordpool_576.txt	LTP326	ltpFR2	13	11	LADY	794	n/a	n/a	0	0	0
2633.524	n/a	REC_WORD	1316762	wordpools/wasnorm_wordpool_576.txt	LTP326	ltpFR2	13	11	DINER	467	n/a	n/a	0	0	0
2635.326	n/a	REC_WORD	1317663	wordpools/wasnorm_wordpool_576.txt	LTP326	ltpFR2	13	11	TUTU	1524	n/a	n/a	0	0	0
2637.108	n/a	REC_WORD	1318554	wordpools/wasnorm_wordpool_576.txt	LTP326	ltpFR2	13	11	PEACH	1031	n/a	n/a	0	0	0
2638.82	n/a	REC_WORD	1319410	wordpools/wasnorm_wordpool_576.txt	LTP326	ltpFR2	13	11	WRIST	1626	n/a	n/a	0	0	0
2640.544	n/a	REC_WORD	1320272	wordpools/wasnorm_wordpool_576.txt	LTP326	ltpFR2	13	11	FINGER	567	n/a	n/a	0	0	0
2641.544	n/a	REC_WORD_VV	1320772	wordpools/wasnorm_wordpool_576.txt	LTP326	ltpFR2	13	11	<>	-1	n/a	n/a	0	0	0
2642.482	n/a	REC_WORD	1321241	wordpools/wasnorm_wordpool_576.txt	LTP326	ltpFR2	13	11	LIPSTICK	829	n/a	n/a	0	0	0
2643.482	n/a	REC_WORD_VV	1321741	wordpools/wasnorm_wordpool_576.txt	LTP326	ltpFR2	13	11	<>	-1	n/a	n/a	0	0	0
2644.624	n/a	REC_WORD	1322312	wordpools/wasnorm_wordpool_576.txt	LTP326	ltpFR2	13	11	GARBAGE	622	n/a	n/a	0	0	0
2645.624	n/a	REC_WORD_VV	1322812	wordpools/wasnorm_wordpool_576.txt	LTP326	ltpFR2	13	11	<>	-1	n/a	n/a	0	0	0
2646.956	n/a	REC_WORD	1323478	wordpools/wasnorm_wordpool_576.txt	LTP326	ltpFR2	13	11	COCKTAIL	338	n/a	n/a	0	0	0
2647.956	n/a	REC_WORD_VV	1323978	wordpools/wasnorm_wordpool_576.txt	LTP326	ltpFR2	13	11	<>	-1	n/a	n/a	0	0	0
2651.534	n/a	REC_WORD	1325767	wordpools/wasnorm_wordpool_576.txt	LTP326	ltpFR2	13	11	COFFEE	341	n/a	n/a	0	0	0
2660.694	n/a	REC_WORD	1330347	wordpools/wasnorm_wordpool_576.txt	LTP326	ltpFR2	13	11	EGYPT	519	n/a	n/a	0	0	0
2665.2	n/a	REC_WORD	1332600	wordpools/wasnorm_wordpool_576.txt	LTP326	ltpFR2	13	11	FRANCE	601	n/a	n/a	0	0	0
2717.964	n/a	DISTRACTOR	1358982	n/a	LTP326	ltpFR2	13	12	n/a	n/a	n/a	n/a	0	0	0
2717.964	n/a	START	1358982	n/a	LTP326	ltpFR2	13	n/a	n/a	n/a	18	n/a	n/a	n/a	n/a
2717.978	n/a	PROB	1358989	n/a	LTP326	ltpFR2	13	n/a	n/a	n/a	18	9	1	7	1
2719.328	n/a	PROB	1359664	n/a	LTP326	ltpFR2	13	n/a	n/a	n/a	18	14	1	6	7
2720.648	n/a	PROB	1360324	n/a	LTP326	ltpFR2	13	n/a	n/a	n/a	18	7	5	1	1
2722.15	n/a	PROB	1361075	n/a	LTP326	ltpFR2	13	n/a	n/a	n/a	18	24	9	9	6
2724.616	n/a	PROB	1362308	n/a	LTP326	ltpFR2	13	n/a	n/a	n/a	18	15	4	3	8
2726.268	n/a	PROB	1363134	n/a	LTP326	ltpFR2	13	n/a	n/a	n/a	18	18	7	6	5
2729.62	n/a	PROB	1364810	n/a	LTP326	ltpFR2	13	n/a	n/a	n/a	18	12	8	4	1
2730.94	n/a	PROB	1365470	n/a	LTP326	ltpFR2	13	n/a	n/a	n/a	18	115	1	9	5
2732.056	n/a	PROB	1366028	n/a	LTP326	ltpFR2	13	n/a	n/a	n/a	18	10	4	1	5
2734.376	n/a	PROB	1367188	n/a	LTP326	ltpFR2	13	n/a	n/a	n/a	18	18	9	1	8
2735.608	n/a	PROB	1367804	n/a	LTP326	ltpFR2	13	n/a	n/a	n/a	18	16	1	7	8
2737.578	n/a	PROB	1368789	n/a	LTP326	ltpFR2	13	n/a	n/a	n/a	18	22	7	8	7
2740.01	n/a	PROB	1370005	n/a	LTP326	ltpFR2	13	n/a	n/a	n/a	18	15	5	6	4
2741.612	n/a	STOP	1370806	n/a	LTP326	ltpFR2	13	n/a	n/a	n/a	18	n/a	n/a	n/a	n/a
2742.798	n/a	WORD	1371399	wordpools/wasnorm_wordpool_576.txt	LTP326	ltpFR2	13	12	MASK	876	n/a	n/a	0	0	0
2745.266	n/a	WORD	1372633	wordpools/wasnorm_wordpool_576.txt	LTP326	ltpFR2	13	12	MUFFIN	929	n/a	n/a	0	0	0
2748.018	n/a	WORD	1374009	wordpools/wasnorm_wordpool_576.txt	LTP326	ltpFR2	13	12	HUMAN	726	n/a	n/a	0	0	0
2750.538	n/a	WORD	1375269	wordpools/wasnorm_wordpool_576.txt	LTP326	ltpFR2	13	12	GIRL	637	n/a	n/a	0	0	0
2752.96	n/a	WORD	1376480	wordpools/wasnorm_wordpool_576.txt	LTP326	ltpFR2	13	12	SEAFOOD	1260	n/a	n/a	0	0	0
2755.776	n/a	WORD	1377888	wordpools/wasnorm_wordpool_576.txt	LTP326	ltpFR2	13	12	OYSTER	995	n/a	n/a	0	0	0
2758.444	n/a	WORD	1379222	wordpools/wasnorm_wordpool_576.txt	LTP326	ltpFR2	13	12	DUST	508	n/a	n/a	0	0	0
2760.9	n/a	WORD	1380450	wordpools/wasnorm_wordpool_576.txt	LTP326	ltpFR2	13	12	WARDROBE	1587	n/a	n/a	0	0	0
2763.38	n/a	WORD	1381690	wordpools/wasnorm_wordpool_576.txt	LTP326	ltpFR2	13	12	CUSTARD	429	n/a	n/a	0	0	0
2766.118	n/a	WORD	1383059	wordpools/wasnorm_wordpool_576.txt	LTP326	ltpFR2	13	12	SKILLET	1317	n/a	n/a	0	0	0
2768.768	n/a	WORD	1384384	wordpools/wasnorm_wordpool_576.txt	LTP326	ltpFR2	13	12	SPACE	1345	n/a	n/a	0	0	0
2771.388	n/a	WORD	1385694	wordpools/wasnorm_wordpool_576.txt	LTP326	ltpFR2	13	12	SCALLOP	1242	n/a	n/a	0	0	0
2773.962	n/a	WORD	1386981	wordpools/wasnorm_wordpool_576.txt	LTP326	ltpFR2	13	12	GHETTO	633	n/a	n/a	0	0	0
2776.448	n/a	WORD	1388224	wordpools/wasnorm_wordpool_576.txt	LTP326	ltpFR2	13	12	BUREAU	199	n/a	n/a	0	0	0
2779.178	n/a	WORD	1389589	wordpools/wasnorm_wordpool_576.txt	LTP326	ltpFR2	13	12	PICTURE	1061	n/a	n/a	0	0	0
2781.628	n/a	WORD	1390814	wordpools/wasnorm_wordpool_576.txt	LTP326	ltpFR2	13	12	FRUIT	610	n/a	n/a	0	0	0
2784.27	n/a	WORD	1392135	wordpools/wasnorm_wordpool_576.txt	LTP326	ltpFR2	13	12	LEOPARD	812	n/a	n/a	0	0	0
2786.9	n/a	WORD	1393450	wordpools/wasnorm_wordpool_576.txt	LTP326	ltpFR2	13	12	DRESSER	496	n/a	n/a	0	0	0
2789.34	n/a	WORD	1394670	wordpools/wasnorm_wordpool_576.txt	LTP326	ltpFR2	13	12	DRESS	495	n/a	n/a	0	0	0
2792.154	n/a	WORD	1396077	wordpools/wasnorm_wordpool_576.txt	LTP326	ltpFR2	13	12	THRONE	1461	n/a	n/a	0	0	0
2794.864	n/a	WORD	1397432	wordpools/wasnorm_wordpool_576.txt	LTP326	ltpFR2	13	12	TWISTER	1530	n/a	n/a	0	0	0
2797.632	n/a	WORD	1398816	wordpools/wasnorm_wordpool_576.txt	LTP326	ltpFR2	13	12	BROTHER	179	n/a	n/a	0	0	0
2800.194	n/a	WORD	1400097	wordpools/wasnorm_wordpool_576.txt	LTP326	ltpFR2	13	12	SIBLING	1301	n/a	n/a	0	0	0
2802.678	n/a	WORD	1401339	wordpools/wasnorm_wordpool_576.txt	LTP326	ltpFR2	13	12	TOASTER	1472	n/a	n/a	0	0	0
2804.288	n/a	START	1402144	n/a	LTP326	ltpFR2	13	n/a	n/a	n/a	19	n/a	n/a	n/a	n/a
2805.346	n/a	DISTRACTOR	1402673	n/a	LTP326	ltpFR2	13	12	n/a	n/a	n/a	n/a	0	0	0
2805.356	n/a	PROB	1402678	n/a	LTP326	ltpFR2	13	n/a	n/a	n/a	19	5	1	2	2
2806.58	n/a	PROB	1403290	n/a	LTP326	ltpFR2	13	n/a	n/a	n/a	19	22	8	9	5
2810.232	n/a	PROB	1405116	n/a	LTP326	ltpFR2	13	n/a	n/a	n/a	19	8	4	1	3
2811.986	n/a	PROB	1405993	n/a	LTP326	ltpFR2	13	n/a	n/a	n/a	19	12	7	3	2
2813.034	n/a	PROB	1406517	n/a	LTP326	ltpFR2	13	n/a	n/a	n/a	19	9	3	1	5
2815.088	n/a	PROB	1407544	n/a	LTP326	ltpFR2	13	n/a	n/a	n/a	19	13	6	3	4
2816.84	n/a	PROB	1408420	n/a	LTP326	ltpFR2	13	n/a	n/a	n/a	19	18	7	8	3
2818.708	n/a	PROB	1409354	n/a	LTP326	ltpFR2	13	n/a	n/a	n/a	19	15	8	2	5
2820.376	n/a	PROB	1410188	n/a	LTP326	ltpFR2	13	n/a	n/a	n/a	19	15	3	3	9
2822.008	n/a	PROB	1411004	n/a	LTP326	ltpFR2	13	n/a	n/a	n/a	19	19	4	6	9
2823.076	n/a	PROB	1411538	n/a	LTP326	ltpFR2	13	n/a	n/a	n/a	19	18	2	7	9
2824.544	n/a	PROB	1412272	n/a	LTP326	ltpFR2	13	n/a	n/a	n/a	19	16	7	7	2
2826.564	n/a	PROB	1413282	n/a	LTP326	ltpFR2	13	n/a	n/a	n/a	19	17	7	8	2
2827.87	n/a	STOP	1413935	n/a	LTP326	ltpFR2	13	n/a	n/a	n/a	19	n/a	n/a	n/a	n/a
2830.084	n/a	REC_START	1415042	n/a	LTP326	ltpFR2	13	12	n/a	n/a	n/a	n/a	0	0	0
2834.402	n/a	REC_WORD	1417201	wordpools/wasnorm_wordpool_576.txt	LTP326	ltpFR2	13	12	MUFFIN	929	n/a	n/a	0	0	0
2835.79	n/a	REC_WORD	1417895	wordpools/wasnorm_wordpool_576.txt	LTP326	ltpFR2	13	12	GIRL	637	n/a	n/a	0	0	0
2837.384	n/a	REC_WORD	1418692	wordpools/wasnorm_wordpool_576.txt	LTP326	ltpFR2	13	12	HERO	706	n/a	n/a	0	0	0
2839.816	n/a	REC_WORD	1419908	wordpools/wasnorm_wordpool_576.txt	LTP326	ltpFR2	13	12	HUMAN	726	n/a	n/a	0	0	0
2845.228	n/a	REC_WORD	1422614	wordpools/wasnorm_wordpool_576.txt	LTP326	ltpFR2	13	12	DRESS	495	n/a	n/a	0	0	0
2849.84	n/a	REC_WORD	1424920	wordpools/wasnorm_wordpool_576.txt	LTP326	ltpFR2	13	12	BUREAU	199	n/a	n/a	0	0	0
2850.96	n/a	REC_WORD	1425480	wordpools/wasnorm_wordpool_576.txt	LTP326	ltpFR2	13	12	FRUIT	610	n/a	n/a	0	0	0
2851.96	n/a	REC_WORD_VV	1425980	wordpools/wasnorm_wordpool_576.txt	LTP326	ltpFR2	13	12	<>	-1	n/a	n/a	0	0	0
2852.326	n/a	REC_WORD	1426163	wordpools/wasnorm_wordpool_576.txt	LTP326	ltpFR2	13	12	DRESSER	496	n/a	n/a	0	0	0
2855.234	n/a	REC_WORD	1427617	wordpools/wasnorm_wordpool_576.txt	LTP326	ltpFR2	13	12	SEAFOOD	1260	n/a	n/a	0	0	0
2856.514	n/a	REC_WORD	1428257	wordpools/wasnorm_wordpool_576.txt	LTP326	ltpFR2	13	12	SCALLOP	1242	n/a	n/a	0	0	0
2857.514	n/a	REC_WORD_VV	1428757	wordpools/wasnorm_wordpool_576.txt	LTP326	ltpFR2	13	12	<>	-1	n/a	n/a	0	0	0
2857.964	n/a	REC_WORD	1428982	wordpools/wasnorm_wordpool_576.txt	LTP326	ltpFR2	13	12	SKILLET	1317	n/a	n/a	0	0	0
2858.964	n/a	REC_WORD_VV	1429482	wordpools/wasnorm_wordpool_576.txt	LTP326	ltpFR2	13	12	<>	-1	n/a	n/a	0	0	0
2864.73	n/a	REC_WORD	1432365	wordpools/wasnorm_wordpool_576.txt	LTP326	ltpFR2	13	12	BROTHER	179	n/a	n/a	0	0	0
2865.602	n/a	REC_WORD	1432801	wordpools/wasnorm_wordpool_576.txt	LTP326	ltpFR2	13	12	SIBLING	1301	n/a	n/a	0	0	0
2866.89	n/a	REC_WORD	1433445	wordpools/wasnorm_wordpool_576.txt	LTP326	ltpFR2	13	12	TWISTER	1530	n/a	n/a	0	0	0
2869.554	n/a	REC_WORD	1434777	wordpools/wasnorm_wordpool_576.txt	LTP326	ltpFR2	13	12	THRONE	1461	n/a	n/a	0	0	0
2920.552	n/a	WORD	1460276	wordpools/wasnorm_wordpool_576.txt	LTP326	ltpFR2	13	13	GARLIC	624	n/a	n/a	0	0	0
2922.988	n/a	WORD	1461494	wordpools/wasnorm_wordpool_576.txt	LTP326	ltpFR2	13	13	PIZZA	1079	n/a	n/a	0	0	0
2925.724	n/a	WORD	1462862	wordpools/wasnorm_wordpool_576.txt	LTP326	ltpFR2	13	13	MILDEW	893	n/a	n/a	0	0	0
2928.194	n/a	WORD	1464097	wordpools/wasnorm_wordpool_576.txt	LTP326	ltpFR2	13	13	FLASK	576	n/a	n/a	0	0	0
2930.844	n/a	WORD	1465422	wordpools/wasnorm_wordpool_576.txt	LTP326	ltpFR2	13	13	CATCHER	258	n/a	n/a	0	0	0
2933.564	n/a	WORD	1466782	wordpools/wasnorm_wordpool_576.txt	LTP326	ltpFR2	13	13	JUNGLE	764	n/a	n/a	0	0	0
2936.266	n/a	WORD	1468133	wordpools/wasnorm_wordpool_576.txt	LTP326	ltpFR2	13	13	PRIMATE	1123	n/a	n/a	0	0	0
2939.068	n/a	WORD	1469534	wordpools/wasnorm_wordpool_576.txt	LTP326	ltpFR2	13	13	PRINCE	1124	n/a	n/a	0	0	0
2941.57	n/a	WORD	1470785	wordpools/wasnorm_wordpool_576.txt	LTP326	ltpFR2	13	13	MONSTER	912	n/a	n/a	0	0	0
2944.174	n/a	WORD	1472087	wordpools/wasnorm_wordpool_576.txt	LTP326	ltpFR2	13	13	HEART	697	n/a	n/a	0	0	0
2946.64	n/a	WORD	1473320	wordpools/wasnorm_wordpool_576.txt	LTP326	ltpFR2	13	13	MARKET	871	n/a	n/a	0	0	0
2949.076	n/a	WORD	1474538	wordpools/wasnorm_wordpool_576.txt	LTP326	ltpFR2	13	13	CAFE	216	n/a	n/a	0	0	0
2951.76	n/a	WORD	1475880	wordpools/wasnorm_wordpool_576.txt	LTP326	ltpFR2	13	13	DOUGHNUT	490	n/a	n/a	0	0	0
2954.246	n/a	WORD	1477123	wordpools/wasnorm_wordpool_576.txt	LTP326	ltpFR2	13	13	TEMPLE	1448	n/a	n/a	0	0	0
2956.682	n/a	WORD	1478341	wordpools/wasnorm_wordpool_576.txt	LTP326	ltpFR2	13	13	SUBWAY	1400	n/a	n/a	0	0	0
2959.284	n/a	WORD	1479642	wordpools/wasnorm_wordpool_576.txt	LTP326	ltpFR2	13	13	SLIME	1327	n/a	n/a	0	0	0
2961.92	n/a	WORD	1480960	wordpools/wasnorm_wordpool_576.txt	LTP326	ltpFR2	13	13	PUDDING	1139	n/a	n/a	0	0	0
2964.672	n/a	WORD	1482336	wordpools/wasnorm_wordpool_576.txt	LTP326	ltpFR2	13	13	FOOTBALL	591	n/a	n/a	0	0	0
2967.108	n/a	WORD	1483554	wordpools/wasnorm_wordpool_576.txt	LTP326	ltpFR2	13	13	POPCORN	1104	n/a	n/a	0	0	0
2969.858	n/a	WORD	1484929	wordpools/wasnorm_wordpool_576.txt	LTP326	ltpFR2	13	13	CRICKET	408	n/a	n/a	0	0	0
2972.61	n/a	WORD	1486305	wordpools/wasnorm_wordpool_576.txt	LTP326	ltpFR2	13	13	GRAVE	658	n/a	n/a	0	0	0
2975.346	n/a	WORD	1487673	wordpools/wasnorm_wordpool_576.txt	LTP326	ltpFR2	13	13	EMPIRE	530	n/a	n/a	0	0	0
2978.1	n/a	WORD	1489050	wordpools/wasnorm_wordpool_576.txt	LTP326	ltpFR2	13	13	EUROPE	541	n/a	n/a	0	0	0
2980.818	n/a	WORD	1490409	wordpools/wasnorm_wordpool_576.txt	LTP326	ltpFR2	13	13	CASHEW	253	n/a	n/a	0	0	0
2982.422	n/a	START	1491211	n/a	LTP326	ltpFR2	13	n/a	n/a	n/a	20	n/a	n/a	n/a	n/a
2983.448	n/a	DISTRACTOR	1491724	n/a	LTP326	ltpFR2	13	13	n/a	n/a	n/a	n/a	0	0	0
2983.456	n/a	PROB	1491728	n/a	LTP326	ltpFR2	13	n/a	n/a	n/a	20	12	1	6	5
2985.47	n/a	PROB	1492735	n/a	LTP326	ltpFR2	13	n/a	n/a	n/a	20	25	8	9	8
2987.454	n/a	PROB	1493727	n/a	LTP326	ltpFR2	13	n/a	n/a	n/a	20	12	1	4	7
2988.838	n/a	PROB	1494419	n/a	LTP326	ltpFR2	13	n/a	n/a	n/a	20	26	9	9	8
2992.474	n/a	PROB	1496237	n/a	LTP326	ltpFR2	13	n/a	n/a	n/a	20	16	2	8	6
2994.11	n/a	PROB	1497055	n/a	LTP326	ltpFR2	13	n/a	n/a	n/a	20	13	3	5	5
2995.228	n/a	PROB	1497614	n/a	LTP326	ltpFR2	13	n/a	n/a	n/a	20	7	1	2	4
2996.78	n/a	PROB	1498390	n/a	LTP326	ltpFR2	13	n/a	n/a	n/a	20	10	7	1	2
2997.912	n/a	PROB	1498956	n/a	LTP326	ltpFR2	13	n/a	n/a	n/a	20	19	8	8	3
2999.564	n/a	PROB	1499782	n/a	LTP326	ltpFR2	13	n/a	n/a	n/a	20	17	6	6	5
3001.118	n/a	PROB	1500559	n/a	LTP326	ltpFR2	13	n/a	n/a	n/a	20	5	1	2	2
3002.102	n/a	PROB	1501051	n/a	LTP326	ltpFR2	13	n/a	n/a	n/a	20	16	8	1	7
3003.9	n/a	PROB	1501950	n/a	LTP326	ltpFR2	13	n/a	n/a	n/a	20	22	4	9	9
3005.994	n/a	STOP	1502997	n/a	LTP326	ltpFR2	13	n/a	n/a	n/a	20	n/a	n/a	n/a	n/a
3008.19	n/a	REC_START	1504095	n/a	LTP326	ltpFR2	13	13	n/a	n/a	n/a	n/a	0	0	0
3010.498	n/a	REC_WORD	1505249	wordpools/wasnorm_wordpool_576.txt	LTP326	ltpFR2	13	13	GRAVE	658	n/a	n/a	0	0	0
3011.744	n/a	REC_WORD	1505872	wordpools/wasnorm_wordpool_576.txt	LTP326	ltpFR2	13	13	FOREST	593	n/a	n/a	0	0	0
3013.206	n/a	REC_WORD	1506603	wordpools/wasnorm_wordpool_576.txt	LTP326	ltpFR2	13	13	JUNGLE	764	n/a	n/a	0	0	0
3014.57	n/a	REC_WORD	1507285	wordpools/wasnorm_wordpool_576.txt	LTP326	ltpFR2	13	13	PRIMATE	1123	n/a	n/a	0	0	0
3021.038	n/a	REC_WORD	1510519	wordpools/wasnorm_wordpool_576.txt	LTP326	ltpFR2	13	13	POPCORN	1104	n/a	n/a	0	0	0
3022.038	n/a	REC_WORD_VV	1511019	wordpools/wasnorm_wordpool_576.txt	LTP326	ltpFR2	13	13	<>	-1	n/a	n/a	0	0	0
3022.492	n/a	REC_WORD	1511246	wordpools/wasnorm_wordpool_576.txt	LTP326	ltpFR2	13	13	CASHEW	253	n/a	n/a	0	0	0
3024.238	n/a	REC_WORD	1512119	wordpools/wasnorm_wordpool_576.txt	LTP326	ltpFR2	13	13	PUDDING	1139	n/a	n/a	0	0	0
3029.462	n/a	REC_WORD	1514731	wordpools/wasnorm_wordpool_576.txt	LTP326	ltpFR2	13	13	MILDEW	893	n/a	n/a	0	0	0
3034.624	n/a	REC_WORD	1517312	wordpools/wasnorm_wordpool_576.txt	LTP326	ltpFR2	13	13	CAFE	216	n/a	n/a	0	0	0
3051.822	n/a	REC_WORD	1525911	wordpools/wasnorm_wordpool_576.txt	LTP326	ltpFR2	13	13	GARLIC	624	n/a	n/a	0	0	0
3052.834	n/a	REC_WORD	1526417	wordpools/wasnorm_wordpool_576.txt	LTP326	ltpFR2	13	13	PIZZA	1079	n/a	n/a	0	0	0
3055.176	n/a	REC_WORD	1527588	wordpools/wasnorm_wordpool_576.txt	LTP326	ltpFR2	13	13	HEART	697	n/a	n/a	0	0	0
3078.968	n/a	REC_WORD	1539484	wordpools/wasnorm_wordpool_576.txt	LTP326	ltpFR2	13	13	SUBWAY	1400	n/a	n/a	0	0	0
3098.624	n/a	WORD	1549312	wordpools/wasnorm_wordpool_576.txt	LTP326	ltpFR2	13	14	POWDER	1117	n/a	n/a	0	0	0
3101.256	n/a	WORD	1550628	wordpools/wasnorm_wordpool_576.txt	LTP326	ltpFR2	13	14	CARRIAGE	248	n/a	n/a	0	0	0
3103.858	n/a	WORD	1551929	wordpools/wasnorm_wordpool_576.txt	LTP326	ltpFR2	13	14	ORCHID	982	n/a	n/a	0	0	0
3106.398	n/a	WORD	1553199	wordpools/wasnorm_wordpool_576.txt	LTP326	ltpFR2	13	14	COMPASS	358	n/a	n/a	0	0	0
3109.196	n/a	WORD	1554598	wordpools/wasnorm_wordpool_576.txt	LTP326	ltpFR2	13	14	HORSE	719	n/a	n/a	0	0	0
3111.932	n/a	WORD	1555966	wordpools/wasnorm_wordpool_576.txt	LTP326	ltpFR2	13	14	TURKEY	1520	n/a	n/a	0	0	0
3114.75	n/a	WORD	1557375	wordpools/wasnorm_wordpool_576.txt	LTP326	ltpFR2	13	14	SUPPER	1411	n/a	n/a	0	0	0
3117.22	n/a	WORD	1558610	wordpools/wasnorm_wordpool_576.txt	LTP326	ltpFR2	13	14	CHAUFFEUR	283	n/a	n/a	0	0	0
3119.688	n/a	WORD	1559844	wordpools/wasnorm_wordpool_576.txt	LTP326	ltpFR2	13	14	WRENCH	1625	n/a	n/a	0	0	0
3122.224	n/a	WORD	1561112	wordpools/wasnorm_wordpool_576.txt	LTP326	ltpFR2	13	14	CANYON	235	n/a	n/a	0	0	0
3124.792	n/a	WORD	1562396	wordpools/wasnorm_wordpool_576.txt	LTP326	ltpFR2	13	14	XEROX	1628	n/a	n/a	0	0	0
3127.382	n/a	WORD	1563691	wordpools/wasnorm_wordpool_576.txt	LTP326	ltpFR2	13	14	ONION	977	n/a	n/a	0	0	0
3130.03	n/a	WORD	1565015	wordpools/wasnorm_wordpool_576.txt	LTP326	ltpFR2	13	14	YACHT	1629	n/a	n/a	0	0	0
3132.652	n/a	WORD	1566326	wordpools/wasnorm_wordpool_576.txt	LTP326	ltpFR2	13	14	SOFTBALL	1343	n/a	n/a	0	0	0
3135.452	n/a	WORD	1567726	wordpools/wasnorm_wordpool_576.txt	LTP326	ltpFR2	13	14	UMPIRE	1535	n/a	n/a	0	0	0
3138.088	n/a	WORD	1569044	wordpools/wasnorm_wordpool_576.txt	LTP326	ltpFR2	13	14	PRINCESS	1125	n/a	n/a	0	0	0
3140.84	n/a	WORD	1570420	wordpools/wasnorm_wordpool_576.txt	LTP326	ltpFR2	13	14	FRECKLE	602	n/a	n/a	0	0	0
3143.542	n/a	WORD	1571771	wordpools/wasnorm_wordpool_576.txt	LTP326	ltpFR2	13	14	GREASE	660	n/a	n/a	0	0	0
3146.114	n/a	WORD	1573057	wordpools/wasnorm_wordpool_576.txt	LTP326	ltpFR2	13	14	EYELASH	546	n/a	n/a	0	0	0
3148.664	n/a	WORD	1574332	wordpools/wasnorm_wordpool_576.txt	LTP326	ltpFR2	13	14	ROBOT	1200	n/a	n/a	0	0	0
3151.414	n/a	WORD	1575707	wordpools/wasnorm_wordpool_576.txt	LTP326	ltpFR2	13	14	BANKER	84	n/a	n/a	0	0	0
3154.202	n/a	WORD	1577101	wordpools/wasnorm_wordpool_576.txt	LTP326	ltpFR2	13	14	HARP	689	n/a	n/a	0	0	0
3156.92	n/a	WORD	1578460	wordpools/wasnorm_wordpool_576.txt	LTP326	ltpFR2	13	14	ROD	1203	n/a	n/a	0	0	0
3159.422	n/a	WORD	1579711	wordpools/wasnorm_wordpool_576.txt	LTP326	ltpFR2	13	14	ISLAND	745	n/a	n/a	0	0	0
3161.04	n/a	START	1580520	n/a	LTP326	ltpFR2	13	n/a	n/a	n/a	21	n/a	n/a	n/a	n/a
3162.206	n/a	DISTRACTOR	1581103	n/a	LTP326	ltpFR2	13	14	n/a	n/a	n/a	n/a	0	0	0
3162.224	n/a	PROB	1581112	n/a	LTP326	ltpFR2	13	n/a	n/a	n/a	21	16	3	7	6
3163.708	n/a	PROB	1581854	n/a	LTP326	ltpFR2	13	n/a	n/a	n/a	21	7	3	2	2
3165.342	n/a	PROB	1582671	n/a	LTP326	ltpFR2	13	n/a	n/a	n/a	21	13	5	1	7
3166.794	n/a	PROB	1583397	n/a	LTP326	ltpFR2	13	n/a	n/a	n/a	21	20	5	6	9
3168.696	n/a	PROB	1584348	n/a	LTP326	ltpFR2	13	n/a	n/a	n/a	21	20	9	4	7
3170.764	n/a	PROB	1585382	n/a	LTP326	ltpFR2	13	n/a	n/a	n/a	21	7	1	2	4
3171.982	n/a	PROB	1585991	n/a	LTP326	ltpFR2	13	n/a	n/a	n/a	21	23	7	9	7
3174.584	n/a	PROB	1587292	n/a	LTP326	ltpFR2	13	n/a	n/a	n/a	21	25	9	8	7
3177.67	n/a	PROB	1588835	n/a	LTP326	ltpFR2	13	n/a	n/a	n/a	21	13	2	8	3
3178.922	n/a	PROB	1589461	n/a	LTP326	ltpFR2	13	n/a	n/a	n/a	21	16	7	3	6
3180.538	n/a	PROB	1590269	n/a	LTP326	ltpFR2	13	n/a	n/a	n/a	21	15	1	8	6
3182.308	n/a	PROB	1591154	n/a	LTP326	ltpFR2	13	n/a	n/a	n/a	21	19	9	2	8
3183.772	n/a	STOP	1591886	n/a	LTP326	ltpFR2	13	n/a	n/a	n/a	21	n/a	n/a	n/a	n/a
3186.912	n/a	REC_START	1593456	n/a	LTP326	ltpFR2	13	14	n/a	n/a	n/a	n/a	0	0	0
3189.234	n/a	REC_WORD	1594617	wordpools/wasnorm_wordpool_576.txt	LTP326	ltpFR2	13	14	POWDER	1117	n/a	n/a	0	0	0
3190.746	n/a	REC_WORD	1595373	wordpools/wasnorm_wordpool_576.txt	LTP326	ltpFR2	13	14	TURKEY	1520	n/a	n/a	0	0	0
3192.284	n/a	REC_WORD	1596142	wordpools/wasnorm_wordpool_576.txt	LTP326	ltpFR2	13	14	CARRIAGE	248	n/a	n/a	0	0	0
3193.778	n/a	REC_WORD	1596889	wordpools/wasnorm_wordpool_576.txt	LTP326	ltpFR2	13	14	HORSE	719	n/a	n/a	0	0	0
3199.196	n/a	REC_WORD	1599598	wordpools/wasnorm_wordpool_576.txt	LTP326	ltpFR2	13	14	WRENCH	1625	n/a	n/a	0	0	0
3200.372	n/a	REC_WORD	1600186	wordpools/wasnorm_wordpool_576.txt	LTP326	ltpFR2	13	14	GREASE	660	n/a	n/a	0	0	0
3202.482	n/a	REC_WORD	1601241	wordpools/wasnorm_wordpool_576.txt	LTP326	ltpFR2	13	14	CANYON	235	n/a	n/a	0	0	0
3204.172	n/a	REC_WORD	1602086	wordpools/wasnorm_wordpool_576.txt	LTP326	ltpFR2	13	14	SOFTBALL	1343	n/a	n/a	0	0	0
3206.02	n/a	REC_WORD	1603010	wordpools/wasnorm_wordpool_576.txt	LTP326	ltpFR2	13	14	UMPIRE	1535	n/a	n/a	0	0	0
3207.484	n/a	REC_WORD	1603742	wordpools/wasnorm_wordpool_576.txt	LTP326	ltpFR2	13	14	YACHT	1629	n/a	n/a	0	0	0
3277.348	n/a	WORD	1638674	wordpools/wasnorm_wordpool_576.txt	LTP326	ltpFR2	13	15	BALLOON	75	n/a	n/a	0	0	0
3279.882	n/a	WORD	1639941	wordpools/wasnorm_wordpool_576.txt	LTP326	ltpFR2	13	15	TYPIST	1532	n/a	n/a	0	0	0
3282.476	n/a	WORD	1641238	wordpools/wasnorm_wordpool_576.txt	LTP326	ltpFR2	13	15	BUTCHER	203	n/a	n/a	0	0	0
3284.928	n/a	WORD	1642464	wordpools/wasnorm_wordpool_576.txt	LTP326	ltpFR2	13	15	SAUSAGE	1238	n/a	n/a	0	0	0
3287.488	n/a	WORD	1643744	wordpools/wasnorm_wordpool_576.txt	LTP326	ltpFR2	13	15	BRIEFCASE	175	n/a	n/a	0	0	0
3290.232	n/a	WORD	1645116	wordpools/wasnorm_wordpool_576.txt	LTP326	ltpFR2	13	15	BRANCH	168	n/a	n/a	0	0	0
3292.968	n/a	WORD	1646484	wordpools/wasnorm_wordpool_576.txt	LTP326	ltpFR2	13	15	PIMPLE	1071	n/a	n/a	0	0	0
3295.554	n/a	WORD	1647777	wordpools/wasnorm_wordpool_576.txt	LTP326	ltpFR2	13	15	BLADE	134	n/a	n/a	0	0	0
3298.198	n/a	WORD	1649099	wordpools/wasnorm_wordpool_576.txt	LTP326	ltpFR2	13	15	INMATE	738	n/a	n/a	0	0	0
3300.716	n/a	WORD	1650358	wordpools/wasnorm_wordpool_576.txt	LTP326	ltpFR2	13	15	PALACE	1006	n/a	n/a	0	0	0
3303.194	n/a	WORD	1651597	wordpools/wasnorm_wordpool_576.txt	LTP326	ltpFR2	13	15	COLLEGE	346	n/a	n/a	0	0	0
3305.964	n/a	WORD	1652982	wordpools/wasnorm_wordpool_576.txt	LTP326	ltpFR2	13	15	RAZOR	1171	n/a	n/a	0	0	0
3308.772	n/a	WORD	1654386	wordpools/wasnorm_wordpool_576.txt	LTP326	ltpFR2	13	15	CANDY	230	n/a	n/a	0	0	0
3311.524	n/a	WORD	1655762	wordpools/wasnorm_wordpool_576.txt	LTP326	ltpFR2	13	15	BUBBLE	183	n/a	n/a	0	0	0
3313.992	n/a	WORD	1656996	wordpools/wasnorm_wordpool_576.txt	LTP326	ltpFR2	13	15	BOYFRIEND	162	n/a	n/a	0	0	0
3316.77	n/a	WORD	1658385	wordpools/wasnorm_wordpool_576.txt	LTP326	ltpFR2	13	15	CITRUS	313	n/a	n/a	0	0	0
3319.24	n/a	WORD	1659620	wordpools/wasnorm_wordpool_576.txt	LTP326	ltpFR2	13	15	HOOD	714	n/a	n/a	0	0	0
3321.698	n/a	WORD	1660849	wordpools/wasnorm_wordpool_576.txt	LTP326	ltpFR2	13	15	QUEEN	1149	n/a	n/a	0	0	0
3324.484	n/a	WORD	1662242	wordpools/wasnorm_wordpool_576.txt	LTP326	ltpFR2	13	15	TUNNEL	1519	n/a	n/a	0	0	0
3327.132	n/a	WORD	1663566	wordpools/wasnorm_wordpool_576.txt	LTP326	ltpFR2	13	15	STAPLE	1371	n/a	n/a	0	0	0
3329.622	n/a	WORD	1664811	wordpools/wasnorm_wordpool_576.txt	LTP326	ltpFR2	13	15	SPOUSE	1358	n/a	n/a	0	0	0
3332.318	n/a	WORD	1666159	wordpools/wasnorm_wordpool_576.txt	LTP326	ltpFR2	13	15	WIFE	1609	n/a	n/a	0	0	0
3335.01	n/a	WORD	1667505	wordpools/wasnorm_wordpool_576.txt	LTP326	ltpFR2	13	15	TREAT	1501	n/a	n/a	0	0	0
3337.69	n/a	WORD	1668845	wordpools/wasnorm_wordpool_576.txt	LTP326	ltpFR2	13	15	ROBIN	1199	n/a	n/a	0	0	0
3339.296	n/a	START	1669648	n/a	LTP326	ltpFR2	13	n/a	n/a	n/a	22	n/a	n/a	n/a	n/a
3340.282	n/a	DISTRACTOR	1670141	n/a	LTP326	ltpFR2	13	15	n/a	n/a	n/a	n/a	0	0	0
3340.292	n/a	PROB	1670146	n/a	LTP326	ltpFR2	13	n/a	n/a	n/a	22	17	8	1	8
3342.064	n/a	PROB	1671032	n/a	LTP326	ltpFR2	13	n/a	n/a	n/a	22	15	5	5	5
3343.1	n/a	PROB	1671550	n/a	LTP326	ltpFR2	13	n/a	n/a	n/a	22	24	9	7	8
3345.434	n/a	PROB	1672717	n/a	LTP326	ltpFR2	13	n/a	n/a	n/a	22	20	8	8	4
3347.652	n/a	PROB	1673826	n/a	LTP326	ltpFR2	13	n/a	n/a	n/a	22	13	4	2	7
3349.238	n/a	PROB	1674619	n/a	LTP326	ltpFR2	13	n/a	n/a	n/a	22	17	4	5	8
3351.034	n/a	PROB	1675517	n/a	LTP326	ltpFR2	13	n/a	n/a	n/a	22	23	7	7	9
3353.222	n/a	PROB	1676611	n/a	LTP326	ltpFR2	13	n/a	n/a	n/a	22	15	6	4	5
3355.624	n/a	PROB	1677812	n/a	LTP326	ltpFR2	13	n/a	n/a	n/a	22	16	7	5	4
3358.828	n/a	PROB	1679414	n/a	LTP326	ltpFR2	13	n/a	n/a	n/a	22	10	1	1	8
3359.89	n/a	PROB	1679945	n/a	LTP326	ltpFR2	13	n/a	n/a	n/a	22	15	5	4	6
3363.296	n/a	STOP	1681648	n/a	LTP326	ltpFR2	13	n/a	n/a	n/a	22	n/a	n/a	n/a	n/a
3365.168	n/a	REC_START	1682584	n/a	LTP326	ltpFR2	13	15	n/a	n/a	n/a	n/a	0	0	0
3374.954	n/a	REC_WORD	1687477	wordpools/wasnorm_wordpool_576.txt	LTP326	ltpFR2	13	15	BALLOON	75	n/a	n/a	0	0	0
3377.336	n/a	REC_WORD	1688668	wordpools/wasnorm_wordpool_576.txt	LTP326	ltpFR2	13	15	BUTCHER	203	n/a	n/a	0	0	0
3378.6	n/a	REC_WORD	1689300	wordpools/wasnorm_wordpool_576.txt	LTP326	ltpFR2	13	15	SAUSAGE	1238	n/a	n/a	0	0	0
3379.6	n/a	REC_WORD_VV	1689800	wordpools/wasnorm_wordpool_576.txt	LTP326	ltpFR2	13	15	<>	-1	n/a	n/a	0	0	0
3380.464	n/a	REC_WORD	1690232	wordpools/wasnorm_wordpool_576.txt	LTP326	ltpFR2	13	15	TYPIST	1532	n/a	n/a	0	0	0
3381.912	n/a	REC_WORD	1690956	wordpools/wasnorm_wordpool_576.txt	LTP326	ltpFR2	13	15	BRIEFCASE	175	n/a	n/a	0	0	0
3382.912	n/a	REC_WORD_VV	1691456	wordpools/wasnorm_wordpool_576.txt	LTP326	ltpFR2	13	15	<>	-1	n/a	n/a	0	0	0
3388.298	n/a	REC_WORD	1694149	wordpools/wasnorm_wordpool_576.txt	LTP326	ltpFR2	13	15	BUBBLE	183	n/a	n/a	0	0	0
3389.878	n/a	REC_WORD	1694939	wordpools/wasnorm_wordpool_576.txt	LTP326	ltpFR2	13	15	CANDY	230	n/a	n/a	0	0	0
3391.56	n/a	REC_WORD	1695780	wordpools/wasnorm_wordpool_576.txt	LTP326	ltpFR2	13	15	TREAT	1501	n/a	n/a	0	0	0
3393.236	n/a	REC_WORD	1696618	wordpools/wasnorm_wordpool_576.txt	LTP326	ltpFR2	13	15	TART	1436	n/a	n/a	0	0	0
3394.48	n/a	REC_WORD	1697240	wordpools/wasnorm_wordpool_576.txt	LTP326	ltpFR2	13	15	CITRUS	313	n/a	n/a	0	0	0
3397.622	n/a	REC_WORD	1698811	wordpools/wasnorm_wordpool_576.txt	LTP326	ltpFR2	13	15	WIFE	1609	n/a	n/a	0	0	0
3398.816	n/a	REC_WORD	1699408	wordpools/wasnorm_wordpool_576.txt	LTP326	ltpFR2	13	15	BOYFRIEND	162	n/a	n/a	0	0	0
3416.836	n/a	REC_WORD	1708418	wordpools/wasnorm_wordpool_576.txt	LTP326	ltpFR2	13	15	STAPLE	1371	n/a	n/a	0	0	0
3417.836	n/a	REC_WORD_VV	1708918	wordpools/wasnorm_wordpool_576.txt	LTP326	ltpFR2	13	15	<>	-1	n/a	n/a	0	0	0
3455.62	n/a	DISTRACTOR	1727810	n/a	LTP326	ltpFR2	13	16	n/a	n/a	n/a	n/a	0	0	0
3455.62	n/a	START	1727810	n/a	LTP326	ltpFR2	13	n/a	n/a	n/a	23	n/a	n/a	n/a	n/a
3455.634	n/a	PROB	1727817	n/a	LTP326	ltpFR2	13	n/a	n/a	n/a	23	23	9	5	9
3458.688	n/a	PROB	1729344	n/a	LTP326	ltpFR2	13	n/a	n/a	n/a	23	13	2	8	3
3459.888	n/a	PROB	1729944	n/a	LTP326	ltpFR2	13	n/a	n/a	n/a	23	23	8	9	6
3462.876	n/a	PROB	1731438	n/a	LTP326	ltpFR2	13	n/a	n/a	n/a	23	17	3	5	9
3464.608	n/a	PROB	1732304	n/a	LTP326	ltpFR2	13	n/a	n/a	n/a	23	1	4	6	6
3465.728	n/a	PROB	1732864	n/a	LTP326	ltpFR2	13	n/a	n/a	n/a	23	20	8	8	4
3468.182	n/a	PROB	1734091	n/a	LTP326	ltpFR2	13	n/a	n/a	n/a	23	13	3	8	2
3469.414	n/a	PROB	1734707	n/a	LTP326	ltpFR2	13	n/a	n/a	n/a	23	7	3	2	2
3471.298	n/a	PROB	1735649	n/a	LTP326	ltpFR2	13	n/a	n/a	n/a	23	16	4	9	3
3473.384	n/a	PROB	1736692	n/a	LTP326	ltpFR2	13	n/a	n/a	n/a	23	8	5	1	2
3474.75	n/a	PROB	1737375	n/a	LTP326	ltpFR2	13	n/a	n/a	n/a	23	12	8	3	1
3476.604	n/a	PROB	1738302	n/a	LTP326	ltpFR2	13	n/a	n/a	n/a	23	15	6	2	7
3478.826	n/a	STOP	1739413	n/a	LTP326	ltpFR2	13	n/a	n/a	n/a	23	n/a	n/a	n/a	n/a
3480.69	n/a	WORD	1740345	wordpools/wasnorm_wordpool_576.txt	LTP326	ltpFR2	13	16	JURY	766	n/a	n/a	0	0	0
3483.38	n/a	WORD	1741690	wordpools/wasnorm_wordpool_576.txt	LTP326	ltpFR2	13	16	PECAN	1036	n/a	n/a	0	0	0
3486.062	n/a	WORD	1743031	wordpools/wasnorm_wordpool_576.txt	LTP326	ltpFR2	13	16	PEANUT	1032	n/a	n/a	0	0	0
3488.496	n/a	WORD	1744248	wordpools/wasnorm_wordpool_576.txt	LTP326	ltpFR2	13	16	BRICK	172	n/a	n/a	0	0	0
3491.22	n/a	WORD	1745610	wordpools/wasnorm_wordpool_576.txt	LTP326	ltpFR2	13	16	CLAMP	316	n/a	n/a	0	0	0
3493.638	n/a	WORD	1746819	wordpools/wasnorm_wordpool_576.txt	LTP326	ltpFR2	13	16	COURSE	390	n/a	n/a	0	0	0
3496.402	n/a	WORD	1748201	wordpools/wasnorm_wordpool_576.txt	LTP326	ltpFR2	13	16	COMET	353	n/a	n/a	0	0	0
3498.96	n/a	WORD	1749480	wordpools/wasnorm_wordpool_576.txt	LTP326	ltpFR2	13	16	FRIEND	606	n/a	n/a	0	0	0
3501.722	n/a	WORD	1750861	wordpools/wasnorm_wordpool_576.txt	LTP326	ltpFR2	13	16	CRIB	407	n/a	n/a	0	0	0
3504.224	n/a	WORD	1752112	wordpools/wasnorm_wordpool_576.txt	LTP326	ltpFR2	13	16	BUGGY	188	n/a	n/a	0	0	0
3506.876	n/a	WORD	1753438	wordpools/wasnorm_wordpool_576.txt	LTP326	ltpFR2	13	16	COIN	343	n/a	n/a	0	0	0
3509.412	n/a	WORD	1754706	wordpools/wasnorm_wordpool_576.txt	LTP326	ltpFR2	13	16	BOUQUET	157	n/a	n/a	0	0	0
3511.998	n/a	WORD	1755999	wordpools/wasnorm_wordpool_576.txt	LTP326	ltpFR2	13	16	FREEZER	604	n/a	n/a	0	0	0
3514.69	n/a	WORD	1757345	wordpools/wasnorm_wordpool_576.txt	LTP326	ltpFR2	13	16	SHORTS	1293	n/a	n/a	0	0	0
3517.484	n/a	WORD	1758742	wordpools/wasnorm_wordpool_576.txt	LTP326	ltpFR2	13	16	SURVEY	1414	n/a	n/a	0	0	0
3520.146	n/a	WORD	1760073	wordpools/wasnorm_wordpool_576.txt	LTP326	ltpFR2	13	16	WORKER	1621	n/a	n/a	0	0	0
3522.804	n/a	WORD	1761402	wordpools/wasnorm_wordpool_576.txt	LTP326	ltpFR2	13	16	PAIL	1002	n/a	n/a	0	0	0
3525.298	n/a	WORD	1762649	wordpools/wasnorm_wordpool_576.txt	LTP326	ltpFR2	13	16	LUGGAGE	847	n/a	n/a	0	0	0
3527.844	n/a	WORD	1763922	wordpools/wasnorm_wordpool_576.txt	LTP326	ltpFR2	13	16	NECKLACE	940	n/a	n/a	0	0	0
3530.602	n/a	WORD	1765301	wordpools/wasnorm_wordpool_576.txt	LTP326	ltpFR2	13	16	DASHBOARD	441	n/a	n/a	0	0	0
3533.204	n/a	WORD	1766602	wordpools/wasnorm_wordpool_576.txt	LTP326	ltpFR2	13	16	RIVER	1194	n/a	n/a	0	0	0
3535.782	n/a	WORD	1767891	wordpools/wasnorm_wordpool_576.txt	LTP326	ltpFR2	13	16	KLEENEX	782	n/a	n/a	0	0	0
3538.594	n/a	WORD	1769297	wordpools/wasnorm_wordpool_576.txt	LTP326	ltpFR2	13	16	FUNGUS	614	n/a	n/a	0	0	0
3541.172	n/a	WORD	1770586	wordpools/wasnorm_wordpool_576.txt	LTP326	ltpFR2	13	16	LETTUCE	814	n/a	n/a	0	0	0
3542.78	n/a	START	1771390	n/a	LTP326	ltpFR2	13	n/a	n/a	n/a	24	n/a	n/a	n/a	n/a
3543.858	n/a	DISTRACTOR	1771929	n/a	LTP326	ltpFR2	13	16	n/a	n/a	n/a	n/a	0	0	0
3543.864	n/a	PROB	1771932	n/a	LTP326	ltpFR2	13	n/a	n/a	n/a	24	24	8	8	8
3545.372	n/a	PROB	1772686	n/a	LTP326	ltpFR2	13	n/a	n/a	n/a	24	22	9	9	4
3548.408	n/a	PROB	1774204	n/a	LTP326	ltpFR2	13	n/a	n/a	n/a	24	8	4	2	2
3550.178	n/a	PROB	1775089	n/a	LTP326	ltpFR2	13	n/a	n/a	n/a	24	21	7	9	5
3560.416	n/a	PROB	1780208	n/a	LTP326	ltpFR2	13	n/a	n/a	n/a	24	8	1	2	5
3561.7	n/a	PROB	1780850	n/a	LTP326	ltpFR2	13	n/a	n/a	n/a	24	10	4	2	4
3563.952	n/a	PROB	1781976	n/a	LTP326	ltpFR2	13	n/a	n/a	n/a	24	19	9	4	6
3565.138	n/a	PROB	1782569	n/a	LTP326	ltpFR2	13	n/a	n/a	n/a	24	12	7	1	5
3566.65	n/a	STOP	1783325	n/a	LTP326	ltpFR2	13	n/a	n/a	n/a	24	n/a	n/a	n/a	n/a
3568.524	n/a	REC_START	1784262	n/a	LTP326	ltpFR2	13	16	n/a	n/a	n/a	n/a	0	0	0
3574.21	n/a	REC_WORD	1787105	wordpools/wasnorm_wordpool_576.txt	LTP326	ltpFR2	13	16	JURY	766	n/a	n/a	0	0	0
3576.096	n/a	REC_WORD	1788048	wordpools/wasnorm_wordpool_576.txt	LTP326	ltpFR2	13	16	PECAN	1036	n/a	n/a	0	0	0
3577.388	n/a	REC_WORD	1788694	wordpools/wasnorm_wordpool_576.txt	LTP326	ltpFR2	13	16	PEANUT	1032	n/a	n/a	0	0	0
3582.072	n/a	REC_WORD	1791036	wordpools/wasnorm_wordpool_576.txt	LTP326	ltpFR2	13	16	CLAMP	316	n/a	n/a	0	0	0
3600.43	n/a	REC_WORD	1800215	wordpools/wasnorm_wordpool_576.txt	LTP326	ltpFR2	13	16	LUGGAGE	847	n/a	n/a	0	0	0
3601.63	n/a	REC_WORD	1800815	wordpools/wasnorm_wordpool_576.txt	LTP326	ltpFR2	13	16	PAIL	1002	n/a	n/a	0	0	0
3645.068	n/a	REST_REWET	1822534	n/a	LTP326	ltpFR2	13	16	n/a	n/a	n/a	n/a	0	0	0
4028.082	n/a	WORD	2014041	wordpools/wasnorm_wordpool_576.txt	LTP326	ltpFR2	13	17	WORLD	1622	n/a	n/a	0	0	0
4030.576	n/a	WORD	2015288	wordpools/wasnorm_wordpool_576.txt	LTP326	ltpFR2	13	17	NIGHTGOWN	953	n/a	n/a	0	0	0
4033.148	n/a	WORD	2016574	wordpools/wasnorm_wordpool_576.txt	LTP326	ltpFR2	13	17	CAMEL	223	n/a	n/a	0	0	0
4035.582	n/a	WORD	2017791	wordpools/wasnorm_wordpool_576.txt	LTP326	ltpFR2	13	17	BANJO	82	n/a	n/a	0	0	0
4038.29	n/a	WORD	2019145	wordpools/wasnorm_wordpool_576.txt	LTP326	ltpFR2	13	17	MOTOR	922	n/a	n/a	0	0	0
4040.76	n/a	WORD	2020380	wordpools/wasnorm_wordpool_576.txt	LTP326	ltpFR2	13	17	DIVER	476	n/a	n/a	0	0	0
4043.438	n/a	WORD	2021719	wordpools/wasnorm_wordpool_576.txt	LTP326	ltpFR2	13	17	MATTRESS	879	n/a	n/a	0	0	0
4046.214	n/a	WORD	2023107	wordpools/wasnorm_wordpool_576.txt	LTP326	ltpFR2	13	17	PASSAGE	1019	n/a	n/a	0	0	0
4048.828	n/a	WORD	2024414	wordpools/wasnorm_wordpool_576.txt	LTP326	ltpFR2	13	17	AIRPLANE	12	n/a	n/a	0	0	0
4051.466	n/a	WORD	2025733	wordpools/wasnorm_wordpool_576.txt	LTP326	ltpFR2	13	17	HAND	683	n/a	n/a	0	0	0
4054.036	n/a	WORD	2027018	wordpools/wasnorm_wordpool_576.txt	LTP326	ltpFR2	13	17	ANKLE	24	n/a	n/a	0	0	0
4056.754	n/a	WORD	2028377	wordpools/wasnorm_wordpool_576.txt	LTP326	ltpFR2	13	17	SCOTCH	1251	n/a	n/a	0	0	0
4059.184	n/a	WORD	2029592	wordpools/wasnorm_wordpool_576.txt	LTP326	ltpFR2	13	17	CRAB	397	n/a	n/a	0	0	0
4061.886	n/a	WORD	2030943	wordpools/wasnorm_wordpool_576.txt	LTP326	ltpFR2	13	17	SUNSET	1408	n/a	n/a	0	0	0
4064.656	n/a	WORD	2032328	wordpools/wasnorm_wordpool_576.txt	LTP326	ltpFR2	13	17	FRAGRANCE	599	n/a	n/a	0	0	0
4067.228	n/a	WORD	2033614	wordpools/wasnorm_wordpool_576.txt	LTP326	ltpFR2	13	17	PERFUME	1049	n/a	n/a	0	0	0
4069.876	n/a	WORD	2034938	wordpools/wasnorm_wordpool_576.txt	LTP326	ltpFR2	13	17	PERCH	1048	n/a	n/a	0	0	0
4072.334	n/a	WORD	2036167	wordpools/wasnorm_wordpool_576.txt	LTP326	ltpFR2	13	17	HORNET	718	n/a	n/a	0	0	0
4075.066	n/a	WORD	2037533	wordpools/wasnorm_wordpool_576.txt	LTP326	ltpFR2	13	17	CLOUD	328	n/a	n/a	0	0	0
4077.668	n/a	WORD	2038834	wordpools/wasnorm_wordpool_576.txt	LTP326	ltpFR2	13	17	TROUT	1511	n/a	n/a	0	0	0
4080.154	n/a	WORD	2040077	wordpools/wasnorm_wordpool_576.txt	LTP326	ltpFR2	13	17	FOX	598	n/a	n/a	0	0	0
4082.822	n/a	WORD	2041411	wordpools/wasnorm_wordpool_576.txt	LTP326	ltpFR2	13	17	BEAVER	109	n/a	n/a	0	0	0
4085.626	n/a	WORD	2042813	wordpools/wasnorm_wordpool_576.txt	LTP326	ltpFR2	13	17	COD	340	n/a	n/a	0	0	0
4088.41	n/a	WORD	2044205	wordpools/wasnorm_wordpool_576.txt	LTP326	ltpFR2	13	17	SCRIBBLE	1256	n/a	n/a	0	0	0
4090.014	n/a	START	2045007	n/a	LTP326	ltpFR2	13	n/a	n/a	n/a	25	n/a	n/a	n/a	n/a
4090.892	n/a	DISTRACTOR	2045446	n/a	LTP326	ltpFR2	13	17	n/a	n/a	n/a	n/a	0	0	0
4090.898	n/a	PROB	2045449	n/a	LTP326	ltpFR2	13	n/a	n/a	n/a	25	21	9	9	3
4094.066	n/a	PROB	2047033	n/a	LTP326	ltpFR2	13	n/a	n/a	n/a	25	17	6	7	4
4095.8	n/a	PROB	2047900	n/a	LTP326	ltpFR2	13	n/a	n/a	n/a	25	16	6	1	9
4097.666	n/a	PROB	2048833	n/a	LTP326	ltpFR2	13	n/a	n/a	n/a	25	13	4	2	7
4099.952	n/a	PROB	2049976	n/a	LTP326	ltpFR2	13	n/a	n/a	n/a	25	17	5	4	8
4101.74	n/a	PROB	2050870	n/a	LTP326	ltpFR2	13	n/a	n/a	n/a	25	24	9	9	6
4105.31	n/a	PROB	2052655	n/a	LTP326	ltpFR2	13	n/a	n/a	n/a	25	12	4	3	5
4106.742	n/a	PROB	2053371	n/a	LTP326	ltpFR2	13	n/a	n/a	n/a	25	10	4	4	2
4108.726	n/a	PROB	2054363	n/a	LTP326	ltpFR2	13	n/a	n/a	n/a	25	16	2	9	5
4110.564	n/a	PROB	2055282	n/a	LTP326	ltpFR2	13	n/a	n/a	n/a	25	2	4	8	8
4112.398	n/a	PROB	2056199	n/a	LTP326	ltpFR2	13	n/a	n/a	n/a	25	19	9	1	9
4113.898	n/a	STOP	2056949	n/a	LTP326	ltpFR2	13	n/a	n/a	n/a	25	n/a	n/a	n/a	n/a
4115.868	n/a	REC_START	2057934	n/a	LTP326	ltpFR2	13	17	n/a	n/a	n/a	n/a	0	0	0
4120.568	n/a	REC_WORD	2060284	wordpools/wasnorm_wordpool_576.txt	LTP326	ltpFR2	13	17	CAMEL	223	n/a	n/a	0	0	0
4122.096	n/a	REC_WORD	2061048	wordpools/wasnorm_wordpool_576.txt	LTP326	ltpFR2	13	17	BEAVER	109	n/a	n/a	0	0	0
4128.824	n/a	REC_WORD	2064412	wordpools/wasnorm_wordpool_576.txt	LTP326	ltpFR2	13	17	MATTRESS	879	n/a	n/a	0	0	0
4131.098	n/a	REC_WORD	2065549	wordpools/wasnorm_wordpool_576.txt	LTP326	ltpFR2	13	17	NIGHTGOWN	953	n/a	n/a	0	0	0
4140.58	n/a	REC_WORD	2070290	wordpools/wasnorm_wordpool_576.txt	LTP326	ltpFR2	13	17	PASSAGE	1019	n/a	n/a	0	0	0
4145.908	n/a	REC_WORD	2072954	wordpools/wasnorm_wordpool_576.txt	LTP326	ltpFR2	13	17	WORKER	1621	n/a	n/a	0	0	0
4206.288	n/a	DISTRACTOR	2103144	n/a	LTP326	ltpFR2	13	18	n/a	n/a	n/a	n/a	0	0	0
4206.288	n/a	START	2103144	n/a	LTP326	ltpFR2	13	n/a	n/a	n/a	26	n/a	n/a	n/a	n/a
4206.302	n/a	PROB	2103151	n/a	LTP326	ltpFR2	13	n/a	n/a	n/a	26	18	4	6	8
4207.74	n/a	PROB	2103870	n/a	LTP326	ltpFR2	13	n/a	n/a	n/a	26	20	7	7	6
4209.84	n/a	PROB	2104920	n/a	LTP326	ltpFR2	13	n/a	n/a	n/a	26	11	4	2	5
4211.542	n/a	PROB	2105771	n/a	LTP326	ltpFR2	13	n/a	n/a	n/a	26	18	4	9	5
4213.66	n/a	PROB	2106830	n/a	LTP326	ltpFR2	13	n/a	n/a	n/a	26	2	3	9	8
4215.194	n/a	PROB	2107597	n/a	LTP326	ltpFR2	13	n/a	n/a	n/a	26	15	3	6	6
4217.462	n/a	PROB	2108731	n/a	LTP326	ltpFR2	13	n/a	n/a	n/a	26	20	5	9	6
4220.114	n/a	PROB	2110057	n/a	LTP326	ltpFR2	13	n/a	n/a	n/a	26	10	4	4	2
4221.8	n/a	PROB	2110900	n/a	LTP326	ltpFR2	13	n/a	n/a	n/a	26	13	4	3	6
4223.566	n/a	PROB	2111783	n/a	LTP326	ltpFR2	13	n/a	n/a	n/a	26	12	1	7	4
4225.468	n/a	PROB	2112734	n/a	LTP326	ltpFR2	13	n/a	n/a	n/a	26	14	7	3	4
4226.668	n/a	PROB	2113334	n/a	LTP326	ltpFR2	13	n/a	n/a	n/a	26	9	1	2	6
4227.952	n/a	PROB	2113976	n/a	LTP326	ltpFR2	13	n/a	n/a	n/a	26	18	7	6	5
4229.884	n/a	STOP	2114942	n/a	LTP326	ltpFR2	13	n/a	n/a	n/a	26	n/a	n/a	n/a	n/a
4231.24	n/a	WORD	2115620	wordpools/wasnorm_wordpool_576.txt	LTP326	ltpFR2	13	18	LAPEL	800	n/a	n/a	0	0	0
4233.682	n/a	WORD	2116841	wordpools/wasnorm_wordpool_576.txt	LTP326	ltpFR2	13	18	JEANS	752	n/a	n/a	0	0	0
4236.344	n/a	WORD	2118172	wordpools/wasnorm_wordpool_576.txt	LTP326	ltpFR2	13	18	SALT	1229	n/a	n/a	0	0	0
4239.122	n/a	WORD	2119561	wordpools/wasnorm_wordpool_576.txt	LTP326	ltpFR2	13	18	FOOT	590	n/a	n/a	0	0	0
4241.74	n/a	WORD	2120870	wordpools/wasnorm_wordpool_576.txt	LTP326	ltpFR2	13	18	ANTLER	29	n/a	n/a	0	0	0
4244.384	n/a	WORD	2122192	wordpools/wasnorm_wordpool_576.txt	LTP326	ltpFR2	13	18	CREATURE	403	n/a	n/a	0	0	0
4247.112	n/a	WORD	2123556	wordpools/wasnorm_wordpool_576.txt	LTP326	ltpFR2	13	18	BREAST	171	n/a	n/a	0	0	0
4249.838	n/a	WORD	2124919	wordpools/wasnorm_wordpool_576.txt	LTP326	ltpFR2	13	18	SNACK	1331	n/a	n/a	0	0	0
4252.342	n/a	WORD	2126171	wordpools/wasnorm_wordpool_576.txt	LTP326	ltpFR2	13	18	CUPBOARD	425	n/a	n/a	0	0	0
4254.958	n/a	WORD	2127479	wordpools/wasnorm_wordpool_576.txt	LTP326	ltpFR2	13	18	CORAL	378	n/a	n/a	0	0	0
4257.46	n/a	WORD	2128730	wordpools/wasnorm_wordpool_576.txt	LTP326	ltpFR2	13	18	MUMMY	932	n/a	n/a	0	0	0
4260.048	n/a	WORD	2130024	wordpools/wasnorm_wordpool_576.txt	LTP326	ltpFR2	13	18	POISON	1096	n/a	n/a	0	0	0
4262.832	n/a	WORD	2131416	wordpools/wasnorm_wordpool_576.txt	LTP326	ltpFR2	13	18	ARM	38	n/a	n/a	0	0	0
4265.31	n/a	WORD	2132655	wordpools/wasnorm_wordpool_576.txt	LTP326	ltpFR2	13	18	ZIPPER	1636	n/a	n/a	0	0	0
4267.818	n/a	WORD	2133909	wordpools/wasnorm_wordpool_576.txt	LTP326	ltpFR2	13	18	CABIN	211	n/a	n/a	0	0	0
4270.346	n/a	WORD	2135173	wordpools/wasnorm_wordpool_576.txt	LTP326	ltpFR2	13	18	SKIRT	1319	n/a	n/a	0	0	0
4273.074	n/a	WORD	2136537	wordpools/wasnorm_wordpool_576.txt	LTP326	ltpFR2	13	18	TRANSPLANT	1496	n/a	n/a	0	0	0
4275.876	n/a	WORD	2137938	wordpools/wasnorm_wordpool_576.txt	LTP326	ltpFR2	13	18	MEAT	883	n/a	n/a	0	0	0
4278.644	n/a	WORD	2139322	wordpools/wasnorm_wordpool_576.txt	LTP326	ltpFR2	13	18	NURSE	963	n/a	n/a	0	0	0
4281.08	n/a	WORD	2140540	wordpools/wasnorm_wordpool_576.txt	LTP326	ltpFR2	13	18	TOMBSTONE	1478	n/a	n/a	0	0	0
4283.866	n/a	WORD	2141933	wordpools/wasnorm_wordpool_576.txt	LTP326	ltpFR2	13	18	SMOG	1330	n/a	n/a	0	0	0
4286.36	n/a	WORD	2143180	wordpools/wasnorm_wordpool_576.txt	LTP326	ltpFR2	13	18	SALAD	1224	n/a	n/a	0	0	0
4288.796	n/a	WORD	2144398	wordpools/wasnorm_wordpool_576.txt	LTP326	ltpFR2	13	18	RADISH	1158	n/a	n/a	0	0	0
4291.488	n/a	WORD	2145744	wordpools/wasnorm_wordpool_576.txt	LTP326	ltpFR2	13	18	SHOVEL	1295	n/a	n/a	0	0	0
4293.102	n/a	START	2146551	n/a	LTP326	ltpFR2	13	n/a	n/a	n/a	27	n/a	n/a	n/a	n/a
4294.076	n/a	DISTRACTOR	2147038	n/a	LTP326	ltpFR2	13	18	n/a	n/a	n/a	n/a	0	0	0
4294.086	n/a	PROB	2147043	n/a	LTP326	ltpFR2	13	n/a	n/a	n/a	27	8	1	4	3
4296.406	n/a	PROB	2148203	n/a	LTP326	ltpFR2	13	n/a	n/a	n/a	27	8	4	3	1
4299.11	n/a	PROB	2149555	n/a	LTP326	ltpFR2	13	n/a	n/a	n/a	27	10	7	1	2
4300.778	n/a	PROB	2150389	n/a	LTP326	ltpFR2	13	n/a	n/a	n/a	27	15	6	3	6
4303.146	n/a	PROB	2151573	n/a	LTP326	ltpFR2	13	n/a	n/a	n/a	27	20	7	4	9
4305.43	n/a	PROB	2152715	n/a	LTP326	ltpFR2	13	n/a	n/a	n/a	27	2	9	9	3
4307.366	n/a	PROB	2153683	n/a	LTP326	ltpFR2	13	n/a	n/a	n/a	27	15	7	5	3
4309.768	n/a	PROB	2154884	n/a	LTP326	ltpFR2	13	n/a	n/a	n/a	27	12	9	1	2
4311.002	n/a	PROB	2155501	n/a	LTP326	ltpFR2	13	n/a	n/a	n/a	27	12	6	3	3
4312.936	n/a	PROB	2156468	n/a	LTP326	ltpFR2	13	n/a	n/a	n/a	27	13	7	3	3
4314.072	n/a	PROB	2157036	n/a	LTP326	ltpFR2	13	n/a	n/a	n/a	27	16	6	8	2
4316.206	n/a	STOP	2158103	n/a	LTP326	ltpFR2	13	n/a	n/a	n/a	27	n/a	n/a	n/a	n/a
4318.978	n/a	REC_START	2159489	n/a	LTP326	ltpFR2	13	18	n/a	n/a	n/a	n/a	0	0	0
