mstime	trial_type	stim_file	subject	experiment	session	trial	item_name	item_num	list	answer	test_x	test_y	test_z
0	SESS_START	n/a	LTP364	ltpFR2	4	n/a	n/a	n/a	n/a	n/a	0	0	0
15197	START	n/a	LTP364	ltpFR2	4	n/a	n/a	n/a	-1	n/a	n/a	n/a	n/a
15227	PROB	n/a	LTP364	ltpFR2	4	n/a	n/a	n/a	-1	16	4	3	9
17276	PROB	n/a	LTP364	ltpFR2	4	n/a	n/a	n/a	-1	19	2	8	9
18658	PROB	n/a	LTP364	ltpFR2	4	n/a	n/a	n/a	-1	16	7	4	5
20325	PROB	n/a	LTP364	ltpFR2	4	n/a	n/a	n/a	-1	12	7	1	3
23856	PROB	n/a	LTP364	ltpFR2	4	n/a	n/a	n/a	-1	18	3	7	8
26866	STOP	n/a	LTP364	ltpFR2	4	n/a	n/a	n/a	-1	n/a	n/a	n/a	n/a
64954	WORD	wordpools/wasnorm_wordpool_576.txt	LTP364	ltpFR2	4	1	PRINCE	1124	n/a	n/a	0	0	0
67503	WORD	wordpools/wasnorm_wordpool_576.txt	LTP364	ltpFR2	4	1	BUTCHER	203	n/a	n/a	0	0	0
70086	WORD	wordpools/wasnorm_wordpool_576.txt	LTP364	ltpFR2	4	1	BROTHER	179	n/a	n/a	0	0	0
72800	WORD	wordpools/wasnorm_wordpool_576.txt	LTP364	ltpFR2	4	1	LIGHTNING	820	n/a	n/a	0	0	0
75267	WORD	wordpools/wasnorm_wordpool_576.txt	LTP364	ltpFR2	4	1	IGLOO	734	n/a	n/a	0	0	0
77931	WORD	wordpools/wasnorm_wordpool_576.txt	LTP364	ltpFR2	4	1	HARP	689	n/a	n/a	0	0	0
80430	WORD	wordpools/wasnorm_wordpool_576.txt	LTP364	ltpFR2	4	1	DANCER	437	n/a	n/a	0	0	0
83080	WORD	wordpools/wasnorm_wordpool_576.txt	LTP364	ltpFR2	4	1	BURGLAR	200	n/a	n/a	0	0	0
85911	WORD	wordpools/wasnorm_wordpool_576.txt	LTP364	ltpFR2	4	1	JELLO	754	n/a	n/a	0	0	0
88560	WORD	wordpools/wasnorm_wordpool_576.txt	LTP364	ltpFR2	4	1	PUDDING	1139	n/a	n/a	0	0	0
91293	WORD	wordpools/wasnorm_wordpool_576.txt	LTP364	ltpFR2	4	1	CHAMPAGNE	278	n/a	n/a	0	0	0
94058	WORD	wordpools/wasnorm_wordpool_576.txt	LTP364	ltpFR2	4	1	CASHEW	253	n/a	n/a	0	0	0
96856	WORD	wordpools/wasnorm_wordpool_576.txt	LTP364	ltpFR2	4	1	CREATURE	403	n/a	n/a	0	0	0
99588	WORD	wordpools/wasnorm_wordpool_576.txt	LTP364	ltpFR2	4	1	FRIEND	606	n/a	n/a	0	0	0
102088	WORD	wordpools/wasnorm_wordpool_576.txt	LTP364	ltpFR2	4	1	CARRIAGE	248	n/a	n/a	0	0	0
104519	WORD	wordpools/wasnorm_wordpool_576.txt	LTP364	ltpFR2	4	1	JEANS	752	n/a	n/a	0	0	0
107102	WORD	wordpools/wasnorm_wordpool_576.txt	LTP364	ltpFR2	4	1	FRAGRANCE	599	n/a	n/a	0	0	0
109933	WORD	wordpools/wasnorm_wordpool_576.txt	LTP364	ltpFR2	4	1	GARLIC	624	n/a	n/a	0	0	0
112549	WORD	wordpools/wasnorm_wordpool_576.txt	LTP364	ltpFR2	4	1	TORTOISE	1486	n/a	n/a	0	0	0
115282	WORD	wordpools/wasnorm_wordpool_576.txt	LTP364	ltpFR2	4	1	DOLPHIN	483	n/a	n/a	0	0	0
117880	WORD	wordpools/wasnorm_wordpool_576.txt	LTP364	ltpFR2	4	1	SIBLING	1301	n/a	n/a	0	0	0
120345	WORD	wordpools/wasnorm_wordpool_576.txt	LTP364	ltpFR2	4	1	BRACES	164	n/a	n/a	0	0	0
123145	WORD	wordpools/wasnorm_wordpool_576.txt	LTP364	ltpFR2	4	1	COUNTRY	388	n/a	n/a	0	0	0
125826	WORD	wordpools/wasnorm_wordpool_576.txt	LTP364	ltpFR2	4	1	ZEBRA	1635	n/a	n/a	0	0	0
127442	START	n/a	LTP364	ltpFR2	4	n/a	n/a	n/a	1	n/a	n/a	n/a	n/a
128515	DISTRACTOR	n/a	LTP364	ltpFR2	4	1	n/a	n/a	n/a	n/a	0	0	0
128542	PROB	n/a	LTP364	ltpFR2	4	n/a	n/a	n/a	1	14	1	9	4
130341	PROB	n/a	LTP364	ltpFR2	4	n/a	n/a	n/a	1	9	6	1	2
133091	PROB	n/a	LTP364	ltpFR2	4	n/a	n/a	n/a	1	14	5	7	2
137022	PROB	n/a	LTP364	ltpFR2	4	n/a	n/a	n/a	1	24	7	9	8
142802	PROB	n/a	LTP364	ltpFR2	4	n/a	n/a	n/a	1	7	1	5	1
144451	PROB	n/a	LTP364	ltpFR2	4	n/a	n/a	n/a	1	7	2	3	2
146367	PROB	n/a	LTP364	ltpFR2	4	n/a	n/a	n/a	1	10	1	6	3
148566	PROB	n/a	LTP364	ltpFR2	4	n/a	n/a	n/a	1	13	8	1	4
150223	STOP	n/a	LTP364	ltpFR2	4	n/a	n/a	n/a	1	n/a	n/a	n/a	n/a
153232	REC_START	n/a	LTP364	ltpFR2	4	1	n/a	n/a	n/a	n/a	0	0	0
155600	REC_WORD	wordpools/wasnorm_wordpool_576.txt	LTP364	ltpFR2	4	1	PRINCE	1124	n/a	n/a	0	0	0
157623	REC_WORD	wordpools/wasnorm_wordpool_576.txt	LTP364	ltpFR2	4	1	BUTCHER	203	n/a	n/a	0	0	0
159705	REC_WORD	wordpools/wasnorm_wordpool_576.txt	LTP364	ltpFR2	4	1	IGLOO	734	n/a	n/a	0	0	0
161717	REC_WORD	wordpools/wasnorm_wordpool_576.txt	LTP364	ltpFR2	4	1	HARP	689	n/a	n/a	0	0	0
162852	REC_WORD	wordpools/wasnorm_wordpool_576.txt	LTP364	ltpFR2	4	1	DANCER	437	n/a	n/a	0	0	0
165381	REC_WORD	wordpools/wasnorm_wordpool_576.txt	LTP364	ltpFR2	4	1	BURGLAR	200	n/a	n/a	0	0	0
166336	REC_WORD	wordpools/wasnorm_wordpool_576.txt	LTP364	ltpFR2	4	1	JELLO	754	n/a	n/a	0	0	0
167450	REC_WORD	wordpools/wasnorm_wordpool_576.txt	LTP364	ltpFR2	4	1	PUDDING	1139	n/a	n/a	0	0	0
168739	REC_WORD	wordpools/wasnorm_wordpool_576.txt	LTP364	ltpFR2	4	1	CHAMPAGNE	278	n/a	n/a	0	0	0
169984	REC_WORD	wordpools/wasnorm_wordpool_576.txt	LTP364	ltpFR2	4	1	PISTACHIO	-1	n/a	n/a	0	0	0
171733	REC_WORD	wordpools/wasnorm_wordpool_576.txt	LTP364	ltpFR2	4	1	LIGHTNING	820	n/a	n/a	0	0	0
172993	REC_WORD	wordpools/wasnorm_wordpool_576.txt	LTP364	ltpFR2	4	1	CARRIAGE	248	n/a	n/a	0	0	0
174088	REC_WORD	wordpools/wasnorm_wordpool_576.txt	LTP364	ltpFR2	4	1	JEANS	752	n/a	n/a	0	0	0
175249	REC_WORD	wordpools/wasnorm_wordpool_576.txt	LTP364	ltpFR2	4	1	FRAGRANCE	599	n/a	n/a	0	0	0
176539	REC_WORD	wordpools/wasnorm_wordpool_576.txt	LTP364	ltpFR2	4	1	GARLIC	624	n/a	n/a	0	0	0
177773	REC_WORD	wordpools/wasnorm_wordpool_576.txt	LTP364	ltpFR2	4	1	SIBLING	1301	n/a	n/a	0	0	0
178997	REC_WORD	wordpools/wasnorm_wordpool_576.txt	LTP364	ltpFR2	4	1	BRACES	164	n/a	n/a	0	0	0
180139	REC_WORD	wordpools/wasnorm_wordpool_576.txt	LTP364	ltpFR2	4	1	TORTOISE	1486	n/a	n/a	0	0	0
182133	REC_WORD	wordpools/wasnorm_wordpool_576.txt	LTP364	ltpFR2	4	1	DOLPHIN	483	n/a	n/a	0	0	0
183491	REC_WORD	wordpools/wasnorm_wordpool_576.txt	LTP364	ltpFR2	4	1	COUNTRY	388	n/a	n/a	0	0	0
243673	DISTRACTOR	n/a	LTP364	ltpFR2	4	2	n/a	n/a	n/a	n/a	0	0	0
243673	START	n/a	LTP364	ltpFR2	4	n/a	n/a	n/a	2	n/a	n/a	n/a	n/a
243690	PROB	n/a	LTP364	ltpFR2	4	n/a	n/a	n/a	2	22	8	4	8
246405	PROB	n/a	LTP364	ltpFR2	4	n/a	n/a	n/a	2	12	8	2	2
248987	PROB	n/a	LTP364	ltpFR2	4	n/a	n/a	n/a	2	13	5	2	6
255252	PROB	n/a	LTP364	ltpFR2	4	n/a	n/a	n/a	2	17	7	8	2
257251	PROB	n/a	LTP364	ltpFR2	4	n/a	n/a	n/a	2	25	9	9	7
260582	PROB	n/a	LTP364	ltpFR2	4	n/a	n/a	n/a	2	19	7	7	5
265197	PROB	n/a	LTP364	ltpFR2	4	n/a	n/a	n/a	2	16	5	6	5
266729	STOP	n/a	LTP364	ltpFR2	4	n/a	n/a	n/a	2	n/a	n/a	n/a	n/a
268562	WORD	wordpools/wasnorm_wordpool_576.txt	LTP364	ltpFR2	4	2	SOFTBALL	1343	n/a	n/a	0	0	0
270994	WORD	wordpools/wasnorm_wordpool_576.txt	LTP364	ltpFR2	4	2	BLENDER	136	n/a	n/a	0	0	0
273459	WORD	wordpools/wasnorm_wordpool_576.txt	LTP364	ltpFR2	4	2	TOMBSTONE	1478	n/a	n/a	0	0	0
275992	WORD	wordpools/wasnorm_wordpool_576.txt	LTP364	ltpFR2	4	2	CLAMP	316	n/a	n/a	0	0	0
278640	WORD	wordpools/wasnorm_wordpool_576.txt	LTP364	ltpFR2	4	2	DIVER	476	n/a	n/a	0	0	0
281439	WORD	wordpools/wasnorm_wordpool_576.txt	LTP364	ltpFR2	4	2	MATCH	878	n/a	n/a	0	0	0
283888	WORD	wordpools/wasnorm_wordpool_576.txt	LTP364	ltpFR2	4	2	CANDY	230	n/a	n/a	0	0	0
286720	WORD	wordpools/wasnorm_wordpool_576.txt	LTP364	ltpFR2	4	2	STICKER	1382	n/a	n/a	0	0	0
289303	WORD	wordpools/wasnorm_wordpool_576.txt	LTP364	ltpFR2	4	2	WIDOW	1608	n/a	n/a	0	0	0
291801	WORD	wordpools/wasnorm_wordpool_576.txt	LTP364	ltpFR2	4	2	VAGRANT	1544	n/a	n/a	0	0	0
294583	WORD	wordpools/wasnorm_wordpool_576.txt	LTP364	ltpFR2	4	2	REPORT	1184	n/a	n/a	0	0	0
297083	WORD	wordpools/wasnorm_wordpool_576.txt	LTP364	ltpFR2	4	2	MISTER	901	n/a	n/a	0	0	0
299664	WORD	wordpools/wasnorm_wordpool_576.txt	LTP364	ltpFR2	4	2	RECEIPT	1173	n/a	n/a	0	0	0
302363	WORD	wordpools/wasnorm_wordpool_576.txt	LTP364	ltpFR2	4	2	FRECKLE	602	n/a	n/a	0	0	0
304978	WORD	wordpools/wasnorm_wordpool_576.txt	LTP364	ltpFR2	4	2	POPCORN	1104	n/a	n/a	0	0	0
307544	WORD	wordpools/wasnorm_wordpool_576.txt	LTP364	ltpFR2	4	2	TROUT	1511	n/a	n/a	0	0	0
310177	WORD	wordpools/wasnorm_wordpool_576.txt	LTP364	ltpFR2	4	2	BLOUSE	139	n/a	n/a	0	0	0
312941	WORD	wordpools/wasnorm_wordpool_576.txt	LTP364	ltpFR2	4	2	SHIRT	1287	n/a	n/a	0	0	0
315440	WORD	wordpools/wasnorm_wordpool_576.txt	LTP364	ltpFR2	4	2	HOSTESS	723	n/a	n/a	0	0	0
318107	WORD	wordpools/wasnorm_wordpool_576.txt	LTP364	ltpFR2	4	2	COSTUME	383	n/a	n/a	0	0	0
320571	WORD	wordpools/wasnorm_wordpool_576.txt	LTP364	ltpFR2	4	2	FOREHEAD	592	n/a	n/a	0	0	0
323138	WORD	wordpools/wasnorm_wordpool_576.txt	LTP364	ltpFR2	4	2	CRITIC	410	n/a	n/a	0	0	0
325636	WORD	wordpools/wasnorm_wordpool_576.txt	LTP364	ltpFR2	4	2	TURNIP	1521	n/a	n/a	0	0	0
328219	WORD	wordpools/wasnorm_wordpool_576.txt	LTP364	ltpFR2	4	2	COOKBOOK	373	n/a	n/a	0	0	0
329834	START	n/a	LTP364	ltpFR2	4	n/a	n/a	n/a	3	n/a	n/a	n/a	n/a
330647	DISTRACTOR	n/a	LTP364	ltpFR2	4	2	n/a	n/a	n/a	n/a	0	0	0
330650	PROB	n/a	LTP364	ltpFR2	4	n/a	n/a	n/a	3	19	8	9	2
332499	PROB	n/a	LTP364	ltpFR2	4	n/a	n/a	n/a	3	24	9	9	6
335149	PROB	n/a	LTP364	ltpFR2	4	n/a	n/a	n/a	3	10	1	3	6
336847	PROB	n/a	LTP364	ltpFR2	4	n/a	n/a	n/a	3	11	3	2	6
340013	PROB	n/a	LTP364	ltpFR2	4	n/a	n/a	n/a	3	10	1	2	7
341678	PROB	n/a	LTP364	ltpFR2	4	n/a	n/a	n/a	3	18	9	6	3
344760	PROB	n/a	LTP364	ltpFR2	4	n/a	n/a	n/a	3	19	9	4	6
347659	PROB	n/a	LTP364	ltpFR2	4	n/a	n/a	n/a	3	16	6	6	4
350276	PROB	n/a	LTP364	ltpFR2	4	n/a	n/a	n/a	3	14	3	9	2
352444	STOP	n/a	LTP364	ltpFR2	4	n/a	n/a	n/a	3	n/a	n/a	n/a	n/a
355706	REC_START	n/a	LTP364	ltpFR2	4	2	n/a	n/a	n/a	n/a	0	0	0
373943	REC_WORD	wordpools/wasnorm_wordpool_576.txt	LTP364	ltpFR2	4	2	DIVER	476	n/a	n/a	0	0	0
376326	REC_WORD	wordpools/wasnorm_wordpool_576.txt	LTP364	ltpFR2	4	2	STICKER	1382	n/a	n/a	0	0	0
378504	REC_WORD	wordpools/wasnorm_wordpool_576.txt	LTP364	ltpFR2	4	2	FRECKLE	602	n/a	n/a	0	0	0
379761	REC_WORD	wordpools/wasnorm_wordpool_576.txt	LTP364	ltpFR2	4	2	POPCORN	1104	n/a	n/a	0	0	0
387383	REC_WORD	wordpools/wasnorm_wordpool_576.txt	LTP364	ltpFR2	4	2	WINDOW	1611	n/a	n/a	0	0	0
389240	REC_WORD	wordpools/wasnorm_wordpool_576.txt	LTP364	ltpFR2	4	2	VAGRANT	1544	n/a	n/a	0	0	0
393458	REC_WORD	wordpools/wasnorm_wordpool_576.txt	LTP364	ltpFR2	4	2	HOSTESS	723	n/a	n/a	0	0	0
394707	REC_WORD	wordpools/wasnorm_wordpool_576.txt	LTP364	ltpFR2	4	2	COSTUME	383	n/a	n/a	0	0	0
396245	REC_WORD	wordpools/wasnorm_wordpool_576.txt	LTP364	ltpFR2	4	2	FOREHEAD	592	n/a	n/a	0	0	0
397738	REC_WORD	wordpools/wasnorm_wordpool_576.txt	LTP364	ltpFR2	4	2	CRITIC	410	n/a	n/a	0	0	0
399912	REC_WORD	wordpools/wasnorm_wordpool_576.txt	LTP364	ltpFR2	4	2	BLOUSE	139	n/a	n/a	0	0	0
400898	REC_WORD	wordpools/wasnorm_wordpool_576.txt	LTP364	ltpFR2	4	2	SHIRT	1287	n/a	n/a	0	0	0
402871	REC_WORD	wordpools/wasnorm_wordpool_576.txt	LTP364	ltpFR2	4	2	COOKBOOK	373	n/a	n/a	0	0	0
403883	REC_WORD	wordpools/wasnorm_wordpool_576.txt	LTP364	ltpFR2	4	2	TURNIP	1521	n/a	n/a	0	0	0
446149	WORD	wordpools/wasnorm_wordpool_576.txt	LTP364	ltpFR2	4	3	BANJO	82	n/a	n/a	0	0	0
448847	WORD	wordpools/wasnorm_wordpool_576.txt	LTP364	ltpFR2	4	3	PICNIC	1060	n/a	n/a	0	0	0
451645	WORD	wordpools/wasnorm_wordpool_576.txt	LTP364	ltpFR2	4	3	CHIPMUNK	304	n/a	n/a	0	0	0
454312	WORD	wordpools/wasnorm_wordpool_576.txt	LTP364	ltpFR2	4	3	POSSUM	1112	n/a	n/a	0	0	0
456976	WORD	wordpools/wasnorm_wordpool_576.txt	LTP364	ltpFR2	4	3	BUGGY	188	n/a	n/a	0	0	0
459575	WORD	wordpools/wasnorm_wordpool_576.txt	LTP364	ltpFR2	4	3	CLOTHES	327	n/a	n/a	0	0	0
462142	WORD	wordpools/wasnorm_wordpool_576.txt	LTP364	ltpFR2	4	3	DRESS	495	n/a	n/a	0	0	0
464689	WORD	wordpools/wasnorm_wordpool_576.txt	LTP364	ltpFR2	4	3	BUBBLE	183	n/a	n/a	0	0	0
467455	WORD	wordpools/wasnorm_wordpool_576.txt	LTP364	ltpFR2	4	3	CABIN	211	n/a	n/a	0	0	0
470021	WORD	wordpools/wasnorm_wordpool_576.txt	LTP364	ltpFR2	4	3	ARM	38	n/a	n/a	0	0	0
472619	WORD	wordpools/wasnorm_wordpool_576.txt	LTP364	ltpFR2	4	3	CAFE	216	n/a	n/a	0	0	0
475435	WORD	wordpools/wasnorm_wordpool_576.txt	LTP364	ltpFR2	4	3	GUITAR	670	n/a	n/a	0	0	0
478134	WORD	wordpools/wasnorm_wordpool_576.txt	LTP364	ltpFR2	4	3	GRAVEL	659	n/a	n/a	0	0	0
480849	WORD	wordpools/wasnorm_wordpool_576.txt	LTP364	ltpFR2	4	3	ANTLER	29	n/a	n/a	0	0	0
483581	WORD	wordpools/wasnorm_wordpool_576.txt	LTP364	ltpFR2	4	3	MARINE	869	n/a	n/a	0	0	0
486281	WORD	wordpools/wasnorm_wordpool_576.txt	LTP364	ltpFR2	4	3	MAMMAL	861	n/a	n/a	0	0	0
488862	WORD	wordpools/wasnorm_wordpool_576.txt	LTP364	ltpFR2	4	3	FOREST	593	n/a	n/a	0	0	0
491461	WORD	wordpools/wasnorm_wordpool_576.txt	LTP364	ltpFR2	4	3	MARKET	871	n/a	n/a	0	0	0
494094	WORD	wordpools/wasnorm_wordpool_576.txt	LTP364	ltpFR2	4	3	SLIME	1327	n/a	n/a	0	0	0
496525	WORD	wordpools/wasnorm_wordpool_576.txt	LTP364	ltpFR2	4	3	BOARD	143	n/a	n/a	0	0	0
499275	WORD	wordpools/wasnorm_wordpool_576.txt	LTP364	ltpFR2	4	3	SISTER	1312	n/a	n/a	0	0	0
502074	WORD	wordpools/wasnorm_wordpool_576.txt	LTP364	ltpFR2	4	3	MASK	876	n/a	n/a	0	0	0
504788	WORD	wordpools/wasnorm_wordpool_576.txt	LTP364	ltpFR2	4	3	REBEL	1172	n/a	n/a	0	0	0
507570	WORD	wordpools/wasnorm_wordpool_576.txt	LTP364	ltpFR2	4	3	BUG	187	n/a	n/a	0	0	0
509187	START	n/a	LTP364	ltpFR2	4	n/a	n/a	n/a	4	n/a	n/a	n/a	n/a
510060	DISTRACTOR	n/a	LTP364	ltpFR2	4	3	n/a	n/a	n/a	n/a	0	0	0
510070	PROB	n/a	LTP364	ltpFR2	4	n/a	n/a	n/a	4	14	7	3	4
512967	PROB	n/a	LTP364	ltpFR2	4	n/a	n/a	n/a	4	15	9	5	1
515916	PROB	n/a	LTP364	ltpFR2	4	n/a	n/a	n/a	4	9	1	6	2
517749	PROB	n/a	LTP364	ltpFR2	4	n/a	n/a	n/a	4	11	1	3	7
519331	PROB	n/a	LTP364	ltpFR2	4	n/a	n/a	n/a	4	10	2	2	6
520914	PROB	n/a	LTP364	ltpFR2	4	n/a	n/a	n/a	4	11	6	3	2
522930	PROB	n/a	LTP364	ltpFR2	4	n/a	n/a	n/a	4	11	2	5	4
525012	PROB	n/a	LTP364	ltpFR2	4	n/a	n/a	n/a	4	15	8	6	1
527212	PROB	n/a	LTP364	ltpFR2	4	n/a	n/a	n/a	4	11	4	6	1
529044	PROB	n/a	LTP364	ltpFR2	4	n/a	n/a	n/a	4	9	1	2	6
530510	PROB	n/a	LTP364	ltpFR2	4	n/a	n/a	n/a	4	17	8	3	6
533114	STOP	n/a	LTP364	ltpFR2	4	n/a	n/a	n/a	4	n/a	n/a	n/a	n/a
534958	REC_START	n/a	LTP364	ltpFR2	4	3	n/a	n/a	n/a	n/a	0	0	0
539513	REC_WORD	wordpools/wasnorm_wordpool_576.txt	LTP364	ltpFR2	4	3	BANJO	82	n/a	n/a	0	0	0
541028	REC_WORD	wordpools/wasnorm_wordpool_576.txt	LTP364	ltpFR2	4	3	PICNIC	1060	n/a	n/a	0	0	0
549098	REC_WORD	wordpools/wasnorm_wordpool_576.txt	LTP364	ltpFR2	4	3	CHIPMUNK	304	n/a	n/a	0	0	0
550695	REC_WORD	wordpools/wasnorm_wordpool_576.txt	LTP364	ltpFR2	4	3	POSSUM	1112	n/a	n/a	0	0	0
553373	REC_WORD	wordpools/wasnorm_wordpool_576.txt	LTP364	ltpFR2	4	3	BUGGY	188	n/a	n/a	0	0	0
556520	REC_WORD	wordpools/wasnorm_wordpool_576.txt	LTP364	ltpFR2	4	3	BUBBLE	183	n/a	n/a	0	0	0
557668	REC_WORD	wordpools/wasnorm_wordpool_576.txt	LTP364	ltpFR2	4	3	ARM	38	n/a	n/a	0	0	0
560719	REC_WORD	wordpools/wasnorm_wordpool_576.txt	LTP364	ltpFR2	4	3	CABIN	211	n/a	n/a	0	0	0
568987	REC_WORD	wordpools/wasnorm_wordpool_576.txt	LTP364	ltpFR2	4	3	FOREST	593	n/a	n/a	0	0	0
570104	REC_WORD	wordpools/wasnorm_wordpool_576.txt	LTP364	ltpFR2	4	3	MARKET	871	n/a	n/a	0	0	0
571208	REC_WORD	wordpools/wasnorm_wordpool_576.txt	LTP364	ltpFR2	4	3	SLIME	1327	n/a	n/a	0	0	0
573200	REC_WORD	wordpools/wasnorm_wordpool_576.txt	LTP364	ltpFR2	4	3	GRAVEL	659	n/a	n/a	0	0	0
574053	REC_WORD	wordpools/wasnorm_wordpool_576.txt	LTP364	ltpFR2	4	3	GUITAR	670	n/a	n/a	0	0	0
575044	REC_WORD	wordpools/wasnorm_wordpool_576.txt	LTP364	ltpFR2	4	3	CAFE	216	n/a	n/a	0	0	0
580628	REC_WORD	wordpools/wasnorm_wordpool_576.txt	LTP364	ltpFR2	4	3	SISTER	1312	n/a	n/a	0	0	0
582354	REC_WORD	wordpools/wasnorm_wordpool_576.txt	LTP364	ltpFR2	4	3	MASK	876	n/a	n/a	0	0	0
583527	REC_WORD	wordpools/wasnorm_wordpool_576.txt	LTP364	ltpFR2	4	3	REBEL	1172	n/a	n/a	0	0	0
585343	REC_WORD	wordpools/wasnorm_wordpool_576.txt	LTP364	ltpFR2	4	3	BUG	187	n/a	n/a	0	0	0
605438	REC_WORD	wordpools/wasnorm_wordpool_576.txt	LTP364	ltpFR2	4	3	BOARD	143	n/a	n/a	0	0	0
625383	DISTRACTOR	n/a	LTP364	ltpFR2	4	4	n/a	n/a	n/a	n/a	0	0	0
625383	START	n/a	LTP364	ltpFR2	4	n/a	n/a	n/a	5	n/a	n/a	n/a	n/a
625400	PROB	n/a	LTP364	ltpFR2	4	n/a	n/a	n/a	5	16	7	6	3
627532	PROB	n/a	LTP364	ltpFR2	4	n/a	n/a	n/a	5	13	8	3	2
629332	PROB	n/a	LTP364	ltpFR2	4	n/a	n/a	n/a	5	22	8	7	7
633097	PROB	n/a	LTP364	ltpFR2	4	n/a	n/a	n/a	5	12	2	3	7
634962	PROB	n/a	LTP364	ltpFR2	4	n/a	n/a	n/a	5	15	2	5	8
637444	PROB	n/a	LTP364	ltpFR2	4	n/a	n/a	n/a	5	14	2	4	8
639360	PROB	n/a	LTP364	ltpFR2	4	n/a	n/a	n/a	5	10	5	3	2
641876	PROB	n/a	LTP364	ltpFR2	4	n/a	n/a	n/a	5	24	9	6	9
645008	PROB	n/a	LTP364	ltpFR2	4	n/a	n/a	n/a	5	7	1	4	2
646707	PROB	n/a	LTP364	ltpFR2	4	n/a	n/a	n/a	5	14	1	7	6
648685	STOP	n/a	LTP364	ltpFR2	4	n/a	n/a	n/a	5	n/a	n/a	n/a	n/a
650389	WORD	wordpools/wasnorm_wordpool_576.txt	LTP364	ltpFR2	4	4	SUPPER	1411	n/a	n/a	0	0	0
653088	WORD	wordpools/wasnorm_wordpool_576.txt	LTP364	ltpFR2	4	4	LILY	821	n/a	n/a	0	0	0
655736	WORD	wordpools/wasnorm_wordpool_576.txt	LTP364	ltpFR2	4	4	QUAIL	1147	n/a	n/a	0	0	0
658335	WORD	wordpools/wasnorm_wordpool_576.txt	LTP364	ltpFR2	4	4	PENGUIN	1044	n/a	n/a	0	0	0
661118	WORD	wordpools/wasnorm_wordpool_576.txt	LTP364	ltpFR2	4	4	RABBIT	1152	n/a	n/a	0	0	0
663616	WORD	wordpools/wasnorm_wordpool_576.txt	LTP364	ltpFR2	4	4	ZIPPER	1636	n/a	n/a	0	0	0
666282	WORD	wordpools/wasnorm_wordpool_576.txt	LTP364	ltpFR2	4	4	POCKET	1093	n/a	n/a	0	0	0
668914	WORD	wordpools/wasnorm_wordpool_576.txt	LTP364	ltpFR2	4	4	NAPKIN	937	n/a	n/a	0	0	0
671379	WORD	wordpools/wasnorm_wordpool_576.txt	LTP364	ltpFR2	4	4	TROMBONE	1508	n/a	n/a	0	0	0
674146	WORD	wordpools/wasnorm_wordpool_576.txt	LTP364	ltpFR2	4	4	KITCHEN	778	n/a	n/a	0	0	0
676610	WORD	wordpools/wasnorm_wordpool_576.txt	LTP364	ltpFR2	4	4	ATLAS	53	n/a	n/a	0	0	0
679227	WORD	wordpools/wasnorm_wordpool_576.txt	LTP364	ltpFR2	4	4	PASTA	1021	n/a	n/a	0	0	0
681741	WORD	wordpools/wasnorm_wordpool_576.txt	LTP364	ltpFR2	4	4	TURTLE	1522	n/a	n/a	0	0	0
684540	WORD	wordpools/wasnorm_wordpool_576.txt	LTP364	ltpFR2	4	4	CRUTCH	417	n/a	n/a	0	0	0
687306	WORD	wordpools/wasnorm_wordpool_576.txt	LTP364	ltpFR2	4	4	SNACK	1331	n/a	n/a	0	0	0
689771	WORD	wordpools/wasnorm_wordpool_576.txt	LTP364	ltpFR2	4	4	CURTAIN	427	n/a	n/a	0	0	0
692370	WORD	wordpools/wasnorm_wordpool_576.txt	LTP364	ltpFR2	4	4	PASSAGE	1019	n/a	n/a	0	0	0
695019	WORD	wordpools/wasnorm_wordpool_576.txt	LTP364	ltpFR2	4	4	DRAWING	494	n/a	n/a	0	0	0
697717	WORD	wordpools/wasnorm_wordpool_576.txt	LTP364	ltpFR2	4	4	SKIRT	1319	n/a	n/a	0	0	0
700383	WORD	wordpools/wasnorm_wordpool_576.txt	LTP364	ltpFR2	4	4	NECKLACE	940	n/a	n/a	0	0	0
703099	WORD	wordpools/wasnorm_wordpool_576.txt	LTP364	ltpFR2	4	4	DRILL	497	n/a	n/a	0	0	0
705580	WORD	wordpools/wasnorm_wordpool_576.txt	LTP364	ltpFR2	4	4	STATUE	1374	n/a	n/a	0	0	0
708180	WORD	wordpools/wasnorm_wordpool_576.txt	LTP364	ltpFR2	4	4	POWDER	1117	n/a	n/a	0	0	0
710928	WORD	wordpools/wasnorm_wordpool_576.txt	LTP364	ltpFR2	4	4	GUARD	667	n/a	n/a	0	0	0
712544	START	n/a	LTP364	ltpFR2	4	n/a	n/a	n/a	6	n/a	n/a	n/a	n/a
713554	DISTRACTOR	n/a	LTP364	ltpFR2	4	4	n/a	n/a	n/a	n/a	0	0	0
713560	PROB	n/a	LTP364	ltpFR2	4	n/a	n/a	n/a	6	12	2	3	7
715459	PROB	n/a	LTP364	ltpFR2	4	n/a	n/a	n/a	6	15	2	8	5
716958	PROB	n/a	LTP364	ltpFR2	4	n/a	n/a	n/a	6	18	7	9	2
719208	PROB	n/a	LTP364	ltpFR2	4	n/a	n/a	n/a	6	13	8	1	4
721291	PROB	n/a	LTP364	ltpFR2	4	n/a	n/a	n/a	6	9	1	6	2
723456	PROB	n/a	LTP364	ltpFR2	4	n/a	n/a	n/a	6	16	4	3	9
725272	PROB	n/a	LTP364	ltpFR2	4	n/a	n/a	n/a	6	8	1	3	4
726804	PROB	n/a	LTP364	ltpFR2	4	n/a	n/a	n/a	6	20	4	9	7
730519	PROB	n/a	LTP364	ltpFR2	4	n/a	n/a	n/a	6	19	6	4	9
732269	PROB	n/a	LTP364	ltpFR2	4	n/a	n/a	n/a	6	14	2	4	6
736544	STOP	n/a	LTP364	ltpFR2	4	n/a	n/a	n/a	6	n/a	n/a	n/a	n/a
738466	REC_START	n/a	LTP364	ltpFR2	4	4	n/a	n/a	n/a	n/a	0	0	0
742729	REC_WORD	wordpools/wasnorm_wordpool_576.txt	LTP364	ltpFR2	4	4	SUPPER	1411	n/a	n/a	0	0	0
749747	REC_WORD	wordpools/wasnorm_wordpool_576.txt	LTP364	ltpFR2	4	4	QUAIL	1147	n/a	n/a	0	0	0
751269	REC_WORD	wordpools/wasnorm_wordpool_576.txt	LTP364	ltpFR2	4	4	RABBIT	1152	n/a	n/a	0	0	0
756353	REC_WORD	wordpools/wasnorm_wordpool_576.txt	LTP364	ltpFR2	4	4	TORTOISE	1486	n/a	n/a	0	0	0
757391	REC_WORD	wordpools/wasnorm_wordpool_576.txt	LTP364	ltpFR2	4	4	SNACK	1331	n/a	n/a	0	0	0
758666	REC_WORD	wordpools/wasnorm_wordpool_576.txt	LTP364	ltpFR2	4	4	CURTAIN	427	n/a	n/a	0	0	0
760251	REC_WORD	wordpools/wasnorm_wordpool_576.txt	LTP364	ltpFR2	4	4	DRAWING	494	n/a	n/a	0	0	0
761679	REC_WORD	wordpools/wasnorm_wordpool_576.txt	LTP364	ltpFR2	4	4	SKIRT	1319	n/a	n/a	0	0	0
762859	REC_WORD	wordpools/wasnorm_wordpool_576.txt	LTP364	ltpFR2	4	4	NECKLACE	940	n/a	n/a	0	0	0
764161	REC_WORD	wordpools/wasnorm_wordpool_576.txt	LTP364	ltpFR2	4	4	DRILL	497	n/a	n/a	0	0	0
765443	REC_WORD	wordpools/wasnorm_wordpool_576.txt	LTP364	ltpFR2	4	4	KITCHEN	778	n/a	n/a	0	0	0
767677	REC_WORD	wordpools/wasnorm_wordpool_576.txt	LTP364	ltpFR2	4	4	STATUE	1374	n/a	n/a	0	0	0
769497	REC_WORD	wordpools/wasnorm_wordpool_576.txt	LTP364	ltpFR2	4	4	POWDER	1117	n/a	n/a	0	0	0
771613	REC_WORD	wordpools/wasnorm_wordpool_576.txt	LTP364	ltpFR2	4	4	ATLAS	53	n/a	n/a	0	0	0
772827	REC_WORD	wordpools/wasnorm_wordpool_576.txt	LTP364	ltpFR2	4	4	PASTA	1021	n/a	n/a	0	0	0
775472	REC_WORD	wordpools/wasnorm_wordpool_576.txt	LTP364	ltpFR2	4	4	GUARD	667	n/a	n/a	0	0	0
781762	REC_WORD	wordpools/wasnorm_wordpool_576.txt	LTP364	ltpFR2	4	4	ZIPPER	1636	n/a	n/a	0	0	0
782744	REC_WORD	wordpools/wasnorm_wordpool_576.txt	LTP364	ltpFR2	4	4	POCKET	1093	n/a	n/a	0	0	0
791206	REC_WORD	wordpools/wasnorm_wordpool_576.txt	LTP364	ltpFR2	4	4	LILY	821	n/a	n/a	0	0	0
828908	WORD	wordpools/wasnorm_wordpool_576.txt	LTP364	ltpFR2	4	5	HOOK	715	n/a	n/a	0	0	0
831707	WORD	wordpools/wasnorm_wordpool_576.txt	LTP364	ltpFR2	4	5	GRAPE	654	n/a	n/a	0	0	0
834405	WORD	wordpools/wasnorm_wordpool_576.txt	LTP364	ltpFR2	4	5	WAITRESS	1581	n/a	n/a	0	0	0
837205	WORD	wordpools/wasnorm_wordpool_576.txt	LTP364	ltpFR2	4	5	BADGE	68	n/a	n/a	0	0	0
839670	WORD	wordpools/wasnorm_wordpool_576.txt	LTP364	ltpFR2	4	5	PERFUME	1049	n/a	n/a	0	0	0
842452	WORD	wordpools/wasnorm_wordpool_576.txt	LTP364	ltpFR2	4	5	LAPEL	800	n/a	n/a	0	0	0
844884	WORD	wordpools/wasnorm_wordpool_576.txt	LTP364	ltpFR2	4	5	PATIENT	1024	n/a	n/a	0	0	0
847666	WORD	wordpools/wasnorm_wordpool_576.txt	LTP364	ltpFR2	4	5	BANKER	84	n/a	n/a	0	0	0
850299	WORD	wordpools/wasnorm_wordpool_576.txt	LTP364	ltpFR2	4	5	BINDER	127	n/a	n/a	0	0	0
852947	WORD	wordpools/wasnorm_wordpool_576.txt	LTP364	ltpFR2	4	5	GHETTO	633	n/a	n/a	0	0	0
855396	WORD	wordpools/wasnorm_wordpool_576.txt	LTP364	ltpFR2	4	5	TABLE	1426	n/a	n/a	0	0	0
858145	WORD	wordpools/wasnorm_wordpool_576.txt	LTP364	ltpFR2	4	5	WAGON	1578	n/a	n/a	0	0	0
860760	WORD	wordpools/wasnorm_wordpool_576.txt	LTP364	ltpFR2	4	5	NOTEBOOK	959	n/a	n/a	0	0	0
863310	WORD	wordpools/wasnorm_wordpool_576.txt	LTP364	ltpFR2	4	5	PEACH	1031	n/a	n/a	0	0	0
865908	WORD	wordpools/wasnorm_wordpool_576.txt	LTP364	ltpFR2	4	5	CABBAGE	210	n/a	n/a	0	0	0
868407	WORD	wordpools/wasnorm_wordpool_576.txt	LTP364	ltpFR2	4	5	OUTFIT	988	n/a	n/a	0	0	0
870989	WORD	wordpools/wasnorm_wordpool_576.txt	LTP364	ltpFR2	4	5	HAMPER	682	n/a	n/a	0	0	0
873621	WORD	wordpools/wasnorm_wordpool_576.txt	LTP364	ltpFR2	4	5	WARDROBE	1587	n/a	n/a	0	0	0
876237	WORD	wordpools/wasnorm_wordpool_576.txt	LTP364	ltpFR2	4	5	ONION	977	n/a	n/a	0	0	0
878735	WORD	wordpools/wasnorm_wordpool_576.txt	LTP364	ltpFR2	4	5	SCRIBBLE	1256	n/a	n/a	0	0	0
881168	WORD	wordpools/wasnorm_wordpool_576.txt	LTP364	ltpFR2	4	5	PAPER	1011	n/a	n/a	0	0	0
883933	WORD	wordpools/wasnorm_wordpool_576.txt	LTP364	ltpFR2	4	5	PANTHER	1009	n/a	n/a	0	0	0
886682	WORD	wordpools/wasnorm_wordpool_576.txt	LTP364	ltpFR2	4	5	COLONEL	348	n/a	n/a	0	0	0
889198	WORD	wordpools/wasnorm_wordpool_576.txt	LTP364	ltpFR2	4	5	PEDAL	1037	n/a	n/a	0	0	0
890813	START	n/a	LTP364	ltpFR2	4	n/a	n/a	n/a	7	n/a	n/a	n/a	n/a
891762	DISTRACTOR	n/a	LTP364	ltpFR2	4	5	n/a	n/a	n/a	n/a	0	0	0
891779	PROB	n/a	LTP364	ltpFR2	4	n/a	n/a	n/a	7	12	1	4	7
894012	PROB	n/a	LTP364	ltpFR2	4	n/a	n/a	n/a	7	8	2	3	3
896062	PROB	n/a	LTP364	ltpFR2	4	n/a	n/a	n/a	7	11	2	3	6
898809	PROB	n/a	LTP364	ltpFR2	4	n/a	n/a	n/a	7	9	5	2	2
900692	PROB	n/a	LTP364	ltpFR2	4	n/a	n/a	n/a	7	16	2	6	8
902491	PROB	n/a	LTP364	ltpFR2	4	n/a	n/a	n/a	7	7	3	1	3
904291	PROB	n/a	LTP364	ltpFR2	4	n/a	n/a	n/a	7	17	5	7	5
906040	PROB	n/a	LTP364	ltpFR2	4	n/a	n/a	n/a	7	14	4	6	4
907555	PROB	n/a	LTP364	ltpFR2	4	n/a	n/a	n/a	7	17	4	9	4
910172	PROB	n/a	LTP364	ltpFR2	4	n/a	n/a	n/a	7	15	9	4	2
912221	PROB	n/a	LTP364	ltpFR2	4	n/a	n/a	n/a	7	9	4	1	4
914413	STOP	n/a	LTP364	ltpFR2	4	n/a	n/a	n/a	7	n/a	n/a	n/a	n/a
916752	REC_START	n/a	LTP364	ltpFR2	4	5	n/a	n/a	n/a	n/a	0	0	0
926358	REC_WORD	wordpools/wasnorm_wordpool_576.txt	LTP364	ltpFR2	4	5	HOOK	715	n/a	n/a	0	0	0
927586	REC_WORD	wordpools/wasnorm_wordpool_576.txt	LTP364	ltpFR2	4	5	GRAPE	654	n/a	n/a	0	0	0
929107	REC_WORD	wordpools/wasnorm_wordpool_576.txt	LTP364	ltpFR2	4	5	WAITRESS	1581	n/a	n/a	0	0	0
930648	REC_WORD	wordpools/wasnorm_wordpool_576.txt	LTP364	ltpFR2	4	5	PATIENT	1024	n/a	n/a	0	0	0
941299	REC_WORD	wordpools/wasnorm_wordpool_576.txt	LTP364	ltpFR2	4	5	BANKER	84	n/a	n/a	0	0	0
943210	REC_WORD	wordpools/wasnorm_wordpool_576.txt	LTP364	ltpFR2	4	5	BINDER	127	n/a	n/a	0	0	0
944427	REC_WORD	wordpools/wasnorm_wordpool_576.txt	LTP364	ltpFR2	4	5	TABLE	1426	n/a	n/a	0	0	0
945728	REC_WORD	wordpools/wasnorm_wordpool_576.txt	LTP364	ltpFR2	4	5	GHETTO	633	n/a	n/a	0	0	0
948358	REC_WORD	wordpools/wasnorm_wordpool_576.txt	LTP364	ltpFR2	4	5	WAGON	1578	n/a	n/a	0	0	0
949585	REC_WORD	wordpools/wasnorm_wordpool_576.txt	LTP364	ltpFR2	4	5	NOTEBOOK	959	n/a	n/a	0	0	0
951420	REC_WORD	wordpools/wasnorm_wordpool_576.txt	LTP364	ltpFR2	4	5	PEACH	1031	n/a	n/a	0	0	0
953249	REC_WORD	wordpools/wasnorm_wordpool_576.txt	LTP364	ltpFR2	4	5	CABBAGE	210	n/a	n/a	0	0	0
955412	REC_WORD	wordpools/wasnorm_wordpool_576.txt	LTP364	ltpFR2	4	5	OUTFIT	988	n/a	n/a	0	0	0
958530	REC_WORD	wordpools/wasnorm_wordpool_576.txt	LTP364	ltpFR2	4	5	HAMPER	682	n/a	n/a	0	0	0
960405	REC_WORD	wordpools/wasnorm_wordpool_576.txt	LTP364	ltpFR2	4	5	WARDROBE	1587	n/a	n/a	0	0	0
962986	REC_WORD	wordpools/wasnorm_wordpool_576.txt	LTP364	ltpFR2	4	5	ONION	977	n/a	n/a	0	0	0
966026	REC_WORD	wordpools/wasnorm_wordpool_576.txt	LTP364	ltpFR2	4	5	SCRIBBLE	1256	n/a	n/a	0	0	0
972644	REC_WORD	wordpools/wasnorm_wordpool_576.txt	LTP364	ltpFR2	4	5	PAPER	1011	n/a	n/a	0	0	0
973677	REC_WORD	wordpools/wasnorm_wordpool_576.txt	LTP364	ltpFR2	4	5	PANTHER	1009	n/a	n/a	0	0	0
975066	REC_WORD	wordpools/wasnorm_wordpool_576.txt	LTP364	ltpFR2	4	5	COLONEL	348	n/a	n/a	0	0	0
1007178	DISTRACTOR	n/a	LTP364	ltpFR2	4	6	n/a	n/a	n/a	n/a	0	0	0
1007178	START	n/a	LTP364	ltpFR2	4	n/a	n/a	n/a	8	n/a	n/a	n/a	n/a
1007195	PROB	n/a	LTP364	ltpFR2	4	n/a	n/a	n/a	8	19	3	9	7
1008943	PROB	n/a	LTP364	ltpFR2	4	n/a	n/a	n/a	8	16	7	8	1
1011408	PROB	n/a	LTP364	ltpFR2	4	n/a	n/a	n/a	8	9	3	2	4
1013424	PROB	n/a	LTP364	ltpFR2	4	n/a	n/a	n/a	8	19	6	8	5
1017240	PROB	n/a	LTP364	ltpFR2	4	n/a	n/a	n/a	8	5	1	3	1
1018605	PROB	n/a	LTP364	ltpFR2	4	n/a	n/a	n/a	8	12	3	6	3
1020688	PROB	n/a	LTP364	ltpFR2	4	n/a	n/a	n/a	8	22	8	9	5
1026802	PROB	n/a	LTP364	ltpFR2	4	n/a	n/a	n/a	8	9	1	6	2
1028401	PROB	n/a	LTP364	ltpFR2	4	n/a	n/a	n/a	8	21	8	4	9
1031146	STOP	n/a	LTP364	ltpFR2	4	n/a	n/a	n/a	8	n/a	n/a	n/a	n/a
1032250	WORD	wordpools/wasnorm_wordpool_576.txt	LTP364	ltpFR2	4	6	SHOULDER	1294	n/a	n/a	0	0	0
1034731	WORD	wordpools/wasnorm_wordpool_576.txt	LTP364	ltpFR2	4	6	CHEMIST	292	n/a	n/a	0	0	0
1037513	WORD	wordpools/wasnorm_wordpool_576.txt	LTP364	ltpFR2	4	6	STAPLE	1371	n/a	n/a	0	0	0
1039995	WORD	wordpools/wasnorm_wordpool_576.txt	LTP364	ltpFR2	4	6	BEAVER	109	n/a	n/a	0	0	0
1042728	WORD	wordpools/wasnorm_wordpool_576.txt	LTP364	ltpFR2	4	6	VENUS	1557	n/a	n/a	0	0	0
1045161	WORD	wordpools/wasnorm_wordpool_576.txt	LTP364	ltpFR2	4	6	FRIAR	605	n/a	n/a	0	0	0
1047775	WORD	wordpools/wasnorm_wordpool_576.txt	LTP364	ltpFR2	4	6	CHAPEL	280	n/a	n/a	0	0	0
1050457	WORD	wordpools/wasnorm_wordpool_576.txt	LTP364	ltpFR2	4	6	SAUSAGE	1238	n/a	n/a	0	0	0
1053207	WORD	wordpools/wasnorm_wordpool_576.txt	LTP364	ltpFR2	4	6	RIFLE	1192	n/a	n/a	0	0	0
1055688	WORD	wordpools/wasnorm_wordpool_576.txt	LTP364	ltpFR2	4	6	GANGSTER	620	n/a	n/a	0	0	0
1058272	WORD	wordpools/wasnorm_wordpool_576.txt	LTP364	ltpFR2	4	6	CRAYON	401	n/a	n/a	0	0	0
1061020	WORD	wordpools/wasnorm_wordpool_576.txt	LTP364	ltpFR2	4	6	ROBIN	1199	n/a	n/a	0	0	0
1063535	WORD	wordpools/wasnorm_wordpool_576.txt	LTP364	ltpFR2	4	6	JELLY	755	n/a	n/a	0	0	0
1066301	WORD	wordpools/wasnorm_wordpool_576.txt	LTP364	ltpFR2	4	6	QUEEN	1149	n/a	n/a	0	0	0
1068799	WORD	wordpools/wasnorm_wordpool_576.txt	LTP364	ltpFR2	4	6	BODY	145	n/a	n/a	0	0	0
1071415	WORD	wordpools/wasnorm_wordpool_576.txt	LTP364	ltpFR2	4	6	FUNGUS	614	n/a	n/a	0	0	0
1074031	WORD	wordpools/wasnorm_wordpool_576.txt	LTP364	ltpFR2	4	6	SWAMP	1416	n/a	n/a	0	0	0
1076546	WORD	wordpools/wasnorm_wordpool_576.txt	LTP364	ltpFR2	4	6	VALLEY	1545	n/a	n/a	0	0	0
1079045	WORD	wordpools/wasnorm_wordpool_576.txt	LTP364	ltpFR2	4	6	PALACE	1006	n/a	n/a	0	0	0
1081627	WORD	wordpools/wasnorm_wordpool_576.txt	LTP364	ltpFR2	4	6	RECORD	1176	n/a	n/a	0	0	0
1084210	WORD	wordpools/wasnorm_wordpool_576.txt	LTP364	ltpFR2	4	6	GIFT	635	n/a	n/a	0	0	0
1086858	WORD	wordpools/wasnorm_wordpool_576.txt	LTP364	ltpFR2	4	6	PATROL	1027	n/a	n/a	0	0	0
1089656	WORD	wordpools/wasnorm_wordpool_576.txt	LTP364	ltpFR2	4	6	BACON	67	n/a	n/a	0	0	0
1092405	WORD	wordpools/wasnorm_wordpool_576.txt	LTP364	ltpFR2	4	6	FINGER	567	n/a	n/a	0	0	0
1094022	START	n/a	LTP364	ltpFR2	4	n/a	n/a	n/a	9	n/a	n/a	n/a	n/a
1095052	DISTRACTOR	n/a	LTP364	ltpFR2	4	6	n/a	n/a	n/a	n/a	0	0	0
1095055	PROB	n/a	LTP364	ltpFR2	4	n/a	n/a	n/a	9	18	6	4	8
1097271	PROB	n/a	LTP364	ltpFR2	4	n/a	n/a	n/a	9	17	3	8	6
1101152	PROB	n/a	LTP364	ltpFR2	4	n/a	n/a	n/a	9	23	7	9	7
1103700	PROB	n/a	LTP364	ltpFR2	4	n/a	n/a	n/a	9	15	7	7	1
1106815	PROB	n/a	LTP364	ltpFR2	4	n/a	n/a	n/a	9	13	3	6	4
1108564	PROB	n/a	LTP364	ltpFR2	4	n/a	n/a	n/a	9	26	8	9	9
1112563	PROB	n/a	LTP364	ltpFR2	4	n/a	n/a	n/a	9	13	7	1	5
1115445	PROB	n/a	LTP364	ltpFR2	4	n/a	n/a	n/a	9	13	1	7	5
1117411	STOP	n/a	LTP364	ltpFR2	4	n/a	n/a	n/a	9	n/a	n/a	n/a	n/a
1119793	REC_START	n/a	LTP364	ltpFR2	4	6	n/a	n/a	n/a	n/a	0	0	0
1129016	REC_WORD	wordpools/wasnorm_wordpool_576.txt	LTP364	ltpFR2	4	6	SHOULDER	1294	n/a	n/a	0	0	0
1130249	REC_WORD	wordpools/wasnorm_wordpool_576.txt	LTP364	ltpFR2	4	6	CHEMIST	292	n/a	n/a	0	0	0
1131378	REC_WORD	wordpools/wasnorm_wordpool_576.txt	LTP364	ltpFR2	4	6	STAPLE	1371	n/a	n/a	0	0	0
1132883	REC_WORD	wordpools/wasnorm_wordpool_576.txt	LTP364	ltpFR2	4	6	BEAVER	109	n/a	n/a	0	0	0
1135706	REC_WORD	wordpools/wasnorm_wordpool_576.txt	LTP364	ltpFR2	4	6	VENUS	1557	n/a	n/a	0	0	0
1142582	REC_WORD	wordpools/wasnorm_wordpool_576.txt	LTP364	ltpFR2	4	6	THRONE	1461	n/a	n/a	0	0	0
1150251	REC_WORD	wordpools/wasnorm_wordpool_576.txt	LTP364	ltpFR2	4	6	PALACE	1006	n/a	n/a	0	0	0
1151415	REC_WORD	wordpools/wasnorm_wordpool_576.txt	LTP364	ltpFR2	4	6	RIFLE	1192	n/a	n/a	0	0	0
1152571	REC_WORD	wordpools/wasnorm_wordpool_576.txt	LTP364	ltpFR2	4	6	GANGSTER	620	n/a	n/a	0	0	0
1158586	REC_WORD	wordpools/wasnorm_wordpool_576.txt	LTP364	ltpFR2	4	6	ROBIN	1199	n/a	n/a	0	0	0
1159768	REC_WORD	wordpools/wasnorm_wordpool_576.txt	LTP364	ltpFR2	4	6	JELLY	755	n/a	n/a	0	0	0
1163064	REC_WORD	wordpools/wasnorm_wordpool_576.txt	LTP364	ltpFR2	4	6	RECORD	1176	n/a	n/a	0	0	0
1164141	REC_WORD	wordpools/wasnorm_wordpool_576.txt	LTP364	ltpFR2	4	6	PATROL	1027	n/a	n/a	0	0	0
1166058	REC_WORD	wordpools/wasnorm_wordpool_576.txt	LTP364	ltpFR2	4	6	SAUSAGE	1238	n/a	n/a	0	0	0
1167129	REC_WORD	wordpools/wasnorm_wordpool_576.txt	LTP364	ltpFR2	4	6	BACON	67	n/a	n/a	0	0	0
1169826	REC_WORD	wordpools/wasnorm_wordpool_576.txt	LTP364	ltpFR2	4	6	FINGER	567	n/a	n/a	0	0	0
1171601	REC_WORD	wordpools/wasnorm_wordpool_576.txt	LTP364	ltpFR2	4	6	FUNGUS	614	n/a	n/a	0	0	0
1172539	REC_WORD	wordpools/wasnorm_wordpool_576.txt	LTP364	ltpFR2	4	6	SWAMP	1416	n/a	n/a	0	0	0
1173782	REC_WORD	wordpools/wasnorm_wordpool_576.txt	LTP364	ltpFR2	4	6	VALLEY	1545	n/a	n/a	0	0	0
1175130	REC_WORD	wordpools/wasnorm_wordpool_576.txt	LTP364	ltpFR2	4	6	BODY	145	n/a	n/a	0	0	0
1176324	REC_WORD	wordpools/wasnorm_wordpool_576.txt	LTP364	ltpFR2	4	6	QUEEN	1149	n/a	n/a	0	0	0
1182507	REC_WORD	wordpools/wasnorm_wordpool_576.txt	LTP364	ltpFR2	4	6	PALACE	1006	n/a	n/a	0	0	0
1210253	WORD	wordpools/wasnorm_wordpool_576.txt	LTP364	ltpFR2	4	7	COCOON	339	n/a	n/a	0	0	0
1212751	WORD	wordpools/wasnorm_wordpool_576.txt	LTP364	ltpFR2	4	7	PEBBLE	1035	n/a	n/a	0	0	0
1215533	WORD	wordpools/wasnorm_wordpool_576.txt	LTP364	ltpFR2	4	7	DANDRUFF	439	n/a	n/a	0	0	0
1217965	WORD	wordpools/wasnorm_wordpool_576.txt	LTP364	ltpFR2	4	7	PAIL	1002	n/a	n/a	0	0	0
1220580	WORD	wordpools/wasnorm_wordpool_576.txt	LTP364	ltpFR2	4	7	HEDGE	699	n/a	n/a	0	0	0
1223030	WORD	wordpools/wasnorm_wordpool_576.txt	LTP364	ltpFR2	4	7	VICTIM	1562	n/a	n/a	0	0	0
1225561	WORD	wordpools/wasnorm_wordpool_576.txt	LTP364	ltpFR2	4	7	LADDER	793	n/a	n/a	0	0	0
1228245	WORD	wordpools/wasnorm_wordpool_576.txt	LTP364	ltpFR2	4	7	NURSE	963	n/a	n/a	0	0	0
1230876	WORD	wordpools/wasnorm_wordpool_576.txt	LTP364	ltpFR2	4	7	TRANSPLANT	1496	n/a	n/a	0	0	0
1233708	WORD	wordpools/wasnorm_wordpool_576.txt	LTP364	ltpFR2	4	7	FOOTBALL	591	n/a	n/a	0	0	0
1236357	WORD	wordpools/wasnorm_wordpool_576.txt	LTP364	ltpFR2	4	7	TAXI	1438	n/a	n/a	0	0	0
1238905	WORD	wordpools/wasnorm_wordpool_576.txt	LTP364	ltpFR2	4	7	SUBWAY	1400	n/a	n/a	0	0	0
1241654	WORD	wordpools/wasnorm_wordpool_576.txt	LTP364	ltpFR2	4	7	LAGOON	795	n/a	n/a	0	0	0
1244221	WORD	wordpools/wasnorm_wordpool_576.txt	LTP364	ltpFR2	4	7	STONE	1385	n/a	n/a	0	0	0
1246769	WORD	wordpools/wasnorm_wordpool_576.txt	LTP364	ltpFR2	4	7	KIDNEY	776	n/a	n/a	0	0	0
1249285	WORD	wordpools/wasnorm_wordpool_576.txt	LTP364	ltpFR2	4	7	CUPBOARD	425	n/a	n/a	0	0	0
1252084	WORD	wordpools/wasnorm_wordpool_576.txt	LTP364	ltpFR2	4	7	JOURNAL	760	n/a	n/a	0	0	0
1254682	WORD	wordpools/wasnorm_wordpool_576.txt	LTP364	ltpFR2	4	7	PUPIL	1143	n/a	n/a	0	0	0
1257430	WORD	wordpools/wasnorm_wordpool_576.txt	LTP364	ltpFR2	4	7	TEACHER	1440	n/a	n/a	0	0	0
1260014	WORD	wordpools/wasnorm_wordpool_576.txt	LTP364	ltpFR2	4	7	DENTIST	447	n/a	n/a	0	0	0
1262611	WORD	wordpools/wasnorm_wordpool_576.txt	LTP364	ltpFR2	4	7	FEMALE	559	n/a	n/a	0	0	0
1265095	WORD	wordpools/wasnorm_wordpool_576.txt	LTP364	ltpFR2	4	7	SEAFOOD	1260	n/a	n/a	0	0	0
1267626	WORD	wordpools/wasnorm_wordpool_576.txt	LTP364	ltpFR2	4	7	EGYPT	519	n/a	n/a	0	0	0
1270326	WORD	wordpools/wasnorm_wordpool_576.txt	LTP364	ltpFR2	4	7	LIVER	833	n/a	n/a	0	0	0
1271941	START	n/a	LTP364	ltpFR2	4	n/a	n/a	n/a	10	n/a	n/a	n/a	n/a
1272902	DISTRACTOR	n/a	LTP364	ltpFR2	4	7	n/a	n/a	n/a	n/a	0	0	0
1272907	PROB	n/a	LTP364	ltpFR2	4	n/a	n/a	n/a	10	24	9	8	7
1278538	PROB	n/a	LTP364	ltpFR2	4	n/a	n/a	n/a	10	18	5	8	5
1280171	PROB	n/a	LTP364	ltpFR2	4	n/a	n/a	n/a	10	15	5	3	6
1283835	PROB	n/a	LTP364	ltpFR2	4	n/a	n/a	n/a	10	12	2	9	1
1285701	PROB	n/a	LTP364	ltpFR2	4	n/a	n/a	n/a	10	7	4	2	1
1288650	PROB	n/a	LTP364	ltpFR2	4	n/a	n/a	n/a	10	22	6	8	8
1291133	PROB	n/a	LTP364	ltpFR2	4	n/a	n/a	n/a	10	12	3	3	6
1295941	STOP	n/a	LTP364	ltpFR2	4	n/a	n/a	n/a	10	n/a	n/a	n/a	n/a
1297713	REC_START	n/a	LTP364	ltpFR2	4	7	n/a	n/a	n/a	n/a	0	0	0
1312848	REC_WORD	wordpools/wasnorm_wordpool_576.txt	LTP364	ltpFR2	4	7	COCOON	339	n/a	n/a	0	0	0
1316170	REC_WORD	wordpools/wasnorm_wordpool_576.txt	LTP364	ltpFR2	4	7	PEBBLE	1035	n/a	n/a	0	0	0
1317532	REC_WORD	wordpools/wasnorm_wordpool_576.txt	LTP364	ltpFR2	4	7	DANDRUFF	439	n/a	n/a	0	0	0
1318632	REC_WORD	wordpools/wasnorm_wordpool_576.txt	LTP364	ltpFR2	4	7	PAIL	1002	n/a	n/a	0	0	0
1324511	REC_WORD	wordpools/wasnorm_wordpool_576.txt	LTP364	ltpFR2	4	7	HEDGE	699	n/a	n/a	0	0	0
1327081	REC_WORD	wordpools/wasnorm_wordpool_576.txt	LTP364	ltpFR2	4	7	LADDER	793	n/a	n/a	0	0	0
1331368	REC_WORD	wordpools/wasnorm_wordpool_576.txt	LTP364	ltpFR2	4	7	NURSE	963	n/a	n/a	0	0	0
1332367	REC_WORD	wordpools/wasnorm_wordpool_576.txt	LTP364	ltpFR2	4	7	TRANSPLANT	1496	n/a	n/a	0	0	0
1333636	REC_WORD	wordpools/wasnorm_wordpool_576.txt	LTP364	ltpFR2	4	7	FOOTBALL	591	n/a	n/a	0	0	0
1340445	REC_WORD	wordpools/wasnorm_wordpool_576.txt	LTP364	ltpFR2	4	7	TAXI	1438	n/a	n/a	0	0	0
1341642	REC_WORD	wordpools/wasnorm_wordpool_576.txt	LTP364	ltpFR2	4	7	SUBWAY	1400	n/a	n/a	0	0	0
1342979	REC_WORD	wordpools/wasnorm_wordpool_576.txt	LTP364	ltpFR2	4	7	LAGOON	795	n/a	n/a	0	0	0
1344198	REC_WORD	wordpools/wasnorm_wordpool_576.txt	LTP364	ltpFR2	4	7	STONE	1385	n/a	n/a	0	0	0
1345502	REC_WORD	wordpools/wasnorm_wordpool_576.txt	LTP364	ltpFR2	4	7	KIDNEY	776	n/a	n/a	0	0	0
1346563	REC_WORD	wordpools/wasnorm_wordpool_576.txt	LTP364	ltpFR2	4	7	CUPBOARD	425	n/a	n/a	0	0	0
1348874	REC_WORD	wordpools/wasnorm_wordpool_576.txt	LTP364	ltpFR2	4	7	JOURNAL	760	n/a	n/a	0	0	0
1352216	REC_WORD	wordpools/wasnorm_wordpool_576.txt	LTP364	ltpFR2	4	7	LIVER	833	n/a	n/a	0	0	0
1356901	REC_WORD	wordpools/wasnorm_wordpool_576.txt	LTP364	ltpFR2	4	7	TEACHER	1440	n/a	n/a	0	0	0
1360486	REC_WORD	wordpools/wasnorm_wordpool_576.txt	LTP364	ltpFR2	4	7	STUDENT	1395	n/a	n/a	0	0	0
1361417	REC_WORD	wordpools/wasnorm_wordpool_576.txt	LTP364	ltpFR2	4	7	DENTIST	447	n/a	n/a	0	0	0
1368149	REC_WORD	wordpools/wasnorm_wordpool_576.txt	LTP364	ltpFR2	4	7	FEMALE	559	n/a	n/a	0	0	0
1388156	WORD	wordpools/wasnorm_wordpool_576.txt	LTP364	ltpFR2	4	8	ICEBERG	731	n/a	n/a	0	0	0
1390953	WORD	wordpools/wasnorm_wordpool_576.txt	LTP364	ltpFR2	4	8	MARKER	870	n/a	n/a	0	0	0
1393402	WORD	wordpools/wasnorm_wordpool_576.txt	LTP364	ltpFR2	4	8	AUTHOR	61	n/a	n/a	0	0	0
1395918	WORD	wordpools/wasnorm_wordpool_576.txt	LTP364	ltpFR2	4	8	HAWK	692	n/a	n/a	0	0	0
1398550	WORD	wordpools/wasnorm_wordpool_576.txt	LTP364	ltpFR2	4	8	ISLAND	745	n/a	n/a	0	0	0
1401332	WORD	wordpools/wasnorm_wordpool_576.txt	LTP364	ltpFR2	4	8	SUITCASE	1403	n/a	n/a	0	0	0
1404132	WORD	wordpools/wasnorm_wordpool_576.txt	LTP364	ltpFR2	4	8	SEAGULL	1261	n/a	n/a	0	0	0
1406563	WORD	wordpools/wasnorm_wordpool_576.txt	LTP364	ltpFR2	4	8	MILK	895	n/a	n/a	0	0	0
1409012	WORD	wordpools/wasnorm_wordpool_576.txt	LTP364	ltpFR2	4	8	GALLON	618	n/a	n/a	0	0	0
1411811	WORD	wordpools/wasnorm_wordpool_576.txt	LTP364	ltpFR2	4	8	SKETCH	1315	n/a	n/a	0	0	0
1414543	WORD	wordpools/wasnorm_wordpool_576.txt	LTP364	ltpFR2	4	8	CHAUFFEUR	283	n/a	n/a	0	0	0
1417092	WORD	wordpools/wasnorm_wordpool_576.txt	LTP364	ltpFR2	4	8	PIMPLE	1071	n/a	n/a	0	0	0
1419824	WORD	wordpools/wasnorm_wordpool_576.txt	LTP364	ltpFR2	4	8	HELMET	702	n/a	n/a	0	0	0
1422606	WORD	wordpools/wasnorm_wordpool_576.txt	LTP364	ltpFR2	4	8	CUSTARD	429	n/a	n/a	0	0	0
1425255	WORD	wordpools/wasnorm_wordpool_576.txt	LTP364	ltpFR2	4	8	LASER	801	n/a	n/a	0	0	0
1427803	WORD	wordpools/wasnorm_wordpool_576.txt	LTP364	ltpFR2	4	8	HOUND	724	n/a	n/a	0	0	0
1430236	WORD	wordpools/wasnorm_wordpool_576.txt	LTP364	ltpFR2	4	8	FOX	598	n/a	n/a	0	0	0
1432668	WORD	wordpools/wasnorm_wordpool_576.txt	LTP364	ltpFR2	4	8	LODGE	839	n/a	n/a	0	0	0
1435317	WORD	wordpools/wasnorm_wordpool_576.txt	LTP364	ltpFR2	4	8	BELLY	119	n/a	n/a	0	0	0
1437765	WORD	wordpools/wasnorm_wordpool_576.txt	LTP364	ltpFR2	4	8	CLOUD	328	n/a	n/a	0	0	0
1440348	WORD	wordpools/wasnorm_wordpool_576.txt	LTP364	ltpFR2	4	8	NOVEL	960	n/a	n/a	0	0	0
1443097	WORD	wordpools/wasnorm_wordpool_576.txt	LTP364	ltpFR2	4	8	GREASE	660	n/a	n/a	0	0	0
1445712	WORD	wordpools/wasnorm_wordpool_576.txt	LTP364	ltpFR2	4	8	BOUQUET	157	n/a	n/a	0	0	0
1448278	WORD	wordpools/wasnorm_wordpool_576.txt	LTP364	ltpFR2	4	8	CLIMBER	323	n/a	n/a	0	0	0
1449893	START	n/a	LTP364	ltpFR2	4	n/a	n/a	n/a	11	n/a	n/a	n/a	n/a
1450924	DISTRACTOR	n/a	LTP364	ltpFR2	4	8	n/a	n/a	n/a	n/a	0	0	0
1450926	PROB	n/a	LTP364	ltpFR2	4	n/a	n/a	n/a	11	12	7	4	1
1453458	PROB	n/a	LTP364	ltpFR2	4	n/a	n/a	n/a	11	12	5	4	3
1455557	PROB	n/a	LTP364	ltpFR2	4	n/a	n/a	n/a	11	9	3	4	2
1458939	PROB	n/a	LTP364	ltpFR2	4	n/a	n/a	n/a	11	13	1	3	9
1461289	PROB	n/a	LTP364	ltpFR2	4	n/a	n/a	n/a	11	15	6	3	6
1463687	PROB	n/a	LTP364	ltpFR2	4	n/a	n/a	n/a	11	12	2	5	5
1465037	PROB	n/a	LTP364	ltpFR2	4	n/a	n/a	n/a	11	21	7	6	8
1470118	PROB	n/a	LTP364	ltpFR2	4	n/a	n/a	n/a	11	21	6	7	8
1472201	PROB	n/a	LTP364	ltpFR2	4	n/a	n/a	n/a	11	14	4	9	1
1473791	STOP	n/a	LTP364	ltpFR2	4	n/a	n/a	n/a	11	n/a	n/a	n/a	n/a
1475649	REC_START	n/a	LTP364	ltpFR2	4	8	n/a	n/a	n/a	n/a	0	0	0
1477728	REC_WORD	wordpools/wasnorm_wordpool_576.txt	LTP364	ltpFR2	4	8	ICEBERG	731	n/a	n/a	0	0	0
1480043	REC_WORD	wordpools/wasnorm_wordpool_576.txt	LTP364	ltpFR2	4	8	MARKER	870	n/a	n/a	0	0	0
1483923	REC_WORD	wordpools/wasnorm_wordpool_576.txt	LTP364	ltpFR2	4	8	WRITER	1627	n/a	n/a	0	0	0
1486271	REC_WORD	wordpools/wasnorm_wordpool_576.txt	LTP364	ltpFR2	4	8	HAWK	692	n/a	n/a	0	0	0
1487482	REC_WORD	wordpools/wasnorm_wordpool_576.txt	LTP364	ltpFR2	4	8	SEAGULL	1261	n/a	n/a	0	0	0
1488597	REC_WORD	wordpools/wasnorm_wordpool_576.txt	LTP364	ltpFR2	4	8	MILK	895	n/a	n/a	0	0	0
1489534	REC_WORD	wordpools/wasnorm_wordpool_576.txt	LTP364	ltpFR2	4	8	GALLON	618	n/a	n/a	0	0	0
1492079	REC_WORD	wordpools/wasnorm_wordpool_576.txt	LTP364	ltpFR2	4	8	FOX	598	n/a	n/a	0	0	0
1493069	REC_WORD	wordpools/wasnorm_wordpool_576.txt	LTP364	ltpFR2	4	8	HOUND	724	n/a	n/a	0	0	0
1497103	REC_WORD	wordpools/wasnorm_wordpool_576.txt	LTP364	ltpFR2	4	8	LODGE	839	n/a	n/a	0	0	0
1498187	REC_WORD	wordpools/wasnorm_wordpool_576.txt	LTP364	ltpFR2	4	8	BELLY	119	n/a	n/a	0	0	0
1498944	REC_WORD	wordpools/wasnorm_wordpool_576.txt	LTP364	ltpFR2	4	8	CLOUD	328	n/a	n/a	0	0	0
1501269	REC_WORD	wordpools/wasnorm_wordpool_576.txt	LTP364	ltpFR2	4	8	WRITER	1627	n/a	n/a	0	0	0
1502581	REC_WORD	wordpools/wasnorm_wordpool_576.txt	LTP364	ltpFR2	4	8	NOVEL	960	n/a	n/a	0	0	0
1506787	REC_WORD	wordpools/wasnorm_wordpool_576.txt	LTP364	ltpFR2	4	8	BOUQUET	157	n/a	n/a	0	0	0
1508895	REC_WORD	wordpools/wasnorm_wordpool_576.txt	LTP364	ltpFR2	4	8	GREASE	660	n/a	n/a	0	0	0
1545440	REC_WORD	wordpools/wasnorm_wordpool_576.txt	LTP364	ltpFR2	4	8	ISLAND	745	n/a	n/a	0	0	0
1552181	REST_REWET	n/a	LTP364	ltpFR2	4	8	n/a	n/a	n/a	n/a	0	0	0
1705344	DISTRACTOR	n/a	LTP364	ltpFR2	4	9	n/a	n/a	n/a	n/a	0	0	0
1705344	START	n/a	LTP364	ltpFR2	4	n/a	n/a	n/a	12	n/a	n/a	n/a	n/a
1705361	PROB	n/a	LTP364	ltpFR2	4	n/a	n/a	n/a	12	17	5	7	5
1707311	PROB	n/a	LTP364	ltpFR2	4	n/a	n/a	n/a	12	16	2	8	6
1709060	PROB	n/a	LTP364	ltpFR2	4	n/a	n/a	n/a	12	12	5	5	2
1710475	PROB	n/a	LTP364	ltpFR2	4	n/a	n/a	n/a	12	14	8	5	1
1712624	PROB	n/a	LTP364	ltpFR2	4	n/a	n/a	n/a	12	15	5	3	7
1714225	PROB	n/a	LTP364	ltpFR2	4	n/a	n/a	n/a	12	4	1	2	1
1716274	PROB	n/a	LTP364	ltpFR2	4	n/a	n/a	n/a	12	14	5	2	7
1719971	PROB	n/a	LTP364	ltpFR2	4	n/a	n/a	n/a	12	22	8	6	8
1724220	PROB	n/a	LTP364	ltpFR2	4	n/a	n/a	n/a	12	6	3	2	1
1726152	PROB	n/a	LTP364	ltpFR2	4	n/a	n/a	n/a	12	18	8	6	4
1729344	STOP	n/a	LTP364	ltpFR2	4	n/a	n/a	n/a	12	n/a	n/a	n/a	n/a
1730366	WORD	wordpools/wasnorm_wordpool_576.txt	LTP364	ltpFR2	4	9	SPACE	1345	n/a	n/a	0	0	0
1732982	WORD	wordpools/wasnorm_wordpool_576.txt	LTP364	ltpFR2	4	9	EUROPE	541	n/a	n/a	0	0	0
1735431	WORD	wordpools/wasnorm_wordpool_576.txt	LTP364	ltpFR2	4	9	CAMEL	223	n/a	n/a	0	0	0
1738230	WORD	wordpools/wasnorm_wordpool_576.txt	LTP364	ltpFR2	4	9	OINTMENT	974	n/a	n/a	0	0	0
1740861	WORD	wordpools/wasnorm_wordpool_576.txt	LTP364	ltpFR2	4	9	CREVICE	405	n/a	n/a	0	0	0
1743644	WORD	wordpools/wasnorm_wordpool_576.txt	LTP364	ltpFR2	4	9	BUNNY	198	n/a	n/a	0	0	0
1746376	WORD	wordpools/wasnorm_wordpool_576.txt	LTP364	ltpFR2	4	9	FLASHLIGHT	575	n/a	n/a	0	0	0
1748941	WORD	wordpools/wasnorm_wordpool_576.txt	LTP364	ltpFR2	4	9	CATTLE	261	n/a	n/a	0	0	0
1751490	WORD	wordpools/wasnorm_wordpool_576.txt	LTP364	ltpFR2	4	9	FARMER	553	n/a	n/a	0	0	0
1754107	WORD	wordpools/wasnorm_wordpool_576.txt	LTP364	ltpFR2	4	9	COLLEGE	346	n/a	n/a	0	0	0
1756804	WORD	wordpools/wasnorm_wordpool_576.txt	LTP364	ltpFR2	4	9	HEADBAND	696	n/a	n/a	0	0	0
1759387	WORD	wordpools/wasnorm_wordpool_576.txt	LTP364	ltpFR2	4	9	FIREPLACE	570	n/a	n/a	0	0	0
1761869	WORD	wordpools/wasnorm_wordpool_576.txt	LTP364	ltpFR2	4	9	FIREMAN	569	n/a	n/a	0	0	0
1764302	WORD	wordpools/wasnorm_wordpool_576.txt	LTP364	ltpFR2	4	9	COURSE	390	n/a	n/a	0	0	0
1766750	WORD	wordpools/wasnorm_wordpool_576.txt	LTP364	ltpFR2	4	9	LONDON	843	n/a	n/a	0	0	0
1769216	WORD	wordpools/wasnorm_wordpool_576.txt	LTP364	ltpFR2	4	9	BRAKE	166	n/a	n/a	0	0	0
1771964	WORD	wordpools/wasnorm_wordpool_576.txt	LTP364	ltpFR2	4	9	WHISKERS	1605	n/a	n/a	0	0	0
1774496	WORD	wordpools/wasnorm_wordpool_576.txt	LTP364	ltpFR2	4	9	FRANCE	601	n/a	n/a	0	0	0
1777096	WORD	wordpools/wasnorm_wordpool_576.txt	LTP364	ltpFR2	4	9	FLAG	573	n/a	n/a	0	0	0
1779694	WORD	wordpools/wasnorm_wordpool_576.txt	LTP364	ltpFR2	4	9	CLOCK	325	n/a	n/a	0	0	0
1782443	WORD	wordpools/wasnorm_wordpool_576.txt	LTP364	ltpFR2	4	9	SPARROW	1347	n/a	n/a	0	0	0
1785026	WORD	wordpools/wasnorm_wordpool_576.txt	LTP364	ltpFR2	4	9	ROBBER	1197	n/a	n/a	0	0	0
1787507	WORD	wordpools/wasnorm_wordpool_576.txt	LTP364	ltpFR2	4	9	BEEF	113	n/a	n/a	0	0	0
1789973	WORD	wordpools/wasnorm_wordpool_576.txt	LTP364	ltpFR2	4	9	GLOBE	641	n/a	n/a	0	0	0
1791589	START	n/a	LTP364	ltpFR2	4	n/a	n/a	n/a	13	n/a	n/a	n/a	n/a
1792626	DISTRACTOR	n/a	LTP364	ltpFR2	4	9	n/a	n/a	n/a	n/a	0	0	0
1792638	PROB	n/a	LTP364	ltpFR2	4	n/a	n/a	n/a	13	28	9	8	4
1796420	PROB	n/a	LTP364	ltpFR2	4	n/a	n/a	n/a	13	18	9	7	2
1800269	PROB	n/a	LTP364	ltpFR2	4	n/a	n/a	n/a	13	19	2	8	9
1801984	PROB	n/a	LTP364	ltpFR2	4	n/a	n/a	n/a	13	11	2	4	5
1804117	PROB	n/a	LTP364	ltpFR2	4	n/a	n/a	n/a	13	18	8	1	9
1805765	PROB	n/a	LTP364	ltpFR2	4	n/a	n/a	n/a	13	6	3	2	1
1808199	PROB	n/a	LTP364	ltpFR2	4	n/a	n/a	n/a	13	9	2	7	1
1810298	PROB	n/a	LTP364	ltpFR2	4	n/a	n/a	n/a	13	12	5	4	3
1815588	STOP	n/a	LTP364	ltpFR2	4	n/a	n/a	n/a	13	n/a	n/a	n/a	n/a
1817345	REC_START	n/a	LTP364	ltpFR2	4	9	n/a	n/a	n/a	n/a	0	0	0
1818531	REC_WORD	wordpools/wasnorm_wordpool_576.txt	LTP364	ltpFR2	4	9	SPACE	1345	n/a	n/a	0	0	0
1819749	REC_WORD	wordpools/wasnorm_wordpool_576.txt	LTP364	ltpFR2	4	9	EUROPE	541	n/a	n/a	0	0	0
1821339	REC_WORD	wordpools/wasnorm_wordpool_576.txt	LTP364	ltpFR2	4	9	CAMEL	223	n/a	n/a	0	0	0
1822349	REC_WORD	wordpools/wasnorm_wordpool_576.txt	LTP364	ltpFR2	4	9	OINTMENT	974	n/a	n/a	0	0	0
1823396	REC_WORD	wordpools/wasnorm_wordpool_576.txt	LTP364	ltpFR2	4	9	CREVICE	405	n/a	n/a	0	0	0
1824694	REC_WORD	wordpools/wasnorm_wordpool_576.txt	LTP364	ltpFR2	4	9	RABBIT	1152	n/a	n/a	0	0	0
1834881	REC_WORD	wordpools/wasnorm_wordpool_576.txt	LTP364	ltpFR2	4	9	WHISKERS	1605	n/a	n/a	0	0	0
1835748	REC_WORD	wordpools/wasnorm_wordpool_576.txt	LTP364	ltpFR2	4	9	FLASHLIGHT	575	n/a	n/a	0	0	0
1837233	REC_WORD	wordpools/wasnorm_wordpool_576.txt	LTP364	ltpFR2	4	9	CATTLE	261	n/a	n/a	0	0	0
1838408	REC_WORD	wordpools/wasnorm_wordpool_576.txt	LTP364	ltpFR2	4	9	FARMER	553	n/a	n/a	0	0	0
1839420	REC_WORD	wordpools/wasnorm_wordpool_576.txt	LTP364	ltpFR2	4	9	COLLEGE	346	n/a	n/a	0	0	0
1840329	REC_WORD	wordpools/wasnorm_wordpool_576.txt	LTP364	ltpFR2	4	9	HEADBAND	696	n/a	n/a	0	0	0
1842101	REC_WORD	wordpools/wasnorm_wordpool_576.txt	LTP364	ltpFR2	4	9	FIREPLACE	570	n/a	n/a	0	0	0
1843365	REC_WORD	wordpools/wasnorm_wordpool_576.txt	LTP364	ltpFR2	4	9	FIREMAN	569	n/a	n/a	0	0	0
1847580	REC_WORD	wordpools/wasnorm_wordpool_576.txt	LTP364	ltpFR2	4	9	COURSE	390	n/a	n/a	0	0	0
1854136	REC_WORD	wordpools/wasnorm_wordpool_576.txt	LTP364	ltpFR2	4	9	LONDON	843	n/a	n/a	0	0	0
1855906	REC_WORD	wordpools/wasnorm_wordpool_576.txt	LTP364	ltpFR2	4	9	BRAKE	166	n/a	n/a	0	0	0
1857234	REC_WORD	wordpools/wasnorm_wordpool_576.txt	LTP364	ltpFR2	4	9	FRANCE	601	n/a	n/a	0	0	0
1858500	REC_WORD	wordpools/wasnorm_wordpool_576.txt	LTP364	ltpFR2	4	9	FLAG	573	n/a	n/a	0	0	0
1863431	REC_WORD	wordpools/wasnorm_wordpool_576.txt	LTP364	ltpFR2	4	9	GLOBE	641	n/a	n/a	0	0	0
1907786	WORD	wordpools/wasnorm_wordpool_576.txt	LTP364	ltpFR2	4	10	GAZELLE	628	n/a	n/a	0	0	0
1910385	WORD	wordpools/wasnorm_wordpool_576.txt	LTP364	ltpFR2	4	10	CLAM	315	n/a	n/a	0	0	0
1913018	WORD	wordpools/wasnorm_wordpool_576.txt	LTP364	ltpFR2	4	10	SPOOL	1356	n/a	n/a	0	0	0
1915816	WORD	wordpools/wasnorm_wordpool_576.txt	LTP364	ltpFR2	4	10	CAPTIVE	240	n/a	n/a	0	0	0
1918548	WORD	wordpools/wasnorm_wordpool_576.txt	LTP364	ltpFR2	4	10	SUSPECT	1415	n/a	n/a	0	0	0
1921380	WORD	wordpools/wasnorm_wordpool_576.txt	LTP364	ltpFR2	4	10	DIME	466	n/a	n/a	0	0	0
1923879	WORD	wordpools/wasnorm_wordpool_576.txt	LTP364	ltpFR2	4	10	AIRPLANE	12	n/a	n/a	0	0	0
1926461	WORD	wordpools/wasnorm_wordpool_576.txt	LTP364	ltpFR2	4	10	HORSE	719	n/a	n/a	0	0	0
1929244	WORD	wordpools/wasnorm_wordpool_576.txt	LTP364	ltpFR2	4	10	SADDLE	1221	n/a	n/a	0	0	0
1931792	WORD	wordpools/wasnorm_wordpool_576.txt	LTP364	ltpFR2	4	10	RATTLE	1170	n/a	n/a	0	0	0
1934457	WORD	wordpools/wasnorm_wordpool_576.txt	LTP364	ltpFR2	4	10	AIRPORT	13	n/a	n/a	0	0	0
1937157	WORD	wordpools/wasnorm_wordpool_576.txt	LTP364	ltpFR2	4	10	DRIVER	499	n/a	n/a	0	0	0
1939722	WORD	wordpools/wasnorm_wordpool_576.txt	LTP364	ltpFR2	4	10	CIGAR	308	n/a	n/a	0	0	0
1942205	WORD	wordpools/wasnorm_wordpool_576.txt	LTP364	ltpFR2	4	10	HONEY	713	n/a	n/a	0	0	0
1944719	WORD	wordpools/wasnorm_wordpool_576.txt	LTP364	ltpFR2	4	10	TUTU	1524	n/a	n/a	0	0	0
1947335	WORD	wordpools/wasnorm_wordpool_576.txt	LTP364	ltpFR2	4	10	XEROX	1628	n/a	n/a	0	0	0
1949950	WORD	wordpools/wasnorm_wordpool_576.txt	LTP364	ltpFR2	4	10	BLUEPRINT	142	n/a	n/a	0	0	0
1952616	WORD	wordpools/wasnorm_wordpool_576.txt	LTP364	ltpFR2	4	10	BULLET	194	n/a	n/a	0	0	0
1955331	WORD	wordpools/wasnorm_wordpool_576.txt	LTP364	ltpFR2	4	10	POISON	1096	n/a	n/a	0	0	0
1958098	WORD	wordpools/wasnorm_wordpool_576.txt	LTP364	ltpFR2	4	10	COMPASS	358	n/a	n/a	0	0	0
1960845	WORD	wordpools/wasnorm_wordpool_576.txt	LTP364	ltpFR2	4	10	SCALLOP	1242	n/a	n/a	0	0	0
1963494	WORD	wordpools/wasnorm_wordpool_576.txt	LTP364	ltpFR2	4	10	SURVEY	1414	n/a	n/a	0	0	0
1965960	WORD	wordpools/wasnorm_wordpool_576.txt	LTP364	ltpFR2	4	10	BRICK	172	n/a	n/a	0	0	0
1968575	WORD	wordpools/wasnorm_wordpool_576.txt	LTP364	ltpFR2	4	10	MARS	873	n/a	n/a	0	0	0
1970192	START	n/a	LTP364	ltpFR2	4	n/a	n/a	n/a	14	n/a	n/a	n/a	n/a
1971140	DISTRACTOR	n/a	LTP364	ltpFR2	4	10	n/a	n/a	n/a	n/a	0	0	0
1971142	PROB	n/a	LTP364	ltpFR2	4	n/a	n/a	n/a	14	14	3	8	3
1973307	PROB	n/a	LTP364	ltpFR2	4	n/a	n/a	n/a	14	19	4	7	8
1975489	PROB	n/a	LTP364	ltpFR2	4	n/a	n/a	n/a	14	15	6	1	8
1977838	PROB	n/a	LTP364	ltpFR2	4	n/a	n/a	n/a	14	18	8	8	2
1979770	PROB	n/a	LTP364	ltpFR2	4	n/a	n/a	n/a	14	12	7	2	3
1983069	PROB	n/a	LTP364	ltpFR2	4	n/a	n/a	n/a	14	22	5	9	8
1985817	PROB	n/a	LTP364	ltpFR2	4	n/a	n/a	n/a	14	18	8	2	8
1987367	PROB	n/a	LTP364	ltpFR2	4	n/a	n/a	n/a	14	21	3	9	9
1994192	STOP	n/a	LTP364	ltpFR2	4	n/a	n/a	n/a	14	n/a	n/a	n/a	n/a
1996065	REC_START	n/a	LTP364	ltpFR2	4	10	n/a	n/a	n/a	n/a	0	0	0
1997838	REC_WORD	wordpools/wasnorm_wordpool_576.txt	LTP364	ltpFR2	4	10	GAZELLE	628	n/a	n/a	0	0	0
1998903	REC_WORD	wordpools/wasnorm_wordpool_576.txt	LTP364	ltpFR2	4	10	CLAM	315	n/a	n/a	0	0	0
1999997	REC_WORD	wordpools/wasnorm_wordpool_576.txt	LTP364	ltpFR2	4	10	SPOOL	1356	n/a	n/a	0	0	0
2006989	REC_WORD	wordpools/wasnorm_wordpool_576.txt	LTP364	ltpFR2	4	10	PRISONER	1128	n/a	n/a	0	0	0
2007749	REC_WORD	wordpools/wasnorm_wordpool_576.txt	LTP364	ltpFR2	4	10	SUSPECT	1415	n/a	n/a	0	0	0
2011849	REC_WORD	wordpools/wasnorm_wordpool_576.txt	LTP364	ltpFR2	4	10	DIME	466	n/a	n/a	0	0	0
2014028	REC_WORD	wordpools/wasnorm_wordpool_576.txt	LTP364	ltpFR2	4	10	AIRPLANE	12	n/a	n/a	0	0	0
2015590	REC_WORD	wordpools/wasnorm_wordpool_576.txt	LTP364	ltpFR2	4	10	HORSE	719	n/a	n/a	0	0	0
2016573	REC_WORD	wordpools/wasnorm_wordpool_576.txt	LTP364	ltpFR2	4	10	SADDLE	1221	n/a	n/a	0	0	0
2020445	REC_WORD	wordpools/wasnorm_wordpool_576.txt	LTP364	ltpFR2	4	10	AIRPORT	13	n/a	n/a	0	0	0
2025037	REC_WORD	wordpools/wasnorm_wordpool_576.txt	LTP364	ltpFR2	4	10	DRIVER	499	n/a	n/a	0	0	0
2035814	REC_WORD	wordpools/wasnorm_wordpool_576.txt	LTP364	ltpFR2	4	10	TUTU	1524	n/a	n/a	0	0	0
2036772	REC_WORD	wordpools/wasnorm_wordpool_576.txt	LTP364	ltpFR2	4	10	BLUEPRINT	142	n/a	n/a	0	0	0
2037491	REC_WORD	wordpools/wasnorm_wordpool_576.txt	LTP364	ltpFR2	4	10	XEROX	1628	n/a	n/a	0	0	0
2039613	REC_WORD	wordpools/wasnorm_wordpool_576.txt	LTP364	ltpFR2	4	10	BULLET	194	n/a	n/a	0	0	0
2047426	REC_WORD	wordpools/wasnorm_wordpool_576.txt	LTP364	ltpFR2	4	10	SURVEY	1414	n/a	n/a	0	0	0
2048489	REC_WORD	wordpools/wasnorm_wordpool_576.txt	LTP364	ltpFR2	4	10	BRICK	172	n/a	n/a	0	0	0
2049190	REC_WORD	wordpools/wasnorm_wordpool_576.txt	LTP364	ltpFR2	4	10	MARS	873	n/a	n/a	0	0	0
2057353	REC_WORD	wordpools/wasnorm_wordpool_576.txt	LTP364	ltpFR2	4	10	CIGAR	308	n/a	n/a	0	0	0
2066410	REC_WORD	wordpools/wasnorm_wordpool_576.txt	LTP364	ltpFR2	4	10	SCALLOP	1242	n/a	n/a	0	0	0
2086522	WORD	wordpools/wasnorm_wordpool_576.txt	LTP364	ltpFR2	4	11	SALMON	1227	n/a	n/a	0	0	0
2089171	WORD	wordpools/wasnorm_wordpool_576.txt	LTP364	ltpFR2	4	11	SWORD	1423	n/a	n/a	0	0	0
2091786	WORD	wordpools/wasnorm_wordpool_576.txt	LTP364	ltpFR2	4	11	TRACTOR	1493	n/a	n/a	0	0	0
2094385	WORD	wordpools/wasnorm_wordpool_576.txt	LTP364	ltpFR2	4	11	ORCHID	982	n/a	n/a	0	0	0
2097000	WORD	wordpools/wasnorm_wordpool_576.txt	LTP364	ltpFR2	4	11	COD	340	n/a	n/a	0	0	0
2099699	WORD	wordpools/wasnorm_wordpool_576.txt	LTP364	ltpFR2	4	11	THIEF	1456	n/a	n/a	0	0	0
2102299	WORD	wordpools/wasnorm_wordpool_576.txt	LTP364	ltpFR2	4	11	SCULPTURE	1258	n/a	n/a	0	0	0
2104880	WORD	wordpools/wasnorm_wordpool_576.txt	LTP364	ltpFR2	4	11	BRANDY	169	n/a	n/a	0	0	0
2107313	WORD	wordpools/wasnorm_wordpool_576.txt	LTP364	ltpFR2	4	11	CATCHER	258	n/a	n/a	0	0	0
2110062	WORD	wordpools/wasnorm_wordpool_576.txt	LTP364	ltpFR2	4	11	SIDEWALK	1303	n/a	n/a	0	0	0
2112826	WORD	wordpools/wasnorm_wordpool_576.txt	LTP364	ltpFR2	4	11	COMET	353	n/a	n/a	0	0	0
2115375	WORD	wordpools/wasnorm_wordpool_576.txt	LTP364	ltpFR2	4	11	RUG	1215	n/a	n/a	0	0	0
2118075	WORD	wordpools/wasnorm_wordpool_576.txt	LTP364	ltpFR2	4	11	MOP	916	n/a	n/a	0	0	0
2120606	WORD	wordpools/wasnorm_wordpool_576.txt	LTP364	ltpFR2	4	11	SLIDE	1326	n/a	n/a	0	0	0
2123139	WORD	wordpools/wasnorm_wordpool_576.txt	LTP364	ltpFR2	4	11	NEUTRON	947	n/a	n/a	0	0	0
2125687	WORD	wordpools/wasnorm_wordpool_576.txt	LTP364	ltpFR2	4	11	PUPPY	1144	n/a	n/a	0	0	0
2128254	WORD	wordpools/wasnorm_wordpool_576.txt	LTP364	ltpFR2	4	11	BRANCH	168	n/a	n/a	0	0	0
2130702	WORD	wordpools/wasnorm_wordpool_576.txt	LTP364	ltpFR2	4	11	STAKE	1368	n/a	n/a	0	0	0
2133268	WORD	wordpools/wasnorm_wordpool_576.txt	LTP364	ltpFR2	4	11	SHRUB	1299	n/a	n/a	0	0	0
2135949	WORD	wordpools/wasnorm_wordpool_576.txt	LTP364	ltpFR2	4	11	TWIG	1527	n/a	n/a	0	0	0
2138498	WORD	wordpools/wasnorm_wordpool_576.txt	LTP364	ltpFR2	4	11	SHARK	1275	n/a	n/a	0	0	0
2140980	WORD	wordpools/wasnorm_wordpool_576.txt	LTP364	ltpFR2	4	11	PILOT	1070	n/a	n/a	0	0	0
2143579	WORD	wordpools/wasnorm_wordpool_576.txt	LTP364	ltpFR2	4	11	CONVICT	371	n/a	n/a	0	0	0
2146146	WORD	wordpools/wasnorm_wordpool_576.txt	LTP364	ltpFR2	4	11	GLASS	639	n/a	n/a	0	0	0
2147761	START	n/a	LTP364	ltpFR2	4	n/a	n/a	n/a	15	n/a	n/a	n/a	n/a
2148887	DISTRACTOR	n/a	LTP364	ltpFR2	4	11	n/a	n/a	n/a	n/a	0	0	0
2148893	PROB	n/a	LTP364	ltpFR2	4	n/a	n/a	n/a	15	8	2	3	3
2150759	PROB	n/a	LTP364	ltpFR2	4	n/a	n/a	n/a	15	14	5	5	4
2152475	PROB	n/a	LTP364	ltpFR2	4	n/a	n/a	n/a	15	112	5	6	1
2155707	PROB	n/a	LTP364	ltpFR2	4	n/a	n/a	n/a	15	19	5	9	5
2160805	PROB	n/a	LTP364	ltpFR2	4	n/a	n/a	n/a	15	16	1	9	6
2162238	PROB	n/a	LTP364	ltpFR2	4	n/a	n/a	n/a	15	16	9	4	3
2164520	PROB	n/a	LTP364	ltpFR2	4	n/a	n/a	n/a	15	21	7	6	8
2171293	STOP	n/a	LTP364	ltpFR2	4	n/a	n/a	n/a	15	n/a	n/a	n/a	n/a
2173516	REC_START	n/a	LTP364	ltpFR2	4	11	n/a	n/a	n/a	n/a	0	0	0
2176379	REC_WORD	wordpools/wasnorm_wordpool_576.txt	LTP364	ltpFR2	4	11	SALMON	1227	n/a	n/a	0	0	0
2177558	REC_WORD	wordpools/wasnorm_wordpool_576.txt	LTP364	ltpFR2	4	11	SWORD	1423	n/a	n/a	0	0	0
2185157	REC_WORD	wordpools/wasnorm_wordpool_576.txt	LTP364	ltpFR2	4	11	TRACTOR	1493	n/a	n/a	0	0	0
2188542	REC_WORD	wordpools/wasnorm_wordpool_576.txt	LTP364	ltpFR2	4	11	COD	340	n/a	n/a	0	0	0
2194127	REC_WORD	wordpools/wasnorm_wordpool_576.txt	LTP364	ltpFR2	4	11	THIEF	1456	n/a	n/a	0	0	0
2195056	REC_WORD	wordpools/wasnorm_wordpool_576.txt	LTP364	ltpFR2	4	11	SCULPTURE	1258	n/a	n/a	0	0	0
2198600	REC_WORD	wordpools/wasnorm_wordpool_576.txt	LTP364	ltpFR2	4	11	SIDEWALK	1303	n/a	n/a	0	0	0
2204420	REC_WORD	wordpools/wasnorm_wordpool_576.txt	LTP364	ltpFR2	4	11	COMET	353	n/a	n/a	0	0	0
2205700	REC_WORD	wordpools/wasnorm_wordpool_576.txt	LTP364	ltpFR2	4	11	RUG	1215	n/a	n/a	0	0	0
2211289	REC_WORD	wordpools/wasnorm_wordpool_576.txt	LTP364	ltpFR2	4	11	PUPPY	1144	n/a	n/a	0	0	0
2220855	REC_WORD	wordpools/wasnorm_wordpool_576.txt	LTP364	ltpFR2	4	11	BRANCH	168	n/a	n/a	0	0	0
2222106	REC_WORD	wordpools/wasnorm_wordpool_576.txt	LTP364	ltpFR2	4	11	HEDGE	699	n/a	n/a	0	0	0
2263958	WORD	wordpools/wasnorm_wordpool_576.txt	LTP364	ltpFR2	4	12	SUMMIT	1405	n/a	n/a	0	0	0
2266473	WORD	wordpools/wasnorm_wordpool_576.txt	LTP364	ltpFR2	4	12	LEADER	807	n/a	n/a	0	0	0
2269157	WORD	wordpools/wasnorm_wordpool_576.txt	LTP364	ltpFR2	4	12	APPLE	33	n/a	n/a	0	0	0
2271788	WORD	wordpools/wasnorm_wordpool_576.txt	LTP364	ltpFR2	4	12	COFFEE	341	n/a	n/a	0	0	0
2274238	WORD	wordpools/wasnorm_wordpool_576.txt	LTP364	ltpFR2	4	12	RACKET	1155	n/a	n/a	0	0	0
2276852	WORD	wordpools/wasnorm_wordpool_576.txt	LTP364	ltpFR2	4	12	YOLK	1633	n/a	n/a	0	0	0
2279418	WORD	wordpools/wasnorm_wordpool_576.txt	LTP364	ltpFR2	4	12	VIRUS	1572	n/a	n/a	0	0	0
2281983	WORD	wordpools/wasnorm_wordpool_576.txt	LTP364	ltpFR2	4	12	SCARECROW	1245	n/a	n/a	0	0	0
2284582	WORD	wordpools/wasnorm_wordpool_576.txt	LTP364	ltpFR2	4	12	INMATE	738	n/a	n/a	0	0	0
2287265	WORD	wordpools/wasnorm_wordpool_576.txt	LTP364	ltpFR2	4	12	DRAGON	492	n/a	n/a	0	0	0
2289746	WORD	wordpools/wasnorm_wordpool_576.txt	LTP364	ltpFR2	4	12	COOK	372	n/a	n/a	0	0	0
2292329	WORD	wordpools/wasnorm_wordpool_576.txt	LTP364	ltpFR2	4	12	HIKER	708	n/a	n/a	0	0	0
2294977	WORD	wordpools/wasnorm_wordpool_576.txt	LTP364	ltpFR2	4	12	BALLOON	75	n/a	n/a	0	0	0
2297743	WORD	wordpools/wasnorm_wordpool_576.txt	LTP364	ltpFR2	4	12	MILDEW	893	n/a	n/a	0	0	0
2300309	WORD	wordpools/wasnorm_wordpool_576.txt	LTP364	ltpFR2	4	12	PARSLEY	1016	n/a	n/a	0	0	0
2302857	WORD	wordpools/wasnorm_wordpool_576.txt	LTP364	ltpFR2	4	12	BOX	159	n/a	n/a	0	0	0
2305439	WORD	wordpools/wasnorm_wordpool_576.txt	LTP364	ltpFR2	4	12	BARLEY	88	n/a	n/a	0	0	0
2308156	WORD	wordpools/wasnorm_wordpool_576.txt	LTP364	ltpFR2	4	12	CONTRACT	368	n/a	n/a	0	0	0
2310670	WORD	wordpools/wasnorm_wordpool_576.txt	LTP364	ltpFR2	4	12	PICTURE	1061	n/a	n/a	0	0	0
2313469	WORD	wordpools/wasnorm_wordpool_576.txt	LTP364	ltpFR2	4	12	PORTRAIT	1111	n/a	n/a	0	0	0
2315934	WORD	wordpools/wasnorm_wordpool_576.txt	LTP364	ltpFR2	4	12	ATOM	55	n/a	n/a	0	0	0
2318666	WORD	wordpools/wasnorm_wordpool_576.txt	LTP364	ltpFR2	4	12	YARN	1631	n/a	n/a	0	0	0
2321183	WORD	wordpools/wasnorm_wordpool_576.txt	LTP364	ltpFR2	4	12	MESSAGE	888	n/a	n/a	0	0	0
2323847	WORD	wordpools/wasnorm_wordpool_576.txt	LTP364	ltpFR2	4	12	CITRUS	313	n/a	n/a	0	0	0
2325464	START	n/a	LTP364	ltpFR2	4	n/a	n/a	n/a	16	n/a	n/a	n/a	n/a
2326352	DISTRACTOR	n/a	LTP364	ltpFR2	4	12	n/a	n/a	n/a	n/a	0	0	0
2326363	PROB	n/a	LTP364	ltpFR2	4	n/a	n/a	n/a	16	15	5	1	9
2328263	PROB	n/a	LTP364	ltpFR2	4	n/a	n/a	n/a	16	17	7	7	3
2330444	PROB	n/a	LTP364	ltpFR2	4	n/a	n/a	n/a	16	15	6	1	8
2333410	PROB	n/a	LTP364	ltpFR2	4	n/a	n/a	n/a	16	15	4	5	6
2335243	PROB	n/a	LTP364	ltpFR2	4	n/a	n/a	n/a	16	14	6	1	7
2337708	PROB	n/a	LTP364	ltpFR2	4	n/a	n/a	n/a	16	18	8	6	4
2339840	PROB	n/a	LTP364	ltpFR2	4	n/a	n/a	n/a	16	13	4	5	4
2343290	PROB	n/a	LTP364	ltpFR2	4	n/a	n/a	n/a	16	11	2	2	7
2344838	PROB	n/a	LTP364	ltpFR2	4	n/a	n/a	n/a	16	12	3	5	3
2346937	PROB	n/a	LTP364	ltpFR2	4	n/a	n/a	n/a	16	18	1	8	9
2348802	STOP	n/a	LTP364	ltpFR2	4	n/a	n/a	n/a	16	n/a	n/a	n/a	n/a
2351335	REC_START	n/a	LTP364	ltpFR2	4	12	n/a	n/a	n/a	n/a	0	0	0
2355899	REC_WORD	wordpools/wasnorm_wordpool_576.txt	LTP364	ltpFR2	4	12	SUMMIT	1405	n/a	n/a	0	0	0
2357081	REC_WORD	wordpools/wasnorm_wordpool_576.txt	LTP364	ltpFR2	4	12	LEADER	807	n/a	n/a	0	0	0
2358284	REC_WORD	wordpools/wasnorm_wordpool_576.txt	LTP364	ltpFR2	4	12	APPLE	33	n/a	n/a	0	0	0
2359506	REC_WORD	wordpools/wasnorm_wordpool_576.txt	LTP364	ltpFR2	4	12	COFFEE	341	n/a	n/a	0	0	0
2361547	REC_WORD	wordpools/wasnorm_wordpool_576.txt	LTP364	ltpFR2	4	12	YOLK	1633	n/a	n/a	0	0	0
2362476	REC_WORD	wordpools/wasnorm_wordpool_576.txt	LTP364	ltpFR2	4	12	RACKET	1155	n/a	n/a	0	0	0
2369688	REC_WORD	wordpools/wasnorm_wordpool_576.txt	LTP364	ltpFR2	4	12	VIRUS	1572	n/a	n/a	0	0	0
2370557	REC_WORD	wordpools/wasnorm_wordpool_576.txt	LTP364	ltpFR2	4	12	SCARECROW	1245	n/a	n/a	0	0	0
2371899	REC_WORD	wordpools/wasnorm_wordpool_576.txt	LTP364	ltpFR2	4	12	CONVICT	371	n/a	n/a	0	0	0
2373890	REC_WORD	wordpools/wasnorm_wordpool_576.txt	LTP364	ltpFR2	4	12	DRAGON	492	n/a	n/a	0	0	0
2378602	REC_WORD	wordpools/wasnorm_wordpool_576.txt	LTP364	ltpFR2	4	12	COOK	372	n/a	n/a	0	0	0
2379770	REC_WORD	wordpools/wasnorm_wordpool_576.txt	LTP364	ltpFR2	4	12	BALLOON	75	n/a	n/a	0	0	0
2381185	REC_WORD	wordpools/wasnorm_wordpool_576.txt	LTP364	ltpFR2	4	12	MILDEW	893	n/a	n/a	0	0	0
2382145	REC_WORD	wordpools/wasnorm_wordpool_576.txt	LTP364	ltpFR2	4	12	HIKER	708	n/a	n/a	0	0	0
2383881	REC_WORD	wordpools/wasnorm_wordpool_576.txt	LTP364	ltpFR2	4	12	PARSLEY	1016	n/a	n/a	0	0	0
2385096	REC_WORD	wordpools/wasnorm_wordpool_576.txt	LTP364	ltpFR2	4	12	BOX	159	n/a	n/a	0	0	0
2386156	REC_WORD	wordpools/wasnorm_wordpool_576.txt	LTP364	ltpFR2	4	12	BARLEY	88	n/a	n/a	0	0	0
2389226	REC_WORD	wordpools/wasnorm_wordpool_576.txt	LTP364	ltpFR2	4	12	YARN	1631	n/a	n/a	0	0	0
2400694	REC_WORD	wordpools/wasnorm_wordpool_576.txt	LTP364	ltpFR2	4	12	CONTRACT	368	n/a	n/a	0	0	0
2402881	REC_WORD	wordpools/wasnorm_wordpool_576.txt	LTP364	ltpFR2	4	12	PICTURE	1061	n/a	n/a	0	0	0
2403609	REC_WORD	wordpools/wasnorm_wordpool_576.txt	LTP364	ltpFR2	4	12	PORTRAIT	1111	n/a	n/a	0	0	0
2408511	REC_WORD	wordpools/wasnorm_wordpool_576.txt	LTP364	ltpFR2	4	12	ATOM	55	n/a	n/a	0	0	0
2441777	WORD	wordpools/wasnorm_wordpool_576.txt	LTP364	ltpFR2	4	13	WASHER	1592	n/a	n/a	0	0	0
2444543	WORD	wordpools/wasnorm_wordpool_576.txt	LTP364	ltpFR2	4	13	COBRA	336	n/a	n/a	0	0	0
2447059	WORD	wordpools/wasnorm_wordpool_576.txt	LTP364	ltpFR2	4	13	LIZARD	834	n/a	n/a	0	0	0
2449857	WORD	wordpools/wasnorm_wordpool_576.txt	LTP364	ltpFR2	4	13	TWISTER	1530	n/a	n/a	0	0	0
2452339	WORD	wordpools/wasnorm_wordpool_576.txt	LTP364	ltpFR2	4	13	PROTON	1132	n/a	n/a	0	0	0
2454855	WORD	wordpools/wasnorm_wordpool_576.txt	LTP364	ltpFR2	4	13	ROD	1203	n/a	n/a	0	0	0
2457570	WORD	wordpools/wasnorm_wordpool_576.txt	LTP364	ltpFR2	4	13	NIGHTGOWN	953	n/a	n/a	0	0	0
2460120	WORD	wordpools/wasnorm_wordpool_576.txt	LTP364	ltpFR2	4	13	COWBOY	395	n/a	n/a	0	0	0
2462584	WORD	wordpools/wasnorm_wordpool_576.txt	LTP364	ltpFR2	4	13	PARENT	1013	n/a	n/a	0	0	0
2465134	WORD	wordpools/wasnorm_wordpool_576.txt	LTP364	ltpFR2	4	13	PISTON	1076	n/a	n/a	0	0	0
2467949	WORD	wordpools/wasnorm_wordpool_576.txt	LTP364	ltpFR2	4	13	SWITCH	1422	n/a	n/a	0	0	0
2470764	WORD	wordpools/wasnorm_wordpool_576.txt	LTP364	ltpFR2	4	13	BREAST	171	n/a	n/a	0	0	0
2473380	WORD	wordpools/wasnorm_wordpool_576.txt	LTP364	ltpFR2	4	13	MISSILE	900	n/a	n/a	0	0	0
2476196	WORD	wordpools/wasnorm_wordpool_576.txt	LTP364	ltpFR2	4	13	ROCKET	1202	n/a	n/a	0	0	0
2478894	WORD	wordpools/wasnorm_wordpool_576.txt	LTP364	ltpFR2	4	13	OUTLAW	989	n/a	n/a	0	0	0
2481693	WORD	wordpools/wasnorm_wordpool_576.txt	LTP364	ltpFR2	4	13	LETTUCE	814	n/a	n/a	0	0	0
2484292	WORD	wordpools/wasnorm_wordpool_576.txt	LTP364	ltpFR2	4	13	JAPAN	749	n/a	n/a	0	0	0
2486724	WORD	wordpools/wasnorm_wordpool_576.txt	LTP364	ltpFR2	4	13	DAUGHTER	442	n/a	n/a	0	0	0
2489439	WORD	wordpools/wasnorm_wordpool_576.txt	LTP364	ltpFR2	4	13	WIFE	1609	n/a	n/a	0	0	0
2491938	WORD	wordpools/wasnorm_wordpool_576.txt	LTP364	ltpFR2	4	13	TRUCK	1512	n/a	n/a	0	0	0
2494687	WORD	wordpools/wasnorm_wordpool_576.txt	LTP364	ltpFR2	4	13	KEEPER	769	n/a	n/a	0	0	0
2497186	WORD	wordpools/wasnorm_wordpool_576.txt	LTP364	ltpFR2	4	13	HOOD	714	n/a	n/a	0	0	0
2499651	WORD	wordpools/wasnorm_wordpool_576.txt	LTP364	ltpFR2	4	13	KNIFE	785	n/a	n/a	0	0	0
2502433	WORD	wordpools/wasnorm_wordpool_576.txt	LTP364	ltpFR2	4	13	KLEENEX	782	n/a	n/a	0	0	0
2504050	START	n/a	LTP364	ltpFR2	4	n/a	n/a	n/a	17	n/a	n/a	n/a	n/a
2505204	DISTRACTOR	n/a	LTP364	ltpFR2	4	13	n/a	n/a	n/a	n/a	0	0	0
2505216	PROB	n/a	LTP364	ltpFR2	4	n/a	n/a	n/a	17	10	2	6	2
2507447	PROB	n/a	LTP364	ltpFR2	4	n/a	n/a	n/a	17	12	2	9	1
2509298	PROB	n/a	LTP364	ltpFR2	4	n/a	n/a	n/a	17	12	6	4	2
2510713	PROB	n/a	LTP364	ltpFR2	4	n/a	n/a	n/a	17	17	9	2	6
2513012	PROB	n/a	LTP364	ltpFR2	4	n/a	n/a	n/a	17	11	5	2	4
2515610	PROB	n/a	LTP364	ltpFR2	4	n/a	n/a	n/a	17	15	5	2	8
2517327	PROB	n/a	LTP364	ltpFR2	4	n/a	n/a	n/a	17	12	3	6	3
2519359	PROB	n/a	LTP364	ltpFR2	4	n/a	n/a	n/a	17	19	9	7	3
2521159	PROB	n/a	LTP364	ltpFR2	4	n/a	n/a	n/a	17	13	9	1	3
2528050	STOP	n/a	LTP364	ltpFR2	4	n/a	n/a	n/a	17	n/a	n/a	n/a	n/a
2529904	REC_START	n/a	LTP364	ltpFR2	4	13	n/a	n/a	n/a	n/a	0	0	0
2535833	REC_WORD	wordpools/wasnorm_wordpool_576.txt	LTP364	ltpFR2	4	13	WASHER	1592	n/a	n/a	0	0	0
2538482	REC_WORD	wordpools/wasnorm_wordpool_576.txt	LTP364	ltpFR2	4	13	SNAKE	1333	n/a	n/a	0	0	0
2539581	REC_WORD	wordpools/wasnorm_wordpool_576.txt	LTP364	ltpFR2	4	13	LIZARD	834	n/a	n/a	0	0	0
2544179	REC_WORD	wordpools/wasnorm_wordpool_576.txt	LTP364	ltpFR2	4	13	TWISTER	1530	n/a	n/a	0	0	0
2550218	REC_WORD	wordpools/wasnorm_wordpool_576.txt	LTP364	ltpFR2	4	13	PROTON	1132	n/a	n/a	0	0	0
2554217	REC_WORD	wordpools/wasnorm_wordpool_576.txt	LTP364	ltpFR2	4	13	ROD	1203	n/a	n/a	0	0	0
2562666	REC_WORD	wordpools/wasnorm_wordpool_576.txt	LTP364	ltpFR2	4	13	NIGHTGOWN	953	n/a	n/a	0	0	0
2564418	REC_WORD	wordpools/wasnorm_wordpool_576.txt	LTP364	ltpFR2	4	13	COWBOY	395	n/a	n/a	0	0	0
2581844	REC_WORD	wordpools/wasnorm_wordpool_576.txt	LTP364	ltpFR2	4	13	PARENT	1013	n/a	n/a	0	0	0
2584235	REC_WORD	wordpools/wasnorm_wordpool_576.txt	LTP364	ltpFR2	4	13	ROCKET	1202	n/a	n/a	0	0	0
2588630	REC_WORD	wordpools/wasnorm_wordpool_576.txt	LTP364	ltpFR2	4	13	LETTUCE	814	n/a	n/a	0	0	0
2589597	REC_WORD	wordpools/wasnorm_wordpool_576.txt	LTP364	ltpFR2	4	13	JAPAN	749	n/a	n/a	0	0	0
2591941	REC_WORD	wordpools/wasnorm_wordpool_576.txt	LTP364	ltpFR2	4	13	DAUGHTER	442	n/a	n/a	0	0	0
2594567	REC_WORD	wordpools/wasnorm_wordpool_576.txt	LTP364	ltpFR2	4	13	MOTHER	921	n/a	n/a	0	0	0
2597233	REC_WORD	wordpools/wasnorm_wordpool_576.txt	LTP364	ltpFR2	4	13	TRUCK	1512	n/a	n/a	0	0	0
2599150	REC_WORD	wordpools/wasnorm_wordpool_576.txt	LTP364	ltpFR2	4	13	GUARDIAN	668	n/a	n/a	0	0	0
2601015	REC_WORD	wordpools/wasnorm_wordpool_576.txt	LTP364	ltpFR2	4	13	KNIFE	785	n/a	n/a	0	0	0
2603000	REC_WORD	wordpools/wasnorm_wordpool_576.txt	LTP364	ltpFR2	4	13	HOOD	714	n/a	n/a	0	0	0
2603732	REC_WORD	wordpools/wasnorm_wordpool_576.txt	LTP364	ltpFR2	4	13	KLEENEX	782	n/a	n/a	0	0	0
2620330	DISTRACTOR	n/a	LTP364	ltpFR2	4	14	n/a	n/a	n/a	n/a	0	0	0
2620330	START	n/a	LTP364	ltpFR2	4	n/a	n/a	n/a	18	n/a	n/a	n/a	n/a
2620346	PROB	n/a	LTP364	ltpFR2	4	n/a	n/a	n/a	18	18	6	9	3
2622762	PROB	n/a	LTP364	ltpFR2	4	n/a	n/a	n/a	18	21	9	3	9
2626727	PROB	n/a	LTP364	ltpFR2	4	n/a	n/a	n/a	18	18	5	5	8
2628044	PROB	n/a	LTP364	ltpFR2	4	n/a	n/a	n/a	18	23	8	9	6
2631391	PROB	n/a	LTP364	ltpFR2	4	n/a	n/a	n/a	18	12	3	2	7
2633241	PROB	n/a	LTP364	ltpFR2	4	n/a	n/a	n/a	18	17	6	9	2
2635423	PROB	n/a	LTP364	ltpFR2	4	n/a	n/a	n/a	18	11	4	1	6
2637622	PROB	n/a	LTP364	ltpFR2	4	n/a	n/a	n/a	18	12	1	9	2
2639072	PROB	n/a	LTP364	ltpFR2	4	n/a	n/a	n/a	18	15	2	5	8
2643131	STOP	n/a	LTP364	ltpFR2	4	n/a	n/a	n/a	18	n/a	n/a	n/a	n/a
2645219	WORD	wordpools/wasnorm_wordpool_576.txt	LTP364	ltpFR2	4	14	MARSH	874	n/a	n/a	0	0	0
2647950	WORD	wordpools/wasnorm_wordpool_576.txt	LTP364	ltpFR2	4	14	MAILBOX	857	n/a	n/a	0	0	0
2650583	WORD	wordpools/wasnorm_wordpool_576.txt	LTP364	ltpFR2	4	14	LABEL	790	n/a	n/a	0	0	0
2653066	WORD	wordpools/wasnorm_wordpool_576.txt	LTP364	ltpFR2	4	14	SPOUSE	1358	n/a	n/a	0	0	0
2655747	WORD	wordpools/wasnorm_wordpool_576.txt	LTP364	ltpFR2	4	14	HUSBAND	728	n/a	n/a	0	0	0
2658330	WORD	wordpools/wasnorm_wordpool_576.txt	LTP364	ltpFR2	4	14	FRAME	600	n/a	n/a	0	0	0
2660961	WORD	wordpools/wasnorm_wordpool_576.txt	LTP364	ltpFR2	4	14	PREACHER	1119	n/a	n/a	0	0	0
2663560	WORD	wordpools/wasnorm_wordpool_576.txt	LTP364	ltpFR2	4	14	FLUTE	585	n/a	n/a	0	0	0
2666177	WORD	wordpools/wasnorm_wordpool_576.txt	LTP364	ltpFR2	4	14	DORM	488	n/a	n/a	0	0	0
2668858	WORD	wordpools/wasnorm_wordpool_576.txt	LTP364	ltpFR2	4	14	LION	827	n/a	n/a	0	0	0
2671423	WORD	wordpools/wasnorm_wordpool_576.txt	LTP364	ltpFR2	4	14	SWIMMER	1420	n/a	n/a	0	0	0
2674206	WORD	wordpools/wasnorm_wordpool_576.txt	LTP364	ltpFR2	4	14	PEPPER	1047	n/a	n/a	0	0	0
2676771	WORD	wordpools/wasnorm_wordpool_576.txt	LTP364	ltpFR2	4	14	ROOSTER	1209	n/a	n/a	0	0	0
2679271	WORD	wordpools/wasnorm_wordpool_576.txt	LTP364	ltpFR2	4	14	MACHINE	852	n/a	n/a	0	0	0
2681735	WORD	wordpools/wasnorm_wordpool_576.txt	LTP364	ltpFR2	4	14	TRIBE	1505	n/a	n/a	0	0	0
2684268	WORD	wordpools/wasnorm_wordpool_576.txt	LTP364	ltpFR2	4	14	HANDBAG	684	n/a	n/a	0	0	0
2686966	WORD	wordpools/wasnorm_wordpool_576.txt	LTP364	ltpFR2	4	14	KNAPSACK	783	n/a	n/a	0	0	0
2689782	WORD	wordpools/wasnorm_wordpool_576.txt	LTP364	ltpFR2	4	14	GRIZZLY	662	n/a	n/a	0	0	0
2692497	WORD	wordpools/wasnorm_wordpool_576.txt	LTP364	ltpFR2	4	14	DONKEY	484	n/a	n/a	0	0	0
2695163	WORD	wordpools/wasnorm_wordpool_576.txt	LTP364	ltpFR2	4	14	EMPIRE	530	n/a	n/a	0	0	0
2697711	WORD	wordpools/wasnorm_wordpool_576.txt	LTP364	ltpFR2	4	14	ROBOT	1200	n/a	n/a	0	0	0
2700228	WORD	wordpools/wasnorm_wordpool_576.txt	LTP364	ltpFR2	4	14	LIPSTICK	829	n/a	n/a	0	0	0
2702909	WORD	wordpools/wasnorm_wordpool_576.txt	LTP364	ltpFR2	4	14	NOMAD	955	n/a	n/a	0	0	0
2705524	WORD	wordpools/wasnorm_wordpool_576.txt	LTP364	ltpFR2	4	14	FOOT	590	n/a	n/a	0	0	0
2707141	START	n/a	LTP364	ltpFR2	4	n/a	n/a	n/a	19	n/a	n/a	n/a	n/a
2708052	DISTRACTOR	n/a	LTP364	ltpFR2	4	14	n/a	n/a	n/a	n/a	0	0	0
2708058	PROB	n/a	LTP364	ltpFR2	4	n/a	n/a	n/a	19	19	9	9	1
2710639	PROB	n/a	LTP364	ltpFR2	4	n/a	n/a	n/a	19	16	5	4	7
2712754	PROB	n/a	LTP364	ltpFR2	4	n/a	n/a	n/a	19	13	2	9	2
2714820	PROB	n/a	LTP364	ltpFR2	4	n/a	n/a	n/a	19	15	8	5	2
2718485	PROB	n/a	LTP364	ltpFR2	4	n/a	n/a	n/a	19	18	8	6	4
2720418	PROB	n/a	LTP364	ltpFR2	4	n/a	n/a	n/a	19	17	3	7	7
2722218	PROB	n/a	LTP364	ltpFR2	4	n/a	n/a	n/a	19	15	9	1	5
2723566	PROB	n/a	LTP364	ltpFR2	4	n/a	n/a	n/a	19	23	5	9	9
2726565	PROB	n/a	LTP364	ltpFR2	4	n/a	n/a	n/a	19	17	9	7	1
2729797	STOP	n/a	LTP364	ltpFR2	4	n/a	n/a	n/a	19	n/a	n/a	n/a	n/a
2732979	REC_START	n/a	LTP364	ltpFR2	4	14	n/a	n/a	n/a	n/a	0	0	0
2735985	REC_WORD	wordpools/wasnorm_wordpool_576.txt	LTP364	ltpFR2	4	14	MARSH	874	n/a	n/a	0	0	0
2737019	REC_WORD	wordpools/wasnorm_wordpool_576.txt	LTP364	ltpFR2	4	14	MAILBOX	857	n/a	n/a	0	0	0
2738138	REC_WORD	wordpools/wasnorm_wordpool_576.txt	LTP364	ltpFR2	4	14	LABEL	790	n/a	n/a	0	0	0
2739233	REC_WORD	wordpools/wasnorm_wordpool_576.txt	LTP364	ltpFR2	4	14	SPOUSE	1358	n/a	n/a	0	0	0
2740548	REC_WORD	wordpools/wasnorm_wordpool_576.txt	LTP364	ltpFR2	4	14	HUSBAND	728	n/a	n/a	0	0	0
2749114	REC_WORD	wordpools/wasnorm_wordpool_576.txt	LTP364	ltpFR2	4	14	PICTURE	1061	n/a	n/a	0	0	0
2750710	REC_WORD	wordpools/wasnorm_wordpool_576.txt	LTP364	ltpFR2	4	14	FRAME	600	n/a	n/a	0	0	0
2752851	REC_WORD	wordpools/wasnorm_wordpool_576.txt	LTP364	ltpFR2	4	14	PREACHER	1119	n/a	n/a	0	0	0
2753879	REC_WORD	wordpools/wasnorm_wordpool_576.txt	LTP364	ltpFR2	4	14	FLUTE	585	n/a	n/a	0	0	0
2754942	REC_WORD	wordpools/wasnorm_wordpool_576.txt	LTP364	ltpFR2	4	14	DORM	488	n/a	n/a	0	0	0
2756065	REC_WORD	wordpools/wasnorm_wordpool_576.txt	LTP364	ltpFR2	4	14	LION	827	n/a	n/a	0	0	0
2757185	REC_WORD	wordpools/wasnorm_wordpool_576.txt	LTP364	ltpFR2	4	14	SWIMMER	1420	n/a	n/a	0	0	0
2767440	REC_WORD	wordpools/wasnorm_wordpool_576.txt	LTP364	ltpFR2	4	14	DONKEY	484	n/a	n/a	0	0	0
2768289	REC_WORD	wordpools/wasnorm_wordpool_576.txt	LTP364	ltpFR2	4	14	GRIZZLY	662	n/a	n/a	0	0	0
2771528	REC_WORD	wordpools/wasnorm_wordpool_576.txt	LTP364	ltpFR2	4	14	PEPPER	1047	n/a	n/a	0	0	0
2773362	REC_WORD	wordpools/wasnorm_wordpool_576.txt	LTP364	ltpFR2	4	14	EMPIRE	530	n/a	n/a	0	0	0
2775213	REC_WORD	wordpools/wasnorm_wordpool_576.txt	LTP364	ltpFR2	4	14	ROBOT	1200	n/a	n/a	0	0	0
2775946	REC_WORD	wordpools/wasnorm_wordpool_576.txt	LTP364	ltpFR2	4	14	MACHINE	852	n/a	n/a	0	0	0
2780797	REC_WORD	wordpools/wasnorm_wordpool_576.txt	LTP364	ltpFR2	4	14	BACKPACK	-1	n/a	n/a	0	0	0
2781565	REC_WORD	wordpools/wasnorm_wordpool_576.txt	LTP364	ltpFR2	4	14	KNAPSACK	783	n/a	n/a	0	0	0
2784820	REC_WORD	wordpools/wasnorm_wordpool_576.txt	LTP364	ltpFR2	4	14	HANDBAG	684	n/a	n/a	0	0	0
2823421	WORD	wordpools/wasnorm_wordpool_576.txt	LTP364	ltpFR2	4	15	GYMNAST	675	n/a	n/a	0	0	0
2826087	WORD	wordpools/wasnorm_wordpool_576.txt	LTP364	ltpFR2	4	15	JUGGLER	763	n/a	n/a	0	0	0
2828835	WORD	wordpools/wasnorm_wordpool_576.txt	LTP364	ltpFR2	4	15	WRENCH	1625	n/a	n/a	0	0	0
2831501	WORD	wordpools/wasnorm_wordpool_576.txt	LTP364	ltpFR2	4	15	DUST	508	n/a	n/a	0	0	0
2834300	WORD	wordpools/wasnorm_wordpool_576.txt	LTP364	ltpFR2	4	15	BEAST	108	n/a	n/a	0	0	0
2837049	WORD	wordpools/wasnorm_wordpool_576.txt	LTP364	ltpFR2	4	15	SCALPEL	1243	n/a	n/a	0	0	0
2839730	WORD	wordpools/wasnorm_wordpool_576.txt	LTP364	ltpFR2	4	15	PLAZA	1088	n/a	n/a	0	0	0
2842197	WORD	wordpools/wasnorm_wordpool_576.txt	LTP364	ltpFR2	4	15	CASHIER	254	n/a	n/a	0	0	0
2844861	WORD	wordpools/wasnorm_wordpool_576.txt	LTP364	ltpFR2	4	15	OUTDOORS	987	n/a	n/a	0	0	0
2847493	WORD	wordpools/wasnorm_wordpool_576.txt	LTP364	ltpFR2	4	15	MARROW	872	n/a	n/a	0	0	0
2849976	WORD	wordpools/wasnorm_wordpool_576.txt	LTP364	ltpFR2	4	15	HIGHWAY	707	n/a	n/a	0	0	0
2852458	WORD	wordpools/wasnorm_wordpool_576.txt	LTP364	ltpFR2	4	15	BISON	131	n/a	n/a	0	0	0
2855257	WORD	wordpools/wasnorm_wordpool_576.txt	LTP364	ltpFR2	4	15	SEAL	1262	n/a	n/a	0	0	0
2857739	WORD	wordpools/wasnorm_wordpool_576.txt	LTP364	ltpFR2	4	15	WINDOW	1611	n/a	n/a	0	0	0
2860305	WORD	wordpools/wasnorm_wordpool_576.txt	LTP364	ltpFR2	4	15	PIANO	1057	n/a	n/a	0	0	0
2863037	WORD	wordpools/wasnorm_wordpool_576.txt	LTP364	ltpFR2	4	15	LUMBER	848	n/a	n/a	0	0	0
2865469	WORD	wordpools/wasnorm_wordpool_576.txt	LTP364	ltpFR2	4	15	LADY	794	n/a	n/a	0	0	0
2868085	WORD	wordpools/wasnorm_wordpool_576.txt	LTP364	ltpFR2	4	15	POSTAGE	1113	n/a	n/a	0	0	0
2870899	WORD	wordpools/wasnorm_wordpool_576.txt	LTP364	ltpFR2	4	15	BACKBONE	66	n/a	n/a	0	0	0
2873615	WORD	wordpools/wasnorm_wordpool_576.txt	LTP364	ltpFR2	4	15	MEDAL	885	n/a	n/a	0	0	0
2876414	WORD	wordpools/wasnorm_wordpool_576.txt	LTP364	ltpFR2	4	15	TYPIST	1532	n/a	n/a	0	0	0
2879013	WORD	wordpools/wasnorm_wordpool_576.txt	LTP364	ltpFR2	4	15	ARMY	39	n/a	n/a	0	0	0
2881661	WORD	wordpools/wasnorm_wordpool_576.txt	LTP364	ltpFR2	4	15	TOURIST	1488	n/a	n/a	0	0	0
2884410	WORD	wordpools/wasnorm_wordpool_576.txt	LTP364	ltpFR2	4	15	AWARD	63	n/a	n/a	0	0	0
2886027	START	n/a	LTP364	ltpFR2	4	n/a	n/a	n/a	20	n/a	n/a	n/a	n/a
2886844	DISTRACTOR	n/a	LTP364	ltpFR2	4	15	n/a	n/a	n/a	n/a	0	0	0
2886859	PROB	n/a	LTP364	ltpFR2	4	n/a	n/a	n/a	20	14	1	9	4
2888775	PROB	n/a	LTP364	ltpFR2	4	n/a	n/a	n/a	20	23	7	9	7
2891208	PROB	n/a	LTP364	ltpFR2	4	n/a	n/a	n/a	20	17	3	8	6
2893722	PROB	n/a	LTP364	ltpFR2	4	n/a	n/a	n/a	20	20	8	8	4
2895955	PROB	n/a	LTP364	ltpFR2	4	n/a	n/a	n/a	20	10	4	4	2
2897887	PROB	n/a	LTP364	ltpFR2	4	n/a	n/a	n/a	20	21	8	9	4
2902718	PROB	n/a	LTP364	ltpFR2	4	n/a	n/a	n/a	20	20	9	4	7
2910027	STOP	n/a	LTP364	ltpFR2	4	n/a	n/a	n/a	20	n/a	n/a	n/a	n/a
2911965	REC_START	n/a	LTP364	ltpFR2	4	15	n/a	n/a	n/a	n/a	0	0	0
2915300	REC_WORD	wordpools/wasnorm_wordpool_576.txt	LTP364	ltpFR2	4	15	GYMNAST	675	n/a	n/a	0	0	0
2916421	REC_WORD	wordpools/wasnorm_wordpool_576.txt	LTP364	ltpFR2	4	15	JUGGLER	763	n/a	n/a	0	0	0
2920759	REC_WORD	wordpools/wasnorm_wordpool_576.txt	LTP364	ltpFR2	4	15	WRENCH	1625	n/a	n/a	0	0	0
2922657	REC_WORD	wordpools/wasnorm_wordpool_576.txt	LTP364	ltpFR2	4	15	DUST	508	n/a	n/a	0	0	0
2926178	REC_WORD	wordpools/wasnorm_wordpool_576.txt	LTP364	ltpFR2	4	15	PLAZA	1088	n/a	n/a	0	0	0
2926986	REC_WORD	wordpools/wasnorm_wordpool_576.txt	LTP364	ltpFR2	4	15	CASHIER	254	n/a	n/a	0	0	0
2927799	REC_WORD	wordpools/wasnorm_wordpool_576.txt	LTP364	ltpFR2	4	15	OUTDOORS	987	n/a	n/a	0	0	0
2932606	REC_WORD	wordpools/wasnorm_wordpool_576.txt	LTP364	ltpFR2	4	15	MARROW	872	n/a	n/a	0	0	0
2933937	REC_WORD	wordpools/wasnorm_wordpool_576.txt	LTP364	ltpFR2	4	15	HIGHWAY	707	n/a	n/a	0	0	0
2938672	REC_WORD	wordpools/wasnorm_wordpool_576.txt	LTP364	ltpFR2	4	15	BISON	131	n/a	n/a	0	0	0
2941287	REC_WORD	wordpools/wasnorm_wordpool_576.txt	LTP364	ltpFR2	4	15	SEAL	1262	n/a	n/a	0	0	0
2942870	REC_WORD	wordpools/wasnorm_wordpool_576.txt	LTP364	ltpFR2	4	15	WINDOW	1611	n/a	n/a	0	0	0
2943948	REC_WORD	wordpools/wasnorm_wordpool_576.txt	LTP364	ltpFR2	4	15	PIANO	1057	n/a	n/a	0	0	0
2945065	REC_WORD	wordpools/wasnorm_wordpool_576.txt	LTP364	ltpFR2	4	15	LUMBER	848	n/a	n/a	0	0	0
2946925	REC_WORD	wordpools/wasnorm_wordpool_576.txt	LTP364	ltpFR2	4	15	DANCER	437	n/a	n/a	0	0	0
2948165	REC_WORD	wordpools/wasnorm_wordpool_576.txt	LTP364	ltpFR2	4	15	POSTAGE	1113	n/a	n/a	0	0	0
2950125	REC_WORD	wordpools/wasnorm_wordpool_576.txt	LTP364	ltpFR2	4	15	TYPIST	1532	n/a	n/a	0	0	0
2951521	REC_WORD	wordpools/wasnorm_wordpool_576.txt	LTP364	ltpFR2	4	15	ARMY	39	n/a	n/a	0	0	0
2957931	REC_WORD	wordpools/wasnorm_wordpool_576.txt	LTP364	ltpFR2	4	15	MEDAL	885	n/a	n/a	0	0	0
2960325	REC_WORD	wordpools/wasnorm_wordpool_576.txt	LTP364	ltpFR2	4	15	AWARD	63	n/a	n/a	0	0	0
2963227	REC_WORD	wordpools/wasnorm_wordpool_576.txt	LTP364	ltpFR2	4	15	BACKBONE	66	n/a	n/a	0	0	0
2965648	REC_WORD	wordpools/wasnorm_wordpool_576.txt	LTP364	ltpFR2	4	15	TOURIST	1488	n/a	n/a	0	0	0
3002423	DISTRACTOR	n/a	LTP364	ltpFR2	4	16	n/a	n/a	n/a	n/a	0	0	0
3002423	START	n/a	LTP364	ltpFR2	4	n/a	n/a	n/a	21	n/a	n/a	n/a	n/a
3002440	PROB	n/a	LTP364	ltpFR2	4	n/a	n/a	n/a	21	11	4	1	6
3005538	PROB	n/a	LTP364	ltpFR2	4	n/a	n/a	n/a	21	20	9	4	7
3009121	PROB	n/a	LTP364	ltpFR2	4	n/a	n/a	n/a	21	11	3	7	1
3010969	PROB	n/a	LTP364	ltpFR2	4	n/a	n/a	n/a	21	17	7	8	2
3012935	PROB	n/a	LTP364	ltpFR2	4	n/a	n/a	n/a	21	21	6	9	6
3016567	PROB	n/a	LTP364	ltpFR2	4	n/a	n/a	n/a	21	12	6	3	3
3018383	PROB	n/a	LTP364	ltpFR2	4	n/a	n/a	n/a	21	16	2	7	7
3020216	PROB	n/a	LTP364	ltpFR2	4	n/a	n/a	n/a	21	17	7	6	4
3021748	PROB	n/a	LTP364	ltpFR2	4	n/a	n/a	n/a	21	13	2	9	2
3026422	STOP	n/a	LTP364	ltpFR2	4	n/a	n/a	n/a	21	n/a	n/a	n/a	n/a
3027445	WORD	wordpools/wasnorm_wordpool_576.txt	LTP364	ltpFR2	4	16	JUNGLE	764	n/a	n/a	0	0	0
3030261	WORD	wordpools/wasnorm_wordpool_576.txt	LTP364	ltpFR2	4	16	SLOPE	1328	n/a	n/a	0	0	0
3033077	WORD	wordpools/wasnorm_wordpool_576.txt	LTP364	ltpFR2	4	16	POET	1095	n/a	n/a	0	0	0
3035791	WORD	wordpools/wasnorm_wordpool_576.txt	LTP364	ltpFR2	4	16	SHERIFF	1284	n/a	n/a	0	0	0
3038258	WORD	wordpools/wasnorm_wordpool_576.txt	LTP364	ltpFR2	4	16	PECAN	1036	n/a	n/a	0	0	0
3040722	WORD	wordpools/wasnorm_wordpool_576.txt	LTP364	ltpFR2	4	16	PRIMATE	1123	n/a	n/a	0	0	0
3043371	WORD	wordpools/wasnorm_wordpool_576.txt	LTP364	ltpFR2	4	16	LUGGAGE	847	n/a	n/a	0	0	0
3046104	WORD	wordpools/wasnorm_wordpool_576.txt	LTP364	ltpFR2	4	16	UNCLE	1536	n/a	n/a	0	0	0
3048602	WORD	wordpools/wasnorm_wordpool_576.txt	LTP364	ltpFR2	4	16	HATCHET	691	n/a	n/a	0	0	0
3051085	WORD	wordpools/wasnorm_wordpool_576.txt	LTP364	ltpFR2	4	16	ANKLE	24	n/a	n/a	0	0	0
3053783	WORD	wordpools/wasnorm_wordpool_576.txt	LTP364	ltpFR2	4	16	HERO	706	n/a	n/a	0	0	0
3056432	WORD	wordpools/wasnorm_wordpool_576.txt	LTP364	ltpFR2	4	16	CANYON	235	n/a	n/a	0	0	0
3059215	WORD	wordpools/wasnorm_wordpool_576.txt	LTP364	ltpFR2	4	16	PLIERS	1089	n/a	n/a	0	0	0
3061963	WORD	wordpools/wasnorm_wordpool_576.txt	LTP364	ltpFR2	4	16	LACE	792	n/a	n/a	0	0	0
3064412	WORD	wordpools/wasnorm_wordpool_576.txt	LTP364	ltpFR2	4	16	SILK	1307	n/a	n/a	0	0	0
3066911	WORD	wordpools/wasnorm_wordpool_576.txt	LTP364	ltpFR2	4	16	CEILING	265	n/a	n/a	0	0	0
3069459	WORD	wordpools/wasnorm_wordpool_576.txt	LTP364	ltpFR2	4	16	TILE	1468	n/a	n/a	0	0	0
3072092	WORD	wordpools/wasnorm_wordpool_576.txt	LTP364	ltpFR2	4	16	SPOON	1357	n/a	n/a	0	0	0
3074607	WORD	wordpools/wasnorm_wordpool_576.txt	LTP364	ltpFR2	4	16	JUDGE	761	n/a	n/a	0	0	0
3077090	WORD	wordpools/wasnorm_wordpool_576.txt	LTP364	ltpFR2	4	16	SHOVEL	1295	n/a	n/a	0	0	0
3079738	WORD	wordpools/wasnorm_wordpool_576.txt	LTP364	ltpFR2	4	16	PIGEON	1065	n/a	n/a	0	0	0
3082354	WORD	wordpools/wasnorm_wordpool_576.txt	LTP364	ltpFR2	4	16	MATTRESS	879	n/a	n/a	0	0	0
3084952	WORD	wordpools/wasnorm_wordpool_576.txt	LTP364	ltpFR2	4	16	MOTEL	919	n/a	n/a	0	0	0
3087501	WORD	wordpools/wasnorm_wordpool_576.txt	LTP364	ltpFR2	4	16	DONOR	485	n/a	n/a	0	0	0
3089118	START	n/a	LTP364	ltpFR2	4	n/a	n/a	n/a	22	n/a	n/a	n/a	n/a
3090018	DISTRACTOR	n/a	LTP364	ltpFR2	4	16	n/a	n/a	n/a	n/a	0	0	0
3090034	PROB	n/a	LTP364	ltpFR2	4	n/a	n/a	n/a	22	15	4	9	2
3092499	PROB	n/a	LTP364	ltpFR2	4	n/a	n/a	n/a	22	6	2	2	2
3093848	PROB	n/a	LTP364	ltpFR2	4	n/a	n/a	n/a	22	20	7	8	5
3098413	PROB	n/a	LTP364	ltpFR2	4	n/a	n/a	n/a	22	15	5	1	7
3101263	PROB	n/a	LTP364	ltpFR2	4	n/a	n/a	n/a	22	12	1	4	7
3104211	PROB	n/a	LTP364	ltpFR2	4	n/a	n/a	n/a	22	17	5	8	4
3107425	PROB	n/a	LTP364	ltpFR2	4	n/a	n/a	n/a	22	18	9	5	4
3109341	PROB	n/a	LTP364	ltpFR2	4	n/a	n/a	n/a	22	13	2	3	8
3113118	STOP	n/a	LTP364	ltpFR2	4	n/a	n/a	n/a	22	n/a	n/a	n/a	n/a
3115040	REC_START	n/a	LTP364	ltpFR2	4	16	n/a	n/a	n/a	n/a	0	0	0
3117325	REC_WORD	wordpools/wasnorm_wordpool_576.txt	LTP364	ltpFR2	4	16	JUNGLE	764	n/a	n/a	0	0	0
3118355	REC_WORD	wordpools/wasnorm_wordpool_576.txt	LTP364	ltpFR2	4	16	SLOPE	1328	n/a	n/a	0	0	0
3119511	REC_WORD	wordpools/wasnorm_wordpool_576.txt	LTP364	ltpFR2	4	16	POET	1095	n/a	n/a	0	0	0
3120749	REC_WORD	wordpools/wasnorm_wordpool_576.txt	LTP364	ltpFR2	4	16	SHERIFF	1284	n/a	n/a	0	0	0
3122106	REC_WORD	wordpools/wasnorm_wordpool_576.txt	LTP364	ltpFR2	4	16	UNCLE	1536	n/a	n/a	0	0	0
3126135	REC_WORD	wordpools/wasnorm_wordpool_576.txt	LTP364	ltpFR2	4	16	HATCHET	691	n/a	n/a	0	0	0
3127221	REC_WORD	wordpools/wasnorm_wordpool_576.txt	LTP364	ltpFR2	4	16	ANKLE	24	n/a	n/a	0	0	0
3129512	REC_WORD_VV	wordpools/wasnorm_wordpool_576.txt	LTP364	ltpFR2	4	16	<>	-1	n/a	n/a	0	0	0
3130461	REC_WORD	wordpools/wasnorm_wordpool_576.txt	LTP364	ltpFR2	4	16	CANYON	235	n/a	n/a	0	0	0
3134159	REC_WORD	wordpools/wasnorm_wordpool_576.txt	LTP364	ltpFR2	4	16	PLIERS	1089	n/a	n/a	0	0	0
3135510	REC_WORD	wordpools/wasnorm_wordpool_576.txt	LTP364	ltpFR2	4	16	LACE	792	n/a	n/a	0	0	0
3136428	REC_WORD	wordpools/wasnorm_wordpool_576.txt	LTP364	ltpFR2	4	16	SILK	1307	n/a	n/a	0	0	0
3137449	REC_WORD	wordpools/wasnorm_wordpool_576.txt	LTP364	ltpFR2	4	16	CEILING	265	n/a	n/a	0	0	0
3138592	REC_WORD	wordpools/wasnorm_wordpool_576.txt	LTP364	ltpFR2	4	16	TILE	1468	n/a	n/a	0	0	0
3142224	REC_WORD	wordpools/wasnorm_wordpool_576.txt	LTP364	ltpFR2	4	16	SPOON	1357	n/a	n/a	0	0	0
3143394	REC_WORD	wordpools/wasnorm_wordpool_576.txt	LTP364	ltpFR2	4	16	JUDGE	761	n/a	n/a	0	0	0
3144648	REC_WORD	wordpools/wasnorm_wordpool_576.txt	LTP364	ltpFR2	4	16	SHOVEL	1295	n/a	n/a	0	0	0
3145572	REC_WORD	wordpools/wasnorm_wordpool_576.txt	LTP364	ltpFR2	4	16	PIGEON	1065	n/a	n/a	0	0	0
3149325	REC_WORD	wordpools/wasnorm_wordpool_576.txt	LTP364	ltpFR2	4	16	MATTRESS	879	n/a	n/a	0	0	0
3150160	REC_WORD	wordpools/wasnorm_wordpool_576.txt	LTP364	ltpFR2	4	16	MOTEL	919	n/a	n/a	0	0	0
3155768	REC_WORD	wordpools/wasnorm_wordpool_576.txt	LTP364	ltpFR2	4	16	OFFERING	-1	n/a	n/a	0	0	0
3191587	REST_REWET	n/a	LTP364	ltpFR2	4	16	n/a	n/a	n/a	n/a	0	0	0
3278481	DISTRACTOR	n/a	LTP364	ltpFR2	4	17	n/a	n/a	n/a	n/a	0	0	0
3278481	START	n/a	LTP364	ltpFR2	4	n/a	n/a	n/a	23	n/a	n/a	n/a	n/a
3278498	PROB	n/a	LTP364	ltpFR2	4	n/a	n/a	n/a	23	15	3	7	5
3280680	PROB	n/a	LTP364	ltpFR2	4	n/a	n/a	n/a	23	21	8	7	6
3287344	PROB	n/a	LTP364	ltpFR2	4	n/a	n/a	n/a	23	20	8	6	6
3289460	PROB	n/a	LTP364	ltpFR2	4	n/a	n/a	n/a	23	16	8	7	1
3291709	PROB	n/a	LTP364	ltpFR2	4	n/a	n/a	n/a	23	15	7	4	4
3293491	PROB	n/a	LTP364	ltpFR2	4	n/a	n/a	n/a	23	9	1	2	6
3294990	PROB	n/a	LTP364	ltpFR2	4	n/a	n/a	n/a	23	11	6	3	2
3297406	PROB	n/a	LTP364	ltpFR2	4	n/a	n/a	n/a	23	13	6	4	3
3299005	PROB	n/a	LTP364	ltpFR2	4	n/a	n/a	n/a	23	16	3	9	4
3301095	STOP	n/a	LTP364	ltpFR2	4	n/a	n/a	n/a	23	n/a	n/a	n/a	n/a
3303570	WORD	wordpools/wasnorm_wordpool_576.txt	LTP364	ltpFR2	4	17	BLACKBOARD	133	n/a	n/a	0	0	0
3306203	WORD	wordpools/wasnorm_wordpool_576.txt	LTP364	ltpFR2	4	17	PLAYGROUND	1087	n/a	n/a	0	0	0
3308867	WORD	wordpools/wasnorm_wordpool_576.txt	LTP364	ltpFR2	4	17	THREAD	1460	n/a	n/a	0	0	0
3311516	WORD	wordpools/wasnorm_wordpool_576.txt	LTP364	ltpFR2	4	17	SCARF	1246	n/a	n/a	0	0	0
3314016	WORD	wordpools/wasnorm_wordpool_576.txt	LTP364	ltpFR2	4	17	BROOK	177	n/a	n/a	0	0	0
3316797	WORD	wordpools/wasnorm_wordpool_576.txt	LTP364	ltpFR2	4	17	OX	994	n/a	n/a	0	0	0
3319496	WORD	wordpools/wasnorm_wordpool_576.txt	LTP364	ltpFR2	4	17	HUMAN	726	n/a	n/a	0	0	0
3321928	WORD	wordpools/wasnorm_wordpool_576.txt	LTP364	ltpFR2	4	17	LEG	809	n/a	n/a	0	0	0
3324460	WORD	wordpools/wasnorm_wordpool_576.txt	LTP364	ltpFR2	4	17	WRIST	1626	n/a	n/a	0	0	0
3327127	WORD	wordpools/wasnorm_wordpool_576.txt	LTP364	ltpFR2	4	17	ELBOW	520	n/a	n/a	0	0	0
3329758	WORD	wordpools/wasnorm_wordpool_576.txt	LTP364	ltpFR2	4	17	PISTOL	1075	n/a	n/a	0	0	0
3332208	WORD	wordpools/wasnorm_wordpool_576.txt	LTP364	ltpFR2	4	17	QUARTER	1148	n/a	n/a	0	0	0
3334906	WORD	wordpools/wasnorm_wordpool_576.txt	LTP364	ltpFR2	4	17	MONEY	908	n/a	n/a	0	0	0
3337421	WORD	wordpools/wasnorm_wordpool_576.txt	LTP364	ltpFR2	4	17	DRUG	501	n/a	n/a	0	0	0
3339920	WORD	wordpools/wasnorm_wordpool_576.txt	LTP364	ltpFR2	4	17	STUDENT	1395	n/a	n/a	0	0	0
3342469	WORD	wordpools/wasnorm_wordpool_576.txt	LTP364	ltpFR2	4	17	CANAL	226	n/a	n/a	0	0	0
3345069	WORD	wordpools/wasnorm_wordpool_576.txt	LTP364	ltpFR2	4	17	TUBA	1515	n/a	n/a	0	0	0
3347900	WORD	wordpools/wasnorm_wordpool_576.txt	LTP364	ltpFR2	4	17	PIGMENT	1066	n/a	n/a	0	0	0
3350532	WORD	wordpools/wasnorm_wordpool_576.txt	LTP364	ltpFR2	4	17	FREEZER	604	n/a	n/a	0	0	0
3353198	WORD	wordpools/wasnorm_wordpool_576.txt	LTP364	ltpFR2	4	17	LAKE	796	n/a	n/a	0	0	0
3355963	WORD	wordpools/wasnorm_wordpool_576.txt	LTP364	ltpFR2	4	17	SANDWICH	1232	n/a	n/a	0	0	0
3358595	WORD	wordpools/wasnorm_wordpool_576.txt	LTP364	ltpFR2	4	17	COIN	343	n/a	n/a	0	0	0
3361410	WORD	wordpools/wasnorm_wordpool_576.txt	LTP364	ltpFR2	4	17	SNAIL	1332	n/a	n/a	0	0	0
3364193	WORD	wordpools/wasnorm_wordpool_576.txt	LTP364	ltpFR2	4	17	DENIM	446	n/a	n/a	0	0	0
3365808	START	n/a	LTP364	ltpFR2	4	n/a	n/a	n/a	24	n/a	n/a	n/a	n/a
3366917	DISTRACTOR	n/a	LTP364	ltpFR2	4	17	n/a	n/a	n/a	n/a	0	0	0
3366924	PROB	n/a	LTP364	ltpFR2	4	n/a	n/a	n/a	24	17	8	5	4
3370207	PROB	n/a	LTP364	ltpFR2	4	n/a	n/a	n/a	24	21	4	8	9
3375471	PROB	n/a	LTP364	ltpFR2	4	n/a	n/a	n/a	24	14	7	4	3
3377436	PROB	n/a	LTP364	ltpFR2	4	n/a	n/a	n/a	24	17	7	2	8
3379802	PROB	n/a	LTP364	ltpFR2	4	n/a	n/a	n/a	24	13	1	3	9
3381618	PROB	n/a	LTP364	ltpFR2	4	n/a	n/a	n/a	24	22	8	6	8
3384816	PROB	n/a	LTP364	ltpFR2	4	n/a	n/a	n/a	24	21	8	6	7
3388449	STOP	n/a	LTP364	ltpFR2	4	n/a	n/a	n/a	24	n/a	n/a	n/a	n/a
3391597	REC_START	n/a	LTP364	ltpFR2	4	17	n/a	n/a	n/a	n/a	0	0	0
3393122	REC_WORD	wordpools/wasnorm_wordpool_576.txt	LTP364	ltpFR2	4	17	BLACKBOARD	133	n/a	n/a	0	0	0
3394721	REC_WORD	wordpools/wasnorm_wordpool_576.txt	LTP364	ltpFR2	4	17	PLAYGROUND	1087	n/a	n/a	0	0	0
3396126	REC_WORD	wordpools/wasnorm_wordpool_576.txt	LTP364	ltpFR2	4	17	THREAD	1460	n/a	n/a	0	0	0
3397156	REC_WORD	wordpools/wasnorm_wordpool_576.txt	LTP364	ltpFR2	4	17	SCARF	1246	n/a	n/a	0	0	0
3399934	REC_WORD	wordpools/wasnorm_wordpool_576.txt	LTP364	ltpFR2	4	17	BROOK	177	n/a	n/a	0	0	0
3400917	REC_WORD	wordpools/wasnorm_wordpool_576.txt	LTP364	ltpFR2	4	17	OX	994	n/a	n/a	0	0	0
3402740	REC_WORD	wordpools/wasnorm_wordpool_576.txt	LTP364	ltpFR2	4	17	HUMAN	726	n/a	n/a	0	0	0
3403791	REC_WORD	wordpools/wasnorm_wordpool_576.txt	LTP364	ltpFR2	4	17	LEG	809	n/a	n/a	0	0	0
3404755	REC_WORD	wordpools/wasnorm_wordpool_576.txt	LTP364	ltpFR2	4	17	WRIST	1626	n/a	n/a	0	0	0
3405880	REC_WORD	wordpools/wasnorm_wordpool_576.txt	LTP364	ltpFR2	4	17	ARM	38	n/a	n/a	0	0	0
3409380	REC_WORD	wordpools/wasnorm_wordpool_576.txt	LTP364	ltpFR2	4	17	PISTOL	1075	n/a	n/a	0	0	0
3414930	REC_WORD	wordpools/wasnorm_wordpool_576.txt	LTP364	ltpFR2	4	17	QUARTER	1148	n/a	n/a	0	0	0
3416628	REC_WORD	wordpools/wasnorm_wordpool_576.txt	LTP364	ltpFR2	4	17	MONEY	908	n/a	n/a	0	0	0
3417540	REC_WORD	wordpools/wasnorm_wordpool_576.txt	LTP364	ltpFR2	4	17	DRUG	501	n/a	n/a	0	0	0
3418412	REC_WORD	wordpools/wasnorm_wordpool_576.txt	LTP364	ltpFR2	4	17	STUDENT	1395	n/a	n/a	0	0	0
3427973	REC_WORD	wordpools/wasnorm_wordpool_576.txt	LTP364	ltpFR2	4	17	CLIFF	322	n/a	n/a	0	0	0
3429550	REC_WORD	wordpools/wasnorm_wordpool_576.txt	LTP364	ltpFR2	4	17	PIGMENT	1066	n/a	n/a	0	0	0
3430884	REC_WORD	wordpools/wasnorm_wordpool_576.txt	LTP364	ltpFR2	4	17	FREEZER	604	n/a	n/a	0	0	0
3432077	REC_WORD	wordpools/wasnorm_wordpool_576.txt	LTP364	ltpFR2	4	17	LAKE	796	n/a	n/a	0	0	0
3433234	REC_WORD	wordpools/wasnorm_wordpool_576.txt	LTP364	ltpFR2	4	17	SANDWICH	1232	n/a	n/a	0	0	0
3435374	REC_WORD	wordpools/wasnorm_wordpool_576.txt	LTP364	ltpFR2	4	17	DIME	466	n/a	n/a	0	0	0
3436345	REC_WORD	wordpools/wasnorm_wordpool_576.txt	LTP364	ltpFR2	4	17	SNAIL	1332	n/a	n/a	0	0	0
3437594	REC_WORD	wordpools/wasnorm_wordpool_576.txt	LTP364	ltpFR2	4	17	DENIM	446	n/a	n/a	0	0	0
3482040	DISTRACTOR	n/a	LTP364	ltpFR2	4	18	n/a	n/a	n/a	n/a	0	0	0
3482040	START	n/a	LTP364	ltpFR2	4	n/a	n/a	n/a	25	n/a	n/a	n/a	n/a
3482057	PROB	n/a	LTP364	ltpFR2	4	n/a	n/a	n/a	25	19	7	6	6
3484738	PROB	n/a	LTP364	ltpFR2	4	n/a	n/a	n/a	25	12	2	8	2
3486537	PROB	n/a	LTP364	ltpFR2	4	n/a	n/a	n/a	25	9	5	2	2
3488037	PROB	n/a	LTP364	ltpFR2	4	n/a	n/a	n/a	25	17	9	1	7
3489702	PROB	n/a	LTP364	ltpFR2	4	n/a	n/a	n/a	25	20	5	6	9
3492235	PROB	n/a	LTP364	ltpFR2	4	n/a	n/a	n/a	25	21	5	9	7
3495117	PROB	n/a	LTP364	ltpFR2	4	n/a	n/a	n/a	25	13	5	4	4
3496732	PROB	n/a	LTP364	ltpFR2	4	n/a	n/a	n/a	25	14	6	6	2
3498565	PROB	n/a	LTP364	ltpFR2	4	n/a	n/a	n/a	25	11	3	3	5
3500997	PROB	n/a	LTP364	ltpFR2	4	n/a	n/a	n/a	25	22	5	9	6
3506040	STOP	n/a	LTP364	ltpFR2	4	n/a	n/a	n/a	25	n/a	n/a	n/a	n/a
3507029	WORD	wordpools/wasnorm_wordpool_576.txt	LTP364	ltpFR2	4	18	CRICKET	408	n/a	n/a	0	0	0
3509676	WORD	wordpools/wasnorm_wordpool_576.txt	LTP364	ltpFR2	4	18	ORANGE	980	n/a	n/a	0	0	0
3512176	WORD	wordpools/wasnorm_wordpool_576.txt	LTP364	ltpFR2	4	18	SPIDER	1351	n/a	n/a	0	0	0
3514824	WORD	wordpools/wasnorm_wordpool_576.txt	LTP364	ltpFR2	4	18	SPONGE	1355	n/a	n/a	0	0	0
3517573	WORD	wordpools/wasnorm_wordpool_576.txt	LTP364	ltpFR2	4	18	RIVER	1194	n/a	n/a	0	0	0
3520355	WORD	wordpools/wasnorm_wordpool_576.txt	LTP364	ltpFR2	4	18	TUNNEL	1519	n/a	n/a	0	0	0
3522870	WORD	wordpools/wasnorm_wordpool_576.txt	LTP364	ltpFR2	4	18	CELLAR	267	n/a	n/a	0	0	0
3525419	WORD	wordpools/wasnorm_wordpool_576.txt	LTP364	ltpFR2	4	18	MAILMAN	858	n/a	n/a	0	0	0
3528001	WORD	wordpools/wasnorm_wordpool_576.txt	LTP364	ltpFR2	4	18	TEMPLE	1448	n/a	n/a	0	0	0
3530750	WORD	wordpools/wasnorm_wordpool_576.txt	LTP364	ltpFR2	4	18	SALT	1229	n/a	n/a	0	0	0
3533382	WORD	wordpools/wasnorm_wordpool_576.txt	LTP364	ltpFR2	4	18	GROUND	666	n/a	n/a	0	0	0
3535948	WORD	wordpools/wasnorm_wordpool_576.txt	LTP364	ltpFR2	4	18	FRUIT	610	n/a	n/a	0	0	0
3538530	WORD	wordpools/wasnorm_wordpool_576.txt	LTP364	ltpFR2	4	18	CRATER	400	n/a	n/a	0	0	0
3541080	WORD	wordpools/wasnorm_wordpool_576.txt	LTP364	ltpFR2	4	18	SODA	1341	n/a	n/a	0	0	0
3543894	WORD	wordpools/wasnorm_wordpool_576.txt	LTP364	ltpFR2	4	18	INFANT	737	n/a	n/a	0	0	0
3546560	WORD	wordpools/wasnorm_wordpool_576.txt	LTP364	ltpFR2	4	18	BABY	64	n/a	n/a	0	0	0
3549043	WORD	wordpools/wasnorm_wordpool_576.txt	LTP364	ltpFR2	4	18	PACKAGE	997	n/a	n/a	0	0	0
3551791	WORD	wordpools/wasnorm_wordpool_576.txt	LTP364	ltpFR2	4	18	GAVEL	627	n/a	n/a	0	0	0
3554241	WORD	wordpools/wasnorm_wordpool_576.txt	LTP364	ltpFR2	4	18	COCKTAIL	338	n/a	n/a	0	0	0
3556722	WORD	wordpools/wasnorm_wordpool_576.txt	LTP364	ltpFR2	4	18	STALLION	1369	n/a	n/a	0	0	0
3559504	WORD	wordpools/wasnorm_wordpool_576.txt	LTP364	ltpFR2	4	18	TERMITE	1451	n/a	n/a	0	0	0
3562237	WORD	wordpools/wasnorm_wordpool_576.txt	LTP364	ltpFR2	4	18	WHISTLE	1606	n/a	n/a	0	0	0
3564685	WORD	wordpools/wasnorm_wordpool_576.txt	LTP364	ltpFR2	4	18	UMPIRE	1535	n/a	n/a	0	0	0
3567334	WORD	wordpools/wasnorm_wordpool_576.txt	LTP364	ltpFR2	4	18	PASTRY	1022	n/a	n/a	0	0	0
3568950	START	n/a	LTP364	ltpFR2	4	n/a	n/a	n/a	26	n/a	n/a	n/a	n/a
3569853	DISTRACTOR	n/a	LTP364	ltpFR2	4	18	n/a	n/a	n/a	n/a	0	0	0
3569866	PROB	n/a	LTP364	ltpFR2	4	n/a	n/a	n/a	26	18	7	2	9
3572331	PROB	n/a	LTP364	ltpFR2	4	n/a	n/a	n/a	26	13	4	6	3
3573847	PROB	n/a	LTP364	ltpFR2	4	n/a	n/a	n/a	26	18	7	4	7
3575830	PROB	n/a	LTP364	ltpFR2	4	n/a	n/a	n/a	26	24	8	8	8
3577696	PROB	n/a	LTP364	ltpFR2	4	n/a	n/a	n/a	26	11	5	5	1
3579312	PROB	n/a	LTP364	ltpFR2	4	n/a	n/a	n/a	26	16	7	5	4
3581577	PROB	n/a	LTP364	ltpFR2	4	n/a	n/a	n/a	26	8	3	3	2
3583061	PROB	n/a	LTP364	ltpFR2	4	n/a	n/a	n/a	26	13	6	3	4
3585442	PROB	n/a	LTP364	ltpFR2	4	n/a	n/a	n/a	26	26	9	8	9
3592950	STOP	n/a	LTP364	ltpFR2	4	n/a	n/a	n/a	26	n/a	n/a	n/a	n/a
3594805	REC_START	n/a	LTP364	ltpFR2	4	18	n/a	n/a	n/a	n/a	0	0	0
3598946	REC_WORD	wordpools/wasnorm_wordpool_576.txt	LTP364	ltpFR2	4	18	ORANGE	980	n/a	n/a	0	0	0
3599799	REC_WORD	wordpools/wasnorm_wordpool_576.txt	LTP364	ltpFR2	4	18	CRICKET	408	n/a	n/a	0	0	0
3600911	REC_WORD	wordpools/wasnorm_wordpool_576.txt	LTP364	ltpFR2	4	18	SPIDER	1351	n/a	n/a	0	0	0
3601990	REC_WORD	wordpools/wasnorm_wordpool_576.txt	LTP364	ltpFR2	4	18	SPONGE	1355	n/a	n/a	0	0	0
3603147	REC_WORD	wordpools/wasnorm_wordpool_576.txt	LTP364	ltpFR2	4	18	RIVER	1194	n/a	n/a	0	0	0
3604281	REC_WORD	wordpools/wasnorm_wordpool_576.txt	LTP364	ltpFR2	4	18	TUNNEL	1519	n/a	n/a	0	0	0
3605986	REC_WORD	wordpools/wasnorm_wordpool_576.txt	LTP364	ltpFR2	4	18	CELLAR	267	n/a	n/a	0	0	0
3607175	REC_WORD	wordpools/wasnorm_wordpool_576.txt	LTP364	ltpFR2	4	18	MAILMAN	858	n/a	n/a	0	0	0
3610460	REC_WORD	wordpools/wasnorm_wordpool_576.txt	LTP364	ltpFR2	4	18	SALT	1229	n/a	n/a	0	0	0
3613474	REC_WORD	wordpools/wasnorm_wordpool_576.txt	LTP364	ltpFR2	4	18	FRUIT	610	n/a	n/a	0	0	0
3614465	REC_WORD	wordpools/wasnorm_wordpool_576.txt	LTP364	ltpFR2	4	18	CRATER	400	n/a	n/a	0	0	0
3618146	REC_WORD	wordpools/wasnorm_wordpool_576.txt	LTP364	ltpFR2	4	18	PACKAGE	997	n/a	n/a	0	0	0
3619303	REC_WORD	wordpools/wasnorm_wordpool_576.txt	LTP364	ltpFR2	4	18	GAVEL	627	n/a	n/a	0	0	0
3621799	REC_WORD	wordpools/wasnorm_wordpool_576.txt	LTP364	ltpFR2	4	18	COCKTAIL	338	n/a	n/a	0	0	0
3626690	REC_WORD	wordpools/wasnorm_wordpool_576.txt	LTP364	ltpFR2	4	18	SODA	1341	n/a	n/a	0	0	0
3627553	REC_WORD	wordpools/wasnorm_wordpool_576.txt	LTP364	ltpFR2	4	18	INFANT	737	n/a	n/a	0	0	0
3628645	REC_WORD	wordpools/wasnorm_wordpool_576.txt	LTP364	ltpFR2	4	18	BABY	64	n/a	n/a	0	0	0
3629581	REC_WORD	wordpools/wasnorm_wordpool_576.txt	LTP364	ltpFR2	4	18	STALLION	1369	n/a	n/a	0	0	0
3630920	REC_WORD	wordpools/wasnorm_wordpool_576.txt	LTP364	ltpFR2	4	18	TERMITE	1451	n/a	n/a	0	0	0
3641245	REC_WORD	wordpools/wasnorm_wordpool_576.txt	LTP364	ltpFR2	4	18	WHISTLE	1606	n/a	n/a	0	0	0
3642339	REC_WORD	wordpools/wasnorm_wordpool_576.txt	LTP364	ltpFR2	4	18	UMPIRE	1535	n/a	n/a	0	0	0
3644188	REC_WORD	wordpools/wasnorm_wordpool_576.txt	LTP364	ltpFR2	4	18	PASTRY	1022	n/a	n/a	0	0	0
3685248	WORD	wordpools/wasnorm_wordpool_576.txt	LTP364	ltpFR2	4	19	OYSTER	995	n/a	n/a	0	0	0
3688030	WORD	wordpools/wasnorm_wordpool_576.txt	LTP364	ltpFR2	4	19	ACTRESS	6	n/a	n/a	0	0	0
3690711	WORD	wordpools/wasnorm_wordpool_576.txt	LTP364	ltpFR2	4	19	ACTOR	5	n/a	n/a	0	0	0
3693211	WORD	wordpools/wasnorm_wordpool_576.txt	LTP364	ltpFR2	4	19	SLUG	1329	n/a	n/a	0	0	0
3695675	WORD	wordpools/wasnorm_wordpool_576.txt	LTP364	ltpFR2	4	19	FILM	565	n/a	n/a	0	0	0
3698325	WORD	wordpools/wasnorm_wordpool_576.txt	LTP364	ltpFR2	4	19	GARBAGE	622	n/a	n/a	0	0	0
3701074	WORD	wordpools/wasnorm_wordpool_576.txt	LTP364	ltpFR2	4	19	ASIA	46	n/a	n/a	0	0	0
3703638	WORD	wordpools/wasnorm_wordpool_576.txt	LTP364	ltpFR2	4	19	BATHTUB	100	n/a	n/a	0	0	0
3706105	WORD	wordpools/wasnorm_wordpool_576.txt	LTP364	ltpFR2	4	19	PIZZA	1079	n/a	n/a	0	0	0
3708820	WORD	wordpools/wasnorm_wordpool_576.txt	LTP364	ltpFR2	4	19	CHILD	299	n/a	n/a	0	0	0
3711502	WORD	wordpools/wasnorm_wordpool_576.txt	LTP364	ltpFR2	4	19	COTTAGE	384	n/a	n/a	0	0	0
3713984	WORD	wordpools/wasnorm_wordpool_576.txt	LTP364	ltpFR2	4	19	LAMP	798	n/a	n/a	0	0	0
3716666	WORD	wordpools/wasnorm_wordpool_576.txt	LTP364	ltpFR2	4	19	SPHINX	1349	n/a	n/a	0	0	0
3719316	WORD	wordpools/wasnorm_wordpool_576.txt	LTP364	ltpFR2	4	19	OMELET	976	n/a	n/a	0	0	0
3721963	WORD	wordpools/wasnorm_wordpool_576.txt	LTP364	ltpFR2	4	19	SKILLET	1317	n/a	n/a	0	0	0
3724512	WORD	wordpools/wasnorm_wordpool_576.txt	LTP364	ltpFR2	4	19	GOBLIN	645	n/a	n/a	0	0	0
3727229	WORD	wordpools/wasnorm_wordpool_576.txt	LTP364	ltpFR2	4	19	CROWN	415	n/a	n/a	0	0	0
3730044	WORD	wordpools/wasnorm_wordpool_576.txt	LTP364	ltpFR2	4	19	PRINCESS	1125	n/a	n/a	0	0	0
3732542	WORD	wordpools/wasnorm_wordpool_576.txt	LTP364	ltpFR2	4	19	COUSIN	392	n/a	n/a	0	0	0
3735292	WORD	wordpools/wasnorm_wordpool_576.txt	LTP364	ltpFR2	4	19	MUMMY	932	n/a	n/a	0	0	0
3738006	WORD	wordpools/wasnorm_wordpool_576.txt	LTP364	ltpFR2	4	19	WORLD	1622	n/a	n/a	0	0	0
3740522	WORD	wordpools/wasnorm_wordpool_576.txt	LTP364	ltpFR2	4	19	BARREL	91	n/a	n/a	0	0	0
3743354	WORD	wordpools/wasnorm_wordpool_576.txt	LTP364	ltpFR2	4	19	PADDLE	1000	n/a	n/a	0	0	0
3746137	WORD	wordpools/wasnorm_wordpool_576.txt	LTP364	ltpFR2	4	19	VIKING	1565	n/a	n/a	0	0	0
3747752	START	n/a	LTP364	ltpFR2	4	n/a	n/a	n/a	27	n/a	n/a	n/a	n/a
3748646	DISTRACTOR	n/a	LTP364	ltpFR2	4	19	n/a	n/a	n/a	n/a	0	0	0
3748651	PROB	n/a	LTP364	ltpFR2	4	n/a	n/a	n/a	27	8	2	1	5
3750717	PROB	n/a	LTP364	ltpFR2	4	n/a	n/a	n/a	27	15	5	2	8
3754117	PROB	n/a	LTP364	ltpFR2	4	n/a	n/a	n/a	27	19	5	9	5
3756182	PROB	n/a	LTP364	ltpFR2	4	n/a	n/a	n/a	27	12	8	2	2
3757714	PROB	n/a	LTP364	ltpFR2	4	n/a	n/a	n/a	27	9	4	2	3
3761346	PROB	n/a	LTP364	ltpFR2	4	n/a	n/a	n/a	27	12	3	8	1
3763911	PROB	n/a	LTP364	ltpFR2	4	n/a	n/a	n/a	27	13	5	3	5
3765777	PROB	n/a	LTP364	ltpFR2	4	n/a	n/a	n/a	27	14	5	4	5
3767311	PROB	n/a	LTP364	ltpFR2	4	n/a	n/a	n/a	27	15	3	9	3
3769892	PROB	n/a	LTP364	ltpFR2	4	n/a	n/a	n/a	27	18	1	9	8
3771461	STOP	n/a	LTP364	ltpFR2	4	n/a	n/a	n/a	27	n/a	n/a	n/a	n/a
3773524	REC_START	n/a	LTP364	ltpFR2	4	19	n/a	n/a	n/a	n/a	0	0	0
3781130	REC_WORD	wordpools/wasnorm_wordpool_576.txt	LTP364	ltpFR2	4	19	OYSTER	995	n/a	n/a	0	0	0
3782294	REC_WORD	wordpools/wasnorm_wordpool_576.txt	LTP364	ltpFR2	4	19	ACTRESS	6	n/a	n/a	0	0	0
3783423	REC_WORD	wordpools/wasnorm_wordpool_576.txt	LTP364	ltpFR2	4	19	ACTOR	5	n/a	n/a	0	0	0
3785162	REC_WORD	wordpools/wasnorm_wordpool_576.txt	LTP364	ltpFR2	4	19	SLUG	1329	n/a	n/a	0	0	0
3788802	REC_WORD	wordpools/wasnorm_wordpool_576.txt	LTP364	ltpFR2	4	19	FILM	565	n/a	n/a	0	0	0
3789939	REC_WORD	wordpools/wasnorm_wordpool_576.txt	LTP364	ltpFR2	4	19	TRASH	1497	n/a	n/a	0	0	0
3791123	REC_WORD	wordpools/wasnorm_wordpool_576.txt	LTP364	ltpFR2	4	19	ASIA	46	n/a	n/a	0	0	0
3792155	REC_WORD	wordpools/wasnorm_wordpool_576.txt	LTP364	ltpFR2	4	19	BATHTUB	100	n/a	n/a	0	0	0
3793271	REC_WORD	wordpools/wasnorm_wordpool_576.txt	LTP364	ltpFR2	4	19	PIZZA	1079	n/a	n/a	0	0	0
3795135	REC_WORD	wordpools/wasnorm_wordpool_576.txt	LTP364	ltpFR2	4	19	CHILD	299	n/a	n/a	0	0	0
3795975	REC_WORD	wordpools/wasnorm_wordpool_576.txt	LTP364	ltpFR2	4	19	COTTAGE	384	n/a	n/a	0	0	0
3797532	REC_WORD	wordpools/wasnorm_wordpool_576.txt	LTP364	ltpFR2	4	19	LAMP	798	n/a	n/a	0	0	0
3798616	REC_WORD	wordpools/wasnorm_wordpool_576.txt	LTP364	ltpFR2	4	19	SPHINX	1349	n/a	n/a	0	0	0
3800106	REC_WORD	wordpools/wasnorm_wordpool_576.txt	LTP364	ltpFR2	4	19	OMELET	976	n/a	n/a	0	0	0
3801036	REC_WORD	wordpools/wasnorm_wordpool_576.txt	LTP364	ltpFR2	4	19	SKILLET	1317	n/a	n/a	0	0	0
3803017	REC_WORD	wordpools/wasnorm_wordpool_576.txt	LTP364	ltpFR2	4	19	GOBLIN	645	n/a	n/a	0	0	0
3803982	REC_WORD	wordpools/wasnorm_wordpool_576.txt	LTP364	ltpFR2	4	19	CROWN	415	n/a	n/a	0	0	0
3805259	REC_WORD	wordpools/wasnorm_wordpool_576.txt	LTP364	ltpFR2	4	19	PRINCESS	1125	n/a	n/a	0	0	0
3806891	REC_WORD	wordpools/wasnorm_wordpool_576.txt	LTP364	ltpFR2	4	19	COUSIN	392	n/a	n/a	0	0	0
3823072	REC_WORD	wordpools/wasnorm_wordpool_576.txt	LTP364	ltpFR2	4	19	WORLD	1622	n/a	n/a	0	0	0
3830008	REC_WORD	wordpools/wasnorm_wordpool_576.txt	LTP364	ltpFR2	4	19	BARREL	91	n/a	n/a	0	0	0
3831382	REC_WORD	wordpools/wasnorm_wordpool_576.txt	LTP364	ltpFR2	4	19	PADDLE	1000	n/a	n/a	0	0	0
3841044	REC_WORD	wordpools/wasnorm_wordpool_576.txt	LTP364	ltpFR2	4	19	VIKING	1565	n/a	n/a	0	0	0
3863966	WORD	wordpools/wasnorm_wordpool_576.txt	LTP364	ltpFR2	4	20	ULCER	1533	n/a	n/a	0	0	0
3866481	WORD	wordpools/wasnorm_wordpool_576.txt	LTP364	ltpFR2	4	20	MONSTER	912	n/a	n/a	0	0	0
3869014	WORD	wordpools/wasnorm_wordpool_576.txt	LTP364	ltpFR2	4	20	GIRL	637	n/a	n/a	0	0	0
3871712	WORD	wordpools/wasnorm_wordpool_576.txt	LTP364	ltpFR2	4	20	DINER	467	n/a	n/a	0	0	0
3874245	WORD	wordpools/wasnorm_wordpool_576.txt	LTP364	ltpFR2	4	20	SERVER	1272	n/a	n/a	0	0	0
3876827	WORD	wordpools/wasnorm_wordpool_576.txt	LTP364	ltpFR2	4	20	TART	1436	n/a	n/a	0	0	0
3879359	WORD	wordpools/wasnorm_wordpool_576.txt	LTP364	ltpFR2	4	20	WAITER	1580	n/a	n/a	0	0	0
3881991	WORD	wordpools/wasnorm_wordpool_576.txt	LTP364	ltpFR2	4	20	PERMIT	1051	n/a	n/a	0	0	0
3884423	WORD	wordpools/wasnorm_wordpool_576.txt	LTP364	ltpFR2	4	20	TREAT	1501	n/a	n/a	0	0	0
3887073	WORD	wordpools/wasnorm_wordpool_576.txt	LTP364	ltpFR2	4	20	TRENCH	1503	n/a	n/a	0	0	0
3889837	WORD	wordpools/wasnorm_wordpool_576.txt	LTP364	ltpFR2	4	20	PARTNER	1017	n/a	n/a	0	0	0
3892553	WORD	wordpools/wasnorm_wordpool_576.txt	LTP364	ltpFR2	4	20	LOFT	840	n/a	n/a	0	0	0
3895269	WORD	wordpools/wasnorm_wordpool_576.txt	LTP364	ltpFR2	4	20	EAGLE	512	n/a	n/a	0	0	0
3898068	WORD	wordpools/wasnorm_wordpool_576.txt	LTP364	ltpFR2	4	20	LAVA	804	n/a	n/a	0	0	0
3900799	WORD	wordpools/wasnorm_wordpool_576.txt	LTP364	ltpFR2	4	20	CARROT	249	n/a	n/a	0	0	0
3903316	WORD	wordpools/wasnorm_wordpool_576.txt	LTP364	ltpFR2	4	20	SHORTCAKE	1292	n/a	n/a	0	0	0
3905747	WORD	wordpools/wasnorm_wordpool_576.txt	LTP364	ltpFR2	4	20	GRAVE	658	n/a	n/a	0	0	0
3908396	WORD	wordpools/wasnorm_wordpool_576.txt	LTP364	ltpFR2	4	20	TABLET	1427	n/a	n/a	0	0	0
3910844	WORD	wordpools/wasnorm_wordpool_576.txt	LTP364	ltpFR2	4	20	WITNESS	1618	n/a	n/a	0	0	0
