onset	duration	trial_type	sample	stim_file	subject	experiment	session	trial	item_name	item_num	list	answer	test_x	test_y	test_z
244.60888671875	n/a	SESS_START	500959	n/a	LTP344	ltpFR2	1	n/a	n/a	n/a	n/a	n/a	0	0	0
279.26220703125	n/a	START	571929	n/a	LTP344	ltpFR2	1	n/a	n/a	n/a	-1	n/a	n/a	n/a	n/a
279.27587890625	n/a	PROB	571957	n/a	LTP344	ltpFR2	1	n/a	n/a	n/a	-1	11	8	2	1
280.875	n/a	PROB	575232	n/a	LTP344	ltpFR2	1	n/a	n/a	n/a	-1	16	2	6	8
283.291015625	n/a	PROB	580180	n/a	LTP344	ltpFR2	1	n/a	n/a	n/a	-1	11	8	2	1
285.0068359375	n/a	PROB	583694	n/a	LTP344	ltpFR2	1	n/a	n/a	n/a	-1	10	1	6	3
286.43896484375	n/a	PROB	586627	n/a	LTP344	ltpFR2	1	n/a	n/a	n/a	-1	14	8	3	3
288.0546875	n/a	PROB	589936	n/a	LTP344	ltpFR2	1	n/a	n/a	n/a	-1	16	8	6	2
289.4365234375	n/a	PROB	592766	n/a	LTP344	ltpFR2	1	n/a	n/a	n/a	-1	18	8	4	6
290.87353515625	n/a	STOP	595709	n/a	LTP344	ltpFR2	1	n/a	n/a	n/a	-1	n/a	n/a	n/a	n/a
338.181640625	n/a	WORD	692596	wordpools/wasnorm_wordpool_576.txt	LTP344	ltpFR2	1	1	GHETTO	633	n/a	n/a	0	0	0
340.86328125	n/a	WORD	698088	wordpools/wasnorm_wordpool_576.txt	LTP344	ltpFR2	1	1	LEOPARD	812	n/a	n/a	0	0	0
343.611328125	n/a	WORD	703716	wordpools/wasnorm_wordpool_576.txt	LTP344	ltpFR2	1	1	MILK	895	n/a	n/a	0	0	0
346.34423828125	n/a	WORD	709313	wordpools/wasnorm_wordpool_576.txt	LTP344	ltpFR2	1	1	WOMAN	1620	n/a	n/a	0	0	0
349.00927734375	n/a	WORD	714771	wordpools/wasnorm_wordpool_576.txt	LTP344	ltpFR2	1	1	BREAST	171	n/a	n/a	0	0	0
351.490234375	n/a	WORD	719852	wordpools/wasnorm_wordpool_576.txt	LTP344	ltpFR2	1	1	DENIM	446	n/a	n/a	0	0	0
354.0400390625	n/a	WORD	725074	wordpools/wasnorm_wordpool_576.txt	LTP344	ltpFR2	1	1	QUARTER	1148	n/a	n/a	0	0	0
356.7392578125	n/a	WORD	730602	wordpools/wasnorm_wordpool_576.txt	LTP344	ltpFR2	1	1	RUG	1215	n/a	n/a	0	0	0
359.4697265625	n/a	WORD	736194	wordpools/wasnorm_wordpool_576.txt	LTP344	ltpFR2	1	1	LEADER	807	n/a	n/a	0	0	0
362.18701171875	n/a	WORD	741759	wordpools/wasnorm_wordpool_576.txt	LTP344	ltpFR2	1	1	LIZARD	834	n/a	n/a	0	0	0
364.96875	n/a	WORD	747456	wordpools/wasnorm_wordpool_576.txt	LTP344	ltpFR2	1	1	PERMIT	1051	n/a	n/a	0	0	0
367.4326171875	n/a	WORD	752502	wordpools/wasnorm_wordpool_576.txt	LTP344	ltpFR2	1	1	DRAGON	492	n/a	n/a	0	0	0
370.0498046875	n/a	WORD	757862	wordpools/wasnorm_wordpool_576.txt	LTP344	ltpFR2	1	1	LIVER	833	n/a	n/a	0	0	0
372.79736328125	n/a	WORD	763489	wordpools/wasnorm_wordpool_576.txt	LTP344	ltpFR2	1	1	SCALPEL	1243	n/a	n/a	0	0	0
375.62841796875	n/a	WORD	769287	wordpools/wasnorm_wordpool_576.txt	LTP344	ltpFR2	1	1	NURSE	963	n/a	n/a	0	0	0
378.1953125	n/a	WORD	774544	wordpools/wasnorm_wordpool_576.txt	LTP344	ltpFR2	1	1	BANQUET	86	n/a	n/a	0	0	0
380.82763671875	n/a	WORD	779935	wordpools/wasnorm_wordpool_576.txt	LTP344	ltpFR2	1	1	MOP	916	n/a	n/a	0	0	0
383.54150390625	n/a	WORD	785493	wordpools/wasnorm_wordpool_576.txt	LTP344	ltpFR2	1	1	MILDEW	893	n/a	n/a	0	0	0
386.1083984375	n/a	WORD	790750	wordpools/wasnorm_wordpool_576.txt	LTP344	ltpFR2	1	1	JEANS	752	n/a	n/a	0	0	0
388.740234375	n/a	WORD	796140	wordpools/wasnorm_wordpool_576.txt	LTP344	ltpFR2	1	1	PATROL	1027	n/a	n/a	0	0	0
391.2890625	n/a	WORD	801360	wordpools/wasnorm_wordpool_576.txt	LTP344	ltpFR2	1	1	GUARD	667	n/a	n/a	0	0	0
393.904296875	n/a	WORD	806716	wordpools/wasnorm_wordpool_576.txt	LTP344	ltpFR2	1	1	YOLK	1633	n/a	n/a	0	0	0
396.40185546875	n/a	WORD	811831	wordpools/wasnorm_wordpool_576.txt	LTP344	ltpFR2	1	1	SWITCH	1422	n/a	n/a	0	0	0
398.96875	n/a	WORD	817088	wordpools/wasnorm_wordpool_576.txt	LTP344	ltpFR2	1	1	SEAL	1262	n/a	n/a	0	0	0
400.583984375	n/a	START	820396	n/a	LTP344	ltpFR2	1	n/a	n/a	n/a	1	n/a	n/a	n/a	n/a
401.69775390625	n/a	DISTRACTOR	822677	n/a	LTP344	ltpFR2	1	1	n/a	n/a	n/a	n/a	0	0	0
401.69970703125	n/a	PROB	822681	n/a	LTP344	ltpFR2	1	n/a	n/a	n/a	1	21	9	4	8
403.73291015625	n/a	PROB	826845	n/a	LTP344	ltpFR2	1	n/a	n/a	n/a	1	18	1	9	8
404.89892578125	n/a	PROB	829233	n/a	LTP344	ltpFR2	1	n/a	n/a	n/a	1	7	3	1	3
406.19873046875	n/a	PROB	831895	n/a	LTP344	ltpFR2	1	n/a	n/a	n/a	1	19	9	2	8
407.7646484375	n/a	PROB	835102	n/a	LTP344	ltpFR2	1	n/a	n/a	n/a	1	14	8	5	1
409.3134765625	n/a	PROB	838274	n/a	LTP344	ltpFR2	1	n/a	n/a	n/a	1	18	7	4	7
411.29638671875	n/a	PROB	842335	n/a	LTP344	ltpFR2	1	n/a	n/a	n/a	1	15	2	5	8
412.51171875	n/a	PROB	844824	n/a	LTP344	ltpFR2	1	n/a	n/a	n/a	1	15	6	2	7
414.27734375	n/a	PROB	848440	n/a	LTP344	ltpFR2	1	n/a	n/a	n/a	1	11	3	2	6
416.12744140625	n/a	PROB	852229	n/a	LTP344	ltpFR2	1	n/a	n/a	n/a	1	19	7	6	6
417.62548828125	n/a	PROB	855297	n/a	LTP344	ltpFR2	1	n/a	n/a	n/a	1	18	8	9	1
418.8095703125	n/a	PROB	857722	n/a	LTP344	ltpFR2	1	n/a	n/a	n/a	1	13	5	3	5
420.2421875	n/a	PROB	860656	n/a	LTP344	ltpFR2	1	n/a	n/a	n/a	1	16	1	7	8
422.25732421875	n/a	PROB	864783	n/a	LTP344	ltpFR2	1	n/a	n/a	n/a	1	12	2	6	4
423.72119140625	n/a	STOP	867781	n/a	LTP344	ltpFR2	1	n/a	n/a	n/a	1	n/a	n/a	n/a	n/a
426.52197265625	n/a	REC_START	873517	n/a	LTP344	ltpFR2	1	1	n/a	n/a	n/a	n/a	0	0	0
428.3701171875	n/a	REC_WORD	877302	wordpools/wasnorm_wordpool_576.txt	LTP344	ltpFR2	1	1	BANQUET	86	n/a	n/a	0	0	0
429.783203125	n/a	REC_WORD	880196	wordpools/wasnorm_wordpool_576.txt	LTP344	ltpFR2	1	1	LIZARD	834	n/a	n/a	0	0	0
431.162109375	n/a	REC_WORD	883020	wordpools/wasnorm_wordpool_576.txt	LTP344	ltpFR2	1	1	DRAGON	492	n/a	n/a	0	0	0
432.60400390625	n/a	REC_WORD	885973	wordpools/wasnorm_wordpool_576.txt	LTP344	ltpFR2	1	1	LEOPARD	812	n/a	n/a	0	0	0
434.26123046875	n/a	REC_WORD	889367	wordpools/wasnorm_wordpool_576.txt	LTP344	ltpFR2	1	1	DENIM	446	n/a	n/a	0	0	0
435.77099609375	n/a	REC_WORD	892459	wordpools/wasnorm_wordpool_576.txt	LTP344	ltpFR2	1	1	GUARD	667	n/a	n/a	0	0	0
437.6376953125	n/a	REC_WORD	896282	wordpools/wasnorm_wordpool_576.txt	LTP344	ltpFR2	1	1	LIVER	833	n/a	n/a	0	0	0
439.22998046875	n/a	REC_WORD	899543	wordpools/wasnorm_wordpool_576.txt	LTP344	ltpFR2	1	1	NURSE	963	n/a	n/a	0	0	0
440.78076171875	n/a	REC_WORD	902719	wordpools/wasnorm_wordpool_576.txt	LTP344	ltpFR2	1	1	SCALPEL	1243	n/a	n/a	0	0	0
442.4287109375	n/a	REC_WORD	906094	wordpools/wasnorm_wordpool_576.txt	LTP344	ltpFR2	1	1	PATROL	1027	n/a	n/a	0	0	0
445.53466796875	n/a	REC_WORD	912455	wordpools/wasnorm_wordpool_576.txt	LTP344	ltpFR2	1	1	WOMAN	1620	n/a	n/a	0	0	0
450.11474609375	n/a	REC_WORD	921835	wordpools/wasnorm_wordpool_576.txt	LTP344	ltpFR2	1	1	MILK	895	n/a	n/a	0	0	0
456.58740234375	n/a	REC_WORD	935091	wordpools/wasnorm_wordpool_576.txt	LTP344	ltpFR2	1	1	QUARTER	1148	n/a	n/a	0	0	0
458.18115234375	n/a	REC_WORD	938355	wordpools/wasnorm_wordpool_576.txt	LTP344	ltpFR2	1	1	GHETTO	633	n/a	n/a	0	0	0
459.79833984375	n/a	REC_WORD	941667	wordpools/wasnorm_wordpool_576.txt	LTP344	ltpFR2	1	1	LEADER	807	n/a	n/a	0	0	0
516.97900390625	n/a	WORD	1058773	wordpools/wasnorm_wordpool_576.txt	LTP344	ltpFR2	1	2	PILOT	1070	n/a	n/a	0	0	0
519.7607421875	n/a	WORD	1064470	wordpools/wasnorm_wordpool_576.txt	LTP344	ltpFR2	1	2	BULLET	194	n/a	n/a	0	0	0
522.54150390625	n/a	WORD	1070165	wordpools/wasnorm_wordpool_576.txt	LTP344	ltpFR2	1	2	RIFLE	1192	n/a	n/a	0	0	0
525.04150390625	n/a	WORD	1075285	wordpools/wasnorm_wordpool_576.txt	LTP344	ltpFR2	1	2	SERVER	1272	n/a	n/a	0	0	0
527.556640625	n/a	WORD	1080436	wordpools/wasnorm_wordpool_576.txt	LTP344	ltpFR2	1	2	TABLET	1427	n/a	n/a	0	0	0
530.3056640625	n/a	WORD	1086066	wordpools/wasnorm_wordpool_576.txt	LTP344	ltpFR2	1	2	ARM	38	n/a	n/a	0	0	0
532.75439453125	n/a	WORD	1091081	wordpools/wasnorm_wordpool_576.txt	LTP344	ltpFR2	1	2	CRUTCH	417	n/a	n/a	0	0	0
535.22021484375	n/a	WORD	1096131	wordpools/wasnorm_wordpool_576.txt	LTP344	ltpFR2	1	2	GRILL	661	n/a	n/a	0	0	0
537.935546875	n/a	WORD	1101692	wordpools/wasnorm_wordpool_576.txt	LTP344	ltpFR2	1	2	ATOM	55	n/a	n/a	0	0	0
540.38330078125	n/a	WORD	1106705	wordpools/wasnorm_wordpool_576.txt	LTP344	ltpFR2	1	2	HONEY	713	n/a	n/a	0	0	0
542.85009765625	n/a	WORD	1111757	wordpools/wasnorm_wordpool_576.txt	LTP344	ltpFR2	1	2	YARN	1631	n/a	n/a	0	0	0
545.4140625	n/a	WORD	1117008	wordpools/wasnorm_wordpool_576.txt	LTP344	ltpFR2	1	2	IGLOO	734	n/a	n/a	0	0	0
548.1298828125	n/a	WORD	1122570	wordpools/wasnorm_wordpool_576.txt	LTP344	ltpFR2	1	2	SODA	1341	n/a	n/a	0	0	0
550.7958984375	n/a	WORD	1128030	wordpools/wasnorm_wordpool_576.txt	LTP344	ltpFR2	1	2	CRITIC	410	n/a	n/a	0	0	0
553.5439453125	n/a	WORD	1133658	wordpools/wasnorm_wordpool_576.txt	LTP344	ltpFR2	1	2	COCOON	339	n/a	n/a	0	0	0
556.29296875	n/a	WORD	1139288	wordpools/wasnorm_wordpool_576.txt	LTP344	ltpFR2	1	2	ARMY	39	n/a	n/a	0	0	0
558.99169921875	n/a	WORD	1144815	wordpools/wasnorm_wordpool_576.txt	LTP344	ltpFR2	1	2	MISSILE	900	n/a	n/a	0	0	0
561.68994140625	n/a	WORD	1150341	wordpools/wasnorm_wordpool_576.txt	LTP344	ltpFR2	1	2	QUEEN	1149	n/a	n/a	0	0	0
564.189453125	n/a	WORD	1155460	wordpools/wasnorm_wordpool_576.txt	LTP344	ltpFR2	1	2	PICNIC	1060	n/a	n/a	0	0	0
566.78857421875	n/a	WORD	1160783	wordpools/wasnorm_wordpool_576.txt	LTP344	ltpFR2	1	2	BANK	83	n/a	n/a	0	0	0
569.4697265625	n/a	WORD	1166274	wordpools/wasnorm_wordpool_576.txt	LTP344	ltpFR2	1	2	RIVER	1194	n/a	n/a	0	0	0
572.00244140625	n/a	WORD	1171461	wordpools/wasnorm_wordpool_576.txt	LTP344	ltpFR2	1	2	HORNET	718	n/a	n/a	0	0	0
574.517578125	n/a	WORD	1176612	wordpools/wasnorm_wordpool_576.txt	LTP344	ltpFR2	1	2	PASTA	1021	n/a	n/a	0	0	0
576.9501953125	n/a	WORD	1181594	wordpools/wasnorm_wordpool_576.txt	LTP344	ltpFR2	1	2	ROCKET	1202	n/a	n/a	0	0	0
578.5654296875	n/a	START	1184902	n/a	LTP344	ltpFR2	1	n/a	n/a	n/a	2	n/a	n/a	n/a	n/a
579.71337890625	n/a	DISTRACTOR	1187253	n/a	LTP344	ltpFR2	1	2	n/a	n/a	n/a	n/a	0	0	0
579.732421875	n/a	PROB	1187292	n/a	LTP344	ltpFR2	1	n/a	n/a	n/a	2	17	9	5	3
582.14697265625	n/a	PROB	1192237	n/a	LTP344	ltpFR2	1	n/a	n/a	n/a	2	13	6	6	1
583.51220703125	n/a	PROB	1195033	n/a	LTP344	ltpFR2	1	n/a	n/a	n/a	2	19	8	2	9
584.62890625	n/a	PROB	1197320	n/a	LTP344	ltpFR2	1	n/a	n/a	n/a	2	21	9	6	6
586.162109375	n/a	PROB	1200460	n/a	LTP344	ltpFR2	1	n/a	n/a	n/a	2	13	4	4	5
588.97802734375	n/a	PROB	1206227	n/a	LTP344	ltpFR2	1	n/a	n/a	n/a	2	12	4	2	6
590.576171875	n/a	PROB	1209500	n/a	LTP344	ltpFR2	1	n/a	n/a	n/a	2	11	1	4	6
592.17578125	n/a	PROB	1212776	n/a	LTP344	ltpFR2	1	n/a	n/a	n/a	2	15	7	2	6
593.7080078125	n/a	PROB	1215914	n/a	LTP344	ltpFR2	1	n/a	n/a	n/a	2	17	9	6	2
595.423828125	n/a	PROB	1219428	n/a	LTP344	ltpFR2	1	n/a	n/a	n/a	2	13	8	3	2
596.68994140625	n/a	PROB	1222021	n/a	LTP344	ltpFR2	1	n/a	n/a	n/a	2	19	7	6	6
598.48876953125	n/a	PROB	1225705	n/a	LTP344	ltpFR2	1	n/a	n/a	n/a	2	20	8	4	8
600.3876953125	n/a	PROB	1229594	n/a	LTP344	ltpFR2	1	n/a	n/a	n/a	2	22	8	9	5
602.21044921875	n/a	STOP	1233327	n/a	LTP344	ltpFR2	1	n/a	n/a	n/a	2	n/a	n/a	n/a	n/a
604.48681640625	n/a	REC_START	1237989	n/a	LTP344	ltpFR2	1	2	n/a	n/a	n/a	n/a	0	0	0
605.83740234375	n/a	REC_WORD	1240755	wordpools/wasnorm_wordpool_576.txt	LTP344	ltpFR2	1	2	HORNET	718	n/a	n/a	0	0	0
607.50537109375	n/a	REC_WORD	1244171	wordpools/wasnorm_wordpool_576.txt	LTP344	ltpFR2	1	2	ATOM	55	n/a	n/a	0	0	0
608.9794921875	n/a	REC_WORD	1247190	wordpools/wasnorm_wordpool_576.txt	LTP344	ltpFR2	1	2	RIFLE	1192	n/a	n/a	0	0	0
610.689453125	n/a	REC_WORD	1250692	wordpools/wasnorm_wordpool_576.txt	LTP344	ltpFR2	1	2	BULLET	194	n/a	n/a	0	0	0
612.62744140625	n/a	REC_WORD	1254661	wordpools/wasnorm_wordpool_576.txt	LTP344	ltpFR2	1	2	PILOT	1070	n/a	n/a	0	0	0
614.5595703125	n/a	REC_WORD	1258618	wordpools/wasnorm_wordpool_576.txt	LTP344	ltpFR2	1	2	ARMY	39	n/a	n/a	0	0	0
616.2451171875	n/a	REC_WORD	1262070	wordpools/wasnorm_wordpool_576.txt	LTP344	ltpFR2	1	2	MISSILE	900	n/a	n/a	0	0	0
618.17529296875	n/a	REC_WORD	1266023	wordpools/wasnorm_wordpool_576.txt	LTP344	ltpFR2	1	2	ROCKET	1202	n/a	n/a	0	0	0
620.17041015625	n/a	REC_WORD	1270109	wordpools/wasnorm_wordpool_576.txt	LTP344	ltpFR2	1	2	QUEEN	1149	n/a	n/a	0	0	0
624.34814453125	n/a	REC_WORD	1278665	wordpools/wasnorm_wordpool_576.txt	LTP344	ltpFR2	1	2	BANK	83	n/a	n/a	0	0	0
625.8642578125	n/a	REC_WORD	1281770	wordpools/wasnorm_wordpool_576.txt	LTP344	ltpFR2	1	2	RIVER	1194	n/a	n/a	0	0	0
629.5908203125	n/a	REC_WORD	1289402	wordpools/wasnorm_wordpool_576.txt	LTP344	ltpFR2	1	2	COCOON	339	n/a	n/a	0	0	0
631.5126953125	n/a	REC_WORD	1293338	wordpools/wasnorm_wordpool_576.txt	LTP344	ltpFR2	1	2	CRITIC	410	n/a	n/a	0	0	0
694.91015625	n/a	DISTRACTOR	1423176	n/a	LTP344	ltpFR2	1	3	n/a	n/a	n/a	n/a	0	0	0
694.91015625	n/a	START	1423176	n/a	LTP344	ltpFR2	1	n/a	n/a	n/a	3	n/a	n/a	n/a	n/a
694.92724609375	n/a	PROB	1423211	n/a	LTP344	ltpFR2	1	n/a	n/a	n/a	3	13	8	1	4
696.7919921875	n/a	PROB	1427030	n/a	LTP344	ltpFR2	1	n/a	n/a	n/a	3	13	2	6	5
698.68994140625	n/a	PROB	1430917	n/a	LTP344	ltpFR2	1	n/a	n/a	n/a	3	16	7	2	7
700.59033203125	n/a	PROB	1434809	n/a	LTP344	ltpFR2	1	n/a	n/a	n/a	3	14	6	1	7
702.10693359375	n/a	PROB	1437915	n/a	LTP344	ltpFR2	1	n/a	n/a	n/a	3	12	9	2	1
703.18896484375	n/a	PROB	1440131	n/a	LTP344	ltpFR2	1	n/a	n/a	n/a	3	15	7	1	7
704.5048828125	n/a	PROB	1442826	n/a	LTP344	ltpFR2	1	n/a	n/a	n/a	3	17	5	8	4
706.18798828125	n/a	PROB	1446273	n/a	LTP344	ltpFR2	1	n/a	n/a	n/a	3	26	8	9	9
708.703125	n/a	PROB	1451424	n/a	LTP344	ltpFR2	1	n/a	n/a	n/a	3	13	1	3	9
709.98583984375	n/a	PROB	1454051	n/a	LTP344	ltpFR2	1	n/a	n/a	n/a	3	15	7	4	4
711.96875	n/a	PROB	1458112	n/a	LTP344	ltpFR2	1	n/a	n/a	n/a	3	17	7	6	4
713.5498046875	n/a	PROB	1461350	n/a	LTP344	ltpFR2	1	n/a	n/a	n/a	3	23	7	7	9
715.74951171875	n/a	PROB	1465855	n/a	LTP344	ltpFR2	1	n/a	n/a	n/a	3	15	7	3	5
716.94970703125	n/a	PROB	1468313	n/a	LTP344	ltpFR2	1	n/a	n/a	n/a	3	14	4	9	1
717.99560546875	n/a	STOP	1470455	n/a	LTP344	ltpFR2	1	n/a	n/a	n/a	3	n/a	n/a	n/a	n/a
719.814453125	n/a	WORD	1474180	wordpools/wasnorm_wordpool_576.txt	LTP344	ltpFR2	1	3	FRAGRANCE	599	n/a	n/a	0	0	0
722.3466796875	n/a	WORD	1479366	wordpools/wasnorm_wordpool_576.txt	LTP344	ltpFR2	1	3	ZIPPER	1636	n/a	n/a	0	0	0
725.04541015625	n/a	WORD	1484893	wordpools/wasnorm_wordpool_576.txt	LTP344	ltpFR2	1	3	TROMBONE	1508	n/a	n/a	0	0	0
727.861328125	n/a	WORD	1490660	wordpools/wasnorm_wordpool_576.txt	LTP344	ltpFR2	1	3	GOBLIN	645	n/a	n/a	0	0	0
730.62548828125	n/a	WORD	1496321	wordpools/wasnorm_wordpool_576.txt	LTP344	ltpFR2	1	3	TRACTOR	1493	n/a	n/a	0	0	0
733.1083984375	n/a	WORD	1501406	wordpools/wasnorm_wordpool_576.txt	LTP344	ltpFR2	1	3	EMPIRE	530	n/a	n/a	0	0	0
735.9072265625	n/a	WORD	1507138	wordpools/wasnorm_wordpool_576.txt	LTP344	ltpFR2	1	3	BRAKE	166	n/a	n/a	0	0	0
738.587890625	n/a	WORD	1512628	wordpools/wasnorm_wordpool_576.txt	LTP344	ltpFR2	1	3	MARKET	871	n/a	n/a	0	0	0
741.2041015625	n/a	WORD	1517986	wordpools/wasnorm_wordpool_576.txt	LTP344	ltpFR2	1	3	PLAZA	1088	n/a	n/a	0	0	0
743.787109375	n/a	WORD	1523276	wordpools/wasnorm_wordpool_576.txt	LTP344	ltpFR2	1	3	HERO	706	n/a	n/a	0	0	0
746.40087890625	n/a	WORD	1528629	wordpools/wasnorm_wordpool_576.txt	LTP344	ltpFR2	1	3	GLASS	639	n/a	n/a	0	0	0
748.9677734375	n/a	WORD	1533886	wordpools/wasnorm_wordpool_576.txt	LTP344	ltpFR2	1	3	SHERIFF	1284	n/a	n/a	0	0	0
751.4658203125	n/a	WORD	1539002	wordpools/wasnorm_wordpool_576.txt	LTP344	ltpFR2	1	3	STAR	1373	n/a	n/a	0	0	0
754.1318359375	n/a	WORD	1544462	wordpools/wasnorm_wordpool_576.txt	LTP344	ltpFR2	1	3	ELBOW	520	n/a	n/a	0	0	0
756.94677734375	n/a	WORD	1550227	wordpools/wasnorm_wordpool_576.txt	LTP344	ltpFR2	1	3	SALT	1229	n/a	n/a	0	0	0
759.74560546875	n/a	WORD	1555959	wordpools/wasnorm_wordpool_576.txt	LTP344	ltpFR2	1	3	RECORD	1176	n/a	n/a	0	0	0
762.46044921875	n/a	WORD	1561519	wordpools/wasnorm_wordpool_576.txt	LTP344	ltpFR2	1	3	SUPPER	1411	n/a	n/a	0	0	0
764.95947265625	n/a	WORD	1566637	wordpools/wasnorm_wordpool_576.txt	LTP344	ltpFR2	1	3	KITCHEN	778	n/a	n/a	0	0	0
767.67431640625	n/a	WORD	1572197	wordpools/wasnorm_wordpool_576.txt	LTP344	ltpFR2	1	3	DRESS	495	n/a	n/a	0	0	0
770.42333984375	n/a	WORD	1577827	wordpools/wasnorm_wordpool_576.txt	LTP344	ltpFR2	1	3	HAMPER	682	n/a	n/a	0	0	0
773.072265625	n/a	WORD	1583252	wordpools/wasnorm_wordpool_576.txt	LTP344	ltpFR2	1	3	FIREMAN	569	n/a	n/a	0	0	0
775.88818359375	n/a	WORD	1589019	wordpools/wasnorm_wordpool_576.txt	LTP344	ltpFR2	1	3	PEPPER	1047	n/a	n/a	0	0	0
778.43603515625	n/a	WORD	1594237	wordpools/wasnorm_wordpool_576.txt	LTP344	ltpFR2	1	3	CLOUD	328	n/a	n/a	0	0	0
781.05224609375	n/a	WORD	1599595	wordpools/wasnorm_wordpool_576.txt	LTP344	ltpFR2	1	3	CRIB	407	n/a	n/a	0	0	0
782.6669921875	n/a	START	1602902	n/a	LTP344	ltpFR2	1	n/a	n/a	n/a	4	n/a	n/a	n/a	n/a
783.59716796875	n/a	DISTRACTOR	1604807	n/a	LTP344	ltpFR2	1	3	n/a	n/a	n/a	n/a	0	0	0
783.6171875	n/a	PROB	1604848	n/a	LTP344	ltpFR2	1	n/a	n/a	n/a	4	22	6	9	7
786.28271484375	n/a	PROB	1610307	n/a	LTP344	ltpFR2	1	n/a	n/a	n/a	4	20	8	8	4
788.11572265625	n/a	PROB	1614061	n/a	LTP344	ltpFR2	1	n/a	n/a	n/a	4	18	7	7	4
789.49658203125	n/a	PROB	1616889	n/a	LTP344	ltpFR2	1	n/a	n/a	n/a	4	12	5	1	6
790.61279296875	n/a	PROB	1619175	n/a	LTP344	ltpFR2	1	n/a	n/a	n/a	4	5	1	2	2
791.6796875	n/a	PROB	1621360	n/a	LTP344	ltpFR2	1	n/a	n/a	n/a	4	13	2	9	2
793.5615234375	n/a	PROB	1625214	n/a	LTP344	ltpFR2	1	n/a	n/a	n/a	4	12	3	8	1
795.1455078125	n/a	PROB	1628458	n/a	LTP344	ltpFR2	1	n/a	n/a	n/a	4	21	8	6	7
797.37646484375	n/a	PROB	1633027	n/a	LTP344	ltpFR2	1	n/a	n/a	n/a	4	15	5	4	6
799.2265625	n/a	PROB	1636816	n/a	LTP344	ltpFR2	1	n/a	n/a	n/a	4	24	9	9	6
800.859375	n/a	PROB	1640160	n/a	LTP344	ltpFR2	1	n/a	n/a	n/a	4	7	1	3	3
802.20849609375	n/a	PROB	1642923	n/a	LTP344	ltpFR2	1	n/a	n/a	n/a	4	21	4	8	9
803.94140625	n/a	PROB	1646472	n/a	LTP344	ltpFR2	1	n/a	n/a	n/a	4	14	7	1	6
806.076171875	n/a	STOP	1650844	n/a	LTP344	ltpFR2	1	n/a	n/a	n/a	4	n/a	n/a	n/a	n/a
808.47119140625	n/a	REC_START	1655749	n/a	LTP344	ltpFR2	1	3	n/a	n/a	n/a	n/a	0	0	0
810.2392578125	n/a	REC_WORD	1659370	wordpools/wasnorm_wordpool_576.txt	LTP344	ltpFR2	1	3	HAMPER	682	n/a	n/a	0	0	0
811.83544921875	n/a	REC_WORD	1662639	wordpools/wasnorm_wordpool_576.txt	LTP344	ltpFR2	1	3	PEPPER	1047	n/a	n/a	0	0	0
813.63037109375	n/a	REC_WORD	1666315	wordpools/wasnorm_wordpool_576.txt	LTP344	ltpFR2	1	3	FRAGRANCE	599	n/a	n/a	0	0	0
815.73095703125	n/a	REC_WORD	1670617	wordpools/wasnorm_wordpool_576.txt	LTP344	ltpFR2	1	3	SHERIFF	1284	n/a	n/a	0	0	0
820.16796875	n/a	REC_WORD	1679704	wordpools/wasnorm_wordpool_576.txt	LTP344	ltpFR2	1	3	STAR	1373	n/a	n/a	0	0	0
824.5849609375	n/a	REC_WORD	1688750	wordpools/wasnorm_wordpool_576.txt	LTP344	ltpFR2	1	3	MARKET	871	n/a	n/a	0	0	0
826.5009765625	n/a	REC_WORD	1692674	wordpools/wasnorm_wordpool_576.txt	LTP344	ltpFR2	1	3	PLAZA	1088	n/a	n/a	0	0	0
828.6689453125	n/a	REC_WORD	1697114	wordpools/wasnorm_wordpool_576.txt	LTP344	ltpFR2	1	3	RECORD	1176	n/a	n/a	0	0	0
847.0361328125	n/a	REC_WORD	1734730	wordpools/wasnorm_wordpool_576.txt	LTP344	ltpFR2	1	3	HERO	706	n/a	n/a	0	0	0
866.6298828125	n/a	REC_WORD	1774858	wordpools/wasnorm_wordpool_576.txt	LTP344	ltpFR2	1	3	ZIPPER	1636	n/a	n/a	0	0	0
870.56787109375	n/a	REC_WORD	1782923	wordpools/wasnorm_wordpool_576.txt	LTP344	ltpFR2	1	3	ELBOW	520	n/a	n/a	0	0	0
898.912109375	n/a	WORD	1840972	wordpools/wasnorm_wordpool_576.txt	LTP344	ltpFR2	1	4	CREATURE	403	n/a	n/a	0	0	0
901.72802734375	n/a	WORD	1846739	wordpools/wasnorm_wordpool_576.txt	LTP344	ltpFR2	1	4	HOOK	715	n/a	n/a	0	0	0
904.15966796875	n/a	WORD	1851719	wordpools/wasnorm_wordpool_576.txt	LTP344	ltpFR2	1	4	COUCH	386	n/a	n/a	0	0	0
906.90869140625	n/a	WORD	1857349	wordpools/wasnorm_wordpool_576.txt	LTP344	ltpFR2	1	4	IDOL	733	n/a	n/a	0	0	0
909.57275390625	n/a	WORD	1862805	wordpools/wasnorm_wordpool_576.txt	LTP344	ltpFR2	1	4	CHEST	295	n/a	n/a	0	0	0
912.0556640625	n/a	WORD	1867890	wordpools/wasnorm_wordpool_576.txt	LTP344	ltpFR2	1	4	BEAVER	109	n/a	n/a	0	0	0
914.58642578125	n/a	WORD	1873073	wordpools/wasnorm_wordpool_576.txt	LTP344	ltpFR2	1	4	BISON	131	n/a	n/a	0	0	0
917.28662109375	n/a	WORD	1878603	wordpools/wasnorm_wordpool_576.txt	LTP344	ltpFR2	1	4	SCISSORS	1250	n/a	n/a	0	0	0
919.7685546875	n/a	WORD	1883686	wordpools/wasnorm_wordpool_576.txt	LTP344	ltpFR2	1	4	MESSAGE	888	n/a	n/a	0	0	0
922.201171875	n/a	WORD	1888668	wordpools/wasnorm_wordpool_576.txt	LTP344	ltpFR2	1	4	SUBWAY	1400	n/a	n/a	0	0	0
924.71630859375	n/a	WORD	1893819	wordpools/wasnorm_wordpool_576.txt	LTP344	ltpFR2	1	4	CHAPEL	280	n/a	n/a	0	0	0
927.3154296875	n/a	WORD	1899142	wordpools/wasnorm_wordpool_576.txt	LTP344	ltpFR2	1	4	SUNSET	1408	n/a	n/a	0	0	0
929.96435546875	n/a	WORD	1904567	wordpools/wasnorm_wordpool_576.txt	LTP344	ltpFR2	1	4	KETCHUP	771	n/a	n/a	0	0	0
932.4951171875	n/a	WORD	1909750	wordpools/wasnorm_wordpool_576.txt	LTP344	ltpFR2	1	4	WAITER	1580	n/a	n/a	0	0	0
935.14501953125	n/a	WORD	1915177	wordpools/wasnorm_wordpool_576.txt	LTP344	ltpFR2	1	4	CABBAGE	210	n/a	n/a	0	0	0
937.759765625	n/a	WORD	1920532	wordpools/wasnorm_wordpool_576.txt	LTP344	ltpFR2	1	4	LETTUCE	814	n/a	n/a	0	0	0
940.35888671875	n/a	WORD	1925855	wordpools/wasnorm_wordpool_576.txt	LTP344	ltpFR2	1	4	BADGE	68	n/a	n/a	0	0	0
942.90771484375	n/a	WORD	1931075	wordpools/wasnorm_wordpool_576.txt	LTP344	ltpFR2	1	4	MEDAL	885	n/a	n/a	0	0	0
945.68896484375	n/a	WORD	1936771	wordpools/wasnorm_wordpool_576.txt	LTP344	ltpFR2	1	4	TABLE	1426	n/a	n/a	0	0	0
948.20556640625	n/a	WORD	1941925	wordpools/wasnorm_wordpool_576.txt	LTP344	ltpFR2	1	4	NAPKIN	937	n/a	n/a	0	0	0
950.7705078125	n/a	WORD	1947178	wordpools/wasnorm_wordpool_576.txt	LTP344	ltpFR2	1	4	FREEZER	604	n/a	n/a	0	0	0
953.36962890625	n/a	WORD	1952501	wordpools/wasnorm_wordpool_576.txt	LTP344	ltpFR2	1	4	THRONE	1461	n/a	n/a	0	0	0
956.00146484375	n/a	WORD	1957891	wordpools/wasnorm_wordpool_576.txt	LTP344	ltpFR2	1	4	SHARK	1275	n/a	n/a	0	0	0
958.7666015625	n/a	WORD	1963554	wordpools/wasnorm_wordpool_576.txt	LTP344	ltpFR2	1	4	CUPBOARD	425	n/a	n/a	0	0	0
960.38232421875	n/a	START	1966863	n/a	LTP344	ltpFR2	1	n/a	n/a	n/a	5	n/a	n/a	n/a	n/a
961.33837890625	n/a	DISTRACTOR	1968821	n/a	LTP344	ltpFR2	1	4	n/a	n/a	n/a	n/a	0	0	0
961.34912109375	n/a	PROB	1968843	n/a	LTP344	ltpFR2	1	n/a	n/a	n/a	5	15	4	2	9
963.18115234375	n/a	PROB	1972595	n/a	LTP344	ltpFR2	1	n/a	n/a	n/a	5	12	8	1	3
964.8642578125	n/a	PROB	1976042	n/a	LTP344	ltpFR2	1	n/a	n/a	n/a	5	18	6	3	9
967.37841796875	n/a	PROB	1981191	n/a	LTP344	ltpFR2	1	n/a	n/a	n/a	5	17	3	5	9
968.9453125	n/a	PROB	1984400	n/a	LTP344	ltpFR2	1	n/a	n/a	n/a	5	17	9	7	1
971.3271484375	n/a	PROB	1989278	n/a	LTP344	ltpFR2	1	n/a	n/a	n/a	5	19	4	9	6
973.22705078125	n/a	PROB	1993169	n/a	LTP344	ltpFR2	1	n/a	n/a	n/a	5	16	6	6	4
975.2587890625	n/a	PROB	1997330	n/a	LTP344	ltpFR2	1	n/a	n/a	n/a	5	13	4	2	7
977.35791015625	n/a	PROB	2001629	n/a	LTP344	ltpFR2	1	n/a	n/a	n/a	5	24	9	6	9
979.6728515625	n/a	PROB	2006370	n/a	LTP344	ltpFR2	1	n/a	n/a	n/a	5	25	9	6	8
981.98876953125	n/a	PROB	2011113	n/a	LTP344	ltpFR2	1	n/a	n/a	n/a	5	8	4	3	1
983.49169921875	n/a	STOP	2014191	n/a	LTP344	ltpFR2	1	n/a	n/a	n/a	5	n/a	n/a	n/a	n/a
986.23876953125	n/a	REC_START	2019817	n/a	LTP344	ltpFR2	1	4	n/a	n/a	n/a	n/a	0	0	0
987.630859375	n/a	REC_WORD	2022668	wordpools/wasnorm_wordpool_576.txt	LTP344	ltpFR2	1	4	CREATURE	403	n/a	n/a	0	0	0
989.599609375	n/a	REC_WORD	2026700	wordpools/wasnorm_wordpool_576.txt	LTP344	ltpFR2	1	4	THRONE	1461	n/a	n/a	0	0	0
991.4287109375	n/a	REC_WORD	2030446	wordpools/wasnorm_wordpool_576.txt	LTP344	ltpFR2	1	4	MESSAGE	888	n/a	n/a	0	0	0
993.45068359375	n/a	REC_WORD	2034587	wordpools/wasnorm_wordpool_576.txt	LTP344	ltpFR2	1	4	NAPKIN	937	n/a	n/a	0	0	0
995.95166015625	n/a	REC_WORD	2039709	wordpools/wasnorm_wordpool_576.txt	LTP344	ltpFR2	1	4	CUPBOARD	425	n/a	n/a	0	0	0
1000.49755859375	n/a	REC_WORD	2049019	wordpools/wasnorm_wordpool_576.txt	LTP344	ltpFR2	1	4	SUNSET	1408	n/a	n/a	0	0	0
1010.58984375	n/a	REC_WORD	2069688	wordpools/wasnorm_wordpool_576.txt	LTP344	ltpFR2	1	4	SHARK	1275	n/a	n/a	0	0	0
1076.67626953125	n/a	DISTRACTOR	2205033	n/a	LTP344	ltpFR2	1	5	n/a	n/a	n/a	n/a	0	0	0
1076.67626953125	n/a	START	2205033	n/a	LTP344	ltpFR2	1	n/a	n/a	n/a	6	n/a	n/a	n/a	n/a
1076.6923828125	n/a	PROB	2205066	n/a	LTP344	ltpFR2	1	n/a	n/a	n/a	6	19	9	4	6
1079.12548828125	n/a	PROB	2210049	n/a	LTP344	ltpFR2	1	n/a	n/a	n/a	6	23	8	8	7
1081.82421875	n/a	PROB	2215576	n/a	LTP344	ltpFR2	1	n/a	n/a	n/a	6	19	3	9	7
1083.50634765625	n/a	PROB	2219021	n/a	LTP344	ltpFR2	1	n/a	n/a	n/a	6	16	8	4	4
1086.55419921875	n/a	PROB	2225263	n/a	LTP344	ltpFR2	1	n/a	n/a	n/a	6	17	8	2	7
1087.9052734375	n/a	PROB	2228030	n/a	LTP344	ltpFR2	1	n/a	n/a	n/a	6	13	9	3	1
1089.60302734375	n/a	PROB	2231507	n/a	LTP344	ltpFR2	1	n/a	n/a	n/a	6	13	2	2	9
1090.8701171875	n/a	PROB	2234102	n/a	LTP344	ltpFR2	1	n/a	n/a	n/a	6	13	1	5	7
1092.7021484375	n/a	PROB	2237854	n/a	LTP344	ltpFR2	1	n/a	n/a	n/a	6	10	1	5	4
1094.28466796875	n/a	PROB	2241095	n/a	LTP344	ltpFR2	1	n/a	n/a	n/a	6	10	3	4	3
1096.23388671875	n/a	PROB	2245087	n/a	LTP344	ltpFR2	1	n/a	n/a	n/a	6	20	9	5	6
1099.3095703125	n/a	STOP	2251386	n/a	LTP344	ltpFR2	1	n/a	n/a	n/a	6	n/a	n/a	n/a	n/a
1101.630859375	n/a	WORD	2256140	wordpools/wasnorm_wordpool_576.txt	LTP344	ltpFR2	1	5	PRINCE	1124	n/a	n/a	0	0	0
1104.08056640625	n/a	WORD	2261157	wordpools/wasnorm_wordpool_576.txt	LTP344	ltpFR2	1	5	SHELF	1280	n/a	n/a	0	0	0
1106.57861328125	n/a	WORD	2266273	wordpools/wasnorm_wordpool_576.txt	LTP344	ltpFR2	1	5	FLASHLIGHT	575	n/a	n/a	0	0	0
1109.27734375	n/a	WORD	2271800	wordpools/wasnorm_wordpool_576.txt	LTP344	ltpFR2	1	5	MONSTER	912	n/a	n/a	0	0	0
1111.8935546875	n/a	WORD	2277158	wordpools/wasnorm_wordpool_576.txt	LTP344	ltpFR2	1	5	CROSS	413	n/a	n/a	0	0	0
1114.474609375	n/a	WORD	2282444	wordpools/wasnorm_wordpool_576.txt	LTP344	ltpFR2	1	5	ROBOT	1200	n/a	n/a	0	0	0
1117.20751953125	n/a	WORD	2288041	wordpools/wasnorm_wordpool_576.txt	LTP344	ltpFR2	1	5	CONTRACT	368	n/a	n/a	0	0	0
1119.7392578125	n/a	WORD	2293226	wordpools/wasnorm_wordpool_576.txt	LTP344	ltpFR2	1	5	FRIAR	605	n/a	n/a	0	0	0
1122.2880859375	n/a	WORD	2298446	wordpools/wasnorm_wordpool_576.txt	LTP344	ltpFR2	1	5	APPLE	33	n/a	n/a	0	0	0
1125.00390625	n/a	WORD	2304008	wordpools/wasnorm_wordpool_576.txt	LTP344	ltpFR2	1	5	TOMBSTONE	1478	n/a	n/a	0	0	0
1127.60107421875	n/a	WORD	2309327	wordpools/wasnorm_wordpool_576.txt	LTP344	ltpFR2	1	5	GRAVE	658	n/a	n/a	0	0	0
1130.28515625	n/a	WORD	2314824	wordpools/wasnorm_wordpool_576.txt	LTP344	ltpFR2	1	5	BRANDY	169	n/a	n/a	0	0	0
1132.81689453125	n/a	WORD	2320009	wordpools/wasnorm_wordpool_576.txt	LTP344	ltpFR2	1	5	FRIEND	606	n/a	n/a	0	0	0
1135.5810546875	n/a	WORD	2325670	wordpools/wasnorm_wordpool_576.txt	LTP344	ltpFR2	1	5	PALACE	1006	n/a	n/a	0	0	0
1138.34765625	n/a	WORD	2331336	wordpools/wasnorm_wordpool_576.txt	LTP344	ltpFR2	1	5	CHURCH	307	n/a	n/a	0	0	0
1141.0126953125	n/a	WORD	2336794	wordpools/wasnorm_wordpool_576.txt	LTP344	ltpFR2	1	5	TWISTER	1530	n/a	n/a	0	0	0
1143.76171875	n/a	WORD	2342424	wordpools/wasnorm_wordpool_576.txt	LTP344	ltpFR2	1	5	POPCORN	1104	n/a	n/a	0	0	0
1146.55859375	n/a	WORD	2348152	wordpools/wasnorm_wordpool_576.txt	LTP344	ltpFR2	1	5	HIKER	708	n/a	n/a	0	0	0
1149.025390625	n/a	WORD	2353204	wordpools/wasnorm_wordpool_576.txt	LTP344	ltpFR2	1	5	CHEMIST	292	n/a	n/a	0	0	0
1151.79052734375	n/a	WORD	2358867	wordpools/wasnorm_wordpool_576.txt	LTP344	ltpFR2	1	5	SALAD	1224	n/a	n/a	0	0	0
1154.4052734375	n/a	WORD	2364222	wordpools/wasnorm_wordpool_576.txt	LTP344	ltpFR2	1	5	ICING	732	n/a	n/a	0	0	0
1156.9384765625	n/a	WORD	2369410	wordpools/wasnorm_wordpool_576.txt	LTP344	ltpFR2	1	5	SHORTCAKE	1292	n/a	n/a	0	0	0
1159.5361328125	n/a	WORD	2374730	wordpools/wasnorm_wordpool_576.txt	LTP344	ltpFR2	1	5	WITNESS	1618	n/a	n/a	0	0	0
1162.18603515625	n/a	WORD	2380157	wordpools/wasnorm_wordpool_576.txt	LTP344	ltpFR2	1	5	BUNNY	198	n/a	n/a	0	0	0
1163.80224609375	n/a	START	2383467	n/a	LTP344	ltpFR2	1	n/a	n/a	n/a	7	n/a	n/a	n/a	n/a
1164.81689453125	n/a	DISTRACTOR	2385545	n/a	LTP344	ltpFR2	1	5	n/a	n/a	n/a	n/a	0	0	0
1164.8349609375	n/a	PROB	2385582	n/a	LTP344	ltpFR2	1	n/a	n/a	n/a	7	8	1	6	1
1166.25	n/a	PROB	2388480	n/a	LTP344	ltpFR2	1	n/a	n/a	n/a	7	20	6	9	5
1168.68212890625	n/a	PROB	2393461	n/a	LTP344	ltpFR2	1	n/a	n/a	n/a	7	9	1	1	7
1169.93212890625	n/a	PROB	2396021	n/a	LTP344	ltpFR2	1	n/a	n/a	n/a	7	16	8	3	5
1171.880859375	n/a	PROB	2400012	n/a	LTP344	ltpFR2	1	n/a	n/a	n/a	7	12	5	2	5
1173.1806640625	n/a	PROB	2402674	n/a	LTP344	ltpFR2	1	n/a	n/a	n/a	7	5	2	2	1
1174.22998046875	n/a	PROB	2404823	n/a	LTP344	ltpFR2	1	n/a	n/a	n/a	7	11	5	1	5
1175.2958984375	n/a	PROB	2407006	n/a	LTP344	ltpFR2	1	n/a	n/a	n/a	7	13	3	6	4
1176.52783203125	n/a	PROB	2409529	n/a	LTP344	ltpFR2	1	n/a	n/a	n/a	7	16	2	8	6
1177.74462890625	n/a	PROB	2412021	n/a	LTP344	ltpFR2	1	n/a	n/a	n/a	7	12	2	4	6
1179.177734375	n/a	PROB	2414956	n/a	LTP344	ltpFR2	1	n/a	n/a	n/a	7	16	4	5	7
1181.0595703125	n/a	PROB	2418810	n/a	LTP344	ltpFR2	1	n/a	n/a	n/a	7	8	4	2	2
1182.82568359375	n/a	PROB	2422427	n/a	LTP344	ltpFR2	1	n/a	n/a	n/a	7	1	7	7	3
1184.74169921875	n/a	PROB	2426351	n/a	LTP344	ltpFR2	1	n/a	n/a	n/a	7	17	7	6	4
1187.00537109375	n/a	STOP	2430987	n/a	LTP344	ltpFR2	1	n/a	n/a	n/a	7	n/a	n/a	n/a	n/a
1189.572265625	n/a	REC_START	2436244	n/a	LTP344	ltpFR2	1	5	n/a	n/a	n/a	n/a	0	0	0
1191.361328125	n/a	REC_WORD	2439908	wordpools/wasnorm_wordpool_576.txt	LTP344	ltpFR2	1	5	PRINCE	1124	n/a	n/a	0	0	0
1192.7431640625	n/a	REC_WORD	2442738	wordpools/wasnorm_wordpool_576.txt	LTP344	ltpFR2	1	5	MONSTER	912	n/a	n/a	0	0	0
1194.4384765625	n/a	REC_WORD	2446210	wordpools/wasnorm_wordpool_576.txt	LTP344	ltpFR2	1	5	TWISTER	1530	n/a	n/a	0	0	0
1196.0283203125	n/a	REC_WORD	2449466	wordpools/wasnorm_wordpool_576.txt	LTP344	ltpFR2	1	5	CHURCH	307	n/a	n/a	0	0	0
1197.8759765625	n/a	REC_WORD	2453250	wordpools/wasnorm_wordpool_576.txt	LTP344	ltpFR2	1	5	CROSS	413	n/a	n/a	0	0	0
1208.748046875	n/a	REC_WORD	2475516	wordpools/wasnorm_wordpool_576.txt	LTP344	ltpFR2	1	5	SHELF	1280	n/a	n/a	0	0	0
1236.400390625	n/a	REC_WORD	2532148	wordpools/wasnorm_wordpool_576.txt	LTP344	ltpFR2	1	5	SHORTCAKE	1292	n/a	n/a	0	0	0
1239.3720703125	n/a	REC_WORD	2538234	wordpools/wasnorm_wordpool_576.txt	LTP344	ltpFR2	1	5	ICING	732	n/a	n/a	0	0	0
1280.029296875	n/a	WORD	2621500	wordpools/wasnorm_wordpool_576.txt	LTP344	ltpFR2	1	6	DONOR	485	n/a	n/a	0	0	0
1282.81103515625	n/a	WORD	2627197	wordpools/wasnorm_wordpool_576.txt	LTP344	ltpFR2	1	6	EXPERT	543	n/a	n/a	0	0	0
1285.47607421875	n/a	WORD	2632655	wordpools/wasnorm_wordpool_576.txt	LTP344	ltpFR2	1	6	BASEMENT	94	n/a	n/a	0	0	0
1288.0419921875	n/a	WORD	2637910	wordpools/wasnorm_wordpool_576.txt	LTP344	ltpFR2	1	6	VALLEY	1545	n/a	n/a	0	0	0
1290.8408203125	n/a	WORD	2643642	wordpools/wasnorm_wordpool_576.txt	LTP344	ltpFR2	1	6	JOURNAL	760	n/a	n/a	0	0	0
1293.3056640625	n/a	WORD	2648690	wordpools/wasnorm_wordpool_576.txt	LTP344	ltpFR2	1	6	LABEL	790	n/a	n/a	0	0	0
1296.07177734375	n/a	WORD	2654355	wordpools/wasnorm_wordpool_576.txt	LTP344	ltpFR2	1	6	POET	1095	n/a	n/a	0	0	0
1298.685546875	n/a	WORD	2659708	wordpools/wasnorm_wordpool_576.txt	LTP344	ltpFR2	1	6	BEAKER	104	n/a	n/a	0	0	0
1301.21875	n/a	WORD	2664896	wordpools/wasnorm_wordpool_576.txt	LTP344	ltpFR2	1	6	COIN	343	n/a	n/a	0	0	0
1303.650390625	n/a	WORD	2669876	wordpools/wasnorm_wordpool_576.txt	LTP344	ltpFR2	1	6	CASHIER	254	n/a	n/a	0	0	0
1306.1162109375	n/a	WORD	2674926	wordpools/wasnorm_wordpool_576.txt	LTP344	ltpFR2	1	6	CREVICE	405	n/a	n/a	0	0	0
1308.88232421875	n/a	WORD	2680591	wordpools/wasnorm_wordpool_576.txt	LTP344	ltpFR2	1	6	CRATER	400	n/a	n/a	0	0	0
1311.4794921875	n/a	WORD	2685910	wordpools/wasnorm_wordpool_576.txt	LTP344	ltpFR2	1	6	SCARECROW	1245	n/a	n/a	0	0	0
1314.279296875	n/a	WORD	2691644	wordpools/wasnorm_wordpool_576.txt	LTP344	ltpFR2	1	6	NOVEL	960	n/a	n/a	0	0	0
1317.06103515625	n/a	WORD	2697341	wordpools/wasnorm_wordpool_576.txt	LTP344	ltpFR2	1	6	CHILD	299	n/a	n/a	0	0	0
1319.50927734375	n/a	WORD	2702355	wordpools/wasnorm_wordpool_576.txt	LTP344	ltpFR2	1	6	POWDER	1117	n/a	n/a	0	0	0
1322.0087890625	n/a	WORD	2707474	wordpools/wasnorm_wordpool_576.txt	LTP344	ltpFR2	1	6	MARKER	870	n/a	n/a	0	0	0
1324.55712890625	n/a	WORD	2712693	wordpools/wasnorm_wordpool_576.txt	LTP344	ltpFR2	1	6	SUMMIT	1405	n/a	n/a	0	0	0
1327.1396484375	n/a	WORD	2717982	wordpools/wasnorm_wordpool_576.txt	LTP344	ltpFR2	1	6	HEART	697	n/a	n/a	0	0	0
1329.7216796875	n/a	WORD	2723270	wordpools/wasnorm_wordpool_576.txt	LTP344	ltpFR2	1	6	CUSTARD	429	n/a	n/a	0	0	0
1332.51953125	n/a	WORD	2729000	wordpools/wasnorm_wordpool_576.txt	LTP344	ltpFR2	1	6	POSSUM	1112	n/a	n/a	0	0	0
1335.1025390625	n/a	WORD	2734290	wordpools/wasnorm_wordpool_576.txt	LTP344	ltpFR2	1	6	WINDOW	1611	n/a	n/a	0	0	0
1337.53369140625	n/a	WORD	2739269	wordpools/wasnorm_wordpool_576.txt	LTP344	ltpFR2	1	6	ORANGE	980	n/a	n/a	0	0	0
1340.20068359375	n/a	WORD	2744731	wordpools/wasnorm_wordpool_576.txt	LTP344	ltpFR2	1	6	FLAG	573	n/a	n/a	0	0	0
1341.81640625	n/a	START	2748040	n/a	LTP344	ltpFR2	1	n/a	n/a	n/a	8	n/a	n/a	n/a	n/a
1342.87744140625	n/a	DISTRACTOR	2750213	n/a	LTP344	ltpFR2	1	6	n/a	n/a	n/a	n/a	0	0	0
1342.88232421875	n/a	PROB	2750223	n/a	LTP344	ltpFR2	1	n/a	n/a	n/a	8	19	4	8	7
1344.76416015625	n/a	PROB	2754077	n/a	LTP344	ltpFR2	1	n/a	n/a	n/a	8	18	7	3	8
1345.99755859375	n/a	PROB	2756603	n/a	LTP344	ltpFR2	1	n/a	n/a	n/a	8	17	8	7	2
1347.46240234375	n/a	PROB	2759603	n/a	LTP344	ltpFR2	1	n/a	n/a	n/a	8	13	8	1	4
1349.146484375	n/a	PROB	2763052	n/a	LTP344	ltpFR2	1	n/a	n/a	n/a	8	9	2	6	1
1350.67724609375	n/a	PROB	2766187	n/a	LTP344	ltpFR2	1	n/a	n/a	n/a	8	16	5	6	5
1352.14404296875	n/a	PROB	2769191	n/a	LTP344	ltpFR2	1	n/a	n/a	n/a	8	19	9	5	5
1353.3271484375	n/a	PROB	2771614	n/a	LTP344	ltpFR2	1	n/a	n/a	n/a	8	10	2	6	2
1354.826171875	n/a	PROB	2774684	n/a	LTP344	ltpFR2	1	n/a	n/a	n/a	8	9	3	1	5
1356.34228515625	n/a	PROB	2777789	n/a	LTP344	ltpFR2	1	n/a	n/a	n/a	8	10	8	1	1
1357.52392578125	n/a	PROB	2780209	n/a	LTP344	ltpFR2	1	n/a	n/a	n/a	8	22	8	9	5
1359.6572265625	n/a	PROB	2784578	n/a	LTP344	ltpFR2	1	n/a	n/a	n/a	8	11	4	2	5
1361.38916015625	n/a	PROB	2788125	n/a	LTP344	ltpFR2	1	n/a	n/a	n/a	8	12	2	7	3
1362.7060546875	n/a	PROB	2790822	n/a	LTP344	ltpFR2	1	n/a	n/a	n/a	8	14	1	6	7
1364.10595703125	n/a	PROB	2793689	n/a	LTP344	ltpFR2	1	n/a	n/a	n/a	8	12	3	1	8
1365.73388671875	n/a	STOP	2797023	n/a	LTP344	ltpFR2	1	n/a	n/a	n/a	8	n/a	n/a	n/a	n/a
1367.56982421875	n/a	REC_START	2800783	n/a	LTP344	ltpFR2	1	6	n/a	n/a	n/a	n/a	0	0	0
1369.41064453125	n/a	REC_WORD	2804553	wordpools/wasnorm_wordpool_576.txt	LTP344	ltpFR2	1	6	DONOR	485	n/a	n/a	0	0	0
1371.310546875	n/a	REC_WORD	2808444	wordpools/wasnorm_wordpool_576.txt	LTP344	ltpFR2	1	6	HEART	697	n/a	n/a	0	0	0
1373.3828125	n/a	REC_WORD	2812688	wordpools/wasnorm_wordpool_576.txt	LTP344	ltpFR2	1	6	EXPERT	543	n/a	n/a	0	0	0
1375.1337890625	n/a	REC_WORD	2816274	wordpools/wasnorm_wordpool_576.txt	LTP344	ltpFR2	1	6	VALLEY	1545	n/a	n/a	0	0	0
1376.9716796875	n/a	REC_WORD	2820038	wordpools/wasnorm_wordpool_576.txt	LTP344	ltpFR2	1	6	CREVICE	405	n/a	n/a	0	0	0
1378.95751953125	n/a	REC_WORD	2824105	wordpools/wasnorm_wordpool_576.txt	LTP344	ltpFR2	1	6	CRATER	400	n/a	n/a	0	0	0
1381.6064453125	n/a	REC_WORD	2829530	wordpools/wasnorm_wordpool_576.txt	LTP344	ltpFR2	1	6	SUMMIT	1405	n/a	n/a	0	0	0
1386.3984375	n/a	REC_WORD	2839344	wordpools/wasnorm_wordpool_576.txt	LTP344	ltpFR2	1	6	JOURNAL	760	n/a	n/a	0	0	0
1388.10546875	n/a	REC_WORD	2842840	wordpools/wasnorm_wordpool_576.txt	LTP344	ltpFR2	1	6	LABEL	790	n/a	n/a	0	0	0
1390.00146484375	n/a	REC_WORD	2846723	wordpools/wasnorm_wordpool_576.txt	LTP344	ltpFR2	1	6	NOVEL	960	n/a	n/a	0	0	0
1395.97900390625	n/a	REC_WORD	2858965	wordpools/wasnorm_wordpool_576.txt	LTP344	ltpFR2	1	6	COIN	343	n/a	n/a	0	0	0
1415.66943359375	n/a	REC_WORD	2899291	wordpools/wasnorm_wordpool_576.txt	LTP344	ltpFR2	1	6	POET	1095	n/a	n/a	0	0	0
1458.01025390625	n/a	DISTRACTOR	2986005	n/a	LTP344	ltpFR2	1	7	n/a	n/a	n/a	n/a	0	0	0
1458.01025390625	n/a	START	2986005	n/a	LTP344	ltpFR2	1	n/a	n/a	n/a	9	n/a	n/a	n/a	n/a
1458.0263671875	n/a	PROB	2986038	n/a	LTP344	ltpFR2	1	n/a	n/a	n/a	9	19	5	5	9
1459.7421875	n/a	PROB	2989552	n/a	LTP344	ltpFR2	1	n/a	n/a	n/a	9	7	3	1	3
1461.20849609375	n/a	PROB	2992555	n/a	LTP344	ltpFR2	1	n/a	n/a	n/a	9	13	6	3	4
1462.54052734375	n/a	PROB	2995283	n/a	LTP344	ltpFR2	1	n/a	n/a	n/a	9	12	6	3	3
1463.9404296875	n/a	PROB	2998150	n/a	LTP344	ltpFR2	1	n/a	n/a	n/a	9	13	7	4	2
1465.88916015625	n/a	PROB	3002141	n/a	LTP344	ltpFR2	1	n/a	n/a	n/a	9	17	8	5	4
1467.9892578125	n/a	PROB	3006442	n/a	LTP344	ltpFR2	1	n/a	n/a	n/a	9	16	9	4	3
1470.0380859375	n/a	PROB	3010638	n/a	LTP344	ltpFR2	1	n/a	n/a	n/a	9	6	1	2	3
1471.18701171875	n/a	PROB	3012991	n/a	LTP344	ltpFR2	1	n/a	n/a	n/a	9	23	5	9	9
1472.90283203125	n/a	PROB	3016505	n/a	LTP344	ltpFR2	1	n/a	n/a	n/a	9	6	4	1	1
1475.05224609375	n/a	PROB	3020907	n/a	LTP344	ltpFR2	1	n/a	n/a	n/a	9	20	4	7	9
1477.3828125	n/a	PROB	3025680	n/a	LTP344	ltpFR2	1	n/a	n/a	n/a	9	8	1	4	3
1479.10009765625	n/a	PROB	3029197	n/a	LTP344	ltpFR2	1	n/a	n/a	n/a	9	14	8	2	4
1482.009765625	n/a	STOP	3035156	n/a	LTP344	ltpFR2	1	n/a	n/a	n/a	9	n/a	n/a	n/a	n/a
1483.19775390625	n/a	WORD	3037589	wordpools/wasnorm_wordpool_576.txt	LTP344	ltpFR2	1	7	FLASK	576	n/a	n/a	0	0	0
1485.8466796875	n/a	WORD	3043014	wordpools/wasnorm_wordpool_576.txt	LTP344	ltpFR2	1	7	GARDEN	623	n/a	n/a	0	0	0
1488.62744140625	n/a	WORD	3048709	wordpools/wasnorm_wordpool_576.txt	LTP344	ltpFR2	1	7	GRAPE	654	n/a	n/a	0	0	0
1491.4267578125	n/a	WORD	3054442	wordpools/wasnorm_wordpool_576.txt	LTP344	ltpFR2	1	7	COUSIN	392	n/a	n/a	0	0	0
1494.0595703125	n/a	WORD	3059834	wordpools/wasnorm_wordpool_576.txt	LTP344	ltpFR2	1	7	WORLD	1622	n/a	n/a	0	0	0
1496.724609375	n/a	WORD	3065292	wordpools/wasnorm_wordpool_576.txt	LTP344	ltpFR2	1	7	SURVEY	1414	n/a	n/a	0	0	0
1499.20751953125	n/a	WORD	3070377	wordpools/wasnorm_wordpool_576.txt	LTP344	ltpFR2	1	7	FOREHEAD	592	n/a	n/a	0	0	0
1501.72216796875	n/a	WORD	3075527	wordpools/wasnorm_wordpool_576.txt	LTP344	ltpFR2	1	7	JELLO	754	n/a	n/a	0	0	0
1504.271484375	n/a	WORD	3080748	wordpools/wasnorm_wordpool_576.txt	LTP344	ltpFR2	1	7	SNACK	1331	n/a	n/a	0	0	0
1507.05322265625	n/a	WORD	3086445	wordpools/wasnorm_wordpool_576.txt	LTP344	ltpFR2	1	7	DORM	488	n/a	n/a	0	0	0
1509.63427734375	n/a	WORD	3091731	wordpools/wasnorm_wordpool_576.txt	LTP344	ltpFR2	1	7	GARBAGE	622	n/a	n/a	0	0	0
1512.18408203125	n/a	WORD	3096953	wordpools/wasnorm_wordpool_576.txt	LTP344	ltpFR2	1	7	PARTNER	1017	n/a	n/a	0	0	0
1514.9658203125	n/a	WORD	3102650	wordpools/wasnorm_wordpool_576.txt	LTP344	ltpFR2	1	7	PIANO	1057	n/a	n/a	0	0	0
1517.4638671875	n/a	WORD	3107766	wordpools/wasnorm_wordpool_576.txt	LTP344	ltpFR2	1	7	FLUTE	585	n/a	n/a	0	0	0
1520.046875	n/a	WORD	3113056	wordpools/wasnorm_wordpool_576.txt	LTP344	ltpFR2	1	7	SHELTER	1282	n/a	n/a	0	0	0
1522.66162109375	n/a	WORD	3118411	wordpools/wasnorm_wordpool_576.txt	LTP344	ltpFR2	1	7	UNCLE	1536	n/a	n/a	0	0	0
1525.177734375	n/a	WORD	3123564	wordpools/wasnorm_wordpool_576.txt	LTP344	ltpFR2	1	7	RAFT	1159	n/a	n/a	0	0	0
1527.67578125	n/a	WORD	3128680	wordpools/wasnorm_wordpool_576.txt	LTP344	ltpFR2	1	7	BODY	145	n/a	n/a	0	0	0
1530.15869140625	n/a	WORD	3133765	wordpools/wasnorm_wordpool_576.txt	LTP344	ltpFR2	1	7	MARROW	872	n/a	n/a	0	0	0
1532.95751953125	n/a	WORD	3139497	wordpools/wasnorm_wordpool_576.txt	LTP344	ltpFR2	1	7	SPOOL	1356	n/a	n/a	0	0	0
1535.48828125	n/a	WORD	3144680	wordpools/wasnorm_wordpool_576.txt	LTP344	ltpFR2	1	7	HIGHWAY	707	n/a	n/a	0	0	0
1538.25537109375	n/a	WORD	3150347	wordpools/wasnorm_wordpool_576.txt	LTP344	ltpFR2	1	7	LEG	809	n/a	n/a	0	0	0
1540.72021484375	n/a	WORD	3155395	wordpools/wasnorm_wordpool_576.txt	LTP344	ltpFR2	1	7	SCARF	1246	n/a	n/a	0	0	0
1543.4013671875	n/a	WORD	3160886	wordpools/wasnorm_wordpool_576.txt	LTP344	ltpFR2	1	7	CHAMPAGNE	278	n/a	n/a	0	0	0
1545.01806640625	n/a	START	3164197	n/a	LTP344	ltpFR2	1	n/a	n/a	n/a	10	n/a	n/a	n/a	n/a
1546.2041015625	n/a	DISTRACTOR	3166626	n/a	LTP344	ltpFR2	1	7	n/a	n/a	n/a	n/a	0	0	0
1546.21826171875	n/a	PROB	3166655	n/a	LTP344	ltpFR2	1	n/a	n/a	n/a	10	19	3	8	8
1548.10009765625	n/a	PROB	3170509	n/a	LTP344	ltpFR2	1	n/a	n/a	n/a	10	17	4	5	8
1549.79931640625	n/a	PROB	3173989	n/a	LTP344	ltpFR2	1	n/a	n/a	n/a	10	15	8	5	2
1551.21484375	n/a	PROB	3176888	n/a	LTP344	ltpFR2	1	n/a	n/a	n/a	10	7	1	3	3
1552.47998046875	n/a	PROB	3179479	n/a	LTP344	ltpFR2	1	n/a	n/a	n/a	10	13	6	5	2
1554.0810546875	n/a	PROB	3182758	n/a	LTP344	ltpFR2	1	n/a	n/a	n/a	10	12	1	3	8
1555.4619140625	n/a	PROB	3185586	n/a	LTP344	ltpFR2	1	n/a	n/a	n/a	10	1	4	2	8
1557.14599609375	n/a	PROB	3189035	n/a	LTP344	ltpFR2	1	n/a	n/a	n/a	10	26	7	7	8
1560.11083984375	n/a	PROB	3195107	n/a	LTP344	ltpFR2	1	n/a	n/a	n/a	10	12	1	4	7
1561.74365234375	n/a	PROB	3198451	n/a	LTP344	ltpFR2	1	n/a	n/a	n/a	10	11	1	5	5
1562.69189453125	n/a	PROB	3200393	n/a	LTP344	ltpFR2	1	n/a	n/a	n/a	10	16	3	4	9
1564.45751953125	n/a	PROB	3204009	n/a	LTP344	ltpFR2	1	n/a	n/a	n/a	10	14	6	7	1
1565.82470703125	n/a	PROB	3206809	n/a	LTP344	ltpFR2	1	n/a	n/a	n/a	10	16	6	1	9
1567.45654296875	n/a	PROB	3210151	n/a	LTP344	ltpFR2	1	n/a	n/a	n/a	10	19	5	6	8
1568.982421875	n/a	STOP	3213276	n/a	LTP344	ltpFR2	1	n/a	n/a	n/a	10	n/a	n/a	n/a	n/a
1570.83935546875	n/a	REC_START	3217079	n/a	LTP344	ltpFR2	1	7	n/a	n/a	n/a	n/a	0	0	0
1571.9453125	n/a	REC_WORD	3219344	wordpools/wasnorm_wordpool_576.txt	LTP344	ltpFR2	1	7	SHELTER	1282	n/a	n/a	0	0	0
1573.685546875	n/a	REC_WORD	3222908	wordpools/wasnorm_wordpool_576.txt	LTP344	ltpFR2	1	7	UNCLE	1536	n/a	n/a	0	0	0
1575.474609375	n/a	REC_WORD	3226572	wordpools/wasnorm_wordpool_576.txt	LTP344	ltpFR2	1	7	BODY	145	n/a	n/a	0	0	0
1577.13134765625	n/a	REC_WORD	3229965	wordpools/wasnorm_wordpool_576.txt	LTP344	ltpFR2	1	7	LEG	809	n/a	n/a	0	0	0
1578.8125	n/a	REC_WORD	3233408	wordpools/wasnorm_wordpool_576.txt	LTP344	ltpFR2	1	7	SCARF	1246	n/a	n/a	0	0	0
1580.859375	n/a	REC_WORD	3237600	wordpools/wasnorm_wordpool_576.txt	LTP344	ltpFR2	1	7	DORM	488	n/a	n/a	0	0	0
1582.732421875	n/a	REC_WORD	3241436	wordpools/wasnorm_wordpool_576.txt	LTP344	ltpFR2	1	7	GARBAGE	622	n/a	n/a	0	0	0
1584.580078125	n/a	REC_WORD	3245220	wordpools/wasnorm_wordpool_576.txt	LTP344	ltpFR2	1	7	PARTNER	1017	n/a	n/a	0	0	0
1586.43408203125	n/a	REC_WORD	3249017	wordpools/wasnorm_wordpool_576.txt	LTP344	ltpFR2	1	7	WORLD	1622	n/a	n/a	0	0	0
1588.3671875	n/a	REC_WORD	3252976	wordpools/wasnorm_wordpool_576.txt	LTP344	ltpFR2	1	7	SURVEY	1414	n/a	n/a	0	0	0
1591.18896484375	n/a	REC_WORD	3258755	wordpools/wasnorm_wordpool_576.txt	LTP344	ltpFR2	1	7	FOREHEAD	592	n/a	n/a	0	0	0
1661.26220703125	n/a	DISTRACTOR	3402265	n/a	LTP344	ltpFR2	1	8	n/a	n/a	n/a	n/a	0	0	0
1661.26220703125	n/a	START	3402265	n/a	LTP344	ltpFR2	1	n/a	n/a	n/a	11	n/a	n/a	n/a	n/a
1661.279296875	n/a	PROB	3402300	n/a	LTP344	ltpFR2	1	n/a	n/a	n/a	11	17	4	6	7
1662.8623046875	n/a	PROB	3405542	n/a	LTP344	ltpFR2	1	n/a	n/a	n/a	11	17	9	2	6
1664.47705078125	n/a	PROB	3408849	n/a	LTP344	ltpFR2	1	n/a	n/a	n/a	11	13	2	7	4
1666.8759765625	n/a	PROB	3413762	n/a	LTP344	ltpFR2	1	n/a	n/a	n/a	11	6	2	2	2
1667.8759765625	n/a	PROB	3415810	n/a	LTP344	ltpFR2	1	n/a	n/a	n/a	11	19	6	5	8
1669.72509765625	n/a	PROB	3419597	n/a	LTP344	ltpFR2	1	n/a	n/a	n/a	11	18	1	8	9
1671.35693359375	n/a	PROB	3422939	n/a	LTP344	ltpFR2	1	n/a	n/a	n/a	11	18	5	4	9
1672.85693359375	n/a	PROB	3426011	n/a	LTP344	ltpFR2	1	n/a	n/a	n/a	11	17	1	8	8
1674.27294921875	n/a	PROB	3428911	n/a	LTP344	ltpFR2	1	n/a	n/a	n/a	11	15	7	1	7
1675.62060546875	n/a	PROB	3431671	n/a	LTP344	ltpFR2	1	n/a	n/a	n/a	11	16	9	4	3
1677.63671875	n/a	PROB	3435800	n/a	LTP344	ltpFR2	1	n/a	n/a	n/a	11	14	6	7	1
1679.0205078125	n/a	PROB	3438634	n/a	LTP344	ltpFR2	1	n/a	n/a	n/a	11	12	4	1	7
1680.40283203125	n/a	PROB	3441465	n/a	LTP344	ltpFR2	1	n/a	n/a	n/a	11	15	1	5	9
1681.91943359375	n/a	PROB	3444571	n/a	LTP344	ltpFR2	1	n/a	n/a	n/a	11	16	8	7	1
1683.82373046875	n/a	STOP	3448471	n/a	LTP344	ltpFR2	1	n/a	n/a	n/a	11	n/a	n/a	n/a	n/a
1686.28369140625	n/a	WORD	3453509	wordpools/wasnorm_wordpool_576.txt	LTP344	ltpFR2	1	8	BANJO	82	n/a	n/a	0	0	0
1689.0654296875	n/a	WORD	3459206	wordpools/wasnorm_wordpool_576.txt	LTP344	ltpFR2	1	8	WHISTLE	1606	n/a	n/a	0	0	0
1691.814453125	n/a	WORD	3464836	wordpools/wasnorm_wordpool_576.txt	LTP344	ltpFR2	1	8	BOARD	143	n/a	n/a	0	0	0
1694.34619140625	n/a	WORD	3470021	wordpools/wasnorm_wordpool_576.txt	LTP344	ltpFR2	1	8	DRUG	501	n/a	n/a	0	0	0
1696.779296875	n/a	WORD	3475004	wordpools/wasnorm_wordpool_576.txt	LTP344	ltpFR2	1	8	DAISY	435	n/a	n/a	0	0	0
1699.4931640625	n/a	WORD	3480562	wordpools/wasnorm_wordpool_576.txt	LTP344	ltpFR2	1	8	PLASTER	1085	n/a	n/a	0	0	0
1702.14306640625	n/a	WORD	3485989	wordpools/wasnorm_wordpool_576.txt	LTP344	ltpFR2	1	8	COOK	372	n/a	n/a	0	0	0
1704.7412109375	n/a	WORD	3491310	wordpools/wasnorm_wordpool_576.txt	LTP344	ltpFR2	1	8	PADDLE	1000	n/a	n/a	0	0	0
1707.2568359375	n/a	WORD	3496462	wordpools/wasnorm_wordpool_576.txt	LTP344	ltpFR2	1	8	INMATE	738	n/a	n/a	0	0	0
1710.05615234375	n/a	WORD	3502195	wordpools/wasnorm_wordpool_576.txt	LTP344	ltpFR2	1	8	SWAMP	1416	n/a	n/a	0	0	0
1712.669921875	n/a	WORD	3507548	wordpools/wasnorm_wordpool_576.txt	LTP344	ltpFR2	1	8	BUTCHER	203	n/a	n/a	0	0	0
1715.435546875	n/a	WORD	3513212	wordpools/wasnorm_wordpool_576.txt	LTP344	ltpFR2	1	8	BLACKBOARD	133	n/a	n/a	0	0	0
1718.20166015625	n/a	WORD	3518877	wordpools/wasnorm_wordpool_576.txt	LTP344	ltpFR2	1	8	NEUTRON	947	n/a	n/a	0	0	0
1720.83349609375	n/a	WORD	3524267	wordpools/wasnorm_wordpool_576.txt	LTP344	ltpFR2	1	8	PROTON	1132	n/a	n/a	0	0	0
1723.44873046875	n/a	WORD	3529623	wordpools/wasnorm_wordpool_576.txt	LTP344	ltpFR2	1	8	LOFT	840	n/a	n/a	0	0	0
1726.16455078125	n/a	WORD	3535185	wordpools/wasnorm_wordpool_576.txt	LTP344	ltpFR2	1	8	SWORD	1423	n/a	n/a	0	0	0
1728.896484375	n/a	WORD	3540780	wordpools/wasnorm_wordpool_576.txt	LTP344	ltpFR2	1	8	FRAME	600	n/a	n/a	0	0	0
1731.5615234375	n/a	WORD	3546238	wordpools/wasnorm_wordpool_576.txt	LTP344	ltpFR2	1	8	SKETCH	1315	n/a	n/a	0	0	0
1734.22705078125	n/a	WORD	3551697	wordpools/wasnorm_wordpool_576.txt	LTP344	ltpFR2	1	8	FRANCE	601	n/a	n/a	0	0	0
1736.9423828125	n/a	WORD	3557258	wordpools/wasnorm_wordpool_576.txt	LTP344	ltpFR2	1	8	SHORTS	1293	n/a	n/a	0	0	0
1739.7080078125	n/a	WORD	3562922	wordpools/wasnorm_wordpool_576.txt	LTP344	ltpFR2	1	8	VAGRANT	1544	n/a	n/a	0	0	0
1742.421875	n/a	WORD	3568480	wordpools/wasnorm_wordpool_576.txt	LTP344	ltpFR2	1	8	AIRPORT	13	n/a	n/a	0	0	0
1744.97216796875	n/a	WORD	3573703	wordpools/wasnorm_wordpool_576.txt	LTP344	ltpFR2	1	8	GRIZZLY	662	n/a	n/a	0	0	0
1747.7041015625	n/a	WORD	3579298	wordpools/wasnorm_wordpool_576.txt	LTP344	ltpFR2	1	8	FUNGUS	614	n/a	n/a	0	0	0
1749.31982421875	n/a	START	3582607	n/a	LTP344	ltpFR2	1	n/a	n/a	n/a	12	n/a	n/a	n/a	n/a
1750.458984375	n/a	DISTRACTOR	3584940	n/a	LTP344	ltpFR2	1	8	n/a	n/a	n/a	n/a	0	0	0
1750.46875	n/a	PROB	3584960	n/a	LTP344	ltpFR2	1	n/a	n/a	n/a	12	18	9	5	4
1753.03466796875	n/a	PROB	3590215	n/a	LTP344	ltpFR2	1	n/a	n/a	n/a	12	15	5	5	5
1754.06787109375	n/a	PROB	3592331	n/a	LTP344	ltpFR2	1	n/a	n/a	n/a	12	17	6	3	8
1756.06689453125	n/a	PROB	3596425	n/a	LTP344	ltpFR2	1	n/a	n/a	n/a	12	19	8	3	8
1758.59765625	n/a	PROB	3601608	n/a	LTP344	ltpFR2	1	n/a	n/a	n/a	12	21	3	9	9
1760.33154296875	n/a	PROB	3605159	n/a	LTP344	ltpFR2	1	n/a	n/a	n/a	12	13	6	5	2
1761.78076171875	n/a	PROB	3608127	n/a	LTP344	ltpFR2	1	n/a	n/a	n/a	12	21	6	6	9
1763.54541015625	n/a	PROB	3611741	n/a	LTP344	ltpFR2	1	n/a	n/a	n/a	12	10	2	6	2
1765.1455078125	n/a	PROB	3615018	n/a	LTP344	ltpFR2	1	n/a	n/a	n/a	12	14	8	5	1
1766.7783203125	n/a	PROB	3618362	n/a	LTP344	ltpFR2	1	n/a	n/a	n/a	12	28	9	7	9
1769.50927734375	n/a	PROB	3623955	n/a	LTP344	ltpFR2	1	n/a	n/a	n/a	12	10	4	3	3
1773.3193359375	n/a	STOP	3631758	n/a	LTP344	ltpFR2	1	n/a	n/a	n/a	12	n/a	n/a	n/a	n/a
1775.158203125	n/a	REC_START	3635524	n/a	LTP344	ltpFR2	1	8	n/a	n/a	n/a	n/a	0	0	0
1777.5419921875	n/a	REC_WORD	3640406	wordpools/wasnorm_wordpool_576.txt	LTP344	ltpFR2	1	8	GRIZZLY	662	n/a	n/a	0	0	0
1779.54833984375	n/a	REC_WORD	3644515	wordpools/wasnorm_wordpool_576.txt	LTP344	ltpFR2	1	8	PADDLE	1000	n/a	n/a	0	0	0
1781.86328125	n/a	REC_WORD	3649256	wordpools/wasnorm_wordpool_576.txt	LTP344	ltpFR2	1	8	DAISY	435	n/a	n/a	0	0	0
1831.09765625	n/a	REC_WORD	3750088	wordpools/wasnorm_wordpool_576.txt	LTP344	ltpFR2	1	8	FUNGUS	614	n/a	n/a	0	0	0
1851.7041015625	n/a	REST_REWET	3792290	n/a	LTP344	ltpFR2	1	8	n/a	n/a	n/a	n/a	0	0	0
2118.0595703125	n/a	DISTRACTOR	4337786	n/a	LTP344	ltpFR2	1	9	n/a	n/a	n/a	n/a	0	0	0
2118.0595703125	n/a	START	4337786	n/a	LTP344	ltpFR2	1	n/a	n/a	n/a	13	n/a	n/a	n/a	n/a
2118.076171875	n/a	PROB	4337820	n/a	LTP344	ltpFR2	1	n/a	n/a	n/a	13	11	5	1	5
2119.20947265625	n/a	PROB	4340141	n/a	LTP344	ltpFR2	1	n/a	n/a	n/a	13	15	8	5	2
2120.4072265625	n/a	PROB	4342594	n/a	LTP344	ltpFR2	1	n/a	n/a	n/a	13	11	1	3	7
2121.84130859375	n/a	PROB	4345531	n/a	LTP344	ltpFR2	1	n/a	n/a	n/a	13	20	8	5	7
2124.84033203125	n/a	PROB	4351673	n/a	LTP344	ltpFR2	1	n/a	n/a	n/a	13	14	6	1	7
2125.93896484375	n/a	PROB	4353923	n/a	LTP344	ltpFR2	1	n/a	n/a	n/a	13	11	8	2	1
2126.93896484375	n/a	PROB	4355971	n/a	LTP344	ltpFR2	1	n/a	n/a	n/a	13	15	1	6	8
2129.087890625	n/a	PROB	4360372	n/a	LTP344	ltpFR2	1	n/a	n/a	n/a	13	16	1	8	7
2130.787109375	n/a	PROB	4363852	n/a	LTP344	ltpFR2	1	n/a	n/a	n/a	13	19	9	7	3
2133.3017578125	n/a	PROB	4369002	n/a	LTP344	ltpFR2	1	n/a	n/a	n/a	13	19	6	8	5
2135.06787109375	n/a	PROB	4372619	n/a	LTP344	ltpFR2	1	n/a	n/a	n/a	13	14	2	4	8
2136.98388671875	n/a	PROB	4376543	n/a	LTP344	ltpFR2	1	n/a	n/a	n/a	13	17	6	9	2
2138.73291015625	n/a	PROB	4380125	n/a	LTP344	ltpFR2	1	n/a	n/a	n/a	13	18	3	8	7
2140.39794921875	n/a	PROB	4383535	n/a	LTP344	ltpFR2	1	n/a	n/a	n/a	13	15	5	7	3
2141.57568359375	n/a	STOP	4385947	n/a	LTP344	ltpFR2	1	n/a	n/a	n/a	13	n/a	n/a	n/a	n/a
2142.8974609375	n/a	WORD	4388654	wordpools/wasnorm_wordpool_576.txt	LTP344	ltpFR2	1	9	TURNIP	1521	n/a	n/a	0	0	0
2145.46142578125	n/a	WORD	4393905	wordpools/wasnorm_wordpool_576.txt	LTP344	ltpFR2	1	9	SLIME	1327	n/a	n/a	0	0	0
2148.19580078125	n/a	WORD	4399505	wordpools/wasnorm_wordpool_576.txt	LTP344	ltpFR2	1	9	SUSPECT	1415	n/a	n/a	0	0	0
2150.96044921875	n/a	WORD	4405167	wordpools/wasnorm_wordpool_576.txt	LTP344	ltpFR2	1	9	SPOUSE	1358	n/a	n/a	0	0	0
2153.3916015625	n/a	WORD	4410146	wordpools/wasnorm_wordpool_576.txt	LTP344	ltpFR2	1	9	PASTRY	1022	n/a	n/a	0	0	0
2156.17431640625	n/a	WORD	4415845	wordpools/wasnorm_wordpool_576.txt	LTP344	ltpFR2	1	9	ASIA	46	n/a	n/a	0	0	0
2158.60546875	n/a	WORD	4420824	wordpools/wasnorm_wordpool_576.txt	LTP344	ltpFR2	1	9	VICTIM	1562	n/a	n/a	0	0	0
2161.0390625	n/a	WORD	4425808	wordpools/wasnorm_wordpool_576.txt	LTP344	ltpFR2	1	9	AUTHOR	61	n/a	n/a	0	0	0
2163.55322265625	n/a	WORD	4430957	wordpools/wasnorm_wordpool_576.txt	LTP344	ltpFR2	1	9	CELLAR	267	n/a	n/a	0	0	0
2166.22021484375	n/a	WORD	4436419	wordpools/wasnorm_wordpool_576.txt	LTP344	ltpFR2	1	9	SOFTBALL	1343	n/a	n/a	0	0	0
2168.85205078125	n/a	WORD	4441809	wordpools/wasnorm_wordpool_576.txt	LTP344	ltpFR2	1	9	BACKBONE	66	n/a	n/a	0	0	0
2171.64990234375	n/a	WORD	4447539	wordpools/wasnorm_wordpool_576.txt	LTP344	ltpFR2	1	9	VIRUS	1572	n/a	n/a	0	0	0
2174.1328125	n/a	WORD	4452624	wordpools/wasnorm_wordpool_576.txt	LTP344	ltpFR2	1	9	ISLAND	745	n/a	n/a	0	0	0
2176.94775390625	n/a	WORD	4458389	wordpools/wasnorm_wordpool_576.txt	LTP344	ltpFR2	1	9	LONDON	843	n/a	n/a	0	0	0
2179.52880859375	n/a	WORD	4463675	wordpools/wasnorm_wordpool_576.txt	LTP344	ltpFR2	1	9	MAILMAN	858	n/a	n/a	0	0	0
2182.3115234375	n/a	WORD	4469374	wordpools/wasnorm_wordpool_576.txt	LTP344	ltpFR2	1	9	POSTAGE	1113	n/a	n/a	0	0	0
2185.1435546875	n/a	WORD	4475174	wordpools/wasnorm_wordpool_576.txt	LTP344	ltpFR2	1	9	PARSLEY	1016	n/a	n/a	0	0	0
2187.74267578125	n/a	WORD	4480497	wordpools/wasnorm_wordpool_576.txt	LTP344	ltpFR2	1	9	OUTLAW	989	n/a	n/a	0	0	0
2190.19140625	n/a	WORD	4485512	wordpools/wasnorm_wordpool_576.txt	LTP344	ltpFR2	1	9	CORAL	378	n/a	n/a	0	0	0
2193.00634765625	n/a	WORD	4491277	wordpools/wasnorm_wordpool_576.txt	LTP344	ltpFR2	1	9	LILY	821	n/a	n/a	0	0	0
2195.5380859375	n/a	WORD	4496462	wordpools/wasnorm_wordpool_576.txt	LTP344	ltpFR2	1	9	DOUGHNUT	490	n/a	n/a	0	0	0
2198.17138671875	n/a	WORD	4501855	wordpools/wasnorm_wordpool_576.txt	LTP344	ltpFR2	1	9	OZONE	996	n/a	n/a	0	0	0
2200.7861328125	n/a	WORD	4507210	wordpools/wasnorm_wordpool_576.txt	LTP344	ltpFR2	1	9	BRICK	172	n/a	n/a	0	0	0
2203.48388671875	n/a	WORD	4512735	wordpools/wasnorm_wordpool_576.txt	LTP344	ltpFR2	1	9	CAPTIVE	240	n/a	n/a	0	0	0
2205.10107421875	n/a	START	4516047	n/a	LTP344	ltpFR2	1	n/a	n/a	n/a	14	n/a	n/a	n/a	n/a
2206.125	n/a	DISTRACTOR	4518144	n/a	LTP344	ltpFR2	1	9	n/a	n/a	n/a	n/a	0	0	0
2206.13427734375	n/a	PROB	4518163	n/a	LTP344	ltpFR2	1	n/a	n/a	n/a	14	14	4	7	3
2208.39794921875	n/a	PROB	4522799	n/a	LTP344	ltpFR2	1	n/a	n/a	n/a	14	14	5	6	3
2210.44677734375	n/a	PROB	4526995	n/a	LTP344	ltpFR2	1	n/a	n/a	n/a	14	18	2	8	8
2211.6796875	n/a	PROB	4529520	n/a	LTP344	ltpFR2	1	n/a	n/a	n/a	14	16	8	2	6
2212.880859375	n/a	PROB	4531980	n/a	LTP344	ltpFR2	1	n/a	n/a	n/a	14	12	6	2	4
2215.37890625	n/a	PROB	4537096	n/a	LTP344	ltpFR2	1	n/a	n/a	n/a	14	18	7	9	2
2217.49365234375	n/a	PROB	4541427	n/a	LTP344	ltpFR2	1	n/a	n/a	n/a	14	13	2	9	2
2219.16064453125	n/a	PROB	4544841	n/a	LTP344	ltpFR2	1	n/a	n/a	n/a	14	20	6	6	8
2220.79345703125	n/a	PROB	4548185	n/a	LTP344	ltpFR2	1	n/a	n/a	n/a	14	19	7	5	7
2222.40869140625	n/a	PROB	4551493	n/a	LTP344	ltpFR2	1	n/a	n/a	n/a	14	14	4	2	8
2224.20849609375	n/a	PROB	4555179	n/a	LTP344	ltpFR2	1	n/a	n/a	n/a	14	1	1	9	4
2225.37353515625	n/a	PROB	4557565	n/a	LTP344	ltpFR2	1	n/a	n/a	n/a	14	11	5	5	1
2226.48974609375	n/a	PROB	4559851	n/a	LTP344	ltpFR2	1	n/a	n/a	n/a	14	13	6	2	5
2228.5126953125	n/a	STOP	4563994	n/a	LTP344	ltpFR2	1	n/a	n/a	n/a	14	n/a	n/a	n/a	n/a
2231.0224609375	n/a	REC_START	4569134	n/a	LTP344	ltpFR2	1	9	n/a	n/a	n/a	n/a	0	0	0
2232.4755859375	n/a	REC_WORD	4572110	wordpools/wasnorm_wordpool_576.txt	LTP344	ltpFR2	1	9	TURNIP	1521	n/a	n/a	0	0	0
2234.072265625	n/a	REC_WORD	4575380	wordpools/wasnorm_wordpool_576.txt	LTP344	ltpFR2	1	9	SLIME	-1	n/a	n/a	0	0	0
2236.42822265625	n/a	REC_WORD	4580205	wordpools/wasnorm_wordpool_576.txt	LTP344	ltpFR2	1	9	PARSLEY	1016	n/a	n/a	0	0	0
2239.88916015625	n/a	REC_WORD	4587293	wordpools/wasnorm_wordpool_576.txt	LTP344	ltpFR2	1	9	MAILMAN	858	n/a	n/a	0	0	0
2242.458984375	n/a	REC_WORD	4592556	wordpools/wasnorm_wordpool_576.txt	LTP344	ltpFR2	1	9	POSTAGE	1113	n/a	n/a	0	0	0
2277.48828125	n/a	REC_WORD	4664296	wordpools/wasnorm_wordpool_576.txt	LTP344	ltpFR2	1	9	CORAL	378	n/a	n/a	0	0	0
2290.69482421875	n/a	REC_WORD	4691343	wordpools/wasnorm_wordpool_576.txt	LTP344	ltpFR2	1	9	VICTIM	1562	n/a	n/a	0	0	0
2293.86669921875	n/a	REC_WORD	4697839	wordpools/wasnorm_wordpool_576.txt	LTP344	ltpFR2	1	9	SUSPECT	1415	n/a	n/a	0	0	0
2296.52978515625	n/a	REC_WORD	4703293	wordpools/wasnorm_wordpool_576.txt	LTP344	ltpFR2	1	9	SPOUSE	1358	n/a	n/a	0	0	0
2321.4609375	n/a	WORD	4754352	wordpools/wasnorm_wordpool_576.txt	LTP344	ltpFR2	1	10	COUNTRY	388	n/a	n/a	0	0	0
2324.1611328125	n/a	WORD	4759882	wordpools/wasnorm_wordpool_576.txt	LTP344	ltpFR2	1	10	PARROT	1015	n/a	n/a	0	0	0
2326.69287109375	n/a	WORD	4765067	wordpools/wasnorm_wordpool_576.txt	LTP344	ltpFR2	1	10	TAXI	1438	n/a	n/a	0	0	0
2329.24169921875	n/a	WORD	4770287	wordpools/wasnorm_wordpool_576.txt	LTP344	ltpFR2	1	10	SPOON	1357	n/a	n/a	0	0	0
2331.98974609375	n/a	WORD	4775915	wordpools/wasnorm_wordpool_576.txt	LTP344	ltpFR2	1	10	RAZOR	1171	n/a	n/a	0	0	0
2334.771484375	n/a	WORD	4781612	wordpools/wasnorm_wordpool_576.txt	LTP344	ltpFR2	1	10	LIGHTNING	820	n/a	n/a	0	0	0
2337.353515625	n/a	WORD	4786900	wordpools/wasnorm_wordpool_576.txt	LTP344	ltpFR2	1	10	GREASE	660	n/a	n/a	0	0	0
2339.8525390625	n/a	WORD	4792018	wordpools/wasnorm_wordpool_576.txt	LTP344	ltpFR2	1	10	CAFE	216	n/a	n/a	0	0	0
2342.53466796875	n/a	WORD	4797511	wordpools/wasnorm_wordpool_576.txt	LTP344	ltpFR2	1	10	BUREAU	199	n/a	n/a	0	0	0
2345.13330078125	n/a	WORD	4802833	wordpools/wasnorm_wordpool_576.txt	LTP344	ltpFR2	1	10	BIKE	125	n/a	n/a	0	0	0
2347.732421875	n/a	WORD	4808156	wordpools/wasnorm_wordpool_576.txt	LTP344	ltpFR2	1	10	PREACHER	1119	n/a	n/a	0	0	0
2350.5302734375	n/a	WORD	4813886	wordpools/wasnorm_wordpool_576.txt	LTP344	ltpFR2	1	10	THREAD	1460	n/a	n/a	0	0	0
2353.21337890625	n/a	WORD	4819381	wordpools/wasnorm_wordpool_576.txt	LTP344	ltpFR2	1	10	COLLEGE	346	n/a	n/a	0	0	0
2356.0283203125	n/a	WORD	4825146	wordpools/wasnorm_wordpool_576.txt	LTP344	ltpFR2	1	10	RUST	1219	n/a	n/a	0	0	0
2358.6943359375	n/a	WORD	4830606	wordpools/wasnorm_wordpool_576.txt	LTP344	ltpFR2	1	10	LUMBER	848	n/a	n/a	0	0	0
2361.14306640625	n/a	WORD	4835621	wordpools/wasnorm_wordpool_576.txt	LTP344	ltpFR2	1	10	PRINCESS	1125	n/a	n/a	0	0	0
2363.841796875	n/a	WORD	4841148	wordpools/wasnorm_wordpool_576.txt	LTP344	ltpFR2	1	10	HORSE	719	n/a	n/a	0	0	0
2366.60595703125	n/a	WORD	4846809	wordpools/wasnorm_wordpool_576.txt	LTP344	ltpFR2	1	10	STAMP	1370	n/a	n/a	0	0	0
2369.171875	n/a	WORD	4852064	wordpools/wasnorm_wordpool_576.txt	LTP344	ltpFR2	1	10	SNAKE	1333	n/a	n/a	0	0	0
2371.87060546875	n/a	WORD	4857591	wordpools/wasnorm_wordpool_576.txt	LTP344	ltpFR2	1	10	POISON	1096	n/a	n/a	0	0	0
2374.46875	n/a	WORD	4862912	wordpools/wasnorm_wordpool_576.txt	LTP344	ltpFR2	1	10	COUNTY	389	n/a	n/a	0	0	0
2377.134765625	n/a	WORD	4868372	wordpools/wasnorm_wordpool_576.txt	LTP344	ltpFR2	1	10	STUDENT	1395	n/a	n/a	0	0	0
2379.68359375	n/a	WORD	4873592	wordpools/wasnorm_wordpool_576.txt	LTP344	ltpFR2	1	10	TEMPLE	1448	n/a	n/a	0	0	0
2382.265625	n/a	WORD	4878880	wordpools/wasnorm_wordpool_576.txt	LTP344	ltpFR2	1	10	DRIVER	499	n/a	n/a	0	0	0
2383.88232421875	n/a	START	4882191	n/a	LTP344	ltpFR2	1	n/a	n/a	n/a	15	n/a	n/a	n/a	n/a
2384.865234375	n/a	DISTRACTOR	4884204	n/a	LTP344	ltpFR2	1	10	n/a	n/a	n/a	n/a	0	0	0
2384.88134765625	n/a	PROB	4884237	n/a	LTP344	ltpFR2	1	n/a	n/a	n/a	15	11	1	1	9
2386.33056640625	n/a	PROB	4887205	n/a	LTP344	ltpFR2	1	n/a	n/a	n/a	15	20	5	9	6
2389.3125	n/a	PROB	4893312	n/a	LTP344	ltpFR2	1	n/a	n/a	n/a	15	13	6	3	5
2391.1953125	n/a	PROB	4897168	n/a	LTP344	ltpFR2	1	n/a	n/a	n/a	15	11	3	5	3
2392.77734375	n/a	PROB	4900408	n/a	LTP344	ltpFR2	1	n/a	n/a	n/a	15	26	8	7	7
2395.04296875	n/a	PROB	4905048	n/a	LTP344	ltpFR2	1	n/a	n/a	n/a	15	9	6	2	1
2396.97509765625	n/a	PROB	4909005	n/a	LTP344	ltpFR2	1	n/a	n/a	n/a	15	9	1	3	5
2398.923828125	n/a	PROB	4912996	n/a	LTP344	ltpFR2	1	n/a	n/a	n/a	15	16	6	8	2
2400.7900390625	n/a	PROB	4916818	n/a	LTP344	ltpFR2	1	n/a	n/a	n/a	15	11	1	2	8
2402.7060546875	n/a	PROB	4920742	n/a	LTP344	ltpFR2	1	n/a	n/a	n/a	15	8	2	3	3
2404.3046875	n/a	PROB	4924016	n/a	LTP344	ltpFR2	1	n/a	n/a	n/a	15	17	7	1	9
2406.07080078125	n/a	PROB	4927633	n/a	LTP344	ltpFR2	1	n/a	n/a	n/a	15	19	9	8	2
2407.4326171875	n/a	STOP	4930422	n/a	LTP344	ltpFR2	1	n/a	n/a	n/a	15	n/a	n/a	n/a	n/a
2409.7529296875	n/a	REC_START	4935174	n/a	LTP344	ltpFR2	1	10	n/a	n/a	n/a	n/a	0	0	0
2410.86669921875	n/a	REC_WORD	4937455	wordpools/wasnorm_wordpool_576.txt	LTP344	ltpFR2	1	10	COUNTRY	388	n/a	n/a	0	0	0
2413.560546875	n/a	REC_WORD	4942972	wordpools/wasnorm_wordpool_576.txt	LTP344	ltpFR2	1	10	COUNTY	389	n/a	n/a	0	0	0
2416.79248046875	n/a	REC_WORD	4949591	wordpools/wasnorm_wordpool_576.txt	LTP344	ltpFR2	1	10	PRINCESS	1125	n/a	n/a	0	0	0
2419.388671875	n/a	REC_WORD	4954908	wordpools/wasnorm_wordpool_576.txt	LTP344	ltpFR2	1	10	HORSE	719	n/a	n/a	0	0	0
2432.7470703125	n/a	REC_WORD	4982266	wordpools/wasnorm_wordpool_576.txt	LTP344	ltpFR2	1	10	LIGHTNING	820	n/a	n/a	0	0	0
2434.54736328125	n/a	REC_WORD	4985953	wordpools/wasnorm_wordpool_576.txt	LTP344	ltpFR2	1	10	RAZOR	1171	n/a	n/a	0	0	0
2436.51806640625	n/a	REC_WORD	4989989	wordpools/wasnorm_wordpool_576.txt	LTP344	ltpFR2	1	10	GREASE	660	n/a	n/a	0	0	0
2447.720703125	n/a	REC_WORD	5012932	wordpools/wasnorm_wordpool_576.txt	LTP344	ltpFR2	1	10	STAMP	1370	n/a	n/a	0	0	0
2450.83447265625	n/a	REC_WORD	5019309	wordpools/wasnorm_wordpool_576.txt	LTP344	ltpFR2	1	10	SPOON	1357	n/a	n/a	0	0	0
2454.24658203125	n/a	REC_WORD	5026297	wordpools/wasnorm_wordpool_576.txt	LTP344	ltpFR2	1	10	PARROT	1015	n/a	n/a	0	0	0
2457.66455078125	n/a	REC_WORD	5033297	wordpools/wasnorm_wordpool_576.txt	LTP344	ltpFR2	1	10	CAFE	216	n/a	n/a	0	0	0
2460.978515625	n/a	REC_WORD	5040084	wordpools/wasnorm_wordpool_576.txt	LTP344	ltpFR2	1	10	BUREAU	199	n/a	n/a	0	0	0
2500.1923828125	n/a	DISTRACTOR	5120394	n/a	LTP344	ltpFR2	1	11	n/a	n/a	n/a	n/a	0	0	0
2500.1923828125	n/a	START	5120394	n/a	LTP344	ltpFR2	1	n/a	n/a	n/a	16	n/a	n/a	n/a	n/a
2500.20947265625	n/a	PROB	5120429	n/a	LTP344	ltpFR2	1	n/a	n/a	n/a	16	16	8	6	2
2501.6572265625	n/a	PROB	5123394	n/a	LTP344	ltpFR2	1	n/a	n/a	n/a	16	14	4	9	1
2503.39013671875	n/a	PROB	5126943	n/a	LTP344	ltpFR2	1	n/a	n/a	n/a	16	22	9	8	5
2505.50537109375	n/a	PROB	5131275	n/a	LTP344	ltpFR2	1	n/a	n/a	n/a	16	11	3	7	1
2506.72314453125	n/a	PROB	5133769	n/a	LTP344	ltpFR2	1	n/a	n/a	n/a	16	18	7	9	2
2508.83837890625	n/a	PROB	5138101	n/a	LTP344	ltpFR2	1	n/a	n/a	n/a	16	10	4	4	2
2510.12109375	n/a	PROB	5140728	n/a	LTP344	ltpFR2	1	n/a	n/a	n/a	16	20	6	6	8
2512.9033203125	n/a	PROB	5146426	n/a	LTP344	ltpFR2	1	n/a	n/a	n/a	16	16	9	2	5
2515.38427734375	n/a	PROB	5151507	n/a	LTP344	ltpFR2	1	n/a	n/a	n/a	16	14	5	8	1
2517.083984375	n/a	PROB	5154988	n/a	LTP344	ltpFR2	1	n/a	n/a	n/a	16	100	1	5	4
2518.3330078125	n/a	PROB	5157546	n/a	LTP344	ltpFR2	1	n/a	n/a	n/a	16	14	5	2	7
2521.6650390625	n/a	PROB	5164370	n/a	LTP344	ltpFR2	1	n/a	n/a	n/a	16	10	1	1	8
2522.666015625	n/a	STOP	5166420	n/a	LTP344	ltpFR2	1	n/a	n/a	n/a	16	n/a	n/a	n/a	n/a
2525.1806640625	n/a	WORD	5171570	wordpools/wasnorm_wordpool_576.txt	LTP344	ltpFR2	1	11	TRUCK	1512	n/a	n/a	0	0	0
2527.962890625	n/a	WORD	5177268	wordpools/wasnorm_wordpool_576.txt	LTP344	ltpFR2	1	11	WAGON	1578	n/a	n/a	0	0	0
2530.7275390625	n/a	WORD	5182930	wordpools/wasnorm_wordpool_576.txt	LTP344	ltpFR2	1	11	BLADE	134	n/a	n/a	0	0	0
2533.3095703125	n/a	WORD	5188218	wordpools/wasnorm_wordpool_576.txt	LTP344	ltpFR2	1	11	VALVE	1546	n/a	n/a	0	0	0
2535.82568359375	n/a	WORD	5193371	wordpools/wasnorm_wordpool_576.txt	LTP344	ltpFR2	1	11	WHISKERS	1605	n/a	n/a	0	0	0
2538.5732421875	n/a	WORD	5198998	wordpools/wasnorm_wordpool_576.txt	LTP344	ltpFR2	1	11	MASK	876	n/a	n/a	0	0	0
2541.2734375	n/a	WORD	5204528	wordpools/wasnorm_wordpool_576.txt	LTP344	ltpFR2	1	11	LAVA	804	n/a	n/a	0	0	0
2543.88818359375	n/a	WORD	5209883	wordpools/wasnorm_wordpool_576.txt	LTP344	ltpFR2	1	11	LODGE	839	n/a	n/a	0	0	0
2546.58642578125	n/a	WORD	5215409	wordpools/wasnorm_wordpool_576.txt	LTP344	ltpFR2	1	11	POCKET	1093	n/a	n/a	0	0	0
2549.30224609375	n/a	WORD	5220971	wordpools/wasnorm_wordpool_576.txt	LTP344	ltpFR2	1	11	TURKEY	1520	n/a	n/a	0	0	0
2551.85107421875	n/a	WORD	5226191	wordpools/wasnorm_wordpool_576.txt	LTP344	ltpFR2	1	11	SAUSAGE	1238	n/a	n/a	0	0	0
2554.31689453125	n/a	WORD	5231241	wordpools/wasnorm_wordpool_576.txt	LTP344	ltpFR2	1	11	BANKER	84	n/a	n/a	0	0	0
2556.798828125	n/a	WORD	5236324	wordpools/wasnorm_wordpool_576.txt	LTP344	ltpFR2	1	11	CASKET	255	n/a	n/a	0	0	0
2559.28076171875	n/a	WORD	5241407	wordpools/wasnorm_wordpool_576.txt	LTP344	ltpFR2	1	11	HOUND	724	n/a	n/a	0	0	0
2562.0458984375	n/a	WORD	5247070	wordpools/wasnorm_wordpool_576.txt	LTP344	ltpFR2	1	11	PORK	1108	n/a	n/a	0	0	0
2564.8447265625	n/a	WORD	5252802	wordpools/wasnorm_wordpool_576.txt	LTP344	ltpFR2	1	11	ANKLE	24	n/a	n/a	0	0	0
2567.642578125	n/a	WORD	5258532	wordpools/wasnorm_wordpool_576.txt	LTP344	ltpFR2	1	11	FOOT	590	n/a	n/a	0	0	0
2570.07568359375	n/a	WORD	5263515	wordpools/wasnorm_wordpool_576.txt	LTP344	ltpFR2	1	11	FIREPLACE	570	n/a	n/a	0	0	0
2572.67431640625	n/a	WORD	5268837	wordpools/wasnorm_wordpool_576.txt	LTP344	ltpFR2	1	11	OUTDOORS	987	n/a	n/a	0	0	0
2575.2236328125	n/a	WORD	5274058	wordpools/wasnorm_wordpool_576.txt	LTP344	ltpFR2	1	11	MOTEL	919	n/a	n/a	0	0	0
2577.9384765625	n/a	WORD	5279618	wordpools/wasnorm_wordpool_576.txt	LTP344	ltpFR2	1	11	BOYFRIEND	162	n/a	n/a	0	0	0
2580.6533203125	n/a	WORD	5285178	wordpools/wasnorm_wordpool_576.txt	LTP344	ltpFR2	1	11	BROOK	177	n/a	n/a	0	0	0
2583.35107421875	n/a	WORD	5290703	wordpools/wasnorm_wordpool_576.txt	LTP344	ltpFR2	1	11	ACTOR	5	n/a	n/a	0	0	0
2585.80126953125	n/a	WORD	5295721	wordpools/wasnorm_wordpool_576.txt	LTP344	ltpFR2	1	11	RABBIT	1152	n/a	n/a	0	0	0
2587.416015625	n/a	START	5299028	n/a	LTP344	ltpFR2	1	n/a	n/a	n/a	17	n/a	n/a	n/a	n/a
2588.23291015625	n/a	DISTRACTOR	5300701	n/a	LTP344	ltpFR2	1	11	n/a	n/a	n/a	n/a	0	0	0
2588.25	n/a	PROB	5300736	n/a	LTP344	ltpFR2	1	n/a	n/a	n/a	17	13	6	6	1
2589.76611328125	n/a	PROB	5303841	n/a	LTP344	ltpFR2	1	n/a	n/a	n/a	17	21	9	6	6
2591.71484375	n/a	PROB	5307832	n/a	LTP344	ltpFR2	1	n/a	n/a	n/a	17	14	3	2	9
2593.9638671875	n/a	PROB	5312438	n/a	LTP344	ltpFR2	1	n/a	n/a	n/a	17	21	8	9	4
2596.712890625	n/a	PROB	5318068	n/a	LTP344	ltpFR2	1	n/a	n/a	n/a	17	10	3	1	6
2597.9619140625	n/a	PROB	5320626	n/a	LTP344	ltpFR2	1	n/a	n/a	n/a	17	23	9	8	6
2600.56005859375	n/a	PROB	5325947	n/a	LTP344	ltpFR2	1	n/a	n/a	n/a	17	22	8	8	6
2603.67578125	n/a	PROB	5332328	n/a	LTP344	ltpFR2	1	n/a	n/a	n/a	17	22	6	9	7
2606.724609375	n/a	PROB	5338572	n/a	LTP344	ltpFR2	1	n/a	n/a	n/a	17	12	6	3	3
2608.24072265625	n/a	PROB	5341677	n/a	LTP344	ltpFR2	1	n/a	n/a	n/a	17	14	5	6	3
2610.361328125	n/a	STOP	5346020	n/a	LTP344	ltpFR2	1	n/a	n/a	n/a	17	n/a	n/a	n/a	n/a
2613.25537109375	n/a	REC_START	5351947	n/a	LTP344	ltpFR2	1	11	n/a	n/a	n/a	n/a	0	0	0
2620.0703125	n/a	REC_WORD	5365904	wordpools/wasnorm_wordpool_576.txt	LTP344	ltpFR2	1	11	BOYFRIEND	162	n/a	n/a	0	0	0
2625.994140625	n/a	REC_WORD	5378036	wordpools/wasnorm_wordpool_576.txt	LTP344	ltpFR2	1	11	FIREPLACE	570	n/a	n/a	0	0	0
2628.47412109375	n/a	REC_WORD	5383115	wordpools/wasnorm_wordpool_576.txt	LTP344	ltpFR2	1	11	OUTDOORS	987	n/a	n/a	0	0	0
2630.923828125	n/a	REC_WORD	5388132	wordpools/wasnorm_wordpool_576.txt	LTP344	ltpFR2	1	11	MOTEL	919	n/a	n/a	0	0	0
2634.01318359375	n/a	REC_WORD	5394459	wordpools/wasnorm_wordpool_576.txt	LTP344	ltpFR2	1	11	MASK	876	n/a	n/a	0	0	0
2637.044921875	n/a	REC_WORD	5400668	wordpools/wasnorm_wordpool_576.txt	LTP344	ltpFR2	1	11	LAVA	804	n/a	n/a	0	0	0
2646.73876953125	n/a	REC_WORD	5420521	wordpools/wasnorm_wordpool_576.txt	LTP344	ltpFR2	1	11	WHISKERS	1605	n/a	n/a	0	0	0
2703.6953125	n/a	WORD	5537168	wordpools/wasnorm_wordpool_576.txt	LTP344	ltpFR2	1	12	GUITAR	670	n/a	n/a	0	0	0
2706.3271484375	n/a	WORD	5542558	wordpools/wasnorm_wordpool_576.txt	LTP344	ltpFR2	1	12	DINER	467	n/a	n/a	0	0	0
2709.1259765625	n/a	WORD	5548290	wordpools/wasnorm_wordpool_576.txt	LTP344	ltpFR2	1	12	HAND	683	n/a	n/a	0	0	0
2711.55712890625	n/a	WORD	5553269	wordpools/wasnorm_wordpool_576.txt	LTP344	ltpFR2	1	12	ROBBER	1197	n/a	n/a	0	0	0
2714.306640625	n/a	WORD	5558900	wordpools/wasnorm_wordpool_576.txt	LTP344	ltpFR2	1	12	SEAFOOD	1260	n/a	n/a	0	0	0
2716.9716796875	n/a	WORD	5564358	wordpools/wasnorm_wordpool_576.txt	LTP344	ltpFR2	1	12	STAPLE	1371	n/a	n/a	0	0	0
2719.6357421875	n/a	WORD	5569814	wordpools/wasnorm_wordpool_576.txt	LTP344	ltpFR2	1	12	PAPER	1011	n/a	n/a	0	0	0
2722.4345703125	n/a	WORD	5575546	wordpools/wasnorm_wordpool_576.txt	LTP344	ltpFR2	1	12	FLIPPER	580	n/a	n/a	0	0	0
2725.03466796875	n/a	WORD	5580871	wordpools/wasnorm_wordpool_576.txt	LTP344	ltpFR2	1	12	PENGUIN	1044	n/a	n/a	0	0	0
2727.7333984375	n/a	WORD	5586398	wordpools/wasnorm_wordpool_576.txt	LTP344	ltpFR2	1	12	SPARROW	1347	n/a	n/a	0	0	0
2730.1982421875	n/a	WORD	5591446	wordpools/wasnorm_wordpool_576.txt	LTP344	ltpFR2	1	12	WORKER	1621	n/a	n/a	0	0	0
2732.8642578125	n/a	WORD	5596906	wordpools/wasnorm_wordpool_576.txt	LTP344	ltpFR2	1	12	CLAMP	316	n/a	n/a	0	0	0
2735.3134765625	n/a	WORD	5601922	wordpools/wasnorm_wordpool_576.txt	LTP344	ltpFR2	1	12	HUMAN	726	n/a	n/a	0	0	0
2737.7783203125	n/a	WORD	5606970	wordpools/wasnorm_wordpool_576.txt	LTP344	ltpFR2	1	12	STALLION	1369	n/a	n/a	0	0	0
2740.5263671875	n/a	WORD	5612598	wordpools/wasnorm_wordpool_576.txt	LTP344	ltpFR2	1	12	BELLY	119	n/a	n/a	0	0	0
2743.10888671875	n/a	WORD	5617887	wordpools/wasnorm_wordpool_576.txt	LTP344	ltpFR2	1	12	CLOTHES	327	n/a	n/a	0	0	0
2745.85791015625	n/a	WORD	5623517	wordpools/wasnorm_wordpool_576.txt	LTP344	ltpFR2	1	12	SADDLE	1221	n/a	n/a	0	0	0
2748.35595703125	n/a	WORD	5628633	wordpools/wasnorm_wordpool_576.txt	LTP344	ltpFR2	1	12	HELMET	702	n/a	n/a	0	0	0
2751.0390625	n/a	WORD	5634128	wordpools/wasnorm_wordpool_576.txt	LTP344	ltpFR2	1	12	BALLOON	75	n/a	n/a	0	0	0
2753.56982421875	n/a	WORD	5639311	wordpools/wasnorm_wordpool_576.txt	LTP344	ltpFR2	1	12	BUBBLE	183	n/a	n/a	0	0	0
2756.06982421875	n/a	WORD	5644431	wordpools/wasnorm_wordpool_576.txt	LTP344	ltpFR2	1	12	FEMALE	559	n/a	n/a	0	0	0
2758.53369140625	n/a	WORD	5649477	wordpools/wasnorm_wordpool_576.txt	LTP344	ltpFR2	1	12	LOVER	846	n/a	n/a	0	0	0
2761.16748046875	n/a	WORD	5654871	wordpools/wasnorm_wordpool_576.txt	LTP344	ltpFR2	1	12	WASP	1593	n/a	n/a	0	0	0
2763.8828125	n/a	WORD	5660432	wordpools/wasnorm_wordpool_576.txt	LTP344	ltpFR2	1	12	WAITRESS	1581	n/a	n/a	0	0	0
2765.49755859375	n/a	START	5663739	n/a	LTP344	ltpFR2	1	n/a	n/a	n/a	18	n/a	n/a	n/a	n/a
2766.4716796875	n/a	DISTRACTOR	5665734	n/a	LTP344	ltpFR2	1	12	n/a	n/a	n/a	n/a	0	0	0
2766.48046875	n/a	PROB	5665752	n/a	LTP344	ltpFR2	1	n/a	n/a	n/a	18	18	6	6	6
2767.8974609375	n/a	PROB	5668654	n/a	LTP344	ltpFR2	1	n/a	n/a	n/a	18	15	5	5	5
2768.96337890625	n/a	PROB	5670837	n/a	LTP344	ltpFR2	1	n/a	n/a	n/a	18	19	8	7	4
2771.52734375	n/a	PROB	5676088	n/a	LTP344	ltpFR2	1	n/a	n/a	n/a	18	8	4	1	3
2773.1611328125	n/a	PROB	5679434	n/a	LTP344	ltpFR2	1	n/a	n/a	n/a	18	14	2	7	5
2774.79443359375	n/a	PROB	5682779	n/a	LTP344	ltpFR2	1	n/a	n/a	n/a	18	7	2	3	2
2776.6591796875	n/a	PROB	5686598	n/a	LTP344	ltpFR2	1	n/a	n/a	n/a	18	13	6	6	1
2777.9921875	n/a	PROB	5689328	n/a	LTP344	ltpFR2	1	n/a	n/a	n/a	18	21	9	5	7
2780.34033203125	n/a	PROB	5694137	n/a	LTP344	ltpFR2	1	n/a	n/a	n/a	18	24	8	7	9
2783.873046875	n/a	PROB	5701372	n/a	LTP344	ltpFR2	1	n/a	n/a	n/a	18	19	8	3	8
2785.921875	n/a	PROB	5705568	n/a	LTP344	ltpFR2	1	n/a	n/a	n/a	18	15	5	3	7
2789.4970703125	n/a	STOP	5712890	n/a	LTP344	ltpFR2	1	n/a	n/a	n/a	18	n/a	n/a	n/a	n/a
2791.32080078125	n/a	REC_START	5716625	n/a	LTP344	ltpFR2	1	12	n/a	n/a	n/a	n/a	0	0	0
2793.69384765625	n/a	REC_WORD	5721485	wordpools/wasnorm_wordpool_576.txt	LTP344	ltpFR2	1	12	GUITAR	670	n/a	n/a	0	0	0
2795.69775390625	n/a	REC_WORD	5725589	wordpools/wasnorm_wordpool_576.txt	LTP344	ltpFR2	1	12	HAND	683	n/a	n/a	0	0	0
2797.78564453125	n/a	REC_WORD	5729865	wordpools/wasnorm_wordpool_576.txt	LTP344	ltpFR2	1	12	DINER	467	n/a	n/a	0	0	0
2799.40087890625	n/a	REC_WORD	5733173	wordpools/wasnorm_wordpool_576.txt	LTP344	ltpFR2	1	12	SEAFOOD	1260	n/a	n/a	0	0	0
2801.40771484375	n/a	REC_WORD	5737283	wordpools/wasnorm_wordpool_576.txt	LTP344	ltpFR2	1	12	FEMALE	559	n/a	n/a	0	0	0
2803.5283203125	n/a	REC_WORD	5741626	wordpools/wasnorm_wordpool_576.txt	LTP344	ltpFR2	1	12	WAITRESS	1581	n/a	n/a	0	0	0
2805.66162109375	n/a	REC_WORD	5745995	wordpools/wasnorm_wordpool_576.txt	LTP344	ltpFR2	1	12	LOVER	846	n/a	n/a	0	0	0
2808.3974609375	n/a	REC_WORD	5751598	wordpools/wasnorm_wordpool_576.txt	LTP344	ltpFR2	1	12	STALLION	1369	n/a	n/a	0	0	0
2810.26123046875	n/a	REC_WORD	5755415	wordpools/wasnorm_wordpool_576.txt	LTP344	ltpFR2	1	12	SADDLE	1221	n/a	n/a	0	0	0
2812.87451171875	n/a	REC_WORD	5760767	wordpools/wasnorm_wordpool_576.txt	LTP344	ltpFR2	1	12	FLIPPER	580	n/a	n/a	0	0	0
2815.05517578125	n/a	REC_WORD	5765233	wordpools/wasnorm_wordpool_576.txt	LTP344	ltpFR2	1	12	PENGUIN	1044	n/a	n/a	0	0	0
2817.75341796875	n/a	REC_WORD	5770759	wordpools/wasnorm_wordpool_576.txt	LTP344	ltpFR2	1	12	SPARROW	1347	n/a	n/a	0	0	0
2820.59521484375	n/a	REC_WORD	5776579	wordpools/wasnorm_wordpool_576.txt	LTP344	ltpFR2	1	12	HELMET	702	n/a	n/a	0	0	0
2823.3779296875	n/a	REC_WORD	5782278	wordpools/wasnorm_wordpool_576.txt	LTP344	ltpFR2	1	12	WORKER	1621	n/a	n/a	0	0	0
2828.294921875	n/a	REC_WORD	5792348	wordpools/wasnorm_wordpool_576.txt	LTP344	ltpFR2	1	12	BALLOON	75	n/a	n/a	0	0	0
2830.376953125	n/a	REC_WORD	5796612	wordpools/wasnorm_wordpool_576.txt	LTP344	ltpFR2	1	12	BUBBLE	183	n/a	n/a	0	0	0
2881.74267578125	n/a	DISTRACTOR	5901809	n/a	LTP344	ltpFR2	1	13	n/a	n/a	n/a	n/a	0	0	0
2881.74267578125	n/a	START	5901809	n/a	LTP344	ltpFR2	1	n/a	n/a	n/a	19	n/a	n/a	n/a	n/a
2881.759765625	n/a	PROB	5901844	n/a	LTP344	ltpFR2	1	n/a	n/a	n/a	19	16	1	9	6
2883.474609375	n/a	PROB	5905356	n/a	LTP344	ltpFR2	1	n/a	n/a	n/a	19	17	9	6	2
2885.58935546875	n/a	PROB	5909687	n/a	LTP344	ltpFR2	1	n/a	n/a	n/a	19	12	5	3	6
2889.2392578125	n/a	PROB	5917162	n/a	LTP344	ltpFR2	1	n/a	n/a	n/a	19	11	4	5	2
2892.9873046875	n/a	PROB	5924838	n/a	LTP344	ltpFR2	1	n/a	n/a	n/a	19	16	2	8	6
2894.203125	n/a	PROB	5927328	n/a	LTP344	ltpFR2	1	n/a	n/a	n/a	19	24	9	9	6
2896.119140625	n/a	PROB	5931252	n/a	LTP344	ltpFR2	1	n/a	n/a	n/a	19	12	5	4	3
2897.51708984375	n/a	PROB	5934115	n/a	LTP344	ltpFR2	1	n/a	n/a	n/a	19	7	3	3	1
2899.76708984375	n/a	PROB	5938723	n/a	LTP344	ltpFR2	1	n/a	n/a	n/a	19	19	8	4	7
2905.74169921875	n/a	STOP	5950959	n/a	LTP344	ltpFR2	1	n/a	n/a	n/a	19	n/a	n/a	n/a	n/a
2906.595703125	n/a	WORD	5952708	wordpools/wasnorm_wordpool_576.txt	LTP344	ltpFR2	1	13	WRENCH	1625	n/a	n/a	0	0	0
2909.19580078125	n/a	WORD	5958033	wordpools/wasnorm_wordpool_576.txt	LTP344	ltpFR2	1	13	PLIERS	1089	n/a	n/a	0	0	0
2911.76171875	n/a	WORD	5963288	wordpools/wasnorm_wordpool_576.txt	LTP344	ltpFR2	1	13	PATIENT	1024	n/a	n/a	0	0	0
2914.37548828125	n/a	WORD	5968641	wordpools/wasnorm_wordpool_576.txt	LTP344	ltpFR2	1	13	DENTIST	447	n/a	n/a	0	0	0
2917.05859375	n/a	WORD	5974136	wordpools/wasnorm_wordpool_576.txt	LTP344	ltpFR2	1	13	FOX	598	n/a	n/a	0	0	0
2919.87451171875	n/a	WORD	5979903	wordpools/wasnorm_wordpool_576.txt	LTP344	ltpFR2	1	13	PRIMATE	1123	n/a	n/a	0	0	0
2922.689453125	n/a	WORD	5985668	wordpools/wasnorm_wordpool_576.txt	LTP344	ltpFR2	1	13	VENUS	1557	n/a	n/a	0	0	0
2925.1884765625	n/a	WORD	5990786	wordpools/wasnorm_wordpool_576.txt	LTP344	ltpFR2	1	13	TWEEZERS	1526	n/a	n/a	0	0	0
2927.9873046875	n/a	WORD	5996518	wordpools/wasnorm_wordpool_576.txt	LTP344	ltpFR2	1	13	MATTRESS	879	n/a	n/a	0	0	0
2930.76904296875	n/a	WORD	6002215	wordpools/wasnorm_wordpool_576.txt	LTP344	ltpFR2	1	13	SKILLET	1317	n/a	n/a	0	0	0
2933.3330078125	n/a	WORD	6007466	wordpools/wasnorm_wordpool_576.txt	LTP344	ltpFR2	1	13	PISTON	1076	n/a	n/a	0	0	0
2935.9501953125	n/a	WORD	6012826	wordpools/wasnorm_wordpool_576.txt	LTP344	ltpFR2	1	13	EYELASH	546	n/a	n/a	0	0	0
2938.64794921875	n/a	WORD	6018351	wordpools/wasnorm_wordpool_576.txt	LTP344	ltpFR2	1	13	FRECKLE	602	n/a	n/a	0	0	0
2941.26416015625	n/a	WORD	6023709	wordpools/wasnorm_wordpool_576.txt	LTP344	ltpFR2	1	13	ICEBERG	731	n/a	n/a	0	0	0
2943.72998046875	n/a	WORD	6028759	wordpools/wasnorm_wordpool_576.txt	LTP344	ltpFR2	1	13	TUTU	1524	n/a	n/a	0	0	0
2946.5107421875	n/a	WORD	6034454	wordpools/wasnorm_wordpool_576.txt	LTP344	ltpFR2	1	13	RELISH	1183	n/a	n/a	0	0	0
2949.2939453125	n/a	WORD	6040154	wordpools/wasnorm_wordpool_576.txt	LTP344	ltpFR2	1	13	GAZELLE	628	n/a	n/a	0	0	0
2951.7255859375	n/a	WORD	6045134	wordpools/wasnorm_wordpool_576.txt	LTP344	ltpFR2	1	13	KLEENEX	782	n/a	n/a	0	0	0
2954.439453125	n/a	WORD	6050692	wordpools/wasnorm_wordpool_576.txt	LTP344	ltpFR2	1	13	CANDY	230	n/a	n/a	0	0	0
2957.25634765625	n/a	WORD	6056461	wordpools/wasnorm_wordpool_576.txt	LTP344	ltpFR2	1	13	SCOTCH	1251	n/a	n/a	0	0	0
2959.78857421875	n/a	WORD	6061647	wordpools/wasnorm_wordpool_576.txt	LTP344	ltpFR2	1	13	MARS	873	n/a	n/a	0	0	0
2962.2373046875	n/a	WORD	6066662	wordpools/wasnorm_wordpool_576.txt	LTP344	ltpFR2	1	13	SISTER	1312	n/a	n/a	0	0	0
2965.0361328125	n/a	WORD	6072394	wordpools/wasnorm_wordpool_576.txt	LTP344	ltpFR2	1	13	PECAN	1036	n/a	n/a	0	0	0
2967.51708984375	n/a	WORD	6077475	wordpools/wasnorm_wordpool_576.txt	LTP344	ltpFR2	1	13	STICKER	1382	n/a	n/a	0	0	0
2969.13427734375	n/a	START	6080787	n/a	LTP344	ltpFR2	1	n/a	n/a	n/a	20	n/a	n/a	n/a	n/a
2970.2470703125	n/a	DISTRACTOR	6083066	n/a	LTP344	ltpFR2	1	13	n/a	n/a	n/a	n/a	0	0	0
2970.25	n/a	PROB	6083072	n/a	LTP344	ltpFR2	1	n/a	n/a	n/a	20	6	1	1	4
2972.2822265625	n/a	PROB	6087234	n/a	LTP344	ltpFR2	1	n/a	n/a	n/a	20	18	4	9	5
2974.6982421875	n/a	PROB	6092182	n/a	LTP344	ltpFR2	1	n/a	n/a	n/a	20	15	8	6	1
2976.51318359375	n/a	PROB	6095899	n/a	LTP344	ltpFR2	1	n/a	n/a	n/a	20	10	4	4	2
2977.72998046875	n/a	PROB	6098391	n/a	LTP344	ltpFR2	1	n/a	n/a	n/a	20	18	7	6	5
2979.4111328125	n/a	PROB	6101834	n/a	LTP344	ltpFR2	1	n/a	n/a	n/a	20	5	3	1	1
2980.6611328125	n/a	PROB	6104394	n/a	LTP344	ltpFR2	1	n/a	n/a	n/a	20	10	2	5	3
2982.64306640625	n/a	PROB	6108453	n/a	LTP344	ltpFR2	1	n/a	n/a	n/a	20	21	8	6	7
2986.05859375	n/a	PROB	6115448	n/a	LTP344	ltpFR2	1	n/a	n/a	n/a	20	16	8	1	7
2987.5908203125	n/a	PROB	6118586	n/a	LTP344	ltpFR2	1	n/a	n/a	n/a	20	11	2	8	1
2988.7578125	n/a	PROB	6120976	n/a	LTP344	ltpFR2	1	n/a	n/a	n/a	20	11	1	5	5
2990.04052734375	n/a	PROB	6123603	n/a	LTP344	ltpFR2	1	n/a	n/a	n/a	20	14	5	4	5
2991.28955078125	n/a	PROB	6126161	n/a	LTP344	ltpFR2	1	n/a	n/a	n/a	20	10	8	1	1
2992.2607421875	n/a	STOP	6128150	n/a	LTP344	ltpFR2	1	n/a	n/a	n/a	20	n/a	n/a	n/a	n/a
2994.92236328125	n/a	REC_START	6133601	n/a	LTP344	ltpFR2	1	13	n/a	n/a	n/a	n/a	0	0	0
2996.54833984375	n/a	REC_WORD	6136931	wordpools/wasnorm_wordpool_576.txt	LTP344	ltpFR2	1	13	PECAN	1036	n/a	n/a	0	0	0
3000.322265625	n/a	REC_WORD	6144660	wordpools/wasnorm_wordpool_576.txt	LTP344	ltpFR2	1	13	PLIERS	1089	n/a	n/a	0	0	0
3002.11962890625	n/a	REC_WORD	6148341	wordpools/wasnorm_wordpool_576.txt	LTP344	ltpFR2	1	13	WRENCH	1625	n/a	n/a	0	0	0
3003.88134765625	n/a	REC_WORD	6151949	wordpools/wasnorm_wordpool_576.txt	LTP344	ltpFR2	1	13	TWEEZERS	1526	n/a	n/a	0	0	0
3005.68017578125	n/a	REC_WORD	6155633	wordpools/wasnorm_wordpool_576.txt	LTP344	ltpFR2	1	13	SKILLET	1317	n/a	n/a	0	0	0
3007.60009765625	n/a	REC_WORD	6159565	wordpools/wasnorm_wordpool_576.txt	LTP344	ltpFR2	1	13	PATIENT	1024	n/a	n/a	0	0	0
3009.55126953125	n/a	REC_WORD	6163561	wordpools/wasnorm_wordpool_576.txt	LTP344	ltpFR2	1	13	DENTIST	447	n/a	n/a	0	0	0
3011.56298828125	n/a	REC_WORD	6167681	wordpools/wasnorm_wordpool_576.txt	LTP344	ltpFR2	1	13	KLEENEX	782	n/a	n/a	0	0	0
3013.73095703125	n/a	REC_WORD	6172121	wordpools/wasnorm_wordpool_576.txt	LTP344	ltpFR2	1	13	CANDY	230	n/a	n/a	0	0	0
3016.90087890625	n/a	REC_WORD	6178613	wordpools/wasnorm_wordpool_576.txt	LTP344	ltpFR2	1	13	VENUS	1557	n/a	n/a	0	0	0
3018.8427734375	n/a	REC_WORD	6182590	wordpools/wasnorm_wordpool_576.txt	LTP344	ltpFR2	1	13	MARS	873	n/a	n/a	0	0	0
3085.3603515625	n/a	DISTRACTOR	6318818	n/a	LTP344	ltpFR2	1	14	n/a	n/a	n/a	n/a	0	0	0
3085.3603515625	n/a	START	6318818	n/a	LTP344	ltpFR2	1	n/a	n/a	n/a	21	n/a	n/a	n/a	n/a
3085.37744140625	n/a	PROB	6318853	n/a	LTP344	ltpFR2	1	n/a	n/a	n/a	21	16	7	4	5
3087.91015625	n/a	PROB	6324040	n/a	LTP344	ltpFR2	1	n/a	n/a	n/a	21	12	1	4	7
3089.4423828125	n/a	PROB	6327178	n/a	LTP344	ltpFR2	1	n/a	n/a	n/a	21	12	3	7	2
3091.10888671875	n/a	PROB	6330591	n/a	LTP344	ltpFR2	1	n/a	n/a	n/a	21	17	7	7	3
3092.69091796875	n/a	PROB	6333831	n/a	LTP344	ltpFR2	1	n/a	n/a	n/a	21	12	2	7	3
3094.0908203125	n/a	PROB	6336698	n/a	LTP344	ltpFR2	1	n/a	n/a	n/a	21	15	3	3	9
3095.65576171875	n/a	PROB	6339903	n/a	LTP344	ltpFR2	1	n/a	n/a	n/a	21	14	8	3	3
3097.37109375	n/a	PROB	6343416	n/a	LTP344	ltpFR2	1	n/a	n/a	n/a	21	12	5	6	1
3098.90478515625	n/a	PROB	6346557	n/a	LTP344	ltpFR2	1	n/a	n/a	n/a	21	21	6	7	8
3100.68798828125	n/a	PROB	6350209	n/a	LTP344	ltpFR2	1	n/a	n/a	n/a	21	22	8	9	5
3102.70263671875	n/a	PROB	6354335	n/a	LTP344	ltpFR2	1	n/a	n/a	n/a	21	12	8	1	3
3104.517578125	n/a	PROB	6358052	n/a	LTP344	ltpFR2	1	n/a	n/a	n/a	21	16	6	7	3
3106.31689453125	n/a	PROB	6361737	n/a	LTP344	ltpFR2	1	n/a	n/a	n/a	21	21	9	7	5
3108.5078125	n/a	STOP	6366224	n/a	LTP344	ltpFR2	1	n/a	n/a	n/a	21	n/a	n/a	n/a	n/a
3110.53173828125	n/a	WORD	6370369	wordpools/wasnorm_wordpool_576.txt	LTP344	ltpFR2	1	14	FLOWER	584	n/a	n/a	0	0	0
3113.1484375	n/a	WORD	6375728	wordpools/wasnorm_wordpool_576.txt	LTP344	ltpFR2	1	14	ROOSTER	1209	n/a	n/a	0	0	0
3115.6123046875	n/a	WORD	6380774	wordpools/wasnorm_wordpool_576.txt	LTP344	ltpFR2	1	14	REPORT	1184	n/a	n/a	0	0	0
3118.39453125	n/a	WORD	6386472	wordpools/wasnorm_wordpool_576.txt	LTP344	ltpFR2	1	14	GARLIC	624	n/a	n/a	0	0	0
3121.02734375	n/a	WORD	6391864	wordpools/wasnorm_wordpool_576.txt	LTP344	ltpFR2	1	14	LADDER	793	n/a	n/a	0	0	0
3123.5751953125	n/a	WORD	6397082	wordpools/wasnorm_wordpool_576.txt	LTP344	ltpFR2	1	14	DANCER	437	n/a	n/a	0	0	0
3126.2919921875	n/a	WORD	6402646	wordpools/wasnorm_wordpool_576.txt	LTP344	ltpFR2	1	14	AGENT	10	n/a	n/a	0	0	0
3128.990234375	n/a	WORD	6408172	wordpools/wasnorm_wordpool_576.txt	LTP344	ltpFR2	1	14	PUPIL	1143	n/a	n/a	0	0	0
3131.755859375	n/a	WORD	6413836	wordpools/wasnorm_wordpool_576.txt	LTP344	ltpFR2	1	14	TUNNEL	1519	n/a	n/a	0	0	0
3134.2880859375	n/a	WORD	6419022	wordpools/wasnorm_wordpool_576.txt	LTP344	ltpFR2	1	14	TRENCH	1503	n/a	n/a	0	0	0
3137.052734375	n/a	WORD	6424684	wordpools/wasnorm_wordpool_576.txt	LTP344	ltpFR2	1	14	HOOD	714	n/a	n/a	0	0	0
3139.5849609375	n/a	WORD	6429870	wordpools/wasnorm_wordpool_576.txt	LTP344	ltpFR2	1	14	SIBLING	1301	n/a	n/a	0	0	0
3142.0849609375	n/a	WORD	6434990	wordpools/wasnorm_wordpool_576.txt	LTP344	ltpFR2	1	14	LUGGAGE	847	n/a	n/a	0	0	0
3144.58154296875	n/a	WORD	6440103	wordpools/wasnorm_wordpool_576.txt	LTP344	ltpFR2	1	14	OUTFIT	988	n/a	n/a	0	0	0
3147.19873046875	n/a	WORD	6445463	wordpools/wasnorm_wordpool_576.txt	LTP344	ltpFR2	1	14	MEAT	883	n/a	n/a	0	0	0
3149.6806640625	n/a	WORD	6450546	wordpools/wasnorm_wordpool_576.txt	LTP344	ltpFR2	1	14	SHOULDER	1294	n/a	n/a	0	0	0
3152.279296875	n/a	WORD	6455868	wordpools/wasnorm_wordpool_576.txt	LTP344	ltpFR2	1	14	SILK	1307	n/a	n/a	0	0	0
3154.71142578125	n/a	WORD	6460849	wordpools/wasnorm_wordpool_576.txt	LTP344	ltpFR2	1	14	TUBA	1515	n/a	n/a	0	0	0
3157.4423828125	n/a	WORD	6466442	wordpools/wasnorm_wordpool_576.txt	LTP344	ltpFR2	1	14	BEEF	113	n/a	n/a	0	0	0
3160.22509765625	n/a	WORD	6472141	wordpools/wasnorm_wordpool_576.txt	LTP344	ltpFR2	1	14	CATCHER	258	n/a	n/a	0	0	0
3162.80712890625	n/a	WORD	6477429	wordpools/wasnorm_wordpool_576.txt	LTP344	ltpFR2	1	14	PIGEON	1065	n/a	n/a	0	0	0
3165.47216796875	n/a	WORD	6482887	wordpools/wasnorm_wordpool_576.txt	LTP344	ltpFR2	1	14	BARLEY	88	n/a	n/a	0	0	0
3168.05517578125	n/a	WORD	6488177	wordpools/wasnorm_wordpool_576.txt	LTP344	ltpFR2	1	14	BRANCH	168	n/a	n/a	0	0	0
3170.55322265625	n/a	WORD	6493293	wordpools/wasnorm_wordpool_576.txt	LTP344	ltpFR2	1	14	FOREST	593	n/a	n/a	0	0	0
3172.169921875	n/a	START	6496604	n/a	LTP344	ltpFR2	1	n/a	n/a	n/a	22	n/a	n/a	n/a	n/a
3173.2080078125	n/a	DISTRACTOR	6498730	n/a	LTP344	ltpFR2	1	14	n/a	n/a	n/a	n/a	0	0	0
3173.21875	n/a	PROB	6498752	n/a	LTP344	ltpFR2	1	n/a	n/a	n/a	22	14	3	6	5
3175.3017578125	n/a	PROB	6503018	n/a	LTP344	ltpFR2	1	n/a	n/a	n/a	22	21	9	8	4
3179.19970703125	n/a	PROB	6511001	n/a	LTP344	ltpFR2	1	n/a	n/a	n/a	22	14	2	3	9
3181.08154296875	n/a	PROB	6514855	n/a	LTP344	ltpFR2	1	n/a	n/a	n/a	22	15	8	4	3
3182.58056640625	n/a	PROB	6517925	n/a	LTP344	ltpFR2	1	n/a	n/a	n/a	22	12	5	1	6
3183.7646484375	n/a	PROB	6520350	n/a	LTP344	ltpFR2	1	n/a	n/a	n/a	22	11	7	2	2
3185.49560546875	n/a	PROB	6523895	n/a	LTP344	ltpFR2	1	n/a	n/a	n/a	22	16	7	7	2
3186.94580078125	n/a	PROB	6526865	n/a	LTP344	ltpFR2	1	n/a	n/a	n/a	22	12	8	2	2
3190.01171875	n/a	PROB	6533144	n/a	LTP344	ltpFR2	1	n/a	n/a	n/a	22	19	5	7	7
3191.8603515625	n/a	PROB	6536930	n/a	LTP344	ltpFR2	1	n/a	n/a	n/a	22	11	6	2	3
3193.7265625	n/a	PROB	6540752	n/a	LTP344	ltpFR2	1	n/a	n/a	n/a	22	11	7	1	3
3195.4443359375	n/a	STOP	6544270	n/a	LTP344	ltpFR2	1	n/a	n/a	n/a	22	n/a	n/a	n/a	n/a
3197.92431640625	n/a	REC_START	6549349	n/a	LTP344	ltpFR2	1	14	n/a	n/a	n/a	n/a	0	0	0
3199.4873046875	n/a	REC_WORD	6552550	wordpools/wasnorm_wordpool_576.txt	LTP344	ltpFR2	1	14	PIGEON	1065	n/a	n/a	0	0	0
3201.234375	n/a	REC_WORD	6556128	wordpools/wasnorm_wordpool_576.txt	LTP344	ltpFR2	1	14	CATCHER	258	n/a	n/a	0	0	0
3203.6181640625	n/a	REC_WORD	6561010	wordpools/wasnorm_wordpool_576.txt	LTP344	ltpFR2	1	14	BARLEY	88	n/a	n/a	0	0	0
3220.77978515625	n/a	REC_WORD	6596157	wordpools/wasnorm_wordpool_576.txt	LTP344	ltpFR2	1	14	SIBLING	1301	n/a	n/a	0	0	0
3224.6767578125	n/a	REC_WORD	6604138	wordpools/wasnorm_wordpool_576.txt	LTP344	ltpFR2	1	14	MEAT	883	n/a	n/a	0	0	0
3288.36279296875	n/a	DISTRACTOR	6734567	n/a	LTP344	ltpFR2	1	15	n/a	n/a	n/a	n/a	0	0	0
3288.36279296875	n/a	START	6734567	n/a	LTP344	ltpFR2	1	n/a	n/a	n/a	23	n/a	n/a	n/a	n/a
3288.3798828125	n/a	PROB	6734602	n/a	LTP344	ltpFR2	1	n/a	n/a	n/a	23	19	9	7	3
3290.14697265625	n/a	PROB	6738221	n/a	LTP344	ltpFR2	1	n/a	n/a	n/a	23	15	7	5	3
3292.7119140625	n/a	PROB	6743474	n/a	LTP344	ltpFR2	1	n/a	n/a	n/a	23	10	5	3	2
3294.19482421875	n/a	PROB	6746511	n/a	LTP344	ltpFR2	1	n/a	n/a	n/a	23	9	3	3	3
3295.376953125	n/a	PROB	6748932	n/a	LTP344	ltpFR2	1	n/a	n/a	n/a	23	16	8	1	7
3297.29296875	n/a	PROB	6752856	n/a	LTP344	ltpFR2	1	n/a	n/a	n/a	23	15	6	6	3
3299.05859375	n/a	PROB	6756472	n/a	LTP344	ltpFR2	1	n/a	n/a	n/a	23	11	6	4	1
3301.224609375	n/a	PROB	6760908	n/a	LTP344	ltpFR2	1	n/a	n/a	n/a	23	13	8	4	1
3302.87353515625	n/a	PROB	6764285	n/a	LTP344	ltpFR2	1	n/a	n/a	n/a	23	15	2	4	9
3304.4716796875	n/a	PROB	6767558	n/a	LTP344	ltpFR2	1	n/a	n/a	n/a	23	20	8	8	4
3305.9384765625	n/a	PROB	6770562	n/a	LTP344	ltpFR2	1	n/a	n/a	n/a	23	7	2	2	3
3308.1044921875	n/a	PROB	6774998	n/a	LTP344	ltpFR2	1	n/a	n/a	n/a	23	11	4	2	5
3310.0703125	n/a	PROB	6779024	n/a	LTP344	ltpFR2	1	n/a	n/a	n/a	23	12	2	7	3
3311.50927734375	n/a	STOP	6781971	n/a	LTP344	ltpFR2	1	n/a	n/a	n/a	23	n/a	n/a	n/a	n/a
3313.51708984375	n/a	WORD	6786083	wordpools/wasnorm_wordpool_576.txt	LTP344	ltpFR2	1	15	GLOVE	642	n/a	n/a	0	0	0
3316.33349609375	n/a	WORD	6791851	wordpools/wasnorm_wordpool_576.txt	LTP344	ltpFR2	1	15	MATCH	878	n/a	n/a	0	0	0
3318.93310546875	n/a	WORD	6797175	wordpools/wasnorm_wordpool_576.txt	LTP344	ltpFR2	1	15	PIMPLE	1071	n/a	n/a	0	0	0
3321.447265625	n/a	WORD	6802324	wordpools/wasnorm_wordpool_576.txt	LTP344	ltpFR2	1	15	FINGER	567	n/a	n/a	0	0	0
3324.09716796875	n/a	WORD	6807751	wordpools/wasnorm_wordpool_576.txt	LTP344	ltpFR2	1	15	HEADBAND	696	n/a	n/a	0	0	0
3326.89599609375	n/a	WORD	6813483	wordpools/wasnorm_wordpool_576.txt	LTP344	ltpFR2	1	15	DIME	466	n/a	n/a	0	0	0
3329.4599609375	n/a	WORD	6818734	wordpools/wasnorm_wordpool_576.txt	LTP344	ltpFR2	1	15	XEROX	1628	n/a	n/a	0	0	0
3332.22607421875	n/a	WORD	6824399	wordpools/wasnorm_wordpool_576.txt	LTP344	ltpFR2	1	15	MACHINE	852	n/a	n/a	0	0	0
3334.74169921875	n/a	WORD	6829551	wordpools/wasnorm_wordpool_576.txt	LTP344	ltpFR2	1	15	TRANSPLANT	1496	n/a	n/a	0	0	0
3337.48974609375	n/a	WORD	6835179	wordpools/wasnorm_wordpool_576.txt	LTP344	ltpFR2	1	15	FLESH	579	n/a	n/a	0	0	0
3339.98974609375	n/a	WORD	6840299	wordpools/wasnorm_wordpool_576.txt	LTP344	ltpFR2	1	15	DANDRUFF	439	n/a	n/a	0	0	0
3342.62060546875	n/a	WORD	6845687	wordpools/wasnorm_wordpool_576.txt	LTP344	ltpFR2	1	15	CASHEW	253	n/a	n/a	0	0	0
3345.220703125	n/a	WORD	6851012	wordpools/wasnorm_wordpool_576.txt	LTP344	ltpFR2	1	15	SPACE	1345	n/a	n/a	0	0	0
3347.75244140625	n/a	WORD	6856197	wordpools/wasnorm_wordpool_576.txt	LTP344	ltpFR2	1	15	DUST	508	n/a	n/a	0	0	0
3350.56640625	n/a	WORD	6861960	wordpools/wasnorm_wordpool_576.txt	LTP344	ltpFR2	1	15	STREAM	1392	n/a	n/a	0	0	0
3353.38232421875	n/a	WORD	6867727	wordpools/wasnorm_wordpool_576.txt	LTP344	ltpFR2	1	15	CANYON	235	n/a	n/a	0	0	0
3355.865234375	n/a	WORD	6872812	wordpools/wasnorm_wordpool_576.txt	LTP344	ltpFR2	1	15	MUSTARD	935	n/a	n/a	0	0	0
3358.4130859375	n/a	WORD	6878030	wordpools/wasnorm_wordpool_576.txt	LTP344	ltpFR2	1	15	ACTRESS	6	n/a	n/a	0	0	0
3361.06201171875	n/a	WORD	6883455	wordpools/wasnorm_wordpool_576.txt	LTP344	ltpFR2	1	15	GYMNAST	675	n/a	n/a	0	0	0
3363.51025390625	n/a	WORD	6888469	wordpools/wasnorm_wordpool_576.txt	LTP344	ltpFR2	1	15	JUGGLER	763	n/a	n/a	0	0	0
3366.16015625	n/a	WORD	6893896	wordpools/wasnorm_wordpool_576.txt	LTP344	ltpFR2	1	15	PIZZA	1079	n/a	n/a	0	0	0
3368.69189453125	n/a	WORD	6899081	wordpools/wasnorm_wordpool_576.txt	LTP344	ltpFR2	1	15	CURTAIN	427	n/a	n/a	0	0	0
3371.24072265625	n/a	WORD	6904301	wordpools/wasnorm_wordpool_576.txt	LTP344	ltpFR2	1	15	PASSAGE	1019	n/a	n/a	0	0	0
3373.95654296875	n/a	WORD	6909863	wordpools/wasnorm_wordpool_576.txt	LTP344	ltpFR2	1	15	VELVET	1555	n/a	n/a	0	0	0
3375.57177734375	n/a	START	6913171	n/a	LTP344	ltpFR2	1	n/a	n/a	n/a	24	n/a	n/a	n/a	n/a
3376.74365234375	n/a	DISTRACTOR	6915571	n/a	LTP344	ltpFR2	1	15	n/a	n/a	n/a	n/a	0	0	0
3376.7548828125	n/a	PROB	6915594	n/a	LTP344	ltpFR2	1	n/a	n/a	n/a	24	14	3	3	8
3379.0537109375	n/a	PROB	6920302	n/a	LTP344	ltpFR2	1	n/a	n/a	n/a	24	14	5	2	7
3381.00244140625	n/a	PROB	6924293	n/a	LTP344	ltpFR2	1	n/a	n/a	n/a	24	8	2	3	3
3382.935546875	n/a	PROB	6928252	n/a	LTP344	ltpFR2	1	n/a	n/a	n/a	24	13	5	2	6
3385.900390625	n/a	PROB	6934324	n/a	LTP344	ltpFR2	1	n/a	n/a	n/a	24	15	3	9	3
3387.49853515625	n/a	PROB	6937597	n/a	LTP344	ltpFR2	1	n/a	n/a	n/a	24	11	1	3	7
3388.83251953125	n/a	PROB	6940329	n/a	LTP344	ltpFR2	1	n/a	n/a	n/a	24	9	3	5	1
3390.68115234375	n/a	PROB	6944115	n/a	LTP344	ltpFR2	1	n/a	n/a	n/a	24	17	3	6	8
3392.5791015625	n/a	PROB	6948002	n/a	LTP344	ltpFR2	1	n/a	n/a	n/a	24	13	2	7	4
3394.42919921875	n/a	PROB	6951791	n/a	LTP344	ltpFR2	1	n/a	n/a	n/a	24	20	7	6	7
3396.4443359375	n/a	PROB	6955918	n/a	LTP344	ltpFR2	1	n/a	n/a	n/a	24	12	7	4	1
3397.92822265625	n/a	PROB	6958957	n/a	LTP344	ltpFR2	1	n/a	n/a	n/a	24	19	5	9	5
3399.51708984375	n/a	STOP	6962211	n/a	LTP344	ltpFR2	1	n/a	n/a	n/a	24	n/a	n/a	n/a	n/a
3401.47607421875	n/a	REC_START	6966223	n/a	LTP344	ltpFR2	1	15	n/a	n/a	n/a	n/a	0	0	0
3402.296875	n/a	REC_WORD	6967904	wordpools/wasnorm_wordpool_576.txt	LTP344	ltpFR2	1	15	GLOVE	642	n/a	n/a	0	0	0
3403.76318359375	n/a	REC_WORD	6970907	wordpools/wasnorm_wordpool_576.txt	LTP344	ltpFR2	1	15	FINGER	567	n/a	n/a	0	0	0
3409.15380859375	n/a	REC_WORD	6981947	wordpools/wasnorm_wordpool_576.txt	LTP344	ltpFR2	1	15	GYMNAST	675	n/a	n/a	0	0	0
3411.001953125	n/a	REC_WORD	6985732	wordpools/wasnorm_wordpool_576.txt	LTP344	ltpFR2	1	15	JUGGLER	763	n/a	n/a	0	0	0
3413.40185546875	n/a	REC_WORD	6990647	wordpools/wasnorm_wordpool_576.txt	LTP344	ltpFR2	1	15	SPACE	1345	n/a	n/a	0	0	0
3415.306640625	n/a	REC_WORD	6994548	wordpools/wasnorm_wordpool_576.txt	LTP344	ltpFR2	1	15	MACHINE	852	n/a	n/a	0	0	0
3417.5146484375	n/a	REC_WORD	6999070	wordpools/wasnorm_wordpool_576.txt	LTP344	ltpFR2	1	15	XEROX	1628	n/a	n/a	0	0	0
3421.0517578125	n/a	REC_WORD	7006314	wordpools/wasnorm_wordpool_576.txt	LTP344	ltpFR2	1	15	PIMPLE	1071	n/a	n/a	0	0	0
3423.32763671875	n/a	REC_WORD	7010975	wordpools/wasnorm_wordpool_576.txt	LTP344	ltpFR2	1	15	FLESH	579	n/a	n/a	0	0	0
3425.7685546875	n/a	REC_WORD	7015974	wordpools/wasnorm_wordpool_576.txt	LTP344	ltpFR2	1	15	PIZZA	1079	n/a	n/a	0	0	0
3427.5751953125	n/a	REC_WORD	7019674	wordpools/wasnorm_wordpool_576.txt	LTP344	ltpFR2	1	15	STREAM	1392	n/a	n/a	0	0	0
3429.9541015625	n/a	REC_WORD	7024546	wordpools/wasnorm_wordpool_576.txt	LTP344	ltpFR2	1	15	CANYON	235	n/a	n/a	0	0	0
3432.22119140625	n/a	REC_WORD	7029189	wordpools/wasnorm_wordpool_576.txt	LTP344	ltpFR2	1	15	CURTAIN	427	n/a	n/a	0	0	0
3434.498046875	n/a	REC_WORD	7033852	wordpools/wasnorm_wordpool_576.txt	LTP344	ltpFR2	1	15	MUSTARD	935	n/a	n/a	0	0	0
3437.537109375	n/a	REC_WORD	7040076	wordpools/wasnorm_wordpool_576.txt	LTP344	ltpFR2	1	15	VELVET	1555	n/a	n/a	0	0	0
3442.376953125	n/a	REC_WORD	7049988	wordpools/wasnorm_wordpool_576.txt	LTP344	ltpFR2	1	15	DIME	466	n/a	n/a	0	0	0
3491.91650390625	n/a	WORD	7151445	wordpools/wasnorm_wordpool_576.txt	LTP344	ltpFR2	1	16	EGYPT	519	n/a	n/a	0	0	0
3494.61376953125	n/a	WORD	7156969	wordpools/wasnorm_wordpool_576.txt	LTP344	ltpFR2	1	16	HOSTESS	723	n/a	n/a	0	0	0
3497.0634765625	n/a	WORD	7161986	wordpools/wasnorm_wordpool_576.txt	LTP344	ltpFR2	1	16	TEACHER	1440	n/a	n/a	0	0	0
3499.51171875	n/a	WORD	7167000	wordpools/wasnorm_wordpool_576.txt	LTP344	ltpFR2	1	16	POLICE	1098	n/a	n/a	0	0	0
3501.9443359375	n/a	WORD	7171982	wordpools/wasnorm_wordpool_576.txt	LTP344	ltpFR2	1	16	DAUGHTER	442	n/a	n/a	0	0	0
3504.5751953125	n/a	WORD	7177370	wordpools/wasnorm_wordpool_576.txt	LTP344	ltpFR2	1	16	TART	1436	n/a	n/a	0	0	0
3507.2421875	n/a	WORD	7182832	wordpools/wasnorm_wordpool_576.txt	LTP344	ltpFR2	1	16	TREAT	1501	n/a	n/a	0	0	0
3509.857421875	n/a	WORD	7188188	wordpools/wasnorm_wordpool_576.txt	LTP344	ltpFR2	1	16	SLOPE	1328	n/a	n/a	0	0	0
3512.3720703125	n/a	WORD	7193338	wordpools/wasnorm_wordpool_576.txt	LTP344	ltpFR2	1	16	SCRIBBLE	1256	n/a	n/a	0	0	0
3514.837890625	n/a	WORD	7198388	wordpools/wasnorm_wordpool_576.txt	LTP344	ltpFR2	1	16	CARRIAGE	248	n/a	n/a	0	0	0
3517.3359375	n/a	WORD	7203504	wordpools/wasnorm_wordpool_576.txt	LTP344	ltpFR2	1	16	INFANT	737	n/a	n/a	0	0	0
3520.0029296875	n/a	WORD	7208966	wordpools/wasnorm_wordpool_576.txt	LTP344	ltpFR2	1	16	TORTOISE	1486	n/a	n/a	0	0	0
3522.7177734375	n/a	WORD	7214526	wordpools/wasnorm_wordpool_576.txt	LTP344	ltpFR2	1	16	SPHINX	1349	n/a	n/a	0	0	0
3525.548828125	n/a	WORD	7220324	wordpools/wasnorm_wordpool_576.txt	LTP344	ltpFR2	1	16	LION	827	n/a	n/a	0	0	0
3528.23193359375	n/a	WORD	7225819	wordpools/wasnorm_wordpool_576.txt	LTP344	ltpFR2	1	16	DONKEY	484	n/a	n/a	0	0	0
3530.69775390625	n/a	WORD	7230869	wordpools/wasnorm_wordpool_576.txt	LTP344	ltpFR2	1	16	FIDDLE	561	n/a	n/a	0	0	0
3533.32861328125	n/a	WORD	7236257	wordpools/wasnorm_wordpool_576.txt	LTP344	ltpFR2	1	16	GLOBE	641	n/a	n/a	0	0	0
3536.14453125	n/a	WORD	7242024	wordpools/wasnorm_wordpool_576.txt	LTP344	ltpFR2	1	16	PLUTO	1092	n/a	n/a	0	0	0
3538.87744140625	n/a	WORD	7247621	wordpools/wasnorm_wordpool_576.txt	LTP344	ltpFR2	1	16	BLENDER	136	n/a	n/a	0	0	0
3541.34130859375	n/a	WORD	7252667	wordpools/wasnorm_wordpool_576.txt	LTP344	ltpFR2	1	16	PISTOL	1075	n/a	n/a	0	0	0
3544.05859375	n/a	WORD	7258232	wordpools/wasnorm_wordpool_576.txt	LTP344	ltpFR2	1	16	SCULPTURE	1258	n/a	n/a	0	0	0
3546.80615234375	n/a	WORD	7263859	wordpools/wasnorm_wordpool_576.txt	LTP344	ltpFR2	1	16	DRAWING	494	n/a	n/a	0	0	0
3549.52099609375	n/a	WORD	7269419	wordpools/wasnorm_wordpool_576.txt	LTP344	ltpFR2	1	16	YACHT	1629	n/a	n/a	0	0	0
3551.97119140625	n/a	WORD	7274437	wordpools/wasnorm_wordpool_576.txt	LTP344	ltpFR2	1	16	COURSE	390	n/a	n/a	0	0	0
3553.5859375	n/a	START	7277744	n/a	LTP344	ltpFR2	1	n/a	n/a	n/a	25	n/a	n/a	n/a	n/a
3554.4873046875	n/a	DISTRACTOR	7279590	n/a	LTP344	ltpFR2	1	16	n/a	n/a	n/a	n/a	0	0	0
3554.501953125	n/a	PROB	7279620	n/a	LTP344	ltpFR2	1	n/a	n/a	n/a	25	12	6	5	1
3556.05224609375	n/a	PROB	7282795	n/a	LTP344	ltpFR2	1	n/a	n/a	n/a	25	14	3	7	4
3557.451171875	n/a	PROB	7285660	n/a	LTP344	ltpFR2	1	n/a	n/a	n/a	25	16	6	3	7
3559.0009765625	n/a	PROB	7288834	n/a	LTP344	ltpFR2	1	n/a	n/a	n/a	25	17	4	7	6
3560.966796875	n/a	PROB	7292860	n/a	LTP344	ltpFR2	1	n/a	n/a	n/a	25	25	9	9	7
3563.9150390625	n/a	PROB	7298898	n/a	LTP344	ltpFR2	1	n/a	n/a	n/a	25	13	5	6	2
3566.09765625	n/a	PROB	7303368	n/a	LTP344	ltpFR2	1	n/a	n/a	n/a	25	17	8	7	2
3567.94677734375	n/a	PROB	7307155	n/a	LTP344	ltpFR2	1	n/a	n/a	n/a	25	20	8	3	9
3570.19580078125	n/a	PROB	7311761	n/a	LTP344	ltpFR2	1	n/a	n/a	n/a	25	17	5	5	7
3571.49365234375	n/a	PROB	7314419	n/a	LTP344	ltpFR2	1	n/a	n/a	n/a	25	20	5	6	9
3573.37646484375	n/a	PROB	7318275	n/a	LTP344	ltpFR2	1	n/a	n/a	n/a	25	17	7	3	7
3575.42578125	n/a	PROB	7322472	n/a	LTP344	ltpFR2	1	n/a	n/a	n/a	25	6	2	2	2
3576.3583984375	n/a	STOP	7324382	n/a	LTP344	ltpFR2	1	n/a	n/a	n/a	25	n/a	n/a	n/a	n/a
3579.37353515625	n/a	REC_START	7330557	n/a	LTP344	ltpFR2	1	16	n/a	n/a	n/a	n/a	0	0	0
3581.37548828125	n/a	REC_WORD	7334657	wordpools/wasnorm_wordpool_576.txt	LTP344	ltpFR2	1	16	EGYPT	519	n/a	n/a	0	0	0
3583.36328125	n/a	REC_WORD	7338728	wordpools/wasnorm_wordpool_576.txt	LTP344	ltpFR2	1	16	SPHINX	1349	n/a	n/a	0	0	0
3585.48046875	n/a	REC_WORD	7343064	wordpools/wasnorm_wordpool_576.txt	LTP344	ltpFR2	1	16	GLOBE	641	n/a	n/a	0	0	0
3587.37841796875	n/a	REC_WORD	7346951	wordpools/wasnorm_wordpool_576.txt	LTP344	ltpFR2	1	16	LION	827	n/a	n/a	0	0	0
3588.900390625	n/a	REC_WORD	7350068	wordpools/wasnorm_wordpool_576.txt	LTP344	ltpFR2	1	16	SCULPTURE	1258	n/a	n/a	0	0	0
3591.10302734375	n/a	REC_WORD	7354579	wordpools/wasnorm_wordpool_576.txt	LTP344	ltpFR2	1	16	DONKEY	484	n/a	n/a	0	0	0
3595.048828125	n/a	REC_WORD	7362660	wordpools/wasnorm_wordpool_576.txt	LTP344	ltpFR2	1	16	TEACHER	1440	n/a	n/a	0	0	0
3596.69091796875	n/a	REC_WORD	7366023	wordpools/wasnorm_wordpool_576.txt	LTP344	ltpFR2	1	16	DAUGHTER	442	n/a	n/a	0	0	0
3598.35498046875	n/a	REC_WORD	7369431	wordpools/wasnorm_wordpool_576.txt	LTP344	ltpFR2	1	16	CARRIAGE	248	n/a	n/a	0	0	0
3600.5107421875	n/a	REC_WORD	7373846	wordpools/wasnorm_wordpool_576.txt	LTP344	ltpFR2	1	16	INFANT	737	n/a	n/a	0	0	0
3607.03955078125	n/a	REC_WORD	7387217	wordpools/wasnorm_wordpool_576.txt	LTP344	ltpFR2	1	16	SCRIBBLE	1256	n/a	n/a	0	0	0
3609.02490234375	n/a	REC_WORD	7391283	wordpools/wasnorm_wordpool_576.txt	LTP344	ltpFR2	1	16	DRAWING	494	n/a	n/a	0	0	0
3625.6533203125	n/a	REC_WORD	7425338	wordpools/wasnorm_wordpool_576.txt	LTP344	ltpFR2	1	16	POLICE	1098	n/a	n/a	0	0	0
3640.85107421875	n/a	REC_WORD	7456463	wordpools/wasnorm_wordpool_576.txt	LTP344	ltpFR2	1	16	HOSTESS	723	n/a	n/a	0	0	0
3642.81201171875	n/a	REC_WORD	7460479	wordpools/wasnorm_wordpool_576.txt	LTP344	ltpFR2	1	16	TART	1436	n/a	n/a	0	0	0
3645.15869140625	n/a	REC_WORD	7465285	wordpools/wasnorm_wordpool_576.txt	LTP344	ltpFR2	1	16	TREAT	1501	n/a	n/a	0	0	0
3655.904296875	n/a	REST_REWET	7487292	n/a	LTP344	ltpFR2	1	16	n/a	n/a	n/a	n/a	0	0	0
3763.71875	n/a	WORD	7708096	wordpools/wasnorm_wordpool_576.txt	LTP344	ltpFR2	1	17	HANDBAG	684	n/a	n/a	0	0	0
3766.28369140625	n/a	WORD	7713349	wordpools/wasnorm_wordpool_576.txt	LTP344	ltpFR2	1	17	SHOVEL	1295	n/a	n/a	0	0	0
3769.099609375	n/a	WORD	7719116	wordpools/wasnorm_wordpool_576.txt	LTP344	ltpFR2	1	17	BOX	159	n/a	n/a	0	0	0
3771.63037109375	n/a	WORD	7724299	wordpools/wasnorm_wordpool_576.txt	LTP344	ltpFR2	1	17	THIEF	1456	n/a	n/a	0	0	0
3774.16357421875	n/a	WORD	7729487	wordpools/wasnorm_wordpool_576.txt	LTP344	ltpFR2	1	17	PANTHER	1009	n/a	n/a	0	0	0
3776.71240234375	n/a	WORD	7734707	wordpools/wasnorm_wordpool_576.txt	LTP344	ltpFR2	1	17	FARMER	553	n/a	n/a	0	0	0
3779.17724609375	n/a	WORD	7739755	wordpools/wasnorm_wordpool_576.txt	LTP344	ltpFR2	1	17	OX	994	n/a	n/a	0	0	0
3781.943359375	n/a	WORD	7745420	wordpools/wasnorm_wordpool_576.txt	LTP344	ltpFR2	1	17	ULCER	1533	n/a	n/a	0	0	0
3784.658203125	n/a	WORD	7750980	wordpools/wasnorm_wordpool_576.txt	LTP344	ltpFR2	1	17	PUDDLE	1140	n/a	n/a	0	0	0
3787.47314453125	n/a	WORD	7756745	wordpools/wasnorm_wordpool_576.txt	LTP344	ltpFR2	1	17	BURGLAR	200	n/a	n/a	0	0	0
3790.005859375	n/a	WORD	7761932	wordpools/wasnorm_wordpool_576.txt	LTP344	ltpFR2	1	17	GIRL	637	n/a	n/a	0	0	0
3792.8046875	n/a	WORD	7767664	wordpools/wasnorm_wordpool_576.txt	LTP344	ltpFR2	1	17	LACE	792	n/a	n/a	0	0	0
3795.53564453125	n/a	WORD	7773257	wordpools/wasnorm_wordpool_576.txt	LTP344	ltpFR2	1	17	PLAID	1080	n/a	n/a	0	0	0
3798.06884765625	n/a	WORD	7778445	wordpools/wasnorm_wordpool_576.txt	LTP344	ltpFR2	1	17	MAMMAL	861	n/a	n/a	0	0	0
3800.8505859375	n/a	WORD	7784142	wordpools/wasnorm_wordpool_576.txt	LTP344	ltpFR2	1	17	OMELET	976	n/a	n/a	0	0	0
3803.298828125	n/a	WORD	7789156	wordpools/wasnorm_wordpool_576.txt	LTP344	ltpFR2	1	17	BACON	67	n/a	n/a	0	0	0
3805.88134765625	n/a	WORD	7794445	wordpools/wasnorm_wordpool_576.txt	LTP344	ltpFR2	1	17	PUPPY	1144	n/a	n/a	0	0	0
3808.32958984375	n/a	WORD	7799459	wordpools/wasnorm_wordpool_576.txt	LTP344	ltpFR2	1	17	SPIDER	1351	n/a	n/a	0	0	0
3810.92919921875	n/a	WORD	7804783	wordpools/wasnorm_wordpool_576.txt	LTP344	ltpFR2	1	17	SUITCASE	1403	n/a	n/a	0	0	0
3813.64453125	n/a	WORD	7810344	wordpools/wasnorm_wordpool_576.txt	LTP344	ltpFR2	1	17	COMET	353	n/a	n/a	0	0	0
3816.17626953125	n/a	WORD	7815529	wordpools/wasnorm_wordpool_576.txt	LTP344	ltpFR2	1	17	CHIPMUNK	304	n/a	n/a	0	0	0
3818.908203125	n/a	WORD	7821124	wordpools/wasnorm_wordpool_576.txt	LTP344	ltpFR2	1	17	GIFT	635	n/a	n/a	0	0	0
3821.70703125	n/a	WORD	7826856	wordpools/wasnorm_wordpool_576.txt	LTP344	ltpFR2	1	17	APRON	35	n/a	n/a	0	0	0
3824.13916015625	n/a	WORD	7831837	wordpools/wasnorm_wordpool_576.txt	LTP344	ltpFR2	1	17	STATUE	1374	n/a	n/a	0	0	0
3825.7548828125	n/a	START	7835146	n/a	LTP344	ltpFR2	1	n/a	n/a	n/a	26	n/a	n/a	n/a	n/a
3826.91015625	n/a	DISTRACTOR	7837512	n/a	LTP344	ltpFR2	1	17	n/a	n/a	n/a	n/a	0	0	0
3826.9208984375	n/a	PROB	7837534	n/a	LTP344	ltpFR2	1	n/a	n/a	n/a	26	6	1	3	2
3830.4189453125	n/a	PROB	7844698	n/a	LTP344	ltpFR2	1	n/a	n/a	n/a	26	15	6	8	1
3832.31787109375	n/a	PROB	7848587	n/a	LTP344	ltpFR2	1	n/a	n/a	n/a	26	12	1	3	8
3834.3837890625	n/a	PROB	7852818	n/a	LTP344	ltpFR2	1	n/a	n/a	n/a	26	16	7	7	2
3835.80078125	n/a	PROB	7855720	n/a	LTP344	ltpFR2	1	n/a	n/a	n/a	26	8	1	6	1
3837.0166015625	n/a	PROB	7858210	n/a	LTP344	ltpFR2	1	n/a	n/a	n/a	26	13	8	3	2
3838.61474609375	n/a	PROB	7861483	n/a	LTP344	ltpFR2	1	n/a	n/a	n/a	26	11	4	5	2
3840.44775390625	n/a	PROB	7865237	n/a	LTP344	ltpFR2	1	n/a	n/a	n/a	26	18	8	8	2
3842.32958984375	n/a	PROB	7869091	n/a	LTP344	ltpFR2	1	n/a	n/a	n/a	26	18	9	7	2
3845.07958984375	n/a	PROB	7874723	n/a	LTP344	ltpFR2	1	n/a	n/a	n/a	26	14	8	3	3
3846.6455078125	n/a	PROB	7877930	n/a	LTP344	ltpFR2	1	n/a	n/a	n/a	26	17	3	6	8
3848.70361328125	n/a	STOP	7882145	n/a	LTP344	ltpFR2	1	n/a	n/a	n/a	26	n/a	n/a	n/a	n/a
3851.5751953125	n/a	REC_START	7888026	n/a	LTP344	ltpFR2	1	17	n/a	n/a	n/a	n/a	0	0	0
3853.59423828125	n/a	REC_WORD	7892161	wordpools/wasnorm_wordpool_576.txt	LTP344	ltpFR2	1	17	HANDBAG	684	n/a	n/a	0	0	0
3857.80224609375	n/a	REC_WORD	7900779	wordpools/wasnorm_wordpool_576.txt	LTP344	ltpFR2	1	17	BURGLAR	200	n/a	n/a	0	0	0
3859.9609375	n/a	REC_WORD	7905200	wordpools/wasnorm_wordpool_576.txt	LTP344	ltpFR2	1	17	ROBBER	1197	n/a	n/a	0	0	0
3861.9873046875	n/a	REC_WORD	7909350	wordpools/wasnorm_wordpool_576.txt	LTP344	ltpFR2	1	17	SUITCASE	1403	n/a	n/a	0	0	0
3863.97802734375	n/a	REC_WORD	7913427	wordpools/wasnorm_wordpool_576.txt	LTP344	ltpFR2	1	17	GIRL	637	n/a	n/a	0	0	0
3865.671875	n/a	REC_WORD	7916896	wordpools/wasnorm_wordpool_576.txt	LTP344	ltpFR2	1	17	PLAID	1080	n/a	n/a	0	0	0
3867.89697265625	n/a	REC_WORD	7921453	wordpools/wasnorm_wordpool_576.txt	LTP344	ltpFR2	1	17	LACE	792	n/a	n/a	0	0	0
3869.86572265625	n/a	REC_WORD	7925485	wordpools/wasnorm_wordpool_576.txt	LTP344	ltpFR2	1	17	OX	994	n/a	n/a	0	0	0
