onset	duration	trial_type	sample	stim_file	subject	experiment	session	trial	task	item_name	item_num	recog_resp	recog_conf	resp	answer	test_x	test_y	test_z	color_r	color_g	color_b	case	font
263.806	n/a	SESS_START	131903	n/a	LTP144	ltpFR	11	n/a	n/a	n/a	n/a	1	2	n/a	n/a	0	0	0	n/a	n/a	n/a	n/a	n/a
364.426	n/a	START	182213	n/a	LTP144	ltpFR	11	n/a	n/a	n/a	n/a	n/a	n/a	n/a	n/a	n/a	n/a	n/a	n/a	n/a	n/a	n/a	n/a
364.45	n/a	PROB	182225	n/a	LTP144	ltpFR	11	n/a	n/a	n/a	n/a	n/a	n/a	n/a	24	9	8	7	n/a	n/a	n/a	n/a	n/a
368.504	n/a	PROB	184252	n/a	LTP144	ltpFR	11	n/a	n/a	n/a	n/a	n/a	n/a	n/a	16	6	3	7	n/a	n/a	n/a	n/a	n/a
370.968	n/a	PROB	185484	n/a	LTP144	ltpFR	11	n/a	n/a	n/a	n/a	n/a	n/a	n/a	9	3	2	4	n/a	n/a	n/a	n/a	n/a
372.574	n/a	PROB	186287	n/a	LTP144	ltpFR	11	n/a	n/a	n/a	n/a	n/a	n/a	n/a	21	9	9	3	n/a	n/a	n/a	n/a	n/a
374.44	n/a	PROB	187220	n/a	LTP144	ltpFR	11	n/a	n/a	n/a	n/a	n/a	n/a	n/a	13	3	5	5	n/a	n/a	n/a	n/a	n/a
376.212	n/a	PROB	188106	n/a	LTP144	ltpFR	11	n/a	n/a	n/a	n/a	n/a	n/a	n/a	19	2	8	9	n/a	n/a	n/a	n/a	n/a
377.818	n/a	PROB	188909	n/a	LTP144	ltpFR	11	n/a	n/a	n/a	n/a	n/a	n/a	n/a	19	8	2	9	n/a	n/a	n/a	n/a	n/a
379.492	n/a	PROB	189746	n/a	LTP144	ltpFR	11	n/a	n/a	n/a	n/a	n/a	n/a	n/a	10	3	6	1	n/a	n/a	n/a	n/a	n/a
381.572	n/a	PROB	190786	n/a	LTP144	ltpFR	11	n/a	n/a	n/a	n/a	n/a	n/a	n/a	10	2	5	3	n/a	n/a	n/a	n/a	n/a
383.542	n/a	STOP	191771	n/a	LTP144	ltpFR	11	n/a	n/a	n/a	n/a	n/a	n/a	n/a	n/a	n/a	n/a	n/a	n/a	n/a	n/a	n/a	n/a
443.986	n/a	START	221993	n/a	LTP144	ltpFR	11	n/a	n/a	n/a	n/a	n/a	n/a	n/a	n/a	n/a	n/a	n/a	n/a	n/a	n/a	n/a	n/a
445.492	n/a	PROB	222746	n/a	LTP144	ltpFR	11	n/a	n/a	n/a	n/a	n/a	n/a	n/a	19	6	4	9	n/a	n/a	n/a	n/a	n/a
447.166	n/a	PROB	223583	n/a	LTP144	ltpFR	11	n/a	n/a	n/a	n/a	n/a	n/a	n/a	14	2	7	5	n/a	n/a	n/a	n/a	n/a
448.978	n/a	PROB	224489	n/a	LTP144	ltpFR	11	n/a	n/a	n/a	n/a	n/a	n/a	n/a	11	3	7	1	n/a	n/a	n/a	n/a	n/a
450.352	n/a	PROB	225176	n/a	LTP144	ltpFR	11	n/a	n/a	n/a	n/a	n/a	n/a	n/a	14	2	8	4	n/a	n/a	n/a	n/a	n/a
451.616	n/a	STOP	225808	n/a	LTP144	ltpFR	11	n/a	n/a	n/a	n/a	n/a	n/a	n/a	n/a	n/a	n/a	n/a	n/a	n/a	n/a	n/a	n/a
452.932	n/a	WORD	226466	wordpools/wasnorm_wordpool.txt	LTP144	ltpFR	11	1	0	SOAP	1337	0	n/a	0	n/a	0	0	0	0.422607421875	0.5869140625	0	upper	amplitud.ttf
455.938	n/a	START	227969	n/a	LTP144	ltpFR	11	n/a	n/a	n/a	n/a	n/a	n/a	n/a	n/a	n/a	n/a	n/a	n/a	n/a	n/a	n/a	n/a
456.952	n/a	PROB	228476	n/a	LTP144	ltpFR	11	n/a	n/a	n/a	n/a	n/a	n/a	n/a	16	8	6	2	n/a	n/a	n/a	n/a	n/a
458.85	n/a	PROB	229425	n/a	LTP144	ltpFR	11	n/a	n/a	n/a	n/a	n/a	n/a	n/a	11	4	3	4	n/a	n/a	n/a	n/a	n/a
461.938	n/a	PROB	230969	n/a	LTP144	ltpFR	11	n/a	n/a	n/a	n/a	n/a	n/a	n/a	8	1	3	4	n/a	n/a	n/a	n/a	n/a
463.376	n/a	STOP	231688	n/a	LTP144	ltpFR	11	n/a	n/a	n/a	n/a	n/a	n/a	n/a	n/a	n/a	n/a	n/a	n/a	n/a	n/a	n/a	n/a
464.936	n/a	WORD	232468	wordpools/wasnorm_wordpool.txt	LTP144	ltpFR	11	1	0	DETERGENT	455	n/a	n/a	0	n/a	0	0	0	0.422607421875	0.5869140625	0	upper	amplitud.ttf
467.942	n/a	START	233971	n/a	LTP144	ltpFR	11	n/a	n/a	n/a	n/a	n/a	n/a	n/a	n/a	n/a	n/a	n/a	n/a	n/a	n/a	n/a	n/a
469.008	n/a	PROB	234504	n/a	LTP144	ltpFR	11	n/a	n/a	n/a	n/a	n/a	n/a	n/a	19	8	4	7	n/a	n/a	n/a	n/a	n/a
471.562	n/a	PROB	235781	n/a	LTP144	ltpFR	11	n/a	n/a	n/a	n/a	n/a	n/a	n/a	10	1	2	7	n/a	n/a	n/a	n/a	n/a
473.002	n/a	PROB	236501	n/a	LTP144	ltpFR	11	n/a	n/a	n/a	n/a	n/a	n/a	n/a	8	1	6	1	n/a	n/a	n/a	n/a	n/a
474.416	n/a	PROB	237208	n/a	LTP144	ltpFR	11	n/a	n/a	n/a	n/a	n/a	n/a	n/a	13	9	1	3	n/a	n/a	n/a	n/a	n/a
475.84	n/a	STOP	237920	n/a	LTP144	ltpFR	11	n/a	n/a	n/a	n/a	n/a	n/a	n/a	n/a	n/a	n/a	n/a	n/a	n/a	n/a	n/a	n/a
476.88	n/a	WORD	238440	wordpools/wasnorm_wordpool.txt	LTP144	ltpFR	11	1	1	SHOWER	1296	n/a	n/a	0	n/a	0	0	0	0.57763671875	0.412841796875	1	lower	zerothre.ttf
479.886	n/a	START	239943	n/a	LTP144	ltpFR	11	n/a	n/a	n/a	n/a	n/a	n/a	n/a	n/a	n/a	n/a	n/a	n/a	n/a	n/a	n/a	n/a
480.892	n/a	PROB	240446	n/a	LTP144	ltpFR	11	n/a	n/a	n/a	n/a	n/a	n/a	n/a	19	8	6	5	n/a	n/a	n/a	n/a	n/a
487.886	n/a	STOP	243943	n/a	LTP144	ltpFR	11	n/a	n/a	n/a	n/a	n/a	n/a	n/a	n/a	n/a	n/a	n/a	n/a	n/a	n/a	n/a	n/a
488.892	n/a	WORD	244446	wordpools/wasnorm_wordpool.txt	LTP144	ltpFR	11	1	1	COW	393	n/a	n/a	1	n/a	0	0	0	0.57763671875	0.412841796875	1	lower	zerothre.ttf
491.898	n/a	START	245949	n/a	LTP144	ltpFR	11	n/a	n/a	n/a	n/a	n/a	n/a	n/a	n/a	n/a	n/a	n/a	n/a	n/a	n/a	n/a	n/a
492.946	n/a	PROB	246473	n/a	LTP144	ltpFR	11	n/a	n/a	n/a	n/a	n/a	n/a	n/a	19	9	1	9	n/a	n/a	n/a	n/a	n/a
496.94	n/a	PROB	248470	n/a	LTP144	ltpFR	11	n/a	n/a	n/a	n/a	n/a	n/a	n/a	15	7	2	6	n/a	n/a	n/a	n/a	n/a
498.76	n/a	STOP	249380	n/a	LTP144	ltpFR	11	n/a	n/a	n/a	n/a	n/a	n/a	n/a	n/a	n/a	n/a	n/a	n/a	n/a	n/a	n/a	n/a
501.054	n/a	WORD	250527	wordpools/wasnorm_wordpool.txt	LTP144	ltpFR	11	1	1	CREATURE	403	n/a	n/a	1	n/a	0	0	0	0.57763671875	0.412841796875	1	lower	zerothre.ttf
504.06	n/a	START	252030	n/a	LTP144	ltpFR	11	n/a	n/a	n/a	n/a	n/a	n/a	n/a	n/a	n/a	n/a	n/a	n/a	n/a	n/a	n/a	n/a
505.024	n/a	PROB	252512	n/a	LTP144	ltpFR	11	n/a	n/a	n/a	n/a	n/a	n/a	n/a	18	9	4	5	n/a	n/a	n/a	n/a	n/a
507.138	n/a	PROB	253569	n/a	LTP144	ltpFR	11	n/a	n/a	n/a	n/a	n/a	n/a	n/a	23	8	9	8	n/a	n/a	n/a	n/a	n/a
511.496	n/a	STOP	255748	n/a	LTP144	ltpFR	11	n/a	n/a	n/a	n/a	n/a	n/a	n/a	n/a	n/a	n/a	n/a	n/a	n/a	n/a	n/a	n/a
512.988	n/a	WORD	256494	wordpools/wasnorm_wordpool.txt	LTP144	ltpFR	11	1	1	CLAW	319	n/a	n/a	0	n/a	0	0	0	0.57763671875	0.412841796875	1	lower	zerothre.ttf
515.996	n/a	START	257998	n/a	LTP144	ltpFR	11	n/a	n/a	n/a	n/a	n/a	n/a	n/a	n/a	n/a	n/a	n/a	n/a	n/a	n/a	n/a	n/a
516.826	n/a	PROB	258413	n/a	LTP144	ltpFR	11	n/a	n/a	n/a	n/a	n/a	n/a	n/a	15	7	4	4	n/a	n/a	n/a	n/a	n/a
519.34	n/a	PROB	259670	n/a	LTP144	ltpFR	11	n/a	n/a	n/a	n/a	n/a	n/a	n/a	17	5	5	7	n/a	n/a	n/a	n/a	n/a
520.914	n/a	PROB	260457	n/a	LTP144	ltpFR	11	n/a	n/a	n/a	n/a	n/a	n/a	n/a	14	4	2	8	n/a	n/a	n/a	n/a	n/a
523.996	n/a	STOP	261998	n/a	LTP144	ltpFR	11	n/a	n/a	n/a	n/a	n/a	n/a	n/a	n/a	n/a	n/a	n/a	n/a	n/a	n/a	n/a	n/a
524.834	n/a	WORD	262417	wordpools/wasnorm_wordpool.txt	LTP144	ltpFR	11	1	0	SIDEWALK	1303	n/a	n/a	1	n/a	0	0	0	0.422607421875	0.5869140625	0	upper	amplitud.ttf
527.838	n/a	START	263919	n/a	LTP144	ltpFR	11	n/a	n/a	n/a	n/a	n/a	n/a	n/a	n/a	n/a	n/a	n/a	n/a	n/a	n/a	n/a	n/a
528.838	n/a	PROB	264419	n/a	LTP144	ltpFR	11	n/a	n/a	n/a	n/a	n/a	n/a	n/a	10	3	2	5	n/a	n/a	n/a	n/a	n/a
531.06	n/a	PROB	265530	n/a	LTP144	ltpFR	11	n/a	n/a	n/a	n/a	n/a	n/a	n/a	19	9	9	1	n/a	n/a	n/a	n/a	n/a
535.838	n/a	STOP	267919	n/a	LTP144	ltpFR	11	n/a	n/a	n/a	n/a	n/a	n/a	n/a	n/a	n/a	n/a	n/a	n/a	n/a	n/a	n/a	n/a
536.944	n/a	WORD	268472	wordpools/wasnorm_wordpool.txt	LTP144	ltpFR	11	1	0	KANGAROO	768	n/a	n/a	1	n/a	0	0	0	0.422607421875	0.5869140625	0	upper	amplitud.ttf
539.95	n/a	START	269975	n/a	LTP144	ltpFR	11	n/a	n/a	n/a	n/a	n/a	n/a	n/a	n/a	n/a	n/a	n/a	n/a	n/a	n/a	n/a	n/a
540.774	n/a	PROB	270387	n/a	LTP144	ltpFR	11	n/a	n/a	n/a	n/a	n/a	n/a	n/a	11	1	7	3	n/a	n/a	n/a	n/a	n/a
542.074	n/a	PROB	271037	n/a	LTP144	ltpFR	11	n/a	n/a	n/a	n/a	n/a	n/a	n/a	6	2	3	1	n/a	n/a	n/a	n/a	n/a
543.762	n/a	PROB	271881	n/a	LTP144	ltpFR	11	n/a	n/a	n/a	n/a	n/a	n/a	n/a	12	6	5	1	n/a	n/a	n/a	n/a	n/a
547.95	n/a	STOP	273975	n/a	LTP144	ltpFR	11	n/a	n/a	n/a	n/a	n/a	n/a	n/a	n/a	n/a	n/a	n/a	n/a	n/a	n/a	n/a	n/a
548.948	n/a	WORD	274474	wordpools/wasnorm_wordpool.txt	LTP144	ltpFR	11	1	1	CUSTOMER	430	n/a	n/a	1	n/a	0	0	0	0.57763671875	0.412841796875	1	lower	zerothre.ttf
551.954	n/a	START	275977	n/a	LTP144	ltpFR	11	n/a	n/a	n/a	n/a	n/a	n/a	n/a	n/a	n/a	n/a	n/a	n/a	n/a	n/a	n/a	n/a
553.002	n/a	PROB	276501	n/a	LTP144	ltpFR	11	n/a	n/a	n/a	n/a	n/a	n/a	n/a	18	1	8	9	n/a	n/a	n/a	n/a	n/a
554.842	n/a	PROB	277421	n/a	LTP144	ltpFR	11	n/a	n/a	n/a	n/a	n/a	n/a	n/a	10	2	5	3	n/a	n/a	n/a	n/a	n/a
557.206	n/a	PROB	278603	n/a	LTP144	ltpFR	11	n/a	n/a	n/a	n/a	n/a	n/a	n/a	10	1	4	5	n/a	n/a	n/a	n/a	n/a
558.538	n/a	STOP	279269	n/a	LTP144	ltpFR	11	n/a	n/a	n/a	n/a	n/a	n/a	n/a	n/a	n/a	n/a	n/a	n/a	n/a	n/a	n/a	n/a
560.942	n/a	WORD	280471	wordpools/wasnorm_wordpool.txt	LTP144	ltpFR	11	1	1	CYLINDER	432	n/a	n/a	0	n/a	0	0	0	0.57763671875	0.412841796875	1	lower	zerothre.ttf
563.948	n/a	START	281974	n/a	LTP144	ltpFR	11	n/a	n/a	n/a	n/a	n/a	n/a	n/a	n/a	n/a	n/a	n/a	n/a	n/a	n/a	n/a	n/a
565.064	n/a	PROB	282532	n/a	LTP144	ltpFR	11	n/a	n/a	n/a	n/a	n/a	n/a	n/a	17	6	5	6	n/a	n/a	n/a	n/a	n/a
567.602	n/a	PROB	283801	n/a	LTP144	ltpFR	11	n/a	n/a	n/a	n/a	n/a	n/a	n/a	24	8	9	8	n/a	n/a	n/a	n/a	n/a
571.948	n/a	STOP	285974	n/a	LTP144	ltpFR	11	n/a	n/a	n/a	n/a	n/a	n/a	n/a	n/a	n/a	n/a	n/a	n/a	n/a	n/a	n/a	n/a
572.978	n/a	WORD	286489	wordpools/wasnorm_wordpool.txt	LTP144	ltpFR	11	1	1	CAN	225	n/a	n/a	0	n/a	0	0	0	0.57763671875	0.412841796875	1	lower	zerothre.ttf
575.984	n/a	START	287992	n/a	LTP144	ltpFR	11	n/a	n/a	n/a	n/a	n/a	n/a	n/a	n/a	n/a	n/a	n/a	n/a	n/a	n/a	n/a	n/a
576.974	n/a	PROB	288487	n/a	LTP144	ltpFR	11	n/a	n/a	n/a	n/a	n/a	n/a	n/a	8	4	2	2	n/a	n/a	n/a	n/a	n/a
579.254	n/a	PROB	289627	n/a	LTP144	ltpFR	11	n/a	n/a	n/a	n/a	n/a	n/a	n/a	17	5	9	3	n/a	n/a	n/a	n/a	n/a
581.686	n/a	PROB	290843	n/a	LTP144	ltpFR	11	n/a	n/a	n/a	n/a	n/a	n/a	n/a	14	5	2	7	n/a	n/a	n/a	n/a	n/a
583.57	n/a	STOP	291785	n/a	LTP144	ltpFR	11	n/a	n/a	n/a	n/a	n/a	n/a	n/a	n/a	n/a	n/a	n/a	n/a	n/a	n/a	n/a	n/a
584.824	n/a	WORD	292412	wordpools/wasnorm_wordpool.txt	LTP144	ltpFR	11	1	1	CHIPMUNK	304	n/a	n/a	1	n/a	0	0	0	0.57763671875	0.412841796875	1	lower	zerothre.ttf
587.828	n/a	START	293914	n/a	LTP144	ltpFR	11	n/a	n/a	n/a	n/a	n/a	n/a	n/a	n/a	n/a	n/a	n/a	n/a	n/a	n/a	n/a	n/a
588.81	n/a	PROB	294405	n/a	LTP144	ltpFR	11	n/a	n/a	n/a	n/a	n/a	n/a	n/a	26	9	9	8	n/a	n/a	n/a	n/a	n/a
593.288	n/a	PROB	296644	n/a	LTP144	ltpFR	11	n/a	n/a	n/a	n/a	n/a	n/a	n/a	8	3	4	5	n/a	n/a	n/a	n/a	n/a
595.034	n/a	STOP	297517	n/a	LTP144	ltpFR	11	n/a	n/a	n/a	n/a	n/a	n/a	n/a	n/a	n/a	n/a	n/a	n/a	n/a	n/a	n/a	n/a
596.668	n/a	WORD	298334	wordpools/wasnorm_wordpool.txt	LTP144	ltpFR	11	1	0	WALRUS	1585	n/a	n/a	1	n/a	0	0	0	0.422607421875	0.5869140625	0	upper	amplitud.ttf
599.674	n/a	START	299837	n/a	LTP144	ltpFR	11	n/a	n/a	n/a	n/a	n/a	n/a	n/a	n/a	n/a	n/a	n/a	n/a	n/a	n/a	n/a	n/a
600.522	n/a	PROB	300261	n/a	LTP144	ltpFR	11	n/a	n/a	n/a	n/a	n/a	n/a	n/a	8	1	1	6	n/a	n/a	n/a	n/a	n/a
602.254	n/a	PROB	301127	n/a	LTP144	ltpFR	11	n/a	n/a	n/a	n/a	n/a	n/a	n/a	22	4	9	9	n/a	n/a	n/a	n/a	n/a
604.642	n/a	PROB	302321	n/a	LTP144	ltpFR	11	n/a	n/a	n/a	n/a	n/a	n/a	n/a	12	5	3	4	n/a	n/a	n/a	n/a	n/a
607.354	n/a	STOP	303677	n/a	LTP144	ltpFR	11	n/a	n/a	n/a	n/a	n/a	n/a	n/a	n/a	n/a	n/a	n/a	n/a	n/a	n/a	n/a	n/a
608.646	n/a	WORD	304323	wordpools/wasnorm_wordpool.txt	LTP144	ltpFR	11	1	0	BATH	98	n/a	n/a	1	n/a	0	0	0	0.422607421875	0.5869140625	0	upper	amplitud.ttf
611.65	n/a	START	305825	n/a	LTP144	ltpFR	11	n/a	n/a	n/a	n/a	n/a	n/a	n/a	n/a	n/a	n/a	n/a	n/a	n/a	n/a	n/a	n/a
612.75	n/a	PROB	306375	n/a	LTP144	ltpFR	11	n/a	n/a	n/a	n/a	n/a	n/a	n/a	16	5	2	9	n/a	n/a	n/a	n/a	n/a
616.454	n/a	PROB	308227	n/a	LTP144	ltpFR	11	n/a	n/a	n/a	n/a	n/a	n/a	n/a	14	1	6	7	n/a	n/a	n/a	n/a	n/a
619.652	n/a	STOP	309826	n/a	LTP144	ltpFR	11	n/a	n/a	n/a	n/a	n/a	n/a	n/a	n/a	n/a	n/a	n/a	n/a	n/a	n/a	n/a	n/a
620.566	n/a	WORD	310283	wordpools/wasnorm_wordpool.txt	LTP144	ltpFR	11	1	0	EARTH	515	n/a	n/a	1	n/a	0	0	0	0.422607421875	0.5869140625	0	upper	amplitud.ttf
623.572	n/a	START	311786	n/a	LTP144	ltpFR	11	n/a	n/a	n/a	n/a	n/a	n/a	n/a	n/a	n/a	n/a	n/a	n/a	n/a	n/a	n/a	n/a
624.47	n/a	PROB	312235	n/a	LTP144	ltpFR	11	n/a	n/a	n/a	n/a	n/a	n/a	n/a	15	1	8	6	n/a	n/a	n/a	n/a	n/a
626.892	n/a	PROB	313446	n/a	LTP144	ltpFR	11	n/a	n/a	n/a	n/a	n/a	n/a	n/a	16	5	8	3	n/a	n/a	n/a	n/a	n/a
629.24	n/a	PROB	314620	n/a	LTP144	ltpFR	11	n/a	n/a	n/a	n/a	n/a	n/a	n/a	18	7	3	8	n/a	n/a	n/a	n/a	n/a
630.498	n/a	STOP	315249	n/a	LTP144	ltpFR	11	n/a	n/a	n/a	n/a	n/a	n/a	n/a	n/a	n/a	n/a	n/a	n/a	n/a	n/a	n/a	n/a
632.41	n/a	WORD	316205	wordpools/wasnorm_wordpool.txt	LTP144	ltpFR	11	1	0	GRAVEL	659	n/a	n/a	0	n/a	0	0	0	0.422607421875	0.5869140625	0	upper	amplitud.ttf
635.416	n/a	START	317708	n/a	LTP144	ltpFR	11	n/a	n/a	n/a	n/a	n/a	n/a	n/a	n/a	n/a	n/a	n/a	n/a	n/a	n/a	n/a	n/a
636.498	n/a	PROB	318249	n/a	LTP144	ltpFR	11	n/a	n/a	n/a	n/a	n/a	n/a	n/a	15	8	3	4	n/a	n/a	n/a	n/a	n/a
639.56	n/a	PROB	319780	n/a	LTP144	ltpFR	11	n/a	n/a	n/a	n/a	n/a	n/a	n/a	20	5	9	6	n/a	n/a	n/a	n/a	n/a
642.778	n/a	STOP	321389	n/a	LTP144	ltpFR	11	n/a	n/a	n/a	n/a	n/a	n/a	n/a	n/a	n/a	n/a	n/a	n/a	n/a	n/a	n/a	n/a
645.314	n/a	REC_START	322657	n/a	LTP144	ltpFR	11	1	n/a	n/a	n/a	n/a	n/a	n/a	n/a	0	0	0	n/a	n/a	n/a	n/a	n/a
647.478	n/a	REC_WORD	323739	wordpools/wasnorm_wordpool.txt	LTP144	ltpFR	11	1	0	BATH	98	n/a	n/a	1	n/a	0	0	0	n/a	n/a	n/a	n/a	n/a
648.476	n/a	REC_WORD	324238	wordpools/wasnorm_wordpool.txt	LTP144	ltpFR	11	1	0	EARTH	515	n/a	n/a	1	n/a	0	0	0	n/a	n/a	n/a	n/a	n/a
649.822	n/a	REC_WORD	324911	wordpools/wasnorm_wordpool.txt	LTP144	ltpFR	11	1	0	DETERGENT	455	n/a	n/a	0	n/a	0	0	0	n/a	n/a	n/a	n/a	n/a
650.656	n/a	REC_WORD	325328	wordpools/wasnorm_wordpool.txt	LTP144	ltpFR	11	1	0	SOAP	1337	n/a	n/a	0	n/a	0	0	0	n/a	n/a	n/a	n/a	n/a
652.716	n/a	REC_WORD	326358	wordpools/wasnorm_wordpool.txt	LTP144	ltpFR	11	1	1	SHOWER	1296	n/a	n/a	0	n/a	0	0	0	n/a	n/a	n/a	n/a	n/a
658.344	n/a	REC_WORD	329172	wordpools/wasnorm_wordpool.txt	LTP144	ltpFR	11	1	1	CREATURE	403	n/a	n/a	1	n/a	0	0	0	n/a	n/a	n/a	n/a	n/a
659.232	n/a	REC_WORD	329616	wordpools/wasnorm_wordpool.txt	LTP144	ltpFR	11	1	1	CLAW	319	n/a	n/a	0	n/a	0	0	0	n/a	n/a	n/a	n/a	n/a
659.994	n/a	REC_WORD	329997	wordpools/wasnorm_wordpool.txt	LTP144	ltpFR	11	1	1	CHIPMUNK	304	n/a	n/a	1	n/a	0	0	0	n/a	n/a	n/a	n/a	n/a
661.8	n/a	REC_WORD	330900	wordpools/wasnorm_wordpool.txt	LTP144	ltpFR	11	1	0	KANGAROO	768	n/a	n/a	1	n/a	0	0	0	n/a	n/a	n/a	n/a	n/a
668.212	n/a	REC_WORD	334106	wordpools/wasnorm_wordpool.txt	LTP144	ltpFR	11	1	0	SIDEWALK	1303	n/a	n/a	1	n/a	0	0	0	n/a	n/a	n/a	n/a	n/a
669.922	n/a	REC_WORD	334961	wordpools/wasnorm_wordpool.txt	LTP144	ltpFR	11	1	0	GRAVEL	659	n/a	n/a	0	n/a	0	0	0	n/a	n/a	n/a	n/a	n/a
685.802	n/a	REC_WORD	342901	wordpools/wasnorm_wordpool.txt	LTP144	ltpFR	11	1	1	CYLINDER	432	n/a	n/a	0	n/a	0	0	0	n/a	n/a	n/a	n/a	n/a
686.994	n/a	REC_WORD	343497	wordpools/wasnorm_wordpool.txt	LTP144	ltpFR	11	1	1	CAN	225	n/a	n/a	0	n/a	0	0	0	n/a	n/a	n/a	n/a	n/a
766.158	n/a	WORD	383079	wordpools/wasnorm_wordpool.txt	LTP144	ltpFR	11	2	0	IRON	744	n/a	n/a	0	n/a	0	0	0	0.422607421875	0.5869140625	0	upper	amplitud.ttf
770.17	n/a	WORD	385085	wordpools/wasnorm_wordpool.txt	LTP144	ltpFR	11	2	0	BOULDER	155	n/a	n/a	1	n/a	0	0	0	0.422607421875	0.5869140625	0	upper	amplitud.ttf
774.192	n/a	WORD	387096	wordpools/wasnorm_wordpool.txt	LTP144	ltpFR	11	2	0	OTTER	986	n/a	n/a	1	n/a	0	0	0	0.422607421875	0.5869140625	0	upper	amplitud.ttf
778.236	n/a	WORD	389118	wordpools/wasnorm_wordpool.txt	LTP144	ltpFR	11	2	0	DAM	436	n/a	n/a	1	n/a	0	0	0	0.422607421875	0.5869140625	0	upper	amplitud.ttf
782.098	n/a	WORD	391049	wordpools/wasnorm_wordpool.txt	LTP144	ltpFR	11	2	0	JAW	751	n/a	n/a	0	n/a	0	0	0	0.422607421875	0.5869140625	0	upper	amplitud.ttf
786.178	n/a	WORD	393089	wordpools/wasnorm_wordpool.txt	LTP144	ltpFR	11	2	0	LAMB	797	n/a	n/a	1	n/a	0	0	0	0.422607421875	0.5869140625	0	upper	amplitud.ttf
790.288	n/a	WORD	395144	wordpools/wasnorm_wordpool.txt	LTP144	ltpFR	11	2	0	BLANKET	135	n/a	n/a	1	n/a	0	0	0	0.422607421875	0.5869140625	0	upper	amplitud.ttf
794.184	n/a	WORD	397092	wordpools/wasnorm_wordpool.txt	LTP144	ltpFR	11	2	0	KIDNEY	776	n/a	n/a	0	n/a	0	0	0	0.422607421875	0.5869140625	0	upper	amplitud.ttf
798.172	n/a	WORD	399086	wordpools/wasnorm_wordpool.txt	LTP144	ltpFR	11	2	0	PELICAN	1039	n/a	n/a	1	n/a	0	0	0	0.422607421875	0.5869140625	0	upper	amplitud.ttf
802.3	n/a	WORD	401150	wordpools/wasnorm_wordpool.txt	LTP144	ltpFR	11	2	0	CARPENTER	246	n/a	n/a	1	n/a	0	0	0	0.422607421875	0.5869140625	0	upper	amplitud.ttf
806.436	n/a	WORD	403218	wordpools/wasnorm_wordpool.txt	LTP144	ltpFR	11	2	0	CHISEL	305	n/a	n/a	0	n/a	0	0	0	0.422607421875	0.5869140625	0	upper	amplitud.ttf
810.506	n/a	WORD	405253	wordpools/wasnorm_wordpool.txt	LTP144	ltpFR	11	2	0	WELL	1600	n/a	n/a	1	n/a	0	0	0	0.422607421875	0.5869140625	0	upper	amplitud.ttf
814.586	n/a	WORD	407293	wordpools/wasnorm_wordpool.txt	LTP144	ltpFR	11	2	0	CARDINAL	244	n/a	n/a	0	n/a	0	0	0	0.422607421875	0.5869140625	0	upper	amplitud.ttf
818.48	n/a	WORD	409240	wordpools/wasnorm_wordpool.txt	LTP144	ltpFR	11	2	0	BARN	89	n/a	n/a	1	n/a	0	0	0	0.422607421875	0.5869140625	0	upper	amplitud.ttf
822.676	n/a	WORD	411338	wordpools/wasnorm_wordpool.txt	LTP144	ltpFR	11	2	0	COWBOY	395	n/a	n/a	1	n/a	0	0	0	0.422607421875	0.5869140625	0	upper	amplitud.ttf
826.788	n/a	WORD	413394	wordpools/wasnorm_wordpool.txt	LTP144	ltpFR	11	2	0	CANYON	235	n/a	n/a	1	n/a	0	0	0	0.422607421875	0.5869140625	0	upper	amplitud.ttf
829.792	n/a	START	414896	n/a	LTP144	ltpFR	11	n/a	n/a	n/a	n/a	n/a	n/a	n/a	n/a	n/a	n/a	n/a	n/a	n/a	n/a	n/a	n/a
830.808	n/a	PROB	415404	n/a	LTP144	ltpFR	11	n/a	n/a	n/a	n/a	n/a	n/a	n/a	9	2	4	3	n/a	n/a	n/a	n/a	n/a
833.788	n/a	PROB	416894	n/a	LTP144	ltpFR	11	n/a	n/a	n/a	n/a	n/a	n/a	n/a	24	8	8	9	n/a	n/a	n/a	n/a	n/a
836.58	n/a	STOP	418290	n/a	LTP144	ltpFR	11	n/a	n/a	n/a	n/a	n/a	n/a	n/a	n/a	n/a	n/a	n/a	n/a	n/a	n/a	n/a	n/a
839.606	n/a	REC_START	419803	n/a	LTP144	ltpFR	11	2	n/a	n/a	n/a	n/a	n/a	n/a	n/a	0	0	0	n/a	n/a	n/a	n/a	n/a
840.73	n/a	REC_WORD	420365	wordpools/wasnorm_wordpool.txt	LTP144	ltpFR	11	2	0	COWBOY	395	n/a	n/a	1	n/a	0	0	0	n/a	n/a	n/a	n/a	n/a
841.354	n/a	REC_WORD	420677	wordpools/wasnorm_wordpool.txt	LTP144	ltpFR	11	2	0	BARN	89	n/a	n/a	1	n/a	0	0	0	n/a	n/a	n/a	n/a	n/a
842.132	n/a	REC_WORD	421066	wordpools/wasnorm_wordpool.txt	LTP144	ltpFR	11	2	0	CANYON	235	n/a	n/a	1	n/a	0	0	0	n/a	n/a	n/a	n/a	n/a
843.578	n/a	REC_WORD	421789	wordpools/wasnorm_wordpool.txt	LTP144	ltpFR	11	2	n/a	SHEEP	1278	n/a	n/a	n/a	n/a	0	0	0	n/a	n/a	n/a	n/a	n/a
844.312	n/a	REC_WORD	422156	wordpools/wasnorm_wordpool.txt	LTP144	ltpFR	11	2	0	BLANKET	135	n/a	n/a	1	n/a	0	0	0	n/a	n/a	n/a	n/a	n/a
853.806	n/a	REC_WORD	426903	wordpools/wasnorm_wordpool.txt	LTP144	ltpFR	11	2	0	OTTER	986	n/a	n/a	1	n/a	0	0	0	n/a	n/a	n/a	n/a	n/a
854.414	n/a	REC_WORD	427207	wordpools/wasnorm_wordpool.txt	LTP144	ltpFR	11	2	0	DAM	436	n/a	n/a	1	n/a	0	0	0	n/a	n/a	n/a	n/a	n/a
855.276	n/a	REC_WORD	427638	wordpools/wasnorm_wordpool.txt	LTP144	ltpFR	11	2	0	JAW	751	n/a	n/a	0	n/a	0	0	0	n/a	n/a	n/a	n/a	n/a
864.066	n/a	REC_WORD	432033	wordpools/wasnorm_wordpool.txt	LTP144	ltpFR	11	2	0	IRON	744	n/a	n/a	0	n/a	0	0	0	n/a	n/a	n/a	n/a	n/a
864.88	n/a	REC_WORD	432440	wordpools/wasnorm_wordpool.txt	LTP144	ltpFR	11	2	0	BOULDER	155	n/a	n/a	1	n/a	0	0	0	n/a	n/a	n/a	n/a	n/a
868.672	n/a	REC_WORD	434336	wordpools/wasnorm_wordpool.txt	LTP144	ltpFR	11	2	0	CARDINAL	244	n/a	n/a	0	n/a	0	0	0	n/a	n/a	n/a	n/a	n/a
873.266	n/a	REC_WORD	436633	wordpools/wasnorm_wordpool.txt	LTP144	ltpFR	11	2	0	KIDNEY	776	n/a	n/a	0	n/a	0	0	0	n/a	n/a	n/a	n/a	n/a
874.722	n/a	REC_WORD	437361	wordpools/wasnorm_wordpool.txt	LTP144	ltpFR	11	2	0	WELL	1600	n/a	n/a	1	n/a	0	0	0	n/a	n/a	n/a	n/a	n/a
913.754	n/a	REC_WORD	456877	wordpools/wasnorm_wordpool.txt	LTP144	ltpFR	11	2	0	CARPENTER	246	n/a	n/a	1	n/a	0	0	0	n/a	n/a	n/a	n/a	n/a
914.368	n/a	REC_WORD	457184	wordpools/wasnorm_wordpool.txt	LTP144	ltpFR	11	2	0	CHISEL	305	n/a	n/a	0	n/a	0	0	0	n/a	n/a	n/a	n/a	n/a
981.41	n/a	START	490705	n/a	LTP144	ltpFR	11	n/a	n/a	n/a	n/a	n/a	n/a	n/a	n/a	n/a	n/a	n/a	n/a	n/a	n/a	n/a	n/a
982.918	n/a	PROB	491459	n/a	LTP144	ltpFR	11	n/a	n/a	n/a	n/a	n/a	n/a	n/a	18	8	9	1	n/a	n/a	n/a	n/a	n/a
984.456	n/a	PROB	492228	n/a	LTP144	ltpFR	11	n/a	n/a	n/a	n/a	n/a	n/a	n/a	7	3	1	3	n/a	n/a	n/a	n/a	n/a
986.222	n/a	PROB	493111	n/a	LTP144	ltpFR	11	n/a	n/a	n/a	n/a	n/a	n/a	n/a	15	3	6	6	n/a	n/a	n/a	n/a	n/a
988.136	n/a	STOP	494068	n/a	LTP144	ltpFR	11	n/a	n/a	n/a	n/a	n/a	n/a	n/a	n/a	n/a	n/a	n/a	n/a	n/a	n/a	n/a	n/a
990.334	n/a	WORD	495167	wordpools/wasnorm_wordpool.txt	LTP144	ltpFR	11	3	0	CHIP	303	n/a	n/a	1	n/a	0	0	0	0.422607421875	0.5869140625	0	upper	amplitud.ttf
993.34	n/a	START	496670	n/a	LTP144	ltpFR	11	n/a	n/a	n/a	n/a	n/a	n/a	n/a	n/a	n/a	n/a	n/a	n/a	n/a	n/a	n/a	n/a
994.214	n/a	PROB	497107	n/a	LTP144	ltpFR	11	n/a	n/a	n/a	n/a	n/a	n/a	n/a	10	3	4	3	n/a	n/a	n/a	n/a	n/a
996.926	n/a	PROB	498463	n/a	LTP144	ltpFR	11	n/a	n/a	n/a	n/a	n/a	n/a	n/a	14	2	4	8	n/a	n/a	n/a	n/a	n/a
1000.184	n/a	STOP	500092	n/a	LTP144	ltpFR	11	n/a	n/a	n/a	n/a	n/a	n/a	n/a	n/a	n/a	n/a	n/a	n/a	n/a	n/a	n/a	n/a
1002.404	n/a	WORD	501202	wordpools/wasnorm_wordpool.txt	LTP144	ltpFR	11	3	0	FUDGE	611	n/a	n/a	0	n/a	0	0	0	0.422607421875	0.5869140625	0	upper	amplitud.ttf
1005.408	n/a	START	502704	n/a	LTP144	ltpFR	11	n/a	n/a	n/a	n/a	n/a	n/a	n/a	n/a	n/a	n/a	n/a	n/a	n/a	n/a	n/a	n/a
1006.3	n/a	PROB	503150	n/a	LTP144	ltpFR	11	n/a	n/a	n/a	n/a	n/a	n/a	n/a	6	3	1	2	n/a	n/a	n/a	n/a	n/a
1008.082	n/a	PROB	504041	n/a	LTP144	ltpFR	11	n/a	n/a	n/a	n/a	n/a	n/a	n/a	15	3	7	5	n/a	n/a	n/a	n/a	n/a
1009.438	n/a	PROB	504719	n/a	LTP144	ltpFR	11	n/a	n/a	n/a	n/a	n/a	n/a	n/a	14	4	7	3	n/a	n/a	n/a	n/a	n/a
1010.794	n/a	PROB	505397	n/a	LTP144	ltpFR	11	n/a	n/a	n/a	n/a	n/a	n/a	n/a	20	9	2	9	n/a	n/a	n/a	n/a	n/a
1012.96	n/a	STOP	506480	n/a	LTP144	ltpFR	11	n/a	n/a	n/a	n/a	n/a	n/a	n/a	n/a	n/a	n/a	n/a	n/a	n/a	n/a	n/a	n/a
1014.34	n/a	WORD	507170	wordpools/wasnorm_wordpool.txt	LTP144	ltpFR	11	3	0	BUS	201	n/a	n/a	1	n/a	0	0	0	0.422607421875	0.5869140625	0	upper	amplitud.ttf
1017.346	n/a	START	508673	n/a	LTP144	ltpFR	11	n/a	n/a	n/a	n/a	n/a	n/a	n/a	n/a	n/a	n/a	n/a	n/a	n/a	n/a	n/a	n/a
1018.526	n/a	PROB	509263	n/a	LTP144	ltpFR	11	n/a	n/a	n/a	n/a	n/a	n/a	n/a	13	5	5	3	n/a	n/a	n/a	n/a	n/a
1019.966	n/a	PROB	509983	n/a	LTP144	ltpFR	11	n/a	n/a	n/a	n/a	n/a	n/a	n/a	18	9	5	4	n/a	n/a	n/a	n/a	n/a
1021.906	n/a	PROB	510953	n/a	LTP144	ltpFR	11	n/a	n/a	n/a	n/a	n/a	n/a	n/a	7	3	2	2	n/a	n/a	n/a	n/a	n/a
1024.08	n/a	STOP	512040	n/a	LTP144	ltpFR	11	n/a	n/a	n/a	n/a	n/a	n/a	n/a	n/a	n/a	n/a	n/a	n/a	n/a	n/a	n/a	n/a
1026.252	n/a	WORD	513126	wordpools/wasnorm_wordpool.txt	LTP144	ltpFR	11	3	0	AMBULANCE	19	n/a	n/a	1	n/a	0	0	0	0.422607421875	0.5869140625	0	upper	amplitud.ttf
1029.256	n/a	START	514628	n/a	LTP144	ltpFR	11	n/a	n/a	n/a	n/a	n/a	n/a	n/a	n/a	n/a	n/a	n/a	n/a	n/a	n/a	n/a	n/a
1030.098	n/a	PROB	515049	n/a	LTP144	ltpFR	11	n/a	n/a	n/a	n/a	n/a	n/a	n/a	21	4	9	8	n/a	n/a	n/a	n/a	n/a
1033.826	n/a	PROB	516913	n/a	LTP144	ltpFR	11	n/a	n/a	n/a	n/a	n/a	n/a	n/a	17	8	6	3	n/a	n/a	n/a	n/a	n/a
1036.504	n/a	STOP	518252	n/a	LTP144	ltpFR	11	n/a	n/a	n/a	n/a	n/a	n/a	n/a	n/a	n/a	n/a	n/a	n/a	n/a	n/a	n/a	n/a
1038.18	n/a	WORD	519090	wordpools/wasnorm_wordpool.txt	LTP144	ltpFR	11	3	0	SWITCH	1422	n/a	n/a	0	n/a	0	0	0	0.422607421875	0.5869140625	0	upper	amplitud.ttf
1041.186	n/a	START	520593	n/a	LTP144	ltpFR	11	n/a	n/a	n/a	n/a	n/a	n/a	n/a	n/a	n/a	n/a	n/a	n/a	n/a	n/a	n/a	n/a
1042.2	n/a	PROB	521100	n/a	LTP144	ltpFR	11	n/a	n/a	n/a	n/a	n/a	n/a	n/a	13	2	8	3	n/a	n/a	n/a	n/a	n/a
1044.48	n/a	PROB	522240	n/a	LTP144	ltpFR	11	n/a	n/a	n/a	n/a	n/a	n/a	n/a	21	8	9	4	n/a	n/a	n/a	n/a	n/a
1048.56	n/a	STOP	524280	n/a	LTP144	ltpFR	11	n/a	n/a	n/a	n/a	n/a	n/a	n/a	n/a	n/a	n/a	n/a	n/a	n/a	n/a	n/a	n/a
1050.016	n/a	WORD	525008	wordpools/wasnorm_wordpool.txt	LTP144	ltpFR	11	3	0	LEG	809	n/a	n/a	1	n/a	0	0	0	0.422607421875	0.5869140625	0	upper	amplitud.ttf
1053.022	n/a	START	526511	n/a	LTP144	ltpFR	11	n/a	n/a	n/a	n/a	n/a	n/a	n/a	n/a	n/a	n/a	n/a	n/a	n/a	n/a	n/a	n/a
1054.104	n/a	PROB	527052	n/a	LTP144	ltpFR	11	n/a	n/a	n/a	n/a	n/a	n/a	n/a	21	3	9	9	n/a	n/a	n/a	n/a	n/a
1058.846	n/a	PROB	529423	n/a	LTP144	ltpFR	11	n/a	n/a	n/a	n/a	n/a	n/a	n/a	10	1	1	8	n/a	n/a	n/a	n/a	n/a
1060.216	n/a	STOP	530108	n/a	LTP144	ltpFR	11	n/a	n/a	n/a	n/a	n/a	n/a	n/a	n/a	n/a	n/a	n/a	n/a	n/a	n/a	n/a	n/a
1061.902	n/a	WORD	530951	wordpools/wasnorm_wordpool.txt	LTP144	ltpFR	11	3	0	STRAWBERRY	1391	n/a	n/a	0	n/a	0	0	0	0.422607421875	0.5869140625	0	upper	amplitud.ttf
1064.906	n/a	START	532453	n/a	LTP144	ltpFR	11	n/a	n/a	n/a	n/a	n/a	n/a	n/a	n/a	n/a	n/a	n/a	n/a	n/a	n/a	n/a	n/a
1065.956	n/a	PROB	532978	n/a	LTP144	ltpFR	11	n/a	n/a	n/a	n/a	n/a	n/a	n/a	11	8	2	1	n/a	n/a	n/a	n/a	n/a
1067.554	n/a	PROB	533777	n/a	LTP144	ltpFR	11	n/a	n/a	n/a	n/a	n/a	n/a	n/a	11	3	4	4	n/a	n/a	n/a	n/a	n/a
1069.718	n/a	PROB	534859	n/a	LTP144	ltpFR	11	n/a	n/a	n/a	n/a	n/a	n/a	n/a	14	3	7	4	n/a	n/a	n/a	n/a	n/a
1072.906	n/a	STOP	536453	n/a	LTP144	ltpFR	11	n/a	n/a	n/a	n/a	n/a	n/a	n/a	n/a	n/a	n/a	n/a	n/a	n/a	n/a	n/a	n/a
1073.964	n/a	WORD	536982	wordpools/wasnorm_wordpool.txt	LTP144	ltpFR	11	3	0	PROFESSOR	1131	n/a	n/a	1	n/a	0	0	0	0.422607421875	0.5869140625	0	upper	amplitud.ttf
1076.968	n/a	START	538484	n/a	LTP144	ltpFR	11	n/a	n/a	n/a	n/a	n/a	n/a	n/a	n/a	n/a	n/a	n/a	n/a	n/a	n/a	n/a	n/a
1078.052	n/a	PROB	539026	n/a	LTP144	ltpFR	11	n/a	n/a	n/a	n/a	n/a	n/a	n/a	13	1	7	5	n/a	n/a	n/a	n/a	n/a
1084.968	n/a	STOP	542484	n/a	LTP144	ltpFR	11	n/a	n/a	n/a	n/a	n/a	n/a	n/a	n/a	n/a	n/a	n/a	n/a	n/a	n/a	n/a	n/a
1086.1	n/a	WORD	543050	wordpools/wasnorm_wordpool.txt	LTP144	ltpFR	11	3	0	SHOP	1290	n/a	n/a	1	n/a	0	0	0	0.422607421875	0.5869140625	0	upper	amplitud.ttf
1089.106	n/a	START	544553	n/a	LTP144	ltpFR	11	n/a	n/a	n/a	n/a	n/a	n/a	n/a	n/a	n/a	n/a	n/a	n/a	n/a	n/a	n/a	n/a
1090.27	n/a	PROB	545135	n/a	LTP144	ltpFR	11	n/a	n/a	n/a	n/a	n/a	n/a	n/a	10	5	2	3	n/a	n/a	n/a	n/a	n/a
1092.75	n/a	PROB	546375	n/a	LTP144	ltpFR	11	n/a	n/a	n/a	n/a	n/a	n/a	n/a	12	3	2	7	n/a	n/a	n/a	n/a	n/a
1094.208	n/a	PROB	547104	n/a	LTP144	ltpFR	11	n/a	n/a	n/a	n/a	n/a	n/a	n/a	8	2	1	5	n/a	n/a	n/a	n/a	n/a
1096.138	n/a	STOP	548069	n/a	LTP144	ltpFR	11	n/a	n/a	n/a	n/a	n/a	n/a	n/a	n/a	n/a	n/a	n/a	n/a	n/a	n/a	n/a	n/a
1098.004	n/a	WORD	549002	wordpools/wasnorm_wordpool.txt	LTP144	ltpFR	11	3	0	THIGH	1457	n/a	n/a	1	n/a	0	0	0	0.422607421875	0.5869140625	0	upper	amplitud.ttf
1101.008	n/a	START	550504	n/a	LTP144	ltpFR	11	n/a	n/a	n/a	n/a	n/a	n/a	n/a	n/a	n/a	n/a	n/a	n/a	n/a	n/a	n/a	n/a
1101.98	n/a	PROB	550990	n/a	LTP144	ltpFR	11	n/a	n/a	n/a	n/a	n/a	n/a	n/a	13	1	6	8	n/a	n/a	n/a	n/a	n/a
1105.12	n/a	PROB	552560	n/a	LTP144	ltpFR	11	n/a	n/a	n/a	n/a	n/a	n/a	n/a	16	7	7	2	n/a	n/a	n/a	n/a	n/a
1108.042	n/a	STOP	554021	n/a	LTP144	ltpFR	11	n/a	n/a	n/a	n/a	n/a	n/a	n/a	n/a	n/a	n/a	n/a	n/a	n/a	n/a	n/a	n/a
1110.106	n/a	WORD	555053	wordpools/wasnorm_wordpool.txt	LTP144	ltpFR	11	3	0	BELLY	119	n/a	n/a	1	n/a	0	0	0	0.422607421875	0.5869140625	0	upper	amplitud.ttf
1113.112	n/a	START	556556	n/a	LTP144	ltpFR	11	n/a	n/a	n/a	n/a	n/a	n/a	n/a	n/a	n/a	n/a	n/a	n/a	n/a	n/a	n/a	n/a
1113.984	n/a	PROB	556992	n/a	LTP144	ltpFR	11	n/a	n/a	n/a	n/a	n/a	n/a	n/a	6	4	1	1	n/a	n/a	n/a	n/a	n/a
1116.24	n/a	PROB	558120	n/a	LTP144	ltpFR	11	n/a	n/a	n/a	n/a	n/a	n/a	n/a	18	2	8	8	n/a	n/a	n/a	n/a	n/a
1117.92	n/a	PROB	558960	n/a	LTP144	ltpFR	11	n/a	n/a	n/a	n/a	n/a	n/a	n/a	14	3	7	4	n/a	n/a	n/a	n/a	n/a
1121.11	n/a	STOP	560555	n/a	LTP144	ltpFR	11	n/a	n/a	n/a	n/a	n/a	n/a	n/a	n/a	n/a	n/a	n/a	n/a	n/a	n/a	n/a	n/a
1121.95	n/a	WORD	560975	wordpools/wasnorm_wordpool.txt	LTP144	ltpFR	11	3	0	CONSOLE	364	n/a	n/a	1	n/a	0	0	0	0.422607421875	0.5869140625	0	upper	amplitud.ttf
1124.954	n/a	START	562477	n/a	LTP144	ltpFR	11	n/a	n/a	n/a	n/a	n/a	n/a	n/a	n/a	n/a	n/a	n/a	n/a	n/a	n/a	n/a	n/a
1126.096	n/a	PROB	563048	n/a	LTP144	ltpFR	11	n/a	n/a	n/a	n/a	n/a	n/a	n/a	4	1	1	2	n/a	n/a	n/a	n/a	n/a
1127.784	n/a	PROB	563892	n/a	LTP144	ltpFR	11	n/a	n/a	n/a	n/a	n/a	n/a	n/a	14	1	5	8	n/a	n/a	n/a	n/a	n/a
1132.954	n/a	STOP	566477	n/a	LTP144	ltpFR	11	n/a	n/a	n/a	n/a	n/a	n/a	n/a	n/a	n/a	n/a	n/a	n/a	n/a	n/a	n/a	n/a
1133.91	n/a	WORD	566955	wordpools/wasnorm_wordpool.txt	LTP144	ltpFR	11	3	0	KITCHEN	778	n/a	n/a	1	n/a	0	0	0	0.422607421875	0.5869140625	0	upper	amplitud.ttf
1136.916	n/a	START	568458	n/a	LTP144	ltpFR	11	n/a	n/a	n/a	n/a	n/a	n/a	n/a	n/a	n/a	n/a	n/a	n/a	n/a	n/a	n/a	n/a
1137.864	n/a	PROB	568932	n/a	LTP144	ltpFR	11	n/a	n/a	n/a	n/a	n/a	n/a	n/a	10	3	2	5	n/a	n/a	n/a	n/a	n/a
1139.538	n/a	PROB	569769	n/a	LTP144	ltpFR	11	n/a	n/a	n/a	n/a	n/a	n/a	n/a	21	8	5	8	n/a	n/a	n/a	n/a	n/a
1142.602	n/a	PROB	571301	n/a	LTP144	ltpFR	11	n/a	n/a	n/a	n/a	n/a	n/a	n/a	18	3	8	7	n/a	n/a	n/a	n/a	n/a
1144.042	n/a	STOP	572021	n/a	LTP144	ltpFR	11	n/a	n/a	n/a	n/a	n/a	n/a	n/a	n/a	n/a	n/a	n/a	n/a	n/a	n/a	n/a	n/a
1146.066	n/a	WORD	573033	wordpools/wasnorm_wordpool.txt	LTP144	ltpFR	11	3	0	COOK	372	n/a	n/a	1	n/a	0	0	0	0.422607421875	0.5869140625	0	upper	amplitud.ttf
1149.07	n/a	START	574535	n/a	LTP144	ltpFR	11	n/a	n/a	n/a	n/a	n/a	n/a	n/a	n/a	n/a	n/a	n/a	n/a	n/a	n/a	n/a	n/a
1150.128	n/a	PROB	575064	n/a	LTP144	ltpFR	11	n/a	n/a	n/a	n/a	n/a	n/a	n/a	19	8	7	4	n/a	n/a	n/a	n/a	n/a
1154.022	n/a	PROB	577011	n/a	LTP144	ltpFR	11	n/a	n/a	n/a	n/a	n/a	n/a	n/a	10	2	1	7	n/a	n/a	n/a	n/a	n/a
1155.586	n/a	STOP	577793	n/a	LTP144	ltpFR	11	n/a	n/a	n/a	n/a	n/a	n/a	n/a	n/a	n/a	n/a	n/a	n/a	n/a	n/a	n/a	n/a
1157.984	n/a	WORD	578992	wordpools/wasnorm_wordpool.txt	LTP144	ltpFR	11	3	0	TOENAIL	1474	n/a	n/a	0	n/a	0	0	0	0.422607421875	0.5869140625	0	upper	amplitud.ttf
1160.99	n/a	START	580495	n/a	LTP144	ltpFR	11	n/a	n/a	n/a	n/a	n/a	n/a	n/a	n/a	n/a	n/a	n/a	n/a	n/a	n/a	n/a	n/a
1161.912	n/a	PROB	580956	n/a	LTP144	ltpFR	11	n/a	n/a	n/a	n/a	n/a	n/a	n/a	17	7	7	3	n/a	n/a	n/a	n/a	n/a
1163.628	n/a	PROB	581814	n/a	LTP144	ltpFR	11	n/a	n/a	n/a	n/a	n/a	n/a	n/a	20	6	8	6	n/a	n/a	n/a	n/a	n/a
1165.458	n/a	PROB	582729	n/a	LTP144	ltpFR	11	n/a	n/a	n/a	n/a	n/a	n/a	n/a	18	8	8	2	n/a	n/a	n/a	n/a	n/a
1168.036	n/a	STOP	584018	n/a	LTP144	ltpFR	11	n/a	n/a	n/a	n/a	n/a	n/a	n/a	n/a	n/a	n/a	n/a	n/a	n/a	n/a	n/a	n/a
1169.912	n/a	WORD	584956	wordpools/wasnorm_wordpool.txt	LTP144	ltpFR	11	3	0	BANQUET	86	n/a	n/a	1	n/a	0	0	0	0.422607421875	0.5869140625	0	upper	amplitud.ttf
1172.916	n/a	START	586458	n/a	LTP144	ltpFR	11	n/a	n/a	n/a	n/a	n/a	n/a	n/a	n/a	n/a	n/a	n/a	n/a	n/a	n/a	n/a	n/a
1174.108	n/a	PROB	587054	n/a	LTP144	ltpFR	11	n/a	n/a	n/a	n/a	n/a	n/a	n/a	11	2	7	2	n/a	n/a	n/a	n/a	n/a
1176.172	n/a	PROB	588086	n/a	LTP144	ltpFR	11	n/a	n/a	n/a	n/a	n/a	n/a	n/a	16	6	7	3	n/a	n/a	n/a	n/a	n/a
1177.794	n/a	PROB	588897	n/a	LTP144	ltpFR	11	n/a	n/a	n/a	n/a	n/a	n/a	n/a	13	5	5	3	n/a	n/a	n/a	n/a	n/a
1180.916	n/a	STOP	590458	n/a	LTP144	ltpFR	11	n/a	n/a	n/a	n/a	n/a	n/a	n/a	n/a	n/a	n/a	n/a	n/a	n/a	n/a	n/a	n/a
1182.822	n/a	REC_START	591411	n/a	LTP144	ltpFR	11	3	n/a	n/a	n/a	n/a	n/a	n/a	n/a	0	0	0	n/a	n/a	n/a	n/a	n/a
1184.478	n/a	REC_WORD	592239	wordpools/wasnorm_wordpool.txt	LTP144	ltpFR	11	3	0	BANQUET	86	n/a	n/a	1	n/a	0	0	0	n/a	n/a	n/a	n/a	n/a
1185.202	n/a	REC_WORD	592601	wordpools/wasnorm_wordpool.txt	LTP144	ltpFR	11	3	0	TOENAIL	1474	n/a	n/a	0	n/a	0	0	0	n/a	n/a	n/a	n/a	n/a
1186.324	n/a	REC_WORD	593162	wordpools/wasnorm_wordpool.txt	LTP144	ltpFR	11	3	0	LEG	809	n/a	n/a	1	n/a	0	0	0	n/a	n/a	n/a	n/a	n/a
1186.738	n/a	REC_WORD	593369	wordpools/wasnorm_wordpool.txt	LTP144	ltpFR	11	3	0	THIGH	1457	n/a	n/a	1	n/a	0	0	0	n/a	n/a	n/a	n/a	n/a
1187.78	n/a	REC_WORD	593890	wordpools/wasnorm_wordpool.txt	LTP144	ltpFR	11	3	0	BELLY	119	n/a	n/a	1	n/a	0	0	0	n/a	n/a	n/a	n/a	n/a
1191.294	n/a	REC_WORD	595647	wordpools/wasnorm_wordpool.txt	LTP144	ltpFR	11	3	0	KITCHEN	778	n/a	n/a	1	n/a	0	0	0	n/a	n/a	n/a	n/a	n/a
1191.832	n/a	REC_WORD	595916	wordpools/wasnorm_wordpool.txt	LTP144	ltpFR	11	3	0	COOK	372	n/a	n/a	1	n/a	0	0	0	n/a	n/a	n/a	n/a	n/a
1326.44	n/a	WORD	663220	wordpools/wasnorm_wordpool.txt	LTP144	ltpFR	11	4	0	SILVERWARE	1308	n/a	n/a	0	n/a	0	0	0	0.422607421875	0.5869140625	0	upper	amplitud.ttf
1330.336	n/a	WORD	665168	wordpools/wasnorm_wordpool.txt	LTP144	ltpFR	11	4	0	SCULPTURE	1258	n/a	n/a	1	n/a	0	0	0	0.422607421875	0.5869140625	0	upper	amplitud.ttf
1334.314	n/a	WORD	667157	wordpools/wasnorm_wordpool.txt	LTP144	ltpFR	11	4	0	CUSHION	428	n/a	n/a	0	n/a	0	0	0	0.422607421875	0.5869140625	0	upper	amplitud.ttf
1338.268	n/a	WORD	669134	wordpools/wasnorm_wordpool.txt	LTP144	ltpFR	11	4	1	PILOT	1070	n/a	n/a	1	n/a	0	0	0	0.57763671875	0.412841796875	1	lower	zerothre.ttf
1342.364	n/a	WORD	671182	wordpools/wasnorm_wordpool.txt	LTP144	ltpFR	11	4	1	DOVE	491	n/a	n/a	1	n/a	0	0	0	0.57763671875	0.412841796875	1	lower	zerothre.ttf
1346.35	n/a	WORD	673175	wordpools/wasnorm_wordpool.txt	LTP144	ltpFR	11	4	1	DAGGER	434	n/a	n/a	0	n/a	0	0	0	0.57763671875	0.412841796875	1	lower	zerothre.ttf
1350.512	n/a	WORD	675256	wordpools/wasnorm_wordpool.txt	LTP144	ltpFR	11	4	1	ACORN	3	n/a	n/a	1	n/a	0	0	0	0.57763671875	0.412841796875	1	lower	zerothre.ttf
1354.45	n/a	WORD	677225	wordpools/wasnorm_wordpool.txt	LTP144	ltpFR	11	4	0	NUT	965	n/a	n/a	0	n/a	0	0	0	0.422607421875	0.5869140625	0	upper	amplitud.ttf
1358.586	n/a	WORD	679293	wordpools/wasnorm_wordpool.txt	LTP144	ltpFR	11	4	0	HATCHET	691	n/a	n/a	1	n/a	0	0	0	0.422607421875	0.5869140625	0	upper	amplitud.ttf
1362.656	n/a	WORD	681328	wordpools/wasnorm_wordpool.txt	LTP144	ltpFR	11	4	0	ANCHOR	21	n/a	n/a	1	n/a	0	0	0	0.422607421875	0.5869140625	0	upper	amplitud.ttf
1366.794	n/a	WORD	683397	wordpools/wasnorm_wordpool.txt	LTP144	ltpFR	11	4	1	CAPTAIN	239	n/a	n/a	1	n/a	0	0	0	0.57763671875	0.412841796875	1	lower	zerothre.ttf
1370.99	n/a	WORD	685495	wordpools/wasnorm_wordpool.txt	LTP144	ltpFR	11	4	1	POLITICIAN	1099	n/a	n/a	1	n/a	0	0	0	0.57763671875	0.412841796875	1	lower	zerothre.ttf
1375.078	n/a	WORD	687539	wordpools/wasnorm_wordpool.txt	LTP144	ltpFR	11	4	1	WINGS	1614	n/a	n/a	0	n/a	0	0	0	0.57763671875	0.412841796875	1	lower	zerothre.ttf
1379.256	n/a	WORD	689628	wordpools/wasnorm_wordpool.txt	LTP144	ltpFR	11	4	1	OCEAN	970	n/a	n/a	1	n/a	0	0	0	0.57763671875	0.412841796875	1	lower	zerothre.ttf
1383.168	n/a	WORD	691584	wordpools/wasnorm_wordpool.txt	LTP144	ltpFR	11	4	0	SEAL	1262	n/a	n/a	1	n/a	0	0	0	0.422607421875	0.5869140625	0	upper	amplitud.ttf
1387.114	n/a	WORD	693557	wordpools/wasnorm_wordpool.txt	LTP144	ltpFR	11	4	0	STOMACH	1384	n/a	n/a	1	n/a	0	0	0	0.422607421875	0.5869140625	0	upper	amplitud.ttf
1392.774	n/a	REC_START	696387	n/a	LTP144	ltpFR	11	4	n/a	n/a	n/a	n/a	n/a	n/a	n/a	0	0	0	n/a	n/a	n/a	n/a	n/a
1393.84	n/a	REC_WORD	696920	wordpools/wasnorm_wordpool.txt	LTP144	ltpFR	11	4	0	STOMACH	1384	n/a	n/a	1	n/a	0	0	0	n/a	n/a	n/a	n/a	n/a
1394.748	n/a	REC_WORD	697374	wordpools/wasnorm_wordpool.txt	LTP144	ltpFR	11	4	1	OCEAN	970	n/a	n/a	1	n/a	0	0	0	n/a	n/a	n/a	n/a	n/a
1395.278	n/a	REC_WORD	697639	wordpools/wasnorm_wordpool.txt	LTP144	ltpFR	11	4	0	SEAL	1262	n/a	n/a	1	n/a	0	0	0	n/a	n/a	n/a	n/a	n/a
1395.92	n/a	REC_WORD	697960	wordpools/wasnorm_wordpool.txt	LTP144	ltpFR	11	4	0	ANCHOR	21	n/a	n/a	1	n/a	0	0	0	n/a	n/a	n/a	n/a	n/a
1402.522	n/a	REC_WORD	701261	wordpools/wasnorm_wordpool.txt	LTP144	ltpFR	11	4	1	CAPTAIN	239	n/a	n/a	1	n/a	0	0	0	n/a	n/a	n/a	n/a	n/a
1403.758	n/a	REC_WORD	701879	wordpools/wasnorm_wordpool.txt	LTP144	ltpFR	11	4	1	PILOT	1070	n/a	n/a	1	n/a	0	0	0	n/a	n/a	n/a	n/a	n/a
1404.472	n/a	REC_WORD	702236	wordpools/wasnorm_wordpool.txt	LTP144	ltpFR	11	4	1	DOVE	491	n/a	n/a	1	n/a	0	0	0	n/a	n/a	n/a	n/a	n/a
1405.18	n/a	REC_WORD	702590	wordpools/wasnorm_wordpool.txt	LTP144	ltpFR	11	4	1	WINGS	1614	n/a	n/a	0	n/a	0	0	0	n/a	n/a	n/a	n/a	n/a
1420.604	n/a	REC_WORD	710302	wordpools/wasnorm_wordpool.txt	LTP144	ltpFR	11	4	0	HATCHET	691	n/a	n/a	1	n/a	0	0	0	n/a	n/a	n/a	n/a	n/a
1437.032	n/a	REC_WORD	718516	wordpools/wasnorm_wordpool.txt	LTP144	ltpFR	11	4	0	CUSHION	428	n/a	n/a	0	n/a	0	0	0	n/a	n/a	n/a	n/a	n/a
1513.868	n/a	START	756934	n/a	LTP144	ltpFR	11	n/a	n/a	n/a	n/a	n/a	n/a	n/a	n/a	n/a	n/a	n/a	n/a	n/a	n/a	n/a	n/a
1515.374	n/a	PROB	757687	n/a	LTP144	ltpFR	11	n/a	n/a	n/a	n/a	n/a	n/a	n/a	18	9	8	1	n/a	n/a	n/a	n/a	n/a
1517.496	n/a	PROB	758748	n/a	LTP144	ltpFR	11	n/a	n/a	n/a	n/a	n/a	n/a	n/a	15	3	3	9	n/a	n/a	n/a	n/a	n/a
1519.87	n/a	PROB	759935	n/a	LTP144	ltpFR	11	n/a	n/a	n/a	n/a	n/a	n/a	n/a	15	9	5	1	n/a	n/a	n/a	n/a	n/a
1521.6	n/a	PROB	760800	n/a	LTP144	ltpFR	11	n/a	n/a	n/a	n/a	n/a	n/a	n/a	12	3	3	6	n/a	n/a	n/a	n/a	n/a
1523.924	n/a	PROB	761962	n/a	LTP144	ltpFR	11	n/a	n/a	n/a	n/a	n/a	n/a	n/a	17	8	6	3	n/a	n/a	n/a	n/a	n/a
1526.37	n/a	PROB	763185	n/a	LTP144	ltpFR	11	n/a	n/a	n/a	n/a	n/a	n/a	n/a	17	2	8	7	n/a	n/a	n/a	n/a	n/a
1528.408	n/a	STOP	764204	n/a	LTP144	ltpFR	11	n/a	n/a	n/a	n/a	n/a	n/a	n/a	n/a	n/a	n/a	n/a	n/a	n/a	n/a	n/a	n/a
1530.956	n/a	WORD	765478	wordpools/wasnorm_wordpool.txt	LTP144	ltpFR	11	5	0	WHEEL	1603	n/a	n/a	1	n/a	0	0	0	0.422607421875	0.5869140625	0	upper	amplitud.ttf
1533.962	n/a	START	766981	n/a	LTP144	ltpFR	11	n/a	n/a	n/a	n/a	n/a	n/a	n/a	n/a	n/a	n/a	n/a	n/a	n/a	n/a	n/a	n/a
1535.162	n/a	PROB	767581	n/a	LTP144	ltpFR	11	n/a	n/a	n/a	n/a	n/a	n/a	n/a	12	1	8	3	n/a	n/a	n/a	n/a	n/a
1537.308	n/a	PROB	768654	n/a	LTP144	ltpFR	11	n/a	n/a	n/a	n/a	n/a	n/a	n/a	23	9	8	4	n/a	n/a	n/a	n/a	n/a
1539.78	n/a	PROB	769890	n/a	LTP144	ltpFR	11	n/a	n/a	n/a	n/a	n/a	n/a	n/a	7	1	3	3	n/a	n/a	n/a	n/a	n/a
1542.294	n/a	PROB	771147	n/a	LTP144	ltpFR	11	n/a	n/a	n/a	n/a	n/a	n/a	n/a	21	9	5	7	n/a	n/a	n/a	n/a	n/a
1545.706	n/a	PROB	772853	n/a	LTP144	ltpFR	11	n/a	n/a	n/a	n/a	n/a	n/a	n/a	12	2	6	2	n/a	n/a	n/a	n/a	n/a
1549.962	n/a	STOP	774981	n/a	LTP144	ltpFR	11	n/a	n/a	n/a	n/a	n/a	n/a	n/a	n/a	n/a	n/a	n/a	n/a	n/a	n/a	n/a	n/a
1550.816	n/a	WORD	775408	wordpools/wasnorm_wordpool.txt	LTP144	ltpFR	11	5	0	BUGGY	188	n/a	n/a	1	n/a	0	0	0	0.422607421875	0.5869140625	0	upper	amplitud.ttf
1553.822	n/a	START	776911	n/a	LTP144	ltpFR	11	n/a	n/a	n/a	n/a	n/a	n/a	n/a	n/a	n/a	n/a	n/a	n/a	n/a	n/a	n/a	n/a
1555.014	n/a	PROB	777507	n/a	LTP144	ltpFR	11	n/a	n/a	n/a	n/a	n/a	n/a	n/a	12	4	1	7	n/a	n/a	n/a	n/a	n/a
1557.186	n/a	PROB	778593	n/a	LTP144	ltpFR	11	n/a	n/a	n/a	n/a	n/a	n/a	n/a	9	5	1	3	n/a	n/a	n/a	n/a	n/a
1559.582	n/a	PROB	779791	n/a	LTP144	ltpFR	11	n/a	n/a	n/a	n/a	n/a	n/a	n/a	14	4	2	8	n/a	n/a	n/a	n/a	n/a
1563.826	n/a	PROB	781913	n/a	LTP144	ltpFR	11	n/a	n/a	n/a	n/a	n/a	n/a	n/a	13	7	2	4	n/a	n/a	n/a	n/a	n/a
1566.192	n/a	PROB	783096	n/a	LTP144	ltpFR	11	n/a	n/a	n/a	n/a	n/a	n/a	n/a	19	5	8	6	n/a	n/a	n/a	n/a	n/a
1568.472	n/a	STOP	784236	n/a	LTP144	ltpFR	11	n/a	n/a	n/a	n/a	n/a	n/a	n/a	n/a	n/a	n/a	n/a	n/a	n/a	n/a	n/a	n/a
1570.694	n/a	WORD	785347	wordpools/wasnorm_wordpool.txt	LTP144	ltpFR	11	5	0	PLIERS	1089	n/a	n/a	0	n/a	0	0	0	0.422607421875	0.5869140625	0	upper	amplitud.ttf
1573.7	n/a	START	786850	n/a	LTP144	ltpFR	11	n/a	n/a	n/a	n/a	n/a	n/a	n/a	n/a	n/a	n/a	n/a	n/a	n/a	n/a	n/a	n/a
1574.78	n/a	PROB	787390	n/a	LTP144	ltpFR	11	n/a	n/a	n/a	n/a	n/a	n/a	n/a	22	9	4	9	n/a	n/a	n/a	n/a	n/a
1578.236	n/a	PROB	789118	n/a	LTP144	ltpFR	11	n/a	n/a	n/a	n/a	n/a	n/a	n/a	22	8	8	6	n/a	n/a	n/a	n/a	n/a
1581.74	n/a	PROB	790870	n/a	LTP144	ltpFR	11	n/a	n/a	n/a	n/a	n/a	n/a	n/a	15	6	8	1	n/a	n/a	n/a	n/a	n/a
1584.228	n/a	PROB	792114	n/a	LTP144	ltpFR	11	n/a	n/a	n/a	n/a	n/a	n/a	n/a	18	4	8	6	n/a	n/a	n/a	n/a	n/a
1589.698	n/a	STOP	794849	n/a	LTP144	ltpFR	11	n/a	n/a	n/a	n/a	n/a	n/a	n/a	n/a	n/a	n/a	n/a	n/a	n/a	n/a	n/a	n/a
1590.68	n/a	WORD	795340	wordpools/wasnorm_wordpool.txt	LTP144	ltpFR	11	5	0	BREAD	170	n/a	n/a	1	n/a	0	0	0	0.422607421875	0.5869140625	0	upper	amplitud.ttf
1593.684	n/a	START	796842	n/a	LTP144	ltpFR	11	n/a	n/a	n/a	n/a	n/a	n/a	n/a	n/a	n/a	n/a	n/a	n/a	n/a	n/a	n/a	n/a
1594.5	n/a	PROB	797250	n/a	LTP144	ltpFR	11	n/a	n/a	n/a	n/a	n/a	n/a	n/a	8	1	4	3	n/a	n/a	n/a	n/a	n/a
1597.438	n/a	PROB	798719	n/a	LTP144	ltpFR	11	n/a	n/a	n/a	n/a	n/a	n/a	n/a	16	7	2	7	n/a	n/a	n/a	n/a	n/a
1599.304	n/a	PROB	799652	n/a	LTP144	ltpFR	11	n/a	n/a	n/a	n/a	n/a	n/a	n/a	9	5	1	3	n/a	n/a	n/a	n/a	n/a
1601.56	n/a	PROB	800780	n/a	LTP144	ltpFR	11	n/a	n/a	n/a	n/a	n/a	n/a	n/a	20	5	7	8	n/a	n/a	n/a	n/a	n/a
1604.964	n/a	PROB	802482	n/a	LTP144	ltpFR	11	n/a	n/a	n/a	n/a	n/a	n/a	n/a	13	5	4	4	n/a	n/a	n/a	n/a	n/a
1606.986	n/a	PROB	803493	n/a	LTP144	ltpFR	11	n/a	n/a	n/a	n/a	n/a	n/a	n/a	13	9	1	3	n/a	n/a	n/a	n/a	n/a
1608.4	n/a	STOP	804200	n/a	LTP144	ltpFR	11	n/a	n/a	n/a	n/a	n/a	n/a	n/a	n/a	n/a	n/a	n/a	n/a	n/a	n/a	n/a	n/a
1610.848	n/a	WORD	805424	wordpools/wasnorm_wordpool.txt	LTP144	ltpFR	11	5	0	SANDWICH	1232	n/a	n/a	0	n/a	0	0	0	0.422607421875	0.5869140625	0	upper	amplitud.ttf
1613.854	n/a	START	806927	n/a	LTP144	ltpFR	11	n/a	n/a	n/a	n/a	n/a	n/a	n/a	n/a	n/a	n/a	n/a	n/a	n/a	n/a	n/a	n/a
1614.96	n/a	PROB	807480	n/a	LTP144	ltpFR	11	n/a	n/a	n/a	n/a	n/a	n/a	n/a	13	4	6	3	n/a	n/a	n/a	n/a	n/a
1618.082	n/a	PROB	809041	n/a	LTP144	ltpFR	11	n/a	n/a	n/a	n/a	n/a	n/a	n/a	22	7	6	9	n/a	n/a	n/a	n/a	n/a
1621.936	n/a	PROB	810968	n/a	LTP144	ltpFR	11	n/a	n/a	n/a	n/a	n/a	n/a	n/a	17	8	7	2	n/a	n/a	n/a	n/a	n/a
1624.766	n/a	PROB	812383	n/a	LTP144	ltpFR	11	n/a	n/a	n/a	n/a	n/a	n/a	n/a	9	3	5	1	n/a	n/a	n/a	n/a	n/a
1626.656	n/a	PROB	813328	n/a	LTP144	ltpFR	11	n/a	n/a	n/a	n/a	n/a	n/a	n/a	11	2	6	3	n/a	n/a	n/a	n/a	n/a
1629.56	n/a	STOP	814780	n/a	LTP144	ltpFR	11	n/a	n/a	n/a	n/a	n/a	n/a	n/a	n/a	n/a	n/a	n/a	n/a	n/a	n/a	n/a	n/a
1630.934	n/a	WORD	815467	wordpools/wasnorm_wordpool.txt	LTP144	ltpFR	11	5	0	DETECTIVE	454	n/a	n/a	1	n/a	0	0	0	0.422607421875	0.5869140625	0	upper	amplitud.ttf
1633.938	n/a	START	816969	n/a	LTP144	ltpFR	11	n/a	n/a	n/a	n/a	n/a	n/a	n/a	n/a	n/a	n/a	n/a	n/a	n/a	n/a	n/a	n/a
1634.988	n/a	PROB	817494	n/a	LTP144	ltpFR	11	n/a	n/a	n/a	n/a	n/a	n/a	n/a	14	7	4	3	n/a	n/a	n/a	n/a	n/a
1636.734	n/a	PROB	818367	n/a	LTP144	ltpFR	11	n/a	n/a	n/a	n/a	n/a	n/a	n/a	21	9	8	4	n/a	n/a	n/a	n/a	n/a
1640.78	n/a	PROB	820390	n/a	LTP144	ltpFR	11	n/a	n/a	n/a	n/a	n/a	n/a	n/a	10	1	2	7	n/a	n/a	n/a	n/a	n/a
1642.37	n/a	PROB	821185	n/a	LTP144	ltpFR	11	n/a	n/a	n/a	n/a	n/a	n/a	n/a	20	8	3	9	n/a	n/a	n/a	n/a	n/a
1649.938	n/a	STOP	824969	n/a	LTP144	ltpFR	11	n/a	n/a	n/a	n/a	n/a	n/a	n/a	n/a	n/a	n/a	n/a	n/a	n/a	n/a	n/a	n/a
1651.086	n/a	WORD	825543	wordpools/wasnorm_wordpool.txt	LTP144	ltpFR	11	5	0	POLICE	1098	n/a	n/a	1	n/a	0	0	0	0.422607421875	0.5869140625	0	upper	amplitud.ttf
1654.092	n/a	START	827046	n/a	LTP144	ltpFR	11	n/a	n/a	n/a	n/a	n/a	n/a	n/a	n/a	n/a	n/a	n/a	n/a	n/a	n/a	n/a	n/a
1655.056	n/a	PROB	827528	n/a	LTP144	ltpFR	11	n/a	n/a	n/a	n/a	n/a	n/a	n/a	18	8	1	9	n/a	n/a	n/a	n/a	n/a
1656.928	n/a	PROB	828464	n/a	LTP144	ltpFR	11	n/a	n/a	n/a	n/a	n/a	n/a	n/a	19	9	2	8	n/a	n/a	n/a	n/a	n/a
1663.088	n/a	PROB	831544	n/a	LTP144	ltpFR	11	n/a	n/a	n/a	n/a	n/a	n/a	n/a	10	8	1	1	n/a	n/a	n/a	n/a	n/a
1664.968	n/a	PROB	832484	n/a	LTP144	ltpFR	11	n/a	n/a	n/a	n/a	n/a	n/a	n/a	16	6	2	8	n/a	n/a	n/a	n/a	n/a
1666.726	n/a	PROB	833363	n/a	LTP144	ltpFR	11	n/a	n/a	n/a	n/a	n/a	n/a	n/a	11	1	2	8	n/a	n/a	n/a	n/a	n/a
1668.784	n/a	STOP	834392	n/a	LTP144	ltpFR	11	n/a	n/a	n/a	n/a	n/a	n/a	n/a	n/a	n/a	n/a	n/a	n/a	n/a	n/a	n/a	n/a
1671.206	n/a	WORD	835603	wordpools/wasnorm_wordpool.txt	LTP144	ltpFR	11	5	0	FRIES	607	n/a	n/a	0	n/a	0	0	0	0.422607421875	0.5869140625	0	upper	amplitud.ttf
1674.21	n/a	START	837105	n/a	LTP144	ltpFR	11	n/a	n/a	n/a	n/a	n/a	n/a	n/a	n/a	n/a	n/a	n/a	n/a	n/a	n/a	n/a	n/a
1675.042	n/a	PROB	837521	n/a	LTP144	ltpFR	11	n/a	n/a	n/a	n/a	n/a	n/a	n/a	12	2	1	9	n/a	n/a	n/a	n/a	n/a
1678.53	n/a	PROB	839265	n/a	LTP144	ltpFR	11	n/a	n/a	n/a	n/a	n/a	n/a	n/a	13	4	5	4	n/a	n/a	n/a	n/a	n/a
1682.134	n/a	PROB	841067	n/a	LTP144	ltpFR	11	n/a	n/a	n/a	n/a	n/a	n/a	n/a	19	9	9	1	n/a	n/a	n/a	n/a	n/a
1684.83	n/a	PROB	842415	n/a	LTP144	ltpFR	11	n/a	n/a	n/a	n/a	n/a	n/a	n/a	13	4	6	3	n/a	n/a	n/a	n/a	n/a
1686.754	n/a	PROB	843377	n/a	LTP144	ltpFR	11	n/a	n/a	n/a	n/a	n/a	n/a	n/a	14	4	5	5	n/a	n/a	n/a	n/a	n/a
1690.21	n/a	STOP	845105	n/a	LTP144	ltpFR	11	n/a	n/a	n/a	n/a	n/a	n/a	n/a	n/a	n/a	n/a	n/a	n/a	n/a	n/a	n/a	n/a
1691.15	n/a	WORD	845575	wordpools/wasnorm_wordpool.txt	LTP144	ltpFR	11	5	0	OUTLAW	989	n/a	n/a	1	n/a	0	0	0	0.422607421875	0.5869140625	0	upper	amplitud.ttf
1694.154	n/a	START	847077	n/a	LTP144	ltpFR	11	n/a	n/a	n/a	n/a	n/a	n/a	n/a	n/a	n/a	n/a	n/a	n/a	n/a	n/a	n/a	n/a
1695.26	n/a	PROB	847630	n/a	LTP144	ltpFR	11	n/a	n/a	n/a	n/a	n/a	n/a	n/a	15	7	5	3	n/a	n/a	n/a	n/a	n/a
1697.332	n/a	PROB	848666	n/a	LTP144	ltpFR	11	n/a	n/a	n/a	n/a	n/a	n/a	n/a	18	3	7	8	n/a	n/a	n/a	n/a	n/a
1698.74	n/a	PROB	849370	n/a	LTP144	ltpFR	11	n/a	n/a	n/a	n/a	n/a	n/a	n/a	15	4	3	8	n/a	n/a	n/a	n/a	n/a
1701.196	n/a	PROB	850598	n/a	LTP144	ltpFR	11	n/a	n/a	n/a	n/a	n/a	n/a	n/a	18	3	7	8	n/a	n/a	n/a	n/a	n/a
1704.06	n/a	PROB	852030	n/a	LTP144	ltpFR	11	n/a	n/a	n/a	n/a	n/a	n/a	n/a	21	5	7	9	n/a	n/a	n/a	n/a	n/a
1710.154	n/a	STOP	855077	n/a	LTP144	ltpFR	11	n/a	n/a	n/a	n/a	n/a	n/a	n/a	n/a	n/a	n/a	n/a	n/a	n/a	n/a	n/a	n/a
1711.184	n/a	WORD	855592	wordpools/wasnorm_wordpool.txt	LTP144	ltpFR	11	5	0	RANCH	1166	n/a	n/a	1	n/a	0	0	0	0.422607421875	0.5869140625	0	upper	amplitud.ttf
1714.19	n/a	START	857095	n/a	LTP144	ltpFR	11	n/a	n/a	n/a	n/a	n/a	n/a	n/a	n/a	n/a	n/a	n/a	n/a	n/a	n/a	n/a	n/a
1715.294	n/a	PROB	857647	n/a	LTP144	ltpFR	11	n/a	n/a	n/a	n/a	n/a	n/a	n/a	18	8	8	2	n/a	n/a	n/a	n/a	n/a
1718.152	n/a	PROB	859076	n/a	LTP144	ltpFR	11	n/a	n/a	n/a	n/a	n/a	n/a	n/a	9	1	6	2	n/a	n/a	n/a	n/a	n/a
1721.33	n/a	PROB	860665	n/a	LTP144	ltpFR	11	n/a	n/a	n/a	n/a	n/a	n/a	n/a	10	1	6	3	n/a	n/a	n/a	n/a	n/a
1723.586	n/a	PROB	861793	n/a	LTP144	ltpFR	11	n/a	n/a	n/a	n/a	n/a	n/a	n/a	17	5	7	4	n/a	n/a	n/a	n/a	n/a
1730.188	n/a	STOP	865094	n/a	LTP144	ltpFR	11	n/a	n/a	n/a	n/a	n/a	n/a	n/a	n/a	n/a	n/a	n/a	n/a	n/a	n/a	n/a	n/a
1731.12	n/a	WORD	865560	wordpools/wasnorm_wordpool.txt	LTP144	ltpFR	11	5	0	HAMBURGER	679	n/a	n/a	1	n/a	0	0	0	0.422607421875	0.5869140625	0	upper	amplitud.ttf
1734.124	n/a	START	867062	n/a	LTP144	ltpFR	11	n/a	n/a	n/a	n/a	n/a	n/a	n/a	n/a	n/a	n/a	n/a	n/a	n/a	n/a	n/a	n/a
1735.256	n/a	PROB	867628	n/a	LTP144	ltpFR	11	n/a	n/a	n/a	n/a	n/a	n/a	n/a	12	3	2	7	n/a	n/a	n/a	n/a	n/a
1737.262	n/a	PROB	868631	n/a	LTP144	ltpFR	11	n/a	n/a	n/a	n/a	n/a	n/a	n/a	13	4	5	4	n/a	n/a	n/a	n/a	n/a
1740.042	n/a	PROB	870021	n/a	LTP144	ltpFR	11	n/a	n/a	n/a	n/a	n/a	n/a	n/a	14	7	5	2	n/a	n/a	n/a	n/a	n/a
1742.438	n/a	PROB	871219	n/a	LTP144	ltpFR	11	n/a	n/a	n/a	n/a	n/a	n/a	n/a	14	9	3	2	n/a	n/a	n/a	n/a	n/a
1745.028	n/a	PROB	872514	n/a	LTP144	ltpFR	11	n/a	n/a	n/a	n/a	n/a	n/a	n/a	11	4	6	1	n/a	n/a	n/a	n/a	n/a
1750.126	n/a	STOP	875063	n/a	LTP144	ltpFR	11	n/a	n/a	n/a	n/a	n/a	n/a	n/a	n/a	n/a	n/a	n/a	n/a	n/a	n/a	n/a	n/a
1751.23	n/a	WORD	875615	wordpools/wasnorm_wordpool.txt	LTP144	ltpFR	11	5	0	DOOR	486	n/a	n/a	1	n/a	0	0	0	0.422607421875	0.5869140625	0	upper	amplitud.ttf
1754.234	n/a	START	877117	n/a	LTP144	ltpFR	11	n/a	n/a	n/a	n/a	n/a	n/a	n/a	n/a	n/a	n/a	n/a	n/a	n/a	n/a	n/a	n/a
1755.242	n/a	PROB	877621	n/a	LTP144	ltpFR	11	n/a	n/a	n/a	n/a	n/a	n/a	n/a	14	3	5	6	n/a	n/a	n/a	n/a	n/a
1761.118	n/a	PROB	880559	n/a	LTP144	ltpFR	11	n/a	n/a	n/a	n/a	n/a	n/a	n/a	9	5	1	3	n/a	n/a	n/a	n/a	n/a
1763.648	n/a	PROB	881824	n/a	LTP144	ltpFR	11	n/a	n/a	n/a	n/a	n/a	n/a	n/a	17	8	6	3	n/a	n/a	n/a	n/a	n/a
1766.004	n/a	PROB	883002	n/a	LTP144	ltpFR	11	n/a	n/a	n/a	n/a	n/a	n/a	n/a	24	8	8	9	n/a	n/a	n/a	n/a	n/a
1769.434	n/a	STOP	884717	n/a	LTP144	ltpFR	11	n/a	n/a	n/a	n/a	n/a	n/a	n/a	n/a	n/a	n/a	n/a	n/a	n/a	n/a	n/a	n/a
1771.05	n/a	WORD	885525	wordpools/wasnorm_wordpool.txt	LTP144	ltpFR	11	5	0	STABLE	1363	n/a	n/a	1	n/a	0	0	0	0.422607421875	0.5869140625	0	upper	amplitud.ttf
1774.054	n/a	START	887027	n/a	LTP144	ltpFR	11	n/a	n/a	n/a	n/a	n/a	n/a	n/a	n/a	n/a	n/a	n/a	n/a	n/a	n/a	n/a	n/a
1774.91	n/a	PROB	887455	n/a	LTP144	ltpFR	11	n/a	n/a	n/a	n/a	n/a	n/a	n/a	12	7	1	4	n/a	n/a	n/a	n/a	n/a
1778.158	n/a	PROB	889079	n/a	LTP144	ltpFR	11	n/a	n/a	n/a	n/a	n/a	n/a	n/a	13	3	4	6	n/a	n/a	n/a	n/a	n/a
1780.52	n/a	PROB	890260	n/a	LTP144	ltpFR	11	n/a	n/a	n/a	n/a	n/a	n/a	n/a	15	6	1	8	n/a	n/a	n/a	n/a	n/a
1782.692	n/a	PROB	891346	n/a	LTP144	ltpFR	11	n/a	n/a	n/a	n/a	n/a	n/a	n/a	16	9	4	3	n/a	n/a	n/a	n/a	n/a
1786.132	n/a	PROB	893066	n/a	LTP144	ltpFR	11	n/a	n/a	n/a	n/a	n/a	n/a	n/a	11	2	4	5	n/a	n/a	n/a	n/a	n/a
1789.554	n/a	STOP	894777	n/a	LTP144	ltpFR	11	n/a	n/a	n/a	n/a	n/a	n/a	n/a	n/a	n/a	n/a	n/a	n/a	n/a	n/a	n/a	n/a
1791.258	n/a	WORD	895629	wordpools/wasnorm_wordpool.txt	LTP144	ltpFR	11	5	0	FLOUR	583	n/a	n/a	0	n/a	0	0	0	0.422607421875	0.5869140625	0	upper	amplitud.ttf
1794.264	n/a	START	897132	n/a	LTP144	ltpFR	11	n/a	n/a	n/a	n/a	n/a	n/a	n/a	n/a	n/a	n/a	n/a	n/a	n/a	n/a	n/a	n/a
1795.444	n/a	PROB	897722	n/a	LTP144	ltpFR	11	n/a	n/a	n/a	n/a	n/a	n/a	n/a	9	5	3	1	n/a	n/a	n/a	n/a	n/a
1797.958	n/a	PROB	898979	n/a	LTP144	ltpFR	11	n/a	n/a	n/a	n/a	n/a	n/a	n/a	15	2	9	4	n/a	n/a	n/a	n/a	n/a
1799.948	n/a	PROB	899974	n/a	LTP144	ltpFR	11	n/a	n/a	n/a	n/a	n/a	n/a	n/a	9	5	2	2	n/a	n/a	n/a	n/a	n/a
1801.762	n/a	PROB	900881	n/a	LTP144	ltpFR	11	n/a	n/a	n/a	n/a	n/a	n/a	n/a	22	9	4	9	n/a	n/a	n/a	n/a	n/a
1804.526	n/a	PROB	902263	n/a	LTP144	ltpFR	11	n/a	n/a	n/a	n/a	n/a	n/a	n/a	10	1	7	2	n/a	n/a	n/a	n/a	n/a
1810.262	n/a	STOP	905131	n/a	LTP144	ltpFR	11	n/a	n/a	n/a	n/a	n/a	n/a	n/a	n/a	n/a	n/a	n/a	n/a	n/a	n/a	n/a	n/a
1811.368	n/a	WORD	905684	wordpools/wasnorm_wordpool.txt	LTP144	ltpFR	11	5	0	PUBLICATION	1136	n/a	n/a	0	n/a	0	0	0	0.422607421875	0.5869140625	0	upper	amplitud.ttf
1814.374	n/a	START	907187	n/a	LTP144	ltpFR	11	n/a	n/a	n/a	n/a	n/a	n/a	n/a	n/a	n/a	n/a	n/a	n/a	n/a	n/a	n/a	n/a
1815.554	n/a	PROB	907777	n/a	LTP144	ltpFR	11	n/a	n/a	n/a	n/a	n/a	n/a	n/a	21	9	6	6	n/a	n/a	n/a	n/a	n/a
1818.402	n/a	PROB	909201	n/a	LTP144	ltpFR	11	n/a	n/a	n/a	n/a	n/a	n/a	n/a	11	4	1	6	n/a	n/a	n/a	n/a	n/a
1822.856	n/a	PROB	911428	n/a	LTP144	ltpFR	11	n/a	n/a	n/a	n/a	n/a	n/a	n/a	20	9	4	7	n/a	n/a	n/a	n/a	n/a
1827.558	n/a	PROB	913779	n/a	LTP144	ltpFR	11	n/a	n/a	n/a	n/a	n/a	n/a	n/a	15	1	8	6	n/a	n/a	n/a	n/a	n/a
1830.108	n/a	STOP	915054	n/a	LTP144	ltpFR	11	n/a	n/a	n/a	n/a	n/a	n/a	n/a	n/a	n/a	n/a	n/a	n/a	n/a	n/a	n/a	n/a
1831.504	n/a	WORD	915752	wordpools/wasnorm_wordpool.txt	LTP144	ltpFR	11	5	0	WINDOW	1611	n/a	n/a	1	n/a	0	0	0	0.422607421875	0.5869140625	0	upper	amplitud.ttf
1834.51	n/a	START	917255	n/a	LTP144	ltpFR	11	n/a	n/a	n/a	n/a	n/a	n/a	n/a	n/a	n/a	n/a	n/a	n/a	n/a	n/a	n/a	n/a
1835.408	n/a	PROB	917704	n/a	LTP144	ltpFR	11	n/a	n/a	n/a	n/a	n/a	n/a	n/a	25	8	9	8	n/a	n/a	n/a	n/a	n/a
1840.76	n/a	PROB	920380	n/a	LTP144	ltpFR	11	n/a	n/a	n/a	n/a	n/a	n/a	n/a	10	2	4	4	n/a	n/a	n/a	n/a	n/a
1843.932	n/a	PROB	921966	n/a	LTP144	ltpFR	11	n/a	n/a	n/a	n/a	n/a	n/a	n/a	14	5	1	8	n/a	n/a	n/a	n/a	n/a
1850.51	n/a	STOP	925255	n/a	LTP144	ltpFR	11	n/a	n/a	n/a	n/a	n/a	n/a	n/a	n/a	n/a	n/a	n/a	n/a	n/a	n/a	n/a	n/a
1852.438	n/a	REC_START	926219	n/a	LTP144	ltpFR	11	5	n/a	n/a	n/a	n/a	n/a	n/a	n/a	0	0	0	n/a	n/a	n/a	n/a	n/a
1853.974	n/a	REC_WORD	926987	wordpools/wasnorm_wordpool.txt	LTP144	ltpFR	11	5	0	HAMBURGER	679	n/a	n/a	1	n/a	0	0	0	n/a	n/a	n/a	n/a	n/a
1855.086	n/a	REC_WORD	927543	wordpools/wasnorm_wordpool.txt	LTP144	ltpFR	11	5	0	FLOUR	583	n/a	n/a	0	n/a	0	0	0	n/a	n/a	n/a	n/a	n/a
1855.956	n/a	REC_WORD	927978	wordpools/wasnorm_wordpool.txt	LTP144	ltpFR	11	5	0	WINDOW	1611	n/a	n/a	1	n/a	0	0	0	n/a	n/a	n/a	n/a	n/a
1858.14	n/a	REC_WORD	929070	wordpools/wasnorm_wordpool.txt	LTP144	ltpFR	11	5	0	BREAD	170	n/a	n/a	1	n/a	0	0	0	n/a	n/a	n/a	n/a	n/a
1858.6	n/a	REC_WORD	929300	wordpools/wasnorm_wordpool.txt	LTP144	ltpFR	11	5	0	SANDWICH	1232	n/a	n/a	0	n/a	0	0	0	n/a	n/a	n/a	n/a	n/a
1860.994	n/a	REC_WORD	930497	wordpools/wasnorm_wordpool.txt	LTP144	ltpFR	11	5	0	OUTLAW	989	n/a	n/a	1	n/a	0	0	0	n/a	n/a	n/a	n/a	n/a
1863.662	n/a	REC_WORD	931831	wordpools/wasnorm_wordpool.txt	LTP144	ltpFR	11	5	0	DETECTIVE	454	n/a	n/a	1	n/a	0	0	0	n/a	n/a	n/a	n/a	n/a
1864.342	n/a	REC_WORD	932171	wordpools/wasnorm_wordpool.txt	LTP144	ltpFR	11	5	0	POLICE	1098	n/a	n/a	1	n/a	0	0	0	n/a	n/a	n/a	n/a	n/a
1866.038	n/a	REC_WORD	933019	wordpools/wasnorm_wordpool.txt	LTP144	ltpFR	11	5	0	RANCH	1166	n/a	n/a	1	n/a	0	0	0	n/a	n/a	n/a	n/a	n/a
1870.756	n/a	REC_WORD	935378	wordpools/wasnorm_wordpool.txt	LTP144	ltpFR	11	5	0	STABLE	1363	n/a	n/a	1	n/a	0	0	0	n/a	n/a	n/a	n/a	n/a
1892.842	n/a	REC_WORD	946421	wordpools/wasnorm_wordpool.txt	LTP144	ltpFR	11	5	0	PUBLICATION	1136	n/a	n/a	0	n/a	0	0	0	n/a	n/a	n/a	n/a	n/a
2046.042	n/a	WORD	1023021	wordpools/wasnorm_wordpool.txt	LTP144	ltpFR	11	6	1	SLOPE	1328	n/a	n/a	0	n/a	0	0	0	0.57763671875	0.412841796875	1	lower	zerothre.ttf
2050.18	n/a	WORD	1025090	wordpools/wasnorm_wordpool.txt	LTP144	ltpFR	11	6	1	SAP	1233	n/a	n/a	0	n/a	0	0	0	0.57763671875	0.412841796875	1	lower	zerothre.ttf
2054.224	n/a	WORD	1027112	wordpools/wasnorm_wordpool.txt	LTP144	ltpFR	11	6	1	TREE	1502	n/a	n/a	1	n/a	0	0	0	0.57763671875	0.412841796875	1	lower	zerothre.ttf
2058.378	n/a	WORD	1029189	wordpools/wasnorm_wordpool.txt	LTP144	ltpFR	11	6	0	PARENT	1013	n/a	n/a	1	n/a	0	0	0	0.422607421875	0.5869140625	0	upper	amplitud.ttf
2062.422	n/a	WORD	1031211	wordpools/wasnorm_wordpool.txt	LTP144	ltpFR	11	6	0	TWIN	1528	n/a	n/a	1	n/a	0	0	0	0.422607421875	0.5869140625	0	upper	amplitud.ttf
2066.384	n/a	WORD	1033192	wordpools/wasnorm_wordpool.txt	LTP144	ltpFR	11	6	0	SHELF	1280	n/a	n/a	1	n/a	0	0	0	0.422607421875	0.5869140625	0	upper	amplitud.ttf
2070.422	n/a	WORD	1035211	wordpools/wasnorm_wordpool.txt	LTP144	ltpFR	11	6	0	DUNE	506	n/a	n/a	1	n/a	0	0	0	0.422607421875	0.5869140625	0	upper	amplitud.ttf
2074.26	n/a	WORD	1037130	wordpools/wasnorm_wordpool.txt	LTP144	ltpFR	11	6	0	SWIMMER	1420	n/a	n/a	1	n/a	0	0	0	0.422607421875	0.5869140625	0	upper	amplitud.ttf
2078.254	n/a	WORD	1039127	wordpools/wasnorm_wordpool.txt	LTP144	ltpFR	11	6	1	BUBBLE	183	n/a	n/a	0	n/a	0	0	0	0.57763671875	0.412841796875	1	lower	zerothre.ttf
2082.11	n/a	WORD	1041055	wordpools/wasnorm_wordpool.txt	LTP144	ltpFR	11	6	1	BOTTLE	153	n/a	n/a	0	n/a	0	0	0	0.57763671875	0.412841796875	1	lower	zerothre.ttf
2085.92	n/a	WORD	1042960	wordpools/wasnorm_wordpool.txt	LTP144	ltpFR	11	6	1	VACUUM	1543	n/a	n/a	0	n/a	0	0	0	0.57763671875	0.412841796875	1	lower	zerothre.ttf
2089.882	n/a	WORD	1044941	wordpools/wasnorm_wordpool.txt	LTP144	ltpFR	11	6	0	MAGAZINE	853	n/a	n/a	0	n/a	0	0	0	0.422607421875	0.5869140625	0	upper	amplitud.ttf
2094.012	n/a	WORD	1047006	wordpools/wasnorm_wordpool.txt	LTP144	ltpFR	11	6	0	RIB	1188	n/a	n/a	1	n/a	0	0	0	0.422607421875	0.5869140625	0	upper	amplitud.ttf
2097.856	n/a	WORD	1048928	wordpools/wasnorm_wordpool.txt	LTP144	ltpFR	11	6	0	DINNER	468	n/a	n/a	0	n/a	0	0	0	0.422607421875	0.5869140625	0	upper	amplitud.ttf
2101.768	n/a	WORD	1050884	wordpools/wasnorm_wordpool.txt	LTP144	ltpFR	11	6	1	YOUTH	1634	n/a	n/a	1	n/a	0	0	0	0.57763671875	0.412841796875	1	lower	zerothre.ttf
2105.906	n/a	WORD	1052953	wordpools/wasnorm_wordpool.txt	LTP144	ltpFR	11	6	1	GUARDIAN	668	n/a	n/a	1	n/a	0	0	0	0.57763671875	0.412841796875	1	lower	zerothre.ttf
2108.91	n/a	START	1054455	n/a	LTP144	ltpFR	11	n/a	n/a	n/a	n/a	n/a	n/a	n/a	n/a	n/a	n/a	n/a	n/a	n/a	n/a	n/a	n/a
2109.734	n/a	PROB	1054867	n/a	LTP144	ltpFR	11	n/a	n/a	n/a	n/a	n/a	n/a	n/a	18	9	7	2	n/a	n/a	n/a	n/a	n/a
2112.116	n/a	PROB	1056058	n/a	LTP144	ltpFR	11	n/a	n/a	n/a	n/a	n/a	n/a	n/a	18	7	3	8	n/a	n/a	n/a	n/a	n/a
2113.496	n/a	PROB	1056748	n/a	LTP144	ltpFR	11	n/a	n/a	n/a	n/a	n/a	n/a	n/a	18	6	9	3	n/a	n/a	n/a	n/a	n/a
2115.902	n/a	PROB	1057951	n/a	LTP144	ltpFR	11	n/a	n/a	n/a	n/a	n/a	n/a	n/a	12	1	6	5	n/a	n/a	n/a	n/a	n/a
2118.374	n/a	PROB	1059187	n/a	LTP144	ltpFR	11	n/a	n/a	n/a	n/a	n/a	n/a	n/a	8	3	2	3	n/a	n/a	n/a	n/a	n/a
2124.912	n/a	STOP	1062456	n/a	LTP144	ltpFR	11	n/a	n/a	n/a	n/a	n/a	n/a	n/a	n/a	n/a	n/a	n/a	n/a	n/a	n/a	n/a	n/a
2126.734	n/a	REC_START	1063367	n/a	LTP144	ltpFR	11	6	n/a	n/a	n/a	n/a	n/a	n/a	n/a	0	0	0	n/a	n/a	n/a	n/a	n/a
2132.2	n/a	REC_WORD	1066100	wordpools/wasnorm_wordpool.txt	LTP144	ltpFR	11	6	1	GUARDIAN	668	n/a	n/a	1	n/a	0	0	0	n/a	n/a	n/a	n/a	n/a
2132.9	n/a	REC_WORD	1066450	wordpools/wasnorm_wordpool.txt	LTP144	ltpFR	11	6	0	PARENT	1013	n/a	n/a	1	n/a	0	0	0	n/a	n/a	n/a	n/a	n/a
2133.768	n/a	REC_WORD	1066884	wordpools/wasnorm_wordpool.txt	LTP144	ltpFR	11	6	0	TWIN	1528	n/a	n/a	1	n/a	0	0	0	n/a	n/a	n/a	n/a	n/a
2139.136	n/a	REC_WORD	1069568	wordpools/wasnorm_wordpool.txt	LTP144	ltpFR	11	6	0	SWIMMER	1420	n/a	n/a	1	n/a	0	0	0	n/a	n/a	n/a	n/a	n/a
2139.788	n/a	REC_WORD	1069894	wordpools/wasnorm_wordpool.txt	LTP144	ltpFR	11	6	1	VACUUM	1543	n/a	n/a	0	n/a	0	0	0	n/a	n/a	n/a	n/a	n/a
2144.108	n/a	REC_WORD	1072054	wordpools/wasnorm_wordpool.txt	LTP144	ltpFR	11	6	1	TREE	1502	n/a	n/a	1	n/a	0	0	0	n/a	n/a	n/a	n/a	n/a
2144.842	n/a	REC_WORD	1072421	wordpools/wasnorm_wordpool.txt	LTP144	ltpFR	11	6	1	SAP	1233	n/a	n/a	0	n/a	0	0	0	n/a	n/a	n/a	n/a	n/a
2145.586	n/a	REC_WORD	1072793	wordpools/wasnorm_wordpool.txt	LTP144	ltpFR	11	6	1	SLOPE	1328	n/a	n/a	0	n/a	0	0	0	n/a	n/a	n/a	n/a	n/a
2195.706	n/a	REC_WORD	1097853	wordpools/wasnorm_wordpool.txt	LTP144	ltpFR	11	6	0	MAGAZINE	853	n/a	n/a	0	n/a	0	0	0	n/a	n/a	n/a	n/a	n/a
2200.88	n/a	REC_WORD	1100440	wordpools/wasnorm_wordpool.txt	LTP144	ltpFR	11	6	0	RIB	1188	n/a	n/a	1	n/a	0	0	0	n/a	n/a	n/a	n/a	n/a
2240.444	n/a	WORD	1120222	wordpools/wasnorm_wordpool.txt	LTP144	ltpFR	11	7	1	BAG	69	n/a	n/a	0	n/a	0	0	0	0.57763671875	0.412841796875	1	lower	zerothre.ttf
2244.506	n/a	WORD	1122253	wordpools/wasnorm_wordpool.txt	LTP144	ltpFR	11	7	1	LIVER	833	n/a	n/a	1	n/a	0	0	0	0.57763671875	0.412841796875	1	lower	zerothre.ttf
2248.384	n/a	WORD	1124192	wordpools/wasnorm_wordpool.txt	LTP144	ltpFR	11	7	0	TOMB	1477	n/a	n/a	1	n/a	0	0	0	0.422607421875	0.5869140625	0	upper	amplitud.ttf
2252.462	n/a	WORD	1126231	wordpools/wasnorm_wordpool.txt	LTP144	ltpFR	11	7	0	COUGAR	387	n/a	n/a	1	n/a	0	0	0	0.422607421875	0.5869140625	0	upper	amplitud.ttf
2256.276	n/a	WORD	1128138	wordpools/wasnorm_wordpool.txt	LTP144	ltpFR	11	7	0	LUNCH	849	n/a	n/a	0	n/a	0	0	0	0.422607421875	0.5869140625	0	upper	amplitud.ttf
2260.312	n/a	WORD	1130156	wordpools/wasnorm_wordpool.txt	LTP144	ltpFR	11	7	0	RICE	1190	n/a	n/a	0	n/a	0	0	0	0.422607421875	0.5869140625	0	upper	amplitud.ttf
2264.324	n/a	WORD	1132162	wordpools/wasnorm_wordpool.txt	LTP144	ltpFR	11	7	1	FIELD	562	n/a	n/a	0	n/a	0	0	0	0.57763671875	0.412841796875	1	lower	zerothre.ttf
2268.196	n/a	WORD	1134098	wordpools/wasnorm_wordpool.txt	LTP144	ltpFR	11	7	1	FLOOR	581	n/a	n/a	0	n/a	0	0	0	0.57763671875	0.412841796875	1	lower	zerothre.ttf
2272.074	n/a	WORD	1136037	wordpools/wasnorm_wordpool.txt	LTP144	ltpFR	11	7	1	PRINTER	1126	n/a	n/a	0	n/a	0	0	0	0.57763671875	0.412841796875	1	lower	zerothre.ttf
2276.236	n/a	WORD	1138118	wordpools/wasnorm_wordpool.txt	LTP144	ltpFR	11	7	1	SPRINKLE	1359	n/a	n/a	0	n/a	0	0	0	0.57763671875	0.412841796875	1	lower	zerothre.ttf
2280.192	n/a	WORD	1140096	wordpools/wasnorm_wordpool.txt	LTP144	ltpFR	11	7	1	MARINE	869	n/a	n/a	1	n/a	0	0	0	0.57763671875	0.412841796875	1	lower	zerothre.ttf
2284.01	n/a	WORD	1142005	wordpools/wasnorm_wordpool.txt	LTP144	ltpFR	11	7	1	GANGSTER	620	n/a	n/a	1	n/a	0	0	0	0.57763671875	0.412841796875	1	lower	zerothre.ttf
2288.156	n/a	WORD	1144078	wordpools/wasnorm_wordpool.txt	LTP144	ltpFR	11	7	0	MOB	904	n/a	n/a	1	n/a	0	0	0	0.422607421875	0.5869140625	0	upper	amplitud.ttf
2292.136	n/a	WORD	1146068	wordpools/wasnorm_wordpool.txt	LTP144	ltpFR	11	7	0	LOBSTER	837	n/a	n/a	1	n/a	0	0	0	0.422607421875	0.5869140625	0	upper	amplitud.ttf
2295.946	n/a	WORD	1147973	wordpools/wasnorm_wordpool.txt	LTP144	ltpFR	11	7	0	PANTS	1010	n/a	n/a	1	n/a	0	0	0	0.422607421875	0.5869140625	0	upper	amplitud.ttf
2299.776	n/a	WORD	1149888	wordpools/wasnorm_wordpool.txt	LTP144	ltpFR	11	7	0	SPHINX	1349	n/a	n/a	1	n/a	0	0	0	0.422607421875	0.5869140625	0	upper	amplitud.ttf
2302.78	n/a	START	1151390	n/a	LTP144	ltpFR	11	n/a	n/a	n/a	n/a	n/a	n/a	n/a	n/a	n/a	n/a	n/a	n/a	n/a	n/a	n/a	n/a
2303.838	n/a	PROB	1151919	n/a	LTP144	ltpFR	11	n/a	n/a	n/a	n/a	n/a	n/a	n/a	18	4	6	8	n/a	n/a	n/a	n/a	n/a
2306.492	n/a	PROB	1153246	n/a	LTP144	ltpFR	11	n/a	n/a	n/a	n/a	n/a	n/a	n/a	19	4	6	9	n/a	n/a	n/a	n/a	n/a
2308.482	n/a	PROB	1154241	n/a	LTP144	ltpFR	11	n/a	n/a	n/a	n/a	n/a	n/a	n/a	18	5	8	5	n/a	n/a	n/a	n/a	n/a
2309.97	n/a	STOP	1154985	n/a	LTP144	ltpFR	11	n/a	n/a	n/a	n/a	n/a	n/a	n/a	n/a	n/a	n/a	n/a	n/a	n/a	n/a	n/a	n/a
2312.554	n/a	REC_START	1156277	n/a	LTP144	ltpFR	11	7	n/a	n/a	n/a	n/a	n/a	n/a	n/a	0	0	0	n/a	n/a	n/a	n/a	n/a
2314.508	n/a	REC_WORD	1157254	wordpools/wasnorm_wordpool.txt	LTP144	ltpFR	11	7	0	LOBSTER	837	n/a	n/a	1	n/a	0	0	0	n/a	n/a	n/a	n/a	n/a
2315.562	n/a	REC_WORD	1157781	wordpools/wasnorm_wordpool.txt	LTP144	ltpFR	11	7	1	GANGSTER	620	n/a	n/a	1	n/a	0	0	0	n/a	n/a	n/a	n/a	n/a
2316.136	n/a	REC_WORD	1158068	wordpools/wasnorm_wordpool.txt	LTP144	ltpFR	11	7	0	MOB	904	n/a	n/a	1	n/a	0	0	0	n/a	n/a	n/a	n/a	n/a
2316.588	n/a	REC_WORD	1158294	wordpools/wasnorm_wordpool.txt	LTP144	ltpFR	11	7	1	MARINE	869	n/a	n/a	1	n/a	0	0	0	n/a	n/a	n/a	n/a	n/a
2339.466	n/a	REC_WORD	1169733	wordpools/wasnorm_wordpool.txt	LTP144	ltpFR	11	7	1	FIELD	562	n/a	n/a	0	n/a	0	0	0	n/a	n/a	n/a	n/a	n/a
2340.244	n/a	REC_WORD	1170122	wordpools/wasnorm_wordpool.txt	LTP144	ltpFR	11	7	1	FLOOR	581	n/a	n/a	0	n/a	0	0	0	n/a	n/a	n/a	n/a	n/a
2341.178	n/a	REC_WORD	1170589	wordpools/wasnorm_wordpool.txt	LTP144	ltpFR	11	7	0	LUNCH	849	n/a	n/a	0	n/a	0	0	0	n/a	n/a	n/a	n/a	n/a
2342.6	n/a	REC_WORD	1171300	wordpools/wasnorm_wordpool.txt	LTP144	ltpFR	11	7	1	LIVER	833	n/a	n/a	1	n/a	0	0	0	n/a	n/a	n/a	n/a	n/a
2343.414	n/a	REC_WORD	1171707	wordpools/wasnorm_wordpool.txt	LTP144	ltpFR	11	7	1	BAG	69	n/a	n/a	0	n/a	0	0	0	n/a	n/a	n/a	n/a	n/a
2451.528	n/a	START	1225764	n/a	LTP144	ltpFR	11	n/a	n/a	n/a	n/a	n/a	n/a	n/a	n/a	n/a	n/a	n/a	n/a	n/a	n/a	n/a	n/a
2453.034	n/a	PROB	1226517	n/a	LTP144	ltpFR	11	n/a	n/a	n/a	n/a	n/a	n/a	n/a	18	8	9	1	n/a	n/a	n/a	n/a	n/a
2454.69	n/a	PROB	1227345	n/a	LTP144	ltpFR	11	n/a	n/a	n/a	n/a	n/a	n/a	n/a	20	9	6	5	n/a	n/a	n/a	n/a	n/a
2457.32	n/a	PROB	1228660	n/a	LTP144	ltpFR	11	n/a	n/a	n/a	n/a	n/a	n/a	n/a	16	2	8	6	n/a	n/a	n/a	n/a	n/a
2459.692	n/a	PROB	1229846	n/a	LTP144	ltpFR	11	n/a	n/a	n/a	n/a	n/a	n/a	n/a	15	4	8	3	n/a	n/a	n/a	n/a	n/a
2462.24	n/a	PROB	1231120	n/a	LTP144	ltpFR	11	n/a	n/a	n/a	n/a	n/a	n/a	n/a	8	2	4	2	n/a	n/a	n/a	n/a	n/a
2465.138	n/a	PROB	1232569	n/a	LTP144	ltpFR	11	n/a	n/a	n/a	n/a	n/a	n/a	n/a	18	9	8	1	n/a	n/a	n/a	n/a	n/a
2467.068	n/a	STOP	1233534	n/a	LTP144	ltpFR	11	n/a	n/a	n/a	n/a	n/a	n/a	n/a	n/a	n/a	n/a	n/a	n/a	n/a	n/a	n/a	n/a
2468.398	n/a	WORD	1234199	wordpools/wasnorm_wordpool.txt	LTP144	ltpFR	11	8	1	WINDSHIELD	1612	n/a	n/a	0	n/a	0	0	0	0.57763671875	0.412841796875	1	lower	zerothre.ttf
2471.404	n/a	START	1235702	n/a	LTP144	ltpFR	11	n/a	n/a	n/a	n/a	n/a	n/a	n/a	n/a	n/a	n/a	n/a	n/a	n/a	n/a	n/a	n/a
2472.51	n/a	PROB	1236255	n/a	LTP144	ltpFR	11	n/a	n/a	n/a	n/a	n/a	n/a	n/a	9	1	7	1	n/a	n/a	n/a	n/a	n/a
2474.774	n/a	PROB	1237387	n/a	LTP144	ltpFR	11	n/a	n/a	n/a	n/a	n/a	n/a	n/a	16	8	1	7	n/a	n/a	n/a	n/a	n/a
2476.482	n/a	PROB	1238241	n/a	LTP144	ltpFR	11	n/a	n/a	n/a	n/a	n/a	n/a	n/a	13	2	2	9	n/a	n/a	n/a	n/a	n/a
2479.602	n/a	PROB	1239801	n/a	LTP144	ltpFR	11	n/a	n/a	n/a	n/a	n/a	n/a	n/a	17	7	6	4	n/a	n/a	n/a	n/a	n/a
2481.476	n/a	PROB	1240738	n/a	LTP144	ltpFR	11	n/a	n/a	n/a	n/a	n/a	n/a	n/a	17	8	3	6	n/a	n/a	n/a	n/a	n/a
2483.714	n/a	PROB	1241857	n/a	LTP144	ltpFR	11	n/a	n/a	n/a	n/a	n/a	n/a	n/a	10	5	1	4	n/a	n/a	n/a	n/a	n/a
2486.18	n/a	STOP	1243090	n/a	LTP144	ltpFR	11	n/a	n/a	n/a	n/a	n/a	n/a	n/a	n/a	n/a	n/a	n/a	n/a	n/a	n/a	n/a	n/a
2488.218	n/a	WORD	1244109	wordpools/wasnorm_wordpool.txt	LTP144	ltpFR	11	8	1	CATCHER	258	n/a	n/a	0	n/a	0	0	0	0.57763671875	0.412841796875	1	lower	zerothre.ttf
2491.224	n/a	START	1245612	n/a	LTP144	ltpFR	11	n/a	n/a	n/a	n/a	n/a	n/a	n/a	n/a	n/a	n/a	n/a	n/a	n/a	n/a	n/a	n/a
2492.09	n/a	PROB	1246045	n/a	LTP144	ltpFR	11	n/a	n/a	n/a	n/a	n/a	n/a	n/a	15	9	1	5	n/a	n/a	n/a	n/a	n/a
2495.136	n/a	PROB	1247568	n/a	LTP144	ltpFR	11	n/a	n/a	n/a	n/a	n/a	n/a	n/a	8	4	1	3	n/a	n/a	n/a	n/a	n/a
2497.316	n/a	PROB	1248658	n/a	LTP144	ltpFR	11	n/a	n/a	n/a	n/a	n/a	n/a	n/a	5	3	1	1	n/a	n/a	n/a	n/a	n/a
2499.224	n/a	PROB	1249612	n/a	LTP144	ltpFR	11	n/a	n/a	n/a	n/a	n/a	n/a	n/a	14	5	8	1	n/a	n/a	n/a	n/a	n/a
2501.762	n/a	PROB	1250881	n/a	LTP144	ltpFR	11	n/a	n/a	n/a	n/a	n/a	n/a	n/a	21	9	5	7	n/a	n/a	n/a	n/a	n/a
2506.012	n/a	STOP	1253006	n/a	LTP144	ltpFR	11	n/a	n/a	n/a	n/a	n/a	n/a	n/a	n/a	n/a	n/a	n/a	n/a	n/a	n/a	n/a	n/a
2508.204	n/a	WORD	1254102	wordpools/wasnorm_wordpool.txt	LTP144	ltpFR	11	8	1	BOMB	147	n/a	n/a	0	n/a	0	0	0	0.57763671875	0.412841796875	1	lower	zerothre.ttf
2511.21	n/a	START	1255605	n/a	LTP144	ltpFR	11	n/a	n/a	n/a	n/a	n/a	n/a	n/a	n/a	n/a	n/a	n/a	n/a	n/a	n/a	n/a	n/a
2512.308	n/a	PROB	1256154	n/a	LTP144	ltpFR	11	n/a	n/a	n/a	n/a	n/a	n/a	n/a	13	5	2	6	n/a	n/a	n/a	n/a	n/a
2515.114	n/a	PROB	1257557	n/a	LTP144	ltpFR	11	n/a	n/a	n/a	n/a	n/a	n/a	n/a	17	4	9	4	n/a	n/a	n/a	n/a	n/a
2519.008	n/a	PROB	1259504	n/a	LTP144	ltpFR	11	n/a	n/a	n/a	n/a	n/a	n/a	n/a	16	2	7	7	n/a	n/a	n/a	n/a	n/a
2520.88	n/a	PROB	1260440	n/a	LTP144	ltpFR	11	n/a	n/a	n/a	n/a	n/a	n/a	n/a	13	5	7	1	n/a	n/a	n/a	n/a	n/a
2525.86	n/a	STOP	1262930	n/a	LTP144	ltpFR	11	n/a	n/a	n/a	n/a	n/a	n/a	n/a	n/a	n/a	n/a	n/a	n/a	n/a	n/a	n/a	n/a
2528.372	n/a	WORD	1264186	wordpools/wasnorm_wordpool.txt	LTP144	ltpFR	11	8	1	ATOM	55	n/a	n/a	0	n/a	0	0	0	0.57763671875	0.412841796875	1	lower	zerothre.ttf
2531.378	n/a	START	1265689	n/a	LTP144	ltpFR	11	n/a	n/a	n/a	n/a	n/a	n/a	n/a	n/a	n/a	n/a	n/a	n/a	n/a	n/a	n/a	n/a
2532.326	n/a	PROB	1266163	n/a	LTP144	ltpFR	11	n/a	n/a	n/a	n/a	n/a	n/a	n/a	17	5	3	9	n/a	n/a	n/a	n/a	n/a
2535.166	n/a	PROB	1267583	n/a	LTP144	ltpFR	11	n/a	n/a	n/a	n/a	n/a	n/a	n/a	13	3	6	4	n/a	n/a	n/a	n/a	n/a
2541.308	n/a	PROB	1270654	n/a	LTP144	ltpFR	11	n/a	n/a	n/a	n/a	n/a	n/a	n/a	19	9	3	7	n/a	n/a	n/a	n/a	n/a
2543.372	n/a	PROB	1271686	n/a	LTP144	ltpFR	11	n/a	n/a	n/a	n/a	n/a	n/a	n/a	15	7	1	7	n/a	n/a	n/a	n/a	n/a
2547.378	n/a	STOP	1273689	n/a	LTP144	ltpFR	11	n/a	n/a	n/a	n/a	n/a	n/a	n/a	n/a	n/a	n/a	n/a	n/a	n/a	n/a	n/a	n/a
2548.566	n/a	WORD	1274283	wordpools/wasnorm_wordpool.txt	LTP144	ltpFR	11	8	1	CAT	257	n/a	n/a	1	n/a	0	0	0	0.57763671875	0.412841796875	1	lower	zerothre.ttf
2551.57	n/a	START	1275785	n/a	LTP144	ltpFR	11	n/a	n/a	n/a	n/a	n/a	n/a	n/a	n/a	n/a	n/a	n/a	n/a	n/a	n/a	n/a	n/a
2552.694	n/a	PROB	1276347	n/a	LTP144	ltpFR	11	n/a	n/a	n/a	n/a	n/a	n/a	n/a	7	4	2	1	n/a	n/a	n/a	n/a	n/a
2557.014	n/a	PROB	1278507	n/a	LTP144	ltpFR	11	n/a	n/a	n/a	n/a	n/a	n/a	n/a	14	2	7	5	n/a	n/a	n/a	n/a	n/a
2559.502	n/a	PROB	1279751	n/a	LTP144	ltpFR	11	n/a	n/a	n/a	n/a	n/a	n/a	n/a	15	1	8	6	n/a	n/a	n/a	n/a	n/a
2561.508	n/a	PROB	1280754	n/a	LTP144	ltpFR	11	n/a	n/a	n/a	n/a	n/a	n/a	n/a	10	1	2	7	n/a	n/a	n/a	n/a	n/a
2563.574	n/a	PROB	1281787	n/a	LTP144	ltpFR	11	n/a	n/a	n/a	n/a	n/a	n/a	n/a	16	6	2	8	n/a	n/a	n/a	n/a	n/a
2565.446	n/a	PROB	1282723	n/a	LTP144	ltpFR	11	n/a	n/a	n/a	n/a	n/a	n/a	n/a	10	7	2	1	n/a	n/a	n/a	n/a	n/a
2567.038	n/a	STOP	1283519	n/a	LTP144	ltpFR	11	n/a	n/a	n/a	n/a	n/a	n/a	n/a	n/a	n/a	n/a	n/a	n/a	n/a	n/a	n/a	n/a
2568.46	n/a	WORD	1284230	wordpools/wasnorm_wordpool.txt	LTP144	ltpFR	11	8	1	BRANCH	168	n/a	n/a	1	n/a	0	0	0	0.57763671875	0.412841796875	1	lower	zerothre.ttf
2571.464	n/a	START	1285732	n/a	LTP144	ltpFR	11	n/a	n/a	n/a	n/a	n/a	n/a	n/a	n/a	n/a	n/a	n/a	n/a	n/a	n/a	n/a	n/a
2572.296	n/a	PROB	1286148	n/a	LTP144	ltpFR	11	n/a	n/a	n/a	n/a	n/a	n/a	n/a	24	8	9	7	n/a	n/a	n/a	n/a	n/a
2575.884	n/a	PROB	1287942	n/a	LTP144	ltpFR	11	n/a	n/a	n/a	n/a	n/a	n/a	n/a	22	9	4	9	n/a	n/a	n/a	n/a	n/a
2579.888	n/a	PROB	1289944	n/a	LTP144	ltpFR	11	n/a	n/a	n/a	n/a	n/a	n/a	n/a	17	7	5	5	n/a	n/a	n/a	n/a	n/a
2587.466	n/a	STOP	1293733	n/a	LTP144	ltpFR	11	n/a	n/a	n/a	n/a	n/a	n/a	n/a	n/a	n/a	n/a	n/a	n/a	n/a	n/a	n/a	n/a
2588.57	n/a	WORD	1294285	wordpools/wasnorm_wordpool.txt	LTP144	ltpFR	11	8	1	CRAB	397	n/a	n/a	1	n/a	0	0	0	0.57763671875	0.412841796875	1	lower	zerothre.ttf
2591.576	n/a	START	1295788	n/a	LTP144	ltpFR	11	n/a	n/a	n/a	n/a	n/a	n/a	n/a	n/a	n/a	n/a	n/a	n/a	n/a	n/a	n/a	n/a
2592.508	n/a	PROB	1296254	n/a	LTP144	ltpFR	11	n/a	n/a	n/a	n/a	n/a	n/a	n/a	16	4	4	8	n/a	n/a	n/a	n/a	n/a
2595.62	n/a	PROB	1297810	n/a	LTP144	ltpFR	11	n/a	n/a	n/a	n/a	n/a	n/a	n/a	15	5	8	1	n/a	n/a	n/a	n/a	n/a
2597.452	n/a	PROB	1298726	n/a	LTP144	ltpFR	11	n/a	n/a	n/a	n/a	n/a	n/a	n/a	21	5	9	7	n/a	n/a	n/a	n/a	n/a
2604.694	n/a	PROB	1302347	n/a	LTP144	ltpFR	11	n/a	n/a	n/a	n/a	n/a	n/a	n/a	8	5	2	1	n/a	n/a	n/a	n/a	n/a
2606.134	n/a	STOP	1303067	n/a	LTP144	ltpFR	11	n/a	n/a	n/a	n/a	n/a	n/a	n/a	n/a	n/a	n/a	n/a	n/a	n/a	n/a	n/a	n/a
2608.746	n/a	WORD	1304373	wordpools/wasnorm_wordpool.txt	LTP144	ltpFR	11	8	1	MUSHROOM	934	n/a	n/a	1	n/a	0	0	0	0.57763671875	0.412841796875	1	lower	zerothre.ttf
2611.752	n/a	START	1305876	n/a	LTP144	ltpFR	11	n/a	n/a	n/a	n/a	n/a	n/a	n/a	n/a	n/a	n/a	n/a	n/a	n/a	n/a	n/a	n/a
2612.842	n/a	PROB	1306421	n/a	LTP144	ltpFR	11	n/a	n/a	n/a	n/a	n/a	n/a	n/a	19	9	2	8	n/a	n/a	n/a	n/a	n/a
2617.878	n/a	PROB	1308939	n/a	LTP144	ltpFR	11	n/a	n/a	n/a	n/a	n/a	n/a	n/a	18	9	8	1	n/a	n/a	n/a	n/a	n/a
2619.8	n/a	PROB	1309900	n/a	LTP144	ltpFR	11	n/a	n/a	n/a	n/a	n/a	n/a	n/a	16	4	6	6	n/a	n/a	n/a	n/a	n/a
2622.556	n/a	PROB	1311278	n/a	LTP144	ltpFR	11	n/a	n/a	n/a	n/a	n/a	n/a	n/a	17	3	6	8	n/a	n/a	n/a	n/a	n/a
2624.686	n/a	PROB	1312343	n/a	LTP144	ltpFR	11	n/a	n/a	n/a	n/a	n/a	n/a	n/a	14	4	3	7	n/a	n/a	n/a	n/a	n/a
2626.254	n/a	STOP	1313127	n/a	LTP144	ltpFR	11	n/a	n/a	n/a	n/a	n/a	n/a	n/a	n/a	n/a	n/a	n/a	n/a	n/a	n/a	n/a	n/a
2628.632	n/a	WORD	1314316	wordpools/wasnorm_wordpool.txt	LTP144	ltpFR	11	8	1	BANKER	84	n/a	n/a	1	n/a	0	0	0	0.57763671875	0.412841796875	1	lower	zerothre.ttf
2631.638	n/a	START	1315819	n/a	LTP144	ltpFR	11	n/a	n/a	n/a	n/a	n/a	n/a	n/a	n/a	n/a	n/a	n/a	n/a	n/a	n/a	n/a	n/a
2632.76	n/a	PROB	1316380	n/a	LTP144	ltpFR	11	n/a	n/a	n/a	n/a	n/a	n/a	n/a	16	5	6	5	n/a	n/a	n/a	n/a	n/a
2634.434	n/a	PROB	1317217	n/a	LTP144	ltpFR	11	n/a	n/a	n/a	n/a	n/a	n/a	n/a	14	4	8	2	n/a	n/a	n/a	n/a	n/a
2636.522	n/a	PROB	1318261	n/a	LTP144	ltpFR	11	n/a	n/a	n/a	n/a	n/a	n/a	n/a	9	1	1	1	n/a	n/a	n/a	n/a	n/a
2638.188	n/a	PROB	1319094	n/a	LTP144	ltpFR	11	n/a	n/a	n/a	n/a	n/a	n/a	n/a	10	1	1	8	n/a	n/a	n/a	n/a	n/a
2641.934	n/a	PROB	1320967	n/a	LTP144	ltpFR	11	n/a	n/a	n/a	n/a	n/a	n/a	n/a	15	7	5	3	n/a	n/a	n/a	n/a	n/a
2647.638	n/a	STOP	1323819	n/a	LTP144	ltpFR	11	n/a	n/a	n/a	n/a	n/a	n/a	n/a	n/a	n/a	n/a	n/a	n/a	n/a	n/a	n/a	n/a
2648.826	n/a	WORD	1324413	wordpools/wasnorm_wordpool.txt	LTP144	ltpFR	11	8	1	ELM	527	n/a	n/a	1	n/a	0	0	0	0.57763671875	0.412841796875	1	lower	zerothre.ttf
2651.832	n/a	START	1325916	n/a	LTP144	ltpFR	11	n/a	n/a	n/a	n/a	n/a	n/a	n/a	n/a	n/a	n/a	n/a	n/a	n/a	n/a	n/a	n/a
2652.688	n/a	PROB	1326344	n/a	LTP144	ltpFR	11	n/a	n/a	n/a	n/a	n/a	n/a	n/a	21	9	8	4	n/a	n/a	n/a	n/a	n/a
2656.35	n/a	PROB	1328175	n/a	LTP144	ltpFR	11	n/a	n/a	n/a	n/a	n/a	n/a	n/a	9	4	2	3	n/a	n/a	n/a	n/a	n/a
2658.898	n/a	PROB	1329449	n/a	LTP144	ltpFR	11	n/a	n/a	n/a	n/a	n/a	n/a	n/a	10	3	6	1	n/a	n/a	n/a	n/a	n/a
2660.796	n/a	PROB	1330398	n/a	LTP144	ltpFR	11	n/a	n/a	n/a	n/a	n/a	n/a	n/a	14	6	6	2	n/a	n/a	n/a	n/a	n/a
2662.926	n/a	PROB	1331463	n/a	LTP144	ltpFR	11	n/a	n/a	n/a	n/a	n/a	n/a	n/a	18	4	6	8	n/a	n/a	n/a	n/a	n/a
2664.966	n/a	PROB	1332483	n/a	LTP144	ltpFR	11	n/a	n/a	n/a	n/a	n/a	n/a	n/a	14	2	7	5	n/a	n/a	n/a	n/a	n/a
2666.822	n/a	STOP	1333411	n/a	LTP144	ltpFR	11	n/a	n/a	n/a	n/a	n/a	n/a	n/a	n/a	n/a	n/a	n/a	n/a	n/a	n/a	n/a	n/a
2668.986	n/a	WORD	1334493	wordpools/wasnorm_wordpool.txt	LTP144	ltpFR	11	8	1	BASEBALL	93	n/a	n/a	0	n/a	0	0	0	0.57763671875	0.412841796875	1	lower	zerothre.ttf
2671.992	n/a	START	1335996	n/a	LTP144	ltpFR	11	n/a	n/a	n/a	n/a	n/a	n/a	n/a	n/a	n/a	n/a	n/a	n/a	n/a	n/a	n/a	n/a
2673.19	n/a	PROB	1336595	n/a	LTP144	ltpFR	11	n/a	n/a	n/a	n/a	n/a	n/a	n/a	6	2	2	2	n/a	n/a	n/a	n/a	n/a
2674.58	n/a	PROB	1337290	n/a	LTP144	ltpFR	11	n/a	n/a	n/a	n/a	n/a	n/a	n/a	17	5	8	4	n/a	n/a	n/a	n/a	n/a
2677.318	n/a	PROB	1338659	n/a	LTP144	ltpFR	11	n/a	n/a	n/a	n/a	n/a	n/a	n/a	11	3	3	5	n/a	n/a	n/a	n/a	n/a
2679.548	n/a	PROB	1339774	n/a	LTP144	ltpFR	11	n/a	n/a	n/a	n/a	n/a	n/a	n/a	13	3	7	3	n/a	n/a	n/a	n/a	n/a
2681.206	n/a	PROB	1340603	n/a	LTP144	ltpFR	11	n/a	n/a	n/a	n/a	n/a	n/a	n/a	19	7	9	3	n/a	n/a	n/a	n/a	n/a
2683.986	n/a	PROB	1341993	n/a	LTP144	ltpFR	11	n/a	n/a	n/a	n/a	n/a	n/a	n/a	7	3	2	2	n/a	n/a	n/a	n/a	n/a
2686.694	n/a	STOP	1343347	n/a	LTP144	ltpFR	11	n/a	n/a	n/a	n/a	n/a	n/a	n/a	n/a	n/a	n/a	n/a	n/a	n/a	n/a	n/a	n/a
2689.122	n/a	WORD	1344561	wordpools/wasnorm_wordpool.txt	LTP144	ltpFR	11	8	1	PENGUIN	1044	n/a	n/a	1	n/a	0	0	0	0.57763671875	0.412841796875	1	lower	zerothre.ttf
2692.128	n/a	START	1346064	n/a	LTP144	ltpFR	11	n/a	n/a	n/a	n/a	n/a	n/a	n/a	n/a	n/a	n/a	n/a	n/a	n/a	n/a	n/a	n/a
2693.092	n/a	PROB	1346546	n/a	LTP144	ltpFR	11	n/a	n/a	n/a	n/a	n/a	n/a	n/a	16	6	3	7	n/a	n/a	n/a	n/a	n/a
2695.198	n/a	PROB	1347599	n/a	LTP144	ltpFR	11	n/a	n/a	n/a	n/a	n/a	n/a	n/a	17	5	9	3	n/a	n/a	n/a	n/a	n/a
2699.152	n/a	PROB	1349576	n/a	LTP144	ltpFR	11	n/a	n/a	n/a	n/a	n/a	n/a	n/a	16	9	2	5	n/a	n/a	n/a	n/a	n/a
2702.34	n/a	PROB	1351170	n/a	LTP144	ltpFR	11	n/a	n/a	n/a	n/a	n/a	n/a	n/a	15	1	8	6	n/a	n/a	n/a	n/a	n/a
2705.36	n/a	PROB	1352680	n/a	LTP144	ltpFR	11	n/a	n/a	n/a	n/a	n/a	n/a	n/a	6	3	1	2	n/a	n/a	n/a	n/a	n/a
2707.574	n/a	STOP	1353787	n/a	LTP144	ltpFR	11	n/a	n/a	n/a	n/a	n/a	n/a	n/a	n/a	n/a	n/a	n/a	n/a	n/a	n/a	n/a	n/a
2708.998	n/a	WORD	1354499	wordpools/wasnorm_wordpool.txt	LTP144	ltpFR	11	8	1	RODENT	1204	n/a	n/a	1	n/a	0	0	0	0.57763671875	0.412841796875	1	lower	zerothre.ttf
2712.004	n/a	START	1356002	n/a	LTP144	ltpFR	11	n/a	n/a	n/a	n/a	n/a	n/a	n/a	n/a	n/a	n/a	n/a	n/a	n/a	n/a	n/a	n/a
2713.178	n/a	PROB	1356589	n/a	LTP144	ltpFR	11	n/a	n/a	n/a	n/a	n/a	n/a	n/a	20	9	6	5	n/a	n/a	n/a	n/a	n/a
2717.888	n/a	PROB	1358944	n/a	LTP144	ltpFR	11	n/a	n/a	n/a	n/a	n/a	n/a	n/a	22	7	7	8	n/a	n/a	n/a	n/a	n/a
2721.958	n/a	PROB	1360979	n/a	LTP144	ltpFR	11	n/a	n/a	n/a	n/a	n/a	n/a	n/a	15	6	3	6	n/a	n/a	n/a	n/a	n/a
2723.872	n/a	PROB	1361936	n/a	LTP144	ltpFR	11	n/a	n/a	n/a	n/a	n/a	n/a	n/a	14	3	3	8	n/a	n/a	n/a	n/a	n/a
2727.368	n/a	STOP	1363684	n/a	LTP144	ltpFR	11	n/a	n/a	n/a	n/a	n/a	n/a	n/a	n/a	n/a	n/a	n/a	n/a	n/a	n/a	n/a	n/a
2728.818	n/a	WORD	1364409	wordpools/wasnorm_wordpool.txt	LTP144	ltpFR	11	8	1	SCREW	1254	n/a	n/a	0	n/a	0	0	0	0.57763671875	0.412841796875	1	lower	zerothre.ttf
2731.824	n/a	START	1365912	n/a	LTP144	ltpFR	11	n/a	n/a	n/a	n/a	n/a	n/a	n/a	n/a	n/a	n/a	n/a	n/a	n/a	n/a	n/a	n/a
2732.722	n/a	PROB	1366361	n/a	LTP144	ltpFR	11	n/a	n/a	n/a	n/a	n/a	n/a	n/a	16	6	6	4	n/a	n/a	n/a	n/a	n/a
2734.586	n/a	PROB	1367293	n/a	LTP144	ltpFR	11	n/a	n/a	n/a	n/a	n/a	n/a	n/a	17	4	7	6	n/a	n/a	n/a	n/a	n/a
2739.488	n/a	PROB	1369744	n/a	LTP144	ltpFR	11	n/a	n/a	n/a	n/a	n/a	n/a	n/a	15	3	3	9	n/a	n/a	n/a	n/a	n/a
2742.636	n/a	PROB	1371318	n/a	LTP144	ltpFR	11	n/a	n/a	n/a	n/a	n/a	n/a	n/a	18	7	8	3	n/a	n/a	n/a	n/a	n/a
2744.334	n/a	PROB	1372167	n/a	LTP144	ltpFR	11	n/a	n/a	n/a	n/a	n/a	n/a	n/a	12	7	4	1	n/a	n/a	n/a	n/a	n/a
2747.28	n/a	STOP	1373640	n/a	LTP144	ltpFR	11	n/a	n/a	n/a	n/a	n/a	n/a	n/a	n/a	n/a	n/a	n/a	n/a	n/a	n/a	n/a	n/a
2748.686	n/a	WORD	1374343	wordpools/wasnorm_wordpool.txt	LTP144	ltpFR	11	8	1	COSTUME	383	n/a	n/a	0	n/a	0	0	0	0.57763671875	0.412841796875	1	lower	zerothre.ttf
2751.692	n/a	START	1375846	n/a	LTP144	ltpFR	11	n/a	n/a	n/a	n/a	n/a	n/a	n/a	n/a	n/a	n/a	n/a	n/a	n/a	n/a	n/a	n/a
2752.674	n/a	PROB	1376337	n/a	LTP144	ltpFR	11	n/a	n/a	n/a	n/a	n/a	n/a	n/a	20	5	6	9	n/a	n/a	n/a	n/a	n/a
2758.35	n/a	PROB	1379175	n/a	LTP144	ltpFR	11	n/a	n/a	n/a	n/a	n/a	n/a	n/a	6	2	2	2	n/a	n/a	n/a	n/a	n/a
2759.508	n/a	PROB	1379754	n/a	LTP144	ltpFR	11	n/a	n/a	n/a	n/a	n/a	n/a	n/a	22	9	5	8	n/a	n/a	n/a	n/a	n/a
2767.692	n/a	STOP	1383846	n/a	LTP144	ltpFR	11	n/a	n/a	n/a	n/a	n/a	n/a	n/a	n/a	n/a	n/a	n/a	n/a	n/a	n/a	n/a	n/a
2768.514	n/a	WORD	1384257	wordpools/wasnorm_wordpool.txt	LTP144	ltpFR	11	8	1	ROBE	1198	n/a	n/a	0	n/a	0	0	0	0.57763671875	0.412841796875	1	lower	zerothre.ttf
2771.518	n/a	START	1385759	n/a	LTP144	ltpFR	11	n/a	n/a	n/a	n/a	n/a	n/a	n/a	n/a	n/a	n/a	n/a	n/a	n/a	n/a	n/a	n/a
2772.458	n/a	PROB	1386229	n/a	LTP144	ltpFR	11	n/a	n/a	n/a	n/a	n/a	n/a	n/a	7	3	2	2	n/a	n/a	n/a	n/a	n/a
2775.664	n/a	PROB	1387832	n/a	LTP144	ltpFR	11	n/a	n/a	n/a	n/a	n/a	n/a	n/a	14	6	2	6	n/a	n/a	n/a	n/a	n/a
2777.744	n/a	PROB	1388872	n/a	LTP144	ltpFR	11	n/a	n/a	n/a	n/a	n/a	n/a	n/a	8	3	3	2	n/a	n/a	n/a	n/a	n/a
2779.876	n/a	PROB	1389938	n/a	LTP144	ltpFR	11	n/a	n/a	n/a	n/a	n/a	n/a	n/a	22	9	6	7	n/a	n/a	n/a	n/a	n/a
2784.138	n/a	PROB	1392069	n/a	LTP144	ltpFR	11	n/a	n/a	n/a	n/a	n/a	n/a	n/a	5	1	2	2	n/a	n/a	n/a	n/a	n/a
2787.518	n/a	STOP	1393759	n/a	LTP144	ltpFR	11	n/a	n/a	n/a	n/a	n/a	n/a	n/a	n/a	n/a	n/a	n/a	n/a	n/a	n/a	n/a	n/a
2789.364	n/a	REC_START	1394682	n/a	LTP144	ltpFR	11	8	n/a	n/a	n/a	n/a	n/a	n/a	n/a	0	0	0	n/a	n/a	n/a	n/a	n/a
2791.2	n/a	REC_WORD	1395600	wordpools/wasnorm_wordpool.txt	LTP144	ltpFR	11	8	1	COSTUME	383	n/a	n/a	0	n/a	0	0	0	n/a	n/a	n/a	n/a	n/a
2791.974	n/a	REC_WORD	1395987	wordpools/wasnorm_wordpool.txt	LTP144	ltpFR	11	8	1	ROBE	1198	n/a	n/a	0	n/a	0	0	0	n/a	n/a	n/a	n/a	n/a
2794.996	n/a	REC_WORD	1397498	wordpools/wasnorm_wordpool.txt	LTP144	ltpFR	11	8	1	BOMB	147	n/a	n/a	0	n/a	0	0	0	n/a	n/a	n/a	n/a	n/a
2795.664	n/a	REC_WORD	1397832	wordpools/wasnorm_wordpool.txt	LTP144	ltpFR	11	8	1	CATCHER	258	n/a	n/a	0	n/a	0	0	0	n/a	n/a	n/a	n/a	n/a
2796.348	n/a	REC_WORD	1398174	wordpools/wasnorm_wordpool.txt	LTP144	ltpFR	11	8	1	ATOM	55	n/a	n/a	0	n/a	0	0	0	n/a	n/a	n/a	n/a	n/a
2798.772	n/a	REC_WORD	1399386	wordpools/wasnorm_wordpool.txt	LTP144	ltpFR	11	8	1	CAT	257	n/a	n/a	1	n/a	0	0	0	n/a	n/a	n/a	n/a	n/a
2799.316	n/a	REC_WORD	1399658	wordpools/wasnorm_wordpool.txt	LTP144	ltpFR	11	8	1	BRANCH	168	n/a	n/a	1	n/a	0	0	0	n/a	n/a	n/a	n/a	n/a
2800.32	n/a	REC_WORD	1400160	wordpools/wasnorm_wordpool.txt	LTP144	ltpFR	11	8	1	ELM	527	n/a	n/a	1	n/a	0	0	0	n/a	n/a	n/a	n/a	n/a
2861.038	n/a	REC_WORD	1430519	wordpools/wasnorm_wordpool.txt	LTP144	ltpFR	11	8	1	CRAB	397	n/a	n/a	1	n/a	0	0	0	n/a	n/a	n/a	n/a	n/a
2948.966	n/a	START	1474483	n/a	LTP144	ltpFR	11	n/a	n/a	n/a	n/a	n/a	n/a	n/a	n/a	n/a	n/a	n/a	n/a	n/a	n/a	n/a	n/a
2950.472	n/a	PROB	1475236	n/a	LTP144	ltpFR	11	n/a	n/a	n/a	n/a	n/a	n/a	n/a	15	2	5	8	n/a	n/a	n/a	n/a	n/a
2953.436	n/a	PROB	1476718	n/a	LTP144	ltpFR	11	n/a	n/a	n/a	n/a	n/a	n/a	n/a	13	8	1	4	n/a	n/a	n/a	n/a	n/a
2955.514	n/a	STOP	1477757	n/a	LTP144	ltpFR	11	n/a	n/a	n/a	n/a	n/a	n/a	n/a	n/a	n/a	n/a	n/a	n/a	n/a	n/a	n/a	n/a
2957.83	n/a	WORD	1478915	wordpools/wasnorm_wordpool.txt	LTP144	ltpFR	11	9	1	JET	756	n/a	n/a	0	n/a	0	0	0	0.57763671875	0.412841796875	1	lower	zerothre.ttf
2960.836	n/a	START	1480418	n/a	LTP144	ltpFR	11	n/a	n/a	n/a	n/a	n/a	n/a	n/a	n/a	n/a	n/a	n/a	n/a	n/a	n/a	n/a	n/a
2961.734	n/a	PROB	1480867	n/a	LTP144	ltpFR	11	n/a	n/a	n/a	n/a	n/a	n/a	n/a	16	3	8	5	n/a	n/a	n/a	n/a	n/a
2964.522	n/a	PROB	1482261	n/a	LTP144	ltpFR	11	n/a	n/a	n/a	n/a	n/a	n/a	n/a	20	5	6	9	n/a	n/a	n/a	n/a	n/a
2968.836	n/a	STOP	1484418	n/a	LTP144	ltpFR	11	n/a	n/a	n/a	n/a	n/a	n/a	n/a	n/a	n/a	n/a	n/a	n/a	n/a	n/a	n/a	n/a
2969.774	n/a	WORD	1484887	wordpools/wasnorm_wordpool.txt	LTP144	ltpFR	11	9	1	ROACH	1195	n/a	n/a	0	n/a	0	0	0	0.57763671875	0.412841796875	1	lower	zerothre.ttf
2972.78	n/a	START	1486390	n/a	LTP144	ltpFR	11	n/a	n/a	n/a	n/a	n/a	n/a	n/a	n/a	n/a	n/a	n/a	n/a	n/a	n/a	n/a	n/a
2973.596	n/a	PROB	1486798	n/a	LTP144	ltpFR	11	n/a	n/a	n/a	n/a	n/a	n/a	n/a	12	3	7	2	n/a	n/a	n/a	n/a	n/a
2975.802	n/a	PROB	1487901	n/a	LTP144	ltpFR	11	n/a	n/a	n/a	n/a	n/a	n/a	n/a	15	9	2	4	n/a	n/a	n/a	n/a	n/a
2979.818	n/a	STOP	1489909	n/a	LTP144	ltpFR	11	n/a	n/a	n/a	n/a	n/a	n/a	n/a	n/a	n/a	n/a	n/a	n/a	n/a	n/a	n/a	n/a
2981.87	n/a	WORD	1490935	wordpools/wasnorm_wordpool.txt	LTP144	ltpFR	11	9	1	RECEIPT	1173	n/a	n/a	0	n/a	0	0	0	0.57763671875	0.412841796875	1	lower	zerothre.ttf
2984.874	n/a	START	1492437	n/a	LTP144	ltpFR	11	n/a	n/a	n/a	n/a	n/a	n/a	n/a	n/a	n/a	n/a	n/a	n/a	n/a	n/a	n/a	n/a
2985.914	n/a	PROB	1492957	n/a	LTP144	ltpFR	11	n/a	n/a	n/a	n/a	n/a	n/a	n/a	22	9	4	9	n/a	n/a	n/a	n/a	n/a
2990.626	n/a	PROB	1495313	n/a	LTP144	ltpFR	11	n/a	n/a	n/a	n/a	n/a	n/a	n/a	13	4	6	3	n/a	n/a	n/a	n/a	n/a
2992.586	n/a	STOP	1496293	n/a	LTP144	ltpFR	11	n/a	n/a	n/a	n/a	n/a	n/a	n/a	n/a	n/a	n/a	n/a	n/a	n/a	n/a	n/a	n/a
2993.788	n/a	WORD	1496894	wordpools/wasnorm_wordpool.txt	LTP144	ltpFR	11	9	1	STORE	1387	n/a	n/a	0	n/a	0	0	0	0.57763671875	0.412841796875	1	lower	zerothre.ttf
2996.794	n/a	START	1498397	n/a	LTP144	ltpFR	11	n/a	n/a	n/a	n/a	n/a	n/a	n/a	n/a	n/a	n/a	n/a	n/a	n/a	n/a	n/a	n/a
2997.826	n/a	PROB	1498913	n/a	LTP144	ltpFR	11	n/a	n/a	n/a	n/a	n/a	n/a	n/a	12	2	2	8	n/a	n/a	n/a	n/a	n/a
3000.248	n/a	PROB	1500124	n/a	LTP144	ltpFR	11	n/a	n/a	n/a	n/a	n/a	n/a	n/a	12	3	6	3	n/a	n/a	n/a	n/a	n/a
3003.658	n/a	STOP	1501829	n/a	LTP144	ltpFR	11	n/a	n/a	n/a	n/a	n/a	n/a	n/a	n/a	n/a	n/a	n/a	n/a	n/a	n/a	n/a	n/a
3006.0	n/a	WORD	1503000	wordpools/wasnorm_wordpool.txt	LTP144	ltpFR	11	9	1	ORANGE	980	n/a	n/a	1	n/a	0	0	0	0.57763671875	0.412841796875	1	lower	zerothre.ttf
3009.004	n/a	START	1504502	n/a	LTP144	ltpFR	11	n/a	n/a	n/a	n/a	n/a	n/a	n/a	n/a	n/a	n/a	n/a	n/a	n/a	n/a	n/a	n/a
3009.946	n/a	PROB	1504973	n/a	LTP144	ltpFR	11	n/a	n/a	n/a	n/a	n/a	n/a	n/a	16	5	2	9	n/a	n/a	n/a	n/a	n/a
3012.35	n/a	PROB	1506175	n/a	LTP144	ltpFR	11	n/a	n/a	n/a	n/a	n/a	n/a	n/a	19	7	7	5	n/a	n/a	n/a	n/a	n/a
3016.602	n/a	STOP	1508301	n/a	LTP144	ltpFR	11	n/a	n/a	n/a	n/a	n/a	n/a	n/a	n/a	n/a	n/a	n/a	n/a	n/a	n/a	n/a	n/a
3018.094	n/a	WORD	1509047	wordpools/wasnorm_wordpool.txt	LTP144	ltpFR	11	9	1	BUG	187	n/a	n/a	1	n/a	0	0	0	0.57763671875	0.412841796875	1	lower	zerothre.ttf
3021.1	n/a	START	1510550	n/a	LTP144	ltpFR	11	n/a	n/a	n/a	n/a	n/a	n/a	n/a	n/a	n/a	n/a	n/a	n/a	n/a	n/a	n/a	n/a
3022.124	n/a	PROB	1511062	n/a	LTP144	ltpFR	11	n/a	n/a	n/a	n/a	n/a	n/a	n/a	3	1	1	1	n/a	n/a	n/a	n/a	n/a
3023.812	n/a	PROB	1511906	n/a	LTP144	ltpFR	11	n/a	n/a	n/a	n/a	n/a	n/a	n/a	19	4	6	9	n/a	n/a	n/a	n/a	n/a
3025.328	n/a	PROB	1512664	n/a	LTP144	ltpFR	11	n/a	n/a	n/a	n/a	n/a	n/a	n/a	8	2	2	6	n/a	n/a	n/a	n/a	n/a
3029.102	n/a	STOP	1514551	n/a	LTP144	ltpFR	11	n/a	n/a	n/a	n/a	n/a	n/a	n/a	n/a	n/a	n/a	n/a	n/a	n/a	n/a	n/a	n/a
3030.124	n/a	WORD	1515062	wordpools/wasnorm_wordpool.txt	LTP144	ltpFR	11	9	1	SPOOL	1356	n/a	n/a	0	n/a	0	0	0	0.57763671875	0.412841796875	1	lower	zerothre.ttf
3033.13	n/a	START	1516565	n/a	LTP144	ltpFR	11	n/a	n/a	n/a	n/a	n/a	n/a	n/a	n/a	n/a	n/a	n/a	n/a	n/a	n/a	n/a	n/a
3034.318	n/a	PROB	1517159	n/a	LTP144	ltpFR	11	n/a	n/a	n/a	n/a	n/a	n/a	n/a	15	2	8	5	n/a	n/a	n/a	n/a	n/a
3036.216	n/a	PROB	1518108	n/a	LTP144	ltpFR	11	n/a	n/a	n/a	n/a	n/a	n/a	n/a	10	2	4	4	n/a	n/a	n/a	n/a	n/a
3041.128	n/a	STOP	1520564	n/a	LTP144	ltpFR	11	n/a	n/a	n/a	n/a	n/a	n/a	n/a	n/a	n/a	n/a	n/a	n/a	n/a	n/a	n/a	n/a
3042.234	n/a	WORD	1521117	wordpools/wasnorm_wordpool.txt	LTP144	ltpFR	11	9	1	NEEDLE	941	n/a	n/a	0	n/a	0	0	0	0.57763671875	0.412841796875	1	lower	zerothre.ttf
3045.238	n/a	START	1522619	n/a	LTP144	ltpFR	11	n/a	n/a	n/a	n/a	n/a	n/a	n/a	n/a	n/a	n/a	n/a	n/a	n/a	n/a	n/a	n/a
3046.188	n/a	PROB	1523094	n/a	LTP144	ltpFR	11	n/a	n/a	n/a	n/a	n/a	n/a	n/a	17	9	3	5	n/a	n/a	n/a	n/a	n/a
3053.238	n/a	STOP	1526619	n/a	LTP144	ltpFR	11	n/a	n/a	n/a	n/a	n/a	n/a	n/a	n/a	n/a	n/a	n/a	n/a	n/a	n/a	n/a	n/a
3054.188	n/a	WORD	1527094	wordpools/wasnorm_wordpool.txt	LTP144	ltpFR	11	9	1	HONEY	713	n/a	n/a	0	n/a	0	0	0	0.57763671875	0.412841796875	1	lower	zerothre.ttf
3057.192	n/a	START	1528596	n/a	LTP144	ltpFR	11	n/a	n/a	n/a	n/a	n/a	n/a	n/a	n/a	n/a	n/a	n/a	n/a	n/a	n/a	n/a	n/a
3058.174	n/a	PROB	1529087	n/a	LTP144	ltpFR	11	n/a	n/a	n/a	n/a	n/a	n/a	n/a	14	2	3	9	n/a	n/a	n/a	n/a	n/a
3061.744	n/a	PROB	1530872	n/a	LTP144	ltpFR	11	n/a	n/a	n/a	n/a	n/a	n/a	n/a	16	5	2	9	n/a	n/a	n/a	n/a	n/a
3064.124	n/a	STOP	1532062	n/a	LTP144	ltpFR	11	n/a	n/a	n/a	n/a	n/a	n/a	n/a	n/a	n/a	n/a	n/a	n/a	n/a	n/a	n/a	n/a
3066.082	n/a	WORD	1533041	wordpools/wasnorm_wordpool.txt	LTP144	ltpFR	11	9	1	SWATTER	1418	n/a	n/a	0	n/a	0	0	0	0.57763671875	0.412841796875	1	lower	zerothre.ttf
3069.088	n/a	START	1534544	n/a	LTP144	ltpFR	11	n/a	n/a	n/a	n/a	n/a	n/a	n/a	n/a	n/a	n/a	n/a	n/a	n/a	n/a	n/a	n/a
3070.102	n/a	PROB	1535051	n/a	LTP144	ltpFR	11	n/a	n/a	n/a	n/a	n/a	n/a	n/a	9	6	2	1	n/a	n/a	n/a	n/a	n/a
3073.764	n/a	PROB	1536882	n/a	LTP144	ltpFR	11	n/a	n/a	n/a	n/a	n/a	n/a	n/a	14	6	1	7	n/a	n/a	n/a	n/a	n/a
3076.908	n/a	STOP	1538454	n/a	LTP144	ltpFR	11	n/a	n/a	n/a	n/a	n/a	n/a	n/a	n/a	n/a	n/a	n/a	n/a	n/a	n/a	n/a	n/a
3077.926	n/a	WORD	1538963	wordpools/wasnorm_wordpool.txt	LTP144	ltpFR	11	9	1	POET	1095	n/a	n/a	1	n/a	0	0	0	0.57763671875	0.412841796875	1	lower	zerothre.ttf
3080.93	n/a	START	1540465	n/a	LTP144	ltpFR	11	n/a	n/a	n/a	n/a	n/a	n/a	n/a	n/a	n/a	n/a	n/a	n/a	n/a	n/a	n/a	n/a
3081.83	n/a	PROB	1540915	n/a	LTP144	ltpFR	11	n/a	n/a	n/a	n/a	n/a	n/a	n/a	20	9	9	2	n/a	n/a	n/a	n/a	n/a
3083.578	n/a	PROB	1541789	n/a	LTP144	ltpFR	11	n/a	n/a	n/a	n/a	n/a	n/a	n/a	11	3	7	1	n/a	n/a	n/a	n/a	n/a
3085.052	n/a	PROB	1542526	n/a	LTP144	ltpFR	11	n/a	n/a	n/a	n/a	n/a	n/a	n/a	9	4	1	4	n/a	n/a	n/a	n/a	n/a
3088.93	n/a	STOP	1544465	n/a	LTP144	ltpFR	11	n/a	n/a	n/a	n/a	n/a	n/a	n/a	n/a	n/a	n/a	n/a	n/a	n/a	n/a	n/a	n/a
3089.836	n/a	WORD	1544918	wordpools/wasnorm_wordpool.txt	LTP144	ltpFR	11	9	1	GLASSES	640	n/a	n/a	0	n/a	0	0	0	0.57763671875	0.412841796875	1	lower	zerothre.ttf
3092.842	n/a	START	1546421	n/a	LTP144	ltpFR	11	n/a	n/a	n/a	n/a	n/a	n/a	n/a	n/a	n/a	n/a	n/a	n/a	n/a	n/a	n/a	n/a
3093.65	n/a	PROB	1546825	n/a	LTP144	ltpFR	11	n/a	n/a	n/a	n/a	n/a	n/a	n/a	20	6	9	5	n/a	n/a	n/a	n/a	n/a
3098.818	n/a	PROB	1549409	n/a	LTP144	ltpFR	11	n/a	n/a	n/a	n/a	n/a	n/a	n/a	19	9	9	1	n/a	n/a	n/a	n/a	n/a
3100.724	n/a	STOP	1550362	n/a	LTP144	ltpFR	11	n/a	n/a	n/a	n/a	n/a	n/a	n/a	n/a	n/a	n/a	n/a	n/a	n/a	n/a	n/a	n/a
3101.848	n/a	WORD	1550924	wordpools/wasnorm_wordpool.txt	LTP144	ltpFR	11	9	1	DEPARTMENT	449	n/a	n/a	0	n/a	0	0	0	0.57763671875	0.412841796875	1	lower	zerothre.ttf
3104.854	n/a	START	1552427	n/a	LTP144	ltpFR	11	n/a	n/a	n/a	n/a	n/a	n/a	n/a	n/a	n/a	n/a	n/a	n/a	n/a	n/a	n/a	n/a
3105.662	n/a	PROB	1552831	n/a	LTP144	ltpFR	11	n/a	n/a	n/a	n/a	n/a	n/a	n/a	23	9	8	5	n/a	n/a	n/a	n/a	n/a
3110.248	n/a	PROB	1555124	n/a	LTP144	ltpFR	11	n/a	n/a	n/a	n/a	n/a	n/a	n/a	13	2	7	4	n/a	n/a	n/a	n/a	n/a
3112.716	n/a	STOP	1556358	n/a	LTP144	ltpFR	11	n/a	n/a	n/a	n/a	n/a	n/a	n/a	n/a	n/a	n/a	n/a	n/a	n/a	n/a	n/a	n/a
3113.844	n/a	WORD	1556922	wordpools/wasnorm_wordpool.txt	LTP144	ltpFR	11	9	1	AGENT	10	n/a	n/a	1	n/a	0	0	0	0.57763671875	0.412841796875	1	lower	zerothre.ttf
3116.848	n/a	START	1558424	n/a	LTP144	ltpFR	11	n/a	n/a	n/a	n/a	n/a	n/a	n/a	n/a	n/a	n/a	n/a	n/a	n/a	n/a	n/a	n/a
3117.822	n/a	PROB	1558911	n/a	LTP144	ltpFR	11	n/a	n/a	n/a	n/a	n/a	n/a	n/a	12	1	8	3	n/a	n/a	n/a	n/a	n/a
3120.154	n/a	PROB	1560077	n/a	LTP144	ltpFR	11	n/a	n/a	n/a	n/a	n/a	n/a	n/a	12	9	1	2	n/a	n/a	n/a	n/a	n/a
3121.918	n/a	PROB	1560959	n/a	LTP144	ltpFR	11	n/a	n/a	n/a	n/a	n/a	n/a	n/a	11	3	1	7	n/a	n/a	n/a	n/a	n/a
3123.604	n/a	STOP	1561802	n/a	LTP144	ltpFR	11	n/a	n/a	n/a	n/a	n/a	n/a	n/a	n/a	n/a	n/a	n/a	n/a	n/a	n/a	n/a	n/a
3125.93	n/a	WORD	1562965	wordpools/wasnorm_wordpool.txt	LTP144	ltpFR	11	9	1	SHEEP	1278	n/a	n/a	1	n/a	0	0	0	0.57763671875	0.412841796875	1	lower	zerothre.ttf
3128.934	n/a	START	1564467	n/a	LTP144	ltpFR	11	n/a	n/a	n/a	n/a	n/a	n/a	n/a	n/a	n/a	n/a	n/a	n/a	n/a	n/a	n/a	n/a
3130.126	n/a	PROB	1565063	n/a	LTP144	ltpFR	11	n/a	n/a	n/a	n/a	n/a	n/a	n/a	15	3	8	4	n/a	n/a	n/a	n/a	n/a
3133.08	n/a	PROB	1566540	n/a	LTP144	ltpFR	11	n/a	n/a	n/a	n/a	n/a	n/a	n/a	19	6	5	8	n/a	n/a	n/a	n/a	n/a
3135.412	n/a	STOP	1567706	n/a	LTP144	ltpFR	11	n/a	n/a	n/a	n/a	n/a	n/a	n/a	n/a	n/a	n/a	n/a	n/a	n/a	n/a	n/a	n/a
3137.958	n/a	WORD	1568979	wordpools/wasnorm_wordpool.txt	LTP144	ltpFR	11	9	1	SUNSET	1408	n/a	n/a	0	n/a	0	0	0	0.57763671875	0.412841796875	1	lower	zerothre.ttf
3140.962	n/a	START	1570481	n/a	LTP144	ltpFR	11	n/a	n/a	n/a	n/a	n/a	n/a	n/a	n/a	n/a	n/a	n/a	n/a	n/a	n/a	n/a	n/a
3142.01	n/a	PROB	1571005	n/a	LTP144	ltpFR	11	n/a	n/a	n/a	n/a	n/a	n/a	n/a	15	9	5	1	n/a	n/a	n/a	n/a	n/a
3144.284	n/a	PROB	1572142	n/a	LTP144	ltpFR	11	n/a	n/a	n/a	n/a	n/a	n/a	n/a	8	1	3	4	n/a	n/a	n/a	n/a	n/a
3145.956	n/a	PROB	1572978	n/a	LTP144	ltpFR	11	n/a	n/a	n/a	n/a	n/a	n/a	n/a	17	3	9	5	n/a	n/a	n/a	n/a	n/a
3148.764	n/a	STOP	1574382	n/a	LTP144	ltpFR	11	n/a	n/a	n/a	n/a	n/a	n/a	n/a	n/a	n/a	n/a	n/a	n/a	n/a	n/a	n/a	n/a
3150.892	n/a	REC_START	1575446	n/a	LTP144	ltpFR	11	9	n/a	n/a	n/a	n/a	n/a	n/a	n/a	0	0	0	n/a	n/a	n/a	n/a	n/a
3153.412	n/a	REC_WORD	1576706	wordpools/wasnorm_wordpool.txt	LTP144	ltpFR	11	9	1	SUNSET	1408	n/a	n/a	0	n/a	0	0	0	n/a	n/a	n/a	n/a	n/a
3158.574	n/a	REC_WORD	1579287	wordpools/wasnorm_wordpool.txt	LTP144	ltpFR	11	9	1	DEPARTMENT	449	n/a	n/a	0	n/a	0	0	0	n/a	n/a	n/a	n/a	n/a
3159.208	n/a	REC_WORD	1579604	wordpools/wasnorm_wordpool.txt	LTP144	ltpFR	11	9	1	STORE	1387	n/a	n/a	0	n/a	0	0	0	n/a	n/a	n/a	n/a	n/a
3160.68	n/a	REC_WORD	1580340	wordpools/wasnorm_wordpool.txt	LTP144	ltpFR	11	9	1	RECEIPT	1173	n/a	n/a	0	n/a	0	0	0	n/a	n/a	n/a	n/a	n/a
3162.112	n/a	REC_WORD	1581056	wordpools/wasnorm_wordpool.txt	LTP144	ltpFR	11	9	1	ROACH	1195	n/a	n/a	0	n/a	0	0	0	n/a	n/a	n/a	n/a	n/a
3163.024	n/a	REC_WORD	1581512	wordpools/wasnorm_wordpool.txt	LTP144	ltpFR	11	9	1	BUG	187	n/a	n/a	1	n/a	0	0	0	n/a	n/a	n/a	n/a	n/a
3163.554	n/a	REC_WORD	1581777	wordpools/wasnorm_wordpool.txt	LTP144	ltpFR	11	9	1	SWATTER	1418	n/a	n/a	0	n/a	0	0	0	n/a	n/a	n/a	n/a	n/a
3175.784	n/a	REC_WORD	1587892	wordpools/wasnorm_wordpool.txt	LTP144	ltpFR	11	9	1	SPOOL	1356	n/a	n/a	0	n/a	0	0	0	n/a	n/a	n/a	n/a	n/a
3176.898	n/a	REC_WORD	1588449	wordpools/wasnorm_wordpool.txt	LTP144	ltpFR	11	9	1	NEEDLE	941	n/a	n/a	0	n/a	0	0	0	n/a	n/a	n/a	n/a	n/a
3180.426	n/a	REC_WORD	1590213	wordpools/wasnorm_wordpool.txt	LTP144	ltpFR	11	9	1	GLASSES	640	n/a	n/a	0	n/a	0	0	0	n/a	n/a	n/a	n/a	n/a
3186.028	n/a	REC_WORD	1593014	wordpools/wasnorm_wordpool.txt	LTP144	ltpFR	11	9	1	AGENT	10	n/a	n/a	1	n/a	0	0	0	n/a	n/a	n/a	n/a	n/a
3263.746	n/a	WORD	1631873	wordpools/wasnorm_wordpool.txt	LTP144	ltpFR	11	10	0	HOOP	716	n/a	n/a	1	n/a	0	0	0	0.422607421875	0.5869140625	0	upper	amplitud.ttf
3267.758	n/a	WORD	1633879	wordpools/wasnorm_wordpool.txt	LTP144	ltpFR	11	10	0	BULL	193	n/a	n/a	1	n/a	0	0	0	0.422607421875	0.5869140625	0	upper	amplitud.ttf
3271.862	n/a	WORD	1635931	wordpools/wasnorm_wordpool.txt	LTP144	ltpFR	11	10	0	PEARL	1034	n/a	n/a	0	n/a	0	0	0	0.422607421875	0.5869140625	0	upper	amplitud.ttf
3275.916	n/a	WORD	1637958	wordpools/wasnorm_wordpool.txt	LTP144	ltpFR	11	10	0	SCOUT	1252	n/a	n/a	1	n/a	0	0	0	0.422607421875	0.5869140625	0	upper	amplitud.ttf
3280.046	n/a	WORD	1640023	wordpools/wasnorm_wordpool.txt	LTP144	ltpFR	11	10	1	SWEATER	1419	n/a	n/a	0	n/a	0	0	0	0.57763671875	0.412841796875	1	lower	zerothre.ttf
3284.1	n/a	WORD	1642050	wordpools/wasnorm_wordpool.txt	LTP144	ltpFR	11	10	1	SCARF	1246	n/a	n/a	0	n/a	0	0	0	0.57763671875	0.412841796875	1	lower	zerothre.ttf
3288.244	n/a	WORD	1644122	wordpools/wasnorm_wordpool.txt	LTP144	ltpFR	11	10	1	BUTLER	204	n/a	n/a	1	n/a	0	0	0	0.57763671875	0.412841796875	1	lower	zerothre.ttf
3292.396	n/a	WORD	1646198	wordpools/wasnorm_wordpool.txt	LTP144	ltpFR	11	10	1	DIRT	472	n/a	n/a	0	n/a	0	0	0	0.57763671875	0.412841796875	1	lower	zerothre.ttf
3296.276	n/a	WORD	1648138	wordpools/wasnorm_wordpool.txt	LTP144	ltpFR	11	10	1	DISH	474	n/a	n/a	0	n/a	0	0	0	0.57763671875	0.412841796875	1	lower	zerothre.ttf
3300.412	n/a	WORD	1650206	wordpools/wasnorm_wordpool.txt	LTP144	ltpFR	11	10	0	COOKBOOK	373	n/a	n/a	1	n/a	0	0	0	0.422607421875	0.5869140625	0	upper	amplitud.ttf
3304.558	n/a	WORD	1652279	wordpools/wasnorm_wordpool.txt	LTP144	ltpFR	11	10	0	CROCODILE	411	n/a	n/a	1	n/a	0	0	0	0.422607421875	0.5869140625	0	upper	amplitud.ttf
3308.662	n/a	WORD	1654331	wordpools/wasnorm_wordpool.txt	LTP144	ltpFR	11	10	0	UNICORN	1538	n/a	n/a	1	n/a	0	0	0	0.422607421875	0.5869140625	0	upper	amplitud.ttf
3312.548	n/a	WORD	1656274	wordpools/wasnorm_wordpool.txt	LTP144	ltpFR	11	10	0	SADDLE	1221	n/a	n/a	1	n/a	0	0	0	0.422607421875	0.5869140625	0	upper	amplitud.ttf
3316.386	n/a	WORD	1658193	wordpools/wasnorm_wordpool.txt	LTP144	ltpFR	11	10	1	TOY	1492	n/a	n/a	0	n/a	0	0	0	0.57763671875	0.412841796875	1	lower	zerothre.ttf
3320.44	n/a	WORD	1660220	wordpools/wasnorm_wordpool.txt	LTP144	ltpFR	11	10	1	OVAL	990	n/a	n/a	0	n/a	0	0	0	0.57763671875	0.412841796875	1	lower	zerothre.ttf
3324.352	n/a	WORD	1662176	wordpools/wasnorm_wordpool.txt	LTP144	ltpFR	11	10	1	HERD	705	n/a	n/a	1	n/a	0	0	0	0.57763671875	0.412841796875	1	lower	zerothre.ttf
3327.356	n/a	START	1663678	n/a	LTP144	ltpFR	11	n/a	n/a	n/a	n/a	n/a	n/a	n/a	n/a	n/a	n/a	n/a	n/a	n/a	n/a	n/a	n/a
3328.256	n/a	PROB	1664128	n/a	LTP144	ltpFR	11	n/a	n/a	n/a	n/a	n/a	n/a	n/a	18	9	3	6	n/a	n/a	n/a	n/a	n/a
3330.854	n/a	PROB	1665427	n/a	LTP144	ltpFR	11	n/a	n/a	n/a	n/a	n/a	n/a	n/a	15	3	8	4	n/a	n/a	n/a	n/a	n/a
3333.592	n/a	PROB	1666796	n/a	LTP144	ltpFR	11	n/a	n/a	n/a	n/a	n/a	n/a	n/a	13	3	8	2	n/a	n/a	n/a	n/a	n/a
3335.168	n/a	STOP	1667584	n/a	LTP144	ltpFR	11	n/a	n/a	n/a	n/a	n/a	n/a	n/a	n/a	n/a	n/a	n/a	n/a	n/a	n/a	n/a	n/a
3337.214	n/a	REC_START	1668607	n/a	LTP144	ltpFR	11	10	n/a	n/a	n/a	n/a	n/a	n/a	n/a	0	0	0	n/a	n/a	n/a	n/a	n/a
3338.47	n/a	REC_WORD	1669235	wordpools/wasnorm_wordpool.txt	LTP144	ltpFR	11	10	1	OVAL	990	n/a	n/a	0	n/a	0	0	0	n/a	n/a	n/a	n/a	n/a
3339.108	n/a	REC_WORD	1669554	wordpools/wasnorm_wordpool.txt	LTP144	ltpFR	11	10	1	TOY	1492	n/a	n/a	0	n/a	0	0	0	n/a	n/a	n/a	n/a	n/a
3339.598	n/a	REC_WORD	1669799	wordpools/wasnorm_wordpool.txt	LTP144	ltpFR	11	10	0	UNICORN	1538	n/a	n/a	1	n/a	0	0	0	n/a	n/a	n/a	n/a	n/a
3340.4	n/a	REC_WORD	1670200	wordpools/wasnorm_wordpool.txt	LTP144	ltpFR	11	10	0	SADDLE	1221	n/a	n/a	1	n/a	0	0	0	n/a	n/a	n/a	n/a	n/a
3341.12	n/a	REC_WORD	1670560	wordpools/wasnorm_wordpool.txt	LTP144	ltpFR	11	10	1	HERD	705	n/a	n/a	1	n/a	0	0	0	n/a	n/a	n/a	n/a	n/a
3346.448	n/a	REC_WORD	1673224	wordpools/wasnorm_wordpool.txt	LTP144	ltpFR	11	10	1	BUTLER	204	n/a	n/a	1	n/a	0	0	0	n/a	n/a	n/a	n/a	n/a
3347.026	n/a	REC_WORD	1673513	wordpools/wasnorm_wordpool.txt	LTP144	ltpFR	11	10	1	DIRT	472	n/a	n/a	0	n/a	0	0	0	n/a	n/a	n/a	n/a	n/a
3347.584	n/a	REC_WORD	1673792	wordpools/wasnorm_wordpool.txt	LTP144	ltpFR	11	10	1	DISH	474	n/a	n/a	0	n/a	0	0	0	n/a	n/a	n/a	n/a	n/a
3348.886	n/a	REC_WORD	1674443	wordpools/wasnorm_wordpool.txt	LTP144	ltpFR	11	10	1	SCARF	1246	n/a	n/a	0	n/a	0	0	0	n/a	n/a	n/a	n/a	n/a
3349.63	n/a	REC_WORD	1674815	wordpools/wasnorm_wordpool.txt	LTP144	ltpFR	11	10	1	SWEATER	1419	n/a	n/a	0	n/a	0	0	0	n/a	n/a	n/a	n/a	n/a
3351.61	n/a	REC_WORD	1675805	wordpools/wasnorm_wordpool.txt	LTP144	ltpFR	11	10	0	BULL	193	n/a	n/a	1	n/a	0	0	0	n/a	n/a	n/a	n/a	n/a
3352.408	n/a	REC_WORD	1676204	wordpools/wasnorm_wordpool.txt	LTP144	ltpFR	11	10	0	HOOP	716	n/a	n/a	1	n/a	0	0	0	n/a	n/a	n/a	n/a	n/a
3353.422	n/a	REC_WORD	1676711	wordpools/wasnorm_wordpool.txt	LTP144	ltpFR	11	10	0	PEARL	1034	n/a	n/a	0	n/a	0	0	0	n/a	n/a	n/a	n/a	n/a
3412.818	n/a	REST_REWET	1706409	n/a	LTP144	ltpFR	11	10	n/a	n/a	n/a	n/a	n/a	n/a	n/a	0	0	0	n/a	n/a	n/a	n/a	n/a
3777.44	n/a	WORD	1888720	wordpools/wasnorm_wordpool.txt	LTP144	ltpFR	11	11	1	COMMANDER	354	n/a	n/a	1	n/a	0	0	0	0.57763671875	0.412841796875	1	lower	zerothre.ttf
3781.304	n/a	WORD	1890652	wordpools/wasnorm_wordpool.txt	LTP144	ltpFR	11	11	1	VASE	1549	n/a	n/a	0	n/a	0	0	0	0.57763671875	0.412841796875	1	lower	zerothre.ttf
3785.39	n/a	WORD	1892695	wordpools/wasnorm_wordpool.txt	LTP144	ltpFR	11	11	1	TRIGGER	1507	n/a	n/a	0	n/a	0	0	0	0.57763671875	0.412841796875	1	lower	zerothre.ttf
3789.352	n/a	WORD	1894676	wordpools/wasnorm_wordpool.txt	LTP144	ltpFR	11	11	0	ARMY	39	n/a	n/a	1	n/a	0	0	0	0.422607421875	0.5869140625	0	upper	amplitud.ttf
3793.482	n/a	WORD	1896741	wordpools/wasnorm_wordpool.txt	LTP144	ltpFR	11	11	0	GOLD	647	n/a	n/a	0	n/a	0	0	0	0.422607421875	0.5869140625	0	upper	amplitud.ttf
3797.352	n/a	WORD	1898676	wordpools/wasnorm_wordpool.txt	LTP144	ltpFR	11	11	0	GAZELLE	628	n/a	n/a	1	n/a	0	0	0	0.422607421875	0.5869140625	0	upper	amplitud.ttf
3801.414	n/a	WORD	1900707	wordpools/wasnorm_wordpool.txt	LTP144	ltpFR	11	11	0	TWISTER	1530	n/a	n/a	1	n/a	0	0	0	0.422607421875	0.5869140625	0	upper	amplitud.ttf
3805.342	n/a	WORD	1902671	wordpools/wasnorm_wordpool.txt	LTP144	ltpFR	11	11	1	WIDOW	1608	n/a	n/a	1	n/a	0	0	0	0.57763671875	0.412841796875	1	lower	zerothre.ttf
3809.472	n/a	WORD	1904736	wordpools/wasnorm_wordpool.txt	LTP144	ltpFR	11	11	1	CATTLE	261	n/a	n/a	1	n/a	0	0	0	0.57763671875	0.412841796875	1	lower	zerothre.ttf
3813.492	n/a	WORD	1906746	wordpools/wasnorm_wordpool.txt	LTP144	ltpFR	11	11	1	CALF	222	n/a	n/a	1	n/a	0	0	0	0.57763671875	0.412841796875	1	lower	zerothre.ttf
3817.478	n/a	WORD	1908739	wordpools/wasnorm_wordpool.txt	LTP144	ltpFR	11	11	1	PIKE	1067	n/a	n/a	1	n/a	0	0	0	0.57763671875	0.412841796875	1	lower	zerothre.ttf
3821.424	n/a	WORD	1910712	wordpools/wasnorm_wordpool.txt	LTP144	ltpFR	11	11	1	WHALE	1601	n/a	n/a	1	n/a	0	0	0	0.57763671875	0.412841796875	1	lower	zerothre.ttf
3825.402	n/a	WORD	1912701	wordpools/wasnorm_wordpool.txt	LTP144	ltpFR	11	11	0	SHOVEL	1295	n/a	n/a	1	n/a	0	0	0	0.422607421875	0.5869140625	0	upper	amplitud.ttf
3829.314	n/a	WORD	1914657	wordpools/wasnorm_wordpool.txt	LTP144	ltpFR	11	11	0	CAVITY	264	n/a	n/a	0	n/a	0	0	0	0.422607421875	0.5869140625	0	upper	amplitud.ttf
3833.302	n/a	WORD	1916651	wordpools/wasnorm_wordpool.txt	LTP144	ltpFR	11	11	0	BULLET	194	n/a	n/a	0	n/a	0	0	0	0.422607421875	0.5869140625	0	upper	amplitud.ttf
3837.174	n/a	WORD	1918587	wordpools/wasnorm_wordpool.txt	LTP144	ltpFR	11	11	0	DINOSAUR	469	n/a	n/a	1	n/a	0	0	0	0.422607421875	0.5869140625	0	upper	amplitud.ttf
3842.866	n/a	REC_START	1921433	n/a	LTP144	ltpFR	11	11	n/a	n/a	n/a	n/a	n/a	n/a	n/a	0	0	0	n/a	n/a	n/a	n/a	n/a
3844.742	n/a	REC_WORD	1922371	wordpools/wasnorm_wordpool.txt	LTP144	ltpFR	11	11	0	DINOSAUR	469	n/a	n/a	1	n/a	0	0	0	n/a	n/a	n/a	n/a	n/a
3845.44	n/a	REC_WORD	1922720	wordpools/wasnorm_wordpool.txt	LTP144	ltpFR	11	11	0	BULLET	194	n/a	n/a	0	n/a	0	0	0	n/a	n/a	n/a	n/a	n/a
3845.79	n/a	REC_WORD	1922895	wordpools/wasnorm_wordpool.txt	LTP144	ltpFR	11	11	0	CAVITY	264	n/a	n/a	0	n/a	0	0	0	n/a	n/a	n/a	n/a	n/a
3848.698	n/a	REC_WORD	1924349	wordpools/wasnorm_wordpool.txt	LTP144	ltpFR	11	11	1	WHALE	1601	n/a	n/a	1	n/a	0	0	0	n/a	n/a	n/a	n/a	n/a
3849.406	n/a	REC_WORD	1924703	wordpools/wasnorm_wordpool.txt	LTP144	ltpFR	11	11	1	PIKE	1067	n/a	n/a	1	n/a	0	0	0	n/a	n/a	n/a	n/a	n/a
3850.164	n/a	REC_WORD	1925082	wordpools/wasnorm_wordpool.txt	LTP144	ltpFR	11	11	1	CATTLE	261	n/a	n/a	1	n/a	0	0	0	n/a	n/a	n/a	n/a	n/a
3850.698	n/a	REC_WORD	1925349	wordpools/wasnorm_wordpool.txt	LTP144	ltpFR	11	11	1	CALF	222	n/a	n/a	1	n/a	0	0	0	n/a	n/a	n/a	n/a	n/a
3853.832	n/a	REC_WORD	1926916	wordpools/wasnorm_wordpool.txt	LTP144	ltpFR	11	11	1	COMMANDER	354	n/a	n/a	1	n/a	0	0	0	n/a	n/a	n/a	n/a	n/a
3854.534	n/a	REC_WORD	1927267	wordpools/wasnorm_wordpool.txt	LTP144	ltpFR	11	11	0	ARMY	39	n/a	n/a	1	n/a	0	0	0	n/a	n/a	n/a	n/a	n/a
3856.216	n/a	REC_WORD	1928108	wordpools/wasnorm_wordpool.txt	LTP144	ltpFR	11	11	0	GOLD	647	n/a	n/a	0	n/a	0	0	0	n/a	n/a	n/a	n/a	n/a
3857.794	n/a	REC_WORD	1928897	wordpools/wasnorm_wordpool.txt	LTP144	ltpFR	11	11	1	TRIGGER	1507	n/a	n/a	0	n/a	0	0	0	n/a	n/a	n/a	n/a	n/a
3858.826	n/a	REC_WORD	1929413	wordpools/wasnorm_wordpool.txt	LTP144	ltpFR	11	11	1	VASE	1549	n/a	n/a	0	n/a	0	0	0	n/a	n/a	n/a	n/a	n/a
3894.504	n/a	REC_WORD	1947252	wordpools/wasnorm_wordpool.txt	LTP144	ltpFR	11	11	1	WIDOW	1608	n/a	n/a	1	n/a	0	0	0	n/a	n/a	n/a	n/a	n/a
3928.11	n/a	WORD	1964055	wordpools/wasnorm_wordpool.txt	LTP144	ltpFR	11	12	1	ELECTRICIAN	521	n/a	n/a	1	n/a	0	0	0	0.57763671875	0.412841796875	1	lower	zerothre.ttf
3932.166	n/a	WORD	1966083	wordpools/wasnorm_wordpool.txt	LTP144	ltpFR	11	12	1	FAUCET	555	n/a	n/a	0	n/a	0	0	0	0.57763671875	0.412841796875	1	lower	zerothre.ttf
3936.034	n/a	WORD	1968017	wordpools/wasnorm_wordpool.txt	LTP144	ltpFR	11	12	1	LOBBY	836	n/a	n/a	0	n/a	0	0	0	0.57763671875	0.412841796875	1	lower	zerothre.ttf
3940.19	n/a	WORD	1970095	wordpools/wasnorm_wordpool.txt	LTP144	ltpFR	11	12	1	WALLET	1583	n/a	n/a	0	n/a	0	0	0	0.57763671875	0.412841796875	1	lower	zerothre.ttf
3944.076	n/a	WORD	1972038	wordpools/wasnorm_wordpool.txt	LTP144	ltpFR	11	12	1	DIRECTOR	471	n/a	n/a	1	n/a	0	0	0	0.57763671875	0.412841796875	1	lower	zerothre.ttf
3948.262	n/a	WORD	1974131	wordpools/wasnorm_wordpool.txt	LTP144	ltpFR	11	12	1	SINK	1309	n/a	n/a	0	n/a	0	0	0	0.57763671875	0.412841796875	1	lower	zerothre.ttf
3952.108	n/a	WORD	1976054	wordpools/wasnorm_wordpool.txt	LTP144	ltpFR	11	12	1	PANTHER	1009	n/a	n/a	1	n/a	0	0	0	0.57763671875	0.412841796875	1	lower	zerothre.ttf
3956.146	n/a	WORD	1978073	wordpools/wasnorm_wordpool.txt	LTP144	ltpFR	11	12	1	POSSUM	1112	n/a	n/a	1	n/a	0	0	0	0.57763671875	0.412841796875	1	lower	zerothre.ttf
3960.116	n/a	WORD	1980058	wordpools/wasnorm_wordpool.txt	LTP144	ltpFR	11	12	1	ENGINEER	536	n/a	n/a	1	n/a	0	0	0	0.57763671875	0.412841796875	1	lower	zerothre.ttf
3964.31	n/a	WORD	1982155	wordpools/wasnorm_wordpool.txt	LTP144	ltpFR	11	12	1	POPCORN	1104	n/a	n/a	0	n/a	0	0	0	0.57763671875	0.412841796875	1	lower	zerothre.ttf
3968.348	n/a	WORD	1984174	wordpools/wasnorm_wordpool.txt	LTP144	ltpFR	11	12	1	RACKET	1155	n/a	n/a	0	n/a	0	0	0	0.57763671875	0.412841796875	1	lower	zerothre.ttf
3972.26	n/a	WORD	1986130	wordpools/wasnorm_wordpool.txt	LTP144	ltpFR	11	12	1	LINT	826	n/a	n/a	0	n/a	0	0	0	0.57763671875	0.412841796875	1	lower	zerothre.ttf
3976.314	n/a	WORD	1988157	wordpools/wasnorm_wordpool.txt	LTP144	ltpFR	11	12	1	SEED	1266	n/a	n/a	1	n/a	0	0	0	0.57763671875	0.412841796875	1	lower	zerothre.ttf
3980.144	n/a	WORD	1990072	wordpools/wasnorm_wordpool.txt	LTP144	ltpFR	11	12	1	LILY	821	n/a	n/a	1	n/a	0	0	0	0.57763671875	0.412841796875	1	lower	zerothre.ttf
3984.156	n/a	WORD	1992078	wordpools/wasnorm_wordpool.txt	LTP144	ltpFR	11	12	1	VEST	1559	n/a	n/a	0	n/a	0	0	0	0.57763671875	0.412841796875	1	lower	zerothre.ttf
3988.068	n/a	WORD	1994034	wordpools/wasnorm_wordpool.txt	LTP144	ltpFR	11	12	1	POND	1101	n/a	n/a	0	n/a	0	0	0	0.57763671875	0.412841796875	1	lower	zerothre.ttf
3991.072	n/a	START	1995536	n/a	LTP144	ltpFR	11	n/a	n/a	n/a	n/a	n/a	n/a	n/a	n/a	n/a	n/a	n/a	n/a	n/a	n/a	n/a	n/a
3992.27	n/a	PROB	1996135	n/a	LTP144	ltpFR	11	n/a	n/a	n/a	n/a	n/a	n/a	n/a	10	2	5	3	n/a	n/a	n/a	n/a	n/a
3995.25	n/a	PROB	1997625	n/a	LTP144	ltpFR	11	n/a	n/a	n/a	n/a	n/a	n/a	n/a	9	4	4	1	n/a	n/a	n/a	n/a	n/a
3997.314	n/a	PROB	1998657	n/a	LTP144	ltpFR	11	n/a	n/a	n/a	n/a	n/a	n/a	n/a	10	6	2	2	n/a	n/a	n/a	n/a	n/a
3999.146	n/a	PROB	1999573	n/a	LTP144	ltpFR	11	n/a	n/a	n/a	n/a	n/a	n/a	n/a	21	9	9	3	n/a	n/a	n/a	n/a	n/a
4002.076	n/a	PROB	2001038	n/a	LTP144	ltpFR	11	n/a	n/a	n/a	n/a	n/a	n/a	n/a	9	5	2	2	n/a	n/a	n/a	n/a	n/a
4007.074	n/a	STOP	2003537	n/a	LTP144	ltpFR	11	n/a	n/a	n/a	n/a	n/a	n/a	n/a	n/a	n/a	n/a	n/a	n/a	n/a	n/a	n/a	n/a
4008.902	n/a	REC_START	2004451	n/a	LTP144	ltpFR	11	12	n/a	n/a	n/a	n/a	n/a	n/a	n/a	0	0	0	n/a	n/a	n/a	n/a	n/a
4011.28	n/a	REC_WORD	2005640	wordpools/wasnorm_wordpool.txt	LTP144	ltpFR	11	12	1	LINT	826	n/a	n/a	0	n/a	0	0	0	n/a	n/a	n/a	n/a	n/a
4011.74	n/a	REC_WORD	2005870	wordpools/wasnorm_wordpool.txt	LTP144	ltpFR	11	12	1	SEED	1266	n/a	n/a	1	n/a	0	0	0	n/a	n/a	n/a	n/a	n/a
4012.378	n/a	REC_WORD	2006189	wordpools/wasnorm_wordpool.txt	LTP144	ltpFR	11	12	1	LILY	821	n/a	n/a	1	n/a	0	0	0	n/a	n/a	n/a	n/a	n/a
