onset	duration	trial_type	sample	stim_file	subject	experiment	session	trial	item_name	item_num	list	answer	test_x	test_y	test_z
228.506	n/a	SESS_START	114253	n/a	LTP265	ltpFR2	3	n/a	n/a	n/a	n/a	n/a	0	0	0
244.328	n/a	START	122164	n/a	LTP265	ltpFR2	3	n/a	n/a	n/a	-1	n/a	n/a	n/a	n/a
244.376	n/a	PROB	122188	n/a	LTP265	ltpFR2	3	n/a	n/a	n/a	-1	14	6	2	6
246.228	n/a	PROB	123114	n/a	LTP265	ltpFR2	3	n/a	n/a	n/a	-1	16	4	8	4
248.42	n/a	PROB	124210	n/a	LTP265	ltpFR2	3	n/a	n/a	n/a	-1	20	7	9	4
250.416	n/a	PROB	125208	n/a	LTP265	ltpFR2	3	n/a	n/a	n/a	-1	11	3	7	1
251.654	n/a	PROB	125827	n/a	LTP265	ltpFR2	3	n/a	n/a	n/a	-1	17	7	4	6
253.494	n/a	PROB	126747	n/a	LTP265	ltpFR2	3	n/a	n/a	n/a	-1	22	8	7	7
255.202	n/a	STOP	127601	n/a	LTP265	ltpFR2	3	n/a	n/a	n/a	-1	n/a	n/a	n/a	n/a
295.74	n/a	DISTRACTOR	147870	n/a	LTP265	ltpFR2	3	1	n/a	n/a	n/a	n/a	0	0	0
295.74	n/a	START	147870	n/a	LTP265	ltpFR2	3	n/a	n/a	n/a	1	n/a	n/a	n/a	n/a
295.79	n/a	PROB	147895	n/a	LTP265	ltpFR2	3	n/a	n/a	n/a	1	20	3	8	9
297.53	n/a	PROB	148765	n/a	LTP265	ltpFR2	3	n/a	n/a	n/a	1	8	1	5	2
300.42	n/a	PROB	150210	n/a	LTP265	ltpFR2	3	n/a	n/a	n/a	1	21	3	9	9
302.264	n/a	PROB	151132	n/a	LTP265	ltpFR2	3	n/a	n/a	n/a	1	22	8	5	9
304.636	n/a	PROB	152318	n/a	LTP265	ltpFR2	3	n/a	n/a	n/a	1	20	7	4	9
306.296	n/a	PROB	153148	n/a	LTP265	ltpFR2	3	n/a	n/a	n/a	1	19	8	8	3
307.786	n/a	PROB	153893	n/a	LTP265	ltpFR2	3	n/a	n/a	n/a	1	12	4	1	7
309.224	n/a	PROB	154612	n/a	LTP265	ltpFR2	3	n/a	n/a	n/a	1	17	4	7	6
310.916	n/a	PROB	155458	n/a	LTP265	ltpFR2	3	n/a	n/a	n/a	1	24	9	7	8
312.654	n/a	PROB	156327	n/a	LTP265	ltpFR2	3	n/a	n/a	n/a	1	13	8	4	1
314.362	n/a	PROB	157181	n/a	LTP265	ltpFR2	3	n/a	n/a	n/a	1	11	9	1	1
315.934	n/a	PROB	157967	n/a	LTP265	ltpFR2	3	n/a	n/a	n/a	1	22	8	7	7
317.752	n/a	PROB	158876	n/a	LTP265	ltpFR2	3	n/a	n/a	n/a	1	17	6	4	7
318.968	n/a	STOP	159484	n/a	LTP265	ltpFR2	3	n/a	n/a	n/a	1	n/a	n/a	n/a	n/a
320.768	n/a	WORD	160384	wordpools/wasnorm_wordpool_576.txt	LTP265	ltpFR2	3	1	BUTCHER	203	n/a	n/a	0	0	0
323.446	n/a	WORD	161723	wordpools/wasnorm_wordpool_576.txt	LTP265	ltpFR2	3	1	MASK	876	n/a	n/a	0	0	0
325.922	n/a	WORD	162961	wordpools/wasnorm_wordpool_576.txt	LTP265	ltpFR2	3	1	SHARK	1275	n/a	n/a	0	0	0
328.698	n/a	WORD	164349	wordpools/wasnorm_wordpool_576.txt	LTP265	ltpFR2	3	1	COD	340	n/a	n/a	0	0	0
331.358	n/a	WORD	165679	wordpools/wasnorm_wordpool_576.txt	LTP265	ltpFR2	3	1	SCISSORS	1250	n/a	n/a	0	0	0
333.87	n/a	WORD	166935	wordpools/wasnorm_wordpool_576.txt	LTP265	ltpFR2	3	1	PALACE	1006	n/a	n/a	0	0	0
336.446	n/a	WORD	168223	wordpools/wasnorm_wordpool_576.txt	LTP265	ltpFR2	3	1	SALT	1229	n/a	n/a	0	0	0
338.9	n/a	WORD	169450	wordpools/wasnorm_wordpool_576.txt	LTP265	ltpFR2	3	1	KIDNEY	776	n/a	n/a	0	0	0
341.38	n/a	WORD	170690	wordpools/wasnorm_wordpool_576.txt	LTP265	ltpFR2	3	1	FLIPPER	580	n/a	n/a	0	0	0
343.852	n/a	WORD	171926	wordpools/wasnorm_wordpool_576.txt	LTP265	ltpFR2	3	1	POLICE	1098	n/a	n/a	0	0	0
346.45	n/a	WORD	173225	wordpools/wasnorm_wordpool_576.txt	LTP265	ltpFR2	3	1	CYCLONE	431	n/a	n/a	0	0	0
349.222	n/a	WORD	174611	wordpools/wasnorm_wordpool_576.txt	LTP265	ltpFR2	3	1	PIGMENT	1066	n/a	n/a	0	0	0
351.804	n/a	WORD	175902	wordpools/wasnorm_wordpool_576.txt	LTP265	ltpFR2	3	1	ULCER	1533	n/a	n/a	0	0	0
354.23	n/a	WORD	177115	wordpools/wasnorm_wordpool_576.txt	LTP265	ltpFR2	3	1	ARMY	39	n/a	n/a	0	0	0
356.706	n/a	WORD	178353	wordpools/wasnorm_wordpool_576.txt	LTP265	ltpFR2	3	1	PORTRAIT	1111	n/a	n/a	0	0	0
359.312	n/a	WORD	179656	wordpools/wasnorm_wordpool_576.txt	LTP265	ltpFR2	3	1	SKETCH	1315	n/a	n/a	0	0	0
362.06	n/a	WORD	181030	wordpools/wasnorm_wordpool_576.txt	LTP265	ltpFR2	3	1	POWDER	1117	n/a	n/a	0	0	0
364.686	n/a	WORD	182343	wordpools/wasnorm_wordpool_576.txt	LTP265	ltpFR2	3	1	TEMPLE	1448	n/a	n/a	0	0	0
367.114	n/a	WORD	183557	wordpools/wasnorm_wordpool_576.txt	LTP265	ltpFR2	3	1	GUARD	667	n/a	n/a	0	0	0
369.734	n/a	WORD	184867	wordpools/wasnorm_wordpool_576.txt	LTP265	ltpFR2	3	1	BEEF	113	n/a	n/a	0	0	0
372.384	n/a	WORD	186192	wordpools/wasnorm_wordpool_576.txt	LTP265	ltpFR2	3	1	LIVER	833	n/a	n/a	0	0	0
374.994	n/a	WORD	187497	wordpools/wasnorm_wordpool_576.txt	LTP265	ltpFR2	3	1	HOOK	715	n/a	n/a	0	0	0
377.67	n/a	WORD	188835	wordpools/wasnorm_wordpool_576.txt	LTP265	ltpFR2	3	1	LAKE	796	n/a	n/a	0	0	0
380.146	n/a	WORD	190073	wordpools/wasnorm_wordpool_576.txt	LTP265	ltpFR2	3	1	SIBLING	1301	n/a	n/a	0	0	0
381.764	n/a	START	190882	n/a	LTP265	ltpFR2	3	n/a	n/a	n/a	2	n/a	n/a	n/a	n/a
382.722	n/a	DISTRACTOR	191361	n/a	LTP265	ltpFR2	3	1	n/a	n/a	n/a	n/a	0	0	0
382.738	n/a	PROB	191369	n/a	LTP265	ltpFR2	3	n/a	n/a	n/a	2	8	1	3	4
384.624	n/a	PROB	192312	n/a	LTP265	ltpFR2	3	n/a	n/a	n/a	2	19	4	6	9
386.048	n/a	PROB	193024	n/a	LTP265	ltpFR2	3	n/a	n/a	n/a	2	18	3	7	8
387.552	n/a	PROB	193776	n/a	LTP265	ltpFR2	3	n/a	n/a	n/a	2	9	1	2	6
388.79	n/a	PROB	194395	n/a	LTP265	ltpFR2	3	n/a	n/a	n/a	2	21	5	8	8
390.58	n/a	PROB	195290	n/a	LTP265	ltpFR2	3	n/a	n/a	n/a	2	11	5	1	5
392.16	n/a	PROB	196080	n/a	LTP265	ltpFR2	3	n/a	n/a	n/a	2	10	6	3	1
394.012	n/a	PROB	197006	n/a	LTP265	ltpFR2	3	n/a	n/a	n/a	2	17	7	4	6
396.19	n/a	PROB	198095	n/a	LTP265	ltpFR2	3	n/a	n/a	n/a	2	15	9	2	4
398.192	n/a	PROB	199096	n/a	LTP265	ltpFR2	3	n/a	n/a	n/a	2	15	5	4	6
399.598	n/a	PROB	199799	n/a	LTP265	ltpFR2	3	n/a	n/a	n/a	2	19	7	7	5
401.958	n/a	PROB	200979	n/a	LTP265	ltpFR2	3	n/a	n/a	n/a	2	16	4	9	3
403.898	n/a	PROB	201949	n/a	LTP265	ltpFR2	3	n/a	n/a	n/a	2	15	7	2	6
405.25	n/a	STOP	202625	n/a	LTP265	ltpFR2	3	n/a	n/a	n/a	2	n/a	n/a	n/a	n/a
407.67	n/a	REC_START	203835	n/a	LTP265	ltpFR2	3	1	n/a	n/a	n/a	n/a	0	0	0
409.08	n/a	REC_WORD	204540	wordpools/wasnorm_wordpool_576.txt	LTP265	ltpFR2	3	1	HOOK	715	n/a	n/a	0	0	0
409.968	n/a	REC_WORD	204984	wordpools/wasnorm_wordpool_576.txt	LTP265	ltpFR2	3	1	LAKE	796	n/a	n/a	0	0	0
411.42	n/a	REC_WORD	205710	wordpools/wasnorm_wordpool_576.txt	LTP265	ltpFR2	3	1	BUTCHER	203	n/a	n/a	0	0	0
412.612	n/a	REC_WORD	206306	wordpools/wasnorm_wordpool_576.txt	LTP265	ltpFR2	3	1	LIVER	833	n/a	n/a	0	0	0
413.772	n/a	REC_WORD	206886	wordpools/wasnorm_wordpool_576.txt	LTP265	ltpFR2	3	1	KIDNEY	776	n/a	n/a	0	0	0
415.194	n/a	REC_WORD	207597	wordpools/wasnorm_wordpool_576.txt	LTP265	ltpFR2	3	1	PALACE	1006	n/a	n/a	0	0	0
421.05	n/a	REC_WORD	210525	wordpools/wasnorm_wordpool_576.txt	LTP265	ltpFR2	3	1	SALT	1229	n/a	n/a	0	0	0
422.86	n/a	REC_WORD	211430	wordpools/wasnorm_wordpool_576.txt	LTP265	ltpFR2	3	1	SHARK	1275	n/a	n/a	0	0	0
423.832	n/a	REC_WORD	211916	wordpools/wasnorm_wordpool_576.txt	LTP265	ltpFR2	3	1	COD	340	n/a	n/a	0	0	0
431.274	n/a	REC_WORD	215637	wordpools/wasnorm_wordpool_576.txt	LTP265	ltpFR2	3	1	ARMY	39	n/a	n/a	0	0	0
432.516	n/a	REC_WORD	216258	wordpools/wasnorm_wordpool_576.txt	LTP265	ltpFR2	3	1	GUARD	667	n/a	n/a	0	0	0
445.438	n/a	REC_WORD	222719	wordpools/wasnorm_wordpool_576.txt	LTP265	ltpFR2	3	1	MASK	876	n/a	n/a	0	0	0
474.334	n/a	REC_WORD	237167	wordpools/wasnorm_wordpool_576.txt	LTP265	ltpFR2	3	1	PORTRAIT	1111	n/a	n/a	0	0	0
475.704	n/a	REC_WORD	237852	wordpools/wasnorm_wordpool_576.txt	LTP265	ltpFR2	3	1	SKETCH	1315	n/a	n/a	0	0	0
498.716	n/a	WORD	249358	wordpools/wasnorm_wordpool_576.txt	LTP265	ltpFR2	3	2	SEAL	1262	n/a	n/a	0	0	0
501.142	n/a	WORD	250571	wordpools/wasnorm_wordpool_576.txt	LTP265	ltpFR2	3	2	HONEY	713	n/a	n/a	0	0	0
503.954	n/a	WORD	251977	wordpools/wasnorm_wordpool_576.txt	LTP265	ltpFR2	3	2	LEOPARD	812	n/a	n/a	0	0	0
506.596	n/a	WORD	253298	wordpools/wasnorm_wordpool_576.txt	LTP265	ltpFR2	3	2	EUROPE	541	n/a	n/a	0	0	0
509.372	n/a	WORD	254686	wordpools/wasnorm_wordpool_576.txt	LTP265	ltpFR2	3	2	PENGUIN	1044	n/a	n/a	0	0	0
511.85	n/a	WORD	255925	wordpools/wasnorm_wordpool_576.txt	LTP265	ltpFR2	3	2	NOTEBOOK	959	n/a	n/a	0	0	0
514.626	n/a	WORD	257313	wordpools/wasnorm_wordpool_576.txt	LTP265	ltpFR2	3	2	MACHINE	852	n/a	n/a	0	0	0
517.252	n/a	WORD	258626	wordpools/wasnorm_wordpool_576.txt	LTP265	ltpFR2	3	2	LAVA	804	n/a	n/a	0	0	0
520.048	n/a	WORD	260024	wordpools/wasnorm_wordpool_576.txt	LTP265	ltpFR2	3	2	DUST	508	n/a	n/a	0	0	0
522.824	n/a	WORD	261412	wordpools/wasnorm_wordpool_576.txt	LTP265	ltpFR2	3	2	COOK	372	n/a	n/a	0	0	0
525.564	n/a	WORD	262782	wordpools/wasnorm_wordpool_576.txt	LTP265	ltpFR2	3	2	KITCHEN	778	n/a	n/a	0	0	0
527.996	n/a	WORD	263998	wordpools/wasnorm_wordpool_576.txt	LTP265	ltpFR2	3	2	SHRUB	1299	n/a	n/a	0	0	0
530.504	n/a	WORD	265252	wordpools/wasnorm_wordpool_576.txt	LTP265	ltpFR2	3	2	SMOG	1330	n/a	n/a	0	0	0
533.014	n/a	WORD	266507	wordpools/wasnorm_wordpool_576.txt	LTP265	ltpFR2	3	2	STAKE	1368	n/a	n/a	0	0	0
535.706	n/a	WORD	267853	wordpools/wasnorm_wordpool_576.txt	LTP265	ltpFR2	3	2	FIREPLACE	570	n/a	n/a	0	0	0
538.268	n/a	WORD	269134	wordpools/wasnorm_wordpool_576.txt	LTP265	ltpFR2	3	2	COUNTRY	388	n/a	n/a	0	0	0
541.006	n/a	WORD	270503	wordpools/wasnorm_wordpool_576.txt	LTP265	ltpFR2	3	2	BEAVER	109	n/a	n/a	0	0	0
543.454	n/a	WORD	271727	wordpools/wasnorm_wordpool_576.txt	LTP265	ltpFR2	3	2	BUBBLE	183	n/a	n/a	0	0	0
546.11	n/a	WORD	273055	wordpools/wasnorm_wordpool_576.txt	LTP265	ltpFR2	3	2	ROBBER	1197	n/a	n/a	0	0	0
548.572	n/a	WORD	274286	wordpools/wasnorm_wordpool_576.txt	LTP265	ltpFR2	3	2	HUMAN	726	n/a	n/a	0	0	0
551.078	n/a	WORD	275539	wordpools/wasnorm_wordpool_576.txt	LTP265	ltpFR2	3	2	QUAIL	1147	n/a	n/a	0	0	0
553.878	n/a	WORD	276939	wordpools/wasnorm_wordpool_576.txt	LTP265	ltpFR2	3	2	COWBOY	395	n/a	n/a	0	0	0
556.52	n/a	WORD	278260	wordpools/wasnorm_wordpool_576.txt	LTP265	ltpFR2	3	2	STAPLE	1371	n/a	n/a	0	0	0
559.048	n/a	WORD	279524	wordpools/wasnorm_wordpool_576.txt	LTP265	ltpFR2	3	2	PILOT	1070	n/a	n/a	0	0	0
560.664	n/a	START	280332	n/a	LTP265	ltpFR2	3	n/a	n/a	n/a	3	n/a	n/a	n/a	n/a
561.49	n/a	DISTRACTOR	280745	n/a	LTP265	ltpFR2	3	2	n/a	n/a	n/a	n/a	0	0	0
561.506	n/a	PROB	280753	n/a	LTP265	ltpFR2	3	n/a	n/a	n/a	3	19	2	8	9
563.878	n/a	PROB	281939	n/a	LTP265	ltpFR2	3	n/a	n/a	n/a	3	17	9	1	7
565.388	n/a	PROB	282694	n/a	LTP265	ltpFR2	3	n/a	n/a	n/a	3	16	4	3	9
566.838	n/a	PROB	283419	n/a	LTP265	ltpFR2	3	n/a	n/a	n/a	3	20	7	8	5
568.444	n/a	PROB	284222	n/a	LTP265	ltpFR2	3	n/a	n/a	n/a	3	18	5	9	4
570.44	n/a	PROB	285220	n/a	LTP265	ltpFR2	3	n/a	n/a	n/a	3	12	5	1	6
572.126	n/a	PROB	286063	n/a	LTP265	ltpFR2	3	n/a	n/a	n/a	3	14	5	8	1
574.388	n/a	PROB	287194	n/a	LTP265	ltpFR2	3	n/a	n/a	n/a	3	25	9	8	8
577.982	n/a	PROB	288991	n/a	LTP265	ltpFR2	3	n/a	n/a	n/a	3	17	8	6	3
580.174	n/a	PROB	290087	n/a	LTP265	ltpFR2	3	n/a	n/a	n/a	3	19	5	6	8
582.564	n/a	PROB	291282	n/a	LTP265	ltpFR2	3	n/a	n/a	n/a	3	17	5	6	6
584.556	n/a	STOP	292278	n/a	LTP265	ltpFR2	3	n/a	n/a	n/a	3	n/a	n/a	n/a	n/a
586.58	n/a	REC_START	293290	n/a	LTP265	ltpFR2	3	2	n/a	n/a	n/a	n/a	0	0	0
589.018	n/a	REC_WORD	294509	wordpools/wasnorm_wordpool_576.txt	LTP265	ltpFR2	3	2	PILOT	1070	n/a	n/a	0	0	0
590.388	n/a	REC_WORD	295194	wordpools/wasnorm_wordpool_576.txt	LTP265	ltpFR2	3	2	LEOPARD	812	n/a	n/a	0	0	0
599.316	n/a	REC_WORD	299658	wordpools/wasnorm_wordpool_576.txt	LTP265	ltpFR2	3	2	KITCHEN	778	n/a	n/a	0	0	0
600.054	n/a	REC_WORD	300027	wordpools/wasnorm_wordpool_576.txt	LTP265	ltpFR2	3	2	COOK	372	n/a	n/a	0	0	0
605.032	n/a	REC_WORD	302516	wordpools/wasnorm_wordpool_576.txt	LTP265	ltpFR2	3	2	STAKE	1368	n/a	n/a	0	0	0
606.124	n/a	REC_WORD	303062	wordpools/wasnorm_wordpool_576.txt	LTP265	ltpFR2	3	2	FIREPLACE	570	n/a	n/a	0	0	0
607.124	n/a	REC_WORD_VV	303562	wordpools/wasnorm_wordpool_576.txt	LTP265	ltpFR2	3	2	<>	-1	n/a	n/a	0	0	0
615.41	n/a	REC_WORD	307705	wordpools/wasnorm_wordpool_576.txt	LTP265	ltpFR2	3	2	EUROPE	541	n/a	n/a	0	0	0
616.602	n/a	REC_WORD	308301	wordpools/wasnorm_wordpool_576.txt	LTP265	ltpFR2	3	2	COUNTRY	388	n/a	n/a	0	0	0
631.232	n/a	REC_WORD	315616	wordpools/wasnorm_wordpool_576.txt	LTP265	ltpFR2	3	2	ROBBER	1197	n/a	n/a	0	0	0
647.266	n/a	REC_WORD	323633	wordpools/wasnorm_wordpool_576.txt	LTP265	ltpFR2	3	2	SEAL	1262	n/a	n/a	0	0	0
648.108	n/a	REC_WORD	324054	wordpools/wasnorm_wordpool_576.txt	LTP265	ltpFR2	3	2	HONEY	713	n/a	n/a	0	0	0
677.632	n/a	DISTRACTOR	338816	n/a	LTP265	ltpFR2	3	3	n/a	n/a	n/a	n/a	0	0	0
677.634	n/a	START	338817	n/a	LTP265	ltpFR2	3	n/a	n/a	n/a	4	n/a	n/a	n/a	n/a
677.682	n/a	PROB	338841	n/a	LTP265	ltpFR2	3	n/a	n/a	n/a	4	20	6	8	6
679.502	n/a	PROB	339751	n/a	LTP265	ltpFR2	3	n/a	n/a	n/a	4	14	3	4	7
681.492	n/a	PROB	340746	n/a	LTP265	ltpFR2	3	n/a	n/a	n/a	4	20	3	8	9
683.15	n/a	PROB	341575	n/a	LTP265	ltpFR2	3	n/a	n/a	n/a	4	9	3	2	4
684.52	n/a	PROB	342260	n/a	LTP265	ltpFR2	3	n/a	n/a	n/a	4	14	4	2	8
686.15	n/a	PROB	343075	n/a	LTP265	ltpFR2	3	n/a	n/a	n/a	4	15	7	5	3
687.65	n/a	PROB	343825	n/a	LTP265	ltpFR2	3	n/a	n/a	n/a	4	13	3	3	7
689.646	n/a	PROB	344823	n/a	LTP265	ltpFR2	3	n/a	n/a	n/a	4	14	3	9	2
691.364	n/a	PROB	345682	n/a	LTP265	ltpFR2	3	n/a	n/a	n/a	4	18	7	9	2
692.92	n/a	PROB	346460	n/a	LTP265	ltpFR2	3	n/a	n/a	n/a	4	19	4	9	6
695.228	n/a	PROB	347614	n/a	LTP265	ltpFR2	3	n/a	n/a	n/a	4	18	5	5	8
696.538	n/a	PROB	348269	n/a	LTP265	ltpFR2	3	n/a	n/a	n/a	4	18	6	3	9
697.99	n/a	PROB	348995	n/a	LTP265	ltpFR2	3	n/a	n/a	n/a	4	10	2	7	1
701.626	n/a	STOP	350813	n/a	LTP265	ltpFR2	3	n/a	n/a	n/a	4	n/a	n/a	n/a	n/a
702.806	n/a	WORD	351403	wordpools/wasnorm_wordpool_576.txt	LTP265	ltpFR2	3	3	JOURNAL	760	n/a	n/a	0	0	0
705.254	n/a	WORD	352627	wordpools/wasnorm_wordpool_576.txt	LTP265	ltpFR2	3	3	CROSS	413	n/a	n/a	0	0	0
707.916	n/a	WORD	353958	wordpools/wasnorm_wordpool_576.txt	LTP265	ltpFR2	3	3	PEPPER	1047	n/a	n/a	0	0	0
710.358	n/a	WORD	355179	wordpools/wasnorm_wordpool_576.txt	LTP265	ltpFR2	3	3	PASSAGE	1019	n/a	n/a	0	0	0
712.88	n/a	WORD	356440	wordpools/wasnorm_wordpool_576.txt	LTP265	ltpFR2	3	3	BEAKER	104	n/a	n/a	0	0	0
715.562	n/a	WORD	357781	wordpools/wasnorm_wordpool_576.txt	LTP265	ltpFR2	3	3	SUMMIT	1405	n/a	n/a	0	0	0
718.238	n/a	WORD	359119	wordpools/wasnorm_wordpool_576.txt	LTP265	ltpFR2	3	3	SCARF	1246	n/a	n/a	0	0	0
721.028	n/a	WORD	360514	wordpools/wasnorm_wordpool_576.txt	LTP265	ltpFR2	3	3	TURTLE	1522	n/a	n/a	0	0	0
723.49	n/a	WORD	361745	wordpools/wasnorm_wordpool_576.txt	LTP265	ltpFR2	3	3	STONE	1385	n/a	n/a	0	0	0
726.248	n/a	WORD	363124	wordpools/wasnorm_wordpool_576.txt	LTP265	ltpFR2	3	3	VIKING	1565	n/a	n/a	0	0	0
728.846	n/a	WORD	364423	wordpools/wasnorm_wordpool_576.txt	LTP265	ltpFR2	3	3	MARINE	869	n/a	n/a	0	0	0
731.656	n/a	WORD	365828	wordpools/wasnorm_wordpool_576.txt	LTP265	ltpFR2	3	3	CLIMBER	323	n/a	n/a	0	0	0
734.416	n/a	WORD	367208	wordpools/wasnorm_wordpool_576.txt	LTP265	ltpFR2	3	3	ELBOW	520	n/a	n/a	0	0	0
737.022	n/a	WORD	368511	wordpools/wasnorm_wordpool_576.txt	LTP265	ltpFR2	3	3	WRIST	1626	n/a	n/a	0	0	0
739.82	n/a	WORD	369910	wordpools/wasnorm_wordpool_576.txt	LTP265	ltpFR2	3	3	COUNTY	389	n/a	n/a	0	0	0
742.558	n/a	WORD	371279	wordpools/wasnorm_wordpool_576.txt	LTP265	ltpFR2	3	3	FOREHEAD	592	n/a	n/a	0	0	0
745.142	n/a	WORD	372571	wordpools/wasnorm_wordpool_576.txt	LTP265	ltpFR2	3	3	VELVET	1555	n/a	n/a	0	0	0
747.936	n/a	WORD	373968	wordpools/wasnorm_wordpool_576.txt	LTP265	ltpFR2	3	3	HATCHET	691	n/a	n/a	0	0	0
750.49	n/a	WORD	375245	wordpools/wasnorm_wordpool_576.txt	LTP265	ltpFR2	3	3	PATIENT	1024	n/a	n/a	0	0	0
752.938	n/a	WORD	376469	wordpools/wasnorm_wordpool_576.txt	LTP265	ltpFR2	3	3	WAGON	1578	n/a	n/a	0	0	0
755.592	n/a	WORD	377796	wordpools/wasnorm_wordpool_576.txt	LTP265	ltpFR2	3	3	RABBIT	1152	n/a	n/a	0	0	0
758.152	n/a	WORD	379076	wordpools/wasnorm_wordpool_576.txt	LTP265	ltpFR2	3	3	LUNCH	849	n/a	n/a	0	0	0
760.744	n/a	WORD	380372	wordpools/wasnorm_wordpool_576.txt	LTP265	ltpFR2	3	3	SANDWICH	1232	n/a	n/a	0	0	0
763.406	n/a	WORD	381703	wordpools/wasnorm_wordpool_576.txt	LTP265	ltpFR2	3	3	BINDER	127	n/a	n/a	0	0	0
765.018	n/a	START	382509	n/a	LTP265	ltpFR2	3	n/a	n/a	n/a	5	n/a	n/a	n/a	n/a
765.96	n/a	DISTRACTOR	382980	n/a	LTP265	ltpFR2	3	3	n/a	n/a	n/a	n/a	0	0	0
765.972	n/a	PROB	382986	n/a	LTP265	ltpFR2	3	n/a	n/a	n/a	5	13	9	2	2
767.924	n/a	PROB	383962	n/a	LTP265	ltpFR2	3	n/a	n/a	n/a	5	17	3	8	6
770.004	n/a	PROB	385002	n/a	LTP265	ltpFR2	3	n/a	n/a	n/a	5	16	6	6	4
771.922	n/a	PROB	385961	n/a	LTP265	ltpFR2	3	n/a	n/a	n/a	5	10	7	1	2
773.51	n/a	PROB	386755	n/a	LTP265	ltpFR2	3	n/a	n/a	n/a	5	22	8	6	8
775.384	n/a	PROB	387692	n/a	LTP265	ltpFR2	3	n/a	n/a	n/a	5	15	3	4	8
776.862	n/a	PROB	388431	n/a	LTP265	ltpFR2	3	n/a	n/a	n/a	5	16	7	3	6
778.096	n/a	PROB	389048	n/a	LTP265	ltpFR2	3	n/a	n/a	n/a	5	13	5	2	6
779.89	n/a	PROB	389945	n/a	LTP265	ltpFR2	3	n/a	n/a	n/a	5	10	2	3	5
781.33	n/a	PROB	390665	n/a	LTP265	ltpFR2	3	n/a	n/a	n/a	5	17	4	4	9
783.65	n/a	PROB	391825	n/a	LTP265	ltpFR2	3	n/a	n/a	n/a	5	25	9	7	9
785.524	n/a	PROB	392762	n/a	LTP265	ltpFR2	3	n/a	n/a	n/a	5	12	5	1	6
787.18	n/a	PROB	393590	n/a	LTP265	ltpFR2	3	n/a	n/a	n/a	5	12	1	7	4
788.712	n/a	STOP	394356	n/a	LTP265	ltpFR2	3	n/a	n/a	n/a	5	n/a	n/a	n/a	n/a
790.778	n/a	REC_START	395389	n/a	LTP265	ltpFR2	3	3	n/a	n/a	n/a	n/a	0	0	0
791.994	n/a	REC_WORD	395997	wordpools/wasnorm_wordpool_576.txt	LTP265	ltpFR2	3	3	RABBIT	1152	n/a	n/a	0	0	0
792.854	n/a	REC_WORD	396427	wordpools/wasnorm_wordpool_576.txt	LTP265	ltpFR2	3	3	HATCHET	691	n/a	n/a	0	0	0
794.108	n/a	REC_WORD	397054	wordpools/wasnorm_wordpool_576.txt	LTP265	ltpFR2	3	3	BINDER	127	n/a	n/a	0	0	0
810.604	n/a	REC_WORD	405302	wordpools/wasnorm_wordpool_576.txt	LTP265	ltpFR2	3	3	JOURNAL	760	n/a	n/a	0	0	0
814.672	n/a	REC_WORD	407336	wordpools/wasnorm_wordpool_576.txt	LTP265	ltpFR2	3	3	WRIST	1626	n/a	n/a	0	0	0
815.582	n/a	REC_WORD	407791	wordpools/wasnorm_wordpool_576.txt	LTP265	ltpFR2	3	3	ELBOW	520	n/a	n/a	0	0	0
825.82	n/a	REC_WORD	412910	wordpools/wasnorm_wordpool_576.txt	LTP265	ltpFR2	3	3	BEAKER	104	n/a	n/a	0	0	0
831.092	n/a	REC_WORD	415546	wordpools/wasnorm_wordpool_576.txt	LTP265	ltpFR2	3	3	COUNTY	389	n/a	n/a	0	0	0
832.338	n/a	REC_WORD	416169	wordpools/wasnorm_wordpool_576.txt	LTP265	ltpFR2	3	3	FOREHEAD	592	n/a	n/a	0	0	0
881.796	n/a	DISTRACTOR	440898	n/a	LTP265	ltpFR2	3	4	n/a	n/a	n/a	n/a	0	0	0
881.796	n/a	START	440898	n/a	LTP265	ltpFR2	3	n/a	n/a	n/a	6	n/a	n/a	n/a	n/a
881.846	n/a	PROB	440923	n/a	LTP265	ltpFR2	3	n/a	n/a	n/a	6	15	4	7	4
883.432	n/a	PROB	441716	n/a	LTP265	ltpFR2	3	n/a	n/a	n/a	6	14	6	7	1
884.854	n/a	PROB	442427	n/a	LTP265	ltpFR2	3	n/a	n/a	n/a	6	7	3	3	1
886.192	n/a	PROB	443096	n/a	LTP265	ltpFR2	3	n/a	n/a	n/a	6	10	2	5	3
887.764	n/a	PROB	443882	n/a	LTP265	ltpFR2	3	n/a	n/a	n/a	6	17	6	7	4
889.508	n/a	PROB	444754	n/a	LTP265	ltpFR2	3	n/a	n/a	n/a	6	20	6	9	5
891.646	n/a	PROB	445823	n/a	LTP265	ltpFR2	3	n/a	n/a	n/a	6	19	6	5	8
893.454	n/a	PROB	446727	n/a	LTP265	ltpFR2	3	n/a	n/a	n/a	6	20	6	7	7
895.394	n/a	PROB	447697	n/a	LTP265	ltpFR2	3	n/a	n/a	n/a	6	20	8	3	9
897.05	n/a	PROB	448525	n/a	LTP265	ltpFR2	3	n/a	n/a	n/a	6	19	3	8	8
899.326	n/a	PROB	449663	n/a	LTP265	ltpFR2	3	n/a	n/a	n/a	6	6	2	3	1
901.588	n/a	PROB	450794	n/a	LTP265	ltpFR2	3	n/a	n/a	n/a	6	12	5	3	4
903.542	n/a	PROB	451771	n/a	LTP265	ltpFR2	3	n/a	n/a	n/a	6	14	4	6	4
904.95	n/a	STOP	452475	n/a	LTP265	ltpFR2	3	n/a	n/a	n/a	6	n/a	n/a	n/a	n/a
906.652	n/a	WORD	453326	wordpools/wasnorm_wordpool_576.txt	LTP265	ltpFR2	3	4	SHIRT	1287	n/a	n/a	0	0	0
909.452	n/a	WORD	454726	wordpools/wasnorm_wordpool_576.txt	LTP265	ltpFR2	3	4	HIKER	708	n/a	n/a	0	0	0
911.892	n/a	WORD	455946	wordpools/wasnorm_wordpool_576.txt	LTP265	ltpFR2	3	4	BUG	187	n/a	n/a	0	0	0
914.706	n/a	WORD	457353	wordpools/wasnorm_wordpool_576.txt	LTP265	ltpFR2	3	4	COCOON	339	n/a	n/a	0	0	0
917.166	n/a	WORD	458583	wordpools/wasnorm_wordpool_576.txt	LTP265	ltpFR2	3	4	MARKER	870	n/a	n/a	0	0	0
919.708	n/a	WORD	459854	wordpools/wasnorm_wordpool_576.txt	LTP265	ltpFR2	3	4	JUGGLER	763	n/a	n/a	0	0	0
922.296	n/a	WORD	461148	wordpools/wasnorm_wordpool_576.txt	LTP265	ltpFR2	3	4	MAILBOX	857	n/a	n/a	0	0	0
925.124	n/a	WORD	462562	wordpools/wasnorm_wordpool_576.txt	LTP265	ltpFR2	3	4	STICKER	1382	n/a	n/a	0	0	0
927.868	n/a	WORD	463934	wordpools/wasnorm_wordpool_576.txt	LTP265	ltpFR2	3	4	TEACHER	1440	n/a	n/a	0	0	0
930.516	n/a	WORD	465258	wordpools/wasnorm_wordpool_576.txt	LTP265	ltpFR2	3	4	STUDENT	1395	n/a	n/a	0	0	0
933.328	n/a	WORD	466664	wordpools/wasnorm_wordpool_576.txt	LTP265	ltpFR2	3	4	DRESS	495	n/a	n/a	0	0	0
935.984	n/a	WORD	467992	wordpools/wasnorm_wordpool_576.txt	LTP265	ltpFR2	3	4	CARRIAGE	248	n/a	n/a	0	0	0
938.63	n/a	WORD	469315	wordpools/wasnorm_wordpool_576.txt	LTP265	ltpFR2	3	4	GUITAR	670	n/a	n/a	0	0	0
941.074	n/a	WORD	470537	wordpools/wasnorm_wordpool_576.txt	LTP265	ltpFR2	3	4	DANDRUFF	439	n/a	n/a	0	0	0
943.694	n/a	WORD	471847	wordpools/wasnorm_wordpool_576.txt	LTP265	ltpFR2	3	4	TREAT	1501	n/a	n/a	0	0	0
946.376	n/a	WORD	473188	wordpools/wasnorm_wordpool_576.txt	LTP265	ltpFR2	3	4	BRANDY	169	n/a	n/a	0	0	0
949.016	n/a	WORD	474508	wordpools/wasnorm_wordpool_576.txt	LTP265	ltpFR2	3	4	CREVICE	405	n/a	n/a	0	0	0
951.592	n/a	WORD	475796	wordpools/wasnorm_wordpool_576.txt	LTP265	ltpFR2	3	4	SUITCASE	1403	n/a	n/a	0	0	0
954.17	n/a	WORD	477085	wordpools/wasnorm_wordpool_576.txt	LTP265	ltpFR2	3	4	FRAGRANCE	599	n/a	n/a	0	0	0
956.878	n/a	WORD	478439	wordpools/wasnorm_wordpool_576.txt	LTP265	ltpFR2	3	4	BODY	145	n/a	n/a	0	0	0
959.338	n/a	WORD	479669	wordpools/wasnorm_wordpool_576.txt	LTP265	ltpFR2	3	4	BATHTUB	100	n/a	n/a	0	0	0
962.132	n/a	WORD	481066	wordpools/wasnorm_wordpool_576.txt	LTP265	ltpFR2	3	4	VALLEY	1545	n/a	n/a	0	0	0
964.662	n/a	WORD	482331	wordpools/wasnorm_wordpool_576.txt	LTP265	ltpFR2	3	4	LETTUCE	814	n/a	n/a	0	0	0
967.384	n/a	WORD	483692	wordpools/wasnorm_wordpool_576.txt	LTP265	ltpFR2	3	4	DUSTPAN	509	n/a	n/a	0	0	0
968.998	n/a	START	484499	n/a	LTP265	ltpFR2	3	n/a	n/a	n/a	7	n/a	n/a	n/a	n/a
970.168	n/a	DISTRACTOR	485084	n/a	LTP265	ltpFR2	3	4	n/a	n/a	n/a	n/a	0	0	0
970.186	n/a	PROB	485093	n/a	LTP265	ltpFR2	3	n/a	n/a	n/a	7	16	3	9	4
973.978	n/a	PROB	486989	n/a	LTP265	ltpFR2	3	n/a	n/a	n/a	7	19	9	7	3
976.252	n/a	PROB	488126	n/a	LTP265	ltpFR2	3	n/a	n/a	n/a	7	13	3	3	7
977.642	n/a	PROB	488821	n/a	LTP265	ltpFR2	3	n/a	n/a	n/a	7	11	8	2	1
978.812	n/a	PROB	489406	n/a	LTP265	ltpFR2	3	n/a	n/a	n/a	7	7	5	1	1
980.352	n/a	PROB	490176	n/a	LTP265	ltpFR2	3	n/a	n/a	n/a	7	12	5	5	2
981.506	n/a	PROB	490753	n/a	LTP265	ltpFR2	3	n/a	n/a	n/a	7	20	8	5	7
983.196	n/a	PROB	491598	n/a	LTP265	ltpFR2	3	n/a	n/a	n/a	7	19	9	6	4
984.802	n/a	PROB	492401	n/a	LTP265	ltpFR2	3	n/a	n/a	n/a	7	19	8	2	9
986.162	n/a	PROB	493081	n/a	LTP265	ltpFR2	3	n/a	n/a	n/a	7	6	1	2	3
987.428	n/a	PROB	493714	n/a	LTP265	ltpFR2	3	n/a	n/a	n/a	7	23	8	9	6
989.486	n/a	PROB	494743	n/a	LTP265	ltpFR2	3	n/a	n/a	n/a	7	15	4	4	7
993.0	n/a	STOP	496500	n/a	LTP265	ltpFR2	3	n/a	n/a	n/a	7	n/a	n/a	n/a	n/a
994.84	n/a	REC_START	497420	n/a	LTP265	ltpFR2	3	4	n/a	n/a	n/a	n/a	0	0	0
996.9	n/a	REC_WORD	498450	wordpools/wasnorm_wordpool_576.txt	LTP265	ltpFR2	3	4	DUSTPAN	509	n/a	n/a	0	0	0
997.674	n/a	REC_WORD	498837	wordpools/wasnorm_wordpool_576.txt	LTP265	ltpFR2	3	4	MARKER	870	n/a	n/a	0	0	0
998.828	n/a	REC_WORD	499414	wordpools/wasnorm_wordpool_576.txt	LTP265	ltpFR2	3	4	BLOUSE	139	n/a	n/a	0	0	0
1000.234	n/a	REC_WORD	500117	wordpools/wasnorm_wordpool_576.txt	LTP265	ltpFR2	3	4	SHIRT	1287	n/a	n/a	0	0	0
1002.158	n/a	REC_WORD	501079	wordpools/wasnorm_wordpool_576.txt	LTP265	ltpFR2	3	4	DRESS	495	n/a	n/a	0	0	0
1008.998	n/a	REC_WORD	504499	wordpools/wasnorm_wordpool_576.txt	LTP265	ltpFR2	3	4	TEACHER	1440	n/a	n/a	0	0	0
1009.62	n/a	REC_WORD	504810	wordpools/wasnorm_wordpool_576.txt	LTP265	ltpFR2	3	4	STUDENT	1395	n/a	n/a	0	0	0
1010.62	n/a	REC_WORD_VV	505310	wordpools/wasnorm_wordpool_576.txt	LTP265	ltpFR2	3	4	<>	-1	n/a	n/a	0	0	0
1011.856	n/a	REC_WORD	505928	wordpools/wasnorm_wordpool_576.txt	LTP265	ltpFR2	3	4	HIKER	708	n/a	n/a	0	0	0
1024.76	n/a	REC_WORD	512380	wordpools/wasnorm_wordpool_576.txt	LTP265	ltpFR2	3	4	COCOON	339	n/a	n/a	0	0	0
1025.846	n/a	REC_WORD	512923	wordpools/wasnorm_wordpool_576.txt	LTP265	ltpFR2	3	4	BUG	187	n/a	n/a	0	0	0
1101.688	n/a	DISTRACTOR	550844	n/a	LTP265	ltpFR2	3	5	n/a	n/a	n/a	n/a	0	0	0
1101.688	n/a	START	550844	n/a	LTP265	ltpFR2	3	n/a	n/a	n/a	8	n/a	n/a	n/a	n/a
1101.738	n/a	PROB	550869	n/a	LTP265	ltpFR2	3	n/a	n/a	n/a	8	13	5	4	4
1104.442	n/a	PROB	552221	n/a	LTP265	ltpFR2	3	n/a	n/a	n/a	8	16	8	3	5
1106.122	n/a	PROB	553061	n/a	LTP265	ltpFR2	3	n/a	n/a	n/a	8	16	4	6	6
1107.554	n/a	PROB	553777	n/a	LTP265	ltpFR2	3	n/a	n/a	n/a	8	17	8	7	2
1109.162	n/a	PROB	554581	n/a	LTP265	ltpFR2	3	n/a	n/a	n/a	8	18	8	2	8
1110.42	n/a	PROB	555210	n/a	LTP265	ltpFR2	3	n/a	n/a	n/a	8	26	9	9	8
1114.9	n/a	PROB	557450	n/a	LTP265	ltpFR2	3	n/a	n/a	n/a	8	17	1	7	9
1116.93	n/a	PROB	558465	n/a	LTP265	ltpFR2	3	n/a	n/a	n/a	8	7	3	3	1
1118.25	n/a	PROB	559125	n/a	LTP265	ltpFR2	3	n/a	n/a	n/a	8	21	7	8	6
1120.02	n/a	PROB	560010	n/a	LTP265	ltpFR2	3	n/a	n/a	n/a	8	16	6	8	2
1121.948	n/a	PROB	560974	n/a	LTP265	ltpFR2	3	n/a	n/a	n/a	8	16	8	1	7
1123.454	n/a	PROB	561727	n/a	LTP265	ltpFR2	3	n/a	n/a	n/a	8	13	4	1	8
1125.098	n/a	STOP	562549	n/a	LTP265	ltpFR2	3	n/a	n/a	n/a	8	n/a	n/a	n/a	n/a
1126.594	n/a	WORD	563297	wordpools/wasnorm_wordpool_576.txt	LTP265	ltpFR2	3	5	ICEBERG	731	n/a	n/a	0	0	0
1129.042	n/a	WORD	564521	wordpools/wasnorm_wordpool_576.txt	LTP265	ltpFR2	3	5	AWARD	63	n/a	n/a	0	0	0
1131.868	n/a	WORD	565934	wordpools/wasnorm_wordpool_576.txt	LTP265	ltpFR2	3	5	DOUGHNUT	490	n/a	n/a	0	0	0
1134.412	n/a	WORD	567206	wordpools/wasnorm_wordpool_576.txt	LTP265	ltpFR2	3	5	CRAB	397	n/a	n/a	0	0	0
1136.968	n/a	WORD	568484	wordpools/wasnorm_wordpool_576.txt	LTP265	ltpFR2	3	5	MEDAL	885	n/a	n/a	0	0	0
1139.628	n/a	WORD	569814	wordpools/wasnorm_wordpool_576.txt	LTP265	ltpFR2	3	5	SEAGULL	1261	n/a	n/a	0	0	0
1142.338	n/a	WORD	571169	wordpools/wasnorm_wordpool_576.txt	LTP265	ltpFR2	3	5	PATROL	1027	n/a	n/a	0	0	0
1145.004	n/a	WORD	572502	wordpools/wasnorm_wordpool_576.txt	LTP265	ltpFR2	3	5	SAUSAGE	1238	n/a	n/a	0	0	0
1147.524	n/a	WORD	573762	wordpools/wasnorm_wordpool_576.txt	LTP265	ltpFR2	3	5	SUSPECT	1415	n/a	n/a	0	0	0
1150.222	n/a	WORD	575111	wordpools/wasnorm_wordpool_576.txt	LTP265	ltpFR2	3	5	KNIFE	785	n/a	n/a	0	0	0
1152.664	n/a	WORD	576332	wordpools/wasnorm_wordpool_576.txt	LTP265	ltpFR2	3	5	SCALPEL	1243	n/a	n/a	0	0	0
1155.192	n/a	WORD	577596	wordpools/wasnorm_wordpool_576.txt	LTP265	ltpFR2	3	5	VICTIM	1562	n/a	n/a	0	0	0
1157.914	n/a	WORD	578957	wordpools/wasnorm_wordpool_576.txt	LTP265	ltpFR2	3	5	THRONE	1461	n/a	n/a	0	0	0
1160.394	n/a	WORD	580197	wordpools/wasnorm_wordpool_576.txt	LTP265	ltpFR2	3	5	SALAD	1224	n/a	n/a	0	0	0
1163.022	n/a	WORD	581511	wordpools/wasnorm_wordpool_576.txt	LTP265	ltpFR2	3	5	HANDBAG	684	n/a	n/a	0	0	0
1165.682	n/a	WORD	582841	wordpools/wasnorm_wordpool_576.txt	LTP265	ltpFR2	3	5	POET	1095	n/a	n/a	0	0	0
1168.358	n/a	WORD	584179	wordpools/wasnorm_wordpool_576.txt	LTP265	ltpFR2	3	5	SPOUSE	1358	n/a	n/a	0	0	0
1170.918	n/a	WORD	585459	wordpools/wasnorm_wordpool_576.txt	LTP265	ltpFR2	3	5	WIDOW	1608	n/a	n/a	0	0	0
1173.528	n/a	WORD	586764	wordpools/wasnorm_wordpool_576.txt	LTP265	ltpFR2	3	5	YACHT	1629	n/a	n/a	0	0	0
1176.156	n/a	WORD	588078	wordpools/wasnorm_wordpool_576.txt	LTP265	ltpFR2	3	5	PARTNER	1017	n/a	n/a	0	0	0
1178.614	n/a	WORD	589307	wordpools/wasnorm_wordpool_576.txt	LTP265	ltpFR2	3	5	LOVER	846	n/a	n/a	0	0	0
1181.308	n/a	WORD	590654	wordpools/wasnorm_wordpool_576.txt	LTP265	ltpFR2	3	5	CUPBOARD	425	n/a	n/a	0	0	0
1184.086	n/a	WORD	592043	wordpools/wasnorm_wordpool_576.txt	LTP265	ltpFR2	3	5	ROBOT	1200	n/a	n/a	0	0	0
1186.728	n/a	WORD	593364	wordpools/wasnorm_wordpool_576.txt	LTP265	ltpFR2	3	5	BLADE	134	n/a	n/a	0	0	0
1188.334	n/a	START	594167	n/a	LTP265	ltpFR2	3	n/a	n/a	n/a	9	n/a	n/a	n/a	n/a
1189.506	n/a	DISTRACTOR	594753	n/a	LTP265	ltpFR2	3	5	n/a	n/a	n/a	n/a	0	0	0
1189.522	n/a	PROB	594761	n/a	LTP265	ltpFR2	3	n/a	n/a	n/a	9	16	5	7	4
1192.05	n/a	PROB	596025	n/a	LTP265	ltpFR2	3	n/a	n/a	n/a	9	17	9	3	5
1194.036	n/a	PROB	597018	n/a	LTP265	ltpFR2	3	n/a	n/a	n/a	9	10	5	2	3
1196.85	n/a	PROB	598425	n/a	LTP265	ltpFR2	3	n/a	n/a	n/a	9	11	1	6	4
1198.456	n/a	PROB	599228	n/a	LTP265	ltpFR2	3	n/a	n/a	n/a	9	20	9	8	3
1200.042	n/a	PROB	600021	n/a	LTP265	ltpFR2	3	n/a	n/a	n/a	9	12	1	2	9
1201.312	n/a	PROB	600656	n/a	LTP265	ltpFR2	3	n/a	n/a	n/a	9	8	1	5	2
1202.656	n/a	PROB	601328	n/a	LTP265	ltpFR2	3	n/a	n/a	n/a	9	16	5	7	4
1204.208	n/a	PROB	602104	n/a	LTP265	ltpFR2	3	n/a	n/a	n/a	9	8	2	3	3
1206.182	n/a	PROB	603091	n/a	LTP265	ltpFR2	3	n/a	n/a	n/a	9	17	6	6	5
1207.736	n/a	PROB	603868	n/a	LTP265	ltpFR2	3	n/a	n/a	n/a	9	9	2	3	4
1209.544	n/a	PROB	604772	n/a	LTP265	ltpFR2	3	n/a	n/a	n/a	9	22	8	7	7
1211.654	n/a	STOP	605827	n/a	LTP265	ltpFR2	3	n/a	n/a	n/a	9	n/a	n/a	n/a	n/a
1214.28	n/a	REC_START	607140	n/a	LTP265	ltpFR2	3	5	n/a	n/a	n/a	n/a	0	0	0
1216.262	n/a	REC_WORD	608131	wordpools/wasnorm_wordpool_576.txt	LTP265	ltpFR2	3	5	CUPBOARD	425	n/a	n/a	0	0	0
1217.064	n/a	REC_WORD	608532	wordpools/wasnorm_wordpool_576.txt	LTP265	ltpFR2	3	5	SPOUSE	1358	n/a	n/a	0	0	0
1218.17	n/a	REC_WORD	609085	wordpools/wasnorm_wordpool_576.txt	LTP265	ltpFR2	3	5	WIDOW	1608	n/a	n/a	0	0	0
1219.146	n/a	REC_WORD	609573	wordpools/wasnorm_wordpool_576.txt	LTP265	ltpFR2	3	5	PARTNER	1017	n/a	n/a	0	0	0
1220.168	n/a	REC_WORD	610084	wordpools/wasnorm_wordpool_576.txt	LTP265	ltpFR2	3	5	LOVER	846	n/a	n/a	0	0	0
1222.452	n/a	REC_WORD	611226	wordpools/wasnorm_wordpool_576.txt	LTP265	ltpFR2	3	5	ROBOT	1200	n/a	n/a	0	0	0
1229.198	n/a	REC_WORD	614599	wordpools/wasnorm_wordpool_576.txt	LTP265	ltpFR2	3	5	SAUSAGE	1238	n/a	n/a	0	0	0
1230.198	n/a	REC_WORD_VV	615099	wordpools/wasnorm_wordpool_576.txt	LTP265	ltpFR2	3	5	<>	-1	n/a	n/a	0	0	0
1230.518	n/a	REC_WORD	615259	wordpools/wasnorm_wordpool_576.txt	LTP265	ltpFR2	3	5	PATROL	1027	n/a	n/a	0	0	0
1267.06	n/a	REC_WORD	633530	wordpools/wasnorm_wordpool_576.txt	LTP265	ltpFR2	3	5	SALAD	1224	n/a	n/a	0	0	0
1305.316	n/a	DISTRACTOR	652658	n/a	LTP265	ltpFR2	3	6	n/a	n/a	n/a	n/a	0	0	0
1305.316	n/a	START	652658	n/a	LTP265	ltpFR2	3	n/a	n/a	n/a	10	n/a	n/a	n/a	n/a
1305.366	n/a	PROB	652683	n/a	LTP265	ltpFR2	3	n/a	n/a	n/a	10	17	8	6	3
1307.334	n/a	PROB	653667	n/a	LTP265	ltpFR2	3	n/a	n/a	n/a	10	5	1	3	1
1308.388	n/a	PROB	654194	n/a	LTP265	ltpFR2	3	n/a	n/a	n/a	10	9	1	1	7
1309.766	n/a	PROB	654883	n/a	LTP265	ltpFR2	3	n/a	n/a	n/a	10	21	5	9	7
1311.584	n/a	PROB	655792	n/a	LTP265	ltpFR2	3	n/a	n/a	n/a	10	22	8	8	6
1313.63	n/a	PROB	656815	n/a	LTP265	ltpFR2	3	n/a	n/a	n/a	10	11	2	3	6
1315.014	n/a	PROB	657507	n/a	LTP265	ltpFR2	3	n/a	n/a	n/a	10	17	4	6	7
1316.502	n/a	PROB	658251	n/a	LTP265	ltpFR2	3	n/a	n/a	n/a	10	19	8	7	4
1318.11	n/a	PROB	659055	n/a	LTP265	ltpFR2	3	n/a	n/a	n/a	10	18	4	9	5
1319.848	n/a	PROB	659924	n/a	LTP265	ltpFR2	3	n/a	n/a	n/a	10	21	4	8	9
1321.794	n/a	PROB	660897	n/a	LTP265	ltpFR2	3	n/a	n/a	n/a	10	17	1	8	8
1323.63	n/a	PROB	661815	n/a	LTP265	ltpFR2	3	n/a	n/a	n/a	10	10	1	8	1
1325.342	n/a	PROB	662671	n/a	LTP265	ltpFR2	3	n/a	n/a	n/a	10	10	3	6	1
1326.81	n/a	PROB	663405	n/a	LTP265	ltpFR2	3	n/a	n/a	n/a	10	14	1	8	5
1328.66	n/a	STOP	664330	n/a	LTP265	ltpFR2	3	n/a	n/a	n/a	10	n/a	n/a	n/a	n/a
1330.34	n/a	WORD	665170	wordpools/wasnorm_wordpool_576.txt	LTP265	ltpFR2	3	6	OMELET	976	n/a	n/a	0	0	0
1332.782	n/a	WORD	666391	wordpools/wasnorm_wordpool_576.txt	LTP265	ltpFR2	3	6	WASHER	1592	n/a	n/a	0	0	0
1335.28	n/a	WORD	667640	wordpools/wasnorm_wordpool_576.txt	LTP265	ltpFR2	3	6	ROD	1203	n/a	n/a	0	0	0
1338.052	n/a	WORD	669026	wordpools/wasnorm_wordpool_576.txt	LTP265	ltpFR2	3	6	SERVER	1272	n/a	n/a	0	0	0
1340.582	n/a	WORD	670291	wordpools/wasnorm_wordpool_576.txt	LTP265	ltpFR2	3	6	GARDEN	623	n/a	n/a	0	0	0
1343.394	n/a	WORD	671697	wordpools/wasnorm_wordpool_576.txt	LTP265	ltpFR2	3	6	MOP	916	n/a	n/a	0	0	0
1346.072	n/a	WORD	673036	wordpools/wasnorm_wordpool_576.txt	LTP265	ltpFR2	3	6	APPLE	33	n/a	n/a	0	0	0
1348.898	n/a	WORD	674449	wordpools/wasnorm_wordpool_576.txt	LTP265	ltpFR2	3	6	CARROT	249	n/a	n/a	0	0	0
1351.542	n/a	WORD	675771	wordpools/wasnorm_wordpool_576.txt	LTP265	ltpFR2	3	6	SLIME	1327	n/a	n/a	0	0	0
1354.352	n/a	WORD	677176	wordpools/wasnorm_wordpool_576.txt	LTP265	ltpFR2	3	6	RUST	1219	n/a	n/a	0	0	0
1357.058	n/a	WORD	678529	wordpools/wasnorm_wordpool_576.txt	LTP265	ltpFR2	3	6	BELLY	119	n/a	n/a	0	0	0
1359.84	n/a	WORD	679920	wordpools/wasnorm_wordpool_576.txt	LTP265	ltpFR2	3	6	STOMACH	1384	n/a	n/a	0	0	0
1362.652	n/a	WORD	681326	wordpools/wasnorm_wordpool_576.txt	LTP265	ltpFR2	3	6	DINER	467	n/a	n/a	0	0	0
1365.328	n/a	WORD	682664	wordpools/wasnorm_wordpool_576.txt	LTP265	ltpFR2	3	6	CHEMIST	292	n/a	n/a	0	0	0
1367.832	n/a	WORD	683916	wordpools/wasnorm_wordpool_576.txt	LTP265	ltpFR2	3	6	FLASK	576	n/a	n/a	0	0	0
1370.358	n/a	WORD	685179	wordpools/wasnorm_wordpool_576.txt	LTP265	ltpFR2	3	6	COUSIN	392	n/a	n/a	0	0	0
1373.074	n/a	WORD	686537	wordpools/wasnorm_wordpool_576.txt	LTP265	ltpFR2	3	6	PICTURE	1061	n/a	n/a	0	0	0
1375.5	n/a	WORD	687750	wordpools/wasnorm_wordpool_576.txt	LTP265	ltpFR2	3	6	BANJO	82	n/a	n/a	0	0	0
1378.294	n/a	WORD	689147	wordpools/wasnorm_wordpool_576.txt	LTP265	ltpFR2	3	6	LILY	821	n/a	n/a	0	0	0
1380.866	n/a	WORD	690433	wordpools/wasnorm_wordpool_576.txt	LTP265	ltpFR2	3	6	GRILL	661	n/a	n/a	0	0	0
1383.532	n/a	WORD	691766	wordpools/wasnorm_wordpool_576.txt	LTP265	ltpFR2	3	6	SPOON	1357	n/a	n/a	0	0	0
1386.342	n/a	WORD	693171	wordpools/wasnorm_wordpool_576.txt	LTP265	ltpFR2	3	6	MARKET	871	n/a	n/a	0	0	0
1389.014	n/a	WORD	694507	wordpools/wasnorm_wordpool_576.txt	LTP265	ltpFR2	3	6	JELLY	755	n/a	n/a	0	0	0
1391.512	n/a	WORD	695756	wordpools/wasnorm_wordpool_576.txt	LTP265	ltpFR2	3	6	UNCLE	1536	n/a	n/a	0	0	0
1393.118	n/a	START	696559	n/a	LTP265	ltpFR2	3	n/a	n/a	n/a	11	n/a	n/a	n/a	n/a
1394.136	n/a	DISTRACTOR	697068	n/a	LTP265	ltpFR2	3	6	n/a	n/a	n/a	n/a	0	0	0
1394.15	n/a	PROB	697075	n/a	LTP265	ltpFR2	3	n/a	n/a	n/a	11	14	7	3	4
1395.638	n/a	PROB	697819	n/a	LTP265	ltpFR2	3	n/a	n/a	n/a	11	19	8	7	4
1397.83	n/a	PROB	698915	n/a	LTP265	ltpFR2	3	n/a	n/a	n/a	11	17	3	7	7
1399.324	n/a	PROB	699662	n/a	LTP265	ltpFR2	3	n/a	n/a	n/a	11	11	3	4	4
1401.216	n/a	PROB	700608	n/a	LTP265	ltpFR2	3	n/a	n/a	n/a	11	8	3	2	3
1402.566	n/a	PROB	701283	n/a	LTP265	ltpFR2	3	n/a	n/a	n/a	11	16	4	5	7
1404.044	n/a	PROB	702022	n/a	LTP265	ltpFR2	3	n/a	n/a	n/a	11	24	9	9	5
1406.798	n/a	PROB	703399	n/a	LTP265	ltpFR2	3	n/a	n/a	n/a	11	15	8	2	5
1409.642	n/a	PROB	704821	n/a	LTP265	ltpFR2	3	n/a	n/a	n/a	11	12	5	6	1
1411.22	n/a	PROB	705610	n/a	LTP265	ltpFR2	3	n/a	n/a	n/a	11	8	1	2	5
1412.854	n/a	PROB	706427	n/a	LTP265	ltpFR2	3	n/a	n/a	n/a	11	17	6	6	5
1414.532	n/a	PROB	707266	n/a	LTP265	ltpFR2	3	n/a	n/a	n/a	11	18	6	5	7
1416.338	n/a	STOP	708169	n/a	LTP265	ltpFR2	3	n/a	n/a	n/a	11	n/a	n/a	n/a	n/a
1419.014	n/a	REC_START	709507	n/a	LTP265	ltpFR2	3	6	n/a	n/a	n/a	n/a	0	0	0
1421.068	n/a	REC_WORD	710534	wordpools/wasnorm_wordpool_576.txt	LTP265	ltpFR2	3	6	JELLY	755	n/a	n/a	0	0	0
1422.434	n/a	REC_WORD	711217	wordpools/wasnorm_wordpool_576.txt	LTP265	ltpFR2	3	6	STOMACH	1384	n/a	n/a	0	0	0
1423.808	n/a	REC_WORD	711904	wordpools/wasnorm_wordpool_576.txt	LTP265	ltpFR2	3	6	BELLY	119	n/a	n/a	0	0	0
1424.858	n/a	REC_WORD	712429	wordpools/wasnorm_wordpool_576.txt	LTP265	ltpFR2	3	6	UNCLE	1536	n/a	n/a	0	0	0
1443.724	n/a	REC_WORD	721862	wordpools/wasnorm_wordpool_576.txt	LTP265	ltpFR2	3	6	RUST	1219	n/a	n/a	0	0	0
1446.896	n/a	REC_WORD	723448	wordpools/wasnorm_wordpool_576.txt	LTP265	ltpFR2	3	6	SLIME	1327	n/a	n/a	0	0	0
1453.154	n/a	REC_WORD	726577	wordpools/wasnorm_wordpool_576.txt	LTP265	ltpFR2	3	6	PICTURE	1061	n/a	n/a	0	0	0
1525.156	n/a	WORD	762578	wordpools/wasnorm_wordpool_576.txt	LTP265	ltpFR2	3	7	CLAM	315	n/a	n/a	0	0	0
1527.778	n/a	WORD	763889	wordpools/wasnorm_wordpool_576.txt	LTP265	ltpFR2	3	7	GRAPE	654	n/a	n/a	0	0	0
1530.594	n/a	WORD	765297	wordpools/wasnorm_wordpool_576.txt	LTP265	ltpFR2	3	7	TWISTER	1530	n/a	n/a	0	0	0
1533.354	n/a	WORD	766677	wordpools/wasnorm_wordpool_576.txt	LTP265	ltpFR2	3	7	WORKER	1621	n/a	n/a	0	0	0
1535.948	n/a	WORD	767974	wordpools/wasnorm_wordpool_576.txt	LTP265	ltpFR2	3	7	FLOWER	584	n/a	n/a	0	0	0
1538.49	n/a	WORD	769245	wordpools/wasnorm_wordpool_576.txt	LTP265	ltpFR2	3	7	FLASHLIGHT	575	n/a	n/a	0	0	0
1541.1	n/a	WORD	770550	wordpools/wasnorm_wordpool_576.txt	LTP265	ltpFR2	3	7	LAMP	798	n/a	n/a	0	0	0
1543.794	n/a	WORD	771897	wordpools/wasnorm_wordpool_576.txt	LTP265	ltpFR2	3	7	OFFICE	972	n/a	n/a	0	0	0
1546.582	n/a	WORD	773291	wordpools/wasnorm_wordpool_576.txt	LTP265	ltpFR2	3	7	PIMPLE	1071	n/a	n/a	0	0	0
1549.31	n/a	WORD	774655	wordpools/wasnorm_wordpool_576.txt	LTP265	ltpFR2	3	7	SHOVEL	1295	n/a	n/a	0	0	0
1551.74	n/a	WORD	775870	wordpools/wasnorm_wordpool_576.txt	LTP265	ltpFR2	3	7	DASHBOARD	441	n/a	n/a	0	0	0
1554.53	n/a	WORD	777265	wordpools/wasnorm_wordpool_576.txt	LTP265	ltpFR2	3	7	HEART	697	n/a	n/a	0	0	0
1557.056	n/a	WORD	778528	wordpools/wasnorm_wordpool_576.txt	LTP265	ltpFR2	3	7	BOARD	143	n/a	n/a	0	0	0
1559.688	n/a	WORD	779844	wordpools/wasnorm_wordpool_576.txt	LTP265	ltpFR2	3	7	SLOPE	1328	n/a	n/a	0	0	0
1562.448	n/a	WORD	781224	wordpools/wasnorm_wordpool_576.txt	LTP265	ltpFR2	3	7	OYSTER	995	n/a	n/a	0	0	0
1565.226	n/a	WORD	782613	wordpools/wasnorm_wordpool_576.txt	LTP265	ltpFR2	3	7	TRANSPLANT	1496	n/a	n/a	0	0	0
1567.736	n/a	WORD	783868	wordpools/wasnorm_wordpool_576.txt	LTP265	ltpFR2	3	7	CRATER	400	n/a	n/a	0	0	0
1570.212	n/a	WORD	785106	wordpools/wasnorm_wordpool_576.txt	LTP265	ltpFR2	3	7	FRANCE	601	n/a	n/a	0	0	0
1572.788	n/a	WORD	786394	wordpools/wasnorm_wordpool_576.txt	LTP265	ltpFR2	3	7	PLASTER	1085	n/a	n/a	0	0	0
1575.246	n/a	WORD	787623	wordpools/wasnorm_wordpool_576.txt	LTP265	ltpFR2	3	7	FINGER	567	n/a	n/a	0	0	0
1577.936	n/a	WORD	788968	wordpools/wasnorm_wordpool_576.txt	LTP265	ltpFR2	3	7	CABBAGE	210	n/a	n/a	0	0	0
1580.362	n/a	WORD	790181	wordpools/wasnorm_wordpool_576.txt	LTP265	ltpFR2	3	7	PLATE	1086	n/a	n/a	0	0	0
1582.978	n/a	WORD	791489	wordpools/wasnorm_wordpool_576.txt	LTP265	ltpFR2	3	7	CHAUFFEUR	283	n/a	n/a	0	0	0
1585.486	n/a	WORD	792743	wordpools/wasnorm_wordpool_576.txt	LTP265	ltpFR2	3	7	GLOVE	642	n/a	n/a	0	0	0
1587.094	n/a	START	793547	n/a	LTP265	ltpFR2	3	n/a	n/a	n/a	12	n/a	n/a	n/a	n/a
1588.198	n/a	DISTRACTOR	794099	n/a	LTP265	ltpFR2	3	7	n/a	n/a	n/a	n/a	0	0	0
1588.214	n/a	PROB	794107	n/a	LTP265	ltpFR2	3	n/a	n/a	n/a	12	12	1	2	9
1590.416	n/a	PROB	795208	n/a	LTP265	ltpFR2	3	n/a	n/a	n/a	12	15	4	9	2
1592.512	n/a	PROB	796256	n/a	LTP265	ltpFR2	3	n/a	n/a	n/a	12	10	6	1	3
1594.248	n/a	PROB	797124	n/a	LTP265	ltpFR2	3	n/a	n/a	n/a	12	12	6	2	4
1596.858	n/a	PROB	798429	n/a	LTP265	ltpFR2	3	n/a	n/a	n/a	12	16	7	4	5
1598.904	n/a	PROB	799452	n/a	LTP265	ltpFR2	3	n/a	n/a	n/a	12	21	3	9	9
1600.622	n/a	PROB	800311	n/a	LTP265	ltpFR2	3	n/a	n/a	n/a	12	18	3	9	6
1604.52	n/a	PROB	802260	n/a	LTP265	ltpFR2	3	n/a	n/a	n/a	12	14	1	8	5
1606.566	n/a	PROB	803283	n/a	LTP265	ltpFR2	3	n/a	n/a	n/a	12	13	1	4	9
1608.286	n/a	PROB	804143	n/a	LTP265	ltpFR2	3	n/a	n/a	n/a	12	15	2	7	6
1610.244	n/a	STOP	805122	n/a	LTP265	ltpFR2	3	n/a	n/a	n/a	12	n/a	n/a	n/a	n/a
1612.938	n/a	REC_START	806469	n/a	LTP265	ltpFR2	3	7	n/a	n/a	n/a	n/a	0	0	0
1615.628	n/a	REC_WORD	807814	wordpools/wasnorm_wordpool_576.txt	LTP265	ltpFR2	3	7	PLASTER	1085	n/a	n/a	0	0	0
1616.852	n/a	REC_WORD	808426	wordpools/wasnorm_wordpool_576.txt	LTP265	ltpFR2	3	7	FRANCE	601	n/a	n/a	0	0	0
1617.852	n/a	REC_WORD_VV	808926	wordpools/wasnorm_wordpool_576.txt	LTP265	ltpFR2	3	7	<>	-1	n/a	n/a	0	0	0
1621.18	n/a	REC_WORD	810590	wordpools/wasnorm_wordpool_576.txt	LTP265	ltpFR2	3	7	FINGER	567	n/a	n/a	0	0	0
1642.276	n/a	REC_WORD	821138	wordpools/wasnorm_wordpool_576.txt	LTP265	ltpFR2	3	7	FLOWER	584	n/a	n/a	0	0	0
1655.294	n/a	REC_WORD	827647	wordpools/wasnorm_wordpool_576.txt	LTP265	ltpFR2	3	7	TWISTER	1530	n/a	n/a	0	0	0
1667.204	n/a	REC_WORD	833602	wordpools/wasnorm_wordpool_576.txt	LTP265	ltpFR2	3	7	CLAM	315	n/a	n/a	0	0	0
1668.208	n/a	REC_WORD	834104	wordpools/wasnorm_wordpool_576.txt	LTP265	ltpFR2	3	7	OYSTER	995	n/a	n/a	0	0	0
1669.41	n/a	REC_WORD	834705	wordpools/wasnorm_wordpool_576.txt	LTP265	ltpFR2	3	7	GRAPE	654	n/a	n/a	0	0	0
1703.99	n/a	DISTRACTOR	851995	n/a	LTP265	ltpFR2	3	8	n/a	n/a	n/a	n/a	0	0	0
1703.99	n/a	START	851995	n/a	LTP265	ltpFR2	3	n/a	n/a	n/a	13	n/a	n/a	n/a	n/a
1704.04	n/a	PROB	852020	n/a	LTP265	ltpFR2	3	n/a	n/a	n/a	13	15	2	4	9
1705.874	n/a	PROB	852937	n/a	LTP265	ltpFR2	3	n/a	n/a	n/a	13	12	3	6	3
1707.448	n/a	PROB	853724	n/a	LTP265	ltpFR2	3	n/a	n/a	n/a	13	7	1	2	4
1709.02	n/a	PROB	854510	n/a	LTP265	ltpFR2	3	n/a	n/a	n/a	13	13	4	8	1
1710.476	n/a	PROB	855238	n/a	LTP265	ltpFR2	3	n/a	n/a	n/a	13	17	1	8	8
1712.348	n/a	PROB	856174	n/a	LTP265	ltpFR2	3	n/a	n/a	n/a	13	17	4	6	7
1714.726	n/a	PROB	857363	n/a	LTP265	ltpFR2	3	n/a	n/a	n/a	13	6	1	3	2
1716.252	n/a	PROB	858126	n/a	LTP265	ltpFR2	3	n/a	n/a	n/a	13	14	4	2	8
1717.972	n/a	PROB	858986	n/a	LTP265	ltpFR2	3	n/a	n/a	n/a	13	20	8	7	5
1719.61	n/a	PROB	859805	n/a	LTP265	ltpFR2	3	n/a	n/a	n/a	13	12	4	6	2
1721.15	n/a	PROB	860575	n/a	LTP265	ltpFR2	3	n/a	n/a	n/a	13	19	8	4	7
1724.012	n/a	PROB	862006	n/a	LTP265	ltpFR2	3	n/a	n/a	n/a	13	22	7	8	7
1726.024	n/a	PROB	863012	n/a	LTP265	ltpFR2	3	n/a	n/a	n/a	13	12	1	8	3
1727.506	n/a	STOP	863753	n/a	LTP265	ltpFR2	3	n/a	n/a	n/a	13	n/a	n/a	n/a	n/a
1729.12	n/a	WORD	864560	wordpools/wasnorm_wordpool_576.txt	LTP265	ltpFR2	3	8	TORTOISE	1486	n/a	n/a	0	0	0
1731.672	n/a	WORD	865836	wordpools/wasnorm_wordpool_576.txt	LTP265	ltpFR2	3	8	CLOUD	328	n/a	n/a	0	0	0
1734.106	n/a	WORD	867053	wordpools/wasnorm_wordpool_576.txt	LTP265	ltpFR2	3	8	DANCER	437	n/a	n/a	0	0	0
1736.876	n/a	WORD	868438	wordpools/wasnorm_wordpool_576.txt	LTP265	ltpFR2	3	8	PISTON	1076	n/a	n/a	0	0	0
1739.492	n/a	WORD	869746	wordpools/wasnorm_wordpool_576.txt	LTP265	ltpFR2	3	8	LABEL	790	n/a	n/a	0	0	0
1742.286	n/a	WORD	871143	wordpools/wasnorm_wordpool_576.txt	LTP265	ltpFR2	3	8	CONVICT	371	n/a	n/a	0	0	0
1744.912	n/a	WORD	872456	wordpools/wasnorm_wordpool_576.txt	LTP265	ltpFR2	3	8	TOURIST	1488	n/a	n/a	0	0	0
1747.656	n/a	WORD	873828	wordpools/wasnorm_wordpool_576.txt	LTP265	ltpFR2	3	8	SKIRT	1319	n/a	n/a	0	0	0
1750.15	n/a	WORD	875075	wordpools/wasnorm_wordpool_576.txt	LTP265	ltpFR2	3	8	FLUTE	585	n/a	n/a	0	0	0
1752.91	n/a	WORD	876455	wordpools/wasnorm_wordpool_576.txt	LTP265	ltpFR2	3	8	HAND	683	n/a	n/a	0	0	0
1755.698	n/a	WORD	877849	wordpools/wasnorm_wordpool_576.txt	LTP265	ltpFR2	3	8	CLAMP	316	n/a	n/a	0	0	0
1758.498	n/a	WORD	879249	wordpools/wasnorm_wordpool_576.txt	LTP265	ltpFR2	3	8	FOOT	590	n/a	n/a	0	0	0
1761.126	n/a	WORD	880563	wordpools/wasnorm_wordpool_576.txt	LTP265	ltpFR2	3	8	ZIPPER	1636	n/a	n/a	0	0	0
1763.696	n/a	WORD	881848	wordpools/wasnorm_wordpool_576.txt	LTP265	ltpFR2	3	8	EXPERT	543	n/a	n/a	0	0	0
1766.46	n/a	WORD	883230	wordpools/wasnorm_wordpool_576.txt	LTP265	ltpFR2	3	8	HORNET	718	n/a	n/a	0	0	0
1768.932	n/a	WORD	884466	wordpools/wasnorm_wordpool_576.txt	LTP265	ltpFR2	3	8	SHORTS	1293	n/a	n/a	0	0	0
1771.714	n/a	WORD	885857	wordpools/wasnorm_wordpool_576.txt	LTP265	ltpFR2	3	8	DENIM	446	n/a	n/a	0	0	0
1774.436	n/a	WORD	887218	wordpools/wasnorm_wordpool_576.txt	LTP265	ltpFR2	3	8	RACKET	1155	n/a	n/a	0	0	0
1777.07	n/a	WORD	888535	wordpools/wasnorm_wordpool_576.txt	LTP265	ltpFR2	3	8	BREAST	171	n/a	n/a	0	0	0
1779.662	n/a	WORD	889831	wordpools/wasnorm_wordpool_576.txt	LTP265	ltpFR2	3	8	DENTIST	447	n/a	n/a	0	0	0
1782.456	n/a	WORD	891228	wordpools/wasnorm_wordpool_576.txt	LTP265	ltpFR2	3	8	LACE	792	n/a	n/a	0	0	0
1785.144	n/a	WORD	892572	wordpools/wasnorm_wordpool_576.txt	LTP265	ltpFR2	3	8	ZEBRA	1635	n/a	n/a	0	0	0
1787.692	n/a	WORD	893846	wordpools/wasnorm_wordpool_576.txt	LTP265	ltpFR2	3	8	OX	994	n/a	n/a	0	0	0
1790.414	n/a	WORD	895207	wordpools/wasnorm_wordpool_576.txt	LTP265	ltpFR2	3	8	TAXI	1438	n/a	n/a	0	0	0
1792.028	n/a	START	896014	n/a	LTP265	ltpFR2	3	n/a	n/a	n/a	14	n/a	n/a	n/a	n/a
1793.154	n/a	DISTRACTOR	896577	n/a	LTP265	ltpFR2	3	8	n/a	n/a	n/a	n/a	0	0	0
1793.164	n/a	PROB	896582	n/a	LTP265	ltpFR2	3	n/a	n/a	n/a	14	20	9	7	4
1795.416	n/a	PROB	897708	n/a	LTP265	ltpFR2	3	n/a	n/a	n/a	14	21	7	9	5
1797.108	n/a	PROB	898554	n/a	LTP265	ltpFR2	3	n/a	n/a	n/a	14	19	6	6	7
1800.956	n/a	PROB	900478	n/a	LTP265	ltpFR2	3	n/a	n/a	n/a	14	19	3	8	8
1803.13	n/a	PROB	901565	n/a	LTP265	ltpFR2	3	n/a	n/a	n/a	14	9	6	1	2
1805.076	n/a	PROB	902538	n/a	LTP265	ltpFR2	3	n/a	n/a	n/a	14	18	8	8	2
1807.178	n/a	PROB	903589	n/a	LTP265	ltpFR2	3	n/a	n/a	n/a	14	13	4	1	8
1809.37	n/a	PROB	904685	n/a	LTP265	ltpFR2	3	n/a	n/a	n/a	14	11	3	1	7
1810.826	n/a	PROB	905413	n/a	LTP265	ltpFR2	3	n/a	n/a	n/a	14	20	9	4	7
1814.662	n/a	STOP	907331	n/a	LTP265	ltpFR2	3	n/a	n/a	n/a	14	n/a	n/a	n/a	n/a
1817.87	n/a	REC_START	908935	n/a	LTP265	ltpFR2	3	8	n/a	n/a	n/a	n/a	0	0	0
1820.56	n/a	REC_WORD	910280	wordpools/wasnorm_wordpool_576.txt	LTP265	ltpFR2	3	8	TORTOISE	1486	n/a	n/a	0	0	0
1824.618	n/a	REC_WORD	912309	wordpools/wasnorm_wordpool_576.txt	LTP265	ltpFR2	3	8	LACE	792	n/a	n/a	0	0	0
1830.696	n/a	REC_WORD	915348	wordpools/wasnorm_wordpool_576.txt	LTP265	ltpFR2	3	8	SHORTS	1293	n/a	n/a	0	0	0
1840.83	n/a	REC_WORD	920415	wordpools/wasnorm_wordpool_576.txt	LTP265	ltpFR2	3	8	OX	994	n/a	n/a	0	0	0
1841.75	n/a	REC_WORD	920875	wordpools/wasnorm_wordpool_576.txt	LTP265	ltpFR2	3	8	ZEBRA	1635	n/a	n/a	0	0	0
1874.43	n/a	REC_WORD	937215	wordpools/wasnorm_wordpool_576.txt	LTP265	ltpFR2	3	8	CLOUD	328	n/a	n/a	0	0	0
1894.65	n/a	REST_REWET	947325	n/a	LTP265	ltpFR2	3	8	n/a	n/a	n/a	n/a	0	0	0
2285.006	n/a	WORD	1142503	wordpools/wasnorm_wordpool_576.txt	LTP265	ltpFR2	3	9	DAUGHTER	442	n/a	n/a	0	0	0
2287.816	n/a	WORD	1143908	wordpools/wasnorm_wordpool_576.txt	LTP265	ltpFR2	3	9	UMPIRE	1535	n/a	n/a	0	0	0
2290.308	n/a	WORD	1145154	wordpools/wasnorm_wordpool_576.txt	LTP265	ltpFR2	3	9	COOKBOOK	373	n/a	n/a	0	0	0
2292.956	n/a	WORD	1146478	wordpools/wasnorm_wordpool_576.txt	LTP265	ltpFR2	3	9	FILM	565	n/a	n/a	0	0	0
2295.546	n/a	WORD	1147773	wordpools/wasnorm_wordpool_576.txt	LTP265	ltpFR2	3	9	RUG	1215	n/a	n/a	0	0	0
2298.06	n/a	WORD	1149030	wordpools/wasnorm_wordpool_576.txt	LTP265	ltpFR2	3	9	MISSILE	900	n/a	n/a	0	0	0
2300.882	n/a	WORD	1150441	wordpools/wasnorm_wordpool_576.txt	LTP265	ltpFR2	3	9	PISTOL	1075	n/a	n/a	0	0	0
2303.346	n/a	WORD	1151673	wordpools/wasnorm_wordpool_576.txt	LTP265	ltpFR2	3	9	RAFT	1159	n/a	n/a	0	0	0
2306.042	n/a	WORD	1153021	wordpools/wasnorm_wordpool_576.txt	LTP265	ltpFR2	3	9	CANAL	226	n/a	n/a	0	0	0
2308.628	n/a	WORD	1154314	wordpools/wasnorm_wordpool_576.txt	LTP265	ltpFR2	3	9	LODGE	839	n/a	n/a	0	0	0
2311.076	n/a	WORD	1155538	wordpools/wasnorm_wordpool_576.txt	LTP265	ltpFR2	3	9	BURGLAR	200	n/a	n/a	0	0	0
2313.57	n/a	WORD	1156785	wordpools/wasnorm_wordpool_576.txt	LTP265	ltpFR2	3	9	MONSTER	912	n/a	n/a	0	0	0
2316.18	n/a	WORD	1158090	wordpools/wasnorm_wordpool_576.txt	LTP265	ltpFR2	3	9	CREATURE	403	n/a	n/a	0	0	0
2319.002	n/a	WORD	1159501	wordpools/wasnorm_wordpool_576.txt	LTP265	ltpFR2	3	9	PUPIL	1143	n/a	n/a	0	0	0
2321.5	n/a	WORD	1160750	wordpools/wasnorm_wordpool_576.txt	LTP265	ltpFR2	3	9	RADISH	1158	n/a	n/a	0	0	0
2323.988	n/a	WORD	1161994	wordpools/wasnorm_wordpool_576.txt	LTP265	ltpFR2	3	9	WINDOW	1611	n/a	n/a	0	0	0
2326.752	n/a	WORD	1163376	wordpools/wasnorm_wordpool_576.txt	LTP265	ltpFR2	3	9	TILE	1468	n/a	n/a	0	0	0
2329.462	n/a	WORD	1164731	wordpools/wasnorm_wordpool_576.txt	LTP265	ltpFR2	3	9	RIVER	1194	n/a	n/a	0	0	0
2332.192	n/a	WORD	1166096	wordpools/wasnorm_wordpool_576.txt	LTP265	ltpFR2	3	9	BLACKBOARD	133	n/a	n/a	0	0	0
2334.75	n/a	WORD	1167375	wordpools/wasnorm_wordpool_576.txt	LTP265	ltpFR2	3	9	STAMP	1370	n/a	n/a	0	0	0
2337.288	n/a	WORD	1168644	wordpools/wasnorm_wordpool_576.txt	LTP265	ltpFR2	3	9	WAITRESS	1581	n/a	n/a	0	0	0
2339.714	n/a	WORD	1169857	wordpools/wasnorm_wordpool_576.txt	LTP265	ltpFR2	3	9	ITEM	746	n/a	n/a	0	0	0
2342.346	n/a	WORD	1171173	wordpools/wasnorm_wordpool_576.txt	LTP265	ltpFR2	3	9	GAZELLE	628	n/a	n/a	0	0	0
2345.056	n/a	WORD	1172528	wordpools/wasnorm_wordpool_576.txt	LTP265	ltpFR2	3	9	FOOTBALL	591	n/a	n/a	0	0	0
2346.674	n/a	START	1173337	n/a	LTP265	ltpFR2	3	n/a	n/a	n/a	15	n/a	n/a	n/a	n/a
2347.718	n/a	DISTRACTOR	1173859	n/a	LTP265	ltpFR2	3	9	n/a	n/a	n/a	n/a	0	0	0
2347.732	n/a	PROB	1173866	n/a	LTP265	ltpFR2	3	n/a	n/a	n/a	15	17	9	4	4
2350.59	n/a	PROB	1175295	n/a	LTP265	ltpFR2	3	n/a	n/a	n/a	15	13	3	3	7
2353.4	n/a	PROB	1176700	n/a	LTP265	ltpFR2	3	n/a	n/a	n/a	15	14	5	5	4
2354.96	n/a	PROB	1177480	n/a	LTP265	ltpFR2	3	n/a	n/a	n/a	15	13	4	3	6
2356.566	n/a	PROB	1178283	n/a	LTP265	ltpFR2	3	n/a	n/a	n/a	15	8	3	4	1
2358.602	n/a	PROB	1179301	n/a	LTP265	ltpFR2	3	n/a	n/a	n/a	15	14	3	8	3
2360.244	n/a	PROB	1180122	n/a	LTP265	ltpFR2	3	n/a	n/a	n/a	15	6	3	2	1
2361.586	n/a	PROB	1180793	n/a	LTP265	ltpFR2	3	n/a	n/a	n/a	15	18	9	6	3
2363.338	n/a	PROB	1181669	n/a	LTP265	ltpFR2	3	n/a	n/a	n/a	15	22	5	9	8
2365.702	n/a	PROB	1182851	n/a	LTP265	ltpFR2	3	n/a	n/a	n/a	15	18	7	8	3
2367.402	n/a	PROB	1183701	n/a	LTP265	ltpFR2	3	n/a	n/a	n/a	15	8	3	4	1
2369.516	n/a	STOP	1184758	n/a	LTP265	ltpFR2	3	n/a	n/a	n/a	15	n/a	n/a	n/a	n/a
2372.512	n/a	REC_START	1186256	n/a	LTP265	ltpFR2	3	9	n/a	n/a	n/a	n/a	0	0	0
2374.49	n/a	REC_WORD	1187245	wordpools/wasnorm_wordpool_576.txt	LTP265	ltpFR2	3	9	DAUGHTER	442	n/a	n/a	0	0	0
2375.948	n/a	REC_WORD	1187974	wordpools/wasnorm_wordpool_576.txt	LTP265	ltpFR2	3	9	BURGLAR	200	n/a	n/a	0	0	0
2377.02	n/a	REC_WORD	1188510	wordpools/wasnorm_wordpool_576.txt	LTP265	ltpFR2	3	9	WAITRESS	1581	n/a	n/a	0	0	0
2383.618	n/a	REC_WORD	1191809	wordpools/wasnorm_wordpool_576.txt	LTP265	ltpFR2	3	9	WINDOW	1611	n/a	n/a	0	0	0
2384.442	n/a	REC_WORD	1192221	wordpools/wasnorm_wordpool_576.txt	LTP265	ltpFR2	3	9	TILE	1468	n/a	n/a	0	0	0
2397.318	n/a	REC_WORD	1198659	wordpools/wasnorm_wordpool_576.txt	LTP265	ltpFR2	3	9	RIVER	1194	n/a	n/a	0	0	0
2398.194	n/a	REC_WORD	1199097	wordpools/wasnorm_wordpool_576.txt	LTP265	ltpFR2	3	9	BLACKBOARD	133	n/a	n/a	0	0	0
2507.176	n/a	WORD	1253588	wordpools/wasnorm_wordpool_576.txt	LTP265	ltpFR2	3	10	CORAL	378	n/a	n/a	0	0	0
2509.914	n/a	WORD	1254957	wordpools/wasnorm_wordpool_576.txt	LTP265	ltpFR2	3	10	BRAKE	166	n/a	n/a	0	0	0
2512.73	n/a	WORD	1256365	wordpools/wasnorm_wordpool_576.txt	LTP265	ltpFR2	3	10	DRINK	498	n/a	n/a	0	0	0
2515.34	n/a	WORD	1257670	wordpools/wasnorm_wordpool_576.txt	LTP265	ltpFR2	3	10	TOASTER	1472	n/a	n/a	0	0	0
2517.946	n/a	WORD	1258973	wordpools/wasnorm_wordpool_576.txt	LTP265	ltpFR2	3	10	APRON	35	n/a	n/a	0	0	0
2520.46	n/a	WORD	1260230	wordpools/wasnorm_wordpool_576.txt	LTP265	ltpFR2	3	10	HAMPER	682	n/a	n/a	0	0	0
2522.964	n/a	WORD	1261482	wordpools/wasnorm_wordpool_576.txt	LTP265	ltpFR2	3	10	MARSH	874	n/a	n/a	0	0	0
2525.512	n/a	WORD	1262756	wordpools/wasnorm_wordpool_576.txt	LTP265	ltpFR2	3	10	BOUQUET	157	n/a	n/a	0	0	0
2528.224	n/a	WORD	1264112	wordpools/wasnorm_wordpool_576.txt	LTP265	ltpFR2	3	10	OUTDOORS	987	n/a	n/a	0	0	0
2530.766	n/a	WORD	1265383	wordpools/wasnorm_wordpool_576.txt	LTP265	ltpFR2	3	10	FLEET	578	n/a	n/a	0	0	0
2533.358	n/a	WORD	1266679	wordpools/wasnorm_wordpool_576.txt	LTP265	ltpFR2	3	10	COLONEL	348	n/a	n/a	0	0	0
2536.038	n/a	WORD	1268019	wordpools/wasnorm_wordpool_576.txt	LTP265	ltpFR2	3	10	PERFUME	1049	n/a	n/a	0	0	0
2538.83	n/a	WORD	1269415	wordpools/wasnorm_wordpool_576.txt	LTP265	ltpFR2	3	10	VAGRANT	1544	n/a	n/a	0	0	0
2541.318	n/a	WORD	1270659	wordpools/wasnorm_wordpool_576.txt	LTP265	ltpFR2	3	10	MOTEL	919	n/a	n/a	0	0	0
2544.0	n/a	WORD	1272000	wordpools/wasnorm_wordpool_576.txt	LTP265	ltpFR2	3	10	GARLIC	624	n/a	n/a	0	0	0
2546.61	n/a	WORD	1273305	wordpools/wasnorm_wordpool_576.txt	LTP265	ltpFR2	3	10	MILDEW	893	n/a	n/a	0	0	0
2549.288	n/a	WORD	1274644	wordpools/wasnorm_wordpool_576.txt	LTP265	ltpFR2	3	10	PEBBLE	1035	n/a	n/a	0	0	0
2551.774	n/a	WORD	1275887	wordpools/wasnorm_wordpool_576.txt	LTP265	ltpFR2	3	10	KEEPER	769	n/a	n/a	0	0	0
2554.29	n/a	WORD	1277145	wordpools/wasnorm_wordpool_576.txt	LTP265	ltpFR2	3	10	LUMBER	848	n/a	n/a	0	0	0
2557.018	n/a	WORD	1278509	wordpools/wasnorm_wordpool_576.txt	LTP265	ltpFR2	3	10	BUNNY	198	n/a	n/a	0	0	0
2559.46	n/a	WORD	1279730	wordpools/wasnorm_wordpool_576.txt	LTP265	ltpFR2	3	10	SCOTCH	1251	n/a	n/a	0	0	0
2561.936	n/a	WORD	1280968	wordpools/wasnorm_wordpool_576.txt	LTP265	ltpFR2	3	10	PLAYGROUND	1087	n/a	n/a	0	0	0
2564.462	n/a	WORD	1282231	wordpools/wasnorm_wordpool_576.txt	LTP265	ltpFR2	3	10	VENUS	1557	n/a	n/a	0	0	0
2567.038	n/a	WORD	1283519	wordpools/wasnorm_wordpool_576.txt	LTP265	ltpFR2	3	10	GROUND	666	n/a	n/a	0	0	0
2568.656	n/a	START	1284328	n/a	LTP265	ltpFR2	3	n/a	n/a	n/a	16	n/a	n/a	n/a	n/a
2569.85	n/a	DISTRACTOR	1284925	n/a	LTP265	ltpFR2	3	10	n/a	n/a	n/a	n/a	0	0	0
2569.864	n/a	PROB	1284932	n/a	LTP265	ltpFR2	3	n/a	n/a	n/a	16	23	5	9	9
2573.224	n/a	PROB	1286612	n/a	LTP265	ltpFR2	3	n/a	n/a	n/a	16	22	5	8	9
2576.804	n/a	PROB	1288402	n/a	LTP265	ltpFR2	3	n/a	n/a	n/a	16	13	3	2	8
2578.244	n/a	PROB	1289122	n/a	LTP265	ltpFR2	3	n/a	n/a	n/a	16	8	3	3	2
2580.084	n/a	PROB	1290042	n/a	LTP265	ltpFR2	3	n/a	n/a	n/a	16	11	2	3	6
2582.058	n/a	PROB	1291029	n/a	LTP265	ltpFR2	3	n/a	n/a	n/a	16	7	4	2	1
2583.496	n/a	PROB	1291748	n/a	LTP265	ltpFR2	3	n/a	n/a	n/a	16	20	7	8	5
2585.052	n/a	PROB	1292526	n/a	LTP265	ltpFR2	3	n/a	n/a	n/a	16	14	4	3	7
2586.792	n/a	PROB	1293396	n/a	LTP265	ltpFR2	3	n/a	n/a	n/a	16	6	3	2	1
2588.33	n/a	PROB	1294165	n/a	LTP265	ltpFR2	3	n/a	n/a	n/a	16	26	9	9	8
2590.054	n/a	PROB	1295027	n/a	LTP265	ltpFR2	3	n/a	n/a	n/a	16	14	6	2	6
2592.01	n/a	STOP	1296005	n/a	LTP265	ltpFR2	3	n/a	n/a	n/a	16	n/a	n/a	n/a	n/a
2594.506	n/a	REC_START	1297253	n/a	LTP265	ltpFR2	3	10	n/a	n/a	n/a	n/a	0	0	0
2596.774	n/a	REC_WORD	1298387	wordpools/wasnorm_wordpool_576.txt	LTP265	ltpFR2	3	10	VAGRANT	1544	n/a	n/a	0	0	0
2597.514	n/a	REC_WORD	1298757	wordpools/wasnorm_wordpool_576.txt	LTP265	ltpFR2	3	10	MOTEL	919	n/a	n/a	0	0	0
2607.866	n/a	REC_WORD	1303933	wordpools/wasnorm_wordpool_576.txt	LTP265	ltpFR2	3	10	GROUND	666	n/a	n/a	0	0	0
2608.59	n/a	REC_WORD	1304295	wordpools/wasnorm_wordpool_576.txt	LTP265	ltpFR2	3	10	PLAYGROUND	1087	n/a	n/a	0	0	0
2627.184	n/a	REC_WORD	1313592	wordpools/wasnorm_wordpool_576.txt	LTP265	ltpFR2	3	10	CORAL	378	n/a	n/a	0	0	0
2629.37	n/a	REC_WORD	1314685	wordpools/wasnorm_wordpool_576.txt	LTP265	ltpFR2	3	10	DRINK	498	n/a	n/a	0	0	0
2633.974	n/a	REC_WORD	1316987	wordpools/wasnorm_wordpool_576.txt	LTP265	ltpFR2	3	10	BANK	83	n/a	n/a	0	0	0
2685.542	n/a	WORD	1342771	wordpools/wasnorm_wordpool_576.txt	LTP265	ltpFR2	3	11	SHELF	1280	n/a	n/a	0	0	0
2687.968	n/a	WORD	1343984	wordpools/wasnorm_wordpool_576.txt	LTP265	ltpFR2	3	11	DRIVER	499	n/a	n/a	0	0	0
2690.61	n/a	WORD	1345305	wordpools/wasnorm_wordpool_576.txt	LTP265	ltpFR2	3	11	CHIPMUNK	304	n/a	n/a	0	0	0
2693.338	n/a	WORD	1346669	wordpools/wasnorm_wordpool_576.txt	LTP265	ltpFR2	3	11	BANQUET	86	n/a	n/a	0	0	0
2696.148	n/a	WORD	1348074	wordpools/wasnorm_wordpool_576.txt	LTP265	ltpFR2	3	11	SPIDER	1351	n/a	n/a	0	0	0
2698.608	n/a	WORD	1349304	wordpools/wasnorm_wordpool_576.txt	LTP265	ltpFR2	3	11	TOMBSTONE	1478	n/a	n/a	0	0	0
2701.18	n/a	WORD	1350590	wordpools/wasnorm_wordpool_576.txt	LTP265	ltpFR2	3	11	POISON	1096	n/a	n/a	0	0	0
2703.84	n/a	WORD	1351920	wordpools/wasnorm_wordpool_576.txt	LTP265	ltpFR2	3	11	TWEEZERS	1526	n/a	n/a	0	0	0
2706.382	n/a	WORD	1353191	wordpools/wasnorm_wordpool_576.txt	LTP265	ltpFR2	3	11	CITRUS	313	n/a	n/a	0	0	0
2708.88	n/a	WORD	1354440	wordpools/wasnorm_wordpool_576.txt	LTP265	ltpFR2	3	11	CONTRACT	368	n/a	n/a	0	0	0
2711.322	n/a	WORD	1355661	wordpools/wasnorm_wordpool_576.txt	LTP265	ltpFR2	3	11	FIREMAN	569	n/a	n/a	0	0	0
2713.86	n/a	WORD	1356930	wordpools/wasnorm_wordpool_576.txt	LTP265	ltpFR2	3	11	DOLPHIN	483	n/a	n/a	0	0	0
2716.476	n/a	WORD	1358238	wordpools/wasnorm_wordpool_576.txt	LTP265	ltpFR2	3	11	SALMON	1227	n/a	n/a	0	0	0
2719.254	n/a	WORD	1359627	wordpools/wasnorm_wordpool_576.txt	LTP265	ltpFR2	3	11	VIRUS	1572	n/a	n/a	0	0	0
2721.942	n/a	WORD	1360971	wordpools/wasnorm_wordpool_576.txt	LTP265	ltpFR2	3	11	GIFT	635	n/a	n/a	0	0	0
2724.724	n/a	WORD	1362362	wordpools/wasnorm_wordpool_576.txt	LTP265	ltpFR2	3	11	PASTRY	1022	n/a	n/a	0	0	0
2727.35	n/a	WORD	1363675	wordpools/wasnorm_wordpool_576.txt	LTP265	ltpFR2	3	11	ICING	732	n/a	n/a	0	0	0
2729.956	n/a	WORD	1364978	wordpools/wasnorm_wordpool_576.txt	LTP265	ltpFR2	3	11	BACKBONE	66	n/a	n/a	0	0	0
2732.448	n/a	WORD	1366224	wordpools/wasnorm_wordpool_576.txt	LTP265	ltpFR2	3	11	THREAD	1460	n/a	n/a	0	0	0
2735.26	n/a	WORD	1367630	wordpools/wasnorm_wordpool_576.txt	LTP265	ltpFR2	3	11	PEACH	1031	n/a	n/a	0	0	0
2737.874	n/a	WORD	1368937	wordpools/wasnorm_wordpool_576.txt	LTP265	ltpFR2	3	11	WHISKERS	1605	n/a	n/a	0	0	0
2740.35	n/a	WORD	1370175	wordpools/wasnorm_wordpool_576.txt	LTP265	ltpFR2	3	11	MEAT	883	n/a	n/a	0	0	0
2742.776	n/a	WORD	1371388	wordpools/wasnorm_wordpool_576.txt	LTP265	ltpFR2	3	11	EYELASH	546	n/a	n/a	0	0	0
2745.198	n/a	WORD	1372599	wordpools/wasnorm_wordpool_576.txt	LTP265	ltpFR2	3	11	FOX	598	n/a	n/a	0	0	0
2746.808	n/a	START	1373404	n/a	LTP265	ltpFR2	3	n/a	n/a	n/a	17	n/a	n/a	n/a	n/a
2747.628	n/a	DISTRACTOR	1373814	n/a	LTP265	ltpFR2	3	11	n/a	n/a	n/a	n/a	0	0	0
2747.644	n/a	PROB	1373822	n/a	LTP265	ltpFR2	3	n/a	n/a	n/a	17	24	9	8	7
2749.864	n/a	PROB	1374932	n/a	LTP265	ltpFR2	3	n/a	n/a	n/a	17	15	5	1	9
2751.656	n/a	PROB	1375828	n/a	LTP265	ltpFR2	3	n/a	n/a	n/a	17	17	6	4	7
2753.062	n/a	PROB	1376531	n/a	LTP265	ltpFR2	3	n/a	n/a	n/a	17	14	6	6	2
2754.918	n/a	PROB	1377459	n/a	LTP265	ltpFR2	3	n/a	n/a	n/a	17	8	4	3	1
2756.172	n/a	PROB	1378086	n/a	LTP265	ltpFR2	3	n/a	n/a	n/a	17	15	6	8	1
2758.9	n/a	PROB	1379450	n/a	LTP265	ltpFR2	3	n/a	n/a	n/a	17	15	7	2	6
2760.79	n/a	PROB	1380395	n/a	LTP265	ltpFR2	3	n/a	n/a	n/a	17	16	3	9	3
2765.046	n/a	PROB	1382523	n/a	LTP265	ltpFR2	3	n/a	n/a	n/a	17	15	2	7	6
2767.148	n/a	PROB	1383574	n/a	LTP265	ltpFR2	3	n/a	n/a	n/a	17	7	3	2	2
2769.078	n/a	PROB	1384539	n/a	LTP265	ltpFR2	3	n/a	n/a	n/a	17	12	1	2	9
2770.394	n/a	STOP	1385197	n/a	LTP265	ltpFR2	3	n/a	n/a	n/a	17	n/a	n/a	n/a	n/a
2772.624	n/a	REC_START	1386312	n/a	LTP265	ltpFR2	3	11	n/a	n/a	n/a	n/a	0	0	0
2774.554	n/a	REC_WORD	1387277	wordpools/wasnorm_wordpool_576.txt	LTP265	ltpFR2	3	11	WHISKERS	1605	n/a	n/a	0	0	0
2775.554	n/a	REC_WORD_VV	1387777	wordpools/wasnorm_wordpool_576.txt	LTP265	ltpFR2	3	11	<>	-1	n/a	n/a	0	0	0
2787.062	n/a	REC_WORD	1393531	wordpools/wasnorm_wordpool_576.txt	LTP265	ltpFR2	3	11	BANQUET	86	n/a	n/a	0	0	0
2789.044	n/a	REC_WORD	1394522	wordpools/wasnorm_wordpool_576.txt	LTP265	ltpFR2	3	11	SPIDER	1351	n/a	n/a	0	0	0
2789.972	n/a	REC_WORD	1394986	wordpools/wasnorm_wordpool_576.txt	LTP265	ltpFR2	3	11	CHIPMUNK	304	n/a	n/a	0	0	0
2790.918	n/a	REC_WORD	1395459	wordpools/wasnorm_wordpool_576.txt	LTP265	ltpFR2	3	11	DOLPHIN	483	n/a	n/a	0	0	0
2791.694	n/a	REC_WORD	1395847	wordpools/wasnorm_wordpool_576.txt	LTP265	ltpFR2	3	11	SALMON	1227	n/a	n/a	0	0	0
2793.612	n/a	REC_WORD	1396806	wordpools/wasnorm_wordpool_576.txt	LTP265	ltpFR2	3	11	DRIVER	499	n/a	n/a	0	0	0
2795.622	n/a	REC_WORD	1397811	wordpools/wasnorm_wordpool_576.txt	LTP265	ltpFR2	3	11	FIREMAN	569	n/a	n/a	0	0	0
2796.622	n/a	REC_WORD_VV	1398311	wordpools/wasnorm_wordpool_576.txt	LTP265	ltpFR2	3	11	<>	-1	n/a	n/a	0	0	0
2804.068	n/a	REC_WORD	1402034	wordpools/wasnorm_wordpool_576.txt	LTP265	ltpFR2	3	11	GIFT	635	n/a	n/a	0	0	0
2817.856	n/a	REC_WORD	1408928	wordpools/wasnorm_wordpool_576.txt	LTP265	ltpFR2	3	11	THREAD	1460	n/a	n/a	0	0	0
2827.31	n/a	REC_WORD	1413655	wordpools/wasnorm_wordpool_576.txt	LTP265	ltpFR2	3	11	MARSH	874	n/a	n/a	0	0	0
2863.688	n/a	WORD	1431844	wordpools/wasnorm_wordpool_576.txt	LTP265	ltpFR2	3	12	HAWK	692	n/a	n/a	0	0	0
2866.21	n/a	WORD	1433105	wordpools/wasnorm_wordpool_576.txt	LTP265	ltpFR2	3	12	BALLOON	75	n/a	n/a	0	0	0
2868.908	n/a	WORD	1434454	wordpools/wasnorm_wordpool_576.txt	LTP265	ltpFR2	3	12	ANKLE	24	n/a	n/a	0	0	0
2871.714	n/a	WORD	1435857	wordpools/wasnorm_wordpool_576.txt	LTP265	ltpFR2	3	12	LEG	809	n/a	n/a	0	0	0
2874.414	n/a	WORD	1437207	wordpools/wasnorm_wordpool_576.txt	LTP265	ltpFR2	3	12	PRINCE	1124	n/a	n/a	0	0	0
2876.856	n/a	WORD	1438428	wordpools/wasnorm_wordpool_576.txt	LTP265	ltpFR2	3	12	COTTAGE	384	n/a	n/a	0	0	0
2879.482	n/a	WORD	1439741	wordpools/wasnorm_wordpool_576.txt	LTP265	ltpFR2	3	12	OUTLAW	989	n/a	n/a	0	0	0
2881.958	n/a	WORD	1440979	wordpools/wasnorm_wordpool_576.txt	LTP265	ltpFR2	3	12	RECEIPT	1173	n/a	n/a	0	0	0
2884.596	n/a	WORD	1442298	wordpools/wasnorm_wordpool_576.txt	LTP265	ltpFR2	3	12	GRIZZLY	662	n/a	n/a	0	0	0
2887.212	n/a	WORD	1443606	wordpools/wasnorm_wordpool_576.txt	LTP265	ltpFR2	3	12	LION	827	n/a	n/a	0	0	0
2889.688	n/a	WORD	1444844	wordpools/wasnorm_wordpool_576.txt	LTP265	ltpFR2	3	12	SPARROW	1347	n/a	n/a	0	0	0
2892.26	n/a	WORD	1446130	wordpools/wasnorm_wordpool_576.txt	LTP265	ltpFR2	3	12	CHAMPAGNE	278	n/a	n/a	0	0	0
2895.004	n/a	WORD	1447502	wordpools/wasnorm_wordpool_576.txt	LTP265	ltpFR2	3	12	COCKTAIL	338	n/a	n/a	0	0	0
2897.602	n/a	WORD	1448801	wordpools/wasnorm_wordpool_576.txt	LTP265	ltpFR2	3	12	GREASE	660	n/a	n/a	0	0	0
2900.424	n/a	WORD	1450212	wordpools/wasnorm_wordpool_576.txt	LTP265	ltpFR2	3	12	VALVE	1546	n/a	n/a	0	0	0
2903.156	n/a	WORD	1451578	wordpools/wasnorm_wordpool_576.txt	LTP265	ltpFR2	3	12	CROWN	415	n/a	n/a	0	0	0
2905.626	n/a	WORD	1452813	wordpools/wasnorm_wordpool_576.txt	LTP265	ltpFR2	3	12	IGLOO	734	n/a	n/a	0	0	0
2908.288	n/a	WORD	1454144	wordpools/wasnorm_wordpool_576.txt	LTP265	ltpFR2	3	12	CRUTCH	417	n/a	n/a	0	0	0
2910.802	n/a	WORD	1455401	wordpools/wasnorm_wordpool_576.txt	LTP265	ltpFR2	3	12	ASIA	46	n/a	n/a	0	0	0
2913.228	n/a	WORD	1456614	wordpools/wasnorm_wordpool_576.txt	LTP265	ltpFR2	3	12	ROCKET	1202	n/a	n/a	0	0	0
2915.8	n/a	WORD	1457900	wordpools/wasnorm_wordpool_576.txt	LTP265	ltpFR2	3	12	AUTHOR	61	n/a	n/a	0	0	0
2918.392	n/a	WORD	1459196	wordpools/wasnorm_wordpool_576.txt	LTP265	ltpFR2	3	12	TABLET	1427	n/a	n/a	0	0	0
2921.176	n/a	WORD	1460588	wordpools/wasnorm_wordpool_576.txt	LTP265	ltpFR2	3	12	INMATE	738	n/a	n/a	0	0	0
2923.968	n/a	WORD	1461984	wordpools/wasnorm_wordpool_576.txt	LTP265	ltpFR2	3	12	FOREST	593	n/a	n/a	0	0	0
2925.574	n/a	START	1462787	n/a	LTP265	ltpFR2	3	n/a	n/a	n/a	18	n/a	n/a	n/a	n/a
2926.71	n/a	DISTRACTOR	1463355	n/a	LTP265	ltpFR2	3	12	n/a	n/a	n/a	n/a	0	0	0
2926.724	n/a	PROB	1463362	n/a	LTP265	ltpFR2	3	n/a	n/a	n/a	18	6	2	1	3
2929.206	n/a	PROB	1464603	n/a	LTP265	ltpFR2	3	n/a	n/a	n/a	18	6	3	2	1
2930.54	n/a	PROB	1465270	n/a	LTP265	ltpFR2	3	n/a	n/a	n/a	18	10	3	5	2
2932.246	n/a	PROB	1466123	n/a	LTP265	ltpFR2	3	n/a	n/a	n/a	18	9	2	4	3
2934.176	n/a	PROB	1467088	n/a	LTP265	ltpFR2	3	n/a	n/a	n/a	18	7	3	3	1
2935.412	n/a	PROB	1467706	n/a	LTP265	ltpFR2	3	n/a	n/a	n/a	18	19	3	8	8
2937.232	n/a	PROB	1468616	n/a	LTP265	ltpFR2	3	n/a	n/a	n/a	18	21	7	9	5
2938.808	n/a	PROB	1469404	n/a	LTP265	ltpFR2	3	n/a	n/a	n/a	18	12	4	2	6
2940.244	n/a	PROB	1470122	n/a	LTP265	ltpFR2	3	n/a	n/a	n/a	18	11	2	4	5
2941.848	n/a	PROB	1470924	n/a	LTP265	ltpFR2	3	n/a	n/a	n/a	18	16	2	7	7
2943.454	n/a	PROB	1471727	n/a	LTP265	ltpFR2	3	n/a	n/a	n/a	18	14	2	5	7
2945.63	n/a	PROB	1472815	n/a	LTP265	ltpFR2	3	n/a	n/a	n/a	18	16	6	4	6
2946.952	n/a	PROB	1473476	n/a	LTP265	ltpFR2	3	n/a	n/a	n/a	18	21	6	6	9
2948.716	n/a	STOP	1474358	n/a	LTP265	ltpFR2	3	n/a	n/a	n/a	18	n/a	n/a	n/a	n/a
2951.392	n/a	REC_START	1475696	n/a	LTP265	ltpFR2	3	12	n/a	n/a	n/a	n/a	0	0	0
2952.938	n/a	REC_WORD	1476469	wordpools/wasnorm_wordpool_576.txt	LTP265	ltpFR2	3	12	ASIA	46	n/a	n/a	0	0	0
2953.664	n/a	REC_WORD	1476832	wordpools/wasnorm_wordpool_576.txt	LTP265	ltpFR2	3	12	COTTAGE	384	n/a	n/a	0	0	0
2954.732	n/a	REC_WORD	1477366	wordpools/wasnorm_wordpool_576.txt	LTP265	ltpFR2	3	12	IGLOO	734	n/a	n/a	0	0	0
2959.556	n/a	REC_WORD	1479778	wordpools/wasnorm_wordpool_576.txt	LTP265	ltpFR2	3	12	PRINCE	1124	n/a	n/a	0	0	0
2962.238	n/a	REC_WORD	1481119	wordpools/wasnorm_wordpool_576.txt	LTP265	ltpFR2	3	12	AUTHOR	61	n/a	n/a	0	0	0
2964.846	n/a	REC_WORD	1482423	wordpools/wasnorm_wordpool_576.txt	LTP265	ltpFR2	3	12	TABLET	1427	n/a	n/a	0	0	0
2966.202	n/a	REC_WORD	1483101	wordpools/wasnorm_wordpool_576.txt	LTP265	ltpFR2	3	12	BALLOON	75	n/a	n/a	0	0	0
2966.98	n/a	REC_WORD	1483490	wordpools/wasnorm_wordpool_576.txt	LTP265	ltpFR2	3	12	HAWK	692	n/a	n/a	0	0	0
2989.208	n/a	REC_WORD	1494604	wordpools/wasnorm_wordpool_576.txt	LTP265	ltpFR2	3	12	FOREST	593	n/a	n/a	0	0	0
3003.682	n/a	REC_WORD	1501841	wordpools/wasnorm_wordpool_576.txt	LTP265	ltpFR2	3	12	GRIZZLY	662	n/a	n/a	0	0	0
3004.65	n/a	REC_WORD	1502325	wordpools/wasnorm_wordpool_576.txt	LTP265	ltpFR2	3	12	LION	827	n/a	n/a	0	0	0
3014.524	n/a	REC_WORD	1507262	wordpools/wasnorm_wordpool_576.txt	LTP265	ltpFR2	3	12	RECEIPT	1173	n/a	n/a	0	0	0
3042.438	n/a	WORD	1521219	wordpools/wasnorm_wordpool_576.txt	LTP265	ltpFR2	3	13	MOTOR	922	n/a	n/a	0	0	0
3045.016	n/a	WORD	1522508	wordpools/wasnorm_wordpool_576.txt	LTP265	ltpFR2	3	13	SISTER	1312	n/a	n/a	0	0	0
3047.708	n/a	WORD	1523854	wordpools/wasnorm_wordpool_576.txt	LTP265	ltpFR2	3	13	BROTHER	179	n/a	n/a	0	0	0
3050.502	n/a	WORD	1525251	wordpools/wasnorm_wordpool_576.txt	LTP265	ltpFR2	3	13	WARDROBE	1587	n/a	n/a	0	0	0
3052.928	n/a	WORD	1526464	wordpools/wasnorm_wordpool_576.txt	LTP265	ltpFR2	3	13	BUREAU	199	n/a	n/a	0	0	0
3055.42	n/a	WORD	1527710	wordpools/wasnorm_wordpool_576.txt	LTP265	ltpFR2	3	13	BIKE	125	n/a	n/a	0	0	0
3058.014	n/a	WORD	1529007	wordpools/wasnorm_wordpool_576.txt	LTP265	ltpFR2	3	13	HELMET	702	n/a	n/a	0	0	0
3060.62	n/a	WORD	1530310	wordpools/wasnorm_wordpool_576.txt	LTP265	ltpFR2	3	13	MESSAGE	888	n/a	n/a	0	0	0
3063.352	n/a	WORD	1531676	wordpools/wasnorm_wordpool_576.txt	LTP265	ltpFR2	3	13	SCARECROW	1245	n/a	n/a	0	0	0
3065.844	n/a	WORD	1532922	wordpools/wasnorm_wordpool_576.txt	LTP265	ltpFR2	3	13	XEROX	1628	n/a	n/a	0	0	0
3068.354	n/a	WORD	1534177	wordpools/wasnorm_wordpool_576.txt	LTP265	ltpFR2	3	13	AIRPORT	13	n/a	n/a	0	0	0
3071.032	n/a	WORD	1535516	wordpools/wasnorm_wordpool_576.txt	LTP265	ltpFR2	3	13	LUGGAGE	847	n/a	n/a	0	0	0
3073.636	n/a	WORD	1536818	wordpools/wasnorm_wordpool_576.txt	LTP265	ltpFR2	3	13	BABY	64	n/a	n/a	0	0	0
3076.202	n/a	WORD	1538101	wordpools/wasnorm_wordpool_576.txt	LTP265	ltpFR2	3	13	RATTLE	1170	n/a	n/a	0	0	0
3078.844	n/a	WORD	1539422	wordpools/wasnorm_wordpool_576.txt	LTP265	ltpFR2	3	13	AIRPLANE	12	n/a	n/a	0	0	0
3081.272	n/a	WORD	1540636	wordpools/wasnorm_wordpool_576.txt	LTP265	ltpFR2	3	13	LADDER	793	n/a	n/a	0	0	0
3084.082	n/a	WORD	1542041	wordpools/wasnorm_wordpool_576.txt	LTP265	ltpFR2	3	13	KETCHUP	771	n/a	n/a	0	0	0
3086.69	n/a	WORD	1543345	wordpools/wasnorm_wordpool_576.txt	LTP265	ltpFR2	3	13	YARN	1631	n/a	n/a	0	0	0
3089.328	n/a	WORD	1544664	wordpools/wasnorm_wordpool_576.txt	LTP265	ltpFR2	3	13	TRUCK	1512	n/a	n/a	0	0	0
3092.106	n/a	WORD	1546053	wordpools/wasnorm_wordpool_576.txt	LTP265	ltpFR2	3	13	SHORTCAKE	1292	n/a	n/a	0	0	0
3094.732	n/a	WORD	1547366	wordpools/wasnorm_wordpool_576.txt	LTP265	ltpFR2	3	13	CHILD	299	n/a	n/a	0	0	0
3097.3	n/a	WORD	1548650	wordpools/wasnorm_wordpool_576.txt	LTP265	ltpFR2	3	13	SURVEY	1414	n/a	n/a	0	0	0
3100.01	n/a	WORD	1550005	wordpools/wasnorm_wordpool_576.txt	LTP265	ltpFR2	3	13	JUNGLE	764	n/a	n/a	0	0	0
3102.802	n/a	WORD	1551401	wordpools/wasnorm_wordpool_576.txt	LTP265	ltpFR2	3	13	SPOOL	1356	n/a	n/a	0	0	0
3104.408	n/a	START	1552204	n/a	LTP265	ltpFR2	3	n/a	n/a	n/a	19	n/a	n/a	n/a	n/a
3105.444	n/a	DISTRACTOR	1552722	n/a	LTP265	ltpFR2	3	13	n/a	n/a	n/a	n/a	0	0	0
3105.462	n/a	PROB	1552731	n/a	LTP265	ltpFR2	3	n/a	n/a	n/a	19	16	2	8	6
3107.688	n/a	PROB	1553844	n/a	LTP265	ltpFR2	3	n/a	n/a	n/a	19	13	5	2	6
3109.138	n/a	PROB	1554569	n/a	LTP265	ltpFR2	3	n/a	n/a	n/a	19	13	4	9	1
3110.85	n/a	PROB	1555425	n/a	LTP265	ltpFR2	3	n/a	n/a	n/a	19	23	9	5	9
3114.81	n/a	PROB	1557405	n/a	LTP265	ltpFR2	3	n/a	n/a	n/a	19	16	9	3	4
3116.516	n/a	PROB	1558258	n/a	LTP265	ltpFR2	3	n/a	n/a	n/a	19	20	7	9	4
3118.274	n/a	PROB	1559137	n/a	LTP265	ltpFR2	3	n/a	n/a	n/a	19	18	9	8	1
3120.52	n/a	PROB	1560260	n/a	LTP265	ltpFR2	3	n/a	n/a	n/a	19	13	5	7	1
3122.194	n/a	PROB	1561097	n/a	LTP265	ltpFR2	3	n/a	n/a	n/a	19	22	9	7	6
3125.306	n/a	PROB	1562653	n/a	LTP265	ltpFR2	3	n/a	n/a	n/a	19	13	4	2	7
3126.846	n/a	STOP	1563423	n/a	LTP265	ltpFR2	3	n/a	n/a	n/a	19	n/a	n/a	n/a	n/a
3130.174	n/a	REC_START	1565087	n/a	LTP265	ltpFR2	3	13	n/a	n/a	n/a	n/a	0	0	0
3141.192	n/a	REC_WORD	1570596	wordpools/wasnorm_wordpool_576.txt	LTP265	ltpFR2	3	13	BROTHER	179	n/a	n/a	0	0	0
3141.708	n/a	REC_WORD	1570854	wordpools/wasnorm_wordpool_576.txt	LTP265	ltpFR2	3	13	SISTER	1312	n/a	n/a	0	0	0
3142.578	n/a	REC_WORD	1571289	wordpools/wasnorm_wordpool_576.txt	LTP265	ltpFR2	3	13	CHILD	299	n/a	n/a	0	0	0
3143.692	n/a	REC_WORD	1571846	wordpools/wasnorm_wordpool_576.txt	LTP265	ltpFR2	3	13	BABY	64	n/a	n/a	0	0	0
3144.262	n/a	REC_WORD	1572131	wordpools/wasnorm_wordpool_576.txt	LTP265	ltpFR2	3	13	RATTLE	1170	n/a	n/a	0	0	0
3159.024	n/a	REC_WORD	1579512	wordpools/wasnorm_wordpool_576.txt	LTP265	ltpFR2	3	13	MOTOR	922	n/a	n/a	0	0	0
3160.864	n/a	REC_WORD	1580432	wordpools/wasnorm_wordpool_576.txt	LTP265	ltpFR2	3	13	AIRPORT	13	n/a	n/a	0	0	0
3161.746	n/a	REC_WORD	1580873	wordpools/wasnorm_wordpool_576.txt	LTP265	ltpFR2	3	13	AIRPLANE	12	n/a	n/a	0	0	0
3162.604	n/a	REC_WORD	1581302	wordpools/wasnorm_wordpool_576.txt	LTP265	ltpFR2	3	13	LUGGAGE	847	n/a	n/a	0	0	0
3180.194	n/a	REC_WORD	1590097	wordpools/wasnorm_wordpool_576.txt	LTP265	ltpFR2	3	13	BIKE	125	n/a	n/a	0	0	0
3221.24	n/a	DISTRACTOR	1610620	n/a	LTP265	ltpFR2	3	14	n/a	n/a	n/a	n/a	0	0	0
3221.24	n/a	START	1610620	n/a	LTP265	ltpFR2	3	n/a	n/a	n/a	20	n/a	n/a	n/a	n/a
3221.29	n/a	PROB	1610645	n/a	LTP265	ltpFR2	3	n/a	n/a	n/a	20	18	5	5	8
3223.392	n/a	PROB	1611696	n/a	LTP265	ltpFR2	3	n/a	n/a	n/a	20	18	3	6	9
3224.814	n/a	PROB	1612407	n/a	LTP265	ltpFR2	3	n/a	n/a	n/a	20	9	2	2	5
3228.278	n/a	PROB	1614139	n/a	LTP265	ltpFR2	3	n/a	n/a	n/a	20	6	3	1	2
3230.168	n/a	PROB	1615084	n/a	LTP265	ltpFR2	3	n/a	n/a	n/a	20	25	9	9	7
3231.79	n/a	PROB	1615895	n/a	LTP265	ltpFR2	3	n/a	n/a	n/a	20	22	9	6	7
3233.648	n/a	PROB	1616824	n/a	LTP265	ltpFR2	3	n/a	n/a	n/a	20	21	5	9	7
3236.542	n/a	PROB	1618271	n/a	LTP265	ltpFR2	3	n/a	n/a	n/a	20	15	7	1	7
3238.604	n/a	PROB	1619302	n/a	LTP265	ltpFR2	3	n/a	n/a	n/a	20	18	9	4	5
3240.628	n/a	PROB	1620314	n/a	LTP265	ltpFR2	3	n/a	n/a	n/a	20	25	9	9	7
3242.38	n/a	PROB	1621190	n/a	LTP265	ltpFR2	3	n/a	n/a	n/a	20	14	3	8	3
3244.556	n/a	STOP	1622278	n/a	LTP265	ltpFR2	3	n/a	n/a	n/a	20	n/a	n/a	n/a	n/a
3246.252	n/a	WORD	1623126	wordpools/wasnorm_wordpool_576.txt	LTP265	ltpFR2	3	14	GIRL	637	n/a	n/a	0	0	0
3248.86	n/a	WORD	1624430	wordpools/wasnorm_wordpool_576.txt	LTP265	ltpFR2	3	14	LOFT	840	n/a	n/a	0	0	0
3251.638	n/a	WORD	1625819	wordpools/wasnorm_wordpool_576.txt	LTP265	ltpFR2	3	14	BOYFRIEND	162	n/a	n/a	0	0	0
3254.278	n/a	WORD	1627139	wordpools/wasnorm_wordpool_576.txt	LTP265	ltpFR2	3	14	KNAPSACK	783	n/a	n/a	0	0	0
3257.076	n/a	WORD	1628538	wordpools/wasnorm_wordpool_576.txt	LTP265	ltpFR2	3	14	SNACK	1331	n/a	n/a	0	0	0
3259.818	n/a	WORD	1629909	wordpools/wasnorm_wordpool_576.txt	LTP265	ltpFR2	3	14	PICNIC	1060	n/a	n/a	0	0	0
3262.28	n/a	WORD	1631140	wordpools/wasnorm_wordpool_576.txt	LTP265	ltpFR2	3	14	LADY	794	n/a	n/a	0	0	0
3264.906	n/a	WORD	1632453	wordpools/wasnorm_wordpool_576.txt	LTP265	ltpFR2	3	14	GRAVEL	659	n/a	n/a	0	0	0
3267.7	n/a	WORD	1633850	wordpools/wasnorm_wordpool_576.txt	LTP265	ltpFR2	3	14	CHEST	295	n/a	n/a	0	0	0
3270.226	n/a	WORD	1635113	wordpools/wasnorm_wordpool_576.txt	LTP265	ltpFR2	3	14	MATTRESS	879	n/a	n/a	0	0	0
3272.852	n/a	WORD	1636426	wordpools/wasnorm_wordpool_576.txt	LTP265	ltpFR2	3	14	GARBAGE	622	n/a	n/a	0	0	0
3275.44	n/a	WORD	1637720	wordpools/wasnorm_wordpool_576.txt	LTP265	ltpFR2	3	14	LIPSTICK	829	n/a	n/a	0	0	0
3278.102	n/a	WORD	1639051	wordpools/wasnorm_wordpool_576.txt	LTP265	ltpFR2	3	14	DONKEY	484	n/a	n/a	0	0	0
3280.594	n/a	WORD	1640297	wordpools/wasnorm_wordpool_576.txt	LTP265	ltpFR2	3	14	CANYON	235	n/a	n/a	0	0	0
3283.054	n/a	WORD	1641527	wordpools/wasnorm_wordpool_576.txt	LTP265	ltpFR2	3	14	DRILL	497	n/a	n/a	0	0	0
3285.852	n/a	WORD	1642926	wordpools/wasnorm_wordpool_576.txt	LTP265	ltpFR2	3	14	PLUTO	1092	n/a	n/a	0	0	0
3288.546	n/a	WORD	1644273	wordpools/wasnorm_wordpool_576.txt	LTP265	ltpFR2	3	14	AGENT	10	n/a	n/a	0	0	0
3291.056	n/a	WORD	1645528	wordpools/wasnorm_wordpool_576.txt	LTP265	ltpFR2	3	14	CLOTHES	327	n/a	n/a	0	0	0
3293.832	n/a	WORD	1646916	wordpools/wasnorm_wordpool_576.txt	LTP265	ltpFR2	3	14	TUNNEL	1519	n/a	n/a	0	0	0
3296.336	n/a	WORD	1648168	wordpools/wasnorm_wordpool_576.txt	LTP265	ltpFR2	3	14	HIGHWAY	707	n/a	n/a	0	0	0
3299.136	n/a	WORD	1649568	wordpools/wasnorm_wordpool_576.txt	LTP265	ltpFR2	3	14	SLIDE	1326	n/a	n/a	0	0	0
3301.746	n/a	WORD	1650873	wordpools/wasnorm_wordpool_576.txt	LTP265	ltpFR2	3	14	RIFLE	1192	n/a	n/a	0	0	0
3304.29	n/a	WORD	1652145	wordpools/wasnorm_wordpool_576.txt	LTP265	ltpFR2	3	14	GANGSTER	620	n/a	n/a	0	0	0
3307.118	n/a	WORD	1653559	wordpools/wasnorm_wordpool_576.txt	LTP265	ltpFR2	3	14	BOX	159	n/a	n/a	0	0	0
3308.734	n/a	START	1654367	n/a	LTP265	ltpFR2	3	n/a	n/a	n/a	21	n/a	n/a	n/a	n/a
3309.876	n/a	DISTRACTOR	1654938	n/a	LTP265	ltpFR2	3	14	n/a	n/a	n/a	n/a	0	0	0
3309.888	n/a	PROB	1654944	n/a	LTP265	ltpFR2	3	n/a	n/a	n/a	21	18	6	8	4
3312.266	n/a	PROB	1656133	n/a	LTP265	ltpFR2	3	n/a	n/a	n/a	21	11	3	2	6
3313.72	n/a	PROB	1656860	n/a	LTP265	ltpFR2	3	n/a	n/a	n/a	21	19	9	7	3
3315.46	n/a	PROB	1657730	n/a	LTP265	ltpFR2	3	n/a	n/a	n/a	21	12	3	8	1
3316.87	n/a	PROB	1658435	n/a	LTP265	ltpFR2	3	n/a	n/a	n/a	21	18	8	4	6
3318.79	n/a	PROB	1659395	n/a	LTP265	ltpFR2	3	n/a	n/a	n/a	21	16	9	3	4
3320.698	n/a	PROB	1660349	n/a	LTP265	ltpFR2	3	n/a	n/a	n/a	21	17	8	3	6
3322.37	n/a	PROB	1661185	n/a	LTP265	ltpFR2	3	n/a	n/a	n/a	21	23	8	6	9
3326.052	n/a	PROB	1663026	n/a	LTP265	ltpFR2	3	n/a	n/a	n/a	21	10	7	1	2
3327.942	n/a	PROB	1663971	n/a	LTP265	ltpFR2	3	n/a	n/a	n/a	21	5	1	1	3
3329.38	n/a	PROB	1664690	n/a	LTP265	ltpFR2	3	n/a	n/a	n/a	21	9	2	4	3
3332.736	n/a	STOP	1666368	n/a	LTP265	ltpFR2	3	n/a	n/a	n/a	21	n/a	n/a	n/a	n/a
3334.622	n/a	REC_START	1667311	n/a	LTP265	ltpFR2	3	14	n/a	n/a	n/a	n/a	0	0	0
3336.468	n/a	REC_WORD	1668234	wordpools/wasnorm_wordpool_576.txt	LTP265	ltpFR2	3	14	GANGSTER	620	n/a	n/a	0	0	0
3337.184	n/a	REC_WORD	1668592	wordpools/wasnorm_wordpool_576.txt	LTP265	ltpFR2	3	14	RIFLE	1192	n/a	n/a	0	0	0
3338.01	n/a	REC_WORD	1669005	wordpools/wasnorm_wordpool_576.txt	LTP265	ltpFR2	3	14	SLIDE	1326	n/a	n/a	0	0	0
3339.018	n/a	REC_WORD	1669509	wordpools/wasnorm_wordpool_576.txt	LTP265	ltpFR2	3	14	TUNNEL	1519	n/a	n/a	0	0	0
3340.586	n/a	REC_WORD	1670293	wordpools/wasnorm_wordpool_576.txt	LTP265	ltpFR2	3	14	CLOTHES	327	n/a	n/a	0	0	0
3342.598	n/a	REC_WORD	1671299	wordpools/wasnorm_wordpool_576.txt	LTP265	ltpFR2	3	14	DRILL	497	n/a	n/a	0	0	0
3343.414	n/a	REC_WORD	1671707	wordpools/wasnorm_wordpool_576.txt	LTP265	ltpFR2	3	14	PLUTO	1092	n/a	n/a	0	0	0
3345.48	n/a	REC_WORD	1672740	wordpools/wasnorm_wordpool_576.txt	LTP265	ltpFR2	3	14	MATTRESS	879	n/a	n/a	0	0	0
3346.48	n/a	REC_WORD_VV	1673240	wordpools/wasnorm_wordpool_576.txt	LTP265	ltpFR2	3	14	<>	-1	n/a	n/a	0	0	0
3347.608	n/a	REC_WORD	1673804	wordpools/wasnorm_wordpool_576.txt	LTP265	ltpFR2	3	14	LADY	794	n/a	n/a	0	0	0
3348.988	n/a	REC_WORD	1674494	wordpools/wasnorm_wordpool_576.txt	LTP265	ltpFR2	3	14	GRAVEL	659	n/a	n/a	0	0	0
3350.068	n/a	REC_WORD	1675034	wordpools/wasnorm_wordpool_576.txt	LTP265	ltpFR2	3	14	GARBAGE	622	n/a	n/a	0	0	0
3352.444	n/a	REC_WORD	1676222	wordpools/wasnorm_wordpool_576.txt	LTP265	ltpFR2	3	14	LIPSTICK	829	n/a	n/a	0	0	0
3353.256	n/a	REC_WORD	1676628	wordpools/wasnorm_wordpool_576.txt	LTP265	ltpFR2	3	14	DONKEY	484	n/a	n/a	0	0	0
3353.888	n/a	REC_WORD	1676944	wordpools/wasnorm_wordpool_576.txt	LTP265	ltpFR2	3	14	CANYON	235	n/a	n/a	0	0	0
3357.342	n/a	REC_WORD	1678671	wordpools/wasnorm_wordpool_576.txt	LTP265	ltpFR2	3	14	GIRL	637	n/a	n/a	0	0	0
3358.268	n/a	REC_WORD	1679134	wordpools/wasnorm_wordpool_576.txt	LTP265	ltpFR2	3	14	LOFT	840	n/a	n/a	0	0	0
3360.384	n/a	REC_WORD	1680192	wordpools/wasnorm_wordpool_576.txt	LTP265	ltpFR2	3	14	BOYFRIEND	162	n/a	n/a	0	0	0
3376.446	n/a	REC_WORD	1688223	wordpools/wasnorm_wordpool_576.txt	LTP265	ltpFR2	3	14	BOX	159	n/a	n/a	0	0	0
3425.67	n/a	WORD	1712835	wordpools/wasnorm_wordpool_576.txt	LTP265	ltpFR2	3	15	TRIBE	1505	n/a	n/a	0	0	0
3428.208	n/a	WORD	1714104	wordpools/wasnorm_wordpool_576.txt	LTP265	ltpFR2	3	15	GLOBE	641	n/a	n/a	0	0	0
3430.738	n/a	WORD	1715369	wordpools/wasnorm_wordpool_576.txt	LTP265	ltpFR2	3	15	CIGAR	308	n/a	n/a	0	0	0
3433.334	n/a	WORD	1716667	wordpools/wasnorm_wordpool_576.txt	LTP265	ltpFR2	3	15	SADDLE	1221	n/a	n/a	0	0	0
3435.792	n/a	WORD	1717896	wordpools/wasnorm_wordpool_576.txt	LTP265	ltpFR2	3	15	BUGGY	188	n/a	n/a	0	0	0
3438.402	n/a	WORD	1719201	wordpools/wasnorm_wordpool_576.txt	LTP265	ltpFR2	3	15	EMPIRE	530	n/a	n/a	0	0	0
3440.89	n/a	WORD	1720445	wordpools/wasnorm_wordpool_576.txt	LTP265	ltpFR2	3	15	CELLAR	267	n/a	n/a	0	0	0
3443.42	n/a	WORD	1721710	wordpools/wasnorm_wordpool_576.txt	LTP265	ltpFR2	3	15	NOMAD	955	n/a	n/a	0	0	0
3446.094	n/a	WORD	1723047	wordpools/wasnorm_wordpool_576.txt	LTP265	ltpFR2	3	15	FRAME	600	n/a	n/a	0	0	0
3448.624	n/a	WORD	1724312	wordpools/wasnorm_wordpool_576.txt	LTP265	ltpFR2	3	15	JURY	766	n/a	n/a	0	0	0
3451.396	n/a	WORD	1725698	wordpools/wasnorm_wordpool_576.txt	LTP265	ltpFR2	3	15	STAR	1373	n/a	n/a	0	0	0
3454.196	n/a	WORD	1727098	wordpools/wasnorm_wordpool_576.txt	LTP265	ltpFR2	3	15	FRIAR	605	n/a	n/a	0	0	0
3456.99	n/a	WORD	1728495	wordpools/wasnorm_wordpool_576.txt	LTP265	ltpFR2	3	15	CHAPEL	280	n/a	n/a	0	0	0
3459.7	n/a	WORD	1729850	wordpools/wasnorm_wordpool_576.txt	LTP265	ltpFR2	3	15	CABIN	211	n/a	n/a	0	0	0
3462.444	n/a	WORD	1731222	wordpools/wasnorm_wordpool_576.txt	LTP265	ltpFR2	3	15	WITNESS	1618	n/a	n/a	0	0	0
3465.07	n/a	WORD	1732535	wordpools/wasnorm_wordpool_576.txt	LTP265	ltpFR2	3	15	BLENDER	136	n/a	n/a	0	0	0
3467.764	n/a	WORD	1733882	wordpools/wasnorm_wordpool_576.txt	LTP265	ltpFR2	3	15	TART	1436	n/a	n/a	0	0	0
3470.492	n/a	WORD	1735246	wordpools/wasnorm_wordpool_576.txt	LTP265	ltpFR2	3	15	SWAMP	1416	n/a	n/a	0	0	0
3473.136	n/a	WORD	1736568	wordpools/wasnorm_wordpool_576.txt	LTP265	ltpFR2	3	15	PEANUT	1032	n/a	n/a	0	0	0
3475.728	n/a	WORD	1737864	wordpools/wasnorm_wordpool_576.txt	LTP265	ltpFR2	3	15	POPCORN	1104	n/a	n/a	0	0	0
3478.188	n/a	WORD	1739094	wordpools/wasnorm_wordpool_576.txt	LTP265	ltpFR2	3	15	PORK	1108	n/a	n/a	0	0	0
3480.642	n/a	WORD	1740321	wordpools/wasnorm_wordpool_576.txt	LTP265	ltpFR2	3	15	PEDAL	1037	n/a	n/a	0	0	0
3483.152	n/a	WORD	1741576	wordpools/wasnorm_wordpool_576.txt	LTP265	ltpFR2	3	15	MILK	895	n/a	n/a	0	0	0
3485.666	n/a	WORD	1742833	wordpools/wasnorm_wordpool_576.txt	LTP265	ltpFR2	3	15	WASP	1593	n/a	n/a	0	0	0
3487.272	n/a	START	1743636	n/a	LTP265	ltpFR2	3	n/a	n/a	n/a	22	n/a	n/a	n/a	n/a
3488.396	n/a	DISTRACTOR	1744198	n/a	LTP265	ltpFR2	3	15	n/a	n/a	n/a	n/a	0	0	0
3488.41	n/a	PROB	1744205	n/a	LTP265	ltpFR2	3	n/a	n/a	n/a	22	11	5	3	3
3491.082	n/a	PROB	1745541	n/a	LTP265	ltpFR2	3	n/a	n/a	n/a	22	4	1	1	2
3492.326	n/a	PROB	1746163	n/a	LTP265	ltpFR2	3	n/a	n/a	n/a	22	7	1	2	4
3493.96	n/a	PROB	1746980	n/a	LTP265	ltpFR2	3	n/a	n/a	n/a	22	16	6	9	1
3496.602	n/a	PROB	1748301	n/a	LTP265	ltpFR2	3	n/a	n/a	n/a	22	12	2	9	1
3498.392	n/a	PROB	1749196	n/a	LTP265	ltpFR2	3	n/a	n/a	n/a	22	13	4	5	4
3501.37	n/a	PROB	1750685	n/a	LTP265	ltpFR2	3	n/a	n/a	n/a	22	17	4	6	7
3503.062	n/a	PROB	1751531	n/a	LTP265	ltpFR2	3	n/a	n/a	n/a	22	10	4	1	5
3505.036	n/a	PROB	1752518	n/a	LTP265	ltpFR2	3	n/a	n/a	n/a	22	13	5	4	4
3506.842	n/a	PROB	1753421	n/a	LTP265	ltpFR2	3	n/a	n/a	n/a	22	16	2	6	8
3508.298	n/a	PROB	1754149	n/a	LTP265	ltpFR2	3	n/a	n/a	n/a	22	13	6	4	3
3509.502	n/a	PROB	1754751	n/a	LTP265	ltpFR2	3	n/a	n/a	n/a	22	11	2	3	6
3510.81	n/a	STOP	1755405	n/a	LTP265	ltpFR2	3	n/a	n/a	n/a	22	n/a	n/a	n/a	n/a
3513.05	n/a	REC_START	1756525	n/a	LTP265	ltpFR2	3	15	n/a	n/a	n/a	n/a	0	0	0
3514.762	n/a	REC_WORD	1757381	wordpools/wasnorm_wordpool_576.txt	LTP265	ltpFR2	3	15	WASP	1593	n/a	n/a	0	0	0
3516.072	n/a	REC_WORD	1758036	wordpools/wasnorm_wordpool_576.txt	LTP265	ltpFR2	3	15	PEDAL	1037	n/a	n/a	0	0	0
3517.01	n/a	REC_WORD	1758505	wordpools/wasnorm_wordpool_576.txt	LTP265	ltpFR2	3	15	MILK	895	n/a	n/a	0	0	0
3519.79	n/a	REC_WORD	1759895	wordpools/wasnorm_wordpool_576.txt	LTP265	ltpFR2	3	15	PEANUT	1032	n/a	n/a	0	0	0
3520.568	n/a	REC_WORD	1760284	wordpools/wasnorm_wordpool_576.txt	LTP265	ltpFR2	3	15	PORK	1108	n/a	n/a	0	0	0
3521.538	n/a	REC_WORD	1760769	wordpools/wasnorm_wordpool_576.txt	LTP265	ltpFR2	3	15	BLENDER	136	n/a	n/a	0	0	0
3522.766	n/a	REC_WORD	1761383	wordpools/wasnorm_wordpool_576.txt	LTP265	ltpFR2	3	15	WITNESS	1618	n/a	n/a	0	0	0
3531.242	n/a	REC_WORD	1765621	wordpools/wasnorm_wordpool_576.txt	LTP265	ltpFR2	3	15	FRIAR	605	n/a	n/a	0	0	0
3532.272	n/a	REC_WORD	1766136	wordpools/wasnorm_wordpool_576.txt	LTP265	ltpFR2	3	15	FRAME	600	n/a	n/a	0	0	0
3542.752	n/a	REC_WORD	1771376	wordpools/wasnorm_wordpool_576.txt	LTP265	ltpFR2	3	15	CHAPEL	280	n/a	n/a	0	0	0
3546.77	n/a	REC_WORD	1773385	wordpools/wasnorm_wordpool_576.txt	LTP265	ltpFR2	3	15	CABIN	211	n/a	n/a	0	0	0
3604.07	n/a	DISTRACTOR	1802035	n/a	LTP265	ltpFR2	3	16	n/a	n/a	n/a	n/a	0	0	0
3604.07	n/a	START	1802035	n/a	LTP265	ltpFR2	3	n/a	n/a	n/a	23	n/a	n/a	n/a	n/a
3604.12	n/a	PROB	1802060	n/a	LTP265	ltpFR2	3	n/a	n/a	n/a	23	19	7	5	7
3606.774	n/a	PROB	1803387	n/a	LTP265	ltpFR2	3	n/a	n/a	n/a	23	16	2	6	8
3608.28	n/a	PROB	1804140	n/a	LTP265	ltpFR2	3	n/a	n/a	n/a	23	17	8	6	3
3609.968	n/a	PROB	1804984	n/a	LTP265	ltpFR2	3	n/a	n/a	n/a	23	15	4	6	5
3611.792	n/a	PROB	1805896	n/a	LTP265	ltpFR2	3	n/a	n/a	n/a	23	20	9	9	2
3613.238	n/a	PROB	1806619	n/a	LTP265	ltpFR2	3	n/a	n/a	n/a	23	17	4	5	8
3614.77	n/a	PROB	1807385	n/a	LTP265	ltpFR2	3	n/a	n/a	n/a	23	18	8	6	4
3616.244	n/a	PROB	1808122	n/a	LTP265	ltpFR2	3	n/a	n/a	n/a	23	17	9	4	4
3618.34	n/a	PROB	1809170	n/a	LTP265	ltpFR2	3	n/a	n/a	n/a	23	21	8	9	4
3620.192	n/a	PROB	1810096	n/a	LTP265	ltpFR2	3	n/a	n/a	n/a	23	12	6	2	4
3621.68	n/a	PROB	1810840	n/a	LTP265	ltpFR2	3	n/a	n/a	n/a	23	13	6	3	4
3623.46	n/a	PROB	1811730	n/a	LTP265	ltpFR2	3	n/a	n/a	n/a	23	21	9	6	9
3625.178	n/a	PROB	1812589	n/a	LTP265	ltpFR2	3	n/a	n/a	n/a	23	11	3	6	2
3627.328	n/a	STOP	1813664	n/a	LTP265	ltpFR2	3	n/a	n/a	n/a	23	n/a	n/a	n/a	n/a
3628.964	n/a	WORD	1814482	wordpools/wasnorm_wordpool_576.txt	LTP265	ltpFR2	3	16	SUNSET	1408	n/a	n/a	0	0	0
3631.506	n/a	WORD	1815753	wordpools/wasnorm_wordpool_576.txt	LTP265	ltpFR2	3	16	STREAM	1392	n/a	n/a	0	0	0
3634.162	n/a	WORD	1817081	wordpools/wasnorm_wordpool_576.txt	LTP265	ltpFR2	3	16	BROOK	177	n/a	n/a	0	0	0
3636.726	n/a	WORD	1818363	wordpools/wasnorm_wordpool_576.txt	LTP265	ltpFR2	3	16	PACKAGE	997	n/a	n/a	0	0	0
3639.538	n/a	WORD	1819769	wordpools/wasnorm_wordpool_576.txt	LTP265	ltpFR2	3	16	CURTAIN	427	n/a	n/a	0	0	0
3642.198	n/a	WORD	1821099	wordpools/wasnorm_wordpool_576.txt	LTP265	ltpFR2	3	16	CHURCH	307	n/a	n/a	0	0	0
3644.706	n/a	WORD	1822353	wordpools/wasnorm_wordpool_576.txt	LTP265	ltpFR2	3	16	JAPAN	749	n/a	n/a	0	0	0
3647.35	n/a	WORD	1823675	wordpools/wasnorm_wordpool_576.txt	LTP265	ltpFR2	3	16	LAPEL	800	n/a	n/a	0	0	0
3650.028	n/a	WORD	1825014	wordpools/wasnorm_wordpool_576.txt	LTP265	ltpFR2	3	16	ACTOR	5	n/a	n/a	0	0	0
3652.766	n/a	WORD	1826383	wordpools/wasnorm_wordpool_576.txt	LTP265	ltpFR2	3	16	TYPIST	1532	n/a	n/a	0	0	0
3655.38	n/a	WORD	1827690	wordpools/wasnorm_wordpool_576.txt	LTP265	ltpFR2	3	16	GLASS	639	n/a	n/a	0	0	0
3658.06	n/a	WORD	1829030	wordpools/wasnorm_wordpool_576.txt	LTP265	ltpFR2	3	16	QUEEN	1149	n/a	n/a	0	0	0
3660.802	n/a	WORD	1830401	wordpools/wasnorm_wordpool_576.txt	LTP265	ltpFR2	3	16	LONDON	843	n/a	n/a	0	0	0
3663.512	n/a	WORD	1831756	wordpools/wasnorm_wordpool_576.txt	LTP265	ltpFR2	3	16	TURKEY	1520	n/a	n/a	0	0	0
3666.016	n/a	WORD	1833008	wordpools/wasnorm_wordpool_576.txt	LTP265	ltpFR2	3	16	PADDING	999	n/a	n/a	0	0	0
3668.442	n/a	WORD	1834221	wordpools/wasnorm_wordpool_576.txt	LTP265	ltpFR2	3	16	JEANS	752	n/a	n/a	0	0	0
3670.906	n/a	WORD	1835453	wordpools/wasnorm_wordpool_576.txt	LTP265	ltpFR2	3	16	POCKET	1093	n/a	n/a	0	0	0
3673.7	n/a	WORD	1836850	wordpools/wasnorm_wordpool_576.txt	LTP265	ltpFR2	3	16	PREACHER	1119	n/a	n/a	0	0	0
3676.128	n/a	WORD	1838064	wordpools/wasnorm_wordpool_576.txt	LTP265	ltpFR2	3	16	TERMITE	1451	n/a	n/a	0	0	0
3678.698	n/a	WORD	1839349	wordpools/wasnorm_wordpool_576.txt	LTP265	ltpFR2	3	16	SPACE	1345	n/a	n/a	0	0	0
3681.398	n/a	WORD	1840699	wordpools/wasnorm_wordpool_576.txt	LTP265	ltpFR2	3	16	CUSTARD	429	n/a	n/a	0	0	0
3684.17	n/a	WORD	1842085	wordpools/wasnorm_wordpool_576.txt	LTP265	ltpFR2	3	16	SODA	1341	n/a	n/a	0	0	0
3686.718	n/a	WORD	1843359	wordpools/wasnorm_wordpool_576.txt	LTP265	ltpFR2	3	16	NIGHTGOWN	953	n/a	n/a	0	0	0
3689.206	n/a	WORD	1844603	wordpools/wasnorm_wordpool_576.txt	LTP265	ltpFR2	3	16	SUNRISE	1407	n/a	n/a	0	0	0
3690.816	n/a	START	1845408	n/a	LTP265	ltpFR2	3	n/a	n/a	n/a	24	n/a	n/a	n/a	n/a
3691.658	n/a	DISTRACTOR	1845829	n/a	LTP265	ltpFR2	3	16	n/a	n/a	n/a	n/a	0	0	0
3691.67	n/a	PROB	1845835	n/a	LTP265	ltpFR2	3	n/a	n/a	n/a	24	13	2	6	5
3694.024	n/a	PROB	1847012	n/a	LTP265	ltpFR2	3	n/a	n/a	n/a	24	22	9	7	6
3695.614	n/a	PROB	1847807	n/a	LTP265	ltpFR2	3	n/a	n/a	n/a	24	10	2	2	6
3697.086	n/a	PROB	1848543	n/a	LTP265	ltpFR2	3	n/a	n/a	n/a	24	11	2	2	7
3698.83	n/a	PROB	1849415	n/a	LTP265	ltpFR2	3	n/a	n/a	n/a	24	11	3	5	3
3700.398	n/a	PROB	1850199	n/a	LTP265	ltpFR2	3	n/a	n/a	n/a	24	20	8	6	6
3702.16	n/a	PROB	1851080	n/a	LTP265	ltpFR2	3	n/a	n/a	n/a	24	4	1	1	2
3703.214	n/a	PROB	1851607	n/a	LTP265	ltpFR2	3	n/a	n/a	n/a	24	21	7	7	7
3704.564	n/a	PROB	1852282	n/a	LTP265	ltpFR2	3	n/a	n/a	n/a	24	22	8	5	9
3708.73	n/a	PROB	1854365	n/a	LTP265	ltpFR2	3	n/a	n/a	n/a	24	10	1	6	3
3710.988	n/a	PROB	1855494	n/a	LTP265	ltpFR2	3	n/a	n/a	n/a	24	11	2	2	7
3712.346	n/a	PROB	1856173	n/a	LTP265	ltpFR2	3	n/a	n/a	n/a	24	16	6	1	9
3714.198	n/a	STOP	1857099	n/a	LTP265	ltpFR2	3	n/a	n/a	n/a	24	n/a	n/a	n/a	n/a
3716.594	n/a	REC_START	1858297	n/a	LTP265	ltpFR2	3	16	n/a	n/a	n/a	n/a	0	0	0
3719.102	n/a	REC_WORD	1859551	wordpools/wasnorm_wordpool_576.txt	LTP265	ltpFR2	3	16	NIGHTGOWN	953	n/a	n/a	0	0	0
3720.412	n/a	REC_WORD	1860206	wordpools/wasnorm_wordpool_576.txt	LTP265	ltpFR2	3	16	GLASS	639	n/a	n/a	0	0	0
3726.338	n/a	REC_WORD	1863169	wordpools/wasnorm_wordpool_576.txt	LTP265	ltpFR2	3	16	SUNRISE	1407	n/a	n/a	0	0	0
3727.578	n/a	REC_WORD	1863789	wordpools/wasnorm_wordpool_576.txt	LTP265	ltpFR2	3	16	SUNSET	1408	n/a	n/a	0	0	0
3728.578	n/a	REC_WORD_VV	1864289	wordpools/wasnorm_wordpool_576.txt	LTP265	ltpFR2	3	16	<>	-1	n/a	n/a	0	0	0
3736.26	n/a	REC_WORD	1868130	wordpools/wasnorm_wordpool_576.txt	LTP265	ltpFR2	3	16	ACTOR	5	n/a	n/a	0	0	0
3737.168	n/a	REC_WORD	1868584	wordpools/wasnorm_wordpool_576.txt	LTP265	ltpFR2	3	16	LAPEL	800	n/a	n/a	0	0	0
3739.136	n/a	REC_WORD	1869568	wordpools/wasnorm_wordpool_576.txt	LTP265	ltpFR2	3	16	TYPIST	1532	n/a	n/a	0	0	0
3740.198	n/a	REC_WORD	1870099	wordpools/wasnorm_wordpool_576.txt	LTP265	ltpFR2	3	16	PACKAGE	997	n/a	n/a	0	0	0
3741.198	n/a	REC_WORD_VV	1870599	wordpools/wasnorm_wordpool_576.txt	LTP265	ltpFR2	3	16	<>	-1	n/a	n/a	0	0	0
3793.358	n/a	REST_REWET	1896679	n/a	LTP265	ltpFR2	3	16	n/a	n/a	n/a	n/a	0	0	0
4133.71	n/a	DISTRACTOR	2066855	n/a	LTP265	ltpFR2	3	17	n/a	n/a	n/a	n/a	0	0	0
4133.71	n/a	START	2066855	n/a	LTP265	ltpFR2	3	n/a	n/a	n/a	25	n/a	n/a	n/a	n/a
4133.76	n/a	PROB	2066880	n/a	LTP265	ltpFR2	3	n/a	n/a	n/a	25	20	8	6	6
4135.51	n/a	PROB	2067755	n/a	LTP265	ltpFR2	3	n/a	n/a	n/a	25	18	9	8	1
4136.882	n/a	PROB	2068441	n/a	LTP265	ltpFR2	3	n/a	n/a	n/a	25	27	9	9	9
4138.856	n/a	PROB	2069428	n/a	LTP265	ltpFR2	3	n/a	n/a	n/a	25	8	4	2	2
4141.048	n/a	PROB	2070524	n/a	LTP265	ltpFR2	3	n/a	n/a	n/a	25	22	5	9	8
4143.798	n/a	PROB	2071899	n/a	LTP265	ltpFR2	3	n/a	n/a	n/a	25	16	6	8	2
4145.656	n/a	PROB	2072828	n/a	LTP265	ltpFR2	3	n/a	n/a	n/a	25	15	7	3	5
4146.91	n/a	PROB	2073455	n/a	LTP265	ltpFR2	3	n/a	n/a	n/a	25	12	3	3	6
4149.13	n/a	PROB	2074565	n/a	LTP265	ltpFR2	3	n/a	n/a	n/a	25	18	6	9	3
4150.992	n/a	PROB	2075496	n/a	LTP265	ltpFR2	3	n/a	n/a	n/a	25	19	8	3	8
4153.062	n/a	PROB	2076531	n/a	LTP265	ltpFR2	3	n/a	n/a	n/a	25	20	4	8	8
4154.768	n/a	PROB	2077384	n/a	LTP265	ltpFR2	3	n/a	n/a	n/a	25	12	3	5	4
4156.19	n/a	PROB	2078095	n/a	LTP265	ltpFR2	3	n/a	n/a	n/a	25	10	2	1	7
4157.508	n/a	STOP	2078754	n/a	LTP265	ltpFR2	3	n/a	n/a	n/a	25	n/a	n/a	n/a	n/a
4158.938	n/a	WORD	2079469	wordpools/wasnorm_wordpool_576.txt	LTP265	ltpFR2	3	17	GYMNAST	675	n/a	n/a	0	0	0
4161.482	n/a	WORD	2080741	wordpools/wasnorm_wordpool_576.txt	LTP265	ltpFR2	3	17	HORSE	719	n/a	n/a	0	0	0
4163.986	n/a	WORD	2081993	wordpools/wasnorm_wordpool_576.txt	LTP265	ltpFR2	3	17	PERCH	1048	n/a	n/a	0	0	0
4166.736	n/a	WORD	2083368	wordpools/wasnorm_wordpool_576.txt	LTP265	ltpFR2	3	17	HUSBAND	728	n/a	n/a	0	0	0
4169.212	n/a	WORD	2084606	wordpools/wasnorm_wordpool_576.txt	LTP265	ltpFR2	3	17	SCULPTURE	1258	n/a	n/a	0	0	0
4171.972	n/a	WORD	2085986	wordpools/wasnorm_wordpool_576.txt	LTP265	ltpFR2	3	17	STALLION	1369	n/a	n/a	0	0	0
4174.444	n/a	WORD	2087222	wordpools/wasnorm_wordpool_576.txt	LTP265	ltpFR2	3	17	COSTUME	383	n/a	n/a	0	0	0
4176.974	n/a	WORD	2088487	wordpools/wasnorm_wordpool_576.txt	LTP265	ltpFR2	3	17	MONEY	908	n/a	n/a	0	0	0
4179.77	n/a	WORD	2089885	wordpools/wasnorm_wordpool_576.txt	LTP265	ltpFR2	3	17	LEADER	807	n/a	n/a	0	0	0
4182.496	n/a	WORD	2091248	wordpools/wasnorm_wordpool_576.txt	LTP265	ltpFR2	3	17	PUPPY	1144	n/a	n/a	0	0	0
4184.938	n/a	WORD	2092469	wordpools/wasnorm_wordpool_576.txt	LTP265	ltpFR2	3	17	RECORD	1176	n/a	n/a	0	0	0
4187.398	n/a	WORD	2093699	wordpools/wasnorm_wordpool_576.txt	LTP265	ltpFR2	3	17	FRUIT	610	n/a	n/a	0	0	0
4190.076	n/a	WORD	2095038	wordpools/wasnorm_wordpool_576.txt	LTP265	ltpFR2	3	17	COFFEE	341	n/a	n/a	0	0	0
4192.518	n/a	WORD	2096259	wordpools/wasnorm_wordpool_576.txt	LTP265	ltpFR2	3	17	CAFE	216	n/a	n/a	0	0	0
4195.094	n/a	WORD	2097547	wordpools/wasnorm_wordpool_576.txt	LTP265	ltpFR2	3	17	TROMBONE	1508	n/a	n/a	0	0	0
4197.604	n/a	WORD	2098802	wordpools/wasnorm_wordpool_576.txt	LTP265	ltpFR2	3	17	WHISTLE	1606	n/a	n/a	0	0	0
4200.182	n/a	WORD	2100091	wordpools/wasnorm_wordpool_576.txt	LTP265	ltpFR2	3	17	SPHINX	1349	n/a	n/a	0	0	0
4202.89	n/a	WORD	2101445	wordpools/wasnorm_wordpool_576.txt	LTP265	ltpFR2	3	17	TUBA	1515	n/a	n/a	0	0	0
4205.334	n/a	WORD	2102667	wordpools/wasnorm_wordpool_576.txt	LTP265	ltpFR2	3	17	FRECKLE	602	n/a	n/a	0	0	0
4207.792	n/a	WORD	2103896	wordpools/wasnorm_wordpool_576.txt	LTP265	ltpFR2	3	17	WIFE	1609	n/a	n/a	0	0	0
4210.236	n/a	WORD	2105118	wordpools/wasnorm_wordpool_576.txt	LTP265	ltpFR2	3	17	PUDDLE	1140	n/a	n/a	0	0	0
4212.862	n/a	WORD	2106431	wordpools/wasnorm_wordpool_576.txt	LTP265	ltpFR2	3	17	LAGOON	795	n/a	n/a	0	0	0
4215.472	n/a	WORD	2107736	wordpools/wasnorm_wordpool_576.txt	LTP265	ltpFR2	3	17	BASEMENT	94	n/a	n/a	0	0	0
4218.032	n/a	WORD	2109016	wordpools/wasnorm_wordpool_576.txt	LTP265	ltpFR2	3	17	CASHEW	253	n/a	n/a	0	0	0
4219.638	n/a	START	2109819	n/a	LTP265	ltpFR2	3	n/a	n/a	n/a	26	n/a	n/a	n/a	n/a
4220.502	n/a	DISTRACTOR	2110251	n/a	LTP265	ltpFR2	3	17	n/a	n/a	n/a	n/a	0	0	0
4220.52	n/a	PROB	2110260	n/a	LTP265	ltpFR2	3	n/a	n/a	n/a	26	17	7	6	4
4223.302	n/a	PROB	2111651	n/a	LTP265	ltpFR2	3	n/a	n/a	n/a	26	12	6	1	5
4225.188	n/a	PROB	2112594	n/a	LTP265	ltpFR2	3	n/a	n/a	n/a	26	23	9	9	5
4226.676	n/a	PROB	2113338	n/a	LTP265	ltpFR2	3	n/a	n/a	n/a	26	18	5	6	7
4228.334	n/a	PROB	2114167	n/a	LTP265	ltpFR2	3	n/a	n/a	n/a	26	19	9	8	1
4229.906	n/a	PROB	2114953	n/a	LTP265	ltpFR2	3	n/a	n/a	n/a	26	17	3	6	8
4232.77	n/a	PROB	2116385	n/a	LTP265	ltpFR2	3	n/a	n/a	n/a	26	17	7	2	8
4234.64	n/a	PROB	2117320	n/a	LTP265	ltpFR2	3	n/a	n/a	n/a	26	14	4	7	3
4236.398	n/a	PROB	2118199	n/a	LTP265	ltpFR2	3	n/a	n/a	n/a	26	18	6	7	5
4237.952	n/a	PROB	2118976	n/a	LTP265	ltpFR2	3	n/a	n/a	n/a	26	16	6	6	4
4239.898	n/a	PROB	2119949	n/a	LTP265	ltpFR2	3	n/a	n/a	n/a	26	20	7	6	7
4241.516	n/a	PROB	2120758	n/a	LTP265	ltpFR2	3	n/a	n/a	n/a	26	12	3	8	1
4243.05	n/a	STOP	2121525	n/a	LTP265	ltpFR2	3	n/a	n/a	n/a	26	n/a	n/a	n/a	n/a
4245.498	n/a	REC_START	2122749	n/a	LTP265	ltpFR2	3	17	n/a	n/a	n/a	n/a	0	0	0
4247.436	n/a	REC_WORD	2123718	wordpools/wasnorm_wordpool_576.txt	LTP265	ltpFR2	3	17	TROMBONE	1508	n/a	n/a	0	0	0
4248.284	n/a	REC_WORD	2124142	wordpools/wasnorm_wordpool_576.txt	LTP265	ltpFR2	3	17	TUBA	1515	n/a	n/a	0	0	0
4248.876	n/a	REC_WORD	2124438	wordpools/wasnorm_wordpool_576.txt	LTP265	ltpFR2	3	17	FRECKLE	602	n/a	n/a	0	0	0
4249.866	n/a	REC_WORD	2124933	wordpools/wasnorm_wordpool_576.txt	LTP265	ltpFR2	3	17	WIFE	1609	n/a	n/a	0	0	0
4252.492	n/a	REC_WORD	2126246	wordpools/wasnorm_wordpool_576.txt	LTP265	ltpFR2	3	17	FRUIT	610	n/a	n/a	0	0	0
4253.288	n/a	REC_WORD	2126644	wordpools/wasnorm_wordpool_576.txt	LTP265	ltpFR2	3	17	COFFEE	341	n/a	n/a	0	0	0
4254.032	n/a	REC_WORD	2127016	wordpools/wasnorm_wordpool_576.txt	LTP265	ltpFR2	3	17	CAFE	216	n/a	n/a	0	0	0
4255.91	n/a	REC_WORD	2127955	wordpools/wasnorm_wordpool_576.txt	LTP265	ltpFR2	3	17	STALLION	1369	n/a	n/a	0	0	0
4256.714	n/a	REC_WORD	2128357	wordpools/wasnorm_wordpool_576.txt	LTP265	ltpFR2	3	17	HORSE	719	n/a	n/a	0	0	0
4257.712	n/a	REC_WORD	2128856	wordpools/wasnorm_wordpool_576.txt	LTP265	ltpFR2	3	17	GYMNAST	675	n/a	n/a	0	0	0
4258.798	n/a	REC_WORD	2129399	wordpools/wasnorm_wordpool_576.txt	LTP265	ltpFR2	3	17	PERCH	1048	n/a	n/a	0	0	0
4260.476	n/a	REC_WORD	2130238	wordpools/wasnorm_wordpool_576.txt	LTP265	ltpFR2	3	17	SCULPTURE	1258	n/a	n/a	0	0	0
4261.922	n/a	REC_WORD	2130961	wordpools/wasnorm_wordpool_576.txt	LTP265	ltpFR2	3	17	LEADER	807	n/a	n/a	0	0	0
4269.57	n/a	REC_WORD	2134785	wordpools/wasnorm_wordpool_576.txt	LTP265	ltpFR2	3	17	SPHINX	1349	n/a	n/a	0	0	0
4271.764	n/a	REC_WORD	2135882	wordpools/wasnorm_wordpool_576.txt	LTP265	ltpFR2	3	17	WHISTLE	1606	n/a	n/a	0	0	0
4275.19	n/a	REC_WORD	2137595	wordpools/wasnorm_wordpool_576.txt	LTP265	ltpFR2	3	17	CASHEW	253	n/a	n/a	0	0	0
4277.334	n/a	REC_WORD	2138667	wordpools/wasnorm_wordpool_576.txt	LTP265	ltpFR2	3	17	PUDDLE	1140	n/a	n/a	0	0	0
4278.232	n/a	REC_WORD	2139116	wordpools/wasnorm_wordpool_576.txt	LTP265	ltpFR2	3	17	LAGOON	795	n/a	n/a	0	0	0
4279.476	n/a	REC_WORD	2139738	wordpools/wasnorm_wordpool_576.txt	LTP265	ltpFR2	3	17	BASEMENT	94	n/a	n/a	0	0	0
4317.758	n/a	REC_WORD	2158879	wordpools/wasnorm_wordpool_576.txt	LTP265	ltpFR2	3	17	COSTUME	383	n/a	n/a	0	0	0
4318.994	n/a	REC_WORD	2159497	wordpools/wasnorm_wordpool_576.txt	LTP265	ltpFR2	3	17	MONEY	908	n/a	n/a	0	0	0
4336.552	n/a	WORD	2168276	wordpools/wasnorm_wordpool_576.txt	LTP265	ltpFR2	3	18	NEUTRON	947	n/a	n/a	0	0	0
4339.06	n/a	WORD	2169530	wordpools/wasnorm_wordpool_576.txt	LTP265	ltpFR2	3	18	SHERIFF	1284	n/a	n/a	0	0	0
4341.514	n/a	WORD	2170757	wordpools/wasnorm_wordpool_576.txt	LTP265	ltpFR2	3	18	MUMMY	932	n/a	n/a	0	0	0
4344.062	n/a	WORD	2172031	wordpools/wasnorm_wordpool_576.txt	LTP265	ltpFR2	3	18	SCALLOP	1242	n/a	n/a	0	0	0
4346.808	n/a	WORD	2173404	wordpools/wasnorm_wordpool_576.txt	LTP265	ltpFR2	3	18	ISLAND	745	n/a	n/a	0	0	0
4349.518	n/a	WORD	2174759	wordpools/wasnorm_wordpool_576.txt	LTP265	ltpFR2	3	18	DIME	466	n/a	n/a	0	0	0
4352.01	n/a	WORD	2176005	wordpools/wasnorm_wordpool_576.txt	LTP265	ltpFR2	3	18	PLAID	1080	n/a	n/a	0	0	0
4354.72	n/a	WORD	2177360	wordpools/wasnorm_wordpool_576.txt	LTP265	ltpFR2	3	18	TROUT	1511	n/a	n/a	0	0	0
4357.51	n/a	WORD	2178755	wordpools/wasnorm_wordpool_576.txt	LTP265	ltpFR2	3	18	BUCKET	184	n/a	n/a	0	0	0
4360.276	n/a	WORD	2180138	wordpools/wasnorm_wordpool_576.txt	LTP265	ltpFR2	3	18	SPONGE	1355	n/a	n/a	0	0	0
4362.884	n/a	WORD	2181442	wordpools/wasnorm_wordpool_576.txt	LTP265	ltpFR2	3	18	SCRIBBLE	1256	n/a	n/a	0	0	0
4365.312	n/a	WORD	2182656	wordpools/wasnorm_wordpool_576.txt	LTP265	ltpFR2	3	18	CATCHER	258	n/a	n/a	0	0	0
4367.782	n/a	WORD	2183891	wordpools/wasnorm_wordpool_576.txt	LTP265	ltpFR2	3	18	HOUND	724	n/a	n/a	0	0	0
4370.426	n/a	WORD	2185213	wordpools/wasnorm_wordpool_576.txt	LTP265	ltpFR2	3	18	TUTU	1524	n/a	n/a	0	0	0
4373.176	n/a	WORD	2186588	wordpools/wasnorm_wordpool_576.txt	LTP265	ltpFR2	3	18	BULLET	194	n/a	n/a	0	0	0
4375.734	n/a	WORD	2187867	wordpools/wasnorm_wordpool_576.txt	LTP265	ltpFR2	3	18	LASER	801	n/a	n/a	0	0	0
4378.228	n/a	WORD	2189114	wordpools/wasnorm_wordpool_576.txt	LTP265	ltpFR2	3	18	DRAWING	494	n/a	n/a	0	0	0
4380.87	n/a	WORD	2190435	wordpools/wasnorm_wordpool_576.txt	LTP265	ltpFR2	3	18	BLOUSE	139	n/a	n/a	0	0	0
4383.608	n/a	WORD	2191804	wordpools/wasnorm_wordpool_576.txt	LTP265	ltpFR2	3	18	MAPLE	866	n/a	n/a	0	0	0
4386.31	n/a	WORD	2193155	wordpools/wasnorm_wordpool_576.txt	LTP265	ltpFR2	3	18	GALLON	618	n/a	n/a	0	0	0
4388.834	n/a	WORD	2194417	wordpools/wasnorm_wordpool_576.txt	LTP265	ltpFR2	3	18	CAPTIVE	240	n/a	n/a	0	0	0
4391.596	n/a	WORD	2195798	wordpools/wasnorm_wordpool_576.txt	LTP265	ltpFR2	3	18	WAITER	1580	n/a	n/a	0	0	0
4394.24	n/a	WORD	2197120	wordpools/wasnorm_wordpool_576.txt	LTP265	ltpFR2	3	18	DIVER	476	n/a	n/a	0	0	0
4396.864	n/a	WORD	2198432	wordpools/wasnorm_wordpool_576.txt	LTP265	ltpFR2	3	18	CLOCK	325	n/a	n/a	0	0	0
4398.472	n/a	START	2199236	n/a	LTP265	ltpFR2	3	n/a	n/a	n/a	27	n/a	n/a	n/a	n/a
4399.498	n/a	DISTRACTOR	2199749	n/a	LTP265	ltpFR2	3	18	n/a	n/a	n/a	n/a	0	0	0
4399.508	n/a	PROB	2199754	n/a	LTP265	ltpFR2	3	n/a	n/a	n/a	27	7	2	2	3
4401.846	n/a	PROB	2200923	n/a	LTP265	ltpFR2	3	n/a	n/a	n/a	27	9	3	2	4
4403.408	n/a	PROB	2201704	n/a	LTP265	ltpFR2	3	n/a	n/a	n/a	27	15	9	4	2
4405.294	n/a	PROB	2202647	n/a	LTP265	ltpFR2	3	n/a	n/a	n/a	27	12	2	1	9
4406.498	n/a	PROB	2203249	n/a	LTP265	ltpFR2	3	n/a	n/a	n/a	27	14	4	6	4
4407.852	n/a	PROB	2203926	n/a	LTP265	ltpFR2	3	n/a	n/a	n/a	27	15	8	6	1
4409.174	n/a	PROB	2204587	n/a	LTP265	ltpFR2	3	n/a	n/a	n/a	27	17	4	5	8
4410.734	n/a	PROB	2205367	n/a	LTP265	ltpFR2	3	n/a	n/a	n/a	27	13	1	8	4
4412.838	n/a	PROB	2206419	n/a	LTP265	ltpFR2	3	n/a	n/a	n/a	27	11	1	5	5
4414.398	n/a	PROB	2207199	n/a	LTP265	ltpFR2	3	n/a	n/a	n/a	27	13	5	6	2
4415.9	n/a	PROB	2207950	n/a	LTP265	ltpFR2	3	n/a	n/a	n/a	27	16	7	4	5
4417.378	n/a	PROB	2208689	n/a	LTP265	ltpFR2	3	n/a	n/a	n/a	27	18	7	2	9
4419.202	n/a	PROB	2209601	n/a	LTP265	ltpFR2	3	n/a	n/a	n/a	27	13	8	4	1
4420.75	n/a	PROB	2210375	n/a	LTP265	ltpFR2	3	n/a	n/a	n/a	27	17	1	7	9
4422.204	n/a	STOP	2211102	n/a	LTP265	ltpFR2	3	n/a	n/a	n/a	27	n/a	n/a	n/a	n/a
4424.35	n/a	REC_START	2212175	n/a	LTP265	ltpFR2	3	18	n/a	n/a	n/a	n/a	0	0	0
4426.32	n/a	REC_WORD	2213160	wordpools/wasnorm_wordpool_576.txt	LTP265	ltpFR2	3	18	CAPTIVE	240	n/a	n/a	0	0	0
4427.064	n/a	REC_WORD	2213532	wordpools/wasnorm_wordpool_576.txt	LTP265	ltpFR2	3	18	WAITER	1580	n/a	n/a	0	0	0
4428.242	n/a	REC_WORD	2214121	wordpools/wasnorm_wordpool_576.txt	LTP265	ltpFR2	3	18	BULLET	194	n/a	n/a	0	0	0
4428.662	n/a	REC_WORD	2214331	wordpools/wasnorm_wordpool_576.txt	LTP265	ltpFR2	3	18	LASER	801	n/a	n/a	0	0	0
4429.87	n/a	REC_WORD	2214935	wordpools/wasnorm_wordpool_576.txt	LTP265	ltpFR2	3	18	BLOUSE	139	n/a	n/a	0	0	0
4431.582	n/a	REC_WORD	2215791	wordpools/wasnorm_wordpool_576.txt	LTP265	ltpFR2	3	18	SHERIFF	1284	n/a	n/a	0	0	0
4434.482	n/a	REC_WORD	2217241	wordpools/wasnorm_wordpool_576.txt	LTP265	ltpFR2	3	18	DIME	466	n/a	n/a	0	0	0
4435.268	n/a	REC_WORD	2217634	wordpools/wasnorm_wordpool_576.txt	LTP265	ltpFR2	3	18	ISLAND	745	n/a	n/a	0	0	0
4437.336	n/a	REC_WORD	2218668	wordpools/wasnorm_wordpool_576.txt	LTP265	ltpFR2	3	18	SCALLOP	1242	n/a	n/a	0	0	0
4462.186	n/a	REC_WORD	2231093	wordpools/wasnorm_wordpool_576.txt	LTP265	ltpFR2	3	18	CATCH	-1	n/a	n/a	0	0	0
4463.398	n/a	REC_WORD	2231699	wordpools/wasnorm_wordpool_576.txt	LTP265	ltpFR2	3	18	CATCHER	258	n/a	n/a	0	0	0
4465.81	n/a	REC_WORD	2232905	wordpools/wasnorm_wordpool_576.txt	LTP265	ltpFR2	3	18	HOUND	724	n/a	n/a	0	0	0
4466.956	n/a	REC_WORD	2233478	wordpools/wasnorm_wordpool_576.txt	LTP265	ltpFR2	3	18	TUTU	1524	n/a	n/a	0	0	0
4538.474	n/a	WORD	2269237	wordpools/wasnorm_wordpool_576.txt	LTP265	ltpFR2	3	19	BARREL	91	n/a	n/a	0	0	0
4541.18	n/a	WORD	2270590	wordpools/wasnorm_wordpool_576.txt	LTP265	ltpFR2	3	19	DAISY	435	n/a	n/a	0	0	0
4543.744	n/a	WORD	2271872	wordpools/wasnorm_wordpool_576.txt	LTP265	ltpFR2	3	19	HOOD	714	n/a	n/a	0	0	0
4546.436	n/a	WORD	2273218	wordpools/wasnorm_wordpool_576.txt	LTP265	ltpFR2	3	19	PUDDING	1139	n/a	n/a	0	0	0
4548.98	n/a	WORD	2274490	wordpools/wasnorm_wordpool_576.txt	LTP265	ltpFR2	3	19	BANKER	84	n/a	n/a	0	0	0
4551.706	n/a	WORD	2275853	wordpools/wasnorm_wordpool_576.txt	LTP265	ltpFR2	3	19	BANK	83	n/a	n/a	0	0	0
4554.418	n/a	WORD	2277209	wordpools/wasnorm_wordpool_576.txt	LTP265	ltpFR2	3	19	JELLO	754	n/a	n/a	0	0	0
4556.844	n/a	WORD	2278422	wordpools/wasnorm_wordpool_576.txt	LTP265	ltpFR2	3	19	LIGHTNING	820	n/a	n/a	0	0	0
4559.282	n/a	WORD	2279641	wordpools/wasnorm_wordpool_576.txt	LTP265	ltpFR2	3	19	SHELTER	1282	n/a	n/a	0	0	0
4561.874	n/a	WORD	2280937	wordpools/wasnorm_wordpool_576.txt	LTP265	ltpFR2	3	19	HEADBAND	696	n/a	n/a	0	0	0
4564.656	n/a	WORD	2282328	wordpools/wasnorm_wordpool_576.txt	LTP265	ltpFR2	3	19	WORLD	1622	n/a	n/a	0	0	0
4567.416	n/a	WORD	2283708	wordpools/wasnorm_wordpool_576.txt	LTP265	ltpFR2	3	19	SILK	1307	n/a	n/a	0	0	0
4569.86	n/a	WORD	2284930	wordpools/wasnorm_wordpool_576.txt	LTP265	ltpFR2	3	19	COLLEGE	346	n/a	n/a	0	0	0
4572.52	n/a	WORD	2286260	wordpools/wasnorm_wordpool_576.txt	LTP265	ltpFR2	3	19	CATTLE	261	n/a	n/a	0	0	0
4575.098	n/a	WORD	2287549	wordpools/wasnorm_wordpool_576.txt	LTP265	ltpFR2	3	19	NECKLACE	940	n/a	n/a	0	0	0
4577.858	n/a	WORD	2288929	wordpools/wasnorm_wordpool_576.txt	LTP265	ltpFR2	3	19	ACTRESS	6	n/a	n/a	0	0	0
4580.634	n/a	WORD	2290317	wordpools/wasnorm_wordpool_576.txt	LTP265	ltpFR2	3	19	CRITIC	410	n/a	n/a	0	0	0
4583.428	n/a	WORD	2291714	wordpools/wasnorm_wordpool_576.txt	LTP265	ltpFR2	3	19	CRICKET	408	n/a	n/a	0	0	0
4586.09	n/a	WORD	2293045	wordpools/wasnorm_wordpool_576.txt	LTP265	ltpFR2	3	19	SOFTBALL	1343	n/a	n/a	0	0	0
4588.548	n/a	WORD	2294274	wordpools/wasnorm_wordpool_576.txt	LTP265	ltpFR2	3	19	BISON	131	n/a	n/a	0	0	0
4591.002	n/a	WORD	2295501	wordpools/wasnorm_wordpool_576.txt	LTP265	ltpFR2	3	19	PLAZA	1088	n/a	n/a	0	0	0
4593.446	n/a	WORD	2296723	wordpools/wasnorm_wordpool_576.txt	LTP265	ltpFR2	3	19	OZONE	996	n/a	n/a	0	0	0
4596.094	n/a	WORD	2298047	wordpools/wasnorm_wordpool_576.txt	LTP265	ltpFR2	3	19	POSTAGE	1113	n/a	n/a	0	0	0
4598.686	n/a	WORD	2299343	wordpools/wasnorm_wordpool_576.txt	LTP265	ltpFR2	3	19	PASTA	1021	n/a	n/a	0	0	0
4600.294	n/a	START	2300147	n/a	LTP265	ltpFR2	3	n/a	n/a	n/a	28	n/a	n/a	n/a	n/a
4601.21	n/a	DISTRACTOR	2300605	n/a	LTP265	ltpFR2	3	19	n/a	n/a	n/a	n/a	0	0	0
4601.226	n/a	PROB	2300613	n/a	LTP265	ltpFR2	3	n/a	n/a	n/a	28	15	8	4	3
4603.934	n/a	PROB	2301967	n/a	LTP265	ltpFR2	3	n/a	n/a	n/a	28	19	9	7	3
