onset	duration	trial_type	sample	stim_file	subject	experiment	session	trial	task	item_name	item_num	recog_resp	recog_conf	resp	answer	test_x	test_y	test_z	color_r	color_g	color_b	case	font
221.326	n/a	SESS_START	110663	n/a	LTP202	ltpFR	12	n/a	n/a	n/a	n/a	0	3	n/a	n/a	0	0	0	n/a	n/a	n/a	n/a	n/a
233.644	n/a	START	116822	n/a	LTP202	ltpFR	12	n/a	n/a	n/a	n/a	n/a	n/a	n/a	n/a	n/a	n/a	n/a	n/a	n/a	n/a	n/a	n/a
233.678	n/a	PROB	116839	n/a	LTP202	ltpFR	12	n/a	n/a	n/a	n/a	n/a	n/a	n/a	15	7	6	2	n/a	n/a	n/a	n/a	n/a
235.726	n/a	PROB	117863	n/a	LTP202	ltpFR	12	n/a	n/a	n/a	n/a	n/a	n/a	n/a	26	8	9	9	n/a	n/a	n/a	n/a	n/a
237.454	n/a	PROB	118727	n/a	LTP202	ltpFR	12	n/a	n/a	n/a	n/a	n/a	n/a	n/a	13	7	4	2	n/a	n/a	n/a	n/a	n/a
238.82	n/a	PROB	119410	n/a	LTP202	ltpFR	12	n/a	n/a	n/a	n/a	n/a	n/a	n/a	19	7	4	8	n/a	n/a	n/a	n/a	n/a
240.434	n/a	PROB	120217	n/a	LTP202	ltpFR	12	n/a	n/a	n/a	n/a	n/a	n/a	n/a	23	8	8	7	n/a	n/a	n/a	n/a	n/a
243.164	n/a	PROB	121582	n/a	LTP202	ltpFR	12	n/a	n/a	n/a	n/a	n/a	n/a	n/a	22	9	8	5	n/a	n/a	n/a	n/a	n/a
245.276	n/a	PROB	122638	n/a	LTP202	ltpFR	12	n/a	n/a	n/a	n/a	n/a	n/a	n/a	13	2	7	4	n/a	n/a	n/a	n/a	n/a
246.608	n/a	PROB	123304	n/a	LTP202	ltpFR	12	n/a	n/a	n/a	n/a	n/a	n/a	n/a	6	2	3	1	n/a	n/a	n/a	n/a	n/a
247.758	n/a	PROB	123879	n/a	LTP202	ltpFR	12	n/a	n/a	n/a	n/a	n/a	n/a	n/a	21	9	3	9	n/a	n/a	n/a	n/a	n/a
249.138	n/a	PROB	124569	n/a	LTP202	ltpFR	12	n/a	n/a	n/a	n/a	n/a	n/a	n/a	16	3	9	4	n/a	n/a	n/a	n/a	n/a
250.568	n/a	PROB	125284	n/a	LTP202	ltpFR	12	n/a	n/a	n/a	n/a	n/a	n/a	n/a	21	6	9	6	n/a	n/a	n/a	n/a	n/a
252.246	n/a	STOP	126123	n/a	LTP202	ltpFR	12	n/a	n/a	n/a	n/a	n/a	n/a	n/a	n/a	n/a	n/a	n/a	n/a	n/a	n/a	n/a	n/a
269.674	n/a	WORD	134837	wordpools/wasnorm_wordpool_less_exclusions.txt	LTP202	ltpFR	12	1	0	LETTUCE	814	1	5	0	n/a	0	0	0	0.422607421875	0.5869140625	0	lower	zerothre.ttf
273.668	n/a	WORD	136834	wordpools/wasnorm_wordpool_less_exclusions.txt	LTP202	ltpFR	12	1	0	REEF	1177	n/a	n/a	1	n/a	0	0	0	0.422607421875	0.5869140625	0	lower	zerothre.ttf
277.512	n/a	WORD	138756	wordpools/wasnorm_wordpool_less_exclusions.txt	LTP202	ltpFR	12	1	0	CARDINAL	244	n/a	n/a	1	n/a	0	0	0	0.422607421875	0.5869140625	0	lower	zerothre.ttf
281.706	n/a	WORD	140853	wordpools/wasnorm_wordpool_less_exclusions.txt	LTP202	ltpFR	12	1	0	JACKET	747	n/a	n/a	1	n/a	0	0	0	0.422607421875	0.5869140625	0	lower	zerothre.ttf
285.784	n/a	WORD	142892	wordpools/wasnorm_wordpool_less_exclusions.txt	LTP202	ltpFR	12	1	0	BUTTON	207	n/a	n/a	0	n/a	0	0	0	0.422607421875	0.5869140625	0	lower	zerothre.ttf
289.812	n/a	WORD	144906	wordpools/wasnorm_wordpool_less_exclusions.txt	LTP202	ltpFR	12	1	0	CARNIVAL	245	n/a	n/a	1	n/a	0	0	0	0.422607421875	0.5869140625	0	lower	zerothre.ttf
293.722	n/a	WORD	146861	wordpools/wasnorm_wordpool_less_exclusions.txt	LTP202	ltpFR	12	1	0	VEHICLE	1553	n/a	n/a	1	n/a	0	0	0	0.422607421875	0.5869140625	0	lower	zerothre.ttf
297.866	n/a	WORD	148933	wordpools/wasnorm_wordpool_less_exclusions.txt	LTP202	ltpFR	12	1	0	TURNIP	1521	n/a	n/a	0	n/a	0	0	0	0.422607421875	0.5869140625	0	lower	zerothre.ttf
301.828	n/a	WORD	150914	wordpools/wasnorm_wordpool_less_exclusions.txt	LTP202	ltpFR	12	1	0	POT	1114	n/a	n/a	1	n/a	0	0	0	0.422607421875	0.5869140625	0	lower	zerothre.ttf
305.854	n/a	WORD	152927	wordpools/wasnorm_wordpool_less_exclusions.txt	LTP202	ltpFR	12	1	0	ENGINE	535	n/a	n/a	1	n/a	0	0	0	0.422607421875	0.5869140625	0	lower	zerothre.ttf
309.682	n/a	WORD	154841	wordpools/wasnorm_wordpool_less_exclusions.txt	LTP202	ltpFR	12	1	0	DRIVEWAY	500	n/a	n/a	1	n/a	0	0	0	0.422607421875	0.5869140625	0	lower	zerothre.ttf
313.658	n/a	WORD	156829	wordpools/wasnorm_wordpool_less_exclusions.txt	LTP202	ltpFR	12	1	0	GLUE	643	n/a	n/a	0	n/a	0	0	0	0.422607421875	0.5869140625	0	lower	zerothre.ttf
317.704	n/a	WORD	158852	wordpools/wasnorm_wordpool_less_exclusions.txt	LTP202	ltpFR	12	1	0	PLUMBER	1091	n/a	n/a	1	n/a	0	0	0	0.422607421875	0.5869140625	0	lower	zerothre.ttf
321.732	n/a	WORD	160866	wordpools/wasnorm_wordpool_less_exclusions.txt	LTP202	ltpFR	12	1	0	FEATHER	557	n/a	n/a	0	n/a	0	0	0	0.422607421875	0.5869140625	0	lower	zerothre.ttf
325.908	n/a	WORD	162954	wordpools/wasnorm_wordpool_less_exclusions.txt	LTP202	ltpFR	12	1	0	CAB	209	n/a	n/a	1	n/a	0	0	0	0.422607421875	0.5869140625	0	lower	zerothre.ttf
329.836	n/a	WORD	164918	wordpools/wasnorm_wordpool_less_exclusions.txt	LTP202	ltpFR	12	1	0	OLIVE	975	n/a	n/a	0	n/a	0	0	0	0.422607421875	0.5869140625	0	lower	zerothre.ttf
332.848	n/a	START	166424	n/a	LTP202	ltpFR	12	n/a	n/a	n/a	n/a	n/a	n/a	n/a	n/a	n/a	n/a	n/a	n/a	n/a	n/a	n/a	n/a
333.662	n/a	PROB	166831	n/a	LTP202	ltpFR	12	n/a	n/a	n/a	n/a	n/a	n/a	n/a	18	8	4	6	n/a	n/a	n/a	n/a	n/a
335.276	n/a	PROB	167638	n/a	LTP202	ltpFR	12	n/a	n/a	n/a	n/a	n/a	n/a	n/a	17	8	2	7	n/a	n/a	n/a	n/a	n/a
336.624	n/a	PROB	168312	n/a	LTP202	ltpFR	12	n/a	n/a	n/a	n/a	n/a	n/a	n/a	3	1	1	1	n/a	n/a	n/a	n/a	n/a
337.59	n/a	PROB	168795	n/a	LTP202	ltpFR	12	n/a	n/a	n/a	n/a	n/a	n/a	n/a	20	2	9	9	n/a	n/a	n/a	n/a	n/a
339.92	n/a	STOP	169960	n/a	LTP202	ltpFR	12	n/a	n/a	n/a	n/a	n/a	n/a	n/a	n/a	n/a	n/a	n/a	n/a	n/a	n/a	n/a	n/a
342.784	n/a	REC_START	171392	n/a	LTP202	ltpFR	12	1	n/a	n/a	n/a	n/a	n/a	n/a	n/a	0	0	0	n/a	n/a	n/a	n/a	n/a
343.098	n/a	REC_WORD	171549	wordpools/wasnorm_wordpool_less_exclusions.txt	LTP202	ltpFR	12	1	0	CAB	209	n/a	n/a	1	n/a	0	0	0	n/a	n/a	n/a	n/a	n/a
343.722	n/a	REC_WORD	171861	wordpools/wasnorm_wordpool_less_exclusions.txt	LTP202	ltpFR	12	1	0	OLIVE	975	n/a	n/a	0	n/a	0	0	0	n/a	n/a	n/a	n/a	n/a
344.314	n/a	REC_WORD	172157	wordpools/wasnorm_wordpool_less_exclusions.txt	LTP202	ltpFR	12	1	0	DRIVEWAY	500	n/a	n/a	1	n/a	0	0	0	n/a	n/a	n/a	n/a	n/a
345.546	n/a	REC_WORD	172773	wordpools/wasnorm_wordpool_less_exclusions.txt	LTP202	ltpFR	12	1	0	FEATHER	557	n/a	n/a	0	n/a	0	0	0	n/a	n/a	n/a	n/a	n/a
347.532	n/a	REC_WORD	173766	wordpools/wasnorm_wordpool_less_exclusions.txt	LTP202	ltpFR	12	1	0	LETTUCE	814	n/a	n/a	0	n/a	0	0	0	n/a	n/a	n/a	n/a	n/a
350.82	n/a	REC_WORD	175410	wordpools/wasnorm_wordpool_less_exclusions.txt	LTP202	ltpFR	12	1	0	VEHICLE	1553	n/a	n/a	1	n/a	0	0	0	n/a	n/a	n/a	n/a	n/a
352.492	n/a	REC_WORD	176246	wordpools/wasnorm_wordpool_less_exclusions.txt	LTP202	ltpFR	12	1	0	ENGINE	535	n/a	n/a	1	n/a	0	0	0	n/a	n/a	n/a	n/a	n/a
358.908	n/a	REC_WORD	179454	wordpools/wasnorm_wordpool_less_exclusions.txt	LTP202	ltpFR	12	1	0	CARNIVAL	245	n/a	n/a	1	n/a	0	0	0	n/a	n/a	n/a	n/a	n/a
361.476	n/a	REC_WORD	180738	wordpools/wasnorm_wordpool_less_exclusions.txt	LTP202	ltpFR	12	1	0	REEF	1177	n/a	n/a	1	n/a	0	0	0	n/a	n/a	n/a	n/a	n/a
365.872	n/a	REC_WORD	182936	wordpools/wasnorm_wordpool_less_exclusions.txt	LTP202	ltpFR	12	1	0	BUTTON	207	n/a	n/a	0	n/a	0	0	0	n/a	n/a	n/a	n/a	n/a
366.49	n/a	REC_WORD	183245	wordpools/wasnorm_wordpool_less_exclusions.txt	LTP202	ltpFR	12	1	0	JACKET	747	n/a	n/a	1	n/a	0	0	0	n/a	n/a	n/a	n/a	n/a
368.406	n/a	REC_WORD	184203	wordpools/wasnorm_wordpool_less_exclusions.txt	LTP202	ltpFR	12	1	0	POT	1114	n/a	n/a	1	n/a	0	0	0	n/a	n/a	n/a	n/a	n/a
369.404	n/a	REC_WORD	184702	wordpools/wasnorm_wordpool_less_exclusions.txt	LTP202	ltpFR	12	1	0	GLUE	643	n/a	n/a	0	n/a	0	0	0	n/a	n/a	n/a	n/a	n/a
375.814	n/a	REC_WORD	187907	wordpools/wasnorm_wordpool_less_exclusions.txt	LTP202	ltpFR	12	1	0	CARDINAL	244	n/a	n/a	1	n/a	0	0	0	n/a	n/a	n/a	n/a	n/a
420.884	n/a	START	210442	n/a	LTP202	ltpFR	12	n/a	n/a	n/a	n/a	n/a	n/a	n/a	n/a	n/a	n/a	n/a	n/a	n/a	n/a	n/a	n/a
422.398	n/a	PROB	211199	n/a	LTP202	ltpFR	12	n/a	n/a	n/a	n/a	n/a	n/a	n/a	13	4	6	3	n/a	n/a	n/a	n/a	n/a
423.462	n/a	PROB	211731	n/a	LTP202	ltpFR	12	n/a	n/a	n/a	n/a	n/a	n/a	n/a	9	3	4	2	n/a	n/a	n/a	n/a	n/a
424.594	n/a	PROB	212297	n/a	LTP202	ltpFR	12	n/a	n/a	n/a	n/a	n/a	n/a	n/a	20	8	7	5	n/a	n/a	n/a	n/a	n/a
425.86	n/a	PROB	212930	n/a	LTP202	ltpFR	12	n/a	n/a	n/a	n/a	n/a	n/a	n/a	13	5	3	5	n/a	n/a	n/a	n/a	n/a
428.884	n/a	STOP	214442	n/a	LTP202	ltpFR	12	n/a	n/a	n/a	n/a	n/a	n/a	n/a	n/a	n/a	n/a	n/a	n/a	n/a	n/a	n/a	n/a
429.87	n/a	WORD	214935	wordpools/wasnorm_wordpool_less_exclusions.txt	LTP202	ltpFR	12	2	0	SCREWDRIVER	1255	n/a	n/a	0	n/a	0	0	0	0.422607421875	0.5869140625	0	lower	zerothre.ttf
432.884	n/a	START	216442	n/a	LTP202	ltpFR	12	n/a	n/a	n/a	n/a	n/a	n/a	n/a	n/a	n/a	n/a	n/a	n/a	n/a	n/a	n/a	n/a
433.898	n/a	PROB	216949	n/a	LTP202	ltpFR	12	n/a	n/a	n/a	n/a	n/a	n/a	n/a	14	4	4	6	n/a	n/a	n/a	n/a	n/a
435.362	n/a	PROB	217681	n/a	LTP202	ltpFR	12	n/a	n/a	n/a	n/a	n/a	n/a	n/a	10	4	5	1	n/a	n/a	n/a	n/a	n/a
436.46	n/a	PROB	218230	n/a	LTP202	ltpFR	12	n/a	n/a	n/a	n/a	n/a	n/a	n/a	16	8	4	4	n/a	n/a	n/a	n/a	n/a
437.592	n/a	PROB	218796	n/a	LTP202	ltpFR	12	n/a	n/a	n/a	n/a	n/a	n/a	n/a	17	9	7	1	n/a	n/a	n/a	n/a	n/a
439.008	n/a	PROB	219504	n/a	LTP202	ltpFR	12	n/a	n/a	n/a	n/a	n/a	n/a	n/a	22	8	6	7	n/a	n/a	n/a	n/a	n/a
440.362	n/a	STOP	220181	n/a	LTP202	ltpFR	12	n/a	n/a	n/a	n/a	n/a	n/a	n/a	n/a	n/a	n/a	n/a	n/a	n/a	n/a	n/a	n/a
442.052	n/a	WORD	221026	wordpools/wasnorm_wordpool_less_exclusions.txt	LTP202	ltpFR	12	2	0	BLADE	134	n/a	n/a	0	n/a	0	0	0	0.422607421875	0.5869140625	0	lower	zerothre.ttf
445.066	n/a	START	222533	n/a	LTP202	ltpFR	12	n/a	n/a	n/a	n/a	n/a	n/a	n/a	n/a	n/a	n/a	n/a	n/a	n/a	n/a	n/a	n/a
446.046	n/a	PROB	223023	n/a	LTP202	ltpFR	12	n/a	n/a	n/a	n/a	n/a	n/a	n/a	17	6	6	5	n/a	n/a	n/a	n/a	n/a
447.644	n/a	PROB	223822	n/a	LTP202	ltpFR	12	n/a	n/a	n/a	n/a	n/a	n/a	n/a	15	6	6	3	n/a	n/a	n/a	n/a	n/a
448.844	n/a	PROB	224422	n/a	LTP202	ltpFR	12	n/a	n/a	n/a	n/a	n/a	n/a	n/a	12	2	6	4	n/a	n/a	n/a	n/a	n/a
450.356	n/a	PROB	225178	n/a	LTP202	ltpFR	12	n/a	n/a	n/a	n/a	n/a	n/a	n/a	12	4	1	7	n/a	n/a	n/a	n/a	n/a
451.722	n/a	STOP	225861	n/a	LTP202	ltpFR	12	n/a	n/a	n/a	n/a	n/a	n/a	n/a	n/a	n/a	n/a	n/a	n/a	n/a	n/a	n/a	n/a
453.968	n/a	WORD	226984	wordpools/wasnorm_wordpool_less_exclusions.txt	LTP202	ltpFR	12	2	0	MONGOOSE	909	n/a	n/a	1	n/a	0	0	0	0.422607421875	0.5869140625	0	lower	zerothre.ttf
456.98	n/a	START	228490	n/a	LTP202	ltpFR	12	n/a	n/a	n/a	n/a	n/a	n/a	n/a	n/a	n/a	n/a	n/a	n/a	n/a	n/a	n/a	n/a
457.846	n/a	PROB	228923	n/a	LTP202	ltpFR	12	n/a	n/a	n/a	n/a	n/a	n/a	n/a	20	5	9	6	n/a	n/a	n/a	n/a	n/a
459.71	n/a	PROB	229855	n/a	LTP202	ltpFR	12	n/a	n/a	n/a	n/a	n/a	n/a	n/a	21	9	3	9	n/a	n/a	n/a	n/a	n/a
461.306	n/a	PROB	230653	n/a	LTP202	ltpFR	12	n/a	n/a	n/a	n/a	n/a	n/a	n/a	20	7	7	6	n/a	n/a	n/a	n/a	n/a
462.522	n/a	PROB	231261	n/a	LTP202	ltpFR	12	n/a	n/a	n/a	n/a	n/a	n/a	n/a	23	9	9	5	n/a	n/a	n/a	n/a	n/a
463.898	n/a	STOP	231949	n/a	LTP202	ltpFR	12	n/a	n/a	n/a	n/a	n/a	n/a	n/a	n/a	n/a	n/a	n/a	n/a	n/a	n/a	n/a	n/a
466.166	n/a	WORD	233083	wordpools/wasnorm_wordpool_less_exclusions.txt	LTP202	ltpFR	12	2	1	FUR	615	n/a	n/a	0	n/a	0	0	0	0.57763671875	0.412841796875	1	upper	amplitud.ttf
469.18	n/a	START	234590	n/a	LTP202	ltpFR	12	n/a	n/a	n/a	n/a	n/a	n/a	n/a	n/a	n/a	n/a	n/a	n/a	n/a	n/a	n/a	n/a
470.01	n/a	PROB	235005	n/a	LTP202	ltpFR	12	n/a	n/a	n/a	n/a	n/a	n/a	n/a	8	2	3	3	n/a	n/a	n/a	n/a	n/a
471.11	n/a	PROB	235555	n/a	LTP202	ltpFR	12	n/a	n/a	n/a	n/a	n/a	n/a	n/a	16	7	7	2	n/a	n/a	n/a	n/a	n/a
472.59	n/a	PROB	236295	n/a	LTP202	ltpFR	12	n/a	n/a	n/a	n/a	n/a	n/a	n/a	4	1	2	1	n/a	n/a	n/a	n/a	n/a
473.572	n/a	PROB	236786	n/a	LTP202	ltpFR	12	n/a	n/a	n/a	n/a	n/a	n/a	n/a	20	9	9	2	n/a	n/a	n/a	n/a	n/a
474.704	n/a	PROB	237352	n/a	LTP202	ltpFR	12	n/a	n/a	n/a	n/a	n/a	n/a	n/a	10	1	2	7	n/a	n/a	n/a	n/a	n/a
475.874	n/a	STOP	237937	n/a	LTP202	ltpFR	12	n/a	n/a	n/a	n/a	n/a	n/a	n/a	n/a	n/a	n/a	n/a	n/a	n/a	n/a	n/a	n/a
478.216	n/a	WORD	239108	wordpools/wasnorm_wordpool_less_exclusions.txt	LTP202	ltpFR	12	2	1	ELECTRICIAN	521	n/a	n/a	1	n/a	0	0	0	0.57763671875	0.412841796875	1	upper	amplitud.ttf
481.228	n/a	START	240614	n/a	LTP202	ltpFR	12	n/a	n/a	n/a	n/a	n/a	n/a	n/a	n/a	n/a	n/a	n/a	n/a	n/a	n/a	n/a	n/a
482.226	n/a	PROB	241113	n/a	LTP202	ltpFR	12	n/a	n/a	n/a	n/a	n/a	n/a	n/a	15	8	6	1	n/a	n/a	n/a	n/a	n/a
483.358	n/a	PROB	241679	n/a	LTP202	ltpFR	12	n/a	n/a	n/a	n/a	n/a	n/a	n/a	9	3	4	2	n/a	n/a	n/a	n/a	n/a
484.472	n/a	PROB	242236	n/a	LTP202	ltpFR	12	n/a	n/a	n/a	n/a	n/a	n/a	n/a	17	9	6	2	n/a	n/a	n/a	n/a	n/a
486.17	n/a	PROB	243085	n/a	LTP202	ltpFR	12	n/a	n/a	n/a	n/a	n/a	n/a	n/a	10	1	7	2	n/a	n/a	n/a	n/a	n/a
488.53	n/a	STOP	244265	n/a	LTP202	ltpFR	12	n/a	n/a	n/a	n/a	n/a	n/a	n/a	n/a	n/a	n/a	n/a	n/a	n/a	n/a	n/a	n/a
490.396	n/a	WORD	245198	wordpools/wasnorm_wordpool_less_exclusions.txt	LTP202	ltpFR	12	2	1	GROUND	666	n/a	n/a	0	n/a	0	0	0	0.57763671875	0.412841796875	1	upper	amplitud.ttf
493.41	n/a	START	246705	n/a	LTP202	ltpFR	12	n/a	n/a	n/a	n/a	n/a	n/a	n/a	n/a	n/a	n/a	n/a	n/a	n/a	n/a	n/a	n/a
494.558	n/a	PROB	247279	n/a	LTP202	ltpFR	12	n/a	n/a	n/a	n/a	n/a	n/a	n/a	7	1	5	2	n/a	n/a	n/a	n/a	n/a
495.824	n/a	PROB	247912	n/a	LTP202	ltpFR	12	n/a	n/a	n/a	n/a	n/a	n/a	n/a	14	4	9	1	n/a	n/a	n/a	n/a	n/a
497.154	n/a	PROB	248577	n/a	LTP202	ltpFR	12	n/a	n/a	n/a	n/a	n/a	n/a	n/a	20	8	5	7	n/a	n/a	n/a	n/a	n/a
498.484	n/a	PROB	249242	n/a	LTP202	ltpFR	12	n/a	n/a	n/a	n/a	n/a	n/a	n/a	12	3	1	8	n/a	n/a	n/a	n/a	n/a
499.584	n/a	PROB	249792	n/a	LTP202	ltpFR	12	n/a	n/a	n/a	n/a	n/a	n/a	n/a	10	4	1	5	n/a	n/a	n/a	n/a	n/a
500.69	n/a	STOP	250345	n/a	LTP202	ltpFR	12	n/a	n/a	n/a	n/a	n/a	n/a	n/a	n/a	n/a	n/a	n/a	n/a	n/a	n/a	n/a	n/a
502.462	n/a	WORD	251231	wordpools/wasnorm_wordpool_less_exclusions.txt	LTP202	ltpFR	12	2	1	SPOON	1357	n/a	n/a	0	n/a	0	0	0	0.57763671875	0.412841796875	1	upper	amplitud.ttf
505.476	n/a	START	252738	n/a	LTP202	ltpFR	12	n/a	n/a	n/a	n/a	n/a	n/a	n/a	n/a	n/a	n/a	n/a	n/a	n/a	n/a	n/a	n/a
506.29	n/a	PROB	253145	n/a	LTP202	ltpFR	12	n/a	n/a	n/a	n/a	n/a	n/a	n/a	16	5	3	8	n/a	n/a	n/a	n/a	n/a
507.724	n/a	PROB	253862	n/a	LTP202	ltpFR	12	n/a	n/a	n/a	n/a	n/a	n/a	n/a	16	6	9	1	n/a	n/a	n/a	n/a	n/a
509.054	n/a	PROB	254527	n/a	LTP202	ltpFR	12	n/a	n/a	n/a	n/a	n/a	n/a	n/a	11	2	5	4	n/a	n/a	n/a	n/a	n/a
510.736	n/a	PROB	255368	n/a	LTP202	ltpFR	12	n/a	n/a	n/a	n/a	n/a	n/a	n/a	20	9	9	2	n/a	n/a	n/a	n/a	n/a
511.966	n/a	PROB	255983	n/a	LTP202	ltpFR	12	n/a	n/a	n/a	n/a	n/a	n/a	n/a	20	4	8	8	n/a	n/a	n/a	n/a	n/a
513.178	n/a	STOP	256589	n/a	LTP202	ltpFR	12	n/a	n/a	n/a	n/a	n/a	n/a	n/a	n/a	n/a	n/a	n/a	n/a	n/a	n/a	n/a	n/a
514.628	n/a	WORD	257314	wordpools/wasnorm_wordpool_less_exclusions.txt	LTP202	ltpFR	12	2	0	BURGLAR	200	n/a	n/a	1	n/a	0	0	0	0.422607421875	0.5869140625	0	lower	zerothre.ttf
517.64	n/a	START	258820	n/a	LTP202	ltpFR	12	n/a	n/a	n/a	n/a	n/a	n/a	n/a	n/a	n/a	n/a	n/a	n/a	n/a	n/a	n/a	n/a
518.522	n/a	PROB	259261	n/a	LTP202	ltpFR	12	n/a	n/a	n/a	n/a	n/a	n/a	n/a	15	9	4	2	n/a	n/a	n/a	n/a	n/a
519.62	n/a	PROB	259810	n/a	LTP202	ltpFR	12	n/a	n/a	n/a	n/a	n/a	n/a	n/a	20	9	8	3	n/a	n/a	n/a	n/a	n/a
520.836	n/a	PROB	260418	n/a	LTP202	ltpFR	12	n/a	n/a	n/a	n/a	n/a	n/a	n/a	17	8	4	5	n/a	n/a	n/a	n/a	n/a
522.184	n/a	PROB	261092	n/a	LTP202	ltpFR	12	n/a	n/a	n/a	n/a	n/a	n/a	n/a	9	6	2	1	n/a	n/a	n/a	n/a	n/a
523.398	n/a	PROB	261699	n/a	LTP202	ltpFR	12	n/a	n/a	n/a	n/a	n/a	n/a	n/a	17	9	1	7	n/a	n/a	n/a	n/a	n/a
524.506	n/a	STOP	262253	n/a	LTP202	ltpFR	12	n/a	n/a	n/a	n/a	n/a	n/a	n/a	n/a	n/a	n/a	n/a	n/a	n/a	n/a	n/a	n/a
526.644	n/a	WORD	263322	wordpools/wasnorm_wordpool_less_exclusions.txt	LTP202	ltpFR	12	2	0	BANDIT	81	n/a	n/a	1	n/a	0	0	0	0.422607421875	0.5869140625	0	lower	zerothre.ttf
529.656	n/a	START	264828	n/a	LTP202	ltpFR	12	n/a	n/a	n/a	n/a	n/a	n/a	n/a	n/a	n/a	n/a	n/a	n/a	n/a	n/a	n/a	n/a
530.538	n/a	PROB	265269	n/a	LTP202	ltpFR	12	n/a	n/a	n/a	n/a	n/a	n/a	n/a	12	4	4	4	n/a	n/a	n/a	n/a	n/a
531.52	n/a	PROB	265760	n/a	LTP202	ltpFR	12	n/a	n/a	n/a	n/a	n/a	n/a	n/a	13	9	1	3	n/a	n/a	n/a	n/a	n/a
532.568	n/a	PROB	266284	n/a	LTP202	ltpFR	12	n/a	n/a	n/a	n/a	n/a	n/a	n/a	15	1	8	6	n/a	n/a	n/a	n/a	n/a
533.85	n/a	PROB	266925	n/a	LTP202	ltpFR	12	n/a	n/a	n/a	n/a	n/a	n/a	n/a	22	9	5	8	n/a	n/a	n/a	n/a	n/a
535.43	n/a	PROB	267715	n/a	LTP202	ltpFR	12	n/a	n/a	n/a	n/a	n/a	n/a	n/a	14	2	6	6	n/a	n/a	n/a	n/a	n/a
536.626	n/a	STOP	268313	n/a	LTP202	ltpFR	12	n/a	n/a	n/a	n/a	n/a	n/a	n/a	n/a	n/a	n/a	n/a	n/a	n/a	n/a	n/a	n/a
538.676	n/a	WORD	269338	wordpools/wasnorm_wordpool_less_exclusions.txt	LTP202	ltpFR	12	2	0	BOYFRIEND	162	n/a	n/a	1	n/a	0	0	0	0.422607421875	0.5869140625	0	lower	zerothre.ttf
541.69	n/a	START	270845	n/a	LTP202	ltpFR	12	n/a	n/a	n/a	n/a	n/a	n/a	n/a	n/a	n/a	n/a	n/a	n/a	n/a	n/a	n/a	n/a
542.504	n/a	PROB	271252	n/a	LTP202	ltpFR	12	n/a	n/a	n/a	n/a	n/a	n/a	n/a	17	3	6	8	n/a	n/a	n/a	n/a	n/a
544.368	n/a	PROB	272184	n/a	LTP202	ltpFR	12	n/a	n/a	n/a	n/a	n/a	n/a	n/a	20	7	6	7	n/a	n/a	n/a	n/a	n/a
545.598	n/a	PROB	272799	n/a	LTP202	ltpFR	12	n/a	n/a	n/a	n/a	n/a	n/a	n/a	9	3	4	2	n/a	n/a	n/a	n/a	n/a
546.882	n/a	PROB	273441	n/a	LTP202	ltpFR	12	n/a	n/a	n/a	n/a	n/a	n/a	n/a	16	7	3	6	n/a	n/a	n/a	n/a	n/a
547.996	n/a	PROB	273998	n/a	LTP202	ltpFR	12	n/a	n/a	n/a	n/a	n/a	n/a	n/a	12	1	7	2	n/a	n/a	n/a	n/a	n/a
549.026	n/a	STOP	274513	n/a	LTP202	ltpFR	12	n/a	n/a	n/a	n/a	n/a	n/a	n/a	n/a	n/a	n/a	n/a	n/a	n/a	n/a	n/a	n/a
550.608	n/a	WORD	275304	wordpools/wasnorm_wordpool_less_exclusions.txt	LTP202	ltpFR	12	2	1	TACK	1428	n/a	n/a	0	n/a	0	0	0	0.57763671875	0.412841796875	1	upper	amplitud.ttf
553.62	n/a	START	276810	n/a	LTP202	ltpFR	12	n/a	n/a	n/a	n/a	n/a	n/a	n/a	n/a	n/a	n/a	n/a	n/a	n/a	n/a	n/a	n/a
554.686	n/a	PROB	277343	n/a	LTP202	ltpFR	12	n/a	n/a	n/a	n/a	n/a	n/a	n/a	25	6	8	9	n/a	n/a	n/a	n/a	n/a
557.048	n/a	PROB	278524	n/a	LTP202	ltpFR	12	n/a	n/a	n/a	n/a	n/a	n/a	n/a	13	6	4	3	n/a	n/a	n/a	n/a	n/a
558.446	n/a	PROB	279223	n/a	LTP202	ltpFR	12	n/a	n/a	n/a	n/a	n/a	n/a	n/a	15	7	2	6	n/a	n/a	n/a	n/a	n/a
561.62	n/a	STOP	280810	n/a	LTP202	ltpFR	12	n/a	n/a	n/a	n/a	n/a	n/a	n/a	n/a	n/a	n/a	n/a	n/a	n/a	n/a	n/a	n/a
562.574	n/a	WORD	281287	wordpools/wasnorm_wordpool_less_exclusions.txt	LTP202	ltpFR	12	2	1	APPENDAGE	32	n/a	n/a	0	n/a	0	0	0	0.57763671875	0.412841796875	1	upper	amplitud.ttf
565.586	n/a	START	282793	n/a	LTP202	ltpFR	12	n/a	n/a	n/a	n/a	n/a	n/a	n/a	n/a	n/a	n/a	n/a	n/a	n/a	n/a	n/a	n/a
566.684	n/a	PROB	283342	n/a	LTP202	ltpFR	12	n/a	n/a	n/a	n/a	n/a	n/a	n/a	15	7	5	3	n/a	n/a	n/a	n/a	n/a
567.966	n/a	PROB	283983	n/a	LTP202	ltpFR	12	n/a	n/a	n/a	n/a	n/a	n/a	n/a	11	3	5	3	n/a	n/a	n/a	n/a	n/a
569.946	n/a	PROB	284973	n/a	LTP202	ltpFR	12	n/a	n/a	n/a	n/a	n/a	n/a	n/a	14	3	8	3	n/a	n/a	n/a	n/a	n/a
571.926	n/a	PROB	285963	n/a	LTP202	ltpFR	12	n/a	n/a	n/a	n/a	n/a	n/a	n/a	13	1	4	8	n/a	n/a	n/a	n/a	n/a
573.058	n/a	STOP	286529	n/a	LTP202	ltpFR	12	n/a	n/a	n/a	n/a	n/a	n/a	n/a	n/a	n/a	n/a	n/a	n/a	n/a	n/a	n/a	n/a
574.656	n/a	WORD	287328	wordpools/wasnorm_wordpool_less_exclusions.txt	LTP202	ltpFR	12	2	1	NOTEBOOK	959	n/a	n/a	0	n/a	0	0	0	0.57763671875	0.412841796875	1	upper	amplitud.ttf
577.67	n/a	START	288835	n/a	LTP202	ltpFR	12	n/a	n/a	n/a	n/a	n/a	n/a	n/a	n/a	n/a	n/a	n/a	n/a	n/a	n/a	n/a	n/a
578.802	n/a	PROB	289401	n/a	LTP202	ltpFR	12	n/a	n/a	n/a	n/a	n/a	n/a	n/a	11	3	6	2	n/a	n/a	n/a	n/a	n/a
579.948	n/a	PROB	289974	n/a	LTP202	ltpFR	12	n/a	n/a	n/a	n/a	n/a	n/a	n/a	11	6	3	1	n/a	n/a	n/a	n/a	n/a
581.064	n/a	PROB	290532	n/a	LTP202	ltpFR	12	n/a	n/a	n/a	n/a	n/a	n/a	n/a	15	2	9	4	n/a	n/a	n/a	n/a	n/a
582.362	n/a	PROB	291181	n/a	LTP202	ltpFR	12	n/a	n/a	n/a	n/a	n/a	n/a	n/a	15	5	6	4	n/a	n/a	n/a	n/a	n/a
583.494	n/a	PROB	291747	n/a	LTP202	ltpFR	12	n/a	n/a	n/a	n/a	n/a	n/a	n/a	12	3	7	2	n/a	n/a	n/a	n/a	n/a
584.452	n/a	STOP	292226	n/a	LTP202	ltpFR	12	n/a	n/a	n/a	n/a	n/a	n/a	n/a	n/a	n/a	n/a	n/a	n/a	n/a	n/a	n/a	n/a
586.722	n/a	WORD	293361	wordpools/wasnorm_wordpool_less_exclusions.txt	LTP202	ltpFR	12	2	1	DOLLAR	482	n/a	n/a	0	n/a	0	0	0	0.57763671875	0.412841796875	1	upper	amplitud.ttf
589.736	n/a	START	294868	n/a	LTP202	ltpFR	12	n/a	n/a	n/a	n/a	n/a	n/a	n/a	n/a	n/a	n/a	n/a	n/a	n/a	n/a	n/a	n/a
590.7	n/a	PROB	295350	n/a	LTP202	ltpFR	12	n/a	n/a	n/a	n/a	n/a	n/a	n/a	20	7	6	7	n/a	n/a	n/a	n/a	n/a
592.048	n/a	PROB	296024	n/a	LTP202	ltpFR	12	n/a	n/a	n/a	n/a	n/a	n/a	n/a	9	1	4	4	n/a	n/a	n/a	n/a	n/a
593.512	n/a	PROB	296756	n/a	LTP202	ltpFR	12	n/a	n/a	n/a	n/a	n/a	n/a	n/a	6	1	1	4	n/a	n/a	n/a	n/a	n/a
594.794	n/a	PROB	297397	n/a	LTP202	ltpFR	12	n/a	n/a	n/a	n/a	n/a	n/a	n/a	7	2	2	3	n/a	n/a	n/a	n/a	n/a
596.212	n/a	STOP	298106	n/a	LTP202	ltpFR	12	n/a	n/a	n/a	n/a	n/a	n/a	n/a	n/a	n/a	n/a	n/a	n/a	n/a	n/a	n/a	n/a
598.57	n/a	WORD	299285	wordpools/wasnorm_wordpool_less_exclusions.txt	LTP202	ltpFR	12	2	0	NAVIGATOR	938	n/a	n/a	1	n/a	0	0	0	0.422607421875	0.5869140625	0	lower	zerothre.ttf
601.584	n/a	START	300792	n/a	LTP202	ltpFR	12	n/a	n/a	n/a	n/a	n/a	n/a	n/a	n/a	n/a	n/a	n/a	n/a	n/a	n/a	n/a	n/a
602.448	n/a	PROB	301224	n/a	LTP202	ltpFR	12	n/a	n/a	n/a	n/a	n/a	n/a	n/a	18	5	9	4	n/a	n/a	n/a	n/a	n/a
603.748	n/a	PROB	301874	n/a	LTP202	ltpFR	12	n/a	n/a	n/a	n/a	n/a	n/a	n/a	18	8	8	2	n/a	n/a	n/a	n/a	n/a
605.394	n/a	PROB	302697	n/a	LTP202	ltpFR	12	n/a	n/a	n/a	n/a	n/a	n/a	n/a	20	7	4	9	n/a	n/a	n/a	n/a	n/a
606.958	n/a	PROB	303479	n/a	LTP202	ltpFR	12	n/a	n/a	n/a	n/a	n/a	n/a	n/a	19	9	6	4	n/a	n/a	n/a	n/a	n/a
608.748	n/a	STOP	304374	n/a	LTP202	ltpFR	12	n/a	n/a	n/a	n/a	n/a	n/a	n/a	n/a	n/a	n/a	n/a	n/a	n/a	n/a	n/a	n/a
610.754	n/a	WORD	305377	wordpools/wasnorm_wordpool_less_exclusions.txt	LTP202	ltpFR	12	2	0	VESSEL	1558	n/a	n/a	1	n/a	0	0	0	0.422607421875	0.5869140625	0	lower	zerothre.ttf
613.766	n/a	START	306883	n/a	LTP202	ltpFR	12	n/a	n/a	n/a	n/a	n/a	n/a	n/a	n/a	n/a	n/a	n/a	n/a	n/a	n/a	n/a	n/a
614.83	n/a	PROB	307415	n/a	LTP202	ltpFR	12	n/a	n/a	n/a	n/a	n/a	n/a	n/a	17	7	4	6	n/a	n/a	n/a	n/a	n/a
616.178	n/a	PROB	308089	n/a	LTP202	ltpFR	12	n/a	n/a	n/a	n/a	n/a	n/a	n/a	18	6	4	8	n/a	n/a	n/a	n/a	n/a
617.492	n/a	PROB	308746	n/a	LTP202	ltpFR	12	n/a	n/a	n/a	n/a	n/a	n/a	n/a	11	3	3	5	n/a	n/a	n/a	n/a	n/a
618.658	n/a	PROB	309329	n/a	LTP202	ltpFR	12	n/a	n/a	n/a	n/a	n/a	n/a	n/a	13	7	3	3	n/a	n/a	n/a	n/a	n/a
619.824	n/a	PROB	309912	n/a	LTP202	ltpFR	12	n/a	n/a	n/a	n/a	n/a	n/a	n/a	20	5	8	8	n/a	n/a	n/a	n/a	n/a
621.22	n/a	STOP	310610	n/a	LTP202	ltpFR	12	n/a	n/a	n/a	n/a	n/a	n/a	n/a	n/a	n/a	n/a	n/a	n/a	n/a	n/a	n/a	n/a
623.634	n/a	REC_START	311817	n/a	LTP202	ltpFR	12	2	n/a	n/a	n/a	n/a	n/a	n/a	n/a	0	0	0	n/a	n/a	n/a	n/a	n/a
624.386	n/a	REC_WORD	312193	wordpools/wasnorm_wordpool_less_exclusions.txt	LTP202	ltpFR	12	2	0	NAVIGATOR	938	n/a	n/a	1	n/a	0	0	0	n/a	n/a	n/a	n/a	n/a
625.458	n/a	REC_WORD	312729	wordpools/wasnorm_wordpool_less_exclusions.txt	LTP202	ltpFR	12	2	0	VESSEL	1558	n/a	n/a	1	n/a	0	0	0	n/a	n/a	n/a	n/a	n/a
627.404	n/a	REC_WORD	313702	wordpools/wasnorm_wordpool_less_exclusions.txt	LTP202	ltpFR	12	2	0	BURGLAR	200	n/a	n/a	1	n/a	0	0	0	n/a	n/a	n/a	n/a	n/a
628.168	n/a	REC_WORD	314084	wordpools/wasnorm_wordpool_less_exclusions.txt	LTP202	ltpFR	12	2	0	BANDIT	81	n/a	n/a	1	n/a	0	0	0	n/a	n/a	n/a	n/a	n/a
630.168	n/a	REC_WORD	315084	wordpools/wasnorm_wordpool_less_exclusions.txt	LTP202	ltpFR	12	2	0	MONGOOSE	909	n/a	n/a	1	n/a	0	0	0	n/a	n/a	n/a	n/a	n/a
631.096	n/a	REC_WORD	315548	wordpools/wasnorm_wordpool_less_exclusions.txt	LTP202	ltpFR	12	2	1	FUR	615	n/a	n/a	0	n/a	0	0	0	n/a	n/a	n/a	n/a	n/a
640.724	n/a	REC_WORD	320362	wordpools/wasnorm_wordpool_less_exclusions.txt	LTP202	ltpFR	12	2	0	SCREWDRIVER	1255	n/a	n/a	0	n/a	0	0	0	n/a	n/a	n/a	n/a	n/a
642.296	n/a	REC_WORD	321148	wordpools/wasnorm_wordpool_less_exclusions.txt	LTP202	ltpFR	12	2	0	BLADE	134	n/a	n/a	0	n/a	0	0	0	n/a	n/a	n/a	n/a	n/a
645.494	n/a	REC_WORD	322747	wordpools/wasnorm_wordpool_less_exclusions.txt	LTP202	ltpFR	12	2	1	ELECTRICIAN	521	n/a	n/a	1	n/a	0	0	0	n/a	n/a	n/a	n/a	n/a
665.054	n/a	REC_WORD	332527	wordpools/wasnorm_wordpool_less_exclusions.txt	LTP202	ltpFR	12	2	0	VESSEL	1558	n/a	n/a	1	n/a	0	0	0	n/a	n/a	n/a	n/a	n/a
682.536	n/a	REC_WORD	341268	wordpools/wasnorm_wordpool_less_exclusions.txt	LTP202	ltpFR	12	2	0	BOYFRIEND	162	n/a	n/a	1	n/a	0	0	0	n/a	n/a	n/a	n/a	n/a
687.544	n/a	REC_WORD	343772	wordpools/wasnorm_wordpool_less_exclusions.txt	LTP202	ltpFR	12	2	0	BURGLAR	200	n/a	n/a	1	n/a	0	0	0	n/a	n/a	n/a	n/a	n/a
688.058	n/a	REC_WORD	344029	wordpools/wasnorm_wordpool_less_exclusions.txt	LTP202	ltpFR	12	2	0	BANDIT	81	n/a	n/a	1	n/a	0	0	0	n/a	n/a	n/a	n/a	n/a
702.05	n/a	WORD	351025	wordpools/wasnorm_wordpool_less_exclusions.txt	LTP202	ltpFR	12	3	0	CONVENT	370	n/a	n/a	1	n/a	0	0	0	0.422607421875	0.5869140625	0	lower	zerothre.ttf
706.144	n/a	WORD	353072	wordpools/wasnorm_wordpool_less_exclusions.txt	LTP202	ltpFR	12	3	0	DANDELION	438	n/a	n/a	0	n/a	0	0	0	0.422607421875	0.5869140625	0	lower	zerothre.ttf
710.006	n/a	WORD	355003	wordpools/wasnorm_wordpool_less_exclusions.txt	LTP202	ltpFR	12	3	0	GARDEN	623	n/a	n/a	1	n/a	0	0	0	0.422607421875	0.5869140625	0	lower	zerothre.ttf
713.982	n/a	WORD	356991	wordpools/wasnorm_wordpool_less_exclusions.txt	LTP202	ltpFR	12	3	0	COOKIE	374	n/a	n/a	0	n/a	0	0	0	0.422607421875	0.5869140625	0	lower	zerothre.ttf
717.994	n/a	WORD	358997	wordpools/wasnorm_wordpool_less_exclusions.txt	LTP202	ltpFR	12	3	0	SWORD	1423	n/a	n/a	1	n/a	0	0	0	0.422607421875	0.5869140625	0	lower	zerothre.ttf
722.004	n/a	WORD	361002	wordpools/wasnorm_wordpool_less_exclusions.txt	LTP202	ltpFR	12	3	0	SAILOR	1223	n/a	n/a	1	n/a	0	0	0	0.422607421875	0.5869140625	0	lower	zerothre.ttf
726.098	n/a	WORD	363049	wordpools/wasnorm_wordpool_less_exclusions.txt	LTP202	ltpFR	12	3	1	BARREL	91	n/a	n/a	0	n/a	0	0	0	0.57763671875	0.412841796875	1	upper	amplitud.ttf
730.01	n/a	WORD	365005	wordpools/wasnorm_wordpool_less_exclusions.txt	LTP202	ltpFR	12	3	1	OWNER	993	n/a	n/a	1	n/a	0	0	0	0.57763671875	0.412841796875	1	upper	amplitud.ttf
734.154	n/a	WORD	367077	wordpools/wasnorm_wordpool_less_exclusions.txt	LTP202	ltpFR	12	3	1	ANTELOPE	27	n/a	n/a	1	n/a	0	0	0	0.57763671875	0.412841796875	1	upper	amplitud.ttf
738.198	n/a	WORD	369099	wordpools/wasnorm_wordpool_less_exclusions.txt	LTP202	ltpFR	12	3	1	VIKING	1565	n/a	n/a	1	n/a	0	0	0	0.57763671875	0.412841796875	1	upper	amplitud.ttf
742.242	n/a	WORD	371121	wordpools/wasnorm_wordpool_less_exclusions.txt	LTP202	ltpFR	12	3	0	BADGE	68	n/a	n/a	0	n/a	0	0	0	0.422607421875	0.5869140625	0	lower	zerothre.ttf
746.086	n/a	WORD	373043	wordpools/wasnorm_wordpool_less_exclusions.txt	LTP202	ltpFR	12	3	0	SPY	1360	n/a	n/a	1	n/a	0	0	0	0.422607421875	0.5869140625	0	lower	zerothre.ttf
749.964	n/a	WORD	374982	wordpools/wasnorm_wordpool_less_exclusions.txt	LTP202	ltpFR	12	3	1	CROSS	413	n/a	n/a	0	n/a	0	0	0	0.57763671875	0.412841796875	1	upper	amplitud.ttf
754.074	n/a	WORD	377037	wordpools/wasnorm_wordpool_less_exclusions.txt	LTP202	ltpFR	12	3	1	CHECKERS	285	n/a	n/a	0	n/a	0	0	0	0.57763671875	0.412841796875	1	upper	amplitud.ttf
757.952	n/a	WORD	378976	wordpools/wasnorm_wordpool_less_exclusions.txt	LTP202	ltpFR	12	3	1	COUGAR	387	n/a	n/a	1	n/a	0	0	0	0.57763671875	0.412841796875	1	upper	amplitud.ttf
761.88	n/a	WORD	380940	wordpools/wasnorm_wordpool_less_exclusions.txt	LTP202	ltpFR	12	3	1	RACCOON	1153	n/a	n/a	1	n/a	0	0	0	0.57763671875	0.412841796875	1	upper	amplitud.ttf
764.892	n/a	START	382446	n/a	LTP202	ltpFR	12	n/a	n/a	n/a	n/a	n/a	n/a	n/a	n/a	n/a	n/a	n/a	n/a	n/a	n/a	n/a	n/a
765.84	n/a	PROB	382920	n/a	LTP202	ltpFR	12	n/a	n/a	n/a	n/a	n/a	n/a	n/a	7	3	3	1	n/a	n/a	n/a	n/a	n/a
767.67	n/a	PROB	383835	n/a	LTP202	ltpFR	12	n/a	n/a	n/a	n/a	n/a	n/a	n/a	15	4	2	7	n/a	n/a	n/a	n/a	n/a
768.934	n/a	PROB	384467	n/a	LTP202	ltpFR	12	n/a	n/a	n/a	n/a	n/a	n/a	n/a	15	6	1	8	n/a	n/a	n/a	n/a	n/a
770.582	n/a	PROB	385291	n/a	LTP202	ltpFR	12	n/a	n/a	n/a	n/a	n/a	n/a	n/a	132	4	7	1	n/a	n/a	n/a	n/a	n/a
772.246	n/a	STOP	386123	n/a	LTP202	ltpFR	12	n/a	n/a	n/a	n/a	n/a	n/a	n/a	n/a	n/a	n/a	n/a	n/a	n/a	n/a	n/a	n/a
774.762	n/a	REC_START	387381	n/a	LTP202	ltpFR	12	3	n/a	n/a	n/a	n/a	n/a	n/a	n/a	0	0	0	n/a	n/a	n/a	n/a	n/a
775.186	n/a	REC_WORD	387593	wordpools/wasnorm_wordpool_less_exclusions.txt	LTP202	ltpFR	12	3	1	CROSS	413	n/a	n/a	0	n/a	0	0	0	n/a	n/a	n/a	n/a	n/a
775.878	n/a	REC_WORD	387939	wordpools/wasnorm_wordpool_less_exclusions.txt	LTP202	ltpFR	12	3	1	CHECKERS	285	n/a	n/a	0	n/a	0	0	0	n/a	n/a	n/a	n/a	n/a
776.592	n/a	REC_WORD	388296	wordpools/wasnorm_wordpool_less_exclusions.txt	LTP202	ltpFR	12	3	1	COUGAR	387	n/a	n/a	1	n/a	0	0	0	n/a	n/a	n/a	n/a	n/a
777.266	n/a	REC_WORD	388633	wordpools/wasnorm_wordpool_less_exclusions.txt	LTP202	ltpFR	12	3	1	RACCOON	1153	n/a	n/a	1	n/a	0	0	0	n/a	n/a	n/a	n/a	n/a
779.8	n/a	REC_WORD	389900	wordpools/wasnorm_wordpool_less_exclusions.txt	LTP202	ltpFR	12	3	0	CONVENT	370	n/a	n/a	1	n/a	0	0	0	n/a	n/a	n/a	n/a	n/a
780.698	n/a	REC_WORD	390349	wordpools/wasnorm_wordpool_less_exclusions.txt	LTP202	ltpFR	12	3	0	GARDEN	623	n/a	n/a	1	n/a	0	0	0	n/a	n/a	n/a	n/a	n/a
781.322	n/a	REC_WORD	390661	wordpools/wasnorm_wordpool_less_exclusions.txt	LTP202	ltpFR	12	3	0	DANDELION	438	n/a	n/a	0	n/a	0	0	0	n/a	n/a	n/a	n/a	n/a
785.362	n/a	REC_WORD	392681	wordpools/wasnorm_wordpool_less_exclusions.txt	LTP202	ltpFR	12	3	1	OWNER	993	n/a	n/a	1	n/a	0	0	0	n/a	n/a	n/a	n/a	n/a
792.022	n/a	REC_WORD	396011	wordpools/wasnorm_wordpool_less_exclusions.txt	LTP202	ltpFR	12	3	1	ANTELOPE	27	n/a	n/a	1	n/a	0	0	0	n/a	n/a	n/a	n/a	n/a
798.926	n/a	REC_WORD	399463	wordpools/wasnorm_wordpool_less_exclusions.txt	LTP202	ltpFR	12	3	0	SPY	1360	n/a	n/a	1	n/a	0	0	0	n/a	n/a	n/a	n/a	n/a
874.046	n/a	WORD	437023	wordpools/wasnorm_wordpool_less_exclusions.txt	LTP202	ltpFR	12	4	1	TANGERINE	1431	n/a	n/a	0	n/a	0	0	0	0.57763671875	0.412841796875	1	upper	amplitud.ttf
878.024	n/a	WORD	439012	wordpools/wasnorm_wordpool_less_exclusions.txt	LTP202	ltpFR	12	4	1	REPORT	1184	n/a	n/a	0	n/a	0	0	0	0.57763671875	0.412841796875	1	upper	amplitud.ttf
881.852	n/a	WORD	440926	wordpools/wasnorm_wordpool_less_exclusions.txt	LTP202	ltpFR	12	4	0	FELLOW	558	n/a	n/a	1	n/a	0	0	0	0.422607421875	0.5869140625	0	lower	zerothre.ttf
886.028	n/a	WORD	443014	wordpools/wasnorm_wordpool_less_exclusions.txt	LTP202	ltpFR	12	4	0	LAWN	805	n/a	n/a	1	n/a	0	0	0	0.422607421875	0.5869140625	0	lower	zerothre.ttf
889.972	n/a	WORD	444986	wordpools/wasnorm_wordpool_less_exclusions.txt	LTP202	ltpFR	12	4	0	FROG	608	n/a	n/a	0	n/a	0	0	0	0.422607421875	0.5869140625	0	lower	zerothre.ttf
893.868	n/a	WORD	446934	wordpools/wasnorm_wordpool_less_exclusions.txt	LTP202	ltpFR	12	4	0	CHERRY	293	n/a	n/a	0	n/a	0	0	0	0.422607421875	0.5869140625	0	lower	zerothre.ttf
897.896	n/a	WORD	448948	wordpools/wasnorm_wordpool_less_exclusions.txt	LTP202	ltpFR	12	4	1	MARROW	872	n/a	n/a	0	n/a	0	0	0	0.57763671875	0.412841796875	1	upper	amplitud.ttf
901.822	n/a	WORD	450911	wordpools/wasnorm_wordpool_less_exclusions.txt	LTP202	ltpFR	12	4	1	ARM	38	n/a	n/a	0	n/a	0	0	0	0.57763671875	0.412841796875	1	upper	amplitud.ttf
905.884	n/a	WORD	452942	wordpools/wasnorm_wordpool_less_exclusions.txt	LTP202	ltpFR	12	4	1	SNAKE	1333	n/a	n/a	1	n/a	0	0	0	0.57763671875	0.412841796875	1	upper	amplitud.ttf
909.728	n/a	WORD	454864	wordpools/wasnorm_wordpool_less_exclusions.txt	LTP202	ltpFR	12	4	0	REPTILE	1185	n/a	n/a	1	n/a	0	0	0	0.422607421875	0.5869140625	0	lower	zerothre.ttf
913.554	n/a	WORD	456777	wordpools/wasnorm_wordpool_less_exclusions.txt	LTP202	ltpFR	12	4	0	DAISY	435	n/a	n/a	0	n/a	0	0	0	0.422607421875	0.5869140625	0	lower	zerothre.ttf
917.7	n/a	WORD	458850	wordpools/wasnorm_wordpool_less_exclusions.txt	LTP202	ltpFR	12	4	0	PRINCE	1124	n/a	n/a	1	n/a	0	0	0	0.422607421875	0.5869140625	0	lower	zerothre.ttf
921.776	n/a	WORD	460888	wordpools/wasnorm_wordpool_less_exclusions.txt	LTP202	ltpFR	12	4	0	MEADOW	881	n/a	n/a	1	n/a	0	0	0	0.422607421875	0.5869140625	0	lower	zerothre.ttf
925.62	n/a	WORD	462810	wordpools/wasnorm_wordpool_less_exclusions.txt	LTP202	ltpFR	12	4	1	UNDERWEAR	1537	n/a	n/a	0	n/a	0	0	0	0.57763671875	0.412841796875	1	upper	amplitud.ttf
929.664	n/a	WORD	464832	wordpools/wasnorm_wordpool_less_exclusions.txt	LTP202	ltpFR	12	4	1	SUPPER	1411	n/a	n/a	0	n/a	0	0	0	0.57763671875	0.412841796875	1	upper	amplitud.ttf
933.742	n/a	WORD	466871	wordpools/wasnorm_wordpool_less_exclusions.txt	LTP202	ltpFR	12	4	1	SILVERWARE	1308	n/a	n/a	0	n/a	0	0	0	0.57763671875	0.412841796875	1	upper	amplitud.ttf
939.316	n/a	REC_START	469658	n/a	LTP202	ltpFR	12	4	n/a	n/a	n/a	n/a	n/a	n/a	n/a	0	0	0	n/a	n/a	n/a	n/a	n/a
940.07	n/a	REC_WORD	470035	wordpools/wasnorm_wordpool_less_exclusions.txt	LTP202	ltpFR	12	4	1	UNDERWEAR	1537	n/a	n/a	0	n/a	0	0	0	n/a	n/a	n/a	n/a	n/a
940.726	n/a	REC_WORD	470363	wordpools/wasnorm_wordpool_less_exclusions.txt	LTP202	ltpFR	12	4	1	SUPPER	1411	n/a	n/a	0	n/a	0	0	0	n/a	n/a	n/a	n/a	n/a
941.476	n/a	REC_WORD	470738	wordpools/wasnorm_wordpool_less_exclusions.txt	LTP202	ltpFR	12	4	1	SILVERWARE	1308	n/a	n/a	0	n/a	0	0	0	n/a	n/a	n/a	n/a	n/a
943.222	n/a	REC_WORD	471611	wordpools/wasnorm_wordpool_less_exclusions.txt	LTP202	ltpFR	12	4	1	TANGERINE	1431	n/a	n/a	0	n/a	0	0	0	n/a	n/a	n/a	n/a	n/a
944.032	n/a	REC_WORD	472016	wordpools/wasnorm_wordpool_less_exclusions.txt	LTP202	ltpFR	12	4	1	REPORT	1184	n/a	n/a	0	n/a	0	0	0	n/a	n/a	n/a	n/a	n/a
947.364	n/a	REC_WORD	473682	wordpools/wasnorm_wordpool_less_exclusions.txt	LTP202	ltpFR	12	4	0	FROG	608	n/a	n/a	0	n/a	0	0	0	n/a	n/a	n/a	n/a	n/a
948.606	n/a	REC_WORD	474303	wordpools/wasnorm_wordpool_less_exclusions.txt	LTP202	ltpFR	12	4	0	PRINCE	1124	n/a	n/a	1	n/a	0	0	0	n/a	n/a	n/a	n/a	n/a
951.534	n/a	REC_WORD	475767	wordpools/wasnorm_wordpool_less_exclusions.txt	LTP202	ltpFR	12	4	0	LAWN	805	n/a	n/a	1	n/a	0	0	0	n/a	n/a	n/a	n/a	n/a
952.338	n/a	REC_WORD	476169	wordpools/wasnorm_wordpool_less_exclusions.txt	LTP202	ltpFR	12	4	0	CHERRY	293	n/a	n/a	0	n/a	0	0	0	n/a	n/a	n/a	n/a	n/a
953.336	n/a	REC_WORD	476668	wordpools/wasnorm_wordpool_less_exclusions.txt	LTP202	ltpFR	12	4	0	MEADOW	881	n/a	n/a	1	n/a	0	0	0	n/a	n/a	n/a	n/a	n/a
961.866	n/a	REC_WORD	480933	wordpools/wasnorm_wordpool_less_exclusions.txt	LTP202	ltpFR	12	4	0	REPTILE	1185	n/a	n/a	1	n/a	0	0	0	n/a	n/a	n/a	n/a	n/a
962.938	n/a	REC_WORD	481469	wordpools/wasnorm_wordpool_less_exclusions.txt	LTP202	ltpFR	12	4	1	SNAKE	1333	n/a	n/a	1	n/a	0	0	0	n/a	n/a	n/a	n/a	n/a
969.034	n/a	REC_WORD	484517	wordpools/wasnorm_wordpool_less_exclusions.txt	LTP202	ltpFR	12	4	1	MARROW	872	n/a	n/a	0	n/a	0	0	0	n/a	n/a	n/a	n/a	n/a
983.626	n/a	REC_WORD	491813	wordpools/wasnorm_wordpool_less_exclusions.txt	LTP202	ltpFR	12	4	0	DAISY	435	n/a	n/a	0	n/a	0	0	0	n/a	n/a	n/a	n/a	n/a
1019.664	n/a	WORD	509832	wordpools/wasnorm_wordpool_less_exclusions.txt	LTP202	ltpFR	12	5	1	SKYSCRAPER	1322	n/a	n/a	0	n/a	0	0	0	0.57763671875	0.412841796875	1	upper	amplitud.ttf
1023.576	n/a	WORD	511788	wordpools/wasnorm_wordpool_less_exclusions.txt	LTP202	ltpFR	12	5	1	CORPORATION	382	n/a	n/a	0	n/a	0	0	0	0.57763671875	0.412841796875	1	upper	amplitud.ttf
1027.552	n/a	WORD	513776	wordpools/wasnorm_wordpool_less_exclusions.txt	LTP202	ltpFR	12	5	1	DESIGNER	451	n/a	n/a	0	n/a	0	0	0	0.57763671875	0.412841796875	1	upper	amplitud.ttf
1031.596	n/a	WORD	515798	wordpools/wasnorm_wordpool_less_exclusions.txt	LTP202	ltpFR	12	5	1	CIGARETTE	309	n/a	n/a	0	n/a	0	0	0	0.57763671875	0.412841796875	1	upper	amplitud.ttf
1035.64	n/a	WORD	517820	wordpools/wasnorm_wordpool_less_exclusions.txt	LTP202	ltpFR	12	5	1	TYPEWRITER	1531	n/a	n/a	0	n/a	0	0	0	0.57763671875	0.412841796875	1	upper	amplitud.ttf
1039.634	n/a	WORD	519817	wordpools/wasnorm_wordpool_less_exclusions.txt	LTP202	ltpFR	12	5	1	RUBY	1214	n/a	n/a	0	n/a	0	0	0	0.57763671875	0.412841796875	1	upper	amplitud.ttf
1043.628	n/a	WORD	521814	wordpools/wasnorm_wordpool_less_exclusions.txt	LTP202	ltpFR	12	5	1	BRICK	172	n/a	n/a	0	n/a	0	0	0	0.57763671875	0.412841796875	1	upper	amplitud.ttf
1047.456	n/a	WORD	523728	wordpools/wasnorm_wordpool_less_exclusions.txt	LTP202	ltpFR	12	5	1	SURF	1412	n/a	n/a	0	n/a	0	0	0	0.57763671875	0.412841796875	1	upper	amplitud.ttf
1051.418	n/a	WORD	525709	wordpools/wasnorm_wordpool_less_exclusions.txt	LTP202	ltpFR	12	5	1	FRIEND	606	n/a	n/a	1	n/a	0	0	0	0.57763671875	0.412841796875	1	upper	amplitud.ttf
1055.51	n/a	WORD	527755	wordpools/wasnorm_wordpool_less_exclusions.txt	LTP202	ltpFR	12	5	1	BOSS	152	n/a	n/a	1	n/a	0	0	0	0.57763671875	0.412841796875	1	upper	amplitud.ttf
1059.488	n/a	WORD	529744	wordpools/wasnorm_wordpool_less_exclusions.txt	LTP202	ltpFR	12	5	1	RECEPTIONIST	1174	n/a	n/a	1	n/a	0	0	0	0.57763671875	0.412841796875	1	upper	amplitud.ttf
1063.616	n/a	WORD	531808	wordpools/wasnorm_wordpool_less_exclusions.txt	LTP202	ltpFR	12	5	1	FAMILY	550	n/a	n/a	1	n/a	0	0	0	0.57763671875	0.412841796875	1	upper	amplitud.ttf
1067.526	n/a	WORD	533763	wordpools/wasnorm_wordpool_less_exclusions.txt	LTP202	ltpFR	12	5	1	SLEEVE	1324	n/a	n/a	0	n/a	0	0	0	0.57763671875	0.412841796875	1	upper	amplitud.ttf
1071.52	n/a	WORD	535760	wordpools/wasnorm_wordpool_less_exclusions.txt	LTP202	ltpFR	12	5	1	SECRETARY	1265	n/a	n/a	1	n/a	0	0	0	0.57763671875	0.412841796875	1	upper	amplitud.ttf
1075.514	n/a	WORD	537757	wordpools/wasnorm_wordpool_less_exclusions.txt	LTP202	ltpFR	12	5	1	DETERGENT	455	n/a	n/a	0	n/a	0	0	0	0.57763671875	0.412841796875	1	upper	amplitud.ttf
1079.592	n/a	WORD	539796	wordpools/wasnorm_wordpool_less_exclusions.txt	LTP202	ltpFR	12	5	1	BATH	98	n/a	n/a	0	n/a	0	0	0	0.57763671875	0.412841796875	1	upper	amplitud.ttf
1082.604	n/a	START	541302	n/a	LTP202	ltpFR	12	n/a	n/a	n/a	n/a	n/a	n/a	n/a	n/a	n/a	n/a	n/a	n/a	n/a	n/a	n/a	n/a
1083.686	n/a	PROB	541843	n/a	LTP202	ltpFR	12	n/a	n/a	n/a	n/a	n/a	n/a	n/a	13	7	5	1	n/a	n/a	n/a	n/a	n/a
1085.666	n/a	PROB	542833	n/a	LTP202	ltpFR	12	n/a	n/a	n/a	n/a	n/a	n/a	n/a	11	2	8	1	n/a	n/a	n/a	n/a	n/a
1086.698	n/a	PROB	543349	n/a	LTP202	ltpFR	12	n/a	n/a	n/a	n/a	n/a	n/a	n/a	26	9	9	8	n/a	n/a	n/a	n/a	n/a
1089.16	n/a	PROB	544580	n/a	LTP202	ltpFR	12	n/a	n/a	n/a	n/a	n/a	n/a	n/a	15	7	3	5	n/a	n/a	n/a	n/a	n/a
1090.308	n/a	PROB	545154	n/a	LTP202	ltpFR	12	n/a	n/a	n/a	n/a	n/a	n/a	n/a	17	5	2	9	n/a	n/a	n/a	n/a	n/a
1091.958	n/a	PROB	545979	n/a	LTP202	ltpFR	12	n/a	n/a	n/a	n/a	n/a	n/a	n/a	17	2	8	7	n/a	n/a	n/a	n/a	n/a
1093.122	n/a	PROB	546561	n/a	LTP202	ltpFR	12	n/a	n/a	n/a	n/a	n/a	n/a	n/a	21	9	5	7	n/a	n/a	n/a	n/a	n/a
1094.388	n/a	PROB	547194	n/a	LTP202	ltpFR	12	n/a	n/a	n/a	n/a	n/a	n/a	n/a	14	2	7	5	n/a	n/a	n/a	n/a	n/a
1095.636	n/a	PROB	547818	n/a	LTP202	ltpFR	12	n/a	n/a	n/a	n/a	n/a	n/a	n/a	13	7	3	3	n/a	n/a	n/a	n/a	n/a
1096.818	n/a	PROB	548409	n/a	LTP202	ltpFR	12	n/a	n/a	n/a	n/a	n/a	n/a	n/a	13	7	1	5	n/a	n/a	n/a	n/a	n/a
1098.034	n/a	STOP	549017	n/a	LTP202	ltpFR	12	n/a	n/a	n/a	n/a	n/a	n/a	n/a	n/a	n/a	n/a	n/a	n/a	n/a	n/a	n/a	n/a
1100.428	n/a	REC_START	550214	n/a	LTP202	ltpFR	12	5	n/a	n/a	n/a	n/a	n/a	n/a	n/a	0	0	0	n/a	n/a	n/a	n/a	n/a
1100.902	n/a	REC_WORD	550451	wordpools/wasnorm_wordpool_less_exclusions.txt	LTP202	ltpFR	12	5	1	DETERGENT	455	n/a	n/a	0	n/a	0	0	0	n/a	n/a	n/a	n/a	n/a
1101.7	n/a	REC_WORD	550850	wordpools/wasnorm_wordpool_less_exclusions.txt	LTP202	ltpFR	12	5	1	BATH	98	n/a	n/a	0	n/a	0	0	0	n/a	n/a	n/a	n/a	n/a
1102.344	n/a	REC_WORD	551172	wordpools/wasnorm_wordpool_less_exclusions.txt	LTP202	ltpFR	12	5	1	SLEEVE	1324	n/a	n/a	0	n/a	0	0	0	n/a	n/a	n/a	n/a	n/a
1103.356	n/a	REC_WORD	551678	wordpools/wasnorm_wordpool_less_exclusions.txt	LTP202	ltpFR	12	5	1	BRICK	172	n/a	n/a	0	n/a	0	0	0	n/a	n/a	n/a	n/a	n/a
1103.82	n/a	REC_WORD	551910	wordpools/wasnorm_wordpool_less_exclusions.txt	LTP202	ltpFR	12	5	1	SKYSCRAPER	1322	n/a	n/a	0	n/a	0	0	0	n/a	n/a	n/a	n/a	n/a
1105.268	n/a	REC_WORD	552634	wordpools/wasnorm_wordpool_less_exclusions.txt	LTP202	ltpFR	12	5	1	CORPORATION	382	n/a	n/a	0	n/a	0	0	0	n/a	n/a	n/a	n/a	n/a
1108.484	n/a	REC_WORD	554242	wordpools/wasnorm_wordpool_less_exclusions.txt	LTP202	ltpFR	12	5	1	BOSS	152	n/a	n/a	1	n/a	0	0	0	n/a	n/a	n/a	n/a	n/a
1109.224	n/a	REC_WORD	554612	wordpools/wasnorm_wordpool_less_exclusions.txt	LTP202	ltpFR	12	5	1	FRIEND	606	n/a	n/a	1	n/a	0	0	0	n/a	n/a	n/a	n/a	n/a
1110.192	n/a	REC_WORD	555096	wordpools/wasnorm_wordpool_less_exclusions.txt	LTP202	ltpFR	12	5	1	RECEPTIONIST	1174	n/a	n/a	1	n/a	0	0	0	n/a	n/a	n/a	n/a	n/a
1112.262	n/a	REC_WORD	556131	wordpools/wasnorm_wordpool_less_exclusions.txt	LTP202	ltpFR	12	5	1	SECRETARY	1265	n/a	n/a	1	n/a	0	0	0	n/a	n/a	n/a	n/a	n/a
1162.418	n/a	REC_WORD	581209	wordpools/wasnorm_wordpool_less_exclusions.txt	LTP202	ltpFR	12	5	1	CIGARETTE	309	n/a	n/a	0	n/a	0	0	0	n/a	n/a	n/a	n/a	n/a
1178.612	n/a	START	589306	n/a	LTP202	ltpFR	12	n/a	n/a	n/a	n/a	n/a	n/a	n/a	n/a	n/a	n/a	n/a	n/a	n/a	n/a	n/a	n/a
1180.126	n/a	PROB	590063	n/a	LTP202	ltpFR	12	n/a	n/a	n/a	n/a	n/a	n/a	n/a	19	8	5	6	n/a	n/a	n/a	n/a	n/a
1181.474	n/a	PROB	590737	n/a	LTP202	ltpFR	12	n/a	n/a	n/a	n/a	n/a	n/a	n/a	11	2	8	1	n/a	n/a	n/a	n/a	n/a
1182.356	n/a	PROB	591178	n/a	LTP202	ltpFR	12	n/a	n/a	n/a	n/a	n/a	n/a	n/a	16	3	4	9	n/a	n/a	n/a	n/a	n/a
1183.822	n/a	PROB	591911	n/a	LTP202	ltpFR	12	n/a	n/a	n/a	n/a	n/a	n/a	n/a	11	1	5	3	n/a	n/a	n/a	n/a	n/a
1185.352	n/a	PROB	592676	n/a	LTP202	ltpFR	12	n/a	n/a	n/a	n/a	n/a	n/a	n/a	17	2	7	8	n/a	n/a	n/a	n/a	n/a
1187.432	n/a	PROB	593716	n/a	LTP202	ltpFR	12	n/a	n/a	n/a	n/a	n/a	n/a	n/a	12	1	7	4	n/a	n/a	n/a	n/a	n/a
1188.914	n/a	PROB	594457	n/a	LTP202	ltpFR	12	n/a	n/a	n/a	n/a	n/a	n/a	n/a	8	2	1	5	n/a	n/a	n/a	n/a	n/a
1190.128	n/a	PROB	595064	n/a	LTP202	ltpFR	12	n/a	n/a	n/a	n/a	n/a	n/a	n/a	9	5	1	3	n/a	n/a	n/a	n/a	n/a
1191.394	n/a	PROB	595697	n/a	LTP202	ltpFR	12	n/a	n/a	n/a	n/a	n/a	n/a	n/a	15	9	5	1	n/a	n/a	n/a	n/a	n/a
1192.608	n/a	PROB	596304	n/a	LTP202	ltpFR	12	n/a	n/a	n/a	n/a	n/a	n/a	n/a	16	3	9	4	n/a	n/a	n/a	n/a	n/a
1194.076	n/a	STOP	597038	n/a	LTP202	ltpFR	12	n/a	n/a	n/a	n/a	n/a	n/a	n/a	n/a	n/a	n/a	n/a	n/a	n/a	n/a	n/a	n/a
1195.538	n/a	WORD	597769	wordpools/wasnorm_wordpool_less_exclusions.txt	LTP202	ltpFR	12	6	1	MARINE	869	n/a	n/a	1	n/a	0	0	0	0.57763671875	0.412841796875	1	upper	amplitud.ttf
1198.55	n/a	START	599275	n/a	LTP202	ltpFR	12	n/a	n/a	n/a	n/a	n/a	n/a	n/a	n/a	n/a	n/a	n/a	n/a	n/a	n/a	n/a	n/a
1199.432	n/a	PROB	599716	n/a	LTP202	ltpFR	12	n/a	n/a	n/a	n/a	n/a	n/a	n/a	13	5	7	1	n/a	n/a	n/a	n/a	n/a
1200.38	n/a	PROB	600190	n/a	LTP202	ltpFR	12	n/a	n/a	n/a	n/a	n/a	n/a	n/a	25	7	9	9	n/a	n/a	n/a	n/a	n/a
1202.728	n/a	PROB	601364	n/a	LTP202	ltpFR	12	n/a	n/a	n/a	n/a	n/a	n/a	n/a	17	9	6	3	n/a	n/a	n/a	n/a	n/a
1204.656	n/a	PROB	602328	n/a	LTP202	ltpFR	12	n/a	n/a	n/a	n/a	n/a	n/a	n/a	20	5	7	8	n/a	n/a	n/a	n/a	n/a
1207.036	n/a	PROB	603518	n/a	LTP202	ltpFR	12	n/a	n/a	n/a	n/a	n/a	n/a	n/a	13	2	2	9	n/a	n/a	n/a	n/a	n/a
1208.118	n/a	PROB	604059	n/a	LTP202	ltpFR	12	n/a	n/a	n/a	n/a	n/a	n/a	n/a	11	5	4	2	n/a	n/a	n/a	n/a	n/a
1209.766	n/a	PROB	604883	n/a	LTP202	ltpFR	12	n/a	n/a	n/a	n/a	n/a	n/a	n/a	11	7	1	2	n/a	n/a	n/a	n/a	n/a
1211.048	n/a	PROB	605524	n/a	LTP202	ltpFR	12	n/a	n/a	n/a	n/a	n/a	n/a	n/a	21	9	6	6	n/a	n/a	n/a	n/a	n/a
1212.378	n/a	PROB	606189	n/a	LTP202	ltpFR	12	n/a	n/a	n/a	n/a	n/a	n/a	n/a	11	3	4	8	n/a	n/a	n/a	n/a	n/a
1213.596	n/a	STOP	606798	n/a	LTP202	ltpFR	12	n/a	n/a	n/a	n/a	n/a	n/a	n/a	n/a	n/a	n/a	n/a	n/a	n/a	n/a	n/a	n/a
1215.374	n/a	WORD	607687	wordpools/wasnorm_wordpool_less_exclusions.txt	LTP202	ltpFR	12	6	1	GIRL	637	n/a	n/a	1	n/a	0	0	0	0.57763671875	0.412841796875	1	upper	amplitud.ttf
1218.386	n/a	START	609193	n/a	LTP202	ltpFR	12	n/a	n/a	n/a	n/a	n/a	n/a	n/a	n/a	n/a	n/a	n/a	n/a	n/a	n/a	n/a	n/a
1219.534	n/a	PROB	609767	n/a	LTP202	ltpFR	12	n/a	n/a	n/a	n/a	n/a	n/a	n/a	22	9	6	7	n/a	n/a	n/a	n/a	n/a
1221.964	n/a	PROB	610982	n/a	LTP202	ltpFR	12	n/a	n/a	n/a	n/a	n/a	n/a	n/a	15	7	5	3	n/a	n/a	n/a	n/a	n/a
1223.23	n/a	PROB	611615	n/a	LTP202	ltpFR	12	n/a	n/a	n/a	n/a	n/a	n/a	n/a	20	6	6	8	n/a	n/a	n/a	n/a	n/a
1225.476	n/a	PROB	612738	n/a	LTP202	ltpFR	12	n/a	n/a	n/a	n/a	n/a	n/a	n/a	6	1	4	1	n/a	n/a	n/a	n/a	n/a
1226.774	n/a	PROB	613387	n/a	LTP202	ltpFR	12	n/a	n/a	n/a	n/a	n/a	n/a	n/a	19	6	9	4	n/a	n/a	n/a	n/a	n/a
1228.122	n/a	PROB	614061	n/a	LTP202	ltpFR	12	n/a	n/a	n/a	n/a	n/a	n/a	n/a	12	4	1	7	n/a	n/a	n/a	n/a	n/a
1229.254	n/a	PROB	614627	n/a	LTP202	ltpFR	12	n/a	n/a	n/a	n/a	n/a	n/a	n/a	20	8	7	5	n/a	n/a	n/a	n/a	n/a
1231.084	n/a	PROB	615542	n/a	LTP202	ltpFR	12	n/a	n/a	n/a	n/a	n/a	n/a	n/a	10	2	6	2	n/a	n/a	n/a	n/a	n/a
1232.398	n/a	PROB	616199	n/a	LTP202	ltpFR	12	n/a	n/a	n/a	n/a	n/a	n/a	n/a	14	1	6	7	n/a	n/a	n/a	n/a	n/a
1233.564	n/a	STOP	616782	n/a	LTP202	ltpFR	12	n/a	n/a	n/a	n/a	n/a	n/a	n/a	n/a	n/a	n/a	n/a	n/a	n/a	n/a	n/a	n/a
1235.528	n/a	WORD	617764	wordpools/wasnorm_wordpool_less_exclusions.txt	LTP202	ltpFR	12	6	1	POCKETBOOK	1094	n/a	n/a	0	n/a	0	0	0	0.57763671875	0.412841796875	1	upper	amplitud.ttf
1238.542	n/a	START	619271	n/a	LTP202	ltpFR	12	n/a	n/a	n/a	n/a	n/a	n/a	n/a	n/a	n/a	n/a	n/a	n/a	n/a	n/a	n/a	n/a
1239.74	n/a	PROB	619870	n/a	LTP202	ltpFR	12	n/a	n/a	n/a	n/a	n/a	n/a	n/a	13	1	6	6	n/a	n/a	n/a	n/a	n/a
1240.92	n/a	PROB	620460	n/a	LTP202	ltpFR	12	n/a	n/a	n/a	n/a	n/a	n/a	n/a	11	1	5	5	n/a	n/a	n/a	n/a	n/a
1242.218	n/a	PROB	621109	n/a	LTP202	ltpFR	12	n/a	n/a	n/a	n/a	n/a	n/a	n/a	20	8	5	7	n/a	n/a	n/a	n/a	n/a
1244.248	n/a	PROB	622124	n/a	LTP202	ltpFR	12	n/a	n/a	n/a	n/a	n/a	n/a	n/a	13	9	3	1	n/a	n/a	n/a	n/a	n/a
1245.564	n/a	PROB	622782	n/a	LTP202	ltpFR	12	n/a	n/a	n/a	n/a	n/a	n/a	n/a	165	3	8	5	n/a	n/a	n/a	n/a	n/a
1247.478	n/a	PROB	623739	n/a	LTP202	ltpFR	12	n/a	n/a	n/a	n/a	n/a	n/a	n/a	8	4	1	3	n/a	n/a	n/a	n/a	n/a
1248.81	n/a	PROB	624405	n/a	LTP202	ltpFR	12	n/a	n/a	n/a	n/a	n/a	n/a	n/a	18	9	5	4	n/a	n/a	n/a	n/a	n/a
1250.224	n/a	PROB	625112	n/a	LTP202	ltpFR	12	n/a	n/a	n/a	n/a	n/a	n/a	n/a	8	1	2	5	n/a	n/a	n/a	n/a	n/a
1251.338	n/a	PROB	625669	n/a	LTP202	ltpFR	12	n/a	n/a	n/a	n/a	n/a	n/a	n/a	14	2	7	5	n/a	n/a	n/a	n/a	n/a
1252.586	n/a	PROB	626293	n/a	LTP202	ltpFR	12	n/a	n/a	n/a	n/a	n/a	n/a	n/a	16	8	4	4	n/a	n/a	n/a	n/a	n/a
1253.734	n/a	STOP	626867	n/a	LTP202	ltpFR	12	n/a	n/a	n/a	n/a	n/a	n/a	n/a	n/a	n/a	n/a	n/a	n/a	n/a	n/a	n/a	n/a
1255.482	n/a	WORD	627741	wordpools/wasnorm_wordpool_less_exclusions.txt	LTP202	ltpFR	12	6	1	MILITARY	894	n/a	n/a	0	n/a	0	0	0	0.57763671875	0.412841796875	1	upper	amplitud.ttf
1258.494	n/a	START	629247	n/a	LTP202	ltpFR	12	n/a	n/a	n/a	n/a	n/a	n/a	n/a	n/a	n/a	n/a	n/a	n/a	n/a	n/a	n/a	n/a
1259.592	n/a	PROB	629796	n/a	LTP202	ltpFR	12	n/a	n/a	n/a	n/a	n/a	n/a	n/a	11	1	6	4	n/a	n/a	n/a	n/a	n/a
1260.874	n/a	PROB	630437	n/a	LTP202	ltpFR	12	n/a	n/a	n/a	n/a	n/a	n/a	n/a	17	5	4	8	n/a	n/a	n/a	n/a	n/a
1262.222	n/a	PROB	631111	n/a	LTP202	ltpFR	12	n/a	n/a	n/a	n/a	n/a	n/a	n/a	15	5	1	9	n/a	n/a	n/a	n/a	n/a
1263.636	n/a	PROB	631818	n/a	LTP202	ltpFR	12	n/a	n/a	n/a	n/a	n/a	n/a	n/a	13	7	5	1	n/a	n/a	n/a	n/a	n/a
1264.918	n/a	PROB	632459	n/a	LTP202	ltpFR	12	n/a	n/a	n/a	n/a	n/a	n/a	n/a	16	6	1	9	n/a	n/a	n/a	n/a	n/a
1266.25	n/a	PROB	633125	n/a	LTP202	ltpFR	12	n/a	n/a	n/a	n/a	n/a	n/a	n/a	16	4	6	6	n/a	n/a	n/a	n/a	n/a
1267.498	n/a	PROB	633749	n/a	LTP202	ltpFR	12	n/a	n/a	n/a	n/a	n/a	n/a	n/a	17	7	4	6	n/a	n/a	n/a	n/a	n/a
1268.78	n/a	PROB	634390	n/a	LTP202	ltpFR	12	n/a	n/a	n/a	n/a	n/a	n/a	n/a	14	6	4	4	n/a	n/a	n/a	n/a	n/a
1269.894	n/a	PROB	634947	n/a	LTP202	ltpFR	12	n/a	n/a	n/a	n/a	n/a	n/a	n/a	16	4	8	4	n/a	n/a	n/a	n/a	n/a
1271.026	n/a	PROB	635513	n/a	LTP202	ltpFR	12	n/a	n/a	n/a	n/a	n/a	n/a	n/a	13	8	2	3	n/a	n/a	n/a	n/a	n/a
1272.274	n/a	PROB	636137	n/a	LTP202	ltpFR	12	n/a	n/a	n/a	n/a	n/a	n/a	n/a	18	5	6	7	n/a	n/a	n/a	n/a	n/a
1273.556	n/a	STOP	636778	n/a	LTP202	ltpFR	12	n/a	n/a	n/a	n/a	n/a	n/a	n/a	n/a	n/a	n/a	n/a	n/a	n/a	n/a	n/a	n/a
1275.402	n/a	WORD	637701	wordpools/wasnorm_wordpool_less_exclusions.txt	LTP202	ltpFR	12	6	1	SPINACH	1352	n/a	n/a	0	n/a	0	0	0	0.57763671875	0.412841796875	1	upper	amplitud.ttf
1278.414	n/a	START	639207	n/a	LTP202	ltpFR	12	n/a	n/a	n/a	n/a	n/a	n/a	n/a	n/a	n/a	n/a	n/a	n/a	n/a	n/a	n/a	n/a
1279.23	n/a	PROB	639615	n/a	LTP202	ltpFR	12	n/a	n/a	n/a	n/a	n/a	n/a	n/a	18	9	7	2	n/a	n/a	n/a	n/a	n/a
1281.976	n/a	PROB	640988	n/a	LTP202	ltpFR	12	n/a	n/a	n/a	n/a	n/a	n/a	n/a	10	1	6	3	n/a	n/a	n/a	n/a	n/a
1283.208	n/a	PROB	641604	n/a	LTP202	ltpFR	12	n/a	n/a	n/a	n/a	n/a	n/a	n/a	14	6	4	4	n/a	n/a	n/a	n/a	n/a
1284.356	n/a	PROB	642178	n/a	LTP202	ltpFR	12	n/a	n/a	n/a	n/a	n/a	n/a	n/a	11	2	4	5	n/a	n/a	n/a	n/a	n/a
1286.952	n/a	PROB	643476	n/a	LTP202	ltpFR	12	n/a	n/a	n/a	n/a	n/a	n/a	n/a	18	6	5	7	n/a	n/a	n/a	n/a	n/a
1289.716	n/a	PROB	644858	n/a	LTP202	ltpFR	12	n/a	n/a	n/a	n/a	n/a	n/a	n/a	11	1	7	3	n/a	n/a	n/a	n/a	n/a
1291.346	n/a	PROB	645673	n/a	LTP202	ltpFR	12	n/a	n/a	n/a	n/a	n/a	n/a	n/a	8	4	1	3	n/a	n/a	n/a	n/a	n/a
1292.476	n/a	PROB	646238	n/a	LTP202	ltpFR	12	n/a	n/a	n/a	n/a	n/a	n/a	n/a	17	5	8	4	n/a	n/a	n/a	n/a	n/a
1293.758	n/a	STOP	646879	n/a	LTP202	ltpFR	12	n/a	n/a	n/a	n/a	n/a	n/a	n/a	n/a	n/a	n/a	n/a	n/a	n/a	n/a	n/a	n/a
1295.422	n/a	WORD	647711	wordpools/wasnorm_wordpool_less_exclusions.txt	LTP202	ltpFR	12	6	1	STREAM	1392	n/a	n/a	0	n/a	0	0	0	0.57763671875	0.412841796875	1	upper	amplitud.ttf
1298.434	n/a	START	649217	n/a	LTP202	ltpFR	12	n/a	n/a	n/a	n/a	n/a	n/a	n/a	n/a	n/a	n/a	n/a	n/a	n/a	n/a	n/a	n/a
1299.25	n/a	PROB	649625	n/a	LTP202	ltpFR	12	n/a	n/a	n/a	n/a	n/a	n/a	n/a	18	9	6	4	n/a	n/a	n/a	n/a	n/a
1300.816	n/a	PROB	650408	n/a	LTP202	ltpFR	12	n/a	n/a	n/a	n/a	n/a	n/a	n/a	21	6	6	9	n/a	n/a	n/a	n/a	n/a
1302.112	n/a	PROB	651056	n/a	LTP202	ltpFR	12	n/a	n/a	n/a	n/a	n/a	n/a	n/a	17	8	4	5	n/a	n/a	n/a	n/a	n/a
1303.31	n/a	PROB	651655	n/a	LTP202	ltpFR	12	n/a	n/a	n/a	n/a	n/a	n/a	n/a	14	6	6	2	n/a	n/a	n/a	n/a	n/a
1304.508	n/a	PROB	652254	n/a	LTP202	ltpFR	12	n/a	n/a	n/a	n/a	n/a	n/a	n/a	17	7	7	3	n/a	n/a	n/a	n/a	n/a
1305.892	n/a	PROB	652946	n/a	LTP202	ltpFR	12	n/a	n/a	n/a	n/a	n/a	n/a	n/a	15	7	6	2	n/a	n/a	n/a	n/a	n/a
1308.552	n/a	PROB	654276	n/a	LTP202	ltpFR	12	n/a	n/a	n/a	n/a	n/a	n/a	n/a	19	8	7	4	n/a	n/a	n/a	n/a	n/a
1310.084	n/a	PROB	655042	n/a	LTP202	ltpFR	12	n/a	n/a	n/a	n/a	n/a	n/a	n/a	13	8	2	3	n/a	n/a	n/a	n/a	n/a
1311.184	n/a	PROB	655592	n/a	LTP202	ltpFR	12	n/a	n/a	n/a	n/a	n/a	n/a	n/a	10	2	5	3	n/a	n/a	n/a	n/a	n/a
1312.498	n/a	PROB	656249	n/a	LTP202	ltpFR	12	n/a	n/a	n/a	n/a	n/a	n/a	n/a	12	1	9	2	n/a	n/a	n/a	n/a	n/a
1313.534	n/a	STOP	656767	n/a	LTP202	ltpFR	12	n/a	n/a	n/a	n/a	n/a	n/a	n/a	n/a	n/a	n/a	n/a	n/a	n/a	n/a	n/a	n/a
1315.394	n/a	WORD	657697	wordpools/wasnorm_wordpool_less_exclusions.txt	LTP202	ltpFR	12	6	1	SUBURB	1399	n/a	n/a	0	n/a	0	0	0	0.57763671875	0.412841796875	1	upper	amplitud.ttf
1318.406	n/a	START	659203	n/a	LTP202	ltpFR	12	n/a	n/a	n/a	n/a	n/a	n/a	n/a	n/a	n/a	n/a	n/a	n/a	n/a	n/a	n/a	n/a
1319.222	n/a	PROB	659611	n/a	LTP202	ltpFR	12	n/a	n/a	n/a	n/a	n/a	n/a	n/a	25	9	7	9	n/a	n/a	n/a	n/a	n/a
1320.72	n/a	PROB	660360	n/a	LTP202	ltpFR	12	n/a	n/a	n/a	n/a	n/a	n/a	n/a	14	8	2	4	n/a	n/a	n/a	n/a	n/a
1321.768	n/a	PROB	660884	n/a	LTP202	ltpFR	12	n/a	n/a	n/a	n/a	n/a	n/a	n/a	16	6	1	9	n/a	n/a	n/a	n/a	n/a
1323.098	n/a	PROB	661549	n/a	LTP202	ltpFR	12	n/a	n/a	n/a	n/a	n/a	n/a	n/a	15	5	8	2	n/a	n/a	n/a	n/a	n/a
1324.264	n/a	PROB	662132	n/a	LTP202	ltpFR	12	n/a	n/a	n/a	n/a	n/a	n/a	n/a	15	4	4	7	n/a	n/a	n/a	n/a	n/a
1325.73	n/a	PROB	662865	n/a	LTP202	ltpFR	12	n/a	n/a	n/a	n/a	n/a	n/a	n/a	8	1	2	5	n/a	n/a	n/a	n/a	n/a
1326.86	n/a	PROB	663430	n/a	LTP202	ltpFR	12	n/a	n/a	n/a	n/a	n/a	n/a	n/a	13	4	4	5	n/a	n/a	n/a	n/a	n/a
1328.474	n/a	PROB	664237	n/a	LTP202	ltpFR	12	n/a	n/a	n/a	n/a	n/a	n/a	n/a	13	5	7	1	n/a	n/a	n/a	n/a	n/a
1329.706	n/a	PROB	664853	n/a	LTP202	ltpFR	12	n/a	n/a	n/a	n/a	n/a	n/a	n/a	9	2	2	5	n/a	n/a	n/a	n/a	n/a
1330.788	n/a	PROB	665394	n/a	LTP202	ltpFR	12	n/a	n/a	n/a	n/a	n/a	n/a	n/a	26	8	9	9	n/a	n/a	n/a	n/a	n/a
1332.652	n/a	PROB	666326	n/a	LTP202	ltpFR	12	n/a	n/a	n/a	n/a	n/a	n/a	n/a	8	3	2	3	n/a	n/a	n/a	n/a	n/a
1333.798	n/a	STOP	666899	n/a	LTP202	ltpFR	12	n/a	n/a	n/a	n/a	n/a	n/a	n/a	n/a	n/a	n/a	n/a	n/a	n/a	n/a	n/a	n/a
1335.546	n/a	WORD	667773	wordpools/wasnorm_wordpool_less_exclusions.txt	LTP202	ltpFR	12	6	1	CAPITAL	238	n/a	n/a	0	n/a	0	0	0	0.57763671875	0.412841796875	1	upper	amplitud.ttf
1338.56	n/a	START	669280	n/a	LTP202	ltpFR	12	n/a	n/a	n/a	n/a	n/a	n/a	n/a	n/a	n/a	n/a	n/a	n/a	n/a	n/a	n/a	n/a
1339.574	n/a	PROB	669787	n/a	LTP202	ltpFR	12	n/a	n/a	n/a	n/a	n/a	n/a	n/a	20	6	7	7	n/a	n/a	n/a	n/a	n/a
1340.856	n/a	PROB	670428	n/a	LTP202	ltpFR	12	n/a	n/a	n/a	n/a	n/a	n/a	n/a	13	7	4	2	n/a	n/a	n/a	n/a	n/a
1342.104	n/a	PROB	671052	n/a	LTP202	ltpFR	12	n/a	n/a	n/a	n/a	n/a	n/a	n/a	15	6	8	1	n/a	n/a	n/a	n/a	n/a
1343.502	n/a	PROB	671751	n/a	LTP202	ltpFR	12	n/a	n/a	n/a	n/a	n/a	n/a	n/a	7	2	4	1	n/a	n/a	n/a	n/a	n/a
1345.132	n/a	PROB	672566	n/a	LTP202	ltpFR	12	n/a	n/a	n/a	n/a	n/a	n/a	n/a	20	6	8	6	n/a	n/a	n/a	n/a	n/a
1346.496	n/a	PROB	673248	n/a	LTP202	ltpFR	12	n/a	n/a	n/a	n/a	n/a	n/a	n/a	15	3	9	3	n/a	n/a	n/a	n/a	n/a
1347.812	n/a	PROB	673906	n/a	LTP202	ltpFR	12	n/a	n/a	n/a	n/a	n/a	n/a	n/a	13	3	5	7	n/a	n/a	n/a	n/a	n/a
1349.126	n/a	PROB	674563	n/a	LTP202	ltpFR	12	n/a	n/a	n/a	n/a	n/a	n/a	n/a	13	3	6	4	n/a	n/a	n/a	n/a	n/a
1350.674	n/a	PROB	675337	n/a	LTP202	ltpFR	12	n/a	n/a	n/a	n/a	n/a	n/a	n/a	14	6	6	2	n/a	n/a	n/a	n/a	n/a
1352.222	n/a	PROB	676111	n/a	LTP202	ltpFR	12	n/a	n/a	n/a	n/a	n/a	n/a	n/a	13	7	5	1	n/a	n/a	n/a	n/a	n/a
1353.302	n/a	STOP	676651	n/a	LTP202	ltpFR	12	n/a	n/a	n/a	n/a	n/a	n/a	n/a	n/a	n/a	n/a	n/a	n/a	n/a	n/a	n/a	n/a
1355.484	n/a	WORD	677742	wordpools/wasnorm_wordpool_less_exclusions.txt	LTP202	ltpFR	12	6	1	ENEMY	534	n/a	n/a	1	n/a	0	0	0	0.57763671875	0.412841796875	1	upper	amplitud.ttf
1358.496	n/a	START	679248	n/a	LTP202	ltpFR	12	n/a	n/a	n/a	n/a	n/a	n/a	n/a	n/a	n/a	n/a	n/a	n/a	n/a	n/a	n/a	n/a
1359.494	n/a	PROB	679747	n/a	LTP202	ltpFR	12	n/a	n/a	n/a	n/a	n/a	n/a	n/a	21	6	9	6	n/a	n/a	n/a	n/a	n/a
1360.826	n/a	PROB	680413	n/a	LTP202	ltpFR	12	n/a	n/a	n/a	n/a	n/a	n/a	n/a	11	4	6	1	n/a	n/a	n/a	n/a	n/a
1361.758	n/a	PROB	680879	n/a	LTP202	ltpFR	12	n/a	n/a	n/a	n/a	n/a	n/a	n/a	13	2	6	5	n/a	n/a	n/a	n/a	n/a
1363.056	n/a	PROB	681528	n/a	LTP202	ltpFR	12	n/a	n/a	n/a	n/a	n/a	n/a	n/a	14	7	3	4	n/a	n/a	n/a	n/a	n/a
1364.12	n/a	PROB	682060	n/a	LTP202	ltpFR	12	n/a	n/a	n/a	n/a	n/a	n/a	n/a	14	7	5	2	n/a	n/a	n/a	n/a	n/a
1365.468	n/a	PROB	682734	n/a	LTP202	ltpFR	12	n/a	n/a	n/a	n/a	n/a	n/a	n/a	12	2	2	8	n/a	n/a	n/a	n/a	n/a
1366.6	n/a	PROB	683300	n/a	LTP202	ltpFR	12	n/a	n/a	n/a	n/a	n/a	n/a	n/a	12	1	5	6	n/a	n/a	n/a	n/a	n/a
1367.75	n/a	PROB	683875	n/a	LTP202	ltpFR	12	n/a	n/a	n/a	n/a	n/a	n/a	n/a	10	1	8	1	n/a	n/a	n/a	n/a	n/a
1369.396	n/a	PROB	684698	n/a	LTP202	ltpFR	12	n/a	n/a	n/a	n/a	n/a	n/a	n/a	16	6	8	2	n/a	n/a	n/a	n/a	n/a
1370.696	n/a	PROB	685348	n/a	LTP202	ltpFR	12	n/a	n/a	n/a	n/a	n/a	n/a	n/a	14	8	5	1	n/a	n/a	n/a	n/a	n/a
1371.894	n/a	PROB	685947	n/a	LTP202	ltpFR	12	n/a	n/a	n/a	n/a	n/a	n/a	n/a	19	9	7	4	n/a	n/a	n/a	n/a	n/a
1373.31	n/a	STOP	686655	n/a	LTP202	ltpFR	12	n/a	n/a	n/a	n/a	n/a	n/a	n/a	n/a	n/a	n/a	n/a	n/a	n/a	n/a	n/a	n/a
1375.37	n/a	WORD	687685	wordpools/wasnorm_wordpool_less_exclusions.txt	LTP202	ltpFR	12	6	1	KNAPSACK	783	n/a	n/a	0	n/a	0	0	0	0.57763671875	0.412841796875	1	upper	amplitud.ttf
1378.384	n/a	START	689192	n/a	LTP202	ltpFR	12	n/a	n/a	n/a	n/a	n/a	n/a	n/a	n/a	n/a	n/a	n/a	n/a	n/a	n/a	n/a	n/a
1379.448	n/a	PROB	689724	n/a	LTP202	ltpFR	12	n/a	n/a	n/a	n/a	n/a	n/a	n/a	18	5	4	9	n/a	n/a	n/a	n/a	n/a
1381.594	n/a	PROB	690797	n/a	LTP202	ltpFR	12	n/a	n/a	n/a	n/a	n/a	n/a	n/a	20	5	7	8	n/a	n/a	n/a	n/a	n/a
1383.176	n/a	PROB	691588	n/a	LTP202	ltpFR	12	n/a	n/a	n/a	n/a	n/a	n/a	n/a	15	2	4	9	n/a	n/a	n/a	n/a	n/a
1385.306	n/a	PROB	692653	n/a	LTP202	ltpFR	12	n/a	n/a	n/a	n/a	n/a	n/a	n/a	18	7	9	5	n/a	n/a	n/a	n/a	n/a
1387.97	n/a	PROB	693985	n/a	LTP202	ltpFR	12	n/a	n/a	n/a	n/a	n/a	n/a	n/a	23	9	6	8	n/a	n/a	n/a	n/a	n/a
1389.684	n/a	PROB	694842	n/a	LTP202	ltpFR	12	n/a	n/a	n/a	n/a	n/a	n/a	n/a	20	5	7	8	n/a	n/a	n/a	n/a	n/a
1391.048	n/a	PROB	695524	n/a	LTP202	ltpFR	12	n/a	n/a	n/a	n/a	n/a	n/a	n/a	14	2	9	3	n/a	n/a	n/a	n/a	n/a
1392.296	n/a	PROB	696148	n/a	LTP202	ltpFR	12	n/a	n/a	n/a	n/a	n/a	n/a	n/a	20	9	7	5	n/a	n/a	n/a	n/a	n/a
1393.518	n/a	STOP	696759	n/a	LTP202	ltpFR	12	n/a	n/a	n/a	n/a	n/a	n/a	n/a	n/a	n/a	n/a	n/a	n/a	n/a	n/a	n/a	n/a
1395.308	n/a	WORD	697654	wordpools/wasnorm_wordpool_less_exclusions.txt	LTP202	ltpFR	12	6	1	CRAB	397	n/a	n/a	1	n/a	0	0	0	0.57763671875	0.412841796875	1	upper	amplitud.ttf
1398.32	n/a	START	699160	n/a	LTP202	ltpFR	12	n/a	n/a	n/a	n/a	n/a	n/a	n/a	n/a	n/a	n/a	n/a	n/a	n/a	n/a	n/a	n/a
1399.468	n/a	PROB	699734	n/a	LTP202	ltpFR	12	n/a	n/a	n/a	n/a	n/a	n/a	n/a	7	2	4	1	n/a	n/a	n/a	n/a	n/a
1400.6	n/a	PROB	700300	n/a	LTP202	ltpFR	12	n/a	n/a	n/a	n/a	n/a	n/a	n/a	22	9	7	7	n/a	n/a	n/a	n/a	n/a
1402.132	n/a	PROB	701066	n/a	LTP202	ltpFR	12	n/a	n/a	n/a	n/a	n/a	n/a	n/a	20	6	8	6	n/a	n/a	n/a	n/a	n/a
1403.546	n/a	PROB	701773	n/a	LTP202	ltpFR	12	n/a	n/a	n/a	n/a	n/a	n/a	n/a	11	4	4	3	n/a	n/a	n/a	n/a	n/a
1404.896	n/a	PROB	702448	n/a	LTP202	ltpFR	12	n/a	n/a	n/a	n/a	n/a	n/a	n/a	13	5	4	4	n/a	n/a	n/a	n/a	n/a
1406.126	n/a	PROB	703063	n/a	LTP202	ltpFR	12	n/a	n/a	n/a	n/a	n/a	n/a	n/a	15	1	7	7	n/a	n/a	n/a	n/a	n/a
1407.506	n/a	PROB	703753	n/a	LTP202	ltpFR	12	n/a	n/a	n/a	n/a	n/a	n/a	n/a	23	9	5	9	n/a	n/a	n/a	n/a	n/a
1409.404	n/a	PROB	704702	n/a	LTP202	ltpFR	12	n/a	n/a	n/a	n/a	n/a	n/a	n/a	14	5	7	2	n/a	n/a	n/a	n/a	n/a
1410.918	n/a	PROB	705459	n/a	LTP202	ltpFR	12	n/a	n/a	n/a	n/a	n/a	n/a	n/a	11	3	6	2	n/a	n/a	n/a	n/a	n/a
1412.1	n/a	PROB	706050	n/a	LTP202	ltpFR	12	n/a	n/a	n/a	n/a	n/a	n/a	n/a	16	1	7	8	n/a	n/a	n/a	n/a	n/a
1413.246	n/a	STOP	706623	n/a	LTP202	ltpFR	12	n/a	n/a	n/a	n/a	n/a	n/a	n/a	n/a	n/a	n/a	n/a	n/a	n/a	n/a	n/a	n/a
1415.528	n/a	WORD	707764	wordpools/wasnorm_wordpool_less_exclusions.txt	LTP202	ltpFR	12	6	1	BRAKE	166	n/a	n/a	0	n/a	0	0	0	0.57763671875	0.412841796875	1	upper	amplitud.ttf
1418.54	n/a	START	709270	n/a	LTP202	ltpFR	12	n/a	n/a	n/a	n/a	n/a	n/a	n/a	n/a	n/a	n/a	n/a	n/a	n/a	n/a	n/a	n/a
1419.688	n/a	PROB	709844	n/a	LTP202	ltpFR	12	n/a	n/a	n/a	n/a	n/a	n/a	n/a	8	3	2	3	n/a	n/a	n/a	n/a	n/a
1420.754	n/a	PROB	710377	n/a	LTP202	ltpFR	12	n/a	n/a	n/a	n/a	n/a	n/a	n/a	9	5	3	1	n/a	n/a	n/a	n/a	n/a
1422.068	n/a	PROB	711034	n/a	LTP202	ltpFR	12	n/a	n/a	n/a	n/a	n/a	n/a	n/a	15	8	3	4	n/a	n/a	n/a	n/a	n/a
1423.734	n/a	PROB	711867	n/a	LTP202	ltpFR	12	n/a	n/a	n/a	n/a	n/a	n/a	n/a	11	6	3	2	n/a	n/a	n/a	n/a	n/a
1424.898	n/a	PROB	712449	n/a	LTP202	ltpFR	12	n/a	n/a	n/a	n/a	n/a	n/a	n/a	23	8	6	9	n/a	n/a	n/a	n/a	n/a
1426.312	n/a	PROB	713156	n/a	LTP202	ltpFR	12	n/a	n/a	n/a	n/a	n/a	n/a	n/a	6	3	1	2	n/a	n/a	n/a	n/a	n/a
1427.96	n/a	PROB	713980	n/a	LTP202	ltpFR	12	n/a	n/a	n/a	n/a	n/a	n/a	n/a	7	1	3	3	n/a	n/a	n/a	n/a	n/a
1429.724	n/a	PROB	714862	n/a	LTP202	ltpFR	12	n/a	n/a	n/a	n/a	n/a	n/a	n/a	16	7	6	3	n/a	n/a	n/a	n/a	n/a
1430.972	n/a	PROB	715486	n/a	LTP202	ltpFR	12	n/a	n/a	n/a	n/a	n/a	n/a	n/a	10	2	6	2	n/a	n/a	n/a	n/a	n/a
1432.354	n/a	PROB	716177	n/a	LTP202	ltpFR	12	n/a	n/a	n/a	n/a	n/a	n/a	n/a	18	8	2	8	n/a	n/a	n/a	n/a	n/a
1433.43	n/a	STOP	716715	n/a	LTP202	ltpFR	12	n/a	n/a	n/a	n/a	n/a	n/a	n/a	n/a	n/a	n/a	n/a	n/a	n/a	n/a	n/a	n/a
1435.482	n/a	WORD	717741	wordpools/wasnorm_wordpool_less_exclusions.txt	LTP202	ltpFR	12	6	1	DRIVER	499	n/a	n/a	1	n/a	0	0	0	0.57763671875	0.412841796875	1	upper	amplitud.ttf
1438.494	n/a	START	719247	n/a	LTP202	ltpFR	12	n/a	n/a	n/a	n/a	n/a	n/a	n/a	n/a	n/a	n/a	n/a	n/a	n/a	n/a	n/a	n/a
1439.426	n/a	PROB	719713	n/a	LTP202	ltpFR	12	n/a	n/a	n/a	n/a	n/a	n/a	n/a	11	6	1	4	n/a	n/a	n/a	n/a	n/a
1440.758	n/a	PROB	720379	n/a	LTP202	ltpFR	12	n/a	n/a	n/a	n/a	n/a	n/a	n/a	23	8	6	9	n/a	n/a	n/a	n/a	n/a
1442.304	n/a	PROB	721152	n/a	LTP202	ltpFR	12	n/a	n/a	n/a	n/a	n/a	n/a	n/a	12	9	1	2	n/a	n/a	n/a	n/a	n/a
1443.404	n/a	PROB	721702	n/a	LTP202	ltpFR	12	n/a	n/a	n/a	n/a	n/a	n/a	n/a	15	9	3	4	n/a	n/a	n/a	n/a	n/a
1445.034	n/a	PROB	722517	n/a	LTP202	ltpFR	12	n/a	n/a	n/a	n/a	n/a	n/a	n/a	21	7	7	7	n/a	n/a	n/a	n/a	n/a
1446.998	n/a	PROB	723499	n/a	LTP202	ltpFR	12	n/a	n/a	n/a	n/a	n/a	n/a	n/a	22	9	7	6	n/a	n/a	n/a	n/a	n/a
1449.994	n/a	PROB	724997	n/a	LTP202	ltpFR	12	n/a	n/a	n/a	n/a	n/a	n/a	n/a	13	8	2	3	n/a	n/a	n/a	n/a	n/a
1451.042	n/a	PROB	725521	n/a	LTP202	ltpFR	12	n/a	n/a	n/a	n/a	n/a	n/a	n/a	12	2	5	5	n/a	n/a	n/a	n/a	n/a
1453.832	n/a	STOP	726916	n/a	LTP202	ltpFR	12	n/a	n/a	n/a	n/a	n/a	n/a	n/a	n/a	n/a	n/a	n/a	n/a	n/a	n/a	n/a	n/a
1455.418	n/a	WORD	727709	wordpools/wasnorm_wordpool_less_exclusions.txt	LTP202	ltpFR	12	6	1	CYLINDER	432	n/a	n/a	0	n/a	0	0	0	0.57763671875	0.412841796875	1	upper	amplitud.ttf
1458.432	n/a	START	729216	n/a	LTP202	ltpFR	12	n/a	n/a	n/a	n/a	n/a	n/a	n/a	n/a	n/a	n/a	n/a	n/a	n/a	n/a	n/a	n/a
1459.564	n/a	PROB	729782	n/a	LTP202	ltpFR	12	n/a	n/a	n/a	n/a	n/a	n/a	n/a	15	7	3	5	n/a	n/a	n/a	n/a	n/a
1460.578	n/a	PROB	730289	n/a	LTP202	ltpFR	12	n/a	n/a	n/a	n/a	n/a	n/a	n/a	17	9	4	4	n/a	n/a	n/a	n/a	n/a
1462.026	n/a	PROB	731013	n/a	LTP202	ltpFR	12	n/a	n/a	n/a	n/a	n/a	n/a	n/a	8	1	4	4	n/a	n/a	n/a	n/a	n/a
1463.358	n/a	PROB	731679	n/a	LTP202	ltpFR	12	n/a	n/a	n/a	n/a	n/a	n/a	n/a	8	3	3	2	n/a	n/a	n/a	n/a	n/a
1465.072	n/a	PROB	732536	n/a	LTP202	ltpFR	12	n/a	n/a	n/a	n/a	n/a	n/a	n/a	15	2	8	5	n/a	n/a	n/a	n/a	n/a
1466.138	n/a	PROB	733069	n/a	LTP202	ltpFR	12	n/a	n/a	n/a	n/a	n/a	n/a	n/a	6	3	1	2	n/a	n/a	n/a	n/a	n/a
1467.418	n/a	PROB	733709	n/a	LTP202	ltpFR	12	n/a	n/a	n/a	n/a	n/a	n/a	n/a	6	2	3	1	n/a	n/a	n/a	n/a	n/a
1468.366	n/a	PROB	734183	n/a	LTP202	ltpFR	12	n/a	n/a	n/a	n/a	n/a	n/a	n/a	1	1	8	3	n/a	n/a	n/a	n/a	n/a
1470.298	n/a	PROB	735149	n/a	LTP202	ltpFR	12	n/a	n/a	n/a	n/a	n/a	n/a	n/a	20	9	7	5	n/a	n/a	n/a	n/a	n/a
1471.912	n/a	PROB	735956	n/a	LTP202	ltpFR	12	n/a	n/a	n/a	n/a	n/a	n/a	n/a	14	3	5	6	n/a	n/a	n/a	n/a	n/a
1473.208	n/a	STOP	736604	n/a	LTP202	ltpFR	12	n/a	n/a	n/a	n/a	n/a	n/a	n/a	n/a	n/a	n/a	n/a	n/a	n/a	n/a	n/a	n/a
1475.406	n/a	WORD	737703	wordpools/wasnorm_wordpool_less_exclusions.txt	LTP202	ltpFR	12	6	1	DISC	473	n/a	n/a	0	n/a	0	0	0	0.57763671875	0.412841796875	1	upper	amplitud.ttf
1478.42	n/a	START	739210	n/a	LTP202	ltpFR	12	n/a	n/a	n/a	n/a	n/a	n/a	n/a	n/a	n/a	n/a	n/a	n/a	n/a	n/a	n/a	n/a
1479.566	n/a	PROB	739783	n/a	LTP202	ltpFR	12	n/a	n/a	n/a	n/a	n/a	n/a	n/a	18	6	9	3	n/a	n/a	n/a	n/a	n/a
1480.8	n/a	PROB	740400	n/a	LTP202	ltpFR	12	n/a	n/a	n/a	n/a	n/a	n/a	n/a	11	2	8	1	n/a	n/a	n/a	n/a	n/a
1481.714	n/a	PROB	740857	n/a	LTP202	ltpFR	12	n/a	n/a	n/a	n/a	n/a	n/a	n/a	19	6	7	6	n/a	n/a	n/a	n/a	n/a
1483.61	n/a	PROB	741805	n/a	LTP202	ltpFR	12	n/a	n/a	n/a	n/a	n/a	n/a	n/a	12	6	5	1	n/a	n/a	n/a	n/a	n/a
1485.842	n/a	PROB	742921	n/a	LTP202	ltpFR	12	n/a	n/a	n/a	n/a	n/a	n/a	n/a	14	3	6	5	n/a	n/a	n/a	n/a	n/a
1487.238	n/a	PROB	743619	n/a	LTP202	ltpFR	12	n/a	n/a	n/a	n/a	n/a	n/a	n/a	14	1	7	6	n/a	n/a	n/a	n/a	n/a
1488.77	n/a	PROB	744385	n/a	LTP202	ltpFR	12	n/a	n/a	n/a	n/a	n/a	n/a	n/a	20	6	8	6	n/a	n/a	n/a	n/a	n/a
1490.034	n/a	PROB	745017	n/a	LTP202	ltpFR	12	n/a	n/a	n/a	n/a	n/a	n/a	n/a	13	7	1	5	n/a	n/a	n/a	n/a	n/a
1491.182	n/a	PROB	745591	n/a	LTP202	ltpFR	12	n/a	n/a	n/a	n/a	n/a	n/a	n/a	17	8	3	6	n/a	n/a	n/a	n/a	n/a
1492.58	n/a	PROB	746290	n/a	LTP202	ltpFR	12	n/a	n/a	n/a	n/a	n/a	n/a	n/a	15	5	6	4	n/a	n/a	n/a	n/a	n/a
1493.64	n/a	STOP	746820	n/a	LTP202	ltpFR	12	n/a	n/a	n/a	n/a	n/a	n/a	n/a	n/a	n/a	n/a	n/a	n/a	n/a	n/a	n/a	n/a
1495.444	n/a	WORD	747722	wordpools/wasnorm_wordpool_less_exclusions.txt	LTP202	ltpFR	12	6	1	SCOUT	1252	n/a	n/a	1	n/a	0	0	0	0.57763671875	0.412841796875	1	upper	amplitud.ttf
1498.456	n/a	START	749228	n/a	LTP202	ltpFR	12	n/a	n/a	n/a	n/a	n/a	n/a	n/a	n/a	n/a	n/a	n/a	n/a	n/a	n/a	n/a	n/a
1499.454	n/a	PROB	749727	n/a	LTP202	ltpFR	12	n/a	n/a	n/a	n/a	n/a	n/a	n/a	15	7	5	3	n/a	n/a	n/a	n/a	n/a
1500.968	n/a	PROB	750484	n/a	LTP202	ltpFR	12	n/a	n/a	n/a	n/a	n/a	n/a	n/a	17	5	9	3	n/a	n/a	n/a	n/a	n/a
1502.55	n/a	PROB	751275	n/a	LTP202	ltpFR	12	n/a	n/a	n/a	n/a	n/a	n/a	n/a	8	4	3	1	n/a	n/a	n/a	n/a	n/a
1503.816	n/a	PROB	751908	n/a	LTP202	ltpFR	12	n/a	n/a	n/a	n/a	n/a	n/a	n/a	19	6	7	6	n/a	n/a	n/a	n/a	n/a
1505.278	n/a	PROB	752639	n/a	LTP202	ltpFR	12	n/a	n/a	n/a	n/a	n/a	n/a	n/a	11	4	2	5	n/a	n/a	n/a	n/a	n/a
1507.092	n/a	PROB	753546	n/a	LTP202	ltpFR	12	n/a	n/a	n/a	n/a	n/a	n/a	n/a	14	3	6	5	n/a	n/a	n/a	n/a	n/a
1508.674	n/a	PROB	754337	n/a	LTP202	ltpFR	12	n/a	n/a	n/a	n/a	n/a	n/a	n/a	16	6	5	5	n/a	n/a	n/a	n/a	n/a
1509.922	n/a	PROB	754961	n/a	LTP202	ltpFR	12	n/a	n/a	n/a	n/a	n/a	n/a	n/a	8	2	3	3	n/a	n/a	n/a	n/a	n/a
1511.07	n/a	PROB	755535	n/a	LTP202	ltpFR	12	n/a	n/a	n/a	n/a	n/a	n/a	n/a	16	7	3	6	n/a	n/a	n/a	n/a	n/a
1512.268	n/a	PROB	756134	n/a	LTP202	ltpFR	12	n/a	n/a	n/a	n/a	n/a	n/a	n/a	11	1	9	1	n/a	n/a	n/a	n/a	n/a
1513.352	n/a	STOP	756676	n/a	LTP202	ltpFR	12	n/a	n/a	n/a	n/a	n/a	n/a	n/a	n/a	n/a	n/a	n/a	n/a	n/a	n/a	n/a	n/a
1516.33	n/a	REC_START	758165	n/a	LTP202	ltpFR	12	6	n/a	n/a	n/a	n/a	n/a	n/a	n/a	0	0	0	n/a	n/a	n/a	n/a	n/a
1517.038	n/a	REC_WORD	758519	wordpools/wasnorm_wordpool_less_exclusions.txt	LTP202	ltpFR	12	6	1	BRAKE	166	n/a	n/a	0	n/a	0	0	0	n/a	n/a	n/a	n/a	n/a
1517.616	n/a	REC_WORD	758808	wordpools/wasnorm_wordpool_less_exclusions.txt	LTP202	ltpFR	12	6	1	DRIVER	499	n/a	n/a	1	n/a	0	0	0	n/a	n/a	n/a	n/a	n/a
1518.31	n/a	REC_WORD	759155	wordpools/wasnorm_wordpool_less_exclusions.txt	LTP202	ltpFR	12	6	1	DISC	473	n/a	n/a	0	n/a	0	0	0	n/a	n/a	n/a	n/a	n/a
1518.764	n/a	REC_WORD	759382	wordpools/wasnorm_wordpool_less_exclusions.txt	LTP202	ltpFR	12	6	1	CYLINDER	432	n/a	n/a	0	n/a	0	0	0	n/a	n/a	n/a	n/a	n/a
1519.426	n/a	REC_WORD	759713	wordpools/wasnorm_wordpool_less_exclusions.txt	LTP202	ltpFR	12	6	1	SCOUT	1252	n/a	n/a	1	n/a	0	0	0	n/a	n/a	n/a	n/a	n/a
1521.128	n/a	REC_WORD	760564	wordpools/wasnorm_wordpool_less_exclusions.txt	LTP202	ltpFR	12	6	1	MARINE	869	n/a	n/a	1	n/a	0	0	0	n/a	n/a	n/a	n/a	n/a
1522.9	n/a	REC_WORD	761450	wordpools/wasnorm_wordpool_less_exclusions.txt	LTP202	ltpFR	12	6	1	MILITARY	894	n/a	n/a	0	n/a	0	0	0	n/a	n/a	n/a	n/a	n/a
1523.908	n/a	REC_WORD	761954	wordpools/wasnorm_wordpool_less_exclusions.txt	LTP202	ltpFR	12	6	1	GIRL	637	n/a	n/a	1	n/a	0	0	0	n/a	n/a	n/a	n/a	n/a
1524.566	n/a	REC_WORD	762283	wordpools/wasnorm_wordpool_less_exclusions.txt	LTP202	ltpFR	12	6	1	POCKETBOOK	1094	n/a	n/a	0	n/a	0	0	0	n/a	n/a	n/a	n/a	n/a
1547.026	n/a	REC_WORD	773513	wordpools/wasnorm_wordpool_less_exclusions.txt	LTP202	ltpFR	12	6	1	SUBURB	1399	n/a	n/a	0	n/a	0	0	0	n/a	n/a	n/a	n/a	n/a
1547.714	n/a	REC_WORD	773857	wordpools/wasnorm_wordpool_less_exclusions.txt	LTP202	ltpFR	12	6	1	CAPITAL	238	n/a	n/a	0	n/a	0	0	0	n/a	n/a	n/a	n/a	n/a
1599.938	n/a	START	799969	n/a	LTP202	ltpFR	12	n/a	n/a	n/a	n/a	n/a	n/a	n/a	n/a	n/a	n/a	n/a	n/a	n/a	n/a	n/a	n/a
1601.452	n/a	PROB	800726	n/a	LTP202	ltpFR	12	n/a	n/a	n/a	n/a	n/a	n/a	n/a	20	6	7	7	n/a	n/a	n/a	n/a	n/a
1603.05	n/a	PROB	801525	n/a	LTP202	ltpFR	12	n/a	n/a	n/a	n/a	n/a	n/a	n/a	16	1	7	8	n/a	n/a	n/a	n/a	n/a
1604.382	n/a	PROB	802191	n/a	LTP202	ltpFR	12	n/a	n/a	n/a	n/a	n/a	n/a	n/a	11	4	5	2	n/a	n/a	n/a	n/a	n/a
1605.614	n/a	PROB	802807	n/a	LTP202	ltpFR	12	n/a	n/a	n/a	n/a	n/a	n/a	n/a	16	4	3	9	n/a	n/a	n/a	n/a	n/a
1606.954	n/a	STOP	803477	n/a	LTP202	ltpFR	12	n/a	n/a	n/a	n/a	n/a	n/a	n/a	n/a	n/a	n/a	n/a	n/a	n/a	n/a	n/a	n/a
1609.008	n/a	WORD	804504	wordpools/wasnorm_wordpool_less_exclusions.txt	LTP202	ltpFR	12	7	1	PRIMATE	1123	n/a	n/a	1	n/a	0	0	0	0.57763671875	0.412841796875	1	upper	amplitud.ttf
1612.022	n/a	START	806011	n/a	LTP202	ltpFR	12	n/a	n/a	n/a	n/a	n/a	n/a	n/a	n/a	n/a	n/a	n/a	n/a	n/a	n/a	n/a	n/a
1613.086	n/a	PROB	806543	n/a	LTP202	ltpFR	12	n/a	n/a	n/a	n/a	n/a	n/a	n/a	15	9	2	4	n/a	n/a	n/a	n/a	n/a
1614.168	n/a	PROB	807084	n/a	LTP202	ltpFR	12	n/a	n/a	n/a	n/a	n/a	n/a	n/a	11	2	5	5	n/a	n/a	n/a	n/a	n/a
1615.4	n/a	PROB	807700	n/a	LTP202	ltpFR	12	n/a	n/a	n/a	n/a	n/a	n/a	n/a	16	5	4	7	n/a	n/a	n/a	n/a	n/a
1616.68	n/a	PROB	808340	n/a	LTP202	ltpFR	12	n/a	n/a	n/a	n/a	n/a	n/a	n/a	19	5	8	6	n/a	n/a	n/a	n/a	n/a
1618.046	n/a	PROB	809023	n/a	LTP202	ltpFR	12	n/a	n/a	n/a	n/a	n/a	n/a	n/a	24	9	7	8	n/a	n/a	n/a	n/a	n/a
1619.666	n/a	STOP	809833	n/a	LTP202	ltpFR	12	n/a	n/a	n/a	n/a	n/a	n/a	n/a	n/a	n/a	n/a	n/a	n/a	n/a	n/a	n/a	n/a
1621.208	n/a	WORD	810604	wordpools/wasnorm_wordpool_less_exclusions.txt	LTP202	ltpFR	12	7	1	WOLF	1619	n/a	n/a	1	n/a	0	0	0	0.57763671875	0.412841796875	1	upper	amplitud.ttf
1624.22	n/a	START	812110	n/a	LTP202	ltpFR	12	n/a	n/a	n/a	n/a	n/a	n/a	n/a	n/a	n/a	n/a	n/a	n/a	n/a	n/a	n/a	n/a
1625.084	n/a	PROB	812542	n/a	LTP202	ltpFR	12	n/a	n/a	n/a	n/a	n/a	n/a	n/a	16	2	9	5	n/a	n/a	n/a	n/a	n/a
1626.234	n/a	PROB	813117	n/a	LTP202	ltpFR	12	n/a	n/a	n/a	n/a	n/a	n/a	n/a	13	8	2	3	n/a	n/a	n/a	n/a	n/a
1627.166	n/a	PROB	813583	n/a	LTP202	ltpFR	12	n/a	n/a	n/a	n/a	n/a	n/a	n/a	16	8	1	7	n/a	n/a	n/a	n/a	n/a
1628.446	n/a	PROB	814223	n/a	LTP202	ltpFR	12	n/a	n/a	n/a	n/a	n/a	n/a	n/a	16	5	6	5	n/a	n/a	n/a	n/a	n/a
1629.594	n/a	PROB	814797	n/a	LTP202	ltpFR	12	n/a	n/a	n/a	n/a	n/a	n/a	n/a	14	4	3	8	n/a	n/a	n/a	n/a	n/a
1631.082	n/a	STOP	815541	n/a	LTP202	ltpFR	12	n/a	n/a	n/a	n/a	n/a	n/a	n/a	n/a	n/a	n/a	n/a	n/a	n/a	n/a	n/a	n/a
1633.206	n/a	WORD	816603	wordpools/wasnorm_wordpool_less_exclusions.txt	LTP202	ltpFR	12	7	1	DIRECTOR	471	n/a	n/a	1	n/a	0	0	0	0.57763671875	0.412841796875	1	upper	amplitud.ttf
1636.218	n/a	START	818109	n/a	LTP202	ltpFR	12	n/a	n/a	n/a	n/a	n/a	n/a	n/a	n/a	n/a	n/a	n/a	n/a	n/a	n/a	n/a	n/a
1637.316	n/a	PROB	818658	n/a	LTP202	ltpFR	12	n/a	n/a	n/a	n/a	n/a	n/a	n/a	14	8	4	2	n/a	n/a	n/a	n/a	n/a
1638.416	n/a	PROB	819208	n/a	LTP202	ltpFR	12	n/a	n/a	n/a	n/a	n/a	n/a	n/a	24	7	9	8	n/a	n/a	n/a	n/a	n/a
1642.31	n/a	PROB	821155	n/a	LTP202	ltpFR	12	n/a	n/a	n/a	n/a	n/a	n/a	n/a	12	1	8	3	n/a	n/a	n/a	n/a	n/a
1643.45	n/a	STOP	821725	n/a	LTP202	ltpFR	12	n/a	n/a	n/a	n/a	n/a	n/a	n/a	n/a	n/a	n/a	n/a	n/a	n/a	n/a	n/a	n/a
1645.038	n/a	WORD	822519	wordpools/wasnorm_wordpool_less_exclusions.txt	LTP202	ltpFR	12	7	1	MOLECULE	905	n/a	n/a	0	n/a	0	0	0	0.57763671875	0.412841796875	1	upper	amplitud.ttf
1648.052	n/a	START	824026	n/a	LTP202	ltpFR	12	n/a	n/a	n/a	n/a	n/a	n/a	n/a	n/a	n/a	n/a	n/a	n/a	n/a	n/a	n/a	n/a
1648.868	n/a	PROB	824434	n/a	LTP202	ltpFR	12	n/a	n/a	n/a	n/a	n/a	n/a	n/a	16	6	8	2	n/a	n/a	n/a	n/a	n/a
1650.23	n/a	PROB	825115	n/a	LTP202	ltpFR	12	n/a	n/a	n/a	n/a	n/a	n/a	n/a	10	5	3	2	n/a	n/a	n/a	n/a	n/a
1651.562	n/a	PROB	825781	n/a	LTP202	ltpFR	12	n/a	n/a	n/a	n/a	n/a	n/a	n/a	13	6	1	6	n/a	n/a	n/a	n/a	n/a
1652.944	n/a	PROB	826472	n/a	LTP202	ltpFR	12	n/a	n/a	n/a	n/a	n/a	n/a	n/a	17	2	4	9	n/a	n/a	n/a	n/a	n/a
1654.358	n/a	PROB	827179	n/a	LTP202	ltpFR	12	n/a	n/a	n/a	n/a	n/a	n/a	n/a	11	6	1	4	n/a	n/a	n/a	n/a	n/a
1655.978	n/a	STOP	827989	n/a	LTP202	ltpFR	12	n/a	n/a	n/a	n/a	n/a	n/a	n/a	n/a	n/a	n/a	n/a	n/a	n/a	n/a	n/a	n/a
1657.204	n/a	WORD	828602	wordpools/wasnorm_wordpool_less_exclusions.txt	LTP202	ltpFR	12	7	0	SWEATER	1419	n/a	n/a	1	n/a	0	0	0	0.422607421875	0.5869140625	0	lower	zerothre.ttf
1660.216	n/a	START	830108	n/a	LTP202	ltpFR	12	n/a	n/a	n/a	n/a	n/a	n/a	n/a	n/a	n/a	n/a	n/a	n/a	n/a	n/a	n/a	n/a
1661.264	n/a	PROB	830632	n/a	LTP202	ltpFR	12	n/a	n/a	n/a	n/a	n/a	n/a	n/a	14	7	2	5	n/a	n/a	n/a	n/a	n/a
1662.796	n/a	PROB	831398	n/a	LTP202	ltpFR	12	n/a	n/a	n/a	n/a	n/a	n/a	n/a	8	2	5	1	n/a	n/a	n/a	n/a	n/a
1664.044	n/a	PROB	832022	n/a	LTP202	ltpFR	12	n/a	n/a	n/a	n/a	n/a	n/a	n/a	15	7	2	6	n/a	n/a	n/a	n/a	n/a
1666.256	n/a	PROB	833128	n/a	LTP202	ltpFR	12	n/a	n/a	n/a	n/a	n/a	n/a	n/a	16	4	5	7	n/a	n/a	n/a	n/a	n/a
1667.818	n/a	STOP	833909	n/a	LTP202	ltpFR	12	n/a	n/a	n/a	n/a	n/a	n/a	n/a	n/a	n/a	n/a	n/a	n/a	n/a	n/a	n/a	n/a
1669.036	n/a	WORD	834518	wordpools/wasnorm_wordpool_less_exclusions.txt	LTP202	ltpFR	12	7	0	CUB	419	n/a	n/a	0	n/a	0	0	0	0.422607421875	0.5869140625	0	lower	zerothre.ttf
1672.048	n/a	START	836024	n/a	LTP202	ltpFR	12	n/a	n/a	n/a	n/a	n/a	n/a	n/a	n/a	n/a	n/a	n/a	n/a	n/a	n/a	n/a	n/a
1672.914	n/a	PROB	836457	n/a	LTP202	ltpFR	12	n/a	n/a	n/a	n/a	n/a	n/a	n/a	17	5	6	6	n/a	n/a	n/a	n/a	n/a
1674.328	n/a	PROB	837164	n/a	LTP202	ltpFR	12	n/a	n/a	n/a	n/a	n/a	n/a	n/a	16	9	4	3	n/a	n/a	n/a	n/a	n/a
1675.66	n/a	PROB	837830	n/a	LTP202	ltpFR	12	n/a	n/a	n/a	n/a	n/a	n/a	n/a	18	9	6	3	n/a	n/a	n/a	n/a	n/a
1676.99	n/a	PROB	838495	n/a	LTP202	ltpFR	12	n/a	n/a	n/a	n/a	n/a	n/a	n/a	16	2	8	6	n/a	n/a	n/a	n/a	n/a
1678.024	n/a	PROB	839012	n/a	LTP202	ltpFR	12	n/a	n/a	n/a	n/a	n/a	n/a	n/a	16	3	5	8	n/a	n/a	n/a	n/a	n/a
1679.186	n/a	STOP	839593	n/a	LTP202	ltpFR	12	n/a	n/a	n/a	n/a	n/a	n/a	n/a	n/a	n/a	n/a	n/a	n/a	n/a	n/a	n/a	n/a
1681.068	n/a	WORD	840534	wordpools/wasnorm_wordpool_less_exclusions.txt	LTP202	ltpFR	12	7	1	GOWN	652	n/a	n/a	0	n/a	0	0	0	0.57763671875	0.412841796875	1	upper	amplitud.ttf
1684.082	n/a	START	842041	n/a	LTP202	ltpFR	12	n/a	n/a	n/a	n/a	n/a	n/a	n/a	n/a	n/a	n/a	n/a	n/a	n/a	n/a	n/a	n/a
1685.046	n/a	PROB	842523	n/a	LTP202	ltpFR	12	n/a	n/a	n/a	n/a	n/a	n/a	n/a	20	6	6	8	n/a	n/a	n/a	n/a	n/a
1686.678	n/a	PROB	843339	n/a	LTP202	ltpFR	12	n/a	n/a	n/a	n/a	n/a	n/a	n/a	18	6	4	8	n/a	n/a	n/a	n/a	n/a
1687.794	n/a	PROB	843897	n/a	LTP202	ltpFR	12	n/a	n/a	n/a	n/a	n/a	n/a	n/a	23	5	9	9	n/a	n/a	n/a	n/a	n/a
1690.406	n/a	PROB	845203	n/a	LTP202	ltpFR	12	n/a	n/a	n/a	n/a	n/a	n/a	n/a	8	5	1	2	n/a	n/a	n/a	n/a	n/a
1691.642	n/a	STOP	845821	n/a	LTP202	ltpFR	12	n/a	n/a	n/a	n/a	n/a	n/a	n/a	n/a	n/a	n/a	n/a	n/a	n/a	n/a	n/a	n/a
1692.968	n/a	WORD	846484	wordpools/wasnorm_wordpool_less_exclusions.txt	LTP202	ltpFR	12	7	1	PLAID	1080	n/a	n/a	0	n/a	0	0	0	0.57763671875	0.412841796875	1	upper	amplitud.ttf
1695.98	n/a	START	847990	n/a	LTP202	ltpFR	12	n/a	n/a	n/a	n/a	n/a	n/a	n/a	n/a	n/a	n/a	n/a	n/a	n/a	n/a	n/a	n/a
1696.83	n/a	PROB	848415	n/a	LTP202	ltpFR	12	n/a	n/a	n/a	n/a	n/a	n/a	n/a	14	5	4	5	n/a	n/a	n/a	n/a	n/a
1698.31	n/a	PROB	849155	n/a	LTP202	ltpFR	12	n/a	n/a	n/a	n/a	n/a	n/a	n/a	18	5	7	6	n/a	n/a	n/a	n/a	n/a
1699.592	n/a	PROB	849796	n/a	LTP202	ltpFR	12	n/a	n/a	n/a	n/a	n/a	n/a	n/a	17	5	9	3	n/a	n/a	n/a	n/a	n/a
1701.04	n/a	PROB	850520	n/a	LTP202	ltpFR	12	n/a	n/a	n/a	n/a	n/a	n/a	n/a	19	5	6	8	n/a	n/a	n/a	n/a	n/a
1702.204	n/a	PROB	851102	n/a	LTP202	ltpFR	12	n/a	n/a	n/a	n/a	n/a	n/a	n/a	10	4	3	3	n/a	n/a	n/a	n/a	n/a
1703.346	n/a	STOP	851673	n/a	LTP202	ltpFR	12	n/a	n/a	n/a	n/a	n/a	n/a	n/a	n/a	n/a	n/a	n/a	n/a	n/a	n/a	n/a	n/a
1704.868	n/a	WORD	852434	wordpools/wasnorm_wordpool_less_exclusions.txt	LTP202	ltpFR	12	7	1	SHIRT	1287	n/a	n/a	0	n/a	0	0	0	0.57763671875	0.412841796875	1	upper	amplitud.ttf
1707.88	n/a	START	853940	n/a	LTP202	ltpFR	12	n/a	n/a	n/a	n/a	n/a	n/a	n/a	n/a	n/a	n/a	n/a	n/a	n/a	n/a	n/a	n/a
1708.896	n/a	PROB	854448	n/a	LTP202	ltpFR	12	n/a	n/a	n/a	n/a	n/a	n/a	n/a	17	8	8	1	n/a	n/a	n/a	n/a	n/a
1710.076	n/a	PROB	855038	n/a	LTP202	ltpFR	12	n/a	n/a	n/a	n/a	n/a	n/a	n/a	14	3	3	8	n/a	n/a	n/a	n/a	n/a
1711.54	n/a	PROB	855770	n/a	LTP202	ltpFR	12	n/a	n/a	n/a	n/a	n/a	n/a	n/a	12	2	6	4	n/a	n/a	n/a	n/a	n/a
1712.856	n/a	PROB	856428	n/a	LTP202	ltpFR	12	n/a	n/a	n/a	n/a	n/a	n/a	n/a	9	1	3	5	n/a	n/a	n/a	n/a	n/a
1714.17	n/a	PROB	857085	n/a	LTP202	ltpFR	12	n/a	n/a	n/a	n/a	n/a	n/a	n/a	17	1	9	7	n/a	n/a	n/a	n/a	n/a
1715.658	n/a	STOP	857829	n/a	LTP202	ltpFR	12	n/a	n/a	n/a	n/a	n/a	n/a	n/a	n/a	n/a	n/a	n/a	n/a	n/a	n/a	n/a	n/a
1716.948	n/a	WORD	858474	wordpools/wasnorm_wordpool_less_exclusions.txt	LTP202	ltpFR	12	7	1	SERGEANT	1269	n/a	n/a	1	n/a	0	0	0	0.57763671875	0.412841796875	1	upper	amplitud.ttf
1719.962	n/a	START	859981	n/a	LTP202	ltpFR	12	n/a	n/a	n/a	n/a	n/a	n/a	n/a	n/a	n/a	n/a	n/a	n/a	n/a	n/a	n/a	n/a
1721.16	n/a	PROB	860580	n/a	LTP202	ltpFR	12	n/a	n/a	n/a	n/a	n/a	n/a	n/a	12	4	7	1	n/a	n/a	n/a	n/a	n/a
1722.224	n/a	PROB	861112	n/a	LTP202	ltpFR	12	n/a	n/a	n/a	n/a	n/a	n/a	n/a	20	9	7	5	n/a	n/a	n/a	n/a	n/a
1723.488	n/a	PROB	861744	n/a	LTP202	ltpFR	12	n/a	n/a	n/a	n/a	n/a	n/a	n/a	15	3	8	4	n/a	n/a	n/a	n/a	n/a
1726.002	n/a	PROB	863001	n/a	LTP202	ltpFR	12	n/a	n/a	n/a	n/a	n/a	n/a	n/a	20	8	7	5	n/a	n/a	n/a	n/a	n/a
1727.402	n/a	STOP	863701	n/a	LTP202	ltpFR	12	n/a	n/a	n/a	n/a	n/a	n/a	n/a	n/a	n/a	n/a	n/a	n/a	n/a	n/a	n/a	n/a
1728.914	n/a	WORD	864457	wordpools/wasnorm_wordpool_less_exclusions.txt	LTP202	ltpFR	12	7	0	CHEMICAL	291	n/a	n/a	2	n/a	0	0	0	0.422607421875	0.5869140625	0	lower	zerothre.ttf
1729.764	n/a	KEY_MSG	864882	n/a	LTP202	ltpFR	12	7	n/a	n/a	n/a	n/a	n/a	n/a	n/a	0	0	0	n/a	n/a	n/a	n/a	n/a
1731.926	n/a	START	865963	n/a	LTP202	ltpFR	12	n/a	n/a	n/a	n/a	n/a	n/a	n/a	n/a	n/a	n/a	n/a	n/a	n/a	n/a	n/a	n/a
1732.942	n/a	PROB	866471	n/a	LTP202	ltpFR	12	n/a	n/a	n/a	n/a	n/a	n/a	n/a	13	6	6	1	n/a	n/a	n/a	n/a	n/a
1733.94	n/a	PROB	866970	n/a	LTP202	ltpFR	12	n/a	n/a	n/a	n/a	n/a	n/a	n/a	9	3	4	2	n/a	n/a	n/a	n/a	n/a
1735.254	n/a	PROB	867627	n/a	LTP202	ltpFR	12	n/a	n/a	n/a	n/a	n/a	n/a	n/a	13	4	8	1	n/a	n/a	n/a	n/a	n/a
1736.354	n/a	PROB	868177	n/a	LTP202	ltpFR	12	n/a	n/a	n/a	n/a	n/a	n/a	n/a	17	7	6	4	n/a	n/a	n/a	n/a	n/a
1738.2	n/a	PROB	869100	n/a	LTP202	ltpFR	12	n/a	n/a	n/a	n/a	n/a	n/a	n/a	18	9	5	4	n/a	n/a	n/a	n/a	n/a
1739.474	n/a	STOP	869737	n/a	LTP202	ltpFR	12	n/a	n/a	n/a	n/a	n/a	n/a	n/a	n/a	n/a	n/a	n/a	n/a	n/a	n/a	n/a	n/a
1741.112	n/a	WORD	870556	wordpools/wasnorm_wordpool_less_exclusions.txt	LTP202	ltpFR	12	7	0	TWIN	1528	n/a	n/a	1	n/a	0	0	0	0.422607421875	0.5869140625	0	lower	zerothre.ttf
1744.126	n/a	START	872063	n/a	LTP202	ltpFR	12	n/a	n/a	n/a	n/a	n/a	n/a	n/a	n/a	n/a	n/a	n/a	n/a	n/a	n/a	n/a	n/a
1745.056	n/a	PROB	872528	n/a	LTP202	ltpFR	12	n/a	n/a	n/a	n/a	n/a	n/a	n/a	19	3	7	9	n/a	n/a	n/a	n/a	n/a
1746.222	n/a	PROB	873111	n/a	LTP202	ltpFR	12	n/a	n/a	n/a	n/a	n/a	n/a	n/a	22	7	7	8	n/a	n/a	n/a	n/a	n/a
1748.95	n/a	PROB	874475	n/a	LTP202	ltpFR	12	n/a	n/a	n/a	n/a	n/a	n/a	n/a	14	5	8	1	n/a	n/a	n/a	n/a	n/a
1750.566	n/a	PROB	875283	n/a	LTP202	ltpFR	12	n/a	n/a	n/a	n/a	n/a	n/a	n/a	19	2	8	9	n/a	n/a	n/a	n/a	n/a
1751.588	n/a	STOP	875794	n/a	LTP202	ltpFR	12	n/a	n/a	n/a	n/a	n/a	n/a	n/a	n/a	n/a	n/a	n/a	n/a	n/a	n/a	n/a	n/a
1753.196	n/a	WORD	876598	wordpools/wasnorm_wordpool_less_exclusions.txt	LTP202	ltpFR	12	7	0	PROTON	1132	n/a	n/a	0	n/a	0	0	0	0.422607421875	0.5869140625	0	lower	zerothre.ttf
1756.208	n/a	START	878104	n/a	LTP202	ltpFR	12	n/a	n/a	n/a	n/a	n/a	n/a	n/a	n/a	n/a	n/a	n/a	n/a	n/a	n/a	n/a	n/a
1757.156	n/a	PROB	878578	n/a	LTP202	ltpFR	12	n/a	n/a	n/a	n/a	n/a	n/a	n/a	12	5	5	2	n/a	n/a	n/a	n/a	n/a
1758.072	n/a	PROB	879036	n/a	LTP202	ltpFR	12	n/a	n/a	n/a	n/a	n/a	n/a	n/a	18	9	2	7	n/a	n/a	n/a	n/a	n/a
1759.404	n/a	PROB	879702	n/a	LTP202	ltpFR	12	n/a	n/a	n/a	n/a	n/a	n/a	n/a	5	2	2	1	n/a	n/a	n/a	n/a	n/a
1760.352	n/a	PROB	880176	n/a	LTP202	ltpFR	12	n/a	n/a	n/a	n/a	n/a	n/a	n/a	14	4	2	8	n/a	n/a	n/a	n/a	n/a
1761.818	n/a	PROB	880909	n/a	LTP202	ltpFR	12	n/a	n/a	n/a	n/a	n/a	n/a	n/a	14	3	7	4	n/a	n/a	n/a	n/a	n/a
1762.94	n/a	STOP	881470	n/a	LTP202	ltpFR	12	n/a	n/a	n/a	n/a	n/a	n/a	n/a	n/a	n/a	n/a	n/a	n/a	n/a	n/a	n/a	n/a
1765.344	n/a	WORD	882672	wordpools/wasnorm_wordpool_less_exclusions.txt	LTP202	ltpFR	12	7	0	CHIMNEY	301	n/a	n/a	1	n/a	0	0	0	0.422607421875	0.5869140625	0	lower	zerothre.ttf
1768.356	n/a	START	884178	n/a	LTP202	ltpFR	12	n/a	n/a	n/a	n/a	n/a	n/a	n/a	n/a	n/a	n/a	n/a	n/a	n/a	n/a	n/a	n/a
1769.422	n/a	PROB	884711	n/a	LTP202	ltpFR	12	n/a	n/a	n/a	n/a	n/a	n/a	n/a	14	3	4	7	n/a	n/a	n/a	n/a	n/a
1770.602	n/a	PROB	885301	n/a	LTP202	ltpFR	12	n/a	n/a	n/a	n/a	n/a	n/a	n/a	19	4	9	6	n/a	n/a	n/a	n/a	n/a
1772.15	n/a	PROB	886075	n/a	LTP202	ltpFR	12	n/a	n/a	n/a	n/a	n/a	n/a	n/a	19	9	1	9	n/a	n/a	n/a	n/a	n/a
1773.166	n/a	PROB	886583	n/a	LTP202	ltpFR	12	n/a	n/a	n/a	n/a	n/a	n/a	n/a	15	4	2	9	n/a	n/a	n/a	n/a	n/a
1774.348	n/a	PROB	887174	n/a	LTP202	ltpFR	12	n/a	n/a	n/a	n/a	n/a	n/a	n/a	19	7	9	5	n/a	n/a	n/a	n/a	n/a
1775.876	n/a	STOP	887938	n/a	LTP202	ltpFR	12	n/a	n/a	n/a	n/a	n/a	n/a	n/a	n/a	n/a	n/a	n/a	n/a	n/a	n/a	n/a	n/a
1777.51	n/a	WORD	888755	wordpools/wasnorm_wordpool_less_exclusions.txt	LTP202	ltpFR	12	7	0	LIGHTER	819	n/a	n/a	0	n/a	0	0	0	0.422607421875	0.5869140625	0	lower	zerothre.ttf
1780.522	n/a	START	890261	n/a	LTP202	ltpFR	12	n/a	n/a	n/a	n/a	n/a	n/a	n/a	n/a	n/a	n/a	n/a	n/a	n/a	n/a	n/a	n/a
1781.604	n/a	PROB	890802	n/a	LTP202	ltpFR	12	n/a	n/a	n/a	n/a	n/a	n/a	n/a	12	6	5	1	n/a	n/a	n/a	n/a	n/a
1782.568	n/a	PROB	891284	n/a	LTP202	ltpFR	12	n/a	n/a	n/a	n/a	n/a	n/a	n/a	14	6	5	3	n/a	n/a	n/a	n/a	n/a
1784.598	n/a	PROB	892299	n/a	LTP202	ltpFR	12	n/a	n/a	n/a	n/a	n/a	n/a	n/a	18	2	7	9	n/a	n/a	n/a	n/a	n/a
1785.848	n/a	PROB	892924	n/a	LTP202	ltpFR	12	n/a	n/a	n/a	n/a	n/a	n/a	n/a	8	4	1	3	n/a	n/a	n/a	n/a	n/a
1788.522	n/a	STOP	894261	n/a	LTP202	ltpFR	12	n/a	n/a	n/a	n/a	n/a	n/a	n/a	n/a	n/a	n/a	n/a	n/a	n/a	n/a	n/a	n/a
1789.542	n/a	WORD	894771	wordpools/wasnorm_wordpool_less_exclusions.txt	LTP202	ltpFR	12	7	0	FIDDLE	561	n/a	n/a	0	n/a	0	0	0	0.422607421875	0.5869140625	0	lower	zerothre.ttf
1792.554	n/a	START	896277	n/a	LTP202	ltpFR	12	n/a	n/a	n/a	n/a	n/a	n/a	n/a	n/a	n/a	n/a	n/a	n/a	n/a	n/a	n/a	n/a
1793.402	n/a	PROB	896701	n/a	LTP202	ltpFR	12	n/a	n/a	n/a	n/a	n/a	n/a	n/a	11	1	5	5	n/a	n/a	n/a	n/a	n/a
1794.618	n/a	PROB	897309	n/a	LTP202	ltpFR	12	n/a	n/a	n/a	n/a	n/a	n/a	n/a	15	3	6	6	n/a	n/a	n/a	n/a	n/a
1795.682	n/a	PROB	897841	n/a	LTP202	ltpFR	12	n/a	n/a	n/a	n/a	n/a	n/a	n/a	11	4	6	1	n/a	n/a	n/a	n/a	n/a
1796.648	n/a	PROB	898324	n/a	LTP202	ltpFR	12	n/a	n/a	n/a	n/a	n/a	n/a	n/a	10	1	6	3	n/a	n/a	n/a	n/a	n/a
1797.928	n/a	PROB	898964	n/a	LTP202	ltpFR	12	n/a	n/a	n/a	n/a	n/a	n/a	n/a	6	1	3	2	n/a	n/a	n/a	n/a	n/a
1799.292	n/a	STOP	899646	n/a	LTP202	ltpFR	12	n/a	n/a	n/a	n/a	n/a	n/a	n/a	n/a	n/a	n/a	n/a	n/a	n/a	n/a	n/a	n/a
1802.456	n/a	REC_START	901228	n/a	LTP202	ltpFR	12	7	n/a	n/a	n/a	n/a	n/a	n/a	n/a	0	0	0	n/a	n/a	n/a	n/a	n/a
1803.358	n/a	REC_WORD	901679	wordpools/wasnorm_wordpool_less_exclusions.txt	LTP202	ltpFR	12	7	0	FIDDLE	561	n/a	n/a	0	n/a	0	0	0	n/a	n/a	n/a	n/a	n/a
1805.144	n/a	REC_WORD	902572	wordpools/wasnorm_wordpool_less_exclusions.txt	LTP202	ltpFR	12	7	1	PRIMATE	1123	n/a	n/a	1	n/a	0	0	0	n/a	n/a	n/a	n/a	n/a
1806.136	n/a	REC_WORD	903068	wordpools/wasnorm_wordpool_less_exclusions.txt	LTP202	ltpFR	12	7	1	WOLF	1619	n/a	n/a	1	n/a	0	0	0	n/a	n/a	n/a	n/a	n/a
1825.858	n/a	REC_WORD	912929	wordpools/wasnorm_wordpool_less_exclusions.txt	LTP202	ltpFR	12	7	0	TWIN	1528	n/a	n/a	1	n/a	0	0	0	n/a	n/a	n/a	n/a	n/a
1826.772	n/a	REC_WORD	913386	wordpools/wasnorm_wordpool_less_exclusions.txt	LTP202	ltpFR	12	7	0	CUB	419	n/a	n/a	0	n/a	0	0	0	n/a	n/a	n/a	n/a	n/a
1828.556	n/a	REC_WORD	914278	wordpools/wasnorm_wordpool_less_exclusions.txt	LTP202	ltpFR	12	7	1	MOLECULE	905	n/a	n/a	0	n/a	0	0	0	n/a	n/a	n/a	n/a	n/a
1829.66	n/a	REC_WORD	914830	wordpools/wasnorm_wordpool_less_exclusions.txt	LTP202	ltpFR	12	7	0	PROTON	1132	n/a	n/a	0	n/a	0	0	0	n/a	n/a	n/a	n/a	n/a
1831.126	n/a	REC_WORD	915563	wordpools/wasnorm_wordpool_less_exclusions.txt	LTP202	ltpFR	12	7	0	CHEMICAL	291	n/a	n/a	2	n/a	0	0	0	n/a	n/a	n/a	n/a	n/a
1838.994	n/a	REC_WORD	919497	wordpools/wasnorm_wordpool_less_exclusions.txt	LTP202	ltpFR	12	7	1	SERGEANT	1269	n/a	n/a	1	n/a	0	0	0	n/a	n/a	n/a	n/a	n/a
1880.374	n/a	START	940187	n/a	LTP202	ltpFR	12	n/a	n/a	n/a	n/a	n/a	n/a	n/a	n/a	n/a	n/a	n/a	n/a	n/a	n/a	n/a	n/a
1881.888	n/a	PROB	940944	n/a	LTP202	ltpFR	12	n/a	n/a	n/a	n/a	n/a	n/a	n/a	15	8	1	6	n/a	n/a	n/a	n/a	n/a
1883.652	n/a	PROB	941826	n/a	LTP202	ltpFR	12	n/a	n/a	n/a	n/a	n/a	n/a	n/a	15	7	4	4	n/a	n/a	n/a	n/a	n/a
1885.05	n/a	PROB	942525	n/a	LTP202	ltpFR	12	n/a	n/a	n/a	n/a	n/a	n/a	n/a	18	6	5	7	n/a	n/a	n/a	n/a	n/a
1887.928	n/a	PROB	943964	n/a	LTP202	ltpFR	12	n/a	n/a	n/a	n/a	n/a	n/a	n/a	12	4	5	3	n/a	n/a	n/a	n/a	n/a
1890.692	n/a	PROB	945346	n/a	LTP202	ltpFR	12	n/a	n/a	n/a	n/a	n/a	n/a	n/a	9	1	5	3	n/a	n/a	n/a	n/a	n/a
1891.908	n/a	PROB	945954	n/a	LTP202	ltpFR	12	n/a	n/a	n/a	n/a	n/a	n/a	n/a	20	7	5	8	n/a	n/a	n/a	n/a	n/a
1893.254	n/a	PROB	946627	n/a	LTP202	ltpFR	12	n/a	n/a	n/a	n/a	n/a	n/a	n/a	16	2	6	8	n/a	n/a	n/a	n/a	n/a
1896.374	n/a	STOP	948187	n/a	LTP202	ltpFR	12	n/a	n/a	n/a	n/a	n/a	n/a	n/a	n/a	n/a	n/a	n/a	n/a	n/a	n/a	n/a	n/a
1897.314	n/a	WORD	948657	wordpools/wasnorm_wordpool_less_exclusions.txt	LTP202	ltpFR	12	8	1	PLATE	1086	n/a	n/a	0	n/a	0	0	0	0.57763671875	0.412841796875	1	upper	amplitud.ttf
1900.328	n/a	START	950164	n/a	LTP202	ltpFR	12	n/a	n/a	n/a	n/a	n/a	n/a	n/a	n/a	n/a	n/a	n/a	n/a	n/a	n/a	n/a	n/a
1901.376	n/a	PROB	950688	n/a	LTP202	ltpFR	12	n/a	n/a	n/a	n/a	n/a	n/a	n/a	13	4	5	4	n/a	n/a	n/a	n/a	n/a
1902.424	n/a	PROB	951212	n/a	LTP202	ltpFR	12	n/a	n/a	n/a	n/a	n/a	n/a	n/a	12	1	3	8	n/a	n/a	n/a	n/a	n/a
1903.524	n/a	PROB	951762	n/a	LTP202	ltpFR	12	n/a	n/a	n/a	n/a	n/a	n/a	n/a	13	4	4	5	n/a	n/a	n/a	n/a	n/a
1905.054	n/a	PROB	952527	n/a	LTP202	ltpFR	12	n/a	n/a	n/a	n/a	n/a	n/a	n/a	18	9	3	6	n/a	n/a	n/a	n/a	n/a
1907.684	n/a	PROB	953842	n/a	LTP202	ltpFR	12	n/a	n/a	n/a	n/a	n/a	n/a	n/a	10	3	4	3	n/a	n/a	n/a	n/a	n/a
1908.882	n/a	PROB	954441	n/a	LTP202	ltpFR	12	n/a	n/a	n/a	n/a	n/a	n/a	n/a	16	4	9	3	n/a	n/a	n/a	n/a	n/a
1910.08	n/a	PROB	955040	n/a	LTP202	ltpFR	12	n/a	n/a	n/a	n/a	n/a	n/a	n/a	4	2	1	1	n/a	n/a	n/a	n/a	n/a
1911.078	n/a	PROB	955539	n/a	LTP202	ltpFR	12	n/a	n/a	n/a	n/a	n/a	n/a	n/a	11	2	7	2	n/a	n/a	n/a	n/a	n/a
1912.476	n/a	PROB	956238	n/a	LTP202	ltpFR	12	n/a	n/a	n/a	n/a	n/a	n/a	n/a	23	6	9	8	n/a	n/a	n/a	n/a	n/a
1914.074	n/a	PROB	957037	n/a	LTP202	ltpFR	12	n/a	n/a	n/a	n/a	n/a	n/a	n/a	16	3	8	5	n/a	n/a	n/a	n/a	n/a
1915.486	n/a	STOP	957743	n/a	LTP202	ltpFR	12	n/a	n/a	n/a	n/a	n/a	n/a	n/a	n/a	n/a	n/a	n/a	n/a	n/a	n/a	n/a	n/a
1917.468	n/a	WORD	958734	wordpools/wasnorm_wordpool_less_exclusions.txt	LTP202	ltpFR	12	8	1	FEAST	556	n/a	n/a	0	n/a	0	0	0	0.57763671875	0.412841796875	1	upper	amplitud.ttf
1920.482	n/a	START	960241	n/a	LTP202	ltpFR	12	n/a	n/a	n/a	n/a	n/a	n/a	n/a	n/a	n/a	n/a	n/a	n/a	n/a	n/a	n/a	n/a
1921.43	n/a	PROB	960715	n/a	LTP202	ltpFR	12	n/a	n/a	n/a	n/a	n/a	n/a	n/a	11	2	6	3	n/a	n/a	n/a	n/a	n/a
1922.678	n/a	PROB	961339	n/a	LTP202	ltpFR	12	n/a	n/a	n/a	n/a	n/a	n/a	n/a	17	5	7	5	n/a	n/a	n/a	n/a	n/a
1924.126	n/a	PROB	962063	n/a	LTP202	ltpFR	12	n/a	n/a	n/a	n/a	n/a	n/a	n/a	20	9	8	3	n/a	n/a	n/a	n/a	n/a
1925.49	n/a	PROB	962745	n/a	LTP202	ltpFR	12	n/a	n/a	n/a	n/a	n/a	n/a	n/a	21	7	7	7	n/a	n/a	n/a	n/a	n/a
1927.154	n/a	PROB	963577	n/a	LTP202	ltpFR	12	n/a	n/a	n/a	n/a	n/a	n/a	n/a	16	3	6	7	n/a	n/a	n/a	n/a	n/a
1928.918	n/a	PROB	964459	n/a	LTP202	ltpFR	12	n/a	n/a	n/a	n/a	n/a	n/a	n/a	14	3	3	8	n/a	n/a	n/a	n/a	n/a
1930.5	n/a	PROB	965250	n/a	LTP202	ltpFR	12	n/a	n/a	n/a	n/a	n/a	n/a	n/a	12	3	4	8	n/a	n/a	n/a	n/a	n/a
1931.798	n/a	PROB	965899	n/a	LTP202	ltpFR	12	n/a	n/a	n/a	n/a	n/a	n/a	n/a	16	1	8	7	n/a	n/a	n/a	n/a	n/a
1933.046	n/a	PROB	966523	n/a	LTP202	ltpFR	12	n/a	n/a	n/a	n/a	n/a	n/a	n/a	11	1	7	3	n/a	n/a	n/a	n/a	n/a
1934.626	n/a	PROB	967313	n/a	LTP202	ltpFR	12	n/a	n/a	n/a	n/a	n/a	n/a	n/a	7	2	4	1	n/a	n/a	n/a	n/a	n/a
1935.686	n/a	STOP	967843	n/a	LTP202	ltpFR	12	n/a	n/a	n/a	n/a	n/a	n/a	n/a	n/a	n/a	n/a	n/a	n/a	n/a	n/a	n/a	n/a
1937.306	n/a	WORD	968653	wordpools/wasnorm_wordpool_less_exclusions.txt	LTP202	ltpFR	12	8	1	WEED	1599	n/a	n/a	0	n/a	0	0	0	0.57763671875	0.412841796875	1	upper	amplitud.ttf
1940.318	n/a	START	970159	n/a	LTP202	ltpFR	12	n/a	n/a	n/a	n/a	n/a	n/a	n/a	n/a	n/a	n/a	n/a	n/a	n/a	n/a	n/a	n/a
1941.284	n/a	PROB	970642	n/a	LTP202	ltpFR	12	n/a	n/a	n/a	n/a	n/a	n/a	n/a	13	8	2	3	n/a	n/a	n/a	n/a	n/a
1942.266	n/a	PROB	971133	n/a	LTP202	ltpFR	12	n/a	n/a	n/a	n/a	n/a	n/a	n/a	12	1	8	3	n/a	n/a	n/a	n/a	n/a
1943.564	n/a	PROB	971782	n/a	LTP202	ltpFR	12	n/a	n/a	n/a	n/a	n/a	n/a	n/a	19	9	8	2	n/a	n/a	n/a	n/a	n/a
1946.692	n/a	PROB	973346	n/a	LTP202	ltpFR	12	n/a	n/a	n/a	n/a	n/a	n/a	n/a	19	7	8	4	n/a	n/a	n/a	n/a	n/a
1948.69	n/a	PROB	974345	n/a	LTP202	ltpFR	12	n/a	n/a	n/a	n/a	n/a	n/a	n/a	16	8	3	5	n/a	n/a	n/a	n/a	n/a
1950.154	n/a	PROB	975077	n/a	LTP202	ltpFR	12	n/a	n/a	n/a	n/a	n/a	n/a	n/a	20	9	8	3	n/a	n/a	n/a	n/a	n/a
1951.418	n/a	PROB	975709	n/a	LTP202	ltpFR	12	n/a	n/a	n/a	n/a	n/a	n/a	n/a	19	8	2	9	n/a	n/a	n/a	n/a	n/a
1952.65	n/a	PROB	976325	n/a	LTP202	ltpFR	12	n/a	n/a	n/a	n/a	n/a	n/a	n/a	13	6	1	6	n/a	n/a	n/a	n/a	n/a
1953.816	n/a	PROB	976908	n/a	LTP202	ltpFR	12	n/a	n/a	n/a	n/a	n/a	n/a	n/a	11	2	3	6	n/a	n/a	n/a	n/a	n/a
1954.91	n/a	STOP	977455	n/a	LTP202	ltpFR	12	n/a	n/a	n/a	n/a	n/a	n/a	n/a	n/a	n/a	n/a	n/a	n/a	n/a	n/a	n/a	n/a
1957.31	n/a	WORD	978655	wordpools/wasnorm_wordpool_less_exclusions.txt	LTP202	ltpFR	12	8	1	LINEN	825	n/a	n/a	0	n/a	0	0	0	0.57763671875	0.412841796875	1	upper	amplitud.ttf
1960.322	n/a	START	980161	n/a	LTP202	ltpFR	12	n/a	n/a	n/a	n/a	n/a	n/a	n/a	n/a	n/a	n/a	n/a	n/a	n/a	n/a	n/a	n/a
1961.504	n/a	PROB	980752	n/a	LTP202	ltpFR	12	n/a	n/a	n/a	n/a	n/a	n/a	n/a	14	3	4	7	n/a	n/a	n/a	n/a	n/a
1962.736	n/a	PROB	981368	n/a	LTP202	ltpFR	12	n/a	n/a	n/a	n/a	n/a	n/a	n/a	17	6	6	5	n/a	n/a	n/a	n/a	n/a
1964.666	n/a	PROB	982333	n/a	LTP202	ltpFR	12	n/a	n/a	n/a	n/a	n/a	n/a	n/a	8	1	3	4	n/a	n/a	n/a	n/a	n/a
1965.898	n/a	PROB	982949	n/a	LTP202	ltpFR	12	n/a	n/a	n/a	n/a	n/a	n/a	n/a	12	1	4	7	n/a	n/a	n/a	n/a	n/a
1967.494	n/a	PROB	983747	n/a	LTP202	ltpFR	12	n/a	n/a	n/a	n/a	n/a	n/a	n/a	12	4	3	5	n/a	n/a	n/a	n/a	n/a
1968.61	n/a	PROB	984305	n/a	LTP202	ltpFR	12	n/a	n/a	n/a	n/a	n/a	n/a	n/a	12	3	1	8	n/a	n/a	n/a	n/a	n/a
1969.64	n/a	PROB	984820	n/a	LTP202	ltpFR	12	n/a	n/a	n/a	n/a	n/a	n/a	n/a	11	1	1	9	n/a	n/a	n/a	n/a	n/a
1970.856	n/a	PROB	985428	n/a	LTP202	ltpFR	12	n/a	n/a	n/a	n/a	n/a	n/a	n/a	20	6	8	6	n/a	n/a	n/a	n/a	n/a
1972.372	n/a	PROB	986186	n/a	LTP202	ltpFR	12	n/a	n/a	n/a	n/a	n/a	n/a	n/a	10	3	2	4	n/a	n/a	n/a	n/a	n/a
1973.754	n/a	PROB	986877	n/a	LTP202	ltpFR	12	n/a	n/a	n/a	n/a	n/a	n/a	n/a	19	8	7	2	n/a	n/a	n/a	n/a	n/a
1975.046	n/a	STOP	987523	n/a	LTP202	ltpFR	12	n/a	n/a	n/a	n/a	n/a	n/a	n/a	n/a	n/a	n/a	n/a	n/a	n/a	n/a	n/a	n/a
1977.164	n/a	WORD	988582	wordpools/wasnorm_wordpool_less_exclusions.txt	LTP202	ltpFR	12	8	0	HANGER	687	n/a	n/a	0	n/a	0	0	0	0.422607421875	0.5869140625	0	lower	zerothre.ttf
1980.176	n/a	START	990088	n/a	LTP202	ltpFR	12	n/a	n/a	n/a	n/a	n/a	n/a	n/a	n/a	n/a	n/a	n/a	n/a	n/a	n/a	n/a	n/a
1981.374	n/a	PROB	990687	n/a	LTP202	ltpFR	12	n/a	n/a	n/a	n/a	n/a	n/a	n/a	7	1	1	5	n/a	n/a	n/a	n/a	n/a
1982.64	n/a	PROB	991320	n/a	LTP202	ltpFR	12	n/a	n/a	n/a	n/a	n/a	n/a	n/a	18	9	1	8	n/a	n/a	n/a	n/a	n/a
1983.772	n/a	PROB	991886	n/a	LTP202	ltpFR	12	n/a	n/a	n/a	n/a	n/a	n/a	n/a	24	7	9	9	n/a	n/a	n/a	n/a	n/a
1985.468	n/a	PROB	992734	n/a	LTP202	ltpFR	12	n/a	n/a	n/a	n/a	n/a	n/a	n/a	19	4	8	7	n/a	n/a	n/a	n/a	n/a
1986.65	n/a	PROB	993325	n/a	LTP202	ltpFR	12	n/a	n/a	n/a	n/a	n/a	n/a	n/a	19	8	9	2	n/a	n/a	n/a	n/a	n/a
1988.764	n/a	PROB	994382	n/a	LTP202	ltpFR	12	n/a	n/a	n/a	n/a	n/a	n/a	n/a	14	9	3	2	n/a	n/a	n/a	n/a	n/a
1990.212	n/a	PROB	995106	n/a	LTP202	ltpFR	12	n/a	n/a	n/a	n/a	n/a	n/a	n/a	18	4	6	8	n/a	n/a	n/a	n/a	n/a
1991.26	n/a	PROB	995630	n/a	LTP202	ltpFR	12	n/a	n/a	n/a	n/a	n/a	n/a	n/a	20	4	9	7	n/a	n/a	n/a	n/a	n/a
1992.742	n/a	PROB	996371	n/a	LTP202	ltpFR	12	n/a	n/a	n/a	n/a	n/a	n/a	n/a	20	7	5	8	n/a	n/a	n/a	n/a	n/a
1993.956	n/a	PROB	996978	n/a	LTP202	ltpFR	12	n/a	n/a	n/a	n/a	n/a	n/a	n/a	20	5	6	9	n/a	n/a	n/a	n/a	n/a
1995.19	n/a	STOP	997595	n/a	LTP202	ltpFR	12	n/a	n/a	n/a	n/a	n/a	n/a	n/a	n/a	n/a	n/a	n/a	n/a	n/a	n/a	n/a	n/a
1997.3	n/a	WORD	998650	wordpools/wasnorm_wordpool_less_exclusions.txt	LTP202	ltpFR	12	8	0	DESSERT	453	n/a	n/a	0	n/a	0	0	0	0.422607421875	0.5869140625	0	lower	zerothre.ttf
2000.314	n/a	START	1000157	n/a	LTP202	ltpFR	12	n/a	n/a	n/a	n/a	n/a	n/a	n/a	n/a	n/a	n/a	n/a	n/a	n/a	n/a	n/a	n/a
2001.262	n/a	PROB	1000631	n/a	LTP202	ltpFR	12	n/a	n/a	n/a	n/a	n/a	n/a	n/a	14	5	3	6	n/a	n/a	n/a	n/a	n/a
2002.476	n/a	PROB	1001238	n/a	LTP202	ltpFR	12	n/a	n/a	n/a	n/a	n/a	n/a	n/a	17	5	4	8	n/a	n/a	n/a	n/a	n/a
2004.19	n/a	PROB	1002095	n/a	LTP202	ltpFR	12	n/a	n/a	n/a	n/a	n/a	n/a	n/a	9	2	1	6	n/a	n/a	n/a	n/a	n/a
2005.338	n/a	PROB	1002669	n/a	LTP202	ltpFR	12	n/a	n/a	n/a	n/a	n/a	n/a	n/a	22	7	9	7	n/a	n/a	n/a	n/a	n/a
2006.888	n/a	PROB	1003444	n/a	LTP202	ltpFR	12	n/a	n/a	n/a	n/a	n/a	n/a	n/a	10	1	7	2	n/a	n/a	n/a	n/a	n/a
2009.116	n/a	PROB	1004558	n/a	LTP202	ltpFR	12	n/a	n/a	n/a	n/a	n/a	n/a	n/a	16	6	2	8	n/a	n/a	n/a	n/a	n/a
2010.448	n/a	PROB	1005224	n/a	LTP202	ltpFR	12	n/a	n/a	n/a	n/a	n/a	n/a	n/a	16	9	1	6	n/a	n/a	n/a	n/a	n/a
2011.696	n/a	PROB	1005848	n/a	LTP202	ltpFR	12	n/a	n/a	n/a	n/a	n/a	n/a	n/a	19	6	6	7	n/a	n/a	n/a	n/a	n/a
2013.376	n/a	PROB	1006688	n/a	LTP202	ltpFR	12	n/a	n/a	n/a	n/a	n/a	n/a	n/a	18	9	3	6	n/a	n/a	n/a	n/a	n/a
2014.674	n/a	PROB	1007337	n/a	LTP202	ltpFR	12	n/a	n/a	n/a	n/a	n/a	n/a	n/a	10	6	1	3	n/a	n/a	n/a	n/a	n/a
2015.918	n/a	STOP	1007959	n/a	LTP202	ltpFR	12	n/a	n/a	n/a	n/a	n/a	n/a	n/a	n/a	n/a	n/a	n/a	n/a	n/a	n/a	n/a	n/a
2017.454	n/a	WORD	1008727	wordpools/wasnorm_wordpool_less_exclusions.txt	LTP202	ltpFR	12	8	0	FLESH	579	n/a	n/a	0	n/a	0	0	0	0.422607421875	0.5869140625	0	lower	zerothre.ttf
2020.466	n/a	START	1010233	n/a	LTP202	ltpFR	12	n/a	n/a	n/a	n/a	n/a	n/a	n/a	n/a	n/a	n/a	n/a	n/a	n/a	n/a	n/a	n/a
2021.632	n/a	PROB	1010816	n/a	LTP202	ltpFR	12	n/a	n/a	n/a	n/a	n/a	n/a	n/a	13	5	1	7	n/a	n/a	n/a	n/a	n/a
2023.444	n/a	PROB	1011722	n/a	LTP202	ltpFR	12	n/a	n/a	n/a	n/a	n/a	n/a	n/a	25	9	8	8	n/a	n/a	n/a	n/a	n/a
2025.16	n/a	PROB	1012580	n/a	LTP202	ltpFR	12	n/a	n/a	n/a	n/a	n/a	n/a	n/a	16	1	9	6	n/a	n/a	n/a	n/a	n/a
2026.208	n/a	PROB	1013104	n/a	LTP202	ltpFR	12	n/a	n/a	n/a	n/a	n/a	n/a	n/a	7	1	5	1	n/a	n/a	n/a	n/a	n/a
2027.556	n/a	PROB	1013778	n/a	LTP202	ltpFR	12	n/a	n/a	n/a	n/a	n/a	n/a	n/a	17	7	1	9	n/a	n/a	n/a	n/a	n/a
2028.888	n/a	PROB	1014444	n/a	LTP202	ltpFR	12	n/a	n/a	n/a	n/a	n/a	n/a	n/a	15	4	5	6	n/a	n/a	n/a	n/a	n/a
2030.118	n/a	PROB	1015059	n/a	LTP202	ltpFR	12	n/a	n/a	n/a	n/a	n/a	n/a	n/a	16	1	8	7	n/a	n/a	n/a	n/a	n/a
2031.582	n/a	PROB	1015791	n/a	LTP202	ltpFR	12	n/a	n/a	n/a	n/a	n/a	n/a	n/a	12	3	1	8	n/a	n/a	n/a	n/a	n/a
2032.682	n/a	PROB	1016341	n/a	LTP202	ltpFR	12	n/a	n/a	n/a	n/a	n/a	n/a	n/a	15	6	8	1	n/a	n/a	n/a	n/a	n/a
2033.814	n/a	PROB	1016907	n/a	LTP202	ltpFR	12	n/a	n/a	n/a	n/a	n/a	n/a	n/a	21	8	7	6	n/a	n/a	n/a	n/a	n/a
2035.142	n/a	STOP	1017571	n/a	LTP202	ltpFR	12	n/a	n/a	n/a	n/a	n/a	n/a	n/a	n/a	n/a	n/a	n/a	n/a	n/a	n/a	n/a	n/a
2037.49	n/a	WORD	1018745	wordpools/wasnorm_wordpool_less_exclusions.txt	LTP202	ltpFR	12	8	0	WARRIOR	1589	n/a	n/a	1	n/a	0	0	0	0.422607421875	0.5869140625	0	lower	zerothre.ttf
2040.504	n/a	START	1020252	n/a	LTP202	ltpFR	12	n/a	n/a	n/a	n/a	n/a	n/a	n/a	n/a	n/a	n/a	n/a	n/a	n/a	n/a	n/a	n/a
2041.684	n/a	PROB	1020842	n/a	LTP202	ltpFR	12	n/a	n/a	n/a	n/a	n/a	n/a	n/a	22	8	5	9	n/a	n/a	n/a	n/a	n/a
2043.832	n/a	PROB	1021916	n/a	LTP202	ltpFR	12	n/a	n/a	n/a	n/a	n/a	n/a	n/a	5	2	1	2	n/a	n/a	n/a	n/a	n/a
2044.93	n/a	PROB	1022465	n/a	LTP202	ltpFR	12	n/a	n/a	n/a	n/a	n/a	n/a	n/a	15	5	8	2	n/a	n/a	n/a	n/a	n/a
2046.128	n/a	PROB	1023064	n/a	LTP202	ltpFR	12	n/a	n/a	n/a	n/a	n/a	n/a	n/a	18	7	2	9	n/a	n/a	n/a	n/a	n/a
2047.828	n/a	PROB	1023914	n/a	LTP202	ltpFR	12	n/a	n/a	n/a	n/a	n/a	n/a	n/a	13	2	8	3	n/a	n/a	n/a	n/a	n/a
2048.974	n/a	PROB	1024487	n/a	LTP202	ltpFR	12	n/a	n/a	n/a	n/a	n/a	n/a	n/a	10	5	1	4	n/a	n/a	n/a	n/a	n/a
2050.24	n/a	PROB	1025120	n/a	LTP202	ltpFR	12	n/a	n/a	n/a	n/a	n/a	n/a	n/a	21	9	6	6	n/a	n/a	n/a	n/a	n/a
2051.438	n/a	PROB	1025719	n/a	LTP202	ltpFR	12	n/a	n/a	n/a	n/a	n/a	n/a	n/a	10	2	6	2	n/a	n/a	n/a	n/a	n/a
2052.77	n/a	PROB	1026385	n/a	LTP202	ltpFR	12	n/a	n/a	n/a	n/a	n/a	n/a	n/a	18	9	2	7	n/a	n/a	n/a	n/a	n/a
2054.334	n/a	PROB	1027167	n/a	LTP202	ltpFR	12	n/a	n/a	n/a	n/a	n/a	n/a	n/a	26	9	9	8	n/a	n/a	n/a	n/a	n/a
2055.96	n/a	STOP	1027980	n/a	LTP202	ltpFR	12	n/a	n/a	n/a	n/a	n/a	n/a	n/a	n/a	n/a	n/a	n/a	n/a	n/a	n/a	n/a	n/a
2057.412	n/a	WORD	1028706	wordpools/wasnorm_wordpool_less_exclusions.txt	LTP202	ltpFR	12	8	0	TRIBE	1505	n/a	n/a	1	n/a	0	0	0	0.422607421875	0.5869140625	0	lower	zerothre.ttf
2060.424	n/a	START	1030212	n/a	LTP202	ltpFR	12	n/a	n/a	n/a	n/a	n/a	n/a	n/a	n/a	n/a	n/a	n/a	n/a	n/a	n/a	n/a	n/a
2061.306	n/a	PROB	1030653	n/a	LTP202	ltpFR	12	n/a	n/a	n/a	n/a	n/a	n/a	n/a	13	1	9	3	n/a	n/a	n/a	n/a	n/a
2062.354	n/a	PROB	1031177	n/a	LTP202	ltpFR	12	n/a	n/a	n/a	n/a	n/a	n/a	n/a	17	3	7	7	n/a	n/a	n/a	n/a	n/a
2063.62	n/a	PROB	1031810	n/a	LTP202	ltpFR	12	n/a	n/a	n/a	n/a	n/a	n/a	n/a	23	7	7	9	n/a	n/a	n/a	n/a	n/a
2066.148	n/a	PROB	1033074	n/a	LTP202	ltpFR	12	n/a	n/a	n/a	n/a	n/a	n/a	n/a	17	4	5	8	n/a	n/a	n/a	n/a	n/a
2067.496	n/a	PROB	1033748	n/a	LTP202	ltpFR	12	n/a	n/a	n/a	n/a	n/a	n/a	n/a	12	7	4	1	n/a	n/a	n/a	n/a	n/a
2068.578	n/a	PROB	1034289	n/a	LTP202	ltpFR	12	n/a	n/a	n/a	n/a	n/a	n/a	n/a	20	7	7	6	n/a	n/a	n/a	n/a	n/a
2070.11	n/a	PROB	1035055	n/a	LTP202	ltpFR	12	n/a	n/a	n/a	n/a	n/a	n/a	n/a	15	6	4	5	n/a	n/a	n/a	n/a	n/a
2071.224	n/a	PROB	1035612	n/a	LTP202	ltpFR	12	n/a	n/a	n/a	n/a	n/a	n/a	n/a	13	6	1	6	n/a	n/a	n/a	n/a	n/a
2072.506	n/a	PROB	1036253	n/a	LTP202	ltpFR	12	n/a	n/a	n/a	n/a	n/a	n/a	n/a	16	5	2	9	n/a	n/a	n/a	n/a	n/a
2073.988	n/a	PROB	1036994	n/a	LTP202	ltpFR	12	n/a	n/a	n/a	n/a	n/a	n/a	n/a	12	1	5	6	n/a	n/a	n/a	n/a	n/a
2075.56	n/a	STOP	1037780	n/a	LTP202	ltpFR	12	n/a	n/a	n/a	n/a	n/a	n/a	n/a	n/a	n/a	n/a	n/a	n/a	n/a	n/a	n/a	n/a
2077.348	n/a	WORD	1038674	wordpools/wasnorm_wordpool_less_exclusions.txt	LTP202	ltpFR	12	8	0	PASTRY	1022	n/a	n/a	0	n/a	0	0	0	0.422607421875	0.5869140625	0	lower	zerothre.ttf
2080.362	n/a	START	1040181	n/a	LTP202	ltpFR	12	n/a	n/a	n/a	n/a	n/a	n/a	n/a	n/a	n/a	n/a	n/a	n/a	n/a	n/a	n/a	n/a
2081.194	n/a	PROB	1040597	n/a	LTP202	ltpFR	12	n/a	n/a	n/a	n/a	n/a	n/a	n/a	26	9	9	7	n/a	n/a	n/a	n/a	n/a
2082.792	n/a	PROB	1041396	n/a	LTP202	ltpFR	12	n/a	n/a	n/a	n/a	n/a	n/a	n/a	11	5	2	3	n/a	n/a	n/a	n/a	n/a
2084.188	n/a	PROB	1042094	n/a	LTP202	ltpFR	12	n/a	n/a	n/a	n/a	n/a	n/a	n/a	18	8	8	2	n/a	n/a	n/a	n/a	n/a
2085.636	n/a	PROB	1042818	n/a	LTP202	ltpFR	12	n/a	n/a	n/a	n/a	n/a	n/a	n/a	13	4	5	4	n/a	n/a	n/a	n/a	n/a
2087.666	n/a	PROB	1043833	n/a	LTP202	ltpFR	12	n/a	n/a	n/a	n/a	n/a	n/a	n/a	14	2	6	6	n/a	n/a	n/a	n/a	n/a
2088.964	n/a	PROB	1044482	n/a	LTP202	ltpFR	12	n/a	n/a	n/a	n/a	n/a	n/a	n/a	9	2	5	2	n/a	n/a	n/a	n/a	n/a
2090.146	n/a	PROB	1045073	n/a	LTP202	ltpFR	12	n/a	n/a	n/a	n/a	n/a	n/a	n/a	20	8	8	4	n/a	n/a	n/a	n/a	n/a
2091.628	n/a	PROB	1045814	n/a	LTP202	ltpFR	12	n/a	n/a	n/a	n/a	n/a	n/a	n/a	18	1	9	8	n/a	n/a	n/a	n/a	n/a
2092.71	n/a	PROB	1046355	n/a	LTP202	ltpFR	12	n/a	n/a	n/a	n/a	n/a	n/a	n/a	13	6	2	5	n/a	n/a	n/a	n/a	n/a
2093.842	n/a	PROB	1046921	n/a	LTP202	ltpFR	12	n/a	n/a	n/a	n/a	n/a	n/a	n/a	22	7	6	9	n/a	n/a	n/a	n/a	n/a
2095.24	n/a	STOP	1047620	n/a	LTP202	ltpFR	12	n/a	n/a	n/a	n/a	n/a	n/a	n/a	n/a	n/a	n/a	n/a	n/a	n/a	n/a	n/a	n/a
2097.352	n/a	WORD	1048676	wordpools/wasnorm_wordpool_less_exclusions.txt	LTP202	ltpFR	12	8	1	VELVET	1555	n/a	n/a	0	n/a	0	0	0	0.57763671875	0.412841796875	1	upper	amplitud.ttf
2100.364	n/a	START	1050182	n/a	LTP202	ltpFR	12	n/a	n/a	n/a	n/a	n/a	n/a	n/a	n/a	n/a	n/a	n/a	n/a	n/a	n/a	n/a	n/a
2101.496	n/a	PROB	1050748	n/a	LTP202	ltpFR	12	n/a	n/a	n/a	n/a	n/a	n/a	n/a	21	8	9	4	n/a	n/a	n/a	n/a	n/a
2104.94	n/a	PROB	1052470	n/a	LTP202	ltpFR	12	n/a	n/a	n/a	n/a	n/a	n/a	n/a	18	4	9	5	n/a	n/a	n/a	n/a	n/a
2106.84	n/a	PROB	1053420	n/a	LTP202	ltpFR	12	n/a	n/a	n/a	n/a	n/a	n/a	n/a	12	3	8	1	n/a	n/a	n/a	n/a	n/a
2108.386	n/a	PROB	1054193	n/a	LTP202	ltpFR	12	n/a	n/a	n/a	n/a	n/a	n/a	n/a	17	6	7	4	n/a	n/a	n/a	n/a	n/a
2110.066	n/a	PROB	1055033	n/a	LTP202	ltpFR	12	n/a	n/a	n/a	n/a	n/a	n/a	n/a	16	9	1	6	n/a	n/a	n/a	n/a	n/a
2111.182	n/a	PROB	1055591	n/a	LTP202	ltpFR	12	n/a	n/a	n/a	n/a	n/a	n/a	n/a	18	4	7	7	n/a	n/a	n/a	n/a	n/a
2112.464	n/a	PROB	1056232	n/a	LTP202	ltpFR	12	n/a	n/a	n/a	n/a	n/a	n/a	n/a	11	2	8	1	n/a	n/a	n/a	n/a	n/a
2113.462	n/a	PROB	1056731	n/a	LTP202	ltpFR	12	n/a	n/a	n/a	n/a	n/a	n/a	n/a	9	1	2	6	n/a	n/a	n/a	n/a	n/a
2114.576	n/a	PROB	1057288	n/a	LTP202	ltpFR	12	n/a	n/a	n/a	n/a	n/a	n/a	n/a	10	5	2	3	n/a	n/a	n/a	n/a	n/a
2116.12	n/a	STOP	1058060	n/a	LTP202	ltpFR	12	n/a	n/a	n/a	n/a	n/a	n/a	n/a	n/a	n/a	n/a	n/a	n/a	n/a	n/a	n/a	n/a
2117.522	n/a	WORD	1058761	wordpools/wasnorm_wordpool_less_exclusions.txt	LTP202	ltpFR	12	8	1	ALMOND	18	n/a	n/a	0	n/a	0	0	0	0.57763671875	0.412841796875	1	upper	amplitud.ttf
2120.536	n/a	START	1060268	n/a	LTP202	ltpFR	12	n/a	n/a	n/a	n/a	n/a	n/a	n/a	n/a	n/a	n/a	n/a	n/a	n/a	n/a	n/a	n/a
2121.418	n/a	PROB	1060709	n/a	LTP202	ltpFR	12	n/a	n/a	n/a	n/a	n/a	n/a	n/a	16	6	2	8	n/a	n/a	n/a	n/a	n/a
2122.566	n/a	PROB	1061283	n/a	LTP202	ltpFR	12	n/a	n/a	n/a	n/a	n/a	n/a	n/a	13	2	6	5	n/a	n/a	n/a	n/a	n/a
2123.714	n/a	PROB	1061857	n/a	LTP202	ltpFR	12	n/a	n/a	n/a	n/a	n/a	n/a	n/a	15	5	6	4	n/a	n/a	n/a	n/a	n/a
2124.764	n/a	PROB	1062382	n/a	LTP202	ltpFR	12	n/a	n/a	n/a	n/a	n/a	n/a	n/a	14	3	5	6	n/a	n/a	n/a	n/a	n/a
2126.094	n/a	PROB	1063047	n/a	LTP202	ltpFR	12	n/a	n/a	n/a	n/a	n/a	n/a	n/a	15	3	6	6	n/a	n/a	n/a	n/a	n/a
2127.276	n/a	PROB	1063638	n/a	LTP202	ltpFR	12	n/a	n/a	n/a	n/a	n/a	n/a	n/a	18	8	9	1	n/a	n/a	n/a	n/a	n/a
2128.574	n/a	PROB	1064287	n/a	LTP202	ltpFR	12	n/a	n/a	n/a	n/a	n/a	n/a	n/a	12	4	6	2	n/a	n/a	n/a	n/a	n/a
2129.588	n/a	PROB	1064794	n/a	LTP202	ltpFR	12	n/a	n/a	n/a	n/a	n/a	n/a	n/a	17	5	5	7	n/a	n/a	n/a	n/a	n/a
2131.036	n/a	PROB	1065518	n/a	LTP202	ltpFR	12	n/a	n/a	n/a	n/a	n/a	n/a	n/a	15	8	2	5	n/a	n/a	n/a	n/a	n/a
2132.202	n/a	PROB	1066101	n/a	LTP202	ltpFR	12	n/a	n/a	n/a	n/a	n/a	n/a	n/a	20	8	7	5	n/a	n/a	n/a	n/a	n/a
2134.364	n/a	PROB	1067182	n/a	LTP202	ltpFR	12	n/a	n/a	n/a	n/a	n/a	n/a	n/a	15	9	4	1	n/a	n/a	n/a	n/a	n/a
2135.44	n/a	STOP	1067720	n/a	LTP202	ltpFR	12	n/a	n/a	n/a	n/a	n/a	n/a	n/a	n/a	n/a	n/a	n/a	n/a	n/a	n/a	n/a	n/a
2137.444	n/a	WORD	1068722	wordpools/wasnorm_wordpool_less_exclusions.txt	LTP202	ltpFR	12	8	1	GRASSHOPPER	656	n/a	n/a	1	n/a	0	0	0	0.57763671875	0.412841796875	1	upper	amplitud.ttf
2140.456	n/a	START	1070228	n/a	LTP202	ltpFR	12	n/a	n/a	n/a	n/a	n/a	n/a	n/a	n/a	n/a	n/a	n/a	n/a	n/a	n/a	n/a	n/a
2141.504	n/a	PROB	1070752	n/a	LTP202	ltpFR	12	n/a	n/a	n/a	n/a	n/a	n/a	n/a	7	1	3	3	n/a	n/a	n/a	n/a	n/a
2142.57	n/a	PROB	1071285	n/a	LTP202	ltpFR	12	n/a	n/a	n/a	n/a	n/a	n/a	n/a	20	7	6	7	n/a	n/a	n/a	n/a	n/a
2144.45	n/a	PROB	1072225	n/a	LTP202	ltpFR	12	n/a	n/a	n/a	n/a	n/a	n/a	n/a	12	1	5	6	n/a	n/a	n/a	n/a	n/a
2145.582	n/a	PROB	1072791	n/a	LTP202	ltpFR	12	n/a	n/a	n/a	n/a	n/a	n/a	n/a	22	9	5	8	n/a	n/a	n/a	n/a	n/a
2147.262	n/a	PROB	1073631	n/a	LTP202	ltpFR	12	n/a	n/a	n/a	n/a	n/a	n/a	n/a	18	5	7	6	n/a	n/a	n/a	n/a	n/a
2148.91	n/a	PROB	1074455	n/a	LTP202	ltpFR	12	n/a	n/a	n/a	n/a	n/a	n/a	n/a	19	9	9	1	n/a	n/a	n/a	n/a	n/a
2150.34	n/a	PROB	1075170	n/a	LTP202	ltpFR	12	n/a	n/a	n/a	n/a	n/a	n/a	n/a	24	8	9	7	n/a	n/a	n/a	n/a	n/a
2152.022	n/a	PROB	1076011	n/a	LTP202	ltpFR	12	n/a	n/a	n/a	n/a	n/a	n/a	n/a	11	4	3	8	n/a	n/a	n/a	n/a	n/a
2153.452	n/a	PROB	1076726	n/a	LTP202	ltpFR	12	n/a	n/a	n/a	n/a	n/a	n/a	n/a	13	3	2	8	n/a	n/a	n/a	n/a	n/a
2154.802	n/a	PROB	1077401	n/a	LTP202	ltpFR	12	n/a	n/a	n/a	n/a	n/a	n/a	n/a	11	9	1	1	n/a	n/a	n/a	n/a	n/a
2155.696	n/a	STOP	1077848	n/a	LTP202	ltpFR	12	n/a	n/a	n/a	n/a	n/a	n/a	n/a	n/a	n/a	n/a	n/a	n/a	n/a	n/a	n/a	n/a
2157.48	n/a	WORD	1078740	wordpools/wasnorm_wordpool_less_exclusions.txt	LTP202	ltpFR	12	8	1	SARDINE	1235	n/a	n/a	1	n/a	0	0	0	0.57763671875	0.412841796875	1	upper	amplitud.ttf
2160.492	n/a	START	1080246	n/a	LTP202	ltpFR	12	n/a	n/a	n/a	n/a	n/a	n/a	n/a	n/a	n/a	n/a	n/a	n/a	n/a	n/a	n/a	n/a
2161.458	n/a	PROB	1080729	n/a	LTP202	ltpFR	12	n/a	n/a	n/a	n/a	n/a	n/a	n/a	19	8	5	6	n/a	n/a	n/a	n/a	n/a
2162.79	n/a	PROB	1081395	n/a	LTP202	ltpFR	12	n/a	n/a	n/a	n/a	n/a	n/a	n/a	15	8	5	2	n/a	n/a	n/a	n/a	n/a
2164.686	n/a	PROB	1082343	n/a	LTP202	ltpFR	12	n/a	n/a	n/a	n/a	n/a	n/a	n/a	11	5	4	2	n/a	n/a	n/a	n/a	n/a
2166.018	n/a	PROB	1083009	n/a	LTP202	ltpFR	12	n/a	n/a	n/a	n/a	n/a	n/a	n/a	17	7	9	1	n/a	n/a	n/a	n/a	n/a
2169.13	n/a	PROB	1084565	n/a	LTP202	ltpFR	12	n/a	n/a	n/a	n/a	n/a	n/a	n/a	9	1	6	2	n/a	n/a	n/a	n/a	n/a
2171.744	n/a	PROB	1085872	n/a	LTP202	ltpFR	12	n/a	n/a	n/a	n/a	n/a	n/a	n/a	15	8	6	3	n/a	n/a	n/a	n/a	n/a
2172.858	n/a	PROB	1086429	n/a	LTP202	ltpFR	12	n/a	n/a	n/a	n/a	n/a	n/a	n/a	16	9	3	4	n/a	n/a	n/a	n/a	n/a
