onset	duration	trial_type	sample	stim_file	subject	experiment	session	trial	item_name	item_num	list	answer	test_x	test_y	test_z
211.7333984375	n/a	SESS_START	433630	n/a	LTP367	ltpFR2	17	n/a	n/a	n/a	n/a	n/a	0	0	0
224.47998046875	n/a	START	459735	n/a	LTP367	ltpFR2	17	n/a	n/a	n/a	-1	n/a	n/a	n/a	n/a
224.51123046875	n/a	PROB	459799	n/a	LTP367	ltpFR2	17	n/a	n/a	n/a	-1	25	9	9	7
227.826171875	n/a	PROB	466588	n/a	LTP367	ltpFR2	17	n/a	n/a	n/a	-1	21	5	7	9
229.27490234375	n/a	PROB	469555	n/a	LTP367	ltpFR2	17	n/a	n/a	n/a	-1	21	8	5	8
230.80810546875	n/a	PROB	472695	n/a	LTP367	ltpFR2	17	n/a	n/a	n/a	-1	15	9	1	5
232.3740234375	n/a	PROB	475902	n/a	LTP367	ltpFR2	17	n/a	n/a	n/a	-1	19	7	8	4
234.505859375	n/a	PROB	480268	n/a	LTP367	ltpFR2	17	n/a	n/a	n/a	-1	11	3	3	5
236.32470703125	n/a	STOP	483993	n/a	LTP367	ltpFR2	17	n/a	n/a	n/a	-1	n/a	n/a	n/a	n/a
277.61865234375	n/a	WORD	568563	wordpools/wasnorm_wordpool_576.txt	LTP367	ltpFR2	17	1	BRAKE	166	n/a	n/a	0	0	0
280.3173828125	n/a	WORD	574090	wordpools/wasnorm_wordpool_576.txt	LTP367	ltpFR2	17	1	AIRPORT	13	n/a	n/a	0	0	0
282.91650390625	n/a	WORD	579413	wordpools/wasnorm_wordpool_576.txt	LTP367	ltpFR2	17	1	CONCERT	360	n/a	n/a	0	0	0
285.54833984375	n/a	WORD	584803	wordpools/wasnorm_wordpool_576.txt	LTP367	ltpFR2	17	1	GIFT	635	n/a	n/a	0	0	0
288.13037109375	n/a	WORD	590091	wordpools/wasnorm_wordpool_576.txt	LTP367	ltpFR2	17	1	COUCH	386	n/a	n/a	0	0	0
290.8623046875	n/a	WORD	595686	wordpools/wasnorm_wordpool_576.txt	LTP367	ltpFR2	17	1	STONE	1385	n/a	n/a	0	0	0
293.56103515625	n/a	WORD	601213	wordpools/wasnorm_wordpool_576.txt	LTP367	ltpFR2	17	1	GRAVEL	659	n/a	n/a	0	0	0
296.31005859375	n/a	WORD	606843	wordpools/wasnorm_wordpool_576.txt	LTP367	ltpFR2	17	1	TOASTER	1472	n/a	n/a	0	0	0
298.7919921875	n/a	WORD	611926	wordpools/wasnorm_wordpool_576.txt	LTP367	ltpFR2	17	1	CIGAR	308	n/a	n/a	0	0	0
301.4912109375	n/a	WORD	617454	wordpools/wasnorm_wordpool_576.txt	LTP367	ltpFR2	17	1	ROBIN	1199	n/a	n/a	0	0	0
304.23974609375	n/a	WORD	623083	wordpools/wasnorm_wordpool_576.txt	LTP367	ltpFR2	17	1	SEAL	1262	n/a	n/a	0	0	0
306.837890625	n/a	WORD	628404	wordpools/wasnorm_wordpool_576.txt	LTP367	ltpFR2	17	1	FEMALE	559	n/a	n/a	0	0	0
309.419921875	n/a	WORD	633692	wordpools/wasnorm_wordpool_576.txt	LTP367	ltpFR2	17	1	COCKTAIL	338	n/a	n/a	0	0	0
312.185546875	n/a	WORD	639356	wordpools/wasnorm_wordpool_576.txt	LTP367	ltpFR2	17	1	BOX	159	n/a	n/a	0	0	0
314.83447265625	n/a	WORD	644781	wordpools/wasnorm_wordpool_576.txt	LTP367	ltpFR2	17	1	LILY	821	n/a	n/a	0	0	0
317.2666015625	n/a	WORD	649762	wordpools/wasnorm_wordpool_576.txt	LTP367	ltpFR2	17	1	DIME	466	n/a	n/a	0	0	0
320.03173828125	n/a	WORD	655425	wordpools/wasnorm_wordpool_576.txt	LTP367	ltpFR2	17	1	OMELET	976	n/a	n/a	0	0	0
322.7802734375	n/a	WORD	661054	wordpools/wasnorm_wordpool_576.txt	LTP367	ltpFR2	17	1	PILOT	1070	n/a	n/a	0	0	0
325.26220703125	n/a	WORD	666137	wordpools/wasnorm_wordpool_576.txt	LTP367	ltpFR2	17	1	PLAYGROUND	1087	n/a	n/a	0	0	0
327.87841796875	n/a	WORD	671495	wordpools/wasnorm_wordpool_576.txt	LTP367	ltpFR2	17	1	SLIDE	1326	n/a	n/a	0	0	0
330.54345703125	n/a	WORD	676953	wordpools/wasnorm_wordpool_576.txt	LTP367	ltpFR2	17	1	SCARF	1246	n/a	n/a	0	0	0
333.34228515625	n/a	WORD	682685	wordpools/wasnorm_wordpool_576.txt	LTP367	ltpFR2	17	1	LOFT	840	n/a	n/a	0	0	0
335.791015625	n/a	WORD	687700	wordpools/wasnorm_wordpool_576.txt	LTP367	ltpFR2	17	1	THIEF	1456	n/a	n/a	0	0	0
338.4228515625	n/a	WORD	693090	wordpools/wasnorm_wordpool_576.txt	LTP367	ltpFR2	17	1	ROBBER	1197	n/a	n/a	0	0	0
340.0390625	n/a	START	696400	n/a	LTP367	ltpFR2	17	n/a	n/a	n/a	1	n/a	n/a	n/a	n/a
340.86376953125	n/a	DISTRACTOR	698089	n/a	LTP367	ltpFR2	17	1	n/a	n/a	n/a	n/a	0	0	0
340.8720703125	n/a	PROB	698106	n/a	LTP367	ltpFR2	17	n/a	n/a	n/a	1	21	9	8	4
342.77099609375	n/a	PROB	701995	n/a	LTP367	ltpFR2	17	n/a	n/a	n/a	1	10	2	5	3
345.169921875	n/a	PROB	706908	n/a	LTP367	ltpFR2	17	n/a	n/a	n/a	1	9	2	1	6
346.2529296875	n/a	PROB	709126	n/a	LTP367	ltpFR2	17	n/a	n/a	n/a	1	15	9	5	1
347.65185546875	n/a	PROB	711991	n/a	LTP367	ltpFR2	17	n/a	n/a	n/a	1	7	2	2	3
349.3017578125	n/a	PROB	715370	n/a	LTP367	ltpFR2	17	n/a	n/a	n/a	1	18	3	9	6
351.18359375	n/a	PROB	719224	n/a	LTP367	ltpFR2	17	n/a	n/a	n/a	1	14	2	3	9
352.6826171875	n/a	PROB	722294	n/a	LTP367	ltpFR2	17	n/a	n/a	n/a	1	10	1	1	8
353.94873046875	n/a	PROB	724887	n/a	LTP367	ltpFR2	17	n/a	n/a	n/a	1	12	3	5	4
355.46435546875	n/a	PROB	727991	n/a	LTP367	ltpFR2	17	n/a	n/a	n/a	1	16	6	9	1
357.1806640625	n/a	PROB	731506	n/a	LTP367	ltpFR2	17	n/a	n/a	n/a	1	21	3	9	9
358.4306640625	n/a	PROB	734066	n/a	LTP367	ltpFR2	17	n/a	n/a	n/a	1	18	9	2	7
359.8623046875	n/a	PROB	736998	n/a	LTP367	ltpFR2	17	n/a	n/a	n/a	1	16	6	7	3
361.1123046875	n/a	PROB	739558	n/a	LTP367	ltpFR2	17	n/a	n/a	n/a	1	15	5	2	8
362.18017578125	n/a	PROB	741745	n/a	LTP367	ltpFR2	17	n/a	n/a	n/a	1	12	9	1	2
363.2294921875	n/a	STOP	743894	n/a	LTP367	ltpFR2	17	n/a	n/a	n/a	1	n/a	n/a	n/a	n/a
365.87744140625	n/a	REC_START	749317	n/a	LTP367	ltpFR2	17	1	n/a	n/a	n/a	n/a	0	0	0
368.21728515625	n/a	REC_WORD	754109	wordpools/wasnorm_wordpool_576.txt	LTP367	ltpFR2	17	1	BRAKE	166	n/a	n/a	0	0	0
369.3701171875	n/a	REC_WORD	756470	wordpools/wasnorm_wordpool_576.txt	LTP367	ltpFR2	17	1	AIRPORT	13	n/a	n/a	0	0	0
371.779296875	n/a	REC_WORD	761404	wordpools/wasnorm_wordpool_576.txt	LTP367	ltpFR2	17	1	GRAVEL	659	n/a	n/a	0	0	0
373.39208984375	n/a	REC_WORD	764707	wordpools/wasnorm_wordpool_576.txt	LTP367	ltpFR2	17	1	GIFT	635	n/a	n/a	0	0	0
374.8408203125	n/a	REC_WORD	767674	wordpools/wasnorm_wordpool_576.txt	LTP367	ltpFR2	17	1	COUCH	386	n/a	n/a	0	0	0
375.955078125	n/a	REC_WORD	769956	wordpools/wasnorm_wordpool_576.txt	LTP367	ltpFR2	17	1	STONE	1385	n/a	n/a	0	0	0
379.90185546875	n/a	REC_WORD	778039	wordpools/wasnorm_wordpool_576.txt	LTP367	ltpFR2	17	1	ROBIN	1199	n/a	n/a	0	0	0
381.23974609375	n/a	REC_WORD	780779	wordpools/wasnorm_wordpool_576.txt	LTP367	ltpFR2	17	1	FEMALE	559	n/a	n/a	0	0	0
382.02197265625	n/a	REC_WORD	782381	wordpools/wasnorm_wordpool_576.txt	LTP367	ltpFR2	17	1	SEAL	1262	n/a	n/a	0	0	0
383.03759765625	n/a	REC_WORD	784461	wordpools/wasnorm_wordpool_576.txt	LTP367	ltpFR2	17	1	CIGAR	308	n/a	n/a	0	0	0
385.17578125	n/a	REC_WORD	788840	wordpools/wasnorm_wordpool_576.txt	LTP367	ltpFR2	17	1	BOX	159	n/a	n/a	0	0	0
386.82275390625	n/a	REC_WORD	792213	wordpools/wasnorm_wordpool_576.txt	LTP367	ltpFR2	17	1	COCKTAIL	338	n/a	n/a	0	0	0
389.07275390625	n/a	REC_WORD	796821	wordpools/wasnorm_wordpool_576.txt	LTP367	ltpFR2	17	1	CONCERT	360	n/a	n/a	0	0	0
391.37451171875	n/a	REC_WORD	801535	wordpools/wasnorm_wordpool_576.txt	LTP367	ltpFR2	17	1	PILOT	1070	n/a	n/a	0	0	0
392.48046875	n/a	REC_WORD	803800	wordpools/wasnorm_wordpool_576.txt	LTP367	ltpFR2	17	1	SLIDE	1326	n/a	n/a	0	0	0
393.85546875	n/a	REC_WORD	806616	wordpools/wasnorm_wordpool_576.txt	LTP367	ltpFR2	17	1	PLAYGROUND	1087	n/a	n/a	0	0	0
395.28466796875	n/a	REC_WORD	809543	wordpools/wasnorm_wordpool_576.txt	LTP367	ltpFR2	17	1	LOFT	840	n/a	n/a	0	0	0
397.0693359375	n/a	REC_WORD	813198	wordpools/wasnorm_wordpool_576.txt	LTP367	ltpFR2	17	1	SCARF	1246	n/a	n/a	0	0	0
398.7392578125	n/a	REC_WORD	816618	wordpools/wasnorm_wordpool_576.txt	LTP367	ltpFR2	17	1	THIEF	1456	n/a	n/a	0	0	0
400.00048828125	n/a	REC_WORD	819201	wordpools/wasnorm_wordpool_576.txt	LTP367	ltpFR2	17	1	ROBBER	1197	n/a	n/a	0	0	0
401.1455078125	n/a	REC_WORD	821546	wordpools/wasnorm_wordpool_576.txt	LTP367	ltpFR2	17	1	OMELET	976	n/a	n/a	0	0	0
402.34423828125	n/a	REC_WORD	824001	wordpools/wasnorm_wordpool_576.txt	LTP367	ltpFR2	17	1	DIME	466	n/a	n/a	0	0	0
456.2998046875	n/a	DISTRACTOR	934502	n/a	LTP367	ltpFR2	17	2	n/a	n/a	n/a	n/a	0	0	0
456.2998046875	n/a	START	934502	n/a	LTP367	ltpFR2	17	n/a	n/a	n/a	2	n/a	n/a	n/a	n/a
456.31689453125	n/a	PROB	934537	n/a	LTP367	ltpFR2	17	n/a	n/a	n/a	2	21	5	8	9
458.5986328125	n/a	PROB	939210	n/a	LTP367	ltpFR2	17	n/a	n/a	n/a	2	15	2	7	6
460.0986328125	n/a	PROB	942282	n/a	LTP367	ltpFR2	17	n/a	n/a	n/a	2	15	6	7	2
461.58056640625	n/a	PROB	945317	n/a	LTP367	ltpFR2	17	n/a	n/a	n/a	2	11	6	2	3
463.4296875	n/a	PROB	949104	n/a	LTP367	ltpFR2	17	n/a	n/a	n/a	2	7	4	2	1
464.9296875	n/a	PROB	952176	n/a	LTP367	ltpFR2	17	n/a	n/a	n/a	2	19	8	4	7
466.4287109375	n/a	PROB	955246	n/a	LTP367	ltpFR2	17	n/a	n/a	n/a	2	18	2	8	8
467.51171875	n/a	PROB	957464	n/a	LTP367	ltpFR2	17	n/a	n/a	n/a	2	22	9	7	6
469.01025390625	n/a	PROB	960533	n/a	LTP367	ltpFR2	17	n/a	n/a	n/a	2	18	9	5	4
470.50927734375	n/a	PROB	963603	n/a	LTP367	ltpFR2	17	n/a	n/a	n/a	2	8	4	1	3
471.9423828125	n/a	PROB	966538	n/a	LTP367	ltpFR2	17	n/a	n/a	n/a	2	13	6	4	3
472.9921875	n/a	PROB	968688	n/a	LTP367	ltpFR2	17	n/a	n/a	n/a	2	7	1	5	1
473.9912109375	n/a	PROB	970734	n/a	LTP367	ltpFR2	17	n/a	n/a	n/a	2	12	6	2	4
475.05712890625	n/a	PROB	972917	n/a	LTP367	ltpFR2	17	n/a	n/a	n/a	2	7	3	1	3
476.32421875	n/a	PROB	975512	n/a	LTP367	ltpFR2	17	n/a	n/a	n/a	2	19	9	3	8
477.5732421875	n/a	PROB	978070	n/a	LTP367	ltpFR2	17	n/a	n/a	n/a	2	19	1	9	9
480.24609375	n/a	STOP	983544	n/a	LTP367	ltpFR2	17	n/a	n/a	n/a	2	n/a	n/a	n/a	n/a
481.205078125	n/a	WORD	985508	wordpools/wasnorm_wordpool_576.txt	LTP367	ltpFR2	17	2	BULLET	194	n/a	n/a	0	0	0
483.97021484375	n/a	WORD	991171	wordpools/wasnorm_wordpool_576.txt	LTP367	ltpFR2	17	2	ICING	732	n/a	n/a	0	0	0
486.55224609375	n/a	WORD	996459	wordpools/wasnorm_wordpool_576.txt	LTP367	ltpFR2	17	2	SHORTCAKE	1292	n/a	n/a	0	0	0
489.31787109375	n/a	WORD	1002123	wordpools/wasnorm_wordpool_576.txt	LTP367	ltpFR2	17	2	BRACES	164	n/a	n/a	0	0	0
491.78271484375	n/a	WORD	1007171	wordpools/wasnorm_wordpool_576.txt	LTP367	ltpFR2	17	2	GRILL	661	n/a	n/a	0	0	0
494.21484375	n/a	WORD	1012152	wordpools/wasnorm_wordpool_576.txt	LTP367	ltpFR2	17	2	SWIMMER	1420	n/a	n/a	0	0	0
496.73095703125	n/a	WORD	1017305	wordpools/wasnorm_wordpool_576.txt	LTP367	ltpFR2	17	2	OUTLAW	989	n/a	n/a	0	0	0
499.2958984375	n/a	WORD	1022558	wordpools/wasnorm_wordpool_576.txt	LTP367	ltpFR2	17	2	PATROL	1027	n/a	n/a	0	0	0
501.94482421875	n/a	WORD	1027983	wordpools/wasnorm_wordpool_576.txt	LTP367	ltpFR2	17	2	HAND	683	n/a	n/a	0	0	0
504.5107421875	n/a	WORD	1033238	wordpools/wasnorm_wordpool_576.txt	LTP367	ltpFR2	17	2	CONTRACT	368	n/a	n/a	0	0	0
507.142578125	n/a	WORD	1038628	wordpools/wasnorm_wordpool_576.txt	LTP367	ltpFR2	17	2	SHRUB	1299	n/a	n/a	0	0	0
509.9072265625	n/a	WORD	1044290	wordpools/wasnorm_wordpool_576.txt	LTP367	ltpFR2	17	2	COUNTRY	388	n/a	n/a	0	0	0
512.47314453125	n/a	WORD	1049545	wordpools/wasnorm_wordpool_576.txt	LTP367	ltpFR2	17	2	JAPAN	749	n/a	n/a	0	0	0
514.9052734375	n/a	WORD	1054526	wordpools/wasnorm_wordpool_576.txt	LTP367	ltpFR2	17	2	ULCER	1533	n/a	n/a	0	0	0
517.35400390625	n/a	WORD	1059541	wordpools/wasnorm_wordpool_576.txt	LTP367	ltpFR2	17	2	COLONEL	348	n/a	n/a	0	0	0
520.05322265625	n/a	WORD	1065069	wordpools/wasnorm_wordpool_576.txt	LTP367	ltpFR2	17	2	FLEET	578	n/a	n/a	0	0	0
522.73486328125	n/a	WORD	1070561	wordpools/wasnorm_wordpool_576.txt	LTP367	ltpFR2	17	2	MATTRESS	879	n/a	n/a	0	0	0
525.1669921875	n/a	WORD	1075542	wordpools/wasnorm_wordpool_576.txt	LTP367	ltpFR2	17	2	POSSUM	1112	n/a	n/a	0	0	0
527.8828125	n/a	WORD	1081104	wordpools/wasnorm_wordpool_576.txt	LTP367	ltpFR2	17	2	SPONGE	1355	n/a	n/a	0	0	0
530.498046875	n/a	WORD	1086460	wordpools/wasnorm_wordpool_576.txt	LTP367	ltpFR2	17	2	ORANGE	980	n/a	n/a	0	0	0
533.24658203125	n/a	WORD	1092089	wordpools/wasnorm_wordpool_576.txt	LTP367	ltpFR2	17	2	CHAMPAGNE	278	n/a	n/a	0	0	0
535.76171875	n/a	WORD	1097240	wordpools/wasnorm_wordpool_576.txt	LTP367	ltpFR2	17	2	PADDLE	1000	n/a	n/a	0	0	0
538.27783203125	n/a	WORD	1102393	wordpools/wasnorm_wordpool_576.txt	LTP367	ltpFR2	17	2	GREASE	660	n/a	n/a	0	0	0
540.7763671875	n/a	WORD	1107510	wordpools/wasnorm_wordpool_576.txt	LTP367	ltpFR2	17	2	EUROPE	541	n/a	n/a	0	0	0
542.392578125	n/a	START	1110820	n/a	LTP367	ltpFR2	17	n/a	n/a	n/a	3	n/a	n/a	n/a	n/a
543.20263671875	n/a	DISTRACTOR	1112479	n/a	LTP367	ltpFR2	17	2	n/a	n/a	n/a	n/a	0	0	0
543.20849609375	n/a	PROB	1112491	n/a	LTP367	ltpFR2	17	n/a	n/a	n/a	3	10	6	3	1
544.62451171875	n/a	PROB	1115391	n/a	LTP367	ltpFR2	17	n/a	n/a	n/a	3	10	1	6	3
546.12353515625	n/a	PROB	1118461	n/a	LTP367	ltpFR2	17	n/a	n/a	n/a	3	9	3	5	1
547.53955078125	n/a	PROB	1121361	n/a	LTP367	ltpFR2	17	n/a	n/a	n/a	3	11	9	1	1
548.70654296875	n/a	PROB	1123751	n/a	LTP367	ltpFR2	17	n/a	n/a	n/a	3	19	5	9	5
549.9052734375	n/a	PROB	1126206	n/a	LTP367	ltpFR2	17	n/a	n/a	n/a	3	15	3	6	6
551.787109375	n/a	PROB	1130060	n/a	LTP367	ltpFR2	17	n/a	n/a	n/a	3	8	4	3	1
553.10400390625	n/a	PROB	1132757	n/a	LTP367	ltpFR2	17	n/a	n/a	n/a	3	16	6	9	1
554.60302734375	n/a	PROB	1135827	n/a	LTP367	ltpFR2	17	n/a	n/a	n/a	3	10	1	2	7
555.8359375	n/a	PROB	1138352	n/a	LTP367	ltpFR2	17	n/a	n/a	n/a	3	17	5	7	5
557.1181640625	n/a	PROB	1140978	n/a	LTP367	ltpFR2	17	n/a	n/a	n/a	3	12	1	7	4
558.451171875	n/a	PROB	1143708	n/a	LTP367	ltpFR2	17	n/a	n/a	n/a	3	16	6	6	4
559.5341796875	n/a	PROB	1145926	n/a	LTP367	ltpFR2	17	n/a	n/a	n/a	3	14	3	9	2
560.8671875	n/a	PROB	1148656	n/a	LTP367	ltpFR2	17	n/a	n/a	n/a	3	10	7	1	2
561.9990234375	n/a	PROB	1150974	n/a	LTP367	ltpFR2	17	n/a	n/a	n/a	3	3	1	1	1
562.89892578125	n/a	PROB	1152817	n/a	LTP367	ltpFR2	17	n/a	n/a	n/a	3	12	5	5	2
566.39208984375	n/a	STOP	1159971	n/a	LTP367	ltpFR2	17	n/a	n/a	n/a	3	n/a	n/a	n/a	n/a
568.28076171875	n/a	REC_START	1163839	n/a	LTP367	ltpFR2	17	2	n/a	n/a	n/a	n/a	0	0	0
572.48779296875	n/a	REC_WORD	1172455	wordpools/wasnorm_wordpool_576.txt	LTP367	ltpFR2	17	2	BULLET	194	n/a	n/a	0	0	0
573.5107421875	n/a	REC_WORD	1174550	wordpools/wasnorm_wordpool_576.txt	LTP367	ltpFR2	17	2	ICING	732	n/a	n/a	0	0	0
574.9736328125	n/a	REC_WORD	1177546	wordpools/wasnorm_wordpool_576.txt	LTP367	ltpFR2	17	2	SHORTCAKE	1292	n/a	n/a	0	0	0
576.95751953125	n/a	REC_WORD	1181609	wordpools/wasnorm_wordpool_576.txt	LTP367	ltpFR2	17	2	GRILL	661	n/a	n/a	0	0	0
578.66162109375	n/a	REC_WORD	1185099	wordpools/wasnorm_wordpool_576.txt	LTP367	ltpFR2	17	2	BRACES	164	n/a	n/a	0	0	0
579.87158203125	n/a	REC_WORD	1187577	wordpools/wasnorm_wordpool_576.txt	LTP367	ltpFR2	17	2	SWIMMER	1420	n/a	n/a	0	0	0
580.9775390625	n/a	REC_WORD	1189842	wordpools/wasnorm_wordpool_576.txt	LTP367	ltpFR2	17	2	OUTLAW	989	n/a	n/a	0	0	0
582.54931640625	n/a	REC_WORD	1193061	wordpools/wasnorm_wordpool_576.txt	LTP367	ltpFR2	17	2	PATROL	1027	n/a	n/a	0	0	0
583.96923828125	n/a	REC_WORD	1195969	wordpools/wasnorm_wordpool_576.txt	LTP367	ltpFR2	17	2	HAND	683	n/a	n/a	0	0	0
585.17919921875	n/a	REC_WORD	1198447	wordpools/wasnorm_wordpool_576.txt	LTP367	ltpFR2	17	2	CONTRACT	368	n/a	n/a	0	0	0
586.2412109375	n/a	REC_WORD	1200622	wordpools/wasnorm_wordpool_576.txt	LTP367	ltpFR2	17	2	SHRUB	1299	n/a	n/a	0	0	0
587.55615234375	n/a	REC_WORD	1203315	wordpools/wasnorm_wordpool_576.txt	LTP367	ltpFR2	17	2	COUNTRY	388	n/a	n/a	0	0	0
589.283203125	n/a	REC_WORD	1206852	wordpools/wasnorm_wordpool_576.txt	LTP367	ltpFR2	17	2	JAPAN	749	n/a	n/a	0	0	0
591.1650390625	n/a	REC_WORD	1210706	wordpools/wasnorm_wordpool_576.txt	LTP367	ltpFR2	17	2	ULCER	1533	n/a	n/a	0	0	0
592.63818359375	n/a	REC_WORD	1213723	wordpools/wasnorm_wordpool_576.txt	LTP367	ltpFR2	17	2	COLONEL	348	n/a	n/a	0	0	0
594.09326171875	n/a	REC_WORD	1216703	wordpools/wasnorm_wordpool_576.txt	LTP367	ltpFR2	17	2	FLEET	578	n/a	n/a	0	0	0
595.61083984375	n/a	REC_WORD	1219811	wordpools/wasnorm_wordpool_576.txt	LTP367	ltpFR2	17	2	MATTRESS	879	n/a	n/a	0	0	0
598.35009765625	n/a	REC_WORD	1225421	wordpools/wasnorm_wordpool_576.txt	LTP367	ltpFR2	17	2	POSSUM	1112	n/a	n/a	0	0	0
601.89990234375	n/a	REC_WORD	1232691	wordpools/wasnorm_wordpool_576.txt	LTP367	ltpFR2	17	2	EUROPE	541	n/a	n/a	0	0	0
603.138671875	n/a	REC_WORD	1235228	wordpools/wasnorm_wordpool_576.txt	LTP367	ltpFR2	17	2	GREASE	660	n/a	n/a	0	0	0
604.2099609375	n/a	REC_WORD	1237422	wordpools/wasnorm_wordpool_576.txt	LTP367	ltpFR2	17	2	CHAMPAGNE	278	n/a	n/a	0	0	0
608.013671875	n/a	REC_WORD	1245212	wordpools/wasnorm_wordpool_576.txt	LTP367	ltpFR2	17	2	SPONGE	1355	n/a	n/a	0	0	0
609.37255859375	n/a	REC_WORD	1247995	wordpools/wasnorm_wordpool_576.txt	LTP367	ltpFR2	17	2	ORANGE	980	n/a	n/a	0	0	0
612.17578125	n/a	REC_WORD	1253736	wordpools/wasnorm_wordpool_576.txt	LTP367	ltpFR2	17	2	PADDLE	1000	n/a	n/a	0	0	0
658.70361328125	n/a	DISTRACTOR	1349025	n/a	LTP367	ltpFR2	17	3	n/a	n/a	n/a	n/a	0	0	0
658.70361328125	n/a	START	1349025	n/a	LTP367	ltpFR2	17	n/a	n/a	n/a	4	n/a	n/a	n/a	n/a
658.72021484375	n/a	PROB	1349059	n/a	LTP367	ltpFR2	17	n/a	n/a	n/a	4	14	6	2	6
662.10107421875	n/a	PROB	1355983	n/a	LTP367	ltpFR2	17	n/a	n/a	n/a	4	16	6	1	9
663.50146484375	n/a	PROB	1358851	n/a	LTP367	ltpFR2	17	n/a	n/a	n/a	4	21	7	8	6
665.30029296875	n/a	PROB	1362535	n/a	LTP367	ltpFR2	17	n/a	n/a	n/a	4	14	9	2	3
666.916015625	n/a	PROB	1365844	n/a	LTP367	ltpFR2	17	n/a	n/a	n/a	4	18	6	5	7
668.76513671875	n/a	PROB	1369631	n/a	LTP367	ltpFR2	17	n/a	n/a	n/a	4	11	8	2	1
669.98095703125	n/a	PROB	1372121	n/a	LTP367	ltpFR2	17	n/a	n/a	n/a	4	10	2	3	5
671.18115234375	n/a	PROB	1374579	n/a	LTP367	ltpFR2	17	n/a	n/a	n/a	4	11	6	1	4
672.296875	n/a	PROB	1376864	n/a	LTP367	ltpFR2	17	n/a	n/a	n/a	4	14	4	7	3
673.52880859375	n/a	PROB	1379387	n/a	LTP367	ltpFR2	17	n/a	n/a	n/a	4	17	7	7	3
674.8291015625	n/a	PROB	1382050	n/a	LTP367	ltpFR2	17	n/a	n/a	n/a	4	18	7	5	6
676.14501953125	n/a	PROB	1384745	n/a	LTP367	ltpFR2	17	n/a	n/a	n/a	4	3	1	1	1
677.044921875	n/a	PROB	1386588	n/a	LTP367	ltpFR2	17	n/a	n/a	n/a	4	12	2	7	3
678.16064453125	n/a	PROB	1388873	n/a	LTP367	ltpFR2	17	n/a	n/a	n/a	4	24	7	9	8
680.02685546875	n/a	PROB	1392695	n/a	LTP367	ltpFR2	17	n/a	n/a	n/a	4	12	1	8	3
681.3505859375	n/a	STOP	1395406	n/a	LTP367	ltpFR2	17	n/a	n/a	n/a	4	n/a	n/a	n/a	n/a
683.890625	n/a	WORD	1400608	wordpools/wasnorm_wordpool_576.txt	LTP367	ltpFR2	17	3	BATHTUB	100	n/a	n/a	0	0	0
686.6396484375	n/a	WORD	1406238	wordpools/wasnorm_wordpool_576.txt	LTP367	ltpFR2	17	3	SHOULDER	1294	n/a	n/a	0	0	0
689.32177734375	n/a	WORD	1411731	wordpools/wasnorm_wordpool_576.txt	LTP367	ltpFR2	17	3	RECEIPT	1173	n/a	n/a	0	0	0
691.75439453125	n/a	WORD	1416713	wordpools/wasnorm_wordpool_576.txt	LTP367	ltpFR2	17	3	DIVER	476	n/a	n/a	0	0	0
694.1865234375	n/a	WORD	1421694	wordpools/wasnorm_wordpool_576.txt	LTP367	ltpFR2	17	3	STAPLE	1371	n/a	n/a	0	0	0
696.7685546875	n/a	WORD	1426982	wordpools/wasnorm_wordpool_576.txt	LTP367	ltpFR2	17	3	EAGLE	512	n/a	n/a	0	0	0
699.46728515625	n/a	WORD	1432509	wordpools/wasnorm_wordpool_576.txt	LTP367	ltpFR2	17	3	KEEPER	769	n/a	n/a	0	0	0
702.08203125	n/a	WORD	1437864	wordpools/wasnorm_wordpool_576.txt	LTP367	ltpFR2	17	3	CASHEW	253	n/a	n/a	0	0	0
704.51416015625	n/a	WORD	1442845	wordpools/wasnorm_wordpool_576.txt	LTP367	ltpFR2	17	3	TYPIST	1532	n/a	n/a	0	0	0
707.046875	n/a	WORD	1448032	wordpools/wasnorm_wordpool_576.txt	LTP367	ltpFR2	17	3	WORKER	1621	n/a	n/a	0	0	0
709.5791015625	n/a	WORD	1453218	wordpools/wasnorm_wordpool_576.txt	LTP367	ltpFR2	17	3	FLOWER	584	n/a	n/a	0	0	0
712.328125	n/a	WORD	1458848	wordpools/wasnorm_wordpool_576.txt	LTP367	ltpFR2	17	3	GARDEN	623	n/a	n/a	0	0	0
715.10986328125	n/a	WORD	1464545	wordpools/wasnorm_wordpool_576.txt	LTP367	ltpFR2	17	3	DRAGON	492	n/a	n/a	0	0	0
717.6748046875	n/a	WORD	1469798	wordpools/wasnorm_wordpool_576.txt	LTP367	ltpFR2	17	3	LODGE	839	n/a	n/a	0	0	0
720.45654296875	n/a	WORD	1475495	wordpools/wasnorm_wordpool_576.txt	LTP367	ltpFR2	17	3	GANGSTER	620	n/a	n/a	0	0	0
723.0224609375	n/a	WORD	1480750	wordpools/wasnorm_wordpool_576.txt	LTP367	ltpFR2	17	3	PERMIT	1051	n/a	n/a	0	0	0
725.53759765625	n/a	WORD	1485901	wordpools/wasnorm_wordpool_576.txt	LTP367	ltpFR2	17	3	BUBBLE	183	n/a	n/a	0	0	0
728.28662109375	n/a	WORD	1491531	wordpools/wasnorm_wordpool_576.txt	LTP367	ltpFR2	17	3	FIDDLE	561	n/a	n/a	0	0	0
730.7685546875	n/a	WORD	1496614	wordpools/wasnorm_wordpool_576.txt	LTP367	ltpFR2	17	3	SWITCH	1422	n/a	n/a	0	0	0
733.30126953125	n/a	WORD	1501801	wordpools/wasnorm_wordpool_576.txt	LTP367	ltpFR2	17	3	CATCHER	258	n/a	n/a	0	0	0
735.8662109375	n/a	WORD	1507054	wordpools/wasnorm_wordpool_576.txt	LTP367	ltpFR2	17	3	MEAT	883	n/a	n/a	0	0	0
738.43310546875	n/a	WORD	1512311	wordpools/wasnorm_wordpool_576.txt	LTP367	ltpFR2	17	3	WRIST	1626	n/a	n/a	0	0	0
741.1142578125	n/a	WORD	1517802	wordpools/wasnorm_wordpool_576.txt	LTP367	ltpFR2	17	3	EMPIRE	530	n/a	n/a	0	0	0
743.81201171875	n/a	WORD	1523327	wordpools/wasnorm_wordpool_576.txt	LTP367	ltpFR2	17	3	OUTDOORS	987	n/a	n/a	0	0	0
745.43017578125	n/a	START	1526641	n/a	LTP367	ltpFR2	17	n/a	n/a	n/a	5	n/a	n/a	n/a	n/a
746.330078125	n/a	DISTRACTOR	1528484	n/a	LTP367	ltpFR2	17	3	n/a	n/a	n/a	n/a	0	0	0
746.34521484375	n/a	PROB	1528515	n/a	LTP367	ltpFR2	17	n/a	n/a	n/a	5	18	6	3	9
748.0771484375	n/a	PROB	1532062	n/a	LTP367	ltpFR2	17	n/a	n/a	n/a	5	12	8	2	2
749.14306640625	n/a	PROB	1534245	n/a	LTP367	ltpFR2	17	n/a	n/a	n/a	5	20	9	6	5
750.52587890625	n/a	PROB	1537077	n/a	LTP367	ltpFR2	17	n/a	n/a	n/a	5	21	4	8	9
752.125	n/a	PROB	1540352	n/a	LTP367	ltpFR2	17	n/a	n/a	n/a	5	19	9	3	7
753.35791015625	n/a	PROB	1542877	n/a	LTP367	ltpFR2	17	n/a	n/a	n/a	5	11	3	2	6
754.69091796875	n/a	PROB	1545607	n/a	LTP367	ltpFR2	17	n/a	n/a	n/a	5	14	2	6	6
756.18994140625	n/a	PROB	1548677	n/a	LTP367	ltpFR2	17	n/a	n/a	n/a	5	13	4	4	5
758.23876953125	n/a	PROB	1552873	n/a	LTP367	ltpFR2	17	n/a	n/a	n/a	5	21	9	3	9
759.87158203125	n/a	PROB	1556217	n/a	LTP367	ltpFR2	17	n/a	n/a	n/a	5	16	6	6	4
760.90478515625	n/a	PROB	1558333	n/a	LTP367	ltpFR2	17	n/a	n/a	n/a	5	21	6	7	8
763.25341796875	n/a	PROB	1563143	n/a	LTP367	ltpFR2	17	n/a	n/a	n/a	5	25	9	8	8
765.7353515625	n/a	PROB	1568226	n/a	LTP367	ltpFR2	17	n/a	n/a	n/a	5	22	5	8	9
769.42919921875	n/a	STOP	1575791	n/a	LTP367	ltpFR2	17	n/a	n/a	n/a	5	n/a	n/a	n/a	n/a
771.33349609375	n/a	REC_START	1579691	n/a	LTP367	ltpFR2	17	3	n/a	n/a	n/a	n/a	0	0	0
774.62939453125	n/a	REC_WORD	1586441	wordpools/wasnorm_wordpool_576.txt	LTP367	ltpFR2	17	3	BATHTUB	100	n/a	n/a	0	0	0
775.39013671875	n/a	REC_WORD	1587999	wordpools/wasnorm_wordpool_576.txt	LTP367	ltpFR2	17	3	SHOULDER	1294	n/a	n/a	0	0	0
776.20703125	n/a	REC_WORD	1589672	wordpools/wasnorm_wordpool_576.txt	LTP367	ltpFR2	17	3	RECEIPT	1173	n/a	n/a	0	0	0
777.38134765625	n/a	REC_WORD	1592077	wordpools/wasnorm_wordpool_576.txt	LTP367	ltpFR2	17	3	DIVER	476	n/a	n/a	0	0	0
778.126953125	n/a	REC_WORD	1593604	wordpools/wasnorm_wordpool_576.txt	LTP367	ltpFR2	17	3	STAPLE	1371	n/a	n/a	0	0	0
779.3193359375	n/a	REC_WORD	1596046	wordpools/wasnorm_wordpool_576.txt	LTP367	ltpFR2	17	3	EAGLE	512	n/a	n/a	0	0	0
780.25830078125	n/a	REC_WORD	1597969	wordpools/wasnorm_wordpool_576.txt	LTP367	ltpFR2	17	3	KEEPER	769	n/a	n/a	0	0	0
781.20703125	n/a	REC_WORD	1599912	wordpools/wasnorm_wordpool_576.txt	LTP367	ltpFR2	17	3	CASHEW	253	n/a	n/a	0	0	0
782.18603515625	n/a	REC_WORD	1601917	wordpools/wasnorm_wordpool_576.txt	LTP367	ltpFR2	17	3	TYPIST	1532	n/a	n/a	0	0	0
783.18212890625	n/a	REC_WORD	1603957	wordpools/wasnorm_wordpool_576.txt	LTP367	ltpFR2	17	3	WORKER	1621	n/a	n/a	0	0	0
784.033203125	n/a	REC_WORD	1605700	wordpools/wasnorm_wordpool_576.txt	LTP367	ltpFR2	17	3	FLOWER	584	n/a	n/a	0	0	0
785.19189453125	n/a	REC_WORD	1608073	wordpools/wasnorm_wordpool_576.txt	LTP367	ltpFR2	17	3	GARDEN	623	n/a	n/a	0	0	0
787.27880859375	n/a	REC_WORD	1612347	wordpools/wasnorm_wordpool_576.txt	LTP367	ltpFR2	17	3	DRAGON	492	n/a	n/a	0	0	0
792.53369140625	n/a	REC_WORD	1623109	wordpools/wasnorm_wordpool_576.txt	LTP367	ltpFR2	17	3	LODGE	839	n/a	n/a	0	0	0
793.40673828125	n/a	REC_WORD	1624897	wordpools/wasnorm_wordpool_576.txt	LTP367	ltpFR2	17	3	GANGSTER	620	n/a	n/a	0	0	0
794.28955078125	n/a	REC_WORD	1626705	wordpools/wasnorm_wordpool_576.txt	LTP367	ltpFR2	17	3	PERMIT	1051	n/a	n/a	0	0	0
795.64453125	n/a	REC_WORD	1629480	wordpools/wasnorm_wordpool_576.txt	LTP367	ltpFR2	17	3	BUBBLE	183	n/a	n/a	0	0	0
796.2265625	n/a	REC_WORD	1630672	wordpools/wasnorm_wordpool_576.txt	LTP367	ltpFR2	17	3	FIDDLE	561	n/a	n/a	0	0	0
800.9384765625	n/a	REC_WORD	1640322	wordpools/wasnorm_wordpool_576.txt	LTP367	ltpFR2	17	3	SWITCH	1422	n/a	n/a	0	0	0
803.17431640625	n/a	REC_WORD	1644901	wordpools/wasnorm_wordpool_576.txt	LTP367	ltpFR2	17	3	CATCHER	258	n/a	n/a	0	0	0
804.19140625	n/a	REC_WORD	1646984	wordpools/wasnorm_wordpool_576.txt	LTP367	ltpFR2	17	3	MEAT	883	n/a	n/a	0	0	0
805.8125	n/a	REC_WORD	1650304	wordpools/wasnorm_wordpool_576.txt	LTP367	ltpFR2	17	3	WRIST	1626	n/a	n/a	0	0	0
807.021484375	n/a	REC_WORD	1652780	wordpools/wasnorm_wordpool_576.txt	LTP367	ltpFR2	17	3	EMPIRE	530	n/a	n/a	0	0	0
807.87548828125	n/a	REC_WORD	1654529	wordpools/wasnorm_wordpool_576.txt	LTP367	ltpFR2	17	3	OUTDOORS	987	n/a	n/a	0	0	0
861.755859375	n/a	DISTRACTOR	1764876	n/a	LTP367	ltpFR2	17	4	n/a	n/a	n/a	n/a	0	0	0
861.755859375	n/a	START	1764876	n/a	LTP367	ltpFR2	17	n/a	n/a	n/a	6	n/a	n/a	n/a	n/a
861.77294921875	n/a	PROB	1764911	n/a	LTP367	ltpFR2	17	n/a	n/a	n/a	6	18	7	6	5
863.52197265625	n/a	PROB	1768493	n/a	LTP367	ltpFR2	17	n/a	n/a	n/a	6	14	1	7	6
865.10498046875	n/a	PROB	1771735	n/a	LTP367	ltpFR2	17	n/a	n/a	n/a	6	15	6	1	8
867.20361328125	n/a	PROB	1776033	n/a	LTP367	ltpFR2	17	n/a	n/a	n/a	6	9	1	1	7
868.3359375	n/a	PROB	1778352	n/a	LTP367	ltpFR2	17	n/a	n/a	n/a	6	11	5	5	1
869.5029296875	n/a	PROB	1780742	n/a	LTP367	ltpFR2	17	n/a	n/a	n/a	6	23	8	6	9
871.3017578125	n/a	PROB	1784426	n/a	LTP367	ltpFR2	17	n/a	n/a	n/a	6	17	3	8	6
873.83349609375	n/a	PROB	1789611	n/a	LTP367	ltpFR2	17	n/a	n/a	n/a	6	8	3	4	1
875.349609375	n/a	PROB	1792716	n/a	LTP367	ltpFR2	17	n/a	n/a	n/a	6	12	4	2	6
876.86572265625	n/a	PROB	1795821	n/a	LTP367	ltpFR2	17	n/a	n/a	n/a	6	12	1	3	8
877.931640625	n/a	PROB	1798004	n/a	LTP367	ltpFR2	17	n/a	n/a	n/a	6	11	6	1	4
878.99755859375	n/a	PROB	1800187	n/a	LTP367	ltpFR2	17	n/a	n/a	n/a	6	19	7	7	5
880.8134765625	n/a	PROB	1803906	n/a	LTP367	ltpFR2	17	n/a	n/a	n/a	6	17	4	8	5
882.79638671875	n/a	PROB	1807967	n/a	LTP367	ltpFR2	17	n/a	n/a	n/a	6	21	3	9	9
884.21533203125	n/a	STOP	1810873	n/a	LTP367	ltpFR2	17	n/a	n/a	n/a	6	n/a	n/a	n/a	n/a
886.92724609375	n/a	WORD	1816427	wordpools/wasnorm_wordpool_576.txt	LTP367	ltpFR2	17	4	FRIAR	605	n/a	n/a	0	0	0
889.7431640625	n/a	WORD	1822194	wordpools/wasnorm_wordpool_576.txt	LTP367	ltpFR2	17	4	WHISKERS	1605	n/a	n/a	0	0	0
892.4912109375	n/a	WORD	1827822	wordpools/wasnorm_wordpool_576.txt	LTP367	ltpFR2	17	4	BLADE	134	n/a	n/a	0	0	0
895.1572265625	n/a	WORD	1833282	wordpools/wasnorm_wordpool_576.txt	LTP367	ltpFR2	17	4	LONDON	843	n/a	n/a	0	0	0
897.73876953125	n/a	WORD	1838569	wordpools/wasnorm_wordpool_576.txt	LTP367	ltpFR2	17	4	FRANCE	601	n/a	n/a	0	0	0
900.50390625	n/a	WORD	1844232	wordpools/wasnorm_wordpool_576.txt	LTP367	ltpFR2	17	4	HOUND	724	n/a	n/a	0	0	0
902.95263671875	n/a	WORD	1849247	wordpools/wasnorm_wordpool_576.txt	LTP367	ltpFR2	17	4	GIRL	637	n/a	n/a	0	0	0
905.40185546875	n/a	WORD	1854263	wordpools/wasnorm_wordpool_576.txt	LTP367	ltpFR2	17	4	BUTCHER	203	n/a	n/a	0	0	0
908.15087890625	n/a	WORD	1859893	wordpools/wasnorm_wordpool_576.txt	LTP367	ltpFR2	17	4	BALLOON	75	n/a	n/a	0	0	0
910.8154296875	n/a	WORD	1865350	wordpools/wasnorm_wordpool_576.txt	LTP367	ltpFR2	17	4	HUMAN	726	n/a	n/a	0	0	0
913.314453125	n/a	WORD	1870468	wordpools/wasnorm_wordpool_576.txt	LTP367	ltpFR2	17	4	LAPEL	800	n/a	n/a	0	0	0
915.79638671875	n/a	WORD	1875551	wordpools/wasnorm_wordpool_576.txt	LTP367	ltpFR2	17	4	PICNIC	1060	n/a	n/a	0	0	0
918.41259765625	n/a	WORD	1880909	wordpools/wasnorm_wordpool_576.txt	LTP367	ltpFR2	17	4	FOREST	593	n/a	n/a	0	0	0
920.9443359375	n/a	WORD	1886094	wordpools/wasnorm_wordpool_576.txt	LTP367	ltpFR2	17	4	LIZARD	834	n/a	n/a	0	0	0
923.42724609375	n/a	WORD	1891179	wordpools/wasnorm_wordpool_576.txt	LTP367	ltpFR2	17	4	FLESH	579	n/a	n/a	0	0	0
925.9091796875	n/a	WORD	1896262	wordpools/wasnorm_wordpool_576.txt	LTP367	ltpFR2	17	4	TWEEZERS	1526	n/a	n/a	0	0	0
928.50732421875	n/a	WORD	1901583	wordpools/wasnorm_wordpool_576.txt	LTP367	ltpFR2	17	4	PREACHER	1119	n/a	n/a	0	0	0
931.05615234375	n/a	WORD	1906803	wordpools/wasnorm_wordpool_576.txt	LTP367	ltpFR2	17	4	COOK	372	n/a	n/a	0	0	0
933.6220703125	n/a	WORD	1912058	wordpools/wasnorm_wordpool_576.txt	LTP367	ltpFR2	17	4	CRAB	397	n/a	n/a	0	0	0
936.0869140625	n/a	WORD	1917106	wordpools/wasnorm_wordpool_576.txt	LTP367	ltpFR2	17	4	NOMAD	955	n/a	n/a	0	0	0
938.70263671875	n/a	WORD	1922463	wordpools/wasnorm_wordpool_576.txt	LTP367	ltpFR2	17	4	LIVER	833	n/a	n/a	0	0	0
941.28466796875	n/a	WORD	1927751	wordpools/wasnorm_wordpool_576.txt	LTP367	ltpFR2	17	4	TROMBONE	1508	n/a	n/a	0	0	0
944.03369140625	n/a	WORD	1933381	wordpools/wasnorm_wordpool_576.txt	LTP367	ltpFR2	17	4	RECORD	1176	n/a	n/a	0	0	0
946.6318359375	n/a	WORD	1938702	wordpools/wasnorm_wordpool_576.txt	LTP367	ltpFR2	17	4	BUG	187	n/a	n/a	0	0	0
948.24853515625	n/a	START	1942013	n/a	LTP367	ltpFR2	17	n/a	n/a	n/a	7	n/a	n/a	n/a	n/a
949.3046875	n/a	DISTRACTOR	1944176	n/a	LTP367	ltpFR2	17	4	n/a	n/a	n/a	n/a	0	0	0
949.314453125	n/a	PROB	1944196	n/a	LTP367	ltpFR2	17	n/a	n/a	n/a	7	14	3	2	9
950.88037109375	n/a	PROB	1947403	n/a	LTP367	ltpFR2	17	n/a	n/a	n/a	7	21	6	7	8
953.21240234375	n/a	PROB	1952179	n/a	LTP367	ltpFR2	17	n/a	n/a	n/a	7	9	3	2	4
956.64453125	n/a	PROB	1959208	n/a	LTP367	ltpFR2	17	n/a	n/a	n/a	7	17	6	8	3
960.9921875	n/a	PROB	1968112	n/a	LTP367	ltpFR2	17	n/a	n/a	n/a	7	8	5	2	1
962.30810546875	n/a	PROB	1970807	n/a	LTP367	ltpFR2	17	n/a	n/a	n/a	7	13	1	6	6
963.67431640625	n/a	PROB	1973605	n/a	LTP367	ltpFR2	17	n/a	n/a	n/a	7	13	5	1	7
965.8232421875	n/a	PROB	1978006	n/a	LTP367	ltpFR2	17	n/a	n/a	n/a	7	15	6	4	5
966.7890625	n/a	PROB	1979984	n/a	LTP367	ltpFR2	17	n/a	n/a	n/a	7	19	9	5	5
968.0390625	n/a	PROB	1982544	n/a	LTP367	ltpFR2	17	n/a	n/a	n/a	7	20	7	9	4
969.87109375	n/a	PROB	1986296	n/a	LTP367	ltpFR2	17	n/a	n/a	n/a	7	15	7	1	7
971.0400390625	n/a	STOP	1988690	n/a	LTP367	ltpFR2	17	n/a	n/a	n/a	7	n/a	n/a	n/a	n/a
974.03564453125	n/a	REC_START	1994825	n/a	LTP367	ltpFR2	17	4	n/a	n/a	n/a	n/a	0	0	0
976.06005859375	n/a	REC_WORD	1998971	wordpools/wasnorm_wordpool_576.txt	LTP367	ltpFR2	17	4	FRIAR	605	n/a	n/a	0	0	0
977.12158203125	n/a	REC_WORD	2001145	wordpools/wasnorm_wordpool_576.txt	LTP367	ltpFR2	17	4	WHISKERS	1605	n/a	n/a	0	0	0
978.171875	n/a	REC_WORD	2003296	wordpools/wasnorm_wordpool_576.txt	LTP367	ltpFR2	17	4	BLADE	134	n/a	n/a	0	0	0
979.0888671875	n/a	REC_WORD	2005174	wordpools/wasnorm_wordpool_576.txt	LTP367	ltpFR2	17	4	LONDON	843	n/a	n/a	0	0	0
980.087890625	n/a	REC_WORD	2007220	wordpools/wasnorm_wordpool_576.txt	LTP367	ltpFR2	17	4	HOUND	724	n/a	n/a	0	0	0
981.0947265625	n/a	REC_WORD	2009282	wordpools/wasnorm_wordpool_576.txt	LTP367	ltpFR2	17	4	FRANCE	601	n/a	n/a	0	0	0
982.23046875	n/a	REC_WORD	2011608	wordpools/wasnorm_wordpool_576.txt	LTP367	ltpFR2	17	4	BUTCHER	203	n/a	n/a	0	0	0
983.18359375	n/a	REC_WORD	2013560	wordpools/wasnorm_wordpool_576.txt	LTP367	ltpFR2	17	4	GIRL	637	n/a	n/a	0	0	0
984.07763671875	n/a	REC_WORD	2015391	wordpools/wasnorm_wordpool_576.txt	LTP367	ltpFR2	17	4	BALLOON	75	n/a	n/a	0	0	0
985.17578125	n/a	REC_WORD	2017640	wordpools/wasnorm_wordpool_576.txt	LTP367	ltpFR2	17	4	HUMAN	726	n/a	n/a	0	0	0
986.443359375	n/a	REC_WORD	2020236	wordpools/wasnorm_wordpool_576.txt	LTP367	ltpFR2	17	4	PICNIC	1060	n/a	n/a	0	0	0
987.42138671875	n/a	REC_WORD	2022239	wordpools/wasnorm_wordpool_576.txt	LTP367	ltpFR2	17	4	FOREST	593	n/a	n/a	0	0	0
989.1513671875	n/a	REC_WORD	2025782	wordpools/wasnorm_wordpool_576.txt	LTP367	ltpFR2	17	4	LIZARD	834	n/a	n/a	0	0	0
990.16455078125	n/a	REC_WORD	2027857	wordpools/wasnorm_wordpool_576.txt	LTP367	ltpFR2	17	4	FLESH	579	n/a	n/a	0	0	0
991.39453125	n/a	REC_WORD	2030376	wordpools/wasnorm_wordpool_576.txt	LTP367	ltpFR2	17	4	TWEEZERS	1526	n/a	n/a	0	0	0
994.21240234375	n/a	REC_WORD	2036147	wordpools/wasnorm_wordpool_576.txt	LTP367	ltpFR2	17	4	PREACHER	1119	n/a	n/a	0	0	0
996.0703125	n/a	REC_WORD	2039952	wordpools/wasnorm_wordpool_576.txt	LTP367	ltpFR2	17	4	COOK	372	n/a	n/a	0	0	0
997.05908203125	n/a	REC_WORD	2041977	wordpools/wasnorm_wordpool_576.txt	LTP367	ltpFR2	17	4	CRAB	397	n/a	n/a	0	0	0
998.3310546875	n/a	REC_WORD	2044582	wordpools/wasnorm_wordpool_576.txt	LTP367	ltpFR2	17	4	NOMAD	955	n/a	n/a	0	0	0
999.80517578125	n/a	REC_WORD	2047601	wordpools/wasnorm_wordpool_576.txt	LTP367	ltpFR2	17	4	LIVER	833	n/a	n/a	0	0	0
1002.03515625	n/a	REC_WORD	2052168	wordpools/wasnorm_wordpool_576.txt	LTP367	ltpFR2	17	4	TROMBONE	1508	n/a	n/a	0	0	0
1003.833984375	n/a	REC_WORD	2055852	wordpools/wasnorm_wordpool_576.txt	LTP367	ltpFR2	17	4	RECORD	1176	n/a	n/a	0	0	0
1012.3349609375	n/a	REC_WORD	2073262	wordpools/wasnorm_wordpool_576.txt	LTP367	ltpFR2	17	4	BUG	187	n/a	n/a	0	0	0
1018.45556640625	n/a	REC_WORD	2085797	wordpools/wasnorm_wordpool_576.txt	LTP367	ltpFR2	17	4	LAPEL	800	n/a	n/a	0	0	0
1064.4755859375	n/a	WORD	2180046	wordpools/wasnorm_wordpool_576.txt	LTP367	ltpFR2	17	5	SHARK	1275	n/a	n/a	0	0	0
1066.95849609375	n/a	WORD	2185131	wordpools/wasnorm_wordpool_576.txt	LTP367	ltpFR2	17	5	WARDROBE	1587	n/a	n/a	0	0	0
1069.40625	n/a	WORD	2190144	wordpools/wasnorm_wordpool_576.txt	LTP367	ltpFR2	17	5	CLOTHES	327	n/a	n/a	0	0	0
1072.22216796875	n/a	WORD	2195911	wordpools/wasnorm_wordpool_576.txt	LTP367	ltpFR2	17	5	FRIEND	606	n/a	n/a	0	0	0
1074.92138671875	n/a	WORD	2201439	wordpools/wasnorm_wordpool_576.txt	LTP367	ltpFR2	17	5	KNIFE	785	n/a	n/a	0	0	0
1077.63623046875	n/a	WORD	2206999	wordpools/wasnorm_wordpool_576.txt	LTP367	ltpFR2	17	5	RACKET	1155	n/a	n/a	0	0	0
1080.31787109375	n/a	WORD	2212491	wordpools/wasnorm_wordpool_576.txt	LTP367	ltpFR2	17	5	VICTIM	1562	n/a	n/a	0	0	0
1082.9169921875	n/a	WORD	2217814	wordpools/wasnorm_wordpool_576.txt	LTP367	ltpFR2	17	5	STAMP	1370	n/a	n/a	0	0	0
1085.4658203125	n/a	WORD	2223034	wordpools/wasnorm_wordpool_576.txt	LTP367	ltpFR2	17	5	GARBAGE	622	n/a	n/a	0	0	0
1088.03076171875	n/a	WORD	2228287	wordpools/wasnorm_wordpool_576.txt	LTP367	ltpFR2	17	5	PARROT	1015	n/a	n/a	0	0	0
1090.82958984375	n/a	WORD	2234019	wordpools/wasnorm_wordpool_576.txt	LTP367	ltpFR2	17	5	MUMMY	932	n/a	n/a	0	0	0
1093.36181640625	n/a	WORD	2239205	wordpools/wasnorm_wordpool_576.txt	LTP367	ltpFR2	17	5	PARENT	1013	n/a	n/a	0	0	0
1095.810546875	n/a	WORD	2244220	wordpools/wasnorm_wordpool_576.txt	LTP367	ltpFR2	17	5	MONSTER	912	n/a	n/a	0	0	0
1098.54248046875	n/a	WORD	2249815	wordpools/wasnorm_wordpool_576.txt	LTP367	ltpFR2	17	5	CREATURE	403	n/a	n/a	0	0	0
1100.99169921875	n/a	WORD	2254831	wordpools/wasnorm_wordpool_576.txt	LTP367	ltpFR2	17	5	HAWK	692	n/a	n/a	0	0	0
1103.79052734375	n/a	WORD	2260563	wordpools/wasnorm_wordpool_576.txt	LTP367	ltpFR2	17	5	KNAPSACK	783	n/a	n/a	0	0	0
1106.5224609375	n/a	WORD	2266158	wordpools/wasnorm_wordpool_576.txt	LTP367	ltpFR2	17	5	BRANCH	168	n/a	n/a	0	0	0
1109.2880859375	n/a	WORD	2271822	wordpools/wasnorm_wordpool_576.txt	LTP367	ltpFR2	17	5	OFFICE	972	n/a	n/a	0	0	0
1112.0361328125	n/a	WORD	2277450	wordpools/wasnorm_wordpool_576.txt	LTP367	ltpFR2	17	5	MAILMAN	858	n/a	n/a	0	0	0
1114.48486328125	n/a	WORD	2282465	wordpools/wasnorm_wordpool_576.txt	LTP367	ltpFR2	17	5	TEMPLE	1448	n/a	n/a	0	0	0
1117.1337890625	n/a	WORD	2287890	wordpools/wasnorm_wordpool_576.txt	LTP367	ltpFR2	17	5	PACKAGE	997	n/a	n/a	0	0	0
1119.64892578125	n/a	WORD	2293041	wordpools/wasnorm_wordpool_576.txt	LTP367	ltpFR2	17	5	KETCHUP	771	n/a	n/a	0	0	0
1122.1650390625	n/a	WORD	2298194	wordpools/wasnorm_wordpool_576.txt	LTP367	ltpFR2	17	5	SCALPEL	1243	n/a	n/a	0	0	0
1124.89697265625	n/a	WORD	2303789	wordpools/wasnorm_wordpool_576.txt	LTP367	ltpFR2	17	5	PLIERS	1089	n/a	n/a	0	0	0
1126.5126953125	n/a	START	2307098	n/a	LTP367	ltpFR2	17	n/a	n/a	n/a	8	n/a	n/a	n/a	n/a
1127.630859375	n/a	DISTRACTOR	2309388	n/a	LTP367	ltpFR2	17	5	n/a	n/a	n/a	n/a	0	0	0
1127.6455078125	n/a	PROB	2309418	n/a	LTP367	ltpFR2	17	n/a	n/a	n/a	8	9	3	5	1
1128.99462890625	n/a	PROB	2312181	n/a	LTP367	ltpFR2	17	n/a	n/a	n/a	8	20	6	5	9
1130.44482421875	n/a	PROB	2315151	n/a	LTP367	ltpFR2	17	n/a	n/a	n/a	8	15	5	8	2
1131.560546875	n/a	PROB	2317436	n/a	LTP367	ltpFR2	17	n/a	n/a	n/a	8	17	9	5	3
1134.525390625	n/a	PROB	2323508	n/a	LTP367	ltpFR2	17	n/a	n/a	n/a	8	21	9	6	6
1135.95849609375	n/a	PROB	2326443	n/a	LTP367	ltpFR2	17	n/a	n/a	n/a	8	17	8	4	5
1137.640625	n/a	PROB	2329888	n/a	LTP367	ltpFR2	17	n/a	n/a	n/a	8	11	5	5	1
1138.7236328125	n/a	PROB	2332106	n/a	LTP367	ltpFR2	17	n/a	n/a	n/a	8	15	9	3	3
1140.056640625	n/a	PROB	2334836	n/a	LTP367	ltpFR2	17	n/a	n/a	n/a	8	16	5	6	5
1141.22216796875	n/a	PROB	2337223	n/a	LTP367	ltpFR2	17	n/a	n/a	n/a	8	15	3	5	7
1142.75537109375	n/a	PROB	2340363	n/a	LTP367	ltpFR2	17	n/a	n/a	n/a	8	14	3	9	2
1144.787109375	n/a	PROB	2344524	n/a	LTP367	ltpFR2	17	n/a	n/a	n/a	8	11	6	2	3
1146.0703125	n/a	PROB	2347152	n/a	LTP367	ltpFR2	17	n/a	n/a	n/a	8	14	3	2	9
1147.46923828125	n/a	PROB	2350017	n/a	LTP367	ltpFR2	17	n/a	n/a	n/a	8	15	6	3	6
1149.369140625	n/a	STOP	2353908	n/a	LTP367	ltpFR2	17	n/a	n/a	n/a	8	n/a	n/a	n/a	n/a
1152.35107421875	n/a	REC_START	2360015	n/a	LTP367	ltpFR2	17	5	n/a	n/a	n/a	n/a	0	0	0
1154.80908203125	n/a	REC_WORD	2365049	wordpools/wasnorm_wordpool_576.txt	LTP367	ltpFR2	17	5	SHARK	1275	n/a	n/a	0	0	0
1155.7607421875	n/a	REC_WORD	2366998	wordpools/wasnorm_wordpool_576.txt	LTP367	ltpFR2	17	5	WARDROBE	1587	n/a	n/a	0	0	0
1156.7880859375	n/a	REC_WORD	2369102	wordpools/wasnorm_wordpool_576.txt	LTP367	ltpFR2	17	5	CLOTHES	327	n/a	n/a	0	0	0
1157.81787109375	n/a	REC_WORD	2371211	wordpools/wasnorm_wordpool_576.txt	LTP367	ltpFR2	17	5	FRIEND	606	n/a	n/a	0	0	0
1163.37353515625	n/a	REC_WORD	2382589	wordpools/wasnorm_wordpool_576.txt	LTP367	ltpFR2	17	5	KNIFE	785	n/a	n/a	0	0	0
1164.41064453125	n/a	REC_WORD	2384713	wordpools/wasnorm_wordpool_576.txt	LTP367	ltpFR2	17	5	RACKET	1155	n/a	n/a	0	0	0
1166.310546875	n/a	REC_WORD	2388604	wordpools/wasnorm_wordpool_576.txt	LTP367	ltpFR2	17	5	VICTIM	1562	n/a	n/a	0	0	0
1167.23779296875	n/a	REC_WORD	2390503	wordpools/wasnorm_wordpool_576.txt	LTP367	ltpFR2	17	5	STAMP	1370	n/a	n/a	0	0	0
1168.474609375	n/a	REC_WORD	2393036	wordpools/wasnorm_wordpool_576.txt	LTP367	ltpFR2	17	5	GARBAGE	622	n/a	n/a	0	0	0
1169.58984375	n/a	REC_WORD	2395320	wordpools/wasnorm_wordpool_576.txt	LTP367	ltpFR2	17	5	PARROT	1015	n/a	n/a	0	0	0
1170.638671875	n/a	REC_WORD	2397468	wordpools/wasnorm_wordpool_576.txt	LTP367	ltpFR2	17	5	MUMMY	932	n/a	n/a	0	0	0
1171.6455078125	n/a	REC_WORD	2399530	wordpools/wasnorm_wordpool_576.txt	LTP367	ltpFR2	17	5	PARENT	1013	n/a	n/a	0	0	0
1172.59765625	n/a	REC_WORD	2401480	wordpools/wasnorm_wordpool_576.txt	LTP367	ltpFR2	17	5	MONSTER	912	n/a	n/a	0	0	0
1173.49951171875	n/a	REC_WORD	2403327	wordpools/wasnorm_wordpool_576.txt	LTP367	ltpFR2	17	5	CREATURE	403	n/a	n/a	0	0	0
1174.58740234375	n/a	REC_WORD	2405555	wordpools/wasnorm_wordpool_576.txt	LTP367	ltpFR2	17	5	HAWK	692	n/a	n/a	0	0	0
1175.650390625	n/a	REC_WORD	2407732	wordpools/wasnorm_wordpool_576.txt	LTP367	ltpFR2	17	5	KNAPSACK	783	n/a	n/a	0	0	0
1176.75146484375	n/a	REC_WORD	2409987	wordpools/wasnorm_wordpool_576.txt	LTP367	ltpFR2	17	5	BRANCH	168	n/a	n/a	0	0	0
1178.58935546875	n/a	REC_WORD	2413751	wordpools/wasnorm_wordpool_576.txt	LTP367	ltpFR2	17	5	OFFICE	972	n/a	n/a	0	0	0
1180.0361328125	n/a	REC_WORD	2416714	wordpools/wasnorm_wordpool_576.txt	LTP367	ltpFR2	17	5	TEMPLE	1448	n/a	n/a	0	0	0
1180.88525390625	n/a	REC_WORD	2418453	wordpools/wasnorm_wordpool_576.txt	LTP367	ltpFR2	17	5	MAILMAN	858	n/a	n/a	0	0	0
1181.88818359375	n/a	REC_WORD	2420507	wordpools/wasnorm_wordpool_576.txt	LTP367	ltpFR2	17	5	PACKAGE	997	n/a	n/a	0	0	0
1182.87744140625	n/a	REC_WORD	2422533	wordpools/wasnorm_wordpool_576.txt	LTP367	ltpFR2	17	5	KETCHUP	771	n/a	n/a	0	0	0
1184.39697265625	n/a	REC_WORD	2425645	wordpools/wasnorm_wordpool_576.txt	LTP367	ltpFR2	17	5	SCALPEL	1243	n/a	n/a	0	0	0
1185.81005859375	n/a	REC_WORD	2428539	wordpools/wasnorm_wordpool_576.txt	LTP367	ltpFR2	17	5	PLIERS	1089	n/a	n/a	0	0	0
1242.79052734375	n/a	WORD	2545235	wordpools/wasnorm_wordpool_576.txt	LTP367	ltpFR2	17	6	BUCKET	184	n/a	n/a	0	0	0
1245.35546875	n/a	WORD	2550488	wordpools/wasnorm_wordpool_576.txt	LTP367	ltpFR2	17	6	RAFT	1159	n/a	n/a	0	0	0
1248.08740234375	n/a	WORD	2556083	wordpools/wasnorm_wordpool_576.txt	LTP367	ltpFR2	17	6	DUST	508	n/a	n/a	0	0	0
1250.603515625	n/a	WORD	2561236	wordpools/wasnorm_wordpool_576.txt	LTP367	ltpFR2	17	6	SHELF	1280	n/a	n/a	0	0	0
1253.3525390625	n/a	WORD	2566866	wordpools/wasnorm_wordpool_576.txt	LTP367	ltpFR2	17	6	CHAPEL	280	n/a	n/a	0	0	0
1255.8671875	n/a	WORD	2572016	wordpools/wasnorm_wordpool_576.txt	LTP367	ltpFR2	17	6	PORK	1108	n/a	n/a	0	0	0
1258.666015625	n/a	WORD	2577748	wordpools/wasnorm_wordpool_576.txt	LTP367	ltpFR2	17	6	IGLOO	734	n/a	n/a	0	0	0
1261.28125	n/a	WORD	2583104	wordpools/wasnorm_wordpool_576.txt	LTP367	ltpFR2	17	6	MARKER	870	n/a	n/a	0	0	0
1263.7138671875	n/a	WORD	2588086	wordpools/wasnorm_wordpool_576.txt	LTP367	ltpFR2	17	6	COMPASS	358	n/a	n/a	0	0	0
1266.49609375	n/a	WORD	2593784	wordpools/wasnorm_wordpool_576.txt	LTP367	ltpFR2	17	6	BLACKBOARD	133	n/a	n/a	0	0	0
1269.2451171875	n/a	WORD	2599414	wordpools/wasnorm_wordpool_576.txt	LTP367	ltpFR2	17	6	SUNSET	1408	n/a	n/a	0	0	0
1272.06005859375	n/a	WORD	2605179	wordpools/wasnorm_wordpool_576.txt	LTP367	ltpFR2	17	6	FRUIT	610	n/a	n/a	0	0	0
1274.55859375	n/a	WORD	2610296	wordpools/wasnorm_wordpool_576.txt	LTP367	ltpFR2	17	6	PARTNER	1017	n/a	n/a	0	0	0
1277.04052734375	n/a	WORD	2615379	wordpools/wasnorm_wordpool_576.txt	LTP367	ltpFR2	17	6	COIN	343	n/a	n/a	0	0	0
1279.85546875	n/a	WORD	2621144	wordpools/wasnorm_wordpool_576.txt	LTP367	ltpFR2	17	6	MASK	876	n/a	n/a	0	0	0
1282.32177734375	n/a	WORD	2626195	wordpools/wasnorm_wordpool_576.txt	LTP367	ltpFR2	17	6	REBEL	1172	n/a	n/a	0	0	0
1284.8203125	n/a	WORD	2631312	wordpools/wasnorm_wordpool_576.txt	LTP367	ltpFR2	17	6	MARSH	874	n/a	n/a	0	0	0
1287.435546875	n/a	WORD	2636668	wordpools/wasnorm_wordpool_576.txt	LTP367	ltpFR2	17	6	LABEL	790	n/a	n/a	0	0	0
1290.201171875	n/a	WORD	2642332	wordpools/wasnorm_wordpool_576.txt	LTP367	ltpFR2	17	6	SILK	1307	n/a	n/a	0	0	0
1292.63330078125	n/a	WORD	2647313	wordpools/wasnorm_wordpool_576.txt	LTP367	ltpFR2	17	6	COOKBOOK	373	n/a	n/a	0	0	0
1295.3154296875	n/a	WORD	2652806	wordpools/wasnorm_wordpool_576.txt	LTP367	ltpFR2	17	6	BARLEY	88	n/a	n/a	0	0	0
1297.8642578125	n/a	WORD	2658026	wordpools/wasnorm_wordpool_576.txt	LTP367	ltpFR2	17	6	ICEBERG	731	n/a	n/a	0	0	0
1300.5791015625	n/a	WORD	2663586	wordpools/wasnorm_wordpool_576.txt	LTP367	ltpFR2	17	6	CREVICE	405	n/a	n/a	0	0	0
1303.162109375	n/a	WORD	2668876	wordpools/wasnorm_wordpool_576.txt	LTP367	ltpFR2	17	6	CRATER	400	n/a	n/a	0	0	0
1304.77783203125	n/a	START	2672185	n/a	LTP367	ltpFR2	17	n/a	n/a	n/a	9	n/a	n/a	n/a	n/a
1305.9677734375	n/a	DISTRACTOR	2674622	n/a	LTP367	ltpFR2	17	6	n/a	n/a	n/a	n/a	0	0	0
1305.97705078125	n/a	PROB	2674641	n/a	LTP367	ltpFR2	17	n/a	n/a	n/a	9	17	8	2	7
1308.22607421875	n/a	PROB	2679247	n/a	LTP367	ltpFR2	17	n/a	n/a	n/a	9	14	8	1	5
1310.42578125	n/a	PROB	2683752	n/a	LTP367	ltpFR2	17	n/a	n/a	n/a	9	4	1	1	2
1311.673828125	n/a	PROB	2686308	n/a	LTP367	ltpFR2	17	n/a	n/a	n/a	9	19	7	4	8
1313.32373046875	n/a	PROB	2689687	n/a	LTP367	ltpFR2	17	n/a	n/a	n/a	9	22	8	8	6
1315.23876953125	n/a	PROB	2693609	n/a	LTP367	ltpFR2	17	n/a	n/a	n/a	9	2	8	8	5
1317.3876953125	n/a	PROB	2698010	n/a	LTP367	ltpFR2	17	n/a	n/a	n/a	9	13	4	7	2
1319.00341796875	n/a	PROB	2701319	n/a	LTP367	ltpFR2	17	n/a	n/a	n/a	9	10	1	5	4
1320.51953125	n/a	PROB	2704424	n/a	LTP367	ltpFR2	17	n/a	n/a	n/a	9	19	9	8	2
1321.9853515625	n/a	PROB	2707426	n/a	LTP367	ltpFR2	17	n/a	n/a	n/a	9	20	7	7	6
1323.75146484375	n/a	PROB	2711043	n/a	LTP367	ltpFR2	17	n/a	n/a	n/a	9	23	7	8	8
1327.08349609375	n/a	PROB	2717867	n/a	LTP367	ltpFR2	17	n/a	n/a	n/a	9	17	7	3	7
1328.42724609375	n/a	STOP	2720619	n/a	LTP367	ltpFR2	17	n/a	n/a	n/a	9	n/a	n/a	n/a	n/a
1330.56640625	n/a	REC_START	2725000	n/a	LTP367	ltpFR2	17	6	n/a	n/a	n/a	n/a	0	0	0
1336.830078125	n/a	REC_WORD	2737828	wordpools/wasnorm_wordpool_576.txt	LTP367	ltpFR2	17	6	DUST	508	n/a	n/a	0	0	0
1338.89013671875	n/a	REC_WORD	2742047	wordpools/wasnorm_wordpool_576.txt	LTP367	ltpFR2	17	6	PORK	1108	n/a	n/a	0	0	0
1339.46484375	n/a	REC_WORD	2743224	wordpools/wasnorm_wordpool_576.txt	LTP367	ltpFR2	17	6	IGLOO	734	n/a	n/a	0	0	0
1340.09521484375	n/a	REC_WORD	2744515	wordpools/wasnorm_wordpool_576.txt	LTP367	ltpFR2	17	6	SHELF	1280	n/a	n/a	0	0	0
1340.9912109375	n/a	REC_WORD	2746350	wordpools/wasnorm_wordpool_576.txt	LTP367	ltpFR2	17	6	COMPASS	358	n/a	n/a	0	0	0
1342.5888671875	n/a	REC_WORD	2749622	wordpools/wasnorm_wordpool_576.txt	LTP367	ltpFR2	17	6	BLACKBOARD	133	n/a	n/a	0	0	0
1343.48291015625	n/a	REC_WORD	2751453	wordpools/wasnorm_wordpool_576.txt	LTP367	ltpFR2	17	6	SUNSET	1408	n/a	n/a	0	0	0
1344.2939453125	n/a	REC_WORD	2753114	wordpools/wasnorm_wordpool_576.txt	LTP367	ltpFR2	17	6	FRUIT	610	n/a	n/a	0	0	0
1346.5830078125	n/a	REC_WORD	2757802	wordpools/wasnorm_wordpool_576.txt	LTP367	ltpFR2	17	6	PARTNER	1017	n/a	n/a	0	0	0
1347.25	n/a	REC_WORD	2759168	wordpools/wasnorm_wordpool_576.txt	LTP367	ltpFR2	17	6	COIN	343	n/a	n/a	0	0	0
1347.8427734375	n/a	REC_WORD	2760382	wordpools/wasnorm_wordpool_576.txt	LTP367	ltpFR2	17	6	MASK	876	n/a	n/a	0	0	0
1348.57177734375	n/a	REC_WORD	2761875	wordpools/wasnorm_wordpool_576.txt	LTP367	ltpFR2	17	6	REBEL	1172	n/a	n/a	0	0	0
1350.673828125	n/a	REC_WORD	2766180	wordpools/wasnorm_wordpool_576.txt	LTP367	ltpFR2	17	6	MARSH	874	n/a	n/a	0	0	0
1352.2568359375	n/a	REC_WORD	2769422	wordpools/wasnorm_wordpool_576.txt	LTP367	ltpFR2	17	6	COOKBOOK	373	n/a	n/a	0	0	0
1353.16552734375	n/a	REC_WORD	2771283	wordpools/wasnorm_wordpool_576.txt	LTP367	ltpFR2	17	6	BARLEY	88	n/a	n/a	0	0	0
1354.0517578125	n/a	REC_WORD	2773098	wordpools/wasnorm_wordpool_576.txt	LTP367	ltpFR2	17	6	ICEBERG	731	n/a	n/a	0	0	0
1354.96044921875	n/a	REC_WORD	2774959	wordpools/wasnorm_wordpool_576.txt	LTP367	ltpFR2	17	6	CREVICE	405	n/a	n/a	0	0	0
1356.52880859375	n/a	REC_WORD	2778171	wordpools/wasnorm_wordpool_576.txt	LTP367	ltpFR2	17	6	CRATER	400	n/a	n/a	0	0	0
1479.89306640625	n/a	DISTRACTOR	3030821	n/a	LTP367	ltpFR2	17	7	n/a	n/a	n/a	n/a	0	0	0
1479.89404296875	n/a	START	3030823	n/a	LTP367	ltpFR2	17	n/a	n/a	n/a	10	n/a	n/a	n/a	n/a
1479.91015625	n/a	PROB	3030856	n/a	LTP367	ltpFR2	17	n/a	n/a	n/a	10	14	3	4	7
1481.30908203125	n/a	PROB	3033721	n/a	LTP367	ltpFR2	17	n/a	n/a	n/a	10	17	3	8	6
1483.2919921875	n/a	PROB	3037782	n/a	LTP367	ltpFR2	17	n/a	n/a	n/a	10	15	5	8	2
1484.35791015625	n/a	PROB	3039965	n/a	LTP367	ltpFR2	17	n/a	n/a	n/a	10	13	8	2	3
1485.4912109375	n/a	PROB	3042286	n/a	LTP367	ltpFR2	17	n/a	n/a	n/a	10	14	3	3	8
1487.08984375	n/a	PROB	3045560	n/a	LTP367	ltpFR2	17	n/a	n/a	n/a	10	17	4	5	8
1488.6728515625	n/a	PROB	3048802	n/a	LTP367	ltpFR2	17	n/a	n/a	n/a	10	19	6	6	7
1490.0390625	n/a	PROB	3051600	n/a	LTP367	ltpFR2	17	n/a	n/a	n/a	10	15	4	5	6
1491.2880859375	n/a	PROB	3054158	n/a	LTP367	ltpFR2	17	n/a	n/a	n/a	10	17	3	6	8
1492.73779296875	n/a	PROB	3057127	n/a	LTP367	ltpFR2	17	n/a	n/a	n/a	10	6	1	3	2
1494.23681640625	n/a	PROB	3060197	n/a	LTP367	ltpFR2	17	n/a	n/a	n/a	10	22	5	9	8
1496.5859375	n/a	PROB	3065008	n/a	LTP367	ltpFR2	17	n/a	n/a	n/a	10	13	7	1	5
1497.96875	n/a	PROB	3067840	n/a	LTP367	ltpFR2	17	n/a	n/a	n/a	10	6	2	3	1
1499.53369140625	n/a	PROB	3071045	n/a	LTP367	ltpFR2	17	n/a	n/a	n/a	10	12	4	3	5
1501.36669921875	n/a	PROB	3074799	n/a	LTP367	ltpFR2	17	n/a	n/a	n/a	10	15	7	1	7
1503.04248046875	n/a	STOP	3078231	n/a	LTP367	ltpFR2	17	n/a	n/a	n/a	10	n/a	n/a	n/a	n/a
1504.96435546875	n/a	WORD	3082167	wordpools/wasnorm_wordpool_576.txt	LTP367	ltpFR2	17	7	WASP	1593	n/a	n/a	0	0	0
1507.73046875	n/a	WORD	3087832	wordpools/wasnorm_wordpool_576.txt	LTP367	ltpFR2	17	7	VIKING	1565	n/a	n/a	0	0	0
1510.3125	n/a	WORD	3093120	wordpools/wasnorm_wordpool_576.txt	LTP367	ltpFR2	17	7	HORNET	718	n/a	n/a	0	0	0
1512.994140625	n/a	WORD	3098612	wordpools/wasnorm_wordpool_576.txt	LTP367	ltpFR2	17	7	CRIB	407	n/a	n/a	0	0	0
1515.826171875	n/a	WORD	3104412	wordpools/wasnorm_wordpool_576.txt	LTP367	ltpFR2	17	7	GARLIC	624	n/a	n/a	0	0	0
1518.47509765625	n/a	WORD	3109837	wordpools/wasnorm_wordpool_576.txt	LTP367	ltpFR2	17	7	SIBLING	1301	n/a	n/a	0	0	0
1521.02392578125	n/a	WORD	3115057	wordpools/wasnorm_wordpool_576.txt	LTP367	ltpFR2	17	7	SKIRT	1319	n/a	n/a	0	0	0
1523.505859375	n/a	WORD	3120140	wordpools/wasnorm_wordpool_576.txt	LTP367	ltpFR2	17	7	SERVANT	1271	n/a	n/a	0	0	0
1526.171875	n/a	WORD	3125600	wordpools/wasnorm_wordpool_576.txt	LTP367	ltpFR2	17	7	LOVER	846	n/a	n/a	0	0	0
1528.68701171875	n/a	WORD	3130751	wordpools/wasnorm_wordpool_576.txt	LTP367	ltpFR2	17	7	ITEM	746	n/a	n/a	0	0	0
1531.23583984375	n/a	WORD	3135971	wordpools/wasnorm_wordpool_576.txt	LTP367	ltpFR2	17	7	SWAMP	1416	n/a	n/a	0	0	0
1533.66796875	n/a	WORD	3140952	wordpools/wasnorm_wordpool_576.txt	LTP367	ltpFR2	17	7	PASTA	1021	n/a	n/a	0	0	0
1536.349609375	n/a	WORD	3146444	wordpools/wasnorm_wordpool_576.txt	LTP367	ltpFR2	17	7	WAGON	1578	n/a	n/a	0	0	0
1539.015625	n/a	WORD	3151904	wordpools/wasnorm_wordpool_576.txt	LTP367	ltpFR2	17	7	HERO	706	n/a	n/a	0	0	0
1541.53076171875	n/a	WORD	3157055	wordpools/wasnorm_wordpool_576.txt	LTP367	ltpFR2	17	7	IDOL	733	n/a	n/a	0	0	0
1544.04638671875	n/a	WORD	3162207	wordpools/wasnorm_wordpool_576.txt	LTP367	ltpFR2	17	7	LEADER	807	n/a	n/a	0	0	0
1546.79541015625	n/a	WORD	3167837	wordpools/wasnorm_wordpool_576.txt	LTP367	ltpFR2	17	7	HONEY	713	n/a	n/a	0	0	0
1549.46044921875	n/a	WORD	3173295	wordpools/wasnorm_wordpool_576.txt	LTP367	ltpFR2	17	7	GYMNAST	675	n/a	n/a	0	0	0
1552.109375	n/a	WORD	3178720	wordpools/wasnorm_wordpool_576.txt	LTP367	ltpFR2	17	7	JUGGLER	763	n/a	n/a	0	0	0
1554.791015625	n/a	WORD	3184212	wordpools/wasnorm_wordpool_576.txt	LTP367	ltpFR2	17	7	STALLION	1369	n/a	n/a	0	0	0
1557.2900390625	n/a	WORD	3189330	wordpools/wasnorm_wordpool_576.txt	LTP367	ltpFR2	17	7	TWISTER	1530	n/a	n/a	0	0	0
1559.955078125	n/a	WORD	3194788	wordpools/wasnorm_wordpool_576.txt	LTP367	ltpFR2	17	7	ACTOR	5	n/a	n/a	0	0	0
1562.421875	n/a	WORD	3199840	wordpools/wasnorm_wordpool_576.txt	LTP367	ltpFR2	17	7	CLOUD	328	n/a	n/a	0	0	0
1565.0029296875	n/a	WORD	3205126	wordpools/wasnorm_wordpool_576.txt	LTP367	ltpFR2	17	7	TRUCK	1512	n/a	n/a	0	0	0
1566.619140625	n/a	START	3208436	n/a	LTP367	ltpFR2	17	n/a	n/a	n/a	11	n/a	n/a	n/a	n/a
1567.55712890625	n/a	DISTRACTOR	3210357	n/a	LTP367	ltpFR2	17	7	n/a	n/a	n/a	n/a	0	0	0
1567.56884765625	n/a	PROB	3210381	n/a	LTP367	ltpFR2	17	n/a	n/a	n/a	11	15	3	5	7
1569.05078125	n/a	PROB	3213416	n/a	LTP367	ltpFR2	17	n/a	n/a	n/a	11	14	5	3	4
1571.19970703125	n/a	PROB	3217817	n/a	LTP367	ltpFR2	17	n/a	n/a	n/a	11	20	7	9	4
1572.86572265625	n/a	PROB	3221229	n/a	LTP367	ltpFR2	17	n/a	n/a	n/a	11	13	4	7	2
1574.06591796875	n/a	PROB	3223687	n/a	LTP367	ltpFR2	17	n/a	n/a	n/a	11	17	5	5	7
1576.24755859375	n/a	PROB	3228155	n/a	LTP367	ltpFR2	17	n/a	n/a	n/a	11	9	5	2	2
1577.396484375	n/a	PROB	3230508	n/a	LTP367	ltpFR2	17	n/a	n/a	n/a	11	14	4	2	8
1578.74658203125	n/a	PROB	3233273	n/a	LTP367	ltpFR2	17	n/a	n/a	n/a	11	10	5	2	3
1579.96240234375	n/a	PROB	3235763	n/a	LTP367	ltpFR2	17	n/a	n/a	n/a	11	18	8	7	3
1581.095703125	n/a	PROB	3238084	n/a	LTP367	ltpFR2	17	n/a	n/a	n/a	11	16	7	6	3
1583.29443359375	n/a	PROB	3242587	n/a	LTP367	ltpFR2	17	n/a	n/a	n/a	11	18	7	5	6
1584.82666015625	n/a	PROB	3245725	n/a	LTP367	ltpFR2	17	n/a	n/a	n/a	11	6	1	2	3
1585.9091796875	n/a	PROB	3247942	n/a	LTP367	ltpFR2	17	n/a	n/a	n/a	11	10	3	1	6
1587.142578125	n/a	PROB	3250468	n/a	LTP367	ltpFR2	17	n/a	n/a	n/a	11	16	5	6	5
1588.25830078125	n/a	PROB	3252753	n/a	LTP367	ltpFR2	17	n/a	n/a	n/a	11	15	5	8	2
1589.29931640625	n/a	STOP	3254885	n/a	LTP367	ltpFR2	17	n/a	n/a	n/a	11	n/a	n/a	n/a	n/a
1592.408203125	n/a	REC_START	3261252	n/a	LTP367	ltpFR2	17	7	n/a	n/a	n/a	n/a	0	0	0
1595.52392578125	n/a	REC_WORD	3267633	wordpools/wasnorm_wordpool_576.txt	LTP367	ltpFR2	17	7	WASP	1593	n/a	n/a	0	0	0
1596.51904296875	n/a	REC_WORD	3269671	wordpools/wasnorm_wordpool_576.txt	LTP367	ltpFR2	17	7	HORNET	718	n/a	n/a	0	0	0
1597.626953125	n/a	REC_WORD	3271940	wordpools/wasnorm_wordpool_576.txt	LTP367	ltpFR2	17	7	VIKING	1565	n/a	n/a	0	0	0
1598.63427734375	n/a	REC_WORD	3274003	wordpools/wasnorm_wordpool_576.txt	LTP367	ltpFR2	17	7	CRIB	407	n/a	n/a	0	0	0
1599.697265625	n/a	REC_WORD	3276180	wordpools/wasnorm_wordpool_576.txt	LTP367	ltpFR2	17	7	GARLIC	624	n/a	n/a	0	0	0
1600.537109375	n/a	REC_WORD	3277900	wordpools/wasnorm_wordpool_576.txt	LTP367	ltpFR2	17	7	SIBLING	1301	n/a	n/a	0	0	0
1601.55615234375	n/a	REC_WORD	3279987	wordpools/wasnorm_wordpool_576.txt	LTP367	ltpFR2	17	7	SKIRT	1319	n/a	n/a	0	0	0
1602.5830078125	n/a	REC_WORD	3282090	wordpools/wasnorm_wordpool_576.txt	LTP367	ltpFR2	17	7	SERVANT	1271	n/a	n/a	0	0	0
1603.83984375	n/a	REC_WORD	3284664	wordpools/wasnorm_wordpool_576.txt	LTP367	ltpFR2	17	7	ITEM	746	n/a	n/a	0	0	0
1604.8759765625	n/a	REC_WORD	3286786	wordpools/wasnorm_wordpool_576.txt	LTP367	ltpFR2	17	7	LOVER	846	n/a	n/a	0	0	0
1606.083984375	n/a	REC_WORD	3289260	wordpools/wasnorm_wordpool_576.txt	LTP367	ltpFR2	17	7	SWAMP	1416	n/a	n/a	0	0	0
1607.2587890625	n/a	REC_WORD	3291666	wordpools/wasnorm_wordpool_576.txt	LTP367	ltpFR2	17	7	PASTA	1021	n/a	n/a	0	0	0
1608.798828125	n/a	REC_WORD	3294820	wordpools/wasnorm_wordpool_576.txt	LTP367	ltpFR2	17	7	WAGON	1578	n/a	n/a	0	0	0
1609.68359375	n/a	REC_WORD	3296632	wordpools/wasnorm_wordpool_576.txt	LTP367	ltpFR2	17	7	HERO	706	n/a	n/a	0	0	0
1611.677734375	n/a	REC_WORD	3300716	wordpools/wasnorm_wordpool_576.txt	LTP367	ltpFR2	17	7	IDOL	733	n/a	n/a	0	0	0
1612.29052734375	n/a	REC_WORD	3301971	wordpools/wasnorm_wordpool_576.txt	LTP367	ltpFR2	17	7	HONEY	713	n/a	n/a	0	0	0
1613.58642578125	n/a	REC_WORD	3304625	wordpools/wasnorm_wordpool_576.txt	LTP367	ltpFR2	17	7	JUGGLER	763	n/a	n/a	0	0	0
1616.33251953125	n/a	REC_WORD	3310249	wordpools/wasnorm_wordpool_576.txt	LTP367	ltpFR2	17	7	STALLION	1369	n/a	n/a	0	0	0
1617.34375	n/a	REC_WORD	3312320	wordpools/wasnorm_wordpool_576.txt	LTP367	ltpFR2	17	7	ACTOR	5	n/a	n/a	0	0	0
1618.08837890625	n/a	REC_WORD	3313845	wordpools/wasnorm_wordpool_576.txt	LTP367	ltpFR2	17	7	TWISTER	1530	n/a	n/a	0	0	0
1621.8642578125	n/a	REC_WORD	3321578	wordpools/wasnorm_wordpool_576.txt	LTP367	ltpFR2	17	7	CLOUD	328	n/a	n/a	0	0	0
1622.75732421875	n/a	REC_WORD	3323407	wordpools/wasnorm_wordpool_576.txt	LTP367	ltpFR2	17	7	TRUCK	1512	n/a	n/a	0	0	0
1626.08447265625	n/a	REC_WORD	3330221	wordpools/wasnorm_wordpool_576.txt	LTP367	ltpFR2	17	7	LEADER	807	n/a	n/a	0	0	0
1711.8828125	n/a	DISTRACTOR	3505936	n/a	LTP367	ltpFR2	17	8	n/a	n/a	n/a	n/a	0	0	0
1711.8828125	n/a	START	3505936	n/a	LTP367	ltpFR2	17	n/a	n/a	n/a	12	n/a	n/a	n/a	n/a
1711.89892578125	n/a	PROB	3505969	n/a	LTP367	ltpFR2	17	n/a	n/a	n/a	12	25	9	9	7
1714.48095703125	n/a	PROB	3511257	n/a	LTP367	ltpFR2	17	n/a	n/a	n/a	12	9	2	3	4
1717.296875	n/a	PROB	3517024	n/a	LTP367	ltpFR2	17	n/a	n/a	n/a	12	11	7	2	2
1718.47998046875	n/a	PROB	3519447	n/a	LTP367	ltpFR2	17	n/a	n/a	n/a	12	18	8	6	4
1719.57861328125	n/a	PROB	3521697	n/a	LTP367	ltpFR2	17	n/a	n/a	n/a	12	11	5	2	4
1722.1279296875	n/a	PROB	3526918	n/a	LTP367	ltpFR2	17	n/a	n/a	n/a	12	4	1	2	1
1723.3935546875	n/a	PROB	3529510	n/a	LTP367	ltpFR2	17	n/a	n/a	n/a	12	11	2	3	6
1724.70947265625	n/a	PROB	3532205	n/a	LTP367	ltpFR2	17	n/a	n/a	n/a	12	16	6	9	1
1726.17578125	n/a	PROB	3535208	n/a	LTP367	ltpFR2	17	n/a	n/a	n/a	12	16	5	8	3
1730.70654296875	n/a	PROB	3544487	n/a	LTP367	ltpFR2	17	n/a	n/a	n/a	12	11	7	1	3
1732.3564453125	n/a	PROB	3547866	n/a	LTP367	ltpFR2	17	n/a	n/a	n/a	12	16	8	3	5
1733.87255859375	n/a	PROB	3550971	n/a	LTP367	ltpFR2	17	n/a	n/a	n/a	12	20	8	7	5
1735.33154296875	n/a	STOP	3553959	n/a	LTP367	ltpFR2	17	n/a	n/a	n/a	12	n/a	n/a	n/a	n/a
1736.88720703125	n/a	WORD	3557145	wordpools/wasnorm_wordpool_576.txt	LTP367	ltpFR2	17	8	GAVEL	627	n/a	n/a	0	0	0
1739.486328125	n/a	WORD	3562468	wordpools/wasnorm_wordpool_576.txt	LTP367	ltpFR2	17	8	DASHBOARD	441	n/a	n/a	0	0	0
1742.30126953125	n/a	WORD	3568233	wordpools/wasnorm_wordpool_576.txt	LTP367	ltpFR2	17	8	TERMITE	1451	n/a	n/a	0	0	0
1744.80029296875	n/a	WORD	3573351	wordpools/wasnorm_wordpool_576.txt	LTP367	ltpFR2	17	8	SPACE	1345	n/a	n/a	0	0	0
1747.3662109375	n/a	WORD	3578606	wordpools/wasnorm_wordpool_576.txt	LTP367	ltpFR2	17	8	PLAZA	1088	n/a	n/a	0	0	0
1750.130859375	n/a	WORD	3584268	wordpools/wasnorm_wordpool_576.txt	LTP367	ltpFR2	17	8	HUSBAND	728	n/a	n/a	0	0	0
1752.64697265625	n/a	WORD	3589421	wordpools/wasnorm_wordpool_576.txt	LTP367	ltpFR2	17	8	SEAGULL	1261	n/a	n/a	0	0	0
1755.07861328125	n/a	WORD	3594401	wordpools/wasnorm_wordpool_576.txt	LTP367	ltpFR2	17	8	DONOR	485	n/a	n/a	0	0	0
1757.7109375	n/a	WORD	3599792	wordpools/wasnorm_wordpool_576.txt	LTP367	ltpFR2	17	8	CAFE	216	n/a	n/a	0	0	0
1760.29248046875	n/a	WORD	3605079	wordpools/wasnorm_wordpool_576.txt	LTP367	ltpFR2	17	8	SERVER	1272	n/a	n/a	0	0	0
1763.07470703125	n/a	WORD	3610777	wordpools/wasnorm_wordpool_576.txt	LTP367	ltpFR2	17	8	JUNGLE	764	n/a	n/a	0	0	0
1765.87353515625	n/a	WORD	3616509	wordpools/wasnorm_wordpool_576.txt	LTP367	ltpFR2	17	8	SCOTCH	1251	n/a	n/a	0	0	0
1768.67236328125	n/a	WORD	3622241	wordpools/wasnorm_wordpool_576.txt	LTP367	ltpFR2	17	8	YARN	1631	n/a	n/a	0	0	0
1771.28759765625	n/a	WORD	3627597	wordpools/wasnorm_wordpool_576.txt	LTP367	ltpFR2	17	8	VALVE	1546	n/a	n/a	0	0	0
1773.76953125	n/a	WORD	3632680	wordpools/wasnorm_wordpool_576.txt	LTP367	ltpFR2	17	8	SKILLET	1317	n/a	n/a	0	0	0
1776.50244140625	n/a	WORD	3638277	wordpools/wasnorm_wordpool_576.txt	LTP367	ltpFR2	17	8	PENGUIN	1044	n/a	n/a	0	0	0
1779.2001953125	n/a	WORD	3643802	wordpools/wasnorm_wordpool_576.txt	LTP367	ltpFR2	17	8	CROWN	415	n/a	n/a	0	0	0
1781.63330078125	n/a	WORD	3648785	wordpools/wasnorm_wordpool_576.txt	LTP367	ltpFR2	17	8	PRINCE	1124	n/a	n/a	0	0	0
1784.14794921875	n/a	WORD	3653935	wordpools/wasnorm_wordpool_576.txt	LTP367	ltpFR2	17	8	WIDOW	1608	n/a	n/a	0	0	0
1786.72998046875	n/a	WORD	3659223	wordpools/wasnorm_wordpool_576.txt	LTP367	ltpFR2	17	8	BROOK	177	n/a	n/a	0	0	0
1789.345703125	n/a	WORD	3664580	wordpools/wasnorm_wordpool_576.txt	LTP367	ltpFR2	17	8	CHIPMUNK	304	n/a	n/a	0	0	0
1792.11083984375	n/a	WORD	3670243	wordpools/wasnorm_wordpool_576.txt	LTP367	ltpFR2	17	8	WHISTLE	1606	n/a	n/a	0	0	0
1794.57666015625	n/a	WORD	3675293	wordpools/wasnorm_wordpool_576.txt	LTP367	ltpFR2	17	8	TEACHER	1440	n/a	n/a	0	0	0
1797.27587890625	n/a	WORD	3680821	wordpools/wasnorm_wordpool_576.txt	LTP367	ltpFR2	17	8	STUDENT	1395	n/a	n/a	0	0	0
1798.8916015625	n/a	START	3684130	n/a	LTP367	ltpFR2	17	n/a	n/a	n/a	13	n/a	n/a	n/a	n/a
1799.7998046875	n/a	DISTRACTOR	3685990	n/a	LTP367	ltpFR2	17	8	n/a	n/a	n/a	n/a	0	0	0
1799.8076171875	n/a	PROB	3686006	n/a	LTP367	ltpFR2	17	n/a	n/a	n/a	13	11	7	3	1
1801.20654296875	n/a	PROB	3688871	n/a	LTP367	ltpFR2	17	n/a	n/a	n/a	13	12	3	3	6
1802.8056640625	n/a	PROB	3692146	n/a	LTP367	ltpFR2	17	n/a	n/a	n/a	13	20	9	2	9
1804.271484375	n/a	PROB	3695148	n/a	LTP367	ltpFR2	17	n/a	n/a	n/a	13	11	2	7	2
1805.9873046875	n/a	PROB	3698662	n/a	LTP367	ltpFR2	17	n/a	n/a	n/a	13	20	5	6	9
1807.38720703125	n/a	PROB	3701529	n/a	LTP367	ltpFR2	17	n/a	n/a	n/a	13	19	5	7	7
1809.26953125	n/a	PROB	3705384	n/a	LTP367	ltpFR2	17	n/a	n/a	n/a	13	14	1	9	4
1811.2685546875	n/a	PROB	3709478	n/a	LTP367	ltpFR2	17	n/a	n/a	n/a	13	25	8	7	8
1815.60009765625	n/a	PROB	3718349	n/a	LTP367	ltpFR2	17	n/a	n/a	n/a	13	10	2	6	2
1817.08203125	n/a	PROB	3721384	n/a	LTP367	ltpFR2	17	n/a	n/a	n/a	13	13	2	7	4
1818.31494140625	n/a	PROB	3723909	n/a	LTP367	ltpFR2	17	n/a	n/a	n/a	13	17	8	7	2
1819.6982421875	n/a	PROB	3726742	n/a	LTP367	ltpFR2	17	n/a	n/a	n/a	13	19	8	4	7
1821.06396484375	n/a	PROB	3729539	n/a	LTP367	ltpFR2	17	n/a	n/a	n/a	13	16	5	4	7
1822.8359375	n/a	STOP	3733168	n/a	LTP367	ltpFR2	17	n/a	n/a	n/a	13	n/a	n/a	n/a	n/a
1824.77880859375	n/a	REC_START	3737147	n/a	LTP367	ltpFR2	17	8	n/a	n/a	n/a	n/a	0	0	0
1826.03515625	n/a	REC_WORD	3739720	wordpools/wasnorm_wordpool_576.txt	LTP367	ltpFR2	17	8	GAVEL	627	n/a	n/a	0	0	0
1826.81298828125	n/a	REC_WORD	3741313	wordpools/wasnorm_wordpool_576.txt	LTP367	ltpFR2	17	8	TERMITE	1451	n/a	n/a	0	0	0
1827.6787109375	n/a	REC_WORD	3743086	wordpools/wasnorm_wordpool_576.txt	LTP367	ltpFR2	17	8	PLAZA	1088	n/a	n/a	0	0	0
1828.5439453125	n/a	REC_WORD	3744858	wordpools/wasnorm_wordpool_576.txt	LTP367	ltpFR2	17	8	HUSBAND	728	n/a	n/a	0	0	0
1829.90478515625	n/a	REC_WORD	3747645	wordpools/wasnorm_wordpool_576.txt	LTP367	ltpFR2	17	8	CAFE	216	n/a	n/a	0	0	0
1833.41162109375	n/a	REC_WORD	3754827	wordpools/wasnorm_wordpool_576.txt	LTP367	ltpFR2	17	8	SERVER	1272	n/a	n/a	0	0	0
1837.98974609375	n/a	REC_WORD	3764203	wordpools/wasnorm_wordpool_576.txt	LTP367	ltpFR2	17	8	JUNGLE	764	n/a	n/a	0	0	0
1838.798828125	n/a	REC_WORD	3765860	wordpools/wasnorm_wordpool_576.txt	LTP367	ltpFR2	17	8	SCOTCH	1251	n/a	n/a	0	0	0
1839.8515625	n/a	REC_WORD	3768016	wordpools/wasnorm_wordpool_576.txt	LTP367	ltpFR2	17	8	YARN	1631	n/a	n/a	0	0	0
1840.8125	n/a	REC_WORD	3769984	wordpools/wasnorm_wordpool_576.txt	LTP367	ltpFR2	17	8	VALVE	1546	n/a	n/a	0	0	0
1841.57470703125	n/a	REC_WORD	3771545	wordpools/wasnorm_wordpool_576.txt	LTP367	ltpFR2	17	8	SKILLET	1317	n/a	n/a	0	0	0
1842.62841796875	n/a	REC_WORD	3773703	wordpools/wasnorm_wordpool_576.txt	LTP367	ltpFR2	17	8	PENGUIN	1044	n/a	n/a	0	0	0
1843.49462890625	n/a	REC_WORD	3775477	wordpools/wasnorm_wordpool_576.txt	LTP367	ltpFR2	17	8	CROWN	415	n/a	n/a	0	0	0
1844.50439453125	n/a	REC_WORD	3777545	wordpools/wasnorm_wordpool_576.txt	LTP367	ltpFR2	17	8	PRINCE	1124	n/a	n/a	0	0	0
1845.4765625	n/a	REC_WORD	3779536	wordpools/wasnorm_wordpool_576.txt	LTP367	ltpFR2	17	8	WIDOW	1608	n/a	n/a	0	0	0
1846.37158203125	n/a	REC_WORD	3781369	wordpools/wasnorm_wordpool_576.txt	LTP367	ltpFR2	17	8	BROOK	177	n/a	n/a	0	0	0
1847.564453125	n/a	REC_WORD	3783812	wordpools/wasnorm_wordpool_576.txt	LTP367	ltpFR2	17	8	CHIPMUNK	304	n/a	n/a	0	0	0
1848.97216796875	n/a	REC_WORD	3786695	wordpools/wasnorm_wordpool_576.txt	LTP367	ltpFR2	17	8	TEACHER	1440	n/a	n/a	0	0	0
1849.64111328125	n/a	REC_WORD	3788065	wordpools/wasnorm_wordpool_576.txt	LTP367	ltpFR2	17	8	STUDENT	1395	n/a	n/a	0	0	0
1850.64013671875	n/a	REC_WORD	3790111	wordpools/wasnorm_wordpool_576.txt	LTP367	ltpFR2	17	8	WHISTLE	1606	n/a	n/a	0	0	0
1855.73095703125	n/a	REC_WORD	3800537	wordpools/wasnorm_wordpool_576.txt	LTP367	ltpFR2	17	8	SPACE	1345	n/a	n/a	0	0	0
1901.32470703125	n/a	REST_REWET	3893913	n/a	LTP367	ltpFR2	17	8	n/a	n/a	n/a	n/a	0	0	0
1935.04296875	n/a	WORD	3962968	wordpools/wasnorm_wordpool_576.txt	LTP367	ltpFR2	17	9	NEUTRON	947	n/a	n/a	0	0	0
1937.8408203125	n/a	WORD	3968698	wordpools/wasnorm_wordpool_576.txt	LTP367	ltpFR2	17	9	UMPIRE	1535	n/a	n/a	0	0	0
1940.43994140625	n/a	WORD	3974021	wordpools/wasnorm_wordpool_576.txt	LTP367	ltpFR2	17	9	COFFEE	341	n/a	n/a	0	0	0
1943.12158203125	n/a	WORD	3979513	wordpools/wasnorm_wordpool_576.txt	LTP367	ltpFR2	17	9	PROTON	1132	n/a	n/a	0	0	0
1945.73779296875	n/a	WORD	3984871	wordpools/wasnorm_wordpool_576.txt	LTP367	ltpFR2	17	9	FLASHLIGHT	575	n/a	n/a	0	0	0
1948.33642578125	n/a	WORD	3990193	wordpools/wasnorm_wordpool_576.txt	LTP367	ltpFR2	17	9	PISTON	1076	n/a	n/a	0	0	0
1950.984375	n/a	WORD	3995616	wordpools/wasnorm_wordpool_576.txt	LTP367	ltpFR2	17	9	PIGMENT	1066	n/a	n/a	0	0	0
1953.75048828125	n/a	WORD	4001281	wordpools/wasnorm_wordpool_576.txt	LTP367	ltpFR2	17	9	BRIEFCASE	175	n/a	n/a	0	0	0
1956.2333984375	n/a	WORD	4006366	wordpools/wasnorm_wordpool_576.txt	LTP367	ltpFR2	17	9	SCARECROW	1245	n/a	n/a	0	0	0
1958.91455078125	n/a	WORD	4011857	wordpools/wasnorm_wordpool_576.txt	LTP367	ltpFR2	17	9	PUDDING	1139	n/a	n/a	0	0	0
1961.38037109375	n/a	WORD	4016907	wordpools/wasnorm_wordpool_576.txt	LTP367	ltpFR2	17	9	HORSE	719	n/a	n/a	0	0	0
1964.17822265625	n/a	WORD	4022637	wordpools/wasnorm_wordpool_576.txt	LTP367	ltpFR2	17	9	FOOTBALL	591	n/a	n/a	0	0	0
1966.76123046875	n/a	WORD	4027927	wordpools/wasnorm_wordpool_576.txt	LTP367	ltpFR2	17	9	PECAN	1036	n/a	n/a	0	0	0
1969.54296875	n/a	WORD	4033624	wordpools/wasnorm_wordpool_576.txt	LTP367	ltpFR2	17	9	CRAYON	401	n/a	n/a	0	0	0
1972.02490234375	n/a	WORD	4038707	wordpools/wasnorm_wordpool_576.txt	LTP367	ltpFR2	17	9	PALACE	1006	n/a	n/a	0	0	0
1974.77392578125	n/a	WORD	4044337	wordpools/wasnorm_wordpool_576.txt	LTP367	ltpFR2	17	9	QUEEN	1149	n/a	n/a	0	0	0
1977.35595703125	n/a	WORD	4049625	wordpools/wasnorm_wordpool_576.txt	LTP367	ltpFR2	17	9	PIMPLE	1071	n/a	n/a	0	0	0
1980.0546875	n/a	WORD	4055152	wordpools/wasnorm_wordpool_576.txt	LTP367	ltpFR2	17	9	FIREPLACE	570	n/a	n/a	0	0	0
1982.51953125	n/a	WORD	4060200	wordpools/wasnorm_wordpool_576.txt	LTP367	ltpFR2	17	9	LUMBER	848	n/a	n/a	0	0	0
1985.0517578125	n/a	WORD	4065386	wordpools/wasnorm_wordpool_576.txt	LTP367	ltpFR2	17	9	CLOCK	325	n/a	n/a	0	0	0
1987.634765625	n/a	WORD	4070676	wordpools/wasnorm_wordpool_576.txt	LTP367	ltpFR2	17	9	CHEMIST	292	n/a	n/a	0	0	0
1990.2666015625	n/a	WORD	4076066	wordpools/wasnorm_wordpool_576.txt	LTP367	ltpFR2	17	9	BANKER	84	n/a	n/a	0	0	0
1992.6982421875	n/a	WORD	4081046	wordpools/wasnorm_wordpool_576.txt	LTP367	ltpFR2	17	9	RADISH	1158	n/a	n/a	0	0	0
1995.26318359375	n/a	WORD	4086299	wordpools/wasnorm_wordpool_576.txt	LTP367	ltpFR2	17	9	FARMER	553	n/a	n/a	0	0	0
1996.87939453125	n/a	START	4089609	n/a	LTP367	ltpFR2	17	n/a	n/a	n/a	14	n/a	n/a	n/a	n/a
1998.0751953125	n/a	DISTRACTOR	4092058	n/a	LTP367	ltpFR2	17	9	n/a	n/a	n/a	n/a	0	0	0
1998.0791015625	n/a	PROB	4092066	n/a	LTP367	ltpFR2	17	n/a	n/a	n/a	14	13	7	2	4
2000.62841796875	n/a	PROB	4097287	n/a	LTP367	ltpFR2	17	n/a	n/a	n/a	14	16	8	2	6
2003.193359375	n/a	PROB	4102540	n/a	LTP367	ltpFR2	17	n/a	n/a	n/a	14	6	1	3	2
2004.6259765625	n/a	PROB	4105474	n/a	LTP367	ltpFR2	17	n/a	n/a	n/a	14	20	5	6	9
2005.94189453125	n/a	PROB	4108169	n/a	LTP367	ltpFR2	17	n/a	n/a	n/a	14	7	2	4	1
2007.4580078125	n/a	PROB	4111274	n/a	LTP367	ltpFR2	17	n/a	n/a	n/a	14	20	7	8	5
2009.14013671875	n/a	PROB	4114719	n/a	LTP367	ltpFR2	17	n/a	n/a	n/a	14	8	1	6	1
2010.43994140625	n/a	PROB	4117381	n/a	LTP367	ltpFR2	17	n/a	n/a	n/a	14	17	7	2	8
2011.97314453125	n/a	PROB	4120521	n/a	LTP367	ltpFR2	17	n/a	n/a	n/a	14	18	3	8	7
2013.955078125	n/a	PROB	4124580	n/a	LTP367	ltpFR2	17	n/a	n/a	n/a	14	15	3	7	5
2015.1708984375	n/a	PROB	4127070	n/a	LTP367	ltpFR2	17	n/a	n/a	n/a	14	14	4	9	1
2016.68701171875	n/a	PROB	4130175	n/a	LTP367	ltpFR2	17	n/a	n/a	n/a	14	16	7	5	4
2018.56884765625	n/a	PROB	4134029	n/a	LTP367	ltpFR2	17	n/a	n/a	n/a	14	9	5	2	2
2019.98193359375	n/a	STOP	4136923	n/a	LTP367	ltpFR2	17	n/a	n/a	n/a	14	n/a	n/a	n/a	n/a
2022.7177734375	n/a	REC_START	4142526	n/a	LTP367	ltpFR2	17	9	n/a	n/a	n/a	n/a	0	0	0
2024.0185546875	n/a	REC_WORD	4145190	wordpools/wasnorm_wordpool_576.txt	LTP367	ltpFR2	17	9	NEUTRON	947	n/a	n/a	0	0	0
2025.08349609375	n/a	REC_WORD	4147371	wordpools/wasnorm_wordpool_576.txt	LTP367	ltpFR2	17	9	UMPIRE	1535	n/a	n/a	0	0	0
2025.87744140625	n/a	REC_WORD	4148997	wordpools/wasnorm_wordpool_576.txt	LTP367	ltpFR2	17	9	PROTON	1132	n/a	n/a	0	0	0
2027.0537109375	n/a	REC_WORD	4151406	wordpools/wasnorm_wordpool_576.txt	LTP367	ltpFR2	17	9	COFFEE	341	n/a	n/a	0	0	0
2027.99169921875	n/a	REC_WORD	4153327	wordpools/wasnorm_wordpool_576.txt	LTP367	ltpFR2	17	9	PISTON	1076	n/a	n/a	0	0	0
2028.9892578125	n/a	REC_WORD	4155370	wordpools/wasnorm_wordpool_576.txt	LTP367	ltpFR2	17	9	PIGMENT	1066	n/a	n/a	0	0	0
2030.21044921875	n/a	REC_WORD	4157871	wordpools/wasnorm_wordpool_576.txt	LTP367	ltpFR2	17	9	BRIEFCASE	175	n/a	n/a	0	0	0
2031.73046875	n/a	REC_WORD	4160984	wordpools/wasnorm_wordpool_576.txt	LTP367	ltpFR2	17	9	SCARECROW	1245	n/a	n/a	0	0	0
2033.07421875	n/a	REC_WORD	4163736	wordpools/wasnorm_wordpool_576.txt	LTP367	ltpFR2	17	9	PUDDING	1139	n/a	n/a	0	0	0
2034.2734375	n/a	REC_WORD	4166192	wordpools/wasnorm_wordpool_576.txt	LTP367	ltpFR2	17	9	HORSE	719	n/a	n/a	0	0	0
2035.95947265625	n/a	REC_WORD	4169645	wordpools/wasnorm_wordpool_576.txt	LTP367	ltpFR2	17	9	FOOTBALL	591	n/a	n/a	0	0	0
2037.7763671875	n/a	REC_WORD	4173366	wordpools/wasnorm_wordpool_576.txt	LTP367	ltpFR2	17	9	PALACE	1006	n/a	n/a	0	0	0
2038.67919921875	n/a	REC_WORD	4175215	wordpools/wasnorm_wordpool_576.txt	LTP367	ltpFR2	17	9	CRAYON	401	n/a	n/a	0	0	0
2039.67236328125	n/a	REC_WORD	4177249	wordpools/wasnorm_wordpool_576.txt	LTP367	ltpFR2	17	9	PECAN	1036	n/a	n/a	0	0	0
2040.623046875	n/a	REC_WORD	4179196	wordpools/wasnorm_wordpool_576.txt	LTP367	ltpFR2	17	9	QUEEN	1149	n/a	n/a	0	0	0
2041.6201171875	n/a	REC_WORD	4181238	wordpools/wasnorm_wordpool_576.txt	LTP367	ltpFR2	17	9	PIMPLE	1071	n/a	n/a	0	0	0
2042.6953125	n/a	REC_WORD	4183440	wordpools/wasnorm_wordpool_576.txt	LTP367	ltpFR2	17	9	FIREPLACE	570	n/a	n/a	0	0	0
2044.755859375	n/a	REC_WORD	4187660	wordpools/wasnorm_wordpool_576.txt	LTP367	ltpFR2	17	9	CLOCK	325	n/a	n/a	0	0	0
2046.2861328125	n/a	REC_WORD	4190794	wordpools/wasnorm_wordpool_576.txt	LTP367	ltpFR2	17	9	CHEMIST	292	n/a	n/a	0	0	0
2048.02294921875	n/a	REC_WORD	4194351	wordpools/wasnorm_wordpool_576.txt	LTP367	ltpFR2	17	9	BANKER	84	n/a	n/a	0	0	0
2048.955078125	n/a	REC_WORD	4196260	wordpools/wasnorm_wordpool_576.txt	LTP367	ltpFR2	17	9	TURNIP	1521	n/a	n/a	0	0	0
2049.89697265625	n/a	REC_WORD	4198189	wordpools/wasnorm_wordpool_576.txt	LTP367	ltpFR2	17	9	FARMER	553	n/a	n/a	0	0	0
2113.1572265625	n/a	WORD	4327746	wordpools/wasnorm_wordpool_576.txt	LTP367	ltpFR2	17	10	PLUTO	1092	n/a	n/a	0	0	0
2115.77294921875	n/a	WORD	4333103	wordpools/wasnorm_wordpool_576.txt	LTP367	ltpFR2	17	10	FLIPPER	580	n/a	n/a	0	0	0
2118.5380859375	n/a	WORD	4338766	wordpools/wasnorm_wordpool_576.txt	LTP367	ltpFR2	17	10	BOYFRIEND	162	n/a	n/a	0	0	0
2121.2041015625	n/a	WORD	4344226	wordpools/wasnorm_wordpool_576.txt	LTP367	ltpFR2	17	10	CYCLONE	431	n/a	n/a	0	0	0
2123.85205078125	n/a	WORD	4349649	wordpools/wasnorm_wordpool_576.txt	LTP367	ltpFR2	17	10	PUDDLE	1140	n/a	n/a	0	0	0
2126.41796875	n/a	WORD	4354904	wordpools/wasnorm_wordpool_576.txt	LTP367	ltpFR2	17	10	NOTEBOOK	959	n/a	n/a	0	0	0
2129.19970703125	n/a	WORD	4360601	wordpools/wasnorm_wordpool_576.txt	LTP367	ltpFR2	17	10	PLAID	1080	n/a	n/a	0	0	0
2131.64892578125	n/a	WORD	4365617	wordpools/wasnorm_wordpool_576.txt	LTP367	ltpFR2	17	10	FOX	598	n/a	n/a	0	0	0
2134.130859375	n/a	WORD	4370700	wordpools/wasnorm_wordpool_576.txt	LTP367	ltpFR2	17	10	DORM	488	n/a	n/a	0	0	0
2136.91259765625	n/a	WORD	4376397	wordpools/wasnorm_wordpool_576.txt	LTP367	ltpFR2	17	10	SHELTER	1282	n/a	n/a	0	0	0
2139.54443359375	n/a	WORD	4381787	wordpools/wasnorm_wordpool_576.txt	LTP367	ltpFR2	17	10	MARROW	872	n/a	n/a	0	0	0
2142.29345703125	n/a	WORD	4387417	wordpools/wasnorm_wordpool_576.txt	LTP367	ltpFR2	17	10	FILM	565	n/a	n/a	0	0	0
2144.859375	n/a	WORD	4392672	wordpools/wasnorm_wordpool_576.txt	LTP367	ltpFR2	17	10	POPCORN	1104	n/a	n/a	0	0	0
2147.57421875	n/a	WORD	4398232	wordpools/wasnorm_wordpool_576.txt	LTP367	ltpFR2	17	10	SLUG	1329	n/a	n/a	0	0	0
2150.2392578125	n/a	WORD	4403690	wordpools/wasnorm_wordpool_576.txt	LTP367	ltpFR2	17	10	DRESS	495	n/a	n/a	0	0	0
2152.72216796875	n/a	WORD	4408775	wordpools/wasnorm_wordpool_576.txt	LTP367	ltpFR2	17	10	GAZELLE	628	n/a	n/a	0	0	0
2155.25390625	n/a	WORD	4413960	wordpools/wasnorm_wordpool_576.txt	LTP367	ltpFR2	17	10	VENUS	1557	n/a	n/a	0	0	0
2158.01904296875	n/a	WORD	4419623	wordpools/wasnorm_wordpool_576.txt	LTP367	ltpFR2	17	10	PIZZA	1079	n/a	n/a	0	0	0
2160.7177734375	n/a	WORD	4425150	wordpools/wasnorm_wordpool_576.txt	LTP367	ltpFR2	17	10	TORTOISE	1486	n/a	n/a	0	0	0
2163.2666015625	n/a	WORD	4430370	wordpools/wasnorm_wordpool_576.txt	LTP367	ltpFR2	17	10	XEROX	1628	n/a	n/a	0	0	0
2165.9658203125	n/a	WORD	4435898	wordpools/wasnorm_wordpool_576.txt	LTP367	ltpFR2	17	10	ATLAS	53	n/a	n/a	0	0	0
2168.5634765625	n/a	WORD	4441218	wordpools/wasnorm_wordpool_576.txt	LTP367	ltpFR2	17	10	MARKET	871	n/a	n/a	0	0	0
2171.3125	n/a	WORD	4446848	wordpools/wasnorm_wordpool_576.txt	LTP367	ltpFR2	17	10	PORTRAIT	1111	n/a	n/a	0	0	0
2173.74462890625	n/a	WORD	4451829	wordpools/wasnorm_wordpool_576.txt	LTP367	ltpFR2	17	10	LION	827	n/a	n/a	0	0	0
2175.361328125	n/a	START	4455140	n/a	LTP367	ltpFR2	17	n/a	n/a	n/a	15	n/a	n/a	n/a	n/a
2176.4306640625	n/a	DISTRACTOR	4457330	n/a	LTP367	ltpFR2	17	10	n/a	n/a	n/a	n/a	0	0	0
2176.443359375	n/a	PROB	4457356	n/a	LTP367	ltpFR2	17	n/a	n/a	n/a	15	18	4	5	9
2178.4423828125	n/a	PROB	4461450	n/a	LTP367	ltpFR2	17	n/a	n/a	n/a	15	21	9	8	5
2181.32421875	n/a	PROB	4467352	n/a	LTP367	ltpFR2	17	n/a	n/a	n/a	15	25	8	9	8
2183.857421875	n/a	PROB	4472540	n/a	LTP367	ltpFR2	17	n/a	n/a	n/a	15	21	8	9	3
2185.822265625	n/a	PROB	4476564	n/a	LTP367	ltpFR2	17	n/a	n/a	n/a	15	21	8	6	7
2188.05517578125	n/a	PROB	4481137	n/a	LTP367	ltpFR2	17	n/a	n/a	n/a	15	11	8	2	1
2189.50390625	n/a	PROB	4484104	n/a	LTP367	ltpFR2	17	n/a	n/a	n/a	15	12	4	2	6
2190.7373046875	n/a	PROB	4486630	n/a	LTP367	ltpFR2	17	n/a	n/a	n/a	15	26	8	9	9
2192.60302734375	n/a	PROB	4490451	n/a	LTP367	ltpFR2	17	n/a	n/a	n/a	15	17	4	9	4
2194.634765625	n/a	PROB	4494612	n/a	LTP367	ltpFR2	17	n/a	n/a	n/a	15	16	7	5	4
2196.5341796875	n/a	PROB	4498502	n/a	LTP367	ltpFR2	17	n/a	n/a	n/a	15	12	3	8	1
2197.8779296875	n/a	STOP	4501254	n/a	LTP367	ltpFR2	17	n/a	n/a	n/a	15	n/a	n/a	n/a	n/a
2201.11572265625	n/a	REC_START	4507885	n/a	LTP367	ltpFR2	17	10	n/a	n/a	n/a	n/a	0	0	0
2204.04052734375	n/a	REC_WORD	4513875	wordpools/wasnorm_wordpool_576.txt	LTP367	ltpFR2	17	10	PLUTO	1092	n/a	n/a	0	0	0
2204.73486328125	n/a	REC_WORD	4515297	wordpools/wasnorm_wordpool_576.txt	LTP367	ltpFR2	17	10	FLIPPER	580	n/a	n/a	0	0	0
2205.845703125	n/a	REC_WORD	4517572	wordpools/wasnorm_wordpool_576.txt	LTP367	ltpFR2	17	10	BOYFRIEND	162	n/a	n/a	0	0	0
2209.74560546875	n/a	REC_WORD	4525559	wordpools/wasnorm_wordpool_576.txt	LTP367	ltpFR2	17	10	TWISTER	1530	n/a	n/a	0	0	0
2210.69580078125	n/a	REC_WORD	4527505	wordpools/wasnorm_wordpool_576.txt	LTP367	ltpFR2	17	10	PUDDLE	1140	n/a	n/a	0	0	0
2211.53759765625	n/a	REC_WORD	4529229	wordpools/wasnorm_wordpool_576.txt	LTP367	ltpFR2	17	10	FOX	598	n/a	n/a	0	0	0
2212.61328125	n/a	REC_WORD	4531432	wordpools/wasnorm_wordpool_576.txt	LTP367	ltpFR2	17	10	DORM	488	n/a	n/a	0	0	0
2213.51025390625	n/a	REC_WORD	4533269	wordpools/wasnorm_wordpool_576.txt	LTP367	ltpFR2	17	10	MARROW	872	n/a	n/a	0	0	0
2214.8466796875	n/a	REC_WORD	4536006	wordpools/wasnorm_wordpool_576.txt	LTP367	ltpFR2	17	10	FILM	565	n/a	n/a	0	0	0
2216.435546875	n/a	REC_WORD	4539260	wordpools/wasnorm_wordpool_576.txt	LTP367	ltpFR2	17	10	POPCORN	1104	n/a	n/a	0	0	0
2217.32958984375	n/a	REC_WORD	4541091	wordpools/wasnorm_wordpool_576.txt	LTP367	ltpFR2	17	10	SLUG	1329	n/a	n/a	0	0	0
2218.58740234375	n/a	REC_WORD	4543667	wordpools/wasnorm_wordpool_576.txt	LTP367	ltpFR2	17	10	DRESS	495	n/a	n/a	0	0	0
2219.7412109375	n/a	REC_WORD	4546030	wordpools/wasnorm_wordpool_576.txt	LTP367	ltpFR2	17	10	GAZELLE	628	n/a	n/a	0	0	0
2221.05029296875	n/a	REC_WORD	4548711	wordpools/wasnorm_wordpool_576.txt	LTP367	ltpFR2	17	10	VENUS	1557	n/a	n/a	0	0	0
2222.12109375	n/a	REC_WORD	4550904	wordpools/wasnorm_wordpool_576.txt	LTP367	ltpFR2	17	10	PIZZA	1079	n/a	n/a	0	0	0
2223.25146484375	n/a	REC_WORD	4553219	wordpools/wasnorm_wordpool_576.txt	LTP367	ltpFR2	17	10	TORTOISE	1486	n/a	n/a	0	0	0
2224.4501953125	n/a	REC_WORD	4555674	wordpools/wasnorm_wordpool_576.txt	LTP367	ltpFR2	17	10	XEROX	1628	n/a	n/a	0	0	0
2225.68896484375	n/a	REC_WORD	4558211	wordpools/wasnorm_wordpool_576.txt	LTP367	ltpFR2	17	10	ATLAS	53	n/a	n/a	0	0	0
2226.75390625	n/a	REC_WORD	4560392	wordpools/wasnorm_wordpool_576.txt	LTP367	ltpFR2	17	10	MARKET	871	n/a	n/a	0	0	0
2291.55517578125	n/a	WORD	4693105	wordpools/wasnorm_wordpool_576.txt	LTP367	ltpFR2	17	11	TURNIP	1521	n/a	n/a	0	0	0
2294.1044921875	n/a	WORD	4698326	wordpools/wasnorm_wordpool_576.txt	LTP367	ltpFR2	17	11	COLLEGE	346	n/a	n/a	0	0	0
2296.90234375	n/a	WORD	4704056	wordpools/wasnorm_wordpool_576.txt	LTP367	ltpFR2	17	11	CORAL	378	n/a	n/a	0	0	0
2299.66796875	n/a	WORD	4709720	wordpools/wasnorm_wordpool_576.txt	LTP367	ltpFR2	17	11	HIKER	708	n/a	n/a	0	0	0
2302.2001953125	n/a	WORD	4714906	wordpools/wasnorm_wordpool_576.txt	LTP367	ltpFR2	17	11	ELBOW	520	n/a	n/a	0	0	0
2304.73193359375	n/a	WORD	4720091	wordpools/wasnorm_wordpool_576.txt	LTP367	ltpFR2	17	11	OINTMENT	974	n/a	n/a	0	0	0
2307.23095703125	n/a	WORD	4725209	wordpools/wasnorm_wordpool_576.txt	LTP367	ltpFR2	17	11	RAZOR	1171	n/a	n/a	0	0	0
2309.8466796875	n/a	WORD	4730566	wordpools/wasnorm_wordpool_576.txt	LTP367	ltpFR2	17	11	COWBOY	395	n/a	n/a	0	0	0
2312.47900390625	n/a	WORD	4735957	wordpools/wasnorm_wordpool_576.txt	LTP367	ltpFR2	17	11	PASSAGE	1019	n/a	n/a	0	0	0
2315.0107421875	n/a	WORD	4741142	wordpools/wasnorm_wordpool_576.txt	LTP367	ltpFR2	17	11	HEADBAND	696	n/a	n/a	0	0	0
2317.74267578125	n/a	WORD	4746737	wordpools/wasnorm_wordpool_576.txt	LTP367	ltpFR2	17	11	CLIMBER	323	n/a	n/a	0	0	0
2320.4248046875	n/a	WORD	4752230	wordpools/wasnorm_wordpool_576.txt	LTP367	ltpFR2	17	11	LAGOON	795	n/a	n/a	0	0	0
2323.04052734375	n/a	WORD	4757587	wordpools/wasnorm_wordpool_576.txt	LTP367	ltpFR2	17	11	CANAL	226	n/a	n/a	0	0	0
2325.6552734375	n/a	WORD	4762942	wordpools/wasnorm_wordpool_576.txt	LTP367	ltpFR2	17	11	MARINE	869	n/a	n/a	0	0	0
2328.22119140625	n/a	WORD	4768197	wordpools/wasnorm_wordpool_576.txt	LTP367	ltpFR2	17	11	ISLAND	745	n/a	n/a	0	0	0
2330.9365234375	n/a	WORD	4773758	wordpools/wasnorm_wordpool_576.txt	LTP367	ltpFR2	17	11	SMOG	1330	n/a	n/a	0	0	0
2333.50244140625	n/a	WORD	4779013	wordpools/wasnorm_wordpool_576.txt	LTP367	ltpFR2	17	11	GHETTO	633	n/a	n/a	0	0	0
2336.01708984375	n/a	WORD	4784163	wordpools/wasnorm_wordpool_576.txt	LTP367	ltpFR2	17	11	PEACH	1031	n/a	n/a	0	0	0
2338.51611328125	n/a	WORD	4789281	wordpools/wasnorm_wordpool_576.txt	LTP367	ltpFR2	17	11	CARROT	249	n/a	n/a	0	0	0
2341.0322265625	n/a	WORD	4794434	wordpools/wasnorm_wordpool_576.txt	LTP367	ltpFR2	17	11	SCALLOP	1242	n/a	n/a	0	0	0
2343.7470703125	n/a	WORD	4799994	wordpools/wasnorm_wordpool_576.txt	LTP367	ltpFR2	17	11	HOSTESS	723	n/a	n/a	0	0	0
2346.39697265625	n/a	WORD	4805421	wordpools/wasnorm_wordpool_576.txt	LTP367	ltpFR2	17	11	TART	1436	n/a	n/a	0	0	0
2349.2109375	n/a	WORD	4811184	wordpools/wasnorm_wordpool_576.txt	LTP367	ltpFR2	17	11	TRIBE	1505	n/a	n/a	0	0	0
2351.876953125	n/a	WORD	4816644	wordpools/wasnorm_wordpool_576.txt	LTP367	ltpFR2	17	11	CLAMP	316	n/a	n/a	0	0	0
2353.49267578125	n/a	START	4819953	n/a	LTP367	ltpFR2	17	n/a	n/a	n/a	16	n/a	n/a	n/a	n/a
2354.40283203125	n/a	DISTRACTOR	4821817	n/a	LTP367	ltpFR2	17	11	n/a	n/a	n/a	n/a	0	0	0
2354.40869140625	n/a	PROB	4821829	n/a	LTP367	ltpFR2	17	n/a	n/a	n/a	16	26	8	7	7
2358.556640625	n/a	PROB	4830324	n/a	LTP367	ltpFR2	17	n/a	n/a	n/a	16	14	5	6	3
2360.75537109375	n/a	PROB	4834827	n/a	LTP367	ltpFR2	17	n/a	n/a	n/a	16	17	7	9	1
2362.404296875	n/a	PROB	4838204	n/a	LTP367	ltpFR2	17	n/a	n/a	n/a	16	22	7	7	8
2364.4873046875	n/a	PROB	4842470	n/a	LTP367	ltpFR2	17	n/a	n/a	n/a	16	16	9	3	4
2366.33642578125	n/a	PROB	4846257	n/a	LTP367	ltpFR2	17	n/a	n/a	n/a	16	19	2	8	9
2367.619140625	n/a	PROB	4848884	n/a	LTP367	ltpFR2	17	n/a	n/a	n/a	16	17	3	9	5
2369.6513671875	n/a	PROB	4853046	n/a	LTP367	ltpFR2	17	n/a	n/a	n/a	16	11	1	4	6
2370.900390625	n/a	PROB	4855604	n/a	LTP367	ltpFR2	17	n/a	n/a	n/a	16	14	2	4	8
2372.26611328125	n/a	PROB	4858401	n/a	LTP367	ltpFR2	17	n/a	n/a	n/a	16	15	3	9	3
2373.51611328125	n/a	PROB	4860961	n/a	LTP367	ltpFR2	17	n/a	n/a	n/a	16	19	5	8	6
2377.4912109375	n/a	STOP	4869102	n/a	LTP367	ltpFR2	17	n/a	n/a	n/a	16	n/a	n/a	n/a	n/a
2379.330078125	n/a	REC_START	4872868	n/a	LTP367	ltpFR2	17	11	n/a	n/a	n/a	n/a	0	0	0
2385.1806640625	n/a	REC_WORD	4884850	wordpools/wasnorm_wordpool_576.txt	LTP367	ltpFR2	17	11	TURNIP	1521	n/a	n/a	0	0	0
2386.56982421875	n/a	REC_WORD	4887695	wordpools/wasnorm_wordpool_576.txt	LTP367	ltpFR2	17	11	CORAL	378	n/a	n/a	0	0	0
2387.48681640625	n/a	REC_WORD	4889573	wordpools/wasnorm_wordpool_576.txt	LTP367	ltpFR2	17	11	COLLEGE	346	n/a	n/a	0	0	0
2389.24755859375	n/a	REC_WORD	4893179	wordpools/wasnorm_wordpool_576.txt	LTP367	ltpFR2	17	11	HIKER	708	n/a	n/a	0	0	0
2391.7587890625	n/a	REC_WORD	4898322	wordpools/wasnorm_wordpool_576.txt	LTP367	ltpFR2	17	11	OINTMENT	974	n/a	n/a	0	0	0
2392.60986328125	n/a	REC_WORD	4900065	wordpools/wasnorm_wordpool_576.txt	LTP367	ltpFR2	17	11	ELBOW	520	n/a	n/a	0	0	0
2393.57373046875	n/a	REC_WORD	4902039	wordpools/wasnorm_wordpool_576.txt	LTP367	ltpFR2	17	11	RAZOR	1171	n/a	n/a	0	0	0
2395.2734375	n/a	REC_WORD	4905520	wordpools/wasnorm_wordpool_576.txt	LTP367	ltpFR2	17	11	COWBOY	395	n/a	n/a	0	0	0
2396.19775390625	n/a	REC_WORD	4907413	wordpools/wasnorm_wordpool_576.txt	LTP367	ltpFR2	17	11	PASSAGE	1019	n/a	n/a	0	0	0
2397.32568359375	n/a	REC_WORD	4909723	wordpools/wasnorm_wordpool_576.txt	LTP367	ltpFR2	17	11	HEADBAND	696	n/a	n/a	0	0	0
2398.41064453125	n/a	REC_WORD	4911945	wordpools/wasnorm_wordpool_576.txt	LTP367	ltpFR2	17	11	CLIMBER	323	n/a	n/a	0	0	0
2400.27734375	n/a	REC_WORD	4915768	wordpools/wasnorm_wordpool_576.txt	LTP367	ltpFR2	17	11	LAGOON	795	n/a	n/a	0	0	0
2401.3232421875	n/a	REC_WORD	4917910	wordpools/wasnorm_wordpool_576.txt	LTP367	ltpFR2	17	11	MARINE	869	n/a	n/a	0	0	0
2402.6513671875	n/a	REC_WORD	4920630	wordpools/wasnorm_wordpool_576.txt	LTP367	ltpFR2	17	11	ISLAND	745	n/a	n/a	0	0	0
2405.67919921875	n/a	REC_WORD	4926831	wordpools/wasnorm_wordpool_576.txt	LTP367	ltpFR2	17	11	PEACH	1031	n/a	n/a	0	0	0
2407.14306640625	n/a	REC_WORD	4929829	wordpools/wasnorm_wordpool_576.txt	LTP367	ltpFR2	17	11	CARROT	249	n/a	n/a	0	0	0
2408.6962890625	n/a	REC_WORD	4933010	wordpools/wasnorm_wordpool_576.txt	LTP367	ltpFR2	17	11	HOSTESS	723	n/a	n/a	0	0	0
2409.9501953125	n/a	REC_WORD	4935578	wordpools/wasnorm_wordpool_576.txt	LTP367	ltpFR2	17	11	TART	1436	n/a	n/a	0	0	0
2411.10498046875	n/a	REC_WORD	4937943	wordpools/wasnorm_wordpool_576.txt	LTP367	ltpFR2	17	11	TRIBE	1505	n/a	n/a	0	0	0
2412.4599609375	n/a	REC_WORD	4940718	wordpools/wasnorm_wordpool_576.txt	LTP367	ltpFR2	17	11	CLAMP	316	n/a	n/a	0	0	0
2419.99609375	n/a	REC_WORD	4956152	wordpools/wasnorm_wordpool_576.txt	LTP367	ltpFR2	17	11	CANAL	226	n/a	n/a	0	0	0
2469.81982421875	n/a	WORD	5058191	wordpools/wasnorm_wordpool_576.txt	LTP367	ltpFR2	17	12	BOARD	143	n/a	n/a	0	0	0
2472.2685546875	n/a	WORD	5063206	wordpools/wasnorm_wordpool_576.txt	LTP367	ltpFR2	17	12	SANDWICH	1232	n/a	n/a	0	0	0
2474.9345703125	n/a	WORD	5068666	wordpools/wasnorm_wordpool_576.txt	LTP367	ltpFR2	17	12	BEAST	108	n/a	n/a	0	0	0
2477.63330078125	n/a	WORD	5074193	wordpools/wasnorm_wordpool_576.txt	LTP367	ltpFR2	17	12	MAMMAL	861	n/a	n/a	0	0	0
2480.28125	n/a	WORD	5079616	wordpools/wasnorm_wordpool_576.txt	LTP367	ltpFR2	17	12	TAXI	1438	n/a	n/a	0	0	0
2483.06298828125	n/a	WORD	5085313	wordpools/wasnorm_wordpool_576.txt	LTP367	ltpFR2	17	12	MESSAGE	888	n/a	n/a	0	0	0
2485.81201171875	n/a	WORD	5090943	wordpools/wasnorm_wordpool_576.txt	LTP367	ltpFR2	17	12	SALT	1229	n/a	n/a	0	0	0
2488.361328125	n/a	WORD	5096164	wordpools/wasnorm_wordpool_576.txt	LTP367	ltpFR2	17	12	PEPPER	1047	n/a	n/a	0	0	0
2491.04296875	n/a	WORD	5101656	wordpools/wasnorm_wordpool_576.txt	LTP367	ltpFR2	17	12	STREAM	1392	n/a	n/a	0	0	0
2493.708984375	n/a	WORD	5107116	wordpools/wasnorm_wordpool_576.txt	LTP367	ltpFR2	17	12	DRIVER	499	n/a	n/a	0	0	0
2496.3408203125	n/a	WORD	5112506	wordpools/wasnorm_wordpool_576.txt	LTP367	ltpFR2	17	12	COURSE	390	n/a	n/a	0	0	0
2498.8896484375	n/a	WORD	5117726	wordpools/wasnorm_wordpool_576.txt	LTP367	ltpFR2	17	12	FLUTE	585	n/a	n/a	0	0	0
2501.388671875	n/a	WORD	5122844	wordpools/wasnorm_wordpool_576.txt	LTP367	ltpFR2	17	12	JUDGE	761	n/a	n/a	0	0	0
2503.853515625	n/a	WORD	5127892	wordpools/wasnorm_wordpool_576.txt	LTP367	ltpFR2	17	12	DENTIST	447	n/a	n/a	0	0	0
2506.53564453125	n/a	WORD	5133385	wordpools/wasnorm_wordpool_576.txt	LTP367	ltpFR2	17	12	DENIM	446	n/a	n/a	0	0	0
2509.08447265625	n/a	WORD	5138605	wordpools/wasnorm_wordpool_576.txt	LTP367	ltpFR2	17	12	HAMPER	682	n/a	n/a	0	0	0
2511.5166015625	n/a	WORD	5143586	wordpools/wasnorm_wordpool_576.txt	LTP367	ltpFR2	17	12	NURSE	963	n/a	n/a	0	0	0
2514.24853515625	n/a	WORD	5149181	wordpools/wasnorm_wordpool_576.txt	LTP367	ltpFR2	17	12	RELISH	1183	n/a	n/a	0	0	0
2516.697265625	n/a	WORD	5154196	wordpools/wasnorm_wordpool_576.txt	LTP367	ltpFR2	17	12	SLIME	1327	n/a	n/a	0	0	0
2519.17919921875	n/a	WORD	5159279	wordpools/wasnorm_wordpool_576.txt	LTP367	ltpFR2	17	12	PANTHER	1009	n/a	n/a	0	0	0
2521.97802734375	n/a	WORD	5165011	wordpools/wasnorm_wordpool_576.txt	LTP367	ltpFR2	17	12	SNAIL	1332	n/a	n/a	0	0	0
2524.47705078125	n/a	WORD	5170129	wordpools/wasnorm_wordpool_576.txt	LTP367	ltpFR2	17	12	MAPLE	866	n/a	n/a	0	0	0
2526.9091796875	n/a	WORD	5175110	wordpools/wasnorm_wordpool_576.txt	LTP367	ltpFR2	17	12	FINGER	567	n/a	n/a	0	0	0
2529.375	n/a	WORD	5180160	wordpools/wasnorm_wordpool_576.txt	LTP367	ltpFR2	17	12	FUNGUS	614	n/a	n/a	0	0	0
2530.99072265625	n/a	START	5183469	n/a	LTP367	ltpFR2	17	n/a	n/a	n/a	17	n/a	n/a	n/a	n/a
2531.8037109375	n/a	DISTRACTOR	5185134	n/a	LTP367	ltpFR2	17	12	n/a	n/a	n/a	n/a	0	0	0
2531.80712890625	n/a	PROB	5185141	n/a	LTP367	ltpFR2	17	n/a	n/a	n/a	17	11	5	2	4
2533.77294921875	n/a	PROB	5189167	n/a	LTP367	ltpFR2	17	n/a	n/a	n/a	17	25	7	9	9
2535.73876953125	n/a	PROB	5193193	n/a	LTP367	ltpFR2	17	n/a	n/a	n/a	17	17	7	4	6
2537.2548828125	n/a	PROB	5196298	n/a	LTP367	ltpFR2	17	n/a	n/a	n/a	17	15	1	8	6
2540.8857421875	n/a	PROB	5203734	n/a	LTP367	ltpFR2	17	n/a	n/a	n/a	17	16	1	6	9
2542.46875	n/a	PROB	5206976	n/a	LTP367	ltpFR2	17	n/a	n/a	n/a	17	17	8	3	6
2544.50048828125	n/a	PROB	5211137	n/a	LTP367	ltpFR2	17	n/a	n/a	n/a	17	15	2	9	4
2545.93359375	n/a	PROB	5214072	n/a	LTP367	ltpFR2	17	n/a	n/a	n/a	17	12	9	1	2
2547.28271484375	n/a	PROB	5216835	n/a	LTP367	ltpFR2	17	n/a	n/a	n/a	17	16	6	7	3
2548.58251953125	n/a	PROB	5219497	n/a	LTP367	ltpFR2	17	n/a	n/a	n/a	17	14	3	4	7
2549.8486328125	n/a	PROB	5222090	n/a	LTP367	ltpFR2	17	n/a	n/a	n/a	17	14	9	1	4
2551.314453125	n/a	PROB	5225092	n/a	LTP367	ltpFR2	17	n/a	n/a	n/a	17	15	6	4	5
2552.314453125	n/a	PROB	5227140	n/a	LTP367	ltpFR2	17	n/a	n/a	n/a	17	14	3	7	4
2553.7353515625	n/a	STOP	5230050	n/a	LTP367	ltpFR2	17	n/a	n/a	n/a	17	n/a	n/a	n/a	n/a
2556.87939453125	n/a	REC_START	5236489	n/a	LTP367	ltpFR2	17	12	n/a	n/a	n/a	n/a	0	0	0
2558.27197265625	n/a	REC_WORD_VV	5239341	wordpools/wasnorm_wordpool_576.txt	LTP367	ltpFR2	17	12	<>	-1	n/a	n/a	0	0	0
2559.77099609375	n/a	REC_WORD	5242411	wordpools/wasnorm_wordpool_576.txt	LTP367	ltpFR2	17	12	BOARD	143	n/a	n/a	0	0	0
2560.63916015625	n/a	REC_WORD	5244189	wordpools/wasnorm_wordpool_576.txt	LTP367	ltpFR2	17	12	SANDWICH	1232	n/a	n/a	0	0	0
2561.947265625	n/a	REC_WORD	5246868	wordpools/wasnorm_wordpool_576.txt	LTP367	ltpFR2	17	12	BEAST	108	n/a	n/a	0	0	0
2563.08203125	n/a	REC_WORD	5249192	wordpools/wasnorm_wordpool_576.txt	LTP367	ltpFR2	17	12	MAMMAL	861	n/a	n/a	0	0	0
2565.828125	n/a	REC_WORD	5254816	wordpools/wasnorm_wordpool_576.txt	LTP367	ltpFR2	17	12	DRIVER	499	n/a	n/a	0	0	0
2567.07373046875	n/a	REC_WORD	5257367	wordpools/wasnorm_wordpool_576.txt	LTP367	ltpFR2	17	12	MESSAGE	888	n/a	n/a	0	0	0
2567.90673828125	n/a	REC_WORD	5259073	wordpools/wasnorm_wordpool_576.txt	LTP367	ltpFR2	17	12	SALT	1229	n/a	n/a	0	0	0
2568.8408203125	n/a	REC_WORD	5260986	wordpools/wasnorm_wordpool_576.txt	LTP367	ltpFR2	17	12	PEPPER	1047	n/a	n/a	0	0	0
2569.43701171875	n/a	REC_WORD	5262207	wordpools/wasnorm_wordpool_576.txt	LTP367	ltpFR2	17	12	STREAM	1392	n/a	n/a	0	0	0
2570.55908203125	n/a	REC_WORD	5264505	wordpools/wasnorm_wordpool_576.txt	LTP367	ltpFR2	17	12	COURSE	390	n/a	n/a	0	0	0
2571.98876953125	n/a	REC_WORD	5267433	wordpools/wasnorm_wordpool_576.txt	LTP367	ltpFR2	17	12	JUDGE	761	n/a	n/a	0	0	0
2572.64697265625	n/a	REC_WORD	5268781	wordpools/wasnorm_wordpool_576.txt	LTP367	ltpFR2	17	12	DENTIST	447	n/a	n/a	0	0	0
2573.5439453125	n/a	REC_WORD	5270618	wordpools/wasnorm_wordpool_576.txt	LTP367	ltpFR2	17	12	DENIM	446	n/a	n/a	0	0	0
2574.177734375	n/a	REC_WORD	5271916	wordpools/wasnorm_wordpool_576.txt	LTP367	ltpFR2	17	12	HAMPER	682	n/a	n/a	0	0	0
2575.89794921875	n/a	REC_WORD	5275439	wordpools/wasnorm_wordpool_576.txt	LTP367	ltpFR2	17	12	NURSE	963	n/a	n/a	0	0	0
2576.73876953125	n/a	REC_WORD	5277161	wordpools/wasnorm_wordpool_576.txt	LTP367	ltpFR2	17	12	RELISH	1183	n/a	n/a	0	0	0
2577.794921875	n/a	REC_WORD	5279324	wordpools/wasnorm_wordpool_576.txt	LTP367	ltpFR2	17	12	SLIME	1327	n/a	n/a	0	0	0
2578.78955078125	n/a	REC_WORD	5281361	wordpools/wasnorm_wordpool_576.txt	LTP367	ltpFR2	17	12	PANTHER	1009	n/a	n/a	0	0	0
2582.12255859375	n/a	REC_WORD	5288187	wordpools/wasnorm_wordpool_576.txt	LTP367	ltpFR2	17	12	SNAIL	1332	n/a	n/a	0	0	0
2585.435546875	n/a	REC_WORD	5294972	wordpools/wasnorm_wordpool_576.txt	LTP367	ltpFR2	17	12	FINGER	567	n/a	n/a	0	0	0
2586.32421875	n/a	REC_WORD	5296792	wordpools/wasnorm_wordpool_576.txt	LTP367	ltpFR2	17	12	FUNGUS	614	n/a	n/a	0	0	0
2647.3017578125	n/a	DISTRACTOR	5421674	n/a	LTP367	ltpFR2	17	13	n/a	n/a	n/a	n/a	0	0	0
2647.3017578125	n/a	START	5421674	n/a	LTP367	ltpFR2	17	n/a	n/a	n/a	18	n/a	n/a	n/a	n/a
2647.31884765625	n/a	PROB	5421709	n/a	LTP367	ltpFR2	17	n/a	n/a	n/a	18	21	6	6	9
2649.06787109375	n/a	PROB	5425291	n/a	LTP367	ltpFR2	17	n/a	n/a	n/a	18	17	7	1	9
2651.06689453125	n/a	PROB	5429385	n/a	LTP367	ltpFR2	17	n/a	n/a	n/a	18	14	1	4	9
2652.66552734375	n/a	PROB	5432659	n/a	LTP367	ltpFR2	17	n/a	n/a	n/a	18	22	8	6	8
2654.9814453125	n/a	PROB	5437402	n/a	LTP367	ltpFR2	17	n/a	n/a	n/a	18	17	4	7	6
2656.78076171875	n/a	PROB	5441087	n/a	LTP367	ltpFR2	17	n/a	n/a	n/a	18	8	1	5	2
2657.9462890625	n/a	PROB	5443474	n/a	LTP367	ltpFR2	17	n/a	n/a	n/a	18	8	1	6	1
2659.1796875	n/a	PROB	5446000	n/a	LTP367	ltpFR2	17	n/a	n/a	n/a	18	19	8	8	3
2661.0283203125	n/a	PROB	5449786	n/a	LTP367	ltpFR2	17	n/a	n/a	n/a	18	14	3	6	5
2663.26025390625	n/a	PROB	5454357	n/a	LTP367	ltpFR2	17	n/a	n/a	n/a	18	17	6	8	3
2665.943359375	n/a	PROB	5459852	n/a	LTP367	ltpFR2	17	n/a	n/a	n/a	18	18	4	8	6
2671.30126953125	n/a	STOP	5470825	n/a	LTP367	ltpFR2	17	n/a	n/a	n/a	18	n/a	n/a	n/a	n/a
2672.34033203125	n/a	WORD	5472953	wordpools/wasnorm_wordpool_576.txt	LTP367	ltpFR2	17	13	TURKEY	1520	n/a	n/a	0	0	0
2674.77197265625	n/a	WORD	5477933	wordpools/wasnorm_wordpool_576.txt	LTP367	ltpFR2	17	13	STAKE	1368	n/a	n/a	0	0	0
2677.50390625	n/a	WORD	5483528	wordpools/wasnorm_wordpool_576.txt	LTP367	ltpFR2	17	13	BEAKER	104	n/a	n/a	0	0	0
2680.2861328125	n/a	WORD	5489226	wordpools/wasnorm_wordpool_576.txt	LTP367	ltpFR2	17	13	GUITAR	670	n/a	n/a	0	0	0
2683.06787109375	n/a	WORD	5494923	wordpools/wasnorm_wordpool_576.txt	LTP367	ltpFR2	17	13	TUBA	1515	n/a	n/a	0	0	0
2685.53369140625	n/a	WORD	5499973	wordpools/wasnorm_wordpool_576.txt	LTP367	ltpFR2	17	13	TOMBSTONE	1478	n/a	n/a	0	0	0
2688.1328125	n/a	WORD	5505296	wordpools/wasnorm_wordpool_576.txt	LTP367	ltpFR2	17	13	CHAUFFEUR	283	n/a	n/a	0	0	0
2690.8974609375	n/a	WORD	5510958	wordpools/wasnorm_wordpool_576.txt	LTP367	ltpFR2	17	13	PUPIL	1143	n/a	n/a	0	0	0
2693.4296875	n/a	WORD	5516144	wordpools/wasnorm_wordpool_576.txt	LTP367	ltpFR2	17	13	SHIRT	1287	n/a	n/a	0	0	0
2696.1953125	n/a	WORD	5521808	wordpools/wasnorm_wordpool_576.txt	LTP367	ltpFR2	17	13	GOBLIN	645	n/a	n/a	0	0	0
2698.84326171875	n/a	WORD	5527231	wordpools/wasnorm_wordpool_576.txt	LTP367	ltpFR2	17	13	PISTOL	1075	n/a	n/a	0	0	0
2701.359375	n/a	WORD	5532384	wordpools/wasnorm_wordpool_576.txt	LTP367	ltpFR2	17	13	FOOT	590	n/a	n/a	0	0	0
2703.97412109375	n/a	WORD	5537739	wordpools/wasnorm_wordpool_576.txt	LTP367	ltpFR2	17	13	DANCER	437	n/a	n/a	0	0	0
2706.607421875	n/a	WORD	5543132	wordpools/wasnorm_wordpool_576.txt	LTP367	ltpFR2	17	13	PAIL	1002	n/a	n/a	0	0	0
2709.42236328125	n/a	WORD	5548897	wordpools/wasnorm_wordpool_576.txt	LTP367	ltpFR2	17	13	CURTAIN	427	n/a	n/a	0	0	0
2711.93701171875	n/a	WORD	5554047	wordpools/wasnorm_wordpool_576.txt	LTP367	ltpFR2	17	13	GLASS	639	n/a	n/a	0	0	0
2714.48583984375	n/a	WORD	5559267	wordpools/wasnorm_wordpool_576.txt	LTP367	ltpFR2	17	13	DINER	467	n/a	n/a	0	0	0
2717.2177734375	n/a	WORD	5564862	wordpools/wasnorm_wordpool_576.txt	LTP367	ltpFR2	17	13	PICTURE	1061	n/a	n/a	0	0	0
2719.833984375	n/a	WORD	5570220	wordpools/wasnorm_wordpool_576.txt	LTP367	ltpFR2	17	13	MONEY	908	n/a	n/a	0	0	0
2722.3837890625	n/a	WORD	5575442	wordpools/wasnorm_wordpool_576.txt	LTP367	ltpFR2	17	13	NECKLACE	940	n/a	n/a	0	0	0
2725.03076171875	n/a	WORD	5580863	wordpools/wasnorm_wordpool_576.txt	LTP367	ltpFR2	17	13	CLAM	315	n/a	n/a	0	0	0
2727.57958984375	n/a	WORD	5586083	wordpools/wasnorm_wordpool_576.txt	LTP367	ltpFR2	17	13	SUBWAY	1400	n/a	n/a	0	0	0
2730.07861328125	n/a	WORD	5591201	wordpools/wasnorm_wordpool_576.txt	LTP367	ltpFR2	17	13	FRAGRANCE	599	n/a	n/a	0	0	0
2732.6943359375	n/a	WORD	5596558	wordpools/wasnorm_wordpool_576.txt	LTP367	ltpFR2	17	13	DRAWING	494	n/a	n/a	0	0	0
2734.310546875	n/a	START	5599868	n/a	LTP367	ltpFR2	17	n/a	n/a	n/a	19	n/a	n/a	n/a	n/a
2735.34765625	n/a	DISTRACTOR	5601992	n/a	LTP367	ltpFR2	17	13	n/a	n/a	n/a	n/a	0	0	0
2735.359375	n/a	PROB	5602016	n/a	LTP367	ltpFR2	17	n/a	n/a	n/a	19	15	1	7	7
2737.09228515625	n/a	PROB	5605565	n/a	LTP367	ltpFR2	17	n/a	n/a	n/a	19	17	4	5	8
2739.05712890625	n/a	PROB	5609589	n/a	LTP367	ltpFR2	17	n/a	n/a	n/a	19	18	9	4	5
2740.39013671875	n/a	PROB	5612319	n/a	LTP367	ltpFR2	17	n/a	n/a	n/a	19	21	5	8	8
2741.92333984375	n/a	PROB	5615459	n/a	LTP367	ltpFR2	17	n/a	n/a	n/a	19	24	8	9	7
2743.9892578125	n/a	PROB	5619690	n/a	LTP367	ltpFR2	17	n/a	n/a	n/a	19	14	6	1	7
2745.50537109375	n/a	PROB	5622795	n/a	LTP367	ltpFR2	17	n/a	n/a	n/a	19	17	4	7	6
2746.9541015625	n/a	PROB	5625762	n/a	LTP367	ltpFR2	17	n/a	n/a	n/a	19	21	9	4	8
2748.72021484375	n/a	PROB	5629379	n/a	LTP367	ltpFR2	17	n/a	n/a	n/a	19	21	5	9	7
2752.28515625	n/a	PROB	5636680	n/a	LTP367	ltpFR2	17	n/a	n/a	n/a	19	15	5	8	2
2753.35107421875	n/a	PROB	5638863	n/a	LTP367	ltpFR2	17	n/a	n/a	n/a	19	8	1	4	3
2754.833984375	n/a	PROB	5641900	n/a	LTP367	ltpFR2	17	n/a	n/a	n/a	19	18	6	3	9
2758.31005859375	n/a	STOP	5649019	n/a	LTP367	ltpFR2	17	n/a	n/a	n/a	19	n/a	n/a	n/a	n/a
2760.16455078125	n/a	REC_START	5652817	n/a	LTP367	ltpFR2	17	13	n/a	n/a	n/a	n/a	0	0	0
2762.20166015625	n/a	REC_WORD	5656989	wordpools/wasnorm_wordpool_576.txt	LTP367	ltpFR2	17	13	TURKEY	1520	n/a	n/a	0	0	0
2763.14990234375	n/a	REC_WORD	5658931	wordpools/wasnorm_wordpool_576.txt	LTP367	ltpFR2	17	13	STAKE	1368	n/a	n/a	0	0	0
2765.07666015625	n/a	REC_WORD	5662877	wordpools/wasnorm_wordpool_576.txt	LTP367	ltpFR2	17	13	BEAKER	104	n/a	n/a	0	0	0
2766.1845703125	n/a	REC_WORD	5665146	wordpools/wasnorm_wordpool_576.txt	LTP367	ltpFR2	17	13	GUITAR	670	n/a	n/a	0	0	0
2767.48779296875	n/a	REC_WORD	5667815	wordpools/wasnorm_wordpool_576.txt	LTP367	ltpFR2	17	13	TUBA	1515	n/a	n/a	0	0	0
2768.42236328125	n/a	REC_WORD	5669729	wordpools/wasnorm_wordpool_576.txt	LTP367	ltpFR2	17	13	CHAUFFEUR	283	n/a	n/a	0	0	0
2769.732421875	n/a	REC_WORD	5672412	wordpools/wasnorm_wordpool_576.txt	LTP367	ltpFR2	17	13	TOMBSTONE	1478	n/a	n/a	0	0	0
2771.04638671875	n/a	REC_WORD	5675103	wordpools/wasnorm_wordpool_576.txt	LTP367	ltpFR2	17	13	PUPIL	1143	n/a	n/a	0	0	0
2774.74853515625	n/a	REC_WORD	5682685	wordpools/wasnorm_wordpool_576.txt	LTP367	ltpFR2	17	13	SHIRT	1287	n/a	n/a	0	0	0
2775.92431640625	n/a	REC_WORD	5685093	wordpools/wasnorm_wordpool_576.txt	LTP367	ltpFR2	17	13	GOBLIN	645	n/a	n/a	0	0	0
2776.85107421875	n/a	REC_WORD	5686991	wordpools/wasnorm_wordpool_576.txt	LTP367	ltpFR2	17	13	PISTOL	1075	n/a	n/a	0	0	0
2777.5791015625	n/a	REC_WORD	5688482	wordpools/wasnorm_wordpool_576.txt	LTP367	ltpFR2	17	13	FOOT	590	n/a	n/a	0	0	0
2778.75537109375	n/a	REC_WORD	5690891	wordpools/wasnorm_wordpool_576.txt	LTP367	ltpFR2	17	13	DANCER	437	n/a	n/a	0	0	0
2779.72802734375	n/a	REC_WORD	5692883	wordpools/wasnorm_wordpool_576.txt	LTP367	ltpFR2	17	13	PAIL	1002	n/a	n/a	0	0	0
2780.7353515625	n/a	REC_WORD	5694946	wordpools/wasnorm_wordpool_576.txt	LTP367	ltpFR2	17	13	CURTAIN	427	n/a	n/a	0	0	0
2781.85107421875	n/a	REC_WORD	5697231	wordpools/wasnorm_wordpool_576.txt	LTP367	ltpFR2	17	13	DINER	467	n/a	n/a	0	0	0
2786.0341796875	n/a	REC_WORD	5705798	wordpools/wasnorm_wordpool_576.txt	LTP367	ltpFR2	17	13	PAINTING	1005	n/a	n/a	0	0	0
2787.75390625	n/a	REC_WORD	5709320	wordpools/wasnorm_wordpool_576.txt	LTP367	ltpFR2	17	13	MONEY	908	n/a	n/a	0	0	0
2792.6318359375	n/a	REC_WORD_VV	5719310	wordpools/wasnorm_wordpool_576.txt	LTP367	ltpFR2	17	13	<>	-1	n/a	n/a	0	0	0
2793.927734375	n/a	REC_WORD	5721964	wordpools/wasnorm_wordpool_576.txt	LTP367	ltpFR2	17	13	NECKLACE	940	n/a	n/a	0	0	0
2794.99462890625	n/a	REC_WORD	5724149	wordpools/wasnorm_wordpool_576.txt	LTP367	ltpFR2	17	13	CLAM	315	n/a	n/a	0	0	0
2796.06689453125	n/a	REC_WORD	5726345	wordpools/wasnorm_wordpool_576.txt	LTP367	ltpFR2	17	13	SUBWAY	1400	n/a	n/a	0	0	0
2797.11083984375	n/a	REC_WORD	5728483	wordpools/wasnorm_wordpool_576.txt	LTP367	ltpFR2	17	13	FRAGRANCE	599	n/a	n/a	0	0	0
2798.15771484375	n/a	REC_WORD	5730627	wordpools/wasnorm_wordpool_576.txt	LTP367	ltpFR2	17	13	DRAWING	494	n/a	n/a	0	0	0
2850.6044921875	n/a	DISTRACTOR	5838038	n/a	LTP367	ltpFR2	17	14	n/a	n/a	n/a	n/a	0	0	0
2850.6044921875	n/a	START	5838038	n/a	LTP367	ltpFR2	17	n/a	n/a	n/a	20	n/a	n/a	n/a	n/a
2850.62109375	n/a	PROB	5838072	n/a	LTP367	ltpFR2	17	n/a	n/a	n/a	20	17	1	7	9
2852.97021484375	n/a	PROB	5842883	n/a	LTP367	ltpFR2	17	n/a	n/a	n/a	20	15	7	7	1
2854.119140625	n/a	PROB	5845236	n/a	LTP367	ltpFR2	17	n/a	n/a	n/a	20	14	5	4	5
2855.80224609375	n/a	PROB	5848683	n/a	LTP367	ltpFR2	17	n/a	n/a	n/a	20	15	2	7	6
2857.734375	n/a	PROB	5852640	n/a	LTP367	ltpFR2	17	n/a	n/a	n/a	20	16	2	8	6
2858.93408203125	n/a	PROB	5855097	n/a	LTP367	ltpFR2	17	n/a	n/a	n/a	20	17	5	8	4
2860.8330078125	n/a	PROB	5858986	n/a	LTP367	ltpFR2	17	n/a	n/a	n/a	20	14	1	6	7
2862.06591796875	n/a	PROB	5861511	n/a	LTP367	ltpFR2	17	n/a	n/a	n/a	20	13	5	5	3
2863.4150390625	n/a	PROB	5864274	n/a	LTP367	ltpFR2	17	n/a	n/a	n/a	20	20	4	7	9
2865.03076171875	n/a	PROB	5867583	n/a	LTP367	ltpFR2	17	n/a	n/a	n/a	20	17	5	7	5
2866.263671875	n/a	PROB	5870108	n/a	LTP367	ltpFR2	17	n/a	n/a	n/a	20	19	6	9	4
2867.4970703125	n/a	PROB	5872634	n/a	LTP367	ltpFR2	17	n/a	n/a	n/a	20	14	6	2	6
2869.0126953125	n/a	PROB	5875738	n/a	LTP367	ltpFR2	17	n/a	n/a	n/a	20	6	4	1	1
2870.57763671875	n/a	PROB	5878943	n/a	LTP367	ltpFR2	17	n/a	n/a	n/a	20	18	8	2	8
2871.64453125	n/a	PROB	5881128	n/a	LTP367	ltpFR2	17	n/a	n/a	n/a	20	25	7	9	9
2873.78564453125	n/a	STOP	5885513	n/a	LTP367	ltpFR2	17	n/a	n/a	n/a	20	n/a	n/a	n/a	n/a
2875.42578125	n/a	WORD	5888872	wordpools/wasnorm_wordpool_576.txt	LTP367	ltpFR2	17	14	ROCKET	1202	n/a	n/a	0	0	0
2878.0244140625	n/a	WORD	5894194	wordpools/wasnorm_wordpool_576.txt	LTP367	ltpFR2	17	14	MOTOR	922	n/a	n/a	0	0	0
2880.4736328125	n/a	WORD	5899210	wordpools/wasnorm_wordpool_576.txt	LTP367	ltpFR2	17	14	LAMP	798	n/a	n/a	0	0	0
2883.0556640625	n/a	WORD	5904498	wordpools/wasnorm_wordpool_576.txt	LTP367	ltpFR2	17	14	SURVEY	1414	n/a	n/a	0	0	0
2885.50439453125	n/a	WORD	5909513	wordpools/wasnorm_wordpool_576.txt	LTP367	ltpFR2	17	14	BISON	131	n/a	n/a	0	0	0
2888.05322265625	n/a	WORD	5914733	wordpools/wasnorm_wordpool_576.txt	LTP367	ltpFR2	17	14	LASER	801	n/a	n/a	0	0	0
2890.76806640625	n/a	WORD	5920293	wordpools/wasnorm_wordpool_576.txt	LTP367	ltpFR2	17	14	CHURCH	307	n/a	n/a	0	0	0
2893.4169921875	n/a	WORD	5925718	wordpools/wasnorm_wordpool_576.txt	LTP367	ltpFR2	17	14	CROSS	413	n/a	n/a	0	0	0
2896.19921875	n/a	WORD	5931416	wordpools/wasnorm_wordpool_576.txt	LTP367	ltpFR2	17	14	BODY	145	n/a	n/a	0	0	0
2898.84814453125	n/a	WORD	5936841	wordpools/wasnorm_wordpool_576.txt	LTP367	ltpFR2	17	14	BELLY	119	n/a	n/a	0	0	0
2901.330078125	n/a	WORD	5941924	wordpools/wasnorm_wordpool_576.txt	LTP367	ltpFR2	17	14	STATUE	1374	n/a	n/a	0	0	0
2903.76171875	n/a	WORD	5946904	wordpools/wasnorm_wordpool_576.txt	LTP367	ltpFR2	17	14	COUSIN	392	n/a	n/a	0	0	0
2906.19482421875	n/a	WORD	5951887	wordpools/wasnorm_wordpool_576.txt	LTP367	ltpFR2	17	14	CABBAGE	210	n/a	n/a	0	0	0
2909.02685546875	n/a	WORD	5957687	wordpools/wasnorm_wordpool_576.txt	LTP367	ltpFR2	17	14	YOLK	1633	n/a	n/a	0	0	0
2911.55859375	n/a	WORD	5962872	wordpools/wasnorm_wordpool_576.txt	LTP367	ltpFR2	17	14	CATTLE	261	n/a	n/a	0	0	0
2914.1904296875	n/a	WORD	5968262	wordpools/wasnorm_wordpool_576.txt	LTP367	ltpFR2	17	14	BLOUSE	139	n/a	n/a	0	0	0
2916.72265625	n/a	WORD	5973448	wordpools/wasnorm_wordpool_576.txt	LTP367	ltpFR2	17	14	ROD	1203	n/a	n/a	0	0	0
2919.37255859375	n/a	WORD	5978875	wordpools/wasnorm_wordpool_576.txt	LTP367	ltpFR2	17	14	EGYPT	519	n/a	n/a	0	0	0
2922.13623046875	n/a	WORD	5984535	wordpools/wasnorm_wordpool_576.txt	LTP367	ltpFR2	17	14	DANDRUFF	439	n/a	n/a	0	0	0
2924.619140625	n/a	WORD	5989620	wordpools/wasnorm_wordpool_576.txt	LTP367	ltpFR2	17	14	DRESSER	496	n/a	n/a	0	0	0
2927.26806640625	n/a	WORD	5995045	wordpools/wasnorm_wordpool_576.txt	LTP367	ltpFR2	17	14	BUGGY	188	n/a	n/a	0	0	0
2929.916015625	n/a	WORD	6000468	wordpools/wasnorm_wordpool_576.txt	LTP367	ltpFR2	17	14	FRECKLE	602	n/a	n/a	0	0	0
2932.39892578125	n/a	WORD	6005553	wordpools/wasnorm_wordpool_576.txt	LTP367	ltpFR2	17	14	LADY	794	n/a	n/a	0	0	0
2935.0810546875	n/a	WORD	6011046	wordpools/wasnorm_wordpool_576.txt	LTP367	ltpFR2	17	14	PUPPY	1144	n/a	n/a	0	0	0
2936.69677734375	n/a	START	6014355	n/a	LTP367	ltpFR2	17	n/a	n/a	n/a	21	n/a	n/a	n/a	n/a
2937.52294921875	n/a	DISTRACTOR	6016047	n/a	LTP367	ltpFR2	17	14	n/a	n/a	n/a	n/a	0	0	0
2937.52978515625	n/a	PROB	6016061	n/a	LTP367	ltpFR2	17	n/a	n/a	n/a	21	20	8	5	7
2939.97802734375	n/a	PROB	6021075	n/a	LTP367	ltpFR2	17	n/a	n/a	n/a	21	15	4	8	3
2941.36083984375	n/a	PROB	6023907	n/a	LTP367	ltpFR2	17	n/a	n/a	n/a	21	15	1	9	5
2943.24365234375	n/a	PROB	6027763	n/a	LTP367	ltpFR2	17	n/a	n/a	n/a	21	11	2	5	4
2944.958984375	n/a	PROB	6031276	n/a	LTP367	ltpFR2	17	n/a	n/a	n/a	21	19	9	1	9
2946.341796875	n/a	PROB	6034108	n/a	LTP367	ltpFR2	17	n/a	n/a	n/a	21	11	2	8	1
2947.79150390625	n/a	PROB	6037077	n/a	LTP367	ltpFR2	17	n/a	n/a	n/a	21	16	8	1	7
2949.04052734375	n/a	PROB	6039635	n/a	LTP367	ltpFR2	17	n/a	n/a	n/a	21	14	8	2	4
2950.173828125	n/a	PROB	6041956	n/a	LTP367	ltpFR2	17	n/a	n/a	n/a	21	19	6	4	9
2951.33984375	n/a	PROB	6044344	n/a	LTP367	ltpFR2	17	n/a	n/a	n/a	21	18	3	9	6
2953.0224609375	n/a	PROB	6047790	n/a	LTP367	ltpFR2	17	n/a	n/a	n/a	21	17	6	9	2
2954.78759765625	n/a	PROB	6051405	n/a	LTP367	ltpFR2	17	n/a	n/a	n/a	21	15	7	5	3
2956.3037109375	n/a	PROB	6054510	n/a	LTP367	ltpFR2	17	n/a	n/a	n/a	21	20	5	9	6
