mstime	trial_type	stim_file	subject	experiment	session	trial	task	item_name	item_num	recog_resp	recog_conf	resp	color_r	color_g	color_b	case	font
0	SESS_START	n/a	LTP293	ltpFR	5	n/a	n/a	n/a	n/a	0	3	n/a	n/a	n/a	n/a	n/a	n/a
64191	WORD	wordpools/wasnorm_wordpool_less_exclusions.txt	LTP293	ltpFR	5	1	1	BUSH	202	1	n/a	1	0.57763671875	0.412841796875	1	upper	amplitud.ttf
68185	WORD	wordpools/wasnorm_wordpool_less_exclusions.txt	LTP293	ltpFR	5	1	1	SHRUB	1299	n/a	n/a	1	0.57763671875	0.412841796875	1	upper	amplitud.ttf
72363	WORD	wordpools/wasnorm_wordpool_less_exclusions.txt	LTP293	ltpFR	5	1	1	SUITCASE	1403	n/a	n/a	0	0.57763671875	0.412841796875	1	upper	amplitud.ttf
76507	WORD	wordpools/wasnorm_wordpool_less_exclusions.txt	LTP293	ltpFR	5	1	1	VACUUM	1543	n/a	n/a	0	0.57763671875	0.412841796875	1	upper	amplitud.ttf
80384	WORD	wordpools/wasnorm_wordpool_less_exclusions.txt	LTP293	ltpFR	5	1	1	HARE	688	n/a	n/a	1	0.57763671875	0.412841796875	1	upper	amplitud.ttf
84294	WORD	wordpools/wasnorm_wordpool_less_exclusions.txt	LTP293	ltpFR	5	1	0	COW	393	n/a	n/a	1	0.422607421875	0.5869140625	0	lower	zerothre.ttf
88172	WORD	wordpools/wasnorm_wordpool_less_exclusions.txt	LTP293	ltpFR	5	1	0	PEDAL	1037	n/a	n/a	0	0.422607421875	0.5869140625	0	lower	zerothre.ttf
92066	WORD	wordpools/wasnorm_wordpool_less_exclusions.txt	LTP293	ltpFR	5	1	0	GRASSHOPPER	656	n/a	n/a	1	0.422607421875	0.5869140625	0	lower	zerothre.ttf
96210	WORD	wordpools/wasnorm_wordpool_less_exclusions.txt	LTP293	ltpFR	5	1	0	GRASS	655	n/a	n/a	0	0.422607421875	0.5869140625	0	lower	zerothre.ttf
100304	WORD	wordpools/wasnorm_wordpool_less_exclusions.txt	LTP293	ltpFR	5	1	1	CORPORATION	382	n/a	n/a	0	0.57763671875	0.412841796875	1	upper	amplitud.ttf
104349	WORD	wordpools/wasnorm_wordpool_less_exclusions.txt	LTP293	ltpFR	5	1	1	DOUGH	489	n/a	n/a	0	0.57763671875	0.412841796875	1	upper	amplitud.ttf
108208	WORD	wordpools/wasnorm_wordpool_less_exclusions.txt	LTP293	ltpFR	5	1	1	BANKER	84	n/a	n/a	1	0.57763671875	0.412841796875	1	upper	amplitud.ttf
112403	WORD	wordpools/wasnorm_wordpool_less_exclusions.txt	LTP293	ltpFR	5	1	0	PUBLISHER	1137	n/a	n/a	1	0.422607421875	0.5869140625	0	lower	zerothre.ttf
116497	WORD	wordpools/wasnorm_wordpool_less_exclusions.txt	LTP293	ltpFR	5	1	0	VOLUNTEER	1577	n/a	n/a	0	0.422607421875	0.5869140625	0	lower	zerothre.ttf
120690	WORD	wordpools/wasnorm_wordpool_less_exclusions.txt	LTP293	ltpFR	5	1	0	TOTE	1487	n/a	n/a	0	0.422607421875	0.5869140625	0	lower	zerothre.ttf
124717	WORD	wordpools/wasnorm_wordpool_less_exclusions.txt	LTP293	ltpFR	5	1	0	DUSTPAN	509	n/a	n/a	0	0.422607421875	0.5869140625	0	lower	zerothre.ttf
130460	REC_START	n/a	LTP293	ltpFR	5	1	n/a	n/a	n/a	n/a	n/a	n/a	n/a	n/a	n/a	n/a	n/a
131103	REC_WORD	wordpools/wasnorm_wordpool_less_exclusions.txt	LTP293	ltpFR	5	1	0	DUSTPAN	509	n/a	n/a	0	n/a	n/a	n/a	n/a	n/a
132107	REC_WORD	wordpools/wasnorm_wordpool_less_exclusions.txt	LTP293	ltpFR	5	1	0	PUBLISHER	1137	n/a	n/a	1	n/a	n/a	n/a	n/a	n/a
133481	REC_WORD	wordpools/wasnorm_wordpool_less_exclusions.txt	LTP293	ltpFR	5	1	1	BANKER	84	n/a	n/a	1	n/a	n/a	n/a	n/a	n/a
134571	REC_WORD	wordpools/wasnorm_wordpool_less_exclusions.txt	LTP293	ltpFR	5	1	1	CORPORATION	382	n/a	n/a	0	n/a	n/a	n/a	n/a	n/a
136150	REC_WORD	wordpools/wasnorm_wordpool_less_exclusions.txt	LTP293	ltpFR	5	1	1	BUSH	202	n/a	n/a	1	n/a	n/a	n/a	n/a	n/a
137096	REC_WORD	wordpools/wasnorm_wordpool_less_exclusions.txt	LTP293	ltpFR	5	1	1	SHRUB	1299	n/a	n/a	1	n/a	n/a	n/a	n/a	n/a
138446	REC_WORD	wordpools/wasnorm_wordpool_less_exclusions.txt	LTP293	ltpFR	5	1	1	HARE	688	n/a	n/a	1	n/a	n/a	n/a	n/a	n/a
139810	REC_WORD	wordpools/wasnorm_wordpool_less_exclusions.txt	LTP293	ltpFR	5	1	1	DOUGH	489	n/a	n/a	0	n/a	n/a	n/a	n/a	n/a
141070	REC_WORD	wordpools/wasnorm_wordpool_less_exclusions.txt	LTP293	ltpFR	5	1	0	PEDAL	1037	n/a	n/a	0	n/a	n/a	n/a	n/a	n/a
146589	REC_WORD	wordpools/wasnorm_wordpool_less_exclusions.txt	LTP293	ltpFR	5	1	0	GRASSHOPPER	656	n/a	n/a	1	n/a	n/a	n/a	n/a	n/a
147709	REC_WORD	wordpools/wasnorm_wordpool_less_exclusions.txt	LTP293	ltpFR	5	1	0	COW	393	n/a	n/a	1	n/a	n/a	n/a	n/a	n/a
153992	REC_WORD	wordpools/wasnorm_wordpool_less_exclusions.txt	LTP293	ltpFR	5	1	1	SUITCASE	1403	n/a	n/a	0	n/a	n/a	n/a	n/a	n/a
210972	WORD	wordpools/wasnorm_wordpool_less_exclusions.txt	LTP293	ltpFR	5	2	0	STALLION	1369	n/a	n/a	1	0.422607421875	0.5869140625	0	lower	zerothre.ttf
214999	WORD	wordpools/wasnorm_wordpool_less_exclusions.txt	LTP293	ltpFR	5	2	0	THUMB	1462	n/a	n/a	0	0.422607421875	0.5869140625	0	lower	zerothre.ttf
219126	WORD	wordpools/wasnorm_wordpool_less_exclusions.txt	LTP293	ltpFR	5	2	0	CHEERLEADER	288	n/a	n/a	1	0.422607421875	0.5869140625	0	lower	zerothre.ttf
223253	WORD	wordpools/wasnorm_wordpool_less_exclusions.txt	LTP293	ltpFR	5	2	0	SEAGULL	1261	n/a	n/a	1	0.422607421875	0.5869140625	0	lower	zerothre.ttf
227214	WORD	wordpools/wasnorm_wordpool_less_exclusions.txt	LTP293	ltpFR	5	2	1	ZEBRA	1635	n/a	n/a	1	0.57763671875	0.412841796875	1	upper	amplitud.ttf
231191	WORD	wordpools/wasnorm_wordpool_less_exclusions.txt	LTP293	ltpFR	5	2	1	BUS	201	n/a	n/a	0	0.57763671875	0.412841796875	1	upper	amplitud.ttf
235285	WORD	wordpools/wasnorm_wordpool_less_exclusions.txt	LTP293	ltpFR	5	2	1	TAXI	1438	n/a	n/a	0	0.57763671875	0.412841796875	1	upper	amplitud.ttf
239130	WORD	wordpools/wasnorm_wordpool_less_exclusions.txt	LTP293	ltpFR	5	2	1	PAVEMENT	1028	n/a	n/a	0	0.57763671875	0.412841796875	1	upper	amplitud.ttf
243290	WORD	wordpools/wasnorm_wordpool_less_exclusions.txt	LTP293	ltpFR	5	2	1	BIRD	129	n/a	n/a	1	0.57763671875	0.412841796875	1	upper	amplitud.ttf
247118	WORD	wordpools/wasnorm_wordpool_less_exclusions.txt	LTP293	ltpFR	5	2	1	SNAIL	1332	n/a	n/a	1	0.57763671875	0.412841796875	1	upper	amplitud.ttf
251162	WORD	wordpools/wasnorm_wordpool_less_exclusions.txt	LTP293	ltpFR	5	2	0	RICE	1190	n/a	n/a	0	0.422607421875	0.5869140625	0	lower	zerothre.ttf
255373	WORD	wordpools/wasnorm_wordpool_less_exclusions.txt	LTP293	ltpFR	5	2	0	LUNCH	849	n/a	n/a	0	0.422607421875	0.5869140625	0	lower	zerothre.ttf
259549	WORD	wordpools/wasnorm_wordpool_less_exclusions.txt	LTP293	ltpFR	5	2	1	GRAVEL	659	n/a	n/a	0	0.57763671875	0.412841796875	1	upper	amplitud.ttf
263543	WORD	wordpools/wasnorm_wordpool_less_exclusions.txt	LTP293	ltpFR	5	2	1	MONGOOSE	909	n/a	n/a	1	0.57763671875	0.412841796875	1	upper	amplitud.ttf
267488	WORD	wordpools/wasnorm_wordpool_less_exclusions.txt	LTP293	ltpFR	5	2	0	PENGUIN	1044	n/a	n/a	0	0.422607421875	0.5869140625	0	lower	zerothre.ttf
271565	WORD	wordpools/wasnorm_wordpool_less_exclusions.txt	LTP293	ltpFR	5	2	0	CAGE	218	n/a	n/a	0	0.422607421875	0.5869140625	0	lower	zerothre.ttf
277323	REC_START	n/a	LTP293	ltpFR	5	2	n/a	n/a	n/a	n/a	n/a	n/a	n/a	n/a	n/a	n/a	n/a
277925	REC_WORD	wordpools/wasnorm_wordpool_less_exclusions.txt	LTP293	ltpFR	5	2	0	CAGE	218	n/a	n/a	0	n/a	n/a	n/a	n/a	n/a
278811	REC_WORD	wordpools/wasnorm_wordpool_less_exclusions.txt	LTP293	ltpFR	5	2	0	PENGUIN	1044	n/a	n/a	0	n/a	n/a	n/a	n/a	n/a
280127	REC_WORD	wordpools/wasnorm_wordpool_less_exclusions.txt	LTP293	ltpFR	5	2	0	STALLION	1369	n/a	n/a	1	n/a	n/a	n/a	n/a	n/a
281883	REC_WORD	wordpools/wasnorm_wordpool_less_exclusions.txt	LTP293	ltpFR	5	2	0	CHEERLEADER	288	n/a	n/a	1	n/a	n/a	n/a	n/a	n/a
283541	REC_WORD	wordpools/wasnorm_wordpool_less_exclusions.txt	LTP293	ltpFR	5	2	0	THUMB	1462	n/a	n/a	0	n/a	n/a	n/a	n/a	n/a
285890	REC_WORD	wordpools/wasnorm_wordpool_less_exclusions.txt	LTP293	ltpFR	5	2	1	PAVEMENT	1028	n/a	n/a	0	n/a	n/a	n/a	n/a	n/a
287068	REC_WORD	wordpools/wasnorm_wordpool_less_exclusions.txt	LTP293	ltpFR	5	2	1	GRAVEL	659	n/a	n/a	0	n/a	n/a	n/a	n/a	n/a
288295	REC_WORD	wordpools/wasnorm_wordpool_less_exclusions.txt	LTP293	ltpFR	5	2	1	ZEBRA	1635	n/a	n/a	1	n/a	n/a	n/a	n/a	n/a
289368	REC_WORD	wordpools/wasnorm_wordpool_less_exclusions.txt	LTP293	ltpFR	5	2	1	BUS	201	n/a	n/a	0	n/a	n/a	n/a	n/a	n/a
290423	REC_WORD	wordpools/wasnorm_wordpool_less_exclusions.txt	LTP293	ltpFR	5	2	1	TAXI	1438	n/a	n/a	0	n/a	n/a	n/a	n/a	n/a
291561	REC_WORD	wordpools/wasnorm_wordpool_less_exclusions.txt	LTP293	ltpFR	5	2	1	SNAIL	1332	n/a	n/a	1	n/a	n/a	n/a	n/a	n/a
293041	REC_WORD	wordpools/wasnorm_wordpool_less_exclusions.txt	LTP293	ltpFR	5	2	0	SEAGULL	1261	n/a	n/a	1	n/a	n/a	n/a	n/a	n/a
294399	REC_WORD	wordpools/wasnorm_wordpool_less_exclusions.txt	LTP293	ltpFR	5	2	1	BIRD	129	n/a	n/a	1	n/a	n/a	n/a	n/a	n/a
300474	REC_WORD	wordpools/wasnorm_wordpool_less_exclusions.txt	LTP293	ltpFR	5	2	0	LUNCH	849	n/a	n/a	0	n/a	n/a	n/a	n/a	n/a
301564	REC_WORD	wordpools/wasnorm_wordpool_less_exclusions.txt	LTP293	ltpFR	5	2	0	RICE	1190	n/a	n/a	0	n/a	n/a	n/a	n/a	n/a
371199	WORD	wordpools/wasnorm_wordpool_less_exclusions.txt	LTP293	ltpFR	5	3	1	TELESCOPE	1446	n/a	n/a	0	0.57763671875	0.412841796875	1	upper	amplitud.ttf
375043	WORD	wordpools/wasnorm_wordpool_less_exclusions.txt	LTP293	ltpFR	5	3	1	FEAST	556	n/a	n/a	0	0.57763671875	0.412841796875	1	upper	amplitud.ttf
378987	WORD	wordpools/wasnorm_wordpool_less_exclusions.txt	LTP293	ltpFR	5	3	1	CELERY	266	n/a	n/a	0	0.57763671875	0.412841796875	1	upper	amplitud.ttf
382965	WORD	wordpools/wasnorm_wordpool_less_exclusions.txt	LTP293	ltpFR	5	3	1	SANDPAPER	1231	n/a	n/a	0	0.57763671875	0.412841796875	1	upper	amplitud.ttf
386809	WORD	wordpools/wasnorm_wordpool_less_exclusions.txt	LTP293	ltpFR	5	3	1	PIGEON	1065	n/a	n/a	1	0.57763671875	0.412841796875	1	upper	amplitud.ttf
390753	WORD	wordpools/wasnorm_wordpool_less_exclusions.txt	LTP293	ltpFR	5	3	1	UTENSIL	1542	n/a	n/a	0	0.57763671875	0.412841796875	1	upper	amplitud.ttf
394831	WORD	wordpools/wasnorm_wordpool_less_exclusions.txt	LTP293	ltpFR	5	3	1	SPACE	1345	n/a	n/a	0	0.57763671875	0.412841796875	1	upper	amplitud.ttf
398874	WORD	wordpools/wasnorm_wordpool_less_exclusions.txt	LTP293	ltpFR	5	3	1	ICE	730	n/a	n/a	0	0.57763671875	0.412841796875	1	upper	amplitud.ttf
402819	WORD	wordpools/wasnorm_wordpool_less_exclusions.txt	LTP293	ltpFR	5	3	1	BULL	193	n/a	n/a	1	0.57763671875	0.412841796875	1	upper	amplitud.ttf
406879	WORD	wordpools/wasnorm_wordpool_less_exclusions.txt	LTP293	ltpFR	5	3	1	HOE	711	n/a	n/a	0	0.57763671875	0.412841796875	1	upper	amplitud.ttf
410823	WORD	wordpools/wasnorm_wordpool_less_exclusions.txt	LTP293	ltpFR	5	3	1	PUB	1135	n/a	n/a	0	0.57763671875	0.412841796875	1	upper	amplitud.ttf
414767	WORD	wordpools/wasnorm_wordpool_less_exclusions.txt	LTP293	ltpFR	5	3	1	DETECTIVE	454	n/a	n/a	1	0.57763671875	0.412841796875	1	upper	amplitud.ttf
418878	WORD	wordpools/wasnorm_wordpool_less_exclusions.txt	LTP293	ltpFR	5	3	1	SHERIFF	1284	n/a	n/a	1	0.57763671875	0.412841796875	1	upper	amplitud.ttf
422789	WORD	wordpools/wasnorm_wordpool_less_exclusions.txt	LTP293	ltpFR	5	3	1	QUAIL	1147	n/a	n/a	1	0.57763671875	0.412841796875	1	upper	amplitud.ttf
426716	WORD	wordpools/wasnorm_wordpool_less_exclusions.txt	LTP293	ltpFR	5	3	1	BEER	114	n/a	n/a	0	0.57763671875	0.412841796875	1	upper	amplitud.ttf
430560	WORD	wordpools/wasnorm_wordpool_less_exclusions.txt	LTP293	ltpFR	5	3	1	LOUNGE	845	n/a	n/a	0	0.57763671875	0.412841796875	1	upper	amplitud.ttf
436387	REC_START	n/a	LTP293	ltpFR	5	3	n/a	n/a	n/a	n/a	n/a	n/a	n/a	n/a	n/a	n/a	n/a
436838	REC_WORD	wordpools/wasnorm_wordpool_less_exclusions.txt	LTP293	ltpFR	5	3	1	LOUNGE	845	n/a	n/a	0	n/a	n/a	n/a	n/a	n/a
437947	REC_WORD	wordpools/wasnorm_wordpool_less_exclusions.txt	LTP293	ltpFR	5	3	1	TELESCOPE	1446	n/a	n/a	0	n/a	n/a	n/a	n/a	n/a
439853	REC_WORD	wordpools/wasnorm_wordpool_less_exclusions.txt	LTP293	ltpFR	5	3	1	FEAST	556	n/a	n/a	0	n/a	n/a	n/a	n/a	n/a
441639	REC_WORD	wordpools/wasnorm_wordpool_less_exclusions.txt	LTP293	ltpFR	5	3	1	SANDPAPER	1231	n/a	n/a	0	n/a	n/a	n/a	n/a	n/a
443225	REC_WORD	wordpools/wasnorm_wordpool_less_exclusions.txt	LTP293	ltpFR	5	3	1	CELERY	266	n/a	n/a	0	n/a	n/a	n/a	n/a	n/a
444562	REC_WORD	wordpools/wasnorm_wordpool_less_exclusions.txt	LTP293	ltpFR	5	3	1	UTENSIL	1542	n/a	n/a	0	n/a	n/a	n/a	n/a	n/a
447050	REC_WORD	wordpools/wasnorm_wordpool_less_exclusions.txt	LTP293	ltpFR	5	3	1	BULL	193	n/a	n/a	1	n/a	n/a	n/a	n/a	n/a
448355	REC_WORD	wordpools/wasnorm_wordpool_less_exclusions.txt	LTP293	ltpFR	5	3	1	QUAIL	1147	n/a	n/a	1	n/a	n/a	n/a	n/a	n/a
450542	REC_WORD	wordpools/wasnorm_wordpool_less_exclusions.txt	LTP293	ltpFR	5	3	1	DETECTIVE	454	n/a	n/a	1	n/a	n/a	n/a	n/a	n/a
451810	REC_WORD	wordpools/wasnorm_wordpool_less_exclusions.txt	LTP293	ltpFR	5	3	1	SHERIFF	1284	n/a	n/a	1	n/a	n/a	n/a	n/a	n/a
454180	REC_WORD	wordpools/wasnorm_wordpool_less_exclusions.txt	LTP293	ltpFR	5	3	1	SPACE	1345	n/a	n/a	0	n/a	n/a	n/a	n/a	n/a
470524	REC_WORD	wordpools/wasnorm_wordpool_less_exclusions.txt	LTP293	ltpFR	5	3	1	PUB	1135	n/a	n/a	0	n/a	n/a	n/a	n/a	n/a
471942	REC_WORD	wordpools/wasnorm_wordpool_less_exclusions.txt	LTP293	ltpFR	5	3	1	BEER	114	n/a	n/a	0	n/a	n/a	n/a	n/a	n/a
497946	REC_WORD	wordpools/wasnorm_wordpool_less_exclusions.txt	LTP293	ltpFR	5	3	1	ICE	730	n/a	n/a	0	n/a	n/a	n/a	n/a	n/a
525036	WORD	wordpools/wasnorm_wordpool_less_exclusions.txt	LTP293	ltpFR	5	4	1	SUPERVISOR	1410	n/a	n/a	1	0.57763671875	0.412841796875	1	upper	amplitud.ttf
529063	WORD	wordpools/wasnorm_wordpool_less_exclusions.txt	LTP293	ltpFR	5	4	1	OPERA	978	n/a	n/a	0	0.57763671875	0.412841796875	1	upper	amplitud.ttf
532941	WORD	wordpools/wasnorm_wordpool_less_exclusions.txt	LTP293	ltpFR	5	4	0	TURNIP	1521	n/a	n/a	0	0.422607421875	0.5869140625	0	lower	zerothre.ttf
536952	WORD	wordpools/wasnorm_wordpool_less_exclusions.txt	LTP293	ltpFR	5	4	0	CABBAGE	210	n/a	n/a	0	0.422607421875	0.5869140625	0	lower	zerothre.ttf
541029	WORD	wordpools/wasnorm_wordpool_less_exclusions.txt	LTP293	ltpFR	5	4	0	COSTUME	383	n/a	n/a	0	0.422607421875	0.5869140625	0	lower	zerothre.ttf
545139	WORD	wordpools/wasnorm_wordpool_less_exclusions.txt	LTP293	ltpFR	5	4	0	MASCARA	875	n/a	n/a	0	0.422607421875	0.5869140625	0	lower	zerothre.ttf
549050	WORD	wordpools/wasnorm_wordpool_less_exclusions.txt	LTP293	ltpFR	5	4	0	PEN	1041	n/a	n/a	0	0.422607421875	0.5869140625	0	lower	zerothre.ttf
553011	WORD	wordpools/wasnorm_wordpool_less_exclusions.txt	LTP293	ltpFR	5	4	0	BEEF	113	n/a	n/a	1	0.422607421875	0.5869140625	0	lower	zerothre.ttf
556922	WORD	wordpools/wasnorm_wordpool_less_exclusions.txt	LTP293	ltpFR	5	4	1	CUSTOMER	430	n/a	n/a	1	0.57763671875	0.412841796875	1	upper	amplitud.ttf
561016	WORD	wordpools/wasnorm_wordpool_less_exclusions.txt	LTP293	ltpFR	5	4	1	CHAIRPERSON	275	n/a	n/a	1	0.57763671875	0.412841796875	1	upper	amplitud.ttf
564960	WORD	wordpools/wasnorm_wordpool_less_exclusions.txt	LTP293	ltpFR	5	4	0	DASHBOARD	441	n/a	n/a	0	0.422607421875	0.5869140625	0	lower	zerothre.ttf
569087	WORD	wordpools/wasnorm_wordpool_less_exclusions.txt	LTP293	ltpFR	5	4	0	LIMOUSINE	824	n/a	n/a	1	0.422607421875	0.5869140625	0	lower	zerothre.ttf
573214	WORD	wordpools/wasnorm_wordpool_less_exclusions.txt	LTP293	ltpFR	5	4	1	VIOLIN	1571	n/a	n/a	0	0.57763671875	0.412841796875	1	upper	amplitud.ttf
577158	WORD	wordpools/wasnorm_wordpool_less_exclusions.txt	LTP293	ltpFR	5	4	1	PAPER	1011	n/a	n/a	0	0.57763671875	0.412841796875	1	upper	amplitud.ttf
581302	WORD	wordpools/wasnorm_wordpool_less_exclusions.txt	LTP293	ltpFR	5	4	1	BRIDE	173	n/a	n/a	1	0.57763671875	0.412841796875	1	upper	amplitud.ttf
585229	WORD	wordpools/wasnorm_wordpool_less_exclusions.txt	LTP293	ltpFR	5	4	1	EMPLOYEE	531	n/a	n/a	1	0.57763671875	0.412841796875	1	upper	amplitud.ttf
590955	REC_START	n/a	LTP293	ltpFR	5	4	n/a	n/a	n/a	n/a	n/a	n/a	n/a	n/a	n/a	n/a	n/a
591546	REC_WORD	wordpools/wasnorm_wordpool_less_exclusions.txt	LTP293	ltpFR	5	4	1	EMPLOYEE	531	n/a	n/a	1	n/a	n/a	n/a	n/a	n/a
593041	REC_WORD	wordpools/wasnorm_wordpool_less_exclusions.txt	LTP293	ltpFR	5	4	1	BRIDE	173	n/a	n/a	1	n/a	n/a	n/a	n/a	n/a
594831	REC_WORD	wordpools/wasnorm_wordpool_less_exclusions.txt	LTP293	ltpFR	5	4	1	SUPERVISOR	1410	n/a	n/a	1	n/a	n/a	n/a	n/a	n/a
596324	REC_WORD	wordpools/wasnorm_wordpool_less_exclusions.txt	LTP293	ltpFR	5	4	1	PAPER	1011	n/a	n/a	0	n/a	n/a	n/a	n/a	n/a
597723	REC_WORD	wordpools/wasnorm_wordpool_less_exclusions.txt	LTP293	ltpFR	5	4	0	PEN	1041	n/a	n/a	0	n/a	n/a	n/a	n/a	n/a
598913	REC_WORD	wordpools/wasnorm_wordpool_less_exclusions.txt	LTP293	ltpFR	5	4	1	OPERA	978	n/a	n/a	0	n/a	n/a	n/a	n/a	n/a
600675	REC_WORD	wordpools/wasnorm_wordpool_less_exclusions.txt	LTP293	ltpFR	5	4	0	TURNIP	1521	n/a	n/a	0	n/a	n/a	n/a	n/a	n/a
601937	REC_WORD	wordpools/wasnorm_wordpool_less_exclusions.txt	LTP293	ltpFR	5	4	0	CABBAGE	210	n/a	n/a	0	n/a	n/a	n/a	n/a	n/a
604960	REC_WORD	wordpools/wasnorm_wordpool_less_exclusions.txt	LTP293	ltpFR	5	4	1	EMPLOYEE	531	n/a	n/a	1	n/a	n/a	n/a	n/a	n/a
605960	REC_WORD_VV	wordpools/wasnorm_wordpool_less_exclusions.txt	LTP293	ltpFR	5	4	n/a	<>	-1	n/a	n/a	n/a	n/a	n/a	n/a	n/a	n/a
612523	REC_WORD	wordpools/wasnorm_wordpool_less_exclusions.txt	LTP293	ltpFR	5	4	1	CUSTOMER	430	n/a	n/a	1	n/a	n/a	n/a	n/a	n/a
615648	REC_WORD	wordpools/wasnorm_wordpool_less_exclusions.txt	LTP293	ltpFR	5	4	1	CHAIRPERSON	275	n/a	n/a	1	n/a	n/a	n/a	n/a	n/a
663285	REC_WORD	wordpools/wasnorm_wordpool_less_exclusions.txt	LTP293	ltpFR	5	4	0	LIMOUSINE	824	n/a	n/a	1	n/a	n/a	n/a	n/a	n/a
685596	WORD	wordpools/wasnorm_wordpool_less_exclusions.txt	LTP293	ltpFR	5	5	1	VENUS	1557	n/a	n/a	0	0.57763671875	0.412841796875	1	upper	amplitud.ttf
689425	WORD	wordpools/wasnorm_wordpool_less_exclusions.txt	LTP293	ltpFR	5	5	1	BALCONY	72	n/a	n/a	0	0.57763671875	0.412841796875	1	upper	amplitud.ttf
693534	WORD	wordpools/wasnorm_wordpool_less_exclusions.txt	LTP293	ltpFR	5	5	1	WOLF	1619	n/a	n/a	1	0.57763671875	0.412841796875	1	upper	amplitud.ttf
697513	WORD	wordpools/wasnorm_wordpool_less_exclusions.txt	LTP293	ltpFR	5	5	1	PUPPY	1144	n/a	n/a	1	0.57763671875	0.412841796875	1	upper	amplitud.ttf
701689	WORD	wordpools/wasnorm_wordpool_less_exclusions.txt	LTP293	ltpFR	5	5	1	CAPTAIN	239	n/a	n/a	1	0.57763671875	0.412841796875	1	upper	amplitud.ttf
705833	WORD	wordpools/wasnorm_wordpool_less_exclusions.txt	LTP293	ltpFR	5	5	0	ROCKET	1202	n/a	n/a	1	0.422607421875	0.5869140625	0	lower	zerothre.ttf
709810	WORD	wordpools/wasnorm_wordpool_less_exclusions.txt	LTP293	ltpFR	5	5	0	TORTOISE	1486	n/a	n/a	0	0.422607421875	0.5869140625	0	lower	zerothre.ttf
713854	WORD	wordpools/wasnorm_wordpool_less_exclusions.txt	LTP293	ltpFR	5	5	0	CABIN	211	n/a	n/a	1	0.422607421875	0.5869140625	0	lower	zerothre.ttf
718048	WORD	wordpools/wasnorm_wordpool_less_exclusions.txt	LTP293	ltpFR	5	5	0	SAXOPHONE	1240	n/a	n/a	0	0.422607421875	0.5869140625	0	lower	zerothre.ttf
722009	WORD	wordpools/wasnorm_wordpool_less_exclusions.txt	LTP293	ltpFR	5	5	1	PASSAGE	1019	n/a	n/a	0	0.57763671875	0.412841796875	1	upper	amplitud.ttf
726019	WORD	wordpools/wasnorm_wordpool_less_exclusions.txt	LTP293	ltpFR	5	5	1	STOMACH	1384	n/a	n/a	0	0.57763671875	0.412841796875	1	upper	amplitud.ttf
730080	WORD	wordpools/wasnorm_wordpool_less_exclusions.txt	LTP293	ltpFR	5	5	1	SOFTBALL	1343	n/a	n/a	0	0.57763671875	0.412841796875	1	upper	amplitud.ttf
734124	WORD	wordpools/wasnorm_wordpool_less_exclusions.txt	LTP293	ltpFR	5	5	0	GUITAR	670	n/a	n/a	1	0.422607421875	0.5869140625	0	lower	zerothre.ttf
738118	WORD	wordpools/wasnorm_wordpool_less_exclusions.txt	LTP293	ltpFR	5	5	0	CHIPMUNK	304	n/a	n/a	0	0.422607421875	0.5869140625	0	lower	zerothre.ttf
742312	WORD	wordpools/wasnorm_wordpool_less_exclusions.txt	LTP293	ltpFR	5	5	0	DRESSER	496	n/a	n/a	0	0.422607421875	0.5869140625	0	lower	zerothre.ttf
746173	WORD	wordpools/wasnorm_wordpool_less_exclusions.txt	LTP293	ltpFR	5	5	0	UNDERWEAR	1537	n/a	n/a	0	0.422607421875	0.5869140625	0	lower	zerothre.ttf
752031	REC_START	n/a	LTP293	ltpFR	5	5	n/a	n/a	n/a	n/a	n/a	n/a	n/a	n/a	n/a	n/a	n/a
752494	REC_WORD	wordpools/wasnorm_wordpool_less_exclusions.txt	LTP293	ltpFR	5	5	0	DRESSER	496	n/a	n/a	0	n/a	n/a	n/a	n/a	n/a
753410	REC_WORD	wordpools/wasnorm_wordpool_less_exclusions.txt	LTP293	ltpFR	5	5	0	UNDERWEAR	1537	n/a	n/a	0	n/a	n/a	n/a	n/a	n/a
755217	REC_WORD	wordpools/wasnorm_wordpool_less_exclusions.txt	LTP293	ltpFR	5	5	1	WOLF	1619	n/a	n/a	1	n/a	n/a	n/a	n/a	n/a
756248	REC_WORD	wordpools/wasnorm_wordpool_less_exclusions.txt	LTP293	ltpFR	5	5	0	TORTOISE	1486	n/a	n/a	0	n/a	n/a	n/a	n/a	n/a
758804	REC_WORD	wordpools/wasnorm_wordpool_less_exclusions.txt	LTP293	ltpFR	5	5	0	CHIPMUNK	304	n/a	n/a	0	n/a	n/a	n/a	n/a	n/a
761132	REC_WORD	wordpools/wasnorm_wordpool_less_exclusions.txt	LTP293	ltpFR	5	5	1	BALCONY	72	n/a	n/a	0	n/a	n/a	n/a	n/a	n/a
762680	REC_WORD	wordpools/wasnorm_wordpool_less_exclusions.txt	LTP293	ltpFR	5	5	0	CABIN	211	n/a	n/a	1	n/a	n/a	n/a	n/a	n/a
764134	REC_WORD	wordpools/wasnorm_wordpool_less_exclusions.txt	LTP293	ltpFR	5	5	0	GUITAR	670	n/a	n/a	1	n/a	n/a	n/a	n/a	n/a
765337	REC_WORD	wordpools/wasnorm_wordpool_less_exclusions.txt	LTP293	ltpFR	5	5	0	SAXOPHONE	1240	n/a	n/a	0	n/a	n/a	n/a	n/a	n/a
766797	REC_WORD	wordpools/wasnorm_wordpool_less_exclusions.txt	LTP293	ltpFR	5	5	0	ROCKET	1202	n/a	n/a	1	n/a	n/a	n/a	n/a	n/a
767993	REC_WORD	wordpools/wasnorm_wordpool_less_exclusions.txt	LTP293	ltpFR	5	5	1	VENUS	1557	n/a	n/a	0	n/a	n/a	n/a	n/a	n/a
770261	REC_WORD	wordpools/wasnorm_wordpool_less_exclusions.txt	LTP293	ltpFR	5	5	1	PUPPY	1144	n/a	n/a	1	n/a	n/a	n/a	n/a	n/a
852530	WORD	wordpools/wasnorm_wordpool_less_exclusions.txt	LTP293	ltpFR	5	6	-1	PASTRY	1022	n/a	n/a	-1	1.0	1.0	1	upper	Verdana.ttf
856558	WORD	wordpools/wasnorm_wordpool_less_exclusions.txt	LTP293	ltpFR	5	6	-1	CHOCOLATE	306	n/a	n/a	-1	1.0	1.0	1	upper	Verdana.ttf
860486	WORD	wordpools/wasnorm_wordpool_less_exclusions.txt	LTP293	ltpFR	5	6	-1	HERB	704	n/a	n/a	-1	1.0	1.0	1	upper	Verdana.ttf
864497	WORD	wordpools/wasnorm_wordpool_less_exclusions.txt	LTP293	ltpFR	5	6	-1	WHEAT	1602	n/a	n/a	-1	1.0	1.0	1	upper	Verdana.ttf
868508	WORD	wordpools/wasnorm_wordpool_less_exclusions.txt	LTP293	ltpFR	5	6	-1	SPRINKLE	1359	n/a	n/a	-1	1.0	1.0	1	upper	Verdana.ttf
872385	WORD	wordpools/wasnorm_wordpool_less_exclusions.txt	LTP293	ltpFR	5	6	-1	CANDIDATE	228	n/a	n/a	-1	1.0	1.0	1	upper	Verdana.ttf
876512	WORD	wordpools/wasnorm_wordpool_less_exclusions.txt	LTP293	ltpFR	5	6	-1	CORAL	378	n/a	n/a	-1	1.0	1.0	1	upper	Verdana.ttf
880688	WORD	wordpools/wasnorm_wordpool_less_exclusions.txt	LTP293	ltpFR	5	6	-1	WARDROBE	1587	n/a	n/a	-1	1.0	1.0	1	upper	Verdana.ttf
884566	WORD	wordpools/wasnorm_wordpool_less_exclusions.txt	LTP293	ltpFR	5	6	-1	WASHER	1592	n/a	n/a	-1	1.0	1.0	1	upper	Verdana.ttf
888793	WORD	wordpools/wasnorm_wordpool_less_exclusions.txt	LTP293	ltpFR	5	6	-1	COTTAGE	384	n/a	n/a	-1	1.0	1.0	1	upper	Verdana.ttf
892804	WORD	wordpools/wasnorm_wordpool_less_exclusions.txt	LTP293	ltpFR	5	6	-1	COIN	343	n/a	n/a	-1	1.0	1.0	1	upper	Verdana.ttf
896964	WORD	wordpools/wasnorm_wordpool_less_exclusions.txt	LTP293	ltpFR	5	6	-1	FISH	571	n/a	n/a	-1	1.0	1.0	1	upper	Verdana.ttf
901041	WORD	wordpools/wasnorm_wordpool_less_exclusions.txt	LTP293	ltpFR	5	6	-1	BASSINET	97	n/a	n/a	-1	1.0	1.0	1	upper	Verdana.ttf
904869	WORD	wordpools/wasnorm_wordpool_less_exclusions.txt	LTP293	ltpFR	5	6	-1	CASH	252	n/a	n/a	-1	1.0	1.0	1	upper	Verdana.ttf
909063	WORD	wordpools/wasnorm_wordpool_less_exclusions.txt	LTP293	ltpFR	5	6	-1	HAMMER	680	n/a	n/a	-1	1.0	1.0	1	upper	Verdana.ttf
912957	WORD	wordpools/wasnorm_wordpool_less_exclusions.txt	LTP293	ltpFR	5	6	-1	DOLL	481	n/a	n/a	-1	1.0	1.0	1	upper	Verdana.ttf
918865	REC_START	n/a	LTP293	ltpFR	5	6	n/a	n/a	n/a	n/a	n/a	n/a	n/a	n/a	n/a	n/a	n/a
919579	REC_WORD	wordpools/wasnorm_wordpool_less_exclusions.txt	LTP293	ltpFR	5	6	-1	DOLL	481	n/a	n/a	-1	n/a	n/a	n/a	n/a	n/a
920298	REC_WORD	wordpools/wasnorm_wordpool_less_exclusions.txt	LTP293	ltpFR	5	6	-1	HAMMER	680	n/a	n/a	-1	n/a	n/a	n/a	n/a	n/a
921481	REC_WORD	wordpools/wasnorm_wordpool_less_exclusions.txt	LTP293	ltpFR	5	6	-1	BASSINET	97	n/a	n/a	-1	n/a	n/a	n/a	n/a	n/a
922585	REC_WORD	wordpools/wasnorm_wordpool_less_exclusions.txt	LTP293	ltpFR	5	6	-1	CASH	252	n/a	n/a	-1	n/a	n/a	n/a	n/a	n/a
923462	REC_WORD	wordpools/wasnorm_wordpool_less_exclusions.txt	LTP293	ltpFR	5	6	-1	COIN	343	n/a	n/a	-1	n/a	n/a	n/a	n/a	n/a
925003	REC_WORD	wordpools/wasnorm_wordpool_less_exclusions.txt	LTP293	ltpFR	5	6	-1	CANDIDATE	228	n/a	n/a	-1	n/a	n/a	n/a	n/a	n/a
926031	REC_WORD	wordpools/wasnorm_wordpool_less_exclusions.txt	LTP293	ltpFR	5	6	-1	CORAL	378	n/a	n/a	-1	n/a	n/a	n/a	n/a	n/a
928850	REC_WORD	wordpools/wasnorm_wordpool_less_exclusions.txt	LTP293	ltpFR	5	6	-1	PASTRY	1022	n/a	n/a	-1	n/a	n/a	n/a	n/a	n/a
930786	REC_WORD	wordpools/wasnorm_wordpool_less_exclusions.txt	LTP293	ltpFR	5	6	n/a	DISHWASHER	475	n/a	n/a	n/a	n/a	n/a	n/a	n/a	n/a
932094	REC_WORD	wordpools/wasnorm_wordpool_less_exclusions.txt	LTP293	ltpFR	5	6	-1	WASHER	1592	n/a	n/a	-1	n/a	n/a	n/a	n/a	n/a
934856	REC_WORD	wordpools/wasnorm_wordpool_less_exclusions.txt	LTP293	ltpFR	5	6	-1	SPRINKLE	1359	n/a	n/a	-1	n/a	n/a	n/a	n/a	n/a
936089	REC_WORD	wordpools/wasnorm_wordpool_less_exclusions.txt	LTP293	ltpFR	5	6	-1	WHEAT	1602	n/a	n/a	-1	n/a	n/a	n/a	n/a	n/a
937068	REC_WORD	wordpools/wasnorm_wordpool_less_exclusions.txt	LTP293	ltpFR	5	6	-1	HERB	704	n/a	n/a	-1	n/a	n/a	n/a	n/a	n/a
938665	REC_WORD	wordpools/wasnorm_wordpool_less_exclusions.txt	LTP293	ltpFR	5	6	-1	CHOCOLATE	306	n/a	n/a	-1	n/a	n/a	n/a	n/a	n/a
940615	REC_WORD	wordpools/wasnorm_wordpool_less_exclusions.txt	LTP293	ltpFR	5	6	-1	COTTAGE	384	n/a	n/a	-1	n/a	n/a	n/a	n/a	n/a
1022760	WORD	wordpools/wasnorm_wordpool_less_exclusions.txt	LTP293	ltpFR	5	7	0	PIANO	1057	n/a	n/a	1	0.422607421875	0.5869140625	0	lower	zerothre.ttf
1026937	WORD	wordpools/wasnorm_wordpool_less_exclusions.txt	LTP293	ltpFR	5	7	0	CHEF	290	n/a	n/a	1	0.422607421875	0.5869140625	0	lower	zerothre.ttf
1030864	WORD	wordpools/wasnorm_wordpool_less_exclusions.txt	LTP293	ltpFR	5	7	0	DOUGHNUT	490	n/a	n/a	0	0.422607421875	0.5869140625	0	lower	zerothre.ttf
1034858	WORD	wordpools/wasnorm_wordpool_less_exclusions.txt	LTP293	ltpFR	5	7	0	BATHTUB	100	n/a	n/a	1	0.422607421875	0.5869140625	0	lower	zerothre.ttf
1038869	WORD	wordpools/wasnorm_wordpool_less_exclusions.txt	LTP293	ltpFR	5	7	0	YARD	1630	n/a	n/a	1	0.422607421875	0.5869140625	0	lower	zerothre.ttf
1043063	WORD	wordpools/wasnorm_wordpool_less_exclusions.txt	LTP293	ltpFR	5	7	0	LAUNDRY	803	n/a	n/a	1	0.422607421875	0.5869140625	0	lower	zerothre.ttf
1047256	WORD	wordpools/wasnorm_wordpool_less_exclusions.txt	LTP293	ltpFR	5	7	0	CLOSET	326	n/a	n/a	1	0.422607421875	0.5869140625	0	lower	zerothre.ttf
1051200	WORD	wordpools/wasnorm_wordpool_less_exclusions.txt	LTP293	ltpFR	5	7	0	COD	340	n/a	n/a	1	0.422607421875	0.5869140625	0	lower	zerothre.ttf
1055395	WORD	wordpools/wasnorm_wordpool_less_exclusions.txt	LTP293	ltpFR	5	7	0	POET	1095	n/a	n/a	1	0.422607421875	0.5869140625	0	lower	zerothre.ttf
1059356	WORD	wordpools/wasnorm_wordpool_less_exclusions.txt	LTP293	ltpFR	5	7	0	BOOK	149	n/a	n/a	0	0.422607421875	0.5869140625	0	lower	zerothre.ttf
1063299	WORD	wordpools/wasnorm_wordpool_less_exclusions.txt	LTP293	ltpFR	5	7	0	SUPERMARKET	1409	n/a	n/a	1	0.422607421875	0.5869140625	0	lower	zerothre.ttf
1067361	WORD	wordpools/wasnorm_wordpool_less_exclusions.txt	LTP293	ltpFR	5	7	0	SALIVA	1226	n/a	n/a	0	0.422607421875	0.5869140625	0	lower	zerothre.ttf
1071504	WORD	wordpools/wasnorm_wordpool_less_exclusions.txt	LTP293	ltpFR	5	7	0	MOP	916	n/a	n/a	1	0.422607421875	0.5869140625	0	lower	zerothre.ttf
1075432	WORD	wordpools/wasnorm_wordpool_less_exclusions.txt	LTP293	ltpFR	5	7	0	MARINE	869	n/a	n/a	1	0.422607421875	0.5869140625	0	lower	zerothre.ttf
1079409	WORD	wordpools/wasnorm_wordpool_less_exclusions.txt	LTP293	ltpFR	5	7	0	SEED	1266	n/a	n/a	0	0.422607421875	0.5869140625	0	lower	zerothre.ttf
1083536	WORD	wordpools/wasnorm_wordpool_less_exclusions.txt	LTP293	ltpFR	5	7	0	SARDINE	1235	n/a	n/a	0	0.422607421875	0.5869140625	0	lower	zerothre.ttf
1089345	REC_START	n/a	LTP293	ltpFR	5	7	n/a	n/a	n/a	n/a	n/a	n/a	n/a	n/a	n/a	n/a	n/a
1089794	REC_WORD	wordpools/wasnorm_wordpool_less_exclusions.txt	LTP293	ltpFR	5	7	0	SEED	1266	n/a	n/a	0	n/a	n/a	n/a	n/a	n/a
1090721	REC_WORD	wordpools/wasnorm_wordpool_less_exclusions.txt	LTP293	ltpFR	5	7	0	SARDINE	1235	n/a	n/a	0	n/a	n/a	n/a	n/a	n/a
1092233	REC_WORD	wordpools/wasnorm_wordpool_less_exclusions.txt	LTP293	ltpFR	5	7	0	CHEF	290	n/a	n/a	1	n/a	n/a	n/a	n/a	n/a
1093610	REC_WORD	wordpools/wasnorm_wordpool_less_exclusions.txt	LTP293	ltpFR	5	7	0	DOUGHNUT	490	n/a	n/a	0	n/a	n/a	n/a	n/a	n/a
1095337	REC_WORD	wordpools/wasnorm_wordpool_less_exclusions.txt	LTP293	ltpFR	5	7	0	PIANO	1057	n/a	n/a	1	n/a	n/a	n/a	n/a	n/a
1096756	REC_WORD	wordpools/wasnorm_wordpool_less_exclusions.txt	LTP293	ltpFR	5	7	0	BATHTUB	100	n/a	n/a	1	n/a	n/a	n/a	n/a	n/a
1098013	REC_WORD	wordpools/wasnorm_wordpool_less_exclusions.txt	LTP293	ltpFR	5	7	0	SUPERMARKET	1409	n/a	n/a	1	n/a	n/a	n/a	n/a	n/a
1100400	REC_WORD	wordpools/wasnorm_wordpool_less_exclusions.txt	LTP293	ltpFR	5	7	0	LAUNDRY	803	n/a	n/a	1	n/a	n/a	n/a	n/a	n/a
1101665	REC_WORD	wordpools/wasnorm_wordpool_less_exclusions.txt	LTP293	ltpFR	5	7	0	MOP	916	n/a	n/a	1	n/a	n/a	n/a	n/a	n/a
1106422	REC_WORD	wordpools/wasnorm_wordpool_less_exclusions.txt	LTP293	ltpFR	5	7	0	COD	340	n/a	n/a	1	n/a	n/a	n/a	n/a	n/a
1114256	REC_WORD	wordpools/wasnorm_wordpool_less_exclusions.txt	LTP293	ltpFR	5	7	0	POET	1095	n/a	n/a	1	n/a	n/a	n/a	n/a	n/a
1115448	REC_WORD	wordpools/wasnorm_wordpool_less_exclusions.txt	LTP293	ltpFR	5	7	0	BOOK	149	n/a	n/a	0	n/a	n/a	n/a	n/a	n/a
1191707	WORD	wordpools/wasnorm_wordpool_less_exclusions.txt	LTP293	ltpFR	5	8	-1	CHICK	296	n/a	n/a	-1	1.0	1.0	1	upper	Verdana.ttf
1195868	WORD	wordpools/wasnorm_wordpool_less_exclusions.txt	LTP293	ltpFR	5	8	-1	HEN	703	n/a	n/a	-1	1.0	1.0	1	upper	Verdana.ttf
1199795	WORD	wordpools/wasnorm_wordpool_less_exclusions.txt	LTP293	ltpFR	5	8	-1	OX	994	n/a	n/a	-1	1.0	1.0	1	upper	Verdana.ttf
1203739	WORD	wordpools/wasnorm_wordpool_less_exclusions.txt	LTP293	ltpFR	5	8	-1	INVENTOR	743	n/a	n/a	-1	1.0	1.0	1	upper	Verdana.ttf
1207567	WORD	wordpools/wasnorm_wordpool_less_exclusions.txt	LTP293	ltpFR	5	8	-1	TYPEWRITER	1531	n/a	n/a	-1	1.0	1.0	1	upper	Verdana.ttf
1211528	WORD	wordpools/wasnorm_wordpool_less_exclusions.txt	LTP293	ltpFR	5	8	-1	RACKET	1155	n/a	n/a	-1	1.0	1.0	1	upper	Verdana.ttf
1215655	WORD	wordpools/wasnorm_wordpool_less_exclusions.txt	LTP293	ltpFR	5	8	-1	KNIGHT	786	n/a	n/a	-1	1.0	1.0	1	upper	Verdana.ttf
1219649	WORD	wordpools/wasnorm_wordpool_less_exclusions.txt	LTP293	ltpFR	5	8	-1	TRUMPET	1513	n/a	n/a	-1	1.0	1.0	1	upper	Verdana.ttf
1223526	WORD	wordpools/wasnorm_wordpool_less_exclusions.txt	LTP293	ltpFR	5	8	-1	SAILOR	1223	n/a	n/a	-1	1.0	1.0	1	upper	Verdana.ttf
1227570	WORD	wordpools/wasnorm_wordpool_less_exclusions.txt	LTP293	ltpFR	5	8	-1	SERGEANT	1269	n/a	n/a	-1	1.0	1.0	1	upper	Verdana.ttf
1231764	WORD	wordpools/wasnorm_wordpool_less_exclusions.txt	LTP293	ltpFR	5	8	-1	PHILOSOPHER	1054	n/a	n/a	-1	1.0	1.0	1	upper	Verdana.ttf
1235908	WORD	wordpools/wasnorm_wordpool_less_exclusions.txt	LTP293	ltpFR	5	8	-1	WAGON	1578	n/a	n/a	-1	1.0	1.0	1	upper	Verdana.ttf
1239786	WORD	wordpools/wasnorm_wordpool_less_exclusions.txt	LTP293	ltpFR	5	8	-1	SPINACH	1352	n/a	n/a	-1	1.0	1.0	1	upper	Verdana.ttf
1243763	WORD	wordpools/wasnorm_wordpool_less_exclusions.txt	LTP293	ltpFR	5	8	-1	COLESLAW	344	n/a	n/a	-1	1.0	1.0	1	upper	Verdana.ttf
1247624	WORD	wordpools/wasnorm_wordpool_less_exclusions.txt	LTP293	ltpFR	5	8	-1	FOLDER	588	n/a	n/a	-1	1.0	1.0	1	upper	Verdana.ttf
1251585	WORD	wordpools/wasnorm_wordpool_less_exclusions.txt	LTP293	ltpFR	5	8	-1	COCKTAIL	338	n/a	n/a	-1	1.0	1.0	1	upper	Verdana.ttf
1257328	REC_START	n/a	LTP293	ltpFR	5	8	n/a	n/a	n/a	n/a	n/a	n/a	n/a	n/a	n/a	n/a	n/a
1257741	REC_WORD	wordpools/wasnorm_wordpool_less_exclusions.txt	LTP293	ltpFR	5	8	-1	COCKTAIL	338	n/a	n/a	-1	n/a	n/a	n/a	n/a	n/a
1258861	REC_WORD	wordpools/wasnorm_wordpool_less_exclusions.txt	LTP293	ltpFR	5	8	-1	SPINACH	1352	n/a	n/a	-1	n/a	n/a	n/a	n/a	n/a
1260286	REC_WORD	wordpools/wasnorm_wordpool_less_exclusions.txt	LTP293	ltpFR	5	8	-1	COLESLAW	344	n/a	n/a	-1	n/a	n/a	n/a	n/a	n/a
1261409	REC_WORD	wordpools/wasnorm_wordpool_less_exclusions.txt	LTP293	ltpFR	5	8	-1	FOLDER	588	n/a	n/a	-1	n/a	n/a	n/a	n/a	n/a
1262821	REC_WORD	wordpools/wasnorm_wordpool_less_exclusions.txt	LTP293	ltpFR	5	8	-1	INVENTOR	743	n/a	n/a	-1	n/a	n/a	n/a	n/a	n/a
1263977	REC_WORD	wordpools/wasnorm_wordpool_less_exclusions.txt	LTP293	ltpFR	5	8	-1	PHILOSOPHER	1054	n/a	n/a	-1	n/a	n/a	n/a	n/a	n/a
1265859	REC_WORD	wordpools/wasnorm_wordpool_less_exclusions.txt	LTP293	ltpFR	5	8	-1	CHICK	296	n/a	n/a	-1	n/a	n/a	n/a	n/a	n/a
1267015	REC_WORD	wordpools/wasnorm_wordpool_less_exclusions.txt	LTP293	ltpFR	5	8	-1	HEN	703	n/a	n/a	-1	n/a	n/a	n/a	n/a	n/a
1268341	REC_WORD	wordpools/wasnorm_wordpool_less_exclusions.txt	LTP293	ltpFR	5	8	-1	OX	994	n/a	n/a	-1	n/a	n/a	n/a	n/a	n/a
1332930	REST_REWET	n/a	LTP293	ltpFR	5	8	n/a	n/a	n/a	n/a	n/a	n/a	n/a	n/a	n/a	n/a	n/a
1989434	WORD	wordpools/wasnorm_wordpool_less_exclusions.txt	LTP293	ltpFR	5	9	0	BEAVER	109	n/a	n/a	0	0.422607421875	0.5869140625	0	lower	zerothre.ttf
1993345	WORD	wordpools/wasnorm_wordpool_less_exclusions.txt	LTP293	ltpFR	5	9	0	GAZELLE	628	n/a	n/a	1	0.422607421875	0.5869140625	0	lower	zerothre.ttf
1997321	WORD	wordpools/wasnorm_wordpool_less_exclusions.txt	LTP293	ltpFR	5	9	0	ALLEY	15	n/a	n/a	0	0.422607421875	0.5869140625	0	lower	zerothre.ttf
2001299	WORD	wordpools/wasnorm_wordpool_less_exclusions.txt	LTP293	ltpFR	5	9	0	TAR	1435	n/a	n/a	1	0.422607421875	0.5869140625	0	lower	zerothre.ttf
2005377	WORD	wordpools/wasnorm_wordpool_less_exclusions.txt	LTP293	ltpFR	5	9	0	FOUNTAIN	597	n/a	n/a	1	0.422607421875	0.5869140625	0	lower	zerothre.ttf
2009354	WORD	wordpools/wasnorm_wordpool_less_exclusions.txt	LTP293	ltpFR	5	9	0	BUCKET	184	n/a	n/a	0	0.422607421875	0.5869140625	0	lower	zerothre.ttf
2013297	WORD	wordpools/wasnorm_wordpool_less_exclusions.txt	LTP293	ltpFR	5	9	1	WHISKERS	1605	n/a	n/a	0	0.57763671875	0.412841796875	1	upper	amplitud.ttf
2017459	WORD	wordpools/wasnorm_wordpool_less_exclusions.txt	LTP293	ltpFR	5	9	1	BLOSSOM	138	n/a	n/a	1	0.57763671875	0.412841796875	1	upper	amplitud.ttf
2021651	WORD	wordpools/wasnorm_wordpool_less_exclusions.txt	LTP293	ltpFR	5	9	1	MERMAID	887	n/a	n/a	1	0.57763671875	0.412841796875	1	upper	amplitud.ttf
2025729	WORD	wordpools/wasnorm_wordpool_less_exclusions.txt	LTP293	ltpFR	5	9	1	HIKER	708	n/a	n/a	1	0.57763671875	0.412841796875	1	upper	amplitud.ttf
2029773	WORD	wordpools/wasnorm_wordpool_less_exclusions.txt	LTP293	ltpFR	5	9	1	RADIATOR	1156	n/a	n/a	0	0.57763671875	0.412841796875	1	upper	amplitud.ttf
2033717	WORD	wordpools/wasnorm_wordpool_less_exclusions.txt	LTP293	ltpFR	5	9	0	GARDEN	623	n/a	n/a	0	0.422607421875	0.5869140625	0	lower	zerothre.ttf
2037628	WORD	wordpools/wasnorm_wordpool_less_exclusions.txt	LTP293	ltpFR	5	9	0	GALAXY	617	n/a	n/a	1	0.422607421875	0.5869140625	0	lower	zerothre.ttf
2041538	WORD	wordpools/wasnorm_wordpool_less_exclusions.txt	LTP293	ltpFR	5	9	1	CRICKET	408	n/a	n/a	1	0.57763671875	0.412841796875	1	upper	amplitud.ttf
2045682	WORD	wordpools/wasnorm_wordpool_less_exclusions.txt	LTP293	ltpFR	5	9	1	ROD	1203	n/a	n/a	0	0.57763671875	0.412841796875	1	upper	amplitud.ttf
2049643	WORD	wordpools/wasnorm_wordpool_less_exclusions.txt	LTP293	ltpFR	5	9	1	SLIDE	1326	n/a	n/a	0	0.57763671875	0.412841796875	1	upper	amplitud.ttf
2055302	REC_START	n/a	LTP293	ltpFR	5	9	n/a	n/a	n/a	n/a	n/a	n/a	n/a	n/a	n/a	n/a	n/a
2056020	REC_WORD	wordpools/wasnorm_wordpool_less_exclusions.txt	LTP293	ltpFR	5	9	1	SLIDE	1326	n/a	n/a	0	n/a	n/a	n/a	n/a	n/a
2057226	REC_WORD	wordpools/wasnorm_wordpool_less_exclusions.txt	LTP293	ltpFR	5	9	0	ALLEY	15	n/a	n/a	0	n/a	n/a	n/a	n/a	n/a
2058502	REC_WORD	wordpools/wasnorm_wordpool_less_exclusions.txt	LTP293	ltpFR	5	9	1	RADIATOR	1156	n/a	n/a	0	n/a	n/a	n/a	n/a	n/a
2060797	REC_WORD	wordpools/wasnorm_wordpool_less_exclusions.txt	LTP293	ltpFR	5	9	0	BUCKET	184	n/a	n/a	0	n/a	n/a	n/a	n/a	n/a
2062654	REC_WORD	wordpools/wasnorm_wordpool_less_exclusions.txt	LTP293	ltpFR	5	9	0	FOUNTAIN	597	n/a	n/a	1	n/a	n/a	n/a	n/a	n/a
2063920	REC_WORD	wordpools/wasnorm_wordpool_less_exclusions.txt	LTP293	ltpFR	5	9	1	MERMAID	887	n/a	n/a	1	n/a	n/a	n/a	n/a	n/a
2065233	REC_WORD	wordpools/wasnorm_wordpool_less_exclusions.txt	LTP293	ltpFR	5	9	0	BEAVER	109	n/a	n/a	0	n/a	n/a	n/a	n/a	n/a
2066242	REC_WORD	wordpools/wasnorm_wordpool_less_exclusions.txt	LTP293	ltpFR	5	9	0	GAZELLE	628	n/a	n/a	1	n/a	n/a	n/a	n/a	n/a
2069048	REC_WORD	wordpools/wasnorm_wordpool_less_exclusions.txt	LTP293	ltpFR	5	9	1	CRICKET	408	n/a	n/a	1	n/a	n/a	n/a	n/a	n/a
2073091	REC_WORD	wordpools/wasnorm_wordpool_less_exclusions.txt	LTP293	ltpFR	5	9	1	SLIDE	1326	n/a	n/a	0	n/a	n/a	n/a	n/a	n/a
2076565	REC_WORD	wordpools/wasnorm_wordpool_less_exclusions.txt	LTP293	ltpFR	5	9	1	WHISKERS	1605	n/a	n/a	0	n/a	n/a	n/a	n/a	n/a
2087458	REC_WORD	wordpools/wasnorm_wordpool_less_exclusions.txt	LTP293	ltpFR	5	9	1	HIKER	708	n/a	n/a	1	n/a	n/a	n/a	n/a	n/a
2134799	WORD	wordpools/wasnorm_wordpool_less_exclusions.txt	LTP293	ltpFR	5	10	0	CONCRETE	361	n/a	n/a	1	0.422607421875	0.5869140625	0	lower	zerothre.ttf
2138627	WORD	wordpools/wasnorm_wordpool_less_exclusions.txt	LTP293	ltpFR	5	10	0	BASKETBALL	96	n/a	n/a	1	0.422607421875	0.5869140625	0	lower	zerothre.ttf
2142804	WORD	wordpools/wasnorm_wordpool_less_exclusions.txt	LTP293	ltpFR	5	10	0	PEARL	1034	n/a	n/a	0	0.422607421875	0.5869140625	0	lower	zerothre.ttf
2146981	WORD	wordpools/wasnorm_wordpool_less_exclusions.txt	LTP293	ltpFR	5	10	0	CHAIN	273	n/a	n/a	0	0.422607421875	0.5869140625	0	lower	zerothre.ttf
2151191	WORD	wordpools/wasnorm_wordpool_less_exclusions.txt	LTP293	ltpFR	5	10	0	THICKET	1455	n/a	n/a	0	0.422607421875	0.5869140625	0	lower	zerothre.ttf
2155135	WORD	wordpools/wasnorm_wordpool_less_exclusions.txt	LTP293	ltpFR	5	10	0	PAINTER	1004	n/a	n/a	1	0.422607421875	0.5869140625	0	lower	zerothre.ttf
2158996	WORD	wordpools/wasnorm_wordpool_less_exclusions.txt	LTP293	ltpFR	5	10	0	ROCK	1201	n/a	n/a	0	0.422607421875	0.5869140625	0	lower	zerothre.ttf
2163174	WORD	wordpools/wasnorm_wordpool_less_exclusions.txt	LTP293	ltpFR	5	10	0	LUGGAGE	847	n/a	n/a	1	0.422607421875	0.5869140625	0	lower	zerothre.ttf
2167151	WORD	wordpools/wasnorm_wordpool_less_exclusions.txt	LTP293	ltpFR	5	10	0	ATHLETE	52	n/a	n/a	1	0.422607421875	0.5869140625	0	lower	zerothre.ttf
2171362	WORD	wordpools/wasnorm_wordpool_less_exclusions.txt	LTP293	ltpFR	5	10	0	PAINTING	1005	n/a	n/a	1	0.422607421875	0.5869140625	0	lower	zerothre.ttf
2175456	WORD	wordpools/wasnorm_wordpool_less_exclusions.txt	LTP293	ltpFR	5	10	0	MILITARY	894	n/a	n/a	1	0.422607421875	0.5869140625	0	lower	zerothre.ttf
2179549	WORD	wordpools/wasnorm_wordpool_less_exclusions.txt	LTP293	ltpFR	5	10	0	TORNADO	1485	n/a	n/a	1	0.422607421875	0.5869140625	0	lower	zerothre.ttf
2183428	WORD	wordpools/wasnorm_wordpool_less_exclusions.txt	LTP293	ltpFR	5	10	0	COMPUTER	359	n/a	n/a	1	0.422607421875	0.5869140625	0	lower	zerothre.ttf
2187287	WORD	wordpools/wasnorm_wordpool_less_exclusions.txt	LTP293	ltpFR	5	10	0	ANTENNA	28	n/a	n/a	0	0.422607421875	0.5869140625	0	lower	zerothre.ttf
2191248	WORD	wordpools/wasnorm_wordpool_less_exclusions.txt	LTP293	ltpFR	5	10	0	VELVET	1555	n/a	n/a	0	0.422607421875	0.5869140625	0	lower	zerothre.ttf
2195126	WORD	wordpools/wasnorm_wordpool_less_exclusions.txt	LTP293	ltpFR	5	10	0	PADDING	999	n/a	n/a	0	0.422607421875	0.5869140625	0	lower	zerothre.ttf
2201068	REC_START	n/a	LTP293	ltpFR	5	10	n/a	n/a	n/a	n/a	n/a	n/a	n/a	n/a	n/a	n/a	n/a
2201511	REC_WORD	wordpools/wasnorm_wordpool_less_exclusions.txt	LTP293	ltpFR	5	10	0	PADDING	999	n/a	n/a	0	n/a	n/a	n/a	n/a	n/a
2202749	REC_WORD	wordpools/wasnorm_wordpool_less_exclusions.txt	LTP293	ltpFR	5	10	0	BASKETBALL	96	n/a	n/a	1	n/a	n/a	n/a	n/a	n/a
2204003	REC_WORD	wordpools/wasnorm_wordpool_less_exclusions.txt	LTP293	ltpFR	5	10	0	CONCRETE	361	n/a	n/a	1	n/a	n/a	n/a	n/a	n/a
2205624	REC_WORD	wordpools/wasnorm_wordpool_less_exclusions.txt	LTP293	ltpFR	5	10	0	PEARL	1034	n/a	n/a	0	n/a	n/a	n/a	n/a	n/a
2206828	REC_WORD	wordpools/wasnorm_wordpool_less_exclusions.txt	LTP293	ltpFR	5	10	0	THICKET	1455	n/a	n/a	0	n/a	n/a	n/a	n/a	n/a
2208176	REC_WORD	wordpools/wasnorm_wordpool_less_exclusions.txt	LTP293	ltpFR	5	10	0	PAINTER	1004	n/a	n/a	1	n/a	n/a	n/a	n/a	n/a
2209380	REC_WORD	wordpools/wasnorm_wordpool_less_exclusions.txt	LTP293	ltpFR	5	10	0	PAINTING	1005	n/a	n/a	1	n/a	n/a	n/a	n/a	n/a
2210816	REC_WORD	wordpools/wasnorm_wordpool_less_exclusions.txt	LTP293	ltpFR	5	10	0	ROCK	1201	n/a	n/a	0	n/a	n/a	n/a	n/a	n/a
2212648	REC_WORD	wordpools/wasnorm_wordpool_less_exclusions.txt	LTP293	ltpFR	5	10	0	MILITARY	894	n/a	n/a	1	n/a	n/a	n/a	n/a	n/a
2214246	REC_WORD	wordpools/wasnorm_wordpool_less_exclusions.txt	LTP293	ltpFR	5	10	0	TORNADO	1485	n/a	n/a	1	n/a	n/a	n/a	n/a	n/a
2219173	REC_WORD	wordpools/wasnorm_wordpool_less_exclusions.txt	LTP293	ltpFR	5	10	0	ATHLETE	52	n/a	n/a	1	n/a	n/a	n/a	n/a	n/a
2283693	WORD	wordpools/wasnorm_wordpool_less_exclusions.txt	LTP293	ltpFR	5	11	-1	FLOWER	584	n/a	n/a	-1	1.0	1.0	1	upper	Verdana.ttf
2287638	WORD	wordpools/wasnorm_wordpool_less_exclusions.txt	LTP293	ltpFR	5	11	-1	DICE	461	n/a	n/a	-1	1.0	1.0	1	upper	Verdana.ttf
2291748	WORD	wordpools/wasnorm_wordpool_less_exclusions.txt	LTP293	ltpFR	5	11	-1	FENCE	560	n/a	n/a	-1	1.0	1.0	1	upper	Verdana.ttf
2295726	WORD	wordpools/wasnorm_wordpool_less_exclusions.txt	LTP293	ltpFR	5	11	-1	SUPPER	1411	n/a	n/a	-1	1.0	1.0	1	upper	Verdana.ttf
2299570	WORD	wordpools/wasnorm_wordpool_less_exclusions.txt	LTP293	ltpFR	5	11	-1	RECIPE	1175	n/a	n/a	-1	1.0	1.0	1	upper	Verdana.ttf
2303730	WORD	wordpools/wasnorm_wordpool_less_exclusions.txt	LTP293	ltpFR	5	11	-1	BATTERY	101	n/a	n/a	-1	1.0	1.0	1	upper	Verdana.ttf
2307774	WORD	wordpools/wasnorm_wordpool_less_exclusions.txt	LTP293	ltpFR	5	11	-1	HAIL	676	n/a	n/a	-1	1.0	1.0	1	upper	Verdana.ttf
2311868	WORD	wordpools/wasnorm_wordpool_less_exclusions.txt	LTP293	ltpFR	5	11	-1	GREASE	660	n/a	n/a	-1	1.0	1.0	1	upper	Verdana.ttf
2315779	WORD	wordpools/wasnorm_wordpool_less_exclusions.txt	LTP293	ltpFR	5	11	-1	ANKLE	24	n/a	n/a	-1	1.0	1.0	1	upper	Verdana.ttf
2319640	WORD	wordpools/wasnorm_wordpool_less_exclusions.txt	LTP293	ltpFR	5	11	-1	SATURN	1236	n/a	n/a	-1	1.0	1.0	1	upper	Verdana.ttf
2323667	WORD	wordpools/wasnorm_wordpool_less_exclusions.txt	LTP293	ltpFR	5	11	-1	HEART	697	n/a	n/a	-1	1.0	1.0	1	upper	Verdana.ttf
2327711	WORD	wordpools/wasnorm_wordpool_less_exclusions.txt	LTP293	ltpFR	5	11	-1	FINGERNAIL	568	n/a	n/a	-1	1.0	1.0	1	upper	Verdana.ttf
2331639	WORD	wordpools/wasnorm_wordpool_less_exclusions.txt	LTP293	ltpFR	5	11	-1	RUBY	1214	n/a	n/a	-1	1.0	1.0	1	upper	Verdana.ttf
2335832	WORD	wordpools/wasnorm_wordpool_less_exclusions.txt	LTP293	ltpFR	5	11	-1	RULER	1216	n/a	n/a	-1	1.0	1.0	1	upper	Verdana.ttf
2339826	WORD	wordpools/wasnorm_wordpool_less_exclusions.txt	LTP293	ltpFR	5	11	-1	MONARCH	906	n/a	n/a	-1	1.0	1.0	1	upper	Verdana.ttf
2343687	WORD	wordpools/wasnorm_wordpool_less_exclusions.txt	LTP293	ltpFR	5	11	-1	JEWEL	757	n/a	n/a	-1	1.0	1.0	1	upper	Verdana.ttf
2349529	REC_START	n/a	LTP293	ltpFR	5	11	n/a	n/a	n/a	n/a	n/a	n/a	n/a	n/a	n/a	n/a	n/a
2350046	REC_WORD	wordpools/wasnorm_wordpool_less_exclusions.txt	LTP293	ltpFR	5	11	-1	JEWEL	757	n/a	n/a	-1	n/a	n/a	n/a	n/a	n/a
2351135	REC_WORD	wordpools/wasnorm_wordpool_less_exclusions.txt	LTP293	ltpFR	5	11	-1	RUBY	1214	n/a	n/a	-1	n/a	n/a	n/a	n/a	n/a
2352428	REC_WORD	wordpools/wasnorm_wordpool_less_exclusions.txt	LTP293	ltpFR	5	11	-1	MONARCH	906	n/a	n/a	-1	n/a	n/a	n/a	n/a	n/a
2353497	REC_WORD	wordpools/wasnorm_wordpool_less_exclusions.txt	LTP293	ltpFR	5	11	-1	FENCE	560	n/a	n/a	-1	n/a	n/a	n/a	n/a	n/a
2354723	REC_WORD	wordpools/wasnorm_wordpool_less_exclusions.txt	LTP293	ltpFR	5	11	-1	HAIL	676	n/a	n/a	-1	n/a	n/a	n/a	n/a	n/a
2355948	REC_WORD	wordpools/wasnorm_wordpool_less_exclusions.txt	LTP293	ltpFR	5	11	-1	SUPPER	1411	n/a	n/a	-1	n/a	n/a	n/a	n/a	n/a
2357205	REC_WORD	wordpools/wasnorm_wordpool_less_exclusions.txt	LTP293	ltpFR	5	11	n/a	COOKBOOK	373	n/a	n/a	n/a	n/a	n/a	n/a	n/a	n/a
2359276	REC_WORD	wordpools/wasnorm_wordpool_less_exclusions.txt	LTP293	ltpFR	5	11	-1	RULER	1216	n/a	n/a	-1	n/a	n/a	n/a	n/a	n/a
2362999	REC_WORD	wordpools/wasnorm_wordpool_less_exclusions.txt	LTP293	ltpFR	5	11	-1	DICE	461	n/a	n/a	-1	n/a	n/a	n/a	n/a	n/a
2374970	REC_WORD	wordpools/wasnorm_wordpool_less_exclusions.txt	LTP293	ltpFR	5	11	-1	FLOWER	584	n/a	n/a	-1	n/a	n/a	n/a	n/a	n/a
2429742	WORD	wordpools/wasnorm_wordpool_less_exclusions.txt	LTP293	ltpFR	5	12	0	HERO	706	n/a	n/a	1	0.422607421875	0.5869140625	0	lower	zerothre.ttf
2433703	WORD	wordpools/wasnorm_wordpool_less_exclusions.txt	LTP293	ltpFR	5	12	0	DEER	444	n/a	n/a	1	0.422607421875	0.5869140625	0	lower	zerothre.ttf
2437597	WORD	wordpools/wasnorm_wordpool_less_exclusions.txt	LTP293	ltpFR	5	12	0	MECHANIC	884	n/a	n/a	1	0.422607421875	0.5869140625	0	lower	zerothre.ttf
2441509	WORD	wordpools/wasnorm_wordpool_less_exclusions.txt	LTP293	ltpFR	5	12	0	MAGAZINE	853	n/a	n/a	0	0.422607421875	0.5869140625	0	lower	zerothre.ttf
2445718	WORD	wordpools/wasnorm_wordpool_less_exclusions.txt	LTP293	ltpFR	5	12	1	CIGARETTE	309	n/a	n/a	0	0.57763671875	0.412841796875	1	upper	amplitud.ttf
2449746	WORD	wordpools/wasnorm_wordpool_less_exclusions.txt	LTP293	ltpFR	5	12	1	DUCK	504	n/a	n/a	1	0.57763671875	0.412841796875	1	upper	amplitud.ttf
2453906	WORD	wordpools/wasnorm_wordpool_less_exclusions.txt	LTP293	ltpFR	5	12	1	IDOL	733	n/a	n/a	1	0.57763671875	0.412841796875	1	upper	amplitud.ttf
2457750	WORD	wordpools/wasnorm_wordpool_less_exclusions.txt	LTP293	ltpFR	5	12	1	STEW	1380	n/a	n/a	0	0.57763671875	0.412841796875	1	upper	amplitud.ttf
2461644	WORD	wordpools/wasnorm_wordpool_less_exclusions.txt	LTP293	ltpFR	5	12	0	POTATO	1115	n/a	n/a	0	0.422607421875	0.5869140625	0	lower	zerothre.ttf
2465605	WORD	wordpools/wasnorm_wordpool_less_exclusions.txt	LTP293	ltpFR	5	12	0	SADDLE	1221	n/a	n/a	0	0.422607421875	0.5869140625	0	lower	zerothre.ttf
2469716	WORD	wordpools/wasnorm_wordpool_less_exclusions.txt	LTP293	ltpFR	5	12	1	SWAMP	1416	n/a	n/a	0	0.57763671875	0.412841796875	1	upper	amplitud.ttf
2473593	WORD	wordpools/wasnorm_wordpool_less_exclusions.txt	LTP293	ltpFR	5	12	1	ANTELOPE	27	n/a	n/a	1	0.57763671875	0.412841796875	1	upper	amplitud.ttf
2477489	WORD	wordpools/wasnorm_wordpool_less_exclusions.txt	LTP293	ltpFR	5	12	1	ELK	526	n/a	n/a	1	0.57763671875	0.412841796875	1	upper	amplitud.ttf
2481631	WORD	wordpools/wasnorm_wordpool_less_exclusions.txt	LTP293	ltpFR	5	12	1	ORANGE	980	n/a	n/a	1	0.57763671875	0.412841796875	1	upper	amplitud.ttf
2485542	WORD	wordpools/wasnorm_wordpool_less_exclusions.txt	LTP293	ltpFR	5	12	0	BRAN	167	n/a	n/a	0	0.422607421875	0.5869140625	0	lower	zerothre.ttf
2489736	WORD	wordpools/wasnorm_wordpool_less_exclusions.txt	LTP293	ltpFR	5	12	0	PAGE	1001	n/a	n/a	0	0.422607421875	0.5869140625	0	lower	zerothre.ttf
2495462	REC_START	n/a	LTP293	ltpFR	5	12	n/a	n/a	n/a	n/a	n/a	n/a	n/a	n/a	n/a	n/a	n/a
2495944	REC_WORD	wordpools/wasnorm_wordpool_less_exclusions.txt	LTP293	ltpFR	5	12	0	BRAN	167	n/a	n/a	0	n/a	n/a	n/a	n/a	n/a
2496937	REC_WORD	wordpools/wasnorm_wordpool_less_exclusions.txt	LTP293	ltpFR	5	12	0	PAGE	1001	n/a	n/a	0	n/a	n/a	n/a	n/a	n/a
2498063	REC_WORD	wordpools/wasnorm_wordpool_less_exclusions.txt	LTP293	ltpFR	5	12	0	DEER	444	n/a	n/a	1	n/a	n/a	n/a	n/a	n/a
2499277	REC_WORD	wordpools/wasnorm_wordpool_less_exclusions.txt	LTP293	ltpFR	5	12	1	ELK	526	n/a	n/a	1	n/a	n/a	n/a	n/a	n/a
2501285	REC_WORD	wordpools/wasnorm_wordpool_less_exclusions.txt	LTP293	ltpFR	5	12	0	HERO	706	n/a	n/a	1	n/a	n/a	n/a	n/a	n/a
2502430	REC_WORD	wordpools/wasnorm_wordpool_less_exclusions.txt	LTP293	ltpFR	5	12	1	IDOL	733	n/a	n/a	1	n/a	n/a	n/a	n/a	n/a
2503785	REC_WORD	wordpools/wasnorm_wordpool_less_exclusions.txt	LTP293	ltpFR	5	12	1	CIGARETTE	309	n/a	n/a	0	n/a	n/a	n/a	n/a	n/a
2505017	REC_WORD	wordpools/wasnorm_wordpool_less_exclusions.txt	LTP293	ltpFR	5	12	0	MECHANIC	884	n/a	n/a	1	n/a	n/a	n/a	n/a	n/a
2510487	REC_WORD	wordpools/wasnorm_wordpool_less_exclusions.txt	LTP293	ltpFR	5	12	1	ORANGE	980	n/a	n/a	1	n/a	n/a	n/a	n/a	n/a
2587590	WORD	wordpools/wasnorm_wordpool_less_exclusions.txt	LTP293	ltpFR	5	13	1	SERVER	1272	n/a	n/a	1	0.57763671875	0.412841796875	1	upper	amplitud.ttf
2591750	WORD	wordpools/wasnorm_wordpool_less_exclusions.txt	LTP293	ltpFR	5	13	1	COOK	372	n/a	n/a	1	0.57763671875	0.412841796875	1	upper	amplitud.ttf
2595644	WORD	wordpools/wasnorm_wordpool_less_exclusions.txt	LTP293	ltpFR	5	13	1	PROFESSIONAL	1130	n/a	n/a	1	0.57763671875	0.412841796875	1	upper	amplitud.ttf
2599589	WORD	wordpools/wasnorm_wordpool_less_exclusions.txt	LTP293	ltpFR	5	13	1	ARTIST	43	n/a	n/a	1	0.57763671875	0.412841796875	1	upper	amplitud.ttf
2603533	WORD	wordpools/wasnorm_wordpool_less_exclusions.txt	LTP293	ltpFR	5	13	1	LOBSTER	837	n/a	n/a	0	0.57763671875	0.412841796875	1	upper	amplitud.ttf
2607494	WORD	wordpools/wasnorm_wordpool_less_exclusions.txt	LTP293	ltpFR	5	13	1	HOOD	714	n/a	n/a	0	0.57763671875	0.412841796875	1	upper	amplitud.ttf
2611355	WORD	wordpools/wasnorm_wordpool_less_exclusions.txt	LTP293	ltpFR	5	13	1	CARAVAN	242	n/a	n/a	0	0.57763671875	0.412841796875	1	upper	amplitud.ttf
2615449	WORD	wordpools/wasnorm_wordpool_less_exclusions.txt	LTP293	ltpFR	5	13	1	SECRETARY	1265	n/a	n/a	1	0.57763671875	0.412841796875	1	upper	amplitud.ttf
2619360	WORD	wordpools/wasnorm_wordpool_less_exclusions.txt	LTP293	ltpFR	5	13	1	MOUNTAIN	924	n/a	n/a	0	0.57763671875	0.412841796875	1	upper	amplitud.ttf
2623220	WORD	wordpools/wasnorm_wordpool_less_exclusions.txt	LTP293	ltpFR	5	13	1	CANYON	235	n/a	n/a	0	0.57763671875	0.412841796875	1	upper	amplitud.ttf
2627197	WORD	wordpools/wasnorm_wordpool_less_exclusions.txt	LTP293	ltpFR	5	13	1	CAFETERIA	217	n/a	n/a	0	0.57763671875	0.412841796875	1	upper	amplitud.ttf
2631091	WORD	wordpools/wasnorm_wordpool_less_exclusions.txt	LTP293	ltpFR	5	13	1	GARBAGE	622	n/a	n/a	0	0.57763671875	0.412841796875	1	upper	amplitud.ttf
2635252	WORD	wordpools/wasnorm_wordpool_less_exclusions.txt	LTP293	ltpFR	5	13	1	HARP	689	n/a	n/a	0	0.57763671875	0.412841796875	1	upper	amplitud.ttf
2639080	WORD	wordpools/wasnorm_wordpool_less_exclusions.txt	LTP293	ltpFR	5	13	1	OWL	992	n/a	n/a	1	0.57763671875	0.412841796875	1	upper	amplitud.ttf
2643240	WORD	wordpools/wasnorm_wordpool_less_exclusions.txt	LTP293	ltpFR	5	13	1	DUMP	505	n/a	n/a	0	0.57763671875	0.412841796875	1	upper	amplitud.ttf
2647284	WORD	wordpools/wasnorm_wordpool_less_exclusions.txt	LTP293	ltpFR	5	13	1	ALBUM	14	n/a	n/a	0	0.57763671875	0.412841796875	1	upper	amplitud.ttf
2653209	REC_START	n/a	LTP293	ltpFR	5	13	n/a	n/a	n/a	n/a	n/a	n/a	n/a	n/a	n/a	n/a	n/a
2653836	REC_WORD	wordpools/wasnorm_wordpool_less_exclusions.txt	LTP293	ltpFR	5	13	1	ALBUM	14	n/a	n/a	0	n/a	n/a	n/a	n/a	n/a
2654914	REC_WORD	wordpools/wasnorm_wordpool_less_exclusions.txt	LTP293	ltpFR	5	13	1	OWL	992	n/a	n/a	1	n/a	n/a	n/a	n/a	n/a
2656243	REC_WORD	wordpools/wasnorm_wordpool_less_exclusions.txt	LTP293	ltpFR	5	13	1	DUMP	505	n/a	n/a	0	n/a	n/a	n/a	n/a	n/a
2657215	REC_WORD	wordpools/wasnorm_wordpool_less_exclusions.txt	LTP293	ltpFR	5	13	1	CAFETERIA	217	n/a	n/a	0	n/a	n/a	n/a	n/a	n/a
2659809	REC_WORD	wordpools/wasnorm_wordpool_less_exclusions.txt	LTP293	ltpFR	5	13	1	COOK	372	n/a	n/a	1	n/a	n/a	n/a	n/a	n/a
2660927	REC_WORD	wordpools/wasnorm_wordpool_less_exclusions.txt	LTP293	ltpFR	5	13	1	SERVER	1272	n/a	n/a	1	n/a	n/a	n/a	n/a	n/a
2662251	REC_WORD	wordpools/wasnorm_wordpool_less_exclusions.txt	LTP293	ltpFR	5	13	1	LOBSTER	837	n/a	n/a	0	n/a	n/a	n/a	n/a	n/a
2664785	REC_WORD	wordpools/wasnorm_wordpool_less_exclusions.txt	LTP293	ltpFR	5	13	1	GARBAGE	622	n/a	n/a	0	n/a	n/a	n/a	n/a	n/a
2671561	REC_WORD	wordpools/wasnorm_wordpool_less_exclusions.txt	LTP293	ltpFR	5	13	1	ARTIST	43	n/a	n/a	1	n/a	n/a	n/a	n/a	n/a
2672441	REC_WORD	wordpools/wasnorm_wordpool_less_exclusions.txt	LTP293	ltpFR	5	13	1	PROFESSIONAL	1130	n/a	n/a	1	n/a	n/a	n/a	n/a	n/a
2673804	REC_WORD	wordpools/wasnorm_wordpool_less_exclusions.txt	LTP293	ltpFR	5	13	1	CARAVAN	242	n/a	n/a	0	n/a	n/a	n/a	n/a	n/a
2754607	WORD	wordpools/wasnorm_wordpool_less_exclusions.txt	LTP293	ltpFR	5	14	-1	PENNY	1045	n/a	n/a	-1	1.0	1.0	1	upper	Verdana.ttf
2758668	WORD	wordpools/wasnorm_wordpool_less_exclusions.txt	LTP293	ltpFR	5	14	-1	WALLET	1583	n/a	n/a	-1	1.0	1.0	1	upper	Verdana.ttf
2762812	WORD	wordpools/wasnorm_wordpool_less_exclusions.txt	LTP293	ltpFR	5	14	-1	ZUCCHINI	1638	n/a	n/a	-1	1.0	1.0	1	upper	Verdana.ttf
2766939	WORD	wordpools/wasnorm_wordpool_less_exclusions.txt	LTP293	ltpFR	5	14	-1	SURF	1412	n/a	n/a	-1	1.0	1.0	1	upper	Verdana.ttf
2770949	WORD	wordpools/wasnorm_wordpool_less_exclusions.txt	LTP293	ltpFR	5	14	-1	PIE	1062	n/a	n/a	-1	1.0	1.0	1	upper	Verdana.ttf
2774893	WORD	wordpools/wasnorm_wordpool_less_exclusions.txt	LTP293	ltpFR	5	14	-1	RADIO	1157	n/a	n/a	-1	1.0	1.0	1	upper	Verdana.ttf
2779071	WORD	wordpools/wasnorm_wordpool_less_exclusions.txt	LTP293	ltpFR	5	14	-1	TAPE	1433	n/a	n/a	-1	1.0	1.0	1	upper	Verdana.ttf
2783065	WORD	wordpools/wasnorm_wordpool_less_exclusions.txt	LTP293	ltpFR	5	14	-1	STEM	1376	n/a	n/a	-1	1.0	1.0	1	upper	Verdana.ttf
2787009	WORD	wordpools/wasnorm_wordpool_less_exclusions.txt	LTP293	ltpFR	5	14	-1	RAKE	1164	n/a	n/a	-1	1.0	1.0	1	upper	Verdana.ttf
2790936	WORD	wordpools/wasnorm_wordpool_less_exclusions.txt	LTP293	ltpFR	5	14	-1	FIELD	562	n/a	n/a	-1	1.0	1.0	1	upper	Verdana.ttf
2794964	WORD	wordpools/wasnorm_wordpool_less_exclusions.txt	LTP293	ltpFR	5	14	-1	SERPENT	1270	n/a	n/a	-1	1.0	1.0	1	upper	Verdana.ttf
2799174	WORD	wordpools/wasnorm_wordpool_less_exclusions.txt	LTP293	ltpFR	5	14	-1	CERAMICS	271	n/a	n/a	-1	1.0	1.0	1	upper	Verdana.ttf
2803118	WORD	wordpools/wasnorm_wordpool_less_exclusions.txt	LTP293	ltpFR	5	14	-1	SHELTER	1282	n/a	n/a	-1	1.0	1.0	1	upper	Verdana.ttf
2807062	WORD	wordpools/wasnorm_wordpool_less_exclusions.txt	LTP293	ltpFR	5	14	-1	DAM	436	n/a	n/a	-1	1.0	1.0	1	upper	Verdana.ttf
2811156	WORD	wordpools/wasnorm_wordpool_less_exclusions.txt	LTP293	ltpFR	5	14	-1	POLE	1097	n/a	n/a	-1	1.0	1.0	1	upper	Verdana.ttf
2815150	WORD	wordpools/wasnorm_wordpool_less_exclusions.txt	LTP293	ltpFR	5	14	-1	PATIO	1025	n/a	n/a	-1	1.0	1.0	1	upper	Verdana.ttf
2821009	REC_START	n/a	LTP293	ltpFR	5	14	n/a	n/a	n/a	n/a	n/a	n/a	n/a	n/a	n/a	n/a	n/a
2821473	REC_WORD	wordpools/wasnorm_wordpool_less_exclusions.txt	LTP293	ltpFR	5	14	-1	PATIO	1025	n/a	n/a	-1	n/a	n/a	n/a	n/a	n/a
2822573	REC_WORD	wordpools/wasnorm_wordpool_less_exclusions.txt	LTP293	ltpFR	5	14	-1	POLE	1097	n/a	n/a	-1	n/a	n/a	n/a	n/a	n/a
2823820	REC_WORD	wordpools/wasnorm_wordpool_less_exclusions.txt	LTP293	ltpFR	5	14	-1	SURF	1412	n/a	n/a	-1	n/a	n/a	n/a	n/a	n/a
2825873	REC_WORD	wordpools/wasnorm_wordpool_less_exclusions.txt	LTP293	ltpFR	5	14	-1	ZUCCHINI	1638	n/a	n/a	-1	n/a	n/a	n/a	n/a	n/a
2827573	REC_WORD	wordpools/wasnorm_wordpool_less_exclusions.txt	LTP293	ltpFR	5	14	-1	WALLET	1583	n/a	n/a	-1	n/a	n/a	n/a	n/a	n/a
2828848	REC_WORD	wordpools/wasnorm_wordpool_less_exclusions.txt	LTP293	ltpFR	5	14	-1	PENNY	1045	n/a	n/a	-1	n/a	n/a	n/a	n/a	n/a
2830123	REC_WORD	wordpools/wasnorm_wordpool_less_exclusions.txt	LTP293	ltpFR	5	14	-1	FIELD	562	n/a	n/a	-1	n/a	n/a	n/a	n/a	n/a
2831335	REC_WORD	wordpools/wasnorm_wordpool_less_exclusions.txt	LTP293	ltpFR	5	14	-1	SERPENT	1270	n/a	n/a	-1	n/a	n/a	n/a	n/a	n/a
2833565	REC_WORD	wordpools/wasnorm_wordpool_less_exclusions.txt	LTP293	ltpFR	5	14	-1	RAKE	1164	n/a	n/a	-1	n/a	n/a	n/a	n/a	n/a
2836348	REC_WORD	wordpools/wasnorm_wordpool_less_exclusions.txt	LTP293	ltpFR	5	14	-1	SHELTER	1282	n/a	n/a	-1	n/a	n/a	n/a	n/a	n/a
2839783	REC_WORD	wordpools/wasnorm_wordpool_less_exclusions.txt	LTP293	ltpFR	5	14	-1	POLE	1097	n/a	n/a	-1	n/a	n/a	n/a	n/a	n/a
2844441	REC_WORD	wordpools/wasnorm_wordpool_less_exclusions.txt	LTP293	ltpFR	5	14	-1	PIE	1062	n/a	n/a	-1	n/a	n/a	n/a	n/a	n/a
2849544	REC_WORD	wordpools/wasnorm_wordpool_less_exclusions.txt	LTP293	ltpFR	5	14	-1	PATIO	1025	n/a	n/a	-1	n/a	n/a	n/a	n/a	n/a
2902752	WORD	wordpools/wasnorm_wordpool_less_exclusions.txt	LTP293	ltpFR	5	15	0	DART	440	n/a	n/a	0	0.422607421875	0.5869140625	0	lower	zerothre.ttf
2906647	WORD	wordpools/wasnorm_wordpool_less_exclusions.txt	LTP293	ltpFR	5	15	0	CHESS	294	n/a	n/a	1	0.422607421875	0.5869140625	0	lower	zerothre.ttf
2910774	WORD	wordpools/wasnorm_wordpool_less_exclusions.txt	LTP293	ltpFR	5	15	0	OATMEAL	967	n/a	n/a	0	0.422607421875	0.5869140625	0	lower	zerothre.ttf
2914934	WORD	wordpools/wasnorm_wordpool_less_exclusions.txt	LTP293	ltpFR	5	15	0	SHOVEL	1295	n/a	n/a	1	0.422607421875	0.5869140625	0	lower	zerothre.ttf
2919111	WORD	wordpools/wasnorm_wordpool_less_exclusions.txt	LTP293	ltpFR	5	15	0	LIVER	833	n/a	n/a	0	0.422607421875	0.5869140625	0	lower	zerothre.ttf
2923072	WORD	wordpools/wasnorm_wordpool_less_exclusions.txt	LTP293	ltpFR	5	15	0	KITCHEN	778	n/a	n/a	1	0.422607421875	0.5869140625	0	lower	zerothre.ttf
2927033	WORD	wordpools/wasnorm_wordpool_less_exclusions.txt	LTP293	ltpFR	5	15	0	FRUIT	610	n/a	n/a	0	0.422607421875	0.5869140625	0	lower	zerothre.ttf
2931177	WORD	wordpools/wasnorm_wordpool_less_exclusions.txt	LTP293	ltpFR	5	15	0	PEACH	1031	n/a	n/a	0	0.422607421875	0.5869140625	0	lower	zerothre.ttf
2935304	WORD	wordpools/wasnorm_wordpool_less_exclusions.txt	LTP293	ltpFR	5	15	0	BEETLE	116	n/a	n/a	0	0.422607421875	0.5869140625	0	lower	zerothre.ttf
2939181	WORD	wordpools/wasnorm_wordpool_less_exclusions.txt	LTP293	ltpFR	5	15	0	MOSS	918	n/a	n/a	0	0.422607421875	0.5869140625	0	lower	zerothre.ttf
2943176	WORD	wordpools/wasnorm_wordpool_less_exclusions.txt	LTP293	ltpFR	5	15	0	BASKET	95	n/a	n/a	0	0.422607421875	0.5869140625	0	lower	zerothre.ttf
2947269	WORD	wordpools/wasnorm_wordpool_less_exclusions.txt	LTP293	ltpFR	5	15	0	TOILET	1475	n/a	n/a	1	0.422607421875	0.5869140625	0	lower	zerothre.ttf
2951213	WORD	wordpools/wasnorm_wordpool_less_exclusions.txt	LTP293	ltpFR	5	15	0	BRANCH	168	n/a	n/a	1	0.422607421875	0.5869140625	0	lower	zerothre.ttf
2955241	WORD	wordpools/wasnorm_wordpool_less_exclusions.txt	LTP293	ltpFR	5	15	0	PELT	1040	n/a	n/a	1	0.422607421875	0.5869140625	0	lower	zerothre.ttf
2959369	WORD	wordpools/wasnorm_wordpool_less_exclusions.txt	LTP293	ltpFR	5	15	0	SWATTER	1418	n/a	n/a	1	0.422607421875	0.5869140625	0	lower	zerothre.ttf
2963330	WORD	wordpools/wasnorm_wordpool_less_exclusions.txt	LTP293	ltpFR	5	15	0	LAMB	797	n/a	n/a	1	0.422607421875	0.5869140625	0	lower	zerothre.ttf
2969237	REC_START	n/a	LTP293	ltpFR	5	15	n/a	n/a	n/a	n/a	n/a	n/a	n/a	n/a	n/a	n/a	n/a
2969779	REC_WORD	wordpools/wasnorm_wordpool_less_exclusions.txt	LTP293	ltpFR	5	15	0	LAMB	797	n/a	n/a	1	n/a	n/a	n/a	n/a	n/a
2970795	REC_WORD	wordpools/wasnorm_wordpool_less_exclusions.txt	LTP293	ltpFR	5	15	0	PELT	1040	n/a	n/a	1	n/a	n/a	n/a	n/a	n/a
2972292	REC_WORD	wordpools/wasnorm_wordpool_less_exclusions.txt	LTP293	ltpFR	5	15	0	SWATTER	1418	n/a	n/a	1	n/a	n/a	n/a	n/a	n/a
2973622	REC_WORD	wordpools/wasnorm_wordpool_less_exclusions.txt	LTP293	ltpFR	5	15	0	CHESS	294	n/a	n/a	1	n/a	n/a	n/a	n/a	n/a
2976106	REC_WORD	wordpools/wasnorm_wordpool_less_exclusions.txt	LTP293	ltpFR	5	15	0	KITCHEN	778	n/a	n/a	1	n/a	n/a	n/a	n/a	n/a
2984324	REC_WORD_VV	wordpools/wasnorm_wordpool_less_exclusions.txt	LTP293	ltpFR	5	15	n/a	<>	-1	n/a	n/a	n/a	n/a	n/a	n/a	n/a	n/a
2985234	REC_WORD	wordpools/wasnorm_wordpool_less_exclusions.txt	LTP293	ltpFR	5	15	0	OATMEAL	967	n/a	n/a	0	n/a	n/a	n/a	n/a	n/a
3000875	REC_WORD	wordpools/wasnorm_wordpool_less_exclusions.txt	LTP293	ltpFR	5	15	0	BRANCH	168	n/a	n/a	1	n/a	n/a	n/a	n/a	n/a
3052828	WORD	wordpools/wasnorm_wordpool_less_exclusions.txt	LTP293	ltpFR	5	16	1	CLAW	319	n/a	n/a	0	0.57763671875	0.412841796875	1	upper	amplitud.ttf
3056989	WORD	wordpools/wasnorm_wordpool_less_exclusions.txt	LTP293	ltpFR	5	16	1	FLEA	577	n/a	n/a	1	0.57763671875	0.412841796875	1	upper	amplitud.ttf
3061083	WORD	wordpools/wasnorm_wordpool_less_exclusions.txt	LTP293	ltpFR	5	16	1	DEPARTMENT	449	n/a	n/a	0	0.57763671875	0.412841796875	1	upper	amplitud.ttf
3065243	WORD	wordpools/wasnorm_wordpool_less_exclusions.txt	LTP293	ltpFR	5	16	1	TERMINAL	1450	n/a	n/a	0	0.57763671875	0.412841796875	1	upper	amplitud.ttf
3069338	WORD	wordpools/wasnorm_wordpool_less_exclusions.txt	LTP293	ltpFR	5	16	1	DIAGRAM	456	n/a	n/a	0	0.57763671875	0.412841796875	1	upper	amplitud.ttf
3073165	WORD	wordpools/wasnorm_wordpool_less_exclusions.txt	LTP293	ltpFR	5	16	1	CHART	282	n/a	n/a	0	0.57763671875	0.412841796875	1	upper	amplitud.ttf
3077026	WORD	wordpools/wasnorm_wordpool_less_exclusions.txt	LTP293	ltpFR	5	16	1	SHEEP	1278	n/a	n/a	1	0.57763671875	0.412841796875	1	upper	amplitud.ttf
3081153	WORD	wordpools/wasnorm_wordpool_less_exclusions.txt	LTP293	ltpFR	5	16	1	JET	756	n/a	n/a	0	0.57763671875	0.412841796875	1	upper	amplitud.ttf
3085263	WORD	wordpools/wasnorm_wordpool_less_exclusions.txt	LTP293	ltpFR	5	16	1	POSSUM	1112	n/a	n/a	1	0.57763671875	0.412841796875	1	upper	amplitud.ttf
3089441	WORD	wordpools/wasnorm_wordpool_less_exclusions.txt	LTP293	ltpFR	5	16	1	BINDER	127	n/a	n/a	0	0.57763671875	0.412841796875	1	upper	amplitud.ttf
3093469	WORD	wordpools/wasnorm_wordpool_less_exclusions.txt	LTP293	ltpFR	5	16	1	WARRIOR	1589	n/a	n/a	1	0.57763671875	0.412841796875	1	upper	amplitud.ttf
3097312	WORD	wordpools/wasnorm_wordpool_less_exclusions.txt	LTP293	ltpFR	5	16	1	SNACK	1331	n/a	n/a	0	0.57763671875	0.412841796875	1	upper	amplitud.ttf
3101340	WORD	wordpools/wasnorm_wordpool_less_exclusions.txt	LTP293	ltpFR	5	16	1	POWDER	1117	n/a	n/a	0	0.57763671875	0.412841796875	1	upper	amplitud.ttf
3105217	WORD	wordpools/wasnorm_wordpool_less_exclusions.txt	LTP293	ltpFR	5	16	1	PORCUPINE	1107	n/a	n/a	1	0.57763671875	0.412841796875	1	upper	amplitud.ttf
3109378	WORD	wordpools/wasnorm_wordpool_less_exclusions.txt	LTP293	ltpFR	5	16	1	SHACK	1273	n/a	n/a	0	0.57763671875	0.412841796875	1	upper	amplitud.ttf
3113222	WORD	wordpools/wasnorm_wordpool_less_exclusions.txt	LTP293	ltpFR	5	16	1	COMMUNITY	356	n/a	n/a	0	0.57763671875	0.412841796875	1	upper	amplitud.ttf
3119147	REC_START	n/a	LTP293	ltpFR	5	16	n/a	n/a	n/a	n/a	n/a	n/a	n/a	n/a	n/a	n/a	n/a
3119653	REC_WORD	wordpools/wasnorm_wordpool_less_exclusions.txt	LTP293	ltpFR	5	16	1	COMMUNITY	356	n/a	n/a	0	n/a	n/a	n/a	n/a	n/a
3121321	REC_WORD	wordpools/wasnorm_wordpool_less_exclusions.txt	LTP293	ltpFR	5	16	1	PORCUPINE	1107	n/a	n/a	1	n/a	n/a	n/a	n/a	n/a
3122816	REC_WORD	wordpools/wasnorm_wordpool_less_exclusions.txt	LTP293	ltpFR	5	16	1	POSSUM	1112	n/a	n/a	1	n/a	n/a	n/a	n/a	n/a
3124580	REC_WORD	wordpools/wasnorm_wordpool_less_exclusions.txt	LTP293	ltpFR	5	16	1	JET	756	n/a	n/a	0	n/a	n/a	n/a	n/a	n/a
3126659	REC_WORD	wordpools/wasnorm_wordpool_less_exclusions.txt	LTP293	ltpFR	5	16	1	CLAW	319	n/a	n/a	0	n/a	n/a	n/a	n/a	n/a
3127980	REC_WORD	wordpools/wasnorm_wordpool_less_exclusions.txt	LTP293	ltpFR	5	16	1	FLEA	577	n/a	n/a	1	n/a	n/a	n/a	n/a	n/a
3134433	REC_WORD	wordpools/wasnorm_wordpool_less_exclusions.txt	LTP293	ltpFR	5	16	1	DEPARTMENT	449	n/a	n/a	0	n/a	n/a	n/a	n/a	n/a
3137075	REC_WORD	wordpools/wasnorm_wordpool_less_exclusions.txt	LTP293	ltpFR	5	16	1	TERMINAL	1450	n/a	n/a	0	n/a	n/a	n/a	n/a	n/a
3139638	REC_WORD_VV	wordpools/wasnorm_wordpool_less_exclusions.txt	LTP293	ltpFR	5	16	n/a	<>	-1	n/a	n/a	n/a	n/a	n/a	n/a	n/a	n/a
3140956	REC_WORD	wordpools/wasnorm_wordpool_less_exclusions.txt	LTP293	ltpFR	5	16	1	CHART	282	n/a	n/a	0	n/a	n/a	n/a	n/a	n/a
3554481	REC_START	n/a	LTP293	ltpFR	5	1	n/a	n/a	n/a	n/a	n/a	n/a	n/a	n/a	n/a	n/a	n/a
3554514	RECOG_LURE	n/a	LTP293	ltpFR	5	1	n/a	PATROL	1027	0	4	n/a	n/a	n/a	n/a	n/a	n/a
3555496	RECOG_RESP	n/a	LTP293	ltpFR	5	1	n/a	PATROL	1027	0	n/a	n/a	n/a	n/a	n/a	n/a	n/a
3556921	RECOG_CONF	n/a	LTP293	ltpFR	5	1	n/a	PATROL	1027	n/a	4	n/a	n/a	n/a	n/a	n/a	n/a
3558756	RECOG_TARGET	n/a	LTP293	ltpFR	5	1	1	HARP	689	1	4	0	n/a	n/a	n/a	n/a	n/a
3559391	RECOG_RESP	n/a	LTP293	ltpFR	5	1	1	HARP	689	1	n/a	0	n/a	n/a	n/a	n/a	n/a
3560321	RECOG_CONF	n/a	LTP293	ltpFR	5	1	1	HARP	689	n/a	4	0	n/a	n/a	n/a	n/a	n/a
3562035	RECOG_LURE	n/a	LTP293	ltpFR	5	1	n/a	WRENCH	1625	0	4	n/a	n/a	n/a	n/a	n/a	n/a
3562636	RECOG_RESP	n/a	LTP293	ltpFR	5	1	n/a	WRENCH	1625	0	n/a	n/a	n/a	n/a	n/a	n/a	n/a
3563441	RECOG_CONF	n/a	LTP293	ltpFR	5	1	n/a	WRENCH	1625	n/a	4	n/a	n/a	n/a	n/a	n/a	n/a
3565164	RECOG_TARGET	n/a	LTP293	ltpFR	5	1	-1	COIN	343	1	5	-1	n/a	n/a	n/a	n/a	n/a
3565766	RECOG_RESP	n/a	LTP293	ltpFR	5	1	-1	COIN	343	1	n/a	-1	n/a	n/a	n/a	n/a	n/a
3566661	RECOG_CONF	n/a	LTP293	ltpFR	5	1	-1	COIN	343	n/a	5	-1	n/a	n/a	n/a	n/a	n/a
3568493	RECOG_TARGET	n/a	LTP293	ltpFR	5	1	0	BEEF	113	1	3	1	n/a	n/a	n/a	n/a	n/a
3569175	RECOG_RESP	n/a	LTP293	ltpFR	5	1	0	BEEF	113	1	n/a	1	n/a	n/a	n/a	n/a	n/a
3570331	RECOG_CONF	n/a	LTP293	ltpFR	5	1	0	BEEF	113	n/a	3	1	n/a	n/a	n/a	n/a	n/a
3572103	RECOG_LURE	n/a	LTP293	ltpFR	5	1	n/a	INN	739	0	4	n/a	n/a	n/a	n/a	n/a	n/a
3572676	RECOG_RESP	n/a	LTP293	ltpFR	5	1	n/a	INN	739	0	n/a	n/a	n/a	n/a	n/a	n/a	n/a
3573411	RECOG_CONF	n/a	LTP293	ltpFR	5	1	n/a	INN	739	n/a	4	n/a	n/a	n/a	n/a	n/a	n/a
3575149	RECOG_TARGET	n/a	LTP293	ltpFR	5	1	-1	RECIPE	1175	1	2	-1	n/a	n/a	n/a	n/a	n/a
3575756	RECOG_RESP	n/a	LTP293	ltpFR	5	1	-1	RECIPE	1175	1	n/a	-1	n/a	n/a	n/a	n/a	n/a
3576491	RECOG_CONF	n/a	LTP293	ltpFR	5	1	-1	RECIPE	1175	n/a	2	-1	n/a	n/a	n/a	n/a	n/a
3578411	RECOG_LURE	n/a	LTP293	ltpFR	5	1	n/a	CROW	414	0	3	n/a	n/a	n/a	n/a	n/a	n/a
3579016	RECOG_RESP	n/a	LTP293	ltpFR	5	1	n/a	CROW	414	0	n/a	n/a	n/a	n/a	n/a	n/a	n/a
3579681	RECOG_CONF	n/a	LTP293	ltpFR	5	1	n/a	CROW	414	n/a	3	n/a	n/a	n/a	n/a	n/a	n/a
3581507	RECOG_TARGET	n/a	LTP293	ltpFR	5	1	0	LAMB	797	1	4	1	n/a	n/a	n/a	n/a	n/a
3582231	RECOG_RESP	n/a	LTP293	ltpFR	5	1	0	LAMB	797	1	n/a	1	n/a	n/a	n/a	n/a	n/a
3582921	RECOG_CONF	n/a	LTP293	ltpFR	5	1	0	LAMB	797	n/a	4	1	n/a	n/a	n/a	n/a	n/a
3584801	RECOG_TARGET	n/a	LTP293	ltpFR	5	1	0	ALLEY	15	1	5	0	n/a	n/a	n/a	n/a	n/a
3585451	RECOG_RESP	n/a	LTP293	ltpFR	5	1	0	ALLEY	15	1	n/a	0	n/a	n/a	n/a	n/a	n/a
3586191	RECOG_CONF	n/a	LTP293	ltpFR	5	1	0	ALLEY	15	n/a	5	0	n/a	n/a	n/a	n/a	n/a
3588029	RECOG_TARGET	n/a	LTP293	ltpFR	5	1	-1	TYPEWRITER	1531	1	2	-1	n/a	n/a	n/a	n/a	n/a
3588846	RECOG_RESP	n/a	LTP293	ltpFR	5	1	-1	TYPEWRITER	1531	1	n/a	-1	n/a	n/a	n/a	n/a	n/a
3589621	RECOG_CONF	n/a	LTP293	ltpFR	5	1	-1	TYPEWRITER	1531	n/a	2	-1	n/a	n/a	n/a	n/a	n/a
3591509	RECOG_LURE	n/a	LTP293	ltpFR	5	1	n/a	BIOLOGIST	128	0	4	n/a	n/a	n/a	n/a	n/a	n/a
3592131	RECOG_RESP	n/a	LTP293	ltpFR	5	1	n/a	BIOLOGIST	128	0	n/a	n/a	n/a	n/a	n/a	n/a	n/a
3592831	RECOG_CONF	n/a	LTP293	ltpFR	5	1	n/a	BIOLOGIST	128	n/a	4	n/a	n/a	n/a	n/a	n/a	n/a
3594619	RECOG_LURE	n/a	LTP293	ltpFR	5	1	n/a	TEA	1439	0	3	n/a	n/a	n/a	n/a	n/a	n/a
3595296	RECOG_RESP	n/a	LTP293	ltpFR	5	1	n/a	TEA	1439	0	n/a	n/a	n/a	n/a	n/a	n/a	n/a
3596001	RECOG_CONF	n/a	LTP293	ltpFR	5	1	n/a	TEA	1439	n/a	3	n/a	n/a	n/a	n/a	n/a	n/a
3597931	RECOG_LURE	n/a	LTP293	ltpFR	5	1	n/a	TRAITOR	1495	0	5	n/a	n/a	n/a	n/a	n/a	n/a
3598511	RECOG_RESP	n/a	LTP293	ltpFR	5	1	n/a	TRAITOR	1495	0	n/a	n/a	n/a	n/a	n/a	n/a	n/a
3599231	RECOG_CONF	n/a	LTP293	ltpFR	5	1	n/a	TRAITOR	1495	n/a	5	n/a	n/a	n/a	n/a	n/a	n/a
3600943	RECOG_TARGET	n/a	LTP293	ltpFR	5	1	0	POET	1095	1	4	1	n/a	n/a	n/a	n/a	n/a
3601541	RECOG_RESP	n/a	LTP293	ltpFR	5	1	0	POET	1095	1	n/a	1	n/a	n/a	n/a	n/a	n/a
3602211	RECOG_CONF	n/a	LTP293	ltpFR	5	1	0	POET	1095	n/a	4	1	n/a	n/a	n/a	n/a	n/a
3603956	RECOG_LURE	n/a	LTP293	ltpFR	5	1	n/a	EGG	518	0	4	n/a	n/a	n/a	n/a	n/a	n/a
3604576	RECOG_RESP	n/a	LTP293	ltpFR	5	1	n/a	EGG	518	0	n/a	n/a	n/a	n/a	n/a	n/a	n/a
3605311	RECOG_CONF	n/a	LTP293	ltpFR	5	1	n/a	EGG	518	n/a	4	n/a	n/a	n/a	n/a	n/a	n/a
3607018	RECOG_TARGET	n/a	LTP293	ltpFR	5	1	-1	SPRINKLE	1359	1	5	-1	n/a	n/a	n/a	n/a	n/a
3607646	RECOG_RESP	n/a	LTP293	ltpFR	5	1	-1	SPRINKLE	1359	1	n/a	-1	n/a	n/a	n/a	n/a	n/a
3608321	RECOG_CONF	n/a	LTP293	ltpFR	5	1	-1	SPRINKLE	1359	n/a	5	-1	n/a	n/a	n/a	n/a	n/a
3610080	RECOG_TARGET	n/a	LTP293	ltpFR	5	1	1	TERMINAL	1450	1	4	0	n/a	n/a	n/a	n/a	n/a
3610706	RECOG_RESP	n/a	LTP293	ltpFR	5	1	1	TERMINAL	1450	1	n/a	0	n/a	n/a	n/a	n/a	n/a
3611371	RECOG_CONF	n/a	LTP293	ltpFR	5	1	1	TERMINAL	1450	n/a	4	0	n/a	n/a	n/a	n/a	n/a
3613308	RECOG_TARGET	n/a	LTP293	ltpFR	5	1	1	BLOSSOM	138	0	1	1	n/a	n/a	n/a	n/a	n/a
3614061	RECOG_RESP	n/a	LTP293	ltpFR	5	1	1	BLOSSOM	138	0	n/a	1	n/a	n/a	n/a	n/a	n/a
3614751	RECOG_CONF	n/a	LTP293	ltpFR	5	1	1	BLOSSOM	138	n/a	1	1	n/a	n/a	n/a	n/a	n/a
3616570	RECOG_LURE	n/a	LTP293	ltpFR	5	1	n/a	GENTLEMAN	631	0	3	n/a	n/a	n/a	n/a	n/a	n/a
3617196	RECOG_RESP	n/a	LTP293	ltpFR	5	1	n/a	GENTLEMAN	631	0	n/a	n/a	n/a	n/a	n/a	n/a	n/a
3617931	RECOG_CONF	n/a	LTP293	ltpFR	5	1	n/a	GENTLEMAN	631	n/a	3	n/a	n/a	n/a	n/a	n/a	n/a
3622577	REC_START	n/a	LTP293	ltpFR	5	2	n/a	n/a	n/a	n/a	n/a	n/a	n/a	n/a	n/a	n/a	n/a
3622611	RECOG_TARGET	n/a	LTP293	ltpFR	5	2	0	SARDINE	1235	1	3	0	n/a	n/a	n/a	n/a	n/a
3623247	RECOG_RESP	n/a	LTP293	ltpFR	5	2	0	SARDINE	1235	1	n/a	0	n/a	n/a	n/a	n/a	n/a
3624007	RECOG_CONF	n/a	LTP293	ltpFR	5	2	0	SARDINE	1235	n/a	3	0	n/a	n/a	n/a	n/a	n/a
3625856	RECOG_LURE	n/a	LTP293	ltpFR	5	2	n/a	BUBBLE	183	0	4	n/a	n/a	n/a	n/a	n/a	n/a
3626412	RECOG_RESP	n/a	LTP293	ltpFR	5	2	n/a	BUBBLE	183	0	n/a	n/a	n/a	n/a	n/a	n/a	n/a
3627107	RECOG_CONF	n/a	LTP293	ltpFR	5	2	n/a	BUBBLE	183	n/a	4	n/a	n/a	n/a	n/a	n/a	n/a
3629035	RECOG_TARGET	n/a	LTP293	ltpFR	5	2	-1	RADIO	1157	1	5	-1	n/a	n/a	n/a	n/a	n/a
3629617	RECOG_RESP	n/a	LTP293	ltpFR	5	2	-1	RADIO	1157	1	n/a	-1	n/a	n/a	n/a	n/a	n/a
3630337	RECOG_CONF	n/a	LTP293	ltpFR	5	2	-1	RADIO	1157	n/a	5	-1	n/a	n/a	n/a	n/a	n/a
3632147	RECOG_TARGET	n/a	LTP293	ltpFR	5	2	-1	DICE	461	1	3	-1	n/a	n/a	n/a	n/a	n/a
3632737	RECOG_RESP	n/a	LTP293	ltpFR	5	2	-1	DICE	461	1	n/a	-1	n/a	n/a	n/a	n/a	n/a
3633437	RECOG_CONF	n/a	LTP293	ltpFR	5	2	-1	DICE	461	n/a	3	-1	n/a	n/a	n/a	n/a	n/a
3635360	RECOG_LURE	n/a	LTP293	ltpFR	5	2	n/a	AUNT	60	0	4	n/a	n/a	n/a	n/a	n/a	n/a
3635917	RECOG_RESP	n/a	LTP293	ltpFR	5	2	n/a	AUNT	60	0	n/a	n/a	n/a	n/a	n/a	n/a	n/a
3636607	RECOG_CONF	n/a	LTP293	ltpFR	5	2	n/a	AUNT	60	n/a	4	n/a	n/a	n/a	n/a	n/a	n/a
3638537	RECOG_TARGET	n/a	LTP293	ltpFR	5	2	-1	TAPE	1433	1	3	-1	n/a	n/a	n/a	n/a	n/a
3639118	RECOG_RESP	n/a	LTP293	ltpFR	5	2	-1	TAPE	1433	1	n/a	-1	n/a	n/a	n/a	n/a	n/a
3639837	RECOG_CONF	n/a	LTP293	ltpFR	5	2	-1	TAPE	1433	n/a	3	-1	n/a	n/a	n/a	n/a	n/a
3641766	RECOG_LURE	n/a	LTP293	ltpFR	5	2	n/a	MAMMAL	861	0	5	n/a	n/a	n/a	n/a	n/a	n/a
3642332	RECOG_RESP	n/a	LTP293	ltpFR	5	2	n/a	MAMMAL	861	0	n/a	n/a	n/a	n/a	n/a	n/a	n/a
3643067	RECOG_CONF	n/a	LTP293	ltpFR	5	2	n/a	MAMMAL	861	n/a	5	n/a	n/a	n/a	n/a	n/a	n/a
3644911	RECOG_LURE	n/a	LTP293	ltpFR	5	2	n/a	FREEZER	604	0	4	n/a	n/a	n/a	n/a	n/a	n/a
3645657	RECOG_RESP	n/a	LTP293	ltpFR	5	2	n/a	FREEZER	604	0	n/a	n/a	n/a	n/a	n/a	n/a	n/a
3646327	RECOG_CONF	n/a	LTP293	ltpFR	5	2	n/a	FREEZER	604	n/a	4	n/a	n/a	n/a	n/a	n/a	n/a
3648256	RECOG_LURE	n/a	LTP293	ltpFR	5	2	n/a	SHRINE	1298	0	5	n/a	n/a	n/a	n/a	n/a	n/a
3648812	RECOG_RESP	n/a	LTP293	ltpFR	5	2	n/a	SHRINE	1298	0	n/a	n/a	n/a	n/a	n/a	n/a	n/a
3649477	RECOG_CONF	n/a	LTP293	ltpFR	5	2	n/a	SHRINE	1298	n/a	5	n/a	n/a	n/a	n/a	n/a	n/a
3651235	RECOG_TARGET	n/a	LTP293	ltpFR	5	2	1	CANYON	235	1	5	0	n/a	n/a	n/a	n/a	n/a
3651922	RECOG_RESP	n/a	LTP293	ltpFR	5	2	1	CANYON	235	1	n/a	0	n/a	n/a	n/a	n/a	n/a
3652577	RECOG_CONF	n/a	LTP293	ltpFR	5	2	1	CANYON	235	n/a	5	0	n/a	n/a	n/a	n/a	n/a
3654431	RECOG_TARGET	n/a	LTP293	ltpFR	5	2	1	BEER	114	1	5	0	n/a	n/a	n/a	n/a	n/a
3654997	RECOG_RESP	n/a	LTP293	ltpFR	5	2	1	BEER	114	1	n/a	0	n/a	n/a	n/a	n/a	n/a
3655717	RECOG_CONF	n/a	LTP293	ltpFR	5	2	1	BEER	114	n/a	5	0	n/a	n/a	n/a	n/a	n/a
3657559	RECOG_LURE	n/a	LTP293	ltpFR	5	2	n/a	CRUMB	416	0	2	n/a	n/a	n/a	n/a	n/a	n/a
3658147	RECOG_RESP	n/a	LTP293	ltpFR	5	2	n/a	CRUMB	416	0	n/a	n/a	n/a	n/a	n/a	n/a	n/a
3658887	RECOG_CONF	n/a	LTP293	ltpFR	5	2	n/a	CRUMB	416	n/a	2	n/a	n/a	n/a	n/a	n/a	n/a
3660671	RECOG_LURE	n/a	LTP293	ltpFR	5	2	n/a	TRIANGLE	1504	0	3	n/a	n/a	n/a	n/a	n/a	n/a
3661292	RECOG_RESP	n/a	LTP293	ltpFR	5	2	n/a	TRIANGLE	1504	0	n/a	n/a	n/a	n/a	n/a	n/a	n/a
3661917	RECOG_CONF	n/a	LTP293	ltpFR	5	2	n/a	TRIANGLE	1504	n/a	3	n/a	n/a	n/a	n/a	n/a	n/a
3663716	RECOG_TARGET	n/a	LTP293	ltpFR	5	2	-1	DOLL	481	1	3	-1	n/a	n/a	n/a	n/a	n/a
3664327	RECOG_RESP	n/a	LTP293	ltpFR	5	2	-1	DOLL	481	1	n/a	-1	n/a	n/a	n/a	n/a	n/a
3665027	RECOG_CONF	n/a	LTP293	ltpFR	5	2	-1	DOLL	481	n/a	3	-1	n/a	n/a	n/a	n/a	n/a
3666845	RECOG_TARGET	n/a	LTP293	ltpFR	5	2	0	BEETLE	116	1	4	0	n/a	n/a	n/a	n/a	n/a
3667462	RECOG_RESP	n/a	LTP293	ltpFR	5	2	0	BEETLE	116	1	n/a	0	n/a	n/a	n/a	n/a	n/a
3668097	RECOG_CONF	n/a	LTP293	ltpFR	5	2	0	BEETLE	116	n/a	4	0	n/a	n/a	n/a	n/a	n/a
3669890	RECOG_LURE	n/a	LTP293	ltpFR	5	2	n/a	MOWER	928	0	4	n/a	n/a	n/a	n/a	n/a	n/a
3670527	RECOG_RESP	n/a	LTP293	ltpFR	5	2	n/a	MOWER	928	0	n/a	n/a	n/a	n/a	n/a	n/a	n/a
3671247	RECOG_CONF	n/a	LTP293	ltpFR	5	2	n/a	MOWER	928	n/a	4	n/a	n/a	n/a	n/a	n/a	n/a
3673069	RECOG_LURE	n/a	LTP293	ltpFR	5	2	n/a	UNIVERSITY	1541	0	4	n/a	n/a	n/a	n/a	n/a	n/a
3673662	RECOG_RESP	n/a	LTP293	ltpFR	5	2	n/a	UNIVERSITY	1541	0	n/a	n/a	n/a	n/a	n/a	n/a	n/a
3674357	RECOG_CONF	n/a	LTP293	ltpFR	5	2	n/a	UNIVERSITY	1541	n/a	4	n/a	n/a	n/a	n/a	n/a	n/a
3676148	RECOG_LURE	n/a	LTP293	ltpFR	5	2	n/a	CAVITY	264	0	4	n/a	n/a	n/a	n/a	n/a	n/a
3676687	RECOG_RESP	n/a	LTP293	ltpFR	5	2	n/a	CAVITY	264	0	n/a	n/a	n/a	n/a	n/a	n/a	n/a
3677327	RECOG_CONF	n/a	LTP293	ltpFR	5	2	n/a	CAVITY	264	n/a	4	n/a	n/a	n/a	n/a	n/a	n/a
3679277	RECOG_LURE	n/a	LTP293	ltpFR	5	2	n/a	COOLER	375	0	2	n/a	n/a	n/a	n/a	n/a	n/a
3680062	RECOG_RESP	n/a	LTP293	ltpFR	5	2	n/a	COOLER	375	0	n/a	n/a	n/a	n/a	n/a	n/a	n/a
3680777	RECOG_CONF	n/a	LTP293	ltpFR	5	2	n/a	COOLER	375	n/a	2	n/a	n/a	n/a	n/a	n/a	n/a
3682621	RECOG_LURE	n/a	LTP293	ltpFR	5	2	n/a	MARKET	871	0	1	n/a	n/a	n/a	n/a	n/a	n/a
3683237	RECOG_RESP	n/a	LTP293	ltpFR	5	2	n/a	MARKET	871	0	n/a	n/a	n/a	n/a	n/a	n/a	n/a
3683907	RECOG_CONF	n/a	LTP293	ltpFR	5	2	n/a	MARKET	871	n/a	1	n/a	n/a	n/a	n/a	n/a	n/a
3695595	REC_START	n/a	LTP293	ltpFR	5	3	n/a	n/a	n/a	n/a	n/a	n/a	n/a	n/a	n/a	n/a	n/a
3695619	RECOG_TARGET	n/a	LTP293	ltpFR	5	3	0	PAGE	1001	1	3	0	n/a	n/a	n/a	n/a	n/a
3696350	RECOG_RESP	n/a	LTP293	ltpFR	5	3	0	PAGE	1001	1	n/a	0	n/a	n/a	n/a	n/a	n/a
3697125	RECOG_CONF	n/a	LTP293	ltpFR	5	3	0	PAGE	1001	n/a	3	0	n/a	n/a	n/a	n/a	n/a
3698847	RECOG_TARGET	n/a	LTP293	ltpFR	5	3	0	DOUGHNUT	490	1	2	0	n/a	n/a	n/a	n/a	n/a
3699480	RECOG_RESP	n/a	LTP293	ltpFR	5	3	0	DOUGHNUT	490	1	n/a	0	n/a	n/a	n/a	n/a	n/a
3700145	RECOG_CONF	n/a	LTP293	ltpFR	5	3	0	DOUGHNUT	490	n/a	2	0	n/a	n/a	n/a	n/a	n/a
3702026	RECOG_LURE	n/a	LTP293	ltpFR	5	3	n/a	CHAPEL	280	0	4	n/a	n/a	n/a	n/a	n/a	n/a
3702625	RECOG_RESP	n/a	LTP293	ltpFR	5	3	n/a	CHAPEL	280	0	n/a	n/a	n/a	n/a	n/a	n/a	n/a
3703345	RECOG_CONF	n/a	LTP293	ltpFR	5	3	n/a	CHAPEL	280	n/a	4	n/a	n/a	n/a	n/a	n/a	n/a
3705188	RECOG_LURE	n/a	LTP293	ltpFR	5	3	n/a	PAWN	1030	0	1	n/a	n/a	n/a	n/a	n/a	n/a
3705910	RECOG_RESP	n/a	LTP293	ltpFR	5	3	n/a	PAWN	1030	0	n/a	n/a	n/a	n/a	n/a	n/a	n/a
3706630	RECOG_CONF	n/a	LTP293	ltpFR	5	3	n/a	PAWN	1030	n/a	1	n/a	n/a	n/a	n/a	n/a	n/a
3708233	RECOG_LURE	n/a	LTP293	ltpFR	5	3	n/a	MARGARINE	868	0	4	n/a	n/a	n/a	n/a	n/a	n/a
3708835	RECOG_RESP	n/a	LTP293	ltpFR	5	3	n/a	MARGARINE	868	0	n/a	n/a	n/a	n/a	n/a	n/a	n/a
3709515	RECOG_CONF	n/a	LTP293	ltpFR	5	3	n/a	MARGARINE	868	n/a	4	n/a	n/a	n/a	n/a	n/a	n/a
3711229	RECOG_TARGET	n/a	LTP293	ltpFR	5	3	1	DETECTIVE	454	1	3	1	n/a	n/a	n/a	n/a	n/a
3712060	RECOG_RESP	n/a	LTP293	ltpFR	5	3	1	DETECTIVE	454	1	n/a	1	n/a	n/a	n/a	n/a	n/a
3712775	RECOG_CONF	n/a	LTP293	ltpFR	5	3	1	DETECTIVE	454	n/a	3	1	n/a	n/a	n/a	n/a	n/a
3714492	RECOG_TARGET	n/a	LTP293	ltpFR	5	3	0	MOP	916	1	4	1	n/a	n/a	n/a	n/a	n/a
3715070	RECOG_RESP	n/a	LTP293	ltpFR	5	3	0	MOP	916	1	n/a	1	n/a	n/a	n/a	n/a	n/a
3715745	RECOG_CONF	n/a	LTP293	ltpFR	5	3	0	MOP	916	n/a	4	1	n/a	n/a	n/a	n/a	n/a
3717487	RECOG_TARGET	n/a	LTP293	ltpFR	5	3	1	CORPORATION	382	1	3	0	n/a	n/a	n/a	n/a	n/a
3718075	RECOG_RESP	n/a	LTP293	ltpFR	5	3	1	CORPORATION	382	1	n/a	0	n/a	n/a	n/a	n/a	n/a
3718715	RECOG_CONF	n/a	LTP293	ltpFR	5	3	1	CORPORATION	382	n/a	3	0	n/a	n/a	n/a	n/a	n/a
3720433	RECOG_LURE	n/a	LTP293	ltpFR	5	3	n/a	CHIEF	298	0	4	n/a	n/a	n/a	n/a	n/a	n/a
3721165	RECOG_RESP	n/a	LTP293	ltpFR	5	3	n/a	CHIEF	298	0	n/a	n/a	n/a	n/a	n/a	n/a	n/a
3721775	RECOG_CONF	n/a	LTP293	ltpFR	5	3	n/a	CHIEF	298	n/a	4	n/a	n/a	n/a	n/a	n/a	n/a
3723577	RECOG_TARGET	n/a	LTP293	ltpFR	5	3	1	CLAW	319	1	5	0	n/a	n/a	n/a	n/a	n/a
3724170	RECOG_RESP	n/a	LTP293	ltpFR	5	3	1	CLAW	319	1	n/a	0	n/a	n/a	n/a	n/a	n/a
3724785	RECOG_CONF	n/a	LTP293	ltpFR	5	3	1	CLAW	319	n/a	5	0	n/a	n/a	n/a	n/a	n/a
3726573	RECOG_LURE	n/a	LTP293	ltpFR	5	3	n/a	CURB	426	0	3	n/a	n/a	n/a	n/a	n/a	n/a
3727110	RECOG_RESP	n/a	LTP293	ltpFR	5	3	n/a	CURB	426	0	n/a	n/a	n/a	n/a	n/a	n/a	n/a
3727815	RECOG_CONF	n/a	LTP293	ltpFR	5	3	n/a	CURB	426	n/a	3	n/a	n/a	n/a	n/a	n/a	n/a
3729668	RECOG_LURE	n/a	LTP293	ltpFR	5	3	n/a	STAPLER	1372	0	4	n/a	n/a	n/a	n/a	n/a	n/a
3730225	RECOG_RESP	n/a	LTP293	ltpFR	5	3	n/a	STAPLER	1372	0	n/a	n/a	n/a	n/a	n/a	n/a	n/a
3730875	RECOG_CONF	n/a	LTP293	ltpFR	5	3	n/a	STAPLER	1372	n/a	4	n/a	n/a	n/a	n/a	n/a	n/a
3732647	RECOG_TARGET	n/a	LTP293	ltpFR	5	3	0	MAGAZINE	853	1	5	0	n/a	n/a	n/a	n/a	n/a
3733455	RECOG_RESP	n/a	LTP293	ltpFR	5	3	0	MAGAZINE	853	1	n/a	0	n/a	n/a	n/a	n/a	n/a
3734095	RECOG_CONF	n/a	LTP293	ltpFR	5	3	0	MAGAZINE	853	n/a	5	0	n/a	n/a	n/a	n/a	n/a
3735892	RECOG_LURE	n/a	LTP293	ltpFR	5	3	n/a	KANGAROO	768	0	5	n/a	n/a	n/a	n/a	n/a	n/a
3736550	RECOG_RESP	n/a	LTP293	ltpFR	5	3	n/a	KANGAROO	768	0	n/a	n/a	n/a	n/a	n/a	n/a	n/a
3737265	RECOG_CONF	n/a	LTP293	ltpFR	5	3	n/a	KANGAROO	768	n/a	5	n/a	n/a	n/a	n/a	n/a	n/a
3739004	RECOG_LURE	n/a	LTP293	ltpFR	5	3	n/a	PIGMENT	1066	0	3	n/a	n/a	n/a	n/a	n/a	n/a
3739630	RECOG_RESP	n/a	LTP293	ltpFR	5	3	n/a	PIGMENT	1066	0	n/a	n/a	n/a	n/a	n/a	n/a	n/a
3740335	RECOG_CONF	n/a	LTP293	ltpFR	5	3	n/a	PIGMENT	1066	n/a	3	n/a	n/a	n/a	n/a	n/a	n/a
3742083	RECOG_LURE	n/a	LTP293	ltpFR	5	3	n/a	COP	376	0	2	n/a	n/a	n/a	n/a	n/a	n/a
3742750	RECOG_RESP	n/a	LTP293	ltpFR	5	3	n/a	COP	376	0	n/a	n/a	n/a	n/a	n/a	n/a	n/a
3743415	RECOG_CONF	n/a	LTP293	ltpFR	5	3	n/a	COP	376	n/a	2	n/a	n/a	n/a	n/a	n/a	n/a
3745211	RECOG_TARGET	n/a	LTP293	ltpFR	5	3	-1	SATURN	1236	1	4	-1	n/a	n/a	n/a	n/a	n/a
3745760	RECOG_RESP	n/a	LTP293	ltpFR	5	3	-1	SATURN	1236	1	n/a	-1	n/a	n/a	n/a	n/a	n/a
3746425	RECOG_CONF	n/a	LTP293	ltpFR	5	3	-1	SATURN	1236	n/a	4	-1	n/a	n/a	n/a	n/a	n/a
3748307	RECOG_LURE	n/a	LTP293	ltpFR	5	3	n/a	MONEY	908	1	1	n/a	n/a	n/a	n/a	n/a	n/a
3748840	RECOG_RESP	n/a	LTP293	ltpFR	5	3	n/a	MONEY	908	1	n/a	n/a	n/a	n/a	n/a	n/a	n/a
3749565	RECOG_CONF	n/a	LTP293	ltpFR	5	3	n/a	MONEY	908	n/a	1	n/a	n/a	n/a	n/a	n/a	n/a
3751387	RECOG_TARGET	n/a	LTP293	ltpFR	5	3	0	CABIN	211	1	3	1	n/a	n/a	n/a	n/a	n/a
3752080	RECOG_RESP_VV	n/a	LTP293	ltpFR	5	3	0	CABIN	211	0	n/a	1	n/a	n/a	n/a	n/a	n/a
3752580	RECOG_RESP	n/a	LTP293	ltpFR	5	3	0	CABIN	211	1	n/a	1	n/a	n/a	n/a	n/a	n/a
3753355	RECOG_CONF	n/a	LTP293	ltpFR	5	3	0	CABIN	211	n/a	3	1	n/a	n/a	n/a	n/a	n/a
3755080	RECOG_LURE	n/a	LTP293	ltpFR	5	3	n/a	WAX	1597	0	4	n/a	n/a	n/a	n/a	n/a	n/a
3755680	RECOG_RESP	n/a	LTP293	ltpFR	5	3	n/a	WAX	1597	0	n/a	n/a	n/a	n/a	n/a	n/a	n/a
3756375	RECOG_CONF	n/a	LTP293	ltpFR	5	3	n/a	WAX	1597	n/a	4	n/a	n/a	n/a	n/a	n/a	n/a
3761409	REC_START	n/a	LTP293	ltpFR	5	4	n/a	n/a	n/a	n/a	n/a	n/a	n/a	n/a	n/a	n/a	n/a
3761438	RECOG_LURE	n/a	LTP293	ltpFR	5	4	n/a	ROUGE	1213	0	4	n/a	n/a	n/a	n/a	n/a	n/a
3762104	RECOG_RESP	n/a	LTP293	ltpFR	5	4	n/a	ROUGE	1213	0	n/a	n/a	n/a	n/a	n/a	n/a	n/a
3762769	RECOG_CONF	n/a	LTP293	ltpFR	5	4	n/a	ROUGE	1213	n/a	4	n/a	n/a	n/a	n/a	n/a	n/a
3764632	RECOG_LURE	n/a	LTP293	ltpFR	5	4	n/a	BUGLE	189	0	4	n/a	n/a	n/a	n/a	n/a	n/a
3765229	RECOG_RESP	n/a	LTP293	ltpFR	5	4	n/a	BUGLE	189	0	n/a	n/a	n/a	n/a	n/a	n/a	n/a
3765879	RECOG_CONF	n/a	LTP293	ltpFR	5	4	n/a	BUGLE	189	n/a	4	n/a	n/a	n/a	n/a	n/a	n/a
3767694	RECOG_TARGET	n/a	LTP293	ltpFR	5	4	1	COMMUNITY	356	1	3	0	n/a	n/a	n/a	n/a	n/a
3768209	RECOG_RESP	n/a	LTP293	ltpFR	5	4	1	COMMUNITY	356	1	n/a	0	n/a	n/a	n/a	n/a	n/a
3768879	RECOG_CONF	n/a	LTP293	ltpFR	5	4	1	COMMUNITY	356	n/a	3	0	n/a	n/a	n/a	n/a	n/a
3770723	RECOG_TARGET	n/a	LTP293	ltpFR	5	4	0	CONCRETE	361	1	5	1	n/a	n/a	n/a	n/a	n/a
3771199	RECOG_RESP	n/a	LTP293	ltpFR	5	4	0	CONCRETE	361	1	n/a	1	n/a	n/a	n/a	n/a	n/a
3771889	RECOG_CONF	n/a	LTP293	ltpFR	5	4	0	CONCRETE	361	n/a	5	1	n/a	n/a	n/a	n/a	n/a
3773702	RECOG_TARGET	n/a	LTP293	ltpFR	5	4	0	STALLION	1369	1	4	1	n/a	n/a	n/a	n/a	n/a
3774274	RECOG_RESP_VV	n/a	LTP293	ltpFR	5	4	0	STALLION	1369	0	n/a	1	n/a	n/a	n/a	n/a	n/a
3774849	RECOG_RESP	n/a	LTP293	ltpFR	5	4	0	STALLION	1369	1	n/a	1	n/a	n/a	n/a	n/a	n/a
3775469	RECOG_CONF	n/a	LTP293	ltpFR	5	4	0	STALLION	1369	n/a	4	1	n/a	n/a	n/a	n/a	n/a
3777230	RECOG_LURE	n/a	LTP293	ltpFR	5	4	n/a	FLOOR	581	0	2	n/a	n/a	n/a	n/a	n/a	n/a
3777849	RECOG_RESP	n/a	LTP293	ltpFR	5	4	n/a	FLOOR	581	0	n/a	n/a	n/a	n/a	n/a	n/a	n/a
3778539	RECOG_CONF	n/a	LTP293	ltpFR	5	4	n/a	FLOOR	581	n/a	2	n/a	n/a	n/a	n/a	n/a	n/a
3780343	RECOG_LURE	n/a	LTP293	ltpFR	5	4	n/a	BALL	73	1	1	n/a	n/a	n/a	n/a	n/a	n/a
3780799	RECOG_RESP	n/a	LTP293	ltpFR	5	4	n/a	BALL	73	1	n/a	n/a	n/a	n/a	n/a	n/a	n/a
3781489	RECOG_CONF	n/a	LTP293	ltpFR	5	4	n/a	BALL	73	n/a	1	n/a	n/a	n/a	n/a	n/a	n/a
3783255	RECOG_LURE	n/a	LTP293	ltpFR	5	4	n/a	CAR	241	0	1	n/a	n/a	n/a	n/a	n/a	n/a
3783944	RECOG_RESP	n/a	LTP293	ltpFR	5	4	n/a	CAR	241	0	n/a	n/a	n/a	n/a	n/a	n/a	n/a
3784649	RECOG_CONF	n/a	LTP293	ltpFR	5	4	n/a	CAR	241	n/a	1	n/a	n/a	n/a	n/a	n/a	n/a
3786351	RECOG_TARGET	n/a	LTP293	ltpFR	5	4	1	ARTIST	43	1	4	1	n/a	n/a	n/a	n/a	n/a
3786909	RECOG_RESP	n/a	LTP293	ltpFR	5	4	1	ARTIST	43	1	n/a	1	n/a	n/a	n/a	n/a	n/a
3787499	RECOG_CONF	n/a	LTP293	ltpFR	5	4	1	ARTIST	43	n/a	4	1	n/a	n/a	n/a	n/a	n/a
3789430	RECOG_TARGET	n/a	LTP293	ltpFR	5	4	0	ANTENNA	28	1	5	0	n/a	n/a	n/a	n/a	n/a
3790069	RECOG_RESP	n/a	LTP293	ltpFR	5	4	0	ANTENNA	28	1	n/a	0	n/a	n/a	n/a	n/a	n/a
3790709	RECOG_CONF	n/a	LTP293	ltpFR	5	4	0	ANTENNA	28	n/a	5	0	n/a	n/a	n/a	n/a	n/a
3792591	RECOG_LURE	n/a	LTP293	ltpFR	5	4	n/a	BROOM	178	0	1	n/a	n/a	n/a	n/a	n/a	n/a
3793094	RECOG_RESP	n/a	LTP293	ltpFR	5	4	n/a	BROOM	178	0	n/a	n/a	n/a	n/a	n/a	n/a	n/a
3793791	RECOG_CONF	n/a	LTP293	ltpFR	5	4	n/a	BROOM	178	n/a	1	n/a	n/a	n/a	n/a	n/a	n/a
3795586	RECOG_LURE	n/a	LTP293	ltpFR	5	4	n/a	DRAWER	493	1	2	n/a	n/a	n/a	n/a	n/a	n/a
3796539	RECOG_RESP	n/a	LTP293	ltpFR	5	4	n/a	DRAWER	493	1	n/a	n/a	n/a	n/a	n/a	n/a	n/a
3797409	RECOG_CONF	n/a	LTP293	ltpFR	5	4	n/a	DRAWER	493	n/a	2	n/a	n/a	n/a	n/a	n/a	n/a
3799231	RECOG_LURE	n/a	LTP293	ltpFR	5	4	n/a	JURY	766	0	3	n/a	n/a	n/a	n/a	n/a	n/a
3799939	RECOG_RESP_VV	n/a	LTP293	ltpFR	5	4	n/a	JURY	766	1	n/a	n/a	n/a	n/a	n/a	n/a	n/a
3800494	RECOG_RESP	n/a	LTP293	ltpFR	5	4	n/a	JURY	766	0	n/a	n/a	n/a	n/a	n/a	n/a	n/a
3801149	RECOG_CONF	n/a	LTP293	ltpFR	5	4	n/a	JURY	766	n/a	3	n/a	n/a	n/a	n/a	n/a	n/a
3803058	RECOG_TARGET	n/a	LTP293	ltpFR	5	4	1	BUSH	202	1	4	1	n/a	n/a	n/a	n/a	n/a
3803654	RECOG_RESP	n/a	LTP293	ltpFR	5	4	1	BUSH	202	1	n/a	1	n/a	n/a	n/a	n/a	n/a
3804376	RECOG_CONF	n/a	LTP293	ltpFR	5	4	1	BUSH	202	n/a	4	1	n/a	n/a	n/a	n/a	n/a
3806204	RECOG_LURE	n/a	LTP293	ltpFR	5	4	n/a	KEYBOARD	774	0	3	n/a	n/a	n/a	n/a	n/a	n/a
3806829	RECOG_RESP	n/a	LTP293	ltpFR	5	4	n/a	KEYBOARD	774	0	n/a	n/a	n/a	n/a	n/a	n/a	n/a
3807399	RECOG_CONF	n/a	LTP293	ltpFR	5	4	n/a	KEYBOARD	774	n/a	3	n/a	n/a	n/a	n/a	n/a	n/a
3809367	RECOG_TARGET	n/a	LTP293	ltpFR	5	4	-1	BATTERY	101	1	5	-1	n/a	n/a	n/a	n/a	n/a
3809914	RECOG_RESP	n/a	LTP293	ltpFR	5	4	-1	BATTERY	101	1	n/a	-1	n/a	n/a	n/a	n/a	n/a
3810609	RECOG_CONF	n/a	LTP293	ltpFR	5	4	-1	BATTERY	101	n/a	5	-1	n/a	n/a	n/a	n/a	n/a
3812544	RECOG_TARGET	n/a	LTP293	ltpFR	5	4	1	GRAVEL	659	1	4	0	n/a	n/a	n/a	n/a	n/a
3813104	RECOG_RESP	n/a	LTP293	ltpFR	5	4	1	GRAVEL	659	1	n/a	0	n/a	n/a	n/a	n/a	n/a
3813809	RECOG_CONF	n/a	LTP293	ltpFR	5	4	1	GRAVEL	659	n/a	4	0	n/a	n/a	n/a	n/a	n/a
3815906	RECOG_TARGET	n/a	LTP293	ltpFR	5	4	-1	FISH	571	0	1	-1	n/a	n/a	n/a	n/a	n/a
3816484	RECOG_RESP	n/a	LTP293	ltpFR	5	4	-1	FISH	571	0	n/a	-1	n/a	n/a	n/a	n/a	n/a
3817231	RECOG_CONF	n/a	LTP293	ltpFR	5	4	-1	FISH	571	n/a	1	-1	n/a	n/a	n/a	n/a	n/a
3818901	RECOG_TARGET	n/a	LTP293	ltpFR	5	4	-1	SUPPER	1411	1	5	-1	n/a	n/a	n/a	n/a	n/a
3819479	RECOG_RESP	n/a	LTP293	ltpFR	5	4	-1	SUPPER	1411	1	n/a	-1	n/a	n/a	n/a	n/a	n/a
3820099	RECOG_CONF	n/a	LTP293	ltpFR	5	4	-1	SUPPER	1411	n/a	5	-1	n/a	n/a	n/a	n/a	n/a
3822047	RECOG_TARGET	n/a	LTP293	ltpFR	5	4	0	TAR	1435	1	4	1	n/a	n/a	n/a	n/a	n/a
3822604	RECOG_RESP_VV	n/a	LTP293	ltpFR	5	4	0	TAR	1435	0	n/a	1	n/a	n/a	n/a	n/a	n/a
3823464	RECOG_RESP	n/a	LTP293	ltpFR	5	4	0	TAR	1435	1	n/a	1	n/a	n/a	n/a	n/a	n/a
3824139	RECOG_CONF	n/a	LTP293	ltpFR	5	4	0	TAR	1435	n/a	4	1	n/a	n/a	n/a	n/a	n/a
3827890	REC_START	n/a	LTP293	ltpFR	5	5	n/a	n/a	n/a	n/a	n/a	n/a	n/a	n/a	n/a	n/a	n/a
3827921	RECOG_TARGET	n/a	LTP293	ltpFR	5	5	1	LOBSTER	837	1	5	0	n/a	n/a	n/a	n/a	n/a
3828558	RECOG_RESP	n/a	LTP293	ltpFR	5	5	1	LOBSTER	837	1	n/a	0	n/a	n/a	n/a	n/a	n/a
3829240	RECOG_CONF	n/a	LTP293	ltpFR	5	5	1	LOBSTER	837	n/a	5	0	n/a	n/a	n/a	n/a	n/a
3831083	RECOG_TARGET	n/a	LTP293	ltpFR	5	5	1	ELK	526	1	4	1	n/a	n/a	n/a	n/a	n/a
3831685	RECOG_RESP	n/a	LTP293	ltpFR	5	5	1	ELK	526	1	n/a	1	n/a	n/a	n/a	n/a	n/a
3832350	RECOG_CONF	n/a	LTP293	ltpFR	5	5	1	ELK	526	n/a	4	1	n/a	n/a	n/a	n/a	n/a
3834129	RECOG_LURE	n/a	LTP293	ltpFR	5	5	n/a	NERVE	944	0	3	n/a	n/a	n/a	n/a	n/a	n/a
3834625	RECOG_RESP	n/a	LTP293	ltpFR	5	5	n/a	NERVE	944	0	n/a	n/a	n/a	n/a	n/a	n/a	n/a
3835360	RECOG_CONF	n/a	LTP293	ltpFR	5	5	n/a	NERVE	944	n/a	3	n/a	n/a	n/a	n/a	n/a	n/a
3837108	RECOG_TARGET	n/a	LTP293	ltpFR	5	5	1	DUMP	505	1	4	0	n/a	n/a	n/a	n/a	n/a
3837675	RECOG_RESP	n/a	LTP293	ltpFR	5	5	1	DUMP	505	1	n/a	0	n/a	n/a	n/a	n/a	n/a
3838340	RECOG_CONF	n/a	LTP293	ltpFR	5	5	1	DUMP	505	n/a	4	0	n/a	n/a	n/a	n/a	n/a
3840136	RECOG_LURE	n/a	LTP293	ltpFR	5	5	n/a	SANDWICH	1232	0	5	n/a	n/a	n/a	n/a	n/a	n/a
3840635	RECOG_RESP	n/a	LTP293	ltpFR	5	5	n/a	SANDWICH	1232	0	n/a	n/a	n/a	n/a	n/a	n/a	n/a
3841340	RECOG_CONF	n/a	LTP293	ltpFR	5	5	n/a	SANDWICH	1232	n/a	5	n/a	n/a	n/a	n/a	n/a	n/a
3843032	RECOG_LURE	n/a	LTP293	ltpFR	5	5	n/a	SALESMAN	1225	1	1	n/a	n/a	n/a	n/a	n/a	n/a
3843580	RECOG_RESP_VV	n/a	LTP293	ltpFR	5	5	n/a	SALESMAN	1225	0	n/a	n/a	n/a	n/a	n/a	n/a	n/a
3844030	RECOG_RESP	n/a	LTP293	ltpFR	5	5	n/a	SALESMAN	1225	1	n/a	n/a	n/a	n/a	n/a	n/a	n/a
3845030	RECOG_CONF	n/a	LTP293	ltpFR	5	5	n/a	SALESMAN	1225	n/a	1	n/a	n/a	n/a	n/a	n/a	n/a
3846776	RECOG_TARGET	n/a	LTP293	ltpFR	5	5	0	CHEF	290	1	2	1	n/a	n/a	n/a	n/a	n/a
3847305	RECOG_RESP	n/a	LTP293	ltpFR	5	5	0	CHEF	290	1	n/a	1	n/a	n/a	n/a	n/a	n/a
3848000	RECOG_CONF	n/a	LTP293	ltpFR	5	5	0	CHEF	290	n/a	2	1	n/a	n/a	n/a	n/a	n/a
3849872	RECOG_LURE	n/a	LTP293	ltpFR	5	5	n/a	OYSTER	995	0	3	n/a	n/a	n/a	n/a	n/a	n/a
3850490	RECOG_RESP	n/a	LTP293	ltpFR	5	5	n/a	OYSTER	995	0	n/a	n/a	n/a	n/a	n/a	n/a	n/a
3851110	RECOG_CONF	n/a	LTP293	ltpFR	5	5	n/a	OYSTER	995	n/a	3	n/a	n/a	n/a	n/a	n/a	n/a
3852984	RECOG_LURE	n/a	LTP293	ltpFR	5	5	n/a	BROTHER	179	0	4	n/a	n/a	n/a	n/a	n/a	n/a
3853485	RECOG_RESP	n/a	LTP293	ltpFR	5	5	n/a	BROTHER	179	0	n/a	n/a	n/a	n/a	n/a	n/a	n/a
3854170	RECOG_CONF	n/a	LTP293	ltpFR	5	5	n/a	BROTHER	179	n/a	4	n/a	n/a	n/a	n/a	n/a	n/a
3855996	RECOG_LURE	n/a	LTP293	ltpFR	5	5	n/a	BOXER	160	0	1	n/a	n/a	n/a	n/a	n/a	n/a
3856665	RECOG_RESP	n/a	LTP293	ltpFR	5	5	n/a	BOXER	160	0	n/a	n/a	n/a	n/a	n/a	n/a	n/a
3857400	RECOG_CONF	n/a	LTP293	ltpFR	5	5	n/a	BOXER	160	n/a	1	n/a	n/a	n/a	n/a	n/a	n/a
3859075	RECOG_LURE	n/a	LTP293	ltpFR	5	5	n/a	BUTTON	207	1	2	n/a	n/a	n/a	n/a	n/a	n/a
3859640	RECOG_RESP	n/a	LTP293	ltpFR	5	5	n/a	BUTTON	207	1	n/a	n/a	n/a	n/a	n/a	n/a	n/a
3860320	RECOG_CONF	n/a	LTP293	ltpFR	5	5	n/a	BUTTON	207	n/a	2	n/a	n/a	n/a	n/a	n/a	n/a
3862203	RECOG_LURE	n/a	LTP293	ltpFR	5	5	n/a	IGLOO	734	0	4	n/a	n/a	n/a	n/a	n/a	n/a
3862760	RECOG_RESP	n/a	LTP293	ltpFR	5	5	n/a	IGLOO	734	0	n/a	n/a	n/a	n/a	n/a	n/a	n/a
3863410	RECOG_CONF	n/a	LTP293	ltpFR	5	5	n/a	IGLOO	734	n/a	4	n/a	n/a	n/a	n/a	n/a	n/a
3865282	RECOG_TARGET	n/a	LTP293	ltpFR	5	5	0	GRASSHOPPER	656	1	5	1	n/a	n/a	n/a	n/a	n/a
3865800	RECOG_RESP	n/a	LTP293	ltpFR	5	5	0	GRASSHOPPER	656	1	n/a	1	n/a	n/a	n/a	n/a	n/a
3866550	RECOG_CONF	n/a	LTP293	ltpFR	5	5	0	GRASSHOPPER	656	n/a	5	1	n/a	n/a	n/a	n/a	n/a
3868278	RECOG_TARGET	n/a	LTP293	ltpFR	5	5	1	BANKER	84	1	4	1	n/a	n/a	n/a	n/a	n/a
3868880	RECOG_RESP	n/a	LTP293	ltpFR	5	5	1	BANKER	84	1	n/a	1	n/a	n/a	n/a	n/a	n/a
3869500	RECOG_CONF	n/a	LTP293	ltpFR	5	5	1	BANKER	84	n/a	4	1	n/a	n/a	n/a	n/a	n/a
3871240	RECOG_TARGET	n/a	LTP293	ltpFR	5	5	0	DEER	444	1	5	1	n/a	n/a	n/a	n/a	n/a
3871740	RECOG_RESP	n/a	LTP293	ltpFR	5	5	0	DEER	444	1	n/a	1	n/a	n/a	n/a	n/a	n/a
3872400	RECOG_CONF	n/a	LTP293	ltpFR	5	5	0	DEER	444	n/a	5	1	n/a	n/a	n/a	n/a	n/a
3874152	RECOG_LURE	n/a	LTP293	ltpFR	5	5	n/a	NEWSPAPER	948	0	3	n/a	n/a	n/a	n/a	n/a	n/a
3874700	RECOG_RESP	n/a	LTP293	ltpFR	5	5	n/a	NEWSPAPER	948	0	n/a	n/a	n/a	n/a	n/a	n/a	n/a
3875340	RECOG_CONF	n/a	LTP293	ltpFR	5	5	n/a	NEWSPAPER	948	n/a	3	n/a	n/a	n/a	n/a	n/a	n/a
3877048	RECOG_LURE	n/a	LTP293	ltpFR	5	5	n/a	FEATHER	557	0	4	n/a	n/a	n/a	n/a	n/a	n/a
3877630	RECOG_RESP	n/a	LTP293	ltpFR	5	5	n/a	FEATHER	557	0	n/a	n/a	n/a	n/a	n/a	n/a	n/a
3878250	RECOG_CONF	n/a	LTP293	ltpFR	5	5	n/a	FEATHER	557	n/a	4	n/a	n/a	n/a	n/a	n/a	n/a
3879993	RECOG_LURE	n/a	LTP293	ltpFR	5	5	n/a	PAINT	1003	1	1	n/a	n/a	n/a	n/a	n/a	n/a
3880580	RECOG_RESP	n/a	LTP293	ltpFR	5	5	n/a	PAINT	1003	1	n/a	n/a	n/a	n/a	n/a	n/a	n/a
3881420	RECOG_CONF	n/a	LTP293	ltpFR	5	5	n/a	PAINT	1003	n/a	1	n/a	n/a	n/a	n/a	n/a	n/a
3883222	RECOG_TARGET	n/a	LTP293	ltpFR	5	5	1	DIAGRAM	456	0	1	0	n/a	n/a	n/a	n/a	n/a
3883755	RECOG_RESP	n/a	LTP293	ltpFR	5	5	1	DIAGRAM	456	0	n/a	0	n/a	n/a	n/a	n/a	n/a
3884680	RECOG_CONF	n/a	LTP293	ltpFR	5	5	1	DIAGRAM	456	n/a	1	0	n/a	n/a	n/a	n/a	n/a
3886567	RECOG_TARGET	n/a	LTP293	ltpFR	5	5	1	PIGEON	1065	1	3	1	n/a	n/a	n/a	n/a	n/a
3887125	RECOG_RESP	n/a	LTP293	ltpFR	5	5	1	PIGEON	1065	1	n/a	1	n/a	n/a	n/a	n/a	n/a
3887820	RECOG_CONF	n/a	LTP293	ltpFR	5	5	1	PIGEON	1065	n/a	3	1	n/a	n/a	n/a	n/a	n/a
3891933	REC_START	n/a	LTP293	ltpFR	5	6	n/a	n/a	n/a	n/a	n/a	n/a	n/a	n/a	n/a	n/a	n/a
3891959	RECOG_TARGET	n/a	LTP293	ltpFR	5	6	0	BATHTUB	100	1	5	1	n/a	n/a	n/a	n/a	n/a
3892543	RECOG_RESP	n/a	LTP293	ltpFR	5	6	0	BATHTUB	100	1	n/a	1	n/a	n/a	n/a	n/a	n/a
3893183	RECOG_CONF	n/a	LTP293	ltpFR	5	6	0	BATHTUB	100	n/a	5	1	n/a	n/a	n/a	n/a	n/a
3894954	RECOG_TARGET	n/a	LTP293	ltpFR	5	6	1	DEPARTMENT	449	1	4	0	n/a	n/a	n/a	n/a	n/a
3895428	RECOG_RESP	n/a	LTP293	ltpFR	5	6	1	DEPARTMENT	449	1	n/a	0	n/a	n/a	n/a	n/a	n/a
3896223	RECOG_CONF	n/a	LTP293	ltpFR	5	6	1	DEPARTMENT	449	n/a	4	0	n/a	n/a	n/a	n/a	n/a
3898033	RECOG_LURE	n/a	LTP293	ltpFR	5	6	n/a	PERISCOPE	1050	0	3	n/a	n/a	n/a	n/a	n/a	n/a
3898573	RECOG_RESP	n/a	LTP293	ltpFR	5	6	n/a	PERISCOPE	1050	0	n/a	n/a	n/a	n/a	n/a	n/a	n/a
3899193	RECOG_CONF	n/a	LTP293	ltpFR	5	6	n/a	PERISCOPE	1050	n/a	3	n/a	n/a	n/a	n/a	n/a	n/a
3901145	RECOG_TARGET	n/a	LTP293	ltpFR	5	6	0	GARDEN	623	1	4	0	n/a	n/a	n/a	n/a	n/a
3901588	RECOG_RESP	n/a	LTP293	ltpFR	5	6	0	GARDEN	623	1	n/a	0	n/a	n/a	n/a	n/a	n/a
3902183	RECOG_CONF	n/a	LTP293	ltpFR	5	6	0	GARDEN	623	n/a	4	0	n/a	n/a	n/a	n/a	n/a
3904008	RECOG_LURE	n/a	LTP293	ltpFR	5	6	n/a	BUN	197	1	1	n/a	n/a	n/a	n/a	n/a	n/a
3904643	RECOG_RESP	n/a	LTP293	ltpFR	5	6	n/a	BUN	197	1	n/a	n/a	n/a	n/a	n/a	n/a	n/a
3905293	RECOG_CONF	n/a	LTP293	ltpFR	5	6	n/a	BUN	197	n/a	1	n/a	n/a	n/a	n/a	n/a	n/a
3907170	RECOG_TARGET	n/a	LTP293	ltpFR	5	6	1	FEAST	556	1	4	0	n/a	n/a	n/a	n/a	n/a
3907628	RECOG_RESP	n/a	LTP293	ltpFR	5	6	1	FEAST	556	1	n/a	0	n/a	n/a	n/a	n/a	n/a
3908263	RECOG_CONF	n/a	LTP293	ltpFR	5	6	1	FEAST	556	n/a	4	0	n/a	n/a	n/a	n/a	n/a
3910032	RECOG_TARGET	n/a	LTP293	ltpFR	5	6	-1	CHICK	296	1	5	-1	n/a	n/a	n/a	n/a	n/a
3910563	RECOG_RESP	n/a	LTP293	ltpFR	5	6	-1	CHICK	296	1	n/a	-1	n/a	n/a	n/a	n/a	n/a
3911213	RECOG_CONF	n/a	LTP293	ltpFR	5	6	-1	CHICK	296	n/a	5	-1	n/a	n/a	n/a	n/a	n/a
3913077	RECOG_TARGET	n/a	LTP293	ltpFR	5	6	1	POWDER	1117	1	4	0	n/a	n/a	n/a	n/a	n/a
3913588	RECOG_RESP	n/a	LTP293	ltpFR	5	6	1	POWDER	1117	1	n/a	0	n/a	n/a	n/a	n/a	n/a
3914185	RECOG_CONF	n/a	LTP293	ltpFR	5	6	1	POWDER	1117	n/a	4	0	n/a	n/a	n/a	n/a	n/a
3915906	RECOG_LURE	n/a	LTP293	ltpFR	5	6	n/a	VOLCANO	1575	0	2	n/a	n/a	n/a	n/a	n/a	n/a
3916408	RECOG_RESP	n/a	LTP293	ltpFR	5	6	n/a	VOLCANO	1575	0	n/a	n/a	n/a	n/a	n/a	n/a	n/a
3917103	RECOG_CONF	n/a	LTP293	ltpFR	5	6	n/a	VOLCANO	1575	n/a	2	n/a	n/a	n/a	n/a	n/a	n/a
3918885	RECOG_LURE	n/a	LTP293	ltpFR	5	6	n/a	SALOON	1228	0	3	n/a	n/a	n/a	n/a	n/a	n/a
3919438	RECOG_RESP	n/a	LTP293	ltpFR	5	6	n/a	SALOON	1228	0	n/a	n/a	n/a	n/a	n/a	n/a	n/a
3920083	RECOG_CONF	n/a	LTP293	ltpFR	5	6	n/a	SALOON	1228	n/a	3	n/a	n/a	n/a	n/a	n/a	n/a
3921831	RECOG_TARGET	n/a	LTP293	ltpFR	5	6	1	STEW	1380	1	4	0	n/a	n/a	n/a	n/a	n/a
3922318	RECOG_RESP	n/a	LTP293	ltpFR	5	6	1	STEW	1380	1	n/a	0	n/a	n/a	n/a	n/a	n/a
3922923	RECOG_CONF	n/a	LTP293	ltpFR	5	6	1	STEW	1380	n/a	4	0	n/a	n/a	n/a	n/a	n/a
3924743	RECOG_LURE	n/a	LTP293	ltpFR	5	6	n/a	LAMP	798	1	1	n/a	n/a	n/a	n/a	n/a	n/a
3925248	RECOG_RESP	n/a	LTP293	ltpFR	5	6	n/a	LAMP	798	1	n/a	n/a	n/a	n/a	n/a	n/a	n/a
3925963	RECOG_CONF	n/a	LTP293	ltpFR	5	6	n/a	LAMP	798	n/a	1	n/a	n/a	n/a	n/a	n/a	n/a
3927805	RECOG_LURE	n/a	LTP293	ltpFR	5	6	n/a	GHETTO	633	0	5	n/a	n/a	n/a	n/a	n/a	n/a
3928353	RECOG_RESP	n/a	LTP293	ltpFR	5	6	n/a	GHETTO	633	0	n/a	n/a	n/a	n/a	n/a	n/a	n/a
3928983	RECOG_CONF	n/a	LTP293	ltpFR	5	6	n/a	GHETTO	633	n/a	5	n/a	n/a	n/a	n/a	n/a	n/a
3930868	RECOG_LURE	n/a	LTP293	ltpFR	5	6	n/a	COMMANDER	354	1	2	n/a	n/a	n/a	n/a	n/a	n/a
3931413	RECOG_RESP	n/a	LTP293	ltpFR	5	6	n/a	COMMANDER	354	1	n/a	n/a	n/a	n/a	n/a	n/a	n/a
3932153	RECOG_CONF	n/a	LTP293	ltpFR	5	6	n/a	COMMANDER	354	n/a	2	n/a	n/a	n/a	n/a	n/a	n/a
3934046	RECOG_LURE	n/a	LTP293	ltpFR	5	6	n/a	OMELET	976	0	4	n/a	n/a	n/a	n/a	n/a	n/a
3934668	RECOG_RESP	n/a	LTP293	ltpFR	5	6	n/a	OMELET	976	0	n/a	n/a	n/a	n/a	n/a	n/a	n/a
3935323	RECOG_CONF	n/a	LTP293	ltpFR	5	6	n/a	OMELET	976	n/a	4	n/a	n/a	n/a	n/a	n/a	n/a
3937208	RECOG_LURE	n/a	LTP293	ltpFR	5	6	n/a	ATMOSPHERE	54	0	4	n/a	n/a	n/a	n/a	n/a	n/a
3937728	RECOG_RESP	n/a	LTP293	ltpFR	5	6	n/a	ATMOSPHERE	54	0	n/a	n/a	n/a	n/a	n/a	n/a	n/a
3938393	RECOG_CONF	n/a	LTP293	ltpFR	5	6	n/a	ATMOSPHERE	54	n/a	4	n/a	n/a	n/a	n/a	n/a	n/a
3940154	RECOG_TARGET	n/a	LTP293	ltpFR	5	6	1	ANTELOPE	27	1	2	1	n/a	n/a	n/a	n/a	n/a
3940848	RECOG_RESP	n/a	LTP293	ltpFR	5	6	1	ANTELOPE	27	1	n/a	1	n/a	n/a	n/a	n/a	n/a
3941553	RECOG_CONF	n/a	LTP293	ltpFR	5	6	1	ANTELOPE	27	n/a	2	1	n/a	n/a	n/a	n/a	n/a
3943450	RECOG_LURE	n/a	LTP293	ltpFR	5	6	n/a	ONION	977	0	3	n/a	n/a	n/a	n/a	n/a	n/a
3943988	RECOG_RESP	n/a	LTP293	ltpFR	5	6	n/a	ONION	977	0	n/a	n/a	n/a	n/a	n/a	n/a	n/a
3944583	RECOG_CONF	n/a	LTP293	ltpFR	5	6	n/a	ONION	977	n/a	3	n/a	n/a	n/a	n/a	n/a	n/a
3946594	RECOG_TARGET	n/a	LTP293	ltpFR	5	6	0	VOLUNTEER	1577	0	4	0	n/a	n/a	n/a	n/a	n/a
3947163	RECOG_RESP	n/a	LTP293	ltpFR	5	6	0	VOLUNTEER	1577	0	n/a	0	n/a	n/a	n/a	n/a	n/a
3947793	RECOG_CONF	n/a	LTP293	ltpFR	5	6	0	VOLUNTEER	1577	n/a	4	0	n/a	n/a	n/a	n/a	n/a
3949689	RECOG_LURE	n/a	LTP293	ltpFR	5	6	n/a	EMPLOYER	532	1	2	n/a	n/a	n/a	n/a	n/a	n/a
3950238	RECOG_RESP	n/a	LTP293	ltpFR	5	6	n/a	EMPLOYER	532	1	n/a	n/a	n/a	n/a	n/a	n/a	n/a
3951363	RECOG_CONF	n/a	LTP293	ltpFR	5	6	n/a	EMPLOYER	532	n/a	2	n/a	n/a	n/a	n/a	n/a	n/a
3965145	REC_START	n/a	LTP293	ltpFR	5	7	n/a	n/a	n/a	n/a	n/a	n/a	n/a	n/a	n/a	n/a	n/a
3965183	RECOG_LURE	n/a	LTP293	ltpFR	5	7	n/a	PUCK	1138	0	4	n/a	n/a	n/a	n/a	n/a	n/a
3965812	RECOG_RESP	n/a	LTP293	ltpFR	5	7	n/a	PUCK	1138	0	n/a	n/a	n/a	n/a	n/a	n/a	n/a
3966545	RECOG_CONF	n/a	LTP293	ltpFR	5	7	n/a	PUCK	1138	n/a	4	n/a	n/a	n/a	n/a	n/a	n/a
3968262	RECOG_TARGET	n/a	LTP293	ltpFR	5	7	1	ORANGE	980	1	5	1	n/a	n/a	n/a	n/a	n/a
3968750	RECOG_RESP	n/a	LTP293	ltpFR	5	7	1	ORANGE	980	1	n/a	1	n/a	n/a	n/a	n/a	n/a
3969495	RECOG_CONF	n/a	LTP293	ltpFR	5	7	1	ORANGE	980	n/a	5	1	n/a	n/a	n/a	n/a	n/a
3971307	RECOG_TARGET	n/a	LTP293	ltpFR	5	7	0	GRASS	655	1	2	0	n/a	n/a	n/a	n/a	n/a
3971995	RECOG_RESP	n/a	LTP293	ltpFR	5	7	0	GRASS	655	1	n/a	0	n/a	n/a	n/a	n/a	n/a
3973005	RECOG_CONF	n/a	LTP293	ltpFR	5	7	0	GRASS	655	n/a	2	0	n/a	n/a	n/a	n/a	n/a
3974785	RECOG_LURE	n/a	LTP293	ltpFR	5	7	n/a	RATTLE	1170	0	4	n/a	n/a	n/a	n/a	n/a	n/a
3975345	RECOG_RESP	n/a	LTP293	ltpFR	5	7	n/a	RATTLE	1170	0	n/a	n/a	n/a	n/a	n/a	n/a	n/a
3975975	RECOG_CONF	n/a	LTP293	ltpFR	5	7	n/a	RATTLE	1170	n/a	4	n/a	n/a	n/a	n/a	n/a	n/a
3977748	RECOG_LURE	n/a	LTP293	ltpFR	5	7	n/a	STRAW	1390	0	3	n/a	n/a	n/a	n/a	n/a	n/a
3978205	RECOG_RESP	n/a	LTP293	ltpFR	5	7	n/a	STRAW	1390	0	n/a	n/a	n/a	n/a	n/a	n/a	n/a
3978805	RECOG_CONF	n/a	LTP293	ltpFR	5	7	n/a	STRAW	1390	n/a	3	n/a	n/a	n/a	n/a	n/a	n/a
3980710	RECOG_LURE	n/a	LTP293	ltpFR	5	7	n/a	SLIME	1327	0	4	n/a	n/a	n/a	n/a	n/a	n/a
3981175	RECOG_RESP_VV	n/a	LTP293	ltpFR	5	7	n/a	SLIME	1327	1	n/a	n/a	n/a	n/a	n/a	n/a	n/a
3981710	RECOG_RESP	n/a	LTP293	ltpFR	5	7	n/a	SLIME	1327	0	n/a	n/a	n/a	n/a	n/a	n/a	n/a
3982325	RECOG_CONF	n/a	LTP293	ltpFR	5	7	n/a	SLIME	1327	n/a	4	n/a	n/a	n/a	n/a	n/a	n/a
3984138	RECOG_TARGET	n/a	LTP293	ltpFR	5	7	0	YARD	1630	0	2	1	n/a	n/a	n/a	n/a	n/a
3984705	RECOG_RESP	n/a	LTP293	ltpFR	5	7	0	YARD	1630	0	n/a	1	n/a	n/a	n/a	n/a	n/a
3985925	RECOG_CONF	n/a	LTP293	ltpFR	5	7	0	YARD	1630	n/a	2	1	n/a	n/a	n/a	n/a	n/a
3987633	RECOG_TARGET	n/a	LTP293	ltpFR	5	7	1	QUAIL	1147	1	5	1	n/a	n/a	n/a	n/a	n/a
3988215	RECOG_RESP	n/a	LTP293	ltpFR	5	7	1	QUAIL	1147	1	n/a	1	n/a	n/a	n/a	n/a	n/a
3988875	RECOG_CONF	n/a	LTP293	ltpFR	5	7	1	QUAIL	1147	n/a	5	1	n/a	n/a	n/a	n/a	n/a
3990728	RECOG_LURE	n/a	LTP293	ltpFR	5	7	n/a	HORSE	719	0	1	n/a	n/a	n/a	n/a	n/a	n/a
3991185	RECOG_RESP	n/a	LTP293	ltpFR	5	7	n/a	HORSE	719	0	n/a	n/a	n/a	n/a	n/a	n/a	n/a
3991928	RECOG_CONF	n/a	LTP293	ltpFR	5	7	n/a	HORSE	719	n/a	1	n/a	n/a	n/a	n/a	n/a	n/a
3993690	RECOG_LURE	n/a	LTP293	ltpFR	5	7	n/a	ARM	38	0	2	n/a	n/a	n/a	n/a	n/a	n/a
3994250	RECOG_RESP	n/a	LTP293	ltpFR	5	7	n/a	ARM	38	0	n/a	n/a	n/a	n/a	n/a	n/a	n/a
3994935	RECOG_CONF	n/a	LTP293	ltpFR	5	7	n/a	ARM	38	n/a	2	n/a	n/a	n/a	n/a	n/a	n/a
3996719	RECOG_TARGET	n/a	LTP293	ltpFR	5	7	0	HERO	706	1	5	1	n/a	n/a	n/a	n/a	n/a
3997245	RECOG_RESP	n/a	LTP293	ltpFR	5	7	0	HERO	706	1	n/a	1	n/a	n/a	n/a	n/a	n/a
3997835	RECOG_CONF	n/a	LTP293	ltpFR	5	7	0	HERO	706	n/a	5	1	n/a	n/a	n/a	n/a	n/a
3999598	RECOG_TARGET	n/a	LTP293	ltpFR	5	7	0	PADDING	999	1	4	0	n/a	n/a	n/a	n/a	n/a
4000096	RECOG_RESP	n/a	LTP293	ltpFR	5	7	0	PADDING	999	1	n/a	0	n/a	n/a	n/a	n/a	n/a
4000955	RECOG_CONF	n/a	LTP293	ltpFR	5	7	0	PADDING	999	n/a	4	0	n/a	n/a	n/a	n/a	n/a
4002877	RECOG_LURE	n/a	LTP293	ltpFR	5	7	n/a	INTESTINE	742	0	3	n/a	n/a	n/a	n/a	n/a	n/a
4003410	RECOG_RESP	n/a	LTP293	ltpFR	5	7	n/a	INTESTINE	742	0	n/a	n/a	n/a	n/a	n/a	n/a	n/a
4004225	RECOG_CONF	n/a	LTP293	ltpFR	5	7	n/a	INTESTINE	742	n/a	3	n/a	n/a	n/a	n/a	n/a	n/a
4006122	RECOG_TARGET	n/a	LTP293	ltpFR	5	7	0	DASHBOARD	441	0	4	0	n/a	n/a	n/a	n/a	n/a
4006765	RECOG_RESP	n/a	LTP293	ltpFR	5	7	0	DASHBOARD	441	0	n/a	0	n/a	n/a	n/a	n/a	n/a
4007455	RECOG_CONF	n/a	LTP293	ltpFR	5	7	0	DASHBOARD	441	n/a	4	0	n/a	n/a	n/a	n/a	n/a
4009217	RECOG_LURE	n/a	LTP293	ltpFR	5	7	n/a	BLUEPRINT	142	0	1	n/a	n/a	n/a	n/a	n/a	n/a
4009835	RECOG_RESP	n/a	LTP293	ltpFR	5	7	n/a	BLUEPRINT	142	0	n/a	n/a	n/a	n/a	n/a	n/a	n/a
4010625	RECOG_CONF	n/a	LTP293	ltpFR	5	7	n/a	BLUEPRINT	142	n/a	1	n/a	n/a	n/a	n/a	n/a	n/a
4012413	RECOG_TARGET	n/a	LTP293	ltpFR	5	7	1	VENUS	1557	1	5	0	n/a	n/a	n/a	n/a	n/a
4012905	RECOG_RESP	n/a	LTP293	ltpFR	5	7	1	VENUS	1557	1	n/a	0	n/a	n/a	n/a	n/a	n/a
4013595	RECOG_CONF	n/a	LTP293	ltpFR	5	7	1	VENUS	1557	n/a	5	0	n/a	n/a	n/a	n/a	n/a
4015541	RECOG_LURE	n/a	LTP293	ltpFR	5	7	n/a	TURKEY	1520	0	3	n/a	n/a	n/a	n/a	n/a	n/a
4016040	RECOG_RESP	n/a	LTP293	ltpFR	5	7	n/a	TURKEY	1520	0	n/a	n/a	n/a	n/a	n/a	n/a	n/a
4016795	RECOG_CONF	n/a	LTP293	ltpFR	5	7	n/a	TURKEY	1520	n/a	3	n/a	n/a	n/a	n/a	n/a	n/a
4018603	RECOG_LURE	n/a	LTP293	ltpFR	5	7	n/a	DIRECTOR	471	1	2	n/a	n/a	n/a	n/a	n/a	n/a
4019095	RECOG_RESP	n/a	LTP293	ltpFR	5	7	n/a	DIRECTOR	471	1	n/a	n/a	n/a	n/a	n/a	n/a	n/a
4019845	RECOG_CONF	n/a	LTP293	ltpFR	5	7	n/a	DIRECTOR	471	n/a	2	n/a	n/a	n/a	n/a	n/a	n/a
4021517	RECOG_LURE	n/a	LTP293	ltpFR	5	7	n/a	BRUNETTE	181	0	4	n/a	n/a	n/a	n/a	n/a	n/a
4022160	RECOG_RESP	n/a	LTP293	ltpFR	5	7	n/a	BRUNETTE	181	0	n/a	n/a	n/a	n/a	n/a	n/a	n/a
4022775	RECOG_CONF	n/a	LTP293	ltpFR	5	7	n/a	BRUNETTE	181	n/a	4	n/a	n/a	n/a	n/a	n/a	n/a
4024578	RECOG_LURE	n/a	LTP293	ltpFR	5	7	n/a	GUEST	669	0	1	n/a	n/a	n/a	n/a	n/a	n/a
4025035	RECOG_RESP	n/a	LTP293	ltpFR	5	7	n/a	GUEST	669	0	n/a	n/a	n/a	n/a	n/a	n/a	n/a
4025715	RECOG_CONF	n/a	LTP293	ltpFR	5	7	n/a	GUEST	669	n/a	1	n/a	n/a	n/a	n/a	n/a	n/a
4029504	REC_START	n/a	LTP293	ltpFR	5	8	n/a	n/a	n/a	n/a	n/a	n/a	n/a	n/a	n/a	n/a	n/a
4029537	RECOG_TARGET	n/a	LTP293	ltpFR	5	8	1	SLIDE	1326	1	5	0	n/a	n/a	n/a	n/a	n/a
4030139	RECOG_RESP	n/a	LTP293	ltpFR	5	8	1	SLIDE	1326	1	n/a	0	n/a	n/a	n/a	n/a	n/a
4030794	RECOG_CONF	n/a	LTP293	ltpFR	5	8	1	SLIDE	1326	n/a	5	0	n/a	n/a	n/a	n/a	n/a
4032699	RECOG_LURE	n/a	LTP293	ltpFR	5	8	n/a	HAT	690	0	4	n/a	n/a	n/a	n/a	n/a	n/a
4033134	RECOG_RESP	n/a	LTP293	ltpFR	5	8	n/a	HAT	690	0	n/a	n/a	n/a	n/a	n/a	n/a	n/a
4033764	RECOG_CONF	n/a	LTP293	ltpFR	5	8	n/a	HAT	690	n/a	4	n/a	n/a	n/a	n/a	n/a	n/a
4035728	RECOG_TARGET	n/a	LTP293	ltpFR	5	8	-1	SERGEANT	1269	1	3	-1	n/a	n/a	n/a	n/a	n/a
4036269	RECOG_RESP	n/a	LTP293	ltpFR	5	8	-1	SERGEANT	1269	1	n/a	-1	n/a	n/a	n/a	n/a	n/a
4037104	RECOG_CONF	n/a	LTP293	ltpFR	5	8	-1	SERGEANT	1269	n/a	3	-1	n/a	n/a	n/a	n/a	n/a
4038923	RECOG_TARGET	n/a	LTP293	ltpFR	5	8	-1	HEN	703	1	4	-1	n/a	n/a	n/a	n/a	n/a
4039494	RECOG_RESP	n/a	LTP293	ltpFR	5	8	-1	HEN	703	1	n/a	-1	n/a	n/a	n/a	n/a	n/a
4040104	RECOG_CONF	n/a	LTP293	ltpFR	5	8	-1	HEN	703	n/a	4	-1	n/a	n/a	n/a	n/a	n/a
4041935	RECOG_LURE	n/a	LTP293	ltpFR	5	8	n/a	TREASURE	1500	0	4	n/a	n/a	n/a	n/a	n/a	n/a
4042419	RECOG_RESP	n/a	LTP293	ltpFR	5	8	n/a	TREASURE	1500	0	n/a	n/a	n/a	n/a	n/a	n/a	n/a
4043034	RECOG_CONF	n/a	LTP293	ltpFR	5	8	n/a	TREASURE	1500	n/a	4	n/a	n/a	n/a	n/a	n/a	n/a
4044714	RECOG_LURE	n/a	LTP293	ltpFR	5	8	n/a	DOCK	477	0	3	n/a	n/a	n/a	n/a	n/a	n/a
4045314	RECOG_RESP	n/a	LTP293	ltpFR	5	8	n/a	DOCK	477	0	n/a	n/a	n/a	n/a	n/a	n/a	n/a
4045914	RECOG_CONF	n/a	LTP293	ltpFR	5	8	n/a	DOCK	477	n/a	3	n/a	n/a	n/a	n/a	n/a	n/a
4047676	RECOG_TARGET	n/a	LTP293	ltpFR	5	8	0	THICKET	1455	1	5	0	n/a	n/a	n/a	n/a	n/a
4048254	RECOG_RESP	n/a	LTP293	ltpFR	5	8	0	THICKET	1455	1	n/a	0	n/a	n/a	n/a	n/a	n/a
4048814	RECOG_CONF	n/a	LTP293	ltpFR	5	8	0	THICKET	1455	n/a	5	0	n/a	n/a	n/a	n/a	n/a
4050788	RECOG_LURE	n/a	LTP293	ltpFR	5	8	n/a	RANCH	1166	0	4	n/a	n/a	n/a	n/a	n/a	n/a
