mstime	trial_type	stim_file	subject	experiment	session	trial	task	item_name	item_num	recog_resp	recog_conf	resp	answer	test_x	test_y	test_z	color_r	color_g	color_b	case	font
0	SESS_START	n/a	LTP272	ltpFR	10	n/a	n/a	n/a	n/a	0	n/a	n/a	n/a	0	0	0	n/a	n/a	n/a	n/a	n/a
31561	START	n/a	LTP272	ltpFR	10	n/a	n/a	n/a	n/a	n/a	n/a	n/a	n/a	n/a	n/a	n/a	n/a	n/a	n/a	n/a	n/a
31610	PROB	n/a	LTP272	ltpFR	10	n/a	n/a	n/a	n/a	n/a	n/a	n/a	12	5	1	6	n/a	n/a	n/a	n/a	n/a
32782	PROB	n/a	LTP272	ltpFR	10	n/a	n/a	n/a	n/a	n/a	n/a	n/a	22	8	6	6	n/a	n/a	n/a	n/a	n/a
34221	PROB	n/a	LTP272	ltpFR	10	n/a	n/a	n/a	n/a	n/a	n/a	n/a	17	5	8	4	n/a	n/a	n/a	n/a	n/a
35508	PROB	n/a	LTP272	ltpFR	10	n/a	n/a	n/a	n/a	n/a	n/a	n/a	11	3	1	7	n/a	n/a	n/a	n/a	n/a
36998	PROB	n/a	LTP272	ltpFR	10	n/a	n/a	n/a	n/a	n/a	n/a	n/a	14	8	5	1	n/a	n/a	n/a	n/a	n/a
38152	PROB	n/a	LTP272	ltpFR	10	n/a	n/a	n/a	n/a	n/a	n/a	n/a	19	4	8	7	n/a	n/a	n/a	n/a	n/a
39273	PROB	n/a	LTP272	ltpFR	10	n/a	n/a	n/a	n/a	n/a	n/a	n/a	21	9	7	5	n/a	n/a	n/a	n/a	n/a
40678	PROB	n/a	LTP272	ltpFR	10	n/a	n/a	n/a	n/a	n/a	n/a	n/a	12	6	3	3	n/a	n/a	n/a	n/a	n/a
42235	PROB	n/a	LTP272	ltpFR	10	n/a	n/a	n/a	n/a	n/a	n/a	n/a	14	6	7	1	n/a	n/a	n/a	n/a	n/a
43421	PROB	n/a	LTP272	ltpFR	10	n/a	n/a	n/a	n/a	n/a	n/a	n/a	12	6	3	3	n/a	n/a	n/a	n/a	n/a
44911	PROB	n/a	LTP272	ltpFR	10	n/a	n/a	n/a	n/a	n/a	n/a	n/a	19	8	3	8	n/a	n/a	n/a	n/a	n/a
46282	PROB	n/a	LTP272	ltpFR	10	n/a	n/a	n/a	n/a	n/a	n/a	n/a	9	4	1	4	n/a	n/a	n/a	n/a	n/a
47370	PROB	n/a	LTP272	ltpFR	10	n/a	n/a	n/a	n/a	n/a	n/a	n/a	13	1	4	8	n/a	n/a	n/a	n/a	n/a
48756	PROB	n/a	LTP272	ltpFR	10	n/a	n/a	n/a	n/a	n/a	n/a	n/a	11	4	3	4	n/a	n/a	n/a	n/a	n/a
49994	STOP	n/a	LTP272	ltpFR	10	n/a	n/a	n/a	n/a	n/a	n/a	n/a	n/a	n/a	n/a	n/a	n/a	n/a	n/a	n/a	n/a
84745	START	n/a	LTP272	ltpFR	10	n/a	n/a	n/a	n/a	n/a	n/a	n/a	n/a	n/a	n/a	n/a	n/a	n/a	n/a	n/a	n/a
86251	PROB	n/a	LTP272	ltpFR	10	n/a	n/a	n/a	n/a	n/a	n/a	n/a	11	1	6	4	n/a	n/a	n/a	n/a	n/a
87236	PROB	n/a	LTP272	ltpFR	10	n/a	n/a	n/a	n/a	n/a	n/a	n/a	20	8	5	7	n/a	n/a	n/a	n/a	n/a
88441	PROB	n/a	LTP272	ltpFR	10	n/a	n/a	n/a	n/a	n/a	n/a	n/a	10	2	4	3	n/a	n/a	n/a	n/a	n/a
89814	PROB	n/a	LTP272	ltpFR	10	n/a	n/a	n/a	n/a	n/a	n/a	n/a	17	7	8	2	n/a	n/a	n/a	n/a	n/a
91179	STOP	n/a	LTP272	ltpFR	10	n/a	n/a	n/a	n/a	n/a	n/a	n/a	n/a	n/a	n/a	n/a	n/a	n/a	n/a	n/a	n/a
93611	WORD	wordpools/wasnorm_wordpool_less_exclusions.txt	LTP272	ltpFR	10	1	0	BUCKET	184	n/a	n/a	1	n/a	0	0	0	0.57763671875	0.412841796875	1	upper	amplitud.ttf
96623	START	n/a	LTP272	ltpFR	10	n/a	n/a	n/a	n/a	n/a	n/a	n/a	n/a	n/a	n/a	n/a	n/a	n/a	n/a	n/a	n/a
97827	PROB	n/a	LTP272	ltpFR	10	n/a	n/a	n/a	n/a	n/a	n/a	n/a	14	3	6	5	n/a	n/a	n/a	n/a	n/a
99116	PROB	n/a	LTP272	ltpFR	10	n/a	n/a	n/a	n/a	n/a	n/a	n/a	17	8	7	2	n/a	n/a	n/a	n/a	n/a
100203	PROB	n/a	LTP272	ltpFR	10	n/a	n/a	n/a	n/a	n/a	n/a	n/a	1	5	8	8	n/a	n/a	n/a	n/a	n/a
101407	PROB	n/a	LTP272	ltpFR	10	n/a	n/a	n/a	n/a	n/a	n/a	n/a	16	3	6	7	n/a	n/a	n/a	n/a	n/a
102846	PROB	n/a	LTP272	ltpFR	10	n/a	n/a	n/a	n/a	n/a	n/a	n/a	23	9	5	9	n/a	n/a	n/a	n/a	n/a
104298	STOP	n/a	LTP272	ltpFR	10	n/a	n/a	n/a	n/a	n/a	n/a	n/a	n/a	n/a	n/a	n/a	n/a	n/a	n/a	n/a	n/a
105791	WORD	wordpools/wasnorm_wordpool_less_exclusions.txt	LTP272	ltpFR	10	1	0	CHISEL	305	n/a	n/a	0	n/a	0	0	0	0.57763671875	0.412841796875	1	upper	amplitud.ttf
108803	START	n/a	LTP272	ltpFR	10	n/a	n/a	n/a	n/a	n/a	n/a	n/a	n/a	n/a	n/a	n/a	n/a	n/a	n/a	n/a	n/a
109721	PROB	n/a	LTP272	ltpFR	10	n/a	n/a	n/a	n/a	n/a	n/a	n/a	19	7	9	3	n/a	n/a	n/a	n/a	n/a
110910	PROB	n/a	LTP272	ltpFR	10	n/a	n/a	n/a	n/a	n/a	n/a	n/a	16	8	1	7	n/a	n/a	n/a	n/a	n/a
112081	PROB	n/a	LTP272	ltpFR	10	n/a	n/a	n/a	n/a	n/a	n/a	n/a	20	9	3	8	n/a	n/a	n/a	n/a	n/a
113569	PROB	n/a	LTP272	ltpFR	10	n/a	n/a	n/a	n/a	n/a	n/a	n/a	11	1	1	9	n/a	n/a	n/a	n/a	n/a
114473	PROB	n/a	LTP272	ltpFR	10	n/a	n/a	n/a	n/a	n/a	n/a	n/a	12	2	7	3	n/a	n/a	n/a	n/a	n/a
115609	STOP	n/a	LTP272	ltpFR	10	n/a	n/a	n/a	n/a	n/a	n/a	n/a	n/a	n/a	n/a	n/a	n/a	n/a	n/a	n/a	n/a
117685	WORD	wordpools/wasnorm_wordpool_less_exclusions.txt	LTP272	ltpFR	10	1	0	GARLIC	624	n/a	n/a	0	n/a	0	0	0	0.57763671875	0.412841796875	1	upper	amplitud.ttf
120697	START	n/a	LTP272	ltpFR	10	n/a	n/a	n/a	n/a	n/a	n/a	n/a	n/a	n/a	n/a	n/a	n/a	n/a	n/a	n/a	n/a
121549	PROB	n/a	LTP272	ltpFR	10	n/a	n/a	n/a	n/a	n/a	n/a	n/a	18	7	2	9	n/a	n/a	n/a	n/a	n/a
122855	PROB	n/a	LTP272	ltpFR	10	n/a	n/a	n/a	n/a	n/a	n/a	n/a	17	6	9	2	n/a	n/a	n/a	n/a	n/a
124008	PROB	n/a	LTP272	ltpFR	10	n/a	n/a	n/a	n/a	n/a	n/a	n/a	9	1	5	3	n/a	n/a	n/a	n/a	n/a
124997	PROB	n/a	LTP272	ltpFR	10	n/a	n/a	n/a	n/a	n/a	n/a	n/a	8	2	5	1	n/a	n/a	n/a	n/a	n/a
126134	PROB	n/a	LTP272	ltpFR	10	n/a	n/a	n/a	n/a	n/a	n/a	n/a	16	1	6	9	n/a	n/a	n/a	n/a	n/a
127441	STOP	n/a	LTP272	ltpFR	10	n/a	n/a	n/a	n/a	n/a	n/a	n/a	n/a	n/a	n/a	n/a	n/a	n/a	n/a	n/a	n/a
129815	WORD	wordpools/wasnorm_wordpool_less_exclusions.txt	LTP272	ltpFR	10	1	0	VINEGAR	1569	n/a	n/a	0	n/a	0	0	0	0.57763671875	0.412841796875	1	upper	amplitud.ttf
132827	START	n/a	LTP272	ltpFR	10	n/a	n/a	n/a	n/a	n/a	n/a	n/a	n/a	n/a	n/a	n/a	n/a	n/a	n/a	n/a	n/a
133729	PROB	n/a	LTP272	ltpFR	10	n/a	n/a	n/a	n/a	n/a	n/a	n/a	13	6	1	6	n/a	n/a	n/a	n/a	n/a
134850	PROB	n/a	LTP272	ltpFR	10	n/a	n/a	n/a	n/a	n/a	n/a	n/a	10	1	1	8	n/a	n/a	n/a	n/a	n/a
136003	PROB	n/a	LTP272	ltpFR	10	n/a	n/a	n/a	n/a	n/a	n/a	n/a	14	3	9	2	n/a	n/a	n/a	n/a	n/a
137092	PROB	n/a	LTP272	ltpFR	10	n/a	n/a	n/a	n/a	n/a	n/a	n/a	8	1	1	6	n/a	n/a	n/a	n/a	n/a
138096	PROB	n/a	LTP272	ltpFR	10	n/a	n/a	n/a	n/a	n/a	n/a	n/a	16	8	4	4	n/a	n/a	n/a	n/a	n/a
140827	STOP	n/a	LTP272	ltpFR	10	n/a	n/a	n/a	n/a	n/a	n/a	n/a	n/a	n/a	n/a	n/a	n/a	n/a	n/a	n/a	n/a
141725	WORD	wordpools/wasnorm_wordpool_less_exclusions.txt	LTP272	ltpFR	10	1	0	CHARCOAL	281	n/a	n/a	0	n/a	0	0	0	0.57763671875	0.412841796875	1	upper	amplitud.ttf
144737	START	n/a	LTP272	ltpFR	10	n/a	n/a	n/a	n/a	n/a	n/a	n/a	n/a	n/a	n/a	n/a	n/a	n/a	n/a	n/a	n/a
145657	PROB	n/a	LTP272	ltpFR	10	n/a	n/a	n/a	n/a	n/a	n/a	n/a	17	8	6	3	n/a	n/a	n/a	n/a	n/a
146862	PROB	n/a	LTP272	ltpFR	10	n/a	n/a	n/a	n/a	n/a	n/a	n/a	19	6	6	6	n/a	n/a	n/a	n/a	n/a
148115	PROB	n/a	LTP272	ltpFR	10	n/a	n/a	n/a	n/a	n/a	n/a	n/a	25	9	7	9	n/a	n/a	n/a	n/a	n/a
149720	PROB	n/a	LTP272	ltpFR	10	n/a	n/a	n/a	n/a	n/a	n/a	n/a	11	6	2	3	n/a	n/a	n/a	n/a	n/a
150794	PROB	n/a	LTP272	ltpFR	10	n/a	n/a	n/a	n/a	n/a	n/a	n/a	10	1	1	8	n/a	n/a	n/a	n/a	n/a
151713	STOP	n/a	LTP272	ltpFR	10	n/a	n/a	n/a	n/a	n/a	n/a	n/a	n/a	n/a	n/a	n/a	n/a	n/a	n/a	n/a	n/a
153620	WORD	wordpools/wasnorm_wordpool_less_exclusions.txt	LTP272	ltpFR	10	1	0	MAYONNAISE	880	n/a	n/a	0	n/a	0	0	0	0.57763671875	0.412841796875	1	upper	amplitud.ttf
156632	START	n/a	LTP272	ltpFR	10	n/a	n/a	n/a	n/a	n/a	n/a	n/a	n/a	n/a	n/a	n/a	n/a	n/a	n/a	n/a	n/a
157803	PROB	n/a	LTP272	ltpFR	10	n/a	n/a	n/a	n/a	n/a	n/a	n/a	9	3	5	1	n/a	n/a	n/a	n/a	n/a
158874	PROB	n/a	LTP272	ltpFR	10	n/a	n/a	n/a	n/a	n/a	n/a	n/a	16	3	9	4	n/a	n/a	n/a	n/a	n/a
160229	PROB	n/a	LTP272	ltpFR	10	n/a	n/a	n/a	n/a	n/a	n/a	n/a	12	9	2	1	n/a	n/a	n/a	n/a	n/a
161399	PROB	n/a	LTP272	ltpFR	10	n/a	n/a	n/a	n/a	n/a	n/a	n/a	21	9	9	3	n/a	n/a	n/a	n/a	n/a
162535	PROB	n/a	LTP272	ltpFR	10	n/a	n/a	n/a	n/a	n/a	n/a	n/a	41	6	3	1	n/a	n/a	n/a	n/a	n/a
163842	STOP	n/a	LTP272	ltpFR	10	n/a	n/a	n/a	n/a	n/a	n/a	n/a	n/a	n/a	n/a	n/a	n/a	n/a	n/a	n/a	n/a
165548	WORD	wordpools/wasnorm_wordpool_less_exclusions.txt	LTP272	ltpFR	10	1	0	BRUNETTE	181	n/a	n/a	1	n/a	0	0	0	0.57763671875	0.412841796875	1	upper	amplitud.ttf
168560	START	n/a	LTP272	ltpFR	10	n/a	n/a	n/a	n/a	n/a	n/a	n/a	n/a	n/a	n/a	n/a	n/a	n/a	n/a	n/a	n/a
169446	PROB	n/a	LTP272	ltpFR	10	n/a	n/a	n/a	n/a	n/a	n/a	n/a	18	7	9	2	n/a	n/a	n/a	n/a	n/a
170701	PROB	n/a	LTP272	ltpFR	10	n/a	n/a	n/a	n/a	n/a	n/a	n/a	22	9	6	7	n/a	n/a	n/a	n/a	n/a
172324	PROB	n/a	LTP272	ltpFR	10	n/a	n/a	n/a	n/a	n/a	n/a	n/a	7	1	5	1	n/a	n/a	n/a	n/a	n/a
173295	PROB	n/a	LTP272	ltpFR	10	n/a	n/a	n/a	n/a	n/a	n/a	n/a	14	6	5	3	n/a	n/a	n/a	n/a	n/a
174480	PROB	n/a	LTP272	ltpFR	10	n/a	n/a	n/a	n/a	n/a	n/a	n/a	12	9	9	3	n/a	n/a	n/a	n/a	n/a
175617	STOP	n/a	LTP272	ltpFR	10	n/a	n/a	n/a	n/a	n/a	n/a	n/a	n/a	n/a	n/a	n/a	n/a	n/a	n/a	n/a	n/a
177728	WORD	wordpools/wasnorm_wordpool_less_exclusions.txt	LTP272	ltpFR	10	1	0	FOUNTAIN	597	n/a	n/a	1	n/a	0	0	0	0.57763671875	0.412841796875	1	upper	amplitud.ttf
180740	START	n/a	LTP272	ltpFR	10	n/a	n/a	n/a	n/a	n/a	n/a	n/a	n/a	n/a	n/a	n/a	n/a	n/a	n/a	n/a	n/a
181928	PROB	n/a	LTP272	ltpFR	10	n/a	n/a	n/a	n/a	n/a	n/a	n/a	18	4	9	5	n/a	n/a	n/a	n/a	n/a
183281	PROB	n/a	LTP272	ltpFR	10	n/a	n/a	n/a	n/a	n/a	n/a	n/a	19	9	2	8	n/a	n/a	n/a	n/a	n/a
184971	PROB	n/a	LTP272	ltpFR	10	n/a	n/a	n/a	n/a	n/a	n/a	n/a	14	7	3	4	n/a	n/a	n/a	n/a	n/a
186211	PROB	n/a	LTP272	ltpFR	10	n/a	n/a	n/a	n/a	n/a	n/a	n/a	11	7	3	1	n/a	n/a	n/a	n/a	n/a
187164	PROB	n/a	LTP272	ltpFR	10	n/a	n/a	n/a	n/a	n/a	n/a	n/a	17	6	4	7	n/a	n/a	n/a	n/a	n/a
188561	STOP	n/a	LTP272	ltpFR	10	n/a	n/a	n/a	n/a	n/a	n/a	n/a	n/a	n/a	n/a	n/a	n/a	n/a	n/a	n/a	n/a
189773	WORD	wordpools/wasnorm_wordpool_less_exclusions.txt	LTP272	ltpFR	10	1	0	BOWL	158	n/a	n/a	0	n/a	0	0	0	0.57763671875	0.412841796875	1	upper	amplitud.ttf
192786	START	n/a	LTP272	ltpFR	10	n/a	n/a	n/a	n/a	n/a	n/a	n/a	n/a	n/a	n/a	n/a	n/a	n/a	n/a	n/a	n/a
193839	PROB	n/a	LTP272	ltpFR	10	n/a	n/a	n/a	n/a	n/a	n/a	n/a	19	4	8	7	n/a	n/a	n/a	n/a	n/a
195044	PROB	n/a	LTP272	ltpFR	10	n/a	n/a	n/a	n/a	n/a	n/a	n/a	19	8	2	9	n/a	n/a	n/a	n/a	n/a
196165	PROB	n/a	LTP272	ltpFR	10	n/a	n/a	n/a	n/a	n/a	n/a	n/a	14	3	3	8	n/a	n/a	n/a	n/a	n/a
197551	PROB	n/a	LTP272	ltpFR	10	n/a	n/a	n/a	n/a	n/a	n/a	n/a	12	7	2	3	n/a	n/a	n/a	n/a	n/a
198959	PROB	n/a	LTP272	ltpFR	10	n/a	n/a	n/a	n/a	n/a	n/a	n/a	15	3	5	7	n/a	n/a	n/a	n/a	n/a
200202	STOP	n/a	LTP272	ltpFR	10	n/a	n/a	n/a	n/a	n/a	n/a	n/a	n/a	n/a	n/a	n/a	n/a	n/a	n/a	n/a	n/a
201937	WORD	wordpools/wasnorm_wordpool_less_exclusions.txt	LTP272	ltpFR	10	1	0	PRIEST	1122	n/a	n/a	1	n/a	0	0	0	0.57763671875	0.412841796875	1	upper	amplitud.ttf
204949	START	n/a	LTP272	ltpFR	10	n/a	n/a	n/a	n/a	n/a	n/a	n/a	n/a	n/a	n/a	n/a	n/a	n/a	n/a	n/a	n/a
206152	PROB	n/a	LTP272	ltpFR	10	n/a	n/a	n/a	n/a	n/a	n/a	n/a	23	6	8	9	n/a	n/a	n/a	n/a	n/a
207540	PROB	n/a	LTP272	ltpFR	10	n/a	n/a	n/a	n/a	n/a	n/a	n/a	9	4	2	3	n/a	n/a	n/a	n/a	n/a
208776	PROB	n/a	LTP272	ltpFR	10	n/a	n/a	n/a	n/a	n/a	n/a	n/a	17	6	5	6	n/a	n/a	n/a	n/a	n/a
210954	PROB	n/a	LTP272	ltpFR	10	n/a	n/a	n/a	n/a	n/a	n/a	n/a	17	3	6	8	n/a	n/a	n/a	n/a	n/a
212537	STOP	n/a	LTP272	ltpFR	10	n/a	n/a	n/a	n/a	n/a	n/a	n/a	n/a	n/a	n/a	n/a	n/a	n/a	n/a	n/a	n/a
214081	WORD	wordpools/wasnorm_wordpool_less_exclusions.txt	LTP272	ltpFR	10	1	0	PREACHER	1119	n/a	n/a	1	n/a	0	0	0	0.57763671875	0.412841796875	1	upper	amplitud.ttf
217094	START	n/a	LTP272	ltpFR	10	n/a	n/a	n/a	n/a	n/a	n/a	n/a	n/a	n/a	n/a	n/a	n/a	n/a	n/a	n/a	n/a
218298	PROB	n/a	LTP272	ltpFR	10	n/a	n/a	n/a	n/a	n/a	n/a	n/a	20	5	6	9	n/a	n/a	n/a	n/a	n/a
219886	PROB	n/a	LTP272	ltpFR	10	n/a	n/a	n/a	n/a	n/a	n/a	n/a	15	2	4	9	n/a	n/a	n/a	n/a	n/a
221243	PROB	n/a	LTP272	ltpFR	10	n/a	n/a	n/a	n/a	n/a	n/a	n/a	19	6	6	7	n/a	n/a	n/a	n/a	n/a
222495	PROB	n/a	LTP272	ltpFR	10	n/a	n/a	n/a	n/a	n/a	n/a	n/a	24	7	8	9	n/a	n/a	n/a	n/a	n/a
224027	STOP	n/a	LTP272	ltpFR	10	n/a	n/a	n/a	n/a	n/a	n/a	n/a	n/a	n/a	n/a	n/a	n/a	n/a	n/a	n/a	n/a
225992	WORD	wordpools/wasnorm_wordpool_less_exclusions.txt	LTP272	ltpFR	10	1	0	TEAPOT	1442	n/a	n/a	1	n/a	0	0	0	0.57763671875	0.412841796875	1	upper	amplitud.ttf
229006	START	n/a	LTP272	ltpFR	10	n/a	n/a	n/a	n/a	n/a	n/a	n/a	n/a	n/a	n/a	n/a	n/a	n/a	n/a	n/a	n/a
230160	PROB	n/a	LTP272	ltpFR	10	n/a	n/a	n/a	n/a	n/a	n/a	n/a	24	8	8	8	n/a	n/a	n/a	n/a	n/a
231363	PROB	n/a	LTP272	ltpFR	10	n/a	n/a	n/a	n/a	n/a	n/a	n/a	18	8	1	9	n/a	n/a	n/a	n/a	n/a
232551	PROB	n/a	LTP272	ltpFR	10	n/a	n/a	n/a	n/a	n/a	n/a	n/a	17	9	5	3	n/a	n/a	n/a	n/a	n/a
233807	PROB	n/a	LTP272	ltpFR	10	n/a	n/a	n/a	n/a	n/a	n/a	n/a	17	8	7	2	n/a	n/a	n/a	n/a	n/a
235128	PROB	n/a	LTP272	ltpFR	10	n/a	n/a	n/a	n/a	n/a	n/a	n/a	24	8	9	7	n/a	n/a	n/a	n/a	n/a
236409	STOP	n/a	LTP272	ltpFR	10	n/a	n/a	n/a	n/a	n/a	n/a	n/a	n/a	n/a	n/a	n/a	n/a	n/a	n/a	n/a	n/a
238140	WORD	wordpools/wasnorm_wordpool_less_exclusions.txt	LTP272	ltpFR	10	1	0	BEDROOM	111	n/a	n/a	1	n/a	0	0	0	0.57763671875	0.412841796875	1	upper	amplitud.ttf
241152	START	n/a	LTP272	ltpFR	10	n/a	n/a	n/a	n/a	n/a	n/a	n/a	n/a	n/a	n/a	n/a	n/a	n/a	n/a	n/a	n/a
242255	PROB	n/a	LTP272	ltpFR	10	n/a	n/a	n/a	n/a	n/a	n/a	n/a	19	7	5	7	n/a	n/a	n/a	n/a	n/a
244010	PROB	n/a	LTP272	ltpFR	10	n/a	n/a	n/a	n/a	n/a	n/a	n/a	10	7	2	1	n/a	n/a	n/a	n/a	n/a
245082	PROB	n/a	LTP272	ltpFR	10	n/a	n/a	n/a	n/a	n/a	n/a	n/a	14	8	2	4	n/a	n/a	n/a	n/a	n/a
246203	PROB	n/a	LTP272	ltpFR	10	n/a	n/a	n/a	n/a	n/a	n/a	n/a	19	8	9	2	n/a	n/a	n/a	n/a	n/a
247373	PROB	n/a	LTP272	ltpFR	10	n/a	n/a	n/a	n/a	n/a	n/a	n/a	13	9	1	3	n/a	n/a	n/a	n/a	n/a
248521	STOP	n/a	LTP272	ltpFR	10	n/a	n/a	n/a	n/a	n/a	n/a	n/a	n/a	n/a	n/a	n/a	n/a	n/a	n/a	n/a	n/a
250202	WORD	wordpools/wasnorm_wordpool_less_exclusions.txt	LTP272	ltpFR	10	1	0	COMET	353	n/a	n/a	1	n/a	0	0	0	0.57763671875	0.412841796875	1	upper	amplitud.ttf
253214	START	n/a	LTP272	ltpFR	10	n/a	n/a	n/a	n/a	n/a	n/a	n/a	n/a	n/a	n/a	n/a	n/a	n/a	n/a	n/a	n/a
254167	PROB	n/a	LTP272	ltpFR	10	n/a	n/a	n/a	n/a	n/a	n/a	n/a	7	3	1	3	n/a	n/a	n/a	n/a	n/a
255219	PROB	n/a	LTP272	ltpFR	10	n/a	n/a	n/a	n/a	n/a	n/a	n/a	7	3	2	2	n/a	n/a	n/a	n/a	n/a
256774	PROB	n/a	LTP272	ltpFR	10	n/a	n/a	n/a	n/a	n/a	n/a	n/a	17	3	8	6	n/a	n/a	n/a	n/a	n/a
258165	PROB	n/a	LTP272	ltpFR	10	n/a	n/a	n/a	n/a	n/a	n/a	n/a	14	1	4	9	n/a	n/a	n/a	n/a	n/a
259469	PROB	n/a	LTP272	ltpFR	10	n/a	n/a	n/a	n/a	n/a	n/a	n/a	16	2	5	9	n/a	n/a	n/a	n/a	n/a
260690	STOP	n/a	LTP272	ltpFR	10	n/a	n/a	n/a	n/a	n/a	n/a	n/a	n/a	n/a	n/a	n/a	n/a	n/a	n/a	n/a	n/a
262046	WORD	wordpools/wasnorm_wordpool_less_exclusions.txt	LTP272	ltpFR	10	1	0	BOX	159	n/a	n/a	0	n/a	0	0	0	0.57763671875	0.412841796875	1	upper	amplitud.ttf
265058	START	n/a	LTP272	ltpFR	10	n/a	n/a	n/a	n/a	n/a	n/a	n/a	n/a	n/a	n/a	n/a	n/a	n/a	n/a	n/a	n/a
265978	PROB	n/a	LTP272	ltpFR	10	n/a	n/a	n/a	n/a	n/a	n/a	n/a	20	3	9	8	n/a	n/a	n/a	n/a	n/a
267248	PROB	n/a	LTP272	ltpFR	10	n/a	n/a	n/a	n/a	n/a	n/a	n/a	14	3	3	8	n/a	n/a	n/a	n/a	n/a
268553	PROB	n/a	LTP272	ltpFR	10	n/a	n/a	n/a	n/a	n/a	n/a	n/a	11	2	2	7	n/a	n/a	n/a	n/a	n/a
270211	PROB	n/a	LTP272	ltpFR	10	n/a	n/a	n/a	n/a	n/a	n/a	n/a	15	7	7	1	n/a	n/a	n/a	n/a	n/a
271129	PROB	n/a	LTP272	ltpFR	10	n/a	n/a	n/a	n/a	n/a	n/a	n/a	13	6	3	4	n/a	n/a	n/a	n/a	n/a
272345	STOP	n/a	LTP272	ltpFR	10	n/a	n/a	n/a	n/a	n/a	n/a	n/a	n/a	n/a	n/a	n/a	n/a	n/a	n/a	n/a	n/a
273891	WORD	wordpools/wasnorm_wordpool_less_exclusions.txt	LTP272	ltpFR	10	1	0	DAUGHTER	442	n/a	n/a	1	n/a	0	0	0	0.57763671875	0.412841796875	1	upper	amplitud.ttf
276903	START	n/a	LTP272	ltpFR	10	n/a	n/a	n/a	n/a	n/a	n/a	n/a	n/a	n/a	n/a	n/a	n/a	n/a	n/a	n/a	n/a
278090	PROB	n/a	LTP272	ltpFR	10	n/a	n/a	n/a	n/a	n/a	n/a	n/a	13	9	1	2	n/a	n/a	n/a	n/a	n/a
279411	PROB	n/a	LTP272	ltpFR	10	n/a	n/a	n/a	n/a	n/a	n/a	n/a	7	2	1	4	n/a	n/a	n/a	n/a	n/a
280548	PROB	n/a	LTP272	ltpFR	10	n/a	n/a	n/a	n/a	n/a	n/a	n/a	21	8	7	6	n/a	n/a	n/a	n/a	n/a
281905	PROB	n/a	LTP272	ltpFR	10	n/a	n/a	n/a	n/a	n/a	n/a	n/a	8	4	2	2	n/a	n/a	n/a	n/a	n/a
284903	STOP	n/a	LTP272	ltpFR	10	n/a	n/a	n/a	n/a	n/a	n/a	n/a	n/a	n/a	n/a	n/a	n/a	n/a	n/a	n/a	n/a
286689	REC_START	n/a	LTP272	ltpFR	10	1	n/a	n/a	n/a	n/a	n/a	n/a	n/a	0	0	0	n/a	n/a	n/a	n/a	n/a
289002	REC_WORD	wordpools/wasnorm_wordpool_less_exclusions.txt	LTP272	ltpFR	10	1	0	BOWL	158	n/a	n/a	0	n/a	0	0	0	n/a	n/a	n/a	n/a	n/a
290749	REC_WORD	wordpools/wasnorm_wordpool_less_exclusions.txt	LTP272	ltpFR	10	1	0	TEAPOT	1442	n/a	n/a	1	n/a	0	0	0	n/a	n/a	n/a	n/a	n/a
292314	REC_WORD	wordpools/wasnorm_wordpool_less_exclusions.txt	LTP272	ltpFR	10	1	0	FOUNTAIN	597	n/a	n/a	1	n/a	0	0	0	n/a	n/a	n/a	n/a	n/a
294053	REC_WORD	wordpools/wasnorm_wordpool_less_exclusions.txt	LTP272	ltpFR	10	1	0	BRUNETTE	181	n/a	n/a	1	n/a	0	0	0	n/a	n/a	n/a	n/a	n/a
295960	REC_WORD	wordpools/wasnorm_wordpool_less_exclusions.txt	LTP272	ltpFR	10	1	0	PRIEST	1122	n/a	n/a	1	n/a	0	0	0	n/a	n/a	n/a	n/a	n/a
299065	REC_WORD	wordpools/wasnorm_wordpool_less_exclusions.txt	LTP272	ltpFR	10	1	0	BUCKET	184	n/a	n/a	1	n/a	0	0	0	n/a	n/a	n/a	n/a	n/a
300604	REC_WORD	wordpools/wasnorm_wordpool_less_exclusions.txt	LTP272	ltpFR	10	1	0	BOX	159	n/a	n/a	0	n/a	0	0	0	n/a	n/a	n/a	n/a	n/a
302158	REC_WORD	wordpools/wasnorm_wordpool_less_exclusions.txt	LTP272	ltpFR	10	1	0	DAUGHTER	442	n/a	n/a	1	n/a	0	0	0	n/a	n/a	n/a	n/a	n/a
303830	REC_WORD	wordpools/wasnorm_wordpool_less_exclusions.txt	LTP272	ltpFR	10	1	0	CHISEL	305	n/a	n/a	0	n/a	0	0	0	n/a	n/a	n/a	n/a	n/a
305893	REC_WORD	wordpools/wasnorm_wordpool_less_exclusions.txt	LTP272	ltpFR	10	1	0	GARLIC	624	n/a	n/a	0	n/a	0	0	0	n/a	n/a	n/a	n/a	n/a
308204	REC_WORD	wordpools/wasnorm_wordpool_less_exclusions.txt	LTP272	ltpFR	10	1	0	VINEGAR	1569	n/a	n/a	0	n/a	0	0	0	n/a	n/a	n/a	n/a	n/a
309884	REC_WORD	wordpools/wasnorm_wordpool_less_exclusions.txt	LTP272	ltpFR	10	1	0	CHARCOAL	281	n/a	n/a	0	n/a	0	0	0	n/a	n/a	n/a	n/a	n/a
311799	REC_WORD	wordpools/wasnorm_wordpool_less_exclusions.txt	LTP272	ltpFR	10	1	0	MAYONNAISE	880	n/a	n/a	0	n/a	0	0	0	n/a	n/a	n/a	n/a	n/a
326408	REC_WORD	wordpools/wasnorm_wordpool_less_exclusions.txt	LTP272	ltpFR	10	1	0	COMET	353	n/a	n/a	1	n/a	0	0	0	n/a	n/a	n/a	n/a	n/a
329293	REC_WORD	wordpools/wasnorm_wordpool_less_exclusions.txt	LTP272	ltpFR	10	1	0	BEDROOM	111	n/a	n/a	1	n/a	0	0	0	n/a	n/a	n/a	n/a	n/a
365905	WORD	wordpools/wasnorm_wordpool_less_exclusions.txt	LTP272	ltpFR	10	2	1	METEOR	889	n/a	n/a	0	n/a	0	0	0	0.422607421875	0.5869140625	0	lower	zerothre.ttf
370104	WORD	wordpools/wasnorm_wordpool_less_exclusions.txt	LTP272	ltpFR	10	2	1	LODGE	839	n/a	n/a	0	n/a	0	0	0	0.422607421875	0.5869140625	0	lower	zerothre.ttf
374253	WORD	wordpools/wasnorm_wordpool_less_exclusions.txt	LTP272	ltpFR	10	2	1	PAVEMENT	1028	n/a	n/a	0	n/a	0	0	0	0.422607421875	0.5869140625	0	lower	zerothre.ttf
378417	WORD	wordpools/wasnorm_wordpool_less_exclusions.txt	LTP272	ltpFR	10	2	0	ERASER	538	n/a	n/a	0	n/a	0	0	0	0.57763671875	0.412841796875	1	upper	amplitud.ttf
382283	WORD	wordpools/wasnorm_wordpool_less_exclusions.txt	LTP272	ltpFR	10	2	0	DART	440	n/a	n/a	0	n/a	0	0	0	0.57763671875	0.412841796875	1	upper	amplitud.ttf
386147	WORD	wordpools/wasnorm_wordpool_less_exclusions.txt	LTP272	ltpFR	10	2	0	BUNNY	198	n/a	n/a	0	n/a	0	0	0	0.57763671875	0.412841796875	1	upper	amplitud.ttf
390079	WORD	wordpools/wasnorm_wordpool_less_exclusions.txt	LTP272	ltpFR	10	2	0	RABBIT	1152	n/a	n/a	0	n/a	0	0	0	0.57763671875	0.412841796875	1	upper	amplitud.ttf
394128	WORD	wordpools/wasnorm_wordpool_less_exclusions.txt	LTP272	ltpFR	10	2	1	APARTMENT	30	n/a	n/a	0	n/a	0	0	0	0.422607421875	0.5869140625	0	lower	zerothre.ttf
398326	WORD	wordpools/wasnorm_wordpool_less_exclusions.txt	LTP272	ltpFR	10	2	1	SIDEWALK	1303	n/a	n/a	0	n/a	0	0	0	0.422607421875	0.5869140625	0	lower	zerothre.ttf
402175	WORD	wordpools/wasnorm_wordpool_less_exclusions.txt	LTP272	ltpFR	10	2	1	CARPENTER	246	n/a	n/a	1	n/a	0	0	0	0.422607421875	0.5869140625	0	lower	zerothre.ttf
406022	WORD	wordpools/wasnorm_wordpool_less_exclusions.txt	LTP272	ltpFR	10	2	0	GLASSES	640	n/a	n/a	0	n/a	0	0	0	0.57763671875	0.412841796875	1	upper	amplitud.ttf
409971	WORD	wordpools/wasnorm_wordpool_less_exclusions.txt	LTP272	ltpFR	10	2	0	POTTERY	1116	n/a	n/a	0	n/a	0	0	0	0.57763671875	0.412841796875	1	upper	amplitud.ttf
413919	WORD	wordpools/wasnorm_wordpool_less_exclusions.txt	LTP272	ltpFR	10	2	0	GYMNAST	675	n/a	n/a	1	n/a	0	0	0	0.57763671875	0.412841796875	1	upper	amplitud.ttf
418118	WORD	wordpools/wasnorm_wordpool_less_exclusions.txt	LTP272	ltpFR	10	2	0	COACH	331	n/a	n/a	1	n/a	0	0	0	0.57763671875	0.412841796875	1	upper	amplitud.ttf
422167	WORD	wordpools/wasnorm_wordpool_less_exclusions.txt	LTP272	ltpFR	10	2	1	AUTOMOBILE	62	n/a	n/a	0	n/a	0	0	0	0.422607421875	0.5869140625	0	lower	zerothre.ttf
426081	WORD	wordpools/wasnorm_wordpool_less_exclusions.txt	LTP272	ltpFR	10	2	1	CORAL	378	n/a	n/a	1	n/a	0	0	0	0.422607421875	0.5869140625	0	lower	zerothre.ttf
429093	START	n/a	LTP272	ltpFR	10	n/a	n/a	n/a	n/a	n/a	n/a	n/a	n/a	n/a	n/a	n/a	n/a	n/a	n/a	n/a	n/a
430046	PROB	n/a	LTP272	ltpFR	10	n/a	n/a	n/a	n/a	n/a	n/a	n/a	13	4	5	4	n/a	n/a	n/a	n/a	n/a
431685	PROB	n/a	LTP272	ltpFR	10	n/a	n/a	n/a	n/a	n/a	n/a	n/a	15	8	5	2	n/a	n/a	n/a	n/a	n/a
432974	PROB	n/a	LTP272	ltpFR	10	n/a	n/a	n/a	n/a	n/a	n/a	n/a	16	5	7	4	n/a	n/a	n/a	n/a	n/a
434078	PROB	n/a	LTP272	ltpFR	10	n/a	n/a	n/a	n/a	n/a	n/a	n/a	19	8	2	9	n/a	n/a	n/a	n/a	n/a
435082	PROB	n/a	LTP272	ltpFR	10	n/a	n/a	n/a	n/a	n/a	n/a	n/a	14	2	6	6	n/a	n/a	n/a	n/a	n/a
436131	STOP	n/a	LTP272	ltpFR	10	n/a	n/a	n/a	n/a	n/a	n/a	n/a	n/a	n/a	n/a	n/a	n/a	n/a	n/a	n/a	n/a
438863	REC_START	n/a	LTP272	ltpFR	10	2	n/a	n/a	n/a	n/a	n/a	n/a	n/a	0	0	0	n/a	n/a	n/a	n/a	n/a
439779	REC_WORD	wordpools/wasnorm_wordpool_less_exclusions.txt	LTP272	ltpFR	10	2	1	CORAL	378	n/a	n/a	1	n/a	0	0	0	n/a	n/a	n/a	n/a	n/a
441391	REC_WORD	wordpools/wasnorm_wordpool_less_exclusions.txt	LTP272	ltpFR	10	2	1	AUTOMOBILE	62	n/a	n/a	0	n/a	0	0	0	n/a	n/a	n/a	n/a	n/a
446145	REC_WORD	wordpools/wasnorm_wordpool_less_exclusions.txt	LTP272	ltpFR	10	2	1	CARPENTER	246	n/a	n/a	1	n/a	0	0	0	n/a	n/a	n/a	n/a	n/a
447801	REC_WORD	wordpools/wasnorm_wordpool_less_exclusions.txt	LTP272	ltpFR	10	2	1	APARTMENT	30	n/a	n/a	0	n/a	0	0	0	n/a	n/a	n/a	n/a	n/a
449117	REC_WORD	wordpools/wasnorm_wordpool_less_exclusions.txt	LTP272	ltpFR	10	2	1	SIDEWALK	1303	n/a	n/a	0	n/a	0	0	0	n/a	n/a	n/a	n/a	n/a
450833	REC_WORD	wordpools/wasnorm_wordpool_less_exclusions.txt	LTP272	ltpFR	10	2	1	METEOR	889	n/a	n/a	0	n/a	0	0	0	n/a	n/a	n/a	n/a	n/a
452303	REC_WORD	wordpools/wasnorm_wordpool_less_exclusions.txt	LTP272	ltpFR	10	2	1	LODGE	839	n/a	n/a	0	n/a	0	0	0	n/a	n/a	n/a	n/a	n/a
453941	REC_WORD	wordpools/wasnorm_wordpool_less_exclusions.txt	LTP272	ltpFR	10	2	1	PAVEMENT	1028	n/a	n/a	0	n/a	0	0	0	n/a	n/a	n/a	n/a	n/a
456673	REC_WORD	wordpools/wasnorm_wordpool_less_exclusions.txt	LTP272	ltpFR	10	2	0	GYMNAST	675	n/a	n/a	1	n/a	0	0	0	n/a	n/a	n/a	n/a	n/a
458030	REC_WORD	wordpools/wasnorm_wordpool_less_exclusions.txt	LTP272	ltpFR	10	2	0	COACH	331	n/a	n/a	1	n/a	0	0	0	n/a	n/a	n/a	n/a	n/a
459576	REC_WORD	wordpools/wasnorm_wordpool_less_exclusions.txt	LTP272	ltpFR	10	2	0	GLASSES	640	n/a	n/a	0	n/a	0	0	0	n/a	n/a	n/a	n/a	n/a
461118	REC_WORD	wordpools/wasnorm_wordpool_less_exclusions.txt	LTP272	ltpFR	10	2	0	POTTERY	1116	n/a	n/a	0	n/a	0	0	0	n/a	n/a	n/a	n/a	n/a
462888	REC_WORD	wordpools/wasnorm_wordpool_less_exclusions.txt	LTP272	ltpFR	10	2	0	BUNNY	198	n/a	n/a	0	n/a	0	0	0	n/a	n/a	n/a	n/a	n/a
464177	REC_WORD	wordpools/wasnorm_wordpool_less_exclusions.txt	LTP272	ltpFR	10	2	0	RABBIT	1152	n/a	n/a	0	n/a	0	0	0	n/a	n/a	n/a	n/a	n/a
465513	REC_WORD	wordpools/wasnorm_wordpool_less_exclusions.txt	LTP272	ltpFR	10	2	0	ERASER	538	n/a	n/a	0	n/a	0	0	0	n/a	n/a	n/a	n/a	n/a
467209	REC_WORD	wordpools/wasnorm_wordpool_less_exclusions.txt	LTP272	ltpFR	10	2	0	DART	440	n/a	n/a	0	n/a	0	0	0	n/a	n/a	n/a	n/a	n/a
521190	WORD	wordpools/wasnorm_wordpool_less_exclusions.txt	LTP272	ltpFR	10	3	1	OFFICE	972	n/a	n/a	0	n/a	0	0	0	0.422607421875	0.5869140625	0	lower	zerothre.ttf
525321	WORD	wordpools/wasnorm_wordpool_less_exclusions.txt	LTP272	ltpFR	10	3	1	PERSONNEL	1053	n/a	n/a	1	n/a	0	0	0	0.422607421875	0.5869140625	0	lower	zerothre.ttf
529537	WORD	wordpools/wasnorm_wordpool_less_exclusions.txt	LTP272	ltpFR	10	3	1	OREGANO	983	n/a	n/a	1	n/a	0	0	0	0.422607421875	0.5869140625	0	lower	zerothre.ttf
533402	WORD	wordpools/wasnorm_wordpool_less_exclusions.txt	LTP272	ltpFR	10	3	0	SKIN	1318	n/a	n/a	0	n/a	0	0	0	0.57763671875	0.412841796875	1	upper	amplitud.ttf
537383	WORD	wordpools/wasnorm_wordpool_less_exclusions.txt	LTP272	ltpFR	10	3	0	CRICKET	408	n/a	n/a	0	n/a	0	0	0	0.57763671875	0.412841796875	1	upper	amplitud.ttf
541249	WORD	wordpools/wasnorm_wordpool_less_exclusions.txt	LTP272	ltpFR	10	3	0	CRITIC	410	n/a	n/a	1	n/a	0	0	0	0.57763671875	0.412841796875	1	upper	amplitud.ttf
545230	WORD	wordpools/wasnorm_wordpool_less_exclusions.txt	LTP272	ltpFR	10	3	1	POT	1114	n/a	n/a	0	n/a	0	0	0	0.422607421875	0.5869140625	0	lower	zerothre.ttf
549412	WORD	wordpools/wasnorm_wordpool_less_exclusions.txt	LTP272	ltpFR	10	3	1	MEAL	882	n/a	n/a	0	n/a	0	0	0	0.422607421875	0.5869140625	0	lower	zerothre.ttf
553578	WORD	wordpools/wasnorm_wordpool_less_exclusions.txt	LTP272	ltpFR	10	3	1	FARMER	553	n/a	n/a	1	n/a	0	0	0	0.422607421875	0.5869140625	0	lower	zerothre.ttf
557576	WORD	wordpools/wasnorm_wordpool_less_exclusions.txt	LTP272	ltpFR	10	3	1	AUDIENCE	59	n/a	n/a	1	n/a	0	0	0	0.422607421875	0.5869140625	0	lower	zerothre.ttf
561608	WORD	wordpools/wasnorm_wordpool_less_exclusions.txt	LTP272	ltpFR	10	3	1	VEAL	1551	n/a	n/a	0	n/a	0	0	0	0.422607421875	0.5869140625	0	lower	zerothre.ttf
565589	WORD	wordpools/wasnorm_wordpool_less_exclusions.txt	LTP272	ltpFR	10	3	0	COW	393	n/a	n/a	1	n/a	0	0	0	0.57763671875	0.412841796875	1	upper	amplitud.ttf
569488	WORD	wordpools/wasnorm_wordpool_less_exclusions.txt	LTP272	ltpFR	10	3	0	ROOT	1210	n/a	n/a	0	n/a	0	0	0	0.57763671875	0.412841796875	1	upper	amplitud.ttf
573570	WORD	wordpools/wasnorm_wordpool_less_exclusions.txt	LTP272	ltpFR	10	3	0	FOREST	593	n/a	n/a	1	n/a	0	0	0	0.57763671875	0.412841796875	1	upper	amplitud.ttf
577468	WORD	wordpools/wasnorm_wordpool_less_exclusions.txt	LTP272	ltpFR	10	3	0	GRILL	661	n/a	n/a	1	n/a	0	0	0	0.57763671875	0.412841796875	1	upper	amplitud.ttf
581600	WORD	wordpools/wasnorm_wordpool_less_exclusions.txt	LTP272	ltpFR	10	3	0	SECRETARY	1265	n/a	n/a	1	n/a	0	0	0	0.57763671875	0.412841796875	1	upper	amplitud.ttf
584611	START	n/a	LTP272	ltpFR	10	n/a	n/a	n/a	n/a	n/a	n/a	n/a	n/a	n/a	n/a	n/a	n/a	n/a	n/a	n/a	n/a
585632	PROB	n/a	LTP272	ltpFR	10	n/a	n/a	n/a	n/a	n/a	n/a	n/a	18	7	5	6	n/a	n/a	n/a	n/a	n/a
587220	PROB	n/a	LTP272	ltpFR	10	n/a	n/a	n/a	n/a	n/a	n/a	n/a	8	2	2	4	n/a	n/a	n/a	n/a	n/a
588141	PROB	n/a	LTP272	ltpFR	10	n/a	n/a	n/a	n/a	n/a	n/a	n/a	19	9	7	3	n/a	n/a	n/a	n/a	n/a
589296	PROB	n/a	LTP272	ltpFR	10	n/a	n/a	n/a	n/a	n/a	n/a	n/a	15	3	4	9	n/a	n/a	n/a	n/a	n/a
590734	PROB	n/a	LTP272	ltpFR	10	n/a	n/a	n/a	n/a	n/a	n/a	n/a	10	7	2	1	n/a	n/a	n/a	n/a	n/a
591839	PROB	n/a	LTP272	ltpFR	10	n/a	n/a	n/a	n/a	n/a	n/a	n/a	19	7	7	5	n/a	n/a	n/a	n/a	n/a
593077	PROB	n/a	LTP272	ltpFR	10	n/a	n/a	n/a	n/a	n/a	n/a	n/a	26	9	8	9	n/a	n/a	n/a	n/a	n/a
595502	PROB	n/a	LTP272	ltpFR	10	n/a	n/a	n/a	n/a	n/a	n/a	n/a	10	6	3	1	n/a	n/a	n/a	n/a	n/a
596573	PROB	n/a	LTP272	ltpFR	10	n/a	n/a	n/a	n/a	n/a	n/a	n/a	15	6	5	4	n/a	n/a	n/a	n/a	n/a
598013	PROB	n/a	LTP272	ltpFR	10	n/a	n/a	n/a	n/a	n/a	n/a	n/a	13	2	8	3	n/a	n/a	n/a	n/a	n/a
599155	STOP	n/a	LTP272	ltpFR	10	n/a	n/a	n/a	n/a	n/a	n/a	n/a	n/a	n/a	n/a	n/a	n/a	n/a	n/a	n/a	n/a
602546	REC_START	n/a	LTP272	ltpFR	10	3	n/a	n/a	n/a	n/a	n/a	n/a	n/a	0	0	0	n/a	n/a	n/a	n/a	n/a
603104	REC_WORD	wordpools/wasnorm_wordpool_less_exclusions.txt	LTP272	ltpFR	10	3	0	FOREST	593	n/a	n/a	1	n/a	0	0	0	n/a	n/a	n/a	n/a	n/a
604258	REC_WORD	wordpools/wasnorm_wordpool_less_exclusions.txt	LTP272	ltpFR	10	3	0	ROOT	1210	n/a	n/a	0	n/a	0	0	0	n/a	n/a	n/a	n/a	n/a
605530	REC_WORD	wordpools/wasnorm_wordpool_less_exclusions.txt	LTP272	ltpFR	10	3	0	GRILL	661	n/a	n/a	1	n/a	0	0	0	n/a	n/a	n/a	n/a	n/a
606653	REC_WORD	wordpools/wasnorm_wordpool_less_exclusions.txt	LTP272	ltpFR	10	3	0	SECRETARY	1265	n/a	n/a	1	n/a	0	0	0	n/a	n/a	n/a	n/a	n/a
608169	REC_WORD	wordpools/wasnorm_wordpool_less_exclusions.txt	LTP272	ltpFR	10	3	1	OFFICE	972	n/a	n/a	0	n/a	0	0	0	n/a	n/a	n/a	n/a	n/a
609259	REC_WORD	wordpools/wasnorm_wordpool_less_exclusions.txt	LTP272	ltpFR	10	3	1	PERSONNEL	1053	n/a	n/a	1	n/a	0	0	0	n/a	n/a	n/a	n/a	n/a
610519	REC_WORD	wordpools/wasnorm_wordpool_less_exclusions.txt	LTP272	ltpFR	10	3	1	OREGANO	983	n/a	n/a	1	n/a	0	0	0	n/a	n/a	n/a	n/a	n/a
611704	REC_WORD	wordpools/wasnorm_wordpool_less_exclusions.txt	LTP272	ltpFR	10	3	0	SKIN	1318	n/a	n/a	0	n/a	0	0	0	n/a	n/a	n/a	n/a	n/a
612986	REC_WORD	wordpools/wasnorm_wordpool_less_exclusions.txt	LTP272	ltpFR	10	3	1	FARMER	553	n/a	n/a	1	n/a	0	0	0	n/a	n/a	n/a	n/a	n/a
614299	REC_WORD	wordpools/wasnorm_wordpool_less_exclusions.txt	LTP272	ltpFR	10	3	1	AUDIENCE	59	n/a	n/a	1	n/a	0	0	0	n/a	n/a	n/a	n/a	n/a
615460	REC_WORD	wordpools/wasnorm_wordpool_less_exclusions.txt	LTP272	ltpFR	10	3	1	VEAL	1551	n/a	n/a	0	n/a	0	0	0	n/a	n/a	n/a	n/a	n/a
616622	REC_WORD	wordpools/wasnorm_wordpool_less_exclusions.txt	LTP272	ltpFR	10	3	0	COW	393	n/a	n/a	1	n/a	0	0	0	n/a	n/a	n/a	n/a	n/a
620711	REC_WORD	wordpools/wasnorm_wordpool_less_exclusions.txt	LTP272	ltpFR	10	3	1	POT	1114	n/a	n/a	0	n/a	0	0	0	n/a	n/a	n/a	n/a	n/a
621930	REC_WORD_VV	wordpools/wasnorm_wordpool_less_exclusions.txt	LTP272	ltpFR	10	3	n/a	<>	-1	n/a	n/a	n/a	n/a	0	0	0	n/a	n/a	n/a	n/a	n/a
622848	REC_WORD	wordpools/wasnorm_wordpool_less_exclusions.txt	LTP272	ltpFR	10	3	1	MEAL	882	n/a	n/a	0	n/a	0	0	0	n/a	n/a	n/a	n/a	n/a
652240	REC_WORD	wordpools/wasnorm_wordpool_less_exclusions.txt	LTP272	ltpFR	10	3	0	CRITIC	410	n/a	n/a	1	n/a	0	0	0	n/a	n/a	n/a	n/a	n/a
653831	REC_WORD	wordpools/wasnorm_wordpool_less_exclusions.txt	LTP272	ltpFR	10	3	0	CRICKET	408	n/a	n/a	0	n/a	0	0	0	n/a	n/a	n/a	n/a	n/a
680723	WORD	wordpools/wasnorm_wordpool_less_exclusions.txt	LTP272	ltpFR	10	4	1	BASEBALL	93	n/a	n/a	0	n/a	0	0	0	0.422607421875	0.5869140625	0	lower	zerothre.ttf
684890	WORD	wordpools/wasnorm_wordpool_less_exclusions.txt	LTP272	ltpFR	10	4	1	PIRATE	1074	n/a	n/a	1	n/a	0	0	0	0.422607421875	0.5869140625	0	lower	zerothre.ttf
689022	WORD	wordpools/wasnorm_wordpool_less_exclusions.txt	LTP272	ltpFR	10	4	1	BABY	64	n/a	n/a	1	n/a	0	0	0	0.422607421875	0.5869140625	0	lower	zerothre.ttf
693188	WORD	wordpools/wasnorm_wordpool_less_exclusions.txt	LTP272	ltpFR	10	4	1	MARKER	870	n/a	n/a	0	n/a	0	0	0	0.422607421875	0.5869140625	0	lower	zerothre.ttf
697002	WORD	wordpools/wasnorm_wordpool_less_exclusions.txt	LTP272	ltpFR	10	4	1	PIGMENT	1066	n/a	n/a	0	n/a	0	0	0	0.422607421875	0.5869140625	0	lower	zerothre.ttf
701001	WORD	wordpools/wasnorm_wordpool_less_exclusions.txt	LTP272	ltpFR	10	4	1	VOLLEYBALL	1576	n/a	n/a	0	n/a	0	0	0	0.422607421875	0.5869140625	0	lower	zerothre.ttf
705200	WORD	wordpools/wasnorm_wordpool_less_exclusions.txt	LTP272	ltpFR	10	4	1	MANAGER	863	n/a	n/a	1	n/a	0	0	0	0.422607421875	0.5869140625	0	lower	zerothre.ttf
709165	WORD	wordpools/wasnorm_wordpool_less_exclusions.txt	LTP272	ltpFR	10	4	1	CLOSET	326	n/a	n/a	0	n/a	0	0	0	0.422607421875	0.5869140625	0	lower	zerothre.ttf
713230	WORD	wordpools/wasnorm_wordpool_less_exclusions.txt	LTP272	ltpFR	10	4	1	VESSEL	1558	n/a	n/a	0	n/a	0	0	0	0.422607421875	0.5869140625	0	lower	zerothre.ttf
717395	WORD	wordpools/wasnorm_wordpool_less_exclusions.txt	LTP272	ltpFR	10	4	1	DUST	508	n/a	n/a	0	n/a	0	0	0	0.422607421875	0.5869140625	0	lower	zerothre.ttf
721460	WORD	wordpools/wasnorm_wordpool_less_exclusions.txt	LTP272	ltpFR	10	4	1	WHEAT	1602	n/a	n/a	1	n/a	0	0	0	0.422607421875	0.5869140625	0	lower	zerothre.ttf
725559	WORD	wordpools/wasnorm_wordpool_less_exclusions.txt	LTP272	ltpFR	10	4	1	LAPEL	800	n/a	n/a	0	n/a	0	0	0	0.422607421875	0.5869140625	0	lower	zerothre.ttf
729390	WORD	wordpools/wasnorm_wordpool_less_exclusions.txt	LTP272	ltpFR	10	4	1	FELLOW	558	n/a	n/a	1	n/a	0	0	0	0.422607421875	0.5869140625	0	lower	zerothre.ttf
733206	WORD	wordpools/wasnorm_wordpool_less_exclusions.txt	LTP272	ltpFR	10	4	1	ENEMY	534	n/a	n/a	1	n/a	0	0	0	0.422607421875	0.5869140625	0	lower	zerothre.ttf
737304	WORD	wordpools/wasnorm_wordpool_less_exclusions.txt	LTP272	ltpFR	10	4	1	TECHNICIAN	1443	n/a	n/a	1	n/a	0	0	0	0.422607421875	0.5869140625	0	lower	zerothre.ttf
741436	WORD	wordpools/wasnorm_wordpool_less_exclusions.txt	LTP272	ltpFR	10	4	1	HAMMER	680	n/a	n/a	0	n/a	0	0	0	0.422607421875	0.5869140625	0	lower	zerothre.ttf
744447	START	n/a	LTP272	ltpFR	10	n/a	n/a	n/a	n/a	n/a	n/a	n/a	n/a	n/a	n/a	n/a	n/a	n/a	n/a	n/a	n/a
745401	PROB	n/a	LTP272	ltpFR	10	n/a	n/a	n/a	n/a	n/a	n/a	n/a	24	7	8	9	n/a	n/a	n/a	n/a	n/a
747173	PROB	n/a	LTP272	ltpFR	10	n/a	n/a	n/a	n/a	n/a	n/a	n/a	14	6	3	5	n/a	n/a	n/a	n/a	n/a
749233	PROB	n/a	LTP272	ltpFR	10	n/a	n/a	n/a	n/a	n/a	n/a	n/a	11	2	1	8	n/a	n/a	n/a	n/a	n/a
750186	PROB	n/a	LTP272	ltpFR	10	n/a	n/a	n/a	n/a	n/a	n/a	n/a	7	2	4	1	n/a	n/a	n/a	n/a	n/a
751610	STOP	n/a	LTP272	ltpFR	10	n/a	n/a	n/a	n/a	n/a	n/a	n/a	n/a	n/a	n/a	n/a	n/a	n/a	n/a	n/a	n/a
754219	REC_START	n/a	LTP272	ltpFR	10	4	n/a	n/a	n/a	n/a	n/a	n/a	n/a	0	0	0	n/a	n/a	n/a	n/a	n/a
755283	REC_WORD	wordpools/wasnorm_wordpool_less_exclusions.txt	LTP272	ltpFR	10	4	1	TECHNICIAN	1443	n/a	n/a	1	n/a	0	0	0	n/a	n/a	n/a	n/a	n/a
756833	REC_WORD	wordpools/wasnorm_wordpool_less_exclusions.txt	LTP272	ltpFR	10	4	1	LAPEL	800	n/a	n/a	0	n/a	0	0	0	n/a	n/a	n/a	n/a	n/a
758582	REC_WORD	wordpools/wasnorm_wordpool_less_exclusions.txt	LTP272	ltpFR	10	4	1	FELLOW	558	n/a	n/a	1	n/a	0	0	0	n/a	n/a	n/a	n/a	n/a
760330	REC_WORD	wordpools/wasnorm_wordpool_less_exclusions.txt	LTP272	ltpFR	10	4	1	ENEMY	534	n/a	n/a	1	n/a	0	0	0	n/a	n/a	n/a	n/a	n/a
763379	REC_WORD	wordpools/wasnorm_wordpool_less_exclusions.txt	LTP272	ltpFR	10	4	1	PIRATE	1074	n/a	n/a	1	n/a	0	0	0	n/a	n/a	n/a	n/a	n/a
764724	REC_WORD	wordpools/wasnorm_wordpool_less_exclusions.txt	LTP272	ltpFR	10	4	1	BASEBALL	93	n/a	n/a	0	n/a	0	0	0	n/a	n/a	n/a	n/a	n/a
766161	REC_WORD	wordpools/wasnorm_wordpool_less_exclusions.txt	LTP272	ltpFR	10	4	1	BABY	64	n/a	n/a	1	n/a	0	0	0	n/a	n/a	n/a	n/a	n/a
767538	REC_WORD	wordpools/wasnorm_wordpool_less_exclusions.txt	LTP272	ltpFR	10	4	1	MARKER	870	n/a	n/a	0	n/a	0	0	0	n/a	n/a	n/a	n/a	n/a
768816	REC_WORD	wordpools/wasnorm_wordpool_less_exclusions.txt	LTP272	ltpFR	10	4	1	PIGMENT	1066	n/a	n/a	0	n/a	0	0	0	n/a	n/a	n/a	n/a	n/a
770068	REC_WORD	wordpools/wasnorm_wordpool_less_exclusions.txt	LTP272	ltpFR	10	4	1	VOLLEYBALL	1576	n/a	n/a	0	n/a	0	0	0	n/a	n/a	n/a	n/a	n/a
772253	REC_WORD	wordpools/wasnorm_wordpool_less_exclusions.txt	LTP272	ltpFR	10	4	1	MANAGER	863	n/a	n/a	1	n/a	0	0	0	n/a	n/a	n/a	n/a	n/a
773656	REC_WORD	wordpools/wasnorm_wordpool_less_exclusions.txt	LTP272	ltpFR	10	4	1	CLOSET	326	n/a	n/a	0	n/a	0	0	0	n/a	n/a	n/a	n/a	n/a
787788	REC_WORD	wordpools/wasnorm_wordpool_less_exclusions.txt	LTP272	ltpFR	10	4	1	WHEAT	1602	n/a	n/a	1	n/a	0	0	0	n/a	n/a	n/a	n/a	n/a
789238	REC_WORD	wordpools/wasnorm_wordpool_less_exclusions.txt	LTP272	ltpFR	10	4	1	DUST	508	n/a	n/a	0	n/a	0	0	0	n/a	n/a	n/a	n/a	n/a
790696	REC_WORD	wordpools/wasnorm_wordpool_less_exclusions.txt	LTP272	ltpFR	10	4	1	VESSEL	1558	n/a	n/a	0	n/a	0	0	0	n/a	n/a	n/a	n/a	n/a
832278	START	n/a	LTP272	ltpFR	10	n/a	n/a	n/a	n/a	n/a	n/a	n/a	n/a	n/a	n/a	n/a	n/a	n/a	n/a	n/a	n/a
833785	PROB	n/a	LTP272	ltpFR	10	n/a	n/a	n/a	n/a	n/a	n/a	n/a	15	5	9	1	n/a	n/a	n/a	n/a	n/a
835106	PROB	n/a	LTP272	ltpFR	10	n/a	n/a	n/a	n/a	n/a	n/a	n/a	7	4	2	1	n/a	n/a	n/a	n/a	n/a
836175	PROB	n/a	LTP272	ltpFR	10	n/a	n/a	n/a	n/a	n/a	n/a	n/a	20	5	7	8	n/a	n/a	n/a	n/a	n/a
837431	PROB	n/a	LTP272	ltpFR	10	n/a	n/a	n/a	n/a	n/a	n/a	n/a	12	5	1	6	n/a	n/a	n/a	n/a	n/a
838550	PROB	n/a	LTP272	ltpFR	10	n/a	n/a	n/a	n/a	n/a	n/a	n/a	6	1	2	3	n/a	n/a	n/a	n/a	n/a
839586	STOP	n/a	LTP272	ltpFR	10	n/a	n/a	n/a	n/a	n/a	n/a	n/a	n/a	n/a	n/a	n/a	n/a	n/a	n/a	n/a	n/a
841446	WORD	wordpools/wasnorm_wordpool_less_exclusions.txt	LTP272	ltpFR	10	5	1	EMERALD	528	n/a	n/a	0	n/a	0	0	0	0.422607421875	0.5869140625	0	lower	zerothre.ttf
844458	START	n/a	LTP272	ltpFR	10	n/a	n/a	n/a	n/a	n/a	n/a	n/a	n/a	n/a	n/a	n/a	n/a	n/a	n/a	n/a	n/a
845645	PROB	n/a	LTP272	ltpFR	10	n/a	n/a	n/a	n/a	n/a	n/a	n/a	16	9	1	6	n/a	n/a	n/a	n/a	n/a
846984	PROB	n/a	LTP272	ltpFR	10	n/a	n/a	n/a	n/a	n/a	n/a	n/a	15	7	6	2	n/a	n/a	n/a	n/a	n/a
848156	PROB	n/a	LTP272	ltpFR	10	n/a	n/a	n/a	n/a	n/a	n/a	n/a	14	4	1	9	n/a	n/a	n/a	n/a	n/a
849310	PROB	n/a	LTP272	ltpFR	10	n/a	n/a	n/a	n/a	n/a	n/a	n/a	15	6	4	5	n/a	n/a	n/a	n/a	n/a
850562	PROB	n/a	LTP272	ltpFR	10	n/a	n/a	n/a	n/a	n/a	n/a	n/a	10	6	3	1	n/a	n/a	n/a	n/a	n/a
851490	STOP	n/a	LTP272	ltpFR	10	n/a	n/a	n/a	n/a	n/a	n/a	n/a	n/a	n/a	n/a	n/a	n/a	n/a	n/a	n/a	n/a
853291	WORD	wordpools/wasnorm_wordpool_less_exclusions.txt	LTP272	ltpFR	10	5	1	COIN	343	n/a	n/a	0	n/a	0	0	0	0.422607421875	0.5869140625	0	lower	zerothre.ttf
856303	START	n/a	LTP272	ltpFR	10	n/a	n/a	n/a	n/a	n/a	n/a	n/a	n/a	n/a	n/a	n/a	n/a	n/a	n/a	n/a	n/a
857490	PROB	n/a	LTP272	ltpFR	10	n/a	n/a	n/a	n/a	n/a	n/a	n/a	12	3	8	1	n/a	n/a	n/a	n/a	n/a
858676	PROB	n/a	LTP272	ltpFR	10	n/a	n/a	n/a	n/a	n/a	n/a	n/a	14	5	8	1	n/a	n/a	n/a	n/a	n/a
859646	PROB	n/a	LTP272	ltpFR	10	n/a	n/a	n/a	n/a	n/a	n/a	n/a	15	7	5	3	n/a	n/a	n/a	n/a	n/a
861036	PROB	n/a	LTP272	ltpFR	10	n/a	n/a	n/a	n/a	n/a	n/a	n/a	17	6	6	5	n/a	n/a	n/a	n/a	n/a
862457	PROB	n/a	LTP272	ltpFR	10	n/a	n/a	n/a	n/a	n/a	n/a	n/a	15	1	9	5	n/a	n/a	n/a	n/a	n/a
863338	STOP	n/a	LTP272	ltpFR	10	n/a	n/a	n/a	n/a	n/a	n/a	n/a	n/a	n/a	n/a	n/a	n/a	n/a	n/a	n/a	n/a
865453	WORD	wordpools/wasnorm_wordpool_less_exclusions.txt	LTP272	ltpFR	10	5	1	CRAB	397	n/a	n/a	1	n/a	0	0	0	0.422607421875	0.5869140625	0	lower	zerothre.ttf
868480	START	n/a	LTP272	ltpFR	10	n/a	n/a	n/a	n/a	n/a	n/a	n/a	n/a	n/a	n/a	n/a	n/a	n/a	n/a	n/a	n/a
869652	PROB	n/a	LTP272	ltpFR	10	n/a	n/a	n/a	n/a	n/a	n/a	n/a	20	8	8	4	n/a	n/a	n/a	n/a	n/a
871023	PROB	n/a	LTP272	ltpFR	10	n/a	n/a	n/a	n/a	n/a	n/a	n/a	10	4	5	1	n/a	n/a	n/a	n/a	n/a
872079	PROB	n/a	LTP272	ltpFR	10	n/a	n/a	n/a	n/a	n/a	n/a	n/a	11	1	7	3	n/a	n/a	n/a	n/a	n/a
873048	PROB	n/a	LTP272	ltpFR	10	n/a	n/a	n/a	n/a	n/a	n/a	n/a	17	1	8	8	n/a	n/a	n/a	n/a	n/a
874202	PROB	n/a	LTP272	ltpFR	10	n/a	n/a	n/a	n/a	n/a	n/a	n/a	12	4	4	4	n/a	n/a	n/a	n/a	n/a
875171	STOP	n/a	LTP272	ltpFR	10	n/a	n/a	n/a	n/a	n/a	n/a	n/a	n/a	n/a	n/a	n/a	n/a	n/a	n/a	n/a	n/a
877448	WORD	wordpools/wasnorm_wordpool_less_exclusions.txt	LTP272	ltpFR	10	5	0	WAVE	1596	n/a	n/a	1	n/a	0	0	0	0.57763671875	0.412841796875	1	upper	amplitud.ttf
880460	START	n/a	LTP272	ltpFR	10	n/a	n/a	n/a	n/a	n/a	n/a	n/a	n/a	n/a	n/a	n/a	n/a	n/a	n/a	n/a	n/a
881297	PROB	n/a	LTP272	ltpFR	10	n/a	n/a	n/a	n/a	n/a	n/a	n/a	10	1	8	1	n/a	n/a	n/a	n/a	n/a
882465	PROB	n/a	LTP272	ltpFR	10	n/a	n/a	n/a	n/a	n/a	n/a	n/a	16	3	4	9	n/a	n/a	n/a	n/a	n/a
884491	PROB	n/a	LTP272	ltpFR	10	n/a	n/a	n/a	n/a	n/a	n/a	n/a	9	2	3	4	n/a	n/a	n/a	n/a	n/a
885831	PROB	n/a	LTP272	ltpFR	10	n/a	n/a	n/a	n/a	n/a	n/a	n/a	22	5	9	8	n/a	n/a	n/a	n/a	n/a
887091	STOP	n/a	LTP272	ltpFR	10	n/a	n/a	n/a	n/a	n/a	n/a	n/a	n/a	n/a	n/a	n/a	n/a	n/a	n/a	n/a	n/a
889527	WORD	wordpools/wasnorm_wordpool_less_exclusions.txt	LTP272	ltpFR	10	5	0	SHORE	1291	n/a	n/a	1	n/a	0	0	0	0.57763671875	0.412841796875	1	upper	amplitud.ttf
892539	START	n/a	LTP272	ltpFR	10	n/a	n/a	n/a	n/a	n/a	n/a	n/a	n/a	n/a	n/a	n/a	n/a	n/a	n/a	n/a	n/a
893559	PROB	n/a	LTP272	ltpFR	10	n/a	n/a	n/a	n/a	n/a	n/a	n/a	6	1	2	3	n/a	n/a	n/a	n/a	n/a
894630	PROB	n/a	LTP272	ltpFR	10	n/a	n/a	n/a	n/a	n/a	n/a	n/a	16	8	4	4	n/a	n/a	n/a	n/a	n/a
895984	PROB	n/a	LTP272	ltpFR	10	n/a	n/a	n/a	n/a	n/a	n/a	n/a	19	5	5	9	n/a	n/a	n/a	n/a	n/a
897658	PROB	n/a	LTP272	ltpFR	10	n/a	n/a	n/a	n/a	n/a	n/a	n/a	10	1	7	2	n/a	n/a	n/a	n/a	n/a
898963	STOP	n/a	LTP272	ltpFR	10	n/a	n/a	n/a	n/a	n/a	n/a	n/a	n/a	n/a	n/a	n/a	n/a	n/a	n/a	n/a	n/a
901755	WORD	wordpools/wasnorm_wordpool_less_exclusions.txt	LTP272	ltpFR	10	5	0	DORM	488	n/a	n/a	1	n/a	0	0	0	0.57763671875	0.412841796875	1	upper	amplitud.ttf
904769	START	n/a	LTP272	ltpFR	10	n/a	n/a	n/a	n/a	n/a	n/a	n/a	n/a	n/a	n/a	n/a	n/a	n/a	n/a	n/a	n/a
905671	PROB	n/a	LTP272	ltpFR	10	n/a	n/a	n/a	n/a	n/a	n/a	n/a	12	2	6	4	n/a	n/a	n/a	n/a	n/a
906810	PROB	n/a	LTP272	ltpFR	10	n/a	n/a	n/a	n/a	n/a	n/a	n/a	16	9	1	6	n/a	n/a	n/a	n/a	n/a
907981	PROB	n/a	LTP272	ltpFR	10	n/a	n/a	n/a	n/a	n/a	n/a	n/a	13	3	6	4	n/a	n/a	n/a	n/a	n/a
909419	PROB	n/a	LTP272	ltpFR	10	n/a	n/a	n/a	n/a	n/a	n/a	n/a	9	7	1	1	n/a	n/a	n/a	n/a	n/a
910439	PROB	n/a	LTP272	ltpFR	10	n/a	n/a	n/a	n/a	n/a	n/a	n/a	14	2	3	9	n/a	n/a	n/a	n/a	n/a
911923	STOP	n/a	LTP272	ltpFR	10	n/a	n/a	n/a	n/a	n/a	n/a	n/a	n/a	n/a	n/a	n/a	n/a	n/a	n/a	n/a	n/a
913701	WORD	wordpools/wasnorm_wordpool_less_exclusions.txt	LTP272	ltpFR	10	5	0	SUPERMARKET	1409	n/a	n/a	1	n/a	0	0	0	0.57763671875	0.412841796875	1	upper	amplitud.ttf
916714	START	n/a	LTP272	ltpFR	10	n/a	n/a	n/a	n/a	n/a	n/a	n/a	n/a	n/a	n/a	n/a	n/a	n/a	n/a	n/a	n/a
917801	PROB	n/a	LTP272	ltpFR	10	n/a	n/a	n/a	n/a	n/a	n/a	n/a	18	1	8	9	n/a	n/a	n/a	n/a	n/a
919054	PROB	n/a	LTP272	ltpFR	10	n/a	n/a	n/a	n/a	n/a	n/a	n/a	13	1	3	9	n/a	n/a	n/a	n/a	n/a
920745	PROB	n/a	LTP272	ltpFR	10	n/a	n/a	n/a	n/a	n/a	n/a	n/a	14	8	1	5	n/a	n/a	n/a	n/a	n/a
922101	PROB	n/a	LTP272	ltpFR	10	n/a	n/a	n/a	n/a	n/a	n/a	n/a	8	1	4	3	n/a	n/a	n/a	n/a	n/a
923136	PROB	n/a	LTP272	ltpFR	10	n/a	n/a	n/a	n/a	n/a	n/a	n/a	15	6	8	1	n/a	n/a	n/a	n/a	n/a
924369	STOP	n/a	LTP272	ltpFR	10	n/a	n/a	n/a	n/a	n/a	n/a	n/a	n/a	n/a	n/a	n/a	n/a	n/a	n/a	n/a	n/a
925747	WORD	wordpools/wasnorm_wordpool_less_exclusions.txt	LTP272	ltpFR	10	5	0	CHAMBER	277	n/a	n/a	1	n/a	0	0	0	0.57763671875	0.412841796875	1	upper	amplitud.ttf
928759	START	n/a	LTP272	ltpFR	10	n/a	n/a	n/a	n/a	n/a	n/a	n/a	n/a	n/a	n/a	n/a	n/a	n/a	n/a	n/a	n/a
929762	PROB	n/a	LTP272	ltpFR	10	n/a	n/a	n/a	n/a	n/a	n/a	n/a	12	1	8	3	n/a	n/a	n/a	n/a	n/a
930817	PROB	n/a	LTP272	ltpFR	10	n/a	n/a	n/a	n/a	n/a	n/a	n/a	18	6	7	5	n/a	n/a	n/a	n/a	n/a
932472	PROB	n/a	LTP272	ltpFR	10	n/a	n/a	n/a	n/a	n/a	n/a	n/a	17	5	9	3	n/a	n/a	n/a	n/a	n/a
933828	PROB	n/a	LTP272	ltpFR	10	n/a	n/a	n/a	n/a	n/a	n/a	n/a	23	5	9	9	n/a	n/a	n/a	n/a	n/a
935235	STOP	n/a	LTP272	ltpFR	10	n/a	n/a	n/a	n/a	n/a	n/a	n/a	n/a	n/a	n/a	n/a	n/a	n/a	n/a	n/a	n/a
937843	WORD	wordpools/wasnorm_wordpool_less_exclusions.txt	LTP272	ltpFR	10	5	0	CROW	414	n/a	n/a	0	n/a	0	0	0	0.57763671875	0.412841796875	1	upper	amplitud.ttf
940856	START	n/a	LTP272	ltpFR	10	n/a	n/a	n/a	n/a	n/a	n/a	n/a	n/a	n/a	n/a	n/a	n/a	n/a	n/a	n/a	n/a
941909	PROB	n/a	LTP272	ltpFR	10	n/a	n/a	n/a	n/a	n/a	n/a	n/a	17	5	7	3	n/a	n/a	n/a	n/a	n/a
943281	PROB	n/a	LTP272	ltpFR	10	n/a	n/a	n/a	n/a	n/a	n/a	n/a	10	2	7	1	n/a	n/a	n/a	n/a	n/a
944568	PROB	n/a	LTP272	ltpFR	10	n/a	n/a	n/a	n/a	n/a	n/a	n/a	22	8	7	7	n/a	n/a	n/a	n/a	n/a
945857	PROB	n/a	LTP272	ltpFR	10	n/a	n/a	n/a	n/a	n/a	n/a	n/a	13	8	3	2	n/a	n/a	n/a	n/a	n/a
947177	PROB	n/a	LTP272	ltpFR	10	n/a	n/a	n/a	n/a	n/a	n/a	n/a	1	7	5	8	n/a	n/a	n/a	n/a	n/a
948179	STOP	n/a	LTP272	ltpFR	10	n/a	n/a	n/a	n/a	n/a	n/a	n/a	n/a	n/a	n/a	n/a	n/a	n/a	n/a	n/a	n/a
949872	WORD	wordpools/wasnorm_wordpool_less_exclusions.txt	LTP272	ltpFR	10	5	1	SPY	1360	n/a	n/a	1	n/a	0	0	0	0.422607421875	0.5869140625	0	lower	zerothre.ttf
952885	START	n/a	LTP272	ltpFR	10	n/a	n/a	n/a	n/a	n/a	n/a	n/a	n/a	n/a	n/a	n/a	n/a	n/a	n/a	n/a	n/a
953988	PROB	n/a	LTP272	ltpFR	10	n/a	n/a	n/a	n/a	n/a	n/a	n/a	21	5	9	7	n/a	n/a	n/a	n/a	n/a
955274	PROB	n/a	LTP272	ltpFR	10	n/a	n/a	n/a	n/a	n/a	n/a	n/a	16	3	5	8	n/a	n/a	n/a	n/a	n/a
956729	PROB	n/a	LTP272	ltpFR	10	n/a	n/a	n/a	n/a	n/a	n/a	n/a	19	5	5	9	n/a	n/a	n/a	n/a	n/a
957819	PROB	n/a	LTP272	ltpFR	10	n/a	n/a	n/a	n/a	n/a	n/a	n/a	16	6	3	7	n/a	n/a	n/a	n/a	n/a
959241	PROB	n/a	LTP272	ltpFR	10	n/a	n/a	n/a	n/a	n/a	n/a	n/a	10	2	1	7	n/a	n/a	n/a	n/a	n/a
960195	STOP	n/a	LTP272	ltpFR	10	n/a	n/a	n/a	n/a	n/a	n/a	n/a	n/a	n/a	n/a	n/a	n/a	n/a	n/a	n/a	n/a
962018	WORD	wordpools/wasnorm_wordpool_less_exclusions.txt	LTP272	ltpFR	10	5	1	VITAMIN	1574	n/a	n/a	0	n/a	0	0	0	0.422607421875	0.5869140625	0	lower	zerothre.ttf
965030	START	n/a	LTP272	ltpFR	10	n/a	n/a	n/a	n/a	n/a	n/a	n/a	n/a	n/a	n/a	n/a	n/a	n/a	n/a	n/a	n/a
965933	PROB	n/a	LTP272	ltpFR	10	n/a	n/a	n/a	n/a	n/a	n/a	n/a	7	1	5	1	n/a	n/a	n/a	n/a	n/a
967035	PROB	n/a	LTP272	ltpFR	10	n/a	n/a	n/a	n/a	n/a	n/a	n/a	20	6	6	8	n/a	n/a	n/a	n/a	n/a
969178	PROB	n/a	LTP272	ltpFR	10	n/a	n/a	n/a	n/a	n/a	n/a	n/a	16	7	2	7	n/a	n/a	n/a	n/a	n/a
970564	PROB	n/a	LTP272	ltpFR	10	n/a	n/a	n/a	n/a	n/a	n/a	n/a	19	8	3	8	n/a	n/a	n/a	n/a	n/a
972346	STOP	n/a	LTP272	ltpFR	10	n/a	n/a	n/a	n/a	n/a	n/a	n/a	n/a	n/a	n/a	n/a	n/a	n/a	n/a	n/a	n/a
973963	WORD	wordpools/wasnorm_wordpool_less_exclusions.txt	LTP272	ltpFR	10	5	1	COOKIE	374	n/a	n/a	0	n/a	0	0	0	0.422607421875	0.5869140625	0	lower	zerothre.ttf
976975	START	n/a	LTP272	ltpFR	10	n/a	n/a	n/a	n/a	n/a	n/a	n/a	n/a	n/a	n/a	n/a	n/a	n/a	n/a	n/a	n/a
977995	PROB	n/a	LTP272	ltpFR	10	n/a	n/a	n/a	n/a	n/a	n/a	n/a	20	6	6	8	n/a	n/a	n/a	n/a	n/a
979397	PROB	n/a	LTP272	ltpFR	10	n/a	n/a	n/a	n/a	n/a	n/a	n/a	14	7	1	6	n/a	n/a	n/a	n/a	n/a
980520	PROB	n/a	LTP272	ltpFR	10	n/a	n/a	n/a	n/a	n/a	n/a	n/a	18	8	9	1	n/a	n/a	n/a	n/a	n/a
982127	PROB	n/a	LTP272	ltpFR	10	n/a	n/a	n/a	n/a	n/a	n/a	n/a	21	8	9	4	n/a	n/a	n/a	n/a	n/a
983899	STOP	n/a	LTP272	ltpFR	10	n/a	n/a	n/a	n/a	n/a	n/a	n/a	n/a	n/a	n/a	n/a	n/a	n/a	n/a	n/a	n/a
986176	WORD	wordpools/wasnorm_wordpool_less_exclusions.txt	LTP272	ltpFR	10	5	1	UMPIRE	1535	n/a	n/a	1	n/a	0	0	0	0.422607421875	0.5869140625	0	lower	zerothre.ttf
989188	START	n/a	LTP272	ltpFR	10	n/a	n/a	n/a	n/a	n/a	n/a	n/a	n/a	n/a	n/a	n/a	n/a	n/a	n/a	n/a	n/a
990107	PROB	n/a	LTP272	ltpFR	10	n/a	n/a	n/a	n/a	n/a	n/a	n/a	18	4	5	9	n/a	n/a	n/a	n/a	n/a
991679	PROB	n/a	LTP272	ltpFR	10	n/a	n/a	n/a	n/a	n/a	n/a	n/a	21	9	6	6	n/a	n/a	n/a	n/a	n/a
993135	PROB	n/a	LTP272	ltpFR	10	n/a	n/a	n/a	n/a	n/a	n/a	n/a	8	3	5	1	n/a	n/a	n/a	n/a	n/a
994189	PROB	n/a	LTP272	ltpFR	10	n/a	n/a	n/a	n/a	n/a	n/a	n/a	25	9	7	9	n/a	n/a	n/a	n/a	n/a
995915	STOP	n/a	LTP272	ltpFR	10	n/a	n/a	n/a	n/a	n/a	n/a	n/a	n/a	n/a	n/a	n/a	n/a	n/a	n/a	n/a	n/a
998320	WORD	wordpools/wasnorm_wordpool_less_exclusions.txt	LTP272	ltpFR	10	5	1	CATCHER	258	n/a	n/a	1	n/a	0	0	0	0.422607421875	0.5869140625	0	lower	zerothre.ttf
1001332	START	n/a	LTP272	ltpFR	10	n/a	n/a	n/a	n/a	n/a	n/a	n/a	n/a	n/a	n/a	n/a	n/a	n/a	n/a	n/a	n/a
1002336	PROB	n/a	LTP272	ltpFR	10	n/a	n/a	n/a	n/a	n/a	n/a	n/a	21	3	9	9	n/a	n/a	n/a	n/a	n/a
1004227	PROB	n/a	LTP272	ltpFR	10	n/a	n/a	n/a	n/a	n/a	n/a	n/a	12	1	4	7	n/a	n/a	n/a	n/a	n/a
1005397	PROB	n/a	LTP272	ltpFR	10	n/a	n/a	n/a	n/a	n/a	n/a	n/a	24	9	6	9	n/a	n/a	n/a	n/a	n/a
1007138	PROB	n/a	LTP272	ltpFR	10	n/a	n/a	n/a	n/a	n/a	n/a	n/a	12	7	4	1	n/a	n/a	n/a	n/a	n/a
1008179	STOP	n/a	LTP272	ltpFR	10	n/a	n/a	n/a	n/a	n/a	n/a	n/a	n/a	n/a	n/a	n/a	n/a	n/a	n/a	n/a	n/a
1010383	WORD	wordpools/wasnorm_wordpool_less_exclusions.txt	LTP272	ltpFR	10	5	0	BEAD	103	n/a	n/a	0	n/a	0	0	0	0.57763671875	0.412841796875	1	upper	amplitud.ttf
1013395	START	n/a	LTP272	ltpFR	10	n/a	n/a	n/a	n/a	n/a	n/a	n/a	n/a	n/a	n/a	n/a	n/a	n/a	n/a	n/a	n/a
1014265	PROB	n/a	LTP272	ltpFR	10	n/a	n/a	n/a	n/a	n/a	n/a	n/a	21	4	8	9	n/a	n/a	n/a	n/a	n/a
1015686	PROB	n/a	LTP272	ltpFR	10	n/a	n/a	n/a	n/a	n/a	n/a	n/a	15	2	7	6	n/a	n/a	n/a	n/a	n/a
1017025	PROB	n/a	LTP272	ltpFR	10	n/a	n/a	n/a	n/a	n/a	n/a	n/a	17	9	4	4	n/a	n/a	n/a	n/a	n/a
1019150	PROB	n/a	LTP272	ltpFR	10	n/a	n/a	n/a	n/a	n/a	n/a	n/a	14	2	9	3	n/a	n/a	n/a	n/a	n/a
1020227	STOP	n/a	LTP272	ltpFR	10	n/a	n/a	n/a	n/a	n/a	n/a	n/a	n/a	n/a	n/a	n/a	n/a	n/a	n/a	n/a	n/a
1022428	WORD	wordpools/wasnorm_wordpool_less_exclusions.txt	LTP272	ltpFR	10	5	0	ROOM	1206	n/a	n/a	1	n/a	0	0	0	0.57763671875	0.412841796875	1	upper	amplitud.ttf
1025440	START	n/a	LTP272	ltpFR	10	n/a	n/a	n/a	n/a	n/a	n/a	n/a	n/a	n/a	n/a	n/a	n/a	n/a	n/a	n/a	n/a
1026644	PROB	n/a	LTP272	ltpFR	10	n/a	n/a	n/a	n/a	n/a	n/a	n/a	20	5	8	7	n/a	n/a	n/a	n/a	n/a
1027948	PROB	n/a	LTP272	ltpFR	10	n/a	n/a	n/a	n/a	n/a	n/a	n/a	20	7	8	5	n/a	n/a	n/a	n/a	n/a
1029354	PROB	n/a	LTP272	ltpFR	10	n/a	n/a	n/a	n/a	n/a	n/a	n/a	1	9	5	6	n/a	n/a	n/a	n/a	n/a
1031377	PROB	n/a	LTP272	ltpFR	10	n/a	n/a	n/a	n/a	n/a	n/a	n/a	18	6	4	8	n/a	n/a	n/a	n/a	n/a
1032762	STOP	n/a	LTP272	ltpFR	10	n/a	n/a	n/a	n/a	n/a	n/a	n/a	n/a	n/a	n/a	n/a	n/a	n/a	n/a	n/a	n/a
1035195	REC_START	n/a	LTP272	ltpFR	10	5	n/a	n/a	n/a	n/a	n/a	n/a	n/a	0	0	0	n/a	n/a	n/a	n/a	n/a
1036414	REC_WORD	wordpools/wasnorm_wordpool_less_exclusions.txt	LTP272	ltpFR	10	5	0	ROOM	1206	n/a	n/a	1	n/a	0	0	0	n/a	n/a	n/a	n/a	n/a
1037522	REC_WORD	wordpools/wasnorm_wordpool_less_exclusions.txt	LTP272	ltpFR	10	5	0	CHAMBER	277	n/a	n/a	1	n/a	0	0	0	n/a	n/a	n/a	n/a	n/a
1038724	REC_WORD	wordpools/wasnorm_wordpool_less_exclusions.txt	LTP272	ltpFR	10	5	0	DORM	488	n/a	n/a	1	n/a	0	0	0	n/a	n/a	n/a	n/a	n/a
1039682	REC_WORD	wordpools/wasnorm_wordpool_less_exclusions.txt	LTP272	ltpFR	10	5	0	SUPERMARKET	1409	n/a	n/a	1	n/a	0	0	0	n/a	n/a	n/a	n/a	n/a
1040946	REC_WORD	wordpools/wasnorm_wordpool_less_exclusions.txt	LTP272	ltpFR	10	5	0	SHORE	1291	n/a	n/a	1	n/a	0	0	0	n/a	n/a	n/a	n/a	n/a
1042111	REC_WORD	wordpools/wasnorm_wordpool_less_exclusions.txt	LTP272	ltpFR	10	5	0	WAVE	1596	n/a	n/a	1	n/a	0	0	0	n/a	n/a	n/a	n/a	n/a
1043265	REC_WORD	wordpools/wasnorm_wordpool_less_exclusions.txt	LTP272	ltpFR	10	5	1	CRAB	397	n/a	n/a	1	n/a	0	0	0	n/a	n/a	n/a	n/a	n/a
1044489	REC_WORD	wordpools/wasnorm_wordpool_less_exclusions.txt	LTP272	ltpFR	10	5	1	EMERALD	528	n/a	n/a	0	n/a	0	0	0	n/a	n/a	n/a	n/a	n/a
1045551	REC_WORD	wordpools/wasnorm_wordpool_less_exclusions.txt	LTP272	ltpFR	10	5	1	COIN	343	n/a	n/a	0	n/a	0	0	0	n/a	n/a	n/a	n/a	n/a
1046810	REC_WORD	wordpools/wasnorm_wordpool_less_exclusions.txt	LTP272	ltpFR	10	5	0	CROW	414	n/a	n/a	0	n/a	0	0	0	n/a	n/a	n/a	n/a	n/a
1049887	REC_WORD	wordpools/wasnorm_wordpool_less_exclusions.txt	LTP272	ltpFR	10	5	1	UMPIRE	1535	n/a	n/a	1	n/a	0	0	0	n/a	n/a	n/a	n/a	n/a
1050867	REC_WORD	wordpools/wasnorm_wordpool_less_exclusions.txt	LTP272	ltpFR	10	5	1	CATCHER	258	n/a	n/a	1	n/a	0	0	0	n/a	n/a	n/a	n/a	n/a
1051979	REC_WORD	wordpools/wasnorm_wordpool_less_exclusions.txt	LTP272	ltpFR	10	5	1	COOKIE	374	n/a	n/a	0	n/a	0	0	0	n/a	n/a	n/a	n/a	n/a
1057081	REC_WORD	wordpools/wasnorm_wordpool_less_exclusions.txt	LTP272	ltpFR	10	5	0	BEAD	103	n/a	n/a	0	n/a	0	0	0	n/a	n/a	n/a	n/a	n/a
1112501	START	n/a	LTP272	ltpFR	10	n/a	n/a	n/a	n/a	n/a	n/a	n/a	n/a	n/a	n/a	n/a	n/a	n/a	n/a	n/a	n/a
1114007	PROB	n/a	LTP272	ltpFR	10	n/a	n/a	n/a	n/a	n/a	n/a	n/a	13	8	2	3	n/a	n/a	n/a	n/a	n/a
1115279	PROB	n/a	LTP272	ltpFR	10	n/a	n/a	n/a	n/a	n/a	n/a	n/a	13	2	7	4	n/a	n/a	n/a	n/a	n/a
1116564	PROB	n/a	LTP272	ltpFR	10	n/a	n/a	n/a	n/a	n/a	n/a	n/a	10	1	2	7	n/a	n/a	n/a	n/a	n/a
1117670	PROB	n/a	LTP272	ltpFR	10	n/a	n/a	n/a	n/a	n/a	n/a	n/a	17	5	8	4	n/a	n/a	n/a	n/a	n/a
1118892	PROB	n/a	LTP272	ltpFR	10	n/a	n/a	n/a	n/a	n/a	n/a	n/a	7	5	1	1	n/a	n/a	n/a	n/a	n/a
1119878	PROB	n/a	LTP272	ltpFR	10	n/a	n/a	n/a	n/a	n/a	n/a	n/a	14	5	3	6	n/a	n/a	n/a	n/a	n/a
1121736	PROB	n/a	LTP272	ltpFR	10	n/a	n/a	n/a	n/a	n/a	n/a	n/a	13	5	3	5	n/a	n/a	n/a	n/a	n/a
1123509	PROB	n/a	LTP272	ltpFR	10	n/a	n/a	n/a	n/a	n/a	n/a	n/a	22	8	8	6	n/a	n/a	n/a	n/a	n/a
1124762	PROB	n/a	LTP272	ltpFR	10	n/a	n/a	n/a	n/a	n/a	n/a	n/a	11	7	1	3	n/a	n/a	n/a	n/a	n/a
1125667	PROB	n/a	LTP272	ltpFR	10	n/a	n/a	n/a	n/a	n/a	n/a	n/a	15	4	2	9	n/a	n/a	n/a	n/a	n/a
1127011	STOP	n/a	LTP272	ltpFR	10	n/a	n/a	n/a	n/a	n/a	n/a	n/a	n/a	n/a	n/a	n/a	n/a	n/a	n/a	n/a	n/a
1129480	WORD	wordpools/wasnorm_wordpool_less_exclusions.txt	LTP272	ltpFR	10	6	0	SALMON	1227	n/a	n/a	0	n/a	0	0	0	0.57763671875	0.412841796875	1	upper	amplitud.ttf
1132493	START	n/a	LTP272	ltpFR	10	n/a	n/a	n/a	n/a	n/a	n/a	n/a	n/a	n/a	n/a	n/a	n/a	n/a	n/a	n/a	n/a
1133480	PROB	n/a	LTP272	ltpFR	10	n/a	n/a	n/a	n/a	n/a	n/a	n/a	16	9	5	2	n/a	n/a	n/a	n/a	n/a
1134684	PROB	n/a	LTP272	ltpFR	10	n/a	n/a	n/a	n/a	n/a	n/a	n/a	19	8	8	3	n/a	n/a	n/a	n/a	n/a
1135890	PROB	n/a	LTP272	ltpFR	10	n/a	n/a	n/a	n/a	n/a	n/a	n/a	20	9	8	3	n/a	n/a	n/a	n/a	n/a
1137278	PROB	n/a	LTP272	ltpFR	10	n/a	n/a	n/a	n/a	n/a	n/a	n/a	11	1	2	8	n/a	n/a	n/a	n/a	n/a
1138415	PROB	n/a	LTP272	ltpFR	10	n/a	n/a	n/a	n/a	n/a	n/a	n/a	11	5	1	5	n/a	n/a	n/a	n/a	n/a
1139400	PROB	n/a	LTP272	ltpFR	10	n/a	n/a	n/a	n/a	n/a	n/a	n/a	15	6	8	1	n/a	n/a	n/a	n/a	n/a
1140339	PROB	n/a	LTP272	ltpFR	10	n/a	n/a	n/a	n/a	n/a	n/a	n/a	14	5	8	1	n/a	n/a	n/a	n/a	n/a
1141659	PROB	n/a	LTP272	ltpFR	10	n/a	n/a	n/a	n/a	n/a	n/a	n/a	15	4	7	4	n/a	n/a	n/a	n/a	n/a
1143116	PROB	n/a	LTP272	ltpFR	10	n/a	n/a	n/a	n/a	n/a	n/a	n/a	9	4	3	2	n/a	n/a	n/a	n/a	n/a
1144271	PROB	n/a	LTP272	ltpFR	10	n/a	n/a	n/a	n/a	n/a	n/a	n/a	15	6	8	1	n/a	n/a	n/a	n/a	n/a
1145208	PROB	n/a	LTP272	ltpFR	10	n/a	n/a	n/a	n/a	n/a	n/a	n/a	19	7	3	9	n/a	n/a	n/a	n/a	n/a
1146244	PROB	n/a	LTP272	ltpFR	10	n/a	n/a	n/a	n/a	n/a	n/a	n/a	8	1	4	3	n/a	n/a	n/a	n/a	n/a
1147274	STOP	n/a	LTP272	ltpFR	10	n/a	n/a	n/a	n/a	n/a	n/a	n/a	n/a	n/a	n/a	n/a	n/a	n/a	n/a	n/a	n/a
1149407	WORD	wordpools/wasnorm_wordpool_less_exclusions.txt	LTP272	ltpFR	10	6	0	RECORD	1176	n/a	n/a	0	n/a	0	0	0	0.57763671875	0.412841796875	1	upper	amplitud.ttf
1152418	START	n/a	LTP272	ltpFR	10	n/a	n/a	n/a	n/a	n/a	n/a	n/a	n/a	n/a	n/a	n/a	n/a	n/a	n/a	n/a	n/a
1153289	PROB	n/a	LTP272	ltpFR	10	n/a	n/a	n/a	n/a	n/a	n/a	n/a	13	4	4	5	n/a	n/a	n/a	n/a	n/a
1155194	PROB	n/a	LTP272	ltpFR	10	n/a	n/a	n/a	n/a	n/a	n/a	n/a	12	1	5	6	n/a	n/a	n/a	n/a	n/a
1156233	PROB	n/a	LTP272	ltpFR	10	n/a	n/a	n/a	n/a	n/a	n/a	n/a	11	2	5	4	n/a	n/a	n/a	n/a	n/a
1157353	PROB	n/a	LTP272	ltpFR	10	n/a	n/a	n/a	n/a	n/a	n/a	n/a	11	1	6	4	n/a	n/a	n/a	n/a	n/a
1158489	PROB	n/a	LTP272	ltpFR	10	n/a	n/a	n/a	n/a	n/a	n/a	n/a	11	4	4	3	n/a	n/a	n/a	n/a	n/a
1159593	PROB	n/a	LTP272	ltpFR	10	n/a	n/a	n/a	n/a	n/a	n/a	n/a	23	9	7	7	n/a	n/a	n/a	n/a	n/a
1161484	PROB	n/a	LTP272	ltpFR	10	n/a	n/a	n/a	n/a	n/a	n/a	n/a	7	4	2	1	n/a	n/a	n/a	n/a	n/a
1162825	PROB	n/a	LTP272	ltpFR	10	n/a	n/a	n/a	n/a	n/a	n/a	n/a	13	1	4	8	n/a	n/a	n/a	n/a	n/a
1164096	PROB	n/a	LTP272	ltpFR	10	n/a	n/a	n/a	n/a	n/a	n/a	n/a	5	1	1	3	n/a	n/a	n/a	n/a	n/a
1165083	PROB	n/a	LTP272	ltpFR	10	n/a	n/a	n/a	n/a	n/a	n/a	n/a	16	5	9	2	n/a	n/a	n/a	n/a	n/a
1166737	PROB	n/a	LTP272	ltpFR	10	n/a	n/a	n/a	n/a	n/a	n/a	n/a	12	3	1	8	n/a	n/a	n/a	n/a	n/a
1167859	STOP	n/a	LTP272	ltpFR	10	n/a	n/a	n/a	n/a	n/a	n/a	n/a	n/a	n/a	n/a	n/a	n/a	n/a	n/a	n/a	n/a
1169449	WORD	wordpools/wasnorm_wordpool_less_exclusions.txt	LTP272	ltpFR	10	6	0	BLENDER	136	n/a	n/a	1	n/a	0	0	0	0.57763671875	0.412841796875	1	upper	amplitud.ttf
1172461	START	n/a	LTP272	ltpFR	10	n/a	n/a	n/a	n/a	n/a	n/a	n/a	n/a	n/a	n/a	n/a	n/a	n/a	n/a	n/a	n/a
1173497	PROB	n/a	LTP272	ltpFR	10	n/a	n/a	n/a	n/a	n/a	n/a	n/a	1	7	9	6	n/a	n/a	n/a	n/a	n/a
1174937	PROB	n/a	LTP272	ltpFR	10	n/a	n/a	n/a	n/a	n/a	n/a	n/a	9	5	3	1	n/a	n/a	n/a	n/a	n/a
1175924	PROB	n/a	LTP272	ltpFR	10	n/a	n/a	n/a	n/a	n/a	n/a	n/a	10	6	2	2	n/a	n/a	n/a	n/a	n/a
1177528	PROB	n/a	LTP272	ltpFR	10	n/a	n/a	n/a	n/a	n/a	n/a	n/a	15	8	4	3	n/a	n/a	n/a	n/a	n/a
1179203	PROB	n/a	LTP272	ltpFR	10	n/a	n/a	n/a	n/a	n/a	n/a	n/a	18	7	9	2	n/a	n/a	n/a	n/a	n/a
1180741	PROB	n/a	LTP272	ltpFR	10	n/a	n/a	n/a	n/a	n/a	n/a	n/a	9	3	3	3	n/a	n/a	n/a	n/a	n/a
1181813	PROB	n/a	LTP272	ltpFR	10	n/a	n/a	n/a	n/a	n/a	n/a	n/a	12	3	8	1	n/a	n/a	n/a	n/a	n/a
1182832	PROB	n/a	LTP272	ltpFR	10	n/a	n/a	n/a	n/a	n/a	n/a	n/a	19	7	5	7	n/a	n/a	n/a	n/a	n/a
1184170	PROB	n/a	LTP272	ltpFR	10	n/a	n/a	n/a	n/a	n/a	n/a	n/a	11	1	3	7	n/a	n/a	n/a	n/a	n/a
1185207	PROB	n/a	LTP272	ltpFR	10	n/a	n/a	n/a	n/a	n/a	n/a	n/a	13	2	6	5	n/a	n/a	n/a	n/a	n/a
1186379	PROB	n/a	LTP272	ltpFR	10	n/a	n/a	n/a	n/a	n/a	n/a	n/a	13	8	3	2	n/a	n/a	n/a	n/a	n/a
1187819	STOP	n/a	LTP272	ltpFR	10	n/a	n/a	n/a	n/a	n/a	n/a	n/a	n/a	n/a	n/a	n/a	n/a	n/a	n/a	n/a	n/a
1189424	WORD	wordpools/wasnorm_wordpool_less_exclusions.txt	LTP272	ltpFR	10	6	0	CITY	314	n/a	n/a	1	n/a	0	0	0	0.57763671875	0.412841796875	1	upper	amplitud.ttf
1192436	START	n/a	LTP272	ltpFR	10	n/a	n/a	n/a	n/a	n/a	n/a	n/a	n/a	n/a	n/a	n/a	n/a	n/a	n/a	n/a	n/a
1193288	PROB	n/a	LTP272	ltpFR	10	n/a	n/a	n/a	n/a	n/a	n/a	n/a	11	6	1	4	n/a	n/a	n/a	n/a	n/a
1194310	PROB	n/a	LTP272	ltpFR	10	n/a	n/a	n/a	n/a	n/a	n/a	n/a	10	3	6	1	n/a	n/a	n/a	n/a	n/a
1195562	PROB	n/a	LTP272	ltpFR	10	n/a	n/a	n/a	n/a	n/a	n/a	n/a	18	9	3	5	n/a	n/a	n/a	n/a	n/a
1197772	PROB	n/a	LTP272	ltpFR	10	n/a	n/a	n/a	n/a	n/a	n/a	n/a	11	3	5	4	n/a	n/a	n/a	n/a	n/a
1198978	PROB	n/a	LTP272	ltpFR	10	n/a	n/a	n/a	n/a	n/a	n/a	n/a	15	5	1	9	n/a	n/a	n/a	n/a	n/a
1200264	PROB	n/a	LTP272	ltpFR	10	n/a	n/a	n/a	n/a	n/a	n/a	n/a	14	3	7	4	n/a	n/a	n/a	n/a	n/a
1201485	PROB	n/a	LTP272	ltpFR	10	n/a	n/a	n/a	n/a	n/a	n/a	n/a	16	8	5	3	n/a	n/a	n/a	n/a	n/a
1202758	PROB	n/a	LTP272	ltpFR	10	n/a	n/a	n/a	n/a	n/a	n/a	n/a	17	6	6	5	n/a	n/a	n/a	n/a	n/a
1204164	PROB	n/a	LTP272	ltpFR	10	n/a	n/a	n/a	n/a	n/a	n/a	n/a	9	4	2	3	n/a	n/a	n/a	n/a	n/a
1205769	PROB	n/a	LTP272	ltpFR	10	n/a	n/a	n/a	n/a	n/a	n/a	n/a	13	1	8	4	n/a	n/a	n/a	n/a	n/a
1206883	STOP	n/a	LTP272	ltpFR	10	n/a	n/a	n/a	n/a	n/a	n/a	n/a	n/a	n/a	n/a	n/a	n/a	n/a	n/a	n/a	n/a
1209617	WORD	wordpools/wasnorm_wordpool_less_exclusions.txt	LTP272	ltpFR	10	6	0	COPIER	377	n/a	n/a	1	n/a	0	0	0	0.57763671875	0.412841796875	1	upper	amplitud.ttf
1212629	START	n/a	LTP272	ltpFR	10	n/a	n/a	n/a	n/a	n/a	n/a	n/a	n/a	n/a	n/a	n/a	n/a	n/a	n/a	n/a	n/a
1213747	PROB	n/a	LTP272	ltpFR	10	n/a	n/a	n/a	n/a	n/a	n/a	n/a	23	7	8	8	n/a	n/a	n/a	n/a	n/a
1215973	PROB	n/a	LTP272	ltpFR	10	n/a	n/a	n/a	n/a	n/a	n/a	n/a	15	1	6	8	n/a	n/a	n/a	n/a	n/a
1217329	PROB	n/a	LTP272	ltpFR	10	n/a	n/a	n/a	n/a	n/a	n/a	n/a	17	3	9	5	n/a	n/a	n/a	n/a	n/a
1218668	PROB	n/a	LTP272	ltpFR	10	n/a	n/a	n/a	n/a	n/a	n/a	n/a	15	9	3	3	n/a	n/a	n/a	n/a	n/a
1220189	PROB	n/a	LTP272	ltpFR	10	n/a	n/a	n/a	n/a	n/a	n/a	n/a	19	7	3	9	n/a	n/a	n/a	n/a	n/a
1221495	PROB	n/a	LTP272	ltpFR	10	n/a	n/a	n/a	n/a	n/a	n/a	n/a	11	6	1	4	n/a	n/a	n/a	n/a	n/a
1222581	PROB	n/a	LTP272	ltpFR	10	n/a	n/a	n/a	n/a	n/a	n/a	n/a	9	5	3	1	n/a	n/a	n/a	n/a	n/a
1223569	PROB	n/a	LTP272	ltpFR	10	n/a	n/a	n/a	n/a	n/a	n/a	n/a	21	8	6	7	n/a	n/a	n/a	n/a	n/a
1225243	PROB	n/a	LTP272	ltpFR	10	n/a	n/a	n/a	n/a	n/a	n/a	n/a	13	4	6	3	n/a	n/a	n/a	n/a	n/a
1226681	PROB	n/a	LTP272	ltpFR	10	n/a	n/a	n/a	n/a	n/a	n/a	n/a	7	1	2	4	n/a	n/a	n/a	n/a	n/a
1227618	STOP	n/a	LTP272	ltpFR	10	n/a	n/a	n/a	n/a	n/a	n/a	n/a	n/a	n/a	n/a	n/a	n/a	n/a	n/a	n/a	n/a
1229609	WORD	wordpools/wasnorm_wordpool_less_exclusions.txt	LTP272	ltpFR	10	6	0	LABYRINTH	791	n/a	n/a	1	n/a	0	0	0	0.57763671875	0.412841796875	1	upper	amplitud.ttf
1232621	START	n/a	LTP272	ltpFR	10	n/a	n/a	n/a	n/a	n/a	n/a	n/a	n/a	n/a	n/a	n/a	n/a	n/a	n/a	n/a	n/a
1233809	PROB	n/a	LTP272	ltpFR	10	n/a	n/a	n/a	n/a	n/a	n/a	n/a	22	7	7	8	n/a	n/a	n/a	n/a	n/a
1236032	PROB	n/a	LTP272	ltpFR	10	n/a	n/a	n/a	n/a	n/a	n/a	n/a	10	2	5	3	n/a	n/a	n/a	n/a	n/a
1237422	PROB	n/a	LTP272	ltpFR	10	n/a	n/a	n/a	n/a	n/a	n/a	n/a	20	8	5	7	n/a	n/a	n/a	n/a	n/a
1239361	PROB	n/a	LTP272	ltpFR	10	n/a	n/a	n/a	n/a	n/a	n/a	n/a	13	3	7	3	n/a	n/a	n/a	n/a	n/a
1240667	PROB	n/a	LTP272	ltpFR	10	n/a	n/a	n/a	n/a	n/a	n/a	n/a	19	2	9	8	n/a	n/a	n/a	n/a	n/a
1241838	PROB	n/a	LTP272	ltpFR	10	n/a	n/a	n/a	n/a	n/a	n/a	n/a	18	6	9	3	n/a	n/a	n/a	n/a	n/a
1243209	PROB	n/a	LTP272	ltpFR	10	n/a	n/a	n/a	n/a	n/a	n/a	n/a	16	6	8	2	n/a	n/a	n/a	n/a	n/a
1244681	PROB	n/a	LTP272	ltpFR	10	n/a	n/a	n/a	n/a	n/a	n/a	n/a	1	8	9	8	n/a	n/a	n/a	n/a	n/a
1246454	PROB	n/a	LTP272	ltpFR	10	n/a	n/a	n/a	n/a	n/a	n/a	n/a	21	6	7	8	n/a	n/a	n/a	n/a	n/a
1247730	STOP	n/a	LTP272	ltpFR	10	n/a	n/a	n/a	n/a	n/a	n/a	n/a	n/a	n/a	n/a	n/a	n/a	n/a	n/a	n/a	n/a
1249482	WORD	wordpools/wasnorm_wordpool_less_exclusions.txt	LTP272	ltpFR	10	6	0	PUZZLE	1146	n/a	n/a	0	n/a	0	0	0	0.57763671875	0.412841796875	1	upper	amplitud.ttf
1252496	START	n/a	LTP272	ltpFR	10	n/a	n/a	n/a	n/a	n/a	n/a	n/a	n/a	n/a	n/a	n/a	n/a	n/a	n/a	n/a	n/a
1253549	PROB	n/a	LTP272	ltpFR	10	n/a	n/a	n/a	n/a	n/a	n/a	n/a	15	5	3	7	n/a	n/a	n/a	n/a	n/a
1255004	PROB	n/a	LTP272	ltpFR	10	n/a	n/a	n/a	n/a	n/a	n/a	n/a	11	1	4	6	n/a	n/a	n/a	n/a	n/a
1255959	PROB	n/a	LTP272	ltpFR	10	n/a	n/a	n/a	n/a	n/a	n/a	n/a	15	4	3	8	n/a	n/a	n/a	n/a	n/a
1257629	PROB	n/a	LTP272	ltpFR	10	n/a	n/a	n/a	n/a	n/a	n/a	n/a	13	2	7	4	n/a	n/a	n/a	n/a	n/a
1259236	PROB	n/a	LTP272	ltpFR	10	n/a	n/a	n/a	n/a	n/a	n/a	n/a	12	7	3	2	n/a	n/a	n/a	n/a	n/a
1260340	PROB	n/a	LTP272	ltpFR	10	n/a	n/a	n/a	n/a	n/a	n/a	n/a	16	2	7	7	n/a	n/a	n/a	n/a	n/a
1261645	PROB	n/a	LTP272	ltpFR	10	n/a	n/a	n/a	n/a	n/a	n/a	n/a	11	1	7	3	n/a	n/a	n/a	n/a	n/a
1262533	PROB	n/a	LTP272	ltpFR	10	n/a	n/a	n/a	n/a	n/a	n/a	n/a	12	5	4	3	n/a	n/a	n/a	n/a	n/a
1263719	PROB	n/a	LTP272	ltpFR	10	n/a	n/a	n/a	n/a	n/a	n/a	n/a	12	2	9	1	n/a	n/a	n/a	n/a	n/a
1264976	PROB	n/a	LTP272	ltpFR	10	n/a	n/a	n/a	n/a	n/a	n/a	n/a	21	7	9	5	n/a	n/a	n/a	n/a	n/a
1266313	PROB	n/a	LTP272	ltpFR	10	n/a	n/a	n/a	n/a	n/a	n/a	n/a	12	3	2	7	n/a	n/a	n/a	n/a	n/a
1267722	STOP	n/a	LTP272	ltpFR	10	n/a	n/a	n/a	n/a	n/a	n/a	n/a	n/a	n/a	n/a	n/a	n/a	n/a	n/a	n/a	n/a
1269660	WORD	wordpools/wasnorm_wordpool_less_exclusions.txt	LTP272	ltpFR	10	6	0	FEAST	556	n/a	n/a	1	n/a	0	0	0	0.57763671875	0.412841796875	1	upper	amplitud.ttf
1272689	START	n/a	LTP272	ltpFR	10	n/a	n/a	n/a	n/a	n/a	n/a	n/a	n/a	n/a	n/a	n/a	n/a	n/a	n/a	n/a	n/a
1273908	PROB	n/a	LTP272	ltpFR	10	n/a	n/a	n/a	n/a	n/a	n/a	n/a	11	1	8	2	n/a	n/a	n/a	n/a	n/a
1275081	PROB	n/a	LTP272	ltpFR	10	n/a	n/a	n/a	n/a	n/a	n/a	n/a	16	1	8	7	n/a	n/a	n/a	n/a	n/a
1276469	PROB	n/a	LTP272	ltpFR	10	n/a	n/a	n/a	n/a	n/a	n/a	n/a	16	4	3	9	n/a	n/a	n/a	n/a	n/a
1278426	PROB	n/a	LTP272	ltpFR	10	n/a	n/a	n/a	n/a	n/a	n/a	n/a	12	3	3	6	n/a	n/a	n/a	n/a	n/a
1280318	PROB	n/a	LTP272	ltpFR	10	n/a	n/a	n/a	n/a	n/a	n/a	n/a	10	1	4	5	n/a	n/a	n/a	n/a	n/a
1281371	PROB	n/a	LTP272	ltpFR	10	n/a	n/a	n/a	n/a	n/a	n/a	n/a	11	1	6	4	n/a	n/a	n/a	n/a	n/a
1282876	PROB	n/a	LTP272	ltpFR	10	n/a	n/a	n/a	n/a	n/a	n/a	n/a	15	9	1	5	n/a	n/a	n/a	n/a	n/a
1284165	PROB	n/a	LTP272	ltpFR	10	n/a	n/a	n/a	n/a	n/a	n/a	n/a	13	6	3	4	n/a	n/a	n/a	n/a	n/a
1285653	PROB	n/a	LTP272	ltpFR	10	n/a	n/a	n/a	n/a	n/a	n/a	n/a	19	9	1	9	n/a	n/a	n/a	n/a	n/a
1288689	STOP	n/a	LTP272	ltpFR	10	n/a	n/a	n/a	n/a	n/a	n/a	n/a	n/a	n/a	n/a	n/a	n/a	n/a	n/a	n/a	n/a
1289566	WORD	wordpools/wasnorm_wordpool_less_exclusions.txt	LTP272	ltpFR	10	6	0	GUM	672	n/a	n/a	0	n/a	0	0	0	0.57763671875	0.412841796875	1	upper	amplitud.ttf
1292580	START	n/a	LTP272	ltpFR	10	n/a	n/a	n/a	n/a	n/a	n/a	n/a	n/a	n/a	n/a	n/a	n/a	n/a	n/a	n/a	n/a
1293684	PROB	n/a	LTP272	ltpFR	10	n/a	n/a	n/a	n/a	n/a	n/a	n/a	14	1	4	9	n/a	n/a	n/a	n/a	n/a
1294988	PROB	n/a	LTP272	ltpFR	10	n/a	n/a	n/a	n/a	n/a	n/a	n/a	16	8	6	2	n/a	n/a	n/a	n/a	n/a
1296127	PROB	n/a	LTP272	ltpFR	10	n/a	n/a	n/a	n/a	n/a	n/a	n/a	18	6	4	8	n/a	n/a	n/a	n/a	n/a
1297480	PROB	n/a	LTP272	ltpFR	10	n/a	n/a	n/a	n/a	n/a	n/a	n/a	22	9	6	7	n/a	n/a	n/a	n/a	n/a
1298971	PROB	n/a	LTP272	ltpFR	10	n/a	n/a	n/a	n/a	n/a	n/a	n/a	18	7	3	8	n/a	n/a	n/a	n/a	n/a
1300243	PROB	n/a	LTP272	ltpFR	10	n/a	n/a	n/a	n/a	n/a	n/a	n/a	24	7	8	9	n/a	n/a	n/a	n/a	n/a
1301914	PROB	n/a	LTP272	ltpFR	10	n/a	n/a	n/a	n/a	n/a	n/a	n/a	18	9	7	2	n/a	n/a	n/a	n/a	n/a
1303304	PROB	n/a	LTP272	ltpFR	10	n/a	n/a	n/a	n/a	n/a	n/a	n/a	12	2	6	4	n/a	n/a	n/a	n/a	n/a
1304524	PROB	n/a	LTP272	ltpFR	10	n/a	n/a	n/a	n/a	n/a	n/a	n/a	13	3	1	9	n/a	n/a	n/a	n/a	n/a
1305646	PROB	n/a	LTP272	ltpFR	10	n/a	n/a	n/a	n/a	n/a	n/a	n/a	17	8	2	7	n/a	n/a	n/a	n/a	n/a
1306799	PROB	n/a	LTP272	ltpFR	10	n/a	n/a	n/a	n/a	n/a	n/a	n/a	15	1	8	6	n/a	n/a	n/a	n/a	n/a
1307666	STOP	n/a	LTP272	ltpFR	10	n/a	n/a	n/a	n/a	n/a	n/a	n/a	n/a	n/a	n/a	n/a	n/a	n/a	n/a	n/a	n/a
1309493	WORD	wordpools/wasnorm_wordpool_less_exclusions.txt	LTP272	ltpFR	10	6	0	PIANO	1057	n/a	n/a	1	n/a	0	0	0	0.57763671875	0.412841796875	1	upper	amplitud.ttf
1312505	START	n/a	LTP272	ltpFR	10	n/a	n/a	n/a	n/a	n/a	n/a	n/a	n/a	n/a	n/a	n/a	n/a	n/a	n/a	n/a	n/a
1313525	PROB	n/a	LTP272	ltpFR	10	n/a	n/a	n/a	n/a	n/a	n/a	n/a	13	1	6	6	n/a	n/a	n/a	n/a	n/a
1314761	PROB	n/a	LTP272	ltpFR	10	n/a	n/a	n/a	n/a	n/a	n/a	n/a	13	3	6	4	n/a	n/a	n/a	n/a	n/a
1316134	PROB	n/a	LTP272	ltpFR	10	n/a	n/a	n/a	n/a	n/a	n/a	n/a	18	7	6	5	n/a	n/a	n/a	n/a	n/a
1317438	PROB	n/a	LTP272	ltpFR	10	n/a	n/a	n/a	n/a	n/a	n/a	n/a	14	6	7	1	n/a	n/a	n/a	n/a	n/a
1319131	PROB	n/a	LTP272	ltpFR	10	n/a	n/a	n/a	n/a	n/a	n/a	n/a	7	1	1	5	n/a	n/a	n/a	n/a	n/a
1320200	PROB	n/a	LTP272	ltpFR	10	n/a	n/a	n/a	n/a	n/a	n/a	n/a	10	4	4	2	n/a	n/a	n/a	n/a	n/a
1321388	PROB	n/a	LTP272	ltpFR	10	n/a	n/a	n/a	n/a	n/a	n/a	n/a	21	5	9	7	n/a	n/a	n/a	n/a	n/a
1323146	PROB	n/a	LTP272	ltpFR	10	n/a	n/a	n/a	n/a	n/a	n/a	n/a	16	6	6	4	n/a	n/a	n/a	n/a	n/a
1324567	PROB	n/a	LTP272	ltpFR	10	n/a	n/a	n/a	n/a	n/a	n/a	n/a	20	9	9	2	n/a	n/a	n/a	n/a	n/a
1325856	PROB	n/a	LTP272	ltpFR	10	n/a	n/a	n/a	n/a	n/a	n/a	n/a	1	6	6	9	n/a	n/a	n/a	n/a	n/a
1327730	STOP	n/a	LTP272	ltpFR	10	n/a	n/a	n/a	n/a	n/a	n/a	n/a	n/a	n/a	n/a	n/a	n/a	n/a	n/a	n/a	n/a
1329485	WORD	wordpools/wasnorm_wordpool_less_exclusions.txt	LTP272	ltpFR	10	6	0	NEWSSTAND	949	n/a	n/a	1	n/a	0	0	0	0.57763671875	0.412841796875	1	upper	amplitud.ttf
1332497	START	n/a	LTP272	ltpFR	10	n/a	n/a	n/a	n/a	n/a	n/a	n/a	n/a	n/a	n/a	n/a	n/a	n/a	n/a	n/a	n/a
1333333	PROB	n/a	LTP272	ltpFR	10	n/a	n/a	n/a	n/a	n/a	n/a	n/a	20	7	6	7	n/a	n/a	n/a	n/a	n/a
1335241	PROB	n/a	LTP272	ltpFR	10	n/a	n/a	n/a	n/a	n/a	n/a	n/a	6	1	3	2	n/a	n/a	n/a	n/a	n/a
1336527	PROB	n/a	LTP272	ltpFR	10	n/a	n/a	n/a	n/a	n/a	n/a	n/a	20	8	8	4	n/a	n/a	n/a	n/a	n/a
1337966	PROB	n/a	LTP272	ltpFR	10	n/a	n/a	n/a	n/a	n/a	n/a	n/a	13	6	6	1	n/a	n/a	n/a	n/a	n/a
1339138	PROB	n/a	LTP272	ltpFR	10	n/a	n/a	n/a	n/a	n/a	n/a	n/a	16	2	5	9	n/a	n/a	n/a	n/a	n/a
1340776	PROB	n/a	LTP272	ltpFR	10	n/a	n/a	n/a	n/a	n/a	n/a	n/a	15	7	2	6	n/a	n/a	n/a	n/a	n/a
1342067	PROB	n/a	LTP272	ltpFR	10	n/a	n/a	n/a	n/a	n/a	n/a	n/a	16	5	9	2	n/a	n/a	n/a	n/a	n/a
1343305	PROB	n/a	LTP272	ltpFR	10	n/a	n/a	n/a	n/a	n/a	n/a	n/a	11	2	7	2	n/a	n/a	n/a	n/a	n/a
1344708	PROB	n/a	LTP272	ltpFR	10	n/a	n/a	n/a	n/a	n/a	n/a	n/a	11	1	3	7	n/a	n/a	n/a	n/a	n/a
1345661	PROB	n/a	LTP272	ltpFR	10	n/a	n/a	n/a	n/a	n/a	n/a	n/a	13	6	6	1	n/a	n/a	n/a	n/a	n/a
1346767	PROB	n/a	LTP272	ltpFR	10	n/a	n/a	n/a	n/a	n/a	n/a	n/a	22	4	9	9	n/a	n/a	n/a	n/a	n/a
1348107	STOP	n/a	LTP272	ltpFR	10	n/a	n/a	n/a	n/a	n/a	n/a	n/a	n/a	n/a	n/a	n/a	n/a	n/a	n/a	n/a	n/a
1349511	WORD	wordpools/wasnorm_wordpool_less_exclusions.txt	LTP272	ltpFR	10	6	0	STEREO	1378	n/a	n/a	1	n/a	0	0	0	0.57763671875	0.412841796875	1	upper	amplitud.ttf
1352523	START	n/a	LTP272	ltpFR	10	n/a	n/a	n/a	n/a	n/a	n/a	n/a	n/a	n/a	n/a	n/a	n/a	n/a	n/a	n/a	n/a
1353660	PROB	n/a	LTP272	ltpFR	10	n/a	n/a	n/a	n/a	n/a	n/a	n/a	14	5	2	7	n/a	n/a	n/a	n/a	n/a
1355383	PROB	n/a	LTP272	ltpFR	10	n/a	n/a	n/a	n/a	n/a	n/a	n/a	15	9	3	3	n/a	n/a	n/a	n/a	n/a
1356770	PROB	n/a	LTP272	ltpFR	10	n/a	n/a	n/a	n/a	n/a	n/a	n/a	17	5	8	4	n/a	n/a	n/a	n/a	n/a
1358144	PROB	n/a	LTP272	ltpFR	10	n/a	n/a	n/a	n/a	n/a	n/a	n/a	22	7	8	7	n/a	n/a	n/a	n/a	n/a
1359733	PROB	n/a	LTP272	ltpFR	10	n/a	n/a	n/a	n/a	n/a	n/a	n/a	18	2	8	8	n/a	n/a	n/a	n/a	n/a
1361072	PROB	n/a	LTP272	ltpFR	10	n/a	n/a	n/a	n/a	n/a	n/a	n/a	16	4	3	9	n/a	n/a	n/a	n/a	n/a
1362558	PROB	n/a	LTP272	ltpFR	10	n/a	n/a	n/a	n/a	n/a	n/a	n/a	18	9	2	7	n/a	n/a	n/a	n/a	n/a
1363966	PROB	n/a	LTP272	ltpFR	10	n/a	n/a	n/a	n/a	n/a	n/a	n/a	11	3	3	5	n/a	n/a	n/a	n/a	n/a
1365469	PROB	n/a	LTP272	ltpFR	10	n/a	n/a	n/a	n/a	n/a	n/a	n/a	18	5	8	5	n/a	n/a	n/a	n/a	n/a
1366759	PROB	n/a	LTP272	ltpFR	10	n/a	n/a	n/a	n/a	n/a	n/a	n/a	15	7	3	5	n/a	n/a	n/a	n/a	n/a
1368131	STOP	n/a	LTP272	ltpFR	10	n/a	n/a	n/a	n/a	n/a	n/a	n/a	n/a	n/a	n/a	n/a	n/a	n/a	n/a	n/a	n/a
1369668	WORD	wordpools/wasnorm_wordpool_less_exclusions.txt	LTP272	ltpFR	10	6	0	TENT	1449	n/a	n/a	1	n/a	0	0	0	0.57763671875	0.412841796875	1	upper	amplitud.ttf
1372682	START	n/a	LTP272	ltpFR	10	n/a	n/a	n/a	n/a	n/a	n/a	n/a	n/a	n/a	n/a	n/a	n/a	n/a	n/a	n/a	n/a
1373501	PROB	n/a	LTP272	ltpFR	10	n/a	n/a	n/a	n/a	n/a	n/a	n/a	13	1	3	9	n/a	n/a	n/a	n/a	n/a
1374706	PROB	n/a	LTP272	ltpFR	10	n/a	n/a	n/a	n/a	n/a	n/a	n/a	11	3	2	6	n/a	n/a	n/a	n/a	n/a
1376145	PROB	n/a	LTP272	ltpFR	10	n/a	n/a	n/a	n/a	n/a	n/a	n/a	19	9	1	9	n/a	n/a	n/a	n/a	n/a
1377382	PROB	n/a	LTP272	ltpFR	10	n/a	n/a	n/a	n/a	n/a	n/a	n/a	19	3	7	9	n/a	n/a	n/a	n/a	n/a
1378654	PROB	n/a	LTP272	ltpFR	10	n/a	n/a	n/a	n/a	n/a	n/a	n/a	21	7	5	9	n/a	n/a	n/a	n/a	n/a
1380110	PROB	n/a	LTP272	ltpFR	10	n/a	n/a	n/a	n/a	n/a	n/a	n/a	12	3	7	2	n/a	n/a	n/a	n/a	n/a
1381429	PROB	n/a	LTP272	ltpFR	10	n/a	n/a	n/a	n/a	n/a	n/a	n/a	12	4	3	5	n/a	n/a	n/a	n/a	n/a
1382686	PROB	n/a	LTP272	ltpFR	10	n/a	n/a	n/a	n/a	n/a	n/a	n/a	15	6	7	3	n/a	n/a	n/a	n/a	n/a
1384526	PROB	n/a	LTP272	ltpFR	10	n/a	n/a	n/a	n/a	n/a	n/a	n/a	20	9	9	2	n/a	n/a	n/a	n/a	n/a
1385981	PROB	n/a	LTP272	ltpFR	10	n/a	n/a	n/a	n/a	n/a	n/a	n/a	18	4	8	6	n/a	n/a	n/a	n/a	n/a
1388458	STOP	n/a	LTP272	ltpFR	10	n/a	n/a	n/a	n/a	n/a	n/a	n/a	n/a	n/a	n/a	n/a	n/a	n/a	n/a	n/a	n/a
1389577	WORD	wordpools/wasnorm_wordpool_less_exclusions.txt	LTP272	ltpFR	10	6	0	TWINE	1529	n/a	n/a	0	n/a	0	0	0	0.57763671875	0.412841796875	1	upper	amplitud.ttf
1392590	START	n/a	LTP272	ltpFR	10	n/a	n/a	n/a	n/a	n/a	n/a	n/a	n/a	n/a	n/a	n/a	n/a	n/a	n/a	n/a	n/a
1393776	PROB	n/a	LTP272	ltpFR	10	n/a	n/a	n/a	n/a	n/a	n/a	n/a	13	7	1	5	n/a	n/a	n/a	n/a	n/a
1395000	PROB	n/a	LTP272	ltpFR	10	n/a	n/a	n/a	n/a	n/a	n/a	n/a	16	1	6	9	n/a	n/a	n/a	n/a	n/a
1396221	PROB	n/a	LTP272	ltpFR	10	n/a	n/a	n/a	n/a	n/a	n/a	n/a	15	6	8	1	n/a	n/a	n/a	n/a	n/a
1397374	PROB	n/a	LTP272	ltpFR	10	n/a	n/a	n/a	n/a	n/a	n/a	n/a	16	9	4	3	n/a	n/a	n/a	n/a	n/a
1399430	PROB	n/a	LTP272	ltpFR	10	n/a	n/a	n/a	n/a	n/a	n/a	n/a	14	7	5	2	n/a	n/a	n/a	n/a	n/a
1400553	PROB	n/a	LTP272	ltpFR	10	n/a	n/a	n/a	n/a	n/a	n/a	n/a	23	6	8	9	n/a	n/a	n/a	n/a	n/a
1402210	PROB	n/a	LTP272	ltpFR	10	n/a	n/a	n/a	n/a	n/a	n/a	n/a	19	9	5	5	n/a	n/a	n/a	n/a	n/a
1403447	PROB	n/a	LTP272	ltpFR	10	n/a	n/a	n/a	n/a	n/a	n/a	n/a	13	9	5	2	n/a	n/a	n/a	n/a	n/a
1405222	PROB	n/a	LTP272	ltpFR	10	n/a	n/a	n/a	n/a	n/a	n/a	n/a	15	9	2	4	n/a	n/a	n/a	n/a	n/a
1406526	PROB	n/a	LTP272	ltpFR	10	n/a	n/a	n/a	n/a	n/a	n/a	n/a	14	5	7	2	n/a	n/a	n/a	n/a	n/a
1407618	STOP	n/a	LTP272	ltpFR	10	n/a	n/a	n/a	n/a	n/a	n/a	n/a	n/a	n/a	n/a	n/a	n/a	n/a	n/a	n/a	n/a
1409806	WORD	wordpools/wasnorm_wordpool_less_exclusions.txt	LTP272	ltpFR	10	6	0	WRIST	1626	n/a	n/a	0	n/a	0	0	0	0.57763671875	0.412841796875	1	upper	amplitud.ttf
1412818	START	n/a	LTP272	ltpFR	10	n/a	n/a	n/a	n/a	n/a	n/a	n/a	n/a	n/a	n/a	n/a	n/a	n/a	n/a	n/a	n/a
1413686	PROB	n/a	LTP272	ltpFR	10	n/a	n/a	n/a	n/a	n/a	n/a	n/a	16	5	3	8	n/a	n/a	n/a	n/a	n/a
1415342	PROB	n/a	LTP272	ltpFR	10	n/a	n/a	n/a	n/a	n/a	n/a	n/a	19	9	9	1	n/a	n/a	n/a	n/a	n/a
1417284	PROB	n/a	LTP272	ltpFR	10	n/a	n/a	n/a	n/a	n/a	n/a	n/a	13	2	3	8	n/a	n/a	n/a	n/a	n/a
1418721	PROB	n/a	LTP272	ltpFR	10	n/a	n/a	n/a	n/a	n/a	n/a	n/a	14	4	4	6	n/a	n/a	n/a	n/a	n/a
1419942	PROB	n/a	LTP272	ltpFR	10	n/a	n/a	n/a	n/a	n/a	n/a	n/a	9	1	4	4	n/a	n/a	n/a	n/a	n/a
1420979	PROB	n/a	LTP272	ltpFR	10	n/a	n/a	n/a	n/a	n/a	n/a	n/a	6	3	2	1	n/a	n/a	n/a	n/a	n/a
1422000	PROB	n/a	LTP272	ltpFR	10	n/a	n/a	n/a	n/a	n/a	n/a	n/a	23	8	7	8	n/a	n/a	n/a	n/a	n/a
1424510	PROB	n/a	LTP272	ltpFR	10	n/a	n/a	n/a	n/a	n/a	n/a	n/a	19	4	9	6	n/a	n/a	n/a	n/a	n/a
1425916	PROB	n/a	LTP272	ltpFR	10	n/a	n/a	n/a	n/a	n/a	n/a	n/a	18	3	7	8	n/a	n/a	n/a	n/a	n/a
1427238	PROB	n/a	LTP272	ltpFR	10	n/a	n/a	n/a	n/a	n/a	n/a	n/a	9	1	5	3	n/a	n/a	n/a	n/a	n/a
1428362	STOP	n/a	LTP272	ltpFR	10	n/a	n/a	n/a	n/a	n/a	n/a	n/a	n/a	n/a	n/a	n/a	n/a	n/a	n/a	n/a	n/a
1429763	WORD	wordpools/wasnorm_wordpool_less_exclusions.txt	LTP272	ltpFR	10	6	0	GLOVE	642	n/a	n/a	0	n/a	0	0	0	0.57763671875	0.412841796875	1	upper	amplitud.ttf
1432775	START	n/a	LTP272	ltpFR	10	n/a	n/a	n/a	n/a	n/a	n/a	n/a	n/a	n/a	n/a	n/a	n/a	n/a	n/a	n/a	n/a
1433628	PROB	n/a	LTP272	ltpFR	10	n/a	n/a	n/a	n/a	n/a	n/a	n/a	7	2	3	2	n/a	n/a	n/a	n/a	n/a
1435200	PROB	n/a	LTP272	ltpFR	10	n/a	n/a	n/a	n/a	n/a	n/a	n/a	10	3	3	4	n/a	n/a	n/a	n/a	n/a
1437075	PROB	n/a	LTP272	ltpFR	10	n/a	n/a	n/a	n/a	n/a	n/a	n/a	16	5	7	4	n/a	n/a	n/a	n/a	n/a
1438278	PROB	n/a	LTP272	ltpFR	10	n/a	n/a	n/a	n/a	n/a	n/a	n/a	6	1	2	3	n/a	n/a	n/a	n/a	n/a
1439450	PROB	n/a	LTP272	ltpFR	10	n/a	n/a	n/a	n/a	n/a	n/a	n/a	6	1	4	1	n/a	n/a	n/a	n/a	n/a
1440571	PROB	n/a	LTP272	ltpFR	10	n/a	n/a	n/a	n/a	n/a	n/a	n/a	17	1	8	8	n/a	n/a	n/a	n/a	n/a
1442310	PROB	n/a	LTP272	ltpFR	10	n/a	n/a	n/a	n/a	n/a	n/a	n/a	14	3	8	3	n/a	n/a	n/a	n/a	n/a
1443951	PROB	n/a	LTP272	ltpFR	10	n/a	n/a	n/a	n/a	n/a	n/a	n/a	19	8	3	8	n/a	n/a	n/a	n/a	n/a
1445790	PROB	n/a	LTP272	ltpFR	10	n/a	n/a	n/a	n/a	n/a	n/a	n/a	19	8	4	7	n/a	n/a	n/a	n/a	n/a
1447079	PROB	n/a	LTP272	ltpFR	10	n/a	n/a	n/a	n/a	n/a	n/a	n/a	8	3	4	1	n/a	n/a	n/a	n/a	n/a
1448075	STOP	n/a	LTP272	ltpFR	10	n/a	n/a	n/a	n/a	n/a	n/a	n/a	n/a	n/a	n/a	n/a	n/a	n/a	n/a	n/a	n/a
1450676	REC_START	n/a	LTP272	ltpFR	10	6	n/a	n/a	n/a	n/a	n/a	n/a	n/a	0	0	0	n/a	n/a	n/a	n/a	n/a
1451422	REC_WORD	wordpools/wasnorm_wordpool_less_exclusions.txt	LTP272	ltpFR	10	6	0	TENT	1449	n/a	n/a	1	n/a	0	0	0	n/a	n/a	n/a	n/a	n/a
1452390	REC_WORD	wordpools/wasnorm_wordpool_less_exclusions.txt	LTP272	ltpFR	10	6	0	TWINE	1529	n/a	n/a	0	n/a	0	0	0	n/a	n/a	n/a	n/a	n/a
1453647	REC_WORD	wordpools/wasnorm_wordpool_less_exclusions.txt	LTP272	ltpFR	10	6	0	WRIST	1626	n/a	n/a	0	n/a	0	0	0	n/a	n/a	n/a	n/a	n/a
1454714	REC_WORD	wordpools/wasnorm_wordpool_less_exclusions.txt	LTP272	ltpFR	10	6	0	GLOVE	642	n/a	n/a	0	n/a	0	0	0	n/a	n/a	n/a	n/a	n/a
1455694	REC_WORD	wordpools/wasnorm_wordpool_less_exclusions.txt	LTP272	ltpFR	10	6	0	SALMON	1227	n/a	n/a	0	n/a	0	0	0	n/a	n/a	n/a	n/a	n/a
1456977	REC_WORD	wordpools/wasnorm_wordpool_less_exclusions.txt	LTP272	ltpFR	10	6	0	RECORD	1176	n/a	n/a	0	n/a	0	0	0	n/a	n/a	n/a	n/a	n/a
1457982	REC_WORD	wordpools/wasnorm_wordpool_less_exclusions.txt	LTP272	ltpFR	10	6	0	BLENDER	136	n/a	n/a	1	n/a	0	0	0	n/a	n/a	n/a	n/a	n/a
1458869	REC_WORD	wordpools/wasnorm_wordpool_less_exclusions.txt	LTP272	ltpFR	10	6	0	CITY	314	n/a	n/a	1	n/a	0	0	0	n/a	n/a	n/a	n/a	n/a
1459980	REC_WORD	wordpools/wasnorm_wordpool_less_exclusions.txt	LTP272	ltpFR	10	6	0	COPIER	377	n/a	n/a	1	n/a	0	0	0	n/a	n/a	n/a	n/a	n/a
1474398	REC_WORD	wordpools/wasnorm_wordpool_less_exclusions.txt	LTP272	ltpFR	10	6	0	NEWSSTAND	949	n/a	n/a	1	n/a	0	0	0	n/a	n/a	n/a	n/a	n/a
1495918	REC_WORD	wordpools/wasnorm_wordpool_less_exclusions.txt	LTP272	ltpFR	10	6	0	LABYRINTH	791	n/a	n/a	1	n/a	0	0	0	n/a	n/a	n/a	n/a	n/a
1496981	REC_WORD	wordpools/wasnorm_wordpool_less_exclusions.txt	LTP272	ltpFR	10	6	0	PUZZLE	1146	n/a	n/a	0	n/a	0	0	0	n/a	n/a	n/a	n/a	n/a
1526327	REST_REWET	n/a	LTP272	ltpFR	10	6	n/a	n/a	n/a	n/a	n/a	n/a	n/a	0	0	0	n/a	n/a	n/a	n/a	n/a
1910776	WORD	wordpools/wasnorm_wordpool_less_exclusions.txt	LTP272	ltpFR	10	7	0	GOWN	652	n/a	n/a	1	n/a	0	0	0	0.57763671875	0.412841796875	1	upper	amplitud.ttf
1914943	WORD	wordpools/wasnorm_wordpool_less_exclusions.txt	LTP272	ltpFR	10	7	0	KNAPSACK	783	n/a	n/a	0	n/a	0	0	0	0.57763671875	0.412841796875	1	upper	amplitud.ttf
1918975	WORD	wordpools/wasnorm_wordpool_less_exclusions.txt	LTP272	ltpFR	10	7	0	FOREHEAD	592	n/a	n/a	0	n/a	0	0	0	0.57763671875	0.412841796875	1	upper	amplitud.ttf
1923190	WORD	wordpools/wasnorm_wordpool_less_exclusions.txt	LTP272	ltpFR	10	7	0	MASK	876	n/a	n/a	0	n/a	0	0	0	0.57763671875	0.412841796875	1	upper	amplitud.ttf
1927155	WORD	wordpools/wasnorm_wordpool_less_exclusions.txt	LTP272	ltpFR	10	7	0	HOUND	724	n/a	n/a	1	n/a	0	0	0	0.57763671875	0.412841796875	1	upper	amplitud.ttf
1931087	WORD	wordpools/wasnorm_wordpool_less_exclusions.txt	LTP272	ltpFR	10	7	0	POPCORN	1104	n/a	n/a	0	n/a	0	0	0	0.57763671875	0.412841796875	1	upper	amplitud.ttf
1935186	WORD	wordpools/wasnorm_wordpool_less_exclusions.txt	LTP272	ltpFR	10	7	0	BISCUIT	130	n/a	n/a	0	n/a	0	0	0	0.57763671875	0.412841796875	1	upper	amplitud.ttf
1939117	WORD	wordpools/wasnorm_wordpool_less_exclusions.txt	LTP272	ltpFR	10	7	0	SUBWAY	1400	n/a	n/a	1	n/a	0	0	0	0.57763671875	0.412841796875	1	upper	amplitud.ttf
1943147	WORD	wordpools/wasnorm_wordpool_less_exclusions.txt	LTP272	ltpFR	10	7	0	DRIVEWAY	500	n/a	n/a	1	n/a	0	0	0	0.57763671875	0.412841796875	1	upper	amplitud.ttf
1947047	WORD	wordpools/wasnorm_wordpool_less_exclusions.txt	LTP272	ltpFR	10	7	0	BEAN	105	n/a	n/a	0	n/a	0	0	0	0.57763671875	0.412841796875	1	upper	amplitud.ttf
1950912	WORD	wordpools/wasnorm_wordpool_less_exclusions.txt	LTP272	ltpFR	10	7	0	ZUCCHINI	1638	n/a	n/a	0	n/a	0	0	0	0.57763671875	0.412841796875	1	upper	amplitud.ttf
1955044	WORD	wordpools/wasnorm_wordpool_less_exclusions.txt	LTP272	ltpFR	10	7	0	HUT	729	n/a	n/a	1	n/a	0	0	0	0.57763671875	0.412841796875	1	upper	amplitud.ttf
1959176	WORD	wordpools/wasnorm_wordpool_less_exclusions.txt	LTP272	ltpFR	10	7	0	SILK	1307	n/a	n/a	0	n/a	0	0	0	0.57763671875	0.412841796875	1	upper	amplitud.ttf
1963308	WORD	wordpools/wasnorm_wordpool_less_exclusions.txt	LTP272	ltpFR	10	7	0	BARK	87	n/a	n/a	1	n/a	0	0	0	0.57763671875	0.412841796875	1	upper	amplitud.ttf
1967257	WORD	wordpools/wasnorm_wordpool_less_exclusions.txt	LTP272	ltpFR	10	7	0	SHINGLE	1285	n/a	n/a	0	n/a	0	0	0	0.57763671875	0.412841796875	1	upper	amplitud.ttf
1971088	WORD	wordpools/wasnorm_wordpool_less_exclusions.txt	LTP272	ltpFR	10	7	0	MAJOR	859	n/a	n/a	1	n/a	0	0	0	0.57763671875	0.412841796875	1	upper	amplitud.ttf
1977061	REC_START	n/a	LTP272	ltpFR	10	7	n/a	n/a	n/a	n/a	n/a	n/a	n/a	0	0	0	n/a	n/a	n/a	n/a	n/a
1978447	REC_WORD	wordpools/wasnorm_wordpool_less_exclusions.txt	LTP272	ltpFR	10	7	0	SILK	1307	n/a	n/a	0	n/a	0	0	0	n/a	n/a	n/a	n/a	n/a
1979745	REC_WORD	wordpools/wasnorm_wordpool_less_exclusions.txt	LTP272	ltpFR	10	7	0	BARK	87	n/a	n/a	1	n/a	0	0	0	n/a	n/a	n/a	n/a	n/a
1980659	REC_WORD	wordpools/wasnorm_wordpool_less_exclusions.txt	LTP272	ltpFR	10	7	0	SHINGLE	1285	n/a	n/a	0	n/a	0	0	0	n/a	n/a	n/a	n/a	n/a
1982054	REC_WORD	wordpools/wasnorm_wordpool_less_exclusions.txt	LTP272	ltpFR	10	7	0	MAJOR	859	n/a	n/a	1	n/a	0	0	0	n/a	n/a	n/a	n/a	n/a
1983284	REC_WORD	wordpools/wasnorm_wordpool_less_exclusions.txt	LTP272	ltpFR	10	7	0	DRIVEWAY	500	n/a	n/a	1	n/a	0	0	0	n/a	n/a	n/a	n/a	n/a
1985781	REC_WORD	wordpools/wasnorm_wordpool_less_exclusions.txt	LTP272	ltpFR	10	7	0	BEAN	105	n/a	n/a	0	n/a	0	0	0	n/a	n/a	n/a	n/a	n/a
1987136	REC_WORD	wordpools/wasnorm_wordpool_less_exclusions.txt	LTP272	ltpFR	10	7	0	ZUCCHINI	1638	n/a	n/a	0	n/a	0	0	0	n/a	n/a	n/a	n/a	n/a
1988499	REC_WORD	wordpools/wasnorm_wordpool_less_exclusions.txt	LTP272	ltpFR	10	7	0	HUT	729	n/a	n/a	1	n/a	0	0	0	n/a	n/a	n/a	n/a	n/a
1989585	REC_WORD	wordpools/wasnorm_wordpool_less_exclusions.txt	LTP272	ltpFR	10	7	0	HOUND	724	n/a	n/a	1	n/a	0	0	0	n/a	n/a	n/a	n/a	n/a
1990583	REC_WORD	wordpools/wasnorm_wordpool_less_exclusions.txt	LTP272	ltpFR	10	7	0	SUBWAY	1400	n/a	n/a	1	n/a	0	0	0	n/a	n/a	n/a	n/a	n/a
1991862	REC_WORD	wordpools/wasnorm_wordpool_less_exclusions.txt	LTP272	ltpFR	10	7	0	POPCORN	1104	n/a	n/a	0	n/a	0	0	0	n/a	n/a	n/a	n/a	n/a
1993078	REC_WORD	wordpools/wasnorm_wordpool_less_exclusions.txt	LTP272	ltpFR	10	7	0	BISCUIT	130	n/a	n/a	0	n/a	0	0	0	n/a	n/a	n/a	n/a	n/a
1994491	REC_WORD	wordpools/wasnorm_wordpool_less_exclusions.txt	LTP272	ltpFR	10	7	0	GOWN	652	n/a	n/a	1	n/a	0	0	0	n/a	n/a	n/a	n/a	n/a
1995469	REC_WORD	wordpools/wasnorm_wordpool_less_exclusions.txt	LTP272	ltpFR	10	7	0	KNAPSACK	783	n/a	n/a	0	n/a	0	0	0	n/a	n/a	n/a	n/a	n/a
1996797	REC_WORD	wordpools/wasnorm_wordpool_less_exclusions.txt	LTP272	ltpFR	10	7	0	MASK	876	n/a	n/a	0	n/a	0	0	0	n/a	n/a	n/a	n/a	n/a
1997845	REC_WORD	wordpools/wasnorm_wordpool_less_exclusions.txt	LTP272	ltpFR	10	7	0	FOREHEAD	592	n/a	n/a	0	n/a	0	0	0	n/a	n/a	n/a	n/a	n/a
2059856	WORD	wordpools/wasnorm_wordpool_less_exclusions.txt	LTP272	ltpFR	10	8	0	WASHCLOTH	1591	n/a	n/a	0	n/a	0	0	0	0.57763671875	0.412841796875	1	upper	amplitud.ttf
2063869	WORD	wordpools/wasnorm_wordpool_less_exclusions.txt	LTP272	ltpFR	10	8	0	BOY	161	n/a	n/a	1	n/a	0	0	0	0.57763671875	0.412841796875	1	upper	amplitud.ttf
2067969	WORD	wordpools/wasnorm_wordpool_less_exclusions.txt	LTP272	ltpFR	10	8	0	KIWI	781	n/a	n/a	0	n/a	0	0	0	0.57763671875	0.412841796875	1	upper	amplitud.ttf
2071968	WORD	wordpools/wasnorm_wordpool_less_exclusions.txt	LTP272	ltpFR	10	8	0	PEACH	1031	n/a	n/a	0	n/a	0	0	0	0.57763671875	0.412841796875	1	upper	amplitud.ttf
2075814	WORD	wordpools/wasnorm_wordpool_less_exclusions.txt	LTP272	ltpFR	10	8	1	DETERGENT	455	n/a	n/a	0	n/a	0	0	0	0.422607421875	0.5869140625	0	lower	zerothre.ttf
2079746	WORD	wordpools/wasnorm_wordpool_less_exclusions.txt	LTP272	ltpFR	10	8	1	LIMOUSINE	824	n/a	n/a	0	n/a	0	0	0	0.422607421875	0.5869140625	0	lower	zerothre.ttf
2083778	WORD	wordpools/wasnorm_wordpool_less_exclusions.txt	LTP272	ltpFR	10	8	1	HERD	705	n/a	n/a	1	n/a	0	0	0	0.422607421875	0.5869140625	0	lower	zerothre.ttf
2087792	WORD	wordpools/wasnorm_wordpool_less_exclusions.txt	LTP272	ltpFR	10	8	0	GODDESS	646	n/a	n/a	1	n/a	0	0	0	0.57763671875	0.412841796875	1	upper	amplitud.ttf
2091826	WORD	wordpools/wasnorm_wordpool_less_exclusions.txt	LTP272	ltpFR	10	8	0	SKATE	1313	n/a	n/a	0	n/a	0	0	0	0.57763671875	0.412841796875	1	upper	amplitud.ttf
2095908	WORD	wordpools/wasnorm_wordpool_less_exclusions.txt	LTP272	ltpFR	10	8	0	FLEET	578	n/a	n/a	1	n/a	0	0	0	0.57763671875	0.412841796875	1	upper	amplitud.ttf
2099906	WORD	wordpools/wasnorm_wordpool_less_exclusions.txt	LTP272	ltpFR	10	8	0	CAPTAIN	239	n/a	n/a	1	n/a	0	0	0	0.57763671875	0.412841796875	1	upper	amplitud.ttf
2104072	WORD	wordpools/wasnorm_wordpool_less_exclusions.txt	LTP272	ltpFR	10	8	1	TRUMPET	1513	n/a	n/a	0	n/a	0	0	0	0.422607421875	0.5869140625	0	lower	zerothre.ttf
2108087	WORD	wordpools/wasnorm_wordpool_less_exclusions.txt	LTP272	ltpFR	10	8	1	BUGLE	189	n/a	n/a	0	n/a	0	0	0	0.422607421875	0.5869140625	0	lower	zerothre.ttf
2112203	WORD	wordpools/wasnorm_wordpool_less_exclusions.txt	LTP272	ltpFR	10	8	1	VICTOR	1563	n/a	n/a	1	n/a	0	0	0	0.422607421875	0.5869140625	0	lower	zerothre.ttf
2116334	WORD	wordpools/wasnorm_wordpool_less_exclusions.txt	LTP272	ltpFR	10	8	1	BARN	89	n/a	n/a	0	n/a	0	0	0	0.422607421875	0.5869140625	0	lower	zerothre.ttf
2120416	WORD	wordpools/wasnorm_wordpool_less_exclusions.txt	LTP272	ltpFR	10	8	1	FARM	552	n/a	n/a	1	n/a	0	0	0	0.422607421875	0.5869140625	0	lower	zerothre.ttf
2123428	START	n/a	LTP272	ltpFR	10	n/a	n/a	n/a	n/a	n/a	n/a	n/a	n/a	n/a	n/a	n/a	n/a	n/a	n/a	n/a	n/a
2124532	PROB	n/a	LTP272	ltpFR	10	n/a	n/a	n/a	n/a	n/a	n/a	n/a	18	1	8	9	n/a	n/a	n/a	n/a	n/a
2126254	PROB	n/a	LTP272	ltpFR	10	n/a	n/a	n/a	n/a	n/a	n/a	n/a	9	3	4	2	n/a	n/a	n/a	n/a	n/a
2127560	PROB	n/a	LTP272	ltpFR	10	n/a	n/a	n/a	n/a	n/a	n/a	n/a	10	2	6	2	n/a	n/a	n/a	n/a	n/a
2129200	PROB	n/a	LTP272	ltpFR	10	n/a	n/a	n/a	n/a	n/a	n/a	n/a	9	2	2	5	n/a	n/a	n/a	n/a	n/a
2130859	STOP	n/a	LTP272	ltpFR	10	n/a	n/a	n/a	n/a	n/a	n/a	n/a	n/a	n/a	n/a	n/a	n/a	n/a	n/a	n/a	n/a
2133216	REC_START	n/a	LTP272	ltpFR	10	8	n/a	n/a	n/a	n/a	n/a	n/a	n/a	0	0	0	n/a	n/a	n/a	n/a	n/a
2134035	REC_WORD	wordpools/wasnorm_wordpool_less_exclusions.txt	LTP272	ltpFR	10	8	1	BUGLE	189	n/a	n/a	0	n/a	0	0	0	n/a	n/a	n/a	n/a	n/a
2134946	REC_WORD	wordpools/wasnorm_wordpool_less_exclusions.txt	LTP272	ltpFR	10	8	1	VICTOR	1563	n/a	n/a	1	n/a	0	0	0	n/a	n/a	n/a	n/a	n/a
2136129	REC_WORD	wordpools/wasnorm_wordpool_less_exclusions.txt	LTP272	ltpFR	10	8	1	BARN	89	n/a	n/a	0	n/a	0	0	0	n/a	n/a	n/a	n/a	n/a
2137023	REC_WORD	wordpools/wasnorm_wordpool_less_exclusions.txt	LTP272	ltpFR	10	8	1	FARM	552	n/a	n/a	1	n/a	0	0	0	n/a	n/a	n/a	n/a	n/a
2138314	REC_WORD	wordpools/wasnorm_wordpool_less_exclusions.txt	LTP272	ltpFR	10	8	0	CAPTAIN	239	n/a	n/a	1	n/a	0	0	0	n/a	n/a	n/a	n/a	n/a
2139295	REC_WORD	wordpools/wasnorm_wordpool_less_exclusions.txt	LTP272	ltpFR	10	8	0	FLEET	578	n/a	n/a	1	n/a	0	0	0	n/a	n/a	n/a	n/a	n/a
2140331	REC_WORD	wordpools/wasnorm_wordpool_less_exclusions.txt	LTP272	ltpFR	10	8	0	SKATE	1313	n/a	n/a	0	n/a	0	0	0	n/a	n/a	n/a	n/a	n/a
2141564	REC_WORD	wordpools/wasnorm_wordpool_less_exclusions.txt	LTP272	ltpFR	10	8	1	TRUMPET	1513	n/a	n/a	0	n/a	0	0	0	n/a	n/a	n/a	n/a	n/a
2143940	REC_WORD	wordpools/wasnorm_wordpool_less_exclusions.txt	LTP272	ltpFR	10	8	1	HERD	705	n/a	n/a	1	n/a	0	0	0	n/a	n/a	n/a	n/a	n/a
2144855	REC_WORD	wordpools/wasnorm_wordpool_less_exclusions.txt	LTP272	ltpFR	10	8	1	LIMOUSINE	824	n/a	n/a	0	n/a	0	0	0	n/a	n/a	n/a	n/a	n/a
2145934	REC_WORD	wordpools/wasnorm_wordpool_less_exclusions.txt	LTP272	ltpFR	10	8	1	DETERGENT	455	n/a	n/a	0	n/a	0	0	0	n/a	n/a	n/a	n/a	n/a
2147082	REC_WORD	wordpools/wasnorm_wordpool_less_exclusions.txt	LTP272	ltpFR	10	8	0	GODDESS	646	n/a	n/a	1	n/a	0	0	0	n/a	n/a	n/a	n/a	n/a
2148806	REC_WORD	wordpools/wasnorm_wordpool_less_exclusions.txt	LTP272	ltpFR	10	8	0	BOY	161	n/a	n/a	1	n/a	0	0	0	n/a	n/a	n/a	n/a	n/a
2149509	REC_WORD	wordpools/wasnorm_wordpool_less_exclusions.txt	LTP272	ltpFR	10	8	0	WASHCLOTH	1591	n/a	n/a	0	n/a	0	0	0	n/a	n/a	n/a	n/a	n/a
2151869	REC_WORD	wordpools/wasnorm_wordpool_less_exclusions.txt	LTP272	ltpFR	10	8	0	KIWI	781	n/a	n/a	0	n/a	0	0	0	n/a	n/a	n/a	n/a	n/a
2152870	REC_WORD	wordpools/wasnorm_wordpool_less_exclusions.txt	LTP272	ltpFR	10	8	0	PEACH	1031	n/a	n/a	0	n/a	0	0	0	n/a	n/a	n/a	n/a	n/a
2210823	START	n/a	LTP272	ltpFR	10	n/a	n/a	n/a	n/a	n/a	n/a	n/a	n/a	n/a	n/a	n/a	n/a	n/a	n/a	n/a	n/a
2212329	PROB	n/a	LTP272	ltpFR	10	n/a	n/a	n/a	n/a	n/a	n/a	n/a	8	2	1	5	n/a	n/a	n/a	n/a	n/a
2213750	PROB	n/a	LTP272	ltpFR	10	n/a	n/a	n/a	n/a	n/a	n/a	n/a	11	4	1	6	n/a	n/a	n/a	n/a	n/a
2214755	PROB	n/a	LTP272	ltpFR	10	n/a	n/a	n/a	n/a	n/a	n/a	n/a	7	3	1	3	n/a	n/a	n/a	n/a	n/a
2215842	PROB	n/a	LTP272	ltpFR	10	n/a	n/a	n/a	n/a	n/a	n/a	n/a	17	6	3	8	n/a	n/a	n/a	n/a	n/a
2217199	PROB	n/a	LTP272	ltpFR	10	n/a	n/a	n/a	n/a	n/a	n/a	n/a	15	4	7	4	n/a	n/a	n/a	n/a	n/a
2218498	STOP	n/a	LTP272	ltpFR	10	n/a	n/a	n/a	n/a	n/a	n/a	n/a	n/a	n/a	n/a	n/a	n/a	n/a	n/a	n/a	n/a
2219942	WORD	wordpools/wasnorm_wordpool_less_exclusions.txt	LTP272	ltpFR	10	9	0	POSTAGE	1113	n/a	n/a	0	n/a	0	0	0	0.57763671875	0.412841796875	1	upper	amplitud.ttf
2222954	START	n/a	LTP272	ltpFR	10	n/a	n/a	n/a	n/a	n/a	n/a	n/a	n/a	n/a	n/a	n/a	n/a	n/a	n/a	n/a	n/a
2224091	PROB	n/a	LTP272	ltpFR	10	n/a	n/a	n/a	n/a	n/a	n/a	n/a	5	2	1	2	n/a	n/a	n/a	n/a	n/a
2225061	PROB	n/a	LTP272	ltpFR	10	n/a	n/a	n/a	n/a	n/a	n/a	n/a	11	5	5	1	n/a	n/a	n/a	n/a	n/a
2225980	PROB	n/a	LTP272	ltpFR	10	n/a	n/a	n/a	n/a	n/a	n/a	n/a	13	5	1	7	n/a	n/a	n/a	n/a	n/a
2227002	PROB	n/a	LTP272	ltpFR	10	n/a	n/a	n/a	n/a	n/a	n/a	n/a	16	5	8	2	n/a	n/a	n/a	n/a	n/a
2228290	PROB	n/a	LTP272	ltpFR	10	n/a	n/a	n/a	n/a	n/a	n/a	n/a	13	2	6	5	n/a	n/a	n/a	n/a	n/a
2230490	STOP	n/a	LTP272	ltpFR	10	n/a	n/a	n/a	n/a	n/a	n/a	n/a	n/a	n/a	n/a	n/a	n/a	n/a	n/a	n/a	n/a
2232055	WORD	wordpools/wasnorm_wordpool_less_exclusions.txt	LTP272	ltpFR	10	9	0	TRIANGLE	1504	n/a	n/a	0	n/a	0	0	0	0.57763671875	0.412841796875	1	upper	amplitud.ttf
2235067	START	n/a	LTP272	ltpFR	10	n/a	n/a	n/a	n/a	n/a	n/a	n/a	n/a	n/a	n/a	n/a	n/a	n/a	n/a	n/a	n/a
2236137	PROB	n/a	LTP272	ltpFR	10	n/a	n/a	n/a	n/a	n/a	n/a	n/a	8	1	2	5	n/a	n/a	n/a	n/a	n/a
2237157	PROB	n/a	LTP272	ltpFR	10	n/a	n/a	n/a	n/a	n/a	n/a	n/a	10	4	1	5	n/a	n/a	n/a	n/a	n/a
2238409	PROB	n/a	LTP272	ltpFR	10	n/a	n/a	n/a	n/a	n/a	n/a	n/a	14	2	5	7	n/a	n/a	n/a	n/a	n/a
2240168	PROB	n/a	LTP272	ltpFR	10	n/a	n/a	n/a	n/a	n/a	n/a	n/a	15	4	4	7	n/a	n/a	n/a	n/a	n/a
2241420	PROB	n/a	LTP272	ltpFR	10	n/a	n/a	n/a	n/a	n/a	n/a	n/a	13	2	6	5	n/a	n/a	n/a	n/a	n/a
2242770	STOP	n/a	LTP272	ltpFR	10	n/a	n/a	n/a	n/a	n/a	n/a	n/a	n/a	n/a	n/a	n/a	n/a	n/a	n/a	n/a	n/a
2244098	WORD	wordpools/wasnorm_wordpool_less_exclusions.txt	LTP272	ltpFR	10	9	0	INSTRUCTOR	741	n/a	n/a	1	n/a	0	0	0	0.57763671875	0.412841796875	1	upper	amplitud.ttf
2247112	START	n/a	LTP272	ltpFR	10	n/a	n/a	n/a	n/a	n/a	n/a	n/a	n/a	n/a	n/a	n/a	n/a	n/a	n/a	n/a	n/a
2248149	PROB	n/a	LTP272	ltpFR	10	n/a	n/a	n/a	n/a	n/a	n/a	n/a	1	8	9	4	n/a	n/a	n/a	n/a	n/a
2249419	PROB	n/a	LTP272	ltpFR	10	n/a	n/a	n/a	n/a	n/a	n/a	n/a	14	2	3	9	n/a	n/a	n/a	n/a	n/a
2250741	PROB	n/a	LTP272	ltpFR	10	n/a	n/a	n/a	n/a	n/a	n/a	n/a	14	5	4	5	n/a	n/a	n/a	n/a	n/a
2251945	PROB	n/a	LTP272	ltpFR	10	n/a	n/a	n/a	n/a	n/a	n/a	n/a	20	6	8	6	n/a	n/a	n/a	n/a	n/a
2253434	PROB	n/a	LTP272	ltpFR	10	n/a	n/a	n/a	n/a	n/a	n/a	n/a	17	4	9	4	n/a	n/a	n/a	n/a	n/a
2254971	STOP	n/a	LTP272	ltpFR	10	n/a	n/a	n/a	n/a	n/a	n/a	n/a	n/a	n/a	n/a	n/a	n/a	n/a	n/a	n/a	n/a
2256179	WORD	wordpools/wasnorm_wordpool_less_exclusions.txt	LTP272	ltpFR	10	9	1	PUPIL	1143	n/a	n/a	1	n/a	0	0	0	0.422607421875	0.5869140625	0	lower	zerothre.ttf
2259191	START	n/a	LTP272	ltpFR	10	n/a	n/a	n/a	n/a	n/a	n/a	n/a	n/a	n/a	n/a	n/a	n/a	n/a	n/a	n/a	n/a
2260394	PROB	n/a	LTP272	ltpFR	10	n/a	n/a	n/a	n/a	n/a	n/a	n/a	22	7	8	7	n/a	n/a	n/a	n/a	n/a
2262201	PROB	n/a	LTP272	ltpFR	10	n/a	n/a	n/a	n/a	n/a	n/a	n/a	22	4	9	9	n/a	n/a	n/a	n/a	n/a
2263740	PROB	n/a	LTP272	ltpFR	10	n/a	n/a	n/a	n/a	n/a	n/a	n/a	10	2	7	1	n/a	n/a	n/a	n/a	n/a
2264943	PROB	n/a	LTP272	ltpFR	10	n/a	n/a	n/a	n/a	n/a	n/a	n/a	20	9	2	9	n/a	n/a	n/a	n/a	n/a
2266458	STOP	n/a	LTP272	ltpFR	10	n/a	n/a	n/a	n/a	n/a	n/a	n/a	n/a	n/a	n/a	n/a	n/a	n/a	n/a	n/a	n/a
2268174	WORD	wordpools/wasnorm_wordpool_less_exclusions.txt	LTP272	ltpFR	10	9	1	SPHINX	1349	n/a	n/a	1	n/a	0	0	0	0.422607421875	0.5869140625	0	lower	zerothre.ttf
2271186	START	n/a	LTP272	ltpFR	10	n/a	n/a	n/a	n/a	n/a	n/a	n/a	n/a	n/a	n/a	n/a	n/a	n/a	n/a	n/a	n/a
2272039	PROB	n/a	LTP272	ltpFR	10	n/a	n/a	n/a	n/a	n/a	n/a	n/a	11	3	1	7	n/a	n/a	n/a	n/a	n/a
2273109	PROB	n/a	LTP272	ltpFR	10	n/a	n/a	n/a	n/a	n/a	n/a	n/a	9	7	1	1	n/a	n/a	n/a	n/a	n/a
2274295	PROB	n/a	LTP272	ltpFR	10	n/a	n/a	n/a	n/a	n/a	n/a	n/a	19	7	7	5	n/a	n/a	n/a	n/a	n/a
2275651	PROB	n/a	LTP272	ltpFR	10	n/a	n/a	n/a	n/a	n/a	n/a	n/a	14	5	3	6	n/a	n/a	n/a	n/a	n/a
2276974	PROB	n/a	LTP272	ltpFR	10	n/a	n/a	n/a	n/a	n/a	n/a	n/a	12	2	1	9	n/a	n/a	n/a	n/a	n/a
2277939	STOP	n/a	LTP272	ltpFR	10	n/a	n/a	n/a	n/a	n/a	n/a	n/a	n/a	n/a	n/a	n/a	n/a	n/a	n/a	n/a	n/a
2280386	WORD	wordpools/wasnorm_wordpool_less_exclusions.txt	LTP272	ltpFR	10	9	1	SCARF	1246	n/a	n/a	0	n/a	0	0	0	0.422607421875	0.5869140625	0	lower	zerothre.ttf
2283398	START	n/a	LTP272	ltpFR	10	n/a	n/a	n/a	n/a	n/a	n/a	n/a	n/a	n/a	n/a	n/a	n/a	n/a	n/a	n/a	n/a
2284401	PROB	n/a	LTP272	ltpFR	10	n/a	n/a	n/a	n/a	n/a	n/a	n/a	18	2	7	9	n/a	n/a	n/a	n/a	n/a
2285822	PROB	n/a	LTP272	ltpFR	10	n/a	n/a	n/a	n/a	n/a	n/a	n/a	19	6	5	8	n/a	n/a	n/a	n/a	n/a
2287145	PROB	n/a	LTP272	ltpFR	10	n/a	n/a	n/a	n/a	n/a	n/a	n/a	17	7	1	9	n/a	n/a	n/a	n/a	n/a
2288433	PROB	n/a	LTP272	ltpFR	10	n/a	n/a	n/a	n/a	n/a	n/a	n/a	1	4	7	9	n/a	n/a	n/a	n/a	n/a
2289687	PROB	n/a	LTP272	ltpFR	10	n/a	n/a	n/a	n/a	n/a	n/a	n/a	15	8	4	3	n/a	n/a	n/a	n/a	n/a
2291003	STOP	n/a	LTP272	ltpFR	10	n/a	n/a	n/a	n/a	n/a	n/a	n/a	n/a	n/a	n/a	n/a	n/a	n/a	n/a	n/a	n/a
2292215	WORD	wordpools/wasnorm_wordpool_less_exclusions.txt	LTP272	ltpFR	10	9	1	KEEPER	769	n/a	n/a	1	n/a	0	0	0	0.422607421875	0.5869140625	0	lower	zerothre.ttf
2295227	START	n/a	LTP272	ltpFR	10	n/a	n/a	n/a	n/a	n/a	n/a	n/a	n/a	n/a	n/a	n/a	n/a	n/a	n/a	n/a	n/a
2296213	PROB	n/a	LTP272	ltpFR	10	n/a	n/a	n/a	n/a	n/a	n/a	n/a	13	9	1	3	n/a	n/a	n/a	n/a	n/a
2297350	PROB	n/a	LTP272	ltpFR	10	n/a	n/a	n/a	n/a	n/a	n/a	n/a	24	7	8	9	n/a	n/a	n/a	n/a	n/a
2298721	PROB	n/a	LTP272	ltpFR	10	n/a	n/a	n/a	n/a	n/a	n/a	n/a	13	3	2	8	n/a	n/a	n/a	n/a	n/a
2300044	PROB	n/a	LTP272	ltpFR	10	n/a	n/a	n/a	n/a	n/a	n/a	n/a	9	4	2	3	n/a	n/a	n/a	n/a	n/a
2301634	STOP	n/a	LTP272	ltpFR	10	n/a	n/a	n/a	n/a	n/a	n/a	n/a	n/a	n/a	n/a	n/a	n/a	n/a	n/a	n/a	n/a
2304226	WORD	wordpools/wasnorm_wordpool_less_exclusions.txt	LTP272	ltpFR	10	9	0	FUR	615	n/a	n/a	0	n/a	0	0	0	0.57763671875	0.412841796875	1	upper	amplitud.ttf
2307239	START	n/a	LTP272	ltpFR	10	n/a	n/a	n/a	n/a	n/a	n/a	n/a	n/a	n/a	n/a	n/a	n/a	n/a	n/a	n/a	n/a
2308341	PROB	n/a	LTP272	ltpFR	10	n/a	n/a	n/a	n/a	n/a	n/a	n/a	18	6	6	6	n/a	n/a	n/a	n/a	n/a
2309661	PROB	n/a	LTP272	ltpFR	10	n/a	n/a	n/a	n/a	n/a	n/a	n/a	10	5	3	2	n/a	n/a	n/a	n/a	n/a
2311872	PROB	n/a	LTP272	ltpFR	10	n/a	n/a	n/a	n/a	n/a	n/a	n/a	12	4	5	3	n/a	n/a	n/a	n/a	n/a
2313008	PROB	n/a	LTP272	ltpFR	10	n/a	n/a	n/a	n/a	n/a	n/a	n/a	14	3	6	5	n/a	n/a	n/a	n/a	n/a
2314482	STOP	n/a	LTP272	ltpFR	10	n/a	n/a	n/a	n/a	n/a	n/a	n/a	n/a	n/a	n/a	n/a	n/a	n/a	n/a	n/a	n/a
2316172	WORD	wordpools/wasnorm_wordpool_less_exclusions.txt	LTP272	ltpFR	10	9	0	SHERIFF	1284	n/a	n/a	1	n/a	0	0	0	0.57763671875	0.412841796875	1	upper	amplitud.ttf
2319184	START	n/a	LTP272	ltpFR	10	n/a	n/a	n/a	n/a	n/a	n/a	n/a	n/a	n/a	n/a	n/a	n/a	n/a	n/a	n/a	n/a
2320036	PROB	n/a	LTP272	ltpFR	10	n/a	n/a	n/a	n/a	n/a	n/a	n/a	15	8	6	1	n/a	n/a	n/a	n/a	n/a
2321241	PROB	n/a	LTP272	ltpFR	10	n/a	n/a	n/a	n/a	n/a	n/a	n/a	12	1	6	5	n/a	n/a	n/a	n/a	n/a
2322376	PROB	n/a	LTP272	ltpFR	10	n/a	n/a	n/a	n/a	n/a	n/a	n/a	24	9	8	7	n/a	n/a	n/a	n/a	n/a
2323850	PROB	n/a	LTP272	ltpFR	10	n/a	n/a	n/a	n/a	n/a	n/a	n/a	15	6	2	7	n/a	n/a	n/a	n/a	n/a
2325022	PROB	n/a	LTP272	ltpFR	10	n/a	n/a	n/a	n/a	n/a	n/a	n/a	9	2	1	6	n/a	n/a	n/a	n/a	n/a
2325979	STOP	n/a	LTP272	ltpFR	10	n/a	n/a	n/a	n/a	n/a	n/a	n/a	n/a	n/a	n/a	n/a	n/a	n/a	n/a	n/a	n/a
2328250	WORD	wordpools/wasnorm_wordpool_less_exclusions.txt	LTP272	ltpFR	10	9	1	SILVERWARE	1308	n/a	n/a	0	n/a	0	0	0	0.422607421875	0.5869140625	0	lower	zerothre.ttf
2331263	START	n/a	LTP272	ltpFR	10	n/a	n/a	n/a	n/a	n/a	n/a	n/a	n/a	n/a	n/a	n/a	n/a	n/a	n/a	n/a	n/a
2332182	PROB	n/a	LTP272	ltpFR	10	n/a	n/a	n/a	n/a	n/a	n/a	n/a	15	7	6	2	n/a	n/a	n/a	n/a	n/a
2333887	PROB	n/a	LTP272	ltpFR	10	n/a	n/a	n/a	n/a	n/a	n/a	n/a	23	9	9	5	n/a	n/a	n/a	n/a	n/a
2336011	PROB	n/a	LTP272	ltpFR	10	n/a	n/a	n/a	n/a	n/a	n/a	n/a	9	5	2	2	n/a	n/a	n/a	n/a	n/a
2337216	PROB	n/a	LTP272	ltpFR	10	n/a	n/a	n/a	n/a	n/a	n/a	n/a	10	1	7	2	n/a	n/a	n/a	n/a	n/a
2338299	STOP	n/a	LTP272	ltpFR	10	n/a	n/a	n/a	n/a	n/a	n/a	n/a	n/a	n/a	n/a	n/a	n/a	n/a	n/a	n/a	n/a
2340212	WORD	wordpools/wasnorm_wordpool_less_exclusions.txt	LTP272	ltpFR	10	9	1	SAW	1239	n/a	n/a	0	n/a	0	0	0	0.422607421875	0.5869140625	0	lower	zerothre.ttf
2343224	START	n/a	LTP272	ltpFR	10	n/a	n/a	n/a	n/a	n/a	n/a	n/a	n/a	n/a	n/a	n/a	n/a	n/a	n/a	n/a	n/a
2344058	PROB	n/a	LTP272	ltpFR	10	n/a	n/a	n/a	n/a	n/a	n/a	n/a	19	7	3	9	n/a	n/a	n/a	n/a	n/a
2345479	PROB	n/a	LTP272	ltpFR	10	n/a	n/a	n/a	n/a	n/a	n/a	n/a	13	2	4	7	n/a	n/a	n/a	n/a	n/a
2346904	PROB	n/a	LTP272	ltpFR	10	n/a	n/a	n/a	n/a	n/a	n/a	n/a	12	9	2	1	n/a	n/a	n/a	n/a	n/a
2347940	PROB	n/a	LTP272	ltpFR	10	n/a	n/a	n/a	n/a	n/a	n/a	n/a	14	6	7	1	n/a	n/a	n/a	n/a	n/a
2349062	PROB	n/a	LTP272	ltpFR	10	n/a	n/a	n/a	n/a	n/a	n/a	n/a	16	2	9	5	n/a	n/a	n/a	n/a	n/a
2350530	STOP	n/a	LTP272	ltpFR	10	n/a	n/a	n/a	n/a	n/a	n/a	n/a	n/a	n/a	n/a	n/a	n/a	n/a	n/a	n/a	n/a
2352306	WORD	wordpools/wasnorm_wordpool_less_exclusions.txt	LTP272	ltpFR	10	9	1	RUM	1217	n/a	n/a	0	n/a	0	0	0	0.422607421875	0.5869140625	0	lower	zerothre.ttf
2355320	START	n/a	LTP272	ltpFR	10	n/a	n/a	n/a	n/a	n/a	n/a	n/a	n/a	n/a	n/a	n/a	n/a	n/a	n/a	n/a	n/a
2356189	PROB	n/a	LTP272	ltpFR	10	n/a	n/a	n/a	n/a	n/a	n/a	n/a	22	8	8	6	n/a	n/a	n/a	n/a	n/a
2357946	PROB	n/a	LTP272	ltpFR	10	n/a	n/a	n/a	n/a	n/a	n/a	n/a	13	6	5	2	n/a	n/a	n/a	n/a	n/a
2359200	PROB	n/a	LTP272	ltpFR	10	n/a	n/a	n/a	n/a	n/a	n/a	n/a	10	3	6	1	n/a	n/a	n/a	n/a	n/a
2360788	PROB	n/a	LTP272	ltpFR	10	n/a	n/a	n/a	n/a	n/a	n/a	n/a	16	5	8	3	n/a	n/a	n/a	n/a	n/a
2361891	STOP	n/a	LTP272	ltpFR	10	n/a	n/a	n/a	n/a	n/a	n/a	n/a	n/a	n/a	n/a	n/a	n/a	n/a	n/a	n/a	n/a
2364518	WORD	wordpools/wasnorm_wordpool_less_exclusions.txt	LTP272	ltpFR	10	9	1	LOOP	844	n/a	n/a	0	n/a	0	0	0	0.422607421875	0.5869140625	0	lower	zerothre.ttf
2367531	START	n/a	LTP272	ltpFR	10	n/a	n/a	n/a	n/a	n/a	n/a	n/a	n/a	n/a	n/a	n/a	n/a	n/a	n/a	n/a	n/a
2368501	PROB	n/a	LTP272	ltpFR	10	n/a	n/a	n/a	n/a	n/a	n/a	n/a	12	4	2	6	n/a	n/a	n/a	n/a	n/a
2370225	PROB	n/a	LTP272	ltpFR	10	n/a	n/a	n/a	n/a	n/a	n/a	n/a	15	9	5	1	n/a	n/a	n/a	n/a	n/a
2371343	PROB	n/a	LTP272	ltpFR	10	n/a	n/a	n/a	n/a	n/a	n/a	n/a	16	2	5	9	n/a	n/a	n/a	n/a	n/a
2373120	PROB	n/a	LTP272	ltpFR	10	n/a	n/a	n/a	n/a	n/a	n/a	n/a	20	8	6	8	n/a	n/a	n/a	n/a	n/a
2374819	STOP	n/a	LTP272	ltpFR	10	n/a	n/a	n/a	n/a	n/a	n/a	n/a	n/a	n/a	n/a	n/a	n/a	n/a	n/a	n/a	n/a
2376682	WORD	wordpools/wasnorm_wordpool_less_exclusions.txt	LTP272	ltpFR	10	9	0	RECEPTIONIST	1174	n/a	n/a	1	n/a	0	0	0	0.57763671875	0.412841796875	1	upper	amplitud.ttf
2379694	START	n/a	LTP272	ltpFR	10	n/a	n/a	n/a	n/a	n/a	n/a	n/a	n/a	n/a	n/a	n/a	n/a	n/a	n/a	n/a	n/a
2380849	PROB	n/a	LTP272	ltpFR	10	n/a	n/a	n/a	n/a	n/a	n/a	n/a	16	8	4	4	n/a	n/a	n/a	n/a	n/a
2382638	PROB	n/a	LTP272	ltpFR	10	n/a	n/a	n/a	n/a	n/a	n/a	n/a	18	9	2	7	n/a	n/a	n/a	n/a	n/a
2384077	PROB	n/a	LTP272	ltpFR	10	n/a	n/a	n/a	n/a	n/a	n/a	n/a	16	7	2	7	n/a	n/a	n/a	n/a	n/a
2385514	PROB	n/a	LTP272	ltpFR	10	n/a	n/a	n/a	n/a	n/a	n/a	n/a	14	4	1	9	n/a	n/a	n/a	n/a	n/a
2386506	STOP	n/a	LTP272	ltpFR	10	n/a	n/a	n/a	n/a	n/a	n/a	n/a	n/a	n/a	n/a	n/a	n/a	n/a	n/a	n/a	n/a
2388609	WORD	wordpools/wasnorm_wordpool_less_exclusions.txt	LTP272	ltpFR	10	9	0	EMPLOYER	532	n/a	n/a	1	n/a	0	0	0	0.57763671875	0.412841796875	1	upper	amplitud.ttf
2391622	START	n/a	LTP272	ltpFR	10	n/a	n/a	n/a	n/a	n/a	n/a	n/a	n/a	n/a	n/a	n/a	n/a	n/a	n/a	n/a	n/a
2392827	PROB	n/a	LTP272	ltpFR	10	n/a	n/a	n/a	n/a	n/a	n/a	n/a	13	5	3	5	n/a	n/a	n/a	n/a	n/a
2394364	PROB	n/a	LTP272	ltpFR	10	n/a	n/a	n/a	n/a	n/a	n/a	n/a	10	1	3	6	n/a	n/a	n/a	n/a	n/a
2395468	PROB	n/a	LTP272	ltpFR	10	n/a	n/a	n/a	n/a	n/a	n/a	n/a	8	2	5	1	n/a	n/a	n/a	n/a	n/a
2396523	PROB	n/a	LTP272	ltpFR	10	n/a	n/a	n/a	n/a	n/a	n/a	n/a	16	9	1	6	n/a	n/a	n/a	n/a	n/a
2397811	PROB	n/a	LTP272	ltpFR	10	n/a	n/a	n/a	n/a	n/a	n/a	n/a	13	1	9	3	n/a	n/a	n/a	n/a	n/a
2398987	STOP	n/a	LTP272	ltpFR	10	n/a	n/a	n/a	n/a	n/a	n/a	n/a	n/a	n/a	n/a	n/a	n/a	n/a	n/a	n/a	n/a
2400790	WORD	wordpools/wasnorm_wordpool_less_exclusions.txt	LTP272	ltpFR	10	9	0	COP	376	n/a	n/a	1	n/a	0	0	0	0.57763671875	0.412841796875	1	upper	amplitud.ttf
2403802	START	n/a	LTP272	ltpFR	10	n/a	n/a	n/a	n/a	n/a	n/a	n/a	n/a	n/a	n/a	n/a	n/a	n/a	n/a	n/a	n/a
2405005	PROB	n/a	LTP272	ltpFR	10	n/a	n/a	n/a	n/a	n/a	n/a	n/a	9	2	4	3	n/a	n/a	n/a	n/a	n/a
2406561	PROB	n/a	LTP272	ltpFR	10	n/a	n/a	n/a	n/a	n/a	n/a	n/a	17	5	8	4	n/a	n/a	n/a	n/a	n/a
2408033	PROB	n/a	LTP272	ltpFR	10	n/a	n/a	n/a	n/a	n/a	n/a	n/a	15	9	1	5	n/a	n/a	n/a	n/a	n/a
2409105	PROB	n/a	LTP272	ltpFR	10	n/a	n/a	n/a	n/a	n/a	n/a	n/a	13	4	5	4	n/a	n/a	n/a	n/a	n/a
2410819	STOP	n/a	LTP272	ltpFR	10	n/a	n/a	n/a	n/a	n/a	n/a	n/a	n/a	n/a	n/a	n/a	n/a	n/a	n/a	n/a	n/a
2413622	REC_START	n/a	LTP272	ltpFR	10	9	n/a	n/a	n/a	n/a	n/a	n/a	n/a	0	0	0	n/a	n/a	n/a	n/a	n/a
2414571	REC_WORD	wordpools/wasnorm_wordpool_less_exclusions.txt	LTP272	ltpFR	10	9	0	RECEPTIONIST	1174	n/a	n/a	1	n/a	0	0	0	n/a	n/a	n/a	n/a	n/a
2416166	REC_WORD	wordpools/wasnorm_wordpool_less_exclusions.txt	LTP272	ltpFR	10	9	0	EMPLOYER	532	n/a	n/a	1	n/a	0	0	0	n/a	n/a	n/a	n/a	n/a
2417801	REC_WORD	wordpools/wasnorm_wordpool_less_exclusions.txt	LTP272	ltpFR	10	9	0	COP	376	n/a	n/a	1	n/a	0	0	0	n/a	n/a	n/a	n/a	n/a
2419575	REC_WORD	wordpools/wasnorm_wordpool_less_exclusions.txt	LTP272	ltpFR	10	9	0	SHERIFF	1284	n/a	n/a	1	n/a	0	0	0	n/a	n/a	n/a	n/a	n/a
2421264	REC_WORD	wordpools/wasnorm_wordpool_less_exclusions.txt	LTP272	ltpFR	10	9	1	SILVERWARE	1308	n/a	n/a	0	n/a	0	0	0	n/a	n/a	n/a	n/a	n/a
2422841	REC_WORD	wordpools/wasnorm_wordpool_less_exclusions.txt	LTP272	ltpFR	10	9	1	SAW	1239	n/a	n/a	0	n/a	0	0	0	n/a	n/a	n/a	n/a	n/a
2425103	REC_WORD	wordpools/wasnorm_wordpool_less_exclusions.txt	LTP272	ltpFR	10	9	1	RUM	1217	n/a	n/a	0	n/a	0	0	0	n/a	n/a	n/a	n/a	n/a
2449369	REC_WORD	wordpools/wasnorm_wordpool_less_exclusions.txt	LTP272	ltpFR	10	9	1	SPHINX	1349	n/a	n/a	1	n/a	0	0	0	n/a	n/a	n/a	n/a	n/a
2450650	REC_WORD	wordpools/wasnorm_wordpool_less_exclusions.txt	LTP272	ltpFR	10	9	1	SCARF	1246	n/a	n/a	0	n/a	0	0	0	n/a	n/a	n/a	n/a	n/a
2452716	REC_WORD	wordpools/wasnorm_wordpool_less_exclusions.txt	LTP272	ltpFR	10	9	1	KEEPER	769	n/a	n/a	1	n/a	0	0	0	n/a	n/a	n/a	n/a	n/a
2455010	REC_WORD	wordpools/wasnorm_wordpool_less_exclusions.txt	LTP272	ltpFR	10	9	0	FUR	615	n/a	n/a	0	n/a	0	0	0	n/a	n/a	n/a	n/a	n/a
2492319	WORD	wordpools/wasnorm_wordpool_less_exclusions.txt	LTP272	ltpFR	10	10	1	DIRECTOR	471	n/a	n/a	1	n/a	0	0	0	0.422607421875	0.5869140625	0	lower	zerothre.ttf
2496534	WORD	wordpools/wasnorm_wordpool_less_exclusions.txt	LTP272	ltpFR	10	10	1	FOLLOWER	589	n/a	n/a	1	n/a	0	0	0	0.422607421875	0.5869140625	0	lower	zerothre.ttf
2500530	WORD	wordpools/wasnorm_wordpool_less_exclusions.txt	LTP272	ltpFR	10	10	1	RADIATOR	1156	n/a	n/a	0	n/a	0	0	0	0.422607421875	0.5869140625	0	lower	zerothre.ttf
2504530	WORD	wordpools/wasnorm_wordpool_less_exclusions.txt	LTP272	ltpFR	10	10	1	CREAM	402	n/a	n/a	0	n/a	0	0	0	0.422607421875	0.5869140625	0	lower	zerothre.ttf
2508395	WORD	wordpools/wasnorm_wordpool_less_exclusions.txt	LTP272	ltpFR	10	10	1	COLONEL	348	n/a	n/a	1	n/a	0	0	0	0.422607421875	0.5869140625	0	lower	zerothre.ttf
2512510	WORD	wordpools/wasnorm_wordpool_less_exclusions.txt	LTP272	ltpFR	10	10	1	BUS	201	n/a	n/a	0	n/a	0	0	0	0.422607421875	0.5869140625	0	lower	zerothre.ttf
2516643	WORD	wordpools/wasnorm_wordpool_less_exclusions.txt	LTP272	ltpFR	10	10	1	SWEATER	1419	n/a	n/a	0	n/a	0	0	0	0.422607421875	0.5869140625	0	lower	zerothre.ttf
2520522	WORD	wordpools/wasnorm_wordpool_less_exclusions.txt	LTP272	ltpFR	10	10	1	DUCK	504	n/a	n/a	1	n/a	0	0	0	0.422607421875	0.5869140625	0	lower	zerothre.ttf
2524472	WORD	wordpools/wasnorm_wordpool_less_exclusions.txt	LTP272	ltpFR	10	10	1	STRAWBERRY	1391	n/a	n/a	1	n/a	0	0	0	0.422607421875	0.5869140625	0	lower	zerothre.ttf
2528588	WORD	wordpools/wasnorm_wordpool_less_exclusions.txt	LTP272	ltpFR	10	10	1	VEHICLE	1553	n/a	n/a	0	n/a	0	0	0	0.422607421875	0.5869140625	0	lower	zerothre.ttf
2532419	WORD	wordpools/wasnorm_wordpool_less_exclusions.txt	LTP272	ltpFR	10	10	1	VALLEY	1545	n/a	n/a	1	n/a	0	0	0	0.422607421875	0.5869140625	0	lower	zerothre.ttf
2536601	WORD	wordpools/wasnorm_wordpool_less_exclusions.txt	LTP272	ltpFR	10	10	1	JACKET	747	n/a	n/a	0	n/a	0	0	0	0.422607421875	0.5869140625	0	lower	zerothre.ttf
2540750	WORD	wordpools/wasnorm_wordpool_less_exclusions.txt	LTP272	ltpFR	10	10	1	MISTER	901	n/a	n/a	1	n/a	0	0	0	0.422607421875	0.5869140625	0	lower	zerothre.ttf
2544817	WORD	wordpools/wasnorm_wordpool_less_exclusions.txt	LTP272	ltpFR	10	10	1	WOMAN	1620	n/a	n/a	1	n/a	0	0	0	0.422607421875	0.5869140625	0	lower	zerothre.ttf
2548680	WORD	wordpools/wasnorm_wordpool_less_exclusions.txt	LTP272	ltpFR	10	10	1	SCISSORS	1250	n/a	n/a	0	n/a	0	0	0	0.422607421875	0.5869140625	0	lower	zerothre.ttf
2552830	WORD	wordpools/wasnorm_wordpool_less_exclusions.txt	LTP272	ltpFR	10	10	1	RAZOR	1171	n/a	n/a	0	n/a	0	0	0	0.422607421875	0.5869140625	0	lower	zerothre.ttf
2558669	REC_START	n/a	LTP272	ltpFR	10	10	n/a	n/a	n/a	n/a	n/a	n/a	n/a	0	0	0	n/a	n/a	n/a	n/a	n/a
2559169	REC_WORD	wordpools/wasnorm_wordpool_less_exclusions.txt	LTP272	ltpFR	10	10	1	MISTER	901	n/a	n/a	1	n/a	0	0	0	n/a	n/a	n/a	n/a	n/a
2560253	REC_WORD	wordpools/wasnorm_wordpool_less_exclusions.txt	LTP272	ltpFR	10	10	1	WOMAN	1620	n/a	n/a	1	n/a	0	0	0	n/a	n/a	n/a	n/a	n/a
2561122	REC_WORD	wordpools/wasnorm_wordpool_less_exclusions.txt	LTP272	ltpFR	10	10	1	SCISSORS	1250	n/a	n/a	0	n/a	0	0	0	n/a	n/a	n/a	n/a	n/a
2562499	REC_WORD	wordpools/wasnorm_wordpool_less_exclusions.txt	LTP272	ltpFR	10	10	1	RAZOR	1171	n/a	n/a	0	n/a	0	0	0	n/a	n/a	n/a	n/a	n/a
2563541	REC_WORD	wordpools/wasnorm_wordpool_less_exclusions.txt	LTP272	ltpFR	10	10	1	STRAWBERRY	1391	n/a	n/a	1	n/a	0	0	0	n/a	n/a	n/a	n/a	n/a
2564904	REC_WORD	wordpools/wasnorm_wordpool_less_exclusions.txt	LTP272	ltpFR	10	10	1	VEHICLE	1553	n/a	n/a	0	n/a	0	0	0	n/a	n/a	n/a	n/a	n/a
2566195	REC_WORD	wordpools/wasnorm_wordpool_less_exclusions.txt	LTP272	ltpFR	10	10	1	VALLEY	1545	n/a	n/a	1	n/a	0	0	0	n/a	n/a	n/a	n/a	n/a
2567509	REC_WORD	wordpools/wasnorm_wordpool_less_exclusions.txt	LTP272	ltpFR	10	10	1	JACKET	747	n/a	n/a	0	n/a	0	0	0	n/a	n/a	n/a	n/a	n/a
