onset	duration	trial_type	sample	stim_file	subject	experiment	session	trial	task	item_name	item_num	recog_conf	resp	answer	test_x	test_y	test_z	color_b	color_g	color_r	case	font
246.044	n/a	SESS_START	123022	n/a	LTP093	ltpFR	8	n/a	n/a	n/a	n/a	5	n/a	n/a	0	0	0	n/a	n/a	n/a	n/a	n/a
302.214	n/a	START	151107	n/a	LTP093	ltpFR	8	n/a	n/a	n/a	n/a	n/a	n/a	n/a	n/a	n/a	n/a	n/a	n/a	n/a	n/a	n/a
302.238	n/a	PROB	151119	n/a	LTP093	ltpFR	8	n/a	n/a	n/a	n/a	n/a	n/a	19	8	8	3	n/a	n/a	n/a	n/a	n/a
304.654	n/a	PROB	152327	n/a	LTP093	ltpFR	8	n/a	n/a	n/a	n/a	n/a	n/a	12	5	2	5	n/a	n/a	n/a	n/a	n/a
305.92	n/a	PROB	152960	n/a	LTP093	ltpFR	8	n/a	n/a	n/a	n/a	n/a	n/a	21	4	9	8	n/a	n/a	n/a	n/a	n/a
308.154	n/a	PROB	154077	n/a	LTP093	ltpFR	8	n/a	n/a	n/a	n/a	n/a	n/a	23	9	5	9	n/a	n/a	n/a	n/a	n/a
310.08	n/a	PROB	155040	n/a	LTP093	ltpFR	8	n/a	n/a	n/a	n/a	n/a	n/a	15	8	2	5	n/a	n/a	n/a	n/a	n/a
311.314	n/a	PROB	155657	n/a	LTP093	ltpFR	8	n/a	n/a	n/a	n/a	n/a	n/a	6	1	3	2	n/a	n/a	n/a	n/a	n/a
312.522	n/a	PROB	156261	n/a	LTP093	ltpFR	8	n/a	n/a	n/a	n/a	n/a	n/a	12	2	1	9	n/a	n/a	n/a	n/a	n/a
313.97	n/a	PROB	156985	n/a	LTP093	ltpFR	8	n/a	n/a	n/a	n/a	n/a	n/a	14	3	2	9	n/a	n/a	n/a	n/a	n/a
315.97	n/a	PROB	157985	n/a	LTP093	ltpFR	8	n/a	n/a	n/a	n/a	n/a	n/a	10	6	3	1	n/a	n/a	n/a	n/a	n/a
317.38	n/a	PROB	158690	n/a	LTP093	ltpFR	8	n/a	n/a	n/a	n/a	n/a	n/a	8	2	3	3	n/a	n/a	n/a	n/a	n/a
319.346	n/a	PROB	159673	n/a	LTP093	ltpFR	8	n/a	n/a	n/a	n/a	n/a	n/a	11	1	5	5	n/a	n/a	n/a	n/a	n/a
322.214	n/a	STOP	161107	n/a	LTP093	ltpFR	8	n/a	n/a	n/a	n/a	n/a	n/a	n/a	n/a	n/a	n/a	n/a	n/a	n/a	n/a	n/a
388.078	n/a	START	194039	n/a	LTP093	ltpFR	8	n/a	n/a	n/a	n/a	n/a	n/a	n/a	n/a	n/a	n/a	n/a	n/a	n/a	n/a	n/a
389.586	n/a	PROB	194793	n/a	LTP093	ltpFR	8	n/a	n/a	n/a	n/a	n/a	n/a	13	2	9	2	n/a	n/a	n/a	n/a	n/a
391.578	n/a	PROB	195789	n/a	LTP093	ltpFR	8	n/a	n/a	n/a	n/a	n/a	n/a	18	8	5	5	n/a	n/a	n/a	n/a	n/a
396.08	n/a	STOP	198040	n/a	LTP093	ltpFR	8	n/a	n/a	n/a	n/a	n/a	n/a	n/a	n/a	n/a	n/a	n/a	n/a	n/a	n/a	n/a
397.018	n/a	WORD	198509	wordpools/wasnorm_wordpool.txt	LTP093	ltpFR	8	1	0	DAISY	435	n/a	0	n/a	0	0	0	0	0.5869140625	0.422607421875	lower	../fonts/amplitud.ttf
400.028	n/a	START	200014	n/a	LTP093	ltpFR	8	n/a	n/a	n/a	n/a	n/a	n/a	n/a	n/a	n/a	n/a	n/a	n/a	n/a	n/a	n/a
400.86	n/a	PROB	200430	n/a	LTP093	ltpFR	8	n/a	n/a	n/a	n/a	n/a	n/a	17	7	4	6	n/a	n/a	n/a	n/a	n/a
404.27	n/a	PROB	202135	n/a	LTP093	ltpFR	8	n/a	n/a	n/a	n/a	n/a	n/a	12	4	5	3	n/a	n/a	n/a	n/a	n/a
405.96	n/a	PROB	202980	n/a	LTP093	ltpFR	8	n/a	n/a	n/a	n/a	n/a	n/a	12	7	4	1	n/a	n/a	n/a	n/a	n/a
407.296	n/a	STOP	203648	n/a	LTP093	ltpFR	8	n/a	n/a	n/a	n/a	n/a	n/a	n/a	n/a	n/a	n/a	n/a	n/a	n/a	n/a	n/a
409.044	n/a	WORD	204522	wordpools/wasnorm_wordpool.txt	LTP093	ltpFR	8	1	0	BEAN	105	n/a	0	n/a	0	0	0	0	0.5869140625	0.422607421875	lower	../fonts/amplitud.ttf
412.052	n/a	START	206026	n/a	LTP093	ltpFR	8	n/a	n/a	n/a	n/a	n/a	n/a	n/a	n/a	n/a	n/a	n/a	n/a	n/a	n/a	n/a
413.052	n/a	PROB	206526	n/a	LTP093	ltpFR	8	n/a	n/a	n/a	n/a	n/a	n/a	12	7	3	2	n/a	n/a	n/a	n/a	n/a
414.262	n/a	PROB	207131	n/a	LTP093	ltpFR	8	n/a	n/a	n/a	n/a	n/a	n/a	19	9	1	9	n/a	n/a	n/a	n/a	n/a
415.678	n/a	PROB	207839	n/a	LTP093	ltpFR	8	n/a	n/a	n/a	n/a	n/a	n/a	12	1	4	7	n/a	n/a	n/a	n/a	n/a
416.976	n/a	PROB	208488	n/a	LTP093	ltpFR	8	n/a	n/a	n/a	n/a	n/a	n/a	11	5	2	4	n/a	n/a	n/a	n/a	n/a
418.792	n/a	STOP	209396	n/a	LTP093	ltpFR	8	n/a	n/a	n/a	n/a	n/a	n/a	n/a	n/a	n/a	n/a	n/a	n/a	n/a	n/a	n/a
421.178	n/a	WORD	210589	wordpools/wasnorm_wordpool.txt	LTP093	ltpFR	8	1	1	SPINACH	1352	n/a	1	n/a	0	0	0	1	0.412841796875	0.57763671875	upper	../fonts/zerothre.ttf
424.186	n/a	START	212093	n/a	LTP093	ltpFR	8	n/a	n/a	n/a	n/a	n/a	n/a	n/a	n/a	n/a	n/a	n/a	n/a	n/a	n/a	n/a
425.086	n/a	PROB	212543	n/a	LTP093	ltpFR	8	n/a	n/a	n/a	n/a	n/a	n/a	15	4	8	3	n/a	n/a	n/a	n/a	n/a
426.726	n/a	PROB	213363	n/a	LTP093	ltpFR	8	n/a	n/a	n/a	n/a	n/a	n/a	19	6	4	9	n/a	n/a	n/a	n/a	n/a
428.56	n/a	PROB	214280	n/a	LTP093	ltpFR	8	n/a	n/a	n/a	n/a	n/a	n/a	11	3	1	7	n/a	n/a	n/a	n/a	n/a
429.876	n/a	PROB	214938	n/a	LTP093	ltpFR	8	n/a	n/a	n/a	n/a	n/a	n/a	198	4	7	8	n/a	n/a	n/a	n/a	n/a
431.776	n/a	STOP	215888	n/a	LTP093	ltpFR	8	n/a	n/a	n/a	n/a	n/a	n/a	n/a	n/a	n/a	n/a	n/a	n/a	n/a	n/a	n/a
433.06	n/a	WORD	216530	wordpools/wasnorm_wordpool.txt	LTP093	ltpFR	8	1	1	GARDEN	623	n/a	0	n/a	0	0	0	1	0.412841796875	0.57763671875	upper	../fonts/zerothre.ttf
436.07	n/a	START	218035	n/a	LTP093	ltpFR	8	n/a	n/a	n/a	n/a	n/a	n/a	n/a	n/a	n/a	n/a	n/a	n/a	n/a	n/a	n/a
436.968	n/a	PROB	218484	n/a	LTP093	ltpFR	8	n/a	n/a	n/a	n/a	n/a	n/a	7	4	1	2	n/a	n/a	n/a	n/a	n/a
438.836	n/a	PROB	219418	n/a	LTP093	ltpFR	8	n/a	n/a	n/a	n/a	n/a	n/a	27	9	9	9	n/a	n/a	n/a	n/a	n/a
442.202	n/a	PROB	221101	n/a	LTP093	ltpFR	8	n/a	n/a	n/a	n/a	n/a	n/a	11	3	7	1	n/a	n/a	n/a	n/a	n/a
443.29	n/a	STOP	221645	n/a	LTP093	ltpFR	8	n/a	n/a	n/a	n/a	n/a	n/a	n/a	n/a	n/a	n/a	n/a	n/a	n/a	n/a	n/a
445.142	n/a	WORD	222571	wordpools/wasnorm_wordpool.txt	LTP093	ltpFR	8	1	1	SHEEP	1278	n/a	1	n/a	0	0	0	1	0.412841796875	0.57763671875	upper	../fonts/zerothre.ttf
448.144	n/a	START	224072	n/a	LTP093	ltpFR	8	n/a	n/a	n/a	n/a	n/a	n/a	n/a	n/a	n/a	n/a	n/a	n/a	n/a	n/a	n/a
449.076	n/a	PROB	224538	n/a	LTP093	ltpFR	8	n/a	n/a	n/a	n/a	n/a	n/a	17	6	7	4	n/a	n/a	n/a	n/a	n/a
452.41	n/a	PROB	226205	n/a	LTP093	ltpFR	8	n/a	n/a	n/a	n/a	n/a	n/a	17	9	2	6	n/a	n/a	n/a	n/a	n/a
453.918	n/a	PROB	226959	n/a	LTP093	ltpFR	8	n/a	n/a	n/a	n/a	n/a	n/a	5	2	2	1	n/a	n/a	n/a	n/a	n/a
455.058	n/a	STOP	227529	n/a	LTP093	ltpFR	8	n/a	n/a	n/a	n/a	n/a	n/a	n/a	n/a	n/a	n/a	n/a	n/a	n/a	n/a	n/a
457.252	n/a	WORD	228626	wordpools/wasnorm_wordpool.txt	LTP093	ltpFR	8	1	1	COW	393	n/a	1	n/a	0	0	0	1	0.412841796875	0.57763671875	upper	../fonts/zerothre.ttf
460.26	n/a	START	230130	n/a	LTP093	ltpFR	8	n/a	n/a	n/a	n/a	n/a	n/a	n/a	n/a	n/a	n/a	n/a	n/a	n/a	n/a	n/a
461.242	n/a	PROB	230621	n/a	LTP093	ltpFR	8	n/a	n/a	n/a	n/a	n/a	n/a	18	9	8	1	n/a	n/a	n/a	n/a	n/a
462.76	n/a	PROB	231380	n/a	LTP093	ltpFR	8	n/a	n/a	n/a	n/a	n/a	n/a	9	3	5	1	n/a	n/a	n/a	n/a	n/a
465.292	n/a	PROB	232646	n/a	LTP093	ltpFR	8	n/a	n/a	n/a	n/a	n/a	n/a	7	3	1	3	n/a	n/a	n/a	n/a	n/a
468.26	n/a	STOP	234130	n/a	LTP093	ltpFR	8	n/a	n/a	n/a	n/a	n/a	n/a	n/a	n/a	n/a	n/a	n/a	n/a	n/a	n/a	n/a
469.418	n/a	WORD	234709	wordpools/wasnorm_wordpool.txt	LTP093	ltpFR	8	1	0	FLIPPER	580	n/a	0	n/a	0	0	0	0	0.5869140625	0.422607421875	lower	../fonts/amplitud.ttf
472.426	n/a	START	236213	n/a	LTP093	ltpFR	8	n/a	n/a	n/a	n/a	n/a	n/a	n/a	n/a	n/a	n/a	n/a	n/a	n/a	n/a	n/a
473.358	n/a	PROB	236679	n/a	LTP093	ltpFR	8	n/a	n/a	n/a	n/a	n/a	n/a	15	3	3	9	n/a	n/a	n/a	n/a	n/a
474.866	n/a	PROB	237433	n/a	LTP093	ltpFR	8	n/a	n/a	n/a	n/a	n/a	n/a	23	7	7	9	n/a	n/a	n/a	n/a	n/a
478.392	n/a	PROB	239196	n/a	LTP093	ltpFR	8	n/a	n/a	n/a	n/a	n/a	n/a	15	4	2	9	n/a	n/a	n/a	n/a	n/a
480.26	n/a	STOP	240130	n/a	LTP093	ltpFR	8	n/a	n/a	n/a	n/a	n/a	n/a	n/a	n/a	n/a	n/a	n/a	n/a	n/a	n/a	n/a
481.518	n/a	WORD	240759	wordpools/wasnorm_wordpool.txt	LTP093	ltpFR	8	1	0	LUNG	850	n/a	0	n/a	0	0	0	0	0.5869140625	0.422607421875	lower	../fonts/amplitud.ttf
484.526	n/a	START	242263	n/a	LTP093	ltpFR	8	n/a	n/a	n/a	n/a	n/a	n/a	n/a	n/a	n/a	n/a	n/a	n/a	n/a	n/a	n/a
485.634	n/a	PROB	242817	n/a	LTP093	ltpFR	8	n/a	n/a	n/a	n/a	n/a	n/a	21	6	8	7	n/a	n/a	n/a	n/a	n/a
488.776	n/a	PROB	244388	n/a	LTP093	ltpFR	8	n/a	n/a	n/a	n/a	n/a	n/a	17	7	6	4	n/a	n/a	n/a	n/a	n/a
492.526	n/a	STOP	246263	n/a	LTP093	ltpFR	8	n/a	n/a	n/a	n/a	n/a	n/a	n/a	n/a	n/a	n/a	n/a	n/a	n/a	n/a	n/a
493.624	n/a	WORD	246812	wordpools/wasnorm_wordpool.txt	LTP093	ltpFR	8	1	0	LOBSTER	837	n/a	0	n/a	0	0	0	0	0.5869140625	0.422607421875	lower	../fonts/amplitud.ttf
496.634	n/a	START	248317	n/a	LTP093	ltpFR	8	n/a	n/a	n/a	n/a	n/a	n/a	n/a	n/a	n/a	n/a	n/a	n/a	n/a	n/a	n/a
497.5	n/a	PROB	248750	n/a	LTP093	ltpFR	8	n/a	n/a	n/a	n/a	n/a	n/a	11	9	1	1	n/a	n/a	n/a	n/a	n/a
498.684	n/a	PROB	249342	n/a	LTP093	ltpFR	8	n/a	n/a	n/a	n/a	n/a	n/a	18	3	9	6	n/a	n/a	n/a	n/a	n/a
500.434	n/a	PROB	250217	n/a	LTP093	ltpFR	8	n/a	n/a	n/a	n/a	n/a	n/a	26	8	9	9	n/a	n/a	n/a	n/a	n/a
503.412	n/a	STOP	251706	n/a	LTP093	ltpFR	8	n/a	n/a	n/a	n/a	n/a	n/a	n/a	n/a	n/a	n/a	n/a	n/a	n/a	n/a	n/a
505.508	n/a	WORD	252754	wordpools/wasnorm_wordpool.txt	LTP093	ltpFR	8	1	0	PERCH	1048	n/a	0	n/a	0	0	0	0	0.5869140625	0.422607421875	lower	../fonts/amplitud.ttf
508.516	n/a	START	254258	n/a	LTP093	ltpFR	8	n/a	n/a	n/a	n/a	n/a	n/a	n/a	n/a	n/a	n/a	n/a	n/a	n/a	n/a	n/a
509.358	n/a	PROB	254679	n/a	LTP093	ltpFR	8	n/a	n/a	n/a	n/a	n/a	n/a	15	5	5	5	n/a	n/a	n/a	n/a	n/a
510.424	n/a	PROB	255212	n/a	LTP093	ltpFR	8	n/a	n/a	n/a	n/a	n/a	n/a	7	3	3	1	n/a	n/a	n/a	n/a	n/a
511.632	n/a	PROB	255816	n/a	LTP093	ltpFR	8	n/a	n/a	n/a	n/a	n/a	n/a	12	1	2	9	n/a	n/a	n/a	n/a	n/a
512.99	n/a	PROB	256495	n/a	LTP093	ltpFR	8	n/a	n/a	n/a	n/a	n/a	n/a	13	2	9	2	n/a	n/a	n/a	n/a	n/a
516.518	n/a	STOP	258259	n/a	LTP093	ltpFR	8	n/a	n/a	n/a	n/a	n/a	n/a	n/a	n/a	n/a	n/a	n/a	n/a	n/a	n/a	n/a
517.566	n/a	WORD	258783	wordpools/wasnorm_wordpool.txt	LTP093	ltpFR	8	1	1	PUB	1135	n/a	0	n/a	0	0	0	1	0.412841796875	0.57763671875	upper	../fonts/zerothre.ttf
520.576	n/a	START	260288	n/a	LTP093	ltpFR	8	n/a	n/a	n/a	n/a	n/a	n/a	n/a	n/a	n/a	n/a	n/a	n/a	n/a	n/a	n/a
521.474	n/a	PROB	260737	n/a	LTP093	ltpFR	8	n/a	n/a	n/a	n/a	n/a	n/a	19	7	9	3	n/a	n/a	n/a	n/a	n/a
522.848	n/a	PROB	261424	n/a	LTP093	ltpFR	8	n/a	n/a	n/a	n/a	n/a	n/a	25	9	8	8	n/a	n/a	n/a	n/a	n/a
525.158	n/a	PROB	262579	n/a	LTP093	ltpFR	8	n/a	n/a	n/a	n/a	n/a	n/a	11	2	4	5	n/a	n/a	n/a	n/a	n/a
526.948	n/a	PROB	263474	n/a	LTP093	ltpFR	8	n/a	n/a	n/a	n/a	n/a	n/a	15	5	6	4	n/a	n/a	n/a	n/a	n/a
528.27	n/a	STOP	264135	n/a	LTP093	ltpFR	8	n/a	n/a	n/a	n/a	n/a	n/a	n/a	n/a	n/a	n/a	n/a	n/a	n/a	n/a	n/a
529.732	n/a	WORD	264866	wordpools/wasnorm_wordpool.txt	LTP093	ltpFR	8	1	1	SKIN	1318	n/a	1	n/a	0	0	0	1	0.412841796875	0.57763671875	upper	../fonts/zerothre.ttf
532.74	n/a	START	266370	n/a	LTP093	ltpFR	8	n/a	n/a	n/a	n/a	n/a	n/a	n/a	n/a	n/a	n/a	n/a	n/a	n/a	n/a	n/a
533.64	n/a	PROB	266820	n/a	LTP093	ltpFR	8	n/a	n/a	n/a	n/a	n/a	n/a	11	3	3	5	n/a	n/a	n/a	n/a	n/a
535.648	n/a	PROB	267824	n/a	LTP093	ltpFR	8	n/a	n/a	n/a	n/a	n/a	n/a	21	9	9	3	n/a	n/a	n/a	n/a	n/a
540.742	n/a	STOP	270371	n/a	LTP093	ltpFR	8	n/a	n/a	n/a	n/a	n/a	n/a	n/a	n/a	n/a	n/a	n/a	n/a	n/a	n/a	n/a
541.558	n/a	WORD	270779	wordpools/wasnorm_wordpool.txt	LTP093	ltpFR	8	1	1	SHARK	1275	n/a	1	n/a	0	0	0	1	0.412841796875	0.57763671875	upper	../fonts/zerothre.ttf
544.566	n/a	START	272283	n/a	LTP093	ltpFR	8	n/a	n/a	n/a	n/a	n/a	n/a	n/a	n/a	n/a	n/a	n/a	n/a	n/a	n/a	n/a
545.698	n/a	PROB	272849	n/a	LTP093	ltpFR	8	n/a	n/a	n/a	n/a	n/a	n/a	16	8	1	7	n/a	n/a	n/a	n/a	n/a
547.766	n/a	PROB	273883	n/a	LTP093	ltpFR	8	n/a	n/a	n/a	n/a	n/a	n/a	16	4	8	4	n/a	n/a	n/a	n/a	n/a
550.424	n/a	PROB	275212	n/a	LTP093	ltpFR	8	n/a	n/a	n/a	n/a	n/a	n/a	7	4	2	1	n/a	n/a	n/a	n/a	n/a
551.894	n/a	STOP	275947	n/a	LTP093	ltpFR	8	n/a	n/a	n/a	n/a	n/a	n/a	n/a	n/a	n/a	n/a	n/a	n/a	n/a	n/a	n/a
553.664	n/a	WORD	276832	wordpools/wasnorm_wordpool.txt	LTP093	ltpFR	8	1	1	OCTOPUS	971	n/a	1	n/a	0	0	0	1	0.412841796875	0.57763671875	upper	../fonts/zerothre.ttf
556.666	n/a	START	278333	n/a	LTP093	ltpFR	8	n/a	n/a	n/a	n/a	n/a	n/a	n/a	n/a	n/a	n/a	n/a	n/a	n/a	n/a	n/a
557.632	n/a	PROB	278816	n/a	LTP093	ltpFR	8	n/a	n/a	n/a	n/a	n/a	n/a	12	9	1	2	n/a	n/a	n/a	n/a	n/a
558.774	n/a	PROB	279387	n/a	LTP093	ltpFR	8	n/a	n/a	n/a	n/a	n/a	n/a	23	7	9	7	n/a	n/a	n/a	n/a	n/a
561.656	n/a	PROB	280828	n/a	LTP093	ltpFR	8	n/a	n/a	n/a	n/a	n/a	n/a	19	6	9	4	n/a	n/a	n/a	n/a	n/a
563.752	n/a	STOP	281876	n/a	LTP093	ltpFR	8	n/a	n/a	n/a	n/a	n/a	n/a	n/a	n/a	n/a	n/a	n/a	n/a	n/a	n/a	n/a
565.806	n/a	WORD	282903	wordpools/wasnorm_wordpool.txt	LTP093	ltpFR	8	1	0	IGLOO	734	n/a	1	n/a	0	0	0	0	0.5869140625	0.422607421875	lower	../fonts/amplitud.ttf
568.816	n/a	START	284408	n/a	LTP093	ltpFR	8	n/a	n/a	n/a	n/a	n/a	n/a	n/a	n/a	n/a	n/a	n/a	n/a	n/a	n/a	n/a
569.88	n/a	PROB	284940	n/a	LTP093	ltpFR	8	n/a	n/a	n/a	n/a	n/a	n/a	9	5	2	2	n/a	n/a	n/a	n/a	n/a
571.148	n/a	PROB	285574	n/a	LTP093	ltpFR	8	n/a	n/a	n/a	n/a	n/a	n/a	23	8	6	9	n/a	n/a	n/a	n/a	n/a
573.364	n/a	PROB	286682	n/a	LTP093	ltpFR	8	n/a	n/a	n/a	n/a	n/a	n/a	15	1	5	9	n/a	n/a	n/a	n/a	n/a
576.816	n/a	STOP	288408	n/a	LTP093	ltpFR	8	n/a	n/a	n/a	n/a	n/a	n/a	n/a	n/a	n/a	n/a	n/a	n/a	n/a	n/a	n/a
577.664	n/a	WORD	288832	wordpools/wasnorm_wordpool.txt	LTP093	ltpFR	8	1	0	FROST	609	n/a	0	n/a	0	0	0	0	0.5869140625	0.422607421875	lower	../fonts/amplitud.ttf
580.666	n/a	START	290333	n/a	LTP093	ltpFR	8	n/a	n/a	n/a	n/a	n/a	n/a	n/a	n/a	n/a	n/a	n/a	n/a	n/a	n/a	n/a
581.698	n/a	PROB	290849	n/a	LTP093	ltpFR	8	n/a	n/a	n/a	n/a	n/a	n/a	20	9	2	9	n/a	n/a	n/a	n/a	n/a
583.356	n/a	PROB	291678	n/a	LTP093	ltpFR	8	n/a	n/a	n/a	n/a	n/a	n/a	20	5	8	7	n/a	n/a	n/a	n/a	n/a
585.806	n/a	PROB	292903	n/a	LTP093	ltpFR	8	n/a	n/a	n/a	n/a	n/a	n/a	22	7	9	6	n/a	n/a	n/a	n/a	n/a
588.232	n/a	STOP	294116	n/a	LTP093	ltpFR	8	n/a	n/a	n/a	n/a	n/a	n/a	n/a	n/a	n/a	n/a	n/a	n/a	n/a	n/a	n/a
590.448	n/a	REC_START	295224	n/a	LTP093	ltpFR	8	1	n/a	n/a	n/a	n/a	n/a	n/a	0	0	0	n/a	n/a	n/a	n/a	n/a
591.698	n/a	REC_WORD	295849	wordpools/wasnorm_wordpool.txt	LTP093	ltpFR	8	1	1	OCTOPUS	971	n/a	1	n/a	0	0	0	n/a	n/a	n/a	n/a	n/a
592.878	n/a	REC_WORD	296439	wordpools/wasnorm_wordpool.txt	LTP093	ltpFR	8	1	1	SHARK	1275	n/a	1	n/a	0	0	0	n/a	n/a	n/a	n/a	n/a
594.12	n/a	REC_WORD	297060	wordpools/wasnorm_wordpool.txt	LTP093	ltpFR	8	1	0	BEAN	105	n/a	0	n/a	0	0	0	n/a	n/a	n/a	n/a	n/a
595.258	n/a	REC_WORD	297629	wordpools/wasnorm_wordpool.txt	LTP093	ltpFR	8	1	0	DAISY	435	n/a	0	n/a	0	0	0	n/a	n/a	n/a	n/a	n/a
596.6	n/a	REC_WORD	298300	wordpools/wasnorm_wordpool.txt	LTP093	ltpFR	8	1	1	GARDEN	623	n/a	0	n/a	0	0	0	n/a	n/a	n/a	n/a	n/a
603.01	n/a	REC_WORD	301505	wordpools/wasnorm_wordpool.txt	LTP093	ltpFR	8	1	0	FROST	609	n/a	0	n/a	0	0	0	n/a	n/a	n/a	n/a	n/a
606.048	n/a	REC_WORD	303024	wordpools/wasnorm_wordpool.txt	LTP093	ltpFR	8	1	0	IGLOO	734	n/a	1	n/a	0	0	0	n/a	n/a	n/a	n/a	n/a
722.894	n/a	WORD	361447	wordpools/wasnorm_wordpool.txt	LTP093	ltpFR	8	2	0	ZIPPER	1636	n/a	0	n/a	0	0	0	0	0.5869140625	0.422607421875	lower	../fonts/amplitud.ttf
726.736	n/a	WORD	363368	wordpools/wasnorm_wordpool.txt	LTP093	ltpFR	8	2	0	SHIRT	1287	n/a	0	n/a	0	0	0	0	0.5869140625	0.422607421875	lower	../fonts/amplitud.ttf
730.868	n/a	WORD	365434	wordpools/wasnorm_wordpool.txt	LTP093	ltpFR	8	2	0	AUNT	60	n/a	1	n/a	0	0	0	0	0.5869140625	0.422607421875	lower	../fonts/amplitud.ttf
735.068	n/a	WORD	367534	wordpools/wasnorm_wordpool.txt	LTP093	ltpFR	8	2	0	TIGER	1467	n/a	1	n/a	0	0	0	0	0.5869140625	0.422607421875	lower	../fonts/amplitud.ttf
739.084	n/a	WORD	369542	wordpools/wasnorm_wordpool.txt	LTP093	ltpFR	8	2	0	WILDERNESS	1610	n/a	1	n/a	0	0	0	0	0.5869140625	0.422607421875	lower	../fonts/amplitud.ttf
742.918	n/a	WORD	371459	wordpools/wasnorm_wordpool.txt	LTP093	ltpFR	8	2	0	MITTEN	902	n/a	0	n/a	0	0	0	0	0.5869140625	0.422607421875	lower	../fonts/amplitud.ttf
746.876	n/a	WORD	373438	wordpools/wasnorm_wordpool.txt	LTP093	ltpFR	8	2	0	MARGARINE	868	n/a	0	n/a	0	0	0	0	0.5869140625	0.422607421875	lower	../fonts/amplitud.ttf
750.734	n/a	WORD	375367	wordpools/wasnorm_wordpool.txt	LTP093	ltpFR	8	2	0	FAUCET	555	n/a	0	n/a	0	0	0	0	0.5869140625	0.422607421875	lower	../fonts/amplitud.ttf
754.918	n/a	WORD	377459	wordpools/wasnorm_wordpool.txt	LTP093	ltpFR	8	2	0	ZEBRA	1635	n/a	1	n/a	0	0	0	0	0.5869140625	0.422607421875	lower	../fonts/amplitud.ttf
759.102	n/a	WORD	379551	wordpools/wasnorm_wordpool.txt	LTP093	ltpFR	8	2	0	PEPPER	1047	n/a	0	n/a	0	0	0	0	0.5869140625	0.422607421875	lower	../fonts/amplitud.ttf
762.934	n/a	WORD	381467	wordpools/wasnorm_wordpool.txt	LTP093	ltpFR	8	2	0	COMET	353	n/a	1	n/a	0	0	0	0	0.5869140625	0.422607421875	lower	../fonts/amplitud.ttf
767.134	n/a	WORD	383567	wordpools/wasnorm_wordpool.txt	LTP093	ltpFR	8	2	0	VIDEO	1564	n/a	0	n/a	0	0	0	0	0.5869140625	0.422607421875	lower	../fonts/amplitud.ttf
771.226	n/a	WORD	385613	wordpools/wasnorm_wordpool.txt	LTP093	ltpFR	8	2	0	TELEVISION	1447	n/a	1	n/a	0	0	0	0	0.5869140625	0.422607421875	lower	../fonts/amplitud.ttf
775.3	n/a	WORD	387650	wordpools/wasnorm_wordpool.txt	LTP093	ltpFR	8	2	0	PALM	1007	n/a	0	n/a	0	0	0	0	0.5869140625	0.422607421875	lower	../fonts/amplitud.ttf
779.484	n/a	WORD	389742	wordpools/wasnorm_wordpool.txt	LTP093	ltpFR	8	2	0	PONY	1102	n/a	0	n/a	0	0	0	0	0.5869140625	0.422607421875	lower	../fonts/amplitud.ttf
783.518	n/a	WORD	391759	wordpools/wasnorm_wordpool.txt	LTP093	ltpFR	8	2	0	OATMEAL	967	n/a	0	n/a	0	0	0	0	0.5869140625	0.422607421875	lower	../fonts/amplitud.ttf
786.526	n/a	START	393263	n/a	LTP093	ltpFR	8	n/a	n/a	n/a	n/a	n/a	n/a	n/a	n/a	n/a	n/a	n/a	n/a	n/a	n/a	n/a
787.56	n/a	PROB	393780	n/a	LTP093	ltpFR	8	n/a	n/a	n/a	n/a	n/a	n/a	26	7	8	9	n/a	n/a	n/a	n/a	n/a
790.592	n/a	PROB	395296	n/a	LTP093	ltpFR	8	n/a	n/a	n/a	n/a	n/a	n/a	28	8	4	6	n/a	n/a	n/a	n/a	n/a
794.45	n/a	STOP	397225	n/a	LTP093	ltpFR	8	n/a	n/a	n/a	n/a	n/a	n/a	n/a	n/a	n/a	n/a	n/a	n/a	n/a	n/a	n/a
796.284	n/a	REC_START	398142	n/a	LTP093	ltpFR	8	2	n/a	n/a	n/a	n/a	n/a	n/a	0	0	0	n/a	n/a	n/a	n/a	n/a
797.382	n/a	REC_WORD	398691	wordpools/wasnorm_wordpool.txt	LTP093	ltpFR	8	2	0	OATMEAL	967	n/a	0	n/a	0	0	0	n/a	n/a	n/a	n/a	n/a
798.444	n/a	REC_WORD	399222	wordpools/wasnorm_wordpool.txt	LTP093	ltpFR	8	2	0	PONY	1102	n/a	0	n/a	0	0	0	n/a	n/a	n/a	n/a	n/a
799.288	n/a	REC_WORD	399644	wordpools/wasnorm_wordpool.txt	LTP093	ltpFR	8	2	0	ZEBRA	1635	n/a	1	n/a	0	0	0	n/a	n/a	n/a	n/a	n/a
800.464	n/a	REC_WORD	400232	wordpools/wasnorm_wordpool.txt	LTP093	ltpFR	8	2	0	ZIPPER	1636	n/a	0	n/a	0	0	0	n/a	n/a	n/a	n/a	n/a
801.432	n/a	REC_WORD	400716	wordpools/wasnorm_wordpool.txt	LTP093	ltpFR	8	2	0	SHIRT	1287	n/a	0	n/a	0	0	0	n/a	n/a	n/a	n/a	n/a
803.084	n/a	REC_WORD	401542	wordpools/wasnorm_wordpool.txt	LTP093	ltpFR	8	2	0	FAUCET	555	n/a	0	n/a	0	0	0	n/a	n/a	n/a	n/a	n/a
804.896	n/a	REC_WORD	402448	wordpools/wasnorm_wordpool.txt	LTP093	ltpFR	8	2	0	WILDERNESS	1610	n/a	1	n/a	0	0	0	n/a	n/a	n/a	n/a	n/a
806.064	n/a	REC_WORD	403032	wordpools/wasnorm_wordpool.txt	LTP093	ltpFR	8	2	0	TIGER	1467	n/a	1	n/a	0	0	0	n/a	n/a	n/a	n/a	n/a
807.59	n/a	REC_WORD	403795	wordpools/wasnorm_wordpool.txt	LTP093	ltpFR	8	2	0	AUNT	60	n/a	1	n/a	0	0	0	n/a	n/a	n/a	n/a	n/a
823.28	n/a	REC_WORD	411640	wordpools/wasnorm_wordpool.txt	LTP093	ltpFR	8	2	0	PEPPER	1047	n/a	0	n/a	0	0	0	n/a	n/a	n/a	n/a	n/a
907.106	n/a	WORD	453553	wordpools/wasnorm_wordpool.txt	LTP093	ltpFR	8	3	0	SERPENT	1270	n/a	1	n/a	0	0	0	0	0.5869140625	0.422607421875	lower	../fonts/amplitud.ttf
910.988	n/a	WORD	455494	wordpools/wasnorm_wordpool.txt	LTP093	ltpFR	8	3	0	BARK	87	n/a	0	n/a	0	0	0	0	0.5869140625	0.422607421875	lower	../fonts/amplitud.ttf
915.03	n/a	WORD	457515	wordpools/wasnorm_wordpool.txt	LTP093	ltpFR	8	3	1	HAND	683	n/a	1	n/a	0	0	0	1	0.412841796875	0.57763671875	upper	../fonts/zerothre.ttf
919.056	n/a	WORD	459528	wordpools/wasnorm_wordpool.txt	LTP093	ltpFR	8	3	1	PILOT	1070	n/a	1	n/a	0	0	0	1	0.412841796875	0.57763671875	upper	../fonts/zerothre.ttf
923.246	n/a	WORD	461623	wordpools/wasnorm_wordpool.txt	LTP093	ltpFR	8	3	1	HIKER	708	n/a	1	n/a	0	0	0	1	0.412841796875	0.57763671875	upper	../fonts/zerothre.ttf
927.38	n/a	WORD	463690	wordpools/wasnorm_wordpool.txt	LTP093	ltpFR	8	3	1	FOOTBALL	591	n/a	0	n/a	0	0	0	1	0.412841796875	0.57763671875	upper	../fonts/zerothre.ttf
931.248	n/a	WORD	465624	wordpools/wasnorm_wordpool.txt	LTP093	ltpFR	8	3	0	CROCODILE	411	n/a	1	n/a	0	0	0	0	0.5869140625	0.422607421875	lower	../fonts/amplitud.ttf
935.106	n/a	WORD	467553	wordpools/wasnorm_wordpool.txt	LTP093	ltpFR	8	3	0	AIRCRAFT	11	n/a	1	n/a	0	0	0	0	0.5869140625	0.422607421875	lower	../fonts/amplitud.ttf
939.23	n/a	WORD	469615	wordpools/wasnorm_wordpool.txt	LTP093	ltpFR	8	3	0	AIRPLANE	12	n/a	1	n/a	0	0	0	0	0.5869140625	0.422607421875	lower	../fonts/amplitud.ttf
943.188	n/a	WORD	471594	wordpools/wasnorm_wordpool.txt	LTP093	ltpFR	8	3	0	FAMILY	550	n/a	0	n/a	0	0	0	0	0.5869140625	0.422607421875	lower	../fonts/amplitud.ttf
947.338	n/a	WORD	473669	wordpools/wasnorm_wordpool.txt	LTP093	ltpFR	8	3	0	RELATIVE	1182	n/a	0	n/a	0	0	0	0	0.5869140625	0.422607421875	lower	../fonts/amplitud.ttf
951.246	n/a	WORD	475623	wordpools/wasnorm_wordpool.txt	LTP093	ltpFR	8	3	0	UNDERWEAR	1537	n/a	0	n/a	0	0	0	0	0.5869140625	0.422607421875	lower	../fonts/amplitud.ttf
955.196	n/a	WORD	477598	wordpools/wasnorm_wordpool.txt	LTP093	ltpFR	8	3	1	SAND	1230	n/a	0	n/a	0	0	0	1	0.412841796875	0.57763671875	upper	../fonts/zerothre.ttf
959.27	n/a	WORD	479635	wordpools/wasnorm_wordpool.txt	LTP093	ltpFR	8	3	1	TURTLE	1522	n/a	1	n/a	0	0	0	1	0.412841796875	0.57763671875	upper	../fonts/zerothre.ttf
963.412	n/a	WORD	481706	wordpools/wasnorm_wordpool.txt	LTP093	ltpFR	8	3	1	BUSH	202	n/a	1	n/a	0	0	0	1	0.412841796875	0.57763671875	upper	../fonts/zerothre.ttf
967.58	n/a	WORD	483790	wordpools/wasnorm_wordpool.txt	LTP093	ltpFR	8	3	1	GLOVE	642	n/a	0	n/a	0	0	0	1	0.412841796875	0.57763671875	upper	../fonts/zerothre.ttf
973.288	n/a	REC_START	486644	n/a	LTP093	ltpFR	8	3	n/a	n/a	n/a	n/a	n/a	n/a	0	0	0	n/a	n/a	n/a	n/a	n/a
974.196	n/a	REC_WORD	487098	wordpools/wasnorm_wordpool.txt	LTP093	ltpFR	8	3	1	GLOVE	642	n/a	0	n/a	0	0	0	n/a	n/a	n/a	n/a	n/a
975.404	n/a	REC_WORD	487702	wordpools/wasnorm_wordpool.txt	LTP093	ltpFR	8	3	1	TURTLE	1522	n/a	1	n/a	0	0	0	n/a	n/a	n/a	n/a	n/a
976.55	n/a	REC_WORD	488275	wordpools/wasnorm_wordpool.txt	LTP093	ltpFR	8	3	0	CROCODILE	411	n/a	1	n/a	0	0	0	n/a	n/a	n/a	n/a	n/a
977.694	n/a	REC_WORD	488847	wordpools/wasnorm_wordpool.txt	LTP093	ltpFR	8	3	0	SERPENT	1270	n/a	1	n/a	0	0	0	n/a	n/a	n/a	n/a	n/a
979.09	n/a	REC_WORD	489545	wordpools/wasnorm_wordpool.txt	LTP093	ltpFR	8	3	0	AIRCRAFT	11	n/a	1	n/a	0	0	0	n/a	n/a	n/a	n/a	n/a
980.462	n/a	REC_WORD	490231	wordpools/wasnorm_wordpool.txt	LTP093	ltpFR	8	3	0	AIRPLANE	12	n/a	1	n/a	0	0	0	n/a	n/a	n/a	n/a	n/a
981.854	n/a	REC_WORD	490927	wordpools/wasnorm_wordpool.txt	LTP093	ltpFR	8	3	1	HIKER	708	n/a	1	n/a	0	0	0	n/a	n/a	n/a	n/a	n/a
983.17	n/a	REC_WORD	491585	wordpools/wasnorm_wordpool.txt	LTP093	ltpFR	8	3	1	PILOT	1070	n/a	1	n/a	0	0	0	n/a	n/a	n/a	n/a	n/a
991.618	n/a	REC_WORD	495809	wordpools/wasnorm_wordpool.txt	LTP093	ltpFR	8	3	1	HAND	683	n/a	1	n/a	0	0	0	n/a	n/a	n/a	n/a	n/a
1001.64	n/a	REC_WORD	500820	wordpools/wasnorm_wordpool.txt	LTP093	ltpFR	8	3	0	RELATIVE	1182	n/a	0	n/a	0	0	0	n/a	n/a	n/a	n/a	n/a
1002.982	n/a	REC_WORD	501491	wordpools/wasnorm_wordpool.txt	LTP093	ltpFR	8	3	0	FAMILY	550	n/a	0	n/a	0	0	0	n/a	n/a	n/a	n/a	n/a
1102.3	n/a	WORD	551150	wordpools/wasnorm_wordpool.txt	LTP093	ltpFR	8	4	0	BULB	192	n/a	0	n/a	0	0	0	0	0.5869140625	0.422607421875	lower	../fonts/amplitud.ttf
1106.284	n/a	WORD	553142	wordpools/wasnorm_wordpool.txt	LTP093	ltpFR	8	4	0	LASER	801	n/a	1	n/a	0	0	0	0	0.5869140625	0.422607421875	lower	../fonts/amplitud.ttf
1110.368	n/a	WORD	555184	wordpools/wasnorm_wordpool.txt	LTP093	ltpFR	8	4	0	SWIMMER	1420	n/a	0	n/a	0	0	0	0	0.5869140625	0.422607421875	lower	../fonts/amplitud.ttf
1114.268	n/a	WORD	557134	wordpools/wasnorm_wordpool.txt	LTP093	ltpFR	8	4	0	PORCH	1106	n/a	0	n/a	0	0	0	0	0.5869140625	0.422607421875	lower	../fonts/amplitud.ttf
1118.126	n/a	WORD	559063	wordpools/wasnorm_wordpool.txt	LTP093	ltpFR	8	4	0	BRICK	172	n/a	0	n/a	0	0	0	0	0.5869140625	0.422607421875	lower	../fonts/amplitud.ttf
1122.032	n/a	WORD	561016	wordpools/wasnorm_wordpool.txt	LTP093	ltpFR	8	4	0	ALMOND	18	n/a	0	n/a	0	0	0	0	0.5869140625	0.422607421875	lower	../fonts/amplitud.ttf
1126.184	n/a	WORD	563092	wordpools/wasnorm_wordpool.txt	LTP093	ltpFR	8	4	0	RUBY	1214	n/a	0	n/a	0	0	0	0	0.5869140625	0.422607421875	lower	../fonts/amplitud.ttf
1130.308	n/a	WORD	565154	wordpools/wasnorm_wordpool.txt	LTP093	ltpFR	8	4	0	PUPPY	1144	n/a	0	n/a	0	0	0	0	0.5869140625	0.422607421875	lower	../fonts/amplitud.ttf
1134.484	n/a	WORD	567242	wordpools/wasnorm_wordpool.txt	LTP093	ltpFR	8	4	0	BRIDGE	174	n/a	1	n/a	0	0	0	0	0.5869140625	0.422607421875	lower	../fonts/amplitud.ttf
1138.342	n/a	WORD	569171	wordpools/wasnorm_wordpool.txt	LTP093	ltpFR	8	4	0	DONKEY	484	n/a	0	n/a	0	0	0	0	0.5869140625	0.422607421875	lower	../fonts/amplitud.ttf
1142.45	n/a	WORD	571225	wordpools/wasnorm_wordpool.txt	LTP093	ltpFR	8	4	0	PLASTER	1085	n/a	1	n/a	0	0	0	0	0.5869140625	0.422607421875	lower	../fonts/amplitud.ttf
1146.382	n/a	WORD	573191	wordpools/wasnorm_wordpool.txt	LTP093	ltpFR	8	4	0	BAY	102	n/a	1	n/a	0	0	0	0	0.5869140625	0.422607421875	lower	../fonts/amplitud.ttf
1150.524	n/a	WORD	575262	wordpools/wasnorm_wordpool.txt	LTP093	ltpFR	8	4	0	CAMEL	223	n/a	1	n/a	0	0	0	0	0.5869140625	0.422607421875	lower	../fonts/amplitud.ttf
1154.366	n/a	WORD	577183	wordpools/wasnorm_wordpool.txt	LTP093	ltpFR	8	4	0	PARIS	1014	n/a	1	n/a	0	0	0	0	0.5869140625	0.422607421875	lower	../fonts/amplitud.ttf
1158.408	n/a	WORD	579204	wordpools/wasnorm_wordpool.txt	LTP093	ltpFR	8	4	0	PREDATOR	1120	n/a	1	n/a	0	0	0	0	0.5869140625	0.422607421875	lower	../fonts/amplitud.ttf
1162.308	n/a	WORD	581154	wordpools/wasnorm_wordpool.txt	LTP093	ltpFR	8	4	0	COOLER	375	n/a	0	n/a	0	0	0	0	0.5869140625	0.422607421875	lower	../fonts/amplitud.ttf
1165.316	n/a	START	582658	n/a	LTP093	ltpFR	8	n/a	n/a	n/a	n/a	n/a	n/a	n/a	n/a	n/a	n/a	n/a	n/a	n/a	n/a	n/a
1166.324	n/a	PROB	583162	n/a	LTP093	ltpFR	8	n/a	n/a	n/a	n/a	n/a	n/a	12	3	5	4	n/a	n/a	n/a	n/a	n/a
1168.624	n/a	PROB	584312	n/a	LTP093	ltpFR	8	n/a	n/a	n/a	n/a	n/a	n/a	21	5	9	7	n/a	n/a	n/a	n/a	n/a
1170.582	n/a	PROB	585291	n/a	LTP093	ltpFR	8	n/a	n/a	n/a	n/a	n/a	n/a	20	6	7	7	n/a	n/a	n/a	n/a	n/a
1172.35	n/a	PROB	586175	n/a	LTP093	ltpFR	8	n/a	n/a	n/a	n/a	n/a	n/a	19	8	6	5	n/a	n/a	n/a	n/a	n/a
1174.374	n/a	PROB	587187	n/a	LTP093	ltpFR	8	n/a	n/a	n/a	n/a	n/a	n/a	13	5	7	1	n/a	n/a	n/a	n/a	n/a
1176.482	n/a	PROB	588241	n/a	LTP093	ltpFR	8	n/a	n/a	n/a	n/a	n/a	n/a	19	9	5	5	n/a	n/a	n/a	n/a	n/a
1177.774	n/a	PROB	588887	n/a	LTP093	ltpFR	8	n/a	n/a	n/a	n/a	n/a	n/a	20	8	4	8	n/a	n/a	n/a	n/a	n/a
1180.012	n/a	STOP	590006	n/a	LTP093	ltpFR	8	n/a	n/a	n/a	n/a	n/a	n/a	n/a	n/a	n/a	n/a	n/a	n/a	n/a	n/a	n/a
1183.232	n/a	REC_START	591616	n/a	LTP093	ltpFR	8	4	n/a	n/a	n/a	n/a	n/a	n/a	0	0	0	n/a	n/a	n/a	n/a	n/a
1184.868	n/a	REC_WORD	592434	wordpools/wasnorm_wordpool.txt	LTP093	ltpFR	8	4	0	BAY	102	n/a	1	n/a	0	0	0	n/a	n/a	n/a	n/a	n/a
1187.382	n/a	REC_WORD	593691	wordpools/wasnorm_wordpool.txt	LTP093	ltpFR	8	4	0	BRICK	172	n/a	0	n/a	0	0	0	n/a	n/a	n/a	n/a	n/a
1188.382	n/a	REC_WORD_VV	594191	wordpools/wasnorm_wordpool.txt	LTP093	ltpFR	8	4	n/a	<>	-1	n/a	n/a	n/a	0	0	0	n/a	n/a	n/a	n/a	n/a
1189.618	n/a	REC_WORD	594809	wordpools/wasnorm_wordpool.txt	LTP093	ltpFR	8	4	0	RUBY	1214	n/a	0	n/a	0	0	0	n/a	n/a	n/a	n/a	n/a
1208.086	n/a	REC_WORD	604043	wordpools/wasnorm_wordpool.txt	LTP093	ltpFR	8	4	0	PLASTER	1085	n/a	1	n/a	0	0	0	n/a	n/a	n/a	n/a	n/a
1209.464	n/a	REC_WORD	604732	wordpools/wasnorm_wordpool.txt	LTP093	ltpFR	8	4	0	PARIS	1014	n/a	1	n/a	0	0	0	n/a	n/a	n/a	n/a	n/a
1216.04	n/a	REC_WORD	608020	wordpools/wasnorm_wordpool.txt	LTP093	ltpFR	8	4	0	PREDATOR	1120	n/a	1	n/a	0	0	0	n/a	n/a	n/a	n/a	n/a
1221.054	n/a	REC_WORD	610527	wordpools/wasnorm_wordpool.txt	LTP093	ltpFR	8	4	0	SWIMMER	1420	n/a	0	n/a	0	0	0	n/a	n/a	n/a	n/a	n/a
1235.416	n/a	REC_WORD	617708	wordpools/wasnorm_wordpool.txt	LTP093	ltpFR	8	4	0	COOLER	375	n/a	0	n/a	0	0	0	n/a	n/a	n/a	n/a	n/a
1321.586	n/a	WORD	660793	wordpools/wasnorm_wordpool.txt	LTP093	ltpFR	8	5	1	PERSON	1052	n/a	1	n/a	0	0	0	1	0.412841796875	0.57763671875	upper	../fonts/zerothre.ttf
1325.444	n/a	WORD	662722	wordpools/wasnorm_wordpool.txt	LTP093	ltpFR	8	5	1	OPERATOR	979	n/a	1	n/a	0	0	0	1	0.412841796875	0.57763671875	upper	../fonts/zerothre.ttf
1329.336	n/a	WORD	664668	wordpools/wasnorm_wordpool.txt	LTP093	ltpFR	8	5	1	VAULT	1550	n/a	0	n/a	0	0	0	1	0.412841796875	0.57763671875	upper	../fonts/zerothre.ttf
1333.402	n/a	WORD	666701	wordpools/wasnorm_wordpool.txt	LTP093	ltpFR	8	5	0	CENT	270	n/a	0	n/a	0	0	0	0	0.5869140625	0.422607421875	lower	../fonts/amplitud.ttf
1337.478	n/a	WORD	668739	wordpools/wasnorm_wordpool.txt	LTP093	ltpFR	8	5	0	ANKLE	24	n/a	0	n/a	0	0	0	0	0.5869140625	0.422607421875	lower	../fonts/amplitud.ttf
1341.586	n/a	WORD	670793	wordpools/wasnorm_wordpool.txt	LTP093	ltpFR	8	5	0	LAKE	796	n/a	1	n/a	0	0	0	0	0.5869140625	0.422607421875	lower	../fonts/amplitud.ttf
1345.678	n/a	WORD	672839	wordpools/wasnorm_wordpool.txt	LTP093	ltpFR	8	5	0	SEAL	1262	n/a	1	n/a	0	0	0	0	0.5869140625	0.422607421875	lower	../fonts/amplitud.ttf
1349.494	n/a	WORD	674747	wordpools/wasnorm_wordpool.txt	LTP093	ltpFR	8	5	1	WIRE	1616	n/a	0	n/a	0	0	0	1	0.412841796875	0.57763671875	upper	../fonts/zerothre.ttf
1353.676	n/a	WORD	676838	wordpools/wasnorm_wordpool.txt	LTP093	ltpFR	8	5	1	MOP	916	n/a	0	n/a	0	0	0	1	0.412841796875	0.57763671875	upper	../fonts/zerothre.ttf
1357.878	n/a	WORD	678939	wordpools/wasnorm_wordpool.txt	LTP093	ltpFR	8	5	1	GUEST	669	n/a	1	n/a	0	0	0	1	0.412841796875	0.57763671875	upper	../fonts/zerothre.ttf
1361.96	n/a	WORD	680980	wordpools/wasnorm_wordpool.txt	LTP093	ltpFR	8	5	0	MOSS	918	n/a	0	n/a	0	0	0	0	0.5869140625	0.422607421875	lower	../fonts/amplitud.ttf
1366.06	n/a	WORD	683030	wordpools/wasnorm_wordpool.txt	LTP093	ltpFR	8	5	0	THICKET	1455	n/a	1	n/a	0	0	0	0	0.5869140625	0.422607421875	lower	../fonts/amplitud.ttf
1369.918	n/a	WORD	684959	wordpools/wasnorm_wordpool.txt	LTP093	ltpFR	8	5	0	NEEDLE	941	n/a	0	n/a	0	0	0	0	0.5869140625	0.422607421875	lower	../fonts/amplitud.ttf
1373.966	n/a	WORD	686983	wordpools/wasnorm_wordpool.txt	LTP093	ltpFR	8	5	0	DASHBOARD	441	n/a	1	n/a	0	0	0	0	0.5869140625	0.422607421875	lower	../fonts/amplitud.ttf
1377.918	n/a	WORD	688959	wordpools/wasnorm_wordpool.txt	LTP093	ltpFR	8	5	1	FLOOR	581	n/a	0	n/a	0	0	0	1	0.412841796875	0.57763671875	upper	../fonts/zerothre.ttf
1381.868	n/a	WORD	690934	wordpools/wasnorm_wordpool.txt	LTP093	ltpFR	8	5	1	COP	376	n/a	1	n/a	0	0	0	1	0.412841796875	0.57763671875	upper	../fonts/zerothre.ttf
1384.876	n/a	START	692438	n/a	LTP093	ltpFR	8	n/a	n/a	n/a	n/a	n/a	n/a	n/a	n/a	n/a	n/a	n/a	n/a	n/a	n/a	n/a
1386.058	n/a	PROB	693029	n/a	LTP093	ltpFR	8	n/a	n/a	n/a	n/a	n/a	n/a	18	6	5	7	n/a	n/a	n/a	n/a	n/a
1387.984	n/a	PROB	693992	n/a	LTP093	ltpFR	8	n/a	n/a	n/a	n/a	n/a	n/a	15	3	9	3	n/a	n/a	n/a	n/a	n/a
1389.776	n/a	PROB	694888	n/a	LTP093	ltpFR	8	n/a	n/a	n/a	n/a	n/a	n/a	15	3	9	3	n/a	n/a	n/a	n/a	n/a
1390.868	n/a	PROB	695434	n/a	LTP093	ltpFR	8	n/a	n/a	n/a	n/a	n/a	n/a	18	4	5	9	n/a	n/a	n/a	n/a	n/a
1392.408	n/a	STOP	696204	n/a	LTP093	ltpFR	8	n/a	n/a	n/a	n/a	n/a	n/a	n/a	n/a	n/a	n/a	n/a	n/a	n/a	n/a	n/a
1394.752	n/a	REC_START	697376	n/a	LTP093	ltpFR	8	5	n/a	n/a	n/a	n/a	n/a	n/a	0	0	0	n/a	n/a	n/a	n/a	n/a
1395.584	n/a	REC_WORD	697792	wordpools/wasnorm_wordpool.txt	LTP093	ltpFR	8	5	1	COP	376	n/a	1	n/a	0	0	0	n/a	n/a	n/a	n/a	n/a
1396.568	n/a	REC_WORD	698284	wordpools/wasnorm_wordpool.txt	LTP093	ltpFR	8	5	0	ANKLE	24	n/a	0	n/a	0	0	0	n/a	n/a	n/a	n/a	n/a
1397.3	n/a	REC_WORD	698650	wordpools/wasnorm_wordpool.txt	LTP093	ltpFR	8	5	0	THICKET	1455	n/a	1	n/a	0	0	0	n/a	n/a	n/a	n/a	n/a
1399.836	n/a	REC_WORD	699918	wordpools/wasnorm_wordpool.txt	LTP093	ltpFR	8	5	1	WIRE	1616	n/a	0	n/a	0	0	0	n/a	n/a	n/a	n/a	n/a
1400.918	n/a	REC_WORD	700459	wordpools/wasnorm_wordpool.txt	LTP093	ltpFR	8	5	0	LAKE	796	n/a	1	n/a	0	0	0	n/a	n/a	n/a	n/a	n/a
1402.7	n/a	REC_WORD	701350	wordpools/wasnorm_wordpool.txt	LTP093	ltpFR	8	5	1	PERSON	1052	n/a	1	n/a	0	0	0	n/a	n/a	n/a	n/a	n/a
1403.912	n/a	REC_WORD	701956	wordpools/wasnorm_wordpool.txt	LTP093	ltpFR	8	5	1	OPERATOR	979	n/a	1	n/a	0	0	0	n/a	n/a	n/a	n/a	n/a
1405.078	n/a	REC_WORD	702539	wordpools/wasnorm_wordpool.txt	LTP093	ltpFR	8	5	1	GUEST	669	n/a	1	n/a	0	0	0	n/a	n/a	n/a	n/a	n/a
1438.828	n/a	REC_WORD	719414	wordpools/wasnorm_wordpool.txt	LTP093	ltpFR	8	5	1	FLOOR	581	n/a	0	n/a	0	0	0	n/a	n/a	n/a	n/a	n/a
1518.84	n/a	START	759420	n/a	LTP093	ltpFR	8	n/a	n/a	n/a	n/a	n/a	n/a	n/a	n/a	n/a	n/a	n/a	n/a	n/a	n/a	n/a
1520.348	n/a	PROB	760174	n/a	LTP093	ltpFR	8	n/a	n/a	n/a	n/a	n/a	n/a	7	4	2	1	n/a	n/a	n/a	n/a	n/a
1522.406	n/a	PROB	761203	n/a	LTP093	ltpFR	8	n/a	n/a	n/a	n/a	n/a	n/a	22	4	9	9	n/a	n/a	n/a	n/a	n/a
1524.048	n/a	PROB	762024	n/a	LTP093	ltpFR	8	n/a	n/a	n/a	n/a	n/a	n/a	17	6	8	3	n/a	n/a	n/a	n/a	n/a
1526.63	n/a	STOP	763315	n/a	LTP093	ltpFR	8	n/a	n/a	n/a	n/a	n/a	n/a	n/a	n/a	n/a	n/a	n/a	n/a	n/a	n/a	n/a
1527.914	n/a	WORD	763957	wordpools/wasnorm_wordpool.txt	LTP093	ltpFR	8	6	0	EMPLOYER	532	n/a	0	n/a	0	0	0	0	0.5869140625	0.422607421875	lower	../fonts/amplitud.ttf
1530.922	n/a	START	765461	n/a	LTP093	ltpFR	8	n/a	n/a	n/a	n/a	n/a	n/a	n/a	n/a	n/a	n/a	n/a	n/a	n/a	n/a	n/a
1532.014	n/a	PROB	766007	n/a	LTP093	ltpFR	8	n/a	n/a	n/a	n/a	n/a	n/a	12	5	4	3	n/a	n/a	n/a	n/a	n/a
1535.038	n/a	PROB	767519	n/a	LTP093	ltpFR	8	n/a	n/a	n/a	n/a	n/a	n/a	9	2	1	6	n/a	n/a	n/a	n/a	n/a
1536.98	n/a	PROB	768490	n/a	LTP093	ltpFR	8	n/a	n/a	n/a	n/a	n/a	n/a	16	4	8	4	n/a	n/a	n/a	n/a	n/a
1538.726	n/a	STOP	769363	n/a	LTP093	ltpFR	8	n/a	n/a	n/a	n/a	n/a	n/a	n/a	n/a	n/a	n/a	n/a	n/a	n/a	n/a	n/a
1539.906	n/a	WORD	769953	wordpools/wasnorm_wordpool.txt	LTP093	ltpFR	8	6	0	ESSAY	540	n/a	0	n/a	0	0	0	0	0.5869140625	0.422607421875	lower	../fonts/amplitud.ttf
1542.914	n/a	START	771457	n/a	LTP093	ltpFR	8	n/a	n/a	n/a	n/a	n/a	n/a	n/a	n/a	n/a	n/a	n/a	n/a	n/a	n/a	n/a
1544.064	n/a	PROB	772032	n/a	LTP093	ltpFR	8	n/a	n/a	n/a	n/a	n/a	n/a	107	7	4	6	n/a	n/a	n/a	n/a	n/a
1545.938	n/a	PROB	772969	n/a	LTP093	ltpFR	8	n/a	n/a	n/a	n/a	n/a	n/a	11	3	4	4	n/a	n/a	n/a	n/a	n/a
1548.706	n/a	PROB	774353	n/a	LTP093	ltpFR	8	n/a	n/a	n/a	n/a	n/a	n/a	10	4	1	5	n/a	n/a	n/a	n/a	n/a
1550.24	n/a	STOP	775120	n/a	LTP093	ltpFR	8	n/a	n/a	n/a	n/a	n/a	n/a	n/a	n/a	n/a	n/a	n/a	n/a	n/a	n/a	n/a
1551.888	n/a	WORD	775944	wordpools/wasnorm_wordpool.txt	LTP093	ltpFR	8	6	0	BERRY	122	n/a	0	n/a	0	0	0	0	0.5869140625	0.422607421875	lower	../fonts/amplitud.ttf
1554.896	n/a	START	777448	n/a	LTP093	ltpFR	8	n/a	n/a	n/a	n/a	n/a	n/a	n/a	n/a	n/a	n/a	n/a	n/a	n/a	n/a	n/a
1555.946	n/a	PROB	777973	n/a	LTP093	ltpFR	8	n/a	n/a	n/a	n/a	n/a	n/a	13	5	4	4	n/a	n/a	n/a	n/a	n/a
1560.304	n/a	PROB	780152	n/a	LTP093	ltpFR	8	n/a	n/a	n/a	n/a	n/a	n/a	8	1	1	6	n/a	n/a	n/a	n/a	n/a
1561.456	n/a	STOP	780728	n/a	LTP093	ltpFR	8	n/a	n/a	n/a	n/a	n/a	n/a	n/a	n/a	n/a	n/a	n/a	n/a	n/a	n/a	n/a
1563.772	n/a	WORD	781886	wordpools/wasnorm_wordpool.txt	LTP093	ltpFR	8	6	0	SCREW	1254	n/a	0	n/a	0	0	0	0	0.5869140625	0.422607421875	lower	../fonts/amplitud.ttf
1566.78	n/a	START	783390	n/a	LTP093	ltpFR	8	n/a	n/a	n/a	n/a	n/a	n/a	n/a	n/a	n/a	n/a	n/a	n/a	n/a	n/a	n/a
1567.646	n/a	PROB	783823	n/a	LTP093	ltpFR	8	n/a	n/a	n/a	n/a	n/a	n/a	23	8	7	8	n/a	n/a	n/a	n/a	n/a
1571.146	n/a	PROB	785573	n/a	LTP093	ltpFR	8	n/a	n/a	n/a	n/a	n/a	n/a	26	8	5	3	n/a	n/a	n/a	n/a	n/a
1574.256	n/a	STOP	787128	n/a	LTP093	ltpFR	8	n/a	n/a	n/a	n/a	n/a	n/a	n/a	n/a	n/a	n/a	n/a	n/a	n/a	n/a	n/a
1575.822	n/a	WORD	787911	wordpools/wasnorm_wordpool.txt	LTP093	ltpFR	8	6	0	WRENCH	1625	n/a	0	n/a	0	0	0	0	0.5869140625	0.422607421875	lower	../fonts/amplitud.ttf
1578.83	n/a	START	789415	n/a	LTP093	ltpFR	8	n/a	n/a	n/a	n/a	n/a	n/a	n/a	n/a	n/a	n/a	n/a	n/a	n/a	n/a	n/a
1579.83	n/a	PROB	789915	n/a	LTP093	ltpFR	8	n/a	n/a	n/a	n/a	n/a	n/a	14	9	3	2	n/a	n/a	n/a	n/a	n/a
1581.822	n/a	PROB	790911	n/a	LTP093	ltpFR	8	n/a	n/a	n/a	n/a	n/a	n/a	9	1	4	4	n/a	n/a	n/a	n/a	n/a
1582.938	n/a	PROB	791469	n/a	LTP093	ltpFR	8	n/a	n/a	n/a	n/a	n/a	n/a	22	7	8	7	n/a	n/a	n/a	n/a	n/a
1586.346	n/a	STOP	793173	n/a	LTP093	ltpFR	8	n/a	n/a	n/a	n/a	n/a	n/a	n/a	n/a	n/a	n/a	n/a	n/a	n/a	n/a	n/a
1587.97	n/a	WORD	793985	wordpools/wasnorm_wordpool.txt	LTP093	ltpFR	8	6	0	GRATE	657	n/a	0	n/a	0	0	0	0	0.5869140625	0.422607421875	lower	../fonts/amplitud.ttf
1590.978	n/a	START	795489	n/a	LTP093	ltpFR	8	n/a	n/a	n/a	n/a	n/a	n/a	n/a	n/a	n/a	n/a	n/a	n/a	n/a	n/a	n/a
1591.97	n/a	PROB	795985	n/a	LTP093	ltpFR	8	n/a	n/a	n/a	n/a	n/a	n/a	18	9	4	5	n/a	n/a	n/a	n/a	n/a
1594.27	n/a	PROB	797135	n/a	LTP093	ltpFR	8	n/a	n/a	n/a	n/a	n/a	n/a	10	1	6	3	n/a	n/a	n/a	n/a	n/a
1596.654	n/a	PROB	798327	n/a	LTP093	ltpFR	8	n/a	n/a	n/a	n/a	n/a	n/a	21	3	9	9	n/a	n/a	n/a	n/a	n/a
1598.33	n/a	STOP	799165	n/a	LTP093	ltpFR	8	n/a	n/a	n/a	n/a	n/a	n/a	n/a	n/a	n/a	n/a	n/a	n/a	n/a	n/a	n/a
1599.862	n/a	WORD	799931	wordpools/wasnorm_wordpool.txt	LTP093	ltpFR	8	6	0	CLERK	321	n/a	0	n/a	0	0	0	0	0.5869140625	0.422607421875	lower	../fonts/amplitud.ttf
1602.872	n/a	START	801436	n/a	LTP093	ltpFR	8	n/a	n/a	n/a	n/a	n/a	n/a	n/a	n/a	n/a	n/a	n/a	n/a	n/a	n/a	n/a
1603.872	n/a	PROB	801936	n/a	LTP093	ltpFR	8	n/a	n/a	n/a	n/a	n/a	n/a	12	8	2	2	n/a	n/a	n/a	n/a	n/a
1605.396	n/a	PROB	802698	n/a	LTP093	ltpFR	8	n/a	n/a	n/a	n/a	n/a	n/a	10	1	2	7	n/a	n/a	n/a	n/a	n/a
1606.73	n/a	PROB	803365	n/a	LTP093	ltpFR	8	n/a	n/a	n/a	n/a	n/a	n/a	16	4	4	8	n/a	n/a	n/a	n/a	n/a
1608.688	n/a	PROB	804344	n/a	LTP093	ltpFR	8	n/a	n/a	n/a	n/a	n/a	n/a	12	4	5	3	n/a	n/a	n/a	n/a	n/a
1610.586	n/a	STOP	805293	n/a	LTP093	ltpFR	8	n/a	n/a	n/a	n/a	n/a	n/a	n/a	n/a	n/a	n/a	n/a	n/a	n/a	n/a	n/a
1611.928	n/a	WORD	805964	wordpools/wasnorm_wordpool.txt	LTP093	ltpFR	8	6	0	OFFICE	972	n/a	0	n/a	0	0	0	0	0.5869140625	0.422607421875	lower	../fonts/amplitud.ttf
1614.936	n/a	START	807468	n/a	LTP093	ltpFR	8	n/a	n/a	n/a	n/a	n/a	n/a	n/a	n/a	n/a	n/a	n/a	n/a	n/a	n/a	n/a
1615.87	n/a	PROB	807935	n/a	LTP093	ltpFR	8	n/a	n/a	n/a	n/a	n/a	n/a	16	4	6	6	n/a	n/a	n/a	n/a	n/a
1617.862	n/a	PROB	808931	n/a	LTP093	ltpFR	8	n/a	n/a	n/a	n/a	n/a	n/a	15	5	6	4	n/a	n/a	n/a	n/a	n/a
1619.528	n/a	PROB	809764	n/a	LTP093	ltpFR	8	n/a	n/a	n/a	n/a	n/a	n/a	10	3	2	5	n/a	n/a	n/a	n/a	n/a
1622.26	n/a	STOP	811130	n/a	LTP093	ltpFR	8	n/a	n/a	n/a	n/a	n/a	n/a	n/a	n/a	n/a	n/a	n/a	n/a	n/a	n/a	n/a
1624.112	n/a	WORD	812056	wordpools/wasnorm_wordpool.txt	LTP093	ltpFR	8	6	0	WRITER	1627	n/a	0	n/a	0	0	0	0	0.5869140625	0.422607421875	lower	../fonts/amplitud.ttf
1627.12	n/a	START	813560	n/a	LTP093	ltpFR	8	n/a	n/a	n/a	n/a	n/a	n/a	n/a	n/a	n/a	n/a	n/a	n/a	n/a	n/a	n/a
1628.228	n/a	PROB	814114	n/a	LTP093	ltpFR	8	n/a	n/a	n/a	n/a	n/a	n/a	25	9	7	9	n/a	n/a	n/a	n/a	n/a
1630.628	n/a	PROB	815314	n/a	LTP093	ltpFR	8	n/a	n/a	n/a	n/a	n/a	n/a	13	8	9	6	n/a	n/a	n/a	n/a	n/a
1635.12	n/a	STOP	817560	n/a	LTP093	ltpFR	8	n/a	n/a	n/a	n/a	n/a	n/a	n/a	n/a	n/a	n/a	n/a	n/a	n/a	n/a	n/a
1636.212	n/a	WORD	818106	wordpools/wasnorm_wordpool.txt	LTP093	ltpFR	8	6	0	SHOP	1290	n/a	0	n/a	0	0	0	0	0.5869140625	0.422607421875	lower	../fonts/amplitud.ttf
1639.22	n/a	START	819610	n/a	LTP093	ltpFR	8	n/a	n/a	n/a	n/a	n/a	n/a	n/a	n/a	n/a	n/a	n/a	n/a	n/a	n/a	n/a
1640.128	n/a	PROB	820064	n/a	LTP093	ltpFR	8	n/a	n/a	n/a	n/a	n/a	n/a	14	2	4	8	n/a	n/a	n/a	n/a	n/a
1642.654	n/a	PROB	821327	n/a	LTP093	ltpFR	8	n/a	n/a	n/a	n/a	n/a	n/a	15	7	6	2	n/a	n/a	n/a	n/a	n/a
1644.446	n/a	PROB	822223	n/a	LTP093	ltpFR	8	n/a	n/a	n/a	n/a	n/a	n/a	25	9	7	9	n/a	n/a	n/a	n/a	n/a
1646.172	n/a	STOP	823086	n/a	LTP093	ltpFR	8	n/a	n/a	n/a	n/a	n/a	n/a	n/a	n/a	n/a	n/a	n/a	n/a	n/a	n/a	n/a
1648.076	n/a	WORD	824038	wordpools/wasnorm_wordpool.txt	LTP093	ltpFR	8	6	0	BILL	126	n/a	0	n/a	0	0	0	0	0.5869140625	0.422607421875	lower	../fonts/amplitud.ttf
1651.078	n/a	START	825539	n/a	LTP093	ltpFR	8	n/a	n/a	n/a	n/a	n/a	n/a	n/a	n/a	n/a	n/a	n/a	n/a	n/a	n/a	n/a
1652.01	n/a	PROB	826005	n/a	LTP093	ltpFR	8	n/a	n/a	n/a	n/a	n/a	n/a	24	9	7	8	n/a	n/a	n/a	n/a	n/a
1654.902	n/a	PROB	827451	n/a	LTP093	ltpFR	8	n/a	n/a	n/a	n/a	n/a	n/a	10	1	3	6	n/a	n/a	n/a	n/a	n/a
1656.594	n/a	PROB	828297	n/a	LTP093	ltpFR	8	n/a	n/a	n/a	n/a	n/a	n/a	7	3	1	3	n/a	n/a	n/a	n/a	n/a
1657.804	n/a	STOP	828902	n/a	LTP093	ltpFR	8	n/a	n/a	n/a	n/a	n/a	n/a	n/a	n/a	n/a	n/a	n/a	n/a	n/a	n/a	n/a
1660.26	n/a	WORD	830130	wordpools/wasnorm_wordpool.txt	LTP093	ltpFR	8	6	0	BANANA	77	n/a	0	n/a	0	0	0	0	0.5869140625	0.422607421875	lower	../fonts/amplitud.ttf
1663.27	n/a	START	831635	n/a	LTP093	ltpFR	8	n/a	n/a	n/a	n/a	n/a	n/a	n/a	n/a	n/a	n/a	n/a	n/a	n/a	n/a	n/a
1664.212	n/a	PROB	832106	n/a	LTP093	ltpFR	8	n/a	n/a	n/a	n/a	n/a	n/a	11	6	1	4	n/a	n/a	n/a	n/a	n/a
1666.144	n/a	PROB	833072	n/a	LTP093	ltpFR	8	n/a	n/a	n/a	n/a	n/a	n/a	9	3	3	3	n/a	n/a	n/a	n/a	n/a
1667.178	n/a	PROB	833589	n/a	LTP093	ltpFR	8	n/a	n/a	n/a	n/a	n/a	n/a	20	9	5	6	n/a	n/a	n/a	n/a	n/a
1671.27	n/a	STOP	835635	n/a	LTP093	ltpFR	8	n/a	n/a	n/a	n/a	n/a	n/a	n/a	n/a	n/a	n/a	n/a	n/a	n/a	n/a	n/a
1672.244	n/a	WORD	836122	wordpools/wasnorm_wordpool.txt	LTP093	ltpFR	8	6	0	MARKER	870	n/a	0	n/a	0	0	0	0	0.5869140625	0.422607421875	lower	../fonts/amplitud.ttf
1675.252	n/a	START	837626	n/a	LTP093	ltpFR	8	n/a	n/a	n/a	n/a	n/a	n/a	n/a	n/a	n/a	n/a	n/a	n/a	n/a	n/a	n/a
1676.176	n/a	PROB	838088	n/a	LTP093	ltpFR	8	n/a	n/a	n/a	n/a	n/a	n/a	18	9	5	4	n/a	n/a	n/a	n/a	n/a
1678.176	n/a	PROB	839088	n/a	LTP093	ltpFR	8	n/a	n/a	n/a	n/a	n/a	n/a	13	1	7	5	n/a	n/a	n/a	n/a	n/a
1683.252	n/a	STOP	841626	n/a	LTP093	ltpFR	8	n/a	n/a	n/a	n/a	n/a	n/a	n/a	n/a	n/a	n/a	n/a	n/a	n/a	n/a	n/a
1684.36	n/a	WORD	842180	wordpools/wasnorm_wordpool.txt	LTP093	ltpFR	8	6	0	STRAWBERRY	1391	n/a	0	n/a	0	0	0	0	0.5869140625	0.422607421875	lower	../fonts/amplitud.ttf
1687.37	n/a	START	843685	n/a	LTP093	ltpFR	8	n/a	n/a	n/a	n/a	n/a	n/a	n/a	n/a	n/a	n/a	n/a	n/a	n/a	n/a	n/a
1688.236	n/a	PROB	844118	n/a	LTP093	ltpFR	8	n/a	n/a	n/a	n/a	n/a	n/a	14	1	9	4	n/a	n/a	n/a	n/a	n/a
1689.686	n/a	PROB	844843	n/a	LTP093	ltpFR	8	n/a	n/a	n/a	n/a	n/a	n/a	10	1	2	7	n/a	n/a	n/a	n/a	n/a
1691.042	n/a	PROB	845521	n/a	LTP093	ltpFR	8	n/a	n/a	n/a	n/a	n/a	n/a	18	6	9	3	n/a	n/a	n/a	n/a	n/a
1692.958	n/a	PROB	846479	n/a	LTP093	ltpFR	8	n/a	n/a	n/a	n/a	n/a	n/a	13	4	8	1	n/a	n/a	n/a	n/a	n/a
1694.774	n/a	STOP	847387	n/a	LTP093	ltpFR	8	n/a	n/a	n/a	n/a	n/a	n/a	n/a	n/a	n/a	n/a	n/a	n/a	n/a	n/a	n/a
1696.352	n/a	WORD	848176	wordpools/wasnorm_wordpool.txt	LTP093	ltpFR	8	6	0	COACH	331	n/a	1	n/a	0	0	0	0	0.5869140625	0.422607421875	lower	../fonts/amplitud.ttf
1699.36	n/a	START	849680	n/a	LTP093	ltpFR	8	n/a	n/a	n/a	n/a	n/a	n/a	n/a	n/a	n/a	n/a	n/a	n/a	n/a	n/a	n/a
1700.242	n/a	PROB	850121	n/a	LTP093	ltpFR	8	n/a	n/a	n/a	n/a	n/a	n/a	10	2	3	5	n/a	n/a	n/a	n/a	n/a
1701.642	n/a	PROB	850821	n/a	LTP093	ltpFR	8	n/a	n/a	n/a	n/a	n/a	n/a	17	8	3	6	n/a	n/a	n/a	n/a	n/a
1704.718	n/a	PROB	852359	n/a	LTP093	ltpFR	8	n/a	n/a	n/a	n/a	n/a	n/a	10	3	3	4	n/a	n/a	n/a	n/a	n/a
1705.942	n/a	STOP	852971	n/a	LTP093	ltpFR	8	n/a	n/a	n/a	n/a	n/a	n/a	n/a	n/a	n/a	n/a	n/a	n/a	n/a	n/a	n/a
1708.444	n/a	WORD	854222	wordpools/wasnorm_wordpool.txt	LTP093	ltpFR	8	6	0	BASEBALL	93	n/a	0	n/a	0	0	0	0	0.5869140625	0.422607421875	lower	../fonts/amplitud.ttf
1711.452	n/a	START	855726	n/a	LTP093	ltpFR	8	n/a	n/a	n/a	n/a	n/a	n/a	n/a	n/a	n/a	n/a	n/a	n/a	n/a	n/a	n/a
1712.552	n/a	PROB	856276	n/a	LTP093	ltpFR	8	n/a	n/a	n/a	n/a	n/a	n/a	9	7	1	1	n/a	n/a	n/a	n/a	n/a
1713.776	n/a	PROB	856888	n/a	LTP093	ltpFR	8	n/a	n/a	n/a	n/a	n/a	n/a	12	6	5	1	n/a	n/a	n/a	n/a	n/a
1715.26	n/a	PROB	857630	n/a	LTP093	ltpFR	8	n/a	n/a	n/a	n/a	n/a	n/a	16	1	7	8	n/a	n/a	n/a	n/a	n/a
1717.342	n/a	PROB	858671	n/a	LTP093	ltpFR	8	n/a	n/a	n/a	n/a	n/a	n/a	17	4	4	9	n/a	n/a	n/a	n/a	n/a
1719.128	n/a	STOP	859564	n/a	LTP093	ltpFR	8	n/a	n/a	n/a	n/a	n/a	n/a	n/a	n/a	n/a	n/a	n/a	n/a	n/a	n/a	n/a
1721.302	n/a	REC_START	860651	n/a	LTP093	ltpFR	8	6	n/a	n/a	n/a	n/a	n/a	n/a	0	0	0	n/a	n/a	n/a	n/a	n/a
1722.468	n/a	REC_WORD	861234	wordpools/wasnorm_wordpool.txt	LTP093	ltpFR	8	6	0	BASEBALL	93	n/a	0	n/a	0	0	0	n/a	n/a	n/a	n/a	n/a
1724.084	n/a	REC_WORD	862042	wordpools/wasnorm_wordpool.txt	LTP093	ltpFR	8	6	0	SCREW	1254	n/a	0	n/a	0	0	0	n/a	n/a	n/a	n/a	n/a
1727.472	n/a	REC_WORD	863736	wordpools/wasnorm_wordpool.txt	LTP093	ltpFR	8	6	0	BERRY	122	n/a	0	n/a	0	0	0	n/a	n/a	n/a	n/a	n/a
1728.396	n/a	REC_WORD	864198	wordpools/wasnorm_wordpool.txt	LTP093	ltpFR	8	6	0	STRAWBERRY	1391	n/a	0	n/a	0	0	0	n/a	n/a	n/a	n/a	n/a
1729.888	n/a	REC_WORD	864944	wordpools/wasnorm_wordpool.txt	LTP093	ltpFR	8	6	0	COACH	331	n/a	1	n/a	0	0	0	n/a	n/a	n/a	n/a	n/a
1827.182	n/a	START	913591	n/a	LTP093	ltpFR	8	n/a	n/a	n/a	n/a	n/a	n/a	n/a	n/a	n/a	n/a	n/a	n/a	n/a	n/a	n/a
1828.69	n/a	PROB	914345	n/a	LTP093	ltpFR	8	n/a	n/a	n/a	n/a	n/a	n/a	17	2	9	6	n/a	n/a	n/a	n/a	n/a
1830.89	n/a	PROB	915445	n/a	LTP093	ltpFR	8	n/a	n/a	n/a	n/a	n/a	n/a	22	9	6	7	n/a	n/a	n/a	n/a	n/a
1833.298	n/a	PROB	916649	n/a	LTP093	ltpFR	8	n/a	n/a	n/a	n/a	n/a	n/a	15	7	3	5	n/a	n/a	n/a	n/a	n/a
1834.79	n/a	PROB	917395	n/a	LTP093	ltpFR	8	n/a	n/a	n/a	n/a	n/a	n/a	7	2	2	3	n/a	n/a	n/a	n/a	n/a
1836.522	n/a	PROB	918261	n/a	LTP093	ltpFR	8	n/a	n/a	n/a	n/a	n/a	n/a	19	6	8	5	n/a	n/a	n/a	n/a	n/a
1838.63	n/a	PROB	919315	n/a	LTP093	ltpFR	8	n/a	n/a	n/a	n/a	n/a	n/a	20	8	3	9	n/a	n/a	n/a	n/a	n/a
1840.348	n/a	PROB	920174	n/a	LTP093	ltpFR	8	n/a	n/a	n/a	n/a	n/a	n/a	17	6	9	2	n/a	n/a	n/a	n/a	n/a
1841.98	n/a	STOP	920990	n/a	LTP093	ltpFR	8	n/a	n/a	n/a	n/a	n/a	n/a	n/a	n/a	n/a	n/a	n/a	n/a	n/a	n/a	n/a
1844.206	n/a	WORD	922103	wordpools/wasnorm_wordpool.txt	LTP093	ltpFR	8	7	1	BOOK	149	n/a	0	n/a	0	0	0	1	0.412841796875	0.57763671875	upper	../fonts/zerothre.ttf
1847.216	n/a	START	923608	n/a	LTP093	ltpFR	8	n/a	n/a	n/a	n/a	n/a	n/a	n/a	n/a	n/a	n/a	n/a	n/a	n/a	n/a	n/a
1848.256	n/a	PROB	924128	n/a	LTP093	ltpFR	8	n/a	n/a	n/a	n/a	n/a	n/a	19	8	4	7	n/a	n/a	n/a	n/a	n/a
1850.432	n/a	PROB	925216	n/a	LTP093	ltpFR	8	n/a	n/a	n/a	n/a	n/a	n/a	21	1	7	3	n/a	n/a	n/a	n/a	n/a
1852.088	n/a	PROB	926044	n/a	LTP093	ltpFR	8	n/a	n/a	n/a	n/a	n/a	n/a	16	4	9	3	n/a	n/a	n/a	n/a	n/a
1854.098	n/a	PROB	927049	n/a	LTP093	ltpFR	8	n/a	n/a	n/a	n/a	n/a	n/a	23	9	8	5	n/a	n/a	n/a	n/a	n/a
1857.222	n/a	PROB	928611	n/a	LTP093	ltpFR	8	n/a	n/a	n/a	n/a	n/a	n/a	17	7	6	4	n/a	n/a	n/a	n/a	n/a
1860.272	n/a	PROB	930136	n/a	LTP093	ltpFR	8	n/a	n/a	n/a	n/a	n/a	n/a	21	9	7	5	n/a	n/a	n/a	n/a	n/a
1862.086	n/a	STOP	931043	n/a	LTP093	ltpFR	8	n/a	n/a	n/a	n/a	n/a	n/a	n/a	n/a	n/a	n/a	n/a	n/a	n/a	n/a	n/a
1864.338	n/a	WORD	932169	wordpools/wasnorm_wordpool.txt	LTP093	ltpFR	8	7	1	GRILL	661	n/a	0	n/a	0	0	0	1	0.412841796875	0.57763671875	upper	../fonts/zerothre.ttf
1867.348	n/a	START	933674	n/a	LTP093	ltpFR	8	n/a	n/a	n/a	n/a	n/a	n/a	n/a	n/a	n/a	n/a	n/a	n/a	n/a	n/a	n/a
1868.372	n/a	PROB	934186	n/a	LTP093	ltpFR	8	n/a	n/a	n/a	n/a	n/a	n/a	16	5	9	2	n/a	n/a	n/a	n/a	n/a
1870.08	n/a	PROB	935040	n/a	LTP093	ltpFR	8	n/a	n/a	n/a	n/a	n/a	n/a	17	1	8	8	n/a	n/a	n/a	n/a	n/a
1872.046	n/a	PROB	936023	n/a	LTP093	ltpFR	8	n/a	n/a	n/a	n/a	n/a	n/a	13	5	3	5	n/a	n/a	n/a	n/a	n/a
1873.672	n/a	PROB	936836	n/a	LTP093	ltpFR	8	n/a	n/a	n/a	n/a	n/a	n/a	12	2	5	5	n/a	n/a	n/a	n/a	n/a
1874.872	n/a	PROB	937436	n/a	LTP093	ltpFR	8	n/a	n/a	n/a	n/a	n/a	n/a	21	9	7	5	n/a	n/a	n/a	n/a	n/a
1877.096	n/a	PROB	938548	n/a	LTP093	ltpFR	8	n/a	n/a	n/a	n/a	n/a	n/a	17	8	8	1	n/a	n/a	n/a	n/a	n/a
1878.422	n/a	PROB	939211	n/a	LTP093	ltpFR	8	n/a	n/a	n/a	n/a	n/a	n/a	12	5	1	6	n/a	n/a	n/a	n/a	n/a
1879.58	n/a	PROB	939790	n/a	LTP093	ltpFR	8	n/a	n/a	n/a	n/a	n/a	n/a	10	4	2	4	n/a	n/a	n/a	n/a	n/a
1883.348	n/a	STOP	941674	n/a	LTP093	ltpFR	8	n/a	n/a	n/a	n/a	n/a	n/a	n/a	n/a	n/a	n/a	n/a	n/a	n/a	n/a	n/a
1884.522	n/a	WORD	942261	wordpools/wasnorm_wordpool.txt	LTP093	ltpFR	8	7	1	SWEATER	1419	n/a	0	n/a	0	0	0	1	0.412841796875	0.57763671875	upper	../fonts/zerothre.ttf
1887.53	n/a	START	943765	n/a	LTP093	ltpFR	8	n/a	n/a	n/a	n/a	n/a	n/a	n/a	n/a	n/a	n/a	n/a	n/a	n/a	n/a	n/a
1888.596	n/a	PROB	944298	n/a	LTP093	ltpFR	8	n/a	n/a	n/a	n/a	n/a	n/a	15	2	6	7	n/a	n/a	n/a	n/a	n/a
1893.246	n/a	PROB	946623	n/a	LTP093	ltpFR	8	n/a	n/a	n/a	n/a	n/a	n/a	19	2	8	9	n/a	n/a	n/a	n/a	n/a
1895.238	n/a	PROB	947619	n/a	LTP093	ltpFR	8	n/a	n/a	n/a	n/a	n/a	n/a	18	8	1	9	n/a	n/a	n/a	n/a	n/a
1897.02	n/a	PROB	948510	n/a	LTP093	ltpFR	8	n/a	n/a	n/a	n/a	n/a	n/a	15	7	2	6	n/a	n/a	n/a	n/a	n/a
1899.028	n/a	PROB	949514	n/a	LTP093	ltpFR	8	n/a	n/a	n/a	n/a	n/a	n/a	14	5	1	8	n/a	n/a	n/a	n/a	n/a
1903.53	n/a	STOP	951765	n/a	LTP093	ltpFR	8	n/a	n/a	n/a	n/a	n/a	n/a	n/a	n/a	n/a	n/a	n/a	n/a	n/a	n/a	n/a
1904.596	n/a	WORD	952298	wordpools/wasnorm_wordpool.txt	LTP093	ltpFR	8	7	1	PEANUT	1032	n/a	0	n/a	0	0	0	1	0.412841796875	0.57763671875	upper	../fonts/zerothre.ttf
1907.604	n/a	START	953802	n/a	LTP093	ltpFR	8	n/a	n/a	n/a	n/a	n/a	n/a	n/a	n/a	n/a	n/a	n/a	n/a	n/a	n/a	n/a
1908.454	n/a	PROB	954227	n/a	LTP093	ltpFR	8	n/a	n/a	n/a	n/a	n/a	n/a	16	2	6	8	n/a	n/a	n/a	n/a	n/a
1909.97	n/a	PROB	954985	n/a	LTP093	ltpFR	8	n/a	n/a	n/a	n/a	n/a	n/a	16	5	7	4	n/a	n/a	n/a	n/a	n/a
1911.754	n/a	PROB	955877	n/a	LTP093	ltpFR	8	n/a	n/a	n/a	n/a	n/a	n/a	24	8	6	8	n/a	n/a	n/a	n/a	n/a
1914.67	n/a	PROB	957335	n/a	LTP093	ltpFR	8	n/a	n/a	n/a	n/a	n/a	n/a	14	3	4	7	n/a	n/a	n/a	n/a	n/a
1917.612	n/a	PROB	958806	n/a	LTP093	ltpFR	8	n/a	n/a	n/a	n/a	n/a	n/a	14	5	3	6	n/a	n/a	n/a	n/a	n/a
1919.804	n/a	PROB	959902	n/a	LTP093	ltpFR	8	n/a	n/a	n/a	n/a	n/a	n/a	13	6	5	2	n/a	n/a	n/a	n/a	n/a
1922.138	n/a	STOP	961069	n/a	LTP093	ltpFR	8	n/a	n/a	n/a	n/a	n/a	n/a	n/a	n/a	n/a	n/a	n/a	n/a	n/a	n/a	n/a
1924.686	n/a	WORD	962343	wordpools/wasnorm_wordpool.txt	LTP093	ltpFR	8	7	1	DOUGH	489	n/a	0	n/a	0	0	0	1	0.412841796875	0.57763671875	upper	../fonts/zerothre.ttf
1927.688	n/a	START	963844	n/a	LTP093	ltpFR	8	n/a	n/a	n/a	n/a	n/a	n/a	n/a	n/a	n/a	n/a	n/a	n/a	n/a	n/a	n/a
1928.786	n/a	PROB	964393	n/a	LTP093	ltpFR	8	n/a	n/a	n/a	n/a	n/a	n/a	14	7	1	6	n/a	n/a	n/a	n/a	n/a
1930.688	n/a	PROB	965344	n/a	LTP093	ltpFR	8	n/a	n/a	n/a	n/a	n/a	n/a	7	3	1	3	n/a	n/a	n/a	n/a	n/a
1931.854	n/a	PROB	965927	n/a	LTP093	ltpFR	8	n/a	n/a	n/a	n/a	n/a	n/a	15	8	7	2	n/a	n/a	n/a	n/a	n/a
1934.128	n/a	PROB	967064	n/a	LTP093	ltpFR	8	n/a	n/a	n/a	n/a	n/a	n/a	18	8	7	3	n/a	n/a	n/a	n/a	n/a
1936.82	n/a	PROB	968410	n/a	LTP093	ltpFR	8	n/a	n/a	n/a	n/a	n/a	n/a	14	6	3	5	n/a	n/a	n/a	n/a	n/a
1938.878	n/a	PROB	969439	n/a	LTP093	ltpFR	8	n/a	n/a	n/a	n/a	n/a	n/a	198	2	9	8	n/a	n/a	n/a	n/a	n/a
1940.486	n/a	PROB	970243	n/a	LTP093	ltpFR	8	n/a	n/a	n/a	n/a	n/a	n/a	17	9	6	2	n/a	n/a	n/a	n/a	n/a
1943.546	n/a	STOP	971773	n/a	LTP093	ltpFR	8	n/a	n/a	n/a	n/a	n/a	n/a	n/a	n/a	n/a	n/a	n/a	n/a	n/a	n/a	n/a
1944.778	n/a	WORD	972389	wordpools/wasnorm_wordpool.txt	LTP093	ltpFR	8	7	1	SWAN	1417	n/a	1	n/a	0	0	0	1	0.412841796875	0.57763671875	upper	../fonts/zerothre.ttf
1947.786	n/a	START	973893	n/a	LTP093	ltpFR	8	n/a	n/a	n/a	n/a	n/a	n/a	n/a	n/a	n/a	n/a	n/a	n/a	n/a	n/a	n/a
1948.602	n/a	PROB	974301	n/a	LTP093	ltpFR	8	n/a	n/a	n/a	n/a	n/a	n/a	18	6	4	8	n/a	n/a	n/a	n/a	n/a
1950.196	n/a	PROB	975098	n/a	LTP093	ltpFR	8	n/a	n/a	n/a	n/a	n/a	n/a	11	9	1	1	n/a	n/a	n/a	n/a	n/a
1951.512	n/a	PROB	975756	n/a	LTP093	ltpFR	8	n/a	n/a	n/a	n/a	n/a	n/a	16	7	2	7	n/a	n/a	n/a	n/a	n/a
1953.662	n/a	PROB	976831	n/a	LTP093	ltpFR	8	n/a	n/a	n/a	n/a	n/a	n/a	19	5	5	9	n/a	n/a	n/a	n/a	n/a
1954.778	n/a	PROB	977389	n/a	LTP093	ltpFR	8	n/a	n/a	n/a	n/a	n/a	n/a	17	5	4	8	n/a	n/a	n/a	n/a	n/a
1956.478	n/a	PROB	978239	n/a	LTP093	ltpFR	8	n/a	n/a	n/a	n/a	n/a	n/a	18	3	9	6	n/a	n/a	n/a	n/a	n/a
1958.27	n/a	PROB	979135	n/a	LTP093	ltpFR	8	n/a	n/a	n/a	n/a	n/a	n/a	9	5	3	1	n/a	n/a	n/a	n/a	n/a
1959.902	n/a	PROB	979951	n/a	LTP093	ltpFR	8	n/a	n/a	n/a	n/a	n/a	n/a	14	4	9	1	n/a	n/a	n/a	n/a	n/a
1961.536	n/a	PROB	980768	n/a	LTP093	ltpFR	8	n/a	n/a	n/a	n/a	n/a	n/a	8	1	6	1	n/a	n/a	n/a	n/a	n/a
1962.844	n/a	STOP	981422	n/a	LTP093	ltpFR	8	n/a	n/a	n/a	n/a	n/a	n/a	n/a	n/a	n/a	n/a	n/a	n/a	n/a	n/a	n/a
1964.71	n/a	WORD	982355	wordpools/wasnorm_wordpool.txt	LTP093	ltpFR	8	7	1	CATHEDRAL	260	n/a	0	n/a	0	0	0	1	0.412841796875	0.57763671875	upper	../fonts/zerothre.ttf
1967.72	n/a	START	983860	n/a	LTP093	ltpFR	8	n/a	n/a	n/a	n/a	n/a	n/a	n/a	n/a	n/a	n/a	n/a	n/a	n/a	n/a	n/a
1968.818	n/a	PROB	984409	n/a	LTP093	ltpFR	8	n/a	n/a	n/a	n/a	n/a	n/a	13	6	4	3	n/a	n/a	n/a	n/a	n/a
1971.22	n/a	PROB	985610	n/a	LTP093	ltpFR	8	n/a	n/a	n/a	n/a	n/a	n/a	200	8	6	6	n/a	n/a	n/a	n/a	n/a
1973.228	n/a	PROB	986614	n/a	LTP093	ltpFR	8	n/a	n/a	n/a	n/a	n/a	n/a	12	6	4	2	n/a	n/a	n/a	n/a	n/a
1974.86	n/a	PROB	987430	n/a	LTP093	ltpFR	8	n/a	n/a	n/a	n/a	n/a	n/a	6	3	2	1	n/a	n/a	n/a	n/a	n/a
1975.976	n/a	PROB	987988	n/a	LTP093	ltpFR	8	n/a	n/a	n/a	n/a	n/a	n/a	13	7	1	5	n/a	n/a	n/a	n/a	n/a
1978.252	n/a	PROB	989126	n/a	LTP093	ltpFR	8	n/a	n/a	n/a	n/a	n/a	n/a	11	3	6	2	n/a	n/a	n/a	n/a	n/a
1979.918	n/a	PROB	989959	n/a	LTP093	ltpFR	8	n/a	n/a	n/a	n/a	n/a	n/a	20	7	7	6	n/a	n/a	n/a	n/a	n/a
1982.348	n/a	STOP	991174	n/a	LTP093	ltpFR	8	n/a	n/a	n/a	n/a	n/a	n/a	n/a	n/a	n/a	n/a	n/a	n/a	n/a	n/a	n/a
1984.91	n/a	WORD	992455	wordpools/wasnorm_wordpool.txt	LTP093	ltpFR	8	7	1	MINER	896	n/a	1	n/a	0	0	0	1	0.412841796875	0.57763671875	upper	../fonts/zerothre.ttf
1987.918	n/a	START	993959	n/a	LTP093	ltpFR	8	n/a	n/a	n/a	n/a	n/a	n/a	n/a	n/a	n/a	n/a	n/a	n/a	n/a	n/a	n/a
1989.118	n/a	PROB	994559	n/a	LTP093	ltpFR	8	n/a	n/a	n/a	n/a	n/a	n/a	19	3	9	7	n/a	n/a	n/a	n/a	n/a
1991.11	n/a	PROB	995555	n/a	LTP093	ltpFR	8	n/a	n/a	n/a	n/a	n/a	n/a	12	8	1	3	n/a	n/a	n/a	n/a	n/a
1992.536	n/a	PROB	996268	n/a	LTP093	ltpFR	8	n/a	n/a	n/a	n/a	n/a	n/a	12	2	1	9	n/a	n/a	n/a	n/a	n/a
1994.152	n/a	PROB	997076	n/a	LTP093	ltpFR	8	n/a	n/a	n/a	n/a	n/a	n/a	12	3	1	9	n/a	n/a	n/a	n/a	n/a
1995.478	n/a	PROB	997739	n/a	LTP093	ltpFR	8	n/a	n/a	n/a	n/a	n/a	n/a	18	4	5	9	n/a	n/a	n/a	n/a	n/a
1999.11	n/a	PROB	999555	n/a	LTP093	ltpFR	8	n/a	n/a	n/a	n/a	n/a	n/a	15	2	8	5	n/a	n/a	n/a	n/a	n/a
2000.426	n/a	PROB	1000213	n/a	LTP093	ltpFR	8	n/a	n/a	n/a	n/a	n/a	n/a	17	3	4	8	n/a	n/a	n/a	n/a	n/a
2003.31	n/a	STOP	1001655	n/a	LTP093	ltpFR	8	n/a	n/a	n/a	n/a	n/a	n/a	n/a	n/a	n/a	n/a	n/a	n/a	n/a	n/a	n/a
2005.126	n/a	WORD	1002563	wordpools/wasnorm_wordpool.txt	LTP093	ltpFR	8	7	1	RING	1193	n/a	0	n/a	0	0	0	1	0.412841796875	0.57763671875	upper	../fonts/zerothre.ttf
2008.134	n/a	START	1004067	n/a	LTP093	ltpFR	8	n/a	n/a	n/a	n/a	n/a	n/a	n/a	n/a	n/a	n/a	n/a	n/a	n/a	n/a	n/a
2009.31	n/a	PROB	1004655	n/a	LTP093	ltpFR	8	n/a	n/a	n/a	n/a	n/a	n/a	19	8	7	4	n/a	n/a	n/a	n/a	n/a
2011.644	n/a	PROB	1005822	n/a	LTP093	ltpFR	8	n/a	n/a	n/a	n/a	n/a	n/a	21	8	8	5	n/a	n/a	n/a	n/a	n/a
2014.26	n/a	PROB	1007130	n/a	LTP093	ltpFR	8	n/a	n/a	n/a	n/a	n/a	n/a	21	4	7	5	n/a	n/a	n/a	n/a	n/a
2016.018	n/a	PROB	1008009	n/a	LTP093	ltpFR	8	n/a	n/a	n/a	n/a	n/a	n/a	17	6	3	8	n/a	n/a	n/a	n/a	n/a
2018.976	n/a	PROB	1009488	n/a	LTP093	ltpFR	8	n/a	n/a	n/a	n/a	n/a	n/a	21	8	5	8	n/a	n/a	n/a	n/a	n/a
2021.734	n/a	PROB	1010867	n/a	LTP093	ltpFR	8	n/a	n/a	n/a	n/a	n/a	n/a	15	6	6	3	n/a	n/a	n/a	n/a	n/a
2024.046	n/a	STOP	1012023	n/a	LTP093	ltpFR	8	n/a	n/a	n/a	n/a	n/a	n/a	n/a	n/a	n/a	n/a	n/a	n/a	n/a	n/a	n/a
2024.984	n/a	WORD	1012492	wordpools/wasnorm_wordpool.txt	LTP093	ltpFR	8	7	1	FLY	586	n/a	1	n/a	0	0	0	1	0.412841796875	0.57763671875	upper	../fonts/zerothre.ttf
2027.992	n/a	START	1013996	n/a	LTP093	ltpFR	8	n/a	n/a	n/a	n/a	n/a	n/a	n/a	n/a	n/a	n/a	n/a	n/a	n/a	n/a	n/a
2029.158	n/a	PROB	1014579	n/a	LTP093	ltpFR	8	n/a	n/a	n/a	n/a	n/a	n/a	10	1	2	7	n/a	n/a	n/a	n/a	n/a
2030.668	n/a	PROB	1015334	n/a	LTP093	ltpFR	8	n/a	n/a	n/a	n/a	n/a	n/a	16	3	4	9	n/a	n/a	n/a	n/a	n/a
2033.084	n/a	PROB	1016542	n/a	LTP093	ltpFR	8	n/a	n/a	n/a	n/a	n/a	n/a	22	6	9	7	n/a	n/a	n/a	n/a	n/a
2036.026	n/a	PROB	1018013	n/a	LTP093	ltpFR	8	n/a	n/a	n/a	n/a	n/a	n/a	7	5	1	1	n/a	n/a	n/a	n/a	n/a
2037.318	n/a	PROB	1018659	n/a	LTP093	ltpFR	8	n/a	n/a	n/a	n/a	n/a	n/a	10	3	4	4	n/a	n/a	n/a	n/a	n/a
2039.3	n/a	PROB	1019650	n/a	LTP093	ltpFR	8	n/a	n/a	n/a	n/a	n/a	n/a	18	4	4	8	n/a	n/a	n/a	n/a	n/a
2041.932	n/a	PROB	1020966	n/a	LTP093	ltpFR	8	n/a	n/a	n/a	n/a	n/a	n/a	14	9	4	1	n/a	n/a	n/a	n/a	n/a
2043.776	n/a	STOP	1021888	n/a	LTP093	ltpFR	8	n/a	n/a	n/a	n/a	n/a	n/a	n/a	n/a	n/a	n/a	n/a	n/a	n/a	n/a	n/a
2044.834	n/a	WORD	1022417	wordpools/wasnorm_wordpool.txt	LTP093	ltpFR	8	7	1	BOULDER	155	n/a	0	n/a	0	0	0	1	0.412841796875	0.57763671875	upper	../fonts/zerothre.ttf
2047.842	n/a	START	1023921	n/a	LTP093	ltpFR	8	n/a	n/a	n/a	n/a	n/a	n/a	n/a	n/a	n/a	n/a	n/a	n/a	n/a	n/a	n/a
2048.716	n/a	PROB	1024358	n/a	LTP093	ltpFR	8	n/a	n/a	n/a	n/a	n/a	n/a	9	6	1	2	n/a	n/a	n/a	n/a	n/a
2050.624	n/a	PROB	1025312	n/a	LTP093	ltpFR	8	n/a	n/a	n/a	n/a	n/a	n/a	12	8	3	1	n/a	n/a	n/a	n/a	n/a
2054.2	n/a	PROB	1027100	n/a	LTP093	ltpFR	8	n/a	n/a	n/a	n/a	n/a	n/a	18	7	2	9	n/a	n/a	n/a	n/a	n/a
2055.858	n/a	PROB	1027929	n/a	LTP093	ltpFR	8	n/a	n/a	n/a	n/a	n/a	n/a	22	7	8	7	n/a	n/a	n/a	n/a	n/a
2059.058	n/a	PROB	1029529	n/a	LTP093	ltpFR	8	n/a	n/a	n/a	n/a	n/a	n/a	20	6	8	6	n/a	n/a	n/a	n/a	n/a
2062.448	n/a	STOP	1031224	n/a	LTP093	ltpFR	8	n/a	n/a	n/a	n/a	n/a	n/a	n/a	n/a	n/a	n/a	n/a	n/a	n/a	n/a	n/a
2064.716	n/a	WORD	1032358	wordpools/wasnorm_wordpool.txt	LTP093	ltpFR	8	7	1	PEBBLE	1035	n/a	0	n/a	0	0	0	1	0.412841796875	0.57763671875	upper	../fonts/zerothre.ttf
2067.726	n/a	START	1033863	n/a	LTP093	ltpFR	8	n/a	n/a	n/a	n/a	n/a	n/a	n/a	n/a	n/a	n/a	n/a	n/a	n/a	n/a	n/a
2068.566	n/a	PROB	1034283	n/a	LTP093	ltpFR	8	n/a	n/a	n/a	n/a	n/a	n/a	20	8	9	3	n/a	n/a	n/a	n/a	n/a
2070.3	n/a	PROB	1035150	n/a	LTP093	ltpFR	8	n/a	n/a	n/a	n/a	n/a	n/a	16	4	5	7	n/a	n/a	n/a	n/a	n/a
2072.232	n/a	PROB	1036116	n/a	LTP093	ltpFR	8	n/a	n/a	n/a	n/a	n/a	n/a	14	1	5	8	n/a	n/a	n/a	n/a	n/a
2074.7	n/a	PROB	1037350	n/a	LTP093	ltpFR	8	n/a	n/a	n/a	n/a	n/a	n/a	17	7	7	3	n/a	n/a	n/a	n/a	n/a
2076.566	n/a	PROB	1038283	n/a	LTP093	ltpFR	8	n/a	n/a	n/a	n/a	n/a	n/a	14	7	6	1	n/a	n/a	n/a	n/a	n/a
2078.958	n/a	PROB	1039479	n/a	LTP093	ltpFR	8	n/a	n/a	n/a	n/a	n/a	n/a	12	4	7	1	n/a	n/a	n/a	n/a	n/a
2080.642	n/a	PROB	1040321	n/a	LTP093	ltpFR	8	n/a	n/a	n/a	n/a	n/a	n/a	3	1	1	1	n/a	n/a	n/a	n/a	n/a
2081.692	n/a	PROB	1040846	n/a	LTP093	ltpFR	8	n/a	n/a	n/a	n/a	n/a	n/a	20	4	8	8	n/a	n/a	n/a	n/a	n/a
2083.402	n/a	STOP	1041701	n/a	LTP093	ltpFR	8	n/a	n/a	n/a	n/a	n/a	n/a	n/a	n/a	n/a	n/a	n/a	n/a	n/a	n/a	n/a
2084.592	n/a	WORD	1042296	wordpools/wasnorm_wordpool.txt	LTP093	ltpFR	8	7	1	MULE	931	n/a	0	n/a	0	0	0	1	0.412841796875	0.57763671875	upper	../fonts/zerothre.ttf
2087.6	n/a	START	1043800	n/a	LTP093	ltpFR	8	n/a	n/a	n/a	n/a	n/a	n/a	n/a	n/a	n/a	n/a	n/a	n/a	n/a	n/a	n/a
2088.716	n/a	PROB	1044358	n/a	LTP093	ltpFR	8	n/a	n/a	n/a	n/a	n/a	n/a	14	7	1	6	n/a	n/a	n/a	n/a	n/a
2090.698	n/a	PROB	1045349	n/a	LTP093	ltpFR	8	n/a	n/a	n/a	n/a	n/a	n/a	10	5	4	1	n/a	n/a	n/a	n/a	n/a
2092.124	n/a	PROB	1046062	n/a	LTP093	ltpFR	8	n/a	n/a	n/a	n/a	n/a	n/a	6	1	3	2	n/a	n/a	n/a	n/a	n/a
2093.166	n/a	PROB	1046583	n/a	LTP093	ltpFR	8	n/a	n/a	n/a	n/a	n/a	n/a	20	6	7	7	n/a	n/a	n/a	n/a	n/a
2094.742	n/a	PROB	1047371	n/a	LTP093	ltpFR	8	n/a	n/a	n/a	n/a	n/a	n/a	17	6	2	9	n/a	n/a	n/a	n/a	n/a
2096.708	n/a	PROB	1048354	n/a	LTP093	ltpFR	8	n/a	n/a	n/a	n/a	n/a	n/a	7	3	2	2	n/a	n/a	n/a	n/a	n/a
2098.882	n/a	PROB	1049441	n/a	LTP093	ltpFR	8	n/a	n/a	n/a	n/a	n/a	n/a	22	8	6	8	n/a	n/a	n/a	n/a	n/a
2101.616	n/a	PROB	1050808	n/a	LTP093	ltpFR	8	n/a	n/a	n/a	n/a	n/a	n/a	14	3	9	1	n/a	n/a	n/a	n/a	n/a
2103.276	n/a	STOP	1051638	n/a	LTP093	ltpFR	8	n/a	n/a	n/a	n/a	n/a	n/a	n/a	n/a	n/a	n/a	n/a	n/a	n/a	n/a	n/a
2104.758	n/a	WORD	1052379	wordpools/wasnorm_wordpool.txt	LTP093	ltpFR	8	7	1	TRIANGLE	1504	n/a	1	n/a	0	0	0	1	0.412841796875	0.57763671875	upper	../fonts/zerothre.ttf
2107.766	n/a	START	1053883	n/a	LTP093	ltpFR	8	n/a	n/a	n/a	n/a	n/a	n/a	n/a	n/a	n/a	n/a	n/a	n/a	n/a	n/a	n/a
2108.922	n/a	PROB	1054461	n/a	LTP093	ltpFR	8	n/a	n/a	n/a	n/a	n/a	n/a	6	1	3	2	n/a	n/a	n/a	n/a	n/a
2110.064	n/a	PROB	1055032	n/a	LTP093	ltpFR	8	n/a	n/a	n/a	n/a	n/a	n/a	13	9	1	3	n/a	n/a	n/a	n/a	n/a
2111.59	n/a	PROB	1055795	n/a	LTP093	ltpFR	8	n/a	n/a	n/a	n/a	n/a	n/a	20	2	9	9	n/a	n/a	n/a	n/a	n/a
2113.106	n/a	PROB	1056553	n/a	LTP093	ltpFR	8	n/a	n/a	n/a	n/a	n/a	n/a	19	4	8	7	n/a	n/a	n/a	n/a	n/a
2115.832	n/a	PROB	1057916	n/a	LTP093	ltpFR	8	n/a	n/a	n/a	n/a	n/a	n/a	18	2	8	8	n/a	n/a	n/a	n/a	n/a
2117.624	n/a	PROB	1058812	n/a	LTP093	ltpFR	8	n/a	n/a	n/a	n/a	n/a	n/a	14	4	2	8	n/a	n/a	n/a	n/a	n/a
2119.482	n/a	PROB	1059741	n/a	LTP093	ltpFR	8	n/a	n/a	n/a	n/a	n/a	n/a	19	8	2	9	n/a	n/a	n/a	n/a	n/a
2121.04	n/a	PROB	1060520	n/a	LTP093	ltpFR	8	n/a	n/a	n/a	n/a	n/a	n/a	9	1	1	7	n/a	n/a	n/a	n/a	n/a
2122.284	n/a	STOP	1061142	n/a	LTP093	ltpFR	8	n/a	n/a	n/a	n/a	n/a	n/a	n/a	n/a	n/a	n/a	n/a	n/a	n/a	n/a	n/a
2124.766	n/a	WORD	1062383	wordpools/wasnorm_wordpool.txt	LTP093	ltpFR	8	7	1	COOK	372	n/a	1	n/a	0	0	0	1	0.412841796875	0.57763671875	upper	../fonts/zerothre.ttf
2127.774	n/a	START	1063887	n/a	LTP093	ltpFR	8	n/a	n/a	n/a	n/a	n/a	n/a	n/a	n/a	n/a	n/a	n/a	n/a	n/a	n/a	n/a
2128.782	n/a	PROB	1064391	n/a	LTP093	ltpFR	8	n/a	n/a	n/a	n/a	n/a	n/a	17	5	6	6	n/a	n/a	n/a	n/a	n/a
2130.214	n/a	PROB	1065107	n/a	LTP093	ltpFR	8	n/a	n/a	n/a	n/a	n/a	n/a	20	7	6	7	n/a	n/a	n/a	n/a	n/a
2131.964	n/a	PROB	1065982	n/a	LTP093	ltpFR	8	n/a	n/a	n/a	n/a	n/a	n/a	7	2	1	4	n/a	n/a	n/a	n/a	n/a
2134.124	n/a	PROB	1067062	n/a	LTP093	ltpFR	8	n/a	n/a	n/a	n/a	n/a	n/a	23	9	5	9	n/a	n/a	n/a	n/a	n/a
2135.94	n/a	PROB	1067970	n/a	LTP093	ltpFR	8	n/a	n/a	n/a	n/a	n/a	n/a	17	3	8	6	n/a	n/a	n/a	n/a	n/a
2137.848	n/a	PROB	1068924	n/a	LTP093	ltpFR	8	n/a	n/a	n/a	n/a	n/a	n/a	11	6	3	2	n/a	n/a	n/a	n/a	n/a
2141.456	n/a	PROB	1070728	n/a	LTP093	ltpFR	8	n/a	n/a	n/a	n/a	n/a	n/a	8	3	3	2	n/a	n/a	n/a	n/a	n/a
2143.452	n/a	STOP	1071726	n/a	LTP093	ltpFR	8	n/a	n/a	n/a	n/a	n/a	n/a	n/a	n/a	n/a	n/a	n/a	n/a	n/a	n/a	n/a
2144.74	n/a	WORD	1072370	wordpools/wasnorm_wordpool.txt	LTP093	ltpFR	8	7	1	PUBLICATION	1136	n/a	0	n/a	0	0	0	1	0.412841796875	0.57763671875	upper	../fonts/zerothre.ttf
2147.748	n/a	START	1073874	n/a	LTP093	ltpFR	8	n/a	n/a	n/a	n/a	n/a	n/a	n/a	n/a	n/a	n/a	n/a	n/a	n/a	n/a	n/a
2148.748	n/a	PROB	1074374	n/a	LTP093	ltpFR	8	n/a	n/a	n/a	n/a	n/a	n/a	20	8	7	5	n/a	n/a	n/a	n/a	n/a
2150.556	n/a	PROB	1075278	n/a	LTP093	ltpFR	8	n/a	n/a	n/a	n/a	n/a	n/a	17	8	6	3	n/a	n/a	n/a	n/a	n/a
2152.938	n/a	PROB	1076469	n/a	LTP093	ltpFR	8	n/a	n/a	n/a	n/a	n/a	n/a	17	9	5	3	n/a	n/a	n/a	n/a	n/a
2155.164	n/a	PROB	1077582	n/a	LTP093	ltpFR	8	n/a	n/a	n/a	n/a	n/a	n/a	17	7	9	1	n/a	n/a	n/a	n/a	n/a
2156.714	n/a	PROB	1078357	n/a	LTP093	ltpFR	8	n/a	n/a	n/a	n/a	n/a	n/a	12	2	7	3	n/a	n/a	n/a	n/a	n/a
2158.482	n/a	PROB	1079241	n/a	LTP093	ltpFR	8	n/a	n/a	n/a	n/a	n/a	n/a	17	4	6	7	n/a	n/a	n/a	n/a	n/a
2159.89	n/a	PROB	1079945	n/a	LTP093	ltpFR	8	n/a	n/a	n/a	n/a	n/a	n/a	19	9	6	4	n/a	n/a	n/a	n/a	n/a
2163.262	n/a	STOP	1081631	n/a	LTP093	ltpFR	8	n/a	n/a	n/a	n/a	n/a	n/a	n/a	n/a	n/a	n/a	n/a	n/a	n/a	n/a	n/a
2165.482	n/a	REC_START	1082741	n/a	LTP093	ltpFR	8	7	n/a	n/a	n/a	n/a	n/a	n/a	0	0	0	n/a	n/a	n/a	n/a	n/a
2166.854	n/a	REC_WORD	1083427	wordpools/wasnorm_wordpool.txt	LTP093	ltpFR	8	7	1	COOK	372	n/a	1	n/a	0	0	0	n/a	n/a	n/a	n/a	n/a
2176.902	n/a	REC_WORD	1088451	wordpools/wasnorm_wordpool.txt	LTP093	ltpFR	8	7	1	MINER	896	n/a	1	n/a	0	0	0	n/a	n/a	n/a	n/a	n/a
2181.022	n/a	REC_WORD	1090511	wordpools/wasnorm_wordpool.txt	LTP093	ltpFR	8	7	1	PEBBLE	1035	n/a	0	n/a	0	0	0	n/a	n/a	n/a	n/a	n/a
2181.8	n/a	REC_WORD	1090900	wordpools/wasnorm_wordpool.txt	LTP093	ltpFR	8	7	1	BOULDER	155	n/a	0	n/a	0	0	0	n/a	n/a	n/a	n/a	n/a
2185.262	n/a	REC_WORD	1092631	wordpools/wasnorm_wordpool.txt	LTP093	ltpFR	8	7	1	FLY	586	n/a	1	n/a	0	0	0	n/a	n/a	n/a	n/a	n/a
2201.346	n/a	REC_WORD	1100673	wordpools/wasnorm_wordpool.txt	LTP093	ltpFR	8	7	1	PUBLICATION	1136	n/a	0	n/a	0	0	0	n/a	n/a	n/a	n/a	n/a
2283.686	n/a	WORD	1141843	wordpools/wasnorm_wordpool.txt	LTP093	ltpFR	8	8	1	OATS	968	n/a	1	n/a	0	0	0	1	0.412841796875	0.57763671875	upper	../fonts/zerothre.ttf
2287.686	n/a	WORD	1143843	wordpools/wasnorm_wordpool.txt	LTP093	ltpFR	8	8	1	JUGGLER	763	n/a	1	n/a	0	0	0	1	0.412841796875	0.57763671875	upper	../fonts/zerothre.ttf
2291.51	n/a	WORD	1145755	wordpools/wasnorm_wordpool.txt	LTP093	ltpFR	8	8	1	LIST	830	n/a	0	n/a	0	0	0	1	0.412841796875	0.57763671875	upper	../fonts/zerothre.ttf
2295.526	n/a	WORD	1147763	wordpools/wasnorm_wordpool.txt	LTP093	ltpFR	8	8	0	STALLION	1369	n/a	1	n/a	0	0	0	0	0.5869140625	0.422607421875	lower	../fonts/amplitud.ttf
2299.66	n/a	WORD	1149830	wordpools/wasnorm_wordpool.txt	LTP093	ltpFR	8	8	0	LEAF	808	n/a	0	n/a	0	0	0	0	0.5869140625	0.422607421875	lower	../fonts/amplitud.ttf
2303.852	n/a	WORD	1151926	wordpools/wasnorm_wordpool.txt	LTP093	ltpFR	8	8	0	CAR	241	n/a	1	n/a	0	0	0	0	0.5869140625	0.422607421875	lower	../fonts/amplitud.ttf
2308.026	n/a	WORD	1154013	wordpools/wasnorm_wordpool.txt	LTP093	ltpFR	8	8	0	VEHICLE	1553	n/a	1	n/a	0	0	0	0	0.5869140625	0.422607421875	lower	../fonts/amplitud.ttf
2311.942	n/a	WORD	1155971	wordpools/wasnorm_wordpool.txt	LTP093	ltpFR	8	8	0	HAMMOCK	681	n/a	0	n/a	0	0	0	0	0.5869140625	0.422607421875	lower	../fonts/amplitud.ttf
2316.034	n/a	WORD	1158017	wordpools/wasnorm_wordpool.txt	LTP093	ltpFR	8	8	1	FOSSIL	596	n/a	0	n/a	0	0	0	1	0.412841796875	0.57763671875	upper	../fonts/zerothre.ttf
2320.186	n/a	WORD	1160093	wordpools/wasnorm_wordpool.txt	LTP093	ltpFR	8	8	1	REPORT	1184	n/a	0	n/a	0	0	0	1	0.412841796875	0.57763671875	upper	../fonts/zerothre.ttf
2324.152	n/a	WORD	1162076	wordpools/wasnorm_wordpool.txt	LTP093	ltpFR	8	8	0	ROOSTER	1209	n/a	0	n/a	0	0	0	0	0.5869140625	0.422607421875	lower	../fonts/amplitud.ttf
2328.176	n/a	WORD	1164088	wordpools/wasnorm_wordpool.txt	LTP093	ltpFR	8	8	0	MICROPHONE	890	n/a	0	n/a	0	0	0	0	0.5869140625	0.422607421875	lower	../fonts/amplitud.ttf
2332.066	n/a	WORD	1166033	wordpools/wasnorm_wordpool.txt	LTP093	ltpFR	8	8	0	MINK	897	n/a	0	n/a	0	0	0	0	0.5869140625	0.422607421875	lower	../fonts/amplitud.ttf
2336.074	n/a	WORD	1168037	wordpools/wasnorm_wordpool.txt	LTP093	ltpFR	8	8	1	VET	1560	n/a	1	n/a	0	0	0	1	0.412841796875	0.57763671875	upper	../fonts/zerothre.ttf
2340.202	n/a	WORD	1170101	wordpools/wasnorm_wordpool.txt	LTP093	ltpFR	8	8	1	SLIDE	1326	n/a	0	n/a	0	0	0	1	0.412841796875	0.57763671875	upper	../fonts/zerothre.ttf
2344.368	n/a	WORD	1172184	wordpools/wasnorm_wordpool.txt	LTP093	ltpFR	8	8	1	SWING	1421	n/a	0	n/a	0	0	0	1	0.412841796875	0.57763671875	upper	../fonts/zerothre.ttf
2350.058	n/a	REC_START	1175029	n/a	LTP093	ltpFR	8	8	n/a	n/a	n/a	n/a	n/a	n/a	0	0	0	n/a	n/a	n/a	n/a	n/a
2350.792	n/a	REC_WORD	1175396	wordpools/wasnorm_wordpool.txt	LTP093	ltpFR	8	8	1	SWING	1421	n/a	0	n/a	0	0	0	n/a	n/a	n/a	n/a	n/a
2351.81	n/a	REC_WORD	1175905	wordpools/wasnorm_wordpool.txt	LTP093	ltpFR	8	8	1	SLIDE	1326	n/a	0	n/a	0	0	0	n/a	n/a	n/a	n/a	n/a
2353.1	n/a	REC_WORD	1176550	wordpools/wasnorm_wordpool.txt	LTP093	ltpFR	8	8	1	VET	1560	n/a	1	n/a	0	0	0	n/a	n/a	n/a	n/a	n/a
2354.374	n/a	REC_WORD	1177187	wordpools/wasnorm_wordpool.txt	LTP093	ltpFR	8	8	0	MINK	897	n/a	0	n/a	0	0	0	n/a	n/a	n/a	n/a	n/a
2355.8	n/a	REC_WORD	1177900	wordpools/wasnorm_wordpool.txt	LTP093	ltpFR	8	8	0	LEAF	808	n/a	0	n/a	0	0	0	n/a	n/a	n/a	n/a	n/a
2356.918	n/a	REC_WORD	1178459	wordpools/wasnorm_wordpool.txt	LTP093	ltpFR	8	8	1	FOSSIL	596	n/a	0	n/a	0	0	0	n/a	n/a	n/a	n/a	n/a
2358.344	n/a	REC_WORD	1179172	wordpools/wasnorm_wordpool.txt	LTP093	ltpFR	8	8	1	REPORT	1184	n/a	0	n/a	0	0	0	n/a	n/a	n/a	n/a	n/a
2360.794	n/a	REC_WORD	1180397	wordpools/wasnorm_wordpool.txt	LTP093	ltpFR	8	8	0	STALLION	1369	n/a	1	n/a	0	0	0	n/a	n/a	n/a	n/a	n/a
2369.564	n/a	REC_WORD	1184782	wordpools/wasnorm_wordpool.txt	LTP093	ltpFR	8	8	0	MICROPHONE	890	n/a	0	n/a	0	0	0	n/a	n/a	n/a	n/a	n/a
2392.414	n/a	REC_WORD	1196207	wordpools/wasnorm_wordpool.txt	LTP093	ltpFR	8	8	1	FOSSIL	596	n/a	0	n/a	0	0	0	n/a	n/a	n/a	n/a	n/a
2410.794	n/a	REC_WORD	1205397	wordpools/wasnorm_wordpool.txt	LTP093	ltpFR	8	8	0	HAMMOCK	681	n/a	0	n/a	0	0	0	n/a	n/a	n/a	n/a	n/a
2430.298	n/a	START	1215149	n/a	LTP093	ltpFR	8	n/a	n/a	n/a	n/a	n/a	n/a	n/a	n/a	n/a	n/a	n/a	n/a	n/a	n/a	n/a
2431.806	n/a	PROB	1215903	n/a	LTP093	ltpFR	8	n/a	n/a	n/a	n/a	n/a	n/a	20	9	6	5	n/a	n/a	n/a	n/a	n/a
2433.874	n/a	PROB	1216937	n/a	LTP093	ltpFR	8	n/a	n/a	n/a	n/a	n/a	n/a	17	7	5	5	n/a	n/a	n/a	n/a	n/a
2438.298	n/a	STOP	1219149	n/a	LTP093	ltpFR	8	n/a	n/a	n/a	n/a	n/a	n/a	n/a	n/a	n/a	n/a	n/a	n/a	n/a	n/a	n/a
2439.306	n/a	WORD	1219653	wordpools/wasnorm_wordpool.txt	LTP093	ltpFR	8	9	1	CRAB	397	n/a	1	n/a	0	0	0	1	0.412841796875	0.57763671875	upper	../fonts/zerothre.ttf
2442.316	n/a	START	1221158	n/a	LTP093	ltpFR	8	n/a	n/a	n/a	n/a	n/a	n/a	n/a	n/a	n/a	n/a	n/a	n/a	n/a	n/a	n/a
2443.374	n/a	PROB	1221687	n/a	LTP093	ltpFR	8	n/a	n/a	n/a	n/a	n/a	n/a	13	5	2	6	n/a	n/a	n/a	n/a	n/a
2445.332	n/a	PROB	1222666	n/a	LTP093	ltpFR	8	n/a	n/a	n/a	n/a	n/a	n/a	18	3	7	8	n/a	n/a	n/a	n/a	n/a
2447.224	n/a	PROB	1223612	n/a	LTP093	ltpFR	8	n/a	n/a	n/a	n/a	n/a	n/a	19	9	9	1	n/a	n/a	n/a	n/a	n/a
2449.18	n/a	STOP	1224590	n/a	LTP093	ltpFR	8	n/a	n/a	n/a	n/a	n/a	n/a	n/a	n/a	n/a	n/a	n/a	n/a	n/a	n/a	n/a
2451.132	n/a	WORD	1225566	wordpools/wasnorm_wordpool.txt	LTP093	ltpFR	8	9	1	BARREL	91	n/a	0	n/a	0	0	0	1	0.412841796875	0.57763671875	upper	../fonts/zerothre.ttf
2454.14	n/a	START	1227070	n/a	LTP093	ltpFR	8	n/a	n/a	n/a	n/a	n/a	n/a	n/a	n/a	n/a	n/a	n/a	n/a	n/a	n/a	n/a
2455.272	n/a	PROB	1227636	n/a	LTP093	ltpFR	8	n/a	n/a	n/a	n/a	n/a	n/a	21	8	9	4	n/a	n/a	n/a	n/a	n/a
2458.206	n/a	PROB	1229103	n/a	LTP093	ltpFR	8	n/a	n/a	n/a	n/a	n/a	n/a	17	6	4	7	n/a	n/a	n/a	n/a	n/a
2459.606	n/a	PROB	1229803	n/a	LTP093	ltpFR	8	n/a	n/a	n/a	n/a	n/a	n/a	11	3	1	7	n/a	n/a	n/a	n/a	n/a
2461.172	n/a	STOP	1230586	n/a	LTP093	ltpFR	8	n/a	n/a	n/a	n/a	n/a	n/a	n/a	n/a	n/a	n/a	n/a	n/a	n/a	n/a	n/a
2463.148	n/a	WORD	1231574	wordpools/wasnorm_wordpool.txt	LTP093	ltpFR	8	9	1	GOLD	647	n/a	0	n/a	0	0	0	1	0.412841796875	0.57763671875	upper	../fonts/zerothre.ttf
2466.156	n/a	START	1233078	n/a	LTP093	ltpFR	8	n/a	n/a	n/a	n/a	n/a	n/a	n/a	n/a	n/a	n/a	n/a	n/a	n/a	n/a	n/a
2467.164	n/a	PROB	1233582	n/a	LTP093	ltpFR	8	n/a	n/a	n/a	n/a	n/a	n/a	17	7	2	8	n/a	n/a	n/a	n/a	n/a
2468.772	n/a	PROB	1234386	n/a	LTP093	ltpFR	8	n/a	n/a	n/a	n/a	n/a	n/a	15	2	5	8	n/a	n/a	n/a	n/a	n/a
2471.58	n/a	PROB	1235790	n/a	LTP093	ltpFR	8	n/a	n/a	n/a	n/a	n/a	n/a	11	3	5	3	n/a	n/a	n/a	n/a	n/a
2473.91	n/a	STOP	1236955	n/a	LTP093	ltpFR	8	n/a	n/a	n/a	n/a	n/a	n/a	n/a	n/a	n/a	n/a	n/a	n/a	n/a	n/a	n/a
2475.23	n/a	WORD	1237615	wordpools/wasnorm_wordpool.txt	LTP093	ltpFR	8	9	1	DOLL	481	n/a	0	n/a	0	0	0	1	0.412841796875	0.57763671875	upper	../fonts/zerothre.ttf
2478.24	n/a	START	1239120	n/a	LTP093	ltpFR	8	n/a	n/a	n/a	n/a	n/a	n/a	n/a	n/a	n/a	n/a	n/a	n/a	n/a	n/a	n/a
2479.338	n/a	PROB	1239669	n/a	LTP093	ltpFR	8	n/a	n/a	n/a	n/a	n/a	n/a	12	8	2	2	n/a	n/a	n/a	n/a	n/a
2481.372	n/a	PROB	1240686	n/a	LTP093	ltpFR	8	n/a	n/a	n/a	n/a	n/a	n/a	10	2	1	7	n/a	n/a	n/a	n/a	n/a
2483.088	n/a	PROB	1241544	n/a	LTP093	ltpFR	8	n/a	n/a	n/a	n/a	n/a	n/a	18	9	7	2	n/a	n/a	n/a	n/a	n/a
2484.75	n/a	STOP	1242375	n/a	LTP093	ltpFR	8	n/a	n/a	n/a	n/a	n/a	n/a	n/a	n/a	n/a	n/a	n/a	n/a	n/a	n/a	n/a
2487.264	n/a	WORD	1243632	wordpools/wasnorm_wordpool.txt	LTP093	ltpFR	8	9	1	PORCUPINE	1107	n/a	1	n/a	0	0	0	1	0.412841796875	0.57763671875	upper	../fonts/zerothre.ttf
2490.272	n/a	START	1245136	n/a	LTP093	ltpFR	8	n/a	n/a	n/a	n/a	n/a	n/a	n/a	n/a	n/a	n/a	n/a	n/a	n/a	n/a	n/a
2491.338	n/a	PROB	1245669	n/a	LTP093	ltpFR	8	n/a	n/a	n/a	n/a	n/a	n/a	13	1	9	3	n/a	n/a	n/a	n/a	n/a
2492.864	n/a	PROB	1246432	n/a	LTP093	ltpFR	8	n/a	n/a	n/a	n/a	n/a	n/a	17	3	5	9	n/a	n/a	n/a	n/a	n/a
2494.522	n/a	PROB	1247261	n/a	LTP093	ltpFR	8	n/a	n/a	n/a	n/a	n/a	n/a	10	7	2	1	n/a	n/a	n/a	n/a	n/a
2495.738	n/a	PROB	1247869	n/a	LTP093	ltpFR	8	n/a	n/a	n/a	n/a	n/a	n/a	9	2	5	2	n/a	n/a	n/a	n/a	n/a
2497.758	n/a	STOP	1248879	n/a	LTP093	ltpFR	8	n/a	n/a	n/a	n/a	n/a	n/a	n/a	n/a	n/a	n/a	n/a	n/a	n/a	n/a	n/a
2499.196	n/a	WORD	1249598	wordpools/wasnorm_wordpool.txt	LTP093	ltpFR	8	9	1	DRUM	502	n/a	0	n/a	0	0	0	1	0.412841796875	0.57763671875	upper	../fonts/zerothre.ttf
2502.206	n/a	START	1251103	n/a	LTP093	ltpFR	8	n/a	n/a	n/a	n/a	n/a	n/a	n/a	n/a	n/a	n/a	n/a	n/a	n/a	n/a	n/a
2503.096	n/a	PROB	1251548	n/a	LTP093	ltpFR	8	n/a	n/a	n/a	n/a	n/a	n/a	20	8	6	8	n/a	n/a	n/a	n/a	n/a
2505.388	n/a	PROB	1252694	n/a	LTP093	ltpFR	8	n/a	n/a	n/a	n/a	n/a	n/a	20	7	4	9	n/a	n/a	n/a	n/a	n/a
2509.464	n/a	STOP	1254732	n/a	LTP093	ltpFR	8	n/a	n/a	n/a	n/a	n/a	n/a	n/a	n/a	n/a	n/a	n/a	n/a	n/a	n/a	n/a
2511.396	n/a	WORD	1255698	wordpools/wasnorm_wordpool.txt	LTP093	ltpFR	8	9	1	WINE	1613	n/a	0	n/a	0	0	0	1	0.412841796875	0.57763671875	upper	../fonts/zerothre.ttf
2514.406	n/a	START	1257203	n/a	LTP093	ltpFR	8	n/a	n/a	n/a	n/a	n/a	n/a	n/a	n/a	n/a	n/a	n/a	n/a	n/a	n/a	n/a
2515.23	n/a	PROB	1257615	n/a	LTP093	ltpFR	8	n/a	n/a	n/a	n/a	n/a	n/a	14	7	4	3	n/a	n/a	n/a	n/a	n/a
2517.862	n/a	PROB	1258931	n/a	LTP093	ltpFR	8	n/a	n/a	n/a	n/a	n/a	n/a	16	8	1	7	n/a	n/a	n/a	n/a	n/a
2519.57	n/a	PROB	1259785	n/a	LTP093	ltpFR	8	n/a	n/a	n/a	n/a	n/a	n/a	8	2	5	1	n/a	n/a	n/a	n/a	n/a
2522.278	n/a	STOP	1261139	n/a	LTP093	ltpFR	8	n/a	n/a	n/a	n/a	n/a	n/a	n/a	n/a	n/a	n/a	n/a	n/a	n/a	n/a	n/a
2523.338	n/a	WORD	1261669	wordpools/wasnorm_wordpool.txt	LTP093	ltpFR	8	9	1	BEAD	103	n/a	0	n/a	0	0	0	1	0.412841796875	0.57763671875	upper	../fonts/zerothre.ttf
2526.346	n/a	START	1263173	n/a	LTP093	ltpFR	8	n/a	n/a	n/a	n/a	n/a	n/a	n/a	n/a	n/a	n/a	n/a	n/a	n/a	n/a	n/a
2527.38	n/a	PROB	1263690	n/a	LTP093	ltpFR	8	n/a	n/a	n/a	n/a	n/a	n/a	14	7	2	5	n/a	n/a	n/a	n/a	n/a
2529.28	n/a	PROB	1264640	n/a	LTP093	ltpFR	8	n/a	n/a	n/a	n/a	n/a	n/a	12	9	2	1	n/a	n/a	n/a	n/a	n/a
2530.746	n/a	PROB	1265373	n/a	LTP093	ltpFR	8	n/a	n/a	n/a	n/a	n/a	n/a	14	1	4	9	n/a	n/a	n/a	n/a	n/a
2532.062	n/a	PROB	1266031	n/a	LTP093	ltpFR	8	n/a	n/a	n/a	n/a	n/a	n/a	20	5	8	7	n/a	n/a	n/a	n/a	n/a
2534.232	n/a	STOP	1267116	n/a	LTP093	ltpFR	8	n/a	n/a	n/a	n/a	n/a	n/a	n/a	n/a	n/a	n/a	n/a	n/a	n/a	n/a	n/a
2535.38	n/a	WORD	1267690	wordpools/wasnorm_wordpool.txt	LTP093	ltpFR	8	9	1	BOY	161	n/a	1	n/a	0	0	0	1	0.412841796875	0.57763671875	upper	../fonts/zerothre.ttf
2538.388	n/a	START	1269194	n/a	LTP093	ltpFR	8	n/a	n/a	n/a	n/a	n/a	n/a	n/a	n/a	n/a	n/a	n/a	n/a	n/a	n/a	n/a
2539.52	n/a	PROB	1269760	n/a	LTP093	ltpFR	8	n/a	n/a	n/a	n/a	n/a	n/a	9	1	6	2	n/a	n/a	n/a	n/a	n/a
2541.102	n/a	PROB	1270551	n/a	LTP093	ltpFR	8	n/a	n/a	n/a	n/a	n/a	n/a	198	7	6	6	n/a	n/a	n/a	n/a	n/a
2543.87	n/a	PROB	1271935	n/a	LTP093	ltpFR	8	n/a	n/a	n/a	n/a	n/a	n/a	8	1	4	4	n/a	n/a	n/a	n/a	n/a
2545.786	n/a	STOP	1272893	n/a	LTP093	ltpFR	8	n/a	n/a	n/a	n/a	n/a	n/a	n/a	n/a	n/a	n/a	n/a	n/a	n/a	n/a	n/a
2547.362	n/a	WORD	1273681	wordpools/wasnorm_wordpool.txt	LTP093	ltpFR	8	9	1	FIELD	562	n/a	0	n/a	0	0	0	1	0.412841796875	0.57763671875	upper	../fonts/zerothre.ttf
2550.372	n/a	START	1275186	n/a	LTP093	ltpFR	8	n/a	n/a	n/a	n/a	n/a	n/a	n/a	n/a	n/a	n/a	n/a	n/a	n/a	n/a	n/a
2551.438	n/a	PROB	1275719	n/a	LTP093	ltpFR	8	n/a	n/a	n/a	n/a	n/a	n/a	21	8	5	8	n/a	n/a	n/a	n/a	n/a
2553.728	n/a	PROB	1276864	n/a	LTP093	ltpFR	8	n/a	n/a	n/a	n/a	n/a	n/a	17	3	6	8	n/a	n/a	n/a	n/a	n/a
2555.646	n/a	PROB	1277823	n/a	LTP093	ltpFR	8	n/a	n/a	n/a	n/a	n/a	n/a	23	9	5	9	n/a	n/a	n/a	n/a	n/a
2557.176	n/a	STOP	1278588	n/a	LTP093	ltpFR	8	n/a	n/a	n/a	n/a	n/a	n/a	n/a	n/a	n/a	n/a	n/a	n/a	n/a	n/a	n/a
2559.494	n/a	WORD	1279747	wordpools/wasnorm_wordpool.txt	LTP093	ltpFR	8	9	1	CORN	381	n/a	1	n/a	0	0	0	1	0.412841796875	0.57763671875	upper	../fonts/zerothre.ttf
2562.504	n/a	START	1281252	n/a	LTP093	ltpFR	8	n/a	n/a	n/a	n/a	n/a	n/a	n/a	n/a	n/a	n/a	n/a	n/a	n/a	n/a	n/a
2563.478	n/a	PROB	1281739	n/a	LTP093	ltpFR	8	n/a	n/a	n/a	n/a	n/a	n/a	10	3	3	4	n/a	n/a	n/a	n/a	n/a
2565.288	n/a	PROB	1282644	n/a	LTP093	ltpFR	8	n/a	n/a	n/a	n/a	n/a	n/a	15	9	3	3	n/a	n/a	n/a	n/a	n/a
2567.27	n/a	PROB	1283635	n/a	LTP093	ltpFR	8	n/a	n/a	n/a	n/a	n/a	n/a	19	7	4	8	n/a	n/a	n/a	n/a	n/a
2569.186	n/a	STOP	1284593	n/a	LTP093	ltpFR	8	n/a	n/a	n/a	n/a	n/a	n/a	n/a	n/a	n/a	n/a	n/a	n/a	n/a	n/a	n/a
2571.404	n/a	WORD	1285702	wordpools/wasnorm_wordpool.txt	LTP093	ltpFR	8	9	1	SAUCER	1237	n/a	0	n/a	0	0	0	1	0.412841796875	0.57763671875	upper	../fonts/zerothre.ttf
2574.412	n/a	START	1287206	n/a	LTP093	ltpFR	8	n/a	n/a	n/a	n/a	n/a	n/a	n/a	n/a	n/a	n/a	n/a	n/a	n/a	n/a	n/a
2575.602	n/a	PROB	1287801	n/a	LTP093	ltpFR	8	n/a	n/a	n/a	n/a	n/a	n/a	13	7	3	3	n/a	n/a	n/a	n/a	n/a
2577.202	n/a	PROB	1288601	n/a	LTP093	ltpFR	8	n/a	n/a	n/a	n/a	n/a	n/a	9	1	7	1	n/a	n/a	n/a	n/a	n/a
2578.478	n/a	PROB	1289239	n/a	LTP093	ltpFR	8	n/a	n/a	n/a	n/a	n/a	n/a	17	5	7	5	n/a	n/a	n/a	n/a	n/a
2579.628	n/a	PROB	1289814	n/a	LTP093	ltpFR	8	n/a	n/a	n/a	n/a	n/a	n/a	20	9	3	8	n/a	n/a	n/a	n/a	n/a
2581.218	n/a	STOP	1290609	n/a	LTP093	ltpFR	8	n/a	n/a	n/a	n/a	n/a	n/a	n/a	n/a	n/a	n/a	n/a	n/a	n/a	n/a	n/a
2583.42	n/a	WORD	1291710	wordpools/wasnorm_wordpool.txt	LTP093	ltpFR	8	9	1	CHAIR	274	n/a	0	n/a	0	0	0	1	0.412841796875	0.57763671875	upper	../fonts/zerothre.ttf
2586.428	n/a	START	1293214	n/a	LTP093	ltpFR	8	n/a	n/a	n/a	n/a	n/a	n/a	n/a	n/a	n/a	n/a	n/a	n/a	n/a	n/a	n/a
2587.304	n/a	PROB	1293652	n/a	LTP093	ltpFR	8	n/a	n/a	n/a	n/a	n/a	n/a	8	4	1	3	n/a	n/a	n/a	n/a	n/a
2589.076	n/a	PROB	1294538	n/a	LTP093	ltpFR	8	n/a	n/a	n/a	n/a	n/a	n/a	15	8	5	2	n/a	n/a	n/a	n/a	n/a
2590.662	n/a	PROB	1295331	n/a	LTP093	ltpFR	8	n/a	n/a	n/a	n/a	n/a	n/a	15	1	6	8	n/a	n/a	n/a	n/a	n/a
2592.544	n/a	PROB	1296272	n/a	LTP093	ltpFR	8	n/a	n/a	n/a	n/a	n/a	n/a	16	6	3	7	n/a	n/a	n/a	n/a	n/a
2594.034	n/a	STOP	1297017	n/a	LTP093	ltpFR	8	n/a	n/a	n/a	n/a	n/a	n/a	n/a	n/a	n/a	n/a	n/a	n/a	n/a	n/a	n/a
2595.37	n/a	WORD	1297685	wordpools/wasnorm_wordpool.txt	LTP093	ltpFR	8	9	1	SOFA	1342	n/a	0	n/a	0	0	0	1	0.412841796875	0.57763671875	upper	../fonts/zerothre.ttf
2598.378	n/a	START	1299189	n/a	LTP093	ltpFR	8	n/a	n/a	n/a	n/a	n/a	n/a	n/a	n/a	n/a	n/a	n/a	n/a	n/a	n/a	n/a
2599.51	n/a	PROB	1299755	n/a	LTP093	ltpFR	8	n/a	n/a	n/a	n/a	n/a	n/a	22	8	8	6	n/a	n/a	n/a	n/a	n/a
2602.076	n/a	PROB	1301038	n/a	LTP093	ltpFR	8	n/a	n/a	n/a	n/a	n/a	n/a	11	7	1	3	n/a	n/a	n/a	n/a	n/a
2603.436	n/a	PROB	1301718	n/a	LTP093	ltpFR	8	n/a	n/a	n/a	n/a	n/a	n/a	12	2	8	2	n/a	n/a	n/a	n/a	n/a
2604.81	n/a	PROB	1302405	n/a	LTP093	ltpFR	8	n/a	n/a	n/a	n/a	n/a	n/a	12	3	7	2	n/a	n/a	n/a	n/a	n/a
2605.964	n/a	STOP	1302982	n/a	LTP093	ltpFR	8	n/a	n/a	n/a	n/a	n/a	n/a	n/a	n/a	n/a	n/a	n/a	n/a	n/a	n/a	n/a
2607.42	n/a	WORD	1303710	wordpools/wasnorm_wordpool.txt	LTP093	ltpFR	8	9	1	COMPANION	357	n/a	1	n/a	0	0	0	1	0.412841796875	0.57763671875	upper	../fonts/zerothre.ttf
2610.428	n/a	START	1305214	n/a	LTP093	ltpFR	8	n/a	n/a	n/a	n/a	n/a	n/a	n/a	n/a	n/a	n/a	n/a	n/a	n/a	n/a	n/a
2611.236	n/a	PROB	1305618	n/a	LTP093	ltpFR	8	n/a	n/a	n/a	n/a	n/a	n/a	19	9	9	1	n/a	n/a	n/a	n/a	n/a
2612.418	n/a	PROB	1306209	n/a	LTP093	ltpFR	8	n/a	n/a	n/a	n/a	n/a	n/a	16	5	9	2	n/a	n/a	n/a	n/a	n/a
2614.636	n/a	PROB	1307318	n/a	LTP093	ltpFR	8	n/a	n/a	n/a	n/a	n/a	n/a	9	1	2	6	n/a	n/a	n/a	n/a	n/a
2616.144	n/a	PROB	1308072	n/a	LTP093	ltpFR	8	n/a	n/a	n/a	n/a	n/a	n/a	14	7	1	6	n/a	n/a	n/a	n/a	n/a
2618.356	n/a	STOP	1309178	n/a	LTP093	ltpFR	8	n/a	n/a	n/a	n/a	n/a	n/a	n/a	n/a	n/a	n/a	n/a	n/a	n/a	n/a	n/a
2619.426	n/a	WORD	1309713	wordpools/wasnorm_wordpool.txt	LTP093	ltpFR	8	9	1	GOVERNOR	651	n/a	1	n/a	0	0	0	1	0.412841796875	0.57763671875	upper	../fonts/zerothre.ttf
2622.436	n/a	START	1311218	n/a	LTP093	ltpFR	8	n/a	n/a	n/a	n/a	n/a	n/a	n/a	n/a	n/a	n/a	n/a	n/a	n/a	n/a	n/a
2623.384	n/a	PROB	1311692	n/a	LTP093	ltpFR	8	n/a	n/a	n/a	n/a	n/a	n/a	20	7	5	8	n/a	n/a	n/a	n/a	n/a
2625.134	n/a	PROB	1312567	n/a	LTP093	ltpFR	8	n/a	n/a	n/a	n/a	n/a	n/a	15	9	1	5	n/a	n/a	n/a	n/a	n/a
2626.352	n/a	PROB	1313176	n/a	LTP093	ltpFR	8	n/a	n/a	n/a	n/a	n/a	n/a	12	8	2	2	n/a	n/a	n/a	n/a	n/a
2627.51	n/a	PROB	1313755	n/a	LTP093	ltpFR	8	n/a	n/a	n/a	n/a	n/a	n/a	20	4	9	7	n/a	n/a	n/a	n/a	n/a
2629.254	n/a	STOP	1314627	n/a	LTP093	ltpFR	8	n/a	n/a	n/a	n/a	n/a	n/a	n/a	n/a	n/a	n/a	n/a	n/a	n/a	n/a	n/a
2632.218	n/a	REC_START	1316109	n/a	LTP093	ltpFR	8	9	n/a	n/a	n/a	n/a	n/a	n/a	0	0	0	n/a	n/a	n/a	n/a	n/a
2633.376	n/a	REC_WORD	1316688	wordpools/wasnorm_wordpool.txt	LTP093	ltpFR	8	9	1	COMPANION	357	n/a	1	n/a	0	0	0	n/a	n/a	n/a	n/a	n/a
2634.762	n/a	REC_WORD	1317381	wordpools/wasnorm_wordpool.txt	LTP093	ltpFR	8	9	1	BOY	161	n/a	1	n/a	0	0	0	n/a	n/a	n/a	n/a	n/a
2635.96	n/a	REC_WORD	1317980	wordpools/wasnorm_wordpool.txt	LTP093	ltpFR	8	9	1	BEAD	103	n/a	0	n/a	0	0	0	n/a	n/a	n/a	n/a	n/a
2716.024	n/a	START	1358012	n/a	LTP093	ltpFR	8	n/a	n/a	n/a	n/a	n/a	n/a	n/a	n/a	n/a	n/a	n/a	n/a	n/a	n/a	n/a
2717.524	n/a	PROB	1358762	n/a	LTP093	ltpFR	8	n/a	n/a	n/a	n/a	n/a	n/a	25	8	8	9	n/a	n/a	n/a	n/a	n/a
2720.624	n/a	PROB	1360312	n/a	LTP093	ltpFR	8	n/a	n/a	n/a	n/a	n/a	n/a	13	1	6	6	n/a	n/a	n/a	n/a	n/a
2722.398	n/a	PROB	1361199	n/a	LTP093	ltpFR	8	n/a	n/a	n/a	n/a	n/a	n/a	25	9	8	8	n/a	n/a	n/a	n/a	n/a
2725.416	n/a	PROB	1362708	n/a	LTP093	ltpFR	8	n/a	n/a	n/a	n/a	n/a	n/a	15	4	7	4	n/a	n/a	n/a	n/a	n/a
2727.174	n/a	PROB	1363587	n/a	LTP093	ltpFR	8	n/a	n/a	n/a	n/a	n/a	n/a	20	4	9	7	n/a	n/a	n/a	n/a	n/a
2730.056	n/a	PROB	1365028	n/a	LTP093	ltpFR	8	n/a	n/a	n/a	n/a	n/a	n/a	17	8	1	8	n/a	n/a	n/a	n/a	n/a
2731.738	n/a	STOP	1365869	n/a	LTP093	ltpFR	8	n/a	n/a	n/a	n/a	n/a	n/a	n/a	n/a	n/a	n/a	n/a	n/a	n/a	n/a	n/a
2732.956	n/a	WORD	1366478	wordpools/wasnorm_wordpool.txt	LTP093	ltpFR	8	10	1	SCIENTIST	1249	n/a	1	n/a	0	0	0	1	0.412841796875	0.57763671875	upper	../fonts/zerothre.ttf
2735.966	n/a	START	1367983	n/a	LTP093	ltpFR	8	n/a	n/a	n/a	n/a	n/a	n/a	n/a	n/a	n/a	n/a	n/a	n/a	n/a	n/a	n/a
2736.964	n/a	PROB	1368482	n/a	LTP093	ltpFR	8	n/a	n/a	n/a	n/a	n/a	n/a	15	3	8	4	n/a	n/a	n/a	n/a	n/a
2738.982	n/a	PROB	1369491	n/a	LTP093	ltpFR	8	n/a	n/a	n/a	n/a	n/a	n/a	12	5	3	4	n/a	n/a	n/a	n/a	n/a
2742.166	n/a	PROB	1371083	n/a	LTP093	ltpFR	8	n/a	n/a	n/a	n/a	n/a	n/a	24	8	7	9	n/a	n/a	n/a	n/a	n/a
2744.764	n/a	PROB	1372382	n/a	LTP093	ltpFR	8	n/a	n/a	n/a	n/a	n/a	n/a	20	8	6	6	n/a	n/a	n/a	n/a	n/a
2746.424	n/a	PROB	1373212	n/a	LTP093	ltpFR	8	n/a	n/a	n/a	n/a	n/a	n/a	19	3	9	7	n/a	n/a	n/a	n/a	n/a
2748.322	n/a	PROB	1374161	n/a	LTP093	ltpFR	8	n/a	n/a	n/a	n/a	n/a	n/a	24	9	7	8	n/a	n/a	n/a	n/a	n/a
2751.236	n/a	STOP	1375618	n/a	LTP093	ltpFR	8	n/a	n/a	n/a	n/a	n/a	n/a	n/a	n/a	n/a	n/a	n/a	n/a	n/a	n/a	n/a
2752.874	n/a	WORD	1376437	wordpools/wasnorm_wordpool.txt	LTP093	ltpFR	8	10	1	WORKER	1621	n/a	1	n/a	0	0	0	1	0.412841796875	0.57763671875	upper	../fonts/zerothre.ttf
2755.882	n/a	START	1377941	n/a	LTP093	ltpFR	8	n/a	n/a	n/a	n/a	n/a	n/a	n/a	n/a	n/a	n/a	n/a	n/a	n/a	n/a	n/a
2756.806	n/a	PROB	1378403	n/a	LTP093	ltpFR	8	n/a	n/a	n/a	n/a	n/a	n/a	10	1	4	5	n/a	n/a	n/a	n/a	n/a
2758.072	n/a	PROB	1379036	n/a	LTP093	ltpFR	8	n/a	n/a	n/a	n/a	n/a	n/a	19	4	6	9	n/a	n/a	n/a	n/a	n/a
2760.848	n/a	PROB	1380424	n/a	LTP093	ltpFR	8	n/a	n/a	n/a	n/a	n/a	n/a	10	2	6	2	n/a	n/a	n/a	n/a	n/a
2762.922	n/a	PROB	1381461	n/a	LTP093	ltpFR	8	n/a	n/a	n/a	n/a	n/a	n/a	12	3	7	2	n/a	n/a	n/a	n/a	n/a
2764.148	n/a	PROB	1382074	n/a	LTP093	ltpFR	8	n/a	n/a	n/a	n/a	n/a	n/a	12	9	1	2	n/a	n/a	n/a	n/a	n/a
2765.572	n/a	PROB	1382786	n/a	LTP093	ltpFR	8	n/a	n/a	n/a	n/a	n/a	n/a	14	1	8	5	n/a	n/a	n/a	n/a	n/a
2767.24	n/a	PROB	1383620	n/a	LTP093	ltpFR	8	n/a	n/a	n/a	n/a	n/a	n/a	8	3	2	3	n/a	n/a	n/a	n/a	n/a
2770.428	n/a	STOP	1385214	n/a	LTP093	ltpFR	8	n/a	n/a	n/a	n/a	n/a	n/a	n/a	n/a	n/a	n/a	n/a	n/a	n/a	n/a	n/a
2773.056	n/a	WORD	1386528	wordpools/wasnorm_wordpool.txt	LTP093	ltpFR	8	10	1	PADDING	999	n/a	0	n/a	0	0	0	1	0.412841796875	0.57763671875	upper	../fonts/zerothre.ttf
2776.064	n/a	START	1388032	n/a	LTP093	ltpFR	8	n/a	n/a	n/a	n/a	n/a	n/a	n/a	n/a	n/a	n/a	n/a	n/a	n/a	n/a	n/a
2777.046	n/a	PROB	1388523	n/a	LTP093	ltpFR	8	n/a	n/a	n/a	n/a	n/a	n/a	16	3	4	9	n/a	n/a	n/a	n/a	n/a
2778.756	n/a	PROB	1389378	n/a	LTP093	ltpFR	8	n/a	n/a	n/a	n/a	n/a	n/a	17	7	6	4	n/a	n/a	n/a	n/a	n/a
2783.046	n/a	PROB	1391523	n/a	LTP093	ltpFR	8	n/a	n/a	n/a	n/a	n/a	n/a	14	9	3	2	n/a	n/a	n/a	n/a	n/a
2785.264	n/a	PROB	1392632	n/a	LTP093	ltpFR	8	n/a	n/a	n/a	n/a	n/a	n/a	13	4	7	2	n/a	n/a	n/a	n/a	n/a
2787.02	n/a	PROB	1393510	n/a	LTP093	ltpFR	8	n/a	n/a	n/a	n/a	n/a	n/a	19	8	4	7	n/a	n/a	n/a	n/a	n/a
2789.012	n/a	PROB	1394506	n/a	LTP093	ltpFR	8	n/a	n/a	n/a	n/a	n/a	n/a	26	9	7	9	n/a	n/a	n/a	n/a	n/a
2791.972	n/a	STOP	1395986	n/a	LTP093	ltpFR	8	n/a	n/a	n/a	n/a	n/a	n/a	n/a	n/a	n/a	n/a	n/a	n/a	n/a	n/a	n/a
2793.23	n/a	WORD	1396615	wordpools/wasnorm_wordpool.txt	LTP093	ltpFR	8	10	1	PACKAGE	997	n/a	0	n/a	0	0	0	1	0.412841796875	0.57763671875	upper	../fonts/zerothre.ttf
2796.232	n/a	START	1398116	n/a	LTP093	ltpFR	8	n/a	n/a	n/a	n/a	n/a	n/a	n/a	n/a	n/a	n/a	n/a	n/a	n/a	n/a	n/a
2797.054	n/a	PROB	1398527	n/a	LTP093	ltpFR	8	n/a	n/a	n/a	n/a	n/a	n/a	14	3	2	9	n/a	n/a	n/a	n/a	n/a
2799.68	n/a	PROB	1399840	n/a	LTP093	ltpFR	8	n/a	n/a	n/a	n/a	n/a	n/a	13	3	2	8	n/a	n/a	n/a	n/a	n/a
2801.28	n/a	PROB	1400640	n/a	LTP093	ltpFR	8	n/a	n/a	n/a	n/a	n/a	n/a	20	4	9	7	n/a	n/a	n/a	n/a	n/a
2803.772	n/a	PROB	1401886	n/a	LTP093	ltpFR	8	n/a	n/a	n/a	n/a	n/a	n/a	9	4	3	2	n/a	n/a	n/a	n/a	n/a
2805.864	n/a	PROB	1402932	n/a	LTP093	ltpFR	8	n/a	n/a	n/a	n/a	n/a	n/a	18	4	9	5	n/a	n/a	n/a	n/a	n/a
2807.78	n/a	PROB	1403890	n/a	LTP093	ltpFR	8	n/a	n/a	n/a	n/a	n/a	n/a	16	2	8	6	n/a	n/a	n/a	n/a	n/a
2809.272	n/a	PROB	1404636	n/a	LTP093	ltpFR	8	n/a	n/a	n/a	n/a	n/a	n/a	12	2	6	4	n/a	n/a	n/a	n/a	n/a
2811.63	n/a	STOP	1405815	n/a	LTP093	ltpFR	8	n/a	n/a	n/a	n/a	n/a	n/a	n/a	n/a	n/a	n/a	n/a	n/a	n/a	n/a	n/a
2813.356	n/a	WORD	1406678	wordpools/wasnorm_wordpool.txt	LTP093	ltpFR	8	10	1	ROBOT	1200	n/a	0	n/a	0	0	0	1	0.412841796875	0.57763671875	upper	../fonts/zerothre.ttf
2816.364	n/a	START	1408182	n/a	LTP093	ltpFR	8	n/a	n/a	n/a	n/a	n/a	n/a	n/a	n/a	n/a	n/a	n/a	n/a	n/a	n/a	n/a
2817.438	n/a	PROB	1408719	n/a	LTP093	ltpFR	8	n/a	n/a	n/a	n/a	n/a	n/a	17	6	5	6	n/a	n/a	n/a	n/a	n/a
2820.522	n/a	PROB	1410261	n/a	LTP093	ltpFR	8	n/a	n/a	n/a	n/a	n/a	n/a	21	5	9	7	n/a	n/a	n/a	n/a	n/a
2822.522	n/a	PROB	1411261	n/a	LTP093	ltpFR	8	n/a	n/a	n/a	n/a	n/a	n/a	23	7	8	8	n/a	n/a	n/a	n/a	n/a
2825.188	n/a	PROB	1412594	n/a	LTP093	ltpFR	8	n/a	n/a	n/a	n/a	n/a	n/a	17	6	5	6	n/a	n/a	n/a	n/a	n/a
2827.554	n/a	PROB	1413777	n/a	LTP093	ltpFR	8	n/a	n/a	n/a	n/a	n/a	n/a	10	2	4	4	n/a	n/a	n/a	n/a	n/a
2828.954	n/a	PROB	1414477	n/a	LTP093	ltpFR	8	n/a	n/a	n/a	n/a	n/a	n/a	20	6	7	7	n/a	n/a	n/a	n/a	n/a
2831.776	n/a	STOP	1415888	n/a	LTP093	ltpFR	8	n/a	n/a	n/a	n/a	n/a	n/a	n/a	n/a	n/a	n/a	n/a	n/a	n/a	n/a	n/a
2833.472	n/a	WORD	1416736	wordpools/wasnorm_wordpool.txt	LTP093	ltpFR	8	10	1	GARLIC	624	n/a	1	n/a	0	0	0	1	0.412841796875	0.57763671875	upper	../fonts/zerothre.ttf
2836.48	n/a	START	1418240	n/a	LTP093	ltpFR	8	n/a	n/a	n/a	n/a	n/a	n/a	n/a	n/a	n/a	n/a	n/a	n/a	n/a	n/a	n/a
2837.48	n/a	PROB	1418740	n/a	LTP093	ltpFR	8	n/a	n/a	n/a	n/a	n/a	n/a	14	8	3	3	n/a	n/a	n/a	n/a	n/a
2840.304	n/a	PROB	1420152	n/a	LTP093	ltpFR	8	n/a	n/a	n/a	n/a	n/a	n/a	11	6	3	2	n/a	n/a	n/a	n/a	n/a
2842.188	n/a	PROB	1421094	n/a	LTP093	ltpFR	8	n/a	n/a	n/a	n/a	n/a	n/a	13	4	2	7	n/a	n/a	n/a	n/a	n/a
2844.562	n/a	PROB	1422281	n/a	LTP093	ltpFR	8	n/a	n/a	n/a	n/a	n/a	n/a	19	8	9	2	n/a	n/a	n/a	n/a	n/a
2846.546	n/a	PROB	1423273	n/a	LTP093	ltpFR	8	n/a	n/a	n/a	n/a	n/a	n/a	16	8	3	5	n/a	n/a	n/a	n/a	n/a
2848.412	n/a	PROB	1424206	n/a	LTP093	ltpFR	8	n/a	n/a	n/a	n/a	n/a	n/a	22	9	4	9	n/a	n/a	n/a	n/a	n/a
2850.712	n/a	PROB	1425356	n/a	LTP093	ltpFR	8	n/a	n/a	n/a	n/a	n/a	n/a	4	1	2	1	n/a	n/a	n/a	n/a	n/a
2851.656	n/a	STOP	1425828	n/a	LTP093	ltpFR	8	n/a	n/a	n/a	n/a	n/a	n/a	n/a	n/a	n/a	n/a	n/a	n/a	n/a	n/a	n/a
2853.522	n/a	WORD	1426761	wordpools/wasnorm_wordpool.txt	LTP093	ltpFR	8	10	1	BEAKER	104	n/a	0	n/a	0	0	0	1	0.412841796875	0.57763671875	upper	../fonts/zerothre.ttf
2856.53	n/a	START	1428265	n/a	LTP093	ltpFR	8	n/a	n/a	n/a	n/a	n/a	n/a	n/a	n/a	n/a	n/a	n/a	n/a	n/a	n/a	n/a
2857.57	n/a	PROB	1428785	n/a	LTP093	ltpFR	8	n/a	n/a	n/a	n/a	n/a	n/a	19	9	3	7	n/a	n/a	n/a	n/a	n/a
2858.896	n/a	PROB	1429448	n/a	LTP093	ltpFR	8	n/a	n/a	n/a	n/a	n/a	n/a	17	2	8	7	n/a	n/a	n/a	n/a	n/a
2860.246	n/a	PROB	1430123	n/a	LTP093	ltpFR	8	n/a	n/a	n/a	n/a	n/a	n/a	18	6	9	3	n/a	n/a	n/a	n/a	n/a
2862.696	n/a	PROB	1431348	n/a	LTP093	ltpFR	8	n/a	n/a	n/a	n/a	n/a	n/a	18	9	6	3	n/a	n/a	n/a	n/a	n/a
2863.946	n/a	PROB	1431973	n/a	LTP093	ltpFR	8	n/a	n/a	n/a	n/a	n/a	n/a	8	4	2	4	n/a	n/a	n/a	n/a	n/a
2865.228	n/a	PROB	1432614	n/a	LTP093	ltpFR	8	n/a	n/a	n/a	n/a	n/a	n/a	19	6	6	7	n/a	n/a	n/a	n/a	n/a
2871.12	n/a	STOP	1435560	n/a	LTP093	ltpFR	8	n/a	n/a	n/a	n/a	n/a	n/a	n/a	n/a	n/a	n/a	n/a	n/a	n/a	n/a	n/a
2873.37	n/a	WORD	1436685	wordpools/wasnorm_wordpool.txt	LTP093	ltpFR	8	10	1	TOENAIL	1474	n/a	0	n/a	0	0	0	1	0.412841796875	0.57763671875	upper	../fonts/zerothre.ttf
2876.38	n/a	START	1438190	n/a	LTP093	ltpFR	8	n/a	n/a	n/a	n/a	n/a	n/a	n/a	n/a	n/a	n/a	n/a	n/a	n/a	n/a	n/a
2877.236	n/a	PROB	1438618	n/a	LTP093	ltpFR	8	n/a	n/a	n/a	n/a	n/a	n/a	11	2	3	6	n/a	n/a	n/a	n/a	n/a
2879.212	n/a	PROB	1439606	n/a	LTP093	ltpFR	8	n/a	n/a	n/a	n/a	n/a	n/a	20	9	9	2	n/a	n/a	n/a	n/a	n/a
2880.636	n/a	PROB	1440318	n/a	LTP093	ltpFR	8	n/a	n/a	n/a	n/a	n/a	n/a	18	1	7	8	n/a	n/a	n/a	n/a	n/a
2882.82	n/a	PROB	1441410	n/a	LTP093	ltpFR	8	n/a	n/a	n/a	n/a	n/a	n/a	19	8	2	9	n/a	n/a	n/a	n/a	n/a
2884.794	n/a	PROB	1442397	n/a	LTP093	ltpFR	8	n/a	n/a	n/a	n/a	n/a	n/a	14	3	8	2	n/a	n/a	n/a	n/a	n/a
2887.152	n/a	PROB	1443576	n/a	LTP093	ltpFR	8	n/a	n/a	n/a	n/a	n/a	n/a	9	6	2	3	n/a	n/a	n/a	n/a	n/a
2889.402	n/a	PROB	1444701	n/a	LTP093	ltpFR	8	n/a	n/a	n/a	n/a	n/a	n/a	12	6	1	5	n/a	n/a	n/a	n/a	n/a
2891.322	n/a	STOP	1445661	n/a	LTP093	ltpFR	8	n/a	n/a	n/a	n/a	n/a	n/a	n/a	n/a	n/a	n/a	n/a	n/a	n/a	n/a	n/a
2893.212	n/a	WORD	1446606	wordpools/wasnorm_wordpool.txt	LTP093	ltpFR	8	10	1	THIGH	1457	n/a	1	n/a	0	0	0	1	0.412841796875	0.57763671875	upper	../fonts/zerothre.ttf
2896.22	n/a	START	1448110	n/a	LTP093	ltpFR	8	n/a	n/a	n/a	n/a	n/a	n/a	n/a	n/a	n/a	n/a	n/a	n/a	n/a	n/a	n/a
2897.118	n/a	PROB	1448559	n/a	LTP093	ltpFR	8	n/a	n/a	n/a	n/a	n/a	n/a	21	7	9	5	n/a	n/a	n/a	n/a	n/a
2899.27	n/a	PROB	1449635	n/a	LTP093	ltpFR	8	n/a	n/a	n/a	n/a	n/a	n/a	41	2	7	5	n/a	n/a	n/a	n/a	n/a
2901.77	n/a	PROB	1450885	n/a	LTP093	ltpFR	8	n/a	n/a	n/a	n/a	n/a	n/a	16	5	9	2	n/a	n/a	n/a	n/a	n/a
2905.402	n/a	PROB	1452701	n/a	LTP093	ltpFR	8	n/a	n/a	n/a	n/a	n/a	n/a	10	4	3	3	n/a	n/a	n/a	n/a	n/a
2907.402	n/a	PROB	1453701	n/a	LTP093	ltpFR	8	n/a	n/a	n/a	n/a	n/a	n/a	17	6	2	7	n/a	n/a	n/a	n/a	n/a
2912.22	n/a	STOP	1456110	n/a	LTP093	ltpFR	8	n/a	n/a	n/a	n/a	n/a	n/a	n/a	n/a	n/a	n/a	n/a	n/a	n/a	n/a	n/a
2913.102	n/a	WORD	1456551	wordpools/wasnorm_wordpool.txt	LTP093	ltpFR	8	10	1	WAREHOUSE	1588	n/a	0	n/a	0	0	0	1	0.412841796875	0.57763671875	upper	../fonts/zerothre.ttf
2916.118	n/a	START	1458059	n/a	LTP093	ltpFR	8	n/a	n/a	n/a	n/a	n/a	n/a	n/a	n/a	n/a	n/a	n/a	n/a	n/a	n/a	n/a
2916.96	n/a	PROB	1458480	n/a	LTP093	ltpFR	8	n/a	n/a	n/a	n/a	n/a	n/a	15	6	2	7	n/a	n/a	n/a	n/a	n/a
2920.528	n/a	PROB	1460264	n/a	LTP093	ltpFR	8	n/a	n/a	n/a	n/a	n/a	n/a	15	3	7	5	n/a	n/a	n/a	n/a	n/a
2921.944	n/a	PROB	1460972	n/a	LTP093	ltpFR	8	n/a	n/a	n/a	n/a	n/a	n/a	18	7	7	4	n/a	n/a	n/a	n/a	n/a
2924.31	n/a	PROB	1462155	n/a	LTP093	ltpFR	8	n/a	n/a	n/a	n/a	n/a	n/a	10	4	5	1	n/a	n/a	n/a	n/a	n/a
2926.1	n/a	PROB	1463050	n/a	LTP093	ltpFR	8	n/a	n/a	n/a	n/a	n/a	n/a	19	3	9	7	n/a	n/a	n/a	n/a	n/a
2927.702	n/a	PROB	1463851	n/a	LTP093	ltpFR	8	n/a	n/a	n/a	n/a	n/a	n/a	11	1	1	9	n/a	n/a	n/a	n/a	n/a
2928.918	n/a	PROB	1464459	n/a	LTP093	ltpFR	8	n/a	n/a	n/a	n/a	n/a	n/a	11	5	2	4	n/a	n/a	n/a	n/a	n/a
2930.986	n/a	STOP	1465493	n/a	LTP093	ltpFR	8	n/a	n/a	n/a	n/a	n/a	n/a	n/a	n/a	n/a	n/a	n/a	n/a	n/a	n/a	n/a
2932.984	n/a	WORD	1466492	wordpools/wasnorm_wordpool.txt	LTP093	ltpFR	8	10	1	BUTTERFLY	206	n/a	1	n/a	0	0	0	1	0.412841796875	0.57763671875	upper	../fonts/zerothre.ttf
2935.994	n/a	START	1467997	n/a	LTP093	ltpFR	8	n/a	n/a	n/a	n/a	n/a	n/a	n/a	n/a	n/a	n/a	n/a	n/a	n/a	n/a	n/a
2936.968	n/a	PROB	1468484	n/a	LTP093	ltpFR	8	n/a	n/a	n/a	n/a	n/a	n/a	14	6	1	7	n/a	n/a	n/a	n/a	n/a
2938.836	n/a	PROB	1469418	n/a	LTP093	ltpFR	8	n/a	n/a	n/a	n/a	n/a	n/a	19	9	9	1	n/a	n/a	n/a	n/a	n/a
2940.36	n/a	PROB	1470180	n/a	LTP093	ltpFR	8	n/a	n/a	n/a	n/a	n/a	n/a	11	4	5	2	n/a	n/a	n/a	n/a	n/a
2942.534	n/a	PROB	1471267	n/a	LTP093	ltpFR	8	n/a	n/a	n/a	n/a	n/a	n/a	16	8	7	1	n/a	n/a	n/a	n/a	n/a
2944.976	n/a	PROB	1472488	n/a	LTP093	ltpFR	8	n/a	n/a	n/a	n/a	n/a	n/a	14	5	7	2	n/a	n/a	n/a	n/a	n/a
2946.71	n/a	PROB	1473355	n/a	LTP093	ltpFR	8	n/a	n/a	n/a	n/a	n/a	n/a	12	4	6	2	n/a	n/a	n/a	n/a	n/a
2948.71	n/a	PROB	1474355	n/a	LTP093	ltpFR	8	n/a	n/a	n/a	n/a	n/a	n/a	13	4	5	6	n/a	n/a	n/a	n/a	n/a
2950.556	n/a	STOP	1475278	n/a	LTP093	ltpFR	8	n/a	n/a	n/a	n/a	n/a	n/a	n/a	n/a	n/a	n/a	n/a	n/a	n/a	n/a	n/a
2953.024	n/a	WORD	1476512	wordpools/wasnorm_wordpool.txt	LTP093	ltpFR	8	10	1	KITE	779	n/a	0	n/a	0	0	0	1	0.412841796875	0.57763671875	upper	../fonts/zerothre.ttf
2956.034	n/a	START	1478017	n/a	LTP093	ltpFR	8	n/a	n/a	n/a	n/a	n/a	n/a	n/a	n/a	n/a	n/a	n/a	n/a	n/a	n/a	n/a
2956.944	n/a	PROB	1478472	n/a	LTP093	ltpFR	8	n/a	n/a	n/a	n/a	n/a	n/a	12	1	9	2	n/a	n/a	n/a	n/a	n/a
2958.05	n/a	PROB	1479025	n/a	LTP093	ltpFR	8	n/a	n/a	n/a	n/a	n/a	n/a	12	2	6	4	n/a	n/a	n/a	n/a	n/a
2960.234	n/a	PROB	1480117	n/a	LTP093	ltpFR	8	n/a	n/a	n/a	n/a	n/a	n/a	22	8	8	6	n/a	n/a	n/a	n/a	n/a
2963.768	n/a	PROB	1481884	n/a	LTP093	ltpFR	8	n/a	n/a	n/a	n/a	n/a	n/a	12	6	5	1	n/a	n/a	n/a	n/a	n/a
2965.692	n/a	PROB	1482846	n/a	LTP093	ltpFR	8	n/a	n/a	n/a	n/a	n/a	n/a	11	1	8	2	n/a	n/a	n/a	n/a	n/a
2968.526	n/a	PROB	1484263	n/a	LTP093	ltpFR	8	n/a	n/a	n/a	n/a	n/a	n/a	21	4	8	9	n/a	n/a	n/a	n/a	n/a
2971.198	n/a	STOP	1485599	n/a	LTP093	ltpFR	8	n/a	n/a	n/a	n/a	n/a	n/a	n/a	n/a	n/a	n/a	n/a	n/a	n/a	n/a	n/a
2973.132	n/a	WORD	1486566	wordpools/wasnorm_wordpool.txt	LTP093	ltpFR	8	10	1	BUTLER	204	n/a	1	n/a	0	0	0	1	0.412841796875	0.57763671875	upper	../fonts/zerothre.ttf
2976.142	n/a	START	1488071	n/a	LTP093	ltpFR	8	n/a	n/a	n/a	n/a	n/a	n/a	n/a	n/a	n/a	n/a	n/a	n/a	n/a	n/a	n/a
2977.026	n/a	PROB	1488513	n/a	LTP093	ltpFR	8	n/a	n/a	n/a	n/a	n/a	n/a	16	2	8	6	n/a	n/a	n/a	n/a	n/a
2978.418	n/a	PROB	1489209	n/a	LTP093	ltpFR	8	n/a	n/a	n/a	n/a	n/a	n/a	10	5	1	4	n/a	n/a	n/a	n/a	n/a
2979.66	n/a	PROB	1489830	n/a	LTP093	ltpFR	8	n/a	n/a	n/a	n/a	n/a	n/a	14	6	4	4	n/a	n/a	n/a	n/a	n/a
2981.35	n/a	PROB	1490675	n/a	LTP093	ltpFR	8	n/a	n/a	n/a	n/a	n/a	n/a	18	9	3	6	n/a	n/a	n/a	n/a	n/a
2983.092	n/a	PROB	1491546	n/a	LTP093	ltpFR	8	n/a	n/a	n/a	n/a	n/a	n/a	17	3	6	8	n/a	n/a	n/a	n/a	n/a
2985.668	n/a	PROB	1492834	n/a	LTP093	ltpFR	8	n/a	n/a	n/a	n/a	n/a	n/a	16	3	5	8	n/a	n/a	n/a	n/a	n/a
2987.366	n/a	PROB	1493683	n/a	LTP093	ltpFR	8	n/a	n/a	n/a	n/a	n/a	n/a	14	5	5	4	n/a	n/a	n/a	n/a	n/a
2988.5	n/a	PROB	1494250	n/a	LTP093	ltpFR	8	n/a	n/a	n/a	n/a	n/a	n/a	17	7	7	3	n/a	n/a	n/a	n/a	n/a
2992.142	n/a	STOP	1496071	n/a	LTP093	ltpFR	8	n/a	n/a	n/a	n/a	n/a	n/a	n/a	n/a	n/a	n/a	n/a	n/a	n/a	n/a	n/a
2993.25	n/a	WORD	1496625	wordpools/wasnorm_wordpool.txt	LTP093	ltpFR	8	10	1	MICROWAVE	892	n/a	0	n/a	0	0	0	1	0.412841796875	0.57763671875	upper	../fonts/zerothre.ttf
2996.26	n/a	START	1498130	n/a	LTP093	ltpFR	8	n/a	n/a	n/a	n/a	n/a	n/a	n/a	n/a	n/a	n/a	n/a	n/a	n/a	n/a	n/a
2997.308	n/a	PROB	1498654	n/a	LTP093	ltpFR	8	n/a	n/a	n/a	n/a	n/a	n/a	14	2	6	6	n/a	n/a	n/a	n/a	n/a
2998.934	n/a	PROB	1499467	n/a	LTP093	ltpFR	8	n/a	n/a	n/a	n/a	n/a	n/a	9	1	2	6	n/a	n/a	n/a	n/a	n/a
3000.316	n/a	PROB	1500158	n/a	LTP093	ltpFR	8	n/a	n/a	n/a	n/a	n/a	n/a	11	2	8	1	n/a	n/a	n/a	n/a	n/a
3001.85	n/a	PROB	1500925	n/a	LTP093	ltpFR	8	n/a	n/a	n/a	n/a	n/a	n/a	19	2	8	9	n/a	n/a	n/a	n/a	n/a
3004.998	n/a	PROB	1502499	n/a	LTP093	ltpFR	8	n/a	n/a	n/a	n/a	n/a	n/a	14	5	7	2	n/a	n/a	n/a	n/a	n/a
3006.492	n/a	PROB	1503246	n/a	LTP093	ltpFR	8	n/a	n/a	n/a	n/a	n/a	n/a	16	7	8	1	n/a	n/a	n/a	n/a	n/a
3008.642	n/a	PROB	1504321	n/a	LTP093	ltpFR	8	n/a	n/a	n/a	n/a	n/a	n/a	16	2	7	7	n/a	n/a	n/a	n/a	n/a
3010.974	n/a	STOP	1505487	n/a	LTP093	ltpFR	8	n/a	n/a	n/a	n/a	n/a	n/a	n/a	n/a	n/a	n/a	n/a	n/a	n/a	n/a	n/a
3013.366	n/a	WORD	1506683	wordpools/wasnorm_wordpool.txt	LTP093	ltpFR	8	10	1	RECIPE	1175	n/a	0	n/a	0	0	0	1	0.412841796875	0.57763671875	upper	../fonts/zerothre.ttf
3016.368	n/a	START	1508184	n/a	LTP093	ltpFR	8	n/a	n/a	n/a	n/a	n/a	n/a	n/a	n/a	n/a	n/a	n/a	n/a	n/a	n/a	n/a
3017.324	n/a	PROB	1508662	n/a	LTP093	ltpFR	8	n/a	n/a	n/a	n/a	n/a	n/a	17	7	7	3	n/a	n/a	n/a	n/a	n/a
3019.458	n/a	PROB	1509729	n/a	LTP093	ltpFR	8	n/a	n/a	n/a	n/a	n/a	n/a	14	5	6	3	n/a	n/a	n/a	n/a	n/a
3021.066	n/a	PROB	1510533	n/a	LTP093	ltpFR	8	n/a	n/a	n/a	n/a	n/a	n/a	16	4	5	7	n/a	n/a	n/a	n/a	n/a
3023.75	n/a	PROB	1511875	n/a	LTP093	ltpFR	8	n/a	n/a	n/a	n/a	n/a	n/a	15	9	1	5	n/a	n/a	n/a	n/a	n/a
3024.966	n/a	PROB	1512483	n/a	LTP093	ltpFR	8	n/a	n/a	n/a	n/a	n/a	n/a	16	2	9	5	n/a	n/a	n/a	n/a	n/a
3026.624	n/a	PROB	1513312	n/a	LTP093	ltpFR	8	n/a	n/a	n/a	n/a	n/a	n/a	17	8	7	4	n/a	n/a	n/a	n/a	n/a
3028.566	n/a	PROB	1514283	n/a	LTP093	ltpFR	8	n/a	n/a	n/a	n/a	n/a	n/a	18	7	5	6	n/a	n/a	n/a	n/a	n/a
3030.758	n/a	PROB	1515379	n/a	LTP093	ltpFR	8	n/a	n/a	n/a	n/a	n/a	n/a	4	2	1	1	n/a	n/a	n/a	n/a	n/a
3031.752	n/a	STOP	1515876	n/a	LTP093	ltpFR	8	n/a	n/a	n/a	n/a	n/a	n/a	n/a	n/a	n/a	n/a	n/a	n/a	n/a	n/a	n/a
3033.398	n/a	WORD	1516699	wordpools/wasnorm_wordpool.txt	LTP093	ltpFR	8	10	1	FOE	587	n/a	1	n/a	0	0	0	1	0.412841796875	0.57763671875	upper	../fonts/zerothre.ttf
3036.4	n/a	START	1518200	n/a	LTP093	ltpFR	8	n/a	n/a	n/a	n/a	n/a	n/a	n/a	n/a	n/a	n/a	n/a	n/a	n/a	n/a	n/a
3037.258	n/a	PROB	1518629	n/a	LTP093	ltpFR	8	n/a	n/a	n/a	n/a	n/a	n/a	12	2	7	3	n/a	n/a	n/a	n/a	n/a
3038.532	n/a	PROB	1519266	n/a	LTP093	ltpFR	8	n/a	n/a	n/a	n/a	n/a	n/a	16	9	3	4	n/a	n/a	n/a	n/a	n/a
3041.316	n/a	PROB	1520658	n/a	LTP093	ltpFR	8	n/a	n/a	n/a	n/a	n/a	n/a	8	2	5	1	n/a	n/a	n/a	n/a	n/a
3043.216	n/a	PROB	1521608	n/a	LTP093	ltpFR	8	n/a	n/a	n/a	n/a	n/a	n/a	15	8	6	1	n/a	n/a	n/a	n/a	n/a
3045.458	n/a	PROB	1522729	n/a	LTP093	ltpFR	8	n/a	n/a	n/a	n/a	n/a	n/a	13	4	8	1	n/a	n/a	n/a	n/a	n/a
3048.374	n/a	PROB	1524187	n/a	LTP093	ltpFR	8	n/a	n/a	n/a	n/a	n/a	n/a	7	5	1	1	n/a	n/a	n/a	n/a	n/a
3049.648	n/a	PROB	1524824	n/a	LTP093	ltpFR	8	n/a	n/a	n/a	n/a	n/a	n/a	7	3	3	1	n/a	n/a	n/a	n/a	n/a
3050.598	n/a	PROB	1525299	n/a	LTP093	ltpFR	8	n/a	n/a	n/a	n/a	n/a	n/a	9	1	4	4	n/a	n/a	n/a	n/a	n/a
3051.778	n/a	STOP	1525889	n/a	LTP093	ltpFR	8	n/a	n/a	n/a	n/a	n/a	n/a	n/a	n/a	n/a	n/a	n/a	n/a	n/a	n/a	n/a
3054.19	n/a	REC_START	1527095	n/a	LTP093	ltpFR	8	10	n/a	n/a	n/a	n/a	n/a	n/a	0	0	0	n/a	n/a	n/a	n/a	n/a
3055.108	n/a	REC_WORD	1527554	wordpools/wasnorm_wordpool.txt	LTP093	ltpFR	8	10	1	FOE	587	n/a	1	n/a	0	0	0	n/a	n/a	n/a	n/a	n/a
3056.392	n/a	REC_WORD	1528196	wordpools/wasnorm_wordpool.txt	LTP093	ltpFR	8	10	1	SCIENTIST	1249	n/a	1	n/a	0	0	0	n/a	n/a	n/a	n/a	n/a
3057.908	n/a	REC_WORD	1528954	wordpools/wasnorm_wordpool.txt	LTP093	ltpFR	8	10	1	BEAKER	104	n/a	0	n/a	0	0	0	n/a	n/a	n/a	n/a	n/a
3059.364	n/a	REC_WORD	1529682	wordpools/wasnorm_wordpool.txt	LTP093	ltpFR	8	10	1	WORKER	1621	n/a	1	n/a	0	0	0	n/a	n/a	n/a	n/a	n/a
3061.994	n/a	REC_WORD	1530997	wordpools/wasnorm_wordpool.txt	LTP093	ltpFR	8	10	1	PACKAGE	997	n/a	0	n/a	0	0	0	n/a	n/a	n/a	n/a	n/a
3062.932	n/a	REC_WORD	1531466	wordpools/wasnorm_wordpool.txt	LTP093	ltpFR	8	10	1	ROBOT	1200	n/a	0	n/a	0	0	0	n/a	n/a	n/a	n/a	n/a
3080.682	n/a	REC_WORD	1540341	wordpools/wasnorm_wordpool.txt	LTP093	ltpFR	8	10	1	TOENAIL	1474	n/a	0	n/a	0	0	0	n/a	n/a	n/a	n/a	n/a
3107.142	n/a	REC_WORD	1553571	wordpools/wasnorm_wordpool.txt	LTP093	ltpFR	8	10	1	BUTTERFLY	206	n/a	1	n/a	0	0	0	n/a	n/a	n/a	n/a	n/a
3129.78	n/a	REST_REWET	1564890	n/a	LTP093	ltpFR	8	10	n/a	n/a	n/a	n/a	n/a	n/a	0	0	0	n/a	n/a	n/a	n/a	n/a
3633.758	n/a	WORD	1816879	wordpools/wasnorm_wordpool.txt	LTP093	ltpFR	8	11	1	LUNCH	849	n/a	0	n/a	0	0	0	1	0.412841796875	0.57763671875	upper	../fonts/zerothre.ttf
3637.724	n/a	WORD	1818862	wordpools/wasnorm_wordpool.txt	LTP093	ltpFR	8	11	1	BANQUET	86	n/a	0	n/a	0	0	0	1	0.412841796875	0.57763671875	upper	../fonts/zerothre.ttf
3641.55	n/a	WORD	1820775	wordpools/wasnorm_wordpool.txt	LTP093	ltpFR	8	11	0	TICK	1463	n/a	0	n/a	0	0	0	0	0.5869140625	0.422607421875	lower	../fonts/amplitud.ttf
3645.516	n/a	WORD	1822758	wordpools/wasnorm_wordpool.txt	LTP093	ltpFR	8	11	0	FOUNTAIN	597	n/a	1	n/a	0	0	0	0	0.5869140625	0.422607421875	lower	../fonts/amplitud.ttf
3649.34	n/a	WORD	1824670	wordpools/wasnorm_wordpool.txt	LTP093	ltpFR	8	11	0	FELLOW	558	n/a	0	n/a	0	0	0	0	0.5869140625	0.422607421875	lower	../fonts/amplitud.ttf
3653.25	n/a	WORD	1826625	wordpools/wasnorm_wordpool.txt	LTP093	ltpFR	8	11	0	ABDOMEN	1	n/a	0	n/a	0	0	0	0	0.5869140625	0.422607421875	lower	../fonts/amplitud.ttf
3657.19	n/a	WORD	1828595	wordpools/wasnorm_wordpool.txt	LTP093	ltpFR	8	11	0	SPINE	1353	n/a	0	n/a	0	0	0	0	0.5869140625	0.422607421875	lower	../fonts/amplitud.ttf
3661.006	n/a	WORD	1830503	wordpools/wasnorm_wordpool.txt	LTP093	ltpFR	8	11	1	PAW	1029	n/a	0	n/a	0	0	0	1	0.412841796875	0.57763671875	upper	../fonts/zerothre.ttf
3664.824	n/a	WORD	1832412	wordpools/wasnorm_wordpool.txt	LTP093	ltpFR	8	11	1	STUMP	1396	n/a	0	n/a	0	0	0	1	0.412841796875	0.57763671875	upper	../fonts/zerothre.ttf
3668.79	n/a	WORD	1834395	wordpools/wasnorm_wordpool.txt	LTP093	ltpFR	8	11	1	HOOD	714	n/a	0	n/a	0	0	0	1	0.412841796875	0.57763671875	upper	../fonts/zerothre.ttf
3672.9	n/a	WORD	1836450	wordpools/wasnorm_wordpool.txt	LTP093	ltpFR	8	11	1	BUGGY	188	n/a	0	n/a	0	0	0	1	0.412841796875	0.57763671875	upper	../fonts/zerothre.ttf
3676.858	n/a	WORD	1838429	wordpools/wasnorm_wordpool.txt	LTP093	ltpFR	8	11	1	KEEPER	769	n/a	0	n/a	0	0	0	1	0.412841796875	0.57763671875	upper	../fonts/zerothre.ttf
3680.866	n/a	WORD	1840433	wordpools/wasnorm_wordpool.txt	LTP093	ltpFR	8	11	1	MATCH	878	n/a	0	n/a	0	0	0	1	0.412841796875	0.57763671875	upper	../fonts/zerothre.ttf
3684.732	n/a	WORD	1842366	wordpools/wasnorm_wordpool.txt	LTP093	ltpFR	8	11	0	RUNNER	1218	n/a	0	n/a	0	0	0	0	0.5869140625	0.422607421875	lower	../fonts/amplitud.ttf
3688.922	n/a	WORD	1844461	wordpools/wasnorm_wordpool.txt	LTP093	ltpFR	8	11	0	PUDDLE	1140	n/a	0	n/a	0	0	0	0	0.5869140625	0.422607421875	lower	../fonts/amplitud.ttf
3693.114	n/a	WORD	1846557	wordpools/wasnorm_wordpool.txt	LTP093	ltpFR	8	11	0	COUSIN	392	n/a	0	n/a	0	0	0	0	0.5869140625	0.422607421875	lower	../fonts/amplitud.ttf
3696.122	n/a	START	1848061	n/a	LTP093	ltpFR	8	n/a	n/a	n/a	n/a	n/a	n/a	n/a	n/a	n/a	n/a	n/a	n/a	n/a	n/a	n/a
3697.224	n/a	PROB	1848612	n/a	LTP093	ltpFR	8	n/a	n/a	n/a	n/a	n/a	n/a	9	3	1	5	n/a	n/a	n/a	n/a	n/a
3699.282	n/a	PROB	1849641	n/a	LTP093	ltpFR	8	n/a	n/a	n/a	n/a	n/a	n/a	18	6	4	8	n/a	n/a	n/a	n/a	n/a
3700.756	n/a	PROB	1850378	n/a	LTP093	ltpFR	8	n/a	n/a	n/a	n/a	n/a	n/a	20	8	7	5	n/a	n/a	n/a	n/a	n/a
3702.978	n/a	STOP	1851489	n/a	LTP093	ltpFR	8	n/a	n/a	n/a	n/a	n/a	n/a	n/a	n/a	n/a	n/a	n/a	n/a	n/a	n/a	n/a
3705.856	n/a	REC_START	1852928	n/a	LTP093	ltpFR	8	11	n/a	n/a	n/a	n/a	n/a	n/a	0	0	0	n/a	n/a	n/a	n/a	n/a
3706.884	n/a	REC_WORD	1853442	wordpools/wasnorm_wordpool.txt	LTP093	ltpFR	8	11	0	PUDDLE	1140	n/a	0	n/a	0	0	0	n/a	n/a	n/a	n/a	n/a
3708.002	n/a	REC_WORD	1854001	wordpools/wasnorm_wordpool.txt	LTP093	ltpFR	8	11	1	KEEPER	769	n/a	0	n/a	0	0	0	n/a	n/a	n/a	n/a	n/a
3709.098	n/a	REC_WORD	1854549	wordpools/wasnorm_wordpool.txt	LTP093	ltpFR	8	11	1	MATCH	878	n/a	0	n/a	0	0	0	n/a	n/a	n/a	n/a	n/a
3717.506	n/a	REC_WORD	1858753	wordpools/wasnorm_wordpool.txt	LTP093	ltpFR	8	11	1	BUGGY	188	n/a	0	n/a	0	0	0	n/a	n/a	n/a	n/a	n/a
3720.474	n/a	REC_WORD	1860237	wordpools/wasnorm_wordpool.txt	LTP093	ltpFR	8	11	0	COUSIN	392	n/a	0	n/a	0	0	0	n/a	n/a	n/a	n/a	n/a
3721.416	n/a	REC_WORD	1860708	wordpools/wasnorm_wordpool.txt	LTP093	ltpFR	8	11	0	ABDOMEN	1	n/a	0	n/a	0	0	0	n/a	n/a	n/a	n/a	n/a
3722.28	n/a	REC_WORD	1861140	wordpools/wasnorm_wordpool.txt	LTP093	ltpFR	8	11	0	SPINE	1353	n/a	0	n/a	0	0	0	n/a	n/a	n/a	n/a	n/a
