mstime	trial_type	stim_file	subject	experiment	session	trial	item_name	item_num	list	answer	test_x	test_y	test_z
0	SESS_START	n/a	LTP385	ltpFR2	0	n/a	n/a	n/a	n/a	n/a	0	0	0
37652	START	n/a	LTP385	ltpFR2	0	n/a	n/a	n/a	-1	n/a	n/a	n/a	n/a
37683	PROB	n/a	LTP385	ltpFR2	0	n/a	n/a	n/a	-1	11	4	3	4
49652	STOP	n/a	LTP385	ltpFR2	0	n/a	n/a	n/a	-1	n/a	n/a	n/a	n/a
110298	DISTRACTOR	n/a	LTP385	ltpFR2	0	1	n/a	n/a	n/a	n/a	0	0	0
110298	START	n/a	LTP385	ltpFR2	0	n/a	n/a	n/a	1	n/a	n/a	n/a	n/a
110314	PROB	n/a	LTP385	ltpFR2	0	n/a	n/a	n/a	1	17	1	8	8
113682	PROB	n/a	LTP385	ltpFR2	0	n/a	n/a	n/a	1	14	2	7	5
116782	PROB	n/a	LTP385	ltpFR2	0	n/a	n/a	n/a	1	11	1	3	7
118982	PROB	n/a	LTP385	ltpFR2	0	n/a	n/a	n/a	1	17	9	5	3
123649	PROB	n/a	LTP385	ltpFR2	0	n/a	n/a	n/a	1	16	8	7	1
126314	PROB	n/a	LTP385	ltpFR2	0	n/a	n/a	n/a	1	17	2	9	6
129982	PROB	n/a	LTP385	ltpFR2	0	n/a	n/a	n/a	1	12	2	9	1
134297	STOP	n/a	LTP385	ltpFR2	0	n/a	n/a	n/a	1	n/a	n/a	n/a	n/a
135214	WORD	wordpools/wasnorm_wordpool_576.txt	LTP385	ltpFR2	0	1	CLAM	315	n/a	n/a	0	0	0
137765	WORD	wordpools/wasnorm_wordpool_576.txt	LTP385	ltpFR2	0	1	BANK	83	n/a	n/a	0	0	0
140464	WORD	wordpools/wasnorm_wordpool_576.txt	LTP385	ltpFR2	0	1	WAGON	1578	n/a	n/a	0	0	0
143148	WORD	wordpools/wasnorm_wordpool_576.txt	LTP385	ltpFR2	0	1	SCALLOP	1242	n/a	n/a	0	0	0
145882	WORD	wordpools/wasnorm_wordpool_576.txt	LTP385	ltpFR2	0	1	BIKE	125	n/a	n/a	0	0	0
148364	WORD	wordpools/wasnorm_wordpool_576.txt	LTP385	ltpFR2	0	1	PERCH	1048	n/a	n/a	0	0	0
151065	WORD	wordpools/wasnorm_wordpool_576.txt	LTP385	ltpFR2	0	1	DASHBOARD	441	n/a	n/a	0	0	0
153665	WORD	wordpools/wasnorm_wordpool_576.txt	LTP385	ltpFR2	0	1	SHIRT	1287	n/a	n/a	0	0	0
156447	WORD	wordpools/wasnorm_wordpool_576.txt	LTP385	ltpFR2	0	1	GRAPE	654	n/a	n/a	0	0	0
159131	WORD	wordpools/wasnorm_wordpool_576.txt	LTP385	ltpFR2	0	1	EXPERT	543	n/a	n/a	0	0	0
161931	WORD	wordpools/wasnorm_wordpool_576.txt	LTP385	ltpFR2	0	1	FOREST	593	n/a	n/a	0	0	0
164615	WORD	wordpools/wasnorm_wordpool_576.txt	LTP385	ltpFR2	0	1	SADDLE	1221	n/a	n/a	0	0	0
167264	WORD	wordpools/wasnorm_wordpool_576.txt	LTP385	ltpFR2	0	1	QUEEN	1149	n/a	n/a	0	0	0
169931	WORD	wordpools/wasnorm_wordpool_576.txt	LTP385	ltpFR2	0	1	MILK	895	n/a	n/a	0	0	0
172715	WORD	wordpools/wasnorm_wordpool_576.txt	LTP385	ltpFR2	0	1	COUNTRY	388	n/a	n/a	0	0	0
175463	WORD	wordpools/wasnorm_wordpool_576.txt	LTP385	ltpFR2	0	1	EGYPT	519	n/a	n/a	0	0	0
177914	WORD	wordpools/wasnorm_wordpool_576.txt	LTP385	ltpFR2	0	1	BOX	159	n/a	n/a	0	0	0
180563	WORD	wordpools/wasnorm_wordpool_576.txt	LTP385	ltpFR2	0	1	WORKER	1621	n/a	n/a	0	0	0
183098	WORD	wordpools/wasnorm_wordpool_576.txt	LTP385	ltpFR2	0	1	GROUND	666	n/a	n/a	0	0	0
185814	WORD	wordpools/wasnorm_wordpool_576.txt	LTP385	ltpFR2	0	1	MARSH	874	n/a	n/a	0	0	0
188614	WORD	wordpools/wasnorm_wordpool_576.txt	LTP385	ltpFR2	0	1	CHAUFFEUR	283	n/a	n/a	0	0	0
191131	WORD	wordpools/wasnorm_wordpool_576.txt	LTP385	ltpFR2	0	1	RUG	1215	n/a	n/a	0	0	0
193631	WORD	wordpools/wasnorm_wordpool_576.txt	LTP385	ltpFR2	0	1	CEILING	265	n/a	n/a	0	0	0
196114	WORD	wordpools/wasnorm_wordpool_576.txt	LTP385	ltpFR2	0	1	BRANDY	169	n/a	n/a	0	0	0
197731	START	n/a	LTP385	ltpFR2	0	n/a	n/a	n/a	2	n/a	n/a	n/a	n/a
198541	DISTRACTOR	n/a	LTP385	ltpFR2	0	1	n/a	n/a	n/a	n/a	0	0	0
198546	PROB	n/a	LTP385	ltpFR2	0	n/a	n/a	n/a	2	16	2	9	5
206697	PROB	n/a	LTP385	ltpFR2	0	n/a	n/a	n/a	2	14	6	1	7
209914	PROB	n/a	LTP385	ltpFR2	0	n/a	n/a	n/a	2	21	5	8	8
213780	PROB	n/a	LTP385	ltpFR2	0	n/a	n/a	n/a	2	14	4	9	1
216263	PROB	n/a	LTP385	ltpFR2	0	n/a	n/a	n/a	2	15	2	8	5
221731	STOP	n/a	LTP385	ltpFR2	0	n/a	n/a	n/a	2	n/a	n/a	n/a	n/a
223581	REC_START	n/a	LTP385	ltpFR2	0	1	n/a	n/a	n/a	n/a	0	0	0
225800	REC_WORD	wordpools/wasnorm_wordpool_576.txt	LTP385	ltpFR2	0	1	CALM	-1	n/a	n/a	0	0	0
228565	REC_WORD	wordpools/wasnorm_wordpool_576.txt	LTP385	ltpFR2	0	1	SADDLE	1221	n/a	n/a	0	0	0
230692	REC_WORD	wordpools/wasnorm_wordpool_576.txt	LTP385	ltpFR2	0	1	HORSE	719	n/a	n/a	0	0	0
231608	REC_WORD	wordpools/wasnorm_wordpool_576.txt	LTP385	ltpFR2	0	1	WAGON	1578	n/a	n/a	0	0	0
233248	REC_WORD	wordpools/wasnorm_wordpool_576.txt	LTP385	ltpFR2	0	1	FOREST	593	n/a	n/a	0	0	0
234160	REC_WORD	wordpools/wasnorm_wordpool_576.txt	LTP385	ltpFR2	0	1	SHIRT	1287	n/a	n/a	0	0	0
237095	REC_WORD	wordpools/wasnorm_wordpool_576.txt	LTP385	ltpFR2	0	1	COUNTRY	388	n/a	n/a	0	0	0
237920	REC_WORD	wordpools/wasnorm_wordpool_576.txt	LTP385	ltpFR2	0	1	EGYPT	519	n/a	n/a	0	0	0
242392	REC_WORD	wordpools/wasnorm_wordpool_576.txt	LTP385	ltpFR2	0	1	FOREST	593	n/a	n/a	0	0	0
243392	REC_WORD_VV	wordpools/wasnorm_wordpool_576.txt	LTP385	ltpFR2	0	1	<>	-1	n/a	n/a	0	0	0
248382	REC_WORD	wordpools/wasnorm_wordpool_576.txt	LTP385	ltpFR2	0	1	EXPERT	543	n/a	n/a	0	0	0
250117	REC_WORD	wordpools/wasnorm_wordpool_576.txt	LTP385	ltpFR2	0	1	GRAPE	654	n/a	n/a	0	0	0
251011	REC_WORD	wordpools/wasnorm_wordpool_576.txt	LTP385	ltpFR2	0	1	SHIRT	1287	n/a	n/a	0	0	0
261929	REC_WORD	wordpools/wasnorm_wordpool_576.txt	LTP385	ltpFR2	0	1	SCALLOP	1242	n/a	n/a	0	0	0
265693	REC_WORD	wordpools/wasnorm_wordpool_576.txt	LTP385	ltpFR2	0	1	MARSH	874	n/a	n/a	0	0	0
280694	REC_WORD	wordpools/wasnorm_wordpool_576.txt	LTP385	ltpFR2	0	1	PRESIDENT	1121	n/a	n/a	0	0	0
283231	REC_WORD_VV	wordpools/wasnorm_wordpool_576.txt	LTP385	ltpFR2	0	1	<>	-1	n/a	n/a	0	0	0
283397	REC_WORD	wordpools/wasnorm_wordpool_576.txt	LTP385	ltpFR2	0	1	QUEEN	1149	n/a	n/a	0	0	0
283838	REC_WORD	wordpools/wasnorm_wordpool_576.txt	LTP385	ltpFR2	0	1	QUEEN	1149	n/a	n/a	0	0	0
284109	REC_WORD	wordpools/wasnorm_wordpool_576.txt	LTP385	ltpFR2	0	1	QUEEN	1149	n/a	n/a	0	0	0
380477	WORD	wordpools/wasnorm_wordpool_576.txt	LTP385	ltpFR2	0	2	OUTLAW	989	n/a	n/a	0	0	0
383011	WORD	wordpools/wasnorm_wordpool_576.txt	LTP385	ltpFR2	0	2	LAVA	804	n/a	n/a	0	0	0
385578	WORD	wordpools/wasnorm_wordpool_576.txt	LTP385	ltpFR2	0	2	SPOOL	1356	n/a	n/a	0	0	0
388227	WORD	wordpools/wasnorm_wordpool_576.txt	LTP385	ltpFR2	0	2	SISTER	1312	n/a	n/a	0	0	0
391028	WORD	wordpools/wasnorm_wordpool_576.txt	LTP385	ltpFR2	0	2	BUREAU	199	n/a	n/a	0	0	0
393778	WORD	wordpools/wasnorm_wordpool_576.txt	LTP385	ltpFR2	0	2	THREAD	1460	n/a	n/a	0	0	0
396427	WORD	wordpools/wasnorm_wordpool_576.txt	LTP385	ltpFR2	0	2	CONTRACT	368	n/a	n/a	0	0	0
398945	WORD	wordpools/wasnorm_wordpool_576.txt	LTP385	ltpFR2	0	2	SHELF	1280	n/a	n/a	0	0	0
401443	WORD	wordpools/wasnorm_wordpool_576.txt	LTP385	ltpFR2	0	2	JOURNAL	760	n/a	n/a	0	0	0
403994	WORD	wordpools/wasnorm_wordpool_576.txt	LTP385	ltpFR2	0	2	PUPPY	1144	n/a	n/a	0	0	0
406427	WORD	wordpools/wasnorm_wordpool_576.txt	LTP385	ltpFR2	0	2	BRACES	164	n/a	n/a	0	0	0
408894	WORD	wordpools/wasnorm_wordpool_576.txt	LTP385	ltpFR2	0	2	FLOWER	584	n/a	n/a	0	0	0
411360	WORD	wordpools/wasnorm_wordpool_576.txt	LTP385	ltpFR2	0	2	BLADE	134	n/a	n/a	0	0	0
413828	WORD	wordpools/wasnorm_wordpool_576.txt	LTP385	ltpFR2	0	2	KNIFE	785	n/a	n/a	0	0	0
416293	WORD	wordpools/wasnorm_wordpool_576.txt	LTP385	ltpFR2	0	2	CITRUS	313	n/a	n/a	0	0	0
418894	WORD	wordpools/wasnorm_wordpool_576.txt	LTP385	ltpFR2	0	2	XEROX	1628	n/a	n/a	0	0	0
421527	WORD	wordpools/wasnorm_wordpool_576.txt	LTP385	ltpFR2	0	2	ICING	732	n/a	n/a	0	0	0
424226	WORD	wordpools/wasnorm_wordpool_576.txt	LTP385	ltpFR2	0	2	HOUND	724	n/a	n/a	0	0	0
426744	WORD	wordpools/wasnorm_wordpool_576.txt	LTP385	ltpFR2	0	2	LOFT	840	n/a	n/a	0	0	0
429560	WORD	wordpools/wasnorm_wordpool_576.txt	LTP385	ltpFR2	0	2	MONSTER	912	n/a	n/a	0	0	0
432044	WORD	wordpools/wasnorm_wordpool_576.txt	LTP385	ltpFR2	0	2	OX	994	n/a	n/a	0	0	0
434827	WORD	wordpools/wasnorm_wordpool_576.txt	LTP385	ltpFR2	0	2	ANKLE	24	n/a	n/a	0	0	0
437393	WORD	wordpools/wasnorm_wordpool_576.txt	LTP385	ltpFR2	0	2	DAUGHTER	442	n/a	n/a	0	0	0
439894	WORD	wordpools/wasnorm_wordpool_576.txt	LTP385	ltpFR2	0	2	WARDROBE	1587	n/a	n/a	0	0	0
441510	START	n/a	LTP385	ltpFR2	0	n/a	n/a	n/a	3	n/a	n/a	n/a	n/a
442512	DISTRACTOR	n/a	LTP385	ltpFR2	0	2	n/a	n/a	n/a	n/a	0	0	0
442526	PROB	n/a	LTP385	ltpFR2	0	n/a	n/a	n/a	3	18	6	3	9
445794	PROB	n/a	LTP385	ltpFR2	0	n/a	n/a	n/a	3	22	8	7	7
451577	PROB	n/a	LTP385	ltpFR2	0	n/a	n/a	n/a	3	15	3	9	3
454343	PROB	n/a	LTP385	ltpFR2	0	n/a	n/a	n/a	3	19	9	9	1
457010	PROB	n/a	LTP385	ltpFR2	0	n/a	n/a	n/a	3	12	3	5	8
460077	PROB	n/a	LTP385	ltpFR2	0	n/a	n/a	n/a	3	17	8	2	7
465510	STOP	n/a	LTP385	ltpFR2	0	n/a	n/a	n/a	3	n/a	n/a	n/a	n/a
467376	REC_START	n/a	LTP385	ltpFR2	0	2	n/a	n/a	n/a	n/a	0	0	0
469904	REC_WORD	wordpools/wasnorm_wordpool_576.txt	LTP385	ltpFR2	0	2	LAVA	804	n/a	n/a	0	0	0
470597	REC_WORD	wordpools/wasnorm_wordpool_576.txt	LTP385	ltpFR2	0	2	OUTLAW	989	n/a	n/a	0	0	0
472820	REC_WORD	wordpools/wasnorm_wordpool_576.txt	LTP385	ltpFR2	0	2	PUPPY	1144	n/a	n/a	0	0	0
473509	REC_WORD	wordpools/wasnorm_wordpool_576.txt	LTP385	ltpFR2	0	2	DOG	480	n/a	n/a	0	0	0
476012	REC_WORD	wordpools/wasnorm_wordpool_576.txt	LTP385	ltpFR2	0	2	SHELF	1280	n/a	n/a	0	0	0
477530	REC_WORD	wordpools/wasnorm_wordpool_576.txt	LTP385	ltpFR2	0	2	SISTER	1312	n/a	n/a	0	0	0
478478	REC_WORD	wordpools/wasnorm_wordpool_576.txt	LTP385	ltpFR2	0	2	DAUGHTER	442	n/a	n/a	0	0	0
479816	REC_WORD	wordpools/wasnorm_wordpool_576.txt	LTP385	ltpFR2	0	2	MONSTER	912	n/a	n/a	0	0	0
481204	REC_WORD	wordpools/wasnorm_wordpool_576.txt	LTP385	ltpFR2	0	2	OX	994	n/a	n/a	0	0	0
489906	REC_WORD	wordpools/wasnorm_wordpool_576.txt	LTP385	ltpFR2	0	2	JOURNAL	760	n/a	n/a	0	0	0
557809	DISTRACTOR	n/a	LTP385	ltpFR2	0	3	n/a	n/a	n/a	n/a	0	0	0
557809	START	n/a	LTP385	ltpFR2	0	n/a	n/a	n/a	4	n/a	n/a	n/a	n/a
557826	PROB	n/a	LTP385	ltpFR2	0	n/a	n/a	n/a	4	16	8	4	4
561541	PROB	n/a	LTP385	ltpFR2	0	n/a	n/a	n/a	4	16	2	9	5
565126	PROB	n/a	LTP385	ltpFR2	0	n/a	n/a	n/a	4	8	1	5	2
567675	PROB	n/a	LTP385	ltpFR2	0	n/a	n/a	n/a	4	19	5	6	8
570909	PROB	n/a	LTP385	ltpFR2	0	n/a	n/a	n/a	4	7	2	1	4
573075	PROB	n/a	LTP385	ltpFR2	0	n/a	n/a	n/a	4	21	8	5	8
581809	STOP	n/a	LTP385	ltpFR2	0	n/a	n/a	n/a	4	n/a	n/a	n/a	n/a
582775	WORD	wordpools/wasnorm_wordpool_576.txt	LTP385	ltpFR2	0	3	STOMACH	1384	n/a	n/a	0	0	0
585291	WORD	wordpools/wasnorm_wordpool_576.txt	LTP385	ltpFR2	0	3	PASSAGE	1019	n/a	n/a	0	0	0
587842	WORD	wordpools/wasnorm_wordpool_576.txt	LTP385	ltpFR2	0	3	FRECKLE	602	n/a	n/a	0	0	0
590541	WORD	wordpools/wasnorm_wordpool_576.txt	LTP385	ltpFR2	0	3	APPLE	33	n/a	n/a	0	0	0
593125	WORD	wordpools/wasnorm_wordpool_576.txt	LTP385	ltpFR2	0	3	BINDER	127	n/a	n/a	0	0	0
595808	WORD	wordpools/wasnorm_wordpool_576.txt	LTP385	ltpFR2	0	3	PAIL	1002	n/a	n/a	0	0	0
598424	WORD	wordpools/wasnorm_wordpool_576.txt	LTP385	ltpFR2	0	3	VALVE	1546	n/a	n/a	0	0	0
600875	WORD	wordpools/wasnorm_wordpool_576.txt	LTP385	ltpFR2	0	3	PEANUT	1032	n/a	n/a	0	0	0
603575	WORD	wordpools/wasnorm_wordpool_576.txt	LTP385	ltpFR2	0	3	TOASTER	1472	n/a	n/a	0	0	0
606391	WORD	wordpools/wasnorm_wordpool_576.txt	LTP385	ltpFR2	0	3	SWITCH	1422	n/a	n/a	0	0	0
609092	WORD	wordpools/wasnorm_wordpool_576.txt	LTP385	ltpFR2	0	3	CASHEW	253	n/a	n/a	0	0	0
611758	WORD	wordpools/wasnorm_wordpool_576.txt	LTP385	ltpFR2	0	3	AGENT	10	n/a	n/a	0	0	0
614457	WORD	wordpools/wasnorm_wordpool_576.txt	LTP385	ltpFR2	0	3	SHERIFF	1284	n/a	n/a	0	0	0
617158	WORD	wordpools/wasnorm_wordpool_576.txt	LTP385	ltpFR2	0	3	VIKING	1565	n/a	n/a	0	0	0
619791	WORD	wordpools/wasnorm_wordpool_576.txt	LTP385	ltpFR2	0	3	PADDLE	1000	n/a	n/a	0	0	0
622407	WORD	wordpools/wasnorm_wordpool_576.txt	LTP385	ltpFR2	0	3	PATIENT	1024	n/a	n/a	0	0	0
624925	WORD	wordpools/wasnorm_wordpool_576.txt	LTP385	ltpFR2	0	3	PEACH	1031	n/a	n/a	0	0	0
627390	WORD	wordpools/wasnorm_wordpool_576.txt	LTP385	ltpFR2	0	3	NOVEL	960	n/a	n/a	0	0	0
629991	WORD	wordpools/wasnorm_wordpool_576.txt	LTP385	ltpFR2	0	3	COUSIN	392	n/a	n/a	0	0	0
632758	WORD	wordpools/wasnorm_wordpool_576.txt	LTP385	ltpFR2	0	3	BUNNY	198	n/a	n/a	0	0	0
635323	WORD	wordpools/wasnorm_wordpool_576.txt	LTP385	ltpFR2	0	3	OINTMENT	974	n/a	n/a	0	0	0
637924	WORD	wordpools/wasnorm_wordpool_576.txt	LTP385	ltpFR2	0	3	PIGMENT	1066	n/a	n/a	0	0	0
640423	WORD	wordpools/wasnorm_wordpool_576.txt	LTP385	ltpFR2	0	3	CHAPEL	280	n/a	n/a	0	0	0
642841	WORD	wordpools/wasnorm_wordpool_576.txt	LTP385	ltpFR2	0	3	IDOL	733	n/a	n/a	0	0	0
644457	START	n/a	LTP385	ltpFR2	0	n/a	n/a	n/a	5	n/a	n/a	n/a	n/a
645484	DISTRACTOR	n/a	LTP385	ltpFR2	0	3	n/a	n/a	n/a	n/a	0	0	0
645490	PROB	n/a	LTP385	ltpFR2	0	n/a	n/a	n/a	5	14	7	3	4
648373	PROB	n/a	LTP385	ltpFR2	0	n/a	n/a	n/a	5	7	1	2	4
653223	PROB	n/a	LTP385	ltpFR2	0	n/a	n/a	n/a	5	19	7	8	4
657356	PROB	n/a	LTP385	ltpFR2	0	n/a	n/a	n/a	5	18	9	8	1
662007	PROB	n/a	LTP385	ltpFR2	0	n/a	n/a	n/a	5	17	9	6	2
664941	PROB	n/a	LTP385	ltpFR2	0	n/a	n/a	n/a	5	14	5	7	2
667545	STOP	n/a	LTP385	ltpFR2	0	n/a	n/a	n/a	5	n/a	n/a	n/a	n/a
670273	REC_START	n/a	LTP385	ltpFR2	0	3	n/a	n/a	n/a	n/a	0	0	0
672355	REC_WORD	wordpools/wasnorm_wordpool_576.txt	LTP385	ltpFR2	0	3	NOVEL	960	n/a	n/a	0	0	0
679224	REC_WORD	wordpools/wasnorm_wordpool_576.txt	LTP385	ltpFR2	0	3	COMMANDER	354	n/a	n/a	0	0	0
680073	REC_WORD	wordpools/wasnorm_wordpool_576.txt	LTP385	ltpFR2	0	3	PEACH	1031	n/a	n/a	0	0	0
682472	REC_WORD	wordpools/wasnorm_wordpool_576.txt	LTP385	ltpFR2	0	3	STOMACH	1384	n/a	n/a	0	0	0
683472	REC_WORD_VV	wordpools/wasnorm_wordpool_576.txt	LTP385	ltpFR2	0	3	<>	-1	n/a	n/a	0	0	0
683871	REC_WORD	wordpools/wasnorm_wordpool_576.txt	LTP385	ltpFR2	0	3	PASSAGE	1019	n/a	n/a	0	0	0
687622	REC_WORD	wordpools/wasnorm_wordpool_576.txt	LTP385	ltpFR2	0	3	PEANUT	1032	n/a	n/a	0	0	0
688365	REC_WORD	wordpools/wasnorm_wordpool_576.txt	LTP385	ltpFR2	0	3	CASHEW	253	n/a	n/a	0	0	0
707920	REC_WORD	wordpools/wasnorm_wordpool_576.txt	LTP385	ltpFR2	0	3	PIGMENT	1066	n/a	n/a	0	0	0
709096	REC_WORD	wordpools/wasnorm_wordpool_576.txt	LTP385	ltpFR2	0	3	OINTMENT	974	n/a	n/a	0	0	0
760756	WORD	wordpools/wasnorm_wordpool_576.txt	LTP385	ltpFR2	0	4	HUSBAND	728	n/a	n/a	0	0	0
763422	WORD	wordpools/wasnorm_wordpool_576.txt	LTP385	ltpFR2	0	4	OUTFIT	988	n/a	n/a	0	0	0
766156	WORD	wordpools/wasnorm_wordpool_576.txt	LTP385	ltpFR2	0	4	WOMAN	1620	n/a	n/a	0	0	0
768789	WORD	wordpools/wasnorm_wordpool_576.txt	LTP385	ltpFR2	0	4	COUCH	386	n/a	n/a	0	0	0
771573	WORD	wordpools/wasnorm_wordpool_576.txt	LTP385	ltpFR2	0	4	AIRPLANE	12	n/a	n/a	0	0	0
774172	WORD	wordpools/wasnorm_wordpool_576.txt	LTP385	ltpFR2	0	4	BUG	187	n/a	n/a	0	0	0
776922	WORD	wordpools/wasnorm_wordpool_576.txt	LTP385	ltpFR2	0	4	MUFFIN	929	n/a	n/a	0	0	0
779706	WORD	wordpools/wasnorm_wordpool_576.txt	LTP385	ltpFR2	0	4	JELLY	755	n/a	n/a	0	0	0
782255	WORD	wordpools/wasnorm_wordpool_576.txt	LTP385	ltpFR2	0	4	SHOULDER	1294	n/a	n/a	0	0	0
784689	WORD	wordpools/wasnorm_wordpool_576.txt	LTP385	ltpFR2	0	4	FREEZER	604	n/a	n/a	0	0	0
787405	WORD	wordpools/wasnorm_wordpool_576.txt	LTP385	ltpFR2	0	4	SLIDE	1326	n/a	n/a	0	0	0
789856	WORD	wordpools/wasnorm_wordpool_576.txt	LTP385	ltpFR2	0	4	CLOUD	328	n/a	n/a	0	0	0
792521	WORD	wordpools/wasnorm_wordpool_576.txt	LTP385	ltpFR2	0	4	ATLAS	53	n/a	n/a	0	0	0
795105	WORD	wordpools/wasnorm_wordpool_576.txt	LTP385	ltpFR2	0	4	DAISY	435	n/a	n/a	0	0	0
797772	WORD	wordpools/wasnorm_wordpool_576.txt	LTP385	ltpFR2	0	4	ORANGE	980	n/a	n/a	0	0	0
800438	WORD	wordpools/wasnorm_wordpool_576.txt	LTP385	ltpFR2	0	4	SHORTCAKE	1292	n/a	n/a	0	0	0
803005	WORD	wordpools/wasnorm_wordpool_576.txt	LTP385	ltpFR2	0	4	SPOUSE	1358	n/a	n/a	0	0	0
805755	WORD	wordpools/wasnorm_wordpool_576.txt	LTP385	ltpFR2	0	4	SERVER	1272	n/a	n/a	0	0	0
808404	WORD	wordpools/wasnorm_wordpool_576.txt	LTP385	ltpFR2	0	4	WAITER	1580	n/a	n/a	0	0	0
811172	WORD	wordpools/wasnorm_wordpool_576.txt	LTP385	ltpFR2	0	4	PERMIT	1051	n/a	n/a	0	0	0
813972	WORD	wordpools/wasnorm_wordpool_576.txt	LTP385	ltpFR2	0	4	LIGHTNING	820	n/a	n/a	0	0	0
816404	WORD	wordpools/wasnorm_wordpool_576.txt	LTP385	ltpFR2	0	4	SIBLING	1301	n/a	n/a	0	0	0
818988	WORD	wordpools/wasnorm_wordpool_576.txt	LTP385	ltpFR2	0	4	COSTUME	383	n/a	n/a	0	0	0
821772	WORD	wordpools/wasnorm_wordpool_576.txt	LTP385	ltpFR2	0	4	SUPPER	1411	n/a	n/a	0	0	0
823388	START	n/a	LTP385	ltpFR2	0	n/a	n/a	n/a	6	n/a	n/a	n/a	n/a
824547	DISTRACTOR	n/a	LTP385	ltpFR2	0	4	n/a	n/a	n/a	n/a	0	0	0
824554	PROB	n/a	LTP385	ltpFR2	0	n/a	n/a	n/a	6	10	1	2	7
827672	PROB	n/a	LTP385	ltpFR2	0	n/a	n/a	n/a	6	11	5	2	4
830588	PROB	n/a	LTP385	ltpFR2	0	n/a	n/a	n/a	6	9	1	2	6
832855	PROB	n/a	LTP385	ltpFR2	0	n/a	n/a	n/a	6	10	6	2	2
835622	PROB	n/a	LTP385	ltpFR2	0	n/a	n/a	n/a	6	18	6	3	9
847388	STOP	n/a	LTP385	ltpFR2	0	n/a	n/a	n/a	6	n/a	n/a	n/a	n/a
849155	REC_START	n/a	LTP385	ltpFR2	0	4	n/a	n/a	n/a	n/a	0	0	0
851916	REC_WORD	wordpools/wasnorm_wordpool_576.txt	LTP385	ltpFR2	0	4	HUSBAND	728	n/a	n/a	0	0	0
852589	REC_WORD	wordpools/wasnorm_wordpool_576.txt	LTP385	ltpFR2	0	4	WOMAN	1620	n/a	n/a	0	0	0
854202	REC_WORD	wordpools/wasnorm_wordpool_576.txt	LTP385	ltpFR2	0	4	SPOUSE	1358	n/a	n/a	0	0	0
856084	REC_WORD	wordpools/wasnorm_wordpool_576.txt	LTP385	ltpFR2	0	4	PLANE	1081	n/a	n/a	0	0	0
856924	REC_WORD	wordpools/wasnorm_wordpool_576.txt	LTP385	ltpFR2	0	4	COUCH	386	n/a	n/a	0	0	0
858008	REC_WORD	wordpools/wasnorm_wordpool_576.txt	LTP385	ltpFR2	0	4	BUG	187	n/a	n/a	0	0	0
862954	REC_WORD	wordpools/wasnorm_wordpool_576.txt	LTP385	ltpFR2	0	4	FLOWER	584	n/a	n/a	0	0	0
867490	REC_WORD	wordpools/wasnorm_wordpool_576.txt	LTP385	ltpFR2	0	4	SUPPER	1411	n/a	n/a	0	0	0
873493	REC_WORD	wordpools/wasnorm_wordpool_576.txt	LTP385	ltpFR2	0	4	TENDENT	-1	n/a	n/a	0	0	0
880204	REC_WORD	wordpools/wasnorm_wordpool_576.txt	LTP385	ltpFR2	0	4	CLOUD	328	n/a	n/a	0	0	0
880911	REC_WORD	wordpools/wasnorm_wordpool_576.txt	LTP385	ltpFR2	0	4	LIGHTNING	820	n/a	n/a	0	0	0
939603	DISTRACTOR	n/a	LTP385	ltpFR2	0	5	n/a	n/a	n/a	n/a	0	0	0
939604	START	n/a	LTP385	ltpFR2	0	n/a	n/a	n/a	7	n/a	n/a	n/a	n/a
939620	PROB	n/a	LTP385	ltpFR2	0	n/a	n/a	n/a	7	15	7	7	1
941753	PROB	n/a	LTP385	ltpFR2	0	n/a	n/a	n/a	7	19	9	2	8
946887	PROB	n/a	LTP385	ltpFR2	0	n/a	n/a	n/a	7	10	5	4	1
949319	PROB	n/a	LTP385	ltpFR2	0	n/a	n/a	n/a	7	18	7	6	5
951803	PROB	n/a	LTP385	ltpFR2	0	n/a	n/a	n/a	7	16	5	5	6
953736	PROB	n/a	LTP385	ltpFR2	0	n/a	n/a	n/a	7	17	8	4	3
956020	PROB	n/a	LTP385	ltpFR2	0	n/a	n/a	n/a	7	8	2	4	4
959020	PROB	n/a	LTP385	ltpFR2	0	n/a	n/a	n/a	7	8	6	1	1
962884	STOP	n/a	LTP385	ltpFR2	0	n/a	n/a	n/a	7	n/a	n/a	n/a	n/a
964552	WORD	wordpools/wasnorm_wordpool_576.txt	LTP385	ltpFR2	0	5	BANQUET	86	n/a	n/a	0	0	0
967136	WORD	wordpools/wasnorm_wordpool_576.txt	LTP385	ltpFR2	0	5	COBRA	336	n/a	n/a	0	0	0
969870	WORD	wordpools/wasnorm_wordpool_576.txt	LTP385	ltpFR2	0	5	TEMPLE	1448	n/a	n/a	0	0	0
972519	WORD	wordpools/wasnorm_wordpool_576.txt	LTP385	ltpFR2	0	5	PICNIC	1060	n/a	n/a	0	0	0
975019	WORD	wordpools/wasnorm_wordpool_576.txt	LTP385	ltpFR2	0	5	IGLOO	734	n/a	n/a	0	0	0
977803	WORD	wordpools/wasnorm_wordpool_576.txt	LTP385	ltpFR2	0	5	BUCKET	184	n/a	n/a	0	0	0
980468	WORD	wordpools/wasnorm_wordpool_576.txt	LTP385	ltpFR2	0	5	AUTHOR	61	n/a	n/a	0	0	0
983019	WORD	wordpools/wasnorm_wordpool_576.txt	LTP385	ltpFR2	0	5	TAXI	1438	n/a	n/a	0	0	0
985619	WORD	wordpools/wasnorm_wordpool_576.txt	LTP385	ltpFR2	0	5	PORK	1108	n/a	n/a	0	0	0
988186	WORD	wordpools/wasnorm_wordpool_576.txt	LTP385	ltpFR2	0	5	LUGGAGE	847	n/a	n/a	0	0	0
990986	WORD	wordpools/wasnorm_wordpool_576.txt	LTP385	ltpFR2	0	5	MARKER	870	n/a	n/a	0	0	0
993569	WORD	wordpools/wasnorm_wordpool_576.txt	LTP385	ltpFR2	0	5	PASTRY	1022	n/a	n/a	0	0	0
996268	WORD	wordpools/wasnorm_wordpool_576.txt	LTP385	ltpFR2	0	5	EMPIRE	530	n/a	n/a	0	0	0
998952	WORD	wordpools/wasnorm_wordpool_576.txt	LTP385	ltpFR2	0	5	PICTURE	1061	n/a	n/a	0	0	0
1001435	WORD	wordpools/wasnorm_wordpool_576.txt	LTP385	ltpFR2	0	5	QUARTER	1148	n/a	n/a	0	0	0
1003986	WORD	wordpools/wasnorm_wordpool_576.txt	LTP385	ltpFR2	0	5	CASHIER	254	n/a	n/a	0	0	0
1006802	WORD	wordpools/wasnorm_wordpool_576.txt	LTP385	ltpFR2	0	5	DUST	508	n/a	n/a	0	0	0
1009235	WORD	wordpools/wasnorm_wordpool_576.txt	LTP385	ltpFR2	0	5	TEACHER	1440	n/a	n/a	0	0	0
1011686	WORD	wordpools/wasnorm_wordpool_576.txt	LTP385	ltpFR2	0	5	SNACK	1331	n/a	n/a	0	0	0
1014152	WORD	wordpools/wasnorm_wordpool_576.txt	LTP385	ltpFR2	0	5	LADY	794	n/a	n/a	0	0	0
1016886	WORD	wordpools/wasnorm_wordpool_576.txt	LTP385	ltpFR2	0	5	SWAMP	1416	n/a	n/a	0	0	0
1019669	WORD	wordpools/wasnorm_wordpool_576.txt	LTP385	ltpFR2	0	5	OFFICE	972	n/a	n/a	0	0	0
1022434	WORD	wordpools/wasnorm_wordpool_576.txt	LTP385	ltpFR2	0	5	BRIEFCASE	175	n/a	n/a	0	0	0
1025102	WORD	wordpools/wasnorm_wordpool_576.txt	LTP385	ltpFR2	0	5	SPOON	1357	n/a	n/a	0	0	0
1026719	START	n/a	LTP385	ltpFR2	0	n/a	n/a	n/a	8	n/a	n/a	n/a	n/a
1027618	DISTRACTOR	n/a	LTP385	ltpFR2	0	5	n/a	n/a	n/a	n/a	0	0	0
1027635	PROB	n/a	LTP385	ltpFR2	0	n/a	n/a	n/a	8	18	8	3	7
1033135	PROB	n/a	LTP385	ltpFR2	0	n/a	n/a	n/a	8	13	6	1	5
1038069	PROB	n/a	LTP385	ltpFR2	0	n/a	n/a	n/a	8	8	1	4	3
1040484	PROB	n/a	LTP385	ltpFR2	0	n/a	n/a	n/a	8	2	9	5	6
1045935	PROB	n/a	LTP385	ltpFR2	0	n/a	n/a	n/a	8	10	1	3	6
1050719	STOP	n/a	LTP385	ltpFR2	0	n/a	n/a	n/a	8	n/a	n/a	n/a	n/a
1052652	REC_START	n/a	LTP385	ltpFR2	0	5	n/a	n/a	n/a	n/a	0	0	0
1055960	REC_WORD	wordpools/wasnorm_wordpool_576.txt	LTP385	ltpFR2	0	5	BANQUET	86	n/a	n/a	0	0	0
1056800	REC_WORD	wordpools/wasnorm_wordpool_576.txt	LTP385	ltpFR2	0	5	TEMPLE	1448	n/a	n/a	0	0	0
1058414	REC_WORD	wordpools/wasnorm_wordpool_576.txt	LTP385	ltpFR2	0	5	IGLOO	734	n/a	n/a	0	0	0
1060549	REC_WORD	wordpools/wasnorm_wordpool_576.txt	LTP385	ltpFR2	0	5	PARK	-1	n/a	n/a	0	0	0
1064243	REC_WORD	wordpools/wasnorm_wordpool_576.txt	LTP385	ltpFR2	0	5	PICNIC	1060	n/a	n/a	0	0	0
1070087	REC_WORD	wordpools/wasnorm_wordpool_576.txt	LTP385	ltpFR2	0	5	TEACHER	1440	n/a	n/a	0	0	0
1070826	REC_WORD	wordpools/wasnorm_wordpool_576.txt	LTP385	ltpFR2	0	5	WOMAN	1620	n/a	n/a	0	0	0
1143117	WORD	wordpools/wasnorm_wordpool_576.txt	LTP385	ltpFR2	0	6	BLOUSE	139	n/a	n/a	0	0	0
1145767	WORD	wordpools/wasnorm_wordpool_576.txt	LTP385	ltpFR2	0	6	JUGGLER	763	n/a	n/a	0	0	0
1148399	WORD	wordpools/wasnorm_wordpool_576.txt	LTP385	ltpFR2	0	6	LEADER	807	n/a	n/a	0	0	0
1150917	WORD	wordpools/wasnorm_wordpool_576.txt	LTP385	ltpFR2	0	6	FIDDLE	561	n/a	n/a	0	0	0
1153516	WORD	wordpools/wasnorm_wordpool_576.txt	LTP385	ltpFR2	0	6	MUSTARD	935	n/a	n/a	0	0	0
1156017	WORD	wordpools/wasnorm_wordpool_576.txt	LTP385	ltpFR2	0	6	RATTLE	1170	n/a	n/a	0	0	0
1158667	WORD	wordpools/wasnorm_wordpool_576.txt	LTP385	ltpFR2	0	6	POISON	1096	n/a	n/a	0	0	0
1161100	WORD	wordpools/wasnorm_wordpool_576.txt	LTP385	ltpFR2	0	6	DONOR	485	n/a	n/a	0	0	0
1163600	WORD	wordpools/wasnorm_wordpool_576.txt	LTP385	ltpFR2	0	6	HEART	697	n/a	n/a	0	0	0
1166232	WORD	wordpools/wasnorm_wordpool_576.txt	LTP385	ltpFR2	0	6	ULCER	1533	n/a	n/a	0	0	0
1168700	WORD	wordpools/wasnorm_wordpool_576.txt	LTP385	ltpFR2	0	6	SHRUB	1299	n/a	n/a	0	0	0
1171482	WORD	wordpools/wasnorm_wordpool_576.txt	LTP385	ltpFR2	0	6	COOK	372	n/a	n/a	0	0	0
1174183	WORD	wordpools/wasnorm_wordpool_576.txt	LTP385	ltpFR2	0	6	LAGOON	795	n/a	n/a	0	0	0
1176900	WORD	wordpools/wasnorm_wordpool_576.txt	LTP385	ltpFR2	0	6	BELLY	119	n/a	n/a	0	0	0
1179449	WORD	wordpools/wasnorm_wordpool_576.txt	LTP385	ltpFR2	0	6	STOVE	1388	n/a	n/a	0	0	0
1182232	WORD	wordpools/wasnorm_wordpool_576.txt	LTP385	ltpFR2	0	6	PARTNER	1017	n/a	n/a	0	0	0
1184750	WORD	wordpools/wasnorm_wordpool_576.txt	LTP385	ltpFR2	0	6	SODA	1341	n/a	n/a	0	0	0
1187215	WORD	wordpools/wasnorm_wordpool_576.txt	LTP385	ltpFR2	0	6	REBEL	1172	n/a	n/a	0	0	0
1189783	WORD	wordpools/wasnorm_wordpool_576.txt	LTP385	ltpFR2	0	6	LACE	792	n/a	n/a	0	0	0
1192282	WORD	wordpools/wasnorm_wordpool_576.txt	LTP385	ltpFR2	0	6	STAMP	1370	n/a	n/a	0	0	0
1195049	WORD	wordpools/wasnorm_wordpool_576.txt	LTP385	ltpFR2	0	6	PUDDING	1139	n/a	n/a	0	0	0
1197816	WORD	wordpools/wasnorm_wordpool_576.txt	LTP385	ltpFR2	0	6	LIPSTICK	829	n/a	n/a	0	0	0
1200298	WORD	wordpools/wasnorm_wordpool_576.txt	LTP385	ltpFR2	0	6	PALACE	1006	n/a	n/a	0	0	0
1203066	WORD	wordpools/wasnorm_wordpool_576.txt	LTP385	ltpFR2	0	6	CABIN	211	n/a	n/a	0	0	0
1204683	START	n/a	LTP385	ltpFR2	0	n/a	n/a	n/a	9	n/a	n/a	n/a	n/a
1205703	DISTRACTOR	n/a	LTP385	ltpFR2	0	6	n/a	n/a	n/a	n/a	0	0	0
1205716	PROB	n/a	LTP385	ltpFR2	0	n/a	n/a	n/a	9	12	3	3	6
1208866	PROB	n/a	LTP385	ltpFR2	0	n/a	n/a	n/a	9	14	2	6	6
1211666	PROB	n/a	LTP385	ltpFR2	0	n/a	n/a	n/a	9	12	4	7	1
1214633	PROB	n/a	LTP385	ltpFR2	0	n/a	n/a	n/a	9	13	6	1	6
1217899	PROB	n/a	LTP385	ltpFR2	0	n/a	n/a	n/a	9	10	6	2	2
1219766	PROB	n/a	LTP385	ltpFR2	0	n/a	n/a	n/a	9	12	9	1	2
1221932	PROB	n/a	LTP385	ltpFR2	0	n/a	n/a	n/a	9	10	6	2	2
1224381	PROB	n/a	LTP385	ltpFR2	0	n/a	n/a	n/a	9	18	4	6	8
1228555	STOP	n/a	LTP385	ltpFR2	0	n/a	n/a	n/a	9	n/a	n/a	n/a	n/a
1230448	REC_START	n/a	LTP385	ltpFR2	0	6	n/a	n/a	n/a	n/a	0	0	0
1234418	REC_WORD	wordpools/wasnorm_wordpool_576.txt	LTP385	ltpFR2	0	6	PARTNER	1017	n/a	n/a	0	0	0
1242279	REC_WORD	wordpools/wasnorm_wordpool_576.txt	LTP385	ltpFR2	0	6	PARTNER	1017	n/a	n/a	0	0	0
1242882	REC_WORD	wordpools/wasnorm_wordpool_576.txt	LTP385	ltpFR2	0	6	STOMACH	1384	n/a	n/a	0	0	0
1244456	REC_WORD	wordpools/wasnorm_wordpool_576.txt	LTP385	ltpFR2	0	6	COMMANDER	354	n/a	n/a	0	0	0
1247403	REC_WORD	wordpools/wasnorm_wordpool_576.txt	LTP385	ltpFR2	0	6	JUGGLE	-1	n/a	n/a	0	0	0
1249762	REC_WORD	wordpools/wasnorm_wordpool_576.txt	LTP385	ltpFR2	0	6	FICKLE	-1	n/a	n/a	0	0	0
1260782	REC_WORD	wordpools/wasnorm_wordpool_576.txt	LTP385	ltpFR2	0	6	HEART	697	n/a	n/a	0	0	0
1261872	REC_WORD	wordpools/wasnorm_wordpool_576.txt	LTP385	ltpFR2	0	6	TRANSPLANT	1496	n/a	n/a	0	0	0
1264110	REC_WORD	wordpools/wasnorm_wordpool_576.txt	LTP385	ltpFR2	0	6	ULCER	1533	n/a	n/a	0	0	0
1272609	REC_WORD	wordpools/wasnorm_wordpool_576.txt	LTP385	ltpFR2	0	6	COOK	372	n/a	n/a	0	0	0
1345313	DISTRACTOR	n/a	LTP385	ltpFR2	0	7	n/a	n/a	n/a	n/a	0	0	0
1345313	START	n/a	LTP385	ltpFR2	0	n/a	n/a	n/a	10	n/a	n/a	n/a	n/a
1345330	PROB	n/a	LTP385	ltpFR2	0	n/a	n/a	n/a	10	22	8	6	8
1352897	PROB	n/a	LTP385	ltpFR2	0	n/a	n/a	n/a	10	19	7	4	8
1357396	PROB	n/a	LTP385	ltpFR2	0	n/a	n/a	n/a	10	15	5	7	3
1360513	PROB	n/a	LTP385	ltpFR2	0	n/a	n/a	n/a	10	11	3	7	1
1362463	PROB	n/a	LTP385	ltpFR2	0	n/a	n/a	n/a	10	11	1	1	9
1364180	PROB	n/a	LTP385	ltpFR2	0	n/a	n/a	n/a	10	16	4	3	9
1369313	STOP	n/a	LTP385	ltpFR2	0	n/a	n/a	n/a	10	n/a	n/a	n/a	n/a
1370197	WORD	wordpools/wasnorm_wordpool_576.txt	LTP385	ltpFR2	0	7	SIDEWALK	1303	n/a	n/a	0	0	0
1372813	WORD	wordpools/wasnorm_wordpool_576.txt	LTP385	ltpFR2	0	7	HIGHWAY	707	n/a	n/a	0	0	0
1375279	WORD	wordpools/wasnorm_wordpool_576.txt	LTP385	ltpFR2	0	7	DANCER	437	n/a	n/a	0	0	0
1377697	WORD	wordpools/wasnorm_wordpool_576.txt	LTP385	ltpFR2	0	7	HOSTESS	723	n/a	n/a	0	0	0
1380130	WORD	wordpools/wasnorm_wordpool_576.txt	LTP385	ltpFR2	0	7	CHURCH	307	n/a	n/a	0	0	0
1382580	WORD	wordpools/wasnorm_wordpool_576.txt	LTP385	ltpFR2	0	7	BANKER	84	n/a	n/a	0	0	0
1385163	WORD	wordpools/wasnorm_wordpool_576.txt	LTP385	ltpFR2	0	7	WAITRESS	1581	n/a	n/a	0	0	0
1387813	WORD	wordpools/wasnorm_wordpool_576.txt	LTP385	ltpFR2	0	7	DRIVER	499	n/a	n/a	0	0	0
1390412	WORD	wordpools/wasnorm_wordpool_576.txt	LTP385	ltpFR2	0	7	HATCHET	691	n/a	n/a	0	0	0
1393163	WORD	wordpools/wasnorm_wordpool_576.txt	LTP385	ltpFR2	0	7	BUTCHER	203	n/a	n/a	0	0	0
1395830	WORD	wordpools/wasnorm_wordpool_576.txt	LTP385	ltpFR2	0	7	KIDNEY	776	n/a	n/a	0	0	0
1398429	WORD	wordpools/wasnorm_wordpool_576.txt	LTP385	ltpFR2	0	7	TOURIST	1488	n/a	n/a	0	0	0
1401080	WORD	wordpools/wasnorm_wordpool_576.txt	LTP385	ltpFR2	0	7	FLESH	579	n/a	n/a	0	0	0
1403529	WORD	wordpools/wasnorm_wordpool_576.txt	LTP385	ltpFR2	0	7	STUDENT	1395	n/a	n/a	0	0	0
1406345	WORD	wordpools/wasnorm_wordpool_576.txt	LTP385	ltpFR2	0	7	TUBA	1515	n/a	n/a	0	0	0
1408963	WORD	wordpools/wasnorm_wordpool_576.txt	LTP385	ltpFR2	0	7	WASP	1593	n/a	n/a	0	0	0
1411646	WORD	wordpools/wasnorm_wordpool_576.txt	LTP385	ltpFR2	0	7	ROD	1203	n/a	n/a	0	0	0
1414245	WORD	wordpools/wasnorm_wordpool_576.txt	LTP385	ltpFR2	0	7	CROWN	415	n/a	n/a	0	0	0
1416863	WORD	wordpools/wasnorm_wordpool_576.txt	LTP385	ltpFR2	0	7	BRANCH	168	n/a	n/a	0	0	0
1419679	WORD	wordpools/wasnorm_wordpool_576.txt	LTP385	ltpFR2	0	7	LUMBER	848	n/a	n/a	0	0	0
1422262	WORD	wordpools/wasnorm_wordpool_576.txt	LTP385	ltpFR2	0	7	VIRUS	1572	n/a	n/a	0	0	0
1424946	WORD	wordpools/wasnorm_wordpool_576.txt	LTP385	ltpFR2	0	7	TREAT	1501	n/a	n/a	0	0	0
1427562	WORD	wordpools/wasnorm_wordpool_576.txt	LTP385	ltpFR2	0	7	LIVER	833	n/a	n/a	0	0	0
1430079	WORD	wordpools/wasnorm_wordpool_576.txt	LTP385	ltpFR2	0	7	MOTOR	922	n/a	n/a	0	0	0
1431696	START	n/a	LTP385	ltpFR2	0	n/a	n/a	n/a	11	n/a	n/a	n/a	n/a
1432574	DISTRACTOR	n/a	LTP385	ltpFR2	0	7	n/a	n/a	n/a	n/a	0	0	0
1432579	PROB	n/a	LTP385	ltpFR2	0	n/a	n/a	n/a	11	19	4	7	8
1435729	PROB	n/a	LTP385	ltpFR2	0	n/a	n/a	n/a	11	8	5	2	1
1437613	PROB	n/a	LTP385	ltpFR2	0	n/a	n/a	n/a	11	20	7	5	8
1441545	PROB	n/a	LTP385	ltpFR2	0	n/a	n/a	n/a	11	3	1	1	1
1443295	PROB	n/a	LTP385	ltpFR2	0	n/a	n/a	n/a	11	18	8	8	2
1447461	PROB	n/a	LTP385	ltpFR2	0	n/a	n/a	n/a	11	5	3	1	1
1449012	PROB	n/a	LTP385	ltpFR2	0	n/a	n/a	n/a	11	22	9	6	7
1451962	PROB	n/a	LTP385	ltpFR2	0	n/a	n/a	n/a	11	7	4	3	1
1454779	STOP	n/a	LTP385	ltpFR2	0	n/a	n/a	n/a	11	n/a	n/a	n/a	n/a
1457629	REC_START	n/a	LTP385	ltpFR2	0	7	n/a	n/a	n/a	n/a	0	0	0
1459517	REC_WORD	wordpools/wasnorm_wordpool_576.txt	LTP385	ltpFR2	0	7	BUTCHER	203	n/a	n/a	0	0	0
1460210	REC_WORD	wordpools/wasnorm_wordpool_576.txt	LTP385	ltpFR2	0	7	ROD	1203	n/a	n/a	0	0	0
1460738	REC_WORD	wordpools/wasnorm_wordpool_576.txt	LTP385	ltpFR2	0	7	HATCHET	691	n/a	n/a	0	0	0
1462599	REC_WORD	wordpools/wasnorm_wordpool_576.txt	LTP385	ltpFR2	0	7	LIVER	833	n/a	n/a	0	0	0
1463370	REC_WORD	wordpools/wasnorm_wordpool_576.txt	LTP385	ltpFR2	0	7	KIDNEY	776	n/a	n/a	0	0	0
1463934	REC_WORD	wordpools/wasnorm_wordpool_576.txt	LTP385	ltpFR2	0	7	FLESH	579	n/a	n/a	0	0	0
1482160	REC_WORD	wordpools/wasnorm_wordpool_576.txt	LTP385	ltpFR2	0	7	STUDENT	1395	n/a	n/a	0	0	0
1493291	REC_WORD	wordpools/wasnorm_wordpool_576.txt	LTP385	ltpFR2	0	7	SIDEWALK	1303	n/a	n/a	0	0	0
1494079	REC_WORD	wordpools/wasnorm_wordpool_576.txt	LTP385	ltpFR2	0	7	HIGHWAY	707	n/a	n/a	0	0	0
1495413	REC_WORD	wordpools/wasnorm_wordpool_576.txt	LTP385	ltpFR2	0	7	WAITRESS	1581	n/a	n/a	0	0	0
1498418	REC_WORD	wordpools/wasnorm_wordpool_576.txt	LTP385	ltpFR2	0	7	DRIVE	-1	n/a	n/a	0	0	0
1500919	REC_WORD	wordpools/wasnorm_wordpool_576.txt	LTP385	ltpFR2	0	7	CHURCH	307	n/a	n/a	0	0	0
1501798	REC_WORD	wordpools/wasnorm_wordpool_576.txt	LTP385	ltpFR2	0	7	BUSINESSMAN	-1	n/a	n/a	0	0	0
1548044	DISTRACTOR	n/a	LTP385	ltpFR2	0	8	n/a	n/a	n/a	n/a	0	0	0
1548044	START	n/a	LTP385	ltpFR2	0	n/a	n/a	n/a	12	n/a	n/a	n/a	n/a
1548061	PROB	n/a	LTP385	ltpFR2	0	n/a	n/a	n/a	12	19	5	6	8
1552827	PROB	n/a	LTP385	ltpFR2	0	n/a	n/a	n/a	12	13	1	8	4
1555577	PROB	n/a	LTP385	ltpFR2	0	n/a	n/a	n/a	12	10	4	5	1
1557493	PROB	n/a	LTP385	ltpFR2	0	n/a	n/a	n/a	12	16	7	6	3
1560276	PROB	n/a	LTP385	ltpFR2	0	n/a	n/a	n/a	12	7	1	1	5
1561994	PROB	n/a	LTP385	ltpFR2	0	n/a	n/a	n/a	12	24	8	7	9
1567526	PROB	n/a	LTP385	ltpFR2	0	n/a	n/a	n/a	12	14	4	6	4
1572043	STOP	n/a	LTP385	ltpFR2	0	n/a	n/a	n/a	12	n/a	n/a	n/a	n/a
1572960	WORD	wordpools/wasnorm_wordpool_576.txt	LTP385	ltpFR2	0	8	PRINCESS	1125	n/a	n/a	0	0	0
1575644	WORD	wordpools/wasnorm_wordpool_576.txt	LTP385	ltpFR2	0	8	STATUE	1374	n/a	n/a	0	0	0
1578144	WORD	wordpools/wasnorm_wordpool_576.txt	LTP385	ltpFR2	0	8	MARINE	869	n/a	n/a	0	0	0
1580810	WORD	wordpools/wasnorm_wordpool_576.txt	LTP385	ltpFR2	0	8	BALLOON	75	n/a	n/a	0	0	0
1583426	WORD	wordpools/wasnorm_wordpool_576.txt	LTP385	ltpFR2	0	8	BOUQUET	157	n/a	n/a	0	0	0
1585843	WORD	wordpools/wasnorm_wordpool_576.txt	LTP385	ltpFR2	0	8	AWARD	63	n/a	n/a	0	0	0
1588643	WORD	wordpools/wasnorm_wordpool_576.txt	LTP385	ltpFR2	0	8	TART	1436	n/a	n/a	0	0	0
1591426	WORD	wordpools/wasnorm_wordpool_576.txt	LTP385	ltpFR2	0	8	CANDY	230	n/a	n/a	0	0	0
1594226	WORD	wordpools/wasnorm_wordpool_576.txt	LTP385	ltpFR2	0	8	MAPLE	866	n/a	n/a	0	0	0
1596693	WORD	wordpools/wasnorm_wordpool_576.txt	LTP385	ltpFR2	0	8	RAZOR	1171	n/a	n/a	0	0	0
1599160	WORD	wordpools/wasnorm_wordpool_576.txt	LTP385	ltpFR2	0	8	SCISSORS	1250	n/a	n/a	0	0	0
1601627	WORD	wordpools/wasnorm_wordpool_576.txt	LTP385	ltpFR2	0	8	HUMAN	726	n/a	n/a	0	0	0
1604242	WORD	wordpools/wasnorm_wordpool_576.txt	LTP385	ltpFR2	0	8	LIZARD	834	n/a	n/a	0	0	0
1607043	WORD	wordpools/wasnorm_wordpool_576.txt	LTP385	ltpFR2	0	8	PANTHER	1009	n/a	n/a	0	0	0
1609827	WORD	wordpools/wasnorm_wordpool_576.txt	LTP385	ltpFR2	0	8	JUNGLE	764	n/a	n/a	0	0	0
1612509	WORD	wordpools/wasnorm_wordpool_576.txt	LTP385	ltpFR2	0	8	COLONEL	348	n/a	n/a	0	0	0
1615309	WORD	wordpools/wasnorm_wordpool_576.txt	LTP385	ltpFR2	0	8	COTTAGE	384	n/a	n/a	0	0	0
1617760	WORD	wordpools/wasnorm_wordpool_576.txt	LTP385	ltpFR2	0	8	FLASHLIGHT	575	n/a	n/a	0	0	0
1620559	WORD	wordpools/wasnorm_wordpool_576.txt	LTP385	ltpFR2	0	8	SCULPTURE	1258	n/a	n/a	0	0	0
1623126	WORD	wordpools/wasnorm_wordpool_576.txt	LTP385	ltpFR2	0	8	LILY	821	n/a	n/a	0	0	0
1625843	WORD	wordpools/wasnorm_wordpool_576.txt	LTP385	ltpFR2	0	8	LAPEL	800	n/a	n/a	0	0	0
1628509	WORD	wordpools/wasnorm_wordpool_576.txt	LTP385	ltpFR2	0	8	PIMPLE	1071	n/a	n/a	0	0	0
1631193	WORD	wordpools/wasnorm_wordpool_576.txt	LTP385	ltpFR2	0	8	BRICK	172	n/a	n/a	0	0	0
1633643	WORD	wordpools/wasnorm_wordpool_576.txt	LTP385	ltpFR2	0	8	KLEENEX	782	n/a	n/a	0	0	0
1635259	START	n/a	LTP385	ltpFR2	0	n/a	n/a	n/a	13	n/a	n/a	n/a	n/a
1636213	DISTRACTOR	n/a	LTP385	ltpFR2	0	8	n/a	n/a	n/a	n/a	0	0	0
1636225	PROB	n/a	LTP385	ltpFR2	0	n/a	n/a	n/a	13	16	7	2	7
1638793	PROB	n/a	LTP385	ltpFR2	0	n/a	n/a	n/a	13	21	7	7	7
1642959	PROB	n/a	LTP385	ltpFR2	0	n/a	n/a	n/a	13	13	4	5	4
1645793	PROB	n/a	LTP385	ltpFR2	0	n/a	n/a	n/a	13	8	2	3	3
1648159	PROB	n/a	LTP385	ltpFR2	0	n/a	n/a	n/a	13	17	6	9	2
1650726	PROB	n/a	LTP385	ltpFR2	0	n/a	n/a	n/a	13	16	8	4	4
1659259	STOP	n/a	LTP385	ltpFR2	0	n/a	n/a	n/a	13	n/a	n/a	n/a	n/a
1661026	REC_START	n/a	LTP385	ltpFR2	0	8	n/a	n/a	n/a	n/a	0	0	0
1664088	REC_WORD	wordpools/wasnorm_wordpool_576.txt	LTP385	ltpFR2	0	8	PRINCESS	1125	n/a	n/a	0	0	0
1664955	REC_WORD	wordpools/wasnorm_wordpool_576.txt	LTP385	ltpFR2	0	8	BANQUET	86	n/a	n/a	0	0	0
1666016	REC_WORD	wordpools/wasnorm_wordpool_576.txt	LTP385	ltpFR2	0	8	KLEENEX	782	n/a	n/a	0	0	0
1667428	REC_WORD	wordpools/wasnorm_wordpool_576.txt	LTP385	ltpFR2	0	8	PIMPLE	1071	n/a	n/a	0	0	0
1672442	REC_WORD	wordpools/wasnorm_wordpool_576.txt	LTP385	ltpFR2	0	8	STATUE	1374	n/a	n/a	0	0	0
1675266	REC_WORD	wordpools/wasnorm_wordpool_576.txt	LTP385	ltpFR2	0	8	AWARD	63	n/a	n/a	0	0	0
1680889	REC_WORD	wordpools/wasnorm_wordpool_576.txt	LTP385	ltpFR2	0	8	JUNGLE	764	n/a	n/a	0	0	0
1681691	REC_WORD	wordpools/wasnorm_wordpool_576.txt	LTP385	ltpFR2	0	8	RAZOR	1171	n/a	n/a	0	0	0
1690274	REC_WORD	wordpools/wasnorm_wordpool_576.txt	LTP385	ltpFR2	0	8	LIZARD	834	n/a	n/a	0	0	0
1692615	REC_WORD	wordpools/wasnorm_wordpool_576.txt	LTP385	ltpFR2	0	8	STONE	1385	n/a	n/a	0	0	0
1693574	REC_WORD	wordpools/wasnorm_wordpool_576.txt	LTP385	ltpFR2	0	8	FLASHLIGHT	575	n/a	n/a	0	0	0
1696682	REC_WORD	wordpools/wasnorm_wordpool_576.txt	LTP385	ltpFR2	0	8	COTTAGE	384	n/a	n/a	0	0	0
1708052	REC_WORD	wordpools/wasnorm_wordpool_576.txt	LTP385	ltpFR2	0	8	TART	1436	n/a	n/a	0	0	0
1719093	REC_WORD	wordpools/wasnorm_wordpool_576.txt	LTP385	ltpFR2	0	8	CANDY	230	n/a	n/a	0	0	0
1720156	REC_WORD	wordpools/wasnorm_wordpool_576.txt	LTP385	ltpFR2	0	8	SWEET	-1	n/a	n/a	0	0	0
1737575	REST_REWET	n/a	LTP385	ltpFR2	0	8	n/a	n/a	n/a	n/a	0	0	0
1942738	DISTRACTOR	n/a	LTP385	ltpFR2	0	9	n/a	n/a	n/a	n/a	0	0	0
1942738	START	n/a	LTP385	ltpFR2	0	n/a	n/a	n/a	14	n/a	n/a	n/a	n/a
1942755	PROB	n/a	LTP385	ltpFR2	0	n/a	n/a	n/a	14	14	3	8	3
1946171	PROB	n/a	LTP385	ltpFR2	0	n/a	n/a	n/a	14	21	8	5	8
1952055	PROB	n/a	LTP385	ltpFR2	0	n/a	n/a	n/a	14	18	7	2	9
1955254	PROB	n/a	LTP385	ltpFR2	0	n/a	n/a	n/a	14	10	6	2	2
1957004	PROB	n/a	LTP385	ltpFR2	0	n/a	n/a	n/a	14	9	6	1	3
1958553	PROB	n/a	LTP385	ltpFR2	0	n/a	n/a	n/a	14	25	9	9	7
1966738	STOP	n/a	LTP385	ltpFR2	0	n/a	n/a	n/a	14	n/a	n/a	n/a	n/a
1967838	WORD	wordpools/wasnorm_wordpool_576.txt	LTP385	ltpFR2	0	9	LEOPARD	812	n/a	n/a	0	0	0
1970303	WORD	wordpools/wasnorm_wordpool_576.txt	LTP385	ltpFR2	0	9	GLOBE	641	n/a	n/a	0	0	0
1972721	WORD	wordpools/wasnorm_wordpool_576.txt	LTP385	ltpFR2	0	9	SUSPECT	1415	n/a	n/a	0	0	0
1975337	WORD	wordpools/wasnorm_wordpool_576.txt	LTP385	ltpFR2	0	9	QUAIL	1147	n/a	n/a	0	0	0
1978037	WORD	wordpools/wasnorm_wordpool_576.txt	LTP385	ltpFR2	0	9	MOP	916	n/a	n/a	0	0	0
1980771	WORD	wordpools/wasnorm_wordpool_576.txt	LTP385	ltpFR2	0	9	YACHT	1629	n/a	n/a	0	0	0
1983204	WORD	wordpools/wasnorm_wordpool_576.txt	LTP385	ltpFR2	0	9	ROCKET	1202	n/a	n/a	0	0	0
1985987	WORD	wordpools/wasnorm_wordpool_576.txt	LTP385	ltpFR2	0	9	YARN	1631	n/a	n/a	0	0	0
1988587	WORD	wordpools/wasnorm_wordpool_576.txt	LTP385	ltpFR2	0	9	DRESS	495	n/a	n/a	0	0	0
1991137	WORD	wordpools/wasnorm_wordpool_576.txt	LTP385	ltpFR2	0	9	MATTRESS	879	n/a	n/a	0	0	0
1993787	WORD	wordpools/wasnorm_wordpool_576.txt	LTP385	ltpFR2	0	9	COLLEGE	346	n/a	n/a	0	0	0
1996553	WORD	wordpools/wasnorm_wordpool_576.txt	LTP385	ltpFR2	0	9	DUSTPAN	509	n/a	n/a	0	0	0
1999037	WORD	wordpools/wasnorm_wordpool_576.txt	LTP385	ltpFR2	0	9	SHORTS	1293	n/a	n/a	0	0	0
2001804	WORD	wordpools/wasnorm_wordpool_576.txt	LTP385	ltpFR2	0	9	CLOTHES	327	n/a	n/a	0	0	0
2004519	WORD	wordpools/wasnorm_wordpool_576.txt	LTP385	ltpFR2	0	9	GIFT	635	n/a	n/a	0	0	0
2007286	WORD	wordpools/wasnorm_wordpool_576.txt	LTP385	ltpFR2	0	9	PREACHER	1119	n/a	n/a	0	0	0
2010020	WORD	wordpools/wasnorm_wordpool_576.txt	LTP385	ltpFR2	0	9	CROSS	413	n/a	n/a	0	0	0
2012453	WORD	wordpools/wasnorm_wordpool_576.txt	LTP385	ltpFR2	0	9	CURTAIN	427	n/a	n/a	0	0	0
2015253	WORD	wordpools/wasnorm_wordpool_576.txt	LTP385	ltpFR2	0	9	WINDOW	1611	n/a	n/a	0	0	0
2017820	WORD	wordpools/wasnorm_wordpool_576.txt	LTP385	ltpFR2	0	9	AIRPORT	13	n/a	n/a	0	0	0
2020503	WORD	wordpools/wasnorm_wordpool_576.txt	LTP385	ltpFR2	0	9	BARREL	91	n/a	n/a	0	0	0
2023269	WORD	wordpools/wasnorm_wordpool_576.txt	LTP385	ltpFR2	0	9	OZONE	996	n/a	n/a	0	0	0
2025887	WORD	wordpools/wasnorm_wordpool_576.txt	LTP385	ltpFR2	0	9	SUBWAY	1400	n/a	n/a	0	0	0
2028519	WORD	wordpools/wasnorm_wordpool_576.txt	LTP385	ltpFR2	0	9	SWIMMER	1420	n/a	n/a	0	0	0
2030120	START	n/a	LTP385	ltpFR2	0	n/a	n/a	n/a	15	n/a	n/a	n/a	n/a
2031193	DISTRACTOR	n/a	LTP385	ltpFR2	0	9	n/a	n/a	n/a	n/a	0	0	0
2031203	PROB	n/a	LTP385	ltpFR2	0	n/a	n/a	n/a	15	11	1	5	5
2033419	PROB	n/a	LTP385	ltpFR2	0	n/a	n/a	n/a	15	5	1	3	1
2035219	PROB	n/a	LTP385	ltpFR2	0	n/a	n/a	n/a	15	8	1	5	2
2037352	PROB	n/a	LTP385	ltpFR2	0	n/a	n/a	n/a	15	19	5	5	9
2039369	PROB	n/a	LTP385	ltpFR2	0	n/a	n/a	n/a	15	10	1	3	6
2041903	PROB	n/a	LTP385	ltpFR2	0	n/a	n/a	n/a	15	19	7	5	7
2045003	PROB	n/a	LTP385	ltpFR2	0	n/a	n/a	n/a	15	19	7	9	3
2050502	PROB	n/a	LTP385	ltpFR2	0	n/a	n/a	n/a	15	13	2	8	3
2052877	STOP	n/a	LTP385	ltpFR2	0	n/a	n/a	n/a	15	n/a	n/a	n/a	n/a
2055987	REC_START	n/a	LTP385	ltpFR2	0	9	n/a	n/a	n/a	n/a	0	0	0
2057631	REC_WORD	wordpools/wasnorm_wordpool_576.txt	LTP385	ltpFR2	0	9	GLOBE	641	n/a	n/a	0	0	0
2058201	REC_WORD	wordpools/wasnorm_wordpool_576.txt	LTP385	ltpFR2	0	9	LEOPARD	812	n/a	n/a	0	0	0
2060191	REC_WORD	wordpools/wasnorm_wordpool_576.txt	LTP385	ltpFR2	0	9	SUBWAY	1400	n/a	n/a	0	0	0
2062146	REC_WORD	wordpools/wasnorm_wordpool_576.txt	LTP385	ltpFR2	0	9	OZONE	996	n/a	n/a	0	0	0
2069389	REC_WORD	wordpools/wasnorm_wordpool_576.txt	LTP385	ltpFR2	0	9	COLLEGE	346	n/a	n/a	0	0	0
2070139	REC_WORD	wordpools/wasnorm_wordpool_576.txt	LTP385	ltpFR2	0	9	SHORTS	1293	n/a	n/a	0	0	0
2074434	REC_WORD	wordpools/wasnorm_wordpool_576.txt	LTP385	ltpFR2	0	9	MATTRESS	879	n/a	n/a	0	0	0
2075666	REC_WORD	wordpools/wasnorm_wordpool_576.txt	LTP385	ltpFR2	0	9	SUBWAY	1400	n/a	n/a	0	0	0
2078424	REC_WORD	wordpools/wasnorm_wordpool_576.txt	LTP385	ltpFR2	0	9	SWIMMER	1420	n/a	n/a	0	0	0
2090223	REC_WORD	wordpools/wasnorm_wordpool_576.txt	LTP385	ltpFR2	0	9	CURTAIN	427	n/a	n/a	0	0	0
2090897	REC_WORD	wordpools/wasnorm_wordpool_576.txt	LTP385	ltpFR2	0	9	WINDOW	1611	n/a	n/a	0	0	0
2093300	REC_WORD	wordpools/wasnorm_wordpool_576.txt	LTP385	ltpFR2	0	9	PREACHER	1119	n/a	n/a	0	0	0
2094333	REC_WORD	wordpools/wasnorm_wordpool_576.txt	LTP385	ltpFR2	0	9	CHURCH	307	n/a	n/a	0	0	0
2146434	WORD	wordpools/wasnorm_wordpool_576.txt	LTP385	ltpFR2	0	10	POPCORN	1104	n/a	n/a	0	0	0
2149118	WORD	wordpools/wasnorm_wordpool_576.txt	LTP385	ltpFR2	0	10	DRINK	498	n/a	n/a	0	0	0
2151618	WORD	wordpools/wasnorm_wordpool_576.txt	LTP385	ltpFR2	0	10	PILOT	1070	n/a	n/a	0	0	0
2154217	WORD	wordpools/wasnorm_wordpool_576.txt	LTP385	ltpFR2	0	10	SEAGULL	1261	n/a	n/a	0	0	0
2156751	WORD	wordpools/wasnorm_wordpool_576.txt	LTP385	ltpFR2	0	10	FILM	565	n/a	n/a	0	0	0
2159417	WORD	wordpools/wasnorm_wordpool_576.txt	LTP385	ltpFR2	0	10	COCOON	339	n/a	n/a	0	0	0
2161868	WORD	wordpools/wasnorm_wordpool_576.txt	LTP385	ltpFR2	0	10	TUTU	1524	n/a	n/a	0	0	0
2164601	WORD	wordpools/wasnorm_wordpool_576.txt	LTP385	ltpFR2	0	10	RAFT	1159	n/a	n/a	0	0	0
2167185	WORD	wordpools/wasnorm_wordpool_576.txt	LTP385	ltpFR2	0	10	PEDAL	1037	n/a	n/a	0	0	0
2169685	WORD	wordpools/wasnorm_wordpool_576.txt	LTP385	ltpFR2	0	10	CRITIC	410	n/a	n/a	0	0	0
2172434	WORD	wordpools/wasnorm_wordpool_576.txt	LTP385	ltpFR2	0	10	WIDOW	1608	n/a	n/a	0	0	0
2175168	WORD	wordpools/wasnorm_wordpool_576.txt	LTP385	ltpFR2	0	10	FEMALE	559	n/a	n/a	0	0	0
2177784	WORD	wordpools/wasnorm_wordpool_576.txt	LTP385	ltpFR2	0	10	RIFLE	1192	n/a	n/a	0	0	0
2180601	WORD	wordpools/wasnorm_wordpool_576.txt	LTP385	ltpFR2	0	10	WRENCH	1625	n/a	n/a	0	0	0
2183267	WORD	wordpools/wasnorm_wordpool_576.txt	LTP385	ltpFR2	0	10	PLIERS	1089	n/a	n/a	0	0	0
2185968	WORD	wordpools/wasnorm_wordpool_576.txt	LTP385	ltpFR2	0	10	PLAZA	1088	n/a	n/a	0	0	0
2188550	WORD	wordpools/wasnorm_wordpool_576.txt	LTP385	ltpFR2	0	10	MONEY	908	n/a	n/a	0	0	0
2191101	WORD	wordpools/wasnorm_wordpool_576.txt	LTP385	ltpFR2	0	10	TRENCH	1503	n/a	n/a	0	0	0
2193567	WORD	wordpools/wasnorm_wordpool_576.txt	LTP385	ltpFR2	0	10	CASKET	255	n/a	n/a	0	0	0
2196250	WORD	wordpools/wasnorm_wordpool_576.txt	LTP385	ltpFR2	0	10	GAVEL	627	n/a	n/a	0	0	0
2198967	WORD	wordpools/wasnorm_wordpool_576.txt	LTP385	ltpFR2	0	10	HONEY	713	n/a	n/a	0	0	0
2201416	WORD	wordpools/wasnorm_wordpool_576.txt	LTP385	ltpFR2	0	10	APRON	35	n/a	n/a	0	0	0
2203834	WORD	wordpools/wasnorm_wordpool_576.txt	LTP385	ltpFR2	0	10	MILDEW	893	n/a	n/a	0	0	0
2206383	WORD	wordpools/wasnorm_wordpool_576.txt	LTP385	ltpFR2	0	10	MISTER	901	n/a	n/a	0	0	0
2207984	START	n/a	LTP385	ltpFR2	0	n/a	n/a	n/a	16	n/a	n/a	n/a	n/a
2208798	DISTRACTOR	n/a	LTP385	ltpFR2	0	10	n/a	n/a	n/a	n/a	0	0	0
2208801	PROB	n/a	LTP385	ltpFR2	0	n/a	n/a	n/a	16	21	9	2	9
2211366	PROB	n/a	LTP385	ltpFR2	0	n/a	n/a	n/a	16	12	1	2	9
2215466	PROB	n/a	LTP385	ltpFR2	0	n/a	n/a	n/a	16	14	6	6	2
2218350	PROB	n/a	LTP385	ltpFR2	0	n/a	n/a	n/a	16	15	9	1	5
2220399	PROB	n/a	LTP385	ltpFR2	0	n/a	n/a	n/a	16	16	6	9	1
2223433	PROB	n/a	LTP385	ltpFR2	0	n/a	n/a	n/a	16	18	5	9	4
2227283	PROB	n/a	LTP385	ltpFR2	0	n/a	n/a	n/a	16	3	1	1	1
2231984	STOP	n/a	LTP385	ltpFR2	0	n/a	n/a	n/a	16	n/a	n/a	n/a	n/a
2233817	REC_START	n/a	LTP385	ltpFR2	0	10	n/a	n/a	n/a	n/a	0	0	0
2239996	REC_WORD	wordpools/wasnorm_wordpool_576.txt	LTP385	ltpFR2	0	10	POPCORN	1104	n/a	n/a	0	0	0
2240671	REC_WORD	wordpools/wasnorm_wordpool_576.txt	LTP385	ltpFR2	0	10	DRINK	498	n/a	n/a	0	0	0
2241525	REC_WORD	wordpools/wasnorm_wordpool_576.txt	LTP385	ltpFR2	0	10	FILM	565	n/a	n/a	0	0	0
2242757	REC_WORD	wordpools/wasnorm_wordpool_576.txt	LTP385	ltpFR2	0	10	MILDEW	893	n/a	n/a	0	0	0
2244020	REC_WORD	wordpools/wasnorm_wordpool_576.txt	LTP385	ltpFR2	0	10	HONEY	713	n/a	n/a	0	0	0
2245889	REC_WORD	wordpools/wasnorm_wordpool_576.txt	LTP385	ltpFR2	0	10	WINDOW	1611	n/a	n/a	0	0	0
2248709	REC_WORD	wordpools/wasnorm_wordpool_576.txt	LTP385	ltpFR2	0	10	WOMAN	1620	n/a	n/a	0	0	0
2262506	REC_WORD	wordpools/wasnorm_wordpool_576.txt	LTP385	ltpFR2	0	10	PLIERS	1089	n/a	n/a	0	0	0
2266042	REC_WORD	wordpools/wasnorm_wordpool_576.txt	LTP385	ltpFR2	0	10	WRENCH	1625	n/a	n/a	0	0	0
2268065	REC_WORD	wordpools/wasnorm_wordpool_576.txt	LTP385	ltpFR2	0	10	PLAZA	1088	n/a	n/a	0	0	0
2268949	REC_WORD	wordpools/wasnorm_wordpool_576.txt	LTP385	ltpFR2	0	10	MONEY	908	n/a	n/a	0	0	0
2324281	WORD	wordpools/wasnorm_wordpool_576.txt	LTP385	ltpFR2	0	11	BLACKBOARD	133	n/a	n/a	0	0	0
2327066	WORD	wordpools/wasnorm_wordpool_576.txt	LTP385	ltpFR2	0	11	SUITCASE	1403	n/a	n/a	0	0	0
2329765	WORD	wordpools/wasnorm_wordpool_576.txt	LTP385	ltpFR2	0	11	HAMPER	682	n/a	n/a	0	0	0
2332498	WORD	wordpools/wasnorm_wordpool_576.txt	LTP385	ltpFR2	0	11	WITNESS	1618	n/a	n/a	0	0	0
2335248	WORD	wordpools/wasnorm_wordpool_576.txt	LTP385	ltpFR2	0	11	COFFEE	341	n/a	n/a	0	0	0
2337749	WORD	wordpools/wasnorm_wordpool_576.txt	LTP385	ltpFR2	0	11	BACKBONE	66	n/a	n/a	0	0	0
2340582	WORD	wordpools/wasnorm_wordpool_576.txt	LTP385	ltpFR2	0	11	MISSILE	900	n/a	n/a	0	0	0
2343082	WORD	wordpools/wasnorm_wordpool_576.txt	LTP385	ltpFR2	0	11	COCKTAIL	338	n/a	n/a	0	0	0
2345531	WORD	wordpools/wasnorm_wordpool_576.txt	LTP385	ltpFR2	0	11	DINER	467	n/a	n/a	0	0	0
2347965	WORD	wordpools/wasnorm_wordpool_576.txt	LTP385	ltpFR2	0	11	CAFE	216	n/a	n/a	0	0	0
2350732	WORD	wordpools/wasnorm_wordpool_576.txt	LTP385	ltpFR2	0	11	HAWK	692	n/a	n/a	0	0	0
2353281	WORD	wordpools/wasnorm_wordpool_576.txt	LTP385	ltpFR2	0	11	SPONGE	1355	n/a	n/a	0	0	0
2356082	WORD	wordpools/wasnorm_wordpool_576.txt	LTP385	ltpFR2	0	11	TILE	1468	n/a	n/a	0	0	0
2358732	WORD	wordpools/wasnorm_wordpool_576.txt	LTP385	ltpFR2	0	11	ISLAND	745	n/a	n/a	0	0	0
2361231	WORD	wordpools/wasnorm_wordpool_576.txt	LTP385	ltpFR2	0	11	CORAL	378	n/a	n/a	0	0	0
2363798	WORD	wordpools/wasnorm_wordpool_576.txt	LTP385	ltpFR2	0	11	DRUG	501	n/a	n/a	0	0	0
2366364	WORD	wordpools/wasnorm_wordpool_576.txt	LTP385	ltpFR2	0	11	TOMBSTONE	1478	n/a	n/a	0	0	0
2368915	WORD	wordpools/wasnorm_wordpool_576.txt	LTP385	ltpFR2	0	11	COUNTY	389	n/a	n/a	0	0	0
2371631	WORD	wordpools/wasnorm_wordpool_576.txt	LTP385	ltpFR2	0	11	PADDING	999	n/a	n/a	0	0	0
2374230	WORD	wordpools/wasnorm_wordpool_576.txt	LTP385	ltpFR2	0	11	JELLO	754	n/a	n/a	0	0	0
2376865	WORD	wordpools/wasnorm_wordpool_576.txt	LTP385	ltpFR2	0	11	THIEF	1456	n/a	n/a	0	0	0
2379615	WORD	wordpools/wasnorm_wordpool_576.txt	LTP385	ltpFR2	0	11	GRAVE	658	n/a	n/a	0	0	0
2382297	WORD	wordpools/wasnorm_wordpool_576.txt	LTP385	ltpFR2	0	11	TABLET	1427	n/a	n/a	0	0	0
2385065	WORD	wordpools/wasnorm_wordpool_576.txt	LTP385	ltpFR2	0	11	LAKE	796	n/a	n/a	0	0	0
2386681	START	n/a	LTP385	ltpFR2	0	n/a	n/a	n/a	17	n/a	n/a	n/a	n/a
2387855	DISTRACTOR	n/a	LTP385	ltpFR2	0	11	n/a	n/a	n/a	n/a	0	0	0
2387865	PROB	n/a	LTP385	ltpFR2	0	n/a	n/a	n/a	17	24	7	8	9
2394098	PROB	n/a	LTP385	ltpFR2	0	n/a	n/a	n/a	17	18	5	8	5
2396513	PROB	n/a	LTP385	ltpFR2	0	n/a	n/a	n/a	17	10	1	1	8
2398497	PROB	n/a	LTP385	ltpFR2	0	n/a	n/a	n/a	17	15	5	8	2
2400698	PROB	n/a	LTP385	ltpFR2	0	n/a	n/a	n/a	17	7	4	1	2
2403848	PROB	n/a	LTP385	ltpFR2	0	n/a	n/a	n/a	17	19	9	4	6
2406798	PROB	n/a	LTP385	ltpFR2	0	n/a	n/a	n/a	17	11	8	2	1
2410681	STOP	n/a	LTP385	ltpFR2	0	n/a	n/a	n/a	17	n/a	n/a	n/a	n/a
2412598	REC_START	n/a	LTP385	ltpFR2	0	11	n/a	n/a	n/a	n/a	0	0	0
2414993	REC_WORD	wordpools/wasnorm_wordpool_576.txt	LTP385	ltpFR2	0	11	TILE	1468	n/a	n/a	0	0	0
2415815	REC_WORD	wordpools/wasnorm_wordpool_576.txt	LTP385	ltpFR2	0	11	GRAVE	658	n/a	n/a	0	0	0
2416608	REC_WORD	wordpools/wasnorm_wordpool_576.txt	LTP385	ltpFR2	0	11	TOMBSTONE	1478	n/a	n/a	0	0	0
2421236	REC_WORD	wordpools/wasnorm_wordpool_576.txt	LTP385	ltpFR2	0	11	MISSILE	900	n/a	n/a	0	0	0
2424096	REC_WORD	wordpools/wasnorm_wordpool_576.txt	LTP385	ltpFR2	0	11	BACKBONE	66	n/a	n/a	0	0	0
2433965	REC_WORD	wordpools/wasnorm_wordpool_576.txt	LTP385	ltpFR2	0	11	COUNTY	389	n/a	n/a	0	0	0
2435313	REC_WORD	wordpools/wasnorm_wordpool_576.txt	LTP385	ltpFR2	0	11	LAKE	796	n/a	n/a	0	0	0
2437867	REC_WORD	wordpools/wasnorm_wordpool_576.txt	LTP385	ltpFR2	0	11	WINDOW	1611	n/a	n/a	0	0	0
2458906	REC_WORD	wordpools/wasnorm_wordpool_576.txt	LTP385	ltpFR2	0	11	TRENCH	1503	n/a	n/a	0	0	0
2470014	REC_WORD	wordpools/wasnorm_wordpool_576.txt	LTP385	ltpFR2	0	11	BLACKBOARD	133	n/a	n/a	0	0	0
2477056	REC_WORD	wordpools/wasnorm_wordpool_576.txt	LTP385	ltpFR2	0	11	ISLAND	745	n/a	n/a	0	0	0
2477889	REC_WORD	wordpools/wasnorm_wordpool_576.txt	LTP385	ltpFR2	0	11	CORAL	378	n/a	n/a	0	0	0
2503046	DISTRACTOR	n/a	LTP385	ltpFR2	0	12	n/a	n/a	n/a	n/a	0	0	0
2503046	START	n/a	LTP385	ltpFR2	0	n/a	n/a	n/a	18	n/a	n/a	n/a	n/a
2503063	PROB	n/a	LTP385	ltpFR2	0	n/a	n/a	n/a	18	15	3	3	9
2505512	PROB	n/a	LTP385	ltpFR2	0	n/a	n/a	n/a	18	13	9	3	1
2508362	PROB	n/a	LTP385	ltpFR2	0	n/a	n/a	n/a	18	21	7	8	6
2512596	PROB	n/a	LTP385	ltpFR2	0	n/a	n/a	n/a	18	21	3	9	9
2515113	PROB	n/a	LTP385	ltpFR2	0	n/a	n/a	n/a	18	14	4	4	6
2517245	PROB	n/a	LTP385	ltpFR2	0	n/a	n/a	n/a	18	12	1	4	7
2520411	PROB	n/a	LTP385	ltpFR2	0	n/a	n/a	n/a	18	16	6	8	2
2524345	PROB	n/a	LTP385	ltpFR2	0	n/a	n/a	n/a	18	9	2	5	2
2526395	STOP	n/a	LTP385	ltpFR2	0	n/a	n/a	n/a	18	n/a	n/a	n/a	n/a
2528179	WORD	wordpools/wasnorm_wordpool_576.txt	LTP385	ltpFR2	0	12	DENTIST	447	n/a	n/a	0	0	0
2530896	WORD	wordpools/wasnorm_wordpool_576.txt	LTP385	ltpFR2	0	12	ORCHID	982	n/a	n/a	0	0	0
2533395	WORD	wordpools/wasnorm_wordpool_576.txt	LTP385	ltpFR2	0	12	MAILBOX	857	n/a	n/a	0	0	0
2536146	WORD	wordpools/wasnorm_wordpool_576.txt	LTP385	ltpFR2	0	12	REPORT	1184	n/a	n/a	0	0	0
2538579	WORD	wordpools/wasnorm_wordpool_576.txt	LTP385	ltpFR2	0	12	WHISKERS	1605	n/a	n/a	0	0	0
2541179	WORD	wordpools/wasnorm_wordpool_576.txt	LTP385	ltpFR2	0	12	POSTAGE	1113	n/a	n/a	0	0	0
2543745	WORD	wordpools/wasnorm_wordpool_576.txt	LTP385	ltpFR2	0	12	STICKER	1382	n/a	n/a	0	0	0
2546261	WORD	wordpools/wasnorm_wordpool_576.txt	LTP385	ltpFR2	0	12	STREAM	1392	n/a	n/a	0	0	0
2548879	WORD	wordpools/wasnorm_wordpool_576.txt	LTP385	ltpFR2	0	12	LETTUCE	814	n/a	n/a	0	0	0
2551679	WORD	wordpools/wasnorm_wordpool_576.txt	LTP385	ltpFR2	0	12	FRAME	600	n/a	n/a	0	0	0
2554112	WORD	wordpools/wasnorm_wordpool_576.txt	LTP385	ltpFR2	0	12	MEDAL	885	n/a	n/a	0	0	0
2556762	WORD	wordpools/wasnorm_wordpool_576.txt	LTP385	ltpFR2	0	12	NECKLACE	940	n/a	n/a	0	0	0
2559311	WORD	wordpools/wasnorm_wordpool_576.txt	LTP385	ltpFR2	0	12	THRONE	1461	n/a	n/a	0	0	0
2562095	WORD	wordpools/wasnorm_wordpool_576.txt	LTP385	ltpFR2	0	12	HIKER	708	n/a	n/a	0	0	0
2564712	WORD	wordpools/wasnorm_wordpool_576.txt	LTP385	ltpFR2	0	12	SNAIL	1332	n/a	n/a	0	0	0
2567427	WORD	wordpools/wasnorm_wordpool_576.txt	LTP385	ltpFR2	0	12	SLUG	1329	n/a	n/a	0	0	0
2570211	WORD	wordpools/wasnorm_wordpool_576.txt	LTP385	ltpFR2	0	12	CONVICT	371	n/a	n/a	0	0	0
2572712	WORD	wordpools/wasnorm_wordpool_576.txt	LTP385	ltpFR2	0	12	WASHER	1592	n/a	n/a	0	0	0
2575377	WORD	wordpools/wasnorm_wordpool_576.txt	LTP385	ltpFR2	0	12	COMPASS	358	n/a	n/a	0	0	0
2577828	WORD	wordpools/wasnorm_wordpool_576.txt	LTP385	ltpFR2	0	12	WORLD	1622	n/a	n/a	0	0	0
2580261	WORD	wordpools/wasnorm_wordpool_576.txt	LTP385	ltpFR2	0	12	MAILMAN	858	n/a	n/a	0	0	0
2582828	WORD	wordpools/wasnorm_wordpool_576.txt	LTP385	ltpFR2	0	12	PAPER	1011	n/a	n/a	0	0	0
2585560	WORD	wordpools/wasnorm_wordpool_576.txt	LTP385	ltpFR2	0	12	COMET	353	n/a	n/a	0	0	0
2588195	WORD	wordpools/wasnorm_wordpool_576.txt	LTP385	ltpFR2	0	12	PACKAGE	997	n/a	n/a	0	0	0
2589812	START	n/a	LTP385	ltpFR2	0	n/a	n/a	n/a	19	n/a	n/a	n/a	n/a
2590786	DISTRACTOR	n/a	LTP385	ltpFR2	0	12	n/a	n/a	n/a	n/a	0	0	0
2590795	PROB	n/a	LTP385	ltpFR2	0	n/a	n/a	n/a	19	15	6	7	2
2596828	PROB	n/a	LTP385	ltpFR2	0	n/a	n/a	n/a	19	14	6	2	6
2599510	PROB	n/a	LTP385	ltpFR2	0	n/a	n/a	n/a	19	19	6	5	8
2602945	PROB	n/a	LTP385	ltpFR2	0	n/a	n/a	n/a	19	14	6	1	7
2606044	PROB	n/a	LTP385	ltpFR2	0	n/a	n/a	n/a	19	11	3	7	1
2607544	PROB	n/a	LTP385	ltpFR2	0	n/a	n/a	n/a	19	17	7	4	6
2609694	PROB	n/a	LTP385	ltpFR2	0	n/a	n/a	n/a	19	17	5	4	8
2612286	STOP	n/a	LTP385	ltpFR2	0	n/a	n/a	n/a	19	n/a	n/a	n/a	n/a
2615695	REC_START	n/a	LTP385	ltpFR2	0	12	n/a	n/a	n/a	n/a	0	0	0
2617555	REC_WORD	wordpools/wasnorm_wordpool_576.txt	LTP385	ltpFR2	0	12	PACKAGE	997	n/a	n/a	0	0	0
2618317	REC_WORD	wordpools/wasnorm_wordpool_576.txt	LTP385	ltpFR2	0	12	PAPER	1011	n/a	n/a	0	0	0
2622647	REC_WORD	wordpools/wasnorm_wordpool_576.txt	LTP385	ltpFR2	0	12	MEDAL	885	n/a	n/a	0	0	0
2626925	REC_WORD	wordpools/wasnorm_wordpool_576.txt	LTP385	ltpFR2	0	12	STAMP	1370	n/a	n/a	0	0	0
2627755	REC_WORD	wordpools/wasnorm_wordpool_576.txt	LTP385	ltpFR2	0	12	STICKER	1382	n/a	n/a	0	0	0
2629080	REC_WORD	wordpools/wasnorm_wordpool_576.txt	LTP385	ltpFR2	0	12	POSTAGE	1113	n/a	n/a	0	0	0
2634938	REC_WORD	wordpools/wasnorm_wordpool_576.txt	LTP385	ltpFR2	0	12	COMPASS	358	n/a	n/a	0	0	0
2637287	REC_WORD	wordpools/wasnorm_wordpool_576.txt	LTP385	ltpFR2	0	12	WORLD	1622	n/a	n/a	0	0	0
2642494	REC_WORD	wordpools/wasnorm_wordpool_576.txt	LTP385	ltpFR2	0	12	COTTAGE	384	n/a	n/a	0	0	0
2649145	REC_WORD	wordpools/wasnorm_wordpool_576.txt	LTP385	ltpFR2	0	12	RIVER	1194	n/a	n/a	0	0	0
2650007	REC_WORD	wordpools/wasnorm_wordpool_576.txt	LTP385	ltpFR2	0	12	WASH	-1	n/a	n/a	0	0	0
2655843	REC_WORD	wordpools/wasnorm_wordpool_576.txt	LTP385	ltpFR2	0	12	CATERPILLAR	259	n/a	n/a	0	0	0
2706143	DISTRACTOR	n/a	LTP385	ltpFR2	0	13	n/a	n/a	n/a	n/a	0	0	0
2706143	START	n/a	LTP385	ltpFR2	0	n/a	n/a	n/a	20	n/a	n/a	n/a	n/a
2706160	PROB	n/a	LTP385	ltpFR2	0	n/a	n/a	n/a	20	13	9	2	2
2708810	PROB	n/a	LTP385	ltpFR2	0	n/a	n/a	n/a	20	13	4	1	8
2711275	PROB	n/a	LTP385	ltpFR2	0	n/a	n/a	n/a	20	16	6	2	8
2717676	PROB	n/a	LTP385	ltpFR2	0	n/a	n/a	n/a	20	20	9	4	7
2720558	PROB	n/a	LTP385	ltpFR2	0	n/a	n/a	n/a	20	15	9	1	5
2722509	PROB	n/a	LTP385	ltpFR2	0	n/a	n/a	n/a	20	14	7	1	6
2724843	PROB	n/a	LTP385	ltpFR2	0	n/a	n/a	n/a	20	20	8	7	5
2727308	PROB	n/a	LTP385	ltpFR2	0	n/a	n/a	n/a	20	11	3	1	7
2729650	STOP	n/a	LTP385	ltpFR2	0	n/a	n/a	n/a	20	n/a	n/a	n/a	n/a
2731308	WORD	wordpools/wasnorm_wordpool_576.txt	LTP385	ltpFR2	0	13	PISTON	1076	n/a	n/a	0	0	0
2733909	WORD	wordpools/wasnorm_wordpool_576.txt	LTP385	ltpFR2	0	13	FOREHEAD	592	n/a	n/a	0	0	0
2736659	WORD	wordpools/wasnorm_wordpool_576.txt	LTP385	ltpFR2	0	13	CRUTCH	417	n/a	n/a	0	0	0
2739192	WORD	wordpools/wasnorm_wordpool_576.txt	LTP385	ltpFR2	0	13	RADISH	1158	n/a	n/a	0	0	0
2741642	WORD	wordpools/wasnorm_wordpool_576.txt	LTP385	ltpFR2	0	13	CYCLONE	431	n/a	n/a	0	0	0
2744341	WORD	wordpools/wasnorm_wordpool_576.txt	LTP385	ltpFR2	0	13	SCRIBBLE	1256	n/a	n/a	0	0	0
2747026	WORD	wordpools/wasnorm_wordpool_576.txt	LTP385	ltpFR2	0	13	GREASE	660	n/a	n/a	0	0	0
2749809	WORD	wordpools/wasnorm_wordpool_576.txt	LTP385	ltpFR2	0	13	JAPAN	749	n/a	n/a	0	0	0
2752541	WORD	wordpools/wasnorm_wordpool_576.txt	LTP385	ltpFR2	0	13	EUROPE	541	n/a	n/a	0	0	0
2755308	WORD	wordpools/wasnorm_wordpool_576.txt	LTP385	ltpFR2	0	13	BLENDER	136	n/a	n/a	0	0	0
2757859	WORD	wordpools/wasnorm_wordpool_576.txt	LTP385	ltpFR2	0	13	OUTDOORS	987	n/a	n/a	0	0	0
2760391	WORD	wordpools/wasnorm_wordpool_576.txt	LTP385	ltpFR2	0	13	DORM	488	n/a	n/a	0	0	0
2762842	WORD	wordpools/wasnorm_wordpool_576.txt	LTP385	ltpFR2	0	13	GARDEN	623	n/a	n/a	0	0	0
2765408	WORD	wordpools/wasnorm_wordpool_576.txt	LTP385	ltpFR2	0	13	FOOT	590	n/a	n/a	0	0	0
2767842	WORD	wordpools/wasnorm_wordpool_576.txt	LTP385	ltpFR2	0	13	SPIDER	1351	n/a	n/a	0	0	0
2770274	WORD	wordpools/wasnorm_wordpool_576.txt	LTP385	ltpFR2	0	13	ITEM	746	n/a	n/a	0	0	0
2772992	WORD	wordpools/wasnorm_wordpool_576.txt	LTP385	ltpFR2	0	13	BLUEPRINT	142	n/a	n/a	0	0	0
2775792	WORD	wordpools/wasnorm_wordpool_576.txt	LTP385	ltpFR2	0	13	KEEPER	769	n/a	n/a	0	0	0
2778458	WORD	wordpools/wasnorm_wordpool_576.txt	LTP385	ltpFR2	0	13	GLOVE	642	n/a	n/a	0	0	0
2781059	WORD	wordpools/wasnorm_wordpool_576.txt	LTP385	ltpFR2	0	13	DOLPHIN	483	n/a	n/a	0	0	0
2783642	WORD	wordpools/wasnorm_wordpool_576.txt	LTP385	ltpFR2	0	13	HOOK	715	n/a	n/a	0	0	0
2786208	WORD	wordpools/wasnorm_wordpool_576.txt	LTP385	ltpFR2	0	13	SALMON	1227	n/a	n/a	0	0	0
2788742	WORD	wordpools/wasnorm_wordpool_576.txt	LTP385	ltpFR2	0	13	STAR	1373	n/a	n/a	0	0	0
2791524	WORD	wordpools/wasnorm_wordpool_576.txt	LTP385	ltpFR2	0	13	TWISTER	1530	n/a	n/a	0	0	0
2793125	START	n/a	LTP385	ltpFR2	0	n/a	n/a	n/a	21	n/a	n/a	n/a	n/a
2794193	DISTRACTOR	n/a	LTP385	ltpFR2	0	13	n/a	n/a	n/a	n/a	0	0	0
2794207	PROB	n/a	LTP385	ltpFR2	0	n/a	n/a	n/a	21	26	9	9	8
2800391	PROB	n/a	LTP385	ltpFR2	0	n/a	n/a	n/a	21	28	9	3	6
2809675	PROB	n/a	LTP385	ltpFR2	0	n/a	n/a	n/a	21	16	7	7	2
2817125	STOP	n/a	LTP385	ltpFR2	0	n/a	n/a	n/a	21	n/a	n/a	n/a	n/a
2818875	REC_START	n/a	LTP385	ltpFR2	0	13	n/a	n/a	n/a	n/a	0	0	0
2822547	REC_WORD	wordpools/wasnorm_wordpool_576.txt	LTP385	ltpFR2	0	13	DOLPHIN	483	n/a	n/a	0	0	0
2823122	REC_WORD	wordpools/wasnorm_wordpool_576.txt	LTP385	ltpFR2	0	13	STAR	1373	n/a	n/a	0	0	0
2824100	REC_WORD	wordpools/wasnorm_wordpool_576.txt	LTP385	ltpFR2	0	13	HOOK	715	n/a	n/a	0	0	0
2825607	REC_WORD	wordpools/wasnorm_wordpool_576.txt	LTP385	ltpFR2	0	13	FISH	571	n/a	n/a	0	0	0
2828842	REC_WORD	wordpools/wasnorm_wordpool_576.txt	LTP385	ltpFR2	0	13	JAPAN	749	n/a	n/a	0	0	0
2829655	REC_WORD	wordpools/wasnorm_wordpool_576.txt	LTP385	ltpFR2	0	13	EUROPE	541	n/a	n/a	0	0	0
2832258	REC_WORD	wordpools/wasnorm_wordpool_576.txt	LTP385	ltpFR2	0	13	GREASE	660	n/a	n/a	0	0	0
2833050	REC_WORD	wordpools/wasnorm_wordpool_576.txt	LTP385	ltpFR2	0	13	BLENDER	136	n/a	n/a	0	0	0
2840385	REC_WORD	wordpools/wasnorm_wordpool_576.txt	LTP385	ltpFR2	0	13	PISTON	1076	n/a	n/a	0	0	0
2847481	REC_WORD	wordpools/wasnorm_wordpool_576.txt	LTP385	ltpFR2	0	13	DORM	488	n/a	n/a	0	0	0
2848235	REC_WORD	wordpools/wasnorm_wordpool_576.txt	LTP385	ltpFR2	0	13	GARDEN	623	n/a	n/a	0	0	0
2852900	REC_WORD	wordpools/wasnorm_wordpool_576.txt	LTP385	ltpFR2	0	13	OUTSIDE	-1	n/a	n/a	0	0	0
2864580	REC_WORD	wordpools/wasnorm_wordpool_576.txt	LTP385	ltpFR2	0	13	CYCLONE	431	n/a	n/a	0	0	0
2909322	WORD	wordpools/wasnorm_wordpool_576.txt	LTP385	ltpFR2	0	14	SOFTBALL	1343	n/a	n/a	0	0	0
2911940	WORD	wordpools/wasnorm_wordpool_576.txt	LTP385	ltpFR2	0	14	BISON	131	n/a	n/a	0	0	0
2914623	WORD	wordpools/wasnorm_wordpool_576.txt	LTP385	ltpFR2	0	14	CATTLE	261	n/a	n/a	0	0	0
2917289	WORD	wordpools/wasnorm_wordpool_576.txt	LTP385	ltpFR2	0	14	NURSE	963	n/a	n/a	0	0	0
2919757	WORD	wordpools/wasnorm_wordpool_576.txt	LTP385	ltpFR2	0	14	SNAKE	1333	n/a	n/a	0	0	0
2922439	WORD	wordpools/wasnorm_wordpool_576.txt	LTP385	ltpFR2	0	14	BASEMENT	94	n/a	n/a	0	0	0
2925222	WORD	wordpools/wasnorm_wordpool_576.txt	LTP385	ltpFR2	0	14	ROBOT	1200	n/a	n/a	0	0	0
2927723	WORD	wordpools/wasnorm_wordpool_576.txt	LTP385	ltpFR2	0	14	ROBBER	1197	n/a	n/a	0	0	0
2930489	WORD	wordpools/wasnorm_wordpool_576.txt	LTP385	ltpFR2	0	14	FLAG	573	n/a	n/a	0	0	0
2933272	WORD	wordpools/wasnorm_wordpool_576.txt	LTP385	ltpFR2	0	14	WRIST	1626	n/a	n/a	0	0	0
2935840	WORD	wordpools/wasnorm_wordpool_576.txt	LTP385	ltpFR2	0	14	GARBAGE	622	n/a	n/a	0	0	0
2938388	WORD	wordpools/wasnorm_wordpool_576.txt	LTP385	ltpFR2	0	14	CHEMIST	292	n/a	n/a	0	0	0
2940856	WORD	wordpools/wasnorm_wordpool_576.txt	LTP385	ltpFR2	0	14	FLEET	578	n/a	n/a	0	0	0
2943305	WORD	wordpools/wasnorm_wordpool_576.txt	LTP385	ltpFR2	0	14	ARMY	39	n/a	n/a	0	0	0
2945773	WORD	wordpools/wasnorm_wordpool_576.txt	LTP385	ltpFR2	0	14	LEG	809	n/a	n/a	0	0	0
2948222	WORD	wordpools/wasnorm_wordpool_576.txt	LTP385	ltpFR2	0	14	GALLON	618	n/a	n/a	0	0	0
2950939	WORD	wordpools/wasnorm_wordpool_576.txt	LTP385	ltpFR2	0	14	SEAL	1262	n/a	n/a	0	0	0
2953422	WORD	wordpools/wasnorm_wordpool_576.txt	LTP385	ltpFR2	0	14	BATHTUB	100	n/a	n/a	0	0	0
2956238	WORD	wordpools/wasnorm_wordpool_576.txt	LTP385	ltpFR2	0	14	CIGAR	308	n/a	n/a	0	0	0
2958689	WORD	wordpools/wasnorm_wordpool_576.txt	LTP385	ltpFR2	0	14	CHEST	295	n/a	n/a	0	0	0
2961438	WORD	wordpools/wasnorm_wordpool_576.txt	LTP385	ltpFR2	0	14	ELBOW	520	n/a	n/a	0	0	0
2963939	WORD	wordpools/wasnorm_wordpool_576.txt	LTP385	ltpFR2	0	14	FRANCE	601	n/a	n/a	0	0	0
2966488	WORD	wordpools/wasnorm_wordpool_576.txt	LTP385	ltpFR2	0	14	HEADBAND	696	n/a	n/a	0	0	0
2969255	WORD	wordpools/wasnorm_wordpool_576.txt	LTP385	ltpFR2	0	14	HERO	706	n/a	n/a	0	0	0
2970873	START	n/a	LTP385	ltpFR2	0	n/a	n/a	n/a	22	n/a	n/a	n/a	n/a
2971692	DISTRACTOR	n/a	LTP385	ltpFR2	0	14	n/a	n/a	n/a	n/a	0	0	0
2971706	PROB	n/a	LTP385	ltpFR2	0	n/a	n/a	n/a	22	14	6	1	7
2975338	PROB	n/a	LTP385	ltpFR2	0	n/a	n/a	n/a	22	22	9	8	5
2980022	PROB	n/a	LTP385	ltpFR2	0	n/a	n/a	n/a	22	13	3	4	6
2982789	PROB	n/a	LTP385	ltpFR2	0	n/a	n/a	n/a	22	13	6	3	4
2985221	PROB	n/a	LTP385	ltpFR2	0	n/a	n/a	n/a	22	14	1	5	8
2988554	PROB	n/a	LTP385	ltpFR2	0	n/a	n/a	n/a	22	14	5	2	7
2994872	STOP	n/a	LTP385	ltpFR2	0	n/a	n/a	n/a	22	n/a	n/a	n/a	n/a
2996639	REC_START	n/a	LTP385	ltpFR2	0	14	n/a	n/a	n/a	n/a	0	0	0
3003405	REC_WORD	wordpools/wasnorm_wordpool_576.txt	LTP385	ltpFR2	0	14	BISON	131	n/a	n/a	0	0	0
3004183	REC_WORD	wordpools/wasnorm_wordpool_576.txt	LTP385	ltpFR2	0	14	CATTLE	261	n/a	n/a	0	0	0
3004834	REC_WORD	wordpools/wasnorm_wordpool_576.txt	LTP385	ltpFR2	0	14	SOFTBALL	1343	n/a	n/a	0	0	0
3006165	REC_WORD	wordpools/wasnorm_wordpool_576.txt	LTP385	ltpFR2	0	14	FLAG	573	n/a	n/a	0	0	0
3009220	REC_WORD	wordpools/wasnorm_wordpool_576.txt	LTP385	ltpFR2	0	14	ELBOW	520	n/a	n/a	0	0	0
3009992	REC_WORD	wordpools/wasnorm_wordpool_576.txt	LTP385	ltpFR2	0	14	FOOT	590	n/a	n/a	0	0	0
3013419	REC_WORD	wordpools/wasnorm_wordpool_576.txt	LTP385	ltpFR2	0	14	LEG	809	n/a	n/a	0	0	0
3016144	REC_WORD	wordpools/wasnorm_wordpool_576.txt	LTP385	ltpFR2	0	14	SHOULDER	1294	n/a	n/a	0	0	0
3025556	REC_WORD	wordpools/wasnorm_wordpool_576.txt	LTP385	ltpFR2	0	14	BASEMENT	94	n/a	n/a	0	0	0
3031326	REC_WORD	wordpools/wasnorm_wordpool_576.txt	LTP385	ltpFR2	0	14	HERO	706	n/a	n/a	0	0	0
3038390	REC_WORD	wordpools/wasnorm_wordpool_576.txt	LTP385	ltpFR2	0	14	BATHTUB	100	n/a	n/a	0	0	0
3039038	REC_WORD	wordpools/wasnorm_wordpool_576.txt	LTP385	ltpFR2	0	14	CIGAR	308	n/a	n/a	0	0	0
3042608	REC_WORD	wordpools/wasnorm_wordpool_576.txt	LTP385	ltpFR2	0	14	FLEET	578	n/a	n/a	0	0	0
3043672	REC_WORD	wordpools/wasnorm_wordpool_576.txt	LTP385	ltpFR2	0	14	ARMY	39	n/a	n/a	0	0	0
3050391	REC_WORD	wordpools/wasnorm_wordpool_576.txt	LTP385	ltpFR2	0	14	MAD	-1	n/a	n/a	0	0	0
3087104	WORD	wordpools/wasnorm_wordpool_576.txt	LTP385	ltpFR2	0	15	NEUTRON	947	n/a	n/a	0	0	0
3089870	WORD	wordpools/wasnorm_wordpool_576.txt	LTP385	ltpFR2	0	15	SCARF	1246	n/a	n/a	0	0	0
3092453	WORD	wordpools/wasnorm_wordpool_576.txt	LTP385	ltpFR2	0	15	DOUGHNUT	490	n/a	n/a	0	0	0
3094970	WORD	wordpools/wasnorm_wordpool_576.txt	LTP385	ltpFR2	0	15	TROUT	1511	n/a	n/a	0	0	0
3097787	WORD	wordpools/wasnorm_wordpool_576.txt	LTP385	ltpFR2	0	15	CLIMBER	323	n/a	n/a	0	0	0
3100236	WORD	wordpools/wasnorm_wordpool_576.txt	LTP385	ltpFR2	0	15	ICEBERG	731	n/a	n/a	0	0	0
3102937	WORD	wordpools/wasnorm_wordpool_576.txt	LTP385	ltpFR2	0	15	KETCHUP	771	n/a	n/a	0	0	0
3105737	WORD	wordpools/wasnorm_wordpool_576.txt	LTP385	ltpFR2	0	15	HOOD	714	n/a	n/a	0	0	0
3108187	WORD	wordpools/wasnorm_wordpool_576.txt	LTP385	ltpFR2	0	15	SALAD	1224	n/a	n/a	0	0	0
3110920	WORD	wordpools/wasnorm_wordpool_576.txt	LTP385	ltpFR2	0	15	PASTA	1021	n/a	n/a	0	0	0
3113536	WORD	wordpools/wasnorm_wordpool_576.txt	LTP385	ltpFR2	0	15	SUNRISE	1407	n/a	n/a	0	0	0
3115953	WORD	wordpools/wasnorm_wordpool_576.txt	LTP385	ltpFR2	0	15	CRATER	400	n/a	n/a	0	0	0
3118436	WORD	wordpools/wasnorm_wordpool_576.txt	LTP385	ltpFR2	0	15	FRUIT	610	n/a	n/a	0	0	0
3121037	WORD	wordpools/wasnorm_wordpool_576.txt	LTP385	ltpFR2	0	15	SPACE	1345	n/a	n/a	0	0	0
3123853	WORD	wordpools/wasnorm_wordpool_576.txt	LTP385	ltpFR2	0	15	TRUCK	1512	n/a	n/a	0	0	0
3126620	WORD	wordpools/wasnorm_wordpool_576.txt	LTP385	ltpFR2	0	15	SKILLET	1317	n/a	n/a	0	0	0
3129269	WORD	wordpools/wasnorm_wordpool_576.txt	LTP385	ltpFR2	0	15	YOLK	1633	n/a	n/a	0	0	0
3131953	WORD	wordpools/wasnorm_wordpool_576.txt	LTP385	ltpFR2	0	15	TROMBONE	1508	n/a	n/a	0	0	0
3134737	WORD	wordpools/wasnorm_wordpool_576.txt	LTP385	ltpFR2	0	15	FLIPPER	580	n/a	n/a	0	0	0
3137186	WORD	wordpools/wasnorm_wordpool_576.txt	LTP385	ltpFR2	0	15	COD	340	n/a	n/a	0	0	0
3139653	WORD	wordpools/wasnorm_wordpool_576.txt	LTP385	ltpFR2	0	15	GIRL	637	n/a	n/a	0	0	0
3142120	WORD	wordpools/wasnorm_wordpool_576.txt	LTP385	ltpFR2	0	15	TYPIST	1532	n/a	n/a	0	0	0
3144552	WORD	wordpools/wasnorm_wordpool_576.txt	LTP385	ltpFR2	0	15	JURY	766	n/a	n/a	0	0	0
3147103	WORD	wordpools/wasnorm_wordpool_576.txt	LTP385	ltpFR2	0	15	VALLEY	1545	n/a	n/a	0	0	0
3148720	START	n/a	LTP385	ltpFR2	0	n/a	n/a	n/a	23	n/a	n/a	n/a	n/a
3149683	DISTRACTOR	n/a	LTP385	ltpFR2	0	15	n/a	n/a	n/a	n/a	0	0	0
3149686	PROB	n/a	LTP385	ltpFR2	0	n/a	n/a	n/a	23	14	4	1	9
3153820	PROB	n/a	LTP385	ltpFR2	0	n/a	n/a	n/a	23	4	2	1	1
3155603	PROB	n/a	LTP385	ltpFR2	0	n/a	n/a	n/a	23	9	2	6	1
3158186	PROB	n/a	LTP385	ltpFR2	0	n/a	n/a	n/a	23	9	3	4	2
3161086	PROB	n/a	LTP385	ltpFR2	0	n/a	n/a	n/a	23	14	7	3	4
3163036	PROB	n/a	LTP385	ltpFR2	0	n/a	n/a	n/a	23	18	8	2	9
3165786	PROB	n/a	LTP385	ltpFR2	0	n/a	n/a	n/a	23	23	9	8	6
3172720	STOP	n/a	LTP385	ltpFR2	0	n/a	n/a	n/a	23	n/a	n/a	n/a	n/a
3174653	REC_START	n/a	LTP385	ltpFR2	0	15	n/a	n/a	n/a	n/a	0	0	0
3176900	REC_WORD	wordpools/wasnorm_wordpool_576.txt	LTP385	ltpFR2	0	15	HIKER	708	n/a	n/a	0	0	0
3178702	REC_WORD	wordpools/wasnorm_wordpool_576.txt	LTP385	ltpFR2	0	15	ARCTIC	-1	n/a	n/a	0	0	0
3180271	REC_WORD	wordpools/wasnorm_wordpool_576.txt	LTP385	ltpFR2	0	15	SPACE	1345	n/a	n/a	0	0	0
3183441	REC_WORD	wordpools/wasnorm_wordpool_576.txt	LTP385	ltpFR2	0	15	COD	340	n/a	n/a	0	0	0
3193465	REC_WORD	wordpools/wasnorm_wordpool_576.txt	LTP385	ltpFR2	0	15	SALAD	1224	n/a	n/a	0	0	0
3194714	REC_WORD	wordpools/wasnorm_wordpool_576.txt	LTP385	ltpFR2	0	15	FRUIT	610	n/a	n/a	0	0	0
3198375	REC_WORD	wordpools/wasnorm_wordpool_576.txt	LTP385	ltpFR2	0	15	TOUT	-1	n/a	n/a	0	0	0
3201433	REC_WORD	wordpools/wasnorm_wordpool_576.txt	LTP385	ltpFR2	0	15	TROUT	1511	n/a	n/a	0	0	0
3209888	REC_WORD	wordpools/wasnorm_wordpool_576.txt	LTP385	ltpFR2	0	15	WOMAN	1620	n/a	n/a	0	0	0
3210838	REC_WORD	wordpools/wasnorm_wordpool_576.txt	LTP385	ltpFR2	0	15	TYPER	-1	n/a	n/a	0	0	0
3212748	REC_WORD	wordpools/wasnorm_wordpool_576.txt	LTP385	ltpFR2	0	15	JURY	766	n/a	n/a	0	0	0
3220796	REC_WORD	wordpools/wasnorm_wordpool_576.txt	LTP385	ltpFR2	0	15	CLIMB	-1	n/a	n/a	0	0	0
3265118	WORD	wordpools/wasnorm_wordpool_576.txt	LTP385	ltpFR2	0	16	VELVET	1555	n/a	n/a	0	0	0
3267567	WORD	wordpools/wasnorm_wordpool_576.txt	LTP385	ltpFR2	0	16	SILK	1307	n/a	n/a	0	0	0
3270334	WORD	wordpools/wasnorm_wordpool_576.txt	LTP385	ltpFR2	0	16	TURNIP	1521	n/a	n/a	0	0	0
3272801	WORD	wordpools/wasnorm_wordpool_576.txt	LTP385	ltpFR2	0	16	MAMMAL	861	n/a	n/a	0	0	0
3275400	WORD	wordpools/wasnorm_wordpool_576.txt	LTP385	ltpFR2	0	16	BROOK	177	n/a	n/a	0	0	0
3278018	WORD	wordpools/wasnorm_wordpool_576.txt	LTP385	ltpFR2	0	16	FINGER	567	n/a	n/a	0	0	0
3280517	WORD	wordpools/wasnorm_wordpool_576.txt	LTP385	ltpFR2	0	16	BURGLAR	200	n/a	n/a	0	0	0
3283217	WORD	wordpools/wasnorm_wordpool_576.txt	LTP385	ltpFR2	0	16	GANGSTER	620	n/a	n/a	0	0	0
3285868	WORD	wordpools/wasnorm_wordpool_576.txt	LTP385	ltpFR2	0	16	HAND	683	n/a	n/a	0	0	0
3288467	WORD	wordpools/wasnorm_wordpool_576.txt	LTP385	ltpFR2	0	16	NAPKIN	937	n/a	n/a	0	0	0
3291184	WORD	wordpools/wasnorm_wordpool_576.txt	LTP385	ltpFR2	0	16	FIREMAN	569	n/a	n/a	0	0	0
3293917	WORD	wordpools/wasnorm_wordpool_576.txt	LTP385	ltpFR2	0	16	RABBIT	1152	n/a	n/a	0	0	0
3296533	WORD	wordpools/wasnorm_wordpool_576.txt	LTP385	ltpFR2	0	16	DRILL	497	n/a	n/a	0	0	0
3299316	WORD	wordpools/wasnorm_wordpool_576.txt	LTP385	ltpFR2	0	16	SCARECROW	1245	n/a	n/a	0	0	0
3301884	WORD	wordpools/wasnorm_wordpool_576.txt	LTP385	ltpFR2	0	16	PISTOL	1075	n/a	n/a	0	0	0
3304617	WORD	wordpools/wasnorm_wordpool_576.txt	LTP385	ltpFR2	0	16	BROTHER	179	n/a	n/a	0	0	0
3307084	WORD	wordpools/wasnorm_wordpool_576.txt	LTP385	ltpFR2	0	16	VICTIM	1562	n/a	n/a	0	0	0
3309684	WORD	wordpools/wasnorm_wordpool_576.txt	LTP385	ltpFR2	0	16	CAPTIVE	240	n/a	n/a	0	0	0
3312117	WORD	wordpools/wasnorm_wordpool_576.txt	LTP385	ltpFR2	0	16	MATCH	878	n/a	n/a	0	0	0
3314917	WORD	wordpools/wasnorm_wordpool_576.txt	LTP385	ltpFR2	0	16	BRAKE	166	n/a	n/a	0	0	0
3317566	WORD	wordpools/wasnorm_wordpool_576.txt	LTP385	ltpFR2	0	16	BLOCKADE	137	n/a	n/a	0	0	0
3320084	WORD	wordpools/wasnorm_wordpool_576.txt	LTP385	ltpFR2	0	16	CHIPMUNK	304	n/a	n/a	0	0	0
3322584	WORD	wordpools/wasnorm_wordpool_576.txt	LTP385	ltpFR2	0	16	GARLIC	624	n/a	n/a	0	0	0
3325084	WORD	wordpools/wasnorm_wordpool_576.txt	LTP385	ltpFR2	0	16	BARLEY	88	n/a	n/a	0	0	0
3326701	START	n/a	LTP385	ltpFR2	0	n/a	n/a	n/a	24	n/a	n/a	n/a	n/a
3327899	DISTRACTOR	n/a	LTP385	ltpFR2	0	16	n/a	n/a	n/a	n/a	0	0	0
3327917	PROB	n/a	LTP385	ltpFR2	0	n/a	n/a	n/a	24	19	9	1	9
3330249	PROB	n/a	LTP385	ltpFR2	0	n/a	n/a	n/a	24	12	9	1	2
3332683	PROB	n/a	LTP385	ltpFR2	0	n/a	n/a	n/a	24	14	3	3	8
3335867	PROB	n/a	LTP385	ltpFR2	0	n/a	n/a	n/a	24	9	1	4	4
3338967	PROB	n/a	LTP385	ltpFR2	0	n/a	n/a	n/a	24	19	5	5	9
3342883	PROB	n/a	LTP385	ltpFR2	0	n/a	n/a	n/a	24	12	2	6	4
3345366	PROB	n/a	LTP385	ltpFR2	0	n/a	n/a	n/a	24	17	6	2	9
3350701	STOP	n/a	LTP385	ltpFR2	0	n/a	n/a	n/a	24	n/a	n/a	n/a	n/a
3352617	REC_START	n/a	LTP385	ltpFR2	0	16	n/a	n/a	n/a	n/a	0	0	0
3355766	REC_WORD	wordpools/wasnorm_wordpool_576.txt	LTP385	ltpFR2	0	16	BURGLAR	200	n/a	n/a	0	0	0
3358864	REC_WORD	wordpools/wasnorm_wordpool_576.txt	LTP385	ltpFR2	0	16	SCARECROW	1245	n/a	n/a	0	0	0
3364349	REC_WORD	wordpools/wasnorm_wordpool_576.txt	LTP385	ltpFR2	0	16	SCREWDRIVER	1255	n/a	n/a	0	0	0
3365948	REC_WORD	wordpools/wasnorm_wordpool_576.txt	LTP385	ltpFR2	0	16	GUN	673	n/a	n/a	0	0	0
3367664	REC_WORD	wordpools/wasnorm_wordpool_576.txt	LTP385	ltpFR2	0	16	BROTHER	179	n/a	n/a	0	0	0
3368810	REC_WORD	wordpools/wasnorm_wordpool_576.txt	LTP385	ltpFR2	0	16	VICTIM	1562	n/a	n/a	0	0	0
3378379	REC_WORD	wordpools/wasnorm_wordpool_576.txt	LTP385	ltpFR2	0	16	SILK	1307	n/a	n/a	0	0	0
3380350	REC_WORD	wordpools/wasnorm_wordpool_576.txt	LTP385	ltpFR2	0	16	TURNIP	1521	n/a	n/a	0	0	0
3381697	REC_WORD	wordpools/wasnorm_wordpool_576.txt	LTP385	ltpFR2	0	16	VELVET	1555	n/a	n/a	0	0	0
3384302	REC_WORD	wordpools/wasnorm_wordpool_576.txt	LTP385	ltpFR2	0	16	GARLIC	624	n/a	n/a	0	0	0
3400009	REC_WORD	wordpools/wasnorm_wordpool_576.txt	LTP385	ltpFR2	0	16	HAND	683	n/a	n/a	0	0	0
3429149	REST_REWET	n/a	LTP385	ltpFR2	0	16	n/a	n/a	n/a	n/a	0	0	0
3486547	WORD	wordpools/wasnorm_wordpool_576.txt	LTP385	ltpFR2	0	17	SWORD	1423	n/a	n/a	0	0	0
3489031	WORD	wordpools/wasnorm_wordpool_576.txt	LTP385	ltpFR2	0	17	SCALPEL	1243	n/a	n/a	0	0	0
3491513	WORD	wordpools/wasnorm_wordpool_576.txt	LTP385	ltpFR2	0	17	CRAYON	401	n/a	n/a	0	0	0
3494081	WORD	wordpools/wasnorm_wordpool_576.txt	LTP385	ltpFR2	0	17	CREVICE	405	n/a	n/a	0	0	0
3496881	WORD	wordpools/wasnorm_wordpool_576.txt	LTP385	ltpFR2	0	17	SERVANT	1271	n/a	n/a	0	0	0
3499363	WORD	wordpools/wasnorm_wordpool_576.txt	LTP385	ltpFR2	0	17	PUPIL	1143	n/a	n/a	0	0	0
3502014	WORD	wordpools/wasnorm_wordpool_576.txt	LTP385	ltpFR2	0	17	COURSE	390	n/a	n/a	0	0	0
3504664	WORD	wordpools/wasnorm_wordpool_576.txt	LTP385	ltpFR2	0	17	PARROT	1015	n/a	n/a	0	0	0
3507430	WORD	wordpools/wasnorm_wordpool_576.txt	LTP385	ltpFR2	0	17	STALLION	1369	n/a	n/a	0	0	0
3510181	WORD	wordpools/wasnorm_wordpool_576.txt	LTP385	ltpFR2	0	17	TRIBE	1505	n/a	n/a	0	0	0
3512681	WORD	wordpools/wasnorm_wordpool_576.txt	LTP385	ltpFR2	0	17	SPARROW	1347	n/a	n/a	0	0	0
3515131	WORD	wordpools/wasnorm_wordpool_576.txt	LTP385	ltpFR2	0	17	NOMAD	955	n/a	n/a	0	0	0
3517747	WORD	wordpools/wasnorm_wordpool_576.txt	LTP385	ltpFR2	0	17	INFANT	737	n/a	n/a	0	0	0
3520330	WORD	wordpools/wasnorm_wordpool_576.txt	LTP385	ltpFR2	0	17	DRAGON	492	n/a	n/a	0	0	0
3522947	WORD	wordpools/wasnorm_wordpool_576.txt	LTP385	ltpFR2	0	17	BUGGY	188	n/a	n/a	0	0	0
3525496	WORD	wordpools/wasnorm_wordpool_576.txt	LTP385	ltpFR2	0	17	LADDER	793	n/a	n/a	0	0	0
3528164	WORD	wordpools/wasnorm_wordpool_576.txt	LTP385	ltpFR2	0	17	PATROL	1027	n/a	n/a	0	0	0
3530697	WORD	wordpools/wasnorm_wordpool_576.txt	LTP385	ltpFR2	0	17	POLICE	1098	n/a	n/a	0	0	0
3533429	WORD	wordpools/wasnorm_wordpool_576.txt	LTP385	ltpFR2	0	17	PIGEON	1065	n/a	n/a	0	0	0
3536081	WORD	wordpools/wasnorm_wordpool_576.txt	LTP385	ltpFR2	0	17	LAMP	798	n/a	n/a	0	0	0
3538730	WORD	wordpools/wasnorm_wordpool_576.txt	LTP385	ltpFR2	0	17	STAKE	1368	n/a	n/a	0	0	0
3541379	WORD	wordpools/wasnorm_wordpool_576.txt	LTP385	ltpFR2	0	17	PLAID	1080	n/a	n/a	0	0	0
3543997	WORD	wordpools/wasnorm_wordpool_576.txt	LTP385	ltpFR2	0	17	COIN	343	n/a	n/a	0	0	0
3546730	WORD	wordpools/wasnorm_wordpool_576.txt	LTP385	ltpFR2	0	17	LASER	801	n/a	n/a	0	0	0
3548346	START	n/a	LTP385	ltpFR2	0	n/a	n/a	n/a	25	n/a	n/a	n/a	n/a
3549534	DISTRACTOR	n/a	LTP385	ltpFR2	0	17	n/a	n/a	n/a	n/a	0	0	0
3549546	PROB	n/a	LTP385	ltpFR2	0	n/a	n/a	n/a	25	8	3	1	4
3554063	PROB	n/a	LTP385	ltpFR2	0	n/a	n/a	n/a	25	22	7	6	9
3560063	PROB	n/a	LTP385	ltpFR2	0	n/a	n/a	n/a	25	13	3	5	5
3561930	PROB	n/a	LTP385	ltpFR2	0	n/a	n/a	n/a	25	12	8	2	2
3565663	PROB	n/a	LTP385	ltpFR2	0	n/a	n/a	n/a	25	17	3	9	5
3568880	PROB	n/a	LTP385	ltpFR2	0	n/a	n/a	n/a	25	15	5	6	4
3571092	STOP	n/a	LTP385	ltpFR2	0	n/a	n/a	n/a	25	n/a	n/a	n/a	n/a
3574114	REC_START	n/a	LTP385	ltpFR2	0	17	n/a	n/a	n/a	n/a	0	0	0
3575596	REC_WORD	wordpools/wasnorm_wordpool_576.txt	LTP385	ltpFR2	0	17	PARROT	1015	n/a	n/a	0	0	0
3576613	REC_WORD	wordpools/wasnorm_wordpool_576.txt	LTP385	ltpFR2	0	17	SWORD	1423	n/a	n/a	0	0	0
3577904	REC_WORD	wordpools/wasnorm_wordpool_576.txt	LTP385	ltpFR2	0	17	SCALPEL	1243	n/a	n/a	0	0	0
3580295	REC_WORD	wordpools/wasnorm_wordpool_576.txt	LTP385	ltpFR2	0	17	HORSEMAN	-1	n/a	n/a	0	0	0
3584605	REC_WORD	wordpools/wasnorm_wordpool_576.txt	LTP385	ltpFR2	0	17	PATROL	1027	n/a	n/a	0	0	0
3585341	REC_WORD	wordpools/wasnorm_wordpool_576.txt	LTP385	ltpFR2	0	17	POLICE	1098	n/a	n/a	0	0	0
3590780	REC_WORD	wordpools/wasnorm_wordpool_576.txt	LTP385	ltpFR2	0	17	DRAGON	492	n/a	n/a	0	0	0
3664544	DISTRACTOR	n/a	LTP385	ltpFR2	0	18	n/a	n/a	n/a	n/a	0	0	0
3664544	START	n/a	LTP385	ltpFR2	0	n/a	n/a	n/a	26	n/a	n/a	n/a	n/a
3664561	PROB	n/a	LTP385	ltpFR2	0	n/a	n/a	n/a	26	14	6	5	3
3670361	PROB	n/a	LTP385	ltpFR2	0	n/a	n/a	n/a	26	9	5	2	2
3673195	PROB	n/a	LTP385	ltpFR2	0	n/a	n/a	n/a	26	11	4	6	1
3675045	PROB	n/a	LTP385	ltpFR2	0	n/a	n/a	n/a	26	18	8	1	9
3677095	PROB	n/a	LTP385	ltpFR2	0	n/a	n/a	n/a	26	14	6	4	4
3679728	PROB	n/a	LTP385	ltpFR2	0	n/a	n/a	n/a	26	11	6	3	2
3682244	PROB	n/a	LTP385	ltpFR2	0	n/a	n/a	n/a	26	10	5	4	1
3684695	PROB	n/a	LTP385	ltpFR2	0	n/a	n/a	n/a	26	19	7	3	9
3687616	STOP	n/a	LTP385	ltpFR2	0	n/a	n/a	n/a	26	n/a	n/a	n/a	n/a
3689477	WORD	wordpools/wasnorm_wordpool_576.txt	LTP385	ltpFR2	0	18	GRILL	661	n/a	n/a	0	0	0
3692277	WORD	wordpools/wasnorm_wordpool_576.txt	LTP385	ltpFR2	0	18	RACKET	1155	n/a	n/a	0	0	0
3694778	WORD	wordpools/wasnorm_wordpool_576.txt	LTP385	ltpFR2	0	18	ROOSTER	1209	n/a	n/a	0	0	0
3697260	WORD	wordpools/wasnorm_wordpool_576.txt	LTP385	ltpFR2	0	18	BABY	64	n/a	n/a	0	0	0
3699728	WORD	wordpools/wasnorm_wordpool_576.txt	LTP385	ltpFR2	0	18	LABEL	790	n/a	n/a	0	0	0
3702178	WORD	wordpools/wasnorm_wordpool_576.txt	LTP385	ltpFR2	0	18	VENUS	1557	n/a	n/a	0	0	0
3704695	WORD	wordpools/wasnorm_wordpool_576.txt	LTP385	ltpFR2	0	18	SLOPE	1328	n/a	n/a	0	0	0
3707227	WORD	wordpools/wasnorm_wordpool_576.txt	LTP385	ltpFR2	0	18	UMPIRE	1535	n/a	n/a	0	0	0
3709878	WORD	wordpools/wasnorm_wordpool_576.txt	LTP385	ltpFR2	0	18	DRESSER	496	n/a	n/a	0	0	0
3712543	WORD	wordpools/wasnorm_wordpool_576.txt	LTP385	ltpFR2	0	18	BULLET	194	n/a	n/a	0	0	0
3715161	WORD	wordpools/wasnorm_wordpool_576.txt	LTP385	ltpFR2	0	18	DENIM	446	n/a	n/a	0	0	0
3717711	WORD	wordpools/wasnorm_wordpool_576.txt	LTP385	ltpFR2	0	18	SLIME	1327	n/a	n/a	0	0	0
3720243	WORD	wordpools/wasnorm_wordpool_576.txt	LTP385	ltpFR2	0	18	GOBLIN	645	n/a	n/a	0	0	0
3722678	WORD	wordpools/wasnorm_wordpool_576.txt	LTP385	ltpFR2	0	18	BANJO	82	n/a	n/a	0	0	0
3725111	WORD	wordpools/wasnorm_wordpool_576.txt	LTP385	ltpFR2	0	18	CRICKET	408	n/a	n/a	0	0	0
3727728	WORD	wordpools/wasnorm_wordpool_576.txt	LTP385	ltpFR2	0	18	SUMMIT	1405	n/a	n/a	0	0	0
3730177	WORD	wordpools/wasnorm_wordpool_576.txt	LTP385	ltpFR2	0	18	PENGUIN	1044	n/a	n/a	0	0	0
3732911	WORD	wordpools/wasnorm_wordpool_576.txt	LTP385	ltpFR2	0	18	EAGLE	512	n/a	n/a	0	0	0
3735661	WORD	wordpools/wasnorm_wordpool_576.txt	LTP385	ltpFR2	0	18	BEEF	113	n/a	n/a	0	0	0
3738426	WORD	wordpools/wasnorm_wordpool_576.txt	LTP385	ltpFR2	0	18	ARM	38	n/a	n/a	0	0	0
3740944	WORD	wordpools/wasnorm_wordpool_576.txt	LTP385	ltpFR2	0	18	SKIRT	1319	n/a	n/a	0	0	0
3743577	WORD	wordpools/wasnorm_wordpool_576.txt	LTP385	ltpFR2	0	18	ZEBRA	1635	n/a	n/a	0	0	0
3746044	WORD	wordpools/wasnorm_wordpool_576.txt	LTP385	ltpFR2	0	18	DONKEY	484	n/a	n/a	0	0	0
3748560	WORD	wordpools/wasnorm_wordpool_576.txt	LTP385	ltpFR2	0	18	BREAST	171	n/a	n/a	0	0	0
3750177	START	n/a	LTP385	ltpFR2	0	n/a	n/a	n/a	27	n/a	n/a	n/a	n/a
3751374	DISTRACTOR	n/a	LTP385	ltpFR2	0	18	n/a	n/a	n/a	n/a	0	0	0
3751376	PROB	n/a	LTP385	ltpFR2	0	n/a	n/a	n/a	27	17	3	8	6
3755694	PROB	n/a	LTP385	ltpFR2	0	n/a	n/a	n/a	27	22	9	4	9
3758393	PROB	n/a	LTP385	ltpFR2	0	n/a	n/a	n/a	27	25	8	9	8
3763860	PROB	n/a	LTP385	ltpFR2	0	n/a	n/a	n/a	27	18	6	5	7
3768127	PROB	n/a	LTP385	ltpFR2	0	n/a	n/a	n/a	27	6	2	1	3
3774177	STOP	n/a	LTP385	ltpFR2	0	n/a	n/a	n/a	27	n/a	n/a	n/a	n/a
3776111	REC_START	n/a	LTP385	ltpFR2	0	18	n/a	n/a	n/a	n/a	0	0	0
3778828	REC_WORD	wordpools/wasnorm_wordpool_576.txt	LTP385	ltpFR2	0	18	DRESSER	496	n/a	n/a	0	0	0
3866541	DISTRACTOR	n/a	LTP385	ltpFR2	0	19	n/a	n/a	n/a	n/a	0	0	0
3866541	START	n/a	LTP385	ltpFR2	0	n/a	n/a	n/a	28	n/a	n/a	n/a	n/a
3866558	PROB	n/a	LTP385	ltpFR2	0	n/a	n/a	n/a	28	13	6	4	3
3869025	PROB	n/a	LTP385	ltpFR2	0	n/a	n/a	n/a	28	24	9	9	6
3872241	PROB	n/a	LTP385	ltpFR2	0	n/a	n/a	n/a	28	17	5	6	6
3875609	PROB	n/a	LTP385	ltpFR2	0	n/a	n/a	n/a	28	5	2	2	1
3877025	PROB	n/a	LTP385	ltpFR2	0	n/a	n/a	n/a	28	11	6	1	4
3878742	PROB	n/a	LTP385	ltpFR2	0	n/a	n/a	n/a	28	15	2	4	9
3882075	PROB	n/a	LTP385	ltpFR2	0	n/a	n/a	n/a	28	17	3	4	8
3885324	PROB	n/a	LTP385	ltpFR2	0	n/a	n/a	n/a	28	7	4	1	2
3887992	PROB	n/a	LTP385	ltpFR2	0	n/a	n/a	n/a	28	18	3	9	6
3890166	STOP	n/a	LTP385	ltpFR2	0	n/a	n/a	n/a	28	n/a	n/a	n/a	n/a
3891491	WORD	wordpools/wasnorm_wordpool_576.txt	LTP385	ltpFR2	0	19	RIVER	1194	n/a	n/a	0	0	0
3894058	WORD	wordpools/wasnorm_wordpool_576.txt	LTP385	ltpFR2	0	19	LODGE	839	n/a	n/a	0	0	0
3896825	WORD	wordpools/wasnorm_wordpool_576.txt	LTP385	ltpFR2	0	19	OYSTER	995	n/a	n/a	0	0	0
3899557	WORD	wordpools/wasnorm_wordpool_576.txt	LTP385	ltpFR2	0	19	PLASTER	1085	n/a	n/a	0	0	0
3902175	WORD	wordpools/wasnorm_wordpool_576.txt	LTP385	ltpFR2	0	19	LONDON	843	n/a	n/a	0	0	0
3904908	WORD	wordpools/wasnorm_wordpool_576.txt	LTP385	ltpFR2	0	19	PECAN	1036	n/a	n/a	0	0	0
3907591	WORD	wordpools/wasnorm_wordpool_576.txt	LTP385	ltpFR2	0	19	TABLE	1426	n/a	n/a	0	0	0
3910307	WORD	wordpools/wasnorm_wordpool_576.txt	LTP385	ltpFR2	0	19	TRANSPLANT	1496	n/a	n/a	0	0	0
3913108	WORD	wordpools/wasnorm_wordpool_576.txt	LTP385	ltpFR2	0	19	PLATE	1086	n/a	n/a	0	0	0
3915675	WORD	wordpools/wasnorm_wordpool_576.txt	LTP385	ltpFR2	0	19	SHELTER	1282	n/a	n/a	0	0	0
3918490	WORD	wordpools/wasnorm_wordpool_576.txt	LTP385	ltpFR2	0	19	PEPPER	1047	n/a	n/a	0	0	0
3920974	WORD	wordpools/wasnorm_wordpool_576.txt	LTP385	ltpFR2	0	19	COOKBOOK	373	n/a	n/a	0	0	0
3923490	WORD	wordpools/wasnorm_wordpool_576.txt	LTP385	ltpFR2	0	19	CAMEL	223	n/a	n/a	0	0	0
3925974	WORD	wordpools/wasnorm_wordpool_576.txt	LTP385	ltpFR2	0	19	POWDER	1117	n/a	n/a	0	0	0
3928674	WORD	wordpools/wasnorm_wordpool_576.txt	LTP385	ltpFR2	0	19	TWIG	1527	n/a	n/a	0	0	0
3931440	WORD	wordpools/wasnorm_wordpool_576.txt	LTP385	ltpFR2	0	19	PUDDLE	1140	n/a	n/a	0	0	0
3933924	WORD	wordpools/wasnorm_wordpool_576.txt	LTP385	ltpFR2	0	19	SUNSET	1408	n/a	n/a	0	0	0
3936574	WORD	wordpools/wasnorm_wordpool_576.txt	LTP385	ltpFR2	0	19	WHISTLE	1606	n/a	n/a	0	0	0
3939174	WORD	wordpools/wasnorm_wordpool_576.txt	LTP385	ltpFR2	0	19	FIREPLACE	570	n/a	n/a	0	0	0
3941624	WORD	wordpools/wasnorm_wordpool_576.txt	LTP385	ltpFR2	0	19	MESSAGE	888	n/a	n/a	0	0	0
3944240	WORD	wordpools/wasnorm_wordpool_576.txt	LTP385	ltpFR2	0	19	MOTEL	919	n/a	n/a	0	0	0
3947024	WORD	wordpools/wasnorm_wordpool_576.txt	LTP385	ltpFR2	0	19	POET	1095	n/a	n/a	0	0	0
3949657	WORD	wordpools/wasnorm_wordpool_576.txt	LTP385	ltpFR2	0	19	ACTOR	5	n/a	n/a	0	0	0
3952340	WORD	wordpools/wasnorm_wordpool_576.txt	LTP385	ltpFR2	0	19	ACTRESS	6	n/a	n/a	0	0	0
3953958	START	n/a	LTP385	ltpFR2	0	n/a	n/a	n/a	29	n/a	n/a	n/a	n/a
3955015	DISTRACTOR	n/a	LTP385	ltpFR2	0	19	n/a	n/a	n/a	n/a	0	0	0
3955041	PROB	n/a	LTP385	ltpFR2	0	n/a	n/a	n/a	29	13	5	3	5
3961741	PROB	n/a	LTP385	ltpFR2	0	n/a	n/a	n/a	29	11	4	3	4
3966473	PROB	n/a	LTP385	ltpFR2	0	n/a	n/a	n/a	29	7	2	2	3
3969523	PROB	n/a	LTP385	ltpFR2	0	n/a	n/a	n/a	29	19	7	3	9
3971323	PROB	n/a	LTP385	ltpFR2	0	n/a	n/a	n/a	29	15	7	6	2
3977958	STOP	n/a	LTP385	ltpFR2	0	n/a	n/a	n/a	29	n/a	n/a	n/a	n/a
3979824	REC_START	n/a	LTP385	ltpFR2	0	19	n/a	n/a	n/a	n/a	0	0	0
3980624	REC_WORD	wordpools/wasnorm_wordpool_576.txt	LTP385	ltpFR2	0	19	ACTOR	5	n/a	n/a	0	0	0
3981230	REC_WORD	wordpools/wasnorm_wordpool_576.txt	LTP385	ltpFR2	0	19	ACTRESS	6	n/a	n/a	0	0	0
3981894	REC_WORD	wordpools/wasnorm_wordpool_576.txt	LTP385	ltpFR2	0	19	POET	1095	n/a	n/a	0	0	0
3983247	REC_WORD	wordpools/wasnorm_wordpool_576.txt	LTP385	ltpFR2	0	19	RIVER	1194	n/a	n/a	0	0	0
3983875	REC_WORD	wordpools/wasnorm_wordpool_576.txt	LTP385	ltpFR2	0	19	LONDON	843	n/a	n/a	0	0	0
3985725	REC_WORD	wordpools/wasnorm_wordpool_576.txt	LTP385	ltpFR2	0	19	SHELTER	1282	n/a	n/a	0	0	0
3987087	REC_WORD	wordpools/wasnorm_wordpool_576.txt	LTP385	ltpFR2	0	19	MESSAGE	888	n/a	n/a	0	0	0
3987940	REC_WORD	wordpools/wasnorm_wordpool_576.txt	LTP385	ltpFR2	0	19	FIREPLACE	570	n/a	n/a	0	0	0
3993373	REC_WORD	wordpools/wasnorm_wordpool_576.txt	LTP385	ltpFR2	0	19	PEPPER	1047	n/a	n/a	0	0	0
4070254	DISTRACTOR	n/a	LTP385	ltpFR2	0	20	n/a	n/a	n/a	n/a	0	0	0
4070255	START	n/a	LTP385	ltpFR2	0	n/a	n/a	n/a	30	n/a	n/a	n/a	n/a
4070271	PROB	n/a	LTP385	ltpFR2	0	n/a	n/a	n/a	30	21	6	9	6
4073254	PROB	n/a	LTP385	ltpFR2	0	n/a	n/a	n/a	30	22	9	4	9
4077089	PROB	n/a	LTP385	ltpFR2	0	n/a	n/a	n/a	30	16	9	3	4
4080554	PROB	n/a	LTP385	ltpFR2	0	n/a	n/a	n/a	30	14	3	5	6
4082989	PROB	n/a	LTP385	ltpFR2	0	n/a	n/a	n/a	30	8	2	3	3
4085039	PROB	n/a	LTP385	ltpFR2	0	n/a	n/a	n/a	30	16	4	9	3
4088304	PROB	n/a	LTP385	ltpFR2	0	n/a	n/a	n/a	30	17	8	7	2
4094255	STOP	n/a	LTP385	ltpFR2	0	n/a	n/a	n/a	30	n/a	n/a	n/a	n/a
4095089	WORD	wordpools/wasnorm_wordpool_576.txt	LTP385	ltpFR2	0	20	FARMER	553	n/a	n/a	0	0	0
4097888	WORD	wordpools/wasnorm_wordpool_576.txt	LTP385	ltpFR2	0	20	DIVER	476	n/a	n/a	0	0	0
4100454	WORD	wordpools/wasnorm_wordpool_576.txt	LTP385	ltpFR2	0	20	GUARD	667	n/a	n/a	0	0	0
4102938	WORD	wordpools/wasnorm_wordpool_576.txt	LTP385	ltpFR2	0	20	BADGE	68	n/a	n/a	0	0	0
4105421	WORD	wordpools/wasnorm_wordpool_576.txt	LTP385	ltpFR2	0	20	ASIA	46	n/a	n/a	0	0	0
4108022	WORD	wordpools/wasnorm_wordpool_576.txt	LTP385	ltpFR2	0	20	FRIEND	606	n/a	n/a	0	0	0
4110655	WORD	wordpools/wasnorm_wordpool_576.txt	LTP385	ltpFR2	0	20	LOVER	846	n/a	n/a	0	0	0
4113387	WORD	wordpools/wasnorm_wordpool_576.txt	LTP385	ltpFR2	0	20	GHETTO	633	n/a	n/a	0	0	0
4115871	WORD	wordpools/wasnorm_wordpool_576.txt	LTP385	ltpFR2	0	20	ZIPPER	1636	n/a	n/a	0	0	0
4118671	WORD	wordpools/wasnorm_wordpool_576.txt	LTP385	ltpFR2	0	20	TURKEY	1520	n/a	n/a	0	0	0
4121370	WORD	wordpools/wasnorm_wordpool_576.txt	LTP385	ltpFR2	0	20	NOTEBOOK	959	n/a	n/a	0	0	0
4123790	WORD	wordpools/wasnorm_wordpool_576.txt	LTP385	ltpFR2	0	20	MACHINE	852	n/a	n/a	0	0	0
4126588	WORD	wordpools/wasnorm_wordpool_576.txt	LTP385	ltpFR2	0	20	SHOVEL	1295	n/a	n/a	0	0	0
4129171	WORD	wordpools/wasnorm_wordpool_576.txt	LTP385	ltpFR2	0	20	PIZZA	1079	n/a	n/a	0	0	0
4131789	WORD	wordpools/wasnorm_wordpool_576.txt	LTP385	ltpFR2	0	20	HORSE	719	n/a	n/a	0	0	0
4134237	WORD	wordpools/wasnorm_wordpool_576.txt	LTP385	ltpFR2	0	20	OMELET	976	n/a	n/a	0	0	0
4136921	WORD	wordpools/wasnorm_wordpool_576.txt	LTP385	ltpFR2	0	20	PARSLEY	1016	n/a	n/a	0	0	0
4139470	WORD	wordpools/wasnorm_wordpool_576.txt	LTP385	ltpFR2	0	20	KITCHEN	778	n/a	n/a	0	0	0
4142021	WORD	wordpools/wasnorm_wordpool_576.txt	LTP385	ltpFR2	0	20	WIFE	1609	n/a	n/a	0	0	0
4144638	WORD	wordpools/wasnorm_wordpool_576.txt	LTP385	ltpFR2	0	20	CHAMPAGNE	278	n/a	n/a	0	0	0
4147437	WORD	wordpools/wasnorm_wordpool_576.txt	LTP385	ltpFR2	0	20	CABBAGE	210	n/a	n/a	0	0	0
4149921	WORD	wordpools/wasnorm_wordpool_576.txt	LTP385	ltpFR2	0	20	BACON	67	n/a	n/a	0	0	0
4152688	WORD	wordpools/wasnorm_wordpool_576.txt	LTP385	ltpFR2	0	20	FRIAR	605	n/a	n/a	0	0	0
4155320	WORD	wordpools/wasnorm_wordpool_576.txt	LTP385	ltpFR2	0	20	BUBBLE	183	n/a	n/a	0	0	0
4156921	START	n/a	LTP385	ltpFR2	0	n/a	n/a	n/a	31	n/a	n/a	n/a	n/a
4157839	DISTRACTOR	n/a	LTP385	ltpFR2	0	20	n/a	n/a	n/a	n/a	0	0	0
4157854	PROB	n/a	LTP385	ltpFR2	0	n/a	n/a	n/a	31	16	9	4	3
4161771	PROB	n/a	LTP385	ltpFR2	0	n/a	n/a	n/a	31	12	8	1	3
4164037	PROB	n/a	LTP385	ltpFR2	0	n/a	n/a	n/a	31	19	6	8	5
4171336	PROB	n/a	LTP385	ltpFR2	0	n/a	n/a	n/a	31	16	7	2	7
4174954	PROB	n/a	LTP385	ltpFR2	0	n/a	n/a	n/a	31	14	3	4	7
4177536	PROB	n/a	LTP385	ltpFR2	0	n/a	n/a	n/a	31	15	5	4	6
4180015	STOP	n/a	LTP385	ltpFR2	0	n/a	n/a	n/a	31	n/a	n/a	n/a	n/a
4182704	REC_START	n/a	LTP385	ltpFR2	0	20	n/a	n/a	n/a	n/a	0	0	0
4185625	REC_WORD	wordpools/wasnorm_wordpool_576.txt	LTP385	ltpFR2	0	20	FRIEND	606	n/a	n/a	0	0	0
4186484	REC_WORD	wordpools/wasnorm_wordpool_576.txt	LTP385	ltpFR2	0	20	LOVER	846	n/a	n/a	0	0	0
4188835	REC_WORD	wordpools/wasnorm_wordpool_576.txt	LTP385	ltpFR2	0	20	GHETTO	633	n/a	n/a	0	0	0
4190223	REC_WORD	wordpools/wasnorm_wordpool_576.txt	LTP385	ltpFR2	0	20	CHAMPAGNE	278	n/a	n/a	0	0	0
4192236	REC_WORD	wordpools/wasnorm_wordpool_576.txt	LTP385	ltpFR2	0	20	BUBBLE	183	n/a	n/a	0	0	0
4195340	REC_WORD	wordpools/wasnorm_wordpool_576.txt	LTP385	ltpFR2	0	20	FARMER	553	n/a	n/a	0	0	0
4197236	REC_WORD	wordpools/wasnorm_wordpool_576.txt	LTP385	ltpFR2	0	20	PROTECTOR	-1	n/a	n/a	0	0	0
4199171	REC_WORD	wordpools/wasnorm_wordpool_576.txt	LTP385	ltpFR2	0	20	DRIVER	499	n/a	n/a	0	0	0
4200628	REC_WORD	wordpools/wasnorm_wordpool_576.txt	LTP385	ltpFR2	0	20	BADGE	68	n/a	n/a	0	0	0
4204369	REC_WORD_VV	wordpools/wasnorm_wordpool_576.txt	LTP385	ltpFR2	0	20	<>	-1	n/a	n/a	0	0	0
4210085	REC_WORD	wordpools/wasnorm_wordpool_576.txt	LTP385	ltpFR2	0	20	LETTUCE	814	n/a	n/a	0	0	0
4212266	REC_WORD	wordpools/wasnorm_wordpool_576.txt	LTP385	ltpFR2	0	20	PEPPER	1047	n/a	n/a	0	0	0
4238402	REC_WORD	wordpools/wasnorm_wordpool_576.txt	LTP385	ltpFR2	0	20	POTATO	1115	n/a	n/a	0	0	0
4273152	WORD	wordpools/wasnorm_wordpool_576.txt	LTP385	ltpFR2	0	21	GYMNAST	675	n/a	n/a	0	0	0
4275836	WORD	wordpools/wasnorm_wordpool_576.txt	LTP385	ltpFR2	0	21	CLOCK	325	n/a	n/a	0	0	0
4278268	WORD	wordpools/wasnorm_wordpool_576.txt	LTP385	ltpFR2	0	21	PLAYGROUND	1087	n/a	n/a	0	0	0
4280936	WORD	wordpools/wasnorm_wordpool_576.txt	LTP385	ltpFR2	0	21	TERMITE	1451	n/a	n/a	0	0	0
4283501	WORD	wordpools/wasnorm_wordpool_576.txt	LTP385	ltpFR2	0	21	ONION	977	n/a	n/a	0	0	0
4285952	WORD	wordpools/wasnorm_wordpool_576.txt	LTP385	ltpFR2	0	21	FRAGRANCE	599	n/a	n/a	0	0	0
4288685	WORD	wordpools/wasnorm_wordpool_576.txt	LTP385	ltpFR2	0	21	GRAVEL	659	n/a	n/a	0	0	0
4291301	WORD	wordpools/wasnorm_wordpool_576.txt	LTP385	ltpFR2	0	21	RUST	1219	n/a	n/a	0	0	0
4293852	WORD	wordpools/wasnorm_wordpool_576.txt	LTP385	ltpFR2	0	21	NIGHTGOWN	953	n/a	n/a	0	0	0
4296484	WORD	wordpools/wasnorm_wordpool_576.txt	LTP385	ltpFR2	0	21	CATCHER	258	n/a	n/a	0	0	0
4299119	WORD	wordpools/wasnorm_wordpool_576.txt	LTP385	ltpFR2	0	21	PERFUME	1049	n/a	n/a	0	0	0
4301885	WORD	wordpools/wasnorm_wordpool_576.txt	LTP385	ltpFR2	0	21	PLUTO	1092	n/a	n/a	0	0	0
4304434	WORD	wordpools/wasnorm_wordpool_576.txt	LTP385	ltpFR2	0	21	JUDGE	761	n/a	n/a	0	0	0
4307002	WORD	wordpools/wasnorm_wordpool_576.txt	LTP385	ltpFR2	0	21	RECEIPT	1173	n/a	n/a	0	0	0
4309652	WORD	wordpools/wasnorm_wordpool_576.txt	LTP385	ltpFR2	0	21	CHILD	299	n/a	n/a	0	0	0
4312434	WORD	wordpools/wasnorm_wordpool_576.txt	LTP385	ltpFR2	0	21	CARROT	249	n/a	n/a	0	0	0
4315052	WORD	wordpools/wasnorm_wordpool_576.txt	LTP385	ltpFR2	0	21	FOOTBALL	591	n/a	n/a	0	0	0
4317534	WORD	wordpools/wasnorm_wordpool_576.txt	LTP385	ltpFR2	0	21	TRACTOR	1493	n/a	n/a	0	0	0
4320052	WORD	wordpools/wasnorm_wordpool_576.txt	LTP385	ltpFR2	0	21	BEAKER	104	n/a	n/a	0	0	0
4322668	WORD	wordpools/wasnorm_wordpool_576.txt	LTP385	ltpFR2	0	21	SURVEY	1414	n/a	n/a	0	0	0
4325168	WORD	wordpools/wasnorm_wordpool_576.txt	LTP385	ltpFR2	0	21	SPHINX	1349	n/a	n/a	0	0	0
4327901	WORD	wordpools/wasnorm_wordpool_576.txt	LTP385	ltpFR2	0	21	MUMMY	932	n/a	n/a	0	0	0
4330701	WORD	wordpools/wasnorm_wordpool_576.txt	LTP385	ltpFR2	0	21	MARS	873	n/a	n/a	0	0	0
4333317	WORD	wordpools/wasnorm_wordpool_576.txt	LTP385	ltpFR2	0	21	PARENT	1013	n/a	n/a	0	0	0
4334918	START	n/a	LTP385	ltpFR2	0	n/a	n/a	n/a	32	n/a	n/a	n/a	n/a
4335928	DISTRACTOR	n/a	LTP385	ltpFR2	0	21	n/a	n/a	n/a	n/a	0	0	0
4335935	PROB	n/a	LTP385	ltpFR2	0	n/a	n/a	n/a	32	14	7	3	4
4340517	PROB	n/a	LTP385	ltpFR2	0	n/a	n/a	n/a	32	18	7	8	3
4343101	PROB	n/a	LTP385	ltpFR2	0	n/a	n/a	n/a	32	16	4	4	8
4345951	PROB	n/a	LTP385	ltpFR2	0	n/a	n/a	n/a	32	15	2	7	6
4349151	PROB	n/a	LTP385	ltpFR2	0	n/a	n/a	n/a	32	9	3	1	5
4352450	PROB	n/a	LTP385	ltpFR2	0	n/a	n/a	n/a	32	7	2	4	1
4354634	PROB	n/a	LTP385	ltpFR2	0	n/a	n/a	n/a	32	15	2	6	7
4358004	STOP	n/a	LTP385	ltpFR2	0	n/a	n/a	n/a	32	n/a	n/a	n/a	n/a
4360735	REC_START	n/a	LTP385	ltpFR2	0	21	n/a	n/a	n/a	n/a	0	0	0
4363012	REC_WORD	wordpools/wasnorm_wordpool_576.txt	LTP385	ltpFR2	0	21	TRACTOR	1493	n/a	n/a	0	0	0
4367200	REC_WORD	wordpools/wasnorm_wordpool_576.txt	LTP385	ltpFR2	0	21	MARS	873	n/a	n/a	0	0	0
4370873	REC_WORD	wordpools/wasnorm_wordpool_576.txt	LTP385	ltpFR2	0	21	SATURN	1236	n/a	n/a	0	0	0
4373547	REC_WORD	wordpools/wasnorm_wordpool_576.txt	LTP385	ltpFR2	0	21	ONION	977	n/a	n/a	0	0	0
4374150	REC_WORD	wordpools/wasnorm_wordpool_576.txt	LTP385	ltpFR2	0	21	TERMITE	1451	n/a	n/a	0	0	0
4374908	REC_WORD	wordpools/wasnorm_wordpool_576.txt	LTP385	ltpFR2	0	21	CARROT	249	n/a	n/a	0	0	0
4376004	REC_WORD	wordpools/wasnorm_wordpool_576.txt	LTP385	ltpFR2	0	21	FRAGRANCE	599	n/a	n/a	0	0	0
4383763	REC_WORD	wordpools/wasnorm_wordpool_576.txt	LTP385	ltpFR2	0	21	PERFUME	1049	n/a	n/a	0	0	0
4384992	REC_WORD	wordpools/wasnorm_wordpool_576.txt	LTP385	ltpFR2	0	21	MUMMY	932	n/a	n/a	0	0	0
4388702	REC_WORD	wordpools/wasnorm_wordpool_576.txt	LTP385	ltpFR2	0	21	JUDGE	761	n/a	n/a	0	0	0
4389339	REC_WORD	wordpools/wasnorm_wordpool_576.txt	LTP385	ltpFR2	0	21	CHILD	299	n/a	n/a	0	0	0
4418119	REC_WORD	wordpools/wasnorm_wordpool_576.txt	LTP385	ltpFR2	0	21	RUST	1219	n/a	n/a	0	0	0
4426721	REC_WORD	wordpools/wasnorm_wordpool_576.txt	LTP385	ltpFR2	0	21	GRAVEL	659	n/a	n/a	0	0	0
4451200	WORD	wordpools/wasnorm_wordpool_576.txt	LTP385	ltpFR2	0	22	MEAT	883	n/a	n/a	0	0	0
4453666	WORD	wordpools/wasnorm_wordpool_576.txt	LTP385	ltpFR2	0	22	PIANO	1057	n/a	n/a	0	0	0
4456398	WORD	wordpools/wasnorm_wordpool_576.txt	LTP385	ltpFR2	0	22	HARP	689	n/a	n/a	0	0	0
4459016	WORD	wordpools/wasnorm_wordpool_576.txt	LTP385	ltpFR2	0	22	PEBBLE	1035	n/a	n/a	0	0	0
4461766	WORD	wordpools/wasnorm_wordpool_576.txt	LTP385	ltpFR2	0	22	GUITAR	670	n/a	n/a	0	0	0
4464382	WORD	wordpools/wasnorm_wordpool_576.txt	LTP385	ltpFR2	0	22	RECORD	1176	n/a	n/a	0	0	0
4467166	WORD	wordpools/wasnorm_wordpool_576.txt	LTP385	ltpFR2	0	22	UNCLE	1536	n/a	n/a	0	0	0
4469966	WORD	wordpools/wasnorm_wordpool_576.txt	LTP385	ltpFR2	0	22	PRIMATE	1123	n/a	n/a	0	0	0
4472616	WORD	wordpools/wasnorm_wordpool_576.txt	LTP385	ltpFR2	0	22	DIME	466	n/a	n/a	0	0	0
4475231	WORD	wordpools/wasnorm_wordpool_576.txt	LTP385	ltpFR2	0	22	POCKET	1093	n/a	n/a	0	0	0
4477899	WORD	wordpools/wasnorm_wordpool_576.txt	LTP385	ltpFR2	0	22	LION	827	n/a	n/a	0	0	0
4480532	WORD	wordpools/wasnorm_wordpool_576.txt	LTP385	ltpFR2	0	22	SAUSAGE	1238	n/a	n/a	0	0	0
4483231	WORD	wordpools/wasnorm_wordpool_576.txt	LTP385	ltpFR2	0	22	PORTRAIT	1111	n/a	n/a	0	0	0
4485982	WORD	wordpools/wasnorm_wordpool_576.txt	LTP385	ltpFR2	0	22	EYELASH	546	n/a	n/a	0	0	0
4488799	WORD	wordpools/wasnorm_wordpool_576.txt	LTP385	ltpFR2	0	22	BODY	145	n/a	n/a	0	0	0
4491298	WORD	wordpools/wasnorm_wordpool_576.txt	LTP385	ltpFR2	0	22	KNAPSACK	783	n/a	n/a	0	0	0
4493799	WORD	wordpools/wasnorm_wordpool_576.txt	LTP385	ltpFR2	0	22	CREATURE	403	n/a	n/a	0	0	0
4496565	WORD	wordpools/wasnorm_wordpool_576.txt	LTP385	ltpFR2	0	22	BEAVER	109	n/a	n/a	0	0	0
4499032	WORD	wordpools/wasnorm_wordpool_576.txt	LTP385	ltpFR2	0	22	BOARD	143	n/a	n/a	0	0	0
4501582	WORD	wordpools/wasnorm_wordpool_576.txt	LTP385	ltpFR2	0	22	TUNNEL	1519	n/a	n/a	0	0	0
4504165	WORD	wordpools/wasnorm_wordpool_576.txt	LTP385	ltpFR2	0	22	HELMET	702	n/a	n/a	0	0	0
4506715	WORD	wordpools/wasnorm_wordpool_576.txt	LTP385	ltpFR2	0	22	HEDGE	699	n/a	n/a	0	0	0
4509498	WORD	wordpools/wasnorm_wordpool_576.txt	LTP385	ltpFR2	0	22	SMOG	1330	n/a	n/a	0	0	0
4512082	WORD	wordpools/wasnorm_wordpool_576.txt	LTP385	ltpFR2	0	22	BEAST	108	n/a	n/a	0	0	0
4513699	START	n/a	LTP385	ltpFR2	0	n/a	n/a	n/a	33	n/a	n/a	n/a	n/a
4514602	DISTRACTOR	n/a	LTP385	ltpFR2	0	22	n/a	n/a	n/a	n/a	0	0	0
4514615	PROB	n/a	LTP385	ltpFR2	0	n/a	n/a	n/a	33	19	7	8	4
4519098	PROB	n/a	LTP385	ltpFR2	0	n/a	n/a	n/a	33	24	9	7	8
4524798	PROB	n/a	LTP385	ltpFR2	0	n/a	n/a	n/a	33	8	3	2	3
4527015	PROB	n/a	LTP385	ltpFR2	0	n/a	n/a	n/a	33	14	7	6	1
4529832	PROB	n/a	LTP385	ltpFR2	0	n/a	n/a	n/a	33	9	5	1	3
4531865	PROB	n/a	LTP385	ltpFR2	0	n/a	n/a	n/a	33	12	1	8	3
4534481	PROB	n/a	LTP385	ltpFR2	0	n/a	n/a	n/a	33	16	7	6	3
4536746	STOP	n/a	LTP385	ltpFR2	0	n/a	n/a	n/a	33	n/a	n/a	n/a	n/a
4539514	REC_START	n/a	LTP385	ltpFR2	0	22	n/a	n/a	n/a	n/a	0	0	0
4541974	REC_WORD	wordpools/wasnorm_wordpool_576.txt	LTP385	ltpFR2	0	22	BEAVER	109	n/a	n/a	0	0	0
4542468	REC_WORD	wordpools/wasnorm_wordpool_576.txt	LTP385	ltpFR2	0	22	HEDGE	699	n/a	n/a	0	0	0
4543178	REC_WORD	wordpools/wasnorm_wordpool_576.txt	LTP385	ltpFR2	0	22	TUNNEL	1519	n/a	n/a	0	0	0
4546719	REC_WORD	wordpools/wasnorm_wordpool_576.txt	LTP385	ltpFR2	0	22	FOG	-1	n/a	n/a	0	0	0
4550425	REC_WORD	wordpools/wasnorm_wordpool_576.txt	LTP385	ltpFR2	0	22	MEAT	883	n/a	n/a	0	0	0
4555641	REC_WORD	wordpools/wasnorm_wordpool_576.txt	LTP385	ltpFR2	0	22	PIANO	1057	n/a	n/a	0	0	0
4558110	REC_WORD	wordpools/wasnorm_wordpool_576.txt	LTP385	ltpFR2	0	22	RECORD	1176	n/a	n/a	0	0	0
4559904	REC_WORD	wordpools/wasnorm_wordpool_576.txt	LTP385	ltpFR2	0	22	HARP	689	n/a	n/a	0	0	0
4562111	REC_WORD	wordpools/wasnorm_wordpool_576.txt	LTP385	ltpFR2	0	22	VIOLIN	1571	n/a	n/a	0	0	0
4565756	REC_WORD	wordpools/wasnorm_wordpool_576.txt	LTP385	ltpFR2	0	22	PEBBLE	1035	n/a	n/a	0	0	0
4660813	WORD	wordpools/wasnorm_wordpool_576.txt	LTP385	ltpFR2	0	23	SCOTCH	1251	n/a	n/a	0	0	0
4663462	WORD	wordpools/wasnorm_wordpool_576.txt	LTP385	ltpFR2	0	23	INMATE	738	n/a	n/a	0	0	0
4666079	WORD	wordpools/wasnorm_wordpool_576.txt	LTP385	ltpFR2	0	23	ATOM	55	n/a	n/a	0	0	0
4668829	WORD	wordpools/wasnorm_wordpool_576.txt	LTP385	ltpFR2	0	23	MARKET	871	n/a	n/a	0	0	0
4671328	WORD	wordpools/wasnorm_wordpool_576.txt	LTP385	ltpFR2	0	23	RELISH	1183	n/a	n/a	0	0	0
4674113	WORD	wordpools/wasnorm_wordpool_576.txt	LTP385	ltpFR2	0	23	PRINCE	1124	n/a	n/a	0	0	0
4676579	WORD	wordpools/wasnorm_wordpool_576.txt	LTP385	ltpFR2	0	23	CLAMP	316	n/a	n/a	0	0	0
4679328	WORD	wordpools/wasnorm_wordpool_576.txt	LTP385	ltpFR2	0	23	FLASK	576	n/a	n/a	0	0	0
4681813	WORD	wordpools/wasnorm_wordpool_576.txt	LTP385	ltpFR2	0	23	COWBOY	395	n/a	n/a	0	0	0
4684345	WORD	wordpools/wasnorm_wordpool_576.txt	LTP385	ltpFR2	0	23	HORNET	718	n/a	n/a	0	0	0
4687029	WORD	wordpools/wasnorm_wordpool_576.txt	LTP385	ltpFR2	0	23	FUNGUS	614	n/a	n/a	0	0	0
4689763	WORD	wordpools/wasnorm_wordpool_576.txt	LTP385	ltpFR2	0	23	TORTOISE	1486	n/a	n/a	0	0	0
4692461	WORD	wordpools/wasnorm_wordpool_576.txt	LTP385	ltpFR2	0	23	POSSUM	1112	n/a	n/a	0	0	0
4695012	WORD	wordpools/wasnorm_wordpool_576.txt	LTP385	ltpFR2	0	23	FOX	598	n/a	n/a	0	0	0
4697612	WORD	wordpools/wasnorm_wordpool_576.txt	LTP385	ltpFR2	0	23	MARROW	872	n/a	n/a	0	0	0
4700278	WORD	wordpools/wasnorm_wordpool_576.txt	LTP385	ltpFR2	0	23	CRAB	397	n/a	n/a	0	0	0
4703046	WORD	wordpools/wasnorm_wordpool_576.txt	LTP385	ltpFR2	0	23	GLASS	639	n/a	n/a	0	0	0
4705762	WORD	wordpools/wasnorm_wordpool_576.txt	LTP385	ltpFR2	0	23	TURTLE	1522	n/a	n/a	0	0	0
4708579	WORD	wordpools/wasnorm_wordpool_576.txt	LTP385	ltpFR2	0	23	CELLAR	267	n/a	n/a	0	0	0
4711261	WORD	wordpools/wasnorm_wordpool_576.txt	LTP385	ltpFR2	0	23	VAGRANT	1544	n/a	n/a	0	0	0
4713829	WORD	wordpools/wasnorm_wordpool_576.txt	LTP385	ltpFR2	0	23	PROTON	1132	n/a	n/a	0	0	0
4716511	WORD	wordpools/wasnorm_wordpool_576.txt	LTP385	ltpFR2	0	23	GAZELLE	628	n/a	n/a	0	0	0
4719145	WORD	wordpools/wasnorm_wordpool_576.txt	LTP385	ltpFR2	0	23	ANTLER	29	n/a	n/a	0	0	0
4721779	WORD	wordpools/wasnorm_wordpool_576.txt	LTP385	ltpFR2	0	23	BOYFRIEND	162	n/a	n/a	0	0	0
4723395	START	n/a	LTP385	ltpFR2	0	n/a	n/a	n/a	34	n/a	n/a	n/a	n/a
4724387	DISTRACTOR	n/a	LTP385	ltpFR2	0	23	n/a	n/a	n/a	n/a	0	0	0
4724394	PROB	n/a	LTP385	ltpFR2	0	n/a	n/a	n/a	34	7	3	3	1
4727912	PROB	n/a	LTP385	ltpFR2	0	n/a	n/a	n/a	34	18	8	2	8
4733211	PROB	n/a	LTP385	ltpFR2	0	n/a	n/a	n/a	34	20	8	7	5
4736227	PROB	n/a	LTP385	ltpFR2	0	n/a	n/a	n/a	34	20	6	7	6
4739294	PROB	n/a	LTP385	ltpFR2	0	n/a	n/a	n/a	34	8	4	2	2
4747395	STOP	n/a	LTP385	ltpFR2	0	n/a	n/a	n/a	34	n/a	n/a	n/a	n/a
4749244	REC_START	n/a	LTP385	ltpFR2	0	23	n/a	n/a	n/a	n/a	0	0	0
4752394	REC_WORD	wordpools/wasnorm_wordpool_576.txt	LTP385	ltpFR2	0	23	FOX	598	n/a	n/a	0	0	0
4755457	REC_WORD	wordpools/wasnorm_wordpool_576.txt	LTP385	ltpFR2	0	23	CRAB	397	n/a	n/a	0	0	0
4757827	REC_WORD	wordpools/wasnorm_wordpool_576.txt	LTP385	ltpFR2	0	23	ANTLER	29	n/a	n/a	0	0	0
4839693	DISTRACTOR	n/a	LTP385	ltpFR2	0	24	n/a	n/a	n/a	n/a	0	0	0
4839694	START	n/a	LTP385	ltpFR2	0	n/a	n/a	n/a	35	n/a	n/a	n/a	n/a
4839710	PROB	n/a	LTP385	ltpFR2	0	n/a	n/a	n/a	35	17	6	5	6
4845710	PROB	n/a	LTP385	ltpFR2	0	n/a	n/a	n/a	35	16	2	6	8
4851043	PROB	n/a	LTP385	ltpFR2	0	n/a	n/a	n/a	35	12	2	6	4
4852943	PROB	n/a	LTP385	ltpFR2	0	n/a	n/a	n/a	35	17	4	4	7
4855927	PROB	n/a	LTP385	ltpFR2	0	n/a	n/a	n/a	35	20	5	6	9
4859492	PROB	n/a	LTP385	ltpFR2	0	n/a	n/a	n/a	35	18	3	6	9
4863499	STOP	n/a	LTP385	ltpFR2	0	n/a	n/a	n/a	35	n/a	n/a	n/a	n/a
4864860	WORD	wordpools/wasnorm_wordpool_576.txt	LTP385	ltpFR2	0	24	ROBIN	1199	n/a	n/a	0	0	0
4867309	WORD	wordpools/wasnorm_wordpool_576.txt	LTP385	ltpFR2	0	24	TWEEZERS	1526	n/a	n/a	0	0	0
4869826	WORD	wordpools/wasnorm_wordpool_576.txt	LTP385	ltpFR2	0	24	STAPLE	1371	n/a	n/a	0	0	0
4872409	WORD	wordpools/wasnorm_wordpool_576.txt	LTP385	ltpFR2	0	24	FLUTE	585	n/a	n/a	0	0	0
4875059	WORD	wordpools/wasnorm_wordpool_576.txt	LTP385	ltpFR2	0	24	CONCERT	360	n/a	n/a	0	0	0
4877525	WORD	wordpools/wasnorm_wordpool_576.txt	LTP385	ltpFR2	0	24	SEAFOOD	1260	n/a	n/a	0	0	0
4880126	WORD	wordpools/wasnorm_wordpool_576.txt	LTP385	ltpFR2	0	24	GRIZZLY	662	n/a	n/a	0	0	0
4882576	WORD	wordpools/wasnorm_wordpool_576.txt	LTP385	ltpFR2	0	24	MASK	876	n/a	n/a	0	0	0
4885342	WORD	wordpools/wasnorm_wordpool_576.txt	LTP385	ltpFR2	0	24	STONE	1385	n/a	n/a	0	0	0
4887793	WORD	wordpools/wasnorm_wordpool_576.txt	LTP385	ltpFR2	0	24	CANYON	235	n/a	n/a	0	0	0
4890541	WORD	wordpools/wasnorm_wordpool_576.txt	LTP385	ltpFR2	0	24	JEANS	752	n/a	n/a	0	0	0
4893176	WORD	wordpools/wasnorm_wordpool_576.txt	LTP385	ltpFR2	0	24	SHARK	1275	n/a	n/a	0	0	0
4895909	WORD	wordpools/wasnorm_wordpool_576.txt	LTP385	ltpFR2	0	24	SANDWICH	1232	n/a	n/a	0	0	0
4898375	WORD	wordpools/wasnorm_wordpool_576.txt	LTP385	ltpFR2	0	24	HANDBAG	684	n/a	n/a	0	0	0
4901042	WORD	wordpools/wasnorm_wordpool_576.txt	LTP385	ltpFR2	0	24	CANAL	226	n/a	n/a	0	0	0
4903508	WORD	wordpools/wasnorm_wordpool_576.txt	LTP385	ltpFR2	0	24	SALT	1229	n/a	n/a	0	0	0
4905992	WORD	wordpools/wasnorm_wordpool_576.txt	LTP385	ltpFR2	0	24	SKETCH	1315	n/a	n/a	0	0	0
4908692	WORD	wordpools/wasnorm_wordpool_576.txt	LTP385	ltpFR2	0	24	CARRIAGE	248	n/a	n/a	0	0	0
4911341	WORD	wordpools/wasnorm_wordpool_576.txt	LTP385	ltpFR2	0	24	CRIB	407	n/a	n/a	0	0	0
4914009	WORD	wordpools/wasnorm_wordpool_576.txt	LTP385	ltpFR2	0	24	LUNCH	849	n/a	n/a	0	0	0
4916592	WORD	wordpools/wasnorm_wordpool_576.txt	LTP385	ltpFR2	0	24	DRAWING	494	n/a	n/a	0	0	0
4919324	WORD	wordpools/wasnorm_wordpool_576.txt	LTP385	ltpFR2	0	24	CUPBOARD	425	n/a	n/a	0	0	0
4922075	WORD	wordpools/wasnorm_wordpool_576.txt	LTP385	ltpFR2	0	24	DANDRUFF	439	n/a	n/a	0	0	0
4924875	WORD	wordpools/wasnorm_wordpool_576.txt	LTP385	ltpFR2	0	24	CUSTARD	429	n/a	n/a	0	0	0
4926491	START	n/a	LTP385	ltpFR2	0	n/a	n/a	n/a	36	n/a	n/a	n/a	n/a
4927491	DISTRACTOR	n/a	LTP385	ltpFR2	0	24	n/a	n/a	n/a	n/a	0	0	0
4927507	PROB	n/a	LTP385	ltpFR2	0	n/a	n/a	n/a	36	18	8	2	8
4930207	PROB	n/a	LTP385	ltpFR2	0	n/a	n/a	n/a	36	15	8	6	1
4933842	PROB	n/a	LTP385	ltpFR2	0	n/a	n/a	n/a	36	17	8	3	6
4937042	PROB	n/a	LTP385	ltpFR2	0	n/a	n/a	n/a	36	17	7	1	9
4939592	PROB	n/a	LTP385	ltpFR2	0	n/a	n/a	n/a	36	13	6	6	1
4942058	PROB	n/a	LTP385	ltpFR2	0	n/a	n/a	n/a	36	20	8	4	8
4946158	PROB	n/a	LTP385	ltpFR2	0	n/a	n/a	n/a	36	12	7	4	1
4950086	STOP	n/a	LTP385	ltpFR2	0	n/a	n/a	n/a	36	n/a	n/a	n/a	n/a
4952407	REC_START	n/a	LTP385	ltpFR2	0	24	n/a	n/a	n/a	n/a	0	0	0
4954636	REC_WORD	wordpools/wasnorm_wordpool_576.txt	LTP385	ltpFR2	0	24	SKETCH	1315	n/a	n/a	0	0	0
4955437	REC_WORD	wordpools/wasnorm_wordpool_576.txt	LTP385	ltpFR2	0	24	PITCHER	-1	n/a	n/a	0	0	0
4961170	REC_WORD	wordpools/wasnorm_wordpool_576.txt	LTP385	ltpFR2	0	24	GRIZZLY	662	n/a	n/a	0	0	0
4961841	REC_WORD	wordpools/wasnorm_wordpool_576.txt	LTP385	ltpFR2	0	24	SEAFOOD	1260	n/a	n/a	0	0	0
4963005	REC_WORD	wordpools/wasnorm_wordpool_576.txt	LTP385	ltpFR2	0	24	SALT	1229	n/a	n/a	0	0	0
4966324	REC_WORD	wordpools/wasnorm_wordpool_576.txt	LTP385	ltpFR2	0	24	SHARK	1275	n/a	n/a	0	0	0
4969706	REC_WORD	wordpools/wasnorm_wordpool_576.txt	LTP385	ltpFR2	0	24	SANDWICH	1232	n/a	n/a	0	0	0
4971995	REC_WORD	wordpools/wasnorm_wordpool_576.txt	LTP385	ltpFR2	0	24	DANDRUFF	439	n/a	n/a	0	0	0
4978902	REC_WORD	wordpools/wasnorm_wordpool_576.txt	LTP385	ltpFR2	0	24	LUNCH	849	n/a	n/a	0	0	0
5034007	SESS_END	n/a	LTP385	ltpFR2	0	24	n/a	n/a	n/a	n/a	0	0	0
