onset	duration	trial_type	sample	stim_file	subject	experiment	session	trial	task	item_name	item_num	recog_conf	resp	color_b	color_g	color_r	case	font
250.428	n/a	SESS_START	125214	n/a	LTP064	ltpFR	17	n/a	n/a	n/a	n/a	5	n/a	n/a	n/a	n/a	n/a	n/a
344.174	n/a	WORD	172087	wordpools/wasnorm_wordpool.txt	LTP064	ltpFR	17	1	1	SWIMMER	1420	n/a	1	1	0.412841796875	0.57763671875	lower	../fonts/amplitud.ttf
348.114	n/a	WORD	174057	wordpools/wasnorm_wordpool.txt	LTP064	ltpFR	17	1	1	CANAL	226	3	0	1	0.412841796875	0.57763671875	lower	../fonts/amplitud.ttf
352.272	n/a	WORD	176136	wordpools/wasnorm_wordpool.txt	LTP064	ltpFR	17	1	1	CHISEL	305	n/a	0	1	0.412841796875	0.57763671875	lower	../fonts/amplitud.ttf
356.314	n/a	WORD	178157	wordpools/wasnorm_wordpool.txt	LTP064	ltpFR	17	1	0	BLUEBERRY	140	n/a	1	0	0.5869140625	0.422607421875	upper	../fonts/zerothre.ttf
360.264	n/a	WORD	180132	wordpools/wasnorm_wordpool.txt	LTP064	ltpFR	17	1	0	HOME	712	n/a	1	0	0.5869140625	0.422607421875	upper	../fonts/zerothre.ttf
364.364	n/a	WORD	182182	wordpools/wasnorm_wordpool.txt	LTP064	ltpFR	17	1	0	BOYFRIEND	162	n/a	1	0	0.5869140625	0.422607421875	upper	../fonts/zerothre.ttf
368.354	n/a	WORD	184177	wordpools/wasnorm_wordpool.txt	LTP064	ltpFR	17	1	0	ROOMMATE	1207	n/a	1	0	0.5869140625	0.422607421875	upper	../fonts/zerothre.ttf
372.262	n/a	WORD	186131	wordpools/wasnorm_wordpool.txt	LTP064	ltpFR	17	1	0	PAW	1029	n/a	1	0	0.5869140625	0.422607421875	upper	../fonts/zerothre.ttf
376.148	n/a	WORD	188074	wordpools/wasnorm_wordpool.txt	LTP064	ltpFR	17	1	0	COWARD	394	n/a	1	0	0.5869140625	0.422607421875	upper	../fonts/zerothre.ttf
380.056	n/a	WORD	190028	wordpools/wasnorm_wordpool.txt	LTP064	ltpFR	17	1	1	PLATE	1086	n/a	0	1	0.412841796875	0.57763671875	lower	../fonts/amplitud.ttf
383.888	n/a	WORD	191944	wordpools/wasnorm_wordpool.txt	LTP064	ltpFR	17	1	1	LOBSTER	837	n/a	1	1	0.412841796875	0.57763671875	lower	../fonts/amplitud.ttf
388.072	n/a	WORD	194036	wordpools/wasnorm_wordpool.txt	LTP064	ltpFR	17	1	1	CARPENTER	246	n/a	0	1	0.412841796875	0.57763671875	lower	../fonts/amplitud.ttf
392.104	n/a	WORD	196052	wordpools/wasnorm_wordpool.txt	LTP064	ltpFR	17	1	1	MATCH	878	n/a	0	1	0.412841796875	0.57763671875	lower	../fonts/amplitud.ttf
396.172	n/a	WORD	198086	wordpools/wasnorm_wordpool.txt	LTP064	ltpFR	17	1	1	CANNON	232	n/a	0	1	0.412841796875	0.57763671875	lower	../fonts/amplitud.ttf
400.072	n/a	WORD	200036	wordpools/wasnorm_wordpool.txt	LTP064	ltpFR	17	1	0	PAVEMENT	1028	n/a	1	0	0.5869140625	0.422607421875	upper	../fonts/zerothre.ttf
404.054	n/a	WORD	202027	wordpools/wasnorm_wordpool.txt	LTP064	ltpFR	17	1	0	COLESLAW	344	n/a	0	0	0.5869140625	0.422607421875	upper	../fonts/zerothre.ttf
409.822	n/a	REC_START	204911	n/a	LTP064	ltpFR	17	1	n/a	n/a	n/a	n/a	n/a	n/a	n/a	n/a	n/a	n/a
409.928	n/a	REC_WORD	204964	wordpools/wasnorm_wordpool.txt	LTP064	ltpFR	17	1	1	MATCH	878	n/a	0	n/a	n/a	n/a	n/a	n/a
410.368	n/a	REC_WORD	205184	wordpools/wasnorm_wordpool.txt	LTP064	ltpFR	17	1	1	CANNON	232	n/a	0	n/a	n/a	n/a	n/a	n/a
414.462	n/a	REC_WORD	207231	wordpools/wasnorm_wordpool.txt	LTP064	ltpFR	17	1	0	COLESLAW	344	n/a	0	n/a	n/a	n/a	n/a	n/a
416.274	n/a	REC_WORD	208137	wordpools/wasnorm_wordpool.txt	LTP064	ltpFR	17	1	1	LOBSTER	837	n/a	1	n/a	n/a	n/a	n/a	n/a
417.172	n/a	REC_WORD	208586	wordpools/wasnorm_wordpool.txt	LTP064	ltpFR	17	1	0	COWARD	394	n/a	1	n/a	n/a	n/a	n/a	n/a
419.162	n/a	REC_WORD	209581	wordpools/wasnorm_wordpool.txt	LTP064	ltpFR	17	1	1	CARPENTER	246	n/a	0	n/a	n/a	n/a	n/a	n/a
420.036	n/a	REC_WORD	210018	wordpools/wasnorm_wordpool.txt	LTP064	ltpFR	17	1	1	PLATE	1086	n/a	0	n/a	n/a	n/a	n/a	n/a
421.95	n/a	REC_WORD	210975	wordpools/wasnorm_wordpool.txt	LTP064	ltpFR	17	1	0	HOME	712	n/a	1	n/a	n/a	n/a	n/a	n/a
422.564	n/a	REC_WORD	211282	wordpools/wasnorm_wordpool.txt	LTP064	ltpFR	17	1	0	BOYFRIEND	162	n/a	1	n/a	n/a	n/a	n/a	n/a
423.144	n/a	REC_WORD	211572	wordpools/wasnorm_wordpool.txt	LTP064	ltpFR	17	1	0	ROOMMATE	1207	n/a	1	n/a	n/a	n/a	n/a	n/a
423.786	n/a	REC_WORD	211893	wordpools/wasnorm_wordpool.txt	LTP064	ltpFR	17	1	0	PAW	1029	n/a	1	n/a	n/a	n/a	n/a	n/a
424.984	n/a	REC_WORD	212492	wordpools/wasnorm_wordpool.txt	LTP064	ltpFR	17	1	1	CANAL	226	n/a	0	n/a	n/a	n/a	n/a	n/a
425.5	n/a	REC_WORD	212750	wordpools/wasnorm_wordpool.txt	LTP064	ltpFR	17	1	1	SWIMMER	1420	n/a	1	n/a	n/a	n/a	n/a	n/a
426.378	n/a	REC_WORD	213189	wordpools/wasnorm_wordpool.txt	LTP064	ltpFR	17	1	0	BLUEBERRY	140	n/a	1	n/a	n/a	n/a	n/a	n/a
426.966	n/a	REC_WORD	213483	wordpools/wasnorm_wordpool.txt	LTP064	ltpFR	17	1	1	CHISEL	305	n/a	0	n/a	n/a	n/a	n/a	n/a
496.218	n/a	WORD	248109	wordpools/wasnorm_wordpool.txt	LTP064	ltpFR	17	2	0	DRILL	497	n/a	1	0	0.5869140625	0.422607421875	upper	../fonts/zerothre.ttf
500.112	n/a	WORD	250056	wordpools/wasnorm_wordpool.txt	LTP064	ltpFR	17	2	0	BRACELET	163	n/a	1	0	0.5869140625	0.422607421875	upper	../fonts/zerothre.ttf
504.16	n/a	WORD	252080	wordpools/wasnorm_wordpool.txt	LTP064	ltpFR	17	2	1	TOMBSTONE	1478	n/a	0	1	0.412841796875	0.57763671875	lower	../fonts/amplitud.ttf
508.342	n/a	WORD	254171	wordpools/wasnorm_wordpool.txt	LTP064	ltpFR	17	2	1	CRADLE	399	n/a	0	1	0.412841796875	0.57763671875	lower	../fonts/amplitud.ttf
512.218	n/a	WORD	256109	wordpools/wasnorm_wordpool.txt	LTP064	ltpFR	17	2	1	POWDER	1117	n/a	0	1	0.412841796875	0.57763671875	lower	../fonts/amplitud.ttf
516.076	n/a	WORD	258038	wordpools/wasnorm_wordpool.txt	LTP064	ltpFR	17	2	1	ELECTRICIAN	521	n/a	1	1	0.412841796875	0.57763671875	lower	../fonts/amplitud.ttf
520.152	n/a	WORD	260076	wordpools/wasnorm_wordpool.txt	LTP064	ltpFR	17	2	0	DETERGENT	455	n/a	0	0	0.5869140625	0.422607421875	upper	../fonts/zerothre.ttf
524.068	n/a	WORD	262034	wordpools/wasnorm_wordpool.txt	LTP064	ltpFR	17	2	0	LAWYER	806	n/a	1	0	0.5869140625	0.422607421875	upper	../fonts/zerothre.ttf
528.186	n/a	WORD	264093	wordpools/wasnorm_wordpool.txt	LTP064	ltpFR	17	2	0	GYM	674	n/a	1	0	0.5869140625	0.422607421875	upper	../fonts/zerothre.ttf
532.292	n/a	WORD	266146	wordpools/wasnorm_wordpool.txt	LTP064	ltpFR	17	2	0	FLOUR	583	n/a	0	0	0.5869140625	0.422607421875	upper	../fonts/zerothre.ttf
536.258	n/a	WORD	268129	wordpools/wasnorm_wordpool.txt	LTP064	ltpFR	17	2	1	POTATO	1115	n/a	3	1	0.412841796875	0.57763671875	lower	../fonts/amplitud.ttf
538.676	n/a	KEY_MSG	269338	n/a	LTP064	ltpFR	17	2	n/a	n/a	n/a	n/a	n/a	n/a	n/a	n/a	n/a	n/a
541.01	n/a	WORD	270505	wordpools/wasnorm_wordpool.txt	LTP064	ltpFR	17	2	1	GRAVE	658	n/a	0	1	0.412841796875	0.57763671875	lower	../fonts/amplitud.ttf
545.168	n/a	WORD	272584	wordpools/wasnorm_wordpool.txt	LTP064	ltpFR	17	2	1	TURKEY	1520	n/a	1	1	0.412841796875	0.57763671875	lower	../fonts/amplitud.ttf
549.316	n/a	WORD	274658	wordpools/wasnorm_wordpool.txt	LTP064	ltpFR	17	2	1	HEN	703	n/a	1	1	0.412841796875	0.57763671875	lower	../fonts/amplitud.ttf
553.258	n/a	WORD	276629	wordpools/wasnorm_wordpool.txt	LTP064	ltpFR	17	2	0	ROOSTER	1209	n/a	3	0	0.5869140625	0.422607421875	upper	../fonts/zerothre.ttf
554.1	n/a	KEY_MSG	277050	n/a	LTP064	ltpFR	17	2	n/a	n/a	n/a	n/a	n/a	n/a	n/a	n/a	n/a	n/a
557.108	n/a	WORD	278554	wordpools/wasnorm_wordpool.txt	LTP064	ltpFR	17	2	0	MEDAL	885	n/a	0	0	0.5869140625	0.422607421875	upper	../fonts/zerothre.ttf
562.91	n/a	REC_START	281455	n/a	LTP064	ltpFR	17	2	n/a	n/a	n/a	n/a	n/a	n/a	n/a	n/a	n/a	n/a
563.434	n/a	REC_WORD	281717	wordpools/wasnorm_wordpool.txt	LTP064	ltpFR	17	2	1	TURKEY	1520	n/a	1	n/a	n/a	n/a	n/a	n/a
563.812	n/a	REC_WORD	281906	wordpools/wasnorm_wordpool.txt	LTP064	ltpFR	17	2	1	HEN	703	n/a	1	n/a	n/a	n/a	n/a	n/a
564.152	n/a	REC_WORD	282076	wordpools/wasnorm_wordpool.txt	LTP064	ltpFR	17	2	0	ROOSTER	1209	n/a	3	n/a	n/a	n/a	n/a	n/a
564.726	n/a	REC_WORD	282363	wordpools/wasnorm_wordpool.txt	LTP064	ltpFR	17	2	0	MEDAL	885	n/a	0	n/a	n/a	n/a	n/a	n/a
565.038	n/a	REC_WORD	282519	wordpools/wasnorm_wordpool.txt	LTP064	ltpFR	17	2	1	ELECTRICIAN	521	n/a	1	n/a	n/a	n/a	n/a	n/a
565.826	n/a	REC_WORD	282913	wordpools/wasnorm_wordpool.txt	LTP064	ltpFR	17	2	0	LAWYER	806	n/a	1	n/a	n/a	n/a	n/a	n/a
566.304	n/a	REC_WORD	283152	wordpools/wasnorm_wordpool.txt	LTP064	ltpFR	17	2	1	POWDER	1117	n/a	0	n/a	n/a	n/a	n/a	n/a
566.672	n/a	REC_WORD	283336	wordpools/wasnorm_wordpool.txt	LTP064	ltpFR	17	2	0	DETERGENT	455	n/a	0	n/a	n/a	n/a	n/a	n/a
567.432	n/a	REC_WORD	283716	wordpools/wasnorm_wordpool.txt	LTP064	ltpFR	17	2	0	GYM	674	n/a	1	n/a	n/a	n/a	n/a	n/a
568.0	n/a	REC_WORD	284000	wordpools/wasnorm_wordpool.txt	LTP064	ltpFR	17	2	1	GRAVE	658	n/a	0	n/a	n/a	n/a	n/a	n/a
569.29	n/a	REC_WORD	284645	wordpools/wasnorm_wordpool.txt	LTP064	ltpFR	17	2	1	POTATO	1115	n/a	3	n/a	n/a	n/a	n/a	n/a
569.774	n/a	REC_WORD	284887	wordpools/wasnorm_wordpool.txt	LTP064	ltpFR	17	2	0	FLOUR	583	n/a	0	n/a	n/a	n/a	n/a	n/a
570.596	n/a	REC_WORD	285298	wordpools/wasnorm_wordpool.txt	LTP064	ltpFR	17	2	1	CRADLE	399	n/a	0	n/a	n/a	n/a	n/a	n/a
571.254	n/a	REC_WORD	285627	wordpools/wasnorm_wordpool.txt	LTP064	ltpFR	17	2	1	TOMBSTONE	1478	n/a	0	n/a	n/a	n/a	n/a	n/a
572.26	n/a	REC_WORD	286130	wordpools/wasnorm_wordpool.txt	LTP064	ltpFR	17	2	0	DRILL	497	n/a	1	n/a	n/a	n/a	n/a	n/a
572.656	n/a	REC_WORD	286328	wordpools/wasnorm_wordpool.txt	LTP064	ltpFR	17	2	0	BRACELET	163	n/a	1	n/a	n/a	n/a	n/a	n/a
652.564	n/a	WORD	326282	wordpools/wasnorm_wordpool.txt	LTP064	ltpFR	17	3	-1	ARENA	37	n/a	-1	1	1.0	1.0	upper	../fonts/Verdana.ttf
656.756	n/a	WORD	328378	wordpools/wasnorm_wordpool.txt	LTP064	ltpFR	17	3	-1	DICE	461	n/a	-1	1	1.0	1.0	upper	../fonts/Verdana.ttf
660.94	n/a	WORD	330470	wordpools/wasnorm_wordpool.txt	LTP064	ltpFR	17	3	-1	AIRPLANE	12	n/a	-1	1	1.0	1.0	upper	../fonts/Verdana.ttf
665.14	n/a	WORD	332570	wordpools/wasnorm_wordpool.txt	LTP064	ltpFR	17	3	-1	MEDICINE	886	n/a	-1	1	1.0	1.0	upper	../fonts/Verdana.ttf
669.156	n/a	WORD	334578	wordpools/wasnorm_wordpool.txt	LTP064	ltpFR	17	3	-1	ATMOSPHERE	54	n/a	-1	1	1.0	1.0	upper	../fonts/Verdana.ttf
673.182	n/a	WORD	336591	wordpools/wasnorm_wordpool.txt	LTP064	ltpFR	17	3	-1	DANDELION	438	n/a	-1	1	1.0	1.0	upper	../fonts/Verdana.ttf
677.148	n/a	WORD	338574	wordpools/wasnorm_wordpool.txt	LTP064	ltpFR	17	3	-1	THORN	1459	n/a	-1	1	1.0	1.0	upper	../fonts/Verdana.ttf
681.18	n/a	WORD	340590	wordpools/wasnorm_wordpool.txt	LTP064	ltpFR	17	3	-1	ACROBAT	4	n/a	-1	1	1.0	1.0	upper	../fonts/Verdana.ttf
685.364	n/a	WORD	342682	wordpools/wasnorm_wordpool.txt	LTP064	ltpFR	17	3	-1	CLOWN	330	n/a	-1	1	1.0	1.0	upper	../fonts/Verdana.ttf
689.214	n/a	WORD	344607	wordpools/wasnorm_wordpool.txt	LTP064	ltpFR	17	3	-1	BIOLOGIST	128	n/a	-1	1	1.0	1.0	upper	../fonts/Verdana.ttf
693.088	n/a	WORD	346544	wordpools/wasnorm_wordpool.txt	LTP064	ltpFR	17	3	-1	KETTLE	772	n/a	-1	1	1.0	1.0	upper	../fonts/Verdana.ttf
696.948	n/a	WORD	348474	wordpools/wasnorm_wordpool.txt	LTP064	ltpFR	17	3	-1	AIRCRAFT	11	n/a	-1	1	1.0	1.0	upper	../fonts/Verdana.ttf
701.03	n/a	WORD	350515	wordpools/wasnorm_wordpool.txt	LTP064	ltpFR	17	3	-1	PILOT	1070	n/a	-1	1	1.0	1.0	upper	../fonts/Verdana.ttf
705.23	n/a	WORD	352615	wordpools/wasnorm_wordpool.txt	LTP064	ltpFR	17	3	-1	ROPE	1211	n/a	-1	1	1.0	1.0	upper	../fonts/Verdana.ttf
709.072	n/a	WORD	354536	wordpools/wasnorm_wordpool.txt	LTP064	ltpFR	17	3	-1	COFFEE	341	n/a	-1	1	1.0	1.0	upper	../fonts/Verdana.ttf
713.18	n/a	WORD	356590	wordpools/wasnorm_wordpool.txt	LTP064	ltpFR	17	3	-1	COMET	353	n/a	-1	1	1.0	1.0	upper	../fonts/Verdana.ttf
719.08	n/a	REC_START	359540	n/a	LTP064	ltpFR	17	3	n/a	n/a	n/a	n/a	n/a	n/a	n/a	n/a	n/a	n/a
719.23	n/a	REC_WORD	359615	wordpools/wasnorm_wordpool.txt	LTP064	ltpFR	17	3	-1	PILOT	1070	n/a	-1	n/a	n/a	n/a	n/a	n/a
719.57	n/a	REC_WORD	359785	wordpools/wasnorm_wordpool.txt	LTP064	ltpFR	17	3	-1	ROPE	1211	n/a	-1	n/a	n/a	n/a	n/a	n/a
719.936	n/a	REC_WORD	359968	wordpools/wasnorm_wordpool.txt	LTP064	ltpFR	17	3	-1	COFFEE	341	n/a	-1	n/a	n/a	n/a	n/a	n/a
720.362	n/a	REC_WORD	360181	wordpools/wasnorm_wordpool.txt	LTP064	ltpFR	17	3	-1	COMET	353	n/a	-1	n/a	n/a	n/a	n/a	n/a
722.278	n/a	REC_WORD	361139	wordpools/wasnorm_wordpool.txt	LTP064	ltpFR	17	3	-1	AIRCRAFT	11	n/a	-1	n/a	n/a	n/a	n/a	n/a
723.276	n/a	REC_WORD	361638	wordpools/wasnorm_wordpool.txt	LTP064	ltpFR	17	3	-1	KETTLE	772	n/a	-1	n/a	n/a	n/a	n/a	n/a
723.928	n/a	REC_WORD	361964	wordpools/wasnorm_wordpool.txt	LTP064	ltpFR	17	3	-1	CLOWN	330	n/a	-1	n/a	n/a	n/a	n/a	n/a
726.32	n/a	REC_WORD	363160	wordpools/wasnorm_wordpool.txt	LTP064	ltpFR	17	3	-1	BIOLOGIST	128	n/a	-1	n/a	n/a	n/a	n/a	n/a
728.69	n/a	REC_WORD	364345	wordpools/wasnorm_wordpool.txt	LTP064	ltpFR	17	3	-1	ARENA	37	n/a	-1	n/a	n/a	n/a	n/a	n/a
730.082	n/a	REC_WORD	365041	wordpools/wasnorm_wordpool.txt	LTP064	ltpFR	17	3	-1	MEDICINE	886	n/a	-1	n/a	n/a	n/a	n/a	n/a
730.612	n/a	REC_WORD	365306	wordpools/wasnorm_wordpool.txt	LTP064	ltpFR	17	3	-1	DICE	461	n/a	-1	n/a	n/a	n/a	n/a	n/a
731.204	n/a	REC_WORD	365602	wordpools/wasnorm_wordpool.txt	LTP064	ltpFR	17	3	-1	AIRPLANE	12	n/a	-1	n/a	n/a	n/a	n/a	n/a
733.524	n/a	REC_WORD	366762	wordpools/wasnorm_wordpool.txt	LTP064	ltpFR	17	3	-1	ATMOSPHERE	54	n/a	-1	n/a	n/a	n/a	n/a	n/a
734.628	n/a	REC_WORD	367314	wordpools/wasnorm_wordpool.txt	LTP064	ltpFR	17	3	-1	DANDELION	438	n/a	-1	n/a	n/a	n/a	n/a	n/a
735.516	n/a	REC_WORD	367758	wordpools/wasnorm_wordpool.txt	LTP064	ltpFR	17	3	-1	THORN	1459	n/a	-1	n/a	n/a	n/a	n/a	n/a
735.926	n/a	REC_WORD	367963	wordpools/wasnorm_wordpool.txt	LTP064	ltpFR	17	3	-1	ACROBAT	4	n/a	-1	n/a	n/a	n/a	n/a	n/a
813.92	n/a	WORD	406960	wordpools/wasnorm_wordpool.txt	LTP064	ltpFR	17	4	0	PRAIRIE	1118	n/a	1	0	0.5869140625	0.422607421875	upper	../fonts/zerothre.ttf
817.918	n/a	WORD	408959	wordpools/wasnorm_wordpool.txt	LTP064	ltpFR	17	4	0	DUSTPAN	509	n/a	1	0	0.5869140625	0.422607421875	upper	../fonts/zerothre.ttf
821.894	n/a	WORD	410947	wordpools/wasnorm_wordpool.txt	LTP064	ltpFR	17	4	0	YARD	1630	n/a	1	0	0.5869140625	0.422607421875	upper	../fonts/zerothre.ttf
826.052	n/a	WORD	413026	wordpools/wasnorm_wordpool.txt	LTP064	ltpFR	17	4	0	MONEY	908	n/a	0	0	0.5869140625	0.422607421875	upper	../fonts/zerothre.ttf
830.094	n/a	WORD	415047	wordpools/wasnorm_wordpool.txt	LTP064	ltpFR	17	4	0	TOMATO	1476	n/a	0	0	0.5869140625	0.422607421875	upper	../fonts/zerothre.ttf
834.052	n/a	WORD	417026	wordpools/wasnorm_wordpool.txt	LTP064	ltpFR	17	4	1	BANQUET	86	n/a	1	1	0.412841796875	0.57763671875	lower	../fonts/amplitud.ttf
837.986	n/a	WORD	418993	wordpools/wasnorm_wordpool.txt	LTP064	ltpFR	17	4	1	PARTNER	1017	n/a	1	1	0.412841796875	0.57763671875	lower	../fonts/amplitud.ttf
842.16	n/a	WORD	421080	wordpools/wasnorm_wordpool.txt	LTP064	ltpFR	17	4	1	WRENCH	1625	n/a	0	1	0.412841796875	0.57763671875	lower	../fonts/amplitud.ttf
846.368	n/a	WORD	423184	wordpools/wasnorm_wordpool.txt	LTP064	ltpFR	17	4	1	MONKEY	911	n/a	1	1	0.412841796875	0.57763671875	lower	../fonts/amplitud.ttf
850.376	n/a	WORD	425188	wordpools/wasnorm_wordpool.txt	LTP064	ltpFR	17	4	0	CHIMPANZEE	302	n/a	1	0	0.5869140625	0.422607421875	upper	../fonts/zerothre.ttf
854.194	n/a	WORD	427097	wordpools/wasnorm_wordpool.txt	LTP064	ltpFR	17	4	0	GRASSHOPPER	656	n/a	1	0	0.5869140625	0.422607421875	upper	../fonts/zerothre.ttf
858.35	n/a	WORD	429175	wordpools/wasnorm_wordpool.txt	LTP064	ltpFR	17	4	0	DINNER	468	n/a	1	0	0.5869140625	0.422607421875	upper	../fonts/zerothre.ttf
862.342	n/a	WORD	431171	wordpools/wasnorm_wordpool.txt	LTP064	ltpFR	17	4	1	SILVERWARE	1308	n/a	0	1	0.412841796875	0.57763671875	lower	../fonts/amplitud.ttf
866.26	n/a	WORD	433130	wordpools/wasnorm_wordpool.txt	LTP064	ltpFR	17	4	1	TREASURE	1500	n/a	0	1	0.412841796875	0.57763671875	lower	../fonts/amplitud.ttf
870.26	n/a	WORD	435130	wordpools/wasnorm_wordpool.txt	LTP064	ltpFR	17	4	1	GUEST	669	n/a	0	1	0.412841796875	0.57763671875	lower	../fonts/amplitud.ttf
874.45	n/a	WORD	437225	wordpools/wasnorm_wordpool.txt	LTP064	ltpFR	17	4	1	TELEVISION	1447	n/a	0	1	0.412841796875	0.57763671875	lower	../fonts/amplitud.ttf
880.384	n/a	REC_START	440192	n/a	LTP064	ltpFR	17	4	n/a	n/a	n/a	n/a	n/a	n/a	n/a	n/a	n/a	n/a
880.588	n/a	REC_WORD	440294	wordpools/wasnorm_wordpool.txt	LTP064	ltpFR	17	4	1	SILVERWARE	1308	n/a	0	n/a	n/a	n/a	n/a	n/a
881.59	n/a	REC_WORD	440795	wordpools/wasnorm_wordpool.txt	LTP064	ltpFR	17	4	1	TREASURE	1500	n/a	0	n/a	n/a	n/a	n/a	n/a
882.672	n/a	REC_WORD	441336	wordpools/wasnorm_wordpool.txt	LTP064	ltpFR	17	4	1	GUEST	669	n/a	0	n/a	n/a	n/a	n/a	n/a
883.19	n/a	REC_WORD	441595	wordpools/wasnorm_wordpool.txt	LTP064	ltpFR	17	4	1	TELEVISION	1447	n/a	0	n/a	n/a	n/a	n/a	n/a
885.042	n/a	REC_WORD	442521	wordpools/wasnorm_wordpool.txt	LTP064	ltpFR	17	4	1	MONKEY	911	n/a	1	n/a	n/a	n/a	n/a	n/a
885.584	n/a	REC_WORD	442792	wordpools/wasnorm_wordpool.txt	LTP064	ltpFR	17	4	0	CHIMPANZEE	302	n/a	1	n/a	n/a	n/a	n/a	n/a
886.526	n/a	REC_WORD	443263	wordpools/wasnorm_wordpool.txt	LTP064	ltpFR	17	4	0	GRASSHOPPER	656	n/a	1	n/a	n/a	n/a	n/a	n/a
887.492	n/a	REC_WORD	443746	wordpools/wasnorm_wordpool.txt	LTP064	ltpFR	17	4	0	DINNER	468	n/a	1	n/a	n/a	n/a	n/a	n/a
887.892	n/a	REC_WORD	443946	wordpools/wasnorm_wordpool.txt	LTP064	ltpFR	17	4	0	TOMATO	1476	n/a	0	n/a	n/a	n/a	n/a	n/a
888.44	n/a	REC_WORD	444220	wordpools/wasnorm_wordpool.txt	LTP064	ltpFR	17	4	1	BANQUET	86	n/a	1	n/a	n/a	n/a	n/a	n/a
888.99	n/a	REC_WORD	444495	wordpools/wasnorm_wordpool.txt	LTP064	ltpFR	17	4	1	PARTNER	1017	n/a	1	n/a	n/a	n/a	n/a	n/a
889.562	n/a	REC_WORD	444781	wordpools/wasnorm_wordpool.txt	LTP064	ltpFR	17	4	1	WRENCH	1625	n/a	0	n/a	n/a	n/a	n/a	n/a
890.542	n/a	REC_WORD	445271	wordpools/wasnorm_wordpool.txt	LTP064	ltpFR	17	4	0	PRAIRIE	1118	n/a	1	n/a	n/a	n/a	n/a	n/a
891.434	n/a	REC_WORD	445717	wordpools/wasnorm_wordpool.txt	LTP064	ltpFR	17	4	0	YARD	1630	n/a	1	n/a	n/a	n/a	n/a	n/a
892.122	n/a	REC_WORD	446061	wordpools/wasnorm_wordpool.txt	LTP064	ltpFR	17	4	0	MONEY	908	n/a	0	n/a	n/a	n/a	n/a	n/a
892.496	n/a	REC_WORD	446248	wordpools/wasnorm_wordpool.txt	LTP064	ltpFR	17	4	0	DUSTPAN	509	n/a	1	n/a	n/a	n/a	n/a	n/a
973.44	n/a	WORD	486720	wordpools/wasnorm_wordpool.txt	LTP064	ltpFR	17	5	1	PAIL	1002	n/a	0	1	0.412841796875	0.57763671875	lower	../fonts/amplitud.ttf
977.464	n/a	WORD	488732	wordpools/wasnorm_wordpool.txt	LTP064	ltpFR	17	5	1	PORPOISE	1109	n/a	1	1	0.412841796875	0.57763671875	lower	../fonts/amplitud.ttf
981.564	n/a	WORD	490782	wordpools/wasnorm_wordpool.txt	LTP064	ltpFR	17	5	1	BOXER	160	n/a	1	1	0.412841796875	0.57763671875	lower	../fonts/amplitud.ttf
985.472	n/a	WORD	492736	wordpools/wasnorm_wordpool.txt	LTP064	ltpFR	17	5	1	FOUNTAIN	597	n/a	0	1	0.412841796875	0.57763671875	lower	../fonts/amplitud.ttf
989.396	n/a	WORD	494698	wordpools/wasnorm_wordpool.txt	LTP064	ltpFR	17	5	0	LAWN	805	n/a	1	0	0.5869140625	0.422607421875	upper	../fonts/zerothre.ttf
993.448	n/a	WORD	496724	wordpools/wasnorm_wordpool.txt	LTP064	ltpFR	17	5	0	COLLAR	345	n/a	1	0	0.5869140625	0.422607421875	upper	../fonts/zerothre.ttf
997.288	n/a	WORD	498644	wordpools/wasnorm_wordpool.txt	LTP064	ltpFR	17	5	0	CAPITAL	238	n/a	1	0	0.5869140625	0.422607421875	upper	../fonts/zerothre.ttf
1001.114	n/a	WORD	500557	wordpools/wasnorm_wordpool.txt	LTP064	ltpFR	17	5	0	TROUT	1511	n/a	1	0	0.5869140625	0.422607421875	upper	../fonts/zerothre.ttf
1005.33	n/a	WORD	502665	wordpools/wasnorm_wordpool.txt	LTP064	ltpFR	17	5	0	FIST	572	n/a	1	0	0.5869140625	0.422607421875	upper	../fonts/zerothre.ttf
1009.538	n/a	WORD	504769	wordpools/wasnorm_wordpool.txt	LTP064	ltpFR	17	5	0	ANTLER	29	n/a	1	0	0.5869140625	0.422607421875	upper	../fonts/zerothre.ttf
1013.646	n/a	WORD	506823	wordpools/wasnorm_wordpool.txt	LTP064	ltpFR	17	5	1	MOOSE	915	n/a	1	1	0.412841796875	0.57763671875	lower	../fonts/amplitud.ttf
1017.838	n/a	WORD	508919	wordpools/wasnorm_wordpool.txt	LTP064	ltpFR	17	5	1	DUNGEON	507	n/a	0	1	0.412841796875	0.57763671875	lower	../fonts/amplitud.ttf
1021.822	n/a	WORD	510911	wordpools/wasnorm_wordpool.txt	LTP064	ltpFR	17	5	1	SUSPECT	1415	n/a	0	1	0.412841796875	0.57763671875	lower	../fonts/amplitud.ttf
1025.846	n/a	WORD	512923	wordpools/wasnorm_wordpool.txt	LTP064	ltpFR	17	5	1	RESTAURANT	1187	n/a	0	1	0.412841796875	0.57763671875	lower	../fonts/amplitud.ttf
1029.864	n/a	WORD	514932	wordpools/wasnorm_wordpool.txt	LTP064	ltpFR	17	5	0	CHIP	303	n/a	2	0	0.5869140625	0.422607421875	upper	../fonts/zerothre.ttf
1030.628	n/a	KEY_MSG	515314	n/a	LTP064	ltpFR	17	5	n/a	n/a	n/a	n/a	n/a	n/a	n/a	n/a	n/a	n/a
1033.922	n/a	WORD	516961	wordpools/wasnorm_wordpool.txt	LTP064	ltpFR	17	5	0	STAMP	1370	n/a	0	0	0.5869140625	0.422607421875	upper	../fonts/zerothre.ttf
1039.822	n/a	REC_START	519911	n/a	LTP064	ltpFR	17	5	n/a	n/a	n/a	n/a	n/a	n/a	n/a	n/a	n/a	n/a
1040.576	n/a	REC_WORD	520288	wordpools/wasnorm_wordpool.txt	LTP064	ltpFR	17	5	1	SUSPECT	1415	n/a	0	n/a	n/a	n/a	n/a	n/a
1041.186	n/a	REC_WORD	520593	wordpools/wasnorm_wordpool.txt	LTP064	ltpFR	17	5	0	CHIP	303	n/a	2	n/a	n/a	n/a	n/a	n/a
1041.528	n/a	REC_WORD	520764	wordpools/wasnorm_wordpool.txt	LTP064	ltpFR	17	5	0	STAMP	1370	n/a	0	n/a	n/a	n/a	n/a	n/a
1042.262	n/a	REC_WORD	521131	wordpools/wasnorm_wordpool.txt	LTP064	ltpFR	17	5	0	ANTLER	29	n/a	1	n/a	n/a	n/a	n/a	n/a
1042.7	n/a	REC_WORD	521350	wordpools/wasnorm_wordpool.txt	LTP064	ltpFR	17	5	0	FIST	572	n/a	1	n/a	n/a	n/a	n/a	n/a
1043.364	n/a	REC_WORD	521682	wordpools/wasnorm_wordpool.txt	LTP064	ltpFR	17	5	1	MOOSE	915	n/a	1	n/a	n/a	n/a	n/a	n/a
1043.902	n/a	REC_WORD	521951	wordpools/wasnorm_wordpool.txt	LTP064	ltpFR	17	5	1	DUNGEON	507	n/a	0	n/a	n/a	n/a	n/a	n/a
1045.03	n/a	REC_WORD	522515	wordpools/wasnorm_wordpool.txt	LTP064	ltpFR	17	5	0	TROUT	1511	n/a	1	n/a	n/a	n/a	n/a	n/a
1045.652	n/a	REC_WORD	522826	wordpools/wasnorm_wordpool.txt	LTP064	ltpFR	17	5	0	COLLAR	345	n/a	1	n/a	n/a	n/a	n/a	n/a
1046.568	n/a	REC_WORD	523284	wordpools/wasnorm_wordpool.txt	LTP064	ltpFR	17	5	0	CAPITAL	238	n/a	1	n/a	n/a	n/a	n/a	n/a
1047.18	n/a	REC_WORD	523590	wordpools/wasnorm_wordpool.txt	LTP064	ltpFR	17	5	0	LAWN	805	n/a	1	n/a	n/a	n/a	n/a	n/a
1047.81	n/a	REC_WORD	523905	wordpools/wasnorm_wordpool.txt	LTP064	ltpFR	17	5	1	PORPOISE	1109	n/a	1	n/a	n/a	n/a	n/a	n/a
1048.49	n/a	REC_WORD	524245	wordpools/wasnorm_wordpool.txt	LTP064	ltpFR	17	5	n/a	BUCKET	184	n/a	n/a	n/a	n/a	n/a	n/a	n/a
1050.338	n/a	REC_WORD	525169	wordpools/wasnorm_wordpool.txt	LTP064	ltpFR	17	5	1	PAIL	1002	n/a	0	n/a	n/a	n/a	n/a	n/a
1051.646	n/a	REC_WORD_VV	525823	wordpools/wasnorm_wordpool.txt	LTP064	ltpFR	17	5	n/a	<>	-1	n/a	n/a	n/a	n/a	n/a	n/a	n/a
1054.08	n/a	REC_WORD	527040	wordpools/wasnorm_wordpool.txt	LTP064	ltpFR	17	5	1	FOUNTAIN	597	n/a	0	n/a	n/a	n/a	n/a	n/a
1057.188	n/a	REC_WORD	528594	wordpools/wasnorm_wordpool.txt	LTP064	ltpFR	17	5	1	BOXER	160	n/a	1	n/a	n/a	n/a	n/a	n/a
1125.626	n/a	WORD	562813	wordpools/wasnorm_wordpool.txt	LTP064	ltpFR	17	6	1	BOOK	149	n/a	0	1	0.412841796875	0.57763671875	lower	../fonts/amplitud.ttf
1129.618	n/a	WORD	564809	wordpools/wasnorm_wordpool.txt	LTP064	ltpFR	17	6	1	NUCLEUS	961	n/a	0	1	0.412841796875	0.57763671875	lower	../fonts/amplitud.ttf
1133.818	n/a	WORD	566909	wordpools/wasnorm_wordpool.txt	LTP064	ltpFR	17	6	1	ELECTRON	522	n/a	0	1	0.412841796875	0.57763671875	lower	../fonts/amplitud.ttf
1137.726	n/a	WORD	568863	wordpools/wasnorm_wordpool.txt	LTP064	ltpFR	17	6	1	FOSSIL	596	n/a	0	1	0.412841796875	0.57763671875	lower	../fonts/amplitud.ttf
1141.894	n/a	WORD	570947	wordpools/wasnorm_wordpool.txt	LTP064	ltpFR	17	6	1	CANE	231	n/a	0	1	0.412841796875	0.57763671875	lower	../fonts/amplitud.ttf
1145.952	n/a	WORD	572976	wordpools/wasnorm_wordpool.txt	LTP064	ltpFR	17	6	1	EWE	542	n/a	1	1	0.412841796875	0.57763671875	lower	../fonts/amplitud.ttf
1149.986	n/a	WORD	574993	wordpools/wasnorm_wordpool.txt	LTP064	ltpFR	17	6	1	CHIPMUNK	304	n/a	1	1	0.412841796875	0.57763671875	lower	../fonts/amplitud.ttf
1154.102	n/a	WORD	577051	wordpools/wasnorm_wordpool.txt	LTP064	ltpFR	17	6	1	WHEAT	1602	n/a	1	1	0.412841796875	0.57763671875	lower	../fonts/amplitud.ttf
1157.952	n/a	WORD	578976	wordpools/wasnorm_wordpool.txt	LTP064	ltpFR	17	6	1	NEPHEW	942	n/a	1	1	0.412841796875	0.57763671875	lower	../fonts/amplitud.ttf
1161.836	n/a	WORD	580918	wordpools/wasnorm_wordpool.txt	LTP064	ltpFR	17	6	1	CREAM	402	n/a	0	1	0.412841796875	0.57763671875	lower	../fonts/amplitud.ttf
1166.002	n/a	WORD	583001	wordpools/wasnorm_wordpool.txt	LTP064	ltpFR	17	6	1	SCULPTURE	1258	n/a	0	1	0.412841796875	0.57763671875	lower	../fonts/amplitud.ttf
1170.192	n/a	WORD	585096	wordpools/wasnorm_wordpool.txt	LTP064	ltpFR	17	6	1	BAKER	71	n/a	1	1	0.412841796875	0.57763671875	lower	../fonts/amplitud.ttf
1174.118	n/a	WORD	587059	wordpools/wasnorm_wordpool.txt	LTP064	ltpFR	17	6	1	POND	1101	n/a	0	1	0.412841796875	0.57763671875	lower	../fonts/amplitud.ttf
1178.084	n/a	WORD	589042	wordpools/wasnorm_wordpool.txt	LTP064	ltpFR	17	6	1	PORTRAIT	1111	n/a	0	1	0.412841796875	0.57763671875	lower	../fonts/amplitud.ttf
1182.118	n/a	WORD	591059	wordpools/wasnorm_wordpool.txt	LTP064	ltpFR	17	6	1	WRITER	1627	n/a	1	1	0.412841796875	0.57763671875	lower	../fonts/amplitud.ttf
1186.316	n/a	WORD	593158	wordpools/wasnorm_wordpool.txt	LTP064	ltpFR	17	6	1	RAFT	1159	n/a	0	1	0.412841796875	0.57763671875	lower	../fonts/amplitud.ttf
1192.334	n/a	REC_START	596167	n/a	LTP064	ltpFR	17	6	n/a	n/a	n/a	n/a	n/a	n/a	n/a	n/a	n/a	n/a
1192.334	n/a	REC_WORD_VV	596167	wordpools/wasnorm_wordpool.txt	LTP064	ltpFR	17	6	n/a	<>	-1	n/a	n/a	n/a	n/a	n/a	n/a	n/a
1192.658	n/a	REC_WORD	596329	wordpools/wasnorm_wordpool.txt	LTP064	ltpFR	17	6	1	PORTRAIT	1111	n/a	0	n/a	n/a	n/a	n/a	n/a
1193.218	n/a	REC_WORD	596609	wordpools/wasnorm_wordpool.txt	LTP064	ltpFR	17	6	1	WRITER	1627	n/a	1	n/a	n/a	n/a	n/a	n/a
1193.764	n/a	REC_WORD	596882	wordpools/wasnorm_wordpool.txt	LTP064	ltpFR	17	6	1	RAFT	1159	n/a	0	n/a	n/a	n/a	n/a	n/a
1194.352	n/a	REC_WORD	597176	wordpools/wasnorm_wordpool.txt	LTP064	ltpFR	17	6	1	BAKER	71	n/a	1	n/a	n/a	n/a	n/a	n/a
1194.782	n/a	REC_WORD	597391	wordpools/wasnorm_wordpool.txt	LTP064	ltpFR	17	6	1	NEPHEW	942	n/a	1	n/a	n/a	n/a	n/a	n/a
1195.408	n/a	REC_WORD	597704	wordpools/wasnorm_wordpool.txt	LTP064	ltpFR	17	6	1	CREAM	402	n/a	0	n/a	n/a	n/a	n/a	n/a
1195.902	n/a	REC_WORD	597951	wordpools/wasnorm_wordpool.txt	LTP064	ltpFR	17	6	1	SCULPTURE	1258	n/a	0	n/a	n/a	n/a	n/a	n/a
1196.744	n/a	REC_WORD	598372	wordpools/wasnorm_wordpool.txt	LTP064	ltpFR	17	6	1	EWE	542	n/a	1	n/a	n/a	n/a	n/a	n/a
1197.702	n/a	REC_WORD	598851	wordpools/wasnorm_wordpool.txt	LTP064	ltpFR	17	6	1	CHIPMUNK	304	n/a	1	n/a	n/a	n/a	n/a	n/a
1198.64	n/a	REC_WORD	599320	wordpools/wasnorm_wordpool.txt	LTP064	ltpFR	17	6	1	CANE	231	n/a	0	n/a	n/a	n/a	n/a	n/a
1199.264	n/a	REC_WORD	599632	wordpools/wasnorm_wordpool.txt	LTP064	ltpFR	17	6	1	WHEAT	1602	n/a	1	n/a	n/a	n/a	n/a	n/a
1200.302	n/a	REC_WORD	600151	wordpools/wasnorm_wordpool.txt	LTP064	ltpFR	17	6	1	BOOK	149	n/a	0	n/a	n/a	n/a	n/a	n/a
1200.708	n/a	REC_WORD	600354	wordpools/wasnorm_wordpool.txt	LTP064	ltpFR	17	6	1	NUCLEUS	961	n/a	0	n/a	n/a	n/a	n/a	n/a
1201.594	n/a	REC_WORD	600797	wordpools/wasnorm_wordpool.txt	LTP064	ltpFR	17	6	1	ELECTRON	522	n/a	0	n/a	n/a	n/a	n/a	n/a
1202.642	n/a	REC_WORD	601321	wordpools/wasnorm_wordpool.txt	LTP064	ltpFR	17	6	1	FOSSIL	596	n/a	0	n/a	n/a	n/a	n/a	n/a
1280.848	n/a	WORD	640424	wordpools/wasnorm_wordpool.txt	LTP064	ltpFR	17	7	-1	CART	250	n/a	-1	1	1.0	1.0	upper	../fonts/Verdana.ttf
1284.816	n/a	WORD	642408	wordpools/wasnorm_wordpool.txt	LTP064	ltpFR	17	7	-1	PLAZA	1088	n/a	-1	1	1.0	1.0	upper	../fonts/Verdana.ttf
1288.638	n/a	WORD	644319	wordpools/wasnorm_wordpool.txt	LTP064	ltpFR	17	7	-1	GANGSTER	620	n/a	-1	1	1.0	1.0	upper	../fonts/Verdana.ttf
1292.756	n/a	WORD	646378	wordpools/wasnorm_wordpool.txt	LTP064	ltpFR	17	7	-1	DOLPHIN	483	n/a	-1	1	1.0	1.0	upper	../fonts/Verdana.ttf
1296.588	n/a	WORD	648294	wordpools/wasnorm_wordpool.txt	LTP064	ltpFR	17	7	-1	SURGEON	1413	n/a	-1	1	1.0	1.0	upper	../fonts/Verdana.ttf
1300.48	n/a	WORD	650240	wordpools/wasnorm_wordpool.txt	LTP064	ltpFR	17	7	-1	DRAWER	493	n/a	-1	1	1.0	1.0	upper	../fonts/Verdana.ttf
1304.456	n/a	WORD	652228	wordpools/wasnorm_wordpool.txt	LTP064	ltpFR	17	7	-1	CLOSET	326	n/a	-1	1	1.0	1.0	upper	../fonts/Verdana.ttf
1308.388	n/a	WORD	654194	wordpools/wasnorm_wordpool.txt	LTP064	ltpFR	17	7	-1	RAISIN	1163	n/a	-1	1	1.0	1.0	upper	../fonts/Verdana.ttf
1312.28	n/a	WORD	656140	wordpools/wasnorm_wordpool.txt	LTP064	ltpFR	17	7	-1	WOLF	1619	n/a	-1	1	1.0	1.0	upper	../fonts/Verdana.ttf
1316.312	n/a	WORD	658156	wordpools/wasnorm_wordpool.txt	LTP064	ltpFR	17	7	-1	ANTEATER	26	n/a	-1	1	1.0	1.0	upper	../fonts/Verdana.ttf
1320.33	n/a	WORD	660165	wordpools/wasnorm_wordpool.txt	LTP064	ltpFR	17	7	-1	PICK	1058	n/a	-1	1	1.0	1.0	upper	../fonts/Verdana.ttf
1324.338	n/a	WORD	662169	wordpools/wasnorm_wordpool.txt	LTP064	ltpFR	17	7	-1	FIDDLE	561	n/a	-1	1	1.0	1.0	upper	../fonts/Verdana.ttf
1328.454	n/a	WORD	664227	wordpools/wasnorm_wordpool.txt	LTP064	ltpFR	17	7	-1	TOENAIL	1474	n/a	-1	1	1.0	1.0	upper	../fonts/Verdana.ttf
1332.304	n/a	WORD	666152	wordpools/wasnorm_wordpool.txt	LTP064	ltpFR	17	7	-1	MAMMAL	861	n/a	-1	1	1.0	1.0	upper	../fonts/Verdana.ttf
1336.47	n/a	WORD	668235	wordpools/wasnorm_wordpool.txt	LTP064	ltpFR	17	7	-1	COMMUNITY	356	n/a	-1	1	1.0	1.0	upper	../fonts/Verdana.ttf
1340.564	n/a	WORD	670282	wordpools/wasnorm_wordpool.txt	LTP064	ltpFR	17	7	-1	CORK	380	n/a	-1	1	1.0	1.0	upper	../fonts/Verdana.ttf
1346.514	n/a	REC_START	673257	n/a	LTP064	ltpFR	17	7	n/a	n/a	n/a	n/a	n/a	n/a	n/a	n/a	n/a	n/a
1346.738	n/a	REC_WORD	673369	wordpools/wasnorm_wordpool.txt	LTP064	ltpFR	17	7	-1	TOENAIL	1474	n/a	-1	n/a	n/a	n/a	n/a	n/a
1347.244	n/a	REC_WORD	673622	wordpools/wasnorm_wordpool.txt	LTP064	ltpFR	17	7	-1	MAMMAL	861	n/a	-1	n/a	n/a	n/a	n/a	n/a
1347.618	n/a	REC_WORD	673809	wordpools/wasnorm_wordpool.txt	LTP064	ltpFR	17	7	-1	COMMUNITY	356	n/a	-1	n/a	n/a	n/a	n/a	n/a
1348.254	n/a	REC_WORD	674127	wordpools/wasnorm_wordpool.txt	LTP064	ltpFR	17	7	-1	CORK	380	n/a	-1	n/a	n/a	n/a	n/a	n/a
1348.834	n/a	REC_WORD	674417	wordpools/wasnorm_wordpool.txt	LTP064	ltpFR	17	7	-1	WOLF	1619	n/a	-1	n/a	n/a	n/a	n/a	n/a
1349.622	n/a	REC_WORD	674811	wordpools/wasnorm_wordpool.txt	LTP064	ltpFR	17	7	-1	ANTEATER	26	n/a	-1	n/a	n/a	n/a	n/a	n/a
1350.41	n/a	REC_WORD	675205	wordpools/wasnorm_wordpool.txt	LTP064	ltpFR	17	7	-1	PICK	1058	n/a	-1	n/a	n/a	n/a	n/a	n/a
1351.108	n/a	REC_WORD	675554	wordpools/wasnorm_wordpool.txt	LTP064	ltpFR	17	7	-1	FIDDLE	561	n/a	-1	n/a	n/a	n/a	n/a	n/a
1351.75	n/a	REC_WORD	675875	wordpools/wasnorm_wordpool.txt	LTP064	ltpFR	17	7	-1	SURGEON	1413	n/a	-1	n/a	n/a	n/a	n/a	n/a
1352.484	n/a	REC_WORD	676242	wordpools/wasnorm_wordpool.txt	LTP064	ltpFR	17	7	-1	CLOSET	326	n/a	-1	n/a	n/a	n/a	n/a	n/a
1353.26	n/a	REC_WORD	676630	wordpools/wasnorm_wordpool.txt	LTP064	ltpFR	17	7	-1	DRAWER	493	n/a	-1	n/a	n/a	n/a	n/a	n/a
1353.826	n/a	REC_WORD	676913	wordpools/wasnorm_wordpool.txt	LTP064	ltpFR	17	7	-1	RAISIN	1163	n/a	-1	n/a	n/a	n/a	n/a	n/a
1354.974	n/a	REC_WORD	677487	wordpools/wasnorm_wordpool.txt	LTP064	ltpFR	17	7	-1	PLAZA	1088	n/a	-1	n/a	n/a	n/a	n/a	n/a
1356.102	n/a	REC_WORD	678051	wordpools/wasnorm_wordpool.txt	LTP064	ltpFR	17	7	-1	CART	250	n/a	-1	n/a	n/a	n/a	n/a	n/a
1357.524	n/a	REC_WORD	678762	wordpools/wasnorm_wordpool.txt	LTP064	ltpFR	17	7	-1	GANGSTER	620	n/a	-1	n/a	n/a	n/a	n/a	n/a
1358.156	n/a	REC_WORD	679078	wordpools/wasnorm_wordpool.txt	LTP064	ltpFR	17	7	-1	DOLPHIN	483	n/a	-1	n/a	n/a	n/a	n/a	n/a
1440.384	n/a	WORD	720192	wordpools/wasnorm_wordpool.txt	LTP064	ltpFR	17	8	-1	CONCRETE	361	n/a	-1	1	1.0	1.0	upper	../fonts/Verdana.ttf
1444.278	n/a	WORD	722139	wordpools/wasnorm_wordpool.txt	LTP064	ltpFR	17	8	-1	QUARTER	1148	n/a	-1	1	1.0	1.0	upper	../fonts/Verdana.ttf
1448.202	n/a	WORD	724101	wordpools/wasnorm_wordpool.txt	LTP064	ltpFR	17	8	-1	TOOTHPASTE	1483	n/a	-1	1	1.0	1.0	upper	../fonts/Verdana.ttf
1452.018	n/a	WORD	726009	wordpools/wasnorm_wordpool.txt	LTP064	ltpFR	17	8	-1	SALESMAN	1225	n/a	-1	1	1.0	1.0	upper	../fonts/Verdana.ttf
1456.236	n/a	WORD	728118	wordpools/wasnorm_wordpool.txt	LTP064	ltpFR	17	8	-1	ORCHID	982	n/a	-1	1	1.0	1.0	upper	../fonts/Verdana.ttf
1460.16	n/a	WORD	730080	wordpools/wasnorm_wordpool.txt	LTP064	ltpFR	17	8	-1	RAKE	1164	n/a	-1	1	1.0	1.0	upper	../fonts/Verdana.ttf
1464.326	n/a	WORD	732163	wordpools/wasnorm_wordpool.txt	LTP064	ltpFR	17	8	-1	SEAGULL	1261	n/a	-1	1	1.0	1.0	upper	../fonts/Verdana.ttf
1468.41	n/a	WORD	734205	wordpools/wasnorm_wordpool.txt	LTP064	ltpFR	17	8	-1	BUGLE	189	n/a	-1	1	1.0	1.0	upper	../fonts/Verdana.ttf
1472.56	n/a	WORD	736280	wordpools/wasnorm_wordpool.txt	LTP064	ltpFR	17	8	-1	MEAL	882	n/a	-1	1	1.0	1.0	upper	../fonts/Verdana.ttf
1476.468	n/a	WORD	738234	wordpools/wasnorm_wordpool.txt	LTP064	ltpFR	17	8	-1	GRILL	661	n/a	-1	1	1.0	1.0	upper	../fonts/Verdana.ttf
1480.626	n/a	WORD	740313	wordpools/wasnorm_wordpool.txt	LTP064	ltpFR	17	8	-1	CHAMBER	277	n/a	-1	1	1.0	1.0	upper	../fonts/Verdana.ttf
1484.836	n/a	WORD	742418	wordpools/wasnorm_wordpool.txt	LTP064	ltpFR	17	8	-1	VAN	1548	n/a	-1	1	1.0	1.0	upper	../fonts/Verdana.ttf
1488.976	n/a	WORD	744488	wordpools/wasnorm_wordpool.txt	LTP064	ltpFR	17	8	-1	DOVE	491	n/a	-1	1	1.0	1.0	upper	../fonts/Verdana.ttf
1493.176	n/a	WORD	746588	wordpools/wasnorm_wordpool.txt	LTP064	ltpFR	17	8	-1	ZUCCHINI	1638	n/a	-1	1	1.0	1.0	upper	../fonts/Verdana.ttf
1497.35	n/a	WORD	748675	wordpools/wasnorm_wordpool.txt	LTP064	ltpFR	17	8	-1	TRANSPLANT	1496	n/a	-1	1	1.0	1.0	upper	../fonts/Verdana.ttf
1501.192	n/a	WORD	750596	wordpools/wasnorm_wordpool.txt	LTP064	ltpFR	17	8	-1	ORGAN	984	n/a	-1	1	1.0	1.0	upper	../fonts/Verdana.ttf
1507.152	n/a	REC_START	753576	n/a	LTP064	ltpFR	17	8	n/a	n/a	n/a	n/a	n/a	n/a	n/a	n/a	n/a	n/a
1507.546	n/a	REC_WORD	753773	wordpools/wasnorm_wordpool.txt	LTP064	ltpFR	17	8	-1	DOVE	491	n/a	-1	n/a	n/a	n/a	n/a	n/a
1507.764	n/a	REC_WORD	753882	wordpools/wasnorm_wordpool.txt	LTP064	ltpFR	17	8	-1	ZUCCHINI	1638	n/a	-1	n/a	n/a	n/a	n/a	n/a
1508.428	n/a	REC_WORD	754214	wordpools/wasnorm_wordpool.txt	LTP064	ltpFR	17	8	-1	ORGAN	984	n/a	-1	n/a	n/a	n/a	n/a	n/a
1508.95	n/a	REC_WORD	754475	wordpools/wasnorm_wordpool.txt	LTP064	ltpFR	17	8	-1	TRANSPLANT	1496	n/a	-1	n/a	n/a	n/a	n/a	n/a
1511.018	n/a	REC_WORD	755509	wordpools/wasnorm_wordpool.txt	LTP064	ltpFR	17	8	-1	GRILL	661	n/a	-1	n/a	n/a	n/a	n/a	n/a
1511.456	n/a	REC_WORD	755728	wordpools/wasnorm_wordpool.txt	LTP064	ltpFR	17	8	-1	MEAL	882	n/a	-1	n/a	n/a	n/a	n/a	n/a
1512.162	n/a	REC_WORD	756081	wordpools/wasnorm_wordpool.txt	LTP064	ltpFR	17	8	-1	CHAMBER	277	n/a	-1	n/a	n/a	n/a	n/a	n/a
1512.802	n/a	REC_WORD	756401	wordpools/wasnorm_wordpool.txt	LTP064	ltpFR	17	8	-1	VAN	1548	n/a	-1	n/a	n/a	n/a	n/a	n/a
1513.956	n/a	REC_WORD	756978	wordpools/wasnorm_wordpool.txt	LTP064	ltpFR	17	8	-1	RAKE	1164	n/a	-1	n/a	n/a	n/a	n/a	n/a
1514.634	n/a	REC_WORD	757317	wordpools/wasnorm_wordpool.txt	LTP064	ltpFR	17	8	-1	ORCHID	982	n/a	-1	n/a	n/a	n/a	n/a	n/a
1515.816	n/a	REC_WORD	757908	wordpools/wasnorm_wordpool.txt	LTP064	ltpFR	17	8	-1	SEAGULL	1261	n/a	-1	n/a	n/a	n/a	n/a	n/a
1516.734	n/a	REC_WORD	758367	wordpools/wasnorm_wordpool.txt	LTP064	ltpFR	17	8	-1	BUGLE	189	n/a	-1	n/a	n/a	n/a	n/a	n/a
1520.392	n/a	REC_WORD	760196	wordpools/wasnorm_wordpool.txt	LTP064	ltpFR	17	8	-1	CONCRETE	361	n/a	-1	n/a	n/a	n/a	n/a	n/a
1521.114	n/a	REC_WORD	760557	wordpools/wasnorm_wordpool.txt	LTP064	ltpFR	17	8	-1	QUARTER	1148	n/a	-1	n/a	n/a	n/a	n/a	n/a
1521.728	n/a	REC_WORD	760864	wordpools/wasnorm_wordpool.txt	LTP064	ltpFR	17	8	-1	TOOTHPASTE	1483	n/a	-1	n/a	n/a	n/a	n/a	n/a
1522.434	n/a	REC_WORD	761217	wordpools/wasnorm_wordpool.txt	LTP064	ltpFR	17	8	-1	SALESMAN	1225	n/a	-1	n/a	n/a	n/a	n/a	n/a
1599.498	n/a	WORD	799749	wordpools/wasnorm_wordpool.txt	LTP064	ltpFR	17	9	1	PORCUPINE	1107	n/a	1	1	0.412841796875	0.57763671875	lower	../fonts/amplitud.ttf
1603.414	n/a	WORD	801707	wordpools/wasnorm_wordpool.txt	LTP064	ltpFR	17	9	1	MOLECULE	905	n/a	0	1	0.412841796875	0.57763671875	lower	../fonts/amplitud.ttf
1607.222	n/a	WORD	803611	wordpools/wasnorm_wordpool.txt	LTP064	ltpFR	17	9	1	HELICOPTER	701	n/a	0	1	0.412841796875	0.57763671875	lower	../fonts/amplitud.ttf
1611.406	n/a	WORD	805703	wordpools/wasnorm_wordpool.txt	LTP064	ltpFR	17	9	1	CAPE	237	n/a	0	1	0.412841796875	0.57763671875	lower	../fonts/amplitud.ttf
1615.488	n/a	WORD	807744	wordpools/wasnorm_wordpool.txt	LTP064	ltpFR	17	9	0	DICTATOR	462	n/a	3	0	0.5869140625	0.422607421875	upper	../fonts/zerothre.ttf
1617.29	n/a	KEY_MSG	808645	n/a	LTP064	ltpFR	17	9	n/a	n/a	n/a	n/a	n/a	n/a	n/a	n/a	n/a	n/a
1619.738	n/a	WORD	809869	wordpools/wasnorm_wordpool.txt	LTP064	ltpFR	17	9	0	EMPEROR	529	n/a	1	0	0.5869140625	0.422607421875	upper	../fonts/zerothre.ttf
1623.638	n/a	WORD	811819	wordpools/wasnorm_wordpool.txt	LTP064	ltpFR	17	9	0	BANNER	85	n/a	1	0	0.5869140625	0.422607421875	upper	../fonts/zerothre.ttf
1627.788	n/a	WORD	813894	wordpools/wasnorm_wordpool.txt	LTP064	ltpFR	17	9	0	TANGERINE	1431	n/a	1	0	0.5869140625	0.422607421875	upper	../fonts/zerothre.ttf
1631.756	n/a	WORD	815878	wordpools/wasnorm_wordpool.txt	LTP064	ltpFR	17	9	0	HAYSTACK	694	n/a	1	0	0.5869140625	0.422607421875	upper	../fonts/zerothre.ttf
1635.596	n/a	WORD	817798	wordpools/wasnorm_wordpool.txt	LTP064	ltpFR	17	9	1	IDOL	733	n/a	0	1	0.412841796875	0.57763671875	lower	../fonts/amplitud.ttf
1639.612	n/a	WORD	819806	wordpools/wasnorm_wordpool.txt	LTP064	ltpFR	17	9	1	DOCK	477	n/a	0	1	0.412841796875	0.57763671875	lower	../fonts/amplitud.ttf
1643.68	n/a	WORD	821840	wordpools/wasnorm_wordpool.txt	LTP064	ltpFR	17	9	0	OAR	966	n/a	2	0	0.5869140625	0.422607421875	upper	../fonts/zerothre.ttf
1644.946	n/a	KEY_MSG	822473	n/a	LTP064	ltpFR	17	9	n/a	n/a	n/a	n/a	n/a	n/a	n/a	n/a	n/a	n/a
1647.628	n/a	WORD	823814	wordpools/wasnorm_wordpool.txt	LTP064	ltpFR	17	9	0	ARTICLE	42	n/a	1	0	0.5869140625	0.422607421875	upper	../fonts/zerothre.ttf
1651.512	n/a	WORD	825756	wordpools/wasnorm_wordpool.txt	LTP064	ltpFR	17	9	0	CLOTHES	327	n/a	1	0	0.5869140625	0.422607421875	upper	../fonts/zerothre.ttf
1655.422	n/a	WORD	827711	wordpools/wasnorm_wordpool.txt	LTP064	ltpFR	17	9	1	SCALE	1241	n/a	0	1	0.412841796875	0.57763671875	lower	../fonts/amplitud.ttf
1659.438	n/a	WORD	829719	wordpools/wasnorm_wordpool.txt	LTP064	ltpFR	17	9	1	STEWARDESS	1381	n/a	1	1	0.412841796875	0.57763671875	lower	../fonts/amplitud.ttf
1665.256	n/a	REC_START	832628	n/a	LTP064	ltpFR	17	9	n/a	n/a	n/a	n/a	n/a	n/a	n/a	n/a	n/a	n/a
1665.514	n/a	REC_WORD	832757	wordpools/wasnorm_wordpool.txt	LTP064	ltpFR	17	9	0	ARTICLE	42	n/a	1	n/a	n/a	n/a	n/a	n/a
1665.956	n/a	REC_WORD	832978	wordpools/wasnorm_wordpool.txt	LTP064	ltpFR	17	9	0	CLOTHES	327	n/a	1	n/a	n/a	n/a	n/a	n/a
1666.29	n/a	REC_WORD	833145	wordpools/wasnorm_wordpool.txt	LTP064	ltpFR	17	9	1	SCALE	1241	n/a	0	n/a	n/a	n/a	n/a	n/a
1666.836	n/a	REC_WORD	833418	wordpools/wasnorm_wordpool.txt	LTP064	ltpFR	17	9	1	STEWARDESS	1381	n/a	1	n/a	n/a	n/a	n/a	n/a
1669.252	n/a	REC_WORD	834626	wordpools/wasnorm_wordpool.txt	LTP064	ltpFR	17	9	0	HAYSTACK	694	n/a	1	n/a	n/a	n/a	n/a	n/a
1670.234	n/a	REC_WORD	835117	wordpools/wasnorm_wordpool.txt	LTP064	ltpFR	17	9	1	IDOL	733	n/a	0	n/a	n/a	n/a	n/a	n/a
1671.014	n/a	REC_WORD	835507	wordpools/wasnorm_wordpool.txt	LTP064	ltpFR	17	9	0	OAR	966	n/a	2	n/a	n/a	n/a	n/a	n/a
1671.872	n/a	REC_WORD	835936	wordpools/wasnorm_wordpool.txt	LTP064	ltpFR	17	9	1	DOCK	477	n/a	0	n/a	n/a	n/a	n/a	n/a
1672.924	n/a	REC_WORD	836462	wordpools/wasnorm_wordpool.txt	LTP064	ltpFR	17	9	1	PORCUPINE	1107	n/a	1	n/a	n/a	n/a	n/a	n/a
1673.978	n/a	REC_WORD	836989	wordpools/wasnorm_wordpool.txt	LTP064	ltpFR	17	9	1	HELICOPTER	701	n/a	0	n/a	n/a	n/a	n/a	n/a
1674.824	n/a	REC_WORD	837412	wordpools/wasnorm_wordpool.txt	LTP064	ltpFR	17	9	1	MOLECULE	905	n/a	0	n/a	n/a	n/a	n/a	n/a
1675.63	n/a	REC_WORD	837815	wordpools/wasnorm_wordpool.txt	LTP064	ltpFR	17	9	1	CAPE	237	n/a	0	n/a	n/a	n/a	n/a	n/a
1683.978	n/a	REC_WORD	841989	wordpools/wasnorm_wordpool.txt	LTP064	ltpFR	17	9	0	EMPEROR	529	n/a	1	n/a	n/a	n/a	n/a	n/a
1684.594	n/a	REC_WORD	842297	wordpools/wasnorm_wordpool.txt	LTP064	ltpFR	17	9	0	DICTATOR	462	n/a	3	n/a	n/a	n/a	n/a	n/a
1685.394	n/a	REC_WORD	842697	wordpools/wasnorm_wordpool.txt	LTP064	ltpFR	17	9	0	TANGERINE	1431	n/a	1	n/a	n/a	n/a	n/a	n/a
1686.266	n/a	REC_WORD	843133	wordpools/wasnorm_wordpool.txt	LTP064	ltpFR	17	9	0	BANNER	85	n/a	1	n/a	n/a	n/a	n/a	n/a
1754.12	n/a	WORD	877060	wordpools/wasnorm_wordpool.txt	LTP064	ltpFR	17	10	0	STUDENT	1395	n/a	1	0	0.5869140625	0.422607421875	upper	../fonts/zerothre.ttf
1758.12	n/a	WORD	879060	wordpools/wasnorm_wordpool.txt	LTP064	ltpFR	17	10	0	ORNAMENT	985	n/a	1	0	0.5869140625	0.422607421875	upper	../fonts/zerothre.ttf
1761.952	n/a	WORD	880976	wordpools/wasnorm_wordpool.txt	LTP064	ltpFR	17	10	0	RIBBON	1189	n/a	1	0	0.5869140625	0.422607421875	upper	../fonts/zerothre.ttf
1765.784	n/a	WORD	882892	wordpools/wasnorm_wordpool.txt	LTP064	ltpFR	17	10	0	TUBE	1516	n/a	1	0	0.5869140625	0.422607421875	upper	../fonts/zerothre.ttf
1769.768	n/a	WORD	884884	wordpools/wasnorm_wordpool.txt	LTP064	ltpFR	17	10	0	AIRPORT	13	n/a	1	0	0.5869140625	0.422607421875	upper	../fonts/zerothre.ttf
1773.702	n/a	WORD	886851	wordpools/wasnorm_wordpool.txt	LTP064	ltpFR	17	10	0	SWATTER	1418	n/a	0	0	0.5869140625	0.422607421875	upper	../fonts/zerothre.ttf
1777.61	n/a	WORD	888805	wordpools/wasnorm_wordpool.txt	LTP064	ltpFR	17	10	0	BOWL	158	n/a	0	0	0.5869140625	0.422607421875	upper	../fonts/zerothre.ttf
1781.434	n/a	WORD	890717	wordpools/wasnorm_wordpool.txt	LTP064	ltpFR	17	10	0	WHIP	1604	n/a	0	0	0.5869140625	0.422607421875	upper	../fonts/zerothre.ttf
1785.642	n/a	WORD	892821	wordpools/wasnorm_wordpool.txt	LTP064	ltpFR	17	10	0	KNUCKLE	789	n/a	0	0	0.5869140625	0.422607421875	upper	../fonts/zerothre.ttf
1789.726	n/a	WORD	894863	wordpools/wasnorm_wordpool.txt	LTP064	ltpFR	17	10	0	RELATIVE	1182	n/a	1	0	0.5869140625	0.422607421875	upper	../fonts/zerothre.ttf
1793.886	n/a	WORD	896943	wordpools/wasnorm_wordpool.txt	LTP064	ltpFR	17	10	0	UNCLE	1536	n/a	1	0	0.5869140625	0.422607421875	upper	../fonts/zerothre.ttf
1798.094	n/a	WORD	899047	wordpools/wasnorm_wordpool.txt	LTP064	ltpFR	17	10	0	SAW	1239	n/a	0	0	0.5869140625	0.422607421875	upper	../fonts/zerothre.ttf
1802.034	n/a	WORD	901017	wordpools/wasnorm_wordpool.txt	LTP064	ltpFR	17	10	0	MANAGER	863	n/a	1	0	0.5869140625	0.422607421875	upper	../fonts/zerothre.ttf
1806.16	n/a	WORD	903080	wordpools/wasnorm_wordpool.txt	LTP064	ltpFR	17	10	0	ANKLE	24	n/a	0	0	0.5869140625	0.422607421875	upper	../fonts/zerothre.ttf
1809.984	n/a	WORD	904992	wordpools/wasnorm_wordpool.txt	LTP064	ltpFR	17	10	0	ACORN	3	n/a	0	0	0.5869140625	0.422607421875	upper	../fonts/zerothre.ttf
1813.91	n/a	WORD	906955	wordpools/wasnorm_wordpool.txt	LTP064	ltpFR	17	10	0	WORKER	1621	n/a	0	0	0.5869140625	0.422607421875	upper	../fonts/zerothre.ttf
1819.676	n/a	REC_START	909838	n/a	LTP064	ltpFR	17	10	n/a	n/a	n/a	n/a	n/a	n/a	n/a	n/a	n/a	n/a
1820.154	n/a	REC_WORD	910077	wordpools/wasnorm_wordpool.txt	LTP064	ltpFR	17	10	0	MANAGER	863	n/a	1	n/a	n/a	n/a	n/a	n/a
1820.702	n/a	REC_WORD	910351	wordpools/wasnorm_wordpool.txt	LTP064	ltpFR	17	10	0	ANKLE	24	n/a	0	n/a	n/a	n/a	n/a	n/a
1821.234	n/a	REC_WORD	910617	wordpools/wasnorm_wordpool.txt	LTP064	ltpFR	17	10	0	ACORN	3	n/a	0	n/a	n/a	n/a	n/a	n/a
1821.916	n/a	REC_WORD	910958	wordpools/wasnorm_wordpool.txt	LTP064	ltpFR	17	10	0	WORKER	1621	n/a	0	n/a	n/a	n/a	n/a	n/a
1822.426	n/a	REC_WORD	911213	wordpools/wasnorm_wordpool.txt	LTP064	ltpFR	17	10	0	KNUCKLE	789	n/a	0	n/a	n/a	n/a	n/a	n/a
1822.884	n/a	REC_WORD	911442	wordpools/wasnorm_wordpool.txt	LTP064	ltpFR	17	10	0	SAW	1239	n/a	0	n/a	n/a	n/a	n/a	n/a
1823.378	n/a	REC_WORD	911689	wordpools/wasnorm_wordpool.txt	LTP064	ltpFR	17	10	0	UNCLE	1536	n/a	1	n/a	n/a	n/a	n/a	n/a
1823.778	n/a	REC_WORD	911889	wordpools/wasnorm_wordpool.txt	LTP064	ltpFR	17	10	0	RELATIVE	1182	n/a	1	n/a	n/a	n/a	n/a	n/a
1824.59	n/a	REC_WORD	912295	wordpools/wasnorm_wordpool.txt	LTP064	ltpFR	17	10	0	AIRPORT	13	n/a	1	n/a	n/a	n/a	n/a	n/a
1825.29	n/a	REC_WORD	912645	wordpools/wasnorm_wordpool.txt	LTP064	ltpFR	17	10	0	SWATTER	1418	n/a	0	n/a	n/a	n/a	n/a	n/a
1826.12	n/a	REC_WORD	913060	wordpools/wasnorm_wordpool.txt	LTP064	ltpFR	17	10	0	BOWL	158	n/a	0	n/a	n/a	n/a	n/a	n/a
1826.596	n/a	REC_WORD	913298	wordpools/wasnorm_wordpool.txt	LTP064	ltpFR	17	10	0	WHIP	1604	n/a	0	n/a	n/a	n/a	n/a	n/a
1827.308	n/a	REC_WORD	913654	wordpools/wasnorm_wordpool.txt	LTP064	ltpFR	17	10	0	STUDENT	1395	n/a	1	n/a	n/a	n/a	n/a	n/a
1828.046	n/a	REC_WORD	914023	wordpools/wasnorm_wordpool.txt	LTP064	ltpFR	17	10	0	ORNAMENT	985	n/a	1	n/a	n/a	n/a	n/a	n/a
1828.562	n/a	REC_WORD	914281	wordpools/wasnorm_wordpool.txt	LTP064	ltpFR	17	10	0	RIBBON	1189	n/a	1	n/a	n/a	n/a	n/a	n/a
1829.09	n/a	REC_WORD	914545	wordpools/wasnorm_wordpool.txt	LTP064	ltpFR	17	10	0	TUBE	1516	n/a	1	n/a	n/a	n/a	n/a	n/a
1915.756	n/a	WORD	957878	wordpools/wasnorm_wordpool.txt	LTP064	ltpFR	17	11	0	CANVAS	234	n/a	1	0	0.5869140625	0.422607421875	upper	../fonts/zerothre.ttf
1919.772	n/a	WORD	959886	wordpools/wasnorm_wordpool.txt	LTP064	ltpFR	17	11	0	PLASTER	1085	n/a	1	0	0.5869140625	0.422607421875	upper	../fonts/zerothre.ttf
1923.63	n/a	WORD	961815	wordpools/wasnorm_wordpool.txt	LTP064	ltpFR	17	11	1	BANKER	84	n/a	1	1	0.412841796875	0.57763671875	lower	../fonts/amplitud.ttf
1927.68	n/a	WORD	963840	wordpools/wasnorm_wordpool.txt	LTP064	ltpFR	17	11	1	TIGER	1467	n/a	1	1	0.412841796875	0.57763671875	lower	../fonts/amplitud.ttf
1931.73	n/a	WORD	965865	wordpools/wasnorm_wordpool.txt	LTP064	ltpFR	17	11	1	SHOULDER	1294	n/a	0	1	0.412841796875	0.57763671875	lower	../fonts/amplitud.ttf
1935.872	n/a	WORD	967936	wordpools/wasnorm_wordpool.txt	LTP064	ltpFR	17	11	1	LEG	809	n/a	0	1	0.412841796875	0.57763671875	lower	../fonts/amplitud.ttf
1939.864	n/a	WORD	969932	wordpools/wasnorm_wordpool.txt	LTP064	ltpFR	17	11	1	POLITICIAN	1099	n/a	1	1	0.412841796875	0.57763671875	lower	../fonts/amplitud.ttf
1943.94	n/a	WORD	971970	wordpools/wasnorm_wordpool.txt	LTP064	ltpFR	17	11	1	POSSUM	1112	n/a	1	1	0.412841796875	0.57763671875	lower	../fonts/amplitud.ttf
1947.88	n/a	WORD	973940	wordpools/wasnorm_wordpool.txt	LTP064	ltpFR	17	11	0	MOUSE	925	n/a	0	0	0.5869140625	0.422607421875	upper	../fonts/zerothre.ttf
1951.906	n/a	WORD	975953	wordpools/wasnorm_wordpool.txt	LTP064	ltpFR	17	11	0	SHRINE	1298	n/a	0	0	0.5869140625	0.422607421875	upper	../fonts/zerothre.ttf
1955.796	n/a	WORD	977898	wordpools/wasnorm_wordpool.txt	LTP064	ltpFR	17	11	0	CAULIFLOWER	262	n/a	0	0	0.5869140625	0.422607421875	upper	../fonts/zerothre.ttf
1959.754	n/a	WORD	979877	wordpools/wasnorm_wordpool.txt	LTP064	ltpFR	17	11	1	DESK	452	n/a	0	1	0.412841796875	0.57763671875	lower	../fonts/amplitud.ttf
1963.68	n/a	WORD	981840	wordpools/wasnorm_wordpool.txt	LTP064	ltpFR	17	11	1	CHAPEL	280	n/a	1	1	0.412841796875	0.57763671875	lower	../fonts/amplitud.ttf
1967.82	n/a	WORD	983910	wordpools/wasnorm_wordpool.txt	LTP064	ltpFR	17	11	0	VOLLEYBALL	1576	n/a	0	0	0.5869140625	0.422607421875	upper	../fonts/zerothre.ttf
1971.872	n/a	WORD	985936	wordpools/wasnorm_wordpool.txt	LTP064	ltpFR	17	11	0	ROOST	1208	n/a	0	0	0.5869140625	0.422607421875	upper	../fonts/zerothre.ttf
1975.996	n/a	WORD	987998	wordpools/wasnorm_wordpool.txt	LTP064	ltpFR	17	11	0	TURNIP	1521	n/a	0	0	0.5869140625	0.422607421875	upper	../fonts/zerothre.ttf
1981.772	n/a	REC_START	990886	n/a	LTP064	ltpFR	17	11	n/a	n/a	n/a	n/a	n/a	n/a	n/a	n/a	n/a	n/a
1982.106	n/a	REC_WORD	991053	wordpools/wasnorm_wordpool.txt	LTP064	ltpFR	17	11	1	CHAPEL	280	n/a	1	n/a	n/a	n/a	n/a	n/a
1982.546	n/a	REC_WORD	991273	wordpools/wasnorm_wordpool.txt	LTP064	ltpFR	17	11	0	VOLLEYBALL	1576	n/a	0	n/a	n/a	n/a	n/a	n/a
1983.22	n/a	REC_WORD	991610	wordpools/wasnorm_wordpool.txt	LTP064	ltpFR	17	11	0	ROOST	1208	n/a	0	n/a	n/a	n/a	n/a	n/a
1983.678	n/a	REC_WORD	991839	wordpools/wasnorm_wordpool.txt	LTP064	ltpFR	17	11	0	TURNIP	1521	n/a	0	n/a	n/a	n/a	n/a	n/a
1984.174	n/a	REC_WORD	992087	wordpools/wasnorm_wordpool.txt	LTP064	ltpFR	17	11	0	MOUSE	925	n/a	0	n/a	n/a	n/a	n/a	n/a
1985.204	n/a	REC_WORD	992602	wordpools/wasnorm_wordpool.txt	LTP064	ltpFR	17	11	0	SHRINE	1298	n/a	0	n/a	n/a	n/a	n/a	n/a
1986.67	n/a	REC_WORD	993335	wordpools/wasnorm_wordpool.txt	LTP064	ltpFR	17	11	0	CAULIFLOWER	262	n/a	0	n/a	n/a	n/a	n/a	n/a
1987.546	n/a	REC_WORD	993773	wordpools/wasnorm_wordpool.txt	LTP064	ltpFR	17	11	1	DESK	452	n/a	0	n/a	n/a	n/a	n/a	n/a
1988.042	n/a	REC_WORD	994021	wordpools/wasnorm_wordpool.txt	LTP064	ltpFR	17	11	1	POSSUM	1112	n/a	1	n/a	n/a	n/a	n/a	n/a
1989.34	n/a	REC_WORD	994670	wordpools/wasnorm_wordpool.txt	LTP064	ltpFR	17	11	1	POLITICIAN	1099	n/a	1	n/a	n/a	n/a	n/a	n/a
1991.33	n/a	REC_WORD	995665	wordpools/wasnorm_wordpool.txt	LTP064	ltpFR	17	11	1	SHOULDER	1294	n/a	0	n/a	n/a	n/a	n/a	n/a
1992.24	n/a	REC_WORD	996120	wordpools/wasnorm_wordpool.txt	LTP064	ltpFR	17	11	1	LEG	809	n/a	0	n/a	n/a	n/a	n/a	n/a
1997.596	n/a	REC_WORD	998798	wordpools/wasnorm_wordpool.txt	LTP064	ltpFR	17	11	-1	MEAL	882	n/a	-1	n/a	n/a	n/a	n/a	n/a
2003.872	n/a	REC_WORD	1001936	wordpools/wasnorm_wordpool.txt	LTP064	ltpFR	17	11	0	ROOST	1208	n/a	0	n/a	n/a	n/a	n/a	n/a
2013.122	n/a	REC_WORD	1006561	wordpools/wasnorm_wordpool.txt	LTP064	ltpFR	17	11	1	TIGER	1467	n/a	1	n/a	n/a	n/a	n/a	n/a
2013.636	n/a	REC_WORD	1006818	wordpools/wasnorm_wordpool.txt	LTP064	ltpFR	17	11	1	BANKER	84	n/a	1	n/a	n/a	n/a	n/a	n/a
2014.29	n/a	REC_WORD	1007145	wordpools/wasnorm_wordpool.txt	LTP064	ltpFR	17	11	0	PLASTER	1085	n/a	1	n/a	n/a	n/a	n/a	n/a
2014.83	n/a	REC_WORD	1007415	wordpools/wasnorm_wordpool.txt	LTP064	ltpFR	17	11	0	CANVAS	234	n/a	1	n/a	n/a	n/a	n/a	n/a
2082.92	n/a	WORD	1041460	wordpools/wasnorm_wordpool.txt	LTP064	ltpFR	17	12	1	YOUTH	1634	n/a	1	1	0.412841796875	0.57763671875	lower	../fonts/amplitud.ttf
2086.994	n/a	WORD	1043497	wordpools/wasnorm_wordpool.txt	LTP064	ltpFR	17	12	1	BEDROOM	111	n/a	0	1	0.412841796875	0.57763671875	lower	../fonts/amplitud.ttf
2091.026	n/a	WORD	1045513	wordpools/wasnorm_wordpool.txt	LTP064	ltpFR	17	12	1	HOUSE	725	n/a	0	1	0.412841796875	0.57763671875	lower	../fonts/amplitud.ttf
2094.934	n/a	WORD	1047467	wordpools/wasnorm_wordpool.txt	LTP064	ltpFR	17	12	1	BOSS	152	n/a	1	1	0.412841796875	0.57763671875	lower	../fonts/amplitud.ttf
2098.994	n/a	WORD	1049497	wordpools/wasnorm_wordpool.txt	LTP064	ltpFR	17	12	1	OFFICE	972	n/a	0	1	0.412841796875	0.57763671875	lower	../fonts/amplitud.ttf
2102.968	n/a	WORD	1051484	wordpools/wasnorm_wordpool.txt	LTP064	ltpFR	17	12	1	COPIER	377	n/a	0	1	0.412841796875	0.57763671875	lower	../fonts/amplitud.ttf
2106.792	n/a	WORD	1053396	wordpools/wasnorm_wordpool.txt	LTP064	ltpFR	17	12	1	BRAN	167	n/a	0	1	0.412841796875	0.57763671875	lower	../fonts/amplitud.ttf
2110.634	n/a	WORD	1055317	wordpools/wasnorm_wordpool.txt	LTP064	ltpFR	17	12	1	SALMON	1227	n/a	0	1	0.412841796875	0.57763671875	lower	../fonts/amplitud.ttf
2114.634	n/a	WORD	1057317	wordpools/wasnorm_wordpool.txt	LTP064	ltpFR	17	12	1	KID	775	n/a	0	1	0.412841796875	0.57763671875	lower	../fonts/amplitud.ttf
2118.534	n/a	WORD	1059267	wordpools/wasnorm_wordpool.txt	LTP064	ltpFR	17	12	1	HAIL	676	n/a	0	1	0.412841796875	0.57763671875	lower	../fonts/amplitud.ttf
2122.4	n/a	WORD	1061200	wordpools/wasnorm_wordpool.txt	LTP064	ltpFR	17	12	1	PADDLE	1000	n/a	0	1	0.412841796875	0.57763671875	lower	../fonts/amplitud.ttf
2126.4	n/a	WORD	1063200	wordpools/wasnorm_wordpool.txt	LTP064	ltpFR	17	12	1	BANDIT	81	n/a	1	1	0.412841796875	0.57763671875	lower	../fonts/amplitud.ttf
2130.234	n/a	WORD	1065117	wordpools/wasnorm_wordpool.txt	LTP064	ltpFR	17	12	1	WAIST	1579	n/a	0	1	0.412841796875	0.57763671875	lower	../fonts/amplitud.ttf
2134.158	n/a	WORD	1067079	wordpools/wasnorm_wordpool.txt	LTP064	ltpFR	17	12	1	CRAB	397	n/a	1	1	0.412841796875	0.57763671875	lower	../fonts/amplitud.ttf
2138.176	n/a	WORD	1069088	wordpools/wasnorm_wordpool.txt	LTP064	ltpFR	17	12	1	ZIPPER	1636	n/a	0	1	0.412841796875	0.57763671875	lower	../fonts/amplitud.ttf
2142.066	n/a	WORD	1071033	wordpools/wasnorm_wordpool.txt	LTP064	ltpFR	17	12	1	SHORTS	1293	n/a	0	1	0.412841796875	0.57763671875	lower	../fonts/amplitud.ttf
2148.018	n/a	REC_START	1074009	n/a	LTP064	ltpFR	17	12	n/a	n/a	n/a	n/a	n/a	n/a	n/a	n/a	n/a	n/a
2148.338	n/a	REC_WORD	1074169	wordpools/wasnorm_wordpool.txt	LTP064	ltpFR	17	12	1	WAIST	1579	n/a	0	n/a	n/a	n/a	n/a	n/a
2148.732	n/a	REC_WORD	1074366	wordpools/wasnorm_wordpool.txt	LTP064	ltpFR	17	12	1	CRAB	397	n/a	1	n/a	n/a	n/a	n/a	n/a
2149.124	n/a	REC_WORD	1074562	wordpools/wasnorm_wordpool.txt	LTP064	ltpFR	17	12	1	ZIPPER	1636	n/a	0	n/a	n/a	n/a	n/a	n/a
2149.556	n/a	REC_WORD	1074778	wordpools/wasnorm_wordpool.txt	LTP064	ltpFR	17	12	1	SHORTS	1293	n/a	0	n/a	n/a	n/a	n/a	n/a
2150.426	n/a	REC_WORD	1075213	wordpools/wasnorm_wordpool.txt	LTP064	ltpFR	17	12	1	HAIL	676	n/a	0	n/a	n/a	n/a	n/a	n/a
2151.028	n/a	REC_WORD	1075514	wordpools/wasnorm_wordpool.txt	LTP064	ltpFR	17	12	1	KID	775	n/a	0	n/a	n/a	n/a	n/a	n/a
2151.576	n/a	REC_WORD	1075788	wordpools/wasnorm_wordpool.txt	LTP064	ltpFR	17	12	1	PADDLE	1000	n/a	0	n/a	n/a	n/a	n/a	n/a
2152.138	n/a	REC_WORD	1076069	wordpools/wasnorm_wordpool.txt	LTP064	ltpFR	17	12	1	BANDIT	81	n/a	1	n/a	n/a	n/a	n/a	n/a
2152.702	n/a	REC_WORD	1076351	wordpools/wasnorm_wordpool.txt	LTP064	ltpFR	17	12	1	OFFICE	972	n/a	0	n/a	n/a	n/a	n/a	n/a
2153.218	n/a	REC_WORD	1076609	wordpools/wasnorm_wordpool.txt	LTP064	ltpFR	17	12	1	COPIER	377	n/a	0	n/a	n/a	n/a	n/a	n/a
2154.872	n/a	REC_WORD	1077436	wordpools/wasnorm_wordpool.txt	LTP064	ltpFR	17	12	1	SALMON	1227	n/a	0	n/a	n/a	n/a	n/a	n/a
2155.554	n/a	REC_WORD	1077777	wordpools/wasnorm_wordpool.txt	LTP064	ltpFR	17	12	1	BRAN	167	n/a	0	n/a	n/a	n/a	n/a	n/a
2156.304	n/a	REC_WORD	1078152	wordpools/wasnorm_wordpool.txt	LTP064	ltpFR	17	12	1	YOUTH	1634	n/a	1	n/a	n/a	n/a	n/a	n/a
2157.082	n/a	REC_WORD	1078541	wordpools/wasnorm_wordpool.txt	LTP064	ltpFR	17	12	1	BOSS	152	n/a	1	n/a	n/a	n/a	n/a	n/a
2157.616	n/a	REC_WORD	1078808	wordpools/wasnorm_wordpool.txt	LTP064	ltpFR	17	12	1	HOUSE	725	n/a	0	n/a	n/a	n/a	n/a	n/a
2158.444	n/a	REC_WORD	1079222	wordpools/wasnorm_wordpool.txt	LTP064	ltpFR	17	12	n/a	BED	110	n/a	n/a	n/a	n/a	n/a	n/a	n/a
2223.63	n/a	REST_REWET	1111815	n/a	LTP064	ltpFR	17	12	n/a	n/a	n/a	n/a	n/a	n/a	n/a	n/a	n/a	n/a
2466.934	n/a	WORD	1233467	wordpools/wasnorm_wordpool.txt	LTP064	ltpFR	17	13	-1	TREAD	1499	n/a	-1	1	1.0	1.0	upper	../fonts/Verdana.ttf
2470.798	n/a	WORD	1235399	wordpools/wasnorm_wordpool.txt	LTP064	ltpFR	17	13	-1	TOE	1473	n/a	-1	1	1.0	1.0	upper	../fonts/Verdana.ttf
2474.976	n/a	WORD	1237488	wordpools/wasnorm_wordpool.txt	LTP064	ltpFR	17	13	-1	PIZZA	1079	n/a	-1	1	1.0	1.0	upper	../fonts/Verdana.ttf
2478.858	n/a	WORD	1239429	wordpools/wasnorm_wordpool.txt	LTP064	ltpFR	17	13	-1	RUST	1219	n/a	-1	1	1.0	1.0	upper	../fonts/Verdana.ttf
2483.05	n/a	WORD	1241525	wordpools/wasnorm_wordpool.txt	LTP064	ltpFR	17	13	-1	SNORKEL	1336	n/a	-1	1	1.0	1.0	upper	../fonts/Verdana.ttf
2487.232	n/a	WORD	1243616	wordpools/wasnorm_wordpool.txt	LTP064	ltpFR	17	13	-1	NEWSSTAND	949	n/a	-1	1	1.0	1.0	upper	../fonts/Verdana.ttf
2491.09	n/a	WORD	1245545	wordpools/wasnorm_wordpool.txt	LTP064	ltpFR	17	13	-1	BAG	69	n/a	-1	1	1.0	1.0	upper	../fonts/Verdana.ttf
2495.208	n/a	WORD	1247604	wordpools/wasnorm_wordpool.txt	LTP064	ltpFR	17	13	-1	WAX	1597	n/a	-1	1	1.0	1.0	upper	../fonts/Verdana.ttf
2499.174	n/a	WORD	1249587	wordpools/wasnorm_wordpool.txt	LTP064	ltpFR	17	13	-1	SERPENT	1270	n/a	-1	1	1.0	1.0	upper	../fonts/Verdana.ttf
2503.066	n/a	WORD	1251533	wordpools/wasnorm_wordpool.txt	LTP064	ltpFR	17	13	-1	APPLICATION	34	n/a	-1	1	1.0	1.0	upper	../fonts/Verdana.ttf
2507.258	n/a	WORD	1253629	wordpools/wasnorm_wordpool.txt	LTP064	ltpFR	17	13	-1	WRIST	1626	n/a	-1	1	1.0	1.0	upper	../fonts/Verdana.ttf
2511.14	n/a	WORD	1255570	wordpools/wasnorm_wordpool.txt	LTP064	ltpFR	17	13	-1	CAB	209	n/a	-1	1	1.0	1.0	upper	../fonts/Verdana.ttf
2515.356	n/a	WORD	1257678	wordpools/wasnorm_wordpool.txt	LTP064	ltpFR	17	13	-1	HATCHET	691	n/a	-1	1	1.0	1.0	upper	../fonts/Verdana.ttf
2519.24	n/a	WORD	1259620	wordpools/wasnorm_wordpool.txt	LTP064	ltpFR	17	13	-1	SCISSORS	1250	n/a	-1	1	1.0	1.0	upper	../fonts/Verdana.ttf
2523.356	n/a	WORD	1261678	wordpools/wasnorm_wordpool.txt	LTP064	ltpFR	17	13	-1	FRIES	607	n/a	-1	1	1.0	1.0	upper	../fonts/Verdana.ttf
2527.464	n/a	WORD	1263732	wordpools/wasnorm_wordpool.txt	LTP064	ltpFR	17	13	-1	MAYONNAISE	880	n/a	-1	1	1.0	1.0	upper	../fonts/Verdana.ttf
2533.258	n/a	REC_START	1266629	n/a	LTP064	ltpFR	17	13	n/a	n/a	n/a	n/a	n/a	n/a	n/a	n/a	n/a	n/a
2533.458	n/a	REC_WORD	1266729	wordpools/wasnorm_wordpool.txt	LTP064	ltpFR	17	13	-1	HATCHET	691	n/a	-1	n/a	n/a	n/a	n/a	n/a
2533.846	n/a	REC_WORD	1266923	wordpools/wasnorm_wordpool.txt	LTP064	ltpFR	17	13	-1	SCISSORS	1250	n/a	-1	n/a	n/a	n/a	n/a	n/a
2534.418	n/a	REC_WORD	1267209	wordpools/wasnorm_wordpool.txt	LTP064	ltpFR	17	13	-1	FRIES	607	n/a	-1	n/a	n/a	n/a	n/a	n/a
2534.858	n/a	REC_WORD	1267429	wordpools/wasnorm_wordpool.txt	LTP064	ltpFR	17	13	-1	MAYONNAISE	880	n/a	-1	n/a	n/a	n/a	n/a	n/a
2535.24	n/a	REC_WORD	1267620	wordpools/wasnorm_wordpool.txt	LTP064	ltpFR	17	13	-1	SERPENT	1270	n/a	-1	n/a	n/a	n/a	n/a	n/a
2535.818	n/a	REC_WORD	1267909	wordpools/wasnorm_wordpool.txt	LTP064	ltpFR	17	13	-1	APPLICATION	34	n/a	-1	n/a	n/a	n/a	n/a	n/a
2536.8	n/a	REC_WORD	1268400	wordpools/wasnorm_wordpool.txt	LTP064	ltpFR	17	13	-1	CAB	209	n/a	-1	n/a	n/a	n/a	n/a	n/a
2537.244	n/a	REC_WORD	1268622	wordpools/wasnorm_wordpool.txt	LTP064	ltpFR	17	13	-1	WRIST	1626	n/a	-1	n/a	n/a	n/a	n/a	n/a
2538.646	n/a	REC_WORD	1269323	wordpools/wasnorm_wordpool.txt	LTP064	ltpFR	17	13	-1	BAG	69	n/a	-1	n/a	n/a	n/a	n/a	n/a
2539.47	n/a	REC_WORD	1269735	wordpools/wasnorm_wordpool.txt	LTP064	ltpFR	17	13	-1	WAX	1597	n/a	-1	n/a	n/a	n/a	n/a	n/a
2540.322	n/a	REC_WORD	1270161	wordpools/wasnorm_wordpool.txt	LTP064	ltpFR	17	13	-1	NEWSSTAND	949	n/a	-1	n/a	n/a	n/a	n/a	n/a
2541.39	n/a	REC_WORD	1270695	wordpools/wasnorm_wordpool.txt	LTP064	ltpFR	17	13	-1	SNORKEL	1336	n/a	-1	n/a	n/a	n/a	n/a	n/a
2542.524	n/a	REC_WORD	1271262	wordpools/wasnorm_wordpool.txt	LTP064	ltpFR	17	13	-1	TOE	1473	n/a	-1	n/a	n/a	n/a	n/a	n/a
2543.136	n/a	REC_WORD	1271568	wordpools/wasnorm_wordpool.txt	LTP064	ltpFR	17	13	-1	TREAD	1499	n/a	-1	n/a	n/a	n/a	n/a	n/a
2543.73	n/a	REC_WORD	1271865	wordpools/wasnorm_wordpool.txt	LTP064	ltpFR	17	13	-1	PIZZA	1079	n/a	-1	n/a	n/a	n/a	n/a	n/a
2544.31	n/a	REC_WORD	1272155	wordpools/wasnorm_wordpool.txt	LTP064	ltpFR	17	13	-1	RUST	1219	n/a	-1	n/a	n/a	n/a	n/a	n/a
2626.686	n/a	WORD	1313343	wordpools/wasnorm_wordpool.txt	LTP064	ltpFR	17	14	0	VIKING	1565	n/a	1	0	0.5869140625	0.422607421875	upper	../fonts/zerothre.ttf
2630.77	n/a	WORD	1315385	wordpools/wasnorm_wordpool.txt	LTP064	ltpFR	17	14	0	WHISTLE	1606	n/a	0	0	0.5869140625	0.422607421875	upper	../fonts/zerothre.ttf
2634.72	n/a	WORD	1317360	wordpools/wasnorm_wordpool.txt	LTP064	ltpFR	17	14	0	FINGERNAIL	568	n/a	0	0	0.5869140625	0.422607421875	upper	../fonts/zerothre.ttf
2638.854	n/a	WORD	1319427	wordpools/wasnorm_wordpool.txt	LTP064	ltpFR	17	14	0	PALM	1007	n/a	0	0	0.5869140625	0.422607421875	upper	../fonts/zerothre.ttf
2642.938	n/a	WORD	1321469	wordpools/wasnorm_wordpool.txt	LTP064	ltpFR	17	14	0	VINE	1568	n/a	1	0	0.5869140625	0.422607421875	upper	../fonts/zerothre.ttf
2647.078	n/a	WORD	1323539	wordpools/wasnorm_wordpool.txt	LTP064	ltpFR	17	14	0	CHICKEN	297	n/a	1	0	0.5869140625	0.422607421875	upper	../fonts/zerothre.ttf
2651.196	n/a	WORD	1325598	wordpools/wasnorm_wordpool.txt	LTP064	ltpFR	17	14	0	JUVENILE	767	n/a	1	0	0.5869140625	0.422607421875	upper	../fonts/zerothre.ttf
2655.336	n/a	WORD	1327668	wordpools/wasnorm_wordpool.txt	LTP064	ltpFR	17	14	0	WORLD	1622	n/a	1	0	0.5869140625	0.422607421875	upper	../fonts/zerothre.ttf
2659.346	n/a	WORD	1329673	wordpools/wasnorm_wordpool.txt	LTP064	ltpFR	17	14	0	ORANGE	980	n/a	0	0	0.5869140625	0.422607421875	upper	../fonts/zerothre.ttf
2663.312	n/a	WORD	1331656	wordpools/wasnorm_wordpool.txt	LTP064	ltpFR	17	14	0	CASHIER	254	n/a	1	0	0.5869140625	0.422607421875	upper	../fonts/zerothre.ttf
2667.378	n/a	WORD	1333689	wordpools/wasnorm_wordpool.txt	LTP064	ltpFR	17	14	0	GLOBE	641	n/a	1	0	0.5869140625	0.422607421875	upper	../fonts/zerothre.ttf
2671.468	n/a	WORD	1335734	wordpools/wasnorm_wordpool.txt	LTP064	ltpFR	17	14	0	JAR	750	n/a	0	0	0.5869140625	0.422607421875	upper	../fonts/zerothre.ttf
2675.684	n/a	WORD	1337842	wordpools/wasnorm_wordpool.txt	LTP064	ltpFR	17	14	0	JAM	748	n/a	0	0	0.5869140625	0.422607421875	upper	../fonts/zerothre.ttf
2679.528	n/a	WORD	1339764	wordpools/wasnorm_wordpool.txt	LTP064	ltpFR	17	14	0	LABEL	790	n/a	0	0	0.5869140625	0.422607421875	upper	../fonts/zerothre.ttf
2683.718	n/a	WORD	1341859	wordpools/wasnorm_wordpool.txt	LTP064	ltpFR	17	14	0	FOLDER	588	n/a	0	0	0.5869140625	0.422607421875	upper	../fonts/zerothre.ttf
2687.768	n/a	WORD	1343884	wordpools/wasnorm_wordpool.txt	LTP064	ltpFR	17	14	0	CHARCOAL	281	n/a	0	0	0.5869140625	0.422607421875	upper	../fonts/zerothre.ttf
2693.528	n/a	REC_START	1346764	n/a	LTP064	ltpFR	17	14	n/a	n/a	n/a	n/a	n/a	n/a	n/a	n/a	n/a	n/a
2693.9	n/a	REC_WORD	1346950	wordpools/wasnorm_wordpool.txt	LTP064	ltpFR	17	14	0	JAM	748	n/a	0	n/a	n/a	n/a	n/a	n/a
2694.25	n/a	REC_WORD	1347125	wordpools/wasnorm_wordpool.txt	LTP064	ltpFR	17	14	0	LABEL	790	n/a	0	n/a	n/a	n/a	n/a	n/a
2694.612	n/a	REC_WORD	1347306	wordpools/wasnorm_wordpool.txt	LTP064	ltpFR	17	14	0	FOLDER	588	n/a	0	n/a	n/a	n/a	n/a	n/a
2695.318	n/a	REC_WORD	1347659	wordpools/wasnorm_wordpool.txt	LTP064	ltpFR	17	14	0	CHARCOAL	281	n/a	0	n/a	n/a	n/a	n/a	n/a
2696.784	n/a	REC_WORD	1348392	wordpools/wasnorm_wordpool.txt	LTP064	ltpFR	17	14	0	ORANGE	980	n/a	0	n/a	n/a	n/a	n/a	n/a
2697.34	n/a	REC_WORD	1348670	wordpools/wasnorm_wordpool.txt	LTP064	ltpFR	17	14	0	CASHIER	254	n/a	1	n/a	n/a	n/a	n/a	n/a
2698.166	n/a	REC_WORD	1349083	wordpools/wasnorm_wordpool.txt	LTP064	ltpFR	17	14	0	GLOBE	641	n/a	1	n/a	n/a	n/a	n/a	n/a
2698.832	n/a	REC_WORD	1349416	wordpools/wasnorm_wordpool.txt	LTP064	ltpFR	17	14	0	JAR	750	n/a	0	n/a	n/a	n/a	n/a	n/a
2699.66	n/a	REC_WORD	1349830	wordpools/wasnorm_wordpool.txt	LTP064	ltpFR	17	14	0	CHICKEN	297	n/a	1	n/a	n/a	n/a	n/a	n/a
2700.22	n/a	REC_WORD	1350110	wordpools/wasnorm_wordpool.txt	LTP064	ltpFR	17	14	0	VINE	1568	n/a	1	n/a	n/a	n/a	n/a	n/a
2700.918	n/a	REC_WORD	1350459	wordpools/wasnorm_wordpool.txt	LTP064	ltpFR	17	14	0	JUVENILE	767	n/a	1	n/a	n/a	n/a	n/a	n/a
2701.976	n/a	REC_WORD	1350988	wordpools/wasnorm_wordpool.txt	LTP064	ltpFR	17	14	0	WORLD	1622	n/a	1	n/a	n/a	n/a	n/a	n/a
2703.226	n/a	REC_WORD	1351613	wordpools/wasnorm_wordpool.txt	LTP064	ltpFR	17	14	0	VIKING	1565	n/a	1	n/a	n/a	n/a	n/a	n/a
2704.544	n/a	REC_WORD	1352272	wordpools/wasnorm_wordpool.txt	LTP064	ltpFR	17	14	0	WHISTLE	1606	n/a	0	n/a	n/a	n/a	n/a	n/a
2705.43	n/a	REC_WORD	1352715	wordpools/wasnorm_wordpool.txt	LTP064	ltpFR	17	14	0	FINGERNAIL	568	n/a	0	n/a	n/a	n/a	n/a	n/a
2706.408	n/a	REC_WORD	1353204	wordpools/wasnorm_wordpool.txt	LTP064	ltpFR	17	14	0	PALM	1007	n/a	0	n/a	n/a	n/a	n/a	n/a
2783.2	n/a	WORD	1391600	wordpools/wasnorm_wordpool.txt	LTP064	ltpFR	17	15	1	CRIB	407	n/a	0	1	0.412841796875	0.57763671875	lower	../fonts/amplitud.ttf
2787.192	n/a	WORD	1393596	wordpools/wasnorm_wordpool.txt	LTP064	ltpFR	17	15	1	ROBBER	1197	n/a	1	1	0.412841796875	0.57763671875	lower	../fonts/amplitud.ttf
2791.15	n/a	WORD	1395575	wordpools/wasnorm_wordpool.txt	LTP064	ltpFR	17	15	1	ATOM	55	n/a	0	1	0.412841796875	0.57763671875	lower	../fonts/amplitud.ttf
2795.082	n/a	WORD	1397541	wordpools/wasnorm_wordpool.txt	LTP064	ltpFR	17	15	1	NEUTRON	947	n/a	0	1	0.412841796875	0.57763671875	lower	../fonts/amplitud.ttf
2799.092	n/a	WORD	1399546	wordpools/wasnorm_wordpool.txt	LTP064	ltpFR	17	15	1	TELESCOPE	1446	n/a	0	1	0.412841796875	0.57763671875	lower	../fonts/amplitud.ttf
2803.108	n/a	WORD	1401554	wordpools/wasnorm_wordpool.txt	LTP064	ltpFR	17	15	1	PEPPER	1047	n/a	0	1	0.412841796875	0.57763671875	lower	../fonts/amplitud.ttf
2807.308	n/a	WORD	1403654	wordpools/wasnorm_wordpool.txt	LTP064	ltpFR	17	15	1	ONION	977	n/a	0	1	0.412841796875	0.57763671875	lower	../fonts/amplitud.ttf
2811.208	n/a	WORD	1405604	wordpools/wasnorm_wordpool.txt	LTP064	ltpFR	17	15	1	FIN	566	n/a	0	1	0.412841796875	0.57763671875	lower	../fonts/amplitud.ttf
2815.082	n/a	WORD	1407541	wordpools/wasnorm_wordpool.txt	LTP064	ltpFR	17	15	1	GOOSE	649	n/a	1	1	0.412841796875	0.57763671875	lower	../fonts/amplitud.ttf
2819.158	n/a	WORD	1409579	wordpools/wasnorm_wordpool.txt	LTP064	ltpFR	17	15	1	LOFT	840	n/a	0	1	0.412841796875	0.57763671875	lower	../fonts/amplitud.ttf
2823.124	n/a	WORD	1411562	wordpools/wasnorm_wordpool.txt	LTP064	ltpFR	17	15	1	PERISCOPE	1050	n/a	0	1	0.412841796875	0.57763671875	lower	../fonts/amplitud.ttf
2827.008	n/a	WORD	1413504	wordpools/wasnorm_wordpool.txt	LTP064	ltpFR	17	15	1	CHEMIST	292	n/a	1	1	0.412841796875	0.57763671875	lower	../fonts/amplitud.ttf
2830.908	n/a	WORD	1415454	wordpools/wasnorm_wordpool.txt	LTP064	ltpFR	17	15	1	MICROSCOPE	891	n/a	0	1	0.412841796875	0.57763671875	lower	../fonts/amplitud.ttf
2834.982	n/a	WORD	1417491	wordpools/wasnorm_wordpool.txt	LTP064	ltpFR	17	15	1	SPHINX	1349	n/a	0	1	0.412841796875	0.57763671875	lower	../fonts/amplitud.ttf
2839.066	n/a	WORD	1419533	wordpools/wasnorm_wordpool.txt	LTP064	ltpFR	17	15	1	OUTLAW	989	n/a	1	1	0.412841796875	0.57763671875	lower	../fonts/amplitud.ttf
2843.132	n/a	WORD	1421566	wordpools/wasnorm_wordpool.txt	LTP064	ltpFR	17	15	1	JAW	751	n/a	0	1	0.412841796875	0.57763671875	lower	../fonts/amplitud.ttf
2848.95	n/a	REC_START	1424475	n/a	LTP064	ltpFR	17	15	n/a	n/a	n/a	n/a	n/a	n/a	n/a	n/a	n/a	n/a
2849.16	n/a	REC_WORD	1424580	wordpools/wasnorm_wordpool.txt	LTP064	ltpFR	17	15	1	MICROSCOPE	891	n/a	0	n/a	n/a	n/a	n/a	n/a
2849.8	n/a	REC_WORD	1424900	wordpools/wasnorm_wordpool.txt	LTP064	ltpFR	17	15	1	SPHINX	1349	n/a	0	n/a	n/a	n/a	n/a	n/a
2850.53	n/a	REC_WORD	1425265	wordpools/wasnorm_wordpool.txt	LTP064	ltpFR	17	15	1	OUTLAW	989	n/a	1	n/a	n/a	n/a	n/a	n/a
2851.096	n/a	REC_WORD	1425548	wordpools/wasnorm_wordpool.txt	LTP064	ltpFR	17	15	1	JAW	751	n/a	0	n/a	n/a	n/a	n/a	n/a
2851.626	n/a	REC_WORD	1425813	wordpools/wasnorm_wordpool.txt	LTP064	ltpFR	17	15	1	CHEMIST	292	n/a	1	n/a	n/a	n/a	n/a	n/a
2852.156	n/a	REC_WORD	1426078	wordpools/wasnorm_wordpool.txt	LTP064	ltpFR	17	15	1	PERISCOPE	1050	n/a	0	n/a	n/a	n/a	n/a	n/a
2852.956	n/a	REC_WORD	1426478	wordpools/wasnorm_wordpool.txt	LTP064	ltpFR	17	15	1	GOOSE	649	n/a	1	n/a	n/a	n/a	n/a	n/a
2853.386	n/a	REC_WORD	1426693	wordpools/wasnorm_wordpool.txt	LTP064	ltpFR	17	15	1	LOFT	840	n/a	0	n/a	n/a	n/a	n/a	n/a
2854.042	n/a	REC_WORD	1427021	wordpools/wasnorm_wordpool.txt	LTP064	ltpFR	17	15	1	TELESCOPE	1446	n/a	0	n/a	n/a	n/a	n/a	n/a
2854.936	n/a	REC_WORD	1427468	wordpools/wasnorm_wordpool.txt	LTP064	ltpFR	17	15	1	PEPPER	1047	n/a	0	n/a	n/a	n/a	n/a	n/a
2855.904	n/a	REC_WORD	1427952	wordpools/wasnorm_wordpool.txt	LTP064	ltpFR	17	15	0	ORANGE	980	n/a	0	n/a	n/a	n/a	n/a	n/a
2856.702	n/a	REC_WORD	1428351	wordpools/wasnorm_wordpool.txt	LTP064	ltpFR	17	15	1	FIN	566	n/a	0	n/a	n/a	n/a	n/a	n/a
2859.326	n/a	REC_WORD	1429663	wordpools/wasnorm_wordpool.txt	LTP064	ltpFR	17	15	1	ONION	977	n/a	0	n/a	n/a	n/a	n/a	n/a
2860.538	n/a	REC_WORD	1430269	wordpools/wasnorm_wordpool.txt	LTP064	ltpFR	17	15	1	FIN	566	n/a	0	n/a	n/a	n/a	n/a	n/a
2863.168	n/a	REC_WORD	1431584	wordpools/wasnorm_wordpool.txt	LTP064	ltpFR	17	15	1	ATOM	55	n/a	0	n/a	n/a	n/a	n/a	n/a
2863.518	n/a	REC_WORD	1431759	wordpools/wasnorm_wordpool.txt	LTP064	ltpFR	17	15	1	NEUTRON	947	n/a	0	n/a	n/a	n/a	n/a	n/a
2864.5	n/a	REC_WORD	1432250	wordpools/wasnorm_wordpool.txt	LTP064	ltpFR	17	15	1	ROBBER	1197	n/a	1	n/a	n/a	n/a	n/a	n/a
2865.162	n/a	REC_WORD	1432581	wordpools/wasnorm_wordpool.txt	LTP064	ltpFR	17	15	1	CRIB	407	n/a	0	n/a	n/a	n/a	n/a	n/a
2937.454	n/a	WORD	1468727	wordpools/wasnorm_wordpool.txt	LTP064	ltpFR	17	16	0	ARCHITECT	36	n/a	1	0	0.5869140625	0.422607421875	upper	../fonts/zerothre.ttf
2941.394	n/a	WORD	1470697	wordpools/wasnorm_wordpool.txt	LTP064	ltpFR	17	16	0	GOAT	644	n/a	1	0	0.5869140625	0.422607421875	upper	../fonts/zerothre.ttf
2945.486	n/a	WORD	1472743	wordpools/wasnorm_wordpool.txt	LTP064	ltpFR	17	16	0	MILK	895	n/a	1	0	0.5869140625	0.422607421875	upper	../fonts/zerothre.ttf
2949.536	n/a	WORD	1474768	wordpools/wasnorm_wordpool.txt	LTP064	ltpFR	17	16	0	BUSH	202	n/a	1	0	0.5869140625	0.422607421875	upper	../fonts/zerothre.ttf
2953.686	n/a	WORD	1476843	wordpools/wasnorm_wordpool.txt	LTP064	ltpFR	17	16	0	FIG	563	n/a	0	0	0.5869140625	0.422607421875	upper	../fonts/zerothre.ttf
2957.828	n/a	WORD	1478914	wordpools/wasnorm_wordpool.txt	LTP064	ltpFR	17	16	0	HEAD	695	n/a	1	0	0.5869140625	0.422607421875	upper	../fonts/zerothre.ttf
2961.896	n/a	WORD	1480948	wordpools/wasnorm_wordpool.txt	LTP064	ltpFR	17	16	0	NIGHTGOWN	953	n/a	1	0	0.5869140625	0.422607421875	upper	../fonts/zerothre.ttf
2965.854	n/a	WORD	1482927	wordpools/wasnorm_wordpool.txt	LTP064	ltpFR	17	16	0	SLEEVE	1324	n/a	1	0	0.5869140625	0.422607421875	upper	../fonts/zerothre.ttf
2969.72	n/a	WORD	1484860	wordpools/wasnorm_wordpool.txt	LTP064	ltpFR	17	16	0	CAFE	216	n/a	0	0	0.5869140625	0.422607421875	upper	../fonts/zerothre.ttf
2973.686	n/a	WORD	1486843	wordpools/wasnorm_wordpool.txt	LTP064	ltpFR	17	16	0	VEAL	1551	n/a	1	0	0.5869140625	0.422607421875	upper	../fonts/zerothre.ttf
2977.636	n/a	WORD	1488818	wordpools/wasnorm_wordpool.txt	LTP064	ltpFR	17	16	0	TIDE	1465	n/a	1	0	0.5869140625	0.422607421875	upper	../fonts/zerothre.ttf
2981.71	n/a	WORD	1490855	wordpools/wasnorm_wordpool.txt	LTP064	ltpFR	17	16	0	BEET	115	n/a	1	0	0.5869140625	0.422607421875	upper	../fonts/zerothre.ttf
2985.752	n/a	WORD	1492876	wordpools/wasnorm_wordpool.txt	LTP064	ltpFR	17	16	0	SHEEP	1278	n/a	1	0	0.5869140625	0.422607421875	upper	../fonts/zerothre.ttf
2989.954	n/a	WORD	1494977	wordpools/wasnorm_wordpool.txt	LTP064	ltpFR	17	16	0	CAP	236	n/a	0	0	0.5869140625	0.422607421875	upper	../fonts/zerothre.ttf
2993.986	n/a	WORD	1496993	wordpools/wasnorm_wordpool.txt	LTP064	ltpFR	17	16	0	FACTORY	548	n/a	1	0	0.5869140625	0.422607421875	upper	../fonts/zerothre.ttf
2998.002	n/a	WORD	1499001	wordpools/wasnorm_wordpool.txt	LTP064	ltpFR	17	16	0	BRUNETTE	181	n/a	1	0	0.5869140625	0.422607421875	upper	../fonts/zerothre.ttf
3003.702	n/a	REC_START	1501851	n/a	LTP064	ltpFR	17	16	n/a	n/a	n/a	n/a	n/a	n/a	n/a	n/a	n/a	n/a
3003.928	n/a	REC_WORD	1501964	wordpools/wasnorm_wordpool.txt	LTP064	ltpFR	17	16	0	SHEEP	1278	n/a	1	n/a	n/a	n/a	n/a	n/a
3004.39	n/a	REC_WORD	1502195	wordpools/wasnorm_wordpool.txt	LTP064	ltpFR	17	16	0	CAP	236	n/a	0	n/a	n/a	n/a	n/a	n/a
3004.714	n/a	REC_WORD	1502357	wordpools/wasnorm_wordpool.txt	LTP064	ltpFR	17	16	0	FACTORY	548	n/a	1	n/a	n/a	n/a	n/a	n/a
3005.326	n/a	REC_WORD	1502663	wordpools/wasnorm_wordpool.txt	LTP064	ltpFR	17	16	0	BRUNETTE	181	n/a	1	n/a	n/a	n/a	n/a	n/a
3005.928	n/a	REC_WORD	1502964	wordpools/wasnorm_wordpool.txt	LTP064	ltpFR	17	16	0	CAFE	216	n/a	0	n/a	n/a	n/a	n/a	n/a
3006.568	n/a	REC_WORD	1503284	wordpools/wasnorm_wordpool.txt	LTP064	ltpFR	17	16	0	VEAL	1551	n/a	1	n/a	n/a	n/a	n/a	n/a
3007.938	n/a	REC_WORD	1503969	wordpools/wasnorm_wordpool.txt	LTP064	ltpFR	17	16	0	TIDE	1465	n/a	1	n/a	n/a	n/a	n/a	n/a
3009.16	n/a	REC_WORD	1504580	wordpools/wasnorm_wordpool.txt	LTP064	ltpFR	17	16	0	BEET	115	n/a	1	n/a	n/a	n/a	n/a	n/a
3010.398	n/a	REC_WORD	1505199	wordpools/wasnorm_wordpool.txt	LTP064	ltpFR	17	16	0	GOAT	644	n/a	1	n/a	n/a	n/a	n/a	n/a
3010.962	n/a	REC_WORD	1505481	wordpools/wasnorm_wordpool.txt	LTP064	ltpFR	17	16	0	ARCHITECT	36	n/a	1	n/a	n/a	n/a	n/a	n/a
3012.004	n/a	REC_WORD	1506002	wordpools/wasnorm_wordpool.txt	LTP064	ltpFR	17	16	0	MILK	895	n/a	1	n/a	n/a	n/a	n/a	n/a
3012.982	n/a	REC_WORD	1506491	wordpools/wasnorm_wordpool.txt	LTP064	ltpFR	17	16	0	BUSH	202	n/a	1	n/a	n/a	n/a	n/a	n/a
3021.798	n/a	REC_WORD	1510899	wordpools/wasnorm_wordpool.txt	LTP064	ltpFR	17	16	0	HEAD	695	n/a	1	n/a	n/a	n/a	n/a	n/a
3022.294	n/a	REC_WORD	1511147	wordpools/wasnorm_wordpool.txt	LTP064	ltpFR	17	16	0	FIG	563	n/a	0	n/a	n/a	n/a	n/a	n/a
3022.914	n/a	REC_WORD	1511457	wordpools/wasnorm_wordpool.txt	LTP064	ltpFR	17	16	0	NIGHTGOWN	953	n/a	1	n/a	n/a	n/a	n/a	n/a
3023.8	n/a	REC_WORD	1511900	wordpools/wasnorm_wordpool.txt	LTP064	ltpFR	17	16	0	SLEEVE	1324	n/a	1	n/a	n/a	n/a	n/a	n/a
3097.26	n/a	REC_START	1548630	n/a	LTP064	ltpFR	17	n/a	n/a	n/a	n/a	n/a	n/a	n/a	n/a	n/a	n/a	n/a
3098.078	n/a	FFR_REC_WORD	1549039	wordpools/wasnorm_wordpool.txt	LTP064	ltpFR	17	n/a	0	HEAD	695	n/a	1	n/a	n/a	n/a	n/a	n/a
3098.482	n/a	FFR_REC_WORD	1549241	wordpools/wasnorm_wordpool.txt	LTP064	ltpFR	17	n/a	0	FIG	563	n/a	0	n/a	n/a	n/a	n/a	n/a
3099.062	n/a	FFR_REC_WORD	1549531	wordpools/wasnorm_wordpool.txt	LTP064	ltpFR	17	n/a	0	SLEEVE	1324	n/a	1	n/a	n/a	n/a	n/a	n/a
3099.918	n/a	FFR_REC_WORD	1549959	wordpools/wasnorm_wordpool.txt	LTP064	ltpFR	17	n/a	0	NIGHTGOWN	953	n/a	1	n/a	n/a	n/a	n/a	n/a
3101.06	n/a	FFR_REC_WORD	1550530	wordpools/wasnorm_wordpool.txt	LTP064	ltpFR	17	n/a	0	GOAT	644	n/a	1	n/a	n/a	n/a	n/a	n/a
3101.522	n/a	FFR_REC_WORD	1550761	wordpools/wasnorm_wordpool.txt	LTP064	ltpFR	17	n/a	0	ARCHITECT	36	n/a	1	n/a	n/a	n/a	n/a	n/a
3102.288	n/a	FFR_REC_WORD	1551144	wordpools/wasnorm_wordpool.txt	LTP064	ltpFR	17	n/a	0	MILK	895	n/a	1	n/a	n/a	n/a	n/a	n/a
3103.046	n/a	FFR_REC_WORD	1551523	wordpools/wasnorm_wordpool.txt	LTP064	ltpFR	17	n/a	0	BUSH	202	n/a	1	n/a	n/a	n/a	n/a	n/a
3109.416	n/a	FFR_REC_WORD	1554708	wordpools/wasnorm_wordpool.txt	LTP064	ltpFR	17	n/a	1	ATOM	55	n/a	0	n/a	n/a	n/a	n/a	n/a
3109.85	n/a	FFR_REC_WORD	1554925	wordpools/wasnorm_wordpool.txt	LTP064	ltpFR	17	n/a	1	NEUTRON	947	n/a	0	n/a	n/a	n/a	n/a	n/a
3110.554	n/a	FFR_REC_WORD	1555277	wordpools/wasnorm_wordpool.txt	LTP064	ltpFR	17	n/a	1	CRIB	407	n/a	0	n/a	n/a	n/a	n/a	n/a
3111.258	n/a	FFR_REC_WORD	1555629	wordpools/wasnorm_wordpool.txt	LTP064	ltpFR	17	n/a	1	ROBBER	1197	n/a	1	n/a	n/a	n/a	n/a	n/a
3114.566	n/a	FFR_REC_WORD	1557283	wordpools/wasnorm_wordpool.txt	LTP064	ltpFR	17	n/a	-1	SURGEON	1413	n/a	-1	n/a	n/a	n/a	n/a	n/a
3117.966	n/a	FFR_REC_WORD	1558983	wordpools/wasnorm_wordpool.txt	LTP064	ltpFR	17	n/a	n/a	SCALPEL	1243	n/a	n/a	n/a	n/a	n/a	n/a	n/a
3120.124	n/a	FFR_REC_WORD	1560062	wordpools/wasnorm_wordpool.txt	LTP064	ltpFR	17	n/a	-1	CLOSET	326	n/a	-1	n/a	n/a	n/a	n/a	n/a
3122.314	n/a	FFR_REC_WORD	1561157	wordpools/wasnorm_wordpool.txt	LTP064	ltpFR	17	n/a	-1	DRAWER	493	n/a	-1	n/a	n/a	n/a	n/a	n/a
3123.626	n/a	FFR_REC_WORD	1561813	wordpools/wasnorm_wordpool.txt	LTP064	ltpFR	17	n/a	-1	RAISIN	1163	n/a	-1	n/a	n/a	n/a	n/a	n/a
3124.868	n/a	FFR_REC_WORD	1562434	wordpools/wasnorm_wordpool.txt	LTP064	ltpFR	17	n/a	-1	PLAZA	1088	n/a	-1	n/a	n/a	n/a	n/a	n/a
3126.284	n/a	FFR_REC_WORD	1563142	wordpools/wasnorm_wordpool.txt	LTP064	ltpFR	17	n/a	-1	CART	250	n/a	-1	n/a	n/a	n/a	n/a	n/a
3130.182	n/a	FFR_REC_WORD	1565091	wordpools/wasnorm_wordpool.txt	LTP064	ltpFR	17	n/a	-1	GANGSTER	620	n/a	-1	n/a	n/a	n/a	n/a	n/a
3131.354	n/a	FFR_REC_WORD	1565677	wordpools/wasnorm_wordpool.txt	LTP064	ltpFR	17	n/a	-1	DOLPHIN	483	n/a	-1	n/a	n/a	n/a	n/a	n/a
3132.446	n/a	FFR_REC_WORD	1566223	wordpools/wasnorm_wordpool.txt	LTP064	ltpFR	17	n/a	1	PORPOISE	1109	n/a	1	n/a	n/a	n/a	n/a	n/a
3133.528	n/a	FFR_REC_WORD	1566764	wordpools/wasnorm_wordpool.txt	LTP064	ltpFR	17	n/a	1	FOUNTAIN	597	n/a	0	n/a	n/a	n/a	n/a	n/a
3134.84	n/a	FFR_REC_WORD	1567420	wordpools/wasnorm_wordpool.txt	LTP064	ltpFR	17	n/a	1	PAIL	1002	n/a	0	n/a	n/a	n/a	n/a	n/a
3138.756	n/a	FFR_REC_WORD	1569378	wordpools/wasnorm_wordpool.txt	LTP064	ltpFR	17	n/a	1	BOXER	160	n/a	1	n/a	n/a	n/a	n/a	n/a
3146.146	n/a	FFR_REC_WORD	1573073	wordpools/wasnorm_wordpool.txt	LTP064	ltpFR	17	n/a	1	BANKER	84	n/a	1	n/a	n/a	n/a	n/a	n/a
3147.048	n/a	FFR_REC_WORD	1573524	wordpools/wasnorm_wordpool.txt	LTP064	ltpFR	17	n/a	1	TIGER	1467	n/a	1	n/a	n/a	n/a	n/a	n/a
3148.02	n/a	FFR_REC_WORD	1574010	wordpools/wasnorm_wordpool.txt	LTP064	ltpFR	17	n/a	0	PLASTER	1085	n/a	1	n/a	n/a	n/a	n/a	n/a
3149.178	n/a	FFR_REC_WORD	1574589	wordpools/wasnorm_wordpool.txt	LTP064	ltpFR	17	n/a	0	CANVAS	234	n/a	1	n/a	n/a	n/a	n/a	n/a
3150.84	n/a	FFR_REC_WORD	1575420	wordpools/wasnorm_wordpool.txt	LTP064	ltpFR	17	n/a	0	PRAIRIE	1118	n/a	1	n/a	n/a	n/a	n/a	n/a
3152.048	n/a	FFR_REC_WORD	1576024	wordpools/wasnorm_wordpool.txt	LTP064	ltpFR	17	n/a	0	YARD	1630	n/a	1	n/a	n/a	n/a	n/a	n/a
3154.028	n/a	FFR_REC_WORD	1577014	wordpools/wasnorm_wordpool.txt	LTP064	ltpFR	17	n/a	0	MONEY	908	n/a	0	n/a	n/a	n/a	n/a	n/a
3156.314	n/a	FFR_REC_WORD	1578157	wordpools/wasnorm_wordpool.txt	LTP064	ltpFR	17	n/a	0	DUSTPAN	509	n/a	1	n/a	n/a	n/a	n/a	n/a
3157.714	n/a	FFR_REC_WORD	1578857	wordpools/wasnorm_wordpool.txt	LTP064	ltpFR	17	n/a	-1	RAKE	1164	n/a	-1	n/a	n/a	n/a	n/a	n/a
3158.858	n/a	FFR_REC_WORD	1579429	wordpools/wasnorm_wordpool.txt	LTP064	ltpFR	17	n/a	-1	SEAGULL	1261	n/a	-1	n/a	n/a	n/a	n/a	n/a
3160.524	n/a	FFR_REC_WORD	1580262	wordpools/wasnorm_wordpool.txt	LTP064	ltpFR	17	n/a	-1	BUGLE	189	n/a	-1	n/a	n/a	n/a	n/a	n/a
3164.086	n/a	FFR_REC_WORD	1582043	wordpools/wasnorm_wordpool.txt	LTP064	ltpFR	17	n/a	0	FINGERNAIL	568	n/a	0	n/a	n/a	n/a	n/a	n/a
3165.472	n/a	FFR_REC_WORD	1582736	wordpools/wasnorm_wordpool.txt	LTP064	ltpFR	17	n/a	0	PALM	1007	n/a	0	n/a	n/a	n/a	n/a	n/a
3166.514	n/a	FFR_REC_WORD	1583257	wordpools/wasnorm_wordpool.txt	LTP064	ltpFR	17	n/a	0	VIKING	1565	n/a	1	n/a	n/a	n/a	n/a	n/a
3167.782	n/a	FFR_REC_WORD	1583891	wordpools/wasnorm_wordpool.txt	LTP064	ltpFR	17	n/a	0	WHISTLE	1606	n/a	0	n/a	n/a	n/a	n/a	n/a
3168.98	n/a	FFR_REC_WORD	1584490	wordpools/wasnorm_wordpool.txt	LTP064	ltpFR	17	n/a	-1	ORCHID	982	n/a	-1	n/a	n/a	n/a	n/a	n/a
3181.98	n/a	FFR_REC_WORD	1590990	wordpools/wasnorm_wordpool.txt	LTP064	ltpFR	17	n/a	1	BOSS	152	n/a	1	n/a	n/a	n/a	n/a	n/a
3183.048	n/a	FFR_REC_WORD	1591524	wordpools/wasnorm_wordpool.txt	LTP064	ltpFR	17	n/a	1	YOUTH	1634	n/a	1	n/a	n/a	n/a	n/a	n/a
3184.456	n/a	FFR_REC_WORD	1592228	wordpools/wasnorm_wordpool.txt	LTP064	ltpFR	17	n/a	1	BEDROOM	111	n/a	0	n/a	n/a	n/a	n/a	n/a
3185.488	n/a	FFR_REC_WORD	1592744	wordpools/wasnorm_wordpool.txt	LTP064	ltpFR	17	n/a	1	HOUSE	725	n/a	0	n/a	n/a	n/a	n/a	n/a
3186.86	n/a	FFR_REC_WORD	1593430	wordpools/wasnorm_wordpool.txt	LTP064	ltpFR	17	n/a	1	KID	775	n/a	0	n/a	n/a	n/a	n/a	n/a
3188.122	n/a	FFR_REC_WORD	1594061	wordpools/wasnorm_wordpool.txt	LTP064	ltpFR	17	n/a	1	HAIL	676	n/a	0	n/a	n/a	n/a	n/a	n/a
3189.368	n/a	FFR_REC_WORD	1594684	wordpools/wasnorm_wordpool.txt	LTP064	ltpFR	17	n/a	n/a	THIEF	1456	n/a	n/a	n/a	n/a	n/a	n/a	n/a
3194.534	n/a	FFR_REC_WORD	1597267	wordpools/wasnorm_wordpool.txt	LTP064	ltpFR	17	n/a	1	PADDLE	1000	n/a	0	n/a	n/a	n/a	n/a	n/a
3203.462	n/a	FFR_REC_WORD	1601731	wordpools/wasnorm_wordpool.txt	LTP064	ltpFR	17	n/a	0	EMPEROR	529	n/a	1	n/a	n/a	n/a	n/a	n/a
3204.686	n/a	FFR_REC_WORD	1602343	wordpools/wasnorm_wordpool.txt	LTP064	ltpFR	17	n/a	0	DICTATOR	462	n/a	3	n/a	n/a	n/a	n/a	n/a
3205.828	n/a	FFR_REC_WORD	1602914	wordpools/wasnorm_wordpool.txt	LTP064	ltpFR	17	n/a	0	TANGERINE	1431	n/a	1	n/a	n/a	n/a	n/a	n/a
3207.274	n/a	FFR_REC_WORD	1603637	wordpools/wasnorm_wordpool.txt	LTP064	ltpFR	17	n/a	0	BANNER	85	n/a	1	n/a	n/a	n/a	n/a	n/a
3208.95	n/a	FFR_REC_WORD	1604475	wordpools/wasnorm_wordpool.txt	LTP064	ltpFR	17	n/a	-1	WOLF	1619	n/a	-1	n/a	n/a	n/a	n/a	n/a
3210.222	n/a	FFR_REC_WORD	1605111	wordpools/wasnorm_wordpool.txt	LTP064	ltpFR	17	n/a	-1	ANTEATER	26	n/a	-1	n/a	n/a	n/a	n/a	n/a
3212.084	n/a	FFR_REC_WORD	1606042	wordpools/wasnorm_wordpool.txt	LTP064	ltpFR	17	n/a	n/a	BANJO	82	n/a	n/a	n/a	n/a	n/a	n/a	n/a
3215.302	n/a	FFR_REC_WORD	1607651	wordpools/wasnorm_wordpool.txt	LTP064	ltpFR	17	n/a	-1	FIDDLE	561	n/a	-1	n/a	n/a	n/a	n/a	n/a
3219.004	n/a	FFR_REC_WORD	1609502	wordpools/wasnorm_wordpool.txt	LTP064	ltpFR	17	n/a	-1	PICK	1058	n/a	-1	n/a	n/a	n/a	n/a	n/a
3224.296	n/a	FFR_REC_WORD	1612148	wordpools/wasnorm_wordpool.txt	LTP064	ltpFR	17	n/a	-1	ATMOSPHERE	54	n/a	-1	n/a	n/a	n/a	n/a	n/a
3225.568	n/a	FFR_REC_WORD	1612784	wordpools/wasnorm_wordpool.txt	LTP064	ltpFR	17	n/a	-1	DANDELION	438	n/a	-1	n/a	n/a	n/a	n/a	n/a
3226.78	n/a	FFR_REC_WORD	1613390	wordpools/wasnorm_wordpool.txt	LTP064	ltpFR	17	n/a	-1	THORN	1459	n/a	-1	n/a	n/a	n/a	n/a	n/a
3228.298	n/a	FFR_REC_WORD	1614149	wordpools/wasnorm_wordpool.txt	LTP064	ltpFR	17	n/a	-1	ACROBAT	4	n/a	-1	n/a	n/a	n/a	n/a	n/a
3229.848	n/a	FFR_REC_WORD	1614924	wordpools/wasnorm_wordpool.txt	LTP064	ltpFR	17	n/a	0	GLOBE	641	n/a	1	n/a	n/a	n/a	n/a	n/a
3231.022	n/a	FFR_REC_WORD	1615511	wordpools/wasnorm_wordpool.txt	LTP064	ltpFR	17	n/a	0	CASHIER	254	n/a	1	n/a	n/a	n/a	n/a	n/a
3232.318	n/a	FFR_REC_WORD	1616159	wordpools/wasnorm_wordpool.txt	LTP064	ltpFR	17	n/a	0	JAR	750	n/a	0	n/a	n/a	n/a	n/a	n/a
3233.616	n/a	FFR_REC_WORD	1616808	wordpools/wasnorm_wordpool.txt	LTP064	ltpFR	17	n/a	0	ORANGE	980	n/a	0	n/a	n/a	n/a	n/a	n/a
3240.176	n/a	FFR_REC_WORD	1620088	wordpools/wasnorm_wordpool.txt	LTP064	ltpFR	17	n/a	0	WORLD	1622	n/a	1	n/a	n/a	n/a	n/a	n/a
3246.982	n/a	FFR_REC_WORD	1623491	wordpools/wasnorm_wordpool.txt	LTP064	ltpFR	17	n/a	1	NEUTRON	947	n/a	0	n/a	n/a	n/a	n/a	n/a
3248.902	n/a	FFR_REC_WORD	1624451	wordpools/wasnorm_wordpool.txt	LTP064	ltpFR	17	n/a	1	NUCLEUS	961	n/a	0	n/a	n/a	n/a	n/a	n/a
3251.43	n/a	FFR_REC_WORD	1625715	wordpools/wasnorm_wordpool.txt	LTP064	ltpFR	17	n/a	1	FOSSIL	596	n/a	0	n/a	n/a	n/a	n/a	n/a
3253.142	n/a	FFR_REC_WORD	1626571	wordpools/wasnorm_wordpool.txt	LTP064	ltpFR	17	n/a	1	BOOK	149	n/a	0	n/a	n/a	n/a	n/a	n/a
3264.882	n/a	FFR_REC_WORD	1632441	wordpools/wasnorm_wordpool.txt	LTP064	ltpFR	17	n/a	0	CAPITAL	238	n/a	1	n/a	n/a	n/a	n/a	n/a
3270.762	n/a	FFR_REC_WORD	1635381	wordpools/wasnorm_wordpool.txt	LTP064	ltpFR	17	n/a	-1	DOLPHIN	483	n/a	-1	n/a	n/a	n/a	n/a	n/a
3274.8	n/a	FFR_REC_WORD	1637400	wordpools/wasnorm_wordpool.txt	LTP064	ltpFR	17	n/a	1	POSSUM	1112	n/a	1	n/a	n/a	n/a	n/a	n/a
3275.988	n/a	FFR_REC_WORD	1637994	wordpools/wasnorm_wordpool.txt	LTP064	ltpFR	17	n/a	1	POLITICIAN	1099	n/a	1	n/a	n/a	n/a	n/a	n/a
3278.76	n/a	FFR_REC_WORD	1639380	wordpools/wasnorm_wordpool.txt	LTP064	ltpFR	17	n/a	0	ORANGE	980	n/a	0	n/a	n/a	n/a	n/a	n/a
3287.412	n/a	FFR_REC_WORD	1643706	wordpools/wasnorm_wordpool.txt	LTP064	ltpFR	17	n/a	0	LAWN	805	n/a	1	n/a	n/a	n/a	n/a	n/a
3297.65	n/a	FFR_REC_WORD	1648825	wordpools/wasnorm_wordpool.txt	LTP064	ltpFR	17	n/a	0	BLUEBERRY	140	n/a	1	n/a	n/a	n/a	n/a	n/a
3305.232	n/a	FFR_REC_WORD	1652616	wordpools/wasnorm_wordpool.txt	LTP064	ltpFR	17	n/a	0	LAWYER	806	n/a	1	n/a	n/a	n/a	n/a	n/a
3317.52	n/a	FFR_REC_WORD	1658760	wordpools/wasnorm_wordpool.txt	LTP064	ltpFR	17	n/a	1	CHEMIST	292	n/a	1	n/a	n/a	n/a	n/a	n/a
3318.598	n/a	FFR_REC_WORD	1659299	wordpools/wasnorm_wordpool.txt	LTP064	ltpFR	17	n/a	1	PERISCOPE	1050	n/a	0	n/a	n/a	n/a	n/a	n/a
3320.308	n/a	FFR_REC_WORD	1660154	wordpools/wasnorm_wordpool.txt	LTP064	ltpFR	17	n/a	1	GOOSE	649	n/a	1	n/a	n/a	n/a	n/a	n/a
3321.466	n/a	FFR_REC_WORD	1660733	wordpools/wasnorm_wordpool.txt	LTP064	ltpFR	17	n/a	1	LOFT	840	n/a	0	n/a	n/a	n/a	n/a	n/a
3322.892	n/a	FFR_REC_WORD	1661446	wordpools/wasnorm_wordpool.txt	LTP064	ltpFR	17	n/a	1	TELESCOPE	1446	n/a	0	n/a	n/a	n/a	n/a	n/a
3324.21	n/a	FFR_REC_WORD	1662105	wordpools/wasnorm_wordpool.txt	LTP064	ltpFR	17	n/a	1	PEPPER	1047	n/a	0	n/a	n/a	n/a	n/a	n/a
3325.512	n/a	FFR_REC_WORD	1662756	wordpools/wasnorm_wordpool.txt	LTP064	ltpFR	17	n/a	1	ONION	977	n/a	0	n/a	n/a	n/a	n/a	n/a
3326.614	n/a	FFR_REC_WORD	1663307	wordpools/wasnorm_wordpool.txt	LTP064	ltpFR	17	n/a	1	FIN	566	n/a	0	n/a	n/a	n/a	n/a	n/a
3367.02	n/a	FFR_REC_WORD	1683510	wordpools/wasnorm_wordpool.txt	LTP064	ltpFR	17	n/a	1	JAW	751	n/a	0	n/a	n/a	n/a	n/a	n/a
3396.732	n/a	FFR_REC_WORD	1698366	wordpools/wasnorm_wordpool.txt	LTP064	ltpFR	17	n/a	1	SHOULDER	1294	n/a	0	n/a	n/a	n/a	n/a	n/a
3440.892	n/a	REC_START	1720446	n/a	LTP064	ltpFR	17	1	n/a	n/a	n/a	n/a	n/a	n/a	n/a	n/a	n/a	n/a
3440.924	n/a	RECOG_TARGET	1720462	n/a	LTP064	ltpFR	17	1	1	SWIMMER	1420	3	1	n/a	n/a	n/a	n/a	n/a
3443.266	n/a	RECOG_RESP	1721633	n/a	LTP064	ltpFR	17	1	1	SWIMMER	1420	n/a	1	n/a	n/a	n/a	n/a	n/a
3444.254	n/a	RECOG_CONF	1722127	n/a	LTP064	ltpFR	17	1	1	SWIMMER	1420	3	1	n/a	n/a	n/a	n/a	n/a
3445.798	n/a	RECOG_TARGET	1722899	n/a	LTP064	ltpFR	17	1	1	NEUTRON	947	4	0	n/a	n/a	n/a	n/a	n/a
3446.328	n/a	RECOG_RESP	1723164	n/a	LTP064	ltpFR	17	1	1	NEUTRON	947	n/a	0	n/a	n/a	n/a	n/a	n/a
3447.158	n/a	RECOG_CONF	1723579	n/a	LTP064	ltpFR	17	1	1	NEUTRON	947	4	0	n/a	n/a	n/a	n/a	n/a
3448.49	n/a	RECOG_LURE	1724245	n/a	LTP064	ltpFR	17	1	n/a	JEEP	753	3	n/a	n/a	n/a	n/a	n/a	n/a
3448.738	n/a	RECOG_RESP	1724369	n/a	LTP064	ltpFR	17	1	n/a	JEEP	753	n/a	n/a	n/a	n/a	n/a	n/a	n/a
3449.846	n/a	RECOG_CONF	1724923	n/a	LTP064	ltpFR	17	1	n/a	JEEP	753	3	n/a	n/a	n/a	n/a	n/a	n/a
3451.182	n/a	RECOG_LURE	1725591	n/a	LTP064	ltpFR	17	1	n/a	PASTA	1021	2	n/a	n/a	n/a	n/a	n/a	n/a
3451.542	n/a	RECOG_RESP	1725771	n/a	LTP064	ltpFR	17	1	n/a	PASTA	1021	n/a	n/a	n/a	n/a	n/a	n/a	n/a
3452.79	n/a	RECOG_CONF	1726395	n/a	LTP064	ltpFR	17	1	n/a	PASTA	1021	2	n/a	n/a	n/a	n/a	n/a	n/a
3454.258	n/a	RECOG_LURE	1727129	n/a	LTP064	ltpFR	17	1	n/a	ARTERY	41	3	n/a	n/a	n/a	n/a	n/a	n/a
3454.66	n/a	RECOG_RESP	1727330	n/a	LTP064	ltpFR	17	1	n/a	ARTERY	41	n/a	n/a	n/a	n/a	n/a	n/a	n/a
3455.748	n/a	RECOG_CONF	1727874	n/a	LTP064	ltpFR	17	1	n/a	ARTERY	41	3	n/a	n/a	n/a	n/a	n/a	n/a
3457.124	n/a	RECOG_LURE	1728562	n/a	LTP064	ltpFR	17	1	n/a	GROUND	666	4	n/a	n/a	n/a	n/a	n/a	n/a
3457.494	n/a	RECOG_RESP	1728747	n/a	LTP064	ltpFR	17	1	n/a	GROUND	666	n/a	n/a	n/a	n/a	n/a	n/a	n/a
3458.366	n/a	RECOG_CONF	1729183	n/a	LTP064	ltpFR	17	1	n/a	GROUND	666	4	n/a	n/a	n/a	n/a	n/a	n/a
3459.966	n/a	RECOG_TARGET	1729983	n/a	LTP064	ltpFR	17	1	1	PARTNER	1017	4	1	n/a	n/a	n/a	n/a	n/a
3460.402	n/a	RECOG_RESP	1730201	n/a	LTP064	ltpFR	17	1	1	PARTNER	1017	n/a	1	n/a	n/a	n/a	n/a	n/a
3461.326	n/a	RECOG_CONF	1730663	n/a	LTP064	ltpFR	17	1	1	PARTNER	1017	4	1	n/a	n/a	n/a	n/a	n/a
3462.774	n/a	RECOG_TARGET	1731387	n/a	LTP064	ltpFR	17	1	1	HOUSE	725	5	0	n/a	n/a	n/a	n/a	n/a
3463.116	n/a	RECOG_RESP	1731558	n/a	LTP064	ltpFR	17	1	1	HOUSE	725	n/a	0	n/a	n/a	n/a	n/a	n/a
3463.94	n/a	RECOG_CONF	1731970	n/a	LTP064	ltpFR	17	1	1	HOUSE	725	5	0	n/a	n/a	n/a	n/a	n/a
3465.49	n/a	RECOG_LURE	1732745	n/a	LTP064	ltpFR	17	1	n/a	YARN	1631	3	n/a	n/a	n/a	n/a	n/a	n/a
3465.73	n/a	RECOG_RESP	1732865	n/a	LTP064	ltpFR	17	1	n/a	YARN	1631	n/a	n/a	n/a	n/a	n/a	n/a	n/a
3466.818	n/a	RECOG_CONF	1733409	n/a	LTP064	ltpFR	17	1	n/a	YARN	1631	3	n/a	n/a	n/a	n/a	n/a	n/a
3468.414	n/a	RECOG_TARGET	1734207	n/a	LTP064	ltpFR	17	1	1	BOSS	152	4	1	n/a	n/a	n/a	n/a	n/a
3468.868	n/a	RECOG_RESP	1734434	n/a	LTP064	ltpFR	17	1	1	BOSS	152	n/a	1	n/a	n/a	n/a	n/a	n/a
3469.652	n/a	RECOG_CONF	1734826	n/a	LTP064	ltpFR	17	1	1	BOSS	152	4	1	n/a	n/a	n/a	n/a	n/a
3471.14	n/a	RECOG_TARGET	1735570	n/a	LTP064	ltpFR	17	1	0	GRASSHOPPER	656	5	1	n/a	n/a	n/a	n/a	n/a
3471.418	n/a	RECOG_RESP	1735709	n/a	LTP064	ltpFR	17	1	0	GRASSHOPPER	656	n/a	1	n/a	n/a	n/a	n/a	n/a
3472.35	n/a	RECOG_CONF	1736175	n/a	LTP064	ltpFR	17	1	0	GRASSHOPPER	656	5	1	n/a	n/a	n/a	n/a	n/a
3473.872	n/a	RECOG_TARGET	1736936	n/a	LTP064	ltpFR	17	1	1	SUSPECT	1415	1	0	n/a	n/a	n/a	n/a	n/a
3474.112	n/a	RECOG_RESP	1737056	n/a	LTP064	ltpFR	17	1	1	SUSPECT	1415	n/a	0	n/a	n/a	n/a	n/a	n/a
3475.254	n/a	RECOG_CONF	1737627	n/a	LTP064	ltpFR	17	1	1	SUSPECT	1415	1	0	n/a	n/a	n/a	n/a	n/a
3476.698	n/a	RECOG_LURE	1738349	n/a	LTP064	ltpFR	17	1	n/a	CRATER	400	2	n/a	n/a	n/a	n/a	n/a	n/a
3477.05	n/a	RECOG_RESP	1738525	n/a	LTP064	ltpFR	17	1	n/a	CRATER	400	n/a	n/a	n/a	n/a	n/a	n/a	n/a
3478.098	n/a	RECOG_CONF	1739049	n/a	LTP064	ltpFR	17	1	n/a	CRATER	400	2	n/a	n/a	n/a	n/a	n/a	n/a
3479.522	n/a	RECOG_LURE	1739761	n/a	LTP064	ltpFR	17	1	n/a	RULER	1216	1	n/a	n/a	n/a	n/a	n/a	n/a
3479.828	n/a	RECOG_RESP	1739914	n/a	LTP064	ltpFR	17	1	n/a	RULER	1216	n/a	n/a	n/a	n/a	n/a	n/a	n/a
3480.862	n/a	RECOG_CONF	1740431	n/a	LTP064	ltpFR	17	1	n/a	RULER	1216	1	n/a	n/a	n/a	n/a	n/a	n/a
3482.382	n/a	RECOG_TARGET	1741191	n/a	LTP064	ltpFR	17	1	1	CAPE	237	3	0	n/a	n/a	n/a	n/a	n/a
3483.248	n/a	RECOG_RESP	1741624	n/a	LTP064	ltpFR	17	1	1	CAPE	237	n/a	0	n/a	n/a	n/a	n/a	n/a
3484.17	n/a	RECOG_CONF	1742085	n/a	LTP064	ltpFR	17	1	1	CAPE	237	3	0	n/a	n/a	n/a	n/a	n/a
3485.698	n/a	RECOG_LURE	1742849	n/a	LTP064	ltpFR	17	1	n/a	AMBULANCE	19	2	n/a	n/a	n/a	n/a	n/a	n/a
3486.02	n/a	RECOG_RESP	1743010	n/a	LTP064	ltpFR	17	1	n/a	AMBULANCE	19	n/a	n/a	n/a	n/a	n/a	n/a	n/a
3487.164	n/a	RECOG_CONF	1743582	n/a	LTP064	ltpFR	17	1	n/a	AMBULANCE	19	2	n/a	n/a	n/a	n/a	n/a	n/a
3488.638	n/a	RECOG_LURE	1744319	n/a	LTP064	ltpFR	17	1	n/a	PICNIC	1060	3	n/a	n/a	n/a	n/a	n/a	n/a
3489.208	n/a	RECOG_RESP	1744604	n/a	LTP064	ltpFR	17	1	n/a	PICNIC	1060	n/a	n/a	n/a	n/a	n/a	n/a	n/a
3490.102	n/a	RECOG_CONF	1745051	n/a	LTP064	ltpFR	17	1	n/a	PICNIC	1060	3	n/a	n/a	n/a	n/a	n/a	n/a
3491.514	n/a	RECOG_TARGET	1745757	n/a	LTP064	ltpFR	17	1	0	MONEY	908	4	0	n/a	n/a	n/a	n/a	n/a
3491.892	n/a	RECOG_RESP	1745946	n/a	LTP064	ltpFR	17	1	0	MONEY	908	n/a	0	n/a	n/a	n/a	n/a	n/a
3492.736	n/a	RECOG_CONF	1746368	n/a	LTP064	ltpFR	17	1	0	MONEY	908	4	0	n/a	n/a	n/a	n/a	n/a
3494.24	n/a	RECOG_TARGET	1747120	n/a	LTP064	ltpFR	17	1	0	ROOMMATE	1207	5	1	n/a	n/a	n/a	n/a	n/a
3494.596	n/a	RECOG_RESP	1747298	n/a	LTP064	ltpFR	17	1	0	ROOMMATE	1207	n/a	1	n/a	n/a	n/a	n/a	n/a
3495.44	n/a	RECOG_CONF	1747720	n/a	LTP064	ltpFR	17	1	0	ROOMMATE	1207	5	1	n/a	n/a	n/a	n/a	n/a
3497.04	n/a	RECOG_TARGET	1748520	n/a	LTP064	ltpFR	17	1	1	ONION	977	4	0	n/a	n/a	n/a	n/a	n/a
3497.27	n/a	RECOG_RESP	1748635	n/a	LTP064	ltpFR	17	1	1	ONION	977	n/a	0	n/a	n/a	n/a	n/a	n/a
3498.174	n/a	RECOG_CONF	1749087	n/a	LTP064	ltpFR	17	1	1	ONION	977	4	0	n/a	n/a	n/a	n/a	n/a
3501.154	n/a	REC_START	1750577	n/a	LTP064	ltpFR	17	2	n/a	n/a	n/a	n/a	n/a	n/a	n/a	n/a	n/a	n/a
3501.19	n/a	RECOG_LURE	1750595	n/a	LTP064	ltpFR	17	2	n/a	DEODORANT	448	3	n/a	n/a	n/a	n/a	n/a	n/a
3501.786	n/a	RECOG_RESP	1750893	n/a	LTP064	ltpFR	17	2	n/a	DEODORANT	448	n/a	n/a	n/a	n/a	n/a	n/a	n/a
3502.8	n/a	RECOG_CONF	1751400	n/a	LTP064	ltpFR	17	2	n/a	DEODORANT	448	3	n/a	n/a	n/a	n/a	n/a	n/a
3504.232	n/a	RECOG_TARGET	1752116	n/a	LTP064	ltpFR	17	2	1	ZIPPER	1636	1	0	n/a	n/a	n/a	n/a	n/a
3504.5	n/a	RECOG_RESP	1752250	n/a	LTP064	ltpFR	17	2	1	ZIPPER	1636	n/a	0	n/a	n/a	n/a	n/a	n/a
3505.568	n/a	RECOG_CONF	1752784	n/a	LTP064	ltpFR	17	2	1	ZIPPER	1636	1	0	n/a	n/a	n/a	n/a	n/a
3506.998	n/a	RECOG_LURE	1753499	n/a	LTP064	ltpFR	17	2	n/a	ROAD	1196	2	n/a	n/a	n/a	n/a	n/a	n/a
3507.334	n/a	RECOG_RESP	1753667	n/a	LTP064	ltpFR	17	2	n/a	ROAD	1196	n/a	n/a	n/a	n/a	n/a	n/a	n/a
3508.352	n/a	RECOG_CONF	1754176	n/a	LTP064	ltpFR	17	2	n/a	ROAD	1196	2	n/a	n/a	n/a	n/a	n/a	n/a
3509.838	n/a	RECOG_TARGET	1754919	n/a	LTP064	ltpFR	17	2	-1	CLOSET	326	4	-1	n/a	n/a	n/a	n/a	n/a
3510.138	n/a	RECOG_RESP	1755069	n/a	LTP064	ltpFR	17	2	-1	CLOSET	326	n/a	-1	n/a	n/a	n/a	n/a	n/a
3511.01	n/a	RECOG_CONF	1755505	n/a	LTP064	ltpFR	17	2	-1	CLOSET	326	4	-1	n/a	n/a	n/a	n/a	n/a
3512.48	n/a	RECOG_LURE	1756240	n/a	LTP064	ltpFR	17	2	n/a	FOX	598	3	n/a	n/a	n/a	n/a	n/a	n/a
3512.786	n/a	RECOG_RESP	1756393	n/a	LTP064	ltpFR	17	2	n/a	FOX	598	n/a	n/a	n/a	n/a	n/a	n/a	n/a
3513.704	n/a	RECOG_CONF	1756852	n/a	LTP064	ltpFR	17	2	n/a	FOX	598	3	n/a	n/a	n/a	n/a	n/a	n/a
3515.156	n/a	RECOG_LURE	1757578	n/a	LTP064	ltpFR	17	2	n/a	HUMAN	726	2	n/a	n/a	n/a	n/a	n/a	n/a
3515.59	n/a	RECOG_RESP	1757795	n/a	LTP064	ltpFR	17	2	n/a	HUMAN	726	n/a	n/a	n/a	n/a	n/a	n/a	n/a
3516.628	n/a	RECOG_CONF	1758314	n/a	LTP064	ltpFR	17	2	n/a	HUMAN	726	2	n/a	n/a	n/a	n/a	n/a	n/a
3518.006	n/a	RECOG_TARGET	1759003	n/a	LTP064	ltpFR	17	2	1	RESTAURANT	1187	1	0	n/a	n/a	n/a	n/a	n/a
3518.264	n/a	RECOG_RESP	1759132	n/a	LTP064	ltpFR	17	2	1	RESTAURANT	1187	n/a	0	n/a	n/a	n/a	n/a	n/a
3519.316	n/a	RECOG_CONF	1759658	n/a	LTP064	ltpFR	17	2	1	RESTAURANT	1187	1	0	n/a	n/a	n/a	n/a	n/a
3520.804	n/a	RECOG_LURE	1760402	n/a	LTP064	ltpFR	17	2	n/a	SPIDER	1351	3	n/a	n/a	n/a	n/a	n/a	n/a
3521.088	n/a	RECOG_RESP	1760544	n/a	LTP064	ltpFR	17	2	n/a	SPIDER	1351	n/a	n/a	n/a	n/a	n/a	n/a	n/a
3522.142	n/a	RECOG_CONF	1761071	n/a	LTP064	ltpFR	17	2	n/a	SPIDER	1351	3	n/a	n/a	n/a	n/a	n/a	n/a
3523.68	n/a	RECOG_TARGET	1761840	n/a	LTP064	ltpFR	17	2	0	PALM	1007	4	0	n/a	n/a	n/a	n/a	n/a
3523.968	n/a	RECOG_RESP	1761984	n/a	LTP064	ltpFR	17	2	0	PALM	1007	n/a	0	n/a	n/a	n/a	n/a	n/a
3524.956	n/a	RECOG_CONF	1762478	n/a	LTP064	ltpFR	17	2	0	PALM	1007	4	0	n/a	n/a	n/a	n/a	n/a
3526.488	n/a	RECOG_TARGET	1763244	n/a	LTP064	ltpFR	17	2	0	GOAT	644	3	1	n/a	n/a	n/a	n/a	n/a
3526.856	n/a	RECOG_RESP	1763428	n/a	LTP064	ltpFR	17	2	0	GOAT	644	n/a	1	n/a	n/a	n/a	n/a	n/a
3527.958	n/a	RECOG_CONF	1763979	n/a	LTP064	ltpFR	17	2	0	GOAT	644	3	1	n/a	n/a	n/a	n/a	n/a
3529.404	n/a	RECOG_TARGET	1764702	n/a	LTP064	ltpFR	17	2	0	BRUNETTE	181	5	1	n/a	n/a	n/a	n/a	n/a
3529.684	n/a	RECOG_RESP	1764842	n/a	LTP064	ltpFR	17	2	0	BRUNETTE	181	n/a	1	n/a	n/a	n/a	n/a	n/a
3530.588	n/a	RECOG_CONF	1765294	n/a	LTP064	ltpFR	17	2	0	BRUNETTE	181	5	1	n/a	n/a	n/a	n/a	n/a
3532.088	n/a	RECOG_LURE	1766044	n/a	LTP064	ltpFR	17	2	n/a	BEAST	108	1	n/a	n/a	n/a	n/a	n/a	n/a
3532.418	n/a	RECOG_RESP	1766209	n/a	LTP064	ltpFR	17	2	n/a	BEAST	108	n/a	n/a	n/a	n/a	n/a	n/a	n/a
3533.386	n/a	RECOG_CONF	1766693	n/a	LTP064	ltpFR	17	2	n/a	BEAST	108	1	n/a	n/a	n/a	n/a	n/a	n/a
3534.73	n/a	RECOG_TARGET	1767365	n/a	LTP064	ltpFR	17	2	1	PAIL	1002	3	0	n/a	n/a	n/a	n/a	n/a
3535.118	n/a	RECOG_RESP	1767559	n/a	LTP064	ltpFR	17	2	1	PAIL	1002	n/a	0	n/a	n/a	n/a	n/a	n/a
3536.03	n/a	RECOG_CONF	1768015	n/a	LTP064	ltpFR	17	2	1	PAIL	1002	3	0	n/a	n/a	n/a	n/a	n/a
3537.396	n/a	RECOG_TARGET	1768698	n/a	LTP064	ltpFR	17	2	-1	WAX	1597	4	-1	n/a	n/a	n/a	n/a	n/a
3537.926	n/a	RECOG_RESP	1768963	n/a	LTP064	ltpFR	17	2	-1	WAX	1597	n/a	-1	n/a	n/a	n/a	n/a	n/a
3538.704	n/a	RECOG_CONF	1769352	n/a	LTP064	ltpFR	17	2	-1	WAX	1597	4	-1	n/a	n/a	n/a	n/a	n/a
3540.18	n/a	RECOG_TARGET	1770090	n/a	LTP064	ltpFR	17	2	1	GOOSE	649	5	1	n/a	n/a	n/a	n/a	n/a
3540.534	n/a	RECOG_RESP	1770267	n/a	LTP064	ltpFR	17	2	1	GOOSE	649	n/a	1	n/a	n/a	n/a	n/a	n/a
3541.292	n/a	RECOG_CONF	1770646	n/a	LTP064	ltpFR	17	2	1	GOOSE	649	5	1	n/a	n/a	n/a	n/a	n/a
3542.83	n/a	RECOG_TARGET	1771415	n/a	LTP064	ltpFR	17	2	0	CHARCOAL	281	3	0	n/a	n/a	n/a	n/a	n/a
3543.28	n/a	RECOG_RESP	1771640	n/a	LTP064	ltpFR	17	2	0	CHARCOAL	281	n/a	0	n/a	n/a	n/a	n/a	n/a
3544.198	n/a	RECOG_CONF	1772099	n/a	LTP064	ltpFR	17	2	0	CHARCOAL	281	3	0	n/a	n/a	n/a	n/a	n/a
3545.57	n/a	RECOG_TARGET	1772785	n/a	LTP064	ltpFR	17	2	-1	SERPENT	1270	2	-1	n/a	n/a	n/a	n/a	n/a
3545.888	n/a	RECOG_RESP	1772944	n/a	LTP064	ltpFR	17	2	-1	SERPENT	1270	n/a	-1	n/a	n/a	n/a	n/a	n/a
3547.3	n/a	RECOG_CONF	1773650	n/a	LTP064	ltpFR	17	2	-1	SERPENT	1270	2	-1	n/a	n/a	n/a	n/a	n/a
3548.922	n/a	RECOG_TARGET	1774461	n/a	LTP064	ltpFR	17	2	1	OUTLAW	989	1	1	n/a	n/a	n/a	n/a	n/a
3549.33	n/a	RECOG_RESP	1774665	n/a	LTP064	ltpFR	17	2	1	OUTLAW	989	n/a	1	n/a	n/a	n/a	n/a	n/a
3550.264	n/a	RECOG_CONF	1775132	n/a	LTP064	ltpFR	17	2	1	OUTLAW	989	1	1	n/a	n/a	n/a	n/a	n/a
3551.728	n/a	RECOG_TARGET	1775864	n/a	LTP064	ltpFR	17	2	-1	WOLF	1619	4	-1	n/a	n/a	n/a	n/a	n/a
3552.03	n/a	RECOG_RESP	1776015	n/a	LTP064	ltpFR	17	2	-1	WOLF	1619	n/a	-1	n/a	n/a	n/a	n/a	n/a
3552.828	n/a	RECOG_CONF	1776414	n/a	LTP064	ltpFR	17	2	-1	WOLF	1619	4	-1	n/a	n/a	n/a	n/a	n/a
3554.38	n/a	RECOG_LURE	1777190	n/a	LTP064	ltpFR	17	2	n/a	CALENDAR	221	3	n/a	n/a	n/a	n/a	n/a	n/a
3554.938	n/a	RECOG_RESP	1777469	n/a	LTP064	ltpFR	17	2	n/a	CALENDAR	221	n/a	n/a	n/a	n/a	n/a	n/a	n/a
3555.74	n/a	RECOG_CONF	1777870	n/a	LTP064	ltpFR	17	2	n/a	CALENDAR	221	3	n/a	n/a	n/a	n/a	n/a	n/a
3558.642	n/a	REC_START	1779321	n/a	LTP064	ltpFR	17	3	n/a	n/a	n/a	n/a	n/a	n/a	n/a	n/a	n/a	n/a
3558.678	n/a	RECOG_TARGET	1779339	n/a	LTP064	ltpFR	17	3	0	STAMP	1370	2	0	n/a	n/a	n/a	n/a	n/a
3559.066	n/a	RECOG_RESP	1779533	n/a	LTP064	ltpFR	17	3	0	STAMP	1370	n/a	0	n/a	n/a	n/a	n/a	n/a
3560.586	n/a	RECOG_CONF	1780293	n/a	LTP064	ltpFR	17	3	0	STAMP	1370	2	0	n/a	n/a	n/a	n/a	n/a
3562.012	n/a	RECOG_LURE	1781006	n/a	LTP064	ltpFR	17	3	n/a	FREEWAY	603	3	n/a	n/a	n/a	n/a	n/a	n/a
3562.514	n/a	RECOG_RESP	1781257	n/a	LTP064	ltpFR	17	3	n/a	FREEWAY	603	n/a	n/a	n/a	n/a	n/a	n/a	n/a
3563.73	n/a	RECOG_CONF	1781865	n/a	LTP064	ltpFR	17	3	n/a	FREEWAY	603	3	n/a	n/a	n/a	n/a	n/a	n/a
3565.28	n/a	RECOG_TARGET	1782640	n/a	LTP064	ltpFR	17	3	-1	APPLICATION	34	4	-1	n/a	n/a	n/a	n/a	n/a
3565.692	n/a	RECOG_RESP	1782846	n/a	LTP064	ltpFR	17	3	-1	APPLICATION	34	n/a	-1	n/a	n/a	n/a	n/a	n/a
3566.554	n/a	RECOG_CONF	1783277	n/a	LTP064	ltpFR	17	3	-1	APPLICATION	34	4	-1	n/a	n/a	n/a	n/a	n/a
3567.946	n/a	RECOG_LURE	1783973	n/a	LTP064	ltpFR	17	3	n/a	GLASS	639	1	n/a	n/a	n/a	n/a	n/a	n/a
3568.44	n/a	RECOG_RESP	1784220	n/a	LTP064	ltpFR	17	3	n/a	GLASS	639	n/a	n/a	n/a	n/a	n/a	n/a	n/a
3569.448	n/a	RECOG_CONF	1784724	n/a	LTP064	ltpFR	17	3	n/a	GLASS	639	1	n/a	n/a	n/a	n/a	n/a	n/a
3570.828	n/a	RECOG_TARGET	1785414	n/a	LTP064	ltpFR	17	3	-1	QUARTER	1148	5	-1	n/a	n/a	n/a	n/a	n/a
3571.168	n/a	RECOG_RESP	1785584	n/a	LTP064	ltpFR	17	3	-1	QUARTER	1148	n/a	-1	n/a	n/a	n/a	n/a	n/a
3572.086	n/a	RECOG_CONF	1786043	n/a	LTP064	ltpFR	17	3	-1	QUARTER	1148	5	-1	n/a	n/a	n/a	n/a	n/a
3573.57	n/a	RECOG_TARGET	1786785	n/a	LTP064	ltpFR	17	3	1	EWE	542	4	1	n/a	n/a	n/a	n/a	n/a
3573.928	n/a	RECOG_RESP	1786964	n/a	LTP064	ltpFR	17	3	1	EWE	542	n/a	1	n/a	n/a	n/a	n/a	n/a
3574.756	n/a	RECOG_CONF	1787378	n/a	LTP064	ltpFR	17	3	1	EWE	542	4	1	n/a	n/a	n/a	n/a	n/a
3576.27	n/a	RECOG_LURE	1788135	n/a	LTP064	ltpFR	17	3	n/a	MONSTER	912	3	n/a	n/a	n/a	n/a	n/a	n/a
3576.592	n/a	RECOG_RESP	1788296	n/a	LTP064	ltpFR	17	3	n/a	MONSTER	912	n/a	n/a	n/a	n/a	n/a	n/a	n/a
3577.634	n/a	RECOG_CONF	1788817	n/a	LTP064	ltpFR	17	3	n/a	MONSTER	912	3	n/a	n/a	n/a	n/a	n/a	n/a
3579.22	n/a	RECOG_TARGET	1789610	n/a	LTP064	ltpFR	17	3	0	ANTLER	29	5	1	n/a	n/a	n/a	n/a	n/a
3579.504	n/a	RECOG_RESP	1789752	n/a	LTP064	ltpFR	17	3	0	ANTLER	29	n/a	1	n/a	n/a	n/a	n/a	n/a
3580.402	n/a	RECOG_CONF	1790201	n/a	LTP064	ltpFR	17	3	0	ANTLER	29	5	1	n/a	n/a	n/a	n/a	n/a
3581.92	n/a	RECOG_TARGET	1790960	n/a	LTP064	ltpFR	17	3	0	CLOTHES	327	2	1	n/a	n/a	n/a	n/a	n/a
3582.308	n/a	RECOG_RESP	1791154	n/a	LTP064	ltpFR	17	3	0	CLOTHES	327	n/a	1	n/a	n/a	n/a	n/a	n/a
3583.268	n/a	RECOG_CONF	1791634	n/a	LTP064	ltpFR	17	3	0	CLOTHES	327	2	1	n/a	n/a	n/a	n/a	n/a
3584.604	n/a	RECOG_TARGET	1792302	n/a	LTP064	ltpFR	17	3	0	WHISTLE	1606	4	0	n/a	n/a	n/a	n/a	n/a
3584.858	n/a	RECOG_RESP	1792429	n/a	LTP064	ltpFR	17	3	0	WHISTLE	1606	n/a	0	n/a	n/a	n/a	n/a	n/a
3585.736	n/a	RECOG_CONF	1792868	n/a	LTP064	ltpFR	17	3	0	WHISTLE	1606	4	0	n/a	n/a	n/a	n/a	n/a
3587.262	n/a	RECOG_TARGET	1793631	n/a	LTP064	ltpFR	17	3	0	TURNIP	1521	3	0	n/a	n/a	n/a	n/a	n/a
3587.532	n/a	RECOG_RESP	1793766	n/a	LTP064	ltpFR	17	3	0	TURNIP	1521	n/a	0	n/a	n/a	n/a	n/a	n/a
3588.7	n/a	RECOG_CONF	1794350	n/a	LTP064	ltpFR	17	3	0	TURNIP	1521	3	0	n/a	n/a	n/a	n/a	n/a
3590.362	n/a	RECOG_LURE	1795181	n/a	LTP064	ltpFR	17	3	n/a	LAVA	804	5	n/a	n/a	n/a	n/a	n/a	n/a
3590.566	n/a	RECOG_RESP	1795283	n/a	LTP064	ltpFR	17	3	n/a	LAVA	804	n/a	n/a	n/a	n/a	n/a	n/a	n/a
3591.568	n/a	RECOG_CONF	1795784	n/a	LTP064	ltpFR	17	3	n/a	LAVA	804	5	n/a	n/a	n/a	n/a	n/a	n/a
3593.212	n/a	RECOG_TARGET	1796606	n/a	LTP064	ltpFR	17	3	1	POWDER	1117	4	0	n/a	n/a	n/a	n/a	n/a
3593.454	n/a	RECOG_RESP	1796727	n/a	LTP064	ltpFR	17	3	1	POWDER	1117	n/a	0	n/a	n/a	n/a	n/a	n/a
3594.386	n/a	RECOG_CONF	1797193	n/a	LTP064	ltpFR	17	3	1	POWDER	1117	4	0	n/a	n/a	n/a	n/a	n/a
3596.078	n/a	RECOG_LURE	1798039	n/a	LTP064	ltpFR	17	3	n/a	ICE	730	3	n/a	n/a	n/a	n/a	n/a	n/a
3596.278	n/a	RECOG_RESP	1798139	n/a	LTP064	ltpFR	17	3	n/a	ICE	730	n/a	n/a	n/a	n/a	n/a	n/a	n/a
3597.38	n/a	RECOG_CONF	1798690	n/a	LTP064	ltpFR	17	3	n/a	ICE	730	3	n/a	n/a	n/a	n/a	n/a	n/a
3599.054	n/a	RECOG_TARGET	1799527	n/a	LTP064	ltpFR	17	3	-1	AIRPLANE	12	3	-1	n/a	n/a	n/a	n/a	n/a
3599.242	n/a	RECOG_RESP	1799621	n/a	LTP064	ltpFR	17	3	-1	AIRPLANE	12	n/a	-1	n/a	n/a	n/a	n/a	n/a
3600.468	n/a	RECOG_CONF	1800234	n/a	LTP064	ltpFR	17	3	-1	AIRPLANE	12	3	-1	n/a	n/a	n/a	n/a	n/a
3601.978	n/a	RECOG_TARGET	1800989	n/a	LTP064	ltpFR	17	3	1	STEWARDESS	1381	5	1	n/a	n/a	n/a	n/a	n/a
3602.184	n/a	RECOG_RESP	1801092	n/a	LTP064	ltpFR	17	3	1	STEWARDESS	1381	n/a	1	n/a	n/a	n/a	n/a	n/a
3603.182	n/a	RECOG_CONF	1801591	n/a	LTP064	ltpFR	17	3	1	STEWARDESS	1381	5	1	n/a	n/a	n/a	n/a	n/a
3604.712	n/a	RECOG_TARGET	1802356	n/a	LTP064	ltpFR	17	3	-1	CONCRETE	361	5	-1	n/a	n/a	n/a	n/a	n/a
3604.944	n/a	RECOG_RESP	1802472	n/a	LTP064	ltpFR	17	3	-1	CONCRETE	361	n/a	-1	n/a	n/a	n/a	n/a	n/a
3605.892	n/a	RECOG_CONF	1802946	n/a	LTP064	ltpFR	17	3	-1	CONCRETE	361	5	-1	n/a	n/a	n/a	n/a	n/a
3607.478	n/a	RECOG_LURE	1803739	n/a	LTP064	ltpFR	17	3	n/a	SHORTCAKE	1292	2	n/a	n/a	n/a	n/a	n/a	n/a
3607.718	n/a	RECOG_RESP	1803859	n/a	LTP064	ltpFR	17	3	n/a	SHORTCAKE	1292	n/a	n/a	n/a	n/a	n/a	n/a	n/a
3608.756	n/a	RECOG_CONF	1804378	n/a	LTP064	ltpFR	17	3	n/a	SHORTCAKE	1292	2	n/a	n/a	n/a	n/a	n/a	n/a
3610.386	n/a	RECOG_TARGET	1805193	n/a	LTP064	ltpFR	17	3	1	PEPPER	1047	3	0	n/a	n/a	n/a	n/a	n/a
3610.646	n/a	RECOG_RESP	1805323	n/a	LTP064	ltpFR	17	3	1	PEPPER	1047	n/a	0	n/a	n/a	n/a	n/a	n/a
3611.614	n/a	RECOG_CONF	1805807	n/a	LTP064	ltpFR	17	3	1	PEPPER	1047	3	0	n/a	n/a	n/a	n/a	n/a
3613.128	n/a	RECOG_TARGET	1806564	n/a	LTP064	ltpFR	17	3	0	LAWYER	806	4	1	n/a	n/a	n/a	n/a	n/a
3613.444	n/a	RECOG_RESP	1806722	n/a	LTP064	ltpFR	17	3	0	LAWYER	806	n/a	1	n/a	n/a	n/a	n/a	n/a
3614.392	n/a	RECOG_CONF	1807196	n/a	LTP064	ltpFR	17	3	0	LAWYER	806	4	1	n/a	n/a	n/a	n/a	n/a
3617.428	n/a	REC_START	1808714	n/a	LTP064	ltpFR	17	4	n/a	n/a	n/a	n/a	n/a	n/a	n/a	n/a	n/a	n/a
3617.468	n/a	RECOG_LURE	1808734	n/a	LTP064	ltpFR	17	4	n/a	STRAWBERRY	1391	2	n/a	n/a	n/a	n/a	n/a	n/a
3617.746	n/a	RECOG_RESP	1808873	n/a	LTP064	ltpFR	17	4	n/a	STRAWBERRY	1391	n/a	n/a	n/a	n/a	n/a	n/a	n/a
3619.478	n/a	RECOG_CONF	1809739	n/a	LTP064	ltpFR	17	4	n/a	STRAWBERRY	1391	2	n/a	n/a	n/a	n/a	n/a	n/a
3621.036	n/a	RECOG_LURE	1810518	n/a	LTP064	ltpFR	17	4	n/a	SEAT	1264	1	n/a	n/a	n/a	n/a	n/a	n/a
3621.198	n/a	RECOG_RESP	1810599	n/a	LTP064	ltpFR	17	4	n/a	SEAT	1264	n/a	n/a	n/a	n/a	n/a	n/a	n/a
3622.272	n/a	RECOG_CONF	1811136	n/a	LTP064	ltpFR	17	4	n/a	SEAT	1264	1	n/a	n/a	n/a	n/a	n/a	n/a
3623.826	n/a	RECOG_TARGET	1811913	n/a	LTP064	ltpFR	17	4	1	COPIER	377	4	0	n/a	n/a	n/a	n/a	n/a
3624.054	n/a	RECOG_RESP	1812027	n/a	LTP064	ltpFR	17	4	1	COPIER	377	n/a	0	n/a	n/a	n/a	n/a	n/a
