onset	duration	trial_type	sample	stim_file	subject	experiment	session	trial	task	item_name	item_num	recog_resp	recog_conf	resp	color_r	color_g	color_b	case	font
366.236	n/a	SESS_START	183118	n/a	LTP245	ltpFR	6	n/a	n/a	n/a	n/a	1	4	n/a	n/a	n/a	n/a	n/a	n/a
398.096	n/a	WORD	199048	wordpools/wasnorm_wordpool_less_exclusions.txt	LTP245	ltpFR	6	1	1	CYCLONE	431	0	n/a	0	0.422607421875	0.5869140625	0	upper	amplitud.ttf
402.288	n/a	WORD	201144	wordpools/wasnorm_wordpool_less_exclusions.txt	LTP245	ltpFR	6	1	1	MAMMAL	861	n/a	n/a	1	0.422607421875	0.5869140625	0	upper	amplitud.ttf
406.216	n/a	WORD	203108	wordpools/wasnorm_wordpool_less_exclusions.txt	LTP245	ltpFR	6	1	1	CANNON	232	n/a	n/a	0	0.422607421875	0.5869140625	0	upper	amplitud.ttf
410.16	n/a	WORD	205080	wordpools/wasnorm_wordpool_less_exclusions.txt	LTP245	ltpFR	6	1	1	PUDDLE	1140	n/a	n/a	0	0.422607421875	0.5869140625	0	upper	amplitud.ttf
414.172	n/a	WORD	207086	wordpools/wasnorm_wordpool_less_exclusions.txt	LTP245	ltpFR	6	1	1	GAZELLE	628	n/a	n/a	1	0.422607421875	0.5869140625	0	upper	amplitud.ttf
418.3	n/a	WORD	209150	wordpools/wasnorm_wordpool_less_exclusions.txt	LTP245	ltpFR	6	1	1	PROTRACTOR	1133	n/a	n/a	0	0.422607421875	0.5869140625	0	upper	amplitud.ttf
422.31	n/a	WORD	211155	wordpools/wasnorm_wordpool_less_exclusions.txt	LTP245	ltpFR	6	1	0	KNEE	784	n/a	n/a	0	0.57763671875	0.412841796875	1	lower	zerothre.ttf
426.286	n/a	WORD	213143	wordpools/wasnorm_wordpool_less_exclusions.txt	LTP245	ltpFR	6	1	0	DEER	444	n/a	n/a	1	0.57763671875	0.412841796875	1	lower	zerothre.ttf
430.464	n/a	WORD	215232	wordpools/wasnorm_wordpool_less_exclusions.txt	LTP245	ltpFR	6	1	0	SALAD	1224	n/a	n/a	0	0.57763671875	0.412841796875	1	lower	zerothre.ttf
434.308	n/a	WORD	217154	wordpools/wasnorm_wordpool_less_exclusions.txt	LTP245	ltpFR	6	1	0	RADISH	1158	n/a	n/a	0	0.57763671875	0.412841796875	1	lower	zerothre.ttf
438.42	n/a	WORD	219210	wordpools/wasnorm_wordpool_less_exclusions.txt	LTP245	ltpFR	6	1	1	CYLINDER	432	n/a	n/a	0	0.422607421875	0.5869140625	0	upper	amplitud.ttf
442.564	n/a	WORD	221282	wordpools/wasnorm_wordpool_less_exclusions.txt	LTP245	ltpFR	6	1	1	WHEEL	1603	n/a	n/a	0	0.422607421875	0.5869140625	0	upper	amplitud.ttf
446.442	n/a	WORD	223221	wordpools/wasnorm_wordpool_less_exclusions.txt	LTP245	ltpFR	6	1	0	BEVERAGE	123	n/a	n/a	1	0.57763671875	0.412841796875	1	lower	zerothre.ttf
450.518	n/a	WORD	225259	wordpools/wasnorm_wordpool_less_exclusions.txt	LTP245	ltpFR	6	1	0	SAUCER	1237	n/a	n/a	0	0.57763671875	0.412841796875	1	lower	zerothre.ttf
454.512	n/a	WORD	227256	wordpools/wasnorm_wordpool_less_exclusions.txt	LTP245	ltpFR	6	1	0	POSSUM	1112	n/a	n/a	1	0.57763671875	0.412841796875	1	lower	zerothre.ttf
458.59	n/a	WORD	229295	wordpools/wasnorm_wordpool_less_exclusions.txt	LTP245	ltpFR	6	1	0	MOLECULE	905	n/a	n/a	0	0.57763671875	0.412841796875	1	lower	zerothre.ttf
464.366	n/a	REC_START	232183	n/a	LTP245	ltpFR	6	1	n/a	n/a	n/a	n/a	n/a	n/a	n/a	n/a	n/a	n/a	n/a
465.588	n/a	REC_WORD	232794	wordpools/wasnorm_wordpool_less_exclusions.txt	LTP245	ltpFR	6	1	0	BEVERAGE	123	n/a	n/a	1	n/a	n/a	n/a	n/a	n/a
466.586	n/a	REC_WORD	233293	wordpools/wasnorm_wordpool_less_exclusions.txt	LTP245	ltpFR	6	1	0	MOLECULE	905	n/a	n/a	0	n/a	n/a	n/a	n/a	n/a
468.626	n/a	REC_WORD	234313	wordpools/wasnorm_wordpool_less_exclusions.txt	LTP245	ltpFR	6	1	0	SALAD	1224	n/a	n/a	0	n/a	n/a	n/a	n/a	n/a
478.602	n/a	REC_WORD	239301	wordpools/wasnorm_wordpool_less_exclusions.txt	LTP245	ltpFR	6	1	0	POSSUM	1112	n/a	n/a	1	n/a	n/a	n/a	n/a	n/a
486.968	n/a	REC_WORD	243484	wordpools/wasnorm_wordpool_less_exclusions.txt	LTP245	ltpFR	6	1	1	MAMMAL	861	n/a	n/a	1	n/a	n/a	n/a	n/a	n/a
585.068	n/a	WORD	292534	wordpools/wasnorm_wordpool_less_exclusions.txt	LTP245	ltpFR	6	2	0	BOYFRIEND	162	n/a	n/a	1	0.57763671875	0.412841796875	1	lower	zerothre.ttf
589.096	n/a	WORD	294548	wordpools/wasnorm_wordpool_less_exclusions.txt	LTP245	ltpFR	6	2	0	LIP	828	n/a	n/a	0	0.57763671875	0.412841796875	1	lower	zerothre.ttf
592.94	n/a	WORD	296470	wordpools/wasnorm_wordpool_less_exclusions.txt	LTP245	ltpFR	6	2	0	EYELASH	546	n/a	n/a	0	0.57763671875	0.412841796875	1	lower	zerothre.ttf
597.018	n/a	WORD	298509	wordpools/wasnorm_wordpool_less_exclusions.txt	LTP245	ltpFR	6	2	1	SHELF	1280	n/a	n/a	0	0.422607421875	0.5869140625	0	upper	amplitud.ttf
601.212	n/a	WORD	300606	wordpools/wasnorm_wordpool_less_exclusions.txt	LTP245	ltpFR	6	2	1	IDOL	733	n/a	n/a	0	0.422607421875	0.5869140625	0	upper	amplitud.ttf
605.188	n/a	WORD	302594	wordpools/wasnorm_wordpool_less_exclusions.txt	LTP245	ltpFR	6	2	1	BEAVER	109	n/a	n/a	1	0.422607421875	0.5869140625	0	upper	amplitud.ttf
609.232	n/a	WORD	304616	wordpools/wasnorm_wordpool_less_exclusions.txt	LTP245	ltpFR	6	2	0	VAMPIRE	1547	n/a	n/a	0	0.57763671875	0.412841796875	1	lower	zerothre.ttf
613.41	n/a	WORD	306705	wordpools/wasnorm_wordpool_less_exclusions.txt	LTP245	ltpFR	6	2	0	CROW	414	n/a	n/a	0	0.57763671875	0.412841796875	1	lower	zerothre.ttf
617.322	n/a	WORD	308661	wordpools/wasnorm_wordpool_less_exclusions.txt	LTP245	ltpFR	6	2	1	FRUIT	610	n/a	n/a	1	0.422607421875	0.5869140625	0	upper	amplitud.ttf
621.516	n/a	WORD	310758	wordpools/wasnorm_wordpool_less_exclusions.txt	LTP245	ltpFR	6	2	1	PIE	1062	n/a	n/a	0	0.422607421875	0.5869140625	0	upper	amplitud.ttf
625.476	n/a	WORD	312738	wordpools/wasnorm_wordpool_less_exclusions.txt	LTP245	ltpFR	6	2	1	PASSAGE	1019	n/a	n/a	0	0.422607421875	0.5869140625	0	upper	amplitud.ttf
629.454	n/a	WORD	314727	wordpools/wasnorm_wordpool_less_exclusions.txt	LTP245	ltpFR	6	2	1	LIMOUSINE	824	n/a	n/a	0	0.422607421875	0.5869140625	0	upper	amplitud.ttf
633.598	n/a	WORD	316799	wordpools/wasnorm_wordpool_less_exclusions.txt	LTP245	ltpFR	6	2	1	GRADUATE	653	n/a	n/a	1	0.422607421875	0.5869140625	0	upper	amplitud.ttf
637.592	n/a	WORD	318796	wordpools/wasnorm_wordpool_less_exclusions.txt	LTP245	ltpFR	6	2	0	ZOO	1637	n/a	n/a	1	0.57763671875	0.412841796875	1	lower	zerothre.ttf
641.8	n/a	WORD	320900	wordpools/wasnorm_wordpool_less_exclusions.txt	LTP245	ltpFR	6	2	0	CEREAL	272	n/a	n/a	0	0.57763671875	0.412841796875	1	lower	zerothre.ttf
645.646	n/a	WORD	322823	wordpools/wasnorm_wordpool_less_exclusions.txt	LTP245	ltpFR	6	2	0	OATMEAL	967	n/a	n/a	0	0.57763671875	0.412841796875	1	lower	zerothre.ttf
651.688	n/a	REC_START	325844	n/a	LTP245	ltpFR	6	2	n/a	n/a	n/a	n/a	n/a	n/a	n/a	n/a	n/a	n/a	n/a
652.6	n/a	REC_WORD	326300	wordpools/wasnorm_wordpool_less_exclusions.txt	LTP245	ltpFR	6	2	0	OATMEAL	967	n/a	n/a	0	n/a	n/a	n/a	n/a	n/a
653.238	n/a	REC_WORD	326619	wordpools/wasnorm_wordpool_less_exclusions.txt	LTP245	ltpFR	6	2	0	CEREAL	272	n/a	n/a	0	n/a	n/a	n/a	n/a	n/a
654.55	n/a	REC_WORD	327275	wordpools/wasnorm_wordpool_less_exclusions.txt	LTP245	ltpFR	6	2	1	LIMOUSINE	824	n/a	n/a	0	n/a	n/a	n/a	n/a	n/a
655.768	n/a	REC_WORD	327884	wordpools/wasnorm_wordpool_less_exclusions.txt	LTP245	ltpFR	6	2	0	ZOO	1637	n/a	n/a	1	n/a	n/a	n/a	n/a	n/a
665.076	n/a	REC_WORD	332538	wordpools/wasnorm_wordpool_less_exclusions.txt	LTP245	ltpFR	6	2	1	FRUIT	610	n/a	n/a	1	n/a	n/a	n/a	n/a	n/a
761.642	n/a	WORD	380821	wordpools/wasnorm_wordpool_less_exclusions.txt	LTP245	ltpFR	6	3	1	MONGOOSE	909	n/a	n/a	1	0.422607421875	0.5869140625	0	upper	amplitud.ttf
765.502	n/a	WORD	382751	wordpools/wasnorm_wordpool_less_exclusions.txt	LTP245	ltpFR	6	3	1	GATE	625	n/a	n/a	0	0.422607421875	0.5869140625	0	upper	amplitud.ttf
769.446	n/a	WORD	384723	wordpools/wasnorm_wordpool_less_exclusions.txt	LTP245	ltpFR	6	3	1	CHILD	299	n/a	n/a	1	0.422607421875	0.5869140625	0	upper	amplitud.ttf
773.34	n/a	WORD	386670	wordpools/wasnorm_wordpool_less_exclusions.txt	LTP245	ltpFR	6	3	1	INFANT	737	n/a	n/a	1	0.422607421875	0.5869140625	0	upper	amplitud.ttf
777.418	n/a	WORD	388709	wordpools/wasnorm_wordpool_less_exclusions.txt	LTP245	ltpFR	6	3	1	DRESS	495	n/a	n/a	0	0.422607421875	0.5869140625	0	upper	amplitud.ttf
781.412	n/a	WORD	390706	wordpools/wasnorm_wordpool_less_exclusions.txt	LTP245	ltpFR	6	3	1	RODENT	1204	n/a	n/a	1	0.422607421875	0.5869140625	0	upper	amplitud.ttf
785.356	n/a	WORD	392678	wordpools/wasnorm_wordpool_less_exclusions.txt	LTP245	ltpFR	6	3	1	SCREW	1254	n/a	n/a	0	0.422607421875	0.5869140625	0	upper	amplitud.ttf
789.2	n/a	WORD	394600	wordpools/wasnorm_wordpool_less_exclusions.txt	LTP245	ltpFR	6	3	1	DILL	465	n/a	n/a	0	0.422607421875	0.5869140625	0	upper	amplitud.ttf
793.226	n/a	WORD	396613	wordpools/wasnorm_wordpool_less_exclusions.txt	LTP245	ltpFR	6	3	1	FENCE	560	n/a	n/a	0	0.422607421875	0.5869140625	0	upper	amplitud.ttf
797.17	n/a	WORD	398585	wordpools/wasnorm_wordpool_less_exclusions.txt	LTP245	ltpFR	6	3	1	ARMY	39	n/a	n/a	1	0.422607421875	0.5869140625	0	upper	amplitud.ttf
801.164	n/a	WORD	400582	wordpools/wasnorm_wordpool_less_exclusions.txt	LTP245	ltpFR	6	3	1	CHIEF	298	n/a	n/a	1	0.422607421875	0.5869140625	0	upper	amplitud.ttf
804.992	n/a	WORD	402496	wordpools/wasnorm_wordpool_less_exclusions.txt	LTP245	ltpFR	6	3	1	GOWN	652	n/a	n/a	0	0.422607421875	0.5869140625	0	upper	amplitud.ttf
809.036	n/a	WORD	404518	wordpools/wasnorm_wordpool_less_exclusions.txt	LTP245	ltpFR	6	3	1	FATHER	554	n/a	n/a	1	0.422607421875	0.5869140625	0	upper	amplitud.ttf
813.264	n/a	WORD	406632	wordpools/wasnorm_wordpool_less_exclusions.txt	LTP245	ltpFR	6	3	1	DAD	433	n/a	n/a	1	0.422607421875	0.5869140625	0	upper	amplitud.ttf
817.092	n/a	WORD	408546	wordpools/wasnorm_wordpool_less_exclusions.txt	LTP245	ltpFR	6	3	1	TACK	1428	n/a	n/a	0	0.422607421875	0.5869140625	0	upper	amplitud.ttf
821.052	n/a	WORD	410526	wordpools/wasnorm_wordpool_less_exclusions.txt	LTP245	ltpFR	6	3	1	DIPLOMA	470	n/a	n/a	0	0.422607421875	0.5869140625	0	upper	amplitud.ttf
826.878	n/a	REC_START	413439	n/a	LTP245	ltpFR	6	3	n/a	n/a	n/a	n/a	n/a	n/a	n/a	n/a	n/a	n/a	n/a
827.516	n/a	REC_WORD	413758	wordpools/wasnorm_wordpool_less_exclusions.txt	LTP245	ltpFR	6	3	1	DIPLOMA	470	n/a	n/a	0	n/a	n/a	n/a	n/a	n/a
828.514	n/a	REC_WORD	414257	wordpools/wasnorm_wordpool_less_exclusions.txt	LTP245	ltpFR	6	3	n/a	TRACK	-1	n/a	n/a	n/a	n/a	n/a	n/a	n/a	n/a
829.432	n/a	REC_WORD	414716	wordpools/wasnorm_wordpool_less_exclusions.txt	LTP245	ltpFR	6	3	1	ARMY	39	n/a	n/a	1	n/a	n/a	n/a	n/a	n/a
830.124	n/a	REC_WORD	415062	wordpools/wasnorm_wordpool_less_exclusions.txt	LTP245	ltpFR	6	3	1	FATHER	554	n/a	n/a	1	n/a	n/a	n/a	n/a	n/a
831.188	n/a	REC_WORD	415594	wordpools/wasnorm_wordpool_less_exclusions.txt	LTP245	ltpFR	6	3	1	DAD	433	n/a	n/a	1	n/a	n/a	n/a	n/a	n/a
832.096	n/a	REC_WORD	416048	wordpools/wasnorm_wordpool_less_exclusions.txt	LTP245	ltpFR	6	3	n/a	BABY	64	n/a	n/a	n/a	n/a	n/a	n/a	n/a	n/a
833.094	n/a	REC_WORD	416547	wordpools/wasnorm_wordpool_less_exclusions.txt	LTP245	ltpFR	6	3	1	INFANT	737	n/a	n/a	1	n/a	n/a	n/a	n/a	n/a
843.444	n/a	REC_WORD	421722	wordpools/wasnorm_wordpool_less_exclusions.txt	LTP245	ltpFR	6	3	1	DILL	465	n/a	n/a	0	n/a	n/a	n/a	n/a	n/a
932.306	n/a	WORD	466153	wordpools/wasnorm_wordpool_less_exclusions.txt	LTP245	ltpFR	6	4	1	CUCUMBER	421	n/a	n/a	1	0.422607421875	0.5869140625	0	upper	amplitud.ttf
936.216	n/a	WORD	468108	wordpools/wasnorm_wordpool_less_exclusions.txt	LTP245	ltpFR	6	4	1	OLIVE	975	n/a	n/a	0	0.422607421875	0.5869140625	0	upper	amplitud.ttf
940.126	n/a	WORD	470063	wordpools/wasnorm_wordpool_less_exclusions.txt	LTP245	ltpFR	6	4	1	COUNTY	389	n/a	n/a	0	0.422607421875	0.5869140625	0	upper	amplitud.ttf
943.986	n/a	WORD	471993	wordpools/wasnorm_wordpool_less_exclusions.txt	LTP245	ltpFR	6	4	1	CHAMBER	277	n/a	n/a	0	0.422607421875	0.5869140625	0	upper	amplitud.ttf
947.948	n/a	WORD	473974	wordpools/wasnorm_wordpool_less_exclusions.txt	LTP245	ltpFR	6	4	1	MARINE	869	n/a	n/a	1	0.422607421875	0.5869140625	0	upper	amplitud.ttf
952.058	n/a	WORD	476029	wordpools/wasnorm_wordpool_less_exclusions.txt	LTP245	ltpFR	6	4	1	SOFTBALL	1343	n/a	n/a	0	0.422607421875	0.5869140625	0	upper	amplitud.ttf
956.186	n/a	WORD	478093	wordpools/wasnorm_wordpool_less_exclusions.txt	LTP245	ltpFR	6	4	1	RASH	1167	n/a	n/a	0	0.422607421875	0.5869140625	0	upper	amplitud.ttf
960.014	n/a	WORD	480007	wordpools/wasnorm_wordpool_less_exclusions.txt	LTP245	ltpFR	6	4	1	BELL	118	n/a	n/a	0	0.422607421875	0.5869140625	0	upper	amplitud.ttf
964.074	n/a	WORD	482037	wordpools/wasnorm_wordpool_less_exclusions.txt	LTP245	ltpFR	6	4	1	CARD	243	n/a	n/a	0	0.422607421875	0.5869140625	0	upper	amplitud.ttf
967.918	n/a	WORD	483959	wordpools/wasnorm_wordpool_less_exclusions.txt	LTP245	ltpFR	6	4	1	NAIL	936	n/a	n/a	0	0.422607421875	0.5869140625	0	upper	amplitud.ttf
972.046	n/a	WORD	486023	wordpools/wasnorm_wordpool_less_exclusions.txt	LTP245	ltpFR	6	4	1	SAPPHIRE	1234	n/a	n/a	0	0.422607421875	0.5869140625	0	upper	amplitud.ttf
975.94	n/a	WORD	487970	wordpools/wasnorm_wordpool_less_exclusions.txt	LTP245	ltpFR	6	4	1	CHEMIST	292	n/a	n/a	1	0.422607421875	0.5869140625	0	upper	amplitud.ttf
979.968	n/a	WORD	489984	wordpools/wasnorm_wordpool_less_exclusions.txt	LTP245	ltpFR	6	4	1	PARROT	1015	n/a	n/a	1	0.422607421875	0.5869140625	0	upper	amplitud.ttf
983.944	n/a	WORD	491972	wordpools/wasnorm_wordpool_less_exclusions.txt	LTP245	ltpFR	6	4	1	ROOST	1208	n/a	n/a	0	0.422607421875	0.5869140625	0	upper	amplitud.ttf
987.872	n/a	WORD	493936	wordpools/wasnorm_wordpool_less_exclusions.txt	LTP245	ltpFR	6	4	1	MECHANIC	884	n/a	n/a	1	0.422607421875	0.5869140625	0	upper	amplitud.ttf
991.9	n/a	WORD	495950	wordpools/wasnorm_wordpool_less_exclusions.txt	LTP245	ltpFR	6	4	1	DRIVER	499	n/a	n/a	1	0.422607421875	0.5869140625	0	upper	amplitud.ttf
997.842	n/a	REC_START	498921	n/a	LTP245	ltpFR	6	4	n/a	n/a	n/a	n/a	n/a	n/a	n/a	n/a	n/a	n/a	n/a
998.48	n/a	REC_WORD	499240	wordpools/wasnorm_wordpool_less_exclusions.txt	LTP245	ltpFR	6	4	1	DRIVER	499	n/a	n/a	1	n/a	n/a	n/a	n/a	n/a
999.462	n/a	REC_WORD	499731	wordpools/wasnorm_wordpool_less_exclusions.txt	LTP245	ltpFR	6	4	1	CHEMIST	292	n/a	n/a	1	n/a	n/a	n/a	n/a	n/a
1000.116	n/a	REC_WORD	500058	wordpools/wasnorm_wordpool_less_exclusions.txt	LTP245	ltpFR	6	4	1	MECHANIC	884	n/a	n/a	1	n/a	n/a	n/a	n/a	n/a
1005.962	n/a	REC_WORD	502981	wordpools/wasnorm_wordpool_less_exclusions.txt	LTP245	ltpFR	6	4	1	PARROT	1015	n/a	n/a	1	n/a	n/a	n/a	n/a	n/a
1116.964	n/a	WORD	558482	wordpools/wasnorm_wordpool_less_exclusions.txt	LTP245	ltpFR	6	5	-1	BEET	115	n/a	n/a	-1	1.0	1.0	1	upper	Verdana.ttf
1121.126	n/a	WORD	560563	wordpools/wasnorm_wordpool_less_exclusions.txt	LTP245	ltpFR	6	5	-1	HORIZON	717	n/a	n/a	-1	1.0	1.0	1	upper	Verdana.ttf
1125.002	n/a	WORD	562501	wordpools/wasnorm_wordpool_less_exclusions.txt	LTP245	ltpFR	6	5	-1	WATER	1594	n/a	n/a	-1	1.0	1.0	1	upper	Verdana.ttf
1128.914	n/a	WORD	564457	wordpools/wasnorm_wordpool_less_exclusions.txt	LTP245	ltpFR	6	5	-1	LIBRARY	816	n/a	n/a	-1	1.0	1.0	1	upper	Verdana.ttf
1132.824	n/a	WORD	566412	wordpools/wasnorm_wordpool_less_exclusions.txt	LTP245	ltpFR	6	5	-1	VEGETABLE	1552	n/a	n/a	-1	1.0	1.0	1	upper	Verdana.ttf
1136.686	n/a	WORD	568343	wordpools/wasnorm_wordpool_less_exclusions.txt	LTP245	ltpFR	6	5	-1	SUN	1406	n/a	n/a	-1	1.0	1.0	1	upper	Verdana.ttf
1140.796	n/a	WORD	570398	wordpools/wasnorm_wordpool_less_exclusions.txt	LTP245	ltpFR	6	5	-1	HORSE	719	n/a	n/a	-1	1.0	1.0	1	upper	Verdana.ttf
1144.774	n/a	WORD	572387	wordpools/wasnorm_wordpool_less_exclusions.txt	LTP245	ltpFR	6	5	-1	CARRIAGE	248	n/a	n/a	-1	1.0	1.0	1	upper	Verdana.ttf
1148.636	n/a	WORD	574318	wordpools/wasnorm_wordpool_less_exclusions.txt	LTP245	ltpFR	6	5	-1	MOUTH	926	n/a	n/a	-1	1.0	1.0	1	upper	Verdana.ttf
1152.646	n/a	WORD	576323	wordpools/wasnorm_wordpool_less_exclusions.txt	LTP245	ltpFR	6	5	-1	CHERRY	293	n/a	n/a	-1	1.0	1.0	1	upper	Verdana.ttf
1156.806	n/a	WORD	578403	wordpools/wasnorm_wordpool_less_exclusions.txt	LTP245	ltpFR	6	5	-1	ORANGE	980	n/a	n/a	-1	1.0	1.0	1	upper	Verdana.ttf
1160.668	n/a	WORD	580334	wordpools/wasnorm_wordpool_less_exclusions.txt	LTP245	ltpFR	6	5	-1	NAVIGATOR	938	n/a	n/a	-1	1.0	1.0	1	upper	Verdana.ttf
1164.644	n/a	WORD	582322	wordpools/wasnorm_wordpool_less_exclusions.txt	LTP245	ltpFR	6	5	-1	VOLLEYBALL	1576	n/a	n/a	-1	1.0	1.0	1	upper	Verdana.ttf
1168.672	n/a	WORD	584336	wordpools/wasnorm_wordpool_less_exclusions.txt	LTP245	ltpFR	6	5	-1	MOTOR	922	n/a	n/a	-1	1.0	1.0	1	upper	Verdana.ttf
1172.6	n/a	WORD	586300	wordpools/wasnorm_wordpool_less_exclusions.txt	LTP245	ltpFR	6	5	-1	XEROX	1628	n/a	n/a	-1	1.0	1.0	1	upper	Verdana.ttf
1176.626	n/a	WORD	588313	wordpools/wasnorm_wordpool_less_exclusions.txt	LTP245	ltpFR	6	5	-1	FOLDER	588	n/a	n/a	-1	1.0	1.0	1	upper	Verdana.ttf
1182.686	n/a	REC_START	591343	n/a	LTP245	ltpFR	6	5	n/a	n/a	n/a	n/a	n/a	n/a	n/a	n/a	n/a	n/a	n/a
1183.978	n/a	REC_WORD	591989	wordpools/wasnorm_wordpool_less_exclusions.txt	LTP245	ltpFR	6	5	-1	XEROX	1628	n/a	n/a	-1	n/a	n/a	n/a	n/a	n/a
1184.97	n/a	REC_WORD	592485	wordpools/wasnorm_wordpool_less_exclusions.txt	LTP245	ltpFR	6	5	-1	FOLDER	588	n/a	n/a	-1	n/a	n/a	n/a	n/a	n/a
1185.804	n/a	REC_WORD	592902	wordpools/wasnorm_wordpool_less_exclusions.txt	LTP245	ltpFR	6	5	-1	VOLLEYBALL	1576	n/a	n/a	-1	n/a	n/a	n/a	n/a	n/a
1187.326	n/a	REC_WORD	593663	wordpools/wasnorm_wordpool_less_exclusions.txt	LTP245	ltpFR	6	5	-1	CHERRY	293	n/a	n/a	-1	n/a	n/a	n/a	n/a	n/a
1188.184	n/a	REC_WORD	594092	wordpools/wasnorm_wordpool_less_exclusions.txt	LTP245	ltpFR	6	5	-1	MOUTH	926	n/a	n/a	-1	n/a	n/a	n/a	n/a	n/a
1189.116	n/a	REC_WORD	594558	wordpools/wasnorm_wordpool_less_exclusions.txt	LTP245	ltpFR	6	5	-1	WATER	1594	n/a	n/a	-1	n/a	n/a	n/a	n/a	n/a
1190.224	n/a	REC_WORD	595112	wordpools/wasnorm_wordpool_less_exclusions.txt	LTP245	ltpFR	6	5	-1	SUN	1406	n/a	n/a	-1	n/a	n/a	n/a	n/a	n/a
1191.086	n/a	REC_WORD	595543	wordpools/wasnorm_wordpool_less_exclusions.txt	LTP245	ltpFR	6	5	-1	HORIZON	717	n/a	n/a	-1	n/a	n/a	n/a	n/a	n/a
1192.624	n/a	REC_WORD	596312	wordpools/wasnorm_wordpool_less_exclusions.txt	LTP245	ltpFR	6	5	-1	VEGETABLE	1552	n/a	n/a	-1	n/a	n/a	n/a	n/a	n/a
1193.816	n/a	REC_WORD	596908	wordpools/wasnorm_wordpool_less_exclusions.txt	LTP245	ltpFR	6	5	-1	BEET	115	n/a	n/a	-1	n/a	n/a	n/a	n/a	n/a
1303.822	n/a	WORD	651911	wordpools/wasnorm_wordpool_less_exclusions.txt	LTP245	ltpFR	6	6	0	TANK	1432	n/a	n/a	0	0.57763671875	0.412841796875	1	lower	zerothre.ttf
1307.716	n/a	WORD	653858	wordpools/wasnorm_wordpool_less_exclusions.txt	LTP245	ltpFR	6	6	0	FISH	571	n/a	n/a	0	0.57763671875	0.412841796875	1	lower	zerothre.ttf
1311.61	n/a	WORD	655805	wordpools/wasnorm_wordpool_less_exclusions.txt	LTP245	ltpFR	6	6	0	LAWN	805	n/a	n/a	1	0.57763671875	0.412841796875	1	lower	zerothre.ttf
1315.472	n/a	WORD	657736	wordpools/wasnorm_wordpool_less_exclusions.txt	LTP245	ltpFR	6	6	0	COLOGNE	347	n/a	n/a	0	0.57763671875	0.412841796875	1	lower	zerothre.ttf
1319.366	n/a	WORD	659683	wordpools/wasnorm_wordpool_less_exclusions.txt	LTP245	ltpFR	6	6	0	ALLIGATOR	16	n/a	n/a	1	0.57763671875	0.412841796875	1	lower	zerothre.ttf
1323.344	n/a	WORD	661672	wordpools/wasnorm_wordpool_less_exclusions.txt	LTP245	ltpFR	6	6	0	SICKLE	1302	n/a	n/a	0	0.57763671875	0.412841796875	1	lower	zerothre.ttf
1327.536	n/a	WORD	663768	wordpools/wasnorm_wordpool_less_exclusions.txt	LTP245	ltpFR	6	6	1	WEED	1599	n/a	n/a	1	0.422607421875	0.5869140625	0	upper	amplitud.ttf
1331.514	n/a	WORD	665757	wordpools/wasnorm_wordpool_less_exclusions.txt	LTP245	ltpFR	6	6	1	PONY	1102	n/a	n/a	1	0.422607421875	0.5869140625	0	upper	amplitud.ttf
1335.71	n/a	WORD	667855	wordpools/wasnorm_wordpool_less_exclusions.txt	LTP245	ltpFR	6	6	1	PEARL	1034	n/a	n/a	0	0.422607421875	0.5869140625	0	upper	amplitud.ttf
1339.852	n/a	WORD	669926	wordpools/wasnorm_wordpool_less_exclusions.txt	LTP245	ltpFR	6	6	1	NECKLACE	940	n/a	n/a	0	0.422607421875	0.5869140625	0	upper	amplitud.ttf
1343.896	n/a	WORD	671948	wordpools/wasnorm_wordpool_less_exclusions.txt	LTP245	ltpFR	6	6	1	MUG	930	n/a	n/a	0	0.422607421875	0.5869140625	0	upper	amplitud.ttf
1347.94	n/a	WORD	673970	wordpools/wasnorm_wordpool_less_exclusions.txt	LTP245	ltpFR	6	6	1	FARM	552	n/a	n/a	0	0.422607421875	0.5869140625	0	upper	amplitud.ttf
1352.034	n/a	WORD	676017	wordpools/wasnorm_wordpool_less_exclusions.txt	LTP245	ltpFR	6	6	0	GRASS	655	n/a	n/a	0	0.57763671875	0.412841796875	1	lower	zerothre.ttf
1356.228	n/a	WORD	678114	wordpools/wasnorm_wordpool_less_exclusions.txt	LTP245	ltpFR	6	6	0	ANTEATER	26	n/a	n/a	1	0.57763671875	0.412841796875	1	lower	zerothre.ttf
1360.172	n/a	WORD	680086	wordpools/wasnorm_wordpool_less_exclusions.txt	LTP245	ltpFR	6	6	1	STRANGER	1389	n/a	n/a	1	0.422607421875	0.5869140625	0	upper	amplitud.ttf
1364.082	n/a	WORD	682041	wordpools/wasnorm_wordpool_less_exclusions.txt	LTP245	ltpFR	6	6	1	SCULPTURE	1258	n/a	n/a	0	0.422607421875	0.5869140625	0	upper	amplitud.ttf
1369.958	n/a	REC_START	684979	n/a	LTP245	ltpFR	6	6	n/a	n/a	n/a	n/a	n/a	n/a	n/a	n/a	n/a	n/a	n/a
1370.636	n/a	REC_WORD	685318	wordpools/wasnorm_wordpool_less_exclusions.txt	LTP245	ltpFR	6	6	1	SCULPTURE	1258	n/a	n/a	0	n/a	n/a	n/a	n/a	n/a
1371.474	n/a	REC_WORD	685737	wordpools/wasnorm_wordpool_less_exclusions.txt	LTP245	ltpFR	6	6	1	STRANGER	1389	n/a	n/a	1	n/a	n/a	n/a	n/a	n/a
1372.84	n/a	REC_WORD	686420	wordpools/wasnorm_wordpool_less_exclusions.txt	LTP245	ltpFR	6	6	1	PEARL	1034	n/a	n/a	0	n/a	n/a	n/a	n/a	n/a
1373.644	n/a	REC_WORD	686822	wordpools/wasnorm_wordpool_less_exclusions.txt	LTP245	ltpFR	6	6	1	NECKLACE	940	n/a	n/a	0	n/a	n/a	n/a	n/a	n/a
1374.646	n/a	REC_WORD	687323	wordpools/wasnorm_wordpool_less_exclusions.txt	LTP245	ltpFR	6	6	1	WEED	1599	n/a	n/a	1	n/a	n/a	n/a	n/a	n/a
1380.642	n/a	REC_WORD	690321	wordpools/wasnorm_wordpool_less_exclusions.txt	LTP245	ltpFR	6	6	0	ANTEATER	26	n/a	n/a	1	n/a	n/a	n/a	n/a	n/a
1382.024	n/a	REC_WORD	691012	wordpools/wasnorm_wordpool_less_exclusions.txt	LTP245	ltpFR	6	6	0	GRASS	655	n/a	n/a	0	n/a	n/a	n/a	n/a	n/a
1494.624	n/a	WORD	747312	wordpools/wasnorm_wordpool_less_exclusions.txt	LTP245	ltpFR	6	7	0	CUPBOARD	425	n/a	n/a	0	0.57763671875	0.412841796875	1	lower	zerothre.ttf
1498.816	n/a	WORD	749408	wordpools/wasnorm_wordpool_less_exclusions.txt	LTP245	ltpFR	6	7	0	CAFETERIA	217	n/a	n/a	1	0.57763671875	0.412841796875	1	lower	zerothre.ttf
1503.026	n/a	WORD	751513	wordpools/wasnorm_wordpool_less_exclusions.txt	LTP245	ltpFR	6	7	0	SHRIMP	1297	n/a	n/a	0	0.57763671875	0.412841796875	1	lower	zerothre.ttf
1506.92	n/a	WORD	753460	wordpools/wasnorm_wordpool_less_exclusions.txt	LTP245	ltpFR	6	7	0	MUSTARD	935	n/a	n/a	0	0.57763671875	0.412841796875	1	lower	zerothre.ttf
1511.082	n/a	WORD	755541	wordpools/wasnorm_wordpool_less_exclusions.txt	LTP245	ltpFR	6	7	0	FURNITURE	616	n/a	n/a	1	0.57763671875	0.412841796875	1	lower	zerothre.ttf
1515.276	n/a	WORD	757638	wordpools/wasnorm_wordpool_less_exclusions.txt	LTP245	ltpFR	6	7	0	LOUNGE	845	n/a	n/a	1	0.57763671875	0.412841796875	1	lower	zerothre.ttf
1519.336	n/a	WORD	759668	wordpools/wasnorm_wordpool_less_exclusions.txt	LTP245	ltpFR	6	7	0	SINK	1309	n/a	n/a	0	0.57763671875	0.412841796875	1	lower	zerothre.ttf
1523.364	n/a	WORD	761682	wordpools/wasnorm_wordpool_less_exclusions.txt	LTP245	ltpFR	6	7	0	YOLK	1633	n/a	n/a	0	0.57763671875	0.412841796875	1	lower	zerothre.ttf
1527.458	n/a	WORD	763729	wordpools/wasnorm_wordpool_less_exclusions.txt	LTP245	ltpFR	6	7	0	SPARROW	1347	n/a	n/a	0	0.57763671875	0.412841796875	1	lower	zerothre.ttf
1531.468	n/a	WORD	765734	wordpools/wasnorm_wordpool_less_exclusions.txt	LTP245	ltpFR	6	7	0	KNOT	788	n/a	n/a	0	0.57763671875	0.412841796875	1	lower	zerothre.ttf
1535.38	n/a	WORD	767690	wordpools/wasnorm_wordpool_less_exclusions.txt	LTP245	ltpFR	6	7	0	FRIES	607	n/a	n/a	0	0.57763671875	0.412841796875	1	lower	zerothre.ttf
1539.424	n/a	WORD	769712	wordpools/wasnorm_wordpool_less_exclusions.txt	LTP245	ltpFR	6	7	0	BROOK	177	n/a	n/a	1	0.57763671875	0.412841796875	1	lower	zerothre.ttf
1543.384	n/a	WORD	771692	wordpools/wasnorm_wordpool_less_exclusions.txt	LTP245	ltpFR	6	7	0	CORD	379	n/a	n/a	0	0.57763671875	0.412841796875	1	lower	zerothre.ttf
1547.412	n/a	WORD	773706	wordpools/wasnorm_wordpool_less_exclusions.txt	LTP245	ltpFR	6	7	0	VACUUM	1543	n/a	n/a	0	0.57763671875	0.412841796875	1	lower	zerothre.ttf
1551.372	n/a	WORD	775686	wordpools/wasnorm_wordpool_less_exclusions.txt	LTP245	ltpFR	6	7	0	NET	946	n/a	n/a	0	0.57763671875	0.412841796875	1	lower	zerothre.ttf
1555.4	n/a	WORD	777700	wordpools/wasnorm_wordpool_less_exclusions.txt	LTP245	ltpFR	6	7	0	TUNA	1518	n/a	n/a	1	0.57763671875	0.412841796875	1	lower	zerothre.ttf
1561.292	n/a	REC_START	780646	n/a	LTP245	ltpFR	6	7	n/a	n/a	n/a	n/a	n/a	n/a	n/a	n/a	n/a	n/a	n/a
1563.796	n/a	REC_WORD	781898	wordpools/wasnorm_wordpool_less_exclusions.txt	LTP245	ltpFR	6	7	0	TUNA	1518	n/a	n/a	1	n/a	n/a	n/a	n/a	n/a
1564.524	n/a	REC_WORD	782262	wordpools/wasnorm_wordpool_less_exclusions.txt	LTP245	ltpFR	6	7	0	NET	946	n/a	n/a	0	n/a	n/a	n/a	n/a	n/a
1565.302	n/a	REC_WORD	782651	wordpools/wasnorm_wordpool_less_exclusions.txt	LTP245	ltpFR	6	7	0	CAFETERIA	217	n/a	n/a	1	n/a	n/a	n/a	n/a	n/a
1573.564	n/a	REC_WORD	786782	wordpools/wasnorm_wordpool_less_exclusions.txt	LTP245	ltpFR	6	7	0	BROOK	177	n/a	n/a	1	n/a	n/a	n/a	n/a	n/a
1682.346	n/a	WORD	841173	wordpools/wasnorm_wordpool_less_exclusions.txt	LTP245	ltpFR	6	8	-1	ARCHITECT	36	n/a	n/a	-1	1.0	1.0	1	upper	Verdana.ttf
1686.472	n/a	WORD	843236	wordpools/wasnorm_wordpool_less_exclusions.txt	LTP245	ltpFR	6	8	-1	BOSS	152	n/a	n/a	-1	1.0	1.0	1	upper	Verdana.ttf
1690.616	n/a	WORD	845308	wordpools/wasnorm_wordpool_less_exclusions.txt	LTP245	ltpFR	6	8	-1	PALACE	1006	n/a	n/a	-1	1.0	1.0	1	upper	Verdana.ttf
1694.76	n/a	WORD	847380	wordpools/wasnorm_wordpool_less_exclusions.txt	LTP245	ltpFR	6	8	-1	DAM	436	n/a	n/a	-1	1.0	1.0	1	upper	Verdana.ttf
1698.688	n/a	WORD	849344	wordpools/wasnorm_wordpool_less_exclusions.txt	LTP245	ltpFR	6	8	-1	ZUCCHINI	1638	n/a	n/a	-1	1.0	1.0	1	upper	Verdana.ttf
1702.864	n/a	WORD	851432	wordpools/wasnorm_wordpool_less_exclusions.txt	LTP245	ltpFR	6	8	-1	SCENERY	1247	n/a	n/a	-1	1.0	1.0	1	upper	Verdana.ttf
1707.042	n/a	WORD	853521	wordpools/wasnorm_wordpool_less_exclusions.txt	LTP245	ltpFR	6	8	-1	LAGOON	795	n/a	n/a	-1	1.0	1.0	1	upper	Verdana.ttf
1711.052	n/a	WORD	855526	wordpools/wasnorm_wordpool_less_exclusions.txt	LTP245	ltpFR	6	8	-1	RAILROAD	1162	n/a	n/a	-1	1.0	1.0	1	upper	Verdana.ttf
1715.03	n/a	WORD	857515	wordpools/wasnorm_wordpool_less_exclusions.txt	LTP245	ltpFR	6	8	-1	RAIL	1161	n/a	n/a	-1	1.0	1.0	1	upper	Verdana.ttf
1719.206	n/a	WORD	859603	wordpools/wasnorm_wordpool_less_exclusions.txt	LTP245	ltpFR	6	8	-1	SUNRISE	1407	n/a	n/a	-1	1.0	1.0	1	upper	Verdana.ttf
1723.134	n/a	WORD	861567	wordpools/wasnorm_wordpool_less_exclusions.txt	LTP245	ltpFR	6	8	-1	CHOCOLATE	306	n/a	n/a	-1	1.0	1.0	1	upper	Verdana.ttf
1727.078	n/a	WORD	863539	wordpools/wasnorm_wordpool_less_exclusions.txt	LTP245	ltpFR	6	8	-1	GALAXY	617	n/a	n/a	-1	1.0	1.0	1	upper	Verdana.ttf
1731.122	n/a	WORD	865561	wordpools/wasnorm_wordpool_less_exclusions.txt	LTP245	ltpFR	6	8	-1	LAUNDRY	803	n/a	n/a	-1	1.0	1.0	1	upper	Verdana.ttf
1735.016	n/a	WORD	867508	wordpools/wasnorm_wordpool_less_exclusions.txt	LTP245	ltpFR	6	8	-1	BUREAU	199	n/a	n/a	-1	1.0	1.0	1	upper	Verdana.ttf
1739.128	n/a	WORD	869564	wordpools/wasnorm_wordpool_less_exclusions.txt	LTP245	ltpFR	6	8	-1	ASSISTANT	48	n/a	n/a	-1	1.0	1.0	1	upper	Verdana.ttf
1743.038	n/a	WORD	871519	wordpools/wasnorm_wordpool_less_exclusions.txt	LTP245	ltpFR	6	8	-1	HOME	712	n/a	n/a	-1	1.0	1.0	1	upper	Verdana.ttf
1749.114	n/a	REC_START	874557	n/a	LTP245	ltpFR	6	8	n/a	n/a	n/a	n/a	n/a	n/a	n/a	n/a	n/a	n/a	n/a
1750.45	n/a	REC_WORD	875225	wordpools/wasnorm_wordpool_less_exclusions.txt	LTP245	ltpFR	6	8	-1	HOME	712	n/a	n/a	-1	n/a	n/a	n/a	n/a	n/a
1751.632	n/a	REC_WORD	875816	wordpools/wasnorm_wordpool_less_exclusions.txt	LTP245	ltpFR	6	8	-1	BUREAU	199	n/a	n/a	-1	n/a	n/a	n/a	n/a	n/a
1754.716	n/a	REC_WORD	877358	wordpools/wasnorm_wordpool_less_exclusions.txt	LTP245	ltpFR	6	8	-1	ARCHITECT	36	n/a	n/a	-1	n/a	n/a	n/a	n/a	n/a
1757.16	n/a	REC_WORD	878580	wordpools/wasnorm_wordpool_less_exclusions.txt	LTP245	ltpFR	6	8	-1	ASSISTANT	48	n/a	n/a	-1	n/a	n/a	n/a	n/a	n/a
1759.246	n/a	REC_WORD	879623	wordpools/wasnorm_wordpool_less_exclusions.txt	LTP245	ltpFR	6	8	-1	PALACE	1006	n/a	n/a	-1	n/a	n/a	n/a	n/a	n/a
1834.968	n/a	WORD	917484	wordpools/wasnorm_wordpool_less_exclusions.txt	LTP245	ltpFR	6	9	1	BOTTLE	153	n/a	n/a	0	0.422607421875	0.5869140625	0	upper	amplitud.ttf
1838.93	n/a	WORD	919465	wordpools/wasnorm_wordpool_less_exclusions.txt	LTP245	ltpFR	6	9	1	STEAM	1375	n/a	n/a	0	0.422607421875	0.5869140625	0	upper	amplitud.ttf
1842.824	n/a	WORD	921412	wordpools/wasnorm_wordpool_less_exclusions.txt	LTP245	ltpFR	6	9	1	CREW	406	n/a	n/a	1	0.422607421875	0.5869140625	0	upper	amplitud.ttf
1846.934	n/a	WORD	923467	wordpools/wasnorm_wordpool_less_exclusions.txt	LTP245	ltpFR	6	9	1	SAILOR	1223	n/a	n/a	1	0.422607421875	0.5869140625	0	upper	amplitud.ttf
1850.912	n/a	WORD	925456	wordpools/wasnorm_wordpool_less_exclusions.txt	LTP245	ltpFR	6	9	1	WORM	1623	n/a	n/a	1	0.422607421875	0.5869140625	0	upper	amplitud.ttf
1855.022	n/a	WORD	927511	wordpools/wasnorm_wordpool_less_exclusions.txt	LTP245	ltpFR	6	9	1	QUEEN	1149	n/a	n/a	1	0.422607421875	0.5869140625	0	upper	amplitud.ttf
1859.116	n/a	WORD	929558	wordpools/wasnorm_wordpool_less_exclusions.txt	LTP245	ltpFR	6	9	1	RATTLE	1170	n/a	n/a	0	0.422607421875	0.5869140625	0	upper	amplitud.ttf
1863.21	n/a	WORD	931605	wordpools/wasnorm_wordpool_less_exclusions.txt	LTP245	ltpFR	6	9	1	PAIL	1002	n/a	n/a	0	0.422607421875	0.5869140625	0	upper	amplitud.ttf
1867.304	n/a	WORD	933652	wordpools/wasnorm_wordpool_less_exclusions.txt	LTP245	ltpFR	6	9	1	SMOG	1330	n/a	n/a	0	0.422607421875	0.5869140625	0	upper	amplitud.ttf
1871.316	n/a	WORD	935658	wordpools/wasnorm_wordpool_less_exclusions.txt	LTP245	ltpFR	6	9	1	SKILLET	1317	n/a	n/a	0	0.422607421875	0.5869140625	0	upper	amplitud.ttf
1875.344	n/a	WORD	937672	wordpools/wasnorm_wordpool_less_exclusions.txt	LTP245	ltpFR	6	9	1	CHEF	290	n/a	n/a	1	0.422607421875	0.5869140625	0	upper	amplitud.ttf
1879.42	n/a	WORD	939710	wordpools/wasnorm_wordpool_less_exclusions.txt	LTP245	ltpFR	6	9	1	HAYSTACK	694	n/a	n/a	0	0.422607421875	0.5869140625	0	upper	amplitud.ttf
1883.564	n/a	WORD	941782	wordpools/wasnorm_wordpool_less_exclusions.txt	LTP245	ltpFR	6	9	1	ZEBRA	1635	n/a	n/a	1	0.422607421875	0.5869140625	0	upper	amplitud.ttf
1887.608	n/a	WORD	943804	wordpools/wasnorm_wordpool_less_exclusions.txt	LTP245	ltpFR	6	9	1	WINDSHIELD	1612	n/a	n/a	0	0.422607421875	0.5869140625	0	upper	amplitud.ttf
1891.752	n/a	WORD	945876	wordpools/wasnorm_wordpool_less_exclusions.txt	LTP245	ltpFR	6	9	1	COBRA	336	n/a	n/a	1	0.422607421875	0.5869140625	0	upper	amplitud.ttf
1895.73	n/a	WORD	947865	wordpools/wasnorm_wordpool_less_exclusions.txt	LTP245	ltpFR	6	9	1	CREEK	404	n/a	n/a	1	0.422607421875	0.5869140625	0	upper	amplitud.ttf
1901.538	n/a	REC_START	950769	n/a	LTP245	ltpFR	6	9	n/a	n/a	n/a	n/a	n/a	n/a	n/a	n/a	n/a	n/a	n/a
1902.306	n/a	REC_WORD	951153	wordpools/wasnorm_wordpool_less_exclusions.txt	LTP245	ltpFR	6	9	1	CREEK	404	n/a	n/a	1	n/a	n/a	n/a	n/a	n/a
1903.024	n/a	REC_WORD	951512	wordpools/wasnorm_wordpool_less_exclusions.txt	LTP245	ltpFR	6	9	1	COBRA	336	n/a	n/a	1	n/a	n/a	n/a	n/a	n/a
1987.958	n/a	WORD	993979	wordpools/wasnorm_wordpool_less_exclusions.txt	LTP245	ltpFR	6	10	0	HANGER	687	n/a	n/a	0	0.57763671875	0.412841796875	1	lower	zerothre.ttf
1991.87	n/a	WORD	995935	wordpools/wasnorm_wordpool_less_exclusions.txt	LTP245	ltpFR	6	10	0	BEE	112	n/a	n/a	0	0.57763671875	0.412841796875	1	lower	zerothre.ttf
1995.946	n/a	WORD	997973	wordpools/wasnorm_wordpool_less_exclusions.txt	LTP245	ltpFR	6	10	1	HORNET	718	n/a	n/a	0	0.422607421875	0.5869140625	0	upper	amplitud.ttf
2000.158	n/a	WORD	1000079	wordpools/wasnorm_wordpool_less_exclusions.txt	LTP245	ltpFR	6	10	1	OWNER	993	n/a	n/a	1	0.422607421875	0.5869140625	0	upper	amplitud.ttf
2004.02	n/a	WORD	1002010	wordpools/wasnorm_wordpool_less_exclusions.txt	LTP245	ltpFR	6	10	1	RADIATOR	1156	n/a	n/a	0	0.422607421875	0.5869140625	0	upper	amplitud.ttf
2008.096	n/a	WORD	1004048	wordpools/wasnorm_wordpool_less_exclusions.txt	LTP245	ltpFR	6	10	1	UNIFORM	1539	n/a	n/a	0	0.422607421875	0.5869140625	0	upper	amplitud.ttf
2012.274	n/a	WORD	1006137	wordpools/wasnorm_wordpool_less_exclusions.txt	LTP245	ltpFR	6	10	0	SHEPHERD	1283	n/a	n/a	1	0.57763671875	0.412841796875	1	lower	zerothre.ttf
2016.218	n/a	WORD	1008109	wordpools/wasnorm_wordpool_less_exclusions.txt	LTP245	ltpFR	6	10	0	FLOWER	584	n/a	n/a	0	0.57763671875	0.412841796875	1	lower	zerothre.ttf
2020.346	n/a	WORD	1010173	wordpools/wasnorm_wordpool_less_exclusions.txt	LTP245	ltpFR	6	10	0	FIG	563	n/a	n/a	0	0.57763671875	0.412841796875	1	lower	zerothre.ttf
2024.456	n/a	WORD	1012228	wordpools/wasnorm_wordpool_less_exclusions.txt	LTP245	ltpFR	6	10	1	BLACKBERRY	132	n/a	n/a	0	0.422607421875	0.5869140625	0	upper	amplitud.ttf
2028.334	n/a	WORD	1014167	wordpools/wasnorm_wordpool_less_exclusions.txt	LTP245	ltpFR	6	10	1	TOTE	1487	n/a	n/a	0	0.422607421875	0.5869140625	0	upper	amplitud.ttf
2032.31	n/a	WORD	1016155	wordpools/wasnorm_wordpool_less_exclusions.txt	LTP245	ltpFR	6	10	1	NEWSPAPER	948	n/a	n/a	0	0.422607421875	0.5869140625	0	upper	amplitud.ttf
2036.356	n/a	WORD	1018178	wordpools/wasnorm_wordpool_less_exclusions.txt	LTP245	ltpFR	6	10	1	BARN	89	n/a	n/a	0	0.422607421875	0.5869140625	0	upper	amplitud.ttf
2040.432	n/a	WORD	1020216	wordpools/wasnorm_wordpool_less_exclusions.txt	LTP245	ltpFR	6	10	0	FEMALE	559	n/a	n/a	1	0.57763671875	0.412841796875	1	lower	zerothre.ttf
2044.308	n/a	WORD	1022154	wordpools/wasnorm_wordpool_less_exclusions.txt	LTP245	ltpFR	6	10	0	LILY	821	n/a	n/a	0	0.57763671875	0.412841796875	1	lower	zerothre.ttf
2048.42	n/a	WORD	1024210	wordpools/wasnorm_wordpool_less_exclusions.txt	LTP245	ltpFR	6	10	0	ALMANAC	17	n/a	n/a	0	0.57763671875	0.412841796875	1	lower	zerothre.ttf
2054.178	n/a	REC_START	1027089	n/a	LTP245	ltpFR	6	10	n/a	n/a	n/a	n/a	n/a	n/a	n/a	n/a	n/a	n/a	n/a
2054.972	n/a	REC_WORD	1027486	wordpools/wasnorm_wordpool_less_exclusions.txt	LTP245	ltpFR	6	10	0	ALMANAC	17	n/a	n/a	0	n/a	n/a	n/a	n/a	n/a
2055.63	n/a	REC_WORD	1027815	wordpools/wasnorm_wordpool_less_exclusions.txt	LTP245	ltpFR	6	10	0	FEMALE	559	n/a	n/a	1	n/a	n/a	n/a	n/a	n/a
2396.206	n/a	WORD	1198103	wordpools/wasnorm_wordpool_less_exclusions.txt	LTP245	ltpFR	6	11	1	MITTEN	902	n/a	n/a	0	0.422607421875	0.5869140625	0	upper	amplitud.ttf
2400.366	n/a	WORD	1200183	wordpools/wasnorm_wordpool_less_exclusions.txt	LTP245	ltpFR	6	11	1	PERMIT	1051	n/a	n/a	0	0.422607421875	0.5869140625	0	upper	amplitud.ttf
2404.41	n/a	WORD	1202205	wordpools/wasnorm_wordpool_less_exclusions.txt	LTP245	ltpFR	6	11	0	CORAL	378	n/a	n/a	1	0.57763671875	0.412841796875	1	lower	zerothre.ttf
2408.322	n/a	WORD	1204161	wordpools/wasnorm_wordpool_less_exclusions.txt	LTP245	ltpFR	6	11	0	DINNER	468	n/a	n/a	0	0.57763671875	0.412841796875	1	lower	zerothre.ttf
2412.432	n/a	WORD	1206216	wordpools/wasnorm_wordpool_less_exclusions.txt	LTP245	ltpFR	6	11	0	FIN	566	n/a	n/a	1	0.57763671875	0.412841796875	1	lower	zerothre.ttf
2416.56	n/a	WORD	1208280	wordpools/wasnorm_wordpool_less_exclusions.txt	LTP245	ltpFR	6	11	0	DOLPHIN	483	n/a	n/a	1	0.57763671875	0.412841796875	1	lower	zerothre.ttf
2420.504	n/a	WORD	1210252	wordpools/wasnorm_wordpool_less_exclusions.txt	LTP245	ltpFR	6	11	0	PIANO	1057	n/a	n/a	1	0.57763671875	0.412841796875	1	lower	zerothre.ttf
2424.564	n/a	WORD	1212282	wordpools/wasnorm_wordpool_less_exclusions.txt	LTP245	ltpFR	6	11	0	SHINGLE	1285	n/a	n/a	0	0.57763671875	0.412841796875	1	lower	zerothre.ttf
2428.558	n/a	WORD	1214279	wordpools/wasnorm_wordpool_less_exclusions.txt	LTP245	ltpFR	6	11	1	FAMILY	550	n/a	n/a	0	0.422607421875	0.5869140625	0	upper	amplitud.ttf
2432.468	n/a	WORD	1216234	wordpools/wasnorm_wordpool_less_exclusions.txt	LTP245	ltpFR	6	11	1	SPINE	1353	n/a	n/a	1	0.422607421875	0.5869140625	0	upper	amplitud.ttf
2436.48	n/a	WORD	1218240	wordpools/wasnorm_wordpool_less_exclusions.txt	LTP245	ltpFR	6	11	1	SHRUB	1299	n/a	n/a	1	0.422607421875	0.5869140625	0	upper	amplitud.ttf
2440.456	n/a	WORD	1220228	wordpools/wasnorm_wordpool_less_exclusions.txt	LTP245	ltpFR	6	11	0	ROOT	1210	n/a	n/a	1	0.57763671875	0.412841796875	1	lower	zerothre.ttf
2444.552	n/a	WORD	1222276	wordpools/wasnorm_wordpool_less_exclusions.txt	LTP245	ltpFR	6	11	0	TOAD	1470	n/a	n/a	1	0.57763671875	0.412841796875	1	lower	zerothre.ttf
2448.396	n/a	WORD	1224198	wordpools/wasnorm_wordpool_less_exclusions.txt	LTP245	ltpFR	6	11	1	SNORKEL	1336	n/a	n/a	0	0.422607421875	0.5869140625	0	upper	amplitud.ttf
2452.324	n/a	WORD	1226162	wordpools/wasnorm_wordpool_less_exclusions.txt	LTP245	ltpFR	6	11	1	TROMBONE	1508	n/a	n/a	0	0.422607421875	0.5869140625	0	upper	amplitud.ttf
2456.266	n/a	WORD	1228133	wordpools/wasnorm_wordpool_less_exclusions.txt	LTP245	ltpFR	6	11	1	ROOSTER	1209	n/a	n/a	1	0.422607421875	0.5869140625	0	upper	amplitud.ttf
2461.958	n/a	REC_START	1230979	n/a	LTP245	ltpFR	6	11	n/a	n/a	n/a	n/a	n/a	n/a	n/a	n/a	n/a	n/a	n/a
2463.14	n/a	REC_WORD	1231570	wordpools/wasnorm_wordpool_less_exclusions.txt	LTP245	ltpFR	6	11	1	ROOSTER	1209	n/a	n/a	1	n/a	n/a	n/a	n/a	n/a
2463.764	n/a	REC_WORD	1231882	wordpools/wasnorm_wordpool_less_exclusions.txt	LTP245	ltpFR	6	11	1	TROMBONE	1508	n/a	n/a	0	n/a	n/a	n/a	n/a	n/a
2464.648	n/a	REC_WORD	1232324	wordpools/wasnorm_wordpool_less_exclusions.txt	LTP245	ltpFR	6	11	n/a	TRUMPET	1513	n/a	n/a	n/a	n/a	n/a	n/a	n/a	n/a
2467.092	n/a	REC_WORD	1233546	wordpools/wasnorm_wordpool_less_exclusions.txt	LTP245	ltpFR	6	11	n/a	ROD	1203	n/a	n/a	n/a	n/a	n/a	n/a	n/a	n/a
2545.934	n/a	WORD	1272967	wordpools/wasnorm_wordpool_less_exclusions.txt	LTP245	ltpFR	6	12	-1	MONSTER	912	n/a	n/a	-1	1.0	1.0	1	upper	Verdana.ttf
2549.878	n/a	WORD	1274939	wordpools/wasnorm_wordpool_less_exclusions.txt	LTP245	ltpFR	6	12	-1	FRECKLE	602	n/a	n/a	-1	1.0	1.0	1	upper	Verdana.ttf
2553.706	n/a	WORD	1276853	wordpools/wasnorm_wordpool_less_exclusions.txt	LTP245	ltpFR	6	12	-1	TREAD	1499	n/a	n/a	-1	1.0	1.0	1	upper	Verdana.ttf
2557.7	n/a	WORD	1278850	wordpools/wasnorm_wordpool_less_exclusions.txt	LTP245	ltpFR	6	12	-1	LAKE	796	n/a	n/a	-1	1.0	1.0	1	upper	Verdana.ttf
2561.644	n/a	WORD	1280822	wordpools/wasnorm_wordpool_less_exclusions.txt	LTP245	ltpFR	6	12	-1	SIREN	1310	n/a	n/a	-1	1.0	1.0	1	upper	Verdana.ttf
2565.82	n/a	WORD	1282910	wordpools/wasnorm_wordpool_less_exclusions.txt	LTP245	ltpFR	6	12	-1	SAXOPHONE	1240	n/a	n/a	-1	1.0	1.0	1	upper	Verdana.ttf
2569.998	n/a	WORD	1284999	wordpools/wasnorm_wordpool_less_exclusions.txt	LTP245	ltpFR	6	12	-1	CHISEL	305	n/a	n/a	-1	1.0	1.0	1	upper	Verdana.ttf
2573.958	n/a	WORD	1286979	wordpools/wasnorm_wordpool_less_exclusions.txt	LTP245	ltpFR	6	12	-1	NOVEL	960	n/a	n/a	-1	1.0	1.0	1	upper	Verdana.ttf
2577.952	n/a	WORD	1288976	wordpools/wasnorm_wordpool_less_exclusions.txt	LTP245	ltpFR	6	12	-1	BEARD	107	n/a	n/a	-1	1.0	1.0	1	upper	Verdana.ttf
2582.18	n/a	WORD	1291090	wordpools/wasnorm_wordpool_less_exclusions.txt	LTP245	ltpFR	6	12	-1	CARPET	247	n/a	n/a	-1	1.0	1.0	1	upper	Verdana.ttf
2586.156	n/a	WORD	1293078	wordpools/wasnorm_wordpool_less_exclusions.txt	LTP245	ltpFR	6	12	-1	ATLAS	53	n/a	n/a	-1	1.0	1.0	1	upper	Verdana.ttf
2590.334	n/a	WORD	1295167	wordpools/wasnorm_wordpool_less_exclusions.txt	LTP245	ltpFR	6	12	-1	UNIVERSE	1540	n/a	n/a	-1	1.0	1.0	1	upper	Verdana.ttf
2594.312	n/a	WORD	1297156	wordpools/wasnorm_wordpool_less_exclusions.txt	LTP245	ltpFR	6	12	-1	NEPTUNE	943	n/a	n/a	-1	1.0	1.0	1	upper	Verdana.ttf
2598.458	n/a	WORD	1299229	wordpools/wasnorm_wordpool_less_exclusions.txt	LTP245	ltpFR	6	12	-1	CARPENTER	246	n/a	n/a	-1	1.0	1.0	1	upper	Verdana.ttf
2602.584	n/a	WORD	1301292	wordpools/wasnorm_wordpool_less_exclusions.txt	LTP245	ltpFR	6	12	-1	TENT	1449	n/a	n/a	-1	1.0	1.0	1	upper	Verdana.ttf
2606.428	n/a	WORD	1303214	wordpools/wasnorm_wordpool_less_exclusions.txt	LTP245	ltpFR	6	12	-1	GUEST	669	n/a	n/a	-1	1.0	1.0	1	upper	Verdana.ttf
2612.286	n/a	REC_START	1306143	n/a	LTP245	ltpFR	6	12	n/a	n/a	n/a	n/a	n/a	n/a	n/a	n/a	n/a	n/a	n/a
2613.144	n/a	REC_WORD	1306572	wordpools/wasnorm_wordpool_less_exclusions.txt	LTP245	ltpFR	6	12	-1	TENT	1449	n/a	n/a	-1	n/a	n/a	n/a	n/a	n/a
2613.858	n/a	REC_WORD	1306929	wordpools/wasnorm_wordpool_less_exclusions.txt	LTP245	ltpFR	6	12	-1	GUEST	669	n/a	n/a	-1	n/a	n/a	n/a	n/a	n/a
2616.292	n/a	REC_WORD	1308146	wordpools/wasnorm_wordpool_less_exclusions.txt	LTP245	ltpFR	6	12	-1	GALAXY	617	n/a	n/a	-1	n/a	n/a	n/a	n/a	n/a
2617.0	n/a	REC_WORD	1308500	wordpools/wasnorm_wordpool_less_exclusions.txt	LTP245	ltpFR	6	12	n/a	JUPITER	765	n/a	n/a	n/a	n/a	n/a	n/a	n/a	n/a
2620.028	n/a	REC_WORD	1310014	wordpools/wasnorm_wordpool_less_exclusions.txt	LTP245	ltpFR	6	12	-1	MONSTER	912	n/a	n/a	-1	n/a	n/a	n/a	n/a	n/a
2626.758	n/a	REC_WORD	1313379	wordpools/wasnorm_wordpool_less_exclusions.txt	LTP245	ltpFR	6	12	n/a	MOLE	-1	n/a	n/a	n/a	n/a	n/a	n/a	n/a	n/a
2629.358	n/a	REC_WORD	1314679	wordpools/wasnorm_wordpool_less_exclusions.txt	LTP245	ltpFR	6	12	n/a	THREAD	1460	n/a	n/a	n/a	n/a	n/a	n/a	n/a	n/a
2687.89	n/a	REST_REWET	1343945	n/a	LTP245	ltpFR	6	12	n/a	n/a	n/a	n/a	n/a	n/a	n/a	n/a	n/a	n/a	n/a
2959.82	n/a	WORD	1479910	wordpools/wasnorm_wordpool_less_exclusions.txt	LTP245	ltpFR	6	13	-1	DUNGEON	507	n/a	n/a	-1	1.0	1.0	1	upper	Verdana.ttf
2963.982	n/a	WORD	1481991	wordpools/wasnorm_wordpool_less_exclusions.txt	LTP245	ltpFR	6	13	-1	TORCH	1484	n/a	n/a	-1	1.0	1.0	1	upper	Verdana.ttf
2967.91	n/a	WORD	1483955	wordpools/wasnorm_wordpool_less_exclusions.txt	LTP245	ltpFR	6	13	-1	LEMON	810	n/a	n/a	-1	1.0	1.0	1	upper	Verdana.ttf
2971.804	n/a	WORD	1485902	wordpools/wasnorm_wordpool_less_exclusions.txt	LTP245	ltpFR	6	13	-1	SIGN	1305	n/a	n/a	-1	1.0	1.0	1	upper	Verdana.ttf
2975.648	n/a	WORD	1487824	wordpools/wasnorm_wordpool_less_exclusions.txt	LTP245	ltpFR	6	13	-1	REBEL	1172	n/a	n/a	-1	1.0	1.0	1	upper	Verdana.ttf
2979.51	n/a	WORD	1489755	wordpools/wasnorm_wordpool_less_exclusions.txt	LTP245	ltpFR	6	13	-1	TURNIP	1521	n/a	n/a	-1	1.0	1.0	1	upper	Verdana.ttf
2983.57	n/a	WORD	1491785	wordpools/wasnorm_wordpool_less_exclusions.txt	LTP245	ltpFR	6	13	-1	LETTUCE	814	n/a	n/a	-1	1.0	1.0	1	upper	Verdana.ttf
2987.498	n/a	WORD	1493749	wordpools/wasnorm_wordpool_less_exclusions.txt	LTP245	ltpFR	6	13	-1	DOCUMENT	479	n/a	n/a	-1	1.0	1.0	1	upper	Verdana.ttf
2991.526	n/a	WORD	1495763	wordpools/wasnorm_wordpool_less_exclusions.txt	LTP245	ltpFR	6	13	-1	HIKER	708	n/a	n/a	-1	1.0	1.0	1	upper	Verdana.ttf
2995.668	n/a	WORD	1497834	wordpools/wasnorm_wordpool_less_exclusions.txt	LTP245	ltpFR	6	13	-1	BUTTER	205	n/a	n/a	-1	1.0	1.0	1	upper	Verdana.ttf
2999.614	n/a	WORD	1499807	wordpools/wasnorm_wordpool_less_exclusions.txt	LTP245	ltpFR	6	13	-1	MUFFIN	929	n/a	n/a	-1	1.0	1.0	1	upper	Verdana.ttf
3003.59	n/a	WORD	1501795	wordpools/wasnorm_wordpool_less_exclusions.txt	LTP245	ltpFR	6	13	-1	COUNTRY	388	n/a	n/a	-1	1.0	1.0	1	upper	Verdana.ttf
3007.8	n/a	WORD	1503900	wordpools/wasnorm_wordpool_less_exclusions.txt	LTP245	ltpFR	6	13	-1	VALLEY	1545	n/a	n/a	-1	1.0	1.0	1	upper	Verdana.ttf
3012.01	n/a	WORD	1506005	wordpools/wasnorm_wordpool_less_exclusions.txt	LTP245	ltpFR	6	13	-1	FLESH	579	n/a	n/a	-1	1.0	1.0	1	upper	Verdana.ttf
3015.854	n/a	WORD	1507927	wordpools/wasnorm_wordpool_less_exclusions.txt	LTP245	ltpFR	6	13	-1	CITIZEN	312	n/a	n/a	-1	1.0	1.0	1	upper	Verdana.ttf
3020.064	n/a	WORD	1510032	wordpools/wasnorm_wordpool_less_exclusions.txt	LTP245	ltpFR	6	13	-1	UNCLE	1536	n/a	n/a	-1	1.0	1.0	1	upper	Verdana.ttf
3025.906	n/a	REC_START	1512953	n/a	LTP245	ltpFR	6	13	n/a	n/a	n/a	n/a	n/a	n/a	n/a	n/a	n/a	n/a	n/a
3026.534	n/a	REC_WORD	1513267	wordpools/wasnorm_wordpool_less_exclusions.txt	LTP245	ltpFR	6	13	-1	COUNTRY	388	n/a	n/a	-1	n/a	n/a	n/a	n/a	n/a
3027.184	n/a	REC_WORD	1513592	wordpools/wasnorm_wordpool_less_exclusions.txt	LTP245	ltpFR	6	13	-1	VALLEY	1545	n/a	n/a	-1	n/a	n/a	n/a	n/a	n/a
3028.192	n/a	REC_WORD	1514096	wordpools/wasnorm_wordpool_less_exclusions.txt	LTP245	ltpFR	6	13	-1	UNCLE	1536	n/a	n/a	-1	n/a	n/a	n/a	n/a	n/a
3029.04	n/a	REC_WORD	1514520	wordpools/wasnorm_wordpool_less_exclusions.txt	LTP245	ltpFR	6	13	n/a	FRESH	-1	n/a	n/a	n/a	n/a	n/a	n/a	n/a	n/a
3035.272	n/a	REC_WORD	1517636	wordpools/wasnorm_wordpool_less_exclusions.txt	LTP245	ltpFR	6	13	-1	TORCH	1484	n/a	n/a	-1	n/a	n/a	n/a	n/a	n/a
3107.152	n/a	WORD	1553576	wordpools/wasnorm_wordpool_less_exclusions.txt	LTP245	ltpFR	6	14	0	TUBA	1515	n/a	n/a	1	0.57763671875	0.412841796875	1	lower	zerothre.ttf
3111.214	n/a	WORD	1555607	wordpools/wasnorm_wordpool_less_exclusions.txt	LTP245	ltpFR	6	14	0	SAUSAGE	1238	n/a	n/a	0	0.57763671875	0.412841796875	1	lower	zerothre.ttf
3115.292	n/a	WORD	1557646	wordpools/wasnorm_wordpool_less_exclusions.txt	LTP245	ltpFR	6	14	0	KIDNEY	776	n/a	n/a	0	0.57763671875	0.412841796875	1	lower	zerothre.ttf
3119.236	n/a	WORD	1559618	wordpools/wasnorm_wordpool_less_exclusions.txt	LTP245	ltpFR	6	14	0	FLUTE	585	n/a	n/a	0	0.57763671875	0.412841796875	1	lower	zerothre.ttf
3123.246	n/a	WORD	1561623	wordpools/wasnorm_wordpool_less_exclusions.txt	LTP245	ltpFR	6	14	0	CONCERT	360	n/a	n/a	1	0.57763671875	0.412841796875	1	lower	zerothre.ttf
3127.44	n/a	WORD	1563720	wordpools/wasnorm_wordpool_less_exclusions.txt	LTP245	ltpFR	6	14	0	DRILL	497	n/a	n/a	1	0.57763671875	0.412841796875	1	lower	zerothre.ttf
3131.268	n/a	WORD	1565634	wordpools/wasnorm_wordpool_less_exclusions.txt	LTP245	ltpFR	6	14	0	GRILL	661	n/a	n/a	1	0.57763671875	0.412841796875	1	lower	zerothre.ttf
3135.244	n/a	WORD	1567622	wordpools/wasnorm_wordpool_less_exclusions.txt	LTP245	ltpFR	6	14	0	CONTRACTOR	369	n/a	n/a	0	0.57763671875	0.412841796875	1	lower	zerothre.ttf
3139.44	n/a	WORD	1569720	wordpools/wasnorm_wordpool_less_exclusions.txt	LTP245	ltpFR	6	14	0	ROOM	1206	n/a	n/a	1	0.57763671875	0.412841796875	1	lower	zerothre.ttf
3143.35	n/a	WORD	1571675	wordpools/wasnorm_wordpool_less_exclusions.txt	LTP245	ltpFR	6	14	0	PENGUIN	1044	n/a	n/a	1	0.57763671875	0.412841796875	1	lower	zerothre.ttf
3147.394	n/a	WORD	1573697	wordpools/wasnorm_wordpool_less_exclusions.txt	LTP245	ltpFR	6	14	0	LENS	811	n/a	n/a	0	0.57763671875	0.412841796875	1	lower	zerothre.ttf
3151.356	n/a	WORD	1575678	wordpools/wasnorm_wordpool_less_exclusions.txt	LTP245	ltpFR	6	14	0	SUBWAY	1400	n/a	n/a	1	0.57763671875	0.412841796875	1	lower	zerothre.ttf
3155.298	n/a	WORD	1577649	wordpools/wasnorm_wordpool_less_exclusions.txt	LTP245	ltpFR	6	14	0	WHISTLE	1606	n/a	n/a	0	0.57763671875	0.412841796875	1	lower	zerothre.ttf
3159.226	n/a	WORD	1579613	wordpools/wasnorm_wordpool_less_exclusions.txt	LTP245	ltpFR	6	14	0	CARDINAL	244	n/a	n/a	0	0.57763671875	0.412841796875	1	lower	zerothre.ttf
3163.42	n/a	WORD	1581710	wordpools/wasnorm_wordpool_less_exclusions.txt	LTP245	ltpFR	6	14	0	ALBUM	14	n/a	n/a	0	0.57763671875	0.412841796875	1	lower	zerothre.ttf
3167.248	n/a	WORD	1583624	wordpools/wasnorm_wordpool_less_exclusions.txt	LTP245	ltpFR	6	14	0	ORCHESTRA	981	n/a	n/a	1	0.57763671875	0.412841796875	1	lower	zerothre.ttf
3173.356	n/a	REC_START	1586678	n/a	LTP245	ltpFR	6	14	n/a	n/a	n/a	n/a	n/a	n/a	n/a	n/a	n/a	n/a	n/a
3174.144	n/a	REC_WORD	1587072	wordpools/wasnorm_wordpool_less_exclusions.txt	LTP245	ltpFR	6	14	0	ALBUM	14	n/a	n/a	0	n/a	n/a	n/a	n/a	n/a
3175.128	n/a	REC_WORD	1587564	wordpools/wasnorm_wordpool_less_exclusions.txt	LTP245	ltpFR	6	14	0	ORCHESTRA	981	n/a	n/a	1	n/a	n/a	n/a	n/a	n/a
3176.458	n/a	REC_WORD	1588229	wordpools/wasnorm_wordpool_less_exclusions.txt	LTP245	ltpFR	6	14	0	FLUTE	585	n/a	n/a	0	n/a	n/a	n/a	n/a	n/a
3179.378	n/a	REC_WORD	1589689	wordpools/wasnorm_wordpool_less_exclusions.txt	LTP245	ltpFR	6	14	n/a	TRUMPET	1513	n/a	n/a	n/a	n/a	n/a	n/a	n/a	n/a
3180.82	n/a	REC_WORD	1590410	wordpools/wasnorm_wordpool_less_exclusions.txt	LTP245	ltpFR	6	14	1	TROMBONE	1508	n/a	n/a	0	n/a	n/a	n/a	n/a	n/a
3263.256	n/a	WORD	1631628	wordpools/wasnorm_wordpool_less_exclusions.txt	LTP245	ltpFR	6	15	0	CHESS	294	n/a	n/a	0	0.57763671875	0.412841796875	1	lower	zerothre.ttf
3267.266	n/a	WORD	1633633	wordpools/wasnorm_wordpool_less_exclusions.txt	LTP245	ltpFR	6	15	0	POPE	1105	n/a	n/a	1	0.57763671875	0.412841796875	1	lower	zerothre.ttf
3271.16	n/a	WORD	1635580	wordpools/wasnorm_wordpool_less_exclusions.txt	LTP245	ltpFR	6	15	0	FIELD	562	n/a	n/a	1	0.57763671875	0.412841796875	1	lower	zerothre.ttf
3275.054	n/a	WORD	1637527	wordpools/wasnorm_wordpool_less_exclusions.txt	LTP245	ltpFR	6	15	0	TIDE	1465	n/a	n/a	1	0.57763671875	0.412841796875	1	lower	zerothre.ttf
3278.9	n/a	WORD	1639450	wordpools/wasnorm_wordpool_less_exclusions.txt	LTP245	ltpFR	6	15	0	CLOTHES	327	n/a	n/a	0	0.57763671875	0.412841796875	1	lower	zerothre.ttf
3283.01	n/a	WORD	1641505	wordpools/wasnorm_wordpool_less_exclusions.txt	LTP245	ltpFR	6	15	0	QUILL	1150	n/a	n/a	0	0.57763671875	0.412841796875	1	lower	zerothre.ttf
3287.17	n/a	WORD	1643585	wordpools/wasnorm_wordpool_less_exclusions.txt	LTP245	ltpFR	6	15	0	COIN	343	n/a	n/a	0	0.57763671875	0.412841796875	1	lower	zerothre.ttf
3291.214	n/a	WORD	1645607	wordpools/wasnorm_wordpool_less_exclusions.txt	LTP245	ltpFR	6	15	0	COBBLER	335	n/a	n/a	0	0.57763671875	0.412841796875	1	lower	zerothre.ttf
3295.124	n/a	WORD	1647562	wordpools/wasnorm_wordpool_less_exclusions.txt	LTP245	ltpFR	6	15	0	PEACH	1031	n/a	n/a	0	0.57763671875	0.412841796875	1	lower	zerothre.ttf
3298.968	n/a	WORD	1649484	wordpools/wasnorm_wordpool_less_exclusions.txt	LTP245	ltpFR	6	15	0	CATHEDRAL	260	n/a	n/a	1	0.57763671875	0.412841796875	1	lower	zerothre.ttf
3302.83	n/a	WORD	1651415	wordpools/wasnorm_wordpool_less_exclusions.txt	LTP245	ltpFR	6	15	0	BARLEY	88	n/a	n/a	0	0.57763671875	0.412841796875	1	lower	zerothre.ttf
3306.94	n/a	WORD	1653470	wordpools/wasnorm_wordpool_less_exclusions.txt	LTP245	ltpFR	6	15	0	DART	440	n/a	n/a	0	0.57763671875	0.412841796875	1	lower	zerothre.ttf
3310.884	n/a	WORD	1655442	wordpools/wasnorm_wordpool_less_exclusions.txt	LTP245	ltpFR	6	15	0	UNDERWEAR	1537	n/a	n/a	0	0.57763671875	0.412841796875	1	lower	zerothre.ttf
3315.062	n/a	WORD	1657531	wordpools/wasnorm_wordpool_less_exclusions.txt	LTP245	ltpFR	6	15	0	SHOE	1288	n/a	n/a	0	0.57763671875	0.412841796875	1	lower	zerothre.ttf
3319.206	n/a	WORD	1659603	wordpools/wasnorm_wordpool_less_exclusions.txt	LTP245	ltpFR	6	15	0	ANKLE	24	n/a	n/a	0	0.57763671875	0.412841796875	1	lower	zerothre.ttf
3323.4	n/a	WORD	1661700	wordpools/wasnorm_wordpool_less_exclusions.txt	LTP245	ltpFR	6	15	0	NICOTINE	951	n/a	n/a	0	0.57763671875	0.412841796875	1	lower	zerothre.ttf
3329.074	n/a	REC_START	1664537	n/a	LTP245	ltpFR	6	15	n/a	n/a	n/a	n/a	n/a	n/a	n/a	n/a	n/a	n/a	n/a
3331.394	n/a	REC_WORD	1665697	wordpools/wasnorm_wordpool_less_exclusions.txt	LTP245	ltpFR	6	15	0	NICOTINE	951	n/a	n/a	0	n/a	n/a	n/a	n/a	n/a
3340.136	n/a	REC_WORD	1670068	wordpools/wasnorm_wordpool_less_exclusions.txt	LTP245	ltpFR	6	15	0	SHOE	1288	n/a	n/a	0	n/a	n/a	n/a	n/a	n/a
3346.432	n/a	REC_WORD	1673216	wordpools/wasnorm_wordpool_less_exclusions.txt	LTP245	ltpFR	6	15	0	FIELD	562	n/a	n/a	1	n/a	n/a	n/a	n/a	n/a
3354.334	n/a	REC_WORD	1677167	wordpools/wasnorm_wordpool_less_exclusions.txt	LTP245	ltpFR	6	15	0	CATHEDRAL	260	n/a	n/a	1	n/a	n/a	n/a	n/a	n/a
3358.328	n/a	REC_WORD	1679164	wordpools/wasnorm_wordpool_less_exclusions.txt	LTP245	ltpFR	6	15	0	QUILL	1150	n/a	n/a	0	n/a	n/a	n/a	n/a	n/a
3729.682	n/a	WORD	1864841	wordpools/wasnorm_wordpool_less_exclusions.txt	LTP245	ltpFR	6	16	1	RADIO	1157	n/a	n/a	0	0.422607421875	0.5869140625	0	upper	amplitud.ttf
3733.528	n/a	WORD	1866764	wordpools/wasnorm_wordpool_less_exclusions.txt	LTP245	ltpFR	6	16	1	SACK	1220	n/a	n/a	0	0.422607421875	0.5869140625	0	upper	amplitud.ttf
3737.454	n/a	WORD	1868727	wordpools/wasnorm_wordpool_less_exclusions.txt	LTP245	ltpFR	6	16	0	BRIEFCASE	175	n/a	n/a	1	0.57763671875	0.412841796875	1	lower	zerothre.ttf
3741.532	n/a	WORD	1870766	wordpools/wasnorm_wordpool_less_exclusions.txt	LTP245	ltpFR	6	16	0	CREVICE	405	n/a	n/a	0	0.57763671875	0.412841796875	1	lower	zerothre.ttf
3745.692	n/a	WORD	1872846	wordpools/wasnorm_wordpool_less_exclusions.txt	LTP245	ltpFR	6	16	0	GUARD	667	n/a	n/a	1	0.57763671875	0.412841796875	1	lower	zerothre.ttf
3749.884	n/a	WORD	1874942	wordpools/wasnorm_wordpool_less_exclusions.txt	LTP245	ltpFR	6	16	0	CLARINET	317	n/a	n/a	0	0.57763671875	0.412841796875	1	lower	zerothre.ttf
3753.812	n/a	WORD	1876906	wordpools/wasnorm_wordpool_less_exclusions.txt	LTP245	ltpFR	6	16	1	COUGAR	387	n/a	n/a	1	0.422607421875	0.5869140625	0	upper	amplitud.ttf
3757.924	n/a	WORD	1878962	wordpools/wasnorm_wordpool_less_exclusions.txt	LTP245	ltpFR	6	16	1	KNIGHT	786	n/a	n/a	1	0.422607421875	0.5869140625	0	upper	amplitud.ttf
3761.752	n/a	WORD	1880876	wordpools/wasnorm_wordpool_less_exclusions.txt	LTP245	ltpFR	6	16	1	ROSE	1212	n/a	n/a	0	0.422607421875	0.5869140625	0	upper	amplitud.ttf
3765.68	n/a	WORD	1882840	wordpools/wasnorm_wordpool_less_exclusions.txt	LTP245	ltpFR	6	16	1	STEM	1376	n/a	n/a	0	0.422607421875	0.5869140625	0	upper	amplitud.ttf
3769.574	n/a	WORD	1884787	wordpools/wasnorm_wordpool_less_exclusions.txt	LTP245	ltpFR	6	16	1	CONTINENT	367	n/a	n/a	0	0.422607421875	0.5869140625	0	upper	amplitud.ttf
3773.468	n/a	WORD	1886734	wordpools/wasnorm_wordpool_less_exclusions.txt	LTP245	ltpFR	6	16	1	LANDSCAPE	799	n/a	n/a	0	0.422607421875	0.5869140625	0	upper	amplitud.ttf
3777.578	n/a	WORD	1888789	wordpools/wasnorm_wordpool_less_exclusions.txt	LTP245	ltpFR	6	16	0	LEOPARD	812	n/a	n/a	1	0.57763671875	0.412841796875	1	lower	zerothre.ttf
3781.672	n/a	WORD	1890836	wordpools/wasnorm_wordpool_less_exclusions.txt	LTP245	ltpFR	6	16	0	REGISTER	1180	n/a	n/a	0	0.57763671875	0.412841796875	1	lower	zerothre.ttf
3785.8	n/a	WORD	1892900	wordpools/wasnorm_wordpool_less_exclusions.txt	LTP245	ltpFR	6	16	0	POLITICIAN	1099	n/a	n/a	1	0.57763671875	0.412841796875	1	lower	zerothre.ttf
3789.678	n/a	WORD	1894839	wordpools/wasnorm_wordpool_less_exclusions.txt	LTP245	ltpFR	6	16	0	PASTA	1021	n/a	n/a	0	0.57763671875	0.412841796875	1	lower	zerothre.ttf
3795.636	n/a	REC_START	1897818	n/a	LTP245	ltpFR	6	16	n/a	n/a	n/a	n/a	n/a	n/a	n/a	n/a	n/a	n/a	n/a
3796.294	n/a	REC_WORD	1898147	wordpools/wasnorm_wordpool_less_exclusions.txt	LTP245	ltpFR	6	16	0	PASTA	1021	n/a	n/a	0	n/a	n/a	n/a	n/a	n/a
3797.782	n/a	REC_WORD	1898891	wordpools/wasnorm_wordpool_less_exclusions.txt	LTP245	ltpFR	6	16	0	POLITICIAN	1099	n/a	n/a	1	n/a	n/a	n/a	n/a	n/a
3898.418	n/a	REC_START	1949209	n/a	LTP245	ltpFR	6	1	n/a	n/a	n/a	n/a	n/a	n/a	n/a	n/a	n/a	n/a	n/a
3898.45	n/a	RECOG_TARGET	1949225	n/a	LTP245	ltpFR	6	1	-1	RAILROAD	1162	1	4	-1	n/a	n/a	n/a	n/a	n/a
3900.214	n/a	RECOG_RESP	1950107	n/a	LTP245	ltpFR	6	1	-1	RAILROAD	1162	1	n/a	-1	n/a	n/a	n/a	n/a	n/a
3901.666	n/a	RECOG_CONF	1950833	n/a	LTP245	ltpFR	6	1	-1	RAILROAD	1162	n/a	4	-1	n/a	n/a	n/a	n/a	n/a
3903.526	n/a	RECOG_TARGET	1951763	n/a	LTP245	ltpFR	6	1	-1	MONSTER	912	1	5	-1	n/a	n/a	n/a	n/a	n/a
3904.116	n/a	RECOG_RESP	1952058	n/a	LTP245	ltpFR	6	1	-1	MONSTER	912	1	n/a	-1	n/a	n/a	n/a	n/a	n/a
3904.928	n/a	RECOG_CONF	1952464	n/a	LTP245	ltpFR	6	1	-1	MONSTER	912	n/a	5	-1	n/a	n/a	n/a	n/a	n/a
3906.57	n/a	RECOG_TARGET	1953285	n/a	LTP245	ltpFR	6	1	0	GUARD	667	1	3	1	n/a	n/a	n/a	n/a	n/a
3907.05	n/a	RECOG_RESP	1953525	n/a	LTP245	ltpFR	6	1	0	GUARD	667	1	n/a	1	n/a	n/a	n/a	n/a	n/a
3907.7	n/a	RECOG_CONF	1953850	n/a	LTP245	ltpFR	6	1	0	GUARD	667	n/a	3	1	n/a	n/a	n/a	n/a	n/a
3909.3	n/a	RECOG_TARGET	1954650	n/a	LTP245	ltpFR	6	1	1	CONTINENT	367	1	4	0	n/a	n/a	n/a	n/a	n/a
3909.846	n/a	RECOG_RESP	1954923	n/a	LTP245	ltpFR	6	1	1	CONTINENT	367	1	n/a	0	n/a	n/a	n/a	n/a	n/a
3910.444	n/a	RECOG_CONF	1955222	n/a	LTP245	ltpFR	6	1	1	CONTINENT	367	n/a	4	0	n/a	n/a	n/a	n/a	n/a
3912.178	n/a	RECOG_TARGET	1956089	n/a	LTP245	ltpFR	6	1	1	CHEF	290	1	5	1	n/a	n/a	n/a	n/a	n/a
3912.74	n/a	RECOG_RESP	1956370	n/a	LTP245	ltpFR	6	1	1	CHEF	290	1	n/a	1	n/a	n/a	n/a	n/a	n/a
3913.338	n/a	RECOG_CONF	1956669	n/a	LTP245	ltpFR	6	1	1	CHEF	290	n/a	5	1	n/a	n/a	n/a	n/a	n/a
3914.974	n/a	RECOG_TARGET	1957487	n/a	LTP245	ltpFR	6	1	0	DINNER	468	0	1	0	n/a	n/a	n/a	n/a	n/a
3917.39	n/a	RECOG_RESP	1958695	n/a	LTP245	ltpFR	6	1	0	DINNER	468	0	n/a	0	n/a	n/a	n/a	n/a	n/a
3918.15	n/a	RECOG_CONF	1959075	n/a	LTP245	ltpFR	6	1	0	DINNER	468	n/a	1	0	n/a	n/a	n/a	n/a	n/a
3919.85	n/a	RECOG_LURE	1959925	n/a	LTP245	ltpFR	6	1	n/a	MOP	916	1	3	n/a	n/a	n/a	n/a	n/a	n/a
3920.88	n/a	RECOG_RESP	1960440	n/a	LTP245	ltpFR	6	1	n/a	MOP	916	1	n/a	n/a	n/a	n/a	n/a	n/a	n/a
3921.5	n/a	RECOG_CONF	1960750	n/a	LTP245	ltpFR	6	1	n/a	MOP	916	n/a	3	n/a	n/a	n/a	n/a	n/a	n/a
3923.046	n/a	RECOG_TARGET	1961523	n/a	LTP245	ltpFR	6	1	0	OATMEAL	967	1	4	0	n/a	n/a	n/a	n/a	n/a
3923.776	n/a	RECOG_RESP	1961888	n/a	LTP245	ltpFR	6	1	0	OATMEAL	967	1	n/a	0	n/a	n/a	n/a	n/a	n/a
3924.364	n/a	RECOG_CONF	1962182	n/a	LTP245	ltpFR	6	1	0	OATMEAL	967	n/a	4	0	n/a	n/a	n/a	n/a	n/a
3925.958	n/a	RECOG_TARGET	1962979	n/a	LTP245	ltpFR	6	1	1	DIPLOMA	470	1	5	0	n/a	n/a	n/a	n/a	n/a
3926.62	n/a	RECOG_RESP	1963310	n/a	LTP245	ltpFR	6	1	1	DIPLOMA	470	1	n/a	0	n/a	n/a	n/a	n/a	n/a
3927.198	n/a	RECOG_CONF	1963599	n/a	LTP245	ltpFR	6	1	1	DIPLOMA	470	n/a	5	0	n/a	n/a	n/a	n/a	n/a
3928.904	n/a	RECOG_LURE	1964452	n/a	LTP245	ltpFR	6	1	n/a	WICK	1607	0	2	n/a	n/a	n/a	n/a	n/a	n/a
3931.438	n/a	RECOG_RESP	1965719	n/a	LTP245	ltpFR	6	1	n/a	WICK	1607	0	n/a	n/a	n/a	n/a	n/a	n/a	n/a
3932.04	n/a	RECOG_CONF	1966020	n/a	LTP245	ltpFR	6	1	n/a	WICK	1607	n/a	2	n/a	n/a	n/a	n/a	n/a	n/a
3933.648	n/a	RECOG_TARGET	1966824	n/a	LTP245	ltpFR	6	1	0	VACUUM	1543	1	3	0	n/a	n/a	n/a	n/a	n/a
3934.406	n/a	RECOG_RESP	1967203	n/a	LTP245	ltpFR	6	1	0	VACUUM	1543	1	n/a	0	n/a	n/a	n/a	n/a	n/a
3935.044	n/a	RECOG_CONF	1967522	n/a	LTP245	ltpFR	6	1	0	VACUUM	1543	n/a	3	0	n/a	n/a	n/a	n/a	n/a
3936.594	n/a	RECOG_TARGET	1968297	n/a	LTP245	ltpFR	6	1	-1	CHERRY	293	1	5	-1	n/a	n/a	n/a	n/a	n/a
3937.864	n/a	RECOG_RESP	1968932	n/a	LTP245	ltpFR	6	1	-1	CHERRY	293	1	n/a	-1	n/a	n/a	n/a	n/a	n/a
3938.462	n/a	RECOG_CONF	1969231	n/a	LTP245	ltpFR	6	1	-1	CHERRY	293	n/a	5	-1	n/a	n/a	n/a	n/a	n/a
3940.138	n/a	RECOG_LURE	1970069	n/a	LTP245	ltpFR	6	1	n/a	PRINTER	1126	0	3	n/a	n/a	n/a	n/a	n/a	n/a
3943.432	n/a	RECOG_RESP	1971716	n/a	LTP245	ltpFR	6	1	n/a	PRINTER	1126	0	n/a	n/a	n/a	n/a	n/a	n/a	n/a
3944.302	n/a	RECOG_CONF	1972151	n/a	LTP245	ltpFR	6	1	n/a	PRINTER	1126	n/a	3	n/a	n/a	n/a	n/a	n/a	n/a
3945.978	n/a	RECOG_LURE	1972989	n/a	LTP245	ltpFR	6	1	n/a	TOWN	1491	0	1	n/a	n/a	n/a	n/a	n/a	n/a
3946.784	n/a	RECOG_RESP	1973392	n/a	LTP245	ltpFR	6	1	n/a	TOWN	1491	0	n/a	n/a	n/a	n/a	n/a	n/a	n/a
3947.388	n/a	RECOG_CONF	1973694	n/a	LTP245	ltpFR	6	1	n/a	TOWN	1491	n/a	1	n/a	n/a	n/a	n/a	n/a	n/a
3948.874	n/a	RECOG_LURE	1974437	n/a	LTP245	ltpFR	6	1	n/a	TOOL	1480	0	2	n/a	n/a	n/a	n/a	n/a	n/a
3950.632	n/a	RECOG_RESP	1975316	n/a	LTP245	ltpFR	6	1	n/a	TOOL	1480	0	n/a	n/a	n/a	n/a	n/a	n/a	n/a
3951.376	n/a	RECOG_CONF	1975688	n/a	LTP245	ltpFR	6	1	n/a	TOOL	1480	n/a	2	n/a	n/a	n/a	n/a	n/a	n/a
3953.002	n/a	RECOG_TARGET	1976501	n/a	LTP245	ltpFR	6	1	0	COBBLER	335	1	2	0	n/a	n/a	n/a	n/a	n/a
3954.748	n/a	RECOG_RESP	1977374	n/a	LTP245	ltpFR	6	1	0	COBBLER	335	1	n/a	0	n/a	n/a	n/a	n/a	n/a
3955.43	n/a	RECOG_CONF	1977715	n/a	LTP245	ltpFR	6	1	0	COBBLER	335	n/a	2	0	n/a	n/a	n/a	n/a	n/a
3957.078	n/a	RECOG_LURE	1978539	n/a	LTP245	ltpFR	6	1	n/a	CHARCOAL	281	0	1	n/a	n/a	n/a	n/a	n/a	n/a
3958.602	n/a	RECOG_RESP	1979301	n/a	LTP245	ltpFR	6	1	n/a	CHARCOAL	281	0	n/a	n/a	n/a	n/a	n/a	n/a	n/a
3959.276	n/a	RECOG_CONF	1979638	n/a	LTP245	ltpFR	6	1	n/a	CHARCOAL	281	n/a	1	n/a	n/a	n/a	n/a	n/a	n/a
3960.99	n/a	RECOG_LURE	1980495	n/a	LTP245	ltpFR	6	1	n/a	DIGGER	464	0	4	n/a	n/a	n/a	n/a	n/a	n/a
3962.492	n/a	RECOG_RESP	1981246	n/a	LTP245	ltpFR	6	1	n/a	DIGGER	464	0	n/a	n/a	n/a	n/a	n/a	n/a	n/a
3963.286	n/a	RECOG_CONF	1981643	n/a	LTP245	ltpFR	6	1	n/a	DIGGER	464	n/a	4	n/a	n/a	n/a	n/a	n/a	n/a
3964.966	n/a	RECOG_TARGET	1982483	n/a	LTP245	ltpFR	6	1	0	HANGER	687	1	5	0	n/a	n/a	n/a	n/a	n/a
3966.814	n/a	RECOG_RESP	1983407	n/a	LTP245	ltpFR	6	1	0	HANGER	687	1	n/a	0	n/a	n/a	n/a	n/a	n/a
3967.546	n/a	RECOG_CONF	1983773	n/a	LTP245	ltpFR	6	1	0	HANGER	687	n/a	5	0	n/a	n/a	n/a	n/a	n/a
3969.26	n/a	RECOG_TARGET	1984630	n/a	LTP245	ltpFR	6	1	1	HAYSTACK	694	1	4	0	n/a	n/a	n/a	n/a	n/a
3970.41	n/a	RECOG_RESP	1985205	n/a	LTP245	ltpFR	6	1	1	HAYSTACK	694	1	n/a	0	n/a	n/a	n/a	n/a	n/a
3971.108	n/a	RECOG_CONF	1985554	n/a	LTP245	ltpFR	6	1	1	HAYSTACK	694	n/a	4	0	n/a	n/a	n/a	n/a	n/a
4051.29	n/a	REC_START	2025645	n/a	LTP245	ltpFR	6	2	n/a	n/a	n/a	n/a	n/a	n/a	n/a	n/a	n/a	n/a	n/a
4051.322	n/a	RECOG_TARGET	2025661	n/a	LTP245	ltpFR	6	2	0	KNEE	784	1	4	0	n/a	n/a	n/a	n/a	n/a
4052.236	n/a	RECOG_RESP	2026118	n/a	LTP245	ltpFR	6	2	0	KNEE	784	1	n/a	0	n/a	n/a	n/a	n/a	n/a
4053.05	n/a	RECOG_CONF	2026525	n/a	LTP245	ltpFR	6	2	0	KNEE	784	n/a	4	0	n/a	n/a	n/a	n/a	n/a
4054.866	n/a	RECOG_LURE	2027433	n/a	LTP245	ltpFR	6	2	n/a	AWARD	63	0	2	n/a	n/a	n/a	n/a	n/a	n/a
4055.584	n/a	RECOG_RESP	2027792	n/a	LTP245	ltpFR	6	2	n/a	AWARD	63	0	n/a	n/a	n/a	n/a	n/a	n/a	n/a
4056.174	n/a	RECOG_CONF	2028087	n/a	LTP245	ltpFR	6	2	n/a	AWARD	63	n/a	2	n/a	n/a	n/a	n/a	n/a	n/a
4057.88	n/a	RECOG_TARGET	2028940	n/a	LTP245	ltpFR	6	2	-1	TORCH	1484	1	5	-1	n/a	n/a	n/a	n/a	n/a
4058.488	n/a	RECOG_RESP	2029244	n/a	LTP245	ltpFR	6	2	-1	TORCH	1484	1	n/a	-1	n/a	n/a	n/a	n/a	n/a
4059.086	n/a	RECOG_CONF	2029543	n/a	LTP245	ltpFR	6	2	-1	TORCH	1484	n/a	5	-1	n/a	n/a	n/a	n/a	n/a
4060.776	n/a	RECOG_TARGET	2030388	n/a	LTP245	ltpFR	6	2	1	SACK	1220	1	4	0	n/a	n/a	n/a	n/a	n/a
4061.396	n/a	RECOG_RESP	2030698	n/a	LTP245	ltpFR	6	2	1	SACK	1220	1	n/a	0	n/a	n/a	n/a	n/a	n/a
4062.04	n/a	RECOG_CONF	2031020	n/a	LTP245	ltpFR	6	2	1	SACK	1220	n/a	4	0	n/a	n/a	n/a	n/a	n/a
4063.672	n/a	RECOG_LURE	2031836	n/a	LTP245	ltpFR	6	2	n/a	THRONE	1461	0	2	n/a	n/a	n/a	n/a	n/a	n/a
4064.554	n/a	RECOG_RESP	2032277	n/a	LTP245	ltpFR	6	2	n/a	THRONE	1461	0	n/a	n/a	n/a	n/a	n/a	n/a	n/a
4065.202	n/a	RECOG_CONF	2032601	n/a	LTP245	ltpFR	6	2	n/a	THRONE	1461	n/a	2	n/a	n/a	n/a	n/a	n/a	n/a
4066.948	n/a	RECOG_LURE	2033474	n/a	LTP245	ltpFR	6	2	n/a	POTTERY	1116	0	1	n/a	n/a	n/a	n/a	n/a	n/a
4067.794	n/a	RECOG_RESP	2033897	n/a	LTP245	ltpFR	6	2	n/a	POTTERY	1116	0	n/a	n/a	n/a	n/a	n/a	n/a	n/a
4068.508	n/a	RECOG_CONF	2034254	n/a	LTP245	ltpFR	6	2	n/a	POTTERY	1116	n/a	1	n/a	n/a	n/a	n/a	n/a	n/a
4070.212	n/a	RECOG_TARGET	2035106	n/a	LTP245	ltpFR	6	2	-1	VEGETABLE	1552	1	4	-1	n/a	n/a	n/a	n/a	n/a
4070.83	n/a	RECOG_RESP	2035415	n/a	LTP245	ltpFR	6	2	-1	VEGETABLE	1552	1	n/a	-1	n/a	n/a	n/a	n/a	n/a
4071.55	n/a	RECOG_CONF	2035775	n/a	LTP245	ltpFR	6	2	-1	VEGETABLE	1552	n/a	4	-1	n/a	n/a	n/a	n/a	n/a
4073.24	n/a	RECOG_TARGET	2036620	n/a	LTP245	ltpFR	6	2	-1	BEET	115	1	5	-1	n/a	n/a	n/a	n/a	n/a
4074.05	n/a	RECOG_RESP	2037025	n/a	LTP245	ltpFR	6	2	-1	BEET	115	1	n/a	-1	n/a	n/a	n/a	n/a	n/a
4074.742	n/a	RECOG_CONF	2037371	n/a	LTP245	ltpFR	6	2	-1	BEET	115	n/a	5	-1	n/a	n/a	n/a	n/a	n/a
4076.404	n/a	RECOG_TARGET	2038202	n/a	LTP245	ltpFR	6	2	-1	ATLAS	53	1	2	-1	n/a	n/a	n/a	n/a	n/a
4077.358	n/a	RECOG_RESP	2038679	n/a	LTP245	ltpFR	6	2	-1	ATLAS	53	1	n/a	-1	n/a	n/a	n/a	n/a	n/a
4078.04	n/a	RECOG_CONF	2039020	n/a	LTP245	ltpFR	6	2	-1	ATLAS	53	n/a	2	-1	n/a	n/a	n/a	n/a	n/a
4079.814	n/a	RECOG_LURE	2039907	n/a	LTP245	ltpFR	6	2	n/a	TROUSERS	1510	0	2	n/a	n/a	n/a	n/a	n/a	n/a
4080.794	n/a	RECOG_RESP	2040397	n/a	LTP245	ltpFR	6	2	n/a	TROUSERS	1510	0	n/a	n/a	n/a	n/a	n/a	n/a	n/a
4081.566	n/a	RECOG_CONF	2040783	n/a	LTP245	ltpFR	6	2	n/a	TROUSERS	1510	n/a	2	n/a	n/a	n/a	n/a	n/a	n/a
4083.258	n/a	RECOG_TARGET	2041629	n/a	LTP245	ltpFR	6	2	1	CARD	243	1	3	0	n/a	n/a	n/a	n/a	n/a
4084.62	n/a	RECOG_RESP	2042310	n/a	LTP245	ltpFR	6	2	1	CARD	243	1	n/a	0	n/a	n/a	n/a	n/a	n/a
4085.57	n/a	RECOG_CONF	2042785	n/a	LTP245	ltpFR	6	2	1	CARD	243	n/a	3	0	n/a	n/a	n/a	n/a	n/a
4087.504	n/a	RECOG_TARGET	2043752	n/a	LTP245	ltpFR	6	2	0	LAWN	805	1	4	1	n/a	n/a	n/a	n/a	n/a
4088.196	n/a	RECOG_RESP	2044098	n/a	LTP245	ltpFR	6	2	0	LAWN	805	1	n/a	1	n/a	n/a	n/a	n/a	n/a
4089.01	n/a	RECOG_CONF	2044505	n/a	LTP245	ltpFR	6	2	0	LAWN	805	n/a	4	1	n/a	n/a	n/a	n/a	n/a
4090.798	n/a	RECOG_LURE	2045399	n/a	LTP245	ltpFR	6	2	n/a	PUPIL	1143	0	3	n/a	n/a	n/a	n/a	n/a	n/a
4091.708	n/a	RECOG_RESP	2045854	n/a	LTP245	ltpFR	6	2	n/a	PUPIL	1143	0	n/a	n/a	n/a	n/a	n/a	n/a	n/a
4092.436	n/a	RECOG_CONF	2046218	n/a	LTP245	ltpFR	6	2	n/a	PUPIL	1143	n/a	3	n/a	n/a	n/a	n/a	n/a	n/a
4094.126	n/a	RECOG_TARGET	2047063	n/a	LTP245	ltpFR	6	2	1	SAPPHIRE	1234	1	4	0	n/a	n/a	n/a	n/a	n/a
4094.994	n/a	RECOG_RESP	2047497	n/a	LTP245	ltpFR	6	2	1	SAPPHIRE	1234	1	n/a	0	n/a	n/a	n/a	n/a	n/a
4095.814	n/a	RECOG_CONF	2047907	n/a	LTP245	ltpFR	6	2	1	SAPPHIRE	1234	n/a	4	0	n/a	n/a	n/a	n/a	n/a
4097.556	n/a	RECOG_TARGET	2048778	n/a	LTP245	ltpFR	6	2	1	NAIL	936	1	3	0	n/a	n/a	n/a	n/a	n/a
4098.15	n/a	RECOG_RESP	2049075	n/a	LTP245	ltpFR	6	2	1	NAIL	936	1	n/a	0	n/a	n/a	n/a	n/a	n/a
4098.834	n/a	RECOG_CONF	2049417	n/a	LTP245	ltpFR	6	2	1	NAIL	936	n/a	3	0	n/a	n/a	n/a	n/a	n/a
4100.45	n/a	RECOG_TARGET	2050225	n/a	LTP245	ltpFR	6	2	1	FENCE	560	1	2	0	n/a	n/a	n/a	n/a	n/a
4101.188	n/a	RECOG_RESP	2050594	n/a	LTP245	ltpFR	6	2	1	FENCE	560	1	n/a	0	n/a	n/a	n/a	n/a	n/a
4101.894	n/a	RECOG_CONF	2050947	n/a	LTP245	ltpFR	6	2	1	FENCE	560	n/a	2	0	n/a	n/a	n/a	n/a	n/a
4103.662	n/a	RECOG_TARGET	2051831	n/a	LTP245	ltpFR	6	2	0	CONTRACTOR	369	1	4	0	n/a	n/a	n/a	n/a	n/a
4104.226	n/a	RECOG_RESP	2052113	n/a	LTP245	ltpFR	6	2	0	CONTRACTOR	369	1	n/a	0	n/a	n/a	n/a	n/a	n/a
4105.004	n/a	RECOG_CONF	2052502	n/a	LTP245	ltpFR	6	2	0	CONTRACTOR	369	n/a	4	0	n/a	n/a	n/a	n/a	n/a
4106.492	n/a	RECOG_TARGET	2053246	n/a	LTP245	ltpFR	6	2	-1	CHOCOLATE	306	1	5	-1	n/a	n/a	n/a	n/a	n/a
4107.164	n/a	RECOG_RESP	2053582	n/a	LTP245	ltpFR	6	2	-1	CHOCOLATE	306	1	n/a	-1	n/a	n/a	n/a	n/a	n/a
4107.856	n/a	RECOG_CONF	2053928	n/a	LTP245	ltpFR	6	2	-1	CHOCOLATE	306	n/a	5	-1	n/a	n/a	n/a	n/a	n/a
4109.37	n/a	RECOG_LURE	2054685	n/a	LTP245	ltpFR	6	2	n/a	SALMON	1227	0	2	n/a	n/a	n/a	n/a	n/a	n/a
4110.184	n/a	RECOG_RESP	2055092	n/a	LTP245	ltpFR	6	2	n/a	SALMON	1227	0	n/a	n/a	n/a	n/a	n/a	n/a	n/a
4110.876	n/a	RECOG_CONF	2055438	n/a	LTP245	ltpFR	6	2	n/a	SALMON	1227	n/a	2	n/a	n/a	n/a	n/a	n/a	n/a
4112.6	n/a	RECOG_LURE	2056300	n/a	LTP245	ltpFR	6	2	n/a	MAILBOX	857	0	4	n/a	n/a	n/a	n/a	n/a	n/a
4113.688	n/a	RECOG_RESP	2056844	n/a	LTP245	ltpFR	6	2	n/a	MAILBOX	857	0	n/a	n/a	n/a	n/a	n/a	n/a	n/a
4114.304	n/a	RECOG_CONF	2057152	n/a	LTP245	ltpFR	6	2	n/a	MAILBOX	857	n/a	4	n/a	n/a	n/a	n/a	n/a	n/a
4119.34	n/a	REC_START	2059670	n/a	LTP245	ltpFR	6	3	n/a	n/a	n/a	n/a	n/a	n/a	n/a	n/a	n/a	n/a	n/a
4119.372	n/a	RECOG_LURE	2059686	n/a	LTP245	ltpFR	6	3	n/a	CROOK	412	0	1	n/a	n/a	n/a	n/a	n/a	n/a
4122.158	n/a	RECOG_RESP	2061079	n/a	LTP245	ltpFR	6	3	n/a	CROOK	412	0	n/a	n/a	n/a	n/a	n/a	n/a	n/a
4123.07	n/a	RECOG_CONF	2061535	n/a	LTP245	ltpFR	6	3	n/a	CROOK	412	n/a	1	n/a	n/a	n/a	n/a	n/a	n/a
4125.096	n/a	RECOG_LURE	2062548	n/a	LTP245	ltpFR	6	3	n/a	CONVICT	371	0	2	n/a	n/a	n/a	n/a	n/a	n/a
4125.936	n/a	RECOG_RESP	2062968	n/a	LTP245	ltpFR	6	3	n/a	CONVICT	371	0	n/a	n/a	n/a	n/a	n/a	n/a	n/a
4127.632	n/a	RECOG_CONF	2063816	n/a	LTP245	ltpFR	6	3	n/a	CONVICT	371	n/a	2	n/a	n/a	n/a	n/a	n/a	n/a
4129.34	n/a	RECOG_LURE	2064670	n/a	LTP245	ltpFR	6	3	n/a	DINOSAUR	469	1	1	n/a	n/a	n/a	n/a	n/a	n/a
4130.804	n/a	RECOG_RESP	2065402	n/a	LTP245	ltpFR	6	3	n/a	DINOSAUR	469	1	n/a	n/a	n/a	n/a	n/a	n/a	n/a
4132.734	n/a	RECOG_CONF	2066367	n/a	LTP245	ltpFR	6	3	n/a	DINOSAUR	469	n/a	1	n/a	n/a	n/a	n/a	n/a	n/a
4134.716	n/a	RECOG_TARGET	2067358	n/a	LTP245	ltpFR	6	3	1	CHILD	299	1	3	1	n/a	n/a	n/a	n/a	n/a
4141.106	n/a	RECOG_RESP	2070553	n/a	LTP245	ltpFR	6	3	1	CHILD	299	1	n/a	1	n/a	n/a	n/a	n/a	n/a
4142.952	n/a	RECOG_CONF	2071476	n/a	LTP245	ltpFR	6	3	1	CHILD	299	n/a	3	1	n/a	n/a	n/a	n/a	n/a
4144.868	n/a	RECOG_TARGET	2072434	n/a	LTP245	ltpFR	6	3	0	BEVERAGE	123	1	4	1	n/a	n/a	n/a	n/a	n/a
4145.7	n/a	RECOG_RESP	2072850	n/a	LTP245	ltpFR	6	3	0	BEVERAGE	123	1	n/a	1	n/a	n/a	n/a	n/a	n/a
4146.57	n/a	RECOG_CONF	2073285	n/a	LTP245	ltpFR	6	3	0	BEVERAGE	123	n/a	4	1	n/a	n/a	n/a	n/a	n/a
4148.296	n/a	RECOG_LURE	2074148	n/a	LTP245	ltpFR	6	3	n/a	WALRUS	1585	0	2	n/a	n/a	n/a	n/a	n/a	n/a
4149.208	n/a	RECOG_RESP	2074604	n/a	LTP245	ltpFR	6	3	n/a	WALRUS	1585	0	n/a	n/a	n/a	n/a	n/a	n/a	n/a
4150.188	n/a	RECOG_CONF	2075094	n/a	LTP245	ltpFR	6	3	n/a	WALRUS	1585	n/a	2	n/a	n/a	n/a	n/a	n/a	n/a
4151.908	n/a	RECOG_TARGET	2075954	n/a	LTP245	ltpFR	6	3	1	WORM	1623	1	5	1	n/a	n/a	n/a	n/a	n/a
4152.576	n/a	RECOG_RESP	2076288	n/a	LTP245	ltpFR	6	3	1	WORM	1623	1	n/a	1	n/a	n/a	n/a	n/a	n/a
4153.478	n/a	RECOG_CONF	2076739	n/a	LTP245	ltpFR	6	3	1	WORM	1623	n/a	5	1	n/a	n/a	n/a	n/a	n/a
4155.37	n/a	RECOG_TARGET	2077685	n/a	LTP245	ltpFR	6	3	0	SUBWAY	1400	1	4	1	n/a	n/a	n/a	n/a	n/a
4155.926	n/a	RECOG_RESP	2077963	n/a	LTP245	ltpFR	6	3	0	SUBWAY	1400	1	n/a	1	n/a	n/a	n/a	n/a	n/a
4156.89	n/a	RECOG_CONF	2078445	n/a	LTP245	ltpFR	6	3	0	SUBWAY	1400	n/a	4	1	n/a	n/a	n/a	n/a	n/a
4158.698	n/a	RECOG_TARGET	2079349	n/a	LTP245	ltpFR	6	3	1	BEAVER	109	1	4	1	n/a	n/a	n/a	n/a	n/a
4159.3	n/a	RECOG_RESP	2079650	n/a	LTP245	ltpFR	6	3	1	BEAVER	109	1	n/a	1	n/a	n/a	n/a	n/a	n/a
4160.164	n/a	RECOG_CONF	2080082	n/a	LTP245	ltpFR	6	3	1	BEAVER	109	n/a	4	1	n/a	n/a	n/a	n/a	n/a
4161.76	n/a	RECOG_TARGET	2080880	n/a	LTP245	ltpFR	6	3	1	DILL	465	1	5	0	n/a	n/a	n/a	n/a	n/a
4162.392	n/a	RECOG_RESP	2081196	n/a	LTP245	ltpFR	6	3	1	DILL	465	1	n/a	0	n/a	n/a	n/a	n/a	n/a
4163.196	n/a	RECOG_CONF	2081598	n/a	LTP245	ltpFR	6	3	1	DILL	465	n/a	5	0	n/a	n/a	n/a	n/a	n/a
4164.904	n/a	RECOG_TARGET	2082452	n/a	LTP245	ltpFR	6	3	-1	MUFFIN	929	1	5	-1	n/a	n/a	n/a	n/a	n/a
4165.54	n/a	RECOG_RESP	2082770	n/a	LTP245	ltpFR	6	3	-1	MUFFIN	929	1	n/a	-1	n/a	n/a	n/a	n/a	n/a
4166.202	n/a	RECOG_CONF	2083101	n/a	LTP245	ltpFR	6	3	-1	MUFFIN	929	n/a	5	-1	n/a	n/a	n/a	n/a	n/a
4167.916	n/a	RECOG_LURE	2083958	n/a	LTP245	ltpFR	6	3	n/a	GANG	619	0	4	n/a	n/a	n/a	n/a	n/a	n/a
4168.742	n/a	RECOG_RESP	2084371	n/a	LTP245	ltpFR	6	3	n/a	GANG	619	0	n/a	n/a	n/a	n/a	n/a	n/a	n/a
4170.27	n/a	RECOG_CONF	2085135	n/a	LTP245	ltpFR	6	3	n/a	GANG	619	n/a	4	n/a	n/a	n/a	n/a	n/a	n/a
4171.994	n/a	RECOG_TARGET	2085997	n/a	LTP245	ltpFR	6	3	1	NECKLACE	940	1	4	0	n/a	n/a	n/a	n/a	n/a
4172.812	n/a	RECOG_RESP	2086406	n/a	LTP245	ltpFR	6	3	1	NECKLACE	940	1	n/a	0	n/a	n/a	n/a	n/a	n/a
4173.688	n/a	RECOG_CONF	2086844	n/a	LTP245	ltpFR	6	3	1	NECKLACE	940	n/a	4	0	n/a	n/a	n/a	n/a	n/a
4175.156	n/a	RECOG_TARGET	2087578	n/a	LTP245	ltpFR	6	3	0	QUILL	1150	1	3	0	n/a	n/a	n/a	n/a	n/a
4175.784	n/a	RECOG_RESP	2087892	n/a	LTP245	ltpFR	6	3	0	QUILL	1150	1	n/a	0	n/a	n/a	n/a	n/a	n/a
4176.404	n/a	RECOG_CONF	2088202	n/a	LTP245	ltpFR	6	3	0	QUILL	1150	n/a	3	0	n/a	n/a	n/a	n/a	n/a
4178.052	n/a	RECOG_TARGET	2089026	n/a	LTP245	ltpFR	6	3	1	RASH	1167	0	2	0	n/a	n/a	n/a	n/a	n/a
4178.822	n/a	RECOG_RESP	2089411	n/a	LTP245	ltpFR	6	3	1	RASH	1167	0	n/a	0	n/a	n/a	n/a	n/a	n/a
4179.536	n/a	RECOG_CONF	2089768	n/a	LTP245	ltpFR	6	3	1	RASH	1167	n/a	2	0	n/a	n/a	n/a	n/a	n/a
4181.314	n/a	RECOG_LURE	2090657	n/a	LTP245	ltpFR	6	3	n/a	SURGEON	1413	0	1	n/a	n/a	n/a	n/a	n/a	n/a
4182.828	n/a	RECOG_RESP	2091414	n/a	LTP245	ltpFR	6	3	n/a	SURGEON	1413	0	n/a	n/a	n/a	n/a	n/a	n/a	n/a
4183.788	n/a	RECOG_CONF	2091894	n/a	LTP245	ltpFR	6	3	n/a	SURGEON	1413	n/a	1	n/a	n/a	n/a	n/a	n/a	n/a
4185.574	n/a	RECOG_TARGET	2092787	n/a	LTP245	ltpFR	6	3	0	NICOTINE	951	1	4	0	n/a	n/a	n/a	n/a	n/a
4186.414	n/a	RECOG_RESP	2093207	n/a	LTP245	ltpFR	6	3	0	NICOTINE	951	1	n/a	0	n/a	n/a	n/a	n/a	n/a
4187.102	n/a	RECOG_CONF	2093551	n/a	LTP245	ltpFR	6	3	0	NICOTINE	951	n/a	4	0	n/a	n/a	n/a	n/a	n/a
4188.67	n/a	RECOG_LURE	2094335	n/a	LTP245	ltpFR	6	3	n/a	HEADBAND	696	0	3	n/a	n/a	n/a	n/a	n/a	n/a
4189.574	n/a	RECOG_RESP	2094787	n/a	LTP245	ltpFR	6	3	n/a	HEADBAND	696	0	n/a	n/a	n/a	n/a	n/a	n/a	n/a
4190.254	n/a	RECOG_CONF	2095127	n/a	LTP245	ltpFR	6	3	n/a	HEADBAND	696	n/a	3	n/a	n/a	n/a	n/a	n/a	n/a
4191.998	n/a	RECOG_LURE	2095999	n/a	LTP245	ltpFR	6	3	n/a	NEEDLE	941	1	2	n/a	n/a	n/a	n/a	n/a	n/a
4192.898	n/a	RECOG_RESP	2096449	n/a	LTP245	ltpFR	6	3	n/a	NEEDLE	941	1	n/a	n/a	n/a	n/a	n/a	n/a	n/a
4194.168	n/a	RECOG_CONF	2097084	n/a	LTP245	ltpFR	6	3	n/a	NEEDLE	941	n/a	2	n/a	n/a	n/a	n/a	n/a	n/a
4196.124	n/a	RECOG_LURE	2098062	n/a	LTP245	ltpFR	6	3	n/a	CONDUCTOR	362	1	2	n/a	n/a	n/a	n/a	n/a	n/a
4197.028	n/a	RECOG_RESP	2098514	n/a	LTP245	ltpFR	6	3	n/a	CONDUCTOR	362	1	n/a	n/a	n/a	n/a	n/a	n/a	n/a
4203.356	n/a	RECOG_CONF	2101678	n/a	LTP245	ltpFR	6	3	n/a	CONDUCTOR	362	n/a	2	n/a	n/a	n/a	n/a	n/a	n/a
4372.408	n/a	REC_START	2186204	n/a	LTP245	ltpFR	6	4	n/a	n/a	n/a	n/a	n/a	n/a	n/a	n/a	n/a	n/a	n/a
4372.432	n/a	RECOG_LURE	2186216	n/a	LTP245	ltpFR	6	4	n/a	DIRT	472	0	2	n/a	n/a	n/a	n/a	n/a	n/a
4373.42	n/a	RECOG_RESP	2186710	n/a	LTP245	ltpFR	6	4	n/a	DIRT	472	0	n/a	n/a	n/a	n/a	n/a	n/a	n/a
4374.124	n/a	RECOG_CONF	2187062	n/a	LTP245	ltpFR	6	4	n/a	DIRT	472	n/a	2	n/a	n/a	n/a	n/a	n/a	n/a
4375.694	n/a	RECOG_TARGET	2187847	n/a	LTP245	ltpFR	6	4	1	WHEEL	1603	1	3	0	n/a	n/a	n/a	n/a	n/a
4376.452	n/a	RECOG_RESP	2188226	n/a	LTP245	ltpFR	6	4	1	WHEEL	1603	1	n/a	0	n/a	n/a	n/a	n/a	n/a
4377.062	n/a	RECOG_CONF	2188531	n/a	LTP245	ltpFR	6	4	1	WHEEL	1603	n/a	3	0	n/a	n/a	n/a	n/a	n/a
4378.556	n/a	RECOG_LURE	2189278	n/a	LTP245	ltpFR	6	4	n/a	CORPORATION	382	0	3	n/a	n/a	n/a	n/a	n/a	n/a
4379.514	n/a	RECOG_RESP	2189757	n/a	LTP245	ltpFR	6	4	n/a	CORPORATION	382	0	n/a	n/a	n/a	n/a	n/a	n/a	n/a
4380.098	n/a	RECOG_CONF	2190049	n/a	LTP245	ltpFR	6	4	n/a	CORPORATION	382	n/a	3	n/a	n/a	n/a	n/a	n/a	n/a
4381.684	n/a	RECOG_TARGET	2190842	n/a	LTP245	ltpFR	6	4	1	CUCUMBER	421	1	4	1	n/a	n/a	n/a	n/a	n/a
4382.25	n/a	RECOG_RESP	2191125	n/a	LTP245	ltpFR	6	4	1	CUCUMBER	421	1	n/a	1	n/a	n/a	n/a	n/a	n/a
4382.87	n/a	RECOG_CONF	2191435	n/a	LTP245	ltpFR	6	4	1	CUCUMBER	421	n/a	4	1	n/a	n/a	n/a	n/a	n/a
4384.564	n/a	RECOG_TARGET	2192282	n/a	LTP245	ltpFR	6	4	1	DRIVER	499	0	2	1	n/a	n/a	n/a	n/a	n/a
4385.442	n/a	RECOG_RESP	2192721	n/a	LTP245	ltpFR	6	4	1	DRIVER	499	0	n/a	1	n/a	n/a	n/a	n/a	n/a
4386.05	n/a	RECOG_CONF	2193025	n/a	LTP245	ltpFR	6	4	1	DRIVER	499	n/a	2	1	n/a	n/a	n/a	n/a	n/a
4387.626	n/a	RECOG_TARGET	2193813	n/a	LTP245	ltpFR	6	4	1	WEED	1599	1	5	1	n/a	n/a	n/a	n/a	n/a
4388.124	n/a	RECOG_RESP	2194062	n/a	LTP245	ltpFR	6	4	1	WEED	1599	1	n/a	1	n/a	n/a	n/a	n/a	n/a
4388.684	n/a	RECOG_CONF	2194342	n/a	LTP245	ltpFR	6	4	1	WEED	1599	n/a	5	1	n/a	n/a	n/a	n/a	n/a
4390.372	n/a	RECOG_TARGET	2195186	n/a	LTP245	ltpFR	6	4	0	CARDINAL	244	1	1	0	n/a	n/a	n/a	n/a	n/a
4390.838	n/a	RECOG_RESP	2195419	n/a	LTP245	ltpFR	6	4	0	CARDINAL	244	1	n/a	0	n/a	n/a	n/a	n/a	n/a
4391.44	n/a	RECOG_CONF	2195720	n/a	LTP245	ltpFR	6	4	0	CARDINAL	244	n/a	1	0	n/a	n/a	n/a	n/a	n/a
4393.018	n/a	RECOG_LURE	2196509	n/a	LTP245	ltpFR	6	4	n/a	ANIMAL	23	1	1	n/a	n/a	n/a	n/a	n/a	n/a
4393.518	n/a	RECOG_RESP	2196759	n/a	LTP245	ltpFR	6	4	n/a	ANIMAL	23	1	n/a	n/a	n/a	n/a	n/a	n/a	n/a
4394.372	n/a	RECOG_CONF	2197186	n/a	LTP245	ltpFR	6	4	n/a	ANIMAL	23	n/a	1	n/a	n/a	n/a	n/a	n/a	n/a
4395.912	n/a	RECOG_TARGET	2197956	n/a	LTP245	ltpFR	6	4	0	CHESS	294	1	4	0	n/a	n/a	n/a	n/a	n/a
4396.62	n/a	RECOG_RESP	2198310	n/a	LTP245	ltpFR	6	4	0	CHESS	294	1	n/a	0	n/a	n/a	n/a	n/a	n/a
4397.226	n/a	RECOG_CONF	2198613	n/a	LTP245	ltpFR	6	4	0	CHESS	294	n/a	4	0	n/a	n/a	n/a	n/a	n/a
4398.974	n/a	RECOG_TARGET	2199487	n/a	LTP245	ltpFR	6	4	0	ALBUM	14	1	4	0	n/a	n/a	n/a	n/a	n/a
4399.648	n/a	RECOG_RESP	2199824	n/a	LTP245	ltpFR	6	4	0	ALBUM	14	1	n/a	0	n/a	n/a	n/a	n/a	n/a
4400.202	n/a	RECOG_CONF	2200101	n/a	LTP245	ltpFR	6	4	0	ALBUM	14	n/a	4	0	n/a	n/a	n/a	n/a	n/a
4401.904	n/a	RECOG_LURE	2200952	n/a	LTP245	ltpFR	6	4	n/a	VISITOR	1573	0	2	n/a	n/a	n/a	n/a	n/a	n/a
4402.73	n/a	RECOG_RESP	2201365	n/a	LTP245	ltpFR	6	4	n/a	VISITOR	1573	0	n/a	n/a	n/a	n/a	n/a	n/a	n/a
4403.322	n/a	RECOG_CONF	2201661	n/a	LTP245	ltpFR	6	4	n/a	VISITOR	1573	n/a	2	n/a	n/a	n/a	n/a	n/a	n/a
4404.932	n/a	RECOG_TARGET	2202466	n/a	LTP245	ltpFR	6	4	-1	LAKE	796	1	5	-1	n/a	n/a	n/a	n/a	n/a
4405.494	n/a	RECOG_RESP	2202747	n/a	LTP245	ltpFR	6	4	-1	LAKE	796	1	n/a	-1	n/a	n/a	n/a	n/a	n/a
4406.062	n/a	RECOG_CONF	2203031	n/a	LTP245	ltpFR	6	4	-1	LAKE	796	n/a	5	-1	n/a	n/a	n/a	n/a	n/a
4407.812	n/a	RECOG_TARGET	2203906	n/a	LTP245	ltpFR	6	4	1	PUDDLE	1140	1	4	0	n/a	n/a	n/a	n/a	n/a
4408.336	n/a	RECOG_RESP	2204168	n/a	LTP245	ltpFR	6	4	1	PUDDLE	1140	1	n/a	0	n/a	n/a	n/a	n/a	n/a
4408.83	n/a	RECOG_CONF	2204415	n/a	LTP245	ltpFR	6	4	1	PUDDLE	1140	n/a	4	0	n/a	n/a	n/a	n/a	n/a
4410.658	n/a	RECOG_LURE	2205329	n/a	LTP245	ltpFR	6	4	n/a	SEAGULL	1261	0	2	n/a	n/a	n/a	n/a	n/a	n/a
4411.19	n/a	RECOG_RESP_VV	2205595	n/a	LTP245	ltpFR	6	4	n/a	SEAGULL	1261	1	n/a	n/a	n/a	n/a	n/a	n/a	n/a
4413.954	n/a	RECOG_RESP	2206977	n/a	LTP245	ltpFR	6	4	n/a	SEAGULL	1261	0	n/a	n/a	n/a	n/a	n/a	n/a	n/a
4414.846	n/a	RECOG_CONF	2207423	n/a	LTP245	ltpFR	6	4	n/a	SEAGULL	1261	n/a	2	n/a	n/a	n/a	n/a	n/a	n/a
4416.516	n/a	RECOG_LURE	2208258	n/a	LTP245	ltpFR	6	4	n/a	MASK	876	0	3	n/a	n/a	n/a	n/a	n/a	n/a
4420.174	n/a	RECOG_RESP	2210087	n/a	LTP245	ltpFR	6	4	n/a	MASK	876	0	n/a	n/a	n/a	n/a	n/a	n/a	n/a
4420.972	n/a	RECOG_CONF	2210486	n/a	LTP245	ltpFR	6	4	n/a	MASK	876	n/a	3	n/a	n/a	n/a	n/a	n/a	n/a
4422.64	n/a	RECOG_TARGET	2211320	n/a	LTP245	ltpFR	6	4	0	TIDE	1465	1	4	1	n/a	n/a	n/a	n/a	n/a
4423.624	n/a	RECOG_RESP	2211812	n/a	LTP245	ltpFR	6	4	0	TIDE	1465	1	n/a	1	n/a	n/a	n/a	n/a	n/a
4424.276	n/a	RECOG_CONF	2212138	n/a	LTP245	ltpFR	6	4	0	TIDE	1465	n/a	4	1	n/a	n/a	n/a	n/a	n/a
4425.802	n/a	RECOG_TARGET	2212901	n/a	LTP245	ltpFR	6	4	0	CONCERT	360	1	3	1	n/a	n/a	n/a	n/a	n/a
4428.572	n/a	RECOG_RESP	2214286	n/a	LTP245	ltpFR	6	4	0	CONCERT	360	1	n/a	1	n/a	n/a	n/a	n/a	n/a
4430.816	n/a	RECOG_CONF	2215408	n/a	LTP245	ltpFR	6	4	0	CONCERT	360	n/a	3	1	n/a	n/a	n/a	n/a	n/a
4432.476	n/a	RECOG_TARGET	2216238	n/a	LTP245	ltpFR	6	4	1	RADIO	1157	0	3	0	n/a	n/a	n/a	n/a	n/a
4434.234	n/a	RECOG_RESP	2217117	n/a	LTP245	ltpFR	6	4	1	RADIO	1157	0	n/a	0	n/a	n/a	n/a	n/a	n/a
4435.016	n/a	RECOG_CONF	2217508	n/a	LTP245	ltpFR	6	4	1	RADIO	1157	n/a	3	0	n/a	n/a	n/a	n/a	n/a
4436.77	n/a	RECOG_TARGET	2218385	n/a	LTP245	ltpFR	6	4	-1	TENT	1449	0	2	-1	n/a	n/a	n/a	n/a	n/a
4442.522	n/a	RECOG_RESP	2221261	n/a	LTP245	ltpFR	6	4	-1	TENT	1449	0	n/a	-1	n/a	n/a	n/a	n/a	n/a
4443.554	n/a	RECOG_CONF	2221777	n/a	LTP245	ltpFR	6	4	-1	TENT	1449	n/a	2	-1	n/a	n/a	n/a	n/a	n/a
4445.424	n/a	RECOG_TARGET	2222712	n/a	LTP245	ltpFR	6	4	0	LILY	821	1	4	0	n/a	n/a	n/a	n/a	n/a
4446.678	n/a	RECOG_RESP	2223339	n/a	LTP245	ltpFR	6	4	0	LILY	821	1	n/a	0	n/a	n/a	n/a	n/a	n/a
4447.476	n/a	RECOG_CONF	2223738	n/a	LTP245	ltpFR	6	4	0	LILY	821	n/a	4	0	n/a	n/a	n/a	n/a	n/a
4736.852	n/a	REC_START	2368426	n/a	LTP245	ltpFR	6	5	n/a	n/a	n/a	n/a	n/a	n/a	n/a	n/a	n/a	n/a	n/a
4736.892	n/a	RECOG_TARGET	2368446	n/a	LTP245	ltpFR	6	5	0	CROW	414	1	4	0	n/a	n/a	n/a	n/a	n/a
4791.948	n/a	RECOG_RESP	2395974	n/a	LTP245	ltpFR	6	5	0	CROW	414	1	n/a	0	n/a	n/a	n/a	n/a	n/a
4794.028	n/a	RECOG_CONF	2397014	n/a	LTP245	ltpFR	6	5	0	CROW	414	n/a	4	0	n/a	n/a	n/a	n/a	n/a
4797.186	n/a	RECOG_TARGET	2398593	n/a	LTP245	ltpFR	6	5	0	TOAD	1470	1	4	1	n/a	n/a	n/a	n/a	n/a
4800.436	n/a	RECOG_RESP	2400218	n/a	LTP245	ltpFR	6	5	0	TOAD	1470	1	n/a	1	n/a	n/a	n/a	n/a	n/a
4801.744	n/a	RECOG_CONF	2400872	n/a	LTP245	ltpFR	6	5	0	TOAD	1470	n/a	4	1	n/a	n/a	n/a	n/a	n/a
4803.526	n/a	RECOG_LURE	2401763	n/a	LTP245	ltpFR	6	5	n/a	BOAT	144	0	3	n/a	n/a	n/a	n/a	n/a	n/a
4805.334	n/a	RECOG_RESP	2402667	n/a	LTP245	ltpFR	6	5	n/a	BOAT	144	0	n/a	n/a	n/a	n/a	n/a	n/a	n/a
4806.022	n/a	RECOG_CONF	2403011	n/a	LTP245	ltpFR	6	5	n/a	BOAT	144	n/a	3	n/a	n/a	n/a	n/a	n/a	n/a
4807.67	n/a	RECOG_LURE	2403835	n/a	LTP245	ltpFR	6	5	n/a	WAVE	1596	0	2	n/a	n/a	n/a	n/a	n/a	n/a
4808.522	n/a	RECOG_RESP	2404261	n/a	LTP245	ltpFR	6	5	n/a	WAVE	1596	0	n/a	n/a	n/a	n/a	n/a	n/a	n/a
4809.112	n/a	RECOG_CONF	2404556	n/a	LTP245	ltpFR	6	5	n/a	WAVE	1596	n/a	2	n/a	n/a	n/a	n/a	n/a	n/a
4810.75	n/a	RECOG_TARGET	2405375	n/a	LTP245	ltpFR	6	5	-1	SIREN	1310	1	4	-1	n/a	n/a	n/a	n/a	n/a
4814.03	n/a	RECOG_RESP	2407015	n/a	LTP245	ltpFR	6	5	-1	SIREN	1310	1	n/a	-1	n/a	n/a	n/a	n/a	n/a
4814.69	n/a	RECOG_CONF	2407345	n/a	LTP245	ltpFR	6	5	-1	SIREN	1310	n/a	4	-1	n/a	n/a	n/a	n/a	n/a
4816.34	n/a	RECOG_LURE	2408170	n/a	LTP245	ltpFR	6	5	n/a	PUMPKIN	1142	0	3	n/a	n/a	n/a	n/a	n/a	n/a
4817.346	n/a	RECOG_RESP	2408673	n/a	LTP245	ltpFR	6	5	n/a	PUMPKIN	1142	0	n/a	n/a	n/a	n/a	n/a	n/a	n/a
4817.91	n/a	RECOG_CONF	2408955	n/a	LTP245	ltpFR	6	5	n/a	PUMPKIN	1142	n/a	3	n/a	n/a	n/a	n/a	n/a	n/a
4819.488	n/a	RECOG_TARGET	2409744	n/a	LTP245	ltpFR	6	5	0	UNDERWEAR	1537	1	5	0	n/a	n/a	n/a	n/a	n/a
4820.29	n/a	RECOG_RESP	2410145	n/a	LTP245	ltpFR	6	5	0	UNDERWEAR	1537	1	n/a	0	n/a	n/a	n/a	n/a	n/a
4820.846	n/a	RECOG_CONF	2410423	n/a	LTP245	ltpFR	6	5	0	UNDERWEAR	1537	n/a	5	0	n/a	n/a	n/a	n/a	n/a
4822.432	n/a	RECOG_LURE	2411216	n/a	LTP245	ltpFR	6	5	n/a	PHYSICIAN	1056	0	4	n/a	n/a	n/a	n/a	n/a	n/a
4823.232	n/a	RECOG_RESP	2411616	n/a	LTP245	ltpFR	6	5	n/a	PHYSICIAN	1056	0	n/a	n/a	n/a	n/a	n/a	n/a	n/a
4823.82	n/a	RECOG_CONF	2411910	n/a	LTP245	ltpFR	6	5	n/a	PHYSICIAN	1056	n/a	4	n/a	n/a	n/a	n/a	n/a	n/a
4825.446	n/a	RECOG_LURE	2412723	n/a	LTP245	ltpFR	6	5	n/a	BOUILLON	154	0	2	n/a	n/a	n/a	n/a	n/a	n/a
4826.586	n/a	RECOG_RESP	2413293	n/a	LTP245	ltpFR	6	5	n/a	BOUILLON	154	0	n/a	n/a	n/a	n/a	n/a	n/a	n/a
4827.188	n/a	RECOG_CONF	2413594	n/a	LTP245	ltpFR	6	5	n/a	BOUILLON	154	n/a	2	n/a	n/a	n/a	n/a	n/a	n/a
4828.69	n/a	RECOG_LURE	2414345	n/a	LTP245	ltpFR	6	5	n/a	CAVITY	264	0	1	n/a	n/a	n/a	n/a	n/a	n/a
4829.512	n/a	RECOG_RESP	2414756	n/a	LTP245	ltpFR	6	5	n/a	CAVITY	264	0	n/a	n/a	n/a	n/a	n/a	n/a	n/a
4830.14	n/a	RECOG_CONF	2415070	n/a	LTP245	ltpFR	6	5	n/a	CAVITY	264	n/a	1	n/a	n/a	n/a	n/a	n/a	n/a
4831.736	n/a	RECOG_TARGET	2415868	n/a	LTP245	ltpFR	6	5	-1	GUEST	669	0	3	-1	n/a	n/a	n/a	n/a	n/a
4832.358	n/a	RECOG_RESP	2416179	n/a	LTP245	ltpFR	6	5	-1	GUEST	669	0	n/a	-1	n/a	n/a	n/a	n/a	n/a
4832.958	n/a	RECOG_CONF	2416479	n/a	LTP245	ltpFR	6	5	-1	GUEST	669	n/a	3	-1	n/a	n/a	n/a	n/a	n/a
4834.564	n/a	RECOG_TARGET	2417282	n/a	LTP245	ltpFR	6	5	0	FEMALE	559	1	4	1	n/a	n/a	n/a	n/a	n/a
4835.236	n/a	RECOG_RESP	2417618	n/a	LTP245	ltpFR	6	5	0	FEMALE	559	1	n/a	1	n/a	n/a	n/a	n/a	n/a
4835.772	n/a	RECOG_CONF	2417886	n/a	LTP245	ltpFR	6	5	0	FEMALE	559	n/a	4	1	n/a	n/a	n/a	n/a	n/a
4837.378	n/a	RECOG_TARGET	2418689	n/a	LTP245	ltpFR	6	5	0	SHEPHERD	1283	1	5	1	n/a	n/a	n/a	n/a	n/a
4837.942	n/a	RECOG_RESP	2418971	n/a	LTP245	ltpFR	6	5	0	SHEPHERD	1283	1	n/a	1	n/a	n/a	n/a	n/a	n/a
4838.556	n/a	RECOG_CONF	2419278	n/a	LTP245	ltpFR	6	5	0	SHEPHERD	1283	n/a	5	1	n/a	n/a	n/a	n/a	n/a
4840.188	n/a	RECOG_TARGET	2420094	n/a	LTP245	ltpFR	6	5	0	DEER	444	1	1	1	n/a	n/a	n/a	n/a	n/a
4840.712	n/a	RECOG_RESP	2420356	n/a	LTP245	ltpFR	6	5	0	DEER	444	1	n/a	1	n/a	n/a	n/a	n/a	n/a
4848.782	n/a	RECOG_RESP_VV	2424391	n/a	LTP245	ltpFR	6	5	0	DEER	444	n/a	1	1	n/a	n/a	n/a	n/a	n/a
4850.626	n/a	RECOG_CONF	2425313	n/a	LTP245	ltpFR	6	5	0	DEER	444	n/a	1	1	n/a	n/a	n/a	n/a	n/a
4852.638	n/a	RECOG_TARGET	2426319	n/a	LTP245	ltpFR	6	5	0	PENGUIN	1044	1	4	1	n/a	n/a	n/a	n/a	n/a
4854.294	n/a	RECOG_RESP	2427147	n/a	LTP245	ltpFR	6	5	0	PENGUIN	1044	1	n/a	1	n/a	n/a	n/a	n/a	n/a
4854.91	n/a	RECOG_CONF	2427455	n/a	LTP245	ltpFR	6	5	0	PENGUIN	1044	n/a	4	1	n/a	n/a	n/a	n/a	n/a
4856.498	n/a	RECOG_TARGET	2428249	n/a	LTP245	ltpFR	6	5	1	CREW	406	1	5	1	n/a	n/a	n/a	n/a	n/a
4857.118	n/a	RECOG_RESP	2428559	n/a	LTP245	ltpFR	6	5	1	CREW	406	1	n/a	1	n/a	n/a	n/a	n/a	n/a
4857.682	n/a	RECOG_CONF	2428841	n/a	LTP245	ltpFR	6	5	1	CREW	406	n/a	5	1	n/a	n/a	n/a	n/a	n/a
4859.344	n/a	RECOG_TARGET	2429672	n/a	LTP245	ltpFR	6	5	-1	CARPET	247	0	2	-1	n/a	n/a	n/a	n/a	n/a
4860.214	n/a	RECOG_RESP	2430107	n/a	LTP245	ltpFR	6	5	-1	CARPET	247	0	n/a	-1	n/a	n/a	n/a	n/a	n/a
4860.826	n/a	RECOG_CONF	2430413	n/a	LTP245	ltpFR	6	5	-1	CARPET	247	n/a	2	-1	n/a	n/a	n/a	n/a	n/a
4862.474	n/a	RECOG_LURE	2431237	n/a	LTP245	ltpFR	6	5	n/a	BALLERINA	74	0	4	n/a	n/a	n/a	n/a	n/a	n/a
4863.274	n/a	RECOG_RESP	2431637	n/a	LTP245	ltpFR	6	5	n/a	BALLERINA	74	0	n/a	n/a	n/a	n/a	n/a	n/a	n/a
4863.948	n/a	RECOG_CONF	2431974	n/a	LTP245	ltpFR	6	5	n/a	BALLERINA	74	n/a	4	n/a	n/a	n/a	n/a	n/a	n/a
4865.468	n/a	RECOG_TARGET	2432734	n/a	LTP245	ltpFR	6	5	0	PEACH	1031	1	4	0	n/a	n/a	n/a	n/a	n/a
4866.1	n/a	RECOG_RESP	2433050	n/a	LTP245	ltpFR	6	5	0	PEACH	1031	1	n/a	0	n/a	n/a	n/a	n/a	n/a
4866.852	n/a	RECOG_CONF	2433426	n/a	LTP245	ltpFR	6	5	0	PEACH	1031	n/a	4	0	n/a	n/a	n/a	n/a	n/a
4868.364	n/a	RECOG_TARGET	2434182	n/a	LTP245	ltpFR	6	5	1	LANDSCAPE	799	1	3	0	n/a	n/a	n/a	n/a	n/a
4874.948	n/a	RECOG_RESP	2437474	n/a	LTP245	ltpFR	6	5	1	LANDSCAPE	799	1	n/a	0	n/a	n/a	n/a	n/a	n/a
4876.126	n/a	RECOG_CONF	2438063	n/a	LTP245	ltpFR	6	5	1	LANDSCAPE	799	n/a	3	0	n/a	n/a	n/a	n/a	n/a
4934.634	n/a	REC_START	2467317	n/a	LTP245	ltpFR	6	6	n/a	n/a	n/a	n/a	n/a	n/a	n/a	n/a	n/a	n/a	n/a
4934.666	n/a	RECOG_TARGET	2467333	n/a	LTP245	ltpFR	6	6	-1	ASSISTANT	48	1	5	-1	n/a	n/a	n/a	n/a	n/a
4936.198	n/a	RECOG_RESP	2468099	n/a	LTP245	ltpFR	6	6	-1	ASSISTANT	48	1	n/a	-1	n/a	n/a	n/a	n/a	n/a
4937.62	n/a	RECOG_CONF	2468810	n/a	LTP245	ltpFR	6	6	-1	ASSISTANT	48	n/a	5	-1	n/a	n/a	n/a	n/a	n/a
4939.442	n/a	RECOG_TARGET	2469721	n/a	LTP245	ltpFR	6	6	-1	CHISEL	305	1	4	-1	n/a	n/a	n/a	n/a	n/a
4940.352	n/a	RECOG_RESP	2470176	n/a	LTP245	ltpFR	6	6	-1	CHISEL	305	1	n/a	-1	n/a	n/a	n/a	n/a	n/a
4940.94	n/a	RECOG_CONF	2470470	n/a	LTP245	ltpFR	6	6	-1	CHISEL	305	n/a	4	-1	n/a	n/a	n/a	n/a	n/a
4942.622	n/a	RECOG_TARGET	2471311	n/a	LTP245	ltpFR	6	6	0	COIN	343	0	2	0	n/a	n/a	n/a	n/a	n/a
4943.438	n/a	RECOG_RESP	2471719	n/a	LTP245	ltpFR	6	6	0	COIN	343	0	n/a	0	n/a	n/a	n/a	n/a	n/a
4943.952	n/a	RECOG_CONF	2471976	n/a	LTP245	ltpFR	6	6	0	COIN	343	n/a	2	0	n/a	n/a	n/a	n/a	n/a
4945.65	n/a	RECOG_LURE	2472825	n/a	LTP245	ltpFR	6	6	n/a	DOLL	481	0	2	n/a	n/a	n/a	n/a	n/a	n/a
4947.114	n/a	RECOG_RESP	2473557	n/a	LTP245	ltpFR	6	6	n/a	DOLL	481	0	n/a	n/a	n/a	n/a	n/a	n/a	n/a
4947.788	n/a	RECOG_CONF	2473894	n/a	LTP245	ltpFR	6	6	n/a	DOLL	481	n/a	2	n/a	n/a	n/a	n/a	n/a	n/a
4949.41	n/a	RECOG_TARGET	2474705	n/a	LTP245	ltpFR	6	6	1	RATTLE	1170	1	4	0	n/a	n/a	n/a	n/a	n/a
4950.132	n/a	RECOG_RESP	2475066	n/a	LTP245	ltpFR	6	6	1	RATTLE	1170	1	n/a	0	n/a	n/a	n/a	n/a	n/a
4950.712	n/a	RECOG_CONF	2475356	n/a	LTP245	ltpFR	6	6	1	RATTLE	1170	n/a	4	0	n/a	n/a	n/a	n/a	n/a
4952.272	n/a	RECOG_LURE	2476136	n/a	LTP245	ltpFR	6	6	n/a	FRIEND	606	0	3	n/a	n/a	n/a	n/a	n/a	n/a
4953.046	n/a	RECOG_RESP	2476523	n/a	LTP245	ltpFR	6	6	n/a	FRIEND	606	0	n/a	n/a	n/a	n/a	n/a	n/a	n/a
4953.574	n/a	RECOG_CONF	2476787	n/a	LTP245	ltpFR	6	6	n/a	FRIEND	606	n/a	3	n/a	n/a	n/a	n/a	n/a	n/a
4955.068	n/a	RECOG_TARGET	2477534	n/a	LTP245	ltpFR	6	6	0	CORD	379	0	2	0	n/a	n/a	n/a	n/a	n/a
4955.836	n/a	RECOG_RESP	2477918	n/a	LTP245	ltpFR	6	6	0	CORD	379	0	n/a	0	n/a	n/a	n/a	n/a	n/a
4956.45	n/a	RECOG_CONF	2478225	n/a	LTP245	ltpFR	6	6	0	CORD	379	n/a	2	0	n/a	n/a	n/a	n/a	n/a
4958.114	n/a	RECOG_TARGET	2479057	n/a	LTP245	ltpFR	6	6	1	TROMBONE	1508	1	5	0	n/a	n/a	n/a	n/a	n/a
4958.852	n/a	RECOG_RESP	2479426	n/a	LTP245	ltpFR	6	6	1	TROMBONE	1508	1	n/a	0	n/a	n/a	n/a	n/a	n/a
4959.404	n/a	RECOG_CONF	2479702	n/a	LTP245	ltpFR	6	6	1	TROMBONE	1508	n/a	5	0	n/a	n/a	n/a	n/a	n/a
4961.126	n/a	RECOG_TARGET	2480563	n/a	LTP245	ltpFR	6	6	0	DOLPHIN	483	0	4	1	n/a	n/a	n/a	n/a	n/a
4962.01	n/a	RECOG_RESP	2481005	n/a	LTP245	ltpFR	6	6	0	DOLPHIN	483	0	n/a	1	n/a	n/a	n/a	n/a	n/a
4962.786	n/a	RECOG_CONF	2481393	n/a	LTP245	ltpFR	6	6	0	DOLPHIN	483	n/a	4	1	n/a	n/a	n/a	n/a	n/a
4964.44	n/a	RECOG_LURE	2482220	n/a	LTP245	ltpFR	6	6	n/a	VINE	1568	0	3	n/a	n/a	n/a	n/a	n/a	n/a
4965.498	n/a	RECOG_RESP	2482749	n/a	LTP245	ltpFR	6	6	n/a	VINE	1568	0	n/a	n/a	n/a	n/a	n/a	n/a	n/a
4966.298	n/a	RECOG_CONF	2483149	n/a	LTP245	ltpFR	6	6	n/a	VINE	1568	n/a	3	n/a	n/a	n/a	n/a	n/a	n/a
4967.934	n/a	RECOG_TARGET	2483967	n/a	LTP245	ltpFR	6	6	-1	ZUCCHINI	1638	0	2	-1	n/a	n/a	n/a	n/a	n/a
4975.008	n/a	RECOG_RESP	2487504	n/a	LTP245	ltpFR	6	6	-1	ZUCCHINI	1638	0	n/a	-1	n/a	n/a	n/a	n/a	n/a
4976.118	n/a	RECOG_CONF	2488059	n/a	LTP245	ltpFR	6	6	-1	ZUCCHINI	1638	n/a	2	-1	n/a	n/a	n/a	n/a	n/a
4978.168	n/a	RECOG_LURE	2489084	n/a	LTP245	ltpFR	6	6	n/a	SCHOOL	1248	0	1	n/a	n/a	n/a	n/a	n/a	n/a
4980.568	n/a	RECOG_RESP	2490284	n/a	LTP245	ltpFR	6	6	n/a	SCHOOL	1248	0	n/a	n/a	n/a	n/a	n/a	n/a	n/a
4981.546	n/a	RECOG_CONF	2490773	n/a	LTP245	ltpFR	6	6	n/a	SCHOOL	1248	n/a	1	n/a	n/a	n/a	n/a	n/a	n/a
4983.078	n/a	RECOG_LURE	2491539	n/a	LTP245	ltpFR	6	6	n/a	WOLF	1619	0	3	n/a	n/a	n/a	n/a	n/a	n/a
4985.66	n/a	RECOG_RESP	2492830	n/a	LTP245	ltpFR	6	6	n/a	WOLF	1619	0	n/a	n/a	n/a	n/a	n/a	n/a	n/a
4986.662	n/a	RECOG_CONF	2493331	n/a	LTP245	ltpFR	6	6	n/a	WOLF	1619	n/a	3	n/a	n/a	n/a	n/a	n/a	n/a
4988.388	n/a	RECOG_TARGET	2494194	n/a	LTP245	ltpFR	6	6	1	ROOST	1208	1	4	0	n/a	n/a	n/a	n/a	n/a
4989.134	n/a	RECOG_RESP	2494567	n/a	LTP245	ltpFR	6	6	1	ROOST	1208	1	n/a	0	n/a	n/a	n/a	n/a	n/a
4989.716	n/a	RECOG_CONF	2494858	n/a	LTP245	ltpFR	6	6	1	ROOST	1208	n/a	4	0	n/a	n/a	n/a	n/a	n/a
4991.348	n/a	RECOG_TARGET	2495674	n/a	LTP245	ltpFR	6	6	0	SHOE	1288	1	5	0	n/a	n/a	n/a	n/a	n/a
4991.912	n/a	RECOG_RESP	2495956	n/a	LTP245	ltpFR	6	6	0	SHOE	1288	1	n/a	0	n/a	n/a	n/a	n/a	n/a
4992.416	n/a	RECOG_CONF	2496208	n/a	LTP245	ltpFR	6	6	0	SHOE	1288	n/a	5	0	n/a	n/a	n/a	n/a	n/a
4994.078	n/a	RECOG_LURE	2497039	n/a	LTP245	ltpFR	6	6	n/a	VALVE	1546	0	3	n/a	n/a	n/a	n/a	n/a	n/a
4995.602	n/a	RECOG_RESP	2497801	n/a	LTP245	ltpFR	6	6	n/a	VALVE	1546	0	n/a	n/a	n/a	n/a	n/a	n/a	n/a
4996.482	n/a	RECOG_CONF	2498241	n/a	LTP245	ltpFR	6	6	n/a	VALVE	1546	n/a	3	n/a	n/a	n/a	n/a	n/a	n/a
4998.088	n/a	RECOG_TARGET	2499044	n/a	LTP245	ltpFR	6	6	0	FISH	571	1	5	0	n/a	n/a	n/a	n/a	n/a
4998.856	n/a	RECOG_RESP	2499428	n/a	LTP245	ltpFR	6	6	0	FISH	571	1	n/a	0	n/a	n/a	n/a	n/a	n/a
4999.374	n/a	RECOG_CONF	2499687	n/a	LTP245	ltpFR	6	6	0	FISH	571	n/a	5	0	n/a	n/a	n/a	n/a	n/a
5000.984	n/a	RECOG_TARGET	2500492	n/a	LTP245	ltpFR	6	6	0	KIDNEY	776	1	5	0	n/a	n/a	n/a	n/a	n/a
5001.578	n/a	RECOG_RESP	2500789	n/a	LTP245	ltpFR	6	6	0	KIDNEY	776	1	n/a	0	n/a	n/a	n/a	n/a	n/a
5002.156	n/a	RECOG_CONF	2501078	n/a	LTP245	ltpFR	6	6	0	KIDNEY	776	n/a	5	0	n/a	n/a	n/a	n/a	n/a
5003.648	n/a	RECOG_TARGET	2501824	n/a	LTP245	ltpFR	6	6	-1	NOVEL	960	1	4	-1	n/a	n/a	n/a	n/a	n/a
5005.122	n/a	RECOG_RESP	2502561	n/a	LTP245	ltpFR	6	6	-1	NOVEL	960	1	n/a	-1	n/a	n/a	n/a	n/a	n/a
5005.668	n/a	RECOG_CONF	2502834	n/a	LTP245	ltpFR	6	6	-1	NOVEL	960	n/a	4	-1	n/a	n/a	n/a	n/a	n/a
5007.258	n/a	RECOG_LURE	2503629	n/a	LTP245	ltpFR	6	6	n/a	LOG	841	0	3	n/a	n/a	n/a	n/a	n/a	n/a
5008.112	n/a	RECOG_RESP	2504056	n/a	LTP245	ltpFR	6	6	n/a	LOG	841	0	n/a	n/a	n/a	n/a	n/a	n/a	n/a
5008.634	n/a	RECOG_CONF	2504317	n/a	LTP245	ltpFR	6	6	n/a	LOG	841	n/a	3	n/a	n/a	n/a	n/a	n/a	n/a
5013.926	n/a	REC_START	2506963	n/a	LTP245	ltpFR	6	7	n/a	n/a	n/a	n/a	n/a	n/a	n/a	n/a	n/a	n/a	n/a
5013.964	n/a	RECOG_TARGET	2506982	n/a	LTP245	ltpFR	6	7	1	ARMY	39	1	2	1	n/a	n/a	n/a	n/a	n/a
5014.612	n/a	RECOG_RESP	2507306	n/a	LTP245	ltpFR	6	7	1	ARMY	39	1	n/a	1	n/a	n/a	n/a	n/a	n/a
5015.708	n/a	RECOG_CONF	2507854	n/a	LTP245	ltpFR	6	7	1	ARMY	39	n/a	2	1	n/a	n/a	n/a	n/a	n/a
5017.428	n/a	RECOG_TARGET	2508714	n/a	LTP245	ltpFR	6	7	-1	TURNIP	1521	1	5	-1	n/a	n/a	n/a	n/a	n/a
5018.1	n/a	RECOG_RESP	2509050	n/a	LTP245	ltpFR	6	7	-1	TURNIP	1521	1	n/a	-1	n/a	n/a	n/a	n/a	n/a
5018.648	n/a	RECOG_CONF	2509324	n/a	LTP245	ltpFR	6	7	-1	TURNIP	1521	n/a	5	-1	n/a	n/a	n/a	n/a	n/a
5020.372	n/a	RECOG_LURE	2510186	n/a	LTP245	ltpFR	6	7	n/a	RULER	1216	0	4	n/a	n/a	n/a	n/a	n/a	n/a
5021.29	n/a	RECOG_RESP	2510645	n/a	LTP245	ltpFR	6	7	n/a	RULER	1216	0	n/a	n/a	n/a	n/a	n/a	n/a	n/a
5021.794	n/a	RECOG_CONF	2510897	n/a	LTP245	ltpFR	6	7	n/a	RULER	1216	n/a	4	n/a	n/a	n/a	n/a	n/a	n/a
5023.384	n/a	RECOG_TARGET	2511692	n/a	LTP245	ltpFR	6	7	1	HORNET	718	1	4	0	n/a	n/a	n/a	n/a	n/a
5024.638	n/a	RECOG_RESP	2512319	n/a	LTP245	ltpFR	6	7	1	HORNET	718	1	n/a	0	n/a	n/a	n/a	n/a	n/a
5025.416	n/a	RECOG_CONF	2512708	n/a	LTP245	ltpFR	6	7	1	HORNET	718	n/a	4	0	n/a	n/a	n/a	n/a	n/a
5027.062	n/a	RECOG_TARGET	2513531	n/a	LTP245	ltpFR	6	7	0	TUNA	1518	1	5	1	n/a	n/a	n/a	n/a	n/a
5027.722	n/a	RECOG_RESP	2513861	n/a	LTP245	ltpFR	6	7	0	TUNA	1518	1	n/a	1	n/a	n/a	n/a	n/a	n/a
5028.268	n/a	RECOG_CONF	2514134	n/a	LTP245	ltpFR	6	7	0	TUNA	1518	n/a	5	1	n/a	n/a	n/a	n/a	n/a
5029.89	n/a	RECOG_TARGET	2514945	n/a	LTP245	ltpFR	6	7	0	ALMANAC	17	1	3	0	n/a	n/a	n/a	n/a	n/a
5030.666	n/a	RECOG_RESP	2515333	n/a	LTP245	ltpFR	6	7	0	ALMANAC	17	1	n/a	0	n/a	n/a	n/a	n/a	n/a
5031.24	n/a	RECOG_CONF	2515620	n/a	LTP245	ltpFR	6	7	0	ALMANAC	17	n/a	3	0	n/a	n/a	n/a	n/a	n/a
5032.92	n/a	RECOG_TARGET	2516460	n/a	LTP245	ltpFR	6	7	0	NET	946	1	2	0	n/a	n/a	n/a	n/a	n/a
5033.572	n/a	RECOG_RESP	2516786	n/a	LTP245	ltpFR	6	7	0	NET	946	1	n/a	0	n/a	n/a	n/a	n/a	n/a
5034.16	n/a	RECOG_CONF	2517080	n/a	LTP245	ltpFR	6	7	0	NET	946	n/a	2	0	n/a	n/a	n/a	n/a	n/a
5035.866	n/a	RECOG_TARGET	2517933	n/a	LTP245	ltpFR	6	7	0	EYELASH	546	1	4	0	n/a	n/a	n/a	n/a	n/a
5036.604	n/a	RECOG_RESP	2518302	n/a	LTP245	ltpFR	6	7	0	EYELASH	546	1	n/a	0	n/a	n/a	n/a	n/a	n/a
5037.23	n/a	RECOG_CONF	2518615	n/a	LTP245	ltpFR	6	7	0	EYELASH	546	n/a	4	0	n/a	n/a	n/a	n/a	n/a
5039.078	n/a	RECOG_TARGET	2519539	n/a	LTP245	ltpFR	6	7	1	CHAMBER	277	1	5	0	n/a	n/a	n/a	n/a	n/a
5039.858	n/a	RECOG_RESP	2519929	n/a	LTP245	ltpFR	6	7	1	CHAMBER	277	1	n/a	0	n/a	n/a	n/a	n/a	n/a
5040.452	n/a	RECOG_CONF	2520226	n/a	LTP245	ltpFR	6	7	1	CHAMBER	277	n/a	5	0	n/a	n/a	n/a	n/a	n/a
5042.156	n/a	RECOG_LURE	2521078	n/a	LTP245	ltpFR	6	7	n/a	WILDERNESS	1610	0	3	n/a	n/a	n/a	n/a	n/a	n/a
5043.028	n/a	RECOG_RESP	2521514	n/a	LTP245	ltpFR	6	7	n/a	WILDERNESS	1610	0	n/a	n/a	n/a	n/a	n/a	n/a	n/a
5043.63	n/a	RECOG_CONF	2521815	n/a	LTP245	ltpFR	6	7	n/a	WILDERNESS	1610	n/a	3	n/a	n/a	n/a	n/a	n/a	n/a
5045.236	n/a	RECOG_TARGET	2522618	n/a	LTP245	ltpFR	6	7	0	FIG	563	1	5	0	n/a	n/a	n/a	n/a	n/a
5045.78	n/a	RECOG_RESP	2522890	n/a	LTP245	ltpFR	6	7	0	FIG	563	1	n/a	0	n/a	n/a	n/a	n/a	n/a
5046.358	n/a	RECOG_CONF	2523179	n/a	LTP245	ltpFR	6	7	0	FIG	563	n/a	5	0	n/a	n/a	n/a	n/a	n/a
5047.998	n/a	RECOG_TARGET	2523999	n/a	LTP245	ltpFR	6	7	1	PASSAGE	1019	1	4	0	n/a	n/a	n/a	n/a	n/a
5048.698	n/a	RECOG_RESP	2524349	n/a	LTP245	ltpFR	6	7	1	PASSAGE	1019	1	n/a	0	n/a	n/a	n/a	n/a	n/a
5049.302	n/a	RECOG_CONF	2524651	n/a	LTP245	ltpFR	6	7	1	PASSAGE	1019	n/a	4	0	n/a	n/a	n/a	n/a	n/a
5050.96	n/a	RECOG_TARGET	2525480	n/a	LTP245	ltpFR	6	7	-1	SIGN	1305	1	4	-1	n/a	n/a	n/a	n/a	n/a
5051.6	n/a	RECOG_RESP	2525800	n/a	LTP245	ltpFR	6	7	-1	SIGN	1305	1	n/a	-1	n/a	n/a	n/a	n/a	n/a
5052.276	n/a	RECOG_CONF	2526138	n/a	LTP245	ltpFR	6	7	-1	SIGN	1305	n/a	4	-1	n/a	n/a	n/a	n/a	n/a
5053.94	n/a	RECOG_TARGET	2526970	n/a	LTP245	ltpFR	6	7	1	PERMIT	1051	0	2	0	n/a	n/a	n/a	n/a	n/a
5054.78	n/a	RECOG_RESP	2527390	n/a	LTP245	ltpFR	6	7	1	PERMIT	1051	0	n/a	0	n/a	n/a	n/a	n/a	n/a
5055.488	n/a	RECOG_CONF	2527744	n/a	LTP245	ltpFR	6	7	1	PERMIT	1051	n/a	2	0	n/a	n/a	n/a	n/a	n/a
5057.168	n/a	RECOG_TARGET	2528584	n/a	LTP245	ltpFR	6	7	-1	CITIZEN	312	1	4	-1	n/a	n/a	n/a	n/a	n/a
5057.946	n/a	RECOG_RESP	2528973	n/a	LTP245	ltpFR	6	7	-1	CITIZEN	312	1	n/a	-1	n/a	n/a	n/a	n/a	n/a
5058.68	n/a	RECOG_CONF	2529340	n/a	LTP245	ltpFR	6	7	-1	CITIZEN	312	n/a	4	-1	n/a	n/a	n/a	n/a	n/a
5060.246	n/a	RECOG_LURE	2530123	n/a	LTP245	ltpFR	6	7	n/a	DANDELION	438	0	4	n/a	n/a	n/a	n/a	n/a	n/a
5061.224	n/a	RECOG_RESP	2530612	n/a	LTP245	ltpFR	6	7	n/a	DANDELION	438	0	n/a	n/a	n/a	n/a	n/a	n/a	n/a
5061.904	n/a	RECOG_CONF	2530952	n/a	LTP245	ltpFR	6	7	n/a	DANDELION	438	n/a	4	n/a	n/a	n/a	n/a	n/a	n/a
5063.576	n/a	RECOG_LURE	2531788	n/a	LTP245	ltpFR	6	7	n/a	CARROT	249	0	3	n/a	n/a	n/a	n/a	n/a	n/a
5064.386	n/a	RECOG_RESP	2532193	n/a	LTP245	ltpFR	6	7	n/a	CARROT	249	0	n/a	n/a	n/a	n/a	n/a	n/a	n/a
5065.046	n/a	RECOG_CONF	2532523	n/a	LTP245	ltpFR	6	7	n/a	CARROT	249	n/a	3	n/a	n/a	n/a	n/a	n/a	n/a
5066.772	n/a	RECOG_TARGET	2533386	n/a	LTP245	ltpFR	6	7	1	OLIVE	975	1	5	0	n/a	n/a	n/a	n/a	n/a
5067.388	n/a	RECOG_RESP	2533694	n/a	LTP245	ltpFR	6	7	1	OLIVE	975	1	n/a	0	n/a	n/a	n/a	n/a	n/a
5068.006	n/a	RECOG_CONF	2534003	n/a	LTP245	ltpFR	6	7	1	OLIVE	975	n/a	5	0	n/a	n/a	n/a	n/a	n/a
5069.634	n/a	RECOG_TARGET	2534817	n/a	LTP245	ltpFR	6	7	-1	NAVIGATOR	938	1	4	-1	n/a	n/a	n/a	n/a	n/a
5070.268	n/a	RECOG_RESP	2535134	n/a	LTP245	ltpFR	6	7	-1	NAVIGATOR	938	1	n/a	-1	n/a	n/a	n/a	n/a	n/a
5070.932	n/a	RECOG_CONF	2535466	n/a	LTP245	ltpFR	6	7	-1	NAVIGATOR	938	n/a	4	-1	n/a	n/a	n/a	n/a	n/a
5072.58	n/a	RECOG_LURE	2536290	n/a	LTP245	ltpFR	6	7	n/a	CARNIVAL	245	1	4	n/a	n/a	n/a	n/a	n/a	n/a
5073.204	n/a	RECOG_RESP	2536602	n/a	LTP245	ltpFR	6	7	n/a	CARNIVAL	245	1	n/a	n/a	n/a	n/a	n/a	n/a	n/a
5073.906	n/a	RECOG_CONF	2536953	n/a	LTP245	ltpFR	6	7	n/a	CARNIVAL	245	n/a	4	n/a	n/a	n/a	n/a	n/a	n/a
5082.646	n/a	REC_START	2541323	n/a	LTP245	ltpFR	6	8	n/a	n/a	n/a	n/a	n/a	n/a	n/a	n/a	n/a	n/a	n/a
5082.68	n/a	RECOG_TARGET	2541340	n/a	LTP245	ltpFR	6	8	0	RADISH	1158	1	4	0	n/a	n/a	n/a	n/a	n/a
5083.34	n/a	RECOG_RESP	2541670	n/a	LTP245	ltpFR	6	8	0	RADISH	1158	1	n/a	0	n/a	n/a	n/a	n/a	n/a
5083.978	n/a	RECOG_CONF	2541989	n/a	LTP245	ltpFR	6	8	0	RADISH	1158	n/a	4	0	n/a	n/a	n/a	n/a	n/a
5085.626	n/a	RECOG_TARGET	2542813	n/a	LTP245	ltpFR	6	8	-1	FLESH	579	0	3	-1	n/a	n/a	n/a	n/a	n/a
5086.392	n/a	RECOG_RESP	2543196	n/a	LTP245	ltpFR	6	8	-1	FLESH	579	0	n/a	-1	n/a	n/a	n/a	n/a	n/a
5086.988	n/a	RECOG_CONF	2543494	n/a	LTP245	ltpFR	6	8	-1	FLESH	579	n/a	3	-1	n/a	n/a	n/a	n/a	n/a
5088.788	n/a	RECOG_TARGET	2544394	n/a	LTP245	ltpFR	6	8	-1	MOTOR	922	1	5	-1	n/a	n/a	n/a	n/a	n/a
5089.342	n/a	RECOG_RESP	2544671	n/a	LTP245	ltpFR	6	8	-1	MOTOR	922	1	n/a	-1	n/a	n/a	n/a	n/a	n/a
5089.924	n/a	RECOG_CONF	2544962	n/a	LTP245	ltpFR	6	8	-1	MOTOR	922	n/a	5	-1	n/a	n/a	n/a	n/a	n/a
5091.584	n/a	RECOG_LURE	2545792	n/a	LTP245	ltpFR	6	8	n/a	MANAGER	863	1	5	n/a	n/a	n/a	n/a	n/a	n/a
5092.254	n/a	RECOG_RESP	2546127	n/a	LTP245	ltpFR	6	8	n/a	MANAGER	863	1	n/a	n/a	n/a	n/a	n/a	n/a	n/a
5092.818	n/a	RECOG_CONF	2546409	n/a	LTP245	ltpFR	6	8	n/a	MANAGER	863	n/a	5	n/a	n/a	n/a	n/a	n/a	n/a
5094.562	n/a	RECOG_TARGET	2547281	n/a	LTP245	ltpFR	6	8	0	LIP	828	1	5	0	n/a	n/a	n/a	n/a	n/a
5095.1	n/a	RECOG_RESP	2547550	n/a	LTP245	ltpFR	6	8	0	LIP	828	1	n/a	0	n/a	n/a	n/a	n/a	n/a
5095.634	n/a	RECOG_CONF	2547817	n/a	LTP245	ltpFR	6	8	0	LIP	828	n/a	5	0	n/a	n/a	n/a	n/a	n/a
5097.442	n/a	RECOG_TARGET	2548721	n/a	LTP245	ltpFR	6	8	1	ZEBRA	1635	1	4	1	n/a	n/a	n/a	n/a	n/a
5098.026	n/a	RECOG_RESP	2549013	n/a	LTP245	ltpFR	6	8	1	ZEBRA	1635	1	n/a	1	n/a	n/a	n/a	n/a	n/a
5098.674	n/a	RECOG_CONF	2549337	n/a	LTP245	ltpFR	6	8	1	ZEBRA	1635	n/a	4	1	n/a	n/a	n/a	n/a	n/a
5100.336	n/a	RECOG_TARGET	2550168	n/a	LTP245	ltpFR	6	8	0	CATHEDRAL	260	1	3	1	n/a	n/a	n/a	n/a	n/a
5100.862	n/a	RECOG_RESP	2550431	n/a	LTP245	ltpFR	6	8	0	CATHEDRAL	260	1	n/a	1	n/a	n/a	n/a	n/a	n/a
5101.462	n/a	RECOG_CONF	2550731	n/a	LTP245	ltpFR	6	8	0	CATHEDRAL	260	n/a	3	1	n/a	n/a	n/a	n/a	n/a
5103.216	n/a	RECOG_TARGET	2551608	n/a	LTP245	ltpFR	6	8	0	ORCHESTRA	981	1	4	1	n/a	n/a	n/a	n/a	n/a
5103.692	n/a	RECOG_RESP	2551846	n/a	LTP245	ltpFR	6	8	0	ORCHESTRA	981	1	n/a	1	n/a	n/a	n/a	n/a	n/a
5104.292	n/a	RECOG_CONF	2552146	n/a	LTP245	ltpFR	6	8	0	ORCHESTRA	981	n/a	4	1	n/a	n/a	n/a	n/a	n/a
5105.962	n/a	RECOG_LURE	2552981	n/a	LTP245	ltpFR	6	8	n/a	LOBBY	836	0	2	n/a	n/a	n/a	n/a	n/a	n/a
5106.72	n/a	RECOG_RESP	2553360	n/a	LTP245	ltpFR	6	8	n/a	LOBBY	836	0	n/a	n/a	n/a	n/a	n/a	n/a	n/a
5107.442	n/a	RECOG_CONF	2553721	n/a	LTP245	ltpFR	6	8	n/a	LOBBY	836	n/a	2	n/a	n/a	n/a	n/a	n/a	n/a
5109.108	n/a	RECOG_TARGET	2554554	n/a	LTP245	ltpFR	6	8	1	BARN	89	1	4	0	n/a	n/a	n/a	n/a	n/a
5110.006	n/a	RECOG_RESP	2555003	n/a	LTP245	ltpFR	6	8	1	BARN	89	1	n/a	0	n/a	n/a	n/a	n/a	n/a
5110.678	n/a	RECOG_CONF	2555339	n/a	LTP245	ltpFR	6	8	1	BARN	89	n/a	4	0	n/a	n/a	n/a	n/a	n/a
5112.388	n/a	RECOG_TARGET	2556194	n/a	LTP245	ltpFR	6	8	-1	TREAD	1499	1	5	-1	n/a	n/a	n/a	n/a	n/a
5112.896	n/a	RECOG_RESP	2556448	n/a	LTP245	ltpFR	6	8	-1	TREAD	1499	1	n/a	-1	n/a	n/a	n/a	n/a	n/a
5113.562	n/a	RECOG_CONF	2556781	n/a	LTP245	ltpFR	6	8	-1	TREAD	1499	n/a	5	-1	n/a	n/a	n/a	n/a	n/a
5115.148	n/a	RECOG_LURE	2557574	n/a	LTP245	ltpFR	6	8	n/a	MACARONI	851	0	4	n/a	n/a	n/a	n/a	n/a	n/a
5116.118	n/a	RECOG_RESP	2558059	n/a	LTP245	ltpFR	6	8	n/a	MACARONI	851	0	n/a	n/a	n/a	n/a	n/a	n/a	n/a
5116.624	n/a	RECOG_CONF	2558312	n/a	LTP245	ltpFR	6	8	n/a	MACARONI	851	n/a	4	n/a	n/a	n/a	n/a	n/a	n/a
5118.462	n/a	RECOG_LURE	2559231	n/a	LTP245	ltpFR	6	8	n/a	PHILOSOPHER	1054	0	3	n/a	n/a	n/a	n/a	n/a	n/a
5119.28	n/a	RECOG_RESP	2559640	n/a	LTP245	ltpFR	6	8	n/a	PHILOSOPHER	1054	0	n/a	n/a	n/a	n/a	n/a	n/a	n/a
5119.966	n/a	RECOG_CONF	2559983	n/a	LTP245	ltpFR	6	8	n/a	PHILOSOPHER	1054	n/a	3	n/a	n/a	n/a	n/a	n/a	n/a
5121.59	n/a	RECOG_TARGET	2560795	n/a	LTP245	ltpFR	6	8	-1	BUREAU	199	1	5	-1	n/a	n/a	n/a	n/a	n/a
5122.596	n/a	RECOG_RESP	2561298	n/a	LTP245	ltpFR	6	8	-1	BUREAU	199	1	n/a	-1	n/a	n/a	n/a	n/a	n/a
5123.25	n/a	RECOG_CONF	2561625	n/a	LTP245	ltpFR	6	8	-1	BUREAU	199	n/a	5	-1	n/a	n/a	n/a	n/a	n/a
5124.968	n/a	RECOG_TARGET	2562484	n/a	LTP245	ltpFR	6	8	1	IDOL	733	1	5	0	n/a	n/a	n/a	n/a	n/a
5125.66	n/a	RECOG_RESP	2562830	n/a	LTP245	ltpFR	6	8	1	IDOL	733	1	n/a	0	n/a	n/a	n/a	n/a	n/a
5126.314	n/a	RECOG_CONF	2563157	n/a	LTP245	ltpFR	6	8	1	IDOL	733	n/a	5	0	n/a	n/a	n/a	n/a	n/a
5128.03	n/a	RECOG_LURE	2564015	n/a	LTP245	ltpFR	6	8	n/a	SISTER	1312	0	4	n/a	n/a	n/a	n/a	n/a	n/a
5128.994	n/a	RECOG_RESP	2564497	n/a	LTP245	ltpFR	6	8	n/a	SISTER	1312	0	n/a	n/a	n/a	n/a	n/a	n/a	n/a
5129.796	n/a	RECOG_CONF	2564898	n/a	LTP245	ltpFR	6	8	n/a	SISTER	1312	n/a	4	n/a	n/a	n/a	n/a	n/a	n/a
5131.308	n/a	RECOG_TARGET	2565654	n/a	LTP245	ltpFR	6	8	-1	REBEL	1172	1	5	-1	n/a	n/a	n/a	n/a	n/a
5132.034	n/a	RECOG_RESP	2566017	n/a	LTP245	ltpFR	6	8	-1	REBEL	1172	1	n/a	-1	n/a	n/a	n/a	n/a	n/a
5132.602	n/a	RECOG_CONF	2566301	n/a	LTP245	ltpFR	6	8	-1	REBEL	1172	n/a	5	-1	n/a	n/a	n/a	n/a	n/a
5134.286	n/a	RECOG_TARGET	2567143	n/a	LTP245	ltpFR	6	8	0	BARLEY	88	0	1	0	n/a	n/a	n/a	n/a	n/a
5135.126	n/a	RECOG_RESP	2567563	n/a	LTP245	ltpFR	6	8	0	BARLEY	88	0	n/a	0	n/a	n/a	n/a	n/a	n/a
5135.946	n/a	RECOG_CONF	2567973	n/a	LTP245	ltpFR	6	8	0	BARLEY	88	n/a	1	0	n/a	n/a	n/a	n/a	n/a
5137.65	n/a	RECOG_TARGET	2568825	n/a	LTP245	ltpFR	6	8	1	CHEMIST	292	1	2	1	n/a	n/a	n/a	n/a	n/a
5138.37	n/a	RECOG_RESP	2569185	n/a	LTP245	ltpFR	6	8	1	CHEMIST	292	1	n/a	1	n/a	n/a	n/a	n/a	n/a
5139.166	n/a	RECOG_CONF	2569583	n/a	LTP245	ltpFR	6	8	1	CHEMIST	292	n/a	2	1	n/a	n/a	n/a	n/a	n/a
5140.894	n/a	RECOG_LURE	2570447	n/a	LTP245	ltpFR	6	8	n/a	HELMET	702	0	4	n/a	n/a	n/a	n/a	n/a	n/a
5141.68	n/a	RECOG_RESP	2570840	n/a	LTP245	ltpFR	6	8	n/a	HELMET	702	0	n/a	n/a	n/a	n/a	n/a	n/a	n/a
5142.248	n/a	RECOG_CONF	2571124	n/a	LTP245	ltpFR	6	8	n/a	HELMET	702	n/a	4	n/a	n/a	n/a	n/a	n/a	n/a
