mstime	trial_type	stim_file	subject	experiment	session	trial	task	item_name	item_num	recog_resp	recog_conf	resp	color_r	color_g	color_b	case	font
0	SESS_START	n/a	LTP230	ltpFR	3	n/a	n/a	n/a	n/a	0	2	n/a	n/a	n/a	n/a	n/a	n/a
58519	WORD	wordpools/wasnorm_wordpool_less_exclusions.txt	LTP230	ltpFR	3	1	1	HANDBAG	684	1	2	0	0.422607421875	0.5869140625	0	lower	zerothre.ttf
62415	WORD	wordpools/wasnorm_wordpool_less_exclusions.txt	LTP230	ltpFR	3	1	1	VOLUNTEER	1577	0	n/a	1	0.422607421875	0.5869140625	0	lower	zerothre.ttf
66242	WORD	wordpools/wasnorm_wordpool_less_exclusions.txt	LTP230	ltpFR	3	1	1	JUNGLE	764	n/a	n/a	0	0.422607421875	0.5869140625	0	lower	zerothre.ttf
70070	WORD	wordpools/wasnorm_wordpool_less_exclusions.txt	LTP230	ltpFR	3	1	1	WILDERNESS	1610	n/a	n/a	0	0.422607421875	0.5869140625	0	lower	zerothre.ttf
74214	WORD	wordpools/wasnorm_wordpool_less_exclusions.txt	LTP230	ltpFR	3	1	0	BUTTON	207	n/a	n/a	0	0.57763671875	0.412841796875	1	upper	amplitud.ttf
78241	WORD	wordpools/wasnorm_wordpool_less_exclusions.txt	LTP230	ltpFR	3	1	0	UMPIRE	1535	n/a	n/a	1	0.57763671875	0.412841796875	1	upper	amplitud.ttf
82168	WORD	wordpools/wasnorm_wordpool_less_exclusions.txt	LTP230	ltpFR	3	1	0	COACH	331	n/a	n/a	1	0.57763671875	0.412841796875	1	upper	amplitud.ttf
86113	WORD	wordpools/wasnorm_wordpool_less_exclusions.txt	LTP230	ltpFR	3	1	0	SLACKS	1323	n/a	n/a	0	0.57763671875	0.412841796875	1	upper	amplitud.ttf
90240	WORD	wordpools/wasnorm_wordpool_less_exclusions.txt	LTP230	ltpFR	3	1	1	JUPITER	765	n/a	n/a	0	0.422607421875	0.5869140625	0	lower	zerothre.ttf
94433	WORD	wordpools/wasnorm_wordpool_less_exclusions.txt	LTP230	ltpFR	3	1	1	FROST	609	n/a	n/a	0	0.422607421875	0.5869140625	0	lower	zerothre.ttf
98311	WORD	wordpools/wasnorm_wordpool_less_exclusions.txt	LTP230	ltpFR	3	1	1	BOY	161	n/a	n/a	1	0.422607421875	0.5869140625	0	lower	zerothre.ttf
102272	WORD	wordpools/wasnorm_wordpool_less_exclusions.txt	LTP230	ltpFR	3	1	1	DIARY	460	n/a	n/a	0	0.422607421875	0.5869140625	0	lower	zerothre.ttf
106216	WORD	wordpools/wasnorm_wordpool_less_exclusions.txt	LTP230	ltpFR	3	1	0	KNEE	784	n/a	n/a	0	0.57763671875	0.412841796875	1	upper	amplitud.ttf
110293	WORD	wordpools/wasnorm_wordpool_less_exclusions.txt	LTP230	ltpFR	3	1	0	NEPTUNE	943	n/a	n/a	1	0.57763671875	0.412841796875	1	upper	amplitud.ttf
114237	WORD	wordpools/wasnorm_wordpool_less_exclusions.txt	LTP230	ltpFR	3	1	0	LUNG	850	n/a	n/a	0	0.57763671875	0.412841796875	1	upper	amplitud.ttf
118065	WORD	wordpools/wasnorm_wordpool_less_exclusions.txt	LTP230	ltpFR	3	1	0	VENT	1556	n/a	n/a	1	0.57763671875	0.412841796875	1	upper	amplitud.ttf
124040	REC_START	n/a	LTP230	ltpFR	3	1	n/a	n/a	n/a	n/a	n/a	n/a	n/a	n/a	n/a	n/a	n/a
124409	REC_WORD_VV	wordpools/wasnorm_wordpool_less_exclusions.txt	LTP230	ltpFR	3	1	n/a	<>	-1	n/a	n/a	n/a	n/a	n/a	n/a	n/a	n/a
126619	REC_WORD	wordpools/wasnorm_wordpool_less_exclusions.txt	LTP230	ltpFR	3	1	1	VOLUNTEER	1577	n/a	n/a	1	n/a	n/a	n/a	n/a	n/a
127786	REC_WORD	wordpools/wasnorm_wordpool_less_exclusions.txt	LTP230	ltpFR	3	1	1	HANDBAG	684	n/a	n/a	0	n/a	n/a	n/a	n/a	n/a
129138	REC_WORD	wordpools/wasnorm_wordpool_less_exclusions.txt	LTP230	ltpFR	3	1	0	BUTTON	207	n/a	n/a	0	n/a	n/a	n/a	n/a	n/a
132042	REC_WORD	wordpools/wasnorm_wordpool_less_exclusions.txt	LTP230	ltpFR	3	1	0	UMPIRE	1535	n/a	n/a	1	n/a	n/a	n/a	n/a	n/a
132920	REC_WORD	wordpools/wasnorm_wordpool_less_exclusions.txt	LTP230	ltpFR	3	1	0	COACH	331	n/a	n/a	1	n/a	n/a	n/a	n/a	n/a
133818	REC_WORD	wordpools/wasnorm_wordpool_less_exclusions.txt	LTP230	ltpFR	3	1	1	BOY	161	n/a	n/a	1	n/a	n/a	n/a	n/a	n/a
137459	REC_WORD	wordpools/wasnorm_wordpool_less_exclusions.txt	LTP230	ltpFR	3	1	0	NEPTUNE	943	n/a	n/a	1	n/a	n/a	n/a	n/a	n/a
138991	REC_WORD	wordpools/wasnorm_wordpool_less_exclusions.txt	LTP230	ltpFR	3	1	1	JUPITER	765	n/a	n/a	0	n/a	n/a	n/a	n/a	n/a
142413	REC_WORD_VV	wordpools/wasnorm_wordpool_less_exclusions.txt	LTP230	ltpFR	3	1	n/a	<>	-1	n/a	n/a	n/a	n/a	n/a	n/a	n/a	n/a
153717	REC_WORD	wordpools/wasnorm_wordpool_less_exclusions.txt	LTP230	ltpFR	3	1	0	KNEE	784	n/a	n/a	0	n/a	n/a	n/a	n/a	n/a
157559	REC_WORD	wordpools/wasnorm_wordpool_less_exclusions.txt	LTP230	ltpFR	3	1	0	SLACKS	1323	n/a	n/a	0	n/a	n/a	n/a	n/a	n/a
211757	WORD	wordpools/wasnorm_wordpool_less_exclusions.txt	LTP230	ltpFR	3	2	0	TICKET	1464	n/a	n/a	0	0.57763671875	0.412841796875	1	upper	amplitud.ttf
215802	WORD	wordpools/wasnorm_wordpool_less_exclusions.txt	LTP230	ltpFR	3	2	0	AUDIENCE	59	n/a	n/a	1	0.57763671875	0.412841796875	1	upper	amplitud.ttf
219896	WORD	wordpools/wasnorm_wordpool_less_exclusions.txt	LTP230	ltpFR	3	2	0	RESTAURANT	1187	n/a	n/a	0	0.57763671875	0.412841796875	1	upper	amplitud.ttf
223873	WORD	wordpools/wasnorm_wordpool_less_exclusions.txt	LTP230	ltpFR	3	2	1	SEED	1266	n/a	n/a	0	0.422607421875	0.5869140625	0	lower	zerothre.ttf
227733	WORD	wordpools/wasnorm_wordpool_less_exclusions.txt	LTP230	ltpFR	3	2	1	ORCHID	982	n/a	n/a	1	0.422607421875	0.5869140625	0	lower	zerothre.ttf
231878	WORD	wordpools/wasnorm_wordpool_less_exclusions.txt	LTP230	ltpFR	3	2	1	REINDEER	1181	n/a	n/a	1	0.422607421875	0.5869140625	0	lower	zerothre.ttf
236055	WORD	wordpools/wasnorm_wordpool_less_exclusions.txt	LTP230	ltpFR	3	2	1	WAITRESS	1581	n/a	n/a	1	0.422607421875	0.5869140625	0	lower	zerothre.ttf
240149	WORD	wordpools/wasnorm_wordpool_less_exclusions.txt	LTP230	ltpFR	3	2	0	PILOT	1070	n/a	n/a	1	0.57763671875	0.412841796875	1	upper	amplitud.ttf
244010	WORD	wordpools/wasnorm_wordpool_less_exclusions.txt	LTP230	ltpFR	3	2	0	CONCERT	360	n/a	n/a	0	0.57763671875	0.412841796875	1	upper	amplitud.ttf
247971	WORD	wordpools/wasnorm_wordpool_less_exclusions.txt	LTP230	ltpFR	3	2	0	ASH	44	n/a	n/a	0	0.57763671875	0.412841796875	1	upper	amplitud.ttf
251898	WORD	wordpools/wasnorm_wordpool_less_exclusions.txt	LTP230	ltpFR	3	2	0	COURSE	390	n/a	n/a	1	0.57763671875	0.412841796875	1	upper	amplitud.ttf
255859	WORD	wordpools/wasnorm_wordpool_less_exclusions.txt	LTP230	ltpFR	3	2	0	BEDROOM	111	n/a	n/a	1	0.57763671875	0.412841796875	1	upper	amplitud.ttf
260053	WORD	wordpools/wasnorm_wordpool_less_exclusions.txt	LTP230	ltpFR	3	2	1	MOSQUITO	917	n/a	n/a	1	0.422607421875	0.5869140625	0	lower	zerothre.ttf
264047	WORD	wordpools/wasnorm_wordpool_less_exclusions.txt	LTP230	ltpFR	3	2	1	LITTER	832	n/a	n/a	0	0.422607421875	0.5869140625	0	lower	zerothre.ttf
268157	WORD	wordpools/wasnorm_wordpool_less_exclusions.txt	LTP230	ltpFR	3	2	1	SUPPER	1411	n/a	n/a	0	0.422607421875	0.5869140625	0	lower	zerothre.ttf
272185	WORD	wordpools/wasnorm_wordpool_less_exclusions.txt	LTP230	ltpFR	3	2	1	MARKET	871	n/a	n/a	1	0.422607421875	0.5869140625	0	lower	zerothre.ttf
277893	REC_START	n/a	LTP230	ltpFR	3	2	n/a	n/a	n/a	n/a	n/a	n/a	n/a	n/a	n/a	n/a	n/a
279100	REC_WORD_VV	wordpools/wasnorm_wordpool_less_exclusions.txt	LTP230	ltpFR	3	2	n/a	<>	-1	n/a	n/a	n/a	n/a	n/a	n/a	n/a	n/a
279619	REC_WORD	wordpools/wasnorm_wordpool_less_exclusions.txt	LTP230	ltpFR	3	2	1	MARKET	871	n/a	n/a	1	n/a	n/a	n/a	n/a	n/a
280562	REC_WORD	wordpools/wasnorm_wordpool_less_exclusions.txt	LTP230	ltpFR	3	2	0	AUDIENCE	59	n/a	n/a	1	n/a	n/a	n/a	n/a	n/a
281360	REC_WORD	wordpools/wasnorm_wordpool_less_exclusions.txt	LTP230	ltpFR	3	2	0	TICKET	1464	n/a	n/a	0	n/a	n/a	n/a	n/a	n/a
283849	REC_WORD	wordpools/wasnorm_wordpool_less_exclusions.txt	LTP230	ltpFR	3	2	0	RESTAURANT	1187	n/a	n/a	0	n/a	n/a	n/a	n/a	n/a
303105	REC_WORD	wordpools/wasnorm_wordpool_less_exclusions.txt	LTP230	ltpFR	3	2	1	MOSQUITO	917	n/a	n/a	1	n/a	n/a	n/a	n/a	n/a
384516	WORD	wordpools/wasnorm_wordpool_less_exclusions.txt	LTP230	ltpFR	3	3	1	PUPIL	1143	n/a	n/a	0	0.422607421875	0.5869140625	0	lower	zerothre.ttf
388676	WORD	wordpools/wasnorm_wordpool_less_exclusions.txt	LTP230	ltpFR	3	3	1	SUSPECT	1415	n/a	n/a	1	0.422607421875	0.5869140625	0	lower	zerothre.ttf
392821	WORD	wordpools/wasnorm_wordpool_less_exclusions.txt	LTP230	ltpFR	3	3	0	SPRINKLE	1359	n/a	n/a	0	0.57763671875	0.412841796875	1	upper	amplitud.ttf
396832	WORD	wordpools/wasnorm_wordpool_less_exclusions.txt	LTP230	ltpFR	3	3	0	JUG	762	n/a	n/a	1	0.57763671875	0.412841796875	1	upper	amplitud.ttf
400675	WORD	wordpools/wasnorm_wordpool_less_exclusions.txt	LTP230	ltpFR	3	3	0	FIREPLACE	570	n/a	n/a	1	0.57763671875	0.412841796875	1	upper	amplitud.ttf
404636	WORD	wordpools/wasnorm_wordpool_less_exclusions.txt	LTP230	ltpFR	3	3	1	BOYFRIEND	162	n/a	n/a	1	0.422607421875	0.5869140625	0	lower	zerothre.ttf
408663	WORD	wordpools/wasnorm_wordpool_less_exclusions.txt	LTP230	ltpFR	3	3	1	PIKE	1067	n/a	n/a	1	0.422607421875	0.5869140625	0	lower	zerothre.ttf
412557	WORD	wordpools/wasnorm_wordpool_less_exclusions.txt	LTP230	ltpFR	3	3	1	PORK	1108	n/a	n/a	0	0.422607421875	0.5869140625	0	lower	zerothre.ttf
416635	WORD	wordpools/wasnorm_wordpool_less_exclusions.txt	LTP230	ltpFR	3	3	1	REGISTER	1180	n/a	n/a	0	0.422607421875	0.5869140625	0	lower	zerothre.ttf
420679	WORD	wordpools/wasnorm_wordpool_less_exclusions.txt	LTP230	ltpFR	3	3	1	CASH	252	n/a	n/a	0	0.422607421875	0.5869140625	0	lower	zerothre.ttf
424623	WORD	wordpools/wasnorm_wordpool_less_exclusions.txt	LTP230	ltpFR	3	3	1	CENT	270	n/a	n/a	0	0.422607421875	0.5869140625	0	lower	zerothre.ttf
428834	WORD	wordpools/wasnorm_wordpool_less_exclusions.txt	LTP230	ltpFR	3	3	0	LIVER	833	n/a	n/a	0	0.57763671875	0.412841796875	1	upper	amplitud.ttf
432994	WORD	wordpools/wasnorm_wordpool_less_exclusions.txt	LTP230	ltpFR	3	3	0	GARDEN	623	n/a	n/a	1	0.57763671875	0.412841796875	1	upper	amplitud.ttf
437172	WORD	wordpools/wasnorm_wordpool_less_exclusions.txt	LTP230	ltpFR	3	3	0	FARMER	553	n/a	n/a	1	0.57763671875	0.412841796875	1	upper	amplitud.ttf
441182	WORD	wordpools/wasnorm_wordpool_less_exclusions.txt	LTP230	ltpFR	3	3	0	FIREMAN	569	n/a	n/a	1	0.57763671875	0.412841796875	1	upper	amplitud.ttf
445343	WORD	wordpools/wasnorm_wordpool_less_exclusions.txt	LTP230	ltpFR	3	3	0	HOOK	715	n/a	n/a	0	0.57763671875	0.412841796875	1	upper	amplitud.ttf
451251	REC_START	n/a	LTP230	ltpFR	3	3	n/a	n/a	n/a	n/a	n/a	n/a	n/a	n/a	n/a	n/a	n/a
453231	REC_WORD	wordpools/wasnorm_wordpool_less_exclusions.txt	LTP230	ltpFR	3	3	1	SUSPECT	1415	n/a	n/a	1	n/a	n/a	n/a	n/a	n/a
454184	REC_WORD	wordpools/wasnorm_wordpool_less_exclusions.txt	LTP230	ltpFR	3	3	1	PUPIL	1143	n/a	n/a	0	n/a	n/a	n/a	n/a	n/a
454897	REC_WORD	wordpools/wasnorm_wordpool_less_exclusions.txt	LTP230	ltpFR	3	3	1	PIKE	1067	n/a	n/a	1	n/a	n/a	n/a	n/a	n/a
455775	REC_WORD	wordpools/wasnorm_wordpool_less_exclusions.txt	LTP230	ltpFR	3	3	1	CASH	252	n/a	n/a	0	n/a	n/a	n/a	n/a	n/a
456599	REC_WORD	wordpools/wasnorm_wordpool_less_exclusions.txt	LTP230	ltpFR	3	3	1	CENT	270	n/a	n/a	0	n/a	n/a	n/a	n/a	n/a
459302	REC_WORD	wordpools/wasnorm_wordpool_less_exclusions.txt	LTP230	ltpFR	3	3	0	FIREMAN	569	n/a	n/a	1	n/a	n/a	n/a	n/a	n/a
460190	REC_WORD	wordpools/wasnorm_wordpool_less_exclusions.txt	LTP230	ltpFR	3	3	0	FIREPLACE	570	n/a	n/a	1	n/a	n/a	n/a	n/a	n/a
461057	REC_WORD	wordpools/wasnorm_wordpool_less_exclusions.txt	LTP230	ltpFR	3	3	0	SPRINKLE	1359	n/a	n/a	0	n/a	n/a	n/a	n/a	n/a
462206	REC_WORD	wordpools/wasnorm_wordpool_less_exclusions.txt	LTP230	ltpFR	3	3	0	JUG	762	n/a	n/a	1	n/a	n/a	n/a	n/a	n/a
462889	REC_WORD	wordpools/wasnorm_wordpool_less_exclusions.txt	LTP230	ltpFR	3	3	0	FARMER	553	n/a	n/a	1	n/a	n/a	n/a	n/a	n/a
481003	REC_WORD	wordpools/wasnorm_wordpool_less_exclusions.txt	LTP230	ltpFR	3	3	0	HOOK	715	n/a	n/a	0	n/a	n/a	n/a	n/a	n/a
557941	WORD	wordpools/wasnorm_wordpool_less_exclusions.txt	LTP230	ltpFR	3	4	1	JELLY	755	n/a	n/a	0	0.422607421875	0.5869140625	0	lower	zerothre.ttf
562052	WORD	wordpools/wasnorm_wordpool_less_exclusions.txt	LTP230	ltpFR	3	4	1	CONSUMER	365	n/a	n/a	1	0.422607421875	0.5869140625	0	lower	zerothre.ttf
565979	WORD	wordpools/wasnorm_wordpool_less_exclusions.txt	LTP230	ltpFR	3	4	1	COD	340	n/a	n/a	0	0.422607421875	0.5869140625	0	lower	zerothre.ttf
570156	WORD	wordpools/wasnorm_wordpool_less_exclusions.txt	LTP230	ltpFR	3	4	1	ROCKET	1202	n/a	n/a	0	0.422607421875	0.5869140625	0	lower	zerothre.ttf
574034	WORD	wordpools/wasnorm_wordpool_less_exclusions.txt	LTP230	ltpFR	3	4	1	ATTIRE	57	n/a	n/a	0	0.422607421875	0.5869140625	0	lower	zerothre.ttf
577978	WORD	wordpools/wasnorm_wordpool_less_exclusions.txt	LTP230	ltpFR	3	4	1	HANGER	687	n/a	n/a	0	0.422607421875	0.5869140625	0	lower	zerothre.ttf
582188	WORD	wordpools/wasnorm_wordpool_less_exclusions.txt	LTP230	ltpFR	3	4	1	MERMAID	887	n/a	n/a	1	0.422607421875	0.5869140625	0	lower	zerothre.ttf
586166	WORD	wordpools/wasnorm_wordpool_less_exclusions.txt	LTP230	ltpFR	3	4	1	WRITER	1627	n/a	n/a	1	0.422607421875	0.5869140625	0	lower	zerothre.ttf
590193	WORD	wordpools/wasnorm_wordpool_less_exclusions.txt	LTP230	ltpFR	3	4	1	TREAD	1499	n/a	n/a	0	0.422607421875	0.5869140625	0	lower	zerothre.ttf
594304	WORD	wordpools/wasnorm_wordpool_less_exclusions.txt	LTP230	ltpFR	3	4	1	POLYESTER	1100	n/a	n/a	0	0.422607421875	0.5869140625	0	lower	zerothre.ttf
598281	WORD	wordpools/wasnorm_wordpool_less_exclusions.txt	LTP230	ltpFR	3	4	1	WASHER	1592	n/a	n/a	0	0.422607421875	0.5869140625	0	lower	zerothre.ttf
602109	WORD	wordpools/wasnorm_wordpool_less_exclusions.txt	LTP230	ltpFR	3	4	1	CLIMBER	323	n/a	n/a	1	0.422607421875	0.5869140625	0	lower	zerothre.ttf
605986	WORD	wordpools/wasnorm_wordpool_less_exclusions.txt	LTP230	ltpFR	3	4	1	SWAMP	1416	n/a	n/a	0	0.422607421875	0.5869140625	0	lower	zerothre.ttf
609880	WORD	wordpools/wasnorm_wordpool_less_exclusions.txt	LTP230	ltpFR	3	4	1	CRATER	400	n/a	n/a	0	0.422607421875	0.5869140625	0	lower	zerothre.ttf
613757	WORD	wordpools/wasnorm_wordpool_less_exclusions.txt	LTP230	ltpFR	3	4	1	BOULDER	155	n/a	n/a	0	0.422607421875	0.5869140625	0	lower	zerothre.ttf
617584	WORD	wordpools/wasnorm_wordpool_less_exclusions.txt	LTP230	ltpFR	3	4	1	MATCH	878	n/a	n/a	0	0.422607421875	0.5869140625	0	lower	zerothre.ttf
623659	REC_START	n/a	LTP230	ltpFR	3	4	n/a	n/a	n/a	n/a	n/a	n/a	n/a	n/a	n/a	n/a	n/a
626562	REC_WORD	wordpools/wasnorm_wordpool_less_exclusions.txt	LTP230	ltpFR	3	4	1	CONSUMER	365	n/a	n/a	1	n/a	n/a	n/a	n/a	n/a
627570	REC_WORD	wordpools/wasnorm_wordpool_less_exclusions.txt	LTP230	ltpFR	3	4	1	JELLY	755	n/a	n/a	0	n/a	n/a	n/a	n/a	n/a
628323	REC_WORD	wordpools/wasnorm_wordpool_less_exclusions.txt	LTP230	ltpFR	3	4	1	COD	340	n/a	n/a	0	n/a	n/a	n/a	n/a	n/a
629046	REC_WORD	wordpools/wasnorm_wordpool_less_exclusions.txt	LTP230	ltpFR	3	4	1	MERMAID	887	n/a	n/a	1	n/a	n/a	n/a	n/a	n/a
629765	REC_WORD	wordpools/wasnorm_wordpool_less_exclusions.txt	LTP230	ltpFR	3	4	1	WRITER	1627	n/a	n/a	1	n/a	n/a	n/a	n/a	n/a
630403	REC_WORD	wordpools/wasnorm_wordpool_less_exclusions.txt	LTP230	ltpFR	3	4	1	POLYESTER	1100	n/a	n/a	0	n/a	n/a	n/a	n/a	n/a
633686	REC_WORD	wordpools/wasnorm_wordpool_less_exclusions.txt	LTP230	ltpFR	3	4	1	TREAD	1499	n/a	n/a	0	n/a	n/a	n/a	n/a	n/a
634459	REC_WORD	wordpools/wasnorm_wordpool_less_exclusions.txt	LTP230	ltpFR	3	4	1	SWAMP	1416	n/a	n/a	0	n/a	n/a	n/a	n/a	n/a
635247	REC_WORD	wordpools/wasnorm_wordpool_less_exclusions.txt	LTP230	ltpFR	3	4	1	CRATER	400	n/a	n/a	0	n/a	n/a	n/a	n/a	n/a
636016	REC_WORD	wordpools/wasnorm_wordpool_less_exclusions.txt	LTP230	ltpFR	3	4	1	BOULDER	155	n/a	n/a	0	n/a	n/a	n/a	n/a	n/a
728054	WORD	wordpools/wasnorm_wordpool_less_exclusions.txt	LTP230	ltpFR	3	5	1	WINDSHIELD	1612	n/a	n/a	0	0.422607421875	0.5869140625	0	lower	zerothre.ttf
731898	WORD	wordpools/wasnorm_wordpool_less_exclusions.txt	LTP230	ltpFR	3	5	1	DRIVER	499	n/a	n/a	1	0.422607421875	0.5869140625	0	lower	zerothre.ttf
735875	WORD	wordpools/wasnorm_wordpool_less_exclusions.txt	LTP230	ltpFR	3	5	0	DINNER	468	n/a	n/a	0	0.57763671875	0.412841796875	1	upper	amplitud.ttf
739986	WORD	wordpools/wasnorm_wordpool_less_exclusions.txt	LTP230	ltpFR	3	5	0	TANGERINE	1431	n/a	n/a	0	0.57763671875	0.412841796875	1	upper	amplitud.ttf
743930	WORD	wordpools/wasnorm_wordpool_less_exclusions.txt	LTP230	ltpFR	3	5	0	BAY	102	n/a	n/a	1	0.57763671875	0.412841796875	1	upper	amplitud.ttf
748090	WORD	wordpools/wasnorm_wordpool_less_exclusions.txt	LTP230	ltpFR	3	5	0	TEAPOT	1442	n/a	n/a	0	0.57763671875	0.412841796875	1	upper	amplitud.ttf
752134	WORD	wordpools/wasnorm_wordpool_less_exclusions.txt	LTP230	ltpFR	3	5	1	HERB	704	n/a	n/a	0	0.422607421875	0.5869140625	0	lower	zerothre.ttf
756128	WORD	wordpools/wasnorm_wordpool_less_exclusions.txt	LTP230	ltpFR	3	5	1	ZUCCHINI	1638	n/a	n/a	0	0.422607421875	0.5869140625	0	lower	zerothre.ttf
760089	WORD	wordpools/wasnorm_wordpool_less_exclusions.txt	LTP230	ltpFR	3	5	0	LEOPARD	812	n/a	n/a	1	0.57763671875	0.412841796875	1	upper	amplitud.ttf
764100	WORD	wordpools/wasnorm_wordpool_less_exclusions.txt	LTP230	ltpFR	3	5	0	OTTER	986	n/a	n/a	1	0.57763671875	0.412841796875	1	upper	amplitud.ttf
768027	WORD	wordpools/wasnorm_wordpool_less_exclusions.txt	LTP230	ltpFR	3	5	0	FARM	552	n/a	n/a	1	0.57763671875	0.412841796875	1	upper	amplitud.ttf
771938	WORD	wordpools/wasnorm_wordpool_less_exclusions.txt	LTP230	ltpFR	3	5	0	CRACKER	398	n/a	n/a	0	0.57763671875	0.412841796875	1	upper	amplitud.ttf
776132	WORD	wordpools/wasnorm_wordpool_less_exclusions.txt	LTP230	ltpFR	3	5	1	ACTOR	5	n/a	n/a	3	0.422607421875	0.5869140625	0	lower	zerothre.ttf
778229	KEY_MSG	n/a	LTP230	ltpFR	3	5	n/a	n/a	n/a	n/a	n/a	n/a	n/a	n/a	n/a	n/a	n/a
780724	WORD	wordpools/wasnorm_wordpool_less_exclusions.txt	LTP230	ltpFR	3	5	1	OREGANO	983	n/a	n/a	0	0.422607421875	0.5869140625	0	lower	zerothre.ttf
784568	WORD	wordpools/wasnorm_wordpool_less_exclusions.txt	LTP230	ltpFR	3	5	1	RICE	1190	n/a	n/a	0	0.422607421875	0.5869140625	0	lower	zerothre.ttf
788729	WORD	wordpools/wasnorm_wordpool_less_exclusions.txt	LTP230	ltpFR	3	5	1	RADIATOR	1156	n/a	n/a	3	0.422607421875	0.5869140625	0	lower	zerothre.ttf
790277	KEY_MSG	n/a	LTP230	ltpFR	3	5	n/a	n/a	n/a	n/a	n/a	n/a	n/a	n/a	n/a	n/a	n/a
794521	REC_START	n/a	LTP230	ltpFR	3	5	n/a	n/a	n/a	n/a	n/a	n/a	n/a	n/a	n/a	n/a	n/a
796636	REC_WORD	wordpools/wasnorm_wordpool_less_exclusions.txt	LTP230	ltpFR	3	5	1	RADIATOR	1156	n/a	n/a	3	n/a	n/a	n/a	n/a	n/a
797361	REC_WORD	wordpools/wasnorm_wordpool_less_exclusions.txt	LTP230	ltpFR	3	5	1	ACTOR	5	n/a	n/a	3	n/a	n/a	n/a	n/a	n/a
798332	REC_WORD	wordpools/wasnorm_wordpool_less_exclusions.txt	LTP230	ltpFR	3	5	1	DRIVER	499	n/a	n/a	1	n/a	n/a	n/a	n/a	n/a
798916	REC_WORD	wordpools/wasnorm_wordpool_less_exclusions.txt	LTP230	ltpFR	3	5	1	WINDSHIELD	1612	n/a	n/a	0	n/a	n/a	n/a	n/a	n/a
802393	REC_WORD	wordpools/wasnorm_wordpool_less_exclusions.txt	LTP230	ltpFR	3	5	0	DINNER	468	n/a	n/a	0	n/a	n/a	n/a	n/a	n/a
803091	REC_WORD	wordpools/wasnorm_wordpool_less_exclusions.txt	LTP230	ltpFR	3	5	0	TANGERINE	1431	n/a	n/a	0	n/a	n/a	n/a	n/a	n/a
804184	REC_WORD	wordpools/wasnorm_wordpool_less_exclusions.txt	LTP230	ltpFR	3	5	0	BAY	102	n/a	n/a	1	n/a	n/a	n/a	n/a	n/a
807930	REC_WORD	wordpools/wasnorm_wordpool_less_exclusions.txt	LTP230	ltpFR	3	5	1	ZUCCHINI	1638	n/a	n/a	0	n/a	n/a	n/a	n/a	n/a
813448	REC_WORD	wordpools/wasnorm_wordpool_less_exclusions.txt	LTP230	ltpFR	3	5	1	HERB	704	n/a	n/a	0	n/a	n/a	n/a	n/a	n/a
814395	REC_WORD	wordpools/wasnorm_wordpool_less_exclusions.txt	LTP230	ltpFR	3	5	0	TEAPOT	1442	n/a	n/a	0	n/a	n/a	n/a	n/a	n/a
817379	REC_WORD	wordpools/wasnorm_wordpool_less_exclusions.txt	LTP230	ltpFR	3	5	1	OREGANO	983	n/a	n/a	0	n/a	n/a	n/a	n/a	n/a
821923	REC_WORD	wordpools/wasnorm_wordpool_less_exclusions.txt	LTP230	ltpFR	3	5	0	LEOPARD	812	n/a	n/a	1	n/a	n/a	n/a	n/a	n/a
822781	REC_WORD	wordpools/wasnorm_wordpool_less_exclusions.txt	LTP230	ltpFR	3	5	0	FARM	552	n/a	n/a	1	n/a	n/a	n/a	n/a	n/a
824517	REC_WORD	wordpools/wasnorm_wordpool_less_exclusions.txt	LTP230	ltpFR	3	5	0	OTTER	986	n/a	n/a	1	n/a	n/a	n/a	n/a	n/a
885951	WORD	wordpools/wasnorm_wordpool_less_exclusions.txt	LTP230	ltpFR	3	6	1	ROPE	1211	n/a	n/a	0	0.422607421875	0.5869140625	0	lower	zerothre.ttf
889879	WORD	wordpools/wasnorm_wordpool_less_exclusions.txt	LTP230	ltpFR	3	6	1	SURF	1412	n/a	n/a	0	0.422607421875	0.5869140625	0	lower	zerothre.ttf
893839	WORD	wordpools/wasnorm_wordpool_less_exclusions.txt	LTP230	ltpFR	3	6	1	CHESS	294	n/a	n/a	0	0.422607421875	0.5869140625	0	lower	zerothre.ttf
897950	WORD	wordpools/wasnorm_wordpool_less_exclusions.txt	LTP230	ltpFR	3	6	1	KING	777	n/a	n/a	1	0.422607421875	0.5869140625	0	lower	zerothre.ttf
901994	WORD	wordpools/wasnorm_wordpool_less_exclusions.txt	LTP230	ltpFR	3	6	1	LADY	794	n/a	n/a	1	0.422607421875	0.5869140625	0	lower	zerothre.ttf
906171	WORD	wordpools/wasnorm_wordpool_less_exclusions.txt	LTP230	ltpFR	3	6	1	BOXER	160	n/a	n/a	1	0.422607421875	0.5869140625	0	lower	zerothre.ttf
910381	WORD	wordpools/wasnorm_wordpool_less_exclusions.txt	LTP230	ltpFR	3	6	1	CHISEL	305	n/a	n/a	0	0.422607421875	0.5869140625	0	lower	zerothre.ttf
914425	WORD	wordpools/wasnorm_wordpool_less_exclusions.txt	LTP230	ltpFR	3	6	1	CITY	314	n/a	n/a	0	0.422607421875	0.5869140625	0	lower	zerothre.ttf
918253	WORD	wordpools/wasnorm_wordpool_less_exclusions.txt	LTP230	ltpFR	3	6	1	COUNTY	389	n/a	n/a	0	0.422607421875	0.5869140625	0	lower	zerothre.ttf
922114	WORD	wordpools/wasnorm_wordpool_less_exclusions.txt	LTP230	ltpFR	3	6	1	STAPLE	1371	n/a	n/a	0	0.422607421875	0.5869140625	0	lower	zerothre.ttf
926224	WORD	wordpools/wasnorm_wordpool_less_exclusions.txt	LTP230	ltpFR	3	6	1	PIRATE	1074	n/a	n/a	1	0.422607421875	0.5869140625	0	lower	zerothre.ttf
930119	WORD	wordpools/wasnorm_wordpool_less_exclusions.txt	LTP230	ltpFR	3	6	1	RAFT	1159	n/a	n/a	1	0.422607421875	0.5869140625	0	lower	zerothre.ttf
934262	WORD	wordpools/wasnorm_wordpool_less_exclusions.txt	LTP230	ltpFR	3	6	1	MOAT	903	n/a	n/a	0	0.422607421875	0.5869140625	0	lower	zerothre.ttf
938240	WORD	wordpools/wasnorm_wordpool_less_exclusions.txt	LTP230	ltpFR	3	6	1	MISTER	901	n/a	n/a	1	0.422607421875	0.5869140625	0	lower	zerothre.ttf
942450	WORD	wordpools/wasnorm_wordpool_less_exclusions.txt	LTP230	ltpFR	3	6	1	FLEA	577	n/a	n/a	1	0.422607421875	0.5869140625	0	lower	zerothre.ttf
946493	WORD	wordpools/wasnorm_wordpool_less_exclusions.txt	LTP230	ltpFR	3	6	1	TRIGGER	1507	n/a	n/a	0	0.422607421875	0.5869140625	0	lower	zerothre.ttf
952501	REC_START	n/a	LTP230	ltpFR	3	6	n/a	n/a	n/a	n/a	n/a	n/a	n/a	n/a	n/a	n/a	n/a
955484	REC_WORD	wordpools/wasnorm_wordpool_less_exclusions.txt	LTP230	ltpFR	3	6	1	KING	777	n/a	n/a	1	n/a	n/a	n/a	n/a	n/a
956202	REC_WORD	wordpools/wasnorm_wordpool_less_exclusions.txt	LTP230	ltpFR	3	6	1	LADY	794	n/a	n/a	1	n/a	n/a	n/a	n/a	n/a
956836	REC_WORD	wordpools/wasnorm_wordpool_less_exclusions.txt	LTP230	ltpFR	3	6	1	SURF	1412	n/a	n/a	0	n/a	n/a	n/a	n/a	n/a
957848	REC_WORD	wordpools/wasnorm_wordpool_less_exclusions.txt	LTP230	ltpFR	3	6	1	ROPE	1211	n/a	n/a	0	n/a	n/a	n/a	n/a	n/a
958776	REC_WORD	wordpools/wasnorm_wordpool_less_exclusions.txt	LTP230	ltpFR	3	6	1	CHISEL	305	n/a	n/a	0	n/a	n/a	n/a	n/a	n/a
959694	REC_WORD	wordpools/wasnorm_wordpool_less_exclusions.txt	LTP230	ltpFR	3	6	1	BOXER	160	n/a	n/a	1	n/a	n/a	n/a	n/a	n/a
962029	REC_WORD	wordpools/wasnorm_wordpool_less_exclusions.txt	LTP230	ltpFR	3	6	1	MOAT	903	n/a	n/a	0	n/a	n/a	n/a	n/a	n/a
962987	REC_WORD	wordpools/wasnorm_wordpool_less_exclusions.txt	LTP230	ltpFR	3	6	1	PIRATE	1074	n/a	n/a	1	n/a	n/a	n/a	n/a	n/a
963860	REC_WORD	wordpools/wasnorm_wordpool_less_exclusions.txt	LTP230	ltpFR	3	6	1	RAFT	1159	n/a	n/a	1	n/a	n/a	n/a	n/a	n/a
975503	REC_WORD	wordpools/wasnorm_wordpool_less_exclusions.txt	LTP230	ltpFR	3	6	1	CITY	314	n/a	n/a	0	n/a	n/a	n/a	n/a	n/a
976586	REC_WORD	wordpools/wasnorm_wordpool_less_exclusions.txt	LTP230	ltpFR	3	6	1	COUNTY	389	n/a	n/a	0	n/a	n/a	n/a	n/a	n/a
1040354	WORD	wordpools/wasnorm_wordpool_less_exclusions.txt	LTP230	ltpFR	3	7	-1	PLAID	1080	n/a	n/a	-1	1.0	1.0	1	upper	Verdana.ttf
1044381	WORD	wordpools/wasnorm_wordpool_less_exclusions.txt	LTP230	ltpFR	3	7	-1	MILK	895	n/a	n/a	-1	1.0	1.0	1	upper	Verdana.ttf
1048209	WORD	wordpools/wasnorm_wordpool_less_exclusions.txt	LTP230	ltpFR	3	7	-1	GRAPE	654	n/a	n/a	-1	1.0	1.0	1	upper	Verdana.ttf
1052103	WORD	wordpools/wasnorm_wordpool_less_exclusions.txt	LTP230	ltpFR	3	7	-1	AFRICA	9	n/a	n/a	-1	1.0	1.0	1	upper	Verdana.ttf
1056130	WORD	wordpools/wasnorm_wordpool_less_exclusions.txt	LTP230	ltpFR	3	7	-1	SOFA	1342	n/a	n/a	-1	1.0	1.0	1	upper	Verdana.ttf
1059991	WORD	wordpools/wasnorm_wordpool_less_exclusions.txt	LTP230	ltpFR	3	7	-1	NUCLEUS	961	n/a	n/a	-1	1.0	1.0	1	upper	Verdana.ttf
1063919	WORD	wordpools/wasnorm_wordpool_less_exclusions.txt	LTP230	ltpFR	3	7	-1	BEARD	107	n/a	n/a	-1	1.0	1.0	1	upper	Verdana.ttf
1067846	WORD	wordpools/wasnorm_wordpool_less_exclusions.txt	LTP230	ltpFR	3	7	-1	BLADE	134	n/a	n/a	-1	1.0	1.0	1	upper	Verdana.ttf
1071890	WORD	wordpools/wasnorm_wordpool_less_exclusions.txt	LTP230	ltpFR	3	7	-1	RADISH	1158	n/a	n/a	-1	1.0	1.0	1	upper	Verdana.ttf
1076101	WORD	wordpools/wasnorm_wordpool_less_exclusions.txt	LTP230	ltpFR	3	7	-1	RAISIN	1163	n/a	n/a	-1	1.0	1.0	1	upper	Verdana.ttf
1080111	WORD	wordpools/wasnorm_wordpool_less_exclusions.txt	LTP230	ltpFR	3	7	-1	CARNIVAL	245	n/a	n/a	-1	1.0	1.0	1	upper	Verdana.ttf
1084005	WORD	wordpools/wasnorm_wordpool_less_exclusions.txt	LTP230	ltpFR	3	7	-1	CARTON	251	n/a	n/a	-1	1.0	1.0	1	upper	Verdana.ttf
1087833	WORD	wordpools/wasnorm_wordpool_less_exclusions.txt	LTP230	ltpFR	3	7	-1	COUNTRY	388	n/a	n/a	-1	1.0	1.0	1	upper	Verdana.ttf
1091827	WORD	wordpools/wasnorm_wordpool_less_exclusions.txt	LTP230	ltpFR	3	7	-1	SUBURB	1399	n/a	n/a	-1	1.0	1.0	1	upper	Verdana.ttf
1095888	WORD	wordpools/wasnorm_wordpool_less_exclusions.txt	LTP230	ltpFR	3	7	-1	BIRD	129	n/a	n/a	-1	1.0	1.0	1	upper	Verdana.ttf
1099848	WORD	wordpools/wasnorm_wordpool_less_exclusions.txt	LTP230	ltpFR	3	7	-1	BLUEJAY	141	n/a	n/a	-1	1.0	1.0	1	upper	Verdana.ttf
1105756	REC_START	n/a	LTP230	ltpFR	3	7	n/a	n/a	n/a	n/a	n/a	n/a	n/a	n/a	n/a	n/a	n/a
1109118	REC_WORD	wordpools/wasnorm_wordpool_less_exclusions.txt	LTP230	ltpFR	3	7	-1	CARTON	251	n/a	n/a	-1	n/a	n/a	n/a	n/a	n/a
1112435	REC_WORD	wordpools/wasnorm_wordpool_less_exclusions.txt	LTP230	ltpFR	3	7	-1	PLAID	1080	n/a	n/a	-1	n/a	n/a	n/a	n/a	n/a
1114097	REC_WORD	wordpools/wasnorm_wordpool_less_exclusions.txt	LTP230	ltpFR	3	7	-1	MILK	895	n/a	n/a	-1	n/a	n/a	n/a	n/a	n/a
1115000	REC_WORD	wordpools/wasnorm_wordpool_less_exclusions.txt	LTP230	ltpFR	3	7	-1	GRAPE	654	n/a	n/a	-1	n/a	n/a	n/a	n/a	n/a
1200049	WORD	wordpools/wasnorm_wordpool_less_exclusions.txt	LTP230	ltpFR	3	8	1	MAP	865	n/a	n/a	0	0.422607421875	0.5869140625	0	lower	zerothre.ttf
1204026	WORD	wordpools/wasnorm_wordpool_less_exclusions.txt	LTP230	ltpFR	3	8	1	WITNESS	1618	n/a	n/a	1	0.422607421875	0.5869140625	0	lower	zerothre.ttf
1208053	WORD	wordpools/wasnorm_wordpool_less_exclusions.txt	LTP230	ltpFR	3	8	1	TRUCK	1512	n/a	n/a	0	0.422607421875	0.5869140625	0	lower	zerothre.ttf
1211931	WORD	wordpools/wasnorm_wordpool_less_exclusions.txt	LTP230	ltpFR	3	8	1	CONSOLE	364	n/a	n/a	0	0.422607421875	0.5869140625	0	lower	zerothre.ttf
1216108	WORD	wordpools/wasnorm_wordpool_less_exclusions.txt	LTP230	ltpFR	3	8	1	BUTTERFLY	206	n/a	n/a	1	0.422607421875	0.5869140625	0	lower	zerothre.ttf
1220152	WORD	wordpools/wasnorm_wordpool_less_exclusions.txt	LTP230	ltpFR	3	8	1	CRICKET	408	n/a	n/a	0	0.422607421875	0.5869140625	0	lower	zerothre.ttf
1224362	WORD	wordpools/wasnorm_wordpool_less_exclusions.txt	LTP230	ltpFR	3	8	1	NUT	965	n/a	n/a	0	0.422607421875	0.5869140625	0	lower	zerothre.ttf
1228588	WORD	wordpools/wasnorm_wordpool_less_exclusions.txt	LTP230	ltpFR	3	8	1	GRASS	655	n/a	n/a	0	0.422607421875	0.5869140625	0	lower	zerothre.ttf
1232766	WORD	wordpools/wasnorm_wordpool_less_exclusions.txt	LTP230	ltpFR	3	8	1	JOINT	758	n/a	n/a	0	0.422607421875	0.5869140625	0	lower	zerothre.ttf
1236610	WORD	wordpools/wasnorm_wordpool_less_exclusions.txt	LTP230	ltpFR	3	8	1	SARDINE	1235	n/a	n/a	0	0.422607421875	0.5869140625	0	lower	zerothre.ttf
1240504	WORD	wordpools/wasnorm_wordpool_less_exclusions.txt	LTP230	ltpFR	3	8	1	ATTORNEY	58	n/a	n/a	1	0.422607421875	0.5869140625	0	lower	zerothre.ttf
1244664	WORD	wordpools/wasnorm_wordpool_less_exclusions.txt	LTP230	ltpFR	3	8	1	GALLON	618	n/a	n/a	0	0.422607421875	0.5869140625	0	lower	zerothre.ttf
1248708	WORD	wordpools/wasnorm_wordpool_less_exclusions.txt	LTP230	ltpFR	3	8	1	LIPSTICK	829	n/a	n/a	0	0.422607421875	0.5869140625	0	lower	zerothre.ttf
1252586	WORD	wordpools/wasnorm_wordpool_less_exclusions.txt	LTP230	ltpFR	3	8	1	VELVET	1555	n/a	n/a	0	0.422607421875	0.5869140625	0	lower	zerothre.ttf
1256746	WORD	wordpools/wasnorm_wordpool_less_exclusions.txt	LTP230	ltpFR	3	8	1	SHELF	1280	n/a	n/a	0	0.422607421875	0.5869140625	0	lower	zerothre.ttf
1260574	WORD	wordpools/wasnorm_wordpool_less_exclusions.txt	LTP230	ltpFR	3	8	1	SCENERY	1247	n/a	n/a	0	0.422607421875	0.5869140625	0	lower	zerothre.ttf
1266367	REC_START	n/a	LTP230	ltpFR	3	8	n/a	n/a	n/a	n/a	n/a	n/a	n/a	n/a	n/a	n/a	n/a
1268981	REC_WORD	wordpools/wasnorm_wordpool_less_exclusions.txt	LTP230	ltpFR	3	8	1	SCENERY	1247	n/a	n/a	0	n/a	n/a	n/a	n/a	n/a
1270233	REC_WORD	wordpools/wasnorm_wordpool_less_exclusions.txt	LTP230	ltpFR	3	8	1	ATTORNEY	58	n/a	n/a	1	n/a	n/a	n/a	n/a	n/a
1272413	REC_WORD	wordpools/wasnorm_wordpool_less_exclusions.txt	LTP230	ltpFR	3	8	1	GALLON	618	n/a	n/a	0	n/a	n/a	n/a	n/a	n/a
1273415	REC_WORD	wordpools/wasnorm_wordpool_less_exclusions.txt	LTP230	ltpFR	3	8	1	BUTTERFLY	206	n/a	n/a	1	n/a	n/a	n/a	n/a	n/a
1277915	REC_WORD	wordpools/wasnorm_wordpool_less_exclusions.txt	LTP230	ltpFR	3	8	1	LIPSTICK	829	n/a	n/a	0	n/a	n/a	n/a	n/a	n/a
1357779	WORD	wordpools/wasnorm_wordpool_less_exclusions.txt	LTP230	ltpFR	3	9	0	OATS	968	n/a	n/a	0	0.57763671875	0.412841796875	1	upper	amplitud.ttf
1361773	WORD	wordpools/wasnorm_wordpool_less_exclusions.txt	LTP230	ltpFR	3	9	0	CHIP	303	n/a	n/a	0	0.57763671875	0.412841796875	1	upper	amplitud.ttf
1365801	WORD	wordpools/wasnorm_wordpool_less_exclusions.txt	LTP230	ltpFR	3	9	0	LABYRINTH	791	n/a	n/a	1	0.57763671875	0.412841796875	1	upper	amplitud.ttf
1369644	WORD	wordpools/wasnorm_wordpool_less_exclusions.txt	LTP230	ltpFR	3	9	0	MOUSE	925	n/a	n/a	0	0.57763671875	0.412841796875	1	upper	amplitud.ttf
1373622	WORD	wordpools/wasnorm_wordpool_less_exclusions.txt	LTP230	ltpFR	3	9	1	INCENSE	735	n/a	n/a	0	0.422607421875	0.5869140625	0	lower	zerothre.ttf
1377466	WORD	wordpools/wasnorm_wordpool_less_exclusions.txt	LTP230	ltpFR	3	9	1	SENATOR	1268	n/a	n/a	1	0.422607421875	0.5869140625	0	lower	zerothre.ttf
1381627	WORD	wordpools/wasnorm_wordpool_less_exclusions.txt	LTP230	ltpFR	3	9	1	BROOM	178	n/a	n/a	0	0.422607421875	0.5869140625	0	lower	zerothre.ttf
1385654	WORD	wordpools/wasnorm_wordpool_less_exclusions.txt	LTP230	ltpFR	3	9	1	VETERAN	1561	n/a	n/a	1	0.422607421875	0.5869140625	0	lower	zerothre.ttf
1389715	WORD	wordpools/wasnorm_wordpool_less_exclusions.txt	LTP230	ltpFR	3	9	1	CONE	363	n/a	n/a	0	0.422607421875	0.5869140625	0	lower	zerothre.ttf
1393609	WORD	wordpools/wasnorm_wordpool_less_exclusions.txt	LTP230	ltpFR	3	9	1	WAGON	1578	n/a	n/a	0	0.422607421875	0.5869140625	0	lower	zerothre.ttf
1397653	WORD	wordpools/wasnorm_wordpool_less_exclusions.txt	LTP230	ltpFR	3	9	0	RAKE	1164	n/a	n/a	0	0.57763671875	0.412841796875	1	upper	amplitud.ttf
1401514	WORD	wordpools/wasnorm_wordpool_less_exclusions.txt	LTP230	ltpFR	3	9	0	DEODORANT	448	n/a	n/a	0	0.57763671875	0.412841796875	1	upper	amplitud.ttf
1405508	WORD	wordpools/wasnorm_wordpool_less_exclusions.txt	LTP230	ltpFR	3	9	0	SHRIMP	1297	n/a	n/a	0	0.57763671875	0.412841796875	1	upper	amplitud.ttf
1409568	WORD	wordpools/wasnorm_wordpool_less_exclusions.txt	LTP230	ltpFR	3	9	0	APRON	35	n/a	n/a	1	0.57763671875	0.412841796875	1	upper	amplitud.ttf
1413479	WORD	wordpools/wasnorm_wordpool_less_exclusions.txt	LTP230	ltpFR	3	9	1	PREACHER	1119	n/a	n/a	1	0.422607421875	0.5869140625	0	lower	zerothre.ttf
1417689	WORD	wordpools/wasnorm_wordpool_less_exclusions.txt	LTP230	ltpFR	3	9	1	FRIAR	605	n/a	n/a	1	0.422607421875	0.5869140625	0	lower	zerothre.ttf
1423416	REC_START	n/a	LTP230	ltpFR	3	9	n/a	n/a	n/a	n/a	n/a	n/a	n/a	n/a	n/a	n/a	n/a
1424374	REC_WORD	wordpools/wasnorm_wordpool_less_exclusions.txt	LTP230	ltpFR	3	9	1	PREACHER	1119	n/a	n/a	1	n/a	n/a	n/a	n/a	n/a
1425057	REC_WORD	wordpools/wasnorm_wordpool_less_exclusions.txt	LTP230	ltpFR	3	9	1	FRIAR	605	n/a	n/a	1	n/a	n/a	n/a	n/a	n/a
1426369	REC_WORD	wordpools/wasnorm_wordpool_less_exclusions.txt	LTP230	ltpFR	3	9	0	OATS	968	n/a	n/a	0	n/a	n/a	n/a	n/a	n/a
1428389	REC_WORD	wordpools/wasnorm_wordpool_less_exclusions.txt	LTP230	ltpFR	3	9	0	MOUSE	925	n/a	n/a	0	n/a	n/a	n/a	n/a	n/a
1430420	REC_WORD	wordpools/wasnorm_wordpool_less_exclusions.txt	LTP230	ltpFR	3	9	0	LABYRINTH	791	n/a	n/a	1	n/a	n/a	n/a	n/a	n/a
1431497	REC_WORD	wordpools/wasnorm_wordpool_less_exclusions.txt	LTP230	ltpFR	3	9	0	CHIP	303	n/a	n/a	0	n/a	n/a	n/a	n/a	n/a
1479378	REC_WORD	wordpools/wasnorm_wordpool_less_exclusions.txt	LTP230	ltpFR	3	9	1	ATTORNEY	58	n/a	n/a	1	n/a	n/a	n/a	n/a	n/a
1514313	WORD	wordpools/wasnorm_wordpool_less_exclusions.txt	LTP230	ltpFR	3	10	0	SWORD	1423	n/a	n/a	0	0.57763671875	0.412841796875	1	upper	amplitud.ttf
1518505	WORD	wordpools/wasnorm_wordpool_less_exclusions.txt	LTP230	ltpFR	3	10	0	MEADOW	881	n/a	n/a	1	0.57763671875	0.412841796875	1	upper	amplitud.ttf
1522633	WORD	wordpools/wasnorm_wordpool_less_exclusions.txt	LTP230	ltpFR	3	10	0	BULL	193	n/a	n/a	1	0.57763671875	0.412841796875	1	upper	amplitud.ttf
1526844	WORD	wordpools/wasnorm_wordpool_less_exclusions.txt	LTP230	ltpFR	3	10	0	THESAURUS	1454	n/a	n/a	1	0.57763671875	0.412841796875	1	upper	amplitud.ttf
1530788	WORD	wordpools/wasnorm_wordpool_less_exclusions.txt	LTP230	ltpFR	3	10	0	CANOE	233	n/a	n/a	1	0.57763671875	0.412841796875	1	upper	amplitud.ttf
1534681	WORD	wordpools/wasnorm_wordpool_less_exclusions.txt	LTP230	ltpFR	3	10	0	TOE	1473	n/a	n/a	0	0.57763671875	0.412841796875	1	upper	amplitud.ttf
1538793	WORD	wordpools/wasnorm_wordpool_less_exclusions.txt	LTP230	ltpFR	3	10	0	LEAF	808	n/a	n/a	0	0.57763671875	0.412841796875	1	upper	amplitud.ttf
1542619	WORD	wordpools/wasnorm_wordpool_less_exclusions.txt	LTP230	ltpFR	3	10	0	MANAGER	863	n/a	n/a	1	0.57763671875	0.412841796875	1	upper	amplitud.ttf
1546713	WORD	wordpools/wasnorm_wordpool_less_exclusions.txt	LTP230	ltpFR	3	10	0	RAZOR	1171	n/a	n/a	0	0.57763671875	0.412841796875	1	upper	amplitud.ttf
1550691	WORD	wordpools/wasnorm_wordpool_less_exclusions.txt	LTP230	ltpFR	3	10	0	STUMP	1396	n/a	n/a	1	0.57763671875	0.412841796875	1	upper	amplitud.ttf
1554651	WORD	wordpools/wasnorm_wordpool_less_exclusions.txt	LTP230	ltpFR	3	10	0	ACROBAT	4	n/a	n/a	1	0.57763671875	0.412841796875	1	upper	amplitud.ttf
1558596	WORD	wordpools/wasnorm_wordpool_less_exclusions.txt	LTP230	ltpFR	3	10	0	JUGGLER	763	n/a	n/a	1	0.57763671875	0.412841796875	1	upper	amplitud.ttf
1562739	WORD	wordpools/wasnorm_wordpool_less_exclusions.txt	LTP230	ltpFR	3	10	0	TROUSERS	1510	n/a	n/a	0	0.57763671875	0.412841796875	1	upper	amplitud.ttf
1566818	WORD	wordpools/wasnorm_wordpool_less_exclusions.txt	LTP230	ltpFR	3	10	0	FLANNEL	574	n/a	n/a	0	0.57763671875	0.412841796875	1	upper	amplitud.ttf
1570845	WORD	wordpools/wasnorm_wordpool_less_exclusions.txt	LTP230	ltpFR	3	10	0	BLANKET	135	n/a	n/a	0	0.57763671875	0.412841796875	1	upper	amplitud.ttf
1574889	WORD	wordpools/wasnorm_wordpool_less_exclusions.txt	LTP230	ltpFR	3	10	0	ARM	38	n/a	n/a	1	0.57763671875	0.412841796875	1	upper	amplitud.ttf
1580580	REC_START	n/a	LTP230	ltpFR	3	10	n/a	n/a	n/a	n/a	n/a	n/a	n/a	n/a	n/a	n/a	n/a
1582815	REC_WORD	wordpools/wasnorm_wordpool_less_exclusions.txt	LTP230	ltpFR	3	10	0	MANAGER	863	n/a	n/a	1	n/a	n/a	n/a	n/a	n/a
1584022	REC_WORD	wordpools/wasnorm_wordpool_less_exclusions.txt	LTP230	ltpFR	3	10	0	BULL	193	n/a	n/a	1	n/a	n/a	n/a	n/a	n/a
1584775	REC_WORD	wordpools/wasnorm_wordpool_less_exclusions.txt	LTP230	ltpFR	3	10	0	SWORD	1423	n/a	n/a	0	n/a	n/a	n/a	n/a	n/a
1586556	REC_WORD	wordpools/wasnorm_wordpool_less_exclusions.txt	LTP230	ltpFR	3	10	0	RAZOR	1171	n/a	n/a	0	n/a	n/a	n/a	n/a	n/a
1586996	REC_WORD	wordpools/wasnorm_wordpool_less_exclusions.txt	LTP230	ltpFR	3	10	n/a	BACK	65	n/a	n/a	n/a	n/a	n/a	n/a	n/a	n/a
1589799	REC_WORD	wordpools/wasnorm_wordpool_less_exclusions.txt	LTP230	ltpFR	3	10	0	ARM	38	n/a	n/a	1	n/a	n/a	n/a	n/a	n/a
1590886	REC_WORD	wordpools/wasnorm_wordpool_less_exclusions.txt	LTP230	ltpFR	3	10	0	TOE	1473	n/a	n/a	0	n/a	n/a	n/a	n/a	n/a
1595715	REC_WORD	wordpools/wasnorm_wordpool_less_exclusions.txt	LTP230	ltpFR	3	10	0	JUGGLER	763	n/a	n/a	1	n/a	n/a	n/a	n/a	n/a
1604091	REC_WORD	wordpools/wasnorm_wordpool_less_exclusions.txt	LTP230	ltpFR	3	10	0	MEADOW	881	n/a	n/a	1	n/a	n/a	n/a	n/a	n/a
1610517	REC_WORD	wordpools/wasnorm_wordpool_less_exclusions.txt	LTP230	ltpFR	3	10	0	LEAF	808	n/a	n/a	0	n/a	n/a	n/a	n/a	n/a
1676154	WORD	wordpools/wasnorm_wordpool_less_exclusions.txt	LTP230	ltpFR	3	11	-1	CARAVAN	242	n/a	n/a	-1	1.0	1.0	1	upper	Verdana.ttf
1680198	WORD	wordpools/wasnorm_wordpool_less_exclusions.txt	LTP230	ltpFR	3	11	-1	ELBOW	520	n/a	n/a	-1	1.0	1.0	1	upper	Verdana.ttf
1684026	WORD	wordpools/wasnorm_wordpool_less_exclusions.txt	LTP230	ltpFR	3	11	-1	SEAT	1264	n/a	n/a	-1	1.0	1.0	1	upper	Verdana.ttf
1687953	WORD	wordpools/wasnorm_wordpool_less_exclusions.txt	LTP230	ltpFR	3	11	-1	STOVE	1388	n/a	n/a	-1	1.0	1.0	1	upper	Verdana.ttf
1692031	WORD	wordpools/wasnorm_wordpool_less_exclusions.txt	LTP230	ltpFR	3	11	-1	GIRL	637	n/a	n/a	-1	1.0	1.0	1	upper	Verdana.ttf
1696075	WORD	wordpools/wasnorm_wordpool_less_exclusions.txt	LTP230	ltpFR	3	11	-1	BENCH	121	n/a	n/a	-1	1.0	1.0	1	upper	Verdana.ttf
1699985	WORD	wordpools/wasnorm_wordpool_less_exclusions.txt	LTP230	ltpFR	3	11	-1	QUILT	1151	n/a	n/a	-1	1.0	1.0	1	upper	Verdana.ttf
1703830	WORD	wordpools/wasnorm_wordpool_less_exclusions.txt	LTP230	ltpFR	3	11	-1	LIMOUSINE	824	n/a	n/a	-1	1.0	1.0	1	upper	Verdana.ttf
1707773	WORD	wordpools/wasnorm_wordpool_less_exclusions.txt	LTP230	ltpFR	3	11	-1	AUTOMOBILE	62	n/a	n/a	-1	1.0	1.0	1	upper	Verdana.ttf
1711968	WORD	wordpools/wasnorm_wordpool_less_exclusions.txt	LTP230	ltpFR	3	11	-1	CHAIRPERSON	275	n/a	n/a	-1	1.0	1.0	1	upper	Verdana.ttf
1716161	WORD	wordpools/wasnorm_wordpool_less_exclusions.txt	LTP230	ltpFR	3	11	-1	BRIEFCASE	175	n/a	n/a	-1	1.0	1.0	1	upper	Verdana.ttf
1720055	WORD	wordpools/wasnorm_wordpool_less_exclusions.txt	LTP230	ltpFR	3	11	-1	MOTH	920	n/a	n/a	-1	1.0	1.0	1	upper	Verdana.ttf
1724249	WORD	wordpools/wasnorm_wordpool_less_exclusions.txt	LTP230	ltpFR	3	11	-1	GRASSHOPPER	656	n/a	n/a	-1	1.0	1.0	1	upper	Verdana.ttf
1728310	WORD	wordpools/wasnorm_wordpool_less_exclusions.txt	LTP230	ltpFR	3	11	-1	BRAKE	166	n/a	n/a	-1	1.0	1.0	1	upper	Verdana.ttf
1732304	WORD	wordpools/wasnorm_wordpool_less_exclusions.txt	LTP230	ltpFR	3	11	-1	SIGN	1305	n/a	n/a	-1	1.0	1.0	1	upper	Verdana.ttf
1736231	WORD	wordpools/wasnorm_wordpool_less_exclusions.txt	LTP230	ltpFR	3	11	-1	SPIDER	1351	n/a	n/a	-1	1.0	1.0	1	upper	Verdana.ttf
1742223	REC_START	n/a	LTP230	ltpFR	3	11	n/a	n/a	n/a	n/a	n/a	n/a	n/a	n/a	n/a	n/a	n/a
1743375	REC_WORD	wordpools/wasnorm_wordpool_less_exclusions.txt	LTP230	ltpFR	3	11	-1	BRAKE	166	n/a	n/a	-1	n/a	n/a	n/a	n/a	n/a
1743939	REC_WORD	wordpools/wasnorm_wordpool_less_exclusions.txt	LTP230	ltpFR	3	11	-1	SIGN	1305	n/a	n/a	-1	n/a	n/a	n/a	n/a	n/a
1744632	REC_WORD	wordpools/wasnorm_wordpool_less_exclusions.txt	LTP230	ltpFR	3	11	-1	SPIDER	1351	n/a	n/a	-1	n/a	n/a	n/a	n/a	n/a
1756575	REC_WORD	wordpools/wasnorm_wordpool_less_exclusions.txt	LTP230	ltpFR	3	11	-1	CHAIRPERSON	275	n/a	n/a	-1	n/a	n/a	n/a	n/a	n/a
1757977	REC_WORD	wordpools/wasnorm_wordpool_less_exclusions.txt	LTP230	ltpFR	3	11	-1	BRIEFCASE	175	n/a	n/a	-1	n/a	n/a	n/a	n/a	n/a
1758865	REC_WORD	wordpools/wasnorm_wordpool_less_exclusions.txt	LTP230	ltpFR	3	11	-1	MOTH	920	n/a	n/a	-1	n/a	n/a	n/a	n/a	n/a
1831356	WORD	wordpools/wasnorm_wordpool_less_exclusions.txt	LTP230	ltpFR	3	12	0	VESSEL	1558	n/a	n/a	0	0.57763671875	0.412841796875	1	upper	amplitud.ttf
1835217	WORD	wordpools/wasnorm_wordpool_less_exclusions.txt	LTP230	ltpFR	3	12	0	DICTIONARY	463	n/a	n/a	0	0.57763671875	0.412841796875	1	upper	amplitud.ttf
1839344	WORD	wordpools/wasnorm_wordpool_less_exclusions.txt	LTP230	ltpFR	3	12	0	TORTOISE	1486	n/a	n/a	0	0.57763671875	0.412841796875	1	upper	amplitud.ttf
1843172	WORD	wordpools/wasnorm_wordpool_less_exclusions.txt	LTP230	ltpFR	3	12	0	SNAIL	1332	n/a	n/a	0	0.57763671875	0.412841796875	1	upper	amplitud.ttf
1847116	WORD	wordpools/wasnorm_wordpool_less_exclusions.txt	LTP230	ltpFR	3	12	0	GAVEL	627	n/a	n/a	0	0.57763671875	0.412841796875	1	upper	amplitud.ttf
1851026	WORD	wordpools/wasnorm_wordpool_less_exclusions.txt	LTP230	ltpFR	3	12	0	NAIL	936	n/a	n/a	0	0.57763671875	0.412841796875	1	upper	amplitud.ttf
1854971	WORD	wordpools/wasnorm_wordpool_less_exclusions.txt	LTP230	ltpFR	3	12	0	SERVANT	1271	n/a	n/a	n/a	0.57763671875	0.412841796875	1	upper	amplitud.ttf
1857999	SLOW_MSG	n/a	LTP230	ltpFR	3	12	n/a	n/a	n/a	n/a	n/a	n/a	n/a	n/a	n/a	n/a	n/a
1860728	WORD	wordpools/wasnorm_wordpool_less_exclusions.txt	LTP230	ltpFR	3	12	0	WAITER	1580	n/a	n/a	1	0.57763671875	0.412841796875	1	upper	amplitud.ttf
1864772	WORD	wordpools/wasnorm_wordpool_less_exclusions.txt	LTP230	ltpFR	3	12	0	MECHANIC	884	n/a	n/a	1	0.57763671875	0.412841796875	1	upper	amplitud.ttf
1868867	WORD	wordpools/wasnorm_wordpool_less_exclusions.txt	LTP230	ltpFR	3	12	0	COAL	332	n/a	n/a	0	0.57763671875	0.412841796875	1	upper	amplitud.ttf
1872760	WORD	wordpools/wasnorm_wordpool_less_exclusions.txt	LTP230	ltpFR	3	12	0	HOSE	720	n/a	n/a	0	0.57763671875	0.412841796875	1	upper	amplitud.ttf
1876720	WORD	wordpools/wasnorm_wordpool_less_exclusions.txt	LTP230	ltpFR	3	12	0	TAXI	1438	n/a	n/a	1	0.57763671875	0.412841796875	1	upper	amplitud.ttf
1880648	WORD	wordpools/wasnorm_wordpool_less_exclusions.txt	LTP230	ltpFR	3	12	0	ROSE	1212	n/a	n/a	0	0.57763671875	0.412841796875	1	upper	amplitud.ttf
1884793	WORD	wordpools/wasnorm_wordpool_less_exclusions.txt	LTP230	ltpFR	3	12	0	PARIS	1014	n/a	n/a	1	0.57763671875	0.412841796875	1	upper	amplitud.ttf
1888870	WORD	wordpools/wasnorm_wordpool_less_exclusions.txt	LTP230	ltpFR	3	12	0	WASHCLOTH	1591	n/a	n/a	0	0.57763671875	0.412841796875	1	upper	amplitud.ttf
1892814	WORD	wordpools/wasnorm_wordpool_less_exclusions.txt	LTP230	ltpFR	3	12	0	ALMANAC	17	n/a	n/a	1	0.57763671875	0.412841796875	1	upper	amplitud.ttf
1898522	REC_START	n/a	LTP230	ltpFR	3	12	n/a	n/a	n/a	n/a	n/a	n/a	n/a	n/a	n/a	n/a	n/a
1902213	REC_WORD	wordpools/wasnorm_wordpool_less_exclusions.txt	LTP230	ltpFR	3	12	0	WAITER	1580	n/a	n/a	1	n/a	n/a	n/a	n/a	n/a
1902872	REC_WORD	wordpools/wasnorm_wordpool_less_exclusions.txt	LTP230	ltpFR	3	12	0	MECHANIC	884	n/a	n/a	1	n/a	n/a	n/a	n/a	n/a
1903775	REC_WORD	wordpools/wasnorm_wordpool_less_exclusions.txt	LTP230	ltpFR	3	12	0	ALMANAC	17	n/a	n/a	1	n/a	n/a	n/a	n/a	n/a
1910559	REC_WORD	wordpools/wasnorm_wordpool_less_exclusions.txt	LTP230	ltpFR	3	12	0	ROSE	1212	n/a	n/a	0	n/a	n/a	n/a	n/a	n/a
1916291	REC_WORD	wordpools/wasnorm_wordpool_less_exclusions.txt	LTP230	ltpFR	3	12	0	VESSEL	1558	n/a	n/a	0	n/a	n/a	n/a	n/a	n/a
1920592	REC_WORD	wordpools/wasnorm_wordpool_less_exclusions.txt	LTP230	ltpFR	3	12	0	DICTIONARY	463	n/a	n/a	0	n/a	n/a	n/a	n/a	n/a
1938162	REC_WORD	wordpools/wasnorm_wordpool_less_exclusions.txt	LTP230	ltpFR	3	12	0	PARIS	1014	n/a	n/a	1	n/a	n/a	n/a	n/a	n/a
1974126	REST_REWET	n/a	LTP230	ltpFR	3	12	n/a	n/a	n/a	n/a	n/a	n/a	n/a	n/a	n/a	n/a	n/a
2223970	WORD	wordpools/wasnorm_wordpool_less_exclusions.txt	LTP230	ltpFR	3	13	-1	CASHIER	254	n/a	n/a	-1	1.0	1.0	1	upper	Verdana.ttf
2228063	WORD	wordpools/wasnorm_wordpool_less_exclusions.txt	LTP230	ltpFR	3	13	-1	SHINGLE	1285	n/a	n/a	-1	1.0	1.0	1	upper	Verdana.ttf
2231924	WORD	wordpools/wasnorm_wordpool_less_exclusions.txt	LTP230	ltpFR	3	13	-1	CURB	426	n/a	n/a	-1	1.0	1.0	1	upper	Verdana.ttf
2235918	WORD	wordpools/wasnorm_wordpool_less_exclusions.txt	LTP230	ltpFR	3	13	-1	DRESS	495	n/a	n/a	-1	1.0	1.0	1	upper	Verdana.ttf
2240129	WORD	wordpools/wasnorm_wordpool_less_exclusions.txt	LTP230	ltpFR	3	13	-1	ORNAMENT	985	n/a	n/a	-1	1.0	1.0	1	upper	Verdana.ttf
2244106	WORD	wordpools/wasnorm_wordpool_less_exclusions.txt	LTP230	ltpFR	3	13	-1	BLACKBERRY	132	n/a	n/a	-1	1.0	1.0	1	upper	Verdana.ttf
2248084	WORD	wordpools/wasnorm_wordpool_less_exclusions.txt	LTP230	ltpFR	3	13	-1	FRUIT	610	n/a	n/a	-1	1.0	1.0	1	upper	Verdana.ttf
2252111	WORD	wordpools/wasnorm_wordpool_less_exclusions.txt	LTP230	ltpFR	3	13	-1	SHORTCAKE	1292	n/a	n/a	-1	1.0	1.0	1	upper	Verdana.ttf
2256238	WORD	wordpools/wasnorm_wordpool_less_exclusions.txt	LTP230	ltpFR	3	13	-1	SNACK	1331	n/a	n/a	-1	1.0	1.0	1	upper	Verdana.ttf
2260132	WORD	wordpools/wasnorm_wordpool_less_exclusions.txt	LTP230	ltpFR	3	13	-1	CHAUFFEUR	283	n/a	n/a	-1	1.0	1.0	1	upper	Verdana.ttf
2263993	WORD	wordpools/wasnorm_wordpool_less_exclusions.txt	LTP230	ltpFR	3	13	-1	NICKEL	950	n/a	n/a	-1	1.0	1.0	1	upper	Verdana.ttf
2267821	WORD	wordpools/wasnorm_wordpool_less_exclusions.txt	LTP230	ltpFR	3	13	-1	DANDRUFF	439	n/a	n/a	-1	1.0	1.0	1	upper	Verdana.ttf
2271865	WORD	wordpools/wasnorm_wordpool_less_exclusions.txt	LTP230	ltpFR	3	13	-1	PLUMBER	1091	n/a	n/a	-1	1.0	1.0	1	upper	Verdana.ttf
2275925	WORD	wordpools/wasnorm_wordpool_less_exclusions.txt	LTP230	ltpFR	3	13	-1	WART	1590	n/a	n/a	-1	1.0	1.0	1	upper	Verdana.ttf
2279919	WORD	wordpools/wasnorm_wordpool_less_exclusions.txt	LTP230	ltpFR	3	13	-1	FRECKLE	602	n/a	n/a	-1	1.0	1.0	1	upper	Verdana.ttf
2284046	WORD	wordpools/wasnorm_wordpool_less_exclusions.txt	LTP230	ltpFR	3	13	-1	BRUNETTE	181	n/a	n/a	-1	1.0	1.0	1	upper	Verdana.ttf
2289988	REC_START	n/a	LTP230	ltpFR	3	13	n/a	n/a	n/a	n/a	n/a	n/a	n/a	n/a	n/a	n/a	n/a
2290976	REC_WORD_VV	wordpools/wasnorm_wordpool_less_exclusions.txt	LTP230	ltpFR	3	13	n/a	<>	-1	n/a	n/a	n/a	n/a	n/a	n/a	n/a	n/a
2291976	REC_WORD_VV	wordpools/wasnorm_wordpool_less_exclusions.txt	LTP230	ltpFR	3	13	n/a	<>	-1	n/a	n/a	n/a	n/a	n/a	n/a	n/a	n/a
2293629	REC_WORD	wordpools/wasnorm_wordpool_less_exclusions.txt	LTP230	ltpFR	3	13	-1	CASHIER	254	n/a	n/a	-1	n/a	n/a	n/a	n/a	n/a
2295226	REC_WORD	wordpools/wasnorm_wordpool_less_exclusions.txt	LTP230	ltpFR	3	13	-1	SHINGLE	1285	n/a	n/a	-1	n/a	n/a	n/a	n/a	n/a
2296423	REC_WORD	wordpools/wasnorm_wordpool_less_exclusions.txt	LTP230	ltpFR	3	13	-1	CURB	426	n/a	n/a	-1	n/a	n/a	n/a	n/a	n/a
2299262	REC_WORD	wordpools/wasnorm_wordpool_less_exclusions.txt	LTP230	ltpFR	3	13	-1	BLACKBERRY	132	n/a	n/a	-1	n/a	n/a	n/a	n/a	n/a
2300499	REC_WORD	wordpools/wasnorm_wordpool_less_exclusions.txt	LTP230	ltpFR	3	13	-1	DRESS	495	n/a	n/a	-1	n/a	n/a	n/a	n/a	n/a
2301167	REC_WORD	wordpools/wasnorm_wordpool_less_exclusions.txt	LTP230	ltpFR	3	13	-1	ORNAMENT	985	n/a	n/a	-1	n/a	n/a	n/a	n/a	n/a
2305747	REC_WORD	wordpools/wasnorm_wordpool_less_exclusions.txt	LTP230	ltpFR	3	13	-1	CHAUFFEUR	283	n/a	n/a	-1	n/a	n/a	n/a	n/a	n/a
2307398	REC_WORD	wordpools/wasnorm_wordpool_less_exclusions.txt	LTP230	ltpFR	3	13	-1	NICKEL	950	n/a	n/a	-1	n/a	n/a	n/a	n/a	n/a
2308311	REC_WORD	wordpools/wasnorm_wordpool_less_exclusions.txt	LTP230	ltpFR	3	13	-1	PLUMBER	1091	n/a	n/a	-1	n/a	n/a	n/a	n/a	n/a
2308870	REC_WORD	wordpools/wasnorm_wordpool_less_exclusions.txt	LTP230	ltpFR	3	13	-1	DANDRUFF	439	n/a	n/a	-1	n/a	n/a	n/a	n/a	n/a
2309653	REC_WORD	wordpools/wasnorm_wordpool_less_exclusions.txt	LTP230	ltpFR	3	13	-1	WART	1590	n/a	n/a	-1	n/a	n/a	n/a	n/a	n/a
2310048	REC_WORD	wordpools/wasnorm_wordpool_less_exclusions.txt	LTP230	ltpFR	3	13	-1	FRECKLE	602	n/a	n/a	-1	n/a	n/a	n/a	n/a	n/a
2337908	REC_WORD	wordpools/wasnorm_wordpool_less_exclusions.txt	LTP230	ltpFR	3	13	-1	FRUIT	610	n/a	n/a	-1	n/a	n/a	n/a	n/a	n/a
2338877	REC_WORD	wordpools/wasnorm_wordpool_less_exclusions.txt	LTP230	ltpFR	3	13	-1	SHORTCAKE	1292	n/a	n/a	-1	n/a	n/a	n/a	n/a	n/a
2341555	REC_WORD	wordpools/wasnorm_wordpool_less_exclusions.txt	LTP230	ltpFR	3	13	-1	SNACK	1331	n/a	n/a	-1	n/a	n/a	n/a	n/a	n/a
2377790	WORD	wordpools/wasnorm_wordpool_less_exclusions.txt	LTP230	ltpFR	3	14	-1	PEARL	1034	n/a	n/a	-1	1.0	1.0	1	upper	Verdana.ttf
2381700	WORD	wordpools/wasnorm_wordpool_less_exclusions.txt	LTP230	ltpFR	3	14	-1	WHISKERS	1605	n/a	n/a	-1	1.0	1.0	1	upper	Verdana.ttf
2385544	WORD	wordpools/wasnorm_wordpool_less_exclusions.txt	LTP230	ltpFR	3	14	-1	THICKET	1455	n/a	n/a	-1	1.0	1.0	1	upper	Verdana.ttf
2389588	WORD	wordpools/wasnorm_wordpool_less_exclusions.txt	LTP230	ltpFR	3	14	-1	MARS	873	n/a	n/a	-1	1.0	1.0	1	upper	Verdana.ttf
2393598	WORD	wordpools/wasnorm_wordpool_less_exclusions.txt	LTP230	ltpFR	3	14	-1	THREAD	1460	n/a	n/a	-1	1.0	1.0	1	upper	Verdana.ttf
2397726	WORD	wordpools/wasnorm_wordpool_less_exclusions.txt	LTP230	ltpFR	3	14	-1	RECORD	1176	n/a	n/a	-1	1.0	1.0	1	upper	Verdana.ttf
2401854	WORD	wordpools/wasnorm_wordpool_less_exclusions.txt	LTP230	ltpFR	3	14	-1	OBOE	969	n/a	n/a	-1	1.0	1.0	1	upper	Verdana.ttf
2406048	WORD	wordpools/wasnorm_wordpool_less_exclusions.txt	LTP230	ltpFR	3	14	-1	PRINCE	1124	n/a	n/a	-1	1.0	1.0	1	upper	Verdana.ttf
2409875	WORD	wordpools/wasnorm_wordpool_less_exclusions.txt	LTP230	ltpFR	3	14	-1	BANQUET	86	n/a	n/a	-1	1.0	1.0	1	upper	Verdana.ttf
2413952	WORD	wordpools/wasnorm_wordpool_less_exclusions.txt	LTP230	ltpFR	3	14	-1	TUXEDO	1525	n/a	n/a	-1	1.0	1.0	1	upper	Verdana.ttf
2418030	WORD	wordpools/wasnorm_wordpool_less_exclusions.txt	LTP230	ltpFR	3	14	-1	CHERRY	293	n/a	n/a	-1	1.0	1.0	1	upper	Verdana.ttf
2422090	WORD	wordpools/wasnorm_wordpool_less_exclusions.txt	LTP230	ltpFR	3	14	-1	TREASURE	1500	n/a	n/a	-1	1.0	1.0	1	upper	Verdana.ttf
2426084	WORD	wordpools/wasnorm_wordpool_less_exclusions.txt	LTP230	ltpFR	3	14	-1	PORCUPINE	1107	n/a	n/a	-1	1.0	1.0	1	upper	Verdana.ttf
2430045	WORD	wordpools/wasnorm_wordpool_less_exclusions.txt	LTP230	ltpFR	3	14	-1	TURNIP	1521	n/a	n/a	-1	1.0	1.0	1	upper	Verdana.ttf
2434122	WORD	wordpools/wasnorm_wordpool_less_exclusions.txt	LTP230	ltpFR	3	14	-1	CARDINAL	244	n/a	n/a	-1	1.0	1.0	1	upper	Verdana.ttf
2438100	WORD	wordpools/wasnorm_wordpool_less_exclusions.txt	LTP230	ltpFR	3	14	-1	FEATHER	557	n/a	n/a	-1	1.0	1.0	1	upper	Verdana.ttf
2444108	REC_START	n/a	LTP230	ltpFR	3	14	n/a	n/a	n/a	n/a	n/a	n/a	n/a	n/a	n/a	n/a	n/a
2444492	REC_WORD	wordpools/wasnorm_wordpool_less_exclusions.txt	LTP230	ltpFR	3	14	-1	PORCUPINE	1107	n/a	n/a	-1	n/a	n/a	n/a	n/a	n/a
2445250	REC_WORD	wordpools/wasnorm_wordpool_less_exclusions.txt	LTP230	ltpFR	3	14	-1	TREASURE	1500	n/a	n/a	-1	n/a	n/a	n/a	n/a	n/a
2445859	REC_WORD	wordpools/wasnorm_wordpool_less_exclusions.txt	LTP230	ltpFR	3	14	-1	TURNIP	1521	n/a	n/a	-1	n/a	n/a	n/a	n/a	n/a
2446517	REC_WORD	wordpools/wasnorm_wordpool_less_exclusions.txt	LTP230	ltpFR	3	14	-1	CARDINAL	244	n/a	n/a	-1	n/a	n/a	n/a	n/a	n/a
2447245	REC_WORD	wordpools/wasnorm_wordpool_less_exclusions.txt	LTP230	ltpFR	3	14	-1	FEATHER	557	n/a	n/a	-1	n/a	n/a	n/a	n/a	n/a
2543591	WORD	wordpools/wasnorm_wordpool_less_exclusions.txt	LTP230	ltpFR	3	15	0	PRIMATE	1123	n/a	n/a	1	0.57763671875	0.412841796875	1	upper	amplitud.ttf
2547453	WORD	wordpools/wasnorm_wordpool_less_exclusions.txt	LTP230	ltpFR	3	15	0	MONKEY	911	n/a	n/a	1	0.57763671875	0.412841796875	1	upper	amplitud.ttf
2551463	WORD	wordpools/wasnorm_wordpool_less_exclusions.txt	LTP230	ltpFR	3	15	1	BROOK	177	n/a	n/a	0	0.422607421875	0.5869140625	0	lower	zerothre.ttf
2555490	WORD	wordpools/wasnorm_wordpool_less_exclusions.txt	LTP230	ltpFR	3	15	1	SLIDE	1326	n/a	n/a	0	0.422607421875	0.5869140625	0	lower	zerothre.ttf
2559452	WORD	wordpools/wasnorm_wordpool_less_exclusions.txt	LTP230	ltpFR	3	15	1	TABLET	1427	n/a	n/a	0	0.422607421875	0.5869140625	0	lower	zerothre.ttf
2563561	WORD	wordpools/wasnorm_wordpool_less_exclusions.txt	LTP230	ltpFR	3	15	1	SALAD	1224	n/a	n/a	0	0.422607421875	0.5869140625	0	lower	zerothre.ttf
2567772	WORD	wordpools/wasnorm_wordpool_less_exclusions.txt	LTP230	ltpFR	3	15	0	SUGAR	1401	n/a	n/a	0	0.57763671875	0.412841796875	1	upper	amplitud.ttf
2571633	WORD	wordpools/wasnorm_wordpool_less_exclusions.txt	LTP230	ltpFR	3	15	0	STADIUM	1364	n/a	n/a	1	0.57763671875	0.412841796875	1	upper	amplitud.ttf
2575460	WORD	wordpools/wasnorm_wordpool_less_exclusions.txt	LTP230	ltpFR	3	15	1	DIAPER	459	n/a	n/a	0	0.422607421875	0.5869140625	0	lower	zerothre.ttf
2579488	WORD	wordpools/wasnorm_wordpool_less_exclusions.txt	LTP230	ltpFR	3	15	1	BARN	89	n/a	n/a	0	0.422607421875	0.5869140625	0	lower	zerothre.ttf
2583631	WORD	wordpools/wasnorm_wordpool_less_exclusions.txt	LTP230	ltpFR	3	15	1	MULE	931	n/a	n/a	1	0.422607421875	0.5869140625	0	lower	zerothre.ttf
2587509	WORD	wordpools/wasnorm_wordpool_less_exclusions.txt	LTP230	ltpFR	3	15	1	CAGE	218	n/a	n/a	0	0.422607421875	0.5869140625	0	lower	zerothre.ttf
2591536	WORD	wordpools/wasnorm_wordpool_less_exclusions.txt	LTP230	ltpFR	3	15	0	WALRUS	1585	n/a	n/a	2	0.57763671875	0.412841796875	1	upper	amplitud.ttf
2592353	KEY_MSG	n/a	LTP230	ltpFR	3	15	n/a	n/a	n/a	n/a	n/a	n/a	n/a	n/a	n/a	n/a	n/a
2595680	WORD	wordpools/wasnorm_wordpool_less_exclusions.txt	LTP230	ltpFR	3	15	0	COOKIE	374	n/a	n/a	0	0.57763671875	0.412841796875	1	upper	amplitud.ttf
2599825	WORD	wordpools/wasnorm_wordpool_less_exclusions.txt	LTP230	ltpFR	3	15	0	SEAGULL	1261	n/a	n/a	0	0.57763671875	0.412841796875	1	upper	amplitud.ttf
2603969	WORD	wordpools/wasnorm_wordpool_less_exclusions.txt	LTP230	ltpFR	3	15	0	PILL	1068	n/a	n/a	0	0.57763671875	0.412841796875	1	upper	amplitud.ttf
2609899	REC_START	n/a	LTP230	ltpFR	3	15	n/a	n/a	n/a	n/a	n/a	n/a	n/a	n/a	n/a	n/a	n/a
2610697	REC_WORD	wordpools/wasnorm_wordpool_less_exclusions.txt	LTP230	ltpFR	3	15	0	SEAGULL	1261	n/a	n/a	0	n/a	n/a	n/a	n/a	n/a
2611804	REC_WORD	wordpools/wasnorm_wordpool_less_exclusions.txt	LTP230	ltpFR	3	15	0	WALRUS	1585	n/a	n/a	2	n/a	n/a	n/a	n/a	n/a
2612563	REC_WORD	wordpools/wasnorm_wordpool_less_exclusions.txt	LTP230	ltpFR	3	15	0	PILL	1068	n/a	n/a	0	n/a	n/a	n/a	n/a	n/a
2613201	REC_WORD	wordpools/wasnorm_wordpool_less_exclusions.txt	LTP230	ltpFR	3	15	0	COOKIE	374	n/a	n/a	0	n/a	n/a	n/a	n/a	n/a
2615182	REC_WORD	wordpools/wasnorm_wordpool_less_exclusions.txt	LTP230	ltpFR	3	15	0	STADIUM	1364	n/a	n/a	1	n/a	n/a	n/a	n/a	n/a
2616254	REC_WORD	wordpools/wasnorm_wordpool_less_exclusions.txt	LTP230	ltpFR	3	15	0	SUGAR	1401	n/a	n/a	0	n/a	n/a	n/a	n/a	n/a
2617955	REC_WORD	wordpools/wasnorm_wordpool_less_exclusions.txt	LTP230	ltpFR	3	15	0	PRIMATE	1123	n/a	n/a	1	n/a	n/a	n/a	n/a	n/a
2618449	REC_WORD	wordpools/wasnorm_wordpool_less_exclusions.txt	LTP230	ltpFR	3	15	0	MONKEY	911	n/a	n/a	1	n/a	n/a	n/a	n/a	n/a
2620973	REC_WORD	wordpools/wasnorm_wordpool_less_exclusions.txt	LTP230	ltpFR	3	15	1	SLIDE	1326	n/a	n/a	0	n/a	n/a	n/a	n/a	n/a
2623837	REC_WORD	wordpools/wasnorm_wordpool_less_exclusions.txt	LTP230	ltpFR	3	15	1	TABLET	1427	n/a	n/a	0	n/a	n/a	n/a	n/a	n/a
2624471	REC_WORD	wordpools/wasnorm_wordpool_less_exclusions.txt	LTP230	ltpFR	3	15	1	SALAD	1224	n/a	n/a	0	n/a	n/a	n/a	n/a	n/a
2696996	WORD	wordpools/wasnorm_wordpool_less_exclusions.txt	LTP230	ltpFR	3	16	0	WALL	1582	n/a	n/a	1	0.57763671875	0.412841796875	1	upper	amplitud.ttf
2700824	WORD	wordpools/wasnorm_wordpool_less_exclusions.txt	LTP230	ltpFR	3	16	0	HOOP	716	n/a	n/a	1	0.57763671875	0.412841796875	1	upper	amplitud.ttf
2704767	WORD	wordpools/wasnorm_wordpool_less_exclusions.txt	LTP230	ltpFR	3	16	0	BASKET	95	n/a	n/a	1	0.57763671875	0.412841796875	1	upper	amplitud.ttf
2708645	WORD	wordpools/wasnorm_wordpool_less_exclusions.txt	LTP230	ltpFR	3	16	0	CUSHION	428	n/a	n/a	1	0.57763671875	0.412841796875	1	upper	amplitud.ttf
2712739	WORD	wordpools/wasnorm_wordpool_less_exclusions.txt	LTP230	ltpFR	3	16	0	PITCHFORK	1078	n/a	n/a	1	0.57763671875	0.412841796875	1	upper	amplitud.ttf
2716599	WORD	wordpools/wasnorm_wordpool_less_exclusions.txt	LTP230	ltpFR	3	16	0	CLASS	318	n/a	n/a	0	0.57763671875	0.412841796875	1	upper	amplitud.ttf
2720677	WORD	wordpools/wasnorm_wordpool_less_exclusions.txt	LTP230	ltpFR	3	16	0	FOOTBALL	591	n/a	n/a	0	0.57763671875	0.412841796875	1	upper	amplitud.ttf
2724621	WORD	wordpools/wasnorm_wordpool_less_exclusions.txt	LTP230	ltpFR	3	16	0	HAY	693	n/a	n/a	1	0.57763671875	0.412841796875	1	upper	amplitud.ttf
2728482	WORD	wordpools/wasnorm_wordpool_less_exclusions.txt	LTP230	ltpFR	3	16	0	POSSUM	1112	n/a	n/a	n/a	0.57763671875	0.412841796875	1	upper	amplitud.ttf
2731510	SLOW_MSG	n/a	LTP230	ltpFR	3	16	n/a	n/a	n/a	n/a	n/a	n/a	n/a	n/a	n/a	n/a	n/a
2734191	WORD	wordpools/wasnorm_wordpool_less_exclusions.txt	LTP230	ltpFR	3	16	0	PARCEL	1012	n/a	n/a	0	0.57763671875	0.412841796875	1	upper	amplitud.ttf
2738301	WORD	wordpools/wasnorm_wordpool_less_exclusions.txt	LTP230	ltpFR	3	16	0	TRICYCLE	1506	n/a	n/a	1	0.57763671875	0.412841796875	1	upper	amplitud.ttf
2742212	WORD	wordpools/wasnorm_wordpool_less_exclusions.txt	LTP230	ltpFR	3	16	0	MONGOOSE	909	n/a	n/a	0	0.57763671875	0.412841796875	1	upper	amplitud.ttf
2746090	WORD	wordpools/wasnorm_wordpool_less_exclusions.txt	LTP230	ltpFR	3	16	0	GLASSES	640	n/a	n/a	0	0.57763671875	0.412841796875	1	upper	amplitud.ttf
2750267	WORD	wordpools/wasnorm_wordpool_less_exclusions.txt	LTP230	ltpFR	3	16	0	CUPBOARD	425	n/a	n/a	0	0.57763671875	0.412841796875	1	upper	amplitud.ttf
2754194	WORD	wordpools/wasnorm_wordpool_less_exclusions.txt	LTP230	ltpFR	3	16	0	STEREO	1378	n/a	n/a	0	0.57763671875	0.412841796875	1	upper	amplitud.ttf
2758388	WORD	wordpools/wasnorm_wordpool_less_exclusions.txt	LTP230	ltpFR	3	16	0	CELLO	268	n/a	n/a	1	0.57763671875	0.412841796875	1	upper	amplitud.ttf
2764047	REC_START	n/a	LTP230	ltpFR	3	16	n/a	n/a	n/a	n/a	n/a	n/a	n/a	n/a	n/a	n/a	n/a
2767160	REC_WORD	wordpools/wasnorm_wordpool_less_exclusions.txt	LTP230	ltpFR	3	16	0	MONGOOSE	909	n/a	n/a	0	n/a	n/a	n/a	n/a	n/a
2767933	REC_WORD	wordpools/wasnorm_wordpool_less_exclusions.txt	LTP230	ltpFR	3	16	0	GLASSES	640	n/a	n/a	0	n/a	n/a	n/a	n/a	n/a
2768566	REC_WORD	wordpools/wasnorm_wordpool_less_exclusions.txt	LTP230	ltpFR	3	16	0	TRICYCLE	1506	n/a	n/a	1	n/a	n/a	n/a	n/a	n/a
2796907	REC_WORD	wordpools/wasnorm_wordpool_less_exclusions.txt	LTP230	ltpFR	3	16	n/a	PERFUME	1049	n/a	n/a	n/a	n/a	n/a	n/a	n/a	n/a
2852798	REC_START	n/a	LTP230	ltpFR	3	n/a	n/a	n/a	n/a	n/a	n/a	n/a	n/a	n/a	n/a	n/a	n/a
2855382	FFR_REC_WORD	wordpools/wasnorm_wordpool_less_exclusions.txt	LTP230	ltpFR	3	n/a	0	WALRUS	1585	n/a	n/a	2	n/a	n/a	n/a	n/a	n/a
2856568	FFR_REC_WORD	wordpools/wasnorm_wordpool_less_exclusions.txt	LTP230	ltpFR	3	n/a	1	ATTORNEY	58	n/a	n/a	1	n/a	n/a	n/a	n/a	n/a
2857582	FFR_REC_WORD	wordpools/wasnorm_wordpool_less_exclusions.txt	LTP230	ltpFR	3	n/a	1	MOSQUITO	917	n/a	n/a	1	n/a	n/a	n/a	n/a	n/a
2860969	FFR_REC_WORD	wordpools/wasnorm_wordpool_less_exclusions.txt	LTP230	ltpFR	3	n/a	0	TANGERINE	1431	n/a	n/a	0	n/a	n/a	n/a	n/a	n/a
2862236	FFR_REC_WORD	wordpools/wasnorm_wordpool_less_exclusions.txt	LTP230	ltpFR	3	n/a	0	BAY	102	n/a	n/a	1	n/a	n/a	n/a	n/a	n/a
2863049	FFR_REC_WORD	wordpools/wasnorm_wordpool_less_exclusions.txt	LTP230	ltpFR	3	n/a	0	DINNER	468	n/a	n/a	0	n/a	n/a	n/a	n/a	n/a
2863637	FFR_REC_WORD	wordpools/wasnorm_wordpool_less_exclusions.txt	LTP230	ltpFR	3	n/a	1	ZUCCHINI	1638	n/a	n/a	0	n/a	n/a	n/a	n/a	n/a
2865509	FFR_REC_WORD	wordpools/wasnorm_wordpool_less_exclusions.txt	LTP230	ltpFR	3	n/a	1	DRIVER	499	n/a	n/a	1	n/a	n/a	n/a	n/a	n/a
2866630	FFR_REC_WORD	wordpools/wasnorm_wordpool_less_exclusions.txt	LTP230	ltpFR	3	n/a	1	WINDSHIELD	1612	n/a	n/a	0	n/a	n/a	n/a	n/a	n/a
2869091	FFR_REC_WORD	wordpools/wasnorm_wordpool_less_exclusions.txt	LTP230	ltpFR	3	n/a	1	PIRATE	1074	n/a	n/a	1	n/a	n/a	n/a	n/a	n/a
2871625	FFR_REC_WORD	wordpools/wasnorm_wordpool_less_exclusions.txt	LTP230	ltpFR	3	n/a	1	RAFT	1159	n/a	n/a	1	n/a	n/a	n/a	n/a	n/a
2872972	FFR_REC_WORD	wordpools/wasnorm_wordpool_less_exclusions.txt	LTP230	ltpFR	3	n/a	1	SURF	1412	n/a	n/a	0	n/a	n/a	n/a	n/a	n/a
2874039	FFR_REC_WORD	wordpools/wasnorm_wordpool_less_exclusions.txt	LTP230	ltpFR	3	n/a	1	KING	777	n/a	n/a	1	n/a	n/a	n/a	n/a	n/a
2874868	FFR_REC_WORD	wordpools/wasnorm_wordpool_less_exclusions.txt	LTP230	ltpFR	3	n/a	1	LADY	794	n/a	n/a	1	n/a	n/a	n/a	n/a	n/a
2875581	FFR_REC_WORD	wordpools/wasnorm_wordpool_less_exclusions.txt	LTP230	ltpFR	3	n/a	n/a	COUCH	386	n/a	n/a	n/a	n/a	n/a	n/a	n/a	n/a
2876639	FFR_REC_WORD	wordpools/wasnorm_wordpool_less_exclusions.txt	LTP230	ltpFR	3	n/a	0	CUSHION	428	n/a	n/a	1	n/a	n/a	n/a	n/a	n/a
2881298	FFR_REC_WORD	wordpools/wasnorm_wordpool_less_exclusions.txt	LTP230	ltpFR	3	n/a	1	BOXER	160	n/a	n/a	1	n/a	n/a	n/a	n/a	n/a
2885853	FFR_REC_WORD	wordpools/wasnorm_wordpool_less_exclusions.txt	LTP230	ltpFR	3	n/a	1	ROPE	1211	n/a	n/a	0	n/a	n/a	n/a	n/a	n/a
2886815	FFR_REC_WORD	wordpools/wasnorm_wordpool_less_exclusions.txt	LTP230	ltpFR	3	n/a	1	CHISEL	305	n/a	n/a	0	n/a	n/a	n/a	n/a	n/a
2895131	FFR_REC_WORD	wordpools/wasnorm_wordpool_less_exclusions.txt	LTP230	ltpFR	3	n/a	1	HANDBAG	684	n/a	n/a	0	n/a	n/a	n/a	n/a	n/a
2897117	FFR_REC_WORD	wordpools/wasnorm_wordpool_less_exclusions.txt	LTP230	ltpFR	3	n/a	0	BUTTON	207	n/a	n/a	0	n/a	n/a	n/a	n/a	n/a
2898070	FFR_REC_WORD	wordpools/wasnorm_wordpool_less_exclusions.txt	LTP230	ltpFR	3	n/a	0	SLACKS	1323	n/a	n/a	0	n/a	n/a	n/a	n/a	n/a
2899312	FFR_REC_WORD	wordpools/wasnorm_wordpool_less_exclusions.txt	LTP230	ltpFR	3	n/a	0	UMPIRE	1535	n/a	n/a	1	n/a	n/a	n/a	n/a	n/a
2901642	FFR_REC_WORD	wordpools/wasnorm_wordpool_less_exclusions.txt	LTP230	ltpFR	3	n/a	1	VOLUNTEER	1577	n/a	n/a	1	n/a	n/a	n/a	n/a	n/a
2917146	FFR_REC_WORD	wordpools/wasnorm_wordpool_less_exclusions.txt	LTP230	ltpFR	3	n/a	0	MONGOOSE	909	n/a	n/a	0	n/a	n/a	n/a	n/a	n/a
2918284	FFR_REC_WORD	wordpools/wasnorm_wordpool_less_exclusions.txt	LTP230	ltpFR	3	n/a	0	TRICYCLE	1506	n/a	n/a	1	n/a	n/a	n/a	n/a	n/a
2919297	FFR_REC_WORD	wordpools/wasnorm_wordpool_less_exclusions.txt	LTP230	ltpFR	3	n/a	0	GLASSES	640	n/a	n/a	0	n/a	n/a	n/a	n/a	n/a
2920678	FFR_REC_WORD	wordpools/wasnorm_wordpool_less_exclusions.txt	LTP230	ltpFR	3	n/a	1	COD	340	n/a	n/a	0	n/a	n/a	n/a	n/a	n/a
2928276	FFR_REC_WORD	wordpools/wasnorm_wordpool_less_exclusions.txt	LTP230	ltpFR	3	n/a	-1	SNACK	1331	n/a	n/a	-1	n/a	n/a	n/a	n/a	n/a
2933619	FFR_REC_WORD	wordpools/wasnorm_wordpool_less_exclusions.txt	LTP230	ltpFR	3	n/a	-1	CASHIER	254	n/a	n/a	-1	n/a	n/a	n/a	n/a	n/a
2934537	FFR_REC_WORD	wordpools/wasnorm_wordpool_less_exclusions.txt	LTP230	ltpFR	3	n/a	-1	CURB	426	n/a	n/a	-1	n/a	n/a	n/a	n/a	n/a
2935185	FFR_REC_WORD	wordpools/wasnorm_wordpool_less_exclusions.txt	LTP230	ltpFR	3	n/a	-1	SHINGLE	1285	n/a	n/a	-1	n/a	n/a	n/a	n/a	n/a
2936722	FFR_REC_WORD	wordpools/wasnorm_wordpool_less_exclusions.txt	LTP230	ltpFR	3	n/a	-1	CHAUFFEUR	283	n/a	n/a	-1	n/a	n/a	n/a	n/a	n/a
2938119	FFR_REC_WORD	wordpools/wasnorm_wordpool_less_exclusions.txt	LTP230	ltpFR	3	n/a	-1	FRUIT	610	n/a	n/a	-1	n/a	n/a	n/a	n/a	n/a
2939775	FFR_REC_WORD	wordpools/wasnorm_wordpool_less_exclusions.txt	LTP230	ltpFR	3	n/a	-1	SHORTCAKE	1292	n/a	n/a	-1	n/a	n/a	n/a	n/a	n/a
2940703	FFR_REC_WORD	wordpools/wasnorm_wordpool_less_exclusions.txt	LTP230	ltpFR	3	n/a	-1	PLUMBER	1091	n/a	n/a	-1	n/a	n/a	n/a	n/a	n/a
2941441	FFR_REC_WORD	wordpools/wasnorm_wordpool_less_exclusions.txt	LTP230	ltpFR	3	n/a	-1	DANDRUFF	439	n/a	n/a	-1	n/a	n/a	n/a	n/a	n/a
2950411	FFR_REC_WORD	wordpools/wasnorm_wordpool_less_exclusions.txt	LTP230	ltpFR	3	n/a	-1	WART	1590	n/a	n/a	-1	n/a	n/a	n/a	n/a	n/a
2951004	FFR_REC_WORD	wordpools/wasnorm_wordpool_less_exclusions.txt	LTP230	ltpFR	3	n/a	-1	FRECKLE	602	n/a	n/a	-1	n/a	n/a	n/a	n/a	n/a
2954402	FFR_REC_WORD	wordpools/wasnorm_wordpool_less_exclusions.txt	LTP230	ltpFR	3	n/a	1	ATTORNEY	58	n/a	n/a	1	n/a	n/a	n/a	n/a	n/a
2966220	FFR_REC_WORD	wordpools/wasnorm_wordpool_less_exclusions.txt	LTP230	ltpFR	3	n/a	0	FIREMAN	569	n/a	n/a	1	n/a	n/a	n/a	n/a	n/a
2967003	FFR_REC_WORD	wordpools/wasnorm_wordpool_less_exclusions.txt	LTP230	ltpFR	3	n/a	0	FIREPLACE	570	n/a	n/a	1	n/a	n/a	n/a	n/a	n/a
3017848	FFR_REC_WORD	wordpools/wasnorm_wordpool_less_exclusions.txt	LTP230	ltpFR	3	n/a	0	PRIMATE	1123	n/a	n/a	1	n/a	n/a	n/a	n/a	n/a
3018691	FFR_REC_WORD	wordpools/wasnorm_wordpool_less_exclusions.txt	LTP230	ltpFR	3	n/a	0	MONKEY	911	n/a	n/a	1	n/a	n/a	n/a	n/a	n/a
3019221	FFR_REC_WORD	wordpools/wasnorm_wordpool_less_exclusions.txt	LTP230	ltpFR	3	n/a	1	SLIDE	1326	n/a	n/a	0	n/a	n/a	n/a	n/a	n/a
3019953	FFR_REC_WORD	wordpools/wasnorm_wordpool_less_exclusions.txt	LTP230	ltpFR	3	n/a	1	TABLET	1427	n/a	n/a	0	n/a	n/a	n/a	n/a	n/a
3020527	FFR_REC_WORD	wordpools/wasnorm_wordpool_less_exclusions.txt	LTP230	ltpFR	3	n/a	1	SALAD	1224	n/a	n/a	0	n/a	n/a	n/a	n/a	n/a
3021100	FFR_REC_WORD	wordpools/wasnorm_wordpool_less_exclusions.txt	LTP230	ltpFR	3	n/a	0	SUGAR	1401	n/a	n/a	0	n/a	n/a	n/a	n/a	n/a
3031846	FFR_REC_WORD	wordpools/wasnorm_wordpool_less_exclusions.txt	LTP230	ltpFR	3	n/a	1	CENT	270	n/a	n/a	0	n/a	n/a	n/a	n/a	n/a
3032838	FFR_REC_WORD	wordpools/wasnorm_wordpool_less_exclusions.txt	LTP230	ltpFR	3	n/a	-1	NICKEL	950	n/a	n/a	-1	n/a	n/a	n/a	n/a	n/a
3033592	FFR_REC_WORD	wordpools/wasnorm_wordpool_less_exclusions.txt	LTP230	ltpFR	3	n/a	1	CASH	252	n/a	n/a	0	n/a	n/a	n/a	n/a	n/a
3201860	REC_START	n/a	LTP230	ltpFR	3	1	n/a	n/a	n/a	n/a	n/a	n/a	n/a	n/a	n/a	n/a	n/a
3201892	RECOG_LURE	n/a	LTP230	ltpFR	3	1	n/a	KIDNEY	776	0	3	n/a	n/a	n/a	n/a	n/a	n/a
3207839	RECOG_RESP	n/a	LTP230	ltpFR	3	1	n/a	KIDNEY	776	0	n/a	n/a	n/a	n/a	n/a	n/a	n/a
3211206	RECOG_CONF	n/a	LTP230	ltpFR	3	1	n/a	KIDNEY	776	n/a	3	n/a	n/a	n/a	n/a	n/a	n/a
3213425	RECOG_TARGET	n/a	LTP230	ltpFR	3	1	1	HANDBAG	684	1	4	0	n/a	n/a	n/a	n/a	n/a
3216477	RECOG_RESP	n/a	LTP230	ltpFR	3	1	1	HANDBAG	684	1	n/a	0	n/a	n/a	n/a	n/a	n/a
3219005	RECOG_CONF	n/a	LTP230	ltpFR	3	1	1	HANDBAG	684	n/a	4	0	n/a	n/a	n/a	n/a	n/a
3220981	RECOG_LURE	n/a	LTP230	ltpFR	3	1	n/a	BOMB	147	0	3	n/a	n/a	n/a	n/a	n/a	n/a
3221761	RECOG_RESP	n/a	LTP230	ltpFR	3	1	n/a	BOMB	147	0	n/a	n/a	n/a	n/a	n/a	n/a	n/a
3222897	RECOG_CONF	n/a	LTP230	ltpFR	3	1	n/a	BOMB	147	n/a	3	n/a	n/a	n/a	n/a	n/a	n/a
3224958	RECOG_LURE	n/a	LTP230	ltpFR	3	1	n/a	VASE	1549	0	4	n/a	n/a	n/a	n/a	n/a	n/a
3225778	RECOG_RESP_VV	n/a	LTP230	ltpFR	3	1	n/a	VASE	1549	1	n/a	n/a	n/a	n/a	n/a	n/a	n/a
3226763	RECOG_RESP	n/a	LTP230	ltpFR	3	1	n/a	VASE	1549	0	n/a	n/a	n/a	n/a	n/a	n/a	n/a
3228462	RECOG_CONF	n/a	LTP230	ltpFR	3	1	n/a	VASE	1549	n/a	4	n/a	n/a	n/a	n/a	n/a	n/a
3230400	RECOG_LURE	n/a	LTP230	ltpFR	3	1	n/a	CLOUD	328	0	4	n/a	n/a	n/a	n/a	n/a	n/a
3231696	RECOG_RESP	n/a	LTP230	ltpFR	3	1	n/a	CLOUD	328	0	n/a	n/a	n/a	n/a	n/a	n/a	n/a
3232887	RECOG_CONF	n/a	LTP230	ltpFR	3	1	n/a	CLOUD	328	n/a	4	n/a	n/a	n/a	n/a	n/a	n/a
3234759	RECOG_LURE	n/a	LTP230	ltpFR	3	1	n/a	MISSILE	900	0	3	n/a	n/a	n/a	n/a	n/a	n/a
3235516	RECOG_RESP	n/a	LTP230	ltpFR	3	1	n/a	MISSILE	900	0	n/a	n/a	n/a	n/a	n/a	n/a	n/a
3236669	RECOG_CONF	n/a	LTP230	ltpFR	3	1	n/a	MISSILE	900	n/a	3	n/a	n/a	n/a	n/a	n/a	n/a
3238703	RECOG_TARGET	n/a	LTP230	ltpFR	3	1	0	PRIMATE	1123	1	5	1	n/a	n/a	n/a	n/a	n/a
3239414	RECOG_RESP	n/a	LTP230	ltpFR	3	1	0	PRIMATE	1123	1	n/a	1	n/a	n/a	n/a	n/a	n/a
3240476	RECOG_CONF	n/a	LTP230	ltpFR	3	1	0	PRIMATE	1123	n/a	5	1	n/a	n/a	n/a	n/a	n/a
3242415	RECOG_LURE	n/a	LTP230	ltpFR	3	1	n/a	JET	756	0	4	n/a	n/a	n/a	n/a	n/a	n/a
3243061	RECOG_RESP	n/a	LTP230	ltpFR	3	1	n/a	JET	756	0	n/a	n/a	n/a	n/a	n/a	n/a	n/a
3244046	RECOG_CONF	n/a	LTP230	ltpFR	3	1	n/a	JET	756	n/a	4	n/a	n/a	n/a	n/a	n/a	n/a
3245943	RECOG_TARGET	n/a	LTP230	ltpFR	3	1	0	SERVANT	1271	0	3	n/a	n/a	n/a	n/a	n/a	n/a
3246671	RECOG_RESP	n/a	LTP230	ltpFR	3	1	0	SERVANT	1271	0	n/a	n/a	n/a	n/a	n/a	n/a	n/a
3247755	RECOG_CONF	n/a	LTP230	ltpFR	3	1	0	SERVANT	1271	n/a	3	n/a	n/a	n/a	n/a	n/a	n/a
3249520	RECOG_TARGET	n/a	LTP230	ltpFR	3	1	1	WAITRESS	1581	1	5	1	n/a	n/a	n/a	n/a	n/a
3250477	RECOG_RESP	n/a	LTP230	ltpFR	3	1	1	WAITRESS	1581	1	n/a	1	n/a	n/a	n/a	n/a	n/a
3251781	RECOG_CONF	n/a	LTP230	ltpFR	3	1	1	WAITRESS	1581	n/a	5	1	n/a	n/a	n/a	n/a	n/a
3253531	RECOG_TARGET	n/a	LTP230	ltpFR	3	1	0	LABYRINTH	791	1	5	1	n/a	n/a	n/a	n/a	n/a
3254197	RECOG_RESP	n/a	LTP230	ltpFR	3	1	0	LABYRINTH	791	1	n/a	1	n/a	n/a	n/a	n/a	n/a
3255283	RECOG_CONF	n/a	LTP230	ltpFR	3	1	0	LABYRINTH	791	n/a	5	1	n/a	n/a	n/a	n/a	n/a
3257010	RECOG_TARGET	n/a	LTP230	ltpFR	3	1	0	OATS	968	1	5	0	n/a	n/a	n/a	n/a	n/a
3257907	RECOG_RESP	n/a	LTP230	ltpFR	3	1	0	OATS	968	1	n/a	0	n/a	n/a	n/a	n/a	n/a
3259166	RECOG_CONF	n/a	LTP230	ltpFR	3	1	0	OATS	968	n/a	5	0	n/a	n/a	n/a	n/a	n/a
3260954	RECOG_LURE	n/a	LTP230	ltpFR	3	1	n/a	BUCKLE	185	0	2	n/a	n/a	n/a	n/a	n/a	n/a
3262131	RECOG_RESP	n/a	LTP230	ltpFR	3	1	n/a	BUCKLE	185	0	n/a	n/a	n/a	n/a	n/a	n/a	n/a
3263425	RECOG_CONF	n/a	LTP230	ltpFR	3	1	n/a	BUCKLE	185	n/a	2	n/a	n/a	n/a	n/a	n/a	n/a
3265115	RECOG_LURE	n/a	LTP230	ltpFR	3	1	n/a	VIKING	1565	1	4	n/a	n/a	n/a	n/a	n/a	n/a
3266321	RECOG_RESP	n/a	LTP230	ltpFR	3	1	n/a	VIKING	1565	1	n/a	n/a	n/a	n/a	n/a	n/a	n/a
3267687	RECOG_CONF	n/a	LTP230	ltpFR	3	1	n/a	VIKING	1565	n/a	4	n/a	n/a	n/a	n/a	n/a	n/a
3269723	RECOG_LURE	n/a	LTP230	ltpFR	3	1	n/a	BRANDY	169	0	3	n/a	n/a	n/a	n/a	n/a	n/a
3270857	RECOG_RESP	n/a	LTP230	ltpFR	3	1	n/a	BRANDY	169	0	n/a	n/a	n/a	n/a	n/a	n/a	n/a
3271854	RECOG_CONF	n/a	LTP230	ltpFR	3	1	n/a	BRANDY	169	n/a	3	n/a	n/a	n/a	n/a	n/a	n/a
3273818	RECOG_TARGET	n/a	LTP230	ltpFR	3	1	0	COURSE	390	1	4	1	n/a	n/a	n/a	n/a	n/a
3275460	RECOG_RESP	n/a	LTP230	ltpFR	3	1	0	COURSE	390	1	n/a	1	n/a	n/a	n/a	n/a	n/a
3276794	RECOG_CONF	n/a	LTP230	ltpFR	3	1	0	COURSE	390	n/a	4	1	n/a	n/a	n/a	n/a	n/a
3278811	RECOG_LURE	n/a	LTP230	ltpFR	3	1	n/a	FOSSIL	596	0	2	n/a	n/a	n/a	n/a	n/a	n/a
3279548	RECOG_RESP	n/a	LTP230	ltpFR	3	1	n/a	FOSSIL	596	0	n/a	n/a	n/a	n/a	n/a	n/a	n/a
3280967	RECOG_CONF	n/a	LTP230	ltpFR	3	1	n/a	FOSSIL	596	n/a	2	n/a	n/a	n/a	n/a	n/a	n/a
3282754	RECOG_TARGET	n/a	LTP230	ltpFR	3	1	-1	CARNIVAL	245	1	4	-1	n/a	n/a	n/a	n/a	n/a
3283534	RECOG_RESP	n/a	LTP230	ltpFR	3	1	-1	CARNIVAL	245	1	n/a	-1	n/a	n/a	n/a	n/a	n/a
3285764	RECOG_CONF	n/a	LTP230	ltpFR	3	1	-1	CARNIVAL	245	n/a	4	-1	n/a	n/a	n/a	n/a	n/a
3288130	RECOG_LURE	n/a	LTP230	ltpFR	3	1	n/a	LAPEL	800	0	4	n/a	n/a	n/a	n/a	n/a	n/a
3290049	RECOG_RESP	n/a	LTP230	ltpFR	3	1	n/a	LAPEL	800	0	n/a	n/a	n/a	n/a	n/a	n/a	n/a
3291518	RECOG_CONF	n/a	LTP230	ltpFR	3	1	n/a	LAPEL	800	n/a	4	n/a	n/a	n/a	n/a	n/a	n/a
3293323	RECOG_TARGET	n/a	LTP230	ltpFR	3	1	0	OTTER	986	1	5	1	n/a	n/a	n/a	n/a	n/a
3294088	RECOG_RESP	n/a	LTP230	ltpFR	3	1	0	OTTER	986	1	n/a	1	n/a	n/a	n/a	n/a	n/a
3295048	RECOG_CONF	n/a	LTP230	ltpFR	3	1	0	OTTER	986	n/a	5	1	n/a	n/a	n/a	n/a	n/a
3304230	REC_START	n/a	LTP230	ltpFR	3	2	n/a	n/a	n/a	n/a	n/a	n/a	n/a	n/a	n/a	n/a	n/a
3304256	RECOG_LURE	n/a	LTP230	ltpFR	3	2	n/a	MATTRESS	879	0	2	n/a	n/a	n/a	n/a	n/a	n/a
3305306	RECOG_RESP	n/a	LTP230	ltpFR	3	2	n/a	MATTRESS	879	0	n/a	n/a	n/a	n/a	n/a	n/a	n/a
3306556	RECOG_CONF	n/a	LTP230	ltpFR	3	2	n/a	MATTRESS	879	n/a	2	n/a	n/a	n/a	n/a	n/a	n/a
3308283	RECOG_LURE	n/a	LTP230	ltpFR	3	2	n/a	DELINQUENT	445	0	4	n/a	n/a	n/a	n/a	n/a	n/a
3309079	RECOG_RESP	n/a	LTP230	ltpFR	3	2	n/a	DELINQUENT	445	0	n/a	n/a	n/a	n/a	n/a	n/a	n/a
3310037	RECOG_CONF	n/a	LTP230	ltpFR	3	2	n/a	DELINQUENT	445	n/a	4	n/a	n/a	n/a	n/a	n/a	n/a
3311861	RECOG_LURE	n/a	LTP230	ltpFR	3	2	n/a	BISON	131	0	5	n/a	n/a	n/a	n/a	n/a	n/a
3312429	RECOG_RESP	n/a	LTP230	ltpFR	3	2	n/a	BISON	131	0	n/a	n/a	n/a	n/a	n/a	n/a	n/a
3313401	RECOG_CONF	n/a	LTP230	ltpFR	3	2	n/a	BISON	131	n/a	5	n/a	n/a	n/a	n/a	n/a	n/a
3315323	RECOG_TARGET	n/a	LTP230	ltpFR	3	2	1	SCENERY	1247	1	5	0	n/a	n/a	n/a	n/a	n/a
3316771	RECOG_RESP	n/a	LTP230	ltpFR	3	2	1	SCENERY	1247	1	n/a	0	n/a	n/a	n/a	n/a	n/a
3317757	RECOG_CONF	n/a	LTP230	ltpFR	3	2	1	SCENERY	1247	n/a	5	0	n/a	n/a	n/a	n/a	n/a
3319616	RECOG_LURE	n/a	LTP230	ltpFR	3	2	n/a	SWITCH	1422	0	3	n/a	n/a	n/a	n/a	n/a	n/a
3320317	RECOG_RESP_VV	n/a	LTP230	ltpFR	3	2	n/a	SWITCH	1422	1	n/a	n/a	n/a	n/a	n/a	n/a	n/a
3321240	RECOG_RESP	n/a	LTP230	ltpFR	3	2	n/a	SWITCH	1422	0	n/a	n/a	n/a	n/a	n/a	n/a	n/a
3322814	RECOG_CONF	n/a	LTP230	ltpFR	3	2	n/a	SWITCH	1422	n/a	3	n/a	n/a	n/a	n/a	n/a	n/a
3324825	RECOG_TARGET	n/a	LTP230	ltpFR	3	2	1	CHESS	294	1	4	0	n/a	n/a	n/a	n/a	n/a
3325754	RECOG_RESP	n/a	LTP230	ltpFR	3	2	1	CHESS	294	1	n/a	0	n/a	n/a	n/a	n/a	n/a
3328023	RECOG_CONF	n/a	LTP230	ltpFR	3	2	1	CHESS	294	n/a	4	0	n/a	n/a	n/a	n/a	n/a
3329717	RECOG_TARGET	n/a	LTP230	ltpFR	3	2	-1	CARTON	251	1	5	-1	n/a	n/a	n/a	n/a	n/a
3330382	RECOG_RESP	n/a	LTP230	ltpFR	3	2	-1	CARTON	251	1	n/a	-1	n/a	n/a	n/a	n/a	n/a
3331375	RECOG_CONF	n/a	LTP230	ltpFR	3	2	-1	CARTON	251	n/a	5	-1	n/a	n/a	n/a	n/a	n/a
3333280	RECOG_LURE	n/a	LTP230	ltpFR	3	2	n/a	FOE	587	0	1	n/a	n/a	n/a	n/a	n/a	n/a
3334091	RECOG_RESP	n/a	LTP230	ltpFR	3	2	n/a	FOE	587	0	n/a	n/a	n/a	n/a	n/a	n/a	n/a
3335066	RECOG_CONF	n/a	LTP230	ltpFR	3	2	n/a	FOE	587	n/a	1	n/a	n/a	n/a	n/a	n/a	n/a
3336707	RECOG_TARGET	n/a	LTP230	ltpFR	3	2	-1	TUXEDO	1525	0	3	-1	n/a	n/a	n/a	n/a	n/a
3337694	RECOG_RESP_VV	n/a	LTP230	ltpFR	3	2	-1	TUXEDO	1525	1	n/a	-1	n/a	n/a	n/a	n/a	n/a
3338876	RECOG_RESP	n/a	LTP230	ltpFR	3	2	-1	TUXEDO	1525	0	n/a	-1	n/a	n/a	n/a	n/a	n/a
3339965	RECOG_CONF	n/a	LTP230	ltpFR	3	2	-1	TUXEDO	1525	n/a	3	-1	n/a	n/a	n/a	n/a	n/a
3341732	RECOG_LURE	n/a	LTP230	ltpFR	3	2	n/a	VET	1560	0	2	n/a	n/a	n/a	n/a	n/a	n/a
3345260	RECOG_RESP	n/a	LTP230	ltpFR	3	2	n/a	VET	1560	0	n/a	n/a	n/a	n/a	n/a	n/a	n/a
3346379	RECOG_CONF	n/a	LTP230	ltpFR	3	2	n/a	VET	1560	n/a	2	n/a	n/a	n/a	n/a	n/a	n/a
3348191	RECOG_LURE	n/a	LTP230	ltpFR	3	2	n/a	AIRPLANE	12	0	2	n/a	n/a	n/a	n/a	n/a	n/a
3349916	RECOG_RESP	n/a	LTP230	ltpFR	3	2	n/a	AIRPLANE	12	0	n/a	n/a	n/a	n/a	n/a	n/a	n/a
3351395	RECOG_CONF	n/a	LTP230	ltpFR	3	2	n/a	AIRPLANE	12	n/a	2	n/a	n/a	n/a	n/a	n/a	n/a
3353283	RECOG_TARGET	n/a	LTP230	ltpFR	3	2	0	PILOT	1070	1	4	1	n/a	n/a	n/a	n/a	n/a
3354198	RECOG_RESP	n/a	LTP230	ltpFR	3	2	0	PILOT	1070	1	n/a	1	n/a	n/a	n/a	n/a	n/a
3355587	RECOG_CONF	n/a	LTP230	ltpFR	3	2	0	PILOT	1070	n/a	4	1	n/a	n/a	n/a	n/a	n/a
3357393	RECOG_LURE	n/a	LTP230	ltpFR	3	2	n/a	TEAM	1441	0	3	n/a	n/a	n/a	n/a	n/a	n/a
3358304	RECOG_RESP	n/a	LTP230	ltpFR	3	2	n/a	TEAM	1441	0	n/a	n/a	n/a	n/a	n/a	n/a	n/a
3359489	RECOG_CONF	n/a	LTP230	ltpFR	3	2	n/a	TEAM	1441	n/a	3	n/a	n/a	n/a	n/a	n/a	n/a
3361354	RECOG_TARGET	n/a	LTP230	ltpFR	3	2	0	ALMANAC	17	1	4	1	n/a	n/a	n/a	n/a	n/a
3362203	RECOG_RESP_VV	n/a	LTP230	ltpFR	3	2	0	ALMANAC	17	0	n/a	1	n/a	n/a	n/a	n/a	n/a
3363040	RECOG_RESP	n/a	LTP230	ltpFR	3	2	0	ALMANAC	17	1	n/a	1	n/a	n/a	n/a	n/a	n/a
3364561	RECOG_CONF	n/a	LTP230	ltpFR	3	2	0	ALMANAC	17	n/a	4	1	n/a	n/a	n/a	n/a	n/a
3367162	RECOG_LURE	n/a	LTP230	ltpFR	3	2	n/a	FINGERNAIL	568	0	1	n/a	n/a	n/a	n/a	n/a	n/a
3368219	RECOG_RESP	n/a	LTP230	ltpFR	3	2	n/a	FINGERNAIL	568	0	n/a	n/a	n/a	n/a	n/a	n/a	n/a
3369662	RECOG_CONF	n/a	LTP230	ltpFR	3	2	n/a	FINGERNAIL	568	n/a	1	n/a	n/a	n/a	n/a	n/a	n/a
3371688	RECOG_TARGET	n/a	LTP230	ltpFR	3	2	1	DIAPER	459	1	3	0	n/a	n/a	n/a	n/a	n/a
3372763	RECOG_RESP	n/a	LTP230	ltpFR	3	2	1	DIAPER	459	1	n/a	0	n/a	n/a	n/a	n/a	n/a
3374198	RECOG_CONF	n/a	LTP230	ltpFR	3	2	1	DIAPER	459	n/a	3	0	n/a	n/a	n/a	n/a	n/a
3376398	RECOG_TARGET	n/a	LTP230	ltpFR	3	2	1	MARKET	871	0	1	1	n/a	n/a	n/a	n/a	n/a
3377265	RECOG_RESP	n/a	LTP230	ltpFR	3	2	1	MARKET	871	0	n/a	1	n/a	n/a	n/a	n/a	n/a
3380700	RECOG_CONF	n/a	LTP230	ltpFR	3	2	1	MARKET	871	n/a	1	1	n/a	n/a	n/a	n/a	n/a
3382755	RECOG_LURE	n/a	LTP230	ltpFR	3	2	n/a	PUBLISHER	1137	1	4	n/a	n/a	n/a	n/a	n/a	n/a
3383854	RECOG_RESP	n/a	LTP230	ltpFR	3	2	n/a	PUBLISHER	1137	1	n/a	n/a	n/a	n/a	n/a	n/a	n/a
3384939	RECOG_CONF	n/a	LTP230	ltpFR	3	2	n/a	PUBLISHER	1137	n/a	4	n/a	n/a	n/a	n/a	n/a	n/a
3386765	RECOG_LURE	n/a	LTP230	ltpFR	3	2	n/a	LUNCH	849	0	3	n/a	n/a	n/a	n/a	n/a	n/a
3392094	RECOG_RESP	n/a	LTP230	ltpFR	3	2	n/a	LUNCH	849	0	n/a	n/a	n/a	n/a	n/a	n/a	n/a
3393262	RECOG_CONF	n/a	LTP230	ltpFR	3	2	n/a	LUNCH	849	n/a	3	n/a	n/a	n/a	n/a	n/a	n/a
3395337	RECOG_TARGET	n/a	LTP230	ltpFR	3	2	-1	BENCH	121	1	4	-1	n/a	n/a	n/a	n/a	n/a
3396350	RECOG_RESP_VV	n/a	LTP230	ltpFR	3	2	-1	BENCH	121	0	n/a	-1	n/a	n/a	n/a	n/a	n/a
3399501	RECOG_RESP	n/a	LTP230	ltpFR	3	2	-1	BENCH	121	1	n/a	-1	n/a	n/a	n/a	n/a	n/a
3400716	RECOG_CONF	n/a	LTP230	ltpFR	3	2	-1	BENCH	121	n/a	4	-1	n/a	n/a	n/a	n/a	n/a
3426094	REC_START	n/a	LTP230	ltpFR	3	3	n/a	n/a	n/a	n/a	n/a	n/a	n/a	n/a	n/a	n/a	n/a
3426124	RECOG_LURE	n/a	LTP230	ltpFR	3	3	n/a	GARAGE	621	0	3	n/a	n/a	n/a	n/a	n/a	n/a
3427716	RECOG_RESP	n/a	LTP230	ltpFR	3	3	n/a	GARAGE	621	0	n/a	n/a	n/a	n/a	n/a	n/a	n/a
3428813	RECOG_CONF	n/a	LTP230	ltpFR	3	3	n/a	GARAGE	621	n/a	3	n/a	n/a	n/a	n/a	n/a	n/a
3430700	RECOG_LURE	n/a	LTP230	ltpFR	3	3	n/a	SHOVEL	1295	0	3	n/a	n/a	n/a	n/a	n/a	n/a
3431674	RECOG_RESP	n/a	LTP230	ltpFR	3	3	n/a	SHOVEL	1295	0	n/a	n/a	n/a	n/a	n/a	n/a	n/a
3432781	RECOG_CONF	n/a	LTP230	ltpFR	3	3	n/a	SHOVEL	1295	n/a	3	n/a	n/a	n/a	n/a	n/a	n/a
3434594	RECOG_LURE	n/a	LTP230	ltpFR	3	3	n/a	SEASHORE	1263	0	2	n/a	n/a	n/a	n/a	n/a	n/a
3437401	RECOG_RESP	n/a	LTP230	ltpFR	3	3	n/a	SEASHORE	1263	0	n/a	n/a	n/a	n/a	n/a	n/a	n/a
3438740	RECOG_CONF	n/a	LTP230	ltpFR	3	3	n/a	SEASHORE	1263	n/a	2	n/a	n/a	n/a	n/a	n/a	n/a
3440585	RECOG_TARGET	n/a	LTP230	ltpFR	3	3	-1	THREAD	1460	1	4	-1	n/a	n/a	n/a	n/a	n/a
3441327	RECOG_RESP	n/a	LTP230	ltpFR	3	3	-1	THREAD	1460	1	n/a	-1	n/a	n/a	n/a	n/a	n/a
3442487	RECOG_CONF	n/a	LTP230	ltpFR	3	3	-1	THREAD	1460	n/a	4	-1	n/a	n/a	n/a	n/a	n/a
3444364	RECOG_TARGET	n/a	LTP230	ltpFR	3	3	1	SARDINE	1235	1	5	0	n/a	n/a	n/a	n/a	n/a
3445023	RECOG_RESP	n/a	LTP230	ltpFR	3	3	1	SARDINE	1235	1	n/a	0	n/a	n/a	n/a	n/a	n/a
3446163	RECOG_CONF	n/a	LTP230	ltpFR	3	3	1	SARDINE	1235	n/a	5	0	n/a	n/a	n/a	n/a	n/a
3448125	RECOG_LURE	n/a	LTP230	ltpFR	3	3	n/a	INN	739	0	4	n/a	n/a	n/a	n/a	n/a	n/a
3448741	RECOG_RESP	n/a	LTP230	ltpFR	3	3	n/a	INN	739	0	n/a	n/a	n/a	n/a	n/a	n/a	n/a
3449975	RECOG_CONF	n/a	LTP230	ltpFR	3	3	n/a	INN	739	n/a	4	n/a	n/a	n/a	n/a	n/a	n/a
3451602	RECOG_LURE	n/a	LTP230	ltpFR	3	3	n/a	LIEUTENANT	818	0	5	n/a	n/a	n/a	n/a	n/a	n/a
3452449	RECOG_RESP	n/a	LTP230	ltpFR	3	3	n/a	LIEUTENANT	818	0	n/a	n/a	n/a	n/a	n/a	n/a	n/a
3453324	RECOG_CONF	n/a	LTP230	ltpFR	3	3	n/a	LIEUTENANT	818	n/a	5	n/a	n/a	n/a	n/a	n/a	n/a
3455496	RECOG_LURE	n/a	LTP230	ltpFR	3	3	n/a	CONVICT	371	0	3	n/a	n/a	n/a	n/a	n/a	n/a
3456661	RECOG_RESP	n/a	LTP230	ltpFR	3	3	n/a	CONVICT	371	0	n/a	n/a	n/a	n/a	n/a	n/a	n/a
3457884	RECOG_CONF	n/a	LTP230	ltpFR	3	3	n/a	CONVICT	371	n/a	3	n/a	n/a	n/a	n/a	n/a	n/a
3459656	RECOG_LURE	n/a	LTP230	ltpFR	3	3	n/a	CAVITY	264	0	4	n/a	n/a	n/a	n/a	n/a	n/a
3460499	RECOG_RESP	n/a	LTP230	ltpFR	3	3	n/a	CAVITY	264	0	n/a	n/a	n/a	n/a	n/a	n/a	n/a
3461368	RECOG_CONF	n/a	LTP230	ltpFR	3	3	n/a	CAVITY	264	n/a	4	n/a	n/a	n/a	n/a	n/a	n/a
3463302	RECOG_LURE	n/a	LTP230	ltpFR	3	3	n/a	PADDLE	1000	1	5	n/a	n/a	n/a	n/a	n/a	n/a
3464328	RECOG_RESP	n/a	LTP230	ltpFR	3	3	n/a	PADDLE	1000	1	n/a	n/a	n/a	n/a	n/a	n/a	n/a
3465344	RECOG_CONF	n/a	LTP230	ltpFR	3	3	n/a	PADDLE	1000	n/a	5	n/a	n/a	n/a	n/a	n/a	n/a
3467296	RECOG_LURE	n/a	LTP230	ltpFR	3	3	n/a	GLACIER	638	1	1	n/a	n/a	n/a	n/a	n/a	n/a
3469614	RECOG_RESP	n/a	LTP230	ltpFR	3	3	n/a	GLACIER	638	1	n/a	n/a	n/a	n/a	n/a	n/a	n/a
3471166	RECOG_CONF	n/a	LTP230	ltpFR	3	3	n/a	GLACIER	638	n/a	1	n/a	n/a	n/a	n/a	n/a	n/a
3473037	RECOG_LURE	n/a	LTP230	ltpFR	3	3	n/a	MARBLE	867	1	3	n/a	n/a	n/a	n/a	n/a	n/a
3474341	RECOG_RESP	n/a	LTP230	ltpFR	3	3	n/a	MARBLE	867	1	n/a	n/a	n/a	n/a	n/a	n/a	n/a
3475424	RECOG_CONF	n/a	LTP230	ltpFR	3	3	n/a	MARBLE	867	n/a	3	n/a	n/a	n/a	n/a	n/a	n/a
3477264	RECOG_LURE	n/a	LTP230	ltpFR	3	3	n/a	WALNUT	1584	1	2	n/a	n/a	n/a	n/a	n/a	n/a
3480700	RECOG_RESP	n/a	LTP230	ltpFR	3	3	n/a	WALNUT	1584	1	n/a	n/a	n/a	n/a	n/a	n/a	n/a
3482501	RECOG_CONF	n/a	LTP230	ltpFR	3	3	n/a	WALNUT	1584	n/a	2	n/a	n/a	n/a	n/a	n/a	n/a
3484437	RECOG_LURE	n/a	LTP230	ltpFR	3	3	n/a	SALESMAN	1225	0	2	n/a	n/a	n/a	n/a	n/a	n/a
3487302	RECOG_RESP	n/a	LTP230	ltpFR	3	3	n/a	SALESMAN	1225	0	n/a	n/a	n/a	n/a	n/a	n/a	n/a
3488835	RECOG_CONF	n/a	LTP230	ltpFR	3	3	n/a	SALESMAN	1225	n/a	2	n/a	n/a	n/a	n/a	n/a	n/a
3490494	RECOG_LURE	n/a	LTP230	ltpFR	3	3	n/a	PIT	1077	0	3	n/a	n/a	n/a	n/a	n/a	n/a
3491917	RECOG_RESP	n/a	LTP230	ltpFR	3	3	n/a	PIT	1077	0	n/a	n/a	n/a	n/a	n/a	n/a	n/a
3492760	RECOG_CONF	n/a	LTP230	ltpFR	3	3	n/a	PIT	1077	n/a	3	n/a	n/a	n/a	n/a	n/a	n/a
3494822	RECOG_TARGET	n/a	LTP230	ltpFR	3	3	0	LUNG	850	0	4	0	n/a	n/a	n/a	n/a	n/a
3495577	RECOG_RESP	n/a	LTP230	ltpFR	3	3	0	LUNG	850	0	n/a	0	n/a	n/a	n/a	n/a	n/a
3496628	RECOG_CONF	n/a	LTP230	ltpFR	3	3	0	LUNG	850	n/a	4	0	n/a	n/a	n/a	n/a	n/a
3498582	RECOG_TARGET	n/a	LTP230	ltpFR	3	3	0	NEPTUNE	943	1	5	1	n/a	n/a	n/a	n/a	n/a
3499409	RECOG_RESP	n/a	LTP230	ltpFR	3	3	0	NEPTUNE	943	1	n/a	1	n/a	n/a	n/a	n/a	n/a
3500346	RECOG_CONF	n/a	LTP230	ltpFR	3	3	0	NEPTUNE	943	n/a	5	1	n/a	n/a	n/a	n/a	n/a
3502360	RECOG_LURE	n/a	LTP230	ltpFR	3	3	n/a	ANCESTOR	20	0	3	n/a	n/a	n/a	n/a	n/a	n/a
3503231	RECOG_RESP	n/a	LTP230	ltpFR	3	3	n/a	ANCESTOR	20	0	n/a	n/a	n/a	n/a	n/a	n/a	n/a
3504162	RECOG_CONF	n/a	LTP230	ltpFR	3	3	n/a	ANCESTOR	20	n/a	3	n/a	n/a	n/a	n/a	n/a	n/a
3506155	RECOG_TARGET	n/a	LTP230	ltpFR	3	3	1	WASHER	1592	1	5	0	n/a	n/a	n/a	n/a	n/a
3507247	RECOG_RESP	n/a	LTP230	ltpFR	3	3	1	WASHER	1592	1	n/a	0	n/a	n/a	n/a	n/a	n/a
3508512	RECOG_CONF	n/a	LTP230	ltpFR	3	3	1	WASHER	1592	n/a	5	0	n/a	n/a	n/a	n/a	n/a
3510348	RECOG_LURE	n/a	LTP230	ltpFR	3	3	n/a	FRAGRANCE	599	0	3	n/a	n/a	n/a	n/a	n/a	n/a
3511378	RECOG_RESP	n/a	LTP230	ltpFR	3	3	n/a	FRAGRANCE	599	0	n/a	n/a	n/a	n/a	n/a	n/a	n/a
3512492	RECOG_CONF	n/a	LTP230	ltpFR	3	3	n/a	FRAGRANCE	599	n/a	3	n/a	n/a	n/a	n/a	n/a	n/a
3516857	REC_START	n/a	LTP230	ltpFR	3	4	n/a	n/a	n/a	n/a	n/a	n/a	n/a	n/a	n/a	n/a	n/a
3516889	RECOG_LURE	n/a	LTP230	ltpFR	3	4	n/a	CONCRETE	361	0	3	n/a	n/a	n/a	n/a	n/a	n/a
3517725	RECOG_RESP	n/a	LTP230	ltpFR	3	4	n/a	CONCRETE	361	0	n/a	n/a	n/a	n/a	n/a	n/a	n/a
3518748	RECOG_CONF	n/a	LTP230	ltpFR	3	4	n/a	CONCRETE	361	n/a	3	n/a	n/a	n/a	n/a	n/a	n/a
3520417	RECOG_LURE	n/a	LTP230	ltpFR	3	4	n/a	CROOK	412	0	4	n/a	n/a	n/a	n/a	n/a	n/a
3521218	RECOG_RESP	n/a	LTP230	ltpFR	3	4	n/a	CROOK	412	0	n/a	n/a	n/a	n/a	n/a	n/a	n/a
3522110	RECOG_CONF	n/a	LTP230	ltpFR	3	4	n/a	CROOK	412	n/a	4	n/a	n/a	n/a	n/a	n/a	n/a
3523795	RECOG_LURE	n/a	LTP230	ltpFR	3	4	n/a	NOTE	958	0	2	n/a	n/a	n/a	n/a	n/a	n/a
3524506	RECOG_RESP	n/a	LTP230	ltpFR	3	4	n/a	NOTE	958	0	n/a	n/a	n/a	n/a	n/a	n/a	n/a
3525669	RECOG_CONF	n/a	LTP230	ltpFR	3	4	n/a	NOTE	958	n/a	2	n/a	n/a	n/a	n/a	n/a	n/a
3527605	RECOG_TARGET	n/a	LTP230	ltpFR	3	4	0	HOOP	716	1	5	1	n/a	n/a	n/a	n/a	n/a
3528318	RECOG_RESP	n/a	LTP230	ltpFR	3	4	0	HOOP	716	1	n/a	1	n/a	n/a	n/a	n/a	n/a
3529296	RECOG_CONF	n/a	LTP230	ltpFR	3	4	0	HOOP	716	n/a	5	1	n/a	n/a	n/a	n/a	n/a
3531334	RECOG_LURE	n/a	LTP230	ltpFR	3	4	n/a	EDITOR	516	0	3	n/a	n/a	n/a	n/a	n/a	n/a
3532066	RECOG_RESP	n/a	LTP230	ltpFR	3	4	n/a	EDITOR	516	0	n/a	n/a	n/a	n/a	n/a	n/a	n/a
3533195	RECOG_CONF	n/a	LTP230	ltpFR	3	4	n/a	EDITOR	516	n/a	3	n/a	n/a	n/a	n/a	n/a	n/a
3535028	RECOG_LURE	n/a	LTP230	ltpFR	3	4	n/a	TOOTHBRUSH	1482	0	3	n/a	n/a	n/a	n/a	n/a	n/a
3535750	RECOG_RESP	n/a	LTP230	ltpFR	3	4	n/a	TOOTHBRUSH	1482	0	n/a	n/a	n/a	n/a	n/a	n/a	n/a
3536886	RECOG_CONF	n/a	LTP230	ltpFR	3	4	n/a	TOOTHBRUSH	1482	n/a	3	n/a	n/a	n/a	n/a	n/a	n/a
3538922	RECOG_TARGET	n/a	LTP230	ltpFR	3	4	0	ASH	44	0	2	0	n/a	n/a	n/a	n/a	n/a
3539836	RECOG_RESP	n/a	LTP230	ltpFR	3	4	0	ASH	44	0	n/a	0	n/a	n/a	n/a	n/a	n/a
3541903	RECOG_CONF	n/a	LTP230	ltpFR	3	4	0	ASH	44	n/a	2	0	n/a	n/a	n/a	n/a	n/a
3543648	RECOG_LURE	n/a	LTP230	ltpFR	3	4	n/a	LIGHTNING	820	0	2	n/a	n/a	n/a	n/a	n/a	n/a
3544448	RECOG_RESP	n/a	LTP230	ltpFR	3	4	n/a	LIGHTNING	820	0	n/a	n/a	n/a	n/a	n/a	n/a	n/a
3545645	RECOG_CONF	n/a	LTP230	ltpFR	3	4	n/a	LIGHTNING	820	n/a	2	n/a	n/a	n/a	n/a	n/a	n/a
3547608	RECOG_LURE	n/a	LTP230	ltpFR	3	4	n/a	VIRUS	1572	0	4	n/a	n/a	n/a	n/a	n/a	n/a
3548274	RECOG_RESP	n/a	LTP230	ltpFR	3	4	n/a	VIRUS	1572	0	n/a	n/a	n/a	n/a	n/a	n/a	n/a
3549185	RECOG_CONF	n/a	LTP230	ltpFR	3	4	n/a	VIRUS	1572	n/a	4	n/a	n/a	n/a	n/a	n/a	n/a
3551271	RECOG_LURE	n/a	LTP230	ltpFR	3	4	n/a	HANDCUFFS	685	0	5	n/a	n/a	n/a	n/a	n/a	n/a
3552199	RECOG_RESP	n/a	LTP230	ltpFR	3	4	n/a	HANDCUFFS	685	0	n/a	n/a	n/a	n/a	n/a	n/a	n/a
3553040	RECOG_CONF	n/a	LTP230	ltpFR	3	4	n/a	HANDCUFFS	685	n/a	5	n/a	n/a	n/a	n/a	n/a	n/a
3554932	RECOG_LURE	n/a	LTP230	ltpFR	3	4	n/a	PIG	1064	0	3	n/a	n/a	n/a	n/a	n/a	n/a
3555662	RECOG_RESP	n/a	LTP230	ltpFR	3	4	n/a	PIG	1064	0	n/a	n/a	n/a	n/a	n/a	n/a	n/a
3556730	RECOG_CONF	n/a	LTP230	ltpFR	3	4	n/a	PIG	1064	n/a	3	n/a	n/a	n/a	n/a	n/a	n/a
3558826	RECOG_TARGET	n/a	LTP230	ltpFR	3	4	0	CRACKER	398	1	4	0	n/a	n/a	n/a	n/a	n/a
3560529	RECOG_RESP	n/a	LTP230	ltpFR	3	4	0	CRACKER	398	1	n/a	0	n/a	n/a	n/a	n/a	n/a
3561590	RECOG_CONF	n/a	LTP230	ltpFR	3	4	0	CRACKER	398	n/a	4	0	n/a	n/a	n/a	n/a	n/a
3563369	RECOG_LURE	n/a	LTP230	ltpFR	3	4	n/a	BEE	112	0	3	n/a	n/a	n/a	n/a	n/a	n/a
3564089	RECOG_RESP	n/a	LTP230	ltpFR	3	4	n/a	BEE	112	0	n/a	n/a	n/a	n/a	n/a	n/a	n/a
3565113	RECOG_CONF	n/a	LTP230	ltpFR	3	4	n/a	BEE	112	n/a	3	n/a	n/a	n/a	n/a	n/a	n/a
3566864	RECOG_TARGET	n/a	LTP230	ltpFR	3	4	1	BROOM	178	1	5	0	n/a	n/a	n/a	n/a	n/a
3567552	RECOG_RESP	n/a	LTP230	ltpFR	3	4	1	BROOM	178	1	n/a	0	n/a	n/a	n/a	n/a	n/a
3568495	RECOG_CONF	n/a	LTP230	ltpFR	3	4	1	BROOM	178	n/a	5	0	n/a	n/a	n/a	n/a	n/a
3570425	RECOG_LURE	n/a	LTP230	ltpFR	3	4	n/a	FIST	572	0	3	n/a	n/a	n/a	n/a	n/a	n/a
3571080	RECOG_RESP	n/a	LTP230	ltpFR	3	4	n/a	FIST	572	0	n/a	n/a	n/a	n/a	n/a	n/a	n/a
3572276	RECOG_CONF	n/a	LTP230	ltpFR	3	4	n/a	FIST	572	n/a	3	n/a	n/a	n/a	n/a	n/a	n/a
3574436	RECOG_LURE	n/a	LTP230	ltpFR	3	4	n/a	BALLERINA	74	0	4	n/a	n/a	n/a	n/a	n/a	n/a
3575137	RECOG_RESP	n/a	LTP230	ltpFR	3	4	n/a	BALLERINA	74	0	n/a	n/a	n/a	n/a	n/a	n/a	n/a
3576048	RECOG_CONF	n/a	LTP230	ltpFR	3	4	n/a	BALLERINA	74	n/a	4	n/a	n/a	n/a	n/a	n/a	n/a
3577798	RECOG_TARGET	n/a	LTP230	ltpFR	3	4	0	PARIS	1014	1	5	1	n/a	n/a	n/a	n/a	n/a
3578589	RECOG_RESP	n/a	LTP230	ltpFR	3	4	0	PARIS	1014	1	n/a	1	n/a	n/a	n/a	n/a	n/a
3579733	RECOG_CONF	n/a	LTP230	ltpFR	3	4	0	PARIS	1014	n/a	5	1	n/a	n/a	n/a	n/a	n/a
3581591	RECOG_LURE	n/a	LTP230	ltpFR	3	4	n/a	ROUGE	1213	0	3	n/a	n/a	n/a	n/a	n/a	n/a
3582277	RECOG_RESP	n/a	LTP230	ltpFR	3	4	n/a	ROUGE	1213	0	n/a	n/a	n/a	n/a	n/a	n/a	n/a
3583357	RECOG_CONF	n/a	LTP230	ltpFR	3	4	n/a	ROUGE	1213	n/a	3	n/a	n/a	n/a	n/a	n/a	n/a
3585303	RECOG_TARGET	n/a	LTP230	ltpFR	3	4	1	POLYESTER	1100	1	4	0	n/a	n/a	n/a	n/a	n/a
3586817	RECOG_RESP	n/a	LTP230	ltpFR	3	4	1	POLYESTER	1100	1	n/a	0	n/a	n/a	n/a	n/a	n/a
3588010	RECOG_CONF	n/a	LTP230	ltpFR	3	4	1	POLYESTER	1100	n/a	4	0	n/a	n/a	n/a	n/a	n/a
3590013	RECOG_LURE	n/a	LTP230	ltpFR	3	4	n/a	SWIMMER	1420	0	3	n/a	n/a	n/a	n/a	n/a	n/a
3590780	RECOG_RESP	n/a	LTP230	ltpFR	3	4	n/a	SWIMMER	1420	0	n/a	n/a	n/a	n/a	n/a	n/a	n/a
3593257	RECOG_CONF	n/a	LTP230	ltpFR	3	4	n/a	SWIMMER	1420	n/a	3	n/a	n/a	n/a	n/a	n/a	n/a
3615410	REC_START	n/a	LTP230	ltpFR	3	5	n/a	n/a	n/a	n/a	n/a	n/a	n/a	n/a	n/a	n/a	n/a
3615441	RECOG_LURE	n/a	LTP230	ltpFR	3	5	n/a	ROCK	1201	0	3	n/a	n/a	n/a	n/a	n/a	n/a
3617042	RECOG_RESP	n/a	LTP230	ltpFR	3	5	n/a	ROCK	1201	0	n/a	n/a	n/a	n/a	n/a	n/a	n/a
3618069	RECOG_CONF	n/a	LTP230	ltpFR	3	5	n/a	ROCK	1201	n/a	3	n/a	n/a	n/a	n/a	n/a	n/a
3619767	RECOG_LURE	n/a	LTP230	ltpFR	3	5	n/a	TWIN	1528	0	2	n/a	n/a	n/a	n/a	n/a	n/a
3620462	RECOG_RESP	n/a	LTP230	ltpFR	3	5	n/a	TWIN	1528	0	n/a	n/a	n/a	n/a	n/a	n/a	n/a
3621387	RECOG_CONF	n/a	LTP230	ltpFR	3	5	n/a	TWIN	1528	n/a	2	n/a	n/a	n/a	n/a	n/a	n/a
3623246	RECOG_TARGET	n/a	LTP230	ltpFR	3	5	1	VETERAN	1561	1	5	1	n/a	n/a	n/a	n/a	n/a
3625272	RECOG_RESP	n/a	LTP230	ltpFR	3	5	1	VETERAN	1561	1	n/a	1	n/a	n/a	n/a	n/a	n/a
3626258	RECOG_CONF	n/a	LTP230	ltpFR	3	5	1	VETERAN	1561	n/a	5	1	n/a	n/a	n/a	n/a	n/a
3628206	RECOG_TARGET	n/a	LTP230	ltpFR	3	5	0	ACROBAT	4	0	3	1	n/a	n/a	n/a	n/a	n/a
3629009	RECOG_RESP	n/a	LTP230	ltpFR	3	5	0	ACROBAT	4	0	n/a	1	n/a	n/a	n/a	n/a	n/a
3630111	RECOG_CONF	n/a	LTP230	ltpFR	3	5	0	ACROBAT	4	n/a	3	1	n/a	n/a	n/a	n/a	n/a
3631884	RECOG_TARGET	n/a	LTP230	ltpFR	3	5	0	POSSUM	1112	0	3	n/a	n/a	n/a	n/a	n/a	n/a
3633668	RECOG_RESP	n/a	LTP230	ltpFR	3	5	0	POSSUM	1112	0	n/a	n/a	n/a	n/a	n/a	n/a	n/a
3634643	RECOG_CONF	n/a	LTP230	ltpFR	3	5	0	POSSUM	1112	n/a	3	n/a	n/a	n/a	n/a	n/a	n/a
3636759	RECOG_TARGET	n/a	LTP230	ltpFR	3	5	1	INCENSE	735	1	4	0	n/a	n/a	n/a	n/a	n/a
3638037	RECOG_RESP	n/a	LTP230	ltpFR	3	5	1	INCENSE	735	1	n/a	0	n/a	n/a	n/a	n/a	n/a
3639043	RECOG_CONF	n/a	LTP230	ltpFR	3	5	1	INCENSE	735	n/a	4	0	n/a	n/a	n/a	n/a	n/a
3641170	RECOG_TARGET	n/a	LTP230	ltpFR	3	5	0	CLASS	318	1	5	0	n/a	n/a	n/a	n/a	n/a
3642232	RECOG_RESP	n/a	LTP230	ltpFR	3	5	0	CLASS	318	1	n/a	0	n/a	n/a	n/a	n/a	n/a
3643545	RECOG_CONF	n/a	LTP230	ltpFR	3	5	0	CLASS	318	n/a	5	0	n/a	n/a	n/a	n/a	n/a
3645447	RECOG_LURE	n/a	LTP230	ltpFR	3	5	n/a	PARENT	1013	0	2	n/a	n/a	n/a	n/a	n/a	n/a
3646319	RECOG_RESP	n/a	LTP230	ltpFR	3	5	n/a	PARENT	1013	0	n/a	n/a	n/a	n/a	n/a	n/a	n/a
3647595	RECOG_CONF	n/a	LTP230	ltpFR	3	5	n/a	PARENT	1013	n/a	2	n/a	n/a	n/a	n/a	n/a	n/a
3649457	RECOG_LURE	n/a	LTP230	ltpFR	3	5	n/a	HARP	689	0	3	n/a	n/a	n/a	n/a	n/a	n/a
3650922	RECOG_RESP	n/a	LTP230	ltpFR	3	5	n/a	HARP	689	0	n/a	n/a	n/a	n/a	n/a	n/a	n/a
3652130	RECOG_CONF	n/a	LTP230	ltpFR	3	5	n/a	HARP	689	n/a	3	n/a	n/a	n/a	n/a	n/a	n/a
3654250	RECOG_TARGET	n/a	LTP230	ltpFR	3	5	0	MANAGER	863	1	5	1	n/a	n/a	n/a	n/a	n/a
3655177	RECOG_RESP	n/a	LTP230	ltpFR	3	5	0	MANAGER	863	1	n/a	1	n/a	n/a	n/a	n/a	n/a
3656538	RECOG_CONF	n/a	LTP230	ltpFR	3	5	0	MANAGER	863	n/a	5	1	n/a	n/a	n/a	n/a	n/a
3658742	RECOG_LURE	n/a	LTP230	ltpFR	3	5	n/a	PRIEST	1122	1	3	n/a	n/a	n/a	n/a	n/a	n/a
3659792	RECOG_RESP_VV	n/a	LTP230	ltpFR	3	5	n/a	PRIEST	1122	0	n/a	n/a	n/a	n/a	n/a	n/a	n/a
3660935	RECOG_RESP	n/a	LTP230	ltpFR	3	5	n/a	PRIEST	1122	1	n/a	n/a	n/a	n/a	n/a	n/a	n/a
3662120	RECOG_CONF	n/a	LTP230	ltpFR	3	5	n/a	PRIEST	1122	n/a	3	n/a	n/a	n/a	n/a	n/a	n/a
3663986	RECOG_TARGET	n/a	LTP230	ltpFR	3	5	0	DICTIONARY	463	1	3	0	n/a	n/a	n/a	n/a	n/a
3664833	RECOG_RESP	n/a	LTP230	ltpFR	3	5	0	DICTIONARY	463	1	n/a	0	n/a	n/a	n/a	n/a	n/a
3665908	RECOG_CONF	n/a	LTP230	ltpFR	3	5	0	DICTIONARY	463	n/a	3	0	n/a	n/a	n/a	n/a	n/a
3667863	RECOG_TARGET	n/a	LTP230	ltpFR	3	5	-1	BLADE	134	1	3	-1	n/a	n/a	n/a	n/a	n/a
3668906	RECOG_RESP_VV	n/a	LTP230	ltpFR	3	5	-1	BLADE	134	0	n/a	-1	n/a	n/a	n/a	n/a	n/a
3671107	RECOG_RESP	n/a	LTP230	ltpFR	3	5	-1	BLADE	134	1	n/a	-1	n/a	n/a	n/a	n/a	n/a
3672505	RECOG_CONF	n/a	LTP230	ltpFR	3	5	-1	BLADE	134	n/a	3	-1	n/a	n/a	n/a	n/a	n/a
3674602	RECOG_LURE	n/a	LTP230	ltpFR	3	5	n/a	KNAPSACK	783	0	2	n/a	n/a	n/a	n/a	n/a	n/a
3677243	RECOG_RESP	n/a	LTP230	ltpFR	3	5	n/a	KNAPSACK	783	0	n/a	n/a	n/a	n/a	n/a	n/a	n/a
3678615	RECOG_CONF	n/a	LTP230	ltpFR	3	5	n/a	KNAPSACK	783	n/a	2	n/a	n/a	n/a	n/a	n/a	n/a
3680444	RECOG_LURE	n/a	LTP230	ltpFR	3	5	n/a	GRIZZLY	662	0	4	n/a	n/a	n/a	n/a	n/a	n/a
3681255	RECOG_RESP	n/a	LTP230	ltpFR	3	5	n/a	GRIZZLY	662	0	n/a	n/a	n/a	n/a	n/a	n/a	n/a
3682462	RECOG_CONF	n/a	LTP230	ltpFR	3	5	n/a	GRIZZLY	662	n/a	4	n/a	n/a	n/a	n/a	n/a	n/a
3684422	RECOG_LURE	n/a	LTP230	ltpFR	3	5	n/a	HIKER	708	0	5	n/a	n/a	n/a	n/a	n/a	n/a
3685187	RECOG_RESP	n/a	LTP230	ltpFR	3	5	n/a	HIKER	708	0	n/a	n/a	n/a	n/a	n/a	n/a	n/a
3686076	RECOG_CONF	n/a	LTP230	ltpFR	3	5	n/a	HIKER	708	n/a	5	n/a	n/a	n/a	n/a	n/a	n/a
3687950	RECOG_TARGET	n/a	LTP230	ltpFR	3	5	-1	BANQUET	86	1	5	-1	n/a	n/a	n/a	n/a	n/a
3688748	RECOG_RESP	n/a	LTP230	ltpFR	3	5	-1	BANQUET	86	1	n/a	-1	n/a	n/a	n/a	n/a	n/a
3689673	RECOG_CONF	n/a	LTP230	ltpFR	3	5	-1	BANQUET	86	n/a	5	-1	n/a	n/a	n/a	n/a	n/a
3691560	RECOG_TARGET	n/a	LTP230	ltpFR	3	5	-1	CURB	426	1	5	-1	n/a	n/a	n/a	n/a	n/a
3692457	RECOG_RESP	n/a	LTP230	ltpFR	3	5	-1	CURB	426	1	n/a	-1	n/a	n/a	n/a	n/a	n/a
3693519	RECOG_CONF	n/a	LTP230	ltpFR	3	5	-1	CURB	426	n/a	5	-1	n/a	n/a	n/a	n/a	n/a
3695938	RECOG_LURE	n/a	LTP230	ltpFR	3	5	n/a	PASSAGE	1019	0	2	n/a	n/a	n/a	n/a	n/a	n/a
3696793	RECOG_RESP	n/a	LTP230	ltpFR	3	5	n/a	PASSAGE	1019	0	n/a	n/a	n/a	n/a	n/a	n/a	n/a
3698013	RECOG_CONF	n/a	LTP230	ltpFR	3	5	n/a	PASSAGE	1019	n/a	2	n/a	n/a	n/a	n/a	n/a	n/a
3699698	RECOG_LURE	n/a	LTP230	ltpFR	3	5	n/a	THORN	1459	0	3	n/a	n/a	n/a	n/a	n/a	n/a
3700770	RECOG_RESP	n/a	LTP230	ltpFR	3	5	n/a	THORN	1459	0	n/a	n/a	n/a	n/a	n/a	n/a	n/a
3701888	RECOG_CONF	n/a	LTP230	ltpFR	3	5	n/a	THORN	1459	n/a	3	n/a	n/a	n/a	n/a	n/a	n/a
3709482	REC_START	n/a	LTP230	ltpFR	3	6	n/a	n/a	n/a	n/a	n/a	n/a	n/a	n/a	n/a	n/a	n/a
3709517	RECOG_LURE	n/a	LTP230	ltpFR	3	6	n/a	SPICE	1350	0	3	n/a	n/a	n/a	n/a	n/a	n/a
3710328	RECOG_RESP	n/a	LTP230	ltpFR	3	6	n/a	SPICE	1350	0	n/a	n/a	n/a	n/a	n/a	n/a	n/a
3711263	RECOG_CONF	n/a	LTP230	ltpFR	3	6	n/a	SPICE	1350	n/a	3	n/a	n/a	n/a	n/a	n/a	n/a
3712962	RECOG_LURE	n/a	LTP230	ltpFR	3	6	n/a	PLAQUE	1084	1	2	n/a	n/a	n/a	n/a	n/a	n/a
3714473	RECOG_RESP	n/a	LTP230	ltpFR	3	6	n/a	PLAQUE	1084	1	n/a	n/a	n/a	n/a	n/a	n/a	n/a
3715688	RECOG_CONF	n/a	LTP230	ltpFR	3	6	n/a	PLAQUE	1084	n/a	2	n/a	n/a	n/a	n/a	n/a	n/a
3717555	RECOG_LURE	n/a	LTP230	ltpFR	3	6	n/a	DOUGHNUT	490	0	3	n/a	n/a	n/a	n/a	n/a	n/a
3718681	RECOG_RESP	n/a	LTP230	ltpFR	3	6	n/a	DOUGHNUT	490	0	n/a	n/a	n/a	n/a	n/a	n/a	n/a
3719883	RECOG_CONF	n/a	LTP230	ltpFR	3	6	n/a	DOUGHNUT	490	n/a	3	n/a	n/a	n/a	n/a	n/a	n/a
3721799	RECOG_TARGET	n/a	LTP230	ltpFR	3	6	1	DIARY	460	1	3	0	n/a	n/a	n/a	n/a	n/a
3722880	RECOG_RESP	n/a	LTP230	ltpFR	3	6	1	DIARY	460	1	n/a	0	n/a	n/a	n/a	n/a	n/a
3723944	RECOG_CONF	n/a	LTP230	ltpFR	3	6	1	DIARY	460	n/a	3	0	n/a	n/a	n/a	n/a	n/a
3725843	RECOG_TARGET	n/a	LTP230	ltpFR	3	6	0	LEOPARD	812	1	4	1	n/a	n/a	n/a	n/a	n/a
3726901	RECOG_RESP	n/a	LTP230	ltpFR	3	6	0	LEOPARD	812	1	n/a	1	n/a	n/a	n/a	n/a	n/a
3727809	RECOG_CONF	n/a	LTP230	ltpFR	3	6	0	LEOPARD	812	n/a	4	1	n/a	n/a	n/a	n/a	n/a
3729503	RECOG_TARGET	n/a	LTP230	ltpFR	3	6	1	LIPSTICK	829	1	5	0	n/a	n/a	n/a	n/a	n/a
3730287	RECOG_RESP	n/a	LTP230	ltpFR	3	6	1	LIPSTICK	829	1	n/a	0	n/a	n/a	n/a	n/a	n/a
3731313	RECOG_CONF	n/a	LTP230	ltpFR	3	6	1	LIPSTICK	829	n/a	5	0	n/a	n/a	n/a	n/a	n/a
3733265	RECOG_TARGET	n/a	LTP230	ltpFR	3	6	1	LADY	794	1	5	1	n/a	n/a	n/a	n/a	n/a
3733996	RECOG_RESP	n/a	LTP230	ltpFR	3	6	1	LADY	794	1	n/a	1	n/a	n/a	n/a	n/a	n/a
3735267	RECOG_CONF	n/a	LTP230	ltpFR	3	6	1	LADY	794	n/a	5	1	n/a	n/a	n/a	n/a	n/a
3737226	RECOG_LURE	n/a	LTP230	ltpFR	3	6	n/a	PRISONER	1128	0	3	n/a	n/a	n/a	n/a	n/a	n/a
3738232	RECOG_RESP	n/a	LTP230	ltpFR	3	6	n/a	PRISONER	1128	0	n/a	n/a	n/a	n/a	n/a	n/a	n/a
3739548	RECOG_CONF	n/a	LTP230	ltpFR	3	6	n/a	PRISONER	1128	n/a	3	n/a	n/a	n/a	n/a	n/a	n/a
3741353	RECOG_TARGET	n/a	LTP230	ltpFR	3	6	1	CHISEL	305	1	5	0	n/a	n/a	n/a	n/a	n/a
3742342	RECOG_RESP	n/a	LTP230	ltpFR	3	6	1	CHISEL	305	1	n/a	0	n/a	n/a	n/a	n/a	n/a
3743430	RECOG_CONF	n/a	LTP230	ltpFR	3	6	1	CHISEL	305	n/a	5	0	n/a	n/a	n/a	n/a	n/a
3745431	RECOG_TARGET	n/a	LTP230	ltpFR	3	6	1	RICE	1190	1	5	0	n/a	n/a	n/a	n/a	n/a
3746569	RECOG_RESP	n/a	LTP230	ltpFR	3	6	1	RICE	1190	1	n/a	0	n/a	n/a	n/a	n/a	n/a
3747675	RECOG_CONF	n/a	LTP230	ltpFR	3	6	1	RICE	1190	n/a	5	0	n/a	n/a	n/a	n/a	n/a
3749590	RECOG_LURE	n/a	LTP230	ltpFR	3	6	n/a	BARTENDER	92	0	2	n/a	n/a	n/a	n/a	n/a	n/a
3750519	RECOG_RESP	n/a	LTP230	ltpFR	3	6	n/a	BARTENDER	92	0	n/a	n/a	n/a	n/a	n/a	n/a	n/a
3751638	RECOG_CONF	n/a	LTP230	ltpFR	3	6	n/a	BARTENDER	92	n/a	2	n/a	n/a	n/a	n/a	n/a	n/a
3753452	RECOG_LURE	n/a	LTP230	ltpFR	3	6	n/a	FLIPPER	580	1	2	n/a	n/a	n/a	n/a	n/a	n/a
3754465	RECOG_RESP	n/a	LTP230	ltpFR	3	6	n/a	FLIPPER	580	1	n/a	n/a	n/a	n/a	n/a	n/a	n/a
3755636	RECOG_CONF	n/a	LTP230	ltpFR	3	6	n/a	FLIPPER	580	n/a	2	n/a	n/a	n/a	n/a	n/a	n/a
3757413	RECOG_TARGET	n/a	LTP230	ltpFR	3	6	0	MOUSE	925	1	5	0	n/a	n/a	n/a	n/a	n/a
3758333	RECOG_RESP	n/a	LTP230	ltpFR	3	6	0	MOUSE	925	1	n/a	0	n/a	n/a	n/a	n/a	n/a
3759495	RECOG_CONF	n/a	LTP230	ltpFR	3	6	0	MOUSE	925	n/a	5	0	n/a	n/a	n/a	n/a	n/a
3761506	RECOG_TARGET	n/a	LTP230	ltpFR	3	6	0	GLASSES	640	1	3	0	n/a	n/a	n/a	n/a	n/a
3762451	RECOG_RESP	n/a	LTP230	ltpFR	3	6	0	GLASSES	640	1	n/a	0	n/a	n/a	n/a	n/a	n/a
3763644	RECOG_CONF	n/a	LTP230	ltpFR	3	6	0	GLASSES	640	n/a	3	0	n/a	n/a	n/a	n/a	n/a
3765334	RECOG_LURE	n/a	LTP230	ltpFR	3	6	n/a	OINTMENT	974	0	4	n/a	n/a	n/a	n/a	n/a	n/a
3766254	RECOG_RESP	n/a	LTP230	ltpFR	3	6	n/a	OINTMENT	974	0	n/a	n/a	n/a	n/a	n/a	n/a	n/a
3767268	RECOG_CONF	n/a	LTP230	ltpFR	3	6	n/a	OINTMENT	974	n/a	4	n/a	n/a	n/a	n/a	n/a	n/a
3769162	RECOG_TARGET	n/a	LTP230	ltpFR	3	6	1	FROST	609	1	5	0	n/a	n/a	n/a	n/a	n/a
3770016	RECOG_RESP	n/a	LTP230	ltpFR	3	6	1	FROST	609	1	n/a	0	n/a	n/a	n/a	n/a	n/a
3771218	RECOG_CONF	n/a	LTP230	ltpFR	3	6	1	FROST	609	n/a	5	0	n/a	n/a	n/a	n/a	n/a
3773089	RECOG_LURE	n/a	LTP230	ltpFR	3	6	n/a	BUTTER	205	0	3	n/a	n/a	n/a	n/a	n/a	n/a
3773776	RECOG_RESP	n/a	LTP230	ltpFR	3	6	n/a	BUTTER	205	0	n/a	n/a	n/a	n/a	n/a	n/a	n/a
3775079	RECOG_CONF	n/a	LTP230	ltpFR	3	6	n/a	BUTTER	205	n/a	3	n/a	n/a	n/a	n/a	n/a	n/a
3777698	RECOG_LURE	n/a	LTP230	ltpFR	3	6	n/a	PHYSICIAN	1056	0	3	n/a	n/a	n/a	n/a	n/a	n/a
3778847	RECOG_RESP	n/a	LTP230	ltpFR	3	6	n/a	PHYSICIAN	1056	0	n/a	n/a	n/a	n/a	n/a	n/a	n/a
3780133	RECOG_CONF	n/a	LTP230	ltpFR	3	6	n/a	PHYSICIAN	1056	n/a	3	n/a	n/a	n/a	n/a	n/a	n/a
3782159	RECOG_TARGET	n/a	LTP230	ltpFR	3	6	1	BOXER	160	1	5	1	n/a	n/a	n/a	n/a	n/a
3782808	RECOG_RESP	n/a	LTP230	ltpFR	3	6	1	BOXER	160	1	n/a	1	n/a	n/a	n/a	n/a	n/a
3783957	RECOG_CONF	n/a	LTP230	ltpFR	3	6	1	BOXER	160	n/a	5	1	n/a	n/a	n/a	n/a	n/a
3785987	RECOG_LURE	n/a	LTP230	ltpFR	3	6	n/a	RUBY	1214	0	3	n/a	n/a	n/a	n/a	n/a	n/a
3787063	RECOG_RESP	n/a	LTP230	ltpFR	3	6	n/a	RUBY	1214	0	n/a	n/a	n/a	n/a	n/a	n/a	n/a
3788175	RECOG_CONF	n/a	LTP230	ltpFR	3	6	n/a	RUBY	1214	n/a	3	n/a	n/a	n/a	n/a	n/a	n/a
3813929	REC_START	n/a	LTP230	ltpFR	3	7	n/a	n/a	n/a	n/a	n/a	n/a	n/a	n/a	n/a	n/a	n/a
3813962	RECOG_LURE	n/a	LTP230	ltpFR	3	7	n/a	TIDE	1465	0	3	n/a	n/a	n/a	n/a	n/a	n/a
3814646	RECOG_RESP	n/a	LTP230	ltpFR	3	7	n/a	TIDE	1465	0	n/a	n/a	n/a	n/a	n/a	n/a	n/a
3815740	RECOG_CONF	n/a	LTP230	ltpFR	3	7	n/a	TIDE	1465	n/a	3	n/a	n/a	n/a	n/a	n/a	n/a
3817889	RECOG_TARGET	n/a	LTP230	ltpFR	3	7	0	TROUSERS	1510	0	3	0	n/a	n/a	n/a	n/a	n/a
3819431	RECOG_RESP	n/a	LTP230	ltpFR	3	7	0	TROUSERS	1510	0	n/a	0	n/a	n/a	n/a	n/a	n/a
3821736	RECOG_CONF	n/a	LTP230	ltpFR	3	7	0	TROUSERS	1510	n/a	3	0	n/a	n/a	n/a	n/a	n/a
3824146	RECOG_LURE	n/a	LTP230	ltpFR	3	7	n/a	OUTDOORS	987	0	4	n/a	n/a	n/a	n/a	n/a	n/a
3825558	RECOG_RESP	n/a	LTP230	ltpFR	3	7	n/a	OUTDOORS	987	0	n/a	n/a	n/a	n/a	n/a	n/a	n/a
3826991	RECOG_CONF	n/a	LTP230	ltpFR	3	7	n/a	OUTDOORS	987	n/a	4	n/a	n/a	n/a	n/a	n/a	n/a
3829255	RECOG_TARGET	n/a	LTP230	ltpFR	3	7	1	SEED	1266	1	5	0	n/a	n/a	n/a	n/a	n/a
3830051	RECOG_RESP	n/a	LTP230	ltpFR	3	7	1	SEED	1266	1	n/a	0	n/a	n/a	n/a	n/a	n/a
3831155	RECOG_CONF	n/a	LTP230	ltpFR	3	7	1	SEED	1266	n/a	5	0	n/a	n/a	n/a	n/a	n/a
3833133	RECOG_TARGET	n/a	LTP230	ltpFR	3	7	0	LEAF	808	1	5	0	n/a	n/a	n/a	n/a	n/a
3833851	RECOG_RESP_VV	n/a	LTP230	ltpFR	3	7	0	LEAF	808	0	n/a	0	n/a	n/a	n/a	n/a	n/a
3834624	RECOG_RESP	n/a	LTP230	ltpFR	3	7	0	LEAF	808	1	n/a	0	n/a	n/a	n/a	n/a	n/a
3835677	RECOG_CONF	n/a	LTP230	ltpFR	3	7	0	LEAF	808	n/a	5	0	n/a	n/a	n/a	n/a	n/a
3837675	RECOG_TARGET	n/a	LTP230	ltpFR	3	7	1	SURF	1412	1	5	0	n/a	n/a	n/a	n/a	n/a
3838344	RECOG_RESP	n/a	LTP230	ltpFR	3	7	1	SURF	1412	1	n/a	0	n/a	n/a	n/a	n/a	n/a
3839265	RECOG_CONF	n/a	LTP230	ltpFR	3	7	1	SURF	1412	n/a	5	0	n/a	n/a	n/a	n/a	n/a
3841121	RECOG_LURE	n/a	LTP230	ltpFR	3	7	n/a	PERMIT	1051	0	3	n/a	n/a	n/a	n/a	n/a	n/a
3841747	RECOG_RESP	n/a	LTP230	ltpFR	3	7	n/a	PERMIT	1051	0	n/a	n/a	n/a	n/a	n/a	n/a	n/a
3842754	RECOG_CONF	n/a	LTP230	ltpFR	3	7	n/a	PERMIT	1051	n/a	3	n/a	n/a	n/a	n/a	n/a	n/a
3844465	RECOG_TARGET	n/a	LTP230	ltpFR	3	7	-1	STOVE	1388	1	4	-1	n/a	n/a	n/a	n/a	n/a
3845238	RECOG_RESP	n/a	LTP230	ltpFR	3	7	-1	STOVE	1388	1	n/a	-1	n/a	n/a	n/a	n/a	n/a
3846136	RECOG_CONF	n/a	LTP230	ltpFR	3	7	-1	STOVE	1388	n/a	4	-1	n/a	n/a	n/a	n/a	n/a
3848194	RECOG_TARGET	n/a	LTP230	ltpFR	3	7	0	RAKE	1164	1	3	0	n/a	n/a	n/a	n/a	n/a
3848933	RECOG_RESP	n/a	LTP230	ltpFR	3	7	0	RAKE	1164	1	n/a	0	n/a	n/a	n/a	n/a	n/a
3850017	RECOG_CONF	n/a	LTP230	ltpFR	3	7	0	RAKE	1164	n/a	3	0	n/a	n/a	n/a	n/a	n/a
3851738	RECOG_TARGET	n/a	LTP230	ltpFR	3	7	0	FLANNEL	574	1	5	0	n/a	n/a	n/a	n/a	n/a
3852540	RECOG_RESP_VV	n/a	LTP230	ltpFR	3	7	0	FLANNEL	574	0	n/a	0	n/a	n/a	n/a	n/a	n/a
3853595	RECOG_RESP	n/a	LTP230	ltpFR	3	7	0	FLANNEL	574	1	n/a	0	n/a	n/a	n/a	n/a	n/a
3854760	RECOG_CONF	n/a	LTP230	ltpFR	3	7	0	FLANNEL	574	n/a	5	0	n/a	n/a	n/a	n/a	n/a
3857130	RECOG_LURE	n/a	LTP230	ltpFR	3	7	n/a	COMMITTEE	355	0	4	n/a	n/a	n/a	n/a	n/a	n/a
3858622	RECOG_RESP	n/a	LTP230	ltpFR	3	7	n/a	COMMITTEE	355	0	n/a	n/a	n/a	n/a	n/a	n/a	n/a
3859851	RECOG_CONF	n/a	LTP230	ltpFR	3	7	n/a	COMMITTEE	355	n/a	4	n/a	n/a	n/a	n/a	n/a	n/a
3861623	RECOG_LURE	n/a	LTP230	ltpFR	3	7	n/a	RACCOON	1153	0	3	n/a	n/a	n/a	n/a	n/a	n/a
3862539	RECOG_RESP	n/a	LTP230	ltpFR	3	7	n/a	RACCOON	1153	0	n/a	n/a	n/a	n/a	n/a	n/a	n/a
3863662	RECOG_CONF	n/a	LTP230	ltpFR	3	7	n/a	RACCOON	1153	n/a	3	n/a	n/a	n/a	n/a	n/a	n/a
3866117	RECOG_LURE	n/a	LTP230	ltpFR	3	7	n/a	STOOL	1386	0	2	n/a	n/a	n/a	n/a	n/a	n/a
3867306	RECOG_RESP	n/a	LTP230	ltpFR	3	7	n/a	STOOL	1386	0	n/a	n/a	n/a	n/a	n/a	n/a	n/a
3868438	RECOG_CONF	n/a	LTP230	ltpFR	3	7	n/a	STOOL	1386	n/a	2	n/a	n/a	n/a	n/a	n/a	n/a
3870277	RECOG_LURE	n/a	LTP230	ltpFR	3	7	n/a	CHEESE	289	0	3	n/a	n/a	n/a	n/a	n/a	n/a
3871337	RECOG_RESP	n/a	LTP230	ltpFR	3	7	n/a	CHEESE	289	0	n/a	n/a	n/a	n/a	n/a	n/a	n/a
3872471	RECOG_CONF	n/a	LTP230	ltpFR	3	7	n/a	CHEESE	289	n/a	3	n/a	n/a	n/a	n/a	n/a	n/a
3874271	RECOG_LURE	n/a	LTP230	ltpFR	3	7	n/a	SUITE	1404	1	3	n/a	n/a	n/a	n/a	n/a	n/a
3876095	RECOG_RESP	n/a	LTP230	ltpFR	3	7	n/a	SUITE	1404	1	n/a	n/a	n/a	n/a	n/a	n/a	n/a
3877602	RECOG_CONF	n/a	LTP230	ltpFR	3	7	n/a	SUITE	1404	n/a	3	n/a	n/a	n/a	n/a	n/a	n/a
3879447	RECOG_LURE	n/a	LTP230	ltpFR	3	7	n/a	SHEET	1279	0	3	n/a	n/a	n/a	n/a	n/a	n/a
3880267	RECOG_RESP	n/a	LTP230	ltpFR	3	7	n/a	SHEET	1279	0	n/a	n/a	n/a	n/a	n/a	n/a	n/a
3881331	RECOG_CONF	n/a	LTP230	ltpFR	3	7	n/a	SHEET	1279	n/a	3	n/a	n/a	n/a	n/a	n/a	n/a
3883058	RECOG_LURE	n/a	LTP230	ltpFR	3	7	n/a	MUFFIN	929	0	4	n/a	n/a	n/a	n/a	n/a	n/a
3884558	RECOG_RESP	n/a	LTP230	ltpFR	3	7	n/a	MUFFIN	929	0	n/a	n/a	n/a	n/a	n/a	n/a	n/a
3885481	RECOG_CONF	n/a	LTP230	ltpFR	3	7	n/a	MUFFIN	929	n/a	4	n/a	n/a	n/a	n/a	n/a	n/a
3887335	RECOG_TARGET	n/a	LTP230	ltpFR	3	7	0	AUDIENCE	59	1	5	1	n/a	n/a	n/a	n/a	n/a
3888370	RECOG_RESP	n/a	LTP230	ltpFR	3	7	0	AUDIENCE	59	1	n/a	1	n/a	n/a	n/a	n/a	n/a
3890151	RECOG_CONF	n/a	LTP230	ltpFR	3	7	0	AUDIENCE	59	n/a	5	1	n/a	n/a	n/a	n/a	n/a
3891978	RECOG_TARGET	n/a	LTP230	ltpFR	3	7	1	RAFT	1159	1	5	1	n/a	n/a	n/a	n/a	n/a
3892792	RECOG_RESP	n/a	LTP230	ltpFR	3	7	1	RAFT	1159	1	n/a	1	n/a	n/a	n/a	n/a	n/a
3893837	RECOG_CONF	n/a	LTP230	ltpFR	3	7	1	RAFT	1159	n/a	5	1	n/a	n/a	n/a	n/a	n/a
3895755	RECOG_TARGET	n/a	LTP230	ltpFR	3	7	1	TRIGGER	1507	0	3	0	n/a	n/a	n/a	n/a	n/a
3896841	RECOG_RESP	n/a	LTP230	ltpFR	3	7	1	TRIGGER	1507	0	n/a	0	n/a	n/a	n/a	n/a	n/a
3898472	RECOG_CONF	n/a	LTP230	ltpFR	3	7	1	TRIGGER	1507	n/a	3	0	n/a	n/a	n/a	n/a	n/a
3903227	REC_START	n/a	LTP230	ltpFR	3	8	n/a	n/a	n/a	n/a	n/a	n/a	n/a	n/a	n/a	n/a	n/a
