mstime	trial_type	stim_file	subject	experiment	session	trial	item_name	item_num	list	answer	test_x	test_y	test_z
0	SESS_START	n/a	LTP293	ltpFR2	10	n/a	n/a	n/a	n/a	n/a	0	0	0
26657	START	n/a	LTP293	ltpFR2	10	n/a	n/a	n/a	-1	n/a	n/a	n/a	n/a
26673	PROB	n/a	LTP293	ltpFR2	10	n/a	n/a	n/a	-1	17	6	6	5
28189	PROB	n/a	LTP293	ltpFR2	10	n/a	n/a	n/a	-1	6	2	2	2
29106	PROB	n/a	LTP293	ltpFR2	10	n/a	n/a	n/a	-1	22	4	9	9
30957	PROB	n/a	LTP293	ltpFR2	10	n/a	n/a	n/a	-1	20	8	4	9
32225	PROB	n/a	LTP293	ltpFR2	10	n/a	n/a	n/a	-1	7	2	2	3
34160	PROB	n/a	LTP293	ltpFR2	10	n/a	n/a	n/a	-1	10	2	3	5
35578	PROB	n/a	LTP293	ltpFR2	10	n/a	n/a	n/a	-1	18	9	6	3
36713	PROB	n/a	LTP293	ltpFR2	10	n/a	n/a	n/a	-1	21	6	6	9
37823	STOP	n/a	LTP293	ltpFR2	10	n/a	n/a	n/a	-1	n/a	n/a	n/a	n/a
94542	DISTRACTOR	n/a	LTP293	ltpFR2	10	1	n/a	n/a	n/a	n/a	0	0	0
94542	START	n/a	LTP293	ltpFR2	10	n/a	n/a	n/a	1	n/a	n/a	n/a	n/a
94558	PROB	n/a	LTP293	ltpFR2	10	n/a	n/a	n/a	1	19	7	9	3
95843	PROB	n/a	LTP293	ltpFR2	10	n/a	n/a	n/a	1	20	5	7	8
97477	PROB	n/a	LTP293	ltpFR2	10	n/a	n/a	n/a	1	15	6	2	7
98663	PROB	n/a	LTP293	ltpFR2	10	n/a	n/a	n/a	1	25	9	8	8
100897	PROB	n/a	LTP293	ltpFR2	10	n/a	n/a	n/a	1	15	6	1	8
101982	PROB	n/a	LTP293	ltpFR2	10	n/a	n/a	n/a	1	13	1	6	6
103066	PROB	n/a	LTP293	ltpFR2	10	n/a	n/a	n/a	1	17	6	6	5
104850	PROB	n/a	LTP293	ltpFR2	10	n/a	n/a	n/a	1	18	7	7	4
105985	PROB	n/a	LTP293	ltpFR2	10	n/a	n/a	n/a	1	16	8	3	5
107285	PROB	n/a	LTP293	ltpFR2	10	n/a	n/a	n/a	1	16	9	3	4
108552	PROB	n/a	LTP293	ltpFR2	10	n/a	n/a	n/a	1	21	7	7	7
109553	PROB	n/a	LTP293	ltpFR2	10	n/a	n/a	n/a	1	23	7	7	9
111190	PROB	n/a	LTP293	ltpFR2	10	n/a	n/a	n/a	1	9	3	4	2
112990	PROB	n/a	LTP293	ltpFR2	10	n/a	n/a	n/a	1	14	2	7	5
114607	PROB	n/a	LTP293	ltpFR2	10	n/a	n/a	n/a	1	12	4	2	6
115726	PROB	n/a	LTP293	ltpFR2	10	n/a	n/a	n/a	1	13	3	9	1
116961	PROB	n/a	LTP293	ltpFR2	10	n/a	n/a	n/a	1	11	7	1	3
118170	STOP	n/a	LTP293	ltpFR2	10	n/a	n/a	n/a	1	n/a	n/a	n/a	n/a
119479	WORD	wordpools/wasnorm_wordpool_576.txt	LTP293	ltpFR2	10	1	STALLION	1369	n/a	n/a	0	0	0
121932	WORD	wordpools/wasnorm_wordpool_576.txt	LTP293	ltpFR2	10	1	PADDING	999	n/a	n/a	0	0	0
124710	WORD	wordpools/wasnorm_wordpool_576.txt	LTP293	ltpFR2	10	1	SEAL	1262	n/a	n/a	0	0	0
127229	WORD	wordpools/wasnorm_wordpool_576.txt	LTP293	ltpFR2	10	1	HEART	697	n/a	n/a	0	0	0
129930	WORD	wordpools/wasnorm_wordpool_576.txt	LTP293	ltpFR2	10	1	SPHINX	1349	n/a	n/a	0	0	0
132674	WORD	wordpools/wasnorm_wordpool_576.txt	LTP293	ltpFR2	10	1	BEAKER	104	n/a	n/a	0	0	0
135285	WORD	wordpools/wasnorm_wordpool_576.txt	LTP293	ltpFR2	10	1	FLASK	576	n/a	n/a	0	0	0
137871	WORD	wordpools/wasnorm_wordpool_576.txt	LTP293	ltpFR2	10	1	DRUG	501	n/a	n/a	0	0	0
140389	WORD	wordpools/wasnorm_wordpool_576.txt	LTP293	ltpFR2	10	1	ARMY	39	n/a	n/a	0	0	0
143026	WORD	wordpools/wasnorm_wordpool_576.txt	LTP293	ltpFR2	10	1	COLONEL	348	n/a	n/a	0	0	0
145661	WORD	wordpools/wasnorm_wordpool_576.txt	LTP293	ltpFR2	10	1	COUNTRY	388	n/a	n/a	0	0	0
148180	WORD	wordpools/wasnorm_wordpool_576.txt	LTP293	ltpFR2	10	1	FEMALE	559	n/a	n/a	0	0	0
150949	WORD	wordpools/wasnorm_wordpool_576.txt	LTP293	ltpFR2	10	1	SCULPTURE	1258	n/a	n/a	0	0	0
153434	WORD	wordpools/wasnorm_wordpool_576.txt	LTP293	ltpFR2	10	1	SHOULDER	1294	n/a	n/a	0	0	0
156037	WORD	wordpools/wasnorm_wordpool_576.txt	LTP293	ltpFR2	10	1	LOVER	846	n/a	n/a	0	0	0
158544	WORD	wordpools/wasnorm_wordpool_576.txt	LTP293	ltpFR2	10	1	CONTRACT	368	n/a	n/a	0	0	0
161108	WORD	wordpools/wasnorm_wordpool_576.txt	LTP293	ltpFR2	10	1	COFFEE	341	n/a	n/a	0	0	0
163893	WORD	wordpools/wasnorm_wordpool_576.txt	LTP293	ltpFR2	10	1	SODA	1341	n/a	n/a	0	0	0
166433	WORD	wordpools/wasnorm_wordpool_576.txt	LTP293	ltpFR2	10	1	LONDON	843	n/a	n/a	0	0	0
169065	WORD	wordpools/wasnorm_wordpool_576.txt	LTP293	ltpFR2	10	1	PUDDLE	1140	n/a	n/a	0	0	0
171672	WORD	wordpools/wasnorm_wordpool_576.txt	LTP293	ltpFR2	10	1	BATHTUB	100	n/a	n/a	0	0	0
174435	WORD	wordpools/wasnorm_wordpool_576.txt	LTP293	ltpFR2	10	1	OZONE	996	n/a	n/a	0	0	0
176855	WORD	wordpools/wasnorm_wordpool_576.txt	LTP293	ltpFR2	10	1	FIREPLACE	570	n/a	n/a	0	0	0
179373	WORD	wordpools/wasnorm_wordpool_576.txt	LTP293	ltpFR2	10	1	LEG	809	n/a	n/a	0	0	0
180980	START	n/a	LTP293	ltpFR2	10	n/a	n/a	n/a	2	n/a	n/a	n/a	n/a
182130	DISTRACTOR	n/a	LTP293	ltpFR2	10	1	n/a	n/a	n/a	n/a	0	0	0
182143	PROB	n/a	LTP293	ltpFR2	10	n/a	n/a	n/a	2	18	4	9	5
183563	PROB	n/a	LTP293	ltpFR2	10	n/a	n/a	n/a	2	12	7	2	3
184981	PROB	n/a	LTP293	ltpFR2	10	n/a	n/a	n/a	2	9	3	2	4
186582	PROB	n/a	LTP293	ltpFR2	10	n/a	n/a	n/a	2	7	5	1	1
188048	PROB	n/a	LTP293	ltpFR2	10	n/a	n/a	n/a	2	15	6	8	1
189214	PROB	n/a	LTP293	ltpFR2	10	n/a	n/a	n/a	2	12	3	7	2
191036	PROB	n/a	LTP293	ltpFR2	10	n/a	n/a	n/a	2	10	5	3	2
192821	PROB	n/a	LTP293	ltpFR2	10	n/a	n/a	n/a	2	12	8	1	3
193919	PROB	n/a	LTP293	ltpFR2	10	n/a	n/a	n/a	2	14	8	2	4
196486	PROB	n/a	LTP293	ltpFR2	10	n/a	n/a	n/a	2	13	4	8	1
197774	PROB	n/a	LTP293	ltpFR2	10	n/a	n/a	n/a	2	11	3	1	7
199241	PROB	n/a	LTP293	ltpFR2	10	n/a	n/a	n/a	2	13	2	3	8
201176	PROB	n/a	LTP293	ltpFR2	10	n/a	n/a	n/a	2	12	6	5	1
204980	STOP	n/a	LTP293	ltpFR2	10	n/a	n/a	n/a	2	n/a	n/a	n/a	n/a
206834	REC_START	n/a	LTP293	ltpFR2	10	1	n/a	n/a	n/a	n/a	0	0	0
207296	REC_WORD	wordpools/wasnorm_wordpool_576.txt	LTP293	ltpFR2	10	1	STALLION	1369	n/a	n/a	0	0	0
208624	REC_WORD	wordpools/wasnorm_wordpool_576.txt	LTP293	ltpFR2	10	1	COLONEL	348	n/a	n/a	0	0	0
210010	REC_WORD	wordpools/wasnorm_wordpool_576.txt	LTP293	ltpFR2	10	1	ARMY	39	n/a	n/a	0	0	0
211795	REC_WORD	wordpools/wasnorm_wordpool_576.txt	LTP293	ltpFR2	10	1	PUDDLE	1140	n/a	n/a	0	0	0
213377	REC_WORD	wordpools/wasnorm_wordpool_576.txt	LTP293	ltpFR2	10	1	LOVER	846	n/a	n/a	0	0	0
214596	REC_WORD	wordpools/wasnorm_wordpool_576.txt	LTP293	ltpFR2	10	1	SHOULDER	1294	n/a	n/a	0	0	0
216149	REC_WORD	wordpools/wasnorm_wordpool_576.txt	LTP293	ltpFR2	10	1	SODA	1341	n/a	n/a	0	0	0
217662	REC_WORD	wordpools/wasnorm_wordpool_576.txt	LTP293	ltpFR2	10	1	COFFEE	341	n/a	n/a	0	0	0
219175	REC_WORD	wordpools/wasnorm_wordpool_576.txt	LTP293	ltpFR2	10	1	SEAL	1262	n/a	n/a	0	0	0
220805	REC_WORD	wordpools/wasnorm_wordpool_576.txt	LTP293	ltpFR2	10	1	HEART	697	n/a	n/a	0	0	0
222268	REC_WORD	wordpools/wasnorm_wordpool_576.txt	LTP293	ltpFR2	10	1	DRUG	501	n/a	n/a	0	0	0
223682	REC_WORD	wordpools/wasnorm_wordpool_576.txt	LTP293	ltpFR2	10	1	BATHTUB	100	n/a	n/a	0	0	0
233428	REC_WORD	wordpools/wasnorm_wordpool_576.txt	LTP293	ltpFR2	10	1	FEMALE	559	n/a	n/a	0	0	0
297290	WORD	wordpools/wasnorm_wordpool_576.txt	LTP293	ltpFR2	10	2	EAGLE	512	n/a	n/a	0	0	0
300042	WORD	wordpools/wasnorm_wordpool_576.txt	LTP293	ltpFR2	10	2	THIEF	1456	n/a	n/a	0	0	0
302493	WORD	wordpools/wasnorm_wordpool_576.txt	LTP293	ltpFR2	10	2	ITEM	746	n/a	n/a	0	0	0
304962	WORD	wordpools/wasnorm_wordpool_576.txt	LTP293	ltpFR2	10	2	LAPEL	800	n/a	n/a	0	0	0
307636	WORD	wordpools/wasnorm_wordpool_576.txt	LTP293	ltpFR2	10	2	SOFTBALL	1343	n/a	n/a	0	0	0
310066	WORD	wordpools/wasnorm_wordpool_576.txt	LTP293	ltpFR2	10	2	CASHIER	254	n/a	n/a	0	0	0
312606	WORD	wordpools/wasnorm_wordpool_576.txt	LTP293	ltpFR2	10	2	BELLY	119	n/a	n/a	0	0	0
315071	WORD	wordpools/wasnorm_wordpool_576.txt	LTP293	ltpFR2	10	2	LEADER	807	n/a	n/a	0	0	0
317622	WORD	wordpools/wasnorm_wordpool_576.txt	LTP293	ltpFR2	10	2	CRICKET	408	n/a	n/a	0	0	0
320180	WORD	wordpools/wasnorm_wordpool_576.txt	LTP293	ltpFR2	10	2	SPOUSE	1358	n/a	n/a	0	0	0
322827	WORD	wordpools/wasnorm_wordpool_576.txt	LTP293	ltpFR2	10	2	LACE	792	n/a	n/a	0	0	0
325251	WORD	wordpools/wasnorm_wordpool_576.txt	LTP293	ltpFR2	10	2	SWIMMER	1420	n/a	n/a	0	0	0
327713	WORD	wordpools/wasnorm_wordpool_576.txt	LTP293	ltpFR2	10	2	SWAMP	1416	n/a	n/a	0	0	0
330481	WORD	wordpools/wasnorm_wordpool_576.txt	LTP293	ltpFR2	10	2	DRINK	498	n/a	n/a	0	0	0
333302	WORD	wordpools/wasnorm_wordpool_576.txt	LTP293	ltpFR2	10	2	SPONGE	1355	n/a	n/a	0	0	0
335893	WORD	wordpools/wasnorm_wordpool_576.txt	LTP293	ltpFR2	10	2	STOMACH	1384	n/a	n/a	0	0	0
338404	WORD	wordpools/wasnorm_wordpool_576.txt	LTP293	ltpFR2	10	2	ACTOR	5	n/a	n/a	0	0	0
341008	WORD	wordpools/wasnorm_wordpool_576.txt	LTP293	ltpFR2	10	2	CHILD	299	n/a	n/a	0	0	0
343475	WORD	wordpools/wasnorm_wordpool_576.txt	LTP293	ltpFR2	10	2	LODGE	839	n/a	n/a	0	0	0
346112	WORD	wordpools/wasnorm_wordpool_576.txt	LTP293	ltpFR2	10	2	ROBIN	1199	n/a	n/a	0	0	0
348904	WORD	wordpools/wasnorm_wordpool_576.txt	LTP293	ltpFR2	10	2	PLAID	1080	n/a	n/a	0	0	0
351641	WORD	wordpools/wasnorm_wordpool_576.txt	LTP293	ltpFR2	10	2	SKIRT	1319	n/a	n/a	0	0	0
354426	WORD	wordpools/wasnorm_wordpool_576.txt	LTP293	ltpFR2	10	2	INFANT	737	n/a	n/a	0	0	0
356879	WORD	wordpools/wasnorm_wordpool_576.txt	LTP293	ltpFR2	10	2	ANTLER	29	n/a	n/a	0	0	0
358488	START	n/a	LTP293	ltpFR2	10	n/a	n/a	n/a	3	n/a	n/a	n/a	n/a
359455	DISTRACTOR	n/a	LTP293	ltpFR2	10	2	n/a	n/a	n/a	n/a	0	0	0
359463	PROB	n/a	LTP293	ltpFR2	10	n/a	n/a	n/a	3	16	4	8	4
360924	PROB	n/a	LTP293	ltpFR2	10	n/a	n/a	n/a	3	20	5	7	8
362040	PROB	n/a	LTP293	ltpFR2	10	n/a	n/a	n/a	3	12	5	5	2
363042	PROB	n/a	LTP293	ltpFR2	10	n/a	n/a	n/a	3	11	8	1	2
364424	PROB	n/a	LTP293	ltpFR2	10	n/a	n/a	n/a	3	18	8	9	1
365694	PROB	n/a	LTP293	ltpFR2	10	n/a	n/a	n/a	3	13	6	5	2
367829	PROB	n/a	LTP293	ltpFR2	10	n/a	n/a	n/a	3	11	7	1	3
369063	PROB	n/a	LTP293	ltpFR2	10	n/a	n/a	n/a	3	15	1	7	7
370047	PROB	n/a	LTP293	ltpFR2	10	n/a	n/a	n/a	3	14	4	1	9
371282	PROB	n/a	LTP293	ltpFR2	10	n/a	n/a	n/a	3	14	1	5	8
372564	PROB	n/a	LTP293	ltpFR2	10	n/a	n/a	n/a	3	16	7	6	3
373816	PROB	n/a	LTP293	ltpFR2	10	n/a	n/a	n/a	3	9	5	1	3
374985	PROB	n/a	LTP293	ltpFR2	10	n/a	n/a	n/a	3	10	3	6	1
376219	PROB	n/a	LTP293	ltpFR2	10	n/a	n/a	n/a	3	10	8	1	1
377384	PROB	n/a	LTP293	ltpFR2	10	n/a	n/a	n/a	3	11	6	2	3
379254	PROB	n/a	LTP293	ltpFR2	10	n/a	n/a	n/a	3	20	8	8	4
380522	PROB	n/a	LTP293	ltpFR2	10	n/a	n/a	n/a	3	16	8	6	3
381580	STOP	n/a	LTP293	ltpFR2	10	n/a	n/a	n/a	3	n/a	n/a	n/a	n/a
384275	REC_START	n/a	LTP293	ltpFR2	10	2	n/a	n/a	n/a	n/a	0	0	0
386385	REC_WORD	wordpools/wasnorm_wordpool_576.txt	LTP293	ltpFR2	10	2	EAGLE	512	n/a	n/a	0	0	0
387854	REC_WORD	wordpools/wasnorm_wordpool_576.txt	LTP293	ltpFR2	10	2	THIEF	1456	n/a	n/a	0	0	0
388955	REC_WORD	wordpools/wasnorm_wordpool_576.txt	LTP293	ltpFR2	10	2	ITEM	746	n/a	n/a	0	0	0
390143	REC_WORD	wordpools/wasnorm_wordpool_576.txt	LTP293	ltpFR2	10	2	PLAID	1080	n/a	n/a	0	0	0
391120	REC_WORD	wordpools/wasnorm_wordpool_576.txt	LTP293	ltpFR2	10	2	SKIRT	1319	n/a	n/a	0	0	0
392363	REC_WORD	wordpools/wasnorm_wordpool_576.txt	LTP293	ltpFR2	10	2	SOFTBALL	1343	n/a	n/a	0	0	0
393672	REC_WORD	wordpools/wasnorm_wordpool_576.txt	LTP293	ltpFR2	10	2	CRICKET	408	n/a	n/a	0	0	0
394673	REC_WORD	wordpools/wasnorm_wordpool_576.txt	LTP293	ltpFR2	10	2	LEADER	807	n/a	n/a	0	0	0
395724	REC_WORD	wordpools/wasnorm_wordpool_576.txt	LTP293	ltpFR2	10	2	SPOUSE	1358	n/a	n/a	0	0	0
397171	REC_WORD	wordpools/wasnorm_wordpool_576.txt	LTP293	ltpFR2	10	2	ACTOR	5	n/a	n/a	0	0	0
398242	REC_WORD	wordpools/wasnorm_wordpool_576.txt	LTP293	ltpFR2	10	2	ROBIN	1199	n/a	n/a	0	0	0
399802	REC_WORD	wordpools/wasnorm_wordpool_576.txt	LTP293	ltpFR2	10	2	CHILD	299	n/a	n/a	0	0	0
401930	REC_WORD	wordpools/wasnorm_wordpool_576.txt	LTP293	ltpFR2	10	2	INFANT	737	n/a	n/a	0	0	0
403471	REC_WORD	wordpools/wasnorm_wordpool_576.txt	LTP293	ltpFR2	10	2	LODGE	839	n/a	n/a	0	0	0
407039	REC_WORD	wordpools/wasnorm_wordpool_576.txt	LTP293	ltpFR2	10	2	CASHIER	254	n/a	n/a	0	0	0
408413	REC_WORD	wordpools/wasnorm_wordpool_576.txt	LTP293	ltpFR2	10	2	BELLY	119	n/a	n/a	0	0	0
409470	REC_WORD	wordpools/wasnorm_wordpool_576.txt	LTP293	ltpFR2	10	2	STOMACH	1384	n/a	n/a	0	0	0
411179	REC_WORD	wordpools/wasnorm_wordpool_576.txt	LTP293	ltpFR2	10	2	SWAMP	1416	n/a	n/a	0	0	0
412456	REC_WORD	wordpools/wasnorm_wordpool_576.txt	LTP293	ltpFR2	10	2	SWIMMER	1420	n/a	n/a	0	0	0
414523	REC_WORD	wordpools/wasnorm_wordpool_576.txt	LTP293	ltpFR2	10	2	SPONGE	1355	n/a	n/a	0	0	0
474749	WORD	wordpools/wasnorm_wordpool_576.txt	LTP293	ltpFR2	10	3	TABLE	1426	n/a	n/a	0	0	0
477217	WORD	wordpools/wasnorm_wordpool_576.txt	LTP293	ltpFR2	10	3	DORM	488	n/a	n/a	0	0	0
479803	WORD	wordpools/wasnorm_wordpool_576.txt	LTP293	ltpFR2	10	3	CAFE	216	n/a	n/a	0	0	0
482288	WORD	wordpools/wasnorm_wordpool_576.txt	LTP293	ltpFR2	10	3	SERVER	1272	n/a	n/a	0	0	0
484723	WORD	wordpools/wasnorm_wordpool_576.txt	LTP293	ltpFR2	10	3	SNACK	1331	n/a	n/a	0	0	0
487176	WORD	wordpools/wasnorm_wordpool_576.txt	LTP293	ltpFR2	10	3	CITRUS	313	n/a	n/a	0	0	0
489844	WORD	wordpools/wasnorm_wordpool_576.txt	LTP293	ltpFR2	10	3	EGYPT	519	n/a	n/a	0	0	0
492512	WORD	wordpools/wasnorm_wordpool_576.txt	LTP293	ltpFR2	10	3	COOKBOOK	373	n/a	n/a	0	0	0
495332	WORD	wordpools/wasnorm_wordpool_576.txt	LTP293	ltpFR2	10	3	CASKET	255	n/a	n/a	0	0	0
498133	WORD	wordpools/wasnorm_wordpool_576.txt	LTP293	ltpFR2	10	3	GARLIC	624	n/a	n/a	0	0	0
500585	WORD	wordpools/wasnorm_wordpool_576.txt	LTP293	ltpFR2	10	3	PEBBLE	1035	n/a	n/a	0	0	0
503205	WORD	wordpools/wasnorm_wordpool_576.txt	LTP293	ltpFR2	10	3	CHAUFFEUR	283	n/a	n/a	0	0	0
505957	WORD	wordpools/wasnorm_wordpool_576.txt	LTP293	ltpFR2	10	3	ASIA	46	n/a	n/a	0	0	0
508441	WORD	wordpools/wasnorm_wordpool_576.txt	LTP293	ltpFR2	10	3	BLADE	134	n/a	n/a	0	0	0
511061	WORD	wordpools/wasnorm_wordpool_576.txt	LTP293	ltpFR2	10	3	KNIFE	785	n/a	n/a	0	0	0
513646	WORD	wordpools/wasnorm_wordpool_576.txt	LTP293	ltpFR2	10	3	BUBBLE	183	n/a	n/a	0	0	0
516315	WORD	wordpools/wasnorm_wordpool_576.txt	LTP293	ltpFR2	10	3	STICKER	1382	n/a	n/a	0	0	0
518951	WORD	wordpools/wasnorm_wordpool_576.txt	LTP293	ltpFR2	10	3	TUNNEL	1519	n/a	n/a	0	0	0
521421	WORD	wordpools/wasnorm_wordpool_576.txt	LTP293	ltpFR2	10	3	CLAM	315	n/a	n/a	0	0	0
524121	WORD	wordpools/wasnorm_wordpool_576.txt	LTP293	ltpFR2	10	3	SURVEY	1414	n/a	n/a	0	0	0
526744	WORD	wordpools/wasnorm_wordpool_576.txt	LTP293	ltpFR2	10	3	GHETTO	633	n/a	n/a	0	0	0
529558	WORD	wordpools/wasnorm_wordpool_576.txt	LTP293	ltpFR2	10	3	BRAKE	166	n/a	n/a	0	0	0
532261	WORD	wordpools/wasnorm_wordpool_576.txt	LTP293	ltpFR2	10	3	PASTA	1021	n/a	n/a	0	0	0
534734	WORD	wordpools/wasnorm_wordpool_576.txt	LTP293	ltpFR2	10	3	COD	340	n/a	n/a	0	0	0
536348	START	n/a	LTP293	ltpFR2	10	n/a	n/a	n/a	4	n/a	n/a	n/a	n/a
537541	DISTRACTOR	n/a	LTP293	ltpFR2	10	3	n/a	n/a	n/a	n/a	0	0	0
537548	PROB	n/a	LTP293	ltpFR2	10	n/a	n/a	n/a	4	14	7	6	1
538732	PROB	n/a	LTP293	ltpFR2	10	n/a	n/a	n/a	4	15	6	4	5
540635	PROB	n/a	LTP293	ltpFR2	10	n/a	n/a	n/a	4	10	2	1	7
541869	PROB	n/a	LTP293	ltpFR2	10	n/a	n/a	n/a	4	15	8	1	6
544136	PROB	n/a	LTP293	ltpFR2	10	n/a	n/a	n/a	4	14	8	2	4
545220	PROB	n/a	LTP293	ltpFR2	10	n/a	n/a	n/a	4	8	4	2	2
546404	PROB	n/a	LTP293	ltpFR2	10	n/a	n/a	n/a	4	13	5	7	1
547506	PROB	n/a	LTP293	ltpFR2	10	n/a	n/a	n/a	4	16	6	8	2
548656	PROB	n/a	LTP293	ltpFR2	10	n/a	n/a	n/a	4	10	5	4	1
549842	PROB	n/a	LTP293	ltpFR2	10	n/a	n/a	n/a	4	19	6	5	8
551391	PROB	n/a	LTP293	ltpFR2	10	n/a	n/a	n/a	4	14	7	6	1
552560	PROB	n/a	LTP293	ltpFR2	10	n/a	n/a	n/a	4	9	5	3	1
553728	PROB	n/a	LTP293	ltpFR2	10	n/a	n/a	n/a	4	19	4	7	8
555246	PROB	n/a	LTP293	ltpFR2	10	n/a	n/a	n/a	4	20	8	4	8
557065	PROB	n/a	LTP293	ltpFR2	10	n/a	n/a	n/a	4	17	7	7	3
559068	STOP	n/a	LTP293	ltpFR2	10	n/a	n/a	n/a	4	n/a	n/a	n/a	n/a
562269	REC_START	n/a	LTP293	ltpFR2	10	3	n/a	n/a	n/a	n/a	0	0	0
563551	REC_WORD	wordpools/wasnorm_wordpool_576.txt	LTP293	ltpFR2	10	3	TABLE	1426	n/a	n/a	0	0	0
565304	REC_WORD	wordpools/wasnorm_wordpool_576.txt	LTP293	ltpFR2	10	3	SERVER	1272	n/a	n/a	0	0	0
568006	REC_WORD	wordpools/wasnorm_wordpool_576.txt	LTP293	ltpFR2	10	3	CAFE	216	n/a	n/a	0	0	0
570747	REC_WORD	wordpools/wasnorm_wordpool_576.txt	LTP293	ltpFR2	10	3	CHAUFFEUR	283	n/a	n/a	0	0	0
572633	REC_WORD	wordpools/wasnorm_wordpool_576.txt	LTP293	ltpFR2	10	3	CITRUS	313	n/a	n/a	0	0	0
574087	REC_WORD	wordpools/wasnorm_wordpool_576.txt	LTP293	ltpFR2	10	3	SNACK	1331	n/a	n/a	0	0	0
575441	REC_WORD	wordpools/wasnorm_wordpool_576.txt	LTP293	ltpFR2	10	3	PEBBLE	1035	n/a	n/a	0	0	0
576862	REC_WORD	wordpools/wasnorm_wordpool_576.txt	LTP293	ltpFR2	10	3	KNIFE	785	n/a	n/a	0	0	0
577992	REC_WORD	wordpools/wasnorm_wordpool_576.txt	LTP293	ltpFR2	10	3	BLADE	134	n/a	n/a	0	0	0
579453	REC_WORD	wordpools/wasnorm_wordpool_576.txt	LTP293	ltpFR2	10	3	BRAKE	166	n/a	n/a	0	0	0
583702	REC_WORD	wordpools/wasnorm_wordpool_576.txt	LTP293	ltpFR2	10	3	COD	340	n/a	n/a	0	0	0
585013	REC_WORD	wordpools/wasnorm_wordpool_576.txt	LTP293	ltpFR2	10	3	PASTA	1021	n/a	n/a	0	0	0
588463	REC_WORD	wordpools/wasnorm_wordpool_576.txt	LTP293	ltpFR2	10	3	EGYPT	519	n/a	n/a	0	0	0
589803	REC_WORD	wordpools/wasnorm_wordpool_576.txt	LTP293	ltpFR2	10	3	ASIA	46	n/a	n/a	0	0	0
591822	REC_WORD	wordpools/wasnorm_wordpool_576.txt	LTP293	ltpFR2	10	3	GARLIC	624	n/a	n/a	0	0	0
652691	DISTRACTOR	n/a	LTP293	ltpFR2	10	4	n/a	n/a	n/a	n/a	0	0	0
652691	START	n/a	LTP293	ltpFR2	10	n/a	n/a	n/a	5	n/a	n/a	n/a	n/a
652706	PROB	n/a	LTP293	ltpFR2	10	n/a	n/a	n/a	5	8	1	5	2
654208	PROB	n/a	LTP293	ltpFR2	10	n/a	n/a	n/a	5	25	8	9	8
655376	PROB	n/a	LTP293	ltpFR2	10	n/a	n/a	n/a	5	15	4	8	3
656944	PROB	n/a	LTP293	ltpFR2	10	n/a	n/a	n/a	5	23	9	8	6
658377	PROB	n/a	LTP293	ltpFR2	10	n/a	n/a	n/a	5	13	3	2	8
660014	PROB	n/a	LTP293	ltpFR2	10	n/a	n/a	n/a	5	13	3	6	4
661396	PROB	n/a	LTP293	ltpFR2	10	n/a	n/a	n/a	5	12	7	4	1
662765	PROB	n/a	LTP293	ltpFR2	10	n/a	n/a	n/a	5	17	3	6	8
664362	PROB	n/a	LTP293	ltpFR2	10	n/a	n/a	n/a	5	17	6	8	3
666180	PROB	n/a	LTP293	ltpFR2	10	n/a	n/a	n/a	5	16	7	6	3
667933	PROB	n/a	LTP293	ltpFR2	10	n/a	n/a	n/a	5	4	1	2	1
669171	PROB	n/a	LTP293	ltpFR2	10	n/a	n/a	n/a	5	11	2	1	8
670587	PROB	n/a	LTP293	ltpFR2	10	n/a	n/a	n/a	5	23	7	6	8
672202	PROB	n/a	LTP293	ltpFR2	10	n/a	n/a	n/a	5	19	6	5	8
676691	STOP	n/a	LTP293	ltpFR2	10	n/a	n/a	n/a	5	n/a	n/a	n/a	n/a
677541	WORD	wordpools/wasnorm_wordpool_576.txt	LTP293	ltpFR2	10	4	SERVANT	1271	n/a	n/a	0	0	0
680177	WORD	wordpools/wasnorm_wordpool_576.txt	LTP293	ltpFR2	10	4	FLIPPER	580	n/a	n/a	0	0	0
682796	WORD	wordpools/wasnorm_wordpool_576.txt	LTP293	ltpFR2	10	4	PERCH	1048	n/a	n/a	0	0	0
685381	WORD	wordpools/wasnorm_wordpool_576.txt	LTP293	ltpFR2	10	4	AIRPLANE	12	n/a	n/a	0	0	0
687818	WORD	wordpools/wasnorm_wordpool_576.txt	LTP293	ltpFR2	10	4	APPLE	33	n/a	n/a	0	0	0
690552	WORD	wordpools/wasnorm_wordpool_576.txt	LTP293	ltpFR2	10	4	CASHEW	253	n/a	n/a	0	0	0
693239	WORD	wordpools/wasnorm_wordpool_576.txt	LTP293	ltpFR2	10	4	SIDEWALK	1303	n/a	n/a	0	0	0
695891	WORD	wordpools/wasnorm_wordpool_576.txt	LTP293	ltpFR2	10	4	PEANUT	1032	n/a	n/a	0	0	0
698643	WORD	wordpools/wasnorm_wordpool_576.txt	LTP293	ltpFR2	10	4	MUFFIN	929	n/a	n/a	0	0	0
701263	WORD	wordpools/wasnorm_wordpool_576.txt	LTP293	ltpFR2	10	4	POCKET	1093	n/a	n/a	0	0	0
703981	WORD	wordpools/wasnorm_wordpool_576.txt	LTP293	ltpFR2	10	4	SHORTCAKE	1292	n/a	n/a	0	0	0
706667	WORD	wordpools/wasnorm_wordpool_576.txt	LTP293	ltpFR2	10	4	MAPLE	866	n/a	n/a	0	0	0
709452	WORD	wordpools/wasnorm_wordpool_576.txt	LTP293	ltpFR2	10	4	CHEST	295	n/a	n/a	0	0	0
712055	WORD	wordpools/wasnorm_wordpool_576.txt	LTP293	ltpFR2	10	4	VIRUS	1572	n/a	n/a	0	0	0
714858	WORD	wordpools/wasnorm_wordpool_576.txt	LTP293	ltpFR2	10	4	AIRPORT	13	n/a	n/a	0	0	0
717327	WORD	wordpools/wasnorm_wordpool_576.txt	LTP293	ltpFR2	10	4	MUSTARD	935	n/a	n/a	0	0	0
720029	WORD	wordpools/wasnorm_wordpool_576.txt	LTP293	ltpFR2	10	4	STAR	1373	n/a	n/a	0	0	0
722798	WORD	wordpools/wasnorm_wordpool_576.txt	LTP293	ltpFR2	10	4	COMET	353	n/a	n/a	0	0	0
725382	WORD	wordpools/wasnorm_wordpool_576.txt	LTP293	ltpFR2	10	4	SHARK	1275	n/a	n/a	0	0	0
728168	WORD	wordpools/wasnorm_wordpool_576.txt	LTP293	ltpFR2	10	4	PILOT	1070	n/a	n/a	0	0	0
730754	WORD	wordpools/wasnorm_wordpool_576.txt	LTP293	ltpFR2	10	4	BODY	145	n/a	n/a	0	0	0
733539	WORD	wordpools/wasnorm_wordpool_576.txt	LTP293	ltpFR2	10	4	PIMPLE	1071	n/a	n/a	0	0	0
735992	WORD	wordpools/wasnorm_wordpool_576.txt	LTP293	ltpFR2	10	4	SLIME	1327	n/a	n/a	0	0	0
738661	WORD	wordpools/wasnorm_wordpool_576.txt	LTP293	ltpFR2	10	4	VELVET	1555	n/a	n/a	0	0	0
740279	START	n/a	LTP293	ltpFR2	10	n/a	n/a	n/a	6	n/a	n/a	n/a	n/a
741250	DISTRACTOR	n/a	LTP293	ltpFR2	10	4	n/a	n/a	n/a	n/a	0	0	0
741262	PROB	n/a	LTP293	ltpFR2	10	n/a	n/a	n/a	6	21	5	8	8
742980	PROB	n/a	LTP293	ltpFR2	10	n/a	n/a	n/a	6	9	5	2	2
744765	PROB	n/a	LTP293	ltpFR2	10	n/a	n/a	n/a	6	23	9	5	9
746430	PROB	n/a	LTP293	ltpFR2	10	n/a	n/a	n/a	6	14	2	7	5
748067	PROB	n/a	LTP293	ltpFR2	10	n/a	n/a	n/a	6	15	6	3	6
749585	PROB	n/a	LTP293	ltpFR2	10	n/a	n/a	n/a	6	22	7	8	6
751203	PROB	n/a	LTP293	ltpFR2	10	n/a	n/a	n/a	6	13	4	3	6
753005	PROB	n/a	LTP293	ltpFR2	10	n/a	n/a	n/a	6	15	2	5	8
754404	PROB	n/a	LTP293	ltpFR2	10	n/a	n/a	n/a	6	12	4	6	2
755756	PROB	n/a	LTP293	ltpFR2	10	n/a	n/a	n/a	6	13	2	5	6
757157	PROB	n/a	LTP293	ltpFR2	10	n/a	n/a	n/a	6	15	2	4	9
758291	PROB	n/a	LTP293	ltpFR2	10	n/a	n/a	n/a	6	22	6	8	8
759659	PROB	n/a	LTP293	ltpFR2	10	n/a	n/a	n/a	6	17	5	6	6
760960	PROB	n/a	LTP293	ltpFR2	10	n/a	n/a	n/a	6	8	5	1	2
762177	PROB	n/a	LTP293	ltpFR2	10	n/a	n/a	n/a	6	18	7	6	5
764108	STOP	n/a	LTP293	ltpFR2	10	n/a	n/a	n/a	6	n/a	n/a	n/a	n/a
766117	REC_START	n/a	LTP293	ltpFR2	10	4	n/a	n/a	n/a	n/a	0	0	0
766794	REC_WORD	wordpools/wasnorm_wordpool_576.txt	LTP293	ltpFR2	10	4	SERVANT	1271	n/a	n/a	0	0	0
768086	REC_WORD	wordpools/wasnorm_wordpool_576.txt	LTP293	ltpFR2	10	4	PIMPLE	1071	n/a	n/a	0	0	0
769075	REC_WORD	wordpools/wasnorm_wordpool_576.txt	LTP293	ltpFR2	10	4	SLIME	1327	n/a	n/a	0	0	0
770521	REC_WORD	wordpools/wasnorm_wordpool_576.txt	LTP293	ltpFR2	10	4	MAPLE	866	n/a	n/a	0	0	0
773030	REC_WORD	wordpools/wasnorm_wordpool_576.txt	LTP293	ltpFR2	10	4	PEANUT	1032	n/a	n/a	0	0	0
775504	REC_WORD	wordpools/wasnorm_wordpool_576.txt	LTP293	ltpFR2	10	4	SHORTCAKE	1292	n/a	n/a	0	0	0
777977	REC_WORD	wordpools/wasnorm_wordpool_576.txt	LTP293	ltpFR2	10	4	PILOT	1070	n/a	n/a	0	0	0
779259	REC_WORD	wordpools/wasnorm_wordpool_576.txt	LTP293	ltpFR2	10	4	AIRPLANE	12	n/a	n/a	0	0	0
780363	REC_WORD	wordpools/wasnorm_wordpool_576.txt	LTP293	ltpFR2	10	4	AIRPORT	13	n/a	n/a	0	0	0
789642	REC_WORD	wordpools/wasnorm_wordpool_576.txt	LTP293	ltpFR2	10	4	SIDEWALK	1303	n/a	n/a	0	0	0
794682	REC_WORD	wordpools/wasnorm_wordpool_576.txt	LTP293	ltpFR2	10	4	PERCH	1048	n/a	n/a	0	0	0
795842	REC_WORD	wordpools/wasnorm_wordpool_576.txt	LTP293	ltpFR2	10	4	FLIPPER	580	n/a	n/a	0	0	0
797108	REC_WORD	wordpools/wasnorm_wordpool_576.txt	LTP293	ltpFR2	10	4	SHARK	1275	n/a	n/a	0	0	0
800625	REC_WORD	wordpools/wasnorm_wordpool_576.txt	LTP293	ltpFR2	10	4	MUFFIN	929	n/a	n/a	0	0	0
810456	REC_WORD	wordpools/wasnorm_wordpool_576.txt	LTP293	ltpFR2	10	4	VELVET	1555	n/a	n/a	0	0	0
856553	WORD	wordpools/wasnorm_wordpool_576.txt	LTP293	ltpFR2	10	5	LABEL	790	n/a	n/a	0	0	0
859340	WORD	wordpools/wasnorm_wordpool_576.txt	LTP293	ltpFR2	10	5	PATROL	1027	n/a	n/a	0	0	0
862053	WORD	wordpools/wasnorm_wordpool_576.txt	LTP293	ltpFR2	10	5	VIKING	1565	n/a	n/a	0	0	0
864655	WORD	wordpools/wasnorm_wordpool_576.txt	LTP293	ltpFR2	10	5	FRIAR	605	n/a	n/a	0	0	0
867314	WORD	wordpools/wasnorm_wordpool_576.txt	LTP293	ltpFR2	10	5	CANAL	226	n/a	n/a	0	0	0
869826	WORD	wordpools/wasnorm_wordpool_576.txt	LTP293	ltpFR2	10	5	YACHT	1629	n/a	n/a	0	0	0
872377	WORD	wordpools/wasnorm_wordpool_576.txt	LTP293	ltpFR2	10	5	FUNGUS	614	n/a	n/a	0	0	0
874830	WORD	wordpools/wasnorm_wordpool_576.txt	LTP293	ltpFR2	10	5	DRAGON	492	n/a	n/a	0	0	0
877515	WORD	wordpools/wasnorm_wordpool_576.txt	LTP293	ltpFR2	10	5	FIREMAN	569	n/a	n/a	0	0	0
879941	WORD	wordpools/wasnorm_wordpool_576.txt	LTP293	ltpFR2	10	5	COWBOY	395	n/a	n/a	0	0	0
882754	WORD	wordpools/wasnorm_wordpool_576.txt	LTP293	ltpFR2	10	5	ZEBRA	1635	n/a	n/a	0	0	0
885388	WORD	wordpools/wasnorm_wordpool_576.txt	LTP293	ltpFR2	10	5	MASK	876	n/a	n/a	0	0	0
887924	WORD	wordpools/wasnorm_wordpool_576.txt	LTP293	ltpFR2	10	5	BRANDY	169	n/a	n/a	0	0	0
890665	WORD	wordpools/wasnorm_wordpool_576.txt	LTP293	ltpFR2	10	5	BARREL	91	n/a	n/a	0	0	0
893234	WORD	wordpools/wasnorm_wordpool_576.txt	LTP293	ltpFR2	10	5	SKILLET	1317	n/a	n/a	0	0	0
895682	WORD	wordpools/wasnorm_wordpool_576.txt	LTP293	ltpFR2	10	5	WORLD	1622	n/a	n/a	0	0	0
898184	WORD	wordpools/wasnorm_wordpool_576.txt	LTP293	ltpFR2	10	5	PERMIT	1051	n/a	n/a	0	0	0
900702	WORD	wordpools/wasnorm_wordpool_576.txt	LTP293	ltpFR2	10	5	HOOD	714	n/a	n/a	0	0	0
903421	WORD	wordpools/wasnorm_wordpool_576.txt	LTP293	ltpFR2	10	5	SWORD	1423	n/a	n/a	0	0	0
905991	WORD	wordpools/wasnorm_wordpool_576.txt	LTP293	ltpFR2	10	5	LIPSTICK	829	n/a	n/a	0	0	0
908743	WORD	wordpools/wasnorm_wordpool_576.txt	LTP293	ltpFR2	10	5	CYCLONE	431	n/a	n/a	0	0	0
911494	WORD	wordpools/wasnorm_wordpool_576.txt	LTP293	ltpFR2	10	5	SALAD	1224	n/a	n/a	0	0	0
914099	WORD	wordpools/wasnorm_wordpool_576.txt	LTP293	ltpFR2	10	5	CRITIC	410	n/a	n/a	0	0	0
916716	WORD	wordpools/wasnorm_wordpool_576.txt	LTP293	ltpFR2	10	5	CREATURE	403	n/a	n/a	0	0	0
918323	START	n/a	LTP293	ltpFR2	10	n/a	n/a	n/a	7	n/a	n/a	n/a	n/a
919373	DISTRACTOR	n/a	LTP293	ltpFR2	10	5	n/a	n/a	n/a	n/a	0	0	0
919385	PROB	n/a	LTP293	ltpFR2	10	n/a	n/a	n/a	7	25	8	8	9
920770	PROB	n/a	LTP293	ltpFR2	10	n/a	n/a	n/a	7	6	1	3	2
921940	PROB	n/a	LTP293	ltpFR2	10	n/a	n/a	n/a	7	16	3	5	8
923005	PROB	n/a	LTP293	ltpFR2	10	n/a	n/a	n/a	7	17	7	3	7
924258	PROB	n/a	LTP293	ltpFR2	10	n/a	n/a	n/a	7	24	7	8	9
925506	PROB	n/a	LTP293	ltpFR2	10	n/a	n/a	n/a	7	6	1	1	4
926459	PROB	n/a	LTP293	ltpFR2	10	n/a	n/a	n/a	7	8	4	2	2
927440	PROB	n/a	LTP293	ltpFR2	10	n/a	n/a	n/a	7	12	8	3	1
929760	PROB	n/a	LTP293	ltpFR2	10	n/a	n/a	n/a	7	21	4	9	8
930979	PROB	n/a	LTP293	ltpFR2	10	n/a	n/a	n/a	7	20	8	9	3
932230	PROB	n/a	LTP293	ltpFR2	10	n/a	n/a	n/a	7	20	4	8	8
933947	PROB	n/a	LTP293	ltpFR2	10	n/a	n/a	n/a	7	9	1	7	1
935085	PROB	n/a	LTP293	ltpFR2	10	n/a	n/a	n/a	7	18	6	6	6
936151	PROB	n/a	LTP293	ltpFR2	10	n/a	n/a	n/a	7	14	8	1	5
937368	PROB	n/a	LTP293	ltpFR2	10	n/a	n/a	n/a	7	19	6	7	6
939534	PROB	n/a	LTP293	ltpFR2	10	n/a	n/a	n/a	7	13	7	5	1
940771	PROB	n/a	LTP293	ltpFR2	10	n/a	n/a	n/a	7	7	1	5	1
941795	STOP	n/a	LTP293	ltpFR2	10	n/a	n/a	n/a	7	n/a	n/a	n/a	n/a
944093	REC_START	n/a	LTP293	ltpFR2	10	5	n/a	n/a	n/a	n/a	0	0	0
945550	REC_WORD	wordpools/wasnorm_wordpool_576.txt	LTP293	ltpFR2	10	5	CRITIC	410	n/a	n/a	0	0	0
946792	REC_WORD	wordpools/wasnorm_wordpool_576.txt	LTP293	ltpFR2	10	5	CANAL	226	n/a	n/a	0	0	0
948222	REC_WORD	wordpools/wasnorm_wordpool_576.txt	LTP293	ltpFR2	10	5	DRAGON	492	n/a	n/a	0	0	0
949894	REC_WORD	wordpools/wasnorm_wordpool_576.txt	LTP293	ltpFR2	10	5	COWBOY	395	n/a	n/a	0	0	0
958383	REC_WORD	wordpools/wasnorm_wordpool_576.txt	LTP293	ltpFR2	10	5	PATROL	1027	n/a	n/a	0	0	0
959880	REC_WORD	wordpools/wasnorm_wordpool_576.txt	LTP293	ltpFR2	10	5	LABEL	790	n/a	n/a	0	0	0
961940	REC_WORD	wordpools/wasnorm_wordpool_576.txt	LTP293	ltpFR2	10	5	VIKING	1565	n/a	n/a	0	0	0
985803	REC_WORD	wordpools/wasnorm_wordpool_576.txt	LTP293	ltpFR2	10	5	BRANDY	169	n/a	n/a	0	0	0
1034528	WORD	wordpools/wasnorm_wordpool_576.txt	LTP293	ltpFR2	10	6	SCARF	1246	n/a	n/a	0	0	0
1037000	WORD	wordpools/wasnorm_wordpool_576.txt	LTP293	ltpFR2	10	6	DAISY	435	n/a	n/a	0	0	0
1039551	WORD	wordpools/wasnorm_wordpool_576.txt	LTP293	ltpFR2	10	6	HEDGE	699	n/a	n/a	0	0	0
1042054	WORD	wordpools/wasnorm_wordpool_576.txt	LTP293	ltpFR2	10	6	OX	994	n/a	n/a	0	0	0
1044611	WORD	wordpools/wasnorm_wordpool_576.txt	LTP293	ltpFR2	10	6	COLLEGE	346	n/a	n/a	0	0	0
1047406	WORD	wordpools/wasnorm_wordpool_576.txt	LTP293	ltpFR2	10	6	PLAYGROUND	1087	n/a	n/a	0	0	0
1050110	WORD	wordpools/wasnorm_wordpool_576.txt	LTP293	ltpFR2	10	6	FILM	565	n/a	n/a	0	0	0
1052862	WORD	wordpools/wasnorm_wordpool_576.txt	LTP293	ltpFR2	10	6	BEAST	108	n/a	n/a	0	0	0
1055331	WORD	wordpools/wasnorm_wordpool_576.txt	LTP293	ltpFR2	10	6	HOUND	724	n/a	n/a	0	0	0
1057757	WORD	wordpools/wasnorm_wordpool_576.txt	LTP293	ltpFR2	10	6	COUSIN	392	n/a	n/a	0	0	0
1060208	WORD	wordpools/wasnorm_wordpool_576.txt	LTP293	ltpFR2	10	6	BUG	187	n/a	n/a	0	0	0
1062811	WORD	wordpools/wasnorm_wordpool_576.txt	LTP293	ltpFR2	10	6	SPIDER	1351	n/a	n/a	0	0	0
1065272	WORD	wordpools/wasnorm_wordpool_576.txt	LTP293	ltpFR2	10	6	PERFUME	1049	n/a	n/a	0	0	0
1068058	WORD	wordpools/wasnorm_wordpool_576.txt	LTP293	ltpFR2	10	6	ONION	977	n/a	n/a	0	0	0
1070593	WORD	wordpools/wasnorm_wordpool_576.txt	LTP293	ltpFR2	10	6	GARBAGE	622	n/a	n/a	0	0	0
1073279	WORD	wordpools/wasnorm_wordpool_576.txt	LTP293	ltpFR2	10	6	MISTER	901	n/a	n/a	0	0	0
1075797	WORD	wordpools/wasnorm_wordpool_576.txt	LTP293	ltpFR2	10	6	LADY	794	n/a	n/a	0	0	0
1078582	WORD	wordpools/wasnorm_wordpool_576.txt	LTP293	ltpFR2	10	6	MOTEL	919	n/a	n/a	0	0	0
1081001	WORD	wordpools/wasnorm_wordpool_576.txt	LTP293	ltpFR2	10	6	UNCLE	1536	n/a	n/a	0	0	0
1083578	WORD	wordpools/wasnorm_wordpool_576.txt	LTP293	ltpFR2	10	6	GRILL	661	n/a	n/a	0	0	0
1086214	WORD	wordpools/wasnorm_wordpool_576.txt	LTP293	ltpFR2	10	6	TERMITE	1451	n/a	n/a	0	0	0
1088950	WORD	wordpools/wasnorm_wordpool_576.txt	LTP293	ltpFR2	10	6	GRAVEL	659	n/a	n/a	0	0	0
1091526	WORD	wordpools/wasnorm_wordpool_576.txt	LTP293	ltpFR2	10	6	CABIN	211	n/a	n/a	0	0	0
1094172	WORD	wordpools/wasnorm_wordpool_576.txt	LTP293	ltpFR2	10	6	WASP	1593	n/a	n/a	0	0	0
1095781	START	n/a	LTP293	ltpFR2	10	n/a	n/a	n/a	8	n/a	n/a	n/a	n/a
1096649	DISTRACTOR	n/a	LTP293	ltpFR2	10	6	n/a	n/a	n/a	n/a	0	0	0
1096657	PROB	n/a	LTP293	ltpFR2	10	n/a	n/a	n/a	8	12	8	2	2
1098031	PROB	n/a	LTP293	ltpFR2	10	n/a	n/a	n/a	8	8	3	3	2
1099315	PROB	n/a	LTP293	ltpFR2	10	n/a	n/a	n/a	8	5	2	1	2
1100416	PROB	n/a	LTP293	ltpFR2	10	n/a	n/a	n/a	8	17	4	7	6
1101550	PROB	n/a	LTP293	ltpFR2	10	n/a	n/a	n/a	8	16	6	2	8
1102736	PROB	n/a	LTP293	ltpFR2	10	n/a	n/a	n/a	8	10	5	4	1
1103820	PROB	n/a	LTP293	ltpFR2	10	n/a	n/a	n/a	8	11	7	3	1
1104821	PROB	n/a	LTP293	ltpFR2	10	n/a	n/a	n/a	8	15	2	8	5
1106004	PROB	n/a	LTP293	ltpFR2	10	n/a	n/a	n/a	8	13	1	3	9
1107172	PROB	n/a	LTP293	ltpFR2	10	n/a	n/a	n/a	8	18	9	7	2
1108422	PROB	n/a	LTP293	ltpFR2	10	n/a	n/a	n/a	8	15	5	1	9
1109574	PROB	n/a	LTP293	ltpFR2	10	n/a	n/a	n/a	8	15	2	4	9
1110607	PROB	n/a	LTP293	ltpFR2	10	n/a	n/a	n/a	8	23	9	7	8
1111843	PROB	n/a	LTP293	ltpFR2	10	n/a	n/a	n/a	8	11	1	4	6
1113328	PROB	n/a	LTP293	ltpFR2	10	n/a	n/a	n/a	8	19	9	2	8
1114777	PROB	n/a	LTP293	ltpFR2	10	n/a	n/a	n/a	8	12	2	1	9
1115911	PROB	n/a	LTP293	ltpFR2	10	n/a	n/a	n/a	8	21	4	8	9
1118457	STOP	n/a	LTP293	ltpFR2	10	n/a	n/a	n/a	8	n/a	n/a	n/a	n/a
1121566	REC_START	n/a	LTP293	ltpFR2	10	6	n/a	n/a	n/a	n/a	0	0	0
1122109	REC_WORD	wordpools/wasnorm_wordpool_576.txt	LTP293	ltpFR2	10	6	SCARF	1246	n/a	n/a	0	0	0
1123524	REC_WORD	wordpools/wasnorm_wordpool_576.txt	LTP293	ltpFR2	10	6	FILM	565	n/a	n/a	0	0	0
1125156	REC_WORD	wordpools/wasnorm_wordpool_576.txt	LTP293	ltpFR2	10	6	MISTER	901	n/a	n/a	0	0	0
1126681	REC_WORD	wordpools/wasnorm_wordpool_576.txt	LTP293	ltpFR2	10	6	LADY	794	n/a	n/a	0	0	0
1128460	REC_WORD	wordpools/wasnorm_wordpool_576.txt	LTP293	ltpFR2	10	6	UNCLE	1536	n/a	n/a	0	0	0
1129737	REC_WORD	wordpools/wasnorm_wordpool_576.txt	LTP293	ltpFR2	10	6	COUSIN	392	n/a	n/a	0	0	0
1131197	REC_WORD	wordpools/wasnorm_wordpool_576.txt	LTP293	ltpFR2	10	6	OX	994	n/a	n/a	0	0	0
1132669	REC_WORD	wordpools/wasnorm_wordpool_576.txt	LTP293	ltpFR2	10	6	BEAST	108	n/a	n/a	0	0	0
1133928	REC_WORD	wordpools/wasnorm_wordpool_576.txt	LTP293	ltpFR2	10	6	HOUND	724	n/a	n/a	0	0	0
1136171	REC_WORD	wordpools/wasnorm_wordpool_576.txt	LTP293	ltpFR2	10	6	HEDGE	699	n/a	n/a	0	0	0
1145847	REC_WORD	wordpools/wasnorm_wordpool_576.txt	LTP293	ltpFR2	10	6	PERFUME	1049	n/a	n/a	0	0	0
1212040	WORD	wordpools/wasnorm_wordpool_576.txt	LTP293	ltpFR2	10	7	CROSS	413	n/a	n/a	0	0	0
1214557	WORD	wordpools/wasnorm_wordpool_576.txt	LTP293	ltpFR2	10	7	CHAPEL	280	n/a	n/a	0	0	0
1217195	WORD	wordpools/wasnorm_wordpool_576.txt	LTP293	ltpFR2	10	7	COTTAGE	384	n/a	n/a	0	0	0
1219947	WORD	wordpools/wasnorm_wordpool_576.txt	LTP293	ltpFR2	10	7	ROBBER	1197	n/a	n/a	0	0	0
1222431	WORD	wordpools/wasnorm_wordpool_576.txt	LTP293	ltpFR2	10	7	SUSPECT	1415	n/a	n/a	0	0	0
1224933	WORD	wordpools/wasnorm_wordpool_576.txt	LTP293	ltpFR2	10	7	SNAIL	1332	n/a	n/a	0	0	0
1227435	WORD	wordpools/wasnorm_wordpool_576.txt	LTP293	ltpFR2	10	7	PUDDING	1139	n/a	n/a	0	0	0
1230088	WORD	wordpools/wasnorm_wordpool_576.txt	LTP293	ltpFR2	10	7	CONVICT	371	n/a	n/a	0	0	0
1232623	WORD	wordpools/wasnorm_wordpool_576.txt	LTP293	ltpFR2	10	7	WIFE	1609	n/a	n/a	0	0	0
1235142	WORD	wordpools/wasnorm_wordpool_576.txt	LTP293	ltpFR2	10	7	JUNGLE	764	n/a	n/a	0	0	0
1237911	WORD	wordpools/wasnorm_wordpool_576.txt	LTP293	ltpFR2	10	7	RECEIPT	1173	n/a	n/a	0	0	0
1240462	WORD	wordpools/wasnorm_wordpool_576.txt	LTP293	ltpFR2	10	7	CAMEL	223	n/a	n/a	0	0	0
1243149	WORD	wordpools/wasnorm_wordpool_576.txt	LTP293	ltpFR2	10	7	DENIM	446	n/a	n/a	0	0	0
1245718	WORD	wordpools/wasnorm_wordpool_576.txt	LTP293	ltpFR2	10	7	EYELASH	546	n/a	n/a	0	0	0
1248485	WORD	wordpools/wasnorm_wordpool_576.txt	LTP293	ltpFR2	10	7	SLIDE	1326	n/a	n/a	0	0	0
1251054	WORD	wordpools/wasnorm_wordpool_576.txt	LTP293	ltpFR2	10	7	CIGAR	308	n/a	n/a	0	0	0
1253727	WORD	wordpools/wasnorm_wordpool_576.txt	LTP293	ltpFR2	10	7	YOLK	1633	n/a	n/a	0	0	0
1256458	WORD	wordpools/wasnorm_wordpool_576.txt	LTP293	ltpFR2	10	7	BUNNY	198	n/a	n/a	0	0	0
1259244	WORD	wordpools/wasnorm_wordpool_576.txt	LTP293	ltpFR2	10	7	SHOVEL	1295	n/a	n/a	0	0	0
1261947	WORD	wordpools/wasnorm_wordpool_576.txt	LTP293	ltpFR2	10	7	BUREAU	199	n/a	n/a	0	0	0
1264432	WORD	wordpools/wasnorm_wordpool_576.txt	LTP293	ltpFR2	10	7	DRESSER	496	n/a	n/a	0	0	0
1267218	WORD	wordpools/wasnorm_wordpool_576.txt	LTP293	ltpFR2	10	7	BLOUSE	139	n/a	n/a	0	0	0
1269854	WORD	wordpools/wasnorm_wordpool_576.txt	LTP293	ltpFR2	10	7	TOURIST	1488	n/a	n/a	0	0	0
1272388	WORD	wordpools/wasnorm_wordpool_576.txt	LTP293	ltpFR2	10	7	RAFT	1159	n/a	n/a	0	0	0
1273996	START	n/a	LTP293	ltpFR2	10	n/a	n/a	n/a	9	n/a	n/a	n/a	n/a
1274938	DISTRACTOR	n/a	LTP293	ltpFR2	10	7	n/a	n/a	n/a	n/a	0	0	0
1274946	PROB	n/a	LTP293	ltpFR2	10	n/a	n/a	n/a	9	20	9	6	5
1276341	PROB	n/a	LTP293	ltpFR2	10	n/a	n/a	n/a	9	11	5	1	5
1277525	PROB	n/a	LTP293	ltpFR2	10	n/a	n/a	n/a	9	23	9	7	7
1278475	PROB	n/a	LTP293	ltpFR2	10	n/a	n/a	n/a	9	19	3	7	9
1279628	PROB	n/a	LTP293	ltpFR2	10	n/a	n/a	n/a	9	24	9	6	9
1281228	PROB	n/a	LTP293	ltpFR2	10	n/a	n/a	n/a	9	8	4	2	2
1282444	PROB	n/a	LTP293	ltpFR2	10	n/a	n/a	n/a	9	16	7	7	2
1285232	PROB	n/a	LTP293	ltpFR2	10	n/a	n/a	n/a	9	11	3	6	2
1286283	PROB	n/a	LTP293	ltpFR2	10	n/a	n/a	n/a	9	16	5	7	4
1288134	PROB	n/a	LTP293	ltpFR2	10	n/a	n/a	n/a	9	12	4	2	6
1289202	PROB	n/a	LTP293	ltpFR2	10	n/a	n/a	n/a	9	17	5	6	6
1290718	PROB	n/a	LTP293	ltpFR2	10	n/a	n/a	n/a	9	15	6	3	6
1295006	PROB	n/a	LTP293	ltpFR2	10	n/a	n/a	n/a	9	11	2	1	8
1296424	PROB	n/a	LTP293	ltpFR2	10	n/a	n/a	n/a	9	18	6	3	9
1297457	STOP	n/a	LTP293	ltpFR2	10	n/a	n/a	n/a	9	n/a	n/a	n/a	n/a
1299909	REC_START	n/a	LTP293	ltpFR2	10	7	n/a	n/a	n/a	n/a	0	0	0
1309735	REC_WORD	wordpools/wasnorm_wordpool_576.txt	LTP293	ltpFR2	10	7	CHAPEL	280	n/a	n/a	0	0	0
1310904	REC_WORD	wordpools/wasnorm_wordpool_576.txt	LTP293	ltpFR2	10	7	CROSS	413	n/a	n/a	0	0	0
1312247	REC_WORD	wordpools/wasnorm_wordpool_576.txt	LTP293	ltpFR2	10	7	DENIM	446	n/a	n/a	0	0	0
1315212	REC_WORD	wordpools/wasnorm_wordpool_576.txt	LTP293	ltpFR2	10	7	ROBBER	1197	n/a	n/a	0	0	0
1316363	REC_WORD	wordpools/wasnorm_wordpool_576.txt	LTP293	ltpFR2	10	7	CONVICT	371	n/a	n/a	0	0	0
1317798	REC_WORD	wordpools/wasnorm_wordpool_576.txt	LTP293	ltpFR2	10	7	SUSPECT	1415	n/a	n/a	0	0	0
1318710	REC_WORD	wordpools/wasnorm_wordpool_576.txt	LTP293	ltpFR2	10	7	SUSPECT	1415	n/a	n/a	0	0	0
1322731	REC_WORD	wordpools/wasnorm_wordpool_576.txt	LTP293	ltpFR2	10	7	PUDDING	1139	n/a	n/a	0	0	0
1324246	REC_WORD	wordpools/wasnorm_wordpool_576.txt	LTP293	ltpFR2	10	7	SNAIL	1332	n/a	n/a	0	0	0
1332485	REC_WORD	wordpools/wasnorm_wordpool_576.txt	LTP293	ltpFR2	10	7	CIGAR	308	n/a	n/a	0	0	0
1358730	REC_WORD	wordpools/wasnorm_wordpool_576.txt	LTP293	ltpFR2	10	7	CAMEL	223	n/a	n/a	0	0	0
1390347	DISTRACTOR	n/a	LTP293	ltpFR2	10	8	n/a	n/a	n/a	n/a	0	0	0
1390347	START	n/a	LTP293	ltpFR2	10	n/a	n/a	n/a	10	n/a	n/a	n/a	n/a
1390362	PROB	n/a	LTP293	ltpFR2	10	n/a	n/a	n/a	10	9	1	6	2
1391511	PROB	n/a	LTP293	ltpFR2	10	n/a	n/a	n/a	10	15	7	7	1
1392413	PROB	n/a	LTP293	ltpFR2	10	n/a	n/a	n/a	10	13	7	2	4
1395052	PROB	n/a	LTP293	ltpFR2	10	n/a	n/a	n/a	10	12	5	3	4
1396338	PROB	n/a	LTP293	ltpFR2	10	n/a	n/a	n/a	10	17	4	6	7
1397769	PROB	n/a	LTP293	ltpFR2	10	n/a	n/a	n/a	10	15	5	7	3
1398887	PROB	n/a	LTP293	ltpFR2	10	n/a	n/a	n/a	10	8	4	2	2
1400173	PROB	n/a	LTP293	ltpFR2	10	n/a	n/a	n/a	10	15	1	6	8
1401309	PROB	n/a	LTP293	ltpFR2	10	n/a	n/a	n/a	10	19	6	7	6
1402889	PROB	n/a	LTP293	ltpFR2	10	n/a	n/a	n/a	10	19	3	9	7
1404324	PROB	n/a	LTP293	ltpFR2	10	n/a	n/a	n/a	10	21	9	5	7
1405760	PROB	n/a	LTP293	ltpFR2	10	n/a	n/a	n/a	10	7	5	1	1
1406827	PROB	n/a	LTP293	ltpFR2	10	n/a	n/a	n/a	10	15	1	7	7
1407829	PROB	n/a	LTP293	ltpFR2	10	n/a	n/a	n/a	10	12	6	4	2
1409011	PROB	n/a	LTP293	ltpFR2	10	n/a	n/a	n/a	10	14	3	8	3
1410230	PROB	n/a	LTP293	ltpFR2	10	n/a	n/a	n/a	10	15	8	2	5
1411396	PROB	n/a	LTP293	ltpFR2	10	n/a	n/a	n/a	10	9	5	2	2
1414347	STOP	n/a	LTP293	ltpFR2	10	n/a	n/a	n/a	10	n/a	n/a	n/a	n/a
1415285	WORD	wordpools/wasnorm_wordpool_576.txt	LTP293	ltpFR2	10	8	MEDAL	885	n/a	n/a	0	0	0
1417820	WORD	wordpools/wasnorm_wordpool_576.txt	LTP293	ltpFR2	10	8	FLOWER	584	n/a	n/a	0	0	0
1420588	WORD	wordpools/wasnorm_wordpool_576.txt	LTP293	ltpFR2	10	8	LUMBER	848	n/a	n/a	0	0	0
1423075	WORD	wordpools/wasnorm_wordpool_576.txt	LTP293	ltpFR2	10	8	SHRUB	1299	n/a	n/a	0	0	0
1425712	WORD	wordpools/wasnorm_wordpool_576.txt	LTP293	ltpFR2	10	8	KEEPER	769	n/a	n/a	0	0	0
1428428	WORD	wordpools/wasnorm_wordpool_576.txt	LTP293	ltpFR2	10	8	RECORD	1176	n/a	n/a	0	0	0
1431065	WORD	wordpools/wasnorm_wordpool_576.txt	LTP293	ltpFR2	10	8	SKETCH	1315	n/a	n/a	0	0	0
1433818	WORD	wordpools/wasnorm_wordpool_576.txt	LTP293	ltpFR2	10	8	CANYON	235	n/a	n/a	0	0	0
1436586	WORD	wordpools/wasnorm_wordpool_576.txt	LTP293	ltpFR2	10	8	TEMPLE	1448	n/a	n/a	0	0	0
1439072	WORD	wordpools/wasnorm_wordpool_576.txt	LTP293	ltpFR2	10	8	PREACHER	1119	n/a	n/a	0	0	0
1441675	WORD	wordpools/wasnorm_wordpool_576.txt	LTP293	ltpFR2	10	8	KLEENEX	782	n/a	n/a	0	0	0
1444376	WORD	wordpools/wasnorm_wordpool_576.txt	LTP293	ltpFR2	10	8	RIVER	1194	n/a	n/a	0	0	0
1447046	WORD	wordpools/wasnorm_wordpool_576.txt	LTP293	ltpFR2	10	8	NECKLACE	940	n/a	n/a	0	0	0
1449848	WORD	wordpools/wasnorm_wordpool_576.txt	LTP293	ltpFR2	10	8	SALT	1229	n/a	n/a	0	0	0
1452615	WORD	wordpools/wasnorm_wordpool_576.txt	LTP293	ltpFR2	10	8	FOREST	593	n/a	n/a	0	0	0
1455118	WORD	wordpools/wasnorm_wordpool_576.txt	LTP293	ltpFR2	10	8	GIRL	637	n/a	n/a	0	0	0
1457637	WORD	wordpools/wasnorm_wordpool_576.txt	LTP293	ltpFR2	10	8	ATLAS	53	n/a	n/a	0	0	0
1460090	WORD	wordpools/wasnorm_wordpool_576.txt	LTP293	ltpFR2	10	8	SNAKE	1333	n/a	n/a	0	0	0
1462892	WORD	wordpools/wasnorm_wordpool_576.txt	LTP293	ltpFR2	10	8	NEUTRON	947	n/a	n/a	0	0	0
1465711	WORD	wordpools/wasnorm_wordpool_576.txt	LTP293	ltpFR2	10	8	SMOG	1330	n/a	n/a	0	0	0
1468445	WORD	wordpools/wasnorm_wordpool_576.txt	LTP293	ltpFR2	10	8	CLIMBER	323	n/a	n/a	0	0	0
1471248	WORD	wordpools/wasnorm_wordpool_576.txt	LTP293	ltpFR2	10	8	BISON	131	n/a	n/a	0	0	0
1474068	WORD	wordpools/wasnorm_wordpool_576.txt	LTP293	ltpFR2	10	8	RACKET	1155	n/a	n/a	0	0	0
1476535	WORD	wordpools/wasnorm_wordpool_576.txt	LTP293	ltpFR2	10	8	EXPERT	543	n/a	n/a	0	0	0
1478141	START	n/a	LTP293	ltpFR2	10	n/a	n/a	n/a	11	n/a	n/a	n/a	n/a
1479203	DISTRACTOR	n/a	LTP293	ltpFR2	10	8	n/a	n/a	n/a	n/a	0	0	0
1479208	PROB	n/a	LTP293	ltpFR2	10	n/a	n/a	n/a	11	14	2	9	3
1480587	PROB	n/a	LTP293	ltpFR2	10	n/a	n/a	n/a	11	11	2	6	3
1482472	PROB	n/a	LTP293	ltpFR2	10	n/a	n/a	n/a	11	16	7	4	5
1483659	PROB	n/a	LTP293	ltpFR2	10	n/a	n/a	n/a	11	21	8	9	4
1484942	PROB	n/a	LTP293	ltpFR2	10	n/a	n/a	n/a	11	16	2	9	5
1486492	PROB	n/a	LTP293	ltpFR2	10	n/a	n/a	n/a	11	10	5	4	1
1487593	PROB	n/a	LTP293	ltpFR2	10	n/a	n/a	n/a	11	16	6	2	8
1488744	PROB	n/a	LTP293	ltpFR2	10	n/a	n/a	n/a	11	15	7	2	6
1490429	PROB	n/a	LTP293	ltpFR2	10	n/a	n/a	n/a	11	17	4	6	7
1491545	PROB	n/a	LTP293	ltpFR2	10	n/a	n/a	n/a	11	8	4	1	3
1492732	PROB	n/a	LTP293	ltpFR2	10	n/a	n/a	n/a	11	14	4	1	9
1494284	PROB	n/a	LTP293	ltpFR2	10	n/a	n/a	n/a	11	21	3	9	9
1496050	PROB	n/a	LTP293	ltpFR2	10	n/a	n/a	n/a	11	17	6	7	4
1497584	PROB	n/a	LTP293	ltpFR2	10	n/a	n/a	n/a	11	11	5	1	5
1498568	PROB	n/a	LTP293	ltpFR2	10	n/a	n/a	n/a	11	19	9	7	3
1500205	PROB	n/a	LTP293	ltpFR2	10	n/a	n/a	n/a	11	10	4	4	2
1501561	STOP	n/a	LTP293	ltpFR2	10	n/a	n/a	n/a	11	n/a	n/a	n/a	n/a
1503909	REC_START	n/a	LTP293	ltpFR2	10	8	n/a	n/a	n/a	n/a	0	0	0
1504915	REC_WORD	wordpools/wasnorm_wordpool_576.txt	LTP293	ltpFR2	10	8	KEEPER	769	n/a	n/a	0	0	0
1506038	REC_WORD	wordpools/wasnorm_wordpool_576.txt	LTP293	ltpFR2	10	8	FLOWER	584	n/a	n/a	0	0	0
1508013	REC_WORD	wordpools/wasnorm_wordpool_576.txt	LTP293	ltpFR2	10	8	MEDAL	885	n/a	n/a	0	0	0
1509288	REC_WORD	wordpools/wasnorm_wordpool_576.txt	LTP293	ltpFR2	10	8	GIRL	637	n/a	n/a	0	0	0
1510415	REC_WORD	wordpools/wasnorm_wordpool_576.txt	LTP293	ltpFR2	10	8	CANYON	235	n/a	n/a	0	0	0
1511565	REC_WORD	wordpools/wasnorm_wordpool_576.txt	LTP293	ltpFR2	10	8	RIVER	1194	n/a	n/a	0	0	0
1513009	REC_WORD	wordpools/wasnorm_wordpool_576.txt	LTP293	ltpFR2	10	8	NECKLACE	940	n/a	n/a	0	0	0
1514164	REC_WORD	wordpools/wasnorm_wordpool_576.txt	LTP293	ltpFR2	10	8	NEUTRON	947	n/a	n/a	0	0	0
1515478	REC_WORD	wordpools/wasnorm_wordpool_576.txt	LTP293	ltpFR2	10	8	SMOG	1330	n/a	n/a	0	0	0
1517526	REC_WORD	wordpools/wasnorm_wordpool_576.txt	LTP293	ltpFR2	10	8	LUMBER	848	n/a	n/a	0	0	0
1518722	REC_WORD	wordpools/wasnorm_wordpool_576.txt	LTP293	ltpFR2	10	8	CLIMBER	323	n/a	n/a	0	0	0
1528024	REC_WORD	wordpools/wasnorm_wordpool_576.txt	LTP293	ltpFR2	10	8	SKETCH	1315	n/a	n/a	0	0	0
1580435	REST_REWET	n/a	LTP293	ltpFR2	10	8	n/a	n/a	n/a	n/a	0	0	0
1804198	WORD	wordpools/wasnorm_wordpool_576.txt	LTP293	ltpFR2	10	9	GLOVE	642	n/a	n/a	0	0	0
1806624	WORD	wordpools/wasnorm_wordpool_576.txt	LTP293	ltpFR2	10	9	SHERIFF	1284	n/a	n/a	0	0	0
1809070	WORD	wordpools/wasnorm_wordpool_576.txt	LTP293	ltpFR2	10	9	MILDEW	893	n/a	n/a	0	0	0
1811671	WORD	wordpools/wasnorm_wordpool_576.txt	LTP293	ltpFR2	10	9	PICNIC	1060	n/a	n/a	0	0	0
1814299	WORD	wordpools/wasnorm_wordpool_576.txt	LTP293	ltpFR2	10	9	JELLY	755	n/a	n/a	0	0	0
1816759	WORD	wordpools/wasnorm_wordpool_576.txt	LTP293	ltpFR2	10	9	BOUQUET	157	n/a	n/a	0	0	0
1819443	WORD	wordpools/wasnorm_wordpool_576.txt	LTP293	ltpFR2	10	9	PIGMENT	1066	n/a	n/a	0	0	0
1821913	WORD	wordpools/wasnorm_wordpool_576.txt	LTP293	ltpFR2	10	9	KETCHUP	771	n/a	n/a	0	0	0
1824581	WORD	wordpools/wasnorm_wordpool_576.txt	LTP293	ltpFR2	10	9	SCALLOP	1242	n/a	n/a	0	0	0
1827345	WORD	wordpools/wasnorm_wordpool_576.txt	LTP293	ltpFR2	10	9	FARMER	553	n/a	n/a	0	0	0
1830053	WORD	wordpools/wasnorm_wordpool_576.txt	LTP293	ltpFR2	10	9	SPOOL	1356	n/a	n/a	0	0	0
1832520	WORD	wordpools/wasnorm_wordpool_576.txt	LTP293	ltpFR2	10	9	COUNTY	389	n/a	n/a	0	0	0
1835200	WORD	wordpools/wasnorm_wordpool_576.txt	LTP293	ltpFR2	10	9	BRICK	172	n/a	n/a	0	0	0
1837903	WORD	wordpools/wasnorm_wordpool_576.txt	LTP293	ltpFR2	10	9	LAKE	796	n/a	n/a	0	0	0
1840662	WORD	wordpools/wasnorm_wordpool_576.txt	LTP293	ltpFR2	10	9	ISLAND	745	n/a	n/a	0	0	0
1843341	WORD	wordpools/wasnorm_wordpool_576.txt	LTP293	ltpFR2	10	9	LAVA	804	n/a	n/a	0	0	0
1846161	WORD	wordpools/wasnorm_wordpool_576.txt	LTP293	ltpFR2	10	9	FINGER	567	n/a	n/a	0	0	0
1848668	WORD	wordpools/wasnorm_wordpool_576.txt	LTP293	ltpFR2	10	9	CURTAIN	427	n/a	n/a	0	0	0
1851214	WORD	wordpools/wasnorm_wordpool_576.txt	LTP293	ltpFR2	10	9	WINDOW	1611	n/a	n/a	0	0	0
1853968	WORD	wordpools/wasnorm_wordpool_576.txt	LTP293	ltpFR2	10	9	PORK	1108	n/a	n/a	0	0	0
1856658	WORD	wordpools/wasnorm_wordpool_576.txt	LTP293	ltpFR2	10	9	TRACTOR	1493	n/a	n/a	0	0	0
1859405	WORD	wordpools/wasnorm_wordpool_576.txt	LTP293	ltpFR2	10	9	BANJO	82	n/a	n/a	0	0	0
1862091	WORD	wordpools/wasnorm_wordpool_576.txt	LTP293	ltpFR2	10	9	WORKER	1621	n/a	n/a	0	0	0
1864508	WORD	wordpools/wasnorm_wordpool_576.txt	LTP293	ltpFR2	10	9	FRAGRANCE	599	n/a	n/a	0	0	0
1866116	START	n/a	LTP293	ltpFR2	10	n/a	n/a	n/a	12	n/a	n/a	n/a	n/a
1866931	DISTRACTOR	n/a	LTP293	ltpFR2	10	9	n/a	n/a	n/a	n/a	0	0	0
1866945	PROB	n/a	LTP293	ltpFR2	10	n/a	n/a	n/a	12	11	2	5	4
1869415	PROB	n/a	LTP293	ltpFR2	10	n/a	n/a	n/a	12	17	3	6	8
1870687	PROB	n/a	LTP293	ltpFR2	10	n/a	n/a	n/a	12	15	1	5	9
1871787	PROB	n/a	LTP293	ltpFR2	10	n/a	n/a	n/a	12	18	7	6	5
1873751	PROB	n/a	LTP293	ltpFR2	10	n/a	n/a	n/a	12	19	7	4	8
1875184	PROB	n/a	LTP293	ltpFR2	10	n/a	n/a	n/a	12	12	7	3	2
1876451	PROB	n/a	LTP293	ltpFR2	10	n/a	n/a	n/a	12	10	2	3	5
1877586	PROB	n/a	LTP293	ltpFR2	10	n/a	n/a	n/a	12	26	9	8	9
1879188	PROB	n/a	LTP293	ltpFR2	10	n/a	n/a	n/a	12	22	8	7	7
1880941	PROB	n/a	LTP293	ltpFR2	10	n/a	n/a	n/a	12	14	1	7	6
1882225	PROB	n/a	LTP293	ltpFR2	10	n/a	n/a	n/a	12	20	6	7	7
1883343	PROB	n/a	LTP293	ltpFR2	10	n/a	n/a	n/a	12	10	1	2	7
1884442	PROB	n/a	LTP293	ltpFR2	10	n/a	n/a	n/a	12	15	1	9	5
1885426	PROB	n/a	LTP293	ltpFR2	10	n/a	n/a	n/a	12	12	2	7	3
1886527	PROB	n/a	LTP293	ltpFR2	10	n/a	n/a	n/a	12	13	5	7	1
1887778	PROB	n/a	LTP293	ltpFR2	10	n/a	n/a	n/a	12	22	4	9	9
1889552	STOP	n/a	LTP293	ltpFR2	10	n/a	n/a	n/a	12	n/a	n/a	n/a	n/a
1891985	REC_START	n/a	LTP293	ltpFR2	10	9	n/a	n/a	n/a	n/a	0	0	0
1893639	REC_WORD	wordpools/wasnorm_wordpool_576.txt	LTP293	ltpFR2	10	9	BRICK	172	n/a	n/a	0	0	0
1894859	REC_WORD	wordpools/wasnorm_wordpool_576.txt	LTP293	ltpFR2	10	9	FARMER	553	n/a	n/a	0	0	0
1900231	REC_WORD	wordpools/wasnorm_wordpool_576.txt	LTP293	ltpFR2	10	9	SHERIFF	1284	n/a	n/a	0	0	0
1902632	REC_WORD	wordpools/wasnorm_wordpool_576.txt	LTP293	ltpFR2	10	9	GLOVE	642	n/a	n/a	0	0	0
1904162	REC_WORD	wordpools/wasnorm_wordpool_576.txt	LTP293	ltpFR2	10	9	BOUQUET	157	n/a	n/a	0	0	0
1905722	REC_WORD	wordpools/wasnorm_wordpool_576.txt	LTP293	ltpFR2	10	9	PIGMENT	1066	n/a	n/a	0	0	0
1907255	REC_WORD	wordpools/wasnorm_wordpool_576.txt	LTP293	ltpFR2	10	9	LAKE	796	n/a	n/a	0	0	0
1910234	REC_WORD	wordpools/wasnorm_wordpool_576.txt	LTP293	ltpFR2	10	9	SCALLOP	1242	n/a	n/a	0	0	0
1916815	REC_WORD	wordpools/wasnorm_wordpool_576.txt	LTP293	ltpFR2	10	9	WINDOW	1611	n/a	n/a	0	0	0
1918045	REC_WORD	wordpools/wasnorm_wordpool_576.txt	LTP293	ltpFR2	10	9	CURTAIN	427	n/a	n/a	0	0	0
1939305	REC_WORD	wordpools/wasnorm_wordpool_576.txt	LTP293	ltpFR2	10	9	LAVA	804	n/a	n/a	0	0	0
1940463	REC_WORD	wordpools/wasnorm_wordpool_576.txt	LTP293	ltpFR2	10	9	ISLAND	745	n/a	n/a	0	0	0
1982424	DISTRACTOR	n/a	LTP293	ltpFR2	10	10	n/a	n/a	n/a	n/a	0	0	0
1982424	START	n/a	LTP293	ltpFR2	10	n/a	n/a	n/a	13	n/a	n/a	n/a	n/a
1982440	PROB	n/a	LTP293	ltpFR2	10	n/a	n/a	n/a	13	8	2	4	2
1983590	PROB	n/a	LTP293	ltpFR2	10	n/a	n/a	n/a	13	19	7	6	6
1985210	PROB	n/a	LTP293	ltpFR2	10	n/a	n/a	n/a	13	11	3	1	7
1986359	PROB	n/a	LTP293	ltpFR2	10	n/a	n/a	n/a	13	12	1	5	6
1987329	PROB	n/a	LTP293	ltpFR2	10	n/a	n/a	n/a	13	25	7	9	9
1988646	PROB	n/a	LTP293	ltpFR2	10	n/a	n/a	n/a	13	19	3	8	8
1990130	PROB	n/a	LTP293	ltpFR2	10	n/a	n/a	n/a	13	25	8	8	7
1992032	PROB	n/a	LTP293	ltpFR2	10	n/a	n/a	n/a	13	8	3	2	3
1993550	PROB	n/a	LTP293	ltpFR2	10	n/a	n/a	n/a	13	6	3	1	2
1994751	PROB	n/a	LTP293	ltpFR2	10	n/a	n/a	n/a	13	20	7	6	7
1997288	PROB	n/a	LTP293	ltpFR2	10	n/a	n/a	n/a	13	8	2	5	1
1998637	PROB	n/a	LTP293	ltpFR2	10	n/a	n/a	n/a	13	14	1	5	8
2000021	PROB	n/a	LTP293	ltpFR2	10	n/a	n/a	n/a	13	9	3	1	5
2001273	PROB	n/a	LTP293	ltpFR2	10	n/a	n/a	n/a	13	9	1	2	6
2002390	PROB	n/a	LTP293	ltpFR2	10	n/a	n/a	n/a	13	16	4	6	6
2004525	PROB	n/a	LTP293	ltpFR2	10	n/a	n/a	n/a	13	10	6	2	2
2005926	STOP	n/a	LTP293	ltpFR2	10	n/a	n/a	n/a	13	n/a	n/a	n/a	n/a
2007519	WORD	wordpools/wasnorm_wordpool_576.txt	LTP293	ltpFR2	10	10	QUARTER	1148	n/a	n/a	0	0	0
2010231	WORD	wordpools/wasnorm_wordpool_576.txt	LTP293	ltpFR2	10	10	DIME	466	n/a	n/a	0	0	0
2012833	WORD	wordpools/wasnorm_wordpool_576.txt	LTP293	ltpFR2	10	10	DINER	467	n/a	n/a	0	0	0
2015335	WORD	wordpools/wasnorm_wordpool_576.txt	LTP293	ltpFR2	10	10	TROUT	1511	n/a	n/a	0	0	0
2018154	WORD	wordpools/wasnorm_wordpool_576.txt	LTP293	ltpFR2	10	10	LADDER	793	n/a	n/a	0	0	0
2020796	WORD	wordpools/wasnorm_wordpool_576.txt	LTP293	ltpFR2	10	10	CRAB	397	n/a	n/a	0	0	0
2023441	WORD	wordpools/wasnorm_wordpool_576.txt	LTP293	ltpFR2	10	10	JELLO	754	n/a	n/a	0	0	0
2025917	WORD	wordpools/wasnorm_wordpool_576.txt	LTP293	ltpFR2	10	10	KNAPSACK	783	n/a	n/a	0	0	0
2028569	WORD	wordpools/wasnorm_wordpool_576.txt	LTP293	ltpFR2	10	10	DONOR	485	n/a	n/a	0	0	0
2031322	WORD	wordpools/wasnorm_wordpool_576.txt	LTP293	ltpFR2	10	10	HATCHET	691	n/a	n/a	0	0	0
2034024	WORD	wordpools/wasnorm_wordpool_576.txt	LTP293	ltpFR2	10	10	CLOCK	325	n/a	n/a	0	0	0
2036459	WORD	wordpools/wasnorm_wordpool_576.txt	LTP293	ltpFR2	10	10	SHORTS	1293	n/a	n/a	0	0	0
2039255	WORD	wordpools/wasnorm_wordpool_576.txt	LTP293	ltpFR2	10	10	COOK	372	n/a	n/a	0	0	0
2041815	WORD	wordpools/wasnorm_wordpool_576.txt	LTP293	ltpFR2	10	10	CONCERT	360	n/a	n/a	0	0	0
2044558	WORD	wordpools/wasnorm_wordpool_576.txt	LTP293	ltpFR2	10	10	HANDBAG	684	n/a	n/a	0	0	0
2047228	WORD	wordpools/wasnorm_wordpool_576.txt	LTP293	ltpFR2	10	10	SALMON	1227	n/a	n/a	0	0	0
2049663	WORD	wordpools/wasnorm_wordpool_576.txt	LTP293	ltpFR2	10	10	CLOTHES	327	n/a	n/a	0	0	0
2052324	WORD	wordpools/wasnorm_wordpool_576.txt	LTP293	ltpFR2	10	10	TOASTER	1472	n/a	n/a	0	0	0
2054809	WORD	wordpools/wasnorm_wordpool_576.txt	LTP293	ltpFR2	10	10	BEAVER	109	n/a	n/a	0	0	0
2057345	WORD	wordpools/wasnorm_wordpool_576.txt	LTP293	ltpFR2	10	10	PLATE	1086	n/a	n/a	0	0	0
2059837	WORD	wordpools/wasnorm_wordpool_576.txt	LTP293	ltpFR2	10	10	TREAT	1501	n/a	n/a	0	0	0
2062489	WORD	wordpools/wasnorm_wordpool_576.txt	LTP293	ltpFR2	10	10	DENTIST	447	n/a	n/a	0	0	0
2064918	WORD	wordpools/wasnorm_wordpool_576.txt	LTP293	ltpFR2	10	10	DRESS	495	n/a	n/a	0	0	0
2067602	WORD	wordpools/wasnorm_wordpool_576.txt	LTP293	ltpFR2	10	10	COSTUME	383	n/a	n/a	0	0	0
2069213	START	n/a	LTP293	ltpFR2	10	n/a	n/a	n/a	14	n/a	n/a	n/a	n/a
2070190	DISTRACTOR	n/a	LTP293	ltpFR2	10	10	n/a	n/a	n/a	n/a	0	0	0
2070196	PROB	n/a	LTP293	ltpFR2	10	n/a	n/a	n/a	14	16	2	8	6
2071247	PROB	n/a	LTP293	ltpFR2	10	n/a	n/a	n/a	14	14	4	3	7
2072731	PROB	n/a	LTP293	ltpFR2	10	n/a	n/a	n/a	14	15	3	5	7
2074733	PROB	n/a	LTP293	ltpFR2	10	n/a	n/a	n/a	14	15	7	1	7
2076650	PROB	n/a	LTP293	ltpFR2	10	n/a	n/a	n/a	14	17	2	8	7
2077902	PROB	n/a	LTP293	ltpFR2	10	n/a	n/a	n/a	14	23	9	6	8
2079752	PROB	n/a	LTP293	ltpFR2	10	n/a	n/a	n/a	14	15	1	6	8
2081104	PROB	n/a	LTP293	ltpFR2	10	n/a	n/a	n/a	14	17	8	1	8
2082655	PROB	n/a	LTP293	ltpFR2	10	n/a	n/a	n/a	14	9	7	1	1
2083789	PROB	n/a	LTP293	ltpFR2	10	n/a	n/a	n/a	14	11	5	1	5
2084773	PROB	n/a	LTP293	ltpFR2	10	n/a	n/a	n/a	14	14	8	6	2
2086140	PROB	n/a	LTP293	ltpFR2	10	n/a	n/a	n/a	14	17	9	5	3
2087407	PROB	n/a	LTP293	ltpFR2	10	n/a	n/a	n/a	14	14	4	7	3
2089476	PROB	n/a	LTP293	ltpFR2	10	n/a	n/a	n/a	14	11	7	1	3
2090460	PROB	n/a	LTP293	ltpFR2	10	n/a	n/a	n/a	14	11	4	3	4
2092202	STOP	n/a	LTP293	ltpFR2	10	n/a	n/a	n/a	14	n/a	n/a	n/a	n/a
2095100	REC_START	n/a	LTP293	ltpFR2	10	10	n/a	n/a	n/a	n/a	0	0	0
2095581	REC_WORD	wordpools/wasnorm_wordpool_576.txt	LTP293	ltpFR2	10	10	DINER	467	n/a	n/a	0	0	0
2096660	REC_WORD	wordpools/wasnorm_wordpool_576.txt	LTP293	ltpFR2	10	10	CLOCK	325	n/a	n/a	0	0	0
2098014	REC_WORD	wordpools/wasnorm_wordpool_576.txt	LTP293	ltpFR2	10	10	SHORTS	1293	n/a	n/a	0	0	0
2100078	REC_WORD	wordpools/wasnorm_wordpool_576.txt	LTP293	ltpFR2	10	10	KNAPSACK	783	n/a	n/a	0	0	0
2102074	REC_WORD	wordpools/wasnorm_wordpool_576.txt	LTP293	ltpFR2	10	10	CLOTHES	327	n/a	n/a	0	0	0
2103478	REC_WORD	wordpools/wasnorm_wordpool_576.txt	LTP293	ltpFR2	10	10	HANDBAG	684	n/a	n/a	0	0	0
2104989	REC_WORD	wordpools/wasnorm_wordpool_576.txt	LTP293	ltpFR2	10	10	COSTUME	383	n/a	n/a	0	0	0
2106501	REC_WORD	wordpools/wasnorm_wordpool_576.txt	LTP293	ltpFR2	10	10	DRESS	495	n/a	n/a	0	0	0
2107966	REC_WORD	wordpools/wasnorm_wordpool_576.txt	LTP293	ltpFR2	10	10	TROUT	1511	n/a	n/a	0	0	0
2109124	REC_WORD	wordpools/wasnorm_wordpool_576.txt	LTP293	ltpFR2	10	10	SALMON	1227	n/a	n/a	0	0	0
2111125	REC_WORD	wordpools/wasnorm_wordpool_576.txt	LTP293	ltpFR2	10	10	CRAB	397	n/a	n/a	0	0	0
2114561	REC_WORD	wordpools/wasnorm_wordpool_576.txt	LTP293	ltpFR2	10	10	QUARTER	1148	n/a	n/a	0	0	0
2116672	REC_WORD	wordpools/wasnorm_wordpool_576.txt	LTP293	ltpFR2	10	10	DIME	466	n/a	n/a	0	0	0
2124191	REC_WORD	wordpools/wasnorm_wordpool_576.txt	LTP293	ltpFR2	10	10	DENTIST	447	n/a	n/a	0	0	0
2125908	REC_WORD	wordpools/wasnorm_wordpool_576.txt	LTP293	ltpFR2	10	10	BEAVER	109	n/a	n/a	0	0	0
2127377	REC_WORD	wordpools/wasnorm_wordpool_576.txt	LTP293	ltpFR2	10	10	COOK	372	n/a	n/a	0	0	0
2128783	REC_WORD	wordpools/wasnorm_wordpool_576.txt	LTP293	ltpFR2	10	10	CONCERT	360	n/a	n/a	0	0	0
2185554	DISTRACTOR	n/a	LTP293	ltpFR2	10	11	n/a	n/a	n/a	n/a	0	0	0
2185554	START	n/a	LTP293	ltpFR2	10	n/a	n/a	n/a	15	n/a	n/a	n/a	n/a
2185569	PROB	n/a	LTP293	ltpFR2	10	n/a	n/a	n/a	15	17	6	3	8
2187205	PROB	n/a	LTP293	ltpFR2	10	n/a	n/a	n/a	15	24	9	9	6
2188538	PROB	n/a	LTP293	ltpFR2	10	n/a	n/a	n/a	15	15	6	2	7
2189841	PROB	n/a	LTP293	ltpFR2	10	n/a	n/a	n/a	15	10	4	2	4
2191742	PROB	n/a	LTP293	ltpFR2	10	n/a	n/a	n/a	15	12	1	2	9
2193128	PROB	n/a	LTP293	ltpFR2	10	n/a	n/a	n/a	15	13	1	9	3
2194728	PROB	n/a	LTP293	ltpFR2	10	n/a	n/a	n/a	15	7	2	2	3
2196679	PROB	n/a	LTP293	ltpFR2	10	n/a	n/a	n/a	15	21	6	9	6
2198330	PROB	n/a	LTP293	ltpFR2	10	n/a	n/a	n/a	15	13	3	9	1
2200683	PROB	n/a	LTP293	ltpFR2	10	n/a	n/a	n/a	15	12	6	2	5
2201950	PROB	n/a	LTP293	ltpFR2	10	n/a	n/a	n/a	15	16	8	2	6
2203787	PROB	n/a	LTP293	ltpFR2	10	n/a	n/a	n/a	15	9	1	3	5
2205020	PROB	n/a	LTP293	ltpFR2	10	n/a	n/a	n/a	15	15	9	5	1
2206189	PROB	n/a	LTP293	ltpFR2	10	n/a	n/a	n/a	15	22	6	8	8
2209554	STOP	n/a	LTP293	ltpFR2	10	n/a	n/a	n/a	15	n/a	n/a	n/a	n/a
2210709	WORD	wordpools/wasnorm_wordpool_576.txt	LTP293	ltpFR2	10	11	HOOK	715	n/a	n/a	0	0	0
2213344	WORD	wordpools/wasnorm_wordpool_576.txt	LTP293	ltpFR2	10	11	VALVE	1546	n/a	n/a	0	0	0
2215896	WORD	wordpools/wasnorm_wordpool_576.txt	LTP293	ltpFR2	10	11	MAILBOX	857	n/a	n/a	0	0	0
2218431	WORD	wordpools/wasnorm_wordpool_576.txt	LTP293	ltpFR2	10	11	DANDRUFF	439	n/a	n/a	0	0	0
2220850	WORD	wordpools/wasnorm_wordpool_576.txt	LTP293	ltpFR2	10	11	BRIEFCASE	175	n/a	n/a	0	0	0
2223384	WORD	wordpools/wasnorm_wordpool_576.txt	LTP293	ltpFR2	10	11	FOREHEAD	592	n/a	n/a	0	0	0
2226204	WORD	wordpools/wasnorm_wordpool_576.txt	LTP293	ltpFR2	10	11	LIVER	833	n/a	n/a	0	0	0
2228823	WORD	wordpools/wasnorm_wordpool_576.txt	LTP293	ltpFR2	10	11	STAMP	1370	n/a	n/a	0	0	0
2231479	WORD	wordpools/wasnorm_wordpool_576.txt	LTP293	ltpFR2	10	11	FLASHLIGHT	575	n/a	n/a	0	0	0
2234211	WORD	wordpools/wasnorm_wordpool_576.txt	LTP293	ltpFR2	10	11	ROD	1203	n/a	n/a	0	0	0
2236830	WORD	wordpools/wasnorm_wordpool_576.txt	LTP293	ltpFR2	10	11	COCKTAIL	338	n/a	n/a	0	0	0
2239453	WORD	wordpools/wasnorm_wordpool_576.txt	LTP293	ltpFR2	10	11	STOVE	1388	n/a	n/a	0	0	0
2242000	WORD	wordpools/wasnorm_wordpool_576.txt	LTP293	ltpFR2	10	11	HEADBAND	696	n/a	n/a	0	0	0
2244652	WORD	wordpools/wasnorm_wordpool_576.txt	LTP293	ltpFR2	10	11	POSSUM	1112	n/a	n/a	0	0	0
2247171	WORD	wordpools/wasnorm_wordpool_576.txt	LTP293	ltpFR2	10	11	BUCKET	184	n/a	n/a	0	0	0
2249707	WORD	wordpools/wasnorm_wordpool_576.txt	LTP293	ltpFR2	10	11	SHELF	1280	n/a	n/a	0	0	0
2252341	WORD	wordpools/wasnorm_wordpool_576.txt	LTP293	ltpFR2	10	11	AUTHOR	61	n/a	n/a	0	0	0
2254894	WORD	wordpools/wasnorm_wordpool_576.txt	LTP293	ltpFR2	10	11	IGLOO	734	n/a	n/a	0	0	0
2257685	WORD	wordpools/wasnorm_wordpool_576.txt	LTP293	ltpFR2	10	11	HUMAN	726	n/a	n/a	0	0	0
2260315	WORD	wordpools/wasnorm_wordpool_576.txt	LTP293	ltpFR2	10	11	FLESH	579	n/a	n/a	0	0	0
2263034	WORD	wordpools/wasnorm_wordpool_576.txt	LTP293	ltpFR2	10	11	POLICE	1098	n/a	n/a	0	0	0
2265743	WORD	wordpools/wasnorm_wordpool_576.txt	LTP293	ltpFR2	10	11	GUARD	667	n/a	n/a	0	0	0
2268545	WORD	wordpools/wasnorm_wordpool_576.txt	LTP293	ltpFR2	10	11	MARROW	872	n/a	n/a	0	0	0
2271073	WORD	wordpools/wasnorm_wordpool_576.txt	LTP293	ltpFR2	10	11	STATUE	1374	n/a	n/a	0	0	0
2272683	START	n/a	LTP293	ltpFR2	10	n/a	n/a	n/a	16	n/a	n/a	n/a	n/a
2273547	DISTRACTOR	n/a	LTP293	ltpFR2	10	11	n/a	n/a	n/a	n/a	0	0	0
2273558	PROB	n/a	LTP293	ltpFR2	10	n/a	n/a	n/a	16	12	8	2	1
2275125	PROB	n/a	LTP293	ltpFR2	10	n/a	n/a	n/a	16	12	5	4	3
2276560	PROB	n/a	LTP293	ltpFR2	10	n/a	n/a	n/a	16	15	2	4	9
2277729	PROB	n/a	LTP293	ltpFR2	10	n/a	n/a	n/a	16	5	2	1	2
2278747	PROB	n/a	LTP293	ltpFR2	10	n/a	n/a	n/a	16	12	5	6	1
2279964	PROB	n/a	LTP293	ltpFR2	10	n/a	n/a	n/a	16	14	1	8	5
2281579	PROB	n/a	LTP293	ltpFR2	10	n/a	n/a	n/a	16	14	2	6	6
2283849	PROB	n/a	LTP293	ltpFR2	10	n/a	n/a	n/a	16	17	2	8	7
2285033	PROB	n/a	LTP293	ltpFR2	10	n/a	n/a	n/a	16	12	1	8	3
2286469	PROB	n/a	LTP293	ltpFR2	10	n/a	n/a	n/a	16	11	1	6	4
2287636	PROB	n/a	LTP293	ltpFR2	10	n/a	n/a	n/a	16	10	5	1	4
2289037	PROB	n/a	LTP293	ltpFR2	10	n/a	n/a	n/a	16	19	6	7	6
2290688	PROB	n/a	LTP293	ltpFR2	10	n/a	n/a	n/a	16	15	5	1	9
2292106	PROB	n/a	LTP293	ltpFR2	10	n/a	n/a	n/a	16	19	6	4	9
2293389	PROB	n/a	LTP293	ltpFR2	10	n/a	n/a	n/a	16	7	1	2	4
2295314	STOP	n/a	LTP293	ltpFR2	10	n/a	n/a	n/a	16	n/a	n/a	n/a	n/a
2298427	REC_START	n/a	LTP293	ltpFR2	10	11	n/a	n/a	n/a	n/a	0	0	0
2299140	REC_WORD	wordpools/wasnorm_wordpool_576.txt	LTP293	ltpFR2	10	11	MAILBOX	857	n/a	n/a	0	0	0
2300630	REC_WORD	wordpools/wasnorm_wordpool_576.txt	LTP293	ltpFR2	10	11	HUMAN	726	n/a	n/a	0	0	0
2302049	REC_WORD	wordpools/wasnorm_wordpool_576.txt	LTP293	ltpFR2	10	11	FLESH	579	n/a	n/a	0	0	0
2303376	REC_WORD	wordpools/wasnorm_wordpool_576.txt	LTP293	ltpFR2	10	11	POLICE	1098	n/a	n/a	0	0	0
2304907	REC_WORD	wordpools/wasnorm_wordpool_576.txt	LTP293	ltpFR2	10	11	GUARD	667	n/a	n/a	0	0	0
2306220	REC_WORD	wordpools/wasnorm_wordpool_576.txt	LTP293	ltpFR2	10	11	FLASHLIGHT	575	n/a	n/a	0	0	0
2311243	REC_WORD	wordpools/wasnorm_wordpool_576.txt	LTP293	ltpFR2	10	11	MARROW	872	n/a	n/a	0	0	0
2313352	REC_WORD	wordpools/wasnorm_wordpool_576.txt	LTP293	ltpFR2	10	11	STOVE	1388	n/a	n/a	0	0	0
2314747	REC_WORD	wordpools/wasnorm_wordpool_576.txt	LTP293	ltpFR2	10	11	SHELF	1280	n/a	n/a	0	0	0
2316077	REC_WORD	wordpools/wasnorm_wordpool_576.txt	LTP293	ltpFR2	10	11	IGLOO	734	n/a	n/a	0	0	0
2317363	REC_WORD	wordpools/wasnorm_wordpool_576.txt	LTP293	ltpFR2	10	11	AUTHOR	61	n/a	n/a	0	0	0
2325996	REC_WORD	wordpools/wasnorm_wordpool_576.txt	LTP293	ltpFR2	10	11	ROD	1203	n/a	n/a	0	0	0
2334121	REC_WORD	wordpools/wasnorm_wordpool_576.txt	LTP293	ltpFR2	10	11	STAMP	1370	n/a	n/a	0	0	0
2388884	DISTRACTOR	n/a	LTP293	ltpFR2	10	12	n/a	n/a	n/a	n/a	0	0	0
2388885	START	n/a	LTP293	ltpFR2	10	n/a	n/a	n/a	17	n/a	n/a	n/a	n/a
2388902	PROB	n/a	LTP293	ltpFR2	10	n/a	n/a	n/a	17	14	2	9	3
2390086	PROB	n/a	LTP293	ltpFR2	10	n/a	n/a	n/a	17	17	6	3	8
2391335	PROB	n/a	LTP293	ltpFR2	10	n/a	n/a	n/a	17	15	2	6	7
2392437	PROB	n/a	LTP293	ltpFR2	10	n/a	n/a	n/a	17	13	6	5	2
2394621	PROB	n/a	LTP293	ltpFR2	10	n/a	n/a	n/a	17	15	2	6	7
2396040	PROB	n/a	LTP293	ltpFR2	10	n/a	n/a	n/a	17	15	3	9	3
2397140	PROB	n/a	LTP293	ltpFR2	10	n/a	n/a	n/a	17	14	2	7	5
2398357	PROB	n/a	LTP293	ltpFR2	10	n/a	n/a	n/a	17	23	9	8	6
2399424	PROB	n/a	LTP293	ltpFR2	10	n/a	n/a	n/a	17	17	8	4	5
2401027	PROB	n/a	LTP293	ltpFR2	10	n/a	n/a	n/a	17	10	5	1	4
2402196	PROB	n/a	LTP293	ltpFR2	10	n/a	n/a	n/a	17	16	4	4	8
2403611	PROB	n/a	LTP293	ltpFR2	10	n/a	n/a	n/a	17	20	8	6	6
2405764	PROB	n/a	LTP293	ltpFR2	10	n/a	n/a	n/a	17	13	3	5	5
2406950	PROB	n/a	LTP293	ltpFR2	10	n/a	n/a	n/a	17	15	7	6	2
2408766	PROB	n/a	LTP293	ltpFR2	10	n/a	n/a	n/a	17	9	2	1	6
2409967	PROB	n/a	LTP293	ltpFR2	10	n/a	n/a	n/a	17	13	9	2	2
2411533	STOP	n/a	LTP293	ltpFR2	10	n/a	n/a	n/a	17	n/a	n/a	n/a	n/a
2414039	WORD	wordpools/wasnorm_wordpool_576.txt	LTP293	ltpFR2	10	12	NIGHTGOWN	953	n/a	n/a	0	0	0
2416791	WORD	wordpools/wasnorm_wordpool_576.txt	LTP293	ltpFR2	10	12	KITCHEN	778	n/a	n/a	0	0	0
2419559	WORD	wordpools/wasnorm_wordpool_576.txt	LTP293	ltpFR2	10	12	MARS	873	n/a	n/a	0	0	0
2422278	WORD	wordpools/wasnorm_wordpool_576.txt	LTP293	ltpFR2	10	12	RUG	1215	n/a	n/a	0	0	0
2425013	WORD	wordpools/wasnorm_wordpool_576.txt	LTP293	ltpFR2	10	12	CRUTCH	417	n/a	n/a	0	0	0
2427482	WORD	wordpools/wasnorm_wordpool_576.txt	LTP293	ltpFR2	10	12	PAIL	1002	n/a	n/a	0	0	0
2430187	WORD	wordpools/wasnorm_wordpool_576.txt	LTP293	ltpFR2	10	12	SADDLE	1221	n/a	n/a	0	0	0
2432754	WORD	wordpools/wasnorm_wordpool_576.txt	LTP293	ltpFR2	10	12	DONKEY	484	n/a	n/a	0	0	0
2435205	WORD	wordpools/wasnorm_wordpool_576.txt	LTP293	ltpFR2	10	12	APRON	35	n/a	n/a	0	0	0
2437774	WORD	wordpools/wasnorm_wordpool_576.txt	LTP293	ltpFR2	10	12	SCARECROW	1245	n/a	n/a	0	0	0
2440425	WORD	wordpools/wasnorm_wordpool_576.txt	LTP293	ltpFR2	10	12	CROWN	415	n/a	n/a	0	0	0
2443148	WORD	wordpools/wasnorm_wordpool_576.txt	LTP293	ltpFR2	10	12	MUMMY	932	n/a	n/a	0	0	0
2445613	WORD	wordpools/wasnorm_wordpool_576.txt	LTP293	ltpFR2	10	12	PRINCESS	1125	n/a	n/a	0	0	0
2448220	WORD	wordpools/wasnorm_wordpool_576.txt	LTP293	ltpFR2	10	12	PARSLEY	1016	n/a	n/a	0	0	0
2450685	WORD	wordpools/wasnorm_wordpool_576.txt	LTP293	ltpFR2	10	12	BIKE	125	n/a	n/a	0	0	0
2453403	WORD	wordpools/wasnorm_wordpool_576.txt	LTP293	ltpFR2	10	12	ZIPPER	1636	n/a	n/a	0	0	0
2455989	WORD	wordpools/wasnorm_wordpool_576.txt	LTP293	ltpFR2	10	12	SHIRT	1287	n/a	n/a	0	0	0
2458691	WORD	wordpools/wasnorm_wordpool_576.txt	LTP293	ltpFR2	10	12	PUPIL	1143	n/a	n/a	0	0	0
2461429	WORD	wordpools/wasnorm_wordpool_576.txt	LTP293	ltpFR2	10	12	ULCER	1533	n/a	n/a	0	0	0
2464199	WORD	wordpools/wasnorm_wordpool_576.txt	LTP293	ltpFR2	10	12	ELBOW	520	n/a	n/a	0	0	0
2466931	WORD	wordpools/wasnorm_wordpool_576.txt	LTP293	ltpFR2	10	12	PIGEON	1065	n/a	n/a	0	0	0
2469733	WORD	wordpools/wasnorm_wordpool_576.txt	LTP293	ltpFR2	10	12	DRILL	497	n/a	n/a	0	0	0
2472218	WORD	wordpools/wasnorm_wordpool_576.txt	LTP293	ltpFR2	10	12	EUROPE	541	n/a	n/a	0	0	0
2474737	WORD	wordpools/wasnorm_wordpool_576.txt	LTP293	ltpFR2	10	12	GOBLIN	645	n/a	n/a	0	0	0
2476344	START	n/a	LTP293	ltpFR2	10	n/a	n/a	n/a	18	n/a	n/a	n/a	n/a
2477220	DISTRACTOR	n/a	LTP293	ltpFR2	10	12	n/a	n/a	n/a	n/a	0	0	0
2477228	PROB	n/a	LTP293	ltpFR2	10	n/a	n/a	n/a	18	8	1	6	1
2478238	PROB	n/a	LTP293	ltpFR2	10	n/a	n/a	n/a	18	20	3	8	9
2479457	PROB	n/a	LTP293	ltpFR2	10	n/a	n/a	n/a	18	7	5	1	1
2480489	PROB	n/a	LTP293	ltpFR2	10	n/a	n/a	n/a	18	19	1	9	9
2481741	PROB	n/a	LTP293	ltpFR2	10	n/a	n/a	n/a	18	17	5	9	3
2483476	PROB	n/a	LTP293	ltpFR2	10	n/a	n/a	n/a	18	14	3	6	5
2486395	PROB	n/a	LTP293	ltpFR2	10	n/a	n/a	n/a	18	12	1	5	6
2487428	PROB	n/a	LTP293	ltpFR2	10	n/a	n/a	n/a	18	19	8	2	9
2488763	PROB	n/a	LTP293	ltpFR2	10	n/a	n/a	n/a	18	21	7	6	8
2490581	PROB	n/a	LTP293	ltpFR2	10	n/a	n/a	n/a	18	18	8	1	9
2491983	PROB	n/a	LTP293	ltpFR2	10	n/a	n/a	n/a	18	15	7	4	4
2493100	PROB	n/a	LTP293	ltpFR2	10	n/a	n/a	n/a	18	10	4	3	3
2495069	PROB	n/a	LTP293	ltpFR2	10	n/a	n/a	n/a	18	17	7	1	9
2496254	PROB	n/a	LTP293	ltpFR2	10	n/a	n/a	n/a	18	17	4	6	7
2497503	PROB	n/a	LTP293	ltpFR2	10	n/a	n/a	n/a	18	21	7	5	9
2498722	PROB	n/a	LTP293	ltpFR2	10	n/a	n/a	n/a	18	12	4	5	3
2499874	STOP	n/a	LTP293	ltpFR2	10	n/a	n/a	n/a	18	n/a	n/a	n/a	n/a
2502175	REC_START	n/a	LTP293	ltpFR2	10	12	n/a	n/a	n/a	n/a	0	0	0
2502889	REC_WORD	wordpools/wasnorm_wordpool_576.txt	LTP293	ltpFR2	10	12	ULCER	1533	n/a	n/a	0	0	0
2505597	REC_WORD	wordpools/wasnorm_wordpool_576.txt	LTP293	ltpFR2	10	12	NIGHTGOWN	953	n/a	n/a	0	0	0
2506770	REC_WORD	wordpools/wasnorm_wordpool_576.txt	LTP293	ltpFR2	10	12	APRON	35	n/a	n/a	0	0	0
2508027	REC_WORD	wordpools/wasnorm_wordpool_576.txt	LTP293	ltpFR2	10	12	ZIPPER	1636	n/a	n/a	0	0	0
2509439	REC_WORD	wordpools/wasnorm_wordpool_576.txt	LTP293	ltpFR2	10	12	SADDLE	1221	n/a	n/a	0	0	0
2510687	REC_WORD	wordpools/wasnorm_wordpool_576.txt	LTP293	ltpFR2	10	12	DONKEY	484	n/a	n/a	0	0	0
2512337	REC_WORD	wordpools/wasnorm_wordpool_576.txt	LTP293	ltpFR2	10	12	KITCHEN	778	n/a	n/a	0	0	0
2513678	REC_WORD	wordpools/wasnorm_wordpool_576.txt	LTP293	ltpFR2	10	12	RUG	1215	n/a	n/a	0	0	0
2525641	REC_WORD	wordpools/wasnorm_wordpool_576.txt	LTP293	ltpFR2	10	12	CROWN	415	n/a	n/a	0	0	0
2526758	REC_WORD	wordpools/wasnorm_wordpool_576.txt	LTP293	ltpFR2	10	12	PRINCESS	1125	n/a	n/a	0	0	0
2528561	REC_WORD	wordpools/wasnorm_wordpool_576.txt	LTP293	ltpFR2	10	12	PARSLEY	1016	n/a	n/a	0	0	0
2530138	REC_WORD	wordpools/wasnorm_wordpool_576.txt	LTP293	ltpFR2	10	12	MUMMY	932	n/a	n/a	0	0	0
2531246	REC_WORD	wordpools/wasnorm_wordpool_576.txt	LTP293	ltpFR2	10	12	SCARECROW	1245	n/a	n/a	0	0	0
2573858	REC_WORD	wordpools/wasnorm_wordpool_576.txt	LTP293	ltpFR2	10	12	EUROPE	541	n/a	n/a	0	0	0
2592598	DISTRACTOR	n/a	LTP293	ltpFR2	10	13	n/a	n/a	n/a	n/a	0	0	0
2592598	START	n/a	LTP293	ltpFR2	10	n/a	n/a	n/a	19	n/a	n/a	n/a	n/a
2592612	PROB	n/a	LTP293	ltpFR2	10	n/a	n/a	n/a	19	14	4	9	1
2594749	PROB	n/a	LTP293	ltpFR2	10	n/a	n/a	n/a	19	15	3	5	7
2596047	PROB	n/a	LTP293	ltpFR2	10	n/a	n/a	n/a	19	16	2	6	8
2598016	PROB	n/a	LTP293	ltpFR2	10	n/a	n/a	n/a	19	15	2	5	9
2599500	PROB	n/a	LTP293	ltpFR2	10	n/a	n/a	n/a	19	15	5	3	8
2601539	PROB	n/a	LTP293	ltpFR2	10	n/a	n/a	n/a	19	17	6	6	5
2602986	PROB	n/a	LTP293	ltpFR2	10	n/a	n/a	n/a	19	17	6	8	3
2604637	PROB	n/a	LTP293	ltpFR2	10	n/a	n/a	n/a	19	12	3	8	1
2605958	PROB	n/a	LTP293	ltpFR2	10	n/a	n/a	n/a	19	19	9	9	1
2608023	PROB	n/a	LTP293	ltpFR2	10	n/a	n/a	n/a	19	6	2	2	2
2608944	PROB	n/a	LTP293	ltpFR2	10	n/a	n/a	n/a	19	17	7	2	7
2610643	PROB	n/a	LTP293	ltpFR2	10	n/a	n/a	n/a	19	16	3	6	7
2612877	PROB	n/a	LTP293	ltpFR2	10	n/a	n/a	n/a	19	5	1	3	1
2613728	PROB	n/a	LTP293	ltpFR2	10	n/a	n/a	n/a	19	11	8	2	1
2614966	PROB	n/a	LTP293	ltpFR2	10	n/a	n/a	n/a	19	10	5	1	4
2616366	STOP	n/a	LTP293	ltpFR2	10	n/a	n/a	n/a	19	n/a	n/a	n/a	n/a
2617700	WORD	wordpools/wasnorm_wordpool_576.txt	LTP293	ltpFR2	10	13	RAZOR	1171	n/a	n/a	0	0	0
2620235	WORD	wordpools/wasnorm_wordpool_576.txt	LTP293	ltpFR2	10	13	BUTCHER	203	n/a	n/a	0	0	0
2622887	WORD	wordpools/wasnorm_wordpool_576.txt	LTP293	ltpFR2	10	13	GALLON	618	n/a	n/a	0	0	0
2625707	WORD	wordpools/wasnorm_wordpool_576.txt	LTP293	ltpFR2	10	13	ARM	38	n/a	n/a	0	0	0
2628142	WORD	wordpools/wasnorm_wordpool_576.txt	LTP293	ltpFR2	10	13	BASEMENT	94	n/a	n/a	0	0	0
2630895	WORD	wordpools/wasnorm_wordpool_576.txt	LTP293	ltpFR2	10	13	GLOBE	641	n/a	n/a	0	0	0
2633562	WORD	wordpools/wasnorm_wordpool_576.txt	LTP293	ltpFR2	10	13	GIFT	635	n/a	n/a	0	0	0
2636083	WORD	wordpools/wasnorm_wordpool_576.txt	LTP293	ltpFR2	10	13	PACKAGE	997	n/a	n/a	0	0	0
2638851	WORD	wordpools/wasnorm_wordpool_576.txt	LTP293	ltpFR2	10	13	TRIBE	1505	n/a	n/a	0	0	0
2641638	WORD	wordpools/wasnorm_wordpool_576.txt	LTP293	ltpFR2	10	13	STAKE	1368	n/a	n/a	0	0	0
2644256	WORD	wordpools/wasnorm_wordpool_576.txt	LTP293	ltpFR2	10	13	BACKBONE	66	n/a	n/a	0	0	0
2646808	WORD	wordpools/wasnorm_wordpool_576.txt	LTP293	ltpFR2	10	13	FOOTBALL	591	n/a	n/a	0	0	0
2649493	WORD	wordpools/wasnorm_wordpool_576.txt	LTP293	ltpFR2	10	13	POISON	1096	n/a	n/a	0	0	0
2651997	WORD	wordpools/wasnorm_wordpool_576.txt	LTP293	ltpFR2	10	13	DIVER	476	n/a	n/a	0	0	0
2654715	WORD	wordpools/wasnorm_wordpool_576.txt	LTP293	ltpFR2	10	13	GARDEN	623	n/a	n/a	0	0	0
2657351	WORD	wordpools/wasnorm_wordpool_576.txt	LTP293	ltpFR2	10	13	HONEY	713	n/a	n/a	0	0	0
2659919	WORD	wordpools/wasnorm_wordpool_576.txt	LTP293	ltpFR2	10	13	COBRA	336	n/a	n/a	0	0	0
2662454	WORD	wordpools/wasnorm_wordpool_576.txt	LTP293	ltpFR2	10	13	STUDENT	1395	n/a	n/a	0	0	0
2665157	WORD	wordpools/wasnorm_wordpool_576.txt	LTP293	ltpFR2	10	13	CATCHER	258	n/a	n/a	0	0	0
2667975	WORD	wordpools/wasnorm_wordpool_576.txt	LTP293	ltpFR2	10	13	LEOPARD	812	n/a	n/a	0	0	0
2670728	WORD	wordpools/wasnorm_wordpool_576.txt	LTP293	ltpFR2	10	13	PARROT	1015	n/a	n/a	0	0	0
2673512	WORD	wordpools/wasnorm_wordpool_576.txt	LTP293	ltpFR2	10	13	BADGE	68	n/a	n/a	0	0	0
2676115	WORD	wordpools/wasnorm_wordpool_576.txt	LTP293	ltpFR2	10	13	BLENDER	136	n/a	n/a	0	0	0
2678851	WORD	wordpools/wasnorm_wordpool_576.txt	LTP293	ltpFR2	10	13	BLUEPRINT	142	n/a	n/a	0	0	0
2680469	START	n/a	LTP293	ltpFR2	10	n/a	n/a	n/a	20	n/a	n/a	n/a	n/a
2681559	DISTRACTOR	n/a	LTP293	ltpFR2	10	13	n/a	n/a	n/a	n/a	0	0	0
2681569	PROB	n/a	LTP293	ltpFR2	10	n/a	n/a	n/a	20	7	2	3	2
2683069	PROB	n/a	LTP293	ltpFR2	10	n/a	n/a	n/a	20	8	2	1	5
2684072	PROB	n/a	LTP293	ltpFR2	10	n/a	n/a	n/a	20	12	4	5	3
2685289	PROB	n/a	LTP293	ltpFR2	10	n/a	n/a	n/a	20	16	8	7	1
2686521	PROB	n/a	LTP293	ltpFR2	10	n/a	n/a	n/a	20	15	3	9	4
2688308	PROB	n/a	LTP293	ltpFR2	10	n/a	n/a	n/a	20	18	7	2	9
2689357	PROB	n/a	LTP293	ltpFR2	10	n/a	n/a	n/a	20	11	4	4	3
2690542	PROB	n/a	LTP293	ltpFR2	10	n/a	n/a	n/a	20	19	6	7	6
2692227	PROB	n/a	LTP293	ltpFR2	10	n/a	n/a	n/a	20	12	4	2	5
2694279	PROB	n/a	LTP293	ltpFR2	10	n/a	n/a	n/a	20	18	7	4	7
2695981	PROB	n/a	LTP293	ltpFR2	10	n/a	n/a	n/a	20	11	2	5	4
2697298	PROB	n/a	LTP293	ltpFR2	10	n/a	n/a	n/a	20	16	1	8	7
2698933	PROB	n/a	LTP293	ltpFR2	10	n/a	n/a	n/a	20	13	6	3	4
2701334	PROB	n/a	LTP293	ltpFR2	10	n/a	n/a	n/a	20	17	7	3	7
2702602	PROB	n/a	LTP293	ltpFR2	10	n/a	n/a	n/a	20	15	4	4	7
2704130	STOP	n/a	LTP293	ltpFR2	10	n/a	n/a	n/a	20	n/a	n/a	n/a	n/a
2706371	REC_START	n/a	LTP293	ltpFR2	10	13	n/a	n/a	n/a	n/a	0	0	0
2707006	REC_WORD	wordpools/wasnorm_wordpool_576.txt	LTP293	ltpFR2	10	13	BLENDER	136	n/a	n/a	0	0	0
2708113	REC_WORD	wordpools/wasnorm_wordpool_576.txt	LTP293	ltpFR2	10	13	BADGE	68	n/a	n/a	0	0	0
2709143	REC_WORD	wordpools/wasnorm_wordpool_576.txt	LTP293	ltpFR2	10	13	LEOPARD	812	n/a	n/a	0	0	0
2710261	REC_WORD	wordpools/wasnorm_wordpool_576.txt	LTP293	ltpFR2	10	13	PARROT	1015	n/a	n/a	0	0	0
2711776	REC_WORD	wordpools/wasnorm_wordpool_576.txt	LTP293	ltpFR2	10	13	GALLON	618	n/a	n/a	0	0	0
2712860	REC_WORD	wordpools/wasnorm_wordpool_576.txt	LTP293	ltpFR2	10	13	RAZOR	1171	n/a	n/a	0	0	0
2714051	REC_WORD	wordpools/wasnorm_wordpool_576.txt	LTP293	ltpFR2	10	13	BUTCHER	203	n/a	n/a	0	0	0
2717165	REC_WORD	wordpools/wasnorm_wordpool_576.txt	LTP293	ltpFR2	10	13	TRIBE	1505	n/a	n/a	0	0	0
2718165	REC_WORD	wordpools/wasnorm_wordpool_576.txt	LTP293	ltpFR2	10	13	BASEMENT	94	n/a	n/a	0	0	0
2721270	REC_WORD	wordpools/wasnorm_wordpool_576.txt	LTP293	ltpFR2	10	13	HONEY	713	n/a	n/a	0	0	0
2722952	REC_WORD	wordpools/wasnorm_wordpool_576.txt	LTP293	ltpFR2	10	13	STAKE	1368	n/a	n/a	0	0	0
2740966	REC_WORD	wordpools/wasnorm_wordpool_576.txt	LTP293	ltpFR2	10	13	GLOBE	641	n/a	n/a	0	0	0
2742198	REC_WORD	wordpools/wasnorm_wordpool_576.txt	LTP293	ltpFR2	10	13	GIFT	635	n/a	n/a	0	0	0
2796797	DISTRACTOR	n/a	LTP293	ltpFR2	10	14	n/a	n/a	n/a	n/a	0	0	0
2796797	START	n/a	LTP293	ltpFR2	10	n/a	n/a	n/a	21	n/a	n/a	n/a	n/a
2796811	PROB	n/a	LTP293	ltpFR2	10	n/a	n/a	n/a	21	21	9	4	8
2798763	PROB	n/a	LTP293	ltpFR2	10	n/a	n/a	n/a	21	10	3	4	3
2800530	PROB	n/a	LTP293	ltpFR2	10	n/a	n/a	n/a	21	14	3	2	9
2801932	PROB	n/a	LTP293	ltpFR2	10	n/a	n/a	n/a	21	17	1	7	9
2803200	PROB	n/a	LTP293	ltpFR2	10	n/a	n/a	n/a	21	17	2	6	9
2804367	PROB	n/a	LTP293	ltpFR2	10	n/a	n/a	n/a	21	12	4	7	1
2805885	PROB	n/a	LTP293	ltpFR2	10	n/a	n/a	n/a	21	10	1	1	8
2807003	PROB	n/a	LTP293	ltpFR2	10	n/a	n/a	n/a	21	7	1	5	1
2808404	PROB	n/a	LTP293	ltpFR2	10	n/a	n/a	n/a	21	13	6	4	3
2810505	PROB	n/a	LTP293	ltpFR2	10	n/a	n/a	n/a	21	12	7	3	2
2811723	PROB	n/a	LTP293	ltpFR2	10	n/a	n/a	n/a	21	14	4	9	1
2813007	PROB	n/a	LTP293	ltpFR2	10	n/a	n/a	n/a	21	12	7	1	4
2815360	PROB	n/a	LTP293	ltpFR2	10	n/a	n/a	n/a	21	22	9	9	4
2816695	PROB	n/a	LTP293	ltpFR2	10	n/a	n/a	n/a	21	16	5	4	7
2819414	STOP	n/a	LTP293	ltpFR2	10	n/a	n/a	n/a	21	n/a	n/a	n/a	n/a
2821994	WORD	wordpools/wasnorm_wordpool_576.txt	LTP293	ltpFR2	10	14	SLUG	1329	n/a	n/a	0	0	0
2824579	WORD	wordpools/wasnorm_wordpool_576.txt	LTP293	ltpFR2	10	14	BALLOON	75	n/a	n/a	0	0	0
2827283	WORD	wordpools/wasnorm_wordpool_576.txt	LTP293	ltpFR2	10	14	CHURCH	307	n/a	n/a	0	0	0
2830035	WORD	wordpools/wasnorm_wordpool_576.txt	LTP293	ltpFR2	10	14	IDOL	733	n/a	n/a	0	0	0
2832771	WORD	wordpools/wasnorm_wordpool_576.txt	LTP293	ltpFR2	10	14	PASTRY	1022	n/a	n/a	0	0	0
2835472	WORD	wordpools/wasnorm_wordpool_576.txt	LTP293	ltpFR2	10	14	PEACH	1031	n/a	n/a	0	0	0
2838259	WORD	wordpools/wasnorm_wordpool_576.txt	LTP293	ltpFR2	10	14	KIDNEY	776	n/a	n/a	0	0	0
2840827	WORD	wordpools/wasnorm_wordpool_576.txt	LTP293	ltpFR2	10	14	TRANSPLANT	1496	n/a	n/a	0	0	0
2843396	WORD	wordpools/wasnorm_wordpool_576.txt	LTP293	ltpFR2	10	14	PEPPER	1047	n/a	n/a	0	0	0
2846065	WORD	wordpools/wasnorm_wordpool_576.txt	LTP293	ltpFR2	10	14	ICEBERG	731	n/a	n/a	0	0	0
2848617	WORD	wordpools/wasnorm_wordpool_576.txt	LTP293	ltpFR2	10	14	JUGGLER	763	n/a	n/a	0	0	0
2851419	WORD	wordpools/wasnorm_wordpool_576.txt	LTP293	ltpFR2	10	14	EMPIRE	530	n/a	n/a	0	0	0
2853939	WORD	wordpools/wasnorm_wordpool_576.txt	LTP293	ltpFR2	10	14	PECAN	1036	n/a	n/a	0	0	0
2856457	WORD	wordpools/wasnorm_wordpool_576.txt	LTP293	ltpFR2	10	14	GAVEL	627	n/a	n/a	0	0	0
2859026	WORD	wordpools/wasnorm_wordpool_576.txt	LTP293	ltpFR2	10	14	HELMET	702	n/a	n/a	0	0	0
2861829	WORD	wordpools/wasnorm_wordpool_576.txt	LTP293	ltpFR2	10	14	SPOON	1357	n/a	n/a	0	0	0
2864530	WORD	wordpools/wasnorm_wordpool_576.txt	LTP293	ltpFR2	10	14	FIDDLE	561	n/a	n/a	0	0	0
2867301	WORD	wordpools/wasnorm_wordpool_576.txt	LTP293	ltpFR2	10	14	MATTRESS	879	n/a	n/a	0	0	0
2870086	WORD	wordpools/wasnorm_wordpool_576.txt	LTP293	ltpFR2	10	14	CLOUD	328	n/a	n/a	0	0	0
2872705	WORD	wordpools/wasnorm_wordpool_576.txt	LTP293	ltpFR2	10	14	LIGHTNING	820	n/a	n/a	0	0	0
2875423	WORD	wordpools/wasnorm_wordpool_576.txt	LTP293	ltpFR2	10	14	TORTOISE	1486	n/a	n/a	0	0	0
2877860	WORD	wordpools/wasnorm_wordpool_576.txt	LTP293	ltpFR2	10	14	TROMBONE	1508	n/a	n/a	0	0	0
2880378	WORD	wordpools/wasnorm_wordpool_576.txt	LTP293	ltpFR2	10	14	FOX	598	n/a	n/a	0	0	0
2883032	WORD	wordpools/wasnorm_wordpool_576.txt	LTP293	ltpFR2	10	14	TWIG	1527	n/a	n/a	0	0	0
2884649	START	n/a	LTP293	ltpFR2	10	n/a	n/a	n/a	22	n/a	n/a	n/a	n/a
2885674	DISTRACTOR	n/a	LTP293	ltpFR2	10	14	n/a	n/a	n/a	n/a	0	0	0
2885683	PROB	n/a	LTP293	ltpFR2	10	n/a	n/a	n/a	22	17	3	5	9
2886919	PROB	n/a	LTP293	ltpFR2	10	n/a	n/a	n/a	22	19	8	3	8
2888768	PROB	n/a	LTP293	ltpFR2	10	n/a	n/a	n/a	22	23	9	8	7
2890303	PROB	n/a	LTP293	ltpFR2	10	n/a	n/a	n/a	22	13	2	8	3
2891603	PROB	n/a	LTP293	ltpFR2	10	n/a	n/a	n/a	22	22	9	8	5
2893806	PROB	n/a	LTP293	ltpFR2	10	n/a	n/a	n/a	22	21	7	6	8
2897310	PROB	n/a	LTP293	ltpFR2	10	n/a	n/a	n/a	22	20	5	8	7
2899011	PROB	n/a	LTP293	ltpFR2	10	n/a	n/a	n/a	22	13	2	5	4
2901312	PROB	n/a	LTP293	ltpFR2	10	n/a	n/a	n/a	22	14	5	4	5
2903747	PROB	n/a	LTP293	ltpFR2	10	n/a	n/a	n/a	22	19	7	9	3
2905083	PROB	n/a	LTP293	ltpFR2	10	n/a	n/a	n/a	22	13	2	5	6
2906316	PROB	n/a	LTP293	ltpFR2	10	n/a	n/a	n/a	22	19	9	3	7
2907537	STOP	n/a	LTP293	ltpFR2	10	n/a	n/a	n/a	22	n/a	n/a	n/a	n/a
2910505	REC_START	n/a	LTP293	ltpFR2	10	14	n/a	n/a	n/a	n/a	0	0	0
2910814	REC_WORD	wordpools/wasnorm_wordpool_576.txt	LTP293	ltpFR2	10	14	SLUG	1329	n/a	n/a	0	0	0
2912197	REC_WORD	wordpools/wasnorm_wordpool_576.txt	LTP293	ltpFR2	10	14	BOX	159	n/a	n/a	0	0	0
2913456	REC_WORD	wordpools/wasnorm_wordpool_576.txt	LTP293	ltpFR2	10	14	TORTOISE	1486	n/a	n/a	0	0	0
2914679	REC_WORD	wordpools/wasnorm_wordpool_576.txt	LTP293	ltpFR2	10	14	TWIG	1527	n/a	n/a	0	0	0
2915951	REC_WORD	wordpools/wasnorm_wordpool_576.txt	LTP293	ltpFR2	10	14	CHURCH	307	n/a	n/a	0	0	0
2917226	REC_WORD	wordpools/wasnorm_wordpool_576.txt	LTP293	ltpFR2	10	14	BALLOON	75	n/a	n/a	0	0	0
2918609	REC_WORD	wordpools/wasnorm_wordpool_576.txt	LTP293	ltpFR2	10	14	JUGGLER	763	n/a	n/a	0	0	0
2920899	REC_WORD	wordpools/wasnorm_wordpool_576.txt	LTP293	ltpFR2	10	14	SPOON	1357	n/a	n/a	0	0	0
2922809	REC_WORD	wordpools/wasnorm_wordpool_576.txt	LTP293	ltpFR2	10	14	ICEBERG	731	n/a	n/a	0	0	0
2924192	REC_WORD	wordpools/wasnorm_wordpool_576.txt	LTP293	ltpFR2	10	14	PEPPER	1047	n/a	n/a	0	0	0
2959184	REC_WORD	wordpools/wasnorm_wordpool_576.txt	LTP293	ltpFR2	10	14	LIGHTNING	820	n/a	n/a	0	0	0
3000941	WORD	wordpools/wasnorm_wordpool_576.txt	LTP293	ltpFR2	10	15	MAMMAL	861	n/a	n/a	0	0	0
3003528	WORD	wordpools/wasnorm_wordpool_576.txt	LTP293	ltpFR2	10	15	DOLPHIN	483	n/a	n/a	0	0	0
3005955	WORD	wordpools/wasnorm_wordpool_576.txt	LTP293	ltpFR2	10	15	MAILMAN	858	n/a	n/a	0	0	0
3008716	WORD	wordpools/wasnorm_wordpool_576.txt	LTP293	ltpFR2	10	15	MESSAGE	888	n/a	n/a	0	0	0
3011351	WORD	wordpools/wasnorm_wordpool_576.txt	LTP293	ltpFR2	10	15	GLASS	639	n/a	n/a	0	0	0
3014120	WORD	wordpools/wasnorm_wordpool_576.txt	LTP293	ltpFR2	10	15	PISTON	1076	n/a	n/a	0	0	0
3016563	WORD	wordpools/wasnorm_wordpool_576.txt	LTP293	ltpFR2	10	15	LOFT	840	n/a	n/a	0	0	0
3019266	WORD	wordpools/wasnorm_wordpool_576.txt	LTP293	ltpFR2	10	15	WRENCH	1625	n/a	n/a	0	0	0
3021810	WORD	wordpools/wasnorm_wordpool_576.txt	LTP293	ltpFR2	10	15	COURSE	390	n/a	n/a	0	0	0
3024287	WORD	wordpools/wasnorm_wordpool_576.txt	LTP293	ltpFR2	10	15	SUBWAY	1400	n/a	n/a	0	0	0
3027014	WORD	wordpools/wasnorm_wordpool_576.txt	LTP293	ltpFR2	10	15	REBEL	1172	n/a	n/a	0	0	0
3029525	WORD	wordpools/wasnorm_wordpool_576.txt	LTP293	ltpFR2	10	15	COMPASS	358	n/a	n/a	0	0	0
3032211	WORD	wordpools/wasnorm_wordpool_576.txt	LTP293	ltpFR2	10	15	GRAVE	658	n/a	n/a	0	0	0
3034713	WORD	wordpools/wasnorm_wordpool_576.txt	LTP293	ltpFR2	10	15	PEDAL	1037	n/a	n/a	0	0	0
3037454	WORD	wordpools/wasnorm_wordpool_576.txt	LTP293	ltpFR2	10	15	NOTEBOOK	959	n/a	n/a	0	0	0
3040191	WORD	wordpools/wasnorm_wordpool_576.txt	LTP293	ltpFR2	10	15	MONSTER	912	n/a	n/a	0	0	0
3042960	WORD	wordpools/wasnorm_wordpool_576.txt	LTP293	ltpFR2	10	15	BEEF	113	n/a	n/a	0	0	0
3045656	WORD	wordpools/wasnorm_wordpool_576.txt	LTP293	ltpFR2	10	15	LETTUCE	814	n/a	n/a	0	0	0
3048208	WORD	wordpools/wasnorm_wordpool_576.txt	LTP293	ltpFR2	10	15	DASHBOARD	441	n/a	n/a	0	0	0
3050927	WORD	wordpools/wasnorm_wordpool_576.txt	LTP293	ltpFR2	10	15	FRAME	600	n/a	n/a	0	0	0
3053484	WORD	wordpools/wasnorm_wordpool_576.txt	LTP293	ltpFR2	10	15	ROBOT	1200	n/a	n/a	0	0	0
3056271	WORD	wordpools/wasnorm_wordpool_576.txt	LTP293	ltpFR2	10	15	COUCH	386	n/a	n/a	0	0	0
3059085	WORD	wordpools/wasnorm_wordpool_576.txt	LTP293	ltpFR2	10	15	SCISSORS	1250	n/a	n/a	0	0	0
3061552	WORD	wordpools/wasnorm_wordpool_576.txt	LTP293	ltpFR2	10	15	TWEEZERS	1526	n/a	n/a	0	0	0
3063160	START	n/a	LTP293	ltpFR2	10	n/a	n/a	n/a	23	n/a	n/a	n/a	n/a
3064008	DISTRACTOR	n/a	LTP293	ltpFR2	10	15	n/a	n/a	n/a	n/a	0	0	0
3064022	PROB	n/a	LTP293	ltpFR2	10	n/a	n/a	n/a	23	18	4	6	8
3065160	PROB	n/a	LTP293	ltpFR2	10	n/a	n/a	n/a	23	8	5	2	1
3066795	PROB	n/a	LTP293	ltpFR2	10	n/a	n/a	n/a	23	8	1	1	6
3067795	PROB	n/a	LTP293	ltpFR2	10	n/a	n/a	n/a	23	14	3	8	3
3069780	PROB	n/a	LTP293	ltpFR2	10	n/a	n/a	n/a	23	14	3	3	8
3071267	PROB	n/a	LTP293	ltpFR2	10	n/a	n/a	n/a	23	22	7	8	7
3072917	PROB	n/a	LTP293	ltpFR2	10	n/a	n/a	n/a	23	19	2	9	8
3074496	PROB	n/a	LTP293	ltpFR2	10	n/a	n/a	n/a	23	12	4	2	6
3075852	PROB	n/a	LTP293	ltpFR2	10	n/a	n/a	n/a	23	15	7	4	1
3077137	PROB	n/a	LTP293	ltpFR2	10	n/a	n/a	n/a	23	17	7	6	4
3078504	PROB	n/a	LTP293	ltpFR2	10	n/a	n/a	n/a	23	11	4	6	1
3079588	PROB	n/a	LTP293	ltpFR2	10	n/a	n/a	n/a	23	13	3	4	6
3081252	PROB	n/a	LTP293	ltpFR2	10	n/a	n/a	n/a	23	16	5	2	9
3082307	PROB	n/a	LTP293	ltpFR2	10	n/a	n/a	n/a	23	22	6	8	8
3083537	PROB	n/a	LTP293	ltpFR2	10	n/a	n/a	n/a	23	19	6	7	6
3085673	STOP	n/a	LTP293	ltpFR2	10	n/a	n/a	n/a	23	n/a	n/a	n/a	n/a
3088995	REC_START	n/a	LTP293	ltpFR2	10	15	n/a	n/a	n/a	n/a	0	0	0
3089478	REC_WORD	wordpools/wasnorm_wordpool_576.txt	LTP293	ltpFR2	10	15	MAMMAL	861	n/a	n/a	0	0	0
3090565	REC_WORD	wordpools/wasnorm_wordpool_576.txt	LTP293	ltpFR2	10	15	SCISSORS	1250	n/a	n/a	0	0	0
3091899	REC_WORD	wordpools/wasnorm_wordpool_576.txt	LTP293	ltpFR2	10	15	TWEEZERS	1526	n/a	n/a	0	0	0
3095693	REC_WORD	wordpools/wasnorm_wordpool_576.txt	LTP293	ltpFR2	10	15	LOFT	840	n/a	n/a	0	0	0
3097073	REC_WORD	wordpools/wasnorm_wordpool_576.txt	LTP293	ltpFR2	10	15	COUCH	386	n/a	n/a	0	0	0
3100294	REC_WORD	wordpools/wasnorm_wordpool_576.txt	LTP293	ltpFR2	10	15	MAILMAN	858	n/a	n/a	0	0	0
3101608	REC_WORD	wordpools/wasnorm_wordpool_576.txt	LTP293	ltpFR2	10	15	MESSAGE	888	n/a	n/a	0	0	0
3110794	REC_WORD	wordpools/wasnorm_wordpool_576.txt	LTP293	ltpFR2	10	15	NOTEBOOK	959	n/a	n/a	0	0	0
3130025	REC_WORD	wordpools/wasnorm_wordpool_576.txt	LTP293	ltpFR2	10	15	COURSE	390	n/a	n/a	0	0	0
3155330	REC_WORD	wordpools/wasnorm_wordpool_576.txt	LTP293	ltpFR2	10	15	BEEF	113	n/a	n/a	0	0	0
3156384	REC_WORD	wordpools/wasnorm_wordpool_576.txt	LTP293	ltpFR2	10	15	LETTUCE	814	n/a	n/a	0	0	0
3179452	DISTRACTOR	n/a	LTP293	ltpFR2	10	16	n/a	n/a	n/a	n/a	0	0	0
3179452	START	n/a	LTP293	ltpFR2	10	n/a	n/a	n/a	24	n/a	n/a	n/a	n/a
3179468	PROB	n/a	LTP293	ltpFR2	10	n/a	n/a	n/a	24	15	8	1	6
3181386	PROB	n/a	LTP293	ltpFR2	10	n/a	n/a	n/a	24	11	4	2	5
3182586	PROB	n/a	LTP293	ltpFR2	10	n/a	n/a	n/a	24	18	1	8	9
3183754	PROB	n/a	LTP293	ltpFR2	10	n/a	n/a	n/a	24	9	7	1	1
3185157	PROB	n/a	LTP293	ltpFR2	10	n/a	n/a	n/a	24	16	8	5	3
3186307	PROB	n/a	LTP293	ltpFR2	10	n/a	n/a	n/a	24	16	9	2	5
3188075	PROB	n/a	LTP293	ltpFR2	10	n/a	n/a	n/a	24	13	3	5	5
3189144	PROB	n/a	LTP293	ltpFR2	10	n/a	n/a	n/a	24	10	1	7	2
3191213	PROB	n/a	LTP293	ltpFR2	10	n/a	n/a	n/a	24	6	2	3	1
3192511	PROB	n/a	LTP293	ltpFR2	10	n/a	n/a	n/a	24	22	6	9	7
3194314	PROB	n/a	LTP293	ltpFR2	10	n/a	n/a	n/a	24	5	1	2	2
3195348	PROB	n/a	LTP293	ltpFR2	10	n/a	n/a	n/a	24	13	2	6	5
3196784	PROB	n/a	LTP293	ltpFR2	10	n/a	n/a	n/a	24	16	9	3	4
3198365	PROB	n/a	LTP293	ltpFR2	10	n/a	n/a	n/a	24	13	4	2	7
3199466	PROB	n/a	LTP293	ltpFR2	10	n/a	n/a	n/a	24	10	1	8	1
3200803	PROB	n/a	LTP293	ltpFR2	10	n/a	n/a	n/a	24	13	4	8	1
3201974	STOP	n/a	LTP293	ltpFR2	10	n/a	n/a	n/a	24	n/a	n/a	n/a	n/a
3204488	WORD	wordpools/wasnorm_wordpool_576.txt	LTP293	ltpFR2	10	16	ACTRESS	6	n/a	n/a	0	0	0
3207109	WORD	wordpools/wasnorm_wordpool_576.txt	LTP293	ltpFR2	10	16	TUTU	1524	n/a	n/a	0	0	0
3209744	WORD	wordpools/wasnorm_wordpool_576.txt	LTP293	ltpFR2	10	16	DANCER	437	n/a	n/a	0	0	0
3212329	WORD	wordpools/wasnorm_wordpool_576.txt	LTP293	ltpFR2	10	16	TURKEY	1520	n/a	n/a	0	0	0
3214931	WORD	wordpools/wasnorm_wordpool_576.txt	LTP293	ltpFR2	10	16	SCALPEL	1243	n/a	n/a	0	0	0
3217650	WORD	wordpools/wasnorm_wordpool_576.txt	LTP293	ltpFR2	10	16	FREEZER	604	n/a	n/a	0	0	0
3220357	WORD	wordpools/wasnorm_wordpool_576.txt	LTP293	ltpFR2	10	16	SHELTER	1282	n/a	n/a	0	0	0
3222971	WORD	wordpools/wasnorm_wordpool_576.txt	LTP293	ltpFR2	10	16	COIN	343	n/a	n/a	0	0	0
3225712	WORD	wordpools/wasnorm_wordpool_576.txt	LTP293	ltpFR2	10	16	GRIZZLY	662	n/a	n/a	0	0	0
3228448	WORD	wordpools/wasnorm_wordpool_576.txt	LTP293	ltpFR2	10	16	MOP	916	n/a	n/a	0	0	0
3230968	WORD	wordpools/wasnorm_wordpool_576.txt	LTP293	ltpFR2	10	16	MONEY	908	n/a	n/a	0	0	0
3233536	WORD	wordpools/wasnorm_wordpool_576.txt	LTP293	ltpFR2	10	16	DUSTPAN	509	n/a	n/a	0	0	0
3236115	WORD	wordpools/wasnorm_wordpool_576.txt	LTP293	ltpFR2	10	16	BOYFRIEND	162	n/a	n/a	0	0	0
3238717	WORD	wordpools/wasnorm_wordpool_576.txt	LTP293	ltpFR2	10	16	DUST	508	n/a	n/a	0	0	0
3241193	WORD	wordpools/wasnorm_wordpool_576.txt	LTP293	ltpFR2	10	16	MATCH	878	n/a	n/a	0	0	0
3243846	WORD	wordpools/wasnorm_wordpool_576.txt	LTP293	ltpFR2	10	16	CRIB	407	n/a	n/a	0	0	0
3246357	WORD	wordpools/wasnorm_wordpool_576.txt	LTP293	ltpFR2	10	16	RELISH	1183	n/a	n/a	0	0	0
3248933	WORD	wordpools/wasnorm_wordpool_576.txt	LTP293	ltpFR2	10	16	BREAST	171	n/a	n/a	0	0	0
3251653	WORD	wordpools/wasnorm_wordpool_576.txt	LTP293	ltpFR2	10	16	GREASE	660	n/a	n/a	0	0	0
3254180	WORD	wordpools/wasnorm_wordpool_576.txt	LTP293	ltpFR2	10	16	SANDWICH	1232	n/a	n/a	0	0	0
3256706	WORD	wordpools/wasnorm_wordpool_576.txt	LTP293	ltpFR2	10	16	DOUGHNUT	490	n/a	n/a	0	0	0
3259217	WORD	wordpools/wasnorm_wordpool_576.txt	LTP293	ltpFR2	10	16	LION	827	n/a	n/a	0	0	0
3261811	WORD	wordpools/wasnorm_wordpool_576.txt	LTP293	ltpFR2	10	16	POET	1095	n/a	n/a	0	0	0
3264470	WORD	wordpools/wasnorm_wordpool_576.txt	LTP293	ltpFR2	10	16	JOURNAL	760	n/a	n/a	0	0	0
3266083	START	n/a	LTP293	ltpFR2	10	n/a	n/a	n/a	25	n/a	n/a	n/a	n/a
3267042	DISTRACTOR	n/a	LTP293	ltpFR2	10	16	n/a	n/a	n/a	n/a	0	0	0
3267049	PROB	n/a	LTP293	ltpFR2	10	n/a	n/a	n/a	25	19	9	1	9
3268539	PROB	n/a	LTP293	ltpFR2	10	n/a	n/a	n/a	25	17	3	7	7
3269842	PROB	n/a	LTP293	ltpFR2	10	n/a	n/a	n/a	25	15	5	8	2
3270892	PROB	n/a	LTP293	ltpFR2	10	n/a	n/a	n/a	25	11	6	4	1
3271910	PROB	n/a	LTP293	ltpFR2	10	n/a	n/a	n/a	25	11	8	2	1
3272961	PROB	n/a	LTP293	ltpFR2	10	n/a	n/a	n/a	25	15	7	6	2
3274545	PROB	n/a	LTP293	ltpFR2	10	n/a	n/a	n/a	25	16	9	4	3
3275577	PROB	n/a	LTP293	ltpFR2	10	n/a	n/a	n/a	25	21	9	7	5
3277013	PROB	n/a	LTP293	ltpFR2	10	n/a	n/a	n/a	25	17	3	5	9
3278132	PROB	n/a	LTP293	ltpFR2	10	n/a	n/a	n/a	25	16	6	7	3
3279116	PROB	n/a	LTP293	ltpFR2	10	n/a	n/a	n/a	25	21	8	4	9
3280283	PROB	n/a	LTP293	ltpFR2	10	n/a	n/a	n/a	25	15	3	6	6
3282033	PROB	n/a	LTP293	ltpFR2	10	n/a	n/a	n/a	25	20	7	4	9
3284419	PROB	n/a	LTP293	ltpFR2	10	n/a	n/a	n/a	25	11	2	6	3
3285837	PROB	n/a	LTP293	ltpFR2	10	n/a	n/a	n/a	25	13	3	9	1
3286839	PROB	n/a	LTP293	ltpFR2	10	n/a	n/a	n/a	25	16	9	4	3
3287923	PROB	n/a	LTP293	ltpFR2	10	n/a	n/a	n/a	25	19	5	6	8
3289488	STOP	n/a	LTP293	ltpFR2	10	n/a	n/a	n/a	25	n/a	n/a	n/a	n/a
3291858	REC_START	n/a	LTP293	ltpFR2	10	16	n/a	n/a	n/a	n/a	0	0	0
3293740	REC_WORD	wordpools/wasnorm_wordpool_576.txt	LTP293	ltpFR2	10	16	SHELTER	1282	n/a	n/a	0	0	0
3296441	REC_WORD	wordpools/wasnorm_wordpool_576.txt	LTP293	ltpFR2	10	16	GRIZZLY	662	n/a	n/a	0	0	0
3297726	REC_WORD	wordpools/wasnorm_wordpool_576.txt	LTP293	ltpFR2	10	16	LION	827	n/a	n/a	0	0	0
3299039	REC_WORD	wordpools/wasnorm_wordpool_576.txt	LTP293	ltpFR2	10	16	MOP	916	n/a	n/a	0	0	0
3300219	REC_WORD	wordpools/wasnorm_wordpool_576.txt	LTP293	ltpFR2	10	16	DUSTPAN	509	n/a	n/a	0	0	0
3307272	REC_WORD	wordpools/wasnorm_wordpool_576.txt	LTP293	ltpFR2	10	16	DANCER	437	n/a	n/a	0	0	0
3308516	REC_WORD	wordpools/wasnorm_wordpool_576.txt	LTP293	ltpFR2	10	16	TUTU	1524	n/a	n/a	0	0	0
3361544	REC_WORD	wordpools/wasnorm_wordpool_576.txt	LTP293	ltpFR2	10	16	SANDWICH	1232	n/a	n/a	0	0	0
3363143	REC_WORD	wordpools/wasnorm_wordpool_576.txt	LTP293	ltpFR2	10	16	BREAST	171	n/a	n/a	0	0	0
3368403	REST_REWET	n/a	LTP293	ltpFR2	10	16	n/a	n/a	n/a	n/a	0	0	0
3614670	DISTRACTOR	n/a	LTP293	ltpFR2	10	17	n/a	n/a	n/a	n/a	0	0	0
3614670	START	n/a	LTP293	ltpFR2	10	n/a	n/a	n/a	26	n/a	n/a	n/a	n/a
3614684	PROB	n/a	LTP293	ltpFR2	10	n/a	n/a	n/a	26	16	7	6	3
3616503	PROB	n/a	LTP293	ltpFR2	10	n/a	n/a	n/a	26	11	7	1	3
3617737	PROB	n/a	LTP293	ltpFR2	10	n/a	n/a	n/a	26	7	1	2	4
3619855	PROB	n/a	LTP293	ltpFR2	10	n/a	n/a	n/a	26	14	7	1	6
3622523	PROB	n/a	LTP293	ltpFR2	10	n/a	n/a	n/a	26	18	7	6	5
3624094	PROB	n/a	LTP293	ltpFR2	10	n/a	n/a	n/a	26	18	2	8	8
3625409	PROB	n/a	LTP293	ltpFR2	10	n/a	n/a	n/a	26	9	6	2	1
3626627	PROB	n/a	LTP293	ltpFR2	10	n/a	n/a	n/a	26	13	6	1	6
3628377	PROB	n/a	LTP293	ltpFR2	10	n/a	n/a	n/a	26	17	8	3	6
3630015	PROB	n/a	LTP293	ltpFR2	10	n/a	n/a	n/a	26	10	4	5	1
3631330	PROB	n/a	LTP293	ltpFR2	10	n/a	n/a	n/a	26	8	1	2	5
3632349	PROB	n/a	LTP293	ltpFR2	10	n/a	n/a	n/a	26	9	1	3	5
3634099	PROB	n/a	LTP293	ltpFR2	10	n/a	n/a	n/a	26	11	3	1	7
3635134	PROB	n/a	LTP293	ltpFR2	10	n/a	n/a	n/a	26	16	7	3	6
3636401	PROB	n/a	LTP293	ltpFR2	10	n/a	n/a	n/a	26	13	6	4	3
3637382	STOP	n/a	LTP293	ltpFR2	10	n/a	n/a	n/a	26	n/a	n/a	n/a	n/a
3639621	WORD	wordpools/wasnorm_wordpool_576.txt	LTP293	ltpFR2	10	17	PORTRAIT	1111	n/a	n/a	0	0	0
3642324	WORD	wordpools/wasnorm_wordpool_576.txt	LTP293	ltpFR2	10	17	SUNSET	1408	n/a	n/a	0	0	0
3644912	WORD	wordpools/wasnorm_wordpool_576.txt	LTP293	ltpFR2	10	17	SUNRISE	1407	n/a	n/a	0	0	0
3647711	WORD	wordpools/wasnorm_wordpool_576.txt	LTP293	ltpFR2	10	17	FLUTE	585	n/a	n/a	0	0	0
3650463	WORD	wordpools/wasnorm_wordpool_576.txt	LTP293	ltpFR2	10	17	OMELET	976	n/a	n/a	0	0	0
3652982	WORD	wordpools/wasnorm_wordpool_576.txt	LTP293	ltpFR2	10	17	PROTON	1132	n/a	n/a	0	0	0
3655755	WORD	wordpools/wasnorm_wordpool_576.txt	LTP293	ltpFR2	10	17	LUGGAGE	847	n/a	n/a	0	0	0
3658469	WORD	wordpools/wasnorm_wordpool_576.txt	LTP293	ltpFR2	10	17	JEANS	752	n/a	n/a	0	0	0
3661074	WORD	wordpools/wasnorm_wordpool_576.txt	LTP293	ltpFR2	10	17	HAND	683	n/a	n/a	0	0	0
3663725	WORD	wordpools/wasnorm_wordpool_576.txt	LTP293	ltpFR2	10	17	REPORT	1184	n/a	n/a	0	0	0
3666459	WORD	wordpools/wasnorm_wordpool_576.txt	LTP293	ltpFR2	10	17	STAPLE	1371	n/a	n/a	0	0	0
3668896	WORD	wordpools/wasnorm_wordpool_576.txt	LTP293	ltpFR2	10	17	VENUS	1557	n/a	n/a	0	0	0
3671664	WORD	wordpools/wasnorm_wordpool_576.txt	LTP293	ltpFR2	10	17	PLAZA	1088	n/a	n/a	0	0	0
3674233	WORD	wordpools/wasnorm_wordpool_576.txt	LTP293	ltpFR2	10	17	CORAL	378	n/a	n/a	0	0	0
3676773	WORD	wordpools/wasnorm_wordpool_576.txt	LTP293	ltpFR2	10	17	HERO	706	n/a	n/a	0	0	0
3679242	WORD	wordpools/wasnorm_wordpool_576.txt	LTP293	ltpFR2	10	17	FRUIT	610	n/a	n/a	0	0	0
3682043	WORD	wordpools/wasnorm_wordpool_576.txt	LTP293	ltpFR2	10	17	SILK	1307	n/a	n/a	0	0	0
3684842	WORD	wordpools/wasnorm_wordpool_576.txt	LTP293	ltpFR2	10	17	STREAM	1392	n/a	n/a	0	0	0
3687615	WORD	wordpools/wasnorm_wordpool_576.txt	LTP293	ltpFR2	10	17	WRIST	1626	n/a	n/a	0	0	0
3690268	WORD	wordpools/wasnorm_wordpool_576.txt	LTP293	ltpFR2	10	17	CUSTARD	429	n/a	n/a	0	0	0
3692698	WORD	wordpools/wasnorm_wordpool_576.txt	LTP293	ltpFR2	10	17	PICTURE	1061	n/a	n/a	0	0	0
3695499	WORD	wordpools/wasnorm_wordpool_576.txt	LTP293	ltpFR2	10	17	SPACE	1345	n/a	n/a	0	0	0
3697952	WORD	wordpools/wasnorm_wordpool_576.txt	LTP293	ltpFR2	10	17	SLOPE	1328	n/a	n/a	0	0	0
3700487	WORD	wordpools/wasnorm_wordpool_576.txt	LTP293	ltpFR2	10	17	CRATER	400	n/a	n/a	0	0	0
3702095	START	n/a	LTP293	ltpFR2	10	n/a	n/a	n/a	27	n/a	n/a	n/a	n/a
3703255	DISTRACTOR	n/a	LTP293	ltpFR2	10	17	n/a	n/a	n/a	n/a	0	0	0
3703262	PROB	n/a	LTP293	ltpFR2	10	n/a	n/a	n/a	27	8	1	5	2
3704471	PROB	n/a	LTP293	ltpFR2	10	n/a	n/a	n/a	27	19	2	8	9
3705741	PROB	n/a	LTP293	ltpFR2	10	n/a	n/a	n/a	27	11	8	2	1
3706725	PROB	n/a	LTP293	ltpFR2	10	n/a	n/a	n/a	27	13	3	7	3
3708812	PROB	n/a	LTP293	ltpFR2	10	n/a	n/a	n/a	27	12	1	8	3
3709978	PROB	n/a	LTP293	ltpFR2	10	n/a	n/a	n/a	27	14	4	4	6
3711144	PROB	n/a	LTP293	ltpFR2	10	n/a	n/a	n/a	27	15	2	8	5
3712179	PROB	n/a	LTP293	ltpFR2	10	n/a	n/a	n/a	27	12	2	5	5
3713180	PROB	n/a	LTP293	ltpFR2	10	n/a	n/a	n/a	27	10	5	3	2
3714613	PROB	n/a	LTP293	ltpFR2	10	n/a	n/a	n/a	27	18	8	1	9
3716083	PROB	n/a	LTP293	ltpFR2	10	n/a	n/a	n/a	27	18	4	9	5
3717283	PROB	n/a	LTP293	ltpFR2	10	n/a	n/a	n/a	27	11	1	3	7
3718335	PROB	n/a	LTP293	ltpFR2	10	n/a	n/a	n/a	27	14	9	2	3
3719500	PROB	n/a	LTP293	ltpFR2	10	n/a	n/a	n/a	27	12	3	7	2
3720936	PROB	n/a	LTP293	ltpFR2	10	n/a	n/a	n/a	27	15	7	7	1
3721937	PROB	n/a	LTP293	ltpFR2	10	n/a	n/a	n/a	27	18	8	6	4
3723156	PROB	n/a	LTP293	ltpFR2	10	n/a	n/a	n/a	27	7	4	1	2
3725051	STOP	n/a	LTP293	ltpFR2	10	n/a	n/a	n/a	27	n/a	n/a	n/a	n/a
3727958	REC_START	n/a	LTP293	ltpFR2	10	17	n/a	n/a	n/a	n/a	0	0	0
3728588	REC_WORD	wordpools/wasnorm_wordpool_576.txt	LTP293	ltpFR2	10	17	CRATER	400	n/a	n/a	0	0	0
3729637	REC_WORD	wordpools/wasnorm_wordpool_576.txt	LTP293	ltpFR2	10	17	SUNRISE	1407	n/a	n/a	0	0	0
3730835	REC_WORD	wordpools/wasnorm_wordpool_576.txt	LTP293	ltpFR2	10	17	SUNSET	1408	n/a	n/a	0	0	0
3732668	REC_WORD	wordpools/wasnorm_wordpool_576.txt	LTP293	ltpFR2	10	17	JEANS	752	n/a	n/a	0	0	0
3733770	REC_WORD	wordpools/wasnorm_wordpool_576.txt	LTP293	ltpFR2	10	17	LUGGAGE	847	n/a	n/a	0	0	0
3736426	REC_WORD	wordpools/wasnorm_wordpool_576.txt	LTP293	ltpFR2	10	17	FLUTE	585	n/a	n/a	0	0	0
3737604	REC_WORD	wordpools/wasnorm_wordpool_576.txt	LTP293	ltpFR2	10	17	PORTRAIT	1111	n/a	n/a	0	0	0
3740285	REC_WORD	wordpools/wasnorm_wordpool_576.txt	LTP293	ltpFR2	10	17	WRIST	1626	n/a	n/a	0	0	0
3744464	REC_WORD	wordpools/wasnorm_wordpool_576.txt	LTP293	ltpFR2	10	17	PICTURE	1061	n/a	n/a	0	0	0
3764691	REC_WORD	wordpools/wasnorm_wordpool_576.txt	LTP293	ltpFR2	10	17	SILK	1307	n/a	n/a	0	0	0
3766010	REC_WORD	wordpools/wasnorm_wordpool_576.txt	LTP293	ltpFR2	10	17	HERO	706	n/a	n/a	0	0	0
3767665	REC_WORD	wordpools/wasnorm_wordpool_576.txt	LTP293	ltpFR2	10	17	FRUIT	610	n/a	n/a	0	0	0
3769174	REC_WORD	wordpools/wasnorm_wordpool_576.txt	LTP293	ltpFR2	10	17	OMELET	976	n/a	n/a	0	0	0
3770534	REC_WORD	wordpools/wasnorm_wordpool_576.txt	LTP293	ltpFR2	10	17	PROTON	1132	n/a	n/a	0	0	0
3818431	WORD	wordpools/wasnorm_wordpool_576.txt	LTP293	ltpFR2	10	18	CUPBOARD	425	n/a	n/a	0	0	0
3821232	WORD	wordpools/wasnorm_wordpool_576.txt	LTP293	ltpFR2	10	18	CARROT	249	n/a	n/a	0	0	0
3823668	WORD	wordpools/wasnorm_wordpool_576.txt	LTP293	ltpFR2	10	18	ORANGE	980	n/a	n/a	0	0	0
3826102	WORD	wordpools/wasnorm_wordpool_576.txt	LTP293	ltpFR2	10	18	PARENT	1013	n/a	n/a	0	0	0
3828755	WORD	wordpools/wasnorm_wordpool_576.txt	LTP293	ltpFR2	10	18	TURTLE	1522	n/a	n/a	0	0	0
3831373	WORD	wordpools/wasnorm_wordpool_576.txt	LTP293	ltpFR2	10	18	MARKER	870	n/a	n/a	0	0	0
3833993	WORD	wordpools/wasnorm_wordpool_576.txt	LTP293	ltpFR2	10	18	RABBIT	1152	n/a	n/a	0	0	0
3836662	WORD	wordpools/wasnorm_wordpool_576.txt	LTP293	ltpFR2	10	18	OUTDOORS	987	n/a	n/a	0	0	0
3839348	WORD	wordpools/wasnorm_wordpool_576.txt	LTP293	ltpFR2	10	18	BULLET	194	n/a	n/a	0	0	0
3841800	WORD	wordpools/wasnorm_wordpool_576.txt	LTP293	ltpFR2	10	18	TURNIP	1521	n/a	n/a	0	0	0
3844336	WORD	wordpools/wasnorm_wordpool_576.txt	LTP293	ltpFR2	10	18	LAMP	798	n/a	n/a	0	0	0
3846821	WORD	wordpools/wasnorm_wordpool_576.txt	LTP293	ltpFR2	10	18	POWDER	1117	n/a	n/a	0	0	0
3849322	WORD	wordpools/wasnorm_wordpool_576.txt	LTP293	ltpFR2	10	18	TAXI	1438	n/a	n/a	0	0	0
3851975	WORD	wordpools/wasnorm_wordpool_576.txt	LTP293	ltpFR2	10	18	LAGOON	795	n/a	n/a	0	0	0
3854527	WORD	wordpools/wasnorm_wordpool_576.txt	LTP293	ltpFR2	10	18	CRAYON	401	n/a	n/a	0	0	0
3857147	WORD	wordpools/wasnorm_wordpool_576.txt	LTP293	ltpFR2	10	18	GANGSTER	620	n/a	n/a	0	0	0
3859949	WORD	wordpools/wasnorm_wordpool_576.txt	LTP293	ltpFR2	10	18	BANK	83	n/a	n/a	0	0	0
3862450	WORD	wordpools/wasnorm_wordpool_576.txt	LTP293	ltpFR2	10	18	BANKER	84	n/a	n/a	0	0	0
3865220	WORD	wordpools/wasnorm_wordpool_576.txt	LTP293	ltpFR2	10	18	NOMAD	955	n/a	n/a	0	0	0
3867738	WORD	wordpools/wasnorm_wordpool_576.txt	LTP293	ltpFR2	10	18	WOMAN	1620	n/a	n/a	0	0	0
3870523	WORD	wordpools/wasnorm_wordpool_576.txt	LTP293	ltpFR2	10	18	CABBAGE	210	n/a	n/a	0	0	0
3873292	WORD	wordpools/wasnorm_wordpool_576.txt	LTP293	ltpFR2	10	18	BINDER	127	n/a	n/a	0	0	0
3876028	WORD	wordpools/wasnorm_wordpool_576.txt	LTP293	ltpFR2	10	18	BROOK	177	n/a	n/a	0	0	0
3878647	WORD	wordpools/wasnorm_wordpool_576.txt	LTP293	ltpFR2	10	18	TRENCH	1503	n/a	n/a	0	0	0
3880266	START	n/a	LTP293	ltpFR2	10	n/a	n/a	n/a	28	n/a	n/a	n/a	n/a
3881217	DISTRACTOR	n/a	LTP293	ltpFR2	10	18	n/a	n/a	n/a	n/a	0	0	0
3881232	PROB	n/a	LTP293	ltpFR2	10	n/a	n/a	n/a	28	9	4	3	2
3882967	PROB	n/a	LTP293	ltpFR2	10	n/a	n/a	n/a	28	10	1	2	7
3884202	PROB	n/a	LTP293	ltpFR2	10	n/a	n/a	n/a	28	15	4	2	9
3885469	PROB	n/a	LTP293	ltpFR2	10	n/a	n/a	n/a	28	10	3	4	3
3887502	PROB	n/a	LTP293	ltpFR2	10	n/a	n/a	n/a	28	17	8	2	7
3888687	PROB	n/a	LTP293	ltpFR2	10	n/a	n/a	n/a	28	16	3	5	8
3889754	PROB	n/a	LTP293	ltpFR2	10	n/a	n/a	n/a	28	13	7	3	3
3890740	PROB	n/a	LTP293	ltpFR2	10	n/a	n/a	n/a	28	24	9	7	8
3892556	PROB	n/a	LTP293	ltpFR2	10	n/a	n/a	n/a	28	19	9	8	2
3893808	PROB	n/a	LTP293	ltpFR2	10	n/a	n/a	n/a	28	15	5	3	7
3894944	PROB	n/a	LTP293	ltpFR2	10	n/a	n/a	n/a	28	13	3	4	6
3896644	PROB	n/a	LTP293	ltpFR2	10	n/a	n/a	n/a	28	11	3	2	6
3897794	PROB	n/a	LTP293	ltpFR2	10	n/a	n/a	n/a	28	14	3	7	4
3899012	PROB	n/a	LTP293	ltpFR2	10	n/a	n/a	n/a	28	16	8	1	7
3904266	STOP	n/a	LTP293	ltpFR2	10	n/a	n/a	n/a	28	n/a	n/a	n/a	n/a
3906185	REC_START	n/a	LTP293	ltpFR2	10	18	n/a	n/a	n/a	n/a	0	0	0
3906893	REC_WORD	wordpools/wasnorm_wordpool_576.txt	LTP293	ltpFR2	10	18	TRENCH	1503	n/a	n/a	0	0	0
3908783	REC_WORD	wordpools/wasnorm_wordpool_576.txt	LTP293	ltpFR2	10	18	CUPBOARD	425	n/a	n/a	0	0	0
3910398	REC_WORD	wordpools/wasnorm_wordpool_576.txt	LTP293	ltpFR2	10	18	OUTDOORS	987	n/a	n/a	0	0	0
3912192	REC_WORD	wordpools/wasnorm_wordpool_576.txt	LTP293	ltpFR2	10	18	RABBIT	1152	n/a	n/a	0	0	0
3913427	REC_WORD	wordpools/wasnorm_wordpool_576.txt	LTP293	ltpFR2	10	18	MARKER	870	n/a	n/a	0	0	0
3914685	REC_WORD	wordpools/wasnorm_wordpool_576.txt	LTP293	ltpFR2	10	18	CRAYON	401	n/a	n/a	0	0	0
3920140	REC_WORD	wordpools/wasnorm_wordpool_576.txt	LTP293	ltpFR2	10	18	CARROT	249	n/a	n/a	0	0	0
3921463	REC_WORD	wordpools/wasnorm_wordpool_576.txt	LTP293	ltpFR2	10	18	CABBAGE	210	n/a	n/a	0	0	0
3924830	REC_WORD	wordpools/wasnorm_wordpool_576.txt	LTP293	ltpFR2	10	18	ORANGE	980	n/a	n/a	0	0	0
3926269	REC_WORD	wordpools/wasnorm_wordpool_576.txt	LTP293	ltpFR2	10	18	PARENT	1013	n/a	n/a	0	0	0
3935646	REC_WORD	wordpools/wasnorm_wordpool_576.txt	LTP293	ltpFR2	10	18	TAXI	1438	n/a	n/a	0	0	0
3941194	REC_WORD	wordpools/wasnorm_wordpool_576.txt	LTP293	ltpFR2	10	18	LAGOON	795	n/a	n/a	0	0	0
3974324	REC_WORD	wordpools/wasnorm_wordpool_576.txt	LTP293	ltpFR2	10	18	BANK	83	n/a	n/a	0	0	0
3975232	REC_WORD	wordpools/wasnorm_wordpool_576.txt	LTP293	ltpFR2	10	18	BANKER	84	n/a	n/a	0	0	0
3996622	WORD	wordpools/wasnorm_wordpool_576.txt	LTP293	ltpFR2	10	19	HOSTESS	723	n/a	n/a	0	0	0
3999386	WORD	wordpools/wasnorm_wordpool_576.txt	LTP293	ltpFR2	10	19	WAITRESS	1581	n/a	n/a	0	0	0
4002123	WORD	wordpools/wasnorm_wordpool_576.txt	LTP293	ltpFR2	10	19	WHISTLE	1606	n/a	n/a	0	0	0
4004665	WORD	wordpools/wasnorm_wordpool_576.txt	LTP293	ltpFR2	10	19	BURGLAR	200	n/a	n/a	0	0	0
4007178	WORD	wordpools/wasnorm_wordpool_576.txt	LTP293	ltpFR2	10	19	OYSTER	995	n/a	n/a	0	0	0
4009719	WORD	wordpools/wasnorm_wordpool_576.txt	LTP293	ltpFR2	10	19	BABY	64	n/a	n/a	0	0	0
4012448	WORD	wordpools/wasnorm_wordpool_576.txt	LTP293	ltpFR2	10	19	THRONE	1461	n/a	n/a	0	0	0
4014934	WORD	wordpools/wasnorm_wordpool_576.txt	LTP293	ltpFR2	10	19	VALLEY	1545	n/a	n/a	0	0	0
4017469	WORD	wordpools/wasnorm_wordpool_576.txt	LTP293	ltpFR2	10	19	SWITCH	1422	n/a	n/a	0	0	0
4019977	WORD	wordpools/wasnorm_wordpool_576.txt	LTP293	ltpFR2	10	19	SEAFOOD	1260	n/a	n/a	0	0	0
4022439	WORD	wordpools/wasnorm_wordpool_576.txt	LTP293	ltpFR2	10	19	JURY	766	n/a	n/a	0	0	0
4025210	WORD	wordpools/wasnorm_wordpool_576.txt	LTP293	ltpFR2	10	19	VICTIM	1562	n/a	n/a	0	0	0
4027733	WORD	wordpools/wasnorm_wordpool_576.txt	LTP293	ltpFR2	10	19	TUBA	1515	n/a	n/a	0	0	0
4030435	WORD	wordpools/wasnorm_wordpool_576.txt	LTP293	ltpFR2	10	19	ATOM	55	n/a	n/a	0	0	0
4033000	WORD	wordpools/wasnorm_wordpool_576.txt	LTP293	ltpFR2	10	19	HORNET	718	n/a	n/a	0	0	0
4035669	WORD	wordpools/wasnorm_wordpool_576.txt	LTP293	ltpFR2	10	19	DRAWING	494	n/a	n/a	0	0	0
4038305	WORD	wordpools/wasnorm_wordpool_576.txt	LTP293	ltpFR2	10	19	MARKET	871	n/a	n/a	0	0	0
4040944	WORD	wordpools/wasnorm_wordpool_576.txt	LTP293	ltpFR2	10	19	OFFICE	972	n/a	n/a	0	0	0
4043693	WORD	wordpools/wasnorm_wordpool_576.txt	LTP293	ltpFR2	10	19	DAUGHTER	442	n/a	n/a	0	0	0
4046444	WORD	wordpools/wasnorm_wordpool_576.txt	LTP293	ltpFR2	10	19	OINTMENT	974	n/a	n/a	0	0	0
4049013	WORD	wordpools/wasnorm_wordpool_576.txt	LTP293	ltpFR2	10	19	TABLET	1427	n/a	n/a	0	0	0
4051569	WORD	wordpools/wasnorm_wordpool_576.txt	LTP293	ltpFR2	10	19	QUEEN	1149	n/a	n/a	0	0	0
4054052	WORD	wordpools/wasnorm_wordpool_576.txt	LTP293	ltpFR2	10	19	PLUTO	1092	n/a	n/a	0	0	0
4056771	WORD	wordpools/wasnorm_wordpool_576.txt	LTP293	ltpFR2	10	19	ROCKET	1202	n/a	n/a	0	0	0
4058388	START	n/a	LTP293	ltpFR2	10	n/a	n/a	n/a	29	n/a	n/a	n/a	n/a
4059211	DISTRACTOR	n/a	LTP293	ltpFR2	10	19	n/a	n/a	n/a	n/a	0	0	0
4059223	PROB	n/a	LTP293	ltpFR2	10	n/a	n/a	n/a	29	13	8	4	1
4060691	PROB	n/a	LTP293	ltpFR2	10	n/a	n/a	n/a	29	12	1	5	6
4061791	PROB	n/a	LTP293	ltpFR2	10	n/a	n/a	n/a	29	15	5	8	2
4062875	PROB	n/a	LTP293	ltpFR2	10	n/a	n/a	n/a	29	13	6	2	5
4064026	PROB	n/a	LTP293	ltpFR2	10	n/a	n/a	n/a	29	18	7	8	3
4065443	PROB	n/a	LTP293	ltpFR2	10	n/a	n/a	n/a	29	11	6	3	2
4066778	PROB	n/a	LTP293	ltpFR2	10	n/a	n/a	n/a	29	13	8	4	1
4068165	PROB	n/a	LTP293	ltpFR2	10	n/a	n/a	n/a	29	20	7	4	9
4069482	PROB	n/a	LTP293	ltpFR2	10	n/a	n/a	n/a	29	14	7	4	3
4070884	PROB	n/a	LTP293	ltpFR2	10	n/a	n/a	n/a	29	9	1	5	3
4072018	PROB	n/a	LTP293	ltpFR2	10	n/a	n/a	n/a	29	17	2	9	6
4073286	PROB	n/a	LTP293	ltpFR2	10	n/a	n/a	n/a	29	14	4	8	2
4074467	PROB	n/a	LTP293	ltpFR2	10	n/a	n/a	n/a	29	18	5	6	7
4075656	PROB	n/a	LTP293	ltpFR2	10	n/a	n/a	n/a	29	25	8	9	8
4076770	PROB	n/a	LTP293	ltpFR2	10	n/a	n/a	n/a	29	10	6	3	1
4077989	PROB	n/a	LTP293	ltpFR2	10	n/a	n/a	n/a	29	16	6	6	4
4079422	PROB	n/a	LTP293	ltpFR2	10	n/a	n/a	n/a	29	25	9	8	8
4080743	PROB	n/a	LTP293	ltpFR2	10	n/a	n/a	n/a	29	19	4	9	6
4081889	STOP	n/a	LTP293	ltpFR2	10	n/a	n/a	n/a	29	n/a	n/a	n/a	n/a
4084178	REC_START	n/a	LTP293	ltpFR2	10	19	n/a	n/a	n/a	n/a	0	0	0
4085150	REC_WORD	wordpools/wasnorm_wordpool_576.txt	LTP293	ltpFR2	10	19	ROCKET	1202	n/a	n/a	0	0	0
4086318	REC_WORD	wordpools/wasnorm_wordpool_576.txt	LTP293	ltpFR2	10	19	QUEEN	1149	n/a	n/a	0	0	0
4087687	REC_WORD	wordpools/wasnorm_wordpool_576.txt	LTP293	ltpFR2	10	19	THRONE	1461	n/a	n/a	0	0	0
4089312	REC_WORD	wordpools/wasnorm_wordpool_576.txt	LTP293	ltpFR2	10	19	WASP	1593	n/a	n/a	0	0	0
4091380	REC_WORD	wordpools/wasnorm_wordpool_576.txt	LTP293	ltpFR2	10	19	OINTMENT	974	n/a	n/a	0	0	0
4092642	REC_WORD	wordpools/wasnorm_wordpool_576.txt	LTP293	ltpFR2	10	19	TABLET	1427	n/a	n/a	0	0	0
4095284	REC_WORD	wordpools/wasnorm_wordpool_576.txt	LTP293	ltpFR2	10	19	THRONE	1461	n/a	n/a	0	0	0
4097689	REC_WORD	wordpools/wasnorm_wordpool_576.txt	LTP293	ltpFR2	10	19	MARKET	871	n/a	n/a	0	0	0
4099338	REC_WORD	wordpools/wasnorm_wordpool_576.txt	LTP293	ltpFR2	10	19	WAITRESS	1581	n/a	n/a	0	0	0
4100616	REC_WORD	wordpools/wasnorm_wordpool_576.txt	LTP293	ltpFR2	10	19	HOSTESS	723	n/a	n/a	0	0	0
4104860	REC_WORD	wordpools/wasnorm_wordpool_576.txt	LTP293	ltpFR2	10	19	BURGLAR	200	n/a	n/a	0	0	0
4174615	WORD	wordpools/wasnorm_wordpool_576.txt	LTP293	ltpFR2	10	20	THREAD	1460	n/a	n/a	0	0	0
4177169	WORD	wordpools/wasnorm_wordpool_576.txt	LTP293	ltpFR2	10	20	BLACKBOARD	133	n/a	n/a	0	0	0
4179905	WORD	wordpools/wasnorm_wordpool_576.txt	LTP293	ltpFR2	10	20	PANTHER	1009	n/a	n/a	0	0	0
4182697	WORD	wordpools/wasnorm_wordpool_576.txt	LTP293	ltpFR2	10	20	SIBLING	1301	n/a	n/a	0	0	0
4185260	WORD	wordpools/wasnorm_wordpool_576.txt	LTP293	ltpFR2	10	20	RATTLE	1170	n/a	n/a	0	0	0
4188029	WORD	wordpools/wasnorm_wordpool_576.txt	LTP293	ltpFR2	10	20	LIZARD	834	n/a	n/a	0	0	0
4190563	WORD	wordpools/wasnorm_wordpool_576.txt	LTP293	ltpFR2	10	20	CLAMP	316	n/a	n/a	0	0	0
4193133	WORD	wordpools/wasnorm_wordpool_576.txt	LTP293	ltpFR2	10	20	NAPKIN	937	n/a	n/a	0	0	0
4195634	WORD	wordpools/wasnorm_wordpool_576.txt	LTP293	ltpFR2	10	20	YARN	1631	n/a	n/a	0	0	0
