mstime	trial_type	stim_file	subject	experiment	session	trial	item_name	item_num	list	answer	test_x	test_y	test_z
0	SESS_START	n/a	LTP366	ltpFR2	20	n/a	n/a	n/a	n/a	n/a	0	0	0
11406	START	n/a	LTP366	ltpFR2	20	n/a	n/a	n/a	-1	n/a	n/a	n/a	n/a
11437	PROB	n/a	LTP366	ltpFR2	20	n/a	n/a	n/a	-1	7	1	5	1
12858	PROB	n/a	LTP366	ltpFR2	20	n/a	n/a	n/a	-1	14	2	3	9
14363	PROB	n/a	LTP366	ltpFR2	20	n/a	n/a	n/a	-1	13	2	7	3
15350	PROB	n/a	LTP366	ltpFR2	20	n/a	n/a	n/a	-1	15	2	9	4
16587	PROB	n/a	LTP366	ltpFR2	20	n/a	n/a	n/a	-1	19	8	9	2
18159	PROB	n/a	LTP366	ltpFR2	20	n/a	n/a	n/a	-1	16	5	7	4
19413	PROB	n/a	LTP366	ltpFR2	20	n/a	n/a	n/a	-1	14	4	1	9
20500	PROB	n/a	LTP366	ltpFR2	20	n/a	n/a	n/a	-1	14	5	4	5
21890	STOP	n/a	LTP366	ltpFR2	20	n/a	n/a	n/a	-1	n/a	n/a	n/a	n/a
49995	DISTRACTOR	n/a	LTP366	ltpFR2	20	1	n/a	n/a	n/a	n/a	0	0	0
49995	START	n/a	LTP366	ltpFR2	20	n/a	n/a	n/a	1	n/a	n/a	n/a	n/a
50012	PROB	n/a	LTP366	ltpFR2	20	n/a	n/a	n/a	1	15	9	4	2
51533	PROB	n/a	LTP366	ltpFR2	20	n/a	n/a	n/a	1	16	2	5	9
53089	PROB	n/a	LTP366	ltpFR2	20	n/a	n/a	n/a	1	14	2	8	4
54828	PROB	n/a	LTP366	ltpFR2	20	n/a	n/a	n/a	1	11	4	2	5
56082	PROB	n/a	LTP366	ltpFR2	20	n/a	n/a	n/a	1	15	2	6	7
57586	PROB	n/a	LTP366	ltpFR2	20	n/a	n/a	n/a	1	18	6	4	8
58657	PROB	n/a	LTP366	ltpFR2	20	n/a	n/a	n/a	1	18	7	8	3
60061	PROB	n/a	LTP366	ltpFR2	20	n/a	n/a	n/a	1	12	2	5	5
61048	PROB	n/a	LTP366	ltpFR2	20	n/a	n/a	n/a	1	17	6	5	6
62452	PROB	n/a	LTP366	ltpFR2	20	n/a	n/a	n/a	1	8	3	3	2
63572	PROB	n/a	LTP366	ltpFR2	20	n/a	n/a	n/a	1	7	1	2	4
64743	PROB	n/a	LTP366	ltpFR2	20	n/a	n/a	n/a	1	12	5	1	6
65713	PROB	n/a	LTP366	ltpFR2	20	n/a	n/a	n/a	1	9	1	2	6
66666	PROB	n/a	LTP366	ltpFR2	20	n/a	n/a	n/a	1	17	4	5	8
68171	PROB	n/a	LTP366	ltpFR2	20	n/a	n/a	n/a	1	23	7	9	7
70662	PROB	n/a	LTP366	ltpFR2	20	n/a	n/a	n/a	1	16	3	4	9
72167	PROB	n/a	LTP366	ltpFR2	20	n/a	n/a	n/a	1	16	5	2	9
73235	STOP	n/a	LTP366	ltpFR2	20	n/a	n/a	n/a	1	n/a	n/a	n/a	n/a
75209	WORD	wordpools/wasnorm_wordpool_576.txt	LTP366	ltpFR2	20	1	SUNSET	1408	n/a	n/a	0	0	0
77986	WORD	wordpools/wasnorm_wordpool_576.txt	LTP366	ltpFR2	20	1	SLOPE	1328	n/a	n/a	0	0	0
80611	WORD	wordpools/wasnorm_wordpool_576.txt	LTP366	ltpFR2	20	1	CANYON	235	n/a	n/a	0	0	0
83370	WORD	wordpools/wasnorm_wordpool_576.txt	LTP366	ltpFR2	20	1	NURSE	963	n/a	n/a	0	0	0
86062	WORD	wordpools/wasnorm_wordpool_576.txt	LTP366	ltpFR2	20	1	LOVER	846	n/a	n/a	0	0	0
88570	WORD	wordpools/wasnorm_wordpool_576.txt	LTP366	ltpFR2	20	1	LADY	794	n/a	n/a	0	0	0
91112	WORD	wordpools/wasnorm_wordpool_576.txt	LTP366	ltpFR2	20	1	OZONE	996	n/a	n/a	0	0	0
93670	WORD	wordpools/wasnorm_wordpool_576.txt	LTP366	ltpFR2	20	1	PLATE	1086	n/a	n/a	0	0	0
96295	WORD	wordpools/wasnorm_wordpool_576.txt	LTP366	ltpFR2	20	1	CRATER	400	n/a	n/a	0	0	0
98987	WORD	wordpools/wasnorm_wordpool_576.txt	LTP366	ltpFR2	20	1	SHELF	1280	n/a	n/a	0	0	0
101562	WORD	wordpools/wasnorm_wordpool_576.txt	LTP366	ltpFR2	20	1	PATIENT	1024	n/a	n/a	0	0	0
104003	WORD	wordpools/wasnorm_wordpool_576.txt	LTP366	ltpFR2	20	1	PEPPER	1047	n/a	n/a	0	0	0
106612	WORD	wordpools/wasnorm_wordpool_576.txt	LTP366	ltpFR2	20	1	GARLIC	624	n/a	n/a	0	0	0
109337	WORD	wordpools/wasnorm_wordpool_576.txt	LTP366	ltpFR2	20	1	PALACE	1006	n/a	n/a	0	0	0
112130	WORD	wordpools/wasnorm_wordpool_576.txt	LTP366	ltpFR2	20	1	SMOG	1330	n/a	n/a	0	0	0
114755	WORD	wordpools/wasnorm_wordpool_576.txt	LTP366	ltpFR2	20	1	SERVER	1272	n/a	n/a	0	0	0
117263	WORD	wordpools/wasnorm_wordpool_576.txt	LTP366	ltpFR2	20	1	HERO	706	n/a	n/a	0	0	0
119738	WORD	wordpools/wasnorm_wordpool_576.txt	LTP366	ltpFR2	20	1	FRIAR	605	n/a	n/a	0	0	0
122396	WORD	wordpools/wasnorm_wordpool_576.txt	LTP366	ltpFR2	20	1	OMELET	976	n/a	n/a	0	0	0
125021	WORD	wordpools/wasnorm_wordpool_576.txt	LTP366	ltpFR2	20	1	PRINCE	1124	n/a	n/a	0	0	0
127613	WORD	wordpools/wasnorm_wordpool_576.txt	LTP366	ltpFR2	20	1	LEADER	807	n/a	n/a	0	0	0
130322	WORD	wordpools/wasnorm_wordpool_576.txt	LTP366	ltpFR2	20	1	DIME	466	n/a	n/a	0	0	0
133064	WORD	wordpools/wasnorm_wordpool_576.txt	LTP366	ltpFR2	20	1	COURSE	390	n/a	n/a	0	0	0
135656	WORD	wordpools/wasnorm_wordpool_576.txt	LTP366	ltpFR2	20	1	TEACHER	1440	n/a	n/a	0	0	0
137261	START	n/a	LTP366	ltpFR2	20	n/a	n/a	n/a	2	n/a	n/a	n/a	n/a
138120	DISTRACTOR	n/a	LTP366	ltpFR2	20	1	n/a	n/a	n/a	n/a	0	0	0
138131	PROB	n/a	LTP366	ltpFR2	20	n/a	n/a	n/a	2	19	8	9	1
139335	PROB	n/a	LTP366	ltpFR2	20	n/a	n/a	n/a	2	20	8	5	7
142461	PROB	n/a	LTP366	ltpFR2	20	n/a	n/a	n/a	2	15	7	7	1
143548	PROB	n/a	LTP366	ltpFR2	20	n/a	n/a	n/a	2	5	1	1	3
144384	PROB	n/a	LTP366	ltpFR2	20	n/a	n/a	n/a	2	12	5	1	6
145337	PROB	n/a	LTP366	ltpFR2	20	n/a	n/a	n/a	2	21	4	8	9
146658	PROB	n/a	LTP366	ltpFR2	20	n/a	n/a	n/a	2	13	7	1	5
147695	PROB	n/a	LTP366	ltpFR2	20	n/a	n/a	n/a	2	21	6	7	8
148815	PROB	n/a	LTP366	ltpFR2	20	n/a	n/a	n/a	2	13	4	1	8
149785	PROB	n/a	LTP366	ltpFR2	20	n/a	n/a	n/a	2	6	1	2	3
150638	PROB	n/a	LTP366	ltpFR2	20	n/a	n/a	n/a	2	10	2	7	1
151641	PROB	n/a	LTP366	ltpFR2	20	n/a	n/a	n/a	2	12	7	2	3
152728	PROB	n/a	LTP366	ltpFR2	20	n/a	n/a	n/a	2	11	7	2	2
154885	PROB	n/a	LTP366	ltpFR2	20	n/a	n/a	n/a	2	24	8	9	7
156624	PROB	n/a	LTP366	ltpFR2	20	n/a	n/a	n/a	2	17	7	9	1
157844	PROB	n/a	LTP366	ltpFR2	20	n/a	n/a	n/a	2	22	5	8	9
159082	PROB	n/a	LTP366	ltpFR2	20	n/a	n/a	n/a	2	13	3	9	1
160038	STOP	n/a	LTP366	ltpFR2	20	n/a	n/a	n/a	2	n/a	n/a	n/a	n/a
163112	REC_START	n/a	LTP366	ltpFR2	20	1	n/a	n/a	n/a	n/a	0	0	0
164530	REC_WORD	wordpools/wasnorm_wordpool_576.txt	LTP366	ltpFR2	20	1	DIME	466	n/a	n/a	0	0	0
165168	REC_WORD	wordpools/wasnorm_wordpool_576.txt	LTP366	ltpFR2	20	1	PRINCE	1124	n/a	n/a	0	0	0
166064	REC_WORD	wordpools/wasnorm_wordpool_576.txt	LTP366	ltpFR2	20	1	LEADER	807	n/a	n/a	0	0	0
167062	REC_WORD	wordpools/wasnorm_wordpool_576.txt	LTP366	ltpFR2	20	1	TEACHER	1440	n/a	n/a	0	0	0
167887	REC_WORD	wordpools/wasnorm_wordpool_576.txt	LTP366	ltpFR2	20	1	COURSE	390	n/a	n/a	0	0	0
168881	REC_WORD	wordpools/wasnorm_wordpool_576.txt	LTP366	ltpFR2	20	1	NURSE	963	n/a	n/a	0	0	0
170182	REC_WORD	wordpools/wasnorm_wordpool_576.txt	LTP366	ltpFR2	20	1	LADY	794	n/a	n/a	0	0	0
173186	REC_WORD	wordpools/wasnorm_wordpool_576.txt	LTP366	ltpFR2	20	1	LOVER	846	n/a	n/a	0	0	0
175440	REC_WORD	wordpools/wasnorm_wordpool_576.txt	LTP366	ltpFR2	20	1	CANYON	235	n/a	n/a	0	0	0
176118	REC_WORD	wordpools/wasnorm_wordpool_576.txt	LTP366	ltpFR2	20	1	SLOPE	1328	n/a	n/a	0	0	0
190462	REC_WORD	wordpools/wasnorm_wordpool_576.txt	LTP366	ltpFR2	20	1	GARLIC	624	n/a	n/a	0	0	0
192167	REC_WORD	wordpools/wasnorm_wordpool_576.txt	LTP366	ltpFR2	20	1	ONION	977	n/a	n/a	0	0	0
200623	REC_WORD	wordpools/wasnorm_wordpool_576.txt	LTP366	ltpFR2	20	1	PUDDING	1139	n/a	n/a	0	0	0
205861	REC_WORD	wordpools/wasnorm_wordpool_576.txt	LTP366	ltpFR2	20	1	HERO	706	n/a	n/a	0	0	0
206662	REC_WORD	wordpools/wasnorm_wordpool_576.txt	LTP366	ltpFR2	20	1	FRIAR	605	n/a	n/a	0	0	0
253554	DISTRACTOR	n/a	LTP366	ltpFR2	20	2	n/a	n/a	n/a	n/a	0	0	0
253555	START	n/a	LTP366	ltpFR2	20	n/a	n/a	n/a	3	n/a	n/a	n/a	n/a
253571	PROB	n/a	LTP366	ltpFR2	20	n/a	n/a	n/a	3	14	2	4	8
255093	PROB	n/a	LTP366	ltpFR2	20	n/a	n/a	n/a	3	21	6	6	9
256380	PROB	n/a	LTP366	ltpFR2	20	n/a	n/a	n/a	3	26	9	8	9
257801	PROB	n/a	LTP366	ltpFR2	20	n/a	n/a	n/a	3	14	7	3	4
258855	PROB	n/a	LTP366	ltpFR2	20	n/a	n/a	n/a	3	18	5	8	5
259975	PROB	n/a	LTP366	ltpFR2	20	n/a	n/a	n/a	3	14	4	4	6
261012	PROB	n/a	LTP366	ltpFR2	20	n/a	n/a	n/a	3	11	4	4	3
262350	PROB	n/a	LTP366	ltpFR2	20	n/a	n/a	n/a	3	9	1	1	7
263235	PROB	n/a	LTP366	ltpFR2	20	n/a	n/a	n/a	3	13	6	2	5
264573	PROB	n/a	LTP366	ltpFR2	20	n/a	n/a	n/a	3	7	3	3	1
265944	PROB	n/a	LTP366	ltpFR2	20	n/a	n/a	n/a	3	9	1	7	1
266948	PROB	n/a	LTP366	ltpFR2	20	n/a	n/a	n/a	3	12	2	5	5
268035	PROB	n/a	LTP366	ltpFR2	20	n/a	n/a	n/a	3	8	2	4	2
269422	PROB	n/a	LTP366	ltpFR2	20	n/a	n/a	n/a	3	21	9	5	7
270743	PROB	n/a	LTP366	ltpFR2	20	n/a	n/a	n/a	3	16	4	7	5
272031	PROB	n/a	LTP366	ltpFR2	20	n/a	n/a	n/a	3	12	2	1	9
273017	PROB	n/a	LTP366	ltpFR2	20	n/a	n/a	n/a	3	14	7	2	5
274255	PROB	n/a	LTP366	ltpFR2	20	n/a	n/a	n/a	3	17	3	7	7
275476	PROB	n/a	LTP366	ltpFR2	20	n/a	n/a	n/a	3	12	3	3	6
276778	STOP	n/a	LTP366	ltpFR2	20	n/a	n/a	n/a	3	n/a	n/a	n/a	n/a
278435	WORD	wordpools/wasnorm_wordpool_576.txt	LTP366	ltpFR2	20	2	AIRPORT	13	n/a	n/a	0	0	0
281043	WORD	wordpools/wasnorm_wordpool_576.txt	LTP366	ltpFR2	20	2	SCARECROW	1245	n/a	n/a	0	0	0
283635	WORD	wordpools/wasnorm_wordpool_576.txt	LTP366	ltpFR2	20	2	PERCH	1048	n/a	n/a	0	0	0
286143	WORD	wordpools/wasnorm_wordpool_576.txt	LTP366	ltpFR2	20	2	SPOOL	1356	n/a	n/a	0	0	0
288651	WORD	wordpools/wasnorm_wordpool_576.txt	LTP366	ltpFR2	20	2	WAGON	1578	n/a	n/a	0	0	0
291310	WORD	wordpools/wasnorm_wordpool_576.txt	LTP366	ltpFR2	20	2	SCULPTURE	1258	n/a	n/a	0	0	0
294052	WORD	wordpools/wasnorm_wordpool_576.txt	LTP366	ltpFR2	20	2	STATUE	1374	n/a	n/a	0	0	0
296677	WORD	wordpools/wasnorm_wordpool_576.txt	LTP366	ltpFR2	20	2	STICKER	1382	n/a	n/a	0	0	0
299303	WORD	wordpools/wasnorm_wordpool_576.txt	LTP366	ltpFR2	20	2	SUPPER	1411	n/a	n/a	0	0	0
301911	WORD	wordpools/wasnorm_wordpool_576.txt	LTP366	ltpFR2	20	2	SUBWAY	1400	n/a	n/a	0	0	0
304603	WORD	wordpools/wasnorm_wordpool_576.txt	LTP366	ltpFR2	20	2	DUST	508	n/a	n/a	0	0	0
307111	WORD	wordpools/wasnorm_wordpool_576.txt	LTP366	ltpFR2	20	2	BARREL	91	n/a	n/a	0	0	0
309636	WORD	wordpools/wasnorm_wordpool_576.txt	LTP366	ltpFR2	20	2	SPACE	1345	n/a	n/a	0	0	0
312127	WORD	wordpools/wasnorm_wordpool_576.txt	LTP366	ltpFR2	20	2	EGYPT	519	n/a	n/a	0	0	0
314569	WORD	wordpools/wasnorm_wordpool_576.txt	LTP366	ltpFR2	20	2	COMET	353	n/a	n/a	0	0	0
317311	WORD	wordpools/wasnorm_wordpool_576.txt	LTP366	ltpFR2	20	2	PERFUME	1049	n/a	n/a	0	0	0
319803	WORD	wordpools/wasnorm_wordpool_576.txt	LTP366	ltpFR2	20	2	RIFLE	1192	n/a	n/a	0	0	0
322394	WORD	wordpools/wasnorm_wordpool_576.txt	LTP366	ltpFR2	20	2	POWDER	1117	n/a	n/a	0	0	0
325036	WORD	wordpools/wasnorm_wordpool_576.txt	LTP366	ltpFR2	20	2	WINDOW	1611	n/a	n/a	0	0	0
327795	WORD	wordpools/wasnorm_wordpool_576.txt	LTP366	ltpFR2	20	2	CURTAIN	427	n/a	n/a	0	0	0
330487	WORD	wordpools/wasnorm_wordpool_576.txt	LTP366	ltpFR2	20	2	BRAKE	166	n/a	n/a	0	0	0
333179	WORD	wordpools/wasnorm_wordpool_576.txt	LTP366	ltpFR2	20	2	LADDER	793	n/a	n/a	0	0	0
335771	WORD	wordpools/wasnorm_wordpool_576.txt	LTP366	ltpFR2	20	2	MUMMY	932	n/a	n/a	0	0	0
338312	WORD	wordpools/wasnorm_wordpool_576.txt	LTP366	ltpFR2	20	2	PROTON	1132	n/a	n/a	0	0	0
339918	START	n/a	LTP366	ltpFR2	20	n/a	n/a	n/a	4	n/a	n/a	n/a	n/a
341056	DISTRACTOR	n/a	LTP366	ltpFR2	20	2	n/a	n/a	n/a	n/a	0	0	0
341071	PROB	n/a	LTP366	ltpFR2	20	n/a	n/a	n/a	4	22	8	7	7
342342	PROB	n/a	LTP366	ltpFR2	20	n/a	n/a	n/a	4	9	4	1	4
343295	PROB	n/a	LTP366	ltpFR2	20	n/a	n/a	n/a	4	9	3	5	1
344164	PROB	n/a	LTP366	ltpFR2	20	n/a	n/a	n/a	4	14	9	3	2
345435	PROB	n/a	LTP366	ltpFR2	20	n/a	n/a	n/a	4	13	5	7	1
346706	PROB	n/a	LTP366	ltpFR2	20	n/a	n/a	n/a	4	17	7	6	4
348027	PROB	n/a	LTP366	ltpFR2	20	n/a	n/a	n/a	4	16	3	9	4
349298	PROB	n/a	LTP366	ltpFR2	20	n/a	n/a	n/a	4	15	5	8	2
350535	PROB	n/a	LTP366	ltpFR2	20	n/a	n/a	n/a	4	18	5	5	8
351555	PROB	n/a	LTP366	ltpFR2	20	n/a	n/a	n/a	4	8	1	1	6
352441	PROB	n/a	LTP366	ltpFR2	20	n/a	n/a	n/a	4	22	4	9	9
353879	PROB	n/a	LTP366	ltpFR2	20	n/a	n/a	n/a	4	9	3	2	4
356120	PROB	n/a	LTP366	ltpFR2	20	n/a	n/a	n/a	4	15	1	6	8
358226	PROB	n/a	LTP366	ltpFR2	20	n/a	n/a	n/a	4	16	2	8	6
359330	PROB	n/a	LTP366	ltpFR2	20	n/a	n/a	n/a	4	10	3	4	3
360935	PROB	n/a	LTP366	ltpFR2	20	n/a	n/a	n/a	4	12	1	8	3
361955	PROB	n/a	LTP366	ltpFR2	20	n/a	n/a	n/a	4	16	5	2	9
363052	STOP	n/a	LTP366	ltpFR2	20	n/a	n/a	n/a	4	n/a	n/a	n/a	n/a
365785	REC_START	n/a	LTP366	ltpFR2	20	2	n/a	n/a	n/a	n/a	0	0	0
366358	REC_WORD	wordpools/wasnorm_wordpool_576.txt	LTP366	ltpFR2	20	2	PERFUME	1049	n/a	n/a	0	0	0
367881	REC_WORD	wordpools/wasnorm_wordpool_576.txt	LTP366	ltpFR2	20	2	RIFLE	1192	n/a	n/a	0	0	0
368776	REC_WORD	wordpools/wasnorm_wordpool_576.txt	LTP366	ltpFR2	20	2	POWDER	1117	n/a	n/a	0	0	0
370616	REC_WORD	wordpools/wasnorm_wordpool_576.txt	LTP366	ltpFR2	20	2	LADDER	793	n/a	n/a	0	0	0
371696	REC_WORD	wordpools/wasnorm_wordpool_576.txt	LTP366	ltpFR2	20	2	MUMMY	932	n/a	n/a	0	0	0
372447	REC_WORD	wordpools/wasnorm_wordpool_576.txt	LTP366	ltpFR2	20	2	EGYPT	519	n/a	n/a	0	0	0
373203	REC_WORD	wordpools/wasnorm_wordpool_576.txt	LTP366	ltpFR2	20	2	SPACE	1345	n/a	n/a	0	0	0
374460	REC_WORD	wordpools/wasnorm_wordpool_576.txt	LTP366	ltpFR2	20	2	COMET	353	n/a	n/a	0	0	0
382377	REC_WORD	wordpools/wasnorm_wordpool_576.txt	LTP366	ltpFR2	20	2	STATUE	1374	n/a	n/a	0	0	0
383023	REC_WORD	wordpools/wasnorm_wordpool_576.txt	LTP366	ltpFR2	20	2	SCULPTURE	1258	n/a	n/a	0	0	0
387327	REC_WORD	wordpools/wasnorm_wordpool_576.txt	LTP366	ltpFR2	20	2	AIRPORT	13	n/a	n/a	0	0	0
393040	REC_WORD	wordpools/wasnorm_wordpool_576.txt	LTP366	ltpFR2	20	2	WINDOW	1611	n/a	n/a	0	0	0
393719	REC_WORD	wordpools/wasnorm_wordpool_576.txt	LTP366	ltpFR2	20	2	CURTAIN	427	n/a	n/a	0	0	0
420436	REC_WORD	wordpools/wasnorm_wordpool_576.txt	LTP366	ltpFR2	20	2	SPACE	1345	n/a	n/a	0	0	0
422190	REC_WORD	wordpools/wasnorm_wordpool_576.txt	LTP366	ltpFR2	20	2	SUBWAY	1400	n/a	n/a	0	0	0
456226	DISTRACTOR	n/a	LTP366	ltpFR2	20	3	n/a	n/a	n/a	n/a	0	0	0
456226	START	n/a	LTP366	ltpFR2	20	n/a	n/a	n/a	5	n/a	n/a	n/a	n/a
456243	PROB	n/a	LTP366	ltpFR2	20	n/a	n/a	n/a	5	7	2	1	4
457349	PROB	n/a	LTP366	ltpFR2	20	n/a	n/a	n/a	5	18	5	5	8
458351	PROB	n/a	LTP366	ltpFR2	20	n/a	n/a	n/a	5	24	8	8	8
459454	PROB	n/a	LTP366	ltpFR2	20	n/a	n/a	n/a	5	17	1	7	9
460608	PROB	n/a	LTP366	ltpFR2	20	n/a	n/a	n/a	5	22	8	6	8
462247	PROB	n/a	LTP366	ltpFR2	20	n/a	n/a	n/a	5	14	3	7	4
463986	PROB	n/a	LTP366	ltpFR2	20	n/a	n/a	n/a	5	19	7	5	7
465307	PROB	n/a	LTP366	ltpFR2	20	n/a	n/a	n/a	5	15	9	2	4
466477	PROB	n/a	LTP366	ltpFR2	20	n/a	n/a	n/a	5	17	2	8	7
467597	PROB	n/a	LTP366	ltpFR2	20	n/a	n/a	n/a	5	18	6	3	9
468801	PROB	n/a	LTP366	ltpFR2	20	n/a	n/a	n/a	5	16	3	4	9
470089	PROB	n/a	LTP366	ltpFR2	20	n/a	n/a	n/a	5	15	1	8	6
471677	PROB	n/a	LTP366	ltpFR2	20	n/a	n/a	n/a	5	18	5	8	5
472798	PROB	n/a	LTP366	ltpFR2	20	n/a	n/a	n/a	5	18	5	5	8
473868	PROB	n/a	LTP366	ltpFR2	20	n/a	n/a	n/a	5	23	9	9	5
476241	PROB	n/a	LTP366	ltpFR2	20	n/a	n/a	n/a	5	24	9	9	6
477697	PROB	n/a	LTP366	ltpFR2	20	n/a	n/a	n/a	5	14	2	9	3
478968	STOP	n/a	LTP366	ltpFR2	20	n/a	n/a	n/a	5	n/a	n/a	n/a	n/a
481158	WORD	wordpools/wasnorm_wordpool_576.txt	LTP366	ltpFR2	20	3	TERMITE	1451	n/a	n/a	0	0	0
483800	WORD	wordpools/wasnorm_wordpool_576.txt	LTP366	ltpFR2	20	3	FRANCE	601	n/a	n/a	0	0	0
486240	WORD	wordpools/wasnorm_wordpool_576.txt	LTP366	ltpFR2	20	3	HAND	683	n/a	n/a	0	0	0
488967	WORD	wordpools/wasnorm_wordpool_576.txt	LTP366	ltpFR2	20	3	FIDDLE	561	n/a	n/a	0	0	0
491425	WORD	wordpools/wasnorm_wordpool_576.txt	LTP366	ltpFR2	20	3	GUITAR	670	n/a	n/a	0	0	0
494033	WORD	wordpools/wasnorm_wordpool_576.txt	LTP366	ltpFR2	20	3	FEMALE	559	n/a	n/a	0	0	0
496759	WORD	wordpools/wasnorm_wordpool_576.txt	LTP366	ltpFR2	20	3	WOMAN	1620	n/a	n/a	0	0	0
499199	WORD	wordpools/wasnorm_wordpool_576.txt	LTP366	ltpFR2	20	3	COCOON	339	n/a	n/a	0	0	0
501942	WORD	wordpools/wasnorm_wordpool_576.txt	LTP366	ltpFR2	20	3	LAVA	804	n/a	n/a	0	0	0
504684	WORD	wordpools/wasnorm_wordpool_576.txt	LTP366	ltpFR2	20	3	STONE	1385	n/a	n/a	0	0	0
507259	WORD	wordpools/wasnorm_wordpool_576.txt	LTP366	ltpFR2	20	3	NOTEBOOK	959	n/a	n/a	0	0	0
509851	WORD	wordpools/wasnorm_wordpool_576.txt	LTP366	ltpFR2	20	3	ONION	977	n/a	n/a	0	0	0
512643	WORD	wordpools/wasnorm_wordpool_576.txt	LTP366	ltpFR2	20	3	DAISY	435	n/a	n/a	0	0	0
515436	WORD	wordpools/wasnorm_wordpool_576.txt	LTP366	ltpFR2	20	3	MESSAGE	888	n/a	n/a	0	0	0
517927	WORD	wordpools/wasnorm_wordpool_576.txt	LTP366	ltpFR2	20	3	HARP	689	n/a	n/a	0	0	0
520602	WORD	wordpools/wasnorm_wordpool_576.txt	LTP366	ltpFR2	20	3	PEACH	1031	n/a	n/a	0	0	0
523243	WORD	wordpools/wasnorm_wordpool_576.txt	LTP366	ltpFR2	20	3	BUNNY	198	n/a	n/a	0	0	0
525819	WORD	wordpools/wasnorm_wordpool_576.txt	LTP366	ltpFR2	20	3	REPORT	1184	n/a	n/a	0	0	0
528311	WORD	wordpools/wasnorm_wordpool_576.txt	LTP366	ltpFR2	20	3	PUPPY	1144	n/a	n/a	0	0	0
530986	WORD	wordpools/wasnorm_wordpool_576.txt	LTP366	ltpFR2	20	3	MEDAL	885	n/a	n/a	0	0	0
533762	WORD	wordpools/wasnorm_wordpool_576.txt	LTP366	ltpFR2	20	3	POET	1095	n/a	n/a	0	0	0
536420	WORD	wordpools/wasnorm_wordpool_576.txt	LTP366	ltpFR2	20	3	PLAZA	1088	n/a	n/a	0	0	0
539179	WORD	wordpools/wasnorm_wordpool_576.txt	LTP366	ltpFR2	20	3	JUDGE	761	n/a	n/a	0	0	0
541671	WORD	wordpools/wasnorm_wordpool_576.txt	LTP366	ltpFR2	20	3	KIDNEY	776	n/a	n/a	0	0	0
543276	START	n/a	LTP366	ltpFR2	20	n/a	n/a	n/a	6	n/a	n/a	n/a	n/a
544386	DISTRACTOR	n/a	LTP366	ltpFR2	20	3	n/a	n/a	n/a	n/a	0	0	0
544396	PROB	n/a	LTP366	ltpFR2	20	n/a	n/a	n/a	6	12	3	4	5
546152	PROB	n/a	LTP366	ltpFR2	20	n/a	n/a	n/a	6	9	4	1	4
547255	PROB	n/a	LTP366	ltpFR2	20	n/a	n/a	n/a	6	18	5	6	7
548409	PROB	n/a	LTP366	ltpFR2	20	n/a	n/a	n/a	6	20	6	7	7
549713	PROB	n/a	LTP366	ltpFR2	20	n/a	n/a	n/a	6	9	2	6	1
550717	PROB	n/a	LTP366	ltpFR2	20	n/a	n/a	n/a	6	22	4	9	9
551887	PROB	n/a	LTP366	ltpFR2	20	n/a	n/a	n/a	6	15	5	6	4
553175	PROB	n/a	LTP366	ltpFR2	20	n/a	n/a	n/a	6	16	3	6	7
554261	PROB	n/a	LTP366	ltpFR2	20	n/a	n/a	n/a	6	11	5	5	1
555298	PROB	n/a	LTP366	ltpFR2	20	n/a	n/a	n/a	6	8	4	2	2
557840	PROB	n/a	LTP366	ltpFR2	20	n/a	n/a	n/a	6	10	1	5	4
558943	PROB	n/a	LTP366	ltpFR2	20	n/a	n/a	n/a	6	14	3	9	2
560465	PROB	n/a	LTP366	ltpFR2	20	n/a	n/a	n/a	6	11	4	5	2
561736	PROB	n/a	LTP366	ltpFR2	20	n/a	n/a	n/a	6	19	9	9	1
562772	PROB	n/a	LTP366	ltpFR2	20	n/a	n/a	n/a	6	14	8	4	2
563943	PROB	n/a	LTP366	ltpFR2	20	n/a	n/a	n/a	6	18	8	8	2
566218	STOP	n/a	LTP366	ltpFR2	20	n/a	n/a	n/a	6	n/a	n/a	n/a	n/a
569026	REC_START	n/a	LTP366	ltpFR2	20	3	n/a	n/a	n/a	n/a	0	0	0
586026	REC_WORD	wordpools/wasnorm_wordpool_576.txt	LTP366	ltpFR2	20	3	COCOON	339	n/a	n/a	0	0	0
586883	REC_WORD	wordpools/wasnorm_wordpool_576.txt	LTP366	ltpFR2	20	3	DAISY	435	n/a	n/a	0	0	0
588664	REC_WORD	wordpools/wasnorm_wordpool_576.txt	LTP366	ltpFR2	20	3	NOTEBOOK	959	n/a	n/a	0	0	0
593327	REC_WORD	wordpools/wasnorm_wordpool_576.txt	LTP366	ltpFR2	20	3	ONION	977	n/a	n/a	0	0	0
636266	REC_WORD	wordpools/wasnorm_wordpool_576.txt	LTP366	ltpFR2	20	3	PROTON	1132	n/a	n/a	0	0	0
659485	WORD	wordpools/wasnorm_wordpool_576.txt	LTP366	ltpFR2	20	4	LUGGAGE	847	n/a	n/a	0	0	0
662161	WORD	wordpools/wasnorm_wordpool_576.txt	LTP366	ltpFR2	20	4	DOLPHIN	483	n/a	n/a	0	0	0
664702	WORD	wordpools/wasnorm_wordpool_576.txt	LTP366	ltpFR2	20	4	FIREPLACE	570	n/a	n/a	0	0	0
667160	WORD	wordpools/wasnorm_wordpool_576.txt	LTP366	ltpFR2	20	4	CABIN	211	n/a	n/a	0	0	0
669886	WORD	wordpools/wasnorm_wordpool_576.txt	LTP366	ltpFR2	20	4	DINER	467	n/a	n/a	0	0	0
672678	WORD	wordpools/wasnorm_wordpool_576.txt	LTP366	ltpFR2	20	4	SERVANT	1271	n/a	n/a	0	0	0
675287	WORD	wordpools/wasnorm_wordpool_576.txt	LTP366	ltpFR2	20	4	UMPIRE	1535	n/a	n/a	0	0	0
677828	WORD	wordpools/wasnorm_wordpool_576.txt	LTP366	ltpFR2	20	4	RACKET	1155	n/a	n/a	0	0	0
680637	WORD	wordpools/wasnorm_wordpool_576.txt	LTP366	ltpFR2	20	4	ANTLER	29	n/a	n/a	0	0	0
683078	WORD	wordpools/wasnorm_wordpool_576.txt	LTP366	ltpFR2	20	4	ROD	1203	n/a	n/a	0	0	0
685854	WORD	wordpools/wasnorm_wordpool_576.txt	LTP366	ltpFR2	20	4	MONEY	908	n/a	n/a	0	0	0
688479	WORD	wordpools/wasnorm_wordpool_576.txt	LTP366	ltpFR2	20	4	ORANGE	980	n/a	n/a	0	0	0
691155	WORD	wordpools/wasnorm_wordpool_576.txt	LTP366	ltpFR2	20	4	DIVER	476	n/a	n/a	0	0	0
693897	WORD	wordpools/wasnorm_wordpool_576.txt	LTP366	ltpFR2	20	4	ITEM	746	n/a	n/a	0	0	0
696405	WORD	wordpools/wasnorm_wordpool_576.txt	LTP366	ltpFR2	20	4	BANJO	82	n/a	n/a	0	0	0
698980	WORD	wordpools/wasnorm_wordpool_576.txt	LTP366	ltpFR2	20	4	TREAT	1501	n/a	n/a	0	0	0
701655	WORD	wordpools/wasnorm_wordpool_576.txt	LTP366	ltpFR2	20	4	RAFT	1159	n/a	n/a	0	0	0
704180	WORD	wordpools/wasnorm_wordpool_576.txt	LTP366	ltpFR2	20	4	HOOK	715	n/a	n/a	0	0	0
706939	WORD	wordpools/wasnorm_wordpool_576.txt	LTP366	ltpFR2	20	4	EUROPE	541	n/a	n/a	0	0	0
709481	WORD	wordpools/wasnorm_wordpool_576.txt	LTP366	ltpFR2	20	4	RECORD	1176	n/a	n/a	0	0	0
712290	WORD	wordpools/wasnorm_wordpool_576.txt	LTP366	ltpFR2	20	4	EXPERT	543	n/a	n/a	0	0	0
715082	WORD	wordpools/wasnorm_wordpool_576.txt	LTP366	ltpFR2	20	4	ASIA	46	n/a	n/a	0	0	0
717741	WORD	wordpools/wasnorm_wordpool_576.txt	LTP366	ltpFR2	20	4	LEG	809	n/a	n/a	0	0	0
720450	WORD	wordpools/wasnorm_wordpool_576.txt	LTP366	ltpFR2	20	4	SHOULDER	1294	n/a	n/a	0	0	0
722055	START	n/a	LTP366	ltpFR2	20	n/a	n/a	n/a	7	n/a	n/a	n/a	n/a
722858	DISTRACTOR	n/a	LTP366	ltpFR2	20	4	n/a	n/a	n/a	n/a	0	0	0
722874	PROB	n/a	LTP366	ltpFR2	20	n/a	n/a	n/a	7	21	8	7	6
724312	PROB	n/a	LTP366	ltpFR2	20	n/a	n/a	n/a	7	9	4	4	1
725449	PROB	n/a	LTP366	ltpFR2	20	n/a	n/a	n/a	7	12	8	2	2
726486	PROB	n/a	LTP366	ltpFR2	20	n/a	n/a	n/a	7	19	9	7	3
727890	PROB	n/a	LTP366	ltpFR2	20	n/a	n/a	n/a	7	25	8	8	9
729663	PROB	n/a	LTP366	ltpFR2	20	n/a	n/a	n/a	7	15	2	6	7
730867	PROB	n/a	LTP366	ltpFR2	20	n/a	n/a	n/a	7	12	2	4	6
732071	PROB	n/a	LTP366	ltpFR2	20	n/a	n/a	n/a	7	19	6	6	7
733442	PROB	n/a	LTP366	ltpFR2	20	n/a	n/a	n/a	7	15	6	4	5
734478	PROB	n/a	LTP366	ltpFR2	20	n/a	n/a	n/a	7	15	4	7	4
735849	PROB	n/a	LTP366	ltpFR2	20	n/a	n/a	n/a	7	16	3	4	9
737137	PROB	n/a	LTP366	ltpFR2	20	n/a	n/a	n/a	7	18	2	8	2
738291	PROB	n/a	LTP366	ltpFR2	20	n/a	n/a	n/a	7	12	4	1	7
740246	PROB	n/a	LTP366	ltpFR2	20	n/a	n/a	n/a	7	8	1	6	1
741133	PROB	n/a	LTP366	ltpFR2	20	n/a	n/a	n/a	7	16	6	2	8
742639	PROB	n/a	LTP366	ltpFR2	20	n/a	n/a	n/a	7	10	2	7	1
743892	PROB	n/a	LTP366	ltpFR2	20	n/a	n/a	n/a	7	18	4	9	5
745024	STOP	n/a	LTP366	ltpFR2	20	n/a	n/a	n/a	7	n/a	n/a	n/a	n/a
747856	REC_START	n/a	LTP366	ltpFR2	20	4	n/a	n/a	n/a	n/a	0	0	0
752337	REC_WORD	wordpools/wasnorm_wordpool_576.txt	LTP366	ltpFR2	20	4	DIVER	476	n/a	n/a	0	0	0
752757	REC_WORD	wordpools/wasnorm_wordpool_576.txt	LTP366	ltpFR2	20	4	ORANGE	980	n/a	n/a	0	0	0
753715	REC_WORD	wordpools/wasnorm_wordpool_576.txt	LTP366	ltpFR2	20	4	MONEY	908	n/a	n/a	0	0	0
755152	REC_WORD	wordpools/wasnorm_wordpool_576.txt	LTP366	ltpFR2	20	4	ITEM	746	n/a	n/a	0	0	0
793507	REC_WORD	wordpools/wasnorm_wordpool_576.txt	LTP366	ltpFR2	20	4	SHIRT	1287	n/a	n/a	0	0	0
794081	REC_WORD	wordpools/wasnorm_wordpool_576.txt	LTP366	ltpFR2	20	4	LEG	809	n/a	n/a	0	0	0
794787	REC_WORD	wordpools/wasnorm_wordpool_576.txt	LTP366	ltpFR2	20	4	APE	31	n/a	n/a	0	0	0
795380	REC_WORD	wordpools/wasnorm_wordpool_576.txt	LTP366	ltpFR2	20	4	EUROPE	541	n/a	n/a	0	0	0
838298	DISTRACTOR	n/a	LTP366	ltpFR2	20	5	n/a	n/a	n/a	n/a	0	0	0
838298	START	n/a	LTP366	ltpFR2	20	n/a	n/a	n/a	8	n/a	n/a	n/a	n/a
838314	PROB	n/a	LTP366	ltpFR2	20	n/a	n/a	n/a	8	22	8	7	7
839986	PROB	n/a	LTP366	ltpFR2	20	n/a	n/a	n/a	8	20	7	9	4
842093	PROB	n/a	LTP366	ltpFR2	20	n/a	n/a	n/a	8	20	3	8	9
843431	PROB	n/a	LTP366	ltpFR2	20	n/a	n/a	n/a	8	16	6	6	4
844551	PROB	n/a	LTP366	ltpFR2	20	n/a	n/a	n/a	8	20	6	8	6
845989	PROB	n/a	LTP366	ltpFR2	20	n/a	n/a	n/a	8	6	1	2	3
846842	PROB	n/a	LTP366	ltpFR2	20	n/a	n/a	n/a	8	18	9	8	1
847879	PROB	n/a	LTP366	ltpFR2	20	n/a	n/a	n/a	8	19	9	3	7
849116	PROB	n/a	LTP366	ltpFR2	20	n/a	n/a	n/a	8	7	1	1	5
850185	PROB	n/a	LTP366	ltpFR2	20	n/a	n/a	n/a	8	20	4	9	7
851975	PROB	n/a	LTP366	ltpFR2	20	n/a	n/a	n/a	8	14	3	9	2
853581	PROB	n/a	LTP366	ltpFR2	20	n/a	n/a	n/a	8	15	6	1	8
854751	PROB	n/a	LTP366	ltpFR2	20	n/a	n/a	n/a	8	10	3	4	3
856523	PROB	n/a	LTP366	ltpFR2	20	n/a	n/a	n/a	8	11	3	7	1
857493	PROB	n/a	LTP366	ltpFR2	20	n/a	n/a	n/a	8	20	4	7	9
858848	PROB	n/a	LTP366	ltpFR2	20	n/a	n/a	n/a	8	11	2	5	4
860035	PROB	n/a	LTP366	ltpFR2	20	n/a	n/a	n/a	8	6	1	1	4
860835	STOP	n/a	LTP366	ltpFR2	20	n/a	n/a	n/a	8	n/a	n/a	n/a	n/a
863479	WORD	wordpools/wasnorm_wordpool_576.txt	LTP366	ltpFR2	20	5	CLOTHES	327	n/a	n/a	0	0	0
866204	WORD	wordpools/wasnorm_wordpool_576.txt	LTP366	ltpFR2	20	5	HAMPER	682	n/a	n/a	0	0	0
869014	WORD	wordpools/wasnorm_wordpool_576.txt	LTP366	ltpFR2	20	5	EAGLE	512	n/a	n/a	0	0	0
871589	WORD	wordpools/wasnorm_wordpool_576.txt	LTP366	ltpFR2	20	5	CLIMBER	323	n/a	n/a	0	0	0
874365	WORD	wordpools/wasnorm_wordpool_576.txt	LTP366	ltpFR2	20	5	GHETTO	633	n/a	n/a	0	0	0
877157	WORD	wordpools/wasnorm_wordpool_576.txt	LTP366	ltpFR2	20	5	FLUTE	585	n/a	n/a	0	0	0
879966	WORD	wordpools/wasnorm_wordpool_576.txt	LTP366	ltpFR2	20	5	GANGSTER	620	n/a	n/a	0	0	0
882725	WORD	wordpools/wasnorm_wordpool_576.txt	LTP366	ltpFR2	20	5	IGLOO	734	n/a	n/a	0	0	0
885484	WORD	wordpools/wasnorm_wordpool_576.txt	LTP366	ltpFR2	20	5	PIMPLE	1071	n/a	n/a	0	0	0
888159	WORD	wordpools/wasnorm_wordpool_576.txt	LTP366	ltpFR2	20	5	COSTUME	383	n/a	n/a	0	0	0
890918	WORD	wordpools/wasnorm_wordpool_576.txt	LTP366	ltpFR2	20	5	FREEZER	604	n/a	n/a	0	0	0
893711	WORD	wordpools/wasnorm_wordpool_576.txt	LTP366	ltpFR2	20	5	ROCKET	1202	n/a	n/a	0	0	0
896135	WORD	wordpools/wasnorm_wordpool_576.txt	LTP366	ltpFR2	20	5	SUMMIT	1405	n/a	n/a	0	0	0
898693	WORD	wordpools/wasnorm_wordpool_576.txt	LTP366	ltpFR2	20	5	LILY	821	n/a	n/a	0	0	0
901252	WORD	wordpools/wasnorm_wordpool_576.txt	LTP366	ltpFR2	20	5	HEDGE	699	n/a	n/a	0	0	0
904027	WORD	wordpools/wasnorm_wordpool_576.txt	LTP366	ltpFR2	20	5	SUNRISE	1407	n/a	n/a	0	0	0
906552	WORD	wordpools/wasnorm_wordpool_576.txt	LTP366	ltpFR2	20	5	SEAGULL	1261	n/a	n/a	0	0	0
909226	WORD	wordpools/wasnorm_wordpool_576.txt	LTP366	ltpFR2	20	5	STAR	1373	n/a	n/a	0	0	0
912003	WORD	wordpools/wasnorm_wordpool_576.txt	LTP366	ltpFR2	20	5	APRON	35	n/a	n/a	0	0	0
914695	WORD	wordpools/wasnorm_wordpool_576.txt	LTP366	ltpFR2	20	5	COUNTRY	388	n/a	n/a	0	0	0
917304	WORD	wordpools/wasnorm_wordpool_576.txt	LTP366	ltpFR2	20	5	MARKER	870	n/a	n/a	0	0	0
919929	WORD	wordpools/wasnorm_wordpool_576.txt	LTP366	ltpFR2	20	5	PREACHER	1119	n/a	n/a	0	0	0
922437	WORD	wordpools/wasnorm_wordpool_576.txt	LTP366	ltpFR2	20	5	HEADBAND	696	n/a	n/a	0	0	0
924895	WORD	wordpools/wasnorm_wordpool_576.txt	LTP366	ltpFR2	20	5	CHEST	295	n/a	n/a	0	0	0
926500	START	n/a	LTP366	ltpFR2	20	n/a	n/a	n/a	9	n/a	n/a	n/a	n/a
927532	DISTRACTOR	n/a	LTP366	ltpFR2	20	5	n/a	n/a	n/a	n/a	0	0	0
927537	PROB	n/a	LTP366	ltpFR2	20	n/a	n/a	n/a	9	13	4	6	3
928891	PROB	n/a	LTP366	ltpFR2	20	n/a	n/a	n/a	9	17	9	7	1
929928	PROB	n/a	LTP366	ltpFR2	20	n/a	n/a	n/a	9	20	9	8	3
931349	PROB	n/a	LTP366	ltpFR2	20	n/a	n/a	n/a	9	16	9	2	5
932469	PROB	n/a	LTP366	ltpFR2	20	n/a	n/a	n/a	9	19	2	8	9
933590	PROB	n/a	LTP366	ltpFR2	20	n/a	n/a	n/a	9	9	5	2	2
934576	PROB	n/a	LTP366	ltpFR2	20	n/a	n/a	n/a	9	14	5	5	4
935696	PROB	n/a	LTP366	ltpFR2	20	n/a	n/a	n/a	9	16	7	3	6
936716	PROB	n/a	LTP366	ltpFR2	20	n/a	n/a	n/a	9	15	9	4	2
938187	PROB	n/a	LTP366	ltpFR2	20	n/a	n/a	n/a	9	20	9	6	5
939492	PROB	n/a	LTP366	ltpFR2	20	n/a	n/a	n/a	9	6	2	1	3
940462	PROB	n/a	LTP366	ltpFR2	20	n/a	n/a	n/a	9	15	4	4	7
941699	PROB	n/a	LTP366	ltpFR2	20	n/a	n/a	n/a	9	17	4	9	4
943237	PROB	n/a	LTP366	ltpFR2	20	n/a	n/a	n/a	9	20	7	4	9
944592	PROB	n/a	LTP366	ltpFR2	20	n/a	n/a	n/a	9	10	4	3	4
946381	PROB	n/a	LTP366	ltpFR2	20	n/a	n/a	n/a	9	21	5	7	9
950326	STOP	n/a	LTP366	ltpFR2	20	n/a	n/a	n/a	9	n/a	n/a	n/a	n/a
952334	REC_START	n/a	LTP366	ltpFR2	20	5	n/a	n/a	n/a	n/a	0	0	0
953322	REC_WORD_VV	wordpools/wasnorm_wordpool_576.txt	LTP366	ltpFR2	20	5	<>	-1	n/a	n/a	0	0	0
954707	REC_WORD	wordpools/wasnorm_wordpool_576.txt	LTP366	ltpFR2	20	5	COUNTRY	388	n/a	n/a	0	0	0
955871	REC_WORD	wordpools/wasnorm_wordpool_576.txt	LTP366	ltpFR2	20	5	MARKER	870	n/a	n/a	0	0	0
965364	REC_WORD	wordpools/wasnorm_wordpool_576.txt	LTP366	ltpFR2	20	5	HEADBAND	696	n/a	n/a	0	0	0
966970	REC_WORD	wordpools/wasnorm_wordpool_576.txt	LTP366	ltpFR2	20	5	CHEST	295	n/a	n/a	0	0	0
976396	REC_WORD	wordpools/wasnorm_wordpool_576.txt	LTP366	ltpFR2	20	5	SEAGULL	1261	n/a	n/a	0	0	0
977139	REC_WORD	wordpools/wasnorm_wordpool_576.txt	LTP366	ltpFR2	20	5	EAGLE	512	n/a	n/a	0	0	0
978255	REC_WORD	wordpools/wasnorm_wordpool_576.txt	LTP366	ltpFR2	20	5	CLIMBER	323	n/a	n/a	0	0	0
981093	REC_WORD	wordpools/wasnorm_wordpool_576.txt	LTP366	ltpFR2	20	5	CLOTHES	327	n/a	n/a	0	0	0
981840	REC_WORD	wordpools/wasnorm_wordpool_576.txt	LTP366	ltpFR2	20	5	HAMPER	682	n/a	n/a	0	0	0
990518	REC_WORD	wordpools/wasnorm_wordpool_576.txt	LTP366	ltpFR2	20	5	FLUTE	585	n/a	n/a	0	0	0
991417	REC_WORD	wordpools/wasnorm_wordpool_576.txt	LTP366	ltpFR2	20	5	GHETTO	633	n/a	n/a	0	0	0
991903	REC_WORD	wordpools/wasnorm_wordpool_576.txt	LTP366	ltpFR2	20	5	GANGSTER	620	n/a	n/a	0	0	0
1004136	REC_WORD	wordpools/wasnorm_wordpool_576.txt	LTP366	ltpFR2	20	5	LILY	821	n/a	n/a	0	0	0
1042777	DISTRACTOR	n/a	LTP366	ltpFR2	20	6	n/a	n/a	n/a	n/a	0	0	0
1042777	START	n/a	LTP366	ltpFR2	20	n/a	n/a	n/a	10	n/a	n/a	n/a	n/a
1042793	PROB	n/a	LTP366	ltpFR2	20	n/a	n/a	n/a	10	16	8	3	5
1044230	PROB	n/a	LTP366	ltpFR2	20	n/a	n/a	n/a	10	14	9	2	3
1045318	PROB	n/a	LTP366	ltpFR2	20	n/a	n/a	n/a	10	13	4	1	8
1046371	PROB	n/a	LTP366	ltpFR2	20	n/a	n/a	n/a	10	24	9	9	6
1047475	PROB	n/a	LTP366	ltpFR2	20	n/a	n/a	n/a	10	12	7	3	2
1048428	PROB	n/a	LTP366	ltpFR2	20	n/a	n/a	n/a	10	20	9	3	8
1049766	PROB	n/a	LTP366	ltpFR2	20	n/a	n/a	n/a	10	21	7	7	7
1051070	PROB	n/a	LTP366	ltpFR2	20	n/a	n/a	n/a	10	15	6	2	7
1052558	PROB	n/a	LTP366	ltpFR2	20	n/a	n/a	n/a	10	11	2	4	5
1053929	PROB	n/a	LTP366	ltpFR2	20	n/a	n/a	n/a	10	9	7	1	1
1054966	PROB	n/a	LTP366	ltpFR2	20	n/a	n/a	n/a	10	13	3	7	3
1056722	PROB	n/a	LTP366	ltpFR2	20	n/a	n/a	n/a	10	16	6	1	9
1057809	PROB	n/a	LTP366	ltpFR2	20	n/a	n/a	n/a	10	11	5	5	1
1058778	PROB	n/a	LTP366	ltpFR2	20	n/a	n/a	n/a	10	12	5	6	1
1059882	PROB	n/a	LTP366	ltpFR2	20	n/a	n/a	n/a	10	16	8	3	5
1061286	PROB	n/a	LTP366	ltpFR2	20	n/a	n/a	n/a	10	14	4	2	8
1063410	PROB	n/a	LTP366	ltpFR2	20	n/a	n/a	n/a	10	9	7	1	1
1064346	PROB	n/a	LTP366	ltpFR2	20	n/a	n/a	n/a	10	8	4	1	3
1065305	STOP	n/a	LTP366	ltpFR2	20	n/a	n/a	n/a	10	n/a	n/a	n/a	n/a
1067808	WORD	wordpools/wasnorm_wordpool_576.txt	LTP366	ltpFR2	20	6	BRANDY	169	n/a	n/a	0	0	0
1070516	WORD	wordpools/wasnorm_wordpool_576.txt	LTP366	ltpFR2	20	6	CARROT	249	n/a	n/a	0	0	0
1072958	WORD	wordpools/wasnorm_wordpool_576.txt	LTP366	ltpFR2	20	6	COIN	343	n/a	n/a	0	0	0
1075683	WORD	wordpools/wasnorm_wordpool_576.txt	LTP366	ltpFR2	20	6	PACKAGE	997	n/a	n/a	0	0	0
1078292	WORD	wordpools/wasnorm_wordpool_576.txt	LTP366	ltpFR2	20	6	TWIG	1527	n/a	n/a	0	0	0
1080783	WORD	wordpools/wasnorm_wordpool_576.txt	LTP366	ltpFR2	20	6	BUBBLE	183	n/a	n/a	0	0	0
1083475	WORD	wordpools/wasnorm_wordpool_576.txt	LTP366	ltpFR2	20	6	BATHTUB	100	n/a	n/a	0	0	0
1086134	WORD	wordpools/wasnorm_wordpool_576.txt	LTP366	ltpFR2	20	6	RABBIT	1152	n/a	n/a	0	0	0
1088742	WORD	wordpools/wasnorm_wordpool_576.txt	LTP366	ltpFR2	20	6	TUNNEL	1519	n/a	n/a	0	0	0
1091501	WORD	wordpools/wasnorm_wordpool_576.txt	LTP366	ltpFR2	20	6	GRAVE	658	n/a	n/a	0	0	0
1094126	WORD	wordpools/wasnorm_wordpool_576.txt	LTP366	ltpFR2	20	6	BASEMENT	94	n/a	n/a	0	0	0
1096835	WORD	wordpools/wasnorm_wordpool_576.txt	LTP366	ltpFR2	20	6	CROSS	413	n/a	n/a	0	0	0
1099293	WORD	wordpools/wasnorm_wordpool_576.txt	LTP366	ltpFR2	20	6	GRAVEL	659	n/a	n/a	0	0	0
1101801	WORD	wordpools/wasnorm_wordpool_576.txt	LTP366	ltpFR2	20	6	HAWK	692	n/a	n/a	0	0	0
1104393	WORD	wordpools/wasnorm_wordpool_576.txt	LTP366	ltpFR2	20	6	LAGOON	795	n/a	n/a	0	0	0
1106918	WORD	wordpools/wasnorm_wordpool_576.txt	LTP366	ltpFR2	20	6	TORTOISE	1486	n/a	n/a	0	0	0
1109426	WORD	wordpools/wasnorm_wordpool_576.txt	LTP366	ltpFR2	20	6	TURTLE	1522	n/a	n/a	0	0	0
1112101	WORD	wordpools/wasnorm_wordpool_576.txt	LTP366	ltpFR2	20	6	STAMP	1370	n/a	n/a	0	0	0
1114843	WORD	wordpools/wasnorm_wordpool_576.txt	LTP366	ltpFR2	20	6	CAPTIVE	240	n/a	n/a	0	0	0
1117518	WORD	wordpools/wasnorm_wordpool_576.txt	LTP366	ltpFR2	20	6	NECKLACE	940	n/a	n/a	0	0	0
1120077	WORD	wordpools/wasnorm_wordpool_576.txt	LTP366	ltpFR2	20	6	APPLE	33	n/a	n/a	0	0	0
1122735	WORD	wordpools/wasnorm_wordpool_576.txt	LTP366	ltpFR2	20	6	KNAPSACK	783	n/a	n/a	0	0	0
1125545	WORD	wordpools/wasnorm_wordpool_576.txt	LTP366	ltpFR2	20	6	AGENT	10	n/a	n/a	0	0	0
1128086	WORD	wordpools/wasnorm_wordpool_576.txt	LTP366	ltpFR2	20	6	GIRL	637	n/a	n/a	0	0	0
1129692	START	n/a	LTP366	ltpFR2	20	n/a	n/a	n/a	11	n/a	n/a	n/a	n/a
1130783	DISTRACTOR	n/a	LTP366	ltpFR2	20	6	n/a	n/a	n/a	n/a	0	0	0
1130795	PROB	n/a	LTP366	ltpFR2	20	n/a	n/a	n/a	11	13	2	4	7
1132267	PROB	n/a	LTP366	ltpFR2	20	n/a	n/a	n/a	11	14	3	6	5
1133537	PROB	n/a	LTP366	ltpFR2	20	n/a	n/a	n/a	11	13	2	4	7
1134657	PROB	n/a	LTP366	ltpFR2	20	n/a	n/a	n/a	11	18	4	7	7
1136062	PROB	n/a	LTP366	ltpFR2	20	n/a	n/a	n/a	11	7	3	3	1
1137099	PROB	n/a	LTP366	ltpFR2	20	n/a	n/a	n/a	11	8	1	6	1
1137968	PROB	n/a	LTP366	ltpFR2	20	n/a	n/a	n/a	11	21	4	8	9
1139924	PROB	n/a	LTP366	ltpFR2	20	n/a	n/a	n/a	11	19	4	7	8
1141162	PROB	n/a	LTP366	ltpFR2	20	n/a	n/a	n/a	11	16	8	7	1
1142884	PROB	n/a	LTP366	ltpFR2	20	n/a	n/a	n/a	11	13	8	4	1
1144322	PROB	n/a	LTP366	ltpFR2	20	n/a	n/a	n/a	11	10	4	4	2
1145710	PROB	n/a	LTP366	ltpFR2	20	n/a	n/a	n/a	11	11	2	4	5
1146897	PROB	n/a	LTP366	ltpFR2	20	n/a	n/a	n/a	11	21	7	9	5
1148101	PROB	n/a	LTP366	ltpFR2	20	n/a	n/a	n/a	11	16	5	6	5
1149220	PROB	n/a	LTP366	ltpFR2	20	n/a	n/a	n/a	11	18	9	5	4
1150442	PROB	n/a	LTP366	ltpFR2	20	n/a	n/a	n/a	11	10	7	1	2
1151545	PROB	n/a	LTP366	ltpFR2	20	n/a	n/a	n/a	11	23	9	5	9
1153060	STOP	n/a	LTP366	ltpFR2	20	n/a	n/a	n/a	11	n/a	n/a	n/a	n/a
1155609	REC_START	n/a	LTP366	ltpFR2	20	6	n/a	n/a	n/a	n/a	0	0	0
1156946	REC_WORD_VV	wordpools/wasnorm_wordpool_576.txt	LTP366	ltpFR2	20	6	<>	-1	n/a	n/a	0	0	0
1157513	REC_WORD	wordpools/wasnorm_wordpool_576.txt	LTP366	ltpFR2	20	6	GIRL	637	n/a	n/a	0	0	0
1159138	REC_WORD	wordpools/wasnorm_wordpool_576.txt	LTP366	ltpFR2	20	6	TORTOISE	1486	n/a	n/a	0	0	0
1159878	REC_WORD	wordpools/wasnorm_wordpool_576.txt	LTP366	ltpFR2	20	6	TURTLE	1522	n/a	n/a	0	0	0
1160984	REC_WORD	wordpools/wasnorm_wordpool_576.txt	LTP366	ltpFR2	20	6	RABBIT	1152	n/a	n/a	0	0	0
1162871	REC_WORD	wordpools/wasnorm_wordpool_576.txt	LTP366	ltpFR2	20	6	CAPTIVE	240	n/a	n/a	0	0	0
1163631	REC_WORD	wordpools/wasnorm_wordpool_576.txt	LTP366	ltpFR2	20	6	STAMP	1370	n/a	n/a	0	0	0
1170621	REC_WORD	wordpools/wasnorm_wordpool_576.txt	LTP366	ltpFR2	20	6	GRAVE	658	n/a	n/a	0	0	0
1171594	REC_WORD	wordpools/wasnorm_wordpool_576.txt	LTP366	ltpFR2	20	6	SHOVEL	1295	n/a	n/a	0	0	0
1172470	REC_WORD	wordpools/wasnorm_wordpool_576.txt	LTP366	ltpFR2	20	6	CROSS	413	n/a	n/a	0	0	0
1174296	REC_WORD	wordpools/wasnorm_wordpool_576.txt	LTP366	ltpFR2	20	6	TUNNEL	1519	n/a	n/a	0	0	0
1192924	REC_WORD	wordpools/wasnorm_wordpool_576.txt	LTP366	ltpFR2	20	6	TWIG	1527	n/a	n/a	0	0	0
1193731	REC_WORD	wordpools/wasnorm_wordpool_576.txt	LTP366	ltpFR2	20	6	BUBBLE	183	n/a	n/a	0	0	0
1194522	REC_WORD	wordpools/wasnorm_wordpool_576.txt	LTP366	ltpFR2	20	6	BATHTUB	100	n/a	n/a	0	0	0
1196998	REC_WORD	wordpools/wasnorm_wordpool_576.txt	LTP366	ltpFR2	20	6	PACKAGE	997	n/a	n/a	0	0	0
1197852	REC_WORD	wordpools/wasnorm_wordpool_576.txt	LTP366	ltpFR2	20	6	COIN	343	n/a	n/a	0	0	0
1246068	WORD	wordpools/wasnorm_wordpool_576.txt	LTP366	ltpFR2	20	7	LUNCH	849	n/a	n/a	0	0	0
1248610	WORD	wordpools/wasnorm_wordpool_576.txt	LTP366	ltpFR2	20	7	JAPAN	749	n/a	n/a	0	0	0
1251302	WORD	wordpools/wasnorm_wordpool_576.txt	LTP366	ltpFR2	20	7	LAPEL	800	n/a	n/a	0	0	0
1253994	WORD	wordpools/wasnorm_wordpool_576.txt	LTP366	ltpFR2	20	7	COOK	372	n/a	n/a	0	0	0
1256519	WORD	wordpools/wasnorm_wordpool_576.txt	LTP366	ltpFR2	20	7	MOTEL	919	n/a	n/a	0	0	0
1259177	WORD	wordpools/wasnorm_wordpool_576.txt	LTP366	ltpFR2	20	7	SALMON	1227	n/a	n/a	0	0	0
1261886	WORD	wordpools/wasnorm_wordpool_576.txt	LTP366	ltpFR2	20	7	SCALLOP	1242	n/a	n/a	0	0	0
1264494	WORD	wordpools/wasnorm_wordpool_576.txt	LTP366	ltpFR2	20	7	PIANO	1057	n/a	n/a	0	0	0
1266986	WORD	wordpools/wasnorm_wordpool_576.txt	LTP366	ltpFR2	20	7	VIRUS	1572	n/a	n/a	0	0	0
1269527	WORD	wordpools/wasnorm_wordpool_576.txt	LTP366	ltpFR2	20	7	SCARF	1246	n/a	n/a	0	0	0
1271969	WORD	wordpools/wasnorm_wordpool_576.txt	LTP366	ltpFR2	20	7	VENUS	1557	n/a	n/a	0	0	0
1274677	WORD	wordpools/wasnorm_wordpool_576.txt	LTP366	ltpFR2	20	7	SPOUSE	1358	n/a	n/a	0	0	0
1277386	WORD	wordpools/wasnorm_wordpool_576.txt	LTP366	ltpFR2	20	7	BADGE	68	n/a	n/a	0	0	0
1280179	WORD	wordpools/wasnorm_wordpool_576.txt	LTP366	ltpFR2	20	7	PATROL	1027	n/a	n/a	0	0	0
1282954	WORD	wordpools/wasnorm_wordpool_576.txt	LTP366	ltpFR2	20	7	HUSBAND	728	n/a	n/a	0	0	0
1285563	WORD	wordpools/wasnorm_wordpool_576.txt	LTP366	ltpFR2	20	7	LODGE	839	n/a	n/a	0	0	0
1287987	WORD	wordpools/wasnorm_wordpool_576.txt	LTP366	ltpFR2	20	7	CATCHER	258	n/a	n/a	0	0	0
1290746	WORD	wordpools/wasnorm_wordpool_576.txt	LTP366	ltpFR2	20	7	SPIDER	1351	n/a	n/a	0	0	0
1293371	WORD	wordpools/wasnorm_wordpool_576.txt	LTP366	ltpFR2	20	7	WASP	1593	n/a	n/a	0	0	0
1295930	WORD	wordpools/wasnorm_wordpool_576.txt	LTP366	ltpFR2	20	7	CARRIAGE	248	n/a	n/a	0	0	0
1298354	WORD	wordpools/wasnorm_wordpool_576.txt	LTP366	ltpFR2	20	7	BUGGY	188	n/a	n/a	0	0	0
1301130	WORD	wordpools/wasnorm_wordpool_576.txt	LTP366	ltpFR2	20	7	DASHBOARD	441	n/a	n/a	0	0	0
1303721	WORD	wordpools/wasnorm_wordpool_576.txt	LTP366	ltpFR2	20	7	HOUND	724	n/a	n/a	0	0	0
1306280	WORD	wordpools/wasnorm_wordpool_576.txt	LTP366	ltpFR2	20	7	BLOCKADE	137	n/a	n/a	0	0	0
1307885	START	n/a	LTP366	ltpFR2	20	n/a	n/a	n/a	12	n/a	n/a	n/a	n/a
1309066	DISTRACTOR	n/a	LTP366	ltpFR2	20	7	n/a	n/a	n/a	n/a	0	0	0
1309072	PROB	n/a	LTP366	ltpFR2	20	n/a	n/a	n/a	12	10	8	1	1
1310443	PROB	n/a	LTP366	ltpFR2	20	n/a	n/a	n/a	12	14	1	7	6
1311513	PROB	n/a	LTP366	ltpFR2	20	n/a	n/a	n/a	12	25	7	9	9
1312918	PROB	n/a	LTP366	ltpFR2	20	n/a	n/a	n/a	12	14	6	3	5
1314088	PROB	n/a	LTP366	ltpFR2	20	n/a	n/a	n/a	12	19	4	6	9
1315125	PROB	n/a	LTP366	ltpFR2	20	n/a	n/a	n/a	12	15	7	3	5
1316178	PROB	n/a	LTP366	ltpFR2	20	n/a	n/a	n/a	12	17	8	5	4
1317717	PROB	n/a	LTP366	ltpFR2	20	n/a	n/a	n/a	12	21	9	9	3
1318971	PROB	n/a	LTP366	ltpFR2	20	n/a	n/a	n/a	12	12	7	1	4
1320058	PROB	n/a	LTP366	ltpFR2	20	n/a	n/a	n/a	12	12	3	2	7
1321210	PROB	n/a	LTP366	ltpFR2	20	n/a	n/a	n/a	12	17	6	4	7
1322348	PROB	n/a	LTP366	ltpFR2	20	n/a	n/a	n/a	12	22	9	7	6
1323887	PROB	n/a	LTP366	ltpFR2	20	n/a	n/a	n/a	12	13	1	3	9
1324873	PROB	n/a	LTP366	ltpFR2	20	n/a	n/a	n/a	12	21	7	8	6
1326094	PROB	n/a	LTP366	ltpFR2	20	n/a	n/a	n/a	12	11	3	2	6
1327632	PROB	n/a	LTP366	ltpFR2	20	n/a	n/a	n/a	12	11	6	2	3
1328953	PROB	n/a	LTP366	ltpFR2	20	n/a	n/a	n/a	12	10	2	2	6
1330274	PROB	n/a	LTP366	ltpFR2	20	n/a	n/a	n/a	12	16	8	4	4
1331593	STOP	n/a	LTP366	ltpFR2	20	n/a	n/a	n/a	12	n/a	n/a	n/a	n/a
1333736	REC_START	n/a	LTP366	ltpFR2	20	7	n/a	n/a	n/a	n/a	0	0	0
1334251	REC_WORD	wordpools/wasnorm_wordpool_576.txt	LTP366	ltpFR2	20	7	HOUND	724	n/a	n/a	0	0	0
1335067	REC_WORD	wordpools/wasnorm_wordpool_576.txt	LTP366	ltpFR2	20	7	BUGGY	188	n/a	n/a	0	0	0
1335940	REC_WORD	wordpools/wasnorm_wordpool_576.txt	LTP366	ltpFR2	20	7	HUSBAND	728	n/a	n/a	0	0	0
1336751	REC_WORD	wordpools/wasnorm_wordpool_576.txt	LTP366	ltpFR2	20	7	PATROL	1027	n/a	n/a	0	0	0
1338613	REC_WORD	wordpools/wasnorm_wordpool_576.txt	LTP366	ltpFR2	20	7	BLOCKADE	137	n/a	n/a	0	0	0
1340658	REC_WORD	wordpools/wasnorm_wordpool_576.txt	LTP366	ltpFR2	20	7	LAPEL	800	n/a	n/a	0	0	0
1375737	REC_WORD	wordpools/wasnorm_wordpool_576.txt	LTP366	ltpFR2	20	7	NECKLACE	940	n/a	n/a	0	0	0
1424211	WORD	wordpools/wasnorm_wordpool_576.txt	LTP366	ltpFR2	20	8	CLOUD	328	n/a	n/a	0	0	0
1426904	WORD	wordpools/wasnorm_wordpool_576.txt	LTP366	ltpFR2	20	8	GIFT	635	n/a	n/a	0	0	0
1429663	WORD	wordpools/wasnorm_wordpool_576.txt	LTP366	ltpFR2	20	8	BELLY	119	n/a	n/a	0	0	0
1432304	WORD	wordpools/wasnorm_wordpool_576.txt	LTP366	ltpFR2	20	8	GREASE	660	n/a	n/a	0	0	0
1435047	WORD	wordpools/wasnorm_wordpool_576.txt	LTP366	ltpFR2	20	8	ORCHID	982	n/a	n/a	0	0	0
1437856	WORD	wordpools/wasnorm_wordpool_576.txt	LTP366	ltpFR2	20	8	PORTRAIT	1111	n/a	n/a	0	0	0
1440481	WORD	wordpools/wasnorm_wordpool_576.txt	LTP366	ltpFR2	20	8	MACHINE	852	n/a	n/a	0	0	0
1443239	WORD	wordpools/wasnorm_wordpool_576.txt	LTP366	ltpFR2	20	8	THRONE	1461	n/a	n/a	0	0	0
1445965	WORD	wordpools/wasnorm_wordpool_576.txt	LTP366	ltpFR2	20	8	MISTER	901	n/a	n/a	0	0	0
1448591	WORD	wordpools/wasnorm_wordpool_576.txt	LTP366	ltpFR2	20	8	MATCH	878	n/a	n/a	0	0	0
1451115	WORD	wordpools/wasnorm_wordpool_576.txt	LTP366	ltpFR2	20	8	FIREMAN	569	n/a	n/a	0	0	0
1453841	WORD	wordpools/wasnorm_wordpool_576.txt	LTP366	ltpFR2	20	8	STOMACH	1384	n/a	n/a	0	0	0
1456399	WORD	wordpools/wasnorm_wordpool_576.txt	LTP366	ltpFR2	20	8	EMPIRE	530	n/a	n/a	0	0	0
1459175	WORD	wordpools/wasnorm_wordpool_576.txt	LTP366	ltpFR2	20	8	DONKEY	484	n/a	n/a	0	0	0
1461884	WORD	wordpools/wasnorm_wordpool_576.txt	LTP366	ltpFR2	20	8	BUG	187	n/a	n/a	0	0	0
1464509	WORD	wordpools/wasnorm_wordpool_576.txt	LTP366	ltpFR2	20	8	COLONEL	348	n/a	n/a	0	0	0
1467000	WORD	wordpools/wasnorm_wordpool_576.txt	LTP366	ltpFR2	20	8	SPOON	1357	n/a	n/a	0	0	0
1469458	WORD	wordpools/wasnorm_wordpool_576.txt	LTP366	ltpFR2	20	8	DRUG	501	n/a	n/a	0	0	0
1472133	WORD	wordpools/wasnorm_wordpool_576.txt	LTP366	ltpFR2	20	8	SIDEWALK	1303	n/a	n/a	0	0	0
1474725	WORD	wordpools/wasnorm_wordpool_576.txt	LTP366	ltpFR2	20	8	BOX	159	n/a	n/a	0	0	0
1477518	WORD	wordpools/wasnorm_wordpool_576.txt	LTP366	ltpFR2	20	8	DOUGHNUT	490	n/a	n/a	0	0	0
1480225	WORD	wordpools/wasnorm_wordpool_576.txt	LTP366	ltpFR2	20	8	TRENCH	1503	n/a	n/a	0	0	0
1482701	WORD	wordpools/wasnorm_wordpool_576.txt	LTP366	ltpFR2	20	8	TURKEY	1520	n/a	n/a	0	0	0
1485159	WORD	wordpools/wasnorm_wordpool_576.txt	LTP366	ltpFR2	20	8	DANDRUFF	439	n/a	n/a	0	0	0
1486764	START	n/a	LTP366	ltpFR2	20	n/a	n/a	n/a	13	n/a	n/a	n/a	n/a
1487778	DISTRACTOR	n/a	LTP366	ltpFR2	20	8	n/a	n/a	n/a	n/a	0	0	0
1487784	PROB	n/a	LTP366	ltpFR2	20	n/a	n/a	n/a	13	26	9	8	9
1489373	PROB	n/a	LTP366	ltpFR2	20	n/a	n/a	n/a	13	18	9	3	6
1490677	PROB	n/a	LTP366	ltpFR2	20	n/a	n/a	n/a	13	24	8	7	9
1491864	PROB	n/a	LTP366	ltpFR2	20	n/a	n/a	n/a	13	13	8	1	4
1493001	PROB	n/a	LTP366	ltpFR2	20	n/a	n/a	n/a	13	17	2	9	6
1494690	PROB	n/a	LTP366	ltpFR2	20	n/a	n/a	n/a	13	10	1	8	1
1495793	PROB	n/a	LTP366	ltpFR2	20	n/a	n/a	n/a	13	10	1	1	8
1496763	PROB	n/a	LTP366	ltpFR2	20	n/a	n/a	n/a	13	16	2	6	8
1497900	PROB	n/a	LTP366	ltpFR2	20	n/a	n/a	n/a	13	13	2	9	2
1500190	PROB	n/a	LTP366	ltpFR2	20	n/a	n/a	n/a	13	21	8	4	9
1501545	PROB	n/a	LTP366	ltpFR2	20	n/a	n/a	n/a	13	17	2	7	8
1503853	PROB	n/a	LTP366	ltpFR2	20	n/a	n/a	n/a	13	16	8	7	1
1505491	PROB	n/a	LTP366	ltpFR2	20	n/a	n/a	n/a	13	13	1	9	3
1506529	PROB	n/a	LTP366	ltpFR2	20	n/a	n/a	n/a	13	17	3	6	8
1507765	PROB	n/a	LTP366	ltpFR2	20	n/a	n/a	n/a	13	11	3	5	3
1509518	STOP	n/a	LTP366	ltpFR2	20	n/a	n/a	n/a	13	n/a	n/a	n/a	n/a
1512548	REC_START	n/a	LTP366	ltpFR2	20	8	n/a	n/a	n/a	n/a	0	0	0
1513470	REC_WORD	wordpools/wasnorm_wordpool_576.txt	LTP366	ltpFR2	20	8	FIREMAN	569	n/a	n/a	0	0	0
1514728	REC_WORD	wordpools/wasnorm_wordpool_576.txt	LTP366	ltpFR2	20	8	STOMACH	1384	n/a	n/a	0	0	0
1516363	REC_WORD	wordpools/wasnorm_wordpool_576.txt	LTP366	ltpFR2	20	8	BELLY	119	n/a	n/a	0	0	0
1517150	REC_WORD_VV	wordpools/wasnorm_wordpool_576.txt	LTP366	ltpFR2	20	8	<>	-1	n/a	n/a	0	0	0
1517438	REC_WORD_VV	wordpools/wasnorm_wordpool_576.txt	LTP366	ltpFR2	20	8	<>	-1	n/a	n/a	0	0	0
1517696	REC_WORD	wordpools/wasnorm_wordpool_576.txt	LTP366	ltpFR2	20	8	EMPIRE	530	n/a	n/a	0	0	0
1534941	REC_WORD	wordpools/wasnorm_wordpool_576.txt	LTP366	ltpFR2	20	8	CATCHER	258	n/a	n/a	0	0	0
1555760	REC_WORD	wordpools/wasnorm_wordpool_576.txt	LTP366	ltpFR2	20	8	WARDROBE	1587	n/a	n/a	0	0	0
1568938	REC_WORD_VV	wordpools/wasnorm_wordpool_576.txt	LTP366	ltpFR2	20	8	<>	-1	n/a	n/a	0	0	0
1574389	REC_WORD	wordpools/wasnorm_wordpool_576.txt	LTP366	ltpFR2	20	8	TURKEY	1520	n/a	n/a	0	0	0
1589079	REST_REWET	n/a	LTP366	ltpFR2	20	8	n/a	n/a	n/a	n/a	0	0	0
1817686	DISTRACTOR	n/a	LTP366	ltpFR2	20	9	n/a	n/a	n/a	n/a	0	0	0
1817686	START	n/a	LTP366	ltpFR2	20	n/a	n/a	n/a	14	n/a	n/a	n/a	n/a
1817702	PROB	n/a	LTP366	ltpFR2	20	n/a	n/a	n/a	14	10	4	1	5
1819023	PROB	n/a	LTP366	ltpFR2	20	n/a	n/a	n/a	14	16	4	4	8
1820261	PROB	n/a	LTP366	ltpFR2	20	n/a	n/a	n/a	14	6	3	2	1
1821213	PROB	n/a	LTP366	ltpFR2	20	n/a	n/a	n/a	14	20	7	4	9
1823321	PROB	n/a	LTP366	ltpFR2	20	n/a	n/a	n/a	14	24	9	9	6
1824458	PROB	n/a	LTP366	ltpFR2	20	n/a	n/a	n/a	14	11	3	2	6
1826849	PROB	n/a	LTP366	ltpFR2	20	n/a	n/a	n/a	14	9	7	1	1
1827718	PROB	n/a	LTP366	ltpFR2	20	n/a	n/a	n/a	14	7	1	4	2
1828788	PROB	n/a	LTP366	ltpFR2	20	n/a	n/a	n/a	14	15	5	6	4
1829992	PROB	n/a	LTP366	ltpFR2	20	n/a	n/a	n/a	14	14	3	9	2
1831815	PROB	n/a	LTP366	ltpFR2	20	n/a	n/a	n/a	14	15	6	4	5
1833052	PROB	n/a	LTP366	ltpFR2	20	n/a	n/a	n/a	14	17	9	6	2
1834674	PROB	n/a	LTP366	ltpFR2	20	n/a	n/a	n/a	14	16	7	3	6
1836346	PROB	n/a	LTP366	ltpFR2	20	n/a	n/a	n/a	14	10	2	2	6
1837583	PROB	n/a	LTP366	ltpFR2	20	n/a	n/a	n/a	14	16	8	6	2
1838921	PROB	n/a	LTP366	ltpFR2	20	n/a	n/a	n/a	14	16	5	8	3
1840344	STOP	n/a	LTP366	ltpFR2	20	n/a	n/a	n/a	14	n/a	n/a	n/a	n/a
1842901	WORD	wordpools/wasnorm_wordpool_576.txt	LTP366	ltpFR2	20	9	BLOUSE	139	n/a	n/a	0	0	0
1845359	WORD	wordpools/wasnorm_wordpool_576.txt	LTP366	ltpFR2	20	9	CONVICT	371	n/a	n/a	0	0	0
1847816	WORD	wordpools/wasnorm_wordpool_576.txt	LTP366	ltpFR2	20	9	FLIPPER	580	n/a	n/a	0	0	0
1850375	WORD	wordpools/wasnorm_wordpool_576.txt	LTP366	ltpFR2	20	9	LIPSTICK	829	n/a	n/a	0	0	0
1852799	WORD	wordpools/wasnorm_wordpool_576.txt	LTP366	ltpFR2	20	9	JEANS	752	n/a	n/a	0	0	0
1855291	WORD	wordpools/wasnorm_wordpool_576.txt	LTP366	ltpFR2	20	9	WORLD	1622	n/a	n/a	0	0	0
1857782	WORD	wordpools/wasnorm_wordpool_576.txt	LTP366	ltpFR2	20	9	PUDDING	1139	n/a	n/a	0	0	0
1860257	WORD	wordpools/wasnorm_wordpool_576.txt	LTP366	ltpFR2	20	9	CABBAGE	210	n/a	n/a	0	0	0
1862932	WORD	wordpools/wasnorm_wordpool_576.txt	LTP366	ltpFR2	20	9	PLIERS	1089	n/a	n/a	0	0	0
1865440	WORD	wordpools/wasnorm_wordpool_576.txt	LTP366	ltpFR2	20	9	PARROT	1015	n/a	n/a	0	0	0
1867982	WORD	wordpools/wasnorm_wordpool_576.txt	LTP366	ltpFR2	20	9	STALLION	1369	n/a	n/a	0	0	0
1870774	WORD	wordpools/wasnorm_wordpool_576.txt	LTP366	ltpFR2	20	9	BARLEY	88	n/a	n/a	0	0	0
1873583	WORD	wordpools/wasnorm_wordpool_576.txt	LTP366	ltpFR2	20	9	FARMER	553	n/a	n/a	0	0	0
1876058	WORD	wordpools/wasnorm_wordpool_576.txt	LTP366	ltpFR2	20	9	SNACK	1331	n/a	n/a	0	0	0
1878834	WORD	wordpools/wasnorm_wordpool_576.txt	LTP366	ltpFR2	20	9	ZEBRA	1635	n/a	n/a	0	0	0
1881342	WORD	wordpools/wasnorm_wordpool_576.txt	LTP366	ltpFR2	20	9	HORSE	719	n/a	n/a	0	0	0
1883900	WORD	wordpools/wasnorm_wordpool_576.txt	LTP366	ltpFR2	20	9	CHILD	299	n/a	n/a	0	0	0
1886575	WORD	wordpools/wasnorm_wordpool_576.txt	LTP366	ltpFR2	20	9	MILDEW	893	n/a	n/a	0	0	0
1889200	WORD	wordpools/wasnorm_wordpool_576.txt	LTP366	ltpFR2	20	9	ATOM	55	n/a	n/a	0	0	0
1891842	WORD	wordpools/wasnorm_wordpool_576.txt	LTP366	ltpFR2	20	9	CAFE	216	n/a	n/a	0	0	0
1894284	WORD	wordpools/wasnorm_wordpool_576.txt	LTP366	ltpFR2	20	9	ICING	732	n/a	n/a	0	0	0
1896842	WORD	wordpools/wasnorm_wordpool_576.txt	LTP366	ltpFR2	20	9	ROBBER	1197	n/a	n/a	0	0	0
1899450	WORD	wordpools/wasnorm_wordpool_576.txt	LTP366	ltpFR2	20	9	PARENT	1013	n/a	n/a	0	0	0
1902042	WORD	wordpools/wasnorm_wordpool_576.txt	LTP366	ltpFR2	20	9	KEEPER	769	n/a	n/a	0	0	0
1903648	START	n/a	LTP366	ltpFR2	20	n/a	n/a	n/a	15	n/a	n/a	n/a	n/a
1904606	DISTRACTOR	n/a	LTP366	ltpFR2	20	9	n/a	n/a	n/a	n/a	0	0	0
1904617	PROB	n/a	LTP366	ltpFR2	20	n/a	n/a	n/a	15	16	1	7	8
1905821	PROB	n/a	LTP366	ltpFR2	20	n/a	n/a	n/a	15	18	5	4	9
1907008	PROB	n/a	LTP366	ltpFR2	20	n/a	n/a	n/a	15	8	1	3	4
1907944	PROB	n/a	LTP366	ltpFR2	20	n/a	n/a	n/a	15	14	5	5	4
1908931	PROB	n/a	LTP366	ltpFR2	20	n/a	n/a	n/a	15	21	6	8	7
1911071	PROB	n/a	LTP366	ltpFR2	20	n/a	n/a	n/a	15	14	2	8	4
1912175	PROB	n/a	LTP366	ltpFR2	20	n/a	n/a	n/a	15	12	3	2	7
1913178	PROB	n/a	LTP366	ltpFR2	20	n/a	n/a	n/a	15	18	9	6	3
1914800	PROB	n/a	LTP366	ltpFR2	20	n/a	n/a	n/a	15	16	5	4	7
1916088	PROB	n/a	LTP366	ltpFR2	20	n/a	n/a	n/a	15	18	5	6	7
1918846	PROB	n/a	LTP366	ltpFR2	20	n/a	n/a	n/a	15	9	4	4	1
1919833	PROB	n/a	LTP366	ltpFR2	20	n/a	n/a	n/a	15	12	8	3	1
1920987	PROB	n/a	LTP366	ltpFR2	20	n/a	n/a	n/a	15	13	1	5	7
1922141	PROB	n/a	LTP366	ltpFR2	20	n/a	n/a	n/a	15	14	8	3	3
1923445	PROB	n/a	LTP366	ltpFR2	20	n/a	n/a	n/a	15	18	3	9	6
1925117	PROB	n/a	LTP366	ltpFR2	20	n/a	n/a	n/a	15	18	8	4	6
1926258	STOP	n/a	LTP366	ltpFR2	20	n/a	n/a	n/a	15	n/a	n/a	n/a	n/a
1929482	REC_START	n/a	LTP366	ltpFR2	20	9	n/a	n/a	n/a	n/a	0	0	0
1932151	REC_WORD	wordpools/wasnorm_wordpool_576.txt	LTP366	ltpFR2	20	9	BLOUSE	139	n/a	n/a	0	0	0
1933628	REC_WORD	wordpools/wasnorm_wordpool_576.txt	LTP366	ltpFR2	20	9	JEANS	752	n/a	n/a	0	0	0
1934239	REC_WORD	wordpools/wasnorm_wordpool_576.txt	LTP366	ltpFR2	20	9	LIPSTICK	829	n/a	n/a	0	0	0
1937009	REC_WORD	wordpools/wasnorm_wordpool_576.txt	LTP366	ltpFR2	20	9	CONVICT	371	n/a	n/a	0	0	0
1938503	REC_WORD	wordpools/wasnorm_wordpool_576.txt	LTP366	ltpFR2	20	9	PARROT	1015	n/a	n/a	0	0	0
1939086	REC_WORD	wordpools/wasnorm_wordpool_576.txt	LTP366	ltpFR2	20	9	ROBBER	1197	n/a	n/a	0	0	0
1940527	REC_WORD	wordpools/wasnorm_wordpool_576.txt	LTP366	ltpFR2	20	9	KEEPER	769	n/a	n/a	0	0	0
1951175	REC_WORD	wordpools/wasnorm_wordpool_576.txt	LTP366	ltpFR2	20	9	ICING	732	n/a	n/a	0	0	0
1967867	REC_WORD_VV	wordpools/wasnorm_wordpool_576.txt	LTP366	ltpFR2	20	9	<>	-1	n/a	n/a	0	0	0
2019940	WORD	wordpools/wasnorm_wordpool_576.txt	LTP366	ltpFR2	20	10	GRIZZLY	662	n/a	n/a	0	0	0
2022365	WORD	wordpools/wasnorm_wordpool_576.txt	LTP366	ltpFR2	20	10	KITCHEN	778	n/a	n/a	0	0	0
2025091	WORD	wordpools/wasnorm_wordpool_576.txt	LTP366	ltpFR2	20	10	WAITER	1580	n/a	n/a	0	0	0
2027565	WORD	wordpools/wasnorm_wordpool_576.txt	LTP366	ltpFR2	20	10	HATCHET	691	n/a	n/a	0	0	0
2030257	WORD	wordpools/wasnorm_wordpool_576.txt	LTP366	ltpFR2	20	10	SPARROW	1347	n/a	n/a	0	0	0
2032799	WORD	wordpools/wasnorm_wordpool_576.txt	LTP366	ltpFR2	20	10	BEEF	113	n/a	n/a	0	0	0
2035541	WORD	wordpools/wasnorm_wordpool_576.txt	LTP366	ltpFR2	20	10	TOURIST	1488	n/a	n/a	0	0	0
2038116	WORD	wordpools/wasnorm_wordpool_576.txt	LTP366	ltpFR2	20	10	DUSTPAN	509	n/a	n/a	0	0	0
2040674	WORD	wordpools/wasnorm_wordpool_576.txt	LTP366	ltpFR2	20	10	CHAPEL	280	n/a	n/a	0	0	0
2043283	WORD	wordpools/wasnorm_wordpool_576.txt	LTP366	ltpFR2	20	10	CASKET	255	n/a	n/a	0	0	0
2045941	WORD	wordpools/wasnorm_wordpool_576.txt	LTP366	ltpFR2	20	10	PILOT	1070	n/a	n/a	0	0	0
2048516	WORD	wordpools/wasnorm_wordpool_576.txt	LTP366	ltpFR2	20	10	BROTHER	179	n/a	n/a	0	0	0
2051075	WORD	wordpools/wasnorm_wordpool_576.txt	LTP366	ltpFR2	20	10	TRIBE	1505	n/a	n/a	0	0	0
2053516	WORD	wordpools/wasnorm_wordpool_576.txt	LTP366	ltpFR2	20	10	RELISH	1183	n/a	n/a	0	0	0
2056024	WORD	wordpools/wasnorm_wordpool_576.txt	LTP366	ltpFR2	20	10	SANDWICH	1232	n/a	n/a	0	0	0
2058783	WORD	wordpools/wasnorm_wordpool_576.txt	LTP366	ltpFR2	20	10	NOMAD	955	n/a	n/a	0	0	0
2061223	WORD	wordpools/wasnorm_wordpool_576.txt	LTP366	ltpFR2	20	10	PIGMENT	1066	n/a	n/a	0	0	0
2064017	WORD	wordpools/wasnorm_wordpool_576.txt	LTP366	ltpFR2	20	10	SODA	1341	n/a	n/a	0	0	0
2066458	WORD	wordpools/wasnorm_wordpool_576.txt	LTP366	ltpFR2	20	10	PENGUIN	1044	n/a	n/a	0	0	0
2069049	WORD	wordpools/wasnorm_wordpool_576.txt	LTP366	ltpFR2	20	10	DRESS	495	n/a	n/a	0	0	0
2071758	WORD	wordpools/wasnorm_wordpool_576.txt	LTP366	ltpFR2	20	10	AIRPLANE	12	n/a	n/a	0	0	0
2074317	WORD	wordpools/wasnorm_wordpool_576.txt	LTP366	ltpFR2	20	10	CROWN	415	n/a	n/a	0	0	0
2077126	WORD	wordpools/wasnorm_wordpool_576.txt	LTP366	ltpFR2	20	10	QUEEN	1149	n/a	n/a	0	0	0
2079818	WORD	wordpools/wasnorm_wordpool_576.txt	LTP366	ltpFR2	20	10	COTTAGE	384	n/a	n/a	0	0	0
2081423	START	n/a	LTP366	ltpFR2	20	n/a	n/a	n/a	16	n/a	n/a	n/a	n/a
2082348	DISTRACTOR	n/a	LTP366	ltpFR2	20	10	n/a	n/a	n/a	n/a	0	0	0
2082359	PROB	n/a	LTP366	ltpFR2	20	n/a	n/a	n/a	16	16	5	5	6
2084115	PROB	n/a	LTP366	ltpFR2	20	n/a	n/a	n/a	16	18	7	5	6
2085469	PROB	n/a	LTP366	ltpFR2	20	n/a	n/a	n/a	16	12	5	2	5
2086422	PROB	n/a	LTP366	ltpFR2	20	n/a	n/a	n/a	16	19	9	5	5
2087476	PROB	n/a	LTP366	ltpFR2	20	n/a	n/a	n/a	16	11	1	7	3
2088496	PROB	n/a	LTP366	ltpFR2	20	n/a	n/a	n/a	16	16	8	1	7
2089465	PROB	n/a	LTP366	ltpFR2	20	n/a	n/a	n/a	16	24	7	9	8
2090720	PROB	n/a	LTP366	ltpFR2	20	n/a	n/a	n/a	16	10	5	1	4
2091689	PROB	n/a	LTP366	ltpFR2	20	n/a	n/a	n/a	16	11	4	6	1
2092693	PROB	n/a	LTP366	ltpFR2	20	n/a	n/a	n/a	16	18	9	4	5
2094800	PROB	n/a	LTP366	ltpFR2	20	n/a	n/a	n/a	16	21	8	4	9
2096990	PROB	n/a	LTP366	ltpFR2	20	n/a	n/a	n/a	16	12	4	2	6
2098094	PROB	n/a	LTP366	ltpFR2	20	n/a	n/a	n/a	16	9	3	2	4
2099598	PROB	n/a	LTP366	ltpFR2	20	n/a	n/a	n/a	16	8	4	3	1
2100602	PROB	n/a	LTP366	ltpFR2	20	n/a	n/a	n/a	16	16	8	1	7
2101605	PROB	n/a	LTP366	ltpFR2	20	n/a	n/a	n/a	16	17	9	5	3
2103361	PROB	n/a	LTP366	ltpFR2	20	n/a	n/a	n/a	16	9	6	1	2
2104288	STOP	n/a	LTP366	ltpFR2	20	n/a	n/a	n/a	16	n/a	n/a	n/a	n/a
2107274	REC_START	n/a	LTP366	ltpFR2	20	10	n/a	n/a	n/a	n/a	0	0	0
2108029	REC_WORD	wordpools/wasnorm_wordpool_576.txt	LTP366	ltpFR2	20	10	QUEEN	1149	n/a	n/a	0	0	0
2108704	REC_WORD	wordpools/wasnorm_wordpool_576.txt	LTP366	ltpFR2	20	10	CROWN	415	n/a	n/a	0	0	0
2109538	REC_WORD	wordpools/wasnorm_wordpool_576.txt	LTP366	ltpFR2	20	10	BROTHER	179	n/a	n/a	0	0	0
2110526	REC_WORD	wordpools/wasnorm_wordpool_576.txt	LTP366	ltpFR2	20	10	TRIBE	1505	n/a	n/a	0	0	0
2112328	REC_WORD	wordpools/wasnorm_wordpool_576.txt	LTP366	ltpFR2	20	10	NOMAD	955	n/a	n/a	0	0	0
2114982	REC_WORD	wordpools/wasnorm_wordpool_576.txt	LTP366	ltpFR2	20	10	PENGUIN	1044	n/a	n/a	0	0	0
2115739	REC_WORD	wordpools/wasnorm_wordpool_576.txt	LTP366	ltpFR2	20	10	SODA	1341	n/a	n/a	0	0	0
2118305	REC_WORD	wordpools/wasnorm_wordpool_576.txt	LTP366	ltpFR2	20	10	AIRPLANE	12	n/a	n/a	0	0	0
2164454	REC_WORD	wordpools/wasnorm_wordpool_576.txt	LTP366	ltpFR2	20	10	SCARECROW	1245	n/a	n/a	0	0	0
2166715	REC_WORD	wordpools/wasnorm_wordpool_576.txt	LTP366	ltpFR2	20	10	PERCH	1048	n/a	n/a	0	0	0
2197733	WORD	wordpools/wasnorm_wordpool_576.txt	LTP366	ltpFR2	20	11	THIEF	1456	n/a	n/a	0	0	0
2200392	WORD	wordpools/wasnorm_wordpool_576.txt	LTP366	ltpFR2	20	11	MAILBOX	857	n/a	n/a	0	0	0
2203100	WORD	wordpools/wasnorm_wordpool_576.txt	LTP366	ltpFR2	20	11	NAPKIN	937	n/a	n/a	0	0	0
2205742	WORD	wordpools/wasnorm_wordpool_576.txt	LTP366	ltpFR2	20	11	TABLET	1427	n/a	n/a	0	0	0
2208468	WORD	wordpools/wasnorm_wordpool_576.txt	LTP366	ltpFR2	20	11	INFANT	737	n/a	n/a	0	0	0
2211059	WORD	wordpools/wasnorm_wordpool_576.txt	LTP366	ltpFR2	20	11	CRIB	407	n/a	n/a	0	0	0
2213551	WORD	wordpools/wasnorm_wordpool_576.txt	LTP366	ltpFR2	20	11	BISON	131	n/a	n/a	0	0	0
2216176	WORD	wordpools/wasnorm_wordpool_576.txt	LTP366	ltpFR2	20	11	VALVE	1546	n/a	n/a	0	0	0
2218885	WORD	wordpools/wasnorm_wordpool_576.txt	LTP366	ltpFR2	20	11	CHEMIST	292	n/a	n/a	0	0	0
2221644	WORD	wordpools/wasnorm_wordpool_576.txt	LTP366	ltpFR2	20	11	BINDER	127	n/a	n/a	0	0	0
2224201	WORD	wordpools/wasnorm_wordpool_576.txt	LTP366	ltpFR2	20	11	MUFFIN	929	n/a	n/a	0	0	0
2226777	WORD	wordpools/wasnorm_wordpool_576.txt	LTP366	ltpFR2	20	11	SALAD	1224	n/a	n/a	0	0	0
2229502	WORD	wordpools/wasnorm_wordpool_576.txt	LTP366	ltpFR2	20	11	TABLE	1426	n/a	n/a	0	0	0
2232061	WORD	wordpools/wasnorm_wordpool_576.txt	LTP366	ltpFR2	20	11	TUTU	1524	n/a	n/a	0	0	0
2234652	WORD	wordpools/wasnorm_wordpool_576.txt	LTP366	ltpFR2	20	11	HOSTESS	723	n/a	n/a	0	0	0
2237462	WORD	wordpools/wasnorm_wordpool_576.txt	LTP366	ltpFR2	20	11	WAITRESS	1581	n/a	n/a	0	0	0
2240020	WORD	wordpools/wasnorm_wordpool_576.txt	LTP366	ltpFR2	20	11	TOASTER	1472	n/a	n/a	0	0	0
2242795	WORD	wordpools/wasnorm_wordpool_576.txt	LTP366	ltpFR2	20	11	MILK	895	n/a	n/a	0	0	0
2245287	WORD	wordpools/wasnorm_wordpool_576.txt	LTP366	ltpFR2	20	11	PADDING	999	n/a	n/a	0	0	0
2247895	WORD	wordpools/wasnorm_wordpool_576.txt	LTP366	ltpFR2	20	11	BEAST	108	n/a	n/a	0	0	0
2250671	WORD	wordpools/wasnorm_wordpool_576.txt	LTP366	ltpFR2	20	11	FOX	598	n/a	n/a	0	0	0
2253095	WORD	wordpools/wasnorm_wordpool_576.txt	LTP366	ltpFR2	20	11	SOFTBALL	1343	n/a	n/a	0	0	0
2255804	WORD	wordpools/wasnorm_wordpool_576.txt	LTP366	ltpFR2	20	11	STAPLE	1371	n/a	n/a	0	0	0
2258613	WORD	wordpools/wasnorm_wordpool_576.txt	LTP366	ltpFR2	20	11	HANDBAG	684	n/a	n/a	0	0	0
2260218	START	n/a	LTP366	ltpFR2	20	n/a	n/a	n/a	17	n/a	n/a	n/a	n/a
2261021	DISTRACTOR	n/a	LTP366	ltpFR2	20	11	n/a	n/a	n/a	n/a	0	0	0
2261038	PROB	n/a	LTP366	ltpFR2	20	n/a	n/a	n/a	17	23	6	9	8
2262442	PROB	n/a	LTP366	ltpFR2	20	n/a	n/a	n/a	17	9	1	6	2
2263396	PROB	n/a	LTP366	ltpFR2	20	n/a	n/a	n/a	17	16	4	4	8
2264783	PROB	n/a	LTP366	ltpFR2	20	n/a	n/a	n/a	17	14	9	3	2
2266322	PROB	n/a	LTP366	ltpFR2	20	n/a	n/a	n/a	17	26	9	9	8
2267643	PROB	n/a	LTP366	ltpFR2	20	n/a	n/a	n/a	17	11	6	3	2
2269197	PROB	n/a	LTP366	ltpFR2	20	n/a	n/a	n/a	17	10	2	4	4
2270368	PROB	n/a	LTP366	ltpFR2	20	n/a	n/a	n/a	17	18	6	8	4
2272040	PROB	n/a	LTP366	ltpFR2	20	n/a	n/a	n/a	17	13	7	3	3
2273060	PROB	n/a	LTP366	ltpFR2	20	n/a	n/a	n/a	17	20	9	9	2
2274465	PROB	n/a	LTP366	ltpFR2	20	n/a	n/a	n/a	17	15	7	4	4
2276605	PROB	n/a	LTP366	ltpFR2	20	n/a	n/a	n/a	17	19	7	3	9
2277775	PROB	n/a	LTP366	ltpFR2	20	n/a	n/a	n/a	17	11	5	2	4
2279163	PROB	n/a	LTP366	ltpFR2	20	n/a	n/a	n/a	17	13	2	4	7
2280384	PROB	n/a	LTP366	ltpFR2	20	n/a	n/a	n/a	17	10	4	4	2
2281655	PROB	n/a	LTP366	ltpFR2	20	n/a	n/a	n/a	17	15	6	7	2
2282805	STOP	n/a	LTP366	ltpFR2	20	n/a	n/a	n/a	17	n/a	n/a	n/a	n/a
2286120	REC_START	n/a	LTP366	ltpFR2	20	11	n/a	n/a	n/a	n/a	0	0	0
2288849	REC_WORD	wordpools/wasnorm_wordpool_576.txt	LTP366	ltpFR2	20	11	HANDBAG	684	n/a	n/a	0	0	0
2289437	REC_WORD	wordpools/wasnorm_wordpool_576.txt	LTP366	ltpFR2	20	11	STAPLE	1371	n/a	n/a	0	0	0
2290633	REC_WORD	wordpools/wasnorm_wordpool_576.txt	LTP366	ltpFR2	20	11	SOFTBALL	1343	n/a	n/a	0	0	0
2302398	REC_WORD_VV	wordpools/wasnorm_wordpool_576.txt	LTP366	ltpFR2	20	11	<>	-1	n/a	n/a	0	0	0
2304547	REC_WORD	wordpools/wasnorm_wordpool_576.txt	LTP366	ltpFR2	20	11	MAILBOX	857	n/a	n/a	0	0	0
2314256	REC_WORD	wordpools/wasnorm_wordpool_576.txt	LTP366	ltpFR2	20	11	CRIB	407	n/a	n/a	0	0	0
2314874	REC_WORD	wordpools/wasnorm_wordpool_576.txt	LTP366	ltpFR2	20	11	INFANT	737	n/a	n/a	0	0	0
2317484	REC_WORD	wordpools/wasnorm_wordpool_576.txt	LTP366	ltpFR2	20	11	PADDING	999	n/a	n/a	0	0	0
2319800	REC_WORD	wordpools/wasnorm_wordpool_576.txt	LTP366	ltpFR2	20	11	TUTU	1524	n/a	n/a	0	0	0
2320456	REC_WORD	wordpools/wasnorm_wordpool_576.txt	LTP366	ltpFR2	20	11	HOSTESS	723	n/a	n/a	0	0	0
2321439	REC_WORD	wordpools/wasnorm_wordpool_576.txt	LTP366	ltpFR2	20	11	WAITRESS	1581	n/a	n/a	0	0	0
2324512	REC_WORD	wordpools/wasnorm_wordpool_576.txt	LTP366	ltpFR2	20	11	TABLE	1426	n/a	n/a	0	0	0
2328848	REC_WORD_VV	wordpools/wasnorm_wordpool_576.txt	LTP366	ltpFR2	20	11	<>	-1	n/a	n/a	0	0	0
2332374	REC_WORD_VV	wordpools/wasnorm_wordpool_576.txt	LTP366	ltpFR2	20	11	<>	-1	n/a	n/a	0	0	0
2376562	DISTRACTOR	n/a	LTP366	ltpFR2	20	12	n/a	n/a	n/a	n/a	0	0	0
2376562	START	n/a	LTP366	ltpFR2	20	n/a	n/a	n/a	18	n/a	n/a	n/a	n/a
2376579	PROB	n/a	LTP366	ltpFR2	20	n/a	n/a	n/a	18	10	6	1	3
2377883	PROB	n/a	LTP366	ltpFR2	20	n/a	n/a	n/a	18	9	2	2	5
2378886	PROB	n/a	LTP366	ltpFR2	20	n/a	n/a	n/a	18	24	8	8	8
2380006	PROB	n/a	LTP366	ltpFR2	20	n/a	n/a	n/a	18	13	2	7	4
2381127	PROB	n/a	LTP366	ltpFR2	20	n/a	n/a	n/a	18	19	7	7	5
2382398	PROB	n/a	LTP366	ltpFR2	20	n/a	n/a	n/a	18	14	9	4	4
2383752	PROB	n/a	LTP366	ltpFR2	20	n/a	n/a	n/a	18	19	8	7	4
2385357	PROB	n/a	LTP366	ltpFR2	20	n/a	n/a	n/a	18	15	3	8	4
2386678	PROB	n/a	LTP366	ltpFR2	20	n/a	n/a	n/a	18	18	4	7	7
2388735	PROB	n/a	LTP366	ltpFR2	20	n/a	n/a	n/a	18	11	1	4	6
2389721	PROB	n/a	LTP366	ltpFR2	20	n/a	n/a	n/a	18	12	2	5	5
2390741	PROB	n/a	LTP366	ltpFR2	20	n/a	n/a	n/a	18	16	3	8	5
2391995	PROB	n/a	LTP366	ltpFR2	20	n/a	n/a	n/a	18	14	3	8	3
2393952	PROB	n/a	LTP366	ltpFR2	20	n/a	n/a	n/a	18	13	6	4	3
2394971	PROB	n/a	LTP366	ltpFR2	20	n/a	n/a	n/a	18	13	7	3	3
2395958	PROB	n/a	LTP366	ltpFR2	20	n/a	n/a	n/a	18	8	2	2	4
2397078	PROB	n/a	LTP366	ltpFR2	20	n/a	n/a	n/a	18	19	9	5	5
2398248	PROB	n/a	LTP366	ltpFR2	20	n/a	n/a	n/a	18	20	6	8	6
2399688	STOP	n/a	LTP366	ltpFR2	20	n/a	n/a	n/a	18	n/a	n/a	n/a	n/a
2401777	WORD	wordpools/wasnorm_wordpool_576.txt	LTP366	ltpFR2	20	12	LUMBER	848	n/a	n/a	0	0	0
2404369	WORD	wordpools/wasnorm_wordpool_576.txt	LTP366	ltpFR2	20	12	INMATE	738	n/a	n/a	0	0	0
2407094	WORD	wordpools/wasnorm_wordpool_576.txt	LTP366	ltpFR2	20	12	SKILLET	1317	n/a	n/a	0	0	0
2409686	WORD	wordpools/wasnorm_wordpool_576.txt	LTP366	ltpFR2	20	12	BULLET	194	n/a	n/a	0	0	0
2412479	WORD	wordpools/wasnorm_wordpool_576.txt	LTP366	ltpFR2	20	12	COBRA	336	n/a	n/a	0	0	0
2414986	WORD	wordpools/wasnorm_wordpool_576.txt	LTP366	ltpFR2	20	12	BABY	64	n/a	n/a	0	0	0
2417662	WORD	wordpools/wasnorm_wordpool_576.txt	LTP366	ltpFR2	20	12	CRICKET	408	n/a	n/a	0	0	0
2420219	WORD	wordpools/wasnorm_wordpool_576.txt	LTP366	ltpFR2	20	12	WRENCH	1625	n/a	n/a	0	0	0
2422912	WORD	wordpools/wasnorm_wordpool_576.txt	LTP366	ltpFR2	20	12	STAKE	1368	n/a	n/a	0	0	0
2425704	WORD	wordpools/wasnorm_wordpool_576.txt	LTP366	ltpFR2	20	12	JOURNAL	760	n/a	n/a	0	0	0
2428195	WORD	wordpools/wasnorm_wordpool_576.txt	LTP366	ltpFR2	20	12	NOVEL	960	n/a	n/a	0	0	0
2430955	WORD	wordpools/wasnorm_wordpool_576.txt	LTP366	ltpFR2	20	12	PRIMATE	1123	n/a	n/a	0	0	0
2433680	WORD	wordpools/wasnorm_wordpool_576.txt	LTP366	ltpFR2	20	12	WASHER	1592	n/a	n/a	0	0	0
2436322	WORD	wordpools/wasnorm_wordpool_576.txt	LTP366	ltpFR2	20	12	ROBOT	1200	n/a	n/a	0	0	0
2439031	WORD	wordpools/wasnorm_wordpool_576.txt	LTP366	ltpFR2	20	12	CELLAR	267	n/a	n/a	0	0	0
2441656	WORD	wordpools/wasnorm_wordpool_576.txt	LTP366	ltpFR2	20	12	PORK	1108	n/a	n/a	0	0	0
2444315	WORD	wordpools/wasnorm_wordpool_576.txt	LTP366	ltpFR2	20	12	GARBAGE	622	n/a	n/a	0	0	0
2447090	WORD	wordpools/wasnorm_wordpool_576.txt	LTP366	ltpFR2	20	12	LIZARD	834	n/a	n/a	0	0	0
2449548	WORD	wordpools/wasnorm_wordpool_576.txt	LTP366	ltpFR2	20	12	NIGHTGOWN	953	n/a	n/a	0	0	0
2451989	WORD	wordpools/wasnorm_wordpool_576.txt	LTP366	ltpFR2	20	12	SHERIFF	1284	n/a	n/a	0	0	0
2454799	WORD	wordpools/wasnorm_wordpool_576.txt	LTP366	ltpFR2	20	12	FOREST	593	n/a	n/a	0	0	0
2457541	WORD	wordpools/wasnorm_wordpool_576.txt	LTP366	ltpFR2	20	12	FILM	565	n/a	n/a	0	0	0
2460198	WORD	wordpools/wasnorm_wordpool_576.txt	LTP366	ltpFR2	20	12	YARN	1631	n/a	n/a	0	0	0
2463008	WORD	wordpools/wasnorm_wordpool_576.txt	LTP366	ltpFR2	20	12	RATTLE	1170	n/a	n/a	0	0	0
2464614	START	n/a	LTP366	ltpFR2	20	n/a	n/a	n/a	19	n/a	n/a	n/a	n/a
2465503	DISTRACTOR	n/a	LTP366	ltpFR2	20	12	n/a	n/a	n/a	n/a	0	0	0
2465517	PROB	n/a	LTP366	ltpFR2	20	n/a	n/a	n/a	19	17	5	6	6
2466955	PROB	n/a	LTP366	ltpFR2	20	n/a	n/a	n/a	19	7	5	1	1
2467991	PROB	n/a	LTP366	ltpFR2	20	n/a	n/a	n/a	19	18	5	4	7
2469194	PROB	n/a	LTP366	ltpFR2	20	n/a	n/a	n/a	19	9	6	1	2
2471837	PROB	n/a	LTP366	ltpFR2	20	n/a	n/a	n/a	19	17	7	7	3
2473108	PROB	n/a	LTP366	ltpFR2	20	n/a	n/a	n/a	19	12	4	2	6
2474128	PROB	n/a	LTP366	ltpFR2	20	n/a	n/a	n/a	19	4	1	2	1
2474981	PROB	n/a	LTP366	ltpFR2	20	n/a	n/a	n/a	19	21	4	9	8
2476335	PROB	n/a	LTP366	ltpFR2	20	n/a	n/a	n/a	19	15	4	6	5
2477438	PROB	n/a	LTP366	ltpFR2	20	n/a	n/a	n/a	19	15	1	7	7
2478576	PROB	n/a	LTP366	ltpFR2	20	n/a	n/a	n/a	19	16	1	7	8
2479646	PROB	n/a	LTP366	ltpFR2	20	n/a	n/a	n/a	19	13	2	2	9
2480799	PROB	n/a	LTP366	ltpFR2	20	n/a	n/a	n/a	19	7	1	3	3
2481936	PROB	n/a	LTP366	ltpFR2	20	n/a	n/a	n/a	19	14	8	2	4
2483374	PROB	n/a	LTP366	ltpFR2	20	n/a	n/a	n/a	19	10	3	5	2
2484628	PROB	n/a	LTP366	ltpFR2	20	n/a	n/a	n/a	19	18	3	9	6
2486249	PROB	n/a	LTP366	ltpFR2	20	n/a	n/a	n/a	19	12	6	1	5
2487234	STOP	n/a	LTP366	ltpFR2	20	n/a	n/a	n/a	19	n/a	n/a	n/a	n/a
2490498	REC_START	n/a	LTP366	ltpFR2	20	12	n/a	n/a	n/a	n/a	0	0	0
2491671	REC_WORD	wordpools/wasnorm_wordpool_576.txt	LTP366	ltpFR2	20	12	LIZARD	834	n/a	n/a	0	0	0
2492636	REC_WORD	wordpools/wasnorm_wordpool_576.txt	LTP366	ltpFR2	20	12	NIGHTGOWN	953	n/a	n/a	0	0	0
2493283	REC_WORD	wordpools/wasnorm_wordpool_576.txt	LTP366	ltpFR2	20	12	SHERIFF	1284	n/a	n/a	0	0	0
2499825	REC_WORD	wordpools/wasnorm_wordpool_576.txt	LTP366	ltpFR2	20	12	PORK	1108	n/a	n/a	0	0	0
2500302	REC_WORD	wordpools/wasnorm_wordpool_576.txt	LTP366	ltpFR2	20	12	GARBAGE	622	n/a	n/a	0	0	0
2528293	REC_WORD	wordpools/wasnorm_wordpool_576.txt	LTP366	ltpFR2	20	12	LUMBER	848	n/a	n/a	0	0	0
2538116	REC_WORD	wordpools/wasnorm_wordpool_576.txt	LTP366	ltpFR2	20	12	RATTLE	1170	n/a	n/a	0	0	0
2580957	WORD	wordpools/wasnorm_wordpool_576.txt	LTP366	ltpFR2	20	13	JUNGLE	764	n/a	n/a	0	0	0
2583733	WORD	wordpools/wasnorm_wordpool_576.txt	LTP366	ltpFR2	20	13	CHIPMUNK	304	n/a	n/a	0	0	0
2586157	WORD	wordpools/wasnorm_wordpool_576.txt	LTP366	ltpFR2	20	13	CREATURE	403	n/a	n/a	0	0	0
2588582	WORD	wordpools/wasnorm_wordpool_576.txt	LTP366	ltpFR2	20	13	MARKET	871	n/a	n/a	0	0	0
2591140	WORD	wordpools/wasnorm_wordpool_576.txt	LTP366	ltpFR2	20	13	CANDY	230	n/a	n/a	0	0	0
2593882	WORD	wordpools/wasnorm_wordpool_576.txt	LTP366	ltpFR2	20	13	BODY	145	n/a	n/a	0	0	0
2596591	WORD	wordpools/wasnorm_wordpool_576.txt	LTP366	ltpFR2	20	13	PISTOL	1075	n/a	n/a	0	0	0
2599300	WORD	wordpools/wasnorm_wordpool_576.txt	LTP366	ltpFR2	20	13	BANQUET	86	n/a	n/a	0	0	0
2602043	WORD	wordpools/wasnorm_wordpool_576.txt	LTP366	ltpFR2	20	13	SAUSAGE	1238	n/a	n/a	0	0	0
2604500	WORD	wordpools/wasnorm_wordpool_576.txt	LTP366	ltpFR2	20	13	PARSLEY	1016	n/a	n/a	0	0	0
2607108	WORD	wordpools/wasnorm_wordpool_576.txt	LTP366	ltpFR2	20	13	SALT	1229	n/a	n/a	0	0	0
2609533	WORD	wordpools/wasnorm_wordpool_576.txt	LTP366	ltpFR2	20	13	HIGHWAY	707	n/a	n/a	0	0	0
2612041	WORD	wordpools/wasnorm_wordpool_576.txt	LTP366	ltpFR2	20	13	RADISH	1158	n/a	n/a	0	0	0
2614482	WORD	wordpools/wasnorm_wordpool_576.txt	LTP366	ltpFR2	20	13	TART	1436	n/a	n/a	0	0	0
2616957	WORD	wordpools/wasnorm_wordpool_576.txt	LTP366	ltpFR2	20	13	PEDAL	1037	n/a	n/a	0	0	0
2619448	WORD	wordpools/wasnorm_wordpool_576.txt	LTP366	ltpFR2	20	13	TURNIP	1521	n/a	n/a	0	0	0
2622223	WORD	wordpools/wasnorm_wordpool_576.txt	LTP366	ltpFR2	20	13	FLOWER	584	n/a	n/a	0	0	0
2624949	WORD	wordpools/wasnorm_wordpool_576.txt	LTP366	ltpFR2	20	13	QUARTER	1148	n/a	n/a	0	0	0
2627491	WORD	wordpools/wasnorm_wordpool_576.txt	LTP366	ltpFR2	20	13	SEAFOOD	1260	n/a	n/a	0	0	0
2630000	WORD	wordpools/wasnorm_wordpool_576.txt	LTP366	ltpFR2	20	13	DRAWING	494	n/a	n/a	0	0	0
2632641	WORD	wordpools/wasnorm_wordpool_576.txt	LTP366	ltpFR2	20	13	PEANUT	1032	n/a	n/a	0	0	0
2635082	WORD	wordpools/wasnorm_wordpool_576.txt	LTP366	ltpFR2	20	13	RECEIPT	1173	n/a	n/a	0	0	0
2637841	WORD	wordpools/wasnorm_wordpool_576.txt	LTP366	ltpFR2	20	13	YACHT	1629	n/a	n/a	0	0	0
2640634	WORD	wordpools/wasnorm_wordpool_576.txt	LTP366	ltpFR2	20	13	COOKBOOK	373	n/a	n/a	0	0	0
2642238	START	n/a	LTP366	ltpFR2	20	n/a	n/a	n/a	20	n/a	n/a	n/a	n/a
2643146	DISTRACTOR	n/a	LTP366	ltpFR2	20	13	n/a	n/a	n/a	n/a	0	0	0
2643159	PROB	n/a	LTP366	ltpFR2	20	n/a	n/a	n/a	20	21	9	9	3
2644897	PROB	n/a	LTP366	ltpFR2	20	n/a	n/a	n/a	20	10	4	5	1
2645917	PROB	n/a	LTP366	ltpFR2	20	n/a	n/a	n/a	20	13	9	1	3
2647004	PROB	n/a	LTP366	ltpFR2	20	n/a	n/a	n/a	20	13	2	8	3
2647991	PROB	n/a	LTP366	ltpFR2	20	n/a	n/a	n/a	20	15	9	5	1
2649011	PROB	n/a	LTP366	ltpFR2	20	n/a	n/a	n/a	20	14	5	1	8
2650917	PROB	n/a	LTP366	ltpFR2	20	n/a	n/a	n/a	20	21	9	6	6
2652305	PROB	n/a	LTP366	ltpFR2	20	n/a	n/a	n/a	20	10	3	1	6
2653291	PROB	n/a	LTP366	ltpFR2	20	n/a	n/a	n/a	20	13	4	8	1
2654294	PROB	n/a	LTP366	ltpFR2	20	n/a	n/a	n/a	20	12	8	3	1
2655749	PROB	n/a	LTP366	ltpFR2	20	n/a	n/a	n/a	20	5	2	2	1
2656619	PROB	n/a	LTP366	ltpFR2	20	n/a	n/a	n/a	20	14	5	2	7
2658592	PROB	n/a	LTP366	ltpFR2	20	n/a	n/a	n/a	20	20	9	4	7
2659996	PROB	n/a	LTP366	ltpFR2	20	n/a	n/a	n/a	20	23	6	9	8
2661618	PROB	n/a	LTP366	ltpFR2	20	n/a	n/a	n/a	20	9	1	5	3
2662638	PROB	n/a	LTP366	ltpFR2	20	n/a	n/a	n/a	20	18	1	9	8
2664093	PROB	n/a	LTP366	ltpFR2	20	n/a	n/a	n/a	20	24	9	8	7
2665432	STOP	n/a	LTP366	ltpFR2	20	n/a	n/a	n/a	20	n/a	n/a	n/a	n/a
2668006	REC_START	n/a	LTP366	ltpFR2	20	13	n/a	n/a	n/a	n/a	0	0	0
2668622	REC_WORD	wordpools/wasnorm_wordpool_576.txt	LTP366	ltpFR2	20	13	YACHT	1629	n/a	n/a	0	0	0
2673510	REC_WORD	wordpools/wasnorm_wordpool_576.txt	LTP366	ltpFR2	20	13	CREATURE	403	n/a	n/a	0	0	0
2694691	REC_WORD	wordpools/wasnorm_wordpool_576.txt	LTP366	ltpFR2	20	13	TART	1436	n/a	n/a	0	0	0
2718161	REC_WORD	wordpools/wasnorm_wordpool_576.txt	LTP366	ltpFR2	20	13	COBRA	336	n/a	n/a	0	0	0
2719629	REC_WORD	wordpools/wasnorm_wordpool_576.txt	LTP366	ltpFR2	20	13	JUNGLE	764	n/a	n/a	0	0	0
2758465	WORD	wordpools/wasnorm_wordpool_576.txt	LTP366	ltpFR2	20	14	CLOCK	325	n/a	n/a	0	0	0
2761190	WORD	wordpools/wasnorm_wordpool_576.txt	LTP366	ltpFR2	20	14	CEILING	265	n/a	n/a	0	0	0
2763632	WORD	wordpools/wasnorm_wordpool_576.txt	LTP366	ltpFR2	20	14	MARINE	869	n/a	n/a	0	0	0
2766291	WORD	wordpools/wasnorm_wordpool_576.txt	LTP366	ltpFR2	20	14	LAKE	796	n/a	n/a	0	0	0
2769067	WORD	wordpools/wasnorm_wordpool_576.txt	LTP366	ltpFR2	20	14	SWAMP	1416	n/a	n/a	0	0	0
2771524	WORD	wordpools/wasnorm_wordpool_576.txt	LTP366	ltpFR2	20	14	CIGAR	308	n/a	n/a	0	0	0
2773999	WORD	wordpools/wasnorm_wordpool_576.txt	LTP366	ltpFR2	20	14	TAXI	1438	n/a	n/a	0	0	0
2776708	WORD	wordpools/wasnorm_wordpool_576.txt	LTP366	ltpFR2	20	14	TOMBSTONE	1478	n/a	n/a	0	0	0
2779132	WORD	wordpools/wasnorm_wordpool_576.txt	LTP366	ltpFR2	20	14	GARDEN	623	n/a	n/a	0	0	0
2781590	WORD	wordpools/wasnorm_wordpool_576.txt	LTP366	ltpFR2	20	14	IDOL	733	n/a	n/a	0	0	0
2784282	WORD	wordpools/wasnorm_wordpool_576.txt	LTP366	ltpFR2	20	14	ACTOR	5	n/a	n/a	0	0	0
2786924	WORD	wordpools/wasnorm_wordpool_576.txt	LTP366	ltpFR2	20	14	ARMY	39	n/a	n/a	0	0	0
2789633	WORD	wordpools/wasnorm_wordpool_576.txt	LTP366	ltpFR2	20	14	HONEY	713	n/a	n/a	0	0	0
2792141	WORD	wordpools/wasnorm_wordpool_576.txt	LTP366	ltpFR2	20	14	ULCER	1533	n/a	n/a	0	0	0
2794816	WORD	wordpools/wasnorm_wordpool_576.txt	LTP366	ltpFR2	20	14	SWORD	1423	n/a	n/a	0	0	0
2797274	WORD	wordpools/wasnorm_wordpool_576.txt	LTP366	ltpFR2	20	14	FOOTBALL	591	n/a	n/a	0	0	0
2799766	WORD	wordpools/wasnorm_wordpool_576.txt	LTP366	ltpFR2	20	14	CHURCH	307	n/a	n/a	0	0	0
2802239	WORD	wordpools/wasnorm_wordpool_576.txt	LTP366	ltpFR2	20	14	DRIVER	499	n/a	n/a	0	0	0
2804782	WORD	wordpools/wasnorm_wordpool_576.txt	LTP366	ltpFR2	20	14	PISTON	1076	n/a	n/a	0	0	0
2807222	WORD	wordpools/wasnorm_wordpool_576.txt	LTP366	ltpFR2	20	14	JURY	766	n/a	n/a	0	0	0
2809815	WORD	wordpools/wasnorm_wordpool_576.txt	LTP366	ltpFR2	20	14	VICTIM	1562	n/a	n/a	0	0	0
2812273	WORD	wordpools/wasnorm_wordpool_576.txt	LTP366	ltpFR2	20	14	PADDLE	1000	n/a	n/a	0	0	0
2814865	WORD	wordpools/wasnorm_wordpool_576.txt	LTP366	ltpFR2	20	14	WIDOW	1608	n/a	n/a	0	0	0
2817306	WORD	wordpools/wasnorm_wordpool_576.txt	LTP366	ltpFR2	20	14	CAMEL	223	n/a	n/a	0	0	0
2818912	START	n/a	LTP366	ltpFR2	20	n/a	n/a	n/a	21	n/a	n/a	n/a	n/a
2819785	DISTRACTOR	n/a	LTP366	ltpFR2	20	14	n/a	n/a	n/a	n/a	0	0	0
2819797	PROB	n/a	LTP366	ltpFR2	20	n/a	n/a	n/a	21	15	4	7	4
2821285	PROB	n/a	LTP366	ltpFR2	20	n/a	n/a	n/a	21	21	9	5	8
2822623	PROB	n/a	LTP366	ltpFR2	20	n/a	n/a	n/a	21	13	6	2	5
2824094	PROB	n/a	LTP366	ltpFR2	20	n/a	n/a	n/a	21	13	4	2	7
2825348	PROB	n/a	LTP366	ltpFR2	20	n/a	n/a	n/a	21	19	4	6	9
2826502	PROB	n/a	LTP366	ltpFR2	20	n/a	n/a	n/a	21	9	5	2	2
2827656	PROB	n/a	LTP366	ltpFR2	20	n/a	n/a	n/a	21	11	2	1	8
2828676	PROB	n/a	LTP366	ltpFR2	20	n/a	n/a	n/a	21	19	4	7	8
2829880	PROB	n/a	LTP366	ltpFR2	20	n/a	n/a	n/a	21	16	5	8	3
2831468	PROB	n/a	LTP366	ltpFR2	20	n/a	n/a	n/a	21	17	5	6	6
2832873	PROB	n/a	LTP366	ltpFR2	20	n/a	n/a	n/a	21	20	9	9	2
2833993	PROB	n/a	LTP366	ltpFR2	20	n/a	n/a	n/a	21	15	5	5	5
2834980	PROB	n/a	LTP366	ltpFR2	20	n/a	n/a	n/a	21	8	6	1	1
2835866	PROB	n/a	LTP366	ltpFR2	20	n/a	n/a	n/a	21	14	3	9	2
2837036	PROB	n/a	LTP366	ltpFR2	20	n/a	n/a	n/a	21	12	5	2	5
2838123	PROB	n/a	LTP366	ltpFR2	20	n/a	n/a	n/a	21	15	1	5	9
2839143	PROB	n/a	LTP366	ltpFR2	20	n/a	n/a	n/a	21	18	6	6	6
2842045	STOP	n/a	LTP366	ltpFR2	20	n/a	n/a	n/a	21	n/a	n/a	n/a	n/a
2844695	REC_START	n/a	LTP366	ltpFR2	20	14	n/a	n/a	n/a	n/a	0	0	0
2849524	REC_WORD	wordpools/wasnorm_wordpool_576.txt	LTP366	ltpFR2	20	14	DRIVER	499	n/a	n/a	0	0	0
2850514	REC_WORD	wordpools/wasnorm_wordpool_576.txt	LTP366	ltpFR2	20	14	CHURCH	307	n/a	n/a	0	0	0
2859741	REC_WORD	wordpools/wasnorm_wordpool_576.txt	LTP366	ltpFR2	20	14	TAXI	1438	n/a	n/a	0	0	0
2860889	REC_WORD	wordpools/wasnorm_wordpool_576.txt	LTP366	ltpFR2	20	14	CIGAR	308	n/a	n/a	0	0	0
2862722	REC_WORD	wordpools/wasnorm_wordpool_576.txt	LTP366	ltpFR2	20	14	LAKE	796	n/a	n/a	0	0	0
2872919	REC_WORD	wordpools/wasnorm_wordpool_576.txt	LTP366	ltpFR2	20	14	SWAMP	1416	n/a	n/a	0	0	0
2875878	REC_WORD	wordpools/wasnorm_wordpool_576.txt	LTP366	ltpFR2	20	14	HONEY	713	n/a	n/a	0	0	0
2935154	WORD	wordpools/wasnorm_wordpool_576.txt	LTP366	ltpFR2	20	15	GRAPE	654	n/a	n/a	0	0	0
2937645	WORD	wordpools/wasnorm_wordpool_576.txt	LTP366	ltpFR2	20	15	REBEL	1172	n/a	n/a	0	0	0
2940371	WORD	wordpools/wasnorm_wordpool_576.txt	LTP366	ltpFR2	20	15	CLAM	315	n/a	n/a	0	0	0
2943030	WORD	wordpools/wasnorm_wordpool_576.txt	LTP366	ltpFR2	20	15	CITRUS	313	n/a	n/a	0	0	0
2945655	WORD	wordpools/wasnorm_wordpool_576.txt	LTP366	ltpFR2	20	15	FRECKLE	602	n/a	n/a	0	0	0
2948397	WORD	wordpools/wasnorm_wordpool_576.txt	LTP366	ltpFR2	20	15	CRAB	397	n/a	n/a	0	0	0
2951039	WORD	wordpools/wasnorm_wordpool_576.txt	LTP366	ltpFR2	20	15	VELVET	1555	n/a	n/a	0	0	0
2953748	WORD	wordpools/wasnorm_wordpool_576.txt	LTP366	ltpFR2	20	15	MASK	876	n/a	n/a	0	0	0
2956523	WORD	wordpools/wasnorm_wordpool_576.txt	LTP366	ltpFR2	20	15	BACKBONE	66	n/a	n/a	0	0	0
2959065	WORD	wordpools/wasnorm_wordpool_576.txt	LTP366	ltpFR2	20	15	MARROW	872	n/a	n/a	0	0	0
2961807	WORD	wordpools/wasnorm_wordpool_576.txt	LTP366	ltpFR2	20	15	BIKE	125	n/a	n/a	0	0	0
2964332	WORD	wordpools/wasnorm_wordpool_576.txt	LTP366	ltpFR2	20	15	HELMET	702	n/a	n/a	0	0	0
2966940	WORD	wordpools/wasnorm_wordpool_576.txt	LTP366	ltpFR2	20	15	ACTRESS	6	n/a	n/a	0	0	0
2969365	WORD	wordpools/wasnorm_wordpool_576.txt	LTP366	ltpFR2	20	15	BLADE	134	n/a	n/a	0	0	0
2972124	WORD	wordpools/wasnorm_wordpool_576.txt	LTP366	ltpFR2	20	15	POISON	1096	n/a	n/a	0	0	0
2974700	WORD	wordpools/wasnorm_wordpool_576.txt	LTP366	ltpFR2	20	15	PEBBLE	1035	n/a	n/a	0	0	0
2977157	WORD	wordpools/wasnorm_wordpool_576.txt	LTP366	ltpFR2	20	15	CREVICE	405	n/a	n/a	0	0	0
2979799	WORD	wordpools/wasnorm_wordpool_576.txt	LTP366	ltpFR2	20	15	JELLO	754	n/a	n/a	0	0	0
2982474	WORD	wordpools/wasnorm_wordpool_576.txt	LTP366	ltpFR2	20	15	BANKER	84	n/a	n/a	0	0	0
2985249	WORD	wordpools/wasnorm_wordpool_576.txt	LTP366	ltpFR2	20	15	OYSTER	995	n/a	n/a	0	0	0
2987958	WORD	wordpools/wasnorm_wordpool_576.txt	LTP366	ltpFR2	20	15	STOVE	1388	n/a	n/a	0	0	0
2990734	WORD	wordpools/wasnorm_wordpool_576.txt	LTP366	ltpFR2	20	15	DANCER	437	n/a	n/a	0	0	0
2993409	WORD	wordpools/wasnorm_wordpool_576.txt	LTP366	ltpFR2	20	15	BURGLAR	200	n/a	n/a	0	0	0
2995851	WORD	wordpools/wasnorm_wordpool_576.txt	LTP366	ltpFR2	20	15	FRUIT	610	n/a	n/a	0	0	0
2997456	START	n/a	LTP366	ltpFR2	20	n/a	n/a	n/a	22	n/a	n/a	n/a	n/a
2998328	DISTRACTOR	n/a	LTP366	ltpFR2	20	15	n/a	n/a	n/a	n/a	0	0	0
2998342	PROB	n/a	LTP366	ltpFR2	20	n/a	n/a	n/a	22	17	5	8	4
3000449	PROB	n/a	LTP366	ltpFR2	20	n/a	n/a	n/a	22	14	4	4	6
3001502	PROB	n/a	LTP366	ltpFR2	20	n/a	n/a	n/a	22	9	1	1	7
3002372	PROB	n/a	LTP366	ltpFR2	20	n/a	n/a	n/a	22	22	9	4	9
3003927	PROB	n/a	LTP366	ltpFR2	20	n/a	n/a	n/a	22	10	6	1	3
3004913	PROB	n/a	LTP366	ltpFR2	20	n/a	n/a	n/a	22	20	5	6	9
3007104	PROB	n/a	LTP366	ltpFR2	20	n/a	n/a	n/a	22	9	3	2	4
3008374	PROB	n/a	LTP366	ltpFR2	20	n/a	n/a	n/a	22	15	8	2	5
3009612	PROB	n/a	LTP366	ltpFR2	20	n/a	n/a	n/a	22	13	6	2	5
3011066	PROB	n/a	LTP366	ltpFR2	20	n/a	n/a	n/a	22	18	9	4	5
3013374	PROB	n/a	LTP366	ltpFR2	20	n/a	n/a	n/a	22	11	3	2	6
3014595	PROB	n/a	LTP366	ltpFR2	20	n/a	n/a	n/a	22	14	7	4	3
3016334	PROB	n/a	LTP366	ltpFR2	20	n/a	n/a	n/a	22	18	5	8	5
3017471	PROB	n/a	LTP366	ltpFR2	20	n/a	n/a	n/a	22	12	2	4	6
3018507	PROB	n/a	LTP366	ltpFR2	20	n/a	n/a	n/a	22	25	9	8	8
3020323	STOP	n/a	LTP366	ltpFR2	20	n/a	n/a	n/a	22	n/a	n/a	n/a	n/a
3023222	REC_START	n/a	LTP366	ltpFR2	20	15	n/a	n/a	n/a	n/a	0	0	0
3025252	REC_WORD	wordpools/wasnorm_wordpool_576.txt	LTP366	ltpFR2	20	15	ACTRESS	6	n/a	n/a	0	0	0
3026252	REC_WORD_VV	wordpools/wasnorm_wordpool_576.txt	LTP366	ltpFR2	20	15	<>	-1	n/a	n/a	0	0	0
3034128	REC_WORD	wordpools/wasnorm_wordpool_576.txt	LTP366	ltpFR2	20	15	STOVE	1388	n/a	n/a	0	0	0
3035179	REC_WORD	wordpools/wasnorm_wordpool_576.txt	LTP366	ltpFR2	20	15	GARDEN	623	n/a	n/a	0	0	0
3049842	REC_WORD_VV	wordpools/wasnorm_wordpool_576.txt	LTP366	ltpFR2	20	15	<>	-1	n/a	n/a	0	0	0
3055712	REC_WORD	wordpools/wasnorm_wordpool_576.txt	LTP366	ltpFR2	20	15	GRAPE	654	n/a	n/a	0	0	0
3056488	REC_WORD	wordpools/wasnorm_wordpool_576.txt	LTP366	ltpFR2	20	15	REBEL	1172	n/a	n/a	0	0	0
3085550	REC_WORD	wordpools/wasnorm_wordpool_576.txt	LTP366	ltpFR2	20	15	PADDLE	1000	n/a	n/a	0	0	0
3113665	DISTRACTOR	n/a	LTP366	ltpFR2	20	16	n/a	n/a	n/a	n/a	0	0	0
3113666	START	n/a	LTP366	ltpFR2	20	n/a	n/a	n/a	23	n/a	n/a	n/a	n/a
3113682	PROB	n/a	LTP366	ltpFR2	20	n/a	n/a	n/a	23	14	6	6	2
3115170	PROB	n/a	LTP366	ltpFR2	20	n/a	n/a	n/a	23	13	8	1	4
3116157	PROB	n/a	LTP366	ltpFR2	20	n/a	n/a	n/a	23	17	6	9	2
3117762	PROB	n/a	LTP366	ltpFR2	20	n/a	n/a	n/a	23	10	3	3	4
3119601	PROB	n/a	LTP366	ltpFR2	20	n/a	n/a	n/a	23	11	5	5	1
3120538	PROB	n/a	LTP366	ltpFR2	20	n/a	n/a	n/a	23	16	6	6	4
3121742	PROB	n/a	LTP366	ltpFR2	20	n/a	n/a	n/a	23	15	8	6	1
3122895	PROB	n/a	LTP366	ltpFR2	20	n/a	n/a	n/a	23	8	4	3	1
3123982	PROB	n/a	LTP366	ltpFR2	20	n/a	n/a	n/a	23	8	1	2	5
3125587	PROB	n/a	LTP366	ltpFR2	20	n/a	n/a	n/a	23	23	6	9	8
3126724	PROB	n/a	LTP366	ltpFR2	20	n/a	n/a	n/a	23	17	8	6	3
3128211	PROB	n/a	LTP366	ltpFR2	20	n/a	n/a	n/a	23	23	7	8	6
3129550	PROB	n/a	LTP366	ltpFR2	20	n/a	n/a	n/a	23	22	7	9	6
3131975	PROB	n/a	LTP366	ltpFR2	20	n/a	n/a	n/a	23	20	9	9	2
3133244	PROB	n/a	LTP366	ltpFR2	20	n/a	n/a	n/a	23	15	9	5	1
3134316	PROB	n/a	LTP366	ltpFR2	20	n/a	n/a	n/a	23	9	2	2	5
3136799	STOP	n/a	LTP366	ltpFR2	20	n/a	n/a	n/a	23	n/a	n/a	n/a	n/a
3138629	WORD	wordpools/wasnorm_wordpool_576.txt	LTP366	ltpFR2	20	16	PARTNER	1017	n/a	n/a	0	0	0
3141439	WORD	wordpools/wasnorm_wordpool_576.txt	LTP366	ltpFR2	20	16	SPHINX	1349	n/a	n/a	0	0	0
3144114	WORD	wordpools/wasnorm_wordpool_576.txt	LTP366	ltpFR2	20	16	PANTHER	1009	n/a	n/a	0	0	0
3146923	WORD	wordpools/wasnorm_wordpool_576.txt	LTP366	ltpFR2	20	16	TWEEZERS	1526	n/a	n/a	0	0	0
3149715	WORD	wordpools/wasnorm_wordpool_576.txt	LTP366	ltpFR2	20	16	WHISKERS	1605	n/a	n/a	0	0	0
3152341	WORD	wordpools/wasnorm_wordpool_576.txt	LTP366	ltpFR2	20	16	TROMBONE	1508	n/a	n/a	0	0	0
3154832	WORD	wordpools/wasnorm_wordpool_576.txt	LTP366	ltpFR2	20	16	SKETCH	1315	n/a	n/a	0	0	0
3157324	WORD	wordpools/wasnorm_wordpool_576.txt	LTP366	ltpFR2	20	16	VIKING	1565	n/a	n/a	0	0	0
3159748	WORD	wordpools/wasnorm_wordpool_576.txt	LTP366	ltpFR2	20	16	SHRUB	1299	n/a	n/a	0	0	0
3162407	WORD	wordpools/wasnorm_wordpool_576.txt	LTP366	ltpFR2	20	16	PASTA	1021	n/a	n/a	0	0	0
3164982	WORD	wordpools/wasnorm_wordpool_576.txt	LTP366	ltpFR2	20	16	OUTLAW	989	n/a	n/a	0	0	0
3167740	WORD	wordpools/wasnorm_wordpool_576.txt	LTP366	ltpFR2	20	16	KNIFE	785	n/a	n/a	0	0	0
3170231	WORD	wordpools/wasnorm_wordpool_576.txt	LTP366	ltpFR2	20	16	ANKLE	24	n/a	n/a	0	0	0
3172907	WORD	wordpools/wasnorm_wordpool_576.txt	LTP366	ltpFR2	20	16	CRITIC	410	n/a	n/a	0	0	0
3175348	WORD	wordpools/wasnorm_wordpool_576.txt	LTP366	ltpFR2	20	16	GUARD	667	n/a	n/a	0	0	0
3177907	WORD	wordpools/wasnorm_wordpool_576.txt	LTP366	ltpFR2	20	16	FRIEND	606	n/a	n/a	0	0	0
3180599	WORD	wordpools/wasnorm_wordpool_576.txt	LTP366	ltpFR2	20	16	SIBLING	1301	n/a	n/a	0	0	0
3183206	WORD	wordpools/wasnorm_wordpool_576.txt	LTP366	ltpFR2	20	16	RAZOR	1171	n/a	n/a	0	0	0
3185849	WORD	wordpools/wasnorm_wordpool_576.txt	LTP366	ltpFR2	20	16	ZIPPER	1636	n/a	n/a	0	0	0
3188491	WORD	wordpools/wasnorm_wordpool_576.txt	LTP366	ltpFR2	20	16	JELLY	755	n/a	n/a	0	0	0
3191083	WORD	wordpools/wasnorm_wordpool_576.txt	LTP366	ltpFR2	20	16	SCRIBBLE	1256	n/a	n/a	0	0	0
3193608	WORD	wordpools/wasnorm_wordpool_576.txt	LTP366	ltpFR2	20	16	FLEET	578	n/a	n/a	0	0	0
3196417	WORD	wordpools/wasnorm_wordpool_576.txt	LTP366	ltpFR2	20	16	SHARK	1275	n/a	n/a	0	0	0
3199225	WORD	wordpools/wasnorm_wordpool_576.txt	LTP366	ltpFR2	20	16	TROUT	1511	n/a	n/a	0	0	0
3200831	START	n/a	LTP366	ltpFR2	20	n/a	n/a	n/a	24	n/a	n/a	n/a	n/a
3201676	DISTRACTOR	n/a	LTP366	ltpFR2	20	16	n/a	n/a	n/a	n/a	0	0	0
3201684	PROB	n/a	LTP366	ltpFR2	20	n/a	n/a	n/a	24	15	1	6	8
3203038	PROB	n/a	LTP366	ltpFR2	20	n/a	n/a	n/a	24	17	1	8	8
3204526	PROB	n/a	LTP366	ltpFR2	20	n/a	n/a	n/a	24	14	2	9	3
3206014	PROB	n/a	LTP366	ltpFR2	20	n/a	n/a	n/a	24	13	7	3	3
3207068	PROB	n/a	LTP366	ltpFR2	20	n/a	n/a	n/a	24	8	2	2	4
3208237	PROB	n/a	LTP366	ltpFR2	20	n/a	n/a	n/a	24	7	4	2	1
3209292	PROB	n/a	LTP366	ltpFR2	20	n/a	n/a	n/a	24	18	8	1	9
3210546	PROB	n/a	LTP366	ltpFR2	20	n/a	n/a	n/a	24	19	8	2	9
3212168	PROB	n/a	LTP366	ltpFR2	20	n/a	n/a	n/a	24	22	9	9	4
3213355	PROB	n/a	LTP366	ltpFR2	20	n/a	n/a	n/a	24	21	4	9	8
3214642	PROB	n/a	LTP366	ltpFR2	20	n/a	n/a	n/a	24	12	2	9	1
3215746	PROB	n/a	LTP366	ltpFR2	20	n/a	n/a	n/a	24	11	1	1	9
3216833	PROB	n/a	LTP366	ltpFR2	20	n/a	n/a	n/a	24	10	2	7	1
3217953	PROB	n/a	LTP366	ltpFR2	20	n/a	n/a	n/a	24	21	8	4	9
3219123	PROB	n/a	LTP366	ltpFR2	20	n/a	n/a	n/a	24	14	3	2	9
3220411	PROB	n/a	LTP366	ltpFR2	20	n/a	n/a	n/a	24	24	8	9	7
3222702	PROB	n/a	LTP366	ltpFR2	20	n/a	n/a	n/a	24	20	6	9	5
3223913	STOP	n/a	LTP366	ltpFR2	20	n/a	n/a	n/a	24	n/a	n/a	n/a	n/a
3226665	REC_START	n/a	LTP366	ltpFR2	20	16	n/a	n/a	n/a	n/a	0	0	0
3228031	REC_WORD	wordpools/wasnorm_wordpool_576.txt	LTP366	ltpFR2	20	16	PARTNER	1017	n/a	n/a	0	0	0
3228745	REC_WORD	wordpools/wasnorm_wordpool_576.txt	LTP366	ltpFR2	20	16	PANTHER	1009	n/a	n/a	0	0	0
3230404	REC_WORD	wordpools/wasnorm_wordpool_576.txt	LTP366	ltpFR2	20	16	WHISKERS	1605	n/a	n/a	0	0	0
3231433	REC_WORD	wordpools/wasnorm_wordpool_576.txt	LTP366	ltpFR2	20	16	FRIEND	606	n/a	n/a	0	0	0
3231945	REC_WORD	wordpools/wasnorm_wordpool_576.txt	LTP366	ltpFR2	20	16	SIBLING	1301	n/a	n/a	0	0	0
3232900	REC_WORD	wordpools/wasnorm_wordpool_576.txt	LTP366	ltpFR2	20	16	TWEEZERS	1526	n/a	n/a	0	0	0
3234973	REC_WORD	wordpools/wasnorm_wordpool_576.txt	LTP366	ltpFR2	20	16	RAZOR	1171	n/a	n/a	0	0	0
3239352	REC_WORD	wordpools/wasnorm_wordpool_576.txt	LTP366	ltpFR2	20	16	GUARD	667	n/a	n/a	0	0	0
3240000	REC_WORD	wordpools/wasnorm_wordpool_576.txt	LTP366	ltpFR2	20	16	FRIEND	606	n/a	n/a	0	0	0
3286901	REC_WORD	wordpools/wasnorm_wordpool_576.txt	LTP366	ltpFR2	20	16	KNIFE	785	n/a	n/a	0	0	0
3288610	REC_WORD	wordpools/wasnorm_wordpool_576.txt	LTP366	ltpFR2	20	16	OUTLAW	989	n/a	n/a	0	0	0
3303195	REST_REWET	n/a	LTP366	ltpFR2	20	16	n/a	n/a	n/a	n/a	0	0	0
3602030	WORD	wordpools/wasnorm_wordpool_576.txt	LTP366	ltpFR2	20	17	GALLON	618	n/a	n/a	0	0	0
3604572	WORD	wordpools/wasnorm_wordpool_576.txt	LTP366	ltpFR2	20	17	CASHEW	253	n/a	n/a	0	0	0
3607229	WORD	wordpools/wasnorm_wordpool_576.txt	LTP366	ltpFR2	20	17	LOFT	840	n/a	n/a	0	0	0
3609755	WORD	wordpools/wasnorm_wordpool_576.txt	LTP366	ltpFR2	20	17	MATTRESS	879	n/a	n/a	0	0	0
3612363	WORD	wordpools/wasnorm_wordpool_576.txt	LTP366	ltpFR2	20	17	SHIRT	1287	n/a	n/a	0	0	0
3615156	WORD	wordpools/wasnorm_wordpool_576.txt	LTP366	ltpFR2	20	17	COMPASS	358	n/a	n/a	0	0	0
3617948	WORD	wordpools/wasnorm_wordpool_576.txt	LTP366	ltpFR2	20	17	SNAIL	1332	n/a	n/a	0	0	0
3620456	WORD	wordpools/wasnorm_wordpool_576.txt	LTP366	ltpFR2	20	17	ATLAS	53	n/a	n/a	0	0	0
3622881	WORD	wordpools/wasnorm_wordpool_576.txt	LTP366	ltpFR2	20	17	PECAN	1036	n/a	n/a	0	0	0
3625322	WORD	wordpools/wasnorm_wordpool_576.txt	LTP366	ltpFR2	20	17	DRILL	497	n/a	n/a	0	0	0
3627797	WORD	wordpools/wasnorm_wordpool_576.txt	LTP366	ltpFR2	20	17	BLACKBOARD	133	n/a	n/a	0	0	0
3630589	WORD	wordpools/wasnorm_wordpool_576.txt	LTP366	ltpFR2	20	17	OUTDOORS	987	n/a	n/a	0	0	0
3633064	WORD	wordpools/wasnorm_wordpool_576.txt	LTP366	ltpFR2	20	17	SILK	1307	n/a	n/a	0	0	0
3635639	WORD	wordpools/wasnorm_wordpool_576.txt	LTP366	ltpFR2	20	17	LACE	792	n/a	n/a	0	0	0
3638415	WORD	wordpools/wasnorm_wordpool_576.txt	LTP366	ltpFR2	20	17	MUSTARD	935	n/a	n/a	0	0	0
3640889	WORD	wordpools/wasnorm_wordpool_576.txt	LTP366	ltpFR2	20	17	SCALPEL	1243	n/a	n/a	0	0	0
3643414	WORD	wordpools/wasnorm_wordpool_576.txt	LTP366	ltpFR2	20	17	SHORTS	1293	n/a	n/a	0	0	0
3645905	WORD	wordpools/wasnorm_wordpool_576.txt	LTP366	ltpFR2	20	17	EYELASH	546	n/a	n/a	0	0	0
3648598	WORD	wordpools/wasnorm_wordpool_576.txt	LTP366	ltpFR2	20	17	PIGEON	1065	n/a	n/a	0	0	0
3651072	WORD	wordpools/wasnorm_wordpool_576.txt	LTP366	ltpFR2	20	17	GRILL	661	n/a	n/a	0	0	0
3653831	WORD	wordpools/wasnorm_wordpool_576.txt	LTP366	ltpFR2	20	17	SCISSORS	1250	n/a	n/a	0	0	0
3656356	WORD	wordpools/wasnorm_wordpool_576.txt	LTP366	ltpFR2	20	17	TUBA	1515	n/a	n/a	0	0	0
3659014	WORD	wordpools/wasnorm_wordpool_576.txt	LTP366	ltpFR2	20	17	WHISTLE	1606	n/a	n/a	0	0	0
3661740	WORD	wordpools/wasnorm_wordpool_576.txt	LTP366	ltpFR2	20	17	YOLK	1633	n/a	n/a	0	0	0
3663346	START	n/a	LTP366	ltpFR2	20	n/a	n/a	n/a	25	n/a	n/a	n/a	n/a
3664366	DISTRACTOR	n/a	LTP366	ltpFR2	20	17	n/a	n/a	n/a	n/a	0	0	0
3664382	PROB	n/a	LTP366	ltpFR2	20	n/a	n/a	n/a	25	21	5	8	8
3665803	PROB	n/a	LTP366	ltpFR2	20	n/a	n/a	n/a	25	19	2	9	8
3667994	PROB	n/a	LTP366	ltpFR2	20	n/a	n/a	n/a	25	14	3	3	8
3670034	PROB	n/a	LTP366	ltpFR2	20	n/a	n/a	n/a	25	14	5	6	3
3671220	PROB	n/a	LTP366	ltpFR2	20	n/a	n/a	n/a	25	20	9	9	2
3672324	PROB	n/a	LTP366	ltpFR2	20	n/a	n/a	n/a	25	13	9	1	3
3673394	PROB	n/a	LTP366	ltpFR2	20	n/a	n/a	n/a	25	15	5	9	1
3674465	PROB	n/a	LTP366	ltpFR2	20	n/a	n/a	n/a	25	13	1	4	8
3675535	PROB	n/a	LTP366	ltpFR2	20	n/a	n/a	n/a	25	19	3	9	7
3676822	PROB	n/a	LTP366	ltpFR2	20	n/a	n/a	n/a	25	19	6	9	4
3678076	PROB	n/a	LTP366	ltpFR2	20	n/a	n/a	n/a	25	11	8	2	1
3680417	PROB	n/a	LTP366	ltpFR2	20	n/a	n/a	n/a	25	9	1	3	5
3681470	PROB	n/a	LTP366	ltpFR2	20	n/a	n/a	n/a	25	14	1	8	5
3683444	PROB	n/a	LTP366	ltpFR2	20	n/a	n/a	n/a	25	10	1	6	3
3684614	PROB	n/a	LTP366	ltpFR2	20	n/a	n/a	n/a	25	25	9	9	7
3687342	STOP	n/a	LTP366	ltpFR2	20	n/a	n/a	n/a	25	n/a	n/a	n/a	n/a
3689245	REC_START	n/a	LTP366	ltpFR2	20	17	n/a	n/a	n/a	n/a	0	0	0
3690738	REC_WORD	wordpools/wasnorm_wordpool_576.txt	LTP366	ltpFR2	20	17	SCALPEL	1243	n/a	n/a	0	0	0
3692677	REC_WORD	wordpools/wasnorm_wordpool_576.txt	LTP366	ltpFR2	20	17	TUBA	1515	n/a	n/a	0	0	0
3696167	REC_WORD	wordpools/wasnorm_wordpool_576.txt	LTP366	ltpFR2	20	17	MATTRESS	879	n/a	n/a	0	0	0
3697630	REC_WORD	wordpools/wasnorm_wordpool_576.txt	LTP366	ltpFR2	20	17	SILK	1307	n/a	n/a	0	0	0
3698083	REC_WORD	wordpools/wasnorm_wordpool_576.txt	LTP366	ltpFR2	20	17	LACE	792	n/a	n/a	0	0	0
3699464	REC_WORD	wordpools/wasnorm_wordpool_576.txt	LTP366	ltpFR2	20	17	SHIRT	1287	n/a	n/a	0	0	0
3700057	REC_WORD	wordpools/wasnorm_wordpool_576.txt	LTP366	ltpFR2	20	17	SHORTS	1293	n/a	n/a	0	0	0
3717634	REC_WORD	wordpools/wasnorm_wordpool_576.txt	LTP366	ltpFR2	20	17	PECAN	1036	n/a	n/a	0	0	0
3718530	REC_WORD	wordpools/wasnorm_wordpool_576.txt	LTP366	ltpFR2	20	17	CASHEW	253	n/a	n/a	0	0	0
3719902	REC_WORD	wordpools/wasnorm_wordpool_576.txt	LTP366	ltpFR2	20	17	GALLON	618	n/a	n/a	0	0	0
3779705	WORD	wordpools/wasnorm_wordpool_576.txt	LTP366	ltpFR2	20	18	BOARD	143	n/a	n/a	0	0	0
3782212	WORD	wordpools/wasnorm_wordpool_576.txt	LTP366	ltpFR2	20	18	DRAGON	492	n/a	n/a	0	0	0
3784822	WORD	wordpools/wasnorm_wordpool_576.txt	LTP366	ltpFR2	20	18	MISSILE	900	n/a	n/a	0	0	0
3787564	WORD	wordpools/wasnorm_wordpool_576.txt	LTP366	ltpFR2	20	18	ISLAND	745	n/a	n/a	0	0	0
3790273	WORD	wordpools/wasnorm_wordpool_576.txt	LTP366	ltpFR2	20	18	SCOTCH	1251	n/a	n/a	0	0	0
3792931	WORD	wordpools/wasnorm_wordpool_576.txt	LTP366	ltpFR2	20	18	PLAID	1080	n/a	n/a	0	0	0
3795607	WORD	wordpools/wasnorm_wordpool_576.txt	LTP366	ltpFR2	20	18	DENIM	446	n/a	n/a	0	0	0
3798098	WORD	wordpools/wasnorm_wordpool_576.txt	LTP366	ltpFR2	20	18	SHOVEL	1295	n/a	n/a	0	0	0
3800740	WORD	wordpools/wasnorm_wordpool_576.txt	LTP366	ltpFR2	20	18	LASER	801	n/a	n/a	0	0	0
3803382	WORD	wordpools/wasnorm_wordpool_576.txt	LTP366	ltpFR2	20	18	GOBLIN	645	n/a	n/a	0	0	0
3806024	WORD	wordpools/wasnorm_wordpool_576.txt	LTP366	ltpFR2	20	18	FLASHLIGHT	575	n/a	n/a	0	0	0
3808750	WORD	wordpools/wasnorm_wordpool_576.txt	LTP366	ltpFR2	20	18	SWITCH	1422	n/a	n/a	0	0	0
3811492	WORD	wordpools/wasnorm_wordpool_576.txt	LTP366	ltpFR2	20	18	OINTMENT	974	n/a	n/a	0	0	0
3813933	WORD	wordpools/wasnorm_wordpool_576.txt	LTP366	ltpFR2	20	18	RIVER	1194	n/a	n/a	0	0	0
3816341	WORD	wordpools/wasnorm_wordpool_576.txt	LTP366	ltpFR2	20	18	SURVEY	1414	n/a	n/a	0	0	0
3819016	WORD	wordpools/wasnorm_wordpool_576.txt	LTP366	ltpFR2	20	18	LIVER	833	n/a	n/a	0	0	0
3821725	WORD	wordpools/wasnorm_wordpool_576.txt	LTP366	ltpFR2	20	18	BRICK	172	n/a	n/a	0	0	0
3824183	WORD	wordpools/wasnorm_wordpool_576.txt	LTP366	ltpFR2	20	18	PLUTO	1092	n/a	n/a	0	0	0
3826691	WORD	wordpools/wasnorm_wordpool_576.txt	LTP366	ltpFR2	20	18	SLIME	1327	n/a	n/a	0	0	0
3829433	WORD	wordpools/wasnorm_wordpool_576.txt	LTP366	ltpFR2	20	18	OFFICE	972	n/a	n/a	0	0	0
3831924	WORD	wordpools/wasnorm_wordpool_576.txt	LTP366	ltpFR2	20	18	TYPIST	1532	n/a	n/a	0	0	0
3834717	WORD	wordpools/wasnorm_wordpool_576.txt	LTP366	ltpFR2	20	18	COCKTAIL	338	n/a	n/a	0	0	0
3837459	WORD	wordpools/wasnorm_wordpool_576.txt	LTP366	ltpFR2	20	18	SLUG	1329	n/a	n/a	0	0	0
3840134	WORD	wordpools/wasnorm_wordpool_576.txt	LTP366	ltpFR2	20	18	BOUQUET	157	n/a	n/a	0	0	0
3841740	START	n/a	LTP366	ltpFR2	20	n/a	n/a	n/a	26	n/a	n/a	n/a	n/a
3842692	DISTRACTOR	n/a	LTP366	ltpFR2	20	18	n/a	n/a	n/a	n/a	0	0	0
3842709	PROB	n/a	LTP366	ltpFR2	20	n/a	n/a	n/a	26	16	5	6	5
3844365	PROB	n/a	LTP366	ltpFR2	20	n/a	n/a	n/a	26	14	7	6	1
3845418	PROB	n/a	LTP366	ltpFR2	20	n/a	n/a	n/a	26	16	6	3	7
3846538	PROB	n/a	LTP366	ltpFR2	20	n/a	n/a	n/a	26	10	2	5	3
3847826	PROB	n/a	LTP366	ltpFR2	20	n/a	n/a	n/a	26	13	8	4	1
3848812	PROB	n/a	LTP366	ltpFR2	20	n/a	n/a	n/a	26	16	7	2	7
3850167	PROB	n/a	LTP366	ltpFR2	20	n/a	n/a	n/a	26	19	6	8	5
3852090	PROB	n/a	LTP366	ltpFR2	20	n/a	n/a	n/a	26	14	4	2	8
3853494	PROB	n/a	LTP366	ltpFR2	20	n/a	n/a	n/a	26	12	5	6	1
3854548	PROB	n/a	LTP366	ltpFR2	20	n/a	n/a	n/a	26	21	7	5	9
3856788	PROB	n/a	LTP366	ltpFR2	20	n/a	n/a	n/a	26	22	9	4	9
3858511	PROB	n/a	LTP366	ltpFR2	20	n/a	n/a	n/a	26	20	9	8	3
3860015	PROB	n/a	LTP366	ltpFR2	20	n/a	n/a	n/a	26	10	1	8	1
3861069	PROB	n/a	LTP366	ltpFR2	20	n/a	n/a	n/a	26	13	8	3	2
3862340	PROB	n/a	LTP366	ltpFR2	20	n/a	n/a	n/a	26	9	1	3	5
3863376	PROB	n/a	LTP366	ltpFR2	20	n/a	n/a	n/a	26	17	9	4	4
3865195	STOP	n/a	LTP366	ltpFR2	20	n/a	n/a	n/a	26	n/a	n/a	n/a	n/a
3867591	REC_START	n/a	LTP366	ltpFR2	20	18	n/a	n/a	n/a	n/a	0	0	0
3869156	REC_WORD	wordpools/wasnorm_wordpool_576.txt	LTP366	ltpFR2	20	18	COCKTAIL	338	n/a	n/a	0	0	0
3870101	REC_WORD	wordpools/wasnorm_wordpool_576.txt	LTP366	ltpFR2	20	18	OFFICE	972	n/a	n/a	0	0	0
3870891	REC_WORD	wordpools/wasnorm_wordpool_576.txt	LTP366	ltpFR2	20	18	TYPIST	1532	n/a	n/a	0	0	0
3871933	REC_WORD	wordpools/wasnorm_wordpool_576.txt	LTP366	ltpFR2	20	18	SLUG	1329	n/a	n/a	0	0	0
3872604	REC_WORD	wordpools/wasnorm_wordpool_576.txt	LTP366	ltpFR2	20	18	SLIME	1327	n/a	n/a	0	0	0
3922958	REC_WORD	wordpools/wasnorm_wordpool_576.txt	LTP366	ltpFR2	20	18	GRIZZLY	662	n/a	n/a	0	0	0
3924723	REC_WORD	wordpools/wasnorm_wordpool_576.txt	LTP366	ltpFR2	20	18	OINTMENT	974	n/a	n/a	0	0	0
3958033	DISTRACTOR	n/a	LTP366	ltpFR2	20	19	n/a	n/a	n/a	n/a	0	0	0
3958033	START	n/a	LTP366	ltpFR2	20	n/a	n/a	n/a	27	n/a	n/a	n/a	n/a
3958049	PROB	n/a	LTP366	ltpFR2	20	n/a	n/a	n/a	27	16	9	2	5
3959822	PROB	n/a	LTP366	ltpFR2	20	n/a	n/a	n/a	27	4	1	1	2
3960675	PROB	n/a	LTP366	ltpFR2	20	n/a	n/a	n/a	27	13	2	6	5
3962848	PROB	n/a	LTP366	ltpFR2	20	n/a	n/a	n/a	27	14	1	7	6
3963985	PROB	n/a	LTP366	ltpFR2	20	n/a	n/a	n/a	27	20	6	8	6
3965557	PROB	n/a	LTP366	ltpFR2	20	n/a	n/a	n/a	27	12	8	3	1
3966627	PROB	n/a	LTP366	ltpFR2	20	n/a	n/a	n/a	27	15	5	9	1
3968082	PROB	n/a	LTP366	ltpFR2	20	n/a	n/a	n/a	27	13	8	2	3
3969185	PROB	n/a	LTP366	ltpFR2	20	n/a	n/a	n/a	27	19	4	7	8
3970339	PROB	n/a	LTP366	ltpFR2	20	n/a	n/a	n/a	27	13	4	2	7
3971710	PROB	n/a	LTP366	ltpFR2	20	n/a	n/a	n/a	27	15	5	6	4
3974603	PROB	n/a	LTP366	ltpFR2	20	n/a	n/a	n/a	27	14	2	6	6
3976041	PROB	n/a	LTP366	ltpFR2	20	n/a	n/a	n/a	27	22	5	8	9
3977563	PROB	n/a	LTP366	ltpFR2	20	n/a	n/a	n/a	27	6	2	3	1
3978616	PROB	n/a	LTP366	ltpFR2	20	n/a	n/a	n/a	27	17	9	5	3
3980104	PROB	n/a	LTP366	ltpFR2	20	n/a	n/a	n/a	27	22	9	6	7
3981919	STOP	n/a	LTP366	ltpFR2	20	n/a	n/a	n/a	27	n/a	n/a	n/a	n/a
3983181	WORD	wordpools/wasnorm_wordpool_576.txt	LTP366	ltpFR2	20	19	CRUTCH	417	n/a	n/a	0	0	0
3985656	WORD	wordpools/wasnorm_wordpool_576.txt	LTP366	ltpFR2	20	19	BOYFRIEND	162	n/a	n/a	0	0	0
3988147	WORD	wordpools/wasnorm_wordpool_576.txt	LTP366	ltpFR2	20	19	DRESSER	496	n/a	n/a	0	0	0
3990572	WORD	wordpools/wasnorm_wordpool_576.txt	LTP366	ltpFR2	20	19	LION	827	n/a	n/a	0	0	0
3993080	WORD	wordpools/wasnorm_wordpool_576.txt	LTP366	ltpFR2	20	19	SHORTCAKE	1292	n/a	n/a	0	0	0
3995738	WORD	wordpools/wasnorm_wordpool_576.txt	LTP366	ltpFR2	20	19	ELBOW	520	n/a	n/a	0	0	0
3998163	WORD	wordpools/wasnorm_wordpool_576.txt	LTP366	ltpFR2	20	19	BANK	83	n/a	n/a	0	0	0
4000938	WORD	wordpools/wasnorm_wordpool_576.txt	LTP366	ltpFR2	20	19	BREAST	171	n/a	n/a	0	0	0
4003363	WORD	wordpools/wasnorm_wordpool_576.txt	LTP366	ltpFR2	20	19	CORAL	378	n/a	n/a	0	0	0
4006155	WORD	wordpools/wasnorm_wordpool_576.txt	LTP366	ltpFR2	20	19	HUMAN	726	n/a	n/a	0	0	0
4008948	WORD	wordpools/wasnorm_wordpool_576.txt	LTP366	ltpFR2	20	19	BEAKER	104	n/a	n/a	0	0	0
4011456	WORD	wordpools/wasnorm_wordpool_576.txt	LTP366	ltpFR2	20	19	MOTOR	922	n/a	n/a	0	0	0
4014014	WORD	wordpools/wasnorm_wordpool_576.txt	LTP366	ltpFR2	20	19	CLAMP	316	n/a	n/a	0	0	0
4016556	WORD	wordpools/wasnorm_wordpool_576.txt	LTP366	ltpFR2	20	19	MEAT	883	n/a	n/a	0	0	0
4019131	WORD	wordpools/wasnorm_wordpool_576.txt	LTP366	ltpFR2	20	19	BUTCHER	203	n/a	n/a	0	0	0
4021923	WORD	wordpools/wasnorm_wordpool_576.txt	LTP366	ltpFR2	20	19	ROOSTER	1209	n/a	n/a	0	0	0
4024364	WORD	wordpools/wasnorm_wordpool_576.txt	LTP366	ltpFR2	20	19	CRAYON	401	n/a	n/a	0	0	0
4027090	WORD	wordpools/wasnorm_wordpool_576.txt	LTP366	ltpFR2	20	19	PIZZA	1079	n/a	n/a	0	0	0
4029715	WORD	wordpools/wasnorm_wordpool_576.txt	LTP366	ltpFR2	20	19	ARM	38	n/a	n/a	0	0	0
4032407	WORD	wordpools/wasnorm_wordpool_576.txt	LTP366	ltpFR2	20	19	SUSPECT	1415	n/a	n/a	0	0	0
4035149	WORD	wordpools/wasnorm_wordpool_576.txt	LTP366	ltpFR2	20	19	LETTUCE	814	n/a	n/a	0	0	0
4037741	WORD	wordpools/wasnorm_wordpool_576.txt	LTP366	ltpFR2	20	19	BLENDER	136	n/a	n/a	0	0	0
4040533	WORD	wordpools/wasnorm_wordpool_576.txt	LTP366	ltpFR2	20	19	SUITCASE	1403	n/a	n/a	0	0	0
4043158	WORD	wordpools/wasnorm_wordpool_576.txt	LTP366	ltpFR2	20	19	BRIEFCASE	175	n/a	n/a	0	0	0
4044765	START	n/a	LTP366	ltpFR2	20	n/a	n/a	n/a	28	n/a	n/a	n/a	n/a
4045572	DISTRACTOR	n/a	LTP366	ltpFR2	20	19	n/a	n/a	n/a	n/a	0	0	0
4045583	PROB	n/a	LTP366	ltpFR2	20	n/a	n/a	n/a	28	10	1	8	1
4046737	PROB	n/a	LTP366	ltpFR2	20	n/a	n/a	n/a	28	13	9	1	3
4047673	PROB	n/a	LTP366	ltpFR2	20	n/a	n/a	n/a	28	16	9	4	3
4048994	PROB	n/a	LTP366	ltpFR2	20	n/a	n/a	n/a	28	17	8	3	6
4051000	PROB	n/a	LTP366	ltpFR2	20	n/a	n/a	n/a	28	10	7	2	1
4052004	PROB	n/a	LTP366	ltpFR2	20	n/a	n/a	n/a	28	11	4	2	5
4053223	PROB	n/a	LTP366	ltpFR2	20	n/a	n/a	n/a	28	21	4	9	8
4055665	PROB	n/a	LTP366	ltpFR2	20	n/a	n/a	n/a	28	8	4	1	3
4057672	PROB	n/a	LTP366	ltpFR2	20	n/a	n/a	n/a	28	18	9	8	1
4058960	PROB	n/a	LTP366	ltpFR2	20	n/a	n/a	n/a	28	17	2	7	8
4060682	PROB	n/a	LTP366	ltpFR2	20	n/a	n/a	n/a	28	17	6	6	5
4061920	PROB	n/a	LTP366	ltpFR2	20	n/a	n/a	n/a	28	16	5	7	4
4063239	PROB	n/a	LTP366	ltpFR2	20	n/a	n/a	n/a	28	9	3	4	2
4064377	PROB	n/a	LTP366	ltpFR2	20	n/a	n/a	n/a	28	17	1	8	8
4065598	PROB	n/a	LTP366	ltpFR2	20	n/a	n/a	n/a	28	12	1	4	7
4066718	PROB	n/a	LTP366	ltpFR2	20	n/a	n/a	n/a	28	18	9	3	6
4067970	STOP	n/a	LTP366	ltpFR2	20	n/a	n/a	n/a	28	n/a	n/a	n/a	n/a
4070598	REC_START	n/a	LTP366	ltpFR2	20	19	n/a	n/a	n/a	n/a	0	0	0
4071112	REC_WORD	wordpools/wasnorm_wordpool_576.txt	LTP366	ltpFR2	20	19	LETTUCE	814	n/a	n/a	0	0	0
4073925	REC_WORD	wordpools/wasnorm_wordpool_576.txt	LTP366	ltpFR2	20	19	SECT	-1	n/a	n/a	0	0	0
4075930	REC_WORD	wordpools/wasnorm_wordpool_576.txt	LTP366	ltpFR2	20	19	PIZZA	1079	n/a	n/a	0	0	0
4078601	REC_WORD	wordpools/wasnorm_wordpool_576.txt	LTP366	ltpFR2	20	19	PLAID	1080	n/a	n/a	0	0	0
4084359	REC_WORD	wordpools/wasnorm_wordpool_576.txt	LTP366	ltpFR2	20	19	CASE	-1	n/a	n/a	0	0	0
4084999	REC_WORD	wordpools/wasnorm_wordpool_576.txt	LTP366	ltpFR2	20	19	BRIEFCASE	175	n/a	n/a	0	0	0
4097915	REC_WORD	wordpools/wasnorm_wordpool_576.txt	LTP366	ltpFR2	20	19	SUNSET	1408	n/a	n/a	0	0	0
4134539	REC_WORD	wordpools/wasnorm_wordpool_576.txt	LTP366	ltpFR2	20	19	WASP	1593	n/a	n/a	0	0	0
4161057	DISTRACTOR	n/a	LTP366	ltpFR2	20	20	n/a	n/a	n/a	n/a	0	0	0
4161057	START	n/a	LTP366	ltpFR2	20	n/a	n/a	n/a	29	n/a	n/a	n/a	n/a
4161074	PROB	n/a	LTP366	ltpFR2	20	n/a	n/a	n/a	29	18	9	4	5
4163933	PROB	n/a	LTP366	ltpFR2	20	n/a	n/a	n/a	29	14	6	3	5
4165003	PROB	n/a	LTP366	ltpFR2	20	n/a	n/a	n/a	29	18	3	6	9
4166106	PROB	n/a	LTP366	ltpFR2	20	n/a	n/a	n/a	29	17	9	7	1
4167242	PROB	n/a	LTP366	ltpFR2	20	n/a	n/a	n/a	29	18	9	1	8
4168246	PROB	n/a	LTP366	ltpFR2	20	n/a	n/a	n/a	29	14	6	3	5
4169384	PROB	n/a	LTP366	ltpFR2	20	n/a	n/a	n/a	29	18	3	9	6
4171173	PROB	n/a	LTP366	ltpFR2	20	n/a	n/a	n/a	29	11	5	4	2
4172242	PROB	n/a	LTP366	ltpFR2	20	n/a	n/a	n/a	29	19	7	4	8
4173380	PROB	n/a	LTP366	ltpFR2	20	n/a	n/a	n/a	29	16	7	2	7
4174567	PROB	n/a	LTP366	ltpFR2	20	n/a	n/a	n/a	29	9	1	4	4
4175470	PROB	n/a	LTP366	ltpFR2	20	n/a	n/a	n/a	29	9	3	3	3
4176390	PROB	n/a	LTP366	ltpFR2	20	n/a	n/a	n/a	29	10	1	1	8
4177427	PROB	n/a	LTP366	ltpFR2	20	n/a	n/a	n/a	29	14	2	6	6
4178998	PROB	n/a	LTP366	ltpFR2	20	n/a	n/a	n/a	29	13	3	4	6
4180369	PROB	n/a	LTP366	ltpFR2	20	n/a	n/a	n/a	29	12	1	3	8
4181824	PROB	n/a	LTP366	ltpFR2	20	n/a	n/a	n/a	29	14	6	2	6
4183095	PROB	n/a	LTP366	ltpFR2	20	n/a	n/a	n/a	29	16	7	2	7
4184181	STOP	n/a	LTP366	ltpFR2	20	n/a	n/a	n/a	29	n/a	n/a	n/a	n/a
4186272	WORD	wordpools/wasnorm_wordpool_576.txt	LTP366	ltpFR2	20	20	PAPER	1011	n/a	n/a	0	0	0
4188847	WORD	wordpools/wasnorm_wordpool_576.txt	LTP366	ltpFR2	20	20	XEROX	1628	n/a	n/a	0	0	0
4191639	WORD	wordpools/wasnorm_wordpool_576.txt	LTP366	ltpFR2	20	20	THREAD	1460	n/a	n/a	0	0	0
4194432	WORD	wordpools/wasnorm_wordpool_576.txt	LTP366	ltpFR2	20	20	SHELTER	1282	n/a	n/a	0	0	0
4196940	WORD	wordpools/wasnorm_wordpool_576.txt	LTP366	ltpFR2	20	20	WARDROBE	1587	n/a	n/a	0	0	0
4199699	WORD	wordpools/wasnorm_wordpool_576.txt	LTP366	ltpFR2	20	20	RUST	1219	n/a	n/a	0	0	0
4202374	WORD	wordpools/wasnorm_wordpool_576.txt	LTP366	ltpFR2	20	20	BACON	67	n/a	n/a	0	0	0
4204932	WORD	wordpools/wasnorm_wordpool_576.txt	LTP366	ltpFR2	20	20	PICNIC	1060	n/a	n/a	0	0	0
4207574	WORD	wordpools/wasnorm_wordpool_576.txt	LTP366	ltpFR2	20	20	PLASTER	1085	n/a	n/a	0	0	0
4210099	WORD	wordpools/wasnorm_wordpool_576.txt	LTP366	ltpFR2	20	20	LONDON	843	n/a	n/a	0	0	0
4212875	WORD	wordpools/wasnorm_wordpool_576.txt	LTP366	ltpFR2	20	20	COUCH	386	n/a	n/a	0	0	0
4215550	WORD	wordpools/wasnorm_wordpool_576.txt	LTP366	ltpFR2	20	20	COUNTY	389	n/a	n/a	0	0	0
4218158	WORD	wordpools/wasnorm_wordpool_576.txt	LTP366	ltpFR2	20	20	GYMNAST	675	n/a	n/a	0	0	0
4220850	WORD	wordpools/wasnorm_wordpool_576.txt	LTP366	ltpFR2	20	20	STUDENT	1395	n/a	n/a	0	0	0
4223308	WORD	wordpools/wasnorm_wordpool_576.txt	LTP366	ltpFR2	20	20	FINGER	567	n/a	n/a	0	0	0
4225985	WORD	wordpools/wasnorm_wordpool_576.txt	LTP366	ltpFR2	20	20	LAMP	798	n/a	n/a	0	0	0
4228759	WORD	wordpools/wasnorm_wordpool_576.txt	LTP366	ltpFR2	20	20	COFFEE	341	n/a	n/a	0	0	0
4231502	WORD	wordpools/wasnorm_wordpool_576.txt	LTP366	ltpFR2	20	20	GLOVE	642	n/a	n/a	0	0	0
4234077	WORD	wordpools/wasnorm_wordpool_576.txt	LTP366	ltpFR2	20	20	POPCORN	1104	n/a	n/a	0	0	0
4236535	WORD	wordpools/wasnorm_wordpool_576.txt	LTP366	ltpFR2	20	20	COLLEGE	346	n/a	n/a	0	0	0
4239143	WORD	wordpools/wasnorm_wordpool_576.txt	LTP366	ltpFR2	20	20	FLAG	573	n/a	n/a	0	0	0
4241953	WORD	wordpools/wasnorm_wordpool_576.txt	LTP366	ltpFR2	20	20	FRAME	600	n/a	n/a	0	0	0
4244477	WORD	wordpools/wasnorm_wordpool_576.txt	LTP366	ltpFR2	20	20	PICTURE	1061	n/a	n/a	0	0	0
4247069	WORD	wordpools/wasnorm_wordpool_576.txt	LTP366	ltpFR2	20	20	WITNESS	1618	n/a	n/a	0	0	0
4248674	START	n/a	LTP366	ltpFR2	20	n/a	n/a	n/a	30	n/a	n/a	n/a	n/a
4249543	DISTRACTOR	n/a	LTP366	ltpFR2	20	20	n/a	n/a	n/a	n/a	0	0	0
4249560	PROB	n/a	LTP366	ltpFR2	20	n/a	n/a	n/a	30	8	1	1	6
4250680	PROB	n/a	LTP366	ltpFR2	20	n/a	n/a	n/a	30	22	9	6	7
4251868	PROB	n/a	LTP366	ltpFR2	20	n/a	n/a	n/a	30	17	5	3	9
4253055	PROB	n/a	LTP366	ltpFR2	20	n/a	n/a	n/a	30	18	3	7	8
4254092	PROB	n/a	LTP366	ltpFR2	20	n/a	n/a	n/a	30	12	2	3	7
4255161	PROB	n/a	LTP366	ltpFR2	20	n/a	n/a	n/a	30	17	8	7	2
4256750	PROB	n/a	LTP366	ltpFR2	20	n/a	n/a	n/a	30	17	6	8	3
4258155	PROB	n/a	LTP366	ltpFR2	20	n/a	n/a	n/a	30	15	5	2	8
4259659	PROB	n/a	LTP366	ltpFR2	20	n/a	n/a	n/a	30	16	3	5	8
4261047	PROB	n/a	LTP366	ltpFR2	20	n/a	n/a	n/a	30	10	3	5	2
4262502	PROB	n/a	LTP366	ltpFR2	20	n/a	n/a	n/a	30	7	4	1	2
4263806	PROB	n/a	LTP366	ltpFR2	20	n/a	n/a	n/a	30	14	6	4	4
4265177	PROB	n/a	LTP366	ltpFR2	20	n/a	n/a	n/a	30	14	9	4	1
4266264	PROB	n/a	LTP366	ltpFR2	20	n/a	n/a	n/a	30	14	4	2	8
4269073	PROB	n/a	LTP366	ltpFR2	20	n/a	n/a	n/a	30	18	9	7	2
4270495	PROB	n/a	LTP366	ltpFR2	20	n/a	n/a	n/a	30	10	5	3	2
4271744	STOP	n/a	LTP366	ltpFR2	20	n/a	n/a	n/a	30	n/a	n/a	n/a	n/a
4274475	REC_START	n/a	LTP366	ltpFR2	20	20	n/a	n/a	n/a	n/a	0	0	0
4275782	REC_WORD	wordpools/wasnorm_wordpool_576.txt	LTP366	ltpFR2	20	20	COLLEGE	346	n/a	n/a	0	0	0
4277928	REC_WORD	wordpools/wasnorm_wordpool_576.txt	LTP366	ltpFR2	20	20	STUDENT	1395	n/a	n/a	0	0	0
4281161	REC_WORD	wordpools/wasnorm_wordpool_576.txt	LTP366	ltpFR2	20	20	FRAME	600	n/a	n/a	0	0	0
4292826	REC_WORD	wordpools/wasnorm_wordpool_576.txt	LTP366	ltpFR2	20	20	WITNESS	1618	n/a	n/a	0	0	0
4297366	REC_WORD	wordpools/wasnorm_wordpool_576.txt	LTP366	ltpFR2	20	20	LONDON	843	n/a	n/a	0	0	0
4298157	REC_WORD	wordpools/wasnorm_wordpool_576.txt	LTP366	ltpFR2	20	20	PLASTER	1085	n/a	n/a	0	0	0
4298909	REC_WORD	wordpools/wasnorm_wordpool_576.txt	LTP366	ltpFR2	20	20	COUCH	386	n/a	n/a	0	0	0
4320751	REC_WORD	wordpools/wasnorm_wordpool_576.txt	LTP366	ltpFR2	20	20	ATLAS	53	n/a	n/a	0	0	0
4364934	WORD	wordpools/wasnorm_wordpool_576.txt	LTP366	ltpFR2	20	21	DONOR	485	n/a	n/a	0	0	0
4367609	WORD	wordpools/wasnorm_wordpool_576.txt	LTP366	ltpFR2	20	21	MOP	916	n/a	n/a	0	0	0
4370301	WORD	wordpools/wasnorm_wordpool_576.txt	LTP366	ltpFR2	20	21	BRACES	164	n/a	n/a	0	0	0
