mstime	trial_type	stim_file	subject	experiment	session	trial	task	item_name	item_num	recog_resp	recog_conf	resp	answer	test_x	test_y	test_z	color_r	color_g	color_b	case	font
0	SESS_START	n/a	LTP111	ltpFR	8	n/a	n/a	n/a	n/a	0	1	n/a	n/a	0	0	0	n/a	n/a	n/a	n/a	n/a
27919	START	n/a	LTP111	ltpFR	8	n/a	n/a	n/a	n/a	n/a	n/a	n/a	n/a	n/a	n/a	n/a	n/a	n/a	n/a	n/a	n/a
27943	PROB	n/a	LTP111	ltpFR	8	n/a	n/a	n/a	n/a	n/a	n/a	n/a	8	2	1	4	n/a	n/a	n/a	n/a	n/a
34502	PROB	n/a	LTP111	ltpFR	8	n/a	n/a	n/a	n/a	n/a	n/a	n/a	19	3	7	9	n/a	n/a	n/a	n/a	n/a
40553	PROB	n/a	LTP111	ltpFR	8	n/a	n/a	n/a	n/a	n/a	n/a	n/a	14	3	6	5	n/a	n/a	n/a	n/a	n/a
43482	PROB	n/a	LTP111	ltpFR	8	n/a	n/a	n/a	n/a	n/a	n/a	n/a	15	7	3	5	n/a	n/a	n/a	n/a	n/a
45589	PROB	n/a	LTP111	ltpFR	8	n/a	n/a	n/a	n/a	n/a	n/a	n/a	17	7	1	9	n/a	n/a	n/a	n/a	n/a
47390	STOP	n/a	LTP111	ltpFR	8	n/a	n/a	n/a	n/a	n/a	n/a	n/a	n/a	n/a	n/a	n/a	n/a	n/a	n/a	n/a	n/a
80923	WORD	wordpools/wasnorm_wordpool.txt	LTP111	ltpFR	8	1	0	VEIN	1554	0	n/a	0	n/a	0	0	0	0.422607421875	0.5869140625	0	lower	amplitud.ttf
84760	WORD	wordpools/wasnorm_wordpool.txt	LTP111	ltpFR	8	1	0	WOUND	1624	n/a	n/a	1	n/a	0	0	0	0.422607421875	0.5869140625	0	lower	amplitud.ttf
88714	WORD	wordpools/wasnorm_wordpool.txt	LTP111	ltpFR	8	1	1	DENIM	446	n/a	n/a	1	n/a	0	0	0	0.57763671875	0.412841796875	1	upper	zerothre.ttf
92801	WORD	wordpools/wasnorm_wordpool.txt	LTP111	ltpFR	8	1	1	BEAST	108	n/a	n/a	1	n/a	0	0	0	0.57763671875	0.412841796875	1	upper	zerothre.ttf
96930	WORD	wordpools/wasnorm_wordpool.txt	LTP111	ltpFR	8	1	1	POSSUM	1112	n/a	n/a	1	n/a	0	0	0	0.57763671875	0.412841796875	1	upper	zerothre.ttf
100842	WORD	wordpools/wasnorm_wordpool.txt	LTP111	ltpFR	8	1	1	MEADOW	881	n/a	n/a	0	n/a	0	0	0	0.57763671875	0.412841796875	1	upper	zerothre.ttf
104721	WORD	wordpools/wasnorm_wordpool.txt	LTP111	ltpFR	8	1	1	CANARY	227	n/a	n/a	1	n/a	0	0	0	0.57763671875	0.412841796875	1	upper	zerothre.ttf
108533	WORD	wordpools/wasnorm_wordpool.txt	LTP111	ltpFR	8	1	1	SCREWDRIVER	1255	n/a	n/a	0	n/a	0	0	0	0.57763671875	0.412841796875	1	upper	zerothre.ttf
112553	WORD	wordpools/wasnorm_wordpool.txt	LTP111	ltpFR	8	1	0	SPOON	1357	n/a	n/a	0	n/a	0	0	0	0.422607421875	0.5869140625	0	lower	amplitud.ttf
116456	WORD	wordpools/wasnorm_wordpool.txt	LTP111	ltpFR	8	1	0	SPAGHETTI	1346	n/a	n/a	0	n/a	0	0	0	0.422607421875	0.5869140625	0	lower	amplitud.ttf
120451	WORD	wordpools/wasnorm_wordpool.txt	LTP111	ltpFR	8	1	1	WRIST	1626	n/a	n/a	0	n/a	0	0	0	0.57763671875	0.412841796875	1	upper	zerothre.ttf
124631	WORD	wordpools/wasnorm_wordpool.txt	LTP111	ltpFR	8	1	1	FINGER	567	n/a	n/a	1	n/a	0	0	0	0.57763671875	0.412841796875	1	upper	zerothre.ttf
128526	WORD	wordpools/wasnorm_wordpool.txt	LTP111	ltpFR	8	1	0	FLOWER	584	n/a	n/a	0	n/a	0	0	0	0.422607421875	0.5869140625	0	lower	amplitud.ttf
132437	WORD	wordpools/wasnorm_wordpool.txt	LTP111	ltpFR	8	1	0	PENGUIN	1044	n/a	n/a	0	n/a	0	0	0	0.422607421875	0.5869140625	0	lower	amplitud.ttf
136251	WORD	wordpools/wasnorm_wordpool.txt	LTP111	ltpFR	8	1	0	KEG	770	n/a	n/a	1	n/a	0	0	0	0.422607421875	0.5869140625	0	lower	amplitud.ttf
140288	WORD	wordpools/wasnorm_wordpool.txt	LTP111	ltpFR	8	1	0	CACTUS	215	n/a	n/a	0	n/a	0	0	0	0.422607421875	0.5869140625	0	lower	amplitud.ttf
143293	START	n/a	LTP111	ltpFR	8	n/a	n/a	n/a	n/a	n/a	n/a	n/a	n/a	n/a	n/a	n/a	n/a	n/a	n/a	n/a	n/a
144150	PROB	n/a	LTP111	ltpFR	8	n/a	n/a	n/a	n/a	n/a	n/a	n/a	19	3	7	9	n/a	n/a	n/a	n/a	n/a
151293	STOP	n/a	LTP111	ltpFR	8	n/a	n/a	n/a	n/a	n/a	n/a	n/a	n/a	n/a	n/a	n/a	n/a	n/a	n/a	n/a	n/a
153182	REC_START	n/a	LTP111	ltpFR	8	1	n/a	n/a	n/a	n/a	n/a	n/a	n/a	0	0	0	n/a	n/a	n/a	n/a	n/a
155891	REC_WORD	wordpools/wasnorm_wordpool.txt	LTP111	ltpFR	8	1	0	WOUND	1624	n/a	n/a	1	n/a	0	0	0	n/a	n/a	n/a	n/a	n/a
158759	REC_WORD	wordpools/wasnorm_wordpool.txt	LTP111	ltpFR	8	1	0	VEIN	1554	n/a	n/a	0	n/a	0	0	0	n/a	n/a	n/a	n/a	n/a
161463	REC_WORD	wordpools/wasnorm_wordpool.txt	LTP111	ltpFR	8	1	1	BEAST	108	n/a	n/a	1	n/a	0	0	0	n/a	n/a	n/a	n/a	n/a
163917	REC_WORD	wordpools/wasnorm_wordpool.txt	LTP111	ltpFR	8	1	1	SCREWDRIVER	1255	n/a	n/a	0	n/a	0	0	0	n/a	n/a	n/a	n/a	n/a
164917	REC_WORD_VV	wordpools/wasnorm_wordpool.txt	LTP111	ltpFR	8	1	n/a	<>	-1	n/a	n/a	n/a	n/a	0	0	0	n/a	n/a	n/a	n/a	n/a
166466	REC_WORD	wordpools/wasnorm_wordpool.txt	LTP111	ltpFR	8	1	0	SPAGHETTI	1346	n/a	n/a	0	n/a	0	0	0	n/a	n/a	n/a	n/a	n/a
169061	REC_WORD	wordpools/wasnorm_wordpool.txt	LTP111	ltpFR	8	1	1	MEADOW	881	n/a	n/a	0	n/a	0	0	0	n/a	n/a	n/a	n/a	n/a
171884	REC_WORD	wordpools/wasnorm_wordpool.txt	LTP111	ltpFR	8	1	0	PENGUIN	1044	n/a	n/a	0	n/a	0	0	0	n/a	n/a	n/a	n/a	n/a
174249	REC_WORD	wordpools/wasnorm_wordpool.txt	LTP111	ltpFR	8	1	1	CANARY	227	n/a	n/a	1	n/a	0	0	0	n/a	n/a	n/a	n/a	n/a
176818	REC_WORD	wordpools/wasnorm_wordpool.txt	LTP111	ltpFR	8	1	0	KEG	770	n/a	n/a	1	n/a	0	0	0	n/a	n/a	n/a	n/a	n/a
179037	REC_WORD	wordpools/wasnorm_wordpool.txt	LTP111	ltpFR	8	1	1	FINGER	567	n/a	n/a	1	n/a	0	0	0	n/a	n/a	n/a	n/a	n/a
200943	REC_WORD	wordpools/wasnorm_wordpool.txt	LTP111	ltpFR	8	1	1	DENIM	446	n/a	n/a	1	n/a	0	0	0	n/a	n/a	n/a	n/a	n/a
233755	START	n/a	LTP111	ltpFR	8	n/a	n/a	n/a	n/a	n/a	n/a	n/a	n/a	n/a	n/a	n/a	n/a	n/a	n/a	n/a	n/a
241754	STOP	n/a	LTP111	ltpFR	8	n/a	n/a	n/a	n/a	n/a	n/a	n/a	n/a	n/a	n/a	n/a	n/a	n/a	n/a	n/a	n/a
242760	WORD	wordpools/wasnorm_wordpool.txt	LTP111	ltpFR	8	2	0	PICNIC	1060	n/a	n/a	0	n/a	0	0	0	0.422607421875	0.5869140625	0	lower	amplitud.ttf
245766	START	n/a	LTP111	ltpFR	8	n/a	n/a	n/a	n/a	n/a	n/a	n/a	n/a	n/a	n/a	n/a	n/a	n/a	n/a	n/a	n/a
246939	PROB	n/a	LTP111	ltpFR	8	n/a	n/a	n/a	n/a	n/a	n/a	n/a	20	4	8	8	n/a	n/a	n/a	n/a	n/a
249919	PROB	n/a	LTP111	ltpFR	8	n/a	n/a	n/a	n/a	n/a	n/a	n/a	13	8	1	5	n/a	n/a	n/a	n/a	n/a
253766	STOP	n/a	LTP111	ltpFR	8	n/a	n/a	n/a	n/a	n/a	n/a	n/a	n/a	n/a	n/a	n/a	n/a	n/a	n/a	n/a	n/a
254638	WORD	wordpools/wasnorm_wordpool.txt	LTP111	ltpFR	8	2	0	CABBAGE	210	n/a	n/a	0	n/a	0	0	0	0.422607421875	0.5869140625	0	lower	amplitud.ttf
257644	START	n/a	LTP111	ltpFR	8	n/a	n/a	n/a	n/a	n/a	n/a	n/a	n/a	n/a	n/a	n/a	n/a	n/a	n/a	n/a	n/a
258758	PROB	n/a	LTP111	ltpFR	8	n/a	n/a	n/a	n/a	n/a	n/a	n/a	6	2	2	2	n/a	n/a	n/a	n/a	n/a
265644	STOP	n/a	LTP111	ltpFR	8	n/a	n/a	n/a	n/a	n/a	n/a	n/a	n/a	n/a	n/a	n/a	n/a	n/a	n/a	n/a	n/a
266516	WORD	wordpools/wasnorm_wordpool.txt	LTP111	ltpFR	8	2	1	ISLAND	745	n/a	n/a	0	n/a	0	0	0	0.57763671875	0.412841796875	1	upper	zerothre.ttf
269521	START	n/a	LTP111	ltpFR	8	n/a	n/a	n/a	n/a	n/a	n/a	n/a	n/a	n/a	n/a	n/a	n/a	n/a	n/a	n/a	n/a
270486	PROB	n/a	LTP111	ltpFR	8	n/a	n/a	n/a	n/a	n/a	n/a	n/a	15	5	6	4	n/a	n/a	n/a	n/a	n/a
276526	STOP	n/a	LTP111	ltpFR	8	n/a	n/a	n/a	n/a	n/a	n/a	n/a	n/a	n/a	n/a	n/a	n/a	n/a	n/a	n/a	n/a
278569	WORD	wordpools/wasnorm_wordpool.txt	LTP111	ltpFR	8	2	1	SUPERMARKET	1409	n/a	n/a	0	n/a	0	0	0	0.57763671875	0.412841796875	1	upper	zerothre.ttf
281574	START	n/a	LTP111	ltpFR	8	n/a	n/a	n/a	n/a	n/a	n/a	n/a	n/a	n/a	n/a	n/a	n/a	n/a	n/a	n/a	n/a
282523	PROB	n/a	LTP111	ltpFR	8	n/a	n/a	n/a	n/a	n/a	n/a	n/a	20	8	4	8	n/a	n/a	n/a	n/a	n/a
289573	STOP	n/a	LTP111	ltpFR	8	n/a	n/a	n/a	n/a	n/a	n/a	n/a	n/a	n/a	n/a	n/a	n/a	n/a	n/a	n/a	n/a
290713	WORD	wordpools/wasnorm_wordpool.txt	LTP111	ltpFR	8	2	0	COYOTE	396	n/a	n/a	n/a	n/a	0	0	0	0.422607421875	0.5869140625	0	lower	amplitud.ttf
293734	SLOW_MSG	n/a	LTP111	ltpFR	8	2	n/a	n/a	n/a	n/a	n/a	n/a	n/a	0	0	0	n/a	n/a	n/a	n/a	n/a
295250	START	n/a	LTP111	ltpFR	8	n/a	n/a	n/a	n/a	n/a	n/a	n/a	n/a	n/a	n/a	n/a	n/a	n/a	n/a	n/a	n/a
296165	PROB	n/a	LTP111	ltpFR	8	n/a	n/a	n/a	n/a	n/a	n/a	n/a	14	4	9	1	n/a	n/a	n/a	n/a	n/a
303250	STOP	n/a	LTP111	ltpFR	8	n/a	n/a	n/a	n/a	n/a	n/a	n/a	n/a	n/a	n/a	n/a	n/a	n/a	n/a	n/a	n/a
304172	WORD	wordpools/wasnorm_wordpool.txt	LTP111	ltpFR	8	2	0	FARM	552	n/a	n/a	0	n/a	0	0	0	0.422607421875	0.5869140625	0	lower	amplitud.ttf
307178	START	n/a	LTP111	ltpFR	8	n/a	n/a	n/a	n/a	n/a	n/a	n/a	n/a	n/a	n/a	n/a	n/a	n/a	n/a	n/a	n/a
308060	PROB	n/a	LTP111	ltpFR	8	n/a	n/a	n/a	n/a	n/a	n/a	n/a	13	4	4	7	n/a	n/a	n/a	n/a	n/a
313838	STOP	n/a	LTP111	ltpFR	8	n/a	n/a	n/a	n/a	n/a	n/a	n/a	n/a	n/a	n/a	n/a	n/a	n/a	n/a	n/a	n/a
316283	WORD	wordpools/wasnorm_wordpool.txt	LTP111	ltpFR	8	2	0	STETHOSCOPE	1379	n/a	n/a	0	n/a	0	0	0	0.422607421875	0.5869140625	0	lower	amplitud.ttf
319289	START	n/a	LTP111	ltpFR	8	n/a	n/a	n/a	n/a	n/a	n/a	n/a	n/a	n/a	n/a	n/a	n/a	n/a	n/a	n/a	n/a
320469	PROB	n/a	LTP111	ltpFR	8	n/a	n/a	n/a	n/a	n/a	n/a	n/a	14	9	4	1	n/a	n/a	n/a	n/a	n/a
322917	PROB	n/a	LTP111	ltpFR	8	n/a	n/a	n/a	n/a	n/a	n/a	n/a	17	7	5	5	n/a	n/a	n/a	n/a	n/a
324665	PROB	n/a	LTP111	ltpFR	8	n/a	n/a	n/a	n/a	n/a	n/a	n/a	7	4	1	2	n/a	n/a	n/a	n/a	n/a
326742	STOP	n/a	LTP111	ltpFR	8	n/a	n/a	n/a	n/a	n/a	n/a	n/a	n/a	n/a	n/a	n/a	n/a	n/a	n/a	n/a	n/a
328120	WORD	wordpools/wasnorm_wordpool.txt	LTP111	ltpFR	8	2	0	DOCTOR	478	n/a	n/a	0	n/a	0	0	0	0.422607421875	0.5869140625	0	lower	amplitud.ttf
331125	START	n/a	LTP111	ltpFR	8	n/a	n/a	n/a	n/a	n/a	n/a	n/a	n/a	n/a	n/a	n/a	n/a	n/a	n/a	n/a	n/a
332065	PROB	n/a	LTP111	ltpFR	8	n/a	n/a	n/a	n/a	n/a	n/a	n/a	21	3	9	9	n/a	n/a	n/a	n/a	n/a
337886	STOP	n/a	LTP111	ltpFR	8	n/a	n/a	n/a	n/a	n/a	n/a	n/a	n/a	n/a	n/a	n/a	n/a	n/a	n/a	n/a	n/a
340189	WORD	wordpools/wasnorm_wordpool.txt	LTP111	ltpFR	8	2	0	PAINTER	1004	n/a	n/a	0	n/a	0	0	0	0.422607421875	0.5869140625	0	lower	amplitud.ttf
343194	START	n/a	LTP111	ltpFR	8	n/a	n/a	n/a	n/a	n/a	n/a	n/a	n/a	n/a	n/a	n/a	n/a	n/a	n/a	n/a	n/a
344342	PROB	n/a	LTP111	ltpFR	8	n/a	n/a	n/a	n/a	n/a	n/a	n/a	18	7	6	5	n/a	n/a	n/a	n/a	n/a
351194	STOP	n/a	LTP111	ltpFR	8	n/a	n/a	n/a	n/a	n/a	n/a	n/a	n/a	n/a	n/a	n/a	n/a	n/a	n/a	n/a	n/a
352033	WORD	wordpools/wasnorm_wordpool.txt	LTP111	ltpFR	8	2	0	CANVAS	234	n/a	n/a	0	n/a	0	0	0	0.422607421875	0.5869140625	0	lower	amplitud.ttf
355039	START	n/a	LTP111	ltpFR	8	n/a	n/a	n/a	n/a	n/a	n/a	n/a	n/a	n/a	n/a	n/a	n/a	n/a	n/a	n/a	n/a
363039	STOP	n/a	LTP111	ltpFR	8	n/a	n/a	n/a	n/a	n/a	n/a	n/a	n/a	n/a	n/a	n/a	n/a	n/a	n/a	n/a	n/a
364095	WORD	wordpools/wasnorm_wordpool.txt	LTP111	ltpFR	8	2	1	MAYONNAISE	880	n/a	n/a	0	n/a	0	0	0	0.57763671875	0.412841796875	1	upper	zerothre.ttf
367100	START	n/a	LTP111	ltpFR	8	n/a	n/a	n/a	n/a	n/a	n/a	n/a	n/a	n/a	n/a	n/a	n/a	n/a	n/a	n/a	n/a
367957	PROB	n/a	LTP111	ltpFR	8	n/a	n/a	n/a	n/a	n/a	n/a	n/a	12	5	1	6	n/a	n/a	n/a	n/a	n/a
375100	STOP	n/a	LTP111	ltpFR	8	n/a	n/a	n/a	n/a	n/a	n/a	n/a	n/a	n/a	n/a	n/a	n/a	n/a	n/a	n/a	n/a
376064	WORD	wordpools/wasnorm_wordpool.txt	LTP111	ltpFR	8	2	1	QUAIL	1147	n/a	n/a	1	n/a	0	0	0	0.57763671875	0.412841796875	1	upper	zerothre.ttf
379069	START	n/a	LTP111	ltpFR	8	n/a	n/a	n/a	n/a	n/a	n/a	n/a	n/a	n/a	n/a	n/a	n/a	n/a	n/a	n/a	n/a
380134	PROB	n/a	LTP111	ltpFR	8	n/a	n/a	n/a	n/a	n/a	n/a	n/a	13	5	1	7	n/a	n/a	n/a	n/a	n/a
387069	STOP	n/a	LTP111	ltpFR	8	n/a	n/a	n/a	n/a	n/a	n/a	n/a	n/a	n/a	n/a	n/a	n/a	n/a	n/a	n/a	n/a
388025	WORD	wordpools/wasnorm_wordpool.txt	LTP111	ltpFR	8	2	1	SQUID	1361	n/a	n/a	1	n/a	0	0	0	0.57763671875	0.412841796875	1	upper	zerothre.ttf
391030	START	n/a	LTP111	ltpFR	8	n/a	n/a	n/a	n/a	n/a	n/a	n/a	n/a	n/a	n/a	n/a	n/a	n/a	n/a	n/a	n/a
391895	PROB	n/a	LTP111	ltpFR	8	n/a	n/a	n/a	n/a	n/a	n/a	n/a	16	4	8	4	n/a	n/a	n/a	n/a	n/a
396481	PROB	n/a	LTP111	ltpFR	8	n/a	n/a	n/a	n/a	n/a	n/a	n/a	4	2	1	2	n/a	n/a	n/a	n/a	n/a
398150	STOP	n/a	LTP111	ltpFR	8	n/a	n/a	n/a	n/a	n/a	n/a	n/a	n/a	n/a	n/a	n/a	n/a	n/a	n/a	n/a	n/a
400036	WORD	wordpools/wasnorm_wordpool.txt	LTP111	ltpFR	8	2	1	MARSH	874	n/a	n/a	1	n/a	0	0	0	0.57763671875	0.412841796875	1	upper	zerothre.ttf
403042	START	n/a	LTP111	ltpFR	8	n/a	n/a	n/a	n/a	n/a	n/a	n/a	n/a	n/a	n/a	n/a	n/a	n/a	n/a	n/a	n/a
404106	PROB	n/a	LTP111	ltpFR	8	n/a	n/a	n/a	n/a	n/a	n/a	n/a	17	4	8	5	n/a	n/a	n/a	n/a	n/a
411042	STOP	n/a	LTP111	ltpFR	8	n/a	n/a	n/a	n/a	n/a	n/a	n/a	n/a	n/a	n/a	n/a	n/a	n/a	n/a	n/a	n/a
411914	WORD	wordpools/wasnorm_wordpool.txt	LTP111	ltpFR	8	2	1	TOMATO	1476	n/a	n/a	1	n/a	0	0	0	0.57763671875	0.412841796875	1	upper	zerothre.ttf
414919	START	n/a	LTP111	ltpFR	8	n/a	n/a	n/a	n/a	n/a	n/a	n/a	n/a	n/a	n/a	n/a	n/a	n/a	n/a	n/a	n/a
415784	PROB	n/a	LTP111	ltpFR	8	n/a	n/a	n/a	n/a	n/a	n/a	n/a	21	8	6	8	n/a	n/a	n/a	n/a	n/a
422582	STOP	n/a	LTP111	ltpFR	8	n/a	n/a	n/a	n/a	n/a	n/a	n/a	n/a	n/a	n/a	n/a	n/a	n/a	n/a	n/a	n/a
424025	WORD	wordpools/wasnorm_wordpool.txt	LTP111	ltpFR	8	2	1	CAPE	237	n/a	n/a	n/a	n/a	0	0	0	0.57763671875	0.412841796875	1	upper	zerothre.ttf
427046	SLOW_MSG	n/a	LTP111	ltpFR	8	2	n/a	n/a	n/a	n/a	n/a	n/a	n/a	0	0	0	n/a	n/a	n/a	n/a	n/a
428562	START	n/a	LTP111	ltpFR	8	n/a	n/a	n/a	n/a	n/a	n/a	n/a	n/a	n/a	n/a	n/a	n/a	n/a	n/a	n/a	n/a
429419	PROB	n/a	LTP111	ltpFR	8	n/a	n/a	n/a	n/a	n/a	n/a	n/a	19	6	7	8	n/a	n/a	n/a	n/a	n/a
435262	STOP	n/a	LTP111	ltpFR	8	n/a	n/a	n/a	n/a	n/a	n/a	n/a	n/a	n/a	n/a	n/a	n/a	n/a	n/a	n/a	n/a
438424	REC_START	n/a	LTP111	ltpFR	8	2	n/a	n/a	n/a	n/a	n/a	n/a	n/a	0	0	0	n/a	n/a	n/a	n/a	n/a
441791	REC_WORD	wordpools/wasnorm_wordpool.txt	LTP111	ltpFR	8	2	0	PICNIC	1060	n/a	n/a	0	n/a	0	0	0	n/a	n/a	n/a	n/a	n/a
443876	REC_WORD	wordpools/wasnorm_wordpool.txt	LTP111	ltpFR	8	2	1	ISLAND	745	n/a	n/a	0	n/a	0	0	0	n/a	n/a	n/a	n/a	n/a
446326	REC_WORD	wordpools/wasnorm_wordpool.txt	LTP111	ltpFR	8	2	0	CABBAGE	210	n/a	n/a	0	n/a	0	0	0	n/a	n/a	n/a	n/a	n/a
449070	REC_WORD	wordpools/wasnorm_wordpool.txt	LTP111	ltpFR	8	2	1	TOMATO	1476	n/a	n/a	1	n/a	0	0	0	n/a	n/a	n/a	n/a	n/a
452137	REC_WORD	wordpools/wasnorm_wordpool.txt	LTP111	ltpFR	8	2	1	CANARY	227	n/a	n/a	1	n/a	0	0	0	n/a	n/a	n/a	n/a	n/a
454772	REC_WORD	wordpools/wasnorm_wordpool.txt	LTP111	ltpFR	8	2	0	DOCTOR	478	n/a	n/a	0	n/a	0	0	0	n/a	n/a	n/a	n/a	n/a
456866	REC_WORD	wordpools/wasnorm_wordpool.txt	LTP111	ltpFR	8	2	0	STETHOSCOPE	1379	n/a	n/a	0	n/a	0	0	0	n/a	n/a	n/a	n/a	n/a
459396	REC_WORD	wordpools/wasnorm_wordpool.txt	LTP111	ltpFR	8	2	0	PAINTER	1004	n/a	n/a	0	n/a	0	0	0	n/a	n/a	n/a	n/a	n/a
461162	REC_WORD	wordpools/wasnorm_wordpool.txt	LTP111	ltpFR	8	2	0	CANVAS	234	n/a	n/a	0	n/a	0	0	0	n/a	n/a	n/a	n/a	n/a
465337	REC_WORD	wordpools/wasnorm_wordpool.txt	LTP111	ltpFR	8	2	1	QUAIL	1147	n/a	n/a	1	n/a	0	0	0	n/a	n/a	n/a	n/a	n/a
516376	START	n/a	LTP111	ltpFR	8	n/a	n/a	n/a	n/a	n/a	n/a	n/a	n/a	n/a	n/a	n/a	n/a	n/a	n/a	n/a	n/a
517883	PROB	n/a	LTP111	ltpFR	8	n/a	n/a	n/a	n/a	n/a	n/a	n/a	10	3	5	2	n/a	n/a	n/a	n/a	n/a
520887	PROB	n/a	LTP111	ltpFR	8	n/a	n/a	n/a	n/a	n/a	n/a	n/a	6	4	1	1	n/a	n/a	n/a	n/a	n/a
524198	STOP	n/a	LTP111	ltpFR	8	n/a	n/a	n/a	n/a	n/a	n/a	n/a	n/a	n/a	n/a	n/a	n/a	n/a	n/a	n/a	n/a
525582	WORD	wordpools/wasnorm_wordpool.txt	LTP111	ltpFR	8	3	1	TEAM	1441	n/a	n/a	0	n/a	0	0	0	0.57763671875	0.412841796875	1	upper	zerothre.ttf
528587	START	n/a	LTP111	ltpFR	8	n/a	n/a	n/a	n/a	n/a	n/a	n/a	n/a	n/a	n/a	n/a	n/a	n/a	n/a	n/a	n/a
529727	PROB	n/a	LTP111	ltpFR	8	n/a	n/a	n/a	n/a	n/a	n/a	n/a	17	1	7	9	n/a	n/a	n/a	n/a	n/a
536587	STOP	n/a	LTP111	ltpFR	8	n/a	n/a	n/a	n/a	n/a	n/a	n/a	n/a	n/a	n/a	n/a	n/a	n/a	n/a	n/a	n/a
537676	WORD	wordpools/wasnorm_wordpool.txt	LTP111	ltpFR	8	3	1	CARD	243	n/a	n/a	0	n/a	0	0	0	0.57763671875	0.412841796875	1	upper	zerothre.ttf
540681	START	n/a	LTP111	ltpFR	8	n/a	n/a	n/a	n/a	n/a	n/a	n/a	n/a	n/a	n/a	n/a	n/a	n/a	n/a	n/a	n/a
541572	PROB	n/a	LTP111	ltpFR	8	n/a	n/a	n/a	n/a	n/a	n/a	n/a	11	5	1	5	n/a	n/a	n/a	n/a	n/a
543187	PROB	n/a	LTP111	ltpFR	8	n/a	n/a	n/a	n/a	n/a	n/a	n/a	9	6	2	1	n/a	n/a	n/a	n/a	n/a
545483	PROB	n/a	LTP111	ltpFR	8	n/a	n/a	n/a	n/a	n/a	n/a	n/a	12	5	3	4	n/a	n/a	n/a	n/a	n/a
548310	STOP	n/a	LTP111	ltpFR	8	n/a	n/a	n/a	n/a	n/a	n/a	n/a	n/a	n/a	n/a	n/a	n/a	n/a	n/a	n/a	n/a
549596	WORD	wordpools/wasnorm_wordpool.txt	LTP111	ltpFR	8	3	1	FOLLOWER	589	n/a	n/a	0	n/a	0	0	0	0.57763671875	0.412841796875	1	upper	zerothre.ttf
552601	START	n/a	LTP111	ltpFR	8	n/a	n/a	n/a	n/a	n/a	n/a	n/a	n/a	n/a	n/a	n/a	n/a	n/a	n/a	n/a	n/a
553666	PROB	n/a	LTP111	ltpFR	8	n/a	n/a	n/a	n/a	n/a	n/a	n/a	19	2	9	8	n/a	n/a	n/a	n/a	n/a
560601	STOP	n/a	LTP111	ltpFR	8	n/a	n/a	n/a	n/a	n/a	n/a	n/a	n/a	n/a	n/a	n/a	n/a	n/a	n/a	n/a	n/a
561540	WORD	wordpools/wasnorm_wordpool.txt	LTP111	ltpFR	8	3	1	COMMANDER	354	n/a	n/a	0	n/a	0	0	0	0.57763671875	0.412841796875	1	upper	zerothre.ttf
564546	START	n/a	LTP111	ltpFR	8	n/a	n/a	n/a	n/a	n/a	n/a	n/a	n/a	n/a	n/a	n/a	n/a	n/a	n/a	n/a	n/a
565610	PROB	n/a	LTP111	ltpFR	8	n/a	n/a	n/a	n/a	n/a	n/a	n/a	15	3	4	8	n/a	n/a	n/a	n/a	n/a
572054	STOP	n/a	LTP111	ltpFR	8	n/a	n/a	n/a	n/a	n/a	n/a	n/a	n/a	n/a	n/a	n/a	n/a	n/a	n/a	n/a	n/a
573425	WORD	wordpools/wasnorm_wordpool.txt	LTP111	ltpFR	8	3	1	NET	946	n/a	n/a	0	n/a	0	0	0	0.57763671875	0.412841796875	1	upper	zerothre.ttf
576431	START	n/a	LTP111	ltpFR	8	n/a	n/a	n/a	n/a	n/a	n/a	n/a	n/a	n/a	n/a	n/a	n/a	n/a	n/a	n/a	n/a
577580	PROB	n/a	LTP111	ltpFR	8	n/a	n/a	n/a	n/a	n/a	n/a	n/a	20	9	2	9	n/a	n/a	n/a	n/a	n/a
580467	PROB	n/a	LTP111	ltpFR	8	n/a	n/a	n/a	n/a	n/a	n/a	n/a	16	7	2	7	n/a	n/a	n/a	n/a	n/a
582918	STOP	n/a	LTP111	ltpFR	8	n/a	n/a	n/a	n/a	n/a	n/a	n/a	n/a	n/a	n/a	n/a	n/a	n/a	n/a	n/a	n/a
585453	WORD	wordpools/wasnorm_wordpool.txt	LTP111	ltpFR	8	3	1	OUTFIT	988	n/a	n/a	0	n/a	0	0	0	0.57763671875	0.412841796875	1	upper	zerothre.ttf
588458	START	n/a	LTP111	ltpFR	8	n/a	n/a	n/a	n/a	n/a	n/a	n/a	n/a	n/a	n/a	n/a	n/a	n/a	n/a	n/a	n/a
589308	PROB	n/a	LTP111	ltpFR	8	n/a	n/a	n/a	n/a	n/a	n/a	n/a	12	4	7	1	n/a	n/a	n/a	n/a	n/a
596458	STOP	n/a	LTP111	ltpFR	8	n/a	n/a	n/a	n/a	n/a	n/a	n/a	n/a	n/a	n/a	n/a	n/a	n/a	n/a	n/a	n/a
597507	WORD	wordpools/wasnorm_wordpool.txt	LTP111	ltpFR	8	3	1	LINT	826	n/a	n/a	0	n/a	0	0	0	0.57763671875	0.412841796875	1	upper	zerothre.ttf
600512	START	n/a	LTP111	ltpFR	8	n/a	n/a	n/a	n/a	n/a	n/a	n/a	n/a	n/a	n/a	n/a	n/a	n/a	n/a	n/a	n/a
601627	PROB	n/a	LTP111	ltpFR	8	n/a	n/a	n/a	n/a	n/a	n/a	n/a	8	3	3	2	n/a	n/a	n/a	n/a	n/a
608512	STOP	n/a	LTP111	ltpFR	8	n/a	n/a	n/a	n/a	n/a	n/a	n/a	n/a	n/a	n/a	n/a	n/a	n/a	n/a	n/a	n/a
609510	WORD	wordpools/wasnorm_wordpool.txt	LTP111	ltpFR	8	3	1	WORM	1623	n/a	n/a	0	n/a	0	0	0	0.57763671875	0.412841796875	1	upper	zerothre.ttf
612515	START	n/a	LTP111	ltpFR	8	n/a	n/a	n/a	n/a	n/a	n/a	n/a	n/a	n/a	n/a	n/a	n/a	n/a	n/a	n/a	n/a
620515	STOP	n/a	LTP111	ltpFR	8	n/a	n/a	n/a	n/a	n/a	n/a	n/a	n/a	n/a	n/a	n/a	n/a	n/a	n/a	n/a	n/a
621695	WORD	wordpools/wasnorm_wordpool.txt	LTP111	ltpFR	8	3	1	SOFTBALL	1343	n/a	n/a	0	n/a	0	0	0	0.57763671875	0.412841796875	1	upper	zerothre.ttf
624701	START	n/a	LTP111	ltpFR	8	n/a	n/a	n/a	n/a	n/a	n/a	n/a	n/a	n/a	n/a	n/a	n/a	n/a	n/a	n/a	n/a
625682	PROB	n/a	LTP111	ltpFR	8	n/a	n/a	n/a	n/a	n/a	n/a	n/a	8	4	2	2	n/a	n/a	n/a	n/a	n/a
628445	PROB	n/a	LTP111	ltpFR	8	n/a	n/a	n/a	n/a	n/a	n/a	n/a	9	1	5	3	n/a	n/a	n/a	n/a	n/a
632700	STOP	n/a	LTP111	ltpFR	8	n/a	n/a	n/a	n/a	n/a	n/a	n/a	n/a	n/a	n/a	n/a	n/a	n/a	n/a	n/a	n/a
633557	WORD	wordpools/wasnorm_wordpool.txt	LTP111	ltpFR	8	3	1	CASHIER	254	n/a	n/a	0	n/a	0	0	0	0.57763671875	0.412841796875	1	upper	zerothre.ttf
636562	START	n/a	LTP111	ltpFR	8	n/a	n/a	n/a	n/a	n/a	n/a	n/a	n/a	n/a	n/a	n/a	n/a	n/a	n/a	n/a	n/a
637426	PROB	n/a	LTP111	ltpFR	8	n/a	n/a	n/a	n/a	n/a	n/a	n/a	18	8	7	3	n/a	n/a	n/a	n/a	n/a
640448	PROB	n/a	LTP111	ltpFR	8	n/a	n/a	n/a	n/a	n/a	n/a	n/a	12	8	1	3	n/a	n/a	n/a	n/a	n/a
644562	STOP	n/a	LTP111	ltpFR	8	n/a	n/a	n/a	n/a	n/a	n/a	n/a	n/a	n/a	n/a	n/a	n/a	n/a	n/a	n/a	n/a
645651	WORD	wordpools/wasnorm_wordpool.txt	LTP111	ltpFR	8	3	1	PAVEMENT	1028	n/a	n/a	0	n/a	0	0	0	0.57763671875	0.412841796875	1	upper	zerothre.ttf
648656	START	n/a	LTP111	ltpFR	8	n/a	n/a	n/a	n/a	n/a	n/a	n/a	n/a	n/a	n/a	n/a	n/a	n/a	n/a	n/a	n/a
649646	PROB	n/a	LTP111	ltpFR	8	n/a	n/a	n/a	n/a	n/a	n/a	n/a	11	3	4	4	n/a	n/a	n/a	n/a	n/a
653092	PROB	n/a	LTP111	ltpFR	8	n/a	n/a	n/a	n/a	n/a	n/a	n/a	3	1	1	1	n/a	n/a	n/a	n/a	n/a
656655	STOP	n/a	LTP111	ltpFR	8	n/a	n/a	n/a	n/a	n/a	n/a	n/a	n/a	n/a	n/a	n/a	n/a	n/a	n/a	n/a	n/a
657803	WORD	wordpools/wasnorm_wordpool.txt	LTP111	ltpFR	8	3	1	BIKE	125	n/a	n/a	0	n/a	0	0	0	0.57763671875	0.412841796875	1	upper	zerothre.ttf
660809	START	n/a	LTP111	ltpFR	8	n/a	n/a	n/a	n/a	n/a	n/a	n/a	n/a	n/a	n/a	n/a	n/a	n/a	n/a	n/a	n/a
661857	PROB	n/a	LTP111	ltpFR	8	n/a	n/a	n/a	n/a	n/a	n/a	n/a	13	3	2	8	n/a	n/a	n/a	n/a	n/a
668809	STOP	n/a	LTP111	ltpFR	8	n/a	n/a	n/a	n/a	n/a	n/a	n/a	n/a	n/a	n/a	n/a	n/a	n/a	n/a	n/a	n/a
669814	WORD	wordpools/wasnorm_wordpool.txt	LTP111	ltpFR	8	3	1	WRITER	1627	n/a	n/a	0	n/a	0	0	0	0.57763671875	0.412841796875	1	upper	zerothre.ttf
672820	START	n/a	LTP111	ltpFR	8	n/a	n/a	n/a	n/a	n/a	n/a	n/a	n/a	n/a	n/a	n/a	n/a	n/a	n/a	n/a	n/a
673785	PROB	n/a	LTP111	ltpFR	8	n/a	n/a	n/a	n/a	n/a	n/a	n/a	12	2	4	6	n/a	n/a	n/a	n/a	n/a
676132	PROB	n/a	LTP111	ltpFR	8	n/a	n/a	n/a	n/a	n/a	n/a	n/a	17	8	2	7	n/a	n/a	n/a	n/a	n/a
677963	PROB	n/a	LTP111	ltpFR	8	n/a	n/a	n/a	n/a	n/a	n/a	n/a	17	9	7	1	n/a	n/a	n/a	n/a	n/a
679830	STOP	n/a	LTP111	ltpFR	8	n/a	n/a	n/a	n/a	n/a	n/a	n/a	n/a	n/a	n/a	n/a	n/a	n/a	n/a	n/a	n/a
681659	WORD	wordpools/wasnorm_wordpool.txt	LTP111	ltpFR	8	3	1	BASEBALL	93	n/a	n/a	0	n/a	0	0	0	0.57763671875	0.412841796875	1	upper	zerothre.ttf
684664	START	n/a	LTP111	ltpFR	8	n/a	n/a	n/a	n/a	n/a	n/a	n/a	n/a	n/a	n/a	n/a	n/a	n/a	n/a	n/a	n/a
692664	STOP	n/a	LTP111	ltpFR	8	n/a	n/a	n/a	n/a	n/a	n/a	n/a	n/a	n/a	n/a	n/a	n/a	n/a	n/a	n/a	n/a
693812	WORD	wordpools/wasnorm_wordpool.txt	LTP111	ltpFR	8	3	1	REFRIGERATOR	1179	n/a	n/a	0	n/a	0	0	0	0.57763671875	0.412841796875	1	upper	zerothre.ttf
696825	START	n/a	LTP111	ltpFR	8	n/a	n/a	n/a	n/a	n/a	n/a	n/a	n/a	n/a	n/a	n/a	n/a	n/a	n/a	n/a	n/a
697932	PROB	n/a	LTP111	ltpFR	8	n/a	n/a	n/a	n/a	n/a	n/a	n/a	19	2	8	9	n/a	n/a	n/a	n/a	n/a
701794	PROB	n/a	LTP111	ltpFR	8	n/a	n/a	n/a	n/a	n/a	n/a	n/a	19	9	8	2	n/a	n/a	n/a	n/a	n/a
704461	STOP	n/a	LTP111	ltpFR	8	n/a	n/a	n/a	n/a	n/a	n/a	n/a	n/a	n/a	n/a	n/a	n/a	n/a	n/a	n/a	n/a
706006	WORD	wordpools/wasnorm_wordpool.txt	LTP111	ltpFR	8	3	1	LIVER	833	n/a	n/a	1	n/a	0	0	0	0.57763671875	0.412841796875	1	upper	zerothre.ttf
709011	START	n/a	LTP111	ltpFR	8	n/a	n/a	n/a	n/a	n/a	n/a	n/a	n/a	n/a	n/a	n/a	n/a	n/a	n/a	n/a	n/a
710134	PROB	n/a	LTP111	ltpFR	8	n/a	n/a	n/a	n/a	n/a	n/a	n/a	18	8	7	3	n/a	n/a	n/a	n/a	n/a
715654	STOP	n/a	LTP111	ltpFR	8	n/a	n/a	n/a	n/a	n/a	n/a	n/a	n/a	n/a	n/a	n/a	n/a	n/a	n/a	n/a	n/a
718742	REC_START	n/a	LTP111	ltpFR	8	3	n/a	n/a	n/a	n/a	n/a	n/a	n/a	0	0	0	n/a	n/a	n/a	n/a	n/a
722937	REC_WORD	wordpools/wasnorm_wordpool.txt	LTP111	ltpFR	8	3	1	TEAM	1441	n/a	n/a	0	n/a	0	0	0	n/a	n/a	n/a	n/a	n/a
724424	REC_WORD	wordpools/wasnorm_wordpool.txt	LTP111	ltpFR	8	3	1	CARD	243	n/a	n/a	0	n/a	0	0	0	n/a	n/a	n/a	n/a	n/a
726159	REC_WORD	wordpools/wasnorm_wordpool.txt	LTP111	ltpFR	8	3	1	FOLLOWER	589	n/a	n/a	0	n/a	0	0	0	n/a	n/a	n/a	n/a	n/a
727766	REC_WORD	wordpools/wasnorm_wordpool.txt	LTP111	ltpFR	8	3	1	COMMANDER	354	n/a	n/a	0	n/a	0	0	0	n/a	n/a	n/a	n/a	n/a
730420	REC_WORD	wordpools/wasnorm_wordpool.txt	LTP111	ltpFR	8	3	1	NET	946	n/a	n/a	0	n/a	0	0	0	n/a	n/a	n/a	n/a	n/a
732116	REC_WORD	wordpools/wasnorm_wordpool.txt	LTP111	ltpFR	8	3	1	SOFTBALL	1343	n/a	n/a	0	n/a	0	0	0	n/a	n/a	n/a	n/a	n/a
734017	REC_WORD	wordpools/wasnorm_wordpool.txt	LTP111	ltpFR	8	3	1	BASEBALL	93	n/a	n/a	0	n/a	0	0	0	n/a	n/a	n/a	n/a	n/a
735968	REC_WORD	wordpools/wasnorm_wordpool.txt	LTP111	ltpFR	8	3	1	PAVEMENT	1028	n/a	n/a	0	n/a	0	0	0	n/a	n/a	n/a	n/a	n/a
737828	REC_WORD	wordpools/wasnorm_wordpool.txt	LTP111	ltpFR	8	3	1	LIVER	833	n/a	n/a	1	n/a	0	0	0	n/a	n/a	n/a	n/a	n/a
1207265	WORD	wordpools/wasnorm_wordpool.txt	LTP111	ltpFR	8	4	1	OCTOPUS	971	n/a	n/a	1	n/a	0	0	0	0.57763671875	0.412841796875	1	upper	zerothre.ttf
1211177	WORD	wordpools/wasnorm_wordpool.txt	LTP111	ltpFR	8	4	1	ACTOR	5	n/a	n/a	1	n/a	0	0	0	0.57763671875	0.412841796875	1	upper	zerothre.ttf
1215239	WORD	wordpools/wasnorm_wordpool.txt	LTP111	ltpFR	8	4	1	PERSON	1052	n/a	n/a	1	n/a	0	0	0	0.57763671875	0.412841796875	1	upper	zerothre.ttf
1219276	WORD	wordpools/wasnorm_wordpool.txt	LTP111	ltpFR	8	4	1	PICTURE	1061	n/a	n/a	0	n/a	0	0	0	0.57763671875	0.412841796875	1	upper	zerothre.ttf
1223239	WORD	wordpools/wasnorm_wordpool.txt	LTP111	ltpFR	8	4	1	RECORD	1176	n/a	n/a	0	n/a	0	0	0	0.57763671875	0.412841796875	1	upper	zerothre.ttf
1227267	WORD	wordpools/wasnorm_wordpool.txt	LTP111	ltpFR	8	4	1	STRAW	1390	n/a	n/a	0	n/a	0	0	0	0.57763671875	0.412841796875	1	upper	zerothre.ttf
1231421	WORD	wordpools/wasnorm_wordpool.txt	LTP111	ltpFR	8	4	0	COBRA	336	n/a	n/a	0	n/a	0	0	0	0.422607421875	0.5869140625	0	lower	amplitud.ttf
1235383	WORD	wordpools/wasnorm_wordpool.txt	LTP111	ltpFR	8	4	0	WOMAN	1620	n/a	n/a	1	n/a	0	0	0	0.422607421875	0.5869140625	0	lower	amplitud.ttf
1239427	WORD	wordpools/wasnorm_wordpool.txt	LTP111	ltpFR	8	4	0	SCOTCH	1251	n/a	n/a	0	n/a	0	0	0	0.422607421875	0.5869140625	0	lower	amplitud.ttf
1243257	WORD	wordpools/wasnorm_wordpool.txt	LTP111	ltpFR	8	4	0	RUNNER	1218	n/a	n/a	1	n/a	0	0	0	0.422607421875	0.5869140625	0	lower	amplitud.ttf
1247136	WORD	wordpools/wasnorm_wordpool.txt	LTP111	ltpFR	8	4	1	SHORTS	1293	n/a	n/a	0	n/a	0	0	0	0.57763671875	0.412841796875	1	upper	zerothre.ttf
1251114	WORD	wordpools/wasnorm_wordpool.txt	LTP111	ltpFR	8	4	1	WASHER	1592	n/a	n/a	0	n/a	0	0	0	0.57763671875	0.412841796875	1	upper	zerothre.ttf
1255268	WORD	wordpools/wasnorm_wordpool.txt	LTP111	ltpFR	8	4	0	HANGER	687	n/a	n/a	0	n/a	0	0	0	0.422607421875	0.5869140625	0	lower	amplitud.ttf
1259164	WORD	wordpools/wasnorm_wordpool.txt	LTP111	ltpFR	8	4	0	MAN	862	n/a	n/a	0	n/a	0	0	0	0.422607421875	0.5869140625	0	lower	amplitud.ttf
1263150	WORD	wordpools/wasnorm_wordpool.txt	LTP111	ltpFR	8	4	0	SCENERY	1247	n/a	n/a	1	n/a	0	0	0	0.422607421875	0.5869140625	0	lower	amplitud.ttf
1267346	WORD	wordpools/wasnorm_wordpool.txt	LTP111	ltpFR	8	4	0	SIRLOIN	1311	n/a	n/a	0	n/a	0	0	0	0.422607421875	0.5869140625	0	lower	amplitud.ttf
1272956	REC_START	n/a	LTP111	ltpFR	8	4	n/a	n/a	n/a	n/a	n/a	n/a	n/a	0	0	0	n/a	n/a	n/a	n/a	n/a
1275794	REC_WORD	wordpools/wasnorm_wordpool.txt	LTP111	ltpFR	8	4	1	OCTOPUS	971	n/a	n/a	1	n/a	0	0	0	n/a	n/a	n/a	n/a	n/a
1277655	REC_WORD	wordpools/wasnorm_wordpool.txt	LTP111	ltpFR	8	4	1	ACTOR	5	n/a	n/a	1	n/a	0	0	0	n/a	n/a	n/a	n/a	n/a
1279700	REC_WORD	wordpools/wasnorm_wordpool.txt	LTP111	ltpFR	8	4	1	PERSON	1052	n/a	n/a	1	n/a	0	0	0	n/a	n/a	n/a	n/a	n/a
1282424	REC_WORD	wordpools/wasnorm_wordpool.txt	LTP111	ltpFR	8	4	1	PICTURE	1061	n/a	n/a	0	n/a	0	0	0	n/a	n/a	n/a	n/a	n/a
1283756	REC_WORD	wordpools/wasnorm_wordpool.txt	LTP111	ltpFR	8	4	1	RECORD	1176	n/a	n/a	0	n/a	0	0	0	n/a	n/a	n/a	n/a	n/a
1285368	REC_WORD	wordpools/wasnorm_wordpool.txt	LTP111	ltpFR	8	4	1	STRAW	1390	n/a	n/a	0	n/a	0	0	0	n/a	n/a	n/a	n/a	n/a
1286799	REC_WORD	wordpools/wasnorm_wordpool.txt	LTP111	ltpFR	8	4	0	SIRLOIN	1311	n/a	n/a	0	n/a	0	0	0	n/a	n/a	n/a	n/a	n/a
1289573	REC_WORD	wordpools/wasnorm_wordpool.txt	LTP111	ltpFR	8	4	0	WOMAN	1620	n/a	n/a	1	n/a	0	0	0	n/a	n/a	n/a	n/a	n/a
1290735	REC_WORD	wordpools/wasnorm_wordpool.txt	LTP111	ltpFR	8	4	0	RUNNER	1218	n/a	n/a	1	n/a	0	0	0	n/a	n/a	n/a	n/a	n/a
1291982	REC_WORD	wordpools/wasnorm_wordpool.txt	LTP111	ltpFR	8	4	1	SHORTS	1293	n/a	n/a	0	n/a	0	0	0	n/a	n/a	n/a	n/a	n/a
1293544	REC_WORD	wordpools/wasnorm_wordpool.txt	LTP111	ltpFR	8	4	0	MAN	862	n/a	n/a	0	n/a	0	0	0	n/a	n/a	n/a	n/a	n/a
1295824	REC_WORD	wordpools/wasnorm_wordpool.txt	LTP111	ltpFR	8	4	1	WASHER	1592	n/a	n/a	0	n/a	0	0	0	n/a	n/a	n/a	n/a	n/a
1296796	REC_WORD	wordpools/wasnorm_wordpool.txt	LTP111	ltpFR	8	4	0	HANGER	687	n/a	n/a	0	n/a	0	0	0	n/a	n/a	n/a	n/a	n/a
1355343	WORD	wordpools/wasnorm_wordpool.txt	LTP111	ltpFR	8	5	1	ATHLETE	52	n/a	n/a	1	n/a	0	0	0	0.57763671875	0.412841796875	1	upper	zerothre.ttf
1359297	WORD	wordpools/wasnorm_wordpool.txt	LTP111	ltpFR	8	5	1	BROOK	177	n/a	n/a	0	n/a	0	0	0	0.57763671875	0.412841796875	1	upper	zerothre.ttf
1363234	WORD	wordpools/wasnorm_wordpool.txt	LTP111	ltpFR	8	5	1	WATERFALL	1595	n/a	n/a	0	n/a	0	0	0	0.57763671875	0.412841796875	1	upper	zerothre.ttf
1367221	WORD	wordpools/wasnorm_wordpool.txt	LTP111	ltpFR	8	5	1	BISON	131	n/a	n/a	1	n/a	0	0	0	0.57763671875	0.412841796875	1	upper	zerothre.ttf
1371058	WORD	wordpools/wasnorm_wordpool.txt	LTP111	ltpFR	8	5	0	FUR	615	n/a	n/a	0	n/a	0	0	0	0.422607421875	0.5869140625	0	lower	amplitud.ttf
1374946	WORD	wordpools/wasnorm_wordpool.txt	LTP111	ltpFR	8	5	0	INMATE	738	n/a	n/a	1	n/a	0	0	0	0.422607421875	0.5869140625	0	lower	amplitud.ttf
1378983	WORD	wordpools/wasnorm_wordpool.txt	LTP111	ltpFR	8	5	0	CAPTIVE	240	n/a	n/a	1	n/a	0	0	0	0.422607421875	0.5869140625	0	lower	amplitud.ttf
1383186	WORD	wordpools/wasnorm_wordpool.txt	LTP111	ltpFR	8	5	0	TART	1436	n/a	n/a	0	n/a	0	0	0	0.422607421875	0.5869140625	0	lower	amplitud.ttf
1387248	WORD	wordpools/wasnorm_wordpool.txt	LTP111	ltpFR	8	5	0	FOOTBALL	591	n/a	n/a	1	n/a	0	0	0	0.422607421875	0.5869140625	0	lower	amplitud.ttf
1391152	WORD	wordpools/wasnorm_wordpool.txt	LTP111	ltpFR	8	5	1	TREAT	1501	n/a	n/a	2	n/a	0	0	0	0.57763671875	0.412841796875	1	upper	zerothre.ttf
1392883	KEY_MSG	n/a	LTP111	ltpFR	8	5	n/a	n/a	n/a	n/a	n/a	n/a	n/a	0	0	0	n/a	n/a	n/a	n/a	n/a
1395214	WORD	wordpools/wasnorm_wordpool.txt	LTP111	ltpFR	8	5	1	BRIDE	173	n/a	n/a	1	n/a	0	0	0	0.57763671875	0.412841796875	1	upper	zerothre.ttf
1399159	WORD	wordpools/wasnorm_wordpool.txt	LTP111	ltpFR	8	5	0	PORT	1110	n/a	n/a	0	n/a	0	0	0	0.422607421875	0.5869140625	0	lower	amplitud.ttf
1403096	WORD	wordpools/wasnorm_wordpool.txt	LTP111	ltpFR	8	5	0	RICE	1190	n/a	n/a	0	n/a	0	0	0	0.422607421875	0.5869140625	0	lower	amplitud.ttf
1407108	WORD	wordpools/wasnorm_wordpool.txt	LTP111	ltpFR	8	5	0	GROCERY	664	n/a	n/a	0	n/a	0	0	0	0.422607421875	0.5869140625	0	lower	amplitud.ttf
1411087	WORD	wordpools/wasnorm_wordpool.txt	LTP111	ltpFR	8	5	1	SUGAR	1401	n/a	n/a	0	n/a	0	0	0	0.57763671875	0.412841796875	1	upper	zerothre.ttf
1415116	WORD	wordpools/wasnorm_wordpool.txt	LTP111	ltpFR	8	5	1	CARRIAGE	248	n/a	n/a	0	n/a	0	0	0	0.57763671875	0.412841796875	1	upper	zerothre.ttf
1418121	START	n/a	LTP111	ltpFR	8	n/a	n/a	n/a	n/a	n/a	n/a	n/a	n/a	n/a	n/a	n/a	n/a	n/a	n/a	n/a	n/a
1419236	PROB	n/a	LTP111	ltpFR	8	n/a	n/a	n/a	n/a	n/a	n/a	n/a	16	6	3	7	n/a	n/a	n/a	n/a	n/a
1422439	PROB	n/a	LTP111	ltpFR	8	n/a	n/a	n/a	n/a	n/a	n/a	n/a	17	5	9	3	n/a	n/a	n/a	n/a	n/a
1425694	STOP	n/a	LTP111	ltpFR	8	n/a	n/a	n/a	n/a	n/a	n/a	n/a	n/a	n/a	n/a	n/a	n/a	n/a	n/a	n/a	n/a
1427918	REC_START	n/a	LTP111	ltpFR	8	5	n/a	n/a	n/a	n/a	n/a	n/a	n/a	0	0	0	n/a	n/a	n/a	n/a	n/a
1431300	REC_WORD	wordpools/wasnorm_wordpool.txt	LTP111	ltpFR	8	5	0	RUNNER	1218	n/a	n/a	1	n/a	0	0	0	n/a	n/a	n/a	n/a	n/a
1433296	REC_WORD	wordpools/wasnorm_wordpool.txt	LTP111	ltpFR	8	5	1	BROOK	177	n/a	n/a	0	n/a	0	0	0	n/a	n/a	n/a	n/a	n/a
1435037	REC_WORD	wordpools/wasnorm_wordpool.txt	LTP111	ltpFR	8	5	1	WATERFALL	1595	n/a	n/a	0	n/a	0	0	0	n/a	n/a	n/a	n/a	n/a
1437825	REC_WORD	wordpools/wasnorm_wordpool.txt	LTP111	ltpFR	8	5	1	BISON	131	n/a	n/a	1	n/a	0	0	0	n/a	n/a	n/a	n/a	n/a
1439616	REC_WORD	wordpools/wasnorm_wordpool.txt	LTP111	ltpFR	8	5	0	FUR	615	n/a	n/a	0	n/a	0	0	0	n/a	n/a	n/a	n/a	n/a
1448531	REC_WORD	wordpools/wasnorm_wordpool.txt	LTP111	ltpFR	8	5	1	BRIDE	173	n/a	n/a	1	n/a	0	0	0	n/a	n/a	n/a	n/a	n/a
1451045	REC_WORD	wordpools/wasnorm_wordpool.txt	LTP111	ltpFR	8	5	0	TART	1436	n/a	n/a	0	n/a	0	0	0	n/a	n/a	n/a	n/a	n/a
1454013	REC_WORD	wordpools/wasnorm_wordpool.txt	LTP111	ltpFR	8	5	1	SUGAR	1401	n/a	n/a	0	n/a	0	0	0	n/a	n/a	n/a	n/a	n/a
1457396	REC_WORD	wordpools/wasnorm_wordpool.txt	LTP111	ltpFR	8	5	0	RICE	1190	n/a	n/a	0	n/a	0	0	0	n/a	n/a	n/a	n/a	n/a
1463437	REC_WORD	wordpools/wasnorm_wordpool.txt	LTP111	ltpFR	8	5	0	GROCERY	664	n/a	n/a	0	n/a	0	0	0	n/a	n/a	n/a	n/a	n/a
1466420	REC_WORD	wordpools/wasnorm_wordpool.txt	LTP111	ltpFR	8	5	1	CARRIAGE	248	n/a	n/a	0	n/a	0	0	0	n/a	n/a	n/a	n/a	n/a
1506917	WORD	wordpools/wasnorm_wordpool.txt	LTP111	ltpFR	8	6	1	CAPTAIN	239	n/a	n/a	1	n/a	0	0	0	0.57763671875	0.412841796875	1	upper	zerothre.ttf
1510938	WORD	wordpools/wasnorm_wordpool.txt	LTP111	ltpFR	8	6	1	PIRATE	1074	n/a	n/a	1	n/a	0	0	0	0.57763671875	0.412841796875	1	upper	zerothre.ttf
1515100	WORD	wordpools/wasnorm_wordpool.txt	LTP111	ltpFR	8	6	1	DOUGHNUT	490	n/a	n/a	0	n/a	0	0	0	0.57763671875	0.412841796875	1	upper	zerothre.ttf
1519037	WORD	wordpools/wasnorm_wordpool.txt	LTP111	ltpFR	8	6	1	RADISH	1158	n/a	n/a	0	n/a	0	0	0	0.57763671875	0.412841796875	1	upper	zerothre.ttf
1522899	WORD	wordpools/wasnorm_wordpool.txt	LTP111	ltpFR	8	6	0	KETCHUP	771	n/a	n/a	0	n/a	0	0	0	0.422607421875	0.5869140625	0	lower	amplitud.ttf
1527019	WORD	wordpools/wasnorm_wordpool.txt	LTP111	ltpFR	8	6	0	STAPLER	1372	n/a	n/a	0	n/a	0	0	0	0.422607421875	0.5869140625	0	lower	amplitud.ttf
1530965	WORD	wordpools/wasnorm_wordpool.txt	LTP111	ltpFR	8	6	0	SINK	1309	n/a	n/a	0	n/a	0	0	0	0.422607421875	0.5869140625	0	lower	amplitud.ttf
1535001	WORD	wordpools/wasnorm_wordpool.txt	LTP111	ltpFR	8	6	0	WINGS	1614	n/a	n/a	0	n/a	0	0	0	0.422607421875	0.5869140625	0	lower	amplitud.ttf
1539097	WORD	wordpools/wasnorm_wordpool.txt	LTP111	ltpFR	8	6	1	KNEE	784	n/a	n/a	1	n/a	0	0	0	0.57763671875	0.412841796875	1	upper	zerothre.ttf
1542926	WORD	wordpools/wasnorm_wordpool.txt	LTP111	ltpFR	8	6	1	CORK	380	n/a	n/a	0	n/a	0	0	0	0.57763671875	0.412841796875	1	upper	zerothre.ttf
1546813	WORD	wordpools/wasnorm_wordpool.txt	LTP111	ltpFR	8	6	0	BELLY	119	n/a	n/a	1	n/a	0	0	0	0.422607421875	0.5869140625	0	lower	amplitud.ttf
1550991	WORD	wordpools/wasnorm_wordpool.txt	LTP111	ltpFR	8	6	0	SPARROW	1347	n/a	n/a	0	n/a	0	0	0	0.422607421875	0.5869140625	0	lower	amplitud.ttf
1554820	WORD	wordpools/wasnorm_wordpool.txt	LTP111	ltpFR	8	6	0	DETECTIVE	454	n/a	n/a	1	n/a	0	0	0	0.422607421875	0.5869140625	0	lower	amplitud.ttf
1558949	WORD	wordpools/wasnorm_wordpool.txt	LTP111	ltpFR	8	6	0	MARGARINE	868	n/a	n/a	0	n/a	0	0	0	0.422607421875	0.5869140625	0	lower	amplitud.ttf
1562936	WORD	wordpools/wasnorm_wordpool.txt	LTP111	ltpFR	8	6	1	NOOSE	956	n/a	n/a	2	n/a	0	0	0	0.57763671875	0.412841796875	1	upper	zerothre.ttf
1564425	KEY_MSG	n/a	LTP111	ltpFR	8	6	n/a	n/a	n/a	n/a	n/a	n/a	n/a	0	0	0	n/a	n/a	n/a	n/a	n/a
1567131	WORD	wordpools/wasnorm_wordpool.txt	LTP111	ltpFR	8	6	1	TIE	1466	n/a	n/a	0	n/a	0	0	0	0.57763671875	0.412841796875	1	upper	zerothre.ttf
1570136	START	n/a	LTP111	ltpFR	8	n/a	n/a	n/a	n/a	n/a	n/a	n/a	n/a	n/a	n/a	n/a	n/a	n/a	n/a	n/a	n/a
1571135	PROB	n/a	LTP111	ltpFR	8	n/a	n/a	n/a	n/a	n/a	n/a	n/a	24	8	9	7	n/a	n/a	n/a	n/a	n/a
1580481	PROB	n/a	LTP111	ltpFR	8	n/a	n/a	n/a	n/a	n/a	n/a	n/a	14	8	3	3	n/a	n/a	n/a	n/a	n/a
1584838	STOP	n/a	LTP111	ltpFR	8	n/a	n/a	n/a	n/a	n/a	n/a	n/a	n/a	n/a	n/a	n/a	n/a	n/a	n/a	n/a	n/a
1587916	REC_START	n/a	LTP111	ltpFR	8	6	n/a	n/a	n/a	n/a	n/a	n/a	n/a	0	0	0	n/a	n/a	n/a	n/a	n/a
1589627	REC_WORD	wordpools/wasnorm_wordpool.txt	LTP111	ltpFR	8	6	1	PIRATE	1074	n/a	n/a	1	n/a	0	0	0	n/a	n/a	n/a	n/a	n/a
1591483	REC_WORD	wordpools/wasnorm_wordpool.txt	LTP111	ltpFR	8	6	1	CAPTAIN	239	n/a	n/a	1	n/a	0	0	0	n/a	n/a	n/a	n/a	n/a
1592794	REC_WORD	wordpools/wasnorm_wordpool.txt	LTP111	ltpFR	8	6	0	SPARROW	1347	n/a	n/a	0	n/a	0	0	0	n/a	n/a	n/a	n/a	n/a
1595464	REC_WORD	wordpools/wasnorm_wordpool.txt	LTP111	ltpFR	8	6	1	DOUGHNUT	490	n/a	n/a	0	n/a	0	0	0	n/a	n/a	n/a	n/a	n/a
1596152	REC_WORD	wordpools/wasnorm_wordpool.txt	LTP111	ltpFR	8	6	n/a	BUTTER	205	n/a	n/a	n/a	n/a	0	0	0	n/a	n/a	n/a	n/a	n/a
1598187	REC_WORD_VV	wordpools/wasnorm_wordpool.txt	LTP111	ltpFR	8	6	n/a	<>	-1	n/a	n/a	n/a	n/a	0	0	0	n/a	n/a	n/a	n/a	n/a
1598487	REC_WORD	wordpools/wasnorm_wordpool.txt	LTP111	ltpFR	8	6	0	MARGARINE	868	n/a	n/a	0	n/a	0	0	0	n/a	n/a	n/a	n/a	n/a
1608559	REC_WORD	wordpools/wasnorm_wordpool.txt	LTP111	ltpFR	8	6	0	KETCHUP	771	n/a	n/a	0	n/a	0	0	0	n/a	n/a	n/a	n/a	n/a
1609517	REC_WORD	wordpools/wasnorm_wordpool.txt	LTP111	ltpFR	8	6	1	RADISH	1158	n/a	n/a	0	n/a	0	0	0	n/a	n/a	n/a	n/a	n/a
1610664	REC_WORD	wordpools/wasnorm_wordpool.txt	LTP111	ltpFR	8	6	0	SINK	1309	n/a	n/a	0	n/a	0	0	0	n/a	n/a	n/a	n/a	n/a
1612360	REC_WORD	wordpools/wasnorm_wordpool.txt	LTP111	ltpFR	8	6	1	KNEE	784	n/a	n/a	1	n/a	0	0	0	n/a	n/a	n/a	n/a	n/a
1613078	REC_WORD	wordpools/wasnorm_wordpool.txt	LTP111	ltpFR	8	6	n/a	STAPLE	1371	n/a	n/a	n/a	n/a	0	0	0	n/a	n/a	n/a	n/a	n/a
1614091	REC_WORD	wordpools/wasnorm_wordpool.txt	LTP111	ltpFR	8	6	0	DETECTIVE	454	n/a	n/a	1	n/a	0	0	0	n/a	n/a	n/a	n/a	n/a
1615024	REC_WORD	wordpools/wasnorm_wordpool.txt	LTP111	ltpFR	8	6	1	TIE	1466	n/a	n/a	0	n/a	0	0	0	n/a	n/a	n/a	n/a	n/a
1634246	REC_WORD	wordpools/wasnorm_wordpool.txt	LTP111	ltpFR	8	6	1	CORK	380	n/a	n/a	0	n/a	0	0	0	n/a	n/a	n/a	n/a	n/a
1635063	REC_WORD	wordpools/wasnorm_wordpool.txt	LTP111	ltpFR	8	6	0	BELLY	119	n/a	n/a	1	n/a	0	0	0	n/a	n/a	n/a	n/a	n/a
1664976	START	n/a	LTP111	ltpFR	8	n/a	n/a	n/a	n/a	n/a	n/a	n/a	n/a	n/a	n/a	n/a	n/a	n/a	n/a	n/a	n/a
1666481	PROB	n/a	LTP111	ltpFR	8	n/a	n/a	n/a	n/a	n/a	n/a	n/a	22	9	6	7	n/a	n/a	n/a	n/a	n/a
1680976	STOP	n/a	LTP111	ltpFR	8	n/a	n/a	n/a	n/a	n/a	n/a	n/a	n/a	n/a	n/a	n/a	n/a	n/a	n/a	n/a	n/a
1681906	WORD	wordpools/wasnorm_wordpool.txt	LTP111	ltpFR	8	7	0	CUB	419	n/a	n/a	0	n/a	0	0	0	0.422607421875	0.5869140625	0	lower	amplitud.ttf
1684911	START	n/a	LTP111	ltpFR	8	n/a	n/a	n/a	n/a	n/a	n/a	n/a	n/a	n/a	n/a	n/a	n/a	n/a	n/a	n/a	n/a
1685901	PROB	n/a	LTP111	ltpFR	8	n/a	n/a	n/a	n/a	n/a	n/a	n/a	17	3	9	5	n/a	n/a	n/a	n/a	n/a
1690879	PROB	n/a	LTP111	ltpFR	8	n/a	n/a	n/a	n/a	n/a	n/a	n/a	11	5	1	5	n/a	n/a	n/a	n/a	n/a
1700911	STOP	n/a	LTP111	ltpFR	8	n/a	n/a	n/a	n/a	n/a	n/a	n/a	n/a	n/a	n/a	n/a	n/a	n/a	n/a	n/a	n/a
1701966	WORD	wordpools/wasnorm_wordpool.txt	LTP111	ltpFR	8	7	0	RACCOON	1153	n/a	n/a	0	n/a	0	0	0	0.422607421875	0.5869140625	0	lower	amplitud.ttf
1704971	START	n/a	LTP111	ltpFR	8	n/a	n/a	n/a	n/a	n/a	n/a	n/a	n/a	n/a	n/a	n/a	n/a	n/a	n/a	n/a	n/a
1705870	PROB	n/a	LTP111	ltpFR	8	n/a	n/a	n/a	n/a	n/a	n/a	n/a	17	5	6	6	n/a	n/a	n/a	n/a	n/a
1712137	PROB	n/a	LTP111	ltpFR	8	n/a	n/a	n/a	n/a	n/a	n/a	n/a	9	3	1	5	n/a	n/a	n/a	n/a	n/a
1714501	PROB	n/a	LTP111	ltpFR	8	n/a	n/a	n/a	n/a	n/a	n/a	n/a	17	7	2	8	n/a	n/a	n/a	n/a	n/a
1720854	STOP	n/a	LTP111	ltpFR	8	n/a	n/a	n/a	n/a	n/a	n/a	n/a	n/a	n/a	n/a	n/a	n/a	n/a	n/a	n/a	n/a
1721893	WORD	wordpools/wasnorm_wordpool.txt	LTP111	ltpFR	8	7	0	DUSTPAN	509	n/a	n/a	0	n/a	0	0	0	0.422607421875	0.5869140625	0	lower	amplitud.ttf
1724898	START	n/a	LTP111	ltpFR	8	n/a	n/a	n/a	n/a	n/a	n/a	n/a	n/a	n/a	n/a	n/a	n/a	n/a	n/a	n/a	n/a
1726096	PROB	n/a	LTP111	ltpFR	8	n/a	n/a	n/a	n/a	n/a	n/a	n/a	12	4	4	4	n/a	n/a	n/a	n/a	n/a
1731065	PROB	n/a	LTP111	ltpFR	8	n/a	n/a	n/a	n/a	n/a	n/a	n/a	23	7	7	9	n/a	n/a	n/a	n/a	n/a
1740898	STOP	n/a	LTP111	ltpFR	8	n/a	n/a	n/a	n/a	n/a	n/a	n/a	n/a	n/a	n/a	n/a	n/a	n/a	n/a	n/a	n/a
1741836	WORD	wordpools/wasnorm_wordpool.txt	LTP111	ltpFR	8	7	0	EARTH	515	n/a	n/a	1	n/a	0	0	0	0.422607421875	0.5869140625	0	lower	amplitud.ttf
1744842	START	n/a	LTP111	ltpFR	8	n/a	n/a	n/a	n/a	n/a	n/a	n/a	n/a	n/a	n/a	n/a	n/a	n/a	n/a	n/a	n/a
1746031	PROB	n/a	LTP111	ltpFR	8	n/a	n/a	n/a	n/a	n/a	n/a	n/a	12	4	1	7	n/a	n/a	n/a	n/a	n/a
1748895	PROB	n/a	LTP111	ltpFR	8	n/a	n/a	n/a	n/a	n/a	n/a	n/a	21	8	8	7	n/a	n/a	n/a	n/a	n/a
1752366	PROB	n/a	LTP111	ltpFR	8	n/a	n/a	n/a	n/a	n/a	n/a	n/a	9	3	5	1	n/a	n/a	n/a	n/a	n/a
1754547	PROB	n/a	LTP111	ltpFR	8	n/a	n/a	n/a	n/a	n/a	n/a	n/a	21	6	6	6	n/a	n/a	n/a	n/a	n/a
1756303	PROB	n/a	LTP111	ltpFR	8	n/a	n/a	n/a	n/a	n/a	n/a	n/a	21	3	9	9	n/a	n/a	n/a	n/a	n/a
1760566	STOP	n/a	LTP111	ltpFR	8	n/a	n/a	n/a	n/a	n/a	n/a	n/a	n/a	n/a	n/a	n/a	n/a	n/a	n/a	n/a	n/a
1761921	WORD	wordpools/wasnorm_wordpool.txt	LTP111	ltpFR	8	7	0	MUSHROOM	934	n/a	n/a	0	n/a	0	0	0	0.422607421875	0.5869140625	0	lower	amplitud.ttf
1764927	START	n/a	LTP111	ltpFR	8	n/a	n/a	n/a	n/a	n/a	n/a	n/a	n/a	n/a	n/a	n/a	n/a	n/a	n/a	n/a	n/a
1765775	PROB	n/a	LTP111	ltpFR	8	n/a	n/a	n/a	n/a	n/a	n/a	n/a	15	8	6	1	n/a	n/a	n/a	n/a	n/a
1769138	PROB	n/a	LTP111	ltpFR	8	n/a	n/a	n/a	n/a	n/a	n/a	n/a	10	6	2	2	n/a	n/a	n/a	n/a	n/a
1772201	PROB	n/a	LTP111	ltpFR	8	n/a	n/a	n/a	n/a	n/a	n/a	n/a	12	1	7	4	n/a	n/a	n/a	n/a	n/a
1780926	STOP	n/a	LTP111	ltpFR	8	n/a	n/a	n/a	n/a	n/a	n/a	n/a	n/a	n/a	n/a	n/a	n/a	n/a	n/a	n/a	n/a
1781931	WORD	wordpools/wasnorm_wordpool.txt	LTP111	ltpFR	8	7	0	BEAN	105	n/a	n/a	0	n/a	0	0	0	0.422607421875	0.5869140625	0	lower	amplitud.ttf
1784937	START	n/a	LTP111	ltpFR	8	n/a	n/a	n/a	n/a	n/a	n/a	n/a	n/a	n/a	n/a	n/a	n/a	n/a	n/a	n/a	n/a
1785935	PROB	n/a	LTP111	ltpFR	8	n/a	n/a	n/a	n/a	n/a	n/a	n/a	11	4	5	2	n/a	n/a	n/a	n/a	n/a
1790213	PROB	n/a	LTP111	ltpFR	8	n/a	n/a	n/a	n/a	n/a	n/a	n/a	13	8	2	3	n/a	n/a	n/a	n/a	n/a
1792752	PROB	n/a	LTP111	ltpFR	8	n/a	n/a	n/a	n/a	n/a	n/a	n/a	5	1	1	3	n/a	n/a	n/a	n/a	n/a
1795108	PROB	n/a	LTP111	ltpFR	8	n/a	n/a	n/a	n/a	n/a	n/a	n/a	20	8	9	3	n/a	n/a	n/a	n/a	n/a
1799510	STOP	n/a	LTP111	ltpFR	8	n/a	n/a	n/a	n/a	n/a	n/a	n/a	n/a	n/a	n/a	n/a	n/a	n/a	n/a	n/a	n/a
1801783	WORD	wordpools/wasnorm_wordpool.txt	LTP111	ltpFR	8	7	0	BRACELET	163	n/a	n/a	0	n/a	0	0	0	0.422607421875	0.5869140625	0	lower	amplitud.ttf
1804789	START	n/a	LTP111	ltpFR	8	n/a	n/a	n/a	n/a	n/a	n/a	n/a	n/a	n/a	n/a	n/a	n/a	n/a	n/a	n/a	n/a
1805845	PROB	n/a	LTP111	ltpFR	8	n/a	n/a	n/a	n/a	n/a	n/a	n/a	7	5	1	1	n/a	n/a	n/a	n/a	n/a
1811905	PROB	n/a	LTP111	ltpFR	8	n/a	n/a	n/a	n/a	n/a	n/a	n/a	6	1	3	2	n/a	n/a	n/a	n/a	n/a
1820789	STOP	n/a	LTP111	ltpFR	8	n/a	n/a	n/a	n/a	n/a	n/a	n/a	n/a	n/a	n/a	n/a	n/a	n/a	n/a	n/a	n/a
1821694	WORD	wordpools/wasnorm_wordpool.txt	LTP111	ltpFR	8	7	0	NOTEBOOK	959	n/a	n/a	0	n/a	0	0	0	0.422607421875	0.5869140625	0	lower	amplitud.ttf
1824699	START	n/a	LTP111	ltpFR	8	n/a	n/a	n/a	n/a	n/a	n/a	n/a	n/a	n/a	n/a	n/a	n/a	n/a	n/a	n/a	n/a
1825847	PROB	n/a	LTP111	ltpFR	8	n/a	n/a	n/a	n/a	n/a	n/a	n/a	10	3	6	1	n/a	n/a	n/a	n/a	n/a
1828519	PROB	n/a	LTP111	ltpFR	8	n/a	n/a	n/a	n/a	n/a	n/a	n/a	13	7	5	1	n/a	n/a	n/a	n/a	n/a
1832115	PROB	n/a	LTP111	ltpFR	8	n/a	n/a	n/a	n/a	n/a	n/a	n/a	14	1	5	8	n/a	n/a	n/a	n/a	n/a
1836052	PROB	n/a	LTP111	ltpFR	8	n/a	n/a	n/a	n/a	n/a	n/a	n/a	10	6	2	2	n/a	n/a	n/a	n/a	n/a
1840699	STOP	n/a	LTP111	ltpFR	8	n/a	n/a	n/a	n/a	n/a	n/a	n/a	n/a	n/a	n/a	n/a	n/a	n/a	n/a	n/a	n/a
1841837	WORD	wordpools/wasnorm_wordpool.txt	LTP111	ltpFR	8	7	0	CHAMPAGNE	278	n/a	n/a	0	n/a	0	0	0	0.422607421875	0.5869140625	0	lower	amplitud.ttf
1844842	START	n/a	LTP111	ltpFR	8	n/a	n/a	n/a	n/a	n/a	n/a	n/a	n/a	n/a	n/a	n/a	n/a	n/a	n/a	n/a	n/a
1845899	PROB	n/a	LTP111	ltpFR	8	n/a	n/a	n/a	n/a	n/a	n/a	n/a	13	5	1	7	n/a	n/a	n/a	n/a	n/a
1850077	PROB	n/a	LTP111	ltpFR	8	n/a	n/a	n/a	n/a	n/a	n/a	n/a	19	9	2	8	n/a	n/a	n/a	n/a	n/a
1853340	PROB	n/a	LTP111	ltpFR	8	n/a	n/a	n/a	n/a	n/a	n/a	n/a	18	2	7	9	n/a	n/a	n/a	n/a	n/a
1856203	PROB	n/a	LTP111	ltpFR	8	n/a	n/a	n/a	n/a	n/a	n/a	n/a	12	2	5	5	n/a	n/a	n/a	n/a	n/a
1857476	PROB	n/a	LTP111	ltpFR	8	n/a	n/a	n/a	n/a	n/a	n/a	n/a	16	6	2	8	n/a	n/a	n/a	n/a	n/a
1860406	STOP	n/a	LTP111	ltpFR	8	n/a	n/a	n/a	n/a	n/a	n/a	n/a	n/a	n/a	n/a	n/a	n/a	n/a	n/a	n/a	n/a
1861672	WORD	wordpools/wasnorm_wordpool.txt	LTP111	ltpFR	8	7	0	TUB	1514	n/a	n/a	0	n/a	0	0	0	0.422607421875	0.5869140625	0	lower	amplitud.ttf
1864677	START	n/a	LTP111	ltpFR	8	n/a	n/a	n/a	n/a	n/a	n/a	n/a	n/a	n/a	n/a	n/a	n/a	n/a	n/a	n/a	n/a
1865701	PROB	n/a	LTP111	ltpFR	8	n/a	n/a	n/a	n/a	n/a	n/a	n/a	7	4	1	2	n/a	n/a	n/a	n/a	n/a
1869479	PROB	n/a	LTP111	ltpFR	8	n/a	n/a	n/a	n/a	n/a	n/a	n/a	11	1	7	3	n/a	n/a	n/a	n/a	n/a
1872684	PROB	n/a	LTP111	ltpFR	8	n/a	n/a	n/a	n/a	n/a	n/a	n/a	13	6	6	2	n/a	n/a	n/a	n/a	n/a
1874624	PROB	n/a	LTP111	ltpFR	8	n/a	n/a	n/a	n/a	n/a	n/a	n/a	12	2	3	7	n/a	n/a	n/a	n/a	n/a
1877803	PROB	n/a	LTP111	ltpFR	8	n/a	n/a	n/a	n/a	n/a	n/a	n/a	16	6	8	2	n/a	n/a	n/a	n/a	n/a
1880406	STOP	n/a	LTP111	ltpFR	8	n/a	n/a	n/a	n/a	n/a	n/a	n/a	n/a	n/a	n/a	n/a	n/a	n/a	n/a	n/a	n/a
1881824	WORD	wordpools/wasnorm_wordpool.txt	LTP111	ltpFR	8	7	0	BINDER	127	n/a	n/a	0	n/a	0	0	0	0.422607421875	0.5869140625	0	lower	amplitud.ttf
1884829	START	n/a	LTP111	ltpFR	8	n/a	n/a	n/a	n/a	n/a	n/a	n/a	n/a	n/a	n/a	n/a	n/a	n/a	n/a	n/a	n/a
1885994	PROB	n/a	LTP111	ltpFR	8	n/a	n/a	n/a	n/a	n/a	n/a	n/a	1	5	7	1	n/a	n/a	n/a	n/a	n/a
1889873	PROB	n/a	LTP111	ltpFR	8	n/a	n/a	n/a	n/a	n/a	n/a	n/a	17	9	1	7	n/a	n/a	n/a	n/a	n/a
1892253	PROB	n/a	LTP111	ltpFR	8	n/a	n/a	n/a	n/a	n/a	n/a	n/a	10	7	1	2	n/a	n/a	n/a	n/a	n/a
1894193	PROB	n/a	LTP111	ltpFR	8	n/a	n/a	n/a	n/a	n/a	n/a	n/a	20	7	6	7	n/a	n/a	n/a	n/a	n/a
1896923	PROB	n/a	LTP111	ltpFR	8	n/a	n/a	n/a	n/a	n/a	n/a	n/a	15	3	9	3	n/a	n/a	n/a	n/a	n/a
1900198	STOP	n/a	LTP111	ltpFR	8	n/a	n/a	n/a	n/a	n/a	n/a	n/a	n/a	n/a	n/a	n/a	n/a	n/a	n/a	n/a	n/a
1901784	WORD	wordpools/wasnorm_wordpool.txt	LTP111	ltpFR	8	7	0	JEWEL	757	n/a	n/a	0	n/a	0	0	0	0.422607421875	0.5869140625	0	lower	amplitud.ttf
1904789	START	n/a	LTP111	ltpFR	8	n/a	n/a	n/a	n/a	n/a	n/a	n/a	n/a	n/a	n/a	n/a	n/a	n/a	n/a	n/a	n/a
1905704	PROB	n/a	LTP111	ltpFR	8	n/a	n/a	n/a	n/a	n/a	n/a	n/a	19	7	4	8	n/a	n/a	n/a	n/a	n/a
1910307	PROB	n/a	LTP111	ltpFR	8	n/a	n/a	n/a	n/a	n/a	n/a	n/a	18	5	7	6	n/a	n/a	n/a	n/a	n/a
1915793	PROB	n/a	LTP111	ltpFR	8	n/a	n/a	n/a	n/a	n/a	n/a	n/a	19	5	8	6	n/a	n/a	n/a	n/a	n/a
1920788	STOP	n/a	LTP111	ltpFR	8	n/a	n/a	n/a	n/a	n/a	n/a	n/a	n/a	n/a	n/a	n/a	n/a	n/a	n/a	n/a	n/a
1921852	WORD	wordpools/wasnorm_wordpool.txt	LTP111	ltpFR	8	7	0	SHORE	1291	n/a	n/a	0	n/a	0	0	0	0.422607421875	0.5869140625	0	lower	amplitud.ttf
1924858	START	n/a	LTP111	ltpFR	8	n/a	n/a	n/a	n/a	n/a	n/a	n/a	n/a	n/a	n/a	n/a	n/a	n/a	n/a	n/a	n/a
1925848	PROB	n/a	LTP111	ltpFR	8	n/a	n/a	n/a	n/a	n/a	n/a	n/a	9	6	2	1	n/a	n/a	n/a	n/a	n/a
1929685	PROB	n/a	LTP111	ltpFR	8	n/a	n/a	n/a	n/a	n/a	n/a	n/a	16	2	8	6	n/a	n/a	n/a	n/a	n/a
1931807	PROB	n/a	LTP111	ltpFR	8	n/a	n/a	n/a	n/a	n/a	n/a	n/a	11	1	3	7	n/a	n/a	n/a	n/a	n/a
1933471	PROB	n/a	LTP111	ltpFR	8	n/a	n/a	n/a	n/a	n/a	n/a	n/a	14	6	3	5	n/a	n/a	n/a	n/a	n/a
1940414	STOP	n/a	LTP111	ltpFR	8	n/a	n/a	n/a	n/a	n/a	n/a	n/a	n/a	n/a	n/a	n/a	n/a	n/a	n/a	n/a	n/a
1941796	WORD	wordpools/wasnorm_wordpool.txt	LTP111	ltpFR	8	7	0	JURY	766	n/a	n/a	0	n/a	0	0	0	0.422607421875	0.5869140625	0	lower	amplitud.ttf
1944801	START	n/a	LTP111	ltpFR	8	n/a	n/a	n/a	n/a	n/a	n/a	n/a	n/a	n/a	n/a	n/a	n/a	n/a	n/a	n/a	n/a
1945774	PROB	n/a	LTP111	ltpFR	8	n/a	n/a	n/a	n/a	n/a	n/a	n/a	12	2	6	4	n/a	n/a	n/a	n/a	n/a
1947656	PROB	n/a	LTP111	ltpFR	8	n/a	n/a	n/a	n/a	n/a	n/a	n/a	9	2	3	4	n/a	n/a	n/a	n/a	n/a
1952284	PROB	n/a	LTP111	ltpFR	8	n/a	n/a	n/a	n/a	n/a	n/a	n/a	18	6	4	8	n/a	n/a	n/a	n/a	n/a
1960801	STOP	n/a	LTP111	ltpFR	8	n/a	n/a	n/a	n/a	n/a	n/a	n/a	n/a	n/a	n/a	n/a	n/a	n/a	n/a	n/a	n/a
1961872	WORD	wordpools/wasnorm_wordpool.txt	LTP111	ltpFR	8	7	0	COURT	391	n/a	n/a	0	n/a	0	0	0	0.422607421875	0.5869140625	0	lower	amplitud.ttf
1964878	START	n/a	LTP111	ltpFR	8	n/a	n/a	n/a	n/a	n/a	n/a	n/a	n/a	n/a	n/a	n/a	n/a	n/a	n/a	n/a	n/a
1965785	PROB	n/a	LTP111	ltpFR	8	n/a	n/a	n/a	n/a	n/a	n/a	n/a	10	3	2	5	n/a	n/a	n/a	n/a	n/a
1969364	PROB	n/a	LTP111	ltpFR	8	n/a	n/a	n/a	n/a	n/a	n/a	n/a	14	1	4	9	n/a	n/a	n/a	n/a	n/a
1971028	PROB	n/a	LTP111	ltpFR	8	n/a	n/a	n/a	n/a	n/a	n/a	n/a	15	5	7	3	n/a	n/a	n/a	n/a	n/a
1972810	PROB	n/a	LTP111	ltpFR	8	n/a	n/a	n/a	n/a	n/a	n/a	n/a	11	6	3	2	n/a	n/a	n/a	n/a	n/a
1976705	PROB	n/a	LTP111	ltpFR	8	n/a	n/a	n/a	n/a	n/a	n/a	n/a	16	6	1	9	n/a	n/a	n/a	n/a	n/a
1980878	STOP	n/a	LTP111	ltpFR	8	n/a	n/a	n/a	n/a	n/a	n/a	n/a	n/a	n/a	n/a	n/a	n/a	n/a	n/a	n/a	n/a
1981758	WORD	wordpools/wasnorm_wordpool.txt	LTP111	ltpFR	8	7	0	GALLON	618	n/a	n/a	0	n/a	0	0	0	0.422607421875	0.5869140625	0	lower	amplitud.ttf
1984763	START	n/a	LTP111	ltpFR	8	n/a	n/a	n/a	n/a	n/a	n/a	n/a	n/a	n/a	n/a	n/a	n/a	n/a	n/a	n/a	n/a
1985753	PROB	n/a	LTP111	ltpFR	8	n/a	n/a	n/a	n/a	n/a	n/a	n/a	16	5	8	3	n/a	n/a	n/a	n/a	n/a
1990797	PROB	n/a	LTP111	ltpFR	8	n/a	n/a	n/a	n/a	n/a	n/a	n/a	17	7	8	2	n/a	n/a	n/a	n/a	n/a
1993852	PROB	n/a	LTP111	ltpFR	8	n/a	n/a	n/a	n/a	n/a	n/a	n/a	12	8	1	3	n/a	n/a	n/a	n/a	n/a
1996532	PROB	n/a	LTP111	ltpFR	8	n/a	n/a	n/a	n/a	n/a	n/a	n/a	9	1	6	2	n/a	n/a	n/a	n/a	n/a
2000670	STOP	n/a	LTP111	ltpFR	8	n/a	n/a	n/a	n/a	n/a	n/a	n/a	n/a	n/a	n/a	n/a	n/a	n/a	n/a	n/a	n/a
2002551	REC_START	n/a	LTP111	ltpFR	8	7	n/a	n/a	n/a	n/a	n/a	n/a	n/a	0	0	0	n/a	n/a	n/a	n/a	n/a
2006691	REC_WORD	wordpools/wasnorm_wordpool.txt	LTP111	ltpFR	8	7	0	EARTH	515	n/a	n/a	1	n/a	0	0	0	n/a	n/a	n/a	n/a	n/a
2011805	REC_WORD	wordpools/wasnorm_wordpool.txt	LTP111	ltpFR	8	7	0	MUSHROOM	934	n/a	n/a	0	n/a	0	0	0	n/a	n/a	n/a	n/a	n/a
2013555	REC_WORD	wordpools/wasnorm_wordpool.txt	LTP111	ltpFR	8	7	0	BEAN	105	n/a	n/a	0	n/a	0	0	0	n/a	n/a	n/a	n/a	n/a
2016494	REC_WORD	wordpools/wasnorm_wordpool.txt	LTP111	ltpFR	8	7	0	BRACELET	163	n/a	n/a	0	n/a	0	0	0	n/a	n/a	n/a	n/a	n/a
2019682	REC_WORD	wordpools/wasnorm_wordpool.txt	LTP111	ltpFR	8	7	0	JEWEL	757	n/a	n/a	0	n/a	0	0	0	n/a	n/a	n/a	n/a	n/a
2023184	REC_WORD	wordpools/wasnorm_wordpool.txt	LTP111	ltpFR	8	7	0	NOTEBOOK	959	n/a	n/a	0	n/a	0	0	0	n/a	n/a	n/a	n/a	n/a
2024825	REC_WORD	wordpools/wasnorm_wordpool.txt	LTP111	ltpFR	8	7	0	BINDER	127	n/a	n/a	0	n/a	0	0	0	n/a	n/a	n/a	n/a	n/a
2026476	REC_WORD	wordpools/wasnorm_wordpool.txt	LTP111	ltpFR	8	7	n/a	BATHTUB	100	n/a	n/a	n/a	n/a	0	0	0	n/a	n/a	n/a	n/a	n/a
2028981	REC_WORD	wordpools/wasnorm_wordpool.txt	LTP111	ltpFR	8	7	0	CHAMPAGNE	278	n/a	n/a	0	n/a	0	0	0	n/a	n/a	n/a	n/a	n/a
2032503	REC_WORD	wordpools/wasnorm_wordpool.txt	LTP111	ltpFR	8	7	0	JURY	766	n/a	n/a	0	n/a	0	0	0	n/a	n/a	n/a	n/a	n/a
2036483	REC_WORD	wordpools/wasnorm_wordpool.txt	LTP111	ltpFR	8	7	0	COURT	391	n/a	n/a	0	n/a	0	0	0	n/a	n/a	n/a	n/a	n/a
2079378	START	n/a	LTP111	ltpFR	8	n/a	n/a	n/a	n/a	n/a	n/a	n/a	n/a	n/a	n/a	n/a	n/a	n/a	n/a	n/a	n/a
2080884	PROB	n/a	LTP111	ltpFR	8	n/a	n/a	n/a	n/a	n/a	n/a	n/a	17	3	7	7	n/a	n/a	n/a	n/a	n/a
2084429	PROB	n/a	LTP111	ltpFR	8	n/a	n/a	n/a	n/a	n/a	n/a	n/a	22	7	7	8	n/a	n/a	n/a	n/a	n/a
2088692	PROB	n/a	LTP111	ltpFR	8	n/a	n/a	n/a	n/a	n/a	n/a	n/a	22	4	9	9	n/a	n/a	n/a	n/a	n/a
2090881	PROB	n/a	LTP111	ltpFR	8	n/a	n/a	n/a	n/a	n/a	n/a	n/a	16	9	3	4	n/a	n/a	n/a	n/a	n/a
2094518	STOP	n/a	LTP111	ltpFR	8	n/a	n/a	n/a	n/a	n/a	n/a	n/a	n/a	n/a	n/a	n/a	n/a	n/a	n/a	n/a	n/a
2096316	WORD	wordpools/wasnorm_wordpool.txt	LTP111	ltpFR	8	8	1	MILITARY	894	n/a	n/a	0	n/a	0	0	0	0.57763671875	0.412841796875	1	upper	zerothre.ttf
2099322	START	n/a	LTP111	ltpFR	8	n/a	n/a	n/a	n/a	n/a	n/a	n/a	n/a	n/a	n/a	n/a	n/a	n/a	n/a	n/a	n/a
2100485	PROB	n/a	LTP111	ltpFR	8	n/a	n/a	n/a	n/a	n/a	n/a	n/a	16	8	1	7	n/a	n/a	n/a	n/a	n/a
2104632	PROB	n/a	LTP111	ltpFR	8	n/a	n/a	n/a	n/a	n/a	n/a	n/a	16	4	8	4	n/a	n/a	n/a	n/a	n/a
2107054	PROB	n/a	LTP111	ltpFR	8	n/a	n/a	n/a	n/a	n/a	n/a	n/a	20	7	8	5	n/a	n/a	n/a	n/a	n/a
2110034	PROB	n/a	LTP111	ltpFR	8	n/a	n/a	n/a	n/a	n/a	n/a	n/a	12	3	2	4	n/a	n/a	n/a	n/a	n/a
2114022	STOP	n/a	LTP111	ltpFR	8	n/a	n/a	n/a	n/a	n/a	n/a	n/a	n/a	n/a	n/a	n/a	n/a	n/a	n/a	n/a	n/a
2116210	WORD	wordpools/wasnorm_wordpool.txt	LTP111	ltpFR	8	8	1	CREATURE	403	n/a	n/a	0	n/a	0	0	0	0.57763671875	0.412841796875	1	upper	zerothre.ttf
2119215	START	n/a	LTP111	ltpFR	8	n/a	n/a	n/a	n/a	n/a	n/a	n/a	n/a	n/a	n/a	n/a	n/a	n/a	n/a	n/a	n/a
2120405	PROB	n/a	LTP111	ltpFR	8	n/a	n/a	n/a	n/a	n/a	n/a	n/a	18	8	4	6	n/a	n/a	n/a	n/a	n/a
2123993	PROB	n/a	LTP111	ltpFR	8	n/a	n/a	n/a	n/a	n/a	n/a	n/a	12	5	1	6	n/a	n/a	n/a	n/a	n/a
2125616	PROB	n/a	LTP111	ltpFR	8	n/a	n/a	n/a	n/a	n/a	n/a	n/a	12	3	7	2	n/a	n/a	n/a	n/a	n/a
2127555	PROB	n/a	LTP111	ltpFR	8	n/a	n/a	n/a	n/a	n/a	n/a	n/a	11	4	3	4	n/a	n/a	n/a	n/a	n/a
2132799	PROB	n/a	LTP111	ltpFR	8	n/a	n/a	n/a	n/a	n/a	n/a	n/a	12	3	2	7	n/a	n/a	n/a	n/a	n/a
2134429	STOP	n/a	LTP111	ltpFR	8	n/a	n/a	n/a	n/a	n/a	n/a	n/a	n/a	n/a	n/a	n/a	n/a	n/a	n/a	n/a	n/a
2136203	WORD	wordpools/wasnorm_wordpool.txt	LTP111	ltpFR	8	8	1	COPIER	377	n/a	n/a	0	n/a	0	0	0	0.57763671875	0.412841796875	1	upper	zerothre.ttf
2139209	START	n/a	LTP111	ltpFR	8	n/a	n/a	n/a	n/a	n/a	n/a	n/a	n/a	n/a	n/a	n/a	n/a	n/a	n/a	n/a	n/a
2140049	PROB	n/a	LTP111	ltpFR	8	n/a	n/a	n/a	n/a	n/a	n/a	n/a	15	5	5	5	n/a	n/a	n/a	n/a	n/a
2141539	PROB	n/a	LTP111	ltpFR	8	n/a	n/a	n/a	n/a	n/a	n/a	n/a	12	2	8	2	n/a	n/a	n/a	n/a	n/a
2143129	PROB	n/a	LTP111	ltpFR	8	n/a	n/a	n/a	n/a	n/a	n/a	n/a	11	3	7	1	n/a	n/a	n/a	n/a	n/a
2145343	PROB	n/a	LTP111	ltpFR	8	n/a	n/a	n/a	n/a	n/a	n/a	n/a	16	2	7	7	n/a	n/a	n/a	n/a	n/a
2147074	PROB	n/a	LTP111	ltpFR	8	n/a	n/a	n/a	n/a	n/a	n/a	n/a	12	2	5	5	n/a	n/a	n/a	n/a	n/a
2148480	PROB	n/a	LTP111	ltpFR	8	n/a	n/a	n/a	n/a	n/a	n/a	n/a	15	5	9	1	n/a	n/a	n/a	n/a	n/a
2155209	STOP	n/a	LTP111	ltpFR	8	n/a	n/a	n/a	n/a	n/a	n/a	n/a	n/a	n/a	n/a	n/a	n/a	n/a	n/a	n/a	n/a
2156421	WORD	wordpools/wasnorm_wordpool.txt	LTP111	ltpFR	8	8	1	BLACKBERRY	132	n/a	n/a	0	n/a	0	0	0	0.57763671875	0.412841796875	1	upper	zerothre.ttf
2159426	START	n/a	LTP111	ltpFR	8	n/a	n/a	n/a	n/a	n/a	n/a	n/a	n/a	n/a	n/a	n/a	n/a	n/a	n/a	n/a	n/a
2160234	PROB	n/a	LTP111	ltpFR	8	n/a	n/a	n/a	n/a	n/a	n/a	n/a	16	7	3	6	n/a	n/a	n/a	n/a	n/a
2162148	PROB	n/a	LTP111	ltpFR	8	n/a	n/a	n/a	n/a	n/a	n/a	n/a	22	4	9	9	n/a	n/a	n/a	n/a	n/a
2165561	PROB	n/a	LTP111	ltpFR	8	n/a	n/a	n/a	n/a	n/a	n/a	n/a	10	4	4	2	n/a	n/a	n/a	n/a	n/a
2167509	PROB	n/a	LTP111	ltpFR	8	n/a	n/a	n/a	n/a	n/a	n/a	n/a	18	5	4	9	n/a	n/a	n/a	n/a	n/a
2171013	PROB	n/a	LTP111	ltpFR	8	n/a	n/a	n/a	n/a	n/a	n/a	n/a	11	8	1	2	n/a	n/a	n/a	n/a	n/a
2175426	STOP	n/a	LTP111	ltpFR	8	n/a	n/a	n/a	n/a	n/a	n/a	n/a	n/a	n/a	n/a	n/a	n/a	n/a	n/a	n/a	n/a
2176240	WORD	wordpools/wasnorm_wordpool.txt	LTP111	ltpFR	8	8	1	PECAN	1036	n/a	n/a	1	n/a	0	0	0	0.57763671875	0.412841796875	1	upper	zerothre.ttf
2179245	START	n/a	LTP111	ltpFR	8	n/a	n/a	n/a	n/a	n/a	n/a	n/a	n/a	n/a	n/a	n/a	n/a	n/a	n/a	n/a	n/a
2180061	PROB	n/a	LTP111	ltpFR	8	n/a	n/a	n/a	n/a	n/a	n/a	n/a	14	5	8	1	n/a	n/a	n/a	n/a	n/a
2182316	PROB	n/a	LTP111	ltpFR	8	n/a	n/a	n/a	n/a	n/a	n/a	n/a	10	4	3	3	n/a	n/a	n/a	n/a	n/a
2186745	PROB	n/a	LTP111	ltpFR	8	n/a	n/a	n/a	n/a	n/a	n/a	n/a	6	3	1	2	n/a	n/a	n/a	n/a	n/a
2189958	PROB	n/a	LTP111	ltpFR	8	n/a	n/a	n/a	n/a	n/a	n/a	n/a	21	9	7	5	n/a	n/a	n/a	n/a	n/a
2195245	STOP	n/a	LTP111	ltpFR	8	n/a	n/a	n/a	n/a	n/a	n/a	n/a	n/a	n/a	n/a	n/a	n/a	n/a	n/a	n/a	n/a
2196117	WORD	wordpools/wasnorm_wordpool.txt	LTP111	ltpFR	8	8	1	BRANCH	168	n/a	n/a	0	n/a	0	0	0	0.57763671875	0.412841796875	1	upper	zerothre.ttf
2199122	START	n/a	LTP111	ltpFR	8	n/a	n/a	n/a	n/a	n/a	n/a	n/a	n/a	n/a	n/a	n/a	n/a	n/a	n/a	n/a	n/a
2200229	PROB	n/a	LTP111	ltpFR	8	n/a	n/a	n/a	n/a	n/a	n/a	n/a	13	7	3	3	n/a	n/a	n/a	n/a	n/a
2202967	PROB	n/a	LTP111	ltpFR	8	n/a	n/a	n/a	n/a	n/a	n/a	n/a	16	2	7	8	n/a	n/a	n/a	n/a	n/a
2206222	PROB	n/a	LTP111	ltpFR	8	n/a	n/a	n/a	n/a	n/a	n/a	n/a	15	7	3	5	n/a	n/a	n/a	n/a	n/a
2208686	PROB	n/a	LTP111	ltpFR	8	n/a	n/a	n/a	n/a	n/a	n/a	n/a	9	6	2	1	n/a	n/a	n/a	n/a	n/a
2215122	STOP	n/a	LTP111	ltpFR	8	n/a	n/a	n/a	n/a	n/a	n/a	n/a	n/a	n/a	n/a	n/a	n/a	n/a	n/a	n/a	n/a
2216219	WORD	wordpools/wasnorm_wordpool.txt	LTP111	ltpFR	8	8	1	EUROPE	541	n/a	n/a	0	n/a	0	0	0	0.57763671875	0.412841796875	1	upper	zerothre.ttf
2219224	START	n/a	LTP111	ltpFR	8	n/a	n/a	n/a	n/a	n/a	n/a	n/a	n/a	n/a	n/a	n/a	n/a	n/a	n/a	n/a	n/a
2220421	PROB	n/a	LTP111	ltpFR	8	n/a	n/a	n/a	n/a	n/a	n/a	n/a	10	4	1	5	n/a	n/a	n/a	n/a	n/a
2224243	PROB	n/a	LTP111	ltpFR	8	n/a	n/a	n/a	n/a	n/a	n/a	n/a	9	2	6	1	n/a	n/a	n/a	n/a	n/a
2227131	PROB	n/a	LTP111	ltpFR	8	n/a	n/a	n/a	n/a	n/a	n/a	n/a	14	8	1	5	n/a	n/a	n/a	n/a	n/a
2229661	PROB	n/a	LTP111	ltpFR	8	n/a	n/a	n/a	n/a	n/a	n/a	n/a	17	9	4	4	n/a	n/a	n/a	n/a	n/a
2235224	STOP	n/a	LTP111	ltpFR	8	n/a	n/a	n/a	n/a	n/a	n/a	n/a	n/a	n/a	n/a	n/a	n/a	n/a	n/a	n/a	n/a
2236146	WORD	wordpools/wasnorm_wordpool.txt	LTP111	ltpFR	8	8	1	ANIMAL	23	n/a	n/a	0	n/a	0	0	0	0.57763671875	0.412841796875	1	upper	zerothre.ttf
2239151	START	n/a	LTP111	ltpFR	8	n/a	n/a	n/a	n/a	n/a	n/a	n/a	n/a	n/a	n/a	n/a	n/a	n/a	n/a	n/a	n/a
2240133	PROB	n/a	LTP111	ltpFR	8	n/a	n/a	n/a	n/a	n/a	n/a	n/a	23	9	9	5	n/a	n/a	n/a	n/a	n/a
2246242	PROB	n/a	LTP111	ltpFR	8	n/a	n/a	n/a	n/a	n/a	n/a	n/a	17	5	4	8	n/a	n/a	n/a	n/a	n/a
2251236	PROB	n/a	LTP111	ltpFR	8	n/a	n/a	n/a	n/a	n/a	n/a	n/a	21	9	3	9	n/a	n/a	n/a	n/a	n/a
2253670	STOP	n/a	LTP111	ltpFR	8	n/a	n/a	n/a	n/a	n/a	n/a	n/a	n/a	n/a	n/a	n/a	n/a	n/a	n/a	n/a	n/a
2256347	WORD	wordpools/wasnorm_wordpool.txt	LTP111	ltpFR	8	8	1	DOCUMENT	479	n/a	n/a	0	n/a	0	0	0	0.57763671875	0.412841796875	1	upper	zerothre.ttf
2259352	START	n/a	LTP111	ltpFR	8	n/a	n/a	n/a	n/a	n/a	n/a	n/a	n/a	n/a	n/a	n/a	n/a	n/a	n/a	n/a	n/a
2260201	PROB	n/a	LTP111	ltpFR	8	n/a	n/a	n/a	n/a	n/a	n/a	n/a	17	3	7	7	n/a	n/a	n/a	n/a	n/a
2263322	PROB	n/a	LTP111	ltpFR	8	n/a	n/a	n/a	n/a	n/a	n/a	n/a	16	3	7	6	n/a	n/a	n/a	n/a	n/a
2265911	PROB	n/a	LTP111	ltpFR	8	n/a	n/a	n/a	n/a	n/a	n/a	n/a	10	3	5	2	n/a	n/a	n/a	n/a	n/a
2269382	PROB	n/a	LTP111	ltpFR	8	n/a	n/a	n/a	n/a	n/a	n/a	n/a	16	5	2	9	n/a	n/a	n/a	n/a	n/a
2275352	STOP	n/a	LTP111	ltpFR	8	n/a	n/a	n/a	n/a	n/a	n/a	n/a	n/a	n/a	n/a	n/a	n/a	n/a	n/a	n/a	n/a
2276207	WORD	wordpools/wasnorm_wordpool.txt	LTP111	ltpFR	8	8	1	JUNGLE	764	n/a	n/a	0	n/a	0	0	0	0.57763671875	0.412841796875	1	upper	zerothre.ttf
2279213	START	n/a	LTP111	ltpFR	8	n/a	n/a	n/a	n/a	n/a	n/a	n/a	n/a	n/a	n/a	n/a	n/a	n/a	n/a	n/a	n/a
2280178	PROB	n/a	LTP111	ltpFR	8	n/a	n/a	n/a	n/a	n/a	n/a	n/a	21	7	5	7	n/a	n/a	n/a	n/a	n/a
2283366	PROB	n/a	LTP111	ltpFR	8	n/a	n/a	n/a	n/a	n/a	n/a	n/a	21	5	7	1	n/a	n/a	n/a	n/a	n/a
2288743	PROB	n/a	LTP111	ltpFR	8	n/a	n/a	n/a	n/a	n/a	n/a	n/a	16	4	7	5	n/a	n/a	n/a	n/a	n/a
2295213	STOP	n/a	LTP111	ltpFR	8	n/a	n/a	n/a	n/a	n/a	n/a	n/a	n/a	n/a	n/a	n/a	n/a	n/a	n/a	n/a	n/a
2296317	WORD	wordpools/wasnorm_wordpool.txt	LTP111	ltpFR	8	8	1	TROMBONE	1508	n/a	n/a	0	n/a	0	0	0	0.57763671875	0.412841796875	1	upper	zerothre.ttf
2299323	START	n/a	LTP111	ltpFR	8	n/a	n/a	n/a	n/a	n/a	n/a	n/a	n/a	n/a	n/a	n/a	n/a	n/a	n/a	n/a	n/a
2300521	PROB	n/a	LTP111	ltpFR	8	n/a	n/a	n/a	n/a	n/a	n/a	n/a	12	8	2	2	n/a	n/a	n/a	n/a	n/a
2303392	PROB	n/a	LTP111	ltpFR	8	n/a	n/a	n/a	n/a	n/a	n/a	n/a	14	3	2	4	n/a	n/a	n/a	n/a	n/a
2306922	PROB	n/a	LTP111	ltpFR	8	n/a	n/a	n/a	n/a	n/a	n/a	n/a	11	4	5	2	n/a	n/a	n/a	n/a	n/a
2310284	PROB	n/a	LTP111	ltpFR	8	n/a	n/a	n/a	n/a	n/a	n/a	n/a	11	8	2	1	n/a	n/a	n/a	n/a	n/a
2313918	STOP	n/a	LTP111	ltpFR	8	n/a	n/a	n/a	n/a	n/a	n/a	n/a	n/a	n/a	n/a	n/a	n/a	n/a	n/a	n/a	n/a
2316361	WORD	wordpools/wasnorm_wordpool.txt	LTP111	ltpFR	8	8	1	TAPE	1433	n/a	n/a	0	n/a	0	0	0	0.57763671875	0.412841796875	1	upper	zerothre.ttf
2319366	START	n/a	LTP111	ltpFR	8	n/a	n/a	n/a	n/a	n/a	n/a	n/a	n/a	n/a	n/a	n/a	n/a	n/a	n/a	n/a	n/a
2320281	PROB	n/a	LTP111	ltpFR	8	n/a	n/a	n/a	n/a	n/a	n/a	n/a	16	6	3	7	n/a	n/a	n/a	n/a	n/a
2324318	PROB	n/a	LTP111	ltpFR	8	n/a	n/a	n/a	n/a	n/a	n/a	n/a	21	9	9	3	n/a	n/a	n/a	n/a	n/a
2326341	PROB	n/a	LTP111	ltpFR	8	n/a	n/a	n/a	n/a	n/a	n/a	n/a	14	6	2	6	n/a	n/a	n/a	n/a	n/a
2329312	PROB	n/a	LTP111	ltpFR	8	n/a	n/a	n/a	n/a	n/a	n/a	n/a	16	7	8	1	n/a	n/a	n/a	n/a	n/a
2335366	STOP	n/a	LTP111	ltpFR	8	n/a	n/a	n/a	n/a	n/a	n/a	n/a	n/a	n/a	n/a	n/a	n/a	n/a	n/a	n/a	n/a
2336512	WORD	wordpools/wasnorm_wordpool.txt	LTP111	ltpFR	8	8	1	OCEAN	970	n/a	n/a	1	n/a	0	0	0	0.57763671875	0.412841796875	1	upper	zerothre.ttf
2339518	START	n/a	LTP111	ltpFR	8	n/a	n/a	n/a	n/a	n/a	n/a	n/a	n/a	n/a	n/a	n/a	n/a	n/a	n/a	n/a	n/a
2340465	PROB	n/a	LTP111	ltpFR	8	n/a	n/a	n/a	n/a	n/a	n/a	n/a	12	3	1	8	n/a	n/a	n/a	n/a	n/a
2344312	PROB	n/a	LTP111	ltpFR	8	n/a	n/a	n/a	n/a	n/a	n/a	n/a	17	2	6	9	n/a	n/a	n/a	n/a	n/a
2350013	PROB	n/a	LTP111	ltpFR	8	n/a	n/a	n/a	n/a	n/a	n/a	n/a	9	1	7	1	n/a	n/a	n/a	n/a	n/a
2355518	STOP	n/a	LTP111	ltpFR	8	n/a	n/a	n/a	n/a	n/a	n/a	n/a	n/a	n/a	n/a	n/a	n/a	n/a	n/a	n/a	n/a
2356556	WORD	wordpools/wasnorm_wordpool.txt	LTP111	ltpFR	8	8	1	MOAT	903	n/a	n/a	0	n/a	0	0	0	0.57763671875	0.412841796875	1	upper	zerothre.ttf
2359561	START	n/a	LTP111	ltpFR	8	n/a	n/a	n/a	n/a	n/a	n/a	n/a	n/a	n/a	n/a	n/a	n/a	n/a	n/a	n/a	n/a
2360618	PROB	n/a	LTP111	ltpFR	8	n/a	n/a	n/a	n/a	n/a	n/a	n/a	19	5	8	6	n/a	n/a	n/a	n/a	n/a
2365845	PROB	n/a	LTP111	ltpFR	8	n/a	n/a	n/a	n/a	n/a	n/a	n/a	12	4	4	4	n/a	n/a	n/a	n/a	n/a
2370057	PROB	n/a	LTP111	ltpFR	8	n/a	n/a	n/a	n/a	n/a	n/a	n/a	9	6	2	1	n/a	n/a	n/a	n/a	n/a
2375561	STOP	n/a	LTP111	ltpFR	8	n/a	n/a	n/a	n/a	n/a	n/a	n/a	n/a	n/a	n/a	n/a	n/a	n/a	n/a	n/a	n/a
2376574	WORD	wordpools/wasnorm_wordpool.txt	LTP111	ltpFR	8	8	1	BULLY	196	n/a	n/a	1	n/a	0	0	0	0.57763671875	0.412841796875	1	upper	zerothre.ttf
2379579	START	n/a	LTP111	ltpFR	8	n/a	n/a	n/a	n/a	n/a	n/a	n/a	n/a	n/a	n/a	n/a	n/a	n/a	n/a	n/a	n/a
2380485	PROB	n/a	LTP111	ltpFR	8	n/a	n/a	n/a	n/a	n/a	n/a	n/a	20	9	5	6	n/a	n/a	n/a	n/a	n/a
2383849	PROB	n/a	LTP111	ltpFR	8	n/a	n/a	n/a	n/a	n/a	n/a	n/a	6	3	1	2	n/a	n/a	n/a	n/a	n/a
2395579	STOP	n/a	LTP111	ltpFR	8	n/a	n/a	n/a	n/a	n/a	n/a	n/a	n/a	n/a	n/a	n/a	n/a	n/a	n/a	n/a	n/a
2396551	WORD	wordpools/wasnorm_wordpool.txt	LTP111	ltpFR	8	8	1	FLEA	577	n/a	n/a	1	n/a	0	0	0	0.57763671875	0.412841796875	1	upper	zerothre.ttf
2399556	START	n/a	LTP111	ltpFR	8	n/a	n/a	n/a	n/a	n/a	n/a	n/a	n/a	n/a	n/a	n/a	n/a	n/a	n/a	n/a	n/a
2400372	PROB	n/a	LTP111	ltpFR	8	n/a	n/a	n/a	n/a	n/a	n/a	n/a	16	2	6	8	n/a	n/a	n/a	n/a	n/a
2403801	PROB	n/a	LTP111	ltpFR	8	n/a	n/a	n/a	n/a	n/a	n/a	n/a	16	6	4	6	n/a	n/a	n/a	n/a	n/a
2407222	PROB	n/a	LTP111	ltpFR	8	n/a	n/a	n/a	n/a	n/a	n/a	n/a	16	6	9	1	n/a	n/a	n/a	n/a	n/a
2409236	PROB	n/a	LTP111	ltpFR	8	n/a	n/a	n/a	n/a	n/a	n/a	n/a	6	1	1	4	n/a	n/a	n/a	n/a	n/a
2415556	STOP	n/a	LTP111	ltpFR	8	n/a	n/a	n/a	n/a	n/a	n/a	n/a	n/a	n/a	n/a	n/a	n/a	n/a	n/a	n/a	n/a
2417369	REC_START	n/a	LTP111	ltpFR	8	8	n/a	n/a	n/a	n/a	n/a	n/a	n/a	0	0	0	n/a	n/a	n/a	n/a	n/a
2420247	REC_WORD	wordpools/wasnorm_wordpool.txt	LTP111	ltpFR	8	8	1	FLEA	577	n/a	n/a	1	n/a	0	0	0	n/a	n/a	n/a	n/a	n/a
2427271	REC_WORD	wordpools/wasnorm_wordpool.txt	LTP111	ltpFR	8	8	1	TROMBONE	1508	n/a	n/a	0	n/a	0	0	0	n/a	n/a	n/a	n/a	n/a
2447979	REC_WORD	wordpools/wasnorm_wordpool.txt	LTP111	ltpFR	8	8	1	OCEAN	970	n/a	n/a	1	n/a	0	0	0	n/a	n/a	n/a	n/a	n/a
2450369	REC_WORD	wordpools/wasnorm_wordpool.txt	LTP111	ltpFR	8	8	1	EUROPE	541	n/a	n/a	0	n/a	0	0	0	n/a	n/a	n/a	n/a	n/a
2498974	WORD	wordpools/wasnorm_wordpool.txt	LTP111	ltpFR	8	9	0	THRONE	1461	n/a	n/a	1	n/a	0	0	0	0.422607421875	0.5869140625	0	lower	amplitud.ttf
2502803	WORD	wordpools/wasnorm_wordpool.txt	LTP111	ltpFR	8	9	0	PUDDLE	1140	n/a	n/a	0	n/a	0	0	0	0.422607421875	0.5869140625	0	lower	amplitud.ttf
2506631	WORD	wordpools/wasnorm_wordpool.txt	LTP111	ltpFR	8	9	0	PAD	998	n/a	n/a	0	n/a	0	0	0	0.422607421875	0.5869140625	0	lower	amplitud.ttf
2510552	WORD	wordpools/wasnorm_wordpool.txt	LTP111	ltpFR	8	9	0	PRINCESS	1125	n/a	n/a	1	n/a	0	0	0	0.422607421875	0.5869140625	0	lower	amplitud.ttf
2514480	WORD	wordpools/wasnorm_wordpool.txt	LTP111	ltpFR	8	9	0	COLOGNE	347	n/a	n/a	0	n/a	0	0	0	0.422607421875	0.5869140625	0	lower	amplitud.ttf
2518692	WORD	wordpools/wasnorm_wordpool.txt	LTP111	ltpFR	8	9	0	NOSE	957	n/a	n/a	0	n/a	0	0	0	0.422607421875	0.5869140625	0	lower	amplitud.ttf
2522555	WORD	wordpools/wasnorm_wordpool.txt	LTP111	ltpFR	8	9	0	SPONGE	1355	n/a	n/a	0	n/a	0	0	0	0.422607421875	0.5869140625	0	lower	amplitud.ttf
2526658	WORD	wordpools/wasnorm_wordpool.txt	LTP111	ltpFR	8	9	0	KLEENEX	782	n/a	n/a	0	n/a	0	0	0	0.422607421875	0.5869140625	0	lower	amplitud.ttf
2530512	WORD	wordpools/wasnorm_wordpool.txt	LTP111	ltpFR	8	9	0	NEWSPAPER	948	n/a	n/a	0	n/a	0	0	0	0.422607421875	0.5869140625	0	lower	amplitud.ttf
2534358	WORD	wordpools/wasnorm_wordpool.txt	LTP111	ltpFR	8	9	0	HOSE	720	n/a	n/a	0	n/a	0	0	0	0.422607421875	0.5869140625	0	lower	amplitud.ttf
2538286	WORD	wordpools/wasnorm_wordpool.txt	LTP111	ltpFR	8	9	0	JELLO	754	n/a	n/a	0	n/a	0	0	0	0.422607421875	0.5869140625	0	lower	amplitud.ttf
2542422	WORD	wordpools/wasnorm_wordpool.txt	LTP111	ltpFR	8	9	0	KITE	779	n/a	n/a	0	n/a	0	0	0	0.422607421875	0.5869140625	0	lower	amplitud.ttf
2546560	WORD	wordpools/wasnorm_wordpool.txt	LTP111	ltpFR	8	9	0	AIRPLANE	12	n/a	n/a	1	n/a	0	0	0	0.422607421875	0.5869140625	0	lower	amplitud.ttf
2550647	WORD	wordpools/wasnorm_wordpool.txt	LTP111	ltpFR	8	9	0	TENT	1449	n/a	n/a	1	n/a	0	0	0	0.422607421875	0.5869140625	0	lower	amplitud.ttf
2554751	WORD	wordpools/wasnorm_wordpool.txt	LTP111	ltpFR	8	9	0	ACROBAT	4	n/a	n/a	0	n/a	0	0	0	0.422607421875	0.5869140625	0	lower	amplitud.ttf
2558671	WORD	wordpools/wasnorm_wordpool.txt	LTP111	ltpFR	8	9	0	EYELASH	546	n/a	n/a	0	n/a	0	0	0	0.422607421875	0.5869140625	0	lower	amplitud.ttf
2561676	START	n/a	LTP111	ltpFR	8	n/a	n/a	n/a	n/a	n/a	n/a	n/a	n/a	n/a	n/a	n/a	n/a	n/a	n/a	n/a	n/a
2562874	PROB	n/a	LTP111	ltpFR	8	n/a	n/a	n/a	n/a	n/a	n/a	n/a	11	2	7	2	n/a	n/a	n/a	n/a	n/a
2565871	PROB	n/a	LTP111	ltpFR	8	n/a	n/a	n/a	n/a	n/a	n/a	n/a	16	9	5	5	n/a	n/a	n/a	n/a	n/a
2569675	STOP	n/a	LTP111	ltpFR	8	n/a	n/a	n/a	n/a	n/a	n/a	n/a	n/a	n/a	n/a	n/a	n/a	n/a	n/a	n/a	n/a
2571590	REC_START	n/a	LTP111	ltpFR	8	9	n/a	n/a	n/a	n/a	n/a	n/a	n/a	0	0	0	n/a	n/a	n/a	n/a	n/a
2573895	REC_WORD	wordpools/wasnorm_wordpool.txt	LTP111	ltpFR	8	9	0	PUDDLE	1140	n/a	n/a	0	n/a	0	0	0	n/a	n/a	n/a	n/a	n/a
2575446	REC_WORD	wordpools/wasnorm_wordpool.txt	LTP111	ltpFR	8	9	0	THRONE	1461	n/a	n/a	1	n/a	0	0	0	n/a	n/a	n/a	n/a	n/a
2576564	REC_WORD	wordpools/wasnorm_wordpool.txt	LTP111	ltpFR	8	9	0	PAD	998	n/a	n/a	0	n/a	0	0	0	n/a	n/a	n/a	n/a	n/a
2578240	REC_WORD	wordpools/wasnorm_wordpool.txt	LTP111	ltpFR	8	9	0	PRINCESS	1125	n/a	n/a	1	n/a	0	0	0	n/a	n/a	n/a	n/a	n/a
2581337	REC_WORD	wordpools/wasnorm_wordpool.txt	LTP111	ltpFR	8	9	0	KLEENEX	782	n/a	n/a	0	n/a	0	0	0	n/a	n/a	n/a	n/a	n/a
2584171	REC_WORD	wordpools/wasnorm_wordpool.txt	LTP111	ltpFR	8	9	0	EYELASH	546	n/a	n/a	0	n/a	0	0	0	n/a	n/a	n/a	n/a	n/a
2585648	REC_WORD	wordpools/wasnorm_wordpool.txt	LTP111	ltpFR	8	9	0	NOSE	957	n/a	n/a	0	n/a	0	0	0	n/a	n/a	n/a	n/a	n/a
2587055	REC_WORD	wordpools/wasnorm_wordpool.txt	LTP111	ltpFR	8	9	n/a	BATH	98	n/a	n/a	n/a	n/a	0	0	0	n/a	n/a	n/a	n/a	n/a
2588282	REC_WORD	wordpools/wasnorm_wordpool.txt	LTP111	ltpFR	8	9	0	HOSE	720	n/a	n/a	0	n/a	0	0	0	n/a	n/a	n/a	n/a	n/a
2590871	REC_WORD	wordpools/wasnorm_wordpool.txt	LTP111	ltpFR	8	9	n/a	AIRPORT	13	n/a	n/a	n/a	n/a	0	0	0	n/a	n/a	n/a	n/a	n/a
2591839	REC_WORD_VV	wordpools/wasnorm_wordpool.txt	LTP111	ltpFR	8	9	n/a	<>	-1	n/a	n/a	n/a	n/a	0	0	0	n/a	n/a	n/a	n/a	n/a
2592193	REC_WORD	wordpools/wasnorm_wordpool.txt	LTP111	ltpFR	8	9	0	AIRPLANE	12	n/a	n/a	1	n/a	0	0	0	n/a	n/a	n/a	n/a	n/a
2595685	REC_WORD	wordpools/wasnorm_wordpool.txt	LTP111	ltpFR	8	9	0	TENT	1449	n/a	n/a	1	n/a	0	0	0	n/a	n/a	n/a	n/a	n/a
2606790	REC_WORD	wordpools/wasnorm_wordpool.txt	LTP111	ltpFR	8	9	0	ACROBAT	4	n/a	n/a	0	n/a	0	0	0	n/a	n/a	n/a	n/a	n/a
2609928	REC_WORD	wordpools/wasnorm_wordpool.txt	LTP111	ltpFR	8	9	0	NEWSPAPER	948	n/a	n/a	0	n/a	0	0	0	n/a	n/a	n/a	n/a	n/a
2652312	WORD	wordpools/wasnorm_wordpool.txt	LTP111	ltpFR	8	10	0	DRESSER	496	n/a	n/a	0	n/a	0	0	0	0.422607421875	0.5869140625	0	lower	amplitud.ttf
2656174	WORD	wordpools/wasnorm_wordpool.txt	LTP111	ltpFR	8	10	0	HAMPER	682	n/a	n/a	0	n/a	0	0	0	0.422607421875	0.5869140625	0	lower	amplitud.ttf
2660153	WORD	wordpools/wasnorm_wordpool.txt	LTP111	ltpFR	8	10	0	PIGMENT	1066	n/a	n/a	0	n/a	0	0	0	0.422607421875	0.5869140625	0	lower	amplitud.ttf
2664257	WORD	wordpools/wasnorm_wordpool.txt	LTP111	ltpFR	8	10	0	SKIN	1318	n/a	n/a	0	n/a	0	0	0	0.422607421875	0.5869140625	0	lower	amplitud.ttf
2668344	WORD	wordpools/wasnorm_wordpool.txt	LTP111	ltpFR	8	10	0	MAMMAL	861	n/a	n/a	1	n/a	0	0	0	0.422607421875	0.5869140625	0	lower	amplitud.ttf
2672164	WORD	wordpools/wasnorm_wordpool.txt	LTP111	ltpFR	8	10	0	STEREO	1378	n/a	n/a	0	n/a	0	0	0	0.422607421875	0.5869140625	0	lower	amplitud.ttf
2675976	WORD	wordpools/wasnorm_wordpool.txt	LTP111	ltpFR	8	10	0	SPRINKLE	1359	n/a	n/a	0	n/a	0	0	0	0.422607421875	0.5869140625	0	lower	amplitud.ttf
2680122	WORD	wordpools/wasnorm_wordpool.txt	LTP111	ltpFR	8	10	0	RAM	1165	n/a	n/a	0	n/a	0	0	0	0.422607421875	0.5869140625	0	lower	amplitud.ttf
2684333	WORD	wordpools/wasnorm_wordpool.txt	LTP111	ltpFR	8	10	0	LOBSTER	837	n/a	n/a	0	n/a	0	0	0	0.422607421875	0.5869140625	0	lower	amplitud.ttf
2688387	WORD	wordpools/wasnorm_wordpool.txt	LTP111	ltpFR	8	10	0	CAT	257	n/a	n/a	0	n/a	0	0	0	0.422607421875	0.5869140625	0	lower	amplitud.ttf
2692582	WORD	wordpools/wasnorm_wordpool.txt	LTP111	ltpFR	8	10	0	FIDDLE	561	n/a	n/a	0	n/a	0	0	0	0.422607421875	0.5869140625	0	lower	amplitud.ttf
2696569	WORD	wordpools/wasnorm_wordpool.txt	LTP111	ltpFR	8	10	0	NURSE	963	n/a	n/a	0	n/a	0	0	0	0.422607421875	0.5869140625	0	lower	amplitud.ttf
2700447	WORD	wordpools/wasnorm_wordpool.txt	LTP111	ltpFR	8	10	0	JUG	762	n/a	n/a	0	n/a	0	0	0	0.422607421875	0.5869140625	0	lower	amplitud.ttf
2704260	WORD	wordpools/wasnorm_wordpool.txt	LTP111	ltpFR	8	10	0	MOUNTAIN	924	n/a	n/a	1	n/a	0	0	0	0.422607421875	0.5869140625	0	lower	amplitud.ttf
2708438	WORD	wordpools/wasnorm_wordpool.txt	LTP111	ltpFR	8	10	0	CAMEL	223	n/a	n/a	0	n/a	0	0	0	0.422607421875	0.5869140625	0	lower	amplitud.ttf
2712559	WORD	wordpools/wasnorm_wordpool.txt	LTP111	ltpFR	8	10	0	BAY	102	n/a	n/a	0	n/a	0	0	0	0.422607421875	0.5869140625	0	lower	amplitud.ttf
2718602	REC_START	n/a	LTP111	ltpFR	8	10	n/a	n/a	n/a	n/a	n/a	n/a	n/a	0	0	0	n/a	n/a	n/a	n/a	n/a
2719280	REC_WORD	wordpools/wasnorm_wordpool.txt	LTP111	ltpFR	8	10	0	BAY	102	n/a	n/a	0	n/a	0	0	0	n/a	n/a	n/a	n/a	n/a
2723625	REC_WORD	wordpools/wasnorm_wordpool.txt	LTP111	ltpFR	8	10	0	MAMMAL	861	n/a	n/a	1	n/a	0	0	0	n/a	n/a	n/a	n/a	n/a
2728719	REC_WORD	wordpools/wasnorm_wordpool.txt	LTP111	ltpFR	8	10	0	DRESSER	496	n/a	n/a	0	n/a	0	0	0	n/a	n/a	n/a	n/a	n/a
2731752	REC_WORD	wordpools/wasnorm_wordpool.txt	LTP111	ltpFR	8	10	0	HAMPER	682	n/a	n/a	0	n/a	0	0	0	n/a	n/a	n/a	n/a	n/a
2734630	REC_WORD	wordpools/wasnorm_wordpool.txt	LTP111	ltpFR	8	10	0	PIGMENT	1066	n/a	n/a	0	n/a	0	0	0	n/a	n/a	n/a	n/a	n/a
2737144	REC_WORD	wordpools/wasnorm_wordpool.txt	LTP111	ltpFR	8	10	0	SKIN	1318	n/a	n/a	0	n/a	0	0	0	n/a	n/a	n/a	n/a	n/a
2740252	REC_WORD	wordpools/wasnorm_wordpool.txt	LTP111	ltpFR	8	10	0	STEREO	1378	n/a	n/a	0	n/a	0	0	0	n/a	n/a	n/a	n/a	n/a
2744682	REC_WORD	wordpools/wasnorm_wordpool.txt	LTP111	ltpFR	8	10	0	MOUNTAIN	924	n/a	n/a	1	n/a	0	0	0	n/a	n/a	n/a	n/a	n/a
2748069	REC_WORD	wordpools/wasnorm_wordpool.txt	LTP111	ltpFR	8	10	0	SPRINKLE	1359	n/a	n/a	0	n/a	0	0	0	n/a	n/a	n/a	n/a	n/a
2753677	REC_WORD	wordpools/wasnorm_wordpool.txt	LTP111	ltpFR	8	10	0	CAMEL	223	n/a	n/a	0	n/a	0	0	0	n/a	n/a	n/a	n/a	n/a
2794189	REST_REWET	n/a	LTP111	ltpFR	8	10	n/a	n/a	n/a	n/a	n/a	n/a	n/a	0	0	0	n/a	n/a	n/a	n/a	n/a
3373741	WORD	wordpools/wasnorm_wordpool.txt	LTP111	ltpFR	8	11	0	AUNT	60	n/a	n/a	0	n/a	0	0	0	0.422607421875	0.5869140625	0	lower	amplitud.ttf
3377620	WORD	wordpools/wasnorm_wordpool.txt	LTP111	ltpFR	8	11	0	COUSIN	392	n/a	n/a	0	n/a	0	0	0	0.422607421875	0.5869140625	0	lower	amplitud.ttf
3381665	WORD	wordpools/wasnorm_wordpool.txt	LTP111	ltpFR	8	11	0	CONTAINER	366	n/a	n/a	0	n/a	0	0	0	0.422607421875	0.5869140625	0	lower	amplitud.ttf
3385810	WORD	wordpools/wasnorm_wordpool.txt	LTP111	ltpFR	8	11	0	LACE	792	n/a	n/a	0	n/a	0	0	0	0.422607421875	0.5869140625	0	lower	amplitud.ttf
3389989	WORD	wordpools/wasnorm_wordpool.txt	LTP111	ltpFR	8	11	0	LAUNDRY	803	n/a	n/a	0	n/a	0	0	0	0.422607421875	0.5869140625	0	lower	amplitud.ttf
3394126	WORD	wordpools/wasnorm_wordpool.txt	LTP111	ltpFR	8	11	1	DISHWASHER	475	n/a	n/a	1	n/a	0	0	0	0.57763671875	0.412841796875	1	upper	zerothre.ttf
3398038	WORD	wordpools/wasnorm_wordpool.txt	LTP111	ltpFR	8	11	1	EAGLE	512	n/a	n/a	n/a	n/a	0	0	0	0.57763671875	0.412841796875	1	upper	zerothre.ttf
3401059	SLOW_MSG	n/a	LTP111	ltpFR	8	11	n/a	n/a	n/a	n/a	n/a	n/a	n/a	0	0	0	n/a	n/a	n/a	n/a	n/a
3403398	WORD	wordpools/wasnorm_wordpool.txt	LTP111	ltpFR	8	11	0	JEEP	753	n/a	n/a	1	n/a	0	0	0	0.422607421875	0.5869140625	0	lower	amplitud.ttf
3407385	WORD	wordpools/wasnorm_wordpool.txt	LTP111	ltpFR	8	11	0	ANCESTOR	20	n/a	n/a	0	n/a	0	0	0	0.422607421875	0.5869140625	0	lower	amplitud.ttf
3411539	WORD	wordpools/wasnorm_wordpool.txt	LTP111	ltpFR	8	11	0	AFRICA	9	n/a	n/a	1	n/a	0	0	0	0.422607421875	0.5869140625	0	lower	amplitud.ttf
3415734	WORD	wordpools/wasnorm_wordpool.txt	LTP111	ltpFR	8	11	1	PLIERS	1089	n/a	n/a	1	n/a	0	0	0	0.57763671875	0.412841796875	1	upper	zerothre.ttf
3419605	WORD	wordpools/wasnorm_wordpool.txt	LTP111	ltpFR	8	11	1	DINOSAUR	469	n/a	n/a	1	n/a	0	0	0	0.57763671875	0.412841796875	1	upper	zerothre.ttf
3423457	WORD	wordpools/wasnorm_wordpool.txt	LTP111	ltpFR	8	11	1	CHAUFFEUR	283	n/a	n/a	1	n/a	0	0	0	0.57763671875	0.412841796875	1	upper	zerothre.ttf
3427345	WORD	wordpools/wasnorm_wordpool.txt	LTP111	ltpFR	8	11	1	GAVEL	627	n/a	n/a	0	n/a	0	0	0	0.57763671875	0.412841796875	1	upper	zerothre.ttf
3431383	WORD	wordpools/wasnorm_wordpool.txt	LTP111	ltpFR	8	11	1	MESSAGE	888	n/a	n/a	0	n/a	0	0	0	0.57763671875	0.412841796875	1	upper	zerothre.ttf
3435528	WORD	wordpools/wasnorm_wordpool.txt	LTP111	ltpFR	8	11	1	CHALK	276	n/a	n/a	0	n/a	0	0	0	0.57763671875	0.412841796875	1	upper	zerothre.ttf
3438533	START	n/a	LTP111	ltpFR	8	n/a	n/a	n/a	n/a	n/a	n/a	n/a	n/a	n/a	n/a	n/a	n/a	n/a	n/a	n/a	n/a
3439348	PROB	n/a	LTP111	ltpFR	8	n/a	n/a	n/a	n/a	n/a	n/a	n/a	8	6	1	1	n/a	n/a	n/a	n/a	n/a
3442460	PROB	n/a	LTP111	ltpFR	8	n/a	n/a	n/a	n/a	n/a	n/a	n/a	12	8	2	2	n/a	n/a	n/a	n/a	n/a
3443910	PROB	n/a	LTP111	ltpFR	8	n/a	n/a	n/a	n/a	n/a	n/a	n/a	15	1	5	9	n/a	n/a	n/a	n/a	n/a
3445258	PROB	n/a	LTP111	ltpFR	8	n/a	n/a	n/a	n/a	n/a	n/a	n/a	13	2	5	6	n/a	n/a	n/a	n/a	n/a
3447089	PROB	n/a	LTP111	ltpFR	8	n/a	n/a	n/a	n/a	n/a	n/a	n/a	11	2	7	2	n/a	n/a	n/a	n/a	n/a
3449494	PROB	n/a	LTP111	ltpFR	8	n/a	n/a	n/a	n/a	n/a	n/a	n/a	13	7	3	3	n/a	n/a	n/a	n/a	n/a
3451626	PROB	n/a	LTP111	ltpFR	8	n/a	n/a	n/a	n/a	n/a	n/a	n/a	6	1	2	3	n/a	n/a	n/a	n/a	n/a
3453358	STOP	n/a	LTP111	ltpFR	8	n/a	n/a	n/a	n/a	n/a	n/a	n/a	n/a	n/a	n/a	n/a	n/a	n/a	n/a	n/a	n/a
3456262	REC_START	n/a	LTP111	ltpFR	8	11	n/a	n/a	n/a	n/a	n/a	n/a	n/a	0	0	0	n/a	n/a	n/a	n/a	n/a
3458307	REC_WORD	wordpools/wasnorm_wordpool.txt	LTP111	ltpFR	8	11	0	AUNT	60	n/a	n/a	0	n/a	0	0	0	n/a	n/a	n/a	n/a	n/a
3459110	REC_WORD	wordpools/wasnorm_wordpool.txt	LTP111	ltpFR	8	11	0	COUSIN	392	n/a	n/a	0	n/a	0	0	0	n/a	n/a	n/a	n/a	n/a
3459817	REC_WORD	wordpools/wasnorm_wordpool.txt	LTP111	ltpFR	8	11	0	CONTAINER	366	n/a	n/a	0	n/a	0	0	0	n/a	n/a	n/a	n/a	n/a
3462074	REC_WORD	wordpools/wasnorm_wordpool.txt	LTP111	ltpFR	8	11	0	LACE	792	n/a	n/a	0	n/a	0	0	0	n/a	n/a	n/a	n/a	n/a
3463321	REC_WORD	wordpools/wasnorm_wordpool.txt	LTP111	ltpFR	8	11	0	ANCESTOR	20	n/a	n/a	0	n/a	0	0	0	n/a	n/a	n/a	n/a	n/a
3466813	REC_WORD	wordpools/wasnorm_wordpool.txt	LTP111	ltpFR	8	11	0	AFRICA	9	n/a	n/a	1	n/a	0	0	0	n/a	n/a	n/a	n/a	n/a
3467546	REC_WORD	wordpools/wasnorm_wordpool.txt	LTP111	ltpFR	8	11	1	DISHWASHER	475	n/a	n/a	1	n/a	0	0	0	n/a	n/a	n/a	n/a	n/a
3468559	REC_WORD	wordpools/wasnorm_wordpool.txt	LTP111	ltpFR	8	11	1	EAGLE	512	n/a	n/a	n/a	n/a	0	0	0	n/a	n/a	n/a	n/a	n/a
3469716	REC_WORD	wordpools/wasnorm_wordpool.txt	LTP111	ltpFR	8	11	0	JEEP	753	n/a	n/a	1	n/a	0	0	0	n/a	n/a	n/a	n/a	n/a
3532940	START	n/a	LTP111	ltpFR	8	n/a	n/a	n/a	n/a	n/a	n/a	n/a	n/a	n/a	n/a	n/a	n/a	n/a	n/a	n/a	n/a
3534445	PROB	n/a	LTP111	ltpFR	8	n/a	n/a	n/a	n/a	n/a	n/a	n/a	5	1	3	1	n/a	n/a	n/a	n/a	n/a
3540939	STOP	n/a	LTP111	ltpFR	8	n/a	n/a	n/a	n/a	n/a	n/a	n/a	n/a	n/a	n/a	n/a	n/a	n/a	n/a	n/a	n/a
3541937	WORD	wordpools/wasnorm_wordpool.txt	LTP111	ltpFR	8	12	1	JUGGLER	763	n/a	n/a	1	n/a	0	0	0	0.57763671875	0.412841796875	1	upper	zerothre.ttf
3544943	START	n/a	LTP111	ltpFR	8	n/a	n/a	n/a	n/a	n/a	n/a	n/a	n/a	n/a	n/a	n/a	n/a	n/a	n/a	n/a	n/a
3546058	PROB	n/a	LTP111	ltpFR	8	n/a	n/a	n/a	n/a	n/a	n/a	n/a	13	2	3	8	n/a	n/a	n/a	n/a	n/a
3548563	PROB	n/a	LTP111	ltpFR	8	n/a	n/a	n/a	n/a	n/a	n/a	n/a	5	1	2	2	n/a	n/a	n/a	n/a	n/a
3550702	PROB	n/a	LTP111	ltpFR	8	n/a	n/a	n/a	n/a	n/a	n/a	n/a	16	3	7	6	n/a	n/a	n/a	n/a	n/a
3552278	STOP	n/a	LTP111	ltpFR	8	n/a	n/a	n/a	n/a	n/a	n/a	n/a	n/a	n/a	n/a	n/a	n/a	n/a	n/a	n/a	n/a
3553924	WORD	wordpools/wasnorm_wordpool.txt	LTP111	ltpFR	8	12	1	COOKBOOK	373	n/a	n/a	0	n/a	0	0	0	0.57763671875	0.412841796875	1	upper	zerothre.ttf
3556929	START	n/a	LTP111	ltpFR	8	n/a	n/a	n/a	n/a	n/a	n/a	n/a	n/a	n/a	n/a	n/a	n/a	n/a	n/a	n/a	n/a
3558069	PROB	n/a	LTP111	ltpFR	8	n/a	n/a	n/a	n/a	n/a	n/a	n/a	17	6	7	4	n/a	n/a	n/a	n/a	n/a
3564929	STOP	n/a	LTP111	ltpFR	8	n/a	n/a	n/a	n/a	n/a	n/a	n/a	n/a	n/a	n/a	n/a	n/a	n/a	n/a	n/a	n/a
3565826	WORD	wordpools/wasnorm_wordpool.txt	LTP111	ltpFR	8	12	1	GOO	648	n/a	n/a	0	n/a	0	0	0	0.57763671875	0.412841796875	1	upper	zerothre.ttf
3568832	START	n/a	LTP111	ltpFR	8	n/a	n/a	n/a	n/a	n/a	n/a	n/a	n/a	n/a	n/a	n/a	n/a	n/a	n/a	n/a	n/a
3569689	PROB	n/a	LTP111	ltpFR	8	n/a	n/a	n/a	n/a	n/a	n/a	n/a	14	9	2	3	n/a	n/a	n/a	n/a	n/a
3572119	PROB	n/a	LTP111	ltpFR	8	n/a	n/a	n/a	n/a	n/a	n/a	n/a	17	6	8	3	n/a	n/a	n/a	n/a	n/a
3576742	STOP	n/a	LTP111	ltpFR	8	n/a	n/a	n/a	n/a	n/a	n/a	n/a	n/a	n/a	n/a	n/a	n/a	n/a	n/a	n/a	n/a
3577704	WORD	wordpools/wasnorm_wordpool.txt	LTP111	ltpFR	8	12	1	KID	775	n/a	n/a	1	n/a	0	0	0	0.57763671875	0.412841796875	1	upper	zerothre.ttf
3580710	START	n/a	LTP111	ltpFR	8	n/a	n/a	n/a	n/a	n/a	n/a	n/a	n/a	n/a	n/a	n/a	n/a	n/a	n/a	n/a	n/a
3581683	PROB	n/a	LTP111	ltpFR	8	n/a	n/a	n/a	n/a	n/a	n/a	n/a	11	5	4	3	n/a	n/a	n/a	n/a	n/a
3588710	STOP	n/a	LTP111	ltpFR	8	n/a	n/a	n/a	n/a	n/a	n/a	n/a	n/a	n/a	n/a	n/a	n/a	n/a	n/a	n/a	n/a
3589774	WORD	wordpools/wasnorm_wordpool.txt	LTP111	ltpFR	8	12	1	SCOUT	1252	n/a	n/a	1	n/a	0	0	0	0.57763671875	0.412841796875	1	upper	zerothre.ttf
3592779	START	n/a	LTP111	ltpFR	8	n/a	n/a	n/a	n/a	n/a	n/a	n/a	n/a	n/a	n/a	n/a	n/a	n/a	n/a	n/a	n/a
3593644	PROB	n/a	LTP111	ltpFR	8	n/a	n/a	n/a	n/a	n/a	n/a	n/a	18	6	8	4	n/a	n/a	n/a	n/a	n/a
3599686	STOP	n/a	LTP111	ltpFR	8	n/a	n/a	n/a	n/a	n/a	n/a	n/a	n/a	n/a	n/a	n/a	n/a	n/a	n/a	n/a	n/a
3601934	WORD	wordpools/wasnorm_wordpool.txt	LTP111	ltpFR	8	12	1	CABIN	211	n/a	n/a	0	n/a	0	0	0	0.57763671875	0.412841796875	1	upper	zerothre.ttf
3604940	START	n/a	LTP111	ltpFR	8	n/a	n/a	n/a	n/a	n/a	n/a	n/a	n/a	n/a	n/a	n/a	n/a	n/a	n/a	n/a	n/a
3605896	PROB	n/a	LTP111	ltpFR	8	n/a	n/a	n/a	n/a	n/a	n/a	n/a	12	2	9	1	n/a	n/a	n/a	n/a	n/a
3607303	PROB	n/a	LTP111	ltpFR	8	n/a	n/a	n/a	n/a	n/a	n/a	n/a	17	6	6	5	n/a	n/a	n/a	n/a	n/a
3609509	PROB	n/a	LTP111	ltpFR	8	n/a	n/a	n/a	n/a	n/a	n/a	n/a	18	9	5	4	n/a	n/a	n/a	n/a	n/a
3612244	STOP	n/a	LTP111	ltpFR	8	n/a	n/a	n/a	n/a	n/a	n/a	n/a	n/a	n/a	n/a	n/a	n/a	n/a	n/a	n/a	n/a
3614112	WORD	wordpools/wasnorm_wordpool.txt	LTP111	ltpFR	8	12	1	FIREPLACE	570	n/a	n/a	0	n/a	0	0	0	0.57763671875	0.412841796875	1	upper	zerothre.ttf
3617117	START	n/a	LTP111	ltpFR	8	n/a	n/a	n/a	n/a	n/a	n/a	n/a	n/a	n/a	n/a	n/a	n/a	n/a	n/a	n/a	n/a
3625117	STOP	n/a	LTP111	ltpFR	8	n/a	n/a	n/a	n/a	n/a	n/a	n/a	n/a	n/a	n/a	n/a	n/a	n/a	n/a	n/a	n/a
3626190	WORD	wordpools/wasnorm_wordpool.txt	LTP111	ltpFR	8	12	1	ATMOSPHERE	54	n/a	n/a	0	n/a	0	0	0	0.57763671875	0.412841796875	1	upper	zerothre.ttf
3629195	START	n/a	LTP111	ltpFR	8	n/a	n/a	n/a	n/a	n/a	n/a	n/a	n/a	n/a	n/a	n/a	n/a	n/a	n/a	n/a	n/a
3630268	PROB	n/a	LTP111	ltpFR	8	n/a	n/a	n/a	n/a	n/a	n/a	n/a	17	8	3	6	n/a	n/a	n/a	n/a	n/a
3636326	STOP	n/a	LTP111	ltpFR	8	n/a	n/a	n/a	n/a	n/a	n/a	n/a	n/a	n/a	n/a	n/a	n/a	n/a	n/a	n/a	n/a
3638276	WORD	wordpools/wasnorm_wordpool.txt	LTP111	ltpFR	8	12	1	MOTOR	922	n/a	n/a	0	n/a	0	0	0	0.57763671875	0.412841796875	1	upper	zerothre.ttf
3641281	START	n/a	LTP111	ltpFR	8	n/a	n/a	n/a	n/a	n/a	n/a	n/a	n/a	n/a	n/a	n/a	n/a	n/a	n/a	n/a	n/a
3642486	PROB	n/a	LTP111	ltpFR	8	n/a	n/a	n/a	n/a	n/a	n/a	n/a	23	9	9	7	n/a	n/a	n/a	n/a	n/a
3647910	STOP	n/a	LTP111	ltpFR	8	n/a	n/a	n/a	n/a	n/a	n/a	n/a	n/a	n/a	n/a	n/a	n/a	n/a	n/a	n/a	n/a
3650345	WORD	wordpools/wasnorm_wordpool.txt	LTP111	ltpFR	8	12	1	CLOWN	330	n/a	n/a	0	n/a	0	0	0	0.57763671875	0.412841796875	1	upper	zerothre.ttf
3653350	START	n/a	LTP111	ltpFR	8	n/a	n/a	n/a	n/a	n/a	n/a	n/a	n/a	n/a	n/a	n/a	n/a	n/a	n/a	n/a	n/a
3654349	PROB	n/a	LTP111	ltpFR	8	n/a	n/a	n/a	n/a	n/a	n/a	n/a	17	6	4	7	n/a	n/a	n/a	n/a	n/a
3657836	PROB	n/a	LTP111	ltpFR	8	n/a	n/a	n/a	n/a	n/a	n/a	n/a	13	2	8	3	n/a	n/a	n/a	n/a	n/a
3661350	STOP	n/a	LTP111	ltpFR	8	n/a	n/a	n/a	n/a	n/a	n/a	n/a	n/a	n/a	n/a	n/a	n/a	n/a	n/a	n/a	n/a
3662514	WORD	wordpools/wasnorm_wordpool.txt	LTP111	ltpFR	8	12	1	APRON	35	n/a	n/a	0	n/a	0	0	0	0.57763671875	0.412841796875	1	upper	zerothre.ttf
3665519	START	n/a	LTP111	ltpFR	8	n/a	n/a	n/a	n/a	n/a	n/a	n/a	n/a	n/a	n/a	n/a	n/a	n/a	n/a	n/a	n/a
3666726	PROB	n/a	LTP111	ltpFR	8	n/a	n/a	n/a	n/a	n/a	n/a	n/a	8	1	6	1	n/a	n/a	n/a	n/a	n/a
3668790	PROB	n/a	LTP111	ltpFR	8	n/a	n/a	n/a	n/a	n/a	n/a	n/a	9	3	2	4	n/a	n/a	n/a	n/a	n/a
3672606	STOP	n/a	LTP111	ltpFR	8	n/a	n/a	n/a	n/a	n/a	n/a	n/a	n/a	n/a	n/a	n/a	n/a	n/a	n/a	n/a	n/a
3674533	WORD	wordpools/wasnorm_wordpool.txt	LTP111	ltpFR	8	12	1	GUITAR	670	n/a	n/a	0	n/a	0	0	0	0.57763671875	0.412841796875	1	upper	zerothre.ttf
3677539	START	n/a	LTP111	ltpFR	8	n/a	n/a	n/a	n/a	n/a	n/a	n/a	n/a	n/a	n/a	n/a	n/a	n/a	n/a	n/a	n/a
3678712	PROB	n/a	LTP111	ltpFR	8	n/a	n/a	n/a	n/a	n/a	n/a	n/a	22	9	9	4	n/a	n/a	n/a	n/a	n/a
3683640	PROB	n/a	LTP111	ltpFR	8	n/a	n/a	n/a	n/a	n/a	n/a	n/a	10	7	1	2	n/a	n/a	n/a	n/a	n/a
3685334	STOP	n/a	LTP111	ltpFR	8	n/a	n/a	n/a	n/a	n/a	n/a	n/a	n/a	n/a	n/a	n/a	n/a	n/a	n/a	n/a	n/a
3686636	WORD	wordpools/wasnorm_wordpool.txt	LTP111	ltpFR	8	12	1	TUBA	1515	n/a	n/a	0	n/a	0	0	0	0.57763671875	0.412841796875	1	upper	zerothre.ttf
3689641	START	n/a	LTP111	ltpFR	8	n/a	n/a	n/a	n/a	n/a	n/a	n/a	n/a	n/a	n/a	n/a	n/a	n/a	n/a	n/a	n/a
3690615	PROB	n/a	LTP111	ltpFR	8	n/a	n/a	n/a	n/a	n/a	n/a	n/a	22	4	4	7	n/a	n/a	n/a	n/a	n/a
3696445	STOP	n/a	LTP111	ltpFR	8	n/a	n/a	n/a	n/a	n/a	n/a	n/a	n/a	n/a	n/a	n/a	n/a	n/a	n/a	n/a	n/a
3698789	WORD	wordpools/wasnorm_wordpool.txt	LTP111	ltpFR	8	12	1	COMET	353	n/a	n/a	0	n/a	0	0	0	0.57763671875	0.412841796875	1	upper	zerothre.ttf
3701794	START	n/a	LTP111	ltpFR	8	n/a	n/a	n/a	n/a	n/a	n/a	n/a	n/a	n/a	n/a	n/a	n/a	n/a	n/a	n/a	n/a
3702934	PROB	n/a	LTP111	ltpFR	8	n/a	n/a	n/a	n/a	n/a	n/a	n/a	14	3	3	8	n/a	n/a	n/a	n/a	n/a
3709794	STOP	n/a	LTP111	ltpFR	8	n/a	n/a	n/a	n/a	n/a	n/a	n/a	n/a	n/a	n/a	n/a	n/a	n/a	n/a	n/a	n/a
3710750	WORD	wordpools/wasnorm_wordpool.txt	LTP111	ltpFR	8	12	1	CALCULATOR	220	n/a	n/a	0	n/a	0	0	0	0.57763671875	0.412841796875	1	upper	zerothre.ttf
3713763	START	n/a	LTP111	ltpFR	8	n/a	n/a	n/a	n/a	n/a	n/a	n/a	n/a	n/a	n/a	n/a	n/a	n/a	n/a	n/a	n/a
3714870	PROB	n/a	LTP111	ltpFR	8	n/a	n/a	n/a	n/a	n/a	n/a	n/a	14	9	4	1	n/a	n/a	n/a	n/a	n/a
3721763	STOP	n/a	LTP111	ltpFR	8	n/a	n/a	n/a	n/a	n/a	n/a	n/a	n/a	n/a	n/a	n/a	n/a	n/a	n/a	n/a	n/a
3722777	WORD	wordpools/wasnorm_wordpool.txt	LTP111	ltpFR	8	12	1	SAILOR	1223	n/a	n/a	0	n/a	0	0	0	0.57763671875	0.412841796875	1	upper	zerothre.ttf
3725783	START	n/a	LTP111	ltpFR	8	n/a	n/a	n/a	n/a	n/a	n/a	n/a	n/a	n/a	n/a	n/a	n/a	n/a	n/a	n/a	n/a
3726698	PROB	n/a	LTP111	ltpFR	8	n/a	n/a	n/a	n/a	n/a	n/a	n/a	9	2	5	2	n/a	n/a	n/a	n/a	n/a
3729112	PROB	n/a	LTP111	ltpFR	8	n/a	n/a	n/a	n/a	n/a	n/a	n/a	19	1	9	9	n/a	n/a	n/a	n/a	n/a
3733783	STOP	n/a	LTP111	ltpFR	8	n/a	n/a	n/a	n/a	n/a	n/a	n/a	n/a	n/a	n/a	n/a	n/a	n/a	n/a	n/a	n/a
3735671	REC_START	n/a	LTP111	ltpFR	8	12	n/a	n/a	n/a	n/a	n/a	n/a	n/a	0	0	0	n/a	n/a	n/a	n/a	n/a
3738649	REC_WORD	wordpools/wasnorm_wordpool.txt	LTP111	ltpFR	8	12	1	JUGGLER	763	n/a	n/a	1	n/a	0	0	0	n/a	n/a	n/a	n/a	n/a
3739637	REC_WORD	wordpools/wasnorm_wordpool.txt	LTP111	ltpFR	8	12	1	COOKBOOK	373	n/a	n/a	0	n/a	0	0	0	n/a	n/a	n/a	n/a	n/a
3741942	REC_WORD	wordpools/wasnorm_wordpool.txt	LTP111	ltpFR	8	12	1	KID	775	n/a	n/a	1	n/a	0	0	0	n/a	n/a	n/a	n/a	n/a
3744076	REC_WORD	wordpools/wasnorm_wordpool.txt	LTP111	ltpFR	8	12	1	GOO	648	n/a	n/a	0	n/a	0	0	0	n/a	n/a	n/a	n/a	n/a
3747374	REC_WORD	wordpools/wasnorm_wordpool.txt	LTP111	ltpFR	8	12	1	SCOUT	1252	n/a	n/a	1	n/a	0	0	0	n/a	n/a	n/a	n/a	n/a
3748906	REC_WORD	wordpools/wasnorm_wordpool.txt	LTP111	ltpFR	8	12	1	CABIN	211	n/a	n/a	0	n/a	0	0	0	n/a	n/a	n/a	n/a	n/a
3750462	REC_WORD	wordpools/wasnorm_wordpool.txt	LTP111	ltpFR	8	12	1	FIREPLACE	570	n/a	n/a	0	n/a	0	0	0	n/a	n/a	n/a	n/a	n/a
3752014	REC_WORD	wordpools/wasnorm_wordpool.txt	LTP111	ltpFR	8	12	1	ATMOSPHERE	54	n/a	n/a	0	n/a	0	0	0	n/a	n/a	n/a	n/a	n/a
3753525	REC_WORD	wordpools/wasnorm_wordpool.txt	LTP111	ltpFR	8	12	1	SAILOR	1223	n/a	n/a	0	n/a	0	0	0	n/a	n/a	n/a	n/a	n/a
3755102	REC_WORD	wordpools/wasnorm_wordpool.txt	LTP111	ltpFR	8	12	1	MOTOR	922	n/a	n/a	0	n/a	0	0	0	n/a	n/a	n/a	n/a	n/a
3756479	REC_WORD	wordpools/wasnorm_wordpool.txt	LTP111	ltpFR	8	12	1	CALCULATOR	220	n/a	n/a	0	n/a	0	0	0	n/a	n/a	n/a	n/a	n/a
3757960	REC_WORD	wordpools/wasnorm_wordpool.txt	LTP111	ltpFR	8	12	1	GUITAR	670	n/a	n/a	0	n/a	0	0	0	n/a	n/a	n/a	n/a	n/a
3759591	REC_WORD	wordpools/wasnorm_wordpool.txt	LTP111	ltpFR	8	12	1	TUBA	1515	n/a	n/a	0	n/a	0	0	0	n/a	n/a	n/a	n/a	n/a
3764585	REC_WORD	wordpools/wasnorm_wordpool.txt	LTP111	ltpFR	8	12	1	CLOWN	330	n/a	n/a	0	n/a	0	0	0	n/a	n/a	n/a	n/a	n/a
3823086	REC_START	n/a	LTP111	ltpFR	8	n/a	n/a	n/a	n/a	n/a	n/a	n/a	n/a	0	0	0	n/a	n/a	n/a	n/a	n/a
3826164	FFR_REC_WORD	wordpools/wasnorm_wordpool.txt	LTP111	ltpFR	8	n/a	1	JUGGLER	763	n/a	n/a	1	n/a	0	0	0	n/a	n/a	n/a	n/a	n/a
3827855	FFR_REC_WORD	wordpools/wasnorm_wordpool.txt	LTP111	ltpFR	8	n/a	1	COOKBOOK	373	n/a	n/a	0	n/a	0	0	0	n/a	n/a	n/a	n/a	n/a
3829486	FFR_REC_WORD	wordpools/wasnorm_wordpool.txt	LTP111	ltpFR	8	n/a	1	KID	775	n/a	n/a	1	n/a	0	0	0	n/a	n/a	n/a	n/a	n/a
3830254	FFR_REC_WORD	wordpools/wasnorm_wordpool.txt	LTP111	ltpFR	8	n/a	1	SCOUT	1252	n/a	n/a	1	n/a	0	0	0	n/a	n/a	n/a	n/a	n/a
3831646	FFR_REC_WORD	wordpools/wasnorm_wordpool.txt	LTP111	ltpFR	8	n/a	1	GOO	648	n/a	n/a	0	n/a	0	0	0	n/a	n/a	n/a	n/a	n/a
3832649	FFR_REC_WORD	wordpools/wasnorm_wordpool.txt	LTP111	ltpFR	8	n/a	1	CLOWN	330	n/a	n/a	0	n/a	0	0	0	n/a	n/a	n/a	n/a	n/a
3833762	FFR_REC_WORD	wordpools/wasnorm_wordpool.txt	LTP111	ltpFR	8	n/a	1	CABIN	211	n/a	n/a	0	n/a	0	0	0	n/a	n/a	n/a	n/a	n/a
3834884	FFR_REC_WORD	wordpools/wasnorm_wordpool.txt	LTP111	ltpFR	8	n/a	1	FIREPLACE	570	n/a	n/a	0	n/a	0	0	0	n/a	n/a	n/a	n/a	n/a
3836126	FFR_REC_WORD	wordpools/wasnorm_wordpool.txt	LTP111	ltpFR	8	n/a	1	MOTOR	922	n/a	n/a	0	n/a	0	0	0	n/a	n/a	n/a	n/a	n/a
3837114	FFR_REC_WORD	wordpools/wasnorm_wordpool.txt	LTP111	ltpFR	8	n/a	1	CALCULATOR	220	n/a	n/a	0	n/a	0	0	0	n/a	n/a	n/a	n/a	n/a
3838351	FFR_REC_WORD	wordpools/wasnorm_wordpool.txt	LTP111	ltpFR	8	n/a	1	SAILOR	1223	n/a	n/a	0	n/a	0	0	0	n/a	n/a	n/a	n/a	n/a
3839339	FFR_REC_WORD	wordpools/wasnorm_wordpool.txt	LTP111	ltpFR	8	n/a	1	ATMOSPHERE	54	n/a	n/a	0	n/a	0	0	0	n/a	n/a	n/a	n/a	n/a
3840532	FFR_REC_WORD	wordpools/wasnorm_wordpool.txt	LTP111	ltpFR	8	n/a	1	TUBA	1515	n/a	n/a	0	n/a	0	0	0	n/a	n/a	n/a	n/a	n/a
3841524	FFR_REC_WORD	wordpools/wasnorm_wordpool.txt	LTP111	ltpFR	8	n/a	1	GUITAR	670	n/a	n/a	0	n/a	0	0	0	n/a	n/a	n/a	n/a	n/a
3845789	FFR_REC_WORD	wordpools/wasnorm_wordpool.txt	LTP111	ltpFR	8	n/a	0	RUNNER	1218	n/a	n/a	1	n/a	0	0	0	n/a	n/a	n/a	n/a	n/a
3847126	FFR_REC_WORD	wordpools/wasnorm_wordpool.txt	LTP111	ltpFR	8	n/a	1	BROOK	177	n/a	n/a	0	n/a	0	0	0	n/a	n/a	n/a	n/a	n/a
3848723	FFR_REC_WORD	wordpools/wasnorm_wordpool.txt	LTP111	ltpFR	8	n/a	1	WATERFALL	1595	n/a	n/a	0	n/a	0	0	0	n/a	n/a	n/a	n/a	n/a
3850114	FFR_REC_WORD	wordpools/wasnorm_wordpool.txt	LTP111	ltpFR	8	n/a	n/a	BUFFALO	186	n/a	n/a	n/a	n/a	0	0	0	n/a	n/a	n/a	n/a	n/a
3851346	FFR_REC_WORD	wordpools/wasnorm_wordpool.txt	LTP111	ltpFR	8	n/a	0	FUR	615	n/a	n/a	0	n/a	0	0	0	n/a	n/a	n/a	n/a	n/a
3852838	FFR_REC_WORD	wordpools/wasnorm_wordpool.txt	LTP111	ltpFR	8	n/a	1	BRIDE	173	n/a	n/a	1	n/a	0	0	0	n/a	n/a	n/a	n/a	n/a
3854006	FFR_REC_WORD	wordpools/wasnorm_wordpool.txt	LTP111	ltpFR	8	n/a	1	CARRIAGE	248	n/a	n/a	0	n/a	0	0	0	n/a	n/a	n/a	n/a	n/a
3855347	FFR_REC_WORD	wordpools/wasnorm_wordpool.txt	LTP111	ltpFR	8	n/a	0	TART	1436	n/a	n/a	0	n/a	0	0	0	n/a	n/a	n/a	n/a	n/a
3856305	FFR_REC_WORD	wordpools/wasnorm_wordpool.txt	LTP111	ltpFR	8	n/a	0	RICE	1190	n/a	n/a	0	n/a	0	0	0	n/a	n/a	n/a	n/a	n/a
3857692	FFR_REC_WORD	wordpools/wasnorm_wordpool.txt	LTP111	ltpFR	8	n/a	1	SUGAR	1401	n/a	n/a	0	n/a	0	0	0	n/a	n/a	n/a	n/a	n/a
3868647	FFR_REC_WORD	wordpools/wasnorm_wordpool.txt	LTP111	ltpFR	8	n/a	0	PUDDLE	1140	n/a	n/a	0	n/a	0	0	0	n/a	n/a	n/a	n/a	n/a
3869490	FFR_REC_WORD	wordpools/wasnorm_wordpool.txt	LTP111	ltpFR	8	n/a	0	THRONE	1461	n/a	n/a	1	n/a	0	0	0	n/a	n/a	n/a	n/a	n/a
3870887	FFR_REC_WORD	wordpools/wasnorm_wordpool.txt	LTP111	ltpFR	8	n/a	0	PAD	998	n/a	n/a	0	n/a	0	0	0	n/a	n/a	n/a	n/a	n/a
3872114	FFR_REC_WORD	wordpools/wasnorm_wordpool.txt	LTP111	ltpFR	8	n/a	0	PRINCESS	1125	n/a	n/a	1	n/a	0	0	0	n/a	n/a	n/a	n/a	n/a
3873466	FFR_REC_WORD	wordpools/wasnorm_wordpool.txt	LTP111	ltpFR	8	n/a	0	KLEENEX	782	n/a	n/a	0	n/a	0	0	0	n/a	n/a	n/a	n/a	n/a
3874993	FFR_REC_WORD	wordpools/wasnorm_wordpool.txt	LTP111	ltpFR	8	n/a	0	NOSE	957	n/a	n/a	0	n/a	0	0	0	n/a	n/a	n/a	n/a	n/a
3876479	FFR_REC_WORD	wordpools/wasnorm_wordpool.txt	LTP111	ltpFR	8	n/a	0	EYELASH	546	n/a	n/a	0	n/a	0	0	0	n/a	n/a	n/a	n/a	n/a
3883628	FFR_REC_WORD	wordpools/wasnorm_wordpool.txt	LTP111	ltpFR	8	n/a	n/a	AIRPORT	13	n/a	n/a	n/a	n/a	0	0	0	n/a	n/a	n/a	n/a	n/a
3885778	FFR_REC_WORD	wordpools/wasnorm_wordpool.txt	LTP111	ltpFR	8	n/a	0	AIRPLANE	12	n/a	n/a	1	n/a	0	0	0	n/a	n/a	n/a	n/a	n/a
3888507	FFR_REC_WORD	wordpools/wasnorm_wordpool.txt	LTP111	ltpFR	8	n/a	0	TENT	1449	n/a	n/a	1	n/a	0	0	0	n/a	n/a	n/a	n/a	n/a
3899861	FFR_REC_WORD	wordpools/wasnorm_wordpool.txt	LTP111	ltpFR	8	n/a	1	PIRATE	1074	n/a	n/a	1	n/a	0	0	0	n/a	n/a	n/a	n/a	n/a
3901378	FFR_REC_WORD	wordpools/wasnorm_wordpool.txt	LTP111	ltpFR	8	n/a	1	CAPTAIN	239	n/a	n/a	1	n/a	0	0	0	n/a	n/a	n/a	n/a	n/a
3902909	FFR_REC_WORD	wordpools/wasnorm_wordpool.txt	LTP111	ltpFR	8	n/a	1	RADISH	1158	n/a	n/a	0	n/a	0	0	0	n/a	n/a	n/a	n/a	n/a
3904591	FFR_REC_WORD	wordpools/wasnorm_wordpool.txt	LTP111	ltpFR	8	n/a	0	KETCHUP	771	n/a	n/a	0	n/a	0	0	0	n/a	n/a	n/a	n/a	n/a
3906825	FFR_REC_WORD	wordpools/wasnorm_wordpool.txt	LTP111	ltpFR	8	n/a	0	SINK	1309	n/a	n/a	0	n/a	0	0	0	n/a	n/a	n/a	n/a	n/a
3908426	FFR_REC_WORD	wordpools/wasnorm_wordpool.txt	LTP111	ltpFR	8	n/a	0	DETECTIVE	454	n/a	n/a	1	n/a	0	0	0	n/a	n/a	n/a	n/a	n/a
3910427	FFR_REC_WORD	wordpools/wasnorm_wordpool.txt	LTP111	ltpFR	8	n/a	1	TIE	1466	n/a	n/a	0	n/a	0	0	0	n/a	n/a	n/a	n/a	n/a
3912363	FFR_REC_WORD	wordpools/wasnorm_wordpool.txt	LTP111	ltpFR	8	n/a	1	KNEE	784	n/a	n/a	1	n/a	0	0	0	n/a	n/a	n/a	n/a	n/a
3913609	FFR_REC_WORD	wordpools/wasnorm_wordpool.txt	LTP111	ltpFR	8	n/a	0	STAPLER	1372	n/a	n/a	0	n/a	0	0	0	n/a	n/a	n/a	n/a	n/a
3915685	FFR_REC_WORD	wordpools/wasnorm_wordpool.txt	LTP111	ltpFR	8	n/a	0	BELLY	119	n/a	n/a	1	n/a	0	0	0	n/a	n/a	n/a	n/a	n/a
3917057	FFR_REC_WORD	wordpools/wasnorm_wordpool.txt	LTP111	ltpFR	8	n/a	1	DOUGHNUT	490	n/a	n/a	0	n/a	0	0	0	n/a	n/a	n/a	n/a	n/a
3918564	FFR_REC_WORD	wordpools/wasnorm_wordpool.txt	LTP111	ltpFR	8	n/a	n/a	BUTTER	205	n/a	n/a	n/a	n/a	0	0	0	n/a	n/a	n/a	n/a	n/a
3920190	FFR_REC_WORD	wordpools/wasnorm_wordpool.txt	LTP111	ltpFR	8	n/a	1	CORK	380	n/a	n/a	0	n/a	0	0	0	n/a	n/a	n/a	n/a	n/a
3922464	FFR_REC_WORD	wordpools/wasnorm_wordpool.txt	LTP111	ltpFR	8	n/a	0	SPARROW	1347	n/a	n/a	0	n/a	0	0	0	n/a	n/a	n/a	n/a	n/a
3937416	FFR_REC_WORD	wordpools/wasnorm_wordpool.txt	LTP111	ltpFR	8	n/a	0	COUSIN	392	n/a	n/a	0	n/a	0	0	0	n/a	n/a	n/a	n/a	n/a
3939596	FFR_REC_WORD	wordpools/wasnorm_wordpool.txt	LTP111	ltpFR	8	n/a	0	AUNT	60	n/a	n/a	0	n/a	0	0	0	n/a	n/a	n/a	n/a	n/a
3941197	FFR_REC_WORD	wordpools/wasnorm_wordpool.txt	LTP111	ltpFR	8	n/a	0	LACE	792	n/a	n/a	0	n/a	0	0	0	n/a	n/a	n/a	n/a	n/a
3942734	FFR_REC_WORD	wordpools/wasnorm_wordpool.txt	LTP111	ltpFR	8	n/a	0	CONTAINER	366	n/a	n/a	0	n/a	0	0	0	n/a	n/a	n/a	n/a	n/a
3945662	FFR_REC_WORD	wordpools/wasnorm_wordpool.txt	LTP111	ltpFR	8	n/a	1	EAGLE	512	n/a	n/a	n/a	n/a	0	0	0	n/a	n/a	n/a	n/a	n/a
3947653	FFR_REC_WORD	wordpools/wasnorm_wordpool.txt	LTP111	ltpFR	8	n/a	0	JEEP	753	n/a	n/a	1	n/a	0	0	0	n/a	n/a	n/a	n/a	n/a
3950012	FFR_REC_WORD	wordpools/wasnorm_wordpool.txt	LTP111	ltpFR	8	n/a	1	DISHWASHER	475	n/a	n/a	1	n/a	0	0	0	n/a	n/a	n/a	n/a	n/a
3955949	FFR_REC_WORD	wordpools/wasnorm_wordpool.txt	LTP111	ltpFR	8	n/a	0	AFRICA	9	n/a	n/a	1	n/a	0	0	0	n/a	n/a	n/a	n/a	n/a
3957625	FFR_REC_WORD	wordpools/wasnorm_wordpool.txt	LTP111	ltpFR	8	n/a	0	ANCESTOR	20	n/a	n/a	0	n/a	0	0	0	n/a	n/a	n/a	n/a	n/a
4005072	FFR_REC_WORD	wordpools/wasnorm_wordpool.txt	LTP111	ltpFR	8	n/a	1	OCTOPUS	971	n/a	n/a	1	n/a	0	0	0	n/a	n/a	n/a	n/a	n/a
4006594	FFR_REC_WORD	wordpools/wasnorm_wordpool.txt	LTP111	ltpFR	8	n/a	1	ACTOR	5	n/a	n/a	1	n/a	0	0	0	n/a	n/a	n/a	n/a	n/a
4007871	FFR_REC_WORD	wordpools/wasnorm_wordpool.txt	LTP111	ltpFR	8	n/a	0	WOMAN	1620	n/a	n/a	1	n/a	0	0	0	n/a	n/a	n/a	n/a	n/a
4008494	FFR_REC_WORD	wordpools/wasnorm_wordpool.txt	LTP111	ltpFR	8	n/a	0	RUNNER	1218	n/a	n/a	1	n/a	0	0	0	n/a	n/a	n/a	n/a	n/a
4009043	FFR_REC_WORD	wordpools/wasnorm_wordpool.txt	LTP111	ltpFR	8	n/a	1	SHORTS	1293	n/a	n/a	0	n/a	0	0	0	n/a	n/a	n/a	n/a	n/a
4011024	FFR_REC_WORD	wordpools/wasnorm_wordpool.txt	LTP111	ltpFR	8	n/a	n/a	WASHING MACHINE	-1	n/a	n/a	n/a	n/a	0	0	0	n/a	n/a	n/a	n/a	n/a
4012425	FFR_REC_WORD	wordpools/wasnorm_wordpool.txt	LTP111	ltpFR	8	n/a	0	HANGER	687	n/a	n/a	0	n/a	0	0	0	n/a	n/a	n/a	n/a	n/a
4013762	FFR_REC_WORD	wordpools/wasnorm_wordpool.txt	LTP111	ltpFR	8	n/a	0	MAN	862	n/a	n/a	0	n/a	0	0	0	n/a	n/a	n/a	n/a	n/a
4018118	FFR_REC_WORD	wordpools/wasnorm_wordpool.txt	LTP111	ltpFR	8	n/a	n/a	BACKGROUND	-1	n/a	n/a	n/a	n/a	0	0	0	n/a	n/a	n/a	n/a	n/a
4019599	FFR_REC_WORD	wordpools/wasnorm_wordpool.txt	LTP111	ltpFR	8	n/a	0	SIRLOIN	1311	n/a	n/a	0	n/a	0	0	0	n/a	n/a	n/a	n/a	n/a
4021919	FFR_REC_WORD	wordpools/wasnorm_wordpool.txt	LTP111	ltpFR	8	n/a	1	RECORD	1176	n/a	n/a	0	n/a	0	0	0	n/a	n/a	n/a	n/a	n/a
4081074	FFR_REC_WORD	wordpools/wasnorm_wordpool.txt	LTP111	ltpFR	8	n/a	1	FINGER	567	n/a	n/a	1	n/a	0	0	0	n/a	n/a	n/a	n/a	n/a
4097103	FFR_REC_WORD	wordpools/wasnorm_wordpool.txt	LTP111	ltpFR	8	n/a	0	PENGUIN	1044	n/a	n/a	0	n/a	0	0	0	n/a	n/a	n/a	n/a	n/a
4107509	FFR_REC_WORD	wordpools/wasnorm_wordpool.txt	LTP111	ltpFR	8	n/a	n/a	ANTELOPE	27	n/a	n/a	n/a	n/a	0	0	0	n/a	n/a	n/a	n/a	n/a
4140685	REC_START	n/a	LTP111	ltpFR	8	1	n/a	n/a	n/a	n/a	n/a	n/a	n/a	0	0	0	n/a	n/a	n/a	n/a	n/a
4140717	RECOG_TARGET	n/a	LTP111	ltpFR	8	1	1	RECORD	1176	1	5	0	n/a	0	0	0	n/a	n/a	n/a	n/a	n/a
4143823	RECOG_RESP	n/a	LTP111	ltpFR	8	1	1	RECORD	1176	1	n/a	0	n/a	0	0	0	n/a	n/a	n/a	n/a	n/a
4145599	RECOG_CONF	n/a	LTP111	ltpFR	8	1	1	RECORD	1176	n/a	5	0	n/a	0	0	0	n/a	n/a	n/a	n/a	n/a
4147185	RECOG_LURE	n/a	LTP111	ltpFR	8	1	n/a	CHIMPANZEE	302	0	2	n/a	n/a	0	0	0	n/a	n/a	n/a	n/a	n/a
4148133	RECOG_RESP	n/a	LTP111	ltpFR	8	1	n/a	CHIMPANZEE	302	0	n/a	n/a	n/a	0	0	0	n/a	n/a	n/a	n/a	n/a
4149141	RECOG_CONF	n/a	LTP111	ltpFR	8	1	n/a	CHIMPANZEE	302	n/a	2	n/a	n/a	0	0	0	n/a	n/a	n/a	n/a	n/a
4150772	RECOG_LURE	n/a	LTP111	ltpFR	8	1	n/a	BUILDER	190	0	2	n/a	n/a	0	0	0	n/a	n/a	n/a	n/a	n/a
4151505	RECOG_RESP	n/a	LTP111	ltpFR	8	1	n/a	BUILDER	190	0	n/a	n/a	n/a	0	0	0	n/a	n/a	n/a	n/a	n/a
4152303	RECOG_CONF	n/a	LTP111	ltpFR	8	1	n/a	BUILDER	190	n/a	2	n/a	n/a	0	0	0	n/a	n/a	n/a	n/a	n/a
4153752	RECOG_TARGET	n/a	LTP111	ltpFR	8	1	1	CLOWN	330	1	4	0	n/a	0	0	0	n/a	n/a	n/a	n/a	n/a
4154728	RECOG_RESP	n/a	LTP111	ltpFR	8	1	1	CLOWN	330	1	n/a	0	n/a	0	0	0	n/a	n/a	n/a	n/a	n/a
4155526	RECOG_CONF	n/a	LTP111	ltpFR	8	1	1	CLOWN	330	n/a	4	0	n/a	0	0	0	n/a	n/a	n/a	n/a	n/a
4156982	RECOG_TARGET	n/a	LTP111	ltpFR	8	1	0	PICNIC	1060	1	4	0	n/a	0	0	0	n/a	n/a	n/a	n/a	n/a
4157841	RECOG_RESP	n/a	LTP111	ltpFR	8	1	0	PICNIC	1060	1	n/a	0	n/a	0	0	0	n/a	n/a	n/a	n/a	n/a
4158629	RECOG_CONF	n/a	LTP111	ltpFR	8	1	0	PICNIC	1060	n/a	4	0	n/a	0	0	0	n/a	n/a	n/a	n/a	n/a
4159920	RECOG_LURE	n/a	LTP111	ltpFR	8	1	n/a	FUGITIVE	612	1	3	n/a	n/a	0	0	0	n/a	n/a	n/a	n/a	n/a
4160829	RECOG_RESP	n/a	LTP111	ltpFR	8	1	n/a	FUGITIVE	612	1	n/a	n/a	n/a	0	0	0	n/a	n/a	n/a	n/a	n/a
4161503	RECOG_CONF	n/a	LTP111	ltpFR	8	1	n/a	FUGITIVE	612	n/a	3	n/a	n/a	0	0	0	n/a	n/a	n/a	n/a	n/a
4162816	RECOG_LURE	n/a	LTP111	ltpFR	8	1	n/a	ROOT	1210	0	3	n/a	n/a	0	0	0	n/a	n/a	n/a	n/a	n/a
4163772	RECOG_RESP	n/a	LTP111	ltpFR	8	1	n/a	ROOT	1210	0	n/a	n/a	n/a	0	0	0	n/a	n/a	n/a	n/a	n/a
4164536	RECOG_CONF	n/a	LTP111	ltpFR	8	1	n/a	ROOT	1210	n/a	3	n/a	n/a	0	0	0	n/a	n/a	n/a	n/a	n/a
4165821	RECOG_TARGET	n/a	LTP111	ltpFR	8	1	0	HAMPER	682	1	4	0	n/a	0	0	0	n/a	n/a	n/a	n/a	n/a
4166711	RECOG_RESP	n/a	LTP111	ltpFR	8	1	0	HAMPER	682	1	n/a	0	n/a	0	0	0	n/a	n/a	n/a	n/a	n/a
4167449	RECOG_CONF	n/a	LTP111	ltpFR	8	1	0	HAMPER	682	n/a	4	0	n/a	0	0	0	n/a	n/a	n/a	n/a	n/a
4168735	RECOG_TARGET	n/a	LTP111	ltpFR	8	1	1	DISHWASHER	475	1	5	1	n/a	0	0	0	n/a	n/a	n/a	n/a	n/a
4169439	RECOG_RESP	n/a	LTP111	ltpFR	8	1	1	DISHWASHER	475	1	n/a	1	n/a	0	0	0	n/a	n/a	n/a	n/a	n/a
4170173	RECOG_CONF	n/a	LTP111	ltpFR	8	1	1	DISHWASHER	475	n/a	5	1	n/a	0	0	0	n/a	n/a	n/a	n/a	n/a
4171681	RECOG_LURE	n/a	LTP111	ltpFR	8	1	n/a	CATTLE	261	0	1	n/a	n/a	0	0	0	n/a	n/a	n/a	n/a	n/a
4172822	RECOG_RESP	n/a	LTP111	ltpFR	8	1	n/a	CATTLE	261	0	n/a	n/a	n/a	0	0	0	n/a	n/a	n/a	n/a	n/a
4173505	RECOG_CONF	n/a	LTP111	ltpFR	8	1	n/a	CATTLE	261	n/a	1	n/a	n/a	0	0	0	n/a	n/a	n/a	n/a	n/a
4175002	RECOG_LURE	n/a	LTP111	ltpFR	8	1	n/a	WART	1590	0	3	n/a	n/a	0	0	0	n/a	n/a	n/a	n/a	n/a
4175820	RECOG_RESP	n/a	LTP111	ltpFR	8	1	n/a	WART	1590	0	n/a	n/a	n/a	0	0	0	n/a	n/a	n/a	n/a	n/a
4176648	RECOG_CONF	n/a	LTP111	ltpFR	8	1	n/a	WART	1590	n/a	3	n/a	n/a	0	0	0	n/a	n/a	n/a	n/a	n/a
4178182	RECOG_TARGET	n/a	LTP111	ltpFR	8	1	0	AFRICA	9	1	5	1	n/a	0	0	0	n/a	n/a	n/a	n/a	n/a
4178838	RECOG_RESP	n/a	LTP111	ltpFR	8	1	0	AFRICA	9	1	n/a	1	n/a	0	0	0	n/a	n/a	n/a	n/a	n/a
4179621	RECOG_CONF	n/a	LTP111	ltpFR	8	1	0	AFRICA	9	n/a	5	1	n/a	0	0	0	n/a	n/a	n/a	n/a	n/a
4181078	RECOG_TARGET	n/a	LTP111	ltpFR	8	1	0	STETHOSCOPE	1379	1	5	0	n/a	0	0	0	n/a	n/a	n/a	n/a	n/a
4181881	RECOG_RESP	n/a	LTP111	ltpFR	8	1	0	STETHOSCOPE	1379	1	n/a	0	n/a	0	0	0	n/a	n/a	n/a	n/a	n/a
4182585	RECOG_CONF	n/a	LTP111	ltpFR	8	1	0	STETHOSCOPE	1379	n/a	5	0	n/a	0	0	0	n/a	n/a	n/a	n/a	n/a
4183958	RECOG_LURE	n/a	LTP111	ltpFR	8	1	n/a	VILLAIN	1567	0	3	n/a	n/a	0	0	0	n/a	n/a	n/a	n/a	n/a
4184730	RECOG_RESP	n/a	LTP111	ltpFR	8	1	n/a	VILLAIN	1567	0	n/a	n/a	n/a	0	0	0	n/a	n/a	n/a	n/a	n/a
4185418	RECOG_CONF	n/a	LTP111	ltpFR	8	1	n/a	VILLAIN	1567	n/a	3	n/a	n/a	0	0	0	n/a	n/a	n/a	n/a	n/a
4186872	RECOG_LURE	n/a	LTP111	ltpFR	8	1	n/a	YOUTH	1634	0	2	n/a	n/a	0	0	0	n/a	n/a	n/a	n/a	n/a
4188102	RECOG_RESP	n/a	LTP111	ltpFR	8	1	n/a	YOUTH	1634	0	n/a	n/a	n/a	0	0	0	n/a	n/a	n/a	n/a	n/a
4188781	RECOG_CONF	n/a	LTP111	ltpFR	8	1	n/a	YOUTH	1634	n/a	2	n/a	n/a	0	0	0	n/a	n/a	n/a	n/a	n/a
4190309	RECOG_LURE	n/a	LTP111	ltpFR	8	1	n/a	FUNGUS	614	0	1	n/a	n/a	0	0	0	n/a	n/a	n/a	n/a	n/a
4191355	RECOG_RESP	n/a	LTP111	ltpFR	8	1	n/a	FUNGUS	614	0	n/a	n/a	n/a	0	0	0	n/a	n/a	n/a	n/a	n/a
4192118	RECOG_CONF	n/a	LTP111	ltpFR	8	1	n/a	FUNGUS	614	n/a	1	n/a	n/a	0	0	0	n/a	n/a	n/a	n/a	n/a
4193496	RECOG_TARGET	n/a	LTP111	ltpFR	8	1	1	LINT	826	1	3	0	n/a	0	0	0	n/a	n/a	n/a	n/a	n/a
4194338	RECOG_RESP	n/a	LTP111	ltpFR	8	1	1	LINT	826	1	n/a	0	n/a	0	0	0	n/a	n/a	n/a	n/a	n/a
4195046	RECOG_CONF	n/a	LTP111	ltpFR	8	1	1	LINT	826	n/a	3	0	n/a	0	0	0	n/a	n/a	n/a	n/a	n/a
4196536	RECOG_TARGET	n/a	LTP111	ltpFR	8	1	1	DENIM	446	1	4	1	n/a	0	0	0	n/a	n/a	n/a	n/a	n/a
4197506	RECOG_RESP	n/a	LTP111	ltpFR	8	1	1	DENIM	446	1	n/a	1	n/a	0	0	0	n/a	n/a	n/a	n/a	n/a
4198109	RECOG_CONF	n/a	LTP111	ltpFR	8	1	1	DENIM	446	n/a	4	1	n/a	0	0	0	n/a	n/a	n/a	n/a	n/a
4199507	RECOG_LURE	n/a	LTP111	ltpFR	8	1	n/a	PHILOSOPHER	1054	0	2	n/a	n/a	0	0	0	n/a	n/a	n/a	n/a	n/a
4200439	RECOG_RESP	n/a	LTP111	ltpFR	8	1	n/a	PHILOSOPHER	1054	0	n/a	n/a	n/a	0	0	0	n/a	n/a	n/a	n/a	n/a
4201073	RECOG_CONF	n/a	LTP111	ltpFR	8	1	n/a	PHILOSOPHER	1054	n/a	2	n/a	n/a	0	0	0	n/a	n/a	n/a	n/a	n/a
4202578	RECOG_TARGET	n/a	LTP111	ltpFR	8	1	1	SAILOR	1223	1	3	0	n/a	0	0	0	n/a	n/a	n/a	n/a	n/a
4203392	RECOG_RESP	n/a	LTP111	ltpFR	8	1	1	SAILOR	1223	1	n/a	0	n/a	0	0	0	n/a	n/a	n/a	n/a	n/a
4204046	RECOG_CONF	n/a	LTP111	ltpFR	8	1	1	SAILOR	1223	n/a	3	0	n/a	0	0	0	n/a	n/a	n/a	n/a	n/a
4207309	REC_START	n/a	LTP111	ltpFR	8	2	n/a	n/a	n/a	n/a	n/a	n/a	n/a	0	0	0	n/a	n/a	n/a	n/a	n/a
4207340	RECOG_LURE	n/a	LTP111	ltpFR	8	2	n/a	BURGLAR	200	1	1	n/a	n/a	0	0	0	n/a	n/a	n/a	n/a	n/a
4209843	RECOG_RESP	n/a	LTP111	ltpFR	8	2	n/a	BURGLAR	200	1	n/a	n/a	n/a	0	0	0	n/a	n/a	n/a	n/a	n/a
4210495	RECOG_CONF	n/a	LTP111	ltpFR	8	2	n/a	BURGLAR	200	n/a	1	n/a	n/a	0	0	0	n/a	n/a	n/a	n/a	n/a
4211934	RECOG_TARGET	n/a	LTP111	ltpFR	8	2	0	MOUNTAIN	924	1	4	1	n/a	0	0	0	n/a	n/a	n/a	n/a	n/a
4212672	RECOG_RESP	n/a	LTP111	ltpFR	8	2	0	MOUNTAIN	924	1	n/a	1	n/a	0	0	0	n/a	n/a	n/a	n/a	n/a
4213400	RECOG_CONF	n/a	LTP111	ltpFR	8	2	0	MOUNTAIN	924	n/a	4	1	n/a	0	0	0	n/a	n/a	n/a	n/a	n/a
4214906	RECOG_TARGET	n/a	LTP111	ltpFR	8	2	1	WRIST	1626	0	1	0	n/a	0	0	0	n/a	n/a	n/a	n/a	n/a
4215765	RECOG_RESP	n/a	LTP111	ltpFR	8	2	1	WRIST	1626	0	n/a	0	n/a	0	0	0	n/a	n/a	n/a	n/a	n/a
4216393	RECOG_CONF	n/a	LTP111	ltpFR	8	2	1	WRIST	1626	n/a	1	0	n/a	0	0	0	n/a	n/a	n/a	n/a	n/a
4217894	RECOG_TARGET	n/a	LTP111	ltpFR	8	2	1	PICTURE	1061	1	1	0	n/a	0	0	0	n/a	n/a	n/a	n/a	n/a
4218773	RECOG_RESP	n/a	LTP111	ltpFR	8	2	1	PICTURE	1061	1	n/a	0	n/a	0	0	0	n/a	n/a	n/a	n/a	n/a
4219386	RECOG_CONF	n/a	LTP111	ltpFR	8	2	1	PICTURE	1061	n/a	1	0	n/a	0	0	0	n/a	n/a	n/a	n/a	n/a
4220924	RECOG_TARGET	n/a	LTP111	ltpFR	8	2	0	PENGUIN	1044	1	4	0	n/a	0	0	0	n/a	n/a	n/a	n/a	n/a
4223392	RECOG_RESP	n/a	LTP111	ltpFR	8	2	0	PENGUIN	1044	1	n/a	0	n/a	0	0	0	n/a	n/a	n/a	n/a	n/a
4224146	RECOG_CONF	n/a	LTP111	ltpFR	8	2	0	PENGUIN	1044	n/a	4	0	n/a	0	0	0	n/a	n/a	n/a	n/a	n/a
4225484	RECOG_LURE	n/a	LTP111	ltpFR	8	2	n/a	SKELETON	1314	1	1	n/a	n/a	0	0	0	n/a	n/a	n/a	n/a	n/a
4226745	RECOG_RESP	n/a	LTP111	ltpFR	8	2	n/a	SKELETON	1314	1	n/a	n/a	n/a	0	0	0	n/a	n/a	n/a	n/a	n/a
4227418	RECOG_CONF	n/a	LTP111	ltpFR	8	2	n/a	SKELETON	1314	n/a	1	n/a	n/a	0	0	0	n/a	n/a	n/a	n/a	n/a
4228831	RECOG_TARGET	n/a	LTP111	ltpFR	8	2	0	KLEENEX	782	1	4	0	n/a	0	0	0	n/a	n/a	n/a	n/a	n/a
4229563	RECOG_RESP	n/a	LTP111	ltpFR	8	2	0	KLEENEX	782	1	n/a	0	n/a	0	0	0	n/a	n/a	n/a	n/a	n/a
4230262	RECOG_CONF	n/a	LTP111	ltpFR	8	2	0	KLEENEX	782	n/a	4	0	n/a	0	0	0	n/a	n/a	n/a	n/a	n/a
4231653	RECOG_LURE	n/a	LTP111	ltpFR	8	2	n/a	COIN	343	0	3	n/a	n/a	0	0	0	n/a	n/a	n/a	n/a	n/a
4232581	RECOG_RESP	n/a	LTP111	ltpFR	8	2	n/a	COIN	343	0	n/a	n/a	n/a	0	0	0	n/a	n/a	n/a	n/a	n/a
4233913	RECOG_CONF	n/a	LTP111	ltpFR	8	2	n/a	COIN	343	n/a	3	n/a	n/a	0	0	0	n/a	n/a	n/a	n/a	n/a
4235448	RECOG_TARGET	n/a	LTP111	ltpFR	8	2	1	WORM	1623	0	1	0	n/a	0	0	0	n/a	n/a	n/a	n/a	n/a
4236707	RECOG_RESP	n/a	LTP111	ltpFR	8	2	1	WORM	1623	0	n/a	0	n/a	0	0	0	n/a	n/a	n/a	n/a	n/a
4237395	RECOG_CONF	n/a	LTP111	ltpFR	8	2	1	WORM	1623	n/a	1	0	n/a	0	0	0	n/a	n/a	n/a	n/a	n/a
4238836	RECOG_LURE	n/a	LTP111	ltpFR	8	2	n/a	GRIZZLY	662	0	4	n/a	n/a	0	0	0	n/a	n/a	n/a	n/a	n/a
4239725	RECOG_RESP	n/a	LTP111	ltpFR	8	2	n/a	GRIZZLY	662	0	n/a	n/a	n/a	0	0	0	n/a	n/a	n/a	n/a	n/a
4240359	RECOG_CONF	n/a	LTP111	ltpFR	8	2	n/a	GRIZZLY	662	n/a	4	n/a	n/a	0	0	0	n/a	n/a	n/a	n/a	n/a
4241683	RECOG_TARGET	n/a	LTP111	ltpFR	8	2	0	JEEP	753	1	4	1	n/a	0	0	0	n/a	n/a	n/a	n/a	n/a
4242374	RECOG_RESP	n/a	LTP111	ltpFR	8	2	0	JEEP	753	1	n/a	1	n/a	0	0	0	n/a	n/a	n/a	n/a	n/a
4243112	RECOG_CONF	n/a	LTP111	ltpFR	8	2	0	JEEP	753	n/a	4	1	n/a	0	0	0	n/a	n/a	n/a	n/a	n/a
4244355	RECOG_TARGET	n/a	LTP111	ltpFR	8	2	1	PECAN	1036	1	4	1	n/a	0	0	0	n/a	n/a	n/a	n/a	n/a
4245103	RECOG_RESP	n/a	LTP111	ltpFR	8	2	1	PECAN	1036	1	n/a	1	n/a	0	0	0	n/a	n/a	n/a	n/a	n/a
4245756	RECOG_CONF	n/a	LTP111	ltpFR	8	2	1	PECAN	1036	n/a	4	1	n/a	0	0	0	n/a	n/a	n/a	n/a	n/a
