mstime	trial_type	stim_file	subject	experiment	session	trial	task	item_name	item_num	recog_resp	recog_conf	resp	color_r	color_g	color_b	case	font
0	SESS_START	n/a	LTP122	ltpFR	17	n/a	n/a	n/a	n/a	1	5	n/a	n/a	n/a	n/a	n/a	n/a
40362	WORD	wordpools/wasnorm_wordpool.txt	LTP122	ltpFR	17	1	0	SCALPEL	1243	1	n/a	0	0.57763671875	0.412841796875	1	lower	zerothre.ttf
44327	WORD	wordpools/wasnorm_wordpool.txt	LTP122	ltpFR	17	1	0	DAGGER	434	n/a	n/a	0	0.57763671875	0.412841796875	1	lower	zerothre.ttf
48351	WORD	wordpools/wasnorm_wordpool.txt	LTP122	ltpFR	17	1	0	AFRICA	9	n/a	n/a	1	0.57763671875	0.412841796875	1	lower	zerothre.ttf
52216	WORD	wordpools/wasnorm_wordpool.txt	LTP122	ltpFR	17	1	0	ROCK	1201	n/a	n/a	0	0.57763671875	0.412841796875	1	lower	zerothre.ttf
56065	WORD	wordpools/wasnorm_wordpool.txt	LTP122	ltpFR	17	1	1	ORGAN	984	n/a	n/a	0	0.422607421875	0.5869140625	0	upper	amplitud.ttf
60247	WORD	wordpools/wasnorm_wordpool.txt	LTP122	ltpFR	17	1	1	SHELL	1281	n/a	n/a	0	0.422607421875	0.5869140625	0	upper	amplitud.ttf
64453	WORD	wordpools/wasnorm_wordpool.txt	LTP122	ltpFR	17	1	1	BANDANNA	80	n/a	n/a	0	0.422607421875	0.5869140625	0	upper	amplitud.ttf
68485	WORD	wordpools/wasnorm_wordpool.txt	LTP122	ltpFR	17	1	1	ZOO	1637	n/a	n/a	0	0.422607421875	0.5869140625	0	upper	amplitud.ttf
72576	WORD	wordpools/wasnorm_wordpool.txt	LTP122	ltpFR	17	1	0	PRODUCER	1129	n/a	n/a	1	0.57763671875	0.412841796875	1	lower	zerothre.ttf
76408	WORD	wordpools/wasnorm_wordpool.txt	LTP122	ltpFR	17	1	0	RICE	1190	n/a	n/a	0	0.57763671875	0.412841796875	1	lower	zerothre.ttf
80589	WORD	wordpools/wasnorm_wordpool.txt	LTP122	ltpFR	17	1	0	SQUID	1361	n/a	n/a	1	0.57763671875	0.412841796875	1	lower	zerothre.ttf
84605	WORD	wordpools/wasnorm_wordpool.txt	LTP122	ltpFR	17	1	0	TUNA	1518	n/a	n/a	1	0.57763671875	0.412841796875	1	lower	zerothre.ttf
88420	WORD	wordpools/wasnorm_wordpool.txt	LTP122	ltpFR	17	1	1	SHRUB	1299	n/a	n/a	0	0.422607421875	0.5869140625	0	upper	amplitud.ttf
92352	WORD	wordpools/wasnorm_wordpool.txt	LTP122	ltpFR	17	1	1	RESTAURANT	1187	n/a	n/a	0	0.422607421875	0.5869140625	0	upper	amplitud.ttf
96500	WORD	wordpools/wasnorm_wordpool.txt	LTP122	ltpFR	17	1	1	BRAIN	165	n/a	n/a	0	0.422607421875	0.5869140625	0	upper	amplitud.ttf
100532	WORD	wordpools/wasnorm_wordpool.txt	LTP122	ltpFR	17	1	1	TREE	1502	n/a	n/a	1	0.422607421875	0.5869140625	0	upper	amplitud.ttf
106231	REC_START	n/a	LTP122	ltpFR	17	1	n/a	n/a	n/a	n/a	n/a	n/a	n/a	n/a	n/a	n/a	n/a
108650	REC_WORD	wordpools/wasnorm_wordpool.txt	LTP122	ltpFR	17	1	0	SCALPEL	1243	n/a	n/a	0	n/a	n/a	n/a	n/a	n/a
109623	REC_WORD	wordpools/wasnorm_wordpool.txt	LTP122	ltpFR	17	1	0	DAGGER	434	n/a	n/a	0	n/a	n/a	n/a	n/a	n/a
110346	REC_WORD	wordpools/wasnorm_wordpool.txt	LTP122	ltpFR	17	1	0	AFRICA	9	n/a	n/a	1	n/a	n/a	n/a	n/a	n/a
111953	REC_WORD	wordpools/wasnorm_wordpool.txt	LTP122	ltpFR	17	1	1	ORGAN	984	n/a	n/a	0	n/a	n/a	n/a	n/a	n/a
112508	REC_WORD	wordpools/wasnorm_wordpool.txt	LTP122	ltpFR	17	1	1	SHELL	1281	n/a	n/a	0	n/a	n/a	n/a	n/a	n/a
113270	REC_WORD	wordpools/wasnorm_wordpool.txt	LTP122	ltpFR	17	1	1	BANDANNA	80	n/a	n/a	0	n/a	n/a	n/a	n/a	n/a
116941	REC_WORD	wordpools/wasnorm_wordpool.txt	LTP122	ltpFR	17	1	1	ZOO	1637	n/a	n/a	0	n/a	n/a	n/a	n/a	n/a
118613	REC_WORD	wordpools/wasnorm_wordpool.txt	LTP122	ltpFR	17	1	1	BRAIN	165	n/a	n/a	0	n/a	n/a	n/a	n/a	n/a
120513	REC_WORD	wordpools/wasnorm_wordpool.txt	LTP122	ltpFR	17	1	1	RESTAURANT	1187	n/a	n/a	0	n/a	n/a	n/a	n/a	n/a
123636	REC_WORD	wordpools/wasnorm_wordpool.txt	LTP122	ltpFR	17	1	0	PRODUCER	1129	n/a	n/a	1	n/a	n/a	n/a	n/a	n/a
124809	REC_WORD	wordpools/wasnorm_wordpool.txt	LTP122	ltpFR	17	1	0	RICE	1190	n/a	n/a	0	n/a	n/a	n/a	n/a	n/a
125439	REC_WORD	wordpools/wasnorm_wordpool.txt	LTP122	ltpFR	17	1	0	SQUID	1361	n/a	n/a	1	n/a	n/a	n/a	n/a	n/a
126644	REC_WORD	wordpools/wasnorm_wordpool.txt	LTP122	ltpFR	17	1	0	TUNA	1518	n/a	n/a	1	n/a	n/a	n/a	n/a	n/a
127427	REC_WORD	wordpools/wasnorm_wordpool.txt	LTP122	ltpFR	17	1	1	SHRUB	1299	n/a	n/a	0	n/a	n/a	n/a	n/a	n/a
134047	REC_WORD	wordpools/wasnorm_wordpool.txt	LTP122	ltpFR	17	1	0	ROCK	1201	n/a	n/a	0	n/a	n/a	n/a	n/a	n/a
196348	WORD	wordpools/wasnorm_wordpool.txt	LTP122	ltpFR	17	2	1	CYCLONE	431	n/a	n/a	0	0.422607421875	0.5869140625	0	upper	amplitud.ttf
200222	WORD	wordpools/wasnorm_wordpool.txt	LTP122	ltpFR	17	2	1	GENTLEMAN	631	n/a	n/a	1	0.422607421875	0.5869140625	0	upper	amplitud.ttf
204287	WORD	wordpools/wasnorm_wordpool.txt	LTP122	ltpFR	17	2	1	SHARK	1275	n/a	n/a	1	0.422607421875	0.5869140625	0	upper	amplitud.ttf
208144	WORD	wordpools/wasnorm_wordpool.txt	LTP122	ltpFR	17	2	0	TROUT	1511	n/a	n/a	0	0.57763671875	0.412841796875	1	lower	zerothre.ttf
212068	WORD	wordpools/wasnorm_wordpool.txt	LTP122	ltpFR	17	2	0	KITE	779	n/a	n/a	1	0.57763671875	0.412841796875	1	lower	zerothre.ttf
216042	WORD	wordpools/wasnorm_wordpool.txt	LTP122	ltpFR	17	2	0	BUG	187	n/a	n/a	0	0.57763671875	0.412841796875	1	lower	zerothre.ttf
219890	WORD	wordpools/wasnorm_wordpool.txt	LTP122	ltpFR	17	2	0	FISH	571	n/a	n/a	1	0.57763671875	0.412841796875	1	lower	zerothre.ttf
223797	WORD	wordpools/wasnorm_wordpool.txt	LTP122	ltpFR	17	2	1	WIDOW	1608	n/a	n/a	1	0.422607421875	0.5869140625	0	upper	amplitud.ttf
227936	WORD	wordpools/wasnorm_wordpool.txt	LTP122	ltpFR	17	2	1	PRISON	1127	n/a	n/a	0	0.422607421875	0.5869140625	0	upper	amplitud.ttf
232044	WORD	wordpools/wasnorm_wordpool.txt	LTP122	ltpFR	17	2	1	CREATURE	403	n/a	n/a	1	0.422607421875	0.5869140625	0	upper	amplitud.ttf
236126	WORD	wordpools/wasnorm_wordpool.txt	LTP122	ltpFR	17	2	0	MINK	897	n/a	n/a	1	0.57763671875	0.412841796875	1	lower	zerothre.ttf
240175	WORD	wordpools/wasnorm_wordpool.txt	LTP122	ltpFR	17	2	0	COD	340	n/a	n/a	0	0.57763671875	0.412841796875	1	lower	zerothre.ttf
244306	WORD	wordpools/wasnorm_wordpool.txt	LTP122	ltpFR	17	2	0	SWORD	1423	n/a	n/a	1	0.57763671875	0.412841796875	1	lower	zerothre.ttf
248330	WORD	wordpools/wasnorm_wordpool.txt	LTP122	ltpFR	17	2	0	JUVENILE	767	n/a	n/a	0	0.57763671875	0.412841796875	1	lower	zerothre.ttf
252529	WORD	wordpools/wasnorm_wordpool.txt	LTP122	ltpFR	17	2	1	ESSAY	540	n/a	n/a	0	0.422607421875	0.5869140625	0	upper	amplitud.ttf
256452	WORD	wordpools/wasnorm_wordpool.txt	LTP122	ltpFR	17	2	1	RAZOR	1171	n/a	n/a	0	0.422607421875	0.5869140625	0	upper	amplitud.ttf
262359	REC_START	n/a	LTP122	ltpFR	17	2	n/a	n/a	n/a	n/a	n/a	n/a	n/a	n/a	n/a	n/a	n/a
263556	REC_WORD	wordpools/wasnorm_wordpool.txt	LTP122	ltpFR	17	2	1	CYCLONE	431	n/a	n/a	0	n/a	n/a	n/a	n/a	n/a
264753	REC_WORD	wordpools/wasnorm_wordpool.txt	LTP122	ltpFR	17	2	1	GENTLEMAN	631	n/a	n/a	1	n/a	n/a	n/a	n/a	n/a
265756	REC_WORD	wordpools/wasnorm_wordpool.txt	LTP122	ltpFR	17	2	0	KITE	779	n/a	n/a	1	n/a	n/a	n/a	n/a	n/a
266335	REC_WORD	wordpools/wasnorm_wordpool.txt	LTP122	ltpFR	17	2	1	SHARK	1275	n/a	n/a	1	n/a	n/a	n/a	n/a	n/a
267193	REC_WORD	wordpools/wasnorm_wordpool.txt	LTP122	ltpFR	17	2	0	TROUT	1511	n/a	n/a	0	n/a	n/a	n/a	n/a	n/a
268071	REC_WORD	wordpools/wasnorm_wordpool.txt	LTP122	ltpFR	17	2	0	COD	340	n/a	n/a	0	n/a	n/a	n/a	n/a	n/a
268799	REC_WORD	wordpools/wasnorm_wordpool.txt	LTP122	ltpFR	17	2	0	FISH	571	n/a	n/a	1	n/a	n/a	n/a	n/a	n/a
269797	REC_WORD	wordpools/wasnorm_wordpool.txt	LTP122	ltpFR	17	2	1	CREATURE	403	n/a	n/a	1	n/a	n/a	n/a	n/a	n/a
271703	REC_WORD	wordpools/wasnorm_wordpool.txt	LTP122	ltpFR	17	2	1	WIDOW	1608	n/a	n/a	1	n/a	n/a	n/a	n/a	n/a
272311	REC_WORD	wordpools/wasnorm_wordpool.txt	LTP122	ltpFR	17	2	0	MINK	897	n/a	n/a	1	n/a	n/a	n/a	n/a	n/a
272970	REC_WORD	wordpools/wasnorm_wordpool.txt	LTP122	ltpFR	17	2	0	JUVENILE	767	n/a	n/a	0	n/a	n/a	n/a	n/a	n/a
273858	REC_WORD	wordpools/wasnorm_wordpool.txt	LTP122	ltpFR	17	2	1	ESSAY	540	n/a	n/a	0	n/a	n/a	n/a	n/a	n/a
274855	REC_WORD	wordpools/wasnorm_wordpool.txt	LTP122	ltpFR	17	2	1	PRISON	1127	n/a	n/a	0	n/a	n/a	n/a	n/a	n/a
291443	REC_WORD	wordpools/wasnorm_wordpool.txt	LTP122	ltpFR	17	2	0	FISH	571	n/a	n/a	1	n/a	n/a	n/a	n/a	n/a
314610	REC_WORD	wordpools/wasnorm_wordpool.txt	LTP122	ltpFR	17	2	0	SWORD	1423	n/a	n/a	1	n/a	n/a	n/a	n/a	n/a
341039	WORD	wordpools/wasnorm_wordpool.txt	LTP122	ltpFR	17	3	-1	CARPENTER	246	n/a	n/a	-1	1.0	1.0	1	upper	Verdana.ttf
345037	WORD	wordpools/wasnorm_wordpool.txt	LTP122	ltpFR	17	3	-1	CROW	414	n/a	n/a	-1	1.0	1.0	1	upper	Verdana.ttf
349211	WORD	wordpools/wasnorm_wordpool.txt	LTP122	ltpFR	17	3	-1	BOSS	152	n/a	n/a	-1	1.0	1.0	1	upper	Verdana.ttf
353060	WORD	wordpools/wasnorm_wordpool.txt	LTP122	ltpFR	17	3	-1	ROCKET	1202	n/a	n/a	-1	1.0	1.0	1	upper	Verdana.ttf
357050	WORD	wordpools/wasnorm_wordpool.txt	LTP122	ltpFR	17	3	-1	SAILOR	1223	n/a	n/a	-1	1.0	1.0	1	upper	Verdana.ttf
361082	WORD	wordpools/wasnorm_wordpool.txt	LTP122	ltpFR	17	3	-1	GALLON	618	n/a	n/a	-1	1.0	1.0	1	upper	Verdana.ttf
364954	WORD	wordpools/wasnorm_wordpool.txt	LTP122	ltpFR	17	3	-1	GOAT	644	n/a	n/a	-1	1.0	1.0	1	upper	Verdana.ttf
368970	WORD	wordpools/wasnorm_wordpool.txt	LTP122	ltpFR	17	3	-1	ALMOND	18	n/a	n/a	-1	1.0	1.0	1	upper	Verdana.ttf
373103	WORD	wordpools/wasnorm_wordpool.txt	LTP122	ltpFR	17	3	-1	WALNUT	1584	n/a	n/a	-1	1.0	1.0	1	upper	Verdana.ttf
377243	WORD	wordpools/wasnorm_wordpool.txt	LTP122	ltpFR	17	3	-1	LUMBER	848	n/a	n/a	-1	1.0	1.0	1	upper	Verdana.ttf
381333	WORD	wordpools/wasnorm_wordpool.txt	LTP122	ltpFR	17	3	-1	ACID	2	n/a	n/a	-1	1.0	1.0	1	upper	Verdana.ttf
385457	WORD	wordpools/wasnorm_wordpool.txt	LTP122	ltpFR	17	3	-1	PAWN	1030	n/a	n/a	-1	1.0	1.0	1	upper	Verdana.ttf
389380	WORD	wordpools/wasnorm_wordpool.txt	LTP122	ltpFR	17	3	-1	SNORKEL	1336	n/a	n/a	-1	1.0	1.0	1	upper	Verdana.ttf
393329	WORD	wordpools/wasnorm_wordpool.txt	LTP122	ltpFR	17	3	-1	NEST	945	n/a	n/a	-1	1.0	1.0	1	upper	Verdana.ttf
397369	WORD	wordpools/wasnorm_wordpool.txt	LTP122	ltpFR	17	3	-1	INMATE	738	n/a	n/a	-1	1.0	1.0	1	upper	Verdana.ttf
401534	WORD	wordpools/wasnorm_wordpool.txt	LTP122	ltpFR	17	3	-1	PIKE	1067	n/a	n/a	-1	1.0	1.0	1	upper	Verdana.ttf
407258	REC_START	n/a	LTP122	ltpFR	17	3	n/a	n/a	n/a	n/a	n/a	n/a	n/a	n/a	n/a	n/a	n/a
409024	REC_WORD	wordpools/wasnorm_wordpool.txt	LTP122	ltpFR	17	3	-1	CARPENTER	246	n/a	n/a	-1	n/a	n/a	n/a	n/a	n/a
410301	REC_WORD	wordpools/wasnorm_wordpool.txt	LTP122	ltpFR	17	3	-1	BOSS	152	n/a	n/a	-1	n/a	n/a	n/a	n/a	n/a
411453	REC_WORD	wordpools/wasnorm_wordpool.txt	LTP122	ltpFR	17	3	-1	ROCKET	1202	n/a	n/a	-1	n/a	n/a	n/a	n/a	n/a
412376	REC_WORD	wordpools/wasnorm_wordpool.txt	LTP122	ltpFR	17	3	-1	CROW	414	n/a	n/a	-1	n/a	n/a	n/a	n/a	n/a
413653	REC_WORD	wordpools/wasnorm_wordpool.txt	LTP122	ltpFR	17	3	-1	PIKE	1067	n/a	n/a	-1	n/a	n/a	n/a	n/a	n/a
414666	REC_WORD	wordpools/wasnorm_wordpool.txt	LTP122	ltpFR	17	3	-1	LUMBER	848	n/a	n/a	-1	n/a	n/a	n/a	n/a	n/a
416612	REC_WORD	wordpools/wasnorm_wordpool.txt	LTP122	ltpFR	17	3	-1	ACID	2	n/a	n/a	-1	n/a	n/a	n/a	n/a	n/a
418612	REC_WORD	wordpools/wasnorm_wordpool.txt	LTP122	ltpFR	17	3	-1	SAILOR	1223	n/a	n/a	-1	n/a	n/a	n/a	n/a	n/a
420358	REC_WORD	wordpools/wasnorm_wordpool.txt	LTP122	ltpFR	17	3	-1	GALLON	618	n/a	n/a	-1	n/a	n/a	n/a	n/a	n/a
421949	REC_WORD	wordpools/wasnorm_wordpool.txt	LTP122	ltpFR	17	3	-1	ALMOND	18	n/a	n/a	-1	n/a	n/a	n/a	n/a	n/a
422758	REC_WORD	wordpools/wasnorm_wordpool.txt	LTP122	ltpFR	17	3	-1	WALNUT	1584	n/a	n/a	-1	n/a	n/a	n/a	n/a	n/a
424818	REC_WORD	wordpools/wasnorm_wordpool.txt	LTP122	ltpFR	17	3	-1	GOAT	644	n/a	n/a	-1	n/a	n/a	n/a	n/a	n/a
426494	REC_WORD	wordpools/wasnorm_wordpool.txt	LTP122	ltpFR	17	3	-1	NEST	945	n/a	n/a	-1	n/a	n/a	n/a	n/a	n/a
431488	REC_WORD	wordpools/wasnorm_wordpool.txt	LTP122	ltpFR	17	3	-1	PAWN	1030	n/a	n/a	-1	n/a	n/a	n/a	n/a	n/a
432286	REC_WORD	wordpools/wasnorm_wordpool.txt	LTP122	ltpFR	17	3	-1	INMATE	738	n/a	n/a	-1	n/a	n/a	n/a	n/a	n/a
433269	REC_WORD	wordpools/wasnorm_wordpool.txt	LTP122	ltpFR	17	3	-1	SNORKEL	1336	n/a	n/a	-1	n/a	n/a	n/a	n/a	n/a
485888	WORD	wordpools/wasnorm_wordpool.txt	LTP122	ltpFR	17	4	1	HAM	678	n/a	n/a	0	0.422607421875	0.5869140625	0	upper	amplitud.ttf
489795	WORD	wordpools/wasnorm_wordpool.txt	LTP122	ltpFR	17	4	1	COCOON	339	n/a	n/a	0	0.422607421875	0.5869140625	0	upper	amplitud.ttf
493768	WORD	wordpools/wasnorm_wordpool.txt	LTP122	ltpFR	17	4	1	HUMAN	726	n/a	n/a	1	0.422607421875	0.5869140625	0	upper	amplitud.ttf
497658	WORD	wordpools/wasnorm_wordpool.txt	LTP122	ltpFR	17	4	1	BUTTERFLY	206	n/a	n/a	1	0.422607421875	0.5869140625	0	upper	amplitud.ttf
501624	WORD	wordpools/wasnorm_wordpool.txt	LTP122	ltpFR	17	4	1	VIDEO	1564	n/a	n/a	0	0.422607421875	0.5869140625	0	upper	amplitud.ttf
505747	WORD	wordpools/wasnorm_wordpool.txt	LTP122	ltpFR	17	4	1	OX	994	n/a	n/a	1	0.422607421875	0.5869140625	0	upper	amplitud.ttf
509604	WORD	wordpools/wasnorm_wordpool.txt	LTP122	ltpFR	17	4	1	JUG	762	n/a	n/a	0	0.422607421875	0.5869140625	0	upper	amplitud.ttf
513611	WORD	wordpools/wasnorm_wordpool.txt	LTP122	ltpFR	17	4	1	FORT	595	n/a	n/a	0	0.422607421875	0.5869140625	0	upper	amplitud.ttf
517685	WORD	wordpools/wasnorm_wordpool.txt	LTP122	ltpFR	17	4	1	CITRUS	313	n/a	n/a	0	0.422607421875	0.5869140625	0	upper	amplitud.ttf
521667	WORD	wordpools/wasnorm_wordpool.txt	LTP122	ltpFR	17	4	1	RAISIN	1163	n/a	n/a	0	0.422607421875	0.5869140625	0	upper	amplitud.ttf
525715	WORD	wordpools/wasnorm_wordpool.txt	LTP122	ltpFR	17	4	1	APARTMENT	30	n/a	n/a	1	0.422607421875	0.5869140625	0	upper	amplitud.ttf
529630	WORD	wordpools/wasnorm_wordpool.txt	LTP122	ltpFR	17	4	1	MANSION	864	n/a	n/a	1	0.422607421875	0.5869140625	0	upper	amplitud.ttf
533446	WORD	wordpools/wasnorm_wordpool.txt	LTP122	ltpFR	17	4	1	ZEBRA	1635	n/a	n/a	1	0.422607421875	0.5869140625	0	upper	amplitud.ttf
537544	WORD	wordpools/wasnorm_wordpool.txt	LTP122	ltpFR	17	4	1	SWIMMER	1420	n/a	n/a	1	0.422607421875	0.5869140625	0	upper	amplitud.ttf
541710	WORD	wordpools/wasnorm_wordpool.txt	LTP122	ltpFR	17	4	1	SEAL	1262	n/a	n/a	1	0.422607421875	0.5869140625	0	upper	amplitud.ttf
545558	WORD	wordpools/wasnorm_wordpool.txt	LTP122	ltpFR	17	4	1	WARRIOR	1589	n/a	n/a	1	0.422607421875	0.5869140625	0	upper	amplitud.ttf
551607	REC_START	n/a	LTP122	ltpFR	17	4	n/a	n/a	n/a	n/a	n/a	n/a	n/a	n/a	n/a	n/a	n/a
553168	REC_WORD	wordpools/wasnorm_wordpool.txt	LTP122	ltpFR	17	4	1	HAM	678	n/a	n/a	0	n/a	n/a	n/a	n/a	n/a
553637	REC_WORD	wordpools/wasnorm_wordpool.txt	LTP122	ltpFR	17	4	1	COCOON	339	n/a	n/a	0	n/a	n/a	n/a	n/a	n/a
554328	REC_WORD	wordpools/wasnorm_wordpool.txt	LTP122	ltpFR	17	4	1	HUMAN	726	n/a	n/a	1	n/a	n/a	n/a	n/a	n/a
555194	REC_WORD	wordpools/wasnorm_wordpool.txt	LTP122	ltpFR	17	4	1	BUTTERFLY	206	n/a	n/a	1	n/a	n/a	n/a	n/a	n/a
556246	REC_WORD	wordpools/wasnorm_wordpool.txt	LTP122	ltpFR	17	4	1	VIDEO	1564	n/a	n/a	0	n/a	n/a	n/a	n/a	n/a
557828	REC_WORD	wordpools/wasnorm_wordpool.txt	LTP122	ltpFR	17	4	1	OX	994	n/a	n/a	1	n/a	n/a	n/a	n/a	n/a
559205	REC_WORD	wordpools/wasnorm_wordpool.txt	LTP122	ltpFR	17	4	1	CITRUS	313	n/a	n/a	0	n/a	n/a	n/a	n/a	n/a
560137	REC_WORD	wordpools/wasnorm_wordpool.txt	LTP122	ltpFR	17	4	1	RAISIN	1163	n/a	n/a	0	n/a	n/a	n/a	n/a	n/a
561769	REC_WORD	wordpools/wasnorm_wordpool.txt	LTP122	ltpFR	17	4	1	JUG	762	n/a	n/a	0	n/a	n/a	n/a	n/a	n/a
564547	REC_WORD	wordpools/wasnorm_wordpool.txt	LTP122	ltpFR	17	4	1	ZEBRA	1635	n/a	n/a	1	n/a	n/a	n/a	n/a	n/a
565403	REC_WORD	wordpools/wasnorm_wordpool.txt	LTP122	ltpFR	17	4	1	SWIMMER	1420	n/a	n/a	1	n/a	n/a	n/a	n/a	n/a
566012	REC_WORD	wordpools/wasnorm_wordpool.txt	LTP122	ltpFR	17	4	1	SEAL	1262	n/a	n/a	1	n/a	n/a	n/a	n/a	n/a
566907	REC_WORD	wordpools/wasnorm_wordpool.txt	LTP122	ltpFR	17	4	1	WARRIOR	1589	n/a	n/a	1	n/a	n/a	n/a	n/a	n/a
568468	REC_WORD	wordpools/wasnorm_wordpool.txt	LTP122	ltpFR	17	4	1	FORT	595	n/a	n/a	0	n/a	n/a	n/a	n/a	n/a
568997	REC_WORD	wordpools/wasnorm_wordpool.txt	LTP122	ltpFR	17	4	1	APARTMENT	30	n/a	n/a	1	n/a	n/a	n/a	n/a	n/a
569805	REC_WORD	wordpools/wasnorm_wordpool.txt	LTP122	ltpFR	17	4	1	MANSION	864	n/a	n/a	1	n/a	n/a	n/a	n/a	n/a
630120	WORD	wordpools/wasnorm_wordpool.txt	LTP122	ltpFR	17	5	-1	DILL	465	n/a	n/a	-1	1.0	1.0	1	upper	Verdana.ttf
634168	WORD	wordpools/wasnorm_wordpool.txt	LTP122	ltpFR	17	5	-1	ROOMMATE	1207	n/a	n/a	-1	1.0	1.0	1	upper	Verdana.ttf
638200	WORD	wordpools/wasnorm_wordpool.txt	LTP122	ltpFR	17	5	-1	EGYPT	519	n/a	n/a	-1	1.0	1.0	1	upper	Verdana.ttf
642316	WORD	wordpools/wasnorm_wordpool.txt	LTP122	ltpFR	17	5	-1	MUMMY	932	n/a	n/a	-1	1.0	1.0	1	upper	Verdana.ttf
646273	WORD	wordpools/wasnorm_wordpool.txt	LTP122	ltpFR	17	5	-1	RATTLE	1170	n/a	n/a	-1	1.0	1.0	1	upper	Verdana.ttf
650463	WORD	wordpools/wasnorm_wordpool.txt	LTP122	ltpFR	17	5	-1	CARROT	249	n/a	n/a	-1	1.0	1.0	1	upper	Verdana.ttf
654428	WORD	wordpools/wasnorm_wordpool.txt	LTP122	ltpFR	17	5	-1	CLERK	321	n/a	n/a	-1	1.0	1.0	1	upper	Verdana.ttf
658318	WORD	wordpools/wasnorm_wordpool.txt	LTP122	ltpFR	17	5	-1	STAPLER	1372	n/a	n/a	-1	1.0	1.0	1	upper	Verdana.ttf
662209	WORD	wordpools/wasnorm_wordpool.txt	LTP122	ltpFR	17	5	-1	PAW	1029	n/a	n/a	-1	1.0	1.0	1	upper	Verdana.ttf
666224	WORD	wordpools/wasnorm_wordpool.txt	LTP122	ltpFR	17	5	-1	COYOTE	396	n/a	n/a	-1	1.0	1.0	1	upper	Verdana.ttf
670181	WORD	wordpools/wasnorm_wordpool.txt	LTP122	ltpFR	17	5	-1	SHIRT	1287	n/a	n/a	-1	1.0	1.0	1	upper	Verdana.ttf
674029	WORD	wordpools/wasnorm_wordpool.txt	LTP122	ltpFR	17	5	-1	NECK	939	n/a	n/a	-1	1.0	1.0	1	upper	Verdana.ttf
678120	WORD	wordpools/wasnorm_wordpool.txt	LTP122	ltpFR	17	5	-1	HAT	690	n/a	n/a	-1	1.0	1.0	1	upper	Verdana.ttf
682068	WORD	wordpools/wasnorm_wordpool.txt	LTP122	ltpFR	17	5	-1	CARNIVAL	245	n/a	n/a	-1	1.0	1.0	1	upper	Verdana.ttf
686008	WORD	wordpools/wasnorm_wordpool.txt	LTP122	ltpFR	17	5	-1	FATHER	554	n/a	n/a	-1	1.0	1.0	1	upper	Verdana.ttf
690074	WORD	wordpools/wasnorm_wordpool.txt	LTP122	ltpFR	17	5	-1	DENIM	446	n/a	n/a	-1	1.0	1.0	1	upper	Verdana.ttf
695971	REC_START	n/a	LTP122	ltpFR	17	5	n/a	n/a	n/a	n/a	n/a	n/a	n/a	n/a	n/a	n/a	n/a
697512	REC_WORD	wordpools/wasnorm_wordpool.txt	LTP122	ltpFR	17	5	-1	DILL	465	n/a	n/a	-1	n/a	n/a	n/a	n/a	n/a
698191	REC_WORD	wordpools/wasnorm_wordpool.txt	LTP122	ltpFR	17	5	-1	ROOMMATE	1207	n/a	n/a	-1	n/a	n/a	n/a	n/a	n/a
699558	REC_WORD	wordpools/wasnorm_wordpool.txt	LTP122	ltpFR	17	5	-1	EGYPT	519	n/a	n/a	-1	n/a	n/a	n/a	n/a	n/a
700660	REC_WORD	wordpools/wasnorm_wordpool.txt	LTP122	ltpFR	17	5	-1	MUMMY	932	n/a	n/a	-1	n/a	n/a	n/a	n/a	n/a
701728	REC_WORD	wordpools/wasnorm_wordpool.txt	LTP122	ltpFR	17	5	-1	RATTLE	1170	n/a	n/a	-1	n/a	n/a	n/a	n/a	n/a
705265	REC_WORD	wordpools/wasnorm_wordpool.txt	LTP122	ltpFR	17	5	-1	PAW	1029	n/a	n/a	-1	n/a	n/a	n/a	n/a	n/a
705843	REC_WORD	wordpools/wasnorm_wordpool.txt	LTP122	ltpFR	17	5	-1	COYOTE	396	n/a	n/a	-1	n/a	n/a	n/a	n/a	n/a
709979	REC_WORD	wordpools/wasnorm_wordpool.txt	LTP122	ltpFR	17	5	-1	HAT	690	n/a	n/a	-1	n/a	n/a	n/a	n/a	n/a
711920	REC_WORD	wordpools/wasnorm_wordpool.txt	LTP122	ltpFR	17	5	-1	CLERK	321	n/a	n/a	-1	n/a	n/a	n/a	n/a	n/a
712722	REC_WORD	wordpools/wasnorm_wordpool.txt	LTP122	ltpFR	17	5	-1	STAPLER	1372	n/a	n/a	-1	n/a	n/a	n/a	n/a	n/a
714504	REC_WORD	wordpools/wasnorm_wordpool.txt	LTP122	ltpFR	17	5	-1	SHIRT	1287	n/a	n/a	-1	n/a	n/a	n/a	n/a	n/a
715511	REC_WORD	wordpools/wasnorm_wordpool.txt	LTP122	ltpFR	17	5	-1	NECK	939	n/a	n/a	-1	n/a	n/a	n/a	n/a	n/a
716469	REC_WORD	wordpools/wasnorm_wordpool.txt	LTP122	ltpFR	17	5	-1	CARNIVAL	245	n/a	n/a	-1	n/a	n/a	n/a	n/a	n/a
718495	REC_WORD	wordpools/wasnorm_wordpool.txt	LTP122	ltpFR	17	5	-1	FATHER	554	n/a	n/a	-1	n/a	n/a	n/a	n/a	n/a
719852	REC_WORD	wordpools/wasnorm_wordpool.txt	LTP122	ltpFR	17	5	-1	DENIM	446	n/a	n/a	-1	n/a	n/a	n/a	n/a	n/a
774144	WORD	wordpools/wasnorm_wordpool.txt	LTP122	ltpFR	17	6	-1	BULL	193	n/a	n/a	-1	1.0	1.0	1	upper	Verdana.ttf
778251	WORD	wordpools/wasnorm_wordpool.txt	LTP122	ltpFR	17	6	-1	COW	393	n/a	n/a	-1	1.0	1.0	1	upper	Verdana.ttf
782183	WORD	wordpools/wasnorm_wordpool.txt	LTP122	ltpFR	17	6	-1	FAUCET	555	n/a	n/a	-1	1.0	1.0	1	upper	Verdana.ttf
786265	WORD	wordpools/wasnorm_wordpool.txt	LTP122	ltpFR	17	6	-1	FLOUR	583	n/a	n/a	-1	1.0	1.0	1	upper	Verdana.ttf
790230	WORD	wordpools/wasnorm_wordpool.txt	LTP122	ltpFR	17	6	-1	LINEN	825	n/a	n/a	-1	1.0	1.0	1	upper	Verdana.ttf
794303	WORD	wordpools/wasnorm_wordpool.txt	LTP122	ltpFR	17	6	-1	JOINT	758	n/a	n/a	-1	1.0	1.0	1	upper	Verdana.ttf
798144	WORD	wordpools/wasnorm_wordpool.txt	LTP122	ltpFR	17	6	-1	EMERALD	528	n/a	n/a	-1	1.0	1.0	1	upper	Verdana.ttf
801975	WORD	wordpools/wasnorm_wordpool.txt	LTP122	ltpFR	17	6	-1	ROUGE	1213	n/a	n/a	-1	1.0	1.0	1	upper	Verdana.ttf
805874	WORD	wordpools/wasnorm_wordpool.txt	LTP122	ltpFR	17	6	-1	VEST	1559	n/a	n/a	-1	1.0	1.0	1	upper	Verdana.ttf
809914	WORD	wordpools/wasnorm_wordpool.txt	LTP122	ltpFR	17	6	-1	HOOD	714	n/a	n/a	-1	1.0	1.0	1	upper	Verdana.ttf
813855	WORD	wordpools/wasnorm_wordpool.txt	LTP122	ltpFR	17	6	-1	SHUTTER	1300	n/a	n/a	-1	1.0	1.0	1	upper	Verdana.ttf
817986	WORD	wordpools/wasnorm_wordpool.txt	LTP122	ltpFR	17	6	-1	LETTER	813	n/a	n/a	-1	1.0	1.0	1	upper	Verdana.ttf
822160	WORD	wordpools/wasnorm_wordpool.txt	LTP122	ltpFR	17	6	-1	BEARD	107	n/a	n/a	-1	1.0	1.0	1	upper	Verdana.ttf
826084	WORD	wordpools/wasnorm_wordpool.txt	LTP122	ltpFR	17	6	-1	PITCHFORK	1078	n/a	n/a	-1	1.0	1.0	1	upper	Verdana.ttf
830274	WORD	wordpools/wasnorm_wordpool.txt	LTP122	ltpFR	17	6	-1	ELBOW	520	n/a	n/a	-1	1.0	1.0	1	upper	Verdana.ttf
834423	WORD	wordpools/wasnorm_wordpool.txt	LTP122	ltpFR	17	6	-1	MICROWAVE	892	n/a	n/a	-1	1.0	1.0	1	upper	Verdana.ttf
840205	REC_START	n/a	LTP122	ltpFR	17	6	n/a	n/a	n/a	n/a	n/a	n/a	n/a	n/a	n/a	n/a	n/a
841656	REC_WORD	wordpools/wasnorm_wordpool.txt	LTP122	ltpFR	17	6	-1	BULL	193	n/a	n/a	-1	n/a	n/a	n/a	n/a	n/a
842210	REC_WORD	wordpools/wasnorm_wordpool.txt	LTP122	ltpFR	17	6	-1	COW	393	n/a	n/a	-1	n/a	n/a	n/a	n/a	n/a
842963	REC_WORD	wordpools/wasnorm_wordpool.txt	LTP122	ltpFR	17	6	-1	FAUCET	555	n/a	n/a	-1	n/a	n/a	n/a	n/a	n/a
843861	REC_WORD	wordpools/wasnorm_wordpool.txt	LTP122	ltpFR	17	6	-1	FLOUR	583	n/a	n/a	-1	n/a	n/a	n/a	n/a	n/a
844944	REC_WORD	wordpools/wasnorm_wordpool.txt	LTP122	ltpFR	17	6	-1	LINEN	825	n/a	n/a	-1	n/a	n/a	n/a	n/a	n/a
845921	REC_WORD	wordpools/wasnorm_wordpool.txt	LTP122	ltpFR	17	6	-1	EMERALD	528	n/a	n/a	-1	n/a	n/a	n/a	n/a	n/a
846421	REC_WORD	wordpools/wasnorm_wordpool.txt	LTP122	ltpFR	17	6	-1	ROUGE	1213	n/a	n/a	-1	n/a	n/a	n/a	n/a	n/a
847413	REC_WORD	wordpools/wasnorm_wordpool.txt	LTP122	ltpFR	17	6	-1	JOINT	758	n/a	n/a	-1	n/a	n/a	n/a	n/a	n/a
848481	REC_WORD	wordpools/wasnorm_wordpool.txt	LTP122	ltpFR	17	6	-1	ELBOW	520	n/a	n/a	-1	n/a	n/a	n/a	n/a	n/a
849304	REC_WORD	wordpools/wasnorm_wordpool.txt	LTP122	ltpFR	17	6	-1	VEST	1559	n/a	n/a	-1	n/a	n/a	n/a	n/a	n/a
849913	REC_WORD	wordpools/wasnorm_wordpool.txt	LTP122	ltpFR	17	6	-1	HOOD	714	n/a	n/a	-1	n/a	n/a	n/a	n/a	n/a
850841	REC_WORD	wordpools/wasnorm_wordpool.txt	LTP122	ltpFR	17	6	-1	BEARD	107	n/a	n/a	-1	n/a	n/a	n/a	n/a	n/a
851504	REC_WORD	wordpools/wasnorm_wordpool.txt	LTP122	ltpFR	17	6	-1	PITCHFORK	1078	n/a	n/a	-1	n/a	n/a	n/a	n/a	n/a
852452	REC_WORD	wordpools/wasnorm_wordpool.txt	LTP122	ltpFR	17	6	-1	MICROWAVE	892	n/a	n/a	-1	n/a	n/a	n/a	n/a	n/a
862250	REC_WORD	wordpools/wasnorm_wordpool.txt	LTP122	ltpFR	17	6	-1	SHUTTER	1300	n/a	n/a	-1	n/a	n/a	n/a	n/a	n/a
928398	WORD	wordpools/wasnorm_wordpool.txt	LTP122	ltpFR	17	7	1	RIDER	1191	n/a	n/a	1	0.422607421875	0.5869140625	0	upper	amplitud.ttf
932530	WORD	wordpools/wasnorm_wordpool.txt	LTP122	ltpFR	17	7	1	CAN	225	n/a	n/a	1	0.422607421875	0.5869140625	0	upper	amplitud.ttf
936545	WORD	wordpools/wasnorm_wordpool.txt	LTP122	ltpFR	17	7	1	DUMP	505	n/a	n/a	0	0.422607421875	0.5869140625	0	upper	amplitud.ttf
940368	WORD	wordpools/wasnorm_wordpool.txt	LTP122	ltpFR	17	7	0	WRITER	1627	n/a	n/a	1	0.57763671875	0.412841796875	1	lower	zerothre.ttf
944492	WORD	wordpools/wasnorm_wordpool.txt	LTP122	ltpFR	17	7	0	CAP	236	n/a	n/a	0	0.57763671875	0.412841796875	1	lower	zerothre.ttf
948632	WORD	wordpools/wasnorm_wordpool.txt	LTP122	ltpFR	17	7	0	MULE	931	n/a	n/a	1	0.57763671875	0.412841796875	1	lower	zerothre.ttf
952572	WORD	wordpools/wasnorm_wordpool.txt	LTP122	ltpFR	17	7	0	SLIDE	1326	n/a	n/a	1	0.57763671875	0.412841796875	1	lower	zerothre.ttf
956663	WORD	wordpools/wasnorm_wordpool.txt	LTP122	ltpFR	17	7	1	POSSUM	1112	n/a	n/a	1	0.422607421875	0.5869140625	0	upper	amplitud.ttf
960820	WORD	wordpools/wasnorm_wordpool.txt	LTP122	ltpFR	17	7	1	CELERY	266	n/a	n/a	0	0.422607421875	0.5869140625	0	upper	amplitud.ttf
964959	WORD	wordpools/wasnorm_wordpool.txt	LTP122	ltpFR	17	7	1	APPLE	33	n/a	n/a	1	0.422607421875	0.5869140625	0	upper	amplitud.ttf
968858	WORD	wordpools/wasnorm_wordpool.txt	LTP122	ltpFR	17	7	1	DONOR	485	n/a	n/a	1	0.422607421875	0.5869140625	0	upper	amplitud.ttf
972757	WORD	wordpools/wasnorm_wordpool.txt	LTP122	ltpFR	17	7	1	VEIN	1554	n/a	n/a	1	0.422607421875	0.5869140625	0	upper	amplitud.ttf
976731	WORD	wordpools/wasnorm_wordpool.txt	LTP122	ltpFR	17	7	0	CHART	282	n/a	n/a	1	0.57763671875	0.412841796875	1	lower	zerothre.ttf
980896	WORD	wordpools/wasnorm_wordpool.txt	LTP122	ltpFR	17	7	0	CHALK	276	n/a	n/a	1	0.57763671875	0.412841796875	1	lower	zerothre.ttf
985028	WORD	wordpools/wasnorm_wordpool.txt	LTP122	ltpFR	17	7	0	HEAD	695	n/a	n/a	0	0.57763671875	0.412841796875	1	lower	zerothre.ttf
989101	WORD	wordpools/wasnorm_wordpool.txt	LTP122	ltpFR	17	7	0	SINK	1309	n/a	n/a	0	0.57763671875	0.412841796875	1	lower	zerothre.ttf
995008	REC_START	n/a	LTP122	ltpFR	17	7	n/a	n/a	n/a	n/a	n/a	n/a	n/a	n/a	n/a	n/a	n/a
996669	REC_WORD	wordpools/wasnorm_wordpool.txt	LTP122	ltpFR	17	7	1	RIDER	1191	n/a	n/a	1	n/a	n/a	n/a	n/a	n/a
997727	REC_WORD	wordpools/wasnorm_wordpool.txt	LTP122	ltpFR	17	7	1	CAN	225	n/a	n/a	1	n/a	n/a	n/a	n/a	n/a
998674	REC_WORD	wordpools/wasnorm_wordpool.txt	LTP122	ltpFR	17	7	1	DUMP	505	n/a	n/a	0	n/a	n/a	n/a	n/a	n/a
999567	REC_WORD	wordpools/wasnorm_wordpool.txt	LTP122	ltpFR	17	7	0	MULE	931	n/a	n/a	1	n/a	n/a	n/a	n/a	n/a
1001179	REC_WORD	wordpools/wasnorm_wordpool.txt	LTP122	ltpFR	17	7	0	WRITER	1627	n/a	n/a	1	n/a	n/a	n/a	n/a	n/a
1003069	REC_WORD	wordpools/wasnorm_wordpool.txt	LTP122	ltpFR	17	7	0	CAP	236	n/a	n/a	0	n/a	n/a	n/a	n/a	n/a
1004840	REC_WORD	wordpools/wasnorm_wordpool.txt	LTP122	ltpFR	17	7	1	POSSUM	1112	n/a	n/a	1	n/a	n/a	n/a	n/a	n/a
1005434	REC_WORD	wordpools/wasnorm_wordpool.txt	LTP122	ltpFR	17	7	1	CELERY	266	n/a	n/a	0	n/a	n/a	n/a	n/a	n/a
1006357	REC_WORD	wordpools/wasnorm_wordpool.txt	LTP122	ltpFR	17	7	1	APPLE	33	n/a	n/a	1	n/a	n/a	n/a	n/a	n/a
1008198	REC_WORD	wordpools/wasnorm_wordpool.txt	LTP122	ltpFR	17	7	1	DONOR	485	n/a	n/a	1	n/a	n/a	n/a	n/a	n/a
1008763	REC_WORD	wordpools/wasnorm_wordpool.txt	LTP122	ltpFR	17	7	1	VEIN	1554	n/a	n/a	1	n/a	n/a	n/a	n/a	n/a
1009450	REC_WORD	wordpools/wasnorm_wordpool.txt	LTP122	ltpFR	17	7	0	CHART	282	n/a	n/a	1	n/a	n/a	n/a	n/a	n/a
1010168	REC_WORD	wordpools/wasnorm_wordpool.txt	LTP122	ltpFR	17	7	0	CHALK	276	n/a	n/a	1	n/a	n/a	n/a	n/a	n/a
1010807	REC_WORD	wordpools/wasnorm_wordpool.txt	LTP122	ltpFR	17	7	0	HEAD	695	n/a	n/a	0	n/a	n/a	n/a	n/a	n/a
1013002	REC_WORD	wordpools/wasnorm_wordpool.txt	LTP122	ltpFR	17	7	0	SLIDE	1326	n/a	n/a	1	n/a	n/a	n/a	n/a	n/a
1013805	REC_WORD	wordpools/wasnorm_wordpool.txt	LTP122	ltpFR	17	7	0	SINK	1309	n/a	n/a	0	n/a	n/a	n/a	n/a	n/a
1085109	WORD	wordpools/wasnorm_wordpool.txt	LTP122	ltpFR	17	8	0	MAGICIAN	854	n/a	n/a	1	0.57763671875	0.412841796875	1	lower	zerothre.ttf
1089149	WORD	wordpools/wasnorm_wordpool.txt	LTP122	ltpFR	17	8	0	PEN	1041	n/a	n/a	0	0.57763671875	0.412841796875	1	lower	zerothre.ttf
1093323	WORD	wordpools/wasnorm_wordpool.txt	LTP122	ltpFR	17	8	0	CARRIAGE	248	n/a	n/a	1	0.57763671875	0.412841796875	1	lower	zerothre.ttf
1097505	WORD	wordpools/wasnorm_wordpool.txt	LTP122	ltpFR	17	8	0	DIAPER	459	n/a	n/a	0	0.57763671875	0.412841796875	1	lower	zerothre.ttf
1101603	WORD	wordpools/wasnorm_wordpool.txt	LTP122	ltpFR	17	8	0	TAPE	1433	n/a	n/a	0	0.57763671875	0.412841796875	1	lower	zerothre.ttf
1105477	WORD	wordpools/wasnorm_wordpool.txt	LTP122	ltpFR	17	8	0	CYLINDER	432	n/a	n/a	0	0.57763671875	0.412841796875	1	lower	zerothre.ttf
1109525	WORD	wordpools/wasnorm_wordpool.txt	LTP122	ltpFR	17	8	0	FUNERAL	613	n/a	n/a	1	0.57763671875	0.412841796875	1	lower	zerothre.ttf
1113707	WORD	wordpools/wasnorm_wordpool.txt	LTP122	ltpFR	17	8	0	CIRCUS	311	n/a	n/a	1	0.57763671875	0.412841796875	1	lower	zerothre.ttf
1117539	WORD	wordpools/wasnorm_wordpool.txt	LTP122	ltpFR	17	8	0	ROOM	1206	n/a	n/a	1	0.57763671875	0.412841796875	1	lower	zerothre.ttf
1121413	WORD	wordpools/wasnorm_wordpool.txt	LTP122	ltpFR	17	8	0	BUILDER	190	n/a	n/a	1	0.57763671875	0.412841796875	1	lower	zerothre.ttf
1125286	WORD	wordpools/wasnorm_wordpool.txt	LTP122	ltpFR	17	8	0	FINGER	567	n/a	n/a	0	0.57763671875	0.412841796875	1	lower	zerothre.ttf
1129202	WORD	wordpools/wasnorm_wordpool.txt	LTP122	ltpFR	17	8	0	TACK	1428	n/a	n/a	0	0.57763671875	0.412841796875	1	lower	zerothre.ttf
1133075	WORD	wordpools/wasnorm_wordpool.txt	LTP122	ltpFR	17	8	0	FREEWAY	603	n/a	n/a	1	0.57763671875	0.412841796875	1	lower	zerothre.ttf
1137265	WORD	wordpools/wasnorm_wordpool.txt	LTP122	ltpFR	17	8	0	WITCH	1617	n/a	n/a	1	0.57763671875	0.412841796875	1	lower	zerothre.ttf
1141264	WORD	wordpools/wasnorm_wordpool.txt	LTP122	ltpFR	17	8	0	ALMANAC	17	n/a	n/a	0	0.57763671875	0.412841796875	1	lower	zerothre.ttf
1145313	WORD	wordpools/wasnorm_wordpool.txt	LTP122	ltpFR	17	8	0	PIANO	1057	n/a	n/a	1	0.57763671875	0.412841796875	1	lower	zerothre.ttf
1151020	REC_START	n/a	LTP122	ltpFR	17	8	n/a	n/a	n/a	n/a	n/a	n/a	n/a	n/a	n/a	n/a	n/a
1152427	REC_WORD	wordpools/wasnorm_wordpool.txt	LTP122	ltpFR	17	8	0	MAGICIAN	854	n/a	n/a	1	n/a	n/a	n/a	n/a	n/a
1153828	REC_WORD	wordpools/wasnorm_wordpool.txt	LTP122	ltpFR	17	8	0	PEN	1041	n/a	n/a	0	n/a	n/a	n/a	n/a	n/a
1155405	REC_WORD	wordpools/wasnorm_wordpool.txt	LTP122	ltpFR	17	8	0	DIAPER	459	n/a	n/a	0	n/a	n/a	n/a	n/a	n/a
1156183	REC_WORD	wordpools/wasnorm_wordpool.txt	LTP122	ltpFR	17	8	0	TAPE	1433	n/a	n/a	0	n/a	n/a	n/a	n/a	n/a
1156751	REC_WORD	wordpools/wasnorm_wordpool.txt	LTP122	ltpFR	17	8	0	CYLINDER	432	n/a	n/a	0	n/a	n/a	n/a	n/a	n/a
1159171	REC_WORD	wordpools/wasnorm_wordpool.txt	LTP122	ltpFR	17	8	0	CARRIAGE	248	n/a	n/a	1	n/a	n/a	n/a	n/a	n/a
1164803	REC_WORD	wordpools/wasnorm_wordpool.txt	LTP122	ltpFR	17	8	0	FUNERAL	613	n/a	n/a	1	n/a	n/a	n/a	n/a	n/a
1165709	REC_WORD	wordpools/wasnorm_wordpool.txt	LTP122	ltpFR	17	8	0	FREEWAY	603	n/a	n/a	1	n/a	n/a	n/a	n/a	n/a
1167787	REC_WORD	wordpools/wasnorm_wordpool.txt	LTP122	ltpFR	17	8	0	ROOM	1206	n/a	n/a	1	n/a	n/a	n/a	n/a	n/a
1168715	REC_WORD	wordpools/wasnorm_wordpool.txt	LTP122	ltpFR	17	8	0	BUILDER	190	n/a	n/a	1	n/a	n/a	n/a	n/a	n/a
1170310	REC_WORD	wordpools/wasnorm_wordpool.txt	LTP122	ltpFR	17	8	0	CIRCUS	311	n/a	n/a	1	n/a	n/a	n/a	n/a	n/a
1171877	REC_WORD	wordpools/wasnorm_wordpool.txt	LTP122	ltpFR	17	8	0	PIANO	1057	n/a	n/a	1	n/a	n/a	n/a	n/a	n/a
1173115	REC_WORD	wordpools/wasnorm_wordpool.txt	LTP122	ltpFR	17	8	0	WITCH	1617	n/a	n/a	1	n/a	n/a	n/a	n/a	n/a
1173768	REC_WORD	wordpools/wasnorm_wordpool.txt	LTP122	ltpFR	17	8	0	ALMANAC	17	n/a	n/a	0	n/a	n/a	n/a	n/a	n/a
1175664	REC_WORD	wordpools/wasnorm_wordpool.txt	LTP122	ltpFR	17	8	0	FINGER	567	n/a	n/a	0	n/a	n/a	n/a	n/a	n/a
1176567	REC_WORD	wordpools/wasnorm_wordpool.txt	LTP122	ltpFR	17	8	0	TACK	1428	n/a	n/a	0	n/a	n/a	n/a	n/a	n/a
1229025	WORD	wordpools/wasnorm_wordpool.txt	LTP122	ltpFR	17	9	1	DOLPHIN	483	n/a	n/a	1	0.422607421875	0.5869140625	0	upper	amplitud.ttf
1233056	WORD	wordpools/wasnorm_wordpool.txt	LTP122	ltpFR	17	9	1	PORPOISE	1109	n/a	n/a	1	0.422607421875	0.5869140625	0	upper	amplitud.ttf
1237088	WORD	wordpools/wasnorm_wordpool.txt	LTP122	ltpFR	17	9	1	WICK	1607	n/a	n/a	0	0.422607421875	0.5869140625	0	upper	amplitud.ttf
1240969	WORD	wordpools/wasnorm_wordpool.txt	LTP122	ltpFR	17	9	1	ELECTRICIAN	521	n/a	n/a	1	0.422607421875	0.5869140625	0	upper	amplitud.ttf
1245052	WORD	wordpools/wasnorm_wordpool.txt	LTP122	ltpFR	17	9	1	COMPANION	357	n/a	n/a	1	0.422607421875	0.5869140625	0	upper	amplitud.ttf
1248983	WORD	wordpools/wasnorm_wordpool.txt	LTP122	ltpFR	17	9	1	MOAT	903	n/a	n/a	1	0.422607421875	0.5869140625	0	upper	amplitud.ttf
1252907	WORD	wordpools/wasnorm_wordpool.txt	LTP122	ltpFR	17	9	1	CANVAS	234	n/a	n/a	0	0.422607421875	0.5869140625	0	upper	amplitud.ttf
1256998	WORD	wordpools/wasnorm_wordpool.txt	LTP122	ltpFR	17	9	1	CELLO	268	n/a	n/a	1	0.422607421875	0.5869140625	0	upper	amplitud.ttf
1261088	WORD	wordpools/wasnorm_wordpool.txt	LTP122	ltpFR	17	9	1	FOLLOWER	589	n/a	n/a	1	0.422607421875	0.5869140625	0	upper	amplitud.ttf
1265020	WORD	wordpools/wasnorm_wordpool.txt	LTP122	ltpFR	17	9	1	KETCHUP	771	n/a	n/a	0	0.422607421875	0.5869140625	0	upper	amplitud.ttf
1269035	WORD	wordpools/wasnorm_wordpool.txt	LTP122	ltpFR	17	9	1	CABIN	211	n/a	n/a	0	0.422607421875	0.5869140625	0	upper	amplitud.ttf
1273126	WORD	wordpools/wasnorm_wordpool.txt	LTP122	ltpFR	17	9	1	GENERAL	630	n/a	n/a	1	0.422607421875	0.5869140625	0	upper	amplitud.ttf
1277299	WORD	wordpools/wasnorm_wordpool.txt	LTP122	ltpFR	17	9	1	STRANGER	1389	n/a	n/a	1	0.422607421875	0.5869140625	0	upper	amplitud.ttf
1281339	WORD	wordpools/wasnorm_wordpool.txt	LTP122	ltpFR	17	9	1	PORCH	1106	n/a	n/a	0	0.422607421875	0.5869140625	0	upper	amplitud.ttf
1285446	WORD	wordpools/wasnorm_wordpool.txt	LTP122	ltpFR	17	9	1	CANE	231	n/a	n/a	1	0.422607421875	0.5869140625	0	upper	amplitud.ttf
1289287	WORD	wordpools/wasnorm_wordpool.txt	LTP122	ltpFR	17	9	1	SCROLL	1257	n/a	n/a	0	0.422607421875	0.5869140625	0	upper	amplitud.ttf
1295194	REC_START	n/a	LTP122	ltpFR	17	9	n/a	n/a	n/a	n/a	n/a	n/a	n/a	n/a	n/a	n/a	n/a
1297164	REC_WORD	wordpools/wasnorm_wordpool.txt	LTP122	ltpFR	17	9	1	PORPOISE	1109	n/a	n/a	1	n/a	n/a	n/a	n/a	n/a
1298077	REC_WORD	wordpools/wasnorm_wordpool.txt	LTP122	ltpFR	17	9	1	DOLPHIN	483	n/a	n/a	1	n/a	n/a	n/a	n/a	n/a
1300407	REC_WORD	wordpools/wasnorm_wordpool.txt	LTP122	ltpFR	17	9	1	WICK	1607	n/a	n/a	0	n/a	n/a	n/a	n/a	n/a
1302452	REC_WORD	wordpools/wasnorm_wordpool.txt	LTP122	ltpFR	17	9	1	CANVAS	234	n/a	n/a	0	n/a	n/a	n/a	n/a	n/a
1304687	REC_WORD	wordpools/wasnorm_wordpool.txt	LTP122	ltpFR	17	9	1	ELECTRICIAN	521	n/a	n/a	1	n/a	n/a	n/a	n/a	n/a
1305680	REC_WORD	wordpools/wasnorm_wordpool.txt	LTP122	ltpFR	17	9	1	COMPANION	357	n/a	n/a	1	n/a	n/a	n/a	n/a	n/a
1307416	REC_WORD	wordpools/wasnorm_wordpool.txt	LTP122	ltpFR	17	9	1	FOLLOWER	589	n/a	n/a	1	n/a	n/a	n/a	n/a	n/a
1314141	REC_WORD	wordpools/wasnorm_wordpool.txt	LTP122	ltpFR	17	9	1	CABIN	211	n/a	n/a	0	n/a	n/a	n/a	n/a	n/a
1315114	REC_WORD	wordpools/wasnorm_wordpool.txt	LTP122	ltpFR	17	9	1	KETCHUP	771	n/a	n/a	0	n/a	n/a	n/a	n/a	n/a
1315872	REC_WORD	wordpools/wasnorm_wordpool.txt	LTP122	ltpFR	17	9	1	GENERAL	630	n/a	n/a	1	n/a	n/a	n/a	n/a	n/a
1316480	REC_WORD	wordpools/wasnorm_wordpool.txt	LTP122	ltpFR	17	9	1	STRANGER	1389	n/a	n/a	1	n/a	n/a	n/a	n/a	n/a
1317443	REC_WORD	wordpools/wasnorm_wordpool.txt	LTP122	ltpFR	17	9	1	CANE	231	n/a	n/a	1	n/a	n/a	n/a	n/a	n/a
1332788	REC_WORD	wordpools/wasnorm_wordpool.txt	LTP122	ltpFR	17	9	1	MOAT	903	n/a	n/a	1	n/a	n/a	n/a	n/a	n/a
1373074	WORD	wordpools/wasnorm_wordpool.txt	LTP122	ltpFR	17	10	0	BEAD	103	n/a	n/a	0	0.57763671875	0.412841796875	1	lower	zerothre.ttf
1377039	WORD	wordpools/wasnorm_wordpool.txt	LTP122	ltpFR	17	10	0	CRYSTAL	418	n/a	n/a	0	0.57763671875	0.412841796875	1	lower	zerothre.ttf
1380920	WORD	wordpools/wasnorm_wordpool.txt	LTP122	ltpFR	17	10	0	FOX	598	n/a	n/a	1	0.57763671875	0.412841796875	1	lower	zerothre.ttf
1385128	WORD	wordpools/wasnorm_wordpool.txt	LTP122	ltpFR	17	10	0	OFFICER	973	n/a	n/a	1	0.57763671875	0.412841796875	1	lower	zerothre.ttf
1389118	WORD	wordpools/wasnorm_wordpool.txt	LTP122	ltpFR	17	10	1	PARENT	1013	n/a	n/a	1	0.422607421875	0.5869140625	0	upper	amplitud.ttf
1393008	WORD	wordpools/wasnorm_wordpool.txt	LTP122	ltpFR	17	10	1	DOORBELL	487	n/a	n/a	0	0.422607421875	0.5869140625	0	upper	amplitud.ttf
1397215	WORD	wordpools/wasnorm_wordpool.txt	LTP122	ltpFR	17	10	1	PUBLICATION	1136	n/a	n/a	0	0.422607421875	0.5869140625	0	upper	amplitud.ttf
1401355	WORD	wordpools/wasnorm_wordpool.txt	LTP122	ltpFR	17	10	1	COLUMN	350	n/a	n/a	0	0.422607421875	0.5869140625	0	upper	amplitud.ttf
1405246	WORD	wordpools/wasnorm_wordpool.txt	LTP122	ltpFR	17	10	1	IGLOO	734	n/a	n/a	0	0.422607421875	0.5869140625	0	upper	amplitud.ttf
1409136	WORD	wordpools/wasnorm_wordpool.txt	LTP122	ltpFR	17	10	1	SKATE	1313	n/a	n/a	0	0.422607421875	0.5869140625	0	upper	amplitud.ttf
1413318	WORD	wordpools/wasnorm_wordpool.txt	LTP122	ltpFR	17	10	0	CATCHER	258	n/a	n/a	1	0.57763671875	0.412841796875	1	lower	zerothre.ttf
1417383	WORD	wordpools/wasnorm_wordpool.txt	LTP122	ltpFR	17	10	0	MONUMENT	913	n/a	n/a	1	0.57763671875	0.412841796875	1	lower	zerothre.ttf
1421407	WORD	wordpools/wasnorm_wordpool.txt	LTP122	ltpFR	17	10	0	ADULT	8	n/a	n/a	1	0.57763671875	0.412841796875	1	lower	zerothre.ttf
1425305	WORD	wordpools/wasnorm_wordpool.txt	LTP122	ltpFR	17	10	0	BOOTH	151	n/a	n/a	1	0.57763671875	0.412841796875	1	lower	zerothre.ttf
1429287	WORD	wordpools/wasnorm_wordpool.txt	LTP122	ltpFR	17	10	1	DEPUTY	450	n/a	n/a	1	0.422607421875	0.5869140625	0	upper	amplitud.ttf
1433311	WORD	wordpools/wasnorm_wordpool.txt	LTP122	ltpFR	17	10	1	BEETLE	116	n/a	n/a	0	0.422607421875	0.5869140625	0	upper	amplitud.ttf
1439051	REC_START	n/a	LTP122	ltpFR	17	10	n/a	n/a	n/a	n/a	n/a	n/a	n/a	n/a	n/a	n/a	n/a
1441131	REC_WORD	wordpools/wasnorm_wordpool.txt	LTP122	ltpFR	17	10	0	BEAD	103	n/a	n/a	0	n/a	n/a	n/a	n/a	n/a
1441849	REC_WORD	wordpools/wasnorm_wordpool.txt	LTP122	ltpFR	17	10	0	CRYSTAL	418	n/a	n/a	0	n/a	n/a	n/a	n/a	n/a
1443261	REC_WORD	wordpools/wasnorm_wordpool.txt	LTP122	ltpFR	17	10	0	FOX	598	n/a	n/a	1	n/a	n/a	n/a	n/a	n/a
1444443	REC_WORD	wordpools/wasnorm_wordpool.txt	LTP122	ltpFR	17	10	0	OFFICER	973	n/a	n/a	1	n/a	n/a	n/a	n/a	n/a
1445202	REC_WORD	wordpools/wasnorm_wordpool.txt	LTP122	ltpFR	17	10	1	PARENT	1013	n/a	n/a	1	n/a	n/a	n/a	n/a	n/a
1445885	REC_WORD	wordpools/wasnorm_wordpool.txt	LTP122	ltpFR	17	10	1	DOORBELL	487	n/a	n/a	0	n/a	n/a	n/a	n/a	n/a
1446509	REC_WORD	wordpools/wasnorm_wordpool.txt	LTP122	ltpFR	17	10	1	PUBLICATION	1136	n/a	n/a	0	n/a	n/a	n/a	n/a	n/a
1448385	REC_WORD	wordpools/wasnorm_wordpool.txt	LTP122	ltpFR	17	10	1	COLUMN	350	n/a	n/a	0	n/a	n/a	n/a	n/a	n/a
1450001	REC_WORD	wordpools/wasnorm_wordpool.txt	LTP122	ltpFR	17	10	1	IGLOO	734	n/a	n/a	0	n/a	n/a	n/a	n/a	n/a
1450693	REC_WORD	wordpools/wasnorm_wordpool.txt	LTP122	ltpFR	17	10	1	SKATE	1313	n/a	n/a	0	n/a	n/a	n/a	n/a	n/a
1451697	REC_WORD	wordpools/wasnorm_wordpool.txt	LTP122	ltpFR	17	10	0	CATCHER	258	n/a	n/a	1	n/a	n/a	n/a	n/a	n/a
1454710	REC_WORD	wordpools/wasnorm_wordpool.txt	LTP122	ltpFR	17	10	0	MONUMENT	913	n/a	n/a	1	n/a	n/a	n/a	n/a	n/a
1455473	REC_WORD	wordpools/wasnorm_wordpool.txt	LTP122	ltpFR	17	10	1	DEPUTY	450	n/a	n/a	1	n/a	n/a	n/a	n/a	n/a
1456242	REC_WORD	wordpools/wasnorm_wordpool.txt	LTP122	ltpFR	17	10	0	BOOTH	151	n/a	n/a	1	n/a	n/a	n/a	n/a	n/a
1457788	REC_WORD	wordpools/wasnorm_wordpool.txt	LTP122	ltpFR	17	10	0	ADULT	8	n/a	n/a	1	n/a	n/a	n/a	n/a	n/a
1517298	WORD	wordpools/wasnorm_wordpool.txt	LTP122	ltpFR	17	11	0	SPIDER	1351	n/a	n/a	0	0.57763671875	0.412841796875	1	lower	zerothre.ttf
1521496	WORD	wordpools/wasnorm_wordpool.txt	LTP122	ltpFR	17	11	0	CAFE	216	n/a	n/a	0	0.57763671875	0.412841796875	1	lower	zerothre.ttf
1525703	WORD	wordpools/wasnorm_wordpool.txt	LTP122	ltpFR	17	11	0	FIREPLACE	570	n/a	n/a	1	0.57763671875	0.412841796875	1	lower	zerothre.ttf
1529543	WORD	wordpools/wasnorm_wordpool.txt	LTP122	ltpFR	17	11	0	WALRUS	1585	n/a	n/a	1	0.57763671875	0.412841796875	1	lower	zerothre.ttf
1533359	WORD	wordpools/wasnorm_wordpool.txt	LTP122	ltpFR	17	11	0	CORN	381	n/a	n/a	0	0.57763671875	0.412841796875	1	lower	zerothre.ttf
1537249	WORD	wordpools/wasnorm_wordpool.txt	LTP122	ltpFR	17	11	0	SILVERWARE	1308	n/a	n/a	0	0.57763671875	0.412841796875	1	lower	zerothre.ttf
1541239	WORD	wordpools/wasnorm_wordpool.txt	LTP122	ltpFR	17	11	0	BLADE	134	n/a	n/a	0	0.57763671875	0.412841796875	1	lower	zerothre.ttf
1545138	WORD	wordpools/wasnorm_wordpool.txt	LTP122	ltpFR	17	11	0	TOTE	1487	n/a	n/a	1	0.57763671875	0.412841796875	1	lower	zerothre.ttf
1549103	WORD	wordpools/wasnorm_wordpool.txt	LTP122	ltpFR	17	11	0	KNAPSACK	783	n/a	n/a	1	0.57763671875	0.412841796875	1	lower	zerothre.ttf
1553043	WORD	wordpools/wasnorm_wordpool.txt	LTP122	ltpFR	17	11	0	WITNESS	1618	n/a	n/a	1	0.57763671875	0.412841796875	1	lower	zerothre.ttf
1557042	WORD	wordpools/wasnorm_wordpool.txt	LTP122	ltpFR	17	11	0	EYELASH	546	n/a	n/a	1	0.57763671875	0.412841796875	1	lower	zerothre.ttf
1561157	WORD	wordpools/wasnorm_wordpool.txt	LTP122	ltpFR	17	11	0	CLAY	320	n/a	n/a	0	0.57763671875	0.412841796875	1	lower	zerothre.ttf
1565106	WORD	wordpools/wasnorm_wordpool.txt	LTP122	ltpFR	17	11	0	OATMEAL	967	n/a	n/a	0	0.57763671875	0.412841796875	1	lower	zerothre.ttf
1569238	WORD	wordpools/wasnorm_wordpool.txt	LTP122	ltpFR	17	11	0	CABINET	212	n/a	n/a	1	0.57763671875	0.412841796875	1	lower	zerothre.ttf
1573111	WORD	wordpools/wasnorm_wordpool.txt	LTP122	ltpFR	17	11	0	SIGN	1305	n/a	n/a	1	0.57763671875	0.412841796875	1	lower	zerothre.ttf
1577051	WORD	wordpools/wasnorm_wordpool.txt	LTP122	ltpFR	17	11	0	INSECT	740	n/a	n/a	0	0.57763671875	0.412841796875	1	lower	zerothre.ttf
1582974	REC_START	n/a	LTP122	ltpFR	17	11	n/a	n/a	n/a	n/a	n/a	n/a	n/a	n/a	n/a	n/a	n/a
1584346	REC_WORD	wordpools/wasnorm_wordpool.txt	LTP122	ltpFR	17	11	0	SPIDER	1351	n/a	n/a	0	n/a	n/a	n/a	n/a	n/a
1585358	REC_WORD	wordpools/wasnorm_wordpool.txt	LTP122	ltpFR	17	11	0	CAFE	216	n/a	n/a	0	n/a	n/a	n/a	n/a	n/a
1586390	REC_WORD	wordpools/wasnorm_wordpool.txt	LTP122	ltpFR	17	11	0	FIREPLACE	570	n/a	n/a	1	n/a	n/a	n/a	n/a	n/a
1587334	REC_WORD	wordpools/wasnorm_wordpool.txt	LTP122	ltpFR	17	11	0	SILVERWARE	1308	n/a	n/a	0	n/a	n/a	n/a	n/a	n/a
1588461	REC_WORD	wordpools/wasnorm_wordpool.txt	LTP122	ltpFR	17	11	0	BLADE	134	n/a	n/a	0	n/a	n/a	n/a	n/a	n/a
1589135	REC_WORD	wordpools/wasnorm_wordpool.txt	LTP122	ltpFR	17	11	0	WALRUS	1585	n/a	n/a	1	n/a	n/a	n/a	n/a	n/a
1589963	REC_WORD	wordpools/wasnorm_wordpool.txt	LTP122	ltpFR	17	11	0	CORN	381	n/a	n/a	0	n/a	n/a	n/a	n/a	n/a
1590572	REC_WORD	wordpools/wasnorm_wordpool.txt	LTP122	ltpFR	17	11	0	TOTE	1487	n/a	n/a	1	n/a	n/a	n/a	n/a	n/a
1591519	REC_WORD	wordpools/wasnorm_wordpool.txt	LTP122	ltpFR	17	11	0	KNAPSACK	783	n/a	n/a	1	n/a	n/a	n/a	n/a	n/a
1593939	REC_WORD	wordpools/wasnorm_wordpool.txt	LTP122	ltpFR	17	11	0	INSECT	740	n/a	n/a	0	n/a	n/a	n/a	n/a	n/a
1595485	REC_WORD	wordpools/wasnorm_wordpool.txt	LTP122	ltpFR	17	11	0	WITNESS	1618	n/a	n/a	1	n/a	n/a	n/a	n/a	n/a
1596468	REC_WORD	wordpools/wasnorm_wordpool.txt	LTP122	ltpFR	17	11	0	CLAY	320	n/a	n/a	0	n/a	n/a	n/a	n/a	n/a
1597655	REC_WORD	wordpools/wasnorm_wordpool.txt	LTP122	ltpFR	17	11	0	OATMEAL	967	n/a	n/a	0	n/a	n/a	n/a	n/a	n/a
1598494	REC_WORD	wordpools/wasnorm_wordpool.txt	LTP122	ltpFR	17	11	0	CABINET	212	n/a	n/a	1	n/a	n/a	n/a	n/a	n/a
1599237	REC_WORD	wordpools/wasnorm_wordpool.txt	LTP122	ltpFR	17	11	0	SIGN	1305	n/a	n/a	1	n/a	n/a	n/a	n/a	n/a
1661896	WORD	wordpools/wasnorm_wordpool.txt	LTP122	ltpFR	17	12	-1	NUCLEUS	961	n/a	n/a	-1	1.0	1.0	1	upper	Verdana.ttf
1665853	WORD	wordpools/wasnorm_wordpool.txt	LTP122	ltpFR	17	12	-1	BALCONY	72	n/a	n/a	-1	1.0	1.0	1	upper	Verdana.ttf
1669702	WORD	wordpools/wasnorm_wordpool.txt	LTP122	ltpFR	17	12	-1	HIKER	708	n/a	n/a	-1	1.0	1.0	1	upper	Verdana.ttf
1673609	WORD	wordpools/wasnorm_wordpool.txt	LTP122	ltpFR	17	12	-1	JAPAN	749	n/a	n/a	-1	1.0	1.0	1	upper	Verdana.ttf
1677433	WORD	wordpools/wasnorm_wordpool.txt	LTP122	ltpFR	17	12	-1	SPHINX	1349	n/a	n/a	-1	1.0	1.0	1	upper	Verdana.ttf
1681290	WORD	wordpools/wasnorm_wordpool.txt	LTP122	ltpFR	17	12	-1	LABEL	790	n/a	n/a	-1	1.0	1.0	1	upper	Verdana.ttf
1685496	WORD	wordpools/wasnorm_wordpool.txt	LTP122	ltpFR	17	12	-1	MANAGER	863	n/a	n/a	-1	1.0	1.0	1	upper	Verdana.ttf
1689637	WORD	wordpools/wasnorm_wordpool.txt	LTP122	ltpFR	17	12	-1	FLAG	573	n/a	n/a	-1	1.0	1.0	1	upper	Verdana.ttf
1693485	WORD	wordpools/wasnorm_wordpool.txt	LTP122	ltpFR	17	12	-1	TRIANGLE	1504	n/a	n/a	-1	1.0	1.0	1	upper	Verdana.ttf
1697484	WORD	wordpools/wasnorm_wordpool.txt	LTP122	ltpFR	17	12	-1	SUPERVISOR	1410	n/a	n/a	-1	1.0	1.0	1	upper	Verdana.ttf
1701624	WORD	wordpools/wasnorm_wordpool.txt	LTP122	ltpFR	17	12	-1	TEACHER	1440	n/a	n/a	-1	1.0	1.0	1	upper	Verdana.ttf
1705648	WORD	wordpools/wasnorm_wordpool.txt	LTP122	ltpFR	17	12	-1	CLASS	318	n/a	n/a	-1	1.0	1.0	1	upper	Verdana.ttf
1709688	WORD	wordpools/wasnorm_wordpool.txt	LTP122	ltpFR	17	12	-1	SPRINKLE	1359	n/a	n/a	-1	1.0	1.0	1	upper	Verdana.ttf
1713553	WORD	wordpools/wasnorm_wordpool.txt	LTP122	ltpFR	17	12	-1	LAGOON	795	n/a	n/a	-1	1.0	1.0	1	upper	Verdana.ttf
1717718	WORD	wordpools/wasnorm_wordpool.txt	LTP122	ltpFR	17	12	-1	OUTDOORS	987	n/a	n/a	-1	1.0	1.0	1	upper	Verdana.ttf
1721892	WORD	wordpools/wasnorm_wordpool.txt	LTP122	ltpFR	17	12	-1	HEATER	698	n/a	n/a	-1	1.0	1.0	1	upper	Verdana.ttf
1727832	REC_START	n/a	LTP122	ltpFR	17	12	n/a	n/a	n/a	n/a	n/a	n/a	n/a	n/a	n/a	n/a	n/a
1730386	REC_WORD	wordpools/wasnorm_wordpool.txt	LTP122	ltpFR	17	12	-1	NUCLEUS	961	n/a	n/a	-1	n/a	n/a	n/a	n/a	n/a
1731145	REC_WORD	wordpools/wasnorm_wordpool.txt	LTP122	ltpFR	17	12	-1	HIKER	708	n/a	n/a	-1	n/a	n/a	n/a	n/a	n/a
1731848	REC_WORD	wordpools/wasnorm_wordpool.txt	LTP122	ltpFR	17	12	-1	BALCONY	72	n/a	n/a	-1	n/a	n/a	n/a	n/a	n/a
1732485	REC_WORD	wordpools/wasnorm_wordpool.txt	LTP122	ltpFR	17	12	-1	SPHINX	1349	n/a	n/a	-1	n/a	n/a	n/a	n/a	n/a
1733274	REC_WORD	wordpools/wasnorm_wordpool.txt	LTP122	ltpFR	17	12	-1	JAPAN	749	n/a	n/a	-1	n/a	n/a	n/a	n/a	n/a
1734172	REC_WORD	wordpools/wasnorm_wordpool.txt	LTP122	ltpFR	17	12	-1	MANAGER	863	n/a	n/a	-1	n/a	n/a	n/a	n/a	n/a
1734761	REC_WORD	wordpools/wasnorm_wordpool.txt	LTP122	ltpFR	17	12	-1	SPRINKLE	1359	n/a	n/a	-1	n/a	n/a	n/a	n/a	n/a
1735724	REC_WORD	wordpools/wasnorm_wordpool.txt	LTP122	ltpFR	17	12	-1	OUTDOORS	987	n/a	n/a	-1	n/a	n/a	n/a	n/a	n/a
1736553	REC_WORD	wordpools/wasnorm_wordpool.txt	LTP122	ltpFR	17	12	-1	FLAG	573	n/a	n/a	-1	n/a	n/a	n/a	n/a	n/a
1737315	REC_WORD	wordpools/wasnorm_wordpool.txt	LTP122	ltpFR	17	12	-1	TRIANGLE	1504	n/a	n/a	-1	n/a	n/a	n/a	n/a	n/a
1745616	REC_WORD	wordpools/wasnorm_wordpool.txt	LTP122	ltpFR	17	12	-1	SUPERVISOR	1410	n/a	n/a	-1	n/a	n/a	n/a	n/a	n/a
1746694	REC_WORD	wordpools/wasnorm_wordpool.txt	LTP122	ltpFR	17	12	-1	TEACHER	1440	n/a	n/a	-1	n/a	n/a	n/a	n/a	n/a
1747287	REC_WORD	wordpools/wasnorm_wordpool.txt	LTP122	ltpFR	17	12	-1	CLASS	318	n/a	n/a	-1	n/a	n/a	n/a	n/a	n/a
1748565	REC_WORD	wordpools/wasnorm_wordpool.txt	LTP122	ltpFR	17	12	-1	HEATER	698	n/a	n/a	-1	n/a	n/a	n/a	n/a	n/a
1759555	REC_WORD	wordpools/wasnorm_wordpool.txt	LTP122	ltpFR	17	12	-1	LABEL	790	n/a	n/a	-1	n/a	n/a	n/a	n/a	n/a
1803430	REST_REWET	n/a	LTP122	ltpFR	17	12	n/a	n/a	n/a	n/a	n/a	n/a	n/a	n/a	n/a	n/a	n/a
2142035	WORD	wordpools/wasnorm_wordpool.txt	LTP122	ltpFR	17	13	1	SUBMARINE	1398	n/a	n/a	0	0.422607421875	0.5869140625	0	upper	amplitud.ttf
2146042	WORD	wordpools/wasnorm_wordpool.txt	LTP122	ltpFR	17	13	1	DECK	443	n/a	n/a	0	0.422607421875	0.5869140625	0	upper	amplitud.ttf
2149939	WORD	wordpools/wasnorm_wordpool.txt	LTP122	ltpFR	17	13	1	BISON	131	n/a	n/a	1	0.422607421875	0.5869140625	0	upper	amplitud.ttf
2153988	WORD	wordpools/wasnorm_wordpool.txt	LTP122	ltpFR	17	13	1	SKILLET	1317	n/a	n/a	0	0.422607421875	0.5869140625	0	upper	amplitud.ttf
2157846	WORD	wordpools/wasnorm_wordpool.txt	LTP122	ltpFR	17	13	1	GAVEL	627	n/a	n/a	0	0.422607421875	0.5869140625	0	upper	amplitud.ttf
2161678	WORD	wordpools/wasnorm_wordpool.txt	LTP122	ltpFR	17	13	1	BUSH	202	n/a	n/a	1	0.422607421875	0.5869140625	0	upper	amplitud.ttf
2165776	WORD	wordpools/wasnorm_wordpool.txt	LTP122	ltpFR	17	13	1	CANAL	226	n/a	n/a	1	0.422607421875	0.5869140625	0	upper	amplitud.ttf
2169924	WORD	wordpools/wasnorm_wordpool.txt	LTP122	ltpFR	17	13	1	RAFT	1159	n/a	n/a	0	0.422607421875	0.5869140625	0	upper	amplitud.ttf
2173931	WORD	wordpools/wasnorm_wordpool.txt	LTP122	ltpFR	17	13	1	LIZARD	834	n/a	n/a	1	0.422607421875	0.5869140625	0	upper	amplitud.ttf
2177913	WORD	wordpools/wasnorm_wordpool.txt	LTP122	ltpFR	17	13	1	POISON	1096	n/a	n/a	0	0.422607421875	0.5869140625	0	upper	amplitud.ttf
2181896	WORD	wordpools/wasnorm_wordpool.txt	LTP122	ltpFR	17	13	1	CREW	406	n/a	n/a	1	0.422607421875	0.5869140625	0	upper	amplitud.ttf
2185952	WORD	wordpools/wasnorm_wordpool.txt	LTP122	ltpFR	17	13	1	POET	1095	n/a	n/a	1	0.422607421875	0.5869140625	0	upper	amplitud.ttf
2190060	WORD	wordpools/wasnorm_wordpool.txt	LTP122	ltpFR	17	13	1	TEA	1439	n/a	n/a	0	0.422607421875	0.5869140625	0	upper	amplitud.ttf
2194183	WORD	wordpools/wasnorm_wordpool.txt	LTP122	ltpFR	17	13	1	POLICE	1098	n/a	n/a	1	0.422607421875	0.5869140625	0	upper	amplitud.ttf
2198298	WORD	wordpools/wasnorm_wordpool.txt	LTP122	ltpFR	17	13	1	DEPARTMENT	449	n/a	n/a	0	0.422607421875	0.5869140625	0	upper	amplitud.ttf
2202280	WORD	wordpools/wasnorm_wordpool.txt	LTP122	ltpFR	17	13	1	RAM	1165	n/a	n/a	1	0.422607421875	0.5869140625	0	upper	amplitud.ttf
2208004	REC_START	n/a	LTP122	ltpFR	17	13	n/a	n/a	n/a	n/a	n/a	n/a	n/a	n/a	n/a	n/a	n/a
2209725	REC_WORD	wordpools/wasnorm_wordpool.txt	LTP122	ltpFR	17	13	1	SUBMARINE	1398	n/a	n/a	0	n/a	n/a	n/a	n/a	n/a
2211521	REC_WORD	wordpools/wasnorm_wordpool.txt	LTP122	ltpFR	17	13	1	DECK	443	n/a	n/a	0	n/a	n/a	n/a	n/a	n/a
2212124	REC_WORD	wordpools/wasnorm_wordpool.txt	LTP122	ltpFR	17	13	1	BISON	131	n/a	n/a	1	n/a	n/a	n/a	n/a	n/a
2212762	REC_WORD	wordpools/wasnorm_wordpool.txt	LTP122	ltpFR	17	13	1	SKILLET	1317	n/a	n/a	0	n/a	n/a	n/a	n/a	n/a
2213846	REC_WORD	wordpools/wasnorm_wordpool.txt	LTP122	ltpFR	17	13	1	GAVEL	627	n/a	n/a	0	n/a	n/a	n/a	n/a	n/a
2214634	REC_WORD	wordpools/wasnorm_wordpool.txt	LTP122	ltpFR	17	13	1	BUSH	202	n/a	n/a	1	n/a	n/a	n/a	n/a	n/a
2218021	REC_WORD	wordpools/wasnorm_wordpool.txt	LTP122	ltpFR	17	13	1	LIZARD	834	n/a	n/a	1	n/a	n/a	n/a	n/a	n/a
2219259	REC_WORD	wordpools/wasnorm_wordpool.txt	LTP122	ltpFR	17	13	1	RAFT	1159	n/a	n/a	0	n/a	n/a	n/a	n/a	n/a
2219842	REC_WORD	wordpools/wasnorm_wordpool.txt	LTP122	ltpFR	17	13	1	CANAL	226	n/a	n/a	1	n/a	n/a	n/a	n/a	n/a
2220660	REC_WORD	wordpools/wasnorm_wordpool.txt	LTP122	ltpFR	17	13	1	POET	1095	n/a	n/a	1	n/a	n/a	n/a	n/a	n/a
2221258	REC_WORD	wordpools/wasnorm_wordpool.txt	LTP122	ltpFR	17	13	1	POISON	1096	n/a	n/a	0	n/a	n/a	n/a	n/a	n/a
2223883	REC_WORD	wordpools/wasnorm_wordpool.txt	LTP122	ltpFR	17	13	1	TEA	1439	n/a	n/a	0	n/a	n/a	n/a	n/a	n/a
2225344	REC_WORD	wordpools/wasnorm_wordpool.txt	LTP122	ltpFR	17	13	1	POLICE	1098	n/a	n/a	1	n/a	n/a	n/a	n/a	n/a
2226077	REC_WORD	wordpools/wasnorm_wordpool.txt	LTP122	ltpFR	17	13	1	DEPARTMENT	449	n/a	n/a	0	n/a	n/a	n/a	n/a	n/a
2227015	REC_WORD	wordpools/wasnorm_wordpool.txt	LTP122	ltpFR	17	13	1	RAM	1165	n/a	n/a	1	n/a	n/a	n/a	n/a	n/a
2227714	REC_WORD	wordpools/wasnorm_wordpool.txt	LTP122	ltpFR	17	13	1	CREW	406	n/a	n/a	1	n/a	n/a	n/a	n/a	n/a
2286117	WORD	wordpools/wasnorm_wordpool.txt	LTP122	ltpFR	17	14	1	BUGLE	189	n/a	n/a	0	0.422607421875	0.5869140625	0	upper	amplitud.ttf
2290024	WORD	wordpools/wasnorm_wordpool.txt	LTP122	ltpFR	17	14	1	STRAWBERRY	1391	n/a	n/a	0	0.422607421875	0.5869140625	0	upper	amplitud.ttf
2293898	WORD	wordpools/wasnorm_wordpool.txt	LTP122	ltpFR	17	14	0	STAFF	1365	n/a	n/a	1	0.57763671875	0.412841796875	1	lower	zerothre.ttf
2297912	WORD	wordpools/wasnorm_wordpool.txt	LTP122	ltpFR	17	14	0	TEMPLE	1448	n/a	n/a	1	0.57763671875	0.412841796875	1	lower	zerothre.ttf
2301911	WORD	wordpools/wasnorm_wordpool.txt	LTP122	ltpFR	17	14	0	PELICAN	1039	n/a	n/a	1	0.57763671875	0.412841796875	1	lower	zerothre.ttf
2306010	WORD	wordpools/wasnorm_wordpool.txt	LTP122	ltpFR	17	14	1	THICKET	1455	n/a	n/a	0	0.422607421875	0.5869140625	0	upper	amplitud.ttf
2309941	WORD	wordpools/wasnorm_wordpool.txt	LTP122	ltpFR	17	14	1	HAMBURGER	679	n/a	n/a	0	0.422607421875	0.5869140625	0	upper	amplitud.ttf
2314091	WORD	wordpools/wasnorm_wordpool.txt	LTP122	ltpFR	17	14	1	PERCH	1048	n/a	n/a	0	0.422607421875	0.5869140625	0	upper	amplitud.ttf
2317913	WORD	wordpools/wasnorm_wordpool.txt	LTP122	ltpFR	17	14	1	GRASSHOPPER	656	n/a	n/a	1	0.422607421875	0.5869140625	0	upper	amplitud.ttf
2322096	WORD	wordpools/wasnorm_wordpool.txt	LTP122	ltpFR	17	14	0	VIRUS	1572	n/a	n/a	0	0.57763671875	0.412841796875	1	lower	zerothre.ttf
2326178	WORD	wordpools/wasnorm_wordpool.txt	LTP122	ltpFR	17	14	0	GERM	632	n/a	n/a	0	0.57763671875	0.412841796875	1	lower	zerothre.ttf
2330035	WORD	wordpools/wasnorm_wordpool.txt	LTP122	ltpFR	17	14	0	COOLER	375	n/a	n/a	0	0.57763671875	0.412841796875	1	lower	zerothre.ttf
2334109	WORD	wordpools/wasnorm_wordpool.txt	LTP122	ltpFR	17	14	0	TEAPOT	1442	n/a	n/a	0	0.57763671875	0.412841796875	1	lower	zerothre.ttf
2337981	WORD	wordpools/wasnorm_wordpool.txt	LTP122	ltpFR	17	14	0	TIGER	1467	n/a	n/a	1	0.57763671875	0.412841796875	1	lower	zerothre.ttf
2342139	WORD	wordpools/wasnorm_wordpool.txt	LTP122	ltpFR	17	14	1	PANTHER	1009	n/a	n/a	1	0.422607421875	0.5869140625	0	upper	amplitud.ttf
2346263	WORD	wordpools/wasnorm_wordpool.txt	LTP122	ltpFR	17	14	1	TRUMPET	1513	n/a	n/a	0	0.422607421875	0.5869140625	0	upper	amplitud.ttf
2352153	REC_START	n/a	LTP122	ltpFR	17	14	n/a	n/a	n/a	n/a	n/a	n/a	n/a	n/a	n/a	n/a	n/a
2353585	REC_WORD	wordpools/wasnorm_wordpool.txt	LTP122	ltpFR	17	14	1	TRUMPET	1513	n/a	n/a	0	n/a	n/a	n/a	n/a	n/a
2354522	REC_WORD	wordpools/wasnorm_wordpool.txt	LTP122	ltpFR	17	14	1	BUGLE	189	n/a	n/a	0	n/a	n/a	n/a	n/a	n/a
2357456	REC_WORD	wordpools/wasnorm_wordpool.txt	LTP122	ltpFR	17	14	1	STRAWBERRY	1391	n/a	n/a	0	n/a	n/a	n/a	n/a	n/a
2358747	REC_WORD	wordpools/wasnorm_wordpool.txt	LTP122	ltpFR	17	14	0	STAFF	1365	n/a	n/a	1	n/a	n/a	n/a	n/a	n/a
2360713	REC_WORD	wordpools/wasnorm_wordpool.txt	LTP122	ltpFR	17	14	0	TEMPLE	1448	n/a	n/a	1	n/a	n/a	n/a	n/a	n/a
2362090	REC_WORD	wordpools/wasnorm_wordpool.txt	LTP122	ltpFR	17	14	0	PELICAN	1039	n/a	n/a	1	n/a	n/a	n/a	n/a	n/a
2363063	REC_WORD	wordpools/wasnorm_wordpool.txt	LTP122	ltpFR	17	14	1	PERCH	1048	n/a	n/a	0	n/a	n/a	n/a	n/a	n/a
2365796	REC_WORD	wordpools/wasnorm_wordpool.txt	LTP122	ltpFR	17	14	1	THICKET	1455	n/a	n/a	0	n/a	n/a	n/a	n/a	n/a
2367637	REC_WORD	wordpools/wasnorm_wordpool.txt	LTP122	ltpFR	17	14	1	GRASSHOPPER	656	n/a	n/a	1	n/a	n/a	n/a	n/a	n/a
2368545	REC_WORD	wordpools/wasnorm_wordpool.txt	LTP122	ltpFR	17	14	1	HAMBURGER	679	n/a	n/a	0	n/a	n/a	n/a	n/a	n/a
2372721	REC_WORD	wordpools/wasnorm_wordpool.txt	LTP122	ltpFR	17	14	0	COOLER	375	n/a	n/a	0	n/a	n/a	n/a	n/a	n/a
2377161	REC_WORD	wordpools/wasnorm_wordpool.txt	LTP122	ltpFR	17	14	0	TEAPOT	1442	n/a	n/a	0	n/a	n/a	n/a	n/a	n/a
2379156	REC_WORD	wordpools/wasnorm_wordpool.txt	LTP122	ltpFR	17	14	0	VIRUS	1572	n/a	n/a	0	n/a	n/a	n/a	n/a	n/a
2380104	REC_WORD	wordpools/wasnorm_wordpool.txt	LTP122	ltpFR	17	14	0	GERM	632	n/a	n/a	0	n/a	n/a	n/a	n/a	n/a
2381471	REC_WORD	wordpools/wasnorm_wordpool.txt	LTP122	ltpFR	17	14	0	TIGER	1467	n/a	n/a	1	n/a	n/a	n/a	n/a	n/a
2383786	REC_WORD	wordpools/wasnorm_wordpool.txt	LTP122	ltpFR	17	14	1	PANTHER	1009	n/a	n/a	1	n/a	n/a	n/a	n/a	n/a
2430624	WORD	wordpools/wasnorm_wordpool.txt	LTP122	ltpFR	17	15	0	CAR	241	n/a	n/a	1	0.57763671875	0.412841796875	1	lower	zerothre.ttf
2434798	WORD	wordpools/wasnorm_wordpool.txt	LTP122	ltpFR	17	15	0	SEED	1266	n/a	n/a	0	0.57763671875	0.412841796875	1	lower	zerothre.ttf
2438979	WORD	wordpools/wasnorm_wordpool.txt	LTP122	ltpFR	17	15	1	THORN	1459	n/a	n/a	0	0.422607421875	0.5869140625	0	upper	amplitud.ttf
2443120	WORD	wordpools/wasnorm_wordpool.txt	LTP122	ltpFR	17	15	1	ARENA	37	n/a	n/a	0	0.422607421875	0.5869140625	0	upper	amplitud.ttf
2447027	WORD	wordpools/wasnorm_wordpool.txt	LTP122	ltpFR	17	15	0	CHEERLEADER	288	n/a	n/a	1	0.57763671875	0.412841796875	1	lower	zerothre.ttf
2450949	WORD	wordpools/wasnorm_wordpool.txt	LTP122	ltpFR	17	15	0	BAND	78	n/a	n/a	1	0.57763671875	0.412841796875	1	lower	zerothre.ttf
2454948	WORD	wordpools/wasnorm_wordpool.txt	LTP122	ltpFR	17	15	0	BABY	64	n/a	n/a	0	0.57763671875	0.412841796875	1	lower	zerothre.ttf
2459081	WORD	wordpools/wasnorm_wordpool.txt	LTP122	ltpFR	17	15	1	SIREN	1310	n/a	n/a	1	0.422607421875	0.5869140625	0	upper	amplitud.ttf
2463246	WORD	wordpools/wasnorm_wordpool.txt	LTP122	ltpFR	17	15	1	NOTE	958	n/a	n/a	0	0.422607421875	0.5869140625	0	upper	amplitud.ttf
2467061	WORD	wordpools/wasnorm_wordpool.txt	LTP122	ltpFR	17	15	1	BEEF	113	n/a	n/a	0	0.422607421875	0.5869140625	0	upper	amplitud.ttf
2470951	WORD	wordpools/wasnorm_wordpool.txt	LTP122	ltpFR	17	15	1	BEAN	105	n/a	n/a	0	0.422607421875	0.5869140625	0	upper	amplitud.ttf
2475100	WORD	wordpools/wasnorm_wordpool.txt	LTP122	ltpFR	17	15	1	RADIO	1157	n/a	n/a	0	0.422607421875	0.5869140625	0	upper	amplitud.ttf
2479016	WORD	wordpools/wasnorm_wordpool.txt	LTP122	ltpFR	17	15	1	INFANT	737	n/a	n/a	0	0.422607421875	0.5869140625	0	upper	amplitud.ttf
2482988	WORD	wordpools/wasnorm_wordpool.txt	LTP122	ltpFR	17	15	0	LOBBY	836	n/a	n/a	1	0.57763671875	0.412841796875	1	lower	zerothre.ttf
2486953	WORD	wordpools/wasnorm_wordpool.txt	LTP122	ltpFR	17	15	0	PAINTER	1004	n/a	n/a	1	0.57763671875	0.412841796875	1	lower	zerothre.ttf
2491070	WORD	wordpools/wasnorm_wordpool.txt	LTP122	ltpFR	17	15	0	CUB	419	n/a	n/a	1	0.57763671875	0.412841796875	1	lower	zerothre.ttf
2496735	REC_START	n/a	LTP122	ltpFR	17	15	n/a	n/a	n/a	n/a	n/a	n/a	n/a	n/a	n/a	n/a	n/a
2498645	REC_WORD	wordpools/wasnorm_wordpool.txt	LTP122	ltpFR	17	15	0	CAR	241	n/a	n/a	1	n/a	n/a	n/a	n/a	n/a
2499206	REC_WORD	wordpools/wasnorm_wordpool.txt	LTP122	ltpFR	17	15	0	SEED	1266	n/a	n/a	0	n/a	n/a	n/a	n/a	n/a
2500057	REC_WORD	wordpools/wasnorm_wordpool.txt	LTP122	ltpFR	17	15	1	BEAN	105	n/a	n/a	0	n/a	n/a	n/a	n/a	n/a
2500835	REC_WORD	wordpools/wasnorm_wordpool.txt	LTP122	ltpFR	17	15	1	THORN	1459	n/a	n/a	0	n/a	n/a	n/a	n/a	n/a
2501835	REC_WORD	wordpools/wasnorm_wordpool.txt	LTP122	ltpFR	17	15	1	SIREN	1310	n/a	n/a	1	n/a	n/a	n/a	n/a	n/a
2502961	REC_WORD	wordpools/wasnorm_wordpool.txt	LTP122	ltpFR	17	15	1	NOTE	958	n/a	n/a	0	n/a	n/a	n/a	n/a	n/a
2504961	REC_WORD	wordpools/wasnorm_wordpool.txt	LTP122	ltpFR	17	15	0	LOBBY	836	n/a	n/a	1	n/a	n/a	n/a	n/a	n/a
2505564	REC_WORD	wordpools/wasnorm_wordpool.txt	LTP122	ltpFR	17	15	0	PAINTER	1004	n/a	n/a	1	n/a	n/a	n/a	n/a	n/a
2506208	REC_WORD	wordpools/wasnorm_wordpool.txt	LTP122	ltpFR	17	15	0	CUB	419	n/a	n/a	1	n/a	n/a	n/a	n/a	n/a
2506807	REC_WORD	wordpools/wasnorm_wordpool.txt	LTP122	ltpFR	17	15	1	ARENA	37	n/a	n/a	0	n/a	n/a	n/a	n/a	n/a
2507520	REC_WORD	wordpools/wasnorm_wordpool.txt	LTP122	ltpFR	17	15	0	CHEERLEADER	288	n/a	n/a	1	n/a	n/a	n/a	n/a	n/a
2508309	REC_WORD	wordpools/wasnorm_wordpool.txt	LTP122	ltpFR	17	15	0	BABY	64	n/a	n/a	0	n/a	n/a	n/a	n/a	n/a
2508872	REC_WORD	wordpools/wasnorm_wordpool.txt	LTP122	ltpFR	17	15	1	INFANT	737	n/a	n/a	0	n/a	n/a	n/a	n/a	n/a
2575165	WORD	wordpools/wasnorm_wordpool.txt	LTP122	ltpFR	17	16	0	BELL	118	n/a	n/a	0	0.57763671875	0.412841796875	1	lower	zerothre.ttf
2579272	WORD	wordpools/wasnorm_wordpool.txt	LTP122	ltpFR	17	16	0	CHIME	300	n/a	n/a	0	0.57763671875	0.412841796875	1	lower	zerothre.ttf
2583162	WORD	wordpools/wasnorm_wordpool.txt	LTP122	ltpFR	17	16	0	FLIPPER	580	n/a	n/a	0	0.57763671875	0.412841796875	1	lower	zerothre.ttf
2587077	WORD	wordpools/wasnorm_wordpool.txt	LTP122	ltpFR	17	16	0	FACTORY	548	n/a	n/a	1	0.57763671875	0.412841796875	1	lower	zerothre.ttf
2591168	WORD	wordpools/wasnorm_wordpool.txt	LTP122	ltpFR	17	16	0	CROSS	413	n/a	n/a	1	0.57763671875	0.412841796875	1	lower	zerothre.ttf
2595174	WORD	wordpools/wasnorm_wordpool.txt	LTP122	ltpFR	17	16	0	COURSE	390	n/a	n/a	1	0.57763671875	0.412841796875	1	lower	zerothre.ttf
2599156	WORD	wordpools/wasnorm_wordpool.txt	LTP122	ltpFR	17	16	0	BIKE	125	n/a	n/a	1	0.57763671875	0.412841796875	1	lower	zerothre.ttf
2602979	WORD	wordpools/wasnorm_wordpool.txt	LTP122	ltpFR	17	16	0	TRICYCLE	1506	n/a	n/a	1	0.57763671875	0.412841796875	1	lower	zerothre.ttf
2607104	WORD	wordpools/wasnorm_wordpool.txt	LTP122	ltpFR	17	16	0	OINTMENT	974	n/a	n/a	0	0.57763671875	0.412841796875	1	lower	zerothre.ttf
2611277	WORD	wordpools/wasnorm_wordpool.txt	LTP122	ltpFR	17	16	0	COLLEGE	346	n/a	n/a	1	0.57763671875	0.412841796875	1	lower	zerothre.ttf
2615426	WORD	wordpools/wasnorm_wordpool.txt	LTP122	ltpFR	17	16	0	ORCHESTRA	981	n/a	n/a	1	0.57763671875	0.412841796875	1	lower	zerothre.ttf
2619458	WORD	wordpools/wasnorm_wordpool.txt	LTP122	ltpFR	17	16	0	GUN	673	n/a	n/a	0	0.57763671875	0.412841796875	1	lower	zerothre.ttf
2623273	WORD	wordpools/wasnorm_wordpool.txt	LTP122	ltpFR	17	16	0	HATCHET	691	n/a	n/a	0	0.57763671875	0.412841796875	1	lower	zerothre.ttf
2627371	WORD	wordpools/wasnorm_wordpool.txt	LTP122	ltpFR	17	16	0	NUN	962	n/a	n/a	1	0.57763671875	0.412841796875	1	lower	zerothre.ttf
2631387	WORD	wordpools/wasnorm_wordpool.txt	LTP122	ltpFR	17	16	0	BANJO	82	n/a	n/a	1	0.57763671875	0.412841796875	1	lower	zerothre.ttf
2635510	WORD	wordpools/wasnorm_wordpool.txt	LTP122	ltpFR	17	16	0	PAVEMENT	1028	n/a	n/a	1	0.57763671875	0.412841796875	1	lower	zerothre.ttf
2641217	REC_START	n/a	LTP122	ltpFR	17	16	n/a	n/a	n/a	n/a	n/a	n/a	n/a	n/a	n/a	n/a	n/a
2642958	REC_WORD	wordpools/wasnorm_wordpool.txt	LTP122	ltpFR	17	16	0	BELL	118	n/a	n/a	0	n/a	n/a	n/a	n/a	n/a
2643671	REC_WORD	wordpools/wasnorm_wordpool.txt	LTP122	ltpFR	17	16	0	CHIME	300	n/a	n/a	0	n/a	n/a	n/a	n/a	n/a
2644517	REC_WORD	wordpools/wasnorm_wordpool.txt	LTP122	ltpFR	17	16	0	FLIPPER	580	n/a	n/a	0	n/a	n/a	n/a	n/a	n/a
2645476	REC_WORD	wordpools/wasnorm_wordpool.txt	LTP122	ltpFR	17	16	0	FACTORY	548	n/a	n/a	1	n/a	n/a	n/a	n/a	n/a
2648016	REC_WORD	wordpools/wasnorm_wordpool.txt	LTP122	ltpFR	17	16	0	CROSS	413	n/a	n/a	1	n/a	n/a	n/a	n/a	n/a
2649902	REC_WORD	wordpools/wasnorm_wordpool.txt	LTP122	ltpFR	17	16	0	COURSE	390	n/a	n/a	1	n/a	n/a	n/a	n/a	n/a
2650576	REC_WORD	wordpools/wasnorm_wordpool.txt	LTP122	ltpFR	17	16	0	BIKE	125	n/a	n/a	1	n/a	n/a	n/a	n/a	n/a
2651025	REC_WORD	wordpools/wasnorm_wordpool.txt	LTP122	ltpFR	17	16	0	TRICYCLE	1506	n/a	n/a	1	n/a	n/a	n/a	n/a	n/a
2651967	REC_WORD	wordpools/wasnorm_wordpool.txt	LTP122	ltpFR	17	16	0	OINTMENT	974	n/a	n/a	0	n/a	n/a	n/a	n/a	n/a
2653933	REC_WORD	wordpools/wasnorm_wordpool.txt	LTP122	ltpFR	17	16	0	COLLEGE	346	n/a	n/a	1	n/a	n/a	n/a	n/a	n/a
2654531	REC_WORD	wordpools/wasnorm_wordpool.txt	LTP122	ltpFR	17	16	0	ORCHESTRA	981	n/a	n/a	1	n/a	n/a	n/a	n/a	n/a
2655330	REC_WORD	wordpools/wasnorm_wordpool.txt	LTP122	ltpFR	17	16	0	BANJO	82	n/a	n/a	1	n/a	n/a	n/a	n/a	n/a
2656542	REC_WORD	wordpools/wasnorm_wordpool.txt	LTP122	ltpFR	17	16	0	NUN	962	n/a	n/a	1	n/a	n/a	n/a	n/a	n/a
2657550	REC_WORD	wordpools/wasnorm_wordpool.txt	LTP122	ltpFR	17	16	0	HATCHET	691	n/a	n/a	0	n/a	n/a	n/a	n/a	n/a
2658602	REC_WORD	wordpools/wasnorm_wordpool.txt	LTP122	ltpFR	17	16	0	GUN	673	n/a	n/a	0	n/a	n/a	n/a	n/a	n/a
2671054	REC_WORD	wordpools/wasnorm_wordpool.txt	LTP122	ltpFR	17	16	0	OINTMENT	974	n/a	n/a	0	n/a	n/a	n/a	n/a	n/a
2732285	REC_START	n/a	LTP122	ltpFR	17	n/a	n/a	n/a	n/a	n/a	n/a	n/a	n/a	n/a	n/a	n/a	n/a
2733527	FFR_REC_WORD	wordpools/wasnorm_wordpool.txt	LTP122	ltpFR	17	n/a	0	BELL	118	n/a	n/a	0	n/a	n/a	n/a	n/a	n/a
2734061	FFR_REC_WORD	wordpools/wasnorm_wordpool.txt	LTP122	ltpFR	17	n/a	0	CHIME	300	n/a	n/a	0	n/a	n/a	n/a	n/a	n/a
2734739	FFR_REC_WORD	wordpools/wasnorm_wordpool.txt	LTP122	ltpFR	17	n/a	0	FLIPPER	580	n/a	n/a	0	n/a	n/a	n/a	n/a	n/a
2735435	FFR_REC_WORD	wordpools/wasnorm_wordpool.txt	LTP122	ltpFR	17	n/a	0	FACTORY	548	n/a	n/a	1	n/a	n/a	n/a	n/a	n/a
2736206	FFR_REC_WORD	wordpools/wasnorm_wordpool.txt	LTP122	ltpFR	17	n/a	0	CROSS	413	n/a	n/a	1	n/a	n/a	n/a	n/a	n/a
2737977	FFR_REC_WORD	wordpools/wasnorm_wordpool.txt	LTP122	ltpFR	17	n/a	0	COURSE	390	n/a	n/a	1	n/a	n/a	n/a	n/a	n/a
2738675	FFR_REC_WORD	wordpools/wasnorm_wordpool.txt	LTP122	ltpFR	17	n/a	0	PAVEMENT	1028	n/a	n/a	1	n/a	n/a	n/a	n/a	n/a
2739693	FFR_REC_WORD	wordpools/wasnorm_wordpool.txt	LTP122	ltpFR	17	n/a	0	BIKE	125	n/a	n/a	1	n/a	n/a	n/a	n/a	n/a
2740212	FFR_REC_WORD	wordpools/wasnorm_wordpool.txt	LTP122	ltpFR	17	n/a	0	TRICYCLE	1506	n/a	n/a	1	n/a	n/a	n/a	n/a	n/a
2741629	FFR_REC_WORD	wordpools/wasnorm_wordpool.txt	LTP122	ltpFR	17	n/a	0	OINTMENT	974	n/a	n/a	0	n/a	n/a	n/a	n/a	n/a
2742965	FFR_REC_WORD	wordpools/wasnorm_wordpool.txt	LTP122	ltpFR	17	n/a	0	NUN	962	n/a	n/a	1	n/a	n/a	n/a	n/a	n/a
2743774	FFR_REC_WORD	wordpools/wasnorm_wordpool.txt	LTP122	ltpFR	17	n/a	0	GUN	673	n/a	n/a	0	n/a	n/a	n/a	n/a	n/a
2744192	FFR_REC_WORD	wordpools/wasnorm_wordpool.txt	LTP122	ltpFR	17	n/a	0	HATCHET	691	n/a	n/a	0	n/a	n/a	n/a	n/a	n/a
2745619	FFR_REC_WORD	wordpools/wasnorm_wordpool.txt	LTP122	ltpFR	17	n/a	0	BANJO	82	n/a	n/a	1	n/a	n/a	n/a	n/a	n/a
2746358	FFR_REC_WORD	wordpools/wasnorm_wordpool.txt	LTP122	ltpFR	17	n/a	0	ORCHESTRA	981	n/a	n/a	1	n/a	n/a	n/a	n/a	n/a
2747455	FFR_REC_WORD	wordpools/wasnorm_wordpool.txt	LTP122	ltpFR	17	n/a	0	COLLEGE	346	n/a	n/a	1	n/a	n/a	n/a	n/a	n/a
2749960	FFR_REC_WORD	wordpools/wasnorm_wordpool.txt	LTP122	ltpFR	17	n/a	1	DOLPHIN	483	n/a	n/a	1	n/a	n/a	n/a	n/a	n/a
2750668	FFR_REC_WORD	wordpools/wasnorm_wordpool.txt	LTP122	ltpFR	17	n/a	1	PORPOISE	1109	n/a	n/a	1	n/a	n/a	n/a	n/a	n/a
2751474	FFR_REC_WORD	wordpools/wasnorm_wordpool.txt	LTP122	ltpFR	17	n/a	1	MOAT	903	n/a	n/a	1	n/a	n/a	n/a	n/a	n/a
2752938	FFR_REC_WORD	wordpools/wasnorm_wordpool.txt	LTP122	ltpFR	17	n/a	1	ELECTRICIAN	521	n/a	n/a	1	n/a	n/a	n/a	n/a	n/a
2753891	FFR_REC_WORD	wordpools/wasnorm_wordpool.txt	LTP122	ltpFR	17	n/a	1	COMPANION	357	n/a	n/a	1	n/a	n/a	n/a	n/a	n/a
2755637	FFR_REC_WORD	wordpools/wasnorm_wordpool.txt	LTP122	ltpFR	17	n/a	1	WICK	1607	n/a	n/a	0	n/a	n/a	n/a	n/a	n/a
2757153	FFR_REC_WORD	wordpools/wasnorm_wordpool.txt	LTP122	ltpFR	17	n/a	1	FOLLOWER	589	n/a	n/a	1	n/a	n/a	n/a	n/a	n/a
2758810	FFR_REC_WORD	wordpools/wasnorm_wordpool.txt	LTP122	ltpFR	17	n/a	1	CANVAS	234	n/a	n/a	0	n/a	n/a	n/a	n/a	n/a
2761054	FFR_REC_WORD	wordpools/wasnorm_wordpool.txt	LTP122	ltpFR	17	n/a	1	KETCHUP	771	n/a	n/a	0	n/a	n/a	n/a	n/a	n/a
2761808	FFR_REC_WORD	wordpools/wasnorm_wordpool.txt	LTP122	ltpFR	17	n/a	1	GENERAL	630	n/a	n/a	1	n/a	n/a	n/a	n/a	n/a
2763688	FFR_REC_WORD	wordpools/wasnorm_wordpool.txt	LTP122	ltpFR	17	n/a	1	STRANGER	1389	n/a	n/a	1	n/a	n/a	n/a	n/a	n/a
2765125	FFR_REC_WORD	wordpools/wasnorm_wordpool.txt	LTP122	ltpFR	17	n/a	1	CANE	231	n/a	n/a	1	n/a	n/a	n/a	n/a	n/a
2767799	FFR_REC_WORD	wordpools/wasnorm_wordpool.txt	LTP122	ltpFR	17	n/a	1	PANTHER	1009	n/a	n/a	1	n/a	n/a	n/a	n/a	n/a
2768493	FFR_REC_WORD	wordpools/wasnorm_wordpool.txt	LTP122	ltpFR	17	n/a	0	TIGER	1467	n/a	n/a	1	n/a	n/a	n/a	n/a	n/a
2769146	FFR_REC_WORD	wordpools/wasnorm_wordpool.txt	LTP122	ltpFR	17	n/a	0	TEAPOT	1442	n/a	n/a	0	n/a	n/a	n/a	n/a	n/a
2769805	FFR_REC_WORD	wordpools/wasnorm_wordpool.txt	LTP122	ltpFR	17	n/a	0	COOLER	375	n/a	n/a	0	n/a	n/a	n/a	n/a	n/a
2770443	FFR_REC_WORD	wordpools/wasnorm_wordpool.txt	LTP122	ltpFR	17	n/a	0	BANJO	82	n/a	n/a	1	n/a	n/a	n/a	n/a	n/a
2771012	FFR_REC_WORD	wordpools/wasnorm_wordpool.txt	LTP122	ltpFR	17	n/a	1	TRUMPET	1513	n/a	n/a	0	n/a	n/a	n/a	n/a	n/a
2775975	FFR_REC_WORD	wordpools/wasnorm_wordpool.txt	LTP122	ltpFR	17	n/a	1	STRAWBERRY	1391	n/a	n/a	0	n/a	n/a	n/a	n/a	n/a
2777248	FFR_REC_WORD	wordpools/wasnorm_wordpool.txt	LTP122	ltpFR	17	n/a	0	PELICAN	1039	n/a	n/a	1	n/a	n/a	n/a	n/a	n/a
2777931	FFR_REC_WORD	wordpools/wasnorm_wordpool.txt	LTP122	ltpFR	17	n/a	0	STAFF	1365	n/a	n/a	1	n/a	n/a	n/a	n/a	n/a
2778729	FFR_REC_WORD	wordpools/wasnorm_wordpool.txt	LTP122	ltpFR	17	n/a	0	TEMPLE	1448	n/a	n/a	1	n/a	n/a	n/a	n/a	n/a
2779241	FFR_REC_WORD	wordpools/wasnorm_wordpool.txt	LTP122	ltpFR	17	n/a	1	THICKET	1455	n/a	n/a	0	n/a	n/a	n/a	n/a	n/a
2780101	FFR_REC_WORD	wordpools/wasnorm_wordpool.txt	LTP122	ltpFR	17	n/a	1	PERCH	1048	n/a	n/a	0	n/a	n/a	n/a	n/a	n/a
2784641	FFR_REC_WORD	wordpools/wasnorm_wordpool.txt	LTP122	ltpFR	17	n/a	0	VIRUS	1572	n/a	n/a	0	n/a	n/a	n/a	n/a	n/a
2785439	FFR_REC_WORD	wordpools/wasnorm_wordpool.txt	LTP122	ltpFR	17	n/a	0	GERM	632	n/a	n/a	0	n/a	n/a	n/a	n/a	n/a
2792268	FFR_REC_WORD	wordpools/wasnorm_wordpool.txt	LTP122	ltpFR	17	n/a	1	ESSAY	540	n/a	n/a	0	n/a	n/a	n/a	n/a	n/a
2802909	FFR_REC_WORD	wordpools/wasnorm_wordpool.txt	LTP122	ltpFR	17	n/a	1	GENTLEMAN	631	n/a	n/a	1	n/a	n/a	n/a	n/a	n/a
2803683	FFR_REC_WORD	wordpools/wasnorm_wordpool.txt	LTP122	ltpFR	17	n/a	0	SWORD	1423	n/a	n/a	1	n/a	n/a	n/a	n/a	n/a
2807115	FFR_REC_WORD	wordpools/wasnorm_wordpool.txt	LTP122	ltpFR	17	n/a	n/a	WHIRLPOOL	-1	n/a	n/a	n/a	n/a	n/a	n/a	n/a	n/a
2808891	FFR_REC_WORD	wordpools/wasnorm_wordpool.txt	LTP122	ltpFR	17	n/a	1	CYCLONE	431	n/a	n/a	0	n/a	n/a	n/a	n/a	n/a
2809923	FFR_REC_WORD	wordpools/wasnorm_wordpool.txt	LTP122	ltpFR	17	n/a	1	SHARK	1275	n/a	n/a	1	n/a	n/a	n/a	n/a	n/a
2811804	FFR_REC_WORD	wordpools/wasnorm_wordpool.txt	LTP122	ltpFR	17	n/a	0	TROUT	1511	n/a	n/a	0	n/a	n/a	n/a	n/a	n/a
2812622	FFR_REC_WORD	wordpools/wasnorm_wordpool.txt	LTP122	ltpFR	17	n/a	0	COD	340	n/a	n/a	0	n/a	n/a	n/a	n/a	n/a
2813201	FFR_REC_WORD	wordpools/wasnorm_wordpool.txt	LTP122	ltpFR	17	n/a	0	FISH	571	n/a	n/a	1	n/a	n/a	n/a	n/a	n/a
2813929	FFR_REC_WORD	wordpools/wasnorm_wordpool.txt	LTP122	ltpFR	17	n/a	1	CREATURE	403	n/a	n/a	1	n/a	n/a	n/a	n/a	n/a
2821003	FFR_REC_WORD	wordpools/wasnorm_wordpool.txt	LTP122	ltpFR	17	n/a	1	RIDER	1191	n/a	n/a	1	n/a	n/a	n/a	n/a	n/a
2823188	FFR_REC_WORD	wordpools/wasnorm_wordpool.txt	LTP122	ltpFR	17	n/a	1	CAN	225	n/a	n/a	1	n/a	n/a	n/a	n/a	n/a
2825169	FFR_REC_WORD	wordpools/wasnorm_wordpool.txt	LTP122	ltpFR	17	n/a	1	DUMP	505	n/a	n/a	0	n/a	n/a	n/a	n/a	n/a
2826052	FFR_REC_WORD	wordpools/wasnorm_wordpool.txt	LTP122	ltpFR	17	n/a	0	MULE	931	n/a	n/a	1	n/a	n/a	n/a	n/a	n/a
2826790	FFR_REC_WORD	wordpools/wasnorm_wordpool.txt	LTP122	ltpFR	17	n/a	0	WRITER	1627	n/a	n/a	1	n/a	n/a	n/a	n/a	n/a
2828157	FFR_REC_WORD	wordpools/wasnorm_wordpool.txt	LTP122	ltpFR	17	n/a	0	CAP	236	n/a	n/a	0	n/a	n/a	n/a	n/a	n/a
2830706	FFR_REC_WORD	wordpools/wasnorm_wordpool.txt	LTP122	ltpFR	17	n/a	-1	CROW	414	n/a	n/a	-1	n/a	n/a	n/a	n/a	n/a
2832552	FFR_REC_WORD	wordpools/wasnorm_wordpool.txt	LTP122	ltpFR	17	n/a	n/a	PORCUPINE	1107	n/a	n/a	n/a	n/a	n/a	n/a	n/a	n/a
2833350	FFR_REC_WORD	wordpools/wasnorm_wordpool.txt	LTP122	ltpFR	17	n/a	1	CELERY	266	n/a	n/a	0	n/a	n/a	n/a	n/a	n/a
2843078	FFR_REC_WORD	wordpools/wasnorm_wordpool.txt	LTP122	ltpFR	17	n/a	0	SLIDE	1326	n/a	n/a	1	n/a	n/a	n/a	n/a	n/a
2843861	FFR_REC_WORD	wordpools/wasnorm_wordpool.txt	LTP122	ltpFR	17	n/a	0	SINK	1309	n/a	n/a	0	n/a	n/a	n/a	n/a	n/a
2865639	FFR_REC_WORD	wordpools/wasnorm_wordpool.txt	LTP122	ltpFR	17	n/a	0	SCALPEL	1243	n/a	n/a	0	n/a	n/a	n/a	n/a	n/a
2866555	FFR_REC_WORD	wordpools/wasnorm_wordpool.txt	LTP122	ltpFR	17	n/a	0	DAGGER	434	n/a	n/a	0	n/a	n/a	n/a	n/a	n/a
2867373	FFR_REC_WORD	wordpools/wasnorm_wordpool.txt	LTP122	ltpFR	17	n/a	0	ROCK	1201	n/a	n/a	0	n/a	n/a	n/a	n/a	n/a
2868161	FFR_REC_WORD	wordpools/wasnorm_wordpool.txt	LTP122	ltpFR	17	n/a	1	ORGAN	984	n/a	n/a	0	n/a	n/a	n/a	n/a	n/a
2868795	FFR_REC_WORD	wordpools/wasnorm_wordpool.txt	LTP122	ltpFR	17	n/a	0	AFRICA	9	n/a	n/a	1	n/a	n/a	n/a	n/a	n/a
2869518	FFR_REC_WORD	wordpools/wasnorm_wordpool.txt	LTP122	ltpFR	17	n/a	1	BANDANNA	80	n/a	n/a	0	n/a	n/a	n/a	n/a	n/a
2870985	FFR_REC_WORD	wordpools/wasnorm_wordpool.txt	LTP122	ltpFR	17	n/a	1	SHELL	1281	n/a	n/a	0	n/a	n/a	n/a	n/a	n/a
2871803	FFR_REC_WORD	wordpools/wasnorm_wordpool.txt	LTP122	ltpFR	17	n/a	1	ZOO	1637	n/a	n/a	0	n/a	n/a	n/a	n/a	n/a
2874008	FFR_REC_WORD	wordpools/wasnorm_wordpool.txt	LTP122	ltpFR	17	n/a	1	BRAIN	165	n/a	n/a	0	n/a	n/a	n/a	n/a	n/a
2875365	FFR_REC_WORD	wordpools/wasnorm_wordpool.txt	LTP122	ltpFR	17	n/a	0	PRODUCER	1129	n/a	n/a	1	n/a	n/a	n/a	n/a	n/a
2876412	FFR_REC_WORD	wordpools/wasnorm_wordpool.txt	LTP122	ltpFR	17	n/a	0	RICE	1190	n/a	n/a	0	n/a	n/a	n/a	n/a	n/a
2877285	FFR_REC_WORD	wordpools/wasnorm_wordpool.txt	LTP122	ltpFR	17	n/a	0	SQUID	1361	n/a	n/a	1	n/a	n/a	n/a	n/a	n/a
2879750	FFR_REC_WORD	wordpools/wasnorm_wordpool.txt	LTP122	ltpFR	17	n/a	0	TUNA	1518	n/a	n/a	1	n/a	n/a	n/a	n/a	n/a
2880832	FFR_REC_WORD	wordpools/wasnorm_wordpool.txt	LTP122	ltpFR	17	n/a	1	RESTAURANT	1187	n/a	n/a	0	n/a	n/a	n/a	n/a	n/a
2915992	FFR_REC_WORD	wordpools/wasnorm_wordpool.txt	LTP122	ltpFR	17	n/a	0	PEN	1041	n/a	n/a	0	n/a	n/a	n/a	n/a	n/a
2924932	FFR_REC_WORD	wordpools/wasnorm_wordpool.txt	LTP122	ltpFR	17	n/a	0	MAGICIAN	854	n/a	n/a	1	n/a	n/a	n/a	n/a	n/a
2926264	FFR_REC_WORD	wordpools/wasnorm_wordpool.txt	LTP122	ltpFR	17	n/a	0	DIAPER	459	n/a	n/a	0	n/a	n/a	n/a	n/a	n/a
2926927	FFR_REC_WORD	wordpools/wasnorm_wordpool.txt	LTP122	ltpFR	17	n/a	0	TAPE	1433	n/a	n/a	0	n/a	n/a	n/a	n/a	n/a
2927716	FFR_REC_WORD	wordpools/wasnorm_wordpool.txt	LTP122	ltpFR	17	n/a	0	CARRIAGE	248	n/a	n/a	1	n/a	n/a	n/a	n/a	n/a
2930554	FFR_REC_WORD	wordpools/wasnorm_wordpool.txt	LTP122	ltpFR	17	n/a	0	WITCH	1617	n/a	n/a	1	n/a	n/a	n/a	n/a	n/a
2931477	FFR_REC_WORD	wordpools/wasnorm_wordpool.txt	LTP122	ltpFR	17	n/a	0	ALMANAC	17	n/a	n/a	0	n/a	n/a	n/a	n/a	n/a
2932619	FFR_REC_WORD	wordpools/wasnorm_wordpool.txt	LTP122	ltpFR	17	n/a	0	FUNERAL	613	n/a	n/a	1	n/a	n/a	n/a	n/a	n/a
2934271	FFR_REC_WORD	wordpools/wasnorm_wordpool.txt	LTP122	ltpFR	17	n/a	0	ROOM	1206	n/a	n/a	1	n/a	n/a	n/a	n/a	n/a
2935119	FFR_REC_WORD	wordpools/wasnorm_wordpool.txt	LTP122	ltpFR	17	n/a	0	BUILDER	190	n/a	n/a	1	n/a	n/a	n/a	n/a	n/a
2936700	FFR_REC_WORD	wordpools/wasnorm_wordpool.txt	LTP122	ltpFR	17	n/a	0	CIRCUS	311	n/a	n/a	1	n/a	n/a	n/a	n/a	n/a
2939239	FFR_REC_WORD	wordpools/wasnorm_wordpool.txt	LTP122	ltpFR	17	n/a	-1	CARNIVAL	245	n/a	n/a	-1	n/a	n/a	n/a	n/a	n/a
2940357	FFR_REC_WORD	wordpools/wasnorm_wordpool.txt	LTP122	ltpFR	17	n/a	0	PIANO	1057	n/a	n/a	1	n/a	n/a	n/a	n/a	n/a
2941509	FFR_REC_WORD	wordpools/wasnorm_wordpool.txt	LTP122	ltpFR	17	n/a	-1	DILL	465	n/a	n/a	-1	n/a	n/a	n/a	n/a	n/a
2942113	FFR_REC_WORD	wordpools/wasnorm_wordpool.txt	LTP122	ltpFR	17	n/a	-1	EGYPT	519	n/a	n/a	-1	n/a	n/a	n/a	n/a	n/a
2942772	FFR_REC_WORD	wordpools/wasnorm_wordpool.txt	LTP122	ltpFR	17	n/a	-1	HAT	690	n/a	n/a	-1	n/a	n/a	n/a	n/a	n/a
2945849	FFR_REC_WORD	wordpools/wasnorm_wordpool.txt	LTP122	ltpFR	17	n/a	-1	PAW	1029	n/a	n/a	-1	n/a	n/a	n/a	n/a	n/a
2946293	FFR_REC_WORD	wordpools/wasnorm_wordpool.txt	LTP122	ltpFR	17	n/a	-1	COYOTE	396	n/a	n/a	-1	n/a	n/a	n/a	n/a	n/a
2948698	FFR_REC_WORD	wordpools/wasnorm_wordpool.txt	LTP122	ltpFR	17	n/a	-1	CLERK	321	n/a	n/a	-1	n/a	n/a	n/a	n/a	n/a
2950159	FFR_REC_WORD	wordpools/wasnorm_wordpool.txt	LTP122	ltpFR	17	n/a	-1	STAPLER	1372	n/a	n/a	-1	n/a	n/a	n/a	n/a	n/a
2950997	FFR_REC_WORD	wordpools/wasnorm_wordpool.txt	LTP122	ltpFR	17	n/a	-1	SHIRT	1287	n/a	n/a	-1	n/a	n/a	n/a	n/a	n/a
2952030	FFR_REC_WORD	wordpools/wasnorm_wordpool.txt	LTP122	ltpFR	17	n/a	-1	NECK	939	n/a	n/a	-1	n/a	n/a	n/a	n/a	n/a
2952853	FFR_REC_WORD	wordpools/wasnorm_wordpool.txt	LTP122	ltpFR	17	n/a	-1	MUMMY	932	n/a	n/a	-1	n/a	n/a	n/a	n/a	n/a
2954788	FFR_REC_WORD	wordpools/wasnorm_wordpool.txt	LTP122	ltpFR	17	n/a	-1	FATHER	554	n/a	n/a	-1	n/a	n/a	n/a	n/a	n/a
2956086	FFR_REC_WORD	wordpools/wasnorm_wordpool.txt	LTP122	ltpFR	17	n/a	-1	DENIM	446	n/a	n/a	-1	n/a	n/a	n/a	n/a	n/a
3020096	FFR_REC_WORD	wordpools/wasnorm_wordpool.txt	LTP122	ltpFR	17	n/a	1	HAM	678	n/a	n/a	0	n/a	n/a	n/a	n/a	n/a
3020954	FFR_REC_WORD	wordpools/wasnorm_wordpool.txt	LTP122	ltpFR	17	n/a	1	CITRUS	313	n/a	n/a	0	n/a	n/a	n/a	n/a	n/a
3021887	FFR_REC_WORD	wordpools/wasnorm_wordpool.txt	LTP122	ltpFR	17	n/a	1	RAISIN	1163	n/a	n/a	0	n/a	n/a	n/a	n/a	n/a
3023218	FFR_REC_WORD	wordpools/wasnorm_wordpool.txt	LTP122	ltpFR	17	n/a	1	COCOON	339	n/a	n/a	0	n/a	n/a	n/a	n/a	n/a
3023795	FFR_REC_WORD	wordpools/wasnorm_wordpool.txt	LTP122	ltpFR	17	n/a	1	HUMAN	726	n/a	n/a	1	n/a	n/a	n/a	n/a	n/a
3024466	FFR_REC_WORD	wordpools/wasnorm_wordpool.txt	LTP122	ltpFR	17	n/a	1	BUTTERFLY	206	n/a	n/a	1	n/a	n/a	n/a	n/a	n/a
3025184	FFR_REC_WORD	wordpools/wasnorm_wordpool.txt	LTP122	ltpFR	17	n/a	1	OX	994	n/a	n/a	1	n/a	n/a	n/a	n/a	n/a
3025683	FFR_REC_WORD	wordpools/wasnorm_wordpool.txt	LTP122	ltpFR	17	n/a	1	VIDEO	1564	n/a	n/a	0	n/a	n/a	n/a	n/a	n/a
3026302	FFR_REC_WORD	wordpools/wasnorm_wordpool.txt	LTP122	ltpFR	17	n/a	1	ZEBRA	1635	n/a	n/a	1	n/a	n/a	n/a	n/a	n/a
3027549	FFR_REC_WORD	wordpools/wasnorm_wordpool.txt	LTP122	ltpFR	17	n/a	1	WARRIOR	1589	n/a	n/a	1	n/a	n/a	n/a	n/a	n/a
3028187	FFR_REC_WORD	wordpools/wasnorm_wordpool.txt	LTP122	ltpFR	17	n/a	1	SWIMMER	1420	n/a	n/a	1	n/a	n/a	n/a	n/a	n/a
3028783	FFR_REC_WORD	wordpools/wasnorm_wordpool.txt	LTP122	ltpFR	17	n/a	1	SEAL	1262	n/a	n/a	1	n/a	n/a	n/a	n/a	n/a
3030702	FFR_REC_WORD	wordpools/wasnorm_wordpool.txt	LTP122	ltpFR	17	n/a	1	FORT	595	n/a	n/a	0	n/a	n/a	n/a	n/a	n/a
3031335	FFR_REC_WORD	wordpools/wasnorm_wordpool.txt	LTP122	ltpFR	17	n/a	1	APARTMENT	30	n/a	n/a	1	n/a	n/a	n/a	n/a	n/a
3053555	REC_START	n/a	LTP122	ltpFR	17	1	n/a	n/a	n/a	n/a	n/a	n/a	n/a	n/a	n/a	n/a	n/a
3053587	RECOG_TARGET	n/a	LTP122	ltpFR	17	1	-1	EGYPT	519	1	5	-1	n/a	n/a	n/a	n/a	n/a
3054403	RECOG_RESP	n/a	LTP122	ltpFR	17	1	-1	EGYPT	519	1	n/a	-1	n/a	n/a	n/a	n/a	n/a
3055176	RECOG_CONF	n/a	LTP122	ltpFR	17	1	-1	EGYPT	519	n/a	5	-1	n/a	n/a	n/a	n/a	n/a
3056869	RECOG_TARGET	n/a	LTP122	ltpFR	17	1	0	PAVEMENT	1028	1	5	1	n/a	n/a	n/a	n/a	n/a
3057481	RECOG_RESP	n/a	LTP122	ltpFR	17	1	0	PAVEMENT	1028	1	n/a	1	n/a	n/a	n/a	n/a	n/a
3058309	RECOG_CONF	n/a	LTP122	ltpFR	17	1	0	PAVEMENT	1028	n/a	5	1	n/a	n/a	n/a	n/a	n/a
3059752	RECOG_TARGET	n/a	LTP122	ltpFR	17	1	-1	NUCLEUS	961	1	5	-1	n/a	n/a	n/a	n/a	n/a
3060714	RECOG_RESP	n/a	LTP122	ltpFR	17	1	-1	NUCLEUS	961	1	n/a	-1	n/a	n/a	n/a	n/a	n/a
3061572	RECOG_CONF	n/a	LTP122	ltpFR	17	1	-1	NUCLEUS	961	n/a	5	-1	n/a	n/a	n/a	n/a	n/a
3063017	RECOG_TARGET	n/a	LTP122	ltpFR	17	1	0	ORCHESTRA	981	1	5	1	n/a	n/a	n/a	n/a	n/a
3063702	RECOG_RESP	n/a	LTP122	ltpFR	17	1	0	ORCHESTRA	981	1	n/a	1	n/a	n/a	n/a	n/a	n/a
3064485	RECOG_CONF	n/a	LTP122	ltpFR	17	1	0	ORCHESTRA	981	n/a	5	1	n/a	n/a	n/a	n/a	n/a
3065924	RECOG_TARGET	n/a	LTP122	ltpFR	17	1	1	CANE	231	1	5	1	n/a	n/a	n/a	n/a	n/a
3066530	RECOG_RESP	n/a	LTP122	ltpFR	17	1	1	CANE	231	1	n/a	1	n/a	n/a	n/a	n/a	n/a
3067299	RECOG_CONF	n/a	LTP122	ltpFR	17	1	1	CANE	231	n/a	5	1	n/a	n/a	n/a	n/a	n/a
3068690	RECOG_LURE	n/a	LTP122	ltpFR	17	1	n/a	DUSTPAN	509	0	5	n/a	n/a	n/a	n/a	n/a	n/a
3069364	RECOG_RESP	n/a	LTP122	ltpFR	17	1	n/a	DUSTPAN	509	0	n/a	n/a	n/a	n/a	n/a	n/a	n/a
3070042	RECOG_CONF	n/a	LTP122	ltpFR	17	1	n/a	DUSTPAN	509	n/a	5	n/a	n/a	n/a	n/a	n/a	n/a
3071589	RECOG_LURE	n/a	LTP122	ltpFR	17	1	n/a	DENTIST	447	0	5	n/a	n/a	n/a	n/a	n/a	n/a
3072227	RECOG_RESP	n/a	LTP122	ltpFR	17	1	n/a	DENTIST	447	0	n/a	n/a	n/a	n/a	n/a	n/a	n/a
3072916	RECOG_CONF	n/a	LTP122	ltpFR	17	1	n/a	DENTIST	447	n/a	5	n/a	n/a	n/a	n/a	n/a	n/a
3074513	RECOG_TARGET	n/a	LTP122	ltpFR	17	1	1	VEIN	1554	1	5	1	n/a	n/a	n/a	n/a	n/a
3075176	RECOG_RESP	n/a	LTP122	ltpFR	17	1	1	VEIN	1554	1	n/a	1	n/a	n/a	n/a	n/a	n/a
3075979	RECOG_CONF	n/a	LTP122	ltpFR	17	1	1	VEIN	1554	n/a	5	1	n/a	n/a	n/a	n/a	n/a
3077429	RECOG_TARGET	n/a	LTP122	ltpFR	17	1	0	COURSE	390	1	5	1	n/a	n/a	n/a	n/a	n/a
3078284	RECOG_RESP	n/a	LTP122	ltpFR	17	1	0	COURSE	390	1	n/a	1	n/a	n/a	n/a	n/a	n/a
3079042	RECOG_CONF	n/a	LTP122	ltpFR	17	1	0	COURSE	390	n/a	5	1	n/a	n/a	n/a	n/a	n/a
3080486	RECOG_TARGET	n/a	LTP122	ltpFR	17	1	1	COCOON	339	1	5	0	n/a	n/a	n/a	n/a	n/a
3081022	RECOG_RESP	n/a	LTP122	ltpFR	17	1	1	COCOON	339	1	n/a	0	n/a	n/a	n/a	n/a	n/a
3081676	RECOG_CONF	n/a	LTP122	ltpFR	17	1	1	COCOON	339	n/a	5	0	n/a	n/a	n/a	n/a	n/a
3083243	RECOG_TARGET	n/a	LTP122	ltpFR	17	1	-1	HEATER	698	1	5	-1	n/a	n/a	n/a	n/a	n/a
3084110	RECOG_RESP	n/a	LTP122	ltpFR	17	1	-1	HEATER	698	1	n/a	-1	n/a	n/a	n/a	n/a	n/a
3084919	RECOG_CONF	n/a	LTP122	ltpFR	17	1	-1	HEATER	698	n/a	5	-1	n/a	n/a	n/a	n/a	n/a
3086359	RECOG_TARGET	n/a	LTP122	ltpFR	17	1	-1	JAPAN	749	1	5	-1	n/a	n/a	n/a	n/a	n/a
3086929	RECOG_RESP	n/a	LTP122	ltpFR	17	1	-1	JAPAN	749	1	n/a	-1	n/a	n/a	n/a	n/a	n/a
3087632	RECOG_CONF	n/a	LTP122	ltpFR	17	1	-1	JAPAN	749	n/a	5	-1	n/a	n/a	n/a	n/a	n/a
3089216	RECOG_TARGET	n/a	LTP122	ltpFR	17	1	0	PELICAN	1039	1	5	1	n/a	n/a	n/a	n/a	n/a
3089777	RECOG_RESP	n/a	LTP122	ltpFR	17	1	0	PELICAN	1039	1	n/a	1	n/a	n/a	n/a	n/a	n/a
3090476	RECOG_CONF	n/a	LTP122	ltpFR	17	1	0	PELICAN	1039	n/a	5	1	n/a	n/a	n/a	n/a	n/a
3092165	RECOG_TARGET	n/a	LTP122	ltpFR	17	1	0	CUB	419	1	5	1	n/a	n/a	n/a	n/a	n/a
3092706	RECOG_RESP	n/a	LTP122	ltpFR	17	1	0	CUB	419	1	n/a	1	n/a	n/a	n/a	n/a	n/a
3093479	RECOG_CONF	n/a	LTP122	ltpFR	17	1	0	CUB	419	n/a	5	1	n/a	n/a	n/a	n/a	n/a
3094922	RECOG_TARGET	n/a	LTP122	ltpFR	17	1	1	RAISIN	1163	1	5	0	n/a	n/a	n/a	n/a	n/a
3095489	RECOG_RESP	n/a	LTP122	ltpFR	17	1	1	RAISIN	1163	1	n/a	0	n/a	n/a	n/a	n/a	n/a
3096233	RECOG_CONF	n/a	LTP122	ltpFR	17	1	1	RAISIN	1163	n/a	5	0	n/a	n/a	n/a	n/a	n/a
3097655	RECOG_LURE	n/a	LTP122	ltpFR	17	1	n/a	YARN	1631	0	5	n/a	n/a	n/a	n/a	n/a	n/a
3098887	RECOG_RESP	n/a	LTP122	ltpFR	17	1	n/a	YARN	1631	0	n/a	n/a	n/a	n/a	n/a	n/a	n/a
3099555	RECOG_CONF	n/a	LTP122	ltpFR	17	1	n/a	YARN	1631	n/a	5	n/a	n/a	n/a	n/a	n/a	n/a
3101104	RECOG_LURE	n/a	LTP122	ltpFR	17	1	n/a	QUILL	1150	0	5	n/a	n/a	n/a	n/a	n/a	n/a
3102139	RECOG_RESP	n/a	LTP122	ltpFR	17	1	n/a	QUILL	1150	0	n/a	n/a	n/a	n/a	n/a	n/a	n/a
3102928	RECOG_CONF	n/a	LTP122	ltpFR	17	1	n/a	QUILL	1150	n/a	5	n/a	n/a	n/a	n/a	n/a	n/a
3104428	RECOG_TARGET	n/a	LTP122	ltpFR	17	1	0	BUILDER	190	1	5	1	n/a	n/a	n/a	n/a	n/a
3105083	RECOG_RESP	n/a	LTP122	ltpFR	17	1	0	BUILDER	190	1	n/a	1	n/a	n/a	n/a	n/a	n/a
3106549	RECOG_CONF	n/a	LTP122	ltpFR	17	1	0	BUILDER	190	n/a	5	1	n/a	n/a	n/a	n/a	n/a
3107992	RECOG_TARGET	n/a	LTP122	ltpFR	17	1	1	STRAWBERRY	1391	1	5	0	n/a	n/a	n/a	n/a	n/a
3108555	RECOG_RESP	n/a	LTP122	ltpFR	17	1	1	STRAWBERRY	1391	1	n/a	0	n/a	n/a	n/a	n/a	n/a
3109343	RECOG_CONF	n/a	LTP122	ltpFR	17	1	1	STRAWBERRY	1391	n/a	5	0	n/a	n/a	n/a	n/a	n/a
3110767	RECOG_TARGET	n/a	LTP122	ltpFR	17	1	1	CITRUS	313	1	5	0	n/a	n/a	n/a	n/a	n/a
3111314	RECOG_RESP	n/a	LTP122	ltpFR	17	1	1	CITRUS	313	1	n/a	0	n/a	n/a	n/a	n/a	n/a
3112057	RECOG_CONF	n/a	LTP122	ltpFR	17	1	1	CITRUS	313	n/a	5	0	n/a	n/a	n/a	n/a	n/a
3115075	REC_START	n/a	LTP122	ltpFR	17	2	n/a	n/a	n/a	n/a	n/a	n/a	n/a	n/a	n/a	n/a	n/a
3115107	RECOG_TARGET	n/a	LTP122	ltpFR	17	2	0	PAINTER	1004	1	5	1	n/a	n/a	n/a	n/a	n/a
3116736	RECOG_RESP	n/a	LTP122	ltpFR	17	2	0	PAINTER	1004	1	n/a	1	n/a	n/a	n/a	n/a	n/a
3117474	RECOG_CONF	n/a	LTP122	ltpFR	17	2	0	PAINTER	1004	n/a	5	1	n/a	n/a	n/a	n/a	n/a
3118913	RECOG_TARGET	n/a	LTP122	ltpFR	17	2	1	CELLO	268	1	4	1	n/a	n/a	n/a	n/a	n/a
3122204	RECOG_RESP	n/a	LTP122	ltpFR	17	2	1	CELLO	268	1	n/a	1	n/a	n/a	n/a	n/a	n/a
3122922	RECOG_CONF	n/a	LTP122	ltpFR	17	2	1	CELLO	268	n/a	4	1	n/a	n/a	n/a	n/a	n/a
3124471	RECOG_TARGET	n/a	LTP122	ltpFR	17	2	1	RAM	1165	1	5	1	n/a	n/a	n/a	n/a	n/a
3125092	RECOG_RESP	n/a	LTP122	ltpFR	17	2	1	RAM	1165	1	n/a	1	n/a	n/a	n/a	n/a	n/a
3125895	RECOG_CONF	n/a	LTP122	ltpFR	17	2	1	RAM	1165	n/a	5	1	n/a	n/a	n/a	n/a	n/a
3127420	RECOG_TARGET	n/a	LTP122	ltpFR	17	2	0	BOOTH	151	1	5	1	n/a	n/a	n/a	n/a	n/a
3128155	RECOG_RESP	n/a	LTP122	ltpFR	17	2	0	BOOTH	151	1	n/a	1	n/a	n/a	n/a	n/a	n/a
3128928	RECOG_CONF	n/a	LTP122	ltpFR	17	2	0	BOOTH	151	n/a	5	1	n/a	n/a	n/a	n/a	n/a
3130360	RECOG_TARGET	n/a	LTP122	ltpFR	17	2	-1	HIKER	708	1	5	-1	n/a	n/a	n/a	n/a	n/a
3130989	RECOG_RESP	n/a	LTP122	ltpFR	17	2	-1	HIKER	708	1	n/a	-1	n/a	n/a	n/a	n/a	n/a
3131832	RECOG_CONF	n/a	LTP122	ltpFR	17	2	-1	HIKER	708	n/a	5	-1	n/a	n/a	n/a	n/a	n/a
3133351	RECOG_TARGET	n/a	LTP122	ltpFR	17	2	1	JUG	762	1	5	0	n/a	n/a	n/a	n/a	n/a
3134007	RECOG_RESP	n/a	LTP122	ltpFR	17	2	1	JUG	762	1	n/a	0	n/a	n/a	n/a	n/a	n/a
3134775	RECOG_CONF	n/a	LTP122	ltpFR	17	2	1	JUG	762	n/a	5	0	n/a	n/a	n/a	n/a	n/a
3136291	RECOG_TARGET	n/a	LTP122	ltpFR	17	2	0	TUNA	1518	1	5	1	n/a	n/a	n/a	n/a	n/a
3136940	RECOG_RESP	n/a	LTP122	ltpFR	17	2	0	TUNA	1518	1	n/a	1	n/a	n/a	n/a	n/a	n/a
3137808	RECOG_CONF	n/a	LTP122	ltpFR	17	2	0	TUNA	1518	n/a	5	1	n/a	n/a	n/a	n/a	n/a
3139265	RECOG_TARGET	n/a	LTP122	ltpFR	17	2	0	DAGGER	434	1	5	0	n/a	n/a	n/a	n/a	n/a
3139858	RECOG_RESP	n/a	LTP122	ltpFR	17	2	0	DAGGER	434	1	n/a	0	n/a	n/a	n/a	n/a	n/a
3140622	RECOG_CONF	n/a	LTP122	ltpFR	17	2	0	DAGGER	434	n/a	5	0	n/a	n/a	n/a	n/a	n/a
3142181	RECOG_TARGET	n/a	LTP122	ltpFR	17	2	1	MOAT	903	1	5	1	n/a	n/a	n/a	n/a	n/a
3142812	RECOG_RESP	n/a	LTP122	ltpFR	17	2	1	MOAT	903	1	n/a	1	n/a	n/a	n/a	n/a	n/a
3143605	RECOG_CONF	n/a	LTP122	ltpFR	17	2	1	MOAT	903	n/a	5	1	n/a	n/a	n/a	n/a	n/a
3145038	RECOG_LURE	n/a	LTP122	ltpFR	17	2	n/a	BONE	148	0	4	n/a	n/a	n/a	n/a	n/a	n/a
3147775	RECOG_RESP	n/a	LTP122	ltpFR	17	2	n/a	BONE	148	0	n/a	n/a	n/a	n/a	n/a	n/a	n/a
3148524	RECOG_CONF	n/a	LTP122	ltpFR	17	2	n/a	BONE	148	n/a	4	n/a	n/a	n/a	n/a	n/a	n/a
3150078	RECOG_TARGET	n/a	LTP122	ltpFR	17	2	0	JUVENILE	767	1	5	0	n/a	n/a	n/a	n/a	n/a
3150644	RECOG_RESP	n/a	LTP122	ltpFR	17	2	0	JUVENILE	767	1	n/a	0	n/a	n/a	n/a	n/a	n/a
3151347	RECOG_CONF	n/a	LTP122	ltpFR	17	2	0	JUVENILE	767	n/a	5	0	n/a	n/a	n/a	n/a	n/a
3152786	RECOG_TARGET	n/a	LTP122	ltpFR	17	2	1	STRANGER	1389	1	5	1	n/a	n/a	n/a	n/a	n/a
3153453	RECOG_RESP	n/a	LTP122	ltpFR	17	2	1	STRANGER	1389	1	n/a	1	n/a	n/a	n/a	n/a	n/a
3154231	RECOG_CONF	n/a	LTP122	ltpFR	17	2	1	STRANGER	1389	n/a	5	1	n/a	n/a	n/a	n/a	n/a
3155751	RECOG_TARGET	n/a	LTP122	ltpFR	17	2	0	DIAPER	459	1	5	0	n/a	n/a	n/a	n/a	n/a
3156331	RECOG_RESP	n/a	LTP122	ltpFR	17	2	0	DIAPER	459	1	n/a	0	n/a	n/a	n/a	n/a	n/a
3157104	RECOG_CONF	n/a	LTP122	ltpFR	17	2	0	DIAPER	459	n/a	5	0	n/a	n/a	n/a	n/a	n/a
3158575	RECOG_TARGET	n/a	LTP122	ltpFR	17	2	1	CREATURE	403	1	5	1	n/a	n/a	n/a	n/a	n/a
3159170	RECOG_RESP	n/a	LTP122	ltpFR	17	2	1	CREATURE	403	1	n/a	1	n/a	n/a	n/a	n/a	n/a
3159948	RECOG_CONF	n/a	LTP122	ltpFR	17	2	1	CREATURE	403	n/a	5	1	n/a	n/a	n/a	n/a	n/a
3161432	RECOG_TARGET	n/a	LTP122	ltpFR	17	2	-1	BULL	193	1	5	-1	n/a	n/a	n/a	n/a	n/a
3162253	RECOG_RESP	n/a	LTP122	ltpFR	17	2	-1	BULL	193	1	n/a	-1	n/a	n/a	n/a	n/a	n/a
3163101	RECOG_CONF	n/a	LTP122	ltpFR	17	2	-1	BULL	193	n/a	5	-1	n/a	n/a	n/a	n/a	n/a
3164656	RECOG_TARGET	n/a	LTP122	ltpFR	17	2	1	PERCH	1048	1	5	0	n/a	n/a	n/a	n/a	n/a
3165291	RECOG_RESP	n/a	LTP122	ltpFR	17	2	1	PERCH	1048	1	n/a	0	n/a	n/a	n/a	n/a	n/a
3166144	RECOG_CONF	n/a	LTP122	ltpFR	17	2	1	PERCH	1048	n/a	5	0	n/a	n/a	n/a	n/a	n/a
3167630	RECOG_TARGET	n/a	LTP122	ltpFR	17	2	-1	MICROWAVE	892	1	5	-1	n/a	n/a	n/a	n/a	n/a
3168259	RECOG_RESP	n/a	LTP122	ltpFR	17	2	-1	MICROWAVE	892	1	n/a	-1	n/a	n/a	n/a	n/a	n/a
3169017	RECOG_CONF	n/a	LTP122	ltpFR	17	2	-1	MICROWAVE	892	n/a	5	-1	n/a	n/a	n/a	n/a	n/a
3170504	RECOG_TARGET	n/a	LTP122	ltpFR	17	2	1	SHARK	1275	1	5	1	n/a	n/a	n/a	n/a	n/a
3171023	RECOG_RESP	n/a	LTP122	ltpFR	17	2	1	SHARK	1275	1	n/a	1	n/a	n/a	n/a	n/a	n/a
3171801	RECOG_CONF	n/a	LTP122	ltpFR	17	2	1	SHARK	1275	n/a	5	1	n/a	n/a	n/a	n/a	n/a
3173262	RECOG_TARGET	n/a	LTP122	ltpFR	17	2	-1	CLASS	318	1	5	-1	n/a	n/a	n/a	n/a	n/a
3174036	RECOG_RESP	n/a	LTP122	ltpFR	17	2	-1	CLASS	318	1	n/a	-1	n/a	n/a	n/a	n/a	n/a
3174844	RECOG_CONF	n/a	LTP122	ltpFR	17	2	-1	CLASS	318	n/a	5	-1	n/a	n/a	n/a	n/a	n/a
3176369	RECOG_TARGET	n/a	LTP122	ltpFR	17	2	1	DUMP	505	1	5	0	n/a	n/a	n/a	n/a	n/a
3176989	RECOG_RESP	n/a	LTP122	ltpFR	17	2	1	DUMP	505	1	n/a	0	n/a	n/a	n/a	n/a	n/a
3177747	RECOG_CONF	n/a	LTP122	ltpFR	17	2	1	DUMP	505	n/a	5	0	n/a	n/a	n/a	n/a	n/a
3180792	REC_START	n/a	LTP122	ltpFR	17	3	n/a	n/a	n/a	n/a	n/a	n/a	n/a	n/a	n/a	n/a	n/a
3180826	RECOG_TARGET	n/a	LTP122	ltpFR	17	3	-1	CARROT	249	1	5	-1	n/a	n/a	n/a	n/a	n/a
3181475	RECOG_RESP	n/a	LTP122	ltpFR	17	3	-1	CARROT	249	1	n/a	-1	n/a	n/a	n/a	n/a	n/a
3182253	RECOG_CONF	n/a	LTP122	ltpFR	17	3	-1	CARROT	249	n/a	5	-1	n/a	n/a	n/a	n/a	n/a
3183658	RECOG_TARGET	n/a	LTP122	ltpFR	17	3	1	IGLOO	734	1	5	0	n/a	n/a	n/a	n/a	n/a
3184334	RECOG_RESP	n/a	LTP122	ltpFR	17	3	1	IGLOO	734	1	n/a	0	n/a	n/a	n/a	n/a	n/a
3184987	RECOG_CONF	n/a	LTP122	ltpFR	17	3	1	IGLOO	734	n/a	5	0	n/a	n/a	n/a	n/a	n/a
3186499	RECOG_TARGET	n/a	LTP122	ltpFR	17	3	1	PARENT	1013	1	5	1	n/a	n/a	n/a	n/a	n/a
3187222	RECOG_RESP	n/a	LTP122	ltpFR	17	3	1	PARENT	1013	1	n/a	1	n/a	n/a	n/a	n/a	n/a
3187971	RECOG_CONF	n/a	LTP122	ltpFR	17	3	1	PARENT	1013	n/a	5	1	n/a	n/a	n/a	n/a	n/a
3189473	RECOG_TARGET	n/a	LTP122	ltpFR	17	3	0	GUN	673	1	5	0	n/a	n/a	n/a	n/a	n/a
3190046	RECOG_RESP	n/a	LTP122	ltpFR	17	3	0	GUN	673	1	n/a	0	n/a	n/a	n/a	n/a	n/a
3190854	RECOG_CONF	n/a	LTP122	ltpFR	17	3	0	GUN	673	n/a	5	0	n/a	n/a	n/a	n/a	n/a
3192338	RECOG_TARGET	n/a	LTP122	ltpFR	17	3	0	MULE	931	1	5	1	n/a	n/a	n/a	n/a	n/a
3192934	RECOG_RESP	n/a	LTP122	ltpFR	17	3	0	MULE	931	1	n/a	1	n/a	n/a	n/a	n/a	n/a
3193947	RECOG_CONF	n/a	LTP122	ltpFR	17	3	0	MULE	931	n/a	5	1	n/a	n/a	n/a	n/a	n/a
3195479	RECOG_TARGET	n/a	LTP122	ltpFR	17	3	-1	RATTLE	1170	1	5	-1	n/a	n/a	n/a	n/a	n/a
3196072	RECOG_RESP	n/a	LTP122	ltpFR	17	3	-1	RATTLE	1170	1	n/a	-1	n/a	n/a	n/a	n/a	n/a
3196810	RECOG_CONF	n/a	LTP122	ltpFR	17	3	-1	RATTLE	1170	n/a	5	-1	n/a	n/a	n/a	n/a	n/a
3198219	RECOG_TARGET	n/a	LTP122	ltpFR	17	3	0	OATMEAL	967	1	5	0	n/a	n/a	n/a	n/a	n/a
3198851	RECOG_RESP	n/a	LTP122	ltpFR	17	3	0	OATMEAL	967	1	n/a	0	n/a	n/a	n/a	n/a	n/a
3199624	RECOG_CONF	n/a	LTP122	ltpFR	17	3	0	OATMEAL	967	n/a	5	0	n/a	n/a	n/a	n/a	n/a
3201110	RECOG_TARGET	n/a	LTP122	ltpFR	17	3	1	BEETLE	116	1	5	0	n/a	n/a	n/a	n/a	n/a
3201704	RECOG_RESP	n/a	LTP122	ltpFR	17	3	1	BEETLE	116	1	n/a	0	n/a	n/a	n/a	n/a	n/a
3202388	RECOG_CONF	n/a	LTP122	ltpFR	17	3	1	BEETLE	116	n/a	5	0	n/a	n/a	n/a	n/a	n/a
3203933	RECOG_TARGET	n/a	LTP122	ltpFR	17	3	1	APPLE	33	1	1	1	n/a	n/a	n/a	n/a	n/a
3208354	RECOG_RESP	n/a	LTP122	ltpFR	17	3	1	APPLE	33	1	n/a	1	n/a	n/a	n/a	n/a	n/a
3209092	RECOG_CONF	n/a	LTP122	ltpFR	17	3	1	APPLE	33	n/a	1	1	n/a	n/a	n/a	n/a	n/a
3210557	RECOG_LURE	n/a	LTP122	ltpFR	17	3	n/a	GROCERIES	663	0	5	n/a	n/a	n/a	n/a	n/a	n/a
3211392	RECOG_RESP	n/a	LTP122	ltpFR	17	3	n/a	GROCERIES	663	0	n/a	n/a	n/a	n/a	n/a	n/a	n/a
3212006	RECOG_CONF	n/a	LTP122	ltpFR	17	3	n/a	GROCERIES	663	n/a	5	n/a	n/a	n/a	n/a	n/a	n/a
3213581	RECOG_TARGET	n/a	LTP122	ltpFR	17	3	-1	PAWN	1030	1	5	-1	n/a	n/a	n/a	n/a	n/a
3214181	RECOG_RESP	n/a	LTP122	ltpFR	17	3	-1	PAWN	1030	1	n/a	-1	n/a	n/a	n/a	n/a	n/a
3214959	RECOG_CONF	n/a	LTP122	ltpFR	17	3	-1	PAWN	1030	n/a	5	-1	n/a	n/a	n/a	n/a	n/a
3216446	RECOG_TARGET	n/a	LTP122	ltpFR	17	3	-1	PIKE	1067	1	5	-1	n/a	n/a	n/a	n/a	n/a
3217144	RECOG_RESP	n/a	LTP122	ltpFR	17	3	-1	PIKE	1067	1	n/a	-1	n/a	n/a	n/a	n/a	n/a
3217873	RECOG_CONF	n/a	LTP122	ltpFR	17	3	-1	PIKE	1067	n/a	5	-1	n/a	n/a	n/a	n/a	n/a
3219304	RECOG_TARGET	n/a	LTP122	ltpFR	17	3	-1	LAGOON	795	1	5	-1	n/a	n/a	n/a	n/a	n/a
3219863	RECOG_RESP	n/a	LTP122	ltpFR	17	3	-1	LAGOON	795	1	n/a	-1	n/a	n/a	n/a	n/a	n/a
3220616	RECOG_CONF	n/a	LTP122	ltpFR	17	3	-1	LAGOON	795	n/a	5	-1	n/a	n/a	n/a	n/a	n/a
3222094	RECOG_TARGET	n/a	LTP122	ltpFR	17	3	-1	FLAG	573	1	5	-1	n/a	n/a	n/a	n/a	n/a
3222791	RECOG_RESP	n/a	LTP122	ltpFR	17	3	-1	FLAG	573	1	n/a	-1	n/a	n/a	n/a	n/a	n/a
3223550	RECOG_CONF	n/a	LTP122	ltpFR	17	3	-1	FLAG	573	n/a	5	-1	n/a	n/a	n/a	n/a	n/a
3225085	RECOG_TARGET	n/a	LTP122	ltpFR	17	3	0	PEN	1041	1	5	0	n/a	n/a	n/a	n/a	n/a
3225645	RECOG_RESP	n/a	LTP122	ltpFR	17	3	0	PEN	1041	1	n/a	0	n/a	n/a	n/a	n/a	n/a
3226383	RECOG_CONF	n/a	LTP122	ltpFR	17	3	0	PEN	1041	n/a	5	0	n/a	n/a	n/a	n/a	n/a
3227900	RECOG_TARGET	n/a	LTP122	ltpFR	17	3	0	ALMANAC	17	1	5	0	n/a	n/a	n/a	n/a	n/a
3228443	RECOG_RESP	n/a	LTP122	ltpFR	17	3	0	ALMANAC	17	1	n/a	0	n/a	n/a	n/a	n/a	n/a
3229157	RECOG_CONF	n/a	LTP122	ltpFR	17	3	0	ALMANAC	17	n/a	5	0	n/a	n/a	n/a	n/a	n/a
3230783	RECOG_LURE	n/a	LTP122	ltpFR	17	3	n/a	CARD	243	0	4	n/a	n/a	n/a	n/a	n/a	n/a
3231931	RECOG_RESP	n/a	LTP122	ltpFR	17	3	n/a	CARD	243	0	n/a	n/a	n/a	n/a	n/a	n/a	n/a
3232619	RECOG_CONF	n/a	LTP122	ltpFR	17	3	n/a	CARD	243	n/a	4	n/a	n/a	n/a	n/a	n/a	n/a
3234048	RECOG_LURE	n/a	LTP122	ltpFR	17	3	n/a	WAX	1597	0	5	n/a	n/a	n/a	n/a	n/a	n/a
3234739	RECOG_RESP	n/a	LTP122	ltpFR	17	3	n/a	WAX	1597	0	n/a	n/a	n/a	n/a	n/a	n/a	n/a
3235393	RECOG_CONF	n/a	LTP122	ltpFR	17	3	n/a	WAX	1597	n/a	5	n/a	n/a	n/a	n/a	n/a	n/a
3237022	RECOG_LURE	n/a	LTP122	ltpFR	17	3	n/a	CIGAR	308	0	5	n/a	n/a	n/a	n/a	n/a	n/a
3237692	RECOG_RESP	n/a	LTP122	ltpFR	17	3	n/a	CIGAR	308	0	n/a	n/a	n/a	n/a	n/a	n/a	n/a
3238356	RECOG_CONF	n/a	LTP122	ltpFR	17	3	n/a	CIGAR	308	n/a	5	n/a	n/a	n/a	n/a	n/a	n/a
3239805	RECOG_TARGET	n/a	LTP122	ltpFR	17	3	-1	COW	393	1	5	-1	n/a	n/a	n/a	n/a	n/a
3240416	RECOG_RESP	n/a	LTP122	ltpFR	17	3	-1	COW	393	1	n/a	-1	n/a	n/a	n/a	n/a	n/a
3241210	RECOG_CONF	n/a	LTP122	ltpFR	17	3	-1	COW	393	n/a	5	-1	n/a	n/a	n/a	n/a	n/a
3244336	REC_START	n/a	LTP122	ltpFR	17	4	n/a	n/a	n/a	n/a	n/a	n/a	n/a	n/a	n/a	n/a	n/a
3244370	RECOG_TARGET	n/a	LTP122	ltpFR	17	4	0	MONUMENT	913	1	5	1	n/a	n/a	n/a	n/a	n/a
3245009	RECOG_RESP	n/a	LTP122	ltpFR	17	4	0	MONUMENT	913	1	n/a	1	n/a	n/a	n/a	n/a	n/a
3245668	RECOG_CONF	n/a	LTP122	ltpFR	17	4	0	MONUMENT	913	n/a	5	1	n/a	n/a	n/a	n/a	n/a
3247219	RECOG_TARGET	n/a	LTP122	ltpFR	17	4	1	RAFT	1159	1	5	0	n/a	n/a	n/a	n/a	n/a
3247808	RECOG_RESP	n/a	LTP122	ltpFR	17	4	1	RAFT	1159	1	n/a	0	n/a	n/a	n/a	n/a	n/a
3248591	RECOG_CONF	n/a	LTP122	ltpFR	17	4	1	RAFT	1159	n/a	5	0	n/a	n/a	n/a	n/a	n/a
3249975	RECOG_TARGET	n/a	LTP122	ltpFR	17	4	0	WALRUS	1585	1	5	1	n/a	n/a	n/a	n/a	n/a
3250552	RECOG_RESP	n/a	LTP122	ltpFR	17	4	0	WALRUS	1585	1	n/a	1	n/a	n/a	n/a	n/a	n/a
3251335	RECOG_CONF	n/a	LTP122	ltpFR	17	4	0	WALRUS	1585	n/a	5	1	n/a	n/a	n/a	n/a	n/a
3252767	RECOG_TARGET	n/a	LTP122	ltpFR	17	4	0	BLADE	134	1	1	0	n/a	n/a	n/a	n/a	n/a
3253435	RECOG_RESP	n/a	LTP122	ltpFR	17	4	0	BLADE	134	1	n/a	0	n/a	n/a	n/a	n/a	n/a
3255575	RECOG_CONF	n/a	LTP122	ltpFR	17	4	0	BLADE	134	n/a	1	0	n/a	n/a	n/a	n/a	n/a
3256981	RECOG_TARGET	n/a	LTP122	ltpFR	17	4	0	OINTMENT	974	1	5	0	n/a	n/a	n/a	n/a	n/a
3259142	RECOG_RESP	n/a	LTP122	ltpFR	17	4	0	OINTMENT	974	1	n/a	0	n/a	n/a	n/a	n/a	n/a
3259876	RECOG_CONF	n/a	LTP122	ltpFR	17	4	0	OINTMENT	974	n/a	5	0	n/a	n/a	n/a	n/a	n/a
3261455	RECOG_TARGET	n/a	LTP122	ltpFR	17	4	1	SHRUB	1299	1	3	0	n/a	n/a	n/a	n/a	n/a
3263871	RECOG_RESP	n/a	LTP122	ltpFR	17	4	1	SHRUB	1299	1	n/a	0	n/a	n/a	n/a	n/a	n/a
3264645	RECOG_CONF	n/a	LTP122	ltpFR	17	4	1	SHRUB	1299	n/a	3	0	n/a	n/a	n/a	n/a	n/a
3266079	RECOG_TARGET	n/a	LTP122	ltpFR	17	4	1	WARRIOR	1589	1	5	1	n/a	n/a	n/a	n/a	n/a
3266880	RECOG_RESP	n/a	LTP122	ltpFR	17	4	1	WARRIOR	1589	1	n/a	1	n/a	n/a	n/a	n/a	n/a
3267588	RECOG_CONF	n/a	LTP122	ltpFR	17	4	1	WARRIOR	1589	n/a	5	1	n/a	n/a	n/a	n/a	n/a
3269036	RECOG_TARGET	n/a	LTP122	ltpFR	17	4	1	BEEF	113	1	5	0	n/a	n/a	n/a	n/a	n/a
3269733	RECOG_RESP	n/a	LTP122	ltpFR	17	4	1	BEEF	113	1	n/a	0	n/a	n/a	n/a	n/a	n/a
3270432	RECOG_CONF	n/a	LTP122	ltpFR	17	4	1	BEEF	113	n/a	5	0	n/a	n/a	n/a	n/a	n/a
3271917	RECOG_LURE	n/a	LTP122	ltpFR	17	4	n/a	ARTERY	41	0	5	n/a	n/a	n/a	n/a	n/a	n/a
3272866	RECOG_RESP	n/a	LTP122	ltpFR	17	4	n/a	ARTERY	41	0	n/a	n/a	n/a	n/a	n/a	n/a	n/a
3273644	RECOG_CONF	n/a	LTP122	ltpFR	17	4	n/a	ARTERY	41	n/a	5	n/a	n/a	n/a	n/a	n/a	n/a
3275076	RECOG_TARGET	n/a	LTP122	ltpFR	17	4	1	BRAIN	165	1	5	0	n/a	n/a	n/a	n/a	n/a
3275739	RECOG_RESP	n/a	LTP122	ltpFR	17	4	1	BRAIN	165	1	n/a	0	n/a	n/a	n/a	n/a	n/a
3276498	RECOG_CONF	n/a	LTP122	ltpFR	17	4	1	BRAIN	165	n/a	5	0	n/a	n/a	n/a	n/a	n/a
3278108	RECOG_TARGET	n/a	LTP122	ltpFR	17	4	0	CHEERLEADER	288	1	5	1	n/a	n/a	n/a	n/a	n/a
3278683	RECOG_RESP	n/a	LTP122	ltpFR	17	4	0	CHEERLEADER	288	1	n/a	1	n/a	n/a	n/a	n/a	n/a
3279361	RECOG_CONF	n/a	LTP122	ltpFR	17	4	0	CHEERLEADER	288	n/a	5	1	n/a	n/a	n/a	n/a	n/a
3280807	RECOG_TARGET	n/a	LTP122	ltpFR	17	4	-1	LABEL	790	1	5	-1	n/a	n/a	n/a	n/a	n/a
3281392	RECOG_RESP	n/a	LTP122	ltpFR	17	4	-1	LABEL	790	1	n/a	-1	n/a	n/a	n/a	n/a	n/a
3282145	RECOG_CONF	n/a	LTP122	ltpFR	17	4	-1	LABEL	790	n/a	5	-1	n/a	n/a	n/a	n/a	n/a
3283523	RECOG_TARGET	n/a	LTP122	ltpFR	17	4	1	GAVEL	627	1	5	0	n/a	n/a	n/a	n/a	n/a
3284170	RECOG_RESP	n/a	LTP122	ltpFR	17	4	1	GAVEL	627	1	n/a	0	n/a	n/a	n/a	n/a	n/a
3284919	RECOG_CONF	n/a	LTP122	ltpFR	17	4	1	GAVEL	627	n/a	5	0	n/a	n/a	n/a	n/a	n/a
3286855	RECOG_TARGET	n/a	LTP122	ltpFR	17	4	-1	TEACHER	1440	1	5	-1	n/a	n/a	n/a	n/a	n/a
3289239	RECOG_RESP	n/a	LTP122	ltpFR	17	4	-1	TEACHER	1440	1	n/a	-1	n/a	n/a	n/a	n/a	n/a
3289977	RECOG_CONF	n/a	LTP122	ltpFR	17	4	-1	TEACHER	1440	n/a	5	-1	n/a	n/a	n/a	n/a	n/a
3291445	RECOG_TARGET	n/a	LTP122	ltpFR	17	4	1	KETCHUP	771	1	5	0	n/a	n/a	n/a	n/a	n/a
3292072	RECOG_RESP	n/a	LTP122	ltpFR	17	4	1	KETCHUP	771	1	n/a	0	n/a	n/a	n/a	n/a	n/a
3292791	RECOG_CONF	n/a	LTP122	ltpFR	17	4	1	KETCHUP	771	n/a	5	0	n/a	n/a	n/a	n/a	n/a
3294194	RECOG_TARGET	n/a	LTP122	ltpFR	17	4	0	STAFF	1365	1	5	1	n/a	n/a	n/a	n/a	n/a
3296303	RECOG_RESP	n/a	LTP122	ltpFR	17	4	0	STAFF	1365	1	n/a	1	n/a	n/a	n/a	n/a	n/a
3296991	RECOG_CONF	n/a	LTP122	ltpFR	17	4	0	STAFF	1365	n/a	5	1	n/a	n/a	n/a	n/a	n/a
3298501	RECOG_TARGET	n/a	LTP122	ltpFR	17	4	0	MAGICIAN	854	1	5	1	n/a	n/a	n/a	n/a	n/a
3299121	RECOG_RESP	n/a	LTP122	ltpFR	17	4	0	MAGICIAN	854	1	n/a	1	n/a	n/a	n/a	n/a	n/a
3299835	RECOG_CONF	n/a	LTP122	ltpFR	17	4	0	MAGICIAN	854	n/a	5	1	n/a	n/a	n/a	n/a	n/a
3301233	RECOG_TARGET	n/a	LTP122	ltpFR	17	4	1	BISON	131	1	4	1	n/a	n/a	n/a	n/a	n/a
3302848	RECOG_RESP	n/a	LTP122	ltpFR	17	4	1	BISON	131	1	n/a	1	n/a	n/a	n/a	n/a	n/a
3303476	RECOG_CONF	n/a	LTP122	ltpFR	17	4	1	BISON	131	n/a	4	1	n/a	n/a	n/a	n/a	n/a
3304989	RECOG_TARGET	n/a	LTP122	ltpFR	17	4	0	TRICYCLE	1506	1	5	1	n/a	n/a	n/a	n/a	n/a
3305622	RECOG_RESP	n/a	LTP122	ltpFR	17	4	0	TRICYCLE	1506	1	n/a	1	n/a	n/a	n/a	n/a	n/a
3306350	RECOG_CONF	n/a	LTP122	ltpFR	17	4	0	TRICYCLE	1506	n/a	5	1	n/a	n/a	n/a	n/a	n/a
3307831	RECOG_TARGET	n/a	LTP122	ltpFR	17	4	0	CAP	236	1	5	0	n/a	n/a	n/a	n/a	n/a
3308480	RECOG_RESP	n/a	LTP122	ltpFR	17	4	0	CAP	236	1	n/a	0	n/a	n/a	n/a	n/a	n/a
3309173	RECOG_CONF	n/a	LTP122	ltpFR	17	4	0	CAP	236	n/a	5	0	n/a	n/a	n/a	n/a	n/a
3312364	REC_START	n/a	LTP122	ltpFR	17	5	n/a	n/a	n/a	n/a	n/a	n/a	n/a	n/a	n/a	n/a	n/a
3312396	RECOG_TARGET	n/a	LTP122	ltpFR	17	5	1	LIZARD	834	1	5	1	n/a	n/a	n/a	n/a	n/a
3313017	RECOG_RESP	n/a	LTP122	ltpFR	17	5	1	LIZARD	834	1	n/a	1	n/a	n/a	n/a	n/a	n/a
3313806	RECOG_CONF	n/a	LTP122	ltpFR	17	5	1	LIZARD	834	n/a	5	1	n/a	n/a	n/a	n/a	n/a
3315328	RECOG_TARGET	n/a	LTP122	ltpFR	17	5	0	BABY	64	1	5	0	n/a	n/a	n/a	n/a	n/a
3315861	RECOG_RESP	n/a	LTP122	ltpFR	17	5	0	BABY	64	1	n/a	0	n/a	n/a	n/a	n/a	n/a
3316679	RECOG_CONF	n/a	LTP122	ltpFR	17	5	0	BABY	64	n/a	5	0	n/a	n/a	n/a	n/a	n/a
3318144	RECOG_TARGET	n/a	LTP122	ltpFR	17	5	0	WRITER	1627	1	5	1	n/a	n/a	n/a	n/a	n/a
3318874	RECOG_RESP	n/a	LTP122	ltpFR	17	5	0	WRITER	1627	1	n/a	1	n/a	n/a	n/a	n/a	n/a
3319582	RECOG_CONF	n/a	LTP122	ltpFR	17	5	0	WRITER	1627	n/a	5	1	n/a	n/a	n/a	n/a	n/a
3321059	RECOG_TARGET	n/a	LTP122	ltpFR	17	5	0	PIANO	1057	1	5	1	n/a	n/a	n/a	n/a	n/a
3321683	RECOG_RESP	n/a	LTP122	ltpFR	17	5	0	PIANO	1057	1	n/a	1	n/a	n/a	n/a	n/a	n/a
3322436	RECOG_CONF	n/a	LTP122	ltpFR	17	5	0	PIANO	1057	n/a	5	1	n/a	n/a	n/a	n/a	n/a
3323800	RECOG_TARGET	n/a	LTP122	ltpFR	17	5	1	ELECTRICIAN	521	1	5	1	n/a	n/a	n/a	n/a	n/a
3325299	RECOG_RESP	n/a	LTP122	ltpFR	17	5	1	ELECTRICIAN	521	1	n/a	1	n/a	n/a	n/a	n/a	n/a
3326018	RECOG_CONF	n/a	LTP122	ltpFR	17	5	1	ELECTRICIAN	521	n/a	5	1	n/a	n/a	n/a	n/a	n/a
3327590	RECOG_LURE	n/a	LTP122	ltpFR	17	5	n/a	BALL	73	0	4	n/a	n/a	n/a	n/a	n/a	n/a
3330647	RECOG_RESP	n/a	LTP122	ltpFR	17	5	n/a	BALL	73	0	n/a	n/a	n/a	n/a	n/a	n/a	n/a
3331525	RECOG_CONF	n/a	LTP122	ltpFR	17	5	n/a	BALL	73	n/a	4	n/a	n/a	n/a	n/a	n/a	n/a
3332937	RECOG_TARGET	n/a	LTP122	ltpFR	17	5	1	ZEBRA	1635	1	5	1	n/a	n/a	n/a	n/a	n/a
3333566	RECOG_RESP	n/a	LTP122	ltpFR	17	5	1	ZEBRA	1635	1	n/a	1	n/a	n/a	n/a	n/a	n/a
3334279	RECOG_CONF	n/a	LTP122	ltpFR	17	5	1	ZEBRA	1635	n/a	5	1	n/a	n/a	n/a	n/a	n/a
3335712	RECOG_TARGET	n/a	LTP122	ltpFR	17	5	1	DECK	443	1	5	0	n/a	n/a	n/a	n/a	n/a
3336843	RECOG_RESP	n/a	LTP122	ltpFR	17	5	1	DECK	443	1	n/a	0	n/a	n/a	n/a	n/a	n/a
3337572	RECOG_CONF	n/a	LTP122	ltpFR	17	5	1	DECK	443	n/a	5	0	n/a	n/a	n/a	n/a	n/a
3339111	RECOG_TARGET	n/a	LTP122	ltpFR	17	5	1	PORPOISE	1109	1	5	1	n/a	n/a	n/a	n/a	n/a
3339697	RECOG_RESP	n/a	LTP122	ltpFR	17	5	1	PORPOISE	1109	1	n/a	1	n/a	n/a	n/a	n/a	n/a
3340465	RECOG_CONF	n/a	LTP122	ltpFR	17	5	1	PORPOISE	1109	n/a	5	1	n/a	n/a	n/a	n/a	n/a
3341926	RECOG_LURE	n/a	LTP122	ltpFR	17	5	n/a	BLOUSE	139	0	5	n/a	n/a	n/a	n/a	n/a	n/a
3342615	RECOG_RESP	n/a	LTP122	ltpFR	17	5	n/a	BLOUSE	139	0	n/a	n/a	n/a	n/a	n/a	n/a	n/a
3343269	RECOG_CONF	n/a	LTP122	ltpFR	17	5	n/a	BLOUSE	139	n/a	5	n/a	n/a	n/a	n/a	n/a	n/a
3344925	RECOG_TARGET	n/a	LTP122	ltpFR	17	5	0	BUG	187	1	2	0	n/a	n/a	n/a	n/a	n/a
3347973	RECOG_RESP	n/a	LTP122	ltpFR	17	5	0	BUG	187	1	n/a	0	n/a	n/a	n/a	n/a	n/a
3348866	RECOG_CONF	n/a	LTP122	ltpFR	17	5	0	BUG	187	n/a	2	0	n/a	n/a	n/a	n/a	n/a
3350324	RECOG_TARGET	n/a	LTP122	ltpFR	17	5	1	COLUMN	350	1	5	0	n/a	n/a	n/a	n/a	n/a
3351071	RECOG_RESP	n/a	LTP122	ltpFR	17	5	1	COLUMN	350	1	n/a	0	n/a	n/a	n/a	n/a	n/a
3351749	RECOG_CONF	n/a	LTP122	ltpFR	17	5	1	COLUMN	350	n/a	5	0	n/a	n/a	n/a	n/a	n/a
3353290	RECOG_TARGET	n/a	LTP122	ltpFR	17	5	1	BEAN	105	1	5	0	n/a	n/a	n/a	n/a	n/a
3353835	RECOG_RESP	n/a	LTP122	ltpFR	17	5	1	BEAN	105	1	n/a	0	n/a	n/a	n/a	n/a	n/a
3354493	RECOG_CONF	n/a	LTP122	ltpFR	17	5	1	BEAN	105	n/a	5	0	n/a	n/a	n/a	n/a	n/a
3356005	RECOG_TARGET	n/a	LTP122	ltpFR	17	5	-1	ALMOND	18	1	5	-1	n/a	n/a	n/a	n/a	n/a
3356548	RECOG_RESP	n/a	LTP122	ltpFR	17	5	-1	ALMOND	18	1	n/a	-1	n/a	n/a	n/a	n/a	n/a
3357237	RECOG_CONF	n/a	LTP122	ltpFR	17	5	-1	ALMOND	18	n/a	5	-1	n/a	n/a	n/a	n/a	n/a
3358696	RECOG_TARGET	n/a	LTP122	ltpFR	17	5	-1	HOOD	714	1	5	-1	n/a	n/a	n/a	n/a	n/a
3359282	RECOG_RESP	n/a	LTP122	ltpFR	17	5	-1	HOOD	714	1	n/a	-1	n/a	n/a	n/a	n/a	n/a
3360040	RECOG_CONF	n/a	LTP122	ltpFR	17	5	-1	HOOD	714	n/a	5	-1	n/a	n/a	n/a	n/a	n/a
3361512	RECOG_TARGET	n/a	LTP122	ltpFR	17	5	1	ESSAY	540	1	5	0	n/a	n/a	n/a	n/a	n/a
3362086	RECOG_RESP	n/a	LTP122	ltpFR	17	5	1	ESSAY	540	1	n/a	0	n/a	n/a	n/a	n/a	n/a
3362814	RECOG_CONF	n/a	LTP122	ltpFR	17	5	1	ESSAY	540	n/a	5	0	n/a	n/a	n/a	n/a	n/a
3364261	RECOG_TARGET	n/a	LTP122	ltpFR	17	5	0	CYLINDER	432	1	5	0	n/a	n/a	n/a	n/a	n/a
3364874	RECOG_RESP	n/a	LTP122	ltpFR	17	5	0	CYLINDER	432	1	n/a	0	n/a	n/a	n/a	n/a	n/a
3365588	RECOG_CONF	n/a	LTP122	ltpFR	17	5	0	CYLINDER	432	n/a	5	0	n/a	n/a	n/a	n/a	n/a
3367060	RECOG_LURE	n/a	LTP122	ltpFR	17	5	n/a	DOCTOR	478	0	2	n/a	n/a	n/a	n/a	n/a	n/a
3371829	RECOG_RESP	n/a	LTP122	ltpFR	17	5	n/a	DOCTOR	478	0	n/a	n/a	n/a	n/a	n/a	n/a	n/a
3372602	RECOG_CONF	n/a	LTP122	ltpFR	17	5	n/a	DOCTOR	478	n/a	2	n/a	n/a	n/a	n/a	n/a	n/a
3374141	RECOG_TARGET	n/a	LTP122	ltpFR	17	5	0	GERM	632	1	5	0	n/a	n/a	n/a	n/a	n/a
3374737	RECOG_RESP	n/a	LTP122	ltpFR	17	5	0	GERM	632	1	n/a	0	n/a	n/a	n/a	n/a	n/a
3375475	RECOG_CONF	n/a	LTP122	ltpFR	17	5	0	GERM	632	n/a	5	0	n/a	n/a	n/a	n/a	n/a
3376890	RECOG_LURE	n/a	LTP122	ltpFR	17	5	n/a	VELVET	1555	0	5	n/a	n/a	n/a	n/a	n/a	n/a
