mstime	trial_type	stim_file	subject	experiment	session	trial	task	item_name	item_num	recog_conf	resp	color_b	color_g	color_r	case	font
0	SESS_START	n/a	LTP217	ltpFR	6	n/a	n/a	n/a	n/a	5	n/a	n/a	n/a	n/a	n/a	n/a
94057	WORD	wordpools/wasnorm_wordpool_less_exclusions.txt	LTP217	ltpFR	6	1	1	SHELL	1281	n/a	0	0	0.5869140625	0.422607421875	lower	../fonts/zerothre.ttf
98216	WORD	wordpools/wasnorm_wordpool_less_exclusions.txt	LTP217	ltpFR	6	1	1	GLOBE	641	n/a	0	0	0.5869140625	0.422607421875	lower	../fonts/zerothre.ttf
102104	WORD	wordpools/wasnorm_wordpool_less_exclusions.txt	LTP217	ltpFR	6	1	1	CUB	419	n/a	1	0	0.5869140625	0.422607421875	lower	../fonts/zerothre.ttf
106052	WORD	wordpools/wasnorm_wordpool_less_exclusions.txt	LTP217	ltpFR	6	1	1	TWEEZERS	1526	n/a	0	0	0.5869140625	0.422607421875	lower	../fonts/zerothre.ttf
110218	WORD	wordpools/wasnorm_wordpool_less_exclusions.txt	LTP217	ltpFR	6	1	0	CAP	236	n/a	0	1	0.412841796875	0.57763671875	upper	../fonts/amplitud.ttf
114200	WORD	wordpools/wasnorm_wordpool_less_exclusions.txt	LTP217	ltpFR	6	1	0	RIB	1188	n/a	0	1	0.412841796875	0.57763671875	upper	../fonts/amplitud.ttf
118057	WORD	wordpools/wasnorm_wordpool_less_exclusions.txt	LTP217	ltpFR	6	1	1	CHECK	284	n/a	0	0	0.5869140625	0.422607421875	lower	../fonts/zerothre.ttf
122180	WORD	wordpools/wasnorm_wordpool_less_exclusions.txt	LTP217	ltpFR	6	1	1	CASHIER	254	n/a	1	0	0.5869140625	0.422607421875	lower	../fonts/zerothre.ttf
126195	WORD	wordpools/wasnorm_wordpool_less_exclusions.txt	LTP217	ltpFR	6	1	1	GRIZZLY	662	n/a	1	0	0.5869140625	0.422607421875	lower	../fonts/zerothre.ttf
130270	WORD	wordpools/wasnorm_wordpool_less_exclusions.txt	LTP217	ltpFR	6	1	1	CHAMPION	279	n/a	1	0	0.5869140625	0.422607421875	lower	../fonts/zerothre.ttf
134393	WORD	wordpools/wasnorm_wordpool_less_exclusions.txt	LTP217	ltpFR	6	1	0	SCARF	1246	n/a	2	1	0.412841796875	0.57763671875	upper	../fonts/amplitud.ttf
136316	KEY_MSG	n/a	LTP217	ltpFR	6	1	n/a	n/a	n/a	n/a	n/a	n/a	n/a	n/a	n/a	n/a
138925	WORD	wordpools/wasnorm_wordpool_less_exclusions.txt	LTP217	ltpFR	6	1	0	LEOPARD	812	n/a	1	1	0.412841796875	0.57763671875	upper	../fonts/amplitud.ttf
142756	WORD	wordpools/wasnorm_wordpool_less_exclusions.txt	LTP217	ltpFR	6	1	0	POSSUM	1112	n/a	1	1	0.412841796875	0.57763671875	upper	../fonts/amplitud.ttf
146647	WORD	wordpools/wasnorm_wordpool_less_exclusions.txt	LTP217	ltpFR	6	1	0	HERD	705	n/a	1	1	0.412841796875	0.57763671875	upper	../fonts/amplitud.ttf
150729	WORD	wordpools/wasnorm_wordpool_less_exclusions.txt	LTP217	ltpFR	6	1	0	CLASS	318	n/a	1	1	0.412841796875	0.57763671875	upper	../fonts/amplitud.ttf
154885	WORD	wordpools/wasnorm_wordpool_less_exclusions.txt	LTP217	ltpFR	6	1	0	PLAYGROUND	1087	n/a	1	1	0.412841796875	0.57763671875	upper	../fonts/amplitud.ttf
161009	REC_START	n/a	LTP217	ltpFR	6	1	n/a	n/a	n/a	n/a	n/a	n/a	n/a	n/a	n/a	n/a
162810	REC_WORD	wordpools/wasnorm_wordpool_less_exclusions.txt	LTP217	ltpFR	6	1	0	HERD	705	n/a	1	n/a	n/a	n/a	n/a	n/a
163353	REC_WORD	wordpools/wasnorm_wordpool_less_exclusions.txt	LTP217	ltpFR	6	1	0	PLAYGROUND	1087	n/a	1	n/a	n/a	n/a	n/a	n/a
164302	REC_WORD	wordpools/wasnorm_wordpool_less_exclusions.txt	LTP217	ltpFR	6	1	1	GRIZZLY	662	n/a	1	n/a	n/a	n/a	n/a	n/a
165228	REC_WORD	wordpools/wasnorm_wordpool_less_exclusions.txt	LTP217	ltpFR	6	1	1	CUB	419	n/a	1	n/a	n/a	n/a	n/a	n/a
209848	REC_WORD	wordpools/wasnorm_wordpool_less_exclusions.txt	LTP217	ltpFR	6	1	0	POSSUM	1112	n/a	1	n/a	n/a	n/a	n/a	n/a
219521	REC_WORD	wordpools/wasnorm_wordpool_less_exclusions.txt	LTP217	ltpFR	6	1	0	CLASS	318	n/a	1	n/a	n/a	n/a	n/a	n/a
225976	REC_WORD	wordpools/wasnorm_wordpool_less_exclusions.txt	LTP217	ltpFR	6	1	0	PLAYGROUND	1087	n/a	1	n/a	n/a	n/a	n/a	n/a
233195	REC_WORD	wordpools/wasnorm_wordpool_less_exclusions.txt	LTP217	ltpFR	6	1	0	HERD	705	n/a	1	n/a	n/a	n/a	n/a	n/a
241305	WORD	wordpools/wasnorm_wordpool_less_exclusions.txt	LTP217	ltpFR	6	2	0	SCALE	1241	n/a	1	1	0.412841796875	0.57763671875	upper	../fonts/amplitud.ttf
245361	WORD	wordpools/wasnorm_wordpool_less_exclusions.txt	LTP217	ltpFR	6	2	0	DWARF	510	n/a	1	1	0.412841796875	0.57763671875	upper	../fonts/amplitud.ttf
249535	WORD	wordpools/wasnorm_wordpool_less_exclusions.txt	LTP217	ltpFR	6	2	0	DISH	474	n/a	0	1	0.412841796875	0.57763671875	upper	../fonts/amplitud.ttf
253717	WORD	wordpools/wasnorm_wordpool_less_exclusions.txt	LTP217	ltpFR	6	2	0	OBOE	969	n/a	1	1	0.412841796875	0.57763671875	upper	../fonts/amplitud.ttf
257606	WORD	wordpools/wasnorm_wordpool_less_exclusions.txt	LTP217	ltpFR	6	2	1	GIRAFFE	636	n/a	1	0	0.5869140625	0.422607421875	lower	../fonts/zerothre.ttf
261547	WORD	wordpools/wasnorm_wordpool_less_exclusions.txt	LTP217	ltpFR	6	2	1	TROUT	1511	n/a	1	0	0.5869140625	0.422607421875	lower	../fonts/zerothre.ttf
265519	WORD	wordpools/wasnorm_wordpool_less_exclusions.txt	LTP217	ltpFR	6	2	0	SARDINE	1235	n/a	0	1	0.412841796875	0.57763671875	upper	../fonts/amplitud.ttf
269594	WORD	wordpools/wasnorm_wordpool_less_exclusions.txt	LTP217	ltpFR	6	2	0	KETTLE	772	n/a	1	1	0.412841796875	0.57763671875	upper	../fonts/amplitud.ttf
273760	WORD	wordpools/wasnorm_wordpool_less_exclusions.txt	LTP217	ltpFR	6	2	0	HOOD	714	n/a	1	1	0.412841796875	0.57763671875	upper	../fonts/amplitud.ttf
277648	WORD	wordpools/wasnorm_wordpool_less_exclusions.txt	LTP217	ltpFR	6	2	0	WINDSHIELD	1612	n/a	1	1	0.412841796875	0.57763671875	upper	../fonts/amplitud.ttf
281589	WORD	wordpools/wasnorm_wordpool_less_exclusions.txt	LTP217	ltpFR	6	2	1	LUNG	850	n/a	1	0	0.5869140625	0.422607421875	lower	../fonts/zerothre.ttf
285511	WORD	wordpools/wasnorm_wordpool_less_exclusions.txt	LTP217	ltpFR	6	2	1	JOKER	759	n/a	1	0	0.5869140625	0.422607421875	lower	../fonts/zerothre.ttf
289670	WORD	wordpools/wasnorm_wordpool_less_exclusions.txt	LTP217	ltpFR	6	2	1	WASHER	1592	n/a	0	0	0.5869140625	0.422607421875	lower	../fonts/zerothre.ttf
293668	WORD	wordpools/wasnorm_wordpool_less_exclusions.txt	LTP217	ltpFR	6	2	1	SAXOPHONE	1240	n/a	0	0	0.5869140625	0.422607421875	lower	../fonts/zerothre.ttf
297757	WORD	wordpools/wasnorm_wordpool_less_exclusions.txt	LTP217	ltpFR	6	2	1	VINE	1568	n/a	1	0	0.5869140625	0.422607421875	lower	../fonts/zerothre.ttf
301605	WORD	wordpools/wasnorm_wordpool_less_exclusions.txt	LTP217	ltpFR	6	2	1	PIT	1077	n/a	0	0	0.5869140625	0.422607421875	lower	../fonts/zerothre.ttf
307454	REC_START	n/a	LTP217	ltpFR	6	2	n/a	n/a	n/a	n/a	n/a	n/a	n/a	n/a	n/a	n/a
308781	REC_WORD	wordpools/wasnorm_wordpool_less_exclusions.txt	LTP217	ltpFR	6	2	1	PIT	1077	n/a	0	n/a	n/a	n/a	n/a	n/a
311180	REC_WORD	wordpools/wasnorm_wordpool_less_exclusions.txt	LTP217	ltpFR	6	2	0	OBOE	969	n/a	1	n/a	n/a	n/a	n/a	n/a
316164	REC_WORD	wordpools/wasnorm_wordpool_less_exclusions.txt	LTP217	ltpFR	6	2	0	SARDINE	1235	n/a	0	n/a	n/a	n/a	n/a	n/a
346683	REC_WORD	wordpools/wasnorm_wordpool_less_exclusions.txt	LTP217	ltpFR	6	2	1	TROUT	1511	n/a	1	n/a	n/a	n/a	n/a	n/a
387505	WORD	wordpools/wasnorm_wordpool_less_exclusions.txt	LTP217	ltpFR	6	3	0	GROUND	666	n/a	1	1	0.412841796875	0.57763671875	upper	../fonts/amplitud.ttf
391661	WORD	wordpools/wasnorm_wordpool_less_exclusions.txt	LTP217	ltpFR	6	3	0	LINT	826	n/a	0	1	0.412841796875	0.57763671875	upper	../fonts/amplitud.ttf
395509	WORD	wordpools/wasnorm_wordpool_less_exclusions.txt	LTP217	ltpFR	6	3	0	SCARECROW	1245	n/a	1	1	0.412841796875	0.57763671875	upper	../fonts/amplitud.ttf
399434	WORD	wordpools/wasnorm_wordpool_less_exclusions.txt	LTP217	ltpFR	6	3	0	KETCHUP	771	n/a	0	1	0.412841796875	0.57763671875	upper	../fonts/amplitud.ttf
403456	WORD	wordpools/wasnorm_wordpool_less_exclusions.txt	LTP217	ltpFR	6	3	0	RAILROAD	1162	n/a	1	1	0.412841796875	0.57763671875	upper	../fonts/amplitud.ttf
407538	WORD	wordpools/wasnorm_wordpool_less_exclusions.txt	LTP217	ltpFR	6	3	0	COW	393	n/a	1	1	0.412841796875	0.57763671875	upper	../fonts/amplitud.ttf
411746	WORD	wordpools/wasnorm_wordpool_less_exclusions.txt	LTP217	ltpFR	6	3	0	BARN	89	n/a	1	1	0.412841796875	0.57763671875	upper	../fonts/amplitud.ttf
415912	WORD	wordpools/wasnorm_wordpool_less_exclusions.txt	LTP217	ltpFR	6	3	0	SWORD	1423	n/a	1	1	0.412841796875	0.57763671875	upper	../fonts/amplitud.ttf
420011	WORD	wordpools/wasnorm_wordpool_less_exclusions.txt	LTP217	ltpFR	6	3	0	DIAMOND	458	n/a	1	1	0.412841796875	0.57763671875	upper	../fonts/amplitud.ttf
423859	WORD	wordpools/wasnorm_wordpool_less_exclusions.txt	LTP217	ltpFR	6	3	0	LOG	841	n/a	1	1	0.412841796875	0.57763671875	upper	../fonts/amplitud.ttf
427874	WORD	wordpools/wasnorm_wordpool_less_exclusions.txt	LTP217	ltpFR	6	3	0	BLADE	134	n/a	0	1	0.412841796875	0.57763671875	upper	../fonts/amplitud.ttf
431829	WORD	wordpools/wasnorm_wordpool_less_exclusions.txt	LTP217	ltpFR	6	3	0	BACK	65	n/a	1	1	0.412841796875	0.57763671875	upper	../fonts/amplitud.ttf
436039	WORD	wordpools/wasnorm_wordpool_less_exclusions.txt	LTP217	ltpFR	6	3	0	BACKBONE	66	n/a	1	1	0.412841796875	0.57763671875	upper	../fonts/amplitud.ttf
440154	WORD	wordpools/wasnorm_wordpool_less_exclusions.txt	LTP217	ltpFR	6	3	0	SHRUB	1299	n/a	1	1	0.412841796875	0.57763671875	upper	../fonts/amplitud.ttf
444354	WORD	wordpools/wasnorm_wordpool_less_exclusions.txt	LTP217	ltpFR	6	3	0	PEBBLE	1035	n/a	0	1	0.412841796875	0.57763671875	upper	../fonts/amplitud.ttf
448485	WORD	wordpools/wasnorm_wordpool_less_exclusions.txt	LTP217	ltpFR	6	3	0	CABIN	211	n/a	1	1	0.412841796875	0.57763671875	upper	../fonts/amplitud.ttf
454450	REC_START	n/a	LTP217	ltpFR	6	3	n/a	n/a	n/a	n/a	n/a	n/a	n/a	n/a	n/a	n/a
455273	REC_WORD	wordpools/wasnorm_wordpool_less_exclusions.txt	LTP217	ltpFR	6	3	0	CABIN	211	n/a	1	n/a	n/a	n/a	n/a	n/a
456136	REC_WORD	wordpools/wasnorm_wordpool_less_exclusions.txt	LTP217	ltpFR	6	3	0	BARN	89	n/a	1	n/a	n/a	n/a	n/a	n/a
456668	REC_WORD	wordpools/wasnorm_wordpool_less_exclusions.txt	LTP217	ltpFR	6	3	0	SCARECROW	1245	n/a	1	n/a	n/a	n/a	n/a	n/a
457659	REC_WORD_VV	wordpools/wasnorm_wordpool_less_exclusions.txt	LTP217	ltpFR	6	3	n/a	<>	-1	n/a	n/a	n/a	n/a	n/a	n/a	n/a
458685	REC_WORD	wordpools/wasnorm_wordpool_less_exclusions.txt	LTP217	ltpFR	6	3	0	BACK	65	n/a	1	n/a	n/a	n/a	n/a	n/a
460341	REC_WORD	wordpools/wasnorm_wordpool_less_exclusions.txt	LTP217	ltpFR	6	3	0	DIAMOND	458	n/a	1	n/a	n/a	n/a	n/a	n/a
463075	REC_WORD	wordpools/wasnorm_wordpool_less_exclusions.txt	LTP217	ltpFR	6	3	0	SWORD	1423	n/a	1	n/a	n/a	n/a	n/a	n/a
467581	REC_WORD	wordpools/wasnorm_wordpool_less_exclusions.txt	LTP217	ltpFR	6	3	0	GROUND	666	n/a	1	n/a	n/a	n/a	n/a	n/a
474439	REC_WORD	wordpools/wasnorm_wordpool_less_exclusions.txt	LTP217	ltpFR	6	3	0	BARN	89	n/a	1	n/a	n/a	n/a	n/a	n/a
500625	REC_WORD	wordpools/wasnorm_wordpool_less_exclusions.txt	LTP217	ltpFR	6	3	0	LOG	841	n/a	1	n/a	n/a	n/a	n/a	n/a
534443	WORD	wordpools/wasnorm_wordpool_less_exclusions.txt	LTP217	ltpFR	6	4	1	TWINE	1529	n/a	1	0	0.5869140625	0.422607421875	lower	../fonts/zerothre.ttf
538365	WORD	wordpools/wasnorm_wordpool_less_exclusions.txt	LTP217	ltpFR	6	4	1	ASH	44	n/a	0	0	0.5869140625	0.422607421875	lower	../fonts/zerothre.ttf
542356	WORD	wordpools/wasnorm_wordpool_less_exclusions.txt	LTP217	ltpFR	6	4	0	FLEET	578	n/a	1	1	0.412841796875	0.57763671875	upper	../fonts/amplitud.ttf
546562	WORD	wordpools/wasnorm_wordpool_less_exclusions.txt	LTP217	ltpFR	6	4	0	OX	994	n/a	1	1	0.412841796875	0.57763671875	upper	../fonts/amplitud.ttf
550644	WORD	wordpools/wasnorm_wordpool_less_exclusions.txt	LTP217	ltpFR	6	4	0	FARM	552	n/a	1	1	0.412841796875	0.57763671875	upper	../fonts/amplitud.ttf
554769	WORD	wordpools/wasnorm_wordpool_less_exclusions.txt	LTP217	ltpFR	6	4	0	EAR	513	n/a	0	1	0.412841796875	0.57763671875	upper	../fonts/amplitud.ttf
558724	WORD	wordpools/wasnorm_wordpool_less_exclusions.txt	LTP217	ltpFR	6	4	1	ROOT	1210	n/a	1	0	0.5869140625	0.422607421875	lower	../fonts/zerothre.ttf
562766	WORD	wordpools/wasnorm_wordpool_less_exclusions.txt	LTP217	ltpFR	6	4	1	PLUM	1090	n/a	1	0	0.5869140625	0.422607421875	lower	../fonts/zerothre.ttf
566805	WORD	wordpools/wasnorm_wordpool_less_exclusions.txt	LTP217	ltpFR	6	4	1	PEDESTRIAN	1038	n/a	1	0	0.5869140625	0.422607421875	lower	../fonts/zerothre.ttf
570669	WORD	wordpools/wasnorm_wordpool_less_exclusions.txt	LTP217	ltpFR	6	4	0	FIREMAN	569	n/a	1	1	0.412841796875	0.57763671875	upper	../fonts/amplitud.ttf
574584	WORD	wordpools/wasnorm_wordpool_less_exclusions.txt	LTP217	ltpFR	6	4	0	TAPIOCA	1434	n/a	0	1	0.412841796875	0.57763671875	upper	../fonts/amplitud.ttf
578482	WORD	wordpools/wasnorm_wordpool_less_exclusions.txt	LTP217	ltpFR	6	4	0	ROOMMATE	1207	n/a	1	1	0.412841796875	0.57763671875	upper	../fonts/amplitud.ttf
582507	WORD	wordpools/wasnorm_wordpool_less_exclusions.txt	LTP217	ltpFR	6	4	0	DIAPER	459	n/a	0	1	0.412841796875	0.57763671875	upper	../fonts/amplitud.ttf
586396	WORD	wordpools/wasnorm_wordpool_less_exclusions.txt	LTP217	ltpFR	6	4	1	NOTEBOOK	959	n/a	0	0	0.5869140625	0.422607421875	lower	../fonts/zerothre.ttf
590344	WORD	wordpools/wasnorm_wordpool_less_exclusions.txt	LTP217	ltpFR	6	4	1	NEWSPAPER	948	n/a	0	0	0.5869140625	0.422607421875	lower	../fonts/zerothre.ttf
594335	WORD	wordpools/wasnorm_wordpool_less_exclusions.txt	LTP217	ltpFR	6	4	1	DESSERT	453	n/a	1	0	0.5869140625	0.422607421875	lower	../fonts/zerothre.ttf
600275	REC_START	n/a	LTP217	ltpFR	6	4	n/a	n/a	n/a	n/a	n/a	n/a	n/a	n/a	n/a	n/a
601492	REC_WORD	wordpools/wasnorm_wordpool_less_exclusions.txt	LTP217	ltpFR	6	4	n/a	DESERT	-1	n/a	n/a	n/a	n/a	n/a	n/a	n/a
602149	REC_WORD	wordpools/wasnorm_wordpool_less_exclusions.txt	LTP217	ltpFR	6	4	0	FIREMAN	569	n/a	1	n/a	n/a	n/a	n/a	n/a
604031	REC_WORD	wordpools/wasnorm_wordpool_less_exclusions.txt	LTP217	ltpFR	6	4	1	NEWSPAPER	948	n/a	0	n/a	n/a	n/a	n/a	n/a
605792	REC_WORD	wordpools/wasnorm_wordpool_less_exclusions.txt	LTP217	ltpFR	6	4	1	TWINE	1529	n/a	1	n/a	n/a	n/a	n/a	n/a
615649	REC_WORD	wordpools/wasnorm_wordpool_less_exclusions.txt	LTP217	ltpFR	6	4	0	FLEET	578	n/a	1	n/a	n/a	n/a	n/a	n/a
621069	REC_WORD	wordpools/wasnorm_wordpool_less_exclusions.txt	LTP217	ltpFR	6	4	0	FARM	552	n/a	1	n/a	n/a	n/a	n/a	n/a
650605	REC_WORD	wordpools/wasnorm_wordpool_less_exclusions.txt	LTP217	ltpFR	6	4	0	EAR	513	n/a	0	n/a	n/a	n/a	n/a	n/a
680559	WORD	wordpools/wasnorm_wordpool_less_exclusions.txt	LTP217	ltpFR	6	5	1	TEACHER	1440	n/a	1	0	0.5869140625	0.422607421875	lower	../fonts/zerothre.ttf
684524	WORD	wordpools/wasnorm_wordpool_less_exclusions.txt	LTP217	ltpFR	6	5	1	PENGUIN	1044	n/a	1	0	0.5869140625	0.422607421875	lower	../fonts/zerothre.ttf
688447	WORD	wordpools/wasnorm_wordpool_less_exclusions.txt	LTP217	ltpFR	6	5	1	FRIEND	606	n/a	1	0	0.5869140625	0.422607421875	lower	../fonts/zerothre.ttf
692471	WORD	wordpools/wasnorm_wordpool_less_exclusions.txt	LTP217	ltpFR	6	5	1	WHEAT	1602	n/a	1	0	0.5869140625	0.422607421875	lower	../fonts/zerothre.ttf
696577	WORD	wordpools/wasnorm_wordpool_less_exclusions.txt	LTP217	ltpFR	6	5	1	TUNNEL	1519	n/a	0	0	0.5869140625	0.422607421875	lower	../fonts/zerothre.ttf
700501	WORD	wordpools/wasnorm_wordpool_less_exclusions.txt	LTP217	ltpFR	6	5	1	CABOOSE	214	n/a	0	0	0.5869140625	0.422607421875	lower	../fonts/zerothre.ttf
704350	WORD	wordpools/wasnorm_wordpool_less_exclusions.txt	LTP217	ltpFR	6	5	1	BOULDER	155	n/a	0	0	0.5869140625	0.422607421875	lower	../fonts/zerothre.ttf
708265	WORD	wordpools/wasnorm_wordpool_less_exclusions.txt	LTP217	ltpFR	6	5	1	TURKEY	1520	n/a	1	0	0.5869140625	0.422607421875	lower	../fonts/zerothre.ttf
712337	WORD	wordpools/wasnorm_wordpool_less_exclusions.txt	LTP217	ltpFR	6	5	1	CANARY	227	n/a	1	0	0.5869140625	0.422607421875	lower	../fonts/zerothre.ttf
716419	WORD	wordpools/wasnorm_wordpool_less_exclusions.txt	LTP217	ltpFR	6	5	1	FLESH	579	n/a	1	0	0.5869140625	0.422607421875	lower	../fonts/zerothre.ttf
720484	WORD	wordpools/wasnorm_wordpool_less_exclusions.txt	LTP217	ltpFR	6	5	1	BANDANNA	80	n/a	0	0	0.5869140625	0.422607421875	lower	../fonts/zerothre.ttf
724325	WORD	wordpools/wasnorm_wordpool_less_exclusions.txt	LTP217	ltpFR	6	5	1	VEGETABLE	1552	n/a	1	0	0.5869140625	0.422607421875	lower	../fonts/zerothre.ttf
728223	WORD	wordpools/wasnorm_wordpool_less_exclusions.txt	LTP217	ltpFR	6	5	1	STREET	1393	n/a	0	0	0.5869140625	0.422607421875	lower	../fonts/zerothre.ttf
732105	WORD	wordpools/wasnorm_wordpool_less_exclusions.txt	LTP217	ltpFR	6	5	1	HIGHWAY	707	n/a	0	0	0.5869140625	0.422607421875	lower	../fonts/zerothre.ttf
736211	WORD	wordpools/wasnorm_wordpool_less_exclusions.txt	LTP217	ltpFR	6	5	1	SANDWICH	1232	n/a	0	0	0.5869140625	0.422607421875	lower	../fonts/zerothre.ttf
740159	WORD	wordpools/wasnorm_wordpool_less_exclusions.txt	LTP217	ltpFR	6	5	1	FARMER	553	n/a	1	0	0.5869140625	0.422607421875	lower	../fonts/zerothre.ttf
745914	REC_START	n/a	LTP217	ltpFR	6	5	n/a	n/a	n/a	n/a	n/a	n/a	n/a	n/a	n/a	n/a
747467	REC_WORD	wordpools/wasnorm_wordpool_less_exclusions.txt	LTP217	ltpFR	6	5	1	FARMER	553	n/a	1	n/a	n/a	n/a	n/a	n/a
748413	REC_WORD	wordpools/wasnorm_wordpool_less_exclusions.txt	LTP217	ltpFR	6	5	1	FRIEND	606	n/a	1	n/a	n/a	n/a	n/a	n/a
749481	REC_WORD	wordpools/wasnorm_wordpool_less_exclusions.txt	LTP217	ltpFR	6	5	1	TURKEY	1520	n/a	1	n/a	n/a	n/a	n/a	n/a
750404	REC_WORD	wordpools/wasnorm_wordpool_less_exclusions.txt	LTP217	ltpFR	6	5	1	BANDANNA	80	n/a	0	n/a	n/a	n/a	n/a	n/a
751626	REC_WORD	wordpools/wasnorm_wordpool_less_exclusions.txt	LTP217	ltpFR	6	5	1	HIGHWAY	707	n/a	0	n/a	n/a	n/a	n/a	n/a
753292	REC_WORD	wordpools/wasnorm_wordpool_less_exclusions.txt	LTP217	ltpFR	6	5	1	STREET	1393	n/a	0	n/a	n/a	n/a	n/a	n/a
754624	REC_WORD	wordpools/wasnorm_wordpool_less_exclusions.txt	LTP217	ltpFR	6	5	1	TUNNEL	1519	n/a	0	n/a	n/a	n/a	n/a	n/a
757203	REC_WORD	wordpools/wasnorm_wordpool_less_exclusions.txt	LTP217	ltpFR	6	5	1	TEACHER	1440	n/a	1	n/a	n/a	n/a	n/a	n/a
764122	REC_WORD	wordpools/wasnorm_wordpool_less_exclusions.txt	LTP217	ltpFR	6	5	1	SANDWICH	1232	n/a	0	n/a	n/a	n/a	n/a	n/a
793575	REC_WORD	wordpools/wasnorm_wordpool_less_exclusions.txt	LTP217	ltpFR	6	5	1	PENGUIN	1044	n/a	1	n/a	n/a	n/a	n/a	n/a
796088	REC_WORD_VV	wordpools/wasnorm_wordpool_less_exclusions.txt	LTP217	ltpFR	6	5	n/a	<>	-1	n/a	n/a	n/a	n/a	n/a	n/a	n/a
796579	REC_WORD	wordpools/wasnorm_wordpool_less_exclusions.txt	LTP217	ltpFR	6	5	1	PENGUIN	1044	n/a	1	n/a	n/a	n/a	n/a	n/a
811083	REC_WORD	wordpools/wasnorm_wordpool_less_exclusions.txt	LTP217	ltpFR	6	5	1	FARMER	553	n/a	1	n/a	n/a	n/a	n/a	n/a
826844	WORD	wordpools/wasnorm_wordpool_less_exclusions.txt	LTP217	ltpFR	6	6	0	SHELF	1280	n/a	1	1	0.412841796875	0.57763671875	upper	../fonts/amplitud.ttf
830799	WORD	wordpools/wasnorm_wordpool_less_exclusions.txt	LTP217	ltpFR	6	6	0	ENCYCLOPEDIA	533	n/a	1	1	0.412841796875	0.57763671875	upper	../fonts/amplitud.ttf
834891	WORD	wordpools/wasnorm_wordpool_less_exclusions.txt	LTP217	ltpFR	6	6	0	STAPLER	1372	n/a	0	1	0.412841796875	0.57763671875	upper	../fonts/amplitud.ttf
838947	WORD	wordpools/wasnorm_wordpool_less_exclusions.txt	LTP217	ltpFR	6	6	0	DUST	508	n/a	0	1	0.412841796875	0.57763671875	upper	../fonts/amplitud.ttf
843063	WORD	wordpools/wasnorm_wordpool_less_exclusions.txt	LTP217	ltpFR	6	6	0	PIANO	1057	n/a	1	1	0.412841796875	0.57763671875	upper	../fonts/amplitud.ttf
846977	WORD	wordpools/wasnorm_wordpool_less_exclusions.txt	LTP217	ltpFR	6	6	0	POND	1101	n/a	1	1	0.412841796875	0.57763671875	upper	../fonts/amplitud.ttf
850851	WORD	wordpools/wasnorm_wordpool_less_exclusions.txt	LTP217	ltpFR	6	6	0	SHARK	1275	n/a	1	1	0.412841796875	0.57763671875	upper	../fonts/amplitud.ttf
854790	WORD	wordpools/wasnorm_wordpool_less_exclusions.txt	LTP217	ltpFR	6	6	0	TAPE	1433	n/a	0	1	0.412841796875	0.57763671875	upper	../fonts/amplitud.ttf
858631	WORD	wordpools/wasnorm_wordpool_less_exclusions.txt	LTP217	ltpFR	6	6	0	FLANNEL	574	n/a	1	1	0.412841796875	0.57763671875	upper	../fonts/amplitud.ttf
862512	WORD	wordpools/wasnorm_wordpool_less_exclusions.txt	LTP217	ltpFR	6	6	0	FACTORY	548	n/a	1	1	0.412841796875	0.57763671875	upper	../fonts/amplitud.ttf
866401	WORD	wordpools/wasnorm_wordpool_less_exclusions.txt	LTP217	ltpFR	6	6	0	APPLICATION	34	n/a	0	1	0.412841796875	0.57763671875	upper	../fonts/amplitud.ttf
870376	WORD	wordpools/wasnorm_wordpool_less_exclusions.txt	LTP217	ltpFR	6	6	0	CHIPMUNK	304	n/a	0	1	0.412841796875	0.57763671875	upper	../fonts/amplitud.ttf
874448	WORD	wordpools/wasnorm_wordpool_less_exclusions.txt	LTP217	ltpFR	6	6	0	LIGHTER	819	n/a	n/a	1	0.412841796875	0.57763671875	upper	../fonts/amplitud.ttf
877492	SLOW_MSG	n/a	LTP217	ltpFR	6	6	n/a	n/a	n/a	n/a	n/a	n/a	n/a	n/a	n/a	n/a
880018	WORD	wordpools/wasnorm_wordpool_less_exclusions.txt	LTP217	ltpFR	6	6	0	BRIEFCASE	175	n/a	1	1	0.412841796875	0.57763671875	upper	../fonts/amplitud.ttf
884245	WORD	wordpools/wasnorm_wordpool_less_exclusions.txt	LTP217	ltpFR	6	6	0	SIREN	1310	n/a	1	1	0.412841796875	0.57763671875	upper	../fonts/amplitud.ttf
888418	WORD	wordpools/wasnorm_wordpool_less_exclusions.txt	LTP217	ltpFR	6	6	0	GRASS	655	n/a	1	1	0.412841796875	0.57763671875	upper	../fonts/amplitud.ttf
894517	REC_START	n/a	LTP217	ltpFR	6	6	n/a	n/a	n/a	n/a	n/a	n/a	n/a	n/a	n/a	n/a
895924	REC_WORD	wordpools/wasnorm_wordpool_less_exclusions.txt	LTP217	ltpFR	6	6	0	GRASS	655	n/a	1	n/a	n/a	n/a	n/a	n/a
896752	REC_WORD	wordpools/wasnorm_wordpool_less_exclusions.txt	LTP217	ltpFR	6	6	0	BRIEFCASE	175	n/a	1	n/a	n/a	n/a	n/a	n/a
903282	REC_WORD	wordpools/wasnorm_wordpool_less_exclusions.txt	LTP217	ltpFR	6	6	0	CHIPMUNK	304	n/a	0	n/a	n/a	n/a	n/a	n/a
912310	REC_WORD	wordpools/wasnorm_wordpool_less_exclusions.txt	LTP217	ltpFR	6	6	0	FLANNEL	574	n/a	1	n/a	n/a	n/a	n/a	n/a
917130	REC_WORD	wordpools/wasnorm_wordpool_less_exclusions.txt	LTP217	ltpFR	6	6	0	SHARK	1275	n/a	1	n/a	n/a	n/a	n/a	n/a
920248	REC_WORD	wordpools/wasnorm_wordpool_less_exclusions.txt	LTP217	ltpFR	6	6	0	POND	1101	n/a	1	n/a	n/a	n/a	n/a	n/a
921860	REC_WORD	wordpools/wasnorm_wordpool_less_exclusions.txt	LTP217	ltpFR	6	6	0	PIANO	1057	n/a	1	n/a	n/a	n/a	n/a	n/a
974809	WORD	wordpools/wasnorm_wordpool_less_exclusions.txt	LTP217	ltpFR	6	7	-1	GOO	648	n/a	-1	1	1.0	1.0	upper	../fonts/Verdana.ttf
978716	WORD	wordpools/wasnorm_wordpool_less_exclusions.txt	LTP217	ltpFR	6	7	-1	DOUGHNUT	490	n/a	-1	1	1.0	1.0	upper	../fonts/Verdana.ttf
982605	WORD	wordpools/wasnorm_wordpool_less_exclusions.txt	LTP217	ltpFR	6	7	-1	TORCH	1484	n/a	-1	1	1.0	1.0	upper	../fonts/Verdana.ttf
986579	WORD	wordpools/wasnorm_wordpool_less_exclusions.txt	LTP217	ltpFR	6	7	-1	CHIME	300	n/a	-1	1	1.0	1.0	upper	../fonts/Verdana.ttf
990602	WORD	wordpools/wasnorm_wordpool_less_exclusions.txt	LTP217	ltpFR	6	7	-1	FOOTBALL	591	n/a	-1	1	1.0	1.0	upper	../fonts/Verdana.ttf
994610	WORD	wordpools/wasnorm_wordpool_less_exclusions.txt	LTP217	ltpFR	6	7	-1	SILVERWARE	1308	n/a	-1	1	1.0	1.0	upper	../fonts/Verdana.ttf
998799	WORD	wordpools/wasnorm_wordpool_less_exclusions.txt	LTP217	ltpFR	6	7	-1	RECIPE	1175	n/a	-1	1	1.0	1.0	upper	../fonts/Verdana.ttf
1002974	WORD	wordpools/wasnorm_wordpool_less_exclusions.txt	LTP217	ltpFR	6	7	-1	CHARCOAL	281	n/a	-1	1	1.0	1.0	upper	../fonts/Verdana.ttf
1007132	WORD	wordpools/wasnorm_wordpool_less_exclusions.txt	LTP217	ltpFR	6	7	-1	COMMITTEE	355	n/a	-1	1	1.0	1.0	upper	../fonts/Verdana.ttf
1011180	WORD	wordpools/wasnorm_wordpool_less_exclusions.txt	LTP217	ltpFR	6	7	-1	SOCIETY	1338	n/a	-1	1	1.0	1.0	upper	../fonts/Verdana.ttf
1015171	WORD	wordpools/wasnorm_wordpool_less_exclusions.txt	LTP217	ltpFR	6	7	-1	PARIS	1014	n/a	-1	1	1.0	1.0	upper	../fonts/Verdana.ttf
1019270	WORD	wordpools/wasnorm_wordpool_less_exclusions.txt	LTP217	ltpFR	6	7	-1	INFANT	737	n/a	-1	1	1.0	1.0	upper	../fonts/Verdana.ttf
1023202	WORD	wordpools/wasnorm_wordpool_less_exclusions.txt	LTP217	ltpFR	6	7	-1	HEART	697	n/a	-1	1	1.0	1.0	upper	../fonts/Verdana.ttf
1027124	WORD	wordpools/wasnorm_wordpool_less_exclusions.txt	LTP217	ltpFR	6	7	-1	GUEST	669	n/a	-1	1	1.0	1.0	upper	../fonts/Verdana.ttf
1031055	WORD	wordpools/wasnorm_wordpool_less_exclusions.txt	LTP217	ltpFR	6	7	-1	SERVER	1272	n/a	-1	1	1.0	1.0	upper	../fonts/Verdana.ttf
1035147	WORD	wordpools/wasnorm_wordpool_less_exclusions.txt	LTP217	ltpFR	6	7	-1	TOURIST	1488	n/a	-1	1	1.0	1.0	upper	../fonts/Verdana.ttf
1041070	REC_START	n/a	LTP217	ltpFR	6	7	n/a	n/a	n/a	n/a	n/a	n/a	n/a	n/a	n/a	n/a
1041584	REC_WORD	wordpools/wasnorm_wordpool_less_exclusions.txt	LTP217	ltpFR	6	7	-1	TOURIST	1488	n/a	-1	n/a	n/a	n/a	n/a	n/a
1042546	REC_WORD	wordpools/wasnorm_wordpool_less_exclusions.txt	LTP217	ltpFR	6	7	-1	GUEST	669	n/a	-1	n/a	n/a	n/a	n/a	n/a
1043325	REC_WORD	wordpools/wasnorm_wordpool_less_exclusions.txt	LTP217	ltpFR	6	7	-1	SERVER	1272	n/a	-1	n/a	n/a	n/a	n/a	n/a
1044387	REC_WORD	wordpools/wasnorm_wordpool_less_exclusions.txt	LTP217	ltpFR	6	7	-1	INFANT	737	n/a	-1	n/a	n/a	n/a	n/a	n/a
1045375	REC_WORD	wordpools/wasnorm_wordpool_less_exclusions.txt	LTP217	ltpFR	6	7	-1	DOUGHNUT	490	n/a	-1	n/a	n/a	n/a	n/a	n/a
1047046	REC_WORD	wordpools/wasnorm_wordpool_less_exclusions.txt	LTP217	ltpFR	6	7	-1	TORCH	1484	n/a	-1	n/a	n/a	n/a	n/a	n/a
1047994	REC_WORD_VV	wordpools/wasnorm_wordpool_less_exclusions.txt	LTP217	ltpFR	6	7	n/a	<>	-1	n/a	n/a	n/a	n/a	n/a	n/a	n/a
1048608	REC_WORD	wordpools/wasnorm_wordpool_less_exclusions.txt	LTP217	ltpFR	6	7	-1	GOO	648	n/a	-1	n/a	n/a	n/a	n/a	n/a
1064951	REC_WORD	wordpools/wasnorm_wordpool_less_exclusions.txt	LTP217	ltpFR	6	7	-1	TOURIST	1488	n/a	-1	n/a	n/a	n/a	n/a	n/a
1065953	REC_WORD_VV	wordpools/wasnorm_wordpool_less_exclusions.txt	LTP217	ltpFR	6	7	n/a	<>	-1	n/a	n/a	n/a	n/a	n/a	n/a	n/a
1120409	WORD	wordpools/wasnorm_wordpool_less_exclusions.txt	LTP217	ltpFR	6	8	1	VIKING	1565	n/a	1	0	0.5869140625	0.422607421875	lower	../fonts/zerothre.ttf
1124566	WORD	wordpools/wasnorm_wordpool_less_exclusions.txt	LTP217	ltpFR	6	8	1	CATERPILLAR	259	n/a	1	0	0.5869140625	0.422607421875	lower	../fonts/zerothre.ttf
1128782	WORD	wordpools/wasnorm_wordpool_less_exclusions.txt	LTP217	ltpFR	6	8	1	SQUIRREL	1362	n/a	1	0	0.5869140625	0.422607421875	lower	../fonts/zerothre.ttf
1132721	WORD	wordpools/wasnorm_wordpool_less_exclusions.txt	LTP217	ltpFR	6	8	1	GLOVE	642	n/a	0	0	0.5869140625	0.422607421875	lower	../fonts/zerothre.ttf
1136619	WORD	wordpools/wasnorm_wordpool_less_exclusions.txt	LTP217	ltpFR	6	8	1	ATOM	55	n/a	0	0	0.5869140625	0.422607421875	lower	../fonts/zerothre.ttf
1140493	WORD	wordpools/wasnorm_wordpool_less_exclusions.txt	LTP217	ltpFR	6	8	1	ELBOW	520	n/a	1	0	0.5869140625	0.422607421875	lower	../fonts/zerothre.ttf
1144642	WORD	wordpools/wasnorm_wordpool_less_exclusions.txt	LTP217	ltpFR	6	8	1	SLEEVE	1324	n/a	0	0	0.5869140625	0.422607421875	lower	../fonts/zerothre.ttf
1148858	WORD	wordpools/wasnorm_wordpool_less_exclusions.txt	LTP217	ltpFR	6	8	1	WHEEL	1603	n/a	0	0	0.5869140625	0.422607421875	lower	../fonts/zerothre.ttf
1152763	WORD	wordpools/wasnorm_wordpool_less_exclusions.txt	LTP217	ltpFR	6	8	1	ENGINE	535	n/a	0	0	0.5869140625	0.422607421875	lower	../fonts/zerothre.ttf
1156711	WORD	wordpools/wasnorm_wordpool_less_exclusions.txt	LTP217	ltpFR	6	8	1	CUE	422	n/a	0	0	0.5869140625	0.422607421875	lower	../fonts/zerothre.ttf
1160860	WORD	wordpools/wasnorm_wordpool_less_exclusions.txt	LTP217	ltpFR	6	8	1	SEED	1266	n/a	1	0	0.5869140625	0.422607421875	lower	../fonts/zerothre.ttf
1164918	WORD	wordpools/wasnorm_wordpool_less_exclusions.txt	LTP217	ltpFR	6	8	1	BOLT	146	n/a	0	0	0.5869140625	0.422607421875	lower	../fonts/zerothre.ttf
1168974	WORD	wordpools/wasnorm_wordpool_less_exclusions.txt	LTP217	ltpFR	6	8	1	GIRL	637	n/a	1	0	0.5869140625	0.422607421875	lower	../fonts/zerothre.ttf
1173133	WORD	wordpools/wasnorm_wordpool_less_exclusions.txt	LTP217	ltpFR	6	8	1	GENTLEMAN	631	n/a	1	0	0.5869140625	0.422607421875	lower	../fonts/zerothre.ttf
1177256	WORD	wordpools/wasnorm_wordpool_less_exclusions.txt	LTP217	ltpFR	6	8	1	PORCUPINE	1107	n/a	1	0	0.5869140625	0.422607421875	lower	../fonts/zerothre.ttf
1181471	WORD	wordpools/wasnorm_wordpool_less_exclusions.txt	LTP217	ltpFR	6	8	1	FINGER	567	n/a	1	0	0.5869140625	0.422607421875	lower	../fonts/zerothre.ttf
1187254	REC_START	n/a	LTP217	ltpFR	6	8	n/a	n/a	n/a	n/a	n/a	n/a	n/a	n/a	n/a	n/a
1188654	REC_WORD	wordpools/wasnorm_wordpool_less_exclusions.txt	LTP217	ltpFR	6	8	1	VIKING	1565	n/a	1	n/a	n/a	n/a	n/a	n/a
1189429	REC_WORD	wordpools/wasnorm_wordpool_less_exclusions.txt	LTP217	ltpFR	6	8	1	GIRL	637	n/a	1	n/a	n/a	n/a	n/a	n/a
1190072	REC_WORD	wordpools/wasnorm_wordpool_less_exclusions.txt	LTP217	ltpFR	6	8	1	GENTLEMAN	631	n/a	1	n/a	n/a	n/a	n/a	n/a
1191330	REC_WORD	wordpools/wasnorm_wordpool_less_exclusions.txt	LTP217	ltpFR	6	8	1	CATERPILLAR	259	n/a	1	n/a	n/a	n/a	n/a	n/a
1192832	REC_WORD	wordpools/wasnorm_wordpool_less_exclusions.txt	LTP217	ltpFR	6	8	1	FINGER	567	n/a	1	n/a	n/a	n/a	n/a	n/a
1216769	REC_WORD	wordpools/wasnorm_wordpool_less_exclusions.txt	LTP217	ltpFR	6	8	1	PORCUPINE	1107	n/a	1	n/a	n/a	n/a	n/a	n/a
1268626	WORD	wordpools/wasnorm_wordpool_less_exclusions.txt	LTP217	ltpFR	6	9	-1	ATMOSPHERE	54	n/a	-1	1	1.0	1.0	upper	../fonts/Verdana.ttf
1272715	WORD	wordpools/wasnorm_wordpool_less_exclusions.txt	LTP217	ltpFR	6	9	-1	MARINE	869	n/a	-1	1	1.0	1.0	upper	../fonts/Verdana.ttf
1276697	WORD	wordpools/wasnorm_wordpool_less_exclusions.txt	LTP217	ltpFR	6	9	-1	RAFT	1159	n/a	-1	1	1.0	1.0	upper	../fonts/Verdana.ttf
1280905	WORD	wordpools/wasnorm_wordpool_less_exclusions.txt	LTP217	ltpFR	6	9	-1	SUBWAY	1400	n/a	-1	1	1.0	1.0	upper	../fonts/Verdana.ttf
1284954	WORD	wordpools/wasnorm_wordpool_less_exclusions.txt	LTP217	ltpFR	6	9	-1	CARAVAN	242	n/a	-1	1	1.0	1.0	upper	../fonts/Verdana.ttf
1288969	WORD	wordpools/wasnorm_wordpool_less_exclusions.txt	LTP217	ltpFR	6	9	-1	KIDNEY	776	n/a	-1	1	1.0	1.0	upper	../fonts/Verdana.ttf
1292934	WORD	wordpools/wasnorm_wordpool_less_exclusions.txt	LTP217	ltpFR	6	9	-1	METEOR	889	n/a	-1	1	1.0	1.0	upper	../fonts/Verdana.ttf
1296999	WORD	wordpools/wasnorm_wordpool_less_exclusions.txt	LTP217	ltpFR	6	9	-1	RICE	1190	n/a	-1	1	1.0	1.0	upper	../fonts/Verdana.ttf
1301149	WORD	wordpools/wasnorm_wordpool_less_exclusions.txt	LTP217	ltpFR	6	9	-1	LIEUTENANT	818	n/a	-1	1	1.0	1.0	upper	../fonts/Verdana.ttf
1305238	WORD	wordpools/wasnorm_wordpool_less_exclusions.txt	LTP217	ltpFR	6	9	-1	BOX	159	n/a	-1	1	1.0	1.0	upper	../fonts/Verdana.ttf
1309280	WORD	wordpools/wasnorm_wordpool_less_exclusions.txt	LTP217	ltpFR	6	9	-1	CAT	257	n/a	-1	1	1.0	1.0	upper	../fonts/Verdana.ttf
1313252	WORD	wordpools/wasnorm_wordpool_less_exclusions.txt	LTP217	ltpFR	6	9	-1	CLAW	319	n/a	-1	1	1.0	1.0	upper	../fonts/Verdana.ttf
1317200	WORD	wordpools/wasnorm_wordpool_less_exclusions.txt	LTP217	ltpFR	6	9	-1	TANK	1432	n/a	-1	1	1.0	1.0	upper	../fonts/Verdana.ttf
1321416	WORD	wordpools/wasnorm_wordpool_less_exclusions.txt	LTP217	ltpFR	6	9	-1	TOAST	1471	n/a	-1	1	1.0	1.0	upper	../fonts/Verdana.ttf
1325514	WORD	wordpools/wasnorm_wordpool_less_exclusions.txt	LTP217	ltpFR	6	9	-1	DRIVEWAY	500	n/a	-1	1	1.0	1.0	upper	../fonts/Verdana.ttf
1329396	WORD	wordpools/wasnorm_wordpool_less_exclusions.txt	LTP217	ltpFR	6	9	-1	SNACK	1331	n/a	-1	1	1.0	1.0	upper	../fonts/Verdana.ttf
1335078	REC_START	n/a	LTP217	ltpFR	6	9	n/a	n/a	n/a	n/a	n/a	n/a	n/a	n/a	n/a	n/a
1335532	REC_WORD	wordpools/wasnorm_wordpool_less_exclusions.txt	LTP217	ltpFR	6	9	-1	SNACK	1331	n/a	-1	n/a	n/a	n/a	n/a	n/a
1336470	REC_WORD	wordpools/wasnorm_wordpool_less_exclusions.txt	LTP217	ltpFR	6	9	-1	DRIVEWAY	500	n/a	-1	n/a	n/a	n/a	n/a	n/a
1338740	REC_WORD	wordpools/wasnorm_wordpool_less_exclusions.txt	LTP217	ltpFR	6	9	-1	LIEUTENANT	818	n/a	-1	n/a	n/a	n/a	n/a	n/a
1343504	REC_WORD	wordpools/wasnorm_wordpool_less_exclusions.txt	LTP217	ltpFR	6	9	-1	TANK	1432	n/a	-1	n/a	n/a	n/a	n/a	n/a
1355433	REC_WORD	wordpools/wasnorm_wordpool_less_exclusions.txt	LTP217	ltpFR	6	9	-1	MARINE	869	n/a	-1	n/a	n/a	n/a	n/a	n/a
1356744	REC_WORD	wordpools/wasnorm_wordpool_less_exclusions.txt	LTP217	ltpFR	6	9	-1	ATMOSPHERE	54	n/a	-1	n/a	n/a	n/a	n/a	n/a
1416250	WORD	wordpools/wasnorm_wordpool_less_exclusions.txt	LTP217	ltpFR	6	10	0	SEAL	1262	n/a	1	1	0.412841796875	0.57763671875	upper	../fonts/amplitud.ttf
1420265	WORD	wordpools/wasnorm_wordpool_less_exclusions.txt	LTP217	ltpFR	6	10	0	PILLOW	1069	n/a	0	1	0.412841796875	0.57763671875	upper	../fonts/amplitud.ttf
1424163	WORD	wordpools/wasnorm_wordpool_less_exclusions.txt	LTP217	ltpFR	6	10	1	PILL	1068	n/a	0	0	0.5869140625	0.422607421875	lower	../fonts/zerothre.ttf
1428135	WORD	wordpools/wasnorm_wordpool_less_exclusions.txt	LTP217	ltpFR	6	10	1	TAIL	1430	n/a	1	0	0.5869140625	0.422607421875	lower	../fonts/zerothre.ttf
1432277	WORD	wordpools/wasnorm_wordpool_less_exclusions.txt	LTP217	ltpFR	6	10	1	LIZARD	834	n/a	1	0	0.5869140625	0.422607421875	lower	../fonts/zerothre.ttf
1436383	WORD	wordpools/wasnorm_wordpool_less_exclusions.txt	LTP217	ltpFR	6	10	0	MONSTER	912	n/a	1	1	0.412841796875	0.57763671875	upper	../fonts/amplitud.ttf
1440480	WORD	wordpools/wasnorm_wordpool_less_exclusions.txt	LTP217	ltpFR	6	10	0	SADDLE	1221	n/a	1	1	0.412841796875	0.57763671875	upper	../fonts/amplitud.ttf
1444446	WORD	wordpools/wasnorm_wordpool_less_exclusions.txt	LTP217	ltpFR	6	10	0	BUGGY	188	n/a	1	1	0.412841796875	0.57763671875	upper	../fonts/amplitud.ttf
1448278	WORD	wordpools/wasnorm_wordpool_less_exclusions.txt	LTP217	ltpFR	6	10	1	KLEENEX	782	n/a	0	0	0.5869140625	0.422607421875	lower	../fonts/zerothre.ttf
1452485	WORD	wordpools/wasnorm_wordpool_less_exclusions.txt	LTP217	ltpFR	6	10	1	FLOOR	581	n/a	0	0	0.5869140625	0.422607421875	lower	../fonts/zerothre.ttf
1456367	WORD	wordpools/wasnorm_wordpool_less_exclusions.txt	LTP217	ltpFR	6	10	1	LOFT	840	n/a	0	0	0.5869140625	0.422607421875	lower	../fonts/zerothre.ttf
1460566	WORD	wordpools/wasnorm_wordpool_less_exclusions.txt	LTP217	ltpFR	6	10	1	KITTEN	780	n/a	1	0	0.5869140625	0.422607421875	lower	../fonts/zerothre.ttf
1464631	WORD	wordpools/wasnorm_wordpool_less_exclusions.txt	LTP217	ltpFR	6	10	1	MECHANIC	884	n/a	1	0	0.5869140625	0.422607421875	lower	../fonts/zerothre.ttf
1468830	WORD	wordpools/wasnorm_wordpool_less_exclusions.txt	LTP217	ltpFR	6	10	0	FLOWER	584	n/a	0	1	0.412841796875	0.57763671875	upper	../fonts/amplitud.ttf
1472669	WORD	wordpools/wasnorm_wordpool_less_exclusions.txt	LTP217	ltpFR	6	10	0	ROSE	1212	n/a	0	1	0.412841796875	0.57763671875	upper	../fonts/amplitud.ttf
1476617	WORD	wordpools/wasnorm_wordpool_less_exclusions.txt	LTP217	ltpFR	6	10	0	PAW	1029	n/a	0	1	0.412841796875	0.57763671875	upper	../fonts/amplitud.ttf
1482340	REC_START	n/a	LTP217	ltpFR	6	10	n/a	n/a	n/a	n/a	n/a	n/a	n/a	n/a	n/a	n/a
1483981	REC_WORD	wordpools/wasnorm_wordpool_less_exclusions.txt	LTP217	ltpFR	6	10	0	SEAL	1262	n/a	1	n/a	n/a	n/a	n/a	n/a
1485252	REC_WORD	wordpools/wasnorm_wordpool_less_exclusions.txt	LTP217	ltpFR	6	10	1	KITTEN	780	n/a	1	n/a	n/a	n/a	n/a	n/a
1486267	REC_WORD	wordpools/wasnorm_wordpool_less_exclusions.txt	LTP217	ltpFR	6	10	0	PAW	1029	n/a	0	n/a	n/a	n/a	n/a	n/a
1490477	REC_WORD	wordpools/wasnorm_wordpool_less_exclusions.txt	LTP217	ltpFR	6	10	1	KLEENEX	782	n/a	0	n/a	n/a	n/a	n/a	n/a
1561972	WORD	wordpools/wasnorm_wordpool_less_exclusions.txt	LTP217	ltpFR	6	11	0	LAKE	796	n/a	1	1	0.412841796875	0.57763671875	upper	../fonts/amplitud.ttf
1566098	WORD	wordpools/wasnorm_wordpool_less_exclusions.txt	LTP217	ltpFR	6	11	0	JACKET	747	n/a	1	1	0.412841796875	0.57763671875	upper	../fonts/amplitud.ttf
1570187	WORD	wordpools/wasnorm_wordpool_less_exclusions.txt	LTP217	ltpFR	6	11	0	EWE	542	n/a	1	1	0.412841796875	0.57763671875	upper	../fonts/amplitud.ttf
1574017	WORD	wordpools/wasnorm_wordpool_less_exclusions.txt	LTP217	ltpFR	6	11	0	TREE	1502	n/a	1	1	0.412841796875	0.57763671875	upper	../fonts/amplitud.ttf
1577982	WORD	wordpools/wasnorm_wordpool_less_exclusions.txt	LTP217	ltpFR	6	11	0	ORNAMENT	985	n/a	0	1	0.412841796875	0.57763671875	upper	../fonts/amplitud.ttf
1581930	WORD	wordpools/wasnorm_wordpool_less_exclusions.txt	LTP217	ltpFR	6	11	0	WINGS	1614	n/a	1	1	0.412841796875	0.57763671875	upper	../fonts/amplitud.ttf
1585862	WORD	wordpools/wasnorm_wordpool_less_exclusions.txt	LTP217	ltpFR	6	11	0	HOUSE	725	n/a	1	1	0.412841796875	0.57763671875	upper	../fonts/amplitud.ttf
1589760	WORD	wordpools/wasnorm_wordpool_less_exclusions.txt	LTP217	ltpFR	6	11	0	WRIST	1626	n/a	0	1	0.412841796875	0.57763671875	upper	../fonts/amplitud.ttf
1593708	WORD	wordpools/wasnorm_wordpool_less_exclusions.txt	LTP217	ltpFR	6	11	0	ATTIRE	57	n/a	1	1	0.412841796875	0.57763671875	upper	../fonts/amplitud.ttf
1597666	WORD	wordpools/wasnorm_wordpool_less_exclusions.txt	LTP217	ltpFR	6	11	0	BLUEJAY	141	n/a	0	1	0.412841796875	0.57763671875	upper	../fonts/amplitud.ttf
1601504	WORD	wordpools/wasnorm_wordpool_less_exclusions.txt	LTP217	ltpFR	6	11	0	MINER	896	n/a	1	1	0.412841796875	0.57763671875	upper	../fonts/amplitud.ttf
1605446	WORD	wordpools/wasnorm_wordpool_less_exclusions.txt	LTP217	ltpFR	6	11	0	WORM	1623	n/a	0	1	0.412841796875	0.57763671875	upper	../fonts/amplitud.ttf
1609668	WORD	wordpools/wasnorm_wordpool_less_exclusions.txt	LTP217	ltpFR	6	11	0	FIN	566	n/a	1	1	0.412841796875	0.57763671875	upper	../fonts/amplitud.ttf
1613800	WORD	wordpools/wasnorm_wordpool_less_exclusions.txt	LTP217	ltpFR	6	11	0	FLASK	576	n/a	0	1	0.412841796875	0.57763671875	upper	../fonts/amplitud.ttf
1617983	WORD	wordpools/wasnorm_wordpool_less_exclusions.txt	LTP217	ltpFR	6	11	0	BEVERAGE	123	n/a	0	1	0.412841796875	0.57763671875	upper	../fonts/amplitud.ttf
1621964	WORD	wordpools/wasnorm_wordpool_less_exclusions.txt	LTP217	ltpFR	6	11	0	PATIO	1025	n/a	1	1	0.412841796875	0.57763671875	upper	../fonts/amplitud.ttf
1627771	REC_START	n/a	LTP217	ltpFR	6	11	n/a	n/a	n/a	n/a	n/a	n/a	n/a	n/a	n/a	n/a
1630300	REC_WORD	wordpools/wasnorm_wordpool_less_exclusions.txt	LTP217	ltpFR	6	11	0	MINER	896	n/a	1	n/a	n/a	n/a	n/a	n/a
1631183	REC_WORD	wordpools/wasnorm_wordpool_less_exclusions.txt	LTP217	ltpFR	6	11	0	PATIO	1025	n/a	1	n/a	n/a	n/a	n/a	n/a
1632829	REC_WORD	wordpools/wasnorm_wordpool_less_exclusions.txt	LTP217	ltpFR	6	11	0	FLASK	576	n/a	0	n/a	n/a	n/a	n/a	n/a
1634196	REC_WORD	wordpools/wasnorm_wordpool_less_exclusions.txt	LTP217	ltpFR	6	11	0	BEVERAGE	123	n/a	0	n/a	n/a	n/a	n/a	n/a
1640123	REC_WORD	wordpools/wasnorm_wordpool_less_exclusions.txt	LTP217	ltpFR	6	11	0	WORM	1623	n/a	0	n/a	n/a	n/a	n/a	n/a
1660788	REC_WORD	wordpools/wasnorm_wordpool_less_exclusions.txt	LTP217	ltpFR	6	11	0	ATTIRE	57	n/a	1	n/a	n/a	n/a	n/a	n/a
1708651	WORD	wordpools/wasnorm_wordpool_less_exclusions.txt	LTP217	ltpFR	6	12	-1	CRICKET	408	n/a	-1	1	1.0	1.0	upper	../fonts/Verdana.ttf
1712489	WORD	wordpools/wasnorm_wordpool_less_exclusions.txt	LTP217	ltpFR	6	12	-1	ESCALATOR	539	n/a	-1	1	1.0	1.0	upper	../fonts/Verdana.ttf
1716554	WORD	wordpools/wasnorm_wordpool_less_exclusions.txt	LTP217	ltpFR	6	12	-1	BOARD	143	n/a	-1	1	1.0	1.0	upper	../fonts/Verdana.ttf
1720452	WORD	wordpools/wasnorm_wordpool_less_exclusions.txt	LTP217	ltpFR	6	12	-1	SIDING	1304	n/a	-1	1	1.0	1.0	upper	../fonts/Verdana.ttf
1724568	WORD	wordpools/wasnorm_wordpool_less_exclusions.txt	LTP217	ltpFR	6	12	-1	TABLET	1427	n/a	-1	1	1.0	1.0	upper	../fonts/Verdana.ttf
1728676	WORD	wordpools/wasnorm_wordpool_less_exclusions.txt	LTP217	ltpFR	6	12	-1	PAD	998	n/a	-1	1	1.0	1.0	upper	../fonts/Verdana.ttf
1732557	WORD	wordpools/wasnorm_wordpool_less_exclusions.txt	LTP217	ltpFR	6	12	-1	FOE	587	n/a	-1	1	1.0	1.0	upper	../fonts/Verdana.ttf
1736447	WORD	wordpools/wasnorm_wordpool_less_exclusions.txt	LTP217	ltpFR	6	12	-1	TRAITOR	1495	n/a	-1	1	1.0	1.0	upper	../fonts/Verdana.ttf
1740545	WORD	wordpools/wasnorm_wordpool_less_exclusions.txt	LTP217	ltpFR	6	12	-1	REPTILE	1185	n/a	-1	1	1.0	1.0	upper	../fonts/Verdana.ttf
1744536	WORD	wordpools/wasnorm_wordpool_less_exclusions.txt	LTP217	ltpFR	6	12	-1	HAMMOCK	681	n/a	-1	1	1.0	1.0	upper	../fonts/Verdana.ttf
1748491	WORD	wordpools/wasnorm_wordpool_less_exclusions.txt	LTP217	ltpFR	6	12	-1	CARTON	251	n/a	-1	1	1.0	1.0	upper	../fonts/Verdana.ttf
1752583	WORD	wordpools/wasnorm_wordpool_less_exclusions.txt	LTP217	ltpFR	6	12	-1	CHESS	294	n/a	-1	1	1.0	1.0	upper	../fonts/Verdana.ttf
1756522	WORD	wordpools/wasnorm_wordpool_less_exclusions.txt	LTP217	ltpFR	6	12	-1	SPICE	1350	n/a	-1	1	1.0	1.0	upper	../fonts/Verdana.ttf
1760596	WORD	wordpools/wasnorm_wordpool_less_exclusions.txt	LTP217	ltpFR	6	12	-1	SALT	1229	n/a	-1	1	1.0	1.0	upper	../fonts/Verdana.ttf
1764645	WORD	wordpools/wasnorm_wordpool_less_exclusions.txt	LTP217	ltpFR	6	12	-1	CHALK	276	n/a	-1	1	1.0	1.0	upper	../fonts/Verdana.ttf
1768751	WORD	wordpools/wasnorm_wordpool_less_exclusions.txt	LTP217	ltpFR	6	12	-1	BRICK	172	n/a	-1	1	1.0	1.0	upper	../fonts/Verdana.ttf
1774841	REC_START	n/a	LTP217	ltpFR	6	12	n/a	n/a	n/a	n/a	n/a	n/a	n/a	n/a	n/a	n/a
1775469	REC_WORD	wordpools/wasnorm_wordpool_less_exclusions.txt	LTP217	ltpFR	6	12	-1	CRICKET	408	n/a	-1	n/a	n/a	n/a	n/a	n/a
1776063	REC_WORD	wordpools/wasnorm_wordpool_less_exclusions.txt	LTP217	ltpFR	6	12	-1	ESCALATOR	539	n/a	-1	n/a	n/a	n/a	n/a	n/a
1777200	REC_WORD	wordpools/wasnorm_wordpool_less_exclusions.txt	LTP217	ltpFR	6	12	-1	BOARD	143	n/a	-1	n/a	n/a	n/a	n/a	n/a
1777955	REC_WORD	wordpools/wasnorm_wordpool_less_exclusions.txt	LTP217	ltpFR	6	12	-1	BRICK	172	n/a	-1	n/a	n/a	n/a	n/a	n/a
1778607	REC_WORD	wordpools/wasnorm_wordpool_less_exclusions.txt	LTP217	ltpFR	6	12	-1	CHALK	276	n/a	-1	n/a	n/a	n/a	n/a	n/a
1780741	REC_WORD	wordpools/wasnorm_wordpool_less_exclusions.txt	LTP217	ltpFR	6	12	-1	FOE	587	n/a	-1	n/a	n/a	n/a	n/a	n/a
1802882	REC_WORD	wordpools/wasnorm_wordpool_less_exclusions.txt	LTP217	ltpFR	6	12	-1	TRAITOR	1495	n/a	-1	n/a	n/a	n/a	n/a	n/a
1850492	REST_REWET	n/a	LTP217	ltpFR	6	12	n/a	n/a	n/a	n/a	n/a	n/a	n/a	n/a	n/a	n/a
1996436	WORD	wordpools/wasnorm_wordpool_less_exclusions.txt	LTP217	ltpFR	6	13	1	BIRD	129	n/a	1	0	0.5869140625	0.422607421875	lower	../fonts/zerothre.ttf
2000325	WORD	wordpools/wasnorm_wordpool_less_exclusions.txt	LTP217	ltpFR	6	13	1	ISLAND	745	n/a	0	0	0.5869140625	0.422607421875	lower	../fonts/zerothre.ttf
2004349	WORD	wordpools/wasnorm_wordpool_less_exclusions.txt	LTP217	ltpFR	6	13	1	CLOWN	330	n/a	1	0	0.5869140625	0.422607421875	lower	../fonts/zerothre.ttf
2008422	WORD	wordpools/wasnorm_wordpool_less_exclusions.txt	LTP217	ltpFR	6	13	1	PICNIC	1060	n/a	0	0	0.5869140625	0.422607421875	lower	../fonts/zerothre.ttf
2012337	WORD	wordpools/wasnorm_wordpool_less_exclusions.txt	LTP217	ltpFR	6	13	1	CAMERA	224	n/a	0	0	0.5869140625	0.422607421875	lower	../fonts/zerothre.ttf
2016402	WORD	wordpools/wasnorm_wordpool_less_exclusions.txt	LTP217	ltpFR	6	13	1	PICTURE	1061	n/a	0	0	0.5869140625	0.422607421875	lower	../fonts/zerothre.ttf
2020492	WORD	wordpools/wasnorm_wordpool_less_exclusions.txt	LTP217	ltpFR	6	13	0	PIGEON	1065	n/a	1	1	0.412841796875	0.57763671875	upper	../fonts/amplitud.ttf
2024665	WORD	wordpools/wasnorm_wordpool_less_exclusions.txt	LTP217	ltpFR	6	13	0	BEETLE	116	n/a	0	1	0.412841796875	0.57763671875	upper	../fonts/amplitud.ttf
2028807	WORD	wordpools/wasnorm_wordpool_less_exclusions.txt	LTP217	ltpFR	6	13	0	SALIVA	1226	n/a	0	1	0.412841796875	0.57763671875	upper	../fonts/amplitud.ttf
2032913	WORD	wordpools/wasnorm_wordpool_less_exclusions.txt	LTP217	ltpFR	6	13	1	SAND	1230	n/a	0	0	0.5869140625	0.422607421875	lower	../fonts/zerothre.ttf
2036737	WORD	wordpools/wasnorm_wordpool_less_exclusions.txt	LTP217	ltpFR	6	13	1	OTTER	986	n/a	1	0	0.5869140625	0.422607421875	lower	../fonts/zerothre.ttf
2040585	WORD	wordpools/wasnorm_wordpool_less_exclusions.txt	LTP217	ltpFR	6	13	0	CREEK	404	n/a	1	1	0.412841796875	0.57763671875	upper	../fonts/amplitud.ttf
2044657	WORD	wordpools/wasnorm_wordpool_less_exclusions.txt	LTP217	ltpFR	6	13	0	TROPHY	1509	n/a	0	1	0.412841796875	0.57763671875	upper	../fonts/amplitud.ttf
2048739	WORD	wordpools/wasnorm_wordpool_less_exclusions.txt	LTP217	ltpFR	6	13	0	NOMAD	955	n/a	1	1	0.412841796875	0.57763671875	upper	../fonts/amplitud.ttf
2052915	WORD	wordpools/wasnorm_wordpool_less_exclusions.txt	LTP217	ltpFR	6	13	0	EMPIRE	530	n/a	1	1	0.412841796875	0.57763671875	upper	../fonts/amplitud.ttf
2056853	WORD	wordpools/wasnorm_wordpool_less_exclusions.txt	LTP217	ltpFR	6	13	0	RULER	1216	n/a	1	1	0.412841796875	0.57763671875	upper	../fonts/amplitud.ttf
2062576	REC_START	n/a	LTP217	ltpFR	6	13	n/a	n/a	n/a	n/a	n/a	n/a	n/a	n/a	n/a	n/a
2063221	REC_WORD	wordpools/wasnorm_wordpool_less_exclusions.txt	LTP217	ltpFR	6	13	0	RULER	1216	n/a	1	n/a	n/a	n/a	n/a	n/a
2063877	REC_WORD	wordpools/wasnorm_wordpool_less_exclusions.txt	LTP217	ltpFR	6	13	0	NOMAD	955	n/a	1	n/a	n/a	n/a	n/a	n/a
2064611	REC_WORD	wordpools/wasnorm_wordpool_less_exclusions.txt	LTP217	ltpFR	6	13	0	EMPIRE	530	n/a	1	n/a	n/a	n/a	n/a	n/a
2066976	REC_WORD	wordpools/wasnorm_wordpool_less_exclusions.txt	LTP217	ltpFR	6	13	n/a	BEACH	-1	n/a	n/a	n/a	n/a	n/a	n/a	n/a
2067929	REC_WORD	wordpools/wasnorm_wordpool_less_exclusions.txt	LTP217	ltpFR	6	13	0	BEETLE	116	n/a	0	n/a	n/a	n/a	n/a	n/a
2070882	REC_WORD	wordpools/wasnorm_wordpool_less_exclusions.txt	LTP217	ltpFR	6	13	1	SAND	1230	n/a	0	n/a	n/a	n/a	n/a	n/a
2076279	REC_WORD	wordpools/wasnorm_wordpool_less_exclusions.txt	LTP217	ltpFR	6	13	1	BIRD	129	n/a	1	n/a	n/a	n/a	n/a	n/a
2084745	REC_WORD	wordpools/wasnorm_wordpool_less_exclusions.txt	LTP217	ltpFR	6	13	n/a	BLUEBIRD	-1	n/a	n/a	n/a	n/a	n/a	n/a	n/a
2143807	WORD	wordpools/wasnorm_wordpool_less_exclusions.txt	LTP217	ltpFR	6	14	0	LUMBER	848	n/a	1	1	0.412841796875	0.57763671875	upper	../fonts/amplitud.ttf
2148023	WORD	wordpools/wasnorm_wordpool_less_exclusions.txt	LTP217	ltpFR	6	14	0	FIG	563	n/a	0	1	0.412841796875	0.57763671875	upper	../fonts/amplitud.ttf
2151878	WORD	wordpools/wasnorm_wordpool_less_exclusions.txt	LTP217	ltpFR	6	14	0	CONDUCTOR	362	n/a	1	1	0.412841796875	0.57763671875	upper	../fonts/amplitud.ttf
2155776	WORD	wordpools/wasnorm_wordpool_less_exclusions.txt	LTP217	ltpFR	6	14	0	SHOVEL	1295	n/a	1	1	0.412841796875	0.57763671875	upper	../fonts/amplitud.ttf
2159808	WORD	wordpools/wasnorm_wordpool_less_exclusions.txt	LTP217	ltpFR	6	14	1	OMELET	976	n/a	0	0	0.5869140625	0.422607421875	lower	../fonts/zerothre.ttf
2163916	WORD	wordpools/wasnorm_wordpool_less_exclusions.txt	LTP217	ltpFR	6	14	1	OINTMENT	974	n/a	0	0	0.5869140625	0.422607421875	lower	../fonts/zerothre.ttf
2167788	WORD	wordpools/wasnorm_wordpool_less_exclusions.txt	LTP217	ltpFR	6	14	1	JAR	750	n/a	0	0	0.5869140625	0.422607421875	lower	../fonts/zerothre.ttf
2171947	WORD	wordpools/wasnorm_wordpool_less_exclusions.txt	LTP217	ltpFR	6	14	1	DIGGER	464	n/a	3	0	0.5869140625	0.422607421875	lower	../fonts/zerothre.ttf
2173811	KEY_MSG	n/a	LTP217	ltpFR	6	14	n/a	n/a	n/a	n/a	n/a	n/a	n/a	n/a	n/a	n/a
2176405	WORD	wordpools/wasnorm_wordpool_less_exclusions.txt	LTP217	ltpFR	6	14	0	SCAPEGOAT	1244	n/a	1	1	0.412841796875	0.57763671875	upper	../fonts/amplitud.ttf
2180570	WORD	wordpools/wasnorm_wordpool_less_exclusions.txt	LTP217	ltpFR	6	14	0	ABDOMEN	1	n/a	1	1	0.412841796875	0.57763671875	upper	../fonts/amplitud.ttf
2184635	WORD	wordpools/wasnorm_wordpool_less_exclusions.txt	LTP217	ltpFR	6	14	0	INTESTINE	742	n/a	1	1	0.412841796875	0.57763671875	upper	../fonts/amplitud.ttf
2188650	WORD	wordpools/wasnorm_wordpool_less_exclusions.txt	LTP217	ltpFR	6	14	0	TUBA	1515	n/a	1	1	0.412841796875	0.57763671875	upper	../fonts/amplitud.ttf
2192866	WORD	wordpools/wasnorm_wordpool_less_exclusions.txt	LTP217	ltpFR	6	14	1	PRIMATE	1123	n/a	1	0	0.5869140625	0.422607421875	lower	../fonts/zerothre.ttf
2196797	WORD	wordpools/wasnorm_wordpool_less_exclusions.txt	LTP217	ltpFR	6	14	1	BEDROOM	111	n/a	0	0	0.5869140625	0.422607421875	lower	../fonts/zerothre.ttf
2200879	WORD	wordpools/wasnorm_wordpool_less_exclusions.txt	LTP217	ltpFR	6	14	1	BAG	69	n/a	0	0	0.5869140625	0.422607421875	lower	../fonts/zerothre.ttf
2204938	WORD	wordpools/wasnorm_wordpool_less_exclusions.txt	LTP217	ltpFR	6	14	1	BEAVER	109	n/a	1	0	0.5869140625	0.422607421875	lower	../fonts/zerothre.ttf
2210567	REC_START	n/a	LTP217	ltpFR	6	14	n/a	n/a	n/a	n/a	n/a	n/a	n/a	n/a	n/a	n/a
2211157	REC_WORD	wordpools/wasnorm_wordpool_less_exclusions.txt	LTP217	ltpFR	6	14	1	BEAVER	109	n/a	1	n/a	n/a	n/a	n/a	n/a
2211939	REC_WORD	wordpools/wasnorm_wordpool_less_exclusions.txt	LTP217	ltpFR	6	14	1	BAG	69	n/a	0	n/a	n/a	n/a	n/a	n/a
2212862	REC_WORD	wordpools/wasnorm_wordpool_less_exclusions.txt	LTP217	ltpFR	6	14	1	BEDROOM	111	n/a	0	n/a	n/a	n/a	n/a	n/a
2214528	REC_WORD	wordpools/wasnorm_wordpool_less_exclusions.txt	LTP217	ltpFR	6	14	0	CONDUCTOR	362	n/a	1	n/a	n/a	n/a	n/a	n/a
2215550	REC_WORD	wordpools/wasnorm_wordpool_less_exclusions.txt	LTP217	ltpFR	6	14	1	PRIMATE	1123	n/a	1	n/a	n/a	n/a	n/a	n/a
2221434	REC_WORD_VV	wordpools/wasnorm_wordpool_less_exclusions.txt	LTP217	ltpFR	6	14	n/a	<>	-1	n/a	n/a	n/a	n/a	n/a	n/a	n/a
2223542	REC_WORD	wordpools/wasnorm_wordpool_less_exclusions.txt	LTP217	ltpFR	6	14	0	FIG	563	n/a	0	n/a	n/a	n/a	n/a	n/a
2242414	REC_WORD	wordpools/wasnorm_wordpool_less_exclusions.txt	LTP217	ltpFR	6	14	1	DIGGER	464	n/a	3	n/a	n/a	n/a	n/a	n/a
2277332	REC_WORD	wordpools/wasnorm_wordpool_less_exclusions.txt	LTP217	ltpFR	6	14	0	LUMBER	848	n/a	1	n/a	n/a	n/a	n/a	n/a
2282848	REC_WORD	wordpools/wasnorm_wordpool_less_exclusions.txt	LTP217	ltpFR	6	14	0	SHOVEL	1295	n/a	1	n/a	n/a	n/a	n/a	n/a
2293454	WORD	wordpools/wasnorm_wordpool_less_exclusions.txt	LTP217	ltpFR	6	15	-1	RUST	1219	n/a	-1	1	1.0	1.0	upper	../fonts/Verdana.ttf
2297327	WORD	wordpools/wasnorm_wordpool_less_exclusions.txt	LTP217	ltpFR	6	15	-1	GROCERIES	663	n/a	-1	1	1.0	1.0	upper	../fonts/Verdana.ttf
2301185	WORD	wordpools/wasnorm_wordpool_less_exclusions.txt	LTP217	ltpFR	6	15	-1	FURNITURE	616	n/a	-1	1	1.0	1.0	upper	../fonts/Verdana.ttf
2305107	WORD	wordpools/wasnorm_wordpool_less_exclusions.txt	LTP217	ltpFR	6	15	-1	WALL	1582	n/a	-1	1	1.0	1.0	upper	../fonts/Verdana.ttf
2309131	WORD	wordpools/wasnorm_wordpool_less_exclusions.txt	LTP217	ltpFR	6	15	-1	VAULT	1550	n/a	-1	1	1.0	1.0	upper	../fonts/Verdana.ttf
2313180	WORD	wordpools/wasnorm_wordpool_less_exclusions.txt	LTP217	ltpFR	6	15	-1	SHORTCAKE	1292	n/a	-1	1	1.0	1.0	upper	../fonts/Verdana.ttf
2317035	WORD	wordpools/wasnorm_wordpool_less_exclusions.txt	LTP217	ltpFR	6	15	-1	PEACH	1031	n/a	-1	1	1.0	1.0	upper	../fonts/Verdana.ttf
2321008	WORD	wordpools/wasnorm_wordpool_less_exclusions.txt	LTP217	ltpFR	6	15	-1	CENT	270	n/a	-1	1	1.0	1.0	upper	../fonts/Verdana.ttf
2325132	WORD	wordpools/wasnorm_wordpool_less_exclusions.txt	LTP217	ltpFR	6	15	-1	BRACELET	163	n/a	-1	1	1.0	1.0	upper	../fonts/Verdana.ttf
2329331	WORD	wordpools/wasnorm_wordpool_less_exclusions.txt	LTP217	ltpFR	6	15	-1	TREASURE	1500	n/a	-1	1	1.0	1.0	upper	../fonts/Verdana.ttf
2333322	WORD	wordpools/wasnorm_wordpool_less_exclusions.txt	LTP217	ltpFR	6	15	-1	GOLD	647	n/a	-1	1	1.0	1.0	upper	../fonts/Verdana.ttf
2337404	WORD	wordpools/wasnorm_wordpool_less_exclusions.txt	LTP217	ltpFR	6	15	-1	ARTICLE	42	n/a	-1	1	1.0	1.0	upper	../fonts/Verdana.ttf
2341493	WORD	wordpools/wasnorm_wordpool_less_exclusions.txt	LTP217	ltpFR	6	15	-1	BANKER	84	n/a	-1	1	1.0	1.0	upper	../fonts/Verdana.ttf
2345467	WORD	wordpools/wasnorm_wordpool_less_exclusions.txt	LTP217	ltpFR	6	15	-1	TOILET	1475	n/a	-1	1	1.0	1.0	upper	../fonts/Verdana.ttf
2349640	WORD	wordpools/wasnorm_wordpool_less_exclusions.txt	LTP217	ltpFR	6	15	-1	DICE	461	n/a	-1	1	1.0	1.0	upper	../fonts/Verdana.ttf
2353839	WORD	wordpools/wasnorm_wordpool_less_exclusions.txt	LTP217	ltpFR	6	15	-1	BASKETBALL	96	n/a	-1	1	1.0	1.0	upper	../fonts/Verdana.ttf
2359478	REC_START	n/a	LTP217	ltpFR	6	15	n/a	n/a	n/a	n/a	n/a	n/a	n/a	n/a	n/a	n/a
2360371	REC_WORD	wordpools/wasnorm_wordpool_less_exclusions.txt	LTP217	ltpFR	6	15	-1	BASKETBALL	96	n/a	-1	n/a	n/a	n/a	n/a	n/a
2361294	REC_WORD	wordpools/wasnorm_wordpool_less_exclusions.txt	LTP217	ltpFR	6	15	-1	BANKER	84	n/a	-1	n/a	n/a	n/a	n/a	n/a
2362321	REC_WORD	wordpools/wasnorm_wordpool_less_exclusions.txt	LTP217	ltpFR	6	15	-1	DICE	461	n/a	-1	n/a	n/a	n/a	n/a	n/a
2363193	REC_WORD	wordpools/wasnorm_wordpool_less_exclusions.txt	LTP217	ltpFR	6	15	-1	TOILET	1475	n/a	-1	n/a	n/a	n/a	n/a	n/a
2364325	REC_WORD	wordpools/wasnorm_wordpool_less_exclusions.txt	LTP217	ltpFR	6	15	-1	GROCERIES	663	n/a	-1	n/a	n/a	n/a	n/a	n/a
2404949	REC_WORD	wordpools/wasnorm_wordpool_less_exclusions.txt	LTP217	ltpFR	6	15	n/a	ITEM	746	n/a	n/a	n/a	n/a	n/a	n/a	n/a
2440292	WORD	wordpools/wasnorm_wordpool_less_exclusions.txt	LTP217	ltpFR	6	16	1	RADISH	1158	n/a	1	0	0.5869140625	0.422607421875	lower	../fonts/zerothre.ttf
2444315	WORD	wordpools/wasnorm_wordpool_less_exclusions.txt	LTP217	ltpFR	6	16	1	PRODUCER	1129	n/a	1	0	0.5869140625	0.422607421875	lower	../fonts/zerothre.ttf
2448162	WORD	wordpools/wasnorm_wordpool_less_exclusions.txt	LTP217	ltpFR	6	16	1	FORK	594	n/a	0	0	0.5869140625	0.422607421875	lower	../fonts/zerothre.ttf
2452161	WORD	wordpools/wasnorm_wordpool_less_exclusions.txt	LTP217	ltpFR	6	16	1	SEAGULL	1261	n/a	1	0	0.5869140625	0.422607421875	lower	../fonts/zerothre.ttf
2456252	WORD	wordpools/wasnorm_wordpool_less_exclusions.txt	LTP217	ltpFR	6	16	1	PANTHER	1009	n/a	1	0	0.5869140625	0.422607421875	lower	../fonts/zerothre.ttf
2460425	WORD	wordpools/wasnorm_wordpool_less_exclusions.txt	LTP217	ltpFR	6	16	1	SLIDE	1326	n/a	0	0	0.5869140625	0.422607421875	lower	../fonts/zerothre.ttf
2464424	WORD	wordpools/wasnorm_wordpool_less_exclusions.txt	LTP217	ltpFR	6	16	1	SERPENT	1270	n/a	1	0	0.5869140625	0.422607421875	lower	../fonts/zerothre.ttf
2468271	WORD	wordpools/wasnorm_wordpool_less_exclusions.txt	LTP217	ltpFR	6	16	1	MUSHROOM	934	n/a	1	0	0.5869140625	0.422607421875	lower	../fonts/zerothre.ttf
2472170	WORD	wordpools/wasnorm_wordpool_less_exclusions.txt	LTP217	ltpFR	6	16	1	CAPE	237	n/a	0	0	0.5869140625	0.422607421875	lower	../fonts/zerothre.ttf
2476194	WORD	wordpools/wasnorm_wordpool_less_exclusions.txt	LTP217	ltpFR	6	16	1	GARDEN	623	n/a	0	0	0.5869140625	0.422607421875	lower	../fonts/zerothre.ttf
2480384	WORD	wordpools/wasnorm_wordpool_less_exclusions.txt	LTP217	ltpFR	6	16	1	DOCUMENT	479	n/a	0	0	0.5869140625	0.422607421875	lower	../fonts/zerothre.ttf
2484291	WORD	wordpools/wasnorm_wordpool_less_exclusions.txt	LTP217	ltpFR	6	16	1	EDITOR	516	n/a	1	0	0.5869140625	0.422607421875	lower	../fonts/zerothre.ttf
2488306	WORD	wordpools/wasnorm_wordpool_less_exclusions.txt	LTP217	ltpFR	6	16	1	CHICK	296	n/a	1	0	0.5869140625	0.422607421875	lower	../fonts/zerothre.ttf
2492413	WORD	wordpools/wasnorm_wordpool_less_exclusions.txt	LTP217	ltpFR	6	16	1	YOLK	1633	n/a	0	0	0.5869140625	0.422607421875	lower	../fonts/zerothre.ttf
2496627	WORD	wordpools/wasnorm_wordpool_less_exclusions.txt	LTP217	ltpFR	6	16	1	TYPEWRITER	1531	n/a	0	0	0.5869140625	0.422607421875	lower	../fonts/zerothre.ttf
2500810	WORD	wordpools/wasnorm_wordpool_less_exclusions.txt	LTP217	ltpFR	6	16	1	LILY	821	n/a	1	0	0.5869140625	0.422607421875	lower	../fonts/zerothre.ttf
2506633	REC_START	n/a	LTP217	ltpFR	6	16	n/a	n/a	n/a	n/a	n/a	n/a	n/a	n/a	n/a	n/a
2508232	REC_WORD	wordpools/wasnorm_wordpool_less_exclusions.txt	LTP217	ltpFR	6	16	1	LILY	821	n/a	1	n/a	n/a	n/a	n/a	n/a
2509137	REC_WORD	wordpools/wasnorm_wordpool_less_exclusions.txt	LTP217	ltpFR	6	16	1	TYPEWRITER	1531	n/a	0	n/a	n/a	n/a	n/a	n/a
2509930	REC_WORD	wordpools/wasnorm_wordpool_less_exclusions.txt	LTP217	ltpFR	6	16	1	PRODUCER	1129	n/a	1	n/a	n/a	n/a	n/a	n/a
2512879	REC_WORD	wordpools/wasnorm_wordpool_less_exclusions.txt	LTP217	ltpFR	6	16	1	CHICK	296	n/a	1	n/a	n/a	n/a	n/a	n/a
2519089	REC_WORD	wordpools/wasnorm_wordpool_less_exclusions.txt	LTP217	ltpFR	6	16	1	RADISH	1158	n/a	1	n/a	n/a	n/a	n/a	n/a
2523168	REC_WORD	wordpools/wasnorm_wordpool_less_exclusions.txt	LTP217	ltpFR	6	16	1	GARDEN	623	n/a	0	n/a	n/a	n/a	n/a	n/a
2527144	REC_WORD	wordpools/wasnorm_wordpool_less_exclusions.txt	LTP217	ltpFR	6	16	1	FORK	594	n/a	0	n/a	n/a	n/a	n/a	n/a
2531064	REC_WORD	wordpools/wasnorm_wordpool_less_exclusions.txt	LTP217	ltpFR	6	16	1	YOLK	1633	n/a	0	n/a	n/a	n/a	n/a	n/a
2541129	REC_WORD	wordpools/wasnorm_wordpool_less_exclusions.txt	LTP217	ltpFR	6	16	1	EDITOR	516	n/a	1	n/a	n/a	n/a	n/a	n/a
2542097	REC_WORD	wordpools/wasnorm_wordpool_less_exclusions.txt	LTP217	ltpFR	6	16	1	TYPEWRITER	1531	n/a	0	n/a	n/a	n/a	n/a	n/a
2556938	REC_WORD	wordpools/wasnorm_wordpool_less_exclusions.txt	LTP217	ltpFR	6	16	1	PANTHER	1009	n/a	1	n/a	n/a	n/a	n/a	n/a
2566262	REC_WORD	wordpools/wasnorm_wordpool_less_exclusions.txt	LTP217	ltpFR	6	16	1	SEAGULL	1261	n/a	1	n/a	n/a	n/a	n/a	n/a
2579710	REC_WORD	wordpools/wasnorm_wordpool_less_exclusions.txt	LTP217	ltpFR	6	16	1	GARDEN	623	n/a	0	n/a	n/a	n/a	n/a	n/a
2658172	REC_START	n/a	LTP217	ltpFR	6	1	n/a	n/a	n/a	n/a	n/a	n/a	n/a	n/a	n/a	n/a
2658221	RECOG_TARGET	n/a	LTP217	ltpFR	6	1	1	PIT	1077	5	0	n/a	n/a	n/a	n/a	n/a
2660581	RECOG_RESP	n/a	LTP217	ltpFR	6	1	1	PIT	1077	n/a	0	n/a	n/a	n/a	n/a	n/a
2662030	RECOG_CONF	n/a	LTP217	ltpFR	6	1	1	PIT	1077	5	0	n/a	n/a	n/a	n/a	n/a
2664119	RECOG_LURE	n/a	LTP217	ltpFR	6	1	n/a	BARK	87	5	n/a	n/a	n/a	n/a	n/a	n/a
2665588	RECOG_RESP	n/a	LTP217	ltpFR	6	1	n/a	BARK	87	n/a	n/a	n/a	n/a	n/a	n/a	n/a
2666660	RECOG_CONF	n/a	LTP217	ltpFR	6	1	n/a	BARK	87	5	n/a	n/a	n/a	n/a	n/a	n/a
2668642	RECOG_TARGET	n/a	LTP217	ltpFR	6	1	1	FLESH	579	5	1	n/a	n/a	n/a	n/a	n/a
2669496	RECOG_RESP	n/a	LTP217	ltpFR	6	1	1	FLESH	579	n/a	1	n/a	n/a	n/a	n/a	n/a
2670449	RECOG_CONF	n/a	LTP217	ltpFR	6	1	1	FLESH	579	5	1	n/a	n/a	n/a	n/a	n/a
2672408	RECOG_TARGET	n/a	LTP217	ltpFR	6	1	1	CASHIER	254	5	1	n/a	n/a	n/a	n/a	n/a
2674782	RECOG_RESP	n/a	LTP217	ltpFR	6	1	1	CASHIER	254	n/a	1	n/a	n/a	n/a	n/a	n/a
2675766	RECOG_CONF	n/a	LTP217	ltpFR	6	1	1	CASHIER	254	5	1	n/a	n/a	n/a	n/a	n/a
2678079	RECOG_TARGET	n/a	LTP217	ltpFR	6	1	1	GARDEN	623	5	0	n/a	n/a	n/a	n/a	n/a
2678849	RECOG_RESP	n/a	LTP217	ltpFR	6	1	1	GARDEN	623	n/a	0	n/a	n/a	n/a	n/a	n/a
2679839	RECOG_CONF	n/a	LTP217	ltpFR	6	1	1	GARDEN	623	5	0	n/a	n/a	n/a	n/a	n/a
2681667	RECOG_TARGET	n/a	LTP217	ltpFR	6	1	0	BACKBONE	66	5	1	n/a	n/a	n/a	n/a	n/a
2682422	RECOG_RESP	n/a	LTP217	ltpFR	6	1	0	BACKBONE	66	n/a	1	n/a	n/a	n/a	n/a	n/a
2683360	RECOG_CONF	n/a	LTP217	ltpFR	6	1	0	BACKBONE	66	5	1	n/a	n/a	n/a	n/a	n/a
2685249	RECOG_TARGET	n/a	LTP217	ltpFR	6	1	0	SIREN	1310	1	1	n/a	n/a	n/a	n/a	n/a
2688820	RECOG_RESP	n/a	LTP217	ltpFR	6	1	0	SIREN	1310	n/a	1	n/a	n/a	n/a	n/a	n/a
2689821	RECOG_CONF	n/a	LTP217	ltpFR	6	1	0	SIREN	1310	1	1	n/a	n/a	n/a	n/a	n/a
2692065	RECOG_LURE	n/a	LTP217	ltpFR	6	1	n/a	COCOON	339	5	n/a	n/a	n/a	n/a	n/a	n/a
2693208	RECOG_RESP	n/a	LTP217	ltpFR	6	1	n/a	COCOON	339	n/a	n/a	n/a	n/a	n/a	n/a	n/a
2694180	RECOG_CONF	n/a	LTP217	ltpFR	6	1	n/a	COCOON	339	5	n/a	n/a	n/a	n/a	n/a	n/a
2696264	RECOG_TARGET	n/a	LTP217	ltpFR	6	1	1	FRIEND	606	5	1	n/a	n/a	n/a	n/a	n/a
2697146	RECOG_RESP	n/a	LTP217	ltpFR	6	1	1	FRIEND	606	n/a	1	n/a	n/a	n/a	n/a	n/a
2698162	RECOG_CONF	n/a	LTP217	ltpFR	6	1	1	FRIEND	606	5	1	n/a	n/a	n/a	n/a	n/a
2700071	RECOG_TARGET	n/a	LTP217	ltpFR	6	1	0	BLUEJAY	141	5	0	n/a	n/a	n/a	n/a	n/a
2701268	RECOG_RESP	n/a	LTP217	ltpFR	6	1	0	BLUEJAY	141	n/a	0	n/a	n/a	n/a	n/a	n/a
2702249	RECOG_CONF	n/a	LTP217	ltpFR	6	1	0	BLUEJAY	141	5	0	n/a	n/a	n/a	n/a	n/a
2704321	RECOG_LURE	n/a	LTP217	ltpFR	6	1	n/a	VETERAN	1561	5	n/a	n/a	n/a	n/a	n/a	n/a
2705182	RECOG_RESP	n/a	LTP217	ltpFR	6	1	n/a	VETERAN	1561	n/a	n/a	n/a	n/a	n/a	n/a	n/a
2706115	RECOG_CONF	n/a	LTP217	ltpFR	6	1	n/a	VETERAN	1561	5	n/a	n/a	n/a	n/a	n/a	n/a
2708118	RECOG_TARGET	n/a	LTP217	ltpFR	6	1	0	SHELF	1280	5	1	n/a	n/a	n/a	n/a	n/a
2709201	RECOG_RESP	n/a	LTP217	ltpFR	6	1	0	SHELF	1280	n/a	1	n/a	n/a	n/a	n/a	n/a
2710174	RECOG_CONF	n/a	LTP217	ltpFR	6	1	0	SHELF	1280	5	1	n/a	n/a	n/a	n/a	n/a
2712157	RECOG_LURE	n/a	LTP217	ltpFR	6	1	n/a	DAUGHTER	442	5	n/a	n/a	n/a	n/a	n/a	n/a
2713661	RECOG_RESP	n/a	LTP217	ltpFR	6	1	n/a	DAUGHTER	442	n/a	n/a	n/a	n/a	n/a	n/a	n/a
2714585	RECOG_CONF	n/a	LTP217	ltpFR	6	1	n/a	DAUGHTER	442	5	n/a	n/a	n/a	n/a	n/a	n/a
2716373	RECOG_LURE	n/a	LTP217	ltpFR	6	1	n/a	PARSLEY	1016	5	n/a	n/a	n/a	n/a	n/a	n/a
2717402	RECOG_RESP	n/a	LTP217	ltpFR	6	1	n/a	PARSLEY	1016	n/a	n/a	n/a	n/a	n/a	n/a	n/a
2718345	RECOG_CONF	n/a	LTP217	ltpFR	6	1	n/a	PARSLEY	1016	5	n/a	n/a	n/a	n/a	n/a	n/a
2720154	RECOG_LURE	n/a	LTP217	ltpFR	6	1	n/a	SKETCH	1315	5	n/a	n/a	n/a	n/a	n/a	n/a
2721697	RECOG_RESP	n/a	LTP217	ltpFR	6	1	n/a	SKETCH	1315	n/a	n/a	n/a	n/a	n/a	n/a	n/a
2722559	RECOG_CONF	n/a	LTP217	ltpFR	6	1	n/a	SKETCH	1315	5	n/a	n/a	n/a	n/a	n/a	n/a
2724553	RECOG_TARGET	n/a	LTP217	ltpFR	6	1	0	BARN	89	5	1	n/a	n/a	n/a	n/a	n/a
2725392	RECOG_RESP	n/a	LTP217	ltpFR	6	1	0	BARN	89	n/a	1	n/a	n/a	n/a	n/a	n/a
2726374	RECOG_CONF	n/a	LTP217	ltpFR	6	1	0	BARN	89	5	1	n/a	n/a	n/a	n/a	n/a
2728168	RECOG_TARGET	n/a	LTP217	ltpFR	6	1	0	BEVERAGE	123	5	0	n/a	n/a	n/a	n/a	n/a
2728959	RECOG_RESP	n/a	LTP217	ltpFR	6	1	0	BEVERAGE	123	n/a	0	n/a	n/a	n/a	n/a	n/a
2729913	RECOG_CONF	n/a	LTP217	ltpFR	6	1	0	BEVERAGE	123	5	0	n/a	n/a	n/a	n/a	n/a
2731780	RECOG_TARGET	n/a	LTP217	ltpFR	6	1	-1	CHESS	294	5	-1	n/a	n/a	n/a	n/a	n/a
2732806	RECOG_RESP	n/a	LTP217	ltpFR	6	1	-1	CHESS	294	n/a	-1	n/a	n/a	n/a	n/a	n/a
2733741	RECOG_CONF	n/a	LTP217	ltpFR	6	1	-1	CHESS	294	5	-1	n/a	n/a	n/a	n/a	n/a
2735662	RECOG_TARGET	n/a	LTP217	ltpFR	6	1	1	PEDESTRIAN	1038	5	1	n/a	n/a	n/a	n/a	n/a
2736651	RECOG_RESP	n/a	LTP217	ltpFR	6	1	1	PEDESTRIAN	1038	n/a	1	n/a	n/a	n/a	n/a	n/a
2737572	RECOG_CONF	n/a	LTP217	ltpFR	6	1	1	PEDESTRIAN	1038	5	1	n/a	n/a	n/a	n/a	n/a
2739443	RECOG_TARGET	n/a	LTP217	ltpFR	6	1	1	PORCUPINE	1107	5	1	n/a	n/a	n/a	n/a	n/a
2740224	RECOG_RESP	n/a	LTP217	ltpFR	6	1	1	PORCUPINE	1107	n/a	1	n/a	n/a	n/a	n/a	n/a
2741151	RECOG_CONF	n/a	LTP217	ltpFR	6	1	1	PORCUPINE	1107	5	1	n/a	n/a	n/a	n/a	n/a
2745991	REC_START	n/a	LTP217	ltpFR	6	2	n/a	n/a	n/a	n/a	n/a	n/a	n/a	n/a	n/a	n/a
2746044	RECOG_TARGET	n/a	LTP217	ltpFR	6	2	0	TAPIOCA	1434	1	0	n/a	n/a	n/a	n/a	n/a
2751957	RECOG_RESP	n/a	LTP217	ltpFR	6	2	0	TAPIOCA	1434	n/a	0	n/a	n/a	n/a	n/a	n/a
2753509	RECOG_CONF	n/a	LTP217	ltpFR	6	2	0	TAPIOCA	1434	1	0	n/a	n/a	n/a	n/a	n/a
2755503	RECOG_LURE	n/a	LTP217	ltpFR	6	2	n/a	SKUNK	1321	5	n/a	n/a	n/a	n/a	n/a	n/a
2756986	RECOG_RESP_VV	n/a	LTP217	ltpFR	6	2	n/a	SKUNK	1321	n/a	n/a	n/a	n/a	n/a	n/a	n/a
2757882	RECOG_RESP	n/a	LTP217	ltpFR	6	2	n/a	SKUNK	1321	n/a	n/a	n/a	n/a	n/a	n/a	n/a
2759216	RECOG_CONF	n/a	LTP217	ltpFR	6	2	n/a	SKUNK	1321	5	n/a	n/a	n/a	n/a	n/a	n/a
2761226	RECOG_TARGET	n/a	LTP217	ltpFR	6	2	1	BANDANNA	80	5	0	n/a	n/a	n/a	n/a	n/a
2762092	RECOG_RESP	n/a	LTP217	ltpFR	6	2	1	BANDANNA	80	n/a	0	n/a	n/a	n/a	n/a	n/a
2763107	RECOG_CONF	n/a	LTP217	ltpFR	6	2	1	BANDANNA	80	5	0	n/a	n/a	n/a	n/a	n/a
2764972	RECOG_LURE	n/a	LTP217	ltpFR	6	2	n/a	JEEP	753	5	n/a	n/a	n/a	n/a	n/a	n/a
2766007	RECOG_RESP	n/a	LTP217	ltpFR	6	2	n/a	JEEP	753	n/a	n/a	n/a	n/a	n/a	n/a	n/a
2767019	RECOG_CONF	n/a	LTP217	ltpFR	6	2	n/a	JEEP	753	5	n/a	n/a	n/a	n/a	n/a	n/a
2768853	RECOG_LURE	n/a	LTP217	ltpFR	6	2	n/a	PARCEL	1012	5	n/a	n/a	n/a	n/a	n/a	n/a
2770062	RECOG_RESP	n/a	LTP217	ltpFR	6	2	n/a	PARCEL	1012	n/a	n/a	n/a	n/a	n/a	n/a	n/a
2771018	RECOG_CONF	n/a	LTP217	ltpFR	6	2	n/a	PARCEL	1012	5	n/a	n/a	n/a	n/a	n/a	n/a
2772945	RECOG_TARGET	n/a	LTP217	ltpFR	6	2	1	LILY	821	5	1	n/a	n/a	n/a	n/a	n/a
2773863	RECOG_RESP	n/a	LTP217	ltpFR	6	2	1	LILY	821	n/a	1	n/a	n/a	n/a	n/a	n/a
2774803	RECOG_CONF	n/a	LTP217	ltpFR	6	2	1	LILY	821	5	1	n/a	n/a	n/a	n/a	n/a
2776766	RECOG_TARGET	n/a	LTP217	ltpFR	6	2	0	TAPE	1433	1	0	n/a	n/a	n/a	n/a	n/a
2780659	RECOG_RESP	n/a	LTP217	ltpFR	6	2	0	TAPE	1433	n/a	0	n/a	n/a	n/a	n/a	n/a
2781725	RECOG_CONF	n/a	LTP217	ltpFR	6	2	0	TAPE	1433	1	0	n/a	n/a	n/a	n/a	n/a
2783693	RECOG_TARGET	n/a	LTP217	ltpFR	6	2	0	EWE	542	5	1	n/a	n/a	n/a	n/a	n/a
2784510	RECOG_RESP	n/a	LTP217	ltpFR	6	2	0	EWE	542	n/a	1	n/a	n/a	n/a	n/a	n/a
2785462	RECOG_CONF	n/a	LTP217	ltpFR	6	2	0	EWE	542	5	1	n/a	n/a	n/a	n/a	n/a
2787483	RECOG_LURE	n/a	LTP217	ltpFR	6	2	n/a	DELINQUENT	445	5	n/a	n/a	n/a	n/a	n/a	n/a
2788474	RECOG_RESP	n/a	LTP217	ltpFR	6	2	n/a	DELINQUENT	445	n/a	n/a	n/a	n/a	n/a	n/a	n/a
2789379	RECOG_CONF	n/a	LTP217	ltpFR	6	2	n/a	DELINQUENT	445	5	n/a	n/a	n/a	n/a	n/a	n/a
2791365	RECOG_TARGET	n/a	LTP217	ltpFR	6	2	0	FACTORY	548	5	1	n/a	n/a	n/a	n/a	n/a
2792106	RECOG_RESP	n/a	LTP217	ltpFR	6	2	0	FACTORY	548	n/a	1	n/a	n/a	n/a	n/a	n/a
2793030	RECOG_CONF	n/a	LTP217	ltpFR	6	2	0	FACTORY	548	5	1	n/a	n/a	n/a	n/a	n/a
2794918	RECOG_TARGET	n/a	LTP217	ltpFR	6	2	0	SADDLE	1221	5	1	n/a	n/a	n/a	n/a	n/a
2795680	RECOG_RESP	n/a	LTP217	ltpFR	6	2	0	SADDLE	1221	n/a	1	n/a	n/a	n/a	n/a	n/a
2796669	RECOG_CONF	n/a	LTP217	ltpFR	6	2	0	SADDLE	1221	5	1	n/a	n/a	n/a	n/a	n/a
2798649	RECOG_LURE	n/a	LTP217	ltpFR	6	2	n/a	BUTTER	205	5	n/a	n/a	n/a	n/a	n/a	n/a
2800095	RECOG_RESP	n/a	LTP217	ltpFR	6	2	n/a	BUTTER	205	n/a	n/a	n/a	n/a	n/a	n/a	n/a
2801714	RECOG_CONF	n/a	LTP217	ltpFR	6	2	n/a	BUTTER	205	5	n/a	n/a	n/a	n/a	n/a	n/a
2803594	RECOG_LURE	n/a	LTP217	ltpFR	6	2	n/a	PLIERS	1089	5	n/a	n/a	n/a	n/a	n/a	n/a
2804592	RECOG_RESP	n/a	LTP217	ltpFR	6	2	n/a	PLIERS	1089	n/a	n/a	n/a	n/a	n/a	n/a	n/a
2805561	RECOG_CONF	n/a	LTP217	ltpFR	6	2	n/a	PLIERS	1089	5	n/a	n/a	n/a	n/a	n/a	n/a
2807349	RECOG_LURE	n/a	LTP217	ltpFR	6	2	n/a	QUILL	1150	5	n/a	n/a	n/a	n/a	n/a	n/a
2808545	RECOG_RESP	n/a	LTP217	ltpFR	6	2	n/a	QUILL	1150	n/a	n/a	n/a	n/a	n/a	n/a	n/a
2809479	RECOG_CONF	n/a	LTP217	ltpFR	6	2	n/a	QUILL	1150	5	n/a	n/a	n/a	n/a	n/a	n/a
2811481	RECOG_TARGET	n/a	LTP217	ltpFR	6	2	0	TROPHY	1509	5	0	n/a	n/a	n/a	n/a	n/a
2812415	RECOG_RESP	n/a	LTP217	ltpFR	6	2	0	TROPHY	1509	n/a	0	n/a	n/a	n/a	n/a	n/a
2813301	RECOG_CONF	n/a	LTP217	ltpFR	6	2	0	TROPHY	1509	5	0	n/a	n/a	n/a	n/a	n/a
2815322	RECOG_LURE	n/a	LTP217	ltpFR	6	2	n/a	FLEA	577	3	n/a	n/a	n/a	n/a	n/a	n/a
2817969	RECOG_RESP	n/a	LTP217	ltpFR	6	2	n/a	FLEA	577	n/a	n/a	n/a	n/a	n/a	n/a	n/a
2819043	RECOG_CONF	n/a	LTP217	ltpFR	6	2	n/a	FLEA	577	3	n/a	n/a	n/a	n/a	n/a	n/a
2821044	RECOG_TARGET	n/a	LTP217	ltpFR	6	2	1	SEED	1266	5	1	n/a	n/a	n/a	n/a	n/a
2821957	RECOG_RESP	n/a	LTP217	ltpFR	6	2	1	SEED	1266	n/a	1	n/a	n/a	n/a	n/a	n/a
2822833	RECOG_CONF	n/a	LTP217	ltpFR	6	2	1	SEED	1266	5	1	n/a	n/a	n/a	n/a	n/a
2824773	RECOG_TARGET	n/a	LTP217	ltpFR	6	2	1	PANTHER	1009	5	1	n/a	n/a	n/a	n/a	n/a
2825500	RECOG_RESP	n/a	LTP217	ltpFR	6	2	1	PANTHER	1009	n/a	1	n/a	n/a	n/a	n/a	n/a
2826436	RECOG_CONF	n/a	LTP217	ltpFR	6	2	1	PANTHER	1009	5	1	n/a	n/a	n/a	n/a	n/a
2828422	RECOG_LURE	n/a	LTP217	ltpFR	6	2	n/a	BULL	193	5	n/a	n/a	n/a	n/a	n/a	n/a
2830270	RECOG_RESP	n/a	LTP217	ltpFR	6	2	n/a	BULL	193	n/a	n/a	n/a	n/a	n/a	n/a	n/a
2831449	RECOG_CONF	n/a	LTP217	ltpFR	6	2	n/a	BULL	193	5	n/a	n/a	n/a	n/a	n/a	n/a
2833340	RECOG_TARGET	n/a	LTP217	ltpFR	6	2	1	DOCUMENT	479	5	0	n/a	n/a	n/a	n/a	n/a
2834094	RECOG_RESP	n/a	LTP217	ltpFR	6	2	1	DOCUMENT	479	n/a	0	n/a	n/a	n/a	n/a	n/a
2835024	RECOG_CONF	n/a	LTP217	ltpFR	6	2	1	DOCUMENT	479	5	0	n/a	n/a	n/a	n/a	n/a
2839131	REC_START	n/a	LTP217	ltpFR	6	3	n/a	n/a	n/a	n/a	n/a	n/a	n/a	n/a	n/a	n/a
2839186	RECOG_TARGET	n/a	LTP217	ltpFR	6	3	1	GLOBE	641	5	0	n/a	n/a	n/a	n/a	n/a
2840914	RECOG_RESP	n/a	LTP217	ltpFR	6	3	1	GLOBE	641	n/a	0	n/a	n/a	n/a	n/a	n/a
2842506	RECOG_CONF	n/a	LTP217	ltpFR	6	3	1	GLOBE	641	5	0	n/a	n/a	n/a	n/a	n/a
2844382	RECOG_TARGET	n/a	LTP217	ltpFR	6	3	0	ENCYCLOPEDIA	533	5	1	n/a	n/a	n/a	n/a	n/a
2845227	RECOG_RESP	n/a	LTP217	ltpFR	6	3	0	ENCYCLOPEDIA	533	n/a	1	n/a	n/a	n/a	n/a	n/a
2846146	RECOG_CONF	n/a	LTP217	ltpFR	6	3	0	ENCYCLOPEDIA	533	5	1	n/a	n/a	n/a	n/a	n/a
2848079	RECOG_TARGET	n/a	LTP217	ltpFR	6	3	1	CUE	422	5	0	n/a	n/a	n/a	n/a	n/a
2848821	RECOG_RESP	n/a	LTP217	ltpFR	6	3	1	CUE	422	n/a	0	n/a	n/a	n/a	n/a	n/a
2849777	RECOG_CONF	n/a	LTP217	ltpFR	6	3	1	CUE	422	5	0	n/a	n/a	n/a	n/a	n/a
2851625	RECOG_TARGET	n/a	LTP217	ltpFR	6	3	-1	SUBWAY	1400	5	-1	n/a	n/a	n/a	n/a	n/a
2852369	RECOG_RESP	n/a	LTP217	ltpFR	6	3	-1	SUBWAY	1400	n/a	-1	n/a	n/a	n/a	n/a	n/a
2853272	RECOG_CONF	n/a	LTP217	ltpFR	6	3	-1	SUBWAY	1400	5	-1	n/a	n/a	n/a	n/a	n/a
2855196	RECOG_TARGET	n/a	LTP217	ltpFR	6	3	0	FLANNEL	574	5	1	n/a	n/a	n/a	n/a	n/a
2855891	RECOG_RESP	n/a	LTP217	ltpFR	6	3	0	FLANNEL	574	n/a	1	n/a	n/a	n/a	n/a	n/a
2856825	RECOG_CONF	n/a	LTP217	ltpFR	6	3	0	FLANNEL	574	5	1	n/a	n/a	n/a	n/a	n/a
2858675	RECOG_LURE	n/a	LTP217	ltpFR	6	3	n/a	RODENT	1204	5	n/a	n/a	n/a	n/a	n/a	n/a
2859864	RECOG_RESP	n/a	LTP217	ltpFR	6	3	n/a	RODENT	1204	n/a	n/a	n/a	n/a	n/a	n/a	n/a
2860838	RECOG_CONF	n/a	LTP217	ltpFR	6	3	n/a	RODENT	1204	5	n/a	n/a	n/a	n/a	n/a	n/a
2862891	RECOG_TARGET	n/a	LTP217	ltpFR	6	3	1	ATOM	55	5	0	n/a	n/a	n/a	n/a	n/a
2863705	RECOG_RESP	n/a	LTP217	ltpFR	6	3	1	ATOM	55	n/a	0	n/a	n/a	n/a	n/a	n/a
2864569	RECOG_CONF	n/a	LTP217	ltpFR	6	3	1	ATOM	55	5	0	n/a	n/a	n/a	n/a	n/a
2866405	RECOG_LURE	n/a	LTP217	ltpFR	6	3	n/a	WHISTLE	1606	1	n/a	n/a	n/a	n/a	n/a	n/a
2868700	RECOG_RESP	n/a	LTP217	ltpFR	6	3	n/a	WHISTLE	1606	n/a	n/a	n/a	n/a	n/a	n/a	n/a
2872085	RECOG_CONF	n/a	LTP217	ltpFR	6	3	n/a	WHISTLE	1606	1	n/a	n/a	n/a	n/a	n/a	n/a
2873933	RECOG_LURE	n/a	LTP217	ltpFR	6	3	n/a	JUPITER	765	5	n/a	n/a	n/a	n/a	n/a	n/a
2875013	RECOG_RESP	n/a	LTP217	ltpFR	6	3	n/a	JUPITER	765	n/a	n/a	n/a	n/a	n/a	n/a	n/a
2875838	RECOG_CONF	n/a	LTP217	ltpFR	6	3	n/a	JUPITER	765	5	n/a	n/a	n/a	n/a	n/a	n/a
2877780	RECOG_TARGET	n/a	LTP217	ltpFR	6	3	1	SLIDE	1326	5	0	n/a	n/a	n/a	n/a	n/a
2878509	RECOG_RESP	n/a	LTP217	ltpFR	6	3	1	SLIDE	1326	n/a	0	n/a	n/a	n/a	n/a	n/a
2879430	RECOG_CONF	n/a	LTP217	ltpFR	6	3	1	SLIDE	1326	5	0	n/a	n/a	n/a	n/a	n/a
2881194	RECOG_LURE	n/a	LTP217	ltpFR	6	3	n/a	DRILL	497	5	n/a	n/a	n/a	n/a	n/a	n/a
2882158	RECOG_RESP	n/a	LTP217	ltpFR	6	3	n/a	DRILL	497	n/a	n/a	n/a	n/a	n/a	n/a	n/a
2883048	RECOG_CONF	n/a	LTP217	ltpFR	6	3	n/a	DRILL	497	5	n/a	n/a	n/a	n/a	n/a	n/a
2884907	RECOG_TARGET	n/a	LTP217	ltpFR	6	3	0	PIANO	1057	5	1	n/a	n/a	n/a	n/a	n/a
2885709	RECOG_RESP	n/a	LTP217	ltpFR	6	3	0	PIANO	1057	n/a	1	n/a	n/a	n/a	n/a	n/a
2886639	RECOG_CONF	n/a	LTP217	ltpFR	6	3	0	PIANO	1057	5	1	n/a	n/a	n/a	n/a	n/a
2888504	RECOG_LURE	n/a	LTP217	ltpFR	6	3	n/a	WAITRESS	1581	5	n/a	n/a	n/a	n/a	n/a	n/a
2890135	RECOG_RESP	n/a	LTP217	ltpFR	6	3	n/a	WAITRESS	1581	n/a	n/a	n/a	n/a	n/a	n/a	n/a
2891317	RECOG_CONF	n/a	LTP217	ltpFR	6	3	n/a	WAITRESS	1581	5	n/a	n/a	n/a	n/a	n/a	n/a
2893099	RECOG_TARGET	n/a	LTP217	ltpFR	6	3	1	NEWSPAPER	948	5	0	n/a	n/a	n/a	n/a	n/a
2898912	RECOG_RESP	n/a	LTP217	ltpFR	6	3	1	NEWSPAPER	948	n/a	0	n/a	n/a	n/a	n/a	n/a
2900108	RECOG_CONF	n/a	LTP217	ltpFR	6	3	1	NEWSPAPER	948	5	0	n/a	n/a	n/a	n/a	n/a
2902066	RECOG_TARGET	n/a	LTP217	ltpFR	6	3	1	NOTEBOOK	959	5	0	n/a	n/a	n/a	n/a	n/a
2902936	RECOG_RESP_VV	n/a	LTP217	ltpFR	6	3	1	NOTEBOOK	959	n/a	0	n/a	n/a	n/a	n/a	n/a
2905356	RECOG_RESP	n/a	LTP217	ltpFR	6	3	1	NOTEBOOK	959	n/a	0	n/a	n/a	n/a	n/a	n/a
2907482	RECOG_CONF	n/a	LTP217	ltpFR	6	3	1	NOTEBOOK	959	5	0	n/a	n/a	n/a	n/a	n/a
2908373	RECOG_LURE	n/a	LTP217	ltpFR	6	3	n/a	MICROSCOPE	891	5	n/a	n/a	n/a	n/a	n/a	n/a
2909696	RECOG_RESP	n/a	LTP217	ltpFR	6	3	n/a	MICROSCOPE	891	n/a	n/a	n/a	n/a	n/a	n/a	n/a
2910598	RECOG_CONF	n/a	LTP217	ltpFR	6	3	n/a	MICROSCOPE	891	5	n/a	n/a	n/a	n/a	n/a	n/a
2912545	RECOG_LURE	n/a	LTP217	ltpFR	6	3	n/a	PEARL	1034	5	n/a	n/a	n/a	n/a	n/a	n/a
2916834	RECOG_RESP	n/a	LTP217	ltpFR	6	3	n/a	PEARL	1034	n/a	n/a	n/a	n/a	n/a	n/a	n/a
2917614	RECOG_CONF	n/a	LTP217	ltpFR	6	3	n/a	PEARL	1034	5	n/a	n/a	n/a	n/a	n/a	n/a
2919547	RECOG_TARGET	n/a	LTP217	ltpFR	6	3	0	BUGGY	188	5	1	n/a	n/a	n/a	n/a	n/a
2920341	RECOG_RESP	n/a	LTP217	ltpFR	6	3	0	BUGGY	188	n/a	1	n/a	n/a	n/a	n/a	n/a
2921267	RECOG_CONF	n/a	LTP217	ltpFR	6	3	0	BUGGY	188	5	1	n/a	n/a	n/a	n/a	n/a
2923353	RECOG_LURE	n/a	LTP217	ltpFR	6	3	n/a	MEDICINE	886	5	n/a	n/a	n/a	n/a	n/a	n/a
2924212	RECOG_RESP	n/a	LTP217	ltpFR	6	3	n/a	MEDICINE	886	n/a	n/a	n/a	n/a	n/a	n/a	n/a
2925094	RECOG_CONF	n/a	LTP217	ltpFR	6	3	n/a	MEDICINE	886	5	n/a	n/a	n/a	n/a	n/a	n/a
2927093	RECOG_TARGET	n/a	LTP217	ltpFR	6	3	-1	TANK	1432	5	-1	n/a	n/a	n/a	n/a	n/a
2927822	RECOG_RESP	n/a	LTP217	ltpFR	6	3	-1	TANK	1432	n/a	-1	n/a	n/a	n/a	n/a	n/a
2928730	RECOG_CONF	n/a	LTP217	ltpFR	6	3	-1	TANK	1432	5	-1	n/a	n/a	n/a	n/a	n/a
2933018	REC_START	n/a	LTP217	ltpFR	6	4	n/a	n/a	n/a	n/a	n/a	n/a	n/a	n/a	n/a	n/a
2933073	RECOG_TARGET	n/a	LTP217	ltpFR	6	4	0	OX	994	5	1	n/a	n/a	n/a	n/a	n/a
2934039	RECOG_RESP	n/a	LTP217	ltpFR	6	4	0	OX	994	n/a	1	n/a	n/a	n/a	n/a	n/a
2934963	RECOG_CONF	n/a	LTP217	ltpFR	6	4	0	OX	994	5	1	n/a	n/a	n/a	n/a	n/a
2936930	RECOG_TARGET	n/a	LTP217	ltpFR	6	4	1	FORK	594	5	0	n/a	n/a	n/a	n/a	n/a
2937717	RECOG_RESP	n/a	LTP217	ltpFR	6	4	1	FORK	594	n/a	0	n/a	n/a	n/a	n/a	n/a
2938557	RECOG_CONF	n/a	LTP217	ltpFR	6	4	1	FORK	594	5	0	n/a	n/a	n/a	n/a	n/a
2940377	RECOG_LURE	n/a	LTP217	ltpFR	6	4	n/a	SUNSET	1408	5	n/a	n/a	n/a	n/a	n/a	n/a
2941219	RECOG_RESP	n/a	LTP217	ltpFR	6	4	n/a	SUNSET	1408	n/a	n/a	n/a	n/a	n/a	n/a	n/a
2942114	RECOG_CONF	n/a	LTP217	ltpFR	6	4	n/a	SUNSET	1408	5	n/a	n/a	n/a	n/a	n/a	n/a
2944023	RECOG_TARGET	n/a	LTP217	ltpFR	6	4	-1	MARINE	869	5	-1	n/a	n/a	n/a	n/a	n/a
2944795	RECOG_RESP	n/a	LTP217	ltpFR	6	4	-1	MARINE	869	n/a	-1	n/a	n/a	n/a	n/a	n/a
2945651	RECOG_CONF	n/a	LTP217	ltpFR	6	4	-1	MARINE	869	5	-1	n/a	n/a	n/a	n/a	n/a
2947636	RECOG_TARGET	n/a	LTP217	ltpFR	6	4	0	MONSTER	912	5	1	n/a	n/a	n/a	n/a	n/a
2948306	RECOG_RESP	n/a	LTP217	ltpFR	6	4	0	MONSTER	912	n/a	1	n/a	n/a	n/a	n/a	n/a
2949182	RECOG_CONF	n/a	LTP217	ltpFR	6	4	0	MONSTER	912	5	1	n/a	n/a	n/a	n/a	n/a
2951125	RECOG_TARGET	n/a	LTP217	ltpFR	6	4	1	EDITOR	516	5	1	n/a	n/a	n/a	n/a	n/a
2951930	RECOG_RESP	n/a	LTP217	ltpFR	6	4	1	EDITOR	516	n/a	1	n/a	n/a	n/a	n/a	n/a
2952768	RECOG_CONF	n/a	LTP217	ltpFR	6	4	1	EDITOR	516	5	1	n/a	n/a	n/a	n/a	n/a
2954730	RECOG_LURE	n/a	LTP217	ltpFR	6	4	n/a	PERMIT	1051	5	n/a	n/a	n/a	n/a	n/a	n/a
2955805	RECOG_RESP	n/a	LTP217	ltpFR	6	4	n/a	PERMIT	1051	n/a	n/a	n/a	n/a	n/a	n/a	n/a
2956692	RECOG_CONF	n/a	LTP217	ltpFR	6	4	n/a	PERMIT	1051	5	n/a	n/a	n/a	n/a	n/a	n/a
2958461	RECOG_LURE	n/a	LTP217	ltpFR	6	4	n/a	CLIMBER	323	5	n/a	n/a	n/a	n/a	n/a	n/a
2960048	RECOG_RESP	n/a	LTP217	ltpFR	6	4	n/a	CLIMBER	323	n/a	n/a	n/a	n/a	n/a	n/a	n/a
2961209	RECOG_CONF	n/a	LTP217	ltpFR	6	4	n/a	CLIMBER	323	5	n/a	n/a	n/a	n/a	n/a	n/a
2963112	RECOG_TARGET	n/a	LTP217	ltpFR	6	4	1	PLUM	1090	1	1	n/a	n/a	n/a	n/a	n/a
2968720	RECOG_RESP	n/a	LTP217	ltpFR	6	4	1	PLUM	1090	n/a	1	n/a	n/a	n/a	n/a	n/a
2969793	RECOG_CONF	n/a	LTP217	ltpFR	6	4	1	PLUM	1090	1	1	n/a	n/a	n/a	n/a	n/a
2971835	RECOG_LURE	n/a	LTP217	ltpFR	6	4	n/a	FEATHER	557	5	n/a	n/a	n/a	n/a	n/a	n/a
2972836	RECOG_RESP	n/a	LTP217	ltpFR	6	4	n/a	FEATHER	557	n/a	n/a	n/a	n/a	n/a	n/a	n/a
2973622	RECOG_CONF	n/a	LTP217	ltpFR	6	4	n/a	FEATHER	557	5	n/a	n/a	n/a	n/a	n/a	n/a
2975433	RECOG_TARGET	n/a	LTP217	ltpFR	6	4	0	STAPLER	1372	5	0	n/a	n/a	n/a	n/a	n/a
2976170	RECOG_RESP	n/a	LTP217	ltpFR	6	4	0	STAPLER	1372	n/a	0	n/a	n/a	n/a	n/a	n/a
2977089	RECOG_CONF	n/a	LTP217	ltpFR	6	4	0	STAPLER	1372	5	0	n/a	n/a	n/a	n/a	n/a
2979113	RECOG_TARGET	n/a	LTP217	ltpFR	6	4	-1	BANKER	84	5	-1	n/a	n/a	n/a	n/a	n/a
2980086	RECOG_RESP	n/a	LTP217	ltpFR	6	4	-1	BANKER	84	n/a	-1	n/a	n/a	n/a	n/a	n/a
2980951	RECOG_CONF	n/a	LTP217	ltpFR	6	4	-1	BANKER	84	5	-1	n/a	n/a	n/a	n/a	n/a
2982927	RECOG_LURE	n/a	LTP217	ltpFR	6	4	n/a	THIEF	1456	5	n/a	n/a	n/a	n/a	n/a	n/a
2984049	RECOG_RESP	n/a	LTP217	ltpFR	6	4	n/a	THIEF	1456	n/a	n/a	n/a	n/a	n/a	n/a	n/a
2984920	RECOG_CONF	n/a	LTP217	ltpFR	6	4	n/a	THIEF	1456	5	n/a	n/a	n/a	n/a	n/a	n/a
2986751	RECOG_TARGET	n/a	LTP217	ltpFR	6	4	-1	VAULT	1550	5	-1	n/a	n/a	n/a	n/a	n/a
2987509	RECOG_RESP	n/a	LTP217	ltpFR	6	4	-1	VAULT	1550	n/a	-1	n/a	n/a	n/a	n/a	n/a
2988404	RECOG_CONF	n/a	LTP217	ltpFR	6	4	-1	VAULT	1550	5	-1	n/a	n/a	n/a	n/a	n/a
2990289	RECOG_LURE	n/a	LTP217	ltpFR	6	4	n/a	CONTINENT	367	5	n/a	n/a	n/a	n/a	n/a	n/a
2991161	RECOG_RESP	n/a	LTP217	ltpFR	6	4	n/a	CONTINENT	367	n/a	n/a	n/a	n/a	n/a	n/a	n/a
2992089	RECOG_CONF	n/a	LTP217	ltpFR	6	4	n/a	CONTINENT	367	5	n/a	n/a	n/a	n/a	n/a	n/a
2993968	RECOG_TARGET	n/a	LTP217	ltpFR	6	4	-1	PEACH	1031	1	-1	n/a	n/a	n/a	n/a	n/a
2995186	RECOG_RESP	n/a	LTP217	ltpFR	6	4	-1	PEACH	1031	n/a	-1	n/a	n/a	n/a	n/a	n/a
2996204	RECOG_CONF	n/a	LTP217	ltpFR	6	4	-1	PEACH	1031	1	-1	n/a	n/a	n/a	n/a	n/a
2998144	RECOG_TARGET	n/a	LTP217	ltpFR	6	4	0	FIG	563	5	0	n/a	n/a	n/a	n/a	n/a
2999162	RECOG_RESP	n/a	LTP217	ltpFR	6	4	0	FIG	563	n/a	0	n/a	n/a	n/a	n/a	n/a
3000093	RECOG_CONF	n/a	LTP217	ltpFR	6	4	0	FIG	563	5	0	n/a	n/a	n/a	n/a	n/a
3001932	RECOG_TARGET	n/a	LTP217	ltpFR	6	4	1	OMELET	976	5	0	n/a	n/a	n/a	n/a	n/a
3002806	RECOG_RESP	n/a	LTP217	ltpFR	6	4	1	OMELET	976	n/a	0	n/a	n/a	n/a	n/a	n/a
3003681	RECOG_CONF	n/a	LTP217	ltpFR	6	4	1	OMELET	976	5	0	n/a	n/a	n/a	n/a	n/a
3005538	RECOG_LURE	n/a	LTP217	ltpFR	6	4	n/a	CATCHER	258	1	n/a	n/a	n/a	n/a	n/a	n/a
3006497	RECOG_RESP	n/a	LTP217	ltpFR	6	4	n/a	CATCHER	258	n/a	n/a	n/a	n/a	n/a	n/a	n/a
3007456	RECOG_CONF	n/a	LTP217	ltpFR	6	4	n/a	CATCHER	258	1	n/a	n/a	n/a	n/a	n/a	n/a
3009153	RECOG_TARGET	n/a	LTP217	ltpFR	6	4	-1	ESCALATOR	539	5	-1	n/a	n/a	n/a	n/a	n/a
3009859	RECOG_RESP	n/a	LTP217	ltpFR	6	4	-1	ESCALATOR	539	n/a	-1	n/a	n/a	n/a	n/a	n/a
3010778	RECOG_CONF	n/a	LTP217	ltpFR	6	4	-1	ESCALATOR	539	5	-1	n/a	n/a	n/a	n/a	n/a
3015030	REC_START	n/a	LTP217	ltpFR	6	5	n/a	n/a	n/a	n/a	n/a	n/a	n/a	n/a	n/a	n/a
3015082	RECOG_TARGET	n/a	LTP217	ltpFR	6	5	1	SLEEVE	1324	5	0	n/a	n/a	n/a	n/a	n/a
3015803	RECOG_RESP	n/a	LTP217	ltpFR	6	5	1	SLEEVE	1324	n/a	0	n/a	n/a	n/a	n/a	n/a
3016671	RECOG_CONF	n/a	LTP217	ltpFR	6	5	1	SLEEVE	1324	5	0	n/a	n/a	n/a	n/a	n/a
3018594	RECOG_TARGET	n/a	LTP217	ltpFR	6	5	0	PLAYGROUND	1087	1	1	n/a	n/a	n/a	n/a	n/a
3021094	RECOG_RESP_VV	n/a	LTP217	ltpFR	6	5	0	PLAYGROUND	1087	n/a	1	n/a	n/a	n/a	n/a	n/a
3030673	RECOG_RESP	n/a	LTP217	ltpFR	6	5	0	PLAYGROUND	1087	n/a	1	n/a	n/a	n/a	n/a	n/a
3031531	RECOG_RESP_VV	n/a	LTP217	ltpFR	6	5	0	PLAYGROUND	1087	1	1	n/a	n/a	n/a	n/a	n/a
3033948	RECOG_CONF	n/a	LTP217	ltpFR	6	5	0	PLAYGROUND	1087	1	1	n/a	n/a	n/a	n/a	n/a
3035819	RECOG_TARGET	n/a	LTP217	ltpFR	6	5	-1	CARAVAN	242	5	-1	n/a	n/a	n/a	n/a	n/a
3036624	RECOG_RESP	n/a	LTP217	ltpFR	6	5	-1	CARAVAN	242	n/a	-1	n/a	n/a	n/a	n/a	n/a
3037499	RECOG_CONF	n/a	LTP217	ltpFR	6	5	-1	CARAVAN	242	5	-1	n/a	n/a	n/a	n/a	n/a
3039149	RECOG_TARGET	n/a	LTP217	ltpFR	6	5	1	SEAGULL	1261	3	1	n/a	n/a	n/a	n/a	n/a
3042020	RECOG_RESP	n/a	LTP217	ltpFR	6	5	1	SEAGULL	1261	n/a	1	n/a	n/a	n/a	n/a	n/a
3043842	RECOG_CONF	n/a	LTP217	ltpFR	6	5	1	SEAGULL	1261	3	1	n/a	n/a	n/a	n/a	n/a
3045840	RECOG_TARGET	n/a	LTP217	ltpFR	6	5	0	SEAL	1262	5	1	n/a	n/a	n/a	n/a	n/a
3046753	RECOG_RESP	n/a	LTP217	ltpFR	6	5	0	SEAL	1262	n/a	1	n/a	n/a	n/a	n/a	n/a
3047598	RECOG_CONF	n/a	LTP217	ltpFR	6	5	0	SEAL	1262	5	1	n/a	n/a	n/a	n/a	n/a
3049504	RECOG_LURE	n/a	LTP217	ltpFR	6	5	n/a	ADOLESCENT	7	5	n/a	n/a	n/a	n/a	n/a	n/a
3051316	RECOG_RESP	n/a	LTP217	ltpFR	6	5	n/a	ADOLESCENT	7	n/a	n/a	n/a	n/a	n/a	n/a	n/a
3052317	RECOG_CONF	n/a	LTP217	ltpFR	6	5	n/a	ADOLESCENT	7	5	n/a	n/a	n/a	n/a	n/a	n/a
3054247	RECOG_TARGET	n/a	LTP217	ltpFR	6	5	-1	SIDING	1304	5	-1	n/a	n/a	n/a	n/a	n/a
3055241	RECOG_RESP	n/a	LTP217	ltpFR	6	5	-1	SIDING	1304	n/a	-1	n/a	n/a	n/a	n/a	n/a
3056166	RECOG_CONF	n/a	LTP217	ltpFR	6	5	-1	SIDING	1304	5	-1	n/a	n/a	n/a	n/a	n/a
3058195	RECOG_TARGET	n/a	LTP217	ltpFR	6	5	1	OTTER	986	5	1	n/a	n/a	n/a	n/a	n/a
3058970	RECOG_RESP_VV	n/a	LTP217	ltpFR	6	5	1	OTTER	986	n/a	1	n/a	n/a	n/a	n/a	n/a
3063014	RECOG_RESP	n/a	LTP217	ltpFR	6	5	1	OTTER	986	n/a	1	n/a	n/a	n/a	n/a	n/a
3064423	RECOG_CONF	n/a	LTP217	ltpFR	6	5	1	OTTER	986	5	1	n/a	n/a	n/a	n/a	n/a
3067128	RECOG_TARGET	n/a	LTP217	ltpFR	6	5	1	PICTURE	1061	1	0	n/a	n/a	n/a	n/a	n/a
3069674	RECOG_RESP	n/a	LTP217	ltpFR	6	5	1	PICTURE	1061	n/a	0	n/a	n/a	n/a	n/a	n/a
3070648	RECOG_CONF	n/a	LTP217	ltpFR	6	5	1	PICTURE	1061	1	0	n/a	n/a	n/a	n/a	n/a
3072474	RECOG_TARGET	n/a	LTP217	ltpFR	6	5	-1	WALL	1582	5	-1	n/a	n/a	n/a	n/a	n/a
3074933	RECOG_RESP	n/a	LTP217	ltpFR	6	5	-1	WALL	1582	n/a	-1	n/a	n/a	n/a	n/a	n/a
3075770	RECOG_CONF	n/a	LTP217	ltpFR	6	5	-1	WALL	1582	5	-1	n/a	n/a	n/a	n/a	n/a
3077526	RECOG_TARGET	n/a	LTP217	ltpFR	6	5	-1	TABLET	1427	5	-1	n/a	n/a	n/a	n/a	n/a
3078695	RECOG_RESP	n/a	LTP217	ltpFR	6	5	-1	TABLET	1427	n/a	-1	n/a	n/a	n/a	n/a	n/a
3079569	RECOG_CONF	n/a	LTP217	ltpFR	6	5	-1	TABLET	1427	5	-1	n/a	n/a	n/a	n/a	n/a
3081349	RECOG_LURE	n/a	LTP217	ltpFR	6	5	n/a	PICKLE	1059	5	n/a	n/a	n/a	n/a	n/a	n/a
3082374	RECOG_RESP	n/a	LTP217	ltpFR	6	5	n/a	PICKLE	1059	n/a	n/a	n/a	n/a	n/a	n/a	n/a
3083306	RECOG_CONF	n/a	LTP217	ltpFR	6	5	n/a	PICKLE	1059	5	n/a	n/a	n/a	n/a	n/a	n/a
3085189	RECOG_TARGET	n/a	LTP217	ltpFR	6	5	0	PIGEON	1065	2	1	n/a	n/a	n/a	n/a	n/a
3087069	RECOG_RESP	n/a	LTP217	ltpFR	6	5	0	PIGEON	1065	n/a	1	n/a	n/a	n/a	n/a	n/a
3088301	RECOG_CONF	n/a	LTP217	ltpFR	6	5	0	PIGEON	1065	2	1	n/a	n/a	n/a	n/a	n/a
3090191	RECOG_TARGET	n/a	LTP217	ltpFR	6	5	-1	GROCERIES	663	5	-1	n/a	n/a	n/a	n/a	n/a
3091188	RECOG_RESP	n/a	LTP217	ltpFR	6	5	-1	GROCERIES	663	n/a	-1	n/a	n/a	n/a	n/a	n/a
3092045	RECOG_CONF	n/a	LTP217	ltpFR	6	5	-1	GROCERIES	663	5	-1	n/a	n/a	n/a	n/a	n/a
3093854	RECOG_TARGET	n/a	LTP217	ltpFR	6	5	0	SCARECROW	1245	5	1	n/a	n/a	n/a	n/a	n/a
3094604	RECOG_RESP	n/a	LTP217	ltpFR	6	5	0	SCARECROW	1245	n/a	1	n/a	n/a	n/a	n/a	n/a
3095502	RECOG_CONF	n/a	LTP217	ltpFR	6	5	0	SCARECROW	1245	5	1	n/a	n/a	n/a	n/a	n/a
3097435	RECOG_LURE	n/a	LTP217	ltpFR	6	5	n/a	ACTRESS	6	5	n/a	n/a	n/a	n/a	n/a	n/a
3098354	RECOG_RESP	n/a	LTP217	ltpFR	6	5	n/a	ACTRESS	6	n/a	n/a	n/a	n/a	n/a	n/a	n/a
3099263	RECOG_CONF	n/a	LTP217	ltpFR	6	5	n/a	ACTRESS	6	5	n/a	n/a	n/a	n/a	n/a	n/a
3101149	RECOG_TARGET	n/a	LTP217	ltpFR	6	5	0	FLEET	578	5	1	n/a	n/a	n/a	n/a	n/a
3101947	RECOG_RESP	n/a	LTP217	ltpFR	6	5	0	FLEET	578	n/a	1	n/a	n/a	n/a	n/a	n/a
3102875	RECOG_CONF	n/a	LTP217	ltpFR	6	5	0	FLEET	578	5	1	n/a	n/a	n/a	n/a	n/a
3104669	RECOG_LURE	n/a	LTP217	ltpFR	6	5	n/a	FEMALE	559	5	n/a	n/a	n/a	n/a	n/a	n/a
3106547	RECOG_RESP	n/a	LTP217	ltpFR	6	5	n/a	FEMALE	559	n/a	n/a	n/a	n/a	n/a	n/a	n/a
3107541	RECOG_CONF	n/a	LTP217	ltpFR	6	5	n/a	FEMALE	559	5	n/a	n/a	n/a	n/a	n/a	n/a
3109520	RECOG_TARGET	n/a	LTP217	ltpFR	6	5	0	SHARK	1275	5	1	n/a	n/a	n/a	n/a	n/a
3110175	RECOG_RESP	n/a	LTP217	ltpFR	6	5	0	SHARK	1275	n/a	1	n/a	n/a	n/a	n/a	n/a
3111122	RECOG_CONF	n/a	LTP217	ltpFR	6	5	0	SHARK	1275	5	1	n/a	n/a	n/a	n/a	n/a
3113128	RECOG_TARGET	n/a	LTP217	ltpFR	6	5	0	APPLICATION	34	5	0	n/a	n/a	n/a	n/a	n/a
3113882	RECOG_RESP	n/a	LTP217	ltpFR	6	5	0	APPLICATION	34	n/a	0	n/a	n/a	n/a	n/a	n/a
3114799	RECOG_CONF	n/a	LTP217	ltpFR	6	5	0	APPLICATION	34	5	0	n/a	n/a	n/a	n/a	n/a
3119274	REC_START	n/a	LTP217	ltpFR	6	6	n/a	n/a	n/a	n/a	n/a	n/a	n/a	n/a	n/a	n/a
3119342	RECOG_TARGET	n/a	LTP217	ltpFR	6	6	-1	TOURIST	1488	5	-1	n/a	n/a	n/a	n/a	n/a
3120047	RECOG_RESP	n/a	LTP217	ltpFR	6	6	-1	TOURIST	1488	n/a	-1	n/a	n/a	n/a	n/a	n/a
3120870	RECOG_CONF	n/a	LTP217	ltpFR	6	6	-1	TOURIST	1488	5	-1	n/a	n/a	n/a	n/a	n/a
3122720	RECOG_TARGET	n/a	LTP217	ltpFR	6	6	0	CREEK	404	5	1	n/a	n/a	n/a	n/a	n/a
3123584	RECOG_RESP	n/a	LTP217	ltpFR	6	6	0	CREEK	404	n/a	1	n/a	n/a	n/a	n/a	n/a
3124579	RECOG_CONF	n/a	LTP217	ltpFR	6	6	0	CREEK	404	5	1	n/a	n/a	n/a	n/a	n/a
3126460	RECOG_TARGET	n/a	LTP217	ltpFR	6	6	0	WRIST	1626	5	0	n/a	n/a	n/a	n/a	n/a
3127101	RECOG_RESP	n/a	LTP217	ltpFR	6	6	0	WRIST	1626	n/a	0	n/a	n/a	n/a	n/a	n/a
3128002	RECOG_CONF	n/a	LTP217	ltpFR	6	6	0	WRIST	1626	5	0	n/a	n/a	n/a	n/a	n/a
3129764	RECOG_TARGET	n/a	LTP217	ltpFR	6	6	-1	LIEUTENANT	818	5	-1	n/a	n/a	n/a	n/a	n/a
3130458	RECOG_RESP	n/a	LTP217	ltpFR	6	6	-1	LIEUTENANT	818	n/a	-1	n/a	n/a	n/a	n/a	n/a
3131358	RECOG_CONF	n/a	LTP217	ltpFR	6	6	-1	LIEUTENANT	818	5	-1	n/a	n/a	n/a	n/a	n/a
3133177	RECOG_TARGET	n/a	LTP217	ltpFR	6	6	1	JOKER	759	1	1	n/a	n/a	n/a	n/a	n/a
3134487	RECOG_RESP_VV	n/a	LTP217	ltpFR	6	6	1	JOKER	759	n/a	1	n/a	n/a	n/a	n/a	n/a
3136434	RECOG_RESP	n/a	LTP217	ltpFR	6	6	1	JOKER	759	n/a	1	n/a	n/a	n/a	n/a	n/a
3139104	RECOG_CONF	n/a	LTP217	ltpFR	6	6	1	JOKER	759	1	1	n/a	n/a	n/a	n/a	n/a
3141117	RECOG_TARGET	n/a	LTP217	ltpFR	6	6	1	BOULDER	155	5	0	n/a	n/a	n/a	n/a	n/a
3142112	RECOG_RESP	n/a	LTP217	ltpFR	6	6	1	BOULDER	155	n/a	0	n/a	n/a	n/a	n/a	n/a
3142971	RECOG_CONF	n/a	LTP217	ltpFR	6	6	1	BOULDER	155	5	0	n/a	n/a	n/a	n/a	n/a
3144947	RECOG_TARGET	n/a	LTP217	ltpFR	6	6	-1	FOE	587	5	-1	n/a	n/a	n/a	n/a	n/a
3145634	RECOG_RESP	n/a	LTP217	ltpFR	6	6	-1	FOE	587	n/a	-1	n/a	n/a	n/a	n/a	n/a
3146513	RECOG_CONF	n/a	LTP217	ltpFR	6	6	-1	FOE	587	5	-1	n/a	n/a	n/a	n/a	n/a
3148451	RECOG_LURE	n/a	LTP217	ltpFR	6	6	n/a	MALL	860	5	n/a	n/a	n/a	n/a	n/a	n/a
3150199	RECOG_RESP	n/a	LTP217	ltpFR	6	6	n/a	MALL	860	n/a	n/a	n/a	n/a	n/a	n/a	n/a
3151134	RECOG_CONF	n/a	LTP217	ltpFR	6	6	n/a	MALL	860	5	n/a	n/a	n/a	n/a	n/a	n/a
3153119	RECOG_LURE	n/a	LTP217	ltpFR	6	6	n/a	CANE	231	5	n/a	n/a	n/a	n/a	n/a	n/a
3154054	RECOG_RESP	n/a	LTP217	ltpFR	6	6	n/a	CANE	231	n/a	n/a	n/a	n/a	n/a	n/a	n/a
3154998	RECOG_CONF	n/a	LTP217	ltpFR	6	6	n/a	CANE	231	5	n/a	n/a	n/a	n/a	n/a	n/a
3156775	RECOG_TARGET	n/a	LTP217	ltpFR	6	6	0	KETCHUP	771	3	0	n/a	n/a	n/a	n/a	n/a
3159667	RECOG_RESP	n/a	LTP217	ltpFR	6	6	0	KETCHUP	771	n/a	0	n/a	n/a	n/a	n/a	n/a
3160951	RECOG_CONF	n/a	LTP217	ltpFR	6	6	0	KETCHUP	771	3	0	n/a	n/a	n/a	n/a	n/a
3162781	RECOG_TARGET	n/a	LTP217	ltpFR	6	6	1	PICNIC	1060	5	0	n/a	n/a	n/a	n/a	n/a
3163538	RECOG_RESP	n/a	LTP217	ltpFR	6	6	1	PICNIC	1060	n/a	0	n/a	n/a	n/a	n/a	n/a
3164451	RECOG_CONF	n/a	LTP217	ltpFR	6	6	1	PICNIC	1060	5	0	n/a	n/a	n/a	n/a	n/a
3166245	RECOG_TARGET	n/a	LTP217	ltpFR	6	6	-1	BASKETBALL	96	5	-1	n/a	n/a	n/a	n/a	n/a
3167284	RECOG_RESP	n/a	LTP217	ltpFR	6	6	-1	BASKETBALL	96	n/a	-1	n/a	n/a	n/a	n/a	n/a
3168182	RECOG_CONF	n/a	LTP217	ltpFR	6	6	-1	BASKETBALL	96	5	-1	n/a	n/a	n/a	n/a	n/a
3170143	RECOG_TARGET	n/a	LTP217	ltpFR	6	6	0	LOG	841	5	1	n/a	n/a	n/a	n/a	n/a
3171858	RECOG_RESP	n/a	LTP217	ltpFR	6	6	0	LOG	841	n/a	1	n/a	n/a	n/a	n/a	n/a
3172886	RECOG_CONF	n/a	LTP217	ltpFR	6	6	0	LOG	841	5	1	n/a	n/a	n/a	n/a	n/a
3174649	RECOG_LURE	n/a	LTP217	ltpFR	6	6	n/a	NAIL	936	5	n/a	n/a	n/a	n/a	n/a	n/a
3175965	RECOG_RESP	n/a	LTP217	ltpFR	6	6	n/a	NAIL	936	n/a	n/a	n/a	n/a	n/a	n/a	n/a
3177269	RECOG_CONF	n/a	LTP217	ltpFR	6	6	n/a	NAIL	936	5	n/a	n/a	n/a	n/a	n/a	n/a
3179067	RECOG_LURE	n/a	LTP217	ltpFR	6	6	n/a	RADIATOR	1156	5	n/a	n/a	n/a	n/a	n/a	n/a
3180208	RECOG_RESP	n/a	LTP217	ltpFR	6	6	n/a	RADIATOR	1156	n/a	n/a	n/a	n/a	n/a	n/a	n/a
3181094	RECOG_CONF	n/a	LTP217	ltpFR	6	6	n/a	RADIATOR	1156	5	n/a	n/a	n/a	n/a	n/a	n/a
3182981	RECOG_LURE	n/a	LTP217	ltpFR	6	6	n/a	HEATER	698	5	n/a	n/a	n/a	n/a	n/a	n/a
3184047	RECOG_RESP	n/a	LTP217	ltpFR	6	6	n/a	HEATER	698	n/a	n/a	n/a	n/a	n/a	n/a	n/a
3184905	RECOG_CONF	n/a	LTP217	ltpFR	6	6	n/a	HEATER	698	5	n/a	n/a	n/a	n/a	n/a	n/a
3186888	RECOG_TARGET	n/a	LTP217	ltpFR	6	6	0	BACK	65	5	1	n/a	n/a	n/a	n/a	n/a
3187638	RECOG_RESP	n/a	LTP217	ltpFR	6	6	0	BACK	65	n/a	1	n/a	n/a	n/a	n/a	n/a
3188546	RECOG_CONF	n/a	LTP217	ltpFR	6	6	0	BACK	65	5	1	n/a	n/a	n/a	n/a	n/a
3190443	RECOG_TARGET	n/a	LTP217	ltpFR	6	6	-1	DRIVEWAY	500	5	-1	n/a	n/a	n/a	n/a	n/a
3191201	RECOG_RESP	n/a	LTP217	ltpFR	6	6	-1	DRIVEWAY	500	n/a	-1	n/a	n/a	n/a	n/a	n/a
3192123	RECOG_CONF	n/a	LTP217	ltpFR	6	6	-1	DRIVEWAY	500	5	-1	n/a	n/a	n/a	n/a	n/a
3193855	RECOG_LURE	n/a	LTP217	ltpFR	6	6	n/a	YOUTH	1634	3	n/a	n/a	n/a	n/a	n/a	n/a
3195667	RECOG_RESP	n/a	LTP217	ltpFR	6	6	n/a	YOUTH	1634	n/a	n/a	n/a	n/a	n/a	n/a	n/a
3197291	RECOG_CONF	n/a	LTP217	ltpFR	6	6	n/a	YOUTH	1634	3	n/a	n/a	n/a	n/a	n/a	n/a
3199169	RECOG_LURE	n/a	LTP217	ltpFR	6	6	n/a	PLANT	1083	5	n/a	n/a	n/a	n/a	n/a	n/a
3202520	RECOG_RESP	n/a	LTP217	ltpFR	6	6	n/a	PLANT	1083	n/a	n/a	n/a	n/a	n/a	n/a	n/a
3204226	RECOG_CONF	n/a	LTP217	ltpFR	6	6	n/a	PLANT	1083	5	n/a	n/a	n/a	n/a	n/a	n/a
3208605	REC_START	n/a	LTP217	ltpFR	6	7	n/a	n/a	n/a	n/a	n/a	n/a	n/a	n/a	n/a	n/a
3208661	RECOG_TARGET	n/a	LTP217	ltpFR	6	7	1	PENGUIN	1044	5	1	n/a	n/a	n/a	n/a	n/a
3209508	RECOG_RESP	n/a	LTP217	ltpFR	6	7	1	PENGUIN	1044	n/a	1	n/a	n/a	n/a	n/a	n/a
3210597	RECOG_CONF	n/a	LTP217	ltpFR	6	7	1	PENGUIN	1044	5	1	n/a	n/a	n/a	n/a	n/a
3212318	RECOG_LURE	n/a	LTP217	ltpFR	6	7	n/a	CLOSET	326	5	n/a	n/a	n/a	n/a	n/a	n/a
3213283	RECOG_RESP	n/a	LTP217	ltpFR	6	7	n/a	CLOSET	326	n/a	n/a	n/a	n/a	n/a	n/a	n/a
3214256	RECOG_CONF	n/a	LTP217	ltpFR	6	7	n/a	CLOSET	326	5	n/a	n/a	n/a	n/a	n/a	n/a
3216166	RECOG_LURE	n/a	LTP217	ltpFR	6	7	n/a	CUSTARD	429	5	n/a	n/a	n/a	n/a	n/a	n/a
3217058	RECOG_RESP	n/a	LTP217	ltpFR	6	7	n/a	CUSTARD	429	n/a	n/a	n/a	n/a	n/a	n/a	n/a
3217964	RECOG_CONF	n/a	LTP217	ltpFR	6	7	n/a	CUSTARD	429	5	n/a	n/a	n/a	n/a	n/a	n/a
3219769	RECOG_TARGET	n/a	LTP217	ltpFR	6	7	1	SAND	1230	5	0	n/a	n/a	n/a	n/a	n/a
3220548	RECOG_RESP	n/a	LTP217	ltpFR	6	7	1	SAND	1230	n/a	0	n/a	n/a	n/a	n/a	n/a
3221421	RECOG_CONF	n/a	LTP217	ltpFR	6	7	1	SAND	1230	5	0	n/a	n/a	n/a	n/a	n/a
3223217	RECOG_TARGET	n/a	LTP217	ltpFR	6	7	0	LINT	826	5	0	n/a	n/a	n/a	n/a	n/a
3224015	RECOG_RESP	n/a	LTP217	ltpFR	6	7	0	LINT	826	n/a	0	n/a	n/a	n/a	n/a	n/a
3224895	RECOG_CONF	n/a	LTP217	ltpFR	6	7	0	LINT	826	5	0	n/a	n/a	n/a	n/a	n/a
3226813	RECOG_LURE	n/a	LTP217	ltpFR	6	7	n/a	TICKET	1464	1	n/a	n/a	n/a	n/a	n/a	n/a
3233715	RECOG_RESP	n/a	LTP217	ltpFR	6	7	n/a	TICKET	1464	n/a	n/a	n/a	n/a	n/a	n/a	n/a
3235357	RECOG_CONF	n/a	LTP217	ltpFR	6	7	n/a	TICKET	1464	1	n/a	n/a	n/a	n/a	n/a	n/a
3237536	RECOG_TARGET	n/a	LTP217	ltpFR	6	7	-1	GOO	648	5	-1	n/a	n/a	n/a	n/a	n/a
3238294	RECOG_RESP	n/a	LTP217	ltpFR	6	7	-1	GOO	648	n/a	-1	n/a	n/a	n/a	n/a	n/a
3239114	RECOG_CONF	n/a	LTP217	ltpFR	6	7	-1	GOO	648	5	-1	n/a	n/a	n/a	n/a	n/a
3240932	RECOG_TARGET	n/a	LTP217	ltpFR	6	7	0	JACKET	747	5	1	n/a	n/a	n/a	n/a	n/a
3241667	RECOG_RESP	n/a	LTP217	ltpFR	6	7	0	JACKET	747	n/a	1	n/a	n/a	n/a	n/a	n/a
3242531	RECOG_CONF	n/a	LTP217	ltpFR	6	7	0	JACKET	747	5	1	n/a	n/a	n/a	n/a	n/a
3244306	RECOG_LURE	n/a	LTP217	ltpFR	6	7	n/a	HEEL	700	5	n/a	n/a	n/a	n/a	n/a	n/a
3245183	RECOG_RESP	n/a	LTP217	ltpFR	6	7	n/a	HEEL	700	n/a	n/a	n/a	n/a	n/a	n/a	n/a
3246104	RECOG_CONF	n/a	LTP217	ltpFR	6	7	n/a	HEEL	700	5	n/a	n/a	n/a	n/a	n/a	n/a
3247918	RECOG_LURE	n/a	LTP217	ltpFR	6	7	n/a	BANQUET	86	5	n/a	n/a	n/a	n/a	n/a	n/a
3249168	RECOG_RESP	n/a	LTP217	ltpFR	6	7	n/a	BANQUET	86	n/a	n/a	n/a	n/a	n/a	n/a	n/a
3250139	RECOG_CONF	n/a	LTP217	ltpFR	6	7	n/a	BANQUET	86	5	n/a	n/a	n/a	n/a	n/a	n/a
3252102	RECOG_TARGET	n/a	LTP217	ltpFR	6	7	0	SCAPEGOAT	1244	5	1	n/a	n/a	n/a	n/a	n/a
3252939	RECOG_RESP	n/a	LTP217	ltpFR	6	7	0	SCAPEGOAT	1244	n/a	1	n/a	n/a	n/a	n/a	n/a
3253817	RECOG_CONF	n/a	LTP217	ltpFR	6	7	0	SCAPEGOAT	1244	5	1	n/a	n/a	n/a	n/a	n/a
3255580	RECOG_LURE	n/a	LTP217	ltpFR	6	7	n/a	EARRING	514	5	n/a	n/a	n/a	n/a	n/a	n/a
3256396	RECOG_RESP_VV	n/a	LTP217	ltpFR	6	7	n/a	EARRING	514	n/a	n/a	n/a	n/a	n/a	n/a	n/a
3256918	RECOG_RESP	n/a	LTP217	ltpFR	6	7	n/a	EARRING	514	n/a	n/a	n/a	n/a	n/a	n/a	n/a
3258121	RECOG_CONF	n/a	LTP217	ltpFR	6	7	n/a	EARRING	514	5	n/a	n/a	n/a	n/a	n/a	n/a
3259904	RECOG_TARGET	n/a	LTP217	ltpFR	6	7	0	PATIO	1025	5	1	n/a	n/a	n/a	n/a	n/a
3260681	RECOG_RESP	n/a	LTP217	ltpFR	6	7	0	PATIO	1025	n/a	1	n/a	n/a	n/a	n/a	n/a
3261553	RECOG_CONF	n/a	LTP217	ltpFR	6	7	0	PATIO	1025	5	1	n/a	n/a	n/a	n/a	n/a
3263377	RECOG_LURE	n/a	LTP217	ltpFR	6	7	n/a	BADGE	68	5	n/a	n/a	n/a	n/a	n/a	n/a
3264389	RECOG_RESP	n/a	LTP217	ltpFR	6	7	n/a	BADGE	68	n/a	n/a	n/a	n/a	n/a	n/a	n/a
3265311	RECOG_CONF	n/a	LTP217	ltpFR	6	7	n/a	BADGE	68	5	n/a	n/a	n/a	n/a	n/a	n/a
3267058	RECOG_LURE	n/a	LTP217	ltpFR	6	7	n/a	SAUCER	1237	1	n/a	n/a	n/a	n/a	n/a	n/a
3269833	RECOG_RESP	n/a	LTP217	ltpFR	6	7	n/a	SAUCER	1237	n/a	n/a	n/a	n/a	n/a	n/a	n/a
3270749	RECOG_CONF	n/a	LTP217	ltpFR	6	7	n/a	SAUCER	1237	1	n/a	n/a	n/a	n/a	n/a	n/a
3272619	RECOG_TARGET	n/a	LTP217	ltpFR	6	7	1	BEDROOM	111	1	0	n/a	n/a	n/a	n/a	n/a
3278672	RECOG_RESP	n/a	LTP217	ltpFR	6	7	1	BEDROOM	111	n/a	0	n/a	n/a	n/a	n/a	n/a
3279716	RECOG_CONF	n/a	LTP217	ltpFR	6	7	1	BEDROOM	111	1	0	n/a	n/a	n/a	n/a	n/a
3281602	RECOG_LURE	n/a	LTP217	ltpFR	6	7	n/a	ROAD	1196	5	n/a	n/a	n/a	n/a	n/a	n/a
3283351	RECOG_RESP	n/a	LTP217	ltpFR	6	7	n/a	ROAD	1196	n/a	n/a	n/a	n/a	n/a	n/a	n/a
3284532	RECOG_CONF	n/a	LTP217	ltpFR	6	7	n/a	ROAD	1196	5	n/a	n/a	n/a	n/a	n/a	n/a
3286264	RECOG_TARGET	n/a	LTP217	ltpFR	6	7	0	PEBBLE	1035	5	0	n/a	n/a	n/a	n/a	n/a
3287330	RECOG_RESP	n/a	LTP217	ltpFR	6	7	0	PEBBLE	1035	n/a	0	n/a	n/a	n/a	n/a	n/a
3288243	RECOG_CONF	n/a	LTP217	ltpFR	6	7	0	PEBBLE	1035	5	0	n/a	n/a	n/a	n/a	n/a
3290152	RECOG_LURE	n/a	LTP217	ltpFR	6	7	n/a	PEPPER	1047	5	n/a	n/a	n/a	n/a	n/a	n/a
3291042	RECOG_RESP	n/a	LTP217	ltpFR	6	7	n/a	PEPPER	1047	n/a	n/a	n/a	n/a	n/a	n/a	n/a
3291896	RECOG_CONF	n/a	LTP217	ltpFR	6	7	n/a	PEPPER	1047	5	n/a	n/a	n/a	n/a	n/a	n/a
3293865	RECOG_TARGET	n/a	LTP217	ltpFR	6	7	0	TREE	1502	5	1	n/a	n/a	n/a	n/a	n/a
3294694	RECOG_RESP	n/a	LTP217	ltpFR	6	7	0	TREE	1502	n/a	1	n/a	n/a	n/a	n/a	n/a
3295642	RECOG_CONF	n/a	LTP217	ltpFR	6	7	0	TREE	1502	5	1	n/a	n/a	n/a	n/a	n/a
3299692	REC_START	n/a	LTP217	ltpFR	6	8	n/a	n/a	n/a	n/a	n/a	n/a	n/a	n/a	n/a	n/a
3299747	RECOG_LURE	n/a	LTP217	ltpFR	6	8	n/a	BISCUIT	130	5	n/a	n/a	n/a	n/a	n/a	n/a
3300695	RECOG_RESP	n/a	LTP217	ltpFR	6	8	n/a	BISCUIT	130	n/a	n/a	n/a	n/a	n/a	n/a	n/a
3301560	RECOG_CONF	n/a	LTP217	ltpFR	6	8	n/a	BISCUIT	130	5	n/a	n/a	n/a	n/a	n/a	n/a
3303385	RECOG_TARGET	n/a	LTP217	ltpFR	6	8	-1	CHALK	276	5	-1	n/a	n/a	n/a	n/a	n/a
3304124	RECOG_RESP	n/a	LTP217	ltpFR	6	8	-1	CHALK	276	n/a	-1	n/a	n/a	n/a	n/a	n/a
3304996	RECOG_CONF	n/a	LTP217	ltpFR	6	8	-1	CHALK	276	5	-1	n/a	n/a	n/a	n/a	n/a
3306814	RECOG_TARGET	n/a	LTP217	ltpFR	6	8	1	LIZARD	834	5	1	n/a	n/a	n/a	n/a	n/a
3307524	RECOG_RESP	n/a	LTP217	ltpFR	6	8	1	LIZARD	834	n/a	1	n/a	n/a	n/a	n/a	n/a
3308429	RECOG_CONF	n/a	LTP217	ltpFR	6	8	1	LIZARD	834	5	1	n/a	n/a	n/a	n/a	n/a
3310378	RECOG_LURE	n/a	LTP217	ltpFR	6	8	n/a	WAITER	1580	1	n/a	n/a	n/a	n/a	n/a	n/a
3313378	RECOG_RESP	n/a	LTP217	ltpFR	6	8	n/a	WAITER	1580	n/a	n/a	n/a	n/a	n/a	n/a	n/a
3314986	RECOG_CONF	n/a	LTP217	ltpFR	6	8	n/a	WAITER	1580	1	n/a	n/a	n/a	n/a	n/a	n/a
3316978	RECOG_TARGET	n/a	LTP217	ltpFR	6	8	1	CATERPILLAR	259	5	1	n/a	n/a	n/a	n/a	n/a
3317661	RECOG_RESP	n/a	LTP217	ltpFR	6	8	1	CATERPILLAR	259	n/a	1	n/a	n/a	n/a	n/a	n/a
3318534	RECOG_CONF	n/a	LTP217	ltpFR	6	8	1	CATERPILLAR	259	5	1	n/a	n/a	n/a	n/a	n/a
3320349	RECOG_TARGET	n/a	LTP217	ltpFR	6	8	1	RADISH	1158	5	1	n/a	n/a	n/a	n/a	n/a
3321018	RECOG_RESP	n/a	LTP217	ltpFR	6	8	1	RADISH	1158	n/a	1	n/a	n/a	n/a	n/a	n/a
3321848	RECOG_CONF	n/a	LTP217	ltpFR	6	8	1	RADISH	1158	5	1	n/a	n/a	n/a	n/a	n/a
3323945	RECOG_TARGET	n/a	LTP217	ltpFR	6	8	0	INTESTINE	742	5	1	n/a	n/a	n/a	n/a	n/a
3324645	RECOG_RESP	n/a	LTP217	ltpFR	6	8	0	INTESTINE	742	n/a	1	n/a	n/a	n/a	n/a	n/a
3325464	RECOG_CONF	n/a	LTP217	ltpFR	6	8	0	INTESTINE	742	5	1	n/a	n/a	n/a	n/a	n/a
3327535	RECOG_TARGET	n/a	LTP217	ltpFR	6	8	1	SQUIRREL	1362	5	1	n/a	n/a	n/a	n/a	n/a
3328408	RECOG_RESP	n/a	LTP217	ltpFR	6	8	1	SQUIRREL	1362	n/a	1	n/a	n/a	n/a	n/a	n/a
3329229	RECOG_CONF	n/a	LTP217	ltpFR	6	8	1	SQUIRREL	1362	5	1	n/a	n/a	n/a	n/a	n/a
3331233	RECOG_TARGET	n/a	LTP217	ltpFR	6	8	1	TWINE	1529	5	1	n/a	n/a	n/a	n/a	n/a
3332040	RECOG_RESP	n/a	LTP217	ltpFR	6	8	1	TWINE	1529	n/a	1	n/a	n/a	n/a	n/a	n/a
3332922	RECOG_CONF	n/a	LTP217	ltpFR	6	8	1	TWINE	1529	5	1	n/a	n/a	n/a	n/a	n/a
3334913	RECOG_LURE	n/a	LTP217	ltpFR	6	8	n/a	PRAIRIE	1118	5	n/a	n/a	n/a	n/a	n/a	n/a
3335785	RECOG_RESP	n/a	LTP217	ltpFR	6	8	n/a	PRAIRIE	1118	n/a	n/a	n/a	n/a	n/a	n/a	n/a
3336626	RECOG_CONF	n/a	LTP217	ltpFR	6	8	n/a	PRAIRIE	1118	5	n/a	n/a	n/a	n/a	n/a	n/a
3338584	RECOG_TARGET	n/a	LTP217	ltpFR	6	8	0	BEETLE	116	5	0	n/a	n/a	n/a	n/a	n/a
3339446	RECOG_RESP	n/a	LTP217	ltpFR	6	8	0	BEETLE	116	n/a	0	n/a	n/a	n/a	n/a	n/a
3340326	RECOG_CONF	n/a	LTP217	ltpFR	6	8	0	BEETLE	116	5	0	n/a	n/a	n/a	n/a	n/a
3342241	RECOG_TARGET	n/a	LTP217	ltpFR	6	8	0	GRASS	655	1	1	n/a	n/a	n/a	n/a	n/a
3344358	RECOG_RESP	n/a	LTP217	ltpFR	6	8	0	GRASS	655	n/a	1	n/a	n/a	n/a	n/a	n/a
3345403	RECOG_CONF	n/a	LTP217	ltpFR	6	8	0	GRASS	655	1	1	n/a	n/a	n/a	n/a	n/a
3347451	RECOG_LURE	n/a	LTP217	ltpFR	6	8	n/a	CHIMNEY	301	5	n/a	n/a	n/a	n/a	n/a	n/a
3348340	RECOG_RESP	n/a	LTP217	ltpFR	6	8	n/a	CHIMNEY	301	n/a	n/a	n/a	n/a	n/a	n/a	n/a
3349185	RECOG_CONF	n/a	LTP217	ltpFR	6	8	n/a	CHIMNEY	301	5	n/a	n/a	n/a	n/a	n/a	n/a
3351192	RECOG_TARGET	n/a	LTP217	ltpFR	6	8	0	SHOVEL	1295	5	1	n/a	n/a	n/a	n/a	n/a
3351843	RECOG_RESP	n/a	LTP217	ltpFR	6	8	0	SHOVEL	1295	n/a	1	n/a	n/a	n/a	n/a	n/a
3352722	RECOG_CONF	n/a	LTP217	ltpFR	6	8	0	SHOVEL	1295	5	1	n/a	n/a	n/a	n/a	n/a
3354687	RECOG_TARGET	n/a	LTP217	ltpFR	6	8	0	POND	1101	5	1	n/a	n/a	n/a	n/a	n/a
3355480	RECOG_RESP	n/a	LTP217	ltpFR	6	8	0	POND	1101	n/a	1	n/a	n/a	n/a	n/a	n/a
3356377	RECOG_CONF	n/a	LTP217	ltpFR	6	8	0	POND	1101	5	1	n/a	n/a	n/a	n/a	n/a
3358125	RECOG_LURE	n/a	LTP217	ltpFR	6	8	n/a	MOSQUITO	917	5	n/a	n/a	n/a	n/a	n/a	n/a
3358973	RECOG_RESP	n/a	LTP217	ltpFR	6	8	n/a	MOSQUITO	917	n/a	n/a	n/a	n/a	n/a	n/a	n/a
3359836	RECOG_CONF	n/a	LTP217	ltpFR	6	8	n/a	MOSQUITO	917	5	n/a	n/a	n/a	n/a	n/a	n/a
3361754	RECOG_LURE	n/a	LTP217	ltpFR	6	8	n/a	LIME	823	5	n/a	n/a	n/a	n/a	n/a	n/a
3362747	RECOG_RESP	n/a	LTP217	ltpFR	6	8	n/a	LIME	823	n/a	n/a	n/a	n/a	n/a	n/a	n/a
3363671	RECOG_CONF	n/a	LTP217	ltpFR	6	8	n/a	LIME	823	5	n/a	n/a	n/a	n/a	n/a	n/a
3365528	RECOG_TARGET	n/a	LTP217	ltpFR	6	8	0	HOOD	714	5	1	n/a	n/a	n/a	n/a	n/a
3366241	RECOG_RESP	n/a	LTP217	ltpFR	6	8	0	HOOD	714	n/a	1	n/a	n/a	n/a	n/a	n/a
3367168	RECOG_CONF	n/a	LTP217	ltpFR	6	8	0	HOOD	714	5	1	n/a	n/a	n/a	n/a	n/a
3369042	RECOG_TARGET	n/a	LTP217	ltpFR	6	8	-1	CENT	270	5	-1	n/a	n/a	n/a	n/a	n/a
3369890	RECOG_RESP	n/a	LTP217	ltpFR	6	8	-1	CENT	270	n/a	-1	n/a	n/a	n/a	n/a	n/a
3370763	RECOG_CONF	n/a	LTP217	ltpFR	6	8	-1	CENT	270	5	-1	n/a	n/a	n/a	n/a	n/a
3372645	RECOG_TARGET	n/a	LTP217	ltpFR	6	8	-1	KIDNEY	776	5	-1	n/a	n/a	n/a	n/a	n/a
3373379	RECOG_RESP	n/a	LTP217	ltpFR	6	8	-1	KIDNEY	776	n/a	-1	n/a	n/a	n/a	n/a	n/a
3374276	RECOG_CONF	n/a	LTP217	ltpFR	6	8	-1	KIDNEY	776	5	-1	n/a	n/a	n/a	n/a	n/a
3379200	REC_START	n/a	LTP217	ltpFR	6	9	n/a	n/a	n/a	n/a	n/a	n/a	n/a	n/a	n/a	n/a
3379255	RECOG_TARGET	n/a	LTP217	ltpFR	6	9	1	OINTMENT	974	n/a	0	n/a	n/a	n/a	n/a	n/a
3380225	RECOG_RESP_VV	n/a	LTP217	ltpFR	6	9	1	OINTMENT	974	n/a	0	n/a	n/a	n/a	n/a	n/a
3391491	RECOG_RESP	n/a	LTP217	ltpFR	6	9	1	OINTMENT	974	n/a	0	n/a	n/a	n/a	n/a	n/a
3394026	RECOG_LURE	n/a	LTP217	ltpFR	6	9	n/a	SICKLE	1302	5	n/a	n/a	n/a	n/a	n/a	n/a
3399202	RECOG_RESP	n/a	LTP217	ltpFR	6	9	n/a	SICKLE	1302	n/a	n/a	n/a	n/a	n/a	n/a	n/a
3400079	RECOG_CONF	n/a	LTP217	ltpFR	6	9	n/a	SICKLE	1302	5	n/a	n/a	n/a	n/a	n/a	n/a
3402050	RECOG_LURE	n/a	LTP217	ltpFR	6	9	n/a	ALLEY	15	5	n/a	n/a	n/a	n/a	n/a	n/a
3403315	RECOG_RESP	n/a	LTP217	ltpFR	6	9	n/a	ALLEY	15	n/a	n/a	n/a	n/a	n/a	n/a	n/a
3404212	RECOG_CONF	n/a	LTP217	ltpFR	6	9	n/a	ALLEY	15	5	n/a	n/a	n/a	n/a	n/a	n/a
3406156	RECOG_LURE	n/a	LTP217	ltpFR	6	9	n/a	TEA	1439	5	n/a	n/a	n/a	n/a	n/a	n/a
3407106	RECOG_RESP	n/a	LTP217	ltpFR	6	9	n/a	TEA	1439	n/a	n/a	n/a	n/a	n/a	n/a	n/a
3407980	RECOG_CONF	n/a	LTP217	ltpFR	6	9	n/a	TEA	1439	5	n/a	n/a	n/a	n/a	n/a	n/a
3409895	RECOG_TARGET	n/a	LTP217	ltpFR	6	9	0	POSSUM	1112	5	1	n/a	n/a	n/a	n/a	n/a
3414277	RECOG_RESP	n/a	LTP217	ltpFR	6	9	0	POSSUM	1112	n/a	1	n/a	n/a	n/a	n/a	n/a
3415145	RECOG_CONF	n/a	LTP217	ltpFR	6	9	0	POSSUM	1112	5	1	n/a	n/a	n/a	n/a	n/a
3417073	RECOG_TARGET	n/a	LTP217	ltpFR	6	9	-1	ARTICLE	42	5	-1	n/a	n/a	n/a	n/a	n/a
3417867	RECOG_RESP	n/a	LTP217	ltpFR	6	9	-1	ARTICLE	42	n/a	-1	n/a	n/a	n/a	n/a	n/a
3418733	RECOG_CONF	n/a	LTP217	ltpFR	6	9	-1	ARTICLE	42	5	-1	n/a	n/a	n/a	n/a	n/a
3420636	RECOG_LURE	n/a	LTP217	ltpFR	6	9	n/a	CAN	225	5	n/a	n/a	n/a	n/a	n/a	n/a
3424562	RECOG_RESP	n/a	LTP217	ltpFR	6	9	n/a	CAN	225	n/a	n/a	n/a	n/a	n/a	n/a	n/a
3425390	RECOG_CONF	n/a	LTP217	ltpFR	6	9	n/a	CAN	225	5	n/a	n/a	n/a	n/a	n/a	n/a
3427286	RECOG_LURE	n/a	LTP217	ltpFR	6	9	n/a	RIFLE	1192	5	n/a	n/a	n/a	n/a	n/a	n/a
3428256	RECOG_RESP	n/a	LTP217	ltpFR	6	9	n/a	RIFLE	1192	n/a	n/a	n/a	n/a	n/a	n/a	n/a
3429147	RECOG_CONF	n/a	LTP217	ltpFR	6	9	n/a	RIFLE	1192	5	n/a	n/a	n/a	n/a	n/a	n/a
3430999	RECOG_TARGET	n/a	LTP217	ltpFR	6	9	0	MINER	896	5	1	n/a	n/a	n/a	n/a	n/a
3431765	RECOG_RESP	n/a	LTP217	ltpFR	6	9	0	MINER	896	n/a	1	n/a	n/a	n/a	n/a	n/a
3432640	RECOG_CONF	n/a	LTP217	ltpFR	6	9	0	MINER	896	5	1	n/a	n/a	n/a	n/a	n/a
3434545	RECOG_LURE	n/a	LTP217	ltpFR	6	9	n/a	STY	1397	5	n/a	n/a	n/a	n/a	n/a	n/a
3435461	RECOG_RESP	n/a	LTP217	ltpFR	6	9	n/a	STY	1397	n/a	n/a	n/a	n/a	n/a	n/a	n/a
3436336	RECOG_CONF	n/a	LTP217	ltpFR	6	9	n/a	STY	1397	5	n/a	n/a	n/a	n/a	n/a	n/a
3438203	RECOG_TARGET	n/a	LTP217	ltpFR	6	9	1	JAR	750	5	0	n/a	n/a	n/a	n/a	n/a
3438977	RECOG_RESP	n/a	LTP217	ltpFR	6	9	1	JAR	750	n/a	0	n/a	n/a	n/a	n/a	n/a
3439829	RECOG_CONF	n/a	LTP217	ltpFR	6	9	1	JAR	750	5	0	n/a	n/a	n/a	n/a	n/a
3441773	RECOG_TARGET	n/a	LTP217	ltpFR	6	9	1	GIRL	637	1	1	n/a	n/a	n/a	n/a	n/a
3444428	RECOG_RESP_VV	n/a	LTP217	ltpFR	6	9	1	GIRL	637	n/a	1	n/a	n/a	n/a	n/a	n/a
3452641	RECOG_RESP	n/a	LTP217	ltpFR	6	9	1	GIRL	637	n/a	1	n/a	n/a	n/a	n/a	n/a
3453651	RECOG_CONF	n/a	LTP217	ltpFR	6	9	1	GIRL	637	1	1	n/a	n/a	n/a	n/a	n/a
3455625	RECOG_TARGET	n/a	LTP217	ltpFR	6	9	0	CHIPMUNK	304	1	0	n/a	n/a	n/a	n/a	n/a
3460090	RECOG_RESP	n/a	LTP217	ltpFR	6	9	0	CHIPMUNK	304	n/a	0	n/a	n/a	n/a	n/a	n/a
3460999	RECOG_CONF	n/a	LTP217	ltpFR	6	9	0	CHIPMUNK	304	1	0	n/a	n/a	n/a	n/a	n/a
3462768	RECOG_TARGET	n/a	LTP217	ltpFR	6	9	0	LAKE	796	1	1	n/a	n/a	n/a	n/a	n/a
3466906	RECOG_RESP	n/a	LTP217	ltpFR	6	9	0	LAKE	796	n/a	1	n/a	n/a	n/a	n/a	n/a
3468412	RECOG_CONF	n/a	LTP217	ltpFR	6	9	0	LAKE	796	1	1	n/a	n/a	n/a	n/a	n/a
3470574	RECOG_TARGET	n/a	LTP217	ltpFR	6	9	0	FIN	566	5	1	n/a	n/a	n/a	n/a	n/a
3471271	RECOG_RESP	n/a	LTP217	ltpFR	6	9	0	FIN	566	n/a	1	n/a	n/a	n/a	n/a	n/a
3472097	RECOG_CONF	n/a	LTP217	ltpFR	6	9	0	FIN	566	5	1	n/a	n/a	n/a	n/a	n/a
3473870	RECOG_TARGET	n/a	LTP217	ltpFR	6	9	1	TAIL	1430	5	1	n/a	n/a	n/a	n/a	n/a
3474650	RECOG_RESP	n/a	LTP217	ltpFR	6	9	1	TAIL	1430	n/a	1	n/a	n/a	n/a	n/a	n/a
3475521	RECOG_CONF	n/a	LTP217	ltpFR	6	9	1	TAIL	1430	5	1	n/a	n/a	n/a	n/a	n/a
3477641	RECOG_LURE	n/a	LTP217	ltpFR	6	9	n/a	LID	817	5	n/a	n/a	n/a	n/a	n/a	n/a
3479289	RECOG_RESP	n/a	LTP217	ltpFR	6	9	n/a	LID	817	n/a	n/a	n/a	n/a	n/a	n/a	n/a
3480231	RECOG_CONF	n/a	LTP217	ltpFR	6	9	n/a	LID	817	5	n/a	n/a	n/a	n/a	n/a	n/a
3482085	RECOG_LURE	n/a	LTP217	ltpFR	6	9	n/a	FREEWAY	603	5	n/a	n/a	n/a	n/a	n/a	n/a
3485306	RECOG_RESP	n/a	LTP217	ltpFR	6	9	n/a	FREEWAY	603	n/a	n/a	n/a	n/a	n/a	n/a	n/a
3486136	RECOG_CONF	n/a	LTP217	ltpFR	6	9	n/a	FREEWAY	603	5	n/a	n/a	n/a	n/a	n/a	n/a
3487990	RECOG_TARGET	n/a	LTP217	ltpFR	6	9	1	TEACHER	1440	1	1	n/a	n/a	n/a	n/a	n/a
3489330	RECOG_RESP	n/a	LTP217	ltpFR	6	9	1	TEACHER	1440	n/a	1	n/a	n/a	n/a	n/a	n/a
3490444	RECOG_CONF	n/a	LTP217	ltpFR	6	9	1	TEACHER	1440	1	1	n/a	n/a	n/a	n/a	n/a
3492147	RECOG_TARGET	n/a	LTP217	ltpFR	6	9	-1	DOUGHNUT	490	5	-1	n/a	n/a	n/a	n/a	n/a
3493137	RECOG_RESP	n/a	LTP217	ltpFR	6	9	-1	DOUGHNUT	490	n/a	-1	n/a	n/a	n/a	n/a	n/a
3494036	RECOG_CONF	n/a	LTP217	ltpFR	6	9	-1	DOUGHNUT	490	5	-1	n/a	n/a	n/a	n/a	n/a
