mstime	trial_type	stim_file	subject	experiment	session	trial	item_name	item_num	list	answer	test_x	test_y	test_z
0	SESS_START	n/a	LTP287	ltpFR2	22	n/a	n/a	n/a	n/a	n/a	0	0	0
16715	START	n/a	LTP287	ltpFR2	22	n/a	n/a	n/a	-1	n/a	n/a	n/a	n/a
16747	PROB	n/a	LTP287	ltpFR2	22	n/a	n/a	n/a	-1	11	2	8	1
17914	PROB	n/a	LTP287	ltpFR2	22	n/a	n/a	n/a	-1	18	6	4	8
18965	PROB	n/a	LTP287	ltpFR2	22	n/a	n/a	n/a	-1	16	3	6	7
20833	PROB	n/a	LTP287	ltpFR2	22	n/a	n/a	n/a	-1	15	5	2	8
22334	PROB	n/a	LTP287	ltpFR2	22	n/a	n/a	n/a	-1	12	5	5	2
23318	PROB	n/a	LTP287	ltpFR2	22	n/a	n/a	n/a	-1	18	8	5	5
24419	PROB	n/a	LTP287	ltpFR2	22	n/a	n/a	n/a	-1	9	3	3	3
25353	PROB	n/a	LTP287	ltpFR2	22	n/a	n/a	n/a	-1	15	8	6	1
26621	PROB	n/a	LTP287	ltpFR2	22	n/a	n/a	n/a	-1	13	1	6	6
27725	STOP	n/a	LTP287	ltpFR2	22	n/a	n/a	n/a	-1	n/a	n/a	n/a	n/a
69739	WORD	wordpools/wasnorm_wordpool_576.txt	LTP287	ltpFR2	22	1	COCKTAIL	338	n/a	n/a	0	0	0
72357	WORD	wordpools/wasnorm_wordpool_576.txt	LTP287	ltpFR2	22	1	LIPSTICK	829	n/a	n/a	0	0	0
74876	WORD	wordpools/wasnorm_wordpool_576.txt	LTP287	ltpFR2	22	1	PATROL	1027	n/a	n/a	0	0	0
77345	WORD	wordpools/wasnorm_wordpool_576.txt	LTP287	ltpFR2	22	1	AGENT	10	n/a	n/a	0	0	0
80180	WORD	wordpools/wasnorm_wordpool_576.txt	LTP287	ltpFR2	22	1	SCALLOP	1242	n/a	n/a	0	0	0
82883	WORD	wordpools/wasnorm_wordpool_576.txt	LTP287	ltpFR2	22	1	STICKER	1382	n/a	n/a	0	0	0
85551	WORD	wordpools/wasnorm_wordpool_576.txt	LTP287	ltpFR2	22	1	NAPKIN	937	n/a	n/a	0	0	0
88320	WORD	wordpools/wasnorm_wordpool_576.txt	LTP287	ltpFR2	22	1	CRAB	397	n/a	n/a	0	0	0
90906	WORD	wordpools/wasnorm_wordpool_576.txt	LTP287	ltpFR2	22	1	DANCER	437	n/a	n/a	0	0	0
93524	WORD	wordpools/wasnorm_wordpool_576.txt	LTP287	ltpFR2	22	1	PARENT	1013	n/a	n/a	0	0	0
96193	WORD	wordpools/wasnorm_wordpool_576.txt	LTP287	ltpFR2	22	1	JUGGLER	763	n/a	n/a	0	0	0
98995	WORD	wordpools/wasnorm_wordpool_576.txt	LTP287	ltpFR2	22	1	FRANCE	601	n/a	n/a	0	0	0
101731	WORD	wordpools/wasnorm_wordpool_576.txt	LTP287	ltpFR2	22	1	LUNCH	849	n/a	n/a	0	0	0
104283	WORD	wordpools/wasnorm_wordpool_576.txt	LTP287	ltpFR2	22	1	CANDY	230	n/a	n/a	0	0	0
107002	WORD	wordpools/wasnorm_wordpool_576.txt	LTP287	ltpFR2	22	1	TART	1436	n/a	n/a	0	0	0
109754	WORD	wordpools/wasnorm_wordpool_576.txt	LTP287	ltpFR2	22	1	PIZZA	1079	n/a	n/a	0	0	0
112223	WORD	wordpools/wasnorm_wordpool_576.txt	LTP287	ltpFR2	22	1	MAILMAN	858	n/a	n/a	0	0	0
114958	WORD	wordpools/wasnorm_wordpool_576.txt	LTP287	ltpFR2	22	1	BEEF	113	n/a	n/a	0	0	0
117777	WORD	wordpools/wasnorm_wordpool_576.txt	LTP287	ltpFR2	22	1	BANKER	84	n/a	n/a	0	0	0
120379	WORD	wordpools/wasnorm_wordpool_576.txt	LTP287	ltpFR2	22	1	PERCH	1048	n/a	n/a	0	0	0
123198	WORD	wordpools/wasnorm_wordpool_576.txt	LTP287	ltpFR2	22	1	HOOK	715	n/a	n/a	0	0	0
126000	WORD	wordpools/wasnorm_wordpool_576.txt	LTP287	ltpFR2	22	1	SAUSAGE	1238	n/a	n/a	0	0	0
128519	WORD	wordpools/wasnorm_wordpool_576.txt	LTP287	ltpFR2	22	1	SUNRISE	1407	n/a	n/a	0	0	0
131271	WORD	wordpools/wasnorm_wordpool_576.txt	LTP287	ltpFR2	22	1	HARP	689	n/a	n/a	0	0	0
132889	START	n/a	LTP287	ltpFR2	22	n/a	n/a	n/a	1	n/a	n/a	n/a	n/a
133893	DISTRACTOR	n/a	LTP287	ltpFR2	22	1	n/a	n/a	n/a	n/a	0	0	0
133923	PROB	n/a	LTP287	ltpFR2	22	n/a	n/a	n/a	1	21	9	8	4
135925	PROB	n/a	LTP287	ltpFR2	22	n/a	n/a	n/a	1	5	2	1	2
136909	PROB	n/a	LTP287	ltpFR2	22	n/a	n/a	n/a	1	18	6	4	8
137893	PROB	n/a	LTP287	ltpFR2	22	n/a	n/a	n/a	1	21	7	8	6
139511	PROB	n/a	LTP287	ltpFR2	22	n/a	n/a	n/a	1	16	2	6	8
140812	PROB	n/a	LTP287	ltpFR2	22	n/a	n/a	n/a	1	10	4	1	5
141946	PROB	n/a	LTP287	ltpFR2	22	n/a	n/a	n/a	1	15	9	2	4
143681	PROB	n/a	LTP287	ltpFR2	22	n/a	n/a	n/a	1	17	6	2	9
145633	PROB	n/a	LTP287	ltpFR2	22	n/a	n/a	n/a	1	19	9	3	7
146851	PROB	n/a	LTP287	ltpFR2	22	n/a	n/a	n/a	1	13	7	4	2
149035	PROB	n/a	LTP287	ltpFR2	22	n/a	n/a	n/a	1	13	2	2	9
151170	PROB	n/a	LTP287	ltpFR2	22	n/a	n/a	n/a	1	14	6	3	5
152856	PROB	n/a	LTP287	ltpFR2	22	n/a	n/a	n/a	1	21	9	9	3
154156	PROB	n/a	LTP287	ltpFR2	22	n/a	n/a	n/a	1	23	7	9	7
156809	STOP	n/a	LTP287	ltpFR2	22	n/a	n/a	n/a	1	n/a	n/a	n/a	n/a
158793	REC_START	n/a	LTP287	ltpFR2	22	1	n/a	n/a	n/a	n/a	0	0	0
160448	REC_WORD	wordpools/wasnorm_wordpool_576.txt	LTP287	ltpFR2	22	1	DANCER	437	n/a	n/a	0	0	0
161090	REC_WORD	wordpools/wasnorm_wordpool_576.txt	LTP287	ltpFR2	22	1	STICKER	1382	n/a	n/a	0	0	0
161902	REC_WORD	wordpools/wasnorm_wordpool_576.txt	LTP287	ltpFR2	22	1	PATROL	1027	n/a	n/a	0	0	0
162837	REC_WORD	wordpools/wasnorm_wordpool_576.txt	LTP287	ltpFR2	22	1	LIPSTICK	829	n/a	n/a	0	0	0
163641	REC_WORD	wordpools/wasnorm_wordpool_576.txt	LTP287	ltpFR2	22	1	COCKTAIL	338	n/a	n/a	0	0	0
167180	REC_WORD	wordpools/wasnorm_wordpool_576.txt	LTP287	ltpFR2	22	1	SAUSAGE	1238	n/a	n/a	0	0	0
249415	DISTRACTOR	n/a	LTP287	ltpFR2	22	2	n/a	n/a	n/a	n/a	0	0	0
249415	START	n/a	LTP287	ltpFR2	22	n/a	n/a	n/a	2	n/a	n/a	n/a	n/a
249449	PROB	n/a	LTP287	ltpFR2	22	n/a	n/a	n/a	2	16	8	1	7
250700	PROB	n/a	LTP287	ltpFR2	22	n/a	n/a	n/a	2	21	9	7	5
252668	PROB	n/a	LTP287	ltpFR2	22	n/a	n/a	n/a	2	16	2	7	7
254069	PROB	n/a	LTP287	ltpFR2	22	n/a	n/a	n/a	2	22	8	8	6
255437	PROB	n/a	LTP287	ltpFR2	22	n/a	n/a	n/a	2	13	2	6	5
257672	PROB	n/a	LTP287	ltpFR2	22	n/a	n/a	n/a	2	16	3	4	9
259407	PROB	n/a	LTP287	ltpFR2	22	n/a	n/a	n/a	2	11	9	1	1
260541	PROB	n/a	LTP287	ltpFR2	22	n/a	n/a	n/a	2	13	5	4	4
262893	PROB	n/a	LTP287	ltpFR2	22	n/a	n/a	n/a	2	10	3	2	5
264527	PROB	n/a	LTP287	ltpFR2	22	n/a	n/a	n/a	2	16	5	6	5
265645	PROB	n/a	LTP287	ltpFR2	22	n/a	n/a	n/a	2	10	7	2	1
266762	PROB	n/a	LTP287	ltpFR2	22	n/a	n/a	n/a	2	20	9	7	4
268681	PROB	n/a	LTP287	ltpFR2	22	n/a	n/a	n/a	2	7	4	2	1
270082	PROB	n/a	LTP287	ltpFR2	22	n/a	n/a	n/a	2	13	6	2	5
272117	STOP	n/a	LTP287	ltpFR2	22	n/a	n/a	n/a	2	n/a	n/a	n/a	n/a
274585	WORD	wordpools/wasnorm_wordpool_576.txt	LTP287	ltpFR2	22	2	FOREST	593	n/a	n/a	0	0	0
277304	WORD	wordpools/wasnorm_wordpool_576.txt	LTP287	ltpFR2	22	2	PEACH	1031	n/a	n/a	0	0	0
279973	WORD	wordpools/wasnorm_wordpool_576.txt	LTP287	ltpFR2	22	2	BANJO	82	n/a	n/a	0	0	0
282508	WORD	wordpools/wasnorm_wordpool_576.txt	LTP287	ltpFR2	22	2	ORANGE	980	n/a	n/a	0	0	0
285144	WORD	wordpools/wasnorm_wordpool_576.txt	LTP287	ltpFR2	22	2	DORM	488	n/a	n/a	0	0	0
287863	WORD	wordpools/wasnorm_wordpool_576.txt	LTP287	ltpFR2	22	2	LADY	794	n/a	n/a	0	0	0
290498	WORD	wordpools/wasnorm_wordpool_576.txt	LTP287	ltpFR2	22	2	HOSTESS	723	n/a	n/a	0	0	0
293050	WORD	wordpools/wasnorm_wordpool_576.txt	LTP287	ltpFR2	22	2	BULLET	194	n/a	n/a	0	0	0
295602	WORD	wordpools/wasnorm_wordpool_576.txt	LTP287	ltpFR2	22	2	HAWK	692	n/a	n/a	0	0	0
298187	WORD	wordpools/wasnorm_wordpool_576.txt	LTP287	ltpFR2	22	2	TYPIST	1532	n/a	n/a	0	0	0
300806	WORD	wordpools/wasnorm_wordpool_576.txt	LTP287	ltpFR2	22	2	COUNTY	389	n/a	n/a	0	0	0
303308	WORD	wordpools/wasnorm_wordpool_576.txt	LTP287	ltpFR2	22	2	BLACKBOARD	133	n/a	n/a	0	0	0
306127	WORD	wordpools/wasnorm_wordpool_576.txt	LTP287	ltpFR2	22	2	OFFICE	972	n/a	n/a	0	0	0
308779	WORD	wordpools/wasnorm_wordpool_576.txt	LTP287	ltpFR2	22	2	EXPERT	543	n/a	n/a	0	0	0
311381	WORD	wordpools/wasnorm_wordpool_576.txt	LTP287	ltpFR2	22	2	TWEEZERS	1526	n/a	n/a	0	0	0
314017	WORD	wordpools/wasnorm_wordpool_576.txt	LTP287	ltpFR2	22	2	PECAN	1036	n/a	n/a	0	0	0
316502	WORD	wordpools/wasnorm_wordpool_576.txt	LTP287	ltpFR2	22	2	CASHEW	253	n/a	n/a	0	0	0
319021	WORD	wordpools/wasnorm_wordpool_576.txt	LTP287	ltpFR2	22	2	CHIPMUNK	304	n/a	n/a	0	0	0
321840	WORD	wordpools/wasnorm_wordpool_576.txt	LTP287	ltpFR2	22	2	MAILBOX	857	n/a	n/a	0	0	0
324558	WORD	wordpools/wasnorm_wordpool_576.txt	LTP287	ltpFR2	22	2	WAITER	1580	n/a	n/a	0	0	0
327094	WORD	wordpools/wasnorm_wordpool_576.txt	LTP287	ltpFR2	22	2	GANGSTER	620	n/a	n/a	0	0	0
329662	WORD	wordpools/wasnorm_wordpool_576.txt	LTP287	ltpFR2	22	2	TRUCK	1512	n/a	n/a	0	0	0
332381	WORD	wordpools/wasnorm_wordpool_576.txt	LTP287	ltpFR2	22	2	BUGGY	188	n/a	n/a	0	0	0
334883	WORD	wordpools/wasnorm_wordpool_576.txt	LTP287	ltpFR2	22	2	SCARF	1246	n/a	n/a	0	0	0
336502	START	n/a	LTP287	ltpFR2	22	n/a	n/a	n/a	3	n/a	n/a	n/a	n/a
337477	DISTRACTOR	n/a	LTP287	ltpFR2	22	2	n/a	n/a	n/a	n/a	0	0	0
337502	PROB	n/a	LTP287	ltpFR2	22	n/a	n/a	n/a	3	25	9	6	9
339855	PROB	n/a	LTP287	ltpFR2	22	n/a	n/a	n/a	3	11	5	2	4
342389	PROB	n/a	LTP287	ltpFR2	22	n/a	n/a	n/a	3	19	5	5	9
343473	PROB	n/a	LTP287	ltpFR2	22	n/a	n/a	n/a	3	10	1	2	7
344608	PROB	n/a	LTP287	ltpFR2	22	n/a	n/a	n/a	3	12	3	5	4
346909	PROB	n/a	LTP287	ltpFR2	22	n/a	n/a	n/a	3	23	9	7	7
348411	PROB	n/a	LTP287	ltpFR2	22	n/a	n/a	n/a	3	16	4	9	3
350613	PROB	n/a	LTP287	ltpFR2	22	n/a	n/a	n/a	3	12	2	2	8
352164	PROB	n/a	LTP287	ltpFR2	22	n/a	n/a	n/a	3	16	5	7	4
354449	PROB	n/a	LTP287	ltpFR2	22	n/a	n/a	n/a	3	8	2	4	2
355717	PROB	n/a	LTP287	ltpFR2	22	n/a	n/a	n/a	3	15	5	6	4
357168	PROB	n/a	LTP287	ltpFR2	22	n/a	n/a	n/a	3	16	2	6	8
358853	PROB	n/a	LTP287	ltpFR2	22	n/a	n/a	n/a	3	14	3	9	2
360384	STOP	n/a	LTP287	ltpFR2	22	n/a	n/a	n/a	3	n/a	n/a	n/a	n/a
362439	REC_START	n/a	LTP287	ltpFR2	22	2	n/a	n/a	n/a	n/a	0	0	0
363339	REC_WORD	wordpools/wasnorm_wordpool_576.txt	LTP287	ltpFR2	22	2	TWEEZERS	1526	n/a	n/a	0	0	0
365509	REC_WORD	wordpools/wasnorm_wordpool_576.txt	LTP287	ltpFR2	22	2	PEACH	1031	n/a	n/a	0	0	0
366008	REC_WORD	wordpools/wasnorm_wordpool_576.txt	LTP287	ltpFR2	22	2	FOREST	593	n/a	n/a	0	0	0
366818	REC_WORD	wordpools/wasnorm_wordpool_576.txt	LTP287	ltpFR2	22	2	BANJO	82	n/a	n/a	0	0	0
453077	DISTRACTOR	n/a	LTP287	ltpFR2	22	3	n/a	n/a	n/a	n/a	0	0	0
453078	START	n/a	LTP287	ltpFR2	22	n/a	n/a	n/a	4	n/a	n/a	n/a	n/a
453111	PROB	n/a	LTP287	ltpFR2	22	n/a	n/a	n/a	4	20	8	9	3
455129	PROB	n/a	LTP287	ltpFR2	22	n/a	n/a	n/a	4	11	7	2	2
456865	PROB	n/a	LTP287	ltpFR2	22	n/a	n/a	n/a	4	20	6	6	8
458165	PROB	n/a	LTP287	ltpFR2	22	n/a	n/a	n/a	4	14	9	2	3
460167	PROB	n/a	LTP287	ltpFR2	22	n/a	n/a	n/a	4	12	6	1	5
462135	PROB	n/a	LTP287	ltpFR2	22	n/a	n/a	n/a	4	21	9	8	4
464086	PROB	n/a	LTP287	ltpFR2	22	n/a	n/a	n/a	4	14	3	5	6
467005	PROB	n/a	LTP287	ltpFR2	22	n/a	n/a	n/a	4	7	5	1	1
468139	PROB	n/a	LTP287	ltpFR2	22	n/a	n/a	n/a	4	13	8	1	4
469941	PROB	n/a	LTP287	ltpFR2	22	n/a	n/a	n/a	4	19	7	5	7
471592	PROB	n/a	LTP287	ltpFR2	22	n/a	n/a	n/a	4	13	8	4	1
472960	PROB	n/a	LTP287	ltpFR2	22	n/a	n/a	n/a	4	20	8	5	7
477078	STOP	n/a	LTP287	ltpFR2	22	n/a	n/a	n/a	4	n/a	n/a	n/a	n/a
477931	WORD	wordpools/wasnorm_wordpool_576.txt	LTP287	ltpFR2	22	3	WRIST	1626	n/a	n/a	0	0	0
480433	WORD	wordpools/wasnorm_wordpool_576.txt	LTP287	ltpFR2	22	3	CLOCK	325	n/a	n/a	0	0	0
483168	WORD	wordpools/wasnorm_wordpool_576.txt	LTP287	ltpFR2	22	3	WARDROBE	1587	n/a	n/a	0	0	0
485753	WORD	wordpools/wasnorm_wordpool_576.txt	LTP287	ltpFR2	22	3	OUTFIT	988	n/a	n/a	0	0	0
488205	WORD	wordpools/wasnorm_wordpool_576.txt	LTP287	ltpFR2	22	3	SUMMIT	1405	n/a	n/a	0	0	0
490791	WORD	wordpools/wasnorm_wordpool_576.txt	LTP287	ltpFR2	22	3	SURVEY	1414	n/a	n/a	0	0	0
493560	WORD	wordpools/wasnorm_wordpool_576.txt	LTP287	ltpFR2	22	3	HAND	683	n/a	n/a	0	0	0
496128	WORD	wordpools/wasnorm_wordpool_576.txt	LTP287	ltpFR2	22	3	LOVER	846	n/a	n/a	0	0	0
498580	WORD	wordpools/wasnorm_wordpool_576.txt	LTP287	ltpFR2	22	3	WIFE	1609	n/a	n/a	0	0	0
501066	WORD	wordpools/wasnorm_wordpool_576.txt	LTP287	ltpFR2	22	3	INFANT	737	n/a	n/a	0	0	0
503584	WORD	wordpools/wasnorm_wordpool_576.txt	LTP287	ltpFR2	22	3	PICNIC	1060	n/a	n/a	0	0	0
506103	WORD	wordpools/wasnorm_wordpool_576.txt	LTP287	ltpFR2	22	3	PAIL	1002	n/a	n/a	0	0	0
508838	WORD	wordpools/wasnorm_wordpool_576.txt	LTP287	ltpFR2	22	3	TABLET	1427	n/a	n/a	0	0	0
511407	WORD	wordpools/wasnorm_wordpool_576.txt	LTP287	ltpFR2	22	3	BABY	64	n/a	n/a	0	0	0
514176	WORD	wordpools/wasnorm_wordpool_576.txt	LTP287	ltpFR2	22	3	THREAD	1460	n/a	n/a	0	0	0
516745	WORD	wordpools/wasnorm_wordpool_576.txt	LTP287	ltpFR2	22	3	CLIMBER	323	n/a	n/a	0	0	0
519247	WORD	wordpools/wasnorm_wordpool_576.txt	LTP287	ltpFR2	22	3	FOOT	590	n/a	n/a	0	0	0
521966	WORD	wordpools/wasnorm_wordpool_576.txt	LTP287	ltpFR2	22	3	BADGE	68	n/a	n/a	0	0	0
524685	WORD	wordpools/wasnorm_wordpool_576.txt	LTP287	ltpFR2	22	3	COD	340	n/a	n/a	0	0	0
527253	WORD	wordpools/wasnorm_wordpool_576.txt	LTP287	ltpFR2	22	3	FLIPPER	580	n/a	n/a	0	0	0
529772	WORD	wordpools/wasnorm_wordpool_576.txt	LTP287	ltpFR2	22	3	LAGOON	795	n/a	n/a	0	0	0
532524	WORD	wordpools/wasnorm_wordpool_576.txt	LTP287	ltpFR2	22	3	PORK	1108	n/a	n/a	0	0	0
535209	WORD	wordpools/wasnorm_wordpool_576.txt	LTP287	ltpFR2	22	3	SPONGE	1355	n/a	n/a	0	0	0
538029	WORD	wordpools/wasnorm_wordpool_576.txt	LTP287	ltpFR2	22	3	FLESH	579	n/a	n/a	0	0	0
539663	START	n/a	LTP287	ltpFR2	22	n/a	n/a	n/a	5	n/a	n/a	n/a	n/a
540571	DISTRACTOR	n/a	LTP287	ltpFR2	22	3	n/a	n/a	n/a	n/a	0	0	0
540597	PROB	n/a	LTP287	ltpFR2	22	n/a	n/a	n/a	5	13	7	1	5
543099	PROB	n/a	LTP287	ltpFR2	22	n/a	n/a	n/a	5	13	2	9	2
544851	PROB	n/a	LTP287	ltpFR2	22	n/a	n/a	n/a	5	21	8	6	7
546485	PROB	n/a	LTP287	ltpFR2	22	n/a	n/a	n/a	5	12	2	8	2
547670	PROB	n/a	LTP287	ltpFR2	22	n/a	n/a	n/a	5	14	7	5	2
549905	PROB	n/a	LTP287	ltpFR2	22	n/a	n/a	n/a	5	316	5	7	4
553057	PROB	n/a	LTP287	ltpFR2	22	n/a	n/a	n/a	5	18	5	9	4
556393	PROB	n/a	LTP287	ltpFR2	22	n/a	n/a	n/a	5	14	5	6	3
559129	PROB	n/a	LTP287	ltpFR2	22	n/a	n/a	n/a	5	21	6	9	6
560646	PROB	n/a	LTP287	ltpFR2	22	n/a	n/a	n/a	5	10	1	2	7
563647	STOP	n/a	LTP287	ltpFR2	22	n/a	n/a	n/a	5	n/a	n/a	n/a	n/a
565484	REC_START	n/a	LTP287	ltpFR2	22	3	n/a	n/a	n/a	n/a	0	0	0
569110	REC_WORD	wordpools/wasnorm_wordpool_576.txt	LTP287	ltpFR2	22	3	COD	340	n/a	n/a	0	0	0
656156	WORD	wordpools/wasnorm_wordpool_576.txt	LTP287	ltpFR2	22	4	HIGHWAY	707	n/a	n/a	0	0	0
658758	WORD	wordpools/wasnorm_wordpool_576.txt	LTP287	ltpFR2	22	4	LETTUCE	814	n/a	n/a	0	0	0
661243	WORD	wordpools/wasnorm_wordpool_576.txt	LTP287	ltpFR2	22	4	QUAIL	1147	n/a	n/a	0	0	0
663863	WORD	wordpools/wasnorm_wordpool_576.txt	LTP287	ltpFR2	22	4	SPARROW	1347	n/a	n/a	0	0	0
666698	WORD	wordpools/wasnorm_wordpool_576.txt	LTP287	ltpFR2	22	4	DONKEY	484	n/a	n/a	0	0	0
669467	WORD	wordpools/wasnorm_wordpool_576.txt	LTP287	ltpFR2	22	4	CITRUS	313	n/a	n/a	0	0	0
672269	WORD	wordpools/wasnorm_wordpool_576.txt	LTP287	ltpFR2	22	4	STOMACH	1384	n/a	n/a	0	0	0
674804	WORD	wordpools/wasnorm_wordpool_576.txt	LTP287	ltpFR2	22	4	BRACES	164	n/a	n/a	0	0	0
677473	WORD	wordpools/wasnorm_wordpool_576.txt	LTP287	ltpFR2	22	4	LIVER	833	n/a	n/a	0	0	0
680208	WORD	wordpools/wasnorm_wordpool_576.txt	LTP287	ltpFR2	22	4	GARBAGE	622	n/a	n/a	0	0	0
682910	WORD	wordpools/wasnorm_wordpool_576.txt	LTP287	ltpFR2	22	4	DENTIST	447	n/a	n/a	0	0	0
685463	WORD	wordpools/wasnorm_wordpool_576.txt	LTP287	ltpFR2	22	4	BREAST	171	n/a	n/a	0	0	0
688031	WORD	wordpools/wasnorm_wordpool_576.txt	LTP287	ltpFR2	22	4	MILK	895	n/a	n/a	0	0	0
690500	WORD	wordpools/wasnorm_wordpool_576.txt	LTP287	ltpFR2	22	4	CELLAR	267	n/a	n/a	0	0	0
693336	WORD	wordpools/wasnorm_wordpool_576.txt	LTP287	ltpFR2	22	4	LAKE	796	n/a	n/a	0	0	0
696054	WORD	wordpools/wasnorm_wordpool_576.txt	LTP287	ltpFR2	22	4	SNACK	1331	n/a	n/a	0	0	0
698740	WORD	wordpools/wasnorm_wordpool_576.txt	LTP287	ltpFR2	22	4	RATTLE	1170	n/a	n/a	0	0	0
701559	WORD	wordpools/wasnorm_wordpool_576.txt	LTP287	ltpFR2	22	4	CRIB	407	n/a	n/a	0	0	0
704111	WORD	wordpools/wasnorm_wordpool_576.txt	LTP287	ltpFR2	22	4	FOOTBALL	591	n/a	n/a	0	0	0
706579	WORD	wordpools/wasnorm_wordpool_576.txt	LTP287	ltpFR2	22	4	HORSE	719	n/a	n/a	0	0	0
709048	WORD	wordpools/wasnorm_wordpool_576.txt	LTP287	ltpFR2	22	4	BRAKE	166	n/a	n/a	0	0	0
711717	WORD	wordpools/wasnorm_wordpool_576.txt	LTP287	ltpFR2	22	4	SCISSORS	1250	n/a	n/a	0	0	0
714186	WORD	wordpools/wasnorm_wordpool_576.txt	LTP287	ltpFR2	22	4	BOX	159	n/a	n/a	0	0	0
716921	WORD	wordpools/wasnorm_wordpool_576.txt	LTP287	ltpFR2	22	4	LODGE	839	n/a	n/a	0	0	0
718539	START	n/a	LTP287	ltpFR2	22	n/a	n/a	n/a	6	n/a	n/a	n/a	n/a
719429	DISTRACTOR	n/a	LTP287	ltpFR2	22	4	n/a	n/a	n/a	n/a	0	0	0
719456	PROB	n/a	LTP287	ltpFR2	22	n/a	n/a	n/a	6	8	5	2	1
721074	PROB	n/a	LTP287	ltpFR2	22	n/a	n/a	n/a	6	13	9	1	3
722175	PROB	n/a	LTP287	ltpFR2	22	n/a	n/a	n/a	6	12	4	3	5
724260	PROB	n/a	LTP287	ltpFR2	22	n/a	n/a	n/a	6	15	1	9	5
725528	PROB	n/a	LTP287	ltpFR2	22	n/a	n/a	n/a	6	14	9	1	4
726879	PROB	n/a	LTP287	ltpFR2	22	n/a	n/a	n/a	6	15	7	3	5
728163	PROB	n/a	LTP287	ltpFR2	22	n/a	n/a	n/a	6	19	9	6	4
729731	PROB	n/a	LTP287	ltpFR2	22	n/a	n/a	n/a	6	12	3	6	3
731800	PROB	n/a	LTP287	ltpFR2	22	n/a	n/a	n/a	6	19	6	4	9
733201	PROB	n/a	LTP287	ltpFR2	22	n/a	n/a	n/a	6	17	6	8	3
736003	PROB	n/a	LTP287	ltpFR2	22	n/a	n/a	n/a	6	21	9	3	9
738021	PROB	n/a	LTP287	ltpFR2	22	n/a	n/a	n/a	6	26	9	9	7
742229	STOP	n/a	LTP287	ltpFR2	22	n/a	n/a	n/a	6	n/a	n/a	n/a	n/a
744377	REC_START	n/a	LTP287	ltpFR2	22	4	n/a	n/a	n/a	n/a	0	0	0
745174	REC_WORD	wordpools/wasnorm_wordpool_576.txt	LTP287	ltpFR2	22	4	HIGHWAY	707	n/a	n/a	0	0	0
745991	REC_WORD	wordpools/wasnorm_wordpool_576.txt	LTP287	ltpFR2	22	4	LETTUCE	814	n/a	n/a	0	0	0
835032	WORD	wordpools/wasnorm_wordpool_576.txt	LTP287	ltpFR2	22	5	POSSUM	1112	n/a	n/a	0	0	0
837651	WORD	wordpools/wasnorm_wordpool_576.txt	LTP287	ltpFR2	22	5	SPOUSE	1358	n/a	n/a	0	0	0
840403	WORD	wordpools/wasnorm_wordpool_576.txt	LTP287	ltpFR2	22	5	PEANUT	1032	n/a	n/a	0	0	0
842938	WORD	wordpools/wasnorm_wordpool_576.txt	LTP287	ltpFR2	22	5	SISTER	1312	n/a	n/a	0	0	0
845507	WORD	wordpools/wasnorm_wordpool_576.txt	LTP287	ltpFR2	22	5	SKETCH	1315	n/a	n/a	0	0	0
848342	WORD	wordpools/wasnorm_wordpool_576.txt	LTP287	ltpFR2	22	5	HIKER	708	n/a	n/a	0	0	0
851095	WORD	wordpools/wasnorm_wordpool_576.txt	LTP287	ltpFR2	22	5	HEDGE	699	n/a	n/a	0	0	0
853830	WORD	wordpools/wasnorm_wordpool_576.txt	LTP287	ltpFR2	22	5	ROBOT	1200	n/a	n/a	0	0	0
856299	WORD	wordpools/wasnorm_wordpool_576.txt	LTP287	ltpFR2	22	5	WASHER	1592	n/a	n/a	0	0	0
858767	WORD	wordpools/wasnorm_wordpool_576.txt	LTP287	ltpFR2	22	5	BLOCKADE	137	n/a	n/a	0	0	0
861236	WORD	wordpools/wasnorm_wordpool_576.txt	LTP287	ltpFR2	22	5	CORAL	378	n/a	n/a	0	0	0
863738	WORD	wordpools/wasnorm_wordpool_576.txt	LTP287	ltpFR2	22	5	SHIRT	1287	n/a	n/a	0	0	0
866440	WORD	wordpools/wasnorm_wordpool_576.txt	LTP287	ltpFR2	22	5	CONVICT	371	n/a	n/a	0	0	0
868909	WORD	wordpools/wasnorm_wordpool_576.txt	LTP287	ltpFR2	22	5	SUSPECT	1415	n/a	n/a	0	0	0
871544	WORD	wordpools/wasnorm_wordpool_576.txt	LTP287	ltpFR2	22	5	DRAWING	494	n/a	n/a	0	0	0
874029	WORD	wordpools/wasnorm_wordpool_576.txt	LTP287	ltpFR2	22	5	MARINE	869	n/a	n/a	0	0	0
876548	WORD	wordpools/wasnorm_wordpool_576.txt	LTP287	ltpFR2	22	5	DAISY	435	n/a	n/a	0	0	0
879250	WORD	wordpools/wasnorm_wordpool_576.txt	LTP287	ltpFR2	22	5	JUDGE	761	n/a	n/a	0	0	0
881986	WORD	wordpools/wasnorm_wordpool_576.txt	LTP287	ltpFR2	22	5	TROUT	1511	n/a	n/a	0	0	0
884721	WORD	wordpools/wasnorm_wordpool_576.txt	LTP287	ltpFR2	22	5	PIANO	1057	n/a	n/a	0	0	0
887490	WORD	wordpools/wasnorm_wordpool_576.txt	LTP287	ltpFR2	22	5	GLOVE	642	n/a	n/a	0	0	0
890226	WORD	wordpools/wasnorm_wordpool_576.txt	LTP287	ltpFR2	22	5	FRAME	600	n/a	n/a	0	0	0
892728	WORD	wordpools/wasnorm_wordpool_576.txt	LTP287	ltpFR2	22	5	FIDDLE	561	n/a	n/a	0	0	0
895263	WORD	wordpools/wasnorm_wordpool_576.txt	LTP287	ltpFR2	22	5	FEMALE	559	n/a	n/a	0	0	0
896881	START	n/a	LTP287	ltpFR2	22	n/a	n/a	n/a	7	n/a	n/a	n/a	n/a
897953	DISTRACTOR	n/a	LTP287	ltpFR2	22	5	n/a	n/a	n/a	n/a	0	0	0
897982	PROB	n/a	LTP287	ltpFR2	22	n/a	n/a	n/a	7	17	5	9	3
899984	PROB	n/a	LTP287	ltpFR2	22	n/a	n/a	n/a	7	22	7	7	8
901618	PROB	n/a	LTP287	ltpFR2	22	n/a	n/a	n/a	7	17	6	4	7
902853	PROB	n/a	LTP287	ltpFR2	22	n/a	n/a	n/a	7	13	1	6	6
904254	PROB	n/a	LTP287	ltpFR2	22	n/a	n/a	n/a	7	11	6	1	4
905555	PROB	n/a	LTP287	ltpFR2	22	n/a	n/a	n/a	7	11	1	6	7
906906	PROB	n/a	LTP287	ltpFR2	22	n/a	n/a	n/a	7	17	2	6	9
910342	PROB	n/a	LTP287	ltpFR2	22	n/a	n/a	n/a	7	18	2	9	7
912961	PROB	n/a	LTP287	ltpFR2	22	n/a	n/a	n/a	7	18	8	1	9
914545	PROB	n/a	LTP287	ltpFR2	22	n/a	n/a	n/a	7	20	8	3	9
918064	PROB	n/a	LTP287	ltpFR2	22	n/a	n/a	n/a	7	17	2	8	7
919379	STOP	n/a	LTP287	ltpFR2	22	n/a	n/a	n/a	7	n/a	n/a	n/a	n/a
922669	REC_START	n/a	LTP287	ltpFR2	22	5	n/a	n/a	n/a	n/a	0	0	0
924310	REC_WORD	wordpools/wasnorm_wordpool_576.txt	LTP287	ltpFR2	22	5	FEMALE	559	n/a	n/a	0	0	0
1013340	WORD	wordpools/wasnorm_wordpool_576.txt	LTP287	ltpFR2	22	6	FRECKLE	602	n/a	n/a	0	0	0
1016159	WORD	wordpools/wasnorm_wordpool_576.txt	LTP287	ltpFR2	22	6	CANAL	226	n/a	n/a	0	0	0
1018728	WORD	wordpools/wasnorm_wordpool_576.txt	LTP287	ltpFR2	22	6	REPORT	1184	n/a	n/a	0	0	0
1021547	WORD	wordpools/wasnorm_wordpool_576.txt	LTP287	ltpFR2	22	6	PIMPLE	1071	n/a	n/a	0	0	0
1024166	WORD	wordpools/wasnorm_wordpool_576.txt	LTP287	ltpFR2	22	6	SLIDE	1326	n/a	n/a	0	0	0
1026935	WORD	wordpools/wasnorm_wordpool_576.txt	LTP287	ltpFR2	22	6	FRUIT	610	n/a	n/a	0	0	0
1029503	WORD	wordpools/wasnorm_wordpool_576.txt	LTP287	ltpFR2	22	6	WORLD	1622	n/a	n/a	0	0	0
1032306	WORD	wordpools/wasnorm_wordpool_576.txt	LTP287	ltpFR2	22	6	TILE	1468	n/a	n/a	0	0	0
1034841	WORD	wordpools/wasnorm_wordpool_576.txt	LTP287	ltpFR2	22	6	OINTMENT	974	n/a	n/a	0	0	0
1037343	WORD	wordpools/wasnorm_wordpool_576.txt	LTP287	ltpFR2	22	6	PERFUME	1049	n/a	n/a	0	0	0
1040078	WORD	wordpools/wasnorm_wordpool_576.txt	LTP287	ltpFR2	22	6	STAMP	1370	n/a	n/a	0	0	0
1042564	WORD	wordpools/wasnorm_wordpool_576.txt	LTP287	ltpFR2	22	6	MESSAGE	888	n/a	n/a	0	0	0
1045099	WORD	wordpools/wasnorm_wordpool_576.txt	LTP287	ltpFR2	22	6	STAKE	1368	n/a	n/a	0	0	0
1047852	WORD	wordpools/wasnorm_wordpool_576.txt	LTP287	ltpFR2	22	6	SHORTCAKE	1292	n/a	n/a	0	0	0
1050587	WORD	wordpools/wasnorm_wordpool_576.txt	LTP287	ltpFR2	22	6	FLEET	578	n/a	n/a	0	0	0
1053156	WORD	wordpools/wasnorm_wordpool_576.txt	LTP287	ltpFR2	22	6	SNAKE	1333	n/a	n/a	0	0	0
1055774	WORD	wordpools/wasnorm_wordpool_576.txt	LTP287	ltpFR2	22	6	TOMBSTONE	1478	n/a	n/a	0	0	0
1058226	WORD	wordpools/wasnorm_wordpool_576.txt	LTP287	ltpFR2	22	6	BASEMENT	94	n/a	n/a	0	0	0
1060812	WORD	wordpools/wasnorm_wordpool_576.txt	LTP287	ltpFR2	22	6	PASTA	1021	n/a	n/a	0	0	0
1063564	WORD	wordpools/wasnorm_wordpool_576.txt	LTP287	ltpFR2	22	6	PLASTER	1085	n/a	n/a	0	0	0
1066099	WORD	wordpools/wasnorm_wordpool_576.txt	LTP287	ltpFR2	22	6	SILK	1307	n/a	n/a	0	0	0
1068635	WORD	wordpools/wasnorm_wordpool_576.txt	LTP287	ltpFR2	22	6	VELVET	1555	n/a	n/a	0	0	0
1071270	WORD	wordpools/wasnorm_wordpool_576.txt	LTP287	ltpFR2	22	6	UMPIRE	1535	n/a	n/a	0	0	0
1073755	WORD	wordpools/wasnorm_wordpool_576.txt	LTP287	ltpFR2	22	6	MAPLE	866	n/a	n/a	0	0	0
1075373	START	n/a	LTP287	ltpFR2	22	n/a	n/a	n/a	8	n/a	n/a	n/a	n/a
1076181	DISTRACTOR	n/a	LTP287	ltpFR2	22	6	n/a	n/a	n/a	n/a	0	0	0
1076207	PROB	n/a	LTP287	ltpFR2	22	n/a	n/a	n/a	8	13	6	1	6
1079794	PROB	n/a	LTP287	ltpFR2	22	n/a	n/a	n/a	8	9	3	4	2
1082396	PROB	n/a	LTP287	ltpFR2	22	n/a	n/a	n/a	8	10	1	2	7
1083396	PROB	n/a	LTP287	ltpFR2	22	n/a	n/a	n/a	8	21	8	9	4
1085348	PROB	n/a	LTP287	ltpFR2	22	n/a	n/a	n/a	8	12	5	8	1
1087316	PROB	n/a	LTP287	ltpFR2	22	n/a	n/a	n/a	8	13	4	2	7
1089351	PROB	n/a	LTP287	ltpFR2	22	n/a	n/a	n/a	8	5	1	2	2
1090385	PROB	n/a	LTP287	ltpFR2	22	n/a	n/a	n/a	8	16	5	6	5
1091553	PROB	n/a	LTP287	ltpFR2	22	n/a	n/a	n/a	8	17	4	6	7
1093071	PROB	n/a	LTP287	ltpFR2	22	n/a	n/a	n/a	8	15	4	2	9
1094939	PROB	n/a	LTP287	ltpFR2	22	n/a	n/a	n/a	8	12	5	4	4
1098394	STOP	n/a	LTP287	ltpFR2	22	n/a	n/a	n/a	8	n/a	n/a	n/a	n/a
1101344	REC_START	n/a	LTP287	ltpFR2	22	6	n/a	n/a	n/a	n/a	0	0	0
1107308	REC_WORD	wordpools/wasnorm_wordpool_576.txt	LTP287	ltpFR2	22	6	SLIDE	1326	n/a	n/a	0	0	0
1112032	REC_WORD	wordpools/wasnorm_wordpool_576.txt	LTP287	ltpFR2	22	6	FLOWER	584	n/a	n/a	0	0	0
1191966	DISTRACTOR	n/a	LTP287	ltpFR2	22	7	n/a	n/a	n/a	n/a	0	0	0
1191966	START	n/a	LTP287	ltpFR2	22	n/a	n/a	n/a	9	n/a	n/a	n/a	n/a
1192000	PROB	n/a	LTP287	ltpFR2	22	n/a	n/a	n/a	9	15	5	1	9
1193401	PROB	n/a	LTP287	ltpFR2	22	n/a	n/a	n/a	9	15	1	7	7
1194552	PROB	n/a	LTP287	ltpFR2	22	n/a	n/a	n/a	9	17	1	7	9
1196637	PROB	n/a	LTP287	ltpFR2	22	n/a	n/a	n/a	9	16	4	8	4
1198121	PROB	n/a	LTP287	ltpFR2	22	n/a	n/a	n/a	9	14	7	1	6
1199756	PROB	n/a	LTP287	ltpFR2	22	n/a	n/a	n/a	9	13	3	3	7
1201440	PROB	n/a	LTP287	ltpFR2	22	n/a	n/a	n/a	9	23	6	9	8
1203992	PROB	n/a	LTP287	ltpFR2	22	n/a	n/a	n/a	9	5	2	1	2
1204876	PROB	n/a	LTP287	ltpFR2	22	n/a	n/a	n/a	9	7	4	2	1
1206711	PROB	n/a	LTP287	ltpFR2	22	n/a	n/a	n/a	9	16	4	7	5
1208746	PROB	n/a	LTP287	ltpFR2	22	n/a	n/a	n/a	9	10	4	2	4
1210514	PROB	n/a	LTP287	ltpFR2	22	n/a	n/a	n/a	9	17	8	8	1
1211865	PROB	n/a	LTP287	ltpFR2	22	n/a	n/a	n/a	9	8	1	1	6
1212916	PROB	n/a	LTP287	ltpFR2	22	n/a	n/a	n/a	9	15	9	3	3
1214334	PROB	n/a	LTP287	ltpFR2	22	n/a	n/a	n/a	9	18	7	7	4
1215558	STOP	n/a	LTP287	ltpFR2	22	n/a	n/a	n/a	9	n/a	n/a	n/a	n/a
1217186	WORD	wordpools/wasnorm_wordpool_576.txt	LTP287	ltpFR2	22	7	POCKET	1093	n/a	n/a	0	0	0
1219822	WORD	wordpools/wasnorm_wordpool_576.txt	LTP287	ltpFR2	22	7	MUMMY	932	n/a	n/a	0	0	0
1222440	WORD	wordpools/wasnorm_wordpool_576.txt	LTP287	ltpFR2	22	7	JELLY	755	n/a	n/a	0	0	0
1225176	WORD	wordpools/wasnorm_wordpool_576.txt	LTP287	ltpFR2	22	7	INMATE	738	n/a	n/a	0	0	0
1227745	WORD	wordpools/wasnorm_wordpool_576.txt	LTP287	ltpFR2	22	7	PROTON	1132	n/a	n/a	0	0	0
1230347	WORD	wordpools/wasnorm_wordpool_576.txt	LTP287	ltpFR2	22	7	STALLION	1369	n/a	n/a	0	0	0
1233132	WORD	wordpools/wasnorm_wordpool_576.txt	LTP287	ltpFR2	22	7	ZEBRA	1635	n/a	n/a	0	0	0
1235634	WORD	wordpools/wasnorm_wordpool_576.txt	LTP287	ltpFR2	22	7	SEAL	1262	n/a	n/a	0	0	0
1238453	WORD	wordpools/wasnorm_wordpool_576.txt	LTP287	ltpFR2	22	7	BUTCHER	203	n/a	n/a	0	0	0
1240955	WORD	wordpools/wasnorm_wordpool_576.txt	LTP287	ltpFR2	22	7	ONION	977	n/a	n/a	0	0	0
1243491	WORD	wordpools/wasnorm_wordpool_576.txt	LTP287	ltpFR2	22	7	DIME	466	n/a	n/a	0	0	0
1246076	WORD	wordpools/wasnorm_wordpool_576.txt	LTP287	ltpFR2	22	7	PLAZA	1088	n/a	n/a	0	0	0
1248678	WORD	wordpools/wasnorm_wordpool_576.txt	LTP287	ltpFR2	22	7	WOMAN	1620	n/a	n/a	0	0	0
1251414	WORD	wordpools/wasnorm_wordpool_576.txt	LTP287	ltpFR2	22	7	MONSTER	912	n/a	n/a	0	0	0
1254249	WORD	wordpools/wasnorm_wordpool_576.txt	LTP287	ltpFR2	22	7	EAGLE	512	n/a	n/a	0	0	0
1256935	WORD	wordpools/wasnorm_wordpool_576.txt	LTP287	ltpFR2	22	7	CLOUD	328	n/a	n/a	0	0	0
1259570	WORD	wordpools/wasnorm_wordpool_576.txt	LTP287	ltpFR2	22	7	EGYPT	519	n/a	n/a	0	0	0
1262322	WORD	wordpools/wasnorm_wordpool_576.txt	LTP287	ltpFR2	22	7	PISTON	1076	n/a	n/a	0	0	0
1265108	WORD	wordpools/wasnorm_wordpool_576.txt	LTP287	ltpFR2	22	7	PRINCE	1124	n/a	n/a	0	0	0
1267861	WORD	wordpools/wasnorm_wordpool_576.txt	LTP287	ltpFR2	22	7	PALACE	1006	n/a	n/a	0	0	0
1270496	WORD	wordpools/wasnorm_wordpool_576.txt	LTP287	ltpFR2	22	7	SKIRT	1319	n/a	n/a	0	0	0
1272997	WORD	wordpools/wasnorm_wordpool_576.txt	LTP287	ltpFR2	22	7	CLOTHES	327	n/a	n/a	0	0	0
1275549	WORD	wordpools/wasnorm_wordpool_576.txt	LTP287	ltpFR2	22	7	TUBA	1515	n/a	n/a	0	0	0
1278185	WORD	wordpools/wasnorm_wordpool_576.txt	LTP287	ltpFR2	22	7	GARLIC	624	n/a	n/a	0	0	0
1279803	START	n/a	LTP287	ltpFR2	22	n/a	n/a	n/a	10	n/a	n/a	n/a	n/a
1280759	DISTRACTOR	n/a	LTP287	ltpFR2	22	7	n/a	n/a	n/a	n/a	0	0	0
1280787	PROB	n/a	LTP287	ltpFR2	22	n/a	n/a	n/a	10	15	5	8	2
1282205	PROB	n/a	LTP287	ltpFR2	22	n/a	n/a	n/a	10	16	5	9	2
1284490	PROB	n/a	LTP287	ltpFR2	22	n/a	n/a	n/a	10	12	9	1	2
1285674	PROB	n/a	LTP287	ltpFR2	22	n/a	n/a	n/a	10	14	1	2	9
1287042	PROB	n/a	LTP287	ltpFR2	22	n/a	n/a	n/a	10	18	3	7	8
1289144	PROB	n/a	LTP287	ltpFR2	22	n/a	n/a	n/a	10	17	6	4	7
1290345	PROB	n/a	LTP287	ltpFR2	22	n/a	n/a	n/a	10	26	9	8	9
1293330	PROB	n/a	LTP287	ltpFR2	22	n/a	n/a	n/a	10	8	4	3	1
1294898	PROB	n/a	LTP287	ltpFR2	22	n/a	n/a	n/a	10	9	2	2	5
1296266	PROB	n/a	LTP287	ltpFR2	22	n/a	n/a	n/a	10	17	8	1	8
1298601	PROB	n/a	LTP287	ltpFR2	22	n/a	n/a	n/a	10	19	7	3	9
1300686	PROB	n/a	LTP287	ltpFR2	22	n/a	n/a	n/a	10	15	7	7	1
1303803	STOP	n/a	LTP287	ltpFR2	22	n/a	n/a	n/a	10	n/a	n/a	n/a	n/a
1305641	REC_START	n/a	LTP287	ltpFR2	22	7	n/a	n/a	n/a	n/a	0	0	0
1305872	REC_WORD_VV	wordpools/wasnorm_wordpool_576.txt	LTP287	ltpFR2	22	7	<>	-1	n/a	n/a	0	0	0
1307287	REC_WORD	wordpools/wasnorm_wordpool_576.txt	LTP287	ltpFR2	22	7	POCKET	1093	n/a	n/a	0	0	0
1309216	REC_WORD	wordpools/wasnorm_wordpool_576.txt	LTP287	ltpFR2	22	7	ONION	977	n/a	n/a	0	0	0
1309762	REC_WORD	wordpools/wasnorm_wordpool_576.txt	LTP287	ltpFR2	22	7	GARLIC	624	n/a	n/a	0	0	0
1310346	REC_WORD	wordpools/wasnorm_wordpool_576.txt	LTP287	ltpFR2	22	7	MONSTER	912	n/a	n/a	0	0	0
1311627	REC_WORD	wordpools/wasnorm_wordpool_576.txt	LTP287	ltpFR2	22	7	WOMAN	1620	n/a	n/a	0	0	0
1313320	REC_WORD	wordpools/wasnorm_wordpool_576.txt	LTP287	ltpFR2	22	7	MUMMY	932	n/a	n/a	0	0	0
1396262	DISTRACTOR	n/a	LTP287	ltpFR2	22	8	n/a	n/a	n/a	n/a	0	0	0
1396262	START	n/a	LTP287	ltpFR2	22	n/a	n/a	n/a	11	n/a	n/a	n/a	n/a
1396296	PROB	n/a	LTP287	ltpFR2	22	n/a	n/a	n/a	11	16	8	1	7
1397997	PROB	n/a	LTP287	ltpFR2	22	n/a	n/a	n/a	11	16	6	6	4
1400532	PROB	n/a	LTP287	ltpFR2	22	n/a	n/a	n/a	11	16	9	6	1
1403351	PROB	n/a	LTP287	ltpFR2	22	n/a	n/a	n/a	11	16	9	2	5
1406053	PROB	n/a	LTP287	ltpFR2	22	n/a	n/a	n/a	11	14	6	5	3
1408138	PROB	n/a	LTP287	ltpFR2	22	n/a	n/a	n/a	11	14	5	5	4
1409523	PROB	n/a	LTP287	ltpFR2	22	n/a	n/a	n/a	11	10	3	1	6
1410907	PROB	n/a	LTP287	ltpFR2	22	n/a	n/a	n/a	11	12	9	2	1
1412175	PROB	n/a	LTP287	ltpFR2	22	n/a	n/a	n/a	11	8	3	2	3
1413593	PROB	n/a	LTP287	ltpFR2	22	n/a	n/a	n/a	11	11	4	5	2
1415161	PROB	n/a	LTP287	ltpFR2	22	n/a	n/a	n/a	11	16	5	6	5
1416312	PROB	n/a	LTP287	ltpFR2	22	n/a	n/a	n/a	11	14	3	5	6
1418613	PROB	n/a	LTP287	ltpFR2	22	n/a	n/a	n/a	11	13	7	3	3
1419893	STOP	n/a	LTP287	ltpFR2	22	n/a	n/a	n/a	11	n/a	n/a	n/a	n/a
1421282	WORD	wordpools/wasnorm_wordpool_576.txt	LTP287	ltpFR2	22	8	SHARK	1275	n/a	n/a	0	0	0
1423784	WORD	wordpools/wasnorm_wordpool_576.txt	LTP287	ltpFR2	22	8	SWAMP	1416	n/a	n/a	0	0	0
1426303	WORD	wordpools/wasnorm_wordpool_576.txt	LTP287	ltpFR2	22	8	NIGHTGOWN	953	n/a	n/a	0	0	0
1428755	WORD	wordpools/wasnorm_wordpool_576.txt	LTP287	ltpFR2	22	8	VENUS	1557	n/a	n/a	0	0	0
1431224	WORD	wordpools/wasnorm_wordpool_576.txt	LTP287	ltpFR2	22	8	CREATURE	403	n/a	n/a	0	0	0
1433726	WORD	wordpools/wasnorm_wordpool_576.txt	LTP287	ltpFR2	22	8	NURSE	963	n/a	n/a	0	0	0
1436361	WORD	wordpools/wasnorm_wordpool_576.txt	LTP287	ltpFR2	22	8	BARLEY	88	n/a	n/a	0	0	0
1438896	WORD	wordpools/wasnorm_wordpool_576.txt	LTP287	ltpFR2	22	8	GLASS	639	n/a	n/a	0	0	0
1441348	WORD	wordpools/wasnorm_wordpool_576.txt	LTP287	ltpFR2	22	8	CONCERT	360	n/a	n/a	0	0	0
1443834	WORD	wordpools/wasnorm_wordpool_576.txt	LTP287	ltpFR2	22	8	SEAFOOD	1260	n/a	n/a	0	0	0
1446285	WORD	wordpools/wasnorm_wordpool_576.txt	LTP287	ltpFR2	22	8	HORNET	718	n/a	n/a	0	0	0
1449104	WORD	wordpools/wasnorm_wordpool_576.txt	LTP287	ltpFR2	22	8	MARSH	874	n/a	n/a	0	0	0
1451873	WORD	wordpools/wasnorm_wordpool_576.txt	LTP287	ltpFR2	22	8	OUTDOORS	987	n/a	n/a	0	0	0
1454592	WORD	wordpools/wasnorm_wordpool_576.txt	LTP287	ltpFR2	22	8	MUSTARD	935	n/a	n/a	0	0	0
1457278	WORD	wordpools/wasnorm_wordpool_576.txt	LTP287	ltpFR2	22	8	LACE	792	n/a	n/a	0	0	0
1460063	WORD	wordpools/wasnorm_wordpool_576.txt	LTP287	ltpFR2	22	8	DRESS	495	n/a	n/a	0	0	0
1462882	WORD	wordpools/wasnorm_wordpool_576.txt	LTP287	ltpFR2	22	8	CEILING	265	n/a	n/a	0	0	0
1465434	WORD	wordpools/wasnorm_wordpool_576.txt	LTP287	ltpFR2	22	8	COTTAGE	384	n/a	n/a	0	0	0
1468120	WORD	wordpools/wasnorm_wordpool_576.txt	LTP287	ltpFR2	22	8	CLAMP	316	n/a	n/a	0	0	0
1470705	WORD	wordpools/wasnorm_wordpool_576.txt	LTP287	ltpFR2	22	8	PISTOL	1075	n/a	n/a	0	0	0
1473541	WORD	wordpools/wasnorm_wordpool_576.txt	LTP287	ltpFR2	22	8	STAPLE	1371	n/a	n/a	0	0	0
1476276	WORD	wordpools/wasnorm_wordpool_576.txt	LTP287	ltpFR2	22	8	XEROX	1628	n/a	n/a	0	0	0
1478912	WORD	wordpools/wasnorm_wordpool_576.txt	LTP287	ltpFR2	22	8	HOUND	724	n/a	n/a	0	0	0
1481430	WORD	wordpools/wasnorm_wordpool_576.txt	LTP287	ltpFR2	22	8	SCOTCH	1251	n/a	n/a	0	0	0
1483048	START	n/a	LTP287	ltpFR2	22	n/a	n/a	n/a	12	n/a	n/a	n/a	n/a
1483875	DISTRACTOR	n/a	LTP287	ltpFR2	22	8	n/a	n/a	n/a	n/a	0	0	0
1483899	PROB	n/a	LTP287	ltpFR2	22	n/a	n/a	n/a	12	1	4	4	4
1488936	PROB	n/a	LTP287	ltpFR2	22	n/a	n/a	n/a	12	16	3	5	8
1491021	PROB	n/a	LTP287	ltpFR2	22	n/a	n/a	n/a	12	20	5	6	9
1493623	PROB	n/a	LTP287	ltpFR2	22	n/a	n/a	n/a	12	17	4	8	5
1497977	PROB	n/a	LTP287	ltpFR2	22	n/a	n/a	n/a	12	15	6	1	8
1499561	PROB	n/a	LTP287	ltpFR2	22	n/a	n/a	n/a	12	12	6	5	1
1501196	PROB	n/a	LTP287	ltpFR2	22	n/a	n/a	n/a	12	16	7	7	2
1502731	PROB	n/a	LTP287	ltpFR2	22	n/a	n/a	n/a	12	11	4	2	5
1504449	PROB	n/a	LTP287	ltpFR2	22	n/a	n/a	n/a	12	15	4	3	8
1506176	STOP	n/a	LTP287	ltpFR2	22	n/a	n/a	n/a	12	n/a	n/a	n/a	n/a
1508870	REC_START	n/a	LTP287	ltpFR2	22	8	n/a	n/a	n/a	n/a	0	0	0
1510134	REC_WORD	wordpools/wasnorm_wordpool_576.txt	LTP287	ltpFR2	22	8	SHARK	1275	n/a	n/a	0	0	0
1510830	REC_WORD	wordpools/wasnorm_wordpool_576.txt	LTP287	ltpFR2	22	8	SWAMP	1416	n/a	n/a	0	0	0
1585413	REST_REWET	n/a	LTP287	ltpFR2	22	8	n/a	n/a	n/a	n/a	0	0	0
1761754	DISTRACTOR	n/a	LTP287	ltpFR2	22	9	n/a	n/a	n/a	n/a	0	0	0
1761754	START	n/a	LTP287	ltpFR2	22	n/a	n/a	n/a	13	n/a	n/a	n/a	n/a
1761787	PROB	n/a	LTP287	ltpFR2	22	n/a	n/a	n/a	13	14	3	3	8
1763138	PROB	n/a	LTP287	ltpFR2	22	n/a	n/a	n/a	13	18	7	8	3
1764689	PROB	n/a	LTP287	ltpFR2	22	n/a	n/a	n/a	13	16	8	3	5
1767842	PROB	n/a	LTP287	ltpFR2	22	n/a	n/a	n/a	13	15	4	3	8
1769293	PROB	n/a	LTP287	ltpFR2	22	n/a	n/a	n/a	13	25	8	9	8
1772312	PROB	n/a	LTP287	ltpFR2	22	n/a	n/a	n/a	13	10	6	3	1
1773580	PROB	n/a	LTP287	ltpFR2	22	n/a	n/a	n/a	13	19	7	4	8
1775481	PROB	n/a	LTP287	ltpFR2	22	n/a	n/a	n/a	13	15	8	5	2
1776949	PROB	n/a	LTP287	ltpFR2	22	n/a	n/a	n/a	13	24	8	7	8
1779535	PROB	n/a	LTP287	ltpFR2	22	n/a	n/a	n/a	13	15	8	2	5
1780902	PROB	n/a	LTP287	ltpFR2	22	n/a	n/a	n/a	13	8	3	3	2
1782253	PROB	n/a	LTP287	ltpFR2	22	n/a	n/a	n/a	13	26	8	9	9
1784737	STOP	n/a	LTP287	ltpFR2	22	n/a	n/a	n/a	13	n/a	n/a	n/a	n/a
1786990	WORD	wordpools/wasnorm_wordpool_576.txt	LTP287	ltpFR2	22	9	CROWN	415	n/a	n/a	0	0	0
1789743	WORD	wordpools/wasnorm_wordpool_576.txt	LTP287	ltpFR2	22	9	LABEL	790	n/a	n/a	0	0	0
1792461	WORD	wordpools/wasnorm_wordpool_576.txt	LTP287	ltpFR2	22	9	ATOM	55	n/a	n/a	0	0	0
1795197	WORD	wordpools/wasnorm_wordpool_576.txt	LTP287	ltpFR2	22	9	NEUTRON	947	n/a	n/a	0	0	0
1797732	WORD	wordpools/wasnorm_wordpool_576.txt	LTP287	ltpFR2	22	9	DUST	508	n/a	n/a	0	0	0
1800384	WORD	wordpools/wasnorm_wordpool_576.txt	LTP287	ltpFR2	22	9	PARSLEY	1016	n/a	n/a	0	0	0
1803170	WORD	wordpools/wasnorm_wordpool_576.txt	LTP287	ltpFR2	22	9	CONTRACT	368	n/a	n/a	0	0	0
1805805	WORD	wordpools/wasnorm_wordpool_576.txt	LTP287	ltpFR2	22	9	PARTNER	1017	n/a	n/a	0	0	0
1808457	WORD	wordpools/wasnorm_wordpool_576.txt	LTP287	ltpFR2	22	9	GYMNAST	675	n/a	n/a	0	0	0
1810943	WORD	wordpools/wasnorm_wordpool_576.txt	LTP287	ltpFR2	22	9	HONEY	713	n/a	n/a	0	0	0
1813662	WORD	wordpools/wasnorm_wordpool_576.txt	LTP287	ltpFR2	22	9	TWIG	1527	n/a	n/a	0	0	0
1816297	WORD	wordpools/wasnorm_wordpool_576.txt	LTP287	ltpFR2	22	9	MACHINE	852	n/a	n/a	0	0	0
1818883	WORD	wordpools/wasnorm_wordpool_576.txt	LTP287	ltpFR2	22	9	GROUND	666	n/a	n/a	0	0	0
1821585	WORD	wordpools/wasnorm_wordpool_576.txt	LTP287	ltpFR2	22	9	ARM	38	n/a	n/a	0	0	0
1824037	WORD	wordpools/wasnorm_wordpool_576.txt	LTP287	ltpFR2	22	9	ANKLE	24	n/a	n/a	0	0	0
1826489	WORD	wordpools/wasnorm_wordpool_576.txt	LTP287	ltpFR2	22	9	RECEIPT	1173	n/a	n/a	0	0	0
1829091	WORD	wordpools/wasnorm_wordpool_576.txt	LTP287	ltpFR2	22	9	HANDBAG	684	n/a	n/a	0	0	0
1831809	WORD	wordpools/wasnorm_wordpool_576.txt	LTP287	ltpFR2	22	9	STREAM	1392	n/a	n/a	0	0	0
1834428	WORD	wordpools/wasnorm_wordpool_576.txt	LTP287	ltpFR2	22	9	BATHTUB	100	n/a	n/a	0	0	0
1836880	WORD	wordpools/wasnorm_wordpool_576.txt	LTP287	ltpFR2	22	9	WORKER	1621	n/a	n/a	0	0	0
1839449	WORD	wordpools/wasnorm_wordpool_576.txt	LTP287	ltpFR2	22	9	JURY	766	n/a	n/a	0	0	0
1842034	WORD	wordpools/wasnorm_wordpool_576.txt	LTP287	ltpFR2	22	9	VICTIM	1562	n/a	n/a	0	0	0
1844520	WORD	wordpools/wasnorm_wordpool_576.txt	LTP287	ltpFR2	22	9	SHOULDER	1294	n/a	n/a	0	0	0
1847038	WORD	wordpools/wasnorm_wordpool_576.txt	LTP287	ltpFR2	22	9	FRIEND	606	n/a	n/a	0	0	0
1848656	START	n/a	LTP287	ltpFR2	22	n/a	n/a	n/a	14	n/a	n/a	n/a	n/a
1849599	DISTRACTOR	n/a	LTP287	ltpFR2	22	9	n/a	n/a	n/a	n/a	0	0	0
1849624	PROB	n/a	LTP287	ltpFR2	22	n/a	n/a	n/a	14	15	5	1	9
1852159	PROB	n/a	LTP287	ltpFR2	22	n/a	n/a	n/a	14	15	2	6	7
1854194	PROB	n/a	LTP287	ltpFR2	22	n/a	n/a	n/a	14	11	1	4	6
1855629	PROB	n/a	LTP287	ltpFR2	22	n/a	n/a	n/a	14	14	5	3	6
1857146	PROB	n/a	LTP287	ltpFR2	22	n/a	n/a	n/a	14	10	6	3	1
1858547	PROB	n/a	LTP287	ltpFR2	22	n/a	n/a	n/a	14	17	5	9	3
1860582	PROB	n/a	LTP287	ltpFR2	22	n/a	n/a	n/a	14	21	6	9	6
1862534	PROB	n/a	LTP287	ltpFR2	22	n/a	n/a	n/a	14	11	5	4	2
1864402	PROB	n/a	LTP287	ltpFR2	22	n/a	n/a	n/a	14	14	3	9	2
1866721	PROB	n/a	LTP287	ltpFR2	22	n/a	n/a	n/a	14	15	6	6	3
1868072	PROB	n/a	LTP287	ltpFR2	22	n/a	n/a	n/a	14	19	5	9	5
1869256	PROB	n/a	LTP287	ltpFR2	22	n/a	n/a	n/a	14	14	5	8	1
1872656	STOP	n/a	LTP287	ltpFR2	22	n/a	n/a	n/a	14	n/a	n/a	n/a	n/a
1874527	REC_START	n/a	LTP287	ltpFR2	22	9	n/a	n/a	n/a	n/a	0	0	0
1875609	REC_WORD	wordpools/wasnorm_wordpool_576.txt	LTP287	ltpFR2	22	9	CROWN	415	n/a	n/a	0	0	0
1876404	REC_WORD	wordpools/wasnorm_wordpool_576.txt	LTP287	ltpFR2	22	9	STREAM	1392	n/a	n/a	0	0	0
1877226	REC_WORD	wordpools/wasnorm_wordpool_576.txt	LTP287	ltpFR2	22	9	PARTNER	1017	n/a	n/a	0	0	0
1877921	REC_WORD	wordpools/wasnorm_wordpool_576.txt	LTP287	ltpFR2	22	9	ANKLE	24	n/a	n/a	0	0	0
1878478	REC_WORD	wordpools/wasnorm_wordpool_576.txt	LTP287	ltpFR2	22	9	HONEY	713	n/a	n/a	0	0	0
1965149	DISTRACTOR	n/a	LTP287	ltpFR2	22	10	n/a	n/a	n/a	n/a	0	0	0
1965149	START	n/a	LTP287	ltpFR2	22	n/a	n/a	n/a	15	n/a	n/a	n/a	n/a
1965182	PROB	n/a	LTP287	ltpFR2	22	n/a	n/a	n/a	15	18	2	9	7
1967234	PROB	n/a	LTP287	ltpFR2	22	n/a	n/a	n/a	15	15	4	9	2
1968835	PROB	n/a	LTP287	ltpFR2	22	n/a	n/a	n/a	15	8	2	3	3
1970186	PROB	n/a	LTP287	ltpFR2	22	n/a	n/a	n/a	15	12	2	9	1
1971654	PROB	n/a	LTP287	ltpFR2	22	n/a	n/a	n/a	15	15	6	2	7
1973189	PROB	n/a	LTP287	ltpFR2	22	n/a	n/a	n/a	15	19	6	9	4
1974890	PROB	n/a	LTP287	ltpFR2	22	n/a	n/a	n/a	15	18	5	7	6
1976992	PROB	n/a	LTP287	ltpFR2	22	n/a	n/a	n/a	15	9	4	2	3
1979260	PROB	n/a	LTP287	ltpFR2	22	n/a	n/a	n/a	15	13	3	7	3
1980495	PROB	n/a	LTP287	ltpFR2	22	n/a	n/a	n/a	15	20	5	6	9
1983697	PROB	n/a	LTP287	ltpFR2	22	n/a	n/a	n/a	15	22	9	4	9
1985715	PROB	n/a	LTP287	ltpFR2	22	n/a	n/a	n/a	15	6	4	1	1
1987267	PROB	n/a	LTP287	ltpFR2	22	n/a	n/a	n/a	15	17	4	9	4
1988936	STOP	n/a	LTP287	ltpFR2	22	n/a	n/a	n/a	15	n/a	n/a	n/a	n/a
1990169	WORD	wordpools/wasnorm_wordpool_576.txt	LTP287	ltpFR2	22	10	MUFFIN	929	n/a	n/a	0	0	0
1992621	WORD	wordpools/wasnorm_wordpool_576.txt	LTP287	ltpFR2	22	10	PEBBLE	1035	n/a	n/a	0	0	0
1995323	WORD	wordpools/wasnorm_wordpool_576.txt	LTP287	ltpFR2	22	10	CANYON	235	n/a	n/a	0	0	0
1998125	WORD	wordpools/wasnorm_wordpool_576.txt	LTP287	ltpFR2	22	10	DRAGON	492	n/a	n/a	0	0	0
2000894	WORD	wordpools/wasnorm_wordpool_576.txt	LTP287	ltpFR2	22	10	MILDEW	893	n/a	n/a	0	0	0
2003663	WORD	wordpools/wasnorm_wordpool_576.txt	LTP287	ltpFR2	22	10	BUG	187	n/a	n/a	0	0	0
2006148	WORD	wordpools/wasnorm_wordpool_576.txt	LTP287	ltpFR2	22	10	ROBIN	1199	n/a	n/a	0	0	0
2008717	WORD	wordpools/wasnorm_wordpool_576.txt	LTP287	ltpFR2	22	10	SADDLE	1221	n/a	n/a	0	0	0
2011503	WORD	wordpools/wasnorm_wordpool_576.txt	LTP287	ltpFR2	22	10	STATUE	1374	n/a	n/a	0	0	0
2014222	WORD	wordpools/wasnorm_wordpool_576.txt	LTP287	ltpFR2	22	10	SCULPTURE	1258	n/a	n/a	0	0	0
2016807	WORD	wordpools/wasnorm_wordpool_576.txt	LTP287	ltpFR2	22	10	PENGUIN	1044	n/a	n/a	0	0	0
2019492	WORD	wordpools/wasnorm_wordpool_576.txt	LTP287	ltpFR2	22	10	GAZELLE	628	n/a	n/a	0	0	0
2022211	WORD	wordpools/wasnorm_wordpool_576.txt	LTP287	ltpFR2	22	10	DRILL	497	n/a	n/a	0	0	0
2024747	WORD	wordpools/wasnorm_wordpool_576.txt	LTP287	ltpFR2	22	10	STAR	1373	n/a	n/a	0	0	0
2027482	WORD	wordpools/wasnorm_wordpool_576.txt	LTP287	ltpFR2	22	10	PERMIT	1051	n/a	n/a	0	0	0
2030168	WORD	wordpools/wasnorm_wordpool_576.txt	LTP287	ltpFR2	22	10	TREAT	1501	n/a	n/a	0	0	0
2032636	WORD	wordpools/wasnorm_wordpool_576.txt	LTP287	ltpFR2	22	10	PEDAL	1037	n/a	n/a	0	0	0
2035388	WORD	wordpools/wasnorm_wordpool_576.txt	LTP287	ltpFR2	22	10	SWITCH	1422	n/a	n/a	0	0	0
2038124	WORD	wordpools/wasnorm_wordpool_576.txt	LTP287	ltpFR2	22	10	JOURNAL	760	n/a	n/a	0	0	0
2040843	WORD	wordpools/wasnorm_wordpool_576.txt	LTP287	ltpFR2	22	10	CAFE	216	n/a	n/a	0	0	0
2043428	WORD	wordpools/wasnorm_wordpool_576.txt	LTP287	ltpFR2	22	10	DINER	467	n/a	n/a	0	0	0
2046197	WORD	wordpools/wasnorm_wordpool_576.txt	LTP287	ltpFR2	22	10	SIDEWALK	1303	n/a	n/a	0	0	0
2048782	WORD	wordpools/wasnorm_wordpool_576.txt	LTP287	ltpFR2	22	10	SHOVEL	1295	n/a	n/a	0	0	0
2051501	WORD	wordpools/wasnorm_wordpool_576.txt	LTP287	ltpFR2	22	10	IDOL	733	n/a	n/a	0	0	0
2053119	START	n/a	LTP287	ltpFR2	22	n/a	n/a	n/a	16	n/a	n/a	n/a	n/a
2054197	DISTRACTOR	n/a	LTP287	ltpFR2	22	10	n/a	n/a	n/a	n/a	0	0	0
2054220	PROB	n/a	LTP287	ltpFR2	22	n/a	n/a	n/a	16	9	2	6	1
2056288	PROB	n/a	LTP287	ltpFR2	22	n/a	n/a	n/a	16	14	4	8	2
2057839	PROB	n/a	LTP287	ltpFR2	22	n/a	n/a	n/a	16	12	4	1	7
2059924	PROB	n/a	LTP287	ltpFR2	22	n/a	n/a	n/a	16	15	1	5	9
2061509	PROB	n/a	LTP287	ltpFR2	22	n/a	n/a	n/a	16	16	5	2	9
2063761	PROB	n/a	LTP287	ltpFR2	22	n/a	n/a	n/a	16	10	6	2	2
2065062	PROB	n/a	LTP287	ltpFR2	22	n/a	n/a	n/a	16	17	2	7	8
2067097	PROB	n/a	LTP287	ltpFR2	22	n/a	n/a	n/a	16	18	3	6	9
2068848	PROB	n/a	LTP287	ltpFR2	22	n/a	n/a	n/a	16	6	2	3	1
2070583	PROB	n/a	LTP287	ltpFR2	22	n/a	n/a	n/a	16	22	9	5	8
2073652	PROB	n/a	LTP287	ltpFR2	22	n/a	n/a	n/a	16	6	1	2	3
2074820	PROB	n/a	LTP287	ltpFR2	22	n/a	n/a	n/a	16	7	2	4	1
2077051	STOP	n/a	LTP287	ltpFR2	22	n/a	n/a	n/a	16	n/a	n/a	n/a	n/a
2078957	REC_START	n/a	LTP287	ltpFR2	22	10	n/a	n/a	n/a	n/a	0	0	0
2079402	REC_WORD	wordpools/wasnorm_wordpool_576.txt	LTP287	ltpFR2	22	10	SCULPTURE	1258	n/a	n/a	0	0	0
2080432	REC_WORD	wordpools/wasnorm_wordpool_576.txt	LTP287	ltpFR2	22	10	STATUE	1374	n/a	n/a	0	0	0
2082275	REC_WORD	wordpools/wasnorm_wordpool_576.txt	LTP287	ltpFR2	22	10	IDOL	733	n/a	n/a	0	0	0
2083221	REC_WORD	wordpools/wasnorm_wordpool_576.txt	LTP287	ltpFR2	22	10	GAZELLE	628	n/a	n/a	0	0	0
2083977	REC_WORD	wordpools/wasnorm_wordpool_576.txt	LTP287	ltpFR2	22	10	PENGUIN	1044	n/a	n/a	0	0	0
2089796	REC_WORD	wordpools/wasnorm_wordpool_576.txt	LTP287	ltpFR2	22	10	ROBIN	1199	n/a	n/a	0	0	0
2094836	REC_WORD	wordpools/wasnorm_wordpool_576.txt	LTP287	ltpFR2	22	10	DRILL	497	n/a	n/a	0	0	0
2169579	DISTRACTOR	n/a	LTP287	ltpFR2	22	11	n/a	n/a	n/a	n/a	0	0	0
2169579	START	n/a	LTP287	ltpFR2	22	n/a	n/a	n/a	17	n/a	n/a	n/a	n/a
2169612	PROB	n/a	LTP287	ltpFR2	22	n/a	n/a	n/a	17	16	8	4	4
2171030	PROB	n/a	LTP287	ltpFR2	22	n/a	n/a	n/a	17	16	9	5	2
2173265	PROB	n/a	LTP287	ltpFR2	22	n/a	n/a	n/a	17	16	5	2	9
2175533	PROB	n/a	LTP287	ltpFR2	22	n/a	n/a	n/a	17	20	7	8	5
2178102	PROB	n/a	LTP287	ltpFR2	22	n/a	n/a	n/a	17	9	4	2	3
2179904	PROB	n/a	LTP287	ltpFR2	22	n/a	n/a	n/a	17	13	4	8	1
2181805	PROB	n/a	LTP287	ltpFR2	22	n/a	n/a	n/a	17	20	5	7	8
2183657	PROB	n/a	LTP287	ltpFR2	22	n/a	n/a	n/a	17	21	6	8	7
2187476	PROB	n/a	LTP287	ltpFR2	22	n/a	n/a	n/a	17	9	7	1	1
2188877	PROB	n/a	LTP287	ltpFR2	22	n/a	n/a	n/a	17	23	6	8	9
2192319	STOP	n/a	LTP287	ltpFR2	22	n/a	n/a	n/a	17	n/a	n/a	n/a	n/a
2194615	WORD	wordpools/wasnorm_wordpool_576.txt	LTP287	ltpFR2	22	11	CHAPEL	280	n/a	n/a	0	0	0
2197334	WORD	wordpools/wasnorm_wordpool_576.txt	LTP287	ltpFR2	22	11	WHISKERS	1605	n/a	n/a	0	0	0
2200136	WORD	wordpools/wasnorm_wordpool_576.txt	LTP287	ltpFR2	22	11	PLATE	1086	n/a	n/a	0	0	0
2202722	WORD	wordpools/wasnorm_wordpool_576.txt	LTP287	ltpFR2	22	11	COOK	372	n/a	n/a	0	0	0
2205240	WORD	wordpools/wasnorm_wordpool_576.txt	LTP287	ltpFR2	22	11	BACON	67	n/a	n/a	0	0	0
2208009	WORD	wordpools/wasnorm_wordpool_576.txt	LTP287	ltpFR2	22	11	SHRUB	1299	n/a	n/a	0	0	0
2210661	WORD	wordpools/wasnorm_wordpool_576.txt	LTP287	ltpFR2	22	11	TORTOISE	1486	n/a	n/a	0	0	0
2213364	WORD	wordpools/wasnorm_wordpool_576.txt	LTP287	ltpFR2	22	11	GRAVEL	659	n/a	n/a	0	0	0
2216116	WORD	wordpools/wasnorm_wordpool_576.txt	LTP287	ltpFR2	22	11	ACTRESS	6	n/a	n/a	0	0	0
2218751	WORD	wordpools/wasnorm_wordpool_576.txt	LTP287	ltpFR2	22	11	CASKET	255	n/a	n/a	0	0	0
2221487	WORD	wordpools/wasnorm_wordpool_576.txt	LTP287	ltpFR2	22	11	EYELASH	546	n/a	n/a	0	0	0
2224239	WORD	wordpools/wasnorm_wordpool_576.txt	LTP287	ltpFR2	22	11	LUMBER	848	n/a	n/a	0	0	0
2226791	WORD	wordpools/wasnorm_wordpool_576.txt	LTP287	ltpFR2	22	11	TABLE	1426	n/a	n/a	0	0	0
2229443	WORD	wordpools/wasnorm_wordpool_576.txt	LTP287	ltpFR2	22	11	WINDOW	1611	n/a	n/a	0	0	0
2231995	WORD	wordpools/wasnorm_wordpool_576.txt	LTP287	ltpFR2	22	11	BANQUET	86	n/a	n/a	0	0	0
2234497	WORD	wordpools/wasnorm_wordpool_576.txt	LTP287	ltpFR2	22	11	SUPPER	1411	n/a	n/a	0	0	0
2236966	WORD	wordpools/wasnorm_wordpool_576.txt	LTP287	ltpFR2	22	11	LEADER	807	n/a	n/a	0	0	0
2239718	WORD	wordpools/wasnorm_wordpool_576.txt	LTP287	ltpFR2	22	11	SPACE	1345	n/a	n/a	0	0	0
2242537	WORD	wordpools/wasnorm_wordpool_576.txt	LTP287	ltpFR2	22	11	OZONE	996	n/a	n/a	0	0	0
2245106	WORD	wordpools/wasnorm_wordpool_576.txt	LTP287	ltpFR2	22	11	CARRIAGE	248	n/a	n/a	0	0	0
2247874	WORD	wordpools/wasnorm_wordpool_576.txt	LTP287	ltpFR2	22	11	FIREMAN	569	n/a	n/a	0	0	0
2250510	WORD	wordpools/wasnorm_wordpool_576.txt	LTP287	ltpFR2	22	11	FLASHLIGHT	575	n/a	n/a	0	0	0
2253095	WORD	wordpools/wasnorm_wordpool_576.txt	LTP287	ltpFR2	22	11	TURTLE	1522	n/a	n/a	0	0	0
2255664	WORD	wordpools/wasnorm_wordpool_576.txt	LTP287	ltpFR2	22	11	GUITAR	670	n/a	n/a	0	0	0
2257282	START	n/a	LTP287	ltpFR2	22	n/a	n/a	n/a	18	n/a	n/a	n/a	n/a
2258430	DISTRACTOR	n/a	LTP287	ltpFR2	22	11	n/a	n/a	n/a	n/a	0	0	0
2258449	PROB	n/a	LTP287	ltpFR2	22	n/a	n/a	n/a	18	18	1	9	8
2260768	PROB	n/a	LTP287	ltpFR2	22	n/a	n/a	n/a	18	17	7	3	7
2262903	PROB	n/a	LTP287	ltpFR2	22	n/a	n/a	n/a	18	15	9	5	1
2265188	PROB	n/a	LTP287	ltpFR2	22	n/a	n/a	n/a	18	9	5	2	2
2266306	PROB	n/a	LTP287	ltpFR2	22	n/a	n/a	n/a	18	22	9	8	5
2269792	PROB	n/a	LTP287	ltpFR2	22	n/a	n/a	n/a	18	17	7	6	4
2271326	PROB	n/a	LTP287	ltpFR2	22	n/a	n/a	n/a	18	19	8	5	6
2273762	PROB	n/a	LTP287	ltpFR2	22	n/a	n/a	n/a	18	23	6	9	8
2276230	PROB	n/a	LTP287	ltpFR2	22	n/a	n/a	n/a	18	20	3	9	8
2281282	STOP	n/a	LTP287	ltpFR2	22	n/a	n/a	n/a	18	n/a	n/a	n/a	n/a
2283136	REC_START	n/a	LTP287	ltpFR2	22	11	n/a	n/a	n/a	n/a	0	0	0
2285811	REC_WORD	wordpools/wasnorm_wordpool_576.txt	LTP287	ltpFR2	22	11	TABLE	1426	n/a	n/a	0	0	0
2288356	REC_WORD	wordpools/wasnorm_wordpool_576.txt	LTP287	ltpFR2	22	11	BANQUET	86	n/a	n/a	0	0	0
2295979	REC_WORD	wordpools/wasnorm_wordpool_576.txt	LTP287	ltpFR2	22	11	SPACE	1345	n/a	n/a	0	0	0
2297433	REC_WORD	wordpools/wasnorm_wordpool_576.txt	LTP287	ltpFR2	22	11	OZONE	996	n/a	n/a	0	0	0
2298049	REC_WORD	wordpools/wasnorm_wordpool_576.txt	LTP287	ltpFR2	22	11	FIREMAN	569	n/a	n/a	0	0	0
2373775	DISTRACTOR	n/a	LTP287	ltpFR2	22	12	n/a	n/a	n/a	n/a	0	0	0
2373775	START	n/a	LTP287	ltpFR2	22	n/a	n/a	n/a	19	n/a	n/a	n/a	n/a
2373808	PROB	n/a	LTP287	ltpFR2	22	n/a	n/a	n/a	19	10	1	1	8
2375092	PROB	n/a	LTP287	ltpFR2	22	n/a	n/a	n/a	19	10	2	6	2
2376577	PROB	n/a	LTP287	ltpFR2	22	n/a	n/a	n/a	19	9	4	2	3
2378562	PROB	n/a	LTP287	ltpFR2	22	n/a	n/a	n/a	19	18	4	9	5
2380380	PROB	n/a	LTP287	ltpFR2	22	n/a	n/a	n/a	19	9	2	1	6
2381831	PROB	n/a	LTP287	ltpFR2	22	n/a	n/a	n/a	19	7	1	5	1
2383149	PROB	n/a	LTP287	ltpFR2	22	n/a	n/a	n/a	19	21	7	8	6
2385100	PROB	n/a	LTP287	ltpFR2	22	n/a	n/a	n/a	19	18	5	8	5
2386552	PROB	n/a	LTP287	ltpFR2	22	n/a	n/a	n/a	19	16	6	3	7
2388253	PROB	n/a	LTP287	ltpFR2	22	n/a	n/a	n/a	19	17	5	9	3
2390938	PROB	n/a	LTP287	ltpFR2	22	n/a	n/a	n/a	19	13	7	3	3
2392189	PROB	n/a	LTP287	ltpFR2	22	n/a	n/a	n/a	19	16	3	6	7
2394041	PROB	n/a	LTP287	ltpFR2	22	n/a	n/a	n/a	19	17	7	7	3
2397775	STOP	n/a	LTP287	ltpFR2	22	n/a	n/a	n/a	19	n/a	n/a	n/a	n/a
2398895	WORD	wordpools/wasnorm_wordpool_576.txt	LTP287	ltpFR2	22	12	BOUQUET	157	n/a	n/a	0	0	0
2401547	WORD	wordpools/wasnorm_wordpool_576.txt	LTP287	ltpFR2	22	12	CRITIC	410	n/a	n/a	0	0	0
2403982	WORD	wordpools/wasnorm_wordpool_576.txt	LTP287	ltpFR2	22	12	COMET	353	n/a	n/a	0	0	0
2406734	WORD	wordpools/wasnorm_wordpool_576.txt	LTP287	ltpFR2	22	12	ROCKET	1202	n/a	n/a	0	0	0
2409470	WORD	wordpools/wasnorm_wordpool_576.txt	LTP287	ltpFR2	22	12	ANTLER	29	n/a	n/a	0	0	0
2411955	WORD	wordpools/wasnorm_wordpool_576.txt	LTP287	ltpFR2	22	12	HUSBAND	728	n/a	n/a	0	0	0
2414757	WORD	wordpools/wasnorm_wordpool_576.txt	LTP287	ltpFR2	22	12	ACTOR	5	n/a	n/a	0	0	0
2417243	WORD	wordpools/wasnorm_wordpool_576.txt	LTP287	ltpFR2	22	12	FILM	565	n/a	n/a	0	0	0
2419895	WORD	wordpools/wasnorm_wordpool_576.txt	LTP287	ltpFR2	22	12	BROTHER	179	n/a	n/a	0	0	0
2422513	WORD	wordpools/wasnorm_wordpool_576.txt	LTP287	ltpFR2	22	12	COCOON	339	n/a	n/a	0	0	0
2424982	WORD	wordpools/wasnorm_wordpool_576.txt	LTP287	ltpFR2	22	12	SCRIBBLE	1256	n/a	n/a	0	0	0
2427701	WORD	wordpools/wasnorm_wordpool_576.txt	LTP287	ltpFR2	22	12	DONOR	485	n/a	n/a	0	0	0
2430370	WORD	wordpools/wasnorm_wordpool_576.txt	LTP287	ltpFR2	22	12	FRAGRANCE	599	n/a	n/a	0	0	0
2432905	WORD	wordpools/wasnorm_wordpool_576.txt	LTP287	ltpFR2	22	12	WASP	1593	n/a	n/a	0	0	0
2435424	WORD	wordpools/wasnorm_wordpool_576.txt	LTP287	ltpFR2	22	12	YARN	1631	n/a	n/a	0	0	0
2438143	WORD	wordpools/wasnorm_wordpool_576.txt	LTP287	ltpFR2	22	12	CAMEL	223	n/a	n/a	0	0	0
2440878	WORD	wordpools/wasnorm_wordpool_576.txt	LTP287	ltpFR2	22	12	CIGAR	308	n/a	n/a	0	0	0
2443697	WORD	wordpools/wasnorm_wordpool_576.txt	LTP287	ltpFR2	22	12	GUARD	667	n/a	n/a	0	0	0
2446199	WORD	wordpools/wasnorm_wordpool_576.txt	LTP287	ltpFR2	22	12	CHEMIST	292	n/a	n/a	0	0	0
2448734	WORD	wordpools/wasnorm_wordpool_576.txt	LTP287	ltpFR2	22	12	GLOBE	641	n/a	n/a	0	0	0
2451503	WORD	wordpools/wasnorm_wordpool_576.txt	LTP287	ltpFR2	22	12	RELISH	1183	n/a	n/a	0	0	0
2454055	WORD	wordpools/wasnorm_wordpool_576.txt	LTP287	ltpFR2	22	12	DASHBOARD	441	n/a	n/a	0	0	0
2456591	WORD	wordpools/wasnorm_wordpool_576.txt	LTP287	ltpFR2	22	12	TEACHER	1440	n/a	n/a	0	0	0
2459059	WORD	wordpools/wasnorm_wordpool_576.txt	LTP287	ltpFR2	22	12	SIBLING	1301	n/a	n/a	0	0	0
2460677	START	n/a	LTP287	ltpFR2	22	n/a	n/a	n/a	20	n/a	n/a	n/a	n/a
2461712	DISTRACTOR	n/a	LTP287	ltpFR2	22	12	n/a	n/a	n/a	n/a	0	0	0
2461745	PROB	n/a	LTP287	ltpFR2	22	n/a	n/a	n/a	20	14	6	3	5
2463880	PROB	n/a	LTP287	ltpFR2	22	n/a	n/a	n/a	20	12	4	2	6
2465698	PROB	n/a	LTP287	ltpFR2	22	n/a	n/a	n/a	20	3	1	1	1
2466599	PROB	n/a	LTP287	ltpFR2	22	n/a	n/a	n/a	20	18	7	9	2
2468434	PROB	n/a	LTP287	ltpFR2	22	n/a	n/a	n/a	20	6	1	1	4
2469684	PROB	n/a	LTP287	ltpFR2	22	n/a	n/a	n/a	20	18	8	6	4
2471236	PROB	n/a	LTP287	ltpFR2	22	n/a	n/a	n/a	20	10	3	3	4
2472770	PROB	n/a	LTP287	ltpFR2	22	n/a	n/a	n/a	20	20	4	9	7
2475022	PROB	n/a	LTP287	ltpFR2	22	n/a	n/a	n/a	20	8	1	1	6
2476256	PROB	n/a	LTP287	ltpFR2	22	n/a	n/a	n/a	20	10	5	4	1
2477607	PROB	n/a	LTP287	ltpFR2	22	n/a	n/a	n/a	20	17	4	9	4
2479242	PROB	n/a	LTP287	ltpFR2	22	n/a	n/a	n/a	20	19	3	9	7
2480610	PROB	n/a	LTP287	ltpFR2	22	n/a	n/a	n/a	20	26	9	8	9
2484433	STOP	n/a	LTP287	ltpFR2	22	n/a	n/a	n/a	20	n/a	n/a	n/a	n/a
2486548	REC_START	n/a	LTP287	ltpFR2	22	12	n/a	n/a	n/a	n/a	0	0	0
2488579	REC_WORD	wordpools/wasnorm_wordpool_576.txt	LTP287	ltpFR2	22	12	SCRIBBLE	1256	n/a	n/a	0	0	0
2490386	REC_WORD	wordpools/wasnorm_wordpool_576.txt	LTP287	ltpFR2	22	12	BROTHER	179	n/a	n/a	0	0	0
2490935	REC_WORD	wordpools/wasnorm_wordpool_576.txt	LTP287	ltpFR2	22	12	COCOON	339	n/a	n/a	0	0	0
2493676	REC_WORD	wordpools/wasnorm_wordpool_576.txt	LTP287	ltpFR2	22	12	DASHBOARD	441	n/a	n/a	0	0	0
2494353	REC_WORD	wordpools/wasnorm_wordpool_576.txt	LTP287	ltpFR2	22	12	TEACHER	1440	n/a	n/a	0	0	0
2577187	DISTRACTOR	n/a	LTP287	ltpFR2	22	13	n/a	n/a	n/a	n/a	0	0	0
2577187	START	n/a	LTP287	ltpFR2	22	n/a	n/a	n/a	21	n/a	n/a	n/a	n/a
2577220	PROB	n/a	LTP287	ltpFR2	22	n/a	n/a	n/a	21	16	9	3	4
2579372	PROB	n/a	LTP287	ltpFR2	22	n/a	n/a	n/a	21	17	8	2	7
2580606	PROB	n/a	LTP287	ltpFR2	22	n/a	n/a	n/a	21	16	4	9	3
2582324	PROB	n/a	LTP287	ltpFR2	22	n/a	n/a	n/a	21	3	1	1	1
2583575	PROB	n/a	LTP287	ltpFR2	22	n/a	n/a	n/a	21	17	5	8	4
2585527	PROB	n/a	LTP287	ltpFR2	22	n/a	n/a	n/a	21	14	4	3	7
2586811	PROB	n/a	LTP287	ltpFR2	22	n/a	n/a	n/a	21	20	5	8	7
2588813	PROB	n/a	LTP287	ltpFR2	22	n/a	n/a	n/a	21	10	3	3	4
2591165	PROB	n/a	LTP287	ltpFR2	22	n/a	n/a	n/a	21	18	8	1	9
2592516	PROB	n/a	LTP287	ltpFR2	22	n/a	n/a	n/a	21	12	4	4	4
2593767	PROB	n/a	LTP287	ltpFR2	22	n/a	n/a	n/a	21	17	5	6	6
2596819	PROB	n/a	LTP287	ltpFR2	22	n/a	n/a	n/a	21	16	2	8	6
2598120	PROB	n/a	LTP287	ltpFR2	22	n/a	n/a	n/a	21	18	9	8	1
2599885	STOP	n/a	LTP287	ltpFR2	22	n/a	n/a	n/a	21	n/a	n/a	n/a	n/a
2602390	WORD	wordpools/wasnorm_wordpool_576.txt	LTP287	ltpFR2	22	13	AIRPLANE	12	n/a	n/a	0	0	0
2604976	WORD	wordpools/wasnorm_wordpool_576.txt	LTP287	ltpFR2	22	13	DIVER	476	n/a	n/a	0	0	0
2607678	WORD	wordpools/wasnorm_wordpool_576.txt	LTP287	ltpFR2	22	13	MISTER	901	n/a	n/a	0	0	0
2610297	WORD	wordpools/wasnorm_wordpool_576.txt	LTP287	ltpFR2	22	13	DRESSER	496	n/a	n/a	0	0	0
2612799	WORD	wordpools/wasnorm_wordpool_576.txt	LTP287	ltpFR2	22	13	BANK	83	n/a	n/a	0	0	0
2615484	WORD	wordpools/wasnorm_wordpool_576.txt	LTP287	ltpFR2	22	13	COIN	343	n/a	n/a	0	0	0
2618003	WORD	wordpools/wasnorm_wordpool_576.txt	LTP287	ltpFR2	22	13	GIFT	635	n/a	n/a	0	0	0
2620822	WORD	wordpools/wasnorm_wordpool_576.txt	LTP287	ltpFR2	22	13	POSTAGE	1113	n/a	n/a	0	0	0
2623657	WORD	wordpools/wasnorm_wordpool_576.txt	LTP287	ltpFR2	22	13	BURGLAR	200	n/a	n/a	0	0	0
2626343	WORD	wordpools/wasnorm_wordpool_576.txt	LTP287	ltpFR2	22	13	ROD	1203	n/a	n/a	0	0	0
2629162	WORD	wordpools/wasnorm_wordpool_576.txt	LTP287	ltpFR2	22	13	FINGER	567	n/a	n/a	0	0	0
2631980	WORD	wordpools/wasnorm_wordpool_576.txt	LTP287	ltpFR2	22	13	VALVE	1546	n/a	n/a	0	0	0
2634499	WORD	wordpools/wasnorm_wordpool_576.txt	LTP287	ltpFR2	22	13	SHORTS	1293	n/a	n/a	0	0	0
2636984	WORD	wordpools/wasnorm_wordpool_576.txt	LTP287	ltpFR2	22	13	HEADBAND	696	n/a	n/a	0	0	0
2639570	WORD	wordpools/wasnorm_wordpool_576.txt	LTP287	ltpFR2	22	13	FOREHEAD	592	n/a	n/a	0	0	0
2642172	WORD	wordpools/wasnorm_wordpool_576.txt	LTP287	ltpFR2	22	13	TWISTER	1530	n/a	n/a	0	0	0
2645007	WORD	wordpools/wasnorm_wordpool_576.txt	LTP287	ltpFR2	22	13	RUST	1219	n/a	n/a	0	0	0
2647660	WORD	wordpools/wasnorm_wordpool_576.txt	LTP287	ltpFR2	22	13	MEAT	883	n/a	n/a	0	0	0
2650278	WORD	wordpools/wasnorm_wordpool_576.txt	LTP287	ltpFR2	22	13	MAMMAL	861	n/a	n/a	0	0	0
2652865	WORD	wordpools/wasnorm_wordpool_576.txt	LTP287	ltpFR2	22	13	YACHT	1629	n/a	n/a	0	0	0
2655349	WORD	wordpools/wasnorm_wordpool_576.txt	LTP287	ltpFR2	22	13	ATLAS	53	n/a	n/a	0	0	0
2658168	WORD	wordpools/wasnorm_wordpool_576.txt	LTP287	ltpFR2	22	13	ITEM	746	n/a	n/a	0	0	0
2660637	WORD	wordpools/wasnorm_wordpool_576.txt	LTP287	ltpFR2	22	13	ZIPPER	1636	n/a	n/a	0	0	0
2663439	WORD	wordpools/wasnorm_wordpool_576.txt	LTP287	ltpFR2	22	13	WIDOW	1608	n/a	n/a	0	0	0
2665057	START	n/a	LTP287	ltpFR2	22	n/a	n/a	n/a	22	n/a	n/a	n/a	n/a
2666255	DISTRACTOR	n/a	LTP287	ltpFR2	22	13	n/a	n/a	n/a	n/a	0	0	0
2666274	PROB	n/a	LTP287	ltpFR2	22	n/a	n/a	n/a	22	8	6	1	1
2668660	PROB	n/a	LTP287	ltpFR2	22	n/a	n/a	n/a	22	13	4	5	4
2671629	PROB	n/a	LTP287	ltpFR2	22	n/a	n/a	n/a	22	8	1	4	3
2673564	PROB	n/a	LTP287	ltpFR2	22	n/a	n/a	n/a	22	15	3	7	5
2674798	PROB	n/a	LTP287	ltpFR2	22	n/a	n/a	n/a	22	21	8	5	8
2676533	PROB	n/a	LTP287	ltpFR2	22	n/a	n/a	n/a	22	19	4	6	9
2677950	PROB	n/a	LTP287	ltpFR2	22	n/a	n/a	n/a	22	5	1	2	2
2679018	PROB	n/a	LTP287	ltpFR2	22	n/a	n/a	n/a	22	23	9	5	9
2680736	PROB	n/a	LTP287	ltpFR2	22	n/a	n/a	n/a	22	18	8	1	9
2681954	PROB	n/a	LTP287	ltpFR2	22	n/a	n/a	n/a	22	15	8	1	6
2684055	PROB	n/a	LTP287	ltpFR2	22	n/a	n/a	n/a	22	10	1	4	5
2685640	PROB	n/a	LTP287	ltpFR2	22	n/a	n/a	n/a	22	7	4	2	1
2687752	STOP	n/a	LTP287	ltpFR2	22	n/a	n/a	n/a	22	n/a	n/a	n/a	n/a
2690878	REC_START	n/a	LTP287	ltpFR2	22	13	n/a	n/a	n/a	n/a	0	0	0
2698404	REC_WORD	wordpools/wasnorm_wordpool_576.txt	LTP287	ltpFR2	22	13	RUST	1219	n/a	n/a	0	0	0
2781500	DISTRACTOR	n/a	LTP287	ltpFR2	22	14	n/a	n/a	n/a	n/a	0	0	0
2781500	START	n/a	LTP287	ltpFR2	22	n/a	n/a	n/a	23	n/a	n/a	n/a	n/a
2781533	PROB	n/a	LTP287	ltpFR2	22	n/a	n/a	n/a	23	13	5	5	3
2783101	PROB	n/a	LTP287	ltpFR2	22	n/a	n/a	n/a	23	22	8	7	7
2786654	PROB	n/a	LTP287	ltpFR2	22	n/a	n/a	n/a	23	15	2	4	9
2788755	PROB	n/a	LTP287	ltpFR2	22	n/a	n/a	n/a	23	17	9	3	5
2790473	PROB	n/a	LTP287	ltpFR2	22	n/a	n/a	n/a	23	16	8	6	2
2792158	PROB	n/a	LTP287	ltpFR2	22	n/a	n/a	n/a	23	22	5	8	8
2794160	PROB	n/a	LTP287	ltpFR2	22	n/a	n/a	n/a	23	23	8	6	9
2798380	PROB	n/a	LTP287	ltpFR2	22	n/a	n/a	n/a	23	16	3	4	9
2800081	PROB	n/a	LTP287	ltpFR2	22	n/a	n/a	n/a	23	15	4	6	5
2801749	PROB	n/a	LTP287	ltpFR2	22	n/a	n/a	n/a	23	15	2	9	4
2803901	PROB	n/a	LTP287	ltpFR2	22	n/a	n/a	n/a	23	17	7	9	1
2805133	STOP	n/a	LTP287	ltpFR2	22	n/a	n/a	n/a	23	n/a	n/a	n/a	n/a
2806470	WORD	wordpools/wasnorm_wordpool_576.txt	LTP287	ltpFR2	22	14	DOUGHNUT	490	n/a	n/a	0	0	0
2809055	WORD	wordpools/wasnorm_wordpool_576.txt	LTP287	ltpFR2	22	14	APPLE	33	n/a	n/a	0	0	0
2811740	WORD	wordpools/wasnorm_wordpool_576.txt	LTP287	ltpFR2	22	14	GARDEN	623	n/a	n/a	0	0	0
2814176	WORD	wordpools/wasnorm_wordpool_576.txt	LTP287	ltpFR2	22	14	ORCHID	982	n/a	n/a	0	0	0
2816961	WORD	wordpools/wasnorm_wordpool_576.txt	LTP287	ltpFR2	22	14	GRAVE	658	n/a	n/a	0	0	0
2819530	WORD	wordpools/wasnorm_wordpool_576.txt	LTP287	ltpFR2	22	14	DAUGHTER	442	n/a	n/a	0	0	0
2821965	WORD	wordpools/wasnorm_wordpool_576.txt	LTP287	ltpFR2	22	14	BUBBLE	183	n/a	n/a	0	0	0
2824517	WORD	wordpools/wasnorm_wordpool_576.txt	LTP287	ltpFR2	22	14	COURSE	390	n/a	n/a	0	0	0
2827153	WORD	wordpools/wasnorm_wordpool_576.txt	LTP287	ltpFR2	22	14	PUPIL	1143	n/a	n/a	0	0	0
2829805	WORD	wordpools/wasnorm_wordpool_576.txt	LTP287	ltpFR2	22	14	RIFLE	1192	n/a	n/a	0	0	0
2832507	WORD	wordpools/wasnorm_wordpool_576.txt	LTP287	ltpFR2	22	14	HOOD	714	n/a	n/a	0	0	0
2835092	WORD	wordpools/wasnorm_wordpool_576.txt	LTP287	ltpFR2	22	14	CUSTARD	429	n/a	n/a	0	0	0
2837894	WORD	wordpools/wasnorm_wordpool_576.txt	LTP287	ltpFR2	22	14	RADISH	1158	n/a	n/a	0	0	0
2840363	WORD	wordpools/wasnorm_wordpool_576.txt	LTP287	ltpFR2	22	14	MARKET	871	n/a	n/a	0	0	0
2842815	WORD	wordpools/wasnorm_wordpool_576.txt	LTP287	ltpFR2	22	14	ARMY	39	n/a	n/a	0	0	0
2845584	WORD	wordpools/wasnorm_wordpool_576.txt	LTP287	ltpFR2	22	14	KNIFE	785	n/a	n/a	0	0	0
2848136	WORD	wordpools/wasnorm_wordpool_576.txt	LTP287	ltpFR2	22	14	POISON	1096	n/a	n/a	0	0	0
2850888	WORD	wordpools/wasnorm_wordpool_576.txt	LTP287	ltpFR2	22	14	SWORD	1423	n/a	n/a	0	0	0
2853340	WORD	wordpools/wasnorm_wordpool_576.txt	LTP287	ltpFR2	22	14	SCALPEL	1243	n/a	n/a	0	0	0
2855909	WORD	wordpools/wasnorm_wordpool_576.txt	LTP287	ltpFR2	22	14	CURTAIN	427	n/a	n/a	0	0	0
2858628	WORD	wordpools/wasnorm_wordpool_576.txt	LTP287	ltpFR2	22	14	FLOWER	584	n/a	n/a	0	0	0
2861330	WORD	wordpools/wasnorm_wordpool_576.txt	LTP287	ltpFR2	22	14	LIGHTNING	820	n/a	n/a	0	0	0
2864149	WORD	wordpools/wasnorm_wordpool_576.txt	LTP287	ltpFR2	22	14	NOTEBOOK	959	n/a	n/a	0	0	0
2866868	WORD	wordpools/wasnorm_wordpool_576.txt	LTP287	ltpFR2	22	14	CABBAGE	210	n/a	n/a	0	0	0
2868486	START	n/a	LTP287	ltpFR2	22	n/a	n/a	n/a	24	n/a	n/a	n/a	n/a
2869544	DISTRACTOR	n/a	LTP287	ltpFR2	22	14	n/a	n/a	n/a	n/a	0	0	0
2869570	PROB	n/a	LTP287	ltpFR2	22	n/a	n/a	n/a	24	19	9	8	2
2871421	PROB	n/a	LTP287	ltpFR2	22	n/a	n/a	n/a	24	9	2	2	5
2872739	PROB	n/a	LTP287	ltpFR2	22	n/a	n/a	n/a	24	12	8	3	1
2874157	PROB	n/a	LTP287	ltpFR2	22	n/a	n/a	n/a	24	21	9	3	9
2875958	PROB	n/a	LTP287	ltpFR2	22	n/a	n/a	n/a	24	20	6	5	9
2877861	PROB	n/a	LTP287	ltpFR2	22	n/a	n/a	n/a	24	13	4	5	4
2879378	PROB	n/a	LTP287	ltpFR2	22	n/a	n/a	n/a	24	15	5	1	9
2881346	PROB	n/a	LTP287	ltpFR2	22	n/a	n/a	n/a	24	12	9	2	1
2882614	PROB	n/a	LTP287	ltpFR2	22	n/a	n/a	n/a	24	8	4	2	2
2883798	PROB	n/a	LTP287	ltpFR2	22	n/a	n/a	n/a	24	17	8	5	4
2886200	PROB	n/a	LTP287	ltpFR2	22	n/a	n/a	n/a	24	10	3	1	6
2888085	PROB	n/a	LTP287	ltpFR2	22	n/a	n/a	n/a	24	15	2	8	5
2890687	PROB	n/a	LTP287	ltpFR2	22	n/a	n/a	n/a	24	10	1	4	5
2892127	STOP	n/a	LTP287	ltpFR2	22	n/a	n/a	n/a	24	n/a	n/a	n/a	n/a
2894323	REC_START	n/a	LTP287	ltpFR2	22	14	n/a	n/a	n/a	n/a	0	0	0
2896173	REC_WORD	wordpools/wasnorm_wordpool_576.txt	LTP287	ltpFR2	22	14	FLOWER	584	n/a	n/a	0	0	0
2898504	REC_WORD	wordpools/wasnorm_wordpool_576.txt	LTP287	ltpFR2	22	14	DOUGHNUT	490	n/a	n/a	0	0	0
2899115	REC_WORD	wordpools/wasnorm_wordpool_576.txt	LTP287	ltpFR2	22	14	APPLE	33	n/a	n/a	0	0	0
2899577	REC_WORD	wordpools/wasnorm_wordpool_576.txt	LTP287	ltpFR2	22	14	GARDEN	623	n/a	n/a	0	0	0
2900233	REC_WORD	wordpools/wasnorm_wordpool_576.txt	LTP287	ltpFR2	22	14	GRAVE	658	n/a	n/a	0	0	0
2900713	REC_WORD	wordpools/wasnorm_wordpool_576.txt	LTP287	ltpFR2	22	14	DAUGHTER	442	n/a	n/a	0	0	0
2901164	REC_WORD	wordpools/wasnorm_wordpool_576.txt	LTP287	ltpFR2	22	14	BUBBLE	183	n/a	n/a	0	0	0
2901670	REC_WORD	wordpools/wasnorm_wordpool_576.txt	LTP287	ltpFR2	22	14	COURSE	390	n/a	n/a	0	0	0
2984995	WORD	wordpools/wasnorm_wordpool_576.txt	LTP287	ltpFR2	22	15	SUITCASE	1403	n/a	n/a	0	0	0
2987580	WORD	wordpools/wasnorm_wordpool_576.txt	LTP287	ltpFR2	22	15	LION	827	n/a	n/a	0	0	0
2990149	WORD	wordpools/wasnorm_wordpool_576.txt	LTP287	ltpFR2	22	15	COMPASS	358	n/a	n/a	0	0	0
2992651	WORD	wordpools/wasnorm_wordpool_576.txt	LTP287	ltpFR2	22	15	REBEL	1172	n/a	n/a	0	0	0
2995220	WORD	wordpools/wasnorm_wordpool_576.txt	LTP287	ltpFR2	22	15	THIEF	1456	n/a	n/a	0	0	0
2997839	WORD	wordpools/wasnorm_wordpool_576.txt	LTP287	ltpFR2	22	15	AIRPORT	13	n/a	n/a	0	0	0
3000474	WORD	wordpools/wasnorm_wordpool_576.txt	LTP287	ltpFR2	22	15	OX	994	n/a	n/a	0	0	0
3003243	WORD	wordpools/wasnorm_wordpool_576.txt	LTP287	ltpFR2	22	15	BIKE	125	n/a	n/a	0	0	0
3005778	WORD	wordpools/wasnorm_wordpool_576.txt	LTP287	ltpFR2	22	15	PILOT	1070	n/a	n/a	0	0	0
3008314	WORD	wordpools/wasnorm_wordpool_576.txt	LTP287	ltpFR2	22	15	HUMAN	726	n/a	n/a	0	0	0
3011116	WORD	wordpools/wasnorm_wordpool_576.txt	LTP287	ltpFR2	22	15	THRONE	1461	n/a	n/a	0	0	0
3013801	WORD	wordpools/wasnorm_wordpool_576.txt	LTP287	ltpFR2	22	15	MOTOR	922	n/a	n/a	0	0	0
3016320	WORD	wordpools/wasnorm_wordpool_576.txt	LTP287	ltpFR2	22	15	BUCKET	184	n/a	n/a	0	0	0
3018839	WORD	wordpools/wasnorm_wordpool_576.txt	LTP287	ltpFR2	22	15	CAPTIVE	240	n/a	n/a	0	0	0
3021291	WORD	wordpools/wasnorm_wordpool_576.txt	LTP287	ltpFR2	22	15	OUTLAW	989	n/a	n/a	0	0	0
3023876	WORD	wordpools/wasnorm_wordpool_576.txt	LTP287	ltpFR2	22	15	PLIERS	1089	n/a	n/a	0	0	0
3026361	WORD	wordpools/wasnorm_wordpool_576.txt	LTP287	ltpFR2	22	15	FARMER	553	n/a	n/a	0	0	0
3029047	WORD	wordpools/wasnorm_wordpool_576.txt	LTP287	ltpFR2	22	15	TRIBE	1505	n/a	n/a	0	0	0
3031766	WORD	wordpools/wasnorm_wordpool_576.txt	LTP287	ltpFR2	22	15	GREASE	660	n/a	n/a	0	0	0
3034318	WORD	wordpools/wasnorm_wordpool_576.txt	LTP287	ltpFR2	22	15	BEAST	108	n/a	n/a	0	0	0
3036886	WORD	wordpools/wasnorm_wordpool_576.txt	LTP287	ltpFR2	22	15	COWBOY	395	n/a	n/a	0	0	0
3039472	WORD	wordpools/wasnorm_wordpool_576.txt	LTP287	ltpFR2	22	15	BEAKER	104	n/a	n/a	0	0	0
3042074	WORD	wordpools/wasnorm_wordpool_576.txt	LTP287	ltpFR2	22	15	FLASK	576	n/a	n/a	0	0	0
3044709	WORD	wordpools/wasnorm_wordpool_576.txt	LTP287	ltpFR2	22	15	STUDENT	1395	n/a	n/a	0	0	0
3046327	START	n/a	LTP287	ltpFR2	22	n/a	n/a	n/a	25	n/a	n/a	n/a	n/a
3047204	DISTRACTOR	n/a	LTP287	ltpFR2	22	15	n/a	n/a	n/a	n/a	0	0	0
3047228	PROB	n/a	LTP287	ltpFR2	22	n/a	n/a	n/a	25	13	2	6	5
3050547	PROB	n/a	LTP287	ltpFR2	22	n/a	n/a	n/a	25	24	8	7	9
3052349	PROB	n/a	LTP287	ltpFR2	22	n/a	n/a	n/a	25	10	2	7	1
3053700	PROB	n/a	LTP287	ltpFR2	22	n/a	n/a	n/a	25	18	9	2	7
3055351	PROB	n/a	LTP287	ltpFR2	22	n/a	n/a	n/a	25	18	8	7	3
3057887	PROB	n/a	LTP287	ltpFR2	22	n/a	n/a	n/a	25	16	5	6	5
3059138	PROB	n/a	LTP287	ltpFR2	22	n/a	n/a	n/a	25	18	6	8	4
3061189	PROB	n/a	LTP287	ltpFR2	22	n/a	n/a	n/a	25	15	9	1	5
3063157	PROB	n/a	LTP287	ltpFR2	22	n/a	n/a	n/a	25	9	4	2	3
3070327	STOP	n/a	LTP287	ltpFR2	22	n/a	n/a	n/a	25	n/a	n/a	n/a	n/a
3072182	REC_START	n/a	LTP287	ltpFR2	22	15	n/a	n/a	n/a	n/a	0	0	0
3074130	REC_WORD	wordpools/wasnorm_wordpool_576.txt	LTP287	ltpFR2	22	15	FLASK	576	n/a	n/a	0	0	0
3075032	REC_WORD	wordpools/wasnorm_wordpool_576.txt	LTP287	ltpFR2	22	15	BEAKER	104	n/a	n/a	0	0	0
3075497	REC_WORD	wordpools/wasnorm_wordpool_576.txt	LTP287	ltpFR2	22	15	STUDENT	1395	n/a	n/a	0	0	0
3078935	REC_WORD	wordpools/wasnorm_wordpool_576.txt	LTP287	ltpFR2	22	15	AIRPORT	13	n/a	n/a	0	0	0
3079578	REC_WORD	wordpools/wasnorm_wordpool_576.txt	LTP287	ltpFR2	22	15	OX	994	n/a	n/a	0	0	0
3083568	REC_WORD	wordpools/wasnorm_wordpool_576.txt	LTP287	ltpFR2	22	15	THIEF	1456	n/a	n/a	0	0	0
3084178	REC_WORD	wordpools/wasnorm_wordpool_576.txt	LTP287	ltpFR2	22	15	SUITCASE	1403	n/a	n/a	0	0	0
3162837	WORD	wordpools/wasnorm_wordpool_576.txt	LTP287	ltpFR2	22	16	ELBOW	520	n/a	n/a	0	0	0
3165606	WORD	wordpools/wasnorm_wordpool_576.txt	LTP287	ltpFR2	22	16	CRUTCH	417	n/a	n/a	0	0	0
3168174	WORD	wordpools/wasnorm_wordpool_576.txt	LTP287	ltpFR2	22	16	BROOK	177	n/a	n/a	0	0	0
3170660	WORD	wordpools/wasnorm_wordpool_576.txt	LTP287	ltpFR2	22	16	LADDER	793	n/a	n/a	0	0	0
3173362	WORD	wordpools/wasnorm_wordpool_576.txt	LTP287	ltpFR2	22	16	TUNNEL	1519	n/a	n/a	0	0	0
3176031	WORD	wordpools/wasnorm_wordpool_576.txt	LTP287	ltpFR2	22	16	FOX	598	n/a	n/a	0	0	0
3178833	WORD	wordpools/wasnorm_wordpool_576.txt	LTP287	ltpFR2	22	16	TURKEY	1520	n/a	n/a	0	0	0
3181452	WORD	wordpools/wasnorm_wordpool_576.txt	LTP287	ltpFR2	22	16	LEOPARD	812	n/a	n/a	0	0	0
3184087	WORD	wordpools/wasnorm_wordpool_576.txt	LTP287	ltpFR2	22	16	SHERIFF	1284	n/a	n/a	0	0	0
3186789	WORD	wordpools/wasnorm_wordpool_576.txt	LTP287	ltpFR2	22	16	POLICE	1098	n/a	n/a	0	0	0
3189608	WORD	wordpools/wasnorm_wordpool_576.txt	LTP287	ltpFR2	22	16	PIGEON	1065	n/a	n/a	0	0	0
3192444	WORD	wordpools/wasnorm_wordpool_576.txt	LTP287	ltpFR2	22	16	STONE	1385	n/a	n/a	0	0	0
3194979	WORD	wordpools/wasnorm_wordpool_576.txt	LTP287	ltpFR2	22	16	IGLOO	734	n/a	n/a	0	0	0
3197731	WORD	wordpools/wasnorm_wordpool_576.txt	LTP287	ltpFR2	22	16	SPOON	1357	n/a	n/a	0	0	0
3200500	WORD	wordpools/wasnorm_wordpool_576.txt	LTP287	ltpFR2	22	16	MATTRESS	879	n/a	n/a	0	0	0
3203136	WORD	wordpools/wasnorm_wordpool_576.txt	LTP287	ltpFR2	22	16	BRANCH	168	n/a	n/a	0	0	0
3205905	WORD	wordpools/wasnorm_wordpool_576.txt	LTP287	ltpFR2	22	16	SUBWAY	1400	n/a	n/a	0	0	0
3208506	WORD	wordpools/wasnorm_wordpool_576.txt	LTP287	ltpFR2	22	16	BUNNY	198	n/a	n/a	0	0	0
3211242	WORD	wordpools/wasnorm_wordpool_576.txt	LTP287	ltpFR2	22	16	CYCLONE	431	n/a	n/a	0	0	0
3213827	WORD	wordpools/wasnorm_wordpool_576.txt	LTP287	ltpFR2	22	16	ISLAND	745	n/a	n/a	0	0	0
3216613	WORD	wordpools/wasnorm_wordpool_576.txt	LTP287	ltpFR2	22	16	SWIMMER	1420	n/a	n/a	0	0	0
3219115	WORD	wordpools/wasnorm_wordpool_576.txt	LTP287	ltpFR2	22	16	CASHIER	254	n/a	n/a	0	0	0
3221617	WORD	wordpools/wasnorm_wordpool_576.txt	LTP287	ltpFR2	22	16	EMPIRE	530	n/a	n/a	0	0	0
3224203	WORD	wordpools/wasnorm_wordpool_576.txt	LTP287	ltpFR2	22	16	JAPAN	749	n/a	n/a	0	0	0
3225821	START	n/a	LTP287	ltpFR2	22	n/a	n/a	n/a	26	n/a	n/a	n/a	n/a
3226942	DISTRACTOR	n/a	LTP287	ltpFR2	22	16	n/a	n/a	n/a	n/a	0	0	0
3226971	PROB	n/a	LTP287	ltpFR2	22	n/a	n/a	n/a	26	7	2	2	3
3232642	PROB	n/a	LTP287	ltpFR2	22	n/a	n/a	n/a	26	12	1	5	6
3234744	PROB	n/a	LTP287	ltpFR2	22	n/a	n/a	n/a	26	16	7	5	4
3237046	PROB	n/a	LTP287	ltpFR2	22	n/a	n/a	n/a	26	10	6	1	3
3238647	PROB	n/a	LTP287	ltpFR2	22	n/a	n/a	n/a	26	15	7	4	4
3240298	PROB	n/a	LTP287	ltpFR2	22	n/a	n/a	n/a	26	13	4	6	3
3242217	PROB	n/a	LTP287	ltpFR2	22	n/a	n/a	n/a	26	15	8	3	4
3246020	PROB	n/a	LTP287	ltpFR2	22	n/a	n/a	n/a	26	19	7	5	7
3247705	PROB	n/a	LTP287	ltpFR2	22	n/a	n/a	n/a	26	9	2	1	6
3249028	STOP	n/a	LTP287	ltpFR2	22	n/a	n/a	n/a	26	n/a	n/a	n/a	n/a
3251725	REC_START	n/a	LTP287	ltpFR2	22	16	n/a	n/a	n/a	n/a	0	0	0
3259477	REC_WORD	wordpools/wasnorm_wordpool_576.txt	LTP287	ltpFR2	22	16	SHERIFF	1284	n/a	n/a	0	0	0
3260301	REC_WORD	wordpools/wasnorm_wordpool_576.txt	LTP287	ltpFR2	22	16	POLICE	1098	n/a	n/a	0	0	0
3328269	REST_REWET	n/a	LTP287	ltpFR2	22	16	n/a	n/a	n/a	n/a	0	0	0
3618317	WORD	wordpools/wasnorm_wordpool_576.txt	LTP287	ltpFR2	22	17	KEEPER	769	n/a	n/a	0	0	0
3620835	WORD	wordpools/wasnorm_wordpool_576.txt	LTP287	ltpFR2	22	17	DUSTPAN	509	n/a	n/a	0	0	0
3623604	WORD	wordpools/wasnorm_wordpool_576.txt	LTP287	ltpFR2	22	17	PORTRAIT	1111	n/a	n/a	0	0	0
3626123	WORD	wordpools/wasnorm_wordpool_576.txt	LTP287	ltpFR2	22	17	EUROPE	541	n/a	n/a	0	0	0
3628758	WORD	wordpools/wasnorm_wordpool_576.txt	LTP287	ltpFR2	22	17	ASIA	46	n/a	n/a	0	0	0
3631477	WORD	wordpools/wasnorm_wordpool_576.txt	LTP287	ltpFR2	22	17	SERVANT	1271	n/a	n/a	0	0	0
3633963	WORD	wordpools/wasnorm_wordpool_576.txt	LTP287	ltpFR2	22	17	BRANDY	169	n/a	n/a	0	0	0
3636632	WORD	wordpools/wasnorm_wordpool_576.txt	LTP287	ltpFR2	22	17	COLLEGE	346	n/a	n/a	0	0	0
3639133	WORD	wordpools/wasnorm_wordpool_576.txt	LTP287	ltpFR2	22	17	COUNTRY	388	n/a	n/a	0	0	0
3641869	WORD	wordpools/wasnorm_wordpool_576.txt	LTP287	ltpFR2	22	17	SALT	1229	n/a	n/a	0	0	0
3644621	WORD	wordpools/wasnorm_wordpool_576.txt	LTP287	ltpFR2	22	17	BARREL	91	n/a	n/a	0	0	0
3647240	WORD	wordpools/wasnorm_wordpool_576.txt	LTP287	ltpFR2	22	17	NOMAD	955	n/a	n/a	0	0	0
3649975	WORD	wordpools/wasnorm_wordpool_576.txt	LTP287	ltpFR2	22	17	WAITRESS	1581	n/a	n/a	0	0	0
3652628	WORD	wordpools/wasnorm_wordpool_576.txt	LTP287	ltpFR2	22	17	CHILD	299	n/a	n/a	0	0	0
3655180	WORD	wordpools/wasnorm_wordpool_576.txt	LTP287	ltpFR2	22	17	POWDER	1117	n/a	n/a	0	0	0
3657948	WORD	wordpools/wasnorm_wordpool_576.txt	LTP287	ltpFR2	22	17	PICTURE	1061	n/a	n/a	0	0	0
3660567	WORD	wordpools/wasnorm_wordpool_576.txt	LTP287	ltpFR2	22	17	MOP	916	n/a	n/a	0	0	0
3663053	WORD	wordpools/wasnorm_wordpool_576.txt	LTP287	ltpFR2	22	17	RUG	1215	n/a	n/a	0	0	0
3665688	WORD	wordpools/wasnorm_wordpool_576.txt	LTP287	ltpFR2	22	17	TAXI	1438	n/a	n/a	0	0	0
3668240	WORD	wordpools/wasnorm_wordpool_576.txt	LTP287	ltpFR2	22	17	PRIMATE	1123	n/a	n/a	0	0	0
3671026	WORD	wordpools/wasnorm_wordpool_576.txt	LTP287	ltpFR2	22	17	PLAYGROUND	1087	n/a	n/a	0	0	0
3673544	WORD	wordpools/wasnorm_wordpool_576.txt	LTP287	ltpFR2	22	17	OMELET	976	n/a	n/a	0	0	0
3676196	WORD	wordpools/wasnorm_wordpool_576.txt	LTP287	ltpFR2	22	17	OYSTER	995	n/a	n/a	0	0	0
3678648	WORD	wordpools/wasnorm_wordpool_576.txt	LTP287	ltpFR2	22	17	JELLO	754	n/a	n/a	0	0	0
3680266	START	n/a	LTP287	ltpFR2	22	n/a	n/a	n/a	27	n/a	n/a	n/a	n/a
3681419	DISTRACTOR	n/a	LTP287	ltpFR2	22	17	n/a	n/a	n/a	n/a	0	0	0
3681451	PROB	n/a	LTP287	ltpFR2	22	n/a	n/a	n/a	27	20	6	6	8
3683069	PROB	n/a	LTP287	ltpFR2	22	n/a	n/a	n/a	27	9	5	1	3
3685070	PROB	n/a	LTP287	ltpFR2	22	n/a	n/a	n/a	27	24	9	6	9
3686771	PROB	n/a	LTP287	ltpFR2	22	n/a	n/a	n/a	27	21	9	5	7
3691275	PROB	n/a	LTP287	ltpFR2	22	n/a	n/a	n/a	27	6	1	1	4
3692493	PROB	n/a	LTP287	ltpFR2	22	n/a	n/a	n/a	27	21	8	5	8
3696463	PROB	n/a	LTP287	ltpFR2	22	n/a	n/a	n/a	27	25	9	8	8
3699498	PROB	n/a	LTP287	ltpFR2	22	n/a	n/a	n/a	27	15	3	9	3
3701250	PROB	n/a	LTP287	ltpFR2	22	n/a	n/a	n/a	27	19	7	7	5
3704265	STOP	n/a	LTP287	ltpFR2	22	n/a	n/a	n/a	27	n/a	n/a	n/a	n/a
3706071	REC_START	n/a	LTP287	ltpFR2	22	17	n/a	n/a	n/a	n/a	0	0	0
3707447	REC_WORD	wordpools/wasnorm_wordpool_576.txt	LTP287	ltpFR2	22	17	KEEPER	769	n/a	n/a	0	0	0
3708057	REC_WORD	wordpools/wasnorm_wordpool_576.txt	LTP287	ltpFR2	22	17	PORTRAIT	1111	n/a	n/a	0	0	0
3709099	REC_WORD	wordpools/wasnorm_wordpool_576.txt	LTP287	ltpFR2	22	17	EUROPE	541	n/a	n/a	0	0	0
3709725	REC_WORD	wordpools/wasnorm_wordpool_576.txt	LTP287	ltpFR2	22	17	ASIA	46	n/a	n/a	0	0	0
3710955	REC_WORD	wordpools/wasnorm_wordpool_576.txt	LTP287	ltpFR2	22	17	OMELET	976	n/a	n/a	0	0	0
3712097	REC_WORD	wordpools/wasnorm_wordpool_576.txt	LTP287	ltpFR2	22	17	OYSTER	995	n/a	n/a	0	0	0
3715296	REC_WORD	wordpools/wasnorm_wordpool_576.txt	LTP287	ltpFR2	22	17	JELLO	754	n/a	n/a	0	0	0
3796726	WORD	wordpools/wasnorm_wordpool_576.txt	LTP287	ltpFR2	22	18	SPOOL	1356	n/a	n/a	0	0	0
3799295	WORD	wordpools/wasnorm_wordpool_576.txt	LTP287	ltpFR2	22	18	BRICK	172	n/a	n/a	0	0	0
3801780	WORD	wordpools/wasnorm_wordpool_576.txt	LTP287	ltpFR2	22	18	GRIZZLY	662	n/a	n/a	0	0	0
3804515	WORD	wordpools/wasnorm_wordpool_576.txt	LTP287	ltpFR2	22	18	AUTHOR	61	n/a	n/a	0	0	0
3807001	WORD	wordpools/wasnorm_wordpool_576.txt	LTP287	ltpFR2	22	18	FLUTE	585	n/a	n/a	0	0	0
3809486	WORD	wordpools/wasnorm_wordpool_576.txt	LTP287	ltpFR2	22	18	MARS	873	n/a	n/a	0	0	0
3812088	WORD	wordpools/wasnorm_wordpool_576.txt	LTP287	ltpFR2	22	18	MISSILE	900	n/a	n/a	0	0	0
3814573	WORD	wordpools/wasnorm_wordpool_576.txt	LTP287	ltpFR2	22	18	QUEEN	1149	n/a	n/a	0	0	0
3817042	WORD	wordpools/wasnorm_wordpool_576.txt	LTP287	ltpFR2	22	18	SALAD	1224	n/a	n/a	0	0	0
3819561	WORD	wordpools/wasnorm_wordpool_576.txt	LTP287	ltpFR2	22	18	SANDWICH	1232	n/a	n/a	0	0	0
3822113	WORD	wordpools/wasnorm_wordpool_576.txt	LTP287	ltpFR2	22	18	LOFT	840	n/a	n/a	0	0	0
3824915	WORD	wordpools/wasnorm_wordpool_576.txt	LTP287	ltpFR2	22	18	PLUTO	1092	n/a	n/a	0	0	0
3827417	WORD	wordpools/wasnorm_wordpool_576.txt	LTP287	ltpFR2	22	18	MASK	876	n/a	n/a	0	0	0
3829969	WORD	wordpools/wasnorm_wordpool_576.txt	LTP287	ltpFR2	22	18	VAGRANT	1544	n/a	n/a	0	0	0
3832671	WORD	wordpools/wasnorm_wordpool_576.txt	LTP287	ltpFR2	22	18	GRAPE	654	n/a	n/a	0	0	0
3835206	WORD	wordpools/wasnorm_wordpool_576.txt	LTP287	ltpFR2	22	18	CREVICE	405	n/a	n/a	0	0	0
3837925	WORD	wordpools/wasnorm_wordpool_576.txt	LTP287	ltpFR2	22	18	HERO	706	n/a	n/a	0	0	0
3840744	WORD	wordpools/wasnorm_wordpool_576.txt	LTP287	ltpFR2	22	18	RECORD	1176	n/a	n/a	0	0	0
3843196	WORD	wordpools/wasnorm_wordpool_576.txt	LTP287	ltpFR2	22	18	BLENDER	136	n/a	n/a	0	0	0
3845732	WORD	wordpools/wasnorm_wordpool_576.txt	LTP287	ltpFR2	22	18	YOLK	1633	n/a	n/a	0	0	0
3848250	WORD	wordpools/wasnorm_wordpool_576.txt	LTP287	ltpFR2	22	18	SKILLET	1317	n/a	n/a	0	0	0
3850902	WORD	wordpools/wasnorm_wordpool_576.txt	LTP287	ltpFR2	22	18	GOBLIN	645	n/a	n/a	0	0	0
3853605	WORD	wordpools/wasnorm_wordpool_576.txt	LTP287	ltpFR2	22	18	JUNGLE	764	n/a	n/a	0	0	0
3856140	WORD	wordpools/wasnorm_wordpool_576.txt	LTP287	ltpFR2	22	18	CHAMPAGNE	278	n/a	n/a	0	0	0
3857758	START	n/a	LTP287	ltpFR2	22	n/a	n/a	n/a	28	n/a	n/a	n/a	n/a
3858948	DISTRACTOR	n/a	LTP287	ltpFR2	22	18	n/a	n/a	n/a	n/a	0	0	0
3858975	PROB	n/a	LTP287	ltpFR2	22	n/a	n/a	n/a	28	14	1	4	9
3860777	PROB	n/a	LTP287	ltpFR2	22	n/a	n/a	n/a	28	5	3	1	1
3861745	PROB	n/a	LTP287	ltpFR2	22	n/a	n/a	n/a	28	24	9	6	9
3863462	PROB	n/a	LTP287	ltpFR2	22	n/a	n/a	n/a	28	20	5	9	6
3865914	PROB	n/a	LTP287	ltpFR2	22	n/a	n/a	n/a	28	22	4	9	9
3869217	PROB	n/a	LTP287	ltpFR2	22	n/a	n/a	n/a	28	21	8	5	8
3872186	PROB	n/a	LTP287	ltpFR2	22	n/a	n/a	n/a	28	15	4	9	2
3875555	PROB	n/a	LTP287	ltpFR2	22	n/a	n/a	n/a	28	15	1	8	6
3877424	PROB	n/a	LTP287	ltpFR2	22	n/a	n/a	n/a	28	5	2	2	1
3878474	PROB	n/a	LTP287	ltpFR2	22	n/a	n/a	n/a	28	19	8	4	7
3880538	STOP	n/a	LTP287	ltpFR2	22	n/a	n/a	n/a	28	n/a	n/a	n/a	n/a
3883679	REC_START	n/a	LTP287	ltpFR2	22	18	n/a	n/a	n/a	n/a	0	0	0
3887756	REC_WORD	wordpools/wasnorm_wordpool_576.txt	LTP287	ltpFR2	22	18	HERO	706	n/a	n/a	0	0	0
3888947	REC_WORD	wordpools/wasnorm_wordpool_576.txt	LTP287	ltpFR2	22	18	MASK	876	n/a	n/a	0	0	0
3893332	REC_WORD	wordpools/wasnorm_wordpool_576.txt	LTP287	ltpFR2	22	18	SKILLET	1317	n/a	n/a	0	0	0
3896774	REC_WORD	wordpools/wasnorm_wordpool_576.txt	LTP287	ltpFR2	22	18	QUEEN	1149	n/a	n/a	0	0	0
3897284	REC_WORD	wordpools/wasnorm_wordpool_576.txt	LTP287	ltpFR2	22	18	SALAD	1224	n/a	n/a	0	0	0
3897838	REC_WORD	wordpools/wasnorm_wordpool_576.txt	LTP287	ltpFR2	22	18	SANDWICH	1232	n/a	n/a	0	0	0
3974351	WORD	wordpools/wasnorm_wordpool_576.txt	LTP287	ltpFR2	22	19	AWARD	63	n/a	n/a	0	0	0
3977136	WORD	wordpools/wasnorm_wordpool_576.txt	LTP287	ltpFR2	22	19	MEDAL	885	n/a	n/a	0	0	0
3979889	WORD	wordpools/wasnorm_wordpool_576.txt	LTP287	ltpFR2	22	19	BOARD	143	n/a	n/a	0	0	0
3982341	WORD	wordpools/wasnorm_wordpool_576.txt	LTP287	ltpFR2	22	19	COFFEE	341	n/a	n/a	0	0	0
3984943	WORD	wordpools/wasnorm_wordpool_576.txt	LTP287	ltpFR2	22	19	SODA	1341	n/a	n/a	0	0	0
3987445	WORD	wordpools/wasnorm_wordpool_576.txt	LTP287	ltpFR2	22	19	BALLOON	75	n/a	n/a	0	0	0
3989997	WORD	wordpools/wasnorm_wordpool_576.txt	LTP287	ltpFR2	22	19	WRENCH	1625	n/a	n/a	0	0	0
3992532	WORD	wordpools/wasnorm_wordpool_576.txt	LTP287	ltpFR2	22	19	SMOG	1330	n/a	n/a	0	0	0
3995017	WORD	wordpools/wasnorm_wordpool_576.txt	LTP287	ltpFR2	22	19	COUSIN	392	n/a	n/a	0	0	0
3997586	WORD	wordpools/wasnorm_wordpool_576.txt	LTP287	ltpFR2	22	19	SCARECROW	1245	n/a	n/a	0	0	0
4000088	WORD	wordpools/wasnorm_wordpool_576.txt	LTP287	ltpFR2	22	19	LIZARD	834	n/a	n/a	0	0	0
4002690	WORD	wordpools/wasnorm_wordpool_576.txt	LTP287	ltpFR2	22	19	PUDDLE	1140	n/a	n/a	0	0	0
4005492	WORD	wordpools/wasnorm_wordpool_576.txt	LTP287	ltpFR2	22	19	FIREPLACE	570	n/a	n/a	0	0	0
4008011	WORD	wordpools/wasnorm_wordpool_576.txt	LTP287	ltpFR2	22	19	COBRA	336	n/a	n/a	0	0	0
4010830	WORD	wordpools/wasnorm_wordpool_576.txt	LTP287	ltpFR2	22	19	SERVER	1272	n/a	n/a	0	0	0
4013299	WORD	wordpools/wasnorm_wordpool_576.txt	LTP287	ltpFR2	22	19	HELMET	702	n/a	n/a	0	0	0
4016084	WORD	wordpools/wasnorm_wordpool_576.txt	LTP287	ltpFR2	22	19	BOYFRIEND	162	n/a	n/a	0	0	0
4018536	WORD	wordpools/wasnorm_wordpool_576.txt	LTP287	ltpFR2	22	19	TRANSPLANT	1496	n/a	n/a	0	0	0
4020971	WORD	wordpools/wasnorm_wordpool_576.txt	LTP287	ltpFR2	22	19	DOLPHIN	483	n/a	n/a	0	0	0
4023774	WORD	wordpools/wasnorm_wordpool_576.txt	LTP287	ltpFR2	22	19	BRIEFCASE	175	n/a	n/a	0	0	0
4026309	WORD	wordpools/wasnorm_wordpool_576.txt	LTP287	ltpFR2	22	19	KLEENEX	782	n/a	n/a	0	0	0
4029128	WORD	wordpools/wasnorm_wordpool_576.txt	LTP287	ltpFR2	22	19	MATCH	878	n/a	n/a	0	0	0
4031713	WORD	wordpools/wasnorm_wordpool_576.txt	LTP287	ltpFR2	22	19	LUGGAGE	847	n/a	n/a	0	0	0
4034549	WORD	wordpools/wasnorm_wordpool_576.txt	LTP287	ltpFR2	22	19	CHAUFFEUR	283	n/a	n/a	0	0	0
4036167	START	n/a	LTP287	ltpFR2	22	n/a	n/a	n/a	29	n/a	n/a	n/a	n/a
4037044	DISTRACTOR	n/a	LTP287	ltpFR2	22	19	n/a	n/a	n/a	n/a	0	0	0
4037068	PROB	n/a	LTP287	ltpFR2	22	n/a	n/a	n/a	29	15	1	6	8
4039569	PROB	n/a	LTP287	ltpFR2	22	n/a	n/a	n/a	29	16	6	6	4
4042022	PROB	n/a	LTP287	ltpFR2	22	n/a	n/a	n/a	29	18	6	7	5
4045508	PROB	n/a	LTP287	ltpFR2	22	n/a	n/a	n/a	29	12	3	4	5
4047826	PROB	n/a	LTP287	ltpFR2	22	n/a	n/a	n/a	29	14	6	1	7
4049444	PROB	n/a	LTP287	ltpFR2	22	n/a	n/a	n/a	29	14	4	2	8
4051529	PROB	n/a	LTP287	ltpFR2	22	n/a	n/a	n/a	29	18	7	8	3
4053130	PROB	n/a	LTP287	ltpFR2	22	n/a	n/a	n/a	29	16	1	6	9
4055332	PROB	n/a	LTP287	ltpFR2	22	n/a	n/a	n/a	29	19	4	7	8
4057601	PROB	n/a	LTP287	ltpFR2	22	n/a	n/a	n/a	29	10	1	4	5
4058952	STOP	n/a	LTP287	ltpFR2	22	n/a	n/a	n/a	29	n/a	n/a	n/a	n/a
4061971	REC_START	n/a	LTP287	ltpFR2	22	19	n/a	n/a	n/a	n/a	0	0	0
4066944	REC_WORD	wordpools/wasnorm_wordpool_576.txt	LTP287	ltpFR2	22	19	CHAUFFEUR	283	n/a	n/a	0	0	0
4152610	DISTRACTOR	n/a	LTP287	ltpFR2	22	20	n/a	n/a	n/a	n/a	0	0	0
4152610	START	n/a	LTP287	ltpFR2	22	n/a	n/a	n/a	30	n/a	n/a	n/a	n/a
4152643	PROB	n/a	LTP287	ltpFR2	22	n/a	n/a	n/a	30	21	9	6	6
4157897	PROB	n/a	LTP287	ltpFR2	22	n/a	n/a	n/a	30	19	8	5	6
4161017	PROB	n/a	LTP287	ltpFR2	22	n/a	n/a	n/a	30	11	5	2	4
4162701	PROB	n/a	LTP287	ltpFR2	22	n/a	n/a	n/a	30	18	4	9	5
4164536	PROB	n/a	LTP287	ltpFR2	22	n/a	n/a	n/a	30	12	9	1	2
4166204	PROB	n/a	LTP287	ltpFR2	22	n/a	n/a	n/a	30	8	3	1	4
4167989	PROB	n/a	LTP287	ltpFR2	22	n/a	n/a	n/a	30	10	5	1	4
4169507	PROB	n/a	LTP287	ltpFR2	22	n/a	n/a	n/a	30	19	5	9	5
4170808	PROB	n/a	LTP287	ltpFR2	22	n/a	n/a	n/a	30	9	1	4	4
4172142	PROB	n/a	LTP287	ltpFR2	22	n/a	n/a	n/a	30	13	7	5	1
4173994	PROB	n/a	LTP287	ltpFR2	22	n/a	n/a	n/a	30	11	3	5	3
4175565	STOP	n/a	LTP287	ltpFR2	22	n/a	n/a	n/a	30	n/a	n/a	n/a	n/a
4177613	WORD	wordpools/wasnorm_wordpool_576.txt	LTP287	ltpFR2	22	20	VIKING	1565	n/a	n/a	0	0	0
4180248	WORD	wordpools/wasnorm_wordpool_576.txt	LTP287	ltpFR2	22	20	SPHINX	1349	n/a	n/a	0	0	0
4182717	WORD	wordpools/wasnorm_wordpool_576.txt	LTP287	ltpFR2	22	20	TOURIST	1488	n/a	n/a	0	0	0
4185553	WORD	wordpools/wasnorm_wordpool_576.txt	LTP287	ltpFR2	22	20	SALMON	1227	n/a	n/a	0	0	0
4188238	WORD	wordpools/wasnorm_wordpool_576.txt	LTP287	ltpFR2	22	20	KIDNEY	776	n/a	n/a	0	0	0
4191074	WORD	wordpools/wasnorm_wordpool_576.txt	LTP287	ltpFR2	22	20	BINDER	127	n/a	n/a	0	0	0
4193876	WORD	wordpools/wasnorm_wordpool_576.txt	LTP287	ltpFR2	22	20	FLAG	573	n/a	n/a	0	0	0
4196595	WORD	wordpools/wasnorm_wordpool_576.txt	LTP287	ltpFR2	22	20	TROMBONE	1508	n/a	n/a	0	0	0
4199280	WORD	wordpools/wasnorm_wordpool_576.txt	LTP287	ltpFR2	22	20	DANDRUFF	439	n/a	n/a	0	0	0
4201916	WORD	wordpools/wasnorm_wordpool_576.txt	LTP287	ltpFR2	22	20	BODY	145	n/a	n/a	0	0	0
4204551	WORD	wordpools/wasnorm_wordpool_576.txt	LTP287	ltpFR2	22	20	CLAM	315	n/a	n/a	0	0	0
4207237	WORD	wordpools/wasnorm_wordpool_576.txt	LTP287	ltpFR2	22	20	LEG	809	n/a	n/a	0	0	0
4209722	WORD	wordpools/wasnorm_wordpool_576.txt	LTP287	ltpFR2	22	20	KITCHEN	778	n/a	n/a	0	0	0
4212357	WORD	wordpools/wasnorm_wordpool_576.txt	LTP287	ltpFR2	22	20	SNAIL	1332	n/a	n/a	0	0	0
4214959	WORD	wordpools/wasnorm_wordpool_576.txt	LTP287	ltpFR2	22	20	SLUG	1329	n/a	n/a	0	0	0
4217428	WORD	wordpools/wasnorm_wordpool_576.txt	LTP287	ltpFR2	22	20	PADDLE	1000	n/a	n/a	0	0	0
4219897	WORD	wordpools/wasnorm_wordpool_576.txt	LTP287	ltpFR2	22	20	UNCLE	1536	n/a	n/a	0	0	0
4222649	WORD	wordpools/wasnorm_wordpool_576.txt	LTP287	ltpFR2	22	20	PEPPER	1047	n/a	n/a	0	0	0
4225234	WORD	wordpools/wasnorm_wordpool_576.txt	LTP287	ltpFR2	22	20	MARROW	872	n/a	n/a	0	0	0
4227920	WORD	wordpools/wasnorm_wordpool_576.txt	LTP287	ltpFR2	22	20	PUPPY	1144	n/a	n/a	0	0	0
4230505	WORD	wordpools/wasnorm_wordpool_576.txt	LTP287	ltpFR2	22	20	CATCHER	258	n/a	n/a	0	0	0
4233274	WORD	wordpools/wasnorm_wordpool_576.txt	LTP287	ltpFR2	22	20	BACKBONE	66	n/a	n/a	0	0	0
4235960	WORD	wordpools/wasnorm_wordpool_576.txt	LTP287	ltpFR2	22	20	PIGMENT	1066	n/a	n/a	0	0	0
4238695	WORD	wordpools/wasnorm_wordpool_576.txt	LTP287	ltpFR2	22	20	COUCH	386	n/a	n/a	0	0	0
4240313	START	n/a	LTP287	ltpFR2	22	n/a	n/a	n/a	31	n/a	n/a	n/a	n/a
4241176	DISTRACTOR	n/a	LTP287	ltpFR2	22	20	n/a	n/a	n/a	n/a	0	0	0
4241197	PROB	n/a	LTP287	ltpFR2	22	n/a	n/a	n/a	31	10	2	4	4
4245000	PROB	n/a	LTP287	ltpFR2	22	n/a	n/a	n/a	31	15	8	2	5
4246651	PROB	n/a	LTP287	ltpFR2	22	n/a	n/a	n/a	31	6	3	1	2
4249804	PROB	n/a	LTP287	ltpFR2	22	n/a	n/a	n/a	31	11	1	6	4
4251022	PROB	n/a	LTP287	ltpFR2	22	n/a	n/a	n/a	31	15	3	5	7
4253323	PROB	n/a	LTP287	ltpFR2	22	n/a	n/a	n/a	31	21	8	4	9
4255225	PROB	n/a	LTP287	ltpFR2	22	n/a	n/a	n/a	31	8	4	3	1
4256676	PROB	n/a	LTP287	ltpFR2	22	n/a	n/a	n/a	31	12	2	4	6
4259061	PROB	n/a	LTP287	ltpFR2	22	n/a	n/a	n/a	31	17	5	8	4
4263064	STOP	n/a	LTP287	ltpFR2	22	n/a	n/a	n/a	31	n/a	n/a	n/a	n/a
4266234	REC_START	n/a	LTP287	ltpFR2	22	20	n/a	n/a	n/a	n/a	0	0	0
4268907	REC_WORD	wordpools/wasnorm_wordpool_576.txt	LTP287	ltpFR2	22	20	SPHINX	1349	n/a	n/a	0	0	0
4271396	REC_WORD	wordpools/wasnorm_wordpool_576.txt	LTP287	ltpFR2	22	20	TROMBONE	1508	n/a	n/a	0	0	0
4356857	DISTRACTOR	n/a	LTP287	ltpFR2	22	21	n/a	n/a	n/a	n/a	0	0	0
4356857	START	n/a	LTP287	ltpFR2	22	n/a	n/a	n/a	32	n/a	n/a	n/a	n/a
4356889	PROB	n/a	LTP287	ltpFR2	22	n/a	n/a	n/a	32	15	5	9	1
4358958	PROB	n/a	LTP287	ltpFR2	22	n/a	n/a	n/a	32	15	3	3	8
4360409	PROB	n/a	LTP287	ltpFR2	22	n/a	n/a	n/a	32	7	1	3	3
4362611	PROB	n/a	LTP287	ltpFR2	22	n/a	n/a	n/a	32	17	4	9	4
4364112	PROB	n/a	LTP287	ltpFR2	22	n/a	n/a	n/a	32	12	3	8	1
4365847	PROB	n/a	LTP287	ltpFR2	22	n/a	n/a	n/a	32	7	4	1	2
4367314	PROB	n/a	LTP287	ltpFR2	22	n/a	n/a	n/a	32	22	8	8	7
4370834	PROB	n/a	LTP287	ltpFR2	22	n/a	n/a	n/a	32	13	4	6	3
4372769	PROB	n/a	LTP287	ltpFR2	22	n/a	n/a	n/a	32	10	5	3	2
4374520	PROB	n/a	LTP287	ltpFR2	22	n/a	n/a	n/a	32	8	3	3	2
4377472	PROB	n/a	LTP287	ltpFR2	22	n/a	n/a	n/a	32	16	6	5	5
4378673	PROB	n/a	LTP287	ltpFR2	22	n/a	n/a	n/a	32	14	5	7	2
4380436	STOP	n/a	LTP287	ltpFR2	22	n/a	n/a	n/a	32	n/a	n/a	n/a	n/a
4382093	WORD	wordpools/wasnorm_wordpool_576.txt	LTP287	ltpFR2	22	21	MOTEL	919	n/a	n/a	0	0	0
4384812	WORD	wordpools/wasnorm_wordpool_576.txt	LTP287	ltpFR2	22	21	DRIVER	499	n/a	n/a	0	0	0
4387447	WORD	wordpools/wasnorm_wordpool_576.txt	LTP287	ltpFR2	22	21	WAGON	1578	n/a	n/a	0	0	0
4390016	WORD	wordpools/wasnorm_wordpool_576.txt	LTP287	ltpFR2	22	21	SHELF	1280	n/a	n/a	0	0	0
4392501	WORD	wordpools/wasnorm_wordpool_576.txt	LTP287	ltpFR2	22	21	TUTU	1524	n/a	n/a	0	0	0
4395120	WORD	wordpools/wasnorm_wordpool_576.txt	LTP287	ltpFR2	22	21	FUNGUS	614	n/a	n/a	0	0	0
4397822	WORD	wordpools/wasnorm_wordpool_576.txt	LTP287	ltpFR2	22	21	CHEST	295	n/a	n/a	0	0	0
4400424	WORD	wordpools/wasnorm_wordpool_576.txt	LTP287	ltpFR2	22	21	CHURCH	307	n/a	n/a	0	0	0
4403043	WORD	wordpools/wasnorm_wordpool_576.txt	LTP287	ltpFR2	22	21	PREACHER	1119	n/a	n/a	0	0	0
4405528	WORD	wordpools/wasnorm_wordpool_576.txt	LTP287	ltpFR2	22	21	CRAYON	401	n/a	n/a	0	0	0
4408030	WORD	wordpools/wasnorm_wordpool_576.txt	LTP287	ltpFR2	22	21	NECKLACE	940	n/a	n/a	0	0	0
4410816	WORD	wordpools/wasnorm_wordpool_576.txt	LTP287	ltpFR2	22	21	PANTHER	1009	n/a	n/a	0	0	0
4413468	WORD	wordpools/wasnorm_wordpool_576.txt	LTP287	ltpFR2	22	21	BISON	131	n/a	n/a	0	0	0
4416220	WORD	wordpools/wasnorm_wordpool_576.txt	LTP287	ltpFR2	22	21	HATCHET	691	n/a	n/a	0	0	0
4419056	WORD	wordpools/wasnorm_wordpool_576.txt	LTP287	ltpFR2	22	21	TRACTOR	1493	n/a	n/a	0	0	0
4421574	WORD	wordpools/wasnorm_wordpool_576.txt	LTP287	ltpFR2	22	21	MARKER	870	n/a	n/a	0	0	0
4424126	WORD	wordpools/wasnorm_wordpool_576.txt	LTP287	ltpFR2	22	21	STOVE	1388	n/a	n/a	0	0	0
4426662	WORD	wordpools/wasnorm_wordpool_576.txt	LTP287	ltpFR2	22	21	APRON	35	n/a	n/a	0	0	0
4429431	WORD	wordpools/wasnorm_wordpool_576.txt	LTP287	ltpFR2	22	21	TERMITE	1451	n/a	n/a	0	0	0
4432166	WORD	wordpools/wasnorm_wordpool_576.txt	LTP287	ltpFR2	22	21	FREEZER	604	n/a	n/a	0	0	0
4434818	WORD	wordpools/wasnorm_wordpool_576.txt	LTP287	ltpFR2	22	21	PASSAGE	1019	n/a	n/a	0	0	0
4437587	WORD	wordpools/wasnorm_wordpool_576.txt	LTP287	ltpFR2	22	21	LONDON	843	n/a	n/a	0	0	0
4440339	WORD	wordpools/wasnorm_wordpool_576.txt	LTP287	ltpFR2	22	21	ICEBERG	731	n/a	n/a	0	0	0
4442958	WORD	wordpools/wasnorm_wordpool_576.txt	LTP287	ltpFR2	22	21	BLADE	134	n/a	n/a	0	0	0
4444576	START	n/a	LTP287	ltpFR2	22	n/a	n/a	n/a	33	n/a	n/a	n/a	n/a
4445421	DISTRACTOR	n/a	LTP287	ltpFR2	22	21	n/a	n/a	n/a	n/a	0	0	0
4445443	PROB	n/a	LTP287	ltpFR2	22	n/a	n/a	n/a	33	20	8	3	9
4447528	PROB	n/a	LTP287	ltpFR2	22	n/a	n/a	n/a	33	15	6	4	5
4450381	PROB	n/a	LTP287	ltpFR2	22	n/a	n/a	n/a	33	20	4	9	7
4453717	PROB	n/a	LTP287	ltpFR2	22	n/a	n/a	n/a	33	19	6	9	4
4455551	PROB	n/a	LTP287	ltpFR2	22	n/a	n/a	n/a	33	23	9	8	5
4460505	PROB	n/a	LTP287	ltpFR2	22	n/a	n/a	n/a	33	14	2	7	5
4462874	PROB	n/a	LTP287	ltpFR2	22	n/a	n/a	n/a	33	13	9	2	2
4464442	PROB	n/a	LTP287	ltpFR2	22	n/a	n/a	n/a	33	11	4	2	5
4468576	STOP	n/a	LTP287	ltpFR2	22	n/a	n/a	n/a	33	n/a	n/a	n/a	n/a
4470530	REC_START	n/a	LTP287	ltpFR2	22	21	n/a	n/a	n/a	n/a	0	0	0
4470967	REC_WORD	wordpools/wasnorm_wordpool_576.txt	LTP287	ltpFR2	22	21	PREACHER	1119	n/a	n/a	0	0	0
4471696	REC_WORD	wordpools/wasnorm_wordpool_576.txt	LTP287	ltpFR2	22	21	CHURCH	307	n/a	n/a	0	0	0
4476400	REC_WORD	wordpools/wasnorm_wordpool_576.txt	LTP287	ltpFR2	22	21	CRAYON	401	n/a	n/a	0	0	0
4476949	REC_WORD	wordpools/wasnorm_wordpool_576.txt	LTP287	ltpFR2	22	21	MARKER	870	n/a	n/a	0	0	0
4477417	REC_WORD	wordpools/wasnorm_wordpool_576.txt	LTP287	ltpFR2	22	21	NECKLACE	940	n/a	n/a	0	0	0
4561202	WORD	wordpools/wasnorm_wordpool_576.txt	LTP287	ltpFR2	22	22	PUDDING	1139	n/a	n/a	0	0	0
4563921	WORD	wordpools/wasnorm_wordpool_576.txt	LTP287	ltpFR2	22	22	DRUG	501	n/a	n/a	0	0	0
4566690	WORD	wordpools/wasnorm_wordpool_576.txt	LTP287	ltpFR2	22	22	GALLON	618	n/a	n/a	0	0	0
4569259	WORD	wordpools/wasnorm_wordpool_576.txt	LTP287	ltpFR2	22	22	RAFT	1159	n/a	n/a	0	0	0
4571977	WORD	wordpools/wasnorm_wordpool_576.txt	LTP287	ltpFR2	22	22	VALLEY	1545	n/a	n/a	0	0	0
4574513	WORD	wordpools/wasnorm_wordpool_576.txt	LTP287	ltpFR2	22	22	LAVA	804	n/a	n/a	0	0	0
4577032	WORD	wordpools/wasnorm_wordpool_576.txt	LTP287	ltpFR2	22	22	NOVEL	960	n/a	n/a	0	0	0
4579617	WORD	wordpools/wasnorm_wordpool_576.txt	LTP287	ltpFR2	22	22	TOASTER	1472	n/a	n/a	0	0	0
4582353	WORD	wordpools/wasnorm_wordpool_576.txt	LTP287	ltpFR2	22	22	BLOUSE	139	n/a	n/a	0	0	0
4585038	WORD	wordpools/wasnorm_wordpool_576.txt	LTP287	ltpFR2	22	22	LAPEL	800	n/a	n/a	0	0	0
4587690	WORD	wordpools/wasnorm_wordpool_576.txt	LTP287	ltpFR2	22	22	FRIAR	605	n/a	n/a	0	0	0
4590442	WORD	wordpools/wasnorm_wordpool_576.txt	LTP287	ltpFR2	22	22	TEMPLE	1448	n/a	n/a	0	0	0
4593178	WORD	wordpools/wasnorm_wordpool_576.txt	LTP287	ltpFR2	22	22	POPCORN	1104	n/a	n/a	0	0	0
4595680	WORD	wordpools/wasnorm_wordpool_576.txt	LTP287	ltpFR2	22	22	DENIM	446	n/a	n/a	0	0	0
4598365	WORD	wordpools/wasnorm_wordpool_576.txt	LTP287	ltpFR2	22	22	COSTUME	383	n/a	n/a	0	0	0
4601051	WORD	wordpools/wasnorm_wordpool_576.txt	LTP287	ltpFR2	22	22	WHISTLE	1606	n/a	n/a	0	0	0
4603620	WORD	wordpools/wasnorm_wordpool_576.txt	LTP287	ltpFR2	22	22	COLONEL	348	n/a	n/a	0	0	0
4606305	WORD	wordpools/wasnorm_wordpool_576.txt	LTP287	ltpFR2	22	22	LASER	801	n/a	n/a	0	0	0
4608858	WORD	wordpools/wasnorm_wordpool_576.txt	LTP287	ltpFR2	22	22	SLOPE	1328	n/a	n/a	0	0	0
4611659	WORD	wordpools/wasnorm_wordpool_576.txt	LTP287	ltpFR2	22	22	CABIN	211	n/a	n/a	0	0	0
4614278	WORD	wordpools/wasnorm_wordpool_576.txt	LTP287	ltpFR2	22	22	CRATER	400	n/a	n/a	0	0	0
4616947	WORD	wordpools/wasnorm_wordpool_576.txt	LTP287	ltpFR2	22	22	TURNIP	1521	n/a	n/a	0	0	0
4619499	WORD	wordpools/wasnorm_wordpool_576.txt	LTP287	ltpFR2	22	22	CROSS	413	n/a	n/a	0	0	0
4622268	WORD	wordpools/wasnorm_wordpool_576.txt	LTP287	ltpFR2	22	22	DRINK	498	n/a	n/a	0	0	0
4623886	START	n/a	LTP287	ltpFR2	22	n/a	n/a	n/a	34	n/a	n/a	n/a	n/a
4624873	DISTRACTOR	n/a	LTP287	ltpFR2	22	22	n/a	n/a	n/a	n/a	0	0	0
4624903	PROB	n/a	LTP287	ltpFR2	22	n/a	n/a	n/a	34	10	3	4	3
4626671	PROB	n/a	LTP287	ltpFR2	22	n/a	n/a	n/a	34	19	4	9	6
4628723	PROB	n/a	LTP287	ltpFR2	22	n/a	n/a	n/a	34	19	9	8	2
4630374	PROB	n/a	LTP287	ltpFR2	22	n/a	n/a	n/a	34	15	8	2	5
4631692	PROB	n/a	LTP287	ltpFR2	22	n/a	n/a	n/a	34	9	1	6	2
4634261	PROB	n/a	LTP287	ltpFR2	22	n/a	n/a	n/a	34	22	8	7	7
4637463	PROB	n/a	LTP287	ltpFR2	22	n/a	n/a	n/a	34	7	3	3	1
4639098	PROB	n/a	LTP287	ltpFR2	22	n/a	n/a	n/a	34	15	6	2	7
4640749	PROB	n/a	LTP287	ltpFR2	22	n/a	n/a	n/a	34	11	7	3	1
4642167	PROB	n/a	LTP287	ltpFR2	22	n/a	n/a	n/a	34	12	9	2	1
4645753	PROB	n/a	LTP287	ltpFR2	22	n/a	n/a	n/a	34	17	5	9	3
4647533	STOP	n/a	LTP287	ltpFR2	22	n/a	n/a	n/a	34	n/a	n/a	n/a	n/a
4649773	REC_START	n/a	LTP287	ltpFR2	22	22	n/a	n/a	n/a	n/a	0	0	0
4650091	REC_WORD	wordpools/wasnorm_wordpool_576.txt	LTP287	ltpFR2	22	22	DRINK	498	n/a	n/a	0	0	0
4650718	REC_WORD	wordpools/wasnorm_wordpool_576.txt	LTP287	ltpFR2	22	22	FRIAR	605	n/a	n/a	0	0	0
4653659	REC_WORD	wordpools/wasnorm_wordpool_576.txt	LTP287	ltpFR2	22	22	TEMPLE	1448	n/a	n/a	0	0	0
4740429	WORD	wordpools/wasnorm_wordpool_576.txt	LTP287	ltpFR2	22	23	RABBIT	1152	n/a	n/a	0	0	0
4743248	WORD	wordpools/wasnorm_wordpool_576.txt	LTP287	ltpFR2	22	23	SUNSET	1408	n/a	n/a	0	0	0
4745683	WORD	wordpools/wasnorm_wordpool_576.txt	LTP287	ltpFR2	22	23	QUARTER	1148	n/a	n/a	0	0	0
4748502	WORD	wordpools/wasnorm_wordpool_576.txt	LTP287	ltpFR2	22	23	RIVER	1194	n/a	n/a	0	0	0
4751070	WORD	wordpools/wasnorm_wordpool_576.txt	LTP287	ltpFR2	22	23	PLAID	1080	n/a	n/a	0	0	0
4753739	WORD	wordpools/wasnorm_wordpool_576.txt	LTP287	ltpFR2	22	23	CARROT	249	n/a	n/a	0	0	0
4756325	WORD	wordpools/wasnorm_wordpool_576.txt	LTP287	ltpFR2	22	23	SPIDER	1351	n/a	n/a	0	0	0
4758977	WORD	wordpools/wasnorm_wordpool_576.txt	LTP287	ltpFR2	22	23	CRICKET	408	n/a	n/a	0	0	0
4761629	WORD	wordpools/wasnorm_wordpool_576.txt	LTP287	ltpFR2	22	23	COOKBOOK	373	n/a	n/a	0	0	0
4764264	WORD	wordpools/wasnorm_wordpool_576.txt	LTP287	ltpFR2	22	23	PATIENT	1024	n/a	n/a	0	0	0
4767033	WORD	wordpools/wasnorm_wordpool_576.txt	LTP287	ltpFR2	22	23	RACKET	1155	n/a	n/a	0	0	0
4769802	WORD	wordpools/wasnorm_wordpool_576.txt	LTP287	ltpFR2	22	23	SOFTBALL	1343	n/a	n/a	0	0	0
4772354	WORD	wordpools/wasnorm_wordpool_576.txt	LTP287	ltpFR2	22	23	SLIME	1327	n/a	n/a	0	0	0
4775123	WORD	wordpools/wasnorm_wordpool_576.txt	LTP287	ltpFR2	22	23	HEART	697	n/a	n/a	0	0	0
4777925	WORD	wordpools/wasnorm_wordpool_576.txt	LTP287	ltpFR2	22	23	POET	1095	n/a	n/a	0	0	0
4780444	WORD	wordpools/wasnorm_wordpool_576.txt	LTP287	ltpFR2	22	23	PARROT	1015	n/a	n/a	0	0	0
4783146	WORD	wordpools/wasnorm_wordpool_576.txt	LTP287	ltpFR2	22	23	ROBBER	1197	n/a	n/a	0	0	0
4785698	WORD	wordpools/wasnorm_wordpool_576.txt	LTP287	ltpFR2	22	23	CATTLE	261	n/a	n/a	0	0	0
4788200	WORD	wordpools/wasnorm_wordpool_576.txt	LTP287	ltpFR2	22	23	CUPBOARD	425	n/a	n/a	0	0	0
4790952	WORD	wordpools/wasnorm_wordpool_576.txt	LTP287	ltpFR2	22	23	TRENCH	1503	n/a	n/a	0	0	0
4793421	WORD	wordpools/wasnorm_wordpool_576.txt	LTP287	ltpFR2	22	23	BEAVER	109	n/a	n/a	0	0	0
4795956	WORD	wordpools/wasnorm_wordpool_576.txt	LTP287	ltpFR2	22	23	MONEY	908	n/a	n/a	0	0	0
4798608	WORD	wordpools/wasnorm_wordpool_576.txt	LTP287	ltpFR2	22	23	PADDING	999	n/a	n/a	0	0	0
4801210	WORD	wordpools/wasnorm_wordpool_576.txt	LTP287	ltpFR2	22	23	SEAGULL	1261	n/a	n/a	0	0	0
4802829	START	n/a	LTP287	ltpFR2	22	n/a	n/a	n/a	35	n/a	n/a	n/a	n/a
4803953	DISTRACTOR	n/a	LTP287	ltpFR2	22	23	n/a	n/a	n/a	n/a	0	0	0
4803979	PROB	n/a	LTP287	ltpFR2	22	n/a	n/a	n/a	35	20	9	8	3
4806164	PROB	n/a	LTP287	ltpFR2	22	n/a	n/a	n/a	35	8	2	5	1
4807799	PROB	n/a	LTP287	ltpFR2	22	n/a	n/a	n/a	35	11	1	2	8
4809133	PROB	n/a	LTP287	ltpFR2	22	n/a	n/a	n/a	35	18	6	3	9
4810701	PROB	n/a	LTP287	ltpFR2	22	n/a	n/a	n/a	35	8	2	5	1
4812203	PROB	n/a	LTP287	ltpFR2	22	n/a	n/a	n/a	35	4	1	2	1
4813454	PROB	n/a	LTP287	ltpFR2	22	n/a	n/a	n/a	35	17	4	7	6
4816489	PROB	n/a	LTP287	ltpFR2	22	n/a	n/a	n/a	35	14	1	4	8
4820860	PROB	n/a	LTP287	ltpFR2	22	n/a	n/a	n/a	35	20	9	2	9
4824012	PROB	n/a	LTP287	ltpFR2	22	n/a	n/a	n/a	35	11	5	5	1
4825213	PROB	n/a	LTP287	ltpFR2	22	n/a	n/a	n/a	35	9	5	1	3
4826515	STOP	n/a	LTP287	ltpFR2	22	n/a	n/a	n/a	35	n/a	n/a	n/a	n/a
4828616	REC_START	n/a	LTP287	ltpFR2	22	23	n/a	n/a	n/a	n/a	0	0	0
4830256	REC_WORD	wordpools/wasnorm_wordpool_576.txt	LTP287	ltpFR2	22	23	DRINK	498	n/a	n/a	0	0	0
4839155	REC_WORD	wordpools/wasnorm_wordpool_576.txt	LTP287	ltpFR2	22	23	ROBBER	1197	n/a	n/a	0	0	0
4919288	WORD	wordpools/wasnorm_wordpool_576.txt	LTP287	ltpFR2	22	24	GRILL	661	n/a	n/a	0	0	0
4921840	WORD	wordpools/wasnorm_wordpool_576.txt	LTP287	ltpFR2	22	24	RAZOR	1171	n/a	n/a	0	0	0
4924676	WORD	wordpools/wasnorm_wordpool_576.txt	LTP287	ltpFR2	22	24	PASTRY	1022	n/a	n/a	0	0	0
4927128	WORD	wordpools/wasnorm_wordpool_576.txt	LTP287	ltpFR2	22	24	GHETTO	633	n/a	n/a	0	0	0
4929746	WORD	wordpools/wasnorm_wordpool_576.txt	LTP287	ltpFR2	22	24	SHELTER	1282	n/a	n/a	0	0	0
4932532	WORD	wordpools/wasnorm_wordpool_576.txt	LTP287	ltpFR2	22	24	PRINCESS	1125	n/a	n/a	0	0	0
4935367	WORD	wordpools/wasnorm_wordpool_576.txt	LTP287	ltpFR2	22	24	BLUEPRINT	142	n/a	n/a	0	0	0
4938186	WORD	wordpools/wasnorm_wordpool_576.txt	LTP287	ltpFR2	22	24	LAMP	798	n/a	n/a	0	0	0
4940856	WORD	wordpools/wasnorm_wordpool_576.txt	LTP287	ltpFR2	22	24	KETCHUP	771	n/a	n/a	0	0	0
4943507	WORD	wordpools/wasnorm_wordpool_576.txt	LTP287	ltpFR2	22	24	KNAPSACK	783	n/a	n/a	0	0	0
4946126	WORD	wordpools/wasnorm_wordpool_576.txt	LTP287	ltpFR2	22	24	ROOSTER	1209	n/a	n/a	0	0	0
4948778	WORD	wordpools/wasnorm_wordpool_576.txt	LTP287	ltpFR2	22	24	HAMPER	682	n/a	n/a	0	0	0
4951247	WORD	wordpools/wasnorm_wordpool_576.txt	LTP287	ltpFR2	22	24	WITNESS	1618	n/a	n/a	0	0	0
4953815	WORD	wordpools/wasnorm_wordpool_576.txt	LTP287	ltpFR2	22	24	GAVEL	627	n/a	n/a	0	0	0
4956551	WORD	wordpools/wasnorm_wordpool_576.txt	LTP287	ltpFR2	22	24	PAPER	1011	n/a	n/a	0	0	0
4959353	WORD	wordpools/wasnorm_wordpool_576.txt	LTP287	ltpFR2	22	24	LILY	821	n/a	n/a	0	0	0
4962189	WORD	wordpools/wasnorm_wordpool_576.txt	LTP287	ltpFR2	22	24	BUREAU	199	n/a	n/a	0	0	0
4964724	WORD	wordpools/wasnorm_wordpool_576.txt	LTP287	ltpFR2	22	24	ICING	732	n/a	n/a	0	0	0
4967260	WORD	wordpools/wasnorm_wordpool_576.txt	LTP287	ltpFR2	22	24	VIRUS	1572	n/a	n/a	0	0	0
4969795	WORD	wordpools/wasnorm_wordpool_576.txt	LTP287	ltpFR2	22	24	BELLY	119	n/a	n/a	0	0	0
4972314	WORD	wordpools/wasnorm_wordpool_576.txt	LTP287	ltpFR2	22	24	ULCER	1533	n/a	n/a	0	0	0
4974882	WORD	wordpools/wasnorm_wordpool_576.txt	LTP287	ltpFR2	22	24	JEANS	752	n/a	n/a	0	0	0
4977368	WORD	wordpools/wasnorm_wordpool_576.txt	LTP287	ltpFR2	22	24	GIRL	637	n/a	n/a	0	0	0
4980187	WORD	wordpools/wasnorm_wordpool_576.txt	LTP287	ltpFR2	22	24	PACKAGE	997	n/a	n/a	0	0	0
4981805	START	n/a	LTP287	ltpFR2	22	n/a	n/a	n/a	36	n/a	n/a	n/a	n/a
4982791	DISTRACTOR	n/a	LTP287	ltpFR2	22	24	n/a	n/a	n/a	n/a	0	0	0
4982822	PROB	n/a	LTP287	ltpFR2	22	n/a	n/a	n/a	36	18	4	5	9
4986175	PROB	n/a	LTP287	ltpFR2	22	n/a	n/a	n/a	36	16	6	4	6
4988009	PROB	n/a	LTP287	ltpFR2	22	n/a	n/a	n/a	36	11	2	2	7
4989360	PROB	n/a	LTP287	ltpFR2	22	n/a	n/a	n/a	36	10	1	3	6
4990628	PROB	n/a	LTP287	ltpFR2	22	n/a	n/a	n/a	36	13	4	7	2
4992713	PROB	n/a	LTP287	ltpFR2	22	n/a	n/a	n/a	36	16	5	7	4
4994832	PROB	n/a	LTP287	ltpFR2	22	n/a	n/a	n/a	36	18	9	7	2
4996366	PROB	n/a	LTP287	ltpFR2	22	n/a	n/a	n/a	36	24	8	7	9
4999869	PROB	n/a	LTP287	ltpFR2	22	n/a	n/a	n/a	36	6	3	2	1
5001537	PROB	n/a	LTP287	ltpFR2	22	n/a	n/a	n/a	36	13	6	3	4
5003472	PROB	n/a	LTP287	ltpFR2	22	n/a	n/a	n/a	36	14	2	7	5
5005474	STOP	n/a	LTP287	ltpFR2	22	n/a	n/a	n/a	36	n/a	n/a	n/a	n/a
5007659	REC_START	n/a	LTP287	ltpFR2	22	24	n/a	n/a	n/a	n/a	0	0	0
5020689	REC_WORD	wordpools/wasnorm_wordpool_576.txt	LTP287	ltpFR2	22	24	LAKE	796	n/a	n/a	0	0	0
5090408	SESS_END	n/a	LTP287	ltpFR2	22	24	n/a	n/a	n/a	n/a	0	0	0
