mstime	trial_type	stim_file	subject	experiment	session	trial	item_name	item_num	list	answer	test_x	test_y	test_z
0	SESS_START	n/a	LTP343	ltpFR2	23	n/a	n/a	n/a	n/a	n/a	0	0	0
13095	START	n/a	LTP343	ltpFR2	23	n/a	n/a	n/a	-1	n/a	n/a	n/a	n/a
13109	PROB	n/a	LTP343	ltpFR2	23	n/a	n/a	n/a	-1	15	6	2	7
14864	PROB	n/a	LTP343	ltpFR2	23	n/a	n/a	n/a	-1	20	9	2	9
16336	PROB	n/a	LTP343	ltpFR2	23	n/a	n/a	n/a	-1	7	2	4	1
17339	PROB	n/a	LTP343	ltpFR2	23	n/a	n/a	n/a	-1	15	1	8	6
18376	PROB	n/a	LTP343	ltpFR2	23	n/a	n/a	n/a	-1	15	2	4	9
19445	PROB	n/a	LTP343	ltpFR2	23	n/a	n/a	n/a	-1	11	1	7	3
20566	PROB	n/a	LTP343	ltpFR2	23	n/a	n/a	n/a	-1	14	4	3	7
22021	PROB	n/a	LTP343	ltpFR2	23	n/a	n/a	n/a	-1	9	1	1	7
23024	PROB	n/a	LTP343	ltpFR2	23	n/a	n/a	n/a	-1	11	8	1	2
24179	STOP	n/a	LTP343	ltpFR2	23	n/a	n/a	n/a	-1	n/a	n/a	n/a	n/a
51934	DISTRACTOR	n/a	LTP343	ltpFR2	23	1	n/a	n/a	n/a	n/a	0	0	0
51935	START	n/a	LTP343	ltpFR2	23	n/a	n/a	n/a	1	n/a	n/a	n/a	n/a
51951	PROB	n/a	LTP343	ltpFR2	23	n/a	n/a	n/a	1	15	5	9	1
53523	PROB	n/a	LTP343	ltpFR2	23	n/a	n/a	n/a	1	24	6	8	8
54961	PROB	n/a	LTP343	ltpFR2	23	n/a	n/a	n/a	1	19	6	9	4
56817	PROB	n/a	LTP343	ltpFR2	23	n/a	n/a	n/a	1	5	1	1	3
57770	PROB	n/a	LTP343	ltpFR2	23	n/a	n/a	n/a	1	12	6	2	4
59124	PROB	n/a	LTP343	ltpFR2	23	n/a	n/a	n/a	1	23	7	9	7
62519	PROB	n/a	LTP343	ltpFR2	23	n/a	n/a	n/a	1	12	5	3	4
63639	PROB	n/a	LTP343	ltpFR2	23	n/a	n/a	n/a	1	6	3	1	2
64977	PROB	n/a	LTP343	ltpFR2	23	n/a	n/a	n/a	1	15	4	9	2
66582	PROB	n/a	LTP343	ltpFR2	23	n/a	n/a	n/a	1	22	7	6	9
68304	PROB	n/a	LTP343	ltpFR2	23	n/a	n/a	n/a	1	23	7	8	8
70946	PROB	n/a	LTP343	ltpFR2	23	n/a	n/a	n/a	1	12	6	1	5
72116	PROB	n/a	LTP343	ltpFR2	23	n/a	n/a	n/a	1	13	2	3	8
73387	PROB	n/a	LTP343	ltpFR2	23	n/a	n/a	n/a	1	10	2	5	3
74596	STOP	n/a	LTP343	ltpFR2	23	n/a	n/a	n/a	1	n/a	n/a	n/a	n/a
76915	WORD	wordpools/wasnorm_wordpool_576.txt	LTP343	ltpFR2	23	1	BRACELET	163	n/a	n/a	0	0	0
79691	WORD	wordpools/wasnorm_wordpool_576.txt	LTP343	ltpFR2	23	1	CLOSET	326	n/a	n/a	0	0	0
82166	WORD	wordpools/wasnorm_wordpool_576.txt	LTP343	ltpFR2	23	1	MUSTARD	935	n/a	n/a	0	0	0
84691	WORD	wordpools/wasnorm_wordpool_576.txt	LTP343	ltpFR2	23	1	BLANKET	135	n/a	n/a	0	0	0
87199	WORD	wordpools/wasnorm_wordpool_576.txt	LTP343	ltpFR2	23	1	BEDROOM	111	n/a	n/a	0	0	0
89857	WORD	wordpools/wasnorm_wordpool_576.txt	LTP343	ltpFR2	23	1	BUG	187	n/a	n/a	0	0	0
92599	WORD	wordpools/wasnorm_wordpool_576.txt	LTP343	ltpFR2	23	1	TIGER	1467	n/a	n/a	0	0	0
95024	WORD	wordpools/wasnorm_wordpool_576.txt	LTP343	ltpFR2	23	1	VICTOR	1563	n/a	n/a	0	0	0
97716	WORD	wordpools/wasnorm_wordpool_576.txt	LTP343	ltpFR2	23	1	BOXER	160	n/a	n/a	0	0	0
100475	WORD	wordpools/wasnorm_wordpool_576.txt	LTP343	ltpFR2	23	1	TREASURE	1500	n/a	n/a	0	0	0
102966	WORD	wordpools/wasnorm_wordpool_576.txt	LTP343	ltpFR2	23	1	BELLY	119	n/a	n/a	0	0	0
105742	WORD	wordpools/wasnorm_wordpool_576.txt	LTP343	ltpFR2	23	1	PARTY	1018	n/a	n/a	0	0	0
108334	WORD	wordpools/wasnorm_wordpool_576.txt	LTP343	ltpFR2	23	1	PICNIC	1060	n/a	n/a	0	0	0
110825	WORD	wordpools/wasnorm_wordpool_576.txt	LTP343	ltpFR2	23	1	FATHER	554	n/a	n/a	0	0	0
113517	WORD	wordpools/wasnorm_wordpool_576.txt	LTP343	ltpFR2	23	1	MONKEY	911	n/a	n/a	0	0	0
116193	WORD	wordpools/wasnorm_wordpool_576.txt	LTP343	ltpFR2	23	1	PLAYGROUND	1087	n/a	n/a	0	0	0
119002	WORD	wordpools/wasnorm_wordpool_576.txt	LTP343	ltpFR2	23	1	TURNIP	1521	n/a	n/a	0	0	0
121560	WORD	wordpools/wasnorm_wordpool_576.txt	LTP343	ltpFR2	23	1	BOTTLE	153	n/a	n/a	0	0	0
124001	WORD	wordpools/wasnorm_wordpool_576.txt	LTP343	ltpFR2	23	1	HAMPER	682	n/a	n/a	0	0	0
126793	WORD	wordpools/wasnorm_wordpool_576.txt	LTP343	ltpFR2	23	1	SUGAR	1401	n/a	n/a	0	0	0
129603	WORD	wordpools/wasnorm_wordpool_576.txt	LTP343	ltpFR2	23	1	FOLDER	588	n/a	n/a	0	0	0
132261	WORD	wordpools/wasnorm_wordpool_576.txt	LTP343	ltpFR2	23	1	STAPLER	1372	n/a	n/a	0	0	0
134853	WORD	wordpools/wasnorm_wordpool_576.txt	LTP343	ltpFR2	23	1	KITTEN	780	n/a	n/a	0	0	0
137478	WORD	wordpools/wasnorm_wordpool_576.txt	LTP343	ltpFR2	23	1	ZEBRA	1635	n/a	n/a	0	0	0
139084	START	n/a	LTP343	ltpFR2	23	n/a	n/a	n/a	2	n/a	n/a	n/a	n/a
140056	DISTRACTOR	n/a	LTP343	ltpFR2	23	1	n/a	n/a	n/a	n/a	0	0	0
140070	PROB	n/a	LTP343	ltpFR2	23	n/a	n/a	n/a	2	185	5	4	9
142745	PROB	n/a	LTP343	ltpFR2	23	n/a	n/a	n/a	2	16	5	2	9
144986	PROB	n/a	LTP343	ltpFR2	23	n/a	n/a	n/a	2	18	7	9	3
146691	PROB	n/a	LTP343	ltpFR2	23	n/a	n/a	n/a	2	15	7	5	3
148180	PROB	n/a	LTP343	ltpFR2	23	n/a	n/a	n/a	2	13	9	2	2
150152	PROB	n/a	LTP343	ltpFR2	23	n/a	n/a	n/a	2	13	3	1	9
151657	PROB	n/a	LTP343	ltpFR2	23	n/a	n/a	n/a	2	18	3	7	8
152978	PROB	n/a	LTP343	ltpFR2	23	n/a	n/a	n/a	2	11	6	2	3
154082	PROB	n/a	LTP343	ltpFR2	23	n/a	n/a	n/a	2	15	5	2	8
155102	PROB	n/a	LTP343	ltpFR2	23	n/a	n/a	n/a	2	23	6	8	9
158229	PROB	n/a	LTP343	ltpFR2	23	n/a	n/a	n/a	2	17	1	8	8
159566	PROB	n/a	LTP343	ltpFR2	23	n/a	n/a	n/a	2	22	5	8	9
162503	STOP	n/a	LTP343	ltpFR2	23	n/a	n/a	n/a	2	n/a	n/a	n/a	n/a
164985	REC_START	n/a	LTP343	ltpFR2	23	1	n/a	n/a	n/a	n/a	0	0	0
165295	REC_WORD	wordpools/wasnorm_wordpool_576.txt	LTP343	ltpFR2	23	1	PLAYGROUND	1087	n/a	n/a	0	0	0
166185	REC_WORD	wordpools/wasnorm_wordpool_576.txt	LTP343	ltpFR2	23	1	MONKEY	911	n/a	n/a	0	0	0
167067	REC_WORD	wordpools/wasnorm_wordpool_576.txt	LTP343	ltpFR2	23	1	TURNIP	1521	n/a	n/a	0	0	0
168684	REC_WORD	wordpools/wasnorm_wordpool_576.txt	LTP343	ltpFR2	23	1	BEDROOM	111	n/a	n/a	0	0	0
170382	REC_WORD	wordpools/wasnorm_wordpool_576.txt	LTP343	ltpFR2	23	1	BLANKET	135	n/a	n/a	0	0	0
171351	REC_WORD	wordpools/wasnorm_wordpool_576.txt	LTP343	ltpFR2	23	1	CLOSET	326	n/a	n/a	0	0	0
176107	REC_WORD	wordpools/wasnorm_wordpool_576.txt	LTP343	ltpFR2	23	1	MUSTARD	935	n/a	n/a	0	0	0
183546	REC_WORD	wordpools/wasnorm_wordpool_576.txt	LTP343	ltpFR2	23	1	BRACELET	163	n/a	n/a	0	0	0
190468	REC_WORD	wordpools/wasnorm_wordpool_576.txt	LTP343	ltpFR2	23	1	BELLY	119	n/a	n/a	0	0	0
255427	DISTRACTOR	n/a	LTP343	ltpFR2	23	2	n/a	n/a	n/a	n/a	0	0	0
255427	START	n/a	LTP343	ltpFR2	23	n/a	n/a	n/a	3	n/a	n/a	n/a	n/a
255442	PROB	n/a	LTP343	ltpFR2	23	n/a	n/a	n/a	3	9	3	1	5
257082	PROB	n/a	LTP343	ltpFR2	23	n/a	n/a	n/a	3	19	1	9	9
258219	PROB	n/a	LTP343	ltpFR2	23	n/a	n/a	n/a	3	7	4	1	2
259273	PROB	n/a	LTP343	ltpFR2	23	n/a	n/a	n/a	3	18	9	3	6
260694	PROB	n/a	LTP343	ltpFR2	23	n/a	n/a	n/a	3	22	9	6	6
262416	PROB	n/a	LTP343	ltpFR2	23	n/a	n/a	n/a	3	14	5	1	8
263570	PROB	n/a	LTP343	ltpFR2	23	n/a	n/a	n/a	3	21	9	4	8
265142	PROB	n/a	LTP343	ltpFR2	23	n/a	n/a	n/a	3	9	1	5	3
266362	PROB	n/a	LTP343	ltpFR2	23	n/a	n/a	n/a	3	19	5	5	9
267416	PROB	n/a	LTP343	ltpFR2	23	n/a	n/a	n/a	3	22	5	8	9
269205	PROB	n/a	LTP343	ltpFR2	23	n/a	n/a	n/a	3	12	2	3	7
270358	PROB	n/a	LTP343	ltpFR2	23	n/a	n/a	n/a	3	17	3	6	8
271763	PROB	n/a	LTP343	ltpFR2	23	n/a	n/a	n/a	3	22	5	7	9
273703	PROB	n/a	LTP343	ltpFR2	23	n/a	n/a	n/a	3	23	8	8	7
275642	PROB	n/a	LTP343	ltpFR2	23	n/a	n/a	n/a	3	19	8	3	8
277114	PROB	n/a	LTP343	ltpFR2	23	n/a	n/a	n/a	3	3	1	1	1
278122	STOP	n/a	LTP343	ltpFR2	23	n/a	n/a	n/a	3	n/a	n/a	n/a	n/a
280642	WORD	wordpools/wasnorm_wordpool_576.txt	LTP343	ltpFR2	23	2	SALAD	1224	n/a	n/a	0	0	0
283100	WORD	wordpools/wasnorm_wordpool_576.txt	LTP343	ltpFR2	23	2	HAYSTACK	694	n/a	n/a	0	0	0
285808	WORD	wordpools/wasnorm_wordpool_576.txt	LTP343	ltpFR2	23	2	IGLOO	734	n/a	n/a	0	0	0
288417	WORD	wordpools/wasnorm_wordpool_576.txt	LTP343	ltpFR2	23	2	LASER	801	n/a	n/a	0	0	0
291142	WORD	wordpools/wasnorm_wordpool_576.txt	LTP343	ltpFR2	23	2	PASSAGE	1019	n/a	n/a	0	0	0
293734	WORD	wordpools/wasnorm_wordpool_576.txt	LTP343	ltpFR2	23	2	CACTUS	215	n/a	n/a	0	0	0
296527	WORD	wordpools/wasnorm_wordpool_576.txt	LTP343	ltpFR2	23	2	PONY	1102	n/a	n/a	0	0	0
298968	WORD	wordpools/wasnorm_wordpool_576.txt	LTP343	ltpFR2	23	2	HANDBAG	684	n/a	n/a	0	0	0
301441	WORD	wordpools/wasnorm_wordpool_576.txt	LTP343	ltpFR2	23	2	PATROL	1027	n/a	n/a	0	0	0
304084	WORD	wordpools/wasnorm_wordpool_576.txt	LTP343	ltpFR2	23	2	SARDINE	1235	n/a	n/a	0	0	0
306626	WORD	wordpools/wasnorm_wordpool_576.txt	LTP343	ltpFR2	23	2	SNACK	1331	n/a	n/a	0	0	0
309067	WORD	wordpools/wasnorm_wordpool_576.txt	LTP343	ltpFR2	23	2	COBBLER	335	n/a	n/a	0	0	0
311793	WORD	wordpools/wasnorm_wordpool_576.txt	LTP343	ltpFR2	23	2	RAISIN	1163	n/a	n/a	0	0	0
314334	WORD	wordpools/wasnorm_wordpool_576.txt	LTP343	ltpFR2	23	2	BATHROOM	99	n/a	n/a	0	0	0
316993	WORD	wordpools/wasnorm_wordpool_576.txt	LTP343	ltpFR2	23	2	SINK	1309	n/a	n/a	0	0	0
319534	WORD	wordpools/wasnorm_wordpool_576.txt	LTP343	ltpFR2	23	2	CHAMBER	277	n/a	n/a	0	0	0
322210	WORD	wordpools/wasnorm_wordpool_576.txt	LTP343	ltpFR2	23	2	SPINACH	1352	n/a	n/a	0	0	0
324885	WORD	wordpools/wasnorm_wordpool_576.txt	LTP343	ltpFR2	23	2	PEDAL	1037	n/a	n/a	0	0	0
327594	WORD	wordpools/wasnorm_wordpool_576.txt	LTP343	ltpFR2	23	2	SQUID	1361	n/a	n/a	0	0	0
330336	WORD	wordpools/wasnorm_wordpool_576.txt	LTP343	ltpFR2	23	2	PRAIRIE	1118	n/a	n/a	0	0	0
332911	WORD	wordpools/wasnorm_wordpool_576.txt	LTP343	ltpFR2	23	2	NEPTUNE	943	n/a	n/a	0	0	0
335486	WORD	wordpools/wasnorm_wordpool_576.txt	LTP343	ltpFR2	23	2	SERPENT	1270	n/a	n/a	0	0	0
338061	WORD	wordpools/wasnorm_wordpool_576.txt	LTP343	ltpFR2	23	2	REPTILE	1185	n/a	n/a	0	0	0
340569	WORD	wordpools/wasnorm_wordpool_576.txt	LTP343	ltpFR2	23	2	MUSHROOM	934	n/a	n/a	0	0	0
342175	START	n/a	LTP343	ltpFR2	23	n/a	n/a	n/a	4	n/a	n/a	n/a	n/a
343168	DISTRACTOR	n/a	LTP343	ltpFR2	23	2	n/a	n/a	n/a	n/a	0	0	0
343178	PROB	n/a	LTP343	ltpFR2	23	n/a	n/a	n/a	4	16	6	8	6
345518	PROB	n/a	LTP343	ltpFR2	23	n/a	n/a	n/a	4	9	2	5	2
349548	PROB	n/a	LTP343	ltpFR2	23	n/a	n/a	n/a	4	22	6	8	8
351504	PROB	n/a	LTP343	ltpFR2	23	n/a	n/a	n/a	4	18	8	3	7
352675	PROB	n/a	LTP343	ltpFR2	23	n/a	n/a	n/a	4	16	9	6	1
353896	PROB	n/a	LTP343	ltpFR2	23	n/a	n/a	n/a	4	17	2	6	9
355284	PROB	n/a	LTP343	ltpFR2	23	n/a	n/a	n/a	4	9	3	2	4
356387	PROB	n/a	LTP343	ltpFR2	23	n/a	n/a	n/a	4	16	4	8	4
357658	PROB	n/a	LTP343	ltpFR2	23	n/a	n/a	n/a	4	22	7	5	9
359012	PROB	n/a	LTP343	ltpFR2	23	n/a	n/a	n/a	4	15	3	5	7
360166	PROB	n/a	LTP343	ltpFR2	23	n/a	n/a	n/a	4	11	8	1	2
361236	PROB	n/a	LTP343	ltpFR2	23	n/a	n/a	n/a	4	16	7	8	1
362390	PROB	n/a	LTP343	ltpFR2	23	n/a	n/a	n/a	4	22	8	5	9
366175	STOP	n/a	LTP343	ltpFR2	23	n/a	n/a	n/a	4	n/a	n/a	n/a	n/a
368009	REC_START	n/a	LTP343	ltpFR2	23	2	n/a	n/a	n/a	n/a	0	0	0
368587	REC_WORD	wordpools/wasnorm_wordpool_576.txt	LTP343	ltpFR2	23	2	NEPTUNE	943	n/a	n/a	0	0	0
372505	REC_WORD	wordpools/wasnorm_wordpool_576.txt	LTP343	ltpFR2	23	2	HAYSTACK	694	n/a	n/a	0	0	0
373407	REC_WORD	wordpools/wasnorm_wordpool_576.txt	LTP343	ltpFR2	23	2	PRAIRIE	1118	n/a	n/a	0	0	0
375474	REC_WORD	wordpools/wasnorm_wordpool_576.txt	LTP343	ltpFR2	23	2	IGLOO	734	n/a	n/a	0	0	0
376250	REC_WORD	wordpools/wasnorm_wordpool_576.txt	LTP343	ltpFR2	23	2	PASSAGE	1019	n/a	n/a	0	0	0
377310	REC_WORD	wordpools/wasnorm_wordpool_576.txt	LTP343	ltpFR2	23	2	CHAMBER	277	n/a	n/a	0	0	0
378245	REC_WORD	wordpools/wasnorm_wordpool_576.txt	LTP343	ltpFR2	23	2	BATHROOM	99	n/a	n/a	0	0	0
379040	REC_WORD	wordpools/wasnorm_wordpool_576.txt	LTP343	ltpFR2	23	2	SINK	1309	n/a	n/a	0	0	0
380494	REC_WORD	wordpools/wasnorm_wordpool_576.txt	LTP343	ltpFR2	23	2	SALAD	1224	n/a	n/a	0	0	0
381530	REC_WORD	wordpools/wasnorm_wordpool_576.txt	LTP343	ltpFR2	23	2	RAISIN	1163	n/a	n/a	0	0	0
384669	REC_WORD	wordpools/wasnorm_wordpool_576.txt	LTP343	ltpFR2	23	2	SNACK	1331	n/a	n/a	0	0	0
385576	REC_WORD	wordpools/wasnorm_wordpool_576.txt	LTP343	ltpFR2	23	2	SARDINE	1235	n/a	n/a	0	0	0
388947	REC_WORD	wordpools/wasnorm_wordpool_576.txt	LTP343	ltpFR2	23	2	REPTILE	1185	n/a	n/a	0	0	0
401631	REC_WORD	wordpools/wasnorm_wordpool_576.txt	LTP343	ltpFR2	23	2	PONY	1102	n/a	n/a	0	0	0
403060	REC_WORD	wordpools/wasnorm_wordpool_576.txt	LTP343	ltpFR2	23	2	SQUID	1361	n/a	n/a	0	0	0
458450	DISTRACTOR	n/a	LTP343	ltpFR2	23	3	n/a	n/a	n/a	n/a	0	0	0
458450	START	n/a	LTP343	ltpFR2	23	n/a	n/a	n/a	5	n/a	n/a	n/a	n/a
458468	PROB	n/a	LTP343	ltpFR2	23	n/a	n/a	n/a	5	9	4	1	4
460190	PROB	n/a	LTP343	ltpFR2	23	n/a	n/a	n/a	5	21	6	7	8
462715	PROB	n/a	LTP343	ltpFR2	23	n/a	n/a	n/a	5	13	9	2	2
464186	PROB	n/a	LTP343	ltpFR2	23	n/a	n/a	n/a	5	24	7	8	9
466009	PROB	n/a	LTP343	ltpFR2	23	n/a	n/a	n/a	5	12	9	2	1
467380	PROB	n/a	LTP343	ltpFR2	23	n/a	n/a	n/a	5	22	9	9	4
468550	PROB	n/a	LTP343	ltpFR2	23	n/a	n/a	n/a	5	9	6	1	2
469670	PROB	n/a	LTP343	ltpFR2	23	n/a	n/a	n/a	5	9	3	3	3
470490	PROB	n/a	LTP343	ltpFR2	23	n/a	n/a	n/a	5	16	9	5	2
471694	PROB	n/a	LTP343	ltpFR2	23	n/a	n/a	n/a	5	13	5	6	2
472948	PROB	n/a	LTP343	ltpFR2	23	n/a	n/a	n/a	5	20	8	3	9
474553	PROB	n/a	LTP343	ltpFR2	23	n/a	n/a	n/a	5	13	6	3	4
475874	PROB	n/a	LTP343	ltpFR2	23	n/a	n/a	n/a	5	9	4	4	1
477044	PROB	n/a	LTP343	ltpFR2	23	n/a	n/a	n/a	5	23	7	9	7
479369	PROB	n/a	LTP343	ltpFR2	23	n/a	n/a	n/a	5	13	5	5	3
480472	PROB	n/a	LTP343	ltpFR2	23	n/a	n/a	n/a	5	13	2	8	3
481704	STOP	n/a	LTP343	ltpFR2	23	n/a	n/a	n/a	5	n/a	n/a	n/a	n/a
483432	WORD	wordpools/wasnorm_wordpool_576.txt	LTP343	ltpFR2	23	3	BELT	120	n/a	n/a	0	0	0
486241	WORD	wordpools/wasnorm_wordpool_576.txt	LTP343	ltpFR2	23	3	PAINTING	1005	n/a	n/a	0	0	0
489017	WORD	wordpools/wasnorm_wordpool_576.txt	LTP343	ltpFR2	23	3	CLOUD	328	n/a	n/a	0	0	0
491491	WORD	wordpools/wasnorm_wordpool_576.txt	LTP343	ltpFR2	23	3	PIRATE	1074	n/a	n/a	0	0	0
494150	WORD	wordpools/wasnorm_wordpool_576.txt	LTP343	ltpFR2	23	3	POET	1095	n/a	n/a	0	0	0
496691	WORD	wordpools/wasnorm_wordpool_576.txt	LTP343	ltpFR2	23	3	CONCERT	360	n/a	n/a	0	0	0
499200	WORD	wordpools/wasnorm_wordpool_576.txt	LTP343	ltpFR2	23	3	MACHINE	852	n/a	n/a	0	0	0
501724	WORD	wordpools/wasnorm_wordpool_576.txt	LTP343	ltpFR2	23	3	BLOCKADE	137	n/a	n/a	0	0	0
504333	WORD	wordpools/wasnorm_wordpool_576.txt	LTP343	ltpFR2	23	3	STAR	1373	n/a	n/a	0	0	0
506874	WORD	wordpools/wasnorm_wordpool_576.txt	LTP343	ltpFR2	23	3	RULER	1216	n/a	n/a	0	0	0
509684	WORD	wordpools/wasnorm_wordpool_576.txt	LTP343	ltpFR2	23	3	STATUE	1374	n/a	n/a	0	0	0
512225	WORD	wordpools/wasnorm_wordpool_576.txt	LTP343	ltpFR2	23	3	BULLET	194	n/a	n/a	0	0	0
514650	WORD	wordpools/wasnorm_wordpool_576.txt	LTP343	ltpFR2	23	3	BRACES	164	n/a	n/a	0	0	0
517342	WORD	wordpools/wasnorm_wordpool_576.txt	LTP343	ltpFR2	23	3	PORT	1110	n/a	n/a	0	0	0
519967	WORD	wordpools/wasnorm_wordpool_576.txt	LTP343	ltpFR2	23	3	SCULPTURE	1258	n/a	n/a	0	0	0
522425	WORD	wordpools/wasnorm_wordpool_576.txt	LTP343	ltpFR2	23	3	ROBOT	1200	n/a	n/a	0	0	0
525234	WORD	wordpools/wasnorm_wordpool_576.txt	LTP343	ltpFR2	23	3	BLOSSOM	138	n/a	n/a	0	0	0
527993	WORD	wordpools/wasnorm_wordpool_576.txt	LTP343	ltpFR2	23	3	BUTCHER	203	n/a	n/a	0	0	0
530518	WORD	wordpools/wasnorm_wordpool_576.txt	LTP343	ltpFR2	23	3	BEEF	113	n/a	n/a	0	0	0
533226	WORD	wordpools/wasnorm_wordpool_576.txt	LTP343	ltpFR2	23	3	FIGHTER	564	n/a	n/a	0	0	0
535852	WORD	wordpools/wasnorm_wordpool_576.txt	LTP343	ltpFR2	23	3	MOTHER	921	n/a	n/a	0	0	0
538326	WORD	wordpools/wasnorm_wordpool_576.txt	LTP343	ltpFR2	23	3	TRACTOR	1493	n/a	n/a	0	0	0
540801	WORD	wordpools/wasnorm_wordpool_576.txt	LTP343	ltpFR2	23	3	BUCKET	184	n/a	n/a	0	0	0
543276	WORD	wordpools/wasnorm_wordpool_576.txt	LTP343	ltpFR2	23	3	MARSH	874	n/a	n/a	0	0	0
544881	START	n/a	LTP343	ltpFR2	23	n/a	n/a	n/a	6	n/a	n/a	n/a	n/a
546010	DISTRACTOR	n/a	LTP343	ltpFR2	23	3	n/a	n/a	n/a	n/a	0	0	0
546018	PROB	n/a	LTP343	ltpFR2	23	n/a	n/a	n/a	6	5	3	1	1
547456	PROB	n/a	LTP343	ltpFR2	23	n/a	n/a	n/a	6	25	9	7	9
550917	PROB	n/a	LTP343	ltpFR2	23	n/a	n/a	n/a	6	22	6	8	8
552990	PROB	n/a	LTP343	ltpFR2	23	n/a	n/a	n/a	6	21	9	7	5
554545	PROB	n/a	LTP343	ltpFR2	23	n/a	n/a	n/a	6	18	5	4	9
555733	PROB	n/a	LTP343	ltpFR2	23	n/a	n/a	n/a	6	17	7	9	1
558124	PROB	n/a	LTP343	ltpFR2	23	n/a	n/a	n/a	6	23	8	8	7
561433	PROB	n/a	LTP343	ltpFR2	23	n/a	n/a	n/a	6	9	4	4	1
562388	PROB	n/a	LTP343	ltpFR2	23	n/a	n/a	n/a	6	14	9	2	3
563642	PROB	n/a	LTP343	ltpFR2	23	n/a	n/a	n/a	6	7	2	3	2
564728	PROB	n/a	LTP343	ltpFR2	23	n/a	n/a	n/a	6	18	9	3	6
566300	PROB	n/a	LTP343	ltpFR2	23	n/a	n/a	n/a	6	15	3	3	9
567666	STOP	n/a	LTP343	ltpFR2	23	n/a	n/a	n/a	6	n/a	n/a	n/a	n/a
570782	REC_START	n/a	LTP343	ltpFR2	23	3	n/a	n/a	n/a	n/a	0	0	0
571387	REC_WORD	wordpools/wasnorm_wordpool_576.txt	LTP343	ltpFR2	23	3	BEEF	113	n/a	n/a	0	0	0
571992	REC_WORD	wordpools/wasnorm_wordpool_576.txt	LTP343	ltpFR2	23	3	FIGHTER	564	n/a	n/a	0	0	0
572851	REC_WORD	wordpools/wasnorm_wordpool_576.txt	LTP343	ltpFR2	23	3	MOTHER	921	n/a	n/a	0	0	0
573603	REC_WORD	wordpools/wasnorm_wordpool_576.txt	LTP343	ltpFR2	23	3	TRACTOR	1493	n/a	n/a	0	0	0
577211	REC_WORD	wordpools/wasnorm_wordpool_576.txt	LTP343	ltpFR2	23	3	PIRATE	1074	n/a	n/a	0	0	0
578312	REC_WORD	wordpools/wasnorm_wordpool_576.txt	LTP343	ltpFR2	23	3	PAINTING	1005	n/a	n/a	0	0	0
579266	REC_WORD	wordpools/wasnorm_wordpool_576.txt	LTP343	ltpFR2	23	3	BLOCKADE	137	n/a	n/a	0	0	0
581736	REC_WORD	wordpools/wasnorm_wordpool_576.txt	LTP343	ltpFR2	23	3	STAR	1373	n/a	n/a	0	0	0
582705	REC_WORD	wordpools/wasnorm_wordpool_576.txt	LTP343	ltpFR2	23	3	RULER	1216	n/a	n/a	0	0	0
584187	REC_WORD	wordpools/wasnorm_wordpool_576.txt	LTP343	ltpFR2	23	3	POET	1095	n/a	n/a	0	0	0
586140	REC_WORD	wordpools/wasnorm_wordpool_576.txt	LTP343	ltpFR2	23	3	BULLET	194	n/a	n/a	0	0	0
592305	REC_WORD	wordpools/wasnorm_wordpool_576.txt	LTP343	ltpFR2	23	3	CONCERT	360	n/a	n/a	0	0	0
615677	REC_WORD	wordpools/wasnorm_wordpool_576.txt	LTP343	ltpFR2	23	3	BRACES	164	n/a	n/a	0	0	0
633192	REC_WORD	wordpools/wasnorm_wordpool_576.txt	LTP343	ltpFR2	23	3	PORT	1110	n/a	n/a	0	0	0
661241	WORD	wordpools/wasnorm_wordpool_576.txt	LTP343	ltpFR2	23	4	DIAMOND	458	n/a	n/a	0	0	0
663682	WORD	wordpools/wasnorm_wordpool_576.txt	LTP343	ltpFR2	23	4	PATIENT	1024	n/a	n/a	0	0	0
666458	WORD	wordpools/wasnorm_wordpool_576.txt	LTP343	ltpFR2	23	4	OINTMENT	974	n/a	n/a	0	0	0
669167	WORD	wordpools/wasnorm_wordpool_576.txt	LTP343	ltpFR2	23	4	WORKER	1621	n/a	n/a	0	0	0
671725	WORD	wordpools/wasnorm_wordpool_576.txt	LTP343	ltpFR2	23	4	MUMMY	932	n/a	n/a	0	0	0
674183	WORD	wordpools/wasnorm_wordpool_576.txt	LTP343	ltpFR2	23	4	KNUCKLE	789	n/a	n/a	0	0	0
676992	WORD	wordpools/wasnorm_wordpool_576.txt	LTP343	ltpFR2	23	4	PUMPKIN	1142	n/a	n/a	0	0	0
679684	WORD	wordpools/wasnorm_wordpool_576.txt	LTP343	ltpFR2	23	4	EGYPT	519	n/a	n/a	0	0	0
682292	WORD	wordpools/wasnorm_wordpool_576.txt	LTP343	ltpFR2	23	4	SQUIRREL	1362	n/a	n/a	0	0	0
685085	WORD	wordpools/wasnorm_wordpool_576.txt	LTP343	ltpFR2	23	4	HONEY	713	n/a	n/a	0	0	0
687543	WORD	wordpools/wasnorm_wordpool_576.txt	LTP343	ltpFR2	23	4	HANGER	687	n/a	n/a	0	0	0
689984	WORD	wordpools/wasnorm_wordpool_576.txt	LTP343	ltpFR2	23	4	PREACHER	1119	n/a	n/a	0	0	0
692475	WORD	wordpools/wasnorm_wordpool_576.txt	LTP343	ltpFR2	23	4	CROSS	413	n/a	n/a	0	0	0
695134	WORD	wordpools/wasnorm_wordpool_576.txt	LTP343	ltpFR2	23	4	CAPTAIN	239	n/a	n/a	0	0	0
697876	WORD	wordpools/wasnorm_wordpool_576.txt	LTP343	ltpFR2	23	4	PADDING	999	n/a	n/a	0	0	0
700401	WORD	wordpools/wasnorm_wordpool_576.txt	LTP343	ltpFR2	23	4	BUGGY	188	n/a	n/a	0	0	0
703143	WORD	wordpools/wasnorm_wordpool_576.txt	LTP343	ltpFR2	23	4	TIMBER	1469	n/a	n/a	0	0	0
705819	WORD	wordpools/wasnorm_wordpool_576.txt	LTP343	ltpFR2	23	4	SWAMP	1416	n/a	n/a	0	0	0
708260	WORD	wordpools/wasnorm_wordpool_576.txt	LTP343	ltpFR2	23	4	CRITIC	410	n/a	n/a	0	0	0
711002	WORD	wordpools/wasnorm_wordpool_576.txt	LTP343	ltpFR2	23	4	POPCORN	1104	n/a	n/a	0	0	0
713711	WORD	wordpools/wasnorm_wordpool_576.txt	LTP343	ltpFR2	23	4	THREAD	1460	n/a	n/a	0	0	0
716252	WORD	wordpools/wasnorm_wordpool_576.txt	LTP343	ltpFR2	23	4	BROOK	177	n/a	n/a	0	0	0
718677	WORD	wordpools/wasnorm_wordpool_576.txt	LTP343	ltpFR2	23	4	GERM	632	n/a	n/a	0	0	0
721135	WORD	wordpools/wasnorm_wordpool_576.txt	LTP343	ltpFR2	23	4	WARDROBE	1587	n/a	n/a	0	0	0
722740	START	n/a	LTP343	ltpFR2	23	n/a	n/a	n/a	7	n/a	n/a	n/a	n/a
723780	DISTRACTOR	n/a	LTP343	ltpFR2	23	4	n/a	n/a	n/a	n/a	0	0	0
723793	PROB	n/a	LTP343	ltpFR2	23	n/a	n/a	n/a	7	14	3	5	6
725549	PROB	n/a	LTP343	ltpFR2	23	n/a	n/a	n/a	7	21	6	7	8
729077	PROB	n/a	LTP343	ltpFR2	23	n/a	n/a	n/a	7	17	7	7	3
731234	PROB	n/a	LTP343	ltpFR2	23	n/a	n/a	n/a	7	18	7	3	8
732405	PROB	n/a	LTP343	ltpFR2	23	n/a	n/a	n/a	7	15	2	5	8
733440	PROB	n/a	LTP343	ltpFR2	23	n/a	n/a	n/a	7	16	6	1	9
734980	PROB	n/a	LTP343	ltpFR2	23	n/a	n/a	n/a	7	18	6	8	4
736551	PROB	n/a	LTP343	ltpFR2	23	n/a	n/a	n/a	7	16	2	5	9
737755	PROB	n/a	LTP343	ltpFR2	23	n/a	n/a	n/a	7	20	9	4	7
739678	PROB	n/a	LTP343	ltpFR2	23	n/a	n/a	n/a	7	19	7	8	4
741049	PROB	n/a	LTP343	ltpFR2	23	n/a	n/a	n/a	7	20	8	6	6
742538	PROB	n/a	LTP343	ltpFR2	23	n/a	n/a	n/a	7	16	7	1	8
744176	PROB	n/a	LTP343	ltpFR2	23	n/a	n/a	n/a	7	16	7	3	6
745335	STOP	n/a	LTP343	ltpFR2	23	n/a	n/a	n/a	7	n/a	n/a	n/a	n/a
748541	REC_START	n/a	LTP343	ltpFR2	23	4	n/a	n/a	n/a	n/a	0	0	0
748947	REC_WORD	wordpools/wasnorm_wordpool_576.txt	LTP343	ltpFR2	23	4	TINDER	-1	n/a	n/a	0	0	0
749694	REC_WORD	wordpools/wasnorm_wordpool_576.txt	LTP343	ltpFR2	23	4	SWAMP	1416	n/a	n/a	0	0	0
750794	REC_WORD	wordpools/wasnorm_wordpool_576.txt	LTP343	ltpFR2	23	4	CRITIC	410	n/a	n/a	0	0	0
753994	REC_WORD	wordpools/wasnorm_wordpool_576.txt	LTP343	ltpFR2	23	4	BOYFRIEND	162	n/a	n/a	0	0	0
761249	REC_WORD	wordpools/wasnorm_wordpool_576.txt	LTP343	ltpFR2	23	4	HONEY	713	n/a	n/a	0	0	0
762292	REC_WORD	wordpools/wasnorm_wordpool_576.txt	LTP343	ltpFR2	23	4	HANGER	687	n/a	n/a	0	0	0
769263	REC_WORD	wordpools/wasnorm_wordpool_576.txt	LTP343	ltpFR2	23	4	CAPTAIN	239	n/a	n/a	0	0	0
774604	REC_WORD	wordpools/wasnorm_wordpool_576.txt	LTP343	ltpFR2	23	4	BUGGY	188	n/a	n/a	0	0	0
839000	WORD	wordpools/wasnorm_wordpool_576.txt	LTP343	ltpFR2	23	5	CONSOLE	364	n/a	n/a	0	0	0
841658	WORD	wordpools/wasnorm_wordpool_576.txt	LTP343	ltpFR2	23	5	PENCIL	1042	n/a	n/a	0	0	0
844450	WORD	wordpools/wasnorm_wordpool_576.txt	LTP343	ltpFR2	23	5	DOCTOR	478	n/a	n/a	0	0	0
847009	WORD	wordpools/wasnorm_wordpool_576.txt	LTP343	ltpFR2	23	5	SURGEON	1413	n/a	n/a	0	0	0
849751	WORD	wordpools/wasnorm_wordpool_576.txt	LTP343	ltpFR2	23	5	PEACH	1031	n/a	n/a	0	0	0
852427	WORD	wordpools/wasnorm_wordpool_576.txt	LTP343	ltpFR2	23	5	MARKER	870	n/a	n/a	0	0	0
855052	WORD	wordpools/wasnorm_wordpool_576.txt	LTP343	ltpFR2	23	5	ATHLETE	52	n/a	n/a	0	0	0
857627	WORD	wordpools/wasnorm_wordpool_576.txt	LTP343	ltpFR2	23	5	BASEBALL	93	n/a	n/a	0	0	0
860068	WORD	wordpools/wasnorm_wordpool_576.txt	LTP343	ltpFR2	23	5	HATCHET	691	n/a	n/a	0	0	0
862827	WORD	wordpools/wasnorm_wordpool_576.txt	LTP343	ltpFR2	23	5	FOREHEAD	592	n/a	n/a	0	0	0
865603	WORD	wordpools/wasnorm_wordpool_576.txt	LTP343	ltpFR2	23	5	GARAGE	621	n/a	n/a	0	0	0
868027	WORD	wordpools/wasnorm_wordpool_576.txt	LTP343	ltpFR2	23	5	HEEL	700	n/a	n/a	0	0	0
870636	WORD	wordpools/wasnorm_wordpool_576.txt	LTP343	ltpFR2	23	5	UNCLE	1536	n/a	n/a	0	0	0
873110	WORD	wordpools/wasnorm_wordpool_576.txt	LTP343	ltpFR2	23	5	NEWSSTAND	949	n/a	n/a	0	0	0
875535	WORD	wordpools/wasnorm_wordpool_576.txt	LTP343	ltpFR2	23	5	YOLK	1633	n/a	n/a	0	0	0
877959	WORD	wordpools/wasnorm_wordpool_576.txt	LTP343	ltpFR2	23	5	COUNTRY	388	n/a	n/a	0	0	0
880752	WORD	wordpools/wasnorm_wordpool_576.txt	LTP343	ltpFR2	23	5	JEEP	753	n/a	n/a	0	0	0
883327	WORD	wordpools/wasnorm_wordpool_576.txt	LTP343	ltpFR2	23	5	NICKEL	950	n/a	n/a	0	0	0
885801	WORD	wordpools/wasnorm_wordpool_576.txt	LTP343	ltpFR2	23	5	SALESMAN	1225	n/a	n/a	0	0	0
888326	WORD	wordpools/wasnorm_wordpool_576.txt	LTP343	ltpFR2	23	5	WINDSHIELD	1612	n/a	n/a	0	0	0
891018	WORD	wordpools/wasnorm_wordpool_576.txt	LTP343	ltpFR2	23	5	TAVERN	1437	n/a	n/a	0	0	0
893560	WORD	wordpools/wasnorm_wordpool_576.txt	LTP343	ltpFR2	23	5	HAMMOCK	681	n/a	n/a	0	0	0
896018	WORD	wordpools/wasnorm_wordpool_576.txt	LTP343	ltpFR2	23	5	OUTLAW	989	n/a	n/a	0	0	0
898793	WORD	wordpools/wasnorm_wordpool_576.txt	LTP343	ltpFR2	23	5	BRUNETTE	181	n/a	n/a	0	0	0
900399	START	n/a	LTP343	ltpFR2	23	n/a	n/a	n/a	8	n/a	n/a	n/a	n/a
901320	DISTRACTOR	n/a	LTP343	ltpFR2	23	5	n/a	n/a	n/a	n/a	0	0	0
901335	PROB	n/a	LTP343	ltpFR2	23	n/a	n/a	n/a	8	15	5	5	5
902923	PROB	n/a	LTP343	ltpFR2	23	n/a	n/a	n/a	8	14	9	2	3
904395	PROB	n/a	LTP343	ltpFR2	23	n/a	n/a	n/a	8	17	2	7	8
905866	PROB	n/a	LTP343	ltpFR2	23	n/a	n/a	n/a	8	16	7	8	1
907739	PROB	n/a	LTP343	ltpFR2	23	n/a	n/a	n/a	8	16	2	8	6
908843	PROB	n/a	LTP343	ltpFR2	23	n/a	n/a	n/a	8	12	1	2	9
910231	PROB	n/a	LTP343	ltpFR2	23	n/a	n/a	n/a	8	20	7	9	6
913207	PROB	n/a	LTP343	ltpFR2	23	n/a	n/a	n/a	8	11	1	7	3
914511	PROB	n/a	LTP343	ltpFR2	23	n/a	n/a	n/a	8	6	3	2	1
915732	PROB	n/a	LTP343	ltpFR2	23	n/a	n/a	n/a	8	16	2	9	5
916969	PROB	n/a	LTP343	ltpFR2	23	n/a	n/a	n/a	8	20	7	5	8
918290	PROB	n/a	LTP343	ltpFR2	23	n/a	n/a	n/a	8	20	6	8	6
920079	PROB	n/a	LTP343	ltpFR2	23	n/a	n/a	n/a	8	17	7	4	7
921383	PROB	n/a	LTP343	ltpFR2	23	n/a	n/a	n/a	8	19	9	9	1
922671	PROB	n/a	LTP343	ltpFR2	23	n/a	n/a	n/a	8	22	7	8	7
923876	STOP	n/a	LTP343	ltpFR2	23	n/a	n/a	n/a	8	n/a	n/a	n/a	n/a
926300	REC_START	n/a	LTP343	ltpFR2	23	5	n/a	n/a	n/a	n/a	0	0	0
926782	REC_WORD	wordpools/wasnorm_wordpool_576.txt	LTP343	ltpFR2	23	5	COUNTRY	388	n/a	n/a	0	0	0
927603	REC_WORD	wordpools/wasnorm_wordpool_576.txt	LTP343	ltpFR2	23	5	JEEP	753	n/a	n/a	0	0	0
928327	REC_WORD	wordpools/wasnorm_wordpool_576.txt	LTP343	ltpFR2	23	5	NICKEL	950	n/a	n/a	0	0	0
929126	REC_WORD	wordpools/wasnorm_wordpool_576.txt	LTP343	ltpFR2	23	5	SALESMAN	1225	n/a	n/a	0	0	0
931212	REC_WORD	wordpools/wasnorm_wordpool_576.txt	LTP343	ltpFR2	23	5	SURGEON	1413	n/a	n/a	0	0	0
932284	REC_WORD	wordpools/wasnorm_wordpool_576.txt	LTP343	ltpFR2	23	5	DOCTOR	478	n/a	n/a	0	0	0
933267	REC_WORD	wordpools/wasnorm_wordpool_576.txt	LTP343	ltpFR2	23	5	PENCIL	1042	n/a	n/a	0	0	0
934241	REC_WORD	wordpools/wasnorm_wordpool_576.txt	LTP343	ltpFR2	23	5	MARKER	870	n/a	n/a	0	0	0
938171	REC_WORD	wordpools/wasnorm_wordpool_576.txt	LTP343	ltpFR2	23	5	BASEBALL	93	n/a	n/a	0	0	0
941395	REC_WORD	wordpools/wasnorm_wordpool_576.txt	LTP343	ltpFR2	23	5	HATCHET	691	n/a	n/a	0	0	0
942969	REC_WORD	wordpools/wasnorm_wordpool_576.txt	LTP343	ltpFR2	23	5	FOREHEAD	592	n/a	n/a	0	0	0
946054	REC_WORD	wordpools/wasnorm_wordpool_576.txt	LTP343	ltpFR2	23	5	TAVERN	1437	n/a	n/a	0	0	0
947226	REC_WORD	wordpools/wasnorm_wordpool_576.txt	LTP343	ltpFR2	23	5	WINDSHIELD	1612	n/a	n/a	0	0	0
965918	REC_WORD	wordpools/wasnorm_wordpool_576.txt	LTP343	ltpFR2	23	5	YOLK	1633	n/a	n/a	0	0	0
1016742	DISTRACTOR	n/a	LTP343	ltpFR2	23	6	n/a	n/a	n/a	n/a	0	0	0
1016742	START	n/a	LTP343	ltpFR2	23	n/a	n/a	n/a	9	n/a	n/a	n/a	n/a
1016759	PROB	n/a	LTP343	ltpFR2	23	n/a	n/a	n/a	9	16	5	9	2
1018481	PROB	n/a	LTP343	ltpFR2	23	n/a	n/a	n/a	9	14	2	5	7
1019819	PROB	n/a	LTP343	ltpFR2	23	n/a	n/a	n/a	9	14	2	4	8
1021290	PROB	n/a	LTP343	ltpFR2	23	n/a	n/a	n/a	9	11	1	8	2
1022427	PROB	n/a	LTP343	ltpFR2	23	n/a	n/a	n/a	9	16	5	5	6
1023982	PROB	n/a	LTP343	ltpFR2	23	n/a	n/a	n/a	9	19	6	5	8
1025219	PROB	n/a	LTP343	ltpFR2	23	n/a	n/a	n/a	9	14	3	7	4
1027343	PROB	n/a	LTP343	ltpFR2	23	n/a	n/a	n/a	9	20	8	9	3
1028848	PROB	n/a	LTP343	ltpFR2	23	n/a	n/a	n/a	9	12	3	6	3
1030035	PROB	n/a	LTP343	ltpFR2	23	n/a	n/a	n/a	9	16	7	7	2
1031088	PROB	n/a	LTP343	ltpFR2	23	n/a	n/a	n/a	9	12	3	8	1
1032159	PROB	n/a	LTP343	ltpFR2	23	n/a	n/a	n/a	9	16	8	7	1
1033212	PROB	n/a	LTP343	ltpFR2	23	n/a	n/a	n/a	9	22	8	4	9
1035118	PROB	n/a	LTP343	ltpFR2	23	n/a	n/a	n/a	9	15	3	9	3
1036774	PROB	n/a	LTP343	ltpFR2	23	n/a	n/a	n/a	9	19	6	9	4
1038011	PROB	n/a	LTP343	ltpFR2	23	n/a	n/a	n/a	9	17	9	3	5
1039232	STOP	n/a	LTP343	ltpFR2	23	n/a	n/a	n/a	9	n/a	n/a	n/a	n/a
1041756	WORD	wordpools/wasnorm_wordpool_576.txt	LTP343	ltpFR2	23	6	SUNRISE	1407	n/a	n/a	0	0	0
1044281	WORD	wordpools/wasnorm_wordpool_576.txt	LTP343	ltpFR2	23	6	BLUEJAY	141	n/a	n/a	0	0	0
1046956	WORD	wordpools/wasnorm_wordpool_576.txt	LTP343	ltpFR2	23	6	CRAB	397	n/a	n/a	0	0	0
1049682	WORD	wordpools/wasnorm_wordpool_576.txt	LTP343	ltpFR2	23	6	GRILL	661	n/a	n/a	0	0	0
1052140	WORD	wordpools/wasnorm_wordpool_576.txt	LTP343	ltpFR2	23	6	EUROPE	541	n/a	n/a	0	0	0
1054715	WORD	wordpools/wasnorm_wordpool_576.txt	LTP343	ltpFR2	23	6	EARRING	514	n/a	n/a	0	0	0
1057323	WORD	wordpools/wasnorm_wordpool_576.txt	LTP343	ltpFR2	23	6	MEDAL	885	n/a	n/a	0	0	0
1060049	WORD	wordpools/wasnorm_wordpool_576.txt	LTP343	ltpFR2	23	6	AWARD	63	n/a	n/a	0	0	0
1062540	WORD	wordpools/wasnorm_wordpool_576.txt	LTP343	ltpFR2	23	6	LONDON	843	n/a	n/a	0	0	0
1065099	WORD	wordpools/wasnorm_wordpool_576.txt	LTP343	ltpFR2	23	6	CIRCUS	311	n/a	n/a	0	0	0
1067640	WORD	wordpools/wasnorm_wordpool_576.txt	LTP343	ltpFR2	23	6	ORANGE	980	n/a	n/a	0	0	0
1070065	WORD	wordpools/wasnorm_wordpool_576.txt	LTP343	ltpFR2	23	6	CRICKET	408	n/a	n/a	0	0	0
1072590	WORD	wordpools/wasnorm_wordpool_576.txt	LTP343	ltpFR2	23	6	COCOON	339	n/a	n/a	0	0	0
1075014	WORD	wordpools/wasnorm_wordpool_576.txt	LTP343	ltpFR2	23	6	SHACK	1273	n/a	n/a	0	0	0
1077438	WORD	wordpools/wasnorm_wordpool_576.txt	LTP343	ltpFR2	23	6	PECAN	1036	n/a	n/a	0	0	0
1080181	WORD	wordpools/wasnorm_wordpool_576.txt	LTP343	ltpFR2	23	6	BEAKER	104	n/a	n/a	0	0	0
1082639	WORD	wordpools/wasnorm_wordpool_576.txt	LTP343	ltpFR2	23	6	NEEDLE	941	n/a	n/a	0	0	0
1085331	WORD	wordpools/wasnorm_wordpool_576.txt	LTP343	ltpFR2	23	6	FOSSIL	596	n/a	n/a	0	0	0
1087839	WORD	wordpools/wasnorm_wordpool_576.txt	LTP343	ltpFR2	23	6	ELK	526	n/a	n/a	0	0	0
1090615	WORD	wordpools/wasnorm_wordpool_576.txt	LTP343	ltpFR2	23	6	SCISSORS	1250	n/a	n/a	0	0	0
1093424	WORD	wordpools/wasnorm_wordpool_576.txt	LTP343	ltpFR2	23	6	BEAVER	109	n/a	n/a	0	0	0
1096216	WORD	wordpools/wasnorm_wordpool_576.txt	LTP343	ltpFR2	23	6	PITCHFORK	1078	n/a	n/a	0	0	0
1099008	WORD	wordpools/wasnorm_wordpool_576.txt	LTP343	ltpFR2	23	6	WHISTLE	1606	n/a	n/a	0	0	0
1101500	WORD	wordpools/wasnorm_wordpool_576.txt	LTP343	ltpFR2	23	6	GAZELLE	628	n/a	n/a	0	0	0
1103105	START	n/a	LTP343	ltpFR2	23	n/a	n/a	n/a	10	n/a	n/a	n/a	n/a
1103917	DISTRACTOR	n/a	LTP343	ltpFR2	23	6	n/a	n/a	n/a	n/a	0	0	0
1103924	PROB	n/a	LTP343	ltpFR2	23	n/a	n/a	n/a	10	12	6	6	6
1105697	PROB	n/a	LTP343	ltpFR2	23	n/a	n/a	n/a	10	13	1	9	3
1106884	PROB	n/a	LTP343	ltpFR2	23	n/a	n/a	n/a	10	11	1	6	4
1108623	PROB	n/a	LTP343	ltpFR2	23	n/a	n/a	n/a	10	13	3	8	2
1109743	PROB	n/a	LTP343	ltpFR2	23	n/a	n/a	n/a	10	15	7	6	2
1111398	PROB	n/a	LTP343	ltpFR2	23	n/a	n/a	n/a	10	10	3	3	4
1112770	PROB	n/a	LTP343	ltpFR2	23	n/a	n/a	n/a	10	21	8	9	4
1114074	PROB	n/a	LTP343	ltpFR2	23	n/a	n/a	n/a	10	7	5	1	1
1115144	PROB	n/a	LTP343	ltpFR2	23	n/a	n/a	n/a	10	12	8	1	3
1116348	PROB	n/a	LTP343	ltpFR2	23	n/a	n/a	n/a	10	16	8	4	4
1117552	PROB	n/a	LTP343	ltpFR2	23	n/a	n/a	n/a	10	17	3	7	7
1119057	PROB	n/a	LTP343	ltpFR2	23	n/a	n/a	n/a	10	18	5	8	5
1120361	PROB	n/a	LTP343	ltpFR2	23	n/a	n/a	n/a	10	5	1	1	3
1121314	PROB	n/a	LTP343	ltpFR2	23	n/a	n/a	n/a	10	15	8	1	6
1122535	PROB	n/a	LTP343	ltpFR2	23	n/a	n/a	n/a	10	11	6	2	3
1124223	PROB	n/a	LTP343	ltpFR2	23	n/a	n/a	n/a	10	18	4	7	7
1125544	PROB	n/a	LTP343	ltpFR2	23	n/a	n/a	n/a	10	21	7	7	7
1126650	STOP	n/a	LTP343	ltpFR2	23	n/a	n/a	n/a	10	n/a	n/a	n/a	n/a
1128889	REC_START	n/a	LTP343	ltpFR2	23	6	n/a	n/a	n/a	n/a	0	0	0
1129435	REC_WORD	wordpools/wasnorm_wordpool_576.txt	LTP343	ltpFR2	23	6	FOSSIL	596	n/a	n/a	0	0	0
1130634	REC_WORD	wordpools/wasnorm_wordpool_576.txt	LTP343	ltpFR2	23	6	ELK	526	n/a	n/a	0	0	0
1131427	REC_WORD	wordpools/wasnorm_wordpool_576.txt	LTP343	ltpFR2	23	6	SCISSORS	1250	n/a	n/a	0	0	0
1132589	REC_WORD	wordpools/wasnorm_wordpool_576.txt	LTP343	ltpFR2	23	6	BEAVER	109	n/a	n/a	0	0	0
1134990	REC_WORD	wordpools/wasnorm_wordpool_576.txt	LTP343	ltpFR2	23	6	EUROPE	541	n/a	n/a	0	0	0
1135867	REC_WORD	wordpools/wasnorm_wordpool_576.txt	LTP343	ltpFR2	23	6	LONDON	843	n/a	n/a	0	0	0
1136794	REC_WORD	wordpools/wasnorm_wordpool_576.txt	LTP343	ltpFR2	23	6	CIRCUS	311	n/a	n/a	0	0	0
1137889	REC_WORD	wordpools/wasnorm_wordpool_576.txt	LTP343	ltpFR2	23	6	ORANGE	980	n/a	n/a	0	0	0
1139171	REC_WORD	wordpools/wasnorm_wordpool_576.txt	LTP343	ltpFR2	23	6	SUNRISE	1407	n/a	n/a	0	0	0
1141771	REC_WORD	wordpools/wasnorm_wordpool_576.txt	LTP343	ltpFR2	23	6	CRICKET	408	n/a	n/a	0	0	0
1142523	REC_WORD	wordpools/wasnorm_wordpool_576.txt	LTP343	ltpFR2	23	6	COCOON	339	n/a	n/a	0	0	0
1144448	REC_WORD	wordpools/wasnorm_wordpool_576.txt	LTP343	ltpFR2	23	6	CRAB	397	n/a	n/a	0	0	0
1146747	REC_WORD	wordpools/wasnorm_wordpool_576.txt	LTP343	ltpFR2	23	6	EARRING	514	n/a	n/a	0	0	0
1161764	REC_WORD	wordpools/wasnorm_wordpool_576.txt	LTP343	ltpFR2	23	6	BLUEJAY	141	n/a	n/a	0	0	0
1162778	REC_WORD	wordpools/wasnorm_wordpool_576.txt	LTP343	ltpFR2	23	6	SUNRISE	1407	n/a	n/a	0	0	0
1164999	REC_WORD	wordpools/wasnorm_wordpool_576.txt	LTP343	ltpFR2	23	6	SHACK	1273	n/a	n/a	0	0	0
1219348	WORD	wordpools/wasnorm_wordpool_576.txt	LTP343	ltpFR2	23	7	ALMOND	18	n/a	n/a	0	0	0
1222090	WORD	wordpools/wasnorm_wordpool_576.txt	LTP343	ltpFR2	23	7	OATMEAL	967	n/a	n/a	0	0	0
1224849	WORD	wordpools/wasnorm_wordpool_576.txt	LTP343	ltpFR2	23	7	BASKET	95	n/a	n/a	0	0	0
1227307	WORD	wordpools/wasnorm_wordpool_576.txt	LTP343	ltpFR2	23	7	SLEEVE	1324	n/a	n/a	0	0	0
1229932	WORD	wordpools/wasnorm_wordpool_576.txt	LTP343	ltpFR2	23	7	HELMET	702	n/a	n/a	0	0	0
1232439	WORD	wordpools/wasnorm_wordpool_576.txt	LTP343	ltpFR2	23	7	FREEWAY	603	n/a	n/a	0	0	0
1235015	WORD	wordpools/wasnorm_wordpool_576.txt	LTP343	ltpFR2	23	7	CONCRETE	361	n/a	n/a	0	0	0
1237641	WORD	wordpools/wasnorm_wordpool_576.txt	LTP343	ltpFR2	23	7	MERMAID	887	n/a	n/a	0	0	0
1240349	WORD	wordpools/wasnorm_wordpool_576.txt	LTP343	ltpFR2	23	7	LOBSTER	837	n/a	n/a	0	0	0
1242958	WORD	wordpools/wasnorm_wordpool_576.txt	LTP343	ltpFR2	23	7	PARSLEY	1016	n/a	n/a	0	0	0
1245683	WORD	wordpools/wasnorm_wordpool_576.txt	LTP343	ltpFR2	23	7	FLASK	576	n/a	n/a	0	0	0
1248441	WORD	wordpools/wasnorm_wordpool_576.txt	LTP343	ltpFR2	23	7	SLACKS	1323	n/a	n/a	0	0	0
1251118	WORD	wordpools/wasnorm_wordpool_576.txt	LTP343	ltpFR2	23	7	COFFIN	342	n/a	n/a	0	0	0
1253927	WORD	wordpools/wasnorm_wordpool_576.txt	LTP343	ltpFR2	23	7	FROST	609	n/a	n/a	0	0	0
1256535	WORD	wordpools/wasnorm_wordpool_576.txt	LTP343	ltpFR2	23	7	BACKBONE	66	n/a	n/a	0	0	0
1259144	WORD	wordpools/wasnorm_wordpool_576.txt	LTP343	ltpFR2	23	7	MAILBOX	857	n/a	n/a	0	0	0
1261601	WORD	wordpools/wasnorm_wordpool_576.txt	LTP343	ltpFR2	23	7	KETTLE	772	n/a	n/a	0	0	0
1264327	WORD	wordpools/wasnorm_wordpool_576.txt	LTP343	ltpFR2	23	7	SAUCER	1237	n/a	n/a	0	0	0
1266752	WORD	wordpools/wasnorm_wordpool_576.txt	LTP343	ltpFR2	23	7	LAUNDRY	803	n/a	n/a	0	0	0
1269209	WORD	wordpools/wasnorm_wordpool_576.txt	LTP343	ltpFR2	23	7	WRIST	1626	n/a	n/a	0	0	0
1272019	WORD	wordpools/wasnorm_wordpool_576.txt	LTP343	ltpFR2	23	7	TUBA	1515	n/a	n/a	0	0	0
1274477	WORD	wordpools/wasnorm_wordpool_576.txt	LTP343	ltpFR2	23	7	STICKER	1382	n/a	n/a	0	0	0
1277235	WORD	wordpools/wasnorm_wordpool_576.txt	LTP343	ltpFR2	23	7	WALNUT	1584	n/a	n/a	0	0	0
1279861	WORD	wordpools/wasnorm_wordpool_576.txt	LTP343	ltpFR2	23	7	DOORBELL	487	n/a	n/a	0	0	0
1281466	START	n/a	LTP343	ltpFR2	23	n/a	n/a	n/a	11	n/a	n/a	n/a	n/a
1282292	DISTRACTOR	n/a	LTP343	ltpFR2	23	7	n/a	n/a	n/a	n/a	0	0	0
1282302	PROB	n/a	LTP343	ltpFR2	23	n/a	n/a	n/a	11	19	5	5	9
1283957	PROB	n/a	LTP343	ltpFR2	23	n/a	n/a	n/a	11	19	8	6	5
1285479	PROB	n/a	LTP343	ltpFR2	23	n/a	n/a	n/a	11	18	7	7	4
1286933	PROB	n/a	LTP343	ltpFR2	23	n/a	n/a	n/a	11	19	4	9	6
1288489	PROB	n/a	LTP343	ltpFR2	23	n/a	n/a	n/a	11	19	9	3	7
1289709	PROB	n/a	LTP343	ltpFR2	23	n/a	n/a	n/a	11	21	9	5	7
1291130	PROB	n/a	LTP343	ltpFR2	23	n/a	n/a	n/a	11	12	4	5	3
1292184	PROB	n/a	LTP343	ltpFR2	23	n/a	n/a	n/a	11	15	5	4	6
1294157	PROB	n/a	LTP343	ltpFR2	23	n/a	n/a	n/a	11	11	3	3	5
1295377	PROB	n/a	LTP343	ltpFR2	23	n/a	n/a	n/a	11	15	6	4	5
1296481	PROB	n/a	LTP343	ltpFR2	23	n/a	n/a	n/a	11	15	1	9	5
1297468	PROB	n/a	LTP343	ltpFR2	23	n/a	n/a	n/a	11	11	2	4	5
1299324	PROB	n/a	LTP343	ltpFR2	23	n/a	n/a	n/a	11	19	6	8	5
1300862	PROB	n/a	LTP343	ltpFR2	23	n/a	n/a	n/a	11	11	5	3	3
1302183	PROB	n/a	LTP343	ltpFR2	23	n/a	n/a	n/a	11	11	1	7	3
1303387	PROB	n/a	LTP343	ltpFR2	23	n/a	n/a	n/a	11	11	4	4	3
1304487	STOP	n/a	LTP343	ltpFR2	23	n/a	n/a	n/a	11	n/a	n/a	n/a	n/a
1307283	REC_START	n/a	LTP343	ltpFR2	23	7	n/a	n/a	n/a	n/a	0	0	0
1307603	REC_WORD	wordpools/wasnorm_wordpool_576.txt	LTP343	ltpFR2	23	7	LAUNDRY	803	n/a	n/a	0	0	0
1308563	REC_WORD	wordpools/wasnorm_wordpool_576.txt	LTP343	ltpFR2	23	7	WRIST	1626	n/a	n/a	0	0	0
1309521	REC_WORD	wordpools/wasnorm_wordpool_576.txt	LTP343	ltpFR2	23	7	TUBA	1515	n/a	n/a	0	0	0
1310303	REC_WORD	wordpools/wasnorm_wordpool_576.txt	LTP343	ltpFR2	23	7	STICKER	1382	n/a	n/a	0	0	0
1317809	REC_WORD	wordpools/wasnorm_wordpool_576.txt	LTP343	ltpFR2	23	7	SLEEVE	1324	n/a	n/a	0	0	0
1318866	REC_WORD	wordpools/wasnorm_wordpool_576.txt	LTP343	ltpFR2	23	7	HELMET	702	n/a	n/a	0	0	0
1322198	REC_WORD	wordpools/wasnorm_wordpool_576.txt	LTP343	ltpFR2	23	7	ALMOND	18	n/a	n/a	0	0	0
1323089	REC_WORD	wordpools/wasnorm_wordpool_576.txt	LTP343	ltpFR2	23	7	OATMEAL	967	n/a	n/a	0	0	0
1325507	REC_WORD	wordpools/wasnorm_wordpool_576.txt	LTP343	ltpFR2	23	7	BASKET	95	n/a	n/a	0	0	0
1332049	REC_WORD	wordpools/wasnorm_wordpool_576.txt	LTP343	ltpFR2	23	7	OUTLAW	989	n/a	n/a	0	0	0
1397742	WORD	wordpools/wasnorm_wordpool_576.txt	LTP343	ltpFR2	23	8	COUNTY	389	n/a	n/a	0	0	0
1400485	WORD	wordpools/wasnorm_wordpool_576.txt	LTP343	ltpFR2	23	8	CANAL	226	n/a	n/a	0	0	0
1403243	WORD	wordpools/wasnorm_wordpool_576.txt	LTP343	ltpFR2	23	8	MARINE	869	n/a	n/a	0	0	0
1405885	WORD	wordpools/wasnorm_wordpool_576.txt	LTP343	ltpFR2	23	8	LION	827	n/a	n/a	0	0	0
1408611	WORD	wordpools/wasnorm_wordpool_576.txt	LTP343	ltpFR2	23	8	BEAST	108	n/a	n/a	0	0	0
1411336	WORD	wordpools/wasnorm_wordpool_576.txt	LTP343	ltpFR2	23	8	GIRL	637	n/a	n/a	0	0	0
1413945	WORD	wordpools/wasnorm_wordpool_576.txt	LTP343	ltpFR2	23	8	SLUG	1329	n/a	n/a	0	0	0
1416419	WORD	wordpools/wasnorm_wordpool_576.txt	LTP343	ltpFR2	23	8	ANGEL	22	n/a	n/a	0	0	0
1418877	WORD	wordpools/wasnorm_wordpool_576.txt	LTP343	ltpFR2	23	8	MAILMAN	858	n/a	n/a	0	0	0
1421686	WORD	wordpools/wasnorm_wordpool_576.txt	LTP343	ltpFR2	23	8	SALT	1229	n/a	n/a	0	0	0
1424429	WORD	wordpools/wasnorm_wordpool_576.txt	LTP343	ltpFR2	23	8	BUGLE	189	n/a	n/a	0	0	0
1427171	WORD	wordpools/wasnorm_wordpool_576.txt	LTP343	ltpFR2	23	8	PLAZA	1088	n/a	n/a	0	0	0
1429863	WORD	wordpools/wasnorm_wordpool_576.txt	LTP343	ltpFR2	23	8	MONEY	908	n/a	n/a	0	0	0
1432471	WORD	wordpools/wasnorm_wordpool_576.txt	LTP343	ltpFR2	23	8	SOCKET	1340	n/a	n/a	0	0	0
1435197	WORD	wordpools/wasnorm_wordpool_576.txt	LTP343	ltpFR2	23	8	TEAPOT	1442	n/a	n/a	0	0	0
1437621	WORD	wordpools/wasnorm_wordpool_576.txt	LTP343	ltpFR2	23	8	JOINT	758	n/a	n/a	0	0	0
1440196	WORD	wordpools/wasnorm_wordpool_576.txt	LTP343	ltpFR2	23	8	HOOK	715	n/a	n/a	0	0	0
1442822	WORD	wordpools/wasnorm_wordpool_576.txt	LTP343	ltpFR2	23	8	PACKAGE	997	n/a	n/a	0	0	0
1445464	WORD	wordpools/wasnorm_wordpool_576.txt	LTP343	ltpFR2	23	8	GHETTO	633	n/a	n/a	0	0	0
1448039	WORD	wordpools/wasnorm_wordpool_576.txt	LTP343	ltpFR2	23	8	DAD	433	n/a	n/a	0	0	0
1450547	WORD	wordpools/wasnorm_wordpool_576.txt	LTP343	ltpFR2	23	8	SEAFOOD	1260	n/a	n/a	0	0	0
1453122	WORD	wordpools/wasnorm_wordpool_576.txt	LTP343	ltpFR2	23	8	SHRUB	1299	n/a	n/a	0	0	0
1455663	WORD	wordpools/wasnorm_wordpool_576.txt	LTP343	ltpFR2	23	8	BRIDE	173	n/a	n/a	0	0	0
1458355	WORD	wordpools/wasnorm_wordpool_576.txt	LTP343	ltpFR2	23	8	SOFA	1342	n/a	n/a	0	0	0
1459961	START	n/a	LTP343	ltpFR2	23	n/a	n/a	n/a	12	n/a	n/a	n/a	n/a
1460925	DISTRACTOR	n/a	LTP343	ltpFR2	23	8	n/a	n/a	n/a	n/a	0	0	0
1460930	PROB	n/a	LTP343	ltpFR2	23	n/a	n/a	n/a	12	23	8	7	7
1463037	PROB	n/a	LTP343	ltpFR2	23	n/a	n/a	n/a	12	21	5	9	7
1464709	PROB	n/a	LTP343	ltpFR2	23	n/a	n/a	n/a	12	20	8	4	8
1466682	PROB	n/a	LTP343	ltpFR2	23	n/a	n/a	n/a	12	12	3	8	1
1467752	PROB	n/a	LTP343	ltpFR2	23	n/a	n/a	n/a	12	10	3	1	6
1468956	PROB	n/a	LTP343	ltpFR2	23	n/a	n/a	n/a	12	16	3	8	5
1470528	PROB	n/a	LTP343	ltpFR2	23	n/a	n/a	n/a	12	18	4	9	5
1472284	PROB	n/a	LTP343	ltpFR2	23	n/a	n/a	n/a	12	15	7	2	6
1473371	PROB	n/a	LTP343	ltpFR2	23	n/a	n/a	n/a	12	23	8	8	7
1476196	PROB	n/a	LTP343	ltpFR2	23	n/a	n/a	n/a	12	13	1	7	5
1477283	PROB	n/a	LTP343	ltpFR2	23	n/a	n/a	n/a	12	20	6	6	8
1478654	PROB	n/a	LTP343	ltpFR2	23	n/a	n/a	n/a	12	20	7	4	9
1479925	PROB	n/a	LTP343	ltpFR2	23	n/a	n/a	n/a	12	15	7	2	6
1481012	PROB	n/a	LTP343	ltpFR2	23	n/a	n/a	n/a	12	11	4	2	5
1482166	PROB	n/a	LTP343	ltpFR2	23	n/a	n/a	n/a	12	8	2	3	3
1483324	STOP	n/a	LTP343	ltpFR2	23	n/a	n/a	n/a	12	n/a	n/a	n/a	n/a
1485694	REC_START	n/a	LTP343	ltpFR2	23	8	n/a	n/a	n/a	n/a	0	0	0
1486084	REC_WORD	wordpools/wasnorm_wordpool_576.txt	LTP343	ltpFR2	23	8	DAD	433	n/a	n/a	0	0	0
1486811	REC_WORD	wordpools/wasnorm_wordpool_576.txt	LTP343	ltpFR2	23	8	SEAFOOD	1260	n/a	n/a	0	0	0
1487815	REC_WORD	wordpools/wasnorm_wordpool_576.txt	LTP343	ltpFR2	23	8	SHRUB	1299	n/a	n/a	0	0	0
1554815	REC_WORD	wordpools/wasnorm_wordpool_576.txt	LTP343	ltpFR2	23	8	COUNTY	389	n/a	n/a	0	0	0
1555564	REC_WORD	wordpools/wasnorm_wordpool_576.txt	LTP343	ltpFR2	23	8	CANAL	226	n/a	n/a	0	0	0
1556466	REC_WORD	wordpools/wasnorm_wordpool_576.txt	LTP343	ltpFR2	23	8	MARINE	869	n/a	n/a	0	0	0
1557469	REC_WORD	wordpools/wasnorm_wordpool_576.txt	LTP343	ltpFR2	23	8	LION	827	n/a	n/a	0	0	0
1562225	REST_REWET	n/a	LTP343	ltpFR2	23	8	n/a	n/a	n/a	n/a	0	0	0
1811264	WORD	wordpools/wasnorm_wordpool_576.txt	LTP343	ltpFR2	23	9	BLENDER	136	n/a	n/a	0	0	0
1813689	WORD	wordpools/wasnorm_wordpool_576.txt	LTP343	ltpFR2	23	9	INMATE	738	n/a	n/a	0	0	0
1816481	WORD	wordpools/wasnorm_wordpool_576.txt	LTP343	ltpFR2	23	9	CATTLE	261	n/a	n/a	0	0	0
1819257	WORD	wordpools/wasnorm_wordpool_576.txt	LTP343	ltpFR2	23	9	PORK	1108	n/a	n/a	0	0	0
1821932	WORD	wordpools/wasnorm_wordpool_576.txt	LTP343	ltpFR2	23	9	TOMBSTONE	1478	n/a	n/a	0	0	0
1824691	WORD	wordpools/wasnorm_wordpool_576.txt	LTP343	ltpFR2	23	9	SHELF	1280	n/a	n/a	0	0	0
1827199	WORD	wordpools/wasnorm_wordpool_576.txt	LTP343	ltpFR2	23	9	LADY	794	n/a	n/a	0	0	0
1829808	WORD	wordpools/wasnorm_wordpool_576.txt	LTP343	ltpFR2	23	9	CABLE	213	n/a	n/a	0	0	0
1832333	WORD	wordpools/wasnorm_wordpool_576.txt	LTP343	ltpFR2	23	9	KIWI	781	n/a	n/a	0	0	0
1834991	WORD	wordpools/wasnorm_wordpool_576.txt	LTP343	ltpFR2	23	9	LIVER	833	n/a	n/a	0	0	0
1837433	WORD	wordpools/wasnorm_wordpool_576.txt	LTP343	ltpFR2	23	9	AUTHOR	61	n/a	n/a	0	0	0
1840141	WORD	wordpools/wasnorm_wordpool_576.txt	LTP343	ltpFR2	23	9	SCARF	1246	n/a	n/a	0	0	0
1842750	WORD	wordpools/wasnorm_wordpool_576.txt	LTP343	ltpFR2	23	9	PIZZA	1079	n/a	n/a	0	0	0
1845174	WORD	wordpools/wasnorm_wordpool_576.txt	LTP343	ltpFR2	23	9	DESSERT	453	n/a	n/a	0	0	0
1847649	WORD	wordpools/wasnorm_wordpool_576.txt	LTP343	ltpFR2	23	9	WATER	1594	n/a	n/a	0	0	0
1850308	WORD	wordpools/wasnorm_wordpool_576.txt	LTP343	ltpFR2	23	9	FAUCET	555	n/a	n/a	0	0	0
1852766	WORD	wordpools/wasnorm_wordpool_576.txt	LTP343	ltpFR2	23	9	PORTRAIT	1111	n/a	n/a	0	0	0
1855340	WORD	wordpools/wasnorm_wordpool_576.txt	LTP343	ltpFR2	23	9	FEATHER	557	n/a	n/a	0	0	0
1858116	WORD	wordpools/wasnorm_wordpool_576.txt	LTP343	ltpFR2	23	9	MONGOOSE	909	n/a	n/a	0	0	0
1860624	WORD	wordpools/wasnorm_wordpool_576.txt	LTP343	ltpFR2	23	9	COBWEB	337	n/a	n/a	0	0	0
1863266	WORD	wordpools/wasnorm_wordpool_576.txt	LTP343	ltpFR2	23	9	DUNGEON	507	n/a	n/a	0	0	0
1865824	WORD	wordpools/wasnorm_wordpool_576.txt	LTP343	ltpFR2	23	9	FIST	572	n/a	n/a	0	0	0
1868500	WORD	wordpools/wasnorm_wordpool_576.txt	LTP343	ltpFR2	23	9	DOG	480	n/a	n/a	0	0	0
1870958	WORD	wordpools/wasnorm_wordpool_576.txt	LTP343	ltpFR2	23	9	COUGAR	387	n/a	n/a	0	0	0
1872563	START	n/a	LTP343	ltpFR2	23	n/a	n/a	n/a	13	n/a	n/a	n/a	n/a
1873695	DISTRACTOR	n/a	LTP343	ltpFR2	23	9	n/a	n/a	n/a	n/a	0	0	0
1873700	PROB	n/a	LTP343	ltpFR2	23	n/a	n/a	n/a	13	18	8	5	5
1875556	PROB	n/a	LTP343	ltpFR2	23	n/a	n/a	n/a	13	19	9	7	6
1879434	PROB	n/a	LTP343	ltpFR2	23	n/a	n/a	n/a	13	11	1	1	9
1881174	PROB	n/a	LTP343	ltpFR2	23	n/a	n/a	n/a	13	17	1	8	8
1882529	PROB	n/a	LTP343	ltpFR2	23	n/a	n/a	n/a	13	15	1	5	9
1883783	PROB	n/a	LTP343	ltpFR2	23	n/a	n/a	n/a	13	18	8	8	2
1885254	PROB	n/a	LTP343	ltpFR2	23	n/a	n/a	n/a	13	14	4	8	2
1886725	PROB	n/a	LTP343	ltpFR2	23	n/a	n/a	n/a	13	15	4	4	7
1889334	PROB	n/a	LTP343	ltpFR2	23	n/a	n/a	n/a	13	15	1	6	8
1890555	PROB	n/a	LTP343	ltpFR2	23	n/a	n/a	n/a	13	22	8	7	7
1893966	PROB	n/a	LTP343	ltpFR2	23	n/a	n/a	n/a	13	15	8	3	4
1895264	STOP	n/a	LTP343	ltpFR2	23	n/a	n/a	n/a	13	n/a	n/a	n/a	n/a
1898314	REC_START	n/a	LTP343	ltpFR2	23	9	n/a	n/a	n/a	n/a	0	0	0
1898789	REC_WORD	wordpools/wasnorm_wordpool_576.txt	LTP343	ltpFR2	23	9	DUNGEON	507	n/a	n/a	0	0	0
1899459	REC_WORD	wordpools/wasnorm_wordpool_576.txt	LTP343	ltpFR2	23	9	FIST	572	n/a	n/a	0	0	0
1928947	REC_WORD	wordpools/wasnorm_wordpool_576.txt	LTP343	ltpFR2	23	9	LADY	794	n/a	n/a	0	0	0
1929883	REC_WORD	wordpools/wasnorm_wordpool_576.txt	LTP343	ltpFR2	23	9	STAND	-1	n/a	n/a	0	0	0
1931267	REC_WORD	wordpools/wasnorm_wordpool_576.txt	LTP343	ltpFR2	23	9	WATER	1594	n/a	n/a	0	0	0
1933088	REC_WORD	wordpools/wasnorm_wordpool_576.txt	LTP343	ltpFR2	23	9	PIZZA	1079	n/a	n/a	0	0	0
1933860	REC_WORD	wordpools/wasnorm_wordpool_576.txt	LTP343	ltpFR2	23	9	DESSERT	453	n/a	n/a	0	0	0
1934793	REC_WORD	wordpools/wasnorm_wordpool_576.txt	LTP343	ltpFR2	23	9	LIVER	833	n/a	n/a	0	0	0
1935631	REC_WORD	wordpools/wasnorm_wordpool_576.txt	LTP343	ltpFR2	23	9	SCARF	1246	n/a	n/a	0	0	0
1941822	REC_WORD	wordpools/wasnorm_wordpool_576.txt	LTP343	ltpFR2	23	9	BLENDER	136	n/a	n/a	0	0	0
1943400	REC_WORD	wordpools/wasnorm_wordpool_576.txt	LTP343	ltpFR2	23	9	MEAT	883	n/a	n/a	0	0	0
1988773	WORD	wordpools/wasnorm_wordpool_576.txt	LTP343	ltpFR2	23	10	CRUTCH	417	n/a	n/a	0	0	0
1991415	WORD	wordpools/wasnorm_wordpool_576.txt	LTP343	ltpFR2	23	10	DRIVEWAY	500	n/a	n/a	0	0	0
1993939	WORD	wordpools/wasnorm_wordpool_576.txt	LTP343	ltpFR2	23	10	PORCH	1106	n/a	n/a	0	0	0
1996748	WORD	wordpools/wasnorm_wordpool_576.txt	LTP343	ltpFR2	23	10	LILY	821	n/a	n/a	0	0	0
1999307	WORD	wordpools/wasnorm_wordpool_576.txt	LTP343	ltpFR2	23	10	HEART	697	n/a	n/a	0	0	0
2001865	WORD	wordpools/wasnorm_wordpool_576.txt	LTP343	ltpFR2	23	10	SERVANT	1271	n/a	n/a	0	0	0
2004323	WORD	wordpools/wasnorm_wordpool_576.txt	LTP343	ltpFR2	23	10	BANDAGE	79	n/a	n/a	0	0	0
2006948	WORD	wordpools/wasnorm_wordpool_576.txt	LTP343	ltpFR2	23	10	JOURNAL	760	n/a	n/a	0	0	0
2009724	WORD	wordpools/wasnorm_wordpool_576.txt	LTP343	ltpFR2	23	10	SCRIBBLE	1256	n/a	n/a	0	0	0
2012349	WORD	wordpools/wasnorm_wordpool_576.txt	LTP343	ltpFR2	23	10	GRAPE	654	n/a	n/a	0	0	0
2014840	WORD	wordpools/wasnorm_wordpool_576.txt	LTP343	ltpFR2	23	10	SHEARS	1276	n/a	n/a	0	0	0
2017298	WORD	wordpools/wasnorm_wordpool_576.txt	LTP343	ltpFR2	23	10	PROTON	1132	n/a	n/a	0	0	0
2020074	WORD	wordpools/wasnorm_wordpool_576.txt	LTP343	ltpFR2	23	10	ATOM	55	n/a	n/a	0	0	0
2022599	WORD	wordpools/wasnorm_wordpool_576.txt	LTP343	ltpFR2	23	10	BOULDER	155	n/a	n/a	0	0	0
2025057	WORD	wordpools/wasnorm_wordpool_576.txt	LTP343	ltpFR2	23	10	MILDEW	893	n/a	n/a	0	0	0
2027749	WORD	wordpools/wasnorm_wordpool_576.txt	LTP343	ltpFR2	23	10	CASTLE	256	n/a	n/a	0	0	0
2030508	WORD	wordpools/wasnorm_wordpool_576.txt	LTP343	ltpFR2	23	10	BUILDER	190	n/a	n/a	0	0	0
2033083	WORD	wordpools/wasnorm_wordpool_576.txt	LTP343	ltpFR2	23	10	MARBLE	867	n/a	n/a	0	0	0
2035691	WORD	wordpools/wasnorm_wordpool_576.txt	LTP343	ltpFR2	23	10	MONARCH	906	n/a	n/a	0	0	0
2038283	WORD	wordpools/wasnorm_wordpool_576.txt	LTP343	ltpFR2	23	10	JEANS	752	n/a	n/a	0	0	0
2040841	WORD	wordpools/wasnorm_wordpool_576.txt	LTP343	ltpFR2	23	10	SKIRT	1319	n/a	n/a	0	0	0
2043600	WORD	wordpools/wasnorm_wordpool_576.txt	LTP343	ltpFR2	23	10	SATURN	1236	n/a	n/a	0	0	0
2046309	WORD	wordpools/wasnorm_wordpool_576.txt	LTP343	ltpFR2	23	10	SAND	1230	n/a	n/a	0	0	0
2048934	WORD	wordpools/wasnorm_wordpool_576.txt	LTP343	ltpFR2	23	10	WAIST	1579	n/a	n/a	0	0	0
2050540	START	n/a	LTP343	ltpFR2	23	n/a	n/a	n/a	14	n/a	n/a	n/a	n/a
2051597	DISTRACTOR	n/a	LTP343	ltpFR2	23	10	n/a	n/a	n/a	n/a	0	0	0
2051609	PROB	n/a	LTP343	ltpFR2	23	n/a	n/a	n/a	14	15	4	5	6
2053231	PROB	n/a	LTP343	ltpFR2	23	n/a	n/a	n/a	14	7	2	3	2
2054451	PROB	n/a	LTP343	ltpFR2	23	n/a	n/a	n/a	14	20	3	9	8
2056074	PROB	n/a	LTP343	ltpFR2	23	n/a	n/a	n/a	14	7	2	1	4
2057077	PROB	n/a	LTP343	ltpFR2	23	n/a	n/a	n/a	14	11	8	2	1
2058164	PROB	n/a	LTP343	ltpFR2	23	n/a	n/a	n/a	14	21	9	4	8
2059702	PROB	n/a	LTP343	ltpFR2	23	n/a	n/a	n/a	14	13	3	4	6
2061073	PROB	n/a	LTP343	ltpFR2	23	n/a	n/a	n/a	14	20	3	9	8
2063464	PROB	n/a	LTP343	ltpFR2	23	n/a	n/a	n/a	14	13	9	2	2
2065019	PROB	n/a	LTP343	ltpFR2	23	n/a	n/a	n/a	14	16	1	9	6
2066073	PROB	n/a	LTP343	ltpFR2	23	n/a	n/a	n/a	14	20	7	5	8
2067327	PROB	n/a	LTP343	ltpFR2	23	n/a	n/a	n/a	14	16	5	5	6
2068414	PROB	n/a	LTP343	ltpFR2	23	n/a	n/a	n/a	14	21	8	6	7
2070153	PROB	n/a	LTP343	ltpFR2	23	n/a	n/a	n/a	14	11	3	2	6
2071256	PROB	n/a	LTP343	ltpFR2	23	n/a	n/a	n/a	14	12	1	4	7
2072527	PROB	n/a	LTP343	ltpFR2	23	n/a	n/a	n/a	14	24	9	8	7
2074141	STOP	n/a	LTP343	ltpFR2	23	n/a	n/a	n/a	14	n/a	n/a	n/a	n/a
2076390	REC_START	n/a	LTP343	ltpFR2	23	10	n/a	n/a	n/a	n/a	0	0	0
2076660	REC_WORD	wordpools/wasnorm_wordpool_576.txt	LTP343	ltpFR2	23	10	ATOM	55	n/a	n/a	0	0	0
2077549	REC_WORD	wordpools/wasnorm_wordpool_576.txt	LTP343	ltpFR2	23	10	CASTLE	256	n/a	n/a	0	0	0
2078489	REC_WORD	wordpools/wasnorm_wordpool_576.txt	LTP343	ltpFR2	23	10	MONARCH	906	n/a	n/a	0	0	0
2079477	REC_WORD	wordpools/wasnorm_wordpool_576.txt	LTP343	ltpFR2	23	10	JEANS	752	n/a	n/a	0	0	0
2090873	REC_WORD	wordpools/wasnorm_wordpool_576.txt	LTP343	ltpFR2	23	10	SAND	1230	n/a	n/a	0	0	0
2096977	REC_WORD	wordpools/wasnorm_wordpool_576.txt	LTP343	ltpFR2	23	10	BOULDER	155	n/a	n/a	0	0	0
2118514	REC_WORD	wordpools/wasnorm_wordpool_576.txt	LTP343	ltpFR2	23	10	CREVICE	405	n/a	n/a	0	0	0
2166832	DISTRACTOR	n/a	LTP343	ltpFR2	23	11	n/a	n/a	n/a	n/a	0	0	0
2166833	START	n/a	LTP343	ltpFR2	23	n/a	n/a	n/a	15	n/a	n/a	n/a	n/a
2166849	PROB	n/a	LTP343	ltpFR2	23	n/a	n/a	n/a	15	19	9	2	8
2168789	PROB	n/a	LTP343	ltpFR2	23	n/a	n/a	n/a	15	12	3	7	2
2169842	PROB	n/a	LTP343	ltpFR2	23	n/a	n/a	n/a	15	10	4	3	3
2171297	PROB	n/a	LTP343	ltpFR2	23	n/a	n/a	n/a	15	7	2	1	4
2172450	PROB	n/a	LTP343	ltpFR2	23	n/a	n/a	n/a	15	15	8	2	5
2174006	PROB	n/a	LTP343	ltpFR2	23	n/a	n/a	n/a	15	14	4	6	4
2175260	PROB	n/a	LTP343	ltpFR2	23	n/a	n/a	n/a	15	12	5	1	6
2176698	PROB	n/a	LTP343	ltpFR2	23	n/a	n/a	n/a	15	15	4	7	4
2177718	PROB	n/a	LTP343	ltpFR2	23	n/a	n/a	n/a	15	22	6	7	9
2179206	PROB	n/a	LTP343	ltpFR2	23	n/a	n/a	n/a	15	11	2	8	1
2180192	PROB	n/a	LTP343	ltpFR2	23	n/a	n/a	n/a	15	16	3	5	8
2181296	PROB	n/a	LTP343	ltpFR2	23	n/a	n/a	n/a	15	14	1	8	5
2182751	PROB	n/a	LTP343	ltpFR2	23	n/a	n/a	n/a	15	16	7	6	3
2183888	PROB	n/a	LTP343	ltpFR2	23	n/a	n/a	n/a	15	16	5	7	4
2184991	PROB	n/a	LTP343	ltpFR2	23	n/a	n/a	n/a	15	17	6	5	6
2186881	PROB	n/a	LTP343	ltpFR2	23	n/a	n/a	n/a	15	14	6	6	2
2188068	PROB	n/a	LTP343	ltpFR2	23	n/a	n/a	n/a	15	11	3	5	3
2189121	PROB	n/a	LTP343	ltpFR2	23	n/a	n/a	n/a	15	18	4	8	6
2190216	STOP	n/a	LTP343	ltpFR2	23	n/a	n/a	n/a	15	n/a	n/a	n/a	n/a
2191947	WORD	wordpools/wasnorm_wordpool_576.txt	LTP343	ltpFR2	23	11	ARMY	39	n/a	n/a	0	0	0
2194656	WORD	wordpools/wasnorm_wordpool_576.txt	LTP343	ltpFR2	23	11	WINGS	1614	n/a	n/a	0	0	0
2197415	WORD	wordpools/wasnorm_wordpool_576.txt	LTP343	ltpFR2	23	11	PAVEMENT	1028	n/a	n/a	0	0	0
2199923	WORD	wordpools/wasnorm_wordpool_576.txt	LTP343	ltpFR2	23	11	RAFT	1159	n/a	n/a	0	0	0
2202398	WORD	wordpools/wasnorm_wordpool_576.txt	LTP343	ltpFR2	23	11	ROCKET	1202	n/a	n/a	0	0	0
2204956	WORD	wordpools/wasnorm_wordpool_576.txt	LTP343	ltpFR2	23	11	BRIDGE	174	n/a	n/a	0	0	0
2207715	WORD	wordpools/wasnorm_wordpool_576.txt	LTP343	ltpFR2	23	11	FEMALE	559	n/a	n/a	0	0	0
2210490	WORD	wordpools/wasnorm_wordpool_576.txt	LTP343	ltpFR2	23	11	DRUG	501	n/a	n/a	0	0	0
2213032	WORD	wordpools/wasnorm_wordpool_576.txt	LTP343	ltpFR2	23	11	CITRUS	313	n/a	n/a	0	0	0
2215473	WORD	wordpools/wasnorm_wordpool_576.txt	LTP343	ltpFR2	23	11	PLATE	1086	n/a	n/a	0	0	0
2218048	WORD	wordpools/wasnorm_wordpool_576.txt	LTP343	ltpFR2	23	11	EAGLE	512	n/a	n/a	0	0	0
2220657	WORD	wordpools/wasnorm_wordpool_576.txt	LTP343	ltpFR2	23	11	GIRAFFE	636	n/a	n/a	0	0	0
2223432	WORD	wordpools/wasnorm_wordpool_576.txt	LTP343	ltpFR2	23	11	FARM	552	n/a	n/a	0	0	0
2226057	WORD	wordpools/wasnorm_wordpool_576.txt	LTP343	ltpFR2	23	11	GLACIER	638	n/a	n/a	0	0	0
2228783	WORD	wordpools/wasnorm_wordpool_576.txt	LTP343	ltpFR2	23	11	ANCHOR	21	n/a	n/a	0	0	0
2231274	WORD	wordpools/wasnorm_wordpool_576.txt	LTP343	ltpFR2	23	11	HOSTAGE	722	n/a	n/a	0	0	0
2233900	WORD	wordpools/wasnorm_wordpool_576.txt	LTP343	ltpFR2	23	11	FLEET	578	n/a	n/a	0	0	0
2236341	WORD	wordpools/wasnorm_wordpool_576.txt	LTP343	ltpFR2	23	11	BUSH	202	n/a	n/a	0	0	0
2238932	WORD	wordpools/wasnorm_wordpool_576.txt	LTP343	ltpFR2	23	11	FRUIT	610	n/a	n/a	0	0	0
2241591	WORD	wordpools/wasnorm_wordpool_576.txt	LTP343	ltpFR2	23	11	PASTA	1021	n/a	n/a	0	0	0
2244133	WORD	wordpools/wasnorm_wordpool_576.txt	LTP343	ltpFR2	23	11	SUPPER	1411	n/a	n/a	0	0	0
2246641	WORD	wordpools/wasnorm_wordpool_576.txt	LTP343	ltpFR2	23	11	LEMON	810	n/a	n/a	0	0	0
2249166	WORD	wordpools/wasnorm_wordpool_576.txt	LTP343	ltpFR2	23	11	SKATE	1313	n/a	n/a	0	0	0
2251908	WORD	wordpools/wasnorm_wordpool_576.txt	LTP343	ltpFR2	23	11	DART	440	n/a	n/a	0	0	0
2253513	START	n/a	LTP343	ltpFR2	23	n/a	n/a	n/a	16	n/a	n/a	n/a	n/a
2254677	DISTRACTOR	n/a	LTP343	ltpFR2	23	11	n/a	n/a	n/a	n/a	0	0	0
2254684	PROB	n/a	LTP343	ltpFR2	23	n/a	n/a	n/a	16	20	6	6	8
2256523	PROB	n/a	LTP343	ltpFR2	23	n/a	n/a	n/a	16	15	1	6	8
2258128	PROB	n/a	LTP343	ltpFR2	23	n/a	n/a	n/a	16	7	1	2	4
2259181	PROB	n/a	LTP343	ltpFR2	23	n/a	n/a	n/a	16	14	2	6	6
2260653	PROB	n/a	LTP343	ltpFR2	23	n/a	n/a	n/a	16	11	1	2	8
2261639	PROB	n/a	LTP343	ltpFR2	23	n/a	n/a	n/a	16	17	6	2	9
2263111	PROB	n/a	LTP343	ltpFR2	23	n/a	n/a	n/a	16	18	8	5	5
2264181	PROB	n/a	LTP343	ltpFR2	23	n/a	n/a	n/a	16	16	4	4	8
2265703	PROB	n/a	LTP343	ltpFR2	23	n/a	n/a	n/a	16	6	2	1	3
2266773	PROB	n/a	LTP343	ltpFR2	23	n/a	n/a	n/a	16	16	1	9	6
2267893	PROB	n/a	LTP343	ltpFR2	23	n/a	n/a	n/a	16	14	1	4	9
2269766	PROB	n/a	LTP343	ltpFR2	23	n/a	n/a	n/a	16	24	9	9	6
2271070	PROB	n/a	LTP343	ltpFR2	23	n/a	n/a	n/a	16	16	9	6	1
2272474	PROB	n/a	LTP343	ltpFR2	23	n/a	n/a	n/a	16	20	6	8	6
2275116	PROB	n/a	LTP343	ltpFR2	23	n/a	n/a	n/a	16	20	5	6	9
2276530	STOP	n/a	LTP343	ltpFR2	23	n/a	n/a	n/a	16	n/a	n/a	n/a	n/a
2279347	REC_START	n/a	LTP343	ltpFR2	23	11	n/a	n/a	n/a	n/a	0	0	0
2279666	REC_WORD	wordpools/wasnorm_wordpool_576.txt	LTP343	ltpFR2	23	11	HOSTAGE	722	n/a	n/a	0	0	0
2280458	REC_WORD	wordpools/wasnorm_wordpool_576.txt	LTP343	ltpFR2	23	11	FLEET	578	n/a	n/a	0	0	0
2284360	REC_WORD	wordpools/wasnorm_wordpool_576.txt	LTP343	ltpFR2	23	11	RAFT	1159	n/a	n/a	0	0	0
2285214	REC_WORD	wordpools/wasnorm_wordpool_576.txt	LTP343	ltpFR2	23	11	WOMAN	1620	n/a	n/a	0	0	0
2369790	DISTRACTOR	n/a	LTP343	ltpFR2	23	12	n/a	n/a	n/a	n/a	0	0	0
2369790	START	n/a	LTP343	ltpFR2	23	n/a	n/a	n/a	17	n/a	n/a	n/a	n/a
2369806	PROB	n/a	LTP343	ltpFR2	23	n/a	n/a	n/a	17	9	3	4	2
2371512	PROB	n/a	LTP343	ltpFR2	23	n/a	n/a	n/a	17	18	1	8	9
2372766	PROB	n/a	LTP343	ltpFR2	23	n/a	n/a	n/a	17	9	2	5	2
2373819	PROB	n/a	LTP343	ltpFR2	23	n/a	n/a	n/a	17	18	6	3	9
2375207	PROB	n/a	LTP343	ltpFR2	23	n/a	n/a	n/a	17	22	8	4	9
2376712	PROB	n/a	LTP343	ltpFR2	23	n/a	n/a	n/a	17	20	8	9	3
2378183	PROB	n/a	LTP343	ltpFR2	23	n/a	n/a	n/a	17	15	3	6	6
2379387	PROB	n/a	LTP343	ltpFR2	23	n/a	n/a	n/a	17	14	8	2	4
2380491	PROB	n/a	LTP343	ltpFR2	23	n/a	n/a	n/a	17	13	1	9	3
2381745	PROB	n/a	LTP343	ltpFR2	23	n/a	n/a	n/a	17	13	2	4	7
2383116	PROB	n/a	LTP343	ltpFR2	23	n/a	n/a	n/a	17	18	5	5	8
2384220	PROB	n/a	LTP343	ltpFR2	23	n/a	n/a	n/a	17	23	9	5	9
2386042	PROB	n/a	LTP343	ltpFR2	23	n/a	n/a	n/a	17	10	3	4	3
2387146	PROB	n/a	LTP343	ltpFR2	23	n/a	n/a	n/a	17	24	9	9	6
2388433	PROB	n/a	LTP343	ltpFR2	23	n/a	n/a	n/a	17	21	7	8	6
2391209	PROB	n/a	LTP343	ltpFR2	23	n/a	n/a	n/a	17	7	5	1	1
2393790	STOP	n/a	LTP343	ltpFR2	23	n/a	n/a	n/a	17	n/a	n/a	n/a	n/a
2394754	WORD	wordpools/wasnorm_wordpool_576.txt	LTP343	ltpFR2	23	12	PLUM	1090	n/a	n/a	0	0	0
2397546	WORD	wordpools/wasnorm_wordpool_576.txt	LTP343	ltpFR2	23	12	BAKER	71	n/a	n/a	0	0	0
2400071	WORD	wordpools/wasnorm_wordpool_576.txt	LTP343	ltpFR2	23	12	VESSEL	1558	n/a	n/a	0	0	0
2402847	WORD	wordpools/wasnorm_wordpool_576.txt	LTP343	ltpFR2	23	12	DONOR	485	n/a	n/a	0	0	0
2405388	WORD	wordpools/wasnorm_wordpool_576.txt	LTP343	ltpFR2	23	12	BRANDY	169	n/a	n/a	0	0	0
2407963	WORD	wordpools/wasnorm_wordpool_576.txt	LTP343	ltpFR2	23	12	CHAMPAGNE	278	n/a	n/a	0	0	0
2410454	WORD	wordpools/wasnorm_wordpool_576.txt	LTP343	ltpFR2	23	12	COOKBOOK	373	n/a	n/a	0	0	0
2413180	WORD	wordpools/wasnorm_wordpool_576.txt	LTP343	ltpFR2	23	12	FLESH	579	n/a	n/a	0	0	0
2415939	WORD	wordpools/wasnorm_wordpool_576.txt	LTP343	ltpFR2	23	12	PIGEON	1065	n/a	n/a	0	0	0
2418397	WORD	wordpools/wasnorm_wordpool_576.txt	LTP343	ltpFR2	23	12	SHRIMP	1297	n/a	n/a	0	0	0
2420905	WORD	wordpools/wasnorm_wordpool_576.txt	LTP343	ltpFR2	23	12	SNORKEL	1336	n/a	n/a	0	0	0
2423547	WORD	wordpools/wasnorm_wordpool_576.txt	LTP343	ltpFR2	23	12	PIMPLE	1071	n/a	n/a	0	0	0
2426356	WORD	wordpools/wasnorm_wordpool_576.txt	LTP343	ltpFR2	23	12	FRECKLE	602	n/a	n/a	0	0	0
2428964	WORD	wordpools/wasnorm_wordpool_576.txt	LTP343	ltpFR2	23	12	TOOTHPASTE	1483	n/a	n/a	0	0	0
2431556	WORD	wordpools/wasnorm_wordpool_576.txt	LTP343	ltpFR2	23	12	AIRPLANE	12	n/a	n/a	0	0	0
2434348	WORD	wordpools/wasnorm_wordpool_576.txt	LTP343	ltpFR2	23	12	DRIVER	499	n/a	n/a	0	0	0
2437124	WORD	wordpools/wasnorm_wordpool_576.txt	LTP343	ltpFR2	23	12	STUMP	1396	n/a	n/a	0	0	0
2439683	WORD	wordpools/wasnorm_wordpool_576.txt	LTP343	ltpFR2	23	12	TRUMPET	1513	n/a	n/a	0	0	0
2442274	WORD	wordpools/wasnorm_wordpool_576.txt	LTP343	ltpFR2	23	12	TOOTHBRUSH	1482	n/a	n/a	0	0	0
2444849	WORD	wordpools/wasnorm_wordpool_576.txt	LTP343	ltpFR2	23	12	RUBY	1214	n/a	n/a	0	0	0
2447642	WORD	wordpools/wasnorm_wordpool_576.txt	LTP343	ltpFR2	23	12	FILM	565	n/a	n/a	0	0	0
2450384	WORD	wordpools/wasnorm_wordpool_576.txt	LTP343	ltpFR2	23	12	WOLF	1619	n/a	n/a	0	0	0
2453126	WORD	wordpools/wasnorm_wordpool_576.txt	LTP343	ltpFR2	23	12	NEPHEW	942	n/a	n/a	0	0	0
2455818	WORD	wordpools/wasnorm_wordpool_576.txt	LTP343	ltpFR2	23	12	STOVE	1388	n/a	n/a	0	0	0
2457423	START	n/a	LTP343	ltpFR2	23	n/a	n/a	n/a	18	n/a	n/a	n/a	n/a
2458451	DISTRACTOR	n/a	LTP343	ltpFR2	23	12	n/a	n/a	n/a	n/a	0	0	0
2458460	PROB	n/a	LTP343	ltpFR2	23	n/a	n/a	n/a	18	17	8	8	1
2460199	PROB	n/a	LTP343	ltpFR2	23	n/a	n/a	n/a	18	19	7	3	9
2461302	PROB	n/a	LTP343	ltpFR2	23	n/a	n/a	n/a	18	22	6	8	7
2462740	PROB	n/a	LTP343	ltpFR2	23	n/a	n/a	n/a	18	13	2	4	7
2463928	PROB	n/a	LTP343	ltpFR2	23	n/a	n/a	n/a	18	8	1	2	5
2464981	PROB	n/a	LTP343	ltpFR2	23	n/a	n/a	n/a	18	11	5	1	5
2466118	PROB	n/a	LTP343	ltpFR2	23	n/a	n/a	n/a	18	16	6	2	9
2470231	PROB	n/a	LTP343	ltpFR2	23	n/a	n/a	n/a	18	14	2	9	3
2472271	PROB	n/a	LTP343	ltpFR2	23	n/a	n/a	n/a	18	18	9	5	4
2474495	PROB	n/a	LTP343	ltpFR2	23	n/a	n/a	n/a	18	8	3	3	2
2475950	PROB	n/a	LTP343	ltpFR2	23	n/a	n/a	n/a	18	18	9	2	7
2477054	PROB	n/a	LTP343	ltpFR2	23	n/a	n/a	n/a	18	12	1	2	9
2478391	PROB	n/a	LTP343	ltpFR2	23	n/a	n/a	n/a	18	16	5	9	2
2480504	STOP	n/a	LTP343	ltpFR2	23	n/a	n/a	n/a	18	n/a	n/a	n/a	n/a
2483326	REC_START	n/a	LTP343	ltpFR2	23	12	n/a	n/a	n/a	n/a	0	0	0
2483619	REC_WORD	wordpools/wasnorm_wordpool_576.txt	LTP343	ltpFR2	23	12	TOOTHPASTE	1483	n/a	n/a	0	0	0
2484449	REC_WORD	wordpools/wasnorm_wordpool_576.txt	LTP343	ltpFR2	23	12	TOOTHBRUSH	1482	n/a	n/a	0	0	0
2485267	REC_WORD	wordpools/wasnorm_wordpool_576.txt	LTP343	ltpFR2	23	12	RUBY	1214	n/a	n/a	0	0	0
2487697	REC_WORD	wordpools/wasnorm_wordpool_576.txt	LTP343	ltpFR2	23	12	STOVE	1388	n/a	n/a	0	0	0
2489600	REC_WORD	wordpools/wasnorm_wordpool_576.txt	LTP343	ltpFR2	23	12	BAKER	71	n/a	n/a	0	0	0
2491014	REC_WORD	wordpools/wasnorm_wordpool_576.txt	LTP343	ltpFR2	23	12	PLUM	1090	n/a	n/a	0	0	0
2493859	REC_WORD	wordpools/wasnorm_wordpool_576.txt	LTP343	ltpFR2	23	12	BRANDY	169	n/a	n/a	0	0	0
2494632	REC_WORD	wordpools/wasnorm_wordpool_576.txt	LTP343	ltpFR2	23	12	CHAMPAGNE	278	n/a	n/a	0	0	0
2496365	REC_WORD	wordpools/wasnorm_wordpool_576.txt	LTP343	ltpFR2	23	12	COOKBOOK	373	n/a	n/a	0	0	0
2498318	REC_WORD	wordpools/wasnorm_wordpool_576.txt	LTP343	ltpFR2	23	12	VESSEL	1558	n/a	n/a	0	0	0
2499315	REC_WORD	wordpools/wasnorm_wordpool_576.txt	LTP343	ltpFR2	23	12	PIMPLE	1071	n/a	n/a	0	0	0
2500177	REC_WORD	wordpools/wasnorm_wordpool_576.txt	LTP343	ltpFR2	23	12	FRECKLE	602	n/a	n/a	0	0	0
2501186	REC_WORD	wordpools/wasnorm_wordpool_576.txt	LTP343	ltpFR2	23	12	SNORKEL	1336	n/a	n/a	0	0	0
2507068	REC_WORD	wordpools/wasnorm_wordpool_576.txt	LTP343	ltpFR2	23	12	FLESH	579	n/a	n/a	0	0	0
2508151	REC_WORD	wordpools/wasnorm_wordpool_576.txt	LTP343	ltpFR2	23	12	PIGEON	1065	n/a	n/a	0	0	0
2509012	REC_WORD	wordpools/wasnorm_wordpool_576.txt	LTP343	ltpFR2	23	12	SHRIMP	1297	n/a	n/a	0	0	0
2573767	DISTRACTOR	n/a	LTP343	ltpFR2	23	13	n/a	n/a	n/a	n/a	0	0	0
2573767	START	n/a	LTP343	ltpFR2	23	n/a	n/a	n/a	19	n/a	n/a	n/a	n/a
2573783	PROB	n/a	LTP343	ltpFR2	23	n/a	n/a	n/a	19	23	7	9	7
2576158	PROB	n/a	LTP343	ltpFR2	23	n/a	n/a	n/a	19	16	2	9	5
2577345	PROB	n/a	LTP343	ltpFR2	23	n/a	n/a	n/a	19	14	4	1	9
2578616	PROB	n/a	LTP343	ltpFR2	23	n/a	n/a	n/a	19	14	3	4	7
2579769	PROB	n/a	LTP343	ltpFR2	23	n/a	n/a	n/a	19	18	8	1	9
2580990	PROB	n/a	LTP343	ltpFR2	23	n/a	n/a	n/a	19	18	6	3	9
2582077	PROB	n/a	LTP343	ltpFR2	23	n/a	n/a	n/a	19	9	1	3	5
2583214	PROB	n/a	LTP343	ltpFR2	23	n/a	n/a	n/a	19	10	2	4	4
2584535	PROB	n/a	LTP343	ltpFR2	23	n/a	n/a	n/a	19	18	4	9	5
2586040	PROB	n/a	LTP343	ltpFR2	23	n/a	n/a	n/a	19	11	5	5	1
2587143	PROB	n/a	LTP343	ltpFR2	23	n/a	n/a	n/a	19	16	8	5	3
2588464	PROB	n/a	LTP343	ltpFR2	23	n/a	n/a	n/a	19	8	1	1	6
2589417	PROB	n/a	LTP343	ltpFR2	23	n/a	n/a	n/a	19	19	7	3	9
2590487	PROB	n/a	LTP343	ltpFR2	23	n/a	n/a	n/a	19	19	5	5	9
2591439	PROB	n/a	LTP343	ltpFR2	23	n/a	n/a	n/a	19	2	6	9	7
2592828	PROB	n/a	LTP343	ltpFR2	23	n/a	n/a	n/a	19	7	2	2	3
2594484	PROB	n/a	LTP343	ltpFR2	23	n/a	n/a	n/a	19	19	6	9	4
2596291	STOP	n/a	LTP343	ltpFR2	23	n/a	n/a	n/a	19	n/a	n/a	n/a	n/a
2598614	WORD	wordpools/wasnorm_wordpool_576.txt	LTP343	ltpFR2	23	13	BODY	145	n/a	n/a	0	0	0
2601105	WORD	wordpools/wasnorm_wordpool_576.txt	LTP343	ltpFR2	23	13	TUNNEL	1519	n/a	n/a	0	0	0
2603563	WORD	wordpools/wasnorm_wordpool_576.txt	LTP343	ltpFR2	23	13	PLAQUE	1084	n/a	n/a	0	0	0
2606172	WORD	wordpools/wasnorm_wordpool_576.txt	LTP343	ltpFR2	23	13	ROBBER	1197	n/a	n/a	0	0	0
2608830	WORD	wordpools/wasnorm_wordpool_576.txt	LTP343	ltpFR2	23	13	BISCUIT	130	n/a	n/a	0	0	0
2611271	WORD	wordpools/wasnorm_wordpool_576.txt	LTP343	ltpFR2	23	13	PISTOL	1075	n/a	n/a	0	0	0
2613880	WORD	wordpools/wasnorm_wordpool_576.txt	LTP343	ltpFR2	23	13	CLAM	315	n/a	n/a	0	0	0
2616354	WORD	wordpools/wasnorm_wordpool_576.txt	LTP343	ltpFR2	23	13	SCALLOP	1242	n/a	n/a	0	0	0
2619113	WORD	wordpools/wasnorm_wordpool_576.txt	LTP343	ltpFR2	23	13	THIEF	1456	n/a	n/a	0	0	0
2621588	WORD	wordpools/wasnorm_wordpool_576.txt	LTP343	ltpFR2	23	13	CYCLONE	431	n/a	n/a	0	0	0
2624364	WORD	wordpools/wasnorm_wordpool_576.txt	LTP343	ltpFR2	23	13	LAGOON	795	n/a	n/a	0	0	0
2627173	WORD	wordpools/wasnorm_wordpool_576.txt	LTP343	ltpFR2	23	13	MARROW	872	n/a	n/a	0	0	0
2629831	WORD	wordpools/wasnorm_wordpool_576.txt	LTP343	ltpFR2	23	13	ISLAND	745	n/a	n/a	0	0	0
2632289	WORD	wordpools/wasnorm_wordpool_576.txt	LTP343	ltpFR2	23	13	BATHTUB	100	n/a	n/a	0	0	0
2634731	WORD	wordpools/wasnorm_wordpool_576.txt	LTP343	ltpFR2	23	13	CANOE	233	n/a	n/a	0	0	0
2637189	WORD	wordpools/wasnorm_wordpool_576.txt	LTP343	ltpFR2	23	13	DWARF	510	n/a	n/a	0	0	0
2639814	WORD	wordpools/wasnorm_wordpool_576.txt	LTP343	ltpFR2	23	13	CLERK	321	n/a	n/a	0	0	0
2642389	WORD	wordpools/wasnorm_wordpool_576.txt	LTP343	ltpFR2	23	13	FLASHLIGHT	575	n/a	n/a	0	0	0
2645114	WORD	wordpools/wasnorm_wordpool_576.txt	LTP343	ltpFR2	23	13	MAGNET	855	n/a	n/a	0	0	0
2647773	WORD	wordpools/wasnorm_wordpool_576.txt	LTP343	ltpFR2	23	13	SNOB	1335	n/a	n/a	0	0	0
2650314	WORD	wordpools/wasnorm_wordpool_576.txt	LTP343	ltpFR2	23	13	SHINGLE	1285	n/a	n/a	0	0	0
2652956	WORD	wordpools/wasnorm_wordpool_576.txt	LTP343	ltpFR2	23	13	RIVER	1194	n/a	n/a	0	0	0
2655765	WORD	wordpools/wasnorm_wordpool_576.txt	LTP343	ltpFR2	23	13	WIDOW	1608	n/a	n/a	0	0	0
2658391	WORD	wordpools/wasnorm_wordpool_576.txt	LTP343	ltpFR2	23	13	KIDNEY	776	n/a	n/a	0	0	0
2659996	START	n/a	LTP343	ltpFR2	23	n/a	n/a	n/a	20	n/a	n/a	n/a	n/a
2661060	DISTRACTOR	n/a	LTP343	ltpFR2	23	13	n/a	n/a	n/a	n/a	0	0	0
2661066	PROB	n/a	LTP343	ltpFR2	23	n/a	n/a	n/a	20	10	2	6	2
2662822	PROB	n/a	LTP343	ltpFR2	23	n/a	n/a	n/a	20	16	8	4	4
2664126	PROB	n/a	LTP343	ltpFR2	23	n/a	n/a	n/a	20	23	8	9	7
2666216	PROB	n/a	LTP343	ltpFR2	23	n/a	n/a	n/a	20	17	9	2	6
2667754	PROB	n/a	LTP343	ltpFR2	23	n/a	n/a	n/a	20	10	4	3	3
2668874	PROB	n/a	LTP343	ltpFR2	23	n/a	n/a	n/a	20	18	7	7	4
2669961	PROB	n/a	LTP343	ltpFR2	23	n/a	n/a	n/a	20	13	5	6	2
2671032	PROB	n/a	LTP343	ltpFR2	23	n/a	n/a	n/a	20	13	7	5	1
2672252	PROB	n/a	LTP343	ltpFR2	23	n/a	n/a	n/a	20	23	8	8	7
2674911	PROB	n/a	LTP343	ltpFR2	23	n/a	n/a	n/a	20	8	2	5	1
2676198	PROB	n/a	LTP343	ltpFR2	23	n/a	n/a	n/a	20	14	9	1	4
2677318	PROB	n/a	LTP343	ltpFR2	23	n/a	n/a	n/a	20	5	1	2	2
2678305	PROB	n/a	LTP343	ltpFR2	23	n/a	n/a	n/a	20	16	7	2	7
2680044	PROB	n/a	LTP343	ltpFR2	23	n/a	n/a	n/a	20	19	6	5	8
2682168	PROB	n/a	LTP343	ltpFR2	23	n/a	n/a	n/a	20	13	1	3	9
2683302	STOP	n/a	LTP343	ltpFR2	23	n/a	n/a	n/a	20	n/a	n/a	n/a	n/a
2685847	REC_START	n/a	LTP343	ltpFR2	23	13	n/a	n/a	n/a	n/a	0	0	0
2686097	REC_WORD	wordpools/wasnorm_wordpool_576.txt	LTP343	ltpFR2	23	13	MAGNET	855	n/a	n/a	0	0	0
2686776	REC_WORD	wordpools/wasnorm_wordpool_576.txt	LTP343	ltpFR2	23	13	SNOB	1335	n/a	n/a	0	0	0
2687559	REC_WORD	wordpools/wasnorm_wordpool_576.txt	LTP343	ltpFR2	23	13	SHINGLE	1285	n/a	n/a	0	0	0
2688402	REC_WORD	wordpools/wasnorm_wordpool_576.txt	LTP343	ltpFR2	23	13	RIVER	1194	n/a	n/a	0	0	0
2689729	REC_WORD	wordpools/wasnorm_wordpool_576.txt	LTP343	ltpFR2	23	13	BODY	145	n/a	n/a	0	0	0
2690514	REC_WORD	wordpools/wasnorm_wordpool_576.txt	LTP343	ltpFR2	23	13	TUNNEL	1519	n/a	n/a	0	0	0
2691528	REC_WORD	wordpools/wasnorm_wordpool_576.txt	LTP343	ltpFR2	23	13	PLAQUE	1084	n/a	n/a	0	0	0
2693522	REC_WORD	wordpools/wasnorm_wordpool_576.txt	LTP343	ltpFR2	23	13	THIEF	1456	n/a	n/a	0	0	0
2694603	REC_WORD	wordpools/wasnorm_wordpool_576.txt	LTP343	ltpFR2	23	13	ROBBER	1197	n/a	n/a	0	0	0
2699186	REC_WORD	wordpools/wasnorm_wordpool_576.txt	LTP343	ltpFR2	23	13	CLAM	315	n/a	n/a	0	0	0
2702858	REC_WORD	wordpools/wasnorm_wordpool_576.txt	LTP343	ltpFR2	23	13	CLAM	315	n/a	n/a	0	0	0
2705028	REC_WORD	wordpools/wasnorm_wordpool_576.txt	LTP343	ltpFR2	23	13	SCALLOP	1242	n/a	n/a	0	0	0
2707447	REC_WORD	wordpools/wasnorm_wordpool_576.txt	LTP343	ltpFR2	23	13	PISTOL	1075	n/a	n/a	0	0	0
2708427	REC_WORD	wordpools/wasnorm_wordpool_576.txt	LTP343	ltpFR2	23	13	BISCUIT	130	n/a	n/a	0	0	0
2710802	REC_WORD	wordpools/wasnorm_wordpool_576.txt	LTP343	ltpFR2	23	13	BISCUIT	130	n/a	n/a	0	0	0
2776289	DISTRACTOR	n/a	LTP343	ltpFR2	23	14	n/a	n/a	n/a	n/a	0	0	0
2776289	START	n/a	LTP343	ltpFR2	23	n/a	n/a	n/a	21	n/a	n/a	n/a	n/a
2776306	PROB	n/a	LTP343	ltpFR2	23	n/a	n/a	n/a	21	13	1	4	8
2778028	PROB	n/a	LTP343	ltpFR2	23	n/a	n/a	n/a	21	20	4	8	8
2779600	PROB	n/a	LTP343	ltpFR2	23	n/a	n/a	n/a	21	14	9	4	1
2780987	PROB	n/a	LTP343	ltpFR2	23	n/a	n/a	n/a	21	11	1	4	6
2782409	PROB	n/a	LTP343	ltpFR2	23	n/a	n/a	n/a	21	16	7	3	6
2783663	PROB	n/a	LTP343	ltpFR2	23	n/a	n/a	n/a	21	15	6	8	1
2784750	PROB	n/a	LTP343	ltpFR2	23	n/a	n/a	n/a	21	15	4	6	5
2785736	PROB	n/a	LTP343	ltpFR2	23	n/a	n/a	n/a	21	18	8	7	3
2787441	PROB	n/a	LTP343	ltpFR2	23	n/a	n/a	n/a	21	18	8	3	7
2788662	PROB	n/a	LTP343	ltpFR2	23	n/a	n/a	n/a	21	16	7	4	5
2790100	PROB	n/a	LTP343	ltpFR2	23	n/a	n/a	n/a	21	17	7	5	5
2791287	PROB	n/a	LTP343	ltpFR2	23	n/a	n/a	n/a	21	19	2	9	8
2792609	PROB	n/a	LTP343	ltpFR2	23	n/a	n/a	n/a	21	20	8	3	9
2794047	PROB	n/a	LTP343	ltpFR2	23	n/a	n/a	n/a	21	21	5	8	8
2795367	PROB	n/a	LTP343	ltpFR2	23	n/a	n/a	n/a	21	10	2	6	2
2796521	PROB	n/a	LTP343	ltpFR2	23	n/a	n/a	n/a	21	16	7	7	1
2797608	PROB	n/a	LTP343	ltpFR2	23	n/a	n/a	n/a	21	15	9	1	5
2799265	STOP	n/a	LTP343	ltpFR2	23	n/a	n/a	n/a	21	n/a	n/a	n/a	n/a
2801236	WORD	wordpools/wasnorm_wordpool_576.txt	LTP343	ltpFR2	23	14	JACKET	747	n/a	n/a	0	0	0
2803862	WORD	wordpools/wasnorm_wordpool_576.txt	LTP343	ltpFR2	23	14	SAILOR	1223	n/a	n/a	0	0	0
2806436	WORD	wordpools/wasnorm_wordpool_576.txt	LTP343	ltpFR2	23	14	THRONE	1461	n/a	n/a	0	0	0
2808911	WORD	wordpools/wasnorm_wordpool_576.txt	LTP343	ltpFR2	23	14	ROOSTER	1209	n/a	n/a	0	0	0
2811570	WORD	wordpools/wasnorm_wordpool_576.txt	LTP343	ltpFR2	23	14	HOOD	714	n/a	n/a	0	0	0
2814195	WORD	wordpools/wasnorm_wordpool_576.txt	LTP343	ltpFR2	23	14	SWEATER	1419	n/a	n/a	0	0	0
2816670	WORD	wordpools/wasnorm_wordpool_576.txt	LTP343	ltpFR2	23	14	FACE	547	n/a	n/a	0	0	0
2819429	WORD	wordpools/wasnorm_wordpool_576.txt	LTP343	ltpFR2	23	14	PERSON	1052	n/a	n/a	0	0	0
2822137	WORD	wordpools/wasnorm_wordpool_576.txt	LTP343	ltpFR2	23	14	GRASS	655	n/a	n/a	0	0	0
2824913	WORD	wordpools/wasnorm_wordpool_576.txt	LTP343	ltpFR2	23	14	YARD	1630	n/a	n/a	0	0	0
2827404	WORD	wordpools/wasnorm_wordpool_576.txt	LTP343	ltpFR2	23	14	CROOK	412	n/a	n/a	0	0	0
2830013	WORD	wordpools/wasnorm_wordpool_576.txt	LTP343	ltpFR2	23	14	POND	1101	n/a	n/a	0	0	0
2832504	WORD	wordpools/wasnorm_wordpool_576.txt	LTP343	ltpFR2	23	14	FRIES	607	n/a	n/a	0	0	0
2834979	WORD	wordpools/wasnorm_wordpool_576.txt	LTP343	ltpFR2	23	14	STREET	1393	n/a	n/a	0	0	0
2837755	WORD	wordpools/wasnorm_wordpool_576.txt	LTP343	ltpFR2	23	14	STONE	1385	n/a	n/a	0	0	0
2840463	WORD	wordpools/wasnorm_wordpool_576.txt	LTP343	ltpFR2	23	14	BANDIT	81	n/a	n/a	0	0	0
2843089	WORD	wordpools/wasnorm_wordpool_576.txt	LTP343	ltpFR2	23	14	PLANT	1083	n/a	n/a	0	0	0
2845563	WORD	wordpools/wasnorm_wordpool_576.txt	LTP343	ltpFR2	23	14	FLANNEL	574	n/a	n/a	0	0	0
2848372	WORD	wordpools/wasnorm_wordpool_576.txt	LTP343	ltpFR2	23	14	QUILT	1151	n/a	n/a	0	0	0
2850847	WORD	wordpools/wasnorm_wordpool_576.txt	LTP343	ltpFR2	23	14	FLUTE	585	n/a	n/a	0	0	0
2853539	WORD	wordpools/wasnorm_wordpool_576.txt	LTP343	ltpFR2	23	14	SERGEANT	1269	n/a	n/a	0	0	0
2856281	WORD	wordpools/wasnorm_wordpool_576.txt	LTP343	ltpFR2	23	14	TORTOISE	1486	n/a	n/a	0	0	0
2858957	WORD	wordpools/wasnorm_wordpool_576.txt	LTP343	ltpFR2	23	14	COURSE	390	n/a	n/a	0	0	0
2861665	WORD	wordpools/wasnorm_wordpool_576.txt	LTP343	ltpFR2	23	14	APRON	35	n/a	n/a	0	0	0
2863271	START	n/a	LTP343	ltpFR2	23	n/a	n/a	n/a	22	n/a	n/a	n/a	n/a
2864241	DISTRACTOR	n/a	LTP343	ltpFR2	23	14	n/a	n/a	n/a	n/a	0	0	0
2864257	PROB	n/a	LTP343	ltpFR2	23	n/a	n/a	n/a	22	13	8	2	3
2866347	PROB	n/a	LTP343	ltpFR2	23	n/a	n/a	n/a	22	15	1	5	9
2868671	PROB	n/a	LTP343	ltpFR2	23	n/a	n/a	n/a	22	14	3	8	3
2870394	PROB	n/a	LTP343	ltpFR2	23	n/a	n/a	n/a	22	14	8	2	4
2871564	PROB	n/a	LTP343	ltpFR2	23	n/a	n/a	n/a	22	20	8	8	4
2873236	PROB	n/a	LTP343	ltpFR2	23	n/a	n/a	n/a	22	16	5	9	2
2874607	PROB	n/a	LTP343	ltpFR2	23	n/a	n/a	n/a	22	16	9	4	3
2875878	PROB	n/a	LTP343	ltpFR2	23	n/a	n/a	n/a	22	20	9	2	9
2877349	PROB	n/a	LTP343	ltpFR2	23	n/a	n/a	n/a	22	10	2	3	5
2878737	PROB	n/a	LTP343	ltpFR2	23	n/a	n/a	n/a	22	12	1	5	6
2880192	PROB	n/a	LTP343	ltpFR2	23	n/a	n/a	n/a	22	9	1	1	7
2881429	PROB	n/a	LTP343	ltpFR2	23	n/a	n/a	n/a	22	19	4	8	7
2882600	PROB	n/a	LTP343	ltpFR2	23	n/a	n/a	n/a	22	8	1	5	2
2884690	PROB	n/a	LTP343	ltpFR2	23	n/a	n/a	n/a	22	8	5	2	1
2885731	STOP	n/a	LTP343	ltpFR2	23	n/a	n/a	n/a	22	n/a	n/a	n/a	n/a
2889005	REC_START	n/a	LTP343	ltpFR2	23	14	n/a	n/a	n/a	n/a	0	0	0
2889318	REC_WORD	wordpools/wasnorm_wordpool_576.txt	LTP343	ltpFR2	23	14	SERGEANT	1269	n/a	n/a	0	0	0
2890371	REC_WORD	wordpools/wasnorm_wordpool_576.txt	LTP343	ltpFR2	23	14	TORTOISE	1486	n/a	n/a	0	0	0
2891363	REC_WORD	wordpools/wasnorm_wordpool_576.txt	LTP343	ltpFR2	23	14	COURSE	390	n/a	n/a	0	0	0
2892376	REC_WORD	wordpools/wasnorm_wordpool_576.txt	LTP343	ltpFR2	23	14	APRON	35	n/a	n/a	0	0	0
2896205	REC_WORD	wordpools/wasnorm_wordpool_576.txt	LTP343	ltpFR2	23	14	HOOD	714	n/a	n/a	0	0	0
2897303	REC_WORD	wordpools/wasnorm_wordpool_576.txt	LTP343	ltpFR2	23	14	JACKET	747	n/a	n/a	0	0	0
2898342	REC_WORD	wordpools/wasnorm_wordpool_576.txt	LTP343	ltpFR2	23	14	FACE	547	n/a	n/a	0	0	0
2903385	REC_WORD	wordpools/wasnorm_wordpool_576.txt	LTP343	ltpFR2	23	14	GRASS	655	n/a	n/a	0	0	0
2904398	REC_WORD	wordpools/wasnorm_wordpool_576.txt	LTP343	ltpFR2	23	14	YARD	1630	n/a	n/a	0	0	0
2905469	REC_WORD	wordpools/wasnorm_wordpool_576.txt	LTP343	ltpFR2	23	14	POND	1101	n/a	n/a	0	0	0
2963636	REC_WORD	wordpools/wasnorm_wordpool_576.txt	LTP343	ltpFR2	23	14	BANDIT	81	n/a	n/a	0	0	0
2979446	DISTRACTOR	n/a	LTP343	ltpFR2	23	15	n/a	n/a	n/a	n/a	0	0	0
2979446	START	n/a	LTP343	ltpFR2	23	n/a	n/a	n/a	23	n/a	n/a	n/a	n/a
2979463	PROB	n/a	LTP343	ltpFR2	23	n/a	n/a	n/a	23	12	1	5	6
2981403	PROB	n/a	LTP343	ltpFR2	23	n/a	n/a	n/a	23	5	2	2	1
2982373	PROB	n/a	LTP343	ltpFR2	23	n/a	n/a	n/a	23	18	6	3	9
2983510	PROB	n/a	LTP343	ltpFR2	23	n/a	n/a	n/a	23	9	4	2	3
2984647	PROB	n/a	LTP343	ltpFR2	23	n/a	n/a	n/a	23	18	8	1	9
2985684	PROB	n/a	LTP343	ltpFR2	23	n/a	n/a	n/a	23	3	1	1	1
2986603	PROB	n/a	LTP343	ltpFR2	23	n/a	n/a	n/a	23	14	5	8	1
2988242	PROB	n/a	LTP343	ltpFR2	23	n/a	n/a	n/a	23	19	9	9	1
2989279	PROB	n/a	LTP343	ltpFR2	23	n/a	n/a	n/a	23	14	3	6	5
2990482	PROB	n/a	LTP343	ltpFR2	23	n/a	n/a	n/a	23	19	6	9	5
2992121	PROB	n/a	LTP343	ltpFR2	23	n/a	n/a	n/a	23	7	3	2	2
2993476	PROB	n/a	LTP343	ltpFR2	23	n/a	n/a	n/a	23	19	3	4	8
2995549	PROB	n/a	LTP343	ltpFR2	23	n/a	n/a	n/a	23	27	9	9	9
2996736	PROB	n/a	LTP343	ltpFR2	23	n/a	n/a	n/a	23	15	8	3	2
2997923	PROB	n/a	LTP343	ltpFR2	23	n/a	n/a	n/a	23	16	6	2	8
2999679	PROB	n/a	LTP343	ltpFR2	23	n/a	n/a	n/a	23	16	7	5	4
3000866	PROB	n/a	LTP343	ltpFR2	23	n/a	n/a	n/a	23	14	6	5	3
3003343	STOP	n/a	LTP343	ltpFR2	23	n/a	n/a	n/a	23	n/a	n/a	n/a	n/a
3004327	WORD	wordpools/wasnorm_wordpool_576.txt	LTP343	ltpFR2	23	15	DENIM	446	n/a	n/a	0	0	0
3006819	WORD	wordpools/wasnorm_wordpool_576.txt	LTP343	ltpFR2	23	15	BALLOON	75	n/a	n/a	0	0	0
3009260	WORD	wordpools/wasnorm_wordpool_576.txt	LTP343	ltpFR2	23	15	JOKER	759	n/a	n/a	0	0	0
3011919	WORD	wordpools/wasnorm_wordpool_576.txt	LTP343	ltpFR2	23	15	PRISON	1127	n/a	n/a	0	0	0
3014627	WORD	wordpools/wasnorm_wordpool_576.txt	LTP343	ltpFR2	23	15	REBEL	1172	n/a	n/a	0	0	0
3017052	WORD	wordpools/wasnorm_wordpool_576.txt	LTP343	ltpFR2	23	15	BANKER	84	n/a	n/a	0	0	0
3019710	WORD	wordpools/wasnorm_wordpool_576.txt	LTP343	ltpFR2	23	15	TROUSERS	1510	n/a	n/a	0	0	0
3022419	WORD	wordpools/wasnorm_wordpool_576.txt	LTP343	ltpFR2	23	15	PANTS	1010	n/a	n/a	0	0	0
3024894	WORD	wordpools/wasnorm_wordpool_576.txt	LTP343	ltpFR2	23	15	LEAF	808	n/a	n/a	0	0	0
3027686	WORD	wordpools/wasnorm_wordpool_576.txt	LTP343	ltpFR2	23	15	LANDSCAPE	799	n/a	n/a	0	0	0
3030444	WORD	wordpools/wasnorm_wordpool_576.txt	LTP343	ltpFR2	23	15	TORCH	1484	n/a	n/a	0	0	0
3033120	WORD	wordpools/wasnorm_wordpool_576.txt	LTP343	ltpFR2	23	15	CHARCOAL	281	n/a	n/a	0	0	0
3035578	WORD	wordpools/wasnorm_wordpool_576.txt	LTP343	ltpFR2	23	15	DAISY	435	n/a	n/a	0	0	0
3038354	WORD	wordpools/wasnorm_wordpool_576.txt	LTP343	ltpFR2	23	15	FEAST	556	n/a	n/a	0	0	0
3040845	WORD	wordpools/wasnorm_wordpool_576.txt	LTP343	ltpFR2	23	15	SIRLOIN	1311	n/a	n/a	0	0	0
3043337	WORD	wordpools/wasnorm_wordpool_576.txt	LTP343	ltpFR2	23	15	FOUNTAIN	597	n/a	n/a	0	0	0
3046046	WORD	wordpools/wasnorm_wordpool_576.txt	LTP343	ltpFR2	23	15	UMPIRE	1535	n/a	n/a	0	0	0
3048771	WORD	wordpools/wasnorm_wordpool_576.txt	LTP343	ltpFR2	23	15	COIN	343	n/a	n/a	0	0	0
3051530	WORD	wordpools/wasnorm_wordpool_576.txt	LTP343	ltpFR2	23	15	BOUILLON	154	n/a	n/a	0	0	0
3054139	WORD	wordpools/wasnorm_wordpool_576.txt	LTP343	ltpFR2	23	15	CREEK	404	n/a	n/a	0	0	0
3056714	WORD	wordpools/wasnorm_wordpool_576.txt	LTP343	ltpFR2	23	15	SPRINKLE	1359	n/a	n/a	0	0	0
3059372	WORD	wordpools/wasnorm_wordpool_576.txt	LTP343	ltpFR2	23	15	CHICKEN	297	n/a	n/a	0	0	0
3061930	WORD	wordpools/wasnorm_wordpool_576.txt	LTP343	ltpFR2	23	15	FIELD	562	n/a	n/a	0	0	0
3064372	WORD	wordpools/wasnorm_wordpool_576.txt	LTP343	ltpFR2	23	15	GREASE	660	n/a	n/a	0	0	0
3065977	START	n/a	LTP343	ltpFR2	23	n/a	n/a	n/a	24	n/a	n/a	n/a	n/a
3066831	DISTRACTOR	n/a	LTP343	ltpFR2	23	15	n/a	n/a	n/a	n/a	0	0	0
3066846	PROB	n/a	LTP343	ltpFR2	23	n/a	n/a	n/a	24	14	6	1	7
3068769	PROB	n/a	LTP343	ltpFR2	23	n/a	n/a	n/a	24	17	9	6	2
3070609	PROB	n/a	LTP343	ltpFR2	23	n/a	n/a	n/a	24	16	7	8	1
3072047	PROB	n/a	LTP343	ltpFR2	23	n/a	n/a	n/a	24	17	6	3	8
3073501	PROB	n/a	LTP343	ltpFR2	23	n/a	n/a	n/a	24	10	4	5	1
3074621	PROB	n/a	LTP343	ltpFR2	23	n/a	n/a	n/a	24	24	8	7	9
3078200	PROB	n/a	LTP343	ltpFR2	23	n/a	n/a	n/a	24	11	2	1	8
3079303	PROB	n/a	LTP343	ltpFR2	23	n/a	n/a	n/a	24	16	8	3	5
3080524	PROB	n/a	LTP343	ltpFR2	23	n/a	n/a	n/a	24	5	2	2	1
3081410	PROB	n/a	LTP343	ltpFR2	23	n/a	n/a	n/a	24	12	1	3	8
3082581	PROB	n/a	LTP343	ltpFR2	23	n/a	n/a	n/a	24	13	5	1	7
3084069	PROB	n/a	LTP343	ltpFR2	23	n/a	n/a	n/a	24	15	6	7	2
3085256	PROB	n/a	LTP343	ltpFR2	23	n/a	n/a	n/a	24	13	8	4	1
3086376	PROB	n/a	LTP343	ltpFR2	23	n/a	n/a	n/a	24	19	8	3	8
3087831	PROB	n/a	LTP343	ltpFR2	23	n/a	n/a	n/a	24	16	5	3	8
3088913	STOP	n/a	LTP343	ltpFR2	23	n/a	n/a	n/a	24	n/a	n/a	n/a	n/a
3091845	REC_START	n/a	LTP343	ltpFR2	23	15	n/a	n/a	n/a	n/a	0	0	0
3092148	REC_WORD	wordpools/wasnorm_wordpool_576.txt	LTP343	ltpFR2	23	15	FOUNTAIN	597	n/a	n/a	0	0	0
3093097	REC_WORD	wordpools/wasnorm_wordpool_576.txt	LTP343	ltpFR2	23	15	COIN	343	n/a	n/a	0	0	0
3093987	REC_WORD	wordpools/wasnorm_wordpool_576.txt	LTP343	ltpFR2	23	15	CREEK	404	n/a	n/a	0	0	0
3094905	REC_WORD	wordpools/wasnorm_wordpool_576.txt	LTP343	ltpFR2	23	15	UMPIRE	1535	n/a	n/a	0	0	0
3182287	DISTRACTOR	n/a	LTP343	ltpFR2	23	16	n/a	n/a	n/a	n/a	0	0	0
3182287	START	n/a	LTP343	ltpFR2	23	n/a	n/a	n/a	25	n/a	n/a	n/a	n/a
3182304	PROB	n/a	LTP343	ltpFR2	23	n/a	n/a	n/a	25	18	8	8	2
3184494	PROB	n/a	LTP343	ltpFR2	23	n/a	n/a	n/a	25	16	2	8	6
3185598	PROB	n/a	LTP343	ltpFR2	23	n/a	n/a	n/a	25	12	8	3	1
3186785	PROB	n/a	LTP343	ltpFR2	23	n/a	n/a	n/a	25	22	6	6	9
3189677	PROB	n/a	LTP343	ltpFR2	23	n/a	n/a	n/a	25	14	3	6	5
3190831	PROB	n/a	LTP343	ltpFR2	23	n/a	n/a	n/a	25	6	1	4	1
3192035	PROB	n/a	LTP343	ltpFR2	23	n/a	n/a	n/a	25	8	2	4	2
3193557	PROB	n/a	LTP343	ltpFR2	23	n/a	n/a	n/a	25	7	1	1	5
3194493	PROB	n/a	LTP343	ltpFR2	23	n/a	n/a	n/a	25	18	5	5	8
3195864	PROB	n/a	LTP343	ltpFR2	23	n/a	n/a	n/a	25	16	2	9	5
3197101	PROB	n/a	LTP343	ltpFR2	23	n/a	n/a	n/a	25	15	3	3	9
3198523	PROB	n/a	LTP343	ltpFR2	23	n/a	n/a	n/a	25	16	7	5	4
3199777	PROB	n/a	LTP343	ltpFR2	23	n/a	n/a	n/a	25	24	9	7	8
3202268	PROB	n/a	LTP343	ltpFR2	23	n/a	n/a	n/a	25	18	3	8	7
3203388	PROB	n/a	LTP343	ltpFR2	23	n/a	n/a	n/a	25	19	9	9	1
3206287	STOP	n/a	LTP343	ltpFR2	23	n/a	n/a	n/a	25	n/a	n/a	n/a	n/a
3207251	WORD	wordpools/wasnorm_wordpool_576.txt	LTP343	ltpFR2	23	16	BRAKE	166	n/a	n/a	0	0	0
3209976	WORD	wordpools/wasnorm_wordpool_576.txt	LTP343	ltpFR2	23	16	RECEIPT	1173	n/a	n/a	0	0	0
3212585	WORD	wordpools/wasnorm_wordpool_576.txt	LTP343	ltpFR2	23	16	LOBBY	836	n/a	n/a	0	0	0
3215076	WORD	wordpools/wasnorm_wordpool_576.txt	LTP343	ltpFR2	23	16	GIFT	635	n/a	n/a	0	0	0
3217718	WORD	wordpools/wasnorm_wordpool_576.txt	LTP343	ltpFR2	23	16	BANQUET	86	n/a	n/a	0	0	0
3220410	WORD	wordpools/wasnorm_wordpool_576.txt	LTP343	ltpFR2	23	16	DINER	467	n/a	n/a	0	0	0
3223102	WORD	wordpools/wasnorm_wordpool_576.txt	LTP343	ltpFR2	23	16	FIDDLE	561	n/a	n/a	0	0	0
3225861	WORD	wordpools/wasnorm_wordpool_576.txt	LTP343	ltpFR2	23	16	LOFT	840	n/a	n/a	0	0	0
3228537	WORD	wordpools/wasnorm_wordpool_576.txt	LTP343	ltpFR2	23	16	SIDING	1304	n/a	n/a	0	0	0
3231061	WORD	wordpools/wasnorm_wordpool_576.txt	LTP343	ltpFR2	23	16	MANSION	864	n/a	n/a	0	0	0
3233536	WORD	wordpools/wasnorm_wordpool_576.txt	LTP343	ltpFR2	23	16	LETTUCE	814	n/a	n/a	0	0	0
3235994	WORD	wordpools/wasnorm_wordpool_576.txt	LTP343	ltpFR2	23	16	AGENT	10	n/a	n/a	0	0	0
3238669	WORD	wordpools/wasnorm_wordpool_576.txt	LTP343	ltpFR2	23	16	ORCHID	982	n/a	n/a	0	0	0
3241345	WORD	wordpools/wasnorm_wordpool_576.txt	LTP343	ltpFR2	23	16	BOX	159	n/a	n/a	0	0	0
3243769	WORD	wordpools/wasnorm_wordpool_576.txt	LTP343	ltpFR2	23	16	HANDCUFFS	685	n/a	n/a	0	0	0
3246244	WORD	wordpools/wasnorm_wordpool_576.txt	LTP343	ltpFR2	23	16	COLUMN	350	n/a	n/a	0	0	0
3248769	WORD	wordpools/wasnorm_wordpool_576.txt	LTP343	ltpFR2	23	16	KEYBOARD	774	n/a	n/a	0	0	0
3251461	WORD	wordpools/wasnorm_wordpool_576.txt	LTP343	ltpFR2	23	16	CARTON	251	n/a	n/a	0	0	0
3254019	WORD	wordpools/wasnorm_wordpool_576.txt	LTP343	ltpFR2	23	16	MEADOW	881	n/a	n/a	0	0	0
3256795	WORD	wordpools/wasnorm_wordpool_576.txt	LTP343	ltpFR2	23	16	MAJOR	859	n/a	n/a	0	0	0
3259286	WORD	wordpools/wasnorm_wordpool_576.txt	LTP343	ltpFR2	23	16	MONSTER	912	n/a	n/a	0	0	0
3261727	WORD	wordpools/wasnorm_wordpool_576.txt	LTP343	ltpFR2	23	16	SUITE	1404	n/a	n/a	0	0	0
3264319	WORD	wordpools/wasnorm_wordpool_576.txt	LTP343	ltpFR2	23	16	RESORT	1186	n/a	n/a	0	0	0
3267095	WORD	wordpools/wasnorm_wordpool_576.txt	LTP343	ltpFR2	23	16	LOUNGE	845	n/a	n/a	0	0	0
3268700	START	n/a	LTP343	ltpFR2	23	n/a	n/a	n/a	26	n/a	n/a	n/a	n/a
3269577	DISTRACTOR	n/a	LTP343	ltpFR2	23	16	n/a	n/a	n/a	n/a	0	0	0
3269586	PROB	n/a	LTP343	ltpFR2	23	n/a	n/a	n/a	26	23	8	9	7
3272997	PROB	n/a	LTP343	ltpFR2	23	n/a	n/a	n/a	26	9	3	2	4
3274117	PROB	n/a	LTP343	ltpFR2	23	n/a	n/a	n/a	26	11	9	1	1
3275505	PROB	n/a	LTP343	ltpFR2	23	n/a	n/a	n/a	26	22	9	8	5
3279568	PROB	n/a	LTP343	ltpFR2	23	n/a	n/a	n/a	26	16	5	9	2
3280839	PROB	n/a	LTP343	ltpFR2	23	n/a	n/a	n/a	26	6	1	1	4
3282060	PROB	n/a	LTP343	ltpFR2	23	n/a	n/a	n/a	26	13	1	9	3
3283314	PROB	n/a	LTP343	ltpFR2	23	n/a	n/a	n/a	26	16	8	1	7
3284551	PROB	n/a	LTP343	ltpFR2	23	n/a	n/a	n/a	26	12	6	5	1
3286357	PROB	n/a	LTP343	ltpFR2	23	n/a	n/a	n/a	26	18	8	7	3
3287477	PROB	n/a	LTP343	ltpFR2	23	n/a	n/a	n/a	26	16	9	1	6
3288614	PROB	n/a	LTP343	ltpFR2	23	n/a	n/a	n/a	26	19	6	7	6
3290286	PROB	n/a	LTP343	ltpFR2	23	n/a	n/a	n/a	26	23	6	9	8
3292223	STOP	n/a	LTP343	ltpFR2	23	n/a	n/a	n/a	26	n/a	n/a	n/a	n/a
3294618	REC_START	n/a	LTP343	ltpFR2	23	16	n/a	n/a	n/a	n/a	0	0	0
3295417	REC_WORD	wordpools/wasnorm_wordpool_576.txt	LTP343	ltpFR2	23	16	LOUNGE	845	n/a	n/a	0	0	0
3310667	REC_WORD	wordpools/wasnorm_wordpool_576.txt	LTP343	ltpFR2	23	16	BRAKE	166	n/a	n/a	0	0	0
3311369	REC_WORD	wordpools/wasnorm_wordpool_576.txt	LTP343	ltpFR2	23	16	RECEIPT	1173	n/a	n/a	0	0	0
3312615	REC_WORD	wordpools/wasnorm_wordpool_576.txt	LTP343	ltpFR2	23	16	LOBBY	836	n/a	n/a	0	0	0
3320609	REC_WORD	wordpools/wasnorm_wordpool_576.txt	LTP343	ltpFR2	23	16	GIFT	635	n/a	n/a	0	0	0
3333834	REC_WORD	wordpools/wasnorm_wordpool_576.txt	LTP343	ltpFR2	23	16	DINER	467	n/a	n/a	0	0	0
3371148	REST_REWET	n/a	LTP343	ltpFR2	23	16	n/a	n/a	n/a	n/a	0	0	0
3583235	WORD	wordpools/wasnorm_wordpool_576.txt	LTP343	ltpFR2	23	17	MATCH	878	n/a	n/a	0	0	0
3585960	WORD	wordpools/wasnorm_wordpool_576.txt	LTP343	ltpFR2	23	17	CAPE	237	n/a	n/a	0	0	0
3588753	WORD	wordpools/wasnorm_wordpool_576.txt	LTP343	ltpFR2	23	17	TOILET	1475	n/a	n/a	0	0	0
3591278	WORD	wordpools/wasnorm_wordpool_576.txt	LTP343	ltpFR2	23	17	TURKEY	1520	n/a	n/a	0	0	0
3593919	WORD	wordpools/wasnorm_wordpool_576.txt	LTP343	ltpFR2	23	17	ADULT	8	n/a	n/a	0	0	0
3596443	WORD	wordpools/wasnorm_wordpool_576.txt	LTP343	ltpFR2	23	17	BASEMENT	94	n/a	n/a	0	0	0
3599203	WORD	wordpools/wasnorm_wordpool_576.txt	LTP343	ltpFR2	23	17	CABBAGE	210	n/a	n/a	0	0	0
3601879	WORD	wordpools/wasnorm_wordpool_576.txt	LTP343	ltpFR2	23	17	SLIME	1327	n/a	n/a	0	0	0
3604487	WORD	wordpools/wasnorm_wordpool_576.txt	LTP343	ltpFR2	23	17	SLOPE	1328	n/a	n/a	0	0	0
3607012	WORD	wordpools/wasnorm_wordpool_576.txt	LTP343	ltpFR2	23	17	LUNCH	849	n/a	n/a	0	0	0
3609804	WORD	wordpools/wasnorm_wordpool_576.txt	LTP343	ltpFR2	23	17	SALMON	1227	n/a	n/a	0	0	0
3612530	WORD	wordpools/wasnorm_wordpool_576.txt	LTP343	ltpFR2	23	17	SAUSAGE	1238	n/a	n/a	0	0	0
3615289	WORD	wordpools/wasnorm_wordpool_576.txt	LTP343	ltpFR2	23	17	TOASTER	1472	n/a	n/a	0	0	0
3617997	WORD	wordpools/wasnorm_wordpool_576.txt	LTP343	ltpFR2	23	17	DRAWER	493	n/a	n/a	0	0	0
3620723	WORD	wordpools/wasnorm_wordpool_576.txt	LTP343	ltpFR2	23	17	LIPSTICK	829	n/a	n/a	0	0	0
3623348	WORD	wordpools/wasnorm_wordpool_576.txt	LTP343	ltpFR2	23	17	LAPEL	800	n/a	n/a	0	0	0
3625773	WORD	wordpools/wasnorm_wordpool_576.txt	LTP343	ltpFR2	23	17	SHIRT	1287	n/a	n/a	0	0	0
3628465	WORD	wordpools/wasnorm_wordpool_576.txt	LTP343	ltpFR2	23	17	EYELASH	546	n/a	n/a	0	0	0
3630956	WORD	wordpools/wasnorm_wordpool_576.txt	LTP343	ltpFR2	23	17	WAREHOUSE	1588	n/a	n/a	0	0	0
3633682	WORD	wordpools/wasnorm_wordpool_576.txt	LTP343	ltpFR2	23	17	CANYON	235	n/a	n/a	0	0	0
3636474	WORD	wordpools/wasnorm_wordpool_576.txt	LTP343	ltpFR2	23	17	BUILDING	191	n/a	n/a	0	0	0
3639216	WORD	wordpools/wasnorm_wordpool_576.txt	LTP343	ltpFR2	23	17	SCAPEGOAT	1244	n/a	n/a	0	0	0
3641942	WORD	wordpools/wasnorm_wordpool_576.txt	LTP343	ltpFR2	23	17	WRITER	1627	n/a	n/a	0	0	0
3644550	WORD	wordpools/wasnorm_wordpool_576.txt	LTP343	ltpFR2	23	17	WAITER	1580	n/a	n/a	0	0	0
3646155	START	n/a	LTP343	ltpFR2	23	n/a	n/a	n/a	27	n/a	n/a	n/a	n/a
3647039	DISTRACTOR	n/a	LTP343	ltpFR2	23	17	n/a	n/a	n/a	n/a	0	0	0
3647041	PROB	n/a	LTP343	ltpFR2	23	n/a	n/a	n/a	27	11	6	4	1
3649148	PROB	n/a	LTP343	ltpFR2	23	n/a	n/a	n/a	27	12	8	3	1
3650469	PROB	n/a	LTP343	ltpFR2	23	n/a	n/a	n/a	27	19	7	6	6
3651991	PROB	n/a	LTP343	ltpFR2	23	n/a	n/a	n/a	27	6	1	2	3
3653078	PROB	n/a	LTP343	ltpFR2	23	n/a	n/a	n/a	27	17	7	9	1
3654733	PROB	n/a	LTP343	ltpFR2	23	n/a	n/a	n/a	27	15	2	8	5
3655887	PROB	n/a	LTP343	ltpFR2	23	n/a	n/a	n/a	27	17	3	7	7
3657074	PROB	n/a	LTP343	ltpFR2	23	n/a	n/a	n/a	27	16	7	2	7
3658562	PROB	n/a	LTP343	ltpFR2	23	n/a	n/a	n/a	27	19	6	5	8
3659666	PROB	n/a	LTP343	ltpFR2	23	n/a	n/a	n/a	27	16	6	4	6
3660702	PROB	n/a	LTP343	ltpFR2	23	n/a	n/a	n/a	27	20	6	8	6
3663010	PROB	n/a	LTP343	ltpFR2	23	n/a	n/a	n/a	27	19	4	6	9
3664414	PROB	n/a	LTP343	ltpFR2	23	n/a	n/a	n/a	27	17	6	9	2
3665886	PROB	n/a	LTP343	ltpFR2	23	n/a	n/a	n/a	27	18	5	8	5
3667524	PROB	n/a	LTP343	ltpFR2	23	n/a	n/a	n/a	27	12	6	1	5
3668937	STOP	n/a	LTP343	ltpFR2	23	n/a	n/a	n/a	27	n/a	n/a	n/a	n/a
3671956	REC_START	n/a	LTP343	ltpFR2	23	17	n/a	n/a	n/a	n/a	0	0	0
3672905	REC_WORD	wordpools/wasnorm_wordpool_576.txt	LTP343	ltpFR2	23	17	SCAPEGOAT	1244	n/a	n/a	0	0	0
3673874	REC_WORD	wordpools/wasnorm_wordpool_576.txt	LTP343	ltpFR2	23	17	WRITER	1627	n/a	n/a	0	0	0
3674759	REC_WORD	wordpools/wasnorm_wordpool_576.txt	LTP343	ltpFR2	23	17	WAITER	1580	n/a	n/a	0	0	0
3676116	REC_WORD	wordpools/wasnorm_wordpool_576.txt	LTP343	ltpFR2	23	17	CAPE	237	n/a	n/a	0	0	0
3676948	REC_WORD	wordpools/wasnorm_wordpool_576.txt	LTP343	ltpFR2	23	17	MATCH	878	n/a	n/a	0	0	0
3680445	REC_WORD	wordpools/wasnorm_wordpool_576.txt	LTP343	ltpFR2	23	17	SLOPE	1328	n/a	n/a	0	0	0
3682601	REC_WORD	wordpools/wasnorm_wordpool_576.txt	LTP343	ltpFR2	23	17	CANYON	235	n/a	n/a	0	0	0
3684596	REC_WORD	wordpools/wasnorm_wordpool_576.txt	LTP343	ltpFR2	23	17	BASEMENT	94	n/a	n/a	0	0	0
3686756	REC_WORD	wordpools/wasnorm_wordpool_576.txt	LTP343	ltpFR2	23	17	BUILDING	191	n/a	n/a	0	0	0
3690923	REC_WORD	wordpools/wasnorm_wordpool_576.txt	LTP343	ltpFR2	23	17	CABBAGE	210	n/a	n/a	0	0	0
3694144	REC_WORD	wordpools/wasnorm_wordpool_576.txt	LTP343	ltpFR2	23	17	LUNCH	849	n/a	n/a	0	0	0
3695033	REC_WORD	wordpools/wasnorm_wordpool_576.txt	LTP343	ltpFR2	23	17	SALMON	1227	n/a	n/a	0	0	0
3697548	REC_WORD	wordpools/wasnorm_wordpool_576.txt	LTP343	ltpFR2	23	17	SHIRT	1287	n/a	n/a	0	0	0
3698325	REC_WORD	wordpools/wasnorm_wordpool_576.txt	LTP343	ltpFR2	23	17	LAPEL	800	n/a	n/a	0	0	0
3700573	REC_WORD	wordpools/wasnorm_wordpool_576.txt	LTP343	ltpFR2	23	17	SLIME	1327	n/a	n/a	0	0	0
3701794	REC_WORD	wordpools/wasnorm_wordpool_576.txt	LTP343	ltpFR2	23	17	ADULT	8	n/a	n/a	0	0	0
3703260	REC_WORD	wordpools/wasnorm_wordpool_576.txt	LTP343	ltpFR2	23	17	TURKEY	1520	n/a	n/a	0	0	0
3727658	REC_WORD	wordpools/wasnorm_wordpool_576.txt	LTP343	ltpFR2	23	17	EYELASH	546	n/a	n/a	0	0	0
3729714	REC_WORD	wordpools/wasnorm_wordpool_576.txt	LTP343	ltpFR2	23	17	WARDROBE	1587	n/a	n/a	0	0	0
3762398	DISTRACTOR	n/a	LTP343	ltpFR2	23	18	n/a	n/a	n/a	n/a	0	0	0
3762398	START	n/a	LTP343	ltpFR2	23	n/a	n/a	n/a	28	n/a	n/a	n/a	n/a
3762415	PROB	n/a	LTP343	ltpFR2	23	n/a	n/a	n/a	28	19	9	4	6
3764288	PROB	n/a	LTP343	ltpFR2	23	n/a	n/a	n/a	28	11	1	1	9
3765458	PROB	n/a	LTP343	ltpFR2	23	n/a	n/a	n/a	28	11	1	3	7
3766662	PROB	n/a	LTP343	ltpFR2	23	n/a	n/a	n/a	28	10	2	1	7
3769321	PROB	n/a	LTP343	ltpFR2	23	n/a	n/a	n/a	28	9	2	4	3
3771076	PROB	n/a	LTP343	ltpFR2	23	n/a	n/a	n/a	28	19	5	8	6
3772715	PROB	n/a	LTP343	ltpFR2	23	n/a	n/a	n/a	28	9	6	2	1
3773618	PROB	n/a	LTP343	ltpFR2	23	n/a	n/a	n/a	28	14	7	2	5
3775123	PROB	n/a	LTP343	ltpFR2	23	n/a	n/a	n/a	28	10	2	6	2
3776561	PROB	n/a	LTP343	ltpFR2	23	n/a	n/a	n/a	28	19	8	5	6
3778266	PROB	n/a	LTP343	ltpFR2	23	n/a	n/a	n/a	28	16	7	2	7
3779704	PROB	n/a	LTP343	ltpFR2	23	n/a	n/a	n/a	28	8	4	3	1
3781008	PROB	n/a	LTP343	ltpFR2	23	n/a	n/a	n/a	28	10	2	1	7
3782430	PROB	n/a	LTP343	ltpFR2	23	n/a	n/a	n/a	28	19	9	6	4
3784737	PROB	n/a	LTP343	ltpFR2	23	n/a	n/a	n/a	28	16	2	9	5
3785924	STOP	n/a	LTP343	ltpFR2	23	n/a	n/a	n/a	28	n/a	n/a	n/a	n/a
3787262	WORD	wordpools/wasnorm_wordpool_576.txt	LTP343	ltpFR2	23	18	CHISEL	305	n/a	n/a	0	0	0
3789686	WORD	wordpools/wasnorm_wordpool_576.txt	LTP343	ltpFR2	23	18	WITNESS	1618	n/a	n/a	0	0	0
3792395	WORD	wordpools/wasnorm_wordpool_576.txt	LTP343	ltpFR2	23	18	TROUT	1511	n/a	n/a	0	0	0
3794853	WORD	wordpools/wasnorm_wordpool_576.txt	LTP343	ltpFR2	23	18	FLIPPER	580	n/a	n/a	0	0	0
3797529	WORD	wordpools/wasnorm_wordpool_576.txt	LTP343	ltpFR2	23	18	BEETLE	116	n/a	n/a	0	0	0
3800288	WORD	wordpools/wasnorm_wordpool_576.txt	LTP343	ltpFR2	23	18	INSECT	740	n/a	n/a	0	0	0
3802980	WORD	wordpools/wasnorm_wordpool_576.txt	LTP343	ltpFR2	23	18	SWATTER	1418	n/a	n/a	0	0	0
3805722	WORD	wordpools/wasnorm_wordpool_576.txt	LTP343	ltpFR2	23	18	THIMBLE	1458	n/a	n/a	0	0	0
3808431	WORD	wordpools/wasnorm_wordpool_576.txt	LTP343	ltpFR2	23	18	SISTER	1312	n/a	n/a	0	0	0
3810855	WORD	wordpools/wasnorm_wordpool_576.txt	LTP343	ltpFR2	23	18	COUSIN	392	n/a	n/a	0	0	0
3813581	WORD	wordpools/wasnorm_wordpool_576.txt	LTP343	ltpFR2	23	18	BOARD	143	n/a	n/a	0	0	0
3816289	WORD	wordpools/wasnorm_wordpool_576.txt	LTP343	ltpFR2	23	18	YACHT	1629	n/a	n/a	0	0	0
3818731	WORD	wordpools/wasnorm_wordpool_576.txt	LTP343	ltpFR2	23	18	GRIZZLY	662	n/a	n/a	0	0	0
3821456	WORD	wordpools/wasnorm_wordpool_576.txt	LTP343	ltpFR2	23	18	HARP	689	n/a	n/a	0	0	0
3824014	WORD	wordpools/wasnorm_wordpool_576.txt	LTP343	ltpFR2	23	18	CARROT	249	n/a	n/a	0	0	0
3826573	WORD	wordpools/wasnorm_wordpool_576.txt	LTP343	ltpFR2	23	18	NAPKIN	937	n/a	n/a	0	0	0
3829047	WORD	wordpools/wasnorm_wordpool_576.txt	LTP343	ltpFR2	23	18	STABLE	1363	n/a	n/a	0	0	0
3831505	WORD	wordpools/wasnorm_wordpool_576.txt	LTP343	ltpFR2	23	18	RABBIT	1152	n/a	n/a	0	0	0
3833963	WORD	wordpools/wasnorm_wordpool_576.txt	LTP343	ltpFR2	23	18	AIRCRAFT	11	n/a	n/a	0	0	0
3836756	WORD	wordpools/wasnorm_wordpool_576.txt	LTP343	ltpFR2	23	18	SENATE	1267	n/a	n/a	0	0	0
3839364	WORD	wordpools/wasnorm_wordpool_576.txt	LTP343	ltpFR2	23	18	CRACKER	398	n/a	n/a	0	0	0
3842073	WORD	wordpools/wasnorm_wordpool_576.txt	LTP343	ltpFR2	23	18	CLIPPERS	324	n/a	n/a	0	0	0
3844731	WORD	wordpools/wasnorm_wordpool_576.txt	LTP343	ltpFR2	23	18	FROG	608	n/a	n/a	0	0	0
3847256	WORD	wordpools/wasnorm_wordpool_576.txt	LTP343	ltpFR2	23	18	DAGGER	434	n/a	n/a	0	0	0
3848862	START	n/a	LTP343	ltpFR2	23	n/a	n/a	n/a	29	n/a	n/a	n/a	n/a
3849824	DISTRACTOR	n/a	LTP343	ltpFR2	23	18	n/a	n/a	n/a	n/a	0	0	0
3849831	PROB	n/a	LTP343	ltpFR2	23	n/a	n/a	n/a	29	16	9	2	5
3851905	PROB	n/a	LTP343	ltpFR2	23	n/a	n/a	n/a	29	10	1	5	4
3853694	PROB	n/a	LTP343	ltpFR2	23	n/a	n/a	n/a	29	20	8	9	3
3855433	PROB	n/a	LTP343	ltpFR2	23	n/a	n/a	n/a	29	19	2	9	8
3857021	PROB	n/a	LTP343	ltpFR2	23	n/a	n/a	n/a	29	15	6	5	4
3858175	PROB	n/a	LTP343	ltpFR2	23	n/a	n/a	n/a	29	19	1	9	9
3859462	PROB	n/a	LTP343	ltpFR2	23	n/a	n/a	n/a	29	10	2	3	5
3860666	PROB	n/a	LTP343	ltpFR2	23	n/a	n/a	n/a	29	11	2	2	7
3861703	PROB	n/a	LTP343	ltpFR2	23	n/a	n/a	n/a	29	11	4	1	6
3862957	PROB	n/a	LTP343	ltpFR2	23	n/a	n/a	n/a	29	16	7	3	6
3863994	PROB	n/a	LTP343	ltpFR2	23	n/a	n/a	n/a	29	17	1	7	9
3865315	PROB	n/a	LTP343	ltpFR2	23	n/a	n/a	n/a	29	11	6	2	3
3866652	PROB	n/a	LTP343	ltpFR2	23	n/a	n/a	n/a	29	21	5	9	7
3871100	PROB	n/a	LTP343	ltpFR2	23	n/a	n/a	n/a	29	13	7	5	1
3872215	STOP	n/a	LTP343	ltpFR2	23	n/a	n/a	n/a	29	n/a	n/a	n/a	n/a
3874696	REC_START	n/a	LTP343	ltpFR2	23	18	n/a	n/a	n/a	n/a	0	0	0
3874786	REC_WORD	wordpools/wasnorm_wordpool_576.txt	LTP343	ltpFR2	23	18	STABLE	1363	n/a	n/a	0	0	0
3875945	REC_WORD	wordpools/wasnorm_wordpool_576.txt	LTP343	ltpFR2	23	18	RABBIT	1152	n/a	n/a	0	0	0
3876789	REC_WORD	wordpools/wasnorm_wordpool_576.txt	LTP343	ltpFR2	23	18	AIRCRAFT	11	n/a	n/a	0	0	0
3877859	REC_WORD	wordpools/wasnorm_wordpool_576.txt	LTP343	ltpFR2	23	18	SENATE	1267	n/a	n/a	0	0	0
3879654	REC_WORD	wordpools/wasnorm_wordpool_576.txt	LTP343	ltpFR2	23	18	FLIPPER	580	n/a	n/a	0	0	0
3881190	REC_WORD	wordpools/wasnorm_wordpool_576.txt	LTP343	ltpFR2	23	18	SISTER	1312	n/a	n/a	0	0	0
3882237	REC_WORD	wordpools/wasnorm_wordpool_576.txt	LTP343	ltpFR2	23	18	COUSIN	392	n/a	n/a	0	0	0
3883516	REC_WORD	wordpools/wasnorm_wordpool_576.txt	LTP343	ltpFR2	23	18	BOARD	143	n/a	n/a	0	0	0
3884428	REC_WORD	wordpools/wasnorm_wordpool_576.txt	LTP343	ltpFR2	23	18	YACHT	1629	n/a	n/a	0	0	0
3887334	REC_WORD	wordpools/wasnorm_wordpool_576.txt	LTP343	ltpFR2	23	18	BEETLE	116	n/a	n/a	0	0	0
3888268	REC_WORD	wordpools/wasnorm_wordpool_576.txt	LTP343	ltpFR2	23	18	INSECT	740	n/a	n/a	0	0	0
3889474	REC_WORD	wordpools/wasnorm_wordpool_576.txt	LTP343	ltpFR2	23	18	TROUT	1511	n/a	n/a	0	0	0
3965155	WORD	wordpools/wasnorm_wordpool_576.txt	LTP343	ltpFR2	23	19	VAMPIRE	1547	n/a	n/a	0	0	0
3967763	WORD	wordpools/wasnorm_wordpool_576.txt	LTP343	ltpFR2	23	19	ORGAN	984	n/a	n/a	0	0	0
3970555	WORD	wordpools/wasnorm_wordpool_576.txt	LTP343	ltpFR2	23	19	LETTER	813	n/a	n/a	0	0	0
3973181	WORD	wordpools/wasnorm_wordpool_576.txt	LTP343	ltpFR2	23	19	FRIEND	606	n/a	n/a	0	0	0
3975739	WORD	wordpools/wasnorm_wordpool_576.txt	LTP343	ltpFR2	23	19	RELISH	1183	n/a	n/a	0	0	0
3978548	WORD	wordpools/wasnorm_wordpool_576.txt	LTP343	ltpFR2	23	19	TUTU	1524	n/a	n/a	0	0	0
3981090	WORD	wordpools/wasnorm_wordpool_576.txt	LTP343	ltpFR2	23	19	RAZOR	1171	n/a	n/a	0	0	0
3983849	WORD	wordpools/wasnorm_wordpool_576.txt	LTP343	ltpFR2	23	19	WHISKERS	1605	n/a	n/a	0	0	0
3986490	WORD	wordpools/wasnorm_wordpool_576.txt	LTP343	ltpFR2	23	19	PLAID	1080	n/a	n/a	0	0	0
3989266	WORD	wordpools/wasnorm_wordpool_576.txt	LTP343	ltpFR2	23	19	VILLAIN	1567	n/a	n/a	0	0	0
3991724	WORD	wordpools/wasnorm_wordpool_576.txt	LTP343	ltpFR2	23	19	RACCOON	1153	n/a	n/a	0	0	0
3994383	WORD	wordpools/wasnorm_wordpool_576.txt	LTP343	ltpFR2	23	19	FOX	598	n/a	n/a	0	0	0
3997041	WORD	wordpools/wasnorm_wordpool_576.txt	LTP343	ltpFR2	23	19	STAMP	1370	n/a	n/a	0	0	0
3999583	WORD	wordpools/wasnorm_wordpool_576.txt	LTP343	ltpFR2	23	19	HERO	706	n/a	n/a	0	0	0
4002292	WORD	wordpools/wasnorm_wordpool_576.txt	LTP343	ltpFR2	23	19	ATTIRE	57	n/a	n/a	0	0	0
4004950	WORD	wordpools/wasnorm_wordpool_576.txt	LTP343	ltpFR2	23	19	OX	994	n/a	n/a	0	0	0
4007408	WORD	wordpools/wasnorm_wordpool_576.txt	LTP343	ltpFR2	23	19	BISON	131	n/a	n/a	0	0	0
4010184	WORD	wordpools/wasnorm_wordpool_576.txt	LTP343	ltpFR2	23	19	CABOOSE	214	n/a	n/a	0	0	0
4012725	WORD	wordpools/wasnorm_wordpool_576.txt	LTP343	ltpFR2	23	19	CRADLE	399	n/a	n/a	0	0	0
4015518	WORD	wordpools/wasnorm_wordpool_576.txt	LTP343	ltpFR2	23	19	CRYSTAL	418	n/a	n/a	0	0	0
4018277	WORD	wordpools/wasnorm_wordpool_576.txt	LTP343	ltpFR2	23	19	LIST	830	n/a	n/a	0	0	0
4021019	WORD	wordpools/wasnorm_wordpool_576.txt	LTP343	ltpFR2	23	19	RAILROAD	1162	n/a	n/a	0	0	0
4023560	WORD	wordpools/wasnorm_wordpool_576.txt	LTP343	ltpFR2	23	19	BIBLE	124	n/a	n/a	0	0	0
4026002	WORD	wordpools/wasnorm_wordpool_576.txt	LTP343	ltpFR2	23	19	IDOL	733	n/a	n/a	0	0	0
4027607	START	n/a	LTP343	ltpFR2	23	n/a	n/a	n/a	30	n/a	n/a	n/a	n/a
4028715	DISTRACTOR	n/a	LTP343	ltpFR2	23	19	n/a	n/a	n/a	n/a	0	0	0
4028727	PROB	n/a	LTP343	ltpFR2	23	n/a	n/a	n/a	30	22	9	6	6
4031369	PROB	n/a	LTP343	ltpFR2	23	n/a	n/a	n/a	30	13	3	4	6
4032757	PROB	n/a	LTP343	ltpFR2	23	n/a	n/a	n/a	30	22	6	6	9
4035165	PROB	n/a	LTP343	ltpFR2	23	n/a	n/a	n/a	30	12	5	3	4
4036268	PROB	n/a	LTP343	ltpFR2	23	n/a	n/a	n/a	30	8	3	1	4
4037372	PROB	n/a	LTP343	ltpFR2	23	n/a	n/a	n/a	30	21	6	7	8
4038659	PROB	n/a	LTP343	ltpFR2	23	n/a	n/a	n/a	30	12	5	1	6
4040231	PROB	n/a	LTP343	ltpFR2	23	n/a	n/a	n/a	30	14	6	2	6
4042271	PROB	n/a	LTP343	ltpFR2	23	n/a	n/a	n/a	30	8	1	2	5
4043609	PROB	n/a	LTP343	ltpFR2	23	n/a	n/a	n/a	30	13	1	3	9
4045297	PROB	n/a	LTP343	ltpFR2	23	n/a	n/a	n/a	30	16	7	1	8
4046450	PROB	n/a	LTP343	ltpFR2	23	n/a	n/a	n/a	30	20	6	5	9
4047839	PROB	n/a	LTP343	ltpFR2	23	n/a	n/a	n/a	30	18	8	3	7
4049812	PROB	n/a	LTP343	ltpFR2	23	n/a	n/a	n/a	30	16	8	2	6
4050924	STOP	n/a	LTP343	ltpFR2	23	n/a	n/a	n/a	30	n/a	n/a	n/a	n/a
4053391	REC_START	n/a	LTP343	ltpFR2	23	19	n/a	n/a	n/a	n/a	0	0	0
4053724	REC_WORD	wordpools/wasnorm_wordpool_576.txt	LTP343	ltpFR2	23	19	CABOOSE	214	n/a	n/a	0	0	0
4054561	REC_WORD	wordpools/wasnorm_wordpool_576.txt	LTP343	ltpFR2	23	19	CRADLE	399	n/a	n/a	0	0	0
4055363	REC_WORD	wordpools/wasnorm_wordpool_576.txt	LTP343	ltpFR2	23	19	CRYSTAL	418	n/a	n/a	0	0	0
4056224	REC_WORD	wordpools/wasnorm_wordpool_576.txt	LTP343	ltpFR2	23	19	LIST	830	n/a	n/a	0	0	0
4063581	REC_WORD	wordpools/wasnorm_wordpool_576.txt	LTP343	ltpFR2	23	19	VAMPIRE	1547	n/a	n/a	0	0	0
4064448	REC_WORD	wordpools/wasnorm_wordpool_576.txt	LTP343	ltpFR2	23	19	VILLAIN	1567	n/a	n/a	0	0	0
4065593	REC_WORD	wordpools/wasnorm_wordpool_576.txt	LTP343	ltpFR2	23	19	PLAID	1080	n/a	n/a	0	0	0
4066478	REC_WORD	wordpools/wasnorm_wordpool_576.txt	LTP343	ltpFR2	23	19	ATTIRE	57	n/a	n/a	0	0	0
4067595	REC_WORD	wordpools/wasnorm_wordpool_576.txt	LTP343	ltpFR2	23	19	ORGAN	984	n/a	n/a	0	0	0
4069208	REC_WORD	wordpools/wasnorm_wordpool_576.txt	LTP343	ltpFR2	23	19	WHISKERS	1605	n/a	n/a	0	0	0
4070389	REC_WORD	wordpools/wasnorm_wordpool_576.txt	LTP343	ltpFR2	23	19	RAZOR	1171	n/a	n/a	0	0	0
4091111	REC_WORD	wordpools/wasnorm_wordpool_576.txt	LTP343	ltpFR2	23	19	OX	994	n/a	n/a	0	0	0
4092149	REC_WORD	wordpools/wasnorm_wordpool_576.txt	LTP343	ltpFR2	23	19	BISON	131	n/a	n/a	0	0	0
4143850	WORD	wordpools/wasnorm_wordpool_576.txt	LTP343	ltpFR2	23	20	MARS	873	n/a	n/a	0	0	0
4146425	WORD	wordpools/wasnorm_wordpool_576.txt	LTP343	ltpFR2	23	20	BUTLER	204	n/a	n/a	0	0	0
4148950	WORD	wordpools/wasnorm_wordpool_576.txt	LTP343	ltpFR2	23	20	WALRUS	1585	n/a	n/a	0	0	0
4151491	WORD	wordpools/wasnorm_wordpool_576.txt	LTP343	ltpFR2	23	20	SHOULDER	1294	n/a	n/a	0	0	0
4153999	WORD	wordpools/wasnorm_wordpool_576.txt	LTP343	ltpFR2	23	20	POISON	1096	n/a	n/a	0	0	0
4156574	WORD	wordpools/wasnorm_wordpool_576.txt	LTP343	ltpFR2	23	20	TERMITE	1451	n/a	n/a	0	0	0
4159250	WORD	wordpools/wasnorm_wordpool_576.txt	LTP343	ltpFR2	23	20	GLASSES	640	n/a	n/a	0	0	0
4161892	WORD	wordpools/wasnorm_wordpool_576.txt	LTP343	ltpFR2	23	20	OUTFIT	988	n/a	n/a	0	0	0
4164533	WORD	wordpools/wasnorm_wordpool_576.txt	LTP343	ltpFR2	23	20	DRESSER	496	n/a	n/a	0	0	0
4167192	WORD	wordpools/wasnorm_wordpool_576.txt	LTP343	ltpFR2	23	20	LUMBER	848	n/a	n/a	0	0	0
4169650	WORD	wordpools/wasnorm_wordpool_576.txt	LTP343	ltpFR2	23	20	BUCKLE	185	n/a	n/a	0	0	0
4172208	WORD	wordpools/wasnorm_wordpool_576.txt	LTP343	ltpFR2	23	20	DOUGHNUT	490	n/a	n/a	0	0	0
4174867	WORD	wordpools/wasnorm_wordpool_576.txt	LTP343	ltpFR2	23	20	DRESS	495	n/a	n/a	0	0	0
4177642	WORD	wordpools/wasnorm_wordpool_576.txt	LTP343	ltpFR2	23	20	CLOTHES	327	n/a	n/a	0	0	0
4180101	WORD	wordpools/wasnorm_wordpool_576.txt	LTP343	ltpFR2	23	20	CRATER	400	n/a	n/a	0	0	0
4182709	WORD	wordpools/wasnorm_wordpool_576.txt	LTP343	ltpFR2	23	20	PLUTO	1092	n/a	n/a	0	0	0
4185217	WORD	wordpools/wasnorm_wordpool_576.txt	LTP343	ltpFR2	23	20	FIREPLACE	570	n/a	n/a	0	0	0
4187926	WORD	wordpools/wasnorm_wordpool_576.txt	LTP343	ltpFR2	23	20	DUST	508	n/a	n/a	0	0	0
4190718	WORD	wordpools/wasnorm_wordpool_576.txt	LTP343	ltpFR2	23	20	YARN	1631	n/a	n/a	0	0	0
4193410	WORD	wordpools/wasnorm_wordpool_576.txt	LTP343	ltpFR2	23	20	PLUMBER	1091	n/a	n/a	0	0	0
4195835	WORD	wordpools/wasnorm_wordpool_576.txt	LTP343	ltpFR2	23	20	SOLDIER	1344	n/a	n/a	0	0	0
4198510	WORD	wordpools/wasnorm_wordpool_576.txt	LTP343	ltpFR2	23	20	PANTHER	1009	n/a	n/a	0	0	0
4200968	WORD	wordpools/wasnorm_wordpool_576.txt	LTP343	ltpFR2	23	20	SHAMPOO	1274	n/a	n/a	0	0	0
4203376	WORD	wordpools/wasnorm_wordpool_576.txt	LTP343	ltpFR2	23	20	CONVENT	370	n/a	n/a	0	0	0
4204981	START	n/a	LTP343	ltpFR2	23	n/a	n/a	n/a	31	n/a	n/a	n/a	n/a
4206063	DISTRACTOR	n/a	LTP343	ltpFR2	23	20	n/a	n/a	n/a	n/a	0	0	0
4206068	PROB	n/a	LTP343	ltpFR2	23	n/a	n/a	n/a	31	8	5	1	2
4207891	PROB	n/a	LTP343	ltpFR2	23	n/a	n/a	n/a	31	11	3	1	7
4209161	PROB	n/a	LTP343	ltpFR2	23	n/a	n/a	n/a	31	19	7	6	6
4210348	PROB	n/a	LTP343	ltpFR2	23	n/a	n/a	n/a	31	18	8	7	3
4211451	PROB	n/a	LTP343	ltpFR2	23	n/a	n/a	n/a	31	13	7	4	2
4212489	PROB	n/a	LTP343	ltpFR2	23	n/a	n/a	n/a	31	24	7	8	9
4215014	PROB	n/a	LTP343	ltpFR2	23	n/a	n/a	n/a	31	18	7	4	7
4216434	PROB	n/a	LTP343	ltpFR2	23	n/a	n/a	n/a	31	16	7	7	2
4217572	PROB	n/a	LTP343	ltpFR2	23	n/a	n/a	n/a	31	10	1	2	7
4218726	PROB	n/a	LTP343	ltpFR2	23	n/a	n/a	n/a	31	12	7	1	4
4219846	PROB	n/a	LTP343	ltpFR2	23	n/a	n/a	n/a	31	10	4	3	3
4221066	PROB	n/a	LTP343	ltpFR2	23	n/a	n/a	n/a	31	111	5	2	4
4222187	PROB	n/a	LTP343	ltpFR2	23	n/a	n/a	n/a	31	14	8	1	5
4223758	PROB	n/a	LTP343	ltpFR2	23	n/a	n/a	n/a	31	26	8	9	9
4225247	PROB	n/a	LTP343	ltpFR2	23	n/a	n/a	n/a	31	16	8	2	6
4226584	PROB	n/a	LTP343	ltpFR2	23	n/a	n/a	n/a	31	16	5	9	2
4227681	STOP	n/a	LTP343	ltpFR2	23	n/a	n/a	n/a	31	n/a	n/a	n/a	n/a
4230832	REC_START	n/a	LTP343	ltpFR2	23	20	n/a	n/a	n/a	n/a	0	0	0
4231265	REC_WORD	wordpools/wasnorm_wordpool_576.txt	LTP343	ltpFR2	23	20	SHOULDER	1294	n/a	n/a	0	0	0
4231988	REC_WORD	wordpools/wasnorm_wordpool_576.txt	LTP343	ltpFR2	23	20	SHAMPOO	1274	n/a	n/a	0	0	0
4233164	REC_WORD	wordpools/wasnorm_wordpool_576.txt	LTP343	ltpFR2	23	20	DUST	508	n/a	n/a	0	0	0
4233980	REC_WORD	wordpools/wasnorm_wordpool_576.txt	LTP343	ltpFR2	23	20	DRESSER	496	n/a	n/a	0	0	0
4235103	REC_WORD	wordpools/wasnorm_wordpool_576.txt	LTP343	ltpFR2	23	20	DRESS	495	n/a	n/a	0	0	0
