mstime	trial_type	stim_file	subject	experiment	session	trial	task	item_name	item_num	recog_resp	recog_conf	resp	color_r	color_g	color_b	case	font
0	SESS_START	n/a	LTP242	ltpFR	0	n/a	n/a	n/a	n/a	0	5	n/a	n/a	n/a	n/a	n/a	n/a
83848	WORD	wordpools/wasnorm_wordpool_less_exclusions.txt	LTP242	ltpFR	0	1	-1	MERMAID	887	1	4	-1	1.0	1.0	1	upper	Verdana.ttf
87834	WORD	wordpools/wasnorm_wordpool_less_exclusions.txt	LTP242	ltpFR	0	1	-1	EARTH	515	1	n/a	-1	1.0	1.0	1	upper	Verdana.ttf
91895	WORD	wordpools/wasnorm_wordpool_less_exclusions.txt	LTP242	ltpFR	0	1	-1	TANK	1432	n/a	n/a	-1	1.0	1.0	1	upper	Verdana.ttf
95864	WORD	wordpools/wasnorm_wordpool_less_exclusions.txt	LTP242	ltpFR	0	1	-1	SWIMMER	1420	n/a	n/a	-1	1.0	1.0	1	upper	Verdana.ttf
99913	WORD	wordpools/wasnorm_wordpool_less_exclusions.txt	LTP242	ltpFR	0	1	-1	HALL	677	n/a	n/a	-1	1.0	1.0	1	upper	Verdana.ttf
104012	WORD	wordpools/wasnorm_wordpool_less_exclusions.txt	LTP242	ltpFR	0	1	-1	CATCHER	258	n/a	n/a	-1	1.0	1.0	1	upper	Verdana.ttf
107893	WORD	wordpools/wasnorm_wordpool_less_exclusions.txt	LTP242	ltpFR	0	1	-1	DART	440	n/a	n/a	-1	1.0	1.0	1	upper	Verdana.ttf
111954	WORD	wordpools/wasnorm_wordpool_less_exclusions.txt	LTP242	ltpFR	0	1	-1	RUM	1217	n/a	n/a	-1	1.0	1.0	1	upper	Verdana.ttf
115852	WORD	wordpools/wasnorm_wordpool_less_exclusions.txt	LTP242	ltpFR	0	1	-1	KEG	770	n/a	n/a	-1	1.0	1.0	1	upper	Verdana.ttf
120019	WORD	wordpools/wasnorm_wordpool_less_exclusions.txt	LTP242	ltpFR	0	1	-1	JUPITER	765	n/a	n/a	-1	1.0	1.0	1	upper	Verdana.ttf
123853	WORD	wordpools/wasnorm_wordpool_less_exclusions.txt	LTP242	ltpFR	0	1	-1	WAREHOUSE	1588	n/a	n/a	-1	1.0	1.0	1	upper	Verdana.ttf
127684	WORD	wordpools/wasnorm_wordpool_less_exclusions.txt	LTP242	ltpFR	0	1	-1	CATERPILLAR	259	n/a	n/a	-1	1.0	1.0	1	upper	Verdana.ttf
131583	WORD	wordpools/wasnorm_wordpool_less_exclusions.txt	LTP242	ltpFR	0	1	-1	ANT	25	n/a	n/a	-1	1.0	1.0	1	upper	Verdana.ttf
135427	WORD	wordpools/wasnorm_wordpool_less_exclusions.txt	LTP242	ltpFR	0	1	-1	FOOTBALL	591	n/a	n/a	-1	1.0	1.0	1	upper	Verdana.ttf
139496	WORD	wordpools/wasnorm_wordpool_less_exclusions.txt	LTP242	ltpFR	0	1	-1	OX	994	n/a	n/a	-1	1.0	1.0	1	upper	Verdana.ttf
143508	WORD	wordpools/wasnorm_wordpool_less_exclusions.txt	LTP242	ltpFR	0	1	-1	GENERAL	630	n/a	n/a	-1	1.0	1.0	1	upper	Verdana.ttf
149451	REC_START	n/a	LTP242	ltpFR	0	1	n/a	n/a	n/a	n/a	n/a	n/a	n/a	n/a	n/a	n/a	n/a
150888	REC_WORD	wordpools/wasnorm_wordpool_less_exclusions.txt	LTP242	ltpFR	0	1	-1	DART	440	n/a	n/a	-1	n/a	n/a	n/a	n/a	n/a
151905	REC_WORD	wordpools/wasnorm_wordpool_less_exclusions.txt	LTP242	ltpFR	0	1	-1	KEG	770	n/a	n/a	-1	n/a	n/a	n/a	n/a	n/a
153127	REC_WORD	wordpools/wasnorm_wordpool_less_exclusions.txt	LTP242	ltpFR	0	1	-1	JUPITER	765	n/a	n/a	-1	n/a	n/a	n/a	n/a	n/a
154544	REC_WORD	wordpools/wasnorm_wordpool_less_exclusions.txt	LTP242	ltpFR	0	1	-1	ANT	25	n/a	n/a	-1	n/a	n/a	n/a	n/a	n/a
155552	REC_WORD	wordpools/wasnorm_wordpool_less_exclusions.txt	LTP242	ltpFR	0	1	-1	CATERPILLAR	259	n/a	n/a	-1	n/a	n/a	n/a	n/a	n/a
157158	REC_WORD	wordpools/wasnorm_wordpool_less_exclusions.txt	LTP242	ltpFR	0	1	-1	MERMAID	887	n/a	n/a	-1	n/a	n/a	n/a	n/a	n/a
158351	REC_WORD	wordpools/wasnorm_wordpool_less_exclusions.txt	LTP242	ltpFR	0	1	-1	EARTH	515	n/a	n/a	-1	n/a	n/a	n/a	n/a	n/a
161728	REC_WORD	wordpools/wasnorm_wordpool_less_exclusions.txt	LTP242	ltpFR	0	1	-1	TANK	1432	n/a	n/a	-1	n/a	n/a	n/a	n/a	n/a
162451	REC_WORD	wordpools/wasnorm_wordpool_less_exclusions.txt	LTP242	ltpFR	0	1	-1	SWIMMER	1420	n/a	n/a	-1	n/a	n/a	n/a	n/a	n/a
164093	REC_WORD	wordpools/wasnorm_wordpool_less_exclusions.txt	LTP242	ltpFR	0	1	-1	OX	994	n/a	n/a	-1	n/a	n/a	n/a	n/a	n/a
237265	WORD	wordpools/wasnorm_wordpool_less_exclusions.txt	LTP242	ltpFR	0	2	-1	CANARY	227	n/a	n/a	-1	1.0	1.0	1	upper	Verdana.ttf
241179	WORD	wordpools/wasnorm_wordpool_less_exclusions.txt	LTP242	ltpFR	0	2	-1	PERCH	1048	n/a	n/a	-1	1.0	1.0	1	upper	Verdana.ttf
245378	WORD	wordpools/wasnorm_wordpool_less_exclusions.txt	LTP242	ltpFR	0	2	-1	PUBLISHER	1137	n/a	n/a	-1	1.0	1.0	1	upper	Verdana.ttf
249561	WORD	wordpools/wasnorm_wordpool_less_exclusions.txt	LTP242	ltpFR	0	2	-1	SANDWICH	1232	n/a	n/a	-1	1.0	1.0	1	upper	Verdana.ttf
253589	WORD	wordpools/wasnorm_wordpool_less_exclusions.txt	LTP242	ltpFR	0	2	-1	COYOTE	396	n/a	n/a	-1	1.0	1.0	1	upper	Verdana.ttf
257591	WORD	wordpools/wasnorm_wordpool_less_exclusions.txt	LTP242	ltpFR	0	2	-1	ALMANAC	17	n/a	n/a	-1	1.0	1.0	1	upper	Verdana.ttf
261590	WORD	wordpools/wasnorm_wordpool_less_exclusions.txt	LTP242	ltpFR	0	2	-1	RUST	1219	n/a	n/a	-1	1.0	1.0	1	upper	Verdana.ttf
265704	WORD	wordpools/wasnorm_wordpool_less_exclusions.txt	LTP242	ltpFR	0	2	-1	BEAD	103	n/a	n/a	-1	1.0	1.0	1	upper	Verdana.ttf
269566	WORD	wordpools/wasnorm_wordpool_less_exclusions.txt	LTP242	ltpFR	0	2	-1	WINGS	1614	n/a	n/a	-1	1.0	1.0	1	upper	Verdana.ttf
273535	WORD	wordpools/wasnorm_wordpool_less_exclusions.txt	LTP242	ltpFR	0	2	-1	PUZZLE	1146	n/a	n/a	-1	1.0	1.0	1	upper	Verdana.ttf
277449	WORD	wordpools/wasnorm_wordpool_less_exclusions.txt	LTP242	ltpFR	0	2	-1	SWAMP	1416	n/a	n/a	-1	1.0	1.0	1	upper	Verdana.ttf
281598	WORD	wordpools/wasnorm_wordpool_less_exclusions.txt	LTP242	ltpFR	0	2	-1	CAFETERIA	217	n/a	n/a	-1	1.0	1.0	1	upper	Verdana.ttf
285614	WORD	wordpools/wasnorm_wordpool_less_exclusions.txt	LTP242	ltpFR	0	2	-1	PILOT	1070	n/a	n/a	-1	1.0	1.0	1	upper	Verdana.ttf
289828	WORD	wordpools/wasnorm_wordpool_less_exclusions.txt	LTP242	ltpFR	0	2	-1	FLY	586	n/a	n/a	-1	1.0	1.0	1	upper	Verdana.ttf
293844	WORD	wordpools/wasnorm_wordpool_less_exclusions.txt	LTP242	ltpFR	0	2	-1	BANJO	82	n/a	n/a	-1	1.0	1.0	1	upper	Verdana.ttf
297755	WORD	wordpools/wasnorm_wordpool_less_exclusions.txt	LTP242	ltpFR	0	2	-1	LEOPARD	812	n/a	n/a	-1	1.0	1.0	1	upper	Verdana.ttf
303761	REC_START	n/a	LTP242	ltpFR	0	2	n/a	n/a	n/a	n/a	n/a	n/a	n/a	n/a	n/a	n/a	n/a
305162	REC_WORD	wordpools/wasnorm_wordpool_less_exclusions.txt	LTP242	ltpFR	0	2	-1	LEOPARD	812	n/a	n/a	-1	n/a	n/a	n/a	n/a	n/a
308051	REC_WORD	wordpools/wasnorm_wordpool_less_exclusions.txt	LTP242	ltpFR	0	2	-1	COYOTE	396	n/a	n/a	-1	n/a	n/a	n/a	n/a	n/a
310216	REC_WORD	wordpools/wasnorm_wordpool_less_exclusions.txt	LTP242	ltpFR	0	2	-1	CANARY	227	n/a	n/a	-1	n/a	n/a	n/a	n/a	n/a
311094	REC_WORD_VV	wordpools/wasnorm_wordpool_less_exclusions.txt	LTP242	ltpFR	0	2	n/a	<>	-1	n/a	n/a	n/a	n/a	n/a	n/a	n/a	n/a
312356	REC_WORD	wordpools/wasnorm_wordpool_less_exclusions.txt	LTP242	ltpFR	0	2	-1	PERCH	1048	n/a	n/a	-1	n/a	n/a	n/a	n/a	n/a
315474	REC_WORD	wordpools/wasnorm_wordpool_less_exclusions.txt	LTP242	ltpFR	0	2	-1	CAFETERIA	217	n/a	n/a	-1	n/a	n/a	n/a	n/a	n/a
316884	REC_WORD	wordpools/wasnorm_wordpool_less_exclusions.txt	LTP242	ltpFR	0	2	-1	RUST	1219	n/a	n/a	-1	n/a	n/a	n/a	n/a	n/a
390442	WORD	wordpools/wasnorm_wordpool_less_exclusions.txt	LTP242	ltpFR	0	3	-1	CROSS	413	n/a	n/a	-1	1.0	1.0	1	upper	Verdana.ttf
394591	WORD	wordpools/wasnorm_wordpool_less_exclusions.txt	LTP242	ltpFR	0	3	-1	FUDGE	611	n/a	n/a	-1	1.0	1.0	1	upper	Verdana.ttf
398722	WORD	wordpools/wasnorm_wordpool_less_exclusions.txt	LTP242	ltpFR	0	3	-1	ICING	732	n/a	n/a	-1	1.0	1.0	1	upper	Verdana.ttf
402734	WORD	wordpools/wasnorm_wordpool_less_exclusions.txt	LTP242	ltpFR	0	3	-1	CHICKEN	297	n/a	n/a	-1	1.0	1.0	1	upper	Verdana.ttf
406736	WORD	wordpools/wasnorm_wordpool_less_exclusions.txt	LTP242	ltpFR	0	3	-1	TOE	1473	n/a	n/a	-1	1.0	1.0	1	upper	Verdana.ttf
410648	WORD	wordpools/wasnorm_wordpool_less_exclusions.txt	LTP242	ltpFR	0	3	-1	ANTENNA	28	n/a	n/a	-1	1.0	1.0	1	upper	Verdana.ttf
414616	WORD	wordpools/wasnorm_wordpool_less_exclusions.txt	LTP242	ltpFR	0	3	-1	BOLT	146	n/a	n/a	-1	1.0	1.0	1	upper	Verdana.ttf
418498	WORD	wordpools/wasnorm_wordpool_less_exclusions.txt	LTP242	ltpFR	0	3	-1	TUBE	1516	n/a	n/a	-1	1.0	1.0	1	upper	Verdana.ttf
422479	WORD	wordpools/wasnorm_wordpool_less_exclusions.txt	LTP242	ltpFR	0	3	-1	BUGGY	188	n/a	n/a	-1	1.0	1.0	1	upper	Verdana.ttf
426511	WORD	wordpools/wasnorm_wordpool_less_exclusions.txt	LTP242	ltpFR	0	3	-1	BIBLE	124	n/a	n/a	-1	1.0	1.0	1	upper	Verdana.ttf
430489	WORD	wordpools/wasnorm_wordpool_less_exclusions.txt	LTP242	ltpFR	0	3	-1	WALLET	1583	n/a	n/a	-1	1.0	1.0	1	upper	Verdana.ttf
434554	WORD	wordpools/wasnorm_wordpool_less_exclusions.txt	LTP242	ltpFR	0	3	-1	BANKER	84	n/a	n/a	-1	1.0	1.0	1	upper	Verdana.ttf
438624	WORD	wordpools/wasnorm_wordpool_less_exclusions.txt	LTP242	ltpFR	0	3	-1	CAPITAL	238	n/a	n/a	-1	1.0	1.0	1	upper	Verdana.ttf
442505	WORD	wordpools/wasnorm_wordpool_less_exclusions.txt	LTP242	ltpFR	0	3	-1	TAG	1429	n/a	n/a	-1	1.0	1.0	1	upper	Verdana.ttf
446386	WORD	wordpools/wasnorm_wordpool_less_exclusions.txt	LTP242	ltpFR	0	3	-1	MECHANIC	884	n/a	n/a	-1	1.0	1.0	1	upper	Verdana.ttf
450435	WORD	wordpools/wasnorm_wordpool_less_exclusions.txt	LTP242	ltpFR	0	3	-1	FOUNTAIN	597	n/a	n/a	-1	1.0	1.0	1	upper	Verdana.ttf
456107	REC_START	n/a	LTP242	ltpFR	0	3	n/a	n/a	n/a	n/a	n/a	n/a	n/a	n/a	n/a	n/a	n/a
457413	REC_WORD	wordpools/wasnorm_wordpool_less_exclusions.txt	LTP242	ltpFR	0	3	-1	WALLET	1583	n/a	n/a	-1	n/a	n/a	n/a	n/a	n/a
458890	REC_WORD	wordpools/wasnorm_wordpool_less_exclusions.txt	LTP242	ltpFR	0	3	-1	BANKER	84	n/a	n/a	-1	n/a	n/a	n/a	n/a	n/a
460048	REC_WORD	wordpools/wasnorm_wordpool_less_exclusions.txt	LTP242	ltpFR	0	3	-1	FOUNTAIN	597	n/a	n/a	-1	n/a	n/a	n/a	n/a	n/a
461490	REC_WORD	wordpools/wasnorm_wordpool_less_exclusions.txt	LTP242	ltpFR	0	3	-1	CAPITAL	238	n/a	n/a	-1	n/a	n/a	n/a	n/a	n/a
468079	REC_WORD	wordpools/wasnorm_wordpool_less_exclusions.txt	LTP242	ltpFR	0	3	-1	FUDGE	611	n/a	n/a	-1	n/a	n/a	n/a	n/a	n/a
469217	REC_WORD	wordpools/wasnorm_wordpool_less_exclusions.txt	LTP242	ltpFR	0	3	-1	ICING	732	n/a	n/a	-1	n/a	n/a	n/a	n/a	n/a
536626	WORD	wordpools/wasnorm_wordpool_less_exclusions.txt	LTP242	ltpFR	0	4	-1	DRYER	503	n/a	n/a	-1	1.0	1.0	1	upper	Verdana.ttf
540674	WORD	wordpools/wasnorm_wordpool_less_exclusions.txt	LTP242	ltpFR	0	4	-1	ATTIRE	57	n/a	n/a	-1	1.0	1.0	1	upper	Verdana.ttf
544873	WORD	wordpools/wasnorm_wordpool_less_exclusions.txt	LTP242	ltpFR	0	4	-1	DIRECTOR	471	n/a	n/a	-1	1.0	1.0	1	upper	Verdana.ttf
549073	WORD	wordpools/wasnorm_wordpool_less_exclusions.txt	LTP242	ltpFR	0	4	-1	PENGUIN	1044	n/a	n/a	-1	1.0	1.0	1	upper	Verdana.ttf
552988	WORD	wordpools/wasnorm_wordpool_less_exclusions.txt	LTP242	ltpFR	0	4	-1	PICKLE	1059	n/a	n/a	-1	1.0	1.0	1	upper	Verdana.ttf
556986	WORD	wordpools/wasnorm_wordpool_less_exclusions.txt	LTP242	ltpFR	0	4	-1	SHED	1277	n/a	n/a	-1	1.0	1.0	1	upper	Verdana.ttf
561035	WORD	wordpools/wasnorm_wordpool_less_exclusions.txt	LTP242	ltpFR	0	4	-1	DECK	443	n/a	n/a	-1	1.0	1.0	1	upper	Verdana.ttf
565083	WORD	wordpools/wasnorm_wordpool_less_exclusions.txt	LTP242	ltpFR	0	4	-1	DAUGHTER	442	n/a	n/a	-1	1.0	1.0	1	upper	Verdana.ttf
569032	WORD	wordpools/wasnorm_wordpool_less_exclusions.txt	LTP242	ltpFR	0	4	-1	TWIN	1528	n/a	n/a	-1	1.0	1.0	1	upper	Verdana.ttf
573197	WORD	wordpools/wasnorm_wordpool_less_exclusions.txt	LTP242	ltpFR	0	4	-1	COLESLAW	344	n/a	n/a	-1	1.0	1.0	1	upper	Verdana.ttf
577179	WORD	wordpools/wasnorm_wordpool_less_exclusions.txt	LTP242	ltpFR	0	4	-1	VIKING	1565	n/a	n/a	-1	1.0	1.0	1	upper	Verdana.ttf
581295	WORD	wordpools/wasnorm_wordpool_less_exclusions.txt	LTP242	ltpFR	0	4	-1	BACK	65	n/a	n/a	-1	1.0	1.0	1	upper	Verdana.ttf
585226	WORD	wordpools/wasnorm_wordpool_less_exclusions.txt	LTP242	ltpFR	0	4	-1	THRONE	1461	n/a	n/a	-1	1.0	1.0	1	upper	Verdana.ttf
589341	WORD	wordpools/wasnorm_wordpool_less_exclusions.txt	LTP242	ltpFR	0	4	-1	PRIEST	1122	n/a	n/a	-1	1.0	1.0	1	upper	Verdana.ttf
593173	WORD	wordpools/wasnorm_wordpool_less_exclusions.txt	LTP242	ltpFR	0	4	-1	FRIAR	605	n/a	n/a	-1	1.0	1.0	1	upper	Verdana.ttf
597288	WORD	wordpools/wasnorm_wordpool_less_exclusions.txt	LTP242	ltpFR	0	4	-1	PRINCE	1124	n/a	n/a	-1	1.0	1.0	1	upper	Verdana.ttf
603044	REC_START	n/a	LTP242	ltpFR	0	4	n/a	n/a	n/a	n/a	n/a	n/a	n/a	n/a	n/a	n/a	n/a
603892	REC_WORD	wordpools/wasnorm_wordpool_less_exclusions.txt	LTP242	ltpFR	0	4	-1	PRINCE	1124	n/a	n/a	-1	n/a	n/a	n/a	n/a	n/a
604816	REC_WORD	wordpools/wasnorm_wordpool_less_exclusions.txt	LTP242	ltpFR	0	4	-1	FRIAR	605	n/a	n/a	-1	n/a	n/a	n/a	n/a	n/a
606162	REC_WORD	wordpools/wasnorm_wordpool_less_exclusions.txt	LTP242	ltpFR	0	4	-1	PRIEST	1122	n/a	n/a	-1	n/a	n/a	n/a	n/a	n/a
608447	REC_WORD	wordpools/wasnorm_wordpool_less_exclusions.txt	LTP242	ltpFR	0	4	-1	DAUGHTER	442	n/a	n/a	-1	n/a	n/a	n/a	n/a	n/a
609489	REC_WORD	wordpools/wasnorm_wordpool_less_exclusions.txt	LTP242	ltpFR	0	4	-1	DECK	443	n/a	n/a	-1	n/a	n/a	n/a	n/a	n/a
610554	REC_WORD	wordpools/wasnorm_wordpool_less_exclusions.txt	LTP242	ltpFR	0	4	-1	TWIN	1528	n/a	n/a	-1	n/a	n/a	n/a	n/a	n/a
649643	REC_WORD	wordpools/wasnorm_wordpool_less_exclusions.txt	LTP242	ltpFR	0	4	-1	DRYER	503	n/a	n/a	-1	n/a	n/a	n/a	n/a	n/a
651389	REC_WORD	wordpools/wasnorm_wordpool_less_exclusions.txt	LTP242	ltpFR	0	4	-1	PENGUIN	1044	n/a	n/a	-1	n/a	n/a	n/a	n/a	n/a
653866	REC_WORD	wordpools/wasnorm_wordpool_less_exclusions.txt	LTP242	ltpFR	0	4	-1	ATTIRE	57	n/a	n/a	-1	n/a	n/a	n/a	n/a	n/a
1036911	WORD	wordpools/wasnorm_wordpool_less_exclusions.txt	LTP242	ltpFR	0	5	0	KIWI	781	n/a	n/a	0	0.422607421875	0.5869140625	0	lower	zerothre.ttf
1040742	WORD	wordpools/wasnorm_wordpool_less_exclusions.txt	LTP242	ltpFR	0	5	0	SERVER	1272	n/a	n/a	n/a	0.422607421875	0.5869140625	0	lower	zerothre.ttf
1043787	SLOW_MSG	n/a	LTP242	ltpFR	0	5	n/a	n/a	n/a	n/a	n/a	n/a	n/a	n/a	n/a	n/a	n/a
1046193	WORD	wordpools/wasnorm_wordpool_less_exclusions.txt	LTP242	ltpFR	0	5	0	CRUMB	416	n/a	n/a	0	0.422607421875	0.5869140625	0	lower	zerothre.ttf
1050162	WORD	wordpools/wasnorm_wordpool_less_exclusions.txt	LTP242	ltpFR	0	5	0	STRAWBERRY	1391	n/a	n/a	0	0.422607421875	0.5869140625	0	lower	zerothre.ttf
1054361	WORD	wordpools/wasnorm_wordpool_less_exclusions.txt	LTP242	ltpFR	0	5	0	SQUID	1361	n/a	n/a	1	0.422607421875	0.5869140625	0	lower	zerothre.ttf
1058209	WORD	wordpools/wasnorm_wordpool_less_exclusions.txt	LTP242	ltpFR	0	5	0	LOBSTER	837	n/a	n/a	0	0.422607421875	0.5869140625	0	lower	zerothre.ttf
1062140	WORD	wordpools/wasnorm_wordpool_less_exclusions.txt	LTP242	ltpFR	0	5	0	TRIBE	1505	n/a	n/a	1	0.422607421875	0.5869140625	0	lower	zerothre.ttf
1066256	WORD	wordpools/wasnorm_wordpool_less_exclusions.txt	LTP242	ltpFR	0	5	0	FORT	595	n/a	n/a	1	0.422607421875	0.5869140625	0	lower	zerothre.ttf
1070234	WORD	wordpools/wasnorm_wordpool_less_exclusions.txt	LTP242	ltpFR	0	5	0	BEAN	105	n/a	n/a	0	0.422607421875	0.5869140625	0	lower	zerothre.ttf
1074215	WORD	wordpools/wasnorm_wordpool_less_exclusions.txt	LTP242	ltpFR	0	5	0	CAFE	216	n/a	n/a	1	0.422607421875	0.5869140625	0	lower	zerothre.ttf
1078201	WORD	wordpools/wasnorm_wordpool_less_exclusions.txt	LTP242	ltpFR	0	5	0	SCOUT	1252	n/a	n/a	1	0.422607421875	0.5869140625	0	lower	zerothre.ttf
1082128	WORD	wordpools/wasnorm_wordpool_less_exclusions.txt	LTP242	ltpFR	0	5	0	GARDEN	623	n/a	n/a	1	0.422607421875	0.5869140625	0	lower	zerothre.ttf
1086261	WORD	wordpools/wasnorm_wordpool_less_exclusions.txt	LTP242	ltpFR	0	5	0	GRAPE	654	n/a	n/a	0	0.422607421875	0.5869140625	0	lower	zerothre.ttf
1090343	WORD	wordpools/wasnorm_wordpool_less_exclusions.txt	LTP242	ltpFR	0	5	0	VILLAGE	1566	n/a	n/a	1	0.422607421875	0.5869140625	0	lower	zerothre.ttf
1094177	WORD	wordpools/wasnorm_wordpool_less_exclusions.txt	LTP242	ltpFR	0	5	0	MARKET	871	n/a	n/a	1	0.422607421875	0.5869140625	0	lower	zerothre.ttf
1098109	WORD	wordpools/wasnorm_wordpool_less_exclusions.txt	LTP242	ltpFR	0	5	0	CAULIFLOWER	262	n/a	n/a	0	0.422607421875	0.5869140625	0	lower	zerothre.ttf
1103914	REC_START	n/a	LTP242	ltpFR	0	5	n/a	n/a	n/a	n/a	n/a	n/a	n/a	n/a	n/a	n/a	n/a
1105206	REC_WORD	wordpools/wasnorm_wordpool_less_exclusions.txt	LTP242	ltpFR	0	5	0	CAULIFLOWER	262	n/a	n/a	0	n/a	n/a	n/a	n/a	n/a
1106388	REC_WORD	wordpools/wasnorm_wordpool_less_exclusions.txt	LTP242	ltpFR	0	5	0	MARKET	871	n/a	n/a	1	n/a	n/a	n/a	n/a	n/a
1109561	REC_WORD	wordpools/wasnorm_wordpool_less_exclusions.txt	LTP242	ltpFR	0	5	0	STRAWBERRY	1391	n/a	n/a	0	n/a	n/a	n/a	n/a	n/a
1110663	REC_WORD_VV	wordpools/wasnorm_wordpool_less_exclusions.txt	LTP242	ltpFR	0	5	n/a	<>	-1	n/a	n/a	n/a	n/a	n/a	n/a	n/a	n/a
1112863	REC_WORD	wordpools/wasnorm_wordpool_less_exclusions.txt	LTP242	ltpFR	0	5	0	GRAPE	654	n/a	n/a	0	n/a	n/a	n/a	n/a	n/a
1116255	REC_WORD	wordpools/wasnorm_wordpool_less_exclusions.txt	LTP242	ltpFR	0	5	0	VILLAGE	1566	n/a	n/a	1	n/a	n/a	n/a	n/a	n/a
1117353	REC_WORD	wordpools/wasnorm_wordpool_less_exclusions.txt	LTP242	ltpFR	0	5	0	TRIBE	1505	n/a	n/a	1	n/a	n/a	n/a	n/a	n/a
1131923	REC_WORD	wordpools/wasnorm_wordpool_less_exclusions.txt	LTP242	ltpFR	0	5	0	LOBSTER	837	n/a	n/a	0	n/a	n/a	n/a	n/a	n/a
1136086	REC_WORD	wordpools/wasnorm_wordpool_less_exclusions.txt	LTP242	ltpFR	0	5	0	SQUID	1361	n/a	n/a	1	n/a	n/a	n/a	n/a	n/a
1185839	WORD	wordpools/wasnorm_wordpool_less_exclusions.txt	LTP242	ltpFR	0	6	0	BONE	148	n/a	n/a	0	0.422607421875	0.5869140625	0	lower	zerothre.ttf
1189854	WORD	wordpools/wasnorm_wordpool_less_exclusions.txt	LTP242	ltpFR	0	6	0	PAD	998	n/a	n/a	0	0.422607421875	0.5869140625	0	lower	zerothre.ttf
1193953	WORD	wordpools/wasnorm_wordpool_less_exclusions.txt	LTP242	ltpFR	0	6	0	CAMEL	223	n/a	n/a	1	0.422607421875	0.5869140625	0	lower	zerothre.ttf
1197930	WORD	wordpools/wasnorm_wordpool_less_exclusions.txt	LTP242	ltpFR	0	6	0	RASPBERRY	1168	n/a	n/a	0	0.422607421875	0.5869140625	0	lower	zerothre.ttf
1202030	WORD	wordpools/wasnorm_wordpool_less_exclusions.txt	LTP242	ltpFR	0	6	0	POTATO	1115	n/a	n/a	0	0.422607421875	0.5869140625	0	lower	zerothre.ttf
1206216	WORD	wordpools/wasnorm_wordpool_less_exclusions.txt	LTP242	ltpFR	0	6	0	BAKER	71	n/a	n/a	1	0.422607421875	0.5869140625	0	lower	zerothre.ttf
1210282	WORD	wordpools/wasnorm_wordpool_less_exclusions.txt	LTP242	ltpFR	0	6	0	BUTTER	205	n/a	n/a	0	0.422607421875	0.5869140625	0	lower	zerothre.ttf
1214263	WORD	wordpools/wasnorm_wordpool_less_exclusions.txt	LTP242	ltpFR	0	6	0	JOKER	759	n/a	n/a	1	0.422607421875	0.5869140625	0	lower	zerothre.ttf
1218212	WORD	wordpools/wasnorm_wordpool_less_exclusions.txt	LTP242	ltpFR	0	6	0	MAGNET	855	n/a	n/a	0	0.422607421875	0.5869140625	0	lower	zerothre.ttf
1222294	WORD	wordpools/wasnorm_wordpool_less_exclusions.txt	LTP242	ltpFR	0	6	0	CIGAR	308	n/a	n/a	0	0.422607421875	0.5869140625	0	lower	zerothre.ttf
1226292	WORD	wordpools/wasnorm_wordpool_less_exclusions.txt	LTP242	ltpFR	0	6	0	BOXER	160	n/a	n/a	1	0.422607421875	0.5869140625	0	lower	zerothre.ttf
1230374	WORD	wordpools/wasnorm_wordpool_less_exclusions.txt	LTP242	ltpFR	0	6	0	EMPEROR	529	n/a	n/a	1	0.422607421875	0.5869140625	0	lower	zerothre.ttf
1234439	WORD	wordpools/wasnorm_wordpool_less_exclusions.txt	LTP242	ltpFR	0	6	0	QUEEN	1149	n/a	n/a	1	0.422607421875	0.5869140625	0	lower	zerothre.ttf
1238287	WORD	wordpools/wasnorm_wordpool_less_exclusions.txt	LTP242	ltpFR	0	6	0	CALF	222	n/a	n/a	1	0.422607421875	0.5869140625	0	lower	zerothre.ttf
1242453	WORD	wordpools/wasnorm_wordpool_less_exclusions.txt	LTP242	ltpFR	0	6	0	KLEENEX	782	n/a	n/a	0	0.422607421875	0.5869140625	0	lower	zerothre.ttf
1246585	WORD	wordpools/wasnorm_wordpool_less_exclusions.txt	LTP242	ltpFR	0	6	0	WOLF	1619	n/a	n/a	1	0.422607421875	0.5869140625	0	lower	zerothre.ttf
1252375	REC_START	n/a	LTP242	ltpFR	0	6	n/a	n/a	n/a	n/a	n/a	n/a	n/a	n/a	n/a	n/a	n/a
1253148	REC_WORD	wordpools/wasnorm_wordpool_less_exclusions.txt	LTP242	ltpFR	0	6	0	WOLF	1619	n/a	n/a	1	n/a	n/a	n/a	n/a	n/a
1254021	REC_WORD	wordpools/wasnorm_wordpool_less_exclusions.txt	LTP242	ltpFR	0	6	0	KLEENEX	782	n/a	n/a	0	n/a	n/a	n/a	n/a	n/a
1255203	REC_WORD	wordpools/wasnorm_wordpool_less_exclusions.txt	LTP242	ltpFR	0	6	0	QUEEN	1149	n/a	n/a	1	n/a	n/a	n/a	n/a	n/a
1257069	REC_WORD	wordpools/wasnorm_wordpool_less_exclusions.txt	LTP242	ltpFR	0	6	0	JOKER	759	n/a	n/a	1	n/a	n/a	n/a	n/a	n/a
1260816	REC_WORD	wordpools/wasnorm_wordpool_less_exclusions.txt	LTP242	ltpFR	0	6	0	RASPBERRY	1168	n/a	n/a	0	n/a	n/a	n/a	n/a	n/a
1270743	REC_WORD	wordpools/wasnorm_wordpool_less_exclusions.txt	LTP242	ltpFR	0	6	0	BAKER	71	n/a	n/a	1	n/a	n/a	n/a	n/a	n/a
1278206	REC_WORD	wordpools/wasnorm_wordpool_less_exclusions.txt	LTP242	ltpFR	0	6	0	MAGNET	855	n/a	n/a	0	n/a	n/a	n/a	n/a	n/a
1332041	WORD	wordpools/wasnorm_wordpool_less_exclusions.txt	LTP242	ltpFR	0	7	0	DOG	480	n/a	n/a	1	0.422607421875	0.5869140625	0	lower	zerothre.ttf
1335871	WORD	wordpools/wasnorm_wordpool_less_exclusions.txt	LTP242	ltpFR	0	7	0	MINK	897	n/a	n/a	1	0.422607421875	0.5869140625	0	lower	zerothre.ttf
1339936	WORD	wordpools/wasnorm_wordpool_less_exclusions.txt	LTP242	ltpFR	0	7	0	PASTRY	1022	n/a	n/a	0	0.422607421875	0.5869140625	0	lower	zerothre.ttf
1344086	WORD	wordpools/wasnorm_wordpool_less_exclusions.txt	LTP242	ltpFR	0	7	0	ABDOMEN	1	n/a	n/a	1	0.422607421875	0.5869140625	0	lower	zerothre.ttf
1348215	WORD	wordpools/wasnorm_wordpool_less_exclusions.txt	LTP242	ltpFR	0	7	0	SCENERY	1247	n/a	n/a	n/a	0.422607421875	0.5869140625	0	lower	zerothre.ttf
1351263	SLOW_MSG	n/a	LTP242	ltpFR	0	7	n/a	n/a	n/a	n/a	n/a	n/a	n/a	n/a	n/a	n/a	n/a
1353956	WORD	wordpools/wasnorm_wordpool_less_exclusions.txt	LTP242	ltpFR	0	7	0	SHIP	1286	n/a	n/a	1	0.422607421875	0.5869140625	0	lower	zerothre.ttf
1357787	WORD	wordpools/wasnorm_wordpool_less_exclusions.txt	LTP242	ltpFR	0	7	0	SUIT	1402	n/a	n/a	1	0.422607421875	0.5869140625	0	lower	zerothre.ttf
1361798	WORD	wordpools/wasnorm_wordpool_less_exclusions.txt	LTP242	ltpFR	0	7	0	TIE	1466	n/a	n/a	0	0.422607421875	0.5869140625	0	lower	zerothre.ttf
1365651	WORD	wordpools/wasnorm_wordpool_less_exclusions.txt	LTP242	ltpFR	0	7	0	CHEF	290	n/a	n/a	1	0.422607421875	0.5869140625	0	lower	zerothre.ttf
1369665	WORD	wordpools/wasnorm_wordpool_less_exclusions.txt	LTP242	ltpFR	0	7	0	CHIEF	298	n/a	n/a	1	0.422607421875	0.5869140625	0	lower	zerothre.ttf
1373697	WORD	wordpools/wasnorm_wordpool_less_exclusions.txt	LTP242	ltpFR	0	7	0	FLASK	576	n/a	n/a	0	0.422607421875	0.5869140625	0	lower	zerothre.ttf
1377729	WORD	wordpools/wasnorm_wordpool_less_exclusions.txt	LTP242	ltpFR	0	7	0	HOME	712	n/a	n/a	1	0.422607421875	0.5869140625	0	lower	zerothre.ttf
1381628	WORD	wordpools/wasnorm_wordpool_less_exclusions.txt	LTP242	ltpFR	0	7	0	ARCHITECT	36	n/a	n/a	1	0.422607421875	0.5869140625	0	lower	zerothre.ttf
1385822	WORD	wordpools/wasnorm_wordpool_less_exclusions.txt	LTP242	ltpFR	0	7	0	CAPTAIN	239	n/a	n/a	1	0.422607421875	0.5869140625	0	lower	zerothre.ttf
1389654	WORD	wordpools/wasnorm_wordpool_less_exclusions.txt	LTP242	ltpFR	0	7	0	PRAIRIE	1118	n/a	n/a	1	0.422607421875	0.5869140625	0	lower	zerothre.ttf
1393756	WORD	wordpools/wasnorm_wordpool_less_exclusions.txt	LTP242	ltpFR	0	7	0	JACKET	747	n/a	n/a	1	0.422607421875	0.5869140625	0	lower	zerothre.ttf
1399512	REC_START	n/a	LTP242	ltpFR	0	7	n/a	n/a	n/a	n/a	n/a	n/a	n/a	n/a	n/a	n/a	n/a
1400589	REC_WORD	wordpools/wasnorm_wordpool_less_exclusions.txt	LTP242	ltpFR	0	7	0	JACKET	747	n/a	n/a	1	n/a	n/a	n/a	n/a	n/a
1401383	REC_WORD	wordpools/wasnorm_wordpool_less_exclusions.txt	LTP242	ltpFR	0	7	0	PRAIRIE	1118	n/a	n/a	1	n/a	n/a	n/a	n/a	n/a
1402874	REC_WORD	wordpools/wasnorm_wordpool_less_exclusions.txt	LTP242	ltpFR	0	7	0	CHIEF	298	n/a	n/a	1	n/a	n/a	n/a	n/a	n/a
1404979	REC_WORD	wordpools/wasnorm_wordpool_less_exclusions.txt	LTP242	ltpFR	0	7	0	CHEF	290	n/a	n/a	1	n/a	n/a	n/a	n/a	n/a
1407613	REC_WORD	wordpools/wasnorm_wordpool_less_exclusions.txt	LTP242	ltpFR	0	7	0	DOG	480	n/a	n/a	1	n/a	n/a	n/a	n/a	n/a
1411983	REC_WORD	wordpools/wasnorm_wordpool_less_exclusions.txt	LTP242	ltpFR	0	7	0	SCENERY	1247	n/a	n/a	n/a	n/a	n/a	n/a	n/a	n/a
1483461	WORD	wordpools/wasnorm_wordpool_less_exclusions.txt	LTP242	ltpFR	0	8	0	MATCH	878	n/a	n/a	0	0.422607421875	0.5869140625	0	lower	zerothre.ttf
1487339	WORD	wordpools/wasnorm_wordpool_less_exclusions.txt	LTP242	ltpFR	0	8	0	LAMP	798	n/a	n/a	1	0.422607421875	0.5869140625	0	lower	zerothre.ttf
1491241	WORD	wordpools/wasnorm_wordpool_less_exclusions.txt	LTP242	ltpFR	0	8	0	GOLD	647	n/a	n/a	0	0.422607421875	0.5869140625	0	lower	zerothre.ttf
1495306	WORD	wordpools/wasnorm_wordpool_less_exclusions.txt	LTP242	ltpFR	0	8	0	SHELF	1280	n/a	n/a	1	0.422607421875	0.5869140625	0	lower	zerothre.ttf
1499304	WORD	wordpools/wasnorm_wordpool_less_exclusions.txt	LTP242	ltpFR	0	8	0	SCAPEGOAT	1244	n/a	n/a	1	0.422607421875	0.5869140625	0	lower	zerothre.ttf
1503403	WORD	wordpools/wasnorm_wordpool_less_exclusions.txt	LTP242	ltpFR	0	8	0	VEST	1559	n/a	n/a	1	0.422607421875	0.5869140625	0	lower	zerothre.ttf
1507368	WORD	wordpools/wasnorm_wordpool_less_exclusions.txt	LTP242	ltpFR	0	8	0	SKETCH	1315	n/a	n/a	0	0.422607421875	0.5869140625	0	lower	zerothre.ttf
1511199	WORD	wordpools/wasnorm_wordpool_less_exclusions.txt	LTP242	ltpFR	0	8	0	ZUCCHINI	1638	n/a	n/a	0	0.422607421875	0.5869140625	0	lower	zerothre.ttf
1515365	WORD	wordpools/wasnorm_wordpool_less_exclusions.txt	LTP242	ltpFR	0	8	0	RECIPE	1175	n/a	n/a	0	0.422607421875	0.5869140625	0	lower	zerothre.ttf
1519280	WORD	wordpools/wasnorm_wordpool_less_exclusions.txt	LTP242	ltpFR	0	8	0	FUR	615	n/a	n/a	0	0.422607421875	0.5869140625	0	lower	zerothre.ttf
1523228	WORD	wordpools/wasnorm_wordpool_less_exclusions.txt	LTP242	ltpFR	0	8	0	TAVERN	1437	n/a	n/a	1	0.422607421875	0.5869140625	0	lower	zerothre.ttf
1527394	WORD	wordpools/wasnorm_wordpool_less_exclusions.txt	LTP242	ltpFR	0	8	0	DUMP	505	n/a	n/a	0	0.422607421875	0.5869140625	0	lower	zerothre.ttf
1531388	WORD	wordpools/wasnorm_wordpool_less_exclusions.txt	LTP242	ltpFR	0	8	0	LITTER	832	n/a	n/a	0	0.422607421875	0.5869140625	0	lower	zerothre.ttf
1535374	WORD	wordpools/wasnorm_wordpool_less_exclusions.txt	LTP242	ltpFR	0	8	0	COOLER	375	n/a	n/a	0	0.422607421875	0.5869140625	0	lower	zerothre.ttf
1539422	WORD	wordpools/wasnorm_wordpool_less_exclusions.txt	LTP242	ltpFR	0	8	0	TENT	1449	n/a	n/a	1	0.422607421875	0.5869140625	0	lower	zerothre.ttf
1543304	WORD	wordpools/wasnorm_wordpool_less_exclusions.txt	LTP242	ltpFR	0	8	0	TRENCH	1503	n/a	n/a	1	0.422607421875	0.5869140625	0	lower	zerothre.ttf
1549126	REC_START	n/a	LTP242	ltpFR	0	8	n/a	n/a	n/a	n/a	n/a	n/a	n/a	n/a	n/a	n/a	n/a
1551191	REC_WORD	wordpools/wasnorm_wordpool_less_exclusions.txt	LTP242	ltpFR	0	8	0	TRENCH	1503	n/a	n/a	1	n/a	n/a	n/a	n/a	n/a
1552378	REC_WORD	wordpools/wasnorm_wordpool_less_exclusions.txt	LTP242	ltpFR	0	8	0	COOLER	375	n/a	n/a	0	n/a	n/a	n/a	n/a	n/a
1630532	WORD	wordpools/wasnorm_wordpool_less_exclusions.txt	LTP242	ltpFR	0	9	1	BUG	187	n/a	n/a	2	0.57763671875	0.412841796875	1	upper	amplitud.ttf
1631569	KEY_MSG	n/a	LTP242	ltpFR	0	9	n/a	n/a	n/a	n/a	n/a	n/a	n/a	n/a	n/a	n/a	n/a
1634644	WORD	wordpools/wasnorm_wordpool_less_exclusions.txt	LTP242	ltpFR	0	9	1	GRASSHOPPER	656	n/a	n/a	1	0.57763671875	0.412841796875	1	upper	amplitud.ttf
1638646	WORD	wordpools/wasnorm_wordpool_less_exclusions.txt	LTP242	ltpFR	0	9	1	CUSHION	428	n/a	n/a	0	0.57763671875	0.412841796875	1	upper	amplitud.ttf
1642628	WORD	wordpools/wasnorm_wordpool_less_exclusions.txt	LTP242	ltpFR	0	9	1	MINER	896	n/a	n/a	1	0.57763671875	0.412841796875	1	upper	amplitud.ttf
1646709	WORD	wordpools/wasnorm_wordpool_less_exclusions.txt	LTP242	ltpFR	0	9	1	EARRING	514	n/a	n/a	0	0.57763671875	0.412841796875	1	upper	amplitud.ttf
1650841	WORD	wordpools/wasnorm_wordpool_less_exclusions.txt	LTP242	ltpFR	0	9	1	EDITOR	516	n/a	n/a	1	0.57763671875	0.412841796875	1	upper	amplitud.ttf
1654923	WORD	wordpools/wasnorm_wordpool_less_exclusions.txt	LTP242	ltpFR	0	9	1	PAGE	1001	n/a	n/a	0	0.57763671875	0.412841796875	1	upper	amplitud.ttf
1659123	WORD	wordpools/wasnorm_wordpool_less_exclusions.txt	LTP242	ltpFR	0	9	1	CARPET	247	n/a	n/a	0	0.57763671875	0.412841796875	1	upper	amplitud.ttf
1663055	WORD	wordpools/wasnorm_wordpool_less_exclusions.txt	LTP242	ltpFR	0	9	1	ENGINEER	536	n/a	n/a	1	0.57763671875	0.412841796875	1	upper	amplitud.ttf
1667120	WORD	wordpools/wasnorm_wordpool_less_exclusions.txt	LTP242	ltpFR	0	9	1	TRAY	1498	n/a	n/a	0	0.57763671875	0.412841796875	1	upper	amplitud.ttf
1671115	WORD	wordpools/wasnorm_wordpool_less_exclusions.txt	LTP242	ltpFR	0	9	1	CARPENTER	246	n/a	n/a	1	0.57763671875	0.412841796875	1	upper	amplitud.ttf
1675017	WORD	wordpools/wasnorm_wordpool_less_exclusions.txt	LTP242	ltpFR	0	9	1	BEAR	106	n/a	n/a	1	0.57763671875	0.412841796875	1	upper	amplitud.ttf
1679132	WORD	wordpools/wasnorm_wordpool_less_exclusions.txt	LTP242	ltpFR	0	9	1	SKYSCRAPER	1322	n/a	n/a	0	0.57763671875	0.412841796875	1	upper	amplitud.ttf
1683114	WORD	wordpools/wasnorm_wordpool_less_exclusions.txt	LTP242	ltpFR	0	9	1	GROCERIES	663	n/a	n/a	0	0.57763671875	0.412841796875	1	upper	amplitud.ttf
1687192	WORD	wordpools/wasnorm_wordpool_less_exclusions.txt	LTP242	ltpFR	0	9	1	ARTERY	41	n/a	n/a	n/a	0.57763671875	0.412841796875	1	upper	amplitud.ttf
1690241	SLOW_MSG	n/a	LTP242	ltpFR	0	9	n/a	n/a	n/a	n/a	n/a	n/a	n/a	n/a	n/a	n/a	n/a
1692929	WORD	wordpools/wasnorm_wordpool_less_exclusions.txt	LTP242	ltpFR	0	9	1	SUBWAY	1400	n/a	n/a	0	0.57763671875	0.412841796875	1	upper	amplitud.ttf
1698786	REC_START	n/a	LTP242	ltpFR	0	9	n/a	n/a	n/a	n/a	n/a	n/a	n/a	n/a	n/a	n/a	n/a
1699774	REC_WORD	wordpools/wasnorm_wordpool_less_exclusions.txt	LTP242	ltpFR	0	9	1	SUBWAY	1400	n/a	n/a	0	n/a	n/a	n/a	n/a	n/a
1701310	REC_WORD	wordpools/wasnorm_wordpool_less_exclusions.txt	LTP242	ltpFR	0	9	1	PAGE	1001	n/a	n/a	0	n/a	n/a	n/a	n/a	n/a
1702911	REC_WORD	wordpools/wasnorm_wordpool_less_exclusions.txt	LTP242	ltpFR	0	9	1	ARTERY	41	n/a	n/a	n/a	n/a	n/a	n/a	n/a	n/a
1705166	REC_WORD	wordpools/wasnorm_wordpool_less_exclusions.txt	LTP242	ltpFR	0	9	1	ENGINEER	536	n/a	n/a	1	n/a	n/a	n/a	n/a	n/a
1708663	REC_WORD	wordpools/wasnorm_wordpool_less_exclusions.txt	LTP242	ltpFR	0	9	1	CARPENTER	246	n/a	n/a	1	n/a	n/a	n/a	n/a	n/a
1713323	REC_WORD	wordpools/wasnorm_wordpool_less_exclusions.txt	LTP242	ltpFR	0	9	1	GRASSHOPPER	656	n/a	n/a	1	n/a	n/a	n/a	n/a	n/a
1717294	REC_WORD	wordpools/wasnorm_wordpool_less_exclusions.txt	LTP242	ltpFR	0	9	1	BUG	187	n/a	n/a	2	n/a	n/a	n/a	n/a	n/a
1732454	REC_WORD	wordpools/wasnorm_wordpool_less_exclusions.txt	LTP242	ltpFR	0	9	1	EDITOR	516	n/a	n/a	1	n/a	n/a	n/a	n/a	n/a
1778823	WORD	wordpools/wasnorm_wordpool_less_exclusions.txt	LTP242	ltpFR	0	10	1	CLIFF	322	n/a	n/a	0	0.57763671875	0.412841796875	1	upper	amplitud.ttf
1782839	WORD	wordpools/wasnorm_wordpool_less_exclusions.txt	LTP242	ltpFR	0	10	1	PRODUCER	1129	n/a	n/a	1	0.57763671875	0.412841796875	1	upper	amplitud.ttf
1786753	WORD	wordpools/wasnorm_wordpool_less_exclusions.txt	LTP242	ltpFR	0	10	1	SCOTCH	1251	n/a	n/a	0	0.57763671875	0.412841796875	1	upper	amplitud.ttf
1790735	WORD	wordpools/wasnorm_wordpool_less_exclusions.txt	LTP242	ltpFR	0	10	1	GLASSES	640	n/a	n/a	0	0.57763671875	0.412841796875	1	upper	amplitud.ttf
1794601	WORD	wordpools/wasnorm_wordpool_less_exclusions.txt	LTP242	ltpFR	0	10	1	MONARCH	906	n/a	n/a	0	0.57763671875	0.412841796875	1	upper	amplitud.ttf
1798765	WORD	wordpools/wasnorm_wordpool_less_exclusions.txt	LTP242	ltpFR	0	10	1	ACORN	3	n/a	n/a	0	0.57763671875	0.412841796875	1	upper	amplitud.ttf
1802864	WORD	wordpools/wasnorm_wordpool_less_exclusions.txt	LTP242	ltpFR	0	10	1	FINGER	567	n/a	n/a	1	0.57763671875	0.412841796875	1	upper	amplitud.ttf
1807077	WORD	wordpools/wasnorm_wordpool_less_exclusions.txt	LTP242	ltpFR	0	10	1	CREEK	404	n/a	n/a	0	0.57763671875	0.412841796875	1	upper	amplitud.ttf
1811126	WORD	wordpools/wasnorm_wordpool_less_exclusions.txt	LTP242	ltpFR	0	10	1	BARRACUDA	90	n/a	n/a	1	0.57763671875	0.412841796875	1	upper	amplitud.ttf
1815245	WORD	wordpools/wasnorm_wordpool_less_exclusions.txt	LTP242	ltpFR	0	10	1	SLOPE	1328	n/a	n/a	0	0.57763671875	0.412841796875	1	upper	amplitud.ttf
1819227	WORD	wordpools/wasnorm_wordpool_less_exclusions.txt	LTP242	ltpFR	0	10	1	CONSOLE	364	n/a	n/a	0	0.57763671875	0.412841796875	1	upper	amplitud.ttf
1823392	WORD	wordpools/wasnorm_wordpool_less_exclusions.txt	LTP242	ltpFR	0	10	1	LEAF	808	n/a	n/a	0	0.57763671875	0.412841796875	1	upper	amplitud.ttf
1827437	WORD	wordpools/wasnorm_wordpool_less_exclusions.txt	LTP242	ltpFR	0	10	1	RODENT	1204	n/a	n/a	1	0.57763671875	0.412841796875	1	upper	amplitud.ttf
1831285	WORD	wordpools/wasnorm_wordpool_less_exclusions.txt	LTP242	ltpFR	0	10	1	MOUSE	925	n/a	n/a	1	0.57763671875	0.412841796875	1	upper	amplitud.ttf
1835254	WORD	wordpools/wasnorm_wordpool_less_exclusions.txt	LTP242	ltpFR	0	10	1	RAFT	1159	n/a	n/a	0	0.57763671875	0.412841796875	1	upper	amplitud.ttf
1839118	WORD	wordpools/wasnorm_wordpool_less_exclusions.txt	LTP242	ltpFR	0	10	1	SEA	1259	n/a	n/a	0	0.57763671875	0.412841796875	1	upper	amplitud.ttf
1844823	REC_START	n/a	LTP242	ltpFR	0	10	n/a	n/a	n/a	n/a	n/a	n/a	n/a	n/a	n/a	n/a	n/a
1845592	REC_WORD	wordpools/wasnorm_wordpool_less_exclusions.txt	LTP242	ltpFR	0	10	1	CLIFF	322	n/a	n/a	0	n/a	n/a	n/a	n/a	n/a
1846666	REC_WORD	wordpools/wasnorm_wordpool_less_exclusions.txt	LTP242	ltpFR	0	10	1	RODENT	1204	n/a	n/a	1	n/a	n/a	n/a	n/a	n/a
1850600	REC_WORD	wordpools/wasnorm_wordpool_less_exclusions.txt	LTP242	ltpFR	0	10	1	MOUSE	925	n/a	n/a	1	n/a	n/a	n/a	n/a	n/a
1851583	REC_WORD	wordpools/wasnorm_wordpool_less_exclusions.txt	LTP242	ltpFR	0	10	1	RAFT	1159	n/a	n/a	0	n/a	n/a	n/a	n/a	n/a
1861181	REC_WORD	wordpools/wasnorm_wordpool_less_exclusions.txt	LTP242	ltpFR	0	10	1	CREEK	404	n/a	n/a	0	n/a	n/a	n/a	n/a	n/a
1862986	REC_WORD	wordpools/wasnorm_wordpool_less_exclusions.txt	LTP242	ltpFR	0	10	1	CLIFF	322	n/a	n/a	0	n/a	n/a	n/a	n/a	n/a
1882749	REC_WORD	wordpools/wasnorm_wordpool_less_exclusions.txt	LTP242	ltpFR	0	10	1	GLASSES	640	n/a	n/a	0	n/a	n/a	n/a	n/a	n/a
1886873	REC_WORD_VV	wordpools/wasnorm_wordpool_less_exclusions.txt	LTP242	ltpFR	0	10	n/a	<>	-1	n/a	n/a	n/a	n/a	n/a	n/a	n/a	n/a
1925276	WORD	wordpools/wasnorm_wordpool_less_exclusions.txt	LTP242	ltpFR	0	11	1	FRIES	607	n/a	n/a	0	0.57763671875	0.412841796875	1	upper	amplitud.ttf
1929308	WORD	wordpools/wasnorm_wordpool_less_exclusions.txt	LTP242	ltpFR	0	11	1	MARINE	869	n/a	n/a	1	0.57763671875	0.412841796875	1	upper	amplitud.ttf
1933374	WORD	wordpools/wasnorm_wordpool_less_exclusions.txt	LTP242	ltpFR	0	11	1	SMOG	1330	n/a	n/a	0	0.57763671875	0.412841796875	1	upper	amplitud.ttf
1937272	WORD	wordpools/wasnorm_wordpool_less_exclusions.txt	LTP242	ltpFR	0	11	1	ROOT	1210	n/a	n/a	0	0.57763671875	0.412841796875	1	upper	amplitud.ttf
1941237	WORD	wordpools/wasnorm_wordpool_less_exclusions.txt	LTP242	ltpFR	0	11	1	PARSLEY	1016	n/a	n/a	0	0.57763671875	0.412841796875	1	upper	amplitud.ttf
1945432	WORD	wordpools/wasnorm_wordpool_less_exclusions.txt	LTP242	ltpFR	0	11	1	HAMBURGER	679	n/a	n/a	0	0.57763671875	0.412841796875	1	upper	amplitud.ttf
1949434	WORD	wordpools/wasnorm_wordpool_less_exclusions.txt	LTP242	ltpFR	0	11	1	CITY	314	n/a	n/a	0	0.57763671875	0.412841796875	1	upper	amplitud.ttf
1953600	WORD	wordpools/wasnorm_wordpool_less_exclusions.txt	LTP242	ltpFR	0	11	1	COLONEL	348	n/a	n/a	1	0.57763671875	0.412841796875	1	upper	amplitud.ttf
1957548	WORD	wordpools/wasnorm_wordpool_less_exclusions.txt	LTP242	ltpFR	0	11	1	OMELET	976	n/a	n/a	0	0.57763671875	0.412841796875	1	upper	amplitud.ttf
1961379	WORD	wordpools/wasnorm_wordpool_less_exclusions.txt	LTP242	ltpFR	0	11	1	YARN	1631	n/a	n/a	0	0.57763671875	0.412841796875	1	upper	amplitud.ttf
1965545	WORD	wordpools/wasnorm_wordpool_less_exclusions.txt	LTP242	ltpFR	0	11	1	SPOOL	1356	n/a	n/a	0	0.57763671875	0.412841796875	1	upper	amplitud.ttf
1969644	WORD	wordpools/wasnorm_wordpool_less_exclusions.txt	LTP242	ltpFR	0	11	1	SLIDE	1326	n/a	n/a	0	0.57763671875	0.412841796875	1	upper	amplitud.ttf
1973659	WORD	wordpools/wasnorm_wordpool_less_exclusions.txt	LTP242	ltpFR	0	11	1	RAM	1165	n/a	n/a	1	0.57763671875	0.412841796875	1	upper	amplitud.ttf
1977574	WORD	wordpools/wasnorm_wordpool_less_exclusions.txt	LTP242	ltpFR	0	11	1	CANYON	235	n/a	n/a	0	0.57763671875	0.412841796875	1	upper	amplitud.ttf
1981455	WORD	wordpools/wasnorm_wordpool_less_exclusions.txt	LTP242	ltpFR	0	11	1	HOUSE	725	n/a	n/a	0	0.57763671875	0.412841796875	1	upper	amplitud.ttf
1985503	WORD	wordpools/wasnorm_wordpool_less_exclusions.txt	LTP242	ltpFR	0	11	1	COMMUNITY	356	n/a	n/a	0	0.57763671875	0.412841796875	1	upper	amplitud.ttf
1991440	REC_START	n/a	LTP242	ltpFR	0	11	n/a	n/a	n/a	n/a	n/a	n/a	n/a	n/a	n/a	n/a	n/a
1992316	REC_WORD	wordpools/wasnorm_wordpool_less_exclusions.txt	LTP242	ltpFR	0	11	1	COMMUNITY	356	n/a	n/a	0	n/a	n/a	n/a	n/a	n/a
1994800	REC_WORD	wordpools/wasnorm_wordpool_less_exclusions.txt	LTP242	ltpFR	0	11	1	HOUSE	725	n/a	n/a	0	n/a	n/a	n/a	n/a	n/a
1995860	REC_WORD	wordpools/wasnorm_wordpool_less_exclusions.txt	LTP242	ltpFR	0	11	1	RAM	1165	n/a	n/a	1	n/a	n/a	n/a	n/a	n/a
1997651	REC_WORD	wordpools/wasnorm_wordpool_less_exclusions.txt	LTP242	ltpFR	0	11	1	COLONEL	348	n/a	n/a	1	n/a	n/a	n/a	n/a	n/a
2014752	REC_WORD	wordpools/wasnorm_wordpool_less_exclusions.txt	LTP242	ltpFR	0	11	1	SMOG	1330	n/a	n/a	0	n/a	n/a	n/a	n/a	n/a
2017926	REC_WORD	wordpools/wasnorm_wordpool_less_exclusions.txt	LTP242	ltpFR	0	11	1	FRIES	607	n/a	n/a	0	n/a	n/a	n/a	n/a	n/a
2070908	WORD	wordpools/wasnorm_wordpool_less_exclusions.txt	LTP242	ltpFR	0	12	1	TOURIST	1488	n/a	n/a	1	0.57763671875	0.412841796875	1	upper	amplitud.ttf
2075071	WORD	wordpools/wasnorm_wordpool_less_exclusions.txt	LTP242	ltpFR	0	12	1	PUDDLE	1140	n/a	n/a	0	0.57763671875	0.412841796875	1	upper	amplitud.ttf
2079173	WORD	wordpools/wasnorm_wordpool_less_exclusions.txt	LTP242	ltpFR	0	12	1	JEEP	753	n/a	n/a	0	0.57763671875	0.412841796875	1	upper	amplitud.ttf
2083305	WORD	wordpools/wasnorm_wordpool_less_exclusions.txt	LTP242	ltpFR	0	12	1	ALLIGATOR	16	n/a	n/a	1	0.57763671875	0.412841796875	1	upper	amplitud.ttf
2087320	WORD	wordpools/wasnorm_wordpool_less_exclusions.txt	LTP242	ltpFR	0	12	1	ZIPPER	1636	n/a	n/a	0	0.57763671875	0.412841796875	1	upper	amplitud.ttf
2091516	WORD	wordpools/wasnorm_wordpool_less_exclusions.txt	LTP242	ltpFR	0	12	1	CHARCOAL	281	n/a	n/a	0	0.57763671875	0.412841796875	1	upper	amplitud.ttf
2095418	WORD	wordpools/wasnorm_wordpool_less_exclusions.txt	LTP242	ltpFR	0	12	1	ITEM	746	n/a	n/a	0	0.57763671875	0.412841796875	1	upper	amplitud.ttf
2099399	WORD	wordpools/wasnorm_wordpool_less_exclusions.txt	LTP242	ltpFR	0	12	1	PUMP	1141	n/a	n/a	0	0.57763671875	0.412841796875	1	upper	amplitud.ttf
2103281	WORD	wordpools/wasnorm_wordpool_less_exclusions.txt	LTP242	ltpFR	0	12	1	AFRICA	9	n/a	n/a	0	0.57763671875	0.412841796875	1	upper	amplitud.ttf
2107409	WORD	wordpools/wasnorm_wordpool_less_exclusions.txt	LTP242	ltpFR	0	12	1	SLACKS	1323	n/a	n/a	0	0.57763671875	0.412841796875	1	upper	amplitud.ttf
2111294	WORD	wordpools/wasnorm_wordpool_less_exclusions.txt	LTP242	ltpFR	0	12	1	SHOELACE	1289	n/a	n/a	0	0.57763671875	0.412841796875	1	upper	amplitud.ttf
2115176	WORD	wordpools/wasnorm_wordpool_less_exclusions.txt	LTP242	ltpFR	0	12	1	ANKLE	24	n/a	n/a	0	0.57763671875	0.412841796875	1	upper	amplitud.ttf
2119375	WORD	wordpools/wasnorm_wordpool_less_exclusions.txt	LTP242	ltpFR	0	12	1	BAY	102	n/a	n/a	0	0.57763671875	0.412841796875	1	upper	amplitud.ttf
2123235	WORD	wordpools/wasnorm_wordpool_less_exclusions.txt	LTP242	ltpFR	0	12	1	BOAT	144	n/a	n/a	0	0.57763671875	0.412841796875	1	upper	amplitud.ttf
2127187	WORD	wordpools/wasnorm_wordpool_less_exclusions.txt	LTP242	ltpFR	0	12	1	DICTATOR	462	n/a	n/a	1	0.57763671875	0.412841796875	1	upper	amplitud.ttf
2131282	WORD	wordpools/wasnorm_wordpool_less_exclusions.txt	LTP242	ltpFR	0	12	1	FOLLOWER	589	n/a	n/a	1	0.57763671875	0.412841796875	1	upper	amplitud.ttf
2137310	REC_START	n/a	LTP242	ltpFR	0	12	n/a	n/a	n/a	n/a	n/a	n/a	n/a	n/a	n/a	n/a	n/a
2138844	REC_WORD	wordpools/wasnorm_wordpool_less_exclusions.txt	LTP242	ltpFR	0	12	1	SHOELACE	1289	n/a	n/a	0	n/a	n/a	n/a	n/a	n/a
2140098	REC_WORD	wordpools/wasnorm_wordpool_less_exclusions.txt	LTP242	ltpFR	0	12	1	DICTATOR	462	n/a	n/a	1	n/a	n/a	n/a	n/a	n/a
2140739	REC_WORD	wordpools/wasnorm_wordpool_less_exclusions.txt	LTP242	ltpFR	0	12	1	FOLLOWER	589	n/a	n/a	1	n/a	n/a	n/a	n/a	n/a
2141964	REC_WORD	wordpools/wasnorm_wordpool_less_exclusions.txt	LTP242	ltpFR	0	12	1	SLACKS	1323	n/a	n/a	0	n/a	n/a	n/a	n/a	n/a
2212956	REST_REWET	n/a	LTP242	ltpFR	0	12	n/a	n/a	n/a	n/a	n/a	n/a	n/a	n/a	n/a	n/a	n/a
2811332	WORD	wordpools/wasnorm_wordpool_less_exclusions.txt	LTP242	ltpFR	0	13	0	TRACTOR	1493	n/a	n/a	1	0.422607421875	0.5869140625	0	lower	zerothre.ttf
2815515	WORD	wordpools/wasnorm_wordpool_less_exclusions.txt	LTP242	ltpFR	0	13	0	GOBLIN	645	n/a	n/a	1	0.422607421875	0.5869140625	0	lower	zerothre.ttf
2819547	WORD	wordpools/wasnorm_wordpool_less_exclusions.txt	LTP242	ltpFR	0	13	0	KNEE	784	n/a	n/a	1	0.422607421875	0.5869140625	0	lower	zerothre.ttf
2823708	WORD	wordpools/wasnorm_wordpool_less_exclusions.txt	LTP242	ltpFR	0	13	1	FOE	587	n/a	n/a	1	0.57763671875	0.412841796875	1	upper	amplitud.ttf
2827857	WORD	wordpools/wasnorm_wordpool_less_exclusions.txt	LTP242	ltpFR	0	13	1	ENEMY	534	n/a	n/a	1	0.57763671875	0.412841796875	1	upper	amplitud.ttf
2831691	WORD	wordpools/wasnorm_wordpool_less_exclusions.txt	LTP242	ltpFR	0	13	1	PUPIL	1143	n/a	n/a	1	0.57763671875	0.412841796875	1	upper	amplitud.ttf
2835723	WORD	wordpools/wasnorm_wordpool_less_exclusions.txt	LTP242	ltpFR	0	13	1	BIRD	129	n/a	n/a	1	0.57763671875	0.412841796875	1	upper	amplitud.ttf
2839722	WORD	wordpools/wasnorm_wordpool_less_exclusions.txt	LTP242	ltpFR	0	13	0	SHOULDER	1294	n/a	n/a	1	0.422607421875	0.5869140625	0	lower	zerothre.ttf
2843904	WORD	wordpools/wasnorm_wordpool_less_exclusions.txt	LTP242	ltpFR	0	13	0	LIPSTICK	829	n/a	n/a	0	0.422607421875	0.5869140625	0	lower	zerothre.ttf
2847932	WORD	wordpools/wasnorm_wordpool_less_exclusions.txt	LTP242	ltpFR	0	13	1	FURNITURE	616	n/a	n/a	0	0.57763671875	0.412841796875	1	upper	amplitud.ttf
2851801	WORD	wordpools/wasnorm_wordpool_less_exclusions.txt	LTP242	ltpFR	0	13	1	BUILDING	191	n/a	n/a	0	0.57763671875	0.412841796875	1	upper	amplitud.ttf
2855682	WORD	wordpools/wasnorm_wordpool_less_exclusions.txt	LTP242	ltpFR	0	13	1	POCKET	1093	n/a	n/a	0	0.57763671875	0.412841796875	1	upper	amplitud.ttf
2859664	WORD	wordpools/wasnorm_wordpool_less_exclusions.txt	LTP242	ltpFR	0	13	1	PANTS	1010	n/a	n/a	0	0.57763671875	0.412841796875	1	upper	amplitud.ttf
2863579	WORD	wordpools/wasnorm_wordpool_less_exclusions.txt	LTP242	ltpFR	0	13	0	SWING	1421	n/a	n/a	1	0.422607421875	0.5869140625	0	lower	zerothre.ttf
2867628	WORD	wordpools/wasnorm_wordpool_less_exclusions.txt	LTP242	ltpFR	0	13	0	STAFF	1365	n/a	n/a	1	0.422607421875	0.5869140625	0	lower	zerothre.ttf
2871759	WORD	wordpools/wasnorm_wordpool_less_exclusions.txt	LTP242	ltpFR	0	13	0	ELBOW	520	n/a	n/a	1	0.422607421875	0.5869140625	0	lower	zerothre.ttf
2877412	REC_START	n/a	LTP242	ltpFR	0	13	n/a	n/a	n/a	n/a	n/a	n/a	n/a	n/a	n/a	n/a	n/a
2878858	REC_WORD	wordpools/wasnorm_wordpool_less_exclusions.txt	LTP242	ltpFR	0	13	0	ELBOW	520	n/a	n/a	1	n/a	n/a	n/a	n/a	n/a
2879762	REC_WORD	wordpools/wasnorm_wordpool_less_exclusions.txt	LTP242	ltpFR	0	13	0	STAFF	1365	n/a	n/a	1	n/a	n/a	n/a	n/a	n/a
2880982	REC_WORD	wordpools/wasnorm_wordpool_less_exclusions.txt	LTP242	ltpFR	0	13	1	FURNITURE	616	n/a	n/a	0	n/a	n/a	n/a	n/a	n/a
2890253	REC_WORD	wordpools/wasnorm_wordpool_less_exclusions.txt	LTP242	ltpFR	0	13	0	SHOULDER	1294	n/a	n/a	1	n/a	n/a	n/a	n/a	n/a
2895590	REC_WORD	wordpools/wasnorm_wordpool_less_exclusions.txt	LTP242	ltpFR	0	13	0	TRACTOR	1493	n/a	n/a	1	n/a	n/a	n/a	n/a	n/a
2907244	REC_WORD	wordpools/wasnorm_wordpool_less_exclusions.txt	LTP242	ltpFR	0	13	1	BIRD	129	n/a	n/a	1	n/a	n/a	n/a	n/a	n/a
2959089	WORD	wordpools/wasnorm_wordpool_less_exclusions.txt	LTP242	ltpFR	0	14	1	CIRCUS	311	n/a	n/a	1	0.57763671875	0.412841796875	1	upper	amplitud.ttf
2963071	WORD	wordpools/wasnorm_wordpool_less_exclusions.txt	LTP242	ltpFR	0	14	1	DIAMOND	458	n/a	n/a	0	0.57763671875	0.412841796875	1	upper	amplitud.ttf
2966934	WORD	wordpools/wasnorm_wordpool_less_exclusions.txt	LTP242	ltpFR	0	14	0	UNICORN	1538	n/a	n/a	1	0.422607421875	0.5869140625	0	lower	zerothre.ttf
2971051	WORD	wordpools/wasnorm_wordpool_less_exclusions.txt	LTP242	ltpFR	0	14	0	ORCHESTRA	981	n/a	n/a	1	0.422607421875	0.5869140625	0	lower	zerothre.ttf
2975217	WORD	wordpools/wasnorm_wordpool_less_exclusions.txt	LTP242	ltpFR	0	14	0	TIMBER	1469	n/a	n/a	1	0.422607421875	0.5869140625	0	lower	zerothre.ttf
2979299	WORD	wordpools/wasnorm_wordpool_less_exclusions.txt	LTP242	ltpFR	0	14	1	WORKER	1621	n/a	n/a	1	0.57763671875	0.412841796875	1	upper	amplitud.ttf
2983147	WORD	wordpools/wasnorm_wordpool_less_exclusions.txt	LTP242	ltpFR	0	14	1	SECRETARY	1265	n/a	n/a	1	0.57763671875	0.412841796875	1	upper	amplitud.ttf
2987011	WORD	wordpools/wasnorm_wordpool_less_exclusions.txt	LTP242	ltpFR	0	14	1	CUE	422	n/a	n/a	0	0.57763671875	0.412841796875	1	upper	amplitud.ttf
2991127	WORD	wordpools/wasnorm_wordpool_less_exclusions.txt	LTP242	ltpFR	0	14	1	RING	1193	n/a	n/a	0	0.57763671875	0.412841796875	1	upper	amplitud.ttf
2995326	WORD	wordpools/wasnorm_wordpool_less_exclusions.txt	LTP242	ltpFR	0	14	0	DONKEY	484	n/a	n/a	1	0.422607421875	0.5869140625	0	lower	zerothre.ttf
2999491	WORD	wordpools/wasnorm_wordpool_less_exclusions.txt	LTP242	ltpFR	0	14	0	TOWEL	1489	n/a	n/a	0	0.422607421875	0.5869140625	0	lower	zerothre.ttf
3003690	WORD	wordpools/wasnorm_wordpool_less_exclusions.txt	LTP242	ltpFR	0	14	0	CHIPMUNK	304	n/a	n/a	0	0.422607421875	0.5869140625	0	lower	zerothre.ttf
3007639	WORD	wordpools/wasnorm_wordpool_less_exclusions.txt	LTP242	ltpFR	0	14	0	CACTUS	215	n/a	n/a	1	0.422607421875	0.5869140625	0	lower	zerothre.ttf
3011520	WORD	wordpools/wasnorm_wordpool_less_exclusions.txt	LTP242	ltpFR	0	14	0	PERSON	1052	n/a	n/a	1	0.422607421875	0.5869140625	0	lower	zerothre.ttf
3015718	WORD	wordpools/wasnorm_wordpool_less_exclusions.txt	LTP242	ltpFR	0	14	1	WATERFALL	1595	n/a	n/a	0	0.57763671875	0.412841796875	1	upper	amplitud.ttf
3019901	WORD	wordpools/wasnorm_wordpool_less_exclusions.txt	LTP242	ltpFR	0	14	1	DAM	436	n/a	n/a	0	0.57763671875	0.412841796875	1	upper	amplitud.ttf
3025740	REC_START	n/a	LTP242	ltpFR	0	14	n/a	n/a	n/a	n/a	n/a	n/a	n/a	n/a	n/a	n/a	n/a
3026520	REC_WORD	wordpools/wasnorm_wordpool_less_exclusions.txt	LTP242	ltpFR	0	14	1	WATERFALL	1595	n/a	n/a	0	n/a	n/a	n/a	n/a	n/a
3027830	REC_WORD	wordpools/wasnorm_wordpool_less_exclusions.txt	LTP242	ltpFR	0	14	1	DAM	436	n/a	n/a	0	n/a	n/a	n/a	n/a	n/a
3042322	REC_WORD	wordpools/wasnorm_wordpool_less_exclusions.txt	LTP242	ltpFR	0	14	0	CHIPMUNK	304	n/a	n/a	0	n/a	n/a	n/a	n/a	n/a
3051955	REC_WORD	wordpools/wasnorm_wordpool_less_exclusions.txt	LTP242	ltpFR	0	14	1	CIRCUS	311	n/a	n/a	1	n/a	n/a	n/a	n/a	n/a
3054584	REC_WORD	wordpools/wasnorm_wordpool_less_exclusions.txt	LTP242	ltpFR	0	14	1	DIAMOND	458	n/a	n/a	0	n/a	n/a	n/a	n/a	n/a
3108251	WORD	wordpools/wasnorm_wordpool_less_exclusions.txt	LTP242	ltpFR	0	15	0	SCREW	1254	n/a	n/a	0	0.422607421875	0.5869140625	0	lower	zerothre.ttf
3112250	WORD	wordpools/wasnorm_wordpool_less_exclusions.txt	LTP242	ltpFR	0	15	0	SOCKET	1340	n/a	n/a	0	0.422607421875	0.5869140625	0	lower	zerothre.ttf
3116432	WORD	wordpools/wasnorm_wordpool_less_exclusions.txt	LTP242	ltpFR	0	15	0	BALLERINA	74	n/a	n/a	1	0.422607421875	0.5869140625	0	lower	zerothre.ttf
3120313	WORD	wordpools/wasnorm_wordpool_less_exclusions.txt	LTP242	ltpFR	0	15	0	MOAT	903	n/a	n/a	1	0.422607421875	0.5869140625	0	lower	zerothre.ttf
3124228	WORD	wordpools/wasnorm_wordpool_less_exclusions.txt	LTP242	ltpFR	0	15	1	LAMB	797	n/a	n/a	1	0.57763671875	0.412841796875	1	upper	amplitud.ttf
3128277	WORD	wordpools/wasnorm_wordpool_less_exclusions.txt	LTP242	ltpFR	0	15	1	TUB	1514	n/a	n/a	0	0.57763671875	0.412841796875	1	upper	amplitud.ttf
3132221	WORD	wordpools/wasnorm_wordpool_less_exclusions.txt	LTP242	ltpFR	0	15	1	GOO	648	n/a	n/a	0	0.57763671875	0.412841796875	1	upper	amplitud.ttf
3136391	WORD	wordpools/wasnorm_wordpool_less_exclusions.txt	LTP242	ltpFR	0	15	1	POWDER	1117	n/a	n/a	0	0.57763671875	0.412841796875	1	upper	amplitud.ttf
3140222	WORD	wordpools/wasnorm_wordpool_less_exclusions.txt	LTP242	ltpFR	0	15	1	STATUE	1374	n/a	n/a	0	0.57763671875	0.412841796875	1	upper	amplitud.ttf
3144321	WORD	wordpools/wasnorm_wordpool_less_exclusions.txt	LTP242	ltpFR	0	15	0	WRENCH	1625	n/a	n/a	0	0.422607421875	0.5869140625	0	lower	zerothre.ttf
3148286	WORD	wordpools/wasnorm_wordpool_less_exclusions.txt	LTP242	ltpFR	0	15	0	RESTAURANT	1187	n/a	n/a	1	0.422607421875	0.5869140625	0	lower	zerothre.ttf
3152468	WORD	wordpools/wasnorm_wordpool_less_exclusions.txt	LTP242	ltpFR	0	15	0	WAITRESS	1581	n/a	n/a	1	0.422607421875	0.5869140625	0	lower	zerothre.ttf
3156383	WORD	wordpools/wasnorm_wordpool_less_exclusions.txt	LTP242	ltpFR	0	15	0	MARBLE	867	n/a	n/a	0	0.422607421875	0.5869140625	0	lower	zerothre.ttf
3160448	WORD	wordpools/wasnorm_wordpool_less_exclusions.txt	LTP242	ltpFR	0	15	1	ZEBRA	1635	n/a	n/a	1	0.57763671875	0.412841796875	1	upper	amplitud.ttf
3164564	WORD	wordpools/wasnorm_wordpool_less_exclusions.txt	LTP242	ltpFR	0	15	1	POSSUM	1112	n/a	n/a	1	0.57763671875	0.412841796875	1	upper	amplitud.ttf
3168495	WORD	wordpools/wasnorm_wordpool_less_exclusions.txt	LTP242	ltpFR	0	15	1	CLOWN	330	n/a	n/a	1	0.57763671875	0.412841796875	1	upper	amplitud.ttf
3174368	REC_START	n/a	LTP242	ltpFR	0	15	n/a	n/a	n/a	n/a	n/a	n/a	n/a	n/a	n/a	n/a	n/a
3174806	REC_WORD	wordpools/wasnorm_wordpool_less_exclusions.txt	LTP242	ltpFR	0	15	0	SCREW	1254	n/a	n/a	0	n/a	n/a	n/a	n/a	n/a
3175433	REC_WORD	wordpools/wasnorm_wordpool_less_exclusions.txt	LTP242	ltpFR	0	15	0	SOCKET	1340	n/a	n/a	0	n/a	n/a	n/a	n/a	n/a
3176273	REC_WORD	wordpools/wasnorm_wordpool_less_exclusions.txt	LTP242	ltpFR	0	15	0	BALLERINA	74	n/a	n/a	1	n/a	n/a	n/a	n/a	n/a
3177330	REC_WORD	wordpools/wasnorm_wordpool_less_exclusions.txt	LTP242	ltpFR	0	15	1	CLOWN	330	n/a	n/a	1	n/a	n/a	n/a	n/a	n/a
3178169	REC_WORD	wordpools/wasnorm_wordpool_less_exclusions.txt	LTP242	ltpFR	0	15	1	ZEBRA	1635	n/a	n/a	1	n/a	n/a	n/a	n/a	n/a
3185068	REC_WORD	wordpools/wasnorm_wordpool_less_exclusions.txt	LTP242	ltpFR	0	15	1	POSSUM	1112	n/a	n/a	1	n/a	n/a	n/a	n/a	n/a
3190257	REC_WORD	wordpools/wasnorm_wordpool_less_exclusions.txt	LTP242	ltpFR	0	15	n/a	[???]	-1	n/a	n/a	n/a	n/a	n/a	n/a	n/a	n/a
3264686	WORD	wordpools/wasnorm_wordpool_less_exclusions.txt	LTP242	ltpFR	0	16	1	PEDESTRIAN	1038	n/a	n/a	1	0.57763671875	0.412841796875	1	upper	amplitud.ttf
3268805	WORD	wordpools/wasnorm_wordpool_less_exclusions.txt	LTP242	ltpFR	0	16	1	SOCIETY	1338	n/a	n/a	1	0.57763671875	0.412841796875	1	upper	amplitud.ttf
3272754	WORD	wordpools/wasnorm_wordpool_less_exclusions.txt	LTP242	ltpFR	0	16	1	COOK	372	n/a	n/a	1	0.57763671875	0.412841796875	1	upper	amplitud.ttf
3276653	WORD	wordpools/wasnorm_wordpool_less_exclusions.txt	LTP242	ltpFR	0	16	1	KETCHUP	771	n/a	n/a	0	0.57763671875	0.412841796875	1	upper	amplitud.ttf
3280551	WORD	wordpools/wasnorm_wordpool_less_exclusions.txt	LTP242	ltpFR	0	16	0	SHRUB	1299	n/a	n/a	1	0.422607421875	0.5869140625	0	lower	zerothre.ttf
3284395	WORD	wordpools/wasnorm_wordpool_less_exclusions.txt	LTP242	ltpFR	0	16	0	HEDGE	699	n/a	n/a	1	0.422607421875	0.5869140625	0	lower	zerothre.ttf
3288581	WORD	wordpools/wasnorm_wordpool_less_exclusions.txt	LTP242	ltpFR	0	16	0	BINDER	127	n/a	n/a	0	0.422607421875	0.5869140625	0	lower	zerothre.ttf
3292695	WORD	wordpools/wasnorm_wordpool_less_exclusions.txt	LTP242	ltpFR	0	16	0	SEAL	1262	n/a	n/a	1	0.422607421875	0.5869140625	0	lower	zerothre.ttf
3296811	WORD	wordpools/wasnorm_wordpool_less_exclusions.txt	LTP242	ltpFR	0	16	0	MAILMAN	858	n/a	n/a	1	0.422607421875	0.5869140625	0	lower	zerothre.ttf
3300709	WORD	wordpools/wasnorm_wordpool_less_exclusions.txt	LTP242	ltpFR	0	16	1	CYLINDER	432	n/a	n/a	n/a	0.57763671875	0.412841796875	1	upper	amplitud.ttf
3303754	SLOW_MSG	n/a	LTP242	ltpFR	0	16	n/a	n/a	n/a	n/a	n/a	n/a	n/a	n/a	n/a	n/a	n/a
3306398	WORD	wordpools/wasnorm_wordpool_less_exclusions.txt	LTP242	ltpFR	0	16	1	FOLDER	588	n/a	n/a	0	0.57763671875	0.412841796875	1	upper	amplitud.ttf
3310447	WORD	wordpools/wasnorm_wordpool_less_exclusions.txt	LTP242	ltpFR	0	16	1	DAISY	435	n/a	n/a	1	0.57763671875	0.412841796875	1	upper	amplitud.ttf
3314495	WORD	wordpools/wasnorm_wordpool_less_exclusions.txt	LTP242	ltpFR	0	16	1	CHAUFFEUR	283	n/a	n/a	1	0.57763671875	0.412841796875	1	upper	amplitud.ttf
3318444	WORD	wordpools/wasnorm_wordpool_less_exclusions.txt	LTP242	ltpFR	0	16	0	SUPERMARKET	1409	n/a	n/a	1	0.422607421875	0.5869140625	0	lower	zerothre.ttf
3322321	WORD	wordpools/wasnorm_wordpool_less_exclusions.txt	LTP242	ltpFR	0	16	0	FRIEND	606	n/a	n/a	1	0.422607421875	0.5869140625	0	lower	zerothre.ttf
3326474	WORD	wordpools/wasnorm_wordpool_less_exclusions.txt	LTP242	ltpFR	0	16	0	FRAGRANCE	599	n/a	n/a	0	0.422607421875	0.5869140625	0	lower	zerothre.ttf
3332242	REC_START	n/a	LTP242	ltpFR	0	16	n/a	n/a	n/a	n/a	n/a	n/a	n/a	n/a	n/a	n/a	n/a
3332796	REC_WORD	wordpools/wasnorm_wordpool_less_exclusions.txt	LTP242	ltpFR	0	16	0	SUPERMARKET	1409	n/a	n/a	1	n/a	n/a	n/a	n/a	n/a
3334169	REC_WORD	wordpools/wasnorm_wordpool_less_exclusions.txt	LTP242	ltpFR	0	16	0	FRAGRANCE	599	n/a	n/a	0	n/a	n/a	n/a	n/a	n/a
3336786	REC_WORD	wordpools/wasnorm_wordpool_less_exclusions.txt	LTP242	ltpFR	0	16	0	FRIEND	606	n/a	n/a	1	n/a	n/a	n/a	n/a	n/a
3359105	REC_WORD	wordpools/wasnorm_wordpool_less_exclusions.txt	LTP242	ltpFR	0	16	1	PEDESTRIAN	1038	n/a	n/a	1	n/a	n/a	n/a	n/a	n/a
3368195	REC_WORD	wordpools/wasnorm_wordpool_less_exclusions.txt	LTP242	ltpFR	0	16	1	SOCIETY	1338	n/a	n/a	1	n/a	n/a	n/a	n/a	n/a
3456798	REC_START	n/a	LTP242	ltpFR	0	n/a	n/a	n/a	n/a	n/a	n/a	n/a	n/a	n/a	n/a	n/a	n/a
3456941	FFR_REC_WORD_VV	wordpools/wasnorm_wordpool_less_exclusions.txt	LTP242	ltpFR	0	n/a	n/a	<>	-1	n/a	n/a	n/a	n/a	n/a	n/a	n/a	n/a
3460105	FFR_REC_WORD	wordpools/wasnorm_wordpool_less_exclusions.txt	LTP242	ltpFR	0	n/a	-1	PENGUIN	1044	n/a	n/a	-1	n/a	n/a	n/a	n/a	n/a
3460909	FFR_REC_WORD	wordpools/wasnorm_wordpool_less_exclusions.txt	LTP242	ltpFR	0	n/a	1	GRASSHOPPER	656	n/a	n/a	1	n/a	n/a	n/a	n/a	n/a
3462011	FFR_REC_WORD	wordpools/wasnorm_wordpool_less_exclusions.txt	LTP242	ltpFR	0	n/a	0	TRACTOR	1493	n/a	n/a	1	n/a	n/a	n/a	n/a	n/a
3464311	FFR_REC_WORD	wordpools/wasnorm_wordpool_less_exclusions.txt	LTP242	ltpFR	0	n/a	1	BUG	187	n/a	n/a	2	n/a	n/a	n/a	n/a	n/a
3466980	FFR_REC_WORD	wordpools/wasnorm_wordpool_less_exclusions.txt	LTP242	ltpFR	0	n/a	1	PEDESTRIAN	1038	n/a	n/a	1	n/a	n/a	n/a	n/a	n/a
3468870	FFR_REC_WORD	wordpools/wasnorm_wordpool_less_exclusions.txt	LTP242	ltpFR	0	n/a	-1	OX	994	n/a	n/a	-1	n/a	n/a	n/a	n/a	n/a
3470986	FFR_REC_WORD	wordpools/wasnorm_wordpool_less_exclusions.txt	LTP242	ltpFR	0	n/a	1	CREEK	404	n/a	n/a	0	n/a	n/a	n/a	n/a	n/a
3476642	FFR_REC_WORD	wordpools/wasnorm_wordpool_less_exclusions.txt	LTP242	ltpFR	0	n/a	1	MOUSE	925	n/a	n/a	1	n/a	n/a	n/a	n/a	n/a
3477253	FFR_REC_WORD	wordpools/wasnorm_wordpool_less_exclusions.txt	LTP242	ltpFR	0	n/a	1	RODENT	1204	n/a	n/a	1	n/a	n/a	n/a	n/a	n/a
3478299	FFR_REC_WORD	wordpools/wasnorm_wordpool_less_exclusions.txt	LTP242	ltpFR	0	n/a	1	POSSUM	1112	n/a	n/a	1	n/a	n/a	n/a	n/a	n/a
3479905	FFR_REC_WORD	wordpools/wasnorm_wordpool_less_exclusions.txt	LTP242	ltpFR	0	n/a	1	ZEBRA	1635	n/a	n/a	1	n/a	n/a	n/a	n/a	n/a
3484919	FFR_REC_WORD	wordpools/wasnorm_wordpool_less_exclusions.txt	LTP242	ltpFR	0	n/a	-1	ATTIRE	57	n/a	n/a	-1	n/a	n/a	n/a	n/a	n/a
3486944	FFR_REC_WORD	wordpools/wasnorm_wordpool_less_exclusions.txt	LTP242	ltpFR	0	n/a	1	SOCIETY	1338	n/a	n/a	1	n/a	n/a	n/a	n/a	n/a
3488132	FFR_REC_WORD	wordpools/wasnorm_wordpool_less_exclusions.txt	LTP242	ltpFR	0	n/a	0	PERSON	1052	n/a	n/a	1	n/a	n/a	n/a	n/a	n/a
3491604	FFR_REC_WORD	wordpools/wasnorm_wordpool_less_exclusions.txt	LTP242	ltpFR	0	n/a	-1	CATERPILLAR	259	n/a	n/a	-1	n/a	n/a	n/a	n/a	n/a
3500568	FFR_REC_WORD	wordpools/wasnorm_wordpool_less_exclusions.txt	LTP242	ltpFR	0	n/a	0	MOAT	903	n/a	n/a	1	n/a	n/a	n/a	n/a	n/a
3507483	FFR_REC_WORD	wordpools/wasnorm_wordpool_less_exclusions.txt	LTP242	ltpFR	0	n/a	-1	COYOTE	396	n/a	n/a	-1	n/a	n/a	n/a	n/a	n/a
3508100	FFR_REC_WORD	wordpools/wasnorm_wordpool_less_exclusions.txt	LTP242	ltpFR	0	n/a	0	WOLF	1619	n/a	n/a	1	n/a	n/a	n/a	n/a	n/a
3509987	FFR_REC_WORD	wordpools/wasnorm_wordpool_less_exclusions.txt	LTP242	ltpFR	0	n/a	1	BEAR	106	n/a	n/a	1	n/a	n/a	n/a	n/a	n/a
3521276	FFR_REC_WORD	wordpools/wasnorm_wordpool_less_exclusions.txt	LTP242	ltpFR	0	n/a	-1	MERMAID	887	n/a	n/a	-1	n/a	n/a	n/a	n/a	n/a
3522997	FFR_REC_WORD	wordpools/wasnorm_wordpool_less_exclusions.txt	LTP242	ltpFR	0	n/a	n/a	SWIMMING	-1	n/a	n/a	n/a	n/a	n/a	n/a	n/a	n/a
3526350	FFR_REC_WORD	wordpools/wasnorm_wordpool_less_exclusions.txt	LTP242	ltpFR	0	n/a	-1	TANK	1432	n/a	n/a	-1	n/a	n/a	n/a	n/a	n/a
3528131	FFR_REC_WORD	wordpools/wasnorm_wordpool_less_exclusions.txt	LTP242	ltpFR	0	n/a	-1	EARTH	515	n/a	n/a	-1	n/a	n/a	n/a	n/a	n/a
3547522	FFR_REC_WORD	wordpools/wasnorm_wordpool_less_exclusions.txt	LTP242	ltpFR	0	n/a	0	SHIP	1286	n/a	n/a	1	n/a	n/a	n/a	n/a	n/a
3549846	FFR_REC_WORD	wordpools/wasnorm_wordpool_less_exclusions.txt	LTP242	ltpFR	0	n/a	0	MAILMAN	858	n/a	n/a	1	n/a	n/a	n/a	n/a	n/a
3551468	FFR_REC_WORD	wordpools/wasnorm_wordpool_less_exclusions.txt	LTP242	ltpFR	0	n/a	0	BAKER	71	n/a	n/a	1	n/a	n/a	n/a	n/a	n/a
3552590	FFR_REC_WORD	wordpools/wasnorm_wordpool_less_exclusions.txt	LTP242	ltpFR	0	n/a	1	COOK	372	n/a	n/a	1	n/a	n/a	n/a	n/a	n/a
3560278	FFR_REC_WORD	wordpools/wasnorm_wordpool_less_exclusions.txt	LTP242	ltpFR	0	n/a	1	SMOG	1330	n/a	n/a	0	n/a	n/a	n/a	n/a	n/a
3566543	FFR_REC_WORD	wordpools/wasnorm_wordpool_less_exclusions.txt	LTP242	ltpFR	0	n/a	1	ALLIGATOR	16	n/a	n/a	1	n/a	n/a	n/a	n/a	n/a
3572134	FFR_REC_WORD	wordpools/wasnorm_wordpool_less_exclusions.txt	LTP242	ltpFR	0	n/a	0	FRIEND	606	n/a	n/a	1	n/a	n/a	n/a	n/a	n/a
3651188	FFR_REC_WORD	wordpools/wasnorm_wordpool_less_exclusions.txt	LTP242	ltpFR	0	n/a	-1	CANARY	227	n/a	n/a	-1	n/a	n/a	n/a	n/a	n/a
3652912	FFR_REC_WORD	wordpools/wasnorm_wordpool_less_exclusions.txt	LTP242	ltpFR	0	n/a	-1	PERCH	1048	n/a	n/a	-1	n/a	n/a	n/a	n/a	n/a
3655132	FFR_REC_WORD	wordpools/wasnorm_wordpool_less_exclusions.txt	LTP242	ltpFR	0	n/a	-1	SANDWICH	1232	n/a	n/a	-1	n/a	n/a	n/a	n/a	n/a
3670507	FFR_REC_WORD	wordpools/wasnorm_wordpool_less_exclusions.txt	LTP242	ltpFR	0	n/a	1	SEA	1259	n/a	n/a	0	n/a	n/a	n/a	n/a	n/a
3729827	FFR_REC_WORD	wordpools/wasnorm_wordpool_less_exclusions.txt	LTP242	ltpFR	0	n/a	1	CARPENTER	246	n/a	n/a	1	n/a	n/a	n/a	n/a	n/a
3730945	FFR_REC_WORD	wordpools/wasnorm_wordpool_less_exclusions.txt	LTP242	ltpFR	0	n/a	1	ENGINEER	536	n/a	n/a	1	n/a	n/a	n/a	n/a	n/a
3733893	FFR_REC_WORD	wordpools/wasnorm_wordpool_less_exclusions.txt	LTP242	ltpFR	0	n/a	1	EDITOR	516	n/a	n/a	1	n/a	n/a	n/a	n/a	n/a
3751236	FFR_REC_WORD	wordpools/wasnorm_wordpool_less_exclusions.txt	LTP242	ltpFR	0	n/a	-1	LEOPARD	812	n/a	n/a	-1	n/a	n/a	n/a	n/a	n/a
3977528	REC_START	n/a	LTP242	ltpFR	0	1	n/a	n/a	n/a	n/a	n/a	n/a	n/a	n/a	n/a	n/a	n/a
3977578	RECOG_TARGET	n/a	LTP242	ltpFR	0	1	0	WOLF	1619	1	5	1	n/a	n/a	n/a	n/a	n/a
3979208	RECOG_RESP	n/a	LTP242	ltpFR	0	1	0	WOLF	1619	1	n/a	1	n/a	n/a	n/a	n/a	n/a
3980785	RECOG_RESP_VV	n/a	LTP242	ltpFR	0	1	0	WOLF	1619	n/a	5	1	n/a	n/a	n/a	n/a	n/a
3985480	RECOG_CONF	n/a	LTP242	ltpFR	0	1	0	WOLF	1619	n/a	5	1	n/a	n/a	n/a	n/a	n/a
3987980	RECOG_TARGET	n/a	LTP242	ltpFR	0	1	0	JACKET	747	1	5	1	n/a	n/a	n/a	n/a	n/a
3989754	RECOG_RESP	n/a	LTP242	ltpFR	0	1	0	JACKET	747	1	n/a	1	n/a	n/a	n/a	n/a	n/a
3991782	RECOG_CONF	n/a	LTP242	ltpFR	0	1	0	JACKET	747	n/a	5	1	n/a	n/a	n/a	n/a	n/a
3994019	RECOG_LURE	n/a	LTP242	ltpFR	0	1	n/a	RAIL	1161	0	4	n/a	n/a	n/a	n/a	n/a	n/a
3996890	RECOG_RESP	n/a	LTP242	ltpFR	0	1	n/a	RAIL	1161	0	n/a	n/a	n/a	n/a	n/a	n/a	n/a
3999681	RECOG_CONF	n/a	LTP242	ltpFR	0	1	n/a	RAIL	1161	n/a	4	n/a	n/a	n/a	n/a	n/a	n/a
4001534	RECOG_TARGET	n/a	LTP242	ltpFR	0	1	1	YARN	1631	1	4	0	n/a	n/a	n/a	n/a	n/a
4004673	RECOG_RESP	n/a	LTP242	ltpFR	0	1	1	YARN	1631	1	n/a	0	n/a	n/a	n/a	n/a	n/a
4006597	RECOG_CONF	n/a	LTP242	ltpFR	0	1	1	YARN	1631	n/a	4	0	n/a	n/a	n/a	n/a	n/a
4008440	RECOG_LURE	n/a	LTP242	ltpFR	0	1	n/a	FOSSIL	596	0	5	n/a	n/a	n/a	n/a	n/a	n/a
4009909	RECOG_RESP	n/a	LTP242	ltpFR	0	1	n/a	FOSSIL	596	0	n/a	n/a	n/a	n/a	n/a	n/a	n/a
4012048	RECOG_CONF	n/a	LTP242	ltpFR	0	1	n/a	FOSSIL	596	n/a	5	n/a	n/a	n/a	n/a	n/a	n/a
4013647	RECOG_TARGET	n/a	LTP242	ltpFR	0	1	-1	FLY	586	1	5	-1	n/a	n/a	n/a	n/a	n/a
4016669	RECOG_RESP	n/a	LTP242	ltpFR	0	1	-1	FLY	586	1	n/a	-1	n/a	n/a	n/a	n/a	n/a
4017831	RECOG_CONF	n/a	LTP242	ltpFR	0	1	-1	FLY	586	n/a	5	-1	n/a	n/a	n/a	n/a	n/a
4019348	RECOG_LURE	n/a	LTP242	ltpFR	0	1	n/a	HIP	710	0	5	n/a	n/a	n/a	n/a	n/a	n/a
4021827	RECOG_RESP	n/a	LTP242	ltpFR	0	1	n/a	HIP	710	0	n/a	n/a	n/a	n/a	n/a	n/a	n/a
4024750	RECOG_CONF	n/a	LTP242	ltpFR	0	1	n/a	HIP	710	n/a	5	n/a	n/a	n/a	n/a	n/a	n/a
4026412	RECOG_LURE	n/a	LTP242	ltpFR	0	1	n/a	BUGLE	189	0	5	n/a	n/a	n/a	n/a	n/a	n/a
4028312	RECOG_RESP	n/a	LTP242	ltpFR	0	1	n/a	BUGLE	189	0	n/a	n/a	n/a	n/a	n/a	n/a	n/a
4031285	RECOG_CONF	n/a	LTP242	ltpFR	0	1	n/a	BUGLE	189	n/a	5	n/a	n/a	n/a	n/a	n/a	n/a
4033288	RECOG_LURE	n/a	LTP242	ltpFR	0	1	n/a	RACKET	1155	0	3	n/a	n/a	n/a	n/a	n/a	n/a
4035257	RECOG_RESP	n/a	LTP242	ltpFR	0	1	n/a	RACKET	1155	0	n/a	n/a	n/a	n/a	n/a	n/a	n/a
4037519	RECOG_CONF	n/a	LTP242	ltpFR	0	1	n/a	RACKET	1155	n/a	3	n/a	n/a	n/a	n/a	n/a	n/a
4039407	RECOG_LURE	n/a	LTP242	ltpFR	0	1	n/a	GLOBE	641	0	3	n/a	n/a	n/a	n/a	n/a	n/a
4040932	RECOG_RESP	n/a	LTP242	ltpFR	0	1	n/a	GLOBE	641	0	n/a	n/a	n/a	n/a	n/a	n/a	n/a
4042750	RECOG_CONF	n/a	LTP242	ltpFR	0	1	n/a	GLOBE	641	n/a	3	n/a	n/a	n/a	n/a	n/a	n/a
4044847	RECOG_TARGET	n/a	LTP242	ltpFR	0	1	-1	PICKLE	1059	0	4	-1	n/a	n/a	n/a	n/a	n/a
4046800	RECOG_RESP	n/a	LTP242	ltpFR	0	1	-1	PICKLE	1059	0	n/a	-1	n/a	n/a	n/a	n/a	n/a
4048638	RECOG_CONF	n/a	LTP242	ltpFR	0	1	-1	PICKLE	1059	n/a	4	-1	n/a	n/a	n/a	n/a	n/a
4050886	RECOG_LURE	n/a	LTP242	ltpFR	0	1	n/a	MAN	862	0	3	n/a	n/a	n/a	n/a	n/a	n/a
4053127	RECOG_RESP	n/a	LTP242	ltpFR	0	1	n/a	MAN	862	0	n/a	n/a	n/a	n/a	n/a	n/a	n/a
4054953	RECOG_CONF	n/a	LTP242	ltpFR	0	1	n/a	MAN	862	n/a	3	n/a	n/a	n/a	n/a	n/a	n/a
4057127	RECOG_TARGET	n/a	LTP242	ltpFR	0	1	1	MINER	896	1	2	1	n/a	n/a	n/a	n/a	n/a
4059700	RECOG_RESP	n/a	LTP242	ltpFR	0	1	1	MINER	896	1	n/a	1	n/a	n/a	n/a	n/a	n/a
4061724	RECOG_CONF	n/a	LTP242	ltpFR	0	1	1	MINER	896	n/a	2	1	n/a	n/a	n/a	n/a	n/a
4063751	RECOG_LURE	n/a	LTP242	ltpFR	0	1	n/a	MAP	865	0	2	n/a	n/a	n/a	n/a	n/a	n/a
4066941	RECOG_RESP	n/a	LTP242	ltpFR	0	1	n/a	MAP	865	0	n/a	n/a	n/a	n/a	n/a	n/a	n/a
4069336	RECOG_CONF	n/a	LTP242	ltpFR	0	1	n/a	MAP	865	n/a	2	n/a	n/a	n/a	n/a	n/a	n/a
4071310	RECOG_TARGET	n/a	LTP242	ltpFR	0	1	0	PERSON	1052	1	5	1	n/a	n/a	n/a	n/a	n/a
4073730	RECOG_RESP	n/a	LTP242	ltpFR	0	1	0	PERSON	1052	1	n/a	1	n/a	n/a	n/a	n/a	n/a
4076657	RECOG_CONF	n/a	LTP242	ltpFR	0	1	0	PERSON	1052	n/a	5	1	n/a	n/a	n/a	n/a	n/a
4078758	RECOG_LURE	n/a	LTP242	ltpFR	0	1	n/a	PIMPLE	1071	0	3	n/a	n/a	n/a	n/a	n/a	n/a
4081409	RECOG_RESP	n/a	LTP242	ltpFR	0	1	n/a	PIMPLE	1071	0	n/a	n/a	n/a	n/a	n/a	n/a	n/a
4083901	RECOG_CONF	n/a	LTP242	ltpFR	0	1	n/a	PIMPLE	1071	n/a	3	n/a	n/a	n/a	n/a	n/a	n/a
4085969	RECOG_LURE	n/a	LTP242	ltpFR	0	1	n/a	COUSIN	392	0	3	n/a	n/a	n/a	n/a	n/a	n/a
4087491	RECOG_RESP	n/a	LTP242	ltpFR	0	1	n/a	COUSIN	392	0	n/a	n/a	n/a	n/a	n/a	n/a	n/a
4089179	RECOG_CONF	n/a	LTP242	ltpFR	0	1	n/a	COUSIN	392	n/a	3	n/a	n/a	n/a	n/a	n/a	n/a
4091055	RECOG_TARGET	n/a	LTP242	ltpFR	0	1	1	RAM	1165	1	5	1	n/a	n/a	n/a	n/a	n/a
4092906	RECOG_RESP	n/a	LTP242	ltpFR	0	1	1	RAM	1165	1	n/a	1	n/a	n/a	n/a	n/a	n/a
4094317	RECOG_CONF	n/a	LTP242	ltpFR	0	1	1	RAM	1165	n/a	5	1	n/a	n/a	n/a	n/a	n/a
4096576	RECOG_LURE	n/a	LTP242	ltpFR	0	1	n/a	FLEA	577	0	4	n/a	n/a	n/a	n/a	n/a	n/a
4098058	RECOG_RESP	n/a	LTP242	ltpFR	0	1	n/a	FLEA	577	0	n/a	n/a	n/a	n/a	n/a	n/a	n/a
4100293	RECOG_CONF	n/a	LTP242	ltpFR	0	1	n/a	FLEA	577	n/a	4	n/a	n/a	n/a	n/a	n/a	n/a
4102164	RECOG_TARGET	n/a	LTP242	ltpFR	0	1	0	ZUCCHINI	1638	1	5	0	n/a	n/a	n/a	n/a	n/a
4104369	RECOG_RESP	n/a	LTP242	ltpFR	0	1	0	ZUCCHINI	1638	1	n/a	0	n/a	n/a	n/a	n/a	n/a
4105793	RECOG_CONF	n/a	LTP242	ltpFR	0	1	0	ZUCCHINI	1638	n/a	5	0	n/a	n/a	n/a	n/a	n/a
4137577	REC_START	n/a	LTP242	ltpFR	0	2	n/a	n/a	n/a	n/a	n/a	n/a	n/a	n/a	n/a	n/a	n/a
4137631	RECOG_LURE	n/a	LTP242	ltpFR	0	2	n/a	CABIN	211	0	2	n/a	n/a	n/a	n/a	n/a	n/a
4139407	RECOG_RESP	n/a	LTP242	ltpFR	0	2	n/a	CABIN	211	0	n/a	n/a	n/a	n/a	n/a	n/a	n/a
4141202	RECOG_CONF	n/a	LTP242	ltpFR	0	2	n/a	CABIN	211	n/a	2	n/a	n/a	n/a	n/a	n/a	n/a
4143118	RECOG_LURE	n/a	LTP242	ltpFR	0	2	n/a	STY	1397	0	5	n/a	n/a	n/a	n/a	n/a	n/a
4144377	RECOG_RESP	n/a	LTP242	ltpFR	0	2	n/a	STY	1397	0	n/a	n/a	n/a	n/a	n/a	n/a	n/a
4145603	RECOG_CONF	n/a	LTP242	ltpFR	0	2	n/a	STY	1397	n/a	5	n/a	n/a	n/a	n/a	n/a	n/a
4147818	RECOG_LURE	n/a	LTP242	ltpFR	0	2	n/a	OUTDOORS	987	0	5	n/a	n/a	n/a	n/a	n/a	n/a
4149011	RECOG_RESP	n/a	LTP242	ltpFR	0	2	n/a	OUTDOORS	987	0	n/a	n/a	n/a	n/a	n/a	n/a	n/a
4150114	RECOG_CONF	n/a	LTP242	ltpFR	0	2	n/a	OUTDOORS	987	n/a	5	n/a	n/a	n/a	n/a	n/a	n/a
4151985	RECOG_TARGET	n/a	LTP242	ltpFR	0	2	-1	SWIMMER	1420	1	3	-1	n/a	n/a	n/a	n/a	n/a
4156053	RECOG_RESP	n/a	LTP242	ltpFR	0	2	-1	SWIMMER	1420	1	n/a	-1	n/a	n/a	n/a	n/a	n/a
4158011	RECOG_CONF	n/a	LTP242	ltpFR	0	2	-1	SWIMMER	1420	n/a	3	-1	n/a	n/a	n/a	n/a	n/a
4159965	RECOG_TARGET	n/a	LTP242	ltpFR	0	2	-1	CATCHER	258	1	2	-1	n/a	n/a	n/a	n/a	n/a
4162618	RECOG_RESP	n/a	LTP242	ltpFR	0	2	-1	CATCHER	258	1	n/a	-1	n/a	n/a	n/a	n/a	n/a
4163968	RECOG_CONF	n/a	LTP242	ltpFR	0	2	-1	CATCHER	258	n/a	2	-1	n/a	n/a	n/a	n/a	n/a
4166038	RECOG_TARGET	n/a	LTP242	ltpFR	0	2	0	TIE	1466	1	4	0	n/a	n/a	n/a	n/a	n/a
4167588	RECOG_RESP	n/a	LTP242	ltpFR	0	2	0	TIE	1466	1	n/a	0	n/a	n/a	n/a	n/a	n/a
4169664	RECOG_CONF	n/a	LTP242	ltpFR	0	2	0	TIE	1466	n/a	4	0	n/a	n/a	n/a	n/a	n/a
4171642	RECOG_TARGET	n/a	LTP242	ltpFR	0	2	-1	PILOT	1070	1	5	-1	n/a	n/a	n/a	n/a	n/a
4172874	RECOG_RESP	n/a	LTP242	ltpFR	0	2	-1	PILOT	1070	1	n/a	-1	n/a	n/a	n/a	n/a	n/a
4174185	RECOG_CONF	n/a	LTP242	ltpFR	0	2	-1	PILOT	1070	n/a	5	-1	n/a	n/a	n/a	n/a	n/a
4176159	RECOG_TARGET	n/a	LTP242	ltpFR	0	2	-1	PUZZLE	1146	1	2	-1	n/a	n/a	n/a	n/a	n/a
4178457	RECOG_RESP	n/a	LTP242	ltpFR	0	2	-1	PUZZLE	1146	1	n/a	-1	n/a	n/a	n/a	n/a	n/a
4179785	RECOG_CONF	n/a	LTP242	ltpFR	0	2	-1	PUZZLE	1146	n/a	2	-1	n/a	n/a	n/a	n/a	n/a
4181713	RECOG_TARGET	n/a	LTP242	ltpFR	0	2	0	CAFE	216	1	5	1	n/a	n/a	n/a	n/a	n/a
4182954	RECOG_RESP	n/a	LTP242	ltpFR	0	2	0	CAFE	216	1	n/a	1	n/a	n/a	n/a	n/a	n/a
4184211	RECOG_CONF	n/a	LTP242	ltpFR	0	2	0	CAFE	216	n/a	5	1	n/a	n/a	n/a	n/a	n/a
4186481	RECOG_TARGET	n/a	LTP242	ltpFR	0	2	0	LIPSTICK	829	0	1	0	n/a	n/a	n/a	n/a	n/a
4189518	RECOG_RESP	n/a	LTP242	ltpFR	0	2	0	LIPSTICK	829	0	n/a	0	n/a	n/a	n/a	n/a	n/a
4190939	RECOG_CONF	n/a	LTP242	ltpFR	0	2	0	LIPSTICK	829	n/a	1	0	n/a	n/a	n/a	n/a	n/a
4192868	RECOG_TARGET	n/a	LTP242	ltpFR	0	2	-1	DIRECTOR	471	1	5	-1	n/a	n/a	n/a	n/a	n/a
4194127	RECOG_RESP	n/a	LTP242	ltpFR	0	2	-1	DIRECTOR	471	1	n/a	-1	n/a	n/a	n/a	n/a	n/a
4195670	RECOG_CONF	n/a	LTP242	ltpFR	0	2	-1	DIRECTOR	471	n/a	5	-1	n/a	n/a	n/a	n/a	n/a
4197386	RECOG_LURE	n/a	LTP242	ltpFR	0	2	n/a	AGENT	10	0	2	n/a	n/a	n/a	n/a	n/a	n/a
4198442	RECOG_RESP	n/a	LTP242	ltpFR	0	2	n/a	AGENT	10	0	n/a	n/a	n/a	n/a	n/a	n/a	n/a
4200313	RECOG_CONF	n/a	LTP242	ltpFR	0	2	n/a	AGENT	10	n/a	2	n/a	n/a	n/a	n/a	n/a	n/a
4202070	RECOG_LURE	n/a	LTP242	ltpFR	0	2	n/a	TART	1436	0	1	n/a	n/a	n/a	n/a	n/a	n/a
4203575	RECOG_RESP	n/a	LTP242	ltpFR	0	2	n/a	TART	1436	0	n/a	n/a	n/a	n/a	n/a	n/a	n/a
4204720	RECOG_CONF	n/a	LTP242	ltpFR	0	2	n/a	TART	1436	n/a	1	n/a	n/a	n/a	n/a	n/a	n/a
4206658	RECOG_LURE	n/a	LTP242	ltpFR	0	2	n/a	PATRIOT	1026	0	4	n/a	n/a	n/a	n/a	n/a	n/a
4209109	RECOG_RESP	n/a	LTP242	ltpFR	0	2	n/a	PATRIOT	1026	0	n/a	n/a	n/a	n/a	n/a	n/a	n/a
4210104	RECOG_CONF	n/a	LTP242	ltpFR	0	2	n/a	PATRIOT	1026	n/a	4	n/a	n/a	n/a	n/a	n/a	n/a
4212045	RECOG_TARGET	n/a	LTP242	ltpFR	0	2	-1	ANT	25	1	5	-1	n/a	n/a	n/a	n/a	n/a
4213461	RECOG_RESP	n/a	LTP242	ltpFR	0	2	-1	ANT	25	1	n/a	-1	n/a	n/a	n/a	n/a	n/a
4214622	RECOG_CONF	n/a	LTP242	ltpFR	0	2	-1	ANT	25	n/a	5	-1	n/a	n/a	n/a	n/a	n/a
4216545	RECOG_LURE	n/a	LTP242	ltpFR	0	2	n/a	PRUNE	1134	0	2	n/a	n/a	n/a	n/a	n/a	n/a
4218762	RECOG_RESP	n/a	LTP242	ltpFR	0	2	n/a	PRUNE	1134	0	n/a	n/a	n/a	n/a	n/a	n/a	n/a
4220368	RECOG_CONF	n/a	LTP242	ltpFR	0	2	n/a	PRUNE	1134	n/a	2	n/a	n/a	n/a	n/a	n/a	n/a
4222229	RECOG_TARGET	n/a	LTP242	ltpFR	0	2	0	RASPBERRY	1168	1	5	0	n/a	n/a	n/a	n/a	n/a
4223416	RECOG_RESP	n/a	LTP242	ltpFR	0	2	0	RASPBERRY	1168	1	n/a	0	n/a	n/a	n/a	n/a	n/a
4225177	RECOG_CONF	n/a	LTP242	ltpFR	0	2	0	RASPBERRY	1168	n/a	5	0	n/a	n/a	n/a	n/a	n/a
4226916	RECOG_TARGET	n/a	LTP242	ltpFR	0	2	1	PEDESTRIAN	1038	1	5	1	n/a	n/a	n/a	n/a	n/a
4227954	RECOG_RESP	n/a	LTP242	ltpFR	0	2	1	PEDESTRIAN	1038	1	n/a	1	n/a	n/a	n/a	n/a	n/a
4229231	RECOG_CONF	n/a	LTP242	ltpFR	0	2	1	PEDESTRIAN	1038	n/a	5	1	n/a	n/a	n/a	n/a	n/a
4231096	RECOG_TARGET	n/a	LTP242	ltpFR	0	2	0	POTATO	1115	1	4	0	n/a	n/a	n/a	n/a	n/a
4232006	RECOG_RESP	n/a	LTP242	ltpFR	0	2	0	POTATO	1115	1	n/a	0	n/a	n/a	n/a	n/a	n/a
4233076	RECOG_CONF	n/a	LTP242	ltpFR	0	2	0	POTATO	1115	n/a	4	0	n/a	n/a	n/a	n/a	n/a
4235011	RECOG_TARGET	n/a	LTP242	ltpFR	0	2	1	ACORN	3	1	4	0	n/a	n/a	n/a	n/a	n/a
4235990	RECOG_RESP	n/a	LTP242	ltpFR	0	2	1	ACORN	3	1	n/a	0	n/a	n/a	n/a	n/a	n/a
4236983	RECOG_CONF	n/a	LTP242	ltpFR	0	2	1	ACORN	3	n/a	4	0	n/a	n/a	n/a	n/a	n/a
4241996	REC_START	n/a	LTP242	ltpFR	0	3	n/a	n/a	n/a	n/a	n/a	n/a	n/a	n/a	n/a	n/a	n/a
4242058	RECOG_TARGET	n/a	LTP242	ltpFR	0	3	0	STRAWBERRY	1391	1	3	0	n/a	n/a	n/a	n/a	n/a
4243460	RECOG_RESP	n/a	LTP242	ltpFR	0	3	0	STRAWBERRY	1391	1	n/a	0	n/a	n/a	n/a	n/a	n/a
4244541	RECOG_CONF	n/a	LTP242	ltpFR	0	3	0	STRAWBERRY	1391	n/a	3	0	n/a	n/a	n/a	n/a	n/a
4246424	RECOG_LURE	n/a	LTP242	ltpFR	0	3	n/a	BOMB	147	0	4	n/a	n/a	n/a	n/a	n/a	n/a
4247497	RECOG_RESP	n/a	LTP242	ltpFR	0	3	n/a	BOMB	147	0	n/a	n/a	n/a	n/a	n/a	n/a	n/a
4248477	RECOG_CONF	n/a	LTP242	ltpFR	0	3	n/a	BOMB	147	n/a	4	n/a	n/a	n/a	n/a	n/a	n/a
4250238	RECOG_TARGET	n/a	LTP242	ltpFR	0	3	-1	LEOPARD	812	1	5	-1	n/a	n/a	n/a	n/a	n/a
4251081	RECOG_RESP	n/a	LTP242	ltpFR	0	3	-1	LEOPARD	812	1	n/a	-1	n/a	n/a	n/a	n/a	n/a
4251983	RECOG_CONF	n/a	LTP242	ltpFR	0	3	-1	LEOPARD	812	n/a	5	-1	n/a	n/a	n/a	n/a	n/a
4253751	RECOG_LURE	n/a	LTP242	ltpFR	0	3	n/a	RIB	1188	0	3	n/a	n/a	n/a	n/a	n/a	n/a
4254738	RECOG_RESP	n/a	LTP242	ltpFR	0	3	n/a	RIB	1188	0	n/a	n/a	n/a	n/a	n/a	n/a	n/a
4256177	RECOG_CONF	n/a	LTP242	ltpFR	0	3	n/a	RIB	1188	n/a	3	n/a	n/a	n/a	n/a	n/a	n/a
4257883	RECOG_TARGET	n/a	LTP242	ltpFR	0	3	0	SOCKET	1340	1	5	0	n/a	n/a	n/a	n/a	n/a
4258991	RECOG_RESP	n/a	LTP242	ltpFR	0	3	0	SOCKET	1340	1	n/a	0	n/a	n/a	n/a	n/a	n/a
4259966	RECOG_CONF	n/a	LTP242	ltpFR	0	3	0	SOCKET	1340	n/a	5	0	n/a	n/a	n/a	n/a	n/a
4261764	RECOG_TARGET	n/a	LTP242	ltpFR	0	3	1	TUB	1514	1	4	0	n/a	n/a	n/a	n/a	n/a
4262616	RECOG_RESP	n/a	LTP242	ltpFR	0	3	1	TUB	1514	1	n/a	0	n/a	n/a	n/a	n/a	n/a
4263517	RECOG_CONF	n/a	LTP242	ltpFR	0	3	1	TUB	1514	n/a	4	0	n/a	n/a	n/a	n/a	n/a
4265580	RECOG_TARGET	n/a	LTP242	ltpFR	0	3	0	GOBLIN	645	1	4	1	n/a	n/a	n/a	n/a	n/a
4266397	RECOG_RESP	n/a	LTP242	ltpFR	0	3	0	GOBLIN	645	1	n/a	1	n/a	n/a	n/a	n/a	n/a
4267250	RECOG_CONF	n/a	LTP242	ltpFR	0	3	0	GOBLIN	645	n/a	4	1	n/a	n/a	n/a	n/a	n/a
4269661	RECOG_LURE	n/a	LTP242	ltpFR	0	3	n/a	MOSS	918	0	2	n/a	n/a	n/a	n/a	n/a	n/a
4270736	RECOG_RESP	n/a	LTP242	ltpFR	0	3	n/a	MOSS	918	0	n/a	n/a	n/a	n/a	n/a	n/a	n/a
4271880	RECOG_CONF	n/a	LTP242	ltpFR	0	3	n/a	MOSS	918	n/a	2	n/a	n/a	n/a	n/a	n/a	n/a
4273726	RECOG_LURE	n/a	LTP242	ltpFR	0	3	n/a	HIGHWAY	707	0	2	n/a	n/a	n/a	n/a	n/a	n/a
4274745	RECOG_RESP	n/a	LTP242	ltpFR	0	3	n/a	HIGHWAY	707	0	n/a	n/a	n/a	n/a	n/a	n/a	n/a
4275864	RECOG_CONF	n/a	LTP242	ltpFR	0	3	n/a	HIGHWAY	707	n/a	2	n/a	n/a	n/a	n/a	n/a	n/a
4277892	RECOG_LURE	n/a	LTP242	ltpFR	0	3	n/a	WAGON	1578	0	3	n/a	n/a	n/a	n/a	n/a	n/a
4279524	RECOG_RESP	n/a	LTP242	ltpFR	0	3	n/a	WAGON	1578	0	n/a	n/a	n/a	n/a	n/a	n/a	n/a
4280534	RECOG_CONF	n/a	LTP242	ltpFR	0	3	n/a	WAGON	1578	n/a	3	n/a	n/a	n/a	n/a	n/a	n/a
4282460	RECOG_LURE	n/a	LTP242	ltpFR	0	3	n/a	WAIST	1579	0	4	n/a	n/a	n/a	n/a	n/a	n/a
4283629	RECOG_RESP	n/a	LTP242	ltpFR	0	3	n/a	WAIST	1579	0	n/a	n/a	n/a	n/a	n/a	n/a	n/a
4284942	RECOG_CONF	n/a	LTP242	ltpFR	0	3	n/a	WAIST	1579	n/a	4	n/a	n/a	n/a	n/a	n/a	n/a
4286872	RECOG_TARGET	n/a	LTP242	ltpFR	0	3	0	SERVER	1272	1	5	n/a	n/a	n/a	n/a	n/a	n/a
4287997	RECOG_RESP	n/a	LTP242	ltpFR	0	3	0	SERVER	1272	1	n/a	n/a	n/a	n/a	n/a	n/a	n/a
4289105	RECOG_CONF	n/a	LTP242	ltpFR	0	3	0	SERVER	1272	n/a	5	n/a	n/a	n/a	n/a	n/a	n/a
4291009	RECOG_TARGET	n/a	LTP242	ltpFR	0	3	1	FRIES	607	1	4	0	n/a	n/a	n/a	n/a	n/a
4292009	RECOG_RESP	n/a	LTP242	ltpFR	0	3	1	FRIES	607	1	n/a	0	n/a	n/a	n/a	n/a	n/a
4293097	RECOG_CONF	n/a	LTP242	ltpFR	0	3	1	FRIES	607	n/a	4	0	n/a	n/a	n/a	n/a	n/a
4295091	RECOG_TARGET	n/a	LTP242	ltpFR	0	3	0	FRIEND	606	1	5	1	n/a	n/a	n/a	n/a	n/a
4296522	RECOG_RESP	n/a	LTP242	ltpFR	0	3	0	FRIEND	606	1	n/a	1	n/a	n/a	n/a	n/a	n/a
4298043	RECOG_CONF	n/a	LTP242	ltpFR	0	3	0	FRIEND	606	n/a	5	1	n/a	n/a	n/a	n/a	n/a
4300009	RECOG_TARGET	n/a	LTP242	ltpFR	0	3	0	CHIPMUNK	304	1	5	0	n/a	n/a	n/a	n/a	n/a
4300914	RECOG_RESP	n/a	LTP242	ltpFR	0	3	0	CHIPMUNK	304	1	n/a	0	n/a	n/a	n/a	n/a	n/a
4301820	RECOG_CONF	n/a	LTP242	ltpFR	0	3	0	CHIPMUNK	304	n/a	5	0	n/a	n/a	n/a	n/a	n/a
4303656	RECOG_TARGET	n/a	LTP242	ltpFR	0	3	1	GROCERIES	663	1	4	0	n/a	n/a	n/a	n/a	n/a
4304704	RECOG_RESP	n/a	LTP242	ltpFR	0	3	1	GROCERIES	663	1	n/a	0	n/a	n/a	n/a	n/a	n/a
4305543	RECOG_CONF	n/a	LTP242	ltpFR	0	3	1	GROCERIES	663	n/a	4	0	n/a	n/a	n/a	n/a	n/a
4307754	RECOG_LURE	n/a	LTP242	ltpFR	0	3	n/a	DRIVEWAY	500	0	3	n/a	n/a	n/a	n/a	n/a	n/a
4308799	RECOG_RESP	n/a	LTP242	ltpFR	0	3	n/a	DRIVEWAY	500	0	n/a	n/a	n/a	n/a	n/a	n/a	n/a
4310168	RECOG_CONF	n/a	LTP242	ltpFR	0	3	n/a	DRIVEWAY	500	n/a	3	n/a	n/a	n/a	n/a	n/a	n/a
4311937	RECOG_TARGET	n/a	LTP242	ltpFR	0	3	1	ITEM	746	1	4	0	n/a	n/a	n/a	n/a	n/a
4313085	RECOG_RESP	n/a	LTP242	ltpFR	0	3	1	ITEM	746	1	n/a	0	n/a	n/a	n/a	n/a	n/a
4313985	RECOG_CONF	n/a	LTP242	ltpFR	0	3	1	ITEM	746	n/a	4	0	n/a	n/a	n/a	n/a	n/a
4316003	RECOG_LURE	n/a	LTP242	ltpFR	0	3	n/a	REBEL	1172	0	3	n/a	n/a	n/a	n/a	n/a	n/a
4317066	RECOG_RESP	n/a	LTP242	ltpFR	0	3	n/a	REBEL	1172	0	n/a	n/a	n/a	n/a	n/a	n/a	n/a
4318943	RECOG_CONF	n/a	LTP242	ltpFR	0	3	n/a	REBEL	1172	n/a	3	n/a	n/a	n/a	n/a	n/a	n/a
4320736	RECOG_TARGET	n/a	LTP242	ltpFR	0	3	-1	TOE	1473	1	3	-1	n/a	n/a	n/a	n/a	n/a
4321599	RECOG_RESP	n/a	LTP242	ltpFR	0	3	-1	TOE	1473	1	n/a	-1	n/a	n/a	n/a	n/a	n/a
4322757	RECOG_CONF	n/a	LTP242	ltpFR	0	3	-1	TOE	1473	n/a	3	-1	n/a	n/a	n/a	n/a	n/a
4357431	REC_START	n/a	LTP242	ltpFR	0	4	n/a	n/a	n/a	n/a	n/a	n/a	n/a	n/a	n/a	n/a	n/a
4357476	RECOG_TARGET	n/a	LTP242	ltpFR	0	4	0	MARKET	871	0	2	1	n/a	n/a	n/a	n/a	n/a
4358721	RECOG_RESP	n/a	LTP242	ltpFR	0	4	0	MARKET	871	0	n/a	1	n/a	n/a	n/a	n/a	n/a
4359987	RECOG_CONF	n/a	LTP242	ltpFR	0	4	0	MARKET	871	n/a	2	1	n/a	n/a	n/a	n/a	n/a
4361758	RECOG_TARGET	n/a	LTP242	ltpFR	0	4	1	SUBWAY	1400	1	5	0	n/a	n/a	n/a	n/a	n/a
4362694	RECOG_RESP	n/a	LTP242	ltpFR	0	4	1	SUBWAY	1400	1	n/a	0	n/a	n/a	n/a	n/a	n/a
4363710	RECOG_CONF	n/a	LTP242	ltpFR	0	4	1	SUBWAY	1400	n/a	5	0	n/a	n/a	n/a	n/a	n/a
4365573	RECOG_TARGET	n/a	LTP242	ltpFR	0	4	-1	ATTIRE	57	1	4	-1	n/a	n/a	n/a	n/a	n/a
4366327	RECOG_RESP	n/a	LTP242	ltpFR	0	4	-1	ATTIRE	57	1	n/a	-1	n/a	n/a	n/a	n/a	n/a
4367128	RECOG_CONF	n/a	LTP242	ltpFR	0	4	-1	ATTIRE	57	n/a	4	-1	n/a	n/a	n/a	n/a	n/a
4368851	RECOG_TARGET	n/a	LTP242	ltpFR	0	4	1	RODENT	1204	1	4	1	n/a	n/a	n/a	n/a	n/a
4369556	RECOG_RESP	n/a	LTP242	ltpFR	0	4	1	RODENT	1204	1	n/a	1	n/a	n/a	n/a	n/a	n/a
4370420	RECOG_CONF	n/a	LTP242	ltpFR	0	4	1	RODENT	1204	n/a	4	1	n/a	n/a	n/a	n/a	n/a
4372181	RECOG_TARGET	n/a	LTP242	ltpFR	0	4	-1	PERCH	1048	1	5	-1	n/a	n/a	n/a	n/a	n/a
4373072	RECOG_RESP	n/a	LTP242	ltpFR	0	4	-1	PERCH	1048	1	n/a	-1	n/a	n/a	n/a	n/a	n/a
4373735	RECOG_CONF	n/a	LTP242	ltpFR	0	4	-1	PERCH	1048	n/a	5	-1	n/a	n/a	n/a	n/a	n/a
4375979	RECOG_LURE	n/a	LTP242	ltpFR	0	4	n/a	NUT	965	1	3	n/a	n/a	n/a	n/a	n/a	n/a
4377319	RECOG_RESP	n/a	LTP242	ltpFR	0	4	n/a	NUT	965	1	n/a	n/a	n/a	n/a	n/a	n/a	n/a
4379274	RECOG_CONF	n/a	LTP242	ltpFR	0	4	n/a	NUT	965	n/a	3	n/a	n/a	n/a	n/a	n/a	n/a
4380978	RECOG_TARGET	n/a	LTP242	ltpFR	0	4	-1	CROSS	413	1	5	-1	n/a	n/a	n/a	n/a	n/a
4382234	RECOG_RESP	n/a	LTP242	ltpFR	0	4	-1	CROSS	413	1	n/a	-1	n/a	n/a	n/a	n/a	n/a
4383249	RECOG_CONF	n/a	LTP242	ltpFR	0	4	-1	CROSS	413	n/a	5	-1	n/a	n/a	n/a	n/a	n/a
4385197	RECOG_LURE	n/a	LTP242	ltpFR	0	4	n/a	VOLLEYBALL	1576	0	3	n/a	n/a	n/a	n/a	n/a	n/a
4386795	RECOG_RESP	n/a	LTP242	ltpFR	0	4	n/a	VOLLEYBALL	1576	0	n/a	n/a	n/a	n/a	n/a	n/a	n/a
4387834	RECOG_CONF	n/a	LTP242	ltpFR	0	4	n/a	VOLLEYBALL	1576	n/a	3	n/a	n/a	n/a	n/a	n/a	n/a
4389663	RECOG_LURE	n/a	LTP242	ltpFR	0	4	n/a	TUSK	1523	0	3	n/a	n/a	n/a	n/a	n/a	n/a
4390567	RECOG_RESP	n/a	LTP242	ltpFR	0	4	n/a	TUSK	1523	0	n/a	n/a	n/a	n/a	n/a	n/a	n/a
4391600	RECOG_CONF	n/a	LTP242	ltpFR	0	4	n/a	TUSK	1523	n/a	3	n/a	n/a	n/a	n/a	n/a	n/a
4393462	RECOG_LURE	n/a	LTP242	ltpFR	0	4	n/a	NITROGEN	954	0	5	n/a	n/a	n/a	n/a	n/a	n/a
4394488	RECOG_RESP	n/a	LTP242	ltpFR	0	4	n/a	NITROGEN	954	0	n/a	n/a	n/a	n/a	n/a	n/a	n/a
4395390	RECOG_CONF	n/a	LTP242	ltpFR	0	4	n/a	NITROGEN	954	n/a	5	n/a	n/a	n/a	n/a	n/a	n/a
4397427	RECOG_TARGET	n/a	LTP242	ltpFR	0	4	-1	PENGUIN	1044	1	4	-1	n/a	n/a	n/a	n/a	n/a
4398594	RECOG_RESP	n/a	LTP242	ltpFR	0	4	-1	PENGUIN	1044	1	n/a	-1	n/a	n/a	n/a	n/a	n/a
4399537	RECOG_CONF	n/a	LTP242	ltpFR	0	4	-1	PENGUIN	1044	n/a	4	-1	n/a	n/a	n/a	n/a	n/a
4401555	RECOG_TARGET	n/a	LTP242	ltpFR	0	4	-1	SANDWICH	1232	1	4	-1	n/a	n/a	n/a	n/a	n/a
4402317	RECOG_RESP	n/a	LTP242	ltpFR	0	4	-1	SANDWICH	1232	1	n/a	-1	n/a	n/a	n/a	n/a	n/a
4403334	RECOG_CONF	n/a	LTP242	ltpFR	0	4	-1	SANDWICH	1232	n/a	4	-1	n/a	n/a	n/a	n/a	n/a
4405206	RECOG_TARGET	n/a	LTP242	ltpFR	0	4	-1	ICING	732	1	5	-1	n/a	n/a	n/a	n/a	n/a
4406272	RECOG_RESP	n/a	LTP242	ltpFR	0	4	-1	ICING	732	1	n/a	-1	n/a	n/a	n/a	n/a	n/a
4407107	RECOG_CONF	n/a	LTP242	ltpFR	0	4	-1	ICING	732	n/a	5	-1	n/a	n/a	n/a	n/a	n/a
4408952	RECOG_TARGET	n/a	LTP242	ltpFR	0	4	0	CAULIFLOWER	262	1	5	0	n/a	n/a	n/a	n/a	n/a
4409920	RECOG_RESP	n/a	LTP242	ltpFR	0	4	0	CAULIFLOWER	262	1	n/a	0	n/a	n/a	n/a	n/a	n/a
4410784	RECOG_CONF	n/a	LTP242	ltpFR	0	4	0	CAULIFLOWER	262	n/a	5	0	n/a	n/a	n/a	n/a	n/a
4412500	RECOG_TARGET	n/a	LTP242	ltpFR	0	4	-1	FRIAR	605	1	5	-1	n/a	n/a	n/a	n/a	n/a
4413334	RECOG_RESP	n/a	LTP242	ltpFR	0	4	-1	FRIAR	605	1	n/a	-1	n/a	n/a	n/a	n/a	n/a
4414034	RECOG_CONF	n/a	LTP242	ltpFR	0	4	-1	FRIAR	605	n/a	5	-1	n/a	n/a	n/a	n/a	n/a
4415628	RECOG_LURE	n/a	LTP242	ltpFR	0	4	n/a	TUBA	1515	0	3	n/a	n/a	n/a	n/a	n/a	n/a
4417049	RECOG_RESP	n/a	LTP242	ltpFR	0	4	n/a	TUBA	1515	0	n/a	n/a	n/a	n/a	n/a	n/a	n/a
4418248	RECOG_CONF	n/a	LTP242	ltpFR	0	4	n/a	TUBA	1515	n/a	3	n/a	n/a	n/a	n/a	n/a	n/a
4419873	RECOG_TARGET	n/a	LTP242	ltpFR	0	4	1	BOAT	144	0	3	0	n/a	n/a	n/a	n/a	n/a
4422060	RECOG_RESP	n/a	LTP242	ltpFR	0	4	1	BOAT	144	0	n/a	0	n/a	n/a	n/a	n/a	n/a
4423989	RECOG_CONF	n/a	LTP242	ltpFR	0	4	1	BOAT	144	n/a	3	0	n/a	n/a	n/a	n/a	n/a
4425678	RECOG_TARGET	n/a	LTP242	ltpFR	0	4	0	MAGNET	855	1	4	0	n/a	n/a	n/a	n/a	n/a
4426716	RECOG_RESP	n/a	LTP242	ltpFR	0	4	0	MAGNET	855	1	n/a	0	n/a	n/a	n/a	n/a	n/a
4427815	RECOG_CONF	n/a	LTP242	ltpFR	0	4	0	MAGNET	855	n/a	4	0	n/a	n/a	n/a	n/a	n/a
4429747	RECOG_TARGET	n/a	LTP242	ltpFR	0	4	1	COOK	372	1	5	1	n/a	n/a	n/a	n/a	n/a
4430895	RECOG_RESP	n/a	LTP242	ltpFR	0	4	1	COOK	372	1	n/a	1	n/a	n/a	n/a	n/a	n/a
4432115	RECOG_CONF	n/a	LTP242	ltpFR	0	4	1	COOK	372	n/a	5	1	n/a	n/a	n/a	n/a	n/a
4433880	RECOG_LURE	n/a	LTP242	ltpFR	0	4	n/a	DOLPHIN	483	0	3	n/a	n/a	n/a	n/a	n/a	n/a
4435189	RECOG_RESP	n/a	LTP242	ltpFR	0	4	n/a	DOLPHIN	483	0	n/a	n/a	n/a	n/a	n/a	n/a	n/a
4436378	RECOG_CONF	n/a	LTP242	ltpFR	0	4	n/a	DOLPHIN	483	n/a	3	n/a	n/a	n/a	n/a	n/a	n/a
4441544	REC_START	n/a	LTP242	ltpFR	0	5	n/a	n/a	n/a	n/a	n/a	n/a	n/a	n/a	n/a	n/a	n/a
4441593	RECOG_TARGET	n/a	LTP242	ltpFR	0	5	0	SWING	1421	n/a	5	1	n/a	n/a	n/a	n/a	n/a
4444697	RECOG_CONF	n/a	LTP242	ltpFR	0	5	0	SWING	1421	n/a	5	1	n/a	n/a	n/a	n/a	n/a
4446474	RECOG_LURE	n/a	LTP242	ltpFR	0	5	n/a	YOKE	1632	0	2	n/a	n/a	n/a	n/a	n/a	n/a
4448126	RECOG_RESP	n/a	LTP242	ltpFR	0	5	n/a	YOKE	1632	0	n/a	n/a	n/a	n/a	n/a	n/a	n/a
4449386	RECOG_CONF	n/a	LTP242	ltpFR	0	5	n/a	YOKE	1632	n/a	2	n/a	n/a	n/a	n/a	n/a	n/a
4451142	RECOG_TARGET	n/a	LTP242	ltpFR	0	5	-1	BUGGY	188	0	3	-1	n/a	n/a	n/a	n/a	n/a
4452419	RECOG_RESP	n/a	LTP242	ltpFR	0	5	-1	BUGGY	188	0	n/a	-1	n/a	n/a	n/a	n/a	n/a
4453773	RECOG_CONF	n/a	LTP242	ltpFR	0	5	-1	BUGGY	188	n/a	3	-1	n/a	n/a	n/a	n/a	n/a
4455562	RECOG_TARGET	n/a	LTP242	ltpFR	0	5	-1	ANTENNA	28	1	5	-1	n/a	n/a	n/a	n/a	n/a
4456800	RECOG_RESP	n/a	LTP242	ltpFR	0	5	-1	ANTENNA	28	1	n/a	-1	n/a	n/a	n/a	n/a	n/a
4458107	RECOG_CONF	n/a	LTP242	ltpFR	0	5	-1	ANTENNA	28	n/a	5	-1	n/a	n/a	n/a	n/a	n/a
4460948	RECOG_TARGET	n/a	LTP242	ltpFR	0	5	0	EMPEROR	529	1	5	1	n/a	n/a	n/a	n/a	n/a
4462075	RECOG_RESP	n/a	LTP242	ltpFR	0	5	0	EMPEROR	529	1	n/a	1	n/a	n/a	n/a	n/a	n/a
4463018	RECOG_CONF	n/a	LTP242	ltpFR	0	5	0	EMPEROR	529	n/a	5	1	n/a	n/a	n/a	n/a	n/a
4465078	RECOG_LURE	n/a	LTP242	ltpFR	0	5	n/a	BED	110	0	3	n/a	n/a	n/a	n/a	n/a	n/a
4466130	RECOG_RESP	n/a	LTP242	ltpFR	0	5	n/a	BED	110	0	n/a	n/a	n/a	n/a	n/a	n/a	n/a
4467228	RECOG_CONF	n/a	LTP242	ltpFR	0	5	n/a	BED	110	n/a	3	n/a	n/a	n/a	n/a	n/a	n/a
4468912	RECOG_LURE	n/a	LTP242	ltpFR	0	5	n/a	FEAST	556	0	4	n/a	n/a	n/a	n/a	n/a	n/a
4470238	RECOG_RESP	n/a	LTP242	ltpFR	0	5	n/a	FEAST	556	0	n/a	n/a	n/a	n/a	n/a	n/a	n/a
4471213	RECOG_CONF	n/a	LTP242	ltpFR	0	5	n/a	FEAST	556	n/a	4	n/a	n/a	n/a	n/a	n/a	n/a
4473075	RECOG_LURE	n/a	LTP242	ltpFR	0	5	n/a	ROAD	1196	0	2	n/a	n/a	n/a	n/a	n/a	n/a
4474032	RECOG_RESP	n/a	LTP242	ltpFR	0	5	n/a	ROAD	1196	0	n/a	n/a	n/a	n/a	n/a	n/a	n/a
4475446	RECOG_CONF	n/a	LTP242	ltpFR	0	5	n/a	ROAD	1196	n/a	2	n/a	n/a	n/a	n/a	n/a	n/a
4476674	RECOG_TARGET	n/a	LTP242	ltpFR	0	5	1	COLONEL	348	1	5	1	n/a	n/a	n/a	n/a	n/a
4478466	RECOG_RESP	n/a	LTP242	ltpFR	0	5	1	COLONEL	348	1	n/a	1	n/a	n/a	n/a	n/a	n/a
4479325	RECOG_CONF	n/a	LTP242	ltpFR	0	5	1	COLONEL	348	n/a	5	1	n/a	n/a	n/a	n/a	n/a
4481359	RECOG_TARGET	n/a	LTP242	ltpFR	0	5	0	CHIEF	298	1	4	1	n/a	n/a	n/a	n/a	n/a
4482002	RECOG_RESP	n/a	LTP242	ltpFR	0	5	0	CHIEF	298	1	n/a	1	n/a	n/a	n/a	n/a	n/a
4482894	RECOG_CONF	n/a	LTP242	ltpFR	0	5	0	CHIEF	298	n/a	4	1	n/a	n/a	n/a	n/a	n/a
4484922	RECOG_TARGET	n/a	LTP242	ltpFR	0	5	1	CREEK	404	1	4	0	n/a	n/a	n/a	n/a	n/a
4485882	RECOG_RESP_VV	n/a	LTP242	ltpFR	0	5	1	CREEK	404	1	n/a	0	n/a	n/a	n/a	n/a	n/a
4486346	RECOG_RESP_VV	n/a	LTP242	ltpFR	0	5	1	CREEK	404	n/a	4	0	n/a	n/a	n/a	n/a	n/a
4486938	RECOG_RESP	n/a	LTP242	ltpFR	0	5	1	CREEK	404	1	n/a	0	n/a	n/a	n/a	n/a	n/a
4488011	RECOG_CONF	n/a	LTP242	ltpFR	0	5	1	CREEK	404	n/a	4	0	n/a	n/a	n/a	n/a	n/a
4489954	RECOG_LURE	n/a	LTP242	ltpFR	0	5	n/a	ESCALATOR	539	0	3	n/a	n/a	n/a	n/a	n/a	n/a
4491593	RECOG_RESP	n/a	LTP242	ltpFR	0	5	n/a	ESCALATOR	539	0	n/a	n/a	n/a	n/a	n/a	n/a	n/a
4492586	RECOG_CONF	n/a	LTP242	ltpFR	0	5	n/a	ESCALATOR	539	n/a	3	n/a	n/a	n/a	n/a	n/a	n/a
4494375	RECOG_TARGET	n/a	LTP242	ltpFR	0	5	0	ELBOW	520	1	3	1	n/a	n/a	n/a	n/a	n/a
4495928	RECOG_RESP	n/a	LTP242	ltpFR	0	5	0	ELBOW	520	1	n/a	1	n/a	n/a	n/a	n/a	n/a
4496855	RECOG_CONF	n/a	LTP242	ltpFR	0	5	0	ELBOW	520	n/a	3	1	n/a	n/a	n/a	n/a	n/a
4498787	RECOG_LURE	n/a	LTP242	ltpFR	0	5	n/a	LADDER	793	0	3	n/a	n/a	n/a	n/a	n/a	n/a
4499622	RECOG_RESP	n/a	LTP242	ltpFR	0	5	n/a	LADDER	793	0	n/a	n/a	n/a	n/a	n/a	n/a	n/a
4500535	RECOG_CONF	n/a	LTP242	ltpFR	0	5	n/a	LADDER	793	n/a	3	n/a	n/a	n/a	n/a	n/a	n/a
4502238	RECOG_TARGET	n/a	LTP242	ltpFR	0	5	0	SUIT	1402	1	5	1	n/a	n/a	n/a	n/a	n/a
4503332	RECOG_RESP	n/a	LTP242	ltpFR	0	5	0	SUIT	1402	1	n/a	1	n/a	n/a	n/a	n/a	n/a
4504551	RECOG_CONF	n/a	LTP242	ltpFR	0	5	0	SUIT	1402	n/a	5	1	n/a	n/a	n/a	n/a	n/a
4506333	RECOG_LURE	n/a	LTP242	ltpFR	0	5	n/a	NERVE	944	0	2	n/a	n/a	n/a	n/a	n/a	n/a
4507985	RECOG_RESP	n/a	LTP242	ltpFR	0	5	n/a	NERVE	944	0	n/a	n/a	n/a	n/a	n/a	n/a	n/a
4509536	RECOG_CONF	n/a	LTP242	ltpFR	0	5	n/a	NERVE	944	n/a	2	n/a	n/a	n/a	n/a	n/a	n/a
4511088	RECOG_TARGET	n/a	LTP242	ltpFR	0	5	-1	TANK	1432	1	5	-1	n/a	n/a	n/a	n/a	n/a
4512127	RECOG_RESP	n/a	LTP242	ltpFR	0	5	-1	TANK	1432	1	n/a	-1	n/a	n/a	n/a	n/a	n/a
4512948	RECOG_CONF	n/a	LTP242	ltpFR	0	5	-1	TANK	1432	n/a	5	-1	n/a	n/a	n/a	n/a	n/a
4514818	RECOG_TARGET	n/a	LTP242	ltpFR	0	5	1	FINGER	567	1	3	1	n/a	n/a	n/a	n/a	n/a
4517265	RECOG_RESP	n/a	LTP242	ltpFR	0	5	1	FINGER	567	1	n/a	1	n/a	n/a	n/a	n/a	n/a
4518228	RECOG_CONF	n/a	LTP242	ltpFR	0	5	1	FINGER	567	n/a	3	1	n/a	n/a	n/a	n/a	n/a
4520005	RECOG_TARGET	n/a	LTP242	ltpFR	0	5	1	CHAUFFEUR	283	1	5	1	n/a	n/a	n/a	n/a	n/a
4521323	RECOG_RESP	n/a	LTP242	ltpFR	0	5	1	CHAUFFEUR	283	1	n/a	1	n/a	n/a	n/a	n/a	n/a
4522190	RECOG_CONF	n/a	LTP242	ltpFR	0	5	1	CHAUFFEUR	283	n/a	5	1	n/a	n/a	n/a	n/a	n/a
4524033	RECOG_LURE	n/a	LTP242	ltpFR	0	5	n/a	MICROWAVE	892	0	3	n/a	n/a	n/a	n/a	n/a	n/a
4525381	RECOG_RESP	n/a	LTP242	ltpFR	0	5	n/a	MICROWAVE	892	0	n/a	n/a	n/a	n/a	n/a	n/a	n/a
4526293	RECOG_CONF	n/a	LTP242	ltpFR	0	5	n/a	MICROWAVE	892	n/a	3	n/a	n/a	n/a	n/a	n/a	n/a
4530309	REC_START	n/a	LTP242	ltpFR	0	6	n/a	n/a	n/a	n/a	n/a	n/a	n/a	n/a	n/a	n/a	n/a
4530361	RECOG_TARGET	n/a	LTP242	ltpFR	0	6	0	FORT	595	1	5	1	n/a	n/a	n/a	n/a	n/a
4532207	RECOG_RESP	n/a	LTP242	ltpFR	0	6	0	FORT	595	1	n/a	1	n/a	n/a	n/a	n/a	n/a
4532961	RECOG_CONF	n/a	LTP242	ltpFR	0	6	0	FORT	595	n/a	5	1	n/a	n/a	n/a	n/a	n/a
4534810	RECOG_LURE	n/a	LTP242	ltpFR	0	6	n/a	CRAYON	401	0	2	n/a	n/a	n/a	n/a	n/a	n/a
4536194	RECOG_RESP	n/a	LTP242	ltpFR	0	6	n/a	CRAYON	401	0	n/a	n/a	n/a	n/a	n/a	n/a	n/a
4537030	RECOG_CONF	n/a	LTP242	ltpFR	0	6	n/a	CRAYON	401	n/a	2	n/a	n/a	n/a	n/a	n/a	n/a
4538875	RECOG_LURE	n/a	LTP242	ltpFR	0	6	n/a	BEER	114	0	3	n/a	n/a	n/a	n/a	n/a	n/a
4540048	RECOG_RESP	n/a	LTP242	ltpFR	0	6	n/a	BEER	114	0	n/a	n/a	n/a	n/a	n/a	n/a	n/a
4540910	RECOG_CONF	n/a	LTP242	ltpFR	0	6	n/a	BEER	114	n/a	3	n/a	n/a	n/a	n/a	n/a	n/a
4542757	RECOG_TARGET	n/a	LTP242	ltpFR	0	6	1	SPOOL	1356	1	5	0	n/a	n/a	n/a	n/a	n/a
4543916	RECOG_RESP	n/a	LTP242	ltpFR	0	6	1	SPOOL	1356	1	n/a	0	n/a	n/a	n/a	n/a	n/a
4544831	RECOG_CONF	n/a	LTP242	ltpFR	0	6	1	SPOOL	1356	n/a	5	0	n/a	n/a	n/a	n/a	n/a
4546622	RECOG_TARGET	n/a	LTP242	ltpFR	0	6	1	PANTS	1010	1	4	0	n/a	n/a	n/a	n/a	n/a
4548181	RECOG_RESP	n/a	LTP242	ltpFR	0	6	1	PANTS	1010	1	n/a	0	n/a	n/a	n/a	n/a	n/a
4549011	RECOG_CONF	n/a	LTP242	ltpFR	0	6	1	PANTS	1010	n/a	4	0	n/a	n/a	n/a	n/a	n/a
4550753	RECOG_TARGET	n/a	LTP242	ltpFR	0	6	1	RAFT	1159	1	4	0	n/a	n/a	n/a	n/a	n/a
4551682	RECOG_RESP	n/a	LTP242	ltpFR	0	6	1	RAFT	1159	1	n/a	0	n/a	n/a	n/a	n/a	n/a
4552452	RECOG_CONF	n/a	LTP242	ltpFR	0	6	1	RAFT	1159	n/a	4	0	n/a	n/a	n/a	n/a	n/a
4554569	RECOG_TARGET	n/a	LTP242	ltpFR	0	6	0	SCREW	1254	1	5	0	n/a	n/a	n/a	n/a	n/a
4555728	RECOG_RESP	n/a	LTP242	ltpFR	0	6	0	SCREW	1254	1	n/a	0	n/a	n/a	n/a	n/a	n/a
4556684	RECOG_CONF	n/a	LTP242	ltpFR	0	6	0	SCREW	1254	n/a	5	0	n/a	n/a	n/a	n/a	n/a
4558500	RECOG_LURE	n/a	LTP242	ltpFR	0	6	n/a	SURF	1412	0	4	n/a	n/a	n/a	n/a	n/a	n/a
4559642	RECOG_RESP	n/a	LTP242	ltpFR	0	6	n/a	SURF	1412	0	n/a	n/a	n/a	n/a	n/a	n/a	n/a
4560433	RECOG_CONF	n/a	LTP242	ltpFR	0	6	n/a	SURF	1412	n/a	4	n/a	n/a	n/a	n/a	n/a	n/a
4562164	RECOG_LURE	n/a	LTP242	ltpFR	0	6	n/a	DAD	433	0	5	n/a	n/a	n/a	n/a	n/a	n/a
4563450	RECOG_RESP	n/a	LTP242	ltpFR	0	6	n/a	DAD	433	0	n/a	n/a	n/a	n/a	n/a	n/a	n/a
4564192	RECOG_CONF	n/a	LTP242	ltpFR	0	6	n/a	DAD	433	n/a	5	n/a	n/a	n/a	n/a	n/a	n/a
4566112	RECOG_TARGET	n/a	LTP242	ltpFR	0	6	-1	TUBE	1516	1	5	-1	n/a	n/a	n/a	n/a	n/a
4567133	RECOG_RESP	n/a	LTP242	ltpFR	0	6	-1	TUBE	1516	1	n/a	-1	n/a	n/a	n/a	n/a	n/a
4567866	RECOG_CONF	n/a	LTP242	ltpFR	0	6	-1	TUBE	1516	n/a	5	-1	n/a	n/a	n/a	n/a	n/a
4569575	RECOG_TARGET	n/a	LTP242	ltpFR	0	6	1	MOUSE	925	1	5	1	n/a	n/a	n/a	n/a	n/a
4570370	RECOG_RESP	n/a	LTP242	ltpFR	0	6	1	MOUSE	925	1	n/a	1	n/a	n/a	n/a	n/a	n/a
4571258	RECOG_CONF	n/a	LTP242	ltpFR	0	6	1	MOUSE	925	n/a	5	1	n/a	n/a	n/a	n/a	n/a
4572853	RECOG_TARGET	n/a	LTP242	ltpFR	0	6	1	POCKET	1093	0	2	0	n/a	n/a	n/a	n/a	n/a
4574010	RECOG_RESP	n/a	LTP242	ltpFR	0	6	1	POCKET	1093	0	n/a	0	n/a	n/a	n/a	n/a	n/a
4574847	RECOG_CONF	n/a	LTP242	ltpFR	0	6	1	POCKET	1093	n/a	2	0	n/a	n/a	n/a	n/a	n/a
4576568	RECOG_LURE	n/a	LTP242	ltpFR	0	6	n/a	WASP	1593	0	5	n/a	n/a	n/a	n/a	n/a	n/a
4577708	RECOG_RESP	n/a	LTP242	ltpFR	0	6	n/a	WASP	1593	0	n/a	n/a	n/a	n/a	n/a	n/a	n/a
4578515	RECOG_CONF	n/a	LTP242	ltpFR	0	6	n/a	WASP	1593	n/a	5	n/a	n/a	n/a	n/a	n/a	n/a
4580383	RECOG_TARGET	n/a	LTP242	ltpFR	0	6	0	BINDER	127	1	5	0	n/a	n/a	n/a	n/a	n/a
4581475	RECOG_RESP	n/a	LTP242	ltpFR	0	6	0	BINDER	127	1	n/a	0	n/a	n/a	n/a	n/a	n/a
4582201	RECOG_CONF	n/a	LTP242	ltpFR	0	6	0	BINDER	127	n/a	5	0	n/a	n/a	n/a	n/a	n/a
4583928	RECOG_LURE	n/a	LTP242	ltpFR	0	6	n/a	TULIP	1517	0	3	n/a	n/a	n/a	n/a	n/a	n/a
4586410	RECOG_RESP	n/a	LTP242	ltpFR	0	6	n/a	TULIP	1517	0	n/a	n/a	n/a	n/a	n/a	n/a	n/a
4587474	RECOG_CONF	n/a	LTP242	ltpFR	0	6	n/a	TULIP	1517	n/a	3	n/a	n/a	n/a	n/a	n/a	n/a
4589250	RECOG_TARGET	n/a	LTP242	ltpFR	0	6	1	EDITOR	516	1	5	1	n/a	n/a	n/a	n/a	n/a
4590493	RECOG_RESP	n/a	LTP242	ltpFR	0	6	1	EDITOR	516	1	n/a	1	n/a	n/a	n/a	n/a	n/a
4591446	RECOG_CONF	n/a	LTP242	ltpFR	0	6	1	EDITOR	516	n/a	5	1	n/a	n/a	n/a	n/a	n/a
4593281	RECOG_TARGET	n/a	LTP242	ltpFR	0	6	0	RECIPE	1175	1	4	0	n/a	n/a	n/a	n/a	n/a
4594104	RECOG_RESP	n/a	LTP242	ltpFR	0	6	0	RECIPE	1175	1	n/a	0	n/a	n/a	n/a	n/a	n/a
4594875	RECOG_CONF	n/a	LTP242	ltpFR	0	6	0	RECIPE	1175	n/a	4	0	n/a	n/a	n/a	n/a	n/a
4596627	RECOG_TARGET	n/a	LTP242	ltpFR	0	6	0	CAMEL	223	1	4	1	n/a	n/a	n/a	n/a	n/a
4597703	RECOG_RESP	n/a	LTP242	ltpFR	0	6	0	CAMEL	223	1	n/a	1	n/a	n/a	n/a	n/a	n/a
4598600	RECOG_CONF	n/a	LTP242	ltpFR	0	6	0	CAMEL	223	n/a	4	1	n/a	n/a	n/a	n/a	n/a
4600575	RECOG_TARGET	n/a	LTP242	ltpFR	0	6	0	TOWEL	1489	1	3	0	n/a	n/a	n/a	n/a	n/a
4602119	RECOG_RESP	n/a	LTP242	ltpFR	0	6	0	TOWEL	1489	1	n/a	0	n/a	n/a	n/a	n/a	n/a
4603291	RECOG_CONF	n/a	LTP242	ltpFR	0	6	0	TOWEL	1489	n/a	3	0	n/a	n/a	n/a	n/a	n/a
4605143	RECOG_TARGET	n/a	LTP242	ltpFR	0	6	1	KETCHUP	771	1	5	0	n/a	n/a	n/a	n/a	n/a
4605986	RECOG_RESP	n/a	LTP242	ltpFR	0	6	1	KETCHUP	771	1	n/a	0	n/a	n/a	n/a	n/a	n/a
4606760	RECOG_CONF	n/a	LTP242	ltpFR	0	6	1	KETCHUP	771	n/a	5	0	n/a	n/a	n/a	n/a	n/a
4617873	REC_START	n/a	LTP242	ltpFR	0	7	n/a	n/a	n/a	n/a	n/a	n/a	n/a	n/a	n/a	n/a	n/a
4617923	RECOG_TARGET	n/a	LTP242	ltpFR	0	7	1	CITY	314	1	5	0	n/a	n/a	n/a	n/a	n/a
4619265	RECOG_RESP	n/a	LTP242	ltpFR	0	7	1	CITY	314	1	n/a	0	n/a	n/a	n/a	n/a	n/a
4620014	RECOG_CONF	n/a	LTP242	ltpFR	0	7	1	CITY	314	n/a	5	0	n/a	n/a	n/a	n/a	n/a
4621938	RECOG_TARGET	n/a	LTP242	ltpFR	0	7	1	ENEMY	534	1	5	1	n/a	n/a	n/a	n/a	n/a
4622653	RECOG_RESP	n/a	LTP242	ltpFR	0	7	1	ENEMY	534	1	n/a	1	n/a	n/a	n/a	n/a	n/a
4623491	RECOG_CONF	n/a	LTP242	ltpFR	0	7	1	ENEMY	534	n/a	5	1	n/a	n/a	n/a	n/a	n/a
4625335	RECOG_TARGET	n/a	LTP242	ltpFR	0	7	-1	WALLET	1583	1	4	-1	n/a	n/a	n/a	n/a	n/a
4625882	RECOG_RESP	n/a	LTP242	ltpFR	0	7	-1	WALLET	1583	1	n/a	-1	n/a	n/a	n/a	n/a	n/a
4626763	RECOG_CONF	n/a	LTP242	ltpFR	0	7	-1	WALLET	1583	n/a	4	-1	n/a	n/a	n/a	n/a	n/a
4628598	RECOG_TARGET	n/a	LTP242	ltpFR	0	7	-1	DAUGHTER	442	1	4	-1	n/a	n/a	n/a	n/a	n/a
4629678	RECOG_RESP	n/a	LTP242	ltpFR	0	7	-1	DAUGHTER	442	1	n/a	-1	n/a	n/a	n/a	n/a	n/a
4630596	RECOG_CONF	n/a	LTP242	ltpFR	0	7	-1	DAUGHTER	442	n/a	4	-1	n/a	n/a	n/a	n/a	n/a
4632429	RECOG_TARGET	n/a	LTP242	ltpFR	0	7	0	SCENERY	1247	1	4	n/a	n/a	n/a	n/a	n/a	n/a
4633019	RECOG_RESP	n/a	LTP242	ltpFR	0	7	0	SCENERY	1247	1	n/a	n/a	n/a	n/a	n/a	n/a	n/a
4634060	RECOG_CONF	n/a	LTP242	ltpFR	0	7	0	SCENERY	1247	n/a	4	n/a	n/a	n/a	n/a	n/a	n/a
4635753	RECOG_LURE	n/a	LTP242	ltpFR	0	7	n/a	SWITCH	1422	0	3	n/a	n/a	n/a	n/a	n/a	n/a
4636799	RECOG_RESP	n/a	LTP242	ltpFR	0	7	n/a	SWITCH	1422	0	n/a	n/a	n/a	n/a	n/a	n/a	n/a
4637800	RECOG_CONF	n/a	LTP242	ltpFR	0	7	n/a	SWITCH	1422	n/a	3	n/a	n/a	n/a	n/a	n/a	n/a
4639405	RECOG_LURE	n/a	LTP242	ltpFR	0	7	n/a	TOTE	1487	0	3	n/a	n/a	n/a	n/a	n/a	n/a
4640306	RECOG_RESP	n/a	LTP242	ltpFR	0	7	n/a	TOTE	1487	0	n/a	n/a	n/a	n/a	n/a	n/a	n/a
4641380	RECOG_CONF	n/a	LTP242	ltpFR	0	7	n/a	TOTE	1487	n/a	3	n/a	n/a	n/a	n/a	n/a	n/a
4643035	RECOG_TARGET	n/a	LTP242	ltpFR	0	7	1	JEEP	753	1	4	0	n/a	n/a	n/a	n/a	n/a
4643878	RECOG_RESP	n/a	LTP242	ltpFR	0	7	1	JEEP	753	1	n/a	0	n/a	n/a	n/a	n/a	n/a
4644995	RECOG_CONF	n/a	LTP242	ltpFR	0	7	1	JEEP	753	n/a	4	0	n/a	n/a	n/a	n/a	n/a
4646882	RECOG_TARGET	n/a	LTP242	ltpFR	0	7	1	BUILDING	191	1	5	0	n/a	n/a	n/a	n/a	n/a
4647881	RECOG_RESP	n/a	LTP242	ltpFR	0	7	1	BUILDING	191	1	n/a	0	n/a	n/a	n/a	n/a	n/a
4648833	RECOG_CONF	n/a	LTP242	ltpFR	0	7	1	BUILDING	191	n/a	5	0	n/a	n/a	n/a	n/a	n/a
4650597	RECOG_TARGET	n/a	LTP242	ltpFR	0	7	0	SUPERMARKET	1409	1	5	1	n/a	n/a	n/a	n/a	n/a
4651383	RECOG_RESP	n/a	LTP242	ltpFR	0	7	0	SUPERMARKET	1409	1	n/a	1	n/a	n/a	n/a	n/a	n/a
4652318	RECOG_CONF	n/a	LTP242	ltpFR	0	7	0	SUPERMARKET	1409	n/a	5	1	n/a	n/a	n/a	n/a	n/a
4654144	RECOG_LURE	n/a	LTP242	ltpFR	0	7	n/a	GHOST	634	0	3	n/a	n/a	n/a	n/a	n/a	n/a
4654944	RECOG_RESP	n/a	LTP242	ltpFR	0	7	n/a	GHOST	634	0	n/a	n/a	n/a	n/a	n/a	n/a	n/a
4655879	RECOG_CONF	n/a	LTP242	ltpFR	0	7	n/a	GHOST	634	n/a	3	n/a	n/a	n/a	n/a	n/a	n/a
4657690	RECOG_TARGET	n/a	LTP242	ltpFR	0	7	1	BARRACUDA	90	1	5	1	n/a	n/a	n/a	n/a	n/a
4658640	RECOG_RESP	n/a	LTP242	ltpFR	0	7	1	BARRACUDA	90	1	n/a	1	n/a	n/a	n/a	n/a	n/a
4660237	RECOG_CONF	n/a	LTP242	ltpFR	0	7	1	BARRACUDA	90	n/a	5	1	n/a	n/a	n/a	n/a	n/a
4662007	RECOG_TARGET	n/a	LTP242	ltpFR	0	7	1	BUG	187	1	5	2	n/a	n/a	n/a	n/a	n/a
4662809	RECOG_RESP	n/a	LTP242	ltpFR	0	7	1	BUG	187	1	n/a	2	n/a	n/a	n/a	n/a	n/a
4663963	RECOG_CONF	n/a	LTP242	ltpFR	0	7	1	BUG	187	n/a	5	2	n/a	n/a	n/a	n/a	n/a
4665537	RECOG_TARGET	n/a	LTP242	ltpFR	0	7	-1	TWIN	1528	1	4	-1	n/a	n/a	n/a	n/a	n/a
4666237	RECOG_RESP	n/a	LTP242	ltpFR	0	7	-1	TWIN	1528	1	n/a	-1	n/a	n/a	n/a	n/a	n/a
4667146	RECOG_CONF	n/a	LTP242	ltpFR	0	7	-1	TWIN	1528	n/a	4	-1	n/a	n/a	n/a	n/a	n/a
4668932	RECOG_TARGET	n/a	LTP242	ltpFR	0	7	1	ENGINEER	536	1	5	1	n/a	n/a	n/a	n/a	n/a
4669828	RECOG_RESP	n/a	LTP242	ltpFR	0	7	1	ENGINEER	536	1	n/a	1	n/a	n/a	n/a	n/a	n/a
4670600	RECOG_CONF	n/a	LTP242	ltpFR	0	7	1	ENGINEER	536	n/a	5	1	n/a	n/a	n/a	n/a	n/a
4672346	RECOG_LURE	n/a	LTP242	ltpFR	0	7	n/a	SWORD	1423	0	5	n/a	n/a	n/a	n/a	n/a	n/a
4673944	RECOG_RESP	n/a	LTP242	ltpFR	0	7	n/a	SWORD	1423	0	n/a	n/a	n/a	n/a	n/a	n/a	n/a
4674666	RECOG_CONF	n/a	LTP242	ltpFR	0	7	n/a	SWORD	1423	n/a	5	n/a	n/a	n/a	n/a	n/a	n/a
4676458	RECOG_TARGET	n/a	LTP242	ltpFR	0	7	1	ROOT	1210	1	4	0	n/a	n/a	n/a	n/a	n/a
4677294	RECOG_RESP	n/a	LTP242	ltpFR	0	7	1	ROOT	1210	1	n/a	0	n/a	n/a	n/a	n/a	n/a
4678151	RECOG_CONF	n/a	LTP242	ltpFR	0	7	1	ROOT	1210	n/a	4	0	n/a	n/a	n/a	n/a	n/a
4679823	RECOG_TARGET	n/a	LTP242	ltpFR	0	7	1	FOLDER	588	1	3	0	n/a	n/a	n/a	n/a	n/a
4680705	RECOG_RESP	n/a	LTP242	ltpFR	0	7	1	FOLDER	588	1	n/a	0	n/a	n/a	n/a	n/a	n/a
4681542	RECOG_CONF	n/a	LTP242	ltpFR	0	7	1	FOLDER	588	n/a	3	0	n/a	n/a	n/a	n/a	n/a
4683220	RECOG_TARGET	n/a	LTP242	ltpFR	0	7	0	SHIP	1286	1	5	1	n/a	n/a	n/a	n/a	n/a
4683969	RECOG_RESP	n/a	LTP242	ltpFR	0	7	0	SHIP	1286	1	n/a	1	n/a	n/a	n/a	n/a	n/a
4684581	RECOG_CONF	n/a	LTP242	ltpFR	0	7	0	SHIP	1286	n/a	5	1	n/a	n/a	n/a	n/a	n/a
4686449	RECOG_TARGET	n/a	LTP242	ltpFR	0	7	-1	CATERPILLAR	259	1	5	-1	n/a	n/a	n/a	n/a	n/a
4687363	RECOG_RESP	n/a	LTP242	ltpFR	0	7	-1	CATERPILLAR	259	1	n/a	-1	n/a	n/a	n/a	n/a	n/a
4687993	RECOG_CONF	n/a	LTP242	ltpFR	0	7	-1	CATERPILLAR	259	n/a	5	-1	n/a	n/a	n/a	n/a	n/a
4691962	REC_START	n/a	LTP242	ltpFR	0	8	n/a	n/a	n/a	n/a	n/a	n/a	n/a	n/a	n/a	n/a	n/a
4692020	RECOG_TARGET	n/a	LTP242	ltpFR	0	8	-1	BOLT	146	1	5	-1	n/a	n/a	n/a	n/a	n/a
4692923	RECOG_RESP	n/a	LTP242	ltpFR	0	8	-1	BOLT	146	1	n/a	-1	n/a	n/a	n/a	n/a	n/a
4693568	RECOG_CONF	n/a	LTP242	ltpFR	0	8	-1	BOLT	146	n/a	5	-1	n/a	n/a	n/a	n/a	n/a
4695379	RECOG_TARGET	n/a	LTP242	ltpFR	0	8	1	COMMUNITY	356	1	5	0	n/a	n/a	n/a	n/a	n/a
4695961	RECOG_RESP	n/a	LTP242	ltpFR	0	8	1	COMMUNITY	356	1	n/a	0	n/a	n/a	n/a	n/a	n/a
4696573	RECOG_CONF	n/a	LTP242	ltpFR	0	8	1	COMMUNITY	356	n/a	5	0	n/a	n/a	n/a	n/a	n/a
4698244	RECOG_TARGET	n/a	LTP242	ltpFR	0	8	0	SHRUB	1299	1	5	1	n/a	n/a	n/a	n/a	n/a
4699556	RECOG_RESP	n/a	LTP242	ltpFR	0	8	0	SHRUB	1299	1	n/a	1	n/a	n/a	n/a	n/a	n/a
4700217	RECOG_CONF	n/a	LTP242	ltpFR	0	8	0	SHRUB	1299	n/a	5	1	n/a	n/a	n/a	n/a	n/a
4702108	RECOG_LURE	n/a	LTP242	ltpFR	0	8	n/a	DIAGRAM	456	0	3	n/a	n/a	n/a	n/a	n/a	n/a
4703559	RECOG_RESP	n/a	LTP242	ltpFR	0	8	n/a	DIAGRAM	456	0	n/a	n/a	n/a	n/a	n/a	n/a	n/a
4704937	RECOG_CONF	n/a	LTP242	ltpFR	0	8	n/a	DIAGRAM	456	n/a	3	n/a	n/a	n/a	n/a	n/a	n/a
4706274	RECOG_LURE	n/a	LTP242	ltpFR	0	8	n/a	AIRCRAFT	11	0	3	n/a	n/a	n/a	n/a	n/a	n/a
4707350	RECOG_RESP	n/a	LTP242	ltpFR	0	8	n/a	AIRCRAFT	11	0	n/a	n/a	n/a	n/a	n/a	n/a	n/a
4708219	RECOG_CONF	n/a	LTP242	ltpFR	0	8	n/a	AIRCRAFT	11	n/a	3	n/a	n/a	n/a	n/a	n/a	n/a
4709883	RECOG_TARGET	n/a	LTP242	ltpFR	0	8	0	LOBSTER	837	1	5	0	n/a	n/a	n/a	n/a	n/a
4710614	RECOG_RESP	n/a	LTP242	ltpFR	0	8	0	LOBSTER	837	1	n/a	0	n/a	n/a	n/a	n/a	n/a
4711256	RECOG_CONF	n/a	LTP242	ltpFR	0	8	0	LOBSTER	837	n/a	5	0	n/a	n/a	n/a	n/a	n/a
4712894	RECOG_TARGET	n/a	LTP242	ltpFR	0	8	1	CIRCUS	311	1	5	1	n/a	n/a	n/a	n/a	n/a
4713749	RECOG_RESP	n/a	LTP242	ltpFR	0	8	1	CIRCUS	311	1	n/a	1	n/a	n/a	n/a	n/a	n/a
4714324	RECOG_CONF	n/a	LTP242	ltpFR	0	8	1	CIRCUS	311	n/a	5	1	n/a	n/a	n/a	n/a	n/a
4715626	RECOG_LURE	n/a	LTP242	ltpFR	0	8	n/a	LIGHTNING	820	0	3	n/a	n/a	n/a	n/a	n/a	n/a
4716657	RECOG_RESP	n/a	LTP242	ltpFR	0	8	n/a	LIGHTNING	820	0	n/a	n/a	n/a	n/a	n/a	n/a	n/a
4717534	RECOG_CONF	n/a	LTP242	ltpFR	0	8	n/a	LIGHTNING	820	n/a	3	n/a	n/a	n/a	n/a	n/a	n/a
4718887	RECOG_TARGET	n/a	LTP242	ltpFR	0	8	0	FLASK	576	1	5	0	n/a	n/a	n/a	n/a	n/a
4720402	RECOG_RESP	n/a	LTP242	ltpFR	0	8	0	FLASK	576	1	n/a	0	n/a	n/a	n/a	n/a	n/a
4721695	RECOG_CONF	n/a	LTP242	ltpFR	0	8	0	FLASK	576	n/a	5	0	n/a	n/a	n/a	n/a	n/a
4723368	RECOG_TARGET	n/a	LTP242	ltpFR	0	8	0	PASTRY	1022	1	5	0	n/a	n/a	n/a	n/a	n/a
4724860	RECOG_RESP	n/a	LTP242	ltpFR	0	8	0	PASTRY	1022	1	n/a	0	n/a	n/a	n/a	n/a	n/a
4725973	RECOG_CONF	n/a	LTP242	ltpFR	0	8	0	PASTRY	1022	n/a	5	0	n/a	n/a	n/a	n/a	n/a
4727921	RECOG_TARGET	n/a	LTP242	ltpFR	0	8	1	PARSLEY	1016	1	4	0	n/a	n/a	n/a	n/a	n/a
4729149	RECOG_RESP	n/a	LTP242	ltpFR	0	8	1	PARSLEY	1016	1	n/a	0	n/a	n/a	n/a	n/a	n/a
4729950	RECOG_CONF	n/a	LTP242	ltpFR	0	8	1	PARSLEY	1016	n/a	4	0	n/a	n/a	n/a	n/a	n/a
4731752	RECOG_TARGET	n/a	LTP242	ltpFR	0	8	1	GOO	648	1	3	0	n/a	n/a	n/a	n/a	n/a
4732614	RECOG_RESP	n/a	LTP242	ltpFR	0	8	1	GOO	648	1	n/a	0	n/a	n/a	n/a	n/a	n/a
4733813	RECOG_CONF	n/a	LTP242	ltpFR	0	8	1	GOO	648	n/a	3	0	n/a	n/a	n/a	n/a	n/a
4735700	RECOG_TARGET	n/a	LTP242	ltpFR	0	8	0	CACTUS	215	1	5	1	n/a	n/a	n/a	n/a	n/a
4736490	RECOG_RESP	n/a	LTP242	ltpFR	0	8	0	CACTUS	215	1	n/a	1	n/a	n/a	n/a	n/a	n/a
4737259	RECOG_CONF	n/a	LTP242	ltpFR	0	8	0	CACTUS	215	n/a	5	1	n/a	n/a	n/a	n/a	n/a
4738993	RECOG_TARGET	n/a	LTP242	ltpFR	0	8	0	BONE	148	1	5	0	n/a	n/a	n/a	n/a	n/a
4739996	RECOG_RESP	n/a	LTP242	ltpFR	0	8	0	BONE	148	1	n/a	0	n/a	n/a	n/a	n/a	n/a
4741813	RECOG_CONF	n/a	LTP242	ltpFR	0	8	0	BONE	148	n/a	5	0	n/a	n/a	n/a	n/a	n/a
4743577	RECOG_TARGET	n/a	LTP242	ltpFR	0	8	1	ARTERY	41	1	5	n/a	n/a	n/a	n/a	n/a	n/a
4744465	RECOG_RESP	n/a	LTP242	ltpFR	0	8	1	ARTERY	41	1	n/a	n/a	n/a	n/a	n/a	n/a	n/a
4745209	RECOG_CONF	n/a	LTP242	ltpFR	0	8	1	ARTERY	41	n/a	5	n/a	n/a	n/a	n/a	n/a	n/a
4747278	RECOG_LURE	n/a	LTP242	ltpFR	0	8	n/a	BIKE	125	0	3	n/a	n/a	n/a	n/a	n/a	n/a
4748727	RECOG_RESP	n/a	LTP242	ltpFR	0	8	n/a	BIKE	125	0	n/a	n/a	n/a	n/a	n/a	n/a	n/a
4749793	RECOG_CONF	n/a	LTP242	ltpFR	0	8	n/a	BIKE	125	n/a	3	n/a	n/a	n/a	n/a	n/a	n/a
4751611	RECOG_TARGET	n/a	LTP242	ltpFR	0	8	0	ARCHITECT	36	1	5	1	n/a	n/a	n/a	n/a	n/a
4752358	RECOG_RESP	n/a	LTP242	ltpFR	0	8	0	ARCHITECT	36	1	n/a	1	n/a	n/a	n/a	n/a	n/a
4753676	RECOG_CONF	n/a	LTP242	ltpFR	0	8	0	ARCHITECT	36	n/a	5	1	n/a	n/a	n/a	n/a	n/a
4755509	RECOG_TARGET	n/a	LTP242	ltpFR	0	8	0	KIWI	781	1	5	0	n/a	n/a	n/a	n/a	n/a
4756785	RECOG_RESP	n/a	LTP242	ltpFR	0	8	0	KIWI	781	1	n/a	0	n/a	n/a	n/a	n/a	n/a
4757826	RECOG_CONF	n/a	LTP242	ltpFR	0	8	0	KIWI	781	n/a	5	0	n/a	n/a	n/a	n/a	n/a
4759708	RECOG_TARGET	n/a	LTP242	ltpFR	0	8	-1	VIKING	1565	1	4	-1	n/a	n/a	n/a	n/a	n/a
4760398	RECOG_RESP	n/a	LTP242	ltpFR	0	8	-1	VIKING	1565	1	n/a	-1	n/a	n/a	n/a	n/a	n/a
4761273	RECOG_CONF	n/a	LTP242	ltpFR	0	8	-1	VIKING	1565	n/a	4	-1	n/a	n/a	n/a	n/a	n/a
4762953	RECOG_TARGET	n/a	LTP242	ltpFR	0	8	0	SQUID	1361	1	4	1	n/a	n/a	n/a	n/a	n/a
4763671	RECOG_RESP	n/a	LTP242	ltpFR	0	8	0	SQUID	1361	1	n/a	1	n/a	n/a	n/a	n/a	n/a
4764573	RECOG_CONF	n/a	LTP242	ltpFR	0	8	0	SQUID	1361	n/a	4	1	n/a	n/a	n/a	n/a	n/a
4772874	REC_START	n/a	LTP242	ltpFR	0	9	n/a	n/a	n/a	n/a	n/a	n/a	n/a	n/a	n/a	n/a	n/a
4772924	RECOG_LURE	n/a	LTP242	ltpFR	0	9	n/a	OVEN	991	0	3	n/a	n/a	n/a	n/a	n/a	n/a
4774137	RECOG_RESP	n/a	LTP242	ltpFR	0	9	n/a	OVEN	991	0	n/a	n/a	n/a	n/a	n/a	n/a	n/a
4774962	RECOG_CONF	n/a	LTP242	ltpFR	0	9	n/a	OVEN	991	n/a	3	n/a	n/a	n/a	n/a	n/a	n/a
4776705	RECOG_TARGET	n/a	LTP242	ltpFR	0	9	1	CLIFF	322	1	5	0	n/a	n/a	n/a	n/a	n/a
4777817	RECOG_RESP	n/a	LTP242	ltpFR	0	9	1	CLIFF	322	1	n/a	0	n/a	n/a	n/a	n/a	n/a
4778707	RECOG_CONF	n/a	LTP242	ltpFR	0	9	1	CLIFF	322	n/a	5	0	n/a	n/a	n/a	n/a	n/a
4780450	RECOG_TARGET	n/a	LTP242	ltpFR	0	9	1	PUDDLE	1140	1	5	0	n/a	n/a	n/a	n/a	n/a
4781420	RECOG_RESP	n/a	LTP242	ltpFR	0	9	1	PUDDLE	1140	1	n/a	0	n/a	n/a	n/a	n/a	n/a
4782162	RECOG_CONF	n/a	LTP242	ltpFR	0	9	1	PUDDLE	1140	n/a	5	0	n/a	n/a	n/a	n/a	n/a
4783848	RECOG_LURE	n/a	LTP242	ltpFR	0	9	n/a	CORAL	378	0	3	n/a	n/a	n/a	n/a	n/a	n/a
4784419	RECOG_RESP	n/a	LTP242	ltpFR	0	9	n/a	CORAL	378	0	n/a	n/a	n/a	n/a	n/a	n/a	n/a
4786072	RECOG_CONF	n/a	LTP242	ltpFR	0	9	n/a	CORAL	378	n/a	3	n/a	n/a	n/a	n/a	n/a	n/a
4787793	RECOG_LURE	n/a	LTP242	ltpFR	0	9	n/a	BOWL	158	0	3	n/a	n/a	n/a	n/a	n/a	n/a
4789131	RECOG_RESP	n/a	LTP242	ltpFR	0	9	n/a	BOWL	158	0	n/a	n/a	n/a	n/a	n/a	n/a	n/a
4790233	RECOG_CONF	n/a	LTP242	ltpFR	0	9	n/a	BOWL	158	n/a	3	n/a	n/a	n/a	n/a	n/a	n/a
4791845	RECOG_LURE	n/a	LTP242	ltpFR	0	9	n/a	GALLON	618	0	5	n/a	n/a	n/a	n/a	n/a	n/a
4792723	RECOG_RESP	n/a	LTP242	ltpFR	0	9	n/a	GALLON	618	0	n/a	n/a	n/a	n/a	n/a	n/a	n/a
4793478	RECOG_CONF	n/a	LTP242	ltpFR	0	9	n/a	GALLON	618	n/a	5	n/a	n/a	n/a	n/a	n/a	n/a
4795159	RECOG_TARGET	n/a	LTP242	ltpFR	0	9	-1	PUBLISHER	1137	1	5	-1	n/a	n/a	n/a	n/a	n/a
4796126	RECOG_RESP	n/a	LTP242	ltpFR	0	9	-1	PUBLISHER	1137	1	n/a	-1	n/a	n/a	n/a	n/a	n/a
4797039	RECOG_CONF	n/a	LTP242	ltpFR	0	9	-1	PUBLISHER	1137	n/a	5	-1	n/a	n/a	n/a	n/a	n/a
4798889	RECOG_TARGET	n/a	LTP242	ltpFR	0	9	1	POSSUM	1112	1	3	1	n/a	n/a	n/a	n/a	n/a
4799655	RECOG_RESP	n/a	LTP242	ltpFR	0	9	1	POSSUM	1112	1	n/a	1	n/a	n/a	n/a	n/a	n/a
