onset	duration	trial_type	sample	stim_file	subject	experiment	session	trial	item_name	item_num	list	answer	test_x	test_y	test_z
-0.002	n/a	SESS_START	-1	n/a	LTP293	ltpFR2	7	n/a	n/a	n/a	n/a	n/a	0	0	0
212.336	n/a	SESS_START	106168	n/a	LTP293	ltpFR2	7	n/a	n/a	n/a	n/a	n/a	0	0	0
224.614	n/a	START	112307	n/a	LTP293	ltpFR2	7	n/a	n/a	n/a	-1	n/a	n/a	n/a	n/a
224.644	n/a	PROB	112322	n/a	LTP293	ltpFR2	7	n/a	n/a	n/a	-1	12	3	8	1
225.964	n/a	PROB	112982	n/a	LTP293	ltpFR2	7	n/a	n/a	n/a	-1	19	4	6	9
227.048	n/a	PROB	113524	n/a	LTP293	ltpFR2	7	n/a	n/a	n/a	-1	12	3	4	5
228.216	n/a	PROB	114108	n/a	LTP293	ltpFR2	7	n/a	n/a	n/a	-1	20	9	4	7
229.968	n/a	PROB	114984	n/a	LTP293	ltpFR2	7	n/a	n/a	n/a	-1	14	6	3	5
231.6	n/a	PROB	115800	n/a	LTP293	ltpFR2	7	n/a	n/a	n/a	-1	14	2	6	6
232.886	n/a	PROB	116443	n/a	LTP293	ltpFR2	7	n/a	n/a	n/a	-1	16	3	6	7
234.554	n/a	PROB	117277	n/a	LTP293	ltpFR2	7	n/a	n/a	n/a	-1	15	2	7	6
235.77	n/a	STOP	117885	n/a	LTP293	ltpFR2	7	n/a	n/a	n/a	-1	n/a	n/a	n/a	n/a
268.566	n/a	DISTRACTOR	134283	n/a	LTP293	ltpFR2	7	1	n/a	n/a	n/a	n/a	0	0	0
268.566	n/a	START	134283	n/a	LTP293	ltpFR2	7	n/a	n/a	n/a	1	n/a	n/a	n/a	n/a
268.598	n/a	PROB	134299	n/a	LTP293	ltpFR2	7	n/a	n/a	n/a	1	17	2	9	6
270.352	n/a	PROB	135176	n/a	LTP293	ltpFR2	7	n/a	n/a	n/a	1	15	5	1	9
271.47	n/a	PROB	135735	n/a	LTP293	ltpFR2	7	n/a	n/a	n/a	1	12	4	5	3
272.92	n/a	PROB	136460	n/a	LTP293	ltpFR2	7	n/a	n/a	n/a	1	15	5	6	4
274.52	n/a	PROB	137260	n/a	LTP293	ltpFR2	7	n/a	n/a	n/a	1	24	6	9	9
275.974	n/a	PROB	137987	n/a	LTP293	ltpFR2	7	n/a	n/a	n/a	1	16	3	9	4
277.892	n/a	PROB	138946	n/a	LTP293	ltpFR2	7	n/a	n/a	n/a	1	17	1	7	9
279.342	n/a	PROB	139671	n/a	LTP293	ltpFR2	7	n/a	n/a	n/a	1	7	3	2	2
281.16	n/a	PROB	140580	n/a	LTP293	ltpFR2	7	n/a	n/a	n/a	1	21	9	7	5
282.612	n/a	PROB	141306	n/a	LTP293	ltpFR2	7	n/a	n/a	n/a	1	16	9	3	4
283.73	n/a	PROB	141865	n/a	LTP293	ltpFR2	7	n/a	n/a	n/a	1	19	4	6	9
284.848	n/a	PROB	142424	n/a	LTP293	ltpFR2	7	n/a	n/a	n/a	1	6	2	3	1
287.232	n/a	PROB	143616	n/a	LTP293	ltpFR2	7	n/a	n/a	n/a	1	18	8	1	9
288.5	n/a	PROB	144250	n/a	LTP293	ltpFR2	7	n/a	n/a	n/a	1	17	8	5	4
290.002	n/a	PROB	145001	n/a	LTP293	ltpFR2	7	n/a	n/a	n/a	1	20	6	9	5
291.45	n/a	STOP	145725	n/a	LTP293	ltpFR2	7	n/a	n/a	n/a	1	n/a	n/a	n/a	n/a
293.686	n/a	WORD	146843	wordpools/wasnorm_wordpool_576.txt	LTP293	ltpFR2	7	1	FLUTE	585	n/a	n/a	0	0	0
296.19	n/a	WORD	148095	wordpools/wasnorm_wordpool_576.txt	LTP293	ltpFR2	7	1	WORKER	1621	n/a	n/a	0	0	0
298.992	n/a	WORD	149496	wordpools/wasnorm_wordpool_576.txt	LTP293	ltpFR2	7	1	TERMITE	1451	n/a	n/a	0	0	0
301.778	n/a	WORD	150889	wordpools/wasnorm_wordpool_576.txt	LTP293	ltpFR2	7	1	COCOON	339	n/a	n/a	0	0	0
304.28	n/a	WORD	152140	wordpools/wasnorm_wordpool_576.txt	LTP293	ltpFR2	7	1	ACTOR	5	n/a	n/a	0	0	0
306.932	n/a	WORD	153466	wordpools/wasnorm_wordpool_576.txt	LTP293	ltpFR2	7	1	RACKET	1155	n/a	n/a	0	0	0
309.6	n/a	WORD	154800	wordpools/wasnorm_wordpool_576.txt	LTP293	ltpFR2	7	1	ITEM	746	n/a	n/a	0	0	0
312.388	n/a	WORD	156194	wordpools/wasnorm_wordpool_576.txt	LTP293	ltpFR2	7	1	LEADER	807	n/a	n/a	0	0	0
314.922	n/a	WORD	157461	wordpools/wasnorm_wordpool_576.txt	LTP293	ltpFR2	7	1	FREEZER	604	n/a	n/a	0	0	0
317.742	n/a	WORD	158871	wordpools/wasnorm_wordpool_576.txt	LTP293	ltpFR2	7	1	WORLD	1622	n/a	n/a	0	0	0
320.328	n/a	WORD	160164	wordpools/wasnorm_wordpool_576.txt	LTP293	ltpFR2	7	1	TORTOISE	1486	n/a	n/a	0	0	0
322.896	n/a	WORD	161448	wordpools/wasnorm_wordpool_576.txt	LTP293	ltpFR2	7	1	SNAIL	1332	n/a	n/a	0	0	0
325.698	n/a	WORD	162849	wordpools/wasnorm_wordpool_576.txt	LTP293	ltpFR2	7	1	MAMMAL	861	n/a	n/a	0	0	0
328.15	n/a	WORD	164075	wordpools/wasnorm_wordpool_576.txt	LTP293	ltpFR2	7	1	FOOTBALL	591	n/a	n/a	0	0	0
330.904	n/a	WORD	165452	wordpools/wasnorm_wordpool_576.txt	LTP293	ltpFR2	7	1	GALLON	618	n/a	n/a	0	0	0
333.504	n/a	WORD	166752	wordpools/wasnorm_wordpool_576.txt	LTP293	ltpFR2	7	1	WAITER	1580	n/a	n/a	0	0	0
336.208	n/a	WORD	168104	wordpools/wasnorm_wordpool_576.txt	LTP293	ltpFR2	7	1	NOVEL	960	n/a	n/a	0	0	0
338.676	n/a	WORD	169338	wordpools/wasnorm_wordpool_576.txt	LTP293	ltpFR2	7	1	JURY	766	n/a	n/a	0	0	0
341.312	n/a	WORD	170656	wordpools/wasnorm_wordpool_576.txt	LTP293	ltpFR2	7	1	SCARF	1246	n/a	n/a	0	0	0
343.98	n/a	WORD	171990	wordpools/wasnorm_wordpool_576.txt	LTP293	ltpFR2	7	1	TUBA	1515	n/a	n/a	0	0	0
346.548	n/a	WORD	173274	wordpools/wasnorm_wordpool_576.txt	LTP293	ltpFR2	7	1	CANAL	226	n/a	n/a	0	0	0
349.102	n/a	WORD	174551	wordpools/wasnorm_wordpool_576.txt	LTP293	ltpFR2	7	1	BEAST	108	n/a	n/a	0	0	0
351.586	n/a	WORD	175793	wordpools/wasnorm_wordpool_576.txt	LTP293	ltpFR2	7	1	BOYFRIEND	162	n/a	n/a	0	0	0
354.206	n/a	WORD	177103	wordpools/wasnorm_wordpool_576.txt	LTP293	ltpFR2	7	1	MUSTARD	935	n/a	n/a	0	0	0
355.824	n/a	START	177912	n/a	LTP293	ltpFR2	7	n/a	n/a	n/a	2	n/a	n/a	n/a	n/a
356.658	n/a	DISTRACTOR	178329	n/a	LTP293	ltpFR2	7	1	n/a	n/a	n/a	n/a	0	0	0
356.674	n/a	PROB	178337	n/a	LTP293	ltpFR2	7	n/a	n/a	n/a	2	15	3	9	3
357.826	n/a	PROB	178913	n/a	LTP293	ltpFR2	7	n/a	n/a	n/a	2	14	6	1	7
359.71	n/a	PROB	179855	n/a	LTP293	ltpFR2	7	n/a	n/a	n/a	2	17	2	6	9
360.828	n/a	PROB	180414	n/a	LTP293	ltpFR2	7	n/a	n/a	n/a	2	7	3	1	3
362.13	n/a	PROB	181065	n/a	LTP293	ltpFR2	7	n/a	n/a	n/a	2	17	7	1	9
363.398	n/a	PROB	181699	n/a	LTP293	ltpFR2	7	n/a	n/a	n/a	2	19	5	6	8
364.714	n/a	PROB	182357	n/a	LTP293	ltpFR2	7	n/a	n/a	n/a	2	11	2	4	5
365.816	n/a	PROB	182908	n/a	LTP293	ltpFR2	7	n/a	n/a	n/a	2	24	8	8	8
366.75	n/a	PROB	183375	n/a	LTP293	ltpFR2	7	n/a	n/a	n/a	2	22	7	9	6
368.986	n/a	PROB	184493	n/a	LTP293	ltpFR2	7	n/a	n/a	n/a	2	17	7	7	3
370.136	n/a	PROB	185068	n/a	LTP293	ltpFR2	7	n/a	n/a	n/a	2	16	6	6	4
371.338	n/a	PROB	185669	n/a	LTP293	ltpFR2	7	n/a	n/a	n/a	2	18	4	7	7
372.554	n/a	PROB	186277	n/a	LTP293	ltpFR2	7	n/a	n/a	n/a	2	20	6	7	7
373.906	n/a	PROB	186953	n/a	LTP293	ltpFR2	7	n/a	n/a	n/a	2	11	3	6	2
375.54	n/a	PROB	187770	n/a	LTP293	ltpFR2	7	n/a	n/a	n/a	2	11	5	1	5
376.524	n/a	PROB	188262	n/a	LTP293	ltpFR2	7	n/a	n/a	n/a	2	9	3	5	1
377.994	n/a	PROB	188997	n/a	LTP293	ltpFR2	7	n/a	n/a	n/a	2	15	1	9	5
378.892	n/a	STOP	189446	n/a	LTP293	ltpFR2	7	n/a	n/a	n/a	2	n/a	n/a	n/a	n/a
381.798	n/a	REC_START	190899	n/a	LTP293	ltpFR2	7	1	n/a	n/a	n/a	n/a	0	0	0
382.864	n/a	REC_WORD	191432	wordpools/wasnorm_wordpool_576.txt	LTP293	ltpFR2	7	1	BOYFRIEND	162	n/a	n/a	0	0	0
383.998	n/a	REC_WORD	191999	wordpools/wasnorm_wordpool_576.txt	LTP293	ltpFR2	7	1	BEAST	108	n/a	n/a	0	0	0
384.978	n/a	REC_WORD	192489	wordpools/wasnorm_wordpool_576.txt	LTP293	ltpFR2	7	1	MUSTARD	935	n/a	n/a	0	0	0
386.238	n/a	REC_WORD	193119	wordpools/wasnorm_wordpool_576.txt	LTP293	ltpFR2	7	1	CANAL	226	n/a	n/a	0	0	0
387.386	n/a	REC_WORD	193693	wordpools/wasnorm_wordpool_576.txt	LTP293	ltpFR2	7	1	FREEZER	604	n/a	n/a	0	0	0
389.288	n/a	REC_WORD	194644	wordpools/wasnorm_wordpool_576.txt	LTP293	ltpFR2	7	1	MAMMAL	861	n/a	n/a	0	0	0
390.246	n/a	REC_WORD	195123	wordpools/wasnorm_wordpool_576.txt	LTP293	ltpFR2	7	1	TORTOISE	1486	n/a	n/a	0	0	0
391.252	n/a	REC_WORD	195626	wordpools/wasnorm_wordpool_576.txt	LTP293	ltpFR2	7	1	SNAIL	1332	n/a	n/a	0	0	0
392.47	n/a	REC_WORD	196235	wordpools/wasnorm_wordpool_576.txt	LTP293	ltpFR2	7	1	FLUTE	585	n/a	n/a	0	0	0
393.682	n/a	REC_WORD	196841	wordpools/wasnorm_wordpool_576.txt	LTP293	ltpFR2	7	1	WORKER	1621	n/a	n/a	0	0	0
394.904	n/a	REC_WORD	197452	wordpools/wasnorm_wordpool_576.txt	LTP293	ltpFR2	7	1	WAITER	1580	n/a	n/a	0	0	0
400.28	n/a	REC_WORD	200140	wordpools/wasnorm_wordpool_576.txt	LTP293	ltpFR2	7	1	ITEM	746	n/a	n/a	0	0	0
404.382	n/a	REC_WORD	202191	wordpools/wasnorm_wordpool_576.txt	LTP293	ltpFR2	7	1	WORLD	1622	n/a	n/a	0	0	0
405.374	n/a	REC_WORD	202687	wordpools/wasnorm_wordpool_576.txt	LTP293	ltpFR2	7	1	LEADER	807	n/a	n/a	0	0	0
430.1	n/a	REC_WORD	215050	wordpools/wasnorm_wordpool_576.txt	LTP293	ltpFR2	7	1	GALLON	618	n/a	n/a	0	0	0
472.424	n/a	DISTRACTOR	236212	n/a	LTP293	ltpFR2	7	2	n/a	n/a	n/a	n/a	0	0	0
472.424	n/a	START	236212	n/a	LTP293	ltpFR2	7	n/a	n/a	n/a	3	n/a	n/a	n/a	n/a
472.456	n/a	PROB	236228	n/a	LTP293	ltpFR2	7	n/a	n/a	n/a	3	18	8	1	9
473.874	n/a	PROB	236937	n/a	LTP293	ltpFR2	7	n/a	n/a	n/a	3	12	8	2	2
475.542	n/a	PROB	237771	n/a	LTP293	ltpFR2	7	n/a	n/a	n/a	3	14	6	6	2
476.56	n/a	PROB	238280	n/a	LTP293	ltpFR2	7	n/a	n/a	n/a	3	22	8	5	9
477.812	n/a	PROB	238906	n/a	LTP293	ltpFR2	7	n/a	n/a	n/a	3	12	8	1	3
479.18	n/a	PROB	239590	n/a	LTP293	ltpFR2	7	n/a	n/a	n/a	3	25	7	9	9
480.546	n/a	PROB	240273	n/a	LTP293	ltpFR2	7	n/a	n/a	n/a	3	11	3	1	7
482.066	n/a	PROB	241033	n/a	LTP293	ltpFR2	7	n/a	n/a	n/a	3	16	2	9	5
483.366	n/a	PROB	241683	n/a	LTP293	ltpFR2	7	n/a	n/a	n/a	3	24	6	6	6
484.482	n/a	PROB	242241	n/a	LTP293	ltpFR2	7	n/a	n/a	n/a	3	14	9	1	4
486.234	n/a	PROB	243117	n/a	LTP293	ltpFR2	7	n/a	n/a	n/a	3	19	7	7	5
487.72	n/a	PROB	243860	n/a	LTP293	ltpFR2	7	n/a	n/a	n/a	3	16	5	7	6
489.338	n/a	PROB	244669	n/a	LTP293	ltpFR2	7	n/a	n/a	n/a	3	24	8	8	7
491.306	n/a	PROB	245653	n/a	LTP293	ltpFR2	7	n/a	n/a	n/a	3	19	6	5	8
493.074	n/a	PROB	246537	n/a	LTP293	ltpFR2	7	n/a	n/a	n/a	3	16	9	6	1
494.258	n/a	PROB	247129	n/a	LTP293	ltpFR2	7	n/a	n/a	n/a	3	11	1	8	2
495.734	n/a	STOP	247867	n/a	LTP293	ltpFR2	7	n/a	n/a	n/a	3	n/a	n/a	n/a	n/a
497.594	n/a	WORD	248797	wordpools/wasnorm_wordpool_576.txt	LTP293	ltpFR2	7	2	PARROT	1015	n/a	n/a	0	0	0
500.33	n/a	WORD	250165	wordpools/wasnorm_wordpool_576.txt	LTP293	ltpFR2	7	2	ONION	977	n/a	n/a	0	0	0
502.816	n/a	WORD	251408	wordpools/wasnorm_wordpool_576.txt	LTP293	ltpFR2	7	2	DASHBOARD	441	n/a	n/a	0	0	0
505.65	n/a	WORD	252825	wordpools/wasnorm_wordpool_576.txt	LTP293	ltpFR2	7	2	KEEPER	769	n/a	n/a	0	0	0
508.12	n/a	WORD	254060	wordpools/wasnorm_wordpool_576.txt	LTP293	ltpFR2	7	2	FLIPPER	580	n/a	n/a	0	0	0
510.604	n/a	WORD	255302	wordpools/wasnorm_wordpool_576.txt	LTP293	ltpFR2	7	2	DIVER	476	n/a	n/a	0	0	0
513.074	n/a	WORD	256537	wordpools/wasnorm_wordpool_576.txt	LTP293	ltpFR2	7	2	PAIL	1002	n/a	n/a	0	0	0
515.86	n/a	WORD	257930	wordpools/wasnorm_wordpool_576.txt	LTP293	ltpFR2	7	2	UNCLE	1536	n/a	n/a	0	0	0
518.48	n/a	WORD	259240	wordpools/wasnorm_wordpool_576.txt	LTP293	ltpFR2	7	2	FLASK	576	n/a	n/a	0	0	0
521.214	n/a	WORD	260607	wordpools/wasnorm_wordpool_576.txt	LTP293	ltpFR2	7	2	CHAMPAGNE	278	n/a	n/a	0	0	0
523.718	n/a	WORD	261859	wordpools/wasnorm_wordpool_576.txt	LTP293	ltpFR2	7	2	CHAUFFEUR	283	n/a	n/a	0	0	0
526.236	n/a	WORD	263118	wordpools/wasnorm_wordpool_576.txt	LTP293	ltpFR2	7	2	VIRUS	1572	n/a	n/a	0	0	0
528.804	n/a	WORD	264402	wordpools/wasnorm_wordpool_576.txt	LTP293	ltpFR2	7	2	SMOG	1330	n/a	n/a	0	0	0
531.49	n/a	WORD	265745	wordpools/wasnorm_wordpool_576.txt	LTP293	ltpFR2	7	2	FRUIT	610	n/a	n/a	0	0	0
534.176	n/a	WORD	267088	wordpools/wasnorm_wordpool_576.txt	LTP293	ltpFR2	7	2	CARROT	249	n/a	n/a	0	0	0
536.676	n/a	WORD	268338	wordpools/wasnorm_wordpool_576.txt	LTP293	ltpFR2	7	2	DENTIST	447	n/a	n/a	0	0	0
539.396	n/a	WORD	269698	wordpools/wasnorm_wordpool_576.txt	LTP293	ltpFR2	7	2	DONKEY	484	n/a	n/a	0	0	0
541.882	n/a	WORD	270941	wordpools/wasnorm_wordpool_576.txt	LTP293	ltpFR2	7	2	EYELASH	546	n/a	n/a	0	0	0
544.35	n/a	WORD	272175	wordpools/wasnorm_wordpool_576.txt	LTP293	ltpFR2	7	2	SIBLING	1301	n/a	n/a	0	0	0
546.786	n/a	WORD	273393	wordpools/wasnorm_wordpool_576.txt	LTP293	ltpFR2	7	2	VALVE	1546	n/a	n/a	0	0	0
549.504	n/a	WORD	274752	wordpools/wasnorm_wordpool_576.txt	LTP293	ltpFR2	7	2	SPONGE	1355	n/a	n/a	0	0	0
552.324	n/a	WORD	276162	wordpools/wasnorm_wordpool_576.txt	LTP293	ltpFR2	7	2	SCARECROW	1245	n/a	n/a	0	0	0
555.026	n/a	WORD	277513	wordpools/wasnorm_wordpool_576.txt	LTP293	ltpFR2	7	2	LADDER	793	n/a	n/a	0	0	0
557.662	n/a	WORD	278831	wordpools/wasnorm_wordpool_576.txt	LTP293	ltpFR2	7	2	DAUGHTER	442	n/a	n/a	0	0	0
559.28	n/a	START	279640	n/a	LTP293	ltpFR2	7	n/a	n/a	n/a	4	n/a	n/a	n/a	n/a
560.152	n/a	DISTRACTOR	280076	n/a	LTP293	ltpFR2	7	2	n/a	n/a	n/a	n/a	0	0	0
560.182	n/a	PROB	280091	n/a	LTP293	ltpFR2	7	n/a	n/a	n/a	4	10	1	6	3
561.582	n/a	PROB	280791	n/a	LTP293	ltpFR2	7	n/a	n/a	n/a	4	16	5	3	8
562.632	n/a	PROB	281316	n/a	LTP293	ltpFR2	7	n/a	n/a	n/a	4	8	4	2	2
563.818	n/a	PROB	281909	n/a	LTP293	ltpFR2	7	n/a	n/a	n/a	4	13	9	3	1
565.086	n/a	PROB	282543	n/a	LTP293	ltpFR2	7	n/a	n/a	n/a	4	19	8	3	8
568.504	n/a	PROB	284252	n/a	LTP293	ltpFR2	7	n/a	n/a	n/a	4	20	3	8	9
569.656	n/a	PROB	284828	n/a	LTP293	ltpFR2	7	n/a	n/a	n/a	4	15	1	8	6
571.424	n/a	PROB	285712	n/a	LTP293	ltpFR2	7	n/a	n/a	n/a	4	6	1	2	3
572.426	n/a	PROB	286213	n/a	LTP293	ltpFR2	7	n/a	n/a	n/a	4	16	6	2	8
573.558	n/a	PROB	286779	n/a	LTP293	ltpFR2	7	n/a	n/a	n/a	4	14	2	7	5
575.21	n/a	PROB	287605	n/a	LTP293	ltpFR2	7	n/a	n/a	n/a	4	13	5	3	5
576.162	n/a	PROB	288081	n/a	LTP293	ltpFR2	7	n/a	n/a	n/a	4	11	3	1	7
577.546	n/a	PROB	288773	n/a	LTP293	ltpFR2	7	n/a	n/a	n/a	4	18	5	8	5
579.098	n/a	PROB	289549	n/a	LTP293	ltpFR2	7	n/a	n/a	n/a	4	24	6	9	9
580.248	n/a	PROB	290124	n/a	LTP293	ltpFR2	7	n/a	n/a	n/a	4	5	1	2	2
583.28	n/a	STOP	291640	n/a	LTP293	ltpFR2	7	n/a	n/a	n/a	4	n/a	n/a	n/a	n/a
585.086	n/a	REC_START	292543	n/a	LTP293	ltpFR2	7	2	n/a	n/a	n/a	n/a	0	0	0
586.272	n/a	REC_WORD	293136	wordpools/wasnorm_wordpool_576.txt	LTP293	ltpFR2	7	2	PARROT	1015	n/a	n/a	0	0	0
587.156	n/a	REC_WORD	293578	wordpools/wasnorm_wordpool_576.txt	LTP293	ltpFR2	7	2	SIBLING	1301	n/a	n/a	0	0	0
588.248	n/a	REC_WORD	294124	wordpools/wasnorm_wordpool_576.txt	LTP293	ltpFR2	7	2	DAUGHTER	442	n/a	n/a	0	0	0
589.334	n/a	REC_WORD	294667	wordpools/wasnorm_wordpool_576.txt	LTP293	ltpFR2	7	2	DASHBOARD	441	n/a	n/a	0	0	0
590.496	n/a	REC_WORD	295248	wordpools/wasnorm_wordpool_576.txt	LTP293	ltpFR2	7	2	ONION	977	n/a	n/a	0	0	0
591.412	n/a	REC_WORD	295706	wordpools/wasnorm_wordpool_576.txt	LTP293	ltpFR2	7	2	CARROT	249	n/a	n/a	0	0	0
592.486	n/a	REC_WORD	296243	wordpools/wasnorm_wordpool_576.txt	LTP293	ltpFR2	7	2	FRUIT	610	n/a	n/a	0	0	0
593.916	n/a	REC_WORD	296958	wordpools/wasnorm_wordpool_576.txt	LTP293	ltpFR2	7	2	LADDER	793	n/a	n/a	0	0	0
595.09	n/a	REC_WORD	297545	wordpools/wasnorm_wordpool_576.txt	LTP293	ltpFR2	7	2	DONKEY	484	n/a	n/a	0	0	0
596.12	n/a	REC_WORD	298060	wordpools/wasnorm_wordpool_576.txt	LTP293	ltpFR2	7	2	EYELASH	546	n/a	n/a	0	0	0
597.45	n/a	REC_WORD	298725	wordpools/wasnorm_wordpool_576.txt	LTP293	ltpFR2	7	2	KEEPER	769	n/a	n/a	0	0	0
598.842	n/a	REC_WORD	299421	wordpools/wasnorm_wordpool_576.txt	LTP293	ltpFR2	7	2	DENTIST	447	n/a	n/a	0	0	0
600.216	n/a	REC_WORD	300108	wordpools/wasnorm_wordpool_576.txt	LTP293	ltpFR2	7	2	VIRUS	1572	n/a	n/a	0	0	0
603.302	n/a	REC_WORD	301651	wordpools/wasnorm_wordpool_576.txt	LTP293	ltpFR2	7	2	PAIL	1002	n/a	n/a	0	0	0
614.422	n/a	REC_WORD	307211	wordpools/wasnorm_wordpool_576.txt	LTP293	ltpFR2	7	2	SCARECROW	1245	n/a	n/a	0	0	0
675.578	n/a	WORD	337789	wordpools/wasnorm_wordpool_576.txt	LTP293	ltpFR2	7	3	CRUTCH	417	n/a	n/a	0	0	0
678.214	n/a	WORD	339107	wordpools/wasnorm_wordpool_576.txt	LTP293	ltpFR2	7	3	RELISH	1183	n/a	n/a	0	0	0
680.7	n/a	WORD	340350	wordpools/wasnorm_wordpool_576.txt	LTP293	ltpFR2	7	3	PACKAGE	997	n/a	n/a	0	0	0
683.286	n/a	WORD	341643	wordpools/wasnorm_wordpool_576.txt	LTP293	ltpFR2	7	3	GIFT	635	n/a	n/a	0	0	0
685.972	n/a	WORD	342986	wordpools/wasnorm_wordpool_576.txt	LTP293	ltpFR2	7	3	CATCHER	258	n/a	n/a	0	0	0
688.74	n/a	WORD	344370	wordpools/wasnorm_wordpool_576.txt	LTP293	ltpFR2	7	3	PORTRAIT	1111	n/a	n/a	0	0	0
691.36	n/a	WORD	345680	wordpools/wasnorm_wordpool_576.txt	LTP293	ltpFR2	7	3	PLIERS	1089	n/a	n/a	0	0	0
693.894	n/a	WORD	346947	wordpools/wasnorm_wordpool_576.txt	LTP293	ltpFR2	7	3	CLOCK	325	n/a	n/a	0	0	0
696.33	n/a	WORD	348165	wordpools/wasnorm_wordpool_576.txt	LTP293	ltpFR2	7	3	FRAGRANCE	599	n/a	n/a	0	0	0
698.898	n/a	WORD	349449	wordpools/wasnorm_wordpool_576.txt	LTP293	ltpFR2	7	3	TOASTER	1472	n/a	n/a	0	0	0
701.718	n/a	WORD	350859	wordpools/wasnorm_wordpool_576.txt	LTP293	ltpFR2	7	3	FOX	598	n/a	n/a	0	0	0
704.238	n/a	WORD	352119	wordpools/wasnorm_wordpool_576.txt	LTP293	ltpFR2	7	3	APRON	35	n/a	n/a	0	0	0
706.89	n/a	WORD	353445	wordpools/wasnorm_wordpool_576.txt	LTP293	ltpFR2	7	3	COOKBOOK	373	n/a	n/a	0	0	0
709.574	n/a	WORD	354787	wordpools/wasnorm_wordpool_576.txt	LTP293	ltpFR2	7	3	JOURNAL	760	n/a	n/a	0	0	0
712.31	n/a	WORD	356155	wordpools/wasnorm_wordpool_576.txt	LTP293	ltpFR2	7	3	MISTER	901	n/a	n/a	0	0	0
714.796	n/a	WORD	357398	wordpools/wasnorm_wordpool_576.txt	LTP293	ltpFR2	7	3	LABEL	790	n/a	n/a	0	0	0
717.58	n/a	WORD	358790	wordpools/wasnorm_wordpool_576.txt	LTP293	ltpFR2	7	3	COIN	343	n/a	n/a	0	0	0
720.2	n/a	WORD	360100	wordpools/wasnorm_wordpool_576.txt	LTP293	ltpFR2	7	3	GRAVE	658	n/a	n/a	0	0	0
722.754	n/a	WORD	361377	wordpools/wasnorm_wordpool_576.txt	LTP293	ltpFR2	7	3	CLAMP	316	n/a	n/a	0	0	0
725.57	n/a	WORD	362785	wordpools/wasnorm_wordpool_576.txt	LTP293	ltpFR2	7	3	ARM	38	n/a	n/a	0	0	0
728.04	n/a	WORD	364020	wordpools/wasnorm_wordpool_576.txt	LTP293	ltpFR2	7	3	HAND	683	n/a	n/a	0	0	0
730.558	n/a	WORD	365279	wordpools/wasnorm_wordpool_576.txt	LTP293	ltpFR2	7	3	FRAME	600	n/a	n/a	0	0	0
733.244	n/a	WORD	366622	wordpools/wasnorm_wordpool_576.txt	LTP293	ltpFR2	7	3	REPORT	1184	n/a	n/a	0	0	0
735.714	n/a	WORD	367857	wordpools/wasnorm_wordpool_576.txt	LTP293	ltpFR2	7	3	BULLET	194	n/a	n/a	0	0	0
737.332	n/a	START	368666	n/a	LTP293	ltpFR2	7	n/a	n/a	n/a	5	n/a	n/a	n/a	n/a
738.312	n/a	DISTRACTOR	369156	n/a	LTP293	ltpFR2	7	3	n/a	n/a	n/a	n/a	0	0	0
738.332	n/a	PROB	369166	n/a	LTP293	ltpFR2	7	n/a	n/a	n/a	5	16	1	6	9
739.566	n/a	PROB	369783	n/a	LTP293	ltpFR2	7	n/a	n/a	n/a	5	8	1	1	6
740.534	n/a	PROB	370267	n/a	LTP293	ltpFR2	7	n/a	n/a	n/a	5	9	6	1	2
742.136	n/a	PROB	371068	n/a	LTP293	ltpFR2	7	n/a	n/a	n/a	5	20	7	5	8
743.354	n/a	PROB	371677	n/a	LTP293	ltpFR2	7	n/a	n/a	n/a	5	17	4	6	7
744.47	n/a	PROB	372235	n/a	LTP293	ltpFR2	7	n/a	n/a	n/a	5	19	4	9	6
745.706	n/a	PROB	372853	n/a	LTP293	ltpFR2	7	n/a	n/a	n/a	5	12	7	3	2
747.056	n/a	PROB	373528	n/a	LTP293	ltpFR2	7	n/a	n/a	n/a	5	18	5	6	7
748.224	n/a	PROB	374112	n/a	LTP293	ltpFR2	7	n/a	n/a	n/a	5	11	4	6	1
749.524	n/a	PROB	374762	n/a	LTP293	ltpFR2	7	n/a	n/a	n/a	5	17	5	6	6
750.81	n/a	PROB	375405	n/a	LTP293	ltpFR2	7	n/a	n/a	n/a	5	18	5	5	8
751.91	n/a	PROB	375955	n/a	LTP293	ltpFR2	7	n/a	n/a	n/a	5	20	8	5	7
754.412	n/a	PROB	377206	n/a	LTP293	ltpFR2	7	n/a	n/a	n/a	5	22	4	9	9
756.248	n/a	PROB	378124	n/a	LTP293	ltpFR2	7	n/a	n/a	n/a	5	9	3	4	2
757.466	n/a	PROB	378733	n/a	LTP293	ltpFR2	7	n/a	n/a	n/a	5	7	1	2	4
758.548	n/a	PROB	379274	n/a	LTP293	ltpFR2	7	n/a	n/a	n/a	5	11	1	2	8
759.908	n/a	STOP	379954	n/a	LTP293	ltpFR2	7	n/a	n/a	n/a	5	n/a	n/a	n/a	n/a
763.288	n/a	REC_START	381644	n/a	LTP293	ltpFR2	7	3	n/a	n/a	n/a	n/a	0	0	0
764.03	n/a	REC_WORD	382015	wordpools/wasnorm_wordpool_576.txt	LTP293	ltpFR2	7	3	ARM	38	n/a	n/a	0	0	0
765.074	n/a	REC_WORD	382537	wordpools/wasnorm_wordpool_576.txt	LTP293	ltpFR2	7	3	HAND	683	n/a	n/a	0	0	0
766.31	n/a	REC_WORD	383155	wordpools/wasnorm_wordpool_576.txt	LTP293	ltpFR2	7	3	PLIERS	1089	n/a	n/a	0	0	0
768.274	n/a	REC_WORD	384137	wordpools/wasnorm_wordpool_576.txt	LTP293	ltpFR2	7	3	CLOCK	325	n/a	n/a	0	0	0
770.462	n/a	REC_WORD	385231	wordpools/wasnorm_wordpool_576.txt	LTP293	ltpFR2	7	3	BULLET	194	n/a	n/a	0	0	0
771.602	n/a	REC_WORD	385801	wordpools/wasnorm_wordpool_576.txt	LTP293	ltpFR2	7	3	CRUTCH	417	n/a	n/a	0	0	0
773.234	n/a	REC_WORD	386617	wordpools/wasnorm_wordpool_576.txt	LTP293	ltpFR2	7	3	GRAVE	658	n/a	n/a	0	0	0
774.878	n/a	REC_WORD	387439	wordpools/wasnorm_wordpool_576.txt	LTP293	ltpFR2	7	3	PACKAGE	997	n/a	n/a	0	0	0
776.246	n/a	REC_WORD	388123	wordpools/wasnorm_wordpool_576.txt	LTP293	ltpFR2	7	3	GIFT	635	n/a	n/a	0	0	0
777.912	n/a	REC_WORD	388956	wordpools/wasnorm_wordpool_576.txt	LTP293	ltpFR2	7	3	RELISH	1183	n/a	n/a	0	0	0
779.358	n/a	REC_WORD	389679	wordpools/wasnorm_wordpool_576.txt	LTP293	ltpFR2	7	3	TOASTER	1472	n/a	n/a	0	0	0
780.598	n/a	REC_WORD	390299	wordpools/wasnorm_wordpool_576.txt	LTP293	ltpFR2	7	3	APRON	35	n/a	n/a	0	0	0
781.924	n/a	REC_WORD	390962	wordpools/wasnorm_wordpool_576.txt	LTP293	ltpFR2	7	3	COOKBOOK	373	n/a	n/a	0	0	0
787.814	n/a	REC_WORD	393907	wordpools/wasnorm_wordpool_576.txt	LTP293	ltpFR2	7	3	PORTRAIT	1111	n/a	n/a	0	0	0
788.86	n/a	REC_WORD	394430	wordpools/wasnorm_wordpool_576.txt	LTP293	ltpFR2	7	3	FRAME	600	n/a	n/a	0	0	0
796.226	n/a	REC_WORD	398113	wordpools/wasnorm_wordpool_576.txt	LTP293	ltpFR2	7	3	BASEBALL	93	n/a	n/a	0	0	0
801.77	n/a	REC_WORD	400885	wordpools/wasnorm_wordpool_576.txt	LTP293	ltpFR2	7	3	FOX	598	n/a	n/a	0	0	0
806.952	n/a	REC_WORD	403476	wordpools/wasnorm_wordpool_576.txt	LTP293	ltpFR2	7	3	JOURNAL	760	n/a	n/a	0	0	0
808.382	n/a	REC_WORD	404191	wordpools/wasnorm_wordpool_576.txt	LTP293	ltpFR2	7	3	NOTEBOOK	959	n/a	n/a	0	0	0
816.554	n/a	REC_WORD	408277	wordpools/wasnorm_wordpool_576.txt	LTP293	ltpFR2	7	3	REPORT	1184	n/a	n/a	0	0	0
853.748	n/a	WORD	426874	wordpools/wasnorm_wordpool_576.txt	LTP293	ltpFR2	7	4	RATTLE	1170	n/a	n/a	0	0	0
856.184	n/a	WORD	428092	wordpools/wasnorm_wordpool_576.txt	LTP293	ltpFR2	7	4	STAKE	1368	n/a	n/a	0	0	0
858.918	n/a	WORD	429459	wordpools/wasnorm_wordpool_576.txt	LTP293	ltpFR2	7	4	LILY	821	n/a	n/a	0	0	0
861.454	n/a	WORD	430727	wordpools/wasnorm_wordpool_576.txt	LTP293	ltpFR2	7	4	GARDEN	623	n/a	n/a	0	0	0
864.124	n/a	WORD	432062	wordpools/wasnorm_wordpool_576.txt	LTP293	ltpFR2	7	4	BUCKET	184	n/a	n/a	0	0	0
866.624	n/a	WORD	433312	wordpools/wasnorm_wordpool_576.txt	LTP293	ltpFR2	7	4	LAKE	796	n/a	n/a	0	0	0
869.278	n/a	WORD	434639	wordpools/wasnorm_wordpool_576.txt	LTP293	ltpFR2	7	4	ISLAND	745	n/a	n/a	0	0	0
871.93	n/a	WORD	435965	wordpools/wasnorm_wordpool_576.txt	LTP293	ltpFR2	7	4	SUNSET	1408	n/a	n/a	0	0	0
874.548	n/a	WORD	437274	wordpools/wasnorm_wordpool_576.txt	LTP293	ltpFR2	7	4	UMPIRE	1535	n/a	n/a	0	0	0
877.15	n/a	WORD	438575	wordpools/wasnorm_wordpool_576.txt	LTP293	ltpFR2	7	4	MARROW	872	n/a	n/a	0	0	0
879.902	n/a	WORD	439951	wordpools/wasnorm_wordpool_576.txt	LTP293	ltpFR2	7	4	SOFTBALL	1343	n/a	n/a	0	0	0
882.354	n/a	WORD	441177	wordpools/wasnorm_wordpool_576.txt	LTP293	ltpFR2	7	4	WRENCH	1625	n/a	n/a	0	0	0
884.958	n/a	WORD	442479	wordpools/wasnorm_wordpool_576.txt	LTP293	ltpFR2	7	4	MATTRESS	879	n/a	n/a	0	0	0
887.46	n/a	WORD	443730	wordpools/wasnorm_wordpool_576.txt	LTP293	ltpFR2	7	4	LAVA	804	n/a	n/a	0	0	0
889.912	n/a	WORD	444956	wordpools/wasnorm_wordpool_576.txt	LTP293	ltpFR2	7	4	STOMACH	1384	n/a	n/a	0	0	0
892.662	n/a	WORD	446331	wordpools/wasnorm_wordpool_576.txt	LTP293	ltpFR2	7	4	SALT	1229	n/a	n/a	0	0	0
895.482	n/a	WORD	447741	wordpools/wasnorm_wordpool_576.txt	LTP293	ltpFR2	7	4	LETTUCE	814	n/a	n/a	0	0	0
897.968	n/a	WORD	448984	wordpools/wasnorm_wordpool_576.txt	LTP293	ltpFR2	7	4	TROMBONE	1508	n/a	n/a	0	0	0
900.552	n/a	WORD	450276	wordpools/wasnorm_wordpool_576.txt	LTP293	ltpFR2	7	4	GRAVEL	659	n/a	n/a	0	0	0
903.19	n/a	WORD	451595	wordpools/wasnorm_wordpool_576.txt	LTP293	ltpFR2	7	4	PUDDLE	1140	n/a	n/a	0	0	0
905.908	n/a	WORD	452954	wordpools/wasnorm_wordpool_576.txt	LTP293	ltpFR2	7	4	POISON	1096	n/a	n/a	0	0	0
908.41	n/a	WORD	454205	wordpools/wasnorm_wordpool_576.txt	LTP293	ltpFR2	7	4	CYCLONE	431	n/a	n/a	0	0	0
911.164	n/a	WORD	455582	wordpools/wasnorm_wordpool_576.txt	LTP293	ltpFR2	7	4	SUNRISE	1407	n/a	n/a	0	0	0
913.816	n/a	WORD	456908	wordpools/wasnorm_wordpool_576.txt	LTP293	ltpFR2	7	4	PIZZA	1079	n/a	n/a	0	0	0
915.434	n/a	START	457717	n/a	LTP293	ltpFR2	7	n/a	n/a	n/a	6	n/a	n/a	n/a	n/a
916.614	n/a	DISTRACTOR	458307	n/a	LTP293	ltpFR2	7	4	n/a	n/a	n/a	n/a	0	0	0
916.634	n/a	PROB	458317	n/a	LTP293	ltpFR2	7	n/a	n/a	n/a	6	18	9	7	2
917.92	n/a	PROB	458960	n/a	LTP293	ltpFR2	7	n/a	n/a	n/a	6	20	4	9	7
920.552	n/a	PROB	460276	n/a	LTP293	ltpFR2	7	n/a	n/a	n/a	6	18	6	5	7
922.856	n/a	PROB	461428	n/a	LTP293	ltpFR2	7	n/a	n/a	n/a	6	12	5	3	4
924.056	n/a	PROB	462028	n/a	LTP293	ltpFR2	7	n/a	n/a	n/a	6	13	3	4	6
925.292	n/a	PROB	462646	n/a	LTP293	ltpFR2	7	n/a	n/a	n/a	6	20	8	9	3
926.376	n/a	PROB	463188	n/a	LTP293	ltpFR2	7	n/a	n/a	n/a	6	10	1	6	3
927.794	n/a	PROB	463897	n/a	LTP293	ltpFR2	7	n/a	n/a	n/a	6	26	8	7	7
929.56	n/a	PROB	464780	n/a	LTP293	ltpFR2	7	n/a	n/a	n/a	6	15	2	5	8
930.662	n/a	PROB	465331	n/a	LTP293	ltpFR2	7	n/a	n/a	n/a	6	19	6	9	4
932.046	n/a	PROB	466023	n/a	LTP293	ltpFR2	7	n/a	n/a	n/a	6	10	1	2	7
933.398	n/a	PROB	466699	n/a	LTP293	ltpFR2	7	n/a	n/a	n/a	6	16	8	6	2
934.7	n/a	PROB	467350	n/a	LTP293	ltpFR2	7	n/a	n/a	n/a	6	4	1	2	1
935.632	n/a	PROB	467816	n/a	LTP293	ltpFR2	7	n/a	n/a	n/a	6	16	4	4	8
937.268	n/a	PROB	468634	n/a	LTP293	ltpFR2	7	n/a	n/a	n/a	6	12	5	2	5
938.366	n/a	STOP	469183	n/a	LTP293	ltpFR2	7	n/a	n/a	n/a	6	n/a	n/a	n/a	n/a
941.406	n/a	REC_START	470703	n/a	LTP293	ltpFR2	7	4	n/a	n/a	n/a	n/a	0	0	0
942.204	n/a	REC_WORD	471102	wordpools/wasnorm_wordpool_576.txt	LTP293	ltpFR2	7	4	CYCLONE	431	n/a	n/a	0	0	0
943.374	n/a	REC_WORD	471687	wordpools/wasnorm_wordpool_576.txt	LTP293	ltpFR2	7	4	SUNRISE	1407	n/a	n/a	0	0	0
944.566	n/a	REC_WORD	472283	wordpools/wasnorm_wordpool_576.txt	LTP293	ltpFR2	7	4	LAVA	804	n/a	n/a	0	0	0
945.738	n/a	REC_WORD	472869	wordpools/wasnorm_wordpool_576.txt	LTP293	ltpFR2	7	4	ISLAND	745	n/a	n/a	0	0	0
946.826	n/a	REC_WORD	473413	wordpools/wasnorm_wordpool_576.txt	LTP293	ltpFR2	7	4	LAKE	796	n/a	n/a	0	0	0
949.744	n/a	REC_WORD	474872	wordpools/wasnorm_wordpool_576.txt	LTP293	ltpFR2	7	4	STAKE	1368	n/a	n/a	0	0	0
952.34	n/a	REC_WORD	476170	wordpools/wasnorm_wordpool_576.txt	LTP293	ltpFR2	7	4	RATTLE	1170	n/a	n/a	0	0	0
954.986	n/a	REC_WORD	477493	wordpools/wasnorm_wordpool_576.txt	LTP293	ltpFR2	7	4	BUCKET	184	n/a	n/a	0	0	0
957.34	n/a	REC_WORD	478670	wordpools/wasnorm_wordpool_576.txt	LTP293	ltpFR2	7	4	GARDEN	623	n/a	n/a	0	0	0
961.028	n/a	REC_WORD	480514	wordpools/wasnorm_wordpool_576.txt	LTP293	ltpFR2	7	4	LILY	821	n/a	n/a	0	0	0
962.448	n/a	REC_WORD	481224	wordpools/wasnorm_wordpool_576.txt	LTP293	ltpFR2	7	4	GRAVEL	659	n/a	n/a	0	0	0
963.754	n/a	REC_WORD	481877	wordpools/wasnorm_wordpool_576.txt	LTP293	ltpFR2	7	4	SALT	1229	n/a	n/a	0	0	0
964.934	n/a	REC_WORD	482467	wordpools/wasnorm_wordpool_576.txt	LTP293	ltpFR2	7	4	PIZZA	1079	n/a	n/a	0	0	0
967.502	n/a	REC_WORD	483751	wordpools/wasnorm_wordpool_576.txt	LTP293	ltpFR2	7	4	LETTUCE	814	n/a	n/a	0	0	0
987.6	n/a	REC_WORD	493800	wordpools/wasnorm_wordpool_576.txt	LTP293	ltpFR2	7	4	MATTRESS	879	n/a	n/a	0	0	0
1032.032	n/a	DISTRACTOR	516016	n/a	LTP293	ltpFR2	7	5	n/a	n/a	n/a	n/a	0	0	0
1032.032	n/a	START	516016	n/a	LTP293	ltpFR2	7	n/a	n/a	n/a	7	n/a	n/a	n/a	n/a
1032.066	n/a	PROB	516033	n/a	LTP293	ltpFR2	7	n/a	n/a	n/a	7	12	2	4	6
1033.7	n/a	PROB	516850	n/a	LTP293	ltpFR2	7	n/a	n/a	n/a	7	20	2	9	9
1034.752	n/a	PROB	517376	n/a	LTP293	ltpFR2	7	n/a	n/a	n/a	7	9	4	1	4
1036.102	n/a	PROB	518051	n/a	LTP293	ltpFR2	7	n/a	n/a	n/a	7	14	3	6	5
1037.47	n/a	PROB	518735	n/a	LTP293	ltpFR2	7	n/a	n/a	n/a	7	11	6	4	1
1038.554	n/a	PROB	519277	n/a	LTP293	ltpFR2	7	n/a	n/a	n/a	7	9	5	1	3
1039.956	n/a	PROB	519978	n/a	LTP293	ltpFR2	7	n/a	n/a	n/a	7	20	6	8	6
1041.356	n/a	PROB	520678	n/a	LTP293	ltpFR2	7	n/a	n/a	n/a	7	8	1	1	6
1042.258	n/a	PROB	521129	n/a	LTP293	ltpFR2	7	n/a	n/a	n/a	7	12	3	2	7
1043.892	n/a	PROB	521946	n/a	LTP293	ltpFR2	7	n/a	n/a	n/a	7	22	9	5	8
1045.626	n/a	PROB	522813	n/a	LTP293	ltpFR2	7	n/a	n/a	n/a	7	15	3	6	6
1048.23	n/a	PROB	524115	n/a	LTP293	ltpFR2	7	n/a	n/a	n/a	7	20	8	6	6
1049.596	n/a	PROB	524798	n/a	LTP293	ltpFR2	7	n/a	n/a	n/a	7	17	5	4	8
1050.898	n/a	PROB	525449	n/a	LTP293	ltpFR2	7	n/a	n/a	n/a	7	13	2	4	7
1052.032	n/a	PROB	526016	n/a	LTP293	ltpFR2	7	n/a	n/a	n/a	7	12	1	9	2
1053.55	n/a	PROB	526775	n/a	LTP293	ltpFR2	7	n/a	n/a	n/a	7	23	6	8	9
1054.77	n/a	STOP	527385	n/a	LTP293	ltpFR2	7	n/a	n/a	n/a	7	n/a	n/a	n/a	n/a
1057.138	n/a	WORD	528569	wordpools/wasnorm_wordpool_576.txt	LTP293	ltpFR2	7	5	PEACH	1031	n/a	n/a	0	0	0
1059.84	n/a	WORD	529920	wordpools/wasnorm_wordpool_576.txt	LTP293	ltpFR2	7	5	MEDAL	885	n/a	n/a	0	0	0
1062.258	n/a	WORD	531129	wordpools/wasnorm_wordpool_576.txt	LTP293	ltpFR2	7	5	CASKET	255	n/a	n/a	0	0	0
1065.06	n/a	WORD	532530	wordpools/wasnorm_wordpool_576.txt	LTP293	ltpFR2	7	5	FEMALE	559	n/a	n/a	0	0	0
1067.594	n/a	WORD	533797	wordpools/wasnorm_wordpool_576.txt	LTP293	ltpFR2	7	5	LIPSTICK	829	n/a	n/a	0	0	0
1070.232	n/a	WORD	535116	wordpools/wasnorm_wordpool_576.txt	LTP293	ltpFR2	7	5	GROUND	666	n/a	n/a	0	0	0
1072.85	n/a	WORD	536425	wordpools/wasnorm_wordpool_576.txt	LTP293	ltpFR2	7	5	SODA	1341	n/a	n/a	0	0	0
1075.368	n/a	WORD	537684	wordpools/wasnorm_wordpool_576.txt	LTP293	ltpFR2	7	5	BEAVER	109	n/a	n/a	0	0	0
1077.854	n/a	WORD	538927	wordpools/wasnorm_wordpool_576.txt	LTP293	ltpFR2	7	5	POSSUM	1112	n/a	n/a	0	0	0
1080.506	n/a	WORD	540253	wordpools/wasnorm_wordpool_576.txt	LTP293	ltpFR2	7	5	PLAZA	1088	n/a	n/a	0	0	0
1083.192	n/a	WORD	541596	wordpools/wasnorm_wordpool_576.txt	LTP293	ltpFR2	7	5	PENGUIN	1044	n/a	n/a	0	0	0
1085.828	n/a	WORD	542914	wordpools/wasnorm_wordpool_576.txt	LTP293	ltpFR2	7	5	PARENT	1013	n/a	n/a	0	0	0
1088.496	n/a	WORD	544248	wordpools/wasnorm_wordpool_576.txt	LTP293	ltpFR2	7	5	CAMEL	223	n/a	n/a	0	0	0
1091.0	n/a	WORD	545500	wordpools/wasnorm_wordpool_576.txt	LTP293	ltpFR2	7	5	EGYPT	519	n/a	n/a	0	0	0
1093.768	n/a	WORD	546884	wordpools/wasnorm_wordpool_576.txt	LTP293	ltpFR2	7	5	EAGLE	512	n/a	n/a	0	0	0
1096.47	n/a	WORD	548235	wordpools/wasnorm_wordpool_576.txt	LTP293	ltpFR2	7	5	PECAN	1036	n/a	n/a	0	0	0
1099.14	n/a	WORD	549570	wordpools/wasnorm_wordpool_576.txt	LTP293	ltpFR2	7	5	NECKLACE	940	n/a	n/a	0	0	0
1101.608	n/a	WORD	550804	wordpools/wasnorm_wordpool_576.txt	LTP293	ltpFR2	7	5	BUBBLE	183	n/a	n/a	0	0	0
1104.378	n/a	WORD	552189	wordpools/wasnorm_wordpool_576.txt	LTP293	ltpFR2	7	5	PERFUME	1049	n/a	n/a	0	0	0
1107.08	n/a	WORD	553540	wordpools/wasnorm_wordpool_576.txt	LTP293	ltpFR2	7	5	KETCHUP	771	n/a	n/a	0	0	0
1109.832	n/a	WORD	554916	wordpools/wasnorm_wordpool_576.txt	LTP293	ltpFR2	7	5	BALLOON	75	n/a	n/a	0	0	0
1112.4	n/a	WORD	556200	wordpools/wasnorm_wordpool_576.txt	LTP293	ltpFR2	7	5	OZONE	996	n/a	n/a	0	0	0
1115.186	n/a	WORD	557593	wordpools/wasnorm_wordpool_576.txt	LTP293	ltpFR2	7	5	ZIPPER	1636	n/a	n/a	0	0	0
1117.722	n/a	WORD	558861	wordpools/wasnorm_wordpool_576.txt	LTP293	ltpFR2	7	5	SWORD	1423	n/a	n/a	0	0	0
1119.34	n/a	START	559670	n/a	LTP293	ltpFR2	7	n/a	n/a	n/a	8	n/a	n/a	n/a	n/a
1120.432	n/a	DISTRACTOR	560216	n/a	LTP293	ltpFR2	7	5	n/a	n/a	n/a	n/a	0	0	0
1120.44	n/a	PROB	560220	n/a	LTP293	ltpFR2	7	n/a	n/a	n/a	8	9	5	3	1
1121.708	n/a	PROB	560854	n/a	LTP293	ltpFR2	7	n/a	n/a	n/a	8	14	7	3	4
1122.892	n/a	PROB	561446	n/a	LTP293	ltpFR2	7	n/a	n/a	n/a	8	11	1	4	6
1124.428	n/a	PROB	562214	n/a	LTP293	ltpFR2	7	n/a	n/a	n/a	8	14	2	8	6
1125.912	n/a	PROB	562956	n/a	LTP293	ltpFR2	7	n/a	n/a	n/a	8	19	3	7	9
1127.046	n/a	PROB	563523	n/a	LTP293	ltpFR2	7	n/a	n/a	n/a	8	17	8	5	4
1130.35	n/a	PROB	565175	n/a	LTP293	ltpFR2	7	n/a	n/a	n/a	8	6	2	3	1
1131.85	n/a	PROB	565925	n/a	LTP293	ltpFR2	7	n/a	n/a	n/a	8	17	6	2	9
1133.034	n/a	PROB	566517	n/a	LTP293	ltpFR2	7	n/a	n/a	n/a	8	19	7	5	7
1135.086	n/a	PROB	567543	n/a	LTP293	ltpFR2	7	n/a	n/a	n/a	8	13	7	4	2
1136.22	n/a	PROB	568110	n/a	LTP293	ltpFR2	7	n/a	n/a	n/a	8	23	9	6	8
1137.406	n/a	PROB	568703	n/a	LTP293	ltpFR2	7	n/a	n/a	n/a	8	20	9	8	3
1138.506	n/a	PROB	569253	n/a	LTP293	ltpFR2	7	n/a	n/a	n/a	8	18	7	9	2
1140.124	n/a	PROB	570062	n/a	LTP293	ltpFR2	7	n/a	n/a	n/a	8	11	3	4	4
1141.358	n/a	PROB	570679	n/a	LTP293	ltpFR2	7	n/a	n/a	n/a	8	14	7	6	1
1142.498	n/a	STOP	571249	n/a	LTP293	ltpFR2	7	n/a	n/a	n/a	8	n/a	n/a	n/a	n/a
1145.262	n/a	REC_START	572631	n/a	LTP293	ltpFR2	7	5	n/a	n/a	n/a	n/a	0	0	0
1145.678	n/a	REC_WORD	572839	wordpools/wasnorm_wordpool_576.txt	LTP293	ltpFR2	7	5	SWORD	1423	n/a	n/a	0	0	0
1146.79	n/a	REC_WORD	573395	wordpools/wasnorm_wordpool_576.txt	LTP293	ltpFR2	7	5	BUBBLE	183	n/a	n/a	0	0	0
1148.25	n/a	REC_WORD	574125	wordpools/wasnorm_wordpool_576.txt	LTP293	ltpFR2	7	5	NECKLACE	940	n/a	n/a	0	0	0
1149.306	n/a	REC_WORD	574653	wordpools/wasnorm_wordpool_576.txt	LTP293	ltpFR2	7	5	LIPSTICK	829	n/a	n/a	0	0	0
1150.59	n/a	REC_WORD	575295	wordpools/wasnorm_wordpool_576.txt	LTP293	ltpFR2	7	5	CASKET	255	n/a	n/a	0	0	0
1151.712	n/a	REC_WORD	575856	wordpools/wasnorm_wordpool_576.txt	LTP293	ltpFR2	7	5	ZIPPER	1636	n/a	n/a	0	0	0
1153.998	n/a	REC_WORD	576999	wordpools/wasnorm_wordpool_576.txt	LTP293	ltpFR2	7	5	OZONE	996	n/a	n/a	0	0	0
1156.616	n/a	REC_WORD	578308	wordpools/wasnorm_wordpool_576.txt	LTP293	ltpFR2	7	5	CAMEL	223	n/a	n/a	0	0	0
1157.708	n/a	REC_WORD	578854	wordpools/wasnorm_wordpool_576.txt	LTP293	ltpFR2	7	5	EGYPT	519	n/a	n/a	0	0	0
1158.842	n/a	REC_WORD	579421	wordpools/wasnorm_wordpool_576.txt	LTP293	ltpFR2	7	5	PLAZA	1088	n/a	n/a	0	0	0
1160.254	n/a	REC_WORD	580127	wordpools/wasnorm_wordpool_576.txt	LTP293	ltpFR2	7	5	PEACH	1031	n/a	n/a	0	0	0
1161.328	n/a	REC_WORD	580664	wordpools/wasnorm_wordpool_576.txt	LTP293	ltpFR2	7	5	MEDAL	885	n/a	n/a	0	0	0
1235.906	n/a	WORD	617953	wordpools/wasnorm_wordpool_576.txt	LTP293	ltpFR2	7	6	HEDGE	699	n/a	n/a	0	0	0
1238.474	n/a	WORD	619237	wordpools/wasnorm_wordpool_576.txt	LTP293	ltpFR2	7	6	PATIENT	1024	n/a	n/a	0	0	0
1241.194	n/a	WORD	620597	wordpools/wasnorm_wordpool_576.txt	LTP293	ltpFR2	7	6	TROUT	1511	n/a	n/a	0	0	0
1244.03	n/a	WORD	622015	wordpools/wasnorm_wordpool_576.txt	LTP293	ltpFR2	7	6	PLASTER	1085	n/a	n/a	0	0	0
1246.682	n/a	WORD	623341	wordpools/wasnorm_wordpool_576.txt	LTP293	ltpFR2	7	6	ACTRESS	6	n/a	n/a	0	0	0
1249.268	n/a	WORD	624634	wordpools/wasnorm_wordpool_576.txt	LTP293	ltpFR2	7	6	POPCORN	1104	n/a	n/a	0	0	0
1251.77	n/a	WORD	625885	wordpools/wasnorm_wordpool_576.txt	LTP293	ltpFR2	7	6	REBEL	1172	n/a	n/a	0	0	0
1254.322	n/a	WORD	627161	wordpools/wasnorm_wordpool_576.txt	LTP293	ltpFR2	7	6	WRIST	1626	n/a	n/a	0	0	0
1256.94	n/a	WORD	628470	wordpools/wasnorm_wordpool_576.txt	LTP293	ltpFR2	7	6	SUMMIT	1405	n/a	n/a	0	0	0
1259.758	n/a	WORD	629879	wordpools/wasnorm_wordpool_576.txt	LTP293	ltpFR2	7	6	DRILL	497	n/a	n/a	0	0	0
1262.244	n/a	WORD	631122	wordpools/wasnorm_wordpool_576.txt	LTP293	ltpFR2	7	6	PERCH	1048	n/a	n/a	0	0	0
1265.064	n/a	WORD	632532	wordpools/wasnorm_wordpool_576.txt	LTP293	ltpFR2	7	6	JUNGLE	764	n/a	n/a	0	0	0
1267.766	n/a	WORD	633883	wordpools/wasnorm_wordpool_576.txt	LTP293	ltpFR2	7	6	FRANCE	601	n/a	n/a	0	0	0
1270.568	n/a	WORD	635284	wordpools/wasnorm_wordpool_576.txt	LTP293	ltpFR2	7	6	SHRUB	1299	n/a	n/a	0	0	0
1273.036	n/a	WORD	636518	wordpools/wasnorm_wordpool_576.txt	LTP293	ltpFR2	7	6	FRIEND	606	n/a	n/a	0	0	0
1275.822	n/a	WORD	637911	wordpools/wasnorm_wordpool_576.txt	LTP293	ltpFR2	7	6	SEAGULL	1261	n/a	n/a	0	0	0
1278.658	n/a	WORD	639329	wordpools/wasnorm_wordpool_576.txt	LTP293	ltpFR2	7	6	ROOSTER	1209	n/a	n/a	0	0	0
1281.144	n/a	WORD	640572	wordpools/wasnorm_wordpool_576.txt	LTP293	ltpFR2	7	6	PARTNER	1017	n/a	n/a	0	0	0
1283.628	n/a	WORD	641814	wordpools/wasnorm_wordpool_576.txt	LTP293	ltpFR2	7	6	GARLIC	624	n/a	n/a	0	0	0
1286.366	n/a	WORD	643183	wordpools/wasnorm_wordpool_576.txt	LTP293	ltpFR2	7	6	JUDGE	761	n/a	n/a	0	0	0
1289.118	n/a	WORD	644559	wordpools/wasnorm_wordpool_576.txt	LTP293	ltpFR2	7	6	MARINE	869	n/a	n/a	0	0	0
1291.586	n/a	WORD	645793	wordpools/wasnorm_wordpool_576.txt	LTP293	ltpFR2	7	6	RAFT	1159	n/a	n/a	0	0	0
1294.122	n/a	WORD	647061	wordpools/wasnorm_wordpool_576.txt	LTP293	ltpFR2	7	6	JELLO	754	n/a	n/a	0	0	0
1296.74	n/a	WORD	648370	wordpools/wasnorm_wordpool_576.txt	LTP293	ltpFR2	7	6	BRACES	164	n/a	n/a	0	0	0
1298.36	n/a	START	649180	n/a	LTP293	ltpFR2	7	n/a	n/a	n/a	9	n/a	n/a	n/a	n/a
1299.222	n/a	DISTRACTOR	649611	n/a	LTP293	ltpFR2	7	6	n/a	n/a	n/a	n/a	0	0	0
1299.242	n/a	PROB	649621	n/a	LTP293	ltpFR2	7	n/a	n/a	n/a	9	18	4	5	9
1300.41	n/a	PROB	650205	n/a	LTP293	ltpFR2	7	n/a	n/a	n/a	9	23	5	9	9
1301.494	n/a	PROB	650747	n/a	LTP293	ltpFR2	7	n/a	n/a	n/a	9	15	8	3	4
1302.544	n/a	PROB	651272	n/a	LTP293	ltpFR2	7	n/a	n/a	n/a	9	19	4	7	8
1304.314	n/a	PROB	652157	n/a	LTP293	ltpFR2	7	n/a	n/a	n/a	9	15	4	3	8
1305.248	n/a	PROB	652624	n/a	LTP293	ltpFR2	7	n/a	n/a	n/a	9	16	4	5	7
1306.832	n/a	PROB	653416	n/a	LTP293	ltpFR2	7	n/a	n/a	n/a	9	17	9	3	5
1308.116	n/a	PROB	654058	n/a	LTP293	ltpFR2	7	n/a	n/a	n/a	9	19	8	9	2
1309.666	n/a	PROB	654833	n/a	LTP293	ltpFR2	7	n/a	n/a	n/a	9	20	3	8	9
1310.634	n/a	PROB	655317	n/a	LTP293	ltpFR2	7	n/a	n/a	n/a	9	11	8	1	2
1311.802	n/a	PROB	655901	n/a	LTP293	ltpFR2	7	n/a	n/a	n/a	9	17	7	5	5
1312.87	n/a	PROB	656435	n/a	LTP293	ltpFR2	7	n/a	n/a	n/a	9	13	6	6	1
1314.288	n/a	PROB	657144	n/a	LTP293	ltpFR2	7	n/a	n/a	n/a	9	14	2	7	5
1316.39	n/a	PROB	658195	n/a	LTP293	ltpFR2	7	n/a	n/a	n/a	9	17	8	2	7
1317.458	n/a	PROB	658729	n/a	LTP293	ltpFR2	7	n/a	n/a	n/a	9	9	2	3	4
1318.676	n/a	PROB	659338	n/a	LTP293	ltpFR2	7	n/a	n/a	n/a	9	14	8	5	1
1320.126	n/a	PROB	660063	n/a	LTP293	ltpFR2	7	n/a	n/a	n/a	9	16	6	9	1
1321.5	n/a	STOP	660750	n/a	LTP293	ltpFR2	7	n/a	n/a	n/a	9	n/a	n/a	n/a	n/a
1324.264	n/a	REC_START	662132	n/a	LTP293	ltpFR2	7	6	n/a	n/a	n/a	n/a	0	0	0
1324.652	n/a	REC_WORD	662326	wordpools/wasnorm_wordpool_576.txt	LTP293	ltpFR2	7	6	SEAGULL	1261	n/a	n/a	0	0	0
1325.748	n/a	REC_WORD	662874	wordpools/wasnorm_wordpool_576.txt	LTP293	ltpFR2	7	6	ROOSTER	1209	n/a	n/a	0	0	0
1327.286	n/a	REC_WORD	663643	wordpools/wasnorm_wordpool_576.txt	LTP293	ltpFR2	7	6	RAFT	1159	n/a	n/a	0	0	0
1328.34	n/a	REC_WORD	664170	wordpools/wasnorm_wordpool_576.txt	LTP293	ltpFR2	7	6	MARINE	869	n/a	n/a	0	0	0
1329.514	n/a	REC_WORD	664757	wordpools/wasnorm_wordpool_576.txt	LTP293	ltpFR2	7	6	JELLO	754	n/a	n/a	0	0	0
1330.688	n/a	REC_WORD	665344	wordpools/wasnorm_wordpool_576.txt	LTP293	ltpFR2	7	6	BRACES	164	n/a	n/a	0	0	0
1331.774	n/a	REC_WORD	665887	wordpools/wasnorm_wordpool_576.txt	LTP293	ltpFR2	7	6	SHRUB	1299	n/a	n/a	0	0	0
1332.91	n/a	REC_WORD	666455	wordpools/wasnorm_wordpool_576.txt	LTP293	ltpFR2	7	6	HEDGE	699	n/a	n/a	0	0	0
1334.556	n/a	REC_WORD	667278	wordpools/wasnorm_wordpool_576.txt	LTP293	ltpFR2	7	6	DRILL	497	n/a	n/a	0	0	0
1335.58	n/a	REC_WORD	667790	wordpools/wasnorm_wordpool_576.txt	LTP293	ltpFR2	7	6	PERCH	1048	n/a	n/a	0	0	0
1336.732	n/a	REC_WORD	668366	wordpools/wasnorm_wordpool_576.txt	LTP293	ltpFR2	7	6	PLASTER	1085	n/a	n/a	0	0	0
1337.924	n/a	REC_WORD	668962	wordpools/wasnorm_wordpool_576.txt	LTP293	ltpFR2	7	6	TROUT	1511	n/a	n/a	0	0	0
1339.02	n/a	REC_WORD	669510	wordpools/wasnorm_wordpool_576.txt	LTP293	ltpFR2	7	6	GARLIC	624	n/a	n/a	0	0	0
1340.034	n/a	REC_WORD	670017	wordpools/wasnorm_wordpool_576.txt	LTP293	ltpFR2	7	6	FRIEND	606	n/a	n/a	0	0	0
1348.59	n/a	REC_WORD	674295	wordpools/wasnorm_wordpool_576.txt	LTP293	ltpFR2	7	6	POPCORN	1104	n/a	n/a	0	0	0
1414.74	n/a	DISTRACTOR	707370	n/a	LTP293	ltpFR2	7	7	n/a	n/a	n/a	n/a	0	0	0
1414.74	n/a	START	707370	n/a	LTP293	ltpFR2	7	n/a	n/a	n/a	10	n/a	n/a	n/a	n/a
1414.774	n/a	PROB	707387	n/a	LTP293	ltpFR2	7	n/a	n/a	n/a	10	22	8	5	9
1416.976	n/a	PROB	708488	n/a	LTP293	ltpFR2	7	n/a	n/a	n/a	10	16	5	9	2
1418.526	n/a	PROB	709263	n/a	LTP293	ltpFR2	7	n/a	n/a	n/a	10	14	4	1	9
1419.678	n/a	PROB	709839	n/a	LTP293	ltpFR2	7	n/a	n/a	n/a	10	13	1	7	5
1420.796	n/a	PROB	710398	n/a	LTP293	ltpFR2	7	n/a	n/a	n/a	10	13	7	3	3
1422.014	n/a	PROB	711007	n/a	LTP293	ltpFR2	7	n/a	n/a	n/a	10	24	7	8	9
1423.698	n/a	PROB	711849	n/a	LTP293	ltpFR2	7	n/a	n/a	n/a	10	18	9	4	5
1424.766	n/a	PROB	712383	n/a	LTP293	ltpFR2	7	n/a	n/a	n/a	10	20	4	8	8
1426.752	n/a	PROB	713376	n/a	LTP293	ltpFR2	7	n/a	n/a	n/a	10	10	2	1	7
1427.768	n/a	PROB	713884	n/a	LTP293	ltpFR2	7	n/a	n/a	n/a	10	13	4	2	7
1428.852	n/a	PROB	714426	n/a	LTP293	ltpFR2	7	n/a	n/a	n/a	10	20	8	2	8
1430.954	n/a	PROB	715477	n/a	LTP293	ltpFR2	7	n/a	n/a	n/a	10	17	1	7	9
1432.256	n/a	PROB	716128	n/a	LTP293	ltpFR2	7	n/a	n/a	n/a	10	17	2	9	6
1433.874	n/a	PROB	716937	n/a	LTP293	ltpFR2	7	n/a	n/a	n/a	10	25	7	8	8
1438.74	n/a	STOP	719370	n/a	LTP293	ltpFR2	7	n/a	n/a	n/a	10	n/a	n/a	n/a	n/a
1439.696	n/a	WORD	719848	wordpools/wasnorm_wordpool_576.txt	LTP293	ltpFR2	7	7	ATLAS	53	n/a	n/a	0	0	0
1442.364	n/a	WORD	721182	wordpools/wasnorm_wordpool_576.txt	LTP293	ltpFR2	7	7	COMET	353	n/a	n/a	0	0	0
1445.084	n/a	WORD	722542	wordpools/wasnorm_wordpool_576.txt	LTP293	ltpFR2	7	7	STAR	1373	n/a	n/a	0	0	0
1447.634	n/a	WORD	723817	wordpools/wasnorm_wordpool_576.txt	LTP293	ltpFR2	7	7	NAPKIN	937	n/a	n/a	0	0	0
1450.138	n/a	WORD	725069	wordpools/wasnorm_wordpool_576.txt	LTP293	ltpFR2	7	7	RECEIPT	1173	n/a	n/a	0	0	0
1452.654	n/a	WORD	726327	wordpools/wasnorm_wordpool_576.txt	LTP293	ltpFR2	7	7	PIMPLE	1071	n/a	n/a	0	0	0
1455.442	n/a	WORD	727721	wordpools/wasnorm_wordpool_576.txt	LTP293	ltpFR2	7	7	DOUGHNUT	490	n/a	n/a	0	0	0
1457.978	n/a	WORD	728989	wordpools/wasnorm_wordpool_576.txt	LTP293	ltpFR2	7	7	NOTEBOOK	959	n/a	n/a	0	0	0
1460.796	n/a	WORD	730398	wordpools/wasnorm_wordpool_576.txt	LTP293	ltpFR2	7	7	IGLOO	734	n/a	n/a	0	0	0
1463.366	n/a	WORD	731683	wordpools/wasnorm_wordpool_576.txt	LTP293	ltpFR2	7	7	SKILLET	1317	n/a	n/a	0	0	0
1466.134	n/a	WORD	733067	wordpools/wasnorm_wordpool_576.txt	LTP293	ltpFR2	7	7	DENIM	446	n/a	n/a	0	0	0
1468.754	n/a	WORD	734377	wordpools/wasnorm_wordpool_576.txt	LTP293	ltpFR2	7	7	TABLET	1427	n/a	n/a	0	0	0
1471.338	n/a	WORD	735669	wordpools/wasnorm_wordpool_576.txt	LTP293	ltpFR2	7	7	LACE	792	n/a	n/a	0	0	0
1473.958	n/a	WORD	736979	wordpools/wasnorm_wordpool_576.txt	LTP293	ltpFR2	7	7	GYMNAST	675	n/a	n/a	0	0	0
1476.778	n/a	WORD	738389	wordpools/wasnorm_wordpool_576.txt	LTP293	ltpFR2	7	7	PLAYGROUND	1087	n/a	n/a	0	0	0
1479.362	n/a	WORD	739681	wordpools/wasnorm_wordpool_576.txt	LTP293	ltpFR2	7	7	SLIDE	1326	n/a	n/a	0	0	0
1481.948	n/a	WORD	740974	wordpools/wasnorm_wordpool_576.txt	LTP293	ltpFR2	7	7	OFFICE	972	n/a	n/a	0	0	0
1484.482	n/a	WORD	742241	wordpools/wasnorm_wordpool_576.txt	LTP293	ltpFR2	7	7	PUPPY	1144	n/a	n/a	0	0	0
1487.302	n/a	WORD	743651	wordpools/wasnorm_wordpool_576.txt	LTP293	ltpFR2	7	7	MAPLE	866	n/a	n/a	0	0	0
1489.754	n/a	WORD	744877	wordpools/wasnorm_wordpool_576.txt	LTP293	ltpFR2	7	7	SHIRT	1287	n/a	n/a	0	0	0
1492.224	n/a	WORD	746112	wordpools/wasnorm_wordpool_576.txt	LTP293	ltpFR2	7	7	GRIZZLY	662	n/a	n/a	0	0	0
1495.01	n/a	WORD	747505	wordpools/wasnorm_wordpool_576.txt	LTP293	ltpFR2	7	7	HIGHWAY	707	n/a	n/a	0	0	0
1497.66	n/a	WORD	748830	wordpools/wasnorm_wordpool_576.txt	LTP293	ltpFR2	7	7	TOMBSTONE	1478	n/a	n/a	0	0	0
1500.264	n/a	WORD	750132	wordpools/wasnorm_wordpool_576.txt	LTP293	ltpFR2	7	7	PRINCE	1124	n/a	n/a	0	0	0
1501.882	n/a	START	750941	n/a	LTP293	ltpFR2	7	n/a	n/a	n/a	11	n/a	n/a	n/a	n/a
1502.976	n/a	DISTRACTOR	751488	n/a	LTP293	ltpFR2	7	7	n/a	n/a	n/a	n/a	0	0	0
1502.998	n/a	PROB	751499	n/a	LTP293	ltpFR2	7	n/a	n/a	n/a	11	20	8	8	4
1504.284	n/a	PROB	752142	n/a	LTP293	ltpFR2	7	n/a	n/a	n/a	11	16	4	5	7
1505.616	n/a	PROB	752808	n/a	LTP293	ltpFR2	7	n/a	n/a	n/a	11	10	2	2	6
1506.836	n/a	PROB	753418	n/a	LTP293	ltpFR2	7	n/a	n/a	n/a	11	20	4	7	9
1508.386	n/a	PROB	754193	n/a	LTP293	ltpFR2	7	n/a	n/a	n/a	11	17	1	8	8
1509.586	n/a	PROB	754793	n/a	LTP293	ltpFR2	7	n/a	n/a	n/a	11	18	8	1	9
1510.722	n/a	PROB	755361	n/a	LTP293	ltpFR2	7	n/a	n/a	n/a	11	17	3	7	7
1512.674	n/a	PROB	756337	n/a	LTP293	ltpFR2	7	n/a	n/a	n/a	11	7	3	2	2
1514.474	n/a	PROB	757237	n/a	LTP293	ltpFR2	7	n/a	n/a	n/a	11	18	6	9	3
1515.492	n/a	PROB	757746	n/a	LTP293	ltpFR2	7	n/a	n/a	n/a	11	18	3	7	8
1516.71	n/a	PROB	758355	n/a	LTP293	ltpFR2	7	n/a	n/a	n/a	11	12	4	5	3
1518.046	n/a	PROB	759023	n/a	LTP293	ltpFR2	7	n/a	n/a	n/a	11	16	5	3	8
1519.096	n/a	PROB	759548	n/a	LTP293	ltpFR2	7	n/a	n/a	n/a	11	14	2	7	5
1521.182	n/a	PROB	760591	n/a	LTP293	ltpFR2	7	n/a	n/a	n/a	11	17	7	9	1
1522.366	n/a	PROB	761183	n/a	LTP293	ltpFR2	7	n/a	n/a	n/a	11	11	5	3	3
1524.05	n/a	PROB	762025	n/a	LTP293	ltpFR2	7	n/a	n/a	n/a	11	20	2	9	9
1524.954	n/a	STOP	762477	n/a	LTP293	ltpFR2	7	n/a	n/a	n/a	11	n/a	n/a	n/a	n/a
1527.72	n/a	REC_START	763860	n/a	LTP293	ltpFR2	7	7	n/a	n/a	n/a	n/a	0	0	0
1528.23	n/a	REC_WORD	764115	wordpools/wasnorm_wordpool_576.txt	LTP293	ltpFR2	7	7	GRIZZLY	662	n/a	n/a	0	0	0
1529.214	n/a	REC_WORD	764607	wordpools/wasnorm_wordpool_576.txt	LTP293	ltpFR2	7	7	PLAYGROUND	1087	n/a	n/a	0	0	0
1530.182	n/a	REC_WORD	765091	wordpools/wasnorm_wordpool_576.txt	LTP293	ltpFR2	7	7	SLIDE	1326	n/a	n/a	0	0	0
1532.09	n/a	REC_WORD	766045	wordpools/wasnorm_wordpool_576.txt	LTP293	ltpFR2	7	7	PUPPY	1144	n/a	n/a	0	0	0
1533.778	n/a	REC_WORD	766889	wordpools/wasnorm_wordpool_576.txt	LTP293	ltpFR2	7	7	OFFICE	972	n/a	n/a	0	0	0
1535.184	n/a	REC_WORD	767592	wordpools/wasnorm_wordpool_576.txt	LTP293	ltpFR2	7	7	ATLAS	53	n/a	n/a	0	0	0
1536.45	n/a	REC_WORD	768225	wordpools/wasnorm_wordpool_576.txt	LTP293	ltpFR2	7	7	NAPKIN	937	n/a	n/a	0	0	0
1537.626	n/a	REC_WORD	768813	wordpools/wasnorm_wordpool_576.txt	LTP293	ltpFR2	7	7	RECEIPT	1173	n/a	n/a	0	0	0
1538.984	n/a	REC_WORD	769492	wordpools/wasnorm_wordpool_576.txt	LTP293	ltpFR2	7	7	LACE	792	n/a	n/a	0	0	0
1540.054	n/a	REC_WORD	770027	wordpools/wasnorm_wordpool_576.txt	LTP293	ltpFR2	7	7	SHIRT	1287	n/a	n/a	0	0	0
1541.288	n/a	REC_WORD	770644	wordpools/wasnorm_wordpool_576.txt	LTP293	ltpFR2	7	7	GYMNAST	675	n/a	n/a	0	0	0
1549.052	n/a	REC_WORD	774526	wordpools/wasnorm_wordpool_576.txt	LTP293	ltpFR2	7	7	DENIM	446	n/a	n/a	0	0	0
1550.714	n/a	REC_WORD	775357	wordpools/wasnorm_wordpool_576.txt	LTP293	ltpFR2	7	7	SKILLET	1317	n/a	n/a	0	0	0
1551.988	n/a	REC_WORD	775994	wordpools/wasnorm_wordpool_576.txt	LTP293	ltpFR2	7	7	TABLET	1427	n/a	n/a	0	0	0
1618.198	n/a	WORD	809099	wordpools/wasnorm_wordpool_576.txt	LTP293	ltpFR2	7	8	BACON	67	n/a	n/a	0	0	0
1620.664	n/a	WORD	810332	wordpools/wasnorm_wordpool_576.txt	LTP293	ltpFR2	7	8	ICING	732	n/a	n/a	0	0	0
1623.134	n/a	WORD	811567	wordpools/wasnorm_wordpool_576.txt	LTP293	ltpFR2	7	8	FLOWER	584	n/a	n/a	0	0	0
1625.62	n/a	WORD	812810	wordpools/wasnorm_wordpool_576.txt	LTP293	ltpFR2	7	8	TEACHER	1440	n/a	n/a	0	0	0
1628.39	n/a	WORD	814195	wordpools/wasnorm_wordpool_576.txt	LTP293	ltpFR2	7	8	HOUND	724	n/a	n/a	0	0	0
1631.092	n/a	WORD	815546	wordpools/wasnorm_wordpool_576.txt	LTP293	ltpFR2	7	8	TURNIP	1521	n/a	n/a	0	0	0
1633.642	n/a	WORD	816821	wordpools/wasnorm_wordpool_576.txt	LTP293	ltpFR2	7	8	SKETCH	1315	n/a	n/a	0	0	0
1636.196	n/a	WORD	818098	wordpools/wasnorm_wordpool_576.txt	LTP293	ltpFR2	7	8	CRAYON	401	n/a	n/a	0	0	0
1638.732	n/a	WORD	819366	wordpools/wasnorm_wordpool_576.txt	LTP293	ltpFR2	7	8	PRINCESS	1125	n/a	n/a	0	0	0
1641.268	n/a	WORD	820634	wordpools/wasnorm_wordpool_576.txt	LTP293	ltpFR2	7	8	QUEEN	1149	n/a	n/a	0	0	0
1643.784	n/a	WORD	821892	wordpools/wasnorm_wordpool_576.txt	LTP293	ltpFR2	7	8	RUG	1215	n/a	n/a	0	0	0
1646.354	n/a	WORD	823177	wordpools/wasnorm_wordpool_576.txt	LTP293	ltpFR2	7	8	PICNIC	1060	n/a	n/a	0	0	0
1649.056	n/a	WORD	824528	wordpools/wasnorm_wordpool_576.txt	LTP293	ltpFR2	7	8	ROBBER	1197	n/a	n/a	0	0	0
1651.892	n/a	WORD	825946	wordpools/wasnorm_wordpool_576.txt	LTP293	ltpFR2	7	8	STAMP	1370	n/a	n/a	0	0	0
1654.36	n/a	WORD	827180	wordpools/wasnorm_wordpool_576.txt	LTP293	ltpFR2	7	8	DONOR	485	n/a	n/a	0	0	0
1656.93	n/a	WORD	828465	wordpools/wasnorm_wordpool_576.txt	LTP293	ltpFR2	7	8	COLLEGE	346	n/a	n/a	0	0	0
1659.48	n/a	WORD	829740	wordpools/wasnorm_wordpool_576.txt	LTP293	ltpFR2	7	8	FLEET	578	n/a	n/a	0	0	0
1662.268	n/a	WORD	831134	wordpools/wasnorm_wordpool_576.txt	LTP293	ltpFR2	7	8	HEART	697	n/a	n/a	0	0	0
1664.936	n/a	WORD	832468	wordpools/wasnorm_wordpool_576.txt	LTP293	ltpFR2	7	8	TRANSPLANT	1496	n/a	n/a	0	0	0
1667.572	n/a	WORD	833786	wordpools/wasnorm_wordpool_576.txt	LTP293	ltpFR2	7	8	OMELET	976	n/a	n/a	0	0	0
1670.074	n/a	WORD	835037	wordpools/wasnorm_wordpool_576.txt	LTP293	ltpFR2	7	8	PUPIL	1143	n/a	n/a	0	0	0
1672.66	n/a	WORD	836330	wordpools/wasnorm_wordpool_576.txt	LTP293	ltpFR2	7	8	CUPBOARD	425	n/a	n/a	0	0	0
1675.178	n/a	WORD	837589	wordpools/wasnorm_wordpool_576.txt	LTP293	ltpFR2	7	8	BARREL	91	n/a	n/a	0	0	0
1677.982	n/a	WORD	838991	wordpools/wasnorm_wordpool_576.txt	LTP293	ltpFR2	7	8	DANCER	437	n/a	n/a	0	0	0
1679.598	n/a	START	839799	n/a	LTP293	ltpFR2	7	n/a	n/a	n/a	12	n/a	n/a	n/a	n/a
1680.408	n/a	DISTRACTOR	840204	n/a	LTP293	ltpFR2	7	8	n/a	n/a	n/a	n/a	0	0	0
1680.434	n/a	PROB	840217	n/a	LTP293	ltpFR2	7	n/a	n/a	n/a	12	14	6	3	5
1682.052	n/a	PROB	841026	n/a	LTP293	ltpFR2	7	n/a	n/a	n/a	12	15	9	5	1
1683.102	n/a	PROB	841551	n/a	LTP293	ltpFR2	7	n/a	n/a	n/a	12	18	6	4	8
1684.52	n/a	PROB	842260	n/a	LTP293	ltpFR2	7	n/a	n/a	n/a	12	14	7	4	3
1685.654	n/a	PROB	842827	n/a	LTP293	ltpFR2	7	n/a	n/a	n/a	12	15	9	4	2
1686.906	n/a	PROB	843453	n/a	LTP293	ltpFR2	7	n/a	n/a	n/a	12	16	6	1	9
1687.99	n/a	PROB	843995	n/a	LTP293	ltpFR2	7	n/a	n/a	n/a	12	10	6	3	1
1689.442	n/a	PROB	844721	n/a	LTP293	ltpFR2	7	n/a	n/a	n/a	12	11	7	3	1
1690.408	n/a	PROB	845204	n/a	LTP293	ltpFR2	7	n/a	n/a	n/a	12	15	2	4	9
1691.524	n/a	PROB	845762	n/a	LTP293	ltpFR2	7	n/a	n/a	n/a	12	13	3	4	6
1693.744	n/a	PROB	846872	n/a	LTP293	ltpFR2	7	n/a	n/a	n/a	12	12	3	7	2
1695.43	n/a	PROB	847715	n/a	LTP293	ltpFR2	7	n/a	n/a	n/a	12	16	5	9	2
1696.88	n/a	PROB	848440	n/a	LTP293	ltpFR2	7	n/a	n/a	n/a	12	9	1	1	7
1698.398	n/a	PROB	849199	n/a	LTP293	ltpFR2	7	n/a	n/a	n/a	12	17	6	8	3
1701.516	n/a	PROB	850758	n/a	LTP293	ltpFR2	7	n/a	n/a	n/a	12	15	2	4	9
1702.756	n/a	STOP	851378	n/a	LTP293	ltpFR2	7	n/a	n/a	n/a	12	n/a	n/a	n/a	n/a
1705.47	n/a	REC_START	852735	n/a	LTP293	ltpFR2	7	8	n/a	n/a	n/a	n/a	0	0	0
1706.418	n/a	REC_WORD	853209	wordpools/wasnorm_wordpool_576.txt	LTP293	ltpFR2	7	8	HOUND	724	n/a	n/a	0	0	0
1707.54	n/a	REC_WORD	853770	wordpools/wasnorm_wordpool_576.txt	LTP293	ltpFR2	7	8	FLEET	578	n/a	n/a	0	0	0
1708.774	n/a	REC_WORD	854387	wordpools/wasnorm_wordpool_576.txt	LTP293	ltpFR2	7	8	BACON	67	n/a	n/a	0	0	0
1709.93	n/a	REC_WORD	854965	wordpools/wasnorm_wordpool_576.txt	LTP293	ltpFR2	7	8	OMELET	976	n/a	n/a	0	0	0
1711.006	n/a	REC_WORD	855503	wordpools/wasnorm_wordpool_576.txt	LTP293	ltpFR2	7	8	PRINCESS	1125	n/a	n/a	0	0	0
1712.29	n/a	REC_WORD	856145	wordpools/wasnorm_wordpool_576.txt	LTP293	ltpFR2	7	8	QUEEN	1149	n/a	n/a	0	0	0
1713.476	n/a	REC_WORD	856738	wordpools/wasnorm_wordpool_576.txt	LTP293	ltpFR2	7	8	SKETCH	1315	n/a	n/a	0	0	0
1718.558	n/a	REC_WORD	859279	wordpools/wasnorm_wordpool_576.txt	LTP293	ltpFR2	7	8	ROBBER	1197	n/a	n/a	0	0	0
1720.864	n/a	REC_WORD	860432	wordpools/wasnorm_wordpool_576.txt	LTP293	ltpFR2	7	8	RUG	1215	n/a	n/a	0	0	0
1723.514	n/a	REC_WORD	861757	wordpools/wasnorm_wordpool_576.txt	LTP293	ltpFR2	7	8	PICNIC	1060	n/a	n/a	0	0	0
1724.734	n/a	REC_WORD	862367	wordpools/wasnorm_wordpool_576.txt	LTP293	ltpFR2	7	8	TEACHER	1440	n/a	n/a	0	0	0
1725.97	n/a	REC_WORD	862985	wordpools/wasnorm_wordpool_576.txt	LTP293	ltpFR2	7	8	PUPIL	1143	n/a	n/a	0	0	0
1742.898	n/a	REC_WORD	871449	wordpools/wasnorm_wordpool_576.txt	LTP293	ltpFR2	7	8	ICING	732	n/a	n/a	0	0	0
1782.036	n/a	REST_REWET	891018	n/a	LTP293	ltpFR2	7	8	n/a	n/a	n/a	n/a	0	0	0
2173.036	n/a	DISTRACTOR	1086518	n/a	LTP293	ltpFR2	7	9	n/a	n/a	n/a	n/a	0	0	0
2173.036	n/a	START	1086518	n/a	LTP293	ltpFR2	7	n/a	n/a	n/a	13	n/a	n/a	n/a	n/a
2173.07	n/a	PROB	1086535	n/a	LTP293	ltpFR2	7	n/a	n/a	n/a	13	11	4	3	4
2174.42	n/a	PROB	1087210	n/a	LTP293	ltpFR2	7	n/a	n/a	n/a	13	13	4	2	7
2175.62	n/a	PROB	1087810	n/a	LTP293	ltpFR2	7	n/a	n/a	n/a	13	16	8	2	6
2178.24	n/a	PROB	1089120	n/a	LTP293	ltpFR2	7	n/a	n/a	n/a	13	15	7	2	6
2179.522	n/a	PROB	1089761	n/a	LTP293	ltpFR2	7	n/a	n/a	n/a	13	20	9	6	5
2180.674	n/a	PROB	1090337	n/a	LTP293	ltpFR2	7	n/a	n/a	n/a	13	19	1	9	9
2182.01	n/a	PROB	1091005	n/a	LTP293	ltpFR2	7	n/a	n/a	n/a	13	14	4	7	3
2183.728	n/a	PROB	1091864	n/a	LTP293	ltpFR2	7	n/a	n/a	n/a	13	17	5	3	9
2184.896	n/a	PROB	1092448	n/a	LTP293	ltpFR2	7	n/a	n/a	n/a	13	18	9	6	3
2185.98	n/a	PROB	1092990	n/a	LTP293	ltpFR2	7	n/a	n/a	n/a	13	12	2	9	1
2187.064	n/a	PROB	1093532	n/a	LTP293	ltpFR2	7	n/a	n/a	n/a	13	9	5	1	3
2189.266	n/a	PROB	1094633	n/a	LTP293	ltpFR2	7	n/a	n/a	n/a	13	14	3	7	4
2191.084	n/a	PROB	1095542	n/a	LTP293	ltpFR2	7	n/a	n/a	n/a	13	14	6	1	7
2192.65	n/a	PROB	1096325	n/a	LTP293	ltpFR2	7	n/a	n/a	n/a	13	7	2	1	4
2193.702	n/a	PROB	1096851	n/a	LTP293	ltpFR2	7	n/a	n/a	n/a	13	6	1	3	2
2194.904	n/a	PROB	1097452	n/a	LTP293	ltpFR2	7	n/a	n/a	n/a	13	17	4	7	6
2196.374	n/a	STOP	1098187	n/a	LTP293	ltpFR2	7	n/a	n/a	n/a	13	n/a	n/a	n/a	n/a
2198.04	n/a	WORD	1099020	wordpools/wasnorm_wordpool_576.txt	LTP293	ltpFR2	7	9	CABBAGE	210	n/a	n/a	0	0	0
2200.574	n/a	WORD	1100287	wordpools/wasnorm_wordpool_576.txt	LTP293	ltpFR2	7	9	MILDEW	893	n/a	n/a	0	0	0
2203.194	n/a	WORD	1101597	wordpools/wasnorm_wordpool_576.txt	LTP293	ltpFR2	7	9	BOUQUET	157	n/a	n/a	0	0	0
2205.714	n/a	WORD	1102857	wordpools/wasnorm_wordpool_576.txt	LTP293	ltpFR2	7	9	SISTER	1312	n/a	n/a	0	0	0
2208.348	n/a	WORD	1104174	wordpools/wasnorm_wordpool_576.txt	LTP293	ltpFR2	7	9	SHERIFF	1284	n/a	n/a	0	0	0
2211.102	n/a	WORD	1105551	wordpools/wasnorm_wordpool_576.txt	LTP293	ltpFR2	7	9	SALMON	1227	n/a	n/a	0	0	0
2213.62	n/a	WORD	1106810	wordpools/wasnorm_wordpool_576.txt	LTP293	ltpFR2	7	9	RIVER	1194	n/a	n/a	0	0	0
2216.39	n/a	WORD	1108195	wordpools/wasnorm_wordpool_576.txt	LTP293	ltpFR2	7	9	CORAL	378	n/a	n/a	0	0	0
2219.158	n/a	WORD	1109579	wordpools/wasnorm_wordpool_576.txt	LTP293	ltpFR2	7	9	SERVER	1272	n/a	n/a	0	0	0
2221.794	n/a	WORD	1110897	wordpools/wasnorm_wordpool_576.txt	LTP293	ltpFR2	7	9	WAITRESS	1581	n/a	n/a	0	0	0
2224.61	n/a	WORD	1112305	wordpools/wasnorm_wordpool_576.txt	LTP293	ltpFR2	7	9	EUROPE	541	n/a	n/a	0	0	0
2227.198	n/a	WORD	1113599	wordpools/wasnorm_wordpool_576.txt	LTP293	ltpFR2	7	9	RIFLE	1192	n/a	n/a	0	0	0
2229.934	n/a	WORD	1114967	wordpools/wasnorm_wordpool_576.txt	LTP293	ltpFR2	7	9	ELBOW	520	n/a	n/a	0	0	0
2232.386	n/a	WORD	1116193	wordpools/wasnorm_wordpool_576.txt	LTP293	ltpFR2	7	9	VALLEY	1545	n/a	n/a	0	0	0
2235.154	n/a	WORD	1117577	wordpools/wasnorm_wordpool_576.txt	LTP293	ltpFR2	7	9	CROWN	415	n/a	n/a	0	0	0
2237.606	n/a	WORD	1118803	wordpools/wasnorm_wordpool_576.txt	LTP293	ltpFR2	7	9	STICKER	1382	n/a	n/a	0	0	0
2240.276	n/a	WORD	1120138	wordpools/wasnorm_wordpool_576.txt	LTP293	ltpFR2	7	9	LOFT	840	n/a	n/a	0	0	0
2243.112	n/a	WORD	1121556	wordpools/wasnorm_wordpool_576.txt	LTP293	ltpFR2	7	9	FRIAR	605	n/a	n/a	0	0	0
2245.814	n/a	WORD	1122907	wordpools/wasnorm_wordpool_576.txt	LTP293	ltpFR2	7	9	SWAMP	1416	n/a	n/a	0	0	0
2248.648	n/a	WORD	1124324	wordpools/wasnorm_wordpool_576.txt	LTP293	ltpFR2	7	9	BLOUSE	139	n/a	n/a	0	0	0
2251.286	n/a	WORD	1125643	wordpools/wasnorm_wordpool_576.txt	LTP293	ltpFR2	7	9	STAPLE	1371	n/a	n/a	0	0	0
2254.104	n/a	WORD	1127052	wordpools/wasnorm_wordpool_576.txt	LTP293	ltpFR2	7	9	BINDER	127	n/a	n/a	0	0	0
2256.856	n/a	WORD	1128428	wordpools/wasnorm_wordpool_576.txt	LTP293	ltpFR2	7	9	SKIRT	1319	n/a	n/a	0	0	0
2259.558	n/a	WORD	1129779	wordpools/wasnorm_wordpool_576.txt	LTP293	ltpFR2	7	9	BROOK	177	n/a	n/a	0	0	0
2261.178	n/a	START	1130589	n/a	LTP293	ltpFR2	7	n/a	n/a	n/a	14	n/a	n/a	n/a	n/a
2262.184	n/a	DISTRACTOR	1131092	n/a	LTP293	ltpFR2	7	9	n/a	n/a	n/a	n/a	0	0	0
2262.212	n/a	PROB	1131106	n/a	LTP293	ltpFR2	7	n/a	n/a	n/a	14	26	7	7	8
2263.862	n/a	PROB	1131931	n/a	LTP293	ltpFR2	7	n/a	n/a	n/a	14	14	4	5	5
2265.214	n/a	PROB	1132607	n/a	LTP293	ltpFR2	7	n/a	n/a	n/a	14	9	1	1	7
2266.182	n/a	PROB	1133091	n/a	LTP293	ltpFR2	7	n/a	n/a	n/a	14	17	7	6	4
2267.232	n/a	PROB	1133616	n/a	LTP293	ltpFR2	7	n/a	n/a	n/a	14	22	9	8	5
2269.168	n/a	PROB	1134584	n/a	LTP293	ltpFR2	7	n/a	n/a	n/a	14	5	2	2	1
2270.102	n/a	PROB	1135051	n/a	LTP293	ltpFR2	7	n/a	n/a	n/a	14	17	8	1	8
2272.17	n/a	PROB	1136085	n/a	LTP293	ltpFR2	7	n/a	n/a	n/a	14	8	6	1	1
2273.036	n/a	PROB	1136518	n/a	LTP293	ltpFR2	7	n/a	n/a	n/a	14	16	3	4	9
2274.054	n/a	PROB	1137027	n/a	LTP293	ltpFR2	7	n/a	n/a	n/a	14	10	3	6	1
2275.422	n/a	PROB	1137711	n/a	LTP293	ltpFR2	7	n/a	n/a	n/a	14	22	6	8	8
2277.572	n/a	PROB	1138786	n/a	LTP293	ltpFR2	7	n/a	n/a	n/a	14	24	9	6	9
2279.142	n/a	PROB	1139571	n/a	LTP293	ltpFR2	7	n/a	n/a	n/a	14	11	6	3	2
2280.794	n/a	PROB	1140397	n/a	LTP293	ltpFR2	7	n/a	n/a	n/a	14	19	9	4	6
2282.294	n/a	PROB	1141147	n/a	LTP293	ltpFR2	7	n/a	n/a	n/a	14	22	9	5	8
2283.644	n/a	PROB	1141822	n/a	LTP293	ltpFR2	7	n/a	n/a	n/a	14	14	6	5	3
2284.816	n/a	STOP	1142408	n/a	LTP293	ltpFR2	7	n/a	n/a	n/a	14	n/a	n/a	n/a	n/a
2286.95	n/a	REC_START	1143475	n/a	LTP293	ltpFR2	7	9	n/a	n/a	n/a	n/a	0	0	0
2287.604	n/a	REC_WORD	1143802	wordpools/wasnorm_wordpool_576.txt	LTP293	ltpFR2	7	9	FRIAR	605	n/a	n/a	0	0	0
2288.774	n/a	REC_WORD	1144387	wordpools/wasnorm_wordpool_576.txt	LTP293	ltpFR2	7	9	BLOUSE	139	n/a	n/a	0	0	0
2290.14	n/a	REC_WORD	1145070	wordpools/wasnorm_wordpool_576.txt	LTP293	ltpFR2	7	9	SALMON	1227	n/a	n/a	0	0	0
2291.312	n/a	REC_WORD	1145656	wordpools/wasnorm_wordpool_576.txt	LTP293	ltpFR2	7	9	RIVER	1194	n/a	n/a	0	0	0
2292.548	n/a	REC_WORD	1146274	wordpools/wasnorm_wordpool_576.txt	LTP293	ltpFR2	7	9	SWAMP	1416	n/a	n/a	0	0	0
2293.822	n/a	REC_WORD	1146911	wordpools/wasnorm_wordpool_576.txt	LTP293	ltpFR2	7	9	BROOK	177	n/a	n/a	0	0	0
2296.144	n/a	REC_WORD	1148072	wordpools/wasnorm_wordpool_576.txt	LTP293	ltpFR2	7	9	MILDEW	893	n/a	n/a	0	0	0
2297.388	n/a	REC_WORD	1148694	wordpools/wasnorm_wordpool_576.txt	LTP293	ltpFR2	7	9	CABBAGE	210	n/a	n/a	0	0	0
2298.708	n/a	REC_WORD	1149354	wordpools/wasnorm_wordpool_576.txt	LTP293	ltpFR2	7	9	SISTER	1312	n/a	n/a	0	0	0
2299.95	n/a	REC_WORD	1149975	wordpools/wasnorm_wordpool_576.txt	LTP293	ltpFR2	7	9	STICKER	1382	n/a	n/a	0	0	0
2301.924	n/a	REC_WORD	1150962	wordpools/wasnorm_wordpool_576.txt	LTP293	ltpFR2	7	9	LOFT	840	n/a	n/a	0	0	0
2305.612	n/a	REC_WORD	1152806	wordpools/wasnorm_wordpool_576.txt	LTP293	ltpFR2	7	9	SHERIFF	1284	n/a	n/a	0	0	0
2338.54	n/a	REC_WORD	1169270	wordpools/wasnorm_wordpool_576.txt	LTP293	ltpFR2	7	9	VALLEY	1545	n/a	n/a	0	0	0
2377.426	n/a	WORD	1188713	wordpools/wasnorm_wordpool_576.txt	LTP293	ltpFR2	7	10	VAGRANT	1544	n/a	n/a	0	0	0
2380.178	n/a	WORD	1190089	wordpools/wasnorm_wordpool_576.txt	LTP293	ltpFR2	7	10	NOMAD	955	n/a	n/a	0	0	0
2382.964	n/a	WORD	1191482	wordpools/wasnorm_wordpool_576.txt	LTP293	ltpFR2	7	10	PIGEON	1065	n/a	n/a	0	0	0
2385.682	n/a	WORD	1192841	wordpools/wasnorm_wordpool_576.txt	LTP293	ltpFR2	7	10	PLAID	1080	n/a	n/a	0	0	0
2388.134	n/a	WORD	1194067	wordpools/wasnorm_wordpool_576.txt	LTP293	ltpFR2	7	10	LAPEL	800	n/a	n/a	0	0	0
2390.92	n/a	WORD	1195460	wordpools/wasnorm_wordpool_576.txt	LTP293	ltpFR2	7	10	COWBOY	395	n/a	n/a	0	0	0
2393.622	n/a	WORD	1196811	wordpools/wasnorm_wordpool_576.txt	LTP293	ltpFR2	7	10	PISTOL	1075	n/a	n/a	0	0	0
2396.426	n/a	WORD	1198213	wordpools/wasnorm_wordpool_576.txt	LTP293	ltpFR2	7	10	CHEMIST	292	n/a	n/a	0	0	0
2399.078	n/a	WORD	1199539	wordpools/wasnorm_wordpool_576.txt	LTP293	ltpFR2	7	10	BEAKER	104	n/a	n/a	0	0	0
2401.764	n/a	WORD	1200882	wordpools/wasnorm_wordpool_576.txt	LTP293	ltpFR2	7	10	BRICK	172	n/a	n/a	0	0	0
2404.45	n/a	WORD	1202225	wordpools/wasnorm_wordpool_576.txt	LTP293	ltpFR2	7	10	BUGGY	188	n/a	n/a	0	0	0
2406.984	n/a	WORD	1203492	wordpools/wasnorm_wordpool_576.txt	LTP293	ltpFR2	7	10	TUTU	1524	n/a	n/a	0	0	0
2409.804	n/a	WORD	1204902	wordpools/wasnorm_wordpool_576.txt	LTP293	ltpFR2	7	10	FOOT	590	n/a	n/a	0	0	0
2412.622	n/a	WORD	1206311	wordpools/wasnorm_wordpool_576.txt	LTP293	ltpFR2	7	10	CRATER	400	n/a	n/a	0	0	0
2415.392	n/a	WORD	1207696	wordpools/wasnorm_wordpool_576.txt	LTP293	ltpFR2	7	10	CASHEW	253	n/a	n/a	0	0	0
2417.926	n/a	WORD	1208963	wordpools/wasnorm_wordpool_576.txt	LTP293	ltpFR2	7	10	CARRIAGE	248	n/a	n/a	0	0	0
2420.678	n/a	WORD	1210339	wordpools/wasnorm_wordpool_576.txt	LTP293	ltpFR2	7	10	YACHT	1629	n/a	n/a	0	0	0
2423.348	n/a	WORD	1211674	wordpools/wasnorm_wordpool_576.txt	LTP293	ltpFR2	7	10	PRIMATE	1123	n/a	n/a	0	0	0
2425.784	n/a	WORD	1212892	wordpools/wasnorm_wordpool_576.txt	LTP293	ltpFR2	7	10	OX	994	n/a	n/a	0	0	0
2428.452	n/a	WORD	1214226	wordpools/wasnorm_wordpool_576.txt	LTP293	ltpFR2	7	10	MACHINE	852	n/a	n/a	0	0	0
2430.938	n/a	WORD	1215469	wordpools/wasnorm_wordpool_576.txt	LTP293	ltpFR2	7	10	ROBIN	1199	n/a	n/a	0	0	0
2433.456	n/a	WORD	1216728	wordpools/wasnorm_wordpool_576.txt	LTP293	ltpFR2	7	10	NIGHTGOWN	953	n/a	n/a	0	0	0
2435.992	n/a	WORD	1217996	wordpools/wasnorm_wordpool_576.txt	LTP293	ltpFR2	7	10	BLENDER	136	n/a	n/a	0	0	0
2438.644	n/a	WORD	1219322	wordpools/wasnorm_wordpool_576.txt	LTP293	ltpFR2	7	10	PEANUT	1032	n/a	n/a	0	0	0
2440.262	n/a	START	1220131	n/a	LTP293	ltpFR2	7	n/a	n/a	n/a	15	n/a	n/a	n/a	n/a
2441.414	n/a	DISTRACTOR	1220707	n/a	LTP293	ltpFR2	7	10	n/a	n/a	n/a	n/a	0	0	0
2441.43	n/a	PROB	1220715	n/a	LTP293	ltpFR2	7	n/a	n/a	n/a	15	16	8	5	3
2442.464	n/a	PROB	1221232	n/a	LTP293	ltpFR2	7	n/a	n/a	n/a	15	21	8	9	5
2443.898	n/a	PROB	1221949	n/a	LTP293	ltpFR2	7	n/a	n/a	n/a	15	8	2	2	4
2444.866	n/a	PROB	1222433	n/a	LTP293	ltpFR2	7	n/a	n/a	n/a	15	11	6	3	1
2446.466	n/a	PROB	1223233	n/a	LTP293	ltpFR2	7	n/a	n/a	n/a	15	16	4	9	3
2447.87	n/a	PROB	1223935	n/a	LTP293	ltpFR2	7	n/a	n/a	n/a	15	14	1	8	5
2448.97	n/a	PROB	1224485	n/a	LTP293	ltpFR2	7	n/a	n/a	n/a	15	14	1	9	4
2449.97	n/a	PROB	1224985	n/a	LTP293	ltpFR2	7	n/a	n/a	n/a	15	17	3	6	8
2451.056	n/a	PROB	1225528	n/a	LTP293	ltpFR2	7	n/a	n/a	n/a	15	12	4	7	1
2452.172	n/a	PROB	1226086	n/a	LTP293	ltpFR2	7	n/a	n/a	n/a	15	23	9	8	6
2453.456	n/a	PROB	1226728	n/a	LTP293	ltpFR2	7	n/a	n/a	n/a	15	18	7	7	4
2454.49	n/a	PROB	1227245	n/a	LTP293	ltpFR2	7	n/a	n/a	n/a	15	8	1	1	6
2455.308	n/a	PROB	1227654	n/a	LTP293	ltpFR2	7	n/a	n/a	n/a	15	5	1	2	2
2456.244	n/a	PROB	1228122	n/a	LTP293	ltpFR2	7	n/a	n/a	n/a	15	16	4	4	8
2457.328	n/a	PROB	1228664	n/a	LTP293	ltpFR2	7	n/a	n/a	n/a	15	18	8	1	9
2458.51	n/a	PROB	1229255	n/a	LTP293	ltpFR2	7	n/a	n/a	n/a	15	11	9	1	1
2459.93	n/a	PROB	1229965	n/a	LTP293	ltpFR2	7	n/a	n/a	n/a	15	15	8	2	5
2461.198	n/a	PROB	1230599	n/a	LTP293	ltpFR2	7	n/a	n/a	n/a	15	8	4	1	3
2464.262	n/a	STOP	1232131	n/a	LTP293	ltpFR2	7	n/a	n/a	n/a	15	n/a	n/a	n/a	n/a
2466.052	n/a	REC_START	1233026	n/a	LTP293	ltpFR2	7	10	n/a	n/a	n/a	n/a	0	0	0
2467.55	n/a	REC_WORD	1233775	wordpools/wasnorm_wordpool_576.txt	LTP293	ltpFR2	7	10	BLENDER	136	n/a	n/a	0	0	0
2468.636	n/a	REC_WORD	1234318	wordpools/wasnorm_wordpool_576.txt	LTP293	ltpFR2	7	10	NIGHTGOWN	953	n/a	n/a	0	0	0
2469.93	n/a	REC_WORD	1234965	wordpools/wasnorm_wordpool_576.txt	LTP293	ltpFR2	7	10	BRICK	172	n/a	n/a	0	0	0
2471.018	n/a	REC_WORD	1235509	wordpools/wasnorm_wordpool_576.txt	LTP293	ltpFR2	7	10	VAGRANT	1544	n/a	n/a	0	0	0
2472.128	n/a	REC_WORD	1236064	wordpools/wasnorm_wordpool_576.txt	LTP293	ltpFR2	7	10	CHEMIST	292	n/a	n/a	0	0	0
2473.18	n/a	REC_WORD	1236590	wordpools/wasnorm_wordpool_576.txt	LTP293	ltpFR2	7	10	COWBOY	395	n/a	n/a	0	0	0
2474.388	n/a	REC_WORD	1237194	wordpools/wasnorm_wordpool_576.txt	LTP293	ltpFR2	7	10	BEAKER	104	n/a	n/a	0	0	0
2475.892	n/a	REC_WORD	1237946	wordpools/wasnorm_wordpool_576.txt	LTP293	ltpFR2	7	10	CARRIAGE	248	n/a	n/a	0	0	0
2476.972	n/a	REC_WORD	1238486	wordpools/wasnorm_wordpool_576.txt	LTP293	ltpFR2	7	10	BUGGY	188	n/a	n/a	0	0	0
2479.806	n/a	REC_WORD	1239903	wordpools/wasnorm_wordpool_576.txt	LTP293	ltpFR2	7	10	PEANUT	1032	n/a	n/a	0	0	0
2481.032	n/a	REC_WORD	1240516	wordpools/wasnorm_wordpool_576.txt	LTP293	ltpFR2	7	10	CASHEW	253	n/a	n/a	0	0	0
2486.822	n/a	REC_WORD	1243411	wordpools/wasnorm_wordpool_576.txt	LTP293	ltpFR2	7	10	NOMAD	955	n/a	n/a	0	0	0
2487.984	n/a	REC_WORD	1243992	wordpools/wasnorm_wordpool_576.txt	LTP293	ltpFR2	7	10	PLAID	1080	n/a	n/a	0	0	0
2489.58	n/a	REC_WORD	1244790	wordpools/wasnorm_wordpool_576.txt	LTP293	ltpFR2	7	10	PIGEON	1065	n/a	n/a	0	0	0
2500.824	n/a	REC_WORD	1250412	wordpools/wasnorm_wordpool_576.txt	LTP293	ltpFR2	7	10	YACHT	1629	n/a	n/a	0	0	0
2556.494	n/a	DISTRACTOR	1278247	n/a	LTP293	ltpFR2	7	11	n/a	n/a	n/a	n/a	0	0	0
2556.494	n/a	START	1278247	n/a	LTP293	ltpFR2	7	n/a	n/a	n/a	16	n/a	n/a	n/a	n/a
2556.51	n/a	PROB	1278255	n/a	LTP293	ltpFR2	7	n/a	n/a	n/a	16	18	8	2	8
2558.146	n/a	PROB	1279073	n/a	LTP293	ltpFR2	7	n/a	n/a	n/a	16	13	5	7	1
2559.748	n/a	PROB	1279874	n/a	LTP293	ltpFR2	7	n/a	n/a	n/a	16	18	6	9	3
2560.798	n/a	PROB	1280399	n/a	LTP293	ltpFR2	7	n/a	n/a	n/a	16	10	2	7	1
2561.848	n/a	PROB	1280924	n/a	LTP293	ltpFR2	7	n/a	n/a	n/a	16	8	1	6	1
2562.666	n/a	PROB	1281333	n/a	LTP293	ltpFR2	7	n/a	n/a	n/a	16	14	4	1	9
2563.8	n/a	PROB	1281900	n/a	LTP293	ltpFR2	7	n/a	n/a	n/a	16	14	3	6	5
2565.002	n/a	PROB	1282501	n/a	LTP293	ltpFR2	7	n/a	n/a	n/a	16	21	5	8	8
2566.67	n/a	PROB	1283335	n/a	LTP293	ltpFR2	7	n/a	n/a	n/a	16	17	8	6	3
2567.904	n/a	PROB	1283952	n/a	LTP293	ltpFR2	7	n/a	n/a	n/a	16	6	2	1	3
2569.038	n/a	PROB	1284519	n/a	LTP293	ltpFR2	7	n/a	n/a	n/a	16	15	8	3	4
2570.106	n/a	PROB	1285053	n/a	LTP293	ltpFR2	7	n/a	n/a	n/a	16	12	1	9	2
2571.074	n/a	PROB	1285537	n/a	LTP293	ltpFR2	7	n/a	n/a	n/a	16	19	4	8	7
2572.342	n/a	PROB	1286171	n/a	LTP293	ltpFR2	7	n/a	n/a	n/a	16	18	2	7	9
2573.342	n/a	PROB	1286671	n/a	LTP293	ltpFR2	7	n/a	n/a	n/a	16	18	8	5	5
2574.342	n/a	PROB	1287171	n/a	LTP293	ltpFR2	7	n/a	n/a	n/a	16	21	8	6	7
2576.244	n/a	PROB	1288122	n/a	LTP293	ltpFR2	7	n/a	n/a	n/a	16	6	3	2	1
2577.078	n/a	PROB	1288539	n/a	LTP293	ltpFR2	7	n/a	n/a	n/a	16	9	1	7	1
2578.08	n/a	PROB	1289040	n/a	LTP293	ltpFR2	7	n/a	n/a	n/a	16	16	4	3	9
2579.052	n/a	STOP	1289526	n/a	LTP293	ltpFR2	7	n/a	n/a	n/a	16	n/a	n/a	n/a	n/a
2581.598	n/a	WORD	1290799	wordpools/wasnorm_wordpool_576.txt	LTP293	ltpFR2	7	11	HONEY	713	n/a	n/a	0	0	0
2584.118	n/a	WORD	1292059	wordpools/wasnorm_wordpool_576.txt	LTP293	ltpFR2	7	11	TREAT	1501	n/a	n/a	0	0	0
2586.788	n/a	WORD	1293394	wordpools/wasnorm_wordpool_576.txt	LTP293	ltpFR2	7	11	PADDING	999	n/a	n/a	0	0	0
2589.506	n/a	WORD	1294753	wordpools/wasnorm_wordpool_576.txt	LTP293	ltpFR2	7	11	ORANGE	980	n/a	n/a	0	0	0
2591.992	n/a	WORD	1295996	wordpools/wasnorm_wordpool_576.txt	LTP293	ltpFR2	7	11	SHORTCAKE	1292	n/a	n/a	0	0	0
2594.678	n/a	WORD	1297339	wordpools/wasnorm_wordpool_576.txt	LTP293	ltpFR2	7	11	SCOTCH	1251	n/a	n/a	0	0	0
2597.396	n/a	WORD	1298698	wordpools/wasnorm_wordpool_576.txt	LTP293	ltpFR2	7	11	SALAD	1224	n/a	n/a	0	0	0
2600.132	n/a	WORD	1300066	wordpools/wasnorm_wordpool_576.txt	LTP293	ltpFR2	7	11	RADISH	1158	n/a	n/a	0	0	0
2602.6	n/a	WORD	1301300	wordpools/wasnorm_wordpool_576.txt	LTP293	ltpFR2	7	11	CAPTIVE	240	n/a	n/a	0	0	0
2605.07	n/a	WORD	1302535	wordpools/wasnorm_wordpool_576.txt	LTP293	ltpFR2	7	11	DUST	508	n/a	n/a	0	0	0
2607.722	n/a	WORD	1303861	wordpools/wasnorm_wordpool_576.txt	LTP293	ltpFR2	7	11	BANK	83	n/a	n/a	0	0	0
2610.156	n/a	WORD	1305078	wordpools/wasnorm_wordpool_576.txt	LTP293	ltpFR2	7	11	POET	1095	n/a	n/a	0	0	0
2612.908	n/a	WORD	1306454	wordpools/wasnorm_wordpool_576.txt	LTP293	ltpFR2	7	11	RABBIT	1152	n/a	n/a	0	0	0
2615.46	n/a	WORD	1307730	wordpools/wasnorm_wordpool_576.txt	LTP293	ltpFR2	7	11	STOVE	1388	n/a	n/a	0	0	0
2618.064	n/a	WORD	1309032	wordpools/wasnorm_wordpool_576.txt	LTP293	ltpFR2	7	11	SPOON	1357	n/a	n/a	0	0	0
2620.632	n/a	WORD	1310316	wordpools/wasnorm_wordpool_576.txt	LTP293	ltpFR2	7	11	WARDROBE	1587	n/a	n/a	0	0	0
2623.102	n/a	WORD	1311551	wordpools/wasnorm_wordpool_576.txt	LTP293	ltpFR2	7	11	CITRUS	313	n/a	n/a	0	0	0
2625.552	n/a	WORD	1312776	wordpools/wasnorm_wordpool_576.txt	LTP293	ltpFR2	7	11	FOREST	593	n/a	n/a	0	0	0
2628.306	n/a	WORD	1314153	wordpools/wasnorm_wordpool_576.txt	LTP293	ltpFR2	7	11	SCALLOP	1242	n/a	n/a	0	0	0
2630.792	n/a	WORD	1315396	wordpools/wasnorm_wordpool_576.txt	LTP293	ltpFR2	7	11	OUTLAW	989	n/a	n/a	0	0	0
2633.41	n/a	WORD	1316705	wordpools/wasnorm_wordpool_576.txt	LTP293	ltpFR2	7	11	DRESS	495	n/a	n/a	0	0	0
2636.146	n/a	WORD	1318073	wordpools/wasnorm_wordpool_576.txt	LTP293	ltpFR2	7	11	COCKTAIL	338	n/a	n/a	0	0	0
2638.882	n/a	WORD	1319441	wordpools/wasnorm_wordpool_576.txt	LTP293	ltpFR2	7	11	SADDLE	1221	n/a	n/a	0	0	0
2641.7	n/a	WORD	1320850	wordpools/wasnorm_wordpool_576.txt	LTP293	ltpFR2	7	11	FUNGUS	614	n/a	n/a	0	0	0
2643.318	n/a	START	1321659	n/a	LTP293	ltpFR2	7	n/a	n/a	n/a	17	n/a	n/a	n/a	n/a
2644.31	n/a	DISTRACTOR	1322155	n/a	LTP293	ltpFR2	7	11	n/a	n/a	n/a	n/a	0	0	0
2644.336	n/a	PROB	1322168	n/a	LTP293	ltpFR2	7	n/a	n/a	n/a	17	16	8	6	2
2645.486	n/a	PROB	1322743	n/a	LTP293	ltpFR2	7	n/a	n/a	n/a	17	24	6	9	9
2646.888	n/a	PROB	1323444	n/a	LTP293	ltpFR2	7	n/a	n/a	n/a	17	24	7	9	8
2649.19	n/a	PROB	1324595	n/a	LTP293	ltpFR2	7	n/a	n/a	n/a	17	17	6	6	5
2650.358	n/a	PROB	1325179	n/a	LTP293	ltpFR2	7	n/a	n/a	n/a	17	13	1	7	5
2651.624	n/a	PROB	1325812	n/a	LTP293	ltpFR2	7	n/a	n/a	n/a	17	14	1	9	4
2652.894	n/a	PROB	1326447	n/a	LTP293	ltpFR2	7	n/a	n/a	n/a	17	11	4	3	4
2654.344	n/a	PROB	1327172	n/a	LTP293	ltpFR2	7	n/a	n/a	n/a	17	17	8	1	8
2655.478	n/a	PROB	1327739	n/a	LTP293	ltpFR2	7	n/a	n/a	n/a	17	22	8	6	7
2657.746	n/a	PROB	1328873	n/a	LTP293	ltpFR2	7	n/a	n/a	n/a	17	14	1	5	8
2659.248	n/a	PROB	1329624	n/a	LTP293	ltpFR2	7	n/a	n/a	n/a	17	18	4	7	7
2660.266	n/a	PROB	1330133	n/a	LTP293	ltpFR2	7	n/a	n/a	n/a	17	10	1	8	1
2661.316	n/a	PROB	1330658	n/a	LTP293	ltpFR2	7	n/a	n/a	n/a	17	21	5	7	8
2663.002	n/a	PROB	1331501	n/a	LTP293	ltpFR2	7	n/a	n/a	n/a	17	10	1	5	4
2664.17	n/a	PROB	1332085	n/a	LTP293	ltpFR2	7	n/a	n/a	n/a	17	13	4	6	3
2665.67	n/a	PROB	1332835	n/a	LTP293	ltpFR2	7	n/a	n/a	n/a	17	12	2	9	1
2666.822	n/a	STOP	1333411	n/a	LTP293	ltpFR2	7	n/a	n/a	n/a	17	n/a	n/a	n/a	n/a
2669.124	n/a	REC_START	1334562	n/a	LTP293	ltpFR2	7	11	n/a	n/a	n/a	n/a	0	0	0
2670.046	n/a	REC_WORD	1335023	wordpools/wasnorm_wordpool_576.txt	LTP293	ltpFR2	7	11	OUTLAW	989	n/a	n/a	0	0	0
2671.008	n/a	REC_WORD	1335504	wordpools/wasnorm_wordpool_576.txt	LTP293	ltpFR2	7	11	SADDLE	1221	n/a	n/a	0	0	0
2672.492	n/a	REC_WORD	1336246	wordpools/wasnorm_wordpool_576.txt	LTP293	ltpFR2	7	11	DRESS	495	n/a	n/a	0	0	0
2673.496	n/a	REC_WORD	1336748	wordpools/wasnorm_wordpool_576.txt	LTP293	ltpFR2	7	11	COCKTAIL	338	n/a	n/a	0	0	0
2674.962	n/a	REC_WORD	1337481	wordpools/wasnorm_wordpool_576.txt	LTP293	ltpFR2	7	11	CITRUS	313	n/a	n/a	0	0	0
2676.106	n/a	REC_WORD	1338053	wordpools/wasnorm_wordpool_576.txt	LTP293	ltpFR2	7	11	ORANGE	980	n/a	n/a	0	0	0
2677.39	n/a	REC_WORD	1338695	wordpools/wasnorm_wordpool_576.txt	LTP293	ltpFR2	7	11	HONEY	713	n/a	n/a	0	0	0
2678.496	n/a	REC_WORD	1339248	wordpools/wasnorm_wordpool_576.txt	LTP293	ltpFR2	7	11	TREAT	1501	n/a	n/a	0	0	0
2679.532	n/a	REC_WORD	1339766	wordpools/wasnorm_wordpool_576.txt	LTP293	ltpFR2	7	11	SPOON	1357	n/a	n/a	0	0	0
2680.638	n/a	REC_WORD	1340319	wordpools/wasnorm_wordpool_576.txt	LTP293	ltpFR2	7	11	SCALLOP	1242	n/a	n/a	0	0	0
2681.838	n/a	REC_WORD	1340919	wordpools/wasnorm_wordpool_576.txt	LTP293	ltpFR2	7	11	STOVE	1388	n/a	n/a	0	0	0
2683.508	n/a	REC_WORD	1341754	wordpools/wasnorm_wordpool_576.txt	LTP293	ltpFR2	7	11	SHORTCAKE	1292	n/a	n/a	0	0	0
2759.632	n/a	WORD	1379816	wordpools/wasnorm_wordpool_576.txt	LTP293	ltpFR2	7	12	TILE	1468	n/a	n/a	0	0	0
2762.386	n/a	WORD	1381193	wordpools/wasnorm_wordpool_576.txt	LTP293	ltpFR2	7	12	TYPIST	1532	n/a	n/a	0	0	0
2764.954	n/a	WORD	1382477	wordpools/wasnorm_wordpool_576.txt	LTP293	ltpFR2	7	12	DORM	488	n/a	n/a	0	0	0
2767.758	n/a	WORD	1383879	wordpools/wasnorm_wordpool_576.txt	LTP293	ltpFR2	7	12	MAILMAN	858	n/a	n/a	0	0	0
2770.442	n/a	WORD	1385221	wordpools/wasnorm_wordpool_576.txt	LTP293	ltpFR2	7	12	MARSH	874	n/a	n/a	0	0	0
2773.062	n/a	WORD	1386531	wordpools/wasnorm_wordpool_576.txt	LTP293	ltpFR2	7	12	CREATURE	403	n/a	n/a	0	0	0
2775.748	n/a	WORD	1387874	wordpools/wasnorm_wordpool_576.txt	LTP293	ltpFR2	7	12	CHIPMUNK	304	n/a	n/a	0	0	0
2778.25	n/a	WORD	1389125	wordpools/wasnorm_wordpool_576.txt	LTP293	ltpFR2	7	12	HAWK	692	n/a	n/a	0	0	0
2781.036	n/a	WORD	1390518	wordpools/wasnorm_wordpool_576.txt	LTP293	ltpFR2	7	12	BATHTUB	100	n/a	n/a	0	0	0
2783.772	n/a	WORD	1391886	wordpools/wasnorm_wordpool_576.txt	LTP293	ltpFR2	7	12	BRIEFCASE	175	n/a	n/a	0	0	0
2786.44	n/a	WORD	1393220	wordpools/wasnorm_wordpool_576.txt	LTP293	ltpFR2	7	12	SERVANT	1271	n/a	n/a	0	0	0
2789.126	n/a	WORD	1394563	wordpools/wasnorm_wordpool_576.txt	LTP293	ltpFR2	7	12	TRIBE	1505	n/a	n/a	0	0	0
2791.744	n/a	WORD	1395872	wordpools/wasnorm_wordpool_576.txt	LTP293	ltpFR2	7	12	BOARD	143	n/a	n/a	0	0	0
2794.496	n/a	WORD	1397248	wordpools/wasnorm_wordpool_576.txt	LTP293	ltpFR2	7	12	SILK	1307	n/a	n/a	0	0	0
2797.082	n/a	WORD	1398541	wordpools/wasnorm_wordpool_576.txt	LTP293	ltpFR2	7	12	GHETTO	633	n/a	n/a	0	0	0
2799.568	n/a	WORD	1399784	wordpools/wasnorm_wordpool_576.txt	LTP293	ltpFR2	7	12	WAGON	1578	n/a	n/a	0	0	0
2802.12	n/a	WORD	1401060	wordpools/wasnorm_wordpool_576.txt	LTP293	ltpFR2	7	12	GAVEL	627	n/a	n/a	0	0	0
2804.672	n/a	WORD	1402336	wordpools/wasnorm_wordpool_576.txt	LTP293	ltpFR2	7	12	RAZOR	1171	n/a	n/a	0	0	0
2807.408	n/a	WORD	1403704	wordpools/wasnorm_wordpool_576.txt	LTP293	ltpFR2	7	12	SCISSORS	1250	n/a	n/a	0	0	0
2810.11	n/a	WORD	1405055	wordpools/wasnorm_wordpool_576.txt	LTP293	ltpFR2	7	12	BLADE	134	n/a	n/a	0	0	0
2812.662	n/a	WORD	1406331	wordpools/wasnorm_wordpool_576.txt	LTP293	ltpFR2	7	12	CUSTARD	429	n/a	n/a	0	0	0
2815.18	n/a	WORD	1407590	wordpools/wasnorm_wordpool_576.txt	LTP293	ltpFR2	7	12	SAUSAGE	1238	n/a	n/a	0	0	0
2817.966	n/a	WORD	1408983	wordpools/wasnorm_wordpool_576.txt	LTP293	ltpFR2	7	12	SWIMMER	1420	n/a	n/a	0	0	0
2820.686	n/a	WORD	1410343	wordpools/wasnorm_wordpool_576.txt	LTP293	ltpFR2	7	12	QUAIL	1147	n/a	n/a	0	0	0
2822.304	n/a	START	1411152	n/a	LTP293	ltpFR2	7	n/a	n/a	n/a	18	n/a	n/a	n/a	n/a
2823.136	n/a	DISTRACTOR	1411568	n/a	LTP293	ltpFR2	7	12	n/a	n/a	n/a	n/a	0	0	0
2823.154	n/a	PROB	1411577	n/a	LTP293	ltpFR2	7	n/a	n/a	n/a	18	16	1	9	6
2824.188	n/a	PROB	1412094	n/a	LTP293	ltpFR2	7	n/a	n/a	n/a	18	15	8	3	4
2825.29	n/a	PROB	1412645	n/a	LTP293	ltpFR2	7	n/a	n/a	n/a	18	20	3	9	8
2826.908	n/a	PROB	1413454	n/a	LTP293	ltpFR2	7	n/a	n/a	n/a	18	196	8	4	7
2828.524	n/a	PROB	1414262	n/a	LTP293	ltpFR2	7	n/a	n/a	n/a	18	12	4	1	7
2830.41	n/a	PROB	1415205	n/a	LTP293	ltpFR2	7	n/a	n/a	n/a	18	9	4	3	2
2832.196	n/a	PROB	1416098	n/a	LTP293	ltpFR2	7	n/a	n/a	n/a	18	15	9	3	3
2833.58	n/a	PROB	1416790	n/a	LTP293	ltpFR2	7	n/a	n/a	n/a	18	10	4	5	1
2834.882	n/a	PROB	1417441	n/a	LTP293	ltpFR2	7	n/a	n/a	n/a	18	10	6	2	2
2836.1	n/a	PROB	1418050	n/a	LTP293	ltpFR2	7	n/a	n/a	n/a	18	9	4	2	3
2838.034	n/a	PROB	1419017	n/a	LTP293	ltpFR2	7	n/a	n/a	n/a	18	15	4	6	5
2839.152	n/a	PROB	1419576	n/a	LTP293	ltpFR2	7	n/a	n/a	n/a	18	14	6	7	1
2840.636	n/a	PROB	1420318	n/a	LTP293	ltpFR2	7	n/a	n/a	n/a	18	23	9	7	7
2841.82	n/a	PROB	1420910	n/a	LTP293	ltpFR2	7	n/a	n/a	n/a	18	17	8	3	6
2843.84	n/a	PROB	1421920	n/a	LTP293	ltpFR2	7	n/a	n/a	n/a	18	19	8	6	5
2845.442	n/a	STOP	1422721	n/a	LTP293	ltpFR2	7	n/a	n/a	n/a	18	n/a	n/a	n/a	n/a
2848.11	n/a	REC_START	1424055	n/a	LTP293	ltpFR2	7	12	n/a	n/a	n/a	n/a	0	0	0
2848.804	n/a	REC_WORD	1424402	wordpools/wasnorm_wordpool_576.txt	LTP293	ltpFR2	7	12	SWIMMER	1420	n/a	n/a	0	0	0
2850.402	n/a	REC_WORD	1425201	wordpools/wasnorm_wordpool_576.txt	LTP293	ltpFR2	7	12	GHETTO	633	n/a	n/a	0	0	0
2851.908	n/a	REC_WORD	1425954	wordpools/wasnorm_wordpool_576.txt	LTP293	ltpFR2	7	12	BATHTUB	100	n/a	n/a	0	0	0
2853.854	n/a	REC_WORD	1426927	wordpools/wasnorm_wordpool_576.txt	LTP293	ltpFR2	7	12	RAZOR	1171	n/a	n/a	0	0	0
2855.516	n/a	REC_WORD	1427758	wordpools/wasnorm_wordpool_576.txt	LTP293	ltpFR2	7	12	SCISSORS	1250	n/a	n/a	0	0	0
2857.746	n/a	REC_WORD	1428873	wordpools/wasnorm_wordpool_576.txt	LTP293	ltpFR2	7	12	QUAIL	1147	n/a	n/a	0	0	0
2860.654	n/a	REC_WORD	1430327	wordpools/wasnorm_wordpool_576.txt	LTP293	ltpFR2	7	12	MARSH	874	n/a	n/a	0	0	0
2862.004	n/a	REC_WORD	1431002	wordpools/wasnorm_wordpool_576.txt	LTP293	ltpFR2	7	12	GAVEL	627	n/a	n/a	0	0	0
2865.034	n/a	REC_WORD	1432517	wordpools/wasnorm_wordpool_576.txt	LTP293	ltpFR2	7	12	DORM	488	n/a	n/a	0	0	0
2866.956	n/a	REC_WORD	1433478	wordpools/wasnorm_wordpool_576.txt	LTP293	ltpFR2	7	12	TILE	1468	n/a	n/a	0	0	0
2868.272	n/a	REC_WORD	1434136	wordpools/wasnorm_wordpool_576.txt	LTP293	ltpFR2	7	12	TYPIST	1532	n/a	n/a	0	0	0
2869.53	n/a	REC_WORD	1434765	wordpools/wasnorm_wordpool_576.txt	LTP293	ltpFR2	7	12	SERVANT	1271	n/a	n/a	0	0	0
2903.432	n/a	REC_WORD	1451716	wordpools/wasnorm_wordpool_576.txt	LTP293	ltpFR2	7	12	CHIPMUNK	304	n/a	n/a	0	0	0
2904.522	n/a	REC_WORD	1452261	wordpools/wasnorm_wordpool_576.txt	LTP293	ltpFR2	7	12	CREATURE	403	n/a	n/a	0	0	0
2909.172	n/a	REC_WORD	1454586	wordpools/wasnorm_wordpool_576.txt	LTP293	ltpFR2	7	12	HAWK	692	n/a	n/a	0	0	0
2938.736	n/a	DISTRACTOR	1469368	n/a	LTP293	ltpFR2	7	13	n/a	n/a	n/a	n/a	0	0	0
2938.736	n/a	START	1469368	n/a	LTP293	ltpFR2	7	n/a	n/a	n/a	19	n/a	n/a	n/a	n/a
2938.77	n/a	PROB	1469385	n/a	LTP293	ltpFR2	7	n/a	n/a	n/a	19	10	3	2	5
2939.838	n/a	PROB	1469919	n/a	LTP293	ltpFR2	7	n/a	n/a	n/a	19	18	9	3	6
2941.022	n/a	PROB	1470511	n/a	LTP293	ltpFR2	7	n/a	n/a	n/a	19	9	2	3	4
2942.572	n/a	PROB	1471286	n/a	LTP293	ltpFR2	7	n/a	n/a	n/a	19	17	9	5	3
2943.624	n/a	PROB	1471812	n/a	LTP293	ltpFR2	7	n/a	n/a	n/a	19	11	3	6	2
2944.692	n/a	PROB	1472346	n/a	LTP293	ltpFR2	7	n/a	n/a	n/a	19	15	1	6	8
2945.91	n/a	PROB	1472955	n/a	LTP293	ltpFR2	7	n/a	n/a	n/a	19	23	9	6	8
2947.294	n/a	PROB	1473647	n/a	LTP293	ltpFR2	7	n/a	n/a	n/a	19	8	1	5	2
2948.444	n/a	PROB	1474222	n/a	LTP293	ltpFR2	7	n/a	n/a	n/a	19	10	5	4	1
2949.544	n/a	PROB	1474772	n/a	LTP293	ltpFR2	7	n/a	n/a	n/a	19	11	6	4	1
2950.93	n/a	PROB	1475465	n/a	LTP293	ltpFR2	7	n/a	n/a	n/a	19	17	8	6	3
2952.03	n/a	PROB	1476015	n/a	LTP293	ltpFR2	7	n/a	n/a	n/a	19	19	5	7	7
2953.464	n/a	PROB	1476732	n/a	LTP293	ltpFR2	7	n/a	n/a	n/a	19	18	3	6	9
2954.382	n/a	PROB	1477191	n/a	LTP293	ltpFR2	7	n/a	n/a	n/a	19	11	4	3	4
2955.968	n/a	PROB	1477984	n/a	LTP293	ltpFR2	7	n/a	n/a	n/a	19	23	9	6	8
2956.952	n/a	PROB	1478476	n/a	LTP293	ltpFR2	7	n/a	n/a	n/a	19	21	9	9	3
2958.286	n/a	PROB	1479143	n/a	LTP293	ltpFR2	7	n/a	n/a	n/a	19	10	6	1	3
2959.47	n/a	PROB	1479735	n/a	LTP293	ltpFR2	7	n/a	n/a	n/a	19	2	9	7	6
2962.734	n/a	STOP	1481367	n/a	LTP293	ltpFR2	7	n/a	n/a	n/a	19	n/a	n/a	n/a	n/a
2963.924	n/a	WORD	1481962	wordpools/wasnorm_wordpool_576.txt	LTP293	ltpFR2	7	13	ANTLER	29	n/a	n/a	0	0	0
2966.442	n/a	WORD	1483221	wordpools/wasnorm_wordpool_576.txt	LTP293	ltpFR2	7	13	GRAPE	654	n/a	n/a	0	0	0
2969.096	n/a	WORD	1484548	wordpools/wasnorm_wordpool_576.txt	LTP293	ltpFR2	7	13	CIGAR	308	n/a	n/a	0	0	0
2971.648	n/a	WORD	1485824	wordpools/wasnorm_wordpool_576.txt	LTP293	ltpFR2	7	13	PILOT	1070	n/a	n/a	0	0	0
2974.2	n/a	WORD	1487100	wordpools/wasnorm_wordpool_576.txt	LTP293	ltpFR2	7	13	SLIME	1327	n/a	n/a	0	0	0
2977.002	n/a	WORD	1488501	wordpools/wasnorm_wordpool_576.txt	LTP293	ltpFR2	7	13	PARSLEY	1016	n/a	n/a	0	0	0
2979.704	n/a	WORD	1489852	wordpools/wasnorm_wordpool_576.txt	LTP293	ltpFR2	7	13	BLACKBOARD	133	n/a	n/a	0	0	0
2982.224	n/a	WORD	1491112	wordpools/wasnorm_wordpool_576.txt	LTP293	ltpFR2	7	13	SANDWICH	1232	n/a	n/a	0	0	0
2984.692	n/a	WORD	1492346	wordpools/wasnorm_wordpool_576.txt	LTP293	ltpFR2	7	13	GAZELLE	628	n/a	n/a	0	0	0
2987.244	n/a	WORD	1493622	wordpools/wasnorm_wordpool_576.txt	LTP293	ltpFR2	7	13	SHELF	1280	n/a	n/a	0	0	0
2989.83	n/a	WORD	1494915	wordpools/wasnorm_wordpool_576.txt	LTP293	ltpFR2	7	13	JUGGLER	763	n/a	n/a	0	0	0
2992.464	n/a	WORD	1496232	wordpools/wasnorm_wordpool_576.txt	LTP293	ltpFR2	7	13	CHURCH	307	n/a	n/a	0	0	0
2995.234	n/a	WORD	1497617	wordpools/wasnorm_wordpool_576.txt	LTP293	ltpFR2	7	13	PEBBLE	1035	n/a	n/a	0	0	0
2997.936	n/a	WORD	1498968	wordpools/wasnorm_wordpool_576.txt	LTP293	ltpFR2	7	13	BADGE	68	n/a	n/a	0	0	0
3000.404	n/a	WORD	1500202	wordpools/wasnorm_wordpool_576.txt	LTP293	ltpFR2	7	13	OYSTER	995	n/a	n/a	0	0	0
3002.906	n/a	WORD	1501453	wordpools/wasnorm_wordpool_576.txt	LTP293	ltpFR2	7	13	TURTLE	1522	n/a	n/a	0	0	0
3005.376	n/a	WORD	1502688	wordpools/wasnorm_wordpool_576.txt	LTP293	ltpFR2	7	13	KNAPSACK	783	n/a	n/a	0	0	0
3007.894	n/a	WORD	1503947	wordpools/wasnorm_wordpool_576.txt	LTP293	ltpFR2	7	13	HORNET	718	n/a	n/a	0	0	0
3010.648	n/a	WORD	1505324	wordpools/wasnorm_wordpool_576.txt	LTP293	ltpFR2	7	13	CLAM	315	n/a	n/a	0	0	0
3013.432	n/a	WORD	1506716	wordpools/wasnorm_wordpool_576.txt	LTP293	ltpFR2	7	13	WINDOW	1611	n/a	n/a	0	0	0
3015.968	n/a	WORD	1507984	wordpools/wasnorm_wordpool_576.txt	LTP293	ltpFR2	7	13	CURTAIN	427	n/a	n/a	0	0	0
3018.704	n/a	WORD	1509352	wordpools/wasnorm_wordpool_576.txt	LTP293	ltpFR2	7	13	SUBWAY	1400	n/a	n/a	0	0	0
3021.506	n/a	WORD	1510753	wordpools/wasnorm_wordpool_576.txt	LTP293	ltpFR2	7	13	WASP	1593	n/a	n/a	0	0	0
3024.126	n/a	WORD	1512063	wordpools/wasnorm_wordpool_576.txt	LTP293	ltpFR2	7	13	SUITCASE	1403	n/a	n/a	0	0	0
3025.744	n/a	START	1512872	n/a	LTP293	ltpFR2	7	n/a	n/a	n/a	20	n/a	n/a	n/a	n/a
3026.73	n/a	DISTRACTOR	1513365	n/a	LTP293	ltpFR2	7	13	n/a	n/a	n/a	n/a	0	0	0
3026.744	n/a	PROB	1513372	n/a	LTP293	ltpFR2	7	n/a	n/a	n/a	20	19	9	6	4
3027.946	n/a	PROB	1513973	n/a	LTP293	ltpFR2	7	n/a	n/a	n/a	20	7	2	3	2
3029.63	n/a	PROB	1514815	n/a	LTP293	ltpFR2	7	n/a	n/a	n/a	20	7	1	3	3
3030.998	n/a	PROB	1515499	n/a	LTP293	ltpFR2	7	n/a	n/a	n/a	20	15	9	1	5
3031.966	n/a	PROB	1515983	n/a	LTP293	ltpFR2	7	n/a	n/a	n/a	20	6	2	1	3
3033.15	n/a	PROB	1516575	n/a	LTP293	ltpFR2	7	n/a	n/a	n/a	20	20	7	7	6
3034.218	n/a	PROB	1517109	n/a	LTP293	ltpFR2	7	n/a	n/a	n/a	20	12	4	5	3
3035.484	n/a	PROB	1517742	n/a	LTP293	ltpFR2	7	n/a	n/a	n/a	20	15	2	5	8
3036.536	n/a	PROB	1518268	n/a	LTP293	ltpFR2	7	n/a	n/a	n/a	20	17	8	2	7
3038.138	n/a	PROB	1519069	n/a	LTP293	ltpFR2	7	n/a	n/a	n/a	20	21	9	9	3
3039.538	n/a	PROB	1519769	n/a	LTP293	ltpFR2	7	n/a	n/a	n/a	20	17	5	5	7
3040.506	n/a	PROB	1520253	n/a	LTP293	ltpFR2	7	n/a	n/a	n/a	20	15	1	7	7
3041.44	n/a	PROB	1520720	n/a	LTP293	ltpFR2	7	n/a	n/a	n/a	20	16	6	7	3
3044.158	n/a	PROB	1522079	n/a	LTP293	ltpFR2	7	n/a	n/a	n/a	20	11	3	2	6
3045.326	n/a	PROB	1522663	n/a	LTP293	ltpFR2	7	n/a	n/a	n/a	20	22	8	9	5
3046.744	n/a	PROB	1523372	n/a	LTP293	ltpFR2	7	n/a	n/a	n/a	20	19	5	8	6
3048.774	n/a	STOP	1524387	n/a	LTP293	ltpFR2	7	n/a	n/a	n/a	20	n/a	n/a	n/a	n/a
3051.598	n/a	REC_START	1525799	n/a	LTP293	ltpFR2	7	13	n/a	n/a	n/a	n/a	0	0	0
3052.204	n/a	REC_WORD	1526102	wordpools/wasnorm_wordpool_576.txt	LTP293	ltpFR2	7	13	HORNET	718	n/a	n/a	0	0	0
3053.088	n/a	REC_WORD	1526544	wordpools/wasnorm_wordpool_576.txt	LTP293	ltpFR2	7	13	WASP	1593	n/a	n/a	0	0	0
3054.028	n/a	REC_WORD	1527014	wordpools/wasnorm_wordpool_576.txt	LTP293	ltpFR2	7	13	CLAM	315	n/a	n/a	0	0	0
3054.978	n/a	REC_WORD	1527489	wordpools/wasnorm_wordpool_576.txt	LTP293	ltpFR2	7	13	OYSTER	995	n/a	n/a	0	0	0
3056.222	n/a	REC_WORD	1528111	wordpools/wasnorm_wordpool_576.txt	LTP293	ltpFR2	7	13	SUBWAY	1400	n/a	n/a	0	0	0
3057.662	n/a	REC_WORD	1528831	wordpools/wasnorm_wordpool_576.txt	LTP293	ltpFR2	7	13	ANTLER	29	n/a	n/a	0	0	0
3058.506	n/a	REC_WORD	1529253	wordpools/wasnorm_wordpool_576.txt	LTP293	ltpFR2	7	13	GAZELLE	628	n/a	n/a	0	0	0
3061.056	n/a	REC_WORD	1530528	wordpools/wasnorm_wordpool_576.txt	LTP293	ltpFR2	7	13	GRAPE	654	n/a	n/a	0	0	0
3062.3	n/a	REC_WORD	1531150	wordpools/wasnorm_wordpool_576.txt	LTP293	ltpFR2	7	13	PILOT	1070	n/a	n/a	0	0	0
3063.74	n/a	REC_WORD	1531870	wordpools/wasnorm_wordpool_576.txt	LTP293	ltpFR2	7	13	SLIME	1327	n/a	n/a	0	0	0
3073.278	n/a	REC_WORD	1536639	wordpools/wasnorm_wordpool_576.txt	LTP293	ltpFR2	7	13	PARSLEY	1016	n/a	n/a	0	0	0
3074.32	n/a	REC_WORD	1537160	wordpools/wasnorm_wordpool_576.txt	LTP293	ltpFR2	7	13	BLACKBOARD	133	n/a	n/a	0	0	0
3142.226	n/a	DISTRACTOR	1571113	n/a	LTP293	ltpFR2	7	14	n/a	n/a	n/a	n/a	0	0	0
3142.226	n/a	START	1571113	n/a	LTP293	ltpFR2	7	n/a	n/a	n/a	21	n/a	n/a	n/a	n/a
3142.258	n/a	PROB	1571129	n/a	LTP293	ltpFR2	7	n/a	n/a	n/a	21	16	3	9	4
3143.458	n/a	PROB	1571729	n/a	LTP293	ltpFR2	7	n/a	n/a	n/a	21	25	7	8	8
3145.762	n/a	PROB	1572881	n/a	LTP293	ltpFR2	7	n/a	n/a	n/a	21	11	7	3	1
3146.746	n/a	PROB	1573373	n/a	LTP293	ltpFR2	7	n/a	n/a	n/a	21	23	9	9	5
3147.88	n/a	PROB	1573940	n/a	LTP293	ltpFR2	7	n/a	n/a	n/a	21	12	2	5	5
3148.998	n/a	PROB	1574499	n/a	LTP293	ltpFR2	7	n/a	n/a	n/a	21	21	8	5	8
3150.316	n/a	PROB	1575158	n/a	LTP293	ltpFR2	7	n/a	n/a	n/a	21	22	9	6	7
3152.218	n/a	PROB	1576109	n/a	LTP293	ltpFR2	7	n/a	n/a	n/a	21	9	2	2	5
3153.268	n/a	PROB	1576634	n/a	LTP293	ltpFR2	7	n/a	n/a	n/a	21	19	3	8	8
3155.32	n/a	PROB	1577660	n/a	LTP293	ltpFR2	7	n/a	n/a	n/a	21	16	9	1	6
3156.154	n/a	PROB	1578077	n/a	LTP293	ltpFR2	7	n/a	n/a	n/a	21	26	9	8	9
3158.622	n/a	PROB	1579311	n/a	LTP293	ltpFR2	7	n/a	n/a	n/a	21	8	3	1	4
3159.924	n/a	PROB	1579962	n/a	LTP293	ltpFR2	7	n/a	n/a	n/a	21	20	8	5	7
3161.358	n/a	PROB	1580679	n/a	LTP293	ltpFR2	7	n/a	n/a	n/a	21	21	7	8	6
3162.776	n/a	PROB	1581388	n/a	LTP293	ltpFR2	7	n/a	n/a	n/a	21	16	6	9	1
3164.044	n/a	PROB	1582022	n/a	LTP293	ltpFR2	7	n/a	n/a	n/a	21	10	2	4	4
3165.072	n/a	STOP	1582536	n/a	LTP293	ltpFR2	7	n/a	n/a	n/a	21	n/a	n/a	n/a	n/a
3167.23	n/a	WORD	1583615	wordpools/wasnorm_wordpool_576.txt	LTP293	ltpFR2	7	14	PEPPER	1047	n/a	n/a	0	0	0
3169.682	n/a	WORD	1584841	wordpools/wasnorm_wordpool_576.txt	LTP293	ltpFR2	7	14	CANDY	230	n/a	n/a	0	0	0
3172.252	n/a	WORD	1586126	wordpools/wasnorm_wordpool_576.txt	LTP293	ltpFR2	7	14	MISSILE	900	n/a	n/a	0	0	0
3174.938	n/a	WORD	1587469	wordpools/wasnorm_wordpool_576.txt	LTP293	ltpFR2	7	14	CRAB	397	n/a	n/a	0	0	0
3177.556	n/a	WORD	1588778	wordpools/wasnorm_wordpool_576.txt	LTP293	ltpFR2	7	14	OUTDOORS	987	n/a	n/a	0	0	0
3180.376	n/a	WORD	1590188	wordpools/wasnorm_wordpool_576.txt	LTP293	ltpFR2	7	14	SUSPECT	1415	n/a	n/a	0	0	0
3183.11	n/a	WORD	1591555	wordpools/wasnorm_wordpool_576.txt	LTP293	ltpFR2	7	14	DINER	467	n/a	n/a	0	0	0
3185.914	n/a	WORD	1592957	wordpools/wasnorm_wordpool_576.txt	LTP293	ltpFR2	7	14	PASSAGE	1019	n/a	n/a	0	0	0
3188.416	n/a	WORD	1594208	wordpools/wasnorm_wordpool_576.txt	LTP293	ltpFR2	7	14	AUTHOR	61	n/a	n/a	0	0	0
3191.2	n/a	WORD	1595600	wordpools/wasnorm_wordpool_576.txt	LTP293	ltpFR2	7	14	ROCKET	1202	n/a	n/a	0	0	0
3193.636	n/a	WORD	1596818	wordpools/wasnorm_wordpool_576.txt	LTP293	ltpFR2	7	14	SPACE	1345	n/a	n/a	0	0	0
3196.322	n/a	WORD	1598161	wordpools/wasnorm_wordpool_576.txt	LTP293	ltpFR2	7	14	COUNTRY	388	n/a	n/a	0	0	0
3199.058	n/a	WORD	1599529	wordpools/wasnorm_wordpool_576.txt	LTP293	ltpFR2	7	14	BOX	159	n/a	n/a	0	0	0
3201.576	n/a	WORD	1600788	wordpools/wasnorm_wordpool_576.txt	LTP293	ltpFR2	7	14	TART	1436	n/a	n/a	0	0	0
3204.296	n/a	WORD	1602148	wordpools/wasnorm_wordpool_576.txt	LTP293	ltpFR2	7	14	SPARROW	1347	n/a	n/a	0	0	0
3206.98	n/a	WORD	1603490	wordpools/wasnorm_wordpool_576.txt	LTP293	ltpFR2	7	14	BUG	187	n/a	n/a	0	0	0
3209.616	n/a	WORD	1604808	wordpools/wasnorm_wordpool_576.txt	LTP293	ltpFR2	7	14	LOVER	846	n/a	n/a	0	0	0
3212.218	n/a	WORD	1606109	wordpools/wasnorm_wordpool_576.txt	LTP293	ltpFR2	7	14	SWITCH	1422	n/a	n/a	0	0	0
3215.02	n/a	WORD	1607510	wordpools/wasnorm_wordpool_576.txt	LTP293	ltpFR2	7	14	TUNNEL	1519	n/a	n/a	0	0	0
3217.506	n/a	WORD	1608753	wordpools/wasnorm_wordpool_576.txt	LTP293	ltpFR2	7	14	ANKLE	24	n/a	n/a	0	0	0
3220.176	n/a	WORD	1610088	wordpools/wasnorm_wordpool_576.txt	LTP293	ltpFR2	7	14	GLASS	639	n/a	n/a	0	0	0
3222.794	n/a	WORD	1611397	wordpools/wasnorm_wordpool_576.txt	LTP293	ltpFR2	7	14	BANJO	82	n/a	n/a	0	0	0
3225.246	n/a	WORD	1612623	wordpools/wasnorm_wordpool_576.txt	LTP293	ltpFR2	7	14	MUMMY	932	n/a	n/a	0	0	0
3227.882	n/a	WORD	1613941	wordpools/wasnorm_wordpool_576.txt	LTP293	ltpFR2	7	14	SHOVEL	1295	n/a	n/a	0	0	0
3229.516	n/a	START	1614758	n/a	LTP293	ltpFR2	7	n/a	n/a	n/a	22	n/a	n/a	n/a	n/a
3230.408	n/a	DISTRACTOR	1615204	n/a	LTP293	ltpFR2	7	14	n/a	n/a	n/a	n/a	0	0	0
3230.418	n/a	PROB	1615209	n/a	LTP293	ltpFR2	7	n/a	n/a	n/a	22	13	8	1	4
3231.618	n/a	PROB	1615809	n/a	LTP293	ltpFR2	7	n/a	n/a	n/a	22	21	8	8	5
3233.254	n/a	PROB	1616627	n/a	LTP293	ltpFR2	7	n/a	n/a	n/a	22	15	6	6	3
3234.854	n/a	PROB	1617427	n/a	LTP293	ltpFR2	7	n/a	n/a	n/a	22	11	4	1	6
3236.04	n/a	PROB	1618020	n/a	LTP293	ltpFR2	7	n/a	n/a	n/a	22	14	3	3	8
3237.24	n/a	PROB	1618620	n/a	LTP293	ltpFR2	7	n/a	n/a	n/a	22	19	4	6	9
3238.324	n/a	PROB	1619162	n/a	LTP293	ltpFR2	7	n/a	n/a	n/a	22	9	1	1	7
3239.308	n/a	PROB	1619654	n/a	LTP293	ltpFR2	7	n/a	n/a	n/a	22	13	1	4	8
3240.376	n/a	PROB	1620188	n/a	LTP293	ltpFR2	7	n/a	n/a	n/a	22	18	7	5	6
3242.228	n/a	PROB	1621114	n/a	LTP293	ltpFR2	7	n/a	n/a	n/a	22	15	6	1	8
3243.328	n/a	PROB	1621664	n/a	LTP293	ltpFR2	7	n/a	n/a	n/a	22	16	5	5	6
3244.412	n/a	PROB	1622206	n/a	LTP293	ltpFR2	7	n/a	n/a	n/a	22	16	7	2	7
3245.996	n/a	PROB	1622998	n/a	LTP293	ltpFR2	7	n/a	n/a	n/a	22	15	4	8	3
3247.848	n/a	PROB	1623924	n/a	LTP293	ltpFR2	7	n/a	n/a	n/a	22	11	2	8	1
3249.182	n/a	PROB	1624591	n/a	LTP293	ltpFR2	7	n/a	n/a	n/a	22	21	8	3	9
3250.25	n/a	PROB	1625125	n/a	LTP293	ltpFR2	7	n/a	n/a	n/a	22	7	5	1	1
3251.786	n/a	PROB	1625893	n/a	LTP293	ltpFR2	7	n/a	n/a	n/a	22	23	9	7	7
3252.786	n/a	STOP	1626393	n/a	LTP293	ltpFR2	7	n/a	n/a	n/a	22	n/a	n/a	n/a	n/a
3255.372	n/a	REC_START	1627686	n/a	LTP293	ltpFR2	7	14	n/a	n/a	n/a	n/a	0	0	0
3255.946	n/a	REC_WORD	1627973	wordpools/wasnorm_wordpool_576.txt	LTP293	ltpFR2	7	14	BUG	187	n/a	n/a	0	0	0
3256.944	n/a	REC_WORD	1628472	wordpools/wasnorm_wordpool_576.txt	LTP293	ltpFR2	7	14	SPARROW	1347	n/a	n/a	0	0	0
3258.44	n/a	REC_WORD	1629220	wordpools/wasnorm_wordpool_576.txt	LTP293	ltpFR2	7	14	GLASS	639	n/a	n/a	0	0	0
3259.622	n/a	REC_WORD	1629811	wordpools/wasnorm_wordpool_576.txt	LTP293	ltpFR2	7	14	PEPPER	1047	n/a	n/a	0	0	0
3261.54	n/a	REC_WORD	1630770	wordpools/wasnorm_wordpool_576.txt	LTP293	ltpFR2	7	14	CRAB	397	n/a	n/a	0	0	0
3262.746	n/a	REC_WORD	1631373	wordpools/wasnorm_wordpool_576.txt	LTP293	ltpFR2	7	14	MISSILE	900	n/a	n/a	0	0	0
3264.116	n/a	REC_WORD	1632058	wordpools/wasnorm_wordpool_576.txt	LTP293	ltpFR2	7	14	ROCKET	1202	n/a	n/a	0	0	0
3265.166	n/a	REC_WORD	1632583	wordpools/wasnorm_wordpool_576.txt	LTP293	ltpFR2	7	14	SUSPECT	1415	n/a	n/a	0	0	0
3274.268	n/a	REC_WORD	1637134	wordpools/wasnorm_wordpool_576.txt	LTP293	ltpFR2	7	14	SHOVEL	1295	n/a	n/a	0	0	0
3306.284	n/a	REC_WORD	1653142	wordpools/wasnorm_wordpool_576.txt	LTP293	ltpFR2	7	14	PASSAGE	1019	n/a	n/a	0	0	0
3307.444	n/a	REC_WORD	1653722	wordpools/wasnorm_wordpool_576.txt	LTP293	ltpFR2	7	14	TUNNEL	1519	n/a	n/a	0	0	0
3308.572	n/a	REC_WORD	1654286	wordpools/wasnorm_wordpool_576.txt	LTP293	ltpFR2	7	14	ANKLE	24	n/a	n/a	0	0	0
3314.474	n/a	REC_WORD	1657237	wordpools/wasnorm_wordpool_576.txt	LTP293	ltpFR2	7	14	DINER	467	n/a	n/a	0	0	0
3345.882	n/a	WORD	1672941	wordpools/wasnorm_wordpool_576.txt	LTP293	ltpFR2	7	15	BARLEY	88	n/a	n/a	0	0	0
3348.6	n/a	WORD	1674300	wordpools/wasnorm_wordpool_576.txt	LTP293	ltpFR2	7	15	HATCHET	691	n/a	n/a	0	0	0
3351.236	n/a	WORD	1675618	wordpools/wasnorm_wordpool_576.txt	LTP293	ltpFR2	7	15	SPIDER	1351	n/a	n/a	0	0	0
3353.722	n/a	WORD	1676861	wordpools/wasnorm_wordpool_576.txt	LTP293	ltpFR2	7	15	CRICKET	408	n/a	n/a	0	0	0
3356.392	n/a	WORD	1678196	wordpools/wasnorm_wordpool_576.txt	LTP293	ltpFR2	7	15	PUDDING	1139	n/a	n/a	0	0	0
3359.026	n/a	WORD	1679513	wordpools/wasnorm_wordpool_576.txt	LTP293	ltpFR2	7	15	CEILING	265	n/a	n/a	0	0	0
3361.562	n/a	WORD	1680781	wordpools/wasnorm_wordpool_576.txt	LTP293	ltpFR2	7	15	CANYON	235	n/a	n/a	0	0	0
3364.382	n/a	WORD	1682191	wordpools/wasnorm_wordpool_576.txt	LTP293	ltpFR2	7	15	CONCERT	360	n/a	n/a	0	0	0
3367.168	n/a	WORD	1683584	wordpools/wasnorm_wordpool_576.txt	LTP293	ltpFR2	7	15	WIFE	1609	n/a	n/a	0	0	0
3369.836	n/a	WORD	1684918	wordpools/wasnorm_wordpool_576.txt	LTP293	ltpFR2	7	15	TEMPLE	1448	n/a	n/a	0	0	0
3372.656	n/a	WORD	1686328	wordpools/wasnorm_wordpool_576.txt	LTP293	ltpFR2	7	15	FLESH	579	n/a	n/a	0	0	0
3375.324	n/a	WORD	1687662	wordpools/wasnorm_wordpool_576.txt	LTP293	ltpFR2	7	15	WHISTLE	1606	n/a	n/a	0	0	0
3378.06	n/a	WORD	1689030	wordpools/wasnorm_wordpool_576.txt	LTP293	ltpFR2	7	15	TRENCH	1503	n/a	n/a	0	0	0
3380.696	n/a	WORD	1690348	wordpools/wasnorm_wordpool_576.txt	LTP293	ltpFR2	7	15	HOOD	714	n/a	n/a	0	0	0
3383.246	n/a	WORD	1691623	wordpools/wasnorm_wordpool_576.txt	LTP293	ltpFR2	7	15	SPOUSE	1358	n/a	n/a	0	0	0
3385.932	n/a	WORD	1692966	wordpools/wasnorm_wordpool_576.txt	LTP293	ltpFR2	7	15	KIDNEY	776	n/a	n/a	0	0	0
3388.402	n/a	WORD	1694201	wordpools/wasnorm_wordpool_576.txt	LTP293	ltpFR2	7	15	APPLE	33	n/a	n/a	0	0	0
3391.036	n/a	WORD	1695518	wordpools/wasnorm_wordpool_576.txt	LTP293	ltpFR2	7	15	MUFFIN	929	n/a	n/a	0	0	0
3393.522	n/a	WORD	1696761	wordpools/wasnorm_wordpool_576.txt	LTP293	ltpFR2	7	15	VELVET	1555	n/a	n/a	0	0	0
3396.324	n/a	WORD	1698162	wordpools/wasnorm_wordpool_576.txt	LTP293	ltpFR2	7	15	LUMBER	848	n/a	n/a	0	0	0
3398.86	n/a	WORD	1699430	wordpools/wasnorm_wordpool_576.txt	LTP293	ltpFR2	7	15	CONVICT	371	n/a	n/a	0	0	0
3401.346	n/a	WORD	1700673	wordpools/wasnorm_wordpool_576.txt	LTP293	ltpFR2	7	15	CHILD	299	n/a	n/a	0	0	0
3404.082	n/a	WORD	1702041	wordpools/wasnorm_wordpool_576.txt	LTP293	ltpFR2	7	15	BUNNY	198	n/a	n/a	0	0	0
3406.784	n/a	WORD	1703392	wordpools/wasnorm_wordpool_576.txt	LTP293	ltpFR2	7	15	COUSIN	392	n/a	n/a	0	0	0
3408.402	n/a	START	1704201	n/a	LTP293	ltpFR2	7	n/a	n/a	n/a	23	n/a	n/a	n/a	n/a
3409.258	n/a	DISTRACTOR	1704629	n/a	LTP293	ltpFR2	7	15	n/a	n/a	n/a	n/a	0	0	0
3409.286	n/a	PROB	1704643	n/a	LTP293	ltpFR2	7	n/a	n/a	n/a	23	17	7	4	6
3410.62	n/a	PROB	1705310	n/a	LTP293	ltpFR2	7	n/a	n/a	n/a	23	19	8	4	7
3412.056	n/a	PROB	1706028	n/a	LTP293	ltpFR2	7	n/a	n/a	n/a	23	5	1	1	3
3412.89	n/a	PROB	1706445	n/a	LTP293	ltpFR2	7	n/a	n/a	n/a	23	13	3	8	2
3414.174	n/a	PROB	1707087	n/a	LTP293	ltpFR2	7	n/a	n/a	n/a	23	14	7	1	6
3415.358	n/a	PROB	1707679	n/a	LTP293	ltpFR2	7	n/a	n/a	n/a	23	15	6	6	3
3417.526	n/a	PROB	1708763	n/a	LTP293	ltpFR2	7	n/a	n/a	n/a	23	9	5	2	2
3418.644	n/a	PROB	1709322	n/a	LTP293	ltpFR2	7	n/a	n/a	n/a	23	19	8	8	3
3420.98	n/a	PROB	1710490	n/a	LTP293	ltpFR2	7	n/a	n/a	n/a	23	13	1	6	6
3422.064	n/a	PROB	1711032	n/a	LTP293	ltpFR2	7	n/a	n/a	n/a	23	13	6	5	2
3423.382	n/a	PROB	1711691	n/a	LTP293	ltpFR2	7	n/a	n/a	n/a	23	19	5	9	5
3424.682	n/a	PROB	1712341	n/a	LTP293	ltpFR2	7	n/a	n/a	n/a	23	21	9	8	4
3425.918	n/a	PROB	1712959	n/a	LTP293	ltpFR2	7	n/a	n/a	n/a	23	14	3	3	8
3427.318	n/a	PROB	1713659	n/a	LTP293	ltpFR2	7	n/a	n/a	n/a	23	4	1	2	1
3428.37	n/a	PROB	1714185	n/a	LTP293	ltpFR2	7	n/a	n/a	n/a	23	12	4	1	7
3429.386	n/a	PROB	1714693	n/a	LTP293	ltpFR2	7	n/a	n/a	n/a	23	13	8	4	1
3430.688	n/a	PROB	1715344	n/a	LTP293	ltpFR2	7	n/a	n/a	n/a	23	19	2	9	8
3432.188	n/a	STOP	1716094	n/a	LTP293	ltpFR2	7	n/a	n/a	n/a	23	n/a	n/a	n/a	n/a
3434.308	n/a	REC_START	1717154	n/a	LTP293	ltpFR2	7	15	n/a	n/a	n/a	n/a	0	0	0
3434.808	n/a	REC_WORD	1717404	wordpools/wasnorm_wordpool_576.txt	LTP293	ltpFR2	7	15	CHILD	299	n/a	n/a	0	0	0
3435.9	n/a	REC_WORD	1717950	wordpools/wasnorm_wordpool_576.txt	LTP293	ltpFR2	7	15	BUNNY	198	n/a	n/a	0	0	0
3437.908	n/a	REC_WORD	1718954	wordpools/wasnorm_wordpool_576.txt	LTP293	ltpFR2	7	15	VELVET	1555	n/a	n/a	0	0	0
3439.894	n/a	REC_WORD	1719947	wordpools/wasnorm_wordpool_576.txt	LTP293	ltpFR2	7	15	MUFFIN	929	n/a	n/a	0	0	0
3441.454	n/a	REC_WORD	1720727	wordpools/wasnorm_wordpool_576.txt	LTP293	ltpFR2	7	15	CRICKET	408	n/a	n/a	0	0	0
3442.772	n/a	REC_WORD	1721386	wordpools/wasnorm_wordpool_576.txt	LTP293	ltpFR2	7	15	BARLEY	88	n/a	n/a	0	0	0
3444.126	n/a	REC_WORD	1722063	wordpools/wasnorm_wordpool_576.txt	LTP293	ltpFR2	7	15	CANYON	235	n/a	n/a	0	0	0
3445.522	n/a	REC_WORD	1722761	wordpools/wasnorm_wordpool_576.txt	LTP293	ltpFR2	7	15	TRENCH	1503	n/a	n/a	0	0	0
3446.794	n/a	REC_WORD	1723397	wordpools/wasnorm_wordpool_576.txt	LTP293	ltpFR2	7	15	CONCERT	360	n/a	n/a	0	0	0
3449.172	n/a	REC_WORD	1724586	wordpools/wasnorm_wordpool_576.txt	LTP293	ltpFR2	7	15	HATCHET	691	n/a	n/a	0	0	0
3452.202	n/a	REC_WORD	1726101	wordpools/wasnorm_wordpool_576.txt	LTP293	ltpFR2	7	15	COUSIN	392	n/a	n/a	0	0	0
3524.752	n/a	DISTRACTOR	1762376	n/a	LTP293	ltpFR2	7	16	n/a	n/a	n/a	n/a	0	0	0
3524.752	n/a	START	1762376	n/a	LTP293	ltpFR2	7	n/a	n/a	n/a	24	n/a	n/a	n/a	n/a
3524.768	n/a	PROB	1762384	n/a	LTP293	ltpFR2	7	n/a	n/a	n/a	24	15	5	6	4
3526.704	n/a	PROB	1763352	n/a	LTP293	ltpFR2	7	n/a	n/a	n/a	24	15	8	3	4
3528.57	n/a	PROB	1764285	n/a	LTP293	ltpFR2	7	n/a	n/a	n/a	24	14	7	3	4
3529.904	n/a	PROB	1764952	n/a	LTP293	ltpFR2	7	n/a	n/a	n/a	24	21	7	5	9
3531.022	n/a	PROB	1765511	n/a	LTP293	ltpFR2	7	n/a	n/a	n/a	24	14	4	3	7
3532.124	n/a	PROB	1766062	n/a	LTP293	ltpFR2	7	n/a	n/a	n/a	24	12	1	7	4
3533.224	n/a	PROB	1766612	n/a	LTP293	ltpFR2	7	n/a	n/a	n/a	24	13	3	4	6
3535.626	n/a	PROB	1767813	n/a	LTP293	ltpFR2	7	n/a	n/a	n/a	24	16	5	5	6
3536.644	n/a	PROB	1768322	n/a	LTP293	ltpFR2	7	n/a	n/a	n/a	24	8	3	1	4
3537.878	n/a	PROB	1768939	n/a	LTP293	ltpFR2	7	n/a	n/a	n/a	24	18	9	5	4
3538.996	n/a	PROB	1769498	n/a	LTP293	ltpFR2	7	n/a	n/a	n/a	24	18	9	1	8
3540.046	n/a	PROB	1770023	n/a	LTP293	ltpFR2	7	n/a	n/a	n/a	24	16	9	2	5
3541.264	n/a	PROB	1770632	n/a	LTP293	ltpFR2	7	n/a	n/a	n/a	24	6	1	2	3
3542.464	n/a	PROB	1771232	n/a	LTP293	ltpFR2	7	n/a	n/a	n/a	24	11	2	2	7
3544.168	n/a	PROB	1772084	n/a	LTP293	ltpFR2	7	n/a	n/a	n/a	24	14	6	3	4
3545.986	n/a	PROB	1772993	n/a	LTP293	ltpFR2	7	n/a	n/a	n/a	24	18	3	8	7
3547.55	n/a	STOP	1773775	n/a	LTP293	ltpFR2	7	n/a	n/a	n/a	24	n/a	n/a	n/a	n/a
3549.838	n/a	WORD	1774919	wordpools/wasnorm_wordpool_576.txt	LTP293	ltpFR2	7	16	MARKET	871	n/a	n/a	0	0	0
3552.44	n/a	WORD	1776220	wordpools/wasnorm_wordpool_576.txt	LTP293	ltpFR2	7	16	BELLY	119	n/a	n/a	0	0	0
3555.026	n/a	WORD	1777513	wordpools/wasnorm_wordpool_576.txt	LTP293	ltpFR2	7	16	SNACK	1331	n/a	n/a	0	0	0
3557.746	n/a	WORD	1778873	wordpools/wasnorm_wordpool_576.txt	LTP293	ltpFR2	7	16	FIREMAN	569	n/a	n/a	0	0	0
3560.282	n/a	WORD	1780141	wordpools/wasnorm_wordpool_576.txt	LTP293	ltpFR2	7	16	ZEBRA	1635	n/a	n/a	0	0	0
3562.8	n/a	WORD	1781400	wordpools/wasnorm_wordpool_576.txt	LTP293	ltpFR2	7	16	MESSAGE	888	n/a	n/a	0	0	0
3565.286	n/a	WORD	1782643	wordpools/wasnorm_wordpool_576.txt	LTP293	ltpFR2	7	16	INMATE	738	n/a	n/a	0	0	0
3567.822	n/a	WORD	1783911	wordpools/wasnorm_wordpool_576.txt	LTP293	ltpFR2	7	16	TRACTOR	1493	n/a	n/a	0	0	0
3570.356	n/a	WORD	1785178	wordpools/wasnorm_wordpool_576.txt	LTP293	ltpFR2	7	16	INFANT	737	n/a	n/a	0	0	0
3572.976	n/a	WORD	1786488	wordpools/wasnorm_wordpool_576.txt	LTP293	ltpFR2	7	16	CRIB	407	n/a	n/a	0	0	0
3575.51	n/a	WORD	1787755	wordpools/wasnorm_wordpool_576.txt	LTP293	ltpFR2	7	16	PLUTO	1092	n/a	n/a	0	0	0
3578.23	n/a	WORD	1789115	wordpools/wasnorm_wordpool_576.txt	LTP293	ltpFR2	7	16	HANDBAG	684	n/a	n/a	0	0	0
3580.798	n/a	WORD	1790399	wordpools/wasnorm_wordpool_576.txt	LTP293	ltpFR2	7	16	DRIVER	499	n/a	n/a	0	0	0
3583.616	n/a	WORD	1791808	wordpools/wasnorm_wordpool_576.txt	LTP293	ltpFR2	7	16	RECORD	1176	n/a	n/a	0	0	0
3586.354	n/a	WORD	1793177	wordpools/wasnorm_wordpool_576.txt	LTP293	ltpFR2	7	16	GUARD	667	n/a	n/a	0	0	0
3588.938	n/a	WORD	1794469	wordpools/wasnorm_wordpool_576.txt	LTP293	ltpFR2	7	16	LODGE	839	n/a	n/a	0	0	0
3591.606	n/a	WORD	1795803	wordpools/wasnorm_wordpool_576.txt	LTP293	ltpFR2	7	16	WHISKERS	1605	n/a	n/a	0	0	0
3594.194	n/a	WORD	1797097	wordpools/wasnorm_wordpool_576.txt	LTP293	ltpFR2	7	16	FIREPLACE	570	n/a	n/a	0	0	0
3596.812	n/a	WORD	1798406	wordpools/wasnorm_wordpool_576.txt	LTP293	ltpFR2	7	16	POLICE	1098	n/a	n/a	0	0	0
3599.596	n/a	WORD	1799798	wordpools/wasnorm_wordpool_576.txt	LTP293	ltpFR2	7	16	PASTRY	1022	n/a	n/a	0	0	0
3602.316	n/a	WORD	1801158	wordpools/wasnorm_wordpool_576.txt	LTP293	ltpFR2	7	16	LAMP	798	n/a	n/a	0	0	0
3604.886	n/a	WORD	1802443	wordpools/wasnorm_wordpool_576.txt	LTP293	ltpFR2	7	16	NEUTRON	947	n/a	n/a	0	0	0
3607.638	n/a	WORD	1803819	wordpools/wasnorm_wordpool_576.txt	LTP293	ltpFR2	7	16	LUNCH	849	n/a	n/a	0	0	0
3610.14	n/a	WORD	1805070	wordpools/wasnorm_wordpool_576.txt	LTP293	ltpFR2	7	16	TURKEY	1520	n/a	n/a	0	0	0
3611.758	n/a	START	1805879	n/a	LTP293	ltpFR2	7	n/a	n/a	n/a	25	n/a	n/a	n/a	n/a
3612.616	n/a	DISTRACTOR	1806308	n/a	LTP293	ltpFR2	7	16	n/a	n/a	n/a	n/a	0	0	0
3612.642	n/a	PROB	1806321	n/a	LTP293	ltpFR2	7	n/a	n/a	n/a	25	23	7	9	7
3613.844	n/a	PROB	1806922	n/a	LTP293	ltpFR2	7	n/a	n/a	n/a	25	21	4	8	9
3614.894	n/a	PROB	1807447	n/a	LTP293	ltpFR2	7	n/a	n/a	n/a	25	11	2	7	2
3616.696	n/a	PROB	1808348	n/a	LTP293	ltpFR2	7	n/a	n/a	n/a	25	21	7	7	7
3617.88	n/a	PROB	1808940	n/a	LTP293	ltpFR2	7	n/a	n/a	n/a	25	13	8	1	4
3619.164	n/a	PROB	1809582	n/a	LTP293	ltpFR2	7	n/a	n/a	n/a	25	14	4	5	5
3620.266	n/a	PROB	1810133	n/a	LTP293	ltpFR2	7	n/a	n/a	n/a	25	17	9	7	1
3621.784	n/a	PROB	1810892	n/a	LTP293	ltpFR2	7	n/a	n/a	n/a	25	12	5	4	3
3623.034	n/a	PROB	1811517	n/a	LTP293	ltpFR2	7	n/a	n/a	n/a	25	24	7	8	9
3625.652	n/a	PROB	1812826	n/a	LTP293	ltpFR2	7	n/a	n/a	n/a	25	16	1	6	9
3626.938	n/a	PROB	1813469	n/a	LTP293	ltpFR2	7	n/a	n/a	n/a	25	16	4	3	9
3628.088	n/a	PROB	1814044	n/a	LTP293	ltpFR2	7	n/a	n/a	n/a	25	19	5	9	5
3629.206	n/a	PROB	1814603	n/a	LTP293	ltpFR2	7	n/a	n/a	n/a	25	20	8	9	3
3630.724	n/a	PROB	1815362	n/a	LTP293	ltpFR2	7	n/a	n/a	n/a	25	18	8	7	3
3632.008	n/a	PROB	1816004	n/a	LTP293	ltpFR2	7	n/a	n/a	n/a	25	13	6	1	6
3633.676	n/a	PROB	1816838	n/a	LTP293	ltpFR2	7	n/a	n/a	n/a	25	11	3	4	2
3634.832	n/a	STOP	1817416	n/a	LTP293	ltpFR2	7	n/a	n/a	n/a	25	n/a	n/a	n/a	n/a
3637.612	n/a	REC_START	1818806	n/a	LTP293	ltpFR2	7	16	n/a	n/a	n/a	n/a	0	0	0
3638.18	n/a	REC_WORD	1819090	wordpools/wasnorm_wordpool_576.txt	LTP293	ltpFR2	7	16	NEUTRON	947	n/a	n/a	0	0	0
3639.492	n/a	REC_WORD	1819746	wordpools/wasnorm_wordpool_576.txt	LTP293	ltpFR2	7	16	GUARD	667	n/a	n/a	0	0	0
3640.974	n/a	REC_WORD	1820487	wordpools/wasnorm_wordpool_576.txt	LTP293	ltpFR2	7	16	POLICE	1098	n/a	n/a	0	0	0
3643.282	n/a	REC_WORD	1821641	wordpools/wasnorm_wordpool_576.txt	LTP293	ltpFR2	7	16	FIREMAN	569	n/a	n/a	0	0	0
3644.618	n/a	REC_WORD	1822309	wordpools/wasnorm_wordpool_576.txt	LTP293	ltpFR2	7	16	ZEBRA	1635	n/a	n/a	0	0	0
3645.98	n/a	REC_WORD	1822990	wordpools/wasnorm_wordpool_576.txt	LTP293	ltpFR2	7	16	DRIVER	499	n/a	n/a	0	0	0
3647.248	n/a	REC_WORD	1823624	wordpools/wasnorm_wordpool_576.txt	LTP293	ltpFR2	7	16	INMATE	738	n/a	n/a	0	0	0
3648.598	n/a	REC_WORD	1824299	wordpools/wasnorm_wordpool_576.txt	LTP293	ltpFR2	7	16	FIREPLACE	570	n/a	n/a	0	0	0
3650.12	n/a	REC_WORD	1825060	wordpools/wasnorm_wordpool_576.txt	LTP293	ltpFR2	7	16	RECORD	1176	n/a	n/a	0	0	0
3652.09	n/a	REC_WORD	1826045	wordpools/wasnorm_wordpool_576.txt	LTP293	ltpFR2	7	16	LAMP	798	n/a	n/a	0	0	0
3654.096	n/a	REC_WORD	1827048	wordpools/wasnorm_wordpool_576.txt	LTP293	ltpFR2	7	16	LUNCH	849	n/a	n/a	0	0	0
3654.096	n/a	REC_WORD	1827048	wordpools/wasnorm_wordpool_576.txt	LTP293	ltpFR2	7	16	LUNCH	849	n/a	n/a	0	0	0
3655.254	n/a	REC_WORD	1827627	wordpools/wasnorm_wordpool_576.txt	LTP293	ltpFR2	7	16	TURKEY	1520	n/a	n/a	0	0	0
3656.438	n/a	REC_WORD	1828219	wordpools/wasnorm_wordpool_576.txt	LTP293	ltpFR2	7	16	MARKET	871	n/a	n/a	0	0	0
3659.376	n/a	REC_WORD	1829688	wordpools/wasnorm_wordpool_576.txt	LTP293	ltpFR2	7	16	PLUTO	1092	n/a	n/a	0	0	0
3662.276	n/a	REC_WORD	1831138	wordpools/wasnorm_wordpool_576.txt	LTP293	ltpFR2	7	16	PASTRY	1022	n/a	n/a	0	0	0
3667.212	n/a	REC_WORD	1833606	wordpools/wasnorm_wordpool_576.txt	LTP293	ltpFR2	7	16	INFANT	737	n/a	n/a	0	0	0
3669.336	n/a	REC_WORD	1834668	wordpools/wasnorm_wordpool_576.txt	LTP293	ltpFR2	7	16	CRIB	407	n/a	n/a	0	0	0
