mstime	trial_type	stim_file	subject	experiment	session	trial	task	item_name	item_num	recog_conf	resp	color_b	color_g	color_r	case	font
0	SESS_START	n/a	LTP199	ltpFR	4	n/a	n/a	n/a	n/a	n/a	n/a	n/a	n/a	n/a	n/a	n/a
68512	WORD	wordpools/wasnorm_wordpool_less_exclusions.txt	LTP199	ltpFR	4	1	1	ELBOW	520	n/a	0	0	0.5869140625	0.422607421875	lower	../fonts/zerothre.ttf
72728	WORD	wordpools/wasnorm_wordpool_less_exclusions.txt	LTP199	ltpFR	4	1	1	ATTORNEY	58	n/a	1	0	0.5869140625	0.422607421875	lower	../fonts/zerothre.ttf
76659	WORD	wordpools/wasnorm_wordpool_less_exclusions.txt	LTP199	ltpFR	4	1	1	DESIGNER	451	n/a	1	0	0.5869140625	0.422607421875	lower	../fonts/zerothre.ttf
80811	WORD	wordpools/wasnorm_wordpool_less_exclusions.txt	LTP199	ltpFR	4	1	0	ACORN	3	n/a	0	1	0.412841796875	0.57763671875	upper	../fonts/amplitud.ttf
84865	WORD	wordpools/wasnorm_wordpool_less_exclusions.txt	LTP199	ltpFR	4	1	0	ELM	527	n/a	1	1	0.412841796875	0.57763671875	upper	../fonts/amplitud.ttf
88889	WORD	wordpools/wasnorm_wordpool_less_exclusions.txt	LTP199	ltpFR	4	1	0	SENATE	1267	n/a	1	1	0.412841796875	0.57763671875	upper	../fonts/amplitud.ttf
92804	WORD	wordpools/wasnorm_wordpool_less_exclusions.txt	LTP199	ltpFR	4	1	0	FURNITURE	616	n/a	1	1	0.412841796875	0.57763671875	upper	../fonts/amplitud.ttf
96718	WORD	wordpools/wasnorm_wordpool_less_exclusions.txt	LTP199	ltpFR	4	1	1	AUDIENCE	59	n/a	1	0	0.5869140625	0.422607421875	lower	../fonts/zerothre.ttf
100867	WORD	wordpools/wasnorm_wordpool_less_exclusions.txt	LTP199	ltpFR	4	1	1	PERSONNEL	1053	n/a	1	0	0.5869140625	0.422607421875	lower	../fonts/zerothre.ttf
104849	WORD	wordpools/wasnorm_wordpool_less_exclusions.txt	LTP199	ltpFR	4	1	1	EMPLOYER	532	n/a	1	0	0.5869140625	0.422607421875	lower	../fonts/zerothre.ttf
109047	WORD	wordpools/wasnorm_wordpool_less_exclusions.txt	LTP199	ltpFR	4	1	0	WRIST	1626	n/a	0	1	0.412841796875	0.57763671875	upper	../fonts/amplitud.ttf
113264	WORD	wordpools/wasnorm_wordpool_less_exclusions.txt	LTP199	ltpFR	4	1	0	BUREAU	199	n/a	1	1	0.412841796875	0.57763671875	upper	../fonts/amplitud.ttf
117212	WORD	wordpools/wasnorm_wordpool_less_exclusions.txt	LTP199	ltpFR	4	1	0	NICKEL	950	n/a	0	1	0.412841796875	0.57763671875	upper	../fonts/amplitud.ttf
121328	WORD	wordpools/wasnorm_wordpool_less_exclusions.txt	LTP199	ltpFR	4	1	0	MILK	895	n/a	0	1	0.412841796875	0.57763671875	upper	../fonts/amplitud.ttf
125176	WORD	wordpools/wasnorm_wordpool_less_exclusions.txt	LTP199	ltpFR	4	1	1	FLESH	579	n/a	0	0	0.5869140625	0.422607421875	lower	../fonts/zerothre.ttf
129191	WORD	wordpools/wasnorm_wordpool_less_exclusions.txt	LTP199	ltpFR	4	1	1	MAGICIAN	854	n/a	1	0	0.5869140625	0.422607421875	lower	../fonts/zerothre.ttf
135131	REC_START	n/a	LTP199	ltpFR	4	1	n/a	n/a	n/a	n/a	n/a	n/a	n/a	n/a	n/a	n/a
136492	REC_WORD	wordpools/wasnorm_wordpool_less_exclusions.txt	LTP199	ltpFR	4	1	1	FLESH	579	n/a	0	n/a	n/a	n/a	n/a	n/a
137505	REC_WORD	wordpools/wasnorm_wordpool_less_exclusions.txt	LTP199	ltpFR	4	1	1	MAGICIAN	854	n/a	1	n/a	n/a	n/a	n/a	n/a
138505	REC_WORD	wordpools/wasnorm_wordpool_less_exclusions.txt	LTP199	ltpFR	4	1	1	ATTORNEY	58	n/a	1	n/a	n/a	n/a	n/a	n/a
140234	REC_WORD	wordpools/wasnorm_wordpool_less_exclusions.txt	LTP199	ltpFR	4	1	0	WRIST	1626	n/a	0	n/a	n/a	n/a	n/a	n/a
141371	REC_WORD	wordpools/wasnorm_wordpool_less_exclusions.txt	LTP199	ltpFR	4	1	0	ELM	527	n/a	1	n/a	n/a	n/a	n/a	n/a
151104	REC_WORD	wordpools/wasnorm_wordpool_less_exclusions.txt	LTP199	ltpFR	4	1	1	AUDIENCE	59	n/a	1	n/a	n/a	n/a	n/a	n/a
154876	REC_WORD	wordpools/wasnorm_wordpool_less_exclusions.txt	LTP199	ltpFR	4	1	1	EMPLOYER	532	n/a	1	n/a	n/a	n/a	n/a	n/a
164280	REC_WORD	wordpools/wasnorm_wordpool_less_exclusions.txt	LTP199	ltpFR	4	1	n/a	KNEE	784	n/a	n/a	n/a	n/a	n/a	n/a	n/a
177659	REC_WORD	wordpools/wasnorm_wordpool_less_exclusions.txt	LTP199	ltpFR	4	1	0	FURNITURE	616	n/a	1	n/a	n/a	n/a	n/a	n/a
178727	REC_WORD	wordpools/wasnorm_wordpool_less_exclusions.txt	LTP199	ltpFR	4	1	0	BUREAU	199	n/a	1	n/a	n/a	n/a	n/a	n/a
182358	REC_WORD	wordpools/wasnorm_wordpool_less_exclusions.txt	LTP199	ltpFR	4	1	0	MILK	895	n/a	0	n/a	n/a	n/a	n/a	n/a
194057	REC_WORD	wordpools/wasnorm_wordpool_less_exclusions.txt	LTP199	ltpFR	4	1	0	NICKEL	950	n/a	0	n/a	n/a	n/a	n/a	n/a
219852	WORD	wordpools/wasnorm_wordpool_less_exclusions.txt	LTP199	ltpFR	4	2	0	ENGINE	535	n/a	1	1	0.412841796875	0.57763671875	upper	../fonts/amplitud.ttf
223847	WORD	wordpools/wasnorm_wordpool_less_exclusions.txt	LTP199	ltpFR	4	2	0	DRIVEWAY	500	n/a	1	1	0.412841796875	0.57763671875	upper	../fonts/amplitud.ttf
227929	WORD	wordpools/wasnorm_wordpool_less_exclusions.txt	LTP199	ltpFR	4	2	0	EXPLOSION	544	n/a	1	1	0.412841796875	0.57763671875	upper	../fonts/amplitud.ttf
232027	WORD	wordpools/wasnorm_wordpool_less_exclusions.txt	LTP199	ltpFR	4	2	0	NIGHTGOWN	953	n/a	0	1	0.412841796875	0.57763671875	upper	../fonts/amplitud.ttf
236110	WORD	wordpools/wasnorm_wordpool_less_exclusions.txt	LTP199	ltpFR	4	2	1	PUMPKIN	1142	n/a	1	0	0.5869140625	0.422607421875	lower	../fonts/zerothre.ttf
240176	WORD	wordpools/wasnorm_wordpool_less_exclusions.txt	LTP199	ltpFR	4	2	1	PUCK	1138	n/a	0	0	0.5869140625	0.422607421875	lower	../fonts/zerothre.ttf
244241	WORD	wordpools/wasnorm_wordpool_less_exclusions.txt	LTP199	ltpFR	4	2	0	DWARF	510	n/a	1	1	0.412841796875	0.57763671875	upper	../fonts/amplitud.ttf
248239	WORD	wordpools/wasnorm_wordpool_less_exclusions.txt	LTP199	ltpFR	4	2	0	GENERAL	630	n/a	1	1	0.412841796875	0.57763671875	upper	../fonts/amplitud.ttf
252422	WORD	wordpools/wasnorm_wordpool_less_exclusions.txt	LTP199	ltpFR	4	2	0	LIEUTENANT	818	n/a	1	1	0.412841796875	0.57763671875	upper	../fonts/amplitud.ttf
256420	WORD	wordpools/wasnorm_wordpool_less_exclusions.txt	LTP199	ltpFR	4	2	0	BADGE	68	n/a	0	1	0.412841796875	0.57763671875	upper	../fonts/amplitud.ttf
260268	WORD	wordpools/wasnorm_wordpool_less_exclusions.txt	LTP199	ltpFR	4	2	1	CUE	422	n/a	0	0	0.5869140625	0.422607421875	lower	../fonts/zerothre.ttf
264216	WORD	wordpools/wasnorm_wordpool_less_exclusions.txt	LTP199	ltpFR	4	2	1	POTTERY	1116	n/a	0	0	0.5869140625	0.422607421875	lower	../fonts/zerothre.ttf
268335	WORD	wordpools/wasnorm_wordpool_less_exclusions.txt	LTP199	ltpFR	4	2	1	FRUIT	610	n/a	0	0	0.5869140625	0.422607421875	lower	../fonts/zerothre.ttf
272313	WORD	wordpools/wasnorm_wordpool_less_exclusions.txt	LTP199	ltpFR	4	2	1	FOREHEAD	592	n/a	1	0	0.5869140625	0.422607421875	lower	../fonts/zerothre.ttf
276161	WORD	wordpools/wasnorm_wordpool_less_exclusions.txt	LTP199	ltpFR	4	2	1	BRUNETTE	181	n/a	1	0	0.5869140625	0.422607421875	lower	../fonts/zerothre.ttf
280093	WORD	wordpools/wasnorm_wordpool_less_exclusions.txt	LTP199	ltpFR	4	2	1	FIREMAN	569	n/a	1	0	0.5869140625	0.422607421875	lower	../fonts/zerothre.ttf
286032	REC_START	n/a	LTP199	ltpFR	4	2	n/a	n/a	n/a	n/a	n/a	n/a	n/a	n/a	n/a	n/a
287723	REC_WORD	wordpools/wasnorm_wordpool_less_exclusions.txt	LTP199	ltpFR	4	2	1	BRUNETTE	181	n/a	1	n/a	n/a	n/a	n/a	n/a
288655	REC_WORD	wordpools/wasnorm_wordpool_less_exclusions.txt	LTP199	ltpFR	4	2	1	FIREMAN	569	n/a	1	n/a	n/a	n/a	n/a	n/a
291195	REC_WORD	wordpools/wasnorm_wordpool_less_exclusions.txt	LTP199	ltpFR	4	2	0	GENERAL	630	n/a	1	n/a	n/a	n/a	n/a	n/a
293415	REC_WORD	wordpools/wasnorm_wordpool_less_exclusions.txt	LTP199	ltpFR	4	2	0	LIEUTENANT	818	n/a	1	n/a	n/a	n/a	n/a	n/a
294592	REC_WORD	wordpools/wasnorm_wordpool_less_exclusions.txt	LTP199	ltpFR	4	2	0	BADGE	68	n/a	0	n/a	n/a	n/a	n/a	n/a
300998	REC_WORD	wordpools/wasnorm_wordpool_less_exclusions.txt	LTP199	ltpFR	4	2	0	NIGHTGOWN	953	n/a	0	n/a	n/a	n/a	n/a	n/a
303013	REC_WORD	wordpools/wasnorm_wordpool_less_exclusions.txt	LTP199	ltpFR	4	2	0	ENGINE	535	n/a	1	n/a	n/a	n/a	n/a	n/a
304056	REC_WORD	wordpools/wasnorm_wordpool_less_exclusions.txt	LTP199	ltpFR	4	2	0	DRIVEWAY	500	n/a	1	n/a	n/a	n/a	n/a	n/a
305832	REC_WORD	wordpools/wasnorm_wordpool_less_exclusions.txt	LTP199	ltpFR	4	2	0	EXPLOSION	544	n/a	1	n/a	n/a	n/a	n/a	n/a
373311	WORD	wordpools/wasnorm_wordpool_less_exclusions.txt	LTP199	ltpFR	4	3	0	DIRECTOR	471	n/a	1	1	0.412841796875	0.57763671875	upper	../fonts/amplitud.ttf
377378	WORD	wordpools/wasnorm_wordpool_less_exclusions.txt	LTP199	ltpFR	4	3	0	POPCORN	1104	n/a	0	1	0.412841796875	0.57763671875	upper	../fonts/amplitud.ttf
381224	WORD	wordpools/wasnorm_wordpool_less_exclusions.txt	LTP199	ltpFR	4	3	0	JOKER	759	n/a	1	1	0.412841796875	0.57763671875	upper	../fonts/amplitud.ttf
385122	WORD	wordpools/wasnorm_wordpool_less_exclusions.txt	LTP199	ltpFR	4	3	1	CASH	252	n/a	0	0	0.5869140625	0.422607421875	lower	../fonts/zerothre.ttf
389139	WORD	wordpools/wasnorm_wordpool_less_exclusions.txt	LTP199	ltpFR	4	3	1	CARROT	249	n/a	0	0	0.5869140625	0.422607421875	lower	../fonts/zerothre.ttf
393236	WORD	wordpools/wasnorm_wordpool_less_exclusions.txt	LTP199	ltpFR	4	3	1	VEGETABLE	1552	n/a	1	0	0.5869140625	0.422607421875	lower	../fonts/zerothre.ttf
397134	WORD	wordpools/wasnorm_wordpool_less_exclusions.txt	LTP199	ltpFR	4	3	1	DICTATOR	462	n/a	1	0	0.5869140625	0.422607421875	lower	../fonts/zerothre.ttf
401065	WORD	wordpools/wasnorm_wordpool_less_exclusions.txt	LTP199	ltpFR	4	3	0	CHESS	294	n/a	1	1	0.412841796875	0.57763671875	upper	../fonts/amplitud.ttf
405013	WORD	wordpools/wasnorm_wordpool_less_exclusions.txt	LTP199	ltpFR	4	3	0	GUARD	667	n/a	1	1	0.412841796875	0.57763671875	upper	../fonts/amplitud.ttf
408865	WORD	wordpools/wasnorm_wordpool_less_exclusions.txt	LTP199	ltpFR	4	3	1	WHISKERS	1605	n/a	0	0	0.5869140625	0.422607421875	lower	../fonts/zerothre.ttf
413026	WORD	wordpools/wasnorm_wordpool_less_exclusions.txt	LTP199	ltpFR	4	3	1	CLARINET	317	n/a	0	0	0.5869140625	0.422607421875	lower	../fonts/zerothre.ttf
416875	WORD	wordpools/wasnorm_wordpool_less_exclusions.txt	LTP199	ltpFR	4	3	1	PORT	1110	n/a	0	0	0.5869140625	0.422607421875	lower	../fonts/zerothre.ttf
420989	WORD	wordpools/wasnorm_wordpool_less_exclusions.txt	LTP199	ltpFR	4	3	1	SKI	1316	n/a	0	0	0.5869140625	0.422607421875	lower	../fonts/zerothre.ttf
424938	WORD	wordpools/wasnorm_wordpool_less_exclusions.txt	LTP199	ltpFR	4	3	0	TAPE	1433	n/a	0	1	0.412841796875	0.57763671875	upper	../fonts/amplitud.ttf
428770	WORD	wordpools/wasnorm_wordpool_less_exclusions.txt	LTP199	ltpFR	4	3	0	OUTLAW	989	n/a	1	1	0.412841796875	0.57763671875	upper	../fonts/amplitud.ttf
432687	WORD	wordpools/wasnorm_wordpool_less_exclusions.txt	LTP199	ltpFR	4	3	0	QUEEN	1149	n/a	1	1	0.412841796875	0.57763671875	upper	../fonts/amplitud.ttf
438758	REC_START	n/a	LTP199	ltpFR	4	3	n/a	n/a	n/a	n/a	n/a	n/a	n/a	n/a	n/a	n/a
440214	REC_WORD	wordpools/wasnorm_wordpool_less_exclusions.txt	LTP199	ltpFR	4	3	0	OUTLAW	989	n/a	1	n/a	n/a	n/a	n/a	n/a
441127	REC_WORD	wordpools/wasnorm_wordpool_less_exclusions.txt	LTP199	ltpFR	4	3	0	QUEEN	1149	n/a	1	n/a	n/a	n/a	n/a	n/a
442245	REC_WORD	wordpools/wasnorm_wordpool_less_exclusions.txt	LTP199	ltpFR	4	3	0	DIRECTOR	471	n/a	1	n/a	n/a	n/a	n/a	n/a
444979	REC_WORD	wordpools/wasnorm_wordpool_less_exclusions.txt	LTP199	ltpFR	4	3	0	TAPE	1433	n/a	0	n/a	n/a	n/a	n/a	n/a
449404	REC_WORD	wordpools/wasnorm_wordpool_less_exclusions.txt	LTP199	ltpFR	4	3	1	CARROT	249	n/a	0	n/a	n/a	n/a	n/a	n/a
450636	REC_WORD	wordpools/wasnorm_wordpool_less_exclusions.txt	LTP199	ltpFR	4	3	1	VEGETABLE	1552	n/a	1	n/a	n/a	n/a	n/a	n/a
451943	REC_WORD	wordpools/wasnorm_wordpool_less_exclusions.txt	LTP199	ltpFR	4	3	1	WHISKERS	1605	n/a	0	n/a	n/a	n/a	n/a	n/a
505980	REC_WORD	wordpools/wasnorm_wordpool_less_exclusions.txt	LTP199	ltpFR	4	3	1	FRUIT	610	n/a	0	n/a	n/a	n/a	n/a	n/a
527274	WORD	wordpools/wasnorm_wordpool_less_exclusions.txt	LTP199	ltpFR	4	4	0	DIGGER	464	n/a	1	1	0.412841796875	0.57763671875	upper	../fonts/amplitud.ttf
531457	WORD	wordpools/wasnorm_wordpool_less_exclusions.txt	LTP199	ltpFR	4	4	0	DIRT	472	n/a	0	1	0.412841796875	0.57763671875	upper	../fonts/amplitud.ttf
535438	WORD	wordpools/wasnorm_wordpool_less_exclusions.txt	LTP199	ltpFR	4	4	0	DAISY	435	n/a	0	1	0.412841796875	0.57763671875	upper	../fonts/amplitud.ttf
539353	WORD	wordpools/wasnorm_wordpool_less_exclusions.txt	LTP199	ltpFR	4	4	0	GARDEN	623	n/a	1	1	0.412841796875	0.57763671875	upper	../fonts/amplitud.ttf
543287	WORD	wordpools/wasnorm_wordpool_less_exclusions.txt	LTP199	ltpFR	4	4	0	OATMEAL	967	n/a	0	1	0.412841796875	0.57763671875	upper	../fonts/amplitud.ttf
547300	WORD	wordpools/wasnorm_wordpool_less_exclusions.txt	LTP199	ltpFR	4	4	0	PENGUIN	1044	n/a	1	1	0.412841796875	0.57763671875	upper	../fonts/amplitud.ttf
551269	WORD	wordpools/wasnorm_wordpool_less_exclusions.txt	LTP199	ltpFR	4	4	0	LIP	828	n/a	0	1	0.412841796875	0.57763671875	upper	../fonts/amplitud.ttf
555246	WORD	wordpools/wasnorm_wordpool_less_exclusions.txt	LTP199	ltpFR	4	4	0	RUM	1217	n/a	0	1	0.412841796875	0.57763671875	upper	../fonts/amplitud.ttf
559395	WORD	wordpools/wasnorm_wordpool_less_exclusions.txt	LTP199	ltpFR	4	4	0	DRAGON	492	n/a	1	1	0.412841796875	0.57763671875	upper	../fonts/amplitud.ttf
563461	WORD	wordpools/wasnorm_wordpool_less_exclusions.txt	LTP199	ltpFR	4	4	0	PROFESSIONAL	1130	n/a	1	1	0.412841796875	0.57763671875	upper	../fonts/amplitud.ttf
567292	WORD	wordpools/wasnorm_wordpool_less_exclusions.txt	LTP199	ltpFR	4	4	0	BUYER	208	n/a	1	1	0.412841796875	0.57763671875	upper	../fonts/amplitud.ttf
571273	WORD	wordpools/wasnorm_wordpool_less_exclusions.txt	LTP199	ltpFR	4	4	0	CHARCOAL	281	n/a	0	1	0.412841796875	0.57763671875	upper	../fonts/amplitud.ttf
575238	WORD	wordpools/wasnorm_wordpool_less_exclusions.txt	LTP199	ltpFR	4	4	0	TONGUE	1479	n/a	0	1	0.412841796875	0.57763671875	upper	../fonts/amplitud.ttf
579254	WORD	wordpools/wasnorm_wordpool_less_exclusions.txt	LTP199	ltpFR	4	4	0	BOOT	150	n/a	1	1	0.412841796875	0.57763671875	upper	../fonts/amplitud.ttf
583235	WORD	wordpools/wasnorm_wordpool_less_exclusions.txt	LTP199	ltpFR	4	4	0	SOCK	1339	n/a	0	1	0.412841796875	0.57763671875	upper	../fonts/amplitud.ttf
587334	WORD	wordpools/wasnorm_wordpool_less_exclusions.txt	LTP199	ltpFR	4	4	0	HEATER	698	n/a	1	1	0.412841796875	0.57763671875	upper	../fonts/amplitud.ttf
593089	REC_START	n/a	LTP199	ltpFR	4	4	n/a	n/a	n/a	n/a	n/a	n/a	n/a	n/a	n/a	n/a
594191	REC_WORD	wordpools/wasnorm_wordpool_less_exclusions.txt	LTP199	ltpFR	4	4	0	DIGGER	464	n/a	1	n/a	n/a	n/a	n/a	n/a
595324	REC_WORD	wordpools/wasnorm_wordpool_less_exclusions.txt	LTP199	ltpFR	4	4	0	DIRT	472	n/a	0	n/a	n/a	n/a	n/a	n/a
597998	REC_WORD	wordpools/wasnorm_wordpool_less_exclusions.txt	LTP199	ltpFR	4	4	0	BOOT	150	n/a	1	n/a	n/a	n/a	n/a	n/a
598701	REC_WORD	wordpools/wasnorm_wordpool_less_exclusions.txt	LTP199	ltpFR	4	4	0	SOCK	1339	n/a	0	n/a	n/a	n/a	n/a	n/a
601260	REC_WORD	wordpools/wasnorm_wordpool_less_exclusions.txt	LTP199	ltpFR	4	4	0	DAISY	435	n/a	0	n/a	n/a	n/a	n/a	n/a
602223	REC_WORD	wordpools/wasnorm_wordpool_less_exclusions.txt	LTP199	ltpFR	4	4	0	GARDEN	623	n/a	1	n/a	n/a	n/a	n/a	n/a
604109	REC_WORD	wordpools/wasnorm_wordpool_less_exclusions.txt	LTP199	ltpFR	4	4	0	PENGUIN	1044	n/a	1	n/a	n/a	n/a	n/a	n/a
605156	REC_WORD	wordpools/wasnorm_wordpool_less_exclusions.txt	LTP199	ltpFR	4	4	0	DRAGON	492	n/a	1	n/a	n/a	n/a	n/a	n/a
606743	REC_WORD	wordpools/wasnorm_wordpool_less_exclusions.txt	LTP199	ltpFR	4	4	0	LIP	828	n/a	0	n/a	n/a	n/a	n/a	n/a
607561	REC_WORD	wordpools/wasnorm_wordpool_less_exclusions.txt	LTP199	ltpFR	4	4	0	TONGUE	1479	n/a	0	n/a	n/a	n/a	n/a	n/a
612570	REC_WORD	wordpools/wasnorm_wordpool_less_exclusions.txt	LTP199	ltpFR	4	4	0	CHARCOAL	281	n/a	0	n/a	n/a	n/a	n/a	n/a
615752	REC_WORD	wordpools/wasnorm_wordpool_less_exclusions.txt	LTP199	ltpFR	4	4	0	PROFESSIONAL	1130	n/a	1	n/a	n/a	n/a	n/a	n/a
695341	WORD	wordpools/wasnorm_wordpool_less_exclusions.txt	LTP199	ltpFR	4	5	1	REPORT	1184	n/a	0	0	0.5869140625	0.422607421875	lower	../fonts/zerothre.ttf
699174	WORD	wordpools/wasnorm_wordpool_less_exclusions.txt	LTP199	ltpFR	4	5	1	FISH	571	n/a	1	0	0.5869140625	0.422607421875	lower	../fonts/zerothre.ttf
703104	WORD	wordpools/wasnorm_wordpool_less_exclusions.txt	LTP199	ltpFR	4	5	1	CART	250	n/a	0	0	0.5869140625	0.422607421875	lower	../fonts/zerothre.ttf
707303	WORD	wordpools/wasnorm_wordpool_less_exclusions.txt	LTP199	ltpFR	4	5	1	PLAZA	1088	n/a	0	0	0.5869140625	0.422607421875	lower	../fonts/zerothre.ttf
711418	WORD	wordpools/wasnorm_wordpool_less_exclusions.txt	LTP199	ltpFR	4	5	0	MEAL	882	n/a	0	1	0.412841796875	0.57763671875	upper	../fonts/amplitud.ttf
715617	WORD	wordpools/wasnorm_wordpool_less_exclusions.txt	LTP199	ltpFR	4	5	0	SHRIMP	1297	n/a	0	1	0.412841796875	0.57763671875	upper	../fonts/amplitud.ttf
719817	WORD	wordpools/wasnorm_wordpool_less_exclusions.txt	LTP199	ltpFR	4	5	0	EDITOR	516	n/a	1	1	0.412841796875	0.57763671875	upper	../fonts/amplitud.ttf
723882	WORD	wordpools/wasnorm_wordpool_less_exclusions.txt	LTP199	ltpFR	4	5	0	FIN	566	n/a	1	1	0.412841796875	0.57763671875	upper	../fonts/amplitud.ttf
727797	WORD	wordpools/wasnorm_wordpool_less_exclusions.txt	LTP199	ltpFR	4	5	1	PERCH	1048	n/a	0	0	0.5869140625	0.422607421875	lower	../fonts/zerothre.ttf
731801	WORD	wordpools/wasnorm_wordpool_less_exclusions.txt	LTP199	ltpFR	4	5	1	BARRACUDA	90	n/a	1	0	0.5869140625	0.422607421875	lower	../fonts/zerothre.ttf
735626	WORD	wordpools/wasnorm_wordpool_less_exclusions.txt	LTP199	ltpFR	4	5	0	PELICAN	1039	n/a	1	1	0.412841796875	0.57763671875	upper	../fonts/amplitud.ttf
739658	WORD	wordpools/wasnorm_wordpool_less_exclusions.txt	LTP199	ltpFR	4	5	0	ICE	730	n/a	0	1	0.412841796875	0.57763671875	upper	../fonts/amplitud.ttf
743539	WORD	wordpools/wasnorm_wordpool_less_exclusions.txt	LTP199	ltpFR	4	5	0	HORNET	718	n/a	0	1	0.412841796875	0.57763671875	upper	../fonts/amplitud.ttf
747722	WORD	wordpools/wasnorm_wordpool_less_exclusions.txt	LTP199	ltpFR	4	5	0	PRIMATE	1123	n/a	1	1	0.412841796875	0.57763671875	upper	../fonts/amplitud.ttf
751653	WORD	wordpools/wasnorm_wordpool_less_exclusions.txt	LTP199	ltpFR	4	5	1	JUNGLE	764	n/a	0	0	0.5869140625	0.422607421875	lower	../fonts/zerothre.ttf
755802	WORD	wordpools/wasnorm_wordpool_less_exclusions.txt	LTP199	ltpFR	4	5	1	CRAB	397	n/a	1	0	0.5869140625	0.422607421875	lower	../fonts/zerothre.ttf
761775	REC_START	n/a	LTP199	ltpFR	4	5	n/a	n/a	n/a	n/a	n/a	n/a	n/a	n/a	n/a	n/a
765870	REC_WORD	wordpools/wasnorm_wordpool_less_exclusions.txt	LTP199	ltpFR	4	5	0	HORNET	718	n/a	0	n/a	n/a	n/a	n/a	n/a
766918	REC_WORD	wordpools/wasnorm_wordpool_less_exclusions.txt	LTP199	ltpFR	4	5	1	CRAB	397	n/a	1	n/a	n/a	n/a	n/a	n/a
768475	REC_WORD	wordpools/wasnorm_wordpool_less_exclusions.txt	LTP199	ltpFR	4	5	1	JUNGLE	764	n/a	0	n/a	n/a	n/a	n/a	n/a
769537	REC_WORD	wordpools/wasnorm_wordpool_less_exclusions.txt	LTP199	ltpFR	4	5	0	PRIMATE	1123	n/a	1	n/a	n/a	n/a	n/a	n/a
771996	REC_WORD	wordpools/wasnorm_wordpool_less_exclusions.txt	LTP199	ltpFR	4	5	1	FISH	571	n/a	1	n/a	n/a	n/a	n/a	n/a
774381	REC_WORD	wordpools/wasnorm_wordpool_less_exclusions.txt	LTP199	ltpFR	4	5	1	BARRACUDA	90	n/a	1	n/a	n/a	n/a	n/a	n/a
777050	REC_WORD	wordpools/wasnorm_wordpool_less_exclusions.txt	LTP199	ltpFR	4	5	0	SHRIMP	1297	n/a	0	n/a	n/a	n/a	n/a	n/a
778272	REC_WORD	wordpools/wasnorm_wordpool_less_exclusions.txt	LTP199	ltpFR	4	5	0	MEAL	882	n/a	0	n/a	n/a	n/a	n/a	n/a
779929	REC_WORD	wordpools/wasnorm_wordpool_less_exclusions.txt	LTP199	ltpFR	4	5	1	CART	250	n/a	0	n/a	n/a	n/a	n/a	n/a
794401	REC_WORD	wordpools/wasnorm_wordpool_less_exclusions.txt	LTP199	ltpFR	4	5	0	PELICAN	1039	n/a	1	n/a	n/a	n/a	n/a	n/a
806308	REC_WORD	wordpools/wasnorm_wordpool_less_exclusions.txt	LTP199	ltpFR	4	5	0	FIN	566	n/a	1	n/a	n/a	n/a	n/a	n/a
848085	WORD	wordpools/wasnorm_wordpool_less_exclusions.txt	LTP199	ltpFR	4	6	0	BLUEBERRY	140	n/a	0	1	0.412841796875	0.57763671875	upper	../fonts/amplitud.ttf
852021	WORD	wordpools/wasnorm_wordpool_less_exclusions.txt	LTP199	ltpFR	4	6	0	ESCALATOR	539	n/a	1	1	0.412841796875	0.57763671875	upper	../fonts/amplitud.ttf
855896	WORD	wordpools/wasnorm_wordpool_less_exclusions.txt	LTP199	ltpFR	4	6	0	BEAVER	109	n/a	1	1	0.412841796875	0.57763671875	upper	../fonts/amplitud.ttf
860028	WORD	wordpools/wasnorm_wordpool_less_exclusions.txt	LTP199	ltpFR	4	6	0	BEAST	108	n/a	1	1	0.412841796875	0.57763671875	upper	../fonts/amplitud.ttf
864216	WORD	wordpools/wasnorm_wordpool_less_exclusions.txt	LTP199	ltpFR	4	6	0	MARBLE	867	n/a	0	1	0.412841796875	0.57763671875	upper	../fonts/amplitud.ttf
868393	WORD	wordpools/wasnorm_wordpool_less_exclusions.txt	LTP199	ltpFR	4	6	0	PEACH	1031	n/a	0	1	0.412841796875	0.57763671875	upper	../fonts/amplitud.ttf
872526	WORD	wordpools/wasnorm_wordpool_less_exclusions.txt	LTP199	ltpFR	4	6	0	GENTLEMAN	631	n/a	1	1	0.412841796875	0.57763671875	upper	../fonts/amplitud.ttf
876709	WORD	wordpools/wasnorm_wordpool_less_exclusions.txt	LTP199	ltpFR	4	6	0	FLOOR	581	n/a	1	1	0.412841796875	0.57763671875	upper	../fonts/amplitud.ttf
880773	WORD	wordpools/wasnorm_wordpool_less_exclusions.txt	LTP199	ltpFR	4	6	0	MEDAL	885	n/a	0	1	0.412841796875	0.57763671875	upper	../fonts/amplitud.ttf
884788	WORD	wordpools/wasnorm_wordpool_less_exclusions.txt	LTP199	ltpFR	4	6	0	CUP	424	n/a	0	1	0.412841796875	0.57763671875	upper	../fonts/amplitud.ttf
888753	WORD	wordpools/wasnorm_wordpool_less_exclusions.txt	LTP199	ltpFR	4	6	0	GRAPE	654	n/a	0	1	0.412841796875	0.57763671875	upper	../fonts/amplitud.ttf
892601	WORD	wordpools/wasnorm_wordpool_less_exclusions.txt	LTP199	ltpFR	4	6	0	TROPHY	1509	n/a	1	1	0.412841796875	0.57763671875	upper	../fonts/amplitud.ttf
896817	WORD	wordpools/wasnorm_wordpool_less_exclusions.txt	LTP199	ltpFR	4	6	0	CARPENTER	246	n/a	1	1	0.412841796875	0.57763671875	upper	../fonts/amplitud.ttf
900748	WORD	wordpools/wasnorm_wordpool_less_exclusions.txt	LTP199	ltpFR	4	6	0	RAKE	1164	n/a	1	1	0.412841796875	0.57763671875	upper	../fonts/amplitud.ttf
904963	WORD	wordpools/wasnorm_wordpool_less_exclusions.txt	LTP199	ltpFR	4	6	0	RADIO	1157	n/a	1	1	0.412841796875	0.57763671875	upper	../fonts/amplitud.ttf
909062	WORD	wordpools/wasnorm_wordpool_less_exclusions.txt	LTP199	ltpFR	4	6	0	DISC	473	n/a	0	1	0.412841796875	0.57763671875	upper	../fonts/amplitud.ttf
915104	REC_START	n/a	LTP199	ltpFR	4	6	n/a	n/a	n/a	n/a	n/a	n/a	n/a	n/a	n/a	n/a
916670	REC_WORD	wordpools/wasnorm_wordpool_less_exclusions.txt	LTP199	ltpFR	4	6	0	BLUEBERRY	140	n/a	0	n/a	n/a	n/a	n/a	n/a
918741	REC_WORD	wordpools/wasnorm_wordpool_less_exclusions.txt	LTP199	ltpFR	4	6	0	BEAVER	109	n/a	1	n/a	n/a	n/a	n/a	n/a
919623	REC_WORD	wordpools/wasnorm_wordpool_less_exclusions.txt	LTP199	ltpFR	4	6	0	ESCALATOR	539	n/a	1	n/a	n/a	n/a	n/a	n/a
921604	REC_WORD	wordpools/wasnorm_wordpool_less_exclusions.txt	LTP199	ltpFR	4	6	0	PEACH	1031	n/a	0	n/a	n/a	n/a	n/a	n/a
943614	REC_WORD	wordpools/wasnorm_wordpool_less_exclusions.txt	LTP199	ltpFR	4	6	0	CARPENTER	246	n/a	1	n/a	n/a	n/a	n/a	n/a
954529	REC_WORD	wordpools/wasnorm_wordpool_less_exclusions.txt	LTP199	ltpFR	4	6	0	GRAPE	654	n/a	0	n/a	n/a	n/a	n/a	n/a
960610	REC_WORD	wordpools/wasnorm_wordpool_less_exclusions.txt	LTP199	ltpFR	4	6	0	TROPHY	1509	n/a	1	n/a	n/a	n/a	n/a	n/a
1009241	WORD	wordpools/wasnorm_wordpool_less_exclusions.txt	LTP199	ltpFR	4	7	1	DRIVER	499	n/a	1	0	0.5869140625	0.422607421875	lower	../fonts/zerothre.ttf
1013206	WORD	wordpools/wasnorm_wordpool_less_exclusions.txt	LTP199	ltpFR	4	7	1	TRUCK	1512	n/a	0	0	0.5869140625	0.422607421875	lower	../fonts/zerothre.ttf
1017323	WORD	wordpools/wasnorm_wordpool_less_exclusions.txt	LTP199	ltpFR	4	7	1	APE	31	n/a	1	0	0.5869140625	0.422607421875	lower	../fonts/zerothre.ttf
1021470	WORD	wordpools/wasnorm_wordpool_less_exclusions.txt	LTP199	ltpFR	4	7	1	BRAN	167	n/a	0	0	0.5869140625	0.422607421875	lower	../fonts/zerothre.ttf
1025671	WORD	wordpools/wasnorm_wordpool_less_exclusions.txt	LTP199	ltpFR	4	7	1	LABYRINTH	791	n/a	0	0	0.5869140625	0.422607421875	lower	../fonts/zerothre.ttf
1029885	WORD	wordpools/wasnorm_wordpool_less_exclusions.txt	LTP199	ltpFR	4	7	1	SKUNK	1321	n/a	1	0	0.5869140625	0.422607421875	lower	../fonts/zerothre.ttf
1033949	WORD	wordpools/wasnorm_wordpool_less_exclusions.txt	LTP199	ltpFR	4	7	1	SAND	1230	n/a	0	0	0.5869140625	0.422607421875	lower	../fonts/zerothre.ttf
1038082	WORD	wordpools/wasnorm_wordpool_less_exclusions.txt	LTP199	ltpFR	4	7	1	CHIMPANZEE	302	n/a	1	0	0.5869140625	0.422607421875	lower	../fonts/zerothre.ttf
1041930	WORD	wordpools/wasnorm_wordpool_less_exclusions.txt	LTP199	ltpFR	4	7	1	COOKBOOK	373	n/a	0	0	0.5869140625	0.422607421875	lower	../fonts/zerothre.ttf
1045778	WORD	wordpools/wasnorm_wordpool_less_exclusions.txt	LTP199	ltpFR	4	7	1	MAT	877	n/a	0	0	0.5869140625	0.422607421875	lower	../fonts/zerothre.ttf
1049777	WORD	wordpools/wasnorm_wordpool_less_exclusions.txt	LTP199	ltpFR	4	7	1	SUPPER	1411	n/a	0	0	0.5869140625	0.422607421875	lower	../fonts/zerothre.ttf
1053646	WORD	wordpools/wasnorm_wordpool_less_exclusions.txt	LTP199	ltpFR	4	7	1	TURNIP	1521	n/a	1	0	0.5869140625	0.422607421875	lower	../fonts/zerothre.ttf
1057808	WORD	wordpools/wasnorm_wordpool_less_exclusions.txt	LTP199	ltpFR	4	7	1	FENCE	560	n/a	0	0	0.5869140625	0.422607421875	lower	../fonts/zerothre.ttf
1062022	WORD	wordpools/wasnorm_wordpool_less_exclusions.txt	LTP199	ltpFR	4	7	1	CHICKEN	297	n/a	1	0	0.5869140625	0.422607421875	lower	../fonts/zerothre.ttf
1066189	WORD	wordpools/wasnorm_wordpool_less_exclusions.txt	LTP199	ltpFR	4	7	1	TURKEY	1520	n/a	1	0	0.5869140625	0.422607421875	lower	../fonts/zerothre.ttf
1070154	WORD	wordpools/wasnorm_wordpool_less_exclusions.txt	LTP199	ltpFR	4	7	1	PANTS	1010	n/a	0	0	0.5869140625	0.422607421875	lower	../fonts/zerothre.ttf
1075958	REC_START	n/a	LTP199	ltpFR	4	7	n/a	n/a	n/a	n/a	n/a	n/a	n/a	n/a	n/a	n/a
1077320	REC_WORD	wordpools/wasnorm_wordpool_less_exclusions.txt	LTP199	ltpFR	4	7	1	DRIVER	499	n/a	1	n/a	n/a	n/a	n/a	n/a
1078352	REC_WORD	wordpools/wasnorm_wordpool_less_exclusions.txt	LTP199	ltpFR	4	7	1	TRUCK	1512	n/a	0	n/a	n/a	n/a	n/a	n/a
1079669	REC_WORD	wordpools/wasnorm_wordpool_less_exclusions.txt	LTP199	ltpFR	4	7	1	APE	31	n/a	1	n/a	n/a	n/a	n/a	n/a
1081231	REC_WORD	wordpools/wasnorm_wordpool_less_exclusions.txt	LTP199	ltpFR	4	7	1	BRAN	167	n/a	0	n/a	n/a	n/a	n/a	n/a
1082528	REC_WORD	wordpools/wasnorm_wordpool_less_exclusions.txt	LTP199	ltpFR	4	7	1	LABYRINTH	791	n/a	0	n/a	n/a	n/a	n/a	n/a
1083735	REC_WORD	wordpools/wasnorm_wordpool_less_exclusions.txt	LTP199	ltpFR	4	7	1	SAND	1230	n/a	0	n/a	n/a	n/a	n/a	n/a
1086723	REC_WORD	wordpools/wasnorm_wordpool_less_exclusions.txt	LTP199	ltpFR	4	7	1	SKUNK	1321	n/a	1	n/a	n/a	n/a	n/a	n/a
1087866	REC_WORD	wordpools/wasnorm_wordpool_less_exclusions.txt	LTP199	ltpFR	4	7	1	CHIMPANZEE	302	n/a	1	n/a	n/a	n/a	n/a	n/a
1089756	REC_WORD	wordpools/wasnorm_wordpool_less_exclusions.txt	LTP199	ltpFR	4	7	1	MAT	877	n/a	0	n/a	n/a	n/a	n/a	n/a
1091652	REC_WORD	wordpools/wasnorm_wordpool_less_exclusions.txt	LTP199	ltpFR	4	7	1	TURNIP	1521	n/a	1	n/a	n/a	n/a	n/a	n/a
1114725	REC_WORD	wordpools/wasnorm_wordpool_less_exclusions.txt	LTP199	ltpFR	4	7	1	PANTS	1010	n/a	0	n/a	n/a	n/a	n/a	n/a
1169598	WORD	wordpools/wasnorm_wordpool_less_exclusions.txt	LTP199	ltpFR	4	8	1	ARTERY	41	n/a	1	0	0.5869140625	0.422607421875	lower	../fonts/zerothre.ttf
1173627	WORD	wordpools/wasnorm_wordpool_less_exclusions.txt	LTP199	ltpFR	4	8	1	ASTEROID	50	n/a	0	0	0.5869140625	0.422607421875	lower	../fonts/zerothre.ttf
1177508	WORD	wordpools/wasnorm_wordpool_less_exclusions.txt	LTP199	ltpFR	4	8	1	TYPEWRITER	1531	n/a	0	0	0.5869140625	0.422607421875	lower	../fonts/zerothre.ttf
1181575	WORD	wordpools/wasnorm_wordpool_less_exclusions.txt	LTP199	ltpFR	4	8	1	ANIMAL	23	n/a	1	0	0.5869140625	0.422607421875	lower	../fonts/zerothre.ttf
1185756	WORD	wordpools/wasnorm_wordpool_less_exclusions.txt	LTP199	ltpFR	4	8	1	ASTRONAUT	51	n/a	1	0	0.5869140625	0.422607421875	lower	../fonts/zerothre.ttf
1189574	WORD	wordpools/wasnorm_wordpool_less_exclusions.txt	LTP199	ltpFR	4	8	1	TOILET	1475	n/a	0	0	0.5869140625	0.422607421875	lower	../fonts/zerothre.ttf
1193402	WORD	wordpools/wasnorm_wordpool_less_exclusions.txt	LTP199	ltpFR	4	8	1	PASTRY	1022	n/a	0	0	0.5869140625	0.422607421875	lower	../fonts/zerothre.ttf
1197517	WORD	wordpools/wasnorm_wordpool_less_exclusions.txt	LTP199	ltpFR	4	8	1	BISCUIT	130	n/a	0	0	0.5869140625	0.422607421875	lower	../fonts/zerothre.ttf
1201601	WORD	wordpools/wasnorm_wordpool_less_exclusions.txt	LTP199	ltpFR	4	8	1	RESTAURANT	1187	n/a	0	0	0.5869140625	0.422607421875	lower	../fonts/zerothre.ttf
1205497	WORD	wordpools/wasnorm_wordpool_less_exclusions.txt	LTP199	ltpFR	4	8	1	CUPBOARD	425	n/a	0	0	0.5869140625	0.422607421875	lower	../fonts/zerothre.ttf
1209495	WORD	wordpools/wasnorm_wordpool_less_exclusions.txt	LTP199	ltpFR	4	8	1	MAJOR	859	n/a	1	0	0.5869140625	0.422607421875	lower	../fonts/zerothre.ttf
1213661	WORD	wordpools/wasnorm_wordpool_less_exclusions.txt	LTP199	ltpFR	4	8	1	HEDGE	699	n/a	0	0	0.5869140625	0.422607421875	lower	../fonts/zerothre.ttf
1217492	WORD	wordpools/wasnorm_wordpool_less_exclusions.txt	LTP199	ltpFR	4	8	1	RECEPTIONIST	1174	n/a	1	0	0.5869140625	0.422607421875	lower	../fonts/zerothre.ttf
1221574	WORD	wordpools/wasnorm_wordpool_less_exclusions.txt	LTP199	ltpFR	4	8	1	GRIZZLY	662	n/a	1	0	0.5869140625	0.422607421875	lower	../fonts/zerothre.ttf
1225506	WORD	wordpools/wasnorm_wordpool_less_exclusions.txt	LTP199	ltpFR	4	8	1	SAILOR	1223	n/a	1	0	0.5869140625	0.422607421875	lower	../fonts/zerothre.ttf
1229471	WORD	wordpools/wasnorm_wordpool_less_exclusions.txt	LTP199	ltpFR	4	8	1	VESSEL	1558	n/a	1	0	0.5869140625	0.422607421875	lower	../fonts/zerothre.ttf
1235227	REC_START	n/a	LTP199	ltpFR	4	8	n/a	n/a	n/a	n/a	n/a	n/a	n/a	n/a	n/a	n/a
1236544	REC_WORD	wordpools/wasnorm_wordpool_less_exclusions.txt	LTP199	ltpFR	4	8	1	ARTERY	41	n/a	1	n/a	n/a	n/a	n/a	n/a
1237631	REC_WORD	wordpools/wasnorm_wordpool_less_exclusions.txt	LTP199	ltpFR	4	8	1	ASTEROID	50	n/a	0	n/a	n/a	n/a	n/a	n/a
1238814	REC_WORD	wordpools/wasnorm_wordpool_less_exclusions.txt	LTP199	ltpFR	4	8	1	ASTRONAUT	51	n/a	1	n/a	n/a	n/a	n/a	n/a
1240515	REC_WORD	wordpools/wasnorm_wordpool_less_exclusions.txt	LTP199	ltpFR	4	8	1	VESSEL	1558	n/a	1	n/a	n/a	n/a	n/a	n/a
1246277	REC_WORD	wordpools/wasnorm_wordpool_less_exclusions.txt	LTP199	ltpFR	4	8	1	TYPEWRITER	1531	n/a	0	n/a	n/a	n/a	n/a	n/a
1348486	WORD	wordpools/wasnorm_wordpool_less_exclusions.txt	LTP199	ltpFR	4	9	0	SMOG	1330	n/a	1	1	0.412841796875	0.57763671875	upper	../fonts/amplitud.ttf
1352585	WORD	wordpools/wasnorm_wordpool_less_exclusions.txt	LTP199	ltpFR	4	9	0	CORPORATION	382	n/a	1	1	0.412841796875	0.57763671875	upper	../fonts/amplitud.ttf
1356449	WORD	wordpools/wasnorm_wordpool_less_exclusions.txt	LTP199	ltpFR	4	9	0	CHIP	303	n/a	0	1	0.412841796875	0.57763671875	upper	../fonts/amplitud.ttf
1360665	WORD	wordpools/wasnorm_wordpool_less_exclusions.txt	LTP199	ltpFR	4	9	1	SANDPAPER	1231	n/a	0	0	0.5869140625	0.422607421875	lower	../fonts/zerothre.ttf
1364797	WORD	wordpools/wasnorm_wordpool_less_exclusions.txt	LTP199	ltpFR	4	9	1	DOCK	477	n/a	0	0	0.5869140625	0.422607421875	lower	../fonts/zerothre.ttf
1368712	WORD	wordpools/wasnorm_wordpool_less_exclusions.txt	LTP199	ltpFR	4	9	1	COUGAR	387	n/a	1	0	0.5869140625	0.422607421875	lower	../fonts/zerothre.ttf
1372728	WORD	wordpools/wasnorm_wordpool_less_exclusions.txt	LTP199	ltpFR	4	9	1	TIGER	1467	n/a	1	0	0.5869140625	0.422607421875	lower	../fonts/zerothre.ttf
1376608	WORD	wordpools/wasnorm_wordpool_less_exclusions.txt	LTP199	ltpFR	4	9	0	CORAL	378	n/a	1	1	0.412841796875	0.57763671875	upper	../fonts/amplitud.ttf
1380824	WORD	wordpools/wasnorm_wordpool_less_exclusions.txt	LTP199	ltpFR	4	9	0	MANAGER	863	n/a	1	1	0.412841796875	0.57763671875	upper	../fonts/amplitud.ttf
1384722	WORD	wordpools/wasnorm_wordpool_less_exclusions.txt	LTP199	ltpFR	4	9	0	CIGARETTE	309	n/a	0	1	0.412841796875	0.57763671875	upper	../fonts/amplitud.ttf
1388937	WORD	wordpools/wasnorm_wordpool_less_exclusions.txt	LTP199	ltpFR	4	9	0	DECK	443	n/a	1	1	0.412841796875	0.57763671875	upper	../fonts/amplitud.ttf
1392887	WORD	wordpools/wasnorm_wordpool_less_exclusions.txt	LTP199	ltpFR	4	9	0	JOINT	758	n/a	0	1	0.412841796875	0.57763671875	upper	../fonts/amplitud.ttf
1397068	WORD	wordpools/wasnorm_wordpool_less_exclusions.txt	LTP199	ltpFR	4	9	1	SARDINE	1235	n/a	1	0	0.5869140625	0.422607421875	lower	../fonts/zerothre.ttf
1401066	WORD	wordpools/wasnorm_wordpool_less_exclusions.txt	LTP199	ltpFR	4	9	1	SQUID	1361	n/a	1	0	0.5869140625	0.422607421875	lower	../fonts/zerothre.ttf
1404988	WORD	wordpools/wasnorm_wordpool_less_exclusions.txt	LTP199	ltpFR	4	9	1	APPENDAGE	32	n/a	0	0	0.5869140625	0.422607421875	lower	../fonts/zerothre.ttf
1408963	WORD	wordpools/wasnorm_wordpool_less_exclusions.txt	LTP199	ltpFR	4	9	1	NIECE	952	n/a	1	0	0.5869140625	0.422607421875	lower	../fonts/zerothre.ttf
1414552	REC_START	n/a	LTP199	ltpFR	4	9	n/a	n/a	n/a	n/a	n/a	n/a	n/a	n/a	n/a	n/a
1418618	REC_WORD	wordpools/wasnorm_wordpool_less_exclusions.txt	LTP199	ltpFR	4	9	1	NIECE	952	n/a	1	n/a	n/a	n/a	n/a	n/a
1419410	REC_WORD	wordpools/wasnorm_wordpool_less_exclusions.txt	LTP199	ltpFR	4	9	1	APPENDAGE	32	n/a	0	n/a	n/a	n/a	n/a	n/a
1420838	REC_WORD	wordpools/wasnorm_wordpool_less_exclusions.txt	LTP199	ltpFR	4	9	1	COUGAR	387	n/a	1	n/a	n/a	n/a	n/a	n/a
1421855	REC_WORD	wordpools/wasnorm_wordpool_less_exclusions.txt	LTP199	ltpFR	4	9	1	TIGER	1467	n/a	1	n/a	n/a	n/a	n/a	n/a
1423705	REC_WORD	wordpools/wasnorm_wordpool_less_exclusions.txt	LTP199	ltpFR	4	9	1	SQUID	1361	n/a	1	n/a	n/a	n/a	n/a	n/a
1430261	REC_WORD	wordpools/wasnorm_wordpool_less_exclusions.txt	LTP199	ltpFR	4	9	0	SMOG	1330	n/a	1	n/a	n/a	n/a	n/a	n/a
1431234	REC_WORD	wordpools/wasnorm_wordpool_less_exclusions.txt	LTP199	ltpFR	4	9	0	CORPORATION	382	n/a	1	n/a	n/a	n/a	n/a	n/a
1432671	REC_WORD	wordpools/wasnorm_wordpool_less_exclusions.txt	LTP199	ltpFR	4	9	0	CHIP	303	n/a	0	n/a	n/a	n/a	n/a	n/a
1434117	REC_WORD	wordpools/wasnorm_wordpool_less_exclusions.txt	LTP199	ltpFR	4	9	1	SANDPAPER	1231	n/a	0	n/a	n/a	n/a	n/a	n/a
1466344	REC_WORD	wordpools/wasnorm_wordpool_less_exclusions.txt	LTP199	ltpFR	4	9	0	DECK	443	n/a	1	n/a	n/a	n/a	n/a	n/a
1467242	REC_WORD	wordpools/wasnorm_wordpool_less_exclusions.txt	LTP199	ltpFR	4	9	1	DOCK	477	n/a	0	n/a	n/a	n/a	n/a	n/a
1526808	WORD	wordpools/wasnorm_wordpool_less_exclusions.txt	LTP199	ltpFR	4	10	-1	RECEIPT	1173	n/a	-1	1	1.0	1.0	upper	../fonts/Verdana.ttf
1530973	WORD	wordpools/wasnorm_wordpool_less_exclusions.txt	LTP199	ltpFR	4	10	-1	LIVER	833	n/a	-1	1	1.0	1.0	upper	../fonts/Verdana.ttf
1534923	WORD	wordpools/wasnorm_wordpool_less_exclusions.txt	LTP199	ltpFR	4	10	-1	BALCONY	72	n/a	-1	1	1.0	1.0	upper	../fonts/Verdana.ttf
1538820	WORD	wordpools/wasnorm_wordpool_less_exclusions.txt	LTP199	ltpFR	4	10	-1	BUSH	202	n/a	-1	1	1.0	1.0	upper	../fonts/Verdana.ttf
1542938	WORD	wordpools/wasnorm_wordpool_less_exclusions.txt	LTP199	ltpFR	4	10	-1	LIMB	822	n/a	-1	1	1.0	1.0	upper	../fonts/Verdana.ttf
1546867	WORD	wordpools/wasnorm_wordpool_less_exclusions.txt	LTP199	ltpFR	4	10	-1	RASPBERRY	1168	n/a	-1	1	1.0	1.0	upper	../fonts/Verdana.ttf
1551082	WORD	wordpools/wasnorm_wordpool_less_exclusions.txt	LTP199	ltpFR	4	10	-1	APPLE	33	n/a	-1	1	1.0	1.0	upper	../fonts/Verdana.ttf
1555015	WORD	wordpools/wasnorm_wordpool_less_exclusions.txt	LTP199	ltpFR	4	10	-1	MOAT	903	n/a	-1	1	1.0	1.0	upper	../fonts/Verdana.ttf
1558935	WORD	wordpools/wasnorm_wordpool_less_exclusions.txt	LTP199	ltpFR	4	10	-1	CHECKERS	285	n/a	-1	1	1.0	1.0	upper	../fonts/Verdana.ttf
1562832	WORD	wordpools/wasnorm_wordpool_less_exclusions.txt	LTP199	ltpFR	4	10	-1	TENT	1449	n/a	-1	1	1.0	1.0	upper	../fonts/Verdana.ttf
1566843	WORD	wordpools/wasnorm_wordpool_less_exclusions.txt	LTP199	ltpFR	4	10	-1	NAIL	936	n/a	-1	1	1.0	1.0	upper	../fonts/Verdana.ttf
1570840	WORD	wordpools/wasnorm_wordpool_less_exclusions.txt	LTP199	ltpFR	4	10	-1	PLASTER	1085	n/a	-1	1	1.0	1.0	upper	../fonts/Verdana.ttf
1575005	WORD	wordpools/wasnorm_wordpool_less_exclusions.txt	LTP199	ltpFR	4	10	-1	PAIL	1002	n/a	-1	1	1.0	1.0	upper	../fonts/Verdana.ttf
1579071	WORD	wordpools/wasnorm_wordpool_less_exclusions.txt	LTP199	ltpFR	4	10	-1	KETTLE	772	n/a	-1	1	1.0	1.0	upper	../fonts/Verdana.ttf
1583190	WORD	wordpools/wasnorm_wordpool_less_exclusions.txt	LTP199	ltpFR	4	10	-1	TOASTER	1472	n/a	-1	1	1.0	1.0	upper	../fonts/Verdana.ttf
1587403	WORD	wordpools/wasnorm_wordpool_less_exclusions.txt	LTP199	ltpFR	4	10	-1	COLESLAW	344	n/a	-1	1	1.0	1.0	upper	../fonts/Verdana.ttf
1593057	REC_START	n/a	LTP199	ltpFR	4	10	n/a	n/a	n/a	n/a	n/a	n/a	n/a	n/a	n/a	n/a
1597741	REC_WORD	wordpools/wasnorm_wordpool_less_exclusions.txt	LTP199	ltpFR	4	10	-1	COLESLAW	344	n/a	-1	n/a	n/a	n/a	n/a	n/a
1598938	REC_WORD	wordpools/wasnorm_wordpool_less_exclusions.txt	LTP199	ltpFR	4	10	n/a	TOAST	1471	n/a	n/a	n/a	n/a	n/a	n/a	n/a
1604002	REC_WORD	wordpools/wasnorm_wordpool_less_exclusions.txt	LTP199	ltpFR	4	10	-1	RECEIPT	1173	n/a	-1	n/a	n/a	n/a	n/a	n/a
1605169	REC_WORD	wordpools/wasnorm_wordpool_less_exclusions.txt	LTP199	ltpFR	4	10	-1	LIVER	833	n/a	-1	n/a	n/a	n/a	n/a	n/a
1606426	REC_WORD	wordpools/wasnorm_wordpool_less_exclusions.txt	LTP199	ltpFR	4	10	-1	LIMB	822	n/a	-1	n/a	n/a	n/a	n/a	n/a
1607793	REC_WORD	wordpools/wasnorm_wordpool_less_exclusions.txt	LTP199	ltpFR	4	10	-1	BALCONY	72	n/a	-1	n/a	n/a	n/a	n/a	n/a
1611300	REC_WORD	wordpools/wasnorm_wordpool_less_exclusions.txt	LTP199	ltpFR	4	10	-1	BUSH	202	n/a	-1	n/a	n/a	n/a	n/a	n/a
1612667	REC_WORD	wordpools/wasnorm_wordpool_less_exclusions.txt	LTP199	ltpFR	4	10	-1	TENT	1449	n/a	-1	n/a	n/a	n/a	n/a	n/a
1614214	REC_WORD	wordpools/wasnorm_wordpool_less_exclusions.txt	LTP199	ltpFR	4	10	-1	NAIL	936	n/a	-1	n/a	n/a	n/a	n/a	n/a
1617686	REC_WORD	wordpools/wasnorm_wordpool_less_exclusions.txt	LTP199	ltpFR	4	10	-1	PLASTER	1085	n/a	-1	n/a	n/a	n/a	n/a	n/a
1618998	REC_WORD	wordpools/wasnorm_wordpool_less_exclusions.txt	LTP199	ltpFR	4	10	-1	PAIL	1002	n/a	-1	n/a	n/a	n/a	n/a	n/a
1636393	REC_WORD	wordpools/wasnorm_wordpool_less_exclusions.txt	LTP199	ltpFR	4	10	1	APPENDAGE	32	n/a	0	n/a	n/a	n/a	n/a	n/a
1682629	WORD	wordpools/wasnorm_wordpool_less_exclusions.txt	LTP199	ltpFR	4	11	0	TUNA	1518	n/a	0	1	0.412841796875	0.57763671875	upper	../fonts/amplitud.ttf
1686593	WORD	wordpools/wasnorm_wordpool_less_exclusions.txt	LTP199	ltpFR	4	11	0	CLASS	318	n/a	1	1	0.412841796875	0.57763671875	upper	../fonts/amplitud.ttf
1690494	WORD	wordpools/wasnorm_wordpool_less_exclusions.txt	LTP199	ltpFR	4	11	0	STRAW	1390	n/a	0	1	0.412841796875	0.57763671875	upper	../fonts/amplitud.ttf
1694473	WORD	wordpools/wasnorm_wordpool_less_exclusions.txt	LTP199	ltpFR	4	11	0	TORTOISE	1486	n/a	1	1	0.412841796875	0.57763671875	upper	../fonts/amplitud.ttf
1698488	WORD	wordpools/wasnorm_wordpool_less_exclusions.txt	LTP199	ltpFR	4	11	0	SURF	1412	n/a	1	1	0.412841796875	0.57763671875	upper	../fonts/amplitud.ttf
1702319	WORD	wordpools/wasnorm_wordpool_less_exclusions.txt	LTP199	ltpFR	4	11	0	COMMANDER	354	n/a	1	1	0.412841796875	0.57763671875	upper	../fonts/amplitud.ttf
1706284	WORD	wordpools/wasnorm_wordpool_less_exclusions.txt	LTP199	ltpFR	4	11	0	FOLLOWER	589	n/a	1	1	0.412841796875	0.57763671875	upper	../fonts/amplitud.ttf
1710232	WORD	wordpools/wasnorm_wordpool_less_exclusions.txt	LTP199	ltpFR	4	11	0	CHAMPAGNE	278	n/a	1	1	0.412841796875	0.57763671875	upper	../fonts/amplitud.ttf
1714314	WORD	wordpools/wasnorm_wordpool_less_exclusions.txt	LTP199	ltpFR	4	11	0	SUBURB	1399	n/a	1	1	0.412841796875	0.57763671875	upper	../fonts/amplitud.ttf
1718162	WORD	wordpools/wasnorm_wordpool_less_exclusions.txt	LTP199	ltpFR	4	11	0	PICKLE	1059	n/a	0	1	0.412841796875	0.57763671875	upper	../fonts/amplitud.ttf
1722364	WORD	wordpools/wasnorm_wordpool_less_exclusions.txt	LTP199	ltpFR	4	11	0	PARSLEY	1016	n/a	0	1	0.412841796875	0.57763671875	upper	../fonts/amplitud.ttf
1726326	WORD	wordpools/wasnorm_wordpool_less_exclusions.txt	LTP199	ltpFR	4	11	0	LIBRARY	816	n/a	1	1	0.412841796875	0.57763671875	upper	../fonts/amplitud.ttf
1730459	WORD	wordpools/wasnorm_wordpool_less_exclusions.txt	LTP199	ltpFR	4	11	0	LOBSTER	837	n/a	1	1	0.412841796875	0.57763671875	upper	../fonts/amplitud.ttf
1734658	WORD	wordpools/wasnorm_wordpool_less_exclusions.txt	LTP199	ltpFR	4	11	0	BLACKBOARD	133	n/a	1	1	0.412841796875	0.57763671875	upper	../fonts/amplitud.ttf
1738656	WORD	wordpools/wasnorm_wordpool_less_exclusions.txt	LTP199	ltpFR	4	11	0	STAGE	1366	n/a	1	1	0.412841796875	0.57763671875	upper	../fonts/amplitud.ttf
1742490	WORD	wordpools/wasnorm_wordpool_less_exclusions.txt	LTP199	ltpFR	4	11	0	PEPPER	1047	n/a	0	1	0.412841796875	0.57763671875	upper	../fonts/amplitud.ttf
1748410	REC_START	n/a	LTP199	ltpFR	4	11	n/a	n/a	n/a	n/a	n/a	n/a	n/a	n/a	n/a	n/a
1751398	REC_WORD	wordpools/wasnorm_wordpool_less_exclusions.txt	LTP199	ltpFR	4	11	0	PEPPER	1047	n/a	0	n/a	n/a	n/a	n/a	n/a
1752236	REC_WORD	wordpools/wasnorm_wordpool_less_exclusions.txt	LTP199	ltpFR	4	11	0	STAGE	1366	n/a	1	n/a	n/a	n/a	n/a	n/a
1753718	REC_WORD	wordpools/wasnorm_wordpool_less_exclusions.txt	LTP199	ltpFR	4	11	0	BLACKBOARD	133	n/a	1	n/a	n/a	n/a	n/a	n/a
1754990	REC_WORD	wordpools/wasnorm_wordpool_less_exclusions.txt	LTP199	ltpFR	4	11	0	CLASS	318	n/a	1	n/a	n/a	n/a	n/a	n/a
1858008	WORD	wordpools/wasnorm_wordpool_less_exclusions.txt	LTP199	ltpFR	4	12	-1	PUPPY	1144	n/a	-1	1	1.0	1.0	upper	../fonts/Verdana.ttf
1861887	WORD	wordpools/wasnorm_wordpool_less_exclusions.txt	LTP199	ltpFR	4	12	-1	WOLF	1619	n/a	-1	1	1.0	1.0	upper	../fonts/Verdana.ttf
1865923	WORD	wordpools/wasnorm_wordpool_less_exclusions.txt	LTP199	ltpFR	4	12	-1	BRANDY	169	n/a	-1	1	1.0	1.0	upper	../fonts/Verdana.ttf
1869834	WORD	wordpools/wasnorm_wordpool_less_exclusions.txt	LTP199	ltpFR	4	12	-1	HAT	690	n/a	-1	1	1.0	1.0	upper	../fonts/Verdana.ttf
1873682	WORD	wordpools/wasnorm_wordpool_less_exclusions.txt	LTP199	ltpFR	4	12	-1	GRAVEL	659	n/a	-1	1	1.0	1.0	upper	../fonts/Verdana.ttf
1877663	WORD	wordpools/wasnorm_wordpool_less_exclusions.txt	LTP199	ltpFR	4	12	-1	DRINK	498	n/a	-1	1	1.0	1.0	upper	../fonts/Verdana.ttf
1881729	WORD	wordpools/wasnorm_wordpool_less_exclusions.txt	LTP199	ltpFR	4	12	-1	STOOL	1386	n/a	-1	1	1.0	1.0	upper	../fonts/Verdana.ttf
1885577	WORD	wordpools/wasnorm_wordpool_less_exclusions.txt	LTP199	ltpFR	4	12	-1	HURRICANE	727	n/a	-1	1	1.0	1.0	upper	../fonts/Verdana.ttf
1889491	WORD	wordpools/wasnorm_wordpool_less_exclusions.txt	LTP199	ltpFR	4	12	-1	SHIP	1286	n/a	-1	1	1.0	1.0	upper	../fonts/Verdana.ttf
1893473	WORD	wordpools/wasnorm_wordpool_less_exclusions.txt	LTP199	ltpFR	4	12	-1	LINT	826	n/a	-1	1	1.0	1.0	upper	../fonts/Verdana.ttf
1897455	WORD	wordpools/wasnorm_wordpool_less_exclusions.txt	LTP199	ltpFR	4	12	-1	HIGHWAY	707	n/a	-1	1	1.0	1.0	upper	../fonts/Verdana.ttf
1901620	WORD	wordpools/wasnorm_wordpool_less_exclusions.txt	LTP199	ltpFR	4	12	-1	POET	1095	n/a	-1	1	1.0	1.0	upper	../fonts/Verdana.ttf
1905769	WORD	wordpools/wasnorm_wordpool_less_exclusions.txt	LTP199	ltpFR	4	12	-1	BOOK	149	n/a	-1	1	1.0	1.0	upper	../fonts/Verdana.ttf
1909772	WORD	wordpools/wasnorm_wordpool_less_exclusions.txt	LTP199	ltpFR	4	12	-1	PORCH	1106	n/a	-1	1	1.0	1.0	upper	../fonts/Verdana.ttf
1913682	WORD	wordpools/wasnorm_wordpool_less_exclusions.txt	LTP199	ltpFR	4	12	-1	LIME	823	n/a	-1	1	1.0	1.0	upper	../fonts/Verdana.ttf
1917781	WORD	wordpools/wasnorm_wordpool_less_exclusions.txt	LTP199	ltpFR	4	12	-1	STUMP	1396	n/a	-1	1	1.0	1.0	upper	../fonts/Verdana.ttf
1923838	REC_START	n/a	LTP199	ltpFR	4	12	n/a	n/a	n/a	n/a	n/a	n/a	n/a	n/a	n/a	n/a
1925020	REC_WORD	wordpools/wasnorm_wordpool_less_exclusions.txt	LTP199	ltpFR	4	12	-1	PUPPY	1144	n/a	-1	n/a	n/a	n/a	n/a	n/a
1925853	REC_WORD	wordpools/wasnorm_wordpool_less_exclusions.txt	LTP199	ltpFR	4	12	-1	WOLF	1619	n/a	-1	n/a	n/a	n/a	n/a	n/a
1927479	REC_WORD	wordpools/wasnorm_wordpool_less_exclusions.txt	LTP199	ltpFR	4	12	-1	DRINK	498	n/a	-1	n/a	n/a	n/a	n/a	n/a
1928452	REC_WORD	wordpools/wasnorm_wordpool_less_exclusions.txt	LTP199	ltpFR	4	12	-1	BRANDY	169	n/a	-1	n/a	n/a	n/a	n/a	n/a
1929944	REC_WORD	wordpools/wasnorm_wordpool_less_exclusions.txt	LTP199	ltpFR	4	12	-1	HAT	690	n/a	-1	n/a	n/a	n/a	n/a	n/a
1935780	REC_WORD	wordpools/wasnorm_wordpool_less_exclusions.txt	LTP199	ltpFR	4	12	-1	STOOL	1386	n/a	-1	n/a	n/a	n/a	n/a	n/a
1936888	REC_WORD	wordpools/wasnorm_wordpool_less_exclusions.txt	LTP199	ltpFR	4	12	-1	GRAVEL	659	n/a	-1	n/a	n/a	n/a	n/a	n/a
1939752	REC_WORD	wordpools/wasnorm_wordpool_less_exclusions.txt	LTP199	ltpFR	4	12	-1	HIGHWAY	707	n/a	-1	n/a	n/a	n/a	n/a	n/a
1941080	REC_WORD_VV	wordpools/wasnorm_wordpool_less_exclusions.txt	LTP199	ltpFR	4	12	n/a	<>	-1	n/a	n/a	n/a	n/a	n/a	n/a	n/a
1945588	REC_WORD	wordpools/wasnorm_wordpool_less_exclusions.txt	LTP199	ltpFR	4	12	-1	SHIP	1286	n/a	-1	n/a	n/a	n/a	n/a	n/a
1946576	REC_WORD	wordpools/wasnorm_wordpool_less_exclusions.txt	LTP199	ltpFR	4	12	-1	HURRICANE	727	n/a	-1	n/a	n/a	n/a	n/a	n/a
1950247	REC_WORD	wordpools/wasnorm_wordpool_less_exclusions.txt	LTP199	ltpFR	4	12	-1	STUMP	1396	n/a	-1	n/a	n/a	n/a	n/a	n/a
1999456	REST_REWET	n/a	LTP199	ltpFR	4	12	n/a	n/a	n/a	n/a	n/a	n/a	n/a	n/a	n/a	n/a
2406272	WORD	wordpools/wasnorm_wordpool_less_exclusions.txt	LTP199	ltpFR	4	13	-1	BOMB	147	n/a	-1	1	1.0	1.0	upper	../fonts/Verdana.ttf
2410438	WORD	wordpools/wasnorm_wordpool_less_exclusions.txt	LTP199	ltpFR	4	13	-1	OLIVE	975	n/a	-1	1	1.0	1.0	upper	../fonts/Verdana.ttf
2414371	WORD	wordpools/wasnorm_wordpool_less_exclusions.txt	LTP199	ltpFR	4	13	-1	QUARTER	1148	n/a	-1	1	1.0	1.0	upper	../fonts/Verdana.ttf
2418284	WORD	wordpools/wasnorm_wordpool_less_exclusions.txt	LTP199	ltpFR	4	13	-1	STEWARDESS	1381	n/a	-1	1	1.0	1.0	upper	../fonts/Verdana.ttf
2422370	WORD	wordpools/wasnorm_wordpool_less_exclusions.txt	LTP199	ltpFR	4	13	-1	SHRUB	1299	n/a	-1	1	1.0	1.0	upper	../fonts/Verdana.ttf
2426382	WORD	wordpools/wasnorm_wordpool_less_exclusions.txt	LTP199	ltpFR	4	13	-1	CAR	241	n/a	-1	1	1.0	1.0	upper	../fonts/Verdana.ttf
2430552	WORD	wordpools/wasnorm_wordpool_less_exclusions.txt	LTP199	ltpFR	4	13	-1	PASSENGER	1020	n/a	-1	1	1.0	1.0	upper	../fonts/Verdana.ttf
2434547	WORD	wordpools/wasnorm_wordpool_less_exclusions.txt	LTP199	ltpFR	4	13	-1	WAREHOUSE	1588	n/a	-1	1	1.0	1.0	upper	../fonts/Verdana.ttf
2438577	WORD	wordpools/wasnorm_wordpool_less_exclusions.txt	LTP199	ltpFR	4	13	-1	DANCER	437	n/a	-1	1	1.0	1.0	upper	../fonts/Verdana.ttf
2442709	WORD	wordpools/wasnorm_wordpool_less_exclusions.txt	LTP199	ltpFR	4	13	-1	OBOE	969	n/a	-1	1	1.0	1.0	upper	../fonts/Verdana.ttf
2446641	WORD	wordpools/wasnorm_wordpool_less_exclusions.txt	LTP199	ltpFR	4	13	-1	STEREO	1378	n/a	-1	1	1.0	1.0	upper	../fonts/Verdana.ttf
2450472	WORD	wordpools/wasnorm_wordpool_less_exclusions.txt	LTP199	ltpFR	4	13	-1	RUG	1215	n/a	-1	1	1.0	1.0	upper	../fonts/Verdana.ttf
2454588	WORD	wordpools/wasnorm_wordpool_less_exclusions.txt	LTP199	ltpFR	4	13	-1	SWATTER	1418	n/a	-1	1	1.0	1.0	upper	../fonts/Verdana.ttf
2458536	WORD	wordpools/wasnorm_wordpool_less_exclusions.txt	LTP199	ltpFR	4	13	-1	CENT	270	n/a	-1	1	1.0	1.0	upper	../fonts/Verdana.ttf
2462355	WORD	wordpools/wasnorm_wordpool_less_exclusions.txt	LTP199	ltpFR	4	13	-1	CAPE	237	n/a	-1	1	1.0	1.0	upper	../fonts/Verdana.ttf
2466432	WORD	wordpools/wasnorm_wordpool_less_exclusions.txt	LTP199	ltpFR	4	13	-1	FORK	594	n/a	-1	1	1.0	1.0	upper	../fonts/Verdana.ttf
2472489	REC_START	n/a	LTP199	ltpFR	4	13	n/a	n/a	n/a	n/a	n/a	n/a	n/a	n/a	n/a	n/a
2474439	REC_WORD	wordpools/wasnorm_wordpool_less_exclusions.txt	LTP199	ltpFR	4	13	-1	BOMB	147	n/a	-1	n/a	n/a	n/a	n/a	n/a
2475667	REC_WORD	wordpools/wasnorm_wordpool_less_exclusions.txt	LTP199	ltpFR	4	13	-1	OLIVE	975	n/a	-1	n/a	n/a	n/a	n/a	n/a
2476649	REC_WORD	wordpools/wasnorm_wordpool_less_exclusions.txt	LTP199	ltpFR	4	13	-1	QUARTER	1148	n/a	-1	n/a	n/a	n/a	n/a	n/a
2478425	REC_WORD	wordpools/wasnorm_wordpool_less_exclusions.txt	LTP199	ltpFR	4	13	n/a	COIN	343	n/a	n/a	n/a	n/a	n/a	n/a	n/a
2479752	REC_WORD	wordpools/wasnorm_wordpool_less_exclusions.txt	LTP199	ltpFR	4	13	-1	STEWARDESS	1381	n/a	-1	n/a	n/a	n/a	n/a	n/a
2482057	REC_WORD	wordpools/wasnorm_wordpool_less_exclusions.txt	LTP199	ltpFR	4	13	-1	PASSENGER	1020	n/a	-1	n/a	n/a	n/a	n/a	n/a
2483653	REC_WORD	wordpools/wasnorm_wordpool_less_exclusions.txt	LTP199	ltpFR	4	13	-1	CAR	241	n/a	-1	n/a	n/a	n/a	n/a	n/a
2485689	REC_WORD	wordpools/wasnorm_wordpool_less_exclusions.txt	LTP199	ltpFR	4	13	-1	WAREHOUSE	1588	n/a	-1	n/a	n/a	n/a	n/a	n/a
2487709	REC_WORD	wordpools/wasnorm_wordpool_less_exclusions.txt	LTP199	ltpFR	4	13	-1	SWATTER	1418	n/a	-1	n/a	n/a	n/a	n/a	n/a
2489635	REC_WORD	wordpools/wasnorm_wordpool_less_exclusions.txt	LTP199	ltpFR	4	13	-1	RUG	1215	n/a	-1	n/a	n/a	n/a	n/a	n/a
2491256	REC_WORD	wordpools/wasnorm_wordpool_less_exclusions.txt	LTP199	ltpFR	4	13	-1	FORK	594	n/a	-1	n/a	n/a	n/a	n/a	n/a
2493436	REC_WORD	wordpools/wasnorm_wordpool_less_exclusions.txt	LTP199	ltpFR	4	13	-1	STEREO	1378	n/a	-1	n/a	n/a	n/a	n/a	n/a
2508721	REC_WORD	wordpools/wasnorm_wordpool_less_exclusions.txt	LTP199	ltpFR	4	13	-1	OBOE	969	n/a	-1	n/a	n/a	n/a	n/a	n/a
2510113	REC_WORD	wordpools/wasnorm_wordpool_less_exclusions.txt	LTP199	ltpFR	4	13	-1	DANCER	437	n/a	-1	n/a	n/a	n/a	n/a	n/a
2586920	WORD	wordpools/wasnorm_wordpool_less_exclusions.txt	LTP199	ltpFR	4	14	-1	CITRUS	313	n/a	-1	1	1.0	1.0	upper	../fonts/Verdana.ttf
2590768	WORD	wordpools/wasnorm_wordpool_less_exclusions.txt	LTP199	ltpFR	4	14	-1	CLAW	319	n/a	-1	1	1.0	1.0	upper	../fonts/Verdana.ttf
2594900	WORD	wordpools/wasnorm_wordpool_less_exclusions.txt	LTP199	ltpFR	4	14	-1	TANGERINE	1431	n/a	-1	1	1.0	1.0	upper	../fonts/Verdana.ttf
2598831	WORD	wordpools/wasnorm_wordpool_less_exclusions.txt	LTP199	ltpFR	4	14	-1	RADISH	1158	n/a	-1	1	1.0	1.0	upper	../fonts/Verdana.ttf
2602662	WORD	wordpools/wasnorm_wordpool_less_exclusions.txt	LTP199	ltpFR	4	14	-1	MONARCH	906	n/a	-1	1	1.0	1.0	upper	../fonts/Verdana.ttf
2606598	WORD	wordpools/wasnorm_wordpool_less_exclusions.txt	LTP199	ltpFR	4	14	-1	CASTLE	256	n/a	-1	1	1.0	1.0	upper	../fonts/Verdana.ttf
2610592	WORD	wordpools/wasnorm_wordpool_less_exclusions.txt	LTP199	ltpFR	4	14	-1	BABY	64	n/a	-1	1	1.0	1.0	upper	../fonts/Verdana.ttf
2614423	WORD	wordpools/wasnorm_wordpool_less_exclusions.txt	LTP199	ltpFR	4	14	-1	CHIME	300	n/a	-1	1	1.0	1.0	upper	../fonts/Verdana.ttf
2618258	WORD	wordpools/wasnorm_wordpool_less_exclusions.txt	LTP199	ltpFR	4	14	-1	BERRY	122	n/a	-1	1	1.0	1.0	upper	../fonts/Verdana.ttf
2622370	WORD	wordpools/wasnorm_wordpool_less_exclusions.txt	LTP199	ltpFR	4	14	-1	ROCK	1201	n/a	-1	1	1.0	1.0	upper	../fonts/Verdana.ttf
2626407	WORD	wordpools/wasnorm_wordpool_less_exclusions.txt	LTP199	ltpFR	4	14	-1	SHELTER	1282	n/a	-1	1	1.0	1.0	upper	../fonts/Verdana.ttf
2630300	WORD	wordpools/wasnorm_wordpool_less_exclusions.txt	LTP199	ltpFR	4	14	-1	POLYESTER	1100	n/a	-1	1	1.0	1.0	upper	../fonts/Verdana.ttf
2634482	WORD	wordpools/wasnorm_wordpool_less_exclusions.txt	LTP199	ltpFR	4	14	-1	OUTFIT	988	n/a	-1	1	1.0	1.0	upper	../fonts/Verdana.ttf
2638514	WORD	wordpools/wasnorm_wordpool_less_exclusions.txt	LTP199	ltpFR	4	14	-1	TIE	1466	n/a	-1	1	1.0	1.0	upper	../fonts/Verdana.ttf
2642446	WORD	wordpools/wasnorm_wordpool_less_exclusions.txt	LTP199	ltpFR	4	14	-1	NECKLACE	940	n/a	-1	1	1.0	1.0	upper	../fonts/Verdana.ttf
2646561	WORD	wordpools/wasnorm_wordpool_less_exclusions.txt	LTP199	ltpFR	4	14	-1	RATTLE	1170	n/a	-1	1	1.0	1.0	upper	../fonts/Verdana.ttf
2652317	REC_START	n/a	LTP199	ltpFR	4	14	n/a	n/a	n/a	n/a	n/a	n/a	n/a	n/a	n/a	n/a
2654696	REC_WORD	wordpools/wasnorm_wordpool_less_exclusions.txt	LTP199	ltpFR	4	14	-1	RADISH	1158	n/a	-1	n/a	n/a	n/a	n/a	n/a
2655804	REC_WORD	wordpools/wasnorm_wordpool_less_exclusions.txt	LTP199	ltpFR	4	14	-1	MONARCH	906	n/a	-1	n/a	n/a	n/a	n/a	n/a
2657924	REC_WORD	wordpools/wasnorm_wordpool_less_exclusions.txt	LTP199	ltpFR	4	14	-1	CASTLE	256	n/a	-1	n/a	n/a	n/a	n/a	n/a
2661451	REC_WORD	wordpools/wasnorm_wordpool_less_exclusions.txt	LTP199	ltpFR	4	14	-1	CHIME	300	n/a	-1	n/a	n/a	n/a	n/a	n/a
2662948	REC_WORD	wordpools/wasnorm_wordpool_less_exclusions.txt	LTP199	ltpFR	4	14	-1	BABY	64	n/a	-1	n/a	n/a	n/a	n/a	n/a
2664424	REC_WORD	wordpools/wasnorm_wordpool_less_exclusions.txt	LTP199	ltpFR	4	14	-1	ROCK	1201	n/a	-1	n/a	n/a	n/a	n/a	n/a
2667233	REC_WORD	wordpools/wasnorm_wordpool_less_exclusions.txt	LTP199	ltpFR	4	14	-1	RATTLE	1170	n/a	-1	n/a	n/a	n/a	n/a	n/a
2670500	REC_WORD	wordpools/wasnorm_wordpool_less_exclusions.txt	LTP199	ltpFR	4	14	-1	NECKLACE	940	n/a	-1	n/a	n/a	n/a	n/a	n/a
2671738	REC_WORD	wordpools/wasnorm_wordpool_less_exclusions.txt	LTP199	ltpFR	4	14	-1	POLYESTER	1100	n/a	-1	n/a	n/a	n/a	n/a	n/a
2673154	REC_WORD	wordpools/wasnorm_wordpool_less_exclusions.txt	LTP199	ltpFR	4	14	-1	OUTFIT	988	n/a	-1	n/a	n/a	n/a	n/a	n/a
2674237	REC_WORD	wordpools/wasnorm_wordpool_less_exclusions.txt	LTP199	ltpFR	4	14	-1	TIE	1466	n/a	-1	n/a	n/a	n/a	n/a	n/a
2710753	REC_WORD	wordpools/wasnorm_wordpool_less_exclusions.txt	LTP199	ltpFR	4	14	-1	CITRUS	313	n/a	-1	n/a	n/a	n/a	n/a	n/a
2711821	REC_WORD	wordpools/wasnorm_wordpool_less_exclusions.txt	LTP199	ltpFR	4	14	-1	CLAW	319	n/a	-1	n/a	n/a	n/a	n/a	n/a
2713193	REC_WORD	wordpools/wasnorm_wordpool_less_exclusions.txt	LTP199	ltpFR	4	14	-1	TANGERINE	1431	n/a	-1	n/a	n/a	n/a	n/a	n/a
2738340	WORD	wordpools/wasnorm_wordpool_less_exclusions.txt	LTP199	ltpFR	4	15	1	TOMATO	1476	n/a	0	0	0.5869140625	0.422607421875	lower	../fonts/zerothre.ttf
2742456	WORD	wordpools/wasnorm_wordpool_less_exclusions.txt	LTP199	ltpFR	4	15	1	SPOOL	1356	n/a	0	0	0.5869140625	0.422607421875	lower	../fonts/zerothre.ttf
2746454	WORD	wordpools/wasnorm_wordpool_less_exclusions.txt	LTP199	ltpFR	4	15	1	VICTOR	1563	n/a	1	0	0.5869140625	0.422607421875	lower	../fonts/zerothre.ttf
2750469	WORD	wordpools/wasnorm_wordpool_less_exclusions.txt	LTP199	ltpFR	4	15	1	ROUGE	1213	n/a	0	0	0.5869140625	0.422607421875	lower	../fonts/zerothre.ttf
2754468	WORD	wordpools/wasnorm_wordpool_less_exclusions.txt	LTP199	ltpFR	4	15	0	PUB	1135	n/a	1	1	0.412841796875	0.57763671875	upper	../fonts/amplitud.ttf
2758366	WORD	wordpools/wasnorm_wordpool_less_exclusions.txt	LTP199	ltpFR	4	15	0	THIMBLE	1458	n/a	0	1	0.412841796875	0.57763671875	upper	../fonts/amplitud.ttf
2762185	WORD	wordpools/wasnorm_wordpool_less_exclusions.txt	LTP199	ltpFR	4	15	0	THRONE	1461	n/a	1	1	0.412841796875	0.57763671875	upper	../fonts/amplitud.ttf
2766380	WORD	wordpools/wasnorm_wordpool_less_exclusions.txt	LTP199	ltpFR	4	15	0	KING	777	n/a	1	1	0.412841796875	0.57763671875	upper	../fonts/amplitud.ttf
2770400	WORD	wordpools/wasnorm_wordpool_less_exclusions.txt	LTP199	ltpFR	4	15	0	LAKE	796	n/a	1	1	0.412841796875	0.57763671875	upper	../fonts/amplitud.ttf
2774226	WORD	wordpools/wasnorm_wordpool_less_exclusions.txt	LTP199	ltpFR	4	15	0	STEAM	1375	n/a	1	1	0.412841796875	0.57763671875	upper	../fonts/amplitud.ttf
2778190	WORD	wordpools/wasnorm_wordpool_less_exclusions.txt	LTP199	ltpFR	4	15	1	WINE	1613	n/a	0	0	0.5869140625	0.422607421875	lower	../fonts/zerothre.ttf
2782344	WORD	wordpools/wasnorm_wordpool_less_exclusions.txt	LTP199	ltpFR	4	15	1	HARE	688	n/a	1	0	0.5869140625	0.422607421875	lower	../fonts/zerothre.ttf
2786539	WORD	wordpools/wasnorm_wordpool_less_exclusions.txt	LTP199	ltpFR	4	15	1	PAINTING	1005	n/a	0	0	0.5869140625	0.422607421875	lower	../fonts/zerothre.ttf
2790738	WORD	wordpools/wasnorm_wordpool_less_exclusions.txt	LTP199	ltpFR	4	15	1	PIKE	1067	n/a	0	0	0.5869140625	0.422607421875	lower	../fonts/zerothre.ttf
2794902	WORD	wordpools/wasnorm_wordpool_less_exclusions.txt	LTP199	ltpFR	4	15	0	SISTER	1312	n/a	1	1	0.412841796875	0.57763671875	upper	../fonts/amplitud.ttf
2799119	WORD	wordpools/wasnorm_wordpool_less_exclusions.txt	LTP199	ltpFR	4	15	0	JUGGLER	763	n/a	1	1	0.412841796875	0.57763671875	upper	../fonts/amplitud.ttf
2805025	REC_START	n/a	LTP199	ltpFR	4	15	n/a	n/a	n/a	n/a	n/a	n/a	n/a	n/a	n/a	n/a
2807524	REC_WORD	wordpools/wasnorm_wordpool_less_exclusions.txt	LTP199	ltpFR	4	15	1	VICTOR	1563	n/a	1	n/a	n/a	n/a	n/a	n/a
2808756	REC_WORD	wordpools/wasnorm_wordpool_less_exclusions.txt	LTP199	ltpFR	4	15	0	KING	777	n/a	1	n/a	n/a	n/a	n/a	n/a
2810382	REC_WORD	wordpools/wasnorm_wordpool_less_exclusions.txt	LTP199	ltpFR	4	15	0	THRONE	1461	n/a	1	n/a	n/a	n/a	n/a	n/a
2815441	REC_WORD	wordpools/wasnorm_wordpool_less_exclusions.txt	LTP199	ltpFR	4	15	0	JUGGLER	763	n/a	1	n/a	n/a	n/a	n/a	n/a
2821961	REC_WORD	wordpools/wasnorm_wordpool_less_exclusions.txt	LTP199	ltpFR	4	15	1	HARE	688	n/a	1	n/a	n/a	n/a	n/a	n/a
2826291	REC_WORD	wordpools/wasnorm_wordpool_less_exclusions.txt	LTP199	ltpFR	4	15	1	ROUGE	1213	n/a	0	n/a	n/a	n/a	n/a	n/a
2837301	REC_WORD	wordpools/wasnorm_wordpool_less_exclusions.txt	LTP199	ltpFR	4	15	1	SPOOL	1356	n/a	0	n/a	n/a	n/a	n/a	n/a
2877919	REC_WORD	wordpools/wasnorm_wordpool_less_exclusions.txt	LTP199	ltpFR	4	15	0	LAKE	796	n/a	1	n/a	n/a	n/a	n/a	n/a
2878772	REC_WORD	wordpools/wasnorm_wordpool_less_exclusions.txt	LTP199	ltpFR	4	15	0	STEAM	1375	n/a	1	n/a	n/a	n/a	n/a	n/a
2949084	WORD	wordpools/wasnorm_wordpool_less_exclusions.txt	LTP199	ltpFR	4	16	1	SHERIFF	1284	n/a	1	0	0.5869140625	0.422607421875	lower	../fonts/zerothre.ttf
2953082	WORD	wordpools/wasnorm_wordpool_less_exclusions.txt	LTP199	ltpFR	4	16	1	SIREN	1310	n/a	0	0	0.5869140625	0.422607421875	lower	../fonts/zerothre.ttf
2957133	WORD	wordpools/wasnorm_wordpool_less_exclusions.txt	LTP199	ltpFR	4	16	1	TRACTOR	1493	n/a	1	0	0.5869140625	0.422607421875	lower	../fonts/zerothre.ttf
2961297	WORD	wordpools/wasnorm_wordpool_less_exclusions.txt	LTP199	ltpFR	4	16	1	CAGE	218	n/a	0	0	0.5869140625	0.422607421875	lower	../fonts/zerothre.ttf
2965195	WORD	wordpools/wasnorm_wordpool_less_exclusions.txt	LTP199	ltpFR	4	16	1	DESSERT	453	n/a	0	0	0.5869140625	0.422607421875	lower	../fonts/zerothre.ttf
2969093	WORD	wordpools/wasnorm_wordpool_less_exclusions.txt	LTP199	ltpFR	4	16	1	RUNNER	1218	n/a	1	0	0.5869140625	0.422607421875	lower	../fonts/zerothre.ttf
2973309	WORD	wordpools/wasnorm_wordpool_less_exclusions.txt	LTP199	ltpFR	4	16	1	BARTENDER	92	n/a	1	0	0.5869140625	0.422607421875	lower	../fonts/zerothre.ttf
2977291	WORD	wordpools/wasnorm_wordpool_less_exclusions.txt	LTP199	ltpFR	4	16	1	MOTHER	921	n/a	1	0	0.5869140625	0.422607421875	lower	../fonts/zerothre.ttf
2981129	WORD	wordpools/wasnorm_wordpool_less_exclusions.txt	LTP199	ltpFR	4	16	1	TEAM	1441	n/a	1	0	0.5869140625	0.422607421875	lower	../fonts/zerothre.ttf
2985040	WORD	wordpools/wasnorm_wordpool_less_exclusions.txt	LTP199	ltpFR	4	16	1	CANDY	230	n/a	0	0	0.5869140625	0.422607421875	lower	../fonts/zerothre.ttf
2989219	WORD	wordpools/wasnorm_wordpool_less_exclusions.txt	LTP199	ltpFR	4	16	1	POCKET	1093	n/a	0	0	0.5869140625	0.422607421875	lower	../fonts/zerothre.ttf
2993435	WORD	wordpools/wasnorm_wordpool_less_exclusions.txt	LTP199	ltpFR	4	16	1	FRANCE	601	n/a	0	0	0.5869140625	0.422607421875	lower	../fonts/zerothre.ttf
2997467	WORD	wordpools/wasnorm_wordpool_less_exclusions.txt	LTP199	ltpFR	4	16	1	DAD	433	n/a	1	0	0.5869140625	0.422607421875	lower	../fonts/zerothre.ttf
3001315	WORD	wordpools/wasnorm_wordpool_less_exclusions.txt	LTP199	ltpFR	4	16	1	FELLOW	558	n/a	1	0	0.5869140625	0.422607421875	lower	../fonts/zerothre.ttf
3005447	WORD	wordpools/wasnorm_wordpool_less_exclusions.txt	LTP199	ltpFR	4	16	1	PEDESTRIAN	1038	n/a	1	0	0.5869140625	0.422607421875	lower	../fonts/zerothre.ttf
3009579	WORD	wordpools/wasnorm_wordpool_less_exclusions.txt	LTP199	ltpFR	4	16	1	HIKER	708	n/a	1	0	0.5869140625	0.422607421875	lower	../fonts/zerothre.ttf
3015435	REC_START	n/a	LTP199	ltpFR	4	16	n/a	n/a	n/a	n/a	n/a	n/a	n/a	n/a	n/a	n/a
3019964	REC_WORD	wordpools/wasnorm_wordpool_less_exclusions.txt	LTP199	ltpFR	4	16	1	MOTHER	921	n/a	1	n/a	n/a	n/a	n/a	n/a
3021007	REC_WORD	wordpools/wasnorm_wordpool_less_exclusions.txt	LTP199	ltpFR	4	16	1	CANDY	230	n/a	0	n/a	n/a	n/a	n/a	n/a
3022404	REC_WORD	wordpools/wasnorm_wordpool_less_exclusions.txt	LTP199	ltpFR	4	16	1	POCKET	1093	n/a	0	n/a	n/a	n/a	n/a	n/a
3023666	REC_WORD	wordpools/wasnorm_wordpool_less_exclusions.txt	LTP199	ltpFR	4	16	1	RUNNER	1218	n/a	1	n/a	n/a	n/a	n/a	n/a
3024823	REC_WORD	wordpools/wasnorm_wordpool_less_exclusions.txt	LTP199	ltpFR	4	16	1	PEDESTRIAN	1038	n/a	1	n/a	n/a	n/a	n/a	n/a
3026699	REC_WORD	wordpools/wasnorm_wordpool_less_exclusions.txt	LTP199	ltpFR	4	16	1	DAD	433	n/a	1	n/a	n/a	n/a	n/a	n/a
3030281	REC_WORD	wordpools/wasnorm_wordpool_less_exclusions.txt	LTP199	ltpFR	4	16	1	TRACTOR	1493	n/a	1	n/a	n/a	n/a	n/a	n/a
3033778	REC_WORD	wordpools/wasnorm_wordpool_less_exclusions.txt	LTP199	ltpFR	4	16	1	CAGE	218	n/a	0	n/a	n/a	n/a	n/a	n/a
3035125	REC_WORD	wordpools/wasnorm_wordpool_less_exclusions.txt	LTP199	ltpFR	4	16	1	DESSERT	453	n/a	0	n/a	n/a	n/a	n/a	n/a
3061604	REC_WORD	wordpools/wasnorm_wordpool_less_exclusions.txt	LTP199	ltpFR	4	16	1	FELLOW	558	n/a	1	n/a	n/a	n/a	n/a	n/a
3069652	REC_WORD	wordpools/wasnorm_wordpool_less_exclusions.txt	LTP199	ltpFR	4	16	1	TEAM	1441	n/a	1	n/a	n/a	n/a	n/a	n/a
3113421	REC_START	n/a	LTP199	ltpFR	4	n/a	n/a	n/a	n/a	n/a	n/a	n/a	n/a	n/a	n/a	n/a
3115237	FFR_REC_WORD	wordpools/wasnorm_wordpool_less_exclusions.txt	LTP199	ltpFR	4	n/a	1	DAD	433	n/a	1	n/a	n/a	n/a	n/a	n/a
3116014	FFR_REC_WORD	wordpools/wasnorm_wordpool_less_exclusions.txt	LTP199	ltpFR	4	n/a	0	SISTER	1312	n/a	1	n/a	n/a	n/a	n/a	n/a
3119632	FFR_REC_WORD	wordpools/wasnorm_wordpool_less_exclusions.txt	LTP199	ltpFR	4	n/a	1	RUNNER	1218	n/a	1	n/a	n/a	n/a	n/a	n/a
3120555	FFR_REC_WORD	wordpools/wasnorm_wordpool_less_exclusions.txt	LTP199	ltpFR	4	n/a	n/a	MOM	-1	n/a	n/a	n/a	n/a	n/a	n/a	n/a
3121991	FFR_REC_WORD	wordpools/wasnorm_wordpool_less_exclusions.txt	LTP199	ltpFR	4	n/a	1	PEDESTRIAN	1038	n/a	1	n/a	n/a	n/a	n/a	n/a
3123213	FFR_REC_WORD	wordpools/wasnorm_wordpool_less_exclusions.txt	LTP199	ltpFR	4	n/a	1	FELLOW	558	n/a	1	n/a	n/a	n/a	n/a	n/a
3125513	FFR_REC_WORD	wordpools/wasnorm_wordpool_less_exclusions.txt	LTP199	ltpFR	4	n/a	1	TRACTOR	1493	n/a	1	n/a	n/a	n/a	n/a	n/a
3127907	FFR_REC_WORD	wordpools/wasnorm_wordpool_less_exclusions.txt	LTP199	ltpFR	4	n/a	1	SKUNK	1321	n/a	1	n/a	n/a	n/a	n/a	n/a
3130307	FFR_REC_WORD	wordpools/wasnorm_wordpool_less_exclusions.txt	LTP199	ltpFR	4	n/a	1	APE	31	n/a	1	n/a	n/a	n/a	n/a	n/a
3131136	FFR_REC_WORD	wordpools/wasnorm_wordpool_less_exclusions.txt	LTP199	ltpFR	4	n/a	1	CHIMPANZEE	302	n/a	1	n/a	n/a	n/a	n/a	n/a
3133375	FFR_REC_WORD	wordpools/wasnorm_wordpool_less_exclusions.txt	LTP199	ltpFR	4	n/a	1	HARE	688	n/a	1	n/a	n/a	n/a	n/a	n/a
3142654	FFR_REC_WORD	wordpools/wasnorm_wordpool_less_exclusions.txt	LTP199	ltpFR	4	n/a	1	TRACTOR	1493	n/a	1	n/a	n/a	n/a	n/a	n/a
3146411	FFR_REC_WORD	wordpools/wasnorm_wordpool_less_exclusions.txt	LTP199	ltpFR	4	n/a	1	ATTORNEY	58	n/a	1	n/a	n/a	n/a	n/a	n/a
3148581	FFR_REC_WORD	wordpools/wasnorm_wordpool_less_exclusions.txt	LTP199	ltpFR	4	n/a	0	HORNET	718	n/a	0	n/a	n/a	n/a	n/a	n/a
3150013	FFR_REC_WORD	wordpools/wasnorm_wordpool_less_exclusions.txt	LTP199	ltpFR	4	n/a	0	WRIST	1626	n/a	0	n/a	n/a	n/a	n/a	n/a
3151160	FFR_REC_WORD	wordpools/wasnorm_wordpool_less_exclusions.txt	LTP199	ltpFR	4	n/a	n/a	KNEE	784	n/a	n/a	n/a	n/a	n/a	n/a	n/a
3152492	FFR_REC_WORD	wordpools/wasnorm_wordpool_less_exclusions.txt	LTP199	ltpFR	4	n/a	0	JOINT	758	n/a	0	n/a	n/a	n/a	n/a	n/a
3157795	FFR_REC_WORD	wordpools/wasnorm_wordpool_less_exclusions.txt	LTP199	ltpFR	4	n/a	0	QUEEN	1149	n/a	1	n/a	n/a	n/a	n/a	n/a
3158663	FFR_REC_WORD	wordpools/wasnorm_wordpool_less_exclusions.txt	LTP199	ltpFR	4	n/a	0	KING	777	n/a	1	n/a	n/a	n/a	n/a	n/a
3159935	FFR_REC_WORD	wordpools/wasnorm_wordpool_less_exclusions.txt	LTP199	ltpFR	4	n/a	0	THRONE	1461	n/a	1	n/a	n/a	n/a	n/a	n/a
3160972	FFR_REC_WORD	wordpools/wasnorm_wordpool_less_exclusions.txt	LTP199	ltpFR	4	n/a	1	VICTOR	1563	n/a	1	n/a	n/a	n/a	n/a	n/a
3162330	FFR_REC_WORD	wordpools/wasnorm_wordpool_less_exclusions.txt	LTP199	ltpFR	4	n/a	-1	MONARCH	906	n/a	-1	n/a	n/a	n/a	n/a	n/a
3163437	FFR_REC_WORD	wordpools/wasnorm_wordpool_less_exclusions.txt	LTP199	ltpFR	4	n/a	-1	CASTLE	256	n/a	-1	n/a	n/a	n/a	n/a	n/a
3164939	FFR_REC_WORD	wordpools/wasnorm_wordpool_less_exclusions.txt	LTP199	ltpFR	4	n/a	-1	BABY	64	n/a	-1	n/a	n/a	n/a	n/a	n/a
3166261	FFR_REC_WORD	wordpools/wasnorm_wordpool_less_exclusions.txt	LTP199	ltpFR	4	n/a	-1	CHIME	300	n/a	-1	n/a	n/a	n/a	n/a	n/a
3167293	FFR_REC_WORD	wordpools/wasnorm_wordpool_less_exclusions.txt	LTP199	ltpFR	4	n/a	-1	RATTLE	1170	n/a	-1	n/a	n/a	n/a	n/a	n/a
3168660	FFR_REC_WORD	wordpools/wasnorm_wordpool_less_exclusions.txt	LTP199	ltpFR	4	n/a	-1	ROCK	1201	n/a	-1	n/a	n/a	n/a	n/a	n/a
3170646	FFR_REC_WORD	wordpools/wasnorm_wordpool_less_exclusions.txt	LTP199	ltpFR	4	n/a	-1	GRAVEL	659	n/a	-1	n/a	n/a	n/a	n/a	n/a
3172901	FFR_REC_WORD	wordpools/wasnorm_wordpool_less_exclusions.txt	LTP199	ltpFR	4	n/a	0	DRIVEWAY	500	n/a	1	n/a	n/a	n/a	n/a	n/a
3174058	FFR_REC_WORD	wordpools/wasnorm_wordpool_less_exclusions.txt	LTP199	ltpFR	4	n/a	-1	CAR	241	n/a	-1	n/a	n/a	n/a	n/a	n/a
3175385	FFR_REC_WORD	wordpools/wasnorm_wordpool_less_exclusions.txt	LTP199	ltpFR	4	n/a	-1	STEWARDESS	1381	n/a	-1	n/a	n/a	n/a	n/a	n/a
3176802	FFR_REC_WORD	wordpools/wasnorm_wordpool_less_exclusions.txt	LTP199	ltpFR	4	n/a	n/a	PLANE	1081	n/a	n/a	n/a	n/a	n/a	n/a	n/a
3179256	FFR_REC_WORD	wordpools/wasnorm_wordpool_less_exclusions.txt	LTP199	ltpFR	4	n/a	-1	BOMB	147	n/a	-1	n/a	n/a	n/a	n/a	n/a
3181346	FFR_REC_WORD	wordpools/wasnorm_wordpool_less_exclusions.txt	LTP199	ltpFR	4	n/a	-1	PASSENGER	1020	n/a	-1	n/a	n/a	n/a	n/a	n/a
3182469	FFR_REC_WORD	wordpools/wasnorm_wordpool_less_exclusions.txt	LTP199	ltpFR	4	n/a	-1	OLIVE	975	n/a	-1	n/a	n/a	n/a	n/a	n/a
3183561	FFR_REC_WORD	wordpools/wasnorm_wordpool_less_exclusions.txt	LTP199	ltpFR	4	n/a	-1	QUARTER	1148	n/a	-1	n/a	n/a	n/a	n/a	n/a
3184833	FFR_REC_WORD	wordpools/wasnorm_wordpool_less_exclusions.txt	LTP199	ltpFR	4	n/a	n/a	COIN	343	n/a	n/a	n/a	n/a	n/a	n/a	n/a
3187029	FFR_REC_WORD	wordpools/wasnorm_wordpool_less_exclusions.txt	LTP199	ltpFR	4	n/a	1	CASH	252	n/a	0	n/a	n/a	n/a	n/a	n/a
3193569	FFR_REC_WORD	wordpools/wasnorm_wordpool_less_exclusions.txt	LTP199	ltpFR	4	n/a	-1	TANGERINE	1431	n/a	-1	n/a	n/a	n/a	n/a	n/a
3194975	FFR_REC_WORD	wordpools/wasnorm_wordpool_less_exclusions.txt	LTP199	ltpFR	4	n/a	-1	RADISH	1158	n/a	-1	n/a	n/a	n/a	n/a	n/a
3197096	FFR_REC_WORD	wordpools/wasnorm_wordpool_less_exclusions.txt	LTP199	ltpFR	4	n/a	1	CARROT	249	n/a	0	n/a	n/a	n/a	n/a	n/a
3197978	FFR_REC_WORD	wordpools/wasnorm_wordpool_less_exclusions.txt	LTP199	ltpFR	4	n/a	1	FRUIT	610	n/a	0	n/a	n/a	n/a	n/a	n/a
3199231	FFR_REC_WORD	wordpools/wasnorm_wordpool_less_exclusions.txt	LTP199	ltpFR	4	n/a	1	VEGETABLE	1552	n/a	1	n/a	n/a	n/a	n/a	n/a
3200957	FFR_REC_WORD	wordpools/wasnorm_wordpool_less_exclusions.txt	LTP199	ltpFR	4	n/a	0	ELM	527	n/a	1	n/a	n/a	n/a	n/a	n/a
3203511	FFR_REC_WORD	wordpools/wasnorm_wordpool_less_exclusions.txt	LTP199	ltpFR	4	n/a	1	TEAM	1441	n/a	1	n/a	n/a	n/a	n/a	n/a
3209667	FFR_REC_WORD	wordpools/wasnorm_wordpool_less_exclusions.txt	LTP199	ltpFR	4	n/a	-1	NECKLACE	940	n/a	-1	n/a	n/a	n/a	n/a	n/a
3211897	FFR_REC_WORD	wordpools/wasnorm_wordpool_less_exclusions.txt	LTP199	ltpFR	4	n/a	-1	POLYESTER	1100	n/a	-1	n/a	n/a	n/a	n/a	n/a
3212979	FFR_REC_WORD	wordpools/wasnorm_wordpool_less_exclusions.txt	LTP199	ltpFR	4	n/a	-1	OUTFIT	988	n/a	-1	n/a	n/a	n/a	n/a	n/a
3214052	FFR_REC_WORD	wordpools/wasnorm_wordpool_less_exclusions.txt	LTP199	ltpFR	4	n/a	-1	TIE	1466	n/a	-1	n/a	n/a	n/a	n/a	n/a
3215893	FFR_REC_WORD	wordpools/wasnorm_wordpool_less_exclusions.txt	LTP199	ltpFR	4	n/a	1	PANTS	1010	n/a	0	n/a	n/a	n/a	n/a	n/a
3219055	FFR_REC_WORD	wordpools/wasnorm_wordpool_less_exclusions.txt	LTP199	ltpFR	4	n/a	1	FOREHEAD	592	n/a	1	n/a	n/a	n/a	n/a	n/a
3220777	FFR_REC_WORD	wordpools/wasnorm_wordpool_less_exclusions.txt	LTP199	ltpFR	4	n/a	1	ARTERY	41	n/a	1	n/a	n/a	n/a	n/a	n/a
3221630	FFR_REC_WORD	wordpools/wasnorm_wordpool_less_exclusions.txt	LTP199	ltpFR	4	n/a	1	VESSEL	1558	n/a	1	n/a	n/a	n/a	n/a	n/a
3225132	FFR_REC_WORD	wordpools/wasnorm_wordpool_less_exclusions.txt	LTP199	ltpFR	4	n/a	0	FURNITURE	616	n/a	1	n/a	n/a	n/a	n/a	n/a
3226249	FFR_REC_WORD	wordpools/wasnorm_wordpool_less_exclusions.txt	LTP199	ltpFR	4	n/a	0	BUREAU	199	n/a	1	n/a	n/a	n/a	n/a	n/a
3230674	FFR_REC_WORD	wordpools/wasnorm_wordpool_less_exclusions.txt	LTP199	ltpFR	4	n/a	0	LAKE	796	n/a	1	n/a	n/a	n/a	n/a	n/a
3231317	FFR_REC_WORD	wordpools/wasnorm_wordpool_less_exclusions.txt	LTP199	ltpFR	4	n/a	0	STEAM	1375	n/a	1	n/a	n/a	n/a	n/a	n/a
3238152	FFR_REC_WORD	wordpools/wasnorm_wordpool_less_exclusions.txt	LTP199	ltpFR	4	n/a	1	BRAN	167	n/a	0	n/a	n/a	n/a	n/a	n/a
3239340	FFR_REC_WORD	wordpools/wasnorm_wordpool_less_exclusions.txt	LTP199	ltpFR	4	n/a	-1	OBOE	969	n/a	-1	n/a	n/a	n/a	n/a	n/a
3241415	FFR_REC_WORD	wordpools/wasnorm_wordpool_less_exclusions.txt	LTP199	ltpFR	4	n/a	-1	DANCER	437	n/a	-1	n/a	n/a	n/a	n/a	n/a
3245191	FFR_REC_WORD	wordpools/wasnorm_wordpool_less_exclusions.txt	LTP199	ltpFR	4	n/a	-1	RUG	1215	n/a	-1	n/a	n/a	n/a	n/a	n/a
3245964	FFR_REC_WORD	wordpools/wasnorm_wordpool_less_exclusions.txt	LTP199	ltpFR	4	n/a	-1	SWATTER	1418	n/a	-1	n/a	n/a	n/a	n/a	n/a
3247351	FFR_REC_WORD	wordpools/wasnorm_wordpool_less_exclusions.txt	LTP199	ltpFR	4	n/a	-1	FORK	594	n/a	-1	n/a	n/a	n/a	n/a	n/a
3252315	FFR_REC_WORD	wordpools/wasnorm_wordpool_less_exclusions.txt	LTP199	ltpFR	4	n/a	0	GARDEN	623	n/a	1	n/a	n/a	n/a	n/a	n/a
3253168	FFR_REC_WORD	wordpools/wasnorm_wordpool_less_exclusions.txt	LTP199	ltpFR	4	n/a	0	DAISY	435	n/a	0	n/a	n/a	n/a	n/a	n/a
3255493	FFR_REC_WORD	wordpools/wasnorm_wordpool_less_exclusions.txt	LTP199	ltpFR	4	n/a	0	DIRT	472	n/a	0	n/a	n/a	n/a	n/a	n/a
3256456	FFR_REC_WORD	wordpools/wasnorm_wordpool_less_exclusions.txt	LTP199	ltpFR	4	n/a	0	DIGGER	464	n/a	1	n/a	n/a	n/a	n/a	n/a
3263464	FFR_REC_WORD	wordpools/wasnorm_wordpool_less_exclusions.txt	LTP199	ltpFR	4	n/a	0	SMOG	1330	n/a	1	n/a	n/a	n/a	n/a	n/a
3267730	FFR_REC_WORD	wordpools/wasnorm_wordpool_less_exclusions.txt	LTP199	ltpFR	4	n/a	0	CORPORATION	382	n/a	1	n/a	n/a	n/a	n/a	n/a
3269212	FFR_REC_WORD	wordpools/wasnorm_wordpool_less_exclusions.txt	LTP199	ltpFR	4	n/a	0	CHIP	303	n/a	0	n/a	n/a	n/a	n/a	n/a
3280606	FFR_REC_WORD	wordpools/wasnorm_wordpool_less_exclusions.txt	LTP199	ltpFR	4	n/a	1	GRIZZLY	662	n/a	1	n/a	n/a	n/a	n/a	n/a
3286931	FFR_REC_WORD	wordpools/wasnorm_wordpool_less_exclusions.txt	LTP199	ltpFR	4	n/a	1	FENCE	560	n/a	0	n/a	n/a	n/a	n/a	n/a
3290388	FFR_REC_WORD	wordpools/wasnorm_wordpool_less_exclusions.txt	LTP199	ltpFR	4	n/a	n/a	SUBURBAN	-1	n/a	n/a	n/a	n/a	n/a	n/a	n/a
3293531	FFR_REC_WORD	wordpools/wasnorm_wordpool_less_exclusions.txt	LTP199	ltpFR	4	n/a	0	SUBURB	1399	n/a	1	n/a	n/a	n/a	n/a	n/a
3346406	FFR_REC_WORD	wordpools/wasnorm_wordpool_less_exclusions.txt	LTP199	ltpFR	4	n/a	1	TRUCK	1512	n/a	0	n/a	n/a	n/a	n/a	n/a
3347564	FFR_REC_WORD	wordpools/wasnorm_wordpool_less_exclusions.txt	LTP199	ltpFR	4	n/a	1	DRIVER	499	n/a	1	n/a	n/a	n/a	n/a	n/a
3350492	FFR_REC_WORD	wordpools/wasnorm_wordpool_less_exclusions.txt	LTP199	ltpFR	4	n/a	1	LABYRINTH	791	n/a	0	n/a	n/a	n/a	n/a	n/a
3351540	FFR_REC_WORD	wordpools/wasnorm_wordpool_less_exclusions.txt	LTP199	ltpFR	4	n/a	1	SAND	1230	n/a	0	n/a	n/a	n/a	n/a	n/a
3366451	FFR_REC_WORD	wordpools/wasnorm_wordpool_less_exclusions.txt	LTP199	ltpFR	4	n/a	-1	CITRUS	313	n/a	-1	n/a	n/a	n/a	n/a	n/a
3367394	FFR_REC_WORD	wordpools/wasnorm_wordpool_less_exclusions.txt	LTP199	ltpFR	4	n/a	-1	CLAW	319	n/a	-1	n/a	n/a	n/a	n/a	n/a
3375450	FFR_REC_WORD	wordpools/wasnorm_wordpool_less_exclusions.txt	LTP199	ltpFR	4	n/a	-1	CAPE	237	n/a	-1	n/a	n/a	n/a	n/a	n/a
3390551	FFR_REC_WORD	wordpools/wasnorm_wordpool_less_exclusions.txt	LTP199	ltpFR	4	n/a	0	ENGINE	535	n/a	1	n/a	n/a	n/a	n/a	n/a
3392466	FFR_REC_WORD	wordpools/wasnorm_wordpool_less_exclusions.txt	LTP199	ltpFR	4	n/a	0	EXPLOSION	544	n/a	1	n/a	n/a	n/a	n/a	n/a
3396233	FFR_REC_WORD	wordpools/wasnorm_wordpool_less_exclusions.txt	LTP199	ltpFR	4	n/a	0	THIMBLE	1458	n/a	0	n/a	n/a	n/a	n/a	n/a
3547190	REC_START	n/a	LTP199	ltpFR	4	1	n/a	n/a	n/a	n/a	n/a	n/a	n/a	n/a	n/a	n/a
3547239	RECOG_TARGET	n/a	LTP199	ltpFR	4	1	1	RECEPTIONIST	1174	2	1	n/a	n/a	n/a	n/a	n/a
3551113	RECOG_RESP	n/a	LTP199	ltpFR	4	1	1	RECEPTIONIST	1174	n/a	1	n/a	n/a	n/a	n/a	n/a
3554058	RECOG_CONF	n/a	LTP199	ltpFR	4	1	1	RECEPTIONIST	1174	2	1	n/a	n/a	n/a	n/a	n/a
3556021	RECOG_LURE	n/a	LTP199	ltpFR	4	1	n/a	COLOGNE	347	4	n/a	n/a	n/a	n/a	n/a	n/a
3557162	RECOG_RESP	n/a	LTP199	ltpFR	4	1	n/a	COLOGNE	347	n/a	n/a	n/a	n/a	n/a	n/a	n/a
3559100	RECOG_CONF	n/a	LTP199	ltpFR	4	1	n/a	COLOGNE	347	4	n/a	n/a	n/a	n/a	n/a	n/a
3561124	RECOG_TARGET	n/a	LTP199	ltpFR	4	1	0	GRAPE	654	5	0	n/a	n/a	n/a	n/a	n/a
3562232	RECOG_RESP	n/a	LTP199	ltpFR	4	1	0	GRAPE	654	n/a	0	n/a	n/a	n/a	n/a	n/a
3563885	RECOG_CONF	n/a	LTP199	ltpFR	4	1	0	GRAPE	654	5	0	n/a	n/a	n/a	n/a	n/a
3565809	RECOG_LURE	n/a	LTP199	ltpFR	4	1	n/a	CARTON	251	4	n/a	n/a	n/a	n/a	n/a	n/a
3568531	RECOG_RESP	n/a	LTP199	ltpFR	4	1	n/a	CARTON	251	n/a	n/a	n/a	n/a	n/a	n/a	n/a
3570352	RECOG_CONF	n/a	LTP199	ltpFR	4	1	n/a	CARTON	251	4	n/a	n/a	n/a	n/a	n/a	n/a
3572400	RECOG_LURE	n/a	LTP199	ltpFR	4	1	n/a	OPERATOR	979	3	n/a	n/a	n/a	n/a	n/a	n/a
3573736	RECOG_RESP	n/a	LTP199	ltpFR	4	1	n/a	OPERATOR	979	n/a	n/a	n/a	n/a	n/a	n/a	n/a
3575502	RECOG_CONF	n/a	LTP199	ltpFR	4	1	n/a	OPERATOR	979	3	n/a	n/a	n/a	n/a	n/a	n/a
3577352	RECOG_TARGET	n/a	LTP199	ltpFR	4	1	0	MEDAL	885	3	0	n/a	n/a	n/a	n/a	n/a
3580170	RECOG_RESP	n/a	LTP199	ltpFR	4	1	0	MEDAL	885	n/a	0	n/a	n/a	n/a	n/a	n/a
3582221	RECOG_CONF	n/a	LTP199	ltpFR	4	1	0	MEDAL	885	3	0	n/a	n/a	n/a	n/a	n/a
3583926	RECOG_TARGET	n/a	LTP199	ltpFR	4	1	-1	CENT	270	4	-1	n/a	n/a	n/a	n/a	n/a
3585176	RECOG_RESP	n/a	LTP199	ltpFR	4	1	-1	CENT	270	n/a	-1	n/a	n/a	n/a	n/a	n/a
3586898	RECOG_CONF	n/a	LTP199	ltpFR	4	1	-1	CENT	270	4	-1	n/a	n/a	n/a	n/a	n/a
3589314	RECOG_LURE	n/a	LTP199	ltpFR	4	1	n/a	REFEREE	1178	2	n/a	n/a	n/a	n/a	n/a	n/a
3590575	RECOG_RESP	n/a	LTP199	ltpFR	4	1	n/a	REFEREE	1178	n/a	n/a	n/a	n/a	n/a	n/a	n/a
3593309	RECOG_CONF	n/a	LTP199	ltpFR	4	1	n/a	REFEREE	1178	2	n/a	n/a	n/a	n/a	n/a	n/a
3595169	RECOG_TARGET	n/a	LTP199	ltpFR	4	1	1	TRUCK	1512	5	0	n/a	n/a	n/a	n/a	n/a
3598199	RECOG_RESP	n/a	LTP199	ltpFR	4	1	1	TRUCK	1512	n/a	0	n/a	n/a	n/a	n/a	n/a
3599975	RECOG_CONF	n/a	LTP199	ltpFR	4	1	1	TRUCK	1512	5	0	n/a	n/a	n/a	n/a	n/a
3601929	RECOG_TARGET	n/a	LTP199	ltpFR	4	1	0	GENTLEMAN	631	5	1	n/a	n/a	n/a	n/a	n/a
3603060	RECOG_RESP	n/a	LTP199	ltpFR	4	1	0	GENTLEMAN	631	n/a	1	n/a	n/a	n/a	n/a	n/a
3604784	RECOG_CONF	n/a	LTP199	ltpFR	4	1	0	GENTLEMAN	631	5	1	n/a	n/a	n/a	n/a	n/a
3606378	RECOG_LURE	n/a	LTP199	ltpFR	4	1	n/a	CITIZEN	312	1	n/a	n/a	n/a	n/a	n/a	n/a
3609103	RECOG_RESP	n/a	LTP199	ltpFR	4	1	n/a	CITIZEN	312	n/a	n/a	n/a	n/a	n/a	n/a	n/a
3610925	RECOG_CONF	n/a	LTP199	ltpFR	4	1	n/a	CITIZEN	312	1	n/a	n/a	n/a	n/a	n/a	n/a
3612736	RECOG_TARGET	n/a	LTP199	ltpFR	4	1	0	CHAMPAGNE	278	5	1	n/a	n/a	n/a	n/a	n/a
3614069	RECOG_RESP	n/a	LTP199	ltpFR	4	1	0	CHAMPAGNE	278	n/a	1	n/a	n/a	n/a	n/a	n/a
3615629	RECOG_CONF	n/a	LTP199	ltpFR	4	1	0	CHAMPAGNE	278	5	1	n/a	n/a	n/a	n/a	n/a
3617554	RECOG_TARGET	n/a	LTP199	ltpFR	4	1	1	BRUNETTE	181	5	1	n/a	n/a	n/a	n/a	n/a
3618556	RECOG_RESP	n/a	LTP199	ltpFR	4	1	1	BRUNETTE	181	n/a	1	n/a	n/a	n/a	n/a	n/a
3620039	RECOG_CONF	n/a	LTP199	ltpFR	4	1	1	BRUNETTE	181	5	1	n/a	n/a	n/a	n/a	n/a
3621790	RECOG_LURE	n/a	LTP199	ltpFR	4	1	n/a	ICEBERG	731	2	n/a	n/a	n/a	n/a	n/a	n/a
3624001	RECOG_RESP	n/a	LTP199	ltpFR	4	1	n/a	ICEBERG	731	n/a	n/a	n/a	n/a	n/a	n/a	n/a
3626062	RECOG_CONF	n/a	LTP199	ltpFR	4	1	n/a	ICEBERG	731	2	n/a	n/a	n/a	n/a	n/a	n/a
3627692	RECOG_LURE	n/a	LTP199	ltpFR	4	1	n/a	CRATER	400	3	n/a	n/a	n/a	n/a	n/a	n/a
3629900	RECOG_RESP	n/a	LTP199	ltpFR	4	1	n/a	CRATER	400	n/a	n/a	n/a	n/a	n/a	n/a	n/a
3632144	RECOG_CONF	n/a	LTP199	ltpFR	4	1	n/a	CRATER	400	3	n/a	n/a	n/a	n/a	n/a	n/a
3634048	RECOG_LURE	n/a	LTP199	ltpFR	4	1	n/a	POOL	1103	3	n/a	n/a	n/a	n/a	n/a	n/a
3635594	RECOG_RESP	n/a	LTP199	ltpFR	4	1	n/a	POOL	1103	n/a	n/a	n/a	n/a	n/a	n/a	n/a
3637752	RECOG_CONF	n/a	LTP199	ltpFR	4	1	n/a	POOL	1103	3	n/a	n/a	n/a	n/a	n/a	n/a
3639386	RECOG_TARGET	n/a	LTP199	ltpFR	4	1	0	SMOG	1330	5	1	n/a	n/a	n/a	n/a	n/a
3640598	RECOG_RESP	n/a	LTP199	ltpFR	4	1	0	SMOG	1330	n/a	1	n/a	n/a	n/a	n/a	n/a
3642164	RECOG_CONF	n/a	LTP199	ltpFR	4	1	0	SMOG	1330	5	1	n/a	n/a	n/a	n/a	n/a
3644036	RECOG_TARGET	n/a	LTP199	ltpFR	4	1	-1	QUARTER	1148	5	-1	n/a	n/a	n/a	n/a	n/a
3644916	RECOG_RESP	n/a	LTP199	ltpFR	4	1	-1	QUARTER	1148	n/a	-1	n/a	n/a	n/a	n/a	n/a
3646539	RECOG_CONF	n/a	LTP199	ltpFR	4	1	-1	QUARTER	1148	5	-1	n/a	n/a	n/a	n/a	n/a
3648353	RECOG_LURE	n/a	LTP199	ltpFR	4	1	n/a	BRUSH	182	2	n/a	n/a	n/a	n/a	n/a	n/a
3651965	RECOG_RESP	n/a	LTP199	ltpFR	4	1	n/a	BRUSH	182	n/a	n/a	n/a	n/a	n/a	n/a	n/a
3653879	RECOG_CONF	n/a	LTP199	ltpFR	4	1	n/a	BRUSH	182	2	n/a	n/a	n/a	n/a	n/a	n/a
3655865	RECOG_LURE	n/a	LTP199	ltpFR	4	1	n/a	BINDER	127	3	n/a	n/a	n/a	n/a	n/a	n/a
3657661	RECOG_RESP	n/a	LTP199	ltpFR	4	1	n/a	BINDER	127	n/a	n/a	n/a	n/a	n/a	n/a	n/a
3659763	RECOG_CONF	n/a	LTP199	ltpFR	4	1	n/a	BINDER	127	3	n/a	n/a	n/a	n/a	n/a	n/a
3668973	REC_START	n/a	LTP199	ltpFR	4	2	n/a	n/a	n/a	n/a	n/a	n/a	n/a	n/a	n/a	n/a
3669015	RECOG_LURE	n/a	LTP199	ltpFR	4	2	n/a	STEP	1377	5	n/a	n/a	n/a	n/a	n/a	n/a
3670120	RECOG_RESP	n/a	LTP199	ltpFR	4	2	n/a	STEP	1377	n/a	n/a	n/a	n/a	n/a	n/a	n/a
3671673	RECOG_CONF	n/a	LTP199	ltpFR	4	2	n/a	STEP	1377	5	n/a	n/a	n/a	n/a	n/a	n/a
3673602	RECOG_TARGET	n/a	LTP199	ltpFR	4	2	1	CHIMPANZEE	302	5	1	n/a	n/a	n/a	n/a	n/a
3675455	RECOG_RESP	n/a	LTP199	ltpFR	4	2	1	CHIMPANZEE	302	n/a	1	n/a	n/a	n/a	n/a	n/a
3677772	RECOG_CONF	n/a	LTP199	ltpFR	4	2	1	CHIMPANZEE	302	5	1	n/a	n/a	n/a	n/a	n/a
3679671	RECOG_TARGET	n/a	LTP199	ltpFR	4	2	1	BRAN	167	5	0	n/a	n/a	n/a	n/a	n/a
3680523	RECOG_RESP	n/a	LTP199	ltpFR	4	2	1	BRAN	167	n/a	0	n/a	n/a	n/a	n/a	n/a
3682083	RECOG_CONF	n/a	LTP199	ltpFR	4	2	1	BRAN	167	5	0	n/a	n/a	n/a	n/a	n/a
3684037	RECOG_LURE	n/a	LTP199	ltpFR	4	2	n/a	PAN	1008	1	n/a	n/a	n/a	n/a	n/a	n/a
3688165	RECOG_RESP	n/a	LTP199	ltpFR	4	2	n/a	PAN	1008	n/a	n/a	n/a	n/a	n/a	n/a	n/a
3689785	RECOG_CONF	n/a	LTP199	ltpFR	4	2	n/a	PAN	1008	1	n/a	n/a	n/a	n/a	n/a	n/a
3691666	RECOG_LURE	n/a	LTP199	ltpFR	4	2	n/a	TRUMPET	1513	1	n/a	n/a	n/a	n/a	n/a	n/a
3696424	RECOG_RESP	n/a	LTP199	ltpFR	4	2	n/a	TRUMPET	1513	n/a	n/a	n/a	n/a	n/a	n/a	n/a
3698176	RECOG_CONF	n/a	LTP199	ltpFR	4	2	n/a	TRUMPET	1513	1	n/a	n/a	n/a	n/a	n/a	n/a
3700098	RECOG_LURE	n/a	LTP199	ltpFR	4	2	n/a	COLT	349	5	n/a	n/a	n/a	n/a	n/a	n/a
3702192	RECOG_RESP	n/a	LTP199	ltpFR	4	2	n/a	COLT	349	n/a	n/a	n/a	n/a	n/a	n/a	n/a
3704665	RECOG_CONF	n/a	LTP199	ltpFR	4	2	n/a	COLT	349	5	n/a	n/a	n/a	n/a	n/a	n/a
3706589	RECOG_LURE	n/a	LTP199	ltpFR	4	2	n/a	HAM	678	4	n/a	n/a	n/a	n/a	n/a	n/a
3707791	RECOG_RESP	n/a	LTP199	ltpFR	4	2	n/a	HAM	678	n/a	n/a	n/a	n/a	n/a	n/a	n/a
3709366	RECOG_CONF	n/a	LTP199	ltpFR	4	2	n/a	HAM	678	4	n/a	n/a	n/a	n/a	n/a	n/a
3711290	RECOG_TARGET	n/a	LTP199	ltpFR	4	2	1	TOILET	1475	1	0	n/a	n/a	n/a	n/a	n/a
3715343	RECOG_RESP	n/a	LTP199	ltpFR	4	2	1	TOILET	1475	n/a	0	n/a	n/a	n/a	n/a	n/a
3717050	RECOG_CONF	n/a	LTP199	ltpFR	4	2	1	TOILET	1475	1	0	n/a	n/a	n/a	n/a	n/a
3718835	RECOG_LURE	n/a	LTP199	ltpFR	4	2	n/a	PRIEST	1122	3	n/a	n/a	n/a	n/a	n/a	n/a
3720649	RECOG_RESP	n/a	LTP199	ltpFR	4	2	n/a	PRIEST	1122	n/a	n/a	n/a	n/a	n/a	n/a	n/a
3722166	RECOG_CONF	n/a	LTP199	ltpFR	4	2	n/a	PRIEST	1122	3	n/a	n/a	n/a	n/a	n/a	n/a
3723920	RECOG_TARGET	n/a	LTP199	ltpFR	4	2	1	PASTRY	1022	4	0	n/a	n/a	n/a	n/a	n/a
3725256	RECOG_RESP	n/a	LTP199	ltpFR	4	2	1	PASTRY	1022	n/a	0	n/a	n/a	n/a	n/a	n/a
3726926	RECOG_CONF	n/a	LTP199	ltpFR	4	2	1	PASTRY	1022	4	0	n/a	n/a	n/a	n/a	n/a
3728790	RECOG_LURE	n/a	LTP199	ltpFR	4	2	n/a	AUTOMOBILE	62	4	n/a	n/a	n/a	n/a	n/a	n/a
3730154	RECOG_RESP	n/a	LTP199	ltpFR	4	2	n/a	AUTOMOBILE	62	n/a	n/a	n/a	n/a	n/a	n/a	n/a
3732317	RECOG_CONF	n/a	LTP199	ltpFR	4	2	n/a	AUTOMOBILE	62	4	n/a	n/a	n/a	n/a	n/a	n/a
3734096	RECOG_LURE	n/a	LTP199	ltpFR	4	2	n/a	CINNAMON	310	5	n/a	n/a	n/a	n/a	n/a	n/a
3736674	RECOG_RESP	n/a	LTP199	ltpFR	4	2	n/a	CINNAMON	310	n/a	n/a	n/a	n/a	n/a	n/a	n/a
3739395	RECOG_CONF	n/a	LTP199	ltpFR	4	2	n/a	CINNAMON	310	5	n/a	n/a	n/a	n/a	n/a	n/a
3741421	RECOG_LURE	n/a	LTP199	ltpFR	4	2	n/a	NUCLEUS	961	5	n/a	n/a	n/a	n/a	n/a	n/a
3742470	RECOG_RESP	n/a	LTP199	ltpFR	4	2	n/a	NUCLEUS	961	n/a	n/a	n/a	n/a	n/a	n/a	n/a
3743881	RECOG_CONF	n/a	LTP199	ltpFR	4	2	n/a	NUCLEUS	961	5	n/a	n/a	n/a	n/a	n/a	n/a
3745586	RECOG_TARGET	n/a	LTP199	ltpFR	4	2	1	TYPEWRITER	1531	4	0	n/a	n/a	n/a	n/a	n/a
3748257	RECOG_RESP	n/a	LTP199	ltpFR	4	2	1	TYPEWRITER	1531	n/a	0	n/a	n/a	n/a	n/a	n/a
3749805	RECOG_CONF	n/a	LTP199	ltpFR	4	2	1	TYPEWRITER	1531	4	0	n/a	n/a	n/a	n/a	n/a
3751559	RECOG_LURE	n/a	LTP199	ltpFR	4	2	n/a	CHAIR	274	1	n/a	n/a	n/a	n/a	n/a	n/a
3754662	RECOG_RESP	n/a	LTP199	ltpFR	4	2	n/a	CHAIR	274	n/a	n/a	n/a	n/a	n/a	n/a	n/a
3756155	RECOG_CONF	n/a	LTP199	ltpFR	4	2	n/a	CHAIR	274	1	n/a	n/a	n/a	n/a	n/a	n/a
3757867	RECOG_TARGET	n/a	LTP199	ltpFR	4	2	0	BUREAU	199	5	1	n/a	n/a	n/a	n/a	n/a
3758976	RECOG_RESP	n/a	LTP199	ltpFR	4	2	0	BUREAU	199	n/a	1	n/a	n/a	n/a	n/a	n/a
3760503	RECOG_CONF	n/a	LTP199	ltpFR	4	2	0	BUREAU	199	5	1	n/a	n/a	n/a	n/a	n/a
3762149	RECOG_LURE	n/a	LTP199	ltpFR	4	2	n/a	CHEESE	289	3	n/a	n/a	n/a	n/a	n/a	n/a
3763503	RECOG_RESP	n/a	LTP199	ltpFR	4	2	n/a	CHEESE	289	n/a	n/a	n/a	n/a	n/a	n/a	n/a
3765099	RECOG_CONF	n/a	LTP199	ltpFR	4	2	n/a	CHEESE	289	3	n/a	n/a	n/a	n/a	n/a	n/a
3766716	RECOG_LURE	n/a	LTP199	ltpFR	4	2	n/a	CANDIDATE	228	1	n/a	n/a	n/a	n/a	n/a	n/a
3770009	RECOG_RESP	n/a	LTP199	ltpFR	4	2	n/a	CANDIDATE	228	n/a	n/a	n/a	n/a	n/a	n/a	n/a
3772591	RECOG_CONF	n/a	LTP199	ltpFR	4	2	n/a	CANDIDATE	228	1	n/a	n/a	n/a	n/a	n/a	n/a
3774414	RECOG_LURE	n/a	LTP199	ltpFR	4	2	n/a	EYELASH	546	4	n/a	n/a	n/a	n/a	n/a	n/a
3775682	RECOG_RESP	n/a	LTP199	ltpFR	4	2	n/a	EYELASH	546	n/a	n/a	n/a	n/a	n/a	n/a	n/a
3777147	RECOG_CONF	n/a	LTP199	ltpFR	4	2	n/a	EYELASH	546	4	n/a	n/a	n/a	n/a	n/a	n/a
3779061	RECOG_LURE	n/a	LTP199	ltpFR	4	2	n/a	BRIEFCASE	175	3	n/a	n/a	n/a	n/a	n/a	n/a
3780436	RECOG_RESP	n/a	LTP199	ltpFR	4	2	n/a	BRIEFCASE	175	n/a	n/a	n/a	n/a	n/a	n/a	n/a
3782404	RECOG_CONF	n/a	LTP199	ltpFR	4	2	n/a	BRIEFCASE	175	3	n/a	n/a	n/a	n/a	n/a	n/a
3791153	REC_START	n/a	LTP199	ltpFR	4	3	n/a	n/a	n/a	n/a	n/a	n/a	n/a	n/a	n/a	n/a
3791194	RECOG_LURE	n/a	LTP199	ltpFR	4	3	n/a	STATUE	1374	2	n/a	n/a	n/a	n/a	n/a	n/a
3793743	RECOG_RESP	n/a	LTP199	ltpFR	4	3	n/a	STATUE	1374	n/a	n/a	n/a	n/a	n/a	n/a	n/a
3795558	RECOG_CONF	n/a	LTP199	ltpFR	4	3	n/a	STATUE	1374	2	n/a	n/a	n/a	n/a	n/a	n/a
3797264	RECOG_TARGET	n/a	LTP199	ltpFR	4	3	-1	RASPBERRY	1168	5	-1	n/a	n/a	n/a	n/a	n/a
3798273	RECOG_RESP	n/a	LTP199	ltpFR	4	3	-1	RASPBERRY	1168	n/a	-1	n/a	n/a	n/a	n/a	n/a
3800068	RECOG_CONF	n/a	LTP199	ltpFR	4	3	-1	RASPBERRY	1168	5	-1	n/a	n/a	n/a	n/a	n/a
3801748	RECOG_TARGET	n/a	LTP199	ltpFR	4	3	0	DWARF	510	5	1	n/a	n/a	n/a	n/a	n/a
3802851	RECOG_RESP	n/a	LTP199	ltpFR	4	3	0	DWARF	510	n/a	1	n/a	n/a	n/a	n/a	n/a
3804279	RECOG_CONF	n/a	LTP199	ltpFR	4	3	0	DWARF	510	5	1	n/a	n/a	n/a	n/a	n/a
3806350	RECOG_LURE	n/a	LTP199	ltpFR	4	3	n/a	LEVER	815	3	n/a	n/a	n/a	n/a	n/a	n/a
3807488	RECOG_RESP	n/a	LTP199	ltpFR	4	3	n/a	LEVER	815	n/a	n/a	n/a	n/a	n/a	n/a	n/a
3810372	RECOG_CONF	n/a	LTP199	ltpFR	4	3	n/a	LEVER	815	3	n/a	n/a	n/a	n/a	n/a	n/a
3812076	RECOG_LURE	n/a	LTP199	ltpFR	4	3	n/a	UMBRELLA	1534	5	n/a	n/a	n/a	n/a	n/a	n/a
3813137	RECOG_RESP	n/a	LTP199	ltpFR	4	3	n/a	UMBRELLA	1534	n/a	n/a	n/a	n/a	n/a	n/a	n/a
3814507	RECOG_CONF	n/a	LTP199	ltpFR	4	3	n/a	UMBRELLA	1534	5	n/a	n/a	n/a	n/a	n/a	n/a
3816520	RECOG_LURE	n/a	LTP199	ltpFR	4	3	n/a	WAITRESS	1581	2	n/a	n/a	n/a	n/a	n/a	n/a
3817824	RECOG_RESP	n/a	LTP199	ltpFR	4	3	n/a	WAITRESS	1581	n/a	n/a	n/a	n/a	n/a	n/a	n/a
3819769	RECOG_CONF	n/a	LTP199	ltpFR	4	3	n/a	WAITRESS	1581	2	n/a	n/a	n/a	n/a	n/a	n/a
3821472	RECOG_TARGET	n/a	LTP199	ltpFR	4	3	0	RADIO	1157	3	1	n/a	n/a	n/a	n/a	n/a
3823513	RECOG_RESP	n/a	LTP199	ltpFR	4	3	0	RADIO	1157	n/a	1	n/a	n/a	n/a	n/a	n/a
3825269	RECOG_CONF	n/a	LTP199	ltpFR	4	3	0	RADIO	1157	3	1	n/a	n/a	n/a	n/a	n/a
3827059	RECOG_LURE	n/a	LTP199	ltpFR	4	3	n/a	COTTAGE	384	1	n/a	n/a	n/a	n/a	n/a	n/a
3829795	RECOG_RESP	n/a	LTP199	ltpFR	4	3	n/a	COTTAGE	384	n/a	n/a	n/a	n/a	n/a	n/a	n/a
3831900	RECOG_CONF	n/a	LTP199	ltpFR	4	3	n/a	COTTAGE	384	1	n/a	n/a	n/a	n/a	n/a	n/a
3833852	RECOG_LURE	n/a	LTP199	ltpFR	4	3	n/a	RODENT	1204	2	n/a	n/a	n/a	n/a	n/a	n/a
3837880	RECOG_RESP	n/a	LTP199	ltpFR	4	3	n/a	RODENT	1204	n/a	n/a	n/a	n/a	n/a	n/a	n/a
3839808	RECOG_CONF	n/a	LTP199	ltpFR	4	3	n/a	RODENT	1204	2	n/a	n/a	n/a	n/a	n/a	n/a
3841666	RECOG_LURE	n/a	LTP199	ltpFR	4	3	n/a	SUPERMARKET	1409	4	n/a	n/a	n/a	n/a	n/a	n/a
3842804	RECOG_RESP	n/a	LTP199	ltpFR	4	3	n/a	SUPERMARKET	1409	n/a	n/a	n/a	n/a	n/a	n/a	n/a
3844139	RECOG_CONF	n/a	LTP199	ltpFR	4	3	n/a	SUPERMARKET	1409	4	n/a	n/a	n/a	n/a	n/a	n/a
3846115	RECOG_TARGET	n/a	LTP199	ltpFR	4	3	0	CHARCOAL	281	5	0	n/a	n/a	n/a	n/a	n/a
3847967	RECOG_RESP	n/a	LTP199	ltpFR	4	3	0	CHARCOAL	281	n/a	0	n/a	n/a	n/a	n/a	n/a
3849431	RECOG_CONF	n/a	LTP199	ltpFR	4	3	0	CHARCOAL	281	5	0	n/a	n/a	n/a	n/a	n/a
3851371	RECOG_LURE	n/a	LTP199	ltpFR	4	3	n/a	HAYSTACK	694	5	n/a	n/a	n/a	n/a	n/a	n/a
3853421	RECOG_RESP	n/a	LTP199	ltpFR	4	3	n/a	HAYSTACK	694	n/a	n/a	n/a	n/a	n/a	n/a	n/a
3854876	RECOG_CONF	n/a	LTP199	ltpFR	4	3	n/a	HAYSTACK	694	5	n/a	n/a	n/a	n/a	n/a	n/a
3856722	RECOG_TARGET	n/a	LTP199	ltpFR	4	3	-1	FORK	594	5	-1	n/a	n/a	n/a	n/a	n/a
3857744	RECOG_RESP	n/a	LTP199	ltpFR	4	3	-1	FORK	594	n/a	-1	n/a	n/a	n/a	n/a	n/a
3858979	RECOG_CONF	n/a	LTP199	ltpFR	4	3	-1	FORK	594	5	-1	n/a	n/a	n/a	n/a	n/a
3860908	RECOG_LURE	n/a	LTP199	ltpFR	4	3	n/a	EXPERT	543	4	n/a	n/a	n/a	n/a	n/a	n/a
3862367	RECOG_RESP	n/a	LTP199	ltpFR	4	3	n/a	EXPERT	543	n/a	n/a	n/a	n/a	n/a	n/a	n/a
3864410	RECOG_CONF	n/a	LTP199	ltpFR	4	3	n/a	EXPERT	543	4	n/a	n/a	n/a	n/a	n/a	n/a
3866291	RECOG_TARGET	n/a	LTP199	ltpFR	4	3	1	ROUGE	1213	5	0	n/a	n/a	n/a	n/a	n/a
3867275	RECOG_RESP	n/a	LTP199	ltpFR	4	3	1	ROUGE	1213	n/a	0	n/a	n/a	n/a	n/a	n/a
3868707	RECOG_CONF	n/a	LTP199	ltpFR	4	3	1	ROUGE	1213	5	0	n/a	n/a	n/a	n/a	n/a
3870658	RECOG_TARGET	n/a	LTP199	ltpFR	4	3	0	SURF	1412	5	1	n/a	n/a	n/a	n/a	n/a
3871768	RECOG_RESP	n/a	LTP199	ltpFR	4	3	0	SURF	1412	n/a	1	n/a	n/a	n/a	n/a	n/a
3873272	RECOG_CONF	n/a	LTP199	ltpFR	4	3	0	SURF	1412	5	1	n/a	n/a	n/a	n/a	n/a
3875208	RECOG_TARGET	n/a	LTP199	ltpFR	4	3	1	DRIVER	499	5	1	n/a	n/a	n/a	n/a	n/a
3876266	RECOG_RESP	n/a	LTP199	ltpFR	4	3	1	DRIVER	499	n/a	1	n/a	n/a	n/a	n/a	n/a
3877821	RECOG_CONF	n/a	LTP199	ltpFR	4	3	1	DRIVER	499	5	1	n/a	n/a	n/a	n/a	n/a
3879675	RECOG_LURE	n/a	LTP199	ltpFR	4	3	n/a	CAVITY	264	1	n/a	n/a	n/a	n/a	n/a	n/a
3881620	RECOG_RESP	n/a	LTP199	ltpFR	4	3	n/a	CAVITY	264	n/a	n/a	n/a	n/a	n/a	n/a	n/a
3886127	RECOG_CONF	n/a	LTP199	ltpFR	4	3	n/a	CAVITY	264	1	n/a	n/a	n/a	n/a	n/a	n/a
3887972	RECOG_LURE	n/a	LTP199	ltpFR	4	3	n/a	CURB	426	3	n/a	n/a	n/a	n/a	n/a	n/a
3889239	RECOG_RESP	n/a	LTP199	ltpFR	4	3	n/a	CURB	426	n/a	n/a	n/a	n/a	n/a	n/a	n/a
3890640	RECOG_CONF	n/a	LTP199	ltpFR	4	3	n/a	CURB	426	3	n/a	n/a	n/a	n/a	n/a	n/a
3892574	RECOG_LURE	n/a	LTP199	ltpFR	4	3	n/a	EMPEROR	529	4	n/a	n/a	n/a	n/a	n/a	n/a
3893786	RECOG_RESP	n/a	LTP199	ltpFR	4	3	n/a	EMPEROR	529	n/a	n/a	n/a	n/a	n/a	n/a	n/a
3895541	RECOG_CONF	n/a	LTP199	ltpFR	4	3	n/a	EMPEROR	529	4	n/a	n/a	n/a	n/a	n/a	n/a
3900703	REC_START	n/a	LTP199	ltpFR	4	4	n/a	n/a	n/a	n/a	n/a	n/a	n/a	n/a	n/a	n/a
3900754	RECOG_TARGET	n/a	LTP199	ltpFR	4	4	1	SPOOL	1356	5	0	n/a	n/a	n/a	n/a	n/a
3901738	RECOG_RESP	n/a	LTP199	ltpFR	4	4	1	SPOOL	1356	n/a	0	n/a	n/a	n/a	n/a	n/a
3903252	RECOG_CONF	n/a	LTP199	ltpFR	4	4	1	SPOOL	1356	5	0	n/a	n/a	n/a	n/a	n/a
3904936	RECOG_LURE	n/a	LTP199	ltpFR	4	4	n/a	DRESS	495	3	n/a	n/a	n/a	n/a	n/a	n/a
3906144	RECOG_RESP	n/a	LTP199	ltpFR	4	4	n/a	DRESS	495	n/a	n/a	n/a	n/a	n/a	n/a	n/a
3908706	RECOG_CONF	n/a	LTP199	ltpFR	4	4	n/a	DRESS	495	3	n/a	n/a	n/a	n/a	n/a	n/a
3910876	RECOG_LURE	n/a	LTP199	ltpFR	4	4	n/a	SENATOR	1268	3	n/a	n/a	n/a	n/a	n/a	n/a
3913707	RECOG_RESP	n/a	LTP199	ltpFR	4	4	n/a	SENATOR	1268	n/a	n/a	n/a	n/a	n/a	n/a	n/a
3915203	RECOG_CONF	n/a	LTP199	ltpFR	4	4	n/a	SENATOR	1268	3	n/a	n/a	n/a	n/a	n/a	n/a
3916900	RECOG_TARGET	n/a	LTP199	ltpFR	4	4	-1	APPLE	33	1	-1	n/a	n/a	n/a	n/a	n/a
3920127	RECOG_RESP	n/a	LTP199	ltpFR	4	4	-1	APPLE	33	n/a	-1	n/a	n/a	n/a	n/a	n/a
3922098	RECOG_CONF	n/a	LTP199	ltpFR	4	4	-1	APPLE	33	1	-1	n/a	n/a	n/a	n/a	n/a
3923892	RECOG_LURE	n/a	LTP199	ltpFR	4	4	n/a	PADDING	999	2	n/a	n/a	n/a	n/a	n/a	n/a
3925219	RECOG_RESP	n/a	LTP199	ltpFR	4	4	n/a	PADDING	999	n/a	n/a	n/a	n/a	n/a	n/a	n/a
3927264	RECOG_CONF	n/a	LTP199	ltpFR	4	4	n/a	PADDING	999	2	n/a	n/a	n/a	n/a	n/a	n/a
3929027	RECOG_TARGET	n/a	LTP199	ltpFR	4	4	1	CASH	252	4	0	n/a	n/a	n/a	n/a	n/a
3930202	RECOG_RESP	n/a	LTP199	ltpFR	4	4	1	CASH	252	n/a	0	n/a	n/a	n/a	n/a	n/a
3932228	RECOG_CONF	n/a	LTP199	ltpFR	4	4	1	CASH	252	4	0	n/a	n/a	n/a	n/a	n/a
3934029	RECOG_TARGET	n/a	LTP199	ltpFR	4	4	1	TIGER	1467	5	1	n/a	n/a	n/a	n/a	n/a
3935316	RECOG_RESP	n/a	LTP199	ltpFR	4	4	1	TIGER	1467	n/a	1	n/a	n/a	n/a	n/a	n/a
3937474	RECOG_CONF	n/a	LTP199	ltpFR	4	4	1	TIGER	1467	5	1	n/a	n/a	n/a	n/a	n/a
3939333	RECOG_TARGET	n/a	LTP199	ltpFR	4	4	0	GARDEN	623	5	1	n/a	n/a	n/a	n/a	n/a
3940213	RECOG_RESP	n/a	LTP199	ltpFR	4	4	0	GARDEN	623	n/a	1	n/a	n/a	n/a	n/a	n/a
3942024	RECOG_CONF	n/a	LTP199	ltpFR	4	4	0	GARDEN	623	5	1	n/a	n/a	n/a	n/a	n/a
3943766	RECOG_LURE	n/a	LTP199	ltpFR	4	4	n/a	BRACES	164	4	n/a	n/a	n/a	n/a	n/a	n/a
3945183	RECOG_RESP	n/a	LTP199	ltpFR	4	4	n/a	BRACES	164	n/a	n/a	n/a	n/a	n/a	n/a	n/a
3947158	RECOG_CONF	n/a	LTP199	ltpFR	4	4	n/a	BRACES	164	4	n/a	n/a	n/a	n/a	n/a	n/a
3949069	RECOG_LURE	n/a	LTP199	ltpFR	4	4	n/a	BEAD	103	3	n/a	n/a	n/a	n/a	n/a	n/a
3951876	RECOG_RESP	n/a	LTP199	ltpFR	4	4	n/a	BEAD	103	n/a	n/a	n/a	n/a	n/a	n/a	n/a
3954039	RECOG_CONF	n/a	LTP199	ltpFR	4	4	n/a	BEAD	103	3	n/a	n/a	n/a	n/a	n/a	n/a
3955879	RECOG_TARGET	n/a	LTP199	ltpFR	4	4	0	LIEUTENANT	818	3	1	n/a	n/a	n/a	n/a	n/a
3957393	RECOG_RESP	n/a	LTP199	ltpFR	4	4	0	LIEUTENANT	818	n/a	1	n/a	n/a	n/a	n/a	n/a
3959751	RECOG_CONF	n/a	LTP199	ltpFR	4	4	0	LIEUTENANT	818	3	1	n/a	n/a	n/a	n/a	n/a
3961438	RECOG_TARGET	n/a	LTP199	ltpFR	4	4	-1	PLASTER	1085	5	-1	n/a	n/a	n/a	n/a	n/a
3962627	RECOG_RESP	n/a	LTP199	ltpFR	4	4	-1	PLASTER	1085	n/a	-1	n/a	n/a	n/a	n/a	n/a
3964304	RECOG_CONF	n/a	LTP199	ltpFR	4	4	-1	PLASTER	1085	5	-1	n/a	n/a	n/a	n/a	n/a
3966158	RECOG_LURE	n/a	LTP199	ltpFR	4	4	n/a	KEY	773	4	n/a	n/a	n/a	n/a	n/a	n/a
3967275	RECOG_RESP	n/a	LTP199	ltpFR	4	4	n/a	KEY	773	n/a	n/a	n/a	n/a	n/a	n/a	n/a
3970020	RECOG_CONF	n/a	LTP199	ltpFR	4	4	n/a	KEY	773	4	n/a	n/a	n/a	n/a	n/a	n/a
3971722	RECOG_LURE	n/a	LTP199	ltpFR	4	4	n/a	GLOBE	641	3	n/a	n/a	n/a	n/a	n/a	n/a
3973119	RECOG_RESP	n/a	LTP199	ltpFR	4	4	n/a	GLOBE	641	n/a	n/a	n/a	n/a	n/a	n/a	n/a
3975810	RECOG_CONF	n/a	LTP199	ltpFR	4	4	n/a	GLOBE	641	3	n/a	n/a	n/a	n/a	n/a	n/a
3977678	RECOG_TARGET	n/a	LTP199	ltpFR	4	4	0	TUNA	1518	5	0	n/a	n/a	n/a	n/a	n/a
3978571	RECOG_RESP	n/a	LTP199	ltpFR	4	4	0	TUNA	1518	n/a	0	n/a	n/a	n/a	n/a	n/a
3980457	RECOG_CONF	n/a	LTP199	ltpFR	4	4	0	TUNA	1518	5	0	n/a	n/a	n/a	n/a	n/a
3982246	RECOG_LURE	n/a	LTP199	ltpFR	4	4	n/a	BARK	87	4	n/a	n/a	n/a	n/a	n/a	n/a
3983395	RECOG_RESP	n/a	LTP199	ltpFR	4	4	n/a	BARK	87	n/a	n/a	n/a	n/a	n/a	n/a	n/a
3985864	RECOG_CONF	n/a	LTP199	ltpFR	4	4	n/a	BARK	87	4	n/a	n/a	n/a	n/a	n/a	n/a
3987582	RECOG_TARGET	n/a	LTP199	ltpFR	4	4	-1	BOMB	147	5	-1	n/a	n/a	n/a	n/a	n/a
3988598	RECOG_RESP	n/a	LTP199	ltpFR	4	4	-1	BOMB	147	n/a	-1	n/a	n/a	n/a	n/a	n/a
3990185	RECOG_CONF	n/a	LTP199	ltpFR	4	4	-1	BOMB	147	5	-1	n/a	n/a	n/a	n/a	n/a
3992383	RECOG_LURE	n/a	LTP199	ltpFR	4	4	n/a	SCAPEGOAT	1244	5	n/a	n/a	n/a	n/a	n/a	n/a
3993383	RECOG_RESP	n/a	LTP199	ltpFR	4	4	n/a	SCAPEGOAT	1244	n/a	n/a	n/a	n/a	n/a	n/a	n/a
3994797	RECOG_CONF	n/a	LTP199	ltpFR	4	4	n/a	SCAPEGOAT	1244	5	n/a	n/a	n/a	n/a	n/a	n/a
3996783	RECOG_LURE	n/a	LTP199	ltpFR	4	4	n/a	HAMBURGER	679	5	n/a	n/a	n/a	n/a	n/a	n/a
3998200	RECOG_RESP	n/a	LTP199	ltpFR	4	4	n/a	HAMBURGER	679	n/a	n/a	n/a	n/a	n/a	n/a	n/a
3999812	RECOG_CONF	n/a	LTP199	ltpFR	4	4	n/a	HAMBURGER	679	5	n/a	n/a	n/a	n/a	n/a	n/a
4001905	RECOG_TARGET	n/a	LTP199	ltpFR	4	4	-1	NECKLACE	940	5	-1	n/a	n/a	n/a	n/a	n/a
4002834	RECOG_RESP	n/a	LTP199	ltpFR	4	4	-1	NECKLACE	940	n/a	-1	n/a	n/a	n/a	n/a	n/a
4004452	RECOG_CONF	n/a	LTP199	ltpFR	4	4	-1	NECKLACE	940	5	-1	n/a	n/a	n/a	n/a	n/a
4016807	REC_START	n/a	LTP199	ltpFR	4	5	n/a	n/a	n/a	n/a	n/a	n/a	n/a	n/a	n/a	n/a
4016859	RECOG_TARGET	n/a	LTP199	ltpFR	4	5	1	RESTAURANT	1187	5	0	n/a	n/a	n/a	n/a	n/a
4018573	RECOG_RESP	n/a	LTP199	ltpFR	4	5	1	RESTAURANT	1187	n/a	0	n/a	n/a	n/a	n/a	n/a
4020406	RECOG_CONF	n/a	LTP199	ltpFR	4	5	1	RESTAURANT	1187	5	0	n/a	n/a	n/a	n/a	n/a
4022415	RECOG_LURE	n/a	LTP199	ltpFR	4	5	n/a	SPACE	1345	3	n/a	n/a	n/a	n/a	n/a	n/a
4023605	RECOG_RESP	n/a	LTP199	ltpFR	4	5	n/a	SPACE	1345	n/a	n/a	n/a	n/a	n/a	n/a	n/a
4025257	RECOG_CONF	n/a	LTP199	ltpFR	4	5	n/a	SPACE	1345	3	n/a	n/a	n/a	n/a	n/a	n/a
4026996	RECOG_TARGET	n/a	LTP199	ltpFR	4	5	1	POTTERY	1116	5	0	n/a	n/a	n/a	n/a	n/a
4027933	RECOG_RESP	n/a	LTP199	ltpFR	4	5	1	POTTERY	1116	n/a	0	n/a	n/a	n/a	n/a	n/a
4029831	RECOG_CONF	n/a	LTP199	ltpFR	4	5	1	POTTERY	1116	5	0	n/a	n/a	n/a	n/a	n/a
4031753	RECOG_TARGET	n/a	LTP199	ltpFR	4	5	0	DIGGER	464	5	1	n/a	n/a	n/a	n/a	n/a
4032762	RECOG_RESP	n/a	LTP199	ltpFR	4	5	0	DIGGER	464	n/a	1	n/a	n/a	n/a	n/a	n/a
4034252	RECOG_CONF	n/a	LTP199	ltpFR	4	5	0	DIGGER	464	5	1	n/a	n/a	n/a	n/a	n/a
4035997	RECOG_TARGET	n/a	LTP199	ltpFR	4	5	-1	PAIL	1002	5	-1	n/a	n/a	n/a	n/a	n/a
4037303	RECOG_RESP	n/a	LTP199	ltpFR	4	5	-1	PAIL	1002	n/a	-1	n/a	n/a	n/a	n/a	n/a
4038869	RECOG_CONF	n/a	LTP199	ltpFR	4	5	-1	PAIL	1002	5	-1	n/a	n/a	n/a	n/a	n/a
4040933	RECOG_LURE	n/a	LTP199	ltpFR	4	5	n/a	WASHER	1592	1	n/a	n/a	n/a	n/a	n/a	n/a
4044974	RECOG_RESP	n/a	LTP199	ltpFR	4	5	n/a	WASHER	1592	n/a	n/a	n/a	n/a	n/a	n/a	n/a
4046684	RECOG_CONF	n/a	LTP199	ltpFR	4	5	n/a	WASHER	1592	1	n/a	n/a	n/a	n/a	n/a	n/a
4048517	RECOG_TARGET	n/a	LTP199	ltpFR	4	5	0	MARBLE	867	5	0	n/a	n/a	n/a	n/a	n/a
4049495	RECOG_RESP	n/a	LTP199	ltpFR	4	5	0	MARBLE	867	n/a	0	n/a	n/a	n/a	n/a	n/a
4051194	RECOG_CONF	n/a	LTP199	ltpFR	4	5	0	MARBLE	867	5	0	n/a	n/a	n/a	n/a	n/a
4052960	RECOG_LURE	n/a	LTP199	ltpFR	4	5	n/a	LODGE	839	2	n/a	n/a	n/a	n/a	n/a	n/a
4056607	RECOG_RESP	n/a	LTP199	ltpFR	4	5	n/a	LODGE	839	n/a	n/a	n/a	n/a	n/a	n/a	n/a
4058666	RECOG_CONF	n/a	LTP199	ltpFR	4	5	n/a	LODGE	839	2	n/a	n/a	n/a	n/a	n/a	n/a
4060389	RECOG_LURE	n/a	LTP199	ltpFR	4	5	n/a	CRYSTAL	418	3	n/a	n/a	n/a	n/a	n/a	n/a
4061853	RECOG_RESP	n/a	LTP199	ltpFR	4	5	n/a	CRYSTAL	418	n/a	n/a	n/a	n/a	n/a	n/a	n/a
4063495	RECOG_CONF	n/a	LTP199	ltpFR	4	5	n/a	CRYSTAL	418	3	n/a	n/a	n/a	n/a	n/a	n/a
4065479	RECOG_LURE	n/a	LTP199	ltpFR	4	5	n/a	CARAVAN	242	4	n/a	n/a	n/a	n/a	n/a	n/a
4066921	RECOG_RESP	n/a	LTP199	ltpFR	4	5	n/a	CARAVAN	242	n/a	n/a	n/a	n/a	n/a	n/a	n/a
4068563	RECOG_CONF	n/a	LTP199	ltpFR	4	5	n/a	CARAVAN	242	4	n/a	n/a	n/a	n/a	n/a	n/a
4070678	RECOG_TARGET	n/a	LTP199	ltpFR	4	5	0	SISTER	1312	5	1	n/a	n/a	n/a	n/a	n/a
4071854	RECOG_RESP	n/a	LTP199	ltpFR	4	5	0	SISTER	1312	n/a	1	n/a	n/a	n/a	n/a	n/a
4073509	RECOG_CONF	n/a	LTP199	ltpFR	4	5	0	SISTER	1312	5	1	n/a	n/a	n/a	n/a	n/a
4075451	RECOG_TARGET	n/a	LTP199	ltpFR	4	5	1	APE	31	5	1	n/a	n/a	n/a	n/a	n/a
4076232	RECOG_RESP	n/a	LTP199	ltpFR	4	5	1	APE	31	n/a	1	n/a	n/a	n/a	n/a	n/a
4077799	RECOG_CONF	n/a	LTP199	ltpFR	4	5	1	APE	31	5	1	n/a	n/a	n/a	n/a	n/a
4079746	RECOG_TARGET	n/a	LTP199	ltpFR	4	5	1	VEGETABLE	1552	5	1	n/a	n/a	n/a	n/a	n/a
4080766	RECOG_RESP	n/a	LTP199	ltpFR	4	5	1	VEGETABLE	1552	n/a	1	n/a	n/a	n/a	n/a	n/a
4082323	RECOG_CONF	n/a	LTP199	ltpFR	4	5	1	VEGETABLE	1552	5	1	n/a	n/a	n/a	n/a	n/a
4084061	RECOG_LURE	n/a	LTP199	ltpFR	4	5	n/a	CUB	419	3	n/a	n/a	n/a	n/a	n/a	n/a
4086568	RECOG_RESP	n/a	LTP199	ltpFR	4	5	n/a	CUB	419	n/a	n/a	n/a	n/a	n/a	n/a	n/a
4088372	RECOG_CONF	n/a	LTP199	ltpFR	4	5	n/a	CUB	419	3	n/a	n/a	n/a	n/a	n/a	n/a
4090151	RECOG_TARGET	n/a	LTP199	ltpFR	4	5	1	DICTATOR	462	3	1	n/a	n/a	n/a	n/a	n/a
4093537	RECOG_RESP	n/a	LTP199	ltpFR	4	5	1	DICTATOR	462	n/a	1	n/a	n/a	n/a	n/a	n/a
4095393	RECOG_CONF	n/a	LTP199	ltpFR	4	5	1	DICTATOR	462	3	1	n/a	n/a	n/a	n/a	n/a
4096976	RECOG_TARGET	n/a	LTP199	ltpFR	4	5	0	JOINT	758	5	0	n/a	n/a	n/a	n/a	n/a
4098392	RECOG_RESP	n/a	LTP199	ltpFR	4	5	0	JOINT	758	n/a	0	n/a	n/a	n/a	n/a	n/a
4099865	RECOG_CONF	n/a	LTP199	ltpFR	4	5	0	JOINT	758	5	0	n/a	n/a	n/a	n/a	n/a
4101645	RECOG_TARGET	n/a	LTP199	ltpFR	4	5	1	SKUNK	1321	5	1	n/a	n/a	n/a	n/a	n/a
4102496	RECOG_RESP	n/a	LTP199	ltpFR	4	5	1	SKUNK	1321	n/a	1	n/a	n/a	n/a	n/a	n/a
4104124	RECOG_CONF	n/a	LTP199	ltpFR	4	5	1	SKUNK	1321	5	1	n/a	n/a	n/a	n/a	n/a
4105996	RECOG_TARGET	n/a	LTP199	ltpFR	4	5	0	JUGGLER	763	5	1	n/a	n/a	n/a	n/a	n/a
4107102	RECOG_RESP	n/a	LTP199	ltpFR	4	5	0	JUGGLER	763	n/a	1	n/a	n/a	n/a	n/a	n/a
4108873	RECOG_CONF	n/a	LTP199	ltpFR	4	5	0	JUGGLER	763	5	1	n/a	n/a	n/a	n/a	n/a
4110729	RECOG_LURE	n/a	LTP199	ltpFR	4	5	n/a	RASH	1167	4	n/a	n/a	n/a	n/a	n/a	n/a
4112090	RECOG_RESP	n/a	LTP199	ltpFR	4	5	n/a	RASH	1167	n/a	n/a	n/a	n/a	n/a	n/a	n/a
4113737	RECOG_CONF	n/a	LTP199	ltpFR	4	5	n/a	RASH	1167	4	n/a	n/a	n/a	n/a	n/a	n/a
4115536	RECOG_TARGET	n/a	LTP199	ltpFR	4	5	0	PROFESSIONAL	1130	5	1	n/a	n/a	n/a	n/a	n/a
4116629	RECOG_RESP	n/a	LTP199	ltpFR	4	5	0	PROFESSIONAL	1130	n/a	1	n/a	n/a	n/a	n/a	n/a
4118293	RECOG_CONF	n/a	LTP199	ltpFR	4	5	0	PROFESSIONAL	1130	5	1	n/a	n/a	n/a	n/a	n/a
4197333	REC_START	n/a	LTP199	ltpFR	4	6	n/a	n/a	n/a	n/a	n/a	n/a	n/a	n/a	n/a	n/a
4197372	RECOG_TARGET	n/a	LTP199	ltpFR	4	6	0	MILK	895	5	0	n/a	n/a	n/a	n/a	n/a
4198778	RECOG_RESP	n/a	LTP199	ltpFR	4	6	0	MILK	895	n/a	0	n/a	n/a	n/a	n/a	n/a
4200551	RECOG_CONF	n/a	LTP199	ltpFR	4	6	0	MILK	895	5	0	n/a	n/a	n/a	n/a	n/a
4202207	RECOG_LURE	n/a	LTP199	ltpFR	4	6	n/a	ANTELOPE	27	4	n/a	n/a	n/a	n/a	n/a	n/a
4203379	RECOG_RESP	n/a	LTP199	ltpFR	4	6	n/a	ANTELOPE	27	n/a	n/a	n/a	n/a	n/a	n/a	n/a
4205020	RECOG_CONF	n/a	LTP199	ltpFR	4	6	n/a	ANTELOPE	27	4	n/a	n/a	n/a	n/a	n/a	n/a
4206692	RECOG_LURE	n/a	LTP199	ltpFR	4	6	n/a	TRASH	1497	3	n/a	n/a	n/a	n/a	n/a	n/a
4209823	RECOG_RESP	n/a	LTP199	ltpFR	4	6	n/a	TRASH	1497	n/a	n/a	n/a	n/a	n/a	n/a	n/a
4211585	RECOG_CONF	n/a	LTP199	ltpFR	4	6	n/a	TRASH	1497	3	n/a	n/a	n/a	n/a	n/a	n/a
4213701	RECOG_TARGET	n/a	LTP199	ltpFR	4	6	1	PLAZA	1088	5	0	n/a	n/a	n/a	n/a	n/a
4214659	RECOG_RESP	n/a	LTP199	ltpFR	4	6	1	PLAZA	1088	n/a	0	n/a	n/a	n/a	n/a	n/a
4216053	RECOG_CONF	n/a	LTP199	ltpFR	4	6	1	PLAZA	1088	5	0	n/a	n/a	n/a	n/a	n/a
4217903	RECOG_LURE	n/a	LTP199	ltpFR	4	6	n/a	COMB	351	2	n/a	n/a	n/a	n/a	n/a	n/a
4219808	RECOG_RESP	n/a	LTP199	ltpFR	4	6	n/a	COMB	351	n/a	n/a	n/a	n/a	n/a	n/a	n/a
4222139	RECOG_CONF	n/a	LTP199	ltpFR	4	6	n/a	COMB	351	2	n/a	n/a	n/a	n/a	n/a	n/a
4223872	RECOG_TARGET	n/a	LTP199	ltpFR	4	6	-1	MONARCH	906	5	-1	n/a	n/a	n/a	n/a	n/a
4224888	RECOG_RESP	n/a	LTP199	ltpFR	4	6	-1	MONARCH	906	n/a	-1	n/a	n/a	n/a	n/a	n/a
4226390	RECOG_CONF	n/a	LTP199	ltpFR	4	6	-1	MONARCH	906	5	-1	n/a	n/a	n/a	n/a	n/a
4228289	RECOG_LURE	n/a	LTP199	ltpFR	4	6	n/a	WEED	1599	5	n/a	n/a	n/a	n/a	n/a	n/a
4229856	RECOG_RESP	n/a	LTP199	ltpFR	4	6	n/a	WEED	1599	n/a	n/a	n/a	n/a	n/a	n/a	n/a
4231480	RECOG_CONF	n/a	LTP199	ltpFR	4	6	n/a	WEED	1599	5	n/a	n/a	n/a	n/a	n/a	n/a
4233294	RECOG_TARGET	n/a	LTP199	ltpFR	4	6	1	BARRACUDA	90	5	1	n/a	n/a	n/a	n/a	n/a
4234191	RECOG_RESP	n/a	LTP199	ltpFR	4	6	1	BARRACUDA	90	n/a	1	n/a	n/a	n/a	n/a	n/a
4235726	RECOG_CONF	n/a	LTP199	ltpFR	4	6	1	BARRACUDA	90	5	1	n/a	n/a	n/a	n/a	n/a
4237564	RECOG_LURE	n/a	LTP199	ltpFR	4	6	n/a	COBRA	336	3	n/a	n/a	n/a	n/a	n/a	n/a
4238925	RECOG_RESP	n/a	LTP199	ltpFR	4	6	n/a	COBRA	336	n/a	n/a	n/a	n/a	n/a	n/a	n/a
4242062	RECOG_CONF	n/a	LTP199	ltpFR	4	6	n/a	COBRA	336	3	n/a	n/a	n/a	n/a	n/a	n/a
4243964	RECOG_TARGET	n/a	LTP199	ltpFR	4	6	0	PEPPER	1047	5	0	n/a	n/a	n/a	n/a	n/a
4244941	RECOG_RESP	n/a	LTP199	ltpFR	4	6	0	PEPPER	1047	n/a	0	n/a	n/a	n/a	n/a	n/a
4246443	RECOG_CONF	n/a	LTP199	ltpFR	4	6	0	PEPPER	1047	5	0	n/a	n/a	n/a	n/a	n/a
4248284	RECOG_TARGET	n/a	LTP199	ltpFR	4	6	0	MEAL	882	5	0	n/a	n/a	n/a	n/a	n/a
4249293	RECOG_RESP	n/a	LTP199	ltpFR	4	6	0	MEAL	882	n/a	0	n/a	n/a	n/a	n/a	n/a
4250726	RECOG_CONF	n/a	LTP199	ltpFR	4	6	0	MEAL	882	5	0	n/a	n/a	n/a	n/a	n/a
4252681	RECOG_TARGET	n/a	LTP199	ltpFR	4	6	1	FRANCE	601	5	0	n/a	n/a	n/a	n/a	n/a
4253525	RECOG_RESP	n/a	LTP199	ltpFR	4	6	1	FRANCE	601	n/a	0	n/a	n/a	n/a	n/a	n/a
4255228	RECOG_CONF	n/a	LTP199	ltpFR	4	6	1	FRANCE	601	5	0	n/a	n/a	n/a	n/a	n/a
4257532	RECOG_LURE	n/a	LTP199	ltpFR	4	6	n/a	PLATE	1086	2	n/a	n/a	n/a	n/a	n/a	n/a
4259106	RECOG_RESP	n/a	LTP199	ltpFR	4	6	n/a	PLATE	1086	n/a	n/a	n/a	n/a	n/a	n/a	n/a
4264342	RECOG_CONF	n/a	LTP199	ltpFR	4	6	n/a	PLATE	1086	2	n/a	n/a	n/a	n/a	n/a	n/a
4266282	RECOG_LURE	n/a	LTP199	ltpFR	4	6	n/a	HAWK	692	1	n/a	n/a	n/a	n/a	n/a	n/a
4269678	RECOG_RESP	n/a	LTP199	ltpFR	4	6	n/a	HAWK	692	n/a	n/a	n/a	n/a	n/a	n/a	n/a
4271580	RECOG_CONF	n/a	LTP199	ltpFR	4	6	n/a	HAWK	692	1	n/a	n/a	n/a	n/a	n/a	n/a
4273392	RECOG_LURE	n/a	LTP199	ltpFR	4	6	n/a	MOOSE	915	3	n/a	n/a	n/a	n/a	n/a	n/a
4274669	RECOG_RESP	n/a	LTP199	ltpFR	4	6	n/a	MOOSE	915	n/a	n/a	n/a	n/a	n/a	n/a	n/a
4277457	RECOG_CONF	n/a	LTP199	ltpFR	4	6	n/a	MOOSE	915	3	n/a	n/a	n/a	n/a	n/a	n/a
4279130	RECOG_TARGET	n/a	LTP199	ltpFR	4	6	0	TONGUE	1479	5	0	n/a	n/a	n/a	n/a	n/a
4280235	RECOG_RESP	n/a	LTP199	ltpFR	4	6	0	TONGUE	1479	n/a	0	n/a	n/a	n/a	n/a	n/a
4281793	RECOG_CONF	n/a	LTP199	ltpFR	4	6	0	TONGUE	1479	5	0	n/a	n/a	n/a	n/a	n/a
4283597	RECOG_TARGET	n/a	LTP199	ltpFR	4	6	0	DAISY	435	5	0	n/a	n/a	n/a	n/a	n/a
4284436	RECOG_RESP	n/a	LTP199	ltpFR	4	6	0	DAISY	435	n/a	0	n/a	n/a	n/a	n/a	n/a
4285766	RECOG_CONF	n/a	LTP199	ltpFR	4	6	0	DAISY	435	5	0	n/a	n/a	n/a	n/a	n/a
4287495	RECOG_TARGET	n/a	LTP199	ltpFR	4	6	1	SUPPER	1411	2	0	n/a	n/a	n/a	n/a	n/a
4292775	RECOG_RESP	n/a	LTP199	ltpFR	4	6	1	SUPPER	1411	n/a	0	n/a	n/a	n/a	n/a	n/a
4294476	RECOG_CONF	n/a	LTP199	ltpFR	4	6	1	SUPPER	1411	2	0	n/a	n/a	n/a	n/a	n/a
4296211	RECOG_LURE	n/a	LTP199	ltpFR	4	6	n/a	GAZELLE	628	4	n/a	n/a	n/a	n/a	n/a	n/a
4297625	RECOG_RESP	n/a	LTP199	ltpFR	4	6	n/a	GAZELLE	628	n/a	n/a	n/a	n/a	n/a	n/a	n/a
4299811	RECOG_CONF	n/a	LTP199	ltpFR	4	6	n/a	GAZELLE	628	4	n/a	n/a	n/a	n/a	n/a	n/a
4301515	RECOG_LURE	n/a	LTP199	ltpFR	4	6	n/a	RANCH	1166	3	n/a	n/a	n/a	n/a	n/a	n/a
4306775	RECOG_RESP	n/a	LTP199	ltpFR	4	6	n/a	RANCH	1166	n/a	n/a	n/a	n/a	n/a	n/a	n/a
4308571	RECOG_CONF	n/a	LTP199	ltpFR	4	6	n/a	RANCH	1166	3	n/a	n/a	n/a	n/a	n/a	n/a
4328980	REC_START	n/a	LTP199	ltpFR	4	7	n/a	n/a	n/a	n/a	n/a	n/a	n/a	n/a	n/a	n/a
