mstime	trial_type	stim_file	subject	experiment	session	trial	task	item_name	item_num	recog_conf	resp	answer	test_x	test_y	test_z	color_b	color_g	color_r	case	font
0	SESS_START	n/a	LTP267	ltpFR	14	n/a	n/a	n/a	n/a	5	n/a	n/a	0	0	0	n/a	n/a	n/a	n/a	n/a
26422	START	n/a	LTP267	ltpFR	14	n/a	n/a	n/a	n/a	n/a	n/a	n/a	n/a	n/a	n/a	n/a	n/a	n/a	n/a	n/a
26471	PROB	n/a	LTP267	ltpFR	14	n/a	n/a	n/a	n/a	n/a	n/a	20	2	9	9	n/a	n/a	n/a	n/a	n/a
27893	PROB	n/a	LTP267	ltpFR	14	n/a	n/a	n/a	n/a	n/a	n/a	21	8	4	9	n/a	n/a	n/a	n/a	n/a
29901	PROB	n/a	LTP267	ltpFR	14	n/a	n/a	n/a	n/a	n/a	n/a	13	4	8	1	n/a	n/a	n/a	n/a	n/a
31490	PROB	n/a	LTP267	ltpFR	14	n/a	n/a	n/a	n/a	n/a	n/a	10	1	7	2	n/a	n/a	n/a	n/a	n/a
32930	PROB	n/a	LTP267	ltpFR	14	n/a	n/a	n/a	n/a	n/a	n/a	16	7	2	7	n/a	n/a	n/a	n/a	n/a
34418	PROB	n/a	LTP267	ltpFR	14	n/a	n/a	n/a	n/a	n/a	n/a	20	8	7	5	n/a	n/a	n/a	n/a	n/a
35924	PROB	n/a	LTP267	ltpFR	14	n/a	n/a	n/a	n/a	n/a	n/a	20	7	7	5	n/a	n/a	n/a	n/a	n/a
37077	PROB	n/a	LTP267	ltpFR	14	n/a	n/a	n/a	n/a	n/a	n/a	10	1	7	2	n/a	n/a	n/a	n/a	n/a
38801	PROB	n/a	LTP267	ltpFR	14	n/a	n/a	n/a	n/a	n/a	n/a	19	8	3	8	n/a	n/a	n/a	n/a	n/a
40591	PROB	n/a	LTP267	ltpFR	14	n/a	n/a	n/a	n/a	n/a	n/a	6	2	2	2	n/a	n/a	n/a	n/a	n/a
42599	PROB	n/a	LTP267	ltpFR	14	n/a	n/a	n/a	n/a	n/a	n/a	15	5	8	2	n/a	n/a	n/a	n/a	n/a
46421	STOP	n/a	LTP267	ltpFR	14	n/a	n/a	n/a	n/a	n/a	n/a	n/a	n/a	n/a	n/a	n/a	n/a	n/a	n/a	n/a
66824	WORD	wordpools/wasnorm_wordpool_less_exclusions.txt	LTP267	ltpFR	14	1	0	LADY	794	n/a	0	n/a	0	0	0	1	0.412841796875	0.57763671875	lower	../fonts/zerothre.ttf
70738	WORD	wordpools/wasnorm_wordpool_less_exclusions.txt	LTP267	ltpFR	14	1	0	COLOGNE	347	n/a	0	n/a	0	0	0	1	0.412841796875	0.57763671875	lower	../fonts/zerothre.ttf
74703	WORD	wordpools/wasnorm_wordpool_less_exclusions.txt	LTP267	ltpFR	14	1	0	STEM	1376	n/a	0	n/a	0	0	0	1	0.412841796875	0.57763671875	lower	../fonts/zerothre.ttf
78702	WORD	wordpools/wasnorm_wordpool_less_exclusions.txt	LTP267	ltpFR	14	1	1	FLOWER	584	n/a	1	n/a	0	0	0	0	0.5869140625	0.422607421875	upper	../fonts/amplitud.ttf
82533	WORD	wordpools/wasnorm_wordpool_less_exclusions.txt	LTP267	ltpFR	14	1	1	BIBLE	124	n/a	0	n/a	0	0	0	0	0.5869140625	0.422607421875	upper	../fonts/amplitud.ttf
86448	WORD	wordpools/wasnorm_wordpool_less_exclusions.txt	LTP267	ltpFR	14	1	1	IDOL	733	n/a	1	n/a	0	0	0	0	0.5869140625	0.422607421875	upper	../fonts/amplitud.ttf
90546	WORD	wordpools/wasnorm_wordpool_less_exclusions.txt	LTP267	ltpFR	14	1	1	BRACES	164	n/a	0	n/a	0	0	0	0	0.5869140625	0.422607421875	upper	../fonts/amplitud.ttf
94443	WORD	wordpools/wasnorm_wordpool_less_exclusions.txt	LTP267	ltpFR	14	1	1	ENEMY	534	n/a	1	n/a	0	0	0	0	0.5869140625	0.422607421875	upper	../fonts/amplitud.ttf
98510	WORD	wordpools/wasnorm_wordpool_less_exclusions.txt	LTP267	ltpFR	14	1	0	BOY	161	n/a	1	n/a	0	0	0	1	0.412841796875	0.57763671875	lower	../fonts/zerothre.ttf
102458	WORD	wordpools/wasnorm_wordpool_less_exclusions.txt	LTP267	ltpFR	14	1	0	REINDEER	1181	n/a	1	n/a	0	0	0	1	0.412841796875	0.57763671875	lower	../fonts/zerothre.ttf
106290	WORD	wordpools/wasnorm_wordpool_less_exclusions.txt	LTP267	ltpFR	14	1	1	ATTIRE	57	n/a	0	n/a	0	0	0	0	0.5869140625	0.422607421875	upper	../fonts/amplitud.ttf
110255	WORD	wordpools/wasnorm_wordpool_less_exclusions.txt	LTP267	ltpFR	14	1	1	HANDKERCHIEF	686	n/a	0	n/a	0	0	0	0	0.5869140625	0.422607421875	upper	../fonts/amplitud.ttf
114170	WORD	wordpools/wasnorm_wordpool_less_exclusions.txt	LTP267	ltpFR	14	1	1	FRECKLE	602	n/a	0	n/a	0	0	0	0	0.5869140625	0.422607421875	upper	../fonts/amplitud.ttf
118302	WORD	wordpools/wasnorm_wordpool_less_exclusions.txt	LTP267	ltpFR	14	1	0	TOOTH	1481	n/a	0	n/a	0	0	0	1	0.412841796875	0.57763671875	lower	../fonts/zerothre.ttf
122384	WORD	wordpools/wasnorm_wordpool_less_exclusions.txt	LTP267	ltpFR	14	1	0	MISTER	901	n/a	1	n/a	0	0	0	1	0.412841796875	0.57763671875	lower	../fonts/zerothre.ttf
126415	WORD	wordpools/wasnorm_wordpool_less_exclusions.txt	LTP267	ltpFR	14	1	0	RAG	1160	n/a	0	n/a	0	0	0	1	0.412841796875	0.57763671875	lower	../fonts/zerothre.ttf
129426	START	n/a	LTP267	ltpFR	14	n/a	n/a	n/a	n/a	n/a	n/a	n/a	n/a	n/a	n/a	n/a	n/a	n/a	n/a	n/a
130396	PROB	n/a	LTP267	ltpFR	14	n/a	n/a	n/a	n/a	n/a	n/a	19	6	7	4	n/a	n/a	n/a	n/a	n/a
134312	PROB	n/a	LTP267	ltpFR	14	n/a	n/a	n/a	n/a	n/a	n/a	8	2	5	1	n/a	n/a	n/a	n/a	n/a
135942	STOP	n/a	LTP267	ltpFR	14	n/a	n/a	n/a	n/a	n/a	n/a	n/a	n/a	n/a	n/a	n/a	n/a	n/a	n/a	n/a
139315	REC_START	n/a	LTP267	ltpFR	14	1	n/a	n/a	n/a	n/a	n/a	n/a	0	0	0	n/a	n/a	n/a	n/a	n/a
141078	REC_WORD	wordpools/wasnorm_wordpool_less_exclusions.txt	LTP267	ltpFR	14	1	0	STEM	1376	n/a	0	n/a	0	0	0	n/a	n/a	n/a	n/a	n/a
142436	REC_WORD	wordpools/wasnorm_wordpool_less_exclusions.txt	LTP267	ltpFR	14	1	1	FLOWER	584	n/a	1	n/a	0	0	0	n/a	n/a	n/a	n/a	n/a
143722	REC_WORD	wordpools/wasnorm_wordpool_less_exclusions.txt	LTP267	ltpFR	14	1	0	COLOGNE	347	n/a	0	n/a	0	0	0	n/a	n/a	n/a	n/a	n/a
144888	REC_WORD_VV	wordpools/wasnorm_wordpool_less_exclusions.txt	LTP267	ltpFR	14	1	n/a	<>	-1	n/a	n/a	n/a	0	0	0	n/a	n/a	n/a	n/a	n/a
146206	REC_WORD	wordpools/wasnorm_wordpool_less_exclusions.txt	LTP267	ltpFR	14	1	n/a	WOMAN	1620	n/a	n/a	n/a	0	0	0	n/a	n/a	n/a	n/a	n/a
147460	REC_WORD	wordpools/wasnorm_wordpool_less_exclusions.txt	LTP267	ltpFR	14	1	0	BOY	161	n/a	1	n/a	0	0	0	n/a	n/a	n/a	n/a	n/a
148560	REC_WORD	wordpools/wasnorm_wordpool_less_exclusions.txt	LTP267	ltpFR	14	1	1	FRECKLE	602	n/a	0	n/a	0	0	0	n/a	n/a	n/a	n/a	n/a
172056	REC_WORD	wordpools/wasnorm_wordpool_less_exclusions.txt	LTP267	ltpFR	14	1	0	RAG	1160	n/a	0	n/a	0	0	0	n/a	n/a	n/a	n/a	n/a
173050	REC_WORD	wordpools/wasnorm_wordpool_less_exclusions.txt	LTP267	ltpFR	14	1	1	HANDKERCHIEF	686	n/a	0	n/a	0	0	0	n/a	n/a	n/a	n/a	n/a
217259	START	n/a	LTP267	ltpFR	14	n/a	n/a	n/a	n/a	n/a	n/a	n/a	n/a	n/a	n/a	n/a	n/a	n/a	n/a	n/a
218763	PROB	n/a	LTP267	ltpFR	14	n/a	n/a	n/a	n/a	n/a	n/a	19	9	5	3	n/a	n/a	n/a	n/a	n/a
221257	PROB	n/a	LTP267	ltpFR	14	n/a	n/a	n/a	n/a	n/a	n/a	11	3	7	1	n/a	n/a	n/a	n/a	n/a
222980	PROB	n/a	LTP267	ltpFR	14	n/a	n/a	n/a	n/a	n/a	n/a	20	7	5	7	n/a	n/a	n/a	n/a	n/a
224207	STOP	n/a	LTP267	ltpFR	14	n/a	n/a	n/a	n/a	n/a	n/a	n/a	n/a	n/a	n/a	n/a	n/a	n/a	n/a	n/a
226292	WORD	wordpools/wasnorm_wordpool_less_exclusions.txt	LTP267	ltpFR	14	2	1	BISCUIT	130	n/a	0	n/a	0	0	0	0	0.5869140625	0.422607421875	upper	../fonts/amplitud.ttf
229304	START	n/a	LTP267	ltpFR	14	n/a	n/a	n/a	n/a	n/a	n/a	n/a	n/a	n/a	n/a	n/a	n/a	n/a	n/a	n/a
230490	PROB	n/a	LTP267	ltpFR	14	n/a	n/a	n/a	n/a	n/a	n/a	21	5	7	9	n/a	n/a	n/a	n/a	n/a
234522	PROB	n/a	LTP267	ltpFR	14	n/a	n/a	n/a	n/a	n/a	n/a	11	2	6	3	n/a	n/a	n/a	n/a	n/a
236086	STOP	n/a	LTP267	ltpFR	14	n/a	n/a	n/a	n/a	n/a	n/a	n/a	n/a	n/a	n/a	n/a	n/a	n/a	n/a	n/a
238404	WORD	wordpools/wasnorm_wordpool_less_exclusions.txt	LTP267	ltpFR	14	2	1	SALMON	1227	n/a	3	n/a	0	0	0	0	0.5869140625	0.422607421875	upper	../fonts/amplitud.ttf
239591	KEY_MSG	n/a	LTP267	ltpFR	14	2	n/a	n/a	n/a	n/a	n/a	n/a	0	0	0	n/a	n/a	n/a	n/a	n/a
241415	START	n/a	LTP267	ltpFR	14	n/a	n/a	n/a	n/a	n/a	n/a	n/a	n/a	n/a	n/a	n/a	n/a	n/a	n/a	n/a
242536	PROB	n/a	LTP267	ltpFR	14	n/a	n/a	n/a	n/a	n/a	n/a	17	7	4	6	n/a	n/a	n/a	n/a	n/a
244143	PROB	n/a	LTP267	ltpFR	14	n/a	n/a	n/a	n/a	n/a	n/a	21	8	8	5	n/a	n/a	n/a	n/a	n/a
246301	PROB	n/a	LTP267	ltpFR	14	n/a	n/a	n/a	n/a	n/a	n/a	12	2	6	4	n/a	n/a	n/a	n/a	n/a
247689	PROB	n/a	LTP267	ltpFR	14	n/a	n/a	n/a	n/a	n/a	n/a	15	5	1	9	n/a	n/a	n/a	n/a	n/a
248741	STOP	n/a	LTP267	ltpFR	14	n/a	n/a	n/a	n/a	n/a	n/a	n/a	n/a	n/a	n/a	n/a	n/a	n/a	n/a	n/a
250283	WORD	wordpools/wasnorm_wordpool_less_exclusions.txt	LTP267	ltpFR	14	2	1	FACTORY	548	n/a	0	n/a	0	0	0	0	0.5869140625	0.422607421875	upper	../fonts/amplitud.ttf
253295	START	n/a	LTP267	ltpFR	14	n/a	n/a	n/a	n/a	n/a	n/a	n/a	n/a	n/a	n/a	n/a	n/a	n/a	n/a	n/a
254281	PROB	n/a	LTP267	ltpFR	14	n/a	n/a	n/a	n/a	n/a	n/a	11	7	1	3	n/a	n/a	n/a	n/a	n/a
255585	PROB	n/a	LTP267	ltpFR	14	n/a	n/a	n/a	n/a	n/a	n/a	10	3	4	3	n/a	n/a	n/a	n/a	n/a
257359	PROB	n/a	LTP267	ltpFR	14	n/a	n/a	n/a	n/a	n/a	n/a	13	8	4	1	n/a	n/a	n/a	n/a	n/a
259149	PROB	n/a	LTP267	ltpFR	14	n/a	n/a	n/a	n/a	n/a	n/a	21	7	8	6	n/a	n/a	n/a	n/a	n/a
260893	STOP	n/a	LTP267	ltpFR	14	n/a	n/a	n/a	n/a	n/a	n/a	n/a	n/a	n/a	n/a	n/a	n/a	n/a	n/a	n/a
262343	WORD	wordpools/wasnorm_wordpool_less_exclusions.txt	LTP267	ltpFR	14	2	1	CLOSET	326	n/a	0	n/a	0	0	0	0	0.5869140625	0.422607421875	upper	../fonts/amplitud.ttf
265357	START	n/a	LTP267	ltpFR	14	n/a	n/a	n/a	n/a	n/a	n/a	n/a	n/a	n/a	n/a	n/a	n/a	n/a	n/a	n/a
266459	PROB	n/a	LTP267	ltpFR	14	n/a	n/a	n/a	n/a	n/a	n/a	19	8	8	3	n/a	n/a	n/a	n/a	n/a
268133	PROB	n/a	LTP267	ltpFR	14	n/a	n/a	n/a	n/a	n/a	n/a	17	9	2	6	n/a	n/a	n/a	n/a	n/a
269887	PROB	n/a	LTP267	ltpFR	14	n/a	n/a	n/a	n/a	n/a	n/a	19	7	3	9	n/a	n/a	n/a	n/a	n/a
271061	PROB	n/a	LTP267	ltpFR	14	n/a	n/a	n/a	n/a	n/a	n/a	14	8	4	2	n/a	n/a	n/a	n/a	n/a
272645	STOP	n/a	LTP267	ltpFR	14	n/a	n/a	n/a	n/a	n/a	n/a	n/a	n/a	n/a	n/a	n/a	n/a	n/a	n/a	n/a
274373	WORD	wordpools/wasnorm_wordpool_less_exclusions.txt	LTP267	ltpFR	14	2	1	OREGANO	983	n/a	0	n/a	0	0	0	0	0.5869140625	0.422607421875	upper	../fonts/amplitud.ttf
277385	START	n/a	LTP267	ltpFR	14	n/a	n/a	n/a	n/a	n/a	n/a	n/a	n/a	n/a	n/a	n/a	n/a	n/a	n/a	n/a
278521	PROB	n/a	LTP267	ltpFR	14	n/a	n/a	n/a	n/a	n/a	n/a	11	1	1	9	n/a	n/a	n/a	n/a	n/a
279657	PROB	n/a	LTP267	ltpFR	14	n/a	n/a	n/a	n/a	n/a	n/a	24	9	6	9	n/a	n/a	n/a	n/a	n/a
283073	PROB	n/a	LTP267	ltpFR	14	n/a	n/a	n/a	n/a	n/a	n/a	12	5	6	1	n/a	n/a	n/a	n/a	n/a
285295	STOP	n/a	LTP267	ltpFR	14	n/a	n/a	n/a	n/a	n/a	n/a	n/a	n/a	n/a	n/a	n/a	n/a	n/a	n/a	n/a
286218	WORD	wordpools/wasnorm_wordpool_less_exclusions.txt	LTP267	ltpFR	14	2	1	DETECTIVE	454	n/a	1	n/a	0	0	0	0	0.5869140625	0.422607421875	upper	../fonts/amplitud.ttf
289230	START	n/a	LTP267	ltpFR	14	n/a	n/a	n/a	n/a	n/a	n/a	n/a	n/a	n/a	n/a	n/a	n/a	n/a	n/a	n/a
290384	PROB	n/a	LTP267	ltpFR	14	n/a	n/a	n/a	n/a	n/a	n/a	19	9	3	7	n/a	n/a	n/a	n/a	n/a
292140	PROB	n/a	LTP267	ltpFR	14	n/a	n/a	n/a	n/a	n/a	n/a	23	9	5	9	n/a	n/a	n/a	n/a	n/a
294012	PROB	n/a	LTP267	ltpFR	14	n/a	n/a	n/a	n/a	n/a	n/a	18	5	4	9	n/a	n/a	n/a	n/a	n/a
295917	STOP	n/a	LTP267	ltpFR	14	n/a	n/a	n/a	n/a	n/a	n/a	n/a	n/a	n/a	n/a	n/a	n/a	n/a	n/a	n/a
298146	WORD	wordpools/wasnorm_wordpool_less_exclusions.txt	LTP267	ltpFR	14	2	1	DEPUTY	450	n/a	1	n/a	0	0	0	0	0.5869140625	0.422607421875	upper	../fonts/amplitud.ttf
301159	START	n/a	LTP267	ltpFR	14	n/a	n/a	n/a	n/a	n/a	n/a	n/a	n/a	n/a	n/a	n/a	n/a	n/a	n/a	n/a
302145	PROB	n/a	LTP267	ltpFR	14	n/a	n/a	n/a	n/a	n/a	n/a	10	6	3	1	n/a	n/a	n/a	n/a	n/a
303783	PROB	n/a	LTP267	ltpFR	14	n/a	n/a	n/a	n/a	n/a	n/a	14	5	6	3	n/a	n/a	n/a	n/a	n/a
306910	PROB	n/a	LTP267	ltpFR	14	n/a	n/a	n/a	n/a	n/a	n/a	17	2	7	8	n/a	n/a	n/a	n/a	n/a
308734	STOP	n/a	LTP267	ltpFR	14	n/a	n/a	n/a	n/a	n/a	n/a	n/a	n/a	n/a	n/a	n/a	n/a	n/a	n/a	n/a
310108	WORD	wordpools/wasnorm_wordpool_less_exclusions.txt	LTP267	ltpFR	14	2	1	TOAST	1471	n/a	0	n/a	0	0	0	0	0.5869140625	0.422607421875	upper	../fonts/amplitud.ttf
313120	START	n/a	LTP267	ltpFR	14	n/a	n/a	n/a	n/a	n/a	n/a	n/a	n/a	n/a	n/a	n/a	n/a	n/a	n/a	n/a
313989	PROB	n/a	LTP267	ltpFR	14	n/a	n/a	n/a	n/a	n/a	n/a	13	3	5	5	n/a	n/a	n/a	n/a	n/a
315110	PROB	n/a	LTP267	ltpFR	14	n/a	n/a	n/a	n/a	n/a	n/a	13	1	4	8	n/a	n/a	n/a	n/a	n/a
316481	PROB	n/a	LTP267	ltpFR	14	n/a	n/a	n/a	n/a	n/a	n/a	13	4	6	5	n/a	n/a	n/a	n/a	n/a
318137	PROB	n/a	LTP267	ltpFR	14	n/a	n/a	n/a	n/a	n/a	n/a	15	2	8	5	n/a	n/a	n/a	n/a	n/a
321120	STOP	n/a	LTP267	ltpFR	14	n/a	n/a	n/a	n/a	n/a	n/a	n/a	n/a	n/a	n/a	n/a	n/a	n/a	n/a	n/a
322235	WORD	wordpools/wasnorm_wordpool_less_exclusions.txt	LTP267	ltpFR	14	2	1	BARLEY	88	n/a	0	n/a	0	0	0	0	0.5869140625	0.422607421875	upper	../fonts/amplitud.ttf
325249	START	n/a	LTP267	ltpFR	14	n/a	n/a	n/a	n/a	n/a	n/a	n/a	n/a	n/a	n/a	n/a	n/a	n/a	n/a	n/a
326302	PROB	n/a	LTP267	ltpFR	14	n/a	n/a	n/a	n/a	n/a	n/a	11	5	5	1	n/a	n/a	n/a	n/a	n/a
327588	PROB	n/a	LTP267	ltpFR	14	n/a	n/a	n/a	n/a	n/a	n/a	18	6	9	3	n/a	n/a	n/a	n/a	n/a
329197	PROB	n/a	LTP267	ltpFR	14	n/a	n/a	n/a	n/a	n/a	n/a	14	9	2	3	n/a	n/a	n/a	n/a	n/a
330884	PROB	n/a	LTP267	ltpFR	14	n/a	n/a	n/a	n/a	n/a	n/a	10	3	4	3	n/a	n/a	n/a	n/a	n/a
332677	STOP	n/a	LTP267	ltpFR	14	n/a	n/a	n/a	n/a	n/a	n/a	n/a	n/a	n/a	n/a	n/a	n/a	n/a	n/a	n/a
334447	WORD	wordpools/wasnorm_wordpool_less_exclusions.txt	LTP267	ltpFR	14	2	1	MULE	931	n/a	1	n/a	0	0	0	0	0.5869140625	0.422607421875	upper	../fonts/amplitud.ttf
337461	START	n/a	LTP267	ltpFR	14	n/a	n/a	n/a	n/a	n/a	n/a	n/a	n/a	n/a	n/a	n/a	n/a	n/a	n/a	n/a
338581	PROB	n/a	LTP267	ltpFR	14	n/a	n/a	n/a	n/a	n/a	n/a	12	8	3	1	n/a	n/a	n/a	n/a	n/a
340054	PROB	n/a	LTP267	ltpFR	14	n/a	n/a	n/a	n/a	n/a	n/a	16	1	9	6	n/a	n/a	n/a	n/a	n/a
341324	PROB	n/a	LTP267	ltpFR	14	n/a	n/a	n/a	n/a	n/a	n/a	10	3	5	3	n/a	n/a	n/a	n/a	n/a
344343	STOP	n/a	LTP267	ltpFR	14	n/a	n/a	n/a	n/a	n/a	n/a	n/a	n/a	n/a	n/a	n/a	n/a	n/a	n/a	n/a
346478	WORD	wordpools/wasnorm_wordpool_less_exclusions.txt	LTP267	ltpFR	14	2	1	MONEY	908	n/a	0	n/a	0	0	0	0	0.5869140625	0.422607421875	upper	../fonts/amplitud.ttf
349490	START	n/a	LTP267	ltpFR	14	n/a	n/a	n/a	n/a	n/a	n/a	n/a	n/a	n/a	n/a	n/a	n/a	n/a	n/a	n/a
350343	PROB	n/a	LTP267	ltpFR	14	n/a	n/a	n/a	n/a	n/a	n/a	21	9	6	6	n/a	n/a	n/a	n/a	n/a
354977	PROB	n/a	LTP267	ltpFR	14	n/a	n/a	n/a	n/a	n/a	n/a	9	4	4	1	n/a	n/a	n/a	n/a	n/a
357119	STOP	n/a	LTP267	ltpFR	14	n/a	n/a	n/a	n/a	n/a	n/a	n/a	n/a	n/a	n/a	n/a	n/a	n/a	n/a	n/a
358406	WORD	wordpools/wasnorm_wordpool_less_exclusions.txt	LTP267	ltpFR	14	2	1	REGISTER	1180	n/a	0	n/a	0	0	0	0	0.5869140625	0.422607421875	upper	../fonts/amplitud.ttf
361418	START	n/a	LTP267	ltpFR	14	n/a	n/a	n/a	n/a	n/a	n/a	n/a	n/a	n/a	n/a	n/a	n/a	n/a	n/a	n/a
362322	PROB	n/a	LTP267	ltpFR	14	n/a	n/a	n/a	n/a	n/a	n/a	14	3	9	2	n/a	n/a	n/a	n/a	n/a
364195	PROB	n/a	LTP267	ltpFR	14	n/a	n/a	n/a	n/a	n/a	n/a	10	2	5	3	n/a	n/a	n/a	n/a	n/a
366670	PROB	n/a	LTP267	ltpFR	14	n/a	n/a	n/a	n/a	n/a	n/a	10	7	2	1	n/a	n/a	n/a	n/a	n/a
367918	STOP	n/a	LTP267	ltpFR	14	n/a	n/a	n/a	n/a	n/a	n/a	n/a	n/a	n/a	n/a	n/a	n/a	n/a	n/a	n/a
370500	WORD	wordpools/wasnorm_wordpool_less_exclusions.txt	LTP267	ltpFR	14	2	1	LOBSTER	837	n/a	1	n/a	0	0	0	0	0.5869140625	0.422607421875	upper	../fonts/amplitud.ttf
373513	START	n/a	LTP267	ltpFR	14	n/a	n/a	n/a	n/a	n/a	n/a	n/a	n/a	n/a	n/a	n/a	n/a	n/a	n/a	n/a
374615	PROB	n/a	LTP267	ltpFR	14	n/a	n/a	n/a	n/a	n/a	n/a	17	2	9	6	n/a	n/a	n/a	n/a	n/a
376994	PROB	n/a	LTP267	ltpFR	14	n/a	n/a	n/a	n/a	n/a	n/a	14	6	5	3	n/a	n/a	n/a	n/a	n/a
378582	PROB	n/a	LTP267	ltpFR	14	n/a	n/a	n/a	n/a	n/a	n/a	7	6	1	1	n/a	n/a	n/a	n/a	n/a
379988	PROB	n/a	LTP267	ltpFR	14	n/a	n/a	n/a	n/a	n/a	n/a	12	1	9	2	n/a	n/a	n/a	n/a	n/a
381127	STOP	n/a	LTP267	ltpFR	14	n/a	n/a	n/a	n/a	n/a	n/a	n/a	n/a	n/a	n/a	n/a	n/a	n/a	n/a	n/a
382446	WORD	wordpools/wasnorm_wordpool_less_exclusions.txt	LTP267	ltpFR	14	2	1	OTTER	986	n/a	1	n/a	0	0	0	0	0.5869140625	0.422607421875	upper	../fonts/amplitud.ttf
385458	START	n/a	LTP267	ltpFR	14	n/a	n/a	n/a	n/a	n/a	n/a	n/a	n/a	n/a	n/a	n/a	n/a	n/a	n/a	n/a
386646	PROB	n/a	LTP267	ltpFR	14	n/a	n/a	n/a	n/a	n/a	n/a	17	8	6	3	n/a	n/a	n/a	n/a	n/a
388972	PROB	n/a	LTP267	ltpFR	14	n/a	n/a	n/a	n/a	n/a	n/a	20	5	7	8	n/a	n/a	n/a	n/a	n/a
391982	STOP	n/a	LTP267	ltpFR	14	n/a	n/a	n/a	n/a	n/a	n/a	n/a	n/a	n/a	n/a	n/a	n/a	n/a	n/a	n/a
394557	WORD	wordpools/wasnorm_wordpool_less_exclusions.txt	LTP267	ltpFR	14	2	1	EMPLOYEE	531	n/a	1	n/a	0	0	0	0	0.5869140625	0.422607421875	upper	../fonts/amplitud.ttf
397571	START	n/a	LTP267	ltpFR	14	n/a	n/a	n/a	n/a	n/a	n/a	n/a	n/a	n/a	n/a	n/a	n/a	n/a	n/a	n/a
398423	PROB	n/a	LTP267	ltpFR	14	n/a	n/a	n/a	n/a	n/a	n/a	9	2	6	1	n/a	n/a	n/a	n/a	n/a
400315	PROB	n/a	LTP267	ltpFR	14	n/a	n/a	n/a	n/a	n/a	n/a	18	4	8	6	n/a	n/a	n/a	n/a	n/a
402907	PROB	n/a	LTP267	ltpFR	14	n/a	n/a	n/a	n/a	n/a	n/a	17	9	3	5	n/a	n/a	n/a	n/a	n/a
404606	STOP	n/a	LTP267	ltpFR	14	n/a	n/a	n/a	n/a	n/a	n/a	n/a	n/a	n/a	n/a	n/a	n/a	n/a	n/a	n/a
406403	WORD	wordpools/wasnorm_wordpool_less_exclusions.txt	LTP267	ltpFR	14	2	1	TECHNICIAN	1443	n/a	1	n/a	0	0	0	0	0.5869140625	0.422607421875	upper	../fonts/amplitud.ttf
409415	START	n/a	LTP267	ltpFR	14	n/a	n/a	n/a	n/a	n/a	n/a	n/a	n/a	n/a	n/a	n/a	n/a	n/a	n/a	n/a
410353	PROB	n/a	LTP267	ltpFR	14	n/a	n/a	n/a	n/a	n/a	n/a	16	9	5	2	n/a	n/a	n/a	n/a	n/a
413145	PROB	n/a	LTP267	ltpFR	14	n/a	n/a	n/a	n/a	n/a	n/a	16	3	7	6	n/a	n/a	n/a	n/a	n/a
414351	PROB	n/a	LTP267	ltpFR	14	n/a	n/a	n/a	n/a	n/a	n/a	17	3	5	9	n/a	n/a	n/a	n/a	n/a
417023	STOP	n/a	LTP267	ltpFR	14	n/a	n/a	n/a	n/a	n/a	n/a	n/a	n/a	n/a	n/a	n/a	n/a	n/a	n/a	n/a
419170	REC_START	n/a	LTP267	ltpFR	14	2	n/a	n/a	n/a	n/a	n/a	n/a	0	0	0	n/a	n/a	n/a	n/a	n/a
420321	REC_WORD	wordpools/wasnorm_wordpool_less_exclusions.txt	LTP267	ltpFR	14	2	1	TECHNICIAN	1443	n/a	1	n/a	0	0	0	n/a	n/a	n/a	n/a	n/a
421377	REC_WORD	wordpools/wasnorm_wordpool_less_exclusions.txt	LTP267	ltpFR	14	2	1	FACTORY	548	n/a	0	n/a	0	0	0	n/a	n/a	n/a	n/a	n/a
422605	REC_WORD	wordpools/wasnorm_wordpool_less_exclusions.txt	LTP267	ltpFR	14	2	1	CLOSET	326	n/a	0	n/a	0	0	0	n/a	n/a	n/a	n/a	n/a
425303	REC_WORD	wordpools/wasnorm_wordpool_less_exclusions.txt	LTP267	ltpFR	14	2	1	BISCUIT	130	n/a	0	n/a	0	0	0	n/a	n/a	n/a	n/a	n/a
426384	REC_WORD	wordpools/wasnorm_wordpool_less_exclusions.txt	LTP267	ltpFR	14	2	1	SALMON	1227	n/a	3	n/a	0	0	0	n/a	n/a	n/a	n/a	n/a
428555	REC_WORD	wordpools/wasnorm_wordpool_less_exclusions.txt	LTP267	ltpFR	14	2	1	OREGANO	983	n/a	0	n/a	0	0	0	n/a	n/a	n/a	n/a	n/a
468599	REC_WORD	wordpools/wasnorm_wordpool_less_exclusions.txt	LTP267	ltpFR	14	2	n/a	POLICE	1098	n/a	n/a	n/a	0	0	0	n/a	n/a	n/a	n/a	n/a
496110	START	n/a	LTP267	ltpFR	14	n/a	n/a	n/a	n/a	n/a	n/a	n/a	n/a	n/a	n/a	n/a	n/a	n/a	n/a	n/a
497614	PROB	n/a	LTP267	ltpFR	14	n/a	n/a	n/a	n/a	n/a	n/a	17	5	4	8	n/a	n/a	n/a	n/a	n/a
499321	PROB	n/a	LTP267	ltpFR	14	n/a	n/a	n/a	n/a	n/a	n/a	17	6	3	8	n/a	n/a	n/a	n/a	n/a
501043	PROB	n/a	LTP267	ltpFR	14	n/a	n/a	n/a	n/a	n/a	n/a	14	8	5	1	n/a	n/a	n/a	n/a	n/a
502822	STOP	n/a	LTP267	ltpFR	14	n/a	n/a	n/a	n/a	n/a	n/a	n/a	n/a	n/a	n/a	n/a	n/a	n/a	n/a	n/a
504976	WORD	wordpools/wasnorm_wordpool_less_exclusions.txt	LTP267	ltpFR	14	3	1	CRICKET	408	n/a	0	n/a	0	0	0	0	0.5869140625	0.422607421875	upper	../fonts/amplitud.ttf
507988	START	n/a	LTP267	ltpFR	14	n/a	n/a	n/a	n/a	n/a	n/a	n/a	n/a	n/a	n/a	n/a	n/a	n/a	n/a	n/a
509025	PROB	n/a	LTP267	ltpFR	14	n/a	n/a	n/a	n/a	n/a	n/a	10	6	2	2	n/a	n/a	n/a	n/a	n/a
510695	PROB	n/a	LTP267	ltpFR	14	n/a	n/a	n/a	n/a	n/a	n/a	6	1	1	4	n/a	n/a	n/a	n/a	n/a
511699	PROB	n/a	LTP267	ltpFR	14	n/a	n/a	n/a	n/a	n/a	n/a	23	4	8	9	n/a	n/a	n/a	n/a	n/a
513857	PROB	n/a	LTP267	ltpFR	14	n/a	n/a	n/a	n/a	n/a	n/a	11	1	5	5	n/a	n/a	n/a	n/a	n/a
515190	STOP	n/a	LTP267	ltpFR	14	n/a	n/a	n/a	n/a	n/a	n/a	n/a	n/a	n/a	n/a	n/a	n/a	n/a	n/a	n/a
517205	WORD	wordpools/wasnorm_wordpool_less_exclusions.txt	LTP267	ltpFR	14	3	1	KITE	779	n/a	0	n/a	0	0	0	0	0.5869140625	0.422607421875	upper	../fonts/amplitud.ttf
520217	START	n/a	LTP267	ltpFR	14	n/a	n/a	n/a	n/a	n/a	n/a	n/a	n/a	n/a	n/a	n/a	n/a	n/a	n/a	n/a
521170	PROB	n/a	LTP267	ltpFR	14	n/a	n/a	n/a	n/a	n/a	n/a	14	2	9	3	n/a	n/a	n/a	n/a	n/a
522740	PROB	n/a	LTP267	ltpFR	14	n/a	n/a	n/a	n/a	n/a	n/a	17	5	4	8	n/a	n/a	n/a	n/a	n/a
524232	PROB	n/a	LTP267	ltpFR	14	n/a	n/a	n/a	n/a	n/a	n/a	3	1	1	1	n/a	n/a	n/a	n/a	n/a
525251	PROB	n/a	LTP267	ltpFR	14	n/a	n/a	n/a	n/a	n/a	n/a	18	9	2	7	n/a	n/a	n/a	n/a	n/a
526878	STOP	n/a	LTP267	ltpFR	14	n/a	n/a	n/a	n/a	n/a	n/a	n/a	n/a	n/a	n/a	n/a	n/a	n/a	n/a	n/a
529251	WORD	wordpools/wasnorm_wordpool_less_exclusions.txt	LTP267	ltpFR	14	3	1	BARN	89	n/a	0	n/a	0	0	0	0	0.5869140625	0.422607421875	upper	../fonts/amplitud.ttf
532263	START	n/a	LTP267	ltpFR	14	n/a	n/a	n/a	n/a	n/a	n/a	n/a	n/a	n/a	n/a	n/a	n/a	n/a	n/a	n/a
533082	PROB	n/a	LTP267	ltpFR	14	n/a	n/a	n/a	n/a	n/a	n/a	14	5	4	5	n/a	n/a	n/a	n/a	n/a
534370	PROB	n/a	LTP267	ltpFR	14	n/a	n/a	n/a	n/a	n/a	n/a	18	9	4	5	n/a	n/a	n/a	n/a	n/a
536127	PROB	n/a	LTP267	ltpFR	14	n/a	n/a	n/a	n/a	n/a	n/a	13	1	5	6	n/a	n/a	n/a	n/a	n/a
540262	STOP	n/a	LTP267	ltpFR	14	n/a	n/a	n/a	n/a	n/a	n/a	n/a	n/a	n/a	n/a	n/a	n/a	n/a	n/a	n/a
541346	WORD	wordpools/wasnorm_wordpool_less_exclusions.txt	LTP267	ltpFR	14	3	0	HORSE	719	n/a	1	n/a	0	0	0	1	0.412841796875	0.57763671875	lower	../fonts/zerothre.ttf
544358	START	n/a	LTP267	ltpFR	14	n/a	n/a	n/a	n/a	n/a	n/a	n/a	n/a	n/a	n/a	n/a	n/a	n/a	n/a	n/a
545244	PROB	n/a	LTP267	ltpFR	14	n/a	n/a	n/a	n/a	n/a	n/a	10	6	1	3	n/a	n/a	n/a	n/a	n/a
547820	PROB	n/a	LTP267	ltpFR	14	n/a	n/a	n/a	n/a	n/a	n/a	2	9	5	7	n/a	n/a	n/a	n/a	n/a
549960	PROB	n/a	LTP267	ltpFR	14	n/a	n/a	n/a	n/a	n/a	n/a	21	8	7	6	n/a	n/a	n/a	n/a	n/a
551678	STOP	n/a	LTP267	ltpFR	14	n/a	n/a	n/a	n/a	n/a	n/a	n/a	n/a	n/a	n/a	n/a	n/a	n/a	n/a	n/a
553508	WORD	wordpools/wasnorm_wordpool_less_exclusions.txt	LTP267	ltpFR	14	3	0	PAINT	1003	n/a	0	n/a	0	0	0	1	0.412841796875	0.57763671875	lower	../fonts/zerothre.ttf
556520	START	n/a	LTP267	ltpFR	14	n/a	n/a	n/a	n/a	n/a	n/a	n/a	n/a	n/a	n/a	n/a	n/a	n/a	n/a	n/a
557340	PROB	n/a	LTP267	ltpFR	14	n/a	n/a	n/a	n/a	n/a	n/a	20	3	8	9	n/a	n/a	n/a	n/a	n/a
559247	PROB	n/a	LTP267	ltpFR	14	n/a	n/a	n/a	n/a	n/a	n/a	17	9	7	1	n/a	n/a	n/a	n/a	n/a
560601	PROB	n/a	LTP267	ltpFR	14	n/a	n/a	n/a	n/a	n/a	n/a	12	3	4	5	n/a	n/a	n/a	n/a	n/a
562359	PROB	n/a	LTP267	ltpFR	14	n/a	n/a	n/a	n/a	n/a	n/a	21	6	3	3	n/a	n/a	n/a	n/a	n/a
564270	STOP	n/a	LTP267	ltpFR	14	n/a	n/a	n/a	n/a	n/a	n/a	n/a	n/a	n/a	n/a	n/a	n/a	n/a	n/a	n/a
565570	WORD	wordpools/wasnorm_wordpool_less_exclusions.txt	LTP267	ltpFR	14	3	0	SLUG	1329	n/a	0	n/a	0	0	0	1	0.412841796875	0.57763671875	lower	../fonts/zerothre.ttf
568582	START	n/a	LTP267	ltpFR	14	n/a	n/a	n/a	n/a	n/a	n/a	n/a	n/a	n/a	n/a	n/a	n/a	n/a	n/a	n/a
569685	PROB	n/a	LTP267	ltpFR	14	n/a	n/a	n/a	n/a	n/a	n/a	13	5	6	2	n/a	n/a	n/a	n/a	n/a
571725	PROB	n/a	LTP267	ltpFR	14	n/a	n/a	n/a	n/a	n/a	n/a	10	1	3	6	n/a	n/a	n/a	n/a	n/a
573198	PROB	n/a	LTP267	ltpFR	14	n/a	n/a	n/a	n/a	n/a	n/a	12	1	6	5	n/a	n/a	n/a	n/a	n/a
574688	PROB	n/a	LTP267	ltpFR	14	n/a	n/a	n/a	n/a	n/a	n/a	16	6	5	5	n/a	n/a	n/a	n/a	n/a
575814	STOP	n/a	LTP267	ltpFR	14	n/a	n/a	n/a	n/a	n/a	n/a	n/a	n/a	n/a	n/a	n/a	n/a	n/a	n/a	n/a
577716	WORD	wordpools/wasnorm_wordpool_less_exclusions.txt	LTP267	ltpFR	14	3	0	BAKER	71	n/a	0	n/a	0	0	0	1	0.412841796875	0.57763671875	lower	../fonts/zerothre.ttf
580728	START	n/a	LTP267	ltpFR	14	n/a	n/a	n/a	n/a	n/a	n/a	n/a	n/a	n/a	n/a	n/a	n/a	n/a	n/a	n/a
581714	PROB	n/a	LTP267	ltpFR	14	n/a	n/a	n/a	n/a	n/a	n/a	21	7	7	7	n/a	n/a	n/a	n/a	n/a
583437	PROB	n/a	LTP267	ltpFR	14	n/a	n/a	n/a	n/a	n/a	n/a	14	1	4	9	n/a	n/a	n/a	n/a	n/a
584659	PROB	n/a	LTP267	ltpFR	14	n/a	n/a	n/a	n/a	n/a	n/a	15	1	7	7	n/a	n/a	n/a	n/a	n/a
587375	STOP	n/a	LTP267	ltpFR	14	n/a	n/a	n/a	n/a	n/a	n/a	n/a	n/a	n/a	n/a	n/a	n/a	n/a	n/a	n/a
589811	WORD	wordpools/wasnorm_wordpool_less_exclusions.txt	LTP267	ltpFR	14	3	1	CAR	241	n/a	0	n/a	0	0	0	0	0.5869140625	0.422607421875	upper	../fonts/amplitud.ttf
592823	START	n/a	LTP267	ltpFR	14	n/a	n/a	n/a	n/a	n/a	n/a	n/a	n/a	n/a	n/a	n/a	n/a	n/a	n/a	n/a
593793	PROB	n/a	LTP267	ltpFR	14	n/a	n/a	n/a	n/a	n/a	n/a	14	5	1	8	n/a	n/a	n/a	n/a	n/a
595166	PROB	n/a	LTP267	ltpFR	14	n/a	n/a	n/a	n/a	n/a	n/a	14	2	4	8	n/a	n/a	n/a	n/a	n/a
597607	PROB	n/a	LTP267	ltpFR	14	n/a	n/a	n/a	n/a	n/a	n/a	18	8	8	2	n/a	n/a	n/a	n/a	n/a
599047	PROB	n/a	LTP267	ltpFR	14	n/a	n/a	n/a	n/a	n/a	n/a	66	4	2	1	n/a	n/a	n/a	n/a	n/a
600303	STOP	n/a	LTP267	ltpFR	14	n/a	n/a	n/a	n/a	n/a	n/a	n/a	n/a	n/a	n/a	n/a	n/a	n/a	n/a	n/a
601790	WORD	wordpools/wasnorm_wordpool_less_exclusions.txt	LTP267	ltpFR	14	3	1	MAPLE	866	n/a	0	n/a	0	0	0	0	0.5869140625	0.422607421875	upper	../fonts/amplitud.ttf
604802	START	n/a	LTP267	ltpFR	14	n/a	n/a	n/a	n/a	n/a	n/a	n/a	n/a	n/a	n/a	n/a	n/a	n/a	n/a	n/a
605905	PROB	n/a	LTP267	ltpFR	14	n/a	n/a	n/a	n/a	n/a	n/a	8	1	6	1	n/a	n/a	n/a	n/a	n/a
606944	PROB	n/a	LTP267	ltpFR	14	n/a	n/a	n/a	n/a	n/a	n/a	24	9	9	6	n/a	n/a	n/a	n/a	n/a
608582	PROB	n/a	LTP267	ltpFR	14	n/a	n/a	n/a	n/a	n/a	n/a	15	5	4	6	n/a	n/a	n/a	n/a	n/a
610489	PROB	n/a	LTP267	ltpFR	14	n/a	n/a	n/a	n/a	n/a	n/a	18	7	5	6	n/a	n/a	n/a	n/a	n/a
611798	STOP	n/a	LTP267	ltpFR	14	n/a	n/a	n/a	n/a	n/a	n/a	n/a	n/a	n/a	n/a	n/a	n/a	n/a	n/a	n/a
613835	WORD	wordpools/wasnorm_wordpool_less_exclusions.txt	LTP267	ltpFR	14	3	0	SUGAR	1401	n/a	2	n/a	0	0	0	1	0.412841796875	0.57763671875	lower	../fonts/zerothre.ttf
614872	KEY_MSG	n/a	LTP267	ltpFR	14	3	n/a	n/a	n/a	n/a	n/a	n/a	0	0	0	n/a	n/a	n/a	n/a	n/a
616847	START	n/a	LTP267	ltpFR	14	n/a	n/a	n/a	n/a	n/a	n/a	n/a	n/a	n/a	n/a	n/a	n/a	n/a	n/a	n/a
617800	PROB	n/a	LTP267	ltpFR	14	n/a	n/a	n/a	n/a	n/a	n/a	16	3	9	4	n/a	n/a	n/a	n/a	n/a
623462	STOP	n/a	LTP267	ltpFR	14	n/a	n/a	n/a	n/a	n/a	n/a	n/a	n/a	n/a	n/a	n/a	n/a	n/a	n/a	n/a
625965	WORD	wordpools/wasnorm_wordpool_less_exclusions.txt	LTP267	ltpFR	14	3	0	TURTLE	1522	n/a	0	n/a	0	0	0	1	0.412841796875	0.57763671875	lower	../fonts/zerothre.ttf
628977	START	n/a	LTP267	ltpFR	14	n/a	n/a	n/a	n/a	n/a	n/a	n/a	n/a	n/a	n/a	n/a	n/a	n/a	n/a	n/a
629997	PROB	n/a	LTP267	ltpFR	14	n/a	n/a	n/a	n/a	n/a	n/a	17	3	7	7	n/a	n/a	n/a	n/a	n/a
632339	PROB	n/a	LTP267	ltpFR	14	n/a	n/a	n/a	n/a	n/a	n/a	22	9	8	7	n/a	n/a	n/a	n/a	n/a
636977	STOP	n/a	LTP267	ltpFR	14	n/a	n/a	n/a	n/a	n/a	n/a	n/a	n/a	n/a	n/a	n/a	n/a	n/a	n/a	n/a
638193	WORD	wordpools/wasnorm_wordpool_less_exclusions.txt	LTP267	ltpFR	14	3	0	WORKER	1621	n/a	1	n/a	0	0	0	1	0.412841796875	0.57763671875	lower	../fonts/zerothre.ttf
641207	START	n/a	LTP267	ltpFR	14	n/a	n/a	n/a	n/a	n/a	n/a	n/a	n/a	n/a	n/a	n/a	n/a	n/a	n/a	n/a
642277	PROB	n/a	LTP267	ltpFR	14	n/a	n/a	n/a	n/a	n/a	n/a	12	3	4	5	n/a	n/a	n/a	n/a	n/a
644869	PROB	n/a	LTP267	ltpFR	14	n/a	n/a	n/a	n/a	n/a	n/a	15	9	1	5	n/a	n/a	n/a	n/a	n/a
646006	PROB	n/a	LTP267	ltpFR	14	n/a	n/a	n/a	n/a	n/a	n/a	7	1	5	1	n/a	n/a	n/a	n/a	n/a
647212	PROB	n/a	LTP267	ltpFR	14	n/a	n/a	n/a	n/a	n/a	n/a	13	3	5	5	n/a	n/a	n/a	n/a	n/a
648454	STOP	n/a	LTP267	ltpFR	14	n/a	n/a	n/a	n/a	n/a	n/a	n/a	n/a	n/a	n/a	n/a	n/a	n/a	n/a	n/a
650039	WORD	wordpools/wasnorm_wordpool_less_exclusions.txt	LTP267	ltpFR	14	3	0	KNIGHT	786	n/a	1	n/a	0	0	0	1	0.412841796875	0.57763671875	lower	../fonts/zerothre.ttf
653051	START	n/a	LTP267	ltpFR	14	n/a	n/a	n/a	n/a	n/a	n/a	n/a	n/a	n/a	n/a	n/a	n/a	n/a	n/a	n/a
653920	PROB	n/a	LTP267	ltpFR	14	n/a	n/a	n/a	n/a	n/a	n/a	16	2	6	8	n/a	n/a	n/a	n/a	n/a
655343	PROB	n/a	LTP267	ltpFR	14	n/a	n/a	n/a	n/a	n/a	n/a	22	6	8	8	n/a	n/a	n/a	n/a	n/a
657350	PROB	n/a	LTP267	ltpFR	14	n/a	n/a	n/a	n/a	n/a	n/a	13	2	9	2	n/a	n/a	n/a	n/a	n/a
658956	PROB	n/a	LTP267	ltpFR	14	n/a	n/a	n/a	n/a	n/a	n/a	22	6	8	8	n/a	n/a	n/a	n/a	n/a
660502	STOP	n/a	LTP267	ltpFR	14	n/a	n/a	n/a	n/a	n/a	n/a	n/a	n/a	n/a	n/a	n/a	n/a	n/a	n/a	n/a
661984	WORD	wordpools/wasnorm_wordpool_less_exclusions.txt	LTP267	ltpFR	14	3	1	THERMOMETER	1453	n/a	0	n/a	0	0	0	0	0.5869140625	0.422607421875	upper	../fonts/amplitud.ttf
664996	START	n/a	LTP267	ltpFR	14	n/a	n/a	n/a	n/a	n/a	n/a	n/a	n/a	n/a	n/a	n/a	n/a	n/a	n/a	n/a
666083	PROB	n/a	LTP267	ltpFR	14	n/a	n/a	n/a	n/a	n/a	n/a	12	3	1	8	n/a	n/a	n/a	n/a	n/a
668024	PROB	n/a	LTP267	ltpFR	14	n/a	n/a	n/a	n/a	n/a	n/a	25	7	9	9	n/a	n/a	n/a	n/a	n/a
670482	PROB	n/a	LTP267	ltpFR	14	n/a	n/a	n/a	n/a	n/a	n/a	22	7	9	4	n/a	n/a	n/a	n/a	n/a
672454	STOP	n/a	LTP267	ltpFR	14	n/a	n/a	n/a	n/a	n/a	n/a	n/a	n/a	n/a	n/a	n/a	n/a	n/a	n/a	n/a
674214	WORD	wordpools/wasnorm_wordpool_less_exclusions.txt	LTP267	ltpFR	14	3	1	BRAKE	166	n/a	0	n/a	0	0	0	0	0.5869140625	0.422607421875	upper	../fonts/amplitud.ttf
677226	START	n/a	LTP267	ltpFR	14	n/a	n/a	n/a	n/a	n/a	n/a	n/a	n/a	n/a	n/a	n/a	n/a	n/a	n/a	n/a
678346	PROB	n/a	LTP267	ltpFR	14	n/a	n/a	n/a	n/a	n/a	n/a	4	4	2	1	n/a	n/a	n/a	n/a	n/a
679834	PROB	n/a	LTP267	ltpFR	14	n/a	n/a	n/a	n/a	n/a	n/a	9	5	3	1	n/a	n/a	n/a	n/a	n/a
681341	PROB	n/a	LTP267	ltpFR	14	n/a	n/a	n/a	n/a	n/a	n/a	19	2	8	9	n/a	n/a	n/a	n/a	n/a
682578	PROB	n/a	LTP267	ltpFR	14	n/a	n/a	n/a	n/a	n/a	n/a	15	3	9	3	n/a	n/a	n/a	n/a	n/a
684590	STOP	n/a	LTP267	ltpFR	14	n/a	n/a	n/a	n/a	n/a	n/a	n/a	n/a	n/a	n/a	n/a	n/a	n/a	n/a	n/a
686409	WORD	wordpools/wasnorm_wordpool_less_exclusions.txt	LTP267	ltpFR	14	3	1	POTATO	1115	n/a	0	n/a	0	0	0	0	0.5869140625	0.422607421875	upper	../fonts/amplitud.ttf
689420	START	n/a	LTP267	ltpFR	14	n/a	n/a	n/a	n/a	n/a	n/a	n/a	n/a	n/a	n/a	n/a	n/a	n/a	n/a	n/a
690424	PROB	n/a	LTP267	ltpFR	14	n/a	n/a	n/a	n/a	n/a	n/a	19	8	6	5	n/a	n/a	n/a	n/a	n/a
692615	PROB	n/a	LTP267	ltpFR	14	n/a	n/a	n/a	n/a	n/a	n/a	10	1	5	4	n/a	n/a	n/a	n/a	n/a
697420	STOP	n/a	LTP267	ltpFR	14	n/a	n/a	n/a	n/a	n/a	n/a	n/a	n/a	n/a	n/a	n/a	n/a	n/a	n/a	n/a
699359	REC_START	n/a	LTP267	ltpFR	14	3	n/a	n/a	n/a	n/a	n/a	n/a	0	0	0	n/a	n/a	n/a	n/a	n/a
706885	REC_WORD_VV	wordpools/wasnorm_wordpool_less_exclusions.txt	LTP267	ltpFR	14	3	n/a	<>	-1	n/a	n/a	n/a	0	0	0	n/a	n/a	n/a	n/a	n/a
707563	REC_WORD_VV	wordpools/wasnorm_wordpool_less_exclusions.txt	LTP267	ltpFR	14	3	n/a	<>	-1	n/a	n/a	n/a	0	0	0	n/a	n/a	n/a	n/a	n/a
709034	REC_WORD	wordpools/wasnorm_wordpool_less_exclusions.txt	LTP267	ltpFR	14	3	n/a	OFFICER	973	n/a	n/a	n/a	0	0	0	n/a	n/a	n/a	n/a	n/a
712706	REC_WORD	wordpools/wasnorm_wordpool_less_exclusions.txt	LTP267	ltpFR	14	3	1	BARN	89	n/a	0	n/a	0	0	0	n/a	n/a	n/a	n/a	n/a
713599	REC_WORD_VV	wordpools/wasnorm_wordpool_less_exclusions.txt	LTP267	ltpFR	14	3	n/a	<>	-1	n/a	n/a	n/a	0	0	0	n/a	n/a	n/a	n/a	n/a
714599	REC_WORD_VV	wordpools/wasnorm_wordpool_less_exclusions.txt	LTP267	ltpFR	14	3	n/a	<>	-1	n/a	n/a	n/a	0	0	0	n/a	n/a	n/a	n/a	n/a
715599	REC_WORD_VV	wordpools/wasnorm_wordpool_less_exclusions.txt	LTP267	ltpFR	14	3	n/a	<>	-1	n/a	n/a	n/a	0	0	0	n/a	n/a	n/a	n/a	n/a
790803	START	n/a	LTP267	ltpFR	14	n/a	n/a	n/a	n/a	n/a	n/a	n/a	n/a	n/a	n/a	n/a	n/a	n/a	n/a	n/a
792309	PROB	n/a	LTP267	ltpFR	14	n/a	n/a	n/a	n/a	n/a	n/a	20	6	5	9	n/a	n/a	n/a	n/a	n/a
793932	PROB	n/a	LTP267	ltpFR	14	n/a	n/a	n/a	n/a	n/a	n/a	12	6	2	4	n/a	n/a	n/a	n/a	n/a
795453	PROB	n/a	LTP267	ltpFR	14	n/a	n/a	n/a	n/a	n/a	n/a	15	6	1	8	n/a	n/a	n/a	n/a	n/a
796975	PROB	n/a	LTP267	ltpFR	14	n/a	n/a	n/a	n/a	n/a	n/a	18	5	9	4	n/a	n/a	n/a	n/a	n/a
799550	PROB	n/a	LTP267	ltpFR	14	n/a	n/a	n/a	n/a	n/a	n/a	15	4	6	5	n/a	n/a	n/a	n/a	n/a
801057	PROB	n/a	LTP267	ltpFR	14	n/a	n/a	n/a	n/a	n/a	n/a	13	4	5	2	n/a	n/a	n/a	n/a	n/a
803049	PROB	n/a	LTP267	ltpFR	14	n/a	n/a	n/a	n/a	n/a	n/a	16	6	3	7	n/a	n/a	n/a	n/a	n/a
804304	PROB	n/a	LTP267	ltpFR	14	n/a	n/a	n/a	n/a	n/a	n/a	19	7	5	7	n/a	n/a	n/a	n/a	n/a
805814	STOP	n/a	LTP267	ltpFR	14	n/a	n/a	n/a	n/a	n/a	n/a	n/a	n/a	n/a	n/a	n/a	n/a	n/a	n/a	n/a
807833	WORD	wordpools/wasnorm_wordpool_less_exclusions.txt	LTP267	ltpFR	14	4	1	ENVELOPE	537	n/a	0	n/a	0	0	0	0	0.5869140625	0.422607421875	upper	../fonts/amplitud.ttf
810845	START	n/a	LTP267	ltpFR	14	n/a	n/a	n/a	n/a	n/a	n/a	n/a	n/a	n/a	n/a	n/a	n/a	n/a	n/a	n/a
811647	PROB	n/a	LTP267	ltpFR	14	n/a	n/a	n/a	n/a	n/a	n/a	16	4	8	4	n/a	n/a	n/a	n/a	n/a
815329	PROB	n/a	LTP267	ltpFR	14	n/a	n/a	n/a	n/a	n/a	n/a	17	3	7	7	n/a	n/a	n/a	n/a	n/a
817337	PROB	n/a	LTP267	ltpFR	14	n/a	n/a	n/a	n/a	n/a	n/a	7	3	2	2	n/a	n/a	n/a	n/a	n/a
819828	PROB	n/a	LTP267	ltpFR	14	n/a	n/a	n/a	n/a	n/a	n/a	8	2	4	2	n/a	n/a	n/a	n/a	n/a
821652	PROB	n/a	LTP267	ltpFR	14	n/a	n/a	n/a	n/a	n/a	n/a	9	3	1	5	n/a	n/a	n/a	n/a	n/a
826845	STOP	n/a	LTP267	ltpFR	14	n/a	n/a	n/a	n/a	n/a	n/a	n/a	n/a	n/a	n/a	n/a	n/a	n/a	n/a	n/a
827909	WORD	wordpools/wasnorm_wordpool_less_exclusions.txt	LTP267	ltpFR	14	4	1	VILLAGE	1566	n/a	0	n/a	0	0	0	0	0.5869140625	0.422607421875	upper	../fonts/amplitud.ttf
830921	START	n/a	LTP267	ltpFR	14	n/a	n/a	n/a	n/a	n/a	n/a	n/a	n/a	n/a	n/a	n/a	n/a	n/a	n/a	n/a
831942	PROB	n/a	LTP267	ltpFR	14	n/a	n/a	n/a	n/a	n/a	n/a	15	4	7	4	n/a	n/a	n/a	n/a	n/a
835137	PROB	n/a	LTP267	ltpFR	14	n/a	n/a	n/a	n/a	n/a	n/a	7	2	2	3	n/a	n/a	n/a	n/a	n/a
837026	PROB	n/a	LTP267	ltpFR	14	n/a	n/a	n/a	n/a	n/a	n/a	9	2	3	4	n/a	n/a	n/a	n/a	n/a
838750	PROB	n/a	LTP267	ltpFR	14	n/a	n/a	n/a	n/a	n/a	n/a	9	3	1	5	n/a	n/a	n/a	n/a	n/a
842514	PROB	n/a	LTP267	ltpFR	14	n/a	n/a	n/a	n/a	n/a	n/a	18	5	4	9	n/a	n/a	n/a	n/a	n/a
844486	PROB	n/a	LTP267	ltpFR	14	n/a	n/a	n/a	n/a	n/a	n/a	15	5	7	3	n/a	n/a	n/a	n/a	n/a
845646	STOP	n/a	LTP267	ltpFR	14	n/a	n/a	n/a	n/a	n/a	n/a	n/a	n/a	n/a	n/a	n/a	n/a	n/a	n/a	n/a
848036	WORD	wordpools/wasnorm_wordpool_less_exclusions.txt	LTP267	ltpFR	14	4	1	BUILDER	190	n/a	1	n/a	0	0	0	0	0.5869140625	0.422607421875	upper	../fonts/amplitud.ttf
851048	START	n/a	LTP267	ltpFR	14	n/a	n/a	n/a	n/a	n/a	n/a	n/a	n/a	n/a	n/a	n/a	n/a	n/a	n/a	n/a
852201	PROB	n/a	LTP267	ltpFR	14	n/a	n/a	n/a	n/a	n/a	n/a	15	4	5	6	n/a	n/a	n/a	n/a	n/a
853991	PROB	n/a	LTP267	ltpFR	14	n/a	n/a	n/a	n/a	n/a	n/a	15	2	9	4	n/a	n/a	n/a	n/a	n/a
856431	PROB	n/a	LTP267	ltpFR	14	n/a	n/a	n/a	n/a	n/a	n/a	16	8	7	1	n/a	n/a	n/a	n/a	n/a
858958	PROB	n/a	LTP267	ltpFR	14	n/a	n/a	n/a	n/a	n/a	n/a	8	3	3	2	n/a	n/a	n/a	n/a	n/a
860799	PROB	n/a	LTP267	ltpFR	14	n/a	n/a	n/a	n/a	n/a	n/a	10	8	8	4	n/a	n/a	n/a	n/a	n/a
862740	PROB	n/a	LTP267	ltpFR	14	n/a	n/a	n/a	n/a	n/a	n/a	20	5	8	7	n/a	n/a	n/a	n/a	n/a
867047	STOP	n/a	LTP267	ltpFR	14	n/a	n/a	n/a	n/a	n/a	n/a	n/a	n/a	n/a	n/a	n/a	n/a	n/a	n/a	n/a
867961	WORD	wordpools/wasnorm_wordpool_less_exclusions.txt	LTP267	ltpFR	14	4	1	CYCLONE	431	n/a	0	n/a	0	0	0	0	0.5869140625	0.422607421875	upper	../fonts/amplitud.ttf
870973	START	n/a	LTP267	ltpFR	14	n/a	n/a	n/a	n/a	n/a	n/a	n/a	n/a	n/a	n/a	n/a	n/a	n/a	n/a	n/a
872093	PROB	n/a	LTP267	ltpFR	14	n/a	n/a	n/a	n/a	n/a	n/a	24	9	9	6	n/a	n/a	n/a	n/a	n/a
874534	PROB	n/a	LTP267	ltpFR	14	n/a	n/a	n/a	n/a	n/a	n/a	14	3	7	4	n/a	n/a	n/a	n/a	n/a
876392	PROB	n/a	LTP267	ltpFR	14	n/a	n/a	n/a	n/a	n/a	n/a	7	1	2	4	n/a	n/a	n/a	n/a	n/a
878097	PROB	n/a	LTP267	ltpFR	14	n/a	n/a	n/a	n/a	n/a	n/a	19	7	3	9	n/a	n/a	n/a	n/a	n/a
881378	PROB	n/a	LTP267	ltpFR	14	n/a	n/a	n/a	n/a	n/a	n/a	15	4	2	9	n/a	n/a	n/a	n/a	n/a
883084	PROB	n/a	LTP267	ltpFR	14	n/a	n/a	n/a	n/a	n/a	n/a	15	3	6	6	n/a	n/a	n/a	n/a	n/a
885918	STOP	n/a	LTP267	ltpFR	14	n/a	n/a	n/a	n/a	n/a	n/a	n/a	n/a	n/a	n/a	n/a	n/a	n/a	n/a	n/a
887901	WORD	wordpools/wasnorm_wordpool_less_exclusions.txt	LTP267	ltpFR	14	4	0	RAM	1165	n/a	1	n/a	0	0	0	1	0.412841796875	0.57763671875	lower	../fonts/zerothre.ttf
890914	START	n/a	LTP267	ltpFR	14	n/a	n/a	n/a	n/a	n/a	n/a	n/a	n/a	n/a	n/a	n/a	n/a	n/a	n/a	n/a
892068	PROB	n/a	LTP267	ltpFR	14	n/a	n/a	n/a	n/a	n/a	n/a	12	4	2	6	n/a	n/a	n/a	n/a	n/a
894409	PROB	n/a	LTP267	ltpFR	14	n/a	n/a	n/a	n/a	n/a	n/a	10	7	1	2	n/a	n/a	n/a	n/a	n/a
899379	PROB	n/a	LTP267	ltpFR	14	n/a	n/a	n/a	n/a	n/a	n/a	11	2	3	6	n/a	n/a	n/a	n/a	n/a
900900	PROB	n/a	LTP267	ltpFR	14	n/a	n/a	n/a	n/a	n/a	n/a	20	9	9	2	n/a	n/a	n/a	n/a	n/a
902290	PROB	n/a	LTP267	ltpFR	14	n/a	n/a	n/a	n/a	n/a	n/a	21	3	9	9	n/a	n/a	n/a	n/a	n/a
903793	PROB	n/a	LTP267	ltpFR	14	n/a	n/a	n/a	n/a	n/a	n/a	15	9	2	4	n/a	n/a	n/a	n/a	n/a
905910	STOP	n/a	LTP267	ltpFR	14	n/a	n/a	n/a	n/a	n/a	n/a	n/a	n/a	n/a	n/a	n/a	n/a	n/a	n/a	n/a
908129	WORD	wordpools/wasnorm_wordpool_less_exclusions.txt	LTP267	ltpFR	14	4	0	SHEPHERD	1283	n/a	1	n/a	0	0	0	1	0.412841796875	0.57763671875	lower	../fonts/zerothre.ttf
911141	START	n/a	LTP267	ltpFR	14	n/a	n/a	n/a	n/a	n/a	n/a	n/a	n/a	n/a	n/a	n/a	n/a	n/a	n/a	n/a
911977	PROB	n/a	LTP267	ltpFR	14	n/a	n/a	n/a	n/a	n/a	n/a	13	8	1	4	n/a	n/a	n/a	n/a	n/a
914100	PROB	n/a	LTP267	ltpFR	14	n/a	n/a	n/a	n/a	n/a	n/a	14	7	4	3	n/a	n/a	n/a	n/a	n/a
916125	PROB	n/a	LTP267	ltpFR	14	n/a	n/a	n/a	n/a	n/a	n/a	21	9	7	6	n/a	n/a	n/a	n/a	n/a
918682	PROB	n/a	LTP267	ltpFR	14	n/a	n/a	n/a	n/a	n/a	n/a	14	9	4	1	n/a	n/a	n/a	n/a	n/a
920040	PROB	n/a	LTP267	ltpFR	14	n/a	n/a	n/a	n/a	n/a	n/a	20	6	9	5	n/a	n/a	n/a	n/a	n/a
922098	PROB	n/a	LTP267	ltpFR	14	n/a	n/a	n/a	n/a	n/a	n/a	14	1	5	8	n/a	n/a	n/a	n/a	n/a
927127	STOP	n/a	LTP267	ltpFR	14	n/a	n/a	n/a	n/a	n/a	n/a	n/a	n/a	n/a	n/a	n/a	n/a	n/a	n/a	n/a
928270	WORD	wordpools/wasnorm_wordpool_less_exclusions.txt	LTP267	ltpFR	14	4	0	SCARECROW	1245	n/a	1	n/a	0	0	0	1	0.412841796875	0.57763671875	lower	../fonts/zerothre.ttf
931283	START	n/a	LTP267	ltpFR	14	n/a	n/a	n/a	n/a	n/a	n/a	n/a	n/a	n/a	n/a	n/a	n/a	n/a	n/a	n/a
932153	PROB	n/a	LTP267	ltpFR	14	n/a	n/a	n/a	n/a	n/a	n/a	14	5	3	6	n/a	n/a	n/a	n/a	n/a
937238	PROB	n/a	LTP267	ltpFR	14	n/a	n/a	n/a	n/a	n/a	n/a	16	2	7	7	n/a	n/a	n/a	n/a	n/a
939044	PROB	n/a	LTP267	ltpFR	14	n/a	n/a	n/a	n/a	n/a	n/a	19	6	5	7	n/a	n/a	n/a	n/a	n/a
942623	PROB	n/a	LTP267	ltpFR	14	n/a	n/a	n/a	n/a	n/a	n/a	15	3	4	8	n/a	n/a	n/a	n/a	n/a
944900	PROB	n/a	LTP267	ltpFR	14	n/a	n/a	n/a	n/a	n/a	n/a	20	9	9	2	n/a	n/a	n/a	n/a	n/a
946558	STOP	n/a	LTP267	ltpFR	14	n/a	n/a	n/a	n/a	n/a	n/a	n/a	n/a	n/a	n/a	n/a	n/a	n/a	n/a	n/a
948314	WORD	wordpools/wasnorm_wordpool_less_exclusions.txt	LTP267	ltpFR	14	4	0	LUNCH	849	n/a	0	n/a	0	0	0	1	0.412841796875	0.57763671875	lower	../fonts/zerothre.ttf
951325	START	n/a	LTP267	ltpFR	14	n/a	n/a	n/a	n/a	n/a	n/a	n/a	n/a	n/a	n/a	n/a	n/a	n/a	n/a	n/a
952295	PROB	n/a	LTP267	ltpFR	14	n/a	n/a	n/a	n/a	n/a	n/a	13	9	3	1	n/a	n/a	n/a	n/a	n/a
953648	PROB	n/a	LTP267	ltpFR	14	n/a	n/a	n/a	n/a	n/a	n/a	14	7	6	1	n/a	n/a	n/a	n/a	n/a
955423	PROB	n/a	LTP267	ltpFR	14	n/a	n/a	n/a	n/a	n/a	n/a	25	8	9	9	n/a	n/a	n/a	n/a	n/a
957264	PROB	n/a	LTP267	ltpFR	14	n/a	n/a	n/a	n/a	n/a	n/a	12	9	1	2	n/a	n/a	n/a	n/a	n/a
958635	PROB	n/a	LTP267	ltpFR	14	n/a	n/a	n/a	n/a	n/a	n/a	18	8	3	7	n/a	n/a	n/a	n/a	n/a
960223	PROB	n/a	LTP267	ltpFR	14	n/a	n/a	n/a	n/a	n/a	n/a	17	3	6	8	n/a	n/a	n/a	n/a	n/a
967324	STOP	n/a	LTP267	ltpFR	14	n/a	n/a	n/a	n/a	n/a	n/a	n/a	n/a	n/a	n/a	n/a	n/a	n/a	n/a	n/a
968239	WORD	wordpools/wasnorm_wordpool_less_exclusions.txt	LTP267	ltpFR	14	4	0	PEAR	1033	n/a	0	n/a	0	0	0	1	0.412841796875	0.57763671875	lower	../fonts/zerothre.ttf
971251	START	n/a	LTP267	ltpFR	14	n/a	n/a	n/a	n/a	n/a	n/a	n/a	n/a	n/a	n/a	n/a	n/a	n/a	n/a	n/a
972086	PROB	n/a	LTP267	ltpFR	14	n/a	n/a	n/a	n/a	n/a	n/a	19	9	4	6	n/a	n/a	n/a	n/a	n/a
974178	PROB	n/a	LTP267	ltpFR	14	n/a	n/a	n/a	n/a	n/a	n/a	15	5	3	7	n/a	n/a	n/a	n/a	n/a
975831	PROB	n/a	LTP267	ltpFR	14	n/a	n/a	n/a	n/a	n/a	n/a	14	2	5	7	n/a	n/a	n/a	n/a	n/a
977723	PROB	n/a	LTP267	ltpFR	14	n/a	n/a	n/a	n/a	n/a	n/a	23	9	6	7	n/a	n/a	n/a	n/a	n/a
979898	PROB	n/a	LTP267	ltpFR	14	n/a	n/a	n/a	n/a	n/a	n/a	13	7	4	2	n/a	n/a	n/a	n/a	n/a
981887	PROB	n/a	LTP267	ltpFR	14	n/a	n/a	n/a	n/a	n/a	n/a	18	5	8	5	n/a	n/a	n/a	n/a	n/a
983329	PROB	n/a	LTP267	ltpFR	14	n/a	n/a	n/a	n/a	n/a	n/a	16	4	6	6	n/a	n/a	n/a	n/a	n/a
984599	PROB	n/a	LTP267	ltpFR	14	n/a	n/a	n/a	n/a	n/a	n/a	24	8	9	7	n/a	n/a	n/a	n/a	n/a
987207	STOP	n/a	LTP267	ltpFR	14	n/a	n/a	n/a	n/a	n/a	n/a	n/a	n/a	n/a	n/a	n/a	n/a	n/a	n/a	n/a
988180	WORD	wordpools/wasnorm_wordpool_less_exclusions.txt	LTP267	ltpFR	14	4	1	POSTAGE	1113	n/a	0	n/a	0	0	0	0	0.5869140625	0.422607421875	upper	../fonts/amplitud.ttf
991192	START	n/a	LTP267	ltpFR	14	n/a	n/a	n/a	n/a	n/a	n/a	n/a	n/a	n/a	n/a	n/a	n/a	n/a	n/a	n/a
992229	PROB	n/a	LTP267	ltpFR	14	n/a	n/a	n/a	n/a	n/a	n/a	5	1	1	3	n/a	n/a	n/a	n/a	n/a
993483	PROB	n/a	LTP267	ltpFR	14	n/a	n/a	n/a	n/a	n/a	n/a	23	7	7	9	n/a	n/a	n/a	n/a	n/a
997565	PROB	n/a	LTP267	ltpFR	14	n/a	n/a	n/a	n/a	n/a	n/a	10	1	1	8	n/a	n/a	n/a	n/a	n/a
998803	PROB	n/a	LTP267	ltpFR	14	n/a	n/a	n/a	n/a	n/a	n/a	15	2	4	9	n/a	n/a	n/a	n/a	n/a
1000457	PROB	n/a	LTP267	ltpFR	14	n/a	n/a	n/a	n/a	n/a	n/a	12	6	4	2	n/a	n/a	n/a	n/a	n/a
1001796	PROB	n/a	LTP267	ltpFR	14	n/a	n/a	n/a	n/a	n/a	n/a	14	5	5	4	n/a	n/a	n/a	n/a	n/a
1002835	PROB	n/a	LTP267	ltpFR	14	n/a	n/a	n/a	n/a	n/a	n/a	5	2	1	2	n/a	n/a	n/a	n/a	n/a
1004556	PROB	n/a	LTP267	ltpFR	14	n/a	n/a	n/a	n/a	n/a	n/a	4	2	1	1	n/a	n/a	n/a	n/a	n/a
1005526	PROB	n/a	LTP267	ltpFR	14	n/a	n/a	n/a	n/a	n/a	n/a	12	9	2	1	n/a	n/a	n/a	n/a	n/a
1006718	STOP	n/a	LTP267	ltpFR	14	n/a	n/a	n/a	n/a	n/a	n/a	n/a	n/a	n/a	n/a	n/a	n/a	n/a	n/a	n/a
1008289	WORD	wordpools/wasnorm_wordpool_less_exclusions.txt	LTP267	ltpFR	14	4	1	STEWARDESS	1381	n/a	1	n/a	0	0	0	0	0.5869140625	0.422607421875	upper	../fonts/amplitud.ttf
1011302	START	n/a	LTP267	ltpFR	14	n/a	n/a	n/a	n/a	n/a	n/a	n/a	n/a	n/a	n/a	n/a	n/a	n/a	n/a	n/a
1012438	PROB	n/a	LTP267	ltpFR	14	n/a	n/a	n/a	n/a	n/a	n/a	12	4	2	6	n/a	n/a	n/a	n/a	n/a
1014529	PROB	n/a	LTP267	ltpFR	14	n/a	n/a	n/a	n/a	n/a	n/a	21	7	7	5	n/a	n/a	n/a	n/a	n/a
1019782	PROB	n/a	LTP267	ltpFR	14	n/a	n/a	n/a	n/a	n/a	n/a	13	2	9	2	n/a	n/a	n/a	n/a	n/a
1022524	PROB	n/a	LTP267	ltpFR	14	n/a	n/a	n/a	n/a	n/a	n/a	17	5	5	7	n/a	n/a	n/a	n/a	n/a
1023728	PROB	n/a	LTP267	ltpFR	14	n/a	n/a	n/a	n/a	n/a	n/a	15	4	6	5	n/a	n/a	n/a	n/a	n/a
1027301	STOP	n/a	LTP267	ltpFR	14	n/a	n/a	n/a	n/a	n/a	n/a	n/a	n/a	n/a	n/a	n/a	n/a	n/a	n/a	n/a
1028465	WORD	wordpools/wasnorm_wordpool_less_exclusions.txt	LTP267	ltpFR	14	4	1	ANTENNA	28	n/a	0	n/a	0	0	0	0	0.5869140625	0.422607421875	upper	../fonts/amplitud.ttf
1031477	START	n/a	LTP267	ltpFR	14	n/a	n/a	n/a	n/a	n/a	n/a	n/a	n/a	n/a	n/a	n/a	n/a	n/a	n/a	n/a
1032396	PROB	n/a	LTP267	ltpFR	14	n/a	n/a	n/a	n/a	n/a	n/a	14	1	3	7	n/a	n/a	n/a	n/a	n/a
1034003	PROB	n/a	LTP267	ltpFR	14	n/a	n/a	n/a	n/a	n/a	n/a	11	6	1	4	n/a	n/a	n/a	n/a	n/a
1035506	PROB	n/a	LTP267	ltpFR	14	n/a	n/a	n/a	n/a	n/a	n/a	21	9	3	9	n/a	n/a	n/a	n/a	n/a
1037214	PROB	n/a	LTP267	ltpFR	14	n/a	n/a	n/a	n/a	n/a	n/a	13	2	2	9	n/a	n/a	n/a	n/a	n/a
1038972	PROB	n/a	LTP267	ltpFR	14	n/a	n/a	n/a	n/a	n/a	n/a	19	9	1	9	n/a	n/a	n/a	n/a	n/a
1041046	PROB	n/a	LTP267	ltpFR	14	n/a	n/a	n/a	n/a	n/a	n/a	20	7	9	4	n/a	n/a	n/a	n/a	n/a
1047470	STOP	n/a	LTP267	ltpFR	14	n/a	n/a	n/a	n/a	n/a	n/a	n/a	n/a	n/a	n/a	n/a	n/a	n/a	n/a	n/a
1048472	WORD	wordpools/wasnorm_wordpool_less_exclusions.txt	LTP267	ltpFR	14	4	1	BLENDER	136	n/a	0	n/a	0	0	0	0	0.5869140625	0.422607421875	upper	../fonts/amplitud.ttf
1051486	START	n/a	LTP267	ltpFR	14	n/a	n/a	n/a	n/a	n/a	n/a	n/a	n/a	n/a	n/a	n/a	n/a	n/a	n/a	n/a
1052587	PROB	n/a	LTP267	ltpFR	14	n/a	n/a	n/a	n/a	n/a	n/a	10	7	1	2	n/a	n/a	n/a	n/a	n/a
1054127	PROB	n/a	LTP267	ltpFR	14	n/a	n/a	n/a	n/a	n/a	n/a	23	7	2	9	n/a	n/a	n/a	n/a	n/a
1057308	PROB	n/a	LTP267	ltpFR	14	n/a	n/a	n/a	n/a	n/a	n/a	11	3	3	5	n/a	n/a	n/a	n/a	n/a
1059098	PROB	n/a	LTP267	ltpFR	14	n/a	n/a	n/a	n/a	n/a	n/a	18	8	5	5	n/a	n/a	n/a	n/a	n/a
1060400	PROB	n/a	LTP267	ltpFR	14	n/a	n/a	n/a	n/a	n/a	n/a	12	3	1	8	n/a	n/a	n/a	n/a	n/a
1062276	PROB	n/a	LTP267	ltpFR	14	n/a	n/a	n/a	n/a	n/a	n/a	20	7	8	5	n/a	n/a	n/a	n/a	n/a
1067485	STOP	n/a	LTP267	ltpFR	14	n/a	n/a	n/a	n/a	n/a	n/a	n/a	n/a	n/a	n/a	n/a	n/a	n/a	n/a	n/a
1068432	WORD	wordpools/wasnorm_wordpool_less_exclusions.txt	LTP267	ltpFR	14	4	0	MONGOOSE	909	n/a	1	n/a	0	0	0	1	0.412841796875	0.57763671875	lower	../fonts/zerothre.ttf
1071444	START	n/a	LTP267	ltpFR	14	n/a	n/a	n/a	n/a	n/a	n/a	n/a	n/a	n/a	n/a	n/a	n/a	n/a	n/a	n/a
1072514	PROB	n/a	LTP267	ltpFR	14	n/a	n/a	n/a	n/a	n/a	n/a	13	6	2	5	n/a	n/a	n/a	n/a	n/a
1074739	PROB	n/a	LTP267	ltpFR	14	n/a	n/a	n/a	n/a	n/a	n/a	12	6	2	4	n/a	n/a	n/a	n/a	n/a
1076313	PROB	n/a	LTP267	ltpFR	14	n/a	n/a	n/a	n/a	n/a	n/a	13	4	8	1	n/a	n/a	n/a	n/a	n/a
1078419	PROB	n/a	LTP267	ltpFR	14	n/a	n/a	n/a	n/a	n/a	n/a	17	4	8	5	n/a	n/a	n/a	n/a	n/a
1080795	PROB	n/a	LTP267	ltpFR	14	n/a	n/a	n/a	n/a	n/a	n/a	19	8	3	8	n/a	n/a	n/a	n/a	n/a
1086039	STOP	n/a	LTP267	ltpFR	14	n/a	n/a	n/a	n/a	n/a	n/a	n/a	n/a	n/a	n/a	n/a	n/a	n/a	n/a	n/a
1088541	WORD	wordpools/wasnorm_wordpool_less_exclusions.txt	LTP267	ltpFR	14	4	0	CREATURE	403	n/a	0	n/a	0	0	0	1	0.412841796875	0.57763671875	lower	../fonts/zerothre.ttf
1091553	START	n/a	LTP267	ltpFR	14	n/a	n/a	n/a	n/a	n/a	n/a	n/a	n/a	n/a	n/a	n/a	n/a	n/a	n/a	n/a
1092606	PROB	n/a	LTP267	ltpFR	14	n/a	n/a	n/a	n/a	n/a	n/a	11	5	2	4	n/a	n/a	n/a	n/a	n/a
1096338	PROB	n/a	LTP267	ltpFR	14	n/a	n/a	n/a	n/a	n/a	n/a	13	5	2	6	n/a	n/a	n/a	n/a	n/a
1097978	PROB	n/a	LTP267	ltpFR	14	n/a	n/a	n/a	n/a	n/a	n/a	13	4	2	7	n/a	n/a	n/a	n/a	n/a
1100169	PROB	n/a	LTP267	ltpFR	14	n/a	n/a	n/a	n/a	n/a	n/a	11	1	8	2	n/a	n/a	n/a	n/a	n/a
1102542	PROB	n/a	LTP267	ltpFR	14	n/a	n/a	n/a	n/a	n/a	n/a	11	3	7	1	n/a	n/a	n/a	n/a	n/a
1104266	PROB	n/a	LTP267	ltpFR	14	n/a	n/a	n/a	n/a	n/a	n/a	13	7	3	3	n/a	n/a	n/a	n/a	n/a
1107550	STOP	n/a	LTP267	ltpFR	14	n/a	n/a	n/a	n/a	n/a	n/a	n/a	n/a	n/a	n/a	n/a	n/a	n/a	n/a	n/a
1108550	WORD	wordpools/wasnorm_wordpool_less_exclusions.txt	LTP267	ltpFR	14	4	0	VEGETABLE	1552	n/a	0	n/a	0	0	0	1	0.412841796875	0.57763671875	lower	../fonts/zerothre.ttf
1111561	START	n/a	LTP267	ltpFR	14	n/a	n/a	n/a	n/a	n/a	n/a	n/a	n/a	n/a	n/a	n/a	n/a	n/a	n/a	n/a
1112582	PROB	n/a	LTP267	ltpFR	14	n/a	n/a	n/a	n/a	n/a	n/a	12	2	9	1	n/a	n/a	n/a	n/a	n/a
1114155	PROB	n/a	LTP267	ltpFR	14	n/a	n/a	n/a	n/a	n/a	n/a	18	6	7	5	n/a	n/a	n/a	n/a	n/a
1118154	PROB	n/a	LTP267	ltpFR	14	n/a	n/a	n/a	n/a	n/a	n/a	16	3	4	9	n/a	n/a	n/a	n/a	n/a
1120262	PROB	n/a	LTP267	ltpFR	14	n/a	n/a	n/a	n/a	n/a	n/a	10	3	2	5	n/a	n/a	n/a	n/a	n/a
1123106	PROB	n/a	LTP267	ltpFR	14	n/a	n/a	n/a	n/a	n/a	n/a	15	7	7	1	n/a	n/a	n/a	n/a	n/a
1124242	PROB	n/a	LTP267	ltpFR	14	n/a	n/a	n/a	n/a	n/a	n/a	14	8	5	1	n/a	n/a	n/a	n/a	n/a
1127561	STOP	n/a	LTP267	ltpFR	14	n/a	n/a	n/a	n/a	n/a	n/a	n/a	n/a	n/a	n/a	n/a	n/a	n/a	n/a	n/a
1129363	REC_START	n/a	LTP267	ltpFR	14	4	n/a	n/a	n/a	n/a	n/a	n/a	0	0	0	n/a	n/a	n/a	n/a	n/a
1146157	REC_WORD_VV	wordpools/wasnorm_wordpool_less_exclusions.txt	LTP267	ltpFR	14	4	n/a	<>	-1	n/a	n/a	n/a	0	0	0	n/a	n/a	n/a	n/a	n/a
1148555	REC_WORD	wordpools/wasnorm_wordpool_less_exclusions.txt	LTP267	ltpFR	14	4	n/a	LIMOUSINE	824	n/a	n/a	n/a	0	0	0	n/a	n/a	n/a	n/a	n/a
1149682	REC_WORD	wordpools/wasnorm_wordpool_less_exclusions.txt	LTP267	ltpFR	14	4	n/a	TEACHER	1440	n/a	n/a	n/a	0	0	0	n/a	n/a	n/a	n/a	n/a
1226345	WORD	wordpools/wasnorm_wordpool_less_exclusions.txt	LTP267	ltpFR	14	5	0	SHIRT	1287	n/a	0	n/a	0	0	0	1	0.412841796875	0.57763671875	lower	../fonts/zerothre.ttf
1230442	WORD	wordpools/wasnorm_wordpool_less_exclusions.txt	LTP267	ltpFR	14	5	0	OCEAN	970	n/a	0	n/a	0	0	0	1	0.412841796875	0.57763671875	lower	../fonts/zerothre.ttf
1234575	WORD	wordpools/wasnorm_wordpool_less_exclusions.txt	LTP267	ltpFR	14	5	0	ENGINE	535	n/a	0	n/a	0	0	0	1	0.412841796875	0.57763671875	lower	../fonts/zerothre.ttf
1238623	WORD	wordpools/wasnorm_wordpool_less_exclusions.txt	LTP267	ltpFR	14	5	0	MOTOR	922	n/a	0	n/a	0	0	0	1	0.412841796875	0.57763671875	lower	../fonts/zerothre.ttf
1242655	WORD	wordpools/wasnorm_wordpool_less_exclusions.txt	LTP267	ltpFR	14	5	0	BAY	102	n/a	1	n/a	0	0	0	1	0.412841796875	0.57763671875	lower	../fonts/zerothre.ttf
1246786	WORD	wordpools/wasnorm_wordpool_less_exclusions.txt	LTP267	ltpFR	14	5	0	SCRIBBLE	1256	n/a	0	n/a	0	0	0	1	0.412841796875	0.57763671875	lower	../fonts/zerothre.ttf
1250903	WORD	wordpools/wasnorm_wordpool_less_exclusions.txt	LTP267	ltpFR	14	5	1	SIGN	1305	n/a	1	n/a	0	0	0	0	0.5869140625	0.422607421875	upper	../fonts/amplitud.ttf
1255103	WORD	wordpools/wasnorm_wordpool_less_exclusions.txt	LTP267	ltpFR	14	5	1	GOLD	647	n/a	0	n/a	0	0	0	0	0.5869140625	0.422607421875	upper	../fonts/amplitud.ttf
1259068	WORD	wordpools/wasnorm_wordpool_less_exclusions.txt	LTP267	ltpFR	14	5	0	WITCH	1617	n/a	1	n/a	0	0	0	1	0.412841796875	0.57763671875	lower	../fonts/zerothre.ttf
1263016	WORD	wordpools/wasnorm_wordpool_less_exclusions.txt	LTP267	ltpFR	14	5	0	ARCHITECT	36	n/a	1	n/a	0	0	0	1	0.412841796875	0.57763671875	lower	../fonts/zerothre.ttf
1267165	WORD	wordpools/wasnorm_wordpool_less_exclusions.txt	LTP267	ltpFR	14	5	1	IRON	744	n/a	1	n/a	0	0	0	0	0.5869140625	0.422607421875	upper	../fonts/amplitud.ttf
1271314	WORD	wordpools/wasnorm_wordpool_less_exclusions.txt	LTP267	ltpFR	14	5	1	BAIT	70	n/a	0	n/a	0	0	0	0	0.5869140625	0.422607421875	upper	../fonts/amplitud.ttf
1275296	WORD	wordpools/wasnorm_wordpool_less_exclusions.txt	LTP267	ltpFR	14	5	1	DIRT	472	n/a	0	n/a	0	0	0	0	0.5869140625	0.422607421875	upper	../fonts/amplitud.ttf
1279511	WORD	wordpools/wasnorm_wordpool_less_exclusions.txt	LTP267	ltpFR	14	5	1	SWAMP	1416	n/a	0	n/a	0	0	0	0	0.5869140625	0.422607421875	upper	../fonts/amplitud.ttf
1283593	WORD	wordpools/wasnorm_wordpool_less_exclusions.txt	LTP267	ltpFR	14	5	1	SHRIMP	1297	n/a	1	n/a	0	0	0	0	0.5869140625	0.422607421875	upper	../fonts/amplitud.ttf
1287641	WORD	wordpools/wasnorm_wordpool_less_exclusions.txt	LTP267	ltpFR	14	5	1	MAID	856	n/a	0	n/a	0	0	0	0	0.5869140625	0.422607421875	upper	../fonts/amplitud.ttf
1290653	START	n/a	LTP267	ltpFR	14	n/a	n/a	n/a	n/a	n/a	n/a	n/a	n/a	n/a	n/a	n/a	n/a	n/a	n/a	n/a
1291523	PROB	n/a	LTP267	ltpFR	14	n/a	n/a	n/a	n/a	n/a	n/a	26	9	8	9	n/a	n/a	n/a	n/a	n/a
1294132	PROB	n/a	LTP267	ltpFR	14	n/a	n/a	n/a	n/a	n/a	n/a	24	8	4	8	n/a	n/a	n/a	n/a	n/a
1296342	PROB	n/a	LTP267	ltpFR	14	n/a	n/a	n/a	n/a	n/a	n/a	21	6	7	6	n/a	n/a	n/a	n/a	n/a
1301309	PROB	n/a	LTP267	ltpFR	14	n/a	n/a	n/a	n/a	n/a	n/a	24	8	8	6	n/a	n/a	n/a	n/a	n/a
1303235	PROB	n/a	LTP267	ltpFR	14	n/a	n/a	n/a	n/a	n/a	n/a	13	3	7	3	n/a	n/a	n/a	n/a	n/a
1306446	STOP	n/a	LTP267	ltpFR	14	n/a	n/a	n/a	n/a	n/a	n/a	n/a	n/a	n/a	n/a	n/a	n/a	n/a	n/a	n/a
1308604	REC_START	n/a	LTP267	ltpFR	14	5	n/a	n/a	n/a	n/a	n/a	n/a	0	0	0	n/a	n/a	n/a	n/a	n/a
1309806	REC_WORD	wordpools/wasnorm_wordpool_less_exclusions.txt	LTP267	ltpFR	14	5	0	SHIRT	1287	n/a	0	n/a	0	0	0	n/a	n/a	n/a	n/a	n/a
1311458	REC_WORD	wordpools/wasnorm_wordpool_less_exclusions.txt	LTP267	ltpFR	14	5	0	OCEAN	970	n/a	0	n/a	0	0	0	n/a	n/a	n/a	n/a	n/a
1312787	REC_WORD	wordpools/wasnorm_wordpool_less_exclusions.txt	LTP267	ltpFR	14	5	0	BAY	102	n/a	1	n/a	0	0	0	n/a	n/a	n/a	n/a	n/a
1313892	REC_WORD	wordpools/wasnorm_wordpool_less_exclusions.txt	LTP267	ltpFR	14	5	0	MOTOR	922	n/a	0	n/a	0	0	0	n/a	n/a	n/a	n/a	n/a
1315144	REC_WORD	wordpools/wasnorm_wordpool_less_exclusions.txt	LTP267	ltpFR	14	5	n/a	BOAT	144	n/a	n/a	n/a	0	0	0	n/a	n/a	n/a	n/a	n/a
1316599	REC_WORD	wordpools/wasnorm_wordpool_less_exclusions.txt	LTP267	ltpFR	14	5	1	SHRIMP	1297	n/a	1	n/a	0	0	0	n/a	n/a	n/a	n/a	n/a
1398610	WORD	wordpools/wasnorm_wordpool_less_exclusions.txt	LTP267	ltpFR	14	6	1	RAFT	1159	n/a	0	n/a	0	0	0	0	0.5869140625	0.422607421875	upper	../fonts/amplitud.ttf
1402625	WORD	wordpools/wasnorm_wordpool_less_exclusions.txt	LTP267	ltpFR	14	6	1	LAKE	796	n/a	0	n/a	0	0	0	0	0.5869140625	0.422607421875	upper	../fonts/amplitud.ttf
1406790	WORD	wordpools/wasnorm_wordpool_less_exclusions.txt	LTP267	ltpFR	14	6	0	BUTTERFLY	206	n/a	0	n/a	0	0	0	1	0.412841796875	0.57763671875	lower	../fonts/zerothre.ttf
1411007	WORD	wordpools/wasnorm_wordpool_less_exclusions.txt	LTP267	ltpFR	14	6	0	CLAMP	316	n/a	0	n/a	0	0	0	1	0.412841796875	0.57763671875	lower	../fonts/zerothre.ttf
1414903	WORD	wordpools/wasnorm_wordpool_less_exclusions.txt	LTP267	ltpFR	14	6	0	ANCHOR	21	n/a	1	n/a	0	0	0	1	0.412841796875	0.57763671875	lower	../fonts/zerothre.ttf
1419038	WORD	wordpools/wasnorm_wordpool_less_exclusions.txt	LTP267	ltpFR	14	6	0	STOOL	1386	n/a	0	n/a	0	0	0	1	0.412841796875	0.57763671875	lower	../fonts/zerothre.ttf
1423120	WORD	wordpools/wasnorm_wordpool_less_exclusions.txt	LTP267	ltpFR	14	6	0	DOLLAR	482	n/a	0	n/a	0	0	0	1	0.412841796875	0.57763671875	lower	../fonts/zerothre.ttf
1427168	WORD	wordpools/wasnorm_wordpool_less_exclusions.txt	LTP267	ltpFR	14	6	0	BASEBALL	93	n/a	0	n/a	0	0	0	1	0.412841796875	0.57763671875	lower	../fonts/zerothre.ttf
1431066	WORD	wordpools/wasnorm_wordpool_less_exclusions.txt	LTP267	ltpFR	14	6	1	FIELD	562	n/a	0	n/a	0	0	0	0	0.5869140625	0.422607421875	upper	../fonts/amplitud.ttf
1434913	WORD	wordpools/wasnorm_wordpool_less_exclusions.txt	LTP267	ltpFR	14	6	1	SOFA	1342	n/a	0	n/a	0	0	0	0	0.5869140625	0.422607421875	upper	../fonts/amplitud.ttf
1438979	WORD	wordpools/wasnorm_wordpool_less_exclusions.txt	LTP267	ltpFR	14	6	0	SCOUT	1252	n/a	0	n/a	0	0	0	1	0.412841796875	0.57763671875	lower	../fonts/zerothre.ttf
1443162	WORD	wordpools/wasnorm_wordpool_less_exclusions.txt	LTP267	ltpFR	14	6	0	SAW	1239	n/a	0	n/a	0	0	0	1	0.412841796875	0.57763671875	lower	../fonts/zerothre.ttf
1447344	WORD	wordpools/wasnorm_wordpool_less_exclusions.txt	LTP267	ltpFR	14	6	1	CARPENTER	246	n/a	1	n/a	0	0	0	0	0.5869140625	0.422607421875	upper	../fonts/amplitud.ttf
1451326	WORD	wordpools/wasnorm_wordpool_less_exclusions.txt	LTP267	ltpFR	14	6	1	FATHER	554	n/a	3	n/a	0	0	0	0	0.5869140625	0.422607421875	upper	../fonts/amplitud.ttf
1452380	KEY_MSG	n/a	LTP267	ltpFR	14	6	n/a	n/a	n/a	n/a	n/a	n/a	0	0	0	n/a	n/a	n/a	n/a	n/a
1455239	WORD	wordpools/wasnorm_wordpool_less_exclusions.txt	LTP267	ltpFR	14	6	1	APPLICATION	34	n/a	0	n/a	0	0	0	0	0.5869140625	0.422607421875	upper	../fonts/amplitud.ttf
1459306	WORD	wordpools/wasnorm_wordpool_less_exclusions.txt	LTP267	ltpFR	14	6	1	EMPLOYER	532	n/a	1	n/a	0	0	0	0	0.5869140625	0.422607421875	upper	../fonts/amplitud.ttf
1465212	REC_START	n/a	LTP267	ltpFR	14	6	n/a	n/a	n/a	n/a	n/a	n/a	0	0	0	n/a	n/a	n/a	n/a	n/a
1466701	REC_WORD	wordpools/wasnorm_wordpool_less_exclusions.txt	LTP267	ltpFR	14	6	1	EMPLOYER	532	n/a	1	n/a	0	0	0	n/a	n/a	n/a	n/a	n/a
1468062	REC_WORD	wordpools/wasnorm_wordpool_less_exclusions.txt	LTP267	ltpFR	14	6	1	LAKE	796	n/a	0	n/a	0	0	0	n/a	n/a	n/a	n/a	n/a
1469613	REC_WORD	wordpools/wasnorm_wordpool_less_exclusions.txt	LTP267	ltpFR	14	6	n/a	BOAT	144	n/a	n/a	n/a	0	0	0	n/a	n/a	n/a	n/a	n/a
1470398	REC_WORD	wordpools/wasnorm_wordpool_less_exclusions.txt	LTP267	ltpFR	14	6	1	FATHER	554	n/a	3	n/a	0	0	0	n/a	n/a	n/a	n/a	n/a
1471388	REC_WORD	wordpools/wasnorm_wordpool_less_exclusions.txt	LTP267	ltpFR	14	6	0	DOLLAR	482	n/a	0	n/a	0	0	0	n/a	n/a	n/a	n/a	n/a
1473926	REC_WORD_VV	wordpools/wasnorm_wordpool_less_exclusions.txt	LTP267	ltpFR	14	6	n/a	<>	-1	n/a	n/a	n/a	0	0	0	n/a	n/a	n/a	n/a	n/a
1475840	REC_WORD	wordpools/wasnorm_wordpool_less_exclusions.txt	LTP267	ltpFR	14	6	0	BASEBALL	93	n/a	0	n/a	0	0	0	n/a	n/a	n/a	n/a	n/a
1479138	REC_WORD	wordpools/wasnorm_wordpool_less_exclusions.txt	LTP267	ltpFR	14	6	n/a	FISHERMEN	-1	n/a	n/a	n/a	0	0	0	n/a	n/a	n/a	n/a	n/a
1480901	REC_WORD	wordpools/wasnorm_wordpool_less_exclusions.txt	LTP267	ltpFR	14	6	n/a	FISH	571	n/a	n/a	n/a	0	0	0	n/a	n/a	n/a	n/a	n/a
1540896	REST_REWET	n/a	LTP267	ltpFR	14	6	n/a	n/a	n/a	n/a	n/a	n/a	0	0	0	n/a	n/a	n/a	n/a	n/a
2190594	WORD	wordpools/wasnorm_wordpool_less_exclusions.txt	LTP267	ltpFR	14	7	0	PANTHER	1009	n/a	1	n/a	0	0	0	1	0.412841796875	0.57763671875	lower	../fonts/zerothre.ttf
2194626	WORD	wordpools/wasnorm_wordpool_less_exclusions.txt	LTP267	ltpFR	14	7	0	CAT	257	n/a	1	n/a	0	0	0	1	0.412841796875	0.57763671875	lower	../fonts/zerothre.ttf
2198775	WORD	wordpools/wasnorm_wordpool_less_exclusions.txt	LTP267	ltpFR	14	7	0	SUPERMARKET	1409	n/a	1	n/a	0	0	0	1	0.412841796875	0.57763671875	lower	../fonts/zerothre.ttf
2202891	WORD	wordpools/wasnorm_wordpool_less_exclusions.txt	LTP267	ltpFR	14	7	0	PITCHFORK	1078	n/a	0	n/a	0	0	0	1	0.412841796875	0.57763671875	lower	../fonts/zerothre.ttf
2206755	WORD	wordpools/wasnorm_wordpool_less_exclusions.txt	LTP267	ltpFR	14	7	1	CARROT	249	n/a	0	n/a	0	0	0	0	0.5869140625	0.422607421875	upper	../fonts/amplitud.ttf
2210603	WORD	wordpools/wasnorm_wordpool_less_exclusions.txt	LTP267	ltpFR	14	7	1	LIZARD	834	n/a	1	n/a	0	0	0	0	0.5869140625	0.422607421875	upper	../fonts/amplitud.ttf
2214769	WORD	wordpools/wasnorm_wordpool_less_exclusions.txt	LTP267	ltpFR	14	7	1	RACCOON	1153	n/a	1	n/a	0	0	0	0	0.5869140625	0.422607421875	upper	../fonts/amplitud.ttf
2218969	WORD	wordpools/wasnorm_wordpool_less_exclusions.txt	LTP267	ltpFR	14	7	1	ORANGE	980	n/a	1	n/a	0	0	0	0	0.5869140625	0.422607421875	upper	../fonts/amplitud.ttf
2222883	WORD	wordpools/wasnorm_wordpool_less_exclusions.txt	LTP267	ltpFR	14	7	1	BISON	131	n/a	1	n/a	0	0	0	0	0.5869140625	0.422607421875	upper	../fonts/amplitud.ttf
2227033	WORD	wordpools/wasnorm_wordpool_less_exclusions.txt	LTP267	ltpFR	14	7	0	SEAL	1262	n/a	1	n/a	0	0	0	1	0.412841796875	0.57763671875	lower	../fonts/zerothre.ttf
2231048	WORD	wordpools/wasnorm_wordpool_less_exclusions.txt	LTP267	ltpFR	14	7	0	TAPE	1433	n/a	0	n/a	0	0	0	1	0.412841796875	0.57763671875	lower	../fonts/zerothre.ttf
2235096	WORD	wordpools/wasnorm_wordpool_less_exclusions.txt	LTP267	ltpFR	14	7	1	SALT	1229	n/a	0	n/a	0	0	0	0	0.5869140625	0.422607421875	upper	../fonts/amplitud.ttf
2239178	WORD	wordpools/wasnorm_wordpool_less_exclusions.txt	LTP267	ltpFR	14	7	1	VIOLIN	1571	n/a	0	n/a	0	0	0	0	0.5869140625	0.422607421875	upper	../fonts/amplitud.ttf
2243060	WORD	wordpools/wasnorm_wordpool_less_exclusions.txt	LTP267	ltpFR	14	7	1	SILVERWARE	1308	n/a	0	n/a	0	0	0	0	0.5869140625	0.422607421875	upper	../fonts/amplitud.ttf
2247142	WORD	wordpools/wasnorm_wordpool_less_exclusions.txt	LTP267	ltpFR	14	7	0	WEB	1598	n/a	1	n/a	0	0	0	1	0.412841796875	0.57763671875	lower	../fonts/zerothre.ttf
2251190	WORD	wordpools/wasnorm_wordpool_less_exclusions.txt	LTP267	ltpFR	14	7	0	FLUTE	585	n/a	0	n/a	0	0	0	1	0.412841796875	0.57763671875	lower	../fonts/zerothre.ttf
2254202	START	n/a	LTP267	ltpFR	14	n/a	n/a	n/a	n/a	n/a	n/a	n/a	n/a	n/a	n/a	n/a	n/a	n/a	n/a	n/a
2255088	PROB	n/a	LTP267	ltpFR	14	n/a	n/a	n/a	n/a	n/a	n/a	18	5	8	5	n/a	n/a	n/a	n/a	n/a
2256593	PROB	n/a	LTP267	ltpFR	14	n/a	n/a	n/a	n/a	n/a	n/a	20	9	3	8	n/a	n/a	n/a	n/a	n/a
2258267	PROB	n/a	LTP267	ltpFR	14	n/a	n/a	n/a	n/a	n/a	n/a	15	2	5	8	n/a	n/a	n/a	n/a	n/a
2262202	STOP	n/a	LTP267	ltpFR	14	n/a	n/a	n/a	n/a	n/a	n/a	n/a	n/a	n/a	n/a	n/a	n/a	n/a	n/a	n/a
2264006	REC_START	n/a	LTP267	ltpFR	14	7	n/a	n/a	n/a	n/a	n/a	n/a	0	0	0	n/a	n/a	n/a	n/a	n/a
2264462	REC_WORD	wordpools/wasnorm_wordpool_less_exclusions.txt	LTP267	ltpFR	14	7	0	SEAL	1262	n/a	1	n/a	0	0	0	n/a	n/a	n/a	n/a	n/a
2265564	REC_WORD	wordpools/wasnorm_wordpool_less_exclusions.txt	LTP267	ltpFR	14	7	1	SALT	1229	n/a	0	n/a	0	0	0	n/a	n/a	n/a	n/a	n/a
2266743	REC_WORD	wordpools/wasnorm_wordpool_less_exclusions.txt	LTP267	ltpFR	14	7	1	VIOLIN	1571	n/a	0	n/a	0	0	0	n/a	n/a	n/a	n/a	n/a
2267879	REC_WORD	wordpools/wasnorm_wordpool_less_exclusions.txt	LTP267	ltpFR	14	7	0	TAPE	1433	n/a	0	n/a	0	0	0	n/a	n/a	n/a	n/a	n/a
2270479	REC_WORD	wordpools/wasnorm_wordpool_less_exclusions.txt	LTP267	ltpFR	14	7	1	BISON	131	n/a	1	n/a	0	0	0	n/a	n/a	n/a	n/a	n/a
2272028	REC_WORD	wordpools/wasnorm_wordpool_less_exclusions.txt	LTP267	ltpFR	14	7	1	CARROT	249	n/a	0	n/a	0	0	0	n/a	n/a	n/a	n/a	n/a
2273430	REC_WORD	wordpools/wasnorm_wordpool_less_exclusions.txt	LTP267	ltpFR	14	7	1	RACCOON	1153	n/a	1	n/a	0	0	0	n/a	n/a	n/a	n/a	n/a
2274809	REC_WORD	wordpools/wasnorm_wordpool_less_exclusions.txt	LTP267	ltpFR	14	7	1	OTTER	986	n/a	1	n/a	0	0	0	n/a	n/a	n/a	n/a	n/a
2275952	REC_WORD	wordpools/wasnorm_wordpool_less_exclusions.txt	LTP267	ltpFR	14	7	0	PANTHER	1009	n/a	1	n/a	0	0	0	n/a	n/a	n/a	n/a	n/a
2276912	REC_WORD	wordpools/wasnorm_wordpool_less_exclusions.txt	LTP267	ltpFR	14	7	0	CAT	257	n/a	1	n/a	0	0	0	n/a	n/a	n/a	n/a	n/a
2277957	REC_WORD	wordpools/wasnorm_wordpool_less_exclusions.txt	LTP267	ltpFR	14	7	0	SUPERMARKET	1409	n/a	1	n/a	0	0	0	n/a	n/a	n/a	n/a	n/a
2370072	WORD	wordpools/wasnorm_wordpool_less_exclusions.txt	LTP267	ltpFR	14	8	0	BEVERAGE	123	n/a	0	n/a	0	0	0	1	0.412841796875	0.57763671875	lower	../fonts/zerothre.ttf
2374137	WORD	wordpools/wasnorm_wordpool_less_exclusions.txt	LTP267	ltpFR	14	8	0	TREASURE	1500	n/a	0	n/a	0	0	0	1	0.412841796875	0.57763671875	lower	../fonts/zerothre.ttf
2378186	WORD	wordpools/wasnorm_wordpool_less_exclusions.txt	LTP267	ltpFR	14	8	0	BLACKBERRY	132	n/a	0	n/a	0	0	0	1	0.412841796875	0.57763671875	lower	../fonts/zerothre.ttf
2382151	WORD	wordpools/wasnorm_wordpool_less_exclusions.txt	LTP267	ltpFR	14	8	0	CAFE	216	n/a	1	n/a	0	0	0	1	0.412841796875	0.57763671875	lower	../fonts/zerothre.ttf
2385982	WORD	wordpools/wasnorm_wordpool_less_exclusions.txt	LTP267	ltpFR	14	8	0	SOFTBALL	1343	n/a	0	n/a	0	0	0	1	0.412841796875	0.57763671875	lower	../fonts/zerothre.ttf
2390198	WORD	wordpools/wasnorm_wordpool_less_exclusions.txt	LTP267	ltpFR	14	8	0	CHOCOLATE	306	n/a	0	n/a	0	0	0	1	0.412841796875	0.57763671875	lower	../fonts/zerothre.ttf
2394179	WORD	wordpools/wasnorm_wordpool_less_exclusions.txt	LTP267	ltpFR	14	8	0	CHIP	303	n/a	0	n/a	0	0	0	1	0.412841796875	0.57763671875	lower	../fonts/zerothre.ttf
2398228	WORD	wordpools/wasnorm_wordpool_less_exclusions.txt	LTP267	ltpFR	14	8	0	COMPASS	358	n/a	0	n/a	0	0	0	1	0.412841796875	0.57763671875	lower	../fonts/zerothre.ttf
2402377	WORD	wordpools/wasnorm_wordpool_less_exclusions.txt	LTP267	ltpFR	14	8	0	TRIGGER	1507	n/a	0	n/a	0	0	0	1	0.412841796875	0.57763671875	lower	../fonts/zerothre.ttf
2406225	WORD	wordpools/wasnorm_wordpool_less_exclusions.txt	LTP267	ltpFR	14	8	0	COACH	331	n/a	0	n/a	0	0	0	1	0.412841796875	0.57763671875	lower	../fonts/zerothre.ttf
2410290	WORD	wordpools/wasnorm_wordpool_less_exclusions.txt	LTP267	ltpFR	14	8	0	CASTLE	256	n/a	1	n/a	0	0	0	1	0.412841796875	0.57763671875	lower	../fonts/zerothre.ttf
2414421	WORD	wordpools/wasnorm_wordpool_less_exclusions.txt	LTP267	ltpFR	14	8	0	HOME	712	n/a	1	n/a	0	0	0	1	0.412841796875	0.57763671875	lower	../fonts/zerothre.ttf
2418287	WORD	wordpools/wasnorm_wordpool_less_exclusions.txt	LTP267	ltpFR	14	8	0	GLOBE	641	n/a	1	n/a	0	0	0	1	0.412841796875	0.57763671875	lower	../fonts/zerothre.ttf
2422135	WORD	wordpools/wasnorm_wordpool_less_exclusions.txt	LTP267	ltpFR	14	8	0	WORLD	1622	n/a	1	n/a	0	0	0	1	0.412841796875	0.57763671875	lower	../fonts/zerothre.ttf
2426300	WORD	wordpools/wasnorm_wordpool_less_exclusions.txt	LTP267	ltpFR	14	8	0	APE	31	n/a	1	n/a	0	0	0	1	0.412841796875	0.57763671875	lower	../fonts/zerothre.ttf
2430316	WORD	wordpools/wasnorm_wordpool_less_exclusions.txt	LTP267	ltpFR	14	8	0	TANGERINE	1431	n/a	0	n/a	0	0	0	1	0.412841796875	0.57763671875	lower	../fonts/zerothre.ttf
2435954	REC_START	n/a	LTP267	ltpFR	14	8	n/a	n/a	n/a	n/a	n/a	n/a	0	0	0	n/a	n/a	n/a	n/a	n/a
2436525	REC_WORD	wordpools/wasnorm_wordpool_less_exclusions.txt	LTP267	ltpFR	14	8	0	APE	31	n/a	1	n/a	0	0	0	n/a	n/a	n/a	n/a	n/a
2437001	REC_WORD	wordpools/wasnorm_wordpool_less_exclusions.txt	LTP267	ltpFR	14	8	0	TANGERINE	1431	n/a	0	n/a	0	0	0	n/a	n/a	n/a	n/a	n/a
2438110	REC_WORD	wordpools/wasnorm_wordpool_less_exclusions.txt	LTP267	ltpFR	14	8	0	BEVERAGE	123	n/a	0	n/a	0	0	0	n/a	n/a	n/a	n/a	n/a
2438911	REC_WORD	wordpools/wasnorm_wordpool_less_exclusions.txt	LTP267	ltpFR	14	8	0	TREASURE	1500	n/a	0	n/a	0	0	0	n/a	n/a	n/a	n/a	n/a
2440784	REC_WORD	wordpools/wasnorm_wordpool_less_exclusions.txt	LTP267	ltpFR	14	8	0	GLOBE	641	n/a	1	n/a	0	0	0	n/a	n/a	n/a	n/a	n/a
2441249	REC_WORD	wordpools/wasnorm_wordpool_less_exclusions.txt	LTP267	ltpFR	14	8	0	WORLD	1622	n/a	1	n/a	0	0	0	n/a	n/a	n/a	n/a	n/a
2442344	REC_WORD	wordpools/wasnorm_wordpool_less_exclusions.txt	LTP267	ltpFR	14	8	0	CHOCOLATE	306	n/a	0	n/a	0	0	0	n/a	n/a	n/a	n/a	n/a
2443115	REC_WORD	wordpools/wasnorm_wordpool_less_exclusions.txt	LTP267	ltpFR	14	8	0	CHIP	303	n/a	0	n/a	0	0	0	n/a	n/a	n/a	n/a	n/a
2443771	REC_WORD	wordpools/wasnorm_wordpool_less_exclusions.txt	LTP267	ltpFR	14	8	0	COMPASS	358	n/a	0	n/a	0	0	0	n/a	n/a	n/a	n/a	n/a
2445390	REC_WORD	wordpools/wasnorm_wordpool_less_exclusions.txt	LTP267	ltpFR	14	8	0	COACH	331	n/a	0	n/a	0	0	0	n/a	n/a	n/a	n/a	n/a
2515068	WORD	wordpools/wasnorm_wordpool_less_exclusions.txt	LTP267	ltpFR	14	9	1	LAMP	798	n/a	0	n/a	0	0	0	0	0.5869140625	0.422607421875	upper	../fonts/amplitud.ttf
2518983	WORD	wordpools/wasnorm_wordpool_less_exclusions.txt	LTP267	ltpFR	14	9	1	HORIZON	717	n/a	1	n/a	0	0	0	0	0.5869140625	0.422607421875	upper	../fonts/amplitud.ttf
2522812	WORD	wordpools/wasnorm_wordpool_less_exclusions.txt	LTP267	ltpFR	14	9	1	BATTERY	101	n/a	0	n/a	0	0	0	0	0.5869140625	0.422607421875	upper	../fonts/amplitud.ttf
2526895	WORD	wordpools/wasnorm_wordpool_less_exclusions.txt	LTP267	ltpFR	14	9	1	BUTLER	204	n/a	1	n/a	0	0	0	0	0.5869140625	0.422607421875	upper	../fonts/amplitud.ttf
2530760	WORD	wordpools/wasnorm_wordpool_less_exclusions.txt	LTP267	ltpFR	14	9	1	GENERAL	630	n/a	1	n/a	0	0	0	0	0.5869140625	0.422607421875	upper	../fonts/amplitud.ttf
2534943	WORD	wordpools/wasnorm_wordpool_less_exclusions.txt	LTP267	ltpFR	14	9	1	COMMANDER	354	n/a	1	n/a	0	0	0	0	0.5869140625	0.422607421875	upper	../fonts/amplitud.ttf
2539142	WORD	wordpools/wasnorm_wordpool_less_exclusions.txt	LTP267	ltpFR	14	9	1	NOTE	958	n/a	0	n/a	0	0	0	0	0.5869140625	0.422607421875	upper	../fonts/amplitud.ttf
2543124	WORD	wordpools/wasnorm_wordpool_less_exclusions.txt	LTP267	ltpFR	14	9	1	BINDER	127	n/a	0	n/a	0	0	0	0	0.5869140625	0.422607421875	upper	../fonts/amplitud.ttf
2547005	WORD	wordpools/wasnorm_wordpool_less_exclusions.txt	LTP267	ltpFR	14	9	1	SUNRISE	1407	n/a	0	n/a	0	0	0	0	0.5869140625	0.422607421875	upper	../fonts/amplitud.ttf
2550970	WORD	wordpools/wasnorm_wordpool_less_exclusions.txt	LTP267	ltpFR	14	9	1	TYPEWRITER	1531	n/a	0	n/a	0	0	0	0	0.5869140625	0.422607421875	upper	../fonts/amplitud.ttf
2554817	WORD	wordpools/wasnorm_wordpool_less_exclusions.txt	LTP267	ltpFR	14	9	1	RIBBON	1189	n/a	0	n/a	0	0	0	0	0.5869140625	0.422607421875	upper	../fonts/amplitud.ttf
2558899	WORD	wordpools/wasnorm_wordpool_less_exclusions.txt	LTP267	ltpFR	14	9	1	ROBIN	1199	n/a	1	n/a	0	0	0	0	0.5869140625	0.422607421875	upper	../fonts/amplitud.ttf
2563066	WORD	wordpools/wasnorm_wordpool_less_exclusions.txt	LTP267	ltpFR	14	9	1	CLERK	321	n/a	1	n/a	0	0	0	0	0.5869140625	0.422607421875	upper	../fonts/amplitud.ttf
2566896	WORD	wordpools/wasnorm_wordpool_less_exclusions.txt	LTP267	ltpFR	14	9	1	STUMP	1396	n/a	0	n/a	0	0	0	0	0.5869140625	0.422607421875	upper	../fonts/amplitud.ttf
2571063	WORD	wordpools/wasnorm_wordpool_less_exclusions.txt	LTP267	ltpFR	14	9	1	BUSH	202	n/a	0	n/a	0	0	0	0	0.5869140625	0.422607421875	upper	../fonts/amplitud.ttf
2575043	WORD	wordpools/wasnorm_wordpool_less_exclusions.txt	LTP267	ltpFR	14	9	1	BRUSH	182	n/a	0	n/a	0	0	0	0	0.5869140625	0.422607421875	upper	../fonts/amplitud.ttf
2578056	START	n/a	LTP267	ltpFR	14	n/a	n/a	n/a	n/a	n/a	n/a	n/a	n/a	n/a	n/a	n/a	n/a	n/a	n/a	n/a
2579227	PROB	n/a	LTP267	ltpFR	14	n/a	n/a	n/a	n/a	n/a	n/a	18	4	5	9	n/a	n/a	n/a	n/a	n/a
2581084	PROB	n/a	LTP267	ltpFR	14	n/a	n/a	n/a	n/a	n/a	n/a	18	9	5	4	n/a	n/a	n/a	n/a	n/a
2584211	PROB	n/a	LTP267	ltpFR	14	n/a	n/a	n/a	n/a	n/a	n/a	12	4	4	4	n/a	n/a	n/a	n/a	n/a
2585750	PROB	n/a	LTP267	ltpFR	14	n/a	n/a	n/a	n/a	n/a	n/a	13	5	2	9	n/a	n/a	n/a	n/a	n/a
2587842	PROB	n/a	LTP267	ltpFR	14	n/a	n/a	n/a	n/a	n/a	n/a	11	5	2	4	n/a	n/a	n/a	n/a	n/a
2590068	PROB	n/a	LTP267	ltpFR	14	n/a	n/a	n/a	n/a	n/a	n/a	14	1	5	8	n/a	n/a	n/a	n/a	n/a
2594056	STOP	n/a	LTP267	ltpFR	14	n/a	n/a	n/a	n/a	n/a	n/a	n/a	n/a	n/a	n/a	n/a	n/a	n/a	n/a	n/a
2595940	REC_START	n/a	LTP267	ltpFR	14	9	n/a	n/a	n/a	n/a	n/a	n/a	0	0	0	n/a	n/a	n/a	n/a	n/a
2596540	REC_WORD	wordpools/wasnorm_wordpool_less_exclusions.txt	LTP267	ltpFR	14	9	1	STUMP	1396	n/a	0	n/a	0	0	0	n/a	n/a	n/a	n/a	n/a
2597556	REC_WORD	wordpools/wasnorm_wordpool_less_exclusions.txt	LTP267	ltpFR	14	9	1	BUSH	202	n/a	0	n/a	0	0	0	n/a	n/a	n/a	n/a	n/a
2598699	REC_WORD	wordpools/wasnorm_wordpool_less_exclusions.txt	LTP267	ltpFR	14	9	1	BRUSH	182	n/a	0	n/a	0	0	0	n/a	n/a	n/a	n/a	n/a
2600543	REC_WORD_VV	wordpools/wasnorm_wordpool_less_exclusions.txt	LTP267	ltpFR	14	9	n/a	<>	-1	n/a	n/a	n/a	0	0	0	n/a	n/a	n/a	n/a	n/a
2601525	REC_WORD	wordpools/wasnorm_wordpool_less_exclusions.txt	LTP267	ltpFR	14	9	1	BUTLER	204	n/a	1	n/a	0	0	0	n/a	n/a	n/a	n/a	n/a
2602367	REC_WORD	wordpools/wasnorm_wordpool_less_exclusions.txt	LTP267	ltpFR	14	9	1	GENERAL	630	n/a	1	n/a	0	0	0	n/a	n/a	n/a	n/a	n/a
2603205	REC_WORD	wordpools/wasnorm_wordpool_less_exclusions.txt	LTP267	ltpFR	14	9	1	NOTE	958	n/a	0	n/a	0	0	0	n/a	n/a	n/a	n/a	n/a
2606092	REC_WORD	wordpools/wasnorm_wordpool_less_exclusions.txt	LTP267	ltpFR	14	9	1	HORIZON	717	n/a	1	n/a	0	0	0	n/a	n/a	n/a	n/a	n/a
2608041	REC_WORD	wordpools/wasnorm_wordpool_less_exclusions.txt	LTP267	ltpFR	14	9	1	SUNRISE	1407	n/a	0	n/a	0	0	0	n/a	n/a	n/a	n/a	n/a
2609041	REC_WORD_VV	wordpools/wasnorm_wordpool_less_exclusions.txt	LTP267	ltpFR	14	9	n/a	<>	-1	n/a	n/a	n/a	0	0	0	n/a	n/a	n/a	n/a	n/a
2609401	REC_WORD	wordpools/wasnorm_wordpool_less_exclusions.txt	LTP267	ltpFR	14	9	1	LAMP	798	n/a	0	n/a	0	0	0	n/a	n/a	n/a	n/a	n/a
2610829	REC_WORD	wordpools/wasnorm_wordpool_less_exclusions.txt	LTP267	ltpFR	14	9	1	BATTERY	101	n/a	0	n/a	0	0	0	n/a	n/a	n/a	n/a	n/a
2615617	REC_WORD	wordpools/wasnorm_wordpool_less_exclusions.txt	LTP267	ltpFR	14	9	1	COMMANDER	354	n/a	1	n/a	0	0	0	n/a	n/a	n/a	n/a	n/a
2674285	WORD	wordpools/wasnorm_wordpool_less_exclusions.txt	LTP267	ltpFR	14	10	1	WRITER	1627	n/a	1	n/a	0	0	0	0	0.5869140625	0.422607421875	upper	../fonts/amplitud.ttf
2678483	WORD	wordpools/wasnorm_wordpool_less_exclusions.txt	LTP267	ltpFR	14	10	1	RECEIPT	1173	n/a	0	n/a	0	0	0	0	0.5869140625	0.422607421875	upper	../fonts/amplitud.ttf
2682332	WORD	wordpools/wasnorm_wordpool_less_exclusions.txt	LTP267	ltpFR	14	10	1	BELL	118	n/a	0	n/a	0	0	0	0	0.5869140625	0.422607421875	upper	../fonts/amplitud.ttf
2686163	WORD	wordpools/wasnorm_wordpool_less_exclusions.txt	LTP267	ltpFR	14	10	1	TORCH	1484	n/a	0	n/a	0	0	0	0	0.5869140625	0.422607421875	upper	../fonts/amplitud.ttf
2689994	WORD	wordpools/wasnorm_wordpool_less_exclusions.txt	LTP267	ltpFR	14	10	1	AUTHOR	61	n/a	1	n/a	0	0	0	0	0.5869140625	0.422607421875	upper	../fonts/amplitud.ttf
2694193	WORD	wordpools/wasnorm_wordpool_less_exclusions.txt	LTP267	ltpFR	14	10	1	ICEBERG	731	n/a	0	n/a	0	0	0	0	0.5869140625	0.422607421875	upper	../fonts/amplitud.ttf
2698275	WORD	wordpools/wasnorm_wordpool_less_exclusions.txt	LTP267	ltpFR	14	10	1	GIFT	635	n/a	0	n/a	0	0	0	0	0.5869140625	0.422607421875	upper	../fonts/amplitud.ttf
2702307	WORD	wordpools/wasnorm_wordpool_less_exclusions.txt	LTP267	ltpFR	14	10	1	SIREN	1310	n/a	0	n/a	0	0	0	0	0.5869140625	0.422607421875	upper	../fonts/amplitud.ttf
2706189	WORD	wordpools/wasnorm_wordpool_less_exclusions.txt	LTP267	ltpFR	14	10	1	SNOB	1335	n/a	1	n/a	0	0	0	0	0.5869140625	0.422607421875	upper	../fonts/amplitud.ttf
2710170	WORD	wordpools/wasnorm_wordpool_less_exclusions.txt	LTP267	ltpFR	14	10	1	JEWEL	757	n/a	0	n/a	0	0	0	0	0.5869140625	0.422607421875	upper	../fonts/amplitud.ttf
2714202	WORD	wordpools/wasnorm_wordpool_less_exclusions.txt	LTP267	ltpFR	14	10	1	CONE	363	n/a	0	n/a	0	0	0	0	0.5869140625	0.422607421875	upper	../fonts/amplitud.ttf
2718301	WORD	wordpools/wasnorm_wordpool_less_exclusions.txt	LTP267	ltpFR	14	10	1	IGLOO	734	n/a	0	n/a	0	0	0	0	0.5869140625	0.422607421875	upper	../fonts/amplitud.ttf
2722482	WORD	wordpools/wasnorm_wordpool_less_exclusions.txt	LTP267	ltpFR	14	10	1	LETTUCE	814	n/a	0	n/a	0	0	0	0	0.5869140625	0.422607421875	upper	../fonts/amplitud.ttf
2726314	WORD	wordpools/wasnorm_wordpool_less_exclusions.txt	LTP267	ltpFR	14	10	1	BEET	115	n/a	0	n/a	0	0	0	0	0.5869140625	0.422607421875	upper	../fonts/amplitud.ttf
2730311	WORD	wordpools/wasnorm_wordpool_less_exclusions.txt	LTP267	ltpFR	14	10	1	JUDGE	761	n/a	1	n/a	0	0	0	0	0.5869140625	0.422607421875	upper	../fonts/amplitud.ttf
2734261	WORD	wordpools/wasnorm_wordpool_less_exclusions.txt	LTP267	ltpFR	14	10	1	ATTORNEY	58	n/a	1	n/a	0	0	0	0	0.5869140625	0.422607421875	upper	../fonts/amplitud.ttf
2737273	START	n/a	LTP267	ltpFR	14	n/a	n/a	n/a	n/a	n/a	n/a	n/a	n/a	n/a	n/a	n/a	n/a	n/a	n/a	n/a
2738192	PROB	n/a	LTP267	ltpFR	14	n/a	n/a	n/a	n/a	n/a	n/a	14	9	2	3	n/a	n/a	n/a	n/a	n/a
2740432	PROB	n/a	LTP267	ltpFR	14	n/a	n/a	n/a	n/a	n/a	n/a	13	2	7	2	n/a	n/a	n/a	n/a	n/a
2741804	PROB	n/a	LTP267	ltpFR	14	n/a	n/a	n/a	n/a	n/a	n/a	12	1	8	3	n/a	n/a	n/a	n/a	n/a
2743562	PROB	n/a	LTP267	ltpFR	14	n/a	n/a	n/a	n/a	n/a	n/a	13	5	1	7	n/a	n/a	n/a	n/a	n/a
2745175	STOP	n/a	LTP267	ltpFR	14	n/a	n/a	n/a	n/a	n/a	n/a	n/a	n/a	n/a	n/a	n/a	n/a	n/a	n/a	n/a
2747160	REC_START	n/a	LTP267	ltpFR	14	10	n/a	n/a	n/a	n/a	n/a	n/a	0	0	0	n/a	n/a	n/a	n/a	n/a
2747579	REC_WORD	wordpools/wasnorm_wordpool_less_exclusions.txt	LTP267	ltpFR	14	10	1	CONE	363	n/a	0	n/a	0	0	0	n/a	n/a	n/a	n/a	n/a
2748460	REC_WORD	wordpools/wasnorm_wordpool_less_exclusions.txt	LTP267	ltpFR	14	10	1	IGLOO	734	n/a	0	n/a	0	0	0	n/a	n/a	n/a	n/a	n/a
2749271	REC_WORD	wordpools/wasnorm_wordpool_less_exclusions.txt	LTP267	ltpFR	14	10	1	LETTUCE	814	n/a	0	n/a	0	0	0	n/a	n/a	n/a	n/a	n/a
2750260	REC_WORD	wordpools/wasnorm_wordpool_less_exclusions.txt	LTP267	ltpFR	14	10	1	BEET	115	n/a	0	n/a	0	0	0	n/a	n/a	n/a	n/a	n/a
2751338	REC_WORD	wordpools/wasnorm_wordpool_less_exclusions.txt	LTP267	ltpFR	14	10	1	JUDGE	761	n/a	1	n/a	0	0	0	n/a	n/a	n/a	n/a	n/a
2752009	REC_WORD	wordpools/wasnorm_wordpool_less_exclusions.txt	LTP267	ltpFR	14	10	1	ATTORNEY	58	n/a	1	n/a	0	0	0	n/a	n/a	n/a	n/a	n/a
2753183	REC_WORD_VV	wordpools/wasnorm_wordpool_less_exclusions.txt	LTP267	ltpFR	14	10	n/a	<>	-1	n/a	n/a	n/a	0	0	0	n/a	n/a	n/a	n/a	n/a
2825171	START	n/a	LTP267	ltpFR	14	n/a	n/a	n/a	n/a	n/a	n/a	n/a	n/a	n/a	n/a	n/a	n/a	n/a	n/a	n/a
2826675	PROB	n/a	LTP267	ltpFR	14	n/a	n/a	n/a	n/a	n/a	n/a	13	1	3	9	n/a	n/a	n/a	n/a	n/a
2828148	PROB	n/a	LTP267	ltpFR	14	n/a	n/a	n/a	n/a	n/a	n/a	19	7	6	6	n/a	n/a	n/a	n/a	n/a
2830556	PROB	n/a	LTP267	ltpFR	14	n/a	n/a	n/a	n/a	n/a	n/a	14	4	8	2	n/a	n/a	n/a	n/a	n/a
2831711	PROB	n/a	LTP267	ltpFR	14	n/a	n/a	n/a	n/a	n/a	n/a	13	4	3	5	n/a	n/a	n/a	n/a	n/a
2833383	PROB	n/a	LTP267	ltpFR	14	n/a	n/a	n/a	n/a	n/a	n/a	18	8	8	2	n/a	n/a	n/a	n/a	n/a
2835024	PROB	n/a	LTP267	ltpFR	14	n/a	n/a	n/a	n/a	n/a	n/a	24	6	8	9	n/a	n/a	n/a	n/a	n/a
2837231	PROB	n/a	LTP267	ltpFR	14	n/a	n/a	n/a	n/a	n/a	n/a	7	1	1	5	n/a	n/a	n/a	n/a	n/a
2838303	PROB	n/a	LTP267	ltpFR	14	n/a	n/a	n/a	n/a	n/a	n/a	15	8	3	4	n/a	n/a	n/a	n/a	n/a
2839582	STOP	n/a	LTP267	ltpFR	14	n/a	n/a	n/a	n/a	n/a	n/a	n/a	n/a	n/a	n/a	n/a	n/a	n/a	n/a	n/a
2842084	WORD	wordpools/wasnorm_wordpool_less_exclusions.txt	LTP267	ltpFR	14	11	0	SISTER	1312	n/a	1	n/a	0	0	0	1	0.412841796875	0.57763671875	lower	../fonts/zerothre.ttf
2845096	START	n/a	LTP267	ltpFR	14	n/a	n/a	n/a	n/a	n/a	n/a	n/a	n/a	n/a	n/a	n/a	n/a	n/a	n/a	n/a
2845999	PROB	n/a	LTP267	ltpFR	14	n/a	n/a	n/a	n/a	n/a	n/a	14	1	4	9	n/a	n/a	n/a	n/a	n/a
2847470	PROB	n/a	LTP267	ltpFR	14	n/a	n/a	n/a	n/a	n/a	n/a	8	3	2	3	n/a	n/a	n/a	n/a	n/a
2852254	PROB	n/a	LTP267	ltpFR	14	n/a	n/a	n/a	n/a	n/a	n/a	16	3	7	6	n/a	n/a	n/a	n/a	n/a
2853525	PROB	n/a	LTP267	ltpFR	14	n/a	n/a	n/a	n/a	n/a	n/a	20	8	8	4	n/a	n/a	n/a	n/a	n/a
2854813	PROB	n/a	LTP267	ltpFR	14	n/a	n/a	n/a	n/a	n/a	n/a	12	3	1	8	n/a	n/a	n/a	n/a	n/a
2856686	PROB	n/a	LTP267	ltpFR	14	n/a	n/a	n/a	n/a	n/a	n/a	18	2	9	7	n/a	n/a	n/a	n/a	n/a
2858445	PROB	n/a	LTP267	ltpFR	14	n/a	n/a	n/a	n/a	n/a	n/a	16	6	5	5	n/a	n/a	n/a	n/a	n/a
2861096	STOP	n/a	LTP267	ltpFR	14	n/a	n/a	n/a	n/a	n/a	n/a	n/a	n/a	n/a	n/a	n/a	n/a	n/a	n/a	n/a
2862227	WORD	wordpools/wasnorm_wordpool_less_exclusions.txt	LTP267	ltpFR	14	11	0	BEDROOM	111	n/a	0	n/a	0	0	0	1	0.412841796875	0.57763671875	lower	../fonts/zerothre.ttf
2865239	START	n/a	LTP267	ltpFR	14	n/a	n/a	n/a	n/a	n/a	n/a	n/a	n/a	n/a	n/a	n/a	n/a	n/a	n/a	n/a
2866173	PROB	n/a	LTP267	ltpFR	14	n/a	n/a	n/a	n/a	n/a	n/a	16	8	2	6	n/a	n/a	n/a	n/a	n/a
2867763	PROB	n/a	LTP267	ltpFR	14	n/a	n/a	n/a	n/a	n/a	n/a	9	4	2	3	n/a	n/a	n/a	n/a	n/a
2869536	PROB	n/a	LTP267	ltpFR	14	n/a	n/a	n/a	n/a	n/a	n/a	13	5	4	4	n/a	n/a	n/a	n/a	n/a
2871277	PROB	n/a	LTP267	ltpFR	14	n/a	n/a	n/a	n/a	n/a	n/a	18	1	9	8	n/a	n/a	n/a	n/a	n/a
2872682	PROB	n/a	LTP267	ltpFR	14	n/a	n/a	n/a	n/a	n/a	n/a	24	8	8	8	n/a	n/a	n/a	n/a	n/a
2874337	PROB	n/a	LTP267	ltpFR	14	n/a	n/a	n/a	n/a	n/a	n/a	21	7	3	9	n/a	n/a	n/a	n/a	n/a
2877150	PROB	n/a	LTP267	ltpFR	14	n/a	n/a	n/a	n/a	n/a	n/a	21	9	6	8	n/a	n/a	n/a	n/a	n/a
2880622	STOP	n/a	LTP267	ltpFR	14	n/a	n/a	n/a	n/a	n/a	n/a	n/a	n/a	n/a	n/a	n/a	n/a	n/a	n/a	n/a
2882252	WORD	wordpools/wasnorm_wordpool_less_exclusions.txt	LTP267	ltpFR	14	11	0	VAULT	1550	n/a	0	n/a	0	0	0	1	0.412841796875	0.57763671875	lower	../fonts/zerothre.ttf
2885264	START	n/a	LTP267	ltpFR	14	n/a	n/a	n/a	n/a	n/a	n/a	n/a	n/a	n/a	n/a	n/a	n/a	n/a	n/a	n/a
2886200	PROB	n/a	LTP267	ltpFR	14	n/a	n/a	n/a	n/a	n/a	n/a	13	5	5	3	n/a	n/a	n/a	n/a	n/a
2887338	PROB	n/a	LTP267	ltpFR	14	n/a	n/a	n/a	n/a	n/a	n/a	9	3	2	4	n/a	n/a	n/a	n/a	n/a
2888976	PROB	n/a	LTP267	ltpFR	14	n/a	n/a	n/a	n/a	n/a	n/a	12	9	2	1	n/a	n/a	n/a	n/a	n/a
2890082	PROB	n/a	LTP267	ltpFR	14	n/a	n/a	n/a	n/a	n/a	n/a	13	3	7	3	n/a	n/a	n/a	n/a	n/a
2891854	PROB	n/a	LTP267	ltpFR	14	n/a	n/a	n/a	n/a	n/a	n/a	16	7	4	5	n/a	n/a	n/a	n/a	n/a
2893577	PROB	n/a	LTP267	ltpFR	14	n/a	n/a	n/a	n/a	n/a	n/a	7	2	2	3	n/a	n/a	n/a	n/a	n/a
2895801	PROB	n/a	LTP267	ltpFR	14	n/a	n/a	n/a	n/a	n/a	n/a	16	2	5	9	n/a	n/a	n/a	n/a	n/a
2897376	PROB	n/a	LTP267	ltpFR	14	n/a	n/a	n/a	n/a	n/a	n/a	17	5	3	9	n/a	n/a	n/a	n/a	n/a
2901263	STOP	n/a	LTP267	ltpFR	14	n/a	n/a	n/a	n/a	n/a	n/a	n/a	n/a	n/a	n/a	n/a	n/a	n/a	n/a	n/a
2902442	WORD	wordpools/wasnorm_wordpool_less_exclusions.txt	LTP267	ltpFR	14	11	0	BOOK	149	n/a	0	n/a	0	0	0	1	0.412841796875	0.57763671875	lower	../fonts/zerothre.ttf
2905456	START	n/a	LTP267	ltpFR	14	n/a	n/a	n/a	n/a	n/a	n/a	n/a	n/a	n/a	n/a	n/a	n/a	n/a	n/a	n/a
2906559	PROB	n/a	LTP267	ltpFR	14	n/a	n/a	n/a	n/a	n/a	n/a	21	6	8	7	n/a	n/a	n/a	n/a	n/a
2908768	PROB	n/a	LTP267	ltpFR	14	n/a	n/a	n/a	n/a	n/a	n/a	18	7	3	9	n/a	n/a	n/a	n/a	n/a
2910790	PROB	n/a	LTP267	ltpFR	14	n/a	n/a	n/a	n/a	n/a	n/a	11	2	6	3	n/a	n/a	n/a	n/a	n/a
2912564	PROB	n/a	LTP267	ltpFR	14	n/a	n/a	n/a	n/a	n/a	n/a	11	3	7	1	n/a	n/a	n/a	n/a	n/a
2913953	PROB	n/a	LTP267	ltpFR	14	n/a	n/a	n/a	n/a	n/a	n/a	16	4	5	7	n/a	n/a	n/a	n/a	n/a
2915560	PROB	n/a	LTP267	ltpFR	14	n/a	n/a	n/a	n/a	n/a	n/a	17	6	7	4	n/a	n/a	n/a	n/a	n/a
2918404	PROB	n/a	LTP267	ltpFR	14	n/a	n/a	n/a	n/a	n/a	n/a	13	2	5	6	n/a	n/a	n/a	n/a	n/a
2919943	STOP	n/a	LTP267	ltpFR	14	n/a	n/a	n/a	n/a	n/a	n/a	n/a	n/a	n/a	n/a	n/a	n/a	n/a	n/a	n/a
2922318	WORD	wordpools/wasnorm_wordpool_less_exclusions.txt	LTP267	ltpFR	14	11	0	WINNER	1615	n/a	1	n/a	0	0	0	1	0.412841796875	0.57763671875	lower	../fonts/zerothre.ttf
2925332	START	n/a	LTP267	ltpFR	14	n/a	n/a	n/a	n/a	n/a	n/a	n/a	n/a	n/a	n/a	n/a	n/a	n/a	n/a	n/a
2926501	PROB	n/a	LTP267	ltpFR	14	n/a	n/a	n/a	n/a	n/a	n/a	17	8	8	1	n/a	n/a	n/a	n/a	n/a
2928040	PROB	n/a	LTP267	ltpFR	14	n/a	n/a	n/a	n/a	n/a	n/a	24	9	8	9	n/a	n/a	n/a	n/a	n/a
2931002	PROB	n/a	LTP267	ltpFR	14	n/a	n/a	n/a	n/a	n/a	n/a	23	9	5	9	n/a	n/a	n/a	n/a	n/a
2933310	PROB	n/a	LTP267	ltpFR	14	n/a	n/a	n/a	n/a	n/a	n/a	19	9	8	6	n/a	n/a	n/a	n/a	n/a
2935336	PROB	n/a	LTP267	ltpFR	14	n/a	n/a	n/a	n/a	n/a	n/a	21	6	7	8	n/a	n/a	n/a	n/a	n/a
2937343	PROB	n/a	LTP267	ltpFR	14	n/a	n/a	n/a	n/a	n/a	n/a	13	7	5	1	n/a	n/a	n/a	n/a	n/a
2938747	PROB	n/a	LTP267	ltpFR	14	n/a	n/a	n/a	n/a	n/a	n/a	11	5	5	1	n/a	n/a	n/a	n/a	n/a
2939782	STOP	n/a	LTP267	ltpFR	14	n/a	n/a	n/a	n/a	n/a	n/a	n/a	n/a	n/a	n/a	n/a	n/a	n/a	n/a	n/a
2942461	WORD	wordpools/wasnorm_wordpool_less_exclusions.txt	LTP267	ltpFR	14	11	0	CART	250	n/a	0	n/a	0	0	0	1	0.412841796875	0.57763671875	lower	../fonts/zerothre.ttf
2945473	START	n/a	LTP267	ltpFR	14	n/a	n/a	n/a	n/a	n/a	n/a	n/a	n/a	n/a	n/a	n/a	n/a	n/a	n/a	n/a
2946644	PROB	n/a	LTP267	ltpFR	14	n/a	n/a	n/a	n/a	n/a	n/a	6	3	2	1	n/a	n/a	n/a	n/a	n/a
2947832	PROB	n/a	LTP267	ltpFR	14	n/a	n/a	n/a	n/a	n/a	n/a	20	6	7	7	n/a	n/a	n/a	n/a	n/a
2949286	PROB	n/a	LTP267	ltpFR	14	n/a	n/a	n/a	n/a	n/a	n/a	15	5	9	1	n/a	n/a	n/a	n/a	n/a
2950325	PROB	n/a	LTP267	ltpFR	14	n/a	n/a	n/a	n/a	n/a	n/a	15	2	9	4	n/a	n/a	n/a	n/a	n/a
2952233	PROB	n/a	LTP267	ltpFR	14	n/a	n/a	n/a	n/a	n/a	n/a	16	3	6	7	n/a	n/a	n/a	n/a	n/a
2953637	PROB	n/a	LTP267	ltpFR	14	n/a	n/a	n/a	n/a	n/a	n/a	15	3	6	6	n/a	n/a	n/a	n/a	n/a
2956313	PROB	n/a	LTP267	ltpFR	14	n/a	n/a	n/a	n/a	n/a	n/a	18	4	5	9	n/a	n/a	n/a	n/a	n/a
2958422	PROB	n/a	LTP267	ltpFR	14	n/a	n/a	n/a	n/a	n/a	n/a	15	9	4	2	n/a	n/a	n/a	n/a	n/a
2959943	STOP	n/a	LTP267	ltpFR	14	n/a	n/a	n/a	n/a	n/a	n/a	n/a	n/a	n/a	n/a	n/a	n/a	n/a	n/a	n/a
2962621	WORD	wordpools/wasnorm_wordpool_less_exclusions.txt	LTP267	ltpFR	14	11	0	STORE	1387	n/a	0	n/a	0	0	0	1	0.412841796875	0.57763671875	lower	../fonts/zerothre.ttf
2965633	START	n/a	LTP267	ltpFR	14	n/a	n/a	n/a	n/a	n/a	n/a	n/a	n/a	n/a	n/a	n/a	n/a	n/a	n/a	n/a
2966686	PROB	n/a	LTP267	ltpFR	14	n/a	n/a	n/a	n/a	n/a	n/a	10	3	4	1	n/a	n/a	n/a	n/a	n/a
2968509	PROB	n/a	LTP267	ltpFR	14	n/a	n/a	n/a	n/a	n/a	n/a	17	7	9	1	n/a	n/a	n/a	n/a	n/a
2970265	PROB	n/a	LTP267	ltpFR	14	n/a	n/a	n/a	n/a	n/a	n/a	9	5	1	3	n/a	n/a	n/a	n/a	n/a
2971753	PROB	n/a	LTP267	ltpFR	14	n/a	n/a	n/a	n/a	n/a	n/a	2	8	6	8	n/a	n/a	n/a	n/a	n/a
2973460	PROB	n/a	LTP267	ltpFR	14	n/a	n/a	n/a	n/a	n/a	n/a	17	7	4	6	n/a	n/a	n/a	n/a	n/a
2976206	PROB	n/a	LTP267	ltpFR	14	n/a	n/a	n/a	n/a	n/a	n/a	8	5	1	2	n/a	n/a	n/a	n/a	n/a
2978162	PROB	n/a	LTP267	ltpFR	14	n/a	n/a	n/a	n/a	n/a	n/a	11	1	5	5	n/a	n/a	n/a	n/a	n/a
2981633	STOP	n/a	LTP267	ltpFR	14	n/a	n/a	n/a	n/a	n/a	n/a	n/a	n/a	n/a	n/a	n/a	n/a	n/a	n/a	n/a
2982830	WORD	wordpools/wasnorm_wordpool_less_exclusions.txt	LTP267	ltpFR	14	11	0	TROPHY	1509	n/a	0	n/a	0	0	0	1	0.412841796875	0.57763671875	lower	../fonts/zerothre.ttf
2985842	START	n/a	LTP267	ltpFR	14	n/a	n/a	n/a	n/a	n/a	n/a	n/a	n/a	n/a	n/a	n/a	n/a	n/a	n/a	n/a
2986812	PROB	n/a	LTP267	ltpFR	14	n/a	n/a	n/a	n/a	n/a	n/a	16	6	2	8	n/a	n/a	n/a	n/a	n/a
2988034	PROB	n/a	LTP267	ltpFR	14	n/a	n/a	n/a	n/a	n/a	n/a	7	2	2	3	n/a	n/a	n/a	n/a	n/a
2990259	PROB	n/a	LTP267	ltpFR	14	n/a	n/a	n/a	n/a	n/a	n/a	21	5	9	7	n/a	n/a	n/a	n/a	n/a
2993504	PROB	n/a	LTP267	ltpFR	14	n/a	n/a	n/a	n/a	n/a	n/a	17	8	5	4	n/a	n/a	n/a	n/a	n/a
2995211	PROB	n/a	LTP267	ltpFR	14	n/a	n/a	n/a	n/a	n/a	n/a	13	8	2	3	n/a	n/a	n/a	n/a	n/a
2997885	PROB	n/a	LTP267	ltpFR	14	n/a	n/a	n/a	n/a	n/a	n/a	15	6	1	8	n/a	n/a	n/a	n/a	n/a
3000494	STOP	n/a	LTP267	ltpFR	14	n/a	n/a	n/a	n/a	n/a	n/a	n/a	n/a	n/a	n/a	n/a	n/a	n/a	n/a	n/a
3002755	WORD	wordpools/wasnorm_wordpool_less_exclusions.txt	LTP267	ltpFR	14	11	0	PEPPER	1047	n/a	0	n/a	0	0	0	1	0.412841796875	0.57763671875	lower	../fonts/zerothre.ttf
3005767	START	n/a	LTP267	ltpFR	14	n/a	n/a	n/a	n/a	n/a	n/a	n/a	n/a	n/a	n/a	n/a	n/a	n/a	n/a	n/a
3006804	PROB	n/a	LTP267	ltpFR	14	n/a	n/a	n/a	n/a	n/a	n/a	10	2	4	4	n/a	n/a	n/a	n/a	n/a
3008860	PROB	n/a	LTP267	ltpFR	14	n/a	n/a	n/a	n/a	n/a	n/a	11	5	1	5	n/a	n/a	n/a	n/a	n/a
3009967	PROB	n/a	LTP267	ltpFR	14	n/a	n/a	n/a	n/a	n/a	n/a	18	6	5	7	n/a	n/a	n/a	n/a	n/a
3011471	PROB	n/a	LTP267	ltpFR	14	n/a	n/a	n/a	n/a	n/a	n/a	13	1	5	7	n/a	n/a	n/a	n/a	n/a
3012825	PROB	n/a	LTP267	ltpFR	14	n/a	n/a	n/a	n/a	n/a	n/a	18	6	4	8	n/a	n/a	n/a	n/a	n/a
3016758	PROB	n/a	LTP267	ltpFR	14	n/a	n/a	n/a	n/a	n/a	n/a	13	5	5	3	n/a	n/a	n/a	n/a	n/a
3017862	PROB	n/a	LTP267	ltpFR	14	n/a	n/a	n/a	n/a	n/a	n/a	20	4	8	8	n/a	n/a	n/a	n/a	n/a
3019084	PROB	n/a	LTP267	ltpFR	14	n/a	n/a	n/a	n/a	n/a	n/a	14	5	4	5	n/a	n/a	n/a	n/a	n/a
3020991	STOP	n/a	LTP267	ltpFR	14	n/a	n/a	n/a	n/a	n/a	n/a	n/a	n/a	n/a	n/a	n/a	n/a	n/a	n/a	n/a
3022781	WORD	wordpools/wasnorm_wordpool_less_exclusions.txt	LTP267	ltpFR	14	11	0	BELLY	119	n/a	0	n/a	0	0	0	1	0.412841796875	0.57763671875	lower	../fonts/zerothre.ttf
3025793	START	n/a	LTP267	ltpFR	14	n/a	n/a	n/a	n/a	n/a	n/a	n/a	n/a	n/a	n/a	n/a	n/a	n/a	n/a	n/a
3026846	PROB	n/a	LTP267	ltpFR	14	n/a	n/a	n/a	n/a	n/a	n/a	20	6	6	8	n/a	n/a	n/a	n/a	n/a
3031480	PROB	n/a	LTP267	ltpFR	14	n/a	n/a	n/a	n/a	n/a	n/a	17	5	5	7	n/a	n/a	n/a	n/a	n/a
3033137	PROB	n/a	LTP267	ltpFR	14	n/a	n/a	n/a	n/a	n/a	n/a	14	2	4	8	n/a	n/a	n/a	n/a	n/a
3034910	PROB	n/a	LTP267	ltpFR	14	n/a	n/a	n/a	n/a	n/a	n/a	21	3	9	9	n/a	n/a	n/a	n/a	n/a
3037368	PROB	n/a	LTP267	ltpFR	14	n/a	n/a	n/a	n/a	n/a	n/a	11	1	9	1	n/a	n/a	n/a	n/a	n/a
3038572	PROB	n/a	LTP267	ltpFR	14	n/a	n/a	n/a	n/a	n/a	n/a	10	2	3	4	n/a	n/a	n/a	n/a	n/a
3041793	STOP	n/a	LTP267	ltpFR	14	n/a	n/a	n/a	n/a	n/a	n/a	n/a	n/a	n/a	n/a	n/a	n/a	n/a	n/a	n/a
3042723	WORD	wordpools/wasnorm_wordpool_less_exclusions.txt	LTP267	ltpFR	14	11	0	PAPER	1011	n/a	0	n/a	0	0	0	1	0.412841796875	0.57763671875	lower	../fonts/zerothre.ttf
3045735	START	n/a	LTP267	ltpFR	14	n/a	n/a	n/a	n/a	n/a	n/a	n/a	n/a	n/a	n/a	n/a	n/a	n/a	n/a	n/a
3046636	PROB	n/a	LTP267	ltpFR	14	n/a	n/a	n/a	n/a	n/a	n/a	12	3	6	3	n/a	n/a	n/a	n/a	n/a
3048209	PROB	n/a	LTP267	ltpFR	14	n/a	n/a	n/a	n/a	n/a	n/a	19	9	5	2	n/a	n/a	n/a	n/a	n/a
3052042	PROB	n/a	LTP267	ltpFR	14	n/a	n/a	n/a	n/a	n/a	n/a	13	6	2	5	n/a	n/a	n/a	n/a	n/a
3057493	PROB	n/a	LTP267	ltpFR	14	n/a	n/a	n/a	n/a	n/a	n/a	11	5	1	5	n/a	n/a	n/a	n/a	n/a
3058766	PROB	n/a	LTP267	ltpFR	14	n/a	n/a	n/a	n/a	n/a	n/a	15	3	7	5	n/a	n/a	n/a	n/a	n/a
3059837	PROB	n/a	LTP267	ltpFR	14	n/a	n/a	n/a	n/a	n/a	n/a	23	8	9	7	n/a	n/a	n/a	n/a	n/a
3061566	STOP	n/a	LTP267	ltpFR	14	n/a	n/a	n/a	n/a	n/a	n/a	n/a	n/a	n/a	n/a	n/a	n/a	n/a	n/a	n/a
3062614	WORD	wordpools/wasnorm_wordpool_less_exclusions.txt	LTP267	ltpFR	14	11	0	SACK	1220	n/a	0	n/a	0	0	0	1	0.412841796875	0.57763671875	lower	../fonts/zerothre.ttf
3065626	START	n/a	LTP267	ltpFR	14	n/a	n/a	n/a	n/a	n/a	n/a	n/a	n/a	n/a	n/a	n/a	n/a	n/a	n/a	n/a
3066494	PROB	n/a	LTP267	ltpFR	14	n/a	n/a	n/a	n/a	n/a	n/a	17	6	2	9	n/a	n/a	n/a	n/a	n/a
3069840	PROB	n/a	LTP267	ltpFR	14	n/a	n/a	n/a	n/a	n/a	n/a	12	4	1	7	n/a	n/a	n/a	n/a	n/a
3073673	PROB	n/a	LTP267	ltpFR	14	n/a	n/a	n/a	n/a	n/a	n/a	16	8	8	4	n/a	n/a	n/a	n/a	n/a
3074844	PROB	n/a	LTP267	ltpFR	14	n/a	n/a	n/a	n/a	n/a	n/a	13	5	5	3	n/a	n/a	n/a	n/a	n/a
3076215	PROB	n/a	LTP267	ltpFR	14	n/a	n/a	n/a	n/a	n/a	n/a	16	8	4	4	n/a	n/a	n/a	n/a	n/a
3077554	PROB	n/a	LTP267	ltpFR	14	n/a	n/a	n/a	n/a	n/a	n/a	14	5	6	3	n/a	n/a	n/a	n/a	n/a
3079060	PROB	n/a	LTP267	ltpFR	14	n/a	n/a	n/a	n/a	n/a	n/a	5	1	2	2	n/a	n/a	n/a	n/a	n/a
3080031	PROB	n/a	LTP267	ltpFR	14	n/a	n/a	n/a	n/a	n/a	n/a	16	7	2	7	n/a	n/a	n/a	n/a	n/a
3081502	STOP	n/a	LTP267	ltpFR	14	n/a	n/a	n/a	n/a	n/a	n/a	n/a	n/a	n/a	n/a	n/a	n/a	n/a	n/a	n/a
3082655	WORD	wordpools/wasnorm_wordpool_less_exclusions.txt	LTP267	ltpFR	14	11	0	CENT	270	n/a	0	n/a	0	0	0	1	0.412841796875	0.57763671875	lower	../fonts/zerothre.ttf
3085668	START	n/a	LTP267	ltpFR	14	n/a	n/a	n/a	n/a	n/a	n/a	n/a	n/a	n/a	n/a	n/a	n/a	n/a	n/a	n/a
3086872	PROB	n/a	LTP267	ltpFR	14	n/a	n/a	n/a	n/a	n/a	n/a	6	2	2	2	n/a	n/a	n/a	n/a	n/a
3087977	PROB	n/a	LTP267	ltpFR	14	n/a	n/a	n/a	n/a	n/a	n/a	13	1	4	8	n/a	n/a	n/a	n/a	n/a
3089299	PROB	n/a	LTP267	ltpFR	14	n/a	n/a	n/a	n/a	n/a	n/a	22	9	8	5	n/a	n/a	n/a	n/a	n/a
3093028	PROB	n/a	LTP267	ltpFR	14	n/a	n/a	n/a	n/a	n/a	n/a	16	3	5	4	n/a	n/a	n/a	n/a	n/a
3094884	PROB	n/a	LTP267	ltpFR	14	n/a	n/a	n/a	n/a	n/a	n/a	10	5	4	1	n/a	n/a	n/a	n/a	n/a
3096557	PROB	n/a	LTP267	ltpFR	14	n/a	n/a	n/a	n/a	n/a	n/a	13	3	3	7	n/a	n/a	n/a	n/a	n/a
3098715	PROB	n/a	LTP267	ltpFR	14	n/a	n/a	n/a	n/a	n/a	n/a	16	5	5	6	n/a	n/a	n/a	n/a	n/a
3099888	PROB	n/a	LTP267	ltpFR	14	n/a	n/a	n/a	n/a	n/a	n/a	7	3	1	3	n/a	n/a	n/a	n/a	n/a
3100935	STOP	n/a	LTP267	ltpFR	14	n/a	n/a	n/a	n/a	n/a	n/a	n/a	n/a	n/a	n/a	n/a	n/a	n/a	n/a	n/a
3102715	WORD	wordpools/wasnorm_wordpool_less_exclusions.txt	LTP267	ltpFR	14	11	0	NEST	945	n/a	0	n/a	0	0	0	1	0.412841796875	0.57763671875	lower	../fonts/zerothre.ttf
3105727	START	n/a	LTP267	ltpFR	14	n/a	n/a	n/a	n/a	n/a	n/a	n/a	n/a	n/a	n/a	n/a	n/a	n/a	n/a	n/a
3106731	PROB	n/a	LTP267	ltpFR	14	n/a	n/a	n/a	n/a	n/a	n/a	19	5	5	9	n/a	n/a	n/a	n/a	n/a
3107801	PROB	n/a	LTP267	ltpFR	14	n/a	n/a	n/a	n/a	n/a	n/a	15	2	8	5	n/a	n/a	n/a	n/a	n/a
3109005	PROB	n/a	LTP267	ltpFR	14	n/a	n/a	n/a	n/a	n/a	n/a	17	3	9	4	n/a	n/a	n/a	n/a	n/a
3111497	PROB	n/a	LTP267	ltpFR	14	n/a	n/a	n/a	n/a	n/a	n/a	15	5	6	4	n/a	n/a	n/a	n/a	n/a
3116400	PROB	n/a	LTP267	ltpFR	14	n/a	n/a	n/a	n/a	n/a	n/a	17	3	8	6	n/a	n/a	n/a	n/a	n/a
3118225	PROB	n/a	LTP267	ltpFR	14	n/a	n/a	n/a	n/a	n/a	n/a	21	9	3	9	n/a	n/a	n/a	n/a	n/a
3120151	STOP	n/a	LTP267	ltpFR	14	n/a	n/a	n/a	n/a	n/a	n/a	n/a	n/a	n/a	n/a	n/a	n/a	n/a	n/a	n/a
3122706	WORD	wordpools/wasnorm_wordpool_less_exclusions.txt	LTP267	ltpFR	14	11	0	SPARROW	1347	n/a	1	n/a	0	0	0	1	0.412841796875	0.57763671875	lower	../fonts/zerothre.ttf
3125719	START	n/a	LTP267	ltpFR	14	n/a	n/a	n/a	n/a	n/a	n/a	n/a	n/a	n/a	n/a	n/a	n/a	n/a	n/a	n/a
3126555	PROB	n/a	LTP267	ltpFR	14	n/a	n/a	n/a	n/a	n/a	n/a	12	4	2	6	n/a	n/a	n/a	n/a	n/a
3128363	PROB	n/a	LTP267	ltpFR	14	n/a	n/a	n/a	n/a	n/a	n/a	14	3	5	6	n/a	n/a	n/a	n/a	n/a
3132461	PROB	n/a	LTP267	ltpFR	14	n/a	n/a	n/a	n/a	n/a	n/a	13	5	3	5	n/a	n/a	n/a	n/a	n/a
3133732	PROB	n/a	LTP267	ltpFR	14	n/a	n/a	n/a	n/a	n/a	n/a	21	5	6	8	n/a	n/a	n/a	n/a	n/a
3136057	PROB	n/a	LTP267	ltpFR	14	n/a	n/a	n/a	n/a	n/a	n/a	16	7	2	5	n/a	n/a	n/a	n/a	n/a
3139419	PROB	n/a	LTP267	ltpFR	14	n/a	n/a	n/a	n/a	n/a	n/a	14	8	7	4	n/a	n/a	n/a	n/a	n/a
3141542	STOP	n/a	LTP267	ltpFR	14	n/a	n/a	n/a	n/a	n/a	n/a	n/a	n/a	n/a	n/a	n/a	n/a	n/a	n/a	n/a
3142883	WORD	wordpools/wasnorm_wordpool_less_exclusions.txt	LTP267	ltpFR	14	11	0	SPRINKLE	1359	n/a	0	n/a	0	0	0	1	0.412841796875	0.57763671875	lower	../fonts/zerothre.ttf
3145895	START	n/a	LTP267	ltpFR	14	n/a	n/a	n/a	n/a	n/a	n/a	n/a	n/a	n/a	n/a	n/a	n/a	n/a	n/a	n/a
3146966	PROB	n/a	LTP267	ltpFR	14	n/a	n/a	n/a	n/a	n/a	n/a	18	9	8	1	n/a	n/a	n/a	n/a	n/a
3148169	PROB	n/a	LTP267	ltpFR	14	n/a	n/a	n/a	n/a	n/a	n/a	10	7	1	2	n/a	n/a	n/a	n/a	n/a
3150361	PROB	n/a	LTP267	ltpFR	14	n/a	n/a	n/a	n/a	n/a	n/a	16	5	9	2	n/a	n/a	n/a	n/a	n/a
3152771	PROB	n/a	LTP267	ltpFR	14	n/a	n/a	n/a	n/a	n/a	n/a	19	8	6	5	n/a	n/a	n/a	n/a	n/a
3154327	PROB	n/a	LTP267	ltpFR	14	n/a	n/a	n/a	n/a	n/a	n/a	7	1	1	5	n/a	n/a	n/a	n/a	n/a
3155849	PROB	n/a	LTP267	ltpFR	14	n/a	n/a	n/a	n/a	n/a	n/a	10	4	4	2	n/a	n/a	n/a	n/a	n/a
3157272	PROB	n/a	LTP267	ltpFR	14	n/a	n/a	n/a	n/a	n/a	n/a	13	3	1	9	n/a	n/a	n/a	n/a	n/a
3158359	PROB	n/a	LTP267	ltpFR	14	n/a	n/a	n/a	n/a	n/a	n/a	18	7	3	8	n/a	n/a	n/a	n/a	n/a
3159999	PROB	n/a	LTP267	ltpFR	14	n/a	n/a	n/a	n/a	n/a	n/a	19	9	5	5	n/a	n/a	n/a	n/a	n/a
3161071	STOP	n/a	LTP267	ltpFR	14	n/a	n/a	n/a	n/a	n/a	n/a	n/a	n/a	n/a	n/a	n/a	n/a	n/a	n/a	n/a
3163830	REC_START	n/a	LTP267	ltpFR	14	11	n/a	n/a	n/a	n/a	n/a	n/a	0	0	0	n/a	n/a	n/a	n/a	n/a
3164823	REC_WORD	wordpools/wasnorm_wordpool_less_exclusions.txt	LTP267	ltpFR	14	11	0	SPARROW	1347	n/a	1	n/a	0	0	0	n/a	n/a	n/a	n/a	n/a
3166197	REC_WORD	wordpools/wasnorm_wordpool_less_exclusions.txt	LTP267	ltpFR	14	11	0	SACK	1220	n/a	0	n/a	0	0	0	n/a	n/a	n/a	n/a	n/a
3167298	REC_WORD	wordpools/wasnorm_wordpool_less_exclusions.txt	LTP267	ltpFR	14	11	n/a	COIN	343	n/a	n/a	n/a	0	0	0	n/a	n/a	n/a	n/a	n/a
3168510	REC_WORD	wordpools/wasnorm_wordpool_less_exclusions.txt	LTP267	ltpFR	14	11	0	PAPER	1011	n/a	0	n/a	0	0	0	n/a	n/a	n/a	n/a	n/a
3180909	REC_WORD	wordpools/wasnorm_wordpool_less_exclusions.txt	LTP267	ltpFR	14	11	0	SISTER	1312	n/a	1	n/a	0	0	0	n/a	n/a	n/a	n/a	n/a
3184577	REC_WORD	wordpools/wasnorm_wordpool_less_exclusions.txt	LTP267	ltpFR	14	11	0	BEDROOM	111	n/a	0	n/a	0	0	0	n/a	n/a	n/a	n/a	n/a
3188265	REC_WORD	wordpools/wasnorm_wordpool_less_exclusions.txt	LTP267	ltpFR	14	11	n/a	BROOM	178	n/a	n/a	n/a	0	0	0	n/a	n/a	n/a	n/a	n/a
3213082	REC_WORD	wordpools/wasnorm_wordpool_less_exclusions.txt	LTP267	ltpFR	14	11	0	NEST	945	n/a	0	n/a	0	0	0	n/a	n/a	n/a	n/a	n/a
3241139	START	n/a	LTP267	ltpFR	14	n/a	n/a	n/a	n/a	n/a	n/a	n/a	n/a	n/a	n/a	n/a	n/a	n/a	n/a	n/a
3242643	PROB	n/a	LTP267	ltpFR	14	n/a	n/a	n/a	n/a	n/a	n/a	11	6	2	3	n/a	n/a	n/a	n/a	n/a
3245403	PROB	n/a	LTP267	ltpFR	14	n/a	n/a	n/a	n/a	n/a	n/a	18	9	4	5	n/a	n/a	n/a	n/a	n/a
3247008	PROB	n/a	LTP267	ltpFR	14	n/a	n/a	n/a	n/a	n/a	n/a	7	1	4	4	n/a	n/a	n/a	n/a	n/a
3248031	STOP	n/a	LTP267	ltpFR	14	n/a	n/a	n/a	n/a	n/a	n/a	n/a	n/a	n/a	n/a	n/a	n/a	n/a	n/a	n/a
3250239	WORD	wordpools/wasnorm_wordpool_less_exclusions.txt	LTP267	ltpFR	14	12	0	SEED	1266	n/a	0	n/a	0	0	0	1	0.412841796875	0.57763671875	lower	../fonts/zerothre.ttf
3253251	START	n/a	LTP267	ltpFR	14	n/a	n/a	n/a	n/a	n/a	n/a	n/a	n/a	n/a	n/a	n/a	n/a	n/a	n/a	n/a
3254437	PROB	n/a	LTP267	ltpFR	14	n/a	n/a	n/a	n/a	n/a	n/a	15	9	2	6	n/a	n/a	n/a	n/a	n/a
3255994	PROB	n/a	LTP267	ltpFR	14	n/a	n/a	n/a	n/a	n/a	n/a	8	3	4	1	n/a	n/a	n/a	n/a	n/a
3257197	PROB	n/a	LTP267	ltpFR	14	n/a	n/a	n/a	n/a	n/a	n/a	15	1	8	6	n/a	n/a	n/a	n/a	n/a
3259290	PROB	n/a	LTP267	ltpFR	14	n/a	n/a	n/a	n/a	n/a	n/a	18	8	7	3	n/a	n/a	n/a	n/a	n/a
3260870	STOP	n/a	LTP267	ltpFR	14	n/a	n/a	n/a	n/a	n/a	n/a	n/a	n/a	n/a	n/a	n/a	n/a	n/a	n/a	n/a
3262417	WORD	wordpools/wasnorm_wordpool_less_exclusions.txt	LTP267	ltpFR	14	12	0	BULLY	196	n/a	1	n/a	0	0	0	1	0.412841796875	0.57763671875	lower	../fonts/zerothre.ttf
3265429	START	n/a	LTP267	ltpFR	14	n/a	n/a	n/a	n/a	n/a	n/a	n/a	n/a	n/a	n/a	n/a	n/a	n/a	n/a	n/a
3266283	PROB	n/a	LTP267	ltpFR	14	n/a	n/a	n/a	n/a	n/a	n/a	11	1	2	8	n/a	n/a	n/a	n/a	n/a
3268123	PROB	n/a	LTP267	ltpFR	14	n/a	n/a	n/a	n/a	n/a	n/a	15	4	6	5	n/a	n/a	n/a	n/a	n/a
3269261	PROB	n/a	LTP267	ltpFR	14	n/a	n/a	n/a	n/a	n/a	n/a	17	4	8	3	n/a	n/a	n/a	n/a	n/a
3273429	STOP	n/a	LTP267	ltpFR	14	n/a	n/a	n/a	n/a	n/a	n/a	n/a	n/a	n/a	n/a	n/a	n/a	n/a	n/a	n/a
3274530	WORD	wordpools/wasnorm_wordpool_less_exclusions.txt	LTP267	ltpFR	14	12	0	GRASS	655	n/a	0	n/a	0	0	0	1	0.412841796875	0.57763671875	lower	../fonts/zerothre.ttf
3277542	START	n/a	LTP267	ltpFR	14	n/a	n/a	n/a	n/a	n/a	n/a	n/a	n/a	n/a	n/a	n/a	n/a	n/a	n/a	n/a
3278411	PROB	n/a	LTP267	ltpFR	14	n/a	n/a	n/a	n/a	n/a	n/a	17	4	8	5	n/a	n/a	n/a	n/a	n/a
3280183	PROB	n/a	LTP267	ltpFR	14	n/a	n/a	n/a	n/a	n/a	n/a	18	9	6	3	n/a	n/a	n/a	n/a	n/a
3281957	PROB	n/a	LTP267	ltpFR	14	n/a	n/a	n/a	n/a	n/a	n/a	23	9	8	7	n/a	n/a	n/a	n/a	n/a
3283898	PROB	n/a	LTP267	ltpFR	14	n/a	n/a	n/a	n/a	n/a	n/a	16	1	6	8	n/a	n/a	n/a	n/a	n/a
3285367	STOP	n/a	LTP267	ltpFR	14	n/a	n/a	n/a	n/a	n/a	n/a	n/a	n/a	n/a	n/a	n/a	n/a	n/a	n/a	n/a
3286642	WORD	wordpools/wasnorm_wordpool_less_exclusions.txt	LTP267	ltpFR	14	12	0	PUBLISHER	1137	n/a	1	n/a	0	0	0	1	0.412841796875	0.57763671875	lower	../fonts/zerothre.ttf
3289654	START	n/a	LTP267	ltpFR	14	n/a	n/a	n/a	n/a	n/a	n/a	n/a	n/a	n/a	n/a	n/a	n/a	n/a	n/a	n/a
3290841	PROB	n/a	LTP267	ltpFR	14	n/a	n/a	n/a	n/a	n/a	n/a	18	9	3	6	n/a	n/a	n/a	n/a	n/a
3294322	PROB	n/a	LTP267	ltpFR	14	n/a	n/a	n/a	n/a	n/a	n/a	22	9	5	8	n/a	n/a	n/a	n/a	n/a
3296790	STOP	n/a	LTP267	ltpFR	14	n/a	n/a	n/a	n/a	n/a	n/a	n/a	n/a	n/a	n/a	n/a	n/a	n/a	n/a	n/a
3298838	WORD	wordpools/wasnorm_wordpool_less_exclusions.txt	LTP267	ltpFR	14	12	0	WIRE	1616	n/a	0	n/a	0	0	0	1	0.412841796875	0.57763671875	lower	../fonts/zerothre.ttf
3301850	START	n/a	LTP267	ltpFR	14	n/a	n/a	n/a	n/a	n/a	n/a	n/a	n/a	n/a	n/a	n/a	n/a	n/a	n/a	n/a
3303004	PROB	n/a	LTP267	ltpFR	14	n/a	n/a	n/a	n/a	n/a	n/a	8	2	2	4	n/a	n/a	n/a	n/a	n/a
3304326	PROB	n/a	LTP267	ltpFR	14	n/a	n/a	n/a	n/a	n/a	n/a	19	7	5	7	n/a	n/a	n/a	n/a	n/a
3306083	PROB	n/a	LTP267	ltpFR	14	n/a	n/a	n/a	n/a	n/a	n/a	11	6	3	2	n/a	n/a	n/a	n/a	n/a
3309846	STOP	n/a	LTP267	ltpFR	14	n/a	n/a	n/a	n/a	n/a	n/a	n/a	n/a	n/a	n/a	n/a	n/a	n/a	n/a	n/a
3311018	WORD	wordpools/wasnorm_wordpool_less_exclusions.txt	LTP267	ltpFR	14	12	0	BOOTH	151	n/a	0	n/a	0	0	0	1	0.412841796875	0.57763671875	lower	../fonts/zerothre.ttf
3314030	START	n/a	LTP267	ltpFR	14	n/a	n/a	n/a	n/a	n/a	n/a	n/a	n/a	n/a	n/a	n/a	n/a	n/a	n/a	n/a
3315117	PROB	n/a	LTP267	ltpFR	14	n/a	n/a	n/a	n/a	n/a	n/a	23	5	9	9	n/a	n/a	n/a	n/a	n/a
3316622	PROB	n/a	LTP267	ltpFR	14	n/a	n/a	n/a	n/a	n/a	n/a	11	1	4	6	n/a	n/a	n/a	n/a	n/a
3322029	STOP	n/a	LTP267	ltpFR	14	n/a	n/a	n/a	n/a	n/a	n/a	n/a	n/a	n/a	n/a	n/a	n/a	n/a	n/a	n/a
3323063	WORD	wordpools/wasnorm_wordpool_less_exclusions.txt	LTP267	ltpFR	14	12	0	BRICK	172	n/a	0	n/a	0	0	0	1	0.412841796875	0.57763671875	lower	../fonts/zerothre.ttf
3326076	START	n/a	LTP267	ltpFR	14	n/a	n/a	n/a	n/a	n/a	n/a	n/a	n/a	n/a	n/a	n/a	n/a	n/a	n/a	n/a
3327246	PROB	n/a	LTP267	ltpFR	14	n/a	n/a	n/a	n/a	n/a	n/a	11	3	5	3	n/a	n/a	n/a	n/a	n/a
3329001	PROB	n/a	LTP267	ltpFR	14	n/a	n/a	n/a	n/a	n/a	n/a	14	6	1	7	n/a	n/a	n/a	n/a	n/a
3330741	PROB	n/a	LTP267	ltpFR	14	n/a	n/a	n/a	n/a	n/a	n/a	5	2	2	1	n/a	n/a	n/a	n/a	n/a
3331762	PROB	n/a	LTP267	ltpFR	14	n/a	n/a	n/a	n/a	n/a	n/a	19	9	5	6	n/a	n/a	n/a	n/a	n/a
3333822	STOP	n/a	LTP267	ltpFR	14	n/a	n/a	n/a	n/a	n/a	n/a	n/a	n/a	n/a	n/a	n/a	n/a	n/a	n/a	n/a
3334975	WORD	wordpools/wasnorm_wordpool_less_exclusions.txt	LTP267	ltpFR	14	12	0	OBOE	969	n/a	0	n/a	0	0	0	1	0.412841796875	0.57763671875	lower	../fonts/zerothre.ttf
3337987	START	n/a	LTP267	ltpFR	14	n/a	n/a	n/a	n/a	n/a	n/a	n/a	n/a	n/a	n/a	n/a	n/a	n/a	n/a	n/a
3345987	STOP	n/a	LTP267	ltpFR	14	n/a	n/a	n/a	n/a	n/a	n/a	n/a	n/a	n/a	n/a	n/a	n/a	n/a	n/a	n/a
3346817	WORD	wordpools/wasnorm_wordpool_less_exclusions.txt	LTP267	ltpFR	14	12	0	RECORD	1176	n/a	0	n/a	0	0	0	1	0.412841796875	0.57763671875	lower	../fonts/zerothre.ttf
3349831	START	n/a	LTP267	ltpFR	14	n/a	n/a	n/a	n/a	n/a	n/a	n/a	n/a	n/a	n/a	n/a	n/a	n/a	n/a	n/a
3350700	PROB	n/a	LTP267	ltpFR	14	n/a	n/a	n/a	n/a	n/a	n/a	12	4	6	2	n/a	n/a	n/a	n/a	n/a
3356153	PROB	n/a	LTP267	ltpFR	14	n/a	n/a	n/a	n/a	n/a	n/a	5	3	1	1	n/a	n/a	n/a	n/a	n/a
3357494	STOP	n/a	LTP267	ltpFR	14	n/a	n/a	n/a	n/a	n/a	n/a	n/a	n/a	n/a	n/a	n/a	n/a	n/a	n/a	n/a
3358730	WORD	wordpools/wasnorm_wordpool_less_exclusions.txt	LTP267	ltpFR	14	12	0	PORTRAIT	1111	n/a	1	n/a	0	0	0	1	0.412841796875	0.57763671875	lower	../fonts/zerothre.ttf
3361742	START	n/a	LTP267	ltpFR	14	n/a	n/a	n/a	n/a	n/a	n/a	n/a	n/a	n/a	n/a	n/a	n/a	n/a	n/a	n/a
3362829	PROB	n/a	LTP267	ltpFR	14	n/a	n/a	n/a	n/a	n/a	n/a	14	7	5	2	n/a	n/a	n/a	n/a	n/a
3364835	PROB	n/a	LTP267	ltpFR	14	n/a	n/a	n/a	n/a	n/a	n/a	9	1	7	1	n/a	n/a	n/a	n/a	n/a
3365855	PROB	n/a	LTP267	ltpFR	14	n/a	n/a	n/a	n/a	n/a	n/a	23	8	8	9	n/a	n/a	n/a	n/a	n/a
3367614	PROB	n/a	LTP267	ltpFR	14	n/a	n/a	n/a	n/a	n/a	n/a	15	3	6	3	n/a	n/a	n/a	n/a	n/a
3369630	STOP	n/a	LTP267	ltpFR	14	n/a	n/a	n/a	n/a	n/a	n/a	n/a	n/a	n/a	n/a	n/a	n/a	n/a	n/a	n/a
3370843	WORD	wordpools/wasnorm_wordpool_less_exclusions.txt	LTP267	ltpFR	14	12	0	CELLAR	267	n/a	1	n/a	0	0	0	1	0.412841796875	0.57763671875	lower	../fonts/zerothre.ttf
3373855	START	n/a	LTP267	ltpFR	14	n/a	n/a	n/a	n/a	n/a	n/a	n/a	n/a	n/a	n/a	n/a	n/a	n/a	n/a	n/a
3374824	PROB	n/a	LTP267	ltpFR	14	n/a	n/a	n/a	n/a	n/a	n/a	5	3	1	1	n/a	n/a	n/a	n/a	n/a
3377249	PROB	n/a	LTP267	ltpFR	14	n/a	n/a	n/a	n/a	n/a	n/a	21	9	6	7	n/a	n/a	n/a	n/a	n/a
3379225	PROB	n/a	LTP267	ltpFR	14	n/a	n/a	n/a	n/a	n/a	n/a	13	1	8	4	n/a	n/a	n/a	n/a	n/a
3380590	STOP	n/a	LTP267	ltpFR	14	n/a	n/a	n/a	n/a	n/a	n/a	n/a	n/a	n/a	n/a	n/a	n/a	n/a	n/a	n/a
3382939	WORD	wordpools/wasnorm_wordpool_less_exclusions.txt	LTP267	ltpFR	14	12	0	PASSAGE	1019	n/a	1	n/a	0	0	0	1	0.412841796875	0.57763671875	lower	../fonts/zerothre.ttf
3385951	START	n/a	LTP267	ltpFR	14	n/a	n/a	n/a	n/a	n/a	n/a	n/a	n/a	n/a	n/a	n/a	n/a	n/a	n/a	n/a
3386938	PROB	n/a	LTP267	ltpFR	14	n/a	n/a	n/a	n/a	n/a	n/a	9	4	3	2	n/a	n/a	n/a	n/a	n/a
3389313	PROB	n/a	LTP267	ltpFR	14	n/a	n/a	n/a	n/a	n/a	n/a	16	7	1	8	n/a	n/a	n/a	n/a	n/a
3391170	PROB	n/a	LTP267	ltpFR	14	n/a	n/a	n/a	n/a	n/a	n/a	17	6	2	9	n/a	n/a	n/a	n/a	n/a
3392742	STOP	n/a	LTP267	ltpFR	14	n/a	n/a	n/a	n/a	n/a	n/a	n/a	n/a	n/a	n/a	n/a	n/a	n/a	n/a	n/a
3394917	WORD	wordpools/wasnorm_wordpool_less_exclusions.txt	LTP267	ltpFR	14	12	0	BANJO	82	n/a	0	n/a	0	0	0	1	0.412841796875	0.57763671875	lower	../fonts/zerothre.ttf
3397930	START	n/a	LTP267	ltpFR	14	n/a	n/a	n/a	n/a	n/a	n/a	n/a	n/a	n/a	n/a	n/a	n/a	n/a	n/a	n/a
3398966	PROB	n/a	LTP267	ltpFR	14	n/a	n/a	n/a	n/a	n/a	n/a	11	3	5	3	n/a	n/a	n/a	n/a	n/a
3401292	PROB	n/a	LTP267	ltpFR	14	n/a	n/a	n/a	n/a	n/a	n/a	13	4	6	3	n/a	n/a	n/a	n/a	n/a
3402329	PROB	n/a	LTP267	ltpFR	14	n/a	n/a	n/a	n/a	n/a	n/a	9	2	5	2	n/a	n/a	n/a	n/a	n/a
3404000	PROB	n/a	LTP267	ltpFR	14	n/a	n/a	n/a	n/a	n/a	n/a	10	2	1	6	n/a	n/a	n/a	n/a	n/a
3405478	STOP	n/a	LTP267	ltpFR	14	n/a	n/a	n/a	n/a	n/a	n/a	n/a	n/a	n/a	n/a	n/a	n/a	n/a	n/a	n/a
3407063	WORD	wordpools/wasnorm_wordpool_less_exclusions.txt	LTP267	ltpFR	14	12	0	LASH	802	n/a	1	n/a	0	0	0	1	0.412841796875	0.57763671875	lower	../fonts/zerothre.ttf
3410076	START	n/a	LTP267	ltpFR	14	n/a	n/a	n/a	n/a	n/a	n/a	n/a	n/a	n/a	n/a	n/a	n/a	n/a	n/a	n/a
3411246	PROB	n/a	LTP267	ltpFR	14	n/a	n/a	n/a	n/a	n/a	n/a	17	6	5	6	n/a	n/a	n/a	n/a	n/a
3413053	PROB	n/a	LTP267	ltpFR	14	n/a	n/a	n/a	n/a	n/a	n/a	11	4	5	2	n/a	n/a	n/a	n/a	n/a
3415278	PROB	n/a	LTP267	ltpFR	14	n/a	n/a	n/a	n/a	n/a	n/a	14	2	4	8	n/a	n/a	n/a	n/a	n/a
3416678	STOP	n/a	LTP267	ltpFR	14	n/a	n/a	n/a	n/a	n/a	n/a	n/a	n/a	n/a	n/a	n/a	n/a	n/a	n/a	n/a
3419258	WORD	wordpools/wasnorm_wordpool_less_exclusions.txt	LTP267	ltpFR	14	12	0	STAKE	1368	n/a	0	n/a	0	0	0	1	0.412841796875	0.57763671875	lower	../fonts/zerothre.ttf
3422271	START	n/a	LTP267	ltpFR	14	n/a	n/a	n/a	n/a	n/a	n/a	n/a	n/a	n/a	n/a	n/a	n/a	n/a	n/a	n/a
3423308	PROB	n/a	LTP267	ltpFR	14	n/a	n/a	n/a	n/a	n/a	n/a	13	4	3	4	n/a	n/a	n/a	n/a	n/a
3425749	PROB	n/a	LTP267	ltpFR	14	n/a	n/a	n/a	n/a	n/a	n/a	16	7	1	8	n/a	n/a	n/a	n/a	n/a
3427290	PROB	n/a	LTP267	ltpFR	14	n/a	n/a	n/a	n/a	n/a	n/a	17	1	7	9	n/a	n/a	n/a	n/a	n/a
3428967	STOP	n/a	LTP267	ltpFR	14	n/a	n/a	n/a	n/a	n/a	n/a	n/a	n/a	n/a	n/a	n/a	n/a	n/a	n/a	n/a
3431188	WORD	wordpools/wasnorm_wordpool_less_exclusions.txt	LTP267	ltpFR	14	12	0	PAINTER	1004	n/a	1	n/a	0	0	0	1	0.412841796875	0.57763671875	lower	../fonts/zerothre.ttf
3434199	START	n/a	LTP267	ltpFR	14	n/a	n/a	n/a	n/a	n/a	n/a	n/a	n/a	n/a	n/a	n/a	n/a	n/a	n/a	n/a
3435337	PROB	n/a	LTP267	ltpFR	14	n/a	n/a	n/a	n/a	n/a	n/a	12	5	1	6	n/a	n/a	n/a	n/a	n/a
3437227	PROB	n/a	LTP267	ltpFR	14	n/a	n/a	n/a	n/a	n/a	n/a	17	7	7	3	n/a	n/a	n/a	n/a	n/a
3439168	PROB	n/a	LTP267	ltpFR	14	n/a	n/a	n/a	n/a	n/a	n/a	13	2	6	5	n/a	n/a	n/a	n/a	n/a
3441255	STOP	n/a	LTP267	ltpFR	14	n/a	n/a	n/a	n/a	n/a	n/a	n/a	n/a	n/a	n/a	n/a	n/a	n/a	n/a	n/a
3444037	REC_START	n/a	LTP267	ltpFR	14	12	n/a	n/a	n/a	n/a	n/a	n/a	0	0	0	n/a	n/a	n/a	n/a	n/a
3445782	REC_WORD	wordpools/wasnorm_wordpool_less_exclusions.txt	LTP267	ltpFR	14	12	0	BULLY	196	n/a	1	n/a	0	0	0	n/a	n/a	n/a	n/a	n/a
3446827	REC_WORD	wordpools/wasnorm_wordpool_less_exclusions.txt	LTP267	ltpFR	14	12	0	GRASS	655	n/a	0	n/a	0	0	0	n/a	n/a	n/a	n/a	n/a
3448110	REC_WORD	wordpools/wasnorm_wordpool_less_exclusions.txt	LTP267	ltpFR	14	12	n/a	BASEMENT	94	n/a	n/a	n/a	0	0	0	n/a	n/a	n/a	n/a	n/a
3449097	REC_WORD	wordpools/wasnorm_wordpool_less_exclusions.txt	LTP267	ltpFR	14	12	0	CELLAR	267	n/a	1	n/a	0	0	0	n/a	n/a	n/a	n/a	n/a
3450403	REC_WORD	wordpools/wasnorm_wordpool_less_exclusions.txt	LTP267	ltpFR	14	12	0	PAINTER	1004	n/a	1	n/a	0	0	0	n/a	n/a	n/a	n/a	n/a
3451413	REC_WORD	wordpools/wasnorm_wordpool_less_exclusions.txt	LTP267	ltpFR	14	12	0	SEED	1266	n/a	0	n/a	0	0	0	n/a	n/a	n/a	n/a	n/a
3453541	REC_WORD	wordpools/wasnorm_wordpool_less_exclusions.txt	LTP267	ltpFR	14	12	0	LASH	802	n/a	1	n/a	0	0	0	n/a	n/a	n/a	n/a	n/a
3454691	REC_WORD	wordpools/wasnorm_wordpool_less_exclusions.txt	LTP267	ltpFR	14	12	0	STAKE	1368	n/a	0	n/a	0	0	0	n/a	n/a	n/a	n/a	n/a
3529375	REC_START	n/a	LTP267	ltpFR	14	n/a	n/a	n/a	n/a	n/a	n/a	n/a	0	0	0	n/a	n/a	n/a	n/a	n/a
3531280	FFR_REC_WORD	wordpools/wasnorm_wordpool_less_exclusions.txt	LTP267	ltpFR	14	n/a	0	SEED	1266	n/a	0	n/a	0	0	0	n/a	n/a	n/a	n/a	n/a
3532682	FFR_REC_WORD	wordpools/wasnorm_wordpool_less_exclusions.txt	LTP267	ltpFR	14	n/a	0	BULLY	196	n/a	1	n/a	0	0	0	n/a	n/a	n/a	n/a	n/a
3533655	FFR_REC_WORD	wordpools/wasnorm_wordpool_less_exclusions.txt	LTP267	ltpFR	14	n/a	0	LASH	802	n/a	1	n/a	0	0	0	n/a	n/a	n/a	n/a	n/a
3534642	FFR_REC_WORD	wordpools/wasnorm_wordpool_less_exclusions.txt	LTP267	ltpFR	14	n/a	0	STAKE	1368	n/a	0	n/a	0	0	0	n/a	n/a	n/a	n/a	n/a
3536184	FFR_REC_WORD	wordpools/wasnorm_wordpool_less_exclusions.txt	LTP267	ltpFR	14	n/a	n/a	BASEMENT	94	n/a	n/a	n/a	0	0	0	n/a	n/a	n/a	n/a	n/a
3537441	FFR_REC_WORD	wordpools/wasnorm_wordpool_less_exclusions.txt	LTP267	ltpFR	14	n/a	n/a	ATTIC	56	n/a	n/a	n/a	0	0	0	n/a	n/a	n/a	n/a	n/a
